timestamp,lap,vehicle_id,steering_angle,accx_can,accy_can,ath,gear,nmot,pbrake_f,pbrake_r,speed
2025-08-15T04:47:35.427Z,3,GR86-028-89,-3.6,0.123,-0.124,45.65,3.0,,0.0,0.0,
2025-08-15T04:47:35.471Z,3,GR86-028-89,-2.8000000000000003,0.131,-0.164,45.8,3.0,,0.0,0.0,
2025-08-15T04:47:35.514Z,3,GR86-028-89,-2.6,0.139,-0.183,47.57,3.0,5815.0,0.0,0.0,
2025-08-15T04:47:35.557Z,3,GR86-028-89,-2.6,0.146,-0.201,49.84,3.0,,0.0,0.0,124.33
2025-08-15T04:47:35.600Z,3,GR86-028-89,-2.7,0.139,-0.183,50.1,3.0,,0.0,0.0,
2025-08-15T04:47:35.644Z,3,GR86-028-89,-2.8000000000000003,0.161,-0.188,49.36,3.0,,0.0,0.0,
2025-08-15T04:47:35.687Z,3,GR86-028-89,-2.7,0.174,-0.167,49.04,3.0,,0.0,0.0,
2025-08-15T04:47:35.731Z,3,GR86-028-89,-2.6,0.176,-0.156,48.49,3.0,5865.0,0.0,0.0,
2025-08-15T04:47:35.774Z,3,GR86-028-89,-2.6,0.167,-0.147,47.18,3.0,,0.0,0.0,125.22
2025-08-15T04:47:35.817Z,3,GR86-028-89,-2.7,0.156,-0.131,45.13,3.0,,0.0,0.0,
2025-08-15T04:47:35.860Z,3,GR86-028-89,-2.7,0.141,-0.132,41.76,3.0,,0.0,0.0,
2025-08-15T04:47:35.906Z,3,GR86-028-89,-2.6,0.151,-0.12,39.27,3.0,,0.0,0.0,
2025-08-15T04:47:35.949Z,3,GR86-028-89,-2.4000000000000004,0.137,-0.122,38.78,3.0,5924.0,0.0,0.0,
2025-08-15T04:47:35.993Z,3,GR86-028-89,-2.3000000000000003,0.115,-0.111,38.3,3.0,,2.5500000000000003,2.73,126.25
2025-08-15T04:47:36.035Z,3,GR86-028-89,-2.3000000000000003,0.09,-0.102,37.14,3.0,,3.645,3.725,
2025-08-15T04:47:36.078Z,3,GR86-028-89,-1.9,0.061,-0.109,34.03,3.0,,4.96,5.16,
2025-08-15T04:47:36.125Z,3,GR86-028-89,-1.2000000000000002,0.0,-0.11,25.56,3.0,,7.17,7.325,
2025-08-15T04:47:36.168Z,3,GR86-028-89,-0.5,-0.027,-0.109,8.0,3.0,5960.0,8.605,8.805,
2025-08-15T04:47:36.211Z,3,GR86-028-89,0.1,-0.062,-0.088,3.41,3.0,,9.78,9.935,127.83
2025-08-15T04:47:36.254Z,3,GR86-028-89,0.5,-0.148,-0.096,3.53,3.0,,10.925,11.095,
2025-08-15T04:47:36.297Z,3,GR86-028-89,0.6000000000000001,-0.336,-0.065,3.44,3.0,,12.3,12.42,
2025-08-15T04:47:36.340Z,3,GR86-028-89,0.9,-0.294,-0.05,3.31,3.0,,13.52,13.735,
2025-08-15T04:47:36.385Z,3,GR86-028-89,1.2000000000000002,-0.523,-0.05,3.12,3.0,5967.0,15.625,15.72,
2025-08-15T04:47:36.427Z,3,GR86-028-89,1.2000000000000002,-0.458,-0.026,3.02,3.0,,16.22,16.435,127.08
2025-08-15T04:47:36.471Z,3,GR86-028-89,1.3,-0.418,-0.072,2.94,3.0,,16.315,16.555,
2025-08-15T04:47:36.514Z,3,GR86-028-89,1.3,-0.416,-0.016,2.86,3.0,,16.65,16.740000000000002,
2025-08-15T04:47:36.557Z,3,GR86-028-89,1.3,-0.453,-0.019,2.83,3.0,,16.68,17.09,
2025-08-15T04:47:36.600Z,3,GR86-028-89,1.4,-0.479,-0.037,2.77,3.0,5663.0,16.65,17.06,
2025-08-15T04:47:36.644Z,3,GR86-028-89,1.5,-0.463,-0.021,2.71,3.0,,17.03,17.275000000000002,124.29
2025-08-15T04:47:36.687Z,3,GR86-028-89,1.5,-0.428,-0.024,2.69,3.0,,17.03,17.455000000000002,
2025-08-15T04:47:36.731Z,3,GR86-028-89,1.6,-0.449,-0.004,2.67,3.0,,17.185,17.490000000000002,
2025-08-15T04:47:36.774Z,3,GR86-028-89,1.7000000000000002,-0.49,-0.022,2.7,3.0,,17.365000000000002,17.78,
2025-08-15T04:47:36.817Z,3,GR86-028-89,1.9,-0.464,-0.006,2.86,3.0,5472.0,17.365000000000002,17.78,
2025-08-15T04:47:36.860Z,3,GR86-028-89,2.0,-0.448,0.015,2.96,3.0,,17.365000000000002,17.715,121.2
2025-08-15T04:47:36.906Z,3,GR86-028-89,2.0,-0.439,0.009,4.36,3.0,,17.185,17.61,
2025-08-15T04:47:36.948Z,3,GR86-028-89,2.0,-0.458,-0.008,5.41,3.0,,17.365000000000002,17.78,
2025-08-15T04:47:36.991Z,3,GR86-028-89,2.0,-0.462,0.004,6.46,3.0,,17.365000000000002,17.52,
2025-08-15T04:47:37.034Z,3,GR86-028-89,2.0,-0.469,0.013,11.63,3.0,5318.0,17.335,17.490000000000002,
2025-08-15T04:47:37.077Z,3,GR86-028-89,1.8,-0.438,0.0,15.02,3.0,,17.335,17.715,117.98
2025-08-15T04:47:37.120Z,3,GR86-028-89,1.7000000000000002,-0.409,0.01,15.24,3.0,,17.395,17.78,
2025-08-15T04:47:37.164Z,3,GR86-028-89,1.6,-0.4,0.02,15.27,3.0,,17.395,17.84,
2025-08-15T04:47:37.207Z,3,GR86-028-89,1.5,-0.413,0.015,14.66,3.0,,17.55,17.84,
2025-08-15T04:47:37.250Z,3,GR86-028-89,1.2000000000000002,-0.389,-0.008,12.86,3.0,5216.0,17.715,17.87,
2025-08-15T04:47:37.294Z,3,GR86-028-89,0.3,-0.403,0.018,12.85,3.0,,17.365000000000002,17.78,115.01
2025-08-15T04:47:37.336Z,3,GR86-028-89,-0.8,-0.34,-0.011,12.63,3.0,,17.395,17.81,
2025-08-15T04:47:37.379Z,3,GR86-028-89,-1.3,-0.251,-0.008,11.67,3.0,,17.455000000000002,17.96,
2025-08-15T04:47:37.425Z,3,GR86-028-89,-1.5,-0.388,-0.006,11.85,3.0,,17.580000000000002,17.96,
2025-08-15T04:47:37.468Z,3,GR86-028-89,-1.9,-0.404,-0.024,11.86,3.0,5120.0,17.745,18.145,
2025-08-15T04:47:37.511Z,3,GR86-028-89,-2.1,-0.395,-0.031,11.55,3.0,,17.93,18.145,112.4
2025-08-15T04:47:37.554Z,3,GR86-028-89,-2.0,-0.42,-0.026,10.57,3.0,,18.055,18.405,
2025-08-15T04:47:37.597Z,3,GR86-028-89,-1.8,-0.392,-0.047,9.36,3.0,,18.555,18.8,
2025-08-15T04:47:37.640Z,3,GR86-028-89,-1.8,-0.358,-0.041,8.16,3.0,,18.615,18.86,
2025-08-15T04:47:37.685Z,3,GR86-028-89,-1.8,-0.428,-0.044,7.96,3.0,5033.0,18.555,18.83,
2025-08-15T04:47:37.727Z,3,GR86-028-89,-1.8,-0.41,-0.061,7.95,3.0,,18.77,19.15,110.03
2025-08-15T04:47:37.771Z,3,GR86-028-89,-1.8,-0.429,-0.066,7.96,3.0,,18.68,19.12,
2025-08-15T04:47:37.814Z,3,GR86-028-89,-1.8,-0.439,-0.08,7.94,3.0,,18.65,19.15,
2025-08-15T04:47:37.857Z,3,GR86-028-89,-1.6,-0.431,-0.074,7.94,3.0,,18.68,19.12,
2025-08-15T04:47:37.900Z,3,GR86-028-89,-1.3,-0.521,-0.062,8.48,3.0,4790.0,18.68,18.985,
2025-08-15T04:47:37.944Z,3,GR86-028-89,-0.3,-0.454,-0.057,8.02,3.0,,18.71,19.075,107.22
2025-08-15T04:47:37.987Z,3,GR86-028-89,0.1,-0.428,-0.049,7.98,3.0,,18.65,19.015,
2025-08-15T04:47:38.030Z,3,GR86-028-89,0.6000000000000001,-0.451,-0.043,7.99,3.0,,18.405,18.83,
2025-08-15T04:47:38.075Z,3,GR86-028-89,0.8,-0.424,-0.048,8.19,3.0,,17.455000000000002,17.96,
2025-08-15T04:47:38.117Z,3,GR86-028-89,1.0,-0.424,-0.038,10.5,3.0,4743.0,13.335,14.205,
2025-08-15T04:47:38.160Z,3,GR86-028-89,1.1,-0.323,-0.043,11.41,3.0,,7.8,8.455,103.97
2025-08-15T04:47:38.205Z,3,GR86-028-89,1.1,-0.175,-0.039,10.77,3.0,,0.0,1.955,
2025-08-15T04:47:38.248Z,3,GR86-028-89,1.1,-0.135,-0.023,9.97,3.0,,0.0,0.0,
2025-08-15T04:47:38.291Z,3,GR86-028-89,1.1,-0.13,-0.034,34.54,3.0,,2.015,2.305,
2025-08-15T04:47:38.334Z,3,GR86-028-89,1.1,-0.115,-0.012,80.81,3.0,4584.0,3.25,3.37,
2025-08-15T04:47:38.377Z,3,GR86-028-89,1.1,-0.156,-0.012,98.34,2.0,,4.3950000000000005,4.655,101.25
2025-08-15T04:47:38.421Z,3,GR86-028-89,1.2000000000000002,-0.155,0.012,38.76,2.0,,5.16,5.25,
2025-08-15T04:47:38.465Z,3,GR86-028-89,1.1,-0.391,-0.017,17.650000000000002,2.0,,5.495,5.86,
2025-08-15T04:47:38.507Z,3,GR86-028-89,0.8,-0.618,0.046,20.74,2.0,,5.905,6.3950000000000005,
2025-08-15T04:47:38.550Z,3,GR86-028-89,1.1,-0.144,-0.033,19.95,2.0,4550.0,4.275,4.47,
2025-08-15T04:47:38.594Z,3,GR86-028-89,1.1,-0.203,-0.03,20.43,2.0,,0.0,0.0,100.29
2025-08-15T04:47:38.637Z,3,GR86-028-89,0.9,0.095,0.025,19.85,2.0,,0.0,1.985,
2025-08-15T04:47:38.680Z,3,GR86-028-89,1.0,0.226,-0.027,18.87,2.0,,1.985,2.075,
2025-08-15T04:47:38.725Z,3,GR86-028-89,0.9,0.056,-0.013,20.1,2.0,,0.0,0.0,
2025-08-15T04:47:38.768Z,3,GR86-028-89,0.7000000000000001,-0.047,0.018,21.67,2.0,5733.0,0.0,0.0,
2025-08-15T04:47:38.811Z,3,GR86-028-89,0.7000000000000001,-0.05,-0.046,23.55,2.0,,0.0,0.0,97.84
2025-08-15T04:47:38.854Z,3,GR86-028-89,0.7000000000000001,0.004,0.003,24.56,2.0,,0.0,0.0,
2025-08-15T04:47:38.897Z,3,GR86-028-89,0.7000000000000001,0.104,-0.007,24.6,2.0,,0.0,0.0,
2025-08-15T04:47:38.940Z,3,GR86-028-89,0.7000000000000001,0.134,-0.027,24.39,2.0,,0.0,0.0,
2025-08-15T04:47:38.985Z,3,GR86-028-89,0.5,0.105,0.001,24.52,2.0,5501.0,0.0,0.0,
2025-08-15T04:47:39.027Z,3,GR86-028-89,0.4,0.08,-0.025,25.7,2.0,,0.0,0.0,98.25
2025-08-15T04:47:39.071Z,3,GR86-028-89,0.4,0.078,-0.017,27.41,2.0,,0.0,0.0,
2025-08-15T04:47:39.114Z,3,GR86-028-89,0.3,0.093,-0.015,28.69,2.0,,0.0,0.0,
2025-08-15T04:47:39.156Z,3,GR86-028-89,0.1,0.116,-0.032,29.6,2.0,,0.0,0.0,
2025-08-15T04:47:39.199Z,3,GR86-028-89,-0.2,0.127,-0.032,30.47,2.0,5627.0,0.0,0.0,
2025-08-15T04:47:39.244Z,3,GR86-028-89,-0.2,0.147,-0.04,30.96,2.0,,0.0,0.0,98.89
2025-08-15T04:47:39.287Z,3,GR86-028-89,-0.2,0.146,-0.03,31.08,2.0,,0.0,0.0,
2025-08-15T04:47:39.331Z,3,GR86-028-89,-0.2,0.149,-0.033,31.16,2.0,,0.0,0.0,
2025-08-15T04:47:39.374Z,3,GR86-028-89,-0.4,0.147,-0.036,31.26,2.0,,0.0,0.0,
2025-08-15T04:47:39.417Z,3,GR86-028-89,-1.0,0.146,-0.049,31.37,2.0,5771.0,0.0,0.0,
2025-08-15T04:47:39.460Z,3,GR86-028-89,-1.4,0.146,-0.034,31.55,2.0,,0.0,0.0,99.74
2025-08-15T04:47:39.505Z,3,GR86-028-89,-1.8,0.155,-0.046,31.99,2.0,,0.0,0.0,
2025-08-15T04:47:39.548Z,3,GR86-028-89,-1.8,0.155,-0.054,32.87,2.0,,0.0,0.0,
2025-08-15T04:47:39.591Z,3,GR86-028-89,-1.3,0.152,-0.06,33.32,2.0,,0.0,0.0,
2025-08-15T04:47:39.635Z,3,GR86-028-89,-1.2000000000000002,0.148,-0.066,34.63,2.0,5839.0,0.0,0.0,
2025-08-15T04:47:39.678Z,3,GR86-028-89,-1.2000000000000002,0.139,-0.06,36.47,2.0,,0.0,0.0,100.9
2025-08-15T04:47:39.725Z,3,GR86-028-89,-1.2000000000000002,0.168,-0.068,37.34,2.0,,0.0,0.0,
2025-08-15T04:47:39.768Z,3,GR86-028-89,-1.2000000000000002,0.182,-0.074,37.38,2.0,,0.0,0.0,
2025-08-15T04:47:39.811Z,3,GR86-028-89,-1.3,0.174,-0.074,38.03,2.0,,0.0,0.0,
2025-08-15T04:47:39.854Z,3,GR86-028-89,-1.3,0.173,-0.075,39.42,2.0,5919.0,0.0,0.0,
2025-08-15T04:47:39.897Z,3,GR86-028-89,-0.9,0.165,-0.069,42.63,2.0,,0.0,0.0,102.11
2025-08-15T04:47:39.940Z,3,GR86-028-89,-0.7000000000000001,0.176,-0.072,48.76,2.0,,0.0,0.0,
2025-08-15T04:47:39.985Z,3,GR86-028-89,-0.5,0.188,-0.06,56.72,2.0,,0.0,0.0,
2025-08-15T04:47:40.027Z,3,GR86-028-89,-0.4,0.188,-0.061,59.51,2.0,,0.0,0.0,
2025-08-15T04:47:40.071Z,3,GR86-028-89,-0.4,0.219,-0.054,65.79,2.0,6002.0,0.0,0.0,
2025-08-15T04:47:40.114Z,3,GR86-028-89,-0.4,0.241,-0.062,78.21000000000001,2.0,,0.0,0.0,103.34
2025-08-15T04:47:40.157Z,3,GR86-028-89,-0.4,0.272,-0.061,98.52,2.0,,0.0,0.0,
2025-08-15T04:47:40.200Z,3,GR86-028-89,-0.4,0.26,-0.067,100.52,2.0,,0.0,0.0,
2025-08-15T04:47:40.244Z,3,GR86-028-89,-0.4,0.233,-0.066,100.66,2.0,,0.0,0.0,
2025-08-15T04:47:40.287Z,3,GR86-028-89,-0.4,0.253,-0.072,100.65,2.0,6117.0,0.0,0.0,
2025-08-15T04:47:40.331Z,3,GR86-028-89,-0.4,0.249,-0.071,100.62,2.0,,0.0,0.0,104.69
2025-08-15T04:47:40.375Z,3,GR86-028-89,-0.4,0.255,-0.071,100.6,2.0,,0.0,0.0,
2025-08-15T04:47:40.417Z,3,GR86-028-89,-0.4,0.256,-0.068,100.56,2.0,,0.0,0.0,
2025-08-15T04:47:40.460Z,3,GR86-028-89,-0.2,0.236,-0.067,100.53,2.0,,0.0,0.0,
2025-08-15T04:47:40.506Z,3,GR86-028-89,-0.1,0.234,-0.061,100.36,2.0,6226.0,0.0,0.0,
2025-08-15T04:47:40.548Z,3,GR86-028-89,0.1,0.252,-0.074,100.33,2.0,,0.0,0.0,106.51
2025-08-15T04:47:40.591Z,3,GR86-028-89,0.1,0.247,-0.058,100.19,2.0,,0.0,0.0,
2025-08-15T04:47:40.634Z,3,GR86-028-89,-0.1,0.173,-0.077,100.08,2.0,,0.0,0.0,
2025-08-15T04:47:40.677Z,3,GR86-028-89,-0.4,-0.112,-0.029,99.99,3.0,,0.0,0.0,
2025-08-15T04:47:40.720Z,3,GR86-028-89,-0.2,0.002,-0.057,99.91,3.0,6336.0,0.0,0.0,
2025-08-15T04:47:40.764Z,3,GR86-028-89,-0.9,0.389,-0.089,57.2,3.0,,0.0,0.0,108.36
2025-08-15T04:47:40.807Z,3,GR86-028-89,-2.0,0.381,-0.054,58.32,3.0,,0.0,0.0,
2025-08-15T04:47:40.850Z,3,GR86-028-89,-2.7,0.108,-0.031,67.56,3.0,,0.0,0.0,
2025-08-15T04:47:40.894Z,3,GR86-028-89,-2.7,0.067,-0.108,67.17,3.0,,0.0,0.0,
2025-08-15T04:47:40.936Z,3,GR86-028-89,-2.7,0.182,-0.056,58.23,3.0,5325.0,0.0,0.0,
2025-08-15T04:47:40.979Z,3,GR86-028-89,-2.5,0.245,-0.067,56.84,3.0,,0.0,0.0,109.83
2025-08-15T04:47:41.025Z,3,GR86-028-89,-1.9,0.181,-0.068,59.22,3.0,,0.0,0.0,
2025-08-15T04:47:41.067Z,3,GR86-028-89,-1.8,0.18,-0.073,59.58,3.0,,0.0,0.0,
2025-08-15T04:47:41.110Z,3,GR86-028-89,-1.8,0.157,-0.097,62.52,3.0,,0.0,0.0,
2025-08-15T04:47:41.154Z,3,GR86-028-89,-1.7000000000000002,0.201,-0.084,65.01,3.0,5299.0,0.0,0.0,
2025-08-15T04:47:41.196Z,3,GR86-028-89,-1.3,0.193,-0.093,68.71000000000001,3.0,,0.0,0.0,111.5
2025-08-15T04:47:41.239Z,3,GR86-028-89,-0.7000000000000001,0.183,-0.096,80.25,3.0,,0.0,0.0,
2025-08-15T04:47:41.285Z,3,GR86-028-89,-0.1,0.18,-0.078,99.92,3.0,,0.0,0.0,
2025-08-15T04:47:41.327Z,3,GR86-028-89,0.7000000000000001,0.208,-0.092,100.63,3.0,,0.0,0.0,
2025-08-15T04:47:41.371Z,3,GR86-028-89,1.1,0.201,-0.078,100.64,3.0,5342.0,0.0,0.0,
2025-08-15T04:47:41.414Z,3,GR86-028-89,1.2000000000000002,0.194,-0.064,100.62,3.0,,0.0,0.0,114.4
2025-08-15T04:47:41.457Z,3,GR86-028-89,1.2000000000000002,0.203,-0.083,100.6,3.0,,0.0,0.0,
2025-08-15T04:47:41.500Z,3,GR86-028-89,1.2000000000000002,0.191,-0.059,100.54,3.0,,0.0,0.0,
2025-08-15T04:47:41.544Z,3,GR86-028-89,1.2000000000000002,0.188,-0.034,100.42,3.0,,0.0,0.0,
2025-08-15T04:47:41.587Z,3,GR86-028-89,1.4,0.204,-0.046,100.39,3.0,5404.0,0.0,0.0,
2025-08-15T04:47:41.631Z,3,GR86-028-89,1.4,0.207,-0.046,100.3,3.0,,0.0,0.0,115.89
2025-08-15T04:47:41.675Z,3,GR86-028-89,1.4,0.19,-0.04,100.2,3.0,,0.0,0.0,
2025-08-15T04:47:41.717Z,3,GR86-028-89,1.4,0.201,-0.054,100.05,3.0,,0.0,0.0,
2025-08-15T04:47:41.760Z,3,GR86-028-89,1.4,0.19,-0.035,99.96,3.0,,0.0,0.0,
2025-08-15T04:47:41.805Z,3,GR86-028-89,1.4,0.199,-0.036,99.9,3.0,5549.0,0.0,0.0,
2025-08-15T04:47:41.848Z,3,GR86-028-89,1.5,0.182,-0.011,99.92,3.0,,0.0,0.0,117.47
2025-08-15T04:47:41.891Z,3,GR86-028-89,1.5,0.205,-0.038,99.88,3.0,,0.0,0.0,
2025-08-15T04:47:41.934Z,3,GR86-028-89,1.5,0.194,-0.023,99.88,3.0,,0.0,0.0,
2025-08-15T04:47:41.977Z,3,GR86-028-89,1.7000000000000002,0.175,-0.011,99.92,3.0,,0.0,0.0,
2025-08-15T04:47:42.021Z,3,GR86-028-89,2.1,0.197,-0.046,99.92,3.0,5614.0,0.0,0.0,
2025-08-15T04:47:42.065Z,3,GR86-028-89,3.8,0.209,-0.036,99.94,3.0,,0.0,0.0,118.98
2025-08-15T04:47:42.107Z,3,GR86-028-89,5.5,0.191,-0.019,99.95,3.0,,0.0,0.0,
2025-08-15T04:47:42.150Z,3,GR86-028-89,7.2,0.189,0.019,99.94,3.0,,0.0,0.0,
2025-08-15T04:47:42.194Z,3,GR86-028-89,8.700000000000001,0.196,0.009,99.97,3.0,,0.0,0.0,
2025-08-15T04:47:42.237Z,3,GR86-028-89,9.7,0.184,0.041,99.97,3.0,5685.0,0.0,0.0,
2025-08-15T04:47:42.279Z,3,GR86-028-89,10.1,0.192,0.076,99.96,3.0,,0.0,0.0,120.51
2025-08-15T04:47:42.325Z,3,GR86-028-89,10.1,0.186,0.104,99.98,3.0,,0.0,0.0,
2025-08-15T04:47:42.368Z,3,GR86-028-89,10.1,0.208,0.099,100.0,3.0,,0.0,0.0,
2025-08-15T04:47:42.411Z,3,GR86-028-89,10.2,0.191,0.131,99.97,3.0,,0.0,0.0,
2025-08-15T04:47:42.454Z,3,GR86-028-89,10.6,0.182,0.153,99.99,3.0,5752.0,0.0,0.0,
2025-08-15T04:47:42.497Z,3,GR86-028-89,11.2,0.205,0.161,99.98,3.0,,0.0,0.0,122.02
2025-08-15T04:47:42.540Z,3,GR86-028-89,11.8,0.203,0.174,99.99,3.0,,0.0,0.0,
2025-08-15T04:47:42.585Z,3,GR86-028-89,12.2,0.189,0.196,100.05,3.0,,0.0,0.0,
2025-08-15T04:47:42.627Z,3,GR86-028-89,12.3,0.191,0.221,100.0,3.0,,0.0,0.0,
2025-08-15T04:47:42.671Z,3,GR86-028-89,13.0,0.197,0.22,99.98,3.0,5824.0,0.0,0.0,
2025-08-15T04:47:42.714Z,3,GR86-028-89,13.9,0.201,0.228,99.98,3.0,,0.0,0.0,123.45
2025-08-15T04:47:42.757Z,3,GR86-028-89,14.6,0.189,0.259,99.99,3.0,,0.0,0.0,
2025-08-15T04:47:42.800Z,3,GR86-028-89,14.7,0.184,0.262,100.01,3.0,,0.0,0.0,
2025-08-15T04:47:42.844Z,3,GR86-028-89,13.6,0.188,0.273,100.01,3.0,,0.0,0.0,
2025-08-15T04:47:42.887Z,3,GR86-028-89,12.5,0.199,0.273,100.01,3.0,5895.0,0.0,0.0,
2025-08-15T04:47:42.931Z,3,GR86-028-89,11.5,0.198,0.285,100.02,3.0,,0.0,0.0,124.98
2025-08-15T04:47:42.975Z,3,GR86-028-89,10.8,0.183,0.269,100.01,3.0,,0.0,0.0,
2025-08-15T04:47:43.018Z,3,GR86-028-89,10.4,0.19,0.261,100.02,3.0,,0.0,0.0,
2025-08-15T04:47:43.061Z,3,GR86-028-89,10.2,0.189,0.253,100.02,3.0,,0.0,0.0,
2025-08-15T04:47:43.106Z,3,GR86-028-89,10.2,0.195,0.245,100.02,3.0,5961.0,0.0,0.0,
2025-08-15T04:47:43.148Z,3,GR86-028-89,9.8,0.199,0.245,100.02,3.0,,0.0,0.0,126.45
2025-08-15T04:47:43.191Z,3,GR86-028-89,8.8,0.18,0.248,100.01,3.0,,0.0,0.0,
2025-08-15T04:47:43.234Z,3,GR86-028-89,7.5,0.18,0.236,100.01,3.0,,0.0,0.0,
2025-08-15T04:47:43.277Z,3,GR86-028-89,6.300000000000001,0.194,0.214,100.0,3.0,,0.0,0.0,
2025-08-15T04:47:43.320Z,3,GR86-028-89,5.7,0.193,0.175,100.01,3.0,6024.0,0.0,0.0,
2025-08-15T04:47:43.364Z,3,GR86-028-89,4.9,0.179,0.14,100.0,3.0,,0.0,0.0,127.88
2025-08-15T04:47:43.407Z,3,GR86-028-89,4.5,0.167,0.132,99.98,3.0,,0.0,0.0,
2025-08-15T04:47:43.450Z,3,GR86-028-89,4.5,0.182,0.126,100.01,3.0,,0.0,0.0,
2025-08-15T04:47:43.494Z,3,GR86-028-89,4.3,0.193,0.108,100.04,3.0,,0.0,0.0,
2025-08-15T04:47:43.536Z,3,GR86-028-89,3.5,0.192,0.085,100.02,3.0,6084.0,0.0,0.0,
2025-08-15T04:47:43.579Z,3,GR86-028-89,1.7000000000000002,0.181,0.071,100.01,3.0,,0.0,0.0,129.35
2025-08-15T04:47:43.625Z,3,GR86-028-89,0.4,0.17,0.043,100.0,3.0,,0.0,0.0,
2025-08-15T04:47:43.668Z,3,GR86-028-89,0.4,0.173,0.039,99.98,3.0,,0.0,0.0,
2025-08-15T04:47:43.711Z,3,GR86-028-89,0.4,0.182,0.009,99.99,3.0,,0.0,0.0,
2025-08-15T04:47:43.754Z,3,GR86-028-89,0.4,0.171,-0.001,100.04,3.0,6148.0,0.0,0.0,
2025-08-15T04:47:43.797Z,3,GR86-028-89,0.3,0.176,-0.017,100.0,3.0,,0.0,0.0,130.75
2025-08-15T04:47:43.840Z,3,GR86-028-89,0.3,0.177,-0.036,99.98,3.0,,0.0,0.0,
2025-08-15T04:47:43.885Z,3,GR86-028-89,0.3,0.175,-0.037,100.02,3.0,,0.0,0.0,
2025-08-15T04:47:43.927Z,3,GR86-028-89,0.3,0.168,-0.057,100.0,3.0,,0.0,0.0,
2025-08-15T04:47:43.972Z,3,GR86-028-89,0.5,0.168,-0.06,100.01,3.0,6227.0,0.0,0.0,
2025-08-15T04:47:44.017Z,3,GR86-028-89,0.8,0.164,-0.06,100.02,3.0,,0.0,0.0,133.53
2025-08-15T04:47:44.060Z,3,GR86-028-89,1.0,0.172,-0.046,100.02,3.0,,0.0,0.0,
2025-08-15T04:47:44.105Z,3,GR86-028-89,1.3,0.171,-0.052,99.98,3.0,,0.0,0.0,
2025-08-15T04:47:44.148Z,3,GR86-028-89,1.3,0.154,-0.049,100.02,3.0,,0.0,0.0,
2025-08-15T04:47:44.191Z,3,GR86-028-89,1.4,0.171,-0.076,100.0,3.0,6285.0,0.0,0.0,
2025-08-15T04:47:44.234Z,3,GR86-028-89,1.4,0.183,-0.075,99.98,3.0,,0.0,0.0,134.81
2025-08-15T04:47:44.277Z,3,GR86-028-89,1.3,0.175,-0.065,100.0,3.0,,0.0,0.0,
2025-08-15T04:47:44.320Z,3,GR86-028-89,1.2000000000000002,0.161,-0.054,99.99,3.0,,0.0,0.0,
2025-08-15T04:47:44.364Z,3,GR86-028-89,1.2000000000000002,0.157,-0.048,100.04,3.0,,0.0,0.0,
2025-08-15T04:47:44.407Z,3,GR86-028-89,1.2000000000000002,0.172,-0.044,100.0,3.0,6410.0,0.0,0.0,
2025-08-15T04:47:44.450Z,3,GR86-028-89,1.4,0.177,-0.059,100.01,3.0,,0.0,0.0,136.17000000000002
2025-08-15T04:47:44.494Z,3,GR86-028-89,1.4,0.175,-0.043,99.98,3.0,,0.0,0.0,
2025-08-15T04:47:44.536Z,3,GR86-028-89,1.4,0.142,-0.042,99.96,3.0,,0.0,0.0,
2025-08-15T04:47:44.579Z,3,GR86-028-89,1.4,-0.159,-0.004,99.98,4.0,,0.0,0.0,
2025-08-15T04:47:44.625Z,3,GR86-028-89,2.2,0.445,-0.047,100.0,4.0,6069.0,0.0,0.0,
2025-08-15T04:47:44.668Z,3,GR86-028-89,2.1,0.229,-0.116,99.99,4.0,,0.0,0.0,137.51
2025-08-15T04:47:44.711Z,3,GR86-028-89,1.4,0.186,0.018,100.01,4.0,,0.0,0.0,
2025-08-15T04:47:44.754Z,3,GR86-028-89,1.6,0.018,-0.004,99.98,4.0,,0.0,0.0,
2025-08-15T04:47:44.797Z,3,GR86-028-89,1.8,0.101,-0.043,99.98,4.0,,0.0,0.0,
2025-08-15T04:47:44.840Z,3,GR86-028-89,1.8,0.192,0.035,99.98,4.0,5522.0,0.0,0.0,
2025-08-15T04:47:44.885Z,3,GR86-028-89,1.8,0.103,-0.048,100.0,4.0,,0.0,0.0,138.6
2025-08-15T04:47:44.927Z,3,GR86-028-89,1.3,0.13,-0.011,100.01,4.0,,0.0,0.0,
2025-08-15T04:47:44.971Z,3,GR86-028-89,0.7000000000000001,0.151,-0.02,99.97,4.0,,0.0,0.0,
2025-08-15T04:47:45.014Z,3,GR86-028-89,0.5,0.155,-0.03,100.01,4.0,,0.0,0.0,
2025-08-15T04:47:45.057Z,3,GR86-028-89,0.6000000000000001,0.12,-0.002,99.99,4.0,5538.0,0.0,0.0,
2025-08-15T04:47:45.100Z,3,GR86-028-89,0.9,0.137,-0.017,100.01,4.0,,0.0,0.0,139.78
2025-08-15T04:47:45.144Z,3,GR86-028-89,1.1,0.119,-0.015,100.01,4.0,,0.0,0.0,
2025-08-15T04:47:45.187Z,3,GR86-028-89,1.1,0.152,-0.011,100.01,4.0,,0.0,0.0,
2025-08-15T04:47:45.231Z,3,GR86-028-89,1.0,0.161,-0.056,99.99,4.0,,0.0,0.0,
2025-08-15T04:47:45.275Z,3,GR86-028-89,1.2000000000000002,0.144,-0.038,100.0,4.0,5562.0,0.0,0.0,
2025-08-15T04:47:45.317Z,3,GR86-028-89,1.2000000000000002,0.126,-0.03,99.99,4.0,,0.0,0.0,140.75
2025-08-15T04:47:45.360Z,3,GR86-028-89,1.2000000000000002,0.128,-0.049,99.98,4.0,,0.0,0.0,
2025-08-15T04:47:45.406Z,3,GR86-028-89,0.7000000000000001,0.126,-0.02,100.01,4.0,,0.0,0.0,
2025-08-15T04:47:45.448Z,3,GR86-028-89,0.5,0.136,-0.044,99.99,4.0,,0.0,0.0,
2025-08-15T04:47:45.491Z,3,GR86-028-89,0.5,0.162,-0.044,100.0,4.0,5600.0,0.0,0.0,
2025-08-15T04:47:45.534Z,3,GR86-028-89,0.5,0.15,-0.057,100.01,4.0,,0.0,0.0,141.8
2025-08-15T04:47:45.577Z,3,GR86-028-89,0.5,0.142,-0.046,99.98,4.0,,0.0,0.0,
2025-08-15T04:47:45.621Z,3,GR86-028-89,0.6000000000000001,0.133,-0.047,100.02,4.0,,0.0,0.0,
2025-08-15T04:47:45.665Z,3,GR86-028-89,1.5,0.12,-0.046,99.97,4.0,,0.0,0.0,
2025-08-15T04:47:45.707Z,3,GR86-028-89,1.8,0.129,-0.035,100.01,4.0,5639.0,0.0,0.0,
2025-08-15T04:47:45.750Z,3,GR86-028-89,1.7000000000000002,0.153,-0.031,100.02,4.0,,0.0,0.0,142.9
2025-08-15T04:47:45.794Z,3,GR86-028-89,1.5,0.162,-0.046,100.0,4.0,,0.0,0.0,
2025-08-15T04:47:45.837Z,3,GR86-028-89,1.4,0.138,-0.038,99.99,4.0,,0.0,0.0,
2025-08-15T04:47:45.879Z,3,GR86-028-89,1.3,0.115,-0.029,100.01,4.0,,0.0,0.0,
2025-08-15T04:47:45.926Z,3,GR86-028-89,1.0,0.147,-0.041,99.99,4.0,5677.0,0.0,0.0,
2025-08-15T04:47:45.969Z,3,GR86-028-89,0.9,0.125,-0.027,100.0,4.0,,0.0,0.0,143.93
2025-08-15T04:47:46.013Z,3,GR86-028-89,1.2000000000000002,0.128,-0.017,100.02,4.0,,0.0,0.0,
2025-08-15T04:47:46.055Z,3,GR86-028-89,1.6,0.139,-0.053,99.99,4.0,,0.0,0.0,
2025-08-15T04:47:46.098Z,3,GR86-028-89,1.9,0.164,-0.05,99.98,4.0,,0.0,0.0,
2025-08-15T04:47:46.141Z,3,GR86-028-89,1.9,0.15,-0.039,99.99,4.0,5723.0,0.0,0.0,
2025-08-15T04:47:46.187Z,3,GR86-028-89,2.1,0.146,-0.031,100.01,4.0,,0.0,0.0,144.96
2025-08-15T04:47:46.230Z,3,GR86-028-89,2.5,0.121,-0.019,100.01,4.0,,0.0,0.0,
2025-08-15T04:47:46.274Z,3,GR86-028-89,2.7,0.134,-0.024,99.99,4.0,,0.0,0.0,
2025-08-15T04:47:46.317Z,3,GR86-028-89,2.7,0.138,-0.003,99.99,4.0,,0.0,0.0,
2025-08-15T04:47:46.360Z,3,GR86-028-89,2.7,0.15,-0.01,100.01,4.0,5756.0,0.0,0.0,
2025-08-15T04:47:46.406Z,3,GR86-028-89,2.8000000000000003,0.12,-0.03,100.02,4.0,,0.0,0.0,147.16
2025-08-15T04:47:46.448Z,3,GR86-028-89,2.8000000000000003,0.137,-0.022,100.02,4.0,,0.0,0.0,
2025-08-15T04:47:46.491Z,3,GR86-028-89,2.8000000000000003,0.158,-0.008,99.98,4.0,,0.0,0.0,
2025-08-15T04:47:46.534Z,3,GR86-028-89,2.7,0.158,-0.013,99.97,4.0,,0.0,0.0,
2025-08-15T04:47:46.577Z,3,GR86-028-89,2.5,0.145,0.004,99.98,4.0,5807.0,0.0,0.0,
2025-08-15T04:47:46.620Z,3,GR86-028-89,1.8,0.124,-0.015,100.0,4.0,,0.0,0.0,148.01
2025-08-15T04:47:46.664Z,3,GR86-028-89,0.7000000000000001,0.13,0.002,100.02,4.0,,0.0,0.0,
2025-08-15T04:47:46.707Z,3,GR86-028-89,0.6000000000000001,0.131,0.01,100.0,4.0,,0.0,0.0,
2025-08-15T04:47:46.750Z,3,GR86-028-89,0.6000000000000001,0.135,-0.014,99.98,4.0,,0.0,0.0,
2025-08-15T04:47:46.794Z,3,GR86-028-89,0.7000000000000001,0.143,-0.019,100.0,4.0,5845.0,0.0,0.0,
2025-08-15T04:47:46.836Z,3,GR86-028-89,1.1,0.135,-0.036,99.99,4.0,,0.0,0.0,149.07
2025-08-15T04:47:46.879Z,3,GR86-028-89,1.3,0.147,-0.035,99.98,4.0,,0.0,0.0,
2025-08-15T04:47:46.926Z,3,GR86-028-89,0.9,0.142,-0.037,99.99,4.0,,0.0,0.0,
2025-08-15T04:47:46.969Z,3,GR86-028-89,0.5,0.142,-0.028,100.0,4.0,,0.0,0.0,
2025-08-15T04:47:47.014Z,3,GR86-028-89,0.4,0.135,-0.03,100.02,4.0,5926.0,0.0,0.0,
2025-08-15T04:47:47.057Z,3,GR86-028-89,0.4,0.125,-0.037,99.94,4.0,,0.0,0.0,150.16
2025-08-15T04:47:47.100Z,3,GR86-028-89,0.9,0.125,-0.025,93.07,4.0,,0.0,0.0,
2025-08-15T04:47:47.144Z,3,GR86-028-89,1.3,0.143,-0.039,54.620000000000005,4.0,,3.28,3.555,
2025-08-15T04:47:47.187Z,3,GR86-028-89,-0.6000000000000001,0.106,-0.034,35.53,4.0,,10.745,10.835,
2025-08-15T04:47:47.231Z,3,GR86-028-89,-4.1000000000000005,-0.046,-0.051,29.06,4.0,5971.0,22.965,23.21,
2025-08-15T04:47:47.275Z,3,GR86-028-89,-6.800000000000001,-0.387,-0.079,23.58,4.0,,39.37,39.28,151.12
2025-08-15T04:47:47.317Z,3,GR86-028-89,-7.300000000000001,-0.731,-0.095,22.88,4.0,,53.99,53.485,
2025-08-15T04:47:47.360Z,3,GR86-028-89,-4.4,-0.93,-0.08,21.81,4.0,,62.965,62.46,
2025-08-15T04:47:47.405Z,3,GR86-028-89,2.8000000000000003,-1.072,-0.049,21.56,4.0,,66.52,66.185,
2025-08-15T04:47:47.448Z,3,GR86-028-89,3.3000000000000003,-1.134,-0.045,21.52,4.0,5656.0,68.535,68.09,
2025-08-15T04:47:47.491Z,3,GR86-028-89,1.3,-0.955,-0.044,18.93,4.0,,65.62,66.52,148.22
2025-08-15T04:47:47.534Z,3,GR86-028-89,0.1,-1.078,-0.064,18.3,4.0,,61.74,63.465,
2025-08-15T04:47:47.577Z,3,GR86-028-89,0.4,-0.998,0.0,14.74,4.0,,53.64,55.745000000000005,
2025-08-15T04:47:47.620Z,3,GR86-028-89,0.5,-0.812,-0.012,6.66,4.0,,45.215,46.955,
2025-08-15T04:47:47.664Z,3,GR86-028-89,0.6000000000000001,-0.755,0.025,6.3500000000000005,4.0,5369.0,40.33,41.555,
2025-08-15T04:47:47.707Z,3,GR86-028-89,0.5,-0.768,0.024,5.24,4.0,,38.075,39.555,141.65
2025-08-15T04:47:47.750Z,3,GR86-028-89,0.0,-0.755,0.0,3.73,4.0,,35.050000000000004,36.335,
2025-08-15T04:47:47.794Z,3,GR86-028-89,-0.3,-0.722,0.023,3.12,4.0,,33.465,34.595,
2025-08-15T04:47:47.836Z,3,GR86-028-89,-0.2,-0.704,0.024,2.99,4.0,,33.1,34.15,
2025-08-15T04:47:47.879Z,3,GR86-028-89,0.6000000000000001,-0.734,-0.034,2.87,4.0,5188.0,33.025,33.875,
2025-08-15T04:47:47.926Z,3,GR86-028-89,2.8000000000000003,-0.836,-0.026,2.74,4.0,,32.75,33.77,136.55
2025-08-15T04:47:47.968Z,3,GR86-028-89,4.800000000000001,-0.8250000000000001,-0.053,2.7,4.0,,32.045,33.1,
2025-08-15T04:47:48.011Z,3,GR86-028-89,6.300000000000001,-0.751,-0.018,2.67,4.0,,30.825,31.83,
2025-08-15T04:47:48.054Z,3,GR86-028-89,6.9,-0.6960000000000001,-0.011,2.65,4.0,,29.68,30.735,
2025-08-15T04:47:48.097Z,3,GR86-028-89,6.9,-0.715,-0.017,2.63,4.0,4986.0,28.43,29.36,
2025-08-15T04:47:48.140Z,3,GR86-028-89,6.300000000000001,-0.706,-0.013,2.61,4.0,,27.15,28.0,131.45
2025-08-15T04:47:48.185Z,3,GR86-028-89,6.300000000000001,-0.662,-0.005,2.58,4.0,,24.89,25.805,
2025-08-15T04:47:48.227Z,3,GR86-028-89,6.4,-0.617,0.018,2.56,4.0,,22.615,23.485,
2025-08-15T04:47:48.271Z,3,GR86-028-89,6.4,-0.587,0.022,2.54,4.0,,20.385,21.06,
2025-08-15T04:47:48.314Z,3,GR86-028-89,6.4,-0.542,0.034,2.52,4.0,4814.0,19.015,19.76,
2025-08-15T04:47:48.357Z,3,GR86-028-89,5.800000000000001,-0.515,0.06,2.51,4.0,,18.615,19.21,126.53
2025-08-15T04:47:48.400Z,3,GR86-028-89,4.9,-0.512,0.057,2.49,4.0,,18.435,18.86,
2025-08-15T04:47:48.444Z,3,GR86-028-89,3.4000000000000004,-0.519,0.074,2.47,4.0,,18.77,19.275,
2025-08-15T04:47:48.487Z,3,GR86-028-89,3.2,-0.521,0.07,2.45,4.0,,18.89,19.365,
2025-08-15T04:47:48.531Z,3,GR86-028-89,3.6,-0.515,0.077,2.44,4.0,4691.0,19.12,19.58,
2025-08-15T04:47:48.575Z,3,GR86-028-89,4.0,-0.518,0.08,2.42,4.0,,18.71,19.245,122.77
2025-08-15T04:47:48.617Z,3,GR86-028-89,4.0,-0.521,0.066,19.99,4.0,,18.115,18.615,
2025-08-15T04:47:48.660Z,3,GR86-028-89,3.2,-0.481,0.073,65.34,4.0,,17.52,18.145,
2025-08-15T04:47:48.705Z,3,GR86-028-89,1.8,-0.459,0.073,100.74,4.0,,15.99,16.62,
2025-08-15T04:47:48.748Z,3,GR86-028-89,1.6,-0.413,0.041,76.92,3.0,4554.0,15.365,15.81,
2025-08-15T04:47:48.791Z,3,GR86-028-89,1.5,-0.412,0.017,7.73,3.0,,14.785,15.335,119.35
2025-08-15T04:47:48.834Z,3,GR86-028-89,1.5,-0.45,0.058,4.48,3.0,,14.27,14.94,
2025-08-15T04:47:48.877Z,3,GR86-028-89,1.5,-0.5630000000000001,0.014,4.01,3.0,,14.24,14.635,
2025-08-15T04:47:48.921Z,3,GR86-028-89,1.4,-0.467,-0.018,3.63,3.0,,14.055,14.635,
2025-08-15T04:47:48.965Z,3,GR86-028-89,1.1,-0.359,0.018,3.26,3.0,4912.0,13.245,13.765,
2025-08-15T04:47:49.007Z,3,GR86-028-89,1.1,-0.394,-0.018,3.09,3.0,,12.775,13.275,113.08
2025-08-15T04:47:49.050Z,3,GR86-028-89,1.6,-0.42,0.015,2.97,3.0,,12.115,12.68,
2025-08-15T04:47:49.094Z,3,GR86-028-89,1.7000000000000002,-0.399,-0.001,2.86,3.0,,11.46,11.965,
2025-08-15T04:47:49.137Z,3,GR86-028-89,1.5,-0.382,-0.015,2.76,3.0,,10.985,11.52,
2025-08-15T04:47:49.179Z,3,GR86-028-89,1.5,-0.366,-0.004,2.72,3.0,5138.0,10.715,11.155,
2025-08-15T04:47:49.225Z,3,GR86-028-89,2.1,-0.361,-0.019,2.64,3.0,,8.88,9.34,110.31
2025-08-15T04:47:49.268Z,3,GR86-028-89,2.5,-0.324,-0.013,2.6,3.0,,6.865,7.495,
2025-08-15T04:47:49.311Z,3,GR86-028-89,2.8000000000000003,-0.272,-0.004,2.57,3.0,,6.18,6.625,
2025-08-15T04:47:49.354Z,3,GR86-028-89,2.8000000000000003,-0.261,-0.008,2.5500000000000003,3.0,,6.545,6.93,
2025-08-15T04:47:49.397Z,3,GR86-028-89,2.3000000000000003,-0.292,-0.002,2.54,3.0,5015.0,7.235,7.705,
2025-08-15T04:47:49.440Z,3,GR86-028-89,1.7000000000000002,-0.299,0.003,2.52,3.0,,7.585,8.01,108.24
2025-08-15T04:47:49.485Z,3,GR86-028-89,1.3,-0.3,0.003,2.51,3.0,,7.525,7.95,
2025-08-15T04:47:49.527Z,3,GR86-028-89,1.2000000000000002,-0.295,0.003,2.48,3.0,,6.365,6.93,
2025-08-15T04:47:49.571Z,3,GR86-028-89,1.2000000000000002,-0.251,-0.005,2.48,3.0,,3.405,3.875,
2025-08-15T04:47:49.614Z,3,GR86-028-89,1.1,-0.18,-0.002,2.47,3.0,4841.0,0.0,0.0,
2025-08-15T04:47:49.656Z,3,GR86-028-89,1.0,-0.159,-0.015,2.45,3.0,,0.0,0.0,106.4
2025-08-15T04:47:49.699Z,3,GR86-028-89,1.0,-0.145,-0.014,2.45,3.0,,0.0,0.0,
2025-08-15T04:47:49.744Z,3,GR86-028-89,1.0,-0.13,-0.019,2.45,3.0,,0.0,0.0,
2025-08-15T04:47:49.787Z,3,GR86-028-89,1.0,-0.126,-0.028,4.61,3.0,,0.0,0.0,
2025-08-15T04:47:49.831Z,3,GR86-028-89,0.9,-0.13,-0.017,19.54,3.0,4818.0,0.0,0.0,
2025-08-15T04:47:49.874Z,3,GR86-028-89,0.9,-0.136,-0.023,20.61,3.0,,0.0,0.0,105.58
2025-08-15T04:47:49.917Z,3,GR86-028-89,0.9,-0.112,-0.015,25.84,3.0,,0.0,0.0,
2025-08-15T04:47:49.960Z,3,GR86-028-89,0.9,-0.065,-0.029,29.72,3.0,,0.0,0.0,
2025-08-15T04:47:50.005Z,3,GR86-028-89,0.9,-0.068,-0.006,33.28,3.0,,0.0,0.0,
2025-08-15T04:47:50.048Z,3,GR86-028-89,1.0,0.167,-0.029,34.12,3.0,4886.0,0.0,0.0,
2025-08-15T04:47:50.091Z,3,GR86-028-89,0.9,0.284,-0.02,36.31,3.0,,0.0,0.0,104.76
2025-08-15T04:47:50.134Z,3,GR86-028-89,0.9,0.161,-0.028,43.02,3.0,,0.0,0.0,
2025-08-15T04:47:50.177Z,3,GR86-028-89,0.7000000000000001,0.075,-0.024,52.21,3.0,,0.0,0.0,
2025-08-15T04:47:50.220Z,3,GR86-028-89,0.4,0.1,-0.019,57.35,3.0,,0.0,0.0,
2025-08-15T04:47:50.307Z,3,GR86-028-89,-0.3,0.232,-0.023,73.25,3.0,4861.0,0.0,0.0,104.61
2025-08-15T04:47:50.350Z,3,GR86-028-89,-1.1,0.186,-0.048,100.53,3.0,,0.0,0.0,
2025-08-15T04:47:50.436Z,3,GR86-028-89,-1.5,0.198,-0.056,100.63,3.0,,0.0,0.0,
2025-08-15T04:47:50.479Z,3,GR86-028-89,-2.3000000000000003,0.205,-0.072,100.64,3.0,4984.0,0.0,0.0,
2025-08-15T04:47:50.525Z,3,GR86-028-89,-1.6,0.203,-0.088,100.62,3.0,,0.0,0.0,105.66
2025-08-15T04:47:50.568Z,3,GR86-028-89,-1.5,0.192,-0.085,100.62,3.0,,0.0,0.0,
2025-08-15T04:47:50.611Z,3,GR86-028-89,-1.9,0.195,-0.091,100.52,3.0,,0.0,0.0,
2025-08-15T04:47:50.654Z,3,GR86-028-89,-2.1,0.212,-0.099,100.45,3.0,,0.0,0.0,
2025-08-15T04:47:50.697Z,3,GR86-028-89,-2.1,0.193,-0.095,100.37,3.0,5064.0,0.0,0.0,
2025-08-15T04:47:50.740Z,3,GR86-028-89,-1.8,0.193,-0.102,100.3,3.0,,0.0,0.0,107.13
2025-08-15T04:47:50.785Z,3,GR86-028-89,-0.8,0.2,-0.108,100.13,3.0,,0.0,0.0,
2025-08-15T04:47:50.827Z,3,GR86-028-89,-0.2,0.195,-0.094,100.03,3.0,,0.0,0.0,
2025-08-15T04:47:50.871Z,3,GR86-028-89,0.5,0.203,-0.103,99.96,3.0,,0.0,0.0,
2025-08-15T04:47:50.914Z,3,GR86-028-89,1.3,0.206,-0.103,99.95,3.0,5140.0,0.0,0.0,
2025-08-15T04:47:50.957Z,3,GR86-028-89,1.8,0.181,-0.067,99.92,3.0,,0.0,0.0,108.65
2025-08-15T04:47:51.000Z,3,GR86-028-89,2.0,0.188,-0.067,99.91,3.0,,0.0,0.0,
2025-08-15T04:47:51.045Z,3,GR86-028-89,2.2,0.215,-0.06,99.88,3.0,,0.0,0.0,
2025-08-15T04:47:51.087Z,3,GR86-028-89,2.1,0.207,-0.041,99.88,3.0,,0.0,0.0,
2025-08-15T04:47:51.130Z,3,GR86-028-89,1.7000000000000002,0.189,-0.042,99.88,3.0,5202.0,0.0,0.0,
2025-08-15T04:47:51.175Z,3,GR86-028-89,1.6,0.194,-0.041,99.89,3.0,,0.0,0.0,110.17
2025-08-15T04:47:51.217Z,3,GR86-028-89,1.6,0.176,-0.016,99.9,3.0,,0.0,0.0,
2025-08-15T04:47:51.260Z,3,GR86-028-89,1.6,0.2,-0.026,99.92,3.0,,0.0,0.0,
2025-08-15T04:47:51.305Z,3,GR86-028-89,1.6,0.21,-0.033,99.92,3.0,,0.0,0.0,
2025-08-15T04:47:51.348Z,3,GR86-028-89,1.6,0.185,-0.004,99.94,3.0,5275.0,0.0,0.0,
2025-08-15T04:47:51.391Z,3,GR86-028-89,1.6,0.187,-0.017,93.13,3.0,,0.0,0.0,111.68
2025-08-15T04:47:51.434Z,3,GR86-028-89,1.6,0.203,-0.032,76.06,3.0,,0.0,0.0,
2025-08-15T04:47:51.477Z,3,GR86-028-89,1.6,0.187,-0.006,60.17,3.0,,0.0,0.0,
2025-08-15T04:47:51.520Z,3,GR86-028-89,1.7000000000000002,0.207,-0.004,55.56,3.0,,0.0,0.0,
2025-08-15T04:47:51.564Z,3,GR86-028-89,1.7000000000000002,0.2,-0.017,55.55,3.0,5344.0,0.0,0.0,
2025-08-15T04:47:51.607Z,3,GR86-028-89,1.7000000000000002,0.175,-0.015,54.22,3.0,,0.0,0.0,114.68
2025-08-15T04:47:51.650Z,3,GR86-028-89,1.8,0.166,-0.006,54.0,3.0,,0.0,0.0,
2025-08-15T04:47:51.694Z,3,GR86-028-89,1.9,0.184,-0.019,55.06,3.0,,0.0,0.0,
2025-08-15T04:47:51.737Z,3,GR86-028-89,1.9,0.184,-0.017,55.14,3.0,,0.0,0.0,
2025-08-15T04:47:51.780Z,3,GR86-028-89,1.4,0.174,-0.013,54.9,3.0,5406.0,0.0,0.0,
2025-08-15T04:47:51.825Z,3,GR86-028-89,1.3,0.17,-0.007,54.31,3.0,,0.0,0.0,116.18
2025-08-15T04:47:51.867Z,3,GR86-028-89,1.3,0.186,-0.017,53.91,3.0,,0.0,0.0,
2025-08-15T04:47:51.910Z,3,GR86-028-89,1.1,0.17,-0.001,53.7,3.0,,0.0,0.0,
2025-08-15T04:47:51.954Z,3,GR86-028-89,0.4,0.177,-0.017,53.17,3.0,,0.0,0.0,
2025-08-15T04:47:51.996Z,3,GR86-028-89,-0.7000000000000001,0.181,-0.033,51.04,3.0,5477.0,0.0,0.0,
2025-08-15T04:47:52.039Z,3,GR86-028-89,-2.2,0.165,-0.026,48.57,3.0,,0.0,0.0,117.6
2025-08-15T04:47:52.085Z,3,GR86-028-89,-6.2,0.178,-0.048,42.25,3.0,,0.0,0.0,
2025-08-15T04:47:52.127Z,3,GR86-028-89,-9.2,0.165,-0.087,37.26,3.0,,0.0,0.0,
2025-08-15T04:47:52.171Z,3,GR86-028-89,-12.4,0.15,-0.126,34.02,3.0,,0.0,0.0,
2025-08-15T04:47:52.214Z,3,GR86-028-89,-15.5,0.115,-0.163,30.91,3.0,5584.0,0.0,0.0,
2025-08-15T04:47:52.257Z,3,GR86-028-89,-18.6,0.109,-0.22,28.13,3.0,,0.0,0.0,118.99
2025-08-15T04:47:52.300Z,3,GR86-028-89,-22.3,0.104,-0.258,25.67,3.0,,0.0,0.0,
2025-08-15T04:47:52.344Z,3,GR86-028-89,-29.8,0.069,-0.312,23.26,3.0,,0.0,0.0,
2025-08-15T04:47:52.387Z,3,GR86-028-89,-34.800000000000004,0.014,-0.381,22.74,3.0,,1.955,2.075,
2025-08-15T04:47:52.431Z,3,GR86-028-89,-37.9,-0.008,-0.479,22.33,3.0,5601.0,2.135,2.365,
2025-08-15T04:47:52.475Z,3,GR86-028-89,-38.6,-0.029,-0.5670000000000001,22.1,3.0,,2.73,2.795,120.12
2025-08-15T04:47:52.517Z,3,GR86-028-89,-39.2,-0.047,-0.621,21.97,3.0,,3.525,3.785,
2025-08-15T04:47:52.560Z,3,GR86-028-89,-42.400000000000006,-0.071,-0.677,21.9,3.0,,4.595,4.655,
2025-08-15T04:47:52.606Z,3,GR86-028-89,-50.2,-0.105,-0.739,20.06,3.0,,6.0600000000000005,6.24,
2025-08-15T04:47:52.648Z,3,GR86-028-89,-54.400000000000006,-0.123,-0.771,19.26,3.0,5622.0,6.545,6.9,
2025-08-15T04:47:52.691Z,3,GR86-028-89,-55.8,-0.16,-0.811,19.18,3.0,,7.05,7.265000000000001,120.59
2025-08-15T04:47:52.734Z,3,GR86-028-89,-55.3,-0.182,-0.838,19.15,3.0,,7.645,7.92,
2025-08-15T04:47:52.777Z,3,GR86-028-89,-52.8,-0.192,-0.863,19.13,3.0,,8.24,8.36,
2025-08-15T04:47:52.821Z,3,GR86-028-89,-49.0,-0.227,-0.864,19.15,3.0,,8.605,8.73,
2025-08-15T04:47:52.865Z,3,GR86-028-89,-45.400000000000006,-0.234,-0.918,19.25,3.0,5570.0,9.28,9.4,
2025-08-15T04:47:52.907Z,3,GR86-028-89,-45.5,-0.23,-0.924,19.33,3.0,,9.69,9.78,120.82
2025-08-15T04:47:52.950Z,3,GR86-028-89,-44.900000000000006,-0.235,-0.971,19.4,3.0,,9.81,9.845,
2025-08-15T04:47:52.994Z,3,GR86-028-89,-41.3,-0.247,-0.96,20.44,3.0,,9.69,9.905,
2025-08-15T04:47:53.037Z,3,GR86-028-89,-36.0,-0.241,-0.968,21.85,3.0,,9.69,9.845,
2025-08-15T04:47:53.079Z,3,GR86-028-89,-32.9,-0.229,-0.931,22.02,3.0,5514.0,8.455,8.91,
2025-08-15T04:47:53.125Z,3,GR86-028-89,-35.800000000000004,-0.155,-0.929,22.13,3.0,,0.0,0.0,119.99
2025-08-15T04:47:53.168Z,3,GR86-028-89,-41.3,-0.044,-0.97,22.2,3.0,,0.0,0.0,
2025-08-15T04:47:53.211Z,3,GR86-028-89,-49.2,-0.02,-0.99,22.23,3.0,,0.0,0.0,
2025-08-15T04:47:53.254Z,3,GR86-028-89,-56.6,-0.008,-0.99,22.23,3.0,,0.0,0.0,
2025-08-15T04:47:53.297Z,3,GR86-028-89,-60.900000000000006,-0.009,-0.963,22.23,3.0,5499.0,0.0,0.0,
2025-08-15T04:47:53.340Z,3,GR86-028-89,-62.0,-0.014,-0.973,22.39,3.0,,0.0,0.0,118.59
2025-08-15T04:47:53.384Z,3,GR86-028-89,-64.3,-0.025,-0.963,22.66,3.0,,0.0,0.0,
2025-08-15T04:47:53.427Z,3,GR86-028-89,-68.8,-0.016,-0.94,22.58,3.0,,0.0,0.0,
2025-08-15T04:47:53.471Z,3,GR86-028-89,-75.5,-0.031,-0.96,22.38,3.0,,0.0,0.0,
2025-08-15T04:47:53.514Z,3,GR86-028-89,-82.60000000000001,-0.026,-0.933,22.26,3.0,5481.0,0.0,0.0,
2025-08-15T04:47:53.556Z,3,GR86-028-89,-87.30000000000001,-0.036,-0.945,22.18,3.0,,0.0,0.0,117.67
2025-08-15T04:47:53.599Z,3,GR86-028-89,-88.5,-0.046,-0.966,22.11,3.0,,0.0,0.0,
2025-08-15T04:47:53.644Z,3,GR86-028-89,-87.2,-0.047,-0.97,22.04,3.0,,0.0,0.0,
2025-08-15T04:47:53.687Z,3,GR86-028-89,-86.9,-0.043,-0.959,22.0,3.0,,0.0,0.0,
2025-08-15T04:47:53.731Z,3,GR86-028-89,-86.5,-0.05,-0.979,21.99,3.0,5477.0,0.0,0.0,
2025-08-15T04:47:53.774Z,3,GR86-028-89,-85.10000000000001,-0.054,-0.987,19.46,3.0,,0.0,0.0,116.82
2025-08-15T04:47:53.817Z,3,GR86-028-89,-83.7,-0.044,-0.984,15.71,3.0,,0.0,0.0,
2025-08-15T04:47:53.860Z,3,GR86-028-89,-83.0,-0.036,-0.959,8.91,3.0,,0.0,0.0,
2025-08-15T04:47:53.907Z,3,GR86-028-89,-80.60000000000001,-0.074,-0.954,8.14,3.0,,0.0,0.0,
2025-08-15T04:47:53.949Z,3,GR86-028-89,-76.4,-0.118,-1.0,10.34,3.0,5490.0,0.0,0.0,
2025-08-15T04:47:53.993Z,3,GR86-028-89,-73.9,-0.143,-1.035,12.37,3.0,,0.0,0.0,117.69
2025-08-15T04:47:54.035Z,3,GR86-028-89,-73.4,-0.152,-1.031,14.23,3.0,,0.0,0.0,
2025-08-15T04:47:54.078Z,3,GR86-028-89,-72.3,-0.157,-1.032,15.15,3.0,,0.0,0.0,
2025-08-15T04:47:54.121Z,3,GR86-028-89,-71.0,-0.132,-1.009,15.91,3.0,,0.0,0.0,
2025-08-15T04:47:54.164Z,3,GR86-028-89,-70.5,-0.207,-1.018,18.99,3.0,5376.0,0.0,0.0,
2025-08-15T04:47:54.207Z,3,GR86-028-89,-70.4,-0.152,-1.03,19.08,3.0,,0.0,0.0,117.11
2025-08-15T04:47:54.250Z,3,GR86-028-89,-70.4,-0.156,-1.045,19.6,3.0,,0.0,0.0,
2025-08-15T04:47:54.294Z,3,GR86-028-89,-71.3,-0.136,-1.017,21.56,3.0,,0.0,0.0,
2025-08-15T04:47:54.337Z,3,GR86-028-89,-72.4,-0.055,-1.07,21.43,3.0,,0.0,0.0,
2025-08-15T04:47:54.380Z,3,GR86-028-89,-72.7,-0.015,-0.997,21.31,3.0,5306.0,0.0,0.0,
2025-08-15T04:47:54.425Z,3,GR86-028-89,-72.0,-0.017,-0.891,21.43,3.0,,0.0,0.0,116.03
2025-08-15T04:47:54.468Z,3,GR86-028-89,-71.4,-0.034,-1.063,21.71,3.0,,0.0,0.0,
2025-08-15T04:47:54.511Z,3,GR86-028-89,-71.0,-0.051,-0.988,21.94,3.0,,0.0,0.0,
2025-08-15T04:47:54.554Z,3,GR86-028-89,-71.3,-0.044,-1.066,22.01,3.0,,0.0,0.0,
2025-08-15T04:47:54.597Z,3,GR86-028-89,-72.0,-0.037,-1.06,22.07,3.0,5398.0,0.0,0.0,
2025-08-15T04:47:54.684Z,3,GR86-028-89,-75.8,-0.02,-0.989,21.85,3.0,,0.0,0.0,115.05
2025-08-15T04:47:54.727Z,3,GR86-028-89,-76.80000000000001,-0.03,-0.998,21.69,3.0,,0.0,0.0,
2025-08-15T04:47:54.771Z,3,GR86-028-89,-77.5,-0.037,-1.044,21.55,3.0,,0.0,0.0,
2025-08-15T04:47:54.814Z,3,GR86-028-89,-78.0,-0.037,-1.067,21.52,3.0,5359.0,0.0,0.0,
2025-08-15T04:47:54.857Z,3,GR86-028-89,-78.30000000000001,-0.032,-1.026,21.52,3.0,,0.0,0.0,114.41
2025-08-15T04:47:54.900Z,3,GR86-028-89,-78.2,-0.034,-1.022,21.51,3.0,,0.0,0.0,
2025-08-15T04:47:54.944Z,3,GR86-028-89,-78.10000000000001,-0.042,-1.003,21.71,3.0,,0.0,0.0,
2025-08-15T04:47:54.987Z,3,GR86-028-89,-78.10000000000001,-0.031,-0.997,21.78,3.0,,0.0,0.0,
2025-08-15T04:47:55.031Z,3,GR86-028-89,-78.10000000000001,-0.048,-1.013,21.85,3.0,5335.0,0.0,0.0,
2025-08-15T04:47:55.075Z,3,GR86-028-89,-78.10000000000001,-0.047,-1.004,21.92,3.0,,0.0,0.0,114.05
2025-08-15T04:47:55.117Z,3,GR86-028-89,-78.10000000000001,-0.02,-0.991,21.97,3.0,,0.0,0.0,
2025-08-15T04:47:55.160Z,3,GR86-028-89,-77.4,-0.039,-0.983,22.0,3.0,,0.0,0.0,
2025-08-15T04:47:55.206Z,3,GR86-028-89,-76.80000000000001,-0.044,-0.972,23.88,3.0,,0.0,0.0,
2025-08-15T04:47:55.248Z,3,GR86-028-89,-76.60000000000001,-0.018,-0.969,26.31,3.0,5324.0,0.0,0.0,
2025-08-15T04:47:55.291Z,3,GR86-028-89,-76.9,-0.028,-0.979,28.26,3.0,,0.0,0.0,113.87
2025-08-15T04:47:55.334Z,3,GR86-028-89,-77.30000000000001,-0.034,-0.996,28.65,3.0,,0.0,0.0,
2025-08-15T04:47:55.377Z,3,GR86-028-89,-77.5,0.018,-1.0,28.35,3.0,,0.0,0.0,
2025-08-15T04:47:55.420Z,3,GR86-028-89,-77.5,0.003,-1.031,28.08,3.0,,0.0,0.0,
2025-08-15T04:47:55.464Z,3,GR86-028-89,-77.5,0.014,-1.004,27.92,3.0,5354.0,0.0,0.0,
2025-08-15T04:47:55.551Z,3,GR86-028-89,-77.5,0.026,-0.994,27.78,3.0,,0.0,0.0,113.59
2025-08-15T04:47:55.594Z,3,GR86-028-89,-77.30000000000001,0.013,-0.99,27.75,3.0,,0.0,0.0,
2025-08-15T04:47:55.636Z,3,GR86-028-89,-76.60000000000001,0.044,-0.98,27.79,3.0,,0.0,0.0,
2025-08-15T04:47:55.679Z,3,GR86-028-89,-75.5,0.011,-1.001,28.16,3.0,5353.0,0.0,0.0,
2025-08-15T04:47:55.725Z,3,GR86-028-89,-71.5,-0.001,-1.045,29.0,3.0,,0.0,0.0,113.66
2025-08-15T04:47:55.768Z,3,GR86-028-89,-64.10000000000001,0.014,-1.09,30.51,3.0,,0.0,0.0,
2025-08-15T04:47:55.811Z,3,GR86-028-89,-53.5,0.048,-1.071,34.0,3.0,,0.0,0.0,
2025-08-15T04:47:55.854Z,3,GR86-028-89,-42.900000000000006,0.034,-1.02,37.61,3.0,,0.0,0.0,
2025-08-15T04:47:55.897Z,3,GR86-028-89,-35.1,0.062,-1.008,39.49,3.0,5368.0,0.0,0.0,
2025-08-15T04:47:55.940Z,3,GR86-028-89,-30.3,0.078,-0.995,43.59,3.0,,0.0,0.0,113.55
2025-08-15T04:47:55.984Z,3,GR86-028-89,-29.200000000000003,0.094,-0.999,50.05,3.0,,0.0,0.0,
2025-08-15T04:47:56.027Z,3,GR86-028-89,-32.1,0.09,-0.992,51.52,3.0,,0.0,0.0,
2025-08-15T04:47:56.071Z,3,GR86-028-89,-35.4,0.112,-0.998,52.03,3.0,,0.0,0.0,
2025-08-15T04:47:56.114Z,3,GR86-028-89,-36.4,0.106,-0.987,54.06,3.0,5427.0,0.0,0.0,
2025-08-15T04:47:56.157Z,3,GR86-028-89,-35.2,0.113,-0.975,57.18,3.0,,0.0,0.0,114.02
2025-08-15T04:47:56.200Z,3,GR86-028-89,-32.9,0.143,-0.978,63.51,3.0,,0.0,0.0,
2025-08-15T04:47:56.244Z,3,GR86-028-89,-28.200000000000003,0.15,-0.986,75.43,3.0,,0.0,0.0,
2025-08-15T04:47:56.287Z,3,GR86-028-89,-24.0,0.142,-0.971,78.72,3.0,,0.0,0.0,
2025-08-15T04:47:56.331Z,3,GR86-028-89,-19.5,0.158,-0.981,79.54,3.0,5508.0,0.0,0.0,
2025-08-15T04:47:56.375Z,3,GR86-028-89,-16.400000000000002,0.174,-0.921,79.61,3.0,,0.0,0.0,114.3
2025-08-15T04:47:56.417Z,3,GR86-028-89,-15.6,0.158,-0.894,83.04,3.0,,0.0,0.0,
2025-08-15T04:47:56.460Z,3,GR86-028-89,-16.3,0.17,-0.904,87.26,3.0,,0.0,0.0,
2025-08-15T04:47:56.505Z,3,GR86-028-89,-17.400000000000002,0.168,-0.905,93.44,3.0,,0.0,0.0,
2025-08-15T04:47:56.548Z,3,GR86-028-89,-17.6,0.17,-0.883,100.34,3.0,5589.0,0.0,0.0,
2025-08-15T04:47:56.591Z,3,GR86-028-89,-17.8,0.187,-0.883,100.62,3.0,,0.0,0.0,114.72
2025-08-15T04:47:56.634Z,3,GR86-028-89,-17.7,0.188,-0.879,100.6,3.0,,0.0,0.0,
2025-08-15T04:47:56.677Z,3,GR86-028-89,-15.9,0.161,-0.88,100.59,3.0,,0.0,0.0,
2025-08-15T04:47:56.721Z,3,GR86-028-89,-13.0,0.181,-0.896,100.56,3.0,,0.0,0.0,
2025-08-15T04:47:56.765Z,3,GR86-028-89,-12.0,0.217,-0.86,100.43,3.0,5646.0,0.0,0.0,
2025-08-15T04:47:56.807Z,3,GR86-028-89,-13.3,0.224,-0.847,100.36,3.0,,0.0,0.0,115.31
2025-08-15T04:47:56.851Z,3,GR86-028-89,-15.0,0.208,-0.8180000000000001,100.29,3.0,,0.0,0.0,
2025-08-15T04:47:56.894Z,3,GR86-028-89,-16.7,0.203,-0.782,100.2,3.0,,0.0,0.0,
2025-08-15T04:47:56.937Z,3,GR86-028-89,-19.3,0.186,-0.788,100.07,3.0,,0.0,0.0,
2025-08-15T04:47:56.979Z,3,GR86-028-89,-19.700000000000003,0.168,-0.739,99.96,3.0,5618.0,0.0,0.0,
2025-08-15T04:47:57.025Z,3,GR86-028-89,-18.7,0.168,-0.658,99.9,3.0,,0.0,0.0,116.66
2025-08-15T04:47:57.068Z,3,GR86-028-89,-18.1,0.194,-0.582,99.93,3.0,,0.0,0.0,
2025-08-15T04:47:57.111Z,3,GR86-028-89,-17.5,0.18,-0.534,99.88,3.0,,0.0,0.0,
2025-08-15T04:47:57.154Z,3,GR86-028-89,-15.9,0.18,-0.483,99.91,3.0,,0.0,0.0,
2025-08-15T04:47:57.197Z,3,GR86-028-89,-14.6,0.193,-0.445,99.89,3.0,5557.0,0.0,0.0,
2025-08-15T04:47:57.240Z,3,GR86-028-89,-12.7,0.178,-0.396,99.88,3.0,,0.0,0.0,118.06
2025-08-15T04:47:57.284Z,3,GR86-028-89,-11.9,0.18,-0.349,99.96,3.0,,0.0,0.0,
2025-08-15T04:47:57.327Z,3,GR86-028-89,-11.4,0.184,-0.339,99.92,3.0,,0.0,0.0,
2025-08-15T04:47:57.371Z,3,GR86-028-89,-10.9,0.192,-0.324,99.97,3.0,,0.0,0.0,
2025-08-15T04:47:57.414Z,3,GR86-028-89,-10.2,0.186,-0.289,99.95,3.0,5649.0,0.0,0.0,
2025-08-15T04:47:57.456Z,3,GR86-028-89,-9.2,0.177,-0.288,99.95,3.0,,0.0,0.0,119.42
2025-08-15T04:47:57.499Z,3,GR86-028-89,-8.3,0.192,-0.28,99.97,3.0,,0.0,0.0,
2025-08-15T04:47:57.544Z,3,GR86-028-89,-6.4,0.199,-0.267,99.97,3.0,,0.0,0.0,
2025-08-15T04:47:57.587Z,3,GR86-028-89,-6.0,0.19,-0.235,99.95,3.0,,0.0,0.0,
2025-08-15T04:47:57.631Z,3,GR86-028-89,-5.7,0.179,-0.23,99.98,3.0,5709.0,0.0,0.0,
2025-08-15T04:47:57.675Z,3,GR86-028-89,-5.1000000000000005,0.182,-0.218,100.02,3.0,,0.0,0.0,120.81
2025-08-15T04:47:57.717Z,3,GR86-028-89,-3.8,0.193,-0.203,99.99,3.0,,0.0,0.0,
2025-08-15T04:47:57.760Z,3,GR86-028-89,-3.1,0.194,-0.194,99.98,3.0,,0.0,0.0,
2025-08-15T04:47:57.806Z,3,GR86-028-89,-2.7,0.181,-0.181,100.02,3.0,,0.0,0.0,
2025-08-15T04:47:57.849Z,3,GR86-028-89,-2.4000000000000004,0.185,-0.165,100.0,3.0,5769.0,0.0,0.0,
2025-08-15T04:47:57.893Z,3,GR86-028-89,-2.0,0.201,-0.139,99.98,3.0,,0.0,0.0,122.16
2025-08-15T04:47:57.935Z,3,GR86-028-89,-1.6,0.202,-0.139,99.98,3.0,,0.0,0.0,
2025-08-15T04:47:57.978Z,3,GR86-028-89,-1.2000000000000002,0.191,-0.118,99.98,3.0,,0.0,0.0,
2025-08-15T04:47:58.022Z,3,GR86-028-89,-0.7000000000000001,0.186,-0.108,99.99,3.0,,0.0,0.0,
2025-08-15T04:47:58.064Z,3,GR86-028-89,0.1,0.196,-0.093,100.01,3.0,5832.0,0.0,0.0,
2025-08-15T04:47:58.107Z,3,GR86-028-89,0.9,0.191,-0.08,100.04,3.0,,0.0,0.0,123.54
2025-08-15T04:47:58.151Z,3,GR86-028-89,2.0,0.188,-0.085,100.01,3.0,,0.0,0.0,
2025-08-15T04:47:58.194Z,3,GR86-028-89,2.8000000000000003,0.191,-0.049,100.01,3.0,,0.0,0.0,
2025-08-15T04:47:58.236Z,3,GR86-028-89,3.1,0.199,-0.041,99.99,3.0,,0.0,0.0,
2025-08-15T04:47:58.279Z,3,GR86-028-89,3.2,0.196,-0.042,100.0,3.0,5912.0,0.0,0.0,
2025-08-15T04:47:58.325Z,3,GR86-028-89,3.2,0.2,-0.018,100.01,3.0,,0.0,0.0,124.93
2025-08-15T04:47:58.368Z,3,GR86-028-89,3.2,0.186,-0.004,99.99,3.0,,0.0,0.0,
2025-08-15T04:47:58.411Z,3,GR86-028-89,3.2,0.2,0.018,99.99,3.0,,0.0,0.0,
2025-08-15T04:47:58.454Z,3,GR86-028-89,3.2,0.207,0.011,99.98,3.0,,0.0,0.0,
2025-08-15T04:47:58.497Z,3,GR86-028-89,3.8,0.194,0.013,99.98,3.0,5976.0,0.0,0.0,
2025-08-15T04:47:58.540Z,3,GR86-028-89,4.3,0.183,0.032,99.98,3.0,,0.0,0.0,126.41
2025-08-15T04:47:58.585Z,3,GR86-028-89,5.1000000000000005,0.18,0.042,99.99,3.0,,0.0,0.0,
2025-08-15T04:47:58.627Z,3,GR86-028-89,5.6000000000000005,0.196,0.048,99.99,3.0,,0.0,0.0,
2025-08-15T04:47:58.671Z,3,GR86-028-89,6.2,0.204,0.041,100.01,3.0,,0.0,0.0,
2025-08-15T04:47:58.714Z,3,GR86-028-89,6.5,0.189,0.05,100.03,3.0,6047.0,0.0,0.0,
2025-08-15T04:47:58.757Z,3,GR86-028-89,6.5,0.18,0.074,100.02,3.0,,0.0,0.0,127.9
2025-08-15T04:47:58.800Z,3,GR86-028-89,6.5,0.194,0.079,99.98,3.0,,0.0,0.0,
2025-08-15T04:47:58.844Z,3,GR86-028-89,6.5,0.215,0.095,99.98,3.0,,0.0,0.0,
2025-08-15T04:47:58.887Z,3,GR86-028-89,6.5,0.204,0.093,100.01,3.0,,0.0,0.0,
2025-08-15T04:47:58.931Z,3,GR86-028-89,6.5,0.168,0.095,100.01,3.0,6122.0,0.0,0.0,
2025-08-15T04:47:58.975Z,3,GR86-028-89,6.5,0.175,0.105,99.99,3.0,,0.0,0.0,129.31
2025-08-15T04:47:59.018Z,3,GR86-028-89,6.5,0.2,0.118,99.98,3.0,,0.0,0.0,
2025-08-15T04:47:59.061Z,3,GR86-028-89,6.5,0.202,0.115,99.97,3.0,,0.0,0.0,
2025-08-15T04:47:59.105Z,3,GR86-028-89,7.1000000000000005,0.198,0.126,100.02,3.0,,0.0,0.0,
2025-08-15T04:47:59.148Z,3,GR86-028-89,7.300000000000001,0.183,0.118,100.01,3.0,6185.0,0.0,0.0,
2025-08-15T04:47:59.191Z,3,GR86-028-89,7.1000000000000005,0.187,0.128,99.98,3.0,,0.0,0.0,130.89
2025-08-15T04:47:59.234Z,3,GR86-028-89,6.5,0.198,0.126,99.97,3.0,,0.0,0.0,
2025-08-15T04:47:59.277Z,3,GR86-028-89,5.800000000000001,0.196,0.12,100.02,3.0,,0.0,0.0,
2025-08-15T04:47:59.320Z,3,GR86-028-89,5.1000000000000005,0.174,0.125,100.02,3.0,,0.0,0.0,
2025-08-15T04:47:59.364Z,3,GR86-028-89,4.9,0.189,0.126,100.02,3.0,6260.0,2.7,2.915,
2025-08-15T04:47:59.407Z,3,GR86-028-89,4.9,0.153,0.124,98.93,3.0,,4.565,4.715,133.89
2025-08-15T04:47:59.451Z,3,GR86-028-89,4.2,0.118,0.126,54.49,3.0,,8.27,8.455,
2025-08-15T04:47:59.494Z,3,GR86-028-89,3.3000000000000003,0.037,0.107,36.91,3.0,,13.43,13.46,
2025-08-15T04:47:59.536Z,3,GR86-028-89,2.7,-0.084,0.1,32.55,3.0,,18.86,18.74,
2025-08-15T04:47:59.579Z,3,GR86-028-89,2.2,-0.219,0.112,30.82,3.0,6327.0,23.93,23.865,
2025-08-15T04:47:59.625Z,3,GR86-028-89,1.7000000000000002,-0.394,0.078,21.99,3.0,,28.185,28.185,134.18
2025-08-15T04:47:59.667Z,3,GR86-028-89,1.5,-0.437,0.071,14.41,3.0,,28.9,28.9,
2025-08-15T04:47:59.710Z,3,GR86-028-89,1.4,-0.463,0.047,5.7700000000000005,3.0,,28.9,28.995,
2025-08-15T04:47:59.754Z,3,GR86-028-89,1.6,-0.498,0.025,3.91,3.0,,28.9,29.055,
2025-08-15T04:47:59.796Z,3,GR86-028-89,1.9,-0.599,0.018,3.53,3.0,6277.0,29.055,29.145,
2025-08-15T04:47:59.839Z,3,GR86-028-89,1.5,-0.622,0.028,3.25,3.0,,28.4,28.69,131.51
2025-08-15T04:47:59.884Z,3,GR86-028-89,1.3,-0.673,-0.016,3.0,3.0,,25.99,27.115,
2025-08-15T04:47:59.927Z,3,GR86-028-89,1.6,-0.732,-0.01,2.91,3.0,,24.28,25.395,
2025-08-15T04:47:59.971Z,3,GR86-028-89,2.0,-0.62,-0.02,2.8000000000000003,3.0,,22.28,23.395,
2025-08-15T04:48:00.014Z,3,GR86-028-89,2.2,-0.556,-0.035,2.74,3.0,5793.0,20.145,21.18,
2025-08-15T04:48:00.057Z,3,GR86-028-89,2.2,-0.503,-0.022,2.7,3.0,,18.83,19.79,128.38
2025-08-15T04:48:00.099Z,3,GR86-028-89,2.3000000000000003,-0.523,-0.047,2.69,3.0,,18.68,19.455,
2025-08-15T04:48:00.187Z,3,GR86-028-89,3.2,-0.524,-0.026,2.64,3.0,,18.405,19.21,
2025-08-15T04:48:00.231Z,3,GR86-028-89,3.7,-0.528,-0.035,2.61,3.0,5638.0,17.275000000000002,18.205,
2025-08-15T04:48:00.275Z,3,GR86-028-89,3.9,-0.499,-0.032,2.61,3.0,,15.93,16.740000000000002,124.61
2025-08-15T04:48:00.317Z,3,GR86-028-89,4.0,-0.461,-0.019,2.58,3.0,,15.625,16.405,
2025-08-15T04:48:00.360Z,3,GR86-028-89,4.1000000000000005,-0.451,-0.015,2.57,3.0,,15.96,16.435,
2025-08-15T04:48:00.406Z,3,GR86-028-89,4.2,-0.493,0.003,2.62,3.0,,16.315,16.71,
2025-08-15T04:48:00.448Z,3,GR86-028-89,4.2,-0.478,0.015,3.17,3.0,5510.0,16.025,16.68,
2025-08-15T04:48:00.491Z,3,GR86-028-89,4.3,-0.495,0.027,4.05,3.0,,15.535,16.115000000000002,121.77
2025-08-15T04:48:00.534Z,3,GR86-028-89,4.4,-0.458,0.016,4.95,3.0,,14.51,15.365,
2025-08-15T04:48:00.577Z,3,GR86-028-89,4.4,-0.441,0.027,6.0200000000000005,3.0,,12.985,13.855,
2025-08-15T04:48:00.621Z,3,GR86-028-89,4.4,-0.413,0.038,5.96,3.0,,11.78,12.5,
2025-08-15T04:48:00.665Z,3,GR86-028-89,4.3,-0.403,0.04,5.61,3.0,5402.0,12.055,12.56,
2025-08-15T04:48:00.707Z,3,GR86-028-89,3.4000000000000004,-0.398,0.04,5.51,3.0,,12.45,12.65,119.19
2025-08-15T04:48:00.750Z,3,GR86-028-89,1.6,-0.412,0.039,5.42,3.0,,13.58,13.705,
2025-08-15T04:48:00.794Z,3,GR86-028-89,-0.7000000000000001,-0.431,0.046,5.32,3.0,,16.830000000000002,16.97,
2025-08-15T04:48:00.837Z,3,GR86-028-89,-3.6,-0.5,0.022,5.24,3.0,,23.15,23.06,
2025-08-15T04:48:00.879Z,3,GR86-028-89,-5.2,-0.611,0.008,5.19,3.0,5326.0,28.935,28.69,
2025-08-15T04:48:00.926Z,3,GR86-028-89,-4.6000000000000005,-0.737,-0.026,5.12,3.0,,34.275,34.06,116.89
2025-08-15T04:48:00.969Z,3,GR86-028-89,-3.4000000000000004,-0.745,-0.049,5.03,3.0,,36.425,36.21,
2025-08-15T04:48:01.013Z,3,GR86-028-89,-2.4000000000000004,-0.8200000000000001,-0.049,4.98,3.0,,37.83,37.705,
2025-08-15T04:48:01.055Z,3,GR86-028-89,-0.9,-0.84,-0.056,4.89,3.0,,38.44,38.44,
2025-08-15T04:48:01.141Z,3,GR86-028-89,1.2000000000000002,-0.856,-0.076,4.7700000000000005,3.0,5076.0,38.655,38.745,113.64
2025-08-15T04:48:01.185Z,3,GR86-028-89,4.4,-0.8140000000000001,-0.062,4.4,3.0,,36.73,37.45,
2025-08-15T04:48:01.227Z,3,GR86-028-89,4.4,-0.778,-0.064,3.91,3.0,,36.12,36.99,
2025-08-15T04:48:01.271Z,3,GR86-028-89,5.1000000000000005,-0.8190000000000001,-0.074,3.91,3.0,,34.745,35.985,
2025-08-15T04:48:01.314Z,3,GR86-028-89,6.4,-0.809,-0.082,4.04,3.0,4852.0,32.87,34.275,
2025-08-15T04:48:01.356Z,3,GR86-028-89,7.7,-0.76,-0.062,4.13,3.0,,30.825,32.17,107.87
2025-08-15T04:48:01.399Z,3,GR86-028-89,8.6,-0.716,-0.049,4.19,3.0,,28.645,29.955,
2025-08-15T04:48:01.444Z,3,GR86-028-89,9.3,-0.646,-0.009,4.29,3.0,,26.26,27.405,
2025-08-15T04:48:01.487Z,3,GR86-028-89,9.4,-0.635,0.027,4.4,3.0,,25.055,26.14,
2025-08-15T04:48:01.530Z,3,GR86-028-89,9.4,-0.614,0.032,4.53,3.0,4642.0,23.485,24.525,
2025-08-15T04:48:01.574Z,3,GR86-028-89,9.4,-0.61,0.057,4.65,3.0,,21.625,22.645,103.01
2025-08-15T04:48:01.617Z,3,GR86-028-89,9.4,-0.558,0.075,4.76,3.0,,19.64,20.555,
2025-08-15T04:48:01.660Z,3,GR86-028-89,9.4,-0.51,0.092,4.83,3.0,,18.525,19.365,
2025-08-15T04:48:01.705Z,3,GR86-028-89,9.1,-0.494,0.124,4.89,3.0,,18.085,18.65,
2025-08-15T04:48:01.748Z,3,GR86-028-89,8.5,-0.466,0.124,4.91,3.0,4468.0,17.275000000000002,18.085,
2025-08-15T04:48:01.834Z,3,GR86-028-89,7.9,-0.479,0.14,4.96,3.0,,15.99,16.8,99.09
2025-08-15T04:48:01.877Z,3,GR86-028-89,6.2,-0.417,0.142,5.0,3.0,,13.335,14.025,
2025-08-15T04:48:01.920Z,3,GR86-028-89,5.5,-0.383,0.129,5.07,3.0,,10.955,11.675,
2025-08-15T04:48:01.964Z,3,GR86-028-89,5.4,-0.278,0.123,5.13,3.0,4334.0,3.31,3.785,
2025-08-15T04:48:02.007Z,3,GR86-028-89,5.2,-0.129,0.123,5.13,3.0,,0.0,0.0,93.77
2025-08-15T04:48:02.051Z,3,GR86-028-89,4.7,-0.124,0.101,6.79,3.0,,0.0,0.0,
2025-08-15T04:48:02.094Z,3,GR86-028-89,4.0,-0.106,0.105,19.79,3.0,,0.0,0.0,
2025-08-15T04:48:02.136Z,3,GR86-028-89,3.2,-0.103,0.083,20.85,3.0,,0.0,0.0,
2025-08-15T04:48:02.179Z,3,GR86-028-89,2.2,-0.077,0.067,22.98,3.0,4279.0,0.0,0.0,
2025-08-15T04:48:02.225Z,3,GR86-028-89,0.7000000000000001,-0.059,0.042,27.88,3.0,,0.0,0.0,93.56
2025-08-15T04:48:02.268Z,3,GR86-028-89,0.1,-0.073,0.02,34.94,3.0,,0.0,0.0,
2025-08-15T04:48:02.311Z,3,GR86-028-89,-0.8,0.069,0.005,37.04,3.0,,0.0,0.0,
2025-08-15T04:48:02.354Z,3,GR86-028-89,-1.6,0.355,0.014,37.28,3.0,,0.0,0.0,
2025-08-15T04:48:02.397Z,3,GR86-028-89,-2.4000000000000004,0.255,-0.045,46.9,3.0,4309.0,0.0,0.0,
2025-08-15T04:48:02.440Z,3,GR86-028-89,-3.4000000000000004,0.073,-0.007,66.91,3.0,,0.0,0.0,93.44
2025-08-15T04:48:02.485Z,3,GR86-028-89,-5.1000000000000005,0.086,-0.063,100.19,3.0,,0.0,0.0,
2025-08-15T04:48:02.527Z,3,GR86-028-89,-6.300000000000001,0.223,-0.074,100.61,3.0,,0.0,0.0,
2025-08-15T04:48:02.571Z,3,GR86-028-89,-7.2,0.305,-0.069,100.62,3.0,,0.0,0.0,
2025-08-15T04:48:02.614Z,3,GR86-028-89,-8.0,0.243,-0.118,100.61,3.0,4530.0,0.0,0.0,
2025-08-15T04:48:02.657Z,3,GR86-028-89,-8.200000000000001,0.182,-0.109,100.61,3.0,,0.0,0.0,94.85
2025-08-15T04:48:02.700Z,3,GR86-028-89,-8.200000000000001,0.186,-0.138,100.58,3.0,,0.0,0.0,
2025-08-15T04:48:02.744Z,3,GR86-028-89,-8.200000000000001,0.234,-0.156,100.56,3.0,,0.0,0.0,
2025-08-15T04:48:02.787Z,3,GR86-028-89,-8.200000000000001,0.234,-0.165,100.5,3.0,,0.0,0.0,
2025-08-15T04:48:02.831Z,3,GR86-028-89,-8.200000000000001,0.215,-0.182,100.43,3.0,4618.0,0.0,0.0,
2025-08-15T04:48:02.875Z,3,GR86-028-89,-8.1,0.19,-0.186,100.37,3.0,,0.0,0.0,96.8
2025-08-15T04:48:02.917Z,3,GR86-028-89,-8.0,0.212,-0.182,100.32,3.0,,0.0,0.0,
2025-08-15T04:48:02.960Z,3,GR86-028-89,-7.7,0.204,-0.187,100.23,3.0,,0.0,0.0,
2025-08-15T04:48:03.005Z,3,GR86-028-89,-7.0,0.199,-0.192,100.08,3.0,,0.0,0.0,
2025-08-15T04:48:03.048Z,3,GR86-028-89,-6.6000000000000005,0.213,-0.19,99.97,3.0,4703.0,0.0,0.0,
2025-08-15T04:48:03.091Z,3,GR86-028-89,-6.300000000000001,0.197,-0.175,99.91,3.0,,0.0,0.0,98.9
2025-08-15T04:48:03.134Z,3,GR86-028-89,-6.1000000000000005,0.22,-0.177,99.92,3.0,,0.0,0.0,
2025-08-15T04:48:03.177Z,3,GR86-028-89,-5.5,0.199,-0.165,99.88,3.0,,0.0,0.0,
2025-08-15T04:48:03.220Z,3,GR86-028-89,-5.0,0.212,-0.164,99.89,3.0,,0.0,0.0,
2025-08-15T04:48:03.264Z,3,GR86-028-89,-5.0,0.203,-0.164,99.88,3.0,4790.0,0.0,0.0,
2025-08-15T04:48:03.307Z,3,GR86-028-89,-5.300000000000001,0.198,-0.164,99.89,3.0,,0.0,0.0,100.95
2025-08-15T04:48:03.350Z,3,GR86-028-89,-5.300000000000001,0.218,-0.154,99.89,3.0,,0.0,0.0,
2025-08-15T04:48:03.394Z,3,GR86-028-89,-5.0,0.206,-0.151,99.91,3.0,,0.0,0.0,
2025-08-15T04:48:03.436Z,3,GR86-028-89,-4.7,0.203,-0.145,99.91,3.0,,0.0,0.0,
2025-08-15T04:48:03.479Z,3,GR86-028-89,-4.6000000000000005,0.201,-0.133,99.92,3.0,4876.0,0.0,0.0,
2025-08-15T04:48:03.525Z,3,GR86-028-89,-4.6000000000000005,0.194,-0.146,99.93,3.0,,0.0,0.0,102.95
2025-08-15T04:48:03.567Z,3,GR86-028-89,-4.7,0.2,-0.131,99.95,3.0,,0.0,0.0,
2025-08-15T04:48:03.610Z,3,GR86-028-89,-4.800000000000001,0.215,-0.128,99.95,3.0,,0.0,0.0,
2025-08-15T04:48:03.654Z,3,GR86-028-89,-4.800000000000001,0.193,-0.124,99.95,3.0,,0.0,0.0,
2025-08-15T04:48:03.696Z,3,GR86-028-89,-4.9,0.201,-0.127,99.96,3.0,4974.0,0.0,0.0,
2025-08-15T04:48:03.739Z,3,GR86-028-89,-4.6000000000000005,0.191,-0.124,99.98,3.0,,0.0,0.0,104.83
2025-08-15T04:48:03.784Z,3,GR86-028-89,-4.4,0.191,-0.121,99.98,3.0,,0.0,0.0,
2025-08-15T04:48:03.827Z,3,GR86-028-89,-4.4,0.21,-0.123,99.98,3.0,,0.0,0.0,
2025-08-15T04:48:03.871Z,3,GR86-028-89,-4.3,0.199,-0.113,99.98,3.0,,0.0,0.0,
2025-08-15T04:48:03.914Z,3,GR86-028-89,-4.3,0.193,-0.12,99.98,3.0,5065.0,0.0,0.0,
2025-08-15T04:48:03.957Z,3,GR86-028-89,-4.6000000000000005,0.195,-0.121,100.02,3.0,,0.0,0.0,106.72
2025-08-15T04:48:03.999Z,3,GR86-028-89,-5.300000000000001,0.188,-0.118,100.05,3.0,,0.0,0.0,
2025-08-15T04:48:04.044Z,3,GR86-028-89,-6.2,0.201,-0.136,100.06,3.0,,0.0,0.0,
2025-08-15T04:48:04.087Z,3,GR86-028-89,-6.4,0.195,-0.137,100.07,3.0,,0.0,0.0,
2025-08-15T04:48:04.131Z,3,GR86-028-89,-6.4,0.178,-0.134,100.07,3.0,5154.0,0.0,0.0,
2025-08-15T04:48:04.175Z,3,GR86-028-89,-6.300000000000001,0.192,-0.153,100.07,3.0,,0.0,0.0,108.56
2025-08-15T04:48:04.217Z,3,GR86-028-89,-5.9,0.199,-0.15,100.07,3.0,,0.0,0.0,
2025-08-15T04:48:04.260Z,3,GR86-028-89,-5.5,0.196,-0.161,100.08,3.0,,0.0,0.0,
2025-08-15T04:48:04.305Z,3,GR86-028-89,-5.300000000000001,0.19,-0.161,100.09,3.0,,0.0,0.0,
2025-08-15T04:48:04.348Z,3,GR86-028-89,-5.300000000000001,0.181,-0.163,100.05,3.0,5242.0,0.0,0.0,
2025-08-15T04:48:04.391Z,3,GR86-028-89,-5.5,0.19,-0.155,100.04,3.0,,0.0,0.0,110.5
2025-08-15T04:48:04.434Z,3,GR86-028-89,-5.5,0.187,-0.173,100.04,3.0,,0.0,0.0,
2025-08-15T04:48:04.477Z,3,GR86-028-89,-5.5,0.194,-0.167,99.99,3.0,,0.0,0.0,
2025-08-15T04:48:04.521Z,3,GR86-028-89,-5.5,0.19,-0.164,99.97,3.0,,0.0,0.0,
2025-08-15T04:48:04.565Z,3,GR86-028-89,-5.0,0.188,-0.158,99.97,3.0,5318.0,0.0,0.0,
2025-08-15T04:48:04.607Z,3,GR86-028-89,-4.9,0.183,-0.163,99.95,3.0,,0.0,0.0,114.22
2025-08-15T04:48:04.650Z,3,GR86-028-89,-4.9,0.185,-0.146,99.98,3.0,,0.0,0.0,
2025-08-15T04:48:04.694Z,3,GR86-028-89,-4.9,0.192,-0.16,99.95,3.0,,0.0,0.0,
2025-08-15T04:48:04.737Z,3,GR86-028-89,-5.0,0.175,-0.158,99.95,3.0,,0.0,0.0,
2025-08-15T04:48:04.779Z,3,GR86-028-89,-5.4,0.185,-0.158,99.96,3.0,5397.0,0.0,0.0,
2025-08-15T04:48:04.825Z,3,GR86-028-89,-5.7,0.188,-0.156,99.98,3.0,,0.0,0.0,116.01
2025-08-15T04:48:04.868Z,3,GR86-028-89,-5.6000000000000005,0.19,-0.173,99.98,3.0,,0.0,0.0,
2025-08-15T04:48:04.911Z,3,GR86-028-89,-5.0,0.175,-0.17,99.97,3.0,,0.0,0.0,
2025-08-15T04:48:04.954Z,3,GR86-028-89,-4.0,0.19,-0.171,99.99,3.0,,0.0,0.0,
2025-08-15T04:48:04.997Z,3,GR86-028-89,-2.9000000000000004,0.193,-0.171,99.98,3.0,5498.0,0.0,0.0,
2025-08-15T04:48:05.040Z,3,GR86-028-89,-2.2,0.186,-0.17,99.98,3.0,,0.0,0.0,117.82
2025-08-15T04:48:05.085Z,3,GR86-028-89,-2.0,0.182,-0.139,100.01,3.0,,0.0,0.0,
2025-08-15T04:48:05.127Z,3,GR86-028-89,-2.5,0.181,-0.138,100.0,3.0,,0.0,0.0,
2025-08-15T04:48:05.171Z,3,GR86-028-89,-3.1,0.19,-0.145,100.01,3.0,,0.0,0.0,
2025-08-15T04:48:05.214Z,3,GR86-028-89,-3.4000000000000004,0.181,-0.137,100.03,3.0,5655.0,0.0,0.0,
2025-08-15T04:48:05.256Z,3,GR86-028-89,-3.4000000000000004,0.194,-0.12,99.98,3.0,,0.0,0.0,119.61
2025-08-15T04:48:05.299Z,3,GR86-028-89,-3.3000000000000003,0.195,-0.135,100.01,3.0,,0.0,0.0,
2025-08-15T04:48:05.343Z,3,GR86-028-89,-3.2,0.192,-0.113,99.99,3.0,,0.0,0.0,
2025-08-15T04:48:05.387Z,3,GR86-028-89,-3.3000000000000003,0.177,-0.108,99.98,3.0,,0.0,0.0,
2025-08-15T04:48:05.474Z,3,GR86-028-89,-3.3000000000000003,0.188,-0.102,99.98,3.0,5734.0,0.0,0.0,121.37
2025-08-15T04:48:05.517Z,3,GR86-028-89,-2.1,0.168,-0.101,100.01,3.0,,0.0,0.0,
2025-08-15T04:48:05.560Z,3,GR86-028-89,-1.0,0.195,-0.084,99.99,3.0,,0.0,0.0,
2025-08-15T04:48:05.606Z,3,GR86-028-89,-0.4,0.191,-0.078,99.99,3.0,,0.0,0.0,
2025-08-15T04:48:05.648Z,3,GR86-028-89,-0.6000000000000001,0.201,-0.091,100.01,3.0,5821.0,0.0,0.0,
2025-08-15T04:48:05.691Z,3,GR86-028-89,-1.0,0.176,-0.088,100.01,3.0,,0.0,0.0,123.0
2025-08-15T04:48:05.734Z,3,GR86-028-89,-1.3,0.178,-0.068,100.01,3.0,,0.0,0.0,
2025-08-15T04:48:05.820Z,3,GR86-028-89,-1.3,0.201,-0.076,100.01,3.0,,0.0,0.0,
2025-08-15T04:48:05.864Z,3,GR86-028-89,-1.8,0.167,-0.073,100.03,3.0,5901.0,0.0,0.0,
2025-08-15T04:48:05.907Z,3,GR86-028-89,-1.8,0.169,-0.053,100.02,3.0,,0.0,0.0,124.7
2025-08-15T04:48:05.951Z,3,GR86-028-89,-1.4,0.187,-0.06,100.01,3.0,,0.0,0.0,
2025-08-15T04:48:05.994Z,3,GR86-028-89,-1.1,0.199,-0.08,99.83,3.0,,3.785,4.0,
2025-08-15T04:48:06.036Z,3,GR86-028-89,-1.2000000000000002,0.13,-0.067,62.99,3.0,,7.95,8.040000000000001,
2025-08-15T04:48:06.079Z,3,GR86-028-89,-1.3,0.017,-0.072,44.87,3.0,5981.0,11.965,12.025,
2025-08-15T04:48:06.125Z,3,GR86-028-89,-1.4,-0.09,-0.077,32.980000000000004,3.0,,17.305,17.215,126.49
2025-08-15T04:48:06.168Z,3,GR86-028-89,-1.5,-0.183,-0.076,29.03,3.0,,22.585,22.495,
2025-08-15T04:48:06.211Z,3,GR86-028-89,-1.9,-0.338,-0.079,21.66,3.0,,29.74,29.62,
2025-08-15T04:48:06.254Z,3,GR86-028-89,-2.1,-0.506,-0.072,13.09,3.0,,36.67,36.365,
2025-08-15T04:48:06.297Z,3,GR86-028-89,-2.4000000000000004,-0.651,-0.093,7.31,3.0,5937.0,42.865,42.485,
2025-08-15T04:48:06.340Z,3,GR86-028-89,-2.6,-0.713,-0.095,6.34,3.0,,48.265,47.735,126.98
2025-08-15T04:48:06.384Z,3,GR86-028-89,-4.9,-0.804,-0.077,3.5700000000000003,3.0,,55.27,54.615,
2025-08-15T04:48:06.427Z,3,GR86-028-89,-9.2,-0.902,-0.055,3.2,3.0,,59.805,59.055,
2025-08-15T04:48:06.471Z,3,GR86-028-89,-10.7,-0.773,-0.091,3.0500000000000003,3.0,,59.36,60.17,
2025-08-15T04:48:06.514Z,3,GR86-028-89,-8.200000000000001,-0.913,-0.155,2.97,3.0,5590.0,57.47,58.52,
2025-08-15T04:48:06.557Z,3,GR86-028-89,-6.800000000000001,-0.911,-0.023,2.86,3.0,,58.675,59.15,123.74
2025-08-15T04:48:06.600Z,3,GR86-028-89,-8.3,-0.911,-0.06,2.77,3.0,,57.21,58.46,
2025-08-15T04:48:06.644Z,3,GR86-028-89,-10.0,-0.963,-0.064,2.67,3.0,,53.06,54.83,
2025-08-15T04:48:06.731Z,3,GR86-028-89,-8.9,-0.92,-0.034,2.64,3.0,5097.0,53.515,53.745000000000005,
2025-08-15T04:48:06.817Z,3,GR86-028-89,-7.300000000000001,-0.776,-0.129,2.59,3.0,,54.8,55.67,117.38
2025-08-15T04:48:06.860Z,3,GR86-028-89,-9.0,-0.74,0.016,2.56,3.0,,58.675,58.46,
2025-08-15T04:48:06.905Z,3,GR86-028-89,-9.6,-0.935,-0.056,2.52,3.0,,60.2,60.98,
2025-08-15T04:48:06.948Z,3,GR86-028-89,-8.700000000000001,-0.668,-0.068,2.52,3.0,4973.0,56.75,57.745000000000005,
2025-08-15T04:48:06.991Z,3,GR86-028-89,-6.7,-1.0,-0.109,2.52,3.0,,57.27,57.715,110.21
2025-08-15T04:48:07.034Z,3,GR86-028-89,-2.7,-0.835,-0.005,2.51,3.0,,62.370000000000005,63.56,
2025-08-15T04:48:07.077Z,3,GR86-028-89,-2.9000000000000004,-0.755,-0.055,2.49,3.0,,61.82,62.245000000000005,
2025-08-15T04:48:07.120Z,3,GR86-028-89,-9.0,-0.841,0.079,2.49,3.0,,62.43,62.0,
2025-08-15T04:48:07.164Z,3,GR86-028-89,-9.4,-0.89,0.049,2.49,3.0,4541.0,59.085,60.52,
2025-08-15T04:48:07.207Z,3,GR86-028-89,-4.1000000000000005,-0.731,-0.008,2.49,3.0,,54.615,55.24,99.45
2025-08-15T04:48:07.251Z,3,GR86-028-89,-5.300000000000001,-0.848,0.047,2.48,3.0,,55.395,55.865,
2025-08-15T04:48:07.294Z,3,GR86-028-89,-9.0,-0.934,-0.004,2.49,3.0,,56.22,55.945,
2025-08-15T04:48:07.337Z,3,GR86-028-89,-10.6,-0.725,-0.023,38.3,3.0,,53.24,54.265,
2025-08-15T04:48:07.380Z,3,GR86-028-89,-10.9,-0.98,-0.016,84.13,2.0,4383.0,51.120000000000005,52.34,
2025-08-15T04:48:07.425Z,3,GR86-028-89,-17.5,-0.911,0.023,8.03,2.0,,56.25,57.27,94.63
2025-08-15T04:48:07.467Z,3,GR86-028-89,-21.9,-0.6920000000000001,-0.022,3.45,2.0,,57.24,58.43,
2025-08-15T04:48:07.510Z,3,GR86-028-89,-23.6,-1.092,-0.177,3.06,2.0,,54.555,55.18,
2025-08-15T04:48:07.554Z,3,GR86-028-89,-23.4,-1.102,0.069,2.93,2.0,,52.68,53.15,
2025-08-15T04:48:07.596Z,3,GR86-028-89,-22.4,-0.846,0.041,2.86,2.0,4260.0,53.485,54.615,
2025-08-15T04:48:07.639Z,3,GR86-028-89,-24.0,-0.761,-0.24,2.77,2.0,,45.46,45.87,87.28
2025-08-15T04:48:07.684Z,3,GR86-028-89,-27.0,-0.976,-0.055,2.7,2.0,,35.89,36.06,
2025-08-15T04:48:07.727Z,3,GR86-028-89,-26.8,-0.975,-0.191,2.67,2.0,,35.175000000000004,35.71,
2025-08-15T04:48:07.771Z,3,GR86-028-89,-27.1,-0.719,-0.221,2.65,2.0,,30.365,30.55,
2025-08-15T04:48:07.814Z,3,GR86-028-89,-28.6,-0.596,-0.253,2.63,2.0,4725.0,25.515,26.08,
2025-08-15T04:48:07.857Z,3,GR86-028-89,-30.1,-0.665,-0.319,2.61,2.0,,23.775,24.525,84.74
2025-08-15T04:48:07.899Z,3,GR86-028-89,-30.5,-0.591,-0.322,2.58,2.0,,22.675,23.425,
2025-08-15T04:48:07.945Z,3,GR86-028-89,-31.1,-0.606,-0.408,2.54,2.0,,21.21,21.99,
2025-08-15T04:48:07.988Z,3,GR86-028-89,-32.9,-0.557,-0.426,2.51,2.0,,20.145,20.935,
2025-08-15T04:48:08.031Z,3,GR86-028-89,-35.9,-0.551,-0.451,2.51,2.0,4548.0,18.68,19.485,
2025-08-15T04:48:08.075Z,3,GR86-028-89,-39.0,-0.525,-0.488,2.5,2.0,,16.77,17.425,82.8
2025-08-15T04:48:08.117Z,3,GR86-028-89,-40.5,-0.49,-0.505,2.48,2.0,,13.735,14.45,
2025-08-15T04:48:08.160Z,3,GR86-028-89,-40.400000000000006,-0.429,-0.553,2.6,2.0,,9.69,10.315,
2025-08-15T04:48:08.206Z,3,GR86-028-89,-41.3,-0.306,-0.581,3.06,2.0,,2.365,2.67,
2025-08-15T04:48:08.291Z,3,GR86-028-89,-48.1,-0.184,-0.617,7.79,2.0,4369.0,0.0,0.0,79.93
2025-08-15T04:48:08.334Z,3,GR86-028-89,-50.1,-0.165,-0.614,13.58,2.0,,0.0,0.0,
2025-08-15T04:48:08.377Z,3,GR86-028-89,-50.6,-0.15,-0.644,13.69,2.0,,0.0,0.0,
2025-08-15T04:48:08.421Z,3,GR86-028-89,-50.7,-0.123,-0.628,13.9,2.0,,0.0,0.0,
2025-08-15T04:48:08.465Z,3,GR86-028-89,-47.7,-0.102,-0.66,16.07,2.0,4387.0,0.0,0.0,
2025-08-15T04:48:08.507Z,3,GR86-028-89,-45.8,-0.112,-0.611,21.35,2.0,,0.0,0.0,78.9
2025-08-15T04:48:08.550Z,3,GR86-028-89,-46.400000000000006,-0.12,-0.622,21.94,2.0,,0.0,0.0,
2025-08-15T04:48:08.594Z,3,GR86-028-89,-48.8,-0.103,-0.595,21.98,2.0,,0.0,0.0,
2025-08-15T04:48:08.637Z,3,GR86-028-89,-52.5,-0.078,-0.627,22.04,2.0,,0.0,0.0,
2025-08-15T04:48:08.679Z,3,GR86-028-89,-56.5,-0.09,-0.661,21.98,2.0,4378.0,0.0,0.0,
2025-08-15T04:48:08.725Z,3,GR86-028-89,-60.900000000000006,0.258,-0.671,7.95,2.0,,0.0,0.0,78.2
2025-08-15T04:48:08.768Z,3,GR86-028-89,-64.4,0.204,-0.711,8.98,2.0,,0.0,0.0,
2025-08-15T04:48:08.811Z,3,GR86-028-89,-67.8,0.06,-0.667,17.87,2.0,,0.0,0.0,
2025-08-15T04:48:08.854Z,3,GR86-028-89,-68.60000000000001,-0.102,-0.735,20.29,2.0,,0.0,0.0,
2025-08-15T04:48:08.897Z,3,GR86-028-89,-67.60000000000001,-0.101,-0.721,21.75,2.0,4439.0,0.0,0.0,
2025-08-15T04:48:08.940Z,3,GR86-028-89,-65.9,-0.126,-0.774,21.81,2.0,,0.0,0.0,77.96000000000001
2025-08-15T04:48:08.985Z,3,GR86-028-89,-63.8,-0.06,-0.768,21.73,2.0,,0.0,0.0,
2025-08-15T04:48:09.027Z,3,GR86-028-89,-61.400000000000006,0.112,-0.747,21.4,2.0,,0.0,0.0,
2025-08-15T04:48:09.071Z,3,GR86-028-89,-59.2,0.141,-0.717,21.33,2.0,,0.0,0.0,
2025-08-15T04:48:09.114Z,3,GR86-028-89,-57.8,0.089,-0.747,21.33,2.0,4552.0,0.0,0.0,
2025-08-15T04:48:09.156Z,3,GR86-028-89,-57.7,0.045,-0.715,21.37,2.0,,0.0,0.0,78.85000000000001
2025-08-15T04:48:09.199Z,3,GR86-028-89,-58.900000000000006,0.022,-0.756,21.36,2.0,,0.0,0.0,
2025-08-15T04:48:09.244Z,3,GR86-028-89,-62.5,0.039,-0.735,21.27,2.0,,0.0,0.0,
2025-08-15T04:48:09.287Z,3,GR86-028-89,-65.2,0.073,-0.762,21.26,2.0,,0.0,0.0,
2025-08-15T04:48:09.331Z,3,GR86-028-89,-66.60000000000001,0.075,-0.72,21.3,2.0,4515.0,0.0,0.0,
2025-08-15T04:48:09.374Z,3,GR86-028-89,-66.8,0.066,-0.727,21.56,2.0,,0.0,0.0,79.26
2025-08-15T04:48:09.417Z,3,GR86-028-89,-67.2,0.042,-0.736,21.68,2.0,,0.0,0.0,
2025-08-15T04:48:09.460Z,3,GR86-028-89,-68.9,0.038,-0.755,21.81,2.0,,0.0,0.0,
2025-08-15T04:48:09.506Z,3,GR86-028-89,-72.5,0.045,-0.781,21.95,2.0,,0.0,0.0,
2025-08-15T04:48:09.548Z,3,GR86-028-89,-73.10000000000001,0.058,-0.796,21.99,2.0,4576.0,0.0,0.0,
2025-08-15T04:48:09.591Z,3,GR86-028-89,-71.3,0.059,-0.784,22.01,2.0,,0.0,0.0,79.83
2025-08-15T04:48:09.634Z,3,GR86-028-89,-67.3,0.058,-0.791,22.03,2.0,,0.0,0.0,
2025-08-15T04:48:09.677Z,3,GR86-028-89,-64.5,0.052,-0.805,22.06,2.0,,0.0,0.0,
2025-08-15T04:48:09.720Z,3,GR86-028-89,-64.10000000000001,0.054,-0.795,22.06,2.0,,0.0,0.0,
2025-08-15T04:48:09.764Z,3,GR86-028-89,-65.4,0.058,-0.8,22.07,2.0,4646.0,0.0,0.0,
2025-08-15T04:48:09.807Z,3,GR86-028-89,-66.10000000000001,0.072,-0.78,22.07,2.0,,0.0,0.0,81.38
2025-08-15T04:48:09.851Z,3,GR86-028-89,-66.3,0.063,-0.797,22.07,2.0,,0.0,0.0,
2025-08-15T04:48:09.894Z,3,GR86-028-89,-65.10000000000001,0.064,-0.771,22.06,2.0,,0.0,0.0,
2025-08-15T04:48:09.936Z,3,GR86-028-89,-61.7,0.05,-0.8150000000000001,22.05,2.0,,0.0,0.0,
2025-08-15T04:48:09.979Z,3,GR86-028-89,-58.0,0.047,-0.783,22.05,2.0,4684.0,0.0,0.0,
2025-08-15T04:48:10.025Z,3,GR86-028-89,-56.8,0.066,-0.779,22.07,2.0,,0.0,0.0,81.91
2025-08-15T04:48:10.068Z,3,GR86-028-89,-57.8,0.07,-0.761,22.05,2.0,,0.0,0.0,
2025-08-15T04:48:10.111Z,3,GR86-028-89,-58.2,0.061,-0.757,22.05,2.0,,0.0,0.0,
2025-08-15T04:48:10.154Z,3,GR86-028-89,-57.1,0.06,-0.743,22.05,2.0,,0.0,0.0,
2025-08-15T04:48:10.197Z,3,GR86-028-89,-54.1,0.065,-0.771,22.03,2.0,4715.0,0.0,0.0,
2025-08-15T04:48:10.240Z,3,GR86-028-89,-48.6,0.064,-0.74,20.22,2.0,,0.0,0.0,82.47
2025-08-15T04:48:10.284Z,3,GR86-028-89,-41.5,0.072,-0.6960000000000001,7.56,2.0,,0.0,0.0,
2025-08-15T04:48:10.327Z,3,GR86-028-89,-39.900000000000006,0.069,-0.661,6.67,2.0,,0.0,0.0,
2025-08-15T04:48:10.371Z,3,GR86-028-89,-39.8,0.038,-0.632,4.86,2.0,,0.0,0.0,
2025-08-15T04:48:10.414Z,3,GR86-028-89,-39.8,-0.026,-0.608,4.15,2.0,4692.0,0.0,0.0,
2025-08-15T04:48:10.457Z,3,GR86-028-89,-39.8,-0.106,-0.614,3.91,2.0,,0.0,0.0,83.0
2025-08-15T04:48:10.500Z,3,GR86-028-89,-39.8,-0.102,-0.578,3.73,2.0,,0.0,0.0,
2025-08-15T04:48:10.544Z,3,GR86-028-89,-39.8,-0.312,-0.585,4.18,2.0,,0.0,0.0,
2025-08-15T04:48:10.587Z,3,GR86-028-89,-40.0,-0.285,-0.531,4.36,2.0,,0.0,0.0,
2025-08-15T04:48:10.631Z,3,GR86-028-89,-41.5,-0.195,-0.5730000000000001,4.49,2.0,4546.0,0.0,0.0,
2025-08-15T04:48:10.675Z,3,GR86-028-89,-45.6,-0.125,-0.553,4.64,2.0,,0.0,0.0,82.37
2025-08-15T04:48:10.717Z,3,GR86-028-89,-52.1,-0.119,-0.577,16.09,2.0,,0.0,0.0,
2025-08-15T04:48:10.760Z,3,GR86-028-89,-60.1,-0.147,-0.63,20.67,2.0,,0.0,0.0,
2025-08-15T04:48:10.805Z,3,GR86-028-89,-73.60000000000001,-0.159,-0.708,20.96,2.0,,0.0,0.0,
2025-08-15T04:48:10.848Z,3,GR86-028-89,-82.0,-0.147,-0.756,21.81,2.0,4545.0,0.0,0.0,
2025-08-15T04:48:10.891Z,3,GR86-028-89,-88.80000000000001,-0.118,-0.8200000000000001,24.18,2.0,,0.0,0.0,81.39
2025-08-15T04:48:10.935Z,3,GR86-028-89,-93.5,-0.131,-0.846,27.04,2.0,,0.0,0.0,
2025-08-15T04:48:10.977Z,3,GR86-028-89,-96.2,0.083,-0.842,27.56,2.0,,0.0,0.0,
2025-08-15T04:48:11.064Z,3,GR86-028-89,-96.8,0.198,-0.87,28.45,2.0,4882.0,0.0,0.0,
2025-08-15T04:48:11.107Z,3,GR86-028-89,-95.4,0.046,-0.873,35.68,2.0,,0.0,0.0,81.45
2025-08-15T04:48:11.151Z,3,GR86-028-89,-94.5,0.056,-0.891,36.93,2.0,,0.0,0.0,
2025-08-15T04:48:11.194Z,3,GR86-028-89,-93.5,0.084,-0.881,37.58,2.0,,0.0,0.0,
2025-08-15T04:48:11.236Z,3,GR86-028-89,-92.2,0.142,-0.93,38.7,2.0,,0.0,0.0,
2025-08-15T04:48:11.279Z,3,GR86-028-89,-90.7,0.147,-0.925,41.38,2.0,4813.0,0.0,0.0,
2025-08-15T04:48:11.325Z,3,GR86-028-89,-84.5,0.156,-0.925,48.33,2.0,,0.0,0.0,81.84
2025-08-15T04:48:11.367Z,3,GR86-028-89,-76.3,0.169,-0.892,52.0,2.0,,0.0,0.0,
2025-08-15T04:48:11.410Z,3,GR86-028-89,-66.7,0.173,-0.876,57.1,2.0,,0.0,0.0,
2025-08-15T04:48:11.454Z,3,GR86-028-89,-57.400000000000006,0.184,-0.882,70.14,2.0,,0.0,0.0,
2025-08-15T04:48:11.496Z,3,GR86-028-89,-48.400000000000006,0.194,-0.896,94.49,2.0,4907.0,0.0,0.0,
2025-08-15T04:48:11.539Z,3,GR86-028-89,-39.900000000000006,0.205,-0.876,100.52,2.0,,0.0,0.0,82.61
2025-08-15T04:48:11.584Z,3,GR86-028-89,-29.4,0.211,-0.855,100.59,2.0,,0.0,0.0,
2025-08-15T04:48:11.627Z,3,GR86-028-89,-23.9,0.22,-0.862,100.59,2.0,,0.0,0.0,
2025-08-15T04:48:11.671Z,3,GR86-028-89,-19.3,0.242,-0.849,100.58,2.0,,0.0,0.0,
2025-08-15T04:48:11.714Z,3,GR86-028-89,-16.2,0.242,-0.874,100.58,2.0,5057.0,0.0,0.0,
2025-08-15T04:48:11.757Z,3,GR86-028-89,-15.5,0.222,-0.881,100.58,2.0,,0.0,0.0,83.68
2025-08-15T04:48:11.800Z,3,GR86-028-89,-14.8,0.243,-0.907,100.56,2.0,,0.0,0.0,
2025-08-15T04:48:11.844Z,3,GR86-028-89,-4.9,0.252,-0.892,100.49,2.0,,0.0,0.0,
2025-08-15T04:48:11.887Z,3,GR86-028-89,5.300000000000001,0.283,-0.8200000000000001,100.43,2.0,,0.0,0.0,
2025-08-15T04:48:11.931Z,3,GR86-028-89,14.3,0.263,-0.757,100.36,2.0,5148.0,0.0,0.0,
2025-08-15T04:48:11.975Z,3,GR86-028-89,17.1,0.277,-0.705,100.3,2.0,,0.0,0.0,85.2
2025-08-15T04:48:12.017Z,3,GR86-028-89,11.9,0.267,-0.654,100.24,2.0,,0.0,0.0,
2025-08-15T04:48:12.060Z,3,GR86-028-89,-0.1,0.296,-0.622,100.14,2.0,,0.0,0.0,
2025-08-15T04:48:12.106Z,3,GR86-028-89,-19.200000000000003,0.293,-0.657,99.97,2.0,,0.0,0.0,
2025-08-15T04:48:12.148Z,3,GR86-028-89,-27.8,0.281,-0.622,99.92,2.0,5172.0,0.0,0.0,
2025-08-15T04:48:12.191Z,3,GR86-028-89,-31.1,0.261,-0.5650000000000001,99.88,2.0,,0.0,0.0,86.57000000000001
2025-08-15T04:48:12.234Z,3,GR86-028-89,-31.3,0.225,-0.52,99.89,2.0,,0.0,0.0,
2025-08-15T04:48:12.277Z,3,GR86-028-89,-30.1,0.221,-0.466,99.9,2.0,,0.0,0.0,
2025-08-15T04:48:12.321Z,3,GR86-028-89,-29.200000000000003,0.227,-0.413,99.89,2.0,,0.0,0.0,
2025-08-15T04:48:12.365Z,3,GR86-028-89,-27.9,0.258,-0.381,99.88,2.0,5132.0,0.0,0.0,
2025-08-15T04:48:12.407Z,3,GR86-028-89,-26.9,0.239,-0.359,99.89,2.0,,0.0,0.0,89.22
2025-08-15T04:48:12.451Z,3,GR86-028-89,-26.0,0.253,-0.374,99.91,2.0,,0.0,0.0,
2025-08-15T04:48:12.494Z,3,GR86-028-89,-24.700000000000003,0.222,-0.395,99.92,2.0,,0.0,0.0,
2025-08-15T04:48:12.537Z,3,GR86-028-89,-23.200000000000003,0.238,-0.398,99.92,2.0,,0.0,0.0,
2025-08-15T04:48:12.579Z,3,GR86-028-89,-21.8,0.245,-0.391,99.95,2.0,5254.0,0.0,0.0,
2025-08-15T04:48:12.625Z,3,GR86-028-89,-20.0,0.248,-0.373,99.95,2.0,,0.0,0.0,91.19
2025-08-15T04:48:12.668Z,3,GR86-028-89,-19.4,0.252,-0.37,99.96,2.0,,0.0,0.0,
2025-08-15T04:48:12.711Z,3,GR86-028-89,-19.200000000000003,0.235,-0.346,99.96,2.0,,0.0,0.0,
2025-08-15T04:48:12.754Z,3,GR86-028-89,-19.4,0.236,-0.358,99.98,2.0,,0.0,0.0,
2025-08-15T04:48:12.798Z,3,GR86-028-89,-19.5,0.226,-0.363,100.01,2.0,5371.0,0.0,0.0,
2025-08-15T04:48:12.840Z,3,GR86-028-89,-19.6,0.252,-0.363,100.03,2.0,,0.0,0.0,92.95
2025-08-15T04:48:12.884Z,3,GR86-028-89,-19.9,0.262,-0.335,100.04,2.0,,0.0,0.0,
2025-08-15T04:48:12.971Z,3,GR86-028-89,-19.700000000000003,0.257,-0.337,100.07,2.0,,0.0,0.0,
2025-08-15T04:48:13.056Z,3,GR86-028-89,-18.8,0.246,-0.353,100.08,2.0,5561.0,0.0,0.0,94.88
2025-08-15T04:48:13.099Z,3,GR86-028-89,-18.4,0.244,-0.341,100.04,2.0,,0.0,0.0,
2025-08-15T04:48:13.144Z,3,GR86-028-89,-18.2,0.258,-0.353,100.06,2.0,,0.0,0.0,
2025-08-15T04:48:13.187Z,3,GR86-028-89,-18.2,0.25,-0.359,100.02,2.0,,0.0,0.0,
2025-08-15T04:48:13.231Z,3,GR86-028-89,-17.8,0.24,-0.372,99.99,2.0,5677.0,0.0,0.0,
2025-08-15T04:48:13.274Z,3,GR86-028-89,-17.1,0.242,-0.373,99.99,2.0,,0.0,0.0,96.74
2025-08-15T04:48:13.317Z,3,GR86-028-89,-16.400000000000002,0.238,-0.38,99.98,2.0,,0.0,0.0,
2025-08-15T04:48:13.360Z,3,GR86-028-89,-15.5,0.263,-0.363,99.97,2.0,,0.0,0.0,
2025-08-15T04:48:13.406Z,3,GR86-028-89,-14.5,0.248,-0.331,99.94,2.0,,0.0,0.0,
2025-08-15T04:48:13.448Z,3,GR86-028-89,-14.2,0.243,-0.327,99.94,2.0,5785.0,0.0,0.0,
2025-08-15T04:48:13.491Z,3,GR86-028-89,-14.2,0.251,-0.322,99.95,2.0,,0.0,0.0,98.63
2025-08-15T04:48:13.534Z,3,GR86-028-89,-14.3,0.234,-0.326,99.97,2.0,,0.0,0.0,
2025-08-15T04:48:13.577Z,3,GR86-028-89,-14.3,0.256,-0.322,99.97,2.0,,0.0,0.0,
2025-08-15T04:48:13.620Z,3,GR86-028-89,-14.3,0.247,-0.311,99.98,2.0,,0.0,0.0,
2025-08-15T04:48:13.664Z,3,GR86-028-89,-14.3,0.232,-0.309,100.03,2.0,5899.0,0.0,0.0,
2025-08-15T04:48:13.707Z,3,GR86-028-89,-14.2,0.246,-0.318,100.03,2.0,,0.0,0.0,100.42
2025-08-15T04:48:13.750Z,3,GR86-028-89,-14.2,0.239,-0.318,100.03,2.0,,0.0,0.0,
2025-08-15T04:48:13.794Z,3,GR86-028-89,-14.1,0.249,-0.302,100.01,2.0,,0.0,0.0,
2025-08-15T04:48:13.836Z,3,GR86-028-89,-13.8,0.246,-0.288,100.02,2.0,,0.0,0.0,
2025-08-15T04:48:13.879Z,3,GR86-028-89,-13.2,0.237,-0.296,100.01,2.0,5995.0,0.0,0.0,
2025-08-15T04:48:13.926Z,3,GR86-028-89,-12.2,0.235,-0.284,100.02,2.0,,0.0,0.0,102.28
2025-08-15T04:48:13.969Z,3,GR86-028-89,-11.7,0.239,-0.268,100.0,2.0,,0.0,0.0,
2025-08-15T04:48:14.014Z,3,GR86-028-89,-11.3,0.238,-0.273,100.02,2.0,,0.0,0.0,
2025-08-15T04:48:14.056Z,3,GR86-028-89,-11.0,0.251,-0.263,100.03,2.0,,0.0,0.0,
2025-08-15T04:48:14.099Z,3,GR86-028-89,-10.7,0.237,-0.26,100.01,2.0,6104.0,0.0,0.0,
2025-08-15T04:48:14.144Z,3,GR86-028-89,-10.4,0.244,-0.264,100.08,2.0,,0.0,0.0,104.03
2025-08-15T04:48:14.187Z,3,GR86-028-89,-10.1,0.241,-0.26,100.05,2.0,,0.0,0.0,
2025-08-15T04:48:14.231Z,3,GR86-028-89,-9.1,0.245,-0.263,100.04,2.0,,0.0,0.0,
2025-08-15T04:48:14.275Z,3,GR86-028-89,-8.4,0.236,-0.272,100.04,2.0,,0.0,0.0,
2025-08-15T04:48:14.317Z,3,GR86-028-89,-8.4,0.235,-0.253,100.03,2.0,6215.0,0.0,0.0,
2025-08-15T04:48:14.360Z,3,GR86-028-89,-8.4,0.248,-0.267,100.01,2.0,,0.0,0.0,105.8
2025-08-15T04:48:14.405Z,3,GR86-028-89,-8.4,0.237,-0.242,99.99,2.0,,0.0,0.0,
2025-08-15T04:48:14.448Z,3,GR86-028-89,-8.3,0.229,-0.228,100.0,2.0,,0.0,0.0,
2025-08-15T04:48:14.491Z,3,GR86-028-89,-7.9,0.232,-0.225,99.95,2.0,,0.0,0.0,
2025-08-15T04:48:14.534Z,3,GR86-028-89,-6.800000000000001,0.226,-0.227,99.98,2.0,6300.0,0.0,0.0,
2025-08-15T04:48:14.577Z,3,GR86-028-89,-5.2,0.235,-0.217,99.96,2.0,,0.0,0.0,107.66
2025-08-15T04:48:14.620Z,3,GR86-028-89,-4.1000000000000005,0.251,-0.229,99.99,2.0,,0.0,0.0,
2025-08-15T04:48:14.664Z,3,GR86-028-89,-3.9,0.252,-0.208,99.97,2.0,,0.0,0.0,
2025-08-15T04:48:14.707Z,3,GR86-028-89,-3.9,0.248,-0.175,100.04,2.0,,0.0,0.0,
2025-08-15T04:48:14.751Z,3,GR86-028-89,-3.9,0.239,-0.175,99.97,2.0,6414.0,0.0,0.0,
2025-08-15T04:48:14.794Z,3,GR86-028-89,-3.4000000000000004,0.22,-0.16,100.02,2.0,,0.0,0.0,109.38
2025-08-15T04:48:14.836Z,3,GR86-028-89,-2.4000000000000004,0.24,-0.14,99.95,2.0,,0.0,0.0,
2025-08-15T04:48:14.879Z,3,GR86-028-89,-1.3,0.255,-0.136,99.99,2.0,,0.0,0.0,
2025-08-15T04:48:14.926Z,3,GR86-028-89,0.1,0.26,-0.129,100.02,2.0,,0.0,0.0,
2025-08-15T04:48:14.968Z,3,GR86-028-89,0.7000000000000001,0.187,-0.128,99.98,2.0,6507.0,0.0,0.0,
2025-08-15T04:48:15.011Z,3,GR86-028-89,1.0,-0.095,-0.088,100.0,3.0,,0.0,0.0,113.02
2025-08-15T04:48:15.054Z,3,GR86-028-89,1.7000000000000002,0.125,-0.093,100.01,3.0,,0.0,0.0,
2025-08-15T04:48:15.097Z,3,GR86-028-89,2.5,0.544,-0.133,99.95,3.0,,0.0,0.0,
2025-08-15T04:48:15.140Z,3,GR86-028-89,2.5,0.431,-0.1,99.97,3.0,,0.0,0.0,
2025-08-15T04:48:15.227Z,3,GR86-028-89,2.2,0.111,-0.046,99.97,3.0,6329.0,0.0,0.0,114.63
2025-08-15T04:48:15.271Z,3,GR86-028-89,3.0,0.216,0.024,100.01,3.0,,0.0,0.0,
2025-08-15T04:48:15.314Z,3,GR86-028-89,4.0,0.267,-0.029,99.98,3.0,,0.0,0.0,
2025-08-15T04:48:15.357Z,3,GR86-028-89,4.800000000000001,0.215,-0.011,99.98,3.0,,0.0,0.0,
2025-08-15T04:48:15.400Z,3,GR86-028-89,4.9,0.203,0.04,99.98,3.0,5283.0,0.0,0.0,
2025-08-15T04:48:15.444Z,3,GR86-028-89,4.9,0.208,0.017,100.02,3.0,,0.0,0.0,116.33
2025-08-15T04:48:15.487Z,3,GR86-028-89,4.9,0.205,0.05,100.03,3.0,,0.0,0.0,
2025-08-15T04:48:15.531Z,3,GR86-028-89,5.2,0.208,0.058,100.04,3.0,,0.0,0.0,
2025-08-15T04:48:15.575Z,3,GR86-028-89,5.4,0.226,0.046,100.03,3.0,,0.0,0.0,
2025-08-15T04:48:15.617Z,3,GR86-028-89,5.4,0.2,0.065,100.04,3.0,5561.0,0.0,0.0,
2025-08-15T04:48:15.660Z,3,GR86-028-89,5.0,0.191,0.076,100.04,3.0,,0.0,0.0,117.8
2025-08-15T04:48:15.705Z,3,GR86-028-89,4.2,0.197,0.073,100.04,3.0,,0.0,0.0,
2025-08-15T04:48:15.747Z,3,GR86-028-89,4.3,0.218,0.069,100.04,3.0,,0.0,0.0,
2025-08-15T04:48:15.790Z,3,GR86-028-89,4.4,0.194,0.062,100.03,3.0,,0.0,0.0,
2025-08-15T04:48:15.834Z,3,GR86-028-89,4.3,0.2,0.07,100.05,3.0,5638.0,0.0,0.0,
2025-08-15T04:48:15.876Z,3,GR86-028-89,3.6,0.215,0.068,99.99,3.0,,0.0,0.0,119.3
2025-08-15T04:48:15.919Z,3,GR86-028-89,2.4000000000000004,0.187,0.049,100.01,3.0,,0.0,0.0,
2025-08-15T04:48:15.964Z,3,GR86-028-89,0.6000000000000001,0.186,0.032,99.96,3.0,,0.0,0.0,
2025-08-15T04:48:16.007Z,3,GR86-028-89,-0.6000000000000001,0.209,0.022,99.96,3.0,,0.0,0.0,
2025-08-15T04:48:16.050Z,3,GR86-028-89,-1.1,0.229,0.009,99.96,3.0,5710.0,0.0,0.0,
2025-08-15T04:48:16.094Z,3,GR86-028-89,-1.4,0.191,-0.003,99.97,3.0,,0.0,0.0,120.76
2025-08-15T04:48:16.137Z,3,GR86-028-89,-1.4,0.169,-0.009,99.95,3.0,,0.0,0.0,
2025-08-15T04:48:16.179Z,3,GR86-028-89,-1.3,0.212,-0.036,99.96,3.0,,0.0,0.0,
2025-08-15T04:48:16.225Z,3,GR86-028-89,-2.0,0.223,-0.052,99.99,3.0,,0.0,0.0,
2025-08-15T04:48:16.268Z,3,GR86-028-89,-3.0,0.202,-0.069,99.99,3.0,5778.0,0.0,0.0,
2025-08-15T04:48:16.311Z,3,GR86-028-89,-3.9,0.175,-0.069,100.0,3.0,,0.0,0.0,122.14
2025-08-15T04:48:16.354Z,3,GR86-028-89,-4.4,0.214,-0.1,99.98,3.0,,0.0,0.0,
2025-08-15T04:48:16.397Z,3,GR86-028-89,-4.5,0.208,-0.1,99.97,3.0,,0.0,0.0,
2025-08-15T04:48:16.440Z,3,GR86-028-89,-4.0,0.178,-0.118,99.98,3.0,,0.0,0.0,
2025-08-15T04:48:16.484Z,3,GR86-028-89,-2.6,0.173,-0.127,100.02,3.0,5835.0,0.0,0.0,
2025-08-15T04:48:16.527Z,3,GR86-028-89,-2.3000000000000003,0.198,-0.146,100.02,3.0,,0.0,0.0,123.57
2025-08-15T04:48:16.571Z,3,GR86-028-89,-2.3000000000000003,0.224,-0.141,100.03,3.0,,0.0,0.0,
2025-08-15T04:48:16.614Z,3,GR86-028-89,-2.3000000000000003,0.195,-0.137,100.03,3.0,,0.0,0.0,
2025-08-15T04:48:16.657Z,3,GR86-028-89,-2.2,0.168,-0.143,100.01,3.0,,0.0,0.0,
2025-08-15T04:48:16.700Z,3,GR86-028-89,-2.2,0.207,-0.14,100.01,3.0,5895.0,0.0,0.0,
2025-08-15T04:48:16.744Z,3,GR86-028-89,-2.1,0.208,-0.139,100.04,3.0,,0.0,0.0,124.99
2025-08-15T04:48:16.787Z,3,GR86-028-89,-1.6,0.211,-0.139,100.01,3.0,,0.0,0.0,
2025-08-15T04:48:16.831Z,3,GR86-028-89,-1.2000000000000002,0.194,-0.13,100.01,3.0,,0.0,0.0,
2025-08-15T04:48:16.874Z,3,GR86-028-89,-1.0,0.19,-0.136,100.01,3.0,,0.0,0.0,
2025-08-15T04:48:16.917Z,3,GR86-028-89,-1.1,0.202,-0.129,100.01,3.0,5972.0,0.0,0.0,
2025-08-15T04:48:16.960Z,3,GR86-028-89,-1.0,0.191,-0.112,99.97,3.0,,0.0,0.0,126.36
2025-08-15T04:48:17.006Z,3,GR86-028-89,-0.5,0.19,-0.117,99.96,3.0,,0.0,0.0,
2025-08-15T04:48:17.048Z,3,GR86-028-89,-0.3,0.188,-0.103,99.96,3.0,,0.0,0.0,
2025-08-15T04:48:17.091Z,3,GR86-028-89,-0.3,0.203,-0.102,99.96,3.0,,0.0,0.0,
2025-08-15T04:48:17.134Z,3,GR86-028-89,0.1,0.204,-0.083,99.97,3.0,6031.0,0.0,0.0,
2025-08-15T04:48:17.177Z,3,GR86-028-89,0.3,0.181,-0.08,99.98,3.0,,0.0,0.0,127.78
2025-08-15T04:48:17.220Z,3,GR86-028-89,0.5,0.189,-0.093,99.99,3.0,,0.0,0.0,
2025-08-15T04:48:17.264Z,3,GR86-028-89,0.7000000000000001,0.188,-0.074,99.97,3.0,,0.0,0.0,
2025-08-15T04:48:17.307Z,3,GR86-028-89,1.0,0.201,-0.077,99.97,3.0,,0.0,0.0,
2025-08-15T04:48:17.351Z,3,GR86-028-89,1.2000000000000002,0.198,-0.067,99.98,3.0,6094.0,0.0,0.0,
2025-08-15T04:48:17.394Z,3,GR86-028-89,1.6,0.185,-0.055,100.01,3.0,,0.0,0.0,129.2
2025-08-15T04:48:17.436Z,3,GR86-028-89,2.0,0.187,-0.052,100.02,3.0,,0.0,0.0,
2025-08-15T04:48:17.479Z,3,GR86-028-89,2.3000000000000003,0.199,-0.045,100.01,3.0,,0.0,0.0,
2025-08-15T04:48:17.525Z,3,GR86-028-89,2.6,0.203,-0.038,99.99,3.0,,0.0,0.0,
2025-08-15T04:48:17.568Z,3,GR86-028-89,2.5,0.204,-0.027,99.99,3.0,6155.0,0.0,0.0,
2025-08-15T04:48:17.611Z,3,GR86-028-89,2.6,0.18,-0.026,100.04,3.0,,0.0,0.0,131.9
2025-08-15T04:48:17.654Z,3,GR86-028-89,2.5,0.177,-0.032,96.97,3.0,,3.615,3.905,
2025-08-15T04:48:17.697Z,3,GR86-028-89,2.5,0.16,-0.019,41.6,3.0,,8.88,9.035,
2025-08-15T04:48:17.740Z,3,GR86-028-89,2.5,0.038,0.001,31.89,3.0,,15.335,15.335,
2025-08-15T04:48:17.785Z,3,GR86-028-89,2.5,-0.201,0.007,23.49,3.0,6216.0,23.62,23.485,
2025-08-15T04:48:17.827Z,3,GR86-028-89,2.5,-0.345,0.006,19.93,3.0,,27.53,27.345,132.75
2025-08-15T04:48:17.871Z,3,GR86-028-89,2.5,-0.469,-0.008,16.48,3.0,,30.245,30.155,
2025-08-15T04:48:17.914Z,3,GR86-028-89,2.5,-0.55,0.007,11.51,3.0,,31.71,31.8,
2025-08-15T04:48:17.957Z,3,GR86-028-89,2.4000000000000004,-0.599,0.01,7.52,3.0,,32.445,32.475,
2025-08-15T04:48:18.000Z,3,GR86-028-89,2.3000000000000003,-0.657,-0.008,7.0200000000000005,3.0,6197.0,32.9,33.025,
2025-08-15T04:48:18.044Z,3,GR86-028-89,2.2,-0.725,0.005,6.92,3.0,,33.375,33.495,130.05
2025-08-15T04:48:18.087Z,3,GR86-028-89,2.2,-0.756,-0.003,6.890000000000001,3.0,,33.19,33.525,
2025-08-15T04:48:18.131Z,3,GR86-028-89,2.2,-0.744,0.009,6.890000000000001,3.0,,33.13,33.525,
2025-08-15T04:48:18.175Z,3,GR86-028-89,2.2,-0.748,-0.007,6.890000000000001,3.0,,33.055,33.315,
2025-08-15T04:48:18.217Z,3,GR86-028-89,2.3000000000000003,-0.752,-0.007,7.0200000000000005,3.0,5619.0,32.75,33.19,
2025-08-15T04:48:18.260Z,3,GR86-028-89,2.2,-0.736,0.012,7.11,3.0,,32.410000000000004,32.84,126.28
2025-08-15T04:48:18.305Z,3,GR86-028-89,2.5,-0.787,0.021,7.35,3.0,,31.055,32.105000000000004,
2025-08-15T04:48:18.348Z,3,GR86-028-89,2.5,-0.723,0.023,7.4,3.0,,29.865,30.93,
2025-08-15T04:48:18.391Z,3,GR86-028-89,2.5,-0.687,0.008,7.41,3.0,,28.78,29.71,
2025-08-15T04:48:18.434Z,3,GR86-028-89,2.6,-0.66,0.029,7.73,3.0,5438.0,27.285,28.37,
2025-08-15T04:48:18.477Z,3,GR86-028-89,2.6,-0.646,0.014,8.15,3.0,,25.15,26.325,120.58
2025-08-15T04:48:18.520Z,3,GR86-028-89,2.6,-0.607,0.017,8.14,3.0,,23.18,23.99,
2025-08-15T04:48:18.564Z,3,GR86-028-89,2.5,-0.578,0.025,7.95,3.0,,21.9,22.675,
2025-08-15T04:48:18.607Z,3,GR86-028-89,2.5,-0.555,0.042,7.52,3.0,,21.745,22.34,
2025-08-15T04:48:18.650Z,3,GR86-028-89,2.5,-0.548,0.026,6.57,3.0,5255.0,21.9,22.585,
2025-08-15T04:48:18.694Z,3,GR86-028-89,2.5,-0.556,0.042,3.69,3.0,,22.22,22.705,116.25
2025-08-15T04:48:18.736Z,3,GR86-028-89,2.4000000000000004,-0.543,0.045,3.47,3.0,,22.28,22.965,
2025-08-15T04:48:18.779Z,3,GR86-028-89,2.1,-0.591,0.042,3.22,3.0,,22.495,23.06,
2025-08-15T04:48:18.825Z,3,GR86-028-89,1.7000000000000002,-0.623,0.043,4.16,3.0,,21.685,22.34,
2025-08-15T04:48:18.867Z,3,GR86-028-89,1.3,-0.582,0.042,11.87,3.0,5042.0,17.395,18.175,
2025-08-15T04:48:18.910Z,3,GR86-028-89,0.7000000000000001,-0.436,0.015,12.83,3.0,,9.69,10.345,112.71
2025-08-15T04:48:18.954Z,3,GR86-028-89,0.2,-0.264,0.017,12.44,3.0,,2.855,3.22,
2025-08-15T04:48:18.996Z,3,GR86-028-89,0.2,-0.143,0.001,13.89,3.0,,0.0,0.0,
2025-08-15T04:48:19.039Z,3,GR86-028-89,0.2,-0.097,-0.013,17.76,3.0,,0.0,0.0,
2025-08-15T04:48:19.084Z,3,GR86-028-89,0.2,-0.068,-0.009,21.56,3.0,4968.0,0.0,0.0,
2025-08-15T04:48:19.127Z,3,GR86-028-89,0.2,-0.07,-0.021,21.66,3.0,,0.0,0.0,108.85
2025-08-15T04:48:19.171Z,3,GR86-028-89,0.1,-0.087,-0.001,21.74,3.0,,0.0,0.0,
2025-08-15T04:48:19.214Z,3,GR86-028-89,-0.2,0.129,-0.028,21.84,3.0,,0.0,0.0,
2025-08-15T04:48:19.257Z,3,GR86-028-89,-0.3,0.153,-0.028,18.77,3.0,,0.0,0.0,
2025-08-15T04:48:19.300Z,3,GR86-028-89,-0.3,0.054,-0.005,16.67,3.0,5147.0,0.0,0.0,
2025-08-15T04:48:19.344Z,3,GR86-028-89,-0.2,-0.034,-0.014,19.42,3.0,,3.465,3.465,108.29
2025-08-15T04:48:19.387Z,3,GR86-028-89,0.0,-0.058,-0.035,19.44,3.0,,3.935,4.18,
2025-08-15T04:48:19.431Z,3,GR86-028-89,0.1,-0.038,-0.02,19.41,3.0,,4.09,4.24,
2025-08-15T04:48:19.475Z,3,GR86-028-89,0.1,-0.042,-0.028,19.35,3.0,,5.05,5.25,
2025-08-15T04:48:19.560Z,3,GR86-028-89,0.3,-0.088,-0.021,19.08,3.0,5031.0,8.09,8.33,108.17
2025-08-15T04:48:19.606Z,3,GR86-028-89,0.8,-0.22,-0.016,15.75,3.0,,13.52,13.64,
2025-08-15T04:48:19.648Z,3,GR86-028-89,1.2000000000000002,-0.237,-0.031,6.98,3.0,,13.795,13.995,
2025-08-15T04:48:19.691Z,3,GR86-028-89,1.7000000000000002,-0.244,-0.019,5.23,3.0,,13.855,14.175,
2025-08-15T04:48:19.734Z,3,GR86-028-89,2.4000000000000004,-0.289,-0.028,4.0,3.0,4988.0,14.205,14.575,
2025-08-15T04:48:19.777Z,3,GR86-028-89,2.4000000000000004,-0.357,-0.01,3.66,3.0,,14.545,14.94,107.6
2025-08-15T04:48:19.821Z,3,GR86-028-89,2.4000000000000004,-0.374,0.005,3.41,3.0,,14.94,15.275,
2025-08-15T04:48:19.907Z,3,GR86-028-89,2.4000000000000004,-0.473,-0.003,3.58,3.0,,15.0,15.395,
2025-08-15T04:48:19.950Z,3,GR86-028-89,2.4000000000000004,-0.454,0.014,3.82,3.0,4766.0,15.595,15.87,
2025-08-15T04:48:19.994Z,3,GR86-028-89,2.4000000000000004,-0.392,0.017,3.39,3.0,,15.625,16.055,105.92
2025-08-15T04:48:20.037Z,3,GR86-028-89,2.4000000000000004,-0.408,0.032,3.53,3.0,,15.365,15.81,
2025-08-15T04:48:20.079Z,3,GR86-028-89,2.4000000000000004,-0.441,0.021,4.34,3.0,,15.275,15.72,
2025-08-15T04:48:20.168Z,3,GR86-028-89,1.8,-0.429,0.029,7.81,3.0,4730.0,14.51,15.03,
2025-08-15T04:48:20.211Z,3,GR86-028-89,1.5,-0.42,0.013,18.35,3.0,,14.205,14.85,100.55
2025-08-15T04:48:20.254Z,3,GR86-028-89,1.3,-0.402,0.023,21.2,3.0,,13.64,14.205,
2025-08-15T04:48:20.297Z,3,GR86-028-89,1.2000000000000002,-0.355,0.004,25.28,3.0,,10.47,11.035,
2025-08-15T04:48:20.340Z,3,GR86-028-89,1.0,-0.247,0.022,26.74,3.0,,4.9,5.34,
2025-08-15T04:48:20.385Z,3,GR86-028-89,0.0,-0.065,-0.005,26.96,3.0,4560.0,0.0,0.0,
2025-08-15T04:48:20.427Z,3,GR86-028-89,-1.0,0.102,-0.013,27.08,3.0,,0.0,0.0,98.2
2025-08-15T04:48:20.470Z,3,GR86-028-89,-1.8,0.351,0.007,27.18,3.0,,0.0,0.0,
2025-08-15T04:48:20.514Z,3,GR86-028-89,-2.6,0.17,-0.042,29.15,3.0,,0.0,0.0,
2025-08-15T04:48:20.600Z,3,GR86-028-89,-2.9000000000000004,0.023,-0.021,33.18,3.0,4618.0,0.0,0.0,
2025-08-15T04:48:20.644Z,3,GR86-028-89,-4.5,0.192,-0.056,35.86,3.0,,0.0,0.0,98.21
2025-08-15T04:48:20.687Z,3,GR86-028-89,-4.7,0.234,-0.059,41.14,3.0,,0.0,0.0,
2025-08-15T04:48:20.731Z,3,GR86-028-89,-4.3,0.149,-0.084,51.79,3.0,,0.0,0.0,
2025-08-15T04:48:20.774Z,3,GR86-028-89,-4.1000000000000005,0.133,-0.085,61.45,3.0,,0.0,0.0,
2025-08-15T04:48:20.817Z,3,GR86-028-89,-4.1000000000000005,0.161,-0.099,86.08,3.0,4659.0,0.0,0.0,
2025-08-15T04:48:20.860Z,3,GR86-028-89,-4.1000000000000005,0.237,-0.104,100.6,3.0,,0.0,0.0,99.04
2025-08-15T04:48:20.905Z,3,GR86-028-89,-4.1000000000000005,0.241,-0.107,100.6,3.0,,0.0,0.0,
2025-08-15T04:48:20.948Z,3,GR86-028-89,-4.1000000000000005,0.198,-0.116,100.62,3.0,,0.0,0.0,
2025-08-15T04:48:20.991Z,3,GR86-028-89,-4.1000000000000005,0.219,-0.116,100.61,3.0,,0.0,0.0,
2025-08-15T04:48:21.034Z,3,GR86-028-89,-3.9,0.206,-0.117,100.58,3.0,4746.0,0.0,0.0,
2025-08-15T04:48:21.077Z,3,GR86-028-89,-3.3000000000000003,0.22,-0.125,100.61,3.0,,0.0,0.0,100.24
2025-08-15T04:48:21.120Z,3,GR86-028-89,-3.2,0.214,-0.134,100.58,3.0,,0.0,0.0,
2025-08-15T04:48:21.164Z,3,GR86-028-89,-3.2,0.211,-0.126,100.56,3.0,,0.0,0.0,
2025-08-15T04:48:21.207Z,3,GR86-028-89,-2.9000000000000004,0.214,-0.124,100.49,3.0,,0.0,0.0,
2025-08-15T04:48:21.250Z,3,GR86-028-89,-2.7,0.212,-0.116,100.43,3.0,4818.0,0.0,0.0,
2025-08-15T04:48:21.294Z,3,GR86-028-89,-2.2,0.192,-0.116,100.35,3.0,,0.0,0.0,101.73
2025-08-15T04:48:21.336Z,3,GR86-028-89,-1.5,0.219,-0.114,100.31,3.0,,0.0,0.0,
2025-08-15T04:48:21.379Z,3,GR86-028-89,-0.9,0.191,-0.107,100.24,3.0,,0.0,0.0,
2025-08-15T04:48:21.425Z,3,GR86-028-89,0.5,0.207,-0.093,100.09,3.0,,0.0,0.0,
2025-08-15T04:48:21.468Z,3,GR86-028-89,1.0,0.224,-0.095,100.02,3.0,4897.0,0.0,0.0,
2025-08-15T04:48:21.511Z,3,GR86-028-89,1.2000000000000002,0.188,-0.085,99.92,3.0,,0.0,0.0,103.22
2025-08-15T04:48:21.554Z,3,GR86-028-89,1.3,0.221,-0.079,99.89,3.0,,0.0,0.0,
2025-08-15T04:48:21.597Z,3,GR86-028-89,1.3,0.205,-0.06,99.88,3.0,,0.0,0.0,
2025-08-15T04:48:21.640Z,3,GR86-028-89,1.0,0.21,-0.067,99.88,3.0,,0.0,0.0,
2025-08-15T04:48:21.684Z,3,GR86-028-89,0.7000000000000001,0.22,-0.048,99.88,3.0,4961.0,0.0,0.0,
2025-08-15T04:48:21.727Z,3,GR86-028-89,0.5,0.208,-0.046,99.89,3.0,,0.0,0.0,104.74
2025-08-15T04:48:21.771Z,3,GR86-028-89,0.5,0.211,-0.046,99.87,3.0,,0.0,0.0,
2025-08-15T04:48:21.814Z,3,GR86-028-89,0.5,0.22,-0.043,99.88,3.0,,0.0,0.0,
2025-08-15T04:48:21.857Z,3,GR86-028-89,0.5,0.183,-0.033,99.9,3.0,,0.0,0.0,
2025-08-15T04:48:21.900Z,3,GR86-028-89,0.5,0.223,-0.036,99.92,3.0,5025.0,0.0,0.0,
2025-08-15T04:48:21.944Z,3,GR86-028-89,0.5,0.219,-0.04,99.92,3.0,,0.0,0.0,106.27
2025-08-15T04:48:21.987Z,3,GR86-028-89,0.3,0.185,-0.035,99.95,3.0,,0.0,0.0,
2025-08-15T04:48:22.031Z,3,GR86-028-89,0.1,0.21,-0.035,99.94,3.0,,0.0,0.0,
2025-08-15T04:48:22.075Z,3,GR86-028-89,0.0,0.214,-0.03,99.95,3.0,,0.0,0.0,
2025-08-15T04:48:22.117Z,3,GR86-028-89,-0.3,0.192,-0.034,99.95,3.0,5098.0,0.0,0.0,
2025-08-15T04:48:22.160Z,3,GR86-028-89,-0.8,0.21,-0.026,99.95,3.0,,0.0,0.0,107.79
2025-08-15T04:48:22.205Z,3,GR86-028-89,-1.5,0.215,-0.042,99.97,3.0,,0.0,0.0,
2025-08-15T04:48:22.248Z,3,GR86-028-89,-1.7000000000000002,0.196,-0.033,99.99,3.0,,0.0,0.0,
2025-08-15T04:48:22.291Z,3,GR86-028-89,-1.9,0.206,-0.044,99.98,3.0,,0.0,0.0,
2025-08-15T04:48:22.334Z,3,GR86-028-89,-2.1,0.201,-0.062,100.03,3.0,5173.0,0.0,0.0,
2025-08-15T04:48:22.377Z,3,GR86-028-89,-2.2,0.173,-0.058,100.04,3.0,,0.0,0.0,109.26
2025-08-15T04:48:22.420Z,3,GR86-028-89,-2.2,0.197,-0.087,100.08,3.0,,0.0,0.0,
2025-08-15T04:48:22.464Z,3,GR86-028-89,-2.2,0.219,-0.074,100.08,3.0,,0.0,0.0,
2025-08-15T04:48:22.507Z,3,GR86-028-89,-2.2,0.191,-0.07,100.11,3.0,,0.0,0.0,
2025-08-15T04:48:22.550Z,3,GR86-028-89,-2.3000000000000003,0.191,-0.072,100.11,3.0,5234.0,0.0,0.0,
2025-08-15T04:48:22.594Z,3,GR86-028-89,-2.3000000000000003,0.2,-0.071,100.09,3.0,,0.0,0.0,110.76
2025-08-15T04:48:22.636Z,3,GR86-028-89,-2.3000000000000003,0.192,-0.08,100.08,3.0,,0.0,0.0,
2025-08-15T04:48:22.679Z,3,GR86-028-89,-2.3000000000000003,0.218,-0.084,100.07,3.0,,0.0,0.0,
2025-08-15T04:48:22.767Z,3,GR86-028-89,-2.3000000000000003,0.204,-0.087,100.04,3.0,5311.0,0.0,0.0,
2025-08-15T04:48:22.810Z,3,GR86-028-89,-2.3000000000000003,0.188,-0.096,100.0,3.0,,0.0,0.0,113.81
2025-08-15T04:48:22.854Z,3,GR86-028-89,-2.2,0.195,-0.088,99.96,3.0,,0.0,0.0,
2025-08-15T04:48:22.897Z,3,GR86-028-89,-2.1,0.195,-0.091,99.95,3.0,,0.0,0.0,
2025-08-15T04:48:22.940Z,3,GR86-028-89,-2.0,0.201,-0.092,99.94,3.0,,0.0,0.0,
2025-08-15T04:48:22.984Z,3,GR86-028-89,-1.6,0.188,-0.09,99.93,3.0,5374.0,0.0,0.0,
2025-08-15T04:48:23.027Z,3,GR86-028-89,-1.3,0.192,-0.084,99.96,3.0,,0.0,0.0,115.34
2025-08-15T04:48:23.071Z,3,GR86-028-89,-1.0,0.187,-0.075,99.95,3.0,,0.0,0.0,
2025-08-15T04:48:23.114Z,3,GR86-028-89,-0.8,0.201,-0.092,99.95,3.0,,0.0,0.0,
2025-08-15T04:48:23.157Z,3,GR86-028-89,-0.8,0.207,-0.073,99.96,3.0,,0.0,0.0,
2025-08-15T04:48:23.199Z,3,GR86-028-89,-0.8,0.193,-0.08,99.96,3.0,5448.0,0.0,0.0,
2025-08-15T04:48:23.244Z,3,GR86-028-89,-0.8,0.184,-0.082,99.96,3.0,,0.0,0.0,116.79
2025-08-15T04:48:23.287Z,3,GR86-028-89,-0.7000000000000001,0.204,-0.092,99.98,3.0,,0.0,0.0,
2025-08-15T04:48:23.331Z,3,GR86-028-89,0.1,0.213,-0.078,99.98,3.0,,0.0,0.0,
2025-08-15T04:48:23.375Z,3,GR86-028-89,1.0,0.185,-0.078,99.98,3.0,,0.0,0.0,
2025-08-15T04:48:23.417Z,3,GR86-028-89,1.6,0.191,-0.068,99.99,3.0,5576.0,0.0,0.0,
2025-08-15T04:48:23.460Z,3,GR86-028-89,1.7000000000000002,0.195,-0.06,100.01,3.0,,0.0,0.0,118.37
2025-08-15T04:48:23.506Z,3,GR86-028-89,0.7000000000000001,0.2,-0.047,100.08,3.0,,0.0,0.0,
2025-08-15T04:48:23.548Z,3,GR86-028-89,-0.2,0.192,-0.056,100.04,3.0,,0.0,0.0,
2025-08-15T04:48:23.591Z,3,GR86-028-89,-0.9,0.198,-0.054,100.08,3.0,,0.0,0.0,
2025-08-15T04:48:23.634Z,3,GR86-028-89,-1.3,0.201,-0.049,100.06,3.0,5658.0,0.0,0.0,
2025-08-15T04:48:23.677Z,3,GR86-028-89,-1.4,0.189,-0.06,100.04,3.0,,0.0,0.0,119.87
2025-08-15T04:48:23.721Z,3,GR86-028-89,-1.5,0.195,-0.05,100.05,3.0,,0.0,0.0,
2025-08-15T04:48:23.765Z,3,GR86-028-89,-2.4000000000000004,0.196,-0.061,100.04,3.0,,0.0,0.0,
2025-08-15T04:48:23.807Z,3,GR86-028-89,-3.0,0.206,-0.061,100.01,3.0,,0.0,0.0,
2025-08-15T04:48:23.850Z,3,GR86-028-89,-3.5,0.191,-0.071,99.98,3.0,5736.0,0.0,0.0,
2025-08-15T04:48:23.894Z,3,GR86-028-89,-3.8,0.185,-0.066,99.98,3.0,,0.0,0.0,121.32
2025-08-15T04:48:23.937Z,3,GR86-028-89,-4.0,0.191,-0.086,99.99,3.0,,0.0,0.0,
2025-08-15T04:48:23.979Z,3,GR86-028-89,-4.4,0.192,-0.091,99.97,3.0,,0.0,0.0,
2025-08-15T04:48:24.025Z,3,GR86-028-89,-5.0,0.201,-0.136,99.93,3.0,,0.0,0.0,
2025-08-15T04:48:24.068Z,3,GR86-028-89,-5.4,0.187,-0.136,99.94,3.0,5808.0,0.0,0.0,
2025-08-15T04:48:24.111Z,3,GR86-028-89,-5.800000000000001,0.192,-0.154,99.96,3.0,,0.0,0.0,122.84
2025-08-15T04:48:24.155Z,3,GR86-028-89,-5.9,0.184,-0.176,99.97,3.0,,0.0,0.0,
2025-08-15T04:48:24.197Z,3,GR86-028-89,-5.9,0.174,-0.176,99.98,3.0,,0.0,0.0,
2025-08-15T04:48:24.240Z,3,GR86-028-89,-5.800000000000001,0.181,-0.168,99.97,3.0,,0.0,0.0,
2025-08-15T04:48:24.284Z,3,GR86-028-89,-5.7,0.18,-0.178,99.98,3.0,5870.0,0.0,0.0,
2025-08-15T04:48:24.327Z,3,GR86-028-89,-5.7,0.194,-0.192,99.97,3.0,,0.0,0.0,124.41
2025-08-15T04:48:24.371Z,3,GR86-028-89,-5.7,0.182,-0.201,99.98,3.0,,0.0,0.0,
2025-08-15T04:48:24.414Z,3,GR86-028-89,-5.800000000000001,0.18,-0.183,99.97,3.0,,0.0,0.0,
2025-08-15T04:48:24.456Z,3,GR86-028-89,-5.9,0.189,-0.195,99.99,3.0,,0.0,0.0,
2025-08-15T04:48:24.499Z,3,GR86-028-89,-5.9,0.18,-0.193,100.02,3.0,5940.0,0.0,0.0,
2025-08-15T04:48:24.543Z,3,GR86-028-89,-5.7,0.187,-0.207,100.02,3.0,,0.0,0.0,125.91
2025-08-15T04:48:24.587Z,3,GR86-028-89,-5.7,0.18,-0.2,100.04,3.0,,0.0,0.0,
2025-08-15T04:48:24.631Z,3,GR86-028-89,-5.7,0.191,-0.196,100.04,3.0,,0.0,0.0,
2025-08-15T04:48:24.674Z,3,GR86-028-89,-5.800000000000001,0.187,-0.198,100.03,3.0,,0.0,0.0,
2025-08-15T04:48:24.717Z,3,GR86-028-89,-5.9,0.186,-0.191,100.04,3.0,6015.0,0.0,0.0,
2025-08-15T04:48:24.760Z,3,GR86-028-89,-5.9,0.162,-0.178,100.04,3.0,,0.0,0.0,127.3
2025-08-15T04:48:24.806Z,3,GR86-028-89,-5.9,0.165,-0.18,100.02,3.0,,0.0,0.0,
2025-08-15T04:48:24.848Z,3,GR86-028-89,-5.800000000000001,0.181,-0.19,100.02,3.0,,0.0,0.0,
2025-08-15T04:48:24.891Z,3,GR86-028-89,-5.800000000000001,0.197,-0.203,99.98,3.0,,0.0,0.0,
2025-08-15T04:48:24.935Z,3,GR86-028-89,-5.800000000000001,0.182,-0.202,99.97,3.0,6073.0,0.0,0.0,
2025-08-15T04:48:24.977Z,3,GR86-028-89,-5.800000000000001,0.157,-0.202,99.95,3.0,,0.0,0.0,128.74
2025-08-15T04:48:25.020Z,3,GR86-028-89,-5.6000000000000005,0.184,-0.231,99.95,3.0,,0.0,0.0,
2025-08-15T04:48:25.064Z,3,GR86-028-89,-5.2,0.181,-0.204,99.97,3.0,,0.0,0.0,
2025-08-15T04:48:25.107Z,3,GR86-028-89,-4.7,0.197,-0.2,99.98,3.0,,0.0,0.0,
2025-08-15T04:48:25.151Z,3,GR86-028-89,-4.0,0.168,-0.2,99.97,3.0,6140.0,0.0,0.0,
2025-08-15T04:48:25.194Z,3,GR86-028-89,-3.3000000000000003,0.167,-0.177,99.97,3.0,,0.0,0.0,130.17000000000002
2025-08-15T04:48:25.236Z,3,GR86-028-89,-2.7,0.183,-0.197,99.95,3.0,,0.0,0.0,
2025-08-15T04:48:25.279Z,3,GR86-028-89,-2.1,0.191,-0.18,99.99,3.0,,0.0,0.0,
2025-08-15T04:48:25.325Z,3,GR86-028-89,-0.8,0.2,-0.173,99.99,3.0,,0.0,0.0,
2025-08-15T04:48:25.368Z,3,GR86-028-89,-0.1,0.174,-0.147,99.98,3.0,6208.0,0.0,0.0,
2025-08-15T04:48:25.411Z,3,GR86-028-89,0.6000000000000001,0.162,-0.14,100.02,3.0,,0.0,0.0,132.97
2025-08-15T04:48:25.454Z,3,GR86-028-89,1.0,0.187,-0.115,100.0,3.0,,0.0,0.0,
2025-08-15T04:48:25.497Z,3,GR86-028-89,1.0,0.184,-0.112,99.98,3.0,,0.0,0.0,
2025-08-15T04:48:25.540Z,3,GR86-028-89,1.0,0.172,-0.097,99.99,3.0,,0.0,0.0,
2025-08-15T04:48:25.627Z,3,GR86-028-89,0.6000000000000001,0.184,-0.084,100.0,3.0,6275.0,0.0,0.0,134.43
2025-08-15T04:48:25.671Z,3,GR86-028-89,0.7000000000000001,0.182,-0.062,100.03,3.0,,0.0,0.0,
2025-08-15T04:48:25.714Z,3,GR86-028-89,1.0,0.196,-0.058,99.98,3.0,,0.0,0.0,
2025-08-15T04:48:25.757Z,3,GR86-028-89,1.2000000000000002,0.174,-0.048,100.01,3.0,,0.0,0.0,
2025-08-15T04:48:25.800Z,3,GR86-028-89,1.6,0.159,-0.031,99.98,3.0,6335.0,0.0,0.0,
2025-08-15T04:48:25.844Z,3,GR86-028-89,3.0,0.187,-0.028,100.05,3.0,,0.0,0.0,135.8
2025-08-15T04:48:25.887Z,3,GR86-028-89,4.2,0.151,-0.02,100.03,3.0,,0.0,0.0,
2025-08-15T04:48:25.931Z,3,GR86-028-89,5.4,0.173,-0.022,100.02,3.0,,0.0,0.0,
2025-08-15T04:48:25.975Z,3,GR86-028-89,6.9,0.191,-0.022,100.05,3.0,,0.0,0.0,
2025-08-15T04:48:26.017Z,3,GR86-028-89,8.5,0.178,0.019,100.02,3.0,6459.0,0.0,0.0,
2025-08-15T04:48:26.060Z,3,GR86-028-89,10.5,0.153,0.039,99.96,3.0,,0.0,0.0,137.22
2025-08-15T04:48:26.106Z,3,GR86-028-89,13.4,0.172,0.097,87.13,3.0,,0.0,0.0,
2025-08-15T04:48:26.148Z,3,GR86-028-89,14.1,0.162,0.125,85.48,3.0,,0.0,0.0,
2025-08-15T04:48:26.191Z,3,GR86-028-89,13.5,0.178,0.146,78.16,3.0,,0.0,0.0,
2025-08-15T04:48:26.234Z,3,GR86-028-89,11.3,0.194,0.188,59.55,3.0,6540.0,0.0,0.0,
2025-08-15T04:48:26.277Z,3,GR86-028-89,8.4,0.178,0.216,48.79,3.0,,0.0,0.0,138.55
2025-08-15T04:48:26.320Z,3,GR86-028-89,4.800000000000001,0.152,0.218,45.47,3.0,,0.0,0.0,
2025-08-15T04:48:26.364Z,3,GR86-028-89,0.2,0.157,0.207,40.54,3.0,,0.0,0.0,
2025-08-15T04:48:26.407Z,3,GR86-028-89,-3.0,0.121,0.183,38.23,3.0,,0.0,0.0,
2025-08-15T04:48:26.450Z,3,GR86-028-89,-6.6000000000000005,0.117,0.142,38.08,3.0,6566.0,0.0,0.0,
2025-08-15T04:48:26.494Z,3,GR86-028-89,-10.2,0.121,0.097,38.53,3.0,,0.0,0.0,139.9
2025-08-15T04:48:26.536Z,3,GR86-028-89,-14.2,0.115,0.037,38.69,3.0,,0.0,0.0,
2025-08-15T04:48:26.579Z,3,GR86-028-89,-18.0,0.082,-0.065,38.76,3.0,,0.0,0.0,
2025-08-15T04:48:26.625Z,3,GR86-028-89,-21.700000000000003,0.1,-0.204,38.72,3.0,,0.0,0.0,
2025-08-15T04:48:26.667Z,3,GR86-028-89,-22.200000000000003,0.078,-0.31,38.3,3.0,6599.0,0.0,0.0,
2025-08-15T04:48:26.710Z,3,GR86-028-89,-22.0,0.079,-0.376,37.72,3.0,,0.0,0.0,141.06
2025-08-15T04:48:26.754Z,3,GR86-028-89,-20.9,0.079,-0.447,37.56,3.0,,0.0,0.0,
2025-08-15T04:48:26.797Z,3,GR86-028-89,-19.1,0.084,-0.488,37.5,3.0,,0.0,0.0,
2025-08-15T04:48:26.840Z,3,GR86-028-89,-16.7,0.073,-0.529,37.43,3.0,,0.0,0.0,
2025-08-15T04:48:26.884Z,3,GR86-028-89,-14.7,0.08,-0.537,36.98,3.0,6640.0,0.0,0.0,
2025-08-15T04:48:26.971Z,3,GR86-028-89,-14.7,0.071,-0.515,35.35,3.0,,0.0,0.0,141.91
2025-08-15T04:48:27.014Z,3,GR86-028-89,-14.3,0.075,-0.519,35.160000000000004,3.0,,0.0,0.0,
2025-08-15T04:48:27.099Z,3,GR86-028-89,-13.7,-0.005,-0.526,35.62,3.0,6687.0,0.0,0.0,
2025-08-15T04:48:27.144Z,3,GR86-028-89,-13.0,-0.002,-0.458,33.88,4.0,,0.0,0.0,142.66
2025-08-15T04:48:27.187Z,3,GR86-028-89,-12.1,0.452,-0.5,26.54,4.0,,0.0,0.0,
2025-08-15T04:48:27.231Z,3,GR86-028-89,-11.6,0.169,-0.509,26.96,4.0,,0.0,0.0,
2025-08-15T04:48:27.275Z,3,GR86-028-89,-11.1,-0.082,-0.362,30.29,4.0,,0.0,0.0,
2025-08-15T04:48:27.360Z,3,GR86-028-89,-10.1,0.063,-0.371,30.17,4.0,6005.0,0.0,0.0,143.39
2025-08-15T04:48:27.406Z,3,GR86-028-89,-10.1,0.068,-0.358,29.58,4.0,,0.0,0.0,
2025-08-15T04:48:27.448Z,3,GR86-028-89,-10.6,0.014,-0.341,29.61,4.0,,0.0,0.0,
2025-08-15T04:48:27.491Z,3,GR86-028-89,-10.7,0.036,-0.299,29.61,4.0,,0.0,0.0,
2025-08-15T04:48:27.535Z,3,GR86-028-89,-10.2,0.051,-0.336,29.1,4.0,5689.0,0.0,0.0,
2025-08-15T04:48:27.621Z,3,GR86-028-89,-5.800000000000001,0.033,-0.304,28.75,4.0,,0.0,0.0,144.13
2025-08-15T04:48:27.665Z,3,GR86-028-89,-1.8,0.026,-0.296,29.84,4.0,,0.0,0.0,
2025-08-15T04:48:27.707Z,3,GR86-028-89,0.8,0.036,-0.252,30.25,4.0,,0.0,0.0,
2025-08-15T04:48:27.750Z,3,GR86-028-89,4.0,0.048,-0.209,30.44,4.0,5675.0,0.0,0.0,
2025-08-15T04:48:27.794Z,3,GR86-028-89,7.800000000000001,0.06,-0.198,30.55,4.0,,0.0,0.0,144.78
2025-08-15T04:48:27.837Z,3,GR86-028-89,12.0,0.057,-0.142,30.57,4.0,,0.0,0.0,
2025-08-15T04:48:27.879Z,3,GR86-028-89,16.2,0.043,-0.085,30.55,4.0,,0.0,0.0,
2025-08-15T04:48:27.927Z,3,GR86-028-89,22.0,0.057,0.042,30.34,4.0,,0.0,0.0,
2025-08-15T04:48:27.969Z,3,GR86-028-89,25.0,0.038,0.157,30.09,4.0,5696.0,0.0,0.0,
2025-08-15T04:48:28.013Z,3,GR86-028-89,27.200000000000003,0.039,0.276,29.96,4.0,,0.0,0.0,145.77
2025-08-15T04:48:28.055Z,3,GR86-028-89,28.5,0.051,0.366,29.65,4.0,,0.0,0.0,
2025-08-15T04:48:28.098Z,3,GR86-028-89,29.3,0.057,0.453,29.1,4.0,,0.0,0.0,
2025-08-15T04:48:28.141Z,3,GR86-028-89,29.5,0.055,0.534,28.69,4.0,,0.0,0.0,
2025-08-15T04:48:28.184Z,3,GR86-028-89,29.5,0.044,0.653,28.1,4.0,5714.0,0.0,0.0,
2025-08-15T04:48:28.227Z,3,GR86-028-89,29.5,0.045,0.674,27.37,4.0,,0.0,0.0,146.17000000000002
2025-08-15T04:48:28.271Z,3,GR86-028-89,29.5,0.036,0.6990000000000001,26.55,4.0,,0.0,0.0,
2025-08-15T04:48:28.314Z,3,GR86-028-89,29.6,0.025,0.715,25.84,4.0,,0.0,0.0,
2025-08-15T04:48:28.356Z,3,GR86-028-89,29.6,0.026,0.731,25.52,4.0,,0.0,0.0,
2025-08-15T04:48:28.444Z,3,GR86-028-89,28.3,0.014,0.767,23.55,4.0,5743.0,0.0,0.0,146.51
2025-08-15T04:48:28.487Z,3,GR86-028-89,28.1,0.023,0.78,23.07,4.0,,0.0,0.0,
2025-08-15T04:48:28.531Z,3,GR86-028-89,27.200000000000003,0.019,0.789,22.84,4.0,,0.0,0.0,
2025-08-15T04:48:28.575Z,3,GR86-028-89,25.0,0.016,0.773,22.77,4.0,,0.0,0.0,
2025-08-15T04:48:28.660Z,3,GR86-028-89,18.1,-0.008,0.733,22.29,4.0,5749.0,0.0,0.0,146.65
2025-08-15T04:48:28.706Z,3,GR86-028-89,12.0,0.006,0.679,21.97,4.0,,0.0,0.0,
2025-08-15T04:48:28.748Z,3,GR86-028-89,7.800000000000001,-0.016,0.623,21.84,4.0,,0.0,0.0,
2025-08-15T04:48:28.791Z,3,GR86-028-89,3.7,-0.008,0.522,20.81,4.0,,0.0,0.0,
2025-08-15T04:48:28.834Z,3,GR86-028-89,-0.3,0.015,0.434,19.93,4.0,5736.0,0.0,0.0,
2025-08-15T04:48:28.877Z,3,GR86-028-89,-4.2,0.017,0.338,19.38,4.0,,0.0,0.0,146.77
2025-08-15T04:48:28.920Z,3,GR86-028-89,-8.4,-0.017,0.247,19.28,4.0,,0.0,0.0,
2025-08-15T04:48:28.964Z,3,GR86-028-89,-14.1,-0.009,0.075,19.25,4.0,,0.0,0.0,
2025-08-15T04:48:29.007Z,3,GR86-028-89,-17.1,-0.036,-0.013,19.29,4.0,,0.0,0.0,
2025-08-15T04:48:29.051Z,3,GR86-028-89,-19.9,-0.066,-0.123,19.38,4.0,5711.0,0.0,0.0,
2025-08-15T04:48:29.094Z,3,GR86-028-89,-22.9,-0.055,-0.223,19.54,4.0,,0.0,0.0,146.67000000000002
2025-08-15T04:48:29.136Z,3,GR86-028-89,-26.0,-0.044,-0.341,19.76,4.0,,0.0,0.0,
2025-08-15T04:48:29.179Z,3,GR86-028-89,-29.0,-0.024,-0.423,19.82,4.0,,0.0,0.0,
2025-08-15T04:48:29.225Z,3,GR86-028-89,-32.4,-0.043,-0.544,19.9,4.0,,0.0,0.0,
2025-08-15T04:48:29.268Z,3,GR86-028-89,-33.7,-0.037,-0.621,19.9,4.0,5713.0,0.0,0.0,
2025-08-15T04:48:29.311Z,3,GR86-028-89,-34.1,-0.06,-0.665,19.92,4.0,,0.0,0.0,146.58
2025-08-15T04:48:29.354Z,3,GR86-028-89,-33.9,-0.068,-0.706,19.98,4.0,,0.0,0.0,
2025-08-15T04:48:29.397Z,3,GR86-028-89,-32.6,-0.071,-0.763,20.02,4.0,,0.0,0.0,
2025-08-15T04:48:29.440Z,3,GR86-028-89,-31.200000000000003,-0.058,-0.802,20.03,4.0,,0.0,0.0,
2025-08-15T04:48:29.484Z,3,GR86-028-89,-29.5,-0.079,-0.8130000000000001,20.18,4.0,5719.0,0.0,0.0,
2025-08-15T04:48:29.527Z,3,GR86-028-89,-28.5,-0.05,-0.808,20.2,4.0,,0.0,0.0,146.41
2025-08-15T04:48:29.571Z,3,GR86-028-89,-27.1,-0.042,-0.846,20.25,4.0,,0.0,0.0,
2025-08-15T04:48:29.614Z,3,GR86-028-89,-26.200000000000003,-0.046,-0.8170000000000001,20.28,4.0,,0.0,0.0,
2025-08-15T04:48:29.657Z,3,GR86-028-89,-26.0,-0.078,-0.805,20.41,4.0,,0.0,0.0,
2025-08-15T04:48:29.700Z,3,GR86-028-89,-25.5,-0.071,-0.807,20.53,4.0,5715.0,0.0,0.0,
2025-08-15T04:48:29.744Z,3,GR86-028-89,-21.9,-0.069,-0.8200000000000001,20.9,4.0,,0.0,0.0,146.16
2025-08-15T04:48:29.787Z,3,GR86-028-89,-19.0,-0.068,-0.751,21.14,4.0,,0.0,0.0,
2025-08-15T04:48:29.831Z,3,GR86-028-89,-16.5,-0.038,-0.705,21.33,4.0,,0.0,0.0,
2025-08-15T04:48:29.875Z,3,GR86-028-89,-14.2,-0.025,-0.671,21.85,4.0,,0.0,0.0,
2025-08-15T04:48:29.917Z,3,GR86-028-89,-11.8,-0.022,-0.62,22.15,4.0,5702.0,0.0,0.0,
2025-08-15T04:48:29.960Z,3,GR86-028-89,-9.9,-0.041,-0.5640000000000001,22.33,4.0,,0.0,0.0,145.94
2025-08-15T04:48:30.005Z,3,GR86-028-89,-7.4,-0.012,-0.484,22.5,4.0,,0.0,0.0,
2025-08-15T04:48:30.048Z,3,GR86-028-89,-4.6000000000000005,-0.021,-0.423,22.62,4.0,,0.0,0.0,
2025-08-15T04:48:30.091Z,3,GR86-028-89,-0.4,-0.023,-0.385,22.74,4.0,,0.0,0.0,
2025-08-15T04:48:30.135Z,3,GR86-028-89,3.9,-0.001,-0.316,22.83,4.0,5695.0,0.0,0.0,
2025-08-15T04:48:30.177Z,3,GR86-028-89,7.800000000000001,0.0,-0.247,22.95,4.0,,0.0,0.0,145.77
2025-08-15T04:48:30.220Z,3,GR86-028-89,11.6,0.006,-0.148,22.99,4.0,,0.0,0.0,
2025-08-15T04:48:30.264Z,3,GR86-028-89,17.400000000000002,0.027,-0.023,23.02,4.0,,0.0,0.0,
2025-08-15T04:48:30.307Z,3,GR86-028-89,21.700000000000003,0.009,0.089,23.0,4.0,,0.0,0.0,
2025-08-15T04:48:30.351Z,3,GR86-028-89,25.9,-0.003,0.198,23.01,4.0,5695.0,0.0,0.0,
2025-08-15T04:48:30.394Z,3,GR86-028-89,29.5,-0.006,0.28,22.97,4.0,,0.0,0.0,145.84
2025-08-15T04:48:30.436Z,3,GR86-028-89,32.2,0.009,0.375,22.86,4.0,,0.0,0.0,
2025-08-15T04:48:30.479Z,3,GR86-028-89,33.9,0.014,0.476,22.72,4.0,,0.0,0.0,
2025-08-15T04:48:30.525Z,3,GR86-028-89,34.7,0.003,0.608,22.35,4.0,,0.0,0.0,
2025-08-15T04:48:30.567Z,3,GR86-028-89,34.6,0.017,0.667,22.17,4.0,5706.0,0.0,0.0,
2025-08-15T04:48:30.610Z,3,GR86-028-89,33.7,0.004,0.73,22.04,4.0,,0.0,0.0,146.14
2025-08-15T04:48:30.654Z,3,GR86-028-89,33.0,-0.004,0.767,21.85,4.0,,0.0,0.0,
2025-08-15T04:48:30.696Z,3,GR86-028-89,32.6,-0.008,0.798,21.71,4.0,,0.0,0.0,
2025-08-15T04:48:30.739Z,3,GR86-028-89,31.700000000000003,0.004,0.784,21.43,4.0,,0.0,0.0,
2025-08-15T04:48:30.785Z,3,GR86-028-89,30.6,-0.012,0.838,21.32,4.0,5720.0,0.0,0.0,
2025-08-15T04:48:30.827Z,3,GR86-028-89,30.200000000000003,-0.001,0.836,21.33,4.0,,0.0,0.0,146.20000000000002
2025-08-15T04:48:30.871Z,3,GR86-028-89,30.200000000000003,0.012,0.8320000000000001,21.33,4.0,,0.0,0.0,
2025-08-15T04:48:30.914Z,3,GR86-028-89,30.200000000000003,0.013,0.8180000000000001,21.33,4.0,,0.0,0.0,
2025-08-15T04:48:30.957Z,3,GR86-028-89,30.200000000000003,-0.008,0.8320000000000001,21.35,4.0,,0.0,0.0,
2025-08-15T04:48:30.999Z,3,GR86-028-89,28.6,-0.016,0.8180000000000001,21.36,4.0,5722.0,0.0,0.0,
2025-08-15T04:48:31.044Z,3,GR86-028-89,22.0,-0.002,0.75,21.33,4.0,,0.0,0.0,146.09
2025-08-15T04:48:31.087Z,3,GR86-028-89,15.6,-0.008,0.6940000000000001,21.32,4.0,,0.0,0.0,
2025-08-15T04:48:31.131Z,3,GR86-028-89,7.9,-0.001,0.642,21.28,4.0,,0.0,0.0,
2025-08-15T04:48:31.175Z,3,GR86-028-89,0.2,0.024,0.558,21.17,4.0,,0.0,0.0,
2025-08-15T04:48:31.217Z,3,GR86-028-89,-6.2,0.01,0.478,21.11,4.0,5704.0,0.0,0.0,
2025-08-15T04:48:31.260Z,3,GR86-028-89,-11.3,0.003,0.392,21.08,4.0,,0.0,0.0,145.99
2025-08-15T04:48:31.306Z,3,GR86-028-89,-17.8,0.017,0.191,21.07,4.0,,0.0,0.0,
2025-08-15T04:48:31.348Z,3,GR86-028-89,-21.700000000000003,-0.004,0.055,21.08,4.0,,0.0,0.0,
2025-08-15T04:48:31.391Z,3,GR86-028-89,-25.5,-0.036,-0.09,21.17,4.0,,0.0,0.0,
2025-08-15T04:48:31.434Z,3,GR86-028-89,-29.0,-0.035,-0.25,21.28,4.0,5684.0,0.0,0.0,
2025-08-15T04:48:31.477Z,3,GR86-028-89,-32.0,-0.02,-0.371,21.43,4.0,,0.0,0.0,146.03
2025-08-15T04:48:31.521Z,3,GR86-028-89,-34.4,-0.021,-0.489,21.55,4.0,,0.0,0.0,
2025-08-15T04:48:31.565Z,3,GR86-028-89,-36.0,-0.037,-0.651,21.84,4.0,,0.0,0.0,
2025-08-15T04:48:31.607Z,3,GR86-028-89,-36.0,-0.029,-0.721,21.98,4.0,,0.0,0.0,
2025-08-15T04:48:31.650Z,3,GR86-028-89,-35.5,-0.034,-0.748,22.05,4.0,5708.0,0.0,0.0,
2025-08-15T04:48:31.694Z,3,GR86-028-89,-35.2,-0.071,-0.8200000000000001,22.04,4.0,,0.0,0.0,145.98
2025-08-15T04:48:31.737Z,3,GR86-028-89,-35.2,-0.057,-0.86,22.03,4.0,,0.0,0.0,
2025-08-15T04:48:31.779Z,3,GR86-028-89,-35.2,-0.047,-0.907,22.03,4.0,,0.0,0.0,
2025-08-15T04:48:31.825Z,3,GR86-028-89,-34.5,-0.059,-0.886,22.05,4.0,,0.0,0.0,
2025-08-15T04:48:31.868Z,3,GR86-028-89,-33.800000000000004,-0.042,-0.919,22.03,4.0,5717.0,0.0,0.0,
2025-08-15T04:48:31.911Z,3,GR86-028-89,-32.4,-0.029,-0.897,22.04,4.0,,0.0,0.0,145.87
2025-08-15T04:48:31.954Z,3,GR86-028-89,-30.4,-0.044,-0.91,22.03,4.0,,0.0,0.0,
2025-08-15T04:48:31.997Z,3,GR86-028-89,-28.200000000000003,-0.05,-0.877,22.04,4.0,,0.0,0.0,
2025-08-15T04:48:32.040Z,3,GR86-028-89,-25.9,-0.04,-0.866,22.06,4.0,,0.0,0.0,
2025-08-15T04:48:32.084Z,3,GR86-028-89,-22.4,-0.036,-0.801,22.16,4.0,5703.0,0.0,0.0,
2025-08-15T04:48:32.127Z,3,GR86-028-89,-19.5,-0.047,-0.792,22.32,4.0,,0.0,0.0,145.66
2025-08-15T04:48:32.171Z,3,GR86-028-89,-16.400000000000002,-0.025,-0.736,22.48,4.0,,0.0,0.0,
2025-08-15T04:48:32.214Z,3,GR86-028-89,-13.4,-0.009,-0.671,22.67,4.0,,0.0,0.0,
2025-08-15T04:48:32.256Z,3,GR86-028-89,-10.6,-0.002,-0.601,22.83,4.0,,0.0,0.0,
2025-08-15T04:48:32.299Z,3,GR86-028-89,-7.6,-0.018,-0.549,23.07,4.0,5689.0,0.0,0.0,
2025-08-15T04:48:32.344Z,3,GR86-028-89,-1.3,0.006,-0.462,23.34,4.0,,0.0,0.0,145.49
2025-08-15T04:48:32.387Z,3,GR86-028-89,4.0,0.003,-0.398,23.44,4.0,,0.0,0.0,
2025-08-15T04:48:32.431Z,3,GR86-028-89,10.0,-0.02,-0.321,23.5,4.0,,0.0,0.0,
2025-08-15T04:48:32.475Z,3,GR86-028-89,16.5,0.012,-0.226,23.49,4.0,,0.0,0.0,
2025-08-15T04:48:32.517Z,3,GR86-028-89,22.6,0.01,-0.086,23.44,4.0,5683.0,0.0,0.0,
2025-08-15T04:48:32.560Z,3,GR86-028-89,27.4,0.036,0.044,23.28,4.0,,0.0,0.0,145.45000000000002
2025-08-15T04:48:32.605Z,3,GR86-028-89,31.9,0.022,0.246,23.11,4.0,,0.0,0.0,
2025-08-15T04:48:32.648Z,3,GR86-028-89,33.300000000000004,0.018,0.38,22.83,4.0,,0.0,0.0,
2025-08-15T04:48:32.691Z,3,GR86-028-89,33.7,0.0,0.504,22.56,4.0,,0.0,0.0,
2025-08-15T04:48:32.735Z,3,GR86-028-89,33.6,-0.009,0.592,22.33,4.0,5690.0,0.0,0.0,
2025-08-15T04:48:32.777Z,3,GR86-028-89,33.4,-0.007,0.665,22.2,4.0,,0.0,0.0,145.64
2025-08-15T04:48:32.820Z,3,GR86-028-89,33.4,0.002,0.731,22.12,4.0,,0.0,0.0,
2025-08-15T04:48:32.864Z,3,GR86-028-89,33.9,-0.014,0.792,22.07,4.0,,0.0,0.0,
2025-08-15T04:48:32.907Z,3,GR86-028-89,33.9,0.003,0.8180000000000001,22.03,4.0,,0.0,0.0,
2025-08-15T04:48:32.950Z,3,GR86-028-89,33.9,0.02,0.8310000000000001,21.8,4.0,5712.0,0.0,0.0,
2025-08-15T04:48:32.994Z,3,GR86-028-89,33.7,0.006,0.839,21.43,4.0,,0.0,0.0,145.92000000000002
2025-08-15T04:48:33.036Z,3,GR86-028-89,33.0,-0.006,0.857,21.25,4.0,,0.0,0.0,
2025-08-15T04:48:33.079Z,3,GR86-028-89,32.6,-0.013,0.872,21.17,4.0,,0.0,0.0,
2025-08-15T04:48:33.125Z,3,GR86-028-89,32.1,-0.02,0.887,21.11,4.0,,0.0,0.0,
2025-08-15T04:48:33.168Z,3,GR86-028-89,30.9,-0.015,0.865,20.98,4.0,5719.0,0.0,0.0,
2025-08-15T04:48:33.211Z,3,GR86-028-89,28.700000000000003,0.006,0.8170000000000001,20.4,4.0,,0.0,0.0,145.81
2025-08-15T04:48:33.254Z,3,GR86-028-89,25.0,0.012,0.804,19.96,4.0,,0.0,0.0,
2025-08-15T04:48:33.297Z,3,GR86-028-89,20.200000000000003,-0.005,0.765,19.67,4.0,,0.0,0.0,
2025-08-15T04:48:33.340Z,3,GR86-028-89,14.5,-0.015,0.722,18.97,4.0,,0.0,0.0,
2025-08-15T04:48:33.384Z,3,GR86-028-89,5.300000000000001,0.001,0.618,15.68,4.0,5706.0,0.0,0.0,
2025-08-15T04:48:33.427Z,3,GR86-028-89,-1.3,-0.018,0.542,14.45,4.0,,0.0,0.0,145.58
2025-08-15T04:48:33.471Z,3,GR86-028-89,-7.5,-0.029,0.441,12.78,4.0,,0.0,0.0,
2025-08-15T04:48:33.514Z,3,GR86-028-89,-12.5,-0.037,0.326,9.72,4.0,,0.0,0.0,
2025-08-15T04:48:33.557Z,3,GR86-028-89,-16.2,-0.047,0.196,7.91,4.0,,2.67,2.975,
2025-08-15T04:48:33.600Z,3,GR86-028-89,-18.9,-0.113,0.074,7.9,4.0,5682.0,4.47,4.565,
2025-08-15T04:48:33.644Z,3,GR86-028-89,-22.0,-0.176,-0.124,7.91,4.0,,7.525,7.615,145.42000000000002
2025-08-15T04:48:33.687Z,3,GR86-028-89,-23.6,-0.242,-0.231,7.97,4.0,,9.185,9.215,
2025-08-15T04:48:33.731Z,3,GR86-028-89,-24.1,-0.29,-0.341,7.97,4.0,,10.775,10.805,
2025-08-15T04:48:33.775Z,3,GR86-028-89,-23.4,-0.406,-0.445,8.72,4.0,,12.62,12.65,
2025-08-15T04:48:33.817Z,3,GR86-028-89,-21.0,-0.416,-0.505,8.77,4.0,5484.0,14.42,14.51,
2025-08-15T04:48:33.860Z,3,GR86-028-89,-16.7,-0.388,-0.586,7.97,4.0,,16.405,16.375,144.19
2025-08-15T04:48:33.906Z,3,GR86-028-89,-9.1,-0.441,-0.6,8.0,4.0,,19.61,19.58,
2025-08-15T04:48:33.949Z,3,GR86-028-89,-4.2,-0.484,-0.596,7.98,4.0,,22.19,22.095,
2025-08-15T04:48:33.993Z,3,GR86-028-89,1.0,-0.558,-0.5710000000000001,7.94,4.0,,25.895,25.605,
2025-08-15T04:48:34.035Z,3,GR86-028-89,5.9,-0.628,-0.512,7.930000000000001,4.0,5380.0,30.045,29.77,
2025-08-15T04:48:34.078Z,3,GR86-028-89,8.8,-0.705,-0.471,7.96,4.0,,34.15,33.97,142.26
2025-08-15T04:48:34.121Z,3,GR86-028-89,8.0,-0.757,-0.42,7.95,4.0,,37.95,37.495,
2025-08-15T04:48:34.164Z,3,GR86-028-89,3.7,-0.847,-0.414,7.91,4.0,,44.71,44.16,
2025-08-15T04:48:34.207Z,3,GR86-028-89,4.2,-0.903,-0.418,7.05,4.0,,48.985,48.48,
2025-08-15T04:48:34.250Z,3,GR86-028-89,7.5,-0.947,-0.375,6.69,4.0,5127.0,52.555,52.25,
2025-08-15T04:48:34.294Z,3,GR86-028-89,9.0,-0.959,-0.34,6.38,4.0,,57.120000000000005,58.155,137.23
2025-08-15T04:48:34.336Z,3,GR86-028-89,7.9,-0.928,-0.36,5.09,4.0,,58.125,59.15,
2025-08-15T04:48:34.379Z,3,GR86-028-89,6.6000000000000005,-0.996,-0.285,4.74,4.0,,57.620000000000005,57.15,
2025-08-15T04:48:34.425Z,3,GR86-028-89,3.7,-1.104,-0.148,3.84,4.0,,64.78,65.265,
2025-08-15T04:48:34.467Z,3,GR86-028-89,-1.4,-0.855,-0.09,2.63,4.0,4721.0,65.62,66.455,
2025-08-15T04:48:34.510Z,3,GR86-028-89,-6.800000000000001,-1.102,-0.078,2.63,4.0,,65.08500000000001,64.87,129.87
2025-08-15T04:48:34.554Z,3,GR86-028-89,-11.0,-1.199,0.003,2.61,4.0,,63.925,63.895,
2025-08-15T04:48:34.596Z,3,GR86-028-89,-13.3,-1.163,-0.023,2.61,4.0,,61.68,62.245000000000005,
2025-08-15T04:48:34.639Z,3,GR86-028-89,-12.8,-1.204,0.009,2.61,4.0,,58.52,59.68,
2025-08-15T04:48:34.684Z,3,GR86-028-89,-7.7,-1.13,0.046,2.74,4.0,4492.0,51.455,53.515,
2025-08-15T04:48:34.727Z,3,GR86-028-89,-4.2,-1.061,0.056,3.95,4.0,,44.68,46.71,122.15
2025-08-15T04:48:34.771Z,3,GR86-028-89,-1.4,-0.942,0.074,7.34,4.0,,34.0,35.615,
2025-08-15T04:48:34.814Z,3,GR86-028-89,0.3,-0.754,0.067,7.22,4.0,,21.305,22.43,
2025-08-15T04:48:34.857Z,3,GR86-028-89,0.8,-0.487,0.045,7.12,4.0,,10.53,11.245,
2025-08-15T04:48:34.899Z,3,GR86-028-89,0.6000000000000001,-0.289,0.012,15.15,4.0,4224.0,4.565,5.16,
2025-08-15T04:48:34.945Z,3,GR86-028-89,0.3,-0.162,-0.039,20.42,4.0,,0.0,0.0,114.4
2025-08-15T04:48:34.988Z,3,GR86-028-89,0.5,-0.1,-0.038,20.86,4.0,,0.0,0.0,
2025-08-15T04:48:35.031Z,3,GR86-028-89,1.0,-0.06,-0.059,31.34,4.0,,0.0,0.0,
2025-08-15T04:48:35.075Z,3,GR86-028-89,1.4,-0.103,-0.042,62.57,4.0,,0.0,0.0,
2025-08-15T04:48:35.117Z,3,GR86-028-89,1.9,-0.022,-0.059,97.32,4.0,4394.0,0.0,0.0,
2025-08-15T04:48:35.160Z,3,GR86-028-89,2.4000000000000004,0.275,-0.021,100.46,4.0,,0.0,0.0,112.62
2025-08-15T04:48:35.206Z,3,GR86-028-89,2.5,0.156,-0.041,100.48,4.0,,0.0,0.0,
2025-08-15T04:48:35.248Z,3,GR86-028-89,2.6,0.083,0.01,100.46,4.0,,0.0,0.0,
2025-08-15T04:48:35.291Z,3,GR86-028-89,3.0,0.117,-0.011,100.45,4.0,,0.0,0.0,
2025-08-15T04:48:35.335Z,3,GR86-028-89,3.6,0.199,-0.01,100.39,4.0,4479.0,0.0,0.0,
2025-08-15T04:48:35.377Z,3,GR86-028-89,3.6,0.209,0.015,100.36,4.0,,0.0,0.0,112.33
2025-08-15T04:48:35.421Z,3,GR86-028-89,3.1,0.147,0.013,100.32,4.0,,0.0,0.0,
2025-08-15T04:48:35.465Z,3,GR86-028-89,3.0,0.158,0.017,100.23,4.0,,0.0,0.0,
2025-08-15T04:48:35.507Z,3,GR86-028-89,3.3000000000000003,0.171,0.007,78.98,4.0,,0.0,0.0,
2025-08-15T04:48:35.550Z,3,GR86-028-89,3.4000000000000004,0.196,0.018,68.85000000000001,4.0,4473.0,0.0,0.0,
2025-08-15T04:48:35.594Z,3,GR86-028-89,3.5,0.158,0.019,60.27,4.0,,0.0,0.0,113.21
2025-08-15T04:48:35.637Z,3,GR86-028-89,3.8,0.154,0.013,53.93,4.0,,0.0,0.0,
2025-08-15T04:48:35.679Z,3,GR86-028-89,4.3,0.174,0.017,42.51,4.0,,4.0,4.03,
2025-08-15T04:48:35.725Z,3,GR86-028-89,4.7,0.038,0.022,29.4,4.0,,13.015,13.045,
2025-08-15T04:48:35.768Z,3,GR86-028-89,4.800000000000001,-0.147,0.03,24.94,4.0,4538.0,20.63,20.63,
2025-08-15T04:48:35.811Z,3,GR86-028-89,4.800000000000001,-0.307,0.028,21.28,4.0,,28.0,27.895,115.56
2025-08-15T04:48:35.854Z,3,GR86-028-89,4.800000000000001,-0.51,0.053,4.63,4.0,,34.395,34.245,
2025-08-15T04:48:35.897Z,3,GR86-028-89,4.4,-0.628,0.048,4.21,4.0,,38.44,38.255,
2025-08-15T04:48:35.940Z,3,GR86-028-89,4.3,-0.707,0.039,3.86,4.0,,39.4,39.28,
2025-08-15T04:48:35.985Z,3,GR86-028-89,4.3,-0.875,0.061,34.38,4.0,4544.0,39.4,39.43,
2025-08-15T04:48:36.027Z,3,GR86-028-89,4.3,-0.874,0.036,74.27,3.0,,39.785,39.785,112.68
2025-08-15T04:48:36.071Z,3,GR86-028-89,4.3,-0.901,0.046,21.83,3.0,,39.585,39.43,
2025-08-15T04:48:36.114Z,3,GR86-028-89,4.3,-1.037,0.057,4.55,3.0,,39.965,41.08,
2025-08-15T04:48:36.157Z,3,GR86-028-89,4.3,-0.937,0.069,4.24,3.0,,35.77,36.64,
2025-08-15T04:48:36.200Z,3,GR86-028-89,4.7,-0.674,0.017,3.75,3.0,4189.0,24.05,24.735,
2025-08-15T04:48:36.244Z,3,GR86-028-89,4.7,-0.547,0.069,3.28,3.0,,9.125,9.72,106.7
2025-08-15T04:48:36.287Z,3,GR86-028-89,4.800000000000001,-0.25,-0.008,3.09,3.0,,2.58,3.005,
2025-08-15T04:48:36.331Z,3,GR86-028-89,4.800000000000001,-0.141,0.045,6.12,3.0,,0.0,0.0,
2025-08-15T04:48:36.374Z,3,GR86-028-89,4.9,-0.117,0.059,19.57,3.0,,0.0,0.0,
2025-08-15T04:48:36.417Z,3,GR86-028-89,5.4,-0.118,0.026,28.79,3.0,4759.0,0.0,0.0,
2025-08-15T04:48:36.460Z,3,GR86-028-89,5.7,-0.096,0.068,51.34,3.0,,0.0,0.0,104.28
2025-08-15T04:48:36.506Z,3,GR86-028-89,5.9,-0.084,0.04,97.32,3.0,,0.0,0.0,
2025-08-15T04:48:36.548Z,3,GR86-028-89,6.300000000000001,0.219,0.082,99.66,3.0,,0.0,0.0,
2025-08-15T04:48:36.591Z,3,GR86-028-89,7.2,0.431,0.075,99.77,3.0,,0.0,0.0,
2025-08-15T04:48:36.634Z,3,GR86-028-89,7.800000000000001,0.294,0.086,99.84,3.0,5053.0,0.0,0.0,
2025-08-15T04:48:36.677Z,3,GR86-028-89,8.1,0.096,0.092,99.88,3.0,,0.0,0.0,103.63
2025-08-15T04:48:36.720Z,3,GR86-028-89,8.700000000000001,0.128,0.095,99.94,3.0,,0.0,0.0,
2025-08-15T04:48:36.764Z,3,GR86-028-89,9.5,0.242,0.11,99.98,3.0,,0.0,0.0,
2025-08-15T04:48:36.807Z,3,GR86-028-89,9.6,0.229,0.128,100.08,3.0,,0.0,0.0,
2025-08-15T04:48:36.850Z,3,GR86-028-89,9.9,0.206,0.125,100.11,3.0,4994.0,0.0,0.0,
2025-08-15T04:48:36.894Z,3,GR86-028-89,10.5,0.181,0.129,100.14,3.0,,0.0,0.0,104.6
2025-08-15T04:48:36.936Z,3,GR86-028-89,11.0,0.203,0.128,100.17,3.0,,0.0,0.0,
2025-08-15T04:48:36.979Z,3,GR86-028-89,11.6,0.22,0.137,100.18,3.0,,0.0,0.0,
2025-08-15T04:48:37.025Z,3,GR86-028-89,12.1,0.199,0.145,100.17,3.0,,0.0,0.0,
2025-08-15T04:48:37.068Z,3,GR86-028-89,12.1,0.191,0.153,100.14,3.0,5033.0,0.0,0.0,
2025-08-15T04:48:37.111Z,3,GR86-028-89,12.1,0.213,0.179,100.14,3.0,,0.0,0.0,106.15
2025-08-15T04:48:37.154Z,3,GR86-028-89,12.1,0.206,0.185,100.11,3.0,,0.0,0.0,
2025-08-15T04:48:37.197Z,3,GR86-028-89,12.1,0.203,0.203,100.11,3.0,,0.0,0.0,
2025-08-15T04:48:37.240Z,3,GR86-028-89,12.0,0.199,0.214,100.07,3.0,,0.0,0.0,
2025-08-15T04:48:37.284Z,3,GR86-028-89,11.2,0.197,0.224,100.01,3.0,5104.0,0.0,0.0,
2025-08-15T04:48:37.327Z,3,GR86-028-89,10.8,0.198,0.208,99.98,3.0,,0.0,0.0,107.72
2025-08-15T04:48:37.371Z,3,GR86-028-89,10.3,0.213,0.215,99.96,3.0,,0.0,0.0,
2025-08-15T04:48:37.414Z,3,GR86-028-89,9.6,0.199,0.203,99.95,3.0,,0.0,0.0,
2025-08-15T04:48:37.457Z,3,GR86-028-89,9.1,0.199,0.193,99.91,3.0,,0.0,0.0,
2025-08-15T04:48:37.500Z,3,GR86-028-89,8.700000000000001,0.203,0.185,99.92,3.0,5179.0,0.0,0.0,
2025-08-15T04:48:37.544Z,3,GR86-028-89,8.5,0.2,0.175,99.92,3.0,,0.0,0.0,109.39
2025-08-15T04:48:37.587Z,3,GR86-028-89,8.4,0.193,0.169,99.91,3.0,,0.0,0.0,
2025-08-15T04:48:37.631Z,3,GR86-028-89,8.3,0.207,0.177,99.94,3.0,,0.0,0.0,
2025-08-15T04:48:37.675Z,3,GR86-028-89,8.200000000000001,0.208,0.159,99.93,3.0,,0.0,0.0,
2025-08-15T04:48:37.717Z,3,GR86-028-89,8.0,0.206,0.154,99.94,3.0,5256.0,0.0,0.0,
2025-08-15T04:48:37.760Z,3,GR86-028-89,7.6,0.205,0.152,99.95,3.0,,0.0,0.0,110.97
2025-08-15T04:48:37.806Z,3,GR86-028-89,6.9,0.21,0.141,99.95,3.0,,0.0,0.0,
2025-08-15T04:48:37.849Z,3,GR86-028-89,6.5,0.194,0.135,99.95,3.0,,0.0,0.0,
2025-08-15T04:48:37.893Z,3,GR86-028-89,6.300000000000001,0.2,0.129,99.95,3.0,,0.0,0.0,
2025-08-15T04:48:37.935Z,3,GR86-028-89,6.0,0.209,0.112,99.98,3.0,5326.0,0.0,0.0,
2025-08-15T04:48:37.978Z,3,GR86-028-89,5.7,0.192,0.11,99.97,3.0,,0.0,0.0,112.58
2025-08-15T04:48:38.021Z,3,GR86-028-89,5.6000000000000005,0.209,0.107,99.98,3.0,,0.0,0.0,
2025-08-15T04:48:38.064Z,3,GR86-028-89,5.6000000000000005,0.193,0.118,99.99,3.0,,0.0,0.0,
2025-08-15T04:48:38.107Z,3,GR86-028-89,5.6000000000000005,0.198,0.098,99.99,3.0,,0.0,0.0,
2025-08-15T04:48:38.150Z,3,GR86-028-89,5.6000000000000005,0.191,0.108,100.04,3.0,5400.0,0.0,0.0,
2025-08-15T04:48:38.194Z,3,GR86-028-89,5.6000000000000005,0.22,0.09,100.04,3.0,,0.0,0.0,114.16
