timestamp,lap,vehicle_id,steering_angle,accx_can,accy_can,ath,gear,nmot,pbrake_f,pbrake_r,speed
2025-08-14T23:10:34.719Z,4,GR86-057-57,-0.5,0.017,0.041,30.87,4.0,,0.0,0.0,
2025-08-14T23:10:34.765Z,4,GR86-057-57,-1.1,0.032,0.052,31.14,4.0,6262.0,0.0,0.0,
2025-08-14T23:10:34.807Z,4,GR86-057-57,-1.2000000000000002,0.015,0.023,31.18,4.0,,0.0,0.0,160.33
2025-08-14T23:10:34.850Z,4,GR86-057-57,-1.8,0.009,0.037,31.19,4.0,,0.0,0.0,
2025-08-14T23:10:34.894Z,4,GR86-057-57,-2.3000000000000003,0.035,0.024,31.16,4.0,,0.0,0.0,
2025-08-14T23:10:34.936Z,4,GR86-057-57,-2.4000000000000004,0.058,-0.002,31.16,4.0,,0.0,0.0,
2025-08-14T23:10:34.979Z,4,GR86-057-57,-2.4000000000000004,0.088,-0.026,31.13,4.0,6269.0,0.0,0.0,
2025-08-14T23:10:35.023Z,4,GR86-057-57,-2.3000000000000003,0.013,-0.037,31.07,4.0,,0.0,0.0,160.65
2025-08-14T23:10:35.066Z,4,GR86-057-57,-2.3000000000000003,0.035,-0.043,31.03,4.0,,0.0,0.0,
2025-08-14T23:10:35.109Z,4,GR86-057-57,-2.3000000000000003,0.064,-0.05,31.01,4.0,,0.0,0.0,
2025-08-14T23:10:35.153Z,4,GR86-057-57,-2.3000000000000003,0.081,-0.052,31.04,4.0,,0.0,0.0,
2025-08-14T23:10:35.195Z,4,GR86-057-57,-2.1,0.08,-0.039,31.05,4.0,6246.0,0.0,0.0,
2025-08-14T23:10:35.238Z,4,GR86-057-57,-1.9,0.066,-0.033,31.06,4.0,,0.0,0.0,160.86
2025-08-14T23:10:35.281Z,4,GR86-057-57,-1.7000000000000002,0.036,-0.034,31.07,4.0,,0.0,0.0,
2025-08-14T23:10:35.324Z,4,GR86-057-57,-1.7000000000000002,0.08,-0.046,31.14,4.0,,0.0,0.0,
2025-08-14T23:10:35.367Z,4,GR86-057-57,-1.7000000000000002,0.073,-0.024,31.17,4.0,,0.0,0.0,
2025-08-14T23:10:35.410Z,4,GR86-057-57,-1.3,0.064,-0.012,31.16,4.0,6258.0,0.0,0.0,
2025-08-14T23:10:35.454Z,4,GR86-057-57,-1.2000000000000002,0.035,-0.014,31.09,4.0,,0.0,0.0,161.03
2025-08-14T23:10:35.497Z,4,GR86-057-57,-1.4,0.003,-0.019,30.81,4.0,,0.0,0.0,
2025-08-14T23:10:35.540Z,4,GR86-057-57,-1.8,0.009,-0.028,30.64,4.0,,0.0,0.0,
2025-08-14T23:10:35.584Z,4,GR86-057-57,-2.1,0.051,0.003,30.75,4.0,,0.0,0.0,
2025-08-14T23:10:35.627Z,4,GR86-057-57,-2.1,0.028,-0.003,30.78,4.0,6266.0,0.0,0.0,
2025-08-14T23:10:35.670Z,4,GR86-057-57,-1.8,0.005,-0.016,30.75,4.0,,0.0,0.0,161.42000000000002
2025-08-14T23:10:35.714Z,4,GR86-057-57,-1.3,0.006,-0.036,30.79,4.0,,0.0,0.0,
2025-08-14T23:10:35.756Z,4,GR86-057-57,-1.2000000000000002,0.013,-0.038,30.91,4.0,,0.0,0.0,
2025-08-14T23:10:35.799Z,4,GR86-057-57,-1.2000000000000002,0.025,-0.033,30.97,4.0,,0.0,0.0,
2025-08-14T23:10:35.843Z,4,GR86-057-57,-1.2000000000000002,0.008,-0.015,30.91,4.0,6321.0,0.0,0.0,
2025-08-14T23:10:35.885Z,4,GR86-057-57,-1.2000000000000002,0.012,-0.024,30.73,4.0,,0.0,0.0,161.75
2025-08-14T23:10:35.928Z,4,GR86-057-57,-1.5,0.006,-0.006,30.81,4.0,,0.0,0.0,
2025-08-14T23:10:35.971Z,4,GR86-057-57,-1.6,0.026,-0.019,30.94,4.0,,0.0,0.0,
2025-08-14T23:10:36.014Z,4,GR86-057-57,-1.6,0.068,-0.017,31.06,4.0,,0.0,0.0,
2025-08-14T23:10:36.057Z,4,GR86-057-57,-1.6,0.071,-0.022,31.16,4.0,6331.0,0.0,0.0,
2025-08-14T23:10:36.100Z,4,GR86-057-57,-1.6,0.066,-0.018,31.2,4.0,,0.0,0.0,162.06
2025-08-14T23:10:36.144Z,4,GR86-057-57,-1.6,0.035,-0.023,31.22,4.0,,0.0,0.0,
2025-08-14T23:10:36.187Z,4,GR86-057-57,-2.1,0.056,-0.024,31.21,4.0,,0.0,0.0,
2025-08-14T23:10:36.230Z,4,GR86-057-57,-2.2,0.066,-0.023,31.22,4.0,,0.0,0.0,
2025-08-14T23:10:36.273Z,4,GR86-057-57,-2.0,0.076,-0.031,31.23,4.0,6333.0,0.0,0.0,
2025-08-14T23:10:36.316Z,4,GR86-057-57,-1.6,0.061,-0.017,31.2,4.0,,0.0,0.0,162.61
2025-08-14T23:10:36.359Z,4,GR86-057-57,-1.6,0.049,-0.023,31.1,4.0,,0.0,0.0,
2025-08-14T23:10:36.404Z,4,GR86-057-57,-2.6,0.065,-0.016,30.52,4.0,,0.0,0.0,
2025-08-14T23:10:36.447Z,4,GR86-057-57,-2.9000000000000004,0.073,-0.028,29.87,4.0,,0.0,0.0,
2025-08-14T23:10:36.490Z,4,GR86-057-57,-2.8000000000000003,0.065,-0.03,29.79,4.0,6355.0,0.0,0.0,
2025-08-14T23:10:36.534Z,4,GR86-057-57,-2.8000000000000003,0.037,-0.035,29.81,4.0,,0.0,0.0,162.83
2025-08-14T23:10:36.577Z,4,GR86-057-57,-2.8000000000000003,0.014,-0.01,29.54,4.0,,0.0,0.0,
2025-08-14T23:10:36.620Z,4,GR86-057-57,-2.9000000000000004,0.002,-0.018,29.43,4.0,,0.0,0.0,
2025-08-14T23:10:36.664Z,4,GR86-057-57,-2.3000000000000003,0.061,-0.048,29.31,4.0,,0.0,0.0,
2025-08-14T23:10:36.707Z,4,GR86-057-57,-1.4,0.03,-0.049,29.38,4.0,6335.0,0.0,0.0,
2025-08-14T23:10:36.750Z,4,GR86-057-57,-1.2000000000000002,0.009,-0.025,29.64,4.0,,0.0,0.0,163.08
2025-08-14T23:10:36.794Z,4,GR86-057-57,-1.4,0.011,-0.026,29.77,4.0,,0.0,0.0,
2025-08-14T23:10:36.836Z,4,GR86-057-57,-1.6,-0.007,-0.047,29.96,4.0,,0.0,0.0,
2025-08-14T23:10:36.879Z,4,GR86-057-57,-1.6,0.01,-0.051,29.96,4.0,,0.0,0.0,
2025-08-14T23:10:36.923Z,4,GR86-057-57,-1.4,0.025,-0.011,30.04,4.0,6373.0,0.0,0.0,
2025-08-14T23:10:36.965Z,4,GR86-057-57,-1.4,0.013,-0.01,30.34,4.0,,0.0,0.0,163.47
2025-08-14T23:10:37.008Z,4,GR86-057-57,-1.4,-0.012,-0.02,30.69,4.0,,0.0,0.0,
2025-08-14T23:10:37.051Z,4,GR86-057-57,-1.3,-0.001,-0.032,31.03,4.0,,0.0,0.0,
2025-08-14T23:10:37.181Z,4,GR86-057-57,-1.4,0.052,-0.023,31.29,4.0,,0.0,0.0,163.72
2025-08-14T23:10:37.396Z,4,GR86-057-57,-1.5,0.043,-0.014,31.41,4.0,6358.0,0.0,0.0,163.85
2025-08-14T23:10:37.439Z,4,GR86-057-57,-1.6,0.073,-0.003,31.45,4.0,,0.0,0.0,
2025-08-14T23:10:37.483Z,4,GR86-057-57,-1.7000000000000002,0.02,-0.025,31.32,4.0,,0.0,0.0,
2025-08-14T23:10:37.525Z,4,GR86-057-57,-1.7000000000000002,0.037,-0.028,31.03,4.0,,0.0,0.0,
2025-08-14T23:10:37.568Z,4,GR86-057-57,-1.7000000000000002,0.067,-0.026,30.75,4.0,6408.0,0.0,0.0,
2025-08-14T23:10:37.611Z,4,GR86-057-57,-1.7000000000000002,0.068,-0.023,30.55,4.0,,0.0,0.0,164.06
2025-08-14T23:10:37.654Z,4,GR86-057-57,-1.7000000000000002,0.056,-0.018,30.53,4.0,,0.0,0.0,
2025-08-14T23:10:37.697Z,4,GR86-057-57,-1.8,0.059,-0.023,30.48,4.0,,0.0,0.0,
2025-08-14T23:10:37.740Z,4,GR86-057-57,-2.3000000000000003,0.04,-0.008,30.18,4.0,,0.0,0.0,
2025-08-14T23:10:37.784Z,4,GR86-057-57,-3.0,0.051,-0.035,29.9,4.0,6384.0,0.0,0.0,
2025-08-14T23:10:37.827Z,4,GR86-057-57,-3.2,0.063,-0.036,29.77,4.0,,0.0,0.0,164.4
2025-08-14T23:10:37.870Z,4,GR86-057-57,-3.2,0.066,-0.018,29.72,4.0,,0.0,0.0,
2025-08-14T23:10:37.914Z,4,GR86-057-57,-2.9000000000000004,0.046,-0.02,29.82,4.0,,0.0,0.0,
2025-08-14T23:10:37.957Z,4,GR86-057-57,-2.8000000000000003,0.026,-0.022,30.02,4.0,,0.0,0.0,
2025-08-14T23:10:38.000Z,4,GR86-057-57,-2.7,0.011,-0.023,30.72,4.0,6399.0,0.0,0.0,
2025-08-14T23:10:38.044Z,4,GR86-057-57,-2.4000000000000004,0.06,-0.04,31.19,4.0,,0.0,0.0,164.74
2025-08-14T23:10:38.086Z,4,GR86-057-57,-2.4000000000000004,0.061,-0.033,31.22,4.0,,0.0,0.0,
2025-08-14T23:10:38.130Z,4,GR86-057-57,-2.4000000000000004,0.053,-0.034,31.14,4.0,,0.0,0.0,
2025-08-14T23:10:38.174Z,4,GR86-057-57,-2.3000000000000003,0.042,-0.016,30.81,4.0,,0.0,0.0,
2025-08-14T23:10:38.216Z,4,GR86-057-57,-2.0,0.014,-0.023,30.69,4.0,6442.0,0.0,0.0,
2025-08-14T23:10:38.259Z,4,GR86-057-57,-1.5,-0.003,-0.013,30.62,4.0,,0.0,0.0,165.05
2025-08-14T23:10:38.305Z,4,GR86-057-57,-0.5,0.062,-0.014,29.89,4.0,,0.0,0.0,
2025-08-14T23:10:38.347Z,4,GR86-057-57,-0.2,0.051,-0.002,29.7,4.0,,0.0,0.0,
2025-08-14T23:10:38.390Z,4,GR86-057-57,-0.2,0.03,0.003,29.23,4.0,,0.0,0.0,
2025-08-14T23:10:38.434Z,4,GR86-057-57,-0.2,0.012,0.012,27.78,4.0,6420.0,0.0,0.0,
2025-08-14T23:10:38.477Z,4,GR86-057-57,-0.2,0.008,0.016,27.12,4.0,,0.0,0.0,165.35
2025-08-14T23:10:38.520Z,4,GR86-057-57,-0.2,0.001,0.008,27.02,4.0,,0.0,0.0,
2025-08-14T23:10:38.564Z,4,GR86-057-57,-0.2,0.023,0.04,27.15,4.0,,0.0,0.0,
2025-08-14T23:10:38.607Z,4,GR86-057-57,-0.2,0.022,0.039,27.24,4.0,,0.0,0.0,
2025-08-14T23:10:38.650Z,4,GR86-057-57,-0.2,0.017,0.048,27.37,4.0,6468.0,0.0,0.0,
2025-08-14T23:10:38.694Z,4,GR86-057-57,-0.5,-0.009,0.053,27.66,4.0,,0.0,0.0,165.64
2025-08-14T23:10:38.736Z,4,GR86-057-57,-0.8,-0.01,0.029,28.59,4.0,,0.0,0.0,
2025-08-14T23:10:38.779Z,4,GR86-057-57,-1.4,-0.015,0.021,29.69,4.0,,0.0,0.0,
2025-08-14T23:10:38.823Z,4,GR86-057-57,-1.9,0.025,0.035,29.89,4.0,,0.0,0.0,
2025-08-14T23:10:38.865Z,4,GR86-057-57,-2.0,0.011,0.039,30.06,4.0,6471.0,0.0,0.0,
2025-08-14T23:10:38.909Z,4,GR86-057-57,-2.6,-0.001,0.014,30.49,4.0,,0.0,0.0,166.11
2025-08-14T23:10:38.953Z,4,GR86-057-57,-3.0,0.002,-0.006,30.75,4.0,,0.0,0.0,
2025-08-14T23:10:38.995Z,4,GR86-057-57,-3.3000000000000003,0.011,-0.038,31.08,4.0,,0.0,0.0,
2025-08-14T23:10:39.038Z,4,GR86-057-57,-3.3000000000000003,0.025,-0.055,31.28,4.0,,0.0,0.0,
2025-08-14T23:10:39.081Z,4,GR86-057-57,-3.3000000000000003,0.025,-0.067,31.42,4.0,6439.0,0.0,0.0,
2025-08-14T23:10:39.124Z,4,GR86-057-57,-3.3000000000000003,0.007,-0.063,31.51,4.0,,0.0,0.0,166.27
2025-08-14T23:10:39.167Z,4,GR86-057-57,-3.3000000000000003,0.003,-0.071,31.54,4.0,,0.0,0.0,
2025-08-14T23:10:39.210Z,4,GR86-057-57,-3.1,0.003,-0.085,31.72,4.0,,0.0,0.0,
2025-08-14T23:10:39.253Z,4,GR86-057-57,-2.7,0.004,-0.087,32.09,4.0,,0.0,0.0,
2025-08-14T23:10:39.296Z,4,GR86-057-57,-2.0,0.028,-0.086,32.56,4.0,6492.0,0.0,0.0,
2025-08-14T23:10:39.339Z,4,GR86-057-57,-1.8,0.044,-0.083,32.85,4.0,,0.0,0.0,166.65
2025-08-14T23:10:39.383Z,4,GR86-057-57,-1.8,0.006,-0.059,33.3,4.0,,0.0,0.0,
2025-08-14T23:10:39.425Z,4,GR86-057-57,-1.6,0.01,-0.053,33.43,4.0,,0.0,0.0,
2025-08-14T23:10:39.469Z,4,GR86-057-57,-1.5,0.026,-0.065,33.45,4.0,,0.0,0.0,
2025-08-14T23:10:39.514Z,4,GR86-057-57,-1.4,0.042,-0.059,33.37,4.0,6484.0,0.0,0.0,
2025-08-14T23:10:39.556Z,4,GR86-057-57,-1.4,0.057,-0.057,33.24,4.0,,0.0,0.0,166.92000000000002
2025-08-14T23:10:39.599Z,4,GR86-057-57,-1.1,0.058,-0.025,33.07,4.0,,0.0,0.0,
2025-08-14T23:10:39.643Z,4,GR86-057-57,-0.7000000000000001,0.019,0.016,32.83,4.0,,0.0,0.0,
2025-08-14T23:10:39.685Z,4,GR86-057-57,-0.1,0.031,0.019,32.81,4.0,,0.0,0.0,
2025-08-14T23:10:39.728Z,4,GR86-057-57,0.5,0.031,0.012,32.79,4.0,6541.0,0.0,0.0,
2025-08-14T23:10:39.771Z,4,GR86-057-57,0.8,0.035,0.005,32.8,4.0,,0.0,0.0,167.31
2025-08-14T23:10:39.814Z,4,GR86-057-57,0.5,0.045,0.018,32.730000000000004,4.0,,0.0,0.0,
2025-08-14T23:10:39.857Z,4,GR86-057-57,-0.4,0.056,0.023,32.69,4.0,,0.0,0.0,
2025-08-14T23:10:39.900Z,4,GR86-057-57,-1.4,0.061,0.025,32.660000000000004,4.0,,0.0,0.0,
2025-08-14T23:10:39.944Z,4,GR86-057-57,-1.9,0.014,0.002,32.59,4.0,6558.0,0.0,0.0,
2025-08-14T23:10:39.986Z,4,GR86-057-57,-1.9,0.018,0.0,32.34,4.0,,0.0,0.0,167.6
2025-08-14T23:10:40.030Z,4,GR86-057-57,-1.8,0.037,-0.027,32.2,4.0,,0.0,0.0,
2025-08-14T23:10:40.074Z,4,GR86-057-57,-1.6,0.048,-0.014,32.12,4.0,,0.0,0.0,
2025-08-14T23:10:40.116Z,4,GR86-057-57,-1.4,0.043,-0.017,32.12,4.0,,0.0,0.0,
2025-08-14T23:10:40.159Z,4,GR86-057-57,-1.3,0.043,-0.012,32.17,4.0,6573.0,0.0,0.0,
2025-08-14T23:10:40.204Z,4,GR86-057-57,-0.6000000000000001,0.016,-0.012,32.3,4.0,,0.0,0.0,168.14
2025-08-14T23:10:40.247Z,4,GR86-057-57,-0.1,0.026,-0.01,32.37,4.0,,0.0,0.0,
2025-08-14T23:10:40.290Z,4,GR86-057-57,0.1,0.018,-0.027,33.07,4.0,,0.0,0.0,
2025-08-14T23:10:40.334Z,4,GR86-057-57,0.1,0.029,-0.014,35.11,4.0,,0.0,0.0,
2025-08-14T23:10:40.376Z,4,GR86-057-57,0.1,0.036,-0.016,38.44,4.0,6583.0,0.0,0.0,
2025-08-14T23:10:40.419Z,4,GR86-057-57,0.1,0.057,-0.018,39.35,4.0,,0.0,0.0,168.52
2025-08-14T23:10:40.463Z,4,GR86-057-57,0.0,0.041,-0.006,39.49,4.0,,0.0,0.0,
2025-08-14T23:10:40.507Z,4,GR86-057-57,-1.2000000000000002,0.048,0.002,41.17,4.0,,0.0,0.0,
2025-08-14T23:10:40.550Z,4,GR86-057-57,-2.2,0.051,0.01,43.85,4.0,,0.0,0.0,
2025-08-14T23:10:40.594Z,4,GR86-057-57,-2.5,0.068,-0.008,44.65,4.0,6595.0,0.0,0.0,
2025-08-14T23:10:40.636Z,4,GR86-057-57,-2.5,0.085,-0.001,44.59,4.0,,0.0,0.0,168.88
2025-08-14T23:10:40.679Z,4,GR86-057-57,-2.3000000000000003,0.107,0.002,44.35,4.0,,0.0,0.0,
2025-08-14T23:10:40.723Z,4,GR86-057-57,-2.0,0.056,0.004,44.01,4.0,,0.0,0.0,
2025-08-14T23:10:40.766Z,4,GR86-057-57,-1.8,0.064,-0.011,43.81,4.0,,0.0,0.0,
2025-08-14T23:10:40.809Z,4,GR86-057-57,-1.6,0.065,-0.016,43.71,4.0,6624.0,0.0,0.0,
2025-08-14T23:10:40.853Z,4,GR86-057-57,-1.4,0.069,-0.024,43.82,4.0,,0.0,0.0,169.23
2025-08-14T23:10:40.895Z,4,GR86-057-57,-1.2000000000000002,0.094,-0.02,43.81,4.0,,0.0,0.0,
2025-08-14T23:10:40.938Z,4,GR86-057-57,-1.2000000000000002,0.099,-0.028,43.57,4.0,,0.0,0.0,
2025-08-14T23:10:40.981Z,4,GR86-057-57,-1.3,0.099,-0.027,43.17,4.0,,0.0,0.0,
2025-08-14T23:10:41.024Z,4,GR86-057-57,-2.0,0.056,-0.003,43.07,4.0,6651.0,0.0,0.0,
2025-08-14T23:10:41.067Z,4,GR86-057-57,-2.1,0.063,0.0,42.92,4.0,,0.0,0.0,169.68
2025-08-14T23:10:41.110Z,4,GR86-057-57,-2.0,0.063,-0.003,42.51,4.0,,0.0,0.0,
2025-08-14T23:10:41.154Z,4,GR86-057-57,-1.6,0.068,-0.013,42.22,4.0,,0.0,0.0,
2025-08-14T23:10:41.197Z,4,GR86-057-57,-1.4,0.072,-0.015,41.84,4.0,,0.0,0.0,
2025-08-14T23:10:41.240Z,4,GR86-057-57,-1.4,0.078,-0.007,41.66,4.0,6632.0,0.0,0.0,
2025-08-14T23:10:41.284Z,4,GR86-057-57,-1.4,0.05,0.004,41.88,4.0,,0.0,0.0,170.3
2025-08-14T23:10:41.328Z,4,GR86-057-57,-1.4,0.047,0.006,40.96,4.0,,0.0,0.0,
2025-08-14T23:10:41.371Z,4,GR86-057-57,-1.4,0.051,-0.009,39.43,4.0,,0.0,0.0,
2025-08-14T23:10:41.414Z,4,GR86-057-57,-1.4,0.06,-0.011,39.0,4.0,,0.0,0.0,
2025-08-14T23:10:41.457Z,4,GR86-057-57,-1.4,0.056,-0.014,39.0,4.0,6652.0,0.0,0.0,
2025-08-14T23:10:41.500Z,4,GR86-057-57,-1.4,0.056,-0.029,38.99,4.0,,0.0,0.0,170.85
2025-08-14T23:10:41.544Z,4,GR86-057-57,-1.4,0.042,-0.001,38.97,4.0,,0.0,0.0,
2025-08-14T23:10:41.587Z,4,GR86-057-57,-1.4,0.042,0.002,36.08,4.0,,0.0,0.0,
2025-08-14T23:10:41.630Z,4,GR86-057-57,-1.4,0.041,-0.001,32.86,4.0,,0.0,0.0,
2025-08-14T23:10:41.674Z,4,GR86-057-57,-1.3,0.046,-0.006,6.17,4.0,6718.0,0.0,0.0,
2025-08-14T23:10:41.716Z,4,GR86-057-57,-1.3,0.024,-0.019,4.29,4.0,,0.0,0.0,172.15
2025-08-14T23:10:41.759Z,4,GR86-057-57,-1.2000000000000002,-0.086,-0.009,3.92,4.0,,0.0,0.0,
2025-08-14T23:10:41.804Z,4,GR86-057-57,-1.1,-0.204,0.01,3.48,4.0,,0.0,0.0,
2025-08-14T23:10:41.847Z,4,GR86-057-57,-1.1,-0.317,-0.015,3.24,4.0,,0.0,0.0,
2025-08-14T23:10:41.890Z,4,GR86-057-57,-0.9,-0.185,0.028,3.0700000000000003,4.0,6684.0,0.0,0.0,
2025-08-14T23:10:41.934Z,4,GR86-057-57,-0.5,-0.147,-0.008,2.96,4.0,,0.0,0.0,172.62
2025-08-14T23:10:41.977Z,4,GR86-057-57,-0.3,-0.18,-0.035,2.89,4.0,,0.0,0.0,
2025-08-14T23:10:42.021Z,4,GR86-057-57,-0.3,-0.193,0.005,2.81,4.0,,0.0,0.0,
2025-08-14T23:10:42.064Z,4,GR86-057-57,-0.3,-0.155,-0.03,2.69,4.0,,0.0,0.0,
2025-08-14T23:10:42.107Z,4,GR86-057-57,-0.3,-0.17,0.007,2.59,4.0,6683.0,0.0,0.0,
2025-08-14T23:10:42.150Z,4,GR86-057-57,0.0,-0.175,0.012,2.53,4.0,,0.0,0.0,172.69
2025-08-14T23:10:42.194Z,4,GR86-057-57,0.3,-0.181,0.017,2.5,4.0,,0.0,0.0,
2025-08-14T23:10:42.236Z,4,GR86-057-57,0.4,-0.179,0.018,2.47,4.0,,0.0,0.0,
2025-08-14T23:10:42.279Z,4,GR86-057-57,0.4,-0.186,0.016,2.47,4.0,,0.0,0.0,
2025-08-14T23:10:42.323Z,4,GR86-057-57,0.4,-0.148,-0.009,2.47,4.0,6570.0,0.0,0.0,
2025-08-14T23:10:42.365Z,4,GR86-057-57,0.4,-0.157,0.0,2.47,4.0,,0.0,0.0,171.58
2025-08-14T23:10:42.408Z,4,GR86-057-57,-0.2,-0.18,0.008,2.47,4.0,,0.0,0.0,
2025-08-14T23:10:42.451Z,4,GR86-057-57,-0.5,-0.164,0.038,2.47,4.0,,0.0,0.0,
2025-08-14T23:10:42.494Z,4,GR86-057-57,-0.5,-0.172,0.039,2.47,4.0,,0.0,0.0,
2025-08-14T23:10:42.538Z,4,GR86-057-57,-0.1,-0.192,0.03,2.47,4.0,6506.0,0.0,0.0,
2025-08-14T23:10:42.581Z,4,GR86-057-57,-0.1,-0.184,0.019,3.41,4.0,,0.0,0.0,170.43
2025-08-14T23:10:42.624Z,4,GR86-057-57,-0.9,-0.125,-0.024,2.69,4.0,,0.0,0.0,
2025-08-14T23:10:42.667Z,4,GR86-057-57,-1.8,-0.128,-0.01,2.69,4.0,,0.0,0.0,
2025-08-14T23:10:42.710Z,4,GR86-057-57,-2.9000000000000004,-0.158,0.001,4.41,4.0,,0.0,0.0,
2025-08-14T23:10:42.754Z,4,GR86-057-57,-3.2,-0.209,-0.018,7.140000000000001,4.0,6455.0,0.0,0.0,
2025-08-14T23:10:42.796Z,4,GR86-057-57,-3.2,-0.197,-0.045,11.57,4.0,,0.0,0.0,169.21
2025-08-14T23:10:42.839Z,4,GR86-057-57,-3.2,-0.164,-0.05,22.36,4.0,,0.0,0.0,
2025-08-14T23:10:42.883Z,4,GR86-057-57,-3.1,-0.099,-0.079,29.92,4.0,,0.0,0.0,
2025-08-14T23:10:42.925Z,4,GR86-057-57,-2.4000000000000004,-0.085,-0.068,31.18,4.0,,0.0,0.0,
2025-08-14T23:10:42.968Z,4,GR86-057-57,-1.6,-0.088,-0.062,31.54,4.0,6407.0,0.0,0.0,
2025-08-14T23:10:43.011Z,4,GR86-057-57,-1.1,-0.006,-0.057,31.57,4.0,,0.0,0.0,168.01
2025-08-14T23:10:43.054Z,4,GR86-057-57,-1.0,0.234,-0.052,31.54,4.0,,0.0,0.0,
2025-08-14T23:10:43.097Z,4,GR86-057-57,-1.0,0.012,-0.066,31.67,4.0,,0.0,0.0,
2025-08-14T23:10:43.140Z,4,GR86-057-57,-1.0,-0.08,-0.054,31.82,4.0,,0.0,0.0,
2025-08-14T23:10:43.184Z,4,GR86-057-57,-1.1,0.068,-0.011,31.73,4.0,6407.0,0.0,0.0,
2025-08-14T23:10:43.226Z,4,GR86-057-57,-1.1,0.075,0.012,31.74,4.0,,0.0,0.0,166.97
2025-08-14T23:10:43.269Z,4,GR86-057-57,-0.9,-0.006,0.039,31.83,4.0,,0.0,0.0,
2025-08-14T23:10:43.314Z,4,GR86-057-57,-0.5,-0.005,0.013,31.48,4.0,,0.0,0.0,
2025-08-14T23:10:43.357Z,4,GR86-057-57,-0.3,0.016,0.02,13.91,4.0,,0.0,0.0,
2025-08-14T23:10:43.400Z,4,GR86-057-57,-0.3,0.024,0.003,4.51,4.0,6327.0,0.0,0.0,
2025-08-14T23:10:43.444Z,4,GR86-057-57,-0.3,-0.125,0.051,4.12,4.0,,0.0,0.0,166.1
2025-08-14T23:10:43.487Z,4,GR86-057-57,-0.4,-0.092,0.058,3.89,4.0,,0.0,0.0,
2025-08-14T23:10:43.530Z,4,GR86-057-57,-0.7000000000000001,-0.402,0.009,3.56,4.0,,0.0,0.0,
2025-08-14T23:10:43.574Z,4,GR86-057-57,-0.8,-0.226,0.022,3.31,4.0,,0.0,0.0,
2025-08-14T23:10:43.616Z,4,GR86-057-57,-0.8,-0.095,0.016,3.11,4.0,6484.0,0.0,0.0,
2025-08-14T23:10:43.659Z,4,GR86-057-57,-0.8,-0.152,-0.012,2.98,4.0,,0.0,0.0,166.3
2025-08-14T23:10:43.704Z,4,GR86-057-57,-0.4,-0.206,0.026,2.85,4.0,,0.0,0.0,
2025-08-14T23:10:43.747Z,4,GR86-057-57,-0.1,-0.174,-0.023,2.79,4.0,,0.0,0.0,
2025-08-14T23:10:43.790Z,4,GR86-057-57,0.4,-0.177,-0.012,2.73,4.0,,1.925,2.275,
2025-08-14T23:10:43.834Z,4,GR86-057-57,1.1,-0.225,-0.018,2.67,4.0,6159.0,5.6450000000000005,5.83,
2025-08-14T23:10:43.877Z,4,GR86-057-57,1.5,-0.269,-0.004,2.59,4.0,,10.345,10.47,166.59
2025-08-14T23:10:43.920Z,4,GR86-057-57,1.6,-0.359,-0.003,2.53,4.0,,15.185,15.09,
2025-08-14T23:10:43.964Z,4,GR86-057-57,0.8,-0.495,0.039,2.48,4.0,,18.175,18.205,
2025-08-14T23:10:44.007Z,4,GR86-057-57,0.7000000000000001,-0.561,0.018,2.47,4.0,,19.275,19.275,
2025-08-14T23:10:44.050Z,4,GR86-057-57,0.7000000000000001,-0.597,0.027,2.47,4.0,6303.0,20.845,20.845,
2025-08-14T23:10:44.094Z,4,GR86-057-57,0.8,-0.5680000000000001,0.041,2.47,4.0,,21.745,21.96,165.96
2025-08-14T23:10:44.136Z,4,GR86-057-57,1.1,-0.514,0.024,2.46,4.0,,21.775,22.22,
2025-08-14T23:10:44.179Z,4,GR86-057-57,1.1,-0.514,0.034,2.46,4.0,,21.835,22.065,
2025-08-14T23:10:44.223Z,4,GR86-057-57,0.5,-0.587,-0.008,2.46,4.0,,21.56,21.99,
2025-08-14T23:10:44.265Z,4,GR86-057-57,0.1,-0.5650000000000001,0.004,2.45,4.0,6302.0,21.96,22.28,
2025-08-14T23:10:44.309Z,4,GR86-057-57,0.1,-0.532,0.014,2.44,4.0,,22.28,22.37,161.39
2025-08-14T23:10:44.353Z,4,GR86-057-57,0.1,-0.532,0.018,2.45,4.0,,22.735,22.875,
2025-08-14T23:10:44.395Z,4,GR86-057-57,0.2,-0.561,-0.006,2.67,4.0,,23.24,23.18,
2025-08-14T23:10:44.438Z,4,GR86-057-57,0.5,-0.596,-0.027,40.21,4.0,,23.53,23.395,
2025-08-14T23:10:44.481Z,4,GR86-057-57,1.0,-0.607,-0.032,84.95,4.0,6146.0,23.3,23.745,
2025-08-14T23:10:44.524Z,4,GR86-057-57,2.5,-0.547,0.0,99.92,4.0,,21.5,22.095,157.56
2025-08-14T23:10:44.567Z,4,GR86-057-57,3.4000000000000004,-0.494,-0.051,80.55,4.0,,17.900000000000002,18.77,
2025-08-14T23:10:44.610Z,4,GR86-057-57,3.1,-0.395,-0.005,9.36,3.0,,12.39,13.245,
2025-08-14T23:10:44.654Z,4,GR86-057-57,1.7000000000000002,-0.469,0.07,3.16,3.0,,9.995,10.59,
2025-08-14T23:10:44.696Z,4,GR86-057-57,1.4,-0.458,0.017,2.84,3.0,6010.0,9.72,9.995,
2025-08-14T23:10:44.783Z,4,GR86-057-57,1.5,-0.301,0.036,2.64,3.0,,8.67,9.065,153.42000000000002
2025-08-14T23:10:44.825Z,4,GR86-057-57,0.8,-0.325,-0.007,2.56,3.0,,6.3950000000000005,6.93,
2025-08-14T23:10:44.868Z,4,GR86-057-57,0.4,-0.32,0.024,2.53,3.0,,5.4,5.995,
2025-08-14T23:10:44.911Z,4,GR86-057-57,0.1,-0.295,0.001,2.5,3.0,6830.0,5.585,5.965,
2025-08-14T23:10:44.954Z,4,GR86-057-57,0.1,-0.256,0.012,2.51,3.0,,5.615,6.09,150.27
2025-08-14T23:10:44.997Z,4,GR86-057-57,-0.1,-0.255,0.025,2.5,3.0,,6.0600000000000005,6.3950000000000005,
2025-08-14T23:10:45.041Z,4,GR86-057-57,-0.9,-0.318,0.0,2.5,3.0,,9.035,9.035,
2025-08-14T23:10:45.084Z,4,GR86-057-57,-2.0,-0.346,0.011,2.48,3.0,,13.49,13.61,
2025-08-14T23:10:45.127Z,4,GR86-057-57,-2.1,-0.426,-0.007,2.48,3.0,6685.0,15.655,15.685,
2025-08-14T23:10:45.170Z,4,GR86-057-57,-2.1,-0.529,-0.033,2.49,3.0,,17.96,18.055,148.02
2025-08-14T23:10:45.214Z,4,GR86-057-57,-1.8,-0.584,-0.05,2.48,3.0,,20.265,20.6,
2025-08-14T23:10:45.256Z,4,GR86-057-57,-0.2,-0.548,-0.03,2.48,3.0,,21.0,21.305,
2025-08-14T23:10:45.299Z,4,GR86-057-57,2.2,-0.517,-0.017,2.48,3.0,,19.67,20.175,
2025-08-14T23:10:45.343Z,4,GR86-057-57,3.8,-0.441,0.006,2.47,3.0,6591.0,13.335,14.205,
2025-08-14T23:10:45.428Z,4,GR86-057-57,3.6,-0.334,-0.002,2.48,3.0,,5.34,5.905,145.93
2025-08-14T23:10:45.471Z,4,GR86-057-57,3.1,-0.267,0.009,2.48,3.0,,3.585,4.15,
2025-08-14T23:10:45.514Z,4,GR86-057-57,1.3,-0.185,0.033,2.48,3.0,,1.83,2.165,
2025-08-14T23:10:45.557Z,4,GR86-057-57,-0.1,-0.157,0.037,2.48,3.0,6406.0,0.0,0.0,
2025-08-14T23:10:45.600Z,4,GR86-057-57,-0.5,-0.197,0.027,8.08,3.0,,0.0,0.0,142.44
2025-08-14T23:10:45.644Z,4,GR86-057-57,-0.7000000000000001,-0.192,0.043,73.59,3.0,,0.0,0.0,
2025-08-14T23:10:45.686Z,4,GR86-057-57,-1.5,-0.187,0.03,99.97,3.0,,0.0,0.0,
2025-08-14T23:10:45.729Z,4,GR86-057-57,-1.9,-0.059,0.013,99.56,2.0,,0.0,0.0,
2025-08-14T23:10:45.774Z,4,GR86-057-57,-2.1,-0.115,-0.021,49.43,2.0,6346.0,0.0,0.0,
2025-08-14T23:10:45.816Z,4,GR86-057-57,-3.2,-0.537,0.015,4.63,2.0,,0.0,0.0,140.05
2025-08-14T23:10:45.859Z,4,GR86-057-57,-3.4000000000000004,-0.355,0.038,2.91,2.0,,0.0,0.0,
2025-08-14T23:10:45.904Z,4,GR86-057-57,-2.1,-0.436,-0.133,2.74,2.0,,0.0,0.0,
2025-08-14T23:10:45.947Z,4,GR86-057-57,-2.1,-0.325,0.015,2.67,2.0,,0.0,0.0,
2025-08-14T23:10:45.990Z,4,GR86-057-57,-2.1,-0.182,-0.072,2.6,2.0,6316.0,0.0,0.0,
2025-08-14T23:10:46.034Z,4,GR86-057-57,-2.7,-0.14,-0.125,2.57,2.0,,0.0,0.0,138.8
2025-08-14T23:10:46.076Z,4,GR86-057-57,-3.9,-0.158,0.003,2.53,2.0,,0.0,0.0,
2025-08-14T23:10:46.119Z,4,GR86-057-57,-4.3,-0.178,-0.139,2.54,2.0,,0.0,0.0,
2025-08-14T23:10:46.163Z,4,GR86-057-57,-4.1000000000000005,-0.212,-0.078,2.5,2.0,,0.0,0.0,
2025-08-14T23:10:46.207Z,4,GR86-057-57,-3.4000000000000004,-0.195,-0.141,2.5,2.0,7390.0,0.0,0.0,
2025-08-14T23:10:46.250Z,4,GR86-057-57,-1.9,-0.187,-0.106,2.5,2.0,,0.0,0.0,137.71
2025-08-14T23:10:46.293Z,4,GR86-057-57,-1.2000000000000002,-0.218,-0.083,2.5,2.0,,0.0,0.0,
2025-08-14T23:10:46.336Z,4,GR86-057-57,-1.2000000000000002,-0.199,-0.098,2.5,2.0,,0.0,0.0,
2025-08-14T23:10:46.379Z,4,GR86-057-57,-1.2000000000000002,-0.168,-0.083,2.49,2.0,,0.0,0.0,
2025-08-14T23:10:46.423Z,4,GR86-057-57,-0.7000000000000001,-0.172,-0.084,2.5,2.0,7501.0,0.0,0.0,
2025-08-14T23:10:46.466Z,4,GR86-057-57,-0.5,-0.183,-0.051,2.5,2.0,,0.0,0.0,135.81
2025-08-14T23:10:46.509Z,4,GR86-057-57,-0.4,-0.216,-0.043,2.49,2.0,,3.1,3.34,
2025-08-14T23:10:46.553Z,4,GR86-057-57,-0.7000000000000001,-0.242,-0.038,2.5,2.0,,6.835,6.99,
2025-08-14T23:10:46.595Z,4,GR86-057-57,-1.4,-0.318,-0.048,2.47,2.0,,11.43,11.275,
2025-08-14T23:10:46.638Z,4,GR86-057-57,-1.3,-0.426,-0.014,2.5,2.0,7497.0,13.14,13.37,
2025-08-14T23:10:46.681Z,4,GR86-057-57,-0.5,-0.441,-0.033,2.5,2.0,,12.955,13.55,134.56
2025-08-14T23:10:46.724Z,4,GR86-057-57,0.8,-0.472,-0.013,2.47,2.0,,13.305,13.855,
2025-08-14T23:10:46.767Z,4,GR86-057-57,1.5,-0.504,-0.022,2.49,2.0,,13.52,13.95,
2025-08-14T23:10:46.810Z,4,GR86-057-57,1.9,-0.459,-0.004,2.5,2.0,,13.64,13.95,
2025-08-14T23:10:46.854Z,4,GR86-057-57,1.9,-0.44,0.012,2.49,2.0,7375.0,13.045,13.61,
2025-08-14T23:10:46.897Z,4,GR86-057-57,1.8,-0.443,-0.016,2.47,2.0,,11.185,11.735,133.27
2025-08-14T23:10:46.940Z,4,GR86-057-57,1.1,-0.359,-0.008,2.49,2.0,,10.405,10.715,
2025-08-14T23:10:46.984Z,4,GR86-057-57,0.0,-0.414,-0.016,2.5,2.0,,10.59,10.805,
2025-08-14T23:10:47.027Z,4,GR86-057-57,-0.5,-0.379,0.01,2.5,2.0,,10.68,11.125,
2025-08-14T23:10:47.070Z,4,GR86-057-57,-0.5,-0.425,-0.017,2.47,2.0,7257.0,11.46,11.78,
2025-08-14T23:10:47.114Z,4,GR86-057-57,-0.3,-0.426,-0.012,2.5,2.0,,12.955,13.14,127.91
2025-08-14T23:10:47.156Z,4,GR86-057-57,-0.5,-0.397,0.009,2.5,2.0,,13.64,14.025,
2025-08-14T23:10:47.199Z,4,GR86-057-57,-2.0,-0.465,-0.014,2.49,2.0,,13.795,14.3,
2025-08-14T23:10:47.243Z,4,GR86-057-57,-5.6000000000000005,-0.454,-0.059,2.5,2.0,,12.45,12.955,
2025-08-14T23:10:47.285Z,4,GR86-057-57,-7.6,-0.401,-0.089,2.5,2.0,7104.0,7.205,7.675,
2025-08-14T23:10:47.330Z,4,GR86-057-57,-8.200000000000001,-0.231,-0.102,2.5,2.0,,2.015,2.4250000000000003,125.36
2025-08-14T23:10:47.374Z,4,GR86-057-57,-8.4,-0.232,-0.144,2.5,2.0,,0.0,0.0,
2025-08-14T23:10:47.416Z,4,GR86-057-57,-9.4,-0.191,-0.171,2.5,2.0,,0.0,0.0,
2025-08-14T23:10:47.459Z,4,GR86-057-57,-10.3,-0.173,-0.178,2.47,2.0,,0.0,0.0,
2025-08-14T23:10:47.504Z,4,GR86-057-57,-12.5,-0.168,-0.206,2.5,2.0,6759.0,0.0,0.0,
2025-08-14T23:10:47.547Z,4,GR86-057-57,-17.6,-0.207,-0.221,2.5,2.0,,6.03,6.12,122.43
2025-08-14T23:10:47.590Z,4,GR86-057-57,-25.4,-0.285,-0.287,2.47,2.0,,12.835,12.895,
2025-08-14T23:10:47.634Z,4,GR86-057-57,-31.5,-0.458,-0.327,2.5,2.0,,20.235,20.145,
2025-08-14T23:10:47.677Z,4,GR86-057-57,-33.0,-0.612,-0.42,2.5,2.0,,26.2,25.925,
2025-08-14T23:10:47.720Z,4,GR86-057-57,-30.3,-0.625,-0.514,2.5,2.0,6755.0,28.69,28.615,
2025-08-14T23:10:47.764Z,4,GR86-057-57,-24.3,-0.673,-0.549,2.5,2.0,,27.65,28.305,121.15
2025-08-14T23:10:47.807Z,4,GR86-057-57,-22.9,-0.661,-0.552,2.49,2.0,,23.56,24.43,
2025-08-14T23:10:47.850Z,4,GR86-057-57,-23.0,-0.5700000000000001,-0.5680000000000001,2.48,2.0,,20.42,20.815,
2025-08-14T23:10:47.894Z,4,GR86-057-57,-25.6,-0.498,-0.608,2.5,2.0,,19.93,20.48,
2025-08-14T23:10:47.936Z,4,GR86-057-57,-27.200000000000003,-0.514,-0.629,2.5,2.0,6539.0,19.67,20.115,
2025-08-14T23:10:47.979Z,4,GR86-057-57,-23.4,-0.529,-0.723,2.5,2.0,,19.96,20.51,118.85
2025-08-14T23:10:48.023Z,4,GR86-057-57,-9.5,-0.524,-0.71,2.5,2.0,,19.825,20.235,
2025-08-14T23:10:48.065Z,4,GR86-057-57,-1.2000000000000002,-0.51,-0.623,2.49,2.0,,18.71,19.15,
2025-08-14T23:10:48.108Z,4,GR86-057-57,0.9,-0.502,-0.625,2.49,2.0,,17.490000000000002,18.085,
2025-08-14T23:10:48.151Z,4,GR86-057-57,-4.0,-0.466,-0.586,2.49,2.0,6334.0,16.97,17.365000000000002,
2025-08-14T23:10:48.194Z,4,GR86-057-57,-13.5,-0.501,-0.603,2.5,2.0,,16.895,17.185,116.04
2025-08-14T23:10:48.238Z,4,GR86-057-57,-22.9,-0.452,-0.7000000000000001,2.5,2.0,,17.06,17.55,
2025-08-14T23:10:48.281Z,4,GR86-057-57,-28.5,-0.482,-0.707,2.5,2.0,,17.335,17.455000000000002,
2025-08-14T23:10:48.324Z,4,GR86-057-57,-33.6,-0.515,-0.723,2.5,2.0,,17.55,17.81,
2025-08-14T23:10:48.367Z,4,GR86-057-57,-38.3,-0.49,-0.751,2.5,2.0,6046.0,17.580000000000002,17.96,
2025-08-14T23:10:48.410Z,4,GR86-057-57,-39.900000000000006,-0.498,-0.708,2.49,2.0,,17.52,17.81,112.58
2025-08-14T23:10:48.454Z,4,GR86-057-57,-37.7,-0.483,-0.724,2.5,2.0,,17.490000000000002,17.84,
2025-08-14T23:10:48.496Z,4,GR86-057-57,-36.1,-0.471,-0.709,2.5,2.0,,16.435,16.895,
2025-08-14T23:10:48.539Z,4,GR86-057-57,-37.5,-0.49,-0.722,2.49,2.0,,16.085,16.895,
2025-08-14T23:10:48.625Z,4,GR86-057-57,-41.7,-0.468,-0.772,2.5,2.0,5915.0,15.75,16.345,109.09
2025-08-14T23:10:48.668Z,4,GR86-057-57,-41.900000000000006,-0.441,-0.776,2.5,2.0,,12.865,13.55,
2025-08-14T23:10:48.711Z,4,GR86-057-57,-38.2,-0.364,-0.791,2.48,2.0,,5.8,6.365,
2025-08-14T23:10:48.754Z,4,GR86-057-57,-33.800000000000004,-0.241,-0.808,2.5,2.0,,0.0,0.0,
2025-08-14T23:10:48.797Z,4,GR86-057-57,-31.4,-0.206,-0.8250000000000001,2.49,2.0,5733.0,0.0,0.0,
2025-08-14T23:10:48.840Z,4,GR86-057-57,-32.9,-0.204,-0.802,21.88,2.0,,0.0,0.0,105.77
2025-08-14T23:10:48.884Z,4,GR86-057-57,-41.3,-0.177,-0.8170000000000001,28.45,2.0,,0.0,0.0,
2025-08-14T23:10:48.926Z,4,GR86-057-57,-48.1,-0.098,-0.844,29.51,2.0,,0.0,0.0,
2025-08-14T23:10:48.969Z,4,GR86-057-57,-53.900000000000006,-0.114,-0.863,31.6,2.0,,0.0,0.0,
2025-08-14T23:10:49.013Z,4,GR86-057-57,-58.3,-0.01,-0.883,31.71,2.0,5580.0,0.0,0.0,
2025-08-14T23:10:49.057Z,4,GR86-057-57,-60.900000000000006,0.247,-0.8250000000000001,30.43,2.0,,0.0,0.0,102.98
2025-08-14T23:10:49.100Z,4,GR86-057-57,-61.8,0.235,-0.893,29.39,2.0,,0.0,0.0,
2025-08-14T23:10:49.144Z,4,GR86-057-57,-60.400000000000006,0.093,-0.847,29.69,2.0,,0.0,0.0,
2025-08-14T23:10:49.186Z,4,GR86-057-57,-60.0,0.036,-0.853,30.17,2.0,,0.0,0.0,
2025-08-14T23:10:49.229Z,4,GR86-057-57,-61.0,0.052,-0.863,31.02,2.0,5608.0,0.0,0.0,
2025-08-14T23:10:49.273Z,4,GR86-057-57,-61.400000000000006,0.082,-0.855,31.28,2.0,,0.0,0.0,101.22
2025-08-14T23:10:49.316Z,4,GR86-057-57,-60.1,0.106,-0.873,31.57,2.0,,0.0,0.0,
2025-08-14T23:10:49.359Z,4,GR86-057-57,-58.0,0.104,-0.851,32.02,2.0,,0.0,0.0,
2025-08-14T23:10:49.404Z,4,GR86-057-57,-55.900000000000006,0.111,-0.855,32.56,2.0,,0.0,0.0,
2025-08-14T23:10:49.447Z,4,GR86-057-57,-55.400000000000006,0.101,-0.861,33.05,2.0,5727.0,0.0,0.0,
2025-08-14T23:10:49.490Z,4,GR86-057-57,-55.0,0.094,-0.859,33.33,2.0,,0.0,0.0,99.6
2025-08-14T23:10:49.534Z,4,GR86-057-57,-53.6,0.096,-0.888,33.43,2.0,,0.0,0.0,
2025-08-14T23:10:49.577Z,4,GR86-057-57,-51.8,0.119,-0.877,33.21,2.0,,0.0,0.0,
2025-08-14T23:10:49.620Z,4,GR86-057-57,-51.2,0.12,-0.857,33.29,2.0,,0.0,0.0,
2025-08-14T23:10:49.664Z,4,GR86-057-57,-51.5,0.119,-0.883,33.22,2.0,5783.0,0.0,0.0,
2025-08-14T23:10:49.707Z,4,GR86-057-57,-51.7,0.112,-0.874,33.44,2.0,,0.0,0.0,101.48
2025-08-14T23:10:49.750Z,4,GR86-057-57,-49.900000000000006,0.099,-0.879,33.83,2.0,,0.0,0.0,
2025-08-14T23:10:49.794Z,4,GR86-057-57,-47.2,0.1,-0.924,34.42,2.0,,0.0,0.0,
2025-08-14T23:10:49.836Z,4,GR86-057-57,-46.5,0.144,-0.802,34.62,2.0,,0.0,0.0,
2025-08-14T23:10:49.879Z,4,GR86-057-57,-47.1,0.101,-0.904,34.88,2.0,5846.0,0.0,0.0,
2025-08-14T23:10:49.923Z,4,GR86-057-57,-47.900000000000006,0.077,-0.741,34.38,2.0,,0.0,0.0,102.27
2025-08-14T23:10:49.965Z,4,GR86-057-57,-47.1,0.106,-0.853,33.88,2.0,,0.0,0.0,
2025-08-14T23:10:50.008Z,4,GR86-057-57,-46.900000000000006,0.129,-0.809,33.9,2.0,,0.0,0.0,
2025-08-14T23:10:50.053Z,4,GR86-057-57,-46.900000000000006,0.119,-0.841,34.03,2.0,,0.0,0.0,
2025-08-14T23:10:50.095Z,4,GR86-057-57,-47.0,0.14,-0.8200000000000001,34.1,2.0,5851.0,0.0,0.0,
2025-08-14T23:10:50.138Z,4,GR86-057-57,-47.2,0.136,-0.781,34.01,2.0,,0.0,0.0,103.02
2025-08-14T23:10:50.181Z,4,GR86-057-57,-48.400000000000006,0.099,-0.761,34.2,2.0,,0.0,0.0,
2025-08-14T23:10:50.224Z,4,GR86-057-57,-53.5,0.097,-0.803,34.410000000000004,2.0,,0.0,0.0,
2025-08-14T23:10:50.267Z,4,GR86-057-57,-56.900000000000006,0.117,-0.8140000000000001,34.35,2.0,,0.0,0.0,
2025-08-14T23:10:50.310Z,4,GR86-057-57,-57.7,0.104,-0.839,34.38,2.0,5978.0,0.0,0.0,
2025-08-14T23:10:50.354Z,4,GR86-057-57,-56.5,0.121,-0.8300000000000001,34.38,2.0,,0.0,0.0,103.64
2025-08-14T23:10:50.396Z,4,GR86-057-57,-56.0,0.11,-0.8130000000000001,34.42,2.0,,0.0,0.0,
2025-08-14T23:10:50.439Z,4,GR86-057-57,-57.2,0.112,-0.851,34.44,2.0,,0.0,0.0,
2025-08-14T23:10:50.483Z,4,GR86-057-57,-59.1,0.102,-0.838,34.42,2.0,,0.0,0.0,
2025-08-14T23:10:50.525Z,4,GR86-057-57,-59.3,0.106,-0.8160000000000001,34.38,2.0,6025.0,0.0,0.0,
2025-08-14T23:10:50.569Z,4,GR86-057-57,-59.400000000000006,0.112,-0.859,34.04,2.0,,0.0,0.0,103.9
2025-08-14T23:10:50.613Z,4,GR86-057-57,-59.400000000000006,0.113,-0.8230000000000001,33.57,2.0,,0.0,0.0,
2025-08-14T23:10:50.699Z,4,GR86-057-57,-60.400000000000006,0.112,-0.836,33.19,2.0,,0.0,0.0,
2025-08-14T23:10:50.743Z,4,GR86-057-57,-62.0,0.104,-0.8270000000000001,31.6,2.0,6068.0,0.0,0.0,
2025-08-14T23:10:50.785Z,4,GR86-057-57,-62.0,0.081,-0.852,31.7,2.0,,0.0,0.0,105.38
2025-08-14T23:10:50.828Z,4,GR86-057-57,-61.900000000000006,0.094,-0.874,31.82,2.0,,0.0,0.0,
2025-08-14T23:10:50.871Z,4,GR86-057-57,-61.900000000000006,0.074,-0.887,32.02,2.0,,0.0,0.0,
2025-08-14T23:10:50.914Z,4,GR86-057-57,-61.900000000000006,0.07,-0.94,32.49,2.0,,0.0,0.0,
2025-08-14T23:10:50.957Z,4,GR86-057-57,-61.900000000000006,0.081,-0.913,32.89,2.0,6079.0,0.0,0.0,
2025-08-14T23:10:51.000Z,4,GR86-057-57,-61.8,0.089,-0.911,33.68,2.0,,0.0,0.0,106.27
2025-08-14T23:10:51.044Z,4,GR86-057-57,-61.8,0.109,-0.876,35.01,2.0,,0.0,0.0,
2025-08-14T23:10:51.086Z,4,GR86-057-57,-61.8,0.107,-0.875,35.15,2.0,,0.0,0.0,
2025-08-14T23:10:51.130Z,4,GR86-057-57,-61.8,0.099,-0.907,35.11,2.0,,0.0,0.0,
2025-08-14T23:10:51.174Z,4,GR86-057-57,-61.8,0.127,-0.895,34.92,2.0,6162.0,0.0,0.0,
2025-08-14T23:10:51.216Z,4,GR86-057-57,-61.8,0.107,-0.876,34.74,2.0,,0.0,0.0,106.95
2025-08-14T23:10:51.259Z,4,GR86-057-57,-61.8,0.105,-0.889,34.63,2.0,,0.0,0.0,
2025-08-14T23:10:51.304Z,4,GR86-057-57,-61.8,0.097,-0.915,34.51,2.0,,0.0,0.0,
2025-08-14T23:10:51.347Z,4,GR86-057-57,-61.400000000000006,0.103,-0.941,34.44,2.0,,0.0,0.0,
2025-08-14T23:10:51.390Z,4,GR86-057-57,-60.6,0.104,-0.963,34.33,2.0,6174.0,0.0,0.0,
2025-08-14T23:10:51.434Z,4,GR86-057-57,-59.400000000000006,0.099,-0.967,33.97,2.0,,0.0,0.0,107.56
2025-08-14T23:10:51.476Z,4,GR86-057-57,-57.7,0.101,-0.946,33.69,2.0,,0.0,0.0,
2025-08-14T23:10:51.519Z,4,GR86-057-57,-55.6,0.104,-0.979,33.57,2.0,,0.0,0.0,
2025-08-14T23:10:51.565Z,4,GR86-057-57,-52.5,0.118,-0.933,33.59,2.0,,0.0,0.0,
2025-08-14T23:10:51.607Z,4,GR86-057-57,-51.7,0.107,-0.92,33.68,2.0,6212.0,0.0,0.0,
2025-08-14T23:10:51.650Z,4,GR86-057-57,-52.3,0.119,-0.922,33.75,2.0,,0.0,0.0,108.01
2025-08-14T23:10:51.694Z,4,GR86-057-57,-53.400000000000006,0.09,-0.937,34.01,2.0,,0.0,0.0,
2025-08-14T23:10:51.736Z,4,GR86-057-57,-53.6,0.11,-0.932,34.980000000000004,2.0,,0.0,0.0,
2025-08-14T23:10:51.779Z,4,GR86-057-57,-52.2,0.115,-0.934,36.72,2.0,,0.0,0.0,
2025-08-14T23:10:51.823Z,4,GR86-057-57,-48.8,0.121,-0.892,37.27,2.0,6241.0,0.0,0.0,
2025-08-14T23:10:51.866Z,4,GR86-057-57,-46.2,0.113,-0.901,37.51,2.0,,0.0,0.0,108.82
2025-08-14T23:10:51.909Z,4,GR86-057-57,-43.6,0.145,-0.91,37.94,2.0,,0.0,0.0,
2025-08-14T23:10:51.953Z,4,GR86-057-57,-42.1,0.14,-0.869,38.18,2.0,,0.0,0.0,
2025-08-14T23:10:51.995Z,4,GR86-057-57,-42.0,0.146,-0.873,38.24,2.0,,0.0,0.0,
2025-08-14T23:10:52.038Z,4,GR86-057-57,-42.0,0.13,-0.844,38.24,2.0,6268.0,0.0,0.0,
2025-08-14T23:10:52.081Z,4,GR86-057-57,-41.7,0.134,-0.8270000000000001,38.27,2.0,,0.0,0.0,109.41
2025-08-14T23:10:52.124Z,4,GR86-057-57,-40.400000000000006,0.139,-0.8320000000000001,38.86,2.0,,0.0,0.0,
2025-08-14T23:10:52.167Z,4,GR86-057-57,-40.1,0.155,-0.8160000000000001,40.8,2.0,,0.0,0.0,
2025-08-14T23:10:52.210Z,4,GR86-057-57,-39.8,0.158,-0.8,43.77,2.0,,0.0,0.0,
2025-08-14T23:10:52.254Z,4,GR86-057-57,-38.400000000000006,0.147,-0.801,46.92,2.0,6318.0,0.0,0.0,
2025-08-14T23:10:52.297Z,4,GR86-057-57,-36.1,0.145,-0.784,53.27,2.0,,0.0,0.0,109.89
2025-08-14T23:10:52.340Z,4,GR86-057-57,-33.6,0.163,-0.775,59.67,2.0,,0.0,0.0,
2025-08-14T23:10:52.384Z,4,GR86-057-57,-29.5,0.217,-0.756,77.31,2.0,,0.0,0.0,
2025-08-14T23:10:52.427Z,4,GR86-057-57,-26.5,0.261,-0.721,98.34,2.0,,0.0,0.0,
2025-08-14T23:10:52.470Z,4,GR86-057-57,-23.6,0.25,-0.665,99.88,2.0,6354.0,0.0,0.0,
2025-08-14T23:10:52.514Z,4,GR86-057-57,-20.9,0.23,-0.638,99.87,2.0,,0.0,0.0,110.35
2025-08-14T23:10:52.556Z,4,GR86-057-57,-18.1,0.225,-0.606,99.89,2.0,,0.0,0.0,
2025-08-14T23:10:52.599Z,4,GR86-057-57,-15.3,0.241,-0.562,99.92,2.0,,0.0,0.0,
2025-08-14T23:10:52.643Z,4,GR86-057-57,-11.3,0.253,-0.471,99.88,2.0,,0.0,0.0,
2025-08-14T23:10:52.685Z,4,GR86-057-57,-10.4,0.257,-0.425,99.91,2.0,6440.0,0.0,0.0,
2025-08-14T23:10:52.728Z,4,GR86-057-57,-10.3,0.236,-0.342,99.91,2.0,,0.0,0.0,111.52
2025-08-14T23:10:52.771Z,4,GR86-057-57,-10.3,0.228,-0.302,99.9,2.0,,0.0,0.0,
2025-08-14T23:10:52.814Z,4,GR86-057-57,-10.3,0.248,-0.254,99.91,2.0,,0.0,0.0,
2025-08-14T23:10:52.857Z,4,GR86-057-57,-10.3,0.254,-0.209,99.9,2.0,,0.0,0.0,
2025-08-14T23:10:52.900Z,4,GR86-057-57,-10.3,0.247,-0.205,99.9,2.0,6521.0,0.0,0.0,
2025-08-14T23:10:52.944Z,4,GR86-057-57,-9.8,0.231,-0.17,99.91,2.0,,0.0,0.0,113.14
2025-08-14T23:10:52.987Z,4,GR86-057-57,-9.2,0.229,-0.127,99.91,2.0,,0.0,0.0,
2025-08-14T23:10:53.029Z,4,GR86-057-57,-8.700000000000001,0.237,-0.125,99.9,2.0,,0.0,0.0,
2025-08-14T23:10:53.074Z,4,GR86-057-57,-8.6,0.259,-0.133,99.91,2.0,,0.0,0.0,
2025-08-14T23:10:53.116Z,4,GR86-057-57,-8.8,0.246,-0.122,99.91,2.0,6669.0,0.0,0.0,
2025-08-14T23:10:53.159Z,4,GR86-057-57,-9.1,0.227,-0.134,99.9,2.0,,0.0,0.0,114.79
2025-08-14T23:10:53.204Z,4,GR86-057-57,-9.1,0.237,-0.141,99.91,2.0,,0.0,0.0,
2025-08-14T23:10:53.247Z,4,GR86-057-57,-9.1,0.252,-0.133,99.92,2.0,,0.0,0.0,
2025-08-14T23:10:53.290Z,4,GR86-057-57,-9.0,0.227,-0.123,99.91,2.0,,0.0,0.0,
2025-08-14T23:10:53.334Z,4,GR86-057-57,-8.6,0.236,-0.143,99.9,2.0,6732.0,0.0,0.0,
2025-08-14T23:10:53.377Z,4,GR86-057-57,-8.1,0.254,-0.148,99.9,2.0,,0.0,0.0,116.44
2025-08-14T23:10:53.420Z,4,GR86-057-57,-8.0,0.251,-0.138,99.91,2.0,,0.0,0.0,
2025-08-14T23:10:53.464Z,4,GR86-057-57,-8.3,0.234,-0.139,99.92,2.0,,0.0,0.0,
2025-08-14T23:10:53.507Z,4,GR86-057-57,-8.3,0.233,-0.148,99.93,2.0,,0.0,0.0,
2025-08-14T23:10:53.550Z,4,GR86-057-57,-8.1,0.252,-0.143,99.9,2.0,6869.0,0.0,0.0,
2025-08-14T23:10:53.594Z,4,GR86-057-57,-7.1000000000000005,0.238,-0.134,99.91,2.0,,0.0,0.0,118.09
2025-08-14T23:10:53.636Z,4,GR86-057-57,-6.6000000000000005,0.232,-0.14,99.92,2.0,,0.0,0.0,
2025-08-14T23:10:53.679Z,4,GR86-057-57,-6.4,0.227,-0.117,99.91,2.0,,0.0,0.0,
2025-08-14T23:10:53.723Z,4,GR86-057-57,-5.2,0.24,-0.113,99.91,2.0,,0.0,0.0,
2025-08-14T23:10:53.765Z,4,GR86-057-57,-4.1000000000000005,0.234,-0.104,99.92,2.0,6971.0,0.0,0.0,
2025-08-14T23:10:53.808Z,4,GR86-057-57,-3.3000000000000003,0.239,-0.108,99.91,2.0,,0.0,0.0,119.74
2025-08-14T23:10:53.851Z,4,GR86-057-57,-3.0,0.237,-0.077,99.92,2.0,,0.0,0.0,
2025-08-14T23:10:53.894Z,4,GR86-057-57,-2.1,0.232,-0.061,99.92,2.0,,0.0,0.0,
2025-08-14T23:10:53.938Z,4,GR86-057-57,-0.5,0.227,-0.051,99.93,2.0,,0.0,0.0,
2025-08-14T23:10:53.981Z,4,GR86-057-57,0.8,0.131,-0.015,99.93,2.0,7032.0,0.0,0.0,
2025-08-14T23:10:54.024Z,4,GR86-057-57,1.0,0.17,0.057,99.93,3.0,,0.0,0.0,121.46
2025-08-14T23:10:54.067Z,4,GR86-057-57,2.4000000000000004,0.631,-0.001,99.93,3.0,,0.0,0.0,
2025-08-14T23:10:54.110Z,4,GR86-057-57,3.3000000000000003,0.314,-0.016,99.93,3.0,,0.0,0.0,
2025-08-14T23:10:54.154Z,4,GR86-057-57,3.1,0.085,0.118,99.93,3.0,,0.0,0.0,
2025-08-14T23:10:54.196Z,4,GR86-057-57,2.2,0.054,0.11,99.93,3.0,7122.0,0.0,0.0,
2025-08-14T23:10:54.239Z,4,GR86-057-57,1.6,0.181,0.066,99.93,3.0,,0.0,0.0,123.2
2025-08-14T23:10:54.283Z,4,GR86-057-57,0.5,0.243,0.115,99.92,3.0,,0.0,0.0,
2025-08-14T23:10:54.325Z,4,GR86-057-57,0.0,0.21,0.057,99.91,3.0,,0.0,0.0,
2025-08-14T23:10:54.368Z,4,GR86-057-57,0.0,0.185,0.126,99.92,3.0,,0.0,0.0,
2025-08-14T23:10:54.411Z,4,GR86-057-57,0.0,0.168,0.118,99.94,3.0,5838.0,0.0,0.0,
2025-08-14T23:10:54.454Z,4,GR86-057-57,-0.2,0.187,0.097,99.93,3.0,,0.0,0.0,124.69
2025-08-14T23:10:54.497Z,4,GR86-057-57,-0.5,0.211,0.093,99.93,3.0,,0.0,0.0,
2025-08-14T23:10:54.540Z,4,GR86-057-57,-0.7000000000000001,0.211,0.106,99.92,3.0,,0.0,0.0,
2025-08-14T23:10:54.584Z,4,GR86-057-57,-0.7000000000000001,0.189,0.095,99.93,3.0,,0.0,0.0,
2025-08-14T23:10:54.626Z,4,GR86-057-57,-0.7000000000000001,0.178,0.083,99.94,3.0,5944.0,0.0,0.0,
2025-08-14T23:10:54.669Z,4,GR86-057-57,-0.7000000000000001,0.192,0.044,99.91,3.0,,0.0,0.0,126.47
2025-08-14T23:10:54.714Z,4,GR86-057-57,-0.7000000000000001,0.222,0.056,99.91,3.0,,0.0,0.0,
2025-08-14T23:10:54.757Z,4,GR86-057-57,-0.7000000000000001,0.199,0.059,99.91,3.0,,0.0,0.0,
2025-08-14T23:10:54.800Z,4,GR86-057-57,-0.8,0.192,0.028,99.91,3.0,,0.0,0.0,
2025-08-14T23:10:54.844Z,4,GR86-057-57,-0.8,0.181,0.04,99.93,3.0,6015.0,0.0,0.0,
2025-08-14T23:10:54.886Z,4,GR86-057-57,-0.8,0.193,0.033,99.95,3.0,,0.0,0.0,127.99
2025-08-14T23:10:54.929Z,4,GR86-057-57,-0.8,0.197,0.056,99.91,3.0,,0.0,0.0,
2025-08-14T23:10:54.974Z,4,GR86-057-57,-0.8,0.187,0.059,99.9,3.0,,0.0,0.0,
2025-08-14T23:10:55.016Z,4,GR86-057-57,-0.8,0.186,0.023,99.92,3.0,,0.0,0.0,
2025-08-14T23:10:55.059Z,4,GR86-057-57,-0.8,0.21,0.033,99.91,3.0,6073.0,0.0,0.0,
2025-08-14T23:10:55.105Z,4,GR86-057-57,-0.8,0.19,0.017,99.92,3.0,,0.0,0.0,131.06
2025-08-14T23:10:55.147Z,4,GR86-057-57,-0.8,0.182,0.048,99.94,3.0,,0.0,0.0,
2025-08-14T23:10:55.190Z,4,GR86-057-57,-0.8,0.173,0.055,99.92,3.0,,0.0,0.0,
2025-08-14T23:10:55.234Z,4,GR86-057-57,-0.8,0.181,0.033,99.93,3.0,,0.0,0.0,
2025-08-14T23:10:55.276Z,4,GR86-057-57,-0.8,0.207,0.027,99.92,3.0,6176.0,0.0,0.0,
2025-08-14T23:10:55.319Z,4,GR86-057-57,-0.8,0.197,0.055,99.93,3.0,,0.0,0.0,132.66
2025-08-14T23:10:55.363Z,4,GR86-057-57,-0.8,0.188,0.062,99.9,3.0,,0.0,0.0,
2025-08-14T23:10:55.405Z,4,GR86-057-57,-0.8,0.163,0.075,99.92,3.0,,0.0,0.0,
2025-08-14T23:10:55.448Z,4,GR86-057-57,-1.2000000000000002,0.184,0.047,99.9,3.0,,0.0,0.0,
2025-08-14T23:10:55.491Z,4,GR86-057-57,-1.8,0.196,0.017,99.93,3.0,6188.0,0.0,0.0,
2025-08-14T23:10:55.534Z,4,GR86-057-57,-2.1,0.195,0.035,99.93,3.0,,0.0,0.0,134.14
2025-08-14T23:10:55.577Z,4,GR86-057-57,-2.2,0.16,0.048,99.92,3.0,,0.0,0.0,
2025-08-14T23:10:55.620Z,4,GR86-057-57,-2.3000000000000003,0.164,0.022,99.92,3.0,,0.0,0.0,
2025-08-14T23:10:55.664Z,4,GR86-057-57,-2.3000000000000003,0.161,0.013,99.9,3.0,,0.0,0.0,
2025-08-14T23:10:55.707Z,4,GR86-057-57,-2.3000000000000003,0.169,-0.014,99.92,3.0,6374.0,0.0,0.0,
2025-08-14T23:10:55.750Z,4,GR86-057-57,-2.3000000000000003,0.187,-0.008,99.92,3.0,,0.0,0.0,135.68
2025-08-14T23:10:55.794Z,4,GR86-057-57,-2.3000000000000003,0.167,0.005,99.93,3.0,,0.0,0.0,
2025-08-14T23:10:55.836Z,4,GR86-057-57,-2.3000000000000003,0.15,0.0,99.91,3.0,,0.0,0.0,
2025-08-14T23:10:55.879Z,4,GR86-057-57,-2.3000000000000003,0.162,-0.033,99.93,3.0,,0.0,0.0,
2025-08-14T23:10:55.923Z,4,GR86-057-57,-2.3000000000000003,0.144,-0.014,99.92,3.0,6465.0,0.0,0.0,
2025-08-14T23:10:55.965Z,4,GR86-057-57,-2.3000000000000003,0.172,-0.029,99.91,3.0,,0.0,0.0,137.15
2025-08-14T23:10:56.009Z,4,GR86-057-57,-2.3000000000000003,0.187,-0.024,99.93,3.0,,0.0,0.0,
2025-08-14T23:10:56.053Z,4,GR86-057-57,-2.2,0.183,-0.017,99.91,3.0,,0.0,0.0,
2025-08-14T23:10:56.095Z,4,GR86-057-57,-1.9,0.153,-0.018,99.91,3.0,,0.0,0.0,
2025-08-14T23:10:56.138Z,4,GR86-057-57,-1.7000000000000002,0.147,-0.033,99.91,3.0,6536.0,0.0,0.0,
2025-08-14T23:10:56.181Z,4,GR86-057-57,-1.7000000000000002,0.184,-0.025,99.92,3.0,,0.0,0.0,138.68
2025-08-14T23:10:56.224Z,4,GR86-057-57,-1.8,0.162,-0.014,99.91,3.0,,0.0,0.0,
2025-08-14T23:10:56.267Z,4,GR86-057-57,-1.8,0.193,-0.017,99.91,3.0,,0.0,0.0,
2025-08-14T23:10:56.310Z,4,GR86-057-57,-1.4,0.185,0.01,99.91,3.0,,0.0,0.0,
2025-08-14T23:10:56.354Z,4,GR86-057-57,-0.5,0.163,0.015,99.91,3.0,6600.0,0.0,0.0,
2025-08-14T23:10:56.396Z,4,GR86-057-57,0.4,0.156,0.007,99.92,3.0,,0.0,0.0,140.23
2025-08-14T23:10:56.439Z,4,GR86-057-57,1.0,0.176,0.031,99.92,3.0,,0.0,0.0,
2025-08-14T23:10:56.483Z,4,GR86-057-57,1.2000000000000002,0.141,0.049,99.9,3.0,,0.0,0.0,
2025-08-14T23:10:56.525Z,4,GR86-057-57,1.2000000000000002,0.173,0.04,99.92,3.0,,0.0,0.0,
2025-08-14T23:10:56.568Z,4,GR86-057-57,0.6000000000000001,0.206,0.057,96.08,3.0,6677.0,0.0,0.0,
2025-08-14T23:10:56.611Z,4,GR86-057-57,-0.6000000000000001,0.175,0.07,96.72,3.0,,0.0,0.0,141.84
2025-08-14T23:10:56.654Z,4,GR86-057-57,-1.4,0.142,0.068,98.39,3.0,,0.0,0.0,
2025-08-14T23:10:56.697Z,4,GR86-057-57,-1.6,0.133,0.066,99.05,3.0,,0.0,0.0,
2025-08-14T23:10:56.740Z,4,GR86-057-57,-1.6,0.177,0.066,99.54,3.0,,0.0,0.0,
2025-08-14T23:10:56.784Z,4,GR86-057-57,-1.4,0.162,0.056,99.79,3.0,6720.0,0.0,0.0,
2025-08-14T23:10:56.827Z,4,GR86-057-57,-1.4,0.173,0.031,99.13,3.0,,0.0,0.0,143.56
2025-08-14T23:10:56.870Z,4,GR86-057-57,-1.4,0.174,0.047,97.28,3.0,,0.0,0.0,
2025-08-14T23:10:56.914Z,4,GR86-057-57,-1.6,0.165,0.049,96.84,3.0,,0.0,0.0,
2025-08-14T23:10:56.956Z,4,GR86-057-57,-2.4000000000000004,0.158,0.032,93.72,3.0,,0.0,0.0,
2025-08-14T23:10:56.999Z,4,GR86-057-57,-3.4000000000000004,0.172,0.01,82.56,3.0,6824.0,0.0,0.0,
2025-08-14T23:10:57.043Z,4,GR86-057-57,-4.3,0.129,0.01,61.58,3.0,,0.0,0.0,145.23
2025-08-14T23:10:57.085Z,4,GR86-057-57,-5.1000000000000005,0.129,-0.029,58.32,3.0,,0.0,0.0,
2025-08-14T23:10:57.128Z,4,GR86-057-57,-6.0,0.165,-0.04,58.72,3.0,,0.0,0.0,
2025-08-14T23:10:57.171Z,4,GR86-057-57,-6.7,0.175,-0.038,58.89,3.0,,0.0,0.0,
2025-08-14T23:10:57.214Z,4,GR86-057-57,-7.5,0.14,-0.075,59.01,3.0,6910.0,0.0,0.0,
2025-08-14T23:10:57.257Z,4,GR86-057-57,-8.0,0.099,-0.074,59.18,3.0,,0.0,0.0,146.84
2025-08-14T23:10:57.300Z,4,GR86-057-57,-8.6,0.089,-0.12,58.66,3.0,,0.0,0.0,
2025-08-14T23:10:57.344Z,4,GR86-057-57,-9.8,0.138,-0.132,54.65,3.0,,0.0,0.0,
2025-08-14T23:10:57.387Z,4,GR86-057-57,-10.4,0.1,-0.154,53.57,3.0,,0.0,0.0,
2025-08-14T23:10:57.430Z,4,GR86-057-57,-11.2,0.096,-0.196,53.52,3.0,6994.0,0.0,0.0,
2025-08-14T23:10:57.474Z,4,GR86-057-57,-11.9,0.119,-0.245,53.36,3.0,,0.0,0.0,148.42000000000002
2025-08-14T23:10:57.516Z,4,GR86-057-57,-12.6,0.138,-0.28,49.870000000000005,3.0,,0.0,0.0,
2025-08-14T23:10:57.559Z,4,GR86-057-57,-12.8,0.133,-0.277,42.74,3.0,,0.0,0.0,
2025-08-14T23:10:57.604Z,4,GR86-057-57,-12.5,0.117,-0.327,38.0,3.0,,0.0,0.0,
2025-08-14T23:10:57.647Z,4,GR86-057-57,-11.6,0.11,-0.321,32.35,3.0,7000.0,0.0,0.0,
2025-08-14T23:10:57.690Z,4,GR86-057-57,-11.1,0.088,-0.296,3.2,3.0,,0.0,0.0,150.19
2025-08-14T23:10:57.734Z,4,GR86-057-57,-10.8,0.038,-0.306,3.83,3.0,,0.0,0.0,
2025-08-14T23:10:57.776Z,4,GR86-057-57,-10.8,-0.114,-0.314,3.74,3.0,,0.0,0.0,
2025-08-14T23:10:57.819Z,4,GR86-057-57,-10.8,-0.1,-0.317,3.49,3.0,,0.0,0.0,
2025-08-14T23:10:57.863Z,4,GR86-057-57,-10.9,-0.406,-0.305,3.21,3.0,7096.0,0.0,0.0,
2025-08-14T23:10:57.908Z,4,GR86-057-57,-10.9,-0.222,-0.27,3.04,3.0,,0.0,0.0,152.89
2025-08-14T23:10:57.951Z,4,GR86-057-57,-10.9,-0.121,-0.327,2.95,3.0,,0.0,0.0,
2025-08-14T23:10:57.994Z,4,GR86-057-57,-10.7,-0.159,-0.316,2.86,3.0,,0.0,0.0,
2025-08-14T23:10:58.038Z,4,GR86-057-57,-10.6,-0.206,-0.293,2.78,3.0,,3.785,4.03,
2025-08-14T23:10:58.081Z,4,GR86-057-57,-10.3,-0.241,-0.305,2.71,3.0,7081.0,7.46,7.46,
2025-08-14T23:10:58.124Z,4,GR86-057-57,-9.8,-0.342,-0.275,2.58,3.0,,11.905,12.025,153.86
2025-08-14T23:10:58.167Z,4,GR86-057-57,-9.4,-0.362,-0.259,2.53,3.0,,12.74,12.865,
2025-08-14T23:10:58.210Z,4,GR86-057-57,-8.8,-0.408,-0.256,2.53,3.0,,12.59,12.865,
2025-08-14T23:10:58.254Z,4,GR86-057-57,-8.3,-0.475,-0.276,2.5,3.0,,12.24,12.56,
2025-08-14T23:10:58.297Z,4,GR86-057-57,-7.6,-0.476,-0.27,2.5,3.0,7019.0,9.72,10.27,
2025-08-14T23:10:58.340Z,4,GR86-057-57,-6.4,-0.322,-0.26,2.5,3.0,,4.595,5.25,153.03
2025-08-14T23:10:58.384Z,4,GR86-057-57,-5.2,-0.22,-0.224,2.48,3.0,,0.0,0.0,
2025-08-14T23:10:58.427Z,4,GR86-057-57,-5.2,-0.215,-0.238,2.47,3.0,,0.0,0.0,
2025-08-14T23:10:58.470Z,4,GR86-057-57,-5.2,-0.189,-0.219,2.47,3.0,,0.0,0.0,
2025-08-14T23:10:58.514Z,4,GR86-057-57,-5.0,-0.186,-0.212,2.48,3.0,6841.0,0.0,0.0,
2025-08-14T23:10:58.556Z,4,GR86-057-57,-4.5,-0.206,-0.183,2.47,3.0,,0.0,0.0,150.35
2025-08-14T23:10:58.599Z,4,GR86-057-57,-4.4,-0.212,-0.168,2.48,3.0,,2.335,2.52,
2025-08-14T23:10:58.643Z,4,GR86-057-57,-4.5,-0.236,-0.116,2.47,3.0,,3.1,3.16,
2025-08-14T23:10:58.685Z,4,GR86-057-57,-4.800000000000001,-0.268,-0.092,2.49,3.0,,3.28,3.465,
2025-08-14T23:10:58.728Z,4,GR86-057-57,-5.9,-0.291,-0.11,2.49,3.0,6737.0,5.74,5.83,
2025-08-14T23:10:58.771Z,4,GR86-057-57,-6.800000000000001,-0.333,-0.099,2.49,3.0,,8.485,8.425,148.91
2025-08-14T23:10:58.814Z,4,GR86-057-57,-7.800000000000001,-0.354,-0.09,2.48,3.0,,11.155,11.125,
2025-08-14T23:10:58.857Z,4,GR86-057-57,-8.4,-0.383,-0.091,2.5,3.0,,13.705,13.55,
2025-08-14T23:10:58.900Z,4,GR86-057-57,-8.700000000000001,-0.489,-0.124,2.48,3.0,,15.475,15.395,
2025-08-14T23:10:58.944Z,4,GR86-057-57,-8.6,-0.468,-0.131,2.48,3.0,6735.0,16.68,16.71,
2025-08-14T23:10:58.987Z,4,GR86-057-57,-7.9,-0.512,-0.17,2.49,3.0,,15.99,16.375,148.14
2025-08-14T23:10:59.030Z,4,GR86-057-57,-7.2,-0.528,-0.186,2.47,3.0,,14.33,14.97,
2025-08-14T23:10:59.074Z,4,GR86-057-57,-7.1000000000000005,-0.426,-0.186,2.5,3.0,,10.775,11.4,
2025-08-14T23:10:59.116Z,4,GR86-057-57,-7.1000000000000005,-0.3,-0.179,2.48,3.0,,8.01,8.545,
2025-08-14T23:10:59.159Z,4,GR86-057-57,-6.7,-0.312,-0.197,2.5,3.0,6569.0,7.83,8.09,
2025-08-14T23:10:59.204Z,4,GR86-057-57,-6.4,-0.332,-0.203,2.5,3.0,,11.49,11.43,145.9
2025-08-14T23:10:59.247Z,4,GR86-057-57,-6.4,-0.433,-0.218,2.5,3.0,,13.46,13.46,
2025-08-14T23:10:59.290Z,4,GR86-057-57,-6.300000000000001,-0.507,-0.221,2.49,3.0,,15.06,15.06,
2025-08-14T23:10:59.334Z,4,GR86-057-57,-6.0,-0.492,-0.201,2.49,3.0,,16.465,16.405,
2025-08-14T23:10:59.377Z,4,GR86-057-57,-5.300000000000001,-0.432,-0.17,2.5,3.0,6433.0,17.275000000000002,17.305,
2025-08-14T23:10:59.420Z,4,GR86-057-57,-3.2,-0.464,-0.147,2.49,3.0,,17.580000000000002,17.87,142.83
2025-08-14T23:10:59.464Z,4,GR86-057-57,-1.6,-0.473,-0.132,2.48,3.0,,19.425,19.395,
2025-08-14T23:10:59.507Z,4,GR86-057-57,-3.2,-0.5720000000000001,-0.114,2.5,3.0,,21.655,21.5,
2025-08-14T23:10:59.550Z,4,GR86-057-57,-4.6000000000000005,-0.649,-0.141,2.49,3.0,,23.395,23.025,
2025-08-14T23:10:59.594Z,4,GR86-057-57,-6.1000000000000005,-0.5720000000000001,-0.166,2.49,3.0,6396.0,23.485,23.715,
2025-08-14T23:10:59.636Z,4,GR86-057-57,-7.300000000000001,-0.54,-0.153,2.48,3.0,,23.12,23.53,140.85
2025-08-14T23:10:59.679Z,4,GR86-057-57,-7.300000000000001,-0.597,-0.158,2.48,3.0,,22.34,22.705,
2025-08-14T23:10:59.723Z,4,GR86-057-57,-7.1000000000000005,-0.545,-0.155,2.49,3.0,,18.235,19.12,
2025-08-14T23:10:59.765Z,4,GR86-057-57,-5.7,-0.507,-0.194,2.48,3.0,,15.535,16.375,
2025-08-14T23:10:59.808Z,4,GR86-057-57,-3.0,-0.421,-0.188,2.5,3.0,6225.0,12.925,13.765,
2025-08-14T23:10:59.851Z,4,GR86-057-57,-2.2,-0.366,-0.167,2.5,3.0,,10.56,11.31,137.77
2025-08-14T23:10:59.894Z,4,GR86-057-57,-2.1,-0.398,-0.172,2.48,3.0,,9.035,9.72,
2025-08-14T23:10:59.938Z,4,GR86-057-57,-2.0,-0.319,-0.187,35.29,3.0,,6.515000000000001,7.205,
2025-08-14T23:10:59.981Z,4,GR86-057-57,-1.6,-0.204,-0.162,79.88,3.0,,2.825,3.37,
2025-08-14T23:11:00.024Z,4,GR86-057-57,-0.5,-0.12,-0.122,99.85,3.0,6002.0,0.0,0.0,
2025-08-14T23:11:00.067Z,4,GR86-057-57,0.2,-0.094,-0.085,86.34,2.0,,0.0,0.0,133.97
2025-08-14T23:11:00.110Z,4,GR86-057-57,-0.1,-0.245,-0.105,15.08,2.0,,0.0,0.0,
2025-08-14T23:11:00.154Z,4,GR86-057-57,-1.3,-0.537,0.009,3.13,2.0,,2.245,2.4250000000000003,
2025-08-14T23:11:00.196Z,4,GR86-057-57,-1.7000000000000002,-0.28,0.015,2.89,2.0,,2.885,3.1,
2025-08-14T23:11:00.283Z,4,GR86-057-57,-0.7000000000000001,-0.247,-0.076,2.79,2.0,5910.0,3.19,3.405,130.94
2025-08-14T23:11:00.325Z,4,GR86-057-57,-2.2,-0.305,-0.069,2.59,2.0,,3.755,4.18,
2025-08-14T23:11:00.368Z,4,GR86-057-57,-2.2,-0.223,0.009,2.53,2.0,,3.1,3.465,
2025-08-14T23:11:00.413Z,4,GR86-057-57,-2.2,-0.25,0.041,2.51,2.0,,6.625,6.865,
2025-08-14T23:11:00.457Z,4,GR86-057-57,-2.5,-0.398,-0.068,2.5,2.0,6569.0,12.115,12.025,
2025-08-14T23:11:00.501Z,4,GR86-057-57,-3.5,-0.433,-0.037,2.49,2.0,,18.085,17.84,130.09
2025-08-14T23:11:00.544Z,4,GR86-057-57,-4.6000000000000005,-0.612,-0.097,2.47,2.0,,27.025,26.72,
2025-08-14T23:11:00.587Z,4,GR86-057-57,-5.2,-0.656,-0.069,2.47,2.0,,30.965,30.64,
2025-08-14T23:11:00.631Z,4,GR86-057-57,-5.1000000000000005,-0.738,-0.102,2.47,2.0,,33.77,33.345,
2025-08-14T23:11:00.674Z,4,GR86-057-57,-4.3,-0.726,-0.118,2.47,2.0,7135.0,35.265,34.9,
2025-08-14T23:11:00.716Z,4,GR86-057-57,-3.3000000000000003,-0.778,-0.133,2.47,2.0,,34.96,34.9,127.25
2025-08-14T23:11:00.759Z,4,GR86-057-57,-3.0,-0.8180000000000001,-0.131,2.47,2.0,,34.745,34.685,
2025-08-14T23:11:00.804Z,4,GR86-057-57,-2.3000000000000003,-0.741,-0.16,2.47,2.0,,31.45,32.335,
2025-08-14T23:11:00.847Z,4,GR86-057-57,-1.7000000000000002,-0.642,-0.153,2.47,2.0,,28.78,29.62,
2025-08-14T23:11:00.890Z,4,GR86-057-57,-1.4,-0.648,-0.148,2.47,2.0,7038.0,25.27,26.23,
2025-08-14T23:11:00.934Z,4,GR86-057-57,-1.3,-0.594,-0.17,2.47,2.0,,19.67,20.6,122.72
2025-08-14T23:11:00.977Z,4,GR86-057-57,-1.2000000000000002,-0.452,-0.163,2.47,2.0,,13.43,14.175,
2025-08-14T23:11:01.020Z,4,GR86-057-57,-1.2000000000000002,-0.384,-0.15,2.47,2.0,,9.905,10.53,
2025-08-14T23:11:01.064Z,4,GR86-057-57,-3.0,-0.402,-0.148,2.47,2.0,,9.935,10.085,
2025-08-14T23:11:01.107Z,4,GR86-057-57,-5.2,-0.352,-0.154,2.47,2.0,6429.0,10.775,10.835,
2025-08-14T23:11:01.150Z,4,GR86-057-57,-7.4,-0.372,-0.132,2.47,2.0,,11.34,11.52,117.6
2025-08-14T23:11:01.194Z,4,GR86-057-57,-11.6,-0.413,-0.154,2.47,2.0,,11.645,11.84,
2025-08-14T23:11:01.236Z,4,GR86-057-57,-15.0,-0.354,-0.187,2.47,2.0,,11.215,11.49,
2025-08-14T23:11:01.279Z,4,GR86-057-57,-17.0,-0.388,-0.189,2.49,2.0,,10.18,10.65,
2025-08-14T23:11:01.323Z,4,GR86-057-57,-17.3,-0.387,-0.249,2.48,2.0,6413.0,10.715,10.835,
2025-08-14T23:11:01.366Z,4,GR86-057-57,-17.6,-0.396,-0.291,2.49,2.0,,14.605,14.48,114.96
2025-08-14T23:11:01.409Z,4,GR86-057-57,-19.4,-0.503,-0.299,2.49,2.0,,18.89,18.77,
2025-08-14T23:11:01.453Z,4,GR86-057-57,-21.9,-0.537,-0.359,2.48,2.0,,21.805,21.625,
2025-08-14T23:11:01.495Z,4,GR86-057-57,-24.0,-0.516,-0.399,2.48,2.0,,22.31,22.34,
2025-08-14T23:11:01.538Z,4,GR86-057-57,-25.1,-0.546,-0.439,2.5,2.0,6274.0,21.715,21.99,
2025-08-14T23:11:01.581Z,4,GR86-057-57,-25.3,-0.513,-0.485,2.47,2.0,,18.65,19.365,112.71
2025-08-14T23:11:01.624Z,4,GR86-057-57,-24.9,-0.439,-0.56,2.5,2.0,,13.2,14.025,
2025-08-14T23:11:01.667Z,4,GR86-057-57,-24.4,-0.436,-0.544,2.48,2.0,,12.59,12.925,
2025-08-14T23:11:01.710Z,4,GR86-057-57,-23.8,-0.392,-0.6,2.47,2.0,,12.5,12.835,
2025-08-14T23:11:01.754Z,4,GR86-057-57,-23.700000000000003,-0.415,-0.599,2.49,2.0,6111.0,12.68,12.865,
2025-08-14T23:11:01.796Z,4,GR86-057-57,-24.200000000000003,-0.417,-0.619,2.49,2.0,,14.24,14.115,110.09
2025-08-14T23:11:01.839Z,4,GR86-057-57,-25.200000000000003,-0.446,-0.61,2.5,2.0,,16.895,16.65,
2025-08-14T23:11:01.883Z,4,GR86-057-57,-25.0,-0.51,-0.611,2.48,2.0,,19.7,19.58,
2025-08-14T23:11:01.925Z,4,GR86-057-57,-23.1,-0.543,-0.647,2.47,2.0,,20.265,20.355,
2025-08-14T23:11:01.968Z,4,GR86-057-57,-20.5,-0.534,-0.627,2.49,2.0,5956.0,20.66,20.555,
2025-08-14T23:11:02.011Z,4,GR86-057-57,-16.900000000000002,-0.523,-0.609,2.49,2.0,,21.35,21.35,108.2
2025-08-14T23:11:02.054Z,4,GR86-057-57,-14.1,-0.538,-0.5740000000000001,2.48,2.0,,23.53,23.3,
2025-08-14T23:11:02.097Z,4,GR86-057-57,-14.3,-0.5730000000000001,-0.504,2.49,2.0,,26.11,25.895,
2025-08-14T23:11:02.140Z,4,GR86-057-57,-17.6,-0.583,-0.473,2.47,2.0,,26.325,26.14,
2025-08-14T23:11:02.184Z,4,GR86-057-57,-24.8,-0.594,-0.5670000000000001,2.49,2.0,5738.0,17.96,18.65,
2025-08-14T23:11:02.227Z,4,GR86-057-57,-28.0,-0.407,-0.593,2.5,2.0,,8.76,9.52,105.58
2025-08-14T23:11:02.270Z,4,GR86-057-57,-28.5,-0.3,-0.666,2.5,2.0,,2.245,2.61,
2025-08-14T23:11:02.314Z,4,GR86-057-57,-27.6,-0.234,-0.578,2.49,2.0,,0.0,0.0,
2025-08-14T23:11:02.356Z,4,GR86-057-57,-27.5,-0.147,-0.624,2.47,2.0,,0.0,0.0,
2025-08-14T23:11:02.400Z,4,GR86-057-57,-27.8,-0.138,-0.586,2.48,2.0,5548.0,0.0,0.0,
2025-08-14T23:11:02.444Z,4,GR86-057-57,-28.700000000000003,-0.156,-0.559,2.48,2.0,,0.0,0.0,102.36
2025-08-14T23:11:02.486Z,4,GR86-057-57,-30.700000000000003,-0.177,-0.539,2.5,2.0,,0.0,0.0,
2025-08-14T23:11:02.530Z,4,GR86-057-57,-34.6,-0.176,-0.514,2.49,2.0,,0.0,0.0,
2025-08-14T23:11:02.574Z,4,GR86-057-57,-39.6,-0.161,-0.547,2.49,2.0,,0.0,0.0,
2025-08-14T23:11:02.616Z,4,GR86-057-57,-43.8,-0.162,-0.554,2.5,2.0,5427.0,0.0,0.0,
2025-08-14T23:11:02.659Z,4,GR86-057-57,-46.400000000000006,-0.162,-0.611,2.49,2.0,,0.0,0.0,99.02
2025-08-14T23:11:02.704Z,4,GR86-057-57,-48.5,-0.177,-0.66,2.5,2.0,,0.0,0.0,
2025-08-14T23:11:02.747Z,4,GR86-057-57,-50.400000000000006,-0.179,-0.671,2.48,2.0,,0.0,0.0,
2025-08-14T23:11:02.790Z,4,GR86-057-57,-54.3,-0.178,-0.719,2.5,2.0,,0.0,0.0,
2025-08-14T23:11:02.834Z,4,GR86-057-57,-60.400000000000006,-0.171,-0.741,2.5,2.0,5377.0,0.0,0.0,
2025-08-14T23:11:02.876Z,4,GR86-057-57,-66.4,-0.174,-0.809,2.5,2.0,,0.0,0.0,97.06
2025-08-14T23:11:02.919Z,4,GR86-057-57,-68.60000000000001,-0.184,-0.8310000000000001,2.48,2.0,,4.805,5.0200000000000005,
2025-08-14T23:11:02.965Z,4,GR86-057-57,-63.400000000000006,-0.313,-0.857,2.49,2.0,,8.3,8.33,
2025-08-14T23:11:03.007Z,4,GR86-057-57,-58.7,-0.343,-0.89,2.5,2.0,,8.88,9.185,
2025-08-14T23:11:03.050Z,4,GR86-057-57,-57.5,-0.365,-0.864,2.5,2.0,5336.0,9.46,9.66,
2025-08-14T23:11:03.094Z,4,GR86-057-57,-58.3,-0.349,-0.921,2.5,2.0,,8.975,9.37,96.24
2025-08-14T23:11:03.136Z,4,GR86-057-57,-58.3,-0.375,-0.882,2.5,2.0,,6.2700000000000005,6.745,
2025-08-14T23:11:03.179Z,4,GR86-057-57,-55.7,-0.269,-0.94,2.49,2.0,,0.0,2.215,
2025-08-14T23:11:03.223Z,4,GR86-057-57,-52.2,-0.182,-0.939,2.49,2.0,,0.0,0.0,
2025-08-14T23:11:03.266Z,4,GR86-057-57,-51.900000000000006,-0.189,-0.994,13.79,2.0,5286.0,0.0,0.0,
2025-08-14T23:11:03.309Z,4,GR86-057-57,-52.5,-0.174,-0.955,19.94,2.0,,0.0,0.0,94.7
2025-08-14T23:11:03.353Z,4,GR86-057-57,-55.8,-0.165,-0.982,20.16,2.0,,0.0,0.0,
2025-08-14T23:11:03.395Z,4,GR86-057-57,-62.3,-0.122,-0.994,20.76,2.0,,0.0,0.0,
2025-08-14T23:11:03.438Z,4,GR86-057-57,-69.9,-0.112,-1.014,21.2,2.0,,0.0,0.0,
2025-08-14T23:11:03.481Z,4,GR86-057-57,-76.10000000000001,-0.107,-0.988,21.4,2.0,5170.0,0.0,0.0,
2025-08-14T23:11:03.524Z,4,GR86-057-57,-81.4,0.017,-0.963,12.67,2.0,,0.0,0.0,93.25
2025-08-14T23:11:03.567Z,4,GR86-057-57,-83.30000000000001,0.106,-0.974,8.77,2.0,,0.0,0.0,
2025-08-14T23:11:03.610Z,4,GR86-057-57,-85.5,0.034,-0.961,11.38,2.0,,0.0,0.0,
2025-08-14T23:11:03.654Z,4,GR86-057-57,-88.0,-0.051,-0.963,10.0,2.0,,0.0,0.0,
2025-08-14T23:11:03.697Z,4,GR86-057-57,-90.1,-0.107,-0.937,6.05,2.0,5089.0,0.0,0.0,
2025-08-14T23:11:03.740Z,4,GR86-057-57,-92.7,-0.116,-0.989,3.97,2.0,,0.0,0.0,91.74
2025-08-14T23:11:03.784Z,4,GR86-057-57,-95.3,-0.121,-0.973,3.84,2.0,,0.0,0.0,
2025-08-14T23:11:03.827Z,4,GR86-057-57,-95.9,-0.115,-0.978,3.59,2.0,,0.0,0.0,
2025-08-14T23:11:03.870Z,4,GR86-057-57,-96.2,-0.238,-0.941,3.35,2.0,,0.0,0.0,
2025-08-14T23:11:03.914Z,4,GR86-057-57,-96.8,-0.298,-0.954,3.16,2.0,5032.0,0.0,0.0,
2025-08-14T23:11:03.956Z,4,GR86-057-57,-97.7,-0.238,-0.909,3.02,2.0,,0.0,0.0,90.7
2025-08-14T23:11:03.999Z,4,GR86-057-57,-97.8,-0.192,-0.997,2.91,2.0,,0.0,0.0,
2025-08-14T23:11:04.043Z,4,GR86-057-57,-97.0,-0.206,-0.965,2.83,2.0,,0.0,0.0,
2025-08-14T23:11:04.085Z,4,GR86-057-57,-94.8,-0.205,-0.96,3.21,2.0,,0.0,0.0,
2025-08-14T23:11:04.128Z,4,GR86-057-57,-93.9,-0.198,-0.956,4.05,2.0,4838.0,0.0,0.0,
2025-08-14T23:11:04.171Z,4,GR86-057-57,-92.8,-0.199,-0.965,19.48,2.0,,0.0,0.0,90.02
2025-08-14T23:11:04.214Z,4,GR86-057-57,-90.8,-0.197,-0.998,23.86,2.0,,0.0,0.0,
2025-08-14T23:11:04.257Z,4,GR86-057-57,-89.7,-0.181,-0.992,24.2,2.0,,0.0,0.0,
2025-08-14T23:11:04.301Z,4,GR86-057-57,-89.7,-0.147,-0.981,24.27,2.0,,0.0,0.0,
2025-08-14T23:11:04.344Z,4,GR86-057-57,-91.1,-0.121,-0.983,22.04,2.0,4830.0,0.0,0.0,
2025-08-14T23:11:04.387Z,4,GR86-057-57,-91.9,0.018,-1.018,21.44,2.0,,0.0,0.0,88.83
2025-08-14T23:11:04.430Z,4,GR86-057-57,-92.0,0.133,-0.956,14.6,2.0,,0.0,0.0,
2025-08-14T23:11:04.474Z,4,GR86-057-57,-92.0,0.071,-1.032,18.15,2.0,,0.0,0.0,
2025-08-14T23:11:04.516Z,4,GR86-057-57,-90.7,0.036,-1.019,18.3,2.0,,0.0,0.0,
2025-08-14T23:11:04.559Z,4,GR86-057-57,-88.2,-0.012,-0.997,20.41,2.0,4816.0,0.0,0.0,
2025-08-14T23:11:04.604Z,4,GR86-057-57,-86.2,-0.046,-0.966,24.58,2.0,,0.0,0.0,87.49
2025-08-14T23:11:04.647Z,4,GR86-057-57,-86.5,-0.023,-0.997,24.89,2.0,,0.0,0.0,
2025-08-14T23:11:04.690Z,4,GR86-057-57,-87.5,0.015,-0.98,25.03,2.0,,0.0,0.0,
2025-08-14T23:11:04.734Z,4,GR86-057-57,-88.0,0.054,-0.976,25.3,2.0,,0.0,0.0,
2025-08-14T23:11:04.777Z,4,GR86-057-57,-88.0,0.081,-0.945,25.71,2.0,4941.0,0.0,0.0,
2025-08-14T23:11:04.864Z,4,GR86-057-57,-87.60000000000001,0.067,-0.966,29.1,2.0,,0.0,0.0,86.47
2025-08-14T23:11:04.907Z,4,GR86-057-57,-85.60000000000001,0.064,-0.973,30.34,2.0,,0.0,0.0,
2025-08-14T23:11:04.950Z,4,GR86-057-57,-82.4,0.072,-0.983,31.85,2.0,,0.0,0.0,
2025-08-14T23:11:04.994Z,4,GR86-057-57,-79.10000000000001,0.107,-0.972,37.28,2.0,4984.0,0.0,0.0,
2025-08-14T23:11:05.036Z,4,GR86-057-57,-76.2,0.131,-0.94,49.15,2.0,,0.0,0.0,86.07000000000001
2025-08-14T23:11:05.079Z,4,GR86-057-57,-73.7,0.146,-0.925,57.44,2.0,,0.0,0.0,
2025-08-14T23:11:05.123Z,4,GR86-057-57,-70.60000000000001,0.162,-0.914,80.75,2.0,,0.0,0.0,
2025-08-14T23:11:05.165Z,4,GR86-057-57,-68.7,0.195,-0.911,99.61,2.0,,0.0,0.0,
2025-08-14T23:11:05.208Z,4,GR86-057-57,-66.3,0.215,-0.928,99.85,2.0,4948.0,0.0,0.0,
2025-08-14T23:11:05.252Z,4,GR86-057-57,-63.1,0.232,-0.928,99.84,2.0,,0.0,0.0,85.82000000000001
2025-08-14T23:11:05.294Z,4,GR86-057-57,-58.7,0.232,-0.903,99.84,2.0,,0.0,0.0,
2025-08-14T23:11:05.337Z,4,GR86-057-57,-54.1,0.216,-0.929,99.84,2.0,,0.0,0.0,
2025-08-14T23:11:05.380Z,4,GR86-057-57,-49.8,0.195,-0.921,99.84,2.0,,0.0,0.0,
2025-08-14T23:11:05.424Z,4,GR86-057-57,-46.5,0.233,-0.925,99.84,2.0,5047.0,0.0,0.0,
2025-08-14T23:11:05.466Z,4,GR86-057-57,-45.900000000000006,0.259,-0.903,99.83,2.0,,0.0,0.0,86.39
2025-08-14T23:11:05.509Z,4,GR86-057-57,-45.2,0.25,-0.862,99.84,2.0,,0.0,0.0,
2025-08-14T23:11:05.553Z,4,GR86-057-57,-43.3,0.227,-0.8160000000000001,99.83,2.0,,0.0,0.0,
2025-08-14T23:11:05.595Z,4,GR86-057-57,-40.7,0.229,-0.833,99.84,2.0,,0.0,0.0,
2025-08-14T23:11:05.638Z,4,GR86-057-57,-37.8,0.213,-0.8270000000000001,99.84,2.0,5137.0,0.0,0.0,
2025-08-14T23:11:05.681Z,4,GR86-057-57,-35.1,0.243,-0.838,99.83,2.0,,0.0,0.0,87.39
2025-08-14T23:11:05.724Z,4,GR86-057-57,-32.1,0.284,-0.8190000000000001,99.84,2.0,,0.0,0.0,
2025-08-14T23:11:05.767Z,4,GR86-057-57,-31.3,0.266,-0.777,99.85,2.0,,0.0,0.0,
2025-08-14T23:11:05.810Z,4,GR86-057-57,-31.200000000000003,0.247,-0.757,99.86,2.0,,0.0,0.0,
2025-08-14T23:11:05.854Z,4,GR86-057-57,-31.200000000000003,0.228,-0.719,99.85,2.0,5244.0,0.0,0.0,
2025-08-14T23:11:05.896Z,4,GR86-057-57,-30.3,0.239,-0.722,99.87,2.0,,0.0,0.0,88.96000000000001
2025-08-14T23:11:05.939Z,4,GR86-057-57,-28.6,0.247,-0.668,99.88,2.0,,0.0,0.0,
2025-08-14T23:11:05.983Z,4,GR86-057-57,-27.200000000000003,0.269,-0.607,99.88,2.0,,0.0,0.0,
2025-08-14T23:11:06.025Z,4,GR86-057-57,-27.4,0.25,-0.5640000000000001,99.87,2.0,,0.0,0.0,
2025-08-14T23:11:06.068Z,4,GR86-057-57,-28.0,0.242,-0.528,99.86,2.0,5315.0,0.0,0.0,
2025-08-14T23:11:06.111Z,4,GR86-057-57,-28.8,0.24,-0.482,99.85,2.0,,0.0,0.0,91.66
2025-08-14T23:11:06.154Z,4,GR86-057-57,-29.9,0.229,-0.475,99.86,2.0,,0.0,0.0,
2025-08-14T23:11:06.197Z,4,GR86-057-57,-30.6,0.266,-0.444,99.84,2.0,,0.0,0.0,
2025-08-14T23:11:06.240Z,4,GR86-057-57,-30.700000000000003,0.257,-0.427,99.86,2.0,,0.0,0.0,
2025-08-14T23:11:06.284Z,4,GR86-057-57,-30.5,0.244,-0.424,99.84,2.0,5345.0,0.0,0.0,
2025-08-14T23:11:06.326Z,4,GR86-057-57,-30.200000000000003,0.23,-0.404,99.88,2.0,,0.0,0.0,92.51
2025-08-14T23:11:06.369Z,4,GR86-057-57,-30.200000000000003,0.232,-0.442,99.85,2.0,,0.0,0.0,
2025-08-14T23:11:06.413Z,4,GR86-057-57,-30.200000000000003,0.252,-0.447,99.87,2.0,,0.0,0.0,
2025-08-14T23:11:06.457Z,4,GR86-057-57,-30.200000000000003,0.256,-0.456,99.84,2.0,,0.0,0.0,
2025-08-14T23:11:06.500Z,4,GR86-057-57,-30.0,0.247,-0.446,99.86,2.0,5395.0,0.0,0.0,
2025-08-14T23:11:06.544Z,4,GR86-057-57,-29.4,0.225,-0.454,99.86,2.0,,0.0,0.0,94.41
2025-08-14T23:11:06.586Z,4,GR86-057-57,-29.0,0.233,-0.457,99.86,2.0,,0.0,0.0,
2025-08-14T23:11:06.629Z,4,GR86-057-57,-28.6,0.241,-0.47,99.87,2.0,,0.0,0.0,
2025-08-14T23:11:06.673Z,4,GR86-057-57,-28.6,0.254,-0.475,99.87,2.0,,0.0,0.0,
2025-08-14T23:11:06.716Z,4,GR86-057-57,-28.5,0.254,-0.481,99.88,2.0,5595.0,0.0,0.0,
2025-08-14T23:11:06.759Z,4,GR86-057-57,-28.200000000000003,0.232,-0.472,99.86,2.0,,0.0,0.0,96.26
2025-08-14T23:11:06.804Z,4,GR86-057-57,-27.1,0.232,-0.482,99.86,2.0,,0.0,0.0,
2025-08-14T23:11:06.847Z,4,GR86-057-57,-25.5,0.243,-0.483,99.87,2.0,,0.0,0.0,
2025-08-14T23:11:06.890Z,4,GR86-057-57,-23.8,0.265,-0.473,99.88,2.0,,0.0,0.0,
2025-08-14T23:11:06.934Z,4,GR86-057-57,-22.200000000000003,0.266,-0.441,99.87,2.0,5707.0,0.0,0.0,
2025-08-14T23:11:06.977Z,4,GR86-057-57,-21.3,0.239,-0.423,99.86,2.0,,0.0,0.0,97.99
2025-08-14T23:11:07.020Z,4,GR86-057-57,-21.0,0.248,-0.395,99.86,2.0,,0.0,0.0,
2025-08-14T23:11:07.064Z,4,GR86-057-57,-20.0,0.242,-0.379,99.87,2.0,,0.0,0.0,
2025-08-14T23:11:07.107Z,4,GR86-057-57,-18.9,0.252,-0.377,99.87,2.0,,0.0,0.0,
2025-08-14T23:11:07.150Z,4,GR86-057-57,-17.7,0.264,-0.349,99.86,2.0,5807.0,0.0,0.0,
2025-08-14T23:11:07.194Z,4,GR86-057-57,-16.8,0.243,-0.337,99.86,2.0,,0.0,0.0,99.79
2025-08-14T23:11:07.236Z,4,GR86-057-57,-16.5,0.241,-0.315,99.87,2.0,,0.0,0.0,
2025-08-14T23:11:07.279Z,4,GR86-057-57,-16.3,0.232,-0.316,99.87,2.0,,0.0,0.0,
2025-08-14T23:11:07.323Z,4,GR86-057-57,-15.7,0.25,-0.311,99.86,2.0,,0.0,0.0,
2025-08-14T23:11:07.365Z,4,GR86-057-57,-15.6,0.262,-0.293,99.86,2.0,5947.0,0.0,0.0,
2025-08-14T23:11:07.409Z,4,GR86-057-57,-15.6,0.24,-0.263,99.86,2.0,,0.0,0.0,101.5
2025-08-14T23:11:07.453Z,4,GR86-057-57,-15.6,0.236,-0.262,99.86,2.0,,0.0,0.0,
2025-08-14T23:11:07.495Z,4,GR86-057-57,-15.3,0.248,-0.238,99.87,2.0,,0.0,0.0,
2025-08-14T23:11:07.538Z,4,GR86-057-57,-14.4,0.251,-0.242,99.86,2.0,,0.0,0.0,
2025-08-14T23:11:07.581Z,4,GR86-057-57,-13.1,0.258,-0.235,99.87,2.0,6045.0,0.0,0.0,
2025-08-14T23:11:07.624Z,4,GR86-057-57,-11.5,0.256,-0.219,99.88,2.0,,0.0,0.0,103.27
2025-08-14T23:11:07.667Z,4,GR86-057-57,-11.0,0.241,-0.212,99.88,2.0,,0.0,0.0,
2025-08-14T23:11:07.710Z,4,GR86-057-57,-10.4,0.246,-0.198,99.87,2.0,,0.0,0.0,
2025-08-14T23:11:07.754Z,4,GR86-057-57,-9.7,0.242,-0.182,99.87,2.0,,0.0,0.0,
2025-08-14T23:11:07.796Z,4,GR86-057-57,-8.8,0.252,-0.183,99.87,2.0,6102.0,0.0,0.0,
2025-08-14T23:11:07.839Z,4,GR86-057-57,-8.0,0.25,-0.163,99.87,2.0,,0.0,0.0,105.05
2025-08-14T23:11:07.883Z,4,GR86-057-57,-7.4,0.232,-0.155,99.87,2.0,,0.0,0.0,
2025-08-14T23:11:07.925Z,4,GR86-057-57,-6.7,0.237,-0.145,99.88,2.0,,0.0,0.0,
2025-08-14T23:11:07.968Z,4,GR86-057-57,-5.6000000000000005,0.251,-0.124,99.86,2.0,,0.0,0.0,
2025-08-14T23:11:08.013Z,4,GR86-057-57,-4.9,0.243,-0.108,99.89,2.0,6238.0,0.0,0.0,
2025-08-14T23:11:08.055Z,4,GR86-057-57,-4.3,0.253,-0.093,99.88,2.0,,0.0,0.0,106.83
2025-08-14T23:11:08.098Z,4,GR86-057-57,-3.1,0.241,-0.065,99.86,2.0,,0.0,0.0,
2025-08-14T23:11:08.141Z,4,GR86-057-57,-2.1,0.233,-0.061,99.87,2.0,,0.0,0.0,
2025-08-14T23:11:08.184Z,4,GR86-057-57,-1.9,0.249,-0.033,99.89,2.0,,0.0,0.0,
2025-08-14T23:11:08.227Z,4,GR86-057-57,-1.7000000000000002,0.258,-0.019,99.86,2.0,6338.0,0.0,0.0,
2025-08-14T23:11:08.270Z,4,GR86-057-57,-1.7000000000000002,0.245,-0.01,99.89,2.0,,0.0,0.0,108.61
2025-08-14T23:11:08.314Z,4,GR86-057-57,-1.7000000000000002,0.248,0.002,99.89,2.0,,0.0,0.0,
2025-08-14T23:11:08.357Z,4,GR86-057-57,-1.7000000000000002,0.233,0.023,99.87,2.0,,0.0,0.0,
2025-08-14T23:11:08.400Z,4,GR86-057-57,-1.7000000000000002,0.224,0.012,99.87,2.0,,0.0,0.0,
2025-08-14T23:11:08.444Z,4,GR86-057-57,-1.7000000000000002,0.252,0.02,99.87,2.0,6394.0,0.0,0.0,
2025-08-14T23:11:08.486Z,4,GR86-057-57,-1.7000000000000002,0.258,0.03,99.89,2.0,,0.0,0.0,110.4
2025-08-14T23:11:08.530Z,4,GR86-057-57,-1.7000000000000002,0.248,0.042,99.86,2.0,,0.0,0.0,
2025-08-14T23:11:08.574Z,4,GR86-057-57,-1.7000000000000002,0.234,0.028,99.87,2.0,,0.0,0.0,
2025-08-14T23:11:08.616Z,4,GR86-057-57,-1.7000000000000002,0.243,0.046,99.87,2.0,,0.0,0.0,
2025-08-14T23:11:08.659Z,4,GR86-057-57,-1.6,0.252,0.03,99.91,2.0,6520.0,0.0,0.0,
2025-08-14T23:11:08.704Z,4,GR86-057-57,-1.6,0.246,0.029,99.87,2.0,,0.0,0.0,113.96
2025-08-14T23:11:08.747Z,4,GR86-057-57,-1.6,0.242,0.025,99.9,2.0,,0.0,0.0,
2025-08-14T23:11:08.790Z,4,GR86-057-57,-1.6,0.231,0.038,99.9,2.0,,0.0,0.0,
2025-08-14T23:11:08.834Z,4,GR86-057-57,-1.6,0.236,0.022,99.88,2.0,,0.0,0.0,
2025-08-14T23:11:08.876Z,4,GR86-057-57,-1.6,0.244,0.035,99.87,2.0,6632.0,0.0,0.0,
2025-08-14T23:11:08.919Z,4,GR86-057-57,-1.6,0.23,0.028,99.89,2.0,,0.0,0.0,115.7
2025-08-14T23:11:08.963Z,4,GR86-057-57,-1.8,0.238,0.03,99.88,2.0,,0.0,0.0,
2025-08-14T23:11:09.007Z,4,GR86-057-57,-2.4000000000000004,0.244,0.028,99.92,2.0,,0.0,0.0,
2025-08-14T23:11:09.050Z,4,GR86-057-57,-2.5,0.241,0.046,99.88,2.0,,0.0,0.0,
2025-08-14T23:11:09.094Z,4,GR86-057-57,-2.5,0.23,0.031,99.88,2.0,6734.0,0.0,0.0,
2025-08-14T23:11:09.136Z,4,GR86-057-57,-2.5,0.243,0.024,99.91,2.0,,0.0,0.0,117.48
2025-08-14T23:11:09.179Z,4,GR86-057-57,-2.5,0.244,0.019,99.88,2.0,,0.0,0.0,
2025-08-14T23:11:09.223Z,4,GR86-057-57,-2.6,0.242,0.01,99.87,2.0,,0.0,0.0,
2025-08-14T23:11:09.266Z,4,GR86-057-57,-2.9000000000000004,0.237,0.015,99.87,2.0,,0.0,0.0,
2025-08-14T23:11:09.309Z,4,GR86-057-57,-3.4000000000000004,0.231,-0.001,99.9,2.0,6925.0,0.0,0.0,
2025-08-14T23:11:09.353Z,4,GR86-057-57,-3.6,0.236,-0.002,99.87,2.0,,0.0,0.0,119.16
2025-08-14T23:11:09.395Z,4,GR86-057-57,-3.6,0.229,0.0,99.89,2.0,,0.0,0.0,
2025-08-14T23:11:09.438Z,4,GR86-057-57,-3.6,0.225,-0.013,99.89,2.0,,0.0,0.0,
2025-08-14T23:11:09.481Z,4,GR86-057-57,-3.3000000000000003,0.235,-0.019,99.9,2.0,,0.0,0.0,
2025-08-14T23:11:09.524Z,4,GR86-057-57,-2.4000000000000004,0.24,-0.006,99.89,2.0,7017.0,0.0,0.0,
2025-08-14T23:11:09.567Z,4,GR86-057-57,-1.8,0.233,-0.009,99.88,2.0,,0.0,0.0,120.87
2025-08-14T23:11:09.610Z,4,GR86-057-57,-1.5,0.101,-0.007,99.89,2.0,,0.0,0.0,
2025-08-14T23:11:09.654Z,4,GR86-057-57,-1.7000000000000002,-0.082,0.033,99.9,3.0,,0.0,0.0,
2025-08-14T23:11:09.697Z,4,GR86-057-57,-2.2,0.197,0.035,99.91,3.0,,0.0,0.0,
2025-08-14T23:11:09.740Z,4,GR86-057-57,-1.8,0.599,-0.059,99.91,3.0,7073.0,0.0,0.0,
2025-08-14T23:11:09.784Z,4,GR86-057-57,-1.7000000000000002,0.152,0.007,99.87,3.0,,0.0,0.0,122.49
2025-08-14T23:11:09.827Z,4,GR86-057-57,-2.5,0.036,0.024,99.9,3.0,,0.0,0.0,
2025-08-14T23:11:09.870Z,4,GR86-057-57,-2.5,0.163,-0.022,99.91,3.0,,0.0,0.0,
2025-08-14T23:11:09.914Z,4,GR86-057-57,-2.2,0.231,0.025,99.91,3.0,,0.0,0.0,
2025-08-14T23:11:09.956Z,4,GR86-057-57,-2.2,0.237,0.016,99.9,3.0,6370.0,0.0,0.0,
2025-08-14T23:11:09.999Z,4,GR86-057-57,-2.2,0.192,-0.003,99.91,3.0,,0.0,0.0,124.01
2025-08-14T23:11:10.043Z,4,GR86-057-57,-1.9,0.191,0.018,99.91,3.0,,0.0,0.0,
2025-08-14T23:11:10.085Z,4,GR86-057-57,-1.8,0.183,0.002,99.91,3.0,,0.0,0.0,
2025-08-14T23:11:10.128Z,4,GR86-057-57,-1.8,0.186,0.002,99.91,3.0,,0.0,0.0,
2025-08-14T23:11:10.171Z,4,GR86-057-57,-1.8,0.206,0.001,99.91,3.0,5950.0,0.0,0.0,
2025-08-14T23:11:10.214Z,4,GR86-057-57,-1.6,0.188,0.005,99.92,3.0,,0.0,0.0,125.38
2025-08-14T23:11:10.257Z,4,GR86-057-57,-1.7000000000000002,0.163,0.011,99.92,3.0,,0.0,0.0,
2025-08-14T23:11:10.300Z,4,GR86-057-57,-1.9,0.196,0.016,99.91,3.0,,0.0,0.0,
2025-08-14T23:11:10.344Z,4,GR86-057-57,-1.8,0.186,0.021,99.92,3.0,,0.0,0.0,
2025-08-14T23:11:10.387Z,4,GR86-057-57,-1.4,0.197,0.03,99.91,3.0,5964.0,0.0,0.0,
2025-08-14T23:11:10.430Z,4,GR86-057-57,-1.4,0.176,0.03,99.91,3.0,,0.0,0.0,126.73
2025-08-14T23:11:10.474Z,4,GR86-057-57,-1.4,0.169,0.028,99.9,3.0,,0.0,0.0,
2025-08-14T23:11:10.516Z,4,GR86-057-57,-1.4,0.192,0.024,99.9,3.0,,0.0,0.0,
2025-08-14T23:11:10.559Z,4,GR86-057-57,-1.4,0.202,0.035,99.9,3.0,,0.0,0.0,
2025-08-14T23:11:10.604Z,4,GR86-057-57,-1.4,0.205,0.035,99.91,3.0,6025.0,0.0,0.0,
2025-08-14T23:11:10.647Z,4,GR86-057-57,-1.4,0.176,0.037,99.92,3.0,,0.0,0.0,128.03
2025-08-14T23:11:10.690Z,4,GR86-057-57,-1.4,0.181,0.037,99.91,3.0,,0.0,0.0,
2025-08-14T23:11:10.734Z,4,GR86-057-57,-1.4,0.211,0.035,99.9,3.0,,0.0,0.0,
2025-08-14T23:11:10.777Z,4,GR86-057-57,-1.4,0.204,0.033,99.91,3.0,,0.0,0.0,
2025-08-14T23:11:10.820Z,4,GR86-057-57,-1.4,0.186,0.031,99.91,3.0,6085.0,0.0,0.0,
2025-08-14T23:11:10.864Z,4,GR86-057-57,-1.4,0.181,0.034,99.91,3.0,,0.0,0.0,129.35
2025-08-14T23:11:10.907Z,4,GR86-057-57,-1.4,0.17,0.034,99.91,3.0,,0.0,0.0,
2025-08-14T23:11:10.950Z,4,GR86-057-57,-1.4,0.19,0.041,99.92,3.0,,0.0,0.0,
2025-08-14T23:11:10.994Z,4,GR86-057-57,-1.5,0.199,0.038,99.91,3.0,,0.0,0.0,
2025-08-14T23:11:11.036Z,4,GR86-057-57,-1.7000000000000002,0.187,0.027,99.9,3.0,6097.0,0.0,0.0,
2025-08-14T23:11:11.079Z,4,GR86-057-57,-1.8,0.187,0.028,99.91,3.0,,0.0,0.0,130.72
2025-08-14T23:11:11.123Z,4,GR86-057-57,-1.9,0.164,0.037,99.91,3.0,,0.0,0.0,
2025-08-14T23:11:11.165Z,4,GR86-057-57,-2.1,0.202,0.04,99.9,3.0,,0.0,0.0,
2025-08-14T23:11:11.208Z,4,GR86-057-57,-2.1,0.203,0.028,99.91,3.0,,0.0,0.0,
2025-08-14T23:11:11.252Z,4,GR86-057-57,-2.2,0.181,0.019,99.9,3.0,6191.0,0.0,0.0,
2025-08-14T23:11:11.337Z,4,GR86-057-57,-2.2,0.186,0.022,99.91,3.0,,0.0,0.0,131.98
2025-08-14T23:11:11.380Z,4,GR86-057-57,-2.2,0.182,0.027,99.91,3.0,,0.0,0.0,
2025-08-14T23:11:11.424Z,4,GR86-057-57,-2.4000000000000004,0.2,0.016,99.91,3.0,,0.0,0.0,
2025-08-14T23:11:11.466Z,4,GR86-057-57,-2.5,0.183,0.012,99.91,3.0,6248.0,0.0,0.0,
2025-08-14T23:11:11.509Z,4,GR86-057-57,-2.8000000000000003,0.16,0.012,99.91,3.0,,0.0,0.0,134.45
2025-08-14T23:11:11.553Z,4,GR86-057-57,-3.0,0.178,0.016,99.9,3.0,,0.0,0.0,
2025-08-14T23:11:11.595Z,4,GR86-057-57,-3.0,0.189,0.011,99.9,3.0,,0.0,0.0,
2025-08-14T23:11:11.638Z,4,GR86-057-57,-3.0,0.183,-0.01,99.91,3.0,,0.0,0.0,
2025-08-14T23:11:11.683Z,4,GR86-057-57,-3.2,0.192,-0.01,99.89,3.0,6304.0,0.0,0.0,
2025-08-14T23:11:11.725Z,4,GR86-057-57,-3.3000000000000003,0.164,-0.027,99.9,3.0,,0.0,0.0,135.62
2025-08-14T23:11:11.768Z,4,GR86-057-57,-3.5,0.169,-0.027,99.89,3.0,,0.0,0.0,
2025-08-14T23:11:11.811Z,4,GR86-057-57,-3.6,0.185,-0.002,99.92,3.0,,0.0,0.0,
2025-08-14T23:11:11.854Z,4,GR86-057-57,-3.6,0.184,-0.008,99.91,3.0,,0.0,0.0,
2025-08-14T23:11:11.897Z,4,GR86-057-57,-3.6,0.167,-0.038,99.92,3.0,6359.0,0.0,0.0,
2025-08-14T23:11:11.940Z,4,GR86-057-57,-3.6,0.171,-0.033,99.92,3.0,,0.0,0.0,136.79
2025-08-14T23:11:11.984Z,4,GR86-057-57,-3.6,0.162,-0.037,99.9,3.0,,0.0,0.0,
2025-08-14T23:11:12.026Z,4,GR86-057-57,-3.6,0.176,-0.037,99.9,3.0,,0.0,0.0,
2025-08-14T23:11:12.069Z,4,GR86-057-57,-3.6,0.2,-0.029,99.91,3.0,,0.0,0.0,
2025-08-14T23:11:12.114Z,4,GR86-057-57,-3.6,0.18,-0.041,99.91,3.0,6479.0,0.0,0.0,
2025-08-14T23:11:12.157Z,4,GR86-057-57,-3.6,0.161,-0.046,99.91,3.0,,0.0,0.0,137.98
2025-08-14T23:11:12.200Z,4,GR86-057-57,-3.7,0.173,-0.031,99.9,3.0,,0.0,0.0,
2025-08-14T23:11:12.244Z,4,GR86-057-57,-3.7,0.154,-0.046,99.89,3.0,,0.0,0.0,
2025-08-14T23:11:12.286Z,4,GR86-057-57,-3.7,0.17,-0.023,99.89,3.0,,0.0,0.0,
2025-08-14T23:11:12.329Z,4,GR86-057-57,-3.7,0.199,-0.035,99.91,3.0,6486.0,0.0,0.0,
2025-08-14T23:11:12.373Z,4,GR86-057-57,-3.4000000000000004,0.186,-0.04,99.92,3.0,,0.0,0.0,139.18
2025-08-14T23:11:12.416Z,4,GR86-057-57,-3.4000000000000004,0.155,-0.047,99.91,3.0,,0.0,0.0,
2025-08-14T23:11:12.459Z,4,GR86-057-57,-3.6,0.158,-0.039,99.91,3.0,,0.0,0.0,
2025-08-14T23:11:12.505Z,4,GR86-057-57,-3.7,0.158,-0.028,99.92,3.0,,0.0,0.0,
2025-08-14T23:11:12.590Z,4,GR86-057-57,-3.7,0.179,-0.032,99.91,3.0,6547.0,0.0,0.0,140.33
2025-08-14T23:11:12.634Z,4,GR86-057-57,-3.7,0.178,-0.018,99.91,3.0,,0.0,0.0,
2025-08-14T23:11:12.677Z,4,GR86-057-57,-3.7,0.155,-0.037,99.9,3.0,,0.0,0.0,
2025-08-14T23:11:12.720Z,4,GR86-057-57,-3.9,0.154,-0.051,99.91,3.0,,0.0,0.0,
2025-08-14T23:11:12.764Z,4,GR86-057-57,-4.1000000000000005,0.155,-0.037,99.91,3.0,6606.0,0.0,0.0,
2025-08-14T23:11:12.807Z,4,GR86-057-57,-4.1000000000000005,0.154,-0.044,99.91,3.0,,0.0,0.0,141.53
2025-08-14T23:11:12.850Z,4,GR86-057-57,-4.1000000000000005,0.195,-0.031,99.92,3.0,,0.0,0.0,
2025-08-14T23:11:12.894Z,4,GR86-057-57,-4.1000000000000005,0.203,-0.027,99.91,3.0,,0.0,0.0,
2025-08-14T23:11:12.936Z,4,GR86-057-57,-4.1000000000000005,0.17,-0.037,99.91,3.0,,0.0,0.0,
2025-08-14T23:11:12.979Z,4,GR86-057-57,-4.1000000000000005,0.137,-0.055,99.91,3.0,6653.0,0.0,0.0,
2025-08-14T23:11:13.023Z,4,GR86-057-57,-4.1000000000000005,0.158,-0.04,99.91,3.0,,0.0,0.0,142.72
2025-08-14T23:11:13.065Z,4,GR86-057-57,-4.1000000000000005,0.149,-0.049,99.91,3.0,,0.0,0.0,
2025-08-14T23:11:13.109Z,4,GR86-057-57,-4.1000000000000005,0.171,-0.055,99.92,3.0,,0.0,0.0,
2025-08-14T23:11:13.153Z,4,GR86-057-57,-3.9,0.205,-0.043,99.91,3.0,,0.0,0.0,
2025-08-14T23:11:13.195Z,4,GR86-057-57,-3.6,0.205,-0.038,99.9,3.0,6751.0,0.0,0.0,
2025-08-14T23:11:13.238Z,4,GR86-057-57,-3.3000000000000003,0.164,-0.031,99.91,3.0,,0.0,0.0,143.89
2025-08-14T23:11:13.281Z,4,GR86-057-57,-3.2,0.135,-0.06,99.9,3.0,,0.0,0.0,
2025-08-14T23:11:13.324Z,4,GR86-057-57,-3.3000000000000003,0.155,-0.044,99.89,3.0,,0.0,0.0,
2025-08-14T23:11:13.367Z,4,GR86-057-57,-3.7,0.137,-0.053,99.89,3.0,,0.0,0.0,
2025-08-14T23:11:13.410Z,4,GR86-057-57,-4.0,0.149,-0.056,99.9,3.0,6765.0,0.0,0.0,
2025-08-14T23:11:13.454Z,4,GR86-057-57,-4.2,0.191,-0.038,99.92,3.0,,0.0,0.0,145.08
2025-08-14T23:11:13.496Z,4,GR86-057-57,-4.2,0.199,-0.024,99.91,3.0,,0.0,0.0,
2025-08-14T23:11:13.539Z,4,GR86-057-57,-3.6,0.164,-0.037,99.92,3.0,,0.0,0.0,
2025-08-14T23:11:13.583Z,4,GR86-057-57,-3.5,0.207,-0.033,99.9,3.0,,0.0,0.0,
2025-08-14T23:11:13.625Z,4,GR86-057-57,-3.5,0.177,-0.01,99.88,3.0,6811.0,0.0,0.0,
2025-08-14T23:11:13.669Z,4,GR86-057-57,-3.6,0.13,-0.033,99.88,3.0,,0.0,0.0,146.28
2025-08-14T23:11:13.714Z,4,GR86-057-57,-3.9,0.129,-0.046,99.91,3.0,,0.0,0.0,
2025-08-14T23:11:13.756Z,4,GR86-057-57,-4.1000000000000005,0.173,-0.045,99.91,3.0,,0.0,0.0,
2025-08-14T23:11:13.799Z,4,GR86-057-57,-4.4,0.205,-0.032,99.89,3.0,,0.0,0.0,
2025-08-14T23:11:13.843Z,4,GR86-057-57,-4.6000000000000005,0.154,-0.041,99.9,3.0,6874.0,0.0,0.0,
2025-08-14T23:11:13.885Z,4,GR86-057-57,-4.6000000000000005,0.203,-0.05,99.91,3.0,,0.0,0.0,147.44
2025-08-14T23:11:13.928Z,4,GR86-057-57,-4.6000000000000005,0.208,-0.038,99.91,3.0,,0.0,0.0,
2025-08-14T23:11:13.971Z,4,GR86-057-57,-4.6000000000000005,0.161,-0.048,99.91,3.0,,0.0,0.0,
2025-08-14T23:11:14.014Z,4,GR86-057-57,-4.800000000000001,0.129,-0.053,99.91,3.0,,0.0,0.0,
2025-08-14T23:11:14.057Z,4,GR86-057-57,-4.800000000000001,0.126,-0.044,99.92,3.0,6916.0,0.0,0.0,
2025-08-14T23:11:14.100Z,4,GR86-057-57,-4.800000000000001,0.177,-0.053,99.91,3.0,,0.0,0.0,148.6
2025-08-14T23:11:14.144Z,4,GR86-057-57,-4.800000000000001,0.133,-0.079,99.9,3.0,,0.0,0.0,
2025-08-14T23:11:14.186Z,4,GR86-057-57,-5.0,0.147,-0.088,99.91,3.0,,0.0,0.0,
2025-08-14T23:11:14.230Z,4,GR86-057-57,-5.7,0.182,-0.093,99.91,3.0,,0.0,0.0,
2025-08-14T23:11:14.273Z,4,GR86-057-57,-6.7,-0.074,-0.077,99.9,4.0,7017.0,0.0,0.0,
2025-08-14T23:11:14.316Z,4,GR86-057-57,-6.7,0.466,-0.059,99.91,4.0,,0.0,0.0,150.71
2025-08-14T23:11:14.359Z,4,GR86-057-57,-5.800000000000001,0.356,-0.168,99.9,4.0,,0.0,0.0,
2025-08-14T23:11:14.447Z,4,GR86-057-57,-7.2,0.088,-0.111,99.89,4.0,,0.0,0.0,
2025-08-14T23:11:14.490Z,4,GR86-057-57,-7.0,0.162,-0.199,99.9,4.0,7038.0,0.0,0.0,
2025-08-14T23:11:14.534Z,4,GR86-057-57,-6.6000000000000005,0.131,-0.12,99.9,4.0,,0.0,0.0,151.84
2025-08-14T23:11:14.576Z,4,GR86-057-57,-6.6000000000000005,0.109,-0.177,99.91,4.0,,0.0,0.0,
2025-08-14T23:11:14.619Z,4,GR86-057-57,-6.6000000000000005,0.151,-0.194,99.91,4.0,,0.0,0.0,
2025-08-14T23:11:14.707Z,4,GR86-057-57,-6.6000000000000005,0.113,-0.158,99.92,4.0,6085.0,0.0,0.0,
2025-08-14T23:11:14.750Z,4,GR86-057-57,-6.0,0.165,-0.147,99.91,4.0,,0.0,0.0,152.99
2025-08-14T23:11:14.794Z,4,GR86-057-57,-5.9,0.182,-0.161,99.91,4.0,,0.0,0.0,
2025-08-14T23:11:14.836Z,4,GR86-057-57,-5.9,0.135,-0.143,99.91,4.0,,0.0,0.0,
2025-08-14T23:11:14.879Z,4,GR86-057-57,-5.9,0.097,-0.141,99.92,4.0,,0.0,0.0,
2025-08-14T23:11:14.923Z,4,GR86-057-57,-5.5,0.168,-0.119,99.92,4.0,6072.0,0.0,0.0,
2025-08-14T23:11:14.966Z,4,GR86-057-57,-5.2,0.152,-0.116,99.91,4.0,,0.0,0.0,154.0
2025-08-14T23:11:15.009Z,4,GR86-057-57,-5.2,0.119,-0.116,99.91,4.0,,0.0,0.0,
2025-08-14T23:11:15.053Z,4,GR86-057-57,-5.5,0.11,-0.105,99.9,4.0,,0.0,0.0,
2025-08-14T23:11:15.095Z,4,GR86-057-57,-5.6000000000000005,0.114,-0.11,99.91,4.0,,0.0,0.0,
2025-08-14T23:11:15.138Z,4,GR86-057-57,-5.7,0.158,-0.118,99.91,4.0,6079.0,0.0,0.0,
2025-08-14T23:11:15.181Z,4,GR86-057-57,-6.0,0.171,-0.079,99.91,4.0,,0.0,0.0,155.0
2025-08-14T23:11:15.224Z,4,GR86-057-57,-6.5,0.113,-0.098,99.91,4.0,,0.0,0.0,
2025-08-14T23:11:15.267Z,4,GR86-057-57,-6.7,0.136,-0.095,99.92,4.0,,0.0,0.0,
2025-08-14T23:11:15.310Z,4,GR86-057-57,-6.9,0.173,-0.106,99.91,4.0,,0.0,0.0,
2025-08-14T23:11:15.354Z,4,GR86-057-57,-7.2,0.172,-0.104,99.9,4.0,6153.0,0.0,0.0,
2025-08-14T23:11:15.397Z,4,GR86-057-57,-7.6,0.142,-0.122,99.91,4.0,,0.0,0.0,156.09
2025-08-14T23:11:15.440Z,4,GR86-057-57,-8.0,0.105,-0.144,99.92,4.0,,0.0,0.0,
2025-08-14T23:11:15.484Z,4,GR86-057-57,-8.5,0.158,-0.15,99.91,4.0,,0.0,0.0,
2025-08-14T23:11:15.527Z,4,GR86-057-57,-8.700000000000001,0.138,-0.14,99.91,4.0,,0.0,0.0,
2025-08-14T23:11:15.570Z,4,GR86-057-57,-8.8,0.113,-0.165,99.88,4.0,6161.0,0.0,0.0,
2025-08-14T23:11:15.614Z,4,GR86-057-57,-8.8,0.117,-0.198,99.87,4.0,,0.0,0.0,157.12
2025-08-14T23:11:15.656Z,4,GR86-057-57,-8.8,0.104,-0.217,99.91,4.0,,0.0,0.0,
2025-08-14T23:11:15.699Z,4,GR86-057-57,-9.0,0.109,-0.232,99.91,4.0,,0.0,0.0,
2025-08-14T23:11:15.743Z,4,GR86-057-57,-9.1,0.093,-0.206,99.89,4.0,,0.0,0.0,
2025-08-14T23:11:15.785Z,4,GR86-057-57,-9.1,0.085,-0.222,99.9,4.0,6228.0,0.0,0.0,
2025-08-14T23:11:15.871Z,4,GR86-057-57,-9.1,0.132,-0.234,99.92,4.0,,0.0,0.0,158.17000000000002
2025-08-14T23:11:15.914Z,4,GR86-057-57,-9.1,0.139,-0.225,99.9,4.0,,0.0,0.0,
2025-08-14T23:11:15.957Z,4,GR86-057-57,-8.8,0.138,-0.227,99.91,4.0,,0.0,0.0,
2025-08-14T23:11:16.000Z,4,GR86-057-57,-8.6,0.147,-0.224,99.9,4.0,6266.0,0.0,0.0,
2025-08-14T23:11:16.044Z,4,GR86-057-57,-8.3,0.136,-0.249,99.92,4.0,,0.0,0.0,159.18
2025-08-14T23:11:16.087Z,4,GR86-057-57,-8.200000000000001,0.151,-0.225,99.9,4.0,,0.0,0.0,
2025-08-14T23:11:16.130Z,4,GR86-057-57,-8.0,0.149,-0.22,99.9,4.0,,0.0,0.0,
2025-08-14T23:11:16.174Z,4,GR86-057-57,-7.9,0.149,-0.21,99.9,4.0,,0.0,0.0,
2025-08-14T23:11:16.216Z,4,GR86-057-57,-7.6,0.13,-0.207,99.92,4.0,6310.0,0.0,0.0,
2025-08-14T23:11:16.259Z,4,GR86-057-57,-7.2,0.101,-0.201,99.91,4.0,,0.0,0.0,160.20000000000002
2025-08-14T23:11:16.304Z,4,GR86-057-57,-7.0,0.16,-0.176,99.88,4.0,,0.0,0.0,
2025-08-14T23:11:16.347Z,4,GR86-057-57,-7.0,0.141,-0.139,99.91,4.0,,0.0,0.0,
2025-08-14T23:11:16.390Z,4,GR86-057-57,-7.0,0.11,-0.158,99.89,4.0,,0.0,0.0,
2025-08-14T23:11:16.434Z,4,GR86-057-57,-7.0,0.114,-0.15,99.9,4.0,6347.0,0.0,0.0,
2025-08-14T23:11:16.477Z,4,GR86-057-57,-7.0,0.093,-0.16,99.9,4.0,,0.0,0.0,161.21
2025-08-14T23:11:16.520Z,4,GR86-057-57,-7.0,0.089,-0.159,99.91,4.0,,0.0,0.0,
2025-08-14T23:11:16.564Z,4,GR86-057-57,-7.2,0.123,-0.138,99.9,4.0,,0.0,0.0,
2025-08-14T23:11:16.607Z,4,GR86-057-57,-7.2,0.106,-0.125,99.88,4.0,,0.0,0.0,
2025-08-14T23:11:16.650Z,4,GR86-057-57,-7.2,0.095,-0.159,99.89,4.0,6345.0,0.0,0.0,
2025-08-14T23:11:16.694Z,4,GR86-057-57,-7.2,0.088,-0.133,99.91,4.0,,0.0,0.0,162.21
2025-08-14T23:11:16.736Z,4,GR86-057-57,-7.2,0.089,-0.168,99.91,4.0,,0.0,0.0,
2025-08-14T23:11:16.779Z,4,GR86-057-57,-7.2,0.107,-0.171,99.92,4.0,,0.0,0.0,
2025-08-14T23:11:16.823Z,4,GR86-057-57,-7.1000000000000005,0.089,-0.17,99.91,4.0,,0.0,0.0,
2025-08-14T23:11:16.865Z,4,GR86-057-57,-7.1000000000000005,0.089,-0.175,99.89,4.0,6375.0,0.0,0.0,
2025-08-14T23:11:16.908Z,4,GR86-057-57,-7.1000000000000005,0.08,-0.179,99.9,4.0,,0.0,0.0,163.93
2025-08-14T23:11:16.951Z,4,GR86-057-57,-7.1000000000000005,0.099,-0.18,99.91,4.0,,0.0,0.0,
2025-08-14T23:11:16.994Z,4,GR86-057-57,-6.800000000000001,0.117,-0.185,99.9,4.0,,0.0,0.0,
2025-08-14T23:11:17.037Z,4,GR86-057-57,-6.2,0.136,-0.179,99.92,4.0,,0.0,0.0,
2025-08-14T23:11:17.080Z,4,GR86-057-57,-5.800000000000001,0.148,-0.18,99.89,4.0,6456.0,0.0,0.0,
2025-08-14T23:11:17.124Z,4,GR86-057-57,-5.7,0.097,-0.164,99.91,4.0,,0.0,0.0,164.86
2025-08-14T23:11:17.167Z,4,GR86-057-57,-5.7,0.095,-0.155,99.91,4.0,,0.0,0.0,
2025-08-14T23:11:17.210Z,4,GR86-057-57,-5.7,0.115,-0.147,99.91,4.0,,0.0,0.0,
2025-08-14T23:11:17.253Z,4,GR86-057-57,-5.7,0.136,-0.125,99.91,4.0,,0.0,0.0,
2025-08-14T23:11:17.296Z,4,GR86-057-57,-5.7,0.153,-0.119,99.87,4.0,6457.0,0.0,0.0,
2025-08-14T23:11:17.339Z,4,GR86-057-57,-5.5,0.151,-0.111,99.91,4.0,,0.0,0.0,165.93
2025-08-14T23:11:17.383Z,4,GR86-057-57,-5.1000000000000005,0.077,-0.099,99.91,4.0,,0.0,0.0,
2025-08-14T23:11:17.425Z,4,GR86-057-57,-5.1000000000000005,0.094,-0.105,99.92,4.0,,0.0,0.0,
2025-08-14T23:11:17.468Z,4,GR86-057-57,-5.1000000000000005,0.122,-0.092,99.92,4.0,,0.0,0.0,
2025-08-14T23:11:17.511Z,4,GR86-057-57,-5.300000000000001,0.144,-0.116,99.91,4.0,6528.0,0.0,0.0,
2025-08-14T23:11:17.554Z,4,GR86-057-57,-5.300000000000001,0.144,-0.097,99.89,4.0,,0.0,0.0,166.81
2025-08-14T23:11:17.597Z,4,GR86-057-57,-5.300000000000001,0.151,-0.083,99.91,4.0,,0.0,0.0,
2025-08-14T23:11:17.640Z,4,GR86-057-57,-5.300000000000001,0.143,-0.083,99.93,4.0,,0.0,0.0,
2025-08-14T23:11:17.684Z,4,GR86-057-57,-5.300000000000001,0.104,-0.116,99.91,4.0,,0.0,0.0,
2025-08-14T23:11:17.726Z,4,GR86-057-57,-5.300000000000001,0.123,-0.116,99.91,4.0,6608.0,0.0,0.0,
2025-08-14T23:11:17.769Z,4,GR86-057-57,-5.300000000000001,0.128,-0.099,99.9,4.0,,0.0,0.0,167.69
2025-08-14T23:11:17.813Z,4,GR86-057-57,-5.300000000000001,0.134,-0.107,99.91,4.0,,0.0,0.0,
2025-08-14T23:11:17.857Z,4,GR86-057-57,-5.1000000000000005,0.145,-0.096,99.91,4.0,,0.0,0.0,
2025-08-14T23:11:17.900Z,4,GR86-057-57,-4.7,0.151,-0.088,99.91,4.0,,0.0,0.0,
2025-08-14T23:11:17.944Z,4,GR86-057-57,-4.4,0.087,-0.087,99.91,4.0,6605.0,0.0,0.0,
2025-08-14T23:11:17.987Z,4,GR86-057-57,-4.800000000000001,0.104,-0.091,99.91,4.0,,0.0,0.0,168.59
2025-08-14T23:11:18.030Z,4,GR86-057-57,-5.300000000000001,0.112,-0.076,99.9,4.0,,0.0,0.0,
2025-08-14T23:11:18.074Z,4,GR86-057-57,-5.7,0.124,-0.084,99.92,4.0,,0.0,0.0,
2025-08-14T23:11:18.116Z,4,GR86-057-57,-5.7,0.135,-0.069,99.92,4.0,,0.0,0.0,
2025-08-14T23:11:18.159Z,4,GR86-057-57,-5.1000000000000005,0.154,-0.089,99.91,4.0,6638.0,0.0,0.0,
2025-08-14T23:11:18.204Z,4,GR86-057-57,-4.2,0.073,-0.097,99.91,4.0,,0.0,0.0,169.56
2025-08-14T23:11:18.247Z,4,GR86-057-57,-4.2,0.088,-0.101,99.91,4.0,,0.0,0.0,
2025-08-14T23:11:18.290Z,4,GR86-057-57,-4.5,0.085,-0.064,99.9,4.0,,0.0,0.0,
2025-08-14T23:11:18.334Z,4,GR86-057-57,-4.5,0.108,-0.077,99.91,4.0,,0.0,0.0,
2025-08-14T23:11:18.377Z,4,GR86-057-57,-4.5,0.117,-0.058,99.9,4.0,6719.0,0.0,0.0,
2025-08-14T23:11:18.420Z,4,GR86-057-57,-4.4,0.127,-0.078,99.91,4.0,,0.0,0.0,170.37
2025-08-14T23:11:18.464Z,4,GR86-057-57,-4.4,0.094,-0.067,99.91,4.0,,0.0,0.0,
2025-08-14T23:11:18.507Z,4,GR86-057-57,-5.0,0.07,-0.073,99.89,4.0,,0.0,0.0,
2025-08-14T23:11:18.550Z,4,GR86-057-57,-5.7,0.061,-0.067,99.92,4.0,,0.0,0.0,
2025-08-14T23:11:18.594Z,4,GR86-057-57,-6.300000000000001,0.074,-0.078,99.91,4.0,6706.0,0.0,0.0,
2025-08-14T23:11:18.636Z,4,GR86-057-57,-6.300000000000001,0.081,-0.096,99.91,4.0,,0.0,0.0,171.42000000000002
2025-08-14T23:11:18.679Z,4,GR86-057-57,-6.0,0.088,-0.106,99.88,4.0,,0.0,0.0,
2025-08-14T23:11:18.723Z,4,GR86-057-57,-5.2,0.12,-0.099,99.91,4.0,,0.0,0.0,
2025-08-14T23:11:18.765Z,4,GR86-057-57,-5.1000000000000005,0.106,-0.098,99.92,4.0,,0.0,0.0,
2025-08-14T23:11:18.853Z,4,GR86-057-57,-5.1000000000000005,0.1,-0.092,99.89,4.0,6774.0,0.0,0.0,172.32
2025-08-14T23:11:18.895Z,4,GR86-057-57,-5.1000000000000005,0.076,-0.091,99.91,4.0,,0.0,0.0,
2025-08-14T23:11:18.938Z,4,GR86-057-57,-5.1000000000000005,0.073,-0.097,99.91,4.0,,0.0,0.0,
2025-08-14T23:11:18.981Z,4,GR86-057-57,-5.1000000000000005,0.079,-0.08,99.91,4.0,,0.0,0.0,
2025-08-14T23:11:19.024Z,4,GR86-057-57,-5.1000000000000005,0.142,-0.092,99.91,4.0,6770.0,0.0,0.0,
2025-08-14T23:11:19.067Z,4,GR86-057-57,-5.1000000000000005,0.132,-0.088,99.92,4.0,,0.0,0.0,173.15
2025-08-14T23:11:19.110Z,4,GR86-057-57,-5.1000000000000005,0.137,-0.083,99.9,4.0,,0.0,0.0,
2025-08-14T23:11:19.154Z,4,GR86-057-57,-5.1000000000000005,0.122,-0.08,99.91,4.0,,0.0,0.0,
2025-08-14T23:11:19.196Z,4,GR86-057-57,-5.1000000000000005,0.108,-0.051,99.91,4.0,,0.0,0.0,
2025-08-14T23:11:19.239Z,4,GR86-057-57,-5.1000000000000005,0.107,-0.081,99.87,4.0,6843.0,0.0,0.0,
2025-08-14T23:11:19.283Z,4,GR86-057-57,-4.9,0.11,-0.076,99.91,4.0,,0.0,0.0,174.06
2025-08-14T23:11:19.325Z,4,GR86-057-57,-4.6000000000000005,0.115,-0.08,99.91,4.0,,0.0,0.0,
2025-08-14T23:11:19.369Z,4,GR86-057-57,-4.6000000000000005,0.108,-0.068,99.91,4.0,,0.0,0.0,
2025-08-14T23:11:19.413Z,4,GR86-057-57,-4.7,0.118,-0.082,99.9,4.0,,0.0,0.0,
2025-08-14T23:11:19.455Z,4,GR86-057-57,-5.0,0.124,-0.061,99.92,4.0,6878.0,0.0,0.0,
2025-08-14T23:11:19.499Z,4,GR86-057-57,-5.4,0.125,-0.062,99.87,4.0,,0.0,0.0,174.91
2025-08-14T23:11:19.543Z,4,GR86-057-57,-5.300000000000001,0.066,-0.073,99.89,4.0,,0.0,0.0,
2025-08-14T23:11:19.585Z,4,GR86-057-57,-4.7,0.087,-0.075,99.92,4.0,,0.0,0.0,
2025-08-14T23:11:19.628Z,4,GR86-057-57,-3.8,0.077,-0.084,99.91,4.0,,0.0,0.0,
2025-08-14T23:11:19.671Z,4,GR86-057-57,-3.5,0.066,-0.075,99.91,4.0,6913.0,0.0,0.0,
2025-08-14T23:11:19.714Z,4,GR86-057-57,-3.4000000000000004,0.074,-0.08,99.91,4.0,,0.0,0.0,176.41
2025-08-14T23:11:19.757Z,4,GR86-057-57,-3.4000000000000004,-0.174,-0.056,99.89,5.0,,0.0,0.0,
2025-08-14T23:11:19.800Z,4,GR86-057-57,-3.1,0.124,-0.018,99.91,5.0,,0.0,0.0,
2025-08-14T23:11:19.844Z,4,GR86-057-57,-2.1,0.122,-0.1,99.9,5.0,,0.0,0.0,
2025-08-14T23:11:19.886Z,4,GR86-057-57,-2.5,-0.078,0.02,99.9,5.0,6943.0,0.0,0.0,
2025-08-14T23:11:19.929Z,4,GR86-057-57,-3.3000000000000003,0.083,0.029,99.9,5.0,,0.0,0.0,177.26
2025-08-14T23:11:19.973Z,4,GR86-057-57,-3.1,0.176,-0.031,99.9,5.0,,0.0,0.0,
2025-08-14T23:11:20.058Z,4,GR86-057-57,-3.1,0.041,0.008,99.91,5.0,,0.0,0.0,
2025-08-14T23:11:20.101Z,4,GR86-057-57,-3.2,0.075,-0.01,99.9,5.0,6919.0,0.0,0.0,
2025-08-14T23:11:20.144Z,4,GR86-057-57,-3.3000000000000003,0.098,0.012,99.91,5.0,,0.0,0.0,178.04
2025-08-14T23:11:20.187Z,4,GR86-057-57,-3.3000000000000003,0.085,0.012,99.91,5.0,,0.0,0.0,
2025-08-14T23:11:20.273Z,4,GR86-057-57,-3.0,0.1,0.005,99.91,5.0,,0.0,0.0,
2025-08-14T23:11:20.316Z,4,GR86-057-57,-2.8000000000000003,0.089,0.009,99.89,5.0,6101.0,0.0,0.0,
2025-08-14T23:11:20.359Z,4,GR86-057-57,-3.7,0.101,-0.01,99.91,5.0,,0.0,0.0,178.55
2025-08-14T23:11:20.405Z,4,GR86-057-57,-3.8,0.051,-0.004,99.91,5.0,,0.0,0.0,
2025-08-14T23:11:20.447Z,4,GR86-057-57,-3.8,0.05,-0.02,99.91,5.0,,0.0,0.0,
2025-08-14T23:11:20.490Z,4,GR86-057-57,-3.8,0.061,-0.027,99.91,5.0,,0.0,0.0,
2025-08-14T23:11:20.534Z,4,GR86-057-57,-3.8,0.062,-0.048,99.9,5.0,6101.0,0.0,0.0,
2025-08-14T23:11:20.576Z,4,GR86-057-57,-3.7,0.056,-0.043,99.9,5.0,,0.0,0.0,179.29
2025-08-14T23:11:20.619Z,4,GR86-057-57,-3.7,0.056,-0.058,99.91,5.0,,0.0,0.0,
2025-08-14T23:11:20.836Z,4,GR86-057-57,-3.6,0.098,-0.038,99.91,5.0,6095.0,0.0,0.0,179.81
2025-08-14T23:11:20.879Z,4,GR86-057-57,-3.3000000000000003,0.105,-0.01,99.9,5.0,,0.0,0.0,
2025-08-14T23:11:20.923Z,4,GR86-057-57,-3.0,0.073,-0.049,99.91,5.0,,0.0,0.0,
2025-08-14T23:11:20.966Z,4,GR86-057-57,-3.0,0.064,-0.05,99.92,5.0,6151.0,0.0,0.0,
2025-08-14T23:11:21.009Z,4,GR86-057-57,-3.0,0.063,-0.061,99.91,5.0,,0.0,0.0,180.61
2025-08-14T23:11:21.053Z,4,GR86-057-57,-3.0,0.054,-0.04,99.91,5.0,,0.0,0.0,
2025-08-14T23:11:21.095Z,4,GR86-057-57,-3.0,0.057,-0.053,99.89,5.0,,0.0,0.0,
2025-08-14T23:11:21.138Z,4,GR86-057-57,-3.0,0.052,-0.037,99.9,5.0,,0.0,0.0,
2025-08-14T23:11:21.181Z,4,GR86-057-57,-3.0,0.067,-0.037,99.9,5.0,6134.0,0.0,0.0,
2025-08-14T23:11:21.224Z,4,GR86-057-57,-3.0,0.102,-0.037,99.9,5.0,,0.0,0.0,181.28
2025-08-14T23:11:21.267Z,4,GR86-057-57,-3.0,0.098,-0.02,99.91,5.0,,0.0,0.0,
2025-08-14T23:11:21.310Z,4,GR86-057-57,-3.0,0.087,-0.028,99.92,5.0,,0.0,0.0,
2025-08-14T23:11:21.354Z,4,GR86-057-57,-3.0,0.09,-0.018,99.91,5.0,,0.0,0.0,
2025-08-14T23:11:21.397Z,4,GR86-057-57,-3.0,0.098,-0.021,99.92,5.0,6159.0,0.0,0.0,
2025-08-14T23:11:21.440Z,4,GR86-057-57,-3.0,0.105,-0.001,99.91,5.0,,0.0,0.0,181.89
2025-08-14T23:11:21.484Z,4,GR86-057-57,-2.8000000000000003,0.069,-0.03,99.9,5.0,,0.0,0.0,
2025-08-14T23:11:21.527Z,4,GR86-057-57,-2.8000000000000003,0.051,-0.025,99.92,5.0,,0.0,0.0,
2025-08-14T23:11:21.570Z,4,GR86-057-57,-2.8000000000000003,0.056,-0.032,99.91,5.0,,0.0,0.0,
2025-08-14T23:11:21.614Z,4,GR86-057-57,-2.8000000000000003,0.046,-0.031,99.9,5.0,6216.0,0.0,0.0,
2025-08-14T23:11:21.656Z,4,GR86-057-57,-2.8000000000000003,0.043,-0.04,99.9,5.0,,0.0,0.0,182.59
2025-08-14T23:11:21.699Z,4,GR86-057-57,-2.8000000000000003,0.063,-0.019,99.9,5.0,,0.0,0.0,
2025-08-14T23:11:21.743Z,4,GR86-057-57,-2.7,0.112,-0.035,99.92,5.0,,0.0,0.0,
2025-08-14T23:11:21.785Z,4,GR86-057-57,-2.4000000000000004,0.107,-0.02,99.92,5.0,,0.0,0.0,
2025-08-14T23:11:21.828Z,4,GR86-057-57,-2.0,0.112,-0.031,99.92,5.0,6200.0,0.0,0.0,
2025-08-14T23:11:21.871Z,4,GR86-057-57,-1.7000000000000002,0.102,-0.003,99.91,5.0,,0.0,0.0,183.22
2025-08-14T23:11:21.914Z,4,GR86-057-57,-1.7000000000000002,0.112,0.001,99.91,5.0,,0.0,0.0,
2025-08-14T23:11:21.957Z,4,GR86-057-57,-1.7000000000000002,0.117,-0.007,99.91,5.0,,0.0,0.0,
2025-08-14T23:11:22.000Z,4,GR86-057-57,-1.7000000000000002,0.105,-0.01,99.9,5.0,,0.0,0.0,
2025-08-14T23:11:22.044Z,4,GR86-057-57,-1.7000000000000002,0.049,-0.02,99.92,5.0,6224.0,0.0,0.0,
2025-08-14T23:11:22.087Z,4,GR86-057-57,-1.7000000000000002,0.054,-0.006,99.9,5.0,,0.0,0.0,183.82
2025-08-14T23:11:22.129Z,4,GR86-057-57,-1.7000000000000002,0.056,0.003,99.9,5.0,,0.0,0.0,
2025-08-14T23:11:22.174Z,4,GR86-057-57,-1.7000000000000002,0.048,0.004,99.92,5.0,,0.0,0.0,
2025-08-14T23:11:22.216Z,4,GR86-057-57,-1.7000000000000002,0.061,0.007,99.73,5.0,,0.0,0.0,
2025-08-14T23:11:22.259Z,4,GR86-057-57,-1.6,0.063,0.005,92.98,5.0,6246.0,0.0,0.0,
2025-08-14T23:11:22.304Z,4,GR86-057-57,-1.4,0.1,0.01,91.81,5.0,,0.0,0.0,185.09
2025-08-14T23:11:22.347Z,4,GR86-057-57,-1.4,0.094,0.009,92.39,5.0,,0.0,0.0,
2025-08-14T23:11:22.390Z,4,GR86-057-57,-1.4,0.08,0.004,92.15,5.0,,0.0,0.0,
2025-08-14T23:11:22.434Z,4,GR86-057-57,-1.5,0.075,0.007,91.29,5.0,,0.0,0.0,
2025-08-14T23:11:22.477Z,4,GR86-057-57,-1.7000000000000002,0.086,0.002,90.45,5.0,6265.0,0.0,0.0,
2025-08-14T23:11:22.520Z,4,GR86-057-57,-1.7000000000000002,0.078,0.003,74.92,5.0,,0.0,0.0,185.99
2025-08-14T23:11:22.564Z,4,GR86-057-57,-1.7000000000000002,0.081,-0.013,58.97,5.0,,0.0,0.0,
2025-08-14T23:11:22.607Z,4,GR86-057-57,-1.7000000000000002,0.089,-0.008,59.120000000000005,5.0,,0.0,0.0,
2025-08-14T23:11:22.650Z,4,GR86-057-57,-1.7000000000000002,0.094,-0.006,59.27,5.0,,0.0,0.0,
2025-08-14T23:11:22.694Z,4,GR86-057-57,-1.7000000000000002,0.096,0.0,59.370000000000005,5.0,6287.0,0.0,0.0,
2025-08-14T23:11:22.736Z,4,GR86-057-57,-1.7000000000000002,0.113,-0.001,57.61,5.0,,0.0,0.0,186.59
2025-08-14T23:11:22.779Z,4,GR86-057-57,-1.7000000000000002,0.097,0.001,51.91,5.0,,0.0,0.0,
2025-08-14T23:11:22.823Z,4,GR86-057-57,-2.0,0.036,-0.01,43.51,5.0,,0.0,0.0,
2025-08-14T23:11:22.865Z,4,GR86-057-57,-2.1,0.034,0.007,39.06,5.0,,0.0,0.0,
2025-08-14T23:11:22.908Z,4,GR86-057-57,-2.1,0.03,-0.006,38.63,5.0,6375.0,0.0,0.0,
2025-08-14T23:11:22.951Z,4,GR86-057-57,-2.1,0.016,0.004,38.62,5.0,,0.0,0.0,187.19
2025-08-14T23:11:22.994Z,4,GR86-057-57,-2.1,0.013,0.007,38.85,5.0,,0.0,0.0,
2025-08-14T23:11:23.037Z,4,GR86-057-57,-2.1,0.013,-0.014,39.1,5.0,,0.0,0.0,
2025-08-14T23:11:23.080Z,4,GR86-057-57,-1.9,0.023,-0.006,39.33,5.0,,0.0,0.0,
2025-08-14T23:11:23.167Z,4,GR86-057-57,-1.8,0.015,-0.013,40.16,5.0,6384.0,0.0,0.0,187.84
2025-08-14T23:11:23.210Z,4,GR86-057-57,-1.8,0.021,-0.016,41.55,5.0,,0.0,0.0,
2025-08-14T23:11:23.253Z,4,GR86-057-57,-1.8,0.019,-0.019,43.26,5.0,,0.0,0.0,
2025-08-14T23:11:23.296Z,4,GR86-057-57,-1.8,0.013,-0.014,45.07,5.0,,0.0,0.0,
2025-08-14T23:11:23.339Z,4,GR86-057-57,-1.8,0.024,-0.012,45.02,5.0,6347.0,0.0,0.0,
2025-08-14T23:11:23.383Z,4,GR86-057-57,-2.1,0.076,-0.021,45.01,5.0,,0.0,0.0,188.41
2025-08-14T23:11:23.425Z,4,GR86-057-57,-2.5,0.077,-0.02,44.94,5.0,,0.0,0.0,
2025-08-14T23:11:23.468Z,4,GR86-057-57,-2.8000000000000003,0.085,-0.023,44.65,5.0,,0.0,0.0,
2025-08-14T23:11:23.511Z,4,GR86-057-57,-2.8000000000000003,0.06,-0.026,44.61,5.0,,0.0,0.0,
2025-08-14T23:11:23.554Z,4,GR86-057-57,-2.1,0.075,-0.024,44.34,5.0,6403.0,0.0,0.0,
2025-08-14T23:11:23.597Z,4,GR86-057-57,-1.3,0.04,-0.02,43.89,5.0,,0.0,0.0,188.67
2025-08-14T23:11:23.640Z,4,GR86-057-57,-0.9,0.052,-0.019,42.97,5.0,,0.0,0.0,
2025-08-14T23:11:23.684Z,4,GR86-057-57,-0.7000000000000001,0.061,-0.006,39.84,5.0,,0.0,0.0,
2025-08-14T23:11:23.726Z,4,GR86-057-57,-0.4,0.057,-0.003,39.04,5.0,,0.0,0.0,
2025-08-14T23:11:23.769Z,4,GR86-057-57,0.3,0.058,0.0,38.4,5.0,6420.0,0.0,0.0,
2025-08-14T23:11:23.813Z,4,GR86-057-57,1.4,0.055,0.009,37.89,5.0,,0.0,0.0,188.94
2025-08-14T23:11:23.857Z,4,GR86-057-57,2.3000000000000003,0.064,0.019,37.83,5.0,,0.0,0.0,
2025-08-14T23:11:23.900Z,4,GR86-057-57,2.6,0.062,0.036,37.54,5.0,,0.0,0.0,
2025-08-14T23:11:23.944Z,4,GR86-057-57,2.6,0.004,0.044,36.47,5.0,,0.0,0.0,
2025-08-14T23:11:24.030Z,4,GR86-057-57,2.6,0.004,0.068,35.64,5.0,6389.0,0.0,0.0,189.42
2025-08-14T23:11:24.074Z,4,GR86-057-57,2.6,0.009,0.114,35.43,5.0,,0.0,0.0,
2025-08-14T23:11:24.116Z,4,GR86-057-57,2.7,0.022,0.136,35.46,5.0,,0.0,0.0,
2025-08-14T23:11:24.159Z,4,GR86-057-57,3.4000000000000004,0.016,0.155,35.52,5.0,,0.0,0.0,
2025-08-14T23:11:24.204Z,4,GR86-057-57,4.6000000000000005,0.003,0.155,35.46,5.0,6439.0,0.0,0.0,
2025-08-14T23:11:24.247Z,4,GR86-057-57,4.6000000000000005,0.004,0.172,35.480000000000004,5.0,,0.0,0.0,189.83
2025-08-14T23:11:24.290Z,4,GR86-057-57,4.3,-0.008,0.205,35.550000000000004,5.0,,0.0,0.0,
2025-08-14T23:11:24.377Z,4,GR86-057-57,4.3,0.008,0.205,35.62,5.0,,0.0,0.0,
2025-08-14T23:11:24.420Z,4,GR86-057-57,4.3,-0.004,0.224,35.62,5.0,6411.0,0.0,0.0,
2025-08-14T23:11:24.464Z,4,GR86-057-57,4.1000000000000005,0.036,0.209,35.46,5.0,,0.0,0.0,190.15
2025-08-14T23:11:24.507Z,4,GR86-057-57,4.1000000000000005,0.032,0.216,35.12,5.0,,0.0,0.0,
2025-08-14T23:11:24.550Z,4,GR86-057-57,4.1000000000000005,0.019,0.205,34.7,5.0,,0.0,0.0,
2025-08-14T23:11:24.594Z,4,GR86-057-57,4.3,0.012,0.215,34.44,5.0,,0.0,0.0,
2025-08-14T23:11:24.636Z,4,GR86-057-57,4.6000000000000005,-0.001,0.225,34.42,5.0,6463.0,0.0,0.0,
2025-08-14T23:11:24.679Z,4,GR86-057-57,4.7,0.002,0.22,34.480000000000004,5.0,,0.0,0.0,190.59
2025-08-14T23:11:24.723Z,4,GR86-057-57,4.4,0.03,0.204,34.62,5.0,,0.0,0.0,
2025-08-14T23:11:24.765Z,4,GR86-057-57,3.6,0.049,0.196,34.67,5.0,,0.0,0.0,
2025-08-14T23:11:24.809Z,4,GR86-057-57,3.1,0.035,0.187,34.72,5.0,,0.0,0.0,
2025-08-14T23:11:24.853Z,4,GR86-057-57,3.2,0.044,0.172,34.730000000000004,5.0,6429.0,0.0,0.0,
2025-08-14T23:11:24.895Z,4,GR86-057-57,3.7,0.021,0.175,34.75,5.0,,0.0,0.0,190.96
2025-08-14T23:11:24.938Z,4,GR86-057-57,4.4,0.032,0.164,34.83,5.0,,0.0,0.0,
2025-08-14T23:11:24.981Z,4,GR86-057-57,4.800000000000001,0.02,0.147,34.86,5.0,,0.0,0.0,
2025-08-14T23:11:25.024Z,4,GR86-057-57,4.9,0.038,0.183,34.89,5.0,,0.0,0.0,
2025-08-14T23:11:25.067Z,4,GR86-057-57,4.800000000000001,0.031,0.162,34.88,5.0,6472.0,0.0,0.0,
2025-08-14T23:11:25.110Z,4,GR86-057-57,4.800000000000001,0.044,0.159,34.86,5.0,,0.0,0.0,191.46
2025-08-14T23:11:25.154Z,4,GR86-057-57,4.9,0.04,0.165,34.89,5.0,,0.0,0.0,
2025-08-14T23:11:25.196Z,4,GR86-057-57,4.9,0.042,0.173,35.050000000000004,5.0,,0.0,0.0,
2025-08-14T23:11:25.239Z,4,GR86-057-57,4.9,0.045,0.173,35.11,5.0,,0.0,0.0,
2025-08-14T23:11:25.325Z,4,GR86-057-57,6.7,0.008,0.191,35.02,5.0,6487.0,0.0,0.0,191.71
2025-08-14T23:11:25.368Z,4,GR86-057-57,7.1000000000000005,0.024,0.21,34.86,5.0,,0.0,0.0,
2025-08-14T23:11:25.411Z,4,GR86-057-57,7.1000000000000005,0.022,0.233,34.800000000000004,5.0,,0.0,0.0,
2025-08-14T23:11:25.454Z,4,GR86-057-57,6.5,0.031,0.23,34.75,5.0,,0.0,0.0,
2025-08-14T23:11:25.497Z,4,GR86-057-57,6.1000000000000005,0.028,0.228,34.71,5.0,6450.0,0.0,0.0,
2025-08-14T23:11:25.540Z,4,GR86-057-57,6.1000000000000005,0.038,0.225,34.64,5.0,,0.0,0.0,192.0
2025-08-14T23:11:25.584Z,4,GR86-057-57,6.4,0.003,0.244,34.6,5.0,,0.0,0.0,
2025-08-14T23:11:25.627Z,4,GR86-057-57,6.9,0.004,0.265,33.83,5.0,,0.0,0.0,
2025-08-14T23:11:25.670Z,4,GR86-057-57,7.5,0.017,0.254,22.41,5.0,,0.0,0.0,
2025-08-14T23:11:25.714Z,4,GR86-057-57,8.1,0.02,0.243,4.2700000000000005,5.0,6520.0,0.0,0.0,
2025-08-14T23:11:25.756Z,4,GR86-057-57,8.4,-0.012,0.26,4.04,5.0,,0.0,0.0,192.25
2025-08-14T23:11:25.799Z,4,GR86-057-57,8.200000000000001,-0.116,0.294,3.85,5.0,,0.0,0.0,
2025-08-14T23:11:25.843Z,4,GR86-057-57,7.1000000000000005,-0.399,0.291,3.42,5.0,,0.0,0.0,
2025-08-14T23:11:25.885Z,4,GR86-057-57,6.5,-0.209,0.303,3.21,5.0,,0.0,0.0,
2025-08-14T23:11:25.928Z,4,GR86-057-57,5.6000000000000005,-0.13,0.302,3.04,5.0,6481.0,9.49,9.875,
2025-08-14T23:11:25.971Z,4,GR86-057-57,4.9,-0.315,0.235,2.94,5.0,,13.08,13.245,192.4
2025-08-14T23:11:26.014Z,4,GR86-057-57,5.0,-0.469,0.255,2.85,5.0,,16.740000000000002,16.8,
2025-08-14T23:11:26.057Z,4,GR86-057-57,5.7,-0.496,0.245,2.81,5.0,,20.51,20.63,
2025-08-14T23:11:26.100Z,4,GR86-057-57,5.800000000000001,-0.5720000000000001,0.22,2.75,5.0,,24.765,24.555,
2025-08-14T23:11:26.144Z,4,GR86-057-57,4.3,-0.729,0.227,2.65,5.0,6504.0,30.735,30.58,
2025-08-14T23:11:26.186Z,4,GR86-057-57,4.2,-0.739,0.185,2.58,5.0,,32.14,32.17,192.48
2025-08-14T23:11:26.229Z,4,GR86-057-57,4.800000000000001,-0.715,0.187,2.53,5.0,,31.48,32.045,
2025-08-14T23:11:26.273Z,4,GR86-057-57,4.9,-0.713,0.173,2.5,5.0,,27.59,28.43,
2025-08-14T23:11:26.315Z,4,GR86-057-57,4.7,-0.626,0.166,2.47,5.0,,19.52,20.51,
2025-08-14T23:11:26.358Z,4,GR86-057-57,4.5,-0.48,0.166,2.47,5.0,6273.0,12.39,13.37,
2025-08-14T23:11:26.401Z,4,GR86-057-57,4.5,-0.415,0.178,2.47,5.0,,10.115,10.775,189.87
2025-08-14T23:11:26.444Z,4,GR86-057-57,5.5,-0.362,0.154,2.46,5.0,,10.62,11.065,
2025-08-14T23:11:26.487Z,4,GR86-057-57,6.1000000000000005,-0.353,0.157,2.46,5.0,,11.185,11.55,
2025-08-14T23:11:26.530Z,4,GR86-057-57,6.7,-0.381,0.141,2.46,5.0,,11.52,11.87,
2025-08-14T23:11:26.574Z,4,GR86-057-57,6.9,-0.39,0.138,2.47,5.0,6065.0,11.125,11.55,
2025-08-14T23:11:26.616Z,4,GR86-057-57,6.9,-0.377,0.153,2.47,5.0,,8.120000000000001,8.76,184.68
2025-08-14T23:11:26.659Z,4,GR86-057-57,6.9,-0.272,0.17,2.46,5.0,,2.855,3.31,
2025-08-14T23:11:26.704Z,4,GR86-057-57,6.800000000000001,-0.173,0.204,2.46,5.0,,0.0,2.135,
2025-08-14T23:11:26.747Z,4,GR86-057-57,6.6000000000000005,-0.18,0.211,2.47,5.0,,4.18,4.565,
2025-08-14T23:11:26.790Z,4,GR86-057-57,6.4,-0.245,0.206,2.47,5.0,6074.0,6.365,6.625,
2025-08-14T23:11:26.834Z,4,GR86-057-57,6.300000000000001,-0.281,0.22,2.47,5.0,,9.52,9.72,182.37
2025-08-14T23:11:26.876Z,4,GR86-057-57,6.2,-0.375,0.238,2.47,5.0,,13.675,13.735,
2025-08-14T23:11:26.919Z,4,GR86-057-57,5.800000000000001,-0.457,0.236,2.47,5.0,,18.02,17.900000000000002,
2025-08-14T23:11:26.963Z,4,GR86-057-57,5.0,-0.592,0.211,2.46,5.0,,26.66,26.325,
2025-08-14T23:11:27.007Z,4,GR86-057-57,4.2,-0.6980000000000001,0.212,2.47,5.0,5988.0,32.93,32.595,
2025-08-14T23:11:27.050Z,4,GR86-057-57,3.6,-0.774,0.204,2.47,5.0,,37.74,37.235,179.77
2025-08-14T23:11:27.094Z,4,GR86-057-57,3.2,-0.835,0.194,2.47,5.0,,41.49,40.925,
2025-08-14T23:11:27.136Z,4,GR86-057-57,3.0,-0.899,0.196,2.48,5.0,,44.94,44.435,
2025-08-14T23:11:27.179Z,4,GR86-057-57,3.4000000000000004,-0.955,0.213,2.47,5.0,,47.765,47.185,
2025-08-14T23:11:27.223Z,4,GR86-057-57,3.8,-0.969,0.189,2.47,5.0,5933.0,49.96,49.425,
2025-08-14T23:11:27.266Z,4,GR86-057-57,3.7,-0.889,0.177,2.47,5.0,,50.07,49.765,178.76
2025-08-14T23:11:27.309Z,4,GR86-057-57,3.4000000000000004,-0.8190000000000001,0.144,2.47,5.0,,47.995000000000005,48.48,
2025-08-14T23:11:27.353Z,4,GR86-057-57,3.2,-0.807,0.116,2.47,5.0,,40.395,41.83,
2025-08-14T23:11:27.395Z,4,GR86-057-57,3.2,-0.8130000000000001,0.166,2.47,5.0,,32.475,33.77,
2025-08-14T23:11:27.438Z,4,GR86-057-57,3.2,-0.785,0.131,2.47,5.0,5672.0,28.75,29.77,
2025-08-14T23:11:27.481Z,4,GR86-057-57,3.3000000000000003,-0.729,0.141,2.47,5.0,,27.59,28.46,174.02
2025-08-14T23:11:27.524Z,4,GR86-057-57,3.3000000000000003,-0.593,0.107,2.46,5.0,,26.905,27.805,
2025-08-14T23:11:27.567Z,4,GR86-057-57,2.9000000000000004,-0.625,0.104,2.46,5.0,,26.935,27.56,
2025-08-14T23:11:27.610Z,4,GR86-057-57,1.6,-0.668,0.075,2.47,5.0,,27.055,27.59,
2025-08-14T23:11:27.654Z,4,GR86-057-57,1.0,-0.671,0.006,2.47,5.0,5465.0,27.53,27.925,
2025-08-14T23:11:27.697Z,4,GR86-057-57,1.5,-0.656,0.001,2.47,5.0,,28.49,28.615,167.86
2025-08-14T23:11:27.740Z,4,GR86-057-57,2.7,-0.674,0.015,6.79,5.0,,29.865,29.985,
2025-08-14T23:11:27.784Z,4,GR86-057-57,4.1000000000000005,-0.6910000000000001,-0.01,70.58,5.0,,31.115,31.085,
2025-08-14T23:11:27.827Z,4,GR86-057-57,4.7,-0.686,-0.005,99.72,5.0,,30.61,30.995,
2025-08-14T23:11:27.870Z,4,GR86-057-57,5.300000000000001,-0.612,-0.016,86.88,4.0,5460.0,25.605,26.46,
2025-08-14T23:11:27.914Z,4,GR86-057-57,6.0,-0.589,-0.023,15.78,4.0,,15.87,16.94,158.81
2025-08-14T23:11:27.956Z,4,GR86-057-57,6.1000000000000005,-0.496,0.051,3.28,4.0,,9.215,9.875,
2025-08-14T23:11:27.999Z,4,GR86-057-57,6.4,-0.256,0.057,3.0,4.0,,6.12,6.575,
2025-08-14T23:11:28.043Z,4,GR86-057-57,7.5,-0.179,0.041,2.86,4.0,,3.695,4.18,
2025-08-14T23:11:28.085Z,4,GR86-057-57,7.7,-0.275,0.128,2.82,4.0,5250.0,3.695,4.12,
2025-08-14T23:11:28.128Z,4,GR86-057-57,7.7,-0.317,0.046,2.77,4.0,,4.18,4.715,154.55
2025-08-14T23:11:28.171Z,4,GR86-057-57,7.7,-0.259,0.112,2.72,4.0,,5.19,5.525,
2025-08-14T23:11:28.214Z,4,GR86-057-57,6.7,-0.226,0.16,2.66,4.0,,7.8,7.890000000000001,
2025-08-14T23:11:28.257Z,4,GR86-057-57,4.6000000000000005,-0.297,0.166,2.62,4.0,,11.095,11.37,
2025-08-14T23:11:28.300Z,4,GR86-057-57,2.5,-0.386,0.196,2.57,4.0,5481.0,14.055,14.145,
2025-08-14T23:11:28.344Z,4,GR86-057-57,1.1,-0.425,0.164,2.53,4.0,,17.900000000000002,17.96,152.85
2025-08-14T23:11:28.387Z,4,GR86-057-57,1.4,-0.472,0.164,2.5,4.0,,20.845,20.935,
2025-08-14T23:11:28.430Z,4,GR86-057-57,2.0,-0.581,0.173,2.5,4.0,,23.805,23.655,
2025-08-14T23:11:28.474Z,4,GR86-057-57,2.7,-0.645,0.131,11.56,4.0,,26.2,26.05,
2025-08-14T23:11:28.516Z,4,GR86-057-57,3.2,-0.621,0.116,55.63,4.0,5753.0,27.62,27.71,
2025-08-14T23:11:28.559Z,4,GR86-057-57,3.4000000000000004,-0.5680000000000001,0.107,97.35,3.0,,27.56,27.865,151.34
2025-08-14T23:11:28.604Z,4,GR86-057-57,3.2,-0.758,0.061,22.68,3.0,,25.36,25.99,
2025-08-14T23:11:28.647Z,4,GR86-057-57,3.1,-0.602,0.081,3.09,3.0,,23.93,24.705,
2025-08-14T23:11:28.690Z,4,GR86-057-57,4.3,-0.512,0.11,2.83,3.0,,22.19,22.705,
2025-08-14T23:11:28.734Z,4,GR86-057-57,5.6000000000000005,-0.78,0.047,2.71,3.0,5631.0,19.015,19.58,
2025-08-14T23:11:28.778Z,4,GR86-057-57,5.7,-0.68,0.144,2.62,3.0,,17.185,17.990000000000002,148.11
2025-08-14T23:11:28.821Z,4,GR86-057-57,5.2,-0.391,0.105,2.57,3.0,,14.3,15.185,
2025-08-14T23:11:28.864Z,4,GR86-057-57,3.7,-0.471,0.141,2.5,3.0,,13.61,14.3,
2025-08-14T23:11:28.907Z,4,GR86-057-57,2.9000000000000004,-0.469,0.144,2.5,3.0,,13.61,13.95,
2025-08-14T23:11:28.950Z,4,GR86-057-57,2.9000000000000004,-0.409,0.068,2.47,3.0,6107.0,13.245,13.305,
2025-08-14T23:11:28.994Z,4,GR86-057-57,2.9000000000000004,-0.424,0.121,2.47,3.0,,12.27,12.775,144.04
2025-08-14T23:11:29.036Z,4,GR86-057-57,2.9000000000000004,-0.408,0.065,2.48,3.0,,11.125,11.87,
2025-08-14T23:11:29.079Z,4,GR86-057-57,3.1,-0.378,0.074,2.47,3.0,,11.905,12.115,
2025-08-14T23:11:29.123Z,4,GR86-057-57,3.8,-0.465,0.073,2.47,3.0,,13.55,13.855,
2025-08-14T23:11:29.165Z,4,GR86-057-57,4.1000000000000005,-0.392,0.074,2.47,3.0,6354.0,13.61,13.855,
2025-08-14T23:11:29.208Z,4,GR86-057-57,4.800000000000001,-0.41,0.071,2.47,3.0,,13.305,13.735,140.93
2025-08-14T23:11:29.252Z,4,GR86-057-57,5.2,-0.447,0.052,2.47,3.0,,11.46,12.055,
2025-08-14T23:11:29.294Z,4,GR86-057-57,5.2,-0.365,0.07,2.47,3.0,,6.455,7.11,
2025-08-14T23:11:29.338Z,4,GR86-057-57,5.4,-0.218,0.07,2.47,3.0,,3.725,4.18,
2025-08-14T23:11:29.381Z,4,GR86-057-57,5.800000000000001,-0.254,0.083,2.47,3.0,6259.0,2.855,3.435,
2025-08-14T23:11:29.467Z,4,GR86-057-57,5.9,-0.275,0.095,2.48,3.0,,5.22,5.555,138.29
2025-08-14T23:11:29.510Z,4,GR86-057-57,5.6000000000000005,-0.284,0.1,2.48,3.0,,7.765000000000001,7.92,
2025-08-14T23:11:29.554Z,4,GR86-057-57,5.300000000000001,-0.319,0.12,2.47,3.0,,10.18,10.24,
2025-08-14T23:11:29.596Z,4,GR86-057-57,5.300000000000001,-0.408,0.13,2.47,3.0,6157.0,12.055,12.27,
2025-08-14T23:11:29.639Z,4,GR86-057-57,5.1000000000000005,-0.437,0.129,2.47,3.0,,13.765,14.24,135.94
2025-08-14T23:11:29.683Z,4,GR86-057-57,4.2,-0.487,0.123,2.47,3.0,,15.72,16.25,
2025-08-14T23:11:29.725Z,4,GR86-057-57,3.7,-0.484,0.12,2.48,3.0,,18.525,18.68,
2025-08-14T23:11:29.811Z,4,GR86-057-57,3.6,-0.594,0.108,2.48,3.0,6077.0,25.575,25.635,
2025-08-14T23:11:29.854Z,4,GR86-057-57,3.6,-0.644,0.089,2.48,3.0,,27.745,28.095,134.69
2025-08-14T23:11:29.897Z,4,GR86-057-57,3.6,-0.633,0.08,2.47,3.0,,29.085,29.175,
2025-08-14T23:11:29.940Z,4,GR86-057-57,3.6,-0.677,0.091,2.49,3.0,,30.015,30.335,
2025-08-14T23:11:29.984Z,4,GR86-057-57,3.7,-0.712,0.082,2.46,3.0,,32.655,32.715,
2025-08-14T23:11:30.026Z,4,GR86-057-57,4.1000000000000005,-0.745,0.067,2.47,3.0,5983.0,34.335,34.685,
2025-08-14T23:11:30.069Z,4,GR86-057-57,4.9,-0.736,0.068,5.39,3.0,,35.265,35.265,132.39
2025-08-14T23:11:30.114Z,4,GR86-057-57,6.2,-0.749,0.076,46.88,3.0,,33.19,33.8,
2025-08-14T23:11:30.157Z,4,GR86-057-57,6.800000000000001,-0.659,0.061,92.43,3.0,,25.835,26.875,
2025-08-14T23:11:30.200Z,4,GR86-057-57,6.800000000000001,-0.501,0.076,99.88,3.0,,17.490000000000002,18.555,
2025-08-14T23:11:30.244Z,4,GR86-057-57,7.9,-0.283,0.057,64.16,2.0,5770.0,10.055,10.53,
2025-08-14T23:11:30.286Z,4,GR86-057-57,8.1,-0.612,0.079,4.44,2.0,,10.405,10.715,129.04
2025-08-14T23:11:30.329Z,4,GR86-057-57,8.1,-0.604,0.147,3.0,2.0,,15.06,15.475,
2025-08-14T23:11:30.373Z,4,GR86-057-57,8.4,-0.417,0.1,2.83,2.0,,18.985,19.075,
2025-08-14T23:11:30.416Z,4,GR86-057-57,8.5,-0.5710000000000001,0.113,2.76,2.0,,21.305,21.47,
2025-08-14T23:11:30.459Z,4,GR86-057-57,8.1,-0.627,0.239,2.7,2.0,5569.0,22.37,22.675,
2025-08-14T23:11:30.504Z,4,GR86-057-57,6.9,-0.553,0.104,2.64,2.0,,21.5,21.87,121.12
2025-08-14T23:11:30.547Z,4,GR86-057-57,5.7,-0.489,0.23,2.59,2.0,,17.715,18.175,
2025-08-14T23:11:30.590Z,4,GR86-057-57,4.6000000000000005,-0.423,0.148,2.5500000000000003,2.0,,13.11,13.915,
2025-08-14T23:11:30.634Z,4,GR86-057-57,4.5,-0.413,0.13,2.5,2.0,,10.375,10.59,
2025-08-14T23:11:30.677Z,4,GR86-057-57,5.0,-0.404,0.197,2.47,2.0,6366.0,9.095,9.46,
2025-08-14T23:11:30.720Z,4,GR86-057-57,6.5,-0.403,0.13,2.47,2.0,,8.455,9.065,118.32
2025-08-14T23:11:30.764Z,4,GR86-057-57,8.5,-0.361,0.145,2.47,2.0,,10.715,10.985,
2025-08-14T23:11:30.807Z,4,GR86-057-57,8.6,-0.35,0.151,2.47,2.0,,13.045,13.17,
2025-08-14T23:11:30.850Z,4,GR86-057-57,8.3,-0.44,0.138,2.46,2.0,,15.9,16.085,
2025-08-14T23:11:30.894Z,4,GR86-057-57,8.3,-0.532,0.118,2.47,2.0,6578.0,21.06,21.15,
2025-08-14T23:11:30.936Z,4,GR86-057-57,8.3,-0.617,0.148,2.46,2.0,,26.325,26.14,115.3
2025-08-14T23:11:30.979Z,4,GR86-057-57,8.3,-0.6950000000000001,0.128,2.47,2.0,,30.275,30.155,
2025-08-14T23:11:31.023Z,4,GR86-057-57,8.3,-0.709,0.143,2.47,2.0,,34.03,34.12,
2025-08-14T23:11:31.065Z,4,GR86-057-57,9.2,-0.743,0.178,2.47,2.0,,35.205,35.405,
2025-08-14T23:11:31.108Z,4,GR86-057-57,10.2,-0.812,0.172,2.47,2.0,6230.0,35.89,36.335,
2025-08-14T23:11:31.151Z,4,GR86-057-57,11.4,-0.808,0.188,2.47,2.0,,36.7,37.02,112.96
2025-08-14T23:11:31.194Z,4,GR86-057-57,13.5,-0.795,0.2,2.46,2.0,,37.89,38.18,
2025-08-14T23:11:31.238Z,4,GR86-057-57,15.6,-0.809,0.198,2.47,2.0,,40.5,40.12,
2025-08-14T23:11:31.281Z,4,GR86-057-57,17.1,-0.844,0.238,2.47,2.0,,42.865,42.775,
2025-08-14T23:11:31.324Z,4,GR86-057-57,17.400000000000002,-0.912,0.23,2.47,2.0,5950.0,45.335,45.4,
2025-08-14T23:11:31.367Z,4,GR86-057-57,17.7,-0.876,0.218,2.47,2.0,,45.625,45.72,108.75
2025-08-14T23:11:31.410Z,4,GR86-057-57,18.3,-0.907,0.194,2.46,2.0,,44.405,45.335,
2025-08-14T23:11:31.454Z,4,GR86-057-57,18.3,-0.859,0.261,21.96,2.0,,39.965,40.96,
2025-08-14T23:11:31.496Z,4,GR86-057-57,18.7,-0.811,0.258,66.81,2.0,,35.525,36.87,
2025-08-14T23:11:31.539Z,4,GR86-057-57,19.8,-0.8260000000000001,0.305,99.38,2.0,5618.0,32.9,33.62,
2025-08-14T23:11:31.583Z,4,GR86-057-57,21.200000000000003,-0.606,0.335,91.43,1.0,,28.9,29.62,103.57
2025-08-14T23:11:31.625Z,4,GR86-057-57,22.3,-0.605,0.332,22.58,1.0,,27.225,27.925,
2025-08-14T23:11:31.668Z,4,GR86-057-57,22.8,-0.81,0.366,3.23,1.0,,26.02,26.63,
2025-08-14T23:11:31.711Z,4,GR86-057-57,22.8,-0.739,0.383,2.97,1.0,,24.92,25.635,
2025-08-14T23:11:31.754Z,4,GR86-057-57,22.9,-0.506,0.385,2.85,1.0,5250.0,19.55,19.825,
2025-08-14T23:11:31.798Z,4,GR86-057-57,22.6,-0.5,0.508,2.79,1.0,,15.185,15.84,97.25
2025-08-14T23:11:31.840Z,4,GR86-057-57,22.5,-0.458,0.549,2.71,1.0,,11.34,11.995,
2025-08-14T23:11:31.884Z,4,GR86-057-57,22.9,-0.357,0.494,2.53,1.0,,9.46,10.115,
2025-08-14T23:11:31.927Z,4,GR86-057-57,23.4,-0.378,0.537,2.47,1.0,,9.905,10.115,
2025-08-14T23:11:31.970Z,4,GR86-057-57,23.5,-0.389,0.439,2.46,1.0,6184.0,10.18,10.745,
2025-08-14T23:11:32.014Z,4,GR86-057-57,23.5,-0.4,0.464,2.45,1.0,,10.955,11.245,93.82
2025-08-14T23:11:32.056Z,4,GR86-057-57,24.3,-0.392,0.464,2.44,1.0,,13.015,13.14,
2025-08-14T23:11:32.099Z,4,GR86-057-57,27.1,-0.444,0.41,2.46,1.0,,15.81,15.87,
2025-08-14T23:11:32.143Z,4,GR86-057-57,36.1,-0.509,0.492,2.45,1.0,,19.365,19.425,
2025-08-14T23:11:32.185Z,4,GR86-057-57,42.8,-0.582,0.504,2.45,1.0,6441.0,23.3,22.995,
2025-08-14T23:11:32.228Z,4,GR86-057-57,48.0,-0.621,0.543,2.46,1.0,,26.84,26.75,90.45
2025-08-14T23:11:32.272Z,4,GR86-057-57,50.8,-0.6880000000000001,0.56,2.46,1.0,,29.62,29.5,
2025-08-14T23:11:32.315Z,4,GR86-057-57,51.400000000000006,-0.682,0.643,2.46,1.0,,31.42,31.115,
2025-08-14T23:11:32.358Z,4,GR86-057-57,51.5,-0.6910000000000001,0.62,2.46,1.0,,32.505,32.445,
2025-08-14T23:11:32.401Z,4,GR86-057-57,51.5,-0.672,0.645,2.47,1.0,6212.0,32.625,32.715,
2025-08-14T23:11:32.444Z,4,GR86-057-57,51.2,-0.712,0.579,2.47,1.0,,32.84,32.87,87.21000000000001
2025-08-14T23:11:32.487Z,4,GR86-057-57,50.6,-0.671,0.597,2.46,1.0,,34.03,33.71,
2025-08-14T23:11:32.530Z,4,GR86-057-57,50.5,-0.7020000000000001,0.686,2.46,1.0,,34.655,34.595,
2025-08-14T23:11:32.574Z,4,GR86-057-57,50.900000000000006,-0.647,0.678,2.46,1.0,,31.74,32.475,
2025-08-14T23:11:32.616Z,4,GR86-057-57,53.1,-0.653,0.631,2.47,1.0,5921.0,29.865,30.735,
2025-08-14T23:11:32.659Z,4,GR86-057-57,58.7,-0.644,0.71,2.47,1.0,,28.615,29.21,84.27
2025-08-14T23:11:32.704Z,4,GR86-057-57,68.5,-0.548,0.7010000000000001,2.47,1.0,,16.68,17.61,
2025-08-14T23:11:32.747Z,4,GR86-057-57,71.4,-0.421,0.837,2.47,1.0,,8.33,9.065,
2025-08-14T23:11:32.790Z,4,GR86-057-57,71.5,-0.303,0.842,2.46,1.0,,2.455,2.825,
2025-08-14T23:11:32.834Z,4,GR86-057-57,71.5,-0.217,0.842,2.47,1.0,5510.0,0.0,0.0,
2025-08-14T23:11:32.876Z,4,GR86-057-57,72.5,-0.244,0.8260000000000001,2.47,1.0,,0.0,0.0,80.38
2025-08-14T23:11:32.919Z,4,GR86-057-57,74.9,-0.214,0.8140000000000001,2.47,1.0,,0.0,0.0,
2025-08-14T23:11:32.963Z,4,GR86-057-57,80.0,-0.176,0.849,2.47,1.0,,0.0,0.0,
2025-08-14T23:11:33.007Z,4,GR86-057-57,85.30000000000001,-0.168,0.872,2.47,1.0,,0.0,0.0,
2025-08-14T23:11:33.050Z,4,GR86-057-57,89.60000000000001,-0.189,0.912,2.47,1.0,5170.0,0.0,0.0,
2025-08-14T23:11:33.094Z,4,GR86-057-57,90.7,-0.217,0.928,2.63,1.0,,0.0,0.0,75.5
2025-08-14T23:11:33.136Z,4,GR86-057-57,90.7,-0.199,0.884,3.84,1.0,,0.0,0.0,
2025-08-14T23:11:33.179Z,4,GR86-057-57,91.6,-0.2,0.876,4.23,1.0,,0.0,0.0,
2025-08-14T23:11:33.223Z,4,GR86-057-57,95.5,-0.19,0.87,4.32,1.0,,0.0,0.0,
2025-08-14T23:11:33.266Z,4,GR86-057-57,97.3,-0.194,0.953,4.6000000000000005,1.0,5114.0,0.0,0.0,
2025-08-14T23:11:33.309Z,4,GR86-057-57,98.9,-0.196,0.966,4.8100000000000005,1.0,,0.0,0.0,71.89
2025-08-14T23:11:33.353Z,4,GR86-057-57,100.3,-0.19,0.932,4.93,1.0,,0.0,0.0,
2025-08-14T23:11:33.395Z,4,GR86-057-57,101.2,-0.207,0.91,4.99,1.0,,0.0,0.0,
2025-08-14T23:11:33.438Z,4,GR86-057-57,101.1,-0.225,0.915,5.03,1.0,,0.0,0.0,
2025-08-14T23:11:33.481Z,4,GR86-057-57,100.1,-0.22,0.959,6.71,1.0,4996.0,0.0,0.0,
2025-08-14T23:11:33.524Z,4,GR86-057-57,95.4,-0.181,0.975,7.65,1.0,,0.0,0.0,70.59
2025-08-14T23:11:33.567Z,4,GR86-057-57,92.8,-0.162,0.972,7.66,1.0,,0.0,0.0,
2025-08-14T23:11:33.610Z,4,GR86-057-57,92.7,-0.158,0.99,8.91,1.0,,0.0,0.0,
2025-08-14T23:11:33.654Z,4,GR86-057-57,93.2,-0.152,0.936,8.41,1.0,,0.0,0.0,
2025-08-14T23:11:33.697Z,4,GR86-057-57,92.9,-0.139,0.96,9.14,1.0,4900.0,0.0,0.0,
2025-08-14T23:11:33.740Z,4,GR86-057-57,86.7,-0.134,0.981,9.62,1.0,,0.0,0.0,69.26
2025-08-14T23:11:33.784Z,4,GR86-057-57,74.9,-0.122,0.943,8.75,1.0,,0.0,0.0,
2025-08-14T23:11:33.827Z,4,GR86-057-57,74.4,-0.146,0.951,21.85,1.0,,0.0,0.0,
2025-08-14T23:11:33.870Z,4,GR86-057-57,82.60000000000001,-0.152,0.966,21.82,1.0,,0.0,0.0,
2025-08-14T23:11:33.914Z,4,GR86-057-57,93.2,-0.177,0.977,23.14,1.0,4769.0,0.0,0.0,
2025-08-14T23:11:33.956Z,4,GR86-057-57,100.1,-0.154,0.965,23.42,1.0,,0.0,0.0,67.9
2025-08-14T23:11:33.999Z,4,GR86-057-57,102.2,-0.098,0.943,23.6,1.0,,0.0,0.0,
2025-08-14T23:11:34.043Z,4,GR86-057-57,102.2,-0.024,1.016,27.53,1.0,,0.0,0.0,
2025-08-14T23:11:34.085Z,4,GR86-057-57,101.5,0.205,0.938,27.66,1.0,,0.0,0.0,
2025-08-14T23:11:34.171Z,4,GR86-057-57,100.9,0.202,0.979,29.87,1.0,4641.0,0.0,0.0,66.74
2025-08-14T23:11:34.214Z,4,GR86-057-57,100.6,0.159,0.998,31.13,1.0,,0.0,0.0,
2025-08-14T23:11:34.257Z,4,GR86-057-57,100.6,0.127,1.003,31.07,1.0,,0.0,0.0,
2025-08-14T23:11:34.300Z,4,GR86-057-57,100.5,0.141,0.996,30.88,1.0,,0.0,0.0,
2025-08-14T23:11:34.344Z,4,GR86-057-57,100.0,0.184,0.961,30.17,1.0,5083.0,0.0,0.0,
2025-08-14T23:11:34.387Z,4,GR86-057-57,98.7,0.201,0.969,30.02,1.0,,0.0,0.0,65.68
2025-08-14T23:11:34.430Z,4,GR86-057-57,96.5,0.189,0.915,29.87,1.0,,0.0,0.0,
2025-08-14T23:11:34.474Z,4,GR86-057-57,91.7,0.16,0.938,29.74,1.0,,0.0,0.0,
2025-08-14T23:11:34.516Z,4,GR86-057-57,85.30000000000001,0.167,0.921,29.68,1.0,,0.0,0.0,
2025-08-14T23:11:34.559Z,4,GR86-057-57,79.60000000000001,0.17,0.922,29.7,1.0,5007.0,0.0,0.0,
2025-08-14T23:11:34.604Z,4,GR86-057-57,75.3,0.183,0.913,29.7,1.0,,0.0,0.0,66.15
2025-08-14T23:11:34.647Z,4,GR86-057-57,75.0,0.189,0.903,29.67,1.0,,0.0,0.0,
2025-08-14T23:11:34.690Z,4,GR86-057-57,75.10000000000001,0.183,0.922,29.69,1.0,,0.0,0.0,
2025-08-14T23:11:34.734Z,4,GR86-057-57,75.60000000000001,0.197,0.88,29.68,1.0,,0.0,0.0,
2025-08-14T23:11:34.778Z,4,GR86-057-57,76.3,0.185,0.879,29.68,1.0,5074.0,0.0,0.0,
2025-08-14T23:11:34.821Z,4,GR86-057-57,76.4,0.195,0.859,29.82,1.0,,0.0,0.0,67.23
2025-08-14T23:11:34.864Z,4,GR86-057-57,76.2,0.191,0.897,32.57,1.0,,0.0,0.0,
2025-08-14T23:11:34.907Z,4,GR86-057-57,75.4,0.175,0.858,34.730000000000004,1.0,,0.0,0.0,
2025-08-14T23:11:34.950Z,4,GR86-057-57,73.3,0.182,0.845,37.99,1.0,,0.0,0.0,
2025-08-14T23:11:34.994Z,4,GR86-057-57,68.7,0.199,0.856,41.48,1.0,5168.0,0.0,0.0,
2025-08-14T23:11:35.036Z,4,GR86-057-57,63.7,0.228,0.8130000000000001,42.7,1.0,,0.0,0.0,68.49
2025-08-14T23:11:35.079Z,4,GR86-057-57,58.7,0.259,0.8150000000000001,48.85,1.0,,0.0,0.0,
2025-08-14T23:11:35.123Z,4,GR86-057-57,51.8,0.274,0.793,70.59,1.0,,0.0,0.0,
2025-08-14T23:11:35.165Z,4,GR86-057-57,47.6,0.278,0.773,98.97,1.0,,0.0,0.0,
2025-08-14T23:11:35.208Z,4,GR86-057-57,43.8,0.289,0.735,99.83,1.0,5258.0,0.0,0.0,
2025-08-14T23:11:35.252Z,4,GR86-057-57,42.1,0.331,0.714,99.87,1.0,,0.0,0.0,69.60000000000001
2025-08-14T23:11:35.294Z,4,GR86-057-57,41.900000000000006,0.353,0.7000000000000001,99.86,1.0,,0.0,0.0,
2025-08-14T23:11:35.338Z,4,GR86-057-57,41.2,0.335,0.717,99.87,1.0,,0.0,0.0,
2025-08-14T23:11:35.381Z,4,GR86-057-57,39.2,0.34,0.722,99.87,1.0,,0.0,0.0,
2025-08-14T23:11:35.424Z,4,GR86-057-57,35.9,0.343,0.712,99.87,1.0,5436.0,0.0,0.0,
2025-08-14T23:11:35.467Z,4,GR86-057-57,32.5,0.369,0.682,99.89,1.0,,0.0,0.0,70.8
2025-08-14T23:11:35.510Z,4,GR86-057-57,27.4,0.364,0.665,99.9,1.0,,0.0,0.0,
2025-08-14T23:11:35.554Z,4,GR86-057-57,23.8,0.357,0.609,99.87,1.0,,0.0,0.0,
2025-08-14T23:11:35.596Z,4,GR86-057-57,21.1,0.328,0.5710000000000001,99.9,1.0,,0.0,0.0,
2025-08-14T23:11:35.639Z,4,GR86-057-57,21.1,0.343,0.53,99.89,1.0,5582.0,0.0,0.0,
2025-08-14T23:11:35.683Z,4,GR86-057-57,22.3,0.362,0.464,99.9,1.0,,0.0,0.0,72.34
2025-08-14T23:11:35.725Z,4,GR86-057-57,23.1,0.375,0.451,99.89,1.0,,0.0,0.0,
2025-08-14T23:11:35.768Z,4,GR86-057-57,24.3,0.356,0.407,99.88,1.0,,0.0,0.0,
2025-08-14T23:11:35.811Z,4,GR86-057-57,25.6,0.328,0.4,99.87,1.0,,0.0,0.0,
2025-08-14T23:11:35.854Z,4,GR86-057-57,25.9,0.336,0.379,99.87,1.0,5694.0,0.0,0.0,
2025-08-14T23:11:35.897Z,4,GR86-057-57,25.9,0.333,0.392,99.89,1.0,,0.0,0.0,74.4
2025-08-14T23:11:35.940Z,4,GR86-057-57,25.8,0.354,0.381,99.91,1.0,,0.0,0.0,
2025-08-14T23:11:35.984Z,4,GR86-057-57,25.5,0.343,0.401,99.91,1.0,,0.0,0.0,
2025-08-14T23:11:36.026Z,4,GR86-057-57,25.5,0.358,0.385,99.9,1.0,,0.0,0.0,
2025-08-14T23:11:36.069Z,4,GR86-057-57,25.200000000000003,0.347,0.394,99.9,1.0,5821.0,0.0,0.0,
2025-08-14T23:11:36.114Z,4,GR86-057-57,24.0,0.348,0.397,99.9,1.0,,0.0,0.0,78.2
2025-08-14T23:11:36.157Z,4,GR86-057-57,23.1,0.33,0.403,99.91,1.0,,0.0,0.0,
2025-08-14T23:11:36.201Z,4,GR86-057-57,22.0,0.334,0.397,99.89,1.0,,0.0,0.0,
2025-08-14T23:11:36.244Z,4,GR86-057-57,20.6,0.331,0.404,99.9,1.0,,0.0,0.0,
2025-08-14T23:11:36.287Z,4,GR86-057-57,20.0,0.353,0.378,99.9,1.0,5984.0,0.0,0.0,
2025-08-14T23:11:36.330Z,4,GR86-057-57,19.700000000000003,0.341,0.371,99.91,1.0,,0.0,0.0,80.66
2025-08-14T23:11:36.374Z,4,GR86-057-57,19.0,0.348,0.365,99.92,1.0,,0.0,0.0,
2025-08-14T23:11:36.416Z,4,GR86-057-57,17.7,0.331,0.367,99.91,1.0,,0.0,0.0,
2025-08-14T23:11:36.459Z,4,GR86-057-57,16.8,0.332,0.348,99.92,1.0,,0.0,0.0,
2025-08-14T23:11:36.505Z,4,GR86-057-57,15.0,0.333,0.345,99.91,1.0,6332.0,0.0,0.0,
2025-08-14T23:11:36.547Z,4,GR86-057-57,14.3,0.344,0.319,99.91,1.0,,0.0,0.0,83.07000000000001
2025-08-14T23:11:36.590Z,4,GR86-057-57,13.2,0.343,0.324,99.91,1.0,,0.0,0.0,
2025-08-14T23:11:36.634Z,4,GR86-057-57,12.2,0.34,0.291,99.93,1.0,,0.0,0.0,
2025-08-14T23:11:36.677Z,4,GR86-057-57,10.5,0.327,0.305,99.92,1.0,,0.0,0.0,
2025-08-14T23:11:36.720Z,4,GR86-057-57,8.1,0.331,0.27,99.92,1.0,6545.0,0.0,0.0,
2025-08-14T23:11:36.764Z,4,GR86-057-57,6.2,0.335,0.236,99.91,1.0,,0.0,0.0,85.35000000000001
2025-08-14T23:11:36.807Z,4,GR86-057-57,4.800000000000001,0.339,0.213,99.94,1.0,,0.0,0.0,
2025-08-14T23:11:36.850Z,4,GR86-057-57,4.3,0.349,0.209,99.91,1.0,,0.0,0.0,
2025-08-14T23:11:36.894Z,4,GR86-057-57,3.7,0.344,0.169,99.92,1.0,,0.0,0.0,
2025-08-14T23:11:36.936Z,4,GR86-057-57,3.6,0.349,0.165,99.94,1.0,6665.0,0.0,0.0,
2025-08-14T23:11:36.979Z,4,GR86-057-57,3.6,0.34,0.128,99.91,1.0,,0.0,0.0,87.65
2025-08-14T23:11:37.023Z,4,GR86-057-57,2.7,0.327,0.11,99.92,1.0,,0.0,0.0,
2025-08-14T23:11:37.065Z,4,GR86-057-57,1.5,0.308,0.117,99.93,1.0,,0.0,0.0,
2025-08-14T23:11:37.109Z,4,GR86-057-57,0.5,0.321,0.081,99.94,1.0,,0.0,0.0,
2025-08-14T23:11:37.153Z,4,GR86-057-57,0.5,0.205,0.078,99.92,1.0,6864.0,0.0,0.0,
2025-08-14T23:11:37.195Z,4,GR86-057-57,0.0,-0.068,0.102,99.93,2.0,,0.0,0.0,89.99
