timestamp,lap,vehicle_id,steering_angle,accx_can,accy_can,ath,gear,nmot,pbrake_f,pbrake_r,speed
2025-08-14T23:34:07.201Z,3,GR86-036-98,-1.5,0.2,-0.03,99.82,3.0,,0.0,0.0,
2025-08-14T23:34:07.244Z,3,GR86-036-98,-1.5,0.176,-0.019,99.81,3.0,,0.0,0.0,
2025-08-14T23:34:07.289Z,3,GR86-036-98,-1.5,0.209,-0.003,99.83,3.0,,0.0,0.0,
2025-08-14T23:34:07.332Z,3,GR86-036-98,-1.5,0.204,-0.018,99.84,3.0,6047.0,0.0,0.0,
2025-08-14T23:34:07.375Z,3,GR86-036-98,-1.5,0.197,-0.046,99.83,3.0,,0.0,0.0,128.45
2025-08-14T23:34:07.418Z,3,GR86-036-98,-1.5,0.176,-0.013,99.85,3.0,,0.0,0.0,
2025-08-14T23:34:07.461Z,3,GR86-036-98,-1.5,0.197,-0.02,99.86,3.0,,0.0,0.0,
2025-08-14T23:34:07.504Z,3,GR86-036-98,-1.5,0.185,-0.028,99.84,3.0,,0.0,0.0,
2025-08-14T23:34:07.548Z,3,GR86-036-98,-1.5,0.188,-0.022,99.84,3.0,6103.0,0.0,0.0,
2025-08-14T23:34:07.591Z,3,GR86-036-98,-1.5,0.181,-0.038,99.83,3.0,,0.0,0.0,131.16
2025-08-14T23:34:07.634Z,3,GR86-036-98,-1.5,0.186,-0.015,99.82,3.0,,0.0,0.0,
2025-08-14T23:34:07.677Z,3,GR86-036-98,-1.4,0.184,-0.016,99.8,3.0,,0.0,0.0,
2025-08-14T23:34:07.763Z,3,GR86-036-98,-1.5,0.193,-0.044,99.82,3.0,6175.0,0.0,0.0,
2025-08-14T23:34:07.808Z,3,GR86-036-98,-1.5,0.189,-0.067,99.82,3.0,,0.0,0.0,132.36
2025-08-14T23:34:07.851Z,3,GR86-036-98,-2.1,0.186,-0.061,99.84,3.0,,0.0,0.0,
2025-08-14T23:34:07.894Z,3,GR86-036-98,-2.9000000000000004,0.081,-0.081,99.83,3.0,,0.0,0.0,
2025-08-14T23:34:07.938Z,3,GR86-036-98,-3.1,-0.126,-0.083,99.84,4.0,,0.0,0.0,
2025-08-14T23:34:07.981Z,3,GR86-036-98,-3.1,0.004,-0.131,99.84,4.0,6240.0,0.0,0.0,
2025-08-14T23:34:08.024Z,3,GR86-036-98,-3.2,0.498,-0.167,99.83,4.0,,0.0,0.0,133.63
2025-08-14T23:34:08.068Z,3,GR86-036-98,-3.2,0.189,-0.118,99.82,4.0,,0.0,0.0,
2025-08-14T23:34:08.111Z,3,GR86-036-98,-3.2,0.074,-0.143,99.82,4.0,,0.0,0.0,
2025-08-14T23:34:08.154Z,3,GR86-036-98,-4.1000000000000005,0.123,-0.189,99.82,4.0,,0.0,0.0,
2025-08-14T23:34:08.199Z,3,GR86-036-98,-4.7,0.181,-0.18,99.83,4.0,5385.0,0.0,0.0,
2025-08-14T23:34:08.242Z,3,GR86-036-98,-4.800000000000001,0.174,-0.196,99.84,4.0,,0.0,0.0,134.56
2025-08-14T23:34:08.285Z,3,GR86-036-98,-4.800000000000001,0.145,-0.214,99.83,4.0,,0.0,0.0,
2025-08-14T23:34:08.328Z,3,GR86-036-98,-4.800000000000001,0.158,-0.2,99.84,4.0,,0.0,0.0,
2025-08-14T23:34:08.371Z,3,GR86-036-98,-4.800000000000001,0.173,-0.226,64.69,4.0,,0.0,0.0,
2025-08-14T23:34:08.414Z,3,GR86-036-98,-4.9,0.138,-0.235,44.45,4.0,5372.0,0.0,0.0,
2025-08-14T23:34:08.459Z,3,GR86-036-98,-4.9,0.133,-0.229,36.33,4.0,,0.0,0.0,135.66
2025-08-14T23:34:08.502Z,3,GR86-036-98,-3.9,0.14,-0.201,29.77,4.0,,0.0,0.0,
2025-08-14T23:34:08.588Z,3,GR86-036-98,-2.0,0.137,-0.164,25.25,4.0,,0.0,0.0,
2025-08-14T23:34:08.632Z,3,GR86-036-98,0.7000000000000001,0.064,-0.108,4.38,4.0,5365.0,0.0,0.0,
2025-08-14T23:34:08.675Z,3,GR86-036-98,0.7000000000000001,-0.004,-0.073,4.28,4.0,,0.0,0.0,136.78
2025-08-14T23:34:08.718Z,3,GR86-036-98,0.9,-0.107,0.002,4.11,4.0,,0.0,0.0,
2025-08-14T23:34:08.761Z,3,GR86-036-98,1.6,-0.144,0.027,3.89,4.0,,0.0,0.0,
2025-08-14T23:34:08.804Z,3,GR86-036-98,2.4000000000000004,-0.279,0.001,3.59,4.0,,0.0,0.0,
2025-08-14T23:34:08.848Z,3,GR86-036-98,2.9000000000000004,-0.079,0.075,3.0,4.0,5118.0,0.0,0.0,
2025-08-14T23:34:08.891Z,3,GR86-036-98,3.4000000000000004,-0.101,0.049,2.78,4.0,,0.0,0.0,137.47
2025-08-14T23:34:08.934Z,3,GR86-036-98,4.2,-0.15,0.115,2.65,4.0,,0.0,0.0,
2025-08-14T23:34:08.977Z,3,GR86-036-98,5.2,-0.148,0.117,2.59,4.0,,0.0,0.0,
2025-08-14T23:34:09.020Z,3,GR86-036-98,6.1000000000000005,-0.116,0.114,2.53,4.0,,2.105,2.075,
2025-08-14T23:34:09.063Z,3,GR86-036-98,6.7,-0.158,0.132,2.5,4.0,5233.0,2.4250000000000003,2.395,
2025-08-14T23:34:09.107Z,3,GR86-036-98,7.6,-0.164,0.137,2.47,4.0,,3.495,3.16,136.92000000000002
2025-08-14T23:34:09.151Z,3,GR86-036-98,8.4,-0.175,0.163,2.46,4.0,,3.845,3.615,
2025-08-14T23:34:09.194Z,3,GR86-036-98,9.1,-0.172,0.202,2.46,4.0,,4.18,4.18,
2025-08-14T23:34:09.238Z,3,GR86-036-98,9.7,-0.163,0.217,2.44,4.0,,5.28,5.05,
2025-08-14T23:34:09.281Z,3,GR86-036-98,10.1,-0.192,0.197,2.45,4.0,5223.0,6.24,6.0600000000000005,
2025-08-14T23:34:09.324Z,3,GR86-036-98,10.1,-0.219,0.248,2.44,4.0,,6.99,6.655,135.87
2025-08-14T23:34:09.367Z,3,GR86-036-98,10.2,-0.24,0.236,2.43,4.0,,7.325,7.295,
2025-08-14T23:34:09.411Z,3,GR86-036-98,10.2,-0.245,0.304,2.43,4.0,,7.675,7.675,
2025-08-14T23:34:09.454Z,3,GR86-036-98,10.3,-0.215,0.309,2.44,4.0,,7.95,8.01,
2025-08-14T23:34:09.499Z,3,GR86-036-98,10.6,-0.216,0.281,2.43,4.0,5141.0,7.735,7.675,
2025-08-14T23:34:09.542Z,3,GR86-036-98,11.0,-0.235,0.306,2.45,4.0,,7.4,7.43,134.41
2025-08-14T23:34:09.585Z,3,GR86-036-98,11.5,-0.213,0.315,2.43,4.0,,7.140000000000001,7.295,
2025-08-14T23:34:09.628Z,3,GR86-036-98,11.8,-0.214,0.327,2.46,4.0,,4.365,4.96,
2025-08-14T23:34:09.671Z,3,GR86-036-98,11.8,-0.18,0.335,2.44,4.0,,3.19,3.905,
2025-08-14T23:34:09.714Z,3,GR86-036-98,11.8,-0.173,0.31,2.46,4.0,5090.0,3.16,3.405,
2025-08-14T23:34:09.758Z,3,GR86-036-98,11.8,-0.169,0.319,2.45,4.0,,3.005,3.37,132.91
2025-08-14T23:34:09.801Z,3,GR86-036-98,11.8,-0.159,0.339,2.46,4.0,,3.16,3.465,
2025-08-14T23:34:09.844Z,3,GR86-036-98,11.8,-0.145,0.327,2.45,4.0,,3.25,3.465,
2025-08-14T23:34:09.889Z,3,GR86-036-98,11.8,-0.158,0.323,2.46,4.0,,3.31,3.585,
2025-08-14T23:34:09.932Z,3,GR86-036-98,11.8,-0.169,0.295,2.46,4.0,5053.0,3.19,3.405,
2025-08-14T23:34:09.975Z,3,GR86-036-98,11.8,-0.171,0.293,2.46,4.0,,2.455,2.915,131.52
2025-08-14T23:34:10.018Z,3,GR86-036-98,11.8,-0.144,0.297,2.46,4.0,,0.0,0.0,
2025-08-14T23:34:10.061Z,3,GR86-036-98,11.8,-0.12,0.248,2.46,4.0,,0.0,0.0,
2025-08-14T23:34:10.104Z,3,GR86-036-98,11.6,-0.129,0.234,2.46,4.0,,0.0,0.0,
2025-08-14T23:34:10.148Z,3,GR86-036-98,8.5,-0.149,0.213,2.46,4.0,5000.0,0.0,0.0,
2025-08-14T23:34:10.191Z,3,GR86-036-98,5.4,-0.143,0.198,2.46,4.0,,0.0,0.0,129.21
2025-08-14T23:34:10.234Z,3,GR86-036-98,2.4000000000000004,-0.104,0.146,2.47,4.0,,0.0,0.0,
2025-08-14T23:34:10.320Z,3,GR86-036-98,0.0,-0.125,0.085,2.57,4.0,,0.0,0.0,
2025-08-14T23:34:10.363Z,3,GR86-036-98,-4.4,-0.118,0.022,18.72,4.0,4950.0,0.0,0.0,
2025-08-14T23:34:10.409Z,3,GR86-036-98,-7.300000000000001,-0.118,-0.054,20.45,4.0,,0.0,0.0,128.32
2025-08-14T23:34:10.452Z,3,GR86-036-98,-9.2,-0.078,-0.141,20.71,4.0,,0.0,0.0,
2025-08-14T23:34:10.495Z,3,GR86-036-98,-11.2,-0.105,-0.197,21.3,4.0,,0.0,0.0,
2025-08-14T23:34:10.538Z,3,GR86-036-98,-12.9,-0.047,-0.213,22.78,4.0,,0.0,0.0,
2025-08-14T23:34:10.581Z,3,GR86-036-98,-13.9,0.137,-0.301,23.41,4.0,4926.0,0.0,0.0,
2025-08-14T23:34:10.624Z,3,GR86-036-98,-14.6,0.073,-0.365,23.99,4.0,,0.0,0.0,127.48
2025-08-14T23:34:10.668Z,3,GR86-036-98,-15.4,-0.049,-0.43,28.49,4.0,,0.0,0.0,
2025-08-14T23:34:10.711Z,3,GR86-036-98,-15.7,0.03,-0.44,29.62,4.0,,0.0,0.0,
2025-08-14T23:34:10.754Z,3,GR86-036-98,-15.8,0.098,-0.463,29.71,4.0,,0.0,0.0,
2025-08-14T23:34:10.799Z,3,GR86-036-98,-15.8,0.08,-0.484,30.39,4.0,5032.0,0.0,0.0,
2025-08-14T23:34:10.842Z,3,GR86-036-98,-15.8,0.057,-0.507,33.24,4.0,,0.0,0.0,127.39
2025-08-14T23:34:10.885Z,3,GR86-036-98,-15.8,0.085,-0.497,35.4,4.0,,0.0,0.0,
2025-08-14T23:34:10.928Z,3,GR86-036-98,-15.8,0.109,-0.496,37.91,4.0,,0.0,0.0,
2025-08-14T23:34:10.971Z,3,GR86-036-98,-15.8,0.113,-0.49,40.63,4.0,,0.0,0.0,
2025-08-14T23:34:11.014Z,3,GR86-036-98,-15.8,0.099,-0.481,45.3,4.0,5050.0,0.0,0.0,
2025-08-14T23:34:11.057Z,3,GR86-036-98,-15.8,0.118,-0.46,46.07,4.0,,0.0,0.0,127.84
2025-08-14T23:34:11.100Z,3,GR86-036-98,-15.8,0.121,-0.443,45.77,4.0,,0.0,0.0,
2025-08-14T23:34:11.143Z,3,GR86-036-98,-15.8,0.117,-0.44,45.63,4.0,,0.0,0.0,
2025-08-14T23:34:11.189Z,3,GR86-036-98,-14.5,0.139,-0.433,47.22,4.0,,0.0,0.0,
2025-08-14T23:34:11.232Z,3,GR86-036-98,-14.0,0.104,-0.409,50.07,4.0,5093.0,0.0,0.0,
2025-08-14T23:34:11.275Z,3,GR86-036-98,-13.7,0.123,-0.403,53.07,4.0,,0.0,0.0,128.48
2025-08-14T23:34:11.318Z,3,GR86-036-98,-13.0,0.148,-0.373,57.61,4.0,,0.0,0.0,
2025-08-14T23:34:11.361Z,3,GR86-036-98,-11.9,0.13,-0.379,77.23,4.0,,0.0,0.0,
2025-08-14T23:34:11.404Z,3,GR86-036-98,-10.4,0.138,-0.341,98.95,4.0,,0.0,0.0,
2025-08-14T23:34:11.448Z,3,GR86-036-98,-7.800000000000001,0.137,-0.312,99.79,4.0,5127.0,0.0,0.0,
2025-08-14T23:34:11.491Z,3,GR86-036-98,-5.800000000000001,0.152,-0.253,99.8,4.0,,0.0,0.0,129.4
2025-08-14T23:34:11.534Z,3,GR86-036-98,-3.8,0.165,-0.245,99.79,4.0,,0.0,0.0,
2025-08-14T23:34:11.578Z,3,GR86-036-98,-1.9,0.14,-0.202,99.79,4.0,,0.0,0.0,
2025-08-14T23:34:11.621Z,3,GR86-036-98,0.0,0.136,-0.135,99.81,4.0,,0.0,0.0,
2025-08-14T23:34:11.664Z,3,GR86-036-98,1.8,0.167,-0.107,99.8,4.0,5161.0,0.0,0.0,
2025-08-14T23:34:11.708Z,3,GR86-036-98,4.1000000000000005,0.169,-0.031,99.8,4.0,,0.0,0.0,130.39
2025-08-14T23:34:11.751Z,3,GR86-036-98,5.6000000000000005,0.171,-0.015,99.79,4.0,,0.0,0.0,
2025-08-14T23:34:11.794Z,3,GR86-036-98,7.0,0.142,0.038,95.46,4.0,,0.0,0.0,
2025-08-14T23:34:11.838Z,3,GR86-036-98,8.6,0.15,0.113,73.81,4.0,,0.0,0.0,
2025-08-14T23:34:11.881Z,3,GR86-036-98,10.0,0.172,0.131,58.82,4.0,5203.0,0.0,0.0,
2025-08-14T23:34:11.924Z,3,GR86-036-98,11.1,0.161,0.149,50.58,4.0,,0.0,0.0,131.48
2025-08-14T23:34:11.968Z,3,GR86-036-98,12.4,0.161,0.221,40.78,4.0,,0.0,0.0,
2025-08-14T23:34:12.011Z,3,GR86-036-98,13.1,0.138,0.273,37.39,4.0,,0.0,0.0,
2025-08-14T23:34:12.054Z,3,GR86-036-98,13.5,0.111,0.339,35.39,4.0,,0.0,0.0,
2025-08-14T23:34:12.099Z,3,GR86-036-98,13.9,0.13,0.354,33.410000000000004,4.0,5250.0,0.0,0.0,
2025-08-14T23:34:12.142Z,3,GR86-036-98,14.3,0.115,0.362,30.3,4.0,,0.0,0.0,132.55
2025-08-14T23:34:12.185Z,3,GR86-036-98,14.7,0.101,0.403,28.77,4.0,,0.0,0.0,
2025-08-14T23:34:12.228Z,3,GR86-036-98,15.2,0.095,0.414,28.32,4.0,,0.0,0.0,
2025-08-14T23:34:12.271Z,3,GR86-036-98,15.4,0.054,0.446,28.28,4.0,,0.0,0.0,
2025-08-14T23:34:12.314Z,3,GR86-036-98,15.6,0.079,0.461,28.26,4.0,5274.0,0.0,0.0,
2025-08-14T23:34:12.359Z,3,GR86-036-98,15.7,0.096,0.453,28.31,4.0,,0.0,0.0,133.63
2025-08-14T23:34:12.402Z,3,GR86-036-98,15.7,0.082,0.465,28.35,4.0,,0.0,0.0,
2025-08-14T23:34:12.445Z,3,GR86-036-98,15.7,0.058,0.501,28.42,4.0,,0.0,0.0,
2025-08-14T23:34:12.489Z,3,GR86-036-98,15.7,0.061,0.492,28.55,4.0,,0.0,0.0,
2025-08-14T23:34:12.532Z,3,GR86-036-98,15.7,0.083,0.504,28.68,4.0,5297.0,0.0,0.0,
2025-08-14T23:34:12.575Z,3,GR86-036-98,15.7,0.089,0.485,28.85,4.0,,0.0,0.0,134.44
2025-08-14T23:34:12.618Z,3,GR86-036-98,15.7,0.092,0.457,29.02,4.0,,0.0,0.0,
2025-08-14T23:34:12.661Z,3,GR86-036-98,15.7,0.063,0.462,29.11,4.0,,0.0,0.0,
2025-08-14T23:34:12.704Z,3,GR86-036-98,15.7,0.076,0.464,29.22,4.0,,0.0,0.0,
2025-08-14T23:34:12.748Z,3,GR86-036-98,15.7,0.064,0.441,29.43,4.0,5310.0,0.0,0.0,
2025-08-14T23:34:12.791Z,3,GR86-036-98,15.6,0.085,0.417,29.65,4.0,,0.0,0.0,135.63
2025-08-14T23:34:12.834Z,3,GR86-036-98,14.9,0.09,0.372,30.27,4.0,,0.0,0.0,
2025-08-14T23:34:12.877Z,3,GR86-036-98,13.3,0.09,0.364,31.99,4.0,,0.0,0.0,
2025-08-14T23:34:12.920Z,3,GR86-036-98,11.7,0.074,0.36,33.96,4.0,,0.0,0.0,
2025-08-14T23:34:12.963Z,3,GR86-036-98,10.1,0.091,0.315,35.87,4.0,5324.0,0.0,0.0,
2025-08-14T23:34:13.007Z,3,GR86-036-98,8.1,0.106,0.262,38.04,4.0,,0.0,0.0,136.18
2025-08-14T23:34:13.051Z,3,GR86-036-98,6.9,0.121,0.215,38.36,4.0,,0.0,0.0,
2025-08-14T23:34:13.094Z,3,GR86-036-98,5.4,0.115,0.181,38.12,4.0,,0.0,0.0,
2025-08-14T23:34:13.138Z,3,GR86-036-98,3.6,0.113,0.16,36.73,4.0,,0.0,0.0,
2025-08-14T23:34:13.181Z,3,GR86-036-98,1.8,0.109,0.1,35.63,4.0,5358.0,0.0,0.0,
2025-08-14T23:34:13.224Z,3,GR86-036-98,-0.1,0.106,0.03,35.51,4.0,,0.0,0.0,136.86
2025-08-14T23:34:13.267Z,3,GR86-036-98,-2.3000000000000003,0.106,-0.004,35.15,4.0,,0.0,0.0,
2025-08-14T23:34:13.310Z,3,GR86-036-98,-3.4000000000000004,0.103,-0.056,33.57,4.0,,0.0,0.0,
2025-08-14T23:34:13.353Z,3,GR86-036-98,-4.5,0.102,-0.067,30.9,4.0,,0.0,0.0,
2025-08-14T23:34:13.396Z,3,GR86-036-98,-5.300000000000001,0.087,-0.096,28.53,4.0,5414.0,0.0,0.0,
2025-08-14T23:34:13.439Z,3,GR86-036-98,-6.2,0.088,-0.151,26.78,4.0,,0.0,0.0,137.61
2025-08-14T23:34:13.482Z,3,GR86-036-98,-7.300000000000001,0.064,-0.216,22.49,4.0,,0.0,0.0,
2025-08-14T23:34:13.528Z,3,GR86-036-98,-8.700000000000001,0.044,-0.261,4.3,4.0,,0.0,0.0,
2025-08-14T23:34:13.571Z,3,GR86-036-98,-9.3,0.037,-0.302,4.08,4.0,,0.0,0.0,
2025-08-14T23:34:13.614Z,3,GR86-036-98,-9.3,-0.111,-0.301,3.94,4.0,5416.0,0.0,0.0,
2025-08-14T23:34:13.658Z,3,GR86-036-98,-9.3,-0.09,-0.296,3.77,4.0,,0.0,0.0,138.36
2025-08-14T23:34:13.701Z,3,GR86-036-98,-9.3,-0.346,-0.387,3.44,4.0,,0.0,0.0,
2025-08-14T23:34:13.744Z,3,GR86-036-98,-9.4,-0.211,-0.364,3.09,4.0,,0.0,0.0,
2025-08-14T23:34:13.789Z,3,GR86-036-98,-9.4,-0.106,-0.416,2.78,4.0,,0.0,0.0,
2025-08-14T23:34:13.832Z,3,GR86-036-98,-9.4,-0.113,-0.388,2.66,4.0,5407.0,0.0,0.0,
2025-08-14T23:34:13.875Z,3,GR86-036-98,-9.4,-0.189,-0.373,2.59,4.0,,0.0,0.0,138.72
2025-08-14T23:34:13.918Z,3,GR86-036-98,-9.4,-0.175,-0.407,2.52,4.0,,0.0,0.0,
2025-08-14T23:34:13.961Z,3,GR86-036-98,-9.5,-0.151,-0.4,2.5,4.0,,0.0,0.0,
2025-08-14T23:34:14.004Z,3,GR86-036-98,-9.5,-0.145,-0.397,2.49,4.0,,0.0,0.0,
2025-08-14T23:34:14.048Z,3,GR86-036-98,-9.6,-0.155,-0.407,2.46,4.0,5299.0,0.0,0.0,
2025-08-14T23:34:14.091Z,3,GR86-036-98,-9.6,-0.159,-0.384,2.46,4.0,,0.0,0.0,137.78
2025-08-14T23:34:14.134Z,3,GR86-036-98,-9.6,-0.157,-0.376,2.45,4.0,,0.0,0.0,
2025-08-14T23:34:14.178Z,3,GR86-036-98,-9.6,-0.167,-0.372,2.45,4.0,,0.0,0.0,
2025-08-14T23:34:14.221Z,3,GR86-036-98,-9.6,-0.153,-0.374,2.44,4.0,,0.0,0.0,
2025-08-14T23:34:14.264Z,3,GR86-036-98,-9.6,-0.151,-0.355,2.45,4.0,5250.0,0.0,0.0,
2025-08-14T23:34:14.308Z,3,GR86-036-98,-9.6,-0.149,-0.33,2.43,4.0,,0.0,0.0,136.86
2025-08-14T23:34:14.352Z,3,GR86-036-98,-9.6,-0.147,-0.301,2.45,4.0,,0.0,0.0,
2025-08-14T23:34:14.395Z,3,GR86-036-98,-9.6,-0.158,-0.291,2.45,4.0,,0.0,0.0,
2025-08-14T23:34:14.438Z,3,GR86-036-98,-9.6,-0.16,-0.294,2.43,4.0,,0.0,0.0,
2025-08-14T23:34:14.481Z,3,GR86-036-98,-9.5,-0.157,-0.284,2.45,4.0,5211.0,1.8,0.0,
2025-08-14T23:34:14.524Z,3,GR86-036-98,-8.8,-0.154,-0.254,2.44,4.0,,2.075,0.0,135.89
2025-08-14T23:34:14.568Z,3,GR86-036-98,-7.7,-0.155,-0.232,2.46,4.0,,2.075,1.955,
2025-08-14T23:34:14.611Z,3,GR86-036-98,-6.6000000000000005,-0.162,-0.211,2.46,4.0,,1.83,0.0,
2025-08-14T23:34:14.654Z,3,GR86-036-98,-5.5,-0.167,-0.218,2.46,4.0,,0.0,0.0,
2025-08-14T23:34:14.699Z,3,GR86-036-98,-4.2,-0.138,-0.192,2.45,4.0,5176.0,0.0,0.0,
2025-08-14T23:34:14.742Z,3,GR86-036-98,-2.9000000000000004,-0.139,-0.163,2.46,4.0,,0.0,0.0,134.92000000000002
2025-08-14T23:34:14.785Z,3,GR86-036-98,-1.8,-0.135,-0.129,2.46,4.0,,0.0,0.0,
2025-08-14T23:34:14.828Z,3,GR86-036-98,-0.1,-0.15,-0.097,15.85,4.0,,0.0,0.0,
2025-08-14T23:34:14.871Z,3,GR86-036-98,0.7000000000000001,-0.116,-0.068,20.07,4.0,,0.0,0.0,
2025-08-14T23:34:14.914Z,3,GR86-036-98,1.6,-0.13,-0.042,20.19,4.0,5137.0,0.0,0.0,
2025-08-14T23:34:14.957Z,3,GR86-036-98,2.8000000000000003,-0.077,-0.01,21.76,4.0,,0.0,0.0,133.99
2025-08-14T23:34:15.000Z,3,GR86-036-98,4.4,-0.077,0.043,24.31,4.0,,0.0,0.0,
2025-08-14T23:34:15.043Z,3,GR86-036-98,6.2,-0.056,0.055,26.59,4.0,,0.0,0.0,
2025-08-14T23:34:15.088Z,3,GR86-036-98,8.5,0.186,0.099,27.83,4.0,,0.0,0.0,
2025-08-14T23:34:15.131Z,3,GR86-036-98,9.7,0.064,0.157,29.9,4.0,5183.0,0.0,0.0,
2025-08-14T23:34:15.174Z,3,GR86-036-98,10.9,-0.006,0.206,35.02,4.0,,0.0,0.0,133.17000000000002
2025-08-14T23:34:15.217Z,3,GR86-036-98,11.9,0.066,0.222,37.4,4.0,,0.0,0.0,
2025-08-14T23:34:15.260Z,3,GR86-036-98,12.7,0.131,0.246,37.68,4.0,,0.0,0.0,
2025-08-14T23:34:15.303Z,3,GR86-036-98,13.3,0.107,0.294,40.16,4.0,,0.0,0.0,
2025-08-14T23:34:15.348Z,3,GR86-036-98,13.9,0.089,0.325,50.24,4.0,5153.0,0.0,0.0,
2025-08-14T23:34:15.391Z,3,GR86-036-98,14.1,0.103,0.369,55.65,4.0,,0.0,0.0,133.02
2025-08-14T23:34:15.434Z,3,GR86-036-98,14.1,0.137,0.401,61.36,4.0,,0.0,0.0,
2025-08-14T23:34:15.477Z,3,GR86-036-98,14.1,0.15,0.383,76.12,4.0,,0.0,0.0,
2025-08-14T23:34:15.520Z,3,GR86-036-98,14.1,0.143,0.4,94.5,4.0,,0.0,0.0,
2025-08-14T23:34:15.563Z,3,GR86-036-98,14.1,0.146,0.419,99.47,4.0,5239.0,0.0,0.0,
2025-08-14T23:34:15.608Z,3,GR86-036-98,14.1,0.14,0.405,99.79,4.0,,0.0,0.0,133.8
2025-08-14T23:34:15.651Z,3,GR86-036-98,14.1,0.155,0.407,99.79,4.0,,0.0,0.0,
2025-08-14T23:34:15.738Z,3,GR86-036-98,14.1,0.164,0.404,99.8,4.0,,0.0,0.0,
2025-08-14T23:34:15.781Z,3,GR86-036-98,14.1,0.151,0.438,99.79,4.0,5292.0,0.0,0.0,
2025-08-14T23:34:15.824Z,3,GR86-036-98,14.1,0.151,0.433,99.8,4.0,,0.0,0.0,134.73
2025-08-14T23:34:15.868Z,3,GR86-036-98,14.1,0.148,0.428,99.82,4.0,,0.0,0.0,
2025-08-14T23:34:15.911Z,3,GR86-036-98,14.1,0.163,0.399,99.81,4.0,,0.0,0.0,
2025-08-14T23:34:15.954Z,3,GR86-036-98,14.1,0.16,0.369,99.8,4.0,,0.0,0.0,
2025-08-14T23:34:15.999Z,3,GR86-036-98,14.1,0.152,0.36,99.81,4.0,5370.0,0.0,0.0,
2025-08-14T23:34:16.042Z,3,GR86-036-98,14.0,0.148,0.366,99.79,4.0,,0.0,0.0,135.8
2025-08-14T23:34:16.085Z,3,GR86-036-98,13.7,0.148,0.329,99.81,4.0,,0.0,0.0,
2025-08-14T23:34:16.171Z,3,GR86-036-98,9.5,0.149,0.265,99.82,4.0,,0.0,0.0,
2025-08-14T23:34:16.214Z,3,GR86-036-98,7.800000000000001,0.146,0.241,99.83,4.0,5409.0,0.0,0.0,
2025-08-14T23:34:16.259Z,3,GR86-036-98,6.2,0.165,0.252,99.79,4.0,,0.0,0.0,136.76
2025-08-14T23:34:16.302Z,3,GR86-036-98,4.3,0.158,0.189,99.81,4.0,,0.0,0.0,
2025-08-14T23:34:16.345Z,3,GR86-036-98,2.3000000000000003,0.148,0.139,99.82,4.0,,0.0,0.0,
2025-08-14T23:34:16.388Z,3,GR86-036-98,-0.1,0.156,0.106,99.82,4.0,,0.0,0.0,
2025-08-14T23:34:16.431Z,3,GR86-036-98,-1.2000000000000002,0.135,0.05,99.81,4.0,5443.0,0.0,0.0,
2025-08-14T23:34:16.474Z,3,GR86-036-98,-2.4000000000000004,0.142,0.023,99.8,4.0,,0.0,0.0,137.75
2025-08-14T23:34:16.517Z,3,GR86-036-98,-3.9,0.159,-0.016,99.81,4.0,,0.0,0.0,
2025-08-14T23:34:16.560Z,3,GR86-036-98,-5.7,0.153,-0.08,99.82,4.0,,0.0,0.0,
2025-08-14T23:34:16.603Z,3,GR86-036-98,-7.5,0.145,-0.138,99.8,4.0,,0.0,0.0,
2025-08-14T23:34:16.648Z,3,GR86-036-98,-9.4,0.147,-0.197,99.82,4.0,5494.0,0.0,0.0,
2025-08-14T23:34:16.691Z,3,GR86-036-98,-9.9,0.112,-0.256,99.8,4.0,,0.0,0.0,138.77
2025-08-14T23:34:16.734Z,3,GR86-036-98,-10.1,0.148,-0.275,99.8,4.0,,0.0,0.0,
2025-08-14T23:34:16.777Z,3,GR86-036-98,-10.1,0.177,-0.305,99.8,4.0,,0.0,0.0,
2025-08-14T23:34:16.820Z,3,GR86-036-98,-10.2,0.146,-0.338,99.82,4.0,,0.0,0.0,
2025-08-14T23:34:16.863Z,3,GR86-036-98,-10.2,0.113,-0.384,99.79,4.0,5545.0,0.0,0.0,
2025-08-14T23:34:16.907Z,3,GR86-036-98,-10.3,0.125,-0.401,55.86,4.0,,0.0,0.0,139.79
2025-08-14T23:34:16.950Z,3,GR86-036-98,-10.3,0.145,-0.405,32.64,4.0,,0.0,0.0,
2025-08-14T23:34:17.038Z,3,GR86-036-98,-10.4,0.121,-0.377,19.19,4.0,,0.0,0.0,
2025-08-14T23:34:17.081Z,3,GR86-036-98,-10.4,0.04,-0.326,5.25,4.0,5571.0,0.0,0.0,
2025-08-14T23:34:17.124Z,3,GR86-036-98,-10.3,-0.131,-0.296,4.75,4.0,,0.0,0.0,140.97
2025-08-14T23:34:17.168Z,3,GR86-036-98,-8.3,-0.3,-0.296,4.16,4.0,,0.0,0.0,
2025-08-14T23:34:17.211Z,3,GR86-036-98,-7.0,-0.25,-0.279,3.89,4.0,,0.0,0.0,
2025-08-14T23:34:17.254Z,3,GR86-036-98,-6.2,-0.117,-0.222,3.6,4.0,,0.0,0.0,
2025-08-14T23:34:17.299Z,3,GR86-036-98,-5.6000000000000005,-0.096,-0.265,3.21,4.0,5275.0,0.0,0.0,
2025-08-14T23:34:17.342Z,3,GR86-036-98,-4.7,-0.147,-0.194,2.88,4.0,,0.0,0.0,141.70000000000002
2025-08-14T23:34:17.385Z,3,GR86-036-98,-3.7,-0.184,-0.204,2.72,4.0,,2.61,2.4250000000000003,
2025-08-14T23:34:17.431Z,3,GR86-036-98,-2.3000000000000003,-0.142,-0.17,2.59,4.0,,2.76,2.73,
2025-08-14T23:34:17.474Z,3,GR86-036-98,-2.1,-0.173,-0.149,2.53,4.0,,2.76,2.58,
2025-08-14T23:34:17.560Z,3,GR86-036-98,-2.0,-0.191,-0.118,2.5,4.0,5414.0,2.76,2.76,141.32
2025-08-14T23:34:17.603Z,3,GR86-036-98,-2.0,-0.151,-0.059,2.46,4.0,,2.76,2.76,
2025-08-14T23:34:17.691Z,3,GR86-036-98,-1.3,-0.163,-0.011,2.45,4.0,,3.31,3.16,
2025-08-14T23:34:17.734Z,3,GR86-036-98,-1.3,-0.191,-0.014,2.43,4.0,5379.0,3.815,3.525,
2025-08-14T23:34:17.778Z,3,GR86-036-98,-1.2000000000000002,-0.191,0.006,2.43,4.0,,4.18,4.21,140.20000000000002
2025-08-14T23:34:17.821Z,3,GR86-036-98,-0.9,-0.15,0.041,2.44,4.0,,4.53,4.625,
2025-08-14T23:34:17.864Z,3,GR86-036-98,-0.7000000000000001,-0.175,0.025,2.43,4.0,,4.835,4.655,
2025-08-14T23:34:17.908Z,3,GR86-036-98,-0.7000000000000001,-0.168,0.042,2.44,4.0,,5.555,5.4,
2025-08-14T23:34:17.952Z,3,GR86-036-98,-0.7000000000000001,-0.197,0.023,2.44,4.0,5335.0,5.905,5.555,
2025-08-14T23:34:17.995Z,3,GR86-036-98,-0.7000000000000001,-0.212,0.018,2.43,4.0,,6.2700000000000005,5.965,137.83
2025-08-14T23:34:18.038Z,3,GR86-036-98,-0.7000000000000001,-0.207,0.036,2.43,4.0,,6.3,6.425,
2025-08-14T23:34:18.081Z,3,GR86-036-98,-0.7000000000000001,-0.176,0.038,2.46,4.0,,6.2700000000000005,6.335,
2025-08-14T23:34:18.124Z,3,GR86-036-98,-0.7000000000000001,-0.205,0.023,2.44,4.0,,6.03,5.9350000000000005,
2025-08-14T23:34:18.168Z,3,GR86-036-98,-0.2,-0.182,0.024,2.45,4.0,5279.0,4.6850000000000005,4.96,
2025-08-14T23:34:18.211Z,3,GR86-036-98,-0.2,-0.193,0.014,2.44,4.0,,1.985,2.52,136.54
2025-08-14T23:34:18.254Z,3,GR86-036-98,-0.2,-0.153,0.038,2.46,4.0,,0.0,0.0,
2025-08-14T23:34:18.299Z,3,GR86-036-98,-0.2,-0.13,0.039,2.45,4.0,,0.0,0.0,
2025-08-14T23:34:18.342Z,3,GR86-036-98,-0.2,-0.136,0.033,2.46,4.0,,0.0,0.0,
2025-08-14T23:34:18.385Z,3,GR86-036-98,-0.2,-0.137,0.011,2.46,4.0,5238.0,0.0,0.0,
2025-08-14T23:34:18.428Z,3,GR86-036-98,-0.2,-0.158,0.022,2.46,4.0,,0.0,0.0,135.45
2025-08-14T23:34:18.471Z,3,GR86-036-98,-0.2,-0.155,0.034,2.46,4.0,,0.0,0.0,
2025-08-14T23:34:18.557Z,3,GR86-036-98,-0.2,-0.117,0.032,2.46,4.0,,0.0,0.0,
2025-08-14T23:34:18.600Z,3,GR86-036-98,-0.2,-0.131,0.017,2.47,4.0,5171.0,0.0,0.0,
2025-08-14T23:34:18.643Z,3,GR86-036-98,-0.2,-0.146,0.02,2.46,4.0,,0.0,0.0,134.59
2025-08-14T23:34:18.688Z,3,GR86-036-98,-0.2,-0.156,0.017,2.46,4.0,,0.0,0.0,
2025-08-14T23:34:18.731Z,3,GR86-036-98,-0.2,-0.134,0.026,2.46,4.0,,0.0,0.0,
2025-08-14T23:34:18.774Z,3,GR86-036-98,-0.2,-0.127,0.022,2.46,4.0,,0.0,0.0,
2025-08-14T23:34:18.817Z,3,GR86-036-98,-0.2,-0.139,0.004,2.46,4.0,5144.0,0.0,0.0,
2025-08-14T23:34:18.860Z,3,GR86-036-98,-0.2,-0.135,0.018,2.46,4.0,,0.0,0.0,133.68
2025-08-14T23:34:18.903Z,3,GR86-036-98,-0.2,-0.141,0.019,2.46,4.0,,1.955,1.955,
2025-08-14T23:34:18.948Z,3,GR86-036-98,-0.2,-0.148,0.012,2.46,4.0,,2.795,2.67,
2025-08-14T23:34:18.991Z,3,GR86-036-98,-0.2,-0.139,0.02,2.46,4.0,,3.035,2.76,
2025-08-14T23:34:19.034Z,3,GR86-036-98,-0.2,-0.166,0.007,2.46,4.0,5105.0,3.16,3.13,
2025-08-14T23:34:19.077Z,3,GR86-036-98,-0.2,-0.158,0.026,2.46,4.0,,3.435,3.405,132.75
2025-08-14T23:34:19.120Z,3,GR86-036-98,-0.2,-0.149,0.02,2.47,4.0,,3.495,3.465,
2025-08-14T23:34:19.163Z,3,GR86-036-98,-0.2,-0.16,0.027,13.5,4.0,,3.845,3.725,
2025-08-14T23:34:19.208Z,3,GR86-036-98,-0.2,-0.165,0.031,80.62,4.0,,4.18,4.09,
2025-08-14T23:34:19.251Z,3,GR86-036-98,-0.2,-0.176,0.024,99.72,4.0,5053.0,4.15,4.18,
2025-08-14T23:34:19.294Z,3,GR86-036-98,0.0,-0.077,0.02,83.64,4.0,,3.935,4.12,131.69
2025-08-14T23:34:19.338Z,3,GR86-036-98,0.3,-0.118,0.0,15.75,3.0,,3.435,3.525,
2025-08-14T23:34:19.424Z,3,GR86-036-98,0.3,-0.219,0.038,4.9,3.0,,1.925,2.455,
2025-08-14T23:34:19.468Z,3,GR86-036-98,0.4,-0.128,-0.006,3.89,3.0,5743.0,0.0,0.0,
2025-08-14T23:34:19.511Z,3,GR86-036-98,0.4,-0.113,0.062,3.6,3.0,,0.0,0.0,130.61
2025-08-14T23:34:19.554Z,3,GR86-036-98,0.4,-0.15,0.032,3.18,3.0,,0.0,0.0,
2025-08-14T23:34:19.599Z,3,GR86-036-98,0.4,-0.172,-0.01,2.87,3.0,,0.0,0.0,
2025-08-14T23:34:19.642Z,3,GR86-036-98,0.4,-0.153,0.046,2.7,3.0,,0.0,0.0,
2025-08-14T23:34:19.685Z,3,GR86-036-98,0.4,-0.121,0.013,2.61,3.0,5870.0,0.0,0.0,
2025-08-14T23:34:19.728Z,3,GR86-036-98,0.4,-0.144,0.028,2.52,3.0,,0.0,0.0,129.5
2025-08-14T23:34:19.771Z,3,GR86-036-98,0.2,-0.154,-0.011,2.49,3.0,,0.0,0.0,
2025-08-14T23:34:19.859Z,3,GR86-036-98,-2.7,-0.147,-0.05,2.46,3.0,,0.0,0.0,
2025-08-14T23:34:19.902Z,3,GR86-036-98,-3.5,-0.133,-0.069,2.46,3.0,5829.0,0.0,0.0,
2025-08-14T23:34:19.945Z,3,GR86-036-98,-4.1000000000000005,-0.164,-0.12,2.46,3.0,,0.0,0.0,128.49
2025-08-14T23:34:19.989Z,3,GR86-036-98,-5.6000000000000005,-0.138,-0.131,2.46,3.0,,0.0,0.0,
2025-08-14T23:34:20.032Z,3,GR86-036-98,-6.4,-0.152,-0.17,2.46,3.0,,0.0,0.0,
2025-08-14T23:34:20.075Z,3,GR86-036-98,-6.6000000000000005,-0.166,-0.199,2.46,3.0,,0.0,0.0,
2025-08-14T23:34:20.118Z,3,GR86-036-98,-6.6000000000000005,-0.153,-0.229,2.46,3.0,5801.0,0.0,0.0,
2025-08-14T23:34:20.161Z,3,GR86-036-98,-6.6000000000000005,-0.166,-0.255,2.46,3.0,,0.0,0.0,127.48
2025-08-14T23:34:20.204Z,3,GR86-036-98,-6.7,-0.158,-0.252,2.46,3.0,,0.0,0.0,
2025-08-14T23:34:20.291Z,3,GR86-036-98,-6.800000000000001,-0.152,-0.275,2.46,3.0,,0.0,0.0,
2025-08-14T23:34:20.334Z,3,GR86-036-98,-6.800000000000001,-0.151,-0.27,2.46,3.0,5763.0,0.0,0.0,
2025-08-14T23:34:20.377Z,3,GR86-036-98,-4.800000000000001,-0.153,-0.245,2.48,3.0,,0.0,0.0,126.51
2025-08-14T23:34:20.420Z,3,GR86-036-98,-2.5,-0.143,-0.22,2.46,3.0,,0.0,0.0,
2025-08-14T23:34:20.507Z,3,GR86-036-98,-0.5,-0.146,-0.188,2.46,3.0,,0.0,0.0,
2025-08-14T23:34:20.551Z,3,GR86-036-98,3.5,-0.148,-0.059,2.47,3.0,5715.0,0.0,0.0,
2025-08-14T23:34:20.594Z,3,GR86-036-98,5.7,-0.146,-0.031,2.46,3.0,,0.0,0.0,124.58
2025-08-14T23:34:20.638Z,3,GR86-036-98,7.9,-0.15,0.01,2.46,3.0,,0.0,0.0,
2025-08-14T23:34:20.724Z,3,GR86-036-98,9.7,-0.145,0.075,2.46,3.0,,0.0,0.0,
2025-08-14T23:34:20.810Z,3,GR86-036-98,11.6,-0.13,0.184,2.47,3.0,5653.0,0.0,0.0,123.64
2025-08-14T23:34:20.853Z,3,GR86-036-98,12.2,-0.149,0.251,2.46,3.0,,0.0,0.0,
2025-08-14T23:34:20.939Z,3,GR86-036-98,12.5,-0.136,0.281,2.48,3.0,,0.0,0.0,
2025-08-14T23:34:20.982Z,3,GR86-036-98,12.5,-0.153,0.317,2.46,3.0,5624.0,0.0,0.0,
2025-08-14T23:34:21.028Z,3,GR86-036-98,12.5,-0.153,0.33,2.49,3.0,,0.0,0.0,122.67
2025-08-14T23:34:21.071Z,3,GR86-036-98,12.5,-0.135,0.335,2.46,3.0,,0.0,0.0,
2025-08-14T23:34:21.114Z,3,GR86-036-98,12.5,-0.133,0.314,2.47,3.0,,0.0,0.0,
2025-08-14T23:34:21.201Z,3,GR86-036-98,12.5,-0.15,0.327,2.47,3.0,5524.0,0.0,0.0,
2025-08-14T23:34:21.244Z,3,GR86-036-98,12.4,-0.159,0.289,2.46,3.0,,2.76,2.4250000000000003,121.66
2025-08-14T23:34:21.288Z,3,GR86-036-98,11.2,-0.176,0.264,2.47,3.0,,4.03,3.585,
2025-08-14T23:34:21.375Z,3,GR86-036-98,9.7,-0.157,0.235,2.48,3.0,,5.16,4.87,
2025-08-14T23:34:21.418Z,3,GR86-036-98,8.8,-0.178,0.19,2.49,3.0,5485.0,5.555,5.28,
2025-08-14T23:34:21.461Z,3,GR86-036-98,7.6,-0.199,0.182,2.48,3.0,,5.9350000000000005,5.555,120.65
2025-08-14T23:34:21.504Z,3,GR86-036-98,6.2,-0.192,0.143,2.49,3.0,,6.625,6.2700000000000005,
2025-08-14T23:34:21.591Z,3,GR86-036-98,4.5,-0.195,0.107,2.49,3.0,,7.265000000000001,6.96,
2025-08-14T23:34:21.634Z,3,GR86-036-98,3.9,-0.213,0.042,2.49,3.0,5422.0,8.040000000000001,7.675,
2025-08-14T23:34:21.678Z,3,GR86-036-98,3.9,-0.216,0.013,2.49,3.0,,8.605,8.395,119.38
2025-08-14T23:34:21.721Z,3,GR86-036-98,3.7,-0.23,-0.006,2.48,3.0,,9.095,8.67,
2025-08-14T23:34:21.764Z,3,GR86-036-98,2.9000000000000004,-0.23,-0.008,2.49,3.0,,10.085,9.66,
2025-08-14T23:34:21.808Z,3,GR86-036-98,1.1,-0.248,-0.033,2.49,3.0,,12.175,11.615,
2025-08-14T23:34:21.851Z,3,GR86-036-98,0.0,-0.267,-0.07,2.49,3.0,5352.0,13.61,13.245,
2025-08-14T23:34:21.894Z,3,GR86-036-98,-0.9,-0.306,-0.082,2.49,3.0,,15.06,14.36,117.95
2025-08-14T23:34:21.938Z,3,GR86-036-98,-1.3,-0.308,-0.085,2.49,3.0,,16.62,16.085,
2025-08-14T23:34:21.981Z,3,GR86-036-98,-1.8,-0.325,-0.114,2.49,3.0,,17.93,17.455000000000002,
2025-08-14T23:34:22.024Z,3,GR86-036-98,-2.2,-0.346,-0.114,2.49,3.0,,18.86,18.495,
2025-08-14T23:34:22.068Z,3,GR86-036-98,-2.4000000000000004,-0.379,-0.119,2.49,3.0,5256.0,20.175,19.55,
2025-08-14T23:34:22.111Z,3,GR86-036-98,-2.4000000000000004,-0.37,-0.153,2.49,3.0,,20.63,20.265,116.19
2025-08-14T23:34:22.154Z,3,GR86-036-98,-2.6,-0.405,-0.158,2.49,3.0,,20.63,20.235,
2025-08-14T23:34:22.199Z,3,GR86-036-98,-3.0,-0.379,-0.163,2.49,3.0,,21.12,20.6,
2025-08-14T23:34:22.242Z,3,GR86-036-98,-3.5,-0.395,-0.188,2.49,3.0,,21.305,21.0,
2025-08-14T23:34:22.285Z,3,GR86-036-98,-4.0,-0.416,-0.198,2.49,3.0,5141.0,21.655,21.305,
2025-08-14T23:34:22.328Z,3,GR86-036-98,-4.4,-0.419,-0.205,2.49,3.0,,21.715,21.53,113.79
2025-08-14T23:34:22.371Z,3,GR86-036-98,-4.6000000000000005,-0.407,-0.23,2.49,3.0,,21.44,21.5,
2025-08-14T23:34:22.414Z,3,GR86-036-98,-4.800000000000001,-0.429,-0.246,2.49,3.0,,21.09,20.875,
2025-08-14T23:34:22.457Z,3,GR86-036-98,-4.9,-0.404,-0.239,2.5,3.0,,20.935,21.06,
2025-08-14T23:34:22.500Z,3,GR86-036-98,-5.1000000000000005,-0.428,-0.26,2.49,3.0,5018.0,20.235,20.265,
2025-08-14T23:34:22.543Z,3,GR86-036-98,-5.5,-0.399,-0.262,2.49,3.0,,19.335,19.7,111.15
2025-08-14T23:34:22.589Z,3,GR86-036-98,-5.800000000000001,-0.373,-0.265,2.49,3.0,,17.84,18.555,
2025-08-14T23:34:22.632Z,3,GR86-036-98,-6.0,-0.389,-0.288,2.49,3.0,,17.12,17.455000000000002,
2025-08-14T23:34:22.675Z,3,GR86-036-98,-6.300000000000001,-0.377,-0.279,2.49,3.0,,16.65,17.09,
2025-08-14T23:34:22.718Z,3,GR86-036-98,-7.1000000000000005,-0.365,-0.296,2.49,3.0,4896.0,16.055,16.740000000000002,
2025-08-14T23:34:22.761Z,3,GR86-036-98,-8.3,-0.369,-0.283,2.49,3.0,,15.0,15.78,108.28
2025-08-14T23:34:22.804Z,3,GR86-036-98,-9.4,-0.332,-0.29,2.49,3.0,,13.49,14.39,
2025-08-14T23:34:22.891Z,3,GR86-036-98,-10.6,-0.302,-0.34,2.49,3.0,,9.28,9.72,
2025-08-14T23:34:22.934Z,3,GR86-036-98,-11.0,-0.282,-0.341,2.49,3.0,4782.0,9.125,9.78,
2025-08-14T23:34:22.977Z,3,GR86-036-98,-12.2,-0.301,-0.365,2.5,3.0,,9.095,9.215,105.71
2025-08-14T23:34:23.020Z,3,GR86-036-98,-13.9,-0.253,-0.358,2.49,3.0,,9.095,9.57,
2025-08-14T23:34:23.108Z,3,GR86-036-98,-18.2,-0.278,-0.401,2.49,3.0,,9.155,9.34,
2025-08-14T23:34:23.151Z,3,GR86-036-98,-19.200000000000003,-0.266,-0.407,2.49,3.0,4719.0,9.005,9.31,
2025-08-14T23:34:23.194Z,3,GR86-036-98,-19.8,-0.279,-0.435,2.49,3.0,,8.01,8.395,101.96
2025-08-14T23:34:23.239Z,3,GR86-036-98,-20.4,-0.255,-0.421,2.49,3.0,,7.4,8.01,
2025-08-14T23:34:23.282Z,3,GR86-036-98,-20.9,-0.252,-0.473,2.49,3.0,,7.325,7.295,
2025-08-14T23:34:23.371Z,3,GR86-036-98,-20.9,-0.251,-0.489,2.49,3.0,4621.0,7.325,7.295,
2025-08-14T23:34:23.414Z,3,GR86-036-98,-21.6,-0.263,-0.522,2.49,3.0,,7.37,7.46,100.41
2025-08-14T23:34:23.459Z,3,GR86-036-98,-23.0,-0.237,-0.526,2.49,3.0,,7.645,7.705,
2025-08-14T23:34:23.502Z,3,GR86-036-98,-25.3,-0.253,-0.557,2.49,3.0,,7.555,7.37,
2025-08-14T23:34:23.545Z,3,GR86-036-98,-28.1,-0.247,-0.5670000000000001,2.49,3.0,,7.675,7.95,
2025-08-14T23:34:23.588Z,3,GR86-036-98,-31.4,-0.252,-0.609,2.49,3.0,4496.0,7.675,8.01,
2025-08-14T23:34:23.632Z,3,GR86-036-98,-32.2,-0.27,-0.639,2.49,3.0,,7.705,7.615,99.91
2025-08-14T23:34:23.675Z,3,GR86-036-98,-32.2,-0.243,-0.63,2.49,3.0,,7.675,8.01,
2025-08-14T23:34:23.718Z,3,GR86-036-98,-32.2,-0.257,-0.65,2.49,3.0,,7.675,7.525,
2025-08-14T23:34:23.761Z,3,GR86-036-98,-32.2,-0.246,-0.638,2.49,3.0,,7.675,7.83,
2025-08-14T23:34:23.804Z,3,GR86-036-98,-30.3,-0.265,-0.648,2.49,3.0,4418.0,7.525,7.585,
2025-08-14T23:34:23.848Z,3,GR86-036-98,-29.4,-0.261,-0.636,2.49,3.0,,7.675,7.615,98.52
2025-08-14T23:34:23.891Z,3,GR86-036-98,-29.4,-0.248,-0.653,2.49,3.0,,7.4,7.83,
2025-08-14T23:34:23.934Z,3,GR86-036-98,-30.5,-0.245,-0.661,2.49,3.0,,6.715,6.99,
2025-08-14T23:34:23.977Z,3,GR86-036-98,-33.5,-0.24,-0.666,2.49,3.0,,5.8,6.425,
2025-08-14T23:34:24.020Z,3,GR86-036-98,-34.0,-0.222,-0.675,2.49,3.0,4346.0,5.0200000000000005,5.495,
2025-08-14T23:34:24.063Z,3,GR86-036-98,-34.0,-0.209,-0.681,2.49,3.0,,4.53,4.99,97.01
2025-08-14T23:34:24.107Z,3,GR86-036-98,-31.3,-0.217,-0.681,2.49,3.0,,3.935,4.365,
2025-08-14T23:34:24.150Z,3,GR86-036-98,-27.0,-0.196,-0.609,2.49,3.0,,3.555,4.09,
2025-08-14T23:34:24.193Z,3,GR86-036-98,-24.5,-0.202,-0.61,2.49,3.0,,3.34,3.845,
2025-08-14T23:34:24.238Z,3,GR86-036-98,-24.4,-0.168,-0.55,2.49,3.0,4296.0,1.86,2.335,
2025-08-14T23:34:24.281Z,3,GR86-036-98,-24.4,-0.152,-0.5630000000000001,2.49,3.0,,0.0,0.0,95.54
2025-08-14T23:34:24.324Z,3,GR86-036-98,-28.5,-0.128,-0.558,2.5,3.0,,0.0,0.0,
2025-08-14T23:34:24.367Z,3,GR86-036-98,-35.9,-0.145,-0.5760000000000001,2.49,3.0,,0.0,0.0,
2025-08-14T23:34:24.411Z,3,GR86-036-98,-37.0,-0.142,-0.609,2.49,3.0,,0.0,0.0,
2025-08-14T23:34:24.499Z,3,GR86-036-98,-37.0,-0.137,-0.617,2.49,3.0,4254.0,0.0,0.0,93.83
2025-08-14T23:34:24.542Z,3,GR86-036-98,-31.8,-0.141,-0.577,2.5,3.0,,0.0,0.0,
2025-08-14T23:34:24.585Z,3,GR86-036-98,-27.9,-0.137,-0.5680000000000001,2.49,3.0,,0.0,0.0,
2025-08-14T23:34:24.628Z,3,GR86-036-98,-26.0,-0.112,-0.508,2.49,3.0,,0.0,0.0,
2025-08-14T23:34:24.671Z,3,GR86-036-98,-26.0,-0.122,-0.518,2.49,3.0,4216.0,0.0,0.0,
2025-08-14T23:34:24.714Z,3,GR86-036-98,-26.0,-0.115,-0.508,2.49,3.0,,0.0,0.0,92.76
2025-08-14T23:34:24.758Z,3,GR86-036-98,-26.0,-0.149,-0.529,2.49,3.0,,0.0,0.0,
2025-08-14T23:34:24.844Z,3,GR86-036-98,-28.8,-0.127,-0.521,2.49,3.0,,0.0,0.0,
2025-08-14T23:34:24.888Z,3,GR86-036-98,-29.9,-0.129,-0.541,2.49,3.0,4173.0,0.0,0.0,
2025-08-14T23:34:24.931Z,3,GR86-036-98,-29.9,-0.129,-0.514,2.49,3.0,,0.0,0.0,91.91
2025-08-14T23:34:24.974Z,3,GR86-036-98,-29.4,-0.128,-0.517,2.5,3.0,,0.0,0.0,
2025-08-14T23:34:25.017Z,3,GR86-036-98,-29.3,-0.13,-0.49,2.49,3.0,,0.0,0.0,
2025-08-14T23:34:25.060Z,3,GR86-036-98,-29.3,-0.126,-0.509,2.5,3.0,,0.0,0.0,
2025-08-14T23:34:25.103Z,3,GR86-036-98,-29.5,-0.128,-0.5,2.49,3.0,4143.0,0.0,0.0,
2025-08-14T23:34:25.148Z,3,GR86-036-98,-38.2,-0.144,-0.578,2.49,3.0,,0.0,0.0,91.16
2025-08-14T23:34:25.191Z,3,GR86-036-98,-42.2,-0.133,-0.593,2.49,3.0,,0.0,0.0,
2025-08-14T23:34:25.278Z,3,GR86-036-98,-44.1,-0.161,-0.622,2.49,3.0,,0.0,0.0,
2025-08-14T23:34:25.321Z,3,GR86-036-98,-44.1,-0.102,-0.679,2.49,3.0,4114.0,0.0,0.0,
2025-08-14T23:34:25.364Z,3,GR86-036-98,-44.1,-0.177,-0.608,4.04,3.0,,0.0,0.0,90.41
2025-08-14T23:34:25.408Z,3,GR86-036-98,-46.1,-0.176,-0.709,10.68,3.0,,0.0,0.0,
2025-08-14T23:34:25.494Z,3,GR86-036-98,-53.5,-0.207,-0.8,20.98,3.0,,0.0,0.0,
2025-08-14T23:34:25.538Z,3,GR86-036-98,-54.900000000000006,-0.068,-0.793,21.19,3.0,4075.0,0.0,0.0,
2025-08-14T23:34:25.581Z,3,GR86-036-98,-54.900000000000006,-0.131,-0.845,22.39,3.0,,0.0,0.0,90.22
2025-08-14T23:34:25.624Z,3,GR86-036-98,-54.900000000000006,-0.058,-0.807,25.08,3.0,,0.0,0.0,
2025-08-14T23:34:25.668Z,3,GR86-036-98,-53.900000000000006,-0.088,-0.875,29.5,3.0,,0.0,0.0,
2025-08-14T23:34:25.711Z,3,GR86-036-98,-52.0,0.156,-0.8200000000000001,30.63,3.0,,0.0,0.0,
2025-08-14T23:34:25.754Z,3,GR86-036-98,-51.3,0.167,-0.8250000000000001,32.71,3.0,4085.0,0.0,0.0,
2025-08-14T23:34:25.799Z,3,GR86-036-98,-50.7,0.098,-0.857,37.61,3.0,,0.0,0.0,89.33
2025-08-14T23:34:25.842Z,3,GR86-036-98,-50.5,0.059,-0.756,43.11,3.0,,0.0,0.0,
2025-08-14T23:34:25.885Z,3,GR86-036-98,-50.5,0.087,-0.845,43.96,3.0,,0.0,0.0,
2025-08-14T23:34:25.928Z,3,GR86-036-98,-50.5,0.161,-0.768,43.81,3.0,,0.0,0.0,
2025-08-14T23:34:25.971Z,3,GR86-036-98,-50.5,0.134,-0.8190000000000001,44.69,3.0,4169.0,0.0,0.0,
2025-08-14T23:34:26.014Z,3,GR86-036-98,-51.6,0.149,-0.772,48.15,3.0,,0.0,0.0,89.56
2025-08-14T23:34:26.057Z,3,GR86-036-98,-51.900000000000006,0.103,-0.8290000000000001,53.13,3.0,,0.0,0.0,
2025-08-14T23:34:26.143Z,3,GR86-036-98,-51.900000000000006,0.124,-0.784,59.04,3.0,,0.0,0.0,
2025-08-14T23:34:26.189Z,3,GR86-036-98,-48.8,0.179,-0.765,99.51,3.0,4276.0,0.0,0.0,
2025-08-14T23:34:26.232Z,3,GR86-036-98,-45.900000000000006,0.178,-0.737,99.77,3.0,,0.0,0.0,90.45
2025-08-14T23:34:26.275Z,3,GR86-036-98,-44.7,0.177,-0.748,99.77,3.0,,0.0,0.0,
2025-08-14T23:34:26.361Z,3,GR86-036-98,-44.7,0.167,-0.715,99.76,3.0,,0.0,0.0,
2025-08-14T23:34:26.404Z,3,GR86-036-98,-44.7,0.174,-0.742,22.49,3.0,4327.0,0.0,0.0,
2025-08-14T23:34:26.448Z,3,GR86-036-98,-44.7,0.143,-0.773,7.63,3.0,,0.0,0.0,91.51
2025-08-14T23:34:26.491Z,3,GR86-036-98,-44.7,0.105,-0.773,8.58,3.0,,0.0,0.0,
2025-08-14T23:34:26.578Z,3,GR86-036-98,-44.7,0.003,-0.752,10.12,3.0,,0.0,0.0,
2025-08-14T23:34:26.621Z,3,GR86-036-98,-44.7,-0.069,-0.749,6.91,3.0,4232.0,0.0,0.0,
2025-08-14T23:34:26.664Z,3,GR86-036-98,-44.7,-0.051,-0.763,3.97,3.0,,0.0,0.0,92.73
2025-08-14T23:34:26.708Z,3,GR86-036-98,-44.7,-0.085,-0.745,3.86,3.0,,0.0,0.0,
2025-08-14T23:34:26.794Z,3,GR86-036-98,-44.7,-0.097,-0.744,3.7,3.0,,0.0,0.0,
2025-08-14T23:34:26.881Z,3,GR86-036-98,-44.7,-0.178,-0.73,3.5500000000000003,3.0,4083.0,0.0,0.0,93.11
2025-08-14T23:34:26.924Z,3,GR86-036-98,-44.7,-0.116,-0.794,3.54,3.0,,0.0,0.0,
2025-08-14T23:34:27.011Z,3,GR86-036-98,-44.7,-0.157,-0.795,19.86,3.0,,0.0,0.0,
2025-08-14T23:34:27.054Z,3,GR86-036-98,-44.7,-0.116,-0.756,9.18,3.0,4144.0,0.0,0.0,
2025-08-14T23:34:27.099Z,3,GR86-036-98,-37.9,-0.105,-0.774,20.62,3.0,,0.0,0.0,92.44
2025-08-14T23:34:27.142Z,3,GR86-036-98,-32.2,-0.083,-0.78,22.64,3.0,,0.0,0.0,
2025-08-14T23:34:27.185Z,3,GR86-036-98,-23.700000000000003,-0.068,-0.7020000000000001,23.85,3.0,,0.0,0.0,
2025-08-14T23:34:27.228Z,3,GR86-036-98,-13.0,0.225,-0.629,23.86,3.0,,0.0,0.0,
2025-08-14T23:34:27.271Z,3,GR86-036-98,-5.4,0.149,-0.548,23.87,3.0,4308.0,0.0,0.0,
2025-08-14T23:34:27.314Z,3,GR86-036-98,0.6000000000000001,0.077,-0.461,23.87,3.0,,0.0,0.0,91.58
2025-08-14T23:34:27.359Z,3,GR86-036-98,8.4,0.042,-0.33,23.87,3.0,,0.0,0.0,
2025-08-14T23:34:27.402Z,3,GR86-036-98,15.0,0.113,-0.203,23.43,3.0,,0.0,0.0,
2025-08-14T23:34:27.445Z,3,GR86-036-98,19.6,0.135,-0.049,22.96,3.0,,0.0,0.0,
2025-08-14T23:34:27.488Z,3,GR86-036-98,22.8,0.093,0.122,22.82,3.0,4225.0,0.0,0.0,
2025-08-14T23:34:27.531Z,3,GR86-036-98,22.9,0.08,0.21,22.98,3.0,,0.0,0.0,90.47
2025-08-14T23:34:27.574Z,3,GR86-036-98,22.9,0.07,0.299,23.27,3.0,,0.0,0.0,
2025-08-14T23:34:27.617Z,3,GR86-036-98,22.9,0.111,0.321,23.38,3.0,,0.0,0.0,
2025-08-14T23:34:27.660Z,3,GR86-036-98,21.9,0.107,0.379,23.49,3.0,,0.0,0.0,
2025-08-14T23:34:27.703Z,3,GR86-036-98,16.8,0.115,0.342,23.56,3.0,4244.0,0.0,0.0,
2025-08-14T23:34:27.748Z,3,GR86-036-98,6.1000000000000005,0.112,0.301,23.61,3.0,,0.0,0.0,90.82
2025-08-14T23:34:27.791Z,3,GR86-036-98,-2.4000000000000004,0.112,0.226,23.61,3.0,,0.0,0.0,
2025-08-14T23:34:27.834Z,3,GR86-036-98,-13.0,0.105,0.138,23.55,3.0,,0.0,0.0,
2025-08-14T23:34:27.877Z,3,GR86-036-98,-20.8,0.103,0.034,23.35,3.0,,0.0,0.0,
2025-08-14T23:34:27.920Z,3,GR86-036-98,-25.8,0.092,-0.063,23.23,3.0,4281.0,0.0,0.0,
2025-08-14T23:34:27.963Z,3,GR86-036-98,-31.3,0.095,-0.178,23.11,3.0,,0.0,0.0,91.47
2025-08-14T23:34:28.008Z,3,GR86-036-98,-38.1,0.085,-0.316,22.92,3.0,,0.0,0.0,
2025-08-14T23:34:28.051Z,3,GR86-036-98,-41.900000000000006,0.065,-0.41,22.84,3.0,,0.0,0.0,
2025-08-14T23:34:28.094Z,3,GR86-036-98,-44.6,0.071,-0.506,22.72,3.0,,0.0,0.0,
2025-08-14T23:34:28.138Z,3,GR86-036-98,-45.1,0.049,-0.562,22.72,3.0,4310.0,0.0,0.0,
2025-08-14T23:34:28.181Z,3,GR86-036-98,-45.1,0.061,-0.649,23.29,3.0,,0.0,0.0,92.11
2025-08-14T23:34:28.224Z,3,GR86-036-98,-45.1,0.058,-0.662,23.83,3.0,,0.0,0.0,
2025-08-14T23:34:28.267Z,3,GR86-036-98,-45.1,0.054,-0.728,24.1,3.0,,0.0,0.0,
2025-08-14T23:34:28.310Z,3,GR86-036-98,-45.1,0.079,-0.734,24.91,3.0,,0.0,0.0,
2025-08-14T23:34:28.353Z,3,GR86-036-98,-45.1,0.064,-0.737,26.15,3.0,4358.0,0.0,0.0,
2025-08-14T23:34:28.396Z,3,GR86-036-98,-45.1,0.092,-0.759,27.03,3.0,,0.0,0.0,94.32
2025-08-14T23:34:28.439Z,3,GR86-036-98,-45.1,0.075,-0.774,28.21,3.0,,0.0,0.0,
2025-08-14T23:34:28.482Z,3,GR86-036-98,-45.1,0.094,-0.774,29.8,3.0,,0.0,0.0,
2025-08-14T23:34:28.525Z,3,GR86-036-98,-45.1,0.083,-0.767,32.37,3.0,,0.0,0.0,
2025-08-14T23:34:28.568Z,3,GR86-036-98,-45.1,0.103,-0.751,37.06,3.0,4399.0,0.0,0.0,
2025-08-14T23:34:28.611Z,3,GR86-036-98,-45.1,0.137,-0.73,40.41,3.0,,0.0,0.0,94.83
2025-08-14T23:34:28.654Z,3,GR86-036-98,-45.1,0.133,-0.735,50.39,3.0,,0.0,0.0,
2025-08-14T23:34:28.699Z,3,GR86-036-98,-44.900000000000006,0.169,-0.73,71.64,3.0,,0.0,0.0,
2025-08-14T23:34:28.742Z,3,GR86-036-98,-44.5,0.153,-0.741,99.08,3.0,,0.0,0.0,
2025-08-14T23:34:28.785Z,3,GR86-036-98,-43.5,0.208,-0.716,99.79,3.0,4432.0,0.0,0.0,
2025-08-14T23:34:28.828Z,3,GR86-036-98,-40.8,0.223,-0.711,99.77,3.0,,0.0,0.0,95.44
2025-08-14T23:34:28.871Z,3,GR86-036-98,-39.1,0.204,-0.723,99.76,3.0,,0.0,0.0,
2025-08-14T23:34:28.958Z,3,GR86-036-98,-36.0,0.225,-0.6940000000000001,99.77,3.0,,0.0,0.0,
2025-08-14T23:34:29.001Z,3,GR86-036-98,-33.1,0.229,-0.652,99.77,3.0,4576.0,0.0,0.0,
2025-08-14T23:34:29.044Z,3,GR86-036-98,-31.700000000000003,0.198,-0.665,99.76,3.0,,0.0,0.0,96.62
2025-08-14T23:34:29.089Z,3,GR86-036-98,-29.3,0.215,-0.65,99.77,3.0,,0.0,0.0,
2025-08-14T23:34:29.132Z,3,GR86-036-98,-26.8,0.233,-0.624,99.76,3.0,,0.0,0.0,
2025-08-14T23:34:29.175Z,3,GR86-036-98,-25.3,0.203,-0.619,99.72,3.0,,0.0,0.0,
2025-08-14T23:34:29.218Z,3,GR86-036-98,-23.700000000000003,0.246,-0.562,95.8,3.0,4636.0,0.0,0.0,
2025-08-14T23:34:29.261Z,3,GR86-036-98,-23.200000000000003,0.196,-0.534,76.69,3.0,,0.0,0.0,97.1
2025-08-14T23:34:29.304Z,3,GR86-036-98,-22.3,0.228,-0.506,73.93,3.0,,0.0,0.0,
2025-08-14T23:34:29.348Z,3,GR86-036-98,-19.1,0.229,-0.463,73.17,3.0,,0.0,0.0,
2025-08-14T23:34:29.391Z,3,GR86-036-98,-15.8,0.213,-0.435,72.01,3.0,,0.0,0.0,
2025-08-14T23:34:29.434Z,3,GR86-036-98,-11.3,0.245,-0.381,72.34,3.0,4696.0,0.0,0.0,
2025-08-14T23:34:29.478Z,3,GR86-036-98,-7.4,0.194,-0.35,72.9,3.0,,0.0,0.0,98.59
2025-08-14T23:34:29.521Z,3,GR86-036-98,0.8,0.233,-0.265,72.7,3.0,,0.0,0.0,
2025-08-14T23:34:29.608Z,3,GR86-036-98,16.2,0.225,-0.089,97.29,3.0,,0.0,0.0,
2025-08-14T23:34:29.651Z,3,GR86-036-98,20.3,0.249,0.016,99.7,3.0,4766.0,0.0,0.0,
2025-08-14T23:34:29.694Z,3,GR86-036-98,22.3,0.199,0.094,99.74,3.0,,0.0,0.0,100.11
2025-08-14T23:34:29.738Z,3,GR86-036-98,25.200000000000003,0.239,0.184,99.73,3.0,,0.0,0.0,
2025-08-14T23:34:29.781Z,3,GR86-036-98,26.5,0.215,0.244,99.76,3.0,,0.0,0.0,
2025-08-14T23:34:29.824Z,3,GR86-036-98,28.4,0.224,0.336,99.73,3.0,,0.0,0.0,
2025-08-14T23:34:29.868Z,3,GR86-036-98,29.4,0.229,0.444,99.75,3.0,4836.0,0.0,0.0,
2025-08-14T23:34:29.954Z,3,GR86-036-98,29.4,0.215,0.472,99.74,3.0,,0.0,0.0,101.8
2025-08-14T23:34:30.042Z,3,GR86-036-98,29.4,0.216,0.5640000000000001,67.64,3.0,,0.0,0.0,
2025-08-14T23:34:30.085Z,3,GR86-036-98,29.4,0.233,0.615,36.36,3.0,4919.0,0.0,0.0,
2025-08-14T23:34:30.128Z,3,GR86-036-98,29.4,0.21,0.626,32.55,3.0,,0.0,0.0,103.33
2025-08-14T23:34:30.171Z,3,GR86-036-98,29.4,0.159,0.622,31.43,3.0,,0.0,0.0,
2025-08-14T23:34:30.257Z,3,GR86-036-98,29.4,0.16,0.644,30.13,3.0,,0.0,0.0,
2025-08-14T23:34:30.300Z,3,GR86-036-98,29.4,0.15,0.623,29.0,3.0,4951.0,0.0,0.0,
2025-08-14T23:34:30.343Z,3,GR86-036-98,28.6,0.144,0.591,28.37,3.0,,0.0,0.0,104.87
2025-08-14T23:34:30.389Z,3,GR86-036-98,26.6,0.144,0.5640000000000001,27.43,3.0,,0.0,0.0,
2025-08-14T23:34:30.432Z,3,GR86-036-98,25.4,0.142,0.559,26.6,3.0,,0.0,0.0,
2025-08-14T23:34:30.475Z,3,GR86-036-98,23.8,0.147,0.526,24.04,3.0,,0.0,0.0,
2025-08-14T23:34:30.518Z,3,GR86-036-98,22.3,0.136,0.488,21.67,3.0,5002.0,0.0,0.0,
2025-08-14T23:34:30.561Z,3,GR86-036-98,20.6,0.129,0.478,4.1,3.0,,0.0,0.0,106.12
2025-08-14T23:34:30.604Z,3,GR86-036-98,18.5,0.102,0.42,3.98,3.0,,0.0,0.0,
2025-08-14T23:34:30.691Z,3,GR86-036-98,15.1,-0.084,0.398,3.89,3.0,,0.0,0.0,
2025-08-14T23:34:30.734Z,3,GR86-036-98,11.3,-0.289,0.293,3.47,3.0,5023.0,0.0,0.0,
2025-08-14T23:34:30.820Z,3,GR86-036-98,8.700000000000001,-0.219,0.317,3.06,3.0,,0.0,0.0,107.06
2025-08-14T23:34:30.908Z,3,GR86-036-98,-0.4,-0.129,0.146,2.61,3.0,,0.0,0.0,
2025-08-14T23:34:30.951Z,3,GR86-036-98,-3.1,-0.153,0.028,2.5500000000000003,3.0,4872.0,3.495,3.465,
2025-08-14T23:34:30.994Z,3,GR86-036-98,-5.4,-0.143,0.013,2.53,3.0,,4.44,4.275,107.13
2025-08-14T23:34:31.038Z,3,GR86-036-98,-8.3,-0.141,-0.035,2.52,3.0,,4.87,4.655,
2025-08-14T23:34:31.124Z,3,GR86-036-98,-11.9,-0.162,-0.135,2.51,3.0,,5.585,5.465,
2025-08-14T23:34:31.168Z,3,GR86-036-98,-16.8,-0.219,-0.252,2.5,3.0,4863.0,6.865,6.6850000000000005,
2025-08-14T23:34:31.211Z,3,GR86-036-98,-18.2,-0.213,-0.323,2.49,3.0,,6.99,7.295,106.13
2025-08-14T23:34:31.254Z,3,GR86-036-98,-19.200000000000003,-0.204,-0.352,2.49,3.0,,5.995,6.15,
2025-08-14T23:34:31.299Z,3,GR86-036-98,-19.8,-0.192,-0.409,2.48,3.0,,0.0,2.135,
2025-08-14T23:34:31.342Z,3,GR86-036-98,-20.1,-0.144,-0.448,2.48,3.0,,0.0,0.0,
2025-08-14T23:34:31.385Z,3,GR86-036-98,-20.3,-0.122,-0.44,2.49,3.0,4822.0,0.0,0.0,
2025-08-14T23:34:31.428Z,3,GR86-036-98,-21.3,-0.127,-0.496,17.13,3.0,,0.0,0.0,104.96
2025-08-14T23:34:31.471Z,3,GR86-036-98,-22.3,-0.131,-0.518,18.14,3.0,,0.0,0.0,
2025-08-14T23:34:31.559Z,3,GR86-036-98,-23.0,-0.135,-0.538,20.13,3.0,,0.0,0.0,
2025-08-14T23:34:31.602Z,3,GR86-036-98,-23.0,-0.067,-0.5660000000000001,22.11,3.0,4827.0,0.0,0.0,
2025-08-14T23:34:31.645Z,3,GR86-036-98,-23.0,-0.079,-0.5720000000000001,24.12,3.0,,0.0,0.0,104.34
2025-08-14T23:34:31.688Z,3,GR86-036-98,-23.0,0.122,-0.595,26.39,3.0,,0.0,0.0,
2025-08-14T23:34:31.731Z,3,GR86-036-98,-23.0,0.201,-0.56,27.79,3.0,,0.0,0.0,
2025-08-14T23:34:31.774Z,3,GR86-036-98,-23.1,0.097,-0.584,31.46,3.0,,0.0,0.0,
2025-08-14T23:34:31.817Z,3,GR86-036-98,-23.0,0.057,-0.54,37.83,3.0,4841.0,0.0,0.0,
2025-08-14T23:34:31.860Z,3,GR86-036-98,-23.0,0.099,-0.512,41.47,3.0,,0.0,0.0,103.85
2025-08-14T23:34:31.903Z,3,GR86-036-98,-23.0,0.15,-0.527,44.19,3.0,,0.0,0.0,
2025-08-14T23:34:31.948Z,3,GR86-036-98,-21.1,0.192,-0.484,53.45,3.0,,0.0,0.0,
2025-08-14T23:34:31.991Z,3,GR86-036-98,-18.7,0.176,-0.456,65.07000000000001,3.0,,0.0,0.0,
2025-08-14T23:34:32.034Z,3,GR86-036-98,-16.0,0.162,-0.435,82.05,3.0,4953.0,0.0,0.0,
2025-08-14T23:34:32.077Z,3,GR86-036-98,-13.2,0.197,-0.408,98.75,3.0,,0.0,0.0,104.52
2025-08-14T23:34:32.120Z,3,GR86-036-98,-11.0,0.211,-0.37,99.68,3.0,,0.0,0.0,
2025-08-14T23:34:32.163Z,3,GR86-036-98,-9.0,0.223,-0.323,99.77,3.0,,0.0,0.0,
2025-08-14T23:34:32.207Z,3,GR86-036-98,-6.300000000000001,0.196,-0.267,99.77,3.0,,0.0,0.0,
2025-08-14T23:34:32.251Z,3,GR86-036-98,-4.4,0.206,-0.254,99.79,3.0,5030.0,0.0,0.0,
2025-08-14T23:34:32.294Z,3,GR86-036-98,-2.0,0.209,-0.188,99.78,3.0,,0.0,0.0,105.88
2025-08-14T23:34:32.338Z,3,GR86-036-98,0.5,0.223,-0.176,99.77,3.0,,0.0,0.0,
2025-08-14T23:34:32.381Z,3,GR86-036-98,2.8000000000000003,0.203,-0.12,99.76,3.0,,0.0,0.0,
2025-08-14T23:34:32.424Z,3,GR86-036-98,5.1000000000000005,0.207,-0.078,99.79,3.0,,0.0,0.0,
2025-08-14T23:34:32.467Z,3,GR86-036-98,8.5,0.222,-0.019,99.77,3.0,5106.0,0.0,0.0,
2025-08-14T23:34:32.510Z,3,GR86-036-98,10.6,0.218,0.025,99.77,3.0,,0.0,0.0,107.54
2025-08-14T23:34:32.553Z,3,GR86-036-98,12.7,0.209,0.087,99.78,3.0,,0.0,0.0,
2025-08-14T23:34:32.642Z,3,GR86-036-98,14.7,0.207,0.113,99.78,3.0,,0.0,0.0,
2025-08-14T23:34:32.685Z,3,GR86-036-98,18.4,0.213,0.229,99.79,3.0,5186.0,0.0,0.0,
2025-08-14T23:34:32.728Z,3,GR86-036-98,20.4,0.213,0.295,99.77,3.0,,0.0,0.0,109.33
2025-08-14T23:34:32.771Z,3,GR86-036-98,21.3,0.209,0.347,99.79,3.0,,0.0,0.0,
2025-08-14T23:34:32.814Z,3,GR86-036-98,22.0,0.206,0.386,99.79,3.0,,0.0,0.0,
2025-08-14T23:34:32.858Z,3,GR86-036-98,22.3,0.214,0.407,99.77,3.0,,0.0,0.0,
2025-08-14T23:34:32.901Z,3,GR86-036-98,22.5,0.207,0.453,99.79,3.0,5275.0,0.0,0.0,
2025-08-14T23:34:32.944Z,3,GR86-036-98,22.4,0.205,0.496,99.77,3.0,,0.0,0.0,111.12
2025-08-14T23:34:32.989Z,3,GR86-036-98,22.5,0.205,0.548,99.78,3.0,,0.0,0.0,
2025-08-14T23:34:33.032Z,3,GR86-036-98,22.5,0.219,0.5650000000000001,99.77,3.0,,0.0,0.0,
2025-08-14T23:34:33.075Z,3,GR86-036-98,22.5,0.209,0.593,99.79,3.0,,0.0,0.0,
2025-08-14T23:34:33.118Z,3,GR86-036-98,22.5,0.214,0.605,99.79,3.0,5382.0,0.0,0.0,
2025-08-14T23:34:33.161Z,3,GR86-036-98,22.5,0.227,0.5760000000000001,99.78,3.0,,0.0,0.0,112.97
2025-08-14T23:34:33.204Z,3,GR86-036-98,22.5,0.213,0.587,99.77,3.0,,0.0,0.0,
2025-08-14T23:34:33.248Z,3,GR86-036-98,22.4,0.205,0.5740000000000001,99.79,3.0,,0.0,0.0,
2025-08-14T23:34:33.291Z,3,GR86-036-98,22.0,0.211,0.548,99.79,3.0,,0.0,0.0,
2025-08-14T23:34:33.334Z,3,GR86-036-98,20.9,0.217,0.548,99.77,3.0,5456.0,0.0,0.0,
2025-08-14T23:34:33.378Z,3,GR86-036-98,20.1,0.209,0.523,99.79,3.0,,0.0,0.0,114.88
2025-08-14T23:34:33.421Z,3,GR86-036-98,19.5,0.224,0.486,99.79,3.0,,0.0,0.0,
2025-08-14T23:34:33.464Z,3,GR86-036-98,18.5,0.221,0.481,99.8,3.0,,0.0,0.0,
2025-08-14T23:34:33.508Z,3,GR86-036-98,15.5,0.209,0.463,99.79,3.0,,0.0,0.0,
2025-08-14T23:34:33.552Z,3,GR86-036-98,12.6,0.208,0.436,99.78,3.0,5551.0,0.0,0.0,
2025-08-14T23:34:33.595Z,3,GR86-036-98,9.3,0.223,0.393,99.81,3.0,,0.0,0.0,118.45
2025-08-14T23:34:33.638Z,3,GR86-036-98,6.7,0.221,0.35,99.79,3.0,,0.0,0.0,
2025-08-14T23:34:33.681Z,3,GR86-036-98,4.800000000000001,0.197,0.284,99.81,3.0,,0.0,0.0,
2025-08-14T23:34:33.724Z,3,GR86-036-98,3.5,0.217,0.245,99.79,3.0,,0.0,0.0,
2025-08-14T23:34:33.768Z,3,GR86-036-98,1.7000000000000002,0.207,0.175,99.8,3.0,5618.0,0.0,0.0,
2025-08-14T23:34:33.811Z,3,GR86-036-98,-0.2,0.223,0.127,99.81,3.0,,0.0,0.0,120.26
2025-08-14T23:34:33.854Z,3,GR86-036-98,-2.6,0.195,0.054,99.78,3.0,,0.0,0.0,
2025-08-14T23:34:33.942Z,3,GR86-036-98,-8.200000000000001,0.199,-0.024,99.8,3.0,,0.0,0.0,
2025-08-14T23:34:33.985Z,3,GR86-036-98,-10.7,0.171,-0.107,99.79,3.0,5697.0,0.0,0.0,
2025-08-14T23:34:34.028Z,3,GR86-036-98,-13.8,0.182,-0.205,99.78,3.0,,0.0,0.0,122.08
2025-08-14T23:34:34.071Z,3,GR86-036-98,-15.5,0.192,-0.264,99.8,3.0,,0.0,0.0,
2025-08-14T23:34:34.114Z,3,GR86-036-98,-16.400000000000002,0.219,-0.298,99.8,3.0,,0.0,0.0,
2025-08-14T23:34:34.157Z,3,GR86-036-98,-16.5,0.17,-0.372,99.8,3.0,,0.0,0.0,
2025-08-14T23:34:34.200Z,3,GR86-036-98,-16.6,0.157,-0.406,99.79,3.0,5859.0,0.0,0.0,
2025-08-14T23:34:34.243Z,3,GR86-036-98,-16.6,0.197,-0.422,99.79,3.0,,0.0,0.0,124.01
2025-08-14T23:34:34.288Z,3,GR86-036-98,-16.7,0.206,-0.451,99.8,3.0,,0.0,0.0,
2025-08-14T23:34:34.331Z,3,GR86-036-98,-16.7,0.193,-0.438,99.79,3.0,,0.0,0.0,
2025-08-14T23:34:34.374Z,3,GR86-036-98,-16.7,0.152,-0.478,99.79,3.0,,0.0,0.0,
2025-08-14T23:34:34.417Z,3,GR86-036-98,-16.7,0.182,-0.492,99.79,3.0,5959.0,0.0,0.0,
2025-08-14T23:34:34.460Z,3,GR86-036-98,-16.7,0.203,-0.504,99.79,3.0,,0.0,0.0,125.87
2025-08-14T23:34:34.503Z,3,GR86-036-98,-16.7,0.176,-0.53,99.77,3.0,,0.0,0.0,
2025-08-14T23:34:34.548Z,3,GR86-036-98,-16.8,0.176,-0.535,99.79,3.0,,0.0,0.0,
2025-08-14T23:34:34.591Z,3,GR86-036-98,-16.8,-0.087,-0.523,99.8,4.0,,0.0,0.0,
2025-08-14T23:34:34.634Z,3,GR86-036-98,-16.8,-0.05,-0.47,99.79,4.0,5960.0,0.0,0.0,
2025-08-14T23:34:34.677Z,3,GR86-036-98,-16.900000000000002,0.414,-0.52,99.81,4.0,,0.0,0.0,127.65
2025-08-14T23:34:34.720Z,3,GR86-036-98,-16.900000000000002,0.235,-0.557,99.79,4.0,,0.0,0.0,
2025-08-14T23:34:34.763Z,3,GR86-036-98,-16.900000000000002,0.117,-0.439,99.79,4.0,,0.0,0.0,
2025-08-14T23:34:34.808Z,3,GR86-036-98,-16.900000000000002,0.079,-0.503,99.79,4.0,,0.0,0.0,
2025-08-14T23:34:34.851Z,3,GR86-036-98,-16.900000000000002,0.208,-0.469,99.8,4.0,5024.0,0.0,0.0,
2025-08-14T23:34:34.894Z,3,GR86-036-98,-16.900000000000002,0.193,-0.446,99.78,4.0,,0.0,0.0,129.11
2025-08-14T23:34:34.938Z,3,GR86-036-98,-16.900000000000002,0.1,-0.487,99.77,4.0,,0.0,0.0,
2025-08-14T23:34:34.981Z,3,GR86-036-98,-16.900000000000002,0.121,-0.427,99.79,4.0,,0.0,0.0,
2025-08-14T23:34:35.024Z,3,GR86-036-98,-16.900000000000002,0.178,-0.415,99.79,4.0,,0.0,0.0,
2025-08-14T23:34:35.111Z,3,GR86-036-98,-16.900000000000002,0.171,-0.436,99.79,4.0,5177.0,0.0,0.0,130.72
2025-08-14T23:34:35.154Z,3,GR86-036-98,-16.8,0.116,-0.462,91.95,4.0,,0.0,0.0,
2025-08-14T23:34:35.242Z,3,GR86-036-98,-14.5,0.143,-0.414,65.06,4.0,,0.0,0.0,
2025-08-14T23:34:35.285Z,3,GR86-036-98,-11.9,0.155,-0.383,31.21,4.0,5247.0,0.0,0.0,
2025-08-14T23:34:35.328Z,3,GR86-036-98,-11.4,0.135,-0.359,24.37,4.0,,0.0,0.0,132.22
2025-08-14T23:34:35.371Z,3,GR86-036-98,-10.7,0.061,-0.344,22.06,4.0,,0.0,0.0,
2025-08-14T23:34:35.414Z,3,GR86-036-98,-9.4,0.038,-0.314,21.29,4.0,,0.0,0.0,
2025-08-14T23:34:35.459Z,3,GR86-036-98,-7.7,0.057,-0.263,5.29,4.0,,0.0,0.0,
2025-08-14T23:34:35.502Z,3,GR86-036-98,-5.9,0.034,-0.254,4.08,4.0,5264.0,0.0,0.0,
2025-08-14T23:34:35.545Z,3,GR86-036-98,-4.0,-0.09,-0.207,4.04,4.0,,0.0,0.0,133.61
2025-08-14T23:34:35.589Z,3,GR86-036-98,-1.6,-0.126,-0.144,3.85,4.0,,0.0,0.0,
2025-08-14T23:34:35.632Z,3,GR86-036-98,-0.3,-0.304,-0.128,3.63,4.0,,0.0,0.0,
2025-08-14T23:34:35.675Z,3,GR86-036-98,0.8,-0.135,-0.067,3.36,4.0,,0.0,0.0,
2025-08-14T23:34:35.718Z,3,GR86-036-98,1.7000000000000002,-0.085,-0.083,3.0,4.0,5054.0,0.0,0.0,
2025-08-14T23:34:35.761Z,3,GR86-036-98,2.8000000000000003,-0.144,-0.039,2.79,4.0,,0.0,0.0,134.81
2025-08-14T23:34:35.804Z,3,GR86-036-98,3.9,-0.168,0.027,2.65,4.0,,0.0,0.0,
2025-08-14T23:34:35.891Z,3,GR86-036-98,5.5,-0.119,0.102,2.52,4.0,,0.0,0.0,
2025-08-14T23:34:35.934Z,3,GR86-036-98,5.5,-0.123,0.089,2.49,4.0,5166.0,0.0,0.0,
2025-08-14T23:34:35.977Z,3,GR86-036-98,5.5,-0.155,0.135,2.49,4.0,,0.0,0.0,134.94
2025-08-14T23:34:36.020Z,3,GR86-036-98,5.5,-0.155,0.162,2.46,4.0,,0.0,0.0,
2025-08-14T23:34:36.107Z,3,GR86-036-98,5.5,-0.139,0.178,2.46,4.0,,0.0,0.0,
2025-08-14T23:34:36.150Z,3,GR86-036-98,5.5,-0.14,0.174,2.44,4.0,5168.0,2.395,2.135,
2025-08-14T23:34:36.193Z,3,GR86-036-98,5.5,-0.179,0.166,2.46,4.0,,3.525,3.28,133.89
2025-08-14T23:34:36.238Z,3,GR86-036-98,5.5,-0.187,0.2,2.44,4.0,,4.3950000000000005,4.09,
2025-08-14T23:34:36.324Z,3,GR86-036-98,5.5,-0.178,0.16,2.44,4.0,,5.37,5.22,
2025-08-14T23:34:36.367Z,3,GR86-036-98,5.5,-0.182,0.152,2.45,4.0,5150.0,6.655,6.365,
2025-08-14T23:34:36.410Z,3,GR86-036-98,5.5,-0.221,0.143,2.46,4.0,,7.645,7.585,133.09
2025-08-14T23:34:36.453Z,3,GR86-036-98,5.5,-0.231,0.145,2.46,4.0,,8.455,8.21,
2025-08-14T23:34:36.539Z,3,GR86-036-98,5.5,-0.243,0.109,2.45,4.0,,10.44,10.21,
2025-08-14T23:34:36.582Z,3,GR86-036-98,5.5,-0.269,0.094,2.46,4.0,5110.0,10.895,10.835,
2025-08-14T23:34:36.625Z,3,GR86-036-98,5.4,-0.249,0.084,2.46,4.0,,11.185,10.805,131.96
2025-08-14T23:34:36.668Z,3,GR86-036-98,5.4,-0.253,0.068,2.46,4.0,,11.095,10.805,
2025-08-14T23:34:36.754Z,3,GR86-036-98,5.300000000000001,-0.267,0.028,2.46,4.0,,11.52,11.52,
2025-08-14T23:34:36.799Z,3,GR86-036-98,4.7,-0.303,0.016,2.46,4.0,4994.0,11.905,11.78,
2025-08-14T23:34:36.842Z,3,GR86-036-98,3.9,-0.268,0.005,2.46,4.0,,12.53,11.935,130.43
2025-08-14T23:34:36.885Z,3,GR86-036-98,3.0,-0.256,-0.017,2.46,4.0,,12.56,12.56,
2025-08-14T23:34:36.928Z,3,GR86-036-98,2.5,-0.275,-0.026,2.46,4.0,,13.14,12.895,
2025-08-14T23:34:36.971Z,3,GR86-036-98,2.5,-0.292,-0.03,2.46,4.0,,13.915,13.795,
2025-08-14T23:34:37.014Z,3,GR86-036-98,2.5,-0.325,-0.025,7.99,4.0,4921.0,14.94,14.51,
2025-08-14T23:34:37.058Z,3,GR86-036-98,2.5,-0.314,-0.031,50.9,4.0,,16.28,15.81,128.83
2025-08-14T23:34:37.101Z,3,GR86-036-98,2.5,-0.336,-0.029,95.67,4.0,,17.12,17.06,
2025-08-14T23:34:37.144Z,3,GR86-036-98,2.5,-0.356,-0.01,99.76,4.0,,17.455000000000002,17.03,
2025-08-14T23:34:37.189Z,3,GR86-036-98,2.5,-0.332,-0.057,34.13,3.0,,17.81,17.52,
2025-08-14T23:34:37.232Z,3,GR86-036-98,2.5,-0.443,-0.018,5.09,3.0,5124.0,18.175,17.93,
2025-08-14T23:34:37.275Z,3,GR86-036-98,2.3000000000000003,-0.519,0.028,4.17,3.0,,18.86,18.83,126.84
2025-08-14T23:34:37.318Z,3,GR86-036-98,2.3000000000000003,-0.414,-0.057,3.9,3.0,,19.21,18.8,
2025-08-14T23:34:37.361Z,3,GR86-036-98,2.3000000000000003,-0.365,-0.027,3.64,3.0,,19.21,18.83,
2025-08-14T23:34:37.448Z,3,GR86-036-98,2.3000000000000003,-0.387,0.011,3.24,3.0,5639.0,19.55,19.55,
2025-08-14T23:34:37.491Z,3,GR86-036-98,0.5,-0.456,-0.017,2.72,3.0,,22.22,21.775,124.53
2025-08-14T23:34:37.534Z,3,GR86-036-98,-0.8,-0.434,-0.073,2.66,3.0,,22.965,22.34,
2025-08-14T23:34:37.621Z,3,GR86-036-98,-1.1,-0.456,-0.094,2.61,3.0,,23.365,23.18,
2025-08-14T23:34:37.664Z,3,GR86-036-98,-1.2000000000000002,-0.478,-0.106,2.52,3.0,5509.0,23.425,23.18,
2025-08-14T23:34:37.752Z,3,GR86-036-98,-1.2000000000000002,-0.461,-0.139,2.49,3.0,,23.395,23.395,121.95
2025-08-14T23:34:37.838Z,3,GR86-036-98,-1.2000000000000002,-0.491,-0.143,2.48,3.0,,23.395,22.995,
2025-08-14T23:34:37.881Z,3,GR86-036-98,-1.2000000000000002,-0.478,-0.156,2.46,3.0,5377.0,23.395,23.365,
2025-08-14T23:34:37.924Z,3,GR86-036-98,-1.2000000000000002,-0.462,-0.155,2.46,3.0,,23.365,22.995,119.06
2025-08-14T23:34:37.968Z,3,GR86-036-98,-1.2000000000000002,-0.461,-0.143,2.46,3.0,,23.12,23.06,
2025-08-14T23:34:38.054Z,3,GR86-036-98,-1.2000000000000002,-0.487,-0.151,2.45,3.0,,23.395,23.15,
2025-08-14T23:34:38.099Z,3,GR86-036-98,-1.2000000000000002,-0.449,-0.137,2.46,3.0,5246.0,23.425,23.395,
2025-08-14T23:34:38.143Z,3,GR86-036-98,-1.2000000000000002,-0.47,-0.161,2.46,3.0,,23.745,23.745,116.14
2025-08-14T23:34:38.188Z,3,GR86-036-98,-1.2000000000000002,-0.483,-0.142,2.46,3.0,,24.95,24.585,
2025-08-14T23:34:38.274Z,3,GR86-036-98,-1.2000000000000002,-0.512,-0.141,2.45,3.0,,25.99,25.24,
2025-08-14T23:34:38.317Z,3,GR86-036-98,-2.9000000000000004,-0.51,-0.158,2.46,3.0,5109.0,26.43,25.865,
2025-08-14T23:34:38.360Z,3,GR86-036-98,-4.0,-0.48,-0.168,2.45,3.0,,26.2,26.17,113.1
2025-08-14T23:34:38.403Z,3,GR86-036-98,-4.0,-0.514,-0.191,2.46,3.0,,26.2,25.99,
2025-08-14T23:34:38.448Z,3,GR86-036-98,-4.0,-0.511,-0.201,2.46,3.0,,25.865,25.775,
2025-08-14T23:34:38.491Z,3,GR86-036-98,-4.0,-0.495,-0.19,2.46,3.0,,25.835,25.835,
2025-08-14T23:34:38.534Z,3,GR86-036-98,-4.0,-0.511,-0.199,2.46,3.0,4955.0,25.7,25.775,
2025-08-14T23:34:38.578Z,3,GR86-036-98,-4.0,-0.503,-0.192,2.46,3.0,,25.3,25.395,109.92
2025-08-14T23:34:38.621Z,3,GR86-036-98,-4.0,-0.479,-0.214,2.46,3.0,,23.99,24.705,
2025-08-14T23:34:38.708Z,3,GR86-036-98,-4.4,-0.481,-0.226,22.03,3.0,,22.19,23.12,
2025-08-14T23:34:38.751Z,3,GR86-036-98,-4.6000000000000005,-0.445,-0.256,99.77,3.0,4830.0,19.245,20.385,
2025-08-14T23:34:38.794Z,3,GR86-036-98,-4.6000000000000005,-0.342,-0.257,96.57,2.0,,18.115,19.045,103.9
2025-08-14T23:34:38.838Z,3,GR86-036-98,-4.6000000000000005,-0.361,-0.29,33.82,2.0,,17.81,18.83,
2025-08-14T23:34:38.881Z,3,GR86-036-98,-5.9,-0.628,-0.214,3.91,2.0,,18.145,18.495,
2025-08-14T23:34:38.924Z,3,GR86-036-98,-6.800000000000001,-0.556,-0.208,3.16,2.0,,18.36,19.045,
2025-08-14T23:34:38.968Z,3,GR86-036-98,-7.5,-0.394,-0.337,2.79,2.0,4736.0,18.325,19.045,
2025-08-14T23:34:39.011Z,3,GR86-036-98,-9.4,-0.404,-0.227,2.65,2.0,,18.465,18.74,101.4
2025-08-14T23:34:39.054Z,3,GR86-036-98,-12.1,-0.446,-0.338,2.6,2.0,,18.68,19.21,
2025-08-14T23:34:39.100Z,3,GR86-036-98,-14.3,-0.439,-0.344,2.56,2.0,,18.86,18.86,
2025-08-14T23:34:39.143Z,3,GR86-036-98,-16.0,-0.449,-0.313,2.5500000000000003,2.0,,19.21,19.67,
2025-08-14T23:34:39.188Z,3,GR86-036-98,-16.7,-0.449,-0.412,2.54,2.0,5472.0,19.67,19.99,
2025-08-14T23:34:39.232Z,3,GR86-036-98,-17.5,-0.452,-0.361,2.53,2.0,,19.93,19.96,99.14
2025-08-14T23:34:39.275Z,3,GR86-036-98,-18.7,-0.44,-0.409,2.52,2.0,,20.02,20.295,
2025-08-14T23:34:39.318Z,3,GR86-036-98,-19.200000000000003,-0.462,-0.432,2.52,2.0,,19.93,19.99,
2025-08-14T23:34:39.361Z,3,GR86-036-98,-19.200000000000003,-0.457,-0.436,2.52,2.0,,20.145,20.295,
2025-08-14T23:34:39.404Z,3,GR86-036-98,-19.3,-0.45,-0.465,2.51,2.0,5308.0,19.87,19.9,
2025-08-14T23:34:39.448Z,3,GR86-036-98,-19.3,-0.464,-0.447,2.49,2.0,,19.64,20.02,96.94
2025-08-14T23:34:39.491Z,3,GR86-036-98,-19.3,-0.456,-0.453,2.49,2.0,,19.825,20.175,
2025-08-14T23:34:39.534Z,3,GR86-036-98,-19.4,-0.468,-0.455,2.49,2.0,,19.9,20.175,
2025-08-14T23:34:39.577Z,3,GR86-036-98,-20.8,-0.441,-0.489,2.49,2.0,,19.9,20.115,
2025-08-14T23:34:39.620Z,3,GR86-036-98,-25.1,-0.463,-0.513,2.49,2.0,5158.0,20.02,20.235,
2025-08-14T23:34:39.663Z,3,GR86-036-98,-28.9,-0.467,-0.5630000000000001,2.48,2.0,,19.93,20.175,94.25
2025-08-14T23:34:39.707Z,3,GR86-036-98,-32.5,-0.462,-0.56,2.49,2.0,,19.9,19.9,
2025-08-14T23:34:39.750Z,3,GR86-036-98,-32.9,-0.469,-0.61,2.49,2.0,,19.9,20.235,
2025-08-14T23:34:39.793Z,3,GR86-036-98,-32.9,-0.426,-0.614,2.49,2.0,,19.61,19.9,
2025-08-14T23:34:39.838Z,3,GR86-036-98,-32.9,-0.448,-0.62,2.49,2.0,5015.0,19.425,19.93,
2025-08-14T23:34:39.881Z,3,GR86-036-98,-32.9,-0.44,-0.628,2.49,2.0,,18.615,19.305,91.56
2025-08-14T23:34:39.924Z,3,GR86-036-98,-32.9,-0.452,-0.632,2.49,2.0,,17.305,18.435,
2025-08-14T23:34:39.967Z,3,GR86-036-98,-34.4,-0.421,-0.686,2.49,2.0,,14.91,16.055,
2025-08-14T23:34:40.011Z,3,GR86-036-98,-35.6,-0.407,-0.685,2.49,2.0,,13.795,14.68,
2025-08-14T23:34:40.054Z,3,GR86-036-98,-36.9,-0.383,-0.705,2.49,2.0,4845.0,12.955,13.915,
2025-08-14T23:34:40.099Z,3,GR86-036-98,-38.0,-0.381,-0.736,2.49,2.0,,12.59,13.52,88.9
2025-08-14T23:34:40.142Z,3,GR86-036-98,-38.2,-0.355,-0.717,2.49,2.0,,12.055,12.835,
2025-08-14T23:34:40.185Z,3,GR86-036-98,-38.2,-0.361,-0.731,2.49,2.0,,11.52,12.5,
2025-08-14T23:34:40.228Z,3,GR86-036-98,-38.2,-0.346,-0.729,2.49,2.0,,10.345,11.155,
2025-08-14T23:34:40.271Z,3,GR86-036-98,-38.2,-0.334,-0.716,2.49,2.0,4723.0,8.09,8.91,
2025-08-14T23:34:40.314Z,3,GR86-036-98,-38.2,-0.267,-0.725,2.49,2.0,,3.28,3.725,86.52
2025-08-14T23:34:40.358Z,3,GR86-036-98,-39.1,-0.176,-0.719,2.49,2.0,,0.0,0.0,
2025-08-14T23:34:40.401Z,3,GR86-036-98,-44.6,-0.175,-0.711,2.47,2.0,,0.0,0.0,
2025-08-14T23:34:40.444Z,3,GR86-036-98,-53.2,-0.175,-0.754,2.49,2.0,,0.0,0.0,
2025-08-14T23:34:40.489Z,3,GR86-036-98,-62.8,-0.172,-0.808,2.49,2.0,4613.0,0.0,0.0,
2025-08-14T23:34:40.532Z,3,GR86-036-98,-63.5,-0.173,-0.8320000000000001,2.49,2.0,,0.0,0.0,84.36
2025-08-14T23:34:40.575Z,3,GR86-036-98,-63.5,-0.171,-0.8190000000000001,2.48,2.0,,0.0,0.0,
2025-08-14T23:34:40.618Z,3,GR86-036-98,-60.0,-0.17,-0.8290000000000001,2.49,2.0,,0.0,0.0,
2025-08-14T23:34:40.661Z,3,GR86-036-98,-54.900000000000006,-0.17,-0.786,2.49,2.0,,0.0,0.0,
2025-08-14T23:34:40.704Z,3,GR86-036-98,-51.2,-0.165,-0.789,2.49,2.0,4583.0,0.0,0.0,
2025-08-14T23:34:40.748Z,3,GR86-036-98,-48.3,-0.155,-0.772,2.49,2.0,,0.0,0.0,83.23
2025-08-14T23:34:40.791Z,3,GR86-036-98,-48.0,-0.157,-0.774,2.49,2.0,,0.0,0.0,
2025-08-14T23:34:40.877Z,3,GR86-036-98,-48.0,-0.155,-0.76,2.49,2.0,,0.0,0.0,
2025-08-14T23:34:40.920Z,3,GR86-036-98,-47.8,-0.159,-0.761,2.49,2.0,4534.0,0.0,0.0,
2025-08-14T23:34:40.963Z,3,GR86-036-98,-47.5,-0.158,-0.765,2.47,2.0,,0.0,0.0,82.56
2025-08-14T23:34:41.008Z,3,GR86-036-98,-47.1,-0.156,-0.714,2.49,2.0,,0.0,0.0,
2025-08-14T23:34:41.052Z,3,GR86-036-98,-46.7,-0.15,-0.707,2.49,2.0,,0.0,0.0,
2025-08-14T23:34:41.095Z,3,GR86-036-98,-46.3,-0.155,-0.672,2.5,2.0,,0.0,0.0,
2025-08-14T23:34:41.138Z,3,GR86-036-98,-46.1,-0.144,-0.678,2.49,2.0,4482.0,0.0,0.0,
2025-08-14T23:34:41.181Z,3,GR86-036-98,-46.1,-0.153,-0.659,2.49,2.0,,0.0,0.0,81.51
2025-08-14T23:34:41.224Z,3,GR86-036-98,-46.1,-0.15,-0.645,2.49,2.0,,0.0,0.0,
2025-08-14T23:34:41.311Z,3,GR86-036-98,-46.1,-0.153,-0.624,2.49,2.0,,0.0,0.0,
2025-08-14T23:34:41.354Z,3,GR86-036-98,-46.1,-0.151,-0.651,2.49,2.0,4427.0,0.0,0.0,
2025-08-14T23:34:41.399Z,3,GR86-036-98,-46.1,-0.153,-0.645,2.49,2.0,,0.0,0.0,79.4
2025-08-14T23:34:41.442Z,3,GR86-036-98,-46.1,-0.146,-0.643,2.49,2.0,,0.0,0.0,
2025-08-14T23:34:41.485Z,3,GR86-036-98,-46.1,-0.146,-0.645,2.49,2.0,,0.0,0.0,
2025-08-14T23:34:41.528Z,3,GR86-036-98,-46.1,-0.138,-0.637,2.75,2.0,,0.0,0.0,
2025-08-14T23:34:41.571Z,3,GR86-036-98,-46.1,-0.148,-0.659,3.9,2.0,4370.0,0.0,0.0,
2025-08-14T23:34:41.614Z,3,GR86-036-98,-46.5,-0.142,-0.641,4.54,2.0,,0.0,0.0,78.52
2025-08-14T23:34:41.657Z,3,GR86-036-98,-46.6,-0.154,-0.664,9.06,2.0,,0.0,0.0,
2025-08-14T23:34:41.700Z,3,GR86-036-98,-46.6,-0.141,-0.648,18.96,2.0,,0.0,0.0,
2025-08-14T23:34:41.743Z,3,GR86-036-98,-46.6,-0.136,-0.645,20.8,2.0,,0.0,0.0,
2025-08-14T23:34:41.789Z,3,GR86-036-98,-46.6,-0.098,-0.663,24.29,2.0,4315.0,0.0,0.0,
2025-08-14T23:34:41.832Z,3,GR86-036-98,-46.6,-0.109,-0.623,28.1,2.0,,0.0,0.0,77.59
2025-08-14T23:34:41.875Z,3,GR86-036-98,-46.6,-0.066,-0.651,32.35,2.0,,0.0,0.0,
2025-08-14T23:34:41.918Z,3,GR86-036-98,-46.6,-0.069,-0.649,36.61,2.0,,0.0,0.0,
2025-08-14T23:34:41.961Z,3,GR86-036-98,-46.6,0.23,-0.607,37.34,2.0,,0.0,0.0,
2025-08-14T23:34:42.004Z,3,GR86-036-98,-46.6,0.352,-0.639,37.38,2.0,4667.0,0.0,0.0,
2025-08-14T23:34:42.048Z,3,GR86-036-98,-46.3,0.26,-0.586,44.46,2.0,,0.0,0.0,76.83
2025-08-14T23:34:42.091Z,3,GR86-036-98,-46.3,0.169,-0.62,52.97,2.0,,0.0,0.0,
2025-08-14T23:34:42.134Z,3,GR86-036-98,-46.3,0.141,-0.611,59.9,2.0,,0.0,0.0,
2025-08-14T23:34:42.177Z,3,GR86-036-98,-46.3,0.173,-0.5750000000000001,73.62,2.0,,0.0,0.0,
2025-08-14T23:34:42.220Z,3,GR86-036-98,-46.3,0.255,-0.62,96.33,2.0,4541.0,0.0,0.0,
2025-08-14T23:34:42.263Z,3,GR86-036-98,-49.3,0.302,-0.614,99.65,2.0,,0.0,0.0,77.47
2025-08-14T23:34:42.308Z,3,GR86-036-98,-61.0,0.285,-0.635,99.74,2.0,,0.0,0.0,
2025-08-14T23:34:42.351Z,3,GR86-036-98,-67.8,0.243,-0.672,99.74,2.0,,0.0,0.0,
2025-08-14T23:34:42.394Z,3,GR86-036-98,-70.2,0.21,-0.726,99.74,2.0,,0.0,0.0,
2025-08-14T23:34:42.438Z,3,GR86-036-98,-70.2,0.2,-0.763,99.74,2.0,4618.0,0.0,0.0,
2025-08-14T23:34:42.481Z,3,GR86-036-98,-68.4,0.204,-0.796,99.74,2.0,,0.0,0.0,79.05
2025-08-14T23:34:42.524Z,3,GR86-036-98,-59.1,0.235,-0.764,99.75,2.0,,0.0,0.0,
2025-08-14T23:34:42.611Z,3,GR86-036-98,-45.8,0.244,-0.751,99.06,2.0,,0.0,0.0,
2025-08-14T23:34:42.654Z,3,GR86-036-98,-45.8,0.227,-0.762,50.32,2.0,4809.0,0.0,0.0,
2025-08-14T23:34:42.699Z,3,GR86-036-98,-48.400000000000006,0.246,-0.8250000000000001,32.21,2.0,,0.0,0.0,81.17
2025-08-14T23:34:42.742Z,3,GR86-036-98,-52.3,0.246,-0.8320000000000001,26.33,2.0,,0.0,0.0,
2025-08-14T23:34:42.785Z,3,GR86-036-98,-52.900000000000006,0.226,-0.843,24.23,2.0,,0.0,0.0,
2025-08-14T23:34:42.828Z,3,GR86-036-98,-51.900000000000006,0.143,-0.858,22.38,2.0,,0.0,0.0,
2025-08-14T23:34:42.871Z,3,GR86-036-98,-45.1,0.108,-0.8290000000000001,22.12,2.0,4881.0,0.0,0.0,
2025-08-14T23:34:42.914Z,3,GR86-036-98,-40.400000000000006,0.076,-0.805,22.03,2.0,,0.0,0.0,83.06
2025-08-14T23:34:42.959Z,3,GR86-036-98,-39.6,0.094,-0.781,21.98,2.0,,0.0,0.0,
2025-08-14T23:34:43.002Z,3,GR86-036-98,-39.6,0.092,-0.77,21.95,2.0,,0.0,0.0,
2025-08-14T23:34:43.045Z,3,GR86-036-98,-39.6,0.111,-0.726,21.67,2.0,,0.0,0.0,
2025-08-14T23:34:43.088Z,3,GR86-036-98,-39.6,0.097,-0.733,4.08,2.0,4875.0,0.0,0.0,
2025-08-14T23:34:43.131Z,3,GR86-036-98,-39.6,0.049,-0.6960000000000001,4.05,2.0,,0.0,0.0,84.47
2025-08-14T23:34:43.174Z,3,GR86-036-98,-39.6,-0.11,-0.671,3.97,2.0,,0.0,0.0,
2025-08-14T23:34:43.217Z,3,GR86-036-98,-39.6,-0.075,-0.623,3.81,2.0,,0.0,0.0,
2025-08-14T23:34:43.260Z,3,GR86-036-98,-39.6,-0.276,-0.619,3.5500000000000003,2.0,,0.0,0.0,
2025-08-14T23:34:43.303Z,3,GR86-036-98,-39.6,-0.277,-0.511,3.24,2.0,4653.0,0.0,0.0,
2025-08-14T23:34:43.348Z,3,GR86-036-98,-39.6,-0.136,-0.587,2.81,2.0,,0.0,0.0,85.09
2025-08-14T23:34:43.391Z,3,GR86-036-98,-39.6,-0.096,-0.5640000000000001,2.69,2.0,,0.0,0.0,
2025-08-14T23:34:43.434Z,3,GR86-036-98,-39.6,-0.12,-0.5690000000000001,2.62,2.0,,0.0,0.0,
2025-08-14T23:34:43.477Z,3,GR86-036-98,-39.900000000000006,-0.165,-0.62,2.56,2.0,,0.0,0.0,
2025-08-14T23:34:43.520Z,3,GR86-036-98,-43.1,-0.195,-0.61,2.54,2.0,4747.0,2.075,2.075,
2025-08-14T23:34:43.563Z,3,GR86-036-98,-46.0,-0.188,-0.64,2.52,2.0,,2.4250000000000003,2.275,84.26
2025-08-14T23:34:43.608Z,3,GR86-036-98,-48.900000000000006,-0.177,-0.6990000000000001,2.49,2.0,,2.455,2.395,
2025-08-14T23:34:43.651Z,3,GR86-036-98,-49.7,-0.181,-0.706,2.49,2.0,,2.67,2.5500000000000003,
2025-08-14T23:34:43.694Z,3,GR86-036-98,-50.0,-0.199,-0.733,2.49,2.0,,2.73,2.76,
2025-08-14T23:34:43.738Z,3,GR86-036-98,-50.2,-0.201,-0.735,2.47,2.0,4648.0,0.0,0.0,
2025-08-14T23:34:43.781Z,3,GR86-036-98,-50.5,-0.179,-0.77,2.47,2.0,,0.0,0.0,84.01
2025-08-14T23:34:43.824Z,3,GR86-036-98,-51.0,-0.162,-0.778,2.47,2.0,,0.0,0.0,
2025-08-14T23:34:43.867Z,3,GR86-036-98,-51.3,-0.157,-0.808,5.9,2.0,,0.0,0.0,
2025-08-14T23:34:43.910Z,3,GR86-036-98,-51.3,-0.158,-0.8200000000000001,6.99,2.0,,0.0,0.0,
2025-08-14T23:34:43.953Z,3,GR86-036-98,-51.5,-0.165,-0.835,18.79,2.0,4561.0,0.0,0.0,
2025-08-14T23:34:43.996Z,3,GR86-036-98,-51.8,-0.167,-0.84,20.14,2.0,,0.0,0.0,82.10000000000001
2025-08-14T23:34:44.039Z,3,GR86-036-98,-51.8,-0.148,-0.834,24.18,2.0,,0.0,0.0,
2025-08-14T23:34:44.082Z,3,GR86-036-98,-51.8,-0.104,-0.8280000000000001,26.57,2.0,,0.0,0.0,
2025-08-14T23:34:44.125Z,3,GR86-036-98,-51.8,-0.111,-0.8220000000000001,28.9,2.0,,0.0,0.0,
2025-08-14T23:34:44.168Z,3,GR86-036-98,-51.8,-0.096,-0.876,36.57,2.0,4492.0,0.0,0.0,
2025-08-14T23:34:44.211Z,3,GR86-036-98,-50.0,0.177,-0.799,38.6,2.0,,0.0,0.0,81.14
2025-08-14T23:34:44.254Z,3,GR86-036-98,-47.6,0.334,-0.8190000000000001,41.93,2.0,,0.0,0.0,
2025-08-14T23:34:44.299Z,3,GR86-036-98,-45.900000000000006,0.302,-0.808,50.78,2.0,,0.0,0.0,
2025-08-14T23:34:44.342Z,3,GR86-036-98,-43.900000000000006,0.234,-0.751,63.65,2.0,,0.0,0.0,
2025-08-14T23:34:44.385Z,3,GR86-036-98,-41.5,0.194,-0.77,85.81,2.0,4725.0,0.0,0.0,
2025-08-14T23:34:44.428Z,3,GR86-036-98,-38.3,0.233,-0.716,99.73,2.0,,0.0,0.0,81.0
2025-08-14T23:34:44.471Z,3,GR86-036-98,-36.5,0.278,-0.6930000000000001,99.73,2.0,,0.0,0.0,
2025-08-14T23:34:44.514Z,3,GR86-036-98,-34.7,0.274,-0.664,99.74,2.0,,0.0,0.0,
2025-08-14T23:34:44.558Z,3,GR86-036-98,-32.800000000000004,0.281,-0.595,99.73,2.0,,0.0,0.0,
2025-08-14T23:34:44.601Z,3,GR86-036-98,-29.9,0.275,-0.5710000000000001,99.75,2.0,4824.0,0.0,0.0,
2025-08-14T23:34:44.644Z,3,GR86-036-98,-26.3,0.267,-0.538,99.73,2.0,,0.0,0.0,82.24
2025-08-14T23:34:44.689Z,3,GR86-036-98,-19.8,0.263,-0.47,99.72,2.0,,0.0,0.0,
2025-08-14T23:34:44.732Z,3,GR86-036-98,-14.7,0.269,-0.404,99.74,2.0,,0.0,0.0,
2025-08-14T23:34:44.775Z,3,GR86-036-98,-8.8,0.279,-0.347,99.75,2.0,,0.0,0.0,
2025-08-14T23:34:44.818Z,3,GR86-036-98,-2.3000000000000003,0.283,-0.272,99.75,2.0,4926.0,0.0,0.0,
2025-08-14T23:34:44.861Z,3,GR86-036-98,4.3,0.288,-0.203,99.74,2.0,,0.0,0.0,83.24
2025-08-14T23:34:44.904Z,3,GR86-036-98,10.3,0.276,-0.111,99.75,2.0,,0.0,0.0,
2025-08-14T23:34:44.991Z,3,GR86-036-98,18.2,0.267,0.023,99.73,2.0,,0.0,0.0,
2025-08-14T23:34:45.034Z,3,GR86-036-98,25.1,0.272,0.194,99.75,2.0,5023.0,0.0,0.0,
2025-08-14T23:34:45.121Z,3,GR86-036-98,27.200000000000003,0.272,0.258,99.76,2.0,,0.0,0.0,85.28
2025-08-14T23:34:45.209Z,3,GR86-036-98,29.6,0.271,0.369,99.74,2.0,,0.0,0.0,
2025-08-14T23:34:45.252Z,3,GR86-036-98,29.9,0.281,0.482,99.76,2.0,5141.0,0.0,0.0,
2025-08-14T23:34:45.295Z,3,GR86-036-98,29.8,0.274,0.505,99.76,2.0,,0.0,0.0,87.26
2025-08-14T23:34:45.338Z,3,GR86-036-98,29.9,0.288,0.527,99.74,2.0,,0.0,0.0,
2025-08-14T23:34:45.381Z,3,GR86-036-98,29.9,0.278,0.546,99.75,2.0,,0.0,0.0,
2025-08-14T23:34:45.424Z,3,GR86-036-98,29.8,0.285,0.556,99.76,2.0,,0.0,0.0,
2025-08-14T23:34:45.468Z,3,GR86-036-98,29.9,0.269,0.528,99.76,2.0,5256.0,0.0,0.0,
2025-08-14T23:34:45.511Z,3,GR86-036-98,29.1,0.274,0.528,99.74,2.0,,0.0,0.0,89.15
2025-08-14T23:34:45.554Z,3,GR86-036-98,27.3,0.281,0.501,99.74,2.0,,0.0,0.0,
2025-08-14T23:34:45.599Z,3,GR86-036-98,25.6,0.272,0.497,99.78,2.0,,0.0,0.0,
2025-08-14T23:34:45.642Z,3,GR86-036-98,24.1,0.279,0.473,99.74,2.0,,0.0,0.0,
2025-08-14T23:34:45.685Z,3,GR86-036-98,22.5,0.269,0.458,99.76,2.0,5359.0,0.0,0.0,
2025-08-14T23:34:45.728Z,3,GR86-036-98,19.200000000000003,0.28,0.42,99.75,2.0,,0.0,0.0,90.99
2025-08-14T23:34:45.771Z,3,GR86-036-98,15.7,0.274,0.376,99.74,2.0,,0.0,0.0,
2025-08-14T23:34:45.814Z,3,GR86-036-98,11.3,0.276,0.352,99.76,2.0,,0.0,0.0,
2025-08-14T23:34:45.857Z,3,GR86-036-98,6.5,0.279,0.278,99.74,2.0,,0.0,0.0,
2025-08-14T23:34:45.900Z,3,GR86-036-98,1.6,0.278,0.242,99.77,2.0,5455.0,0.0,0.0,
2025-08-14T23:34:45.943Z,3,GR86-036-98,-3.6,0.277,0.154,99.76,2.0,,0.0,0.0,92.8
2025-08-14T23:34:45.989Z,3,GR86-036-98,-11.1,0.263,0.059,99.77,2.0,,0.0,0.0,
2025-08-14T23:34:46.032Z,3,GR86-036-98,-15.3,0.282,-0.02,99.77,2.0,,0.0,0.0,
2025-08-14T23:34:46.075Z,3,GR86-036-98,-18.3,0.265,-0.097,99.75,2.0,,0.0,0.0,
2025-08-14T23:34:46.118Z,3,GR86-036-98,-20.700000000000003,0.269,-0.159,99.79,2.0,5572.0,0.0,0.0,
2025-08-14T23:34:46.161Z,3,GR86-036-98,-22.4,0.253,-0.231,99.75,2.0,,0.0,0.0,94.63
2025-08-14T23:34:46.204Z,3,GR86-036-98,-23.3,0.258,-0.284,99.76,2.0,,0.0,0.0,
2025-08-14T23:34:46.248Z,3,GR86-036-98,-23.5,0.262,-0.377,99.78,2.0,,0.0,0.0,
2025-08-14T23:34:46.291Z,3,GR86-036-98,-23.6,0.244,-0.416,99.77,2.0,,0.0,0.0,
2025-08-14T23:34:46.334Z,3,GR86-036-98,-23.6,0.256,-0.472,99.77,2.0,5668.0,0.0,0.0,
2025-08-14T23:34:46.377Z,3,GR86-036-98,-23.700000000000003,0.27,-0.495,99.76,2.0,,0.0,0.0,96.56
2025-08-14T23:34:46.420Z,3,GR86-036-98,-23.700000000000003,0.258,-0.523,99.77,2.0,,0.0,0.0,
2025-08-14T23:34:46.463Z,3,GR86-036-98,-23.700000000000003,0.263,-0.517,99.76,2.0,,0.0,0.0,
2025-08-14T23:34:46.508Z,3,GR86-036-98,-23.8,0.243,-0.521,99.76,2.0,,0.0,0.0,
2025-08-14T23:34:46.551Z,3,GR86-036-98,-23.8,0.24,-0.534,99.77,2.0,5808.0,0.0,0.0,
2025-08-14T23:34:46.594Z,3,GR86-036-98,-23.9,0.261,-0.517,99.78,2.0,,0.0,0.0,100.23
2025-08-14T23:34:46.638Z,3,GR86-036-98,-23.9,0.237,-0.546,99.77,2.0,,0.0,0.0,
2025-08-14T23:34:46.681Z,3,GR86-036-98,-23.9,0.266,-0.558,99.76,2.0,,0.0,0.0,
2025-08-14T23:34:46.724Z,3,GR86-036-98,-23.9,0.232,-0.578,99.74,2.0,,0.0,0.0,
2025-08-14T23:34:46.768Z,3,GR86-036-98,-23.9,0.234,-0.608,99.77,2.0,5919.0,0.0,0.0,
2025-08-14T23:34:46.811Z,3,GR86-036-98,-23.9,0.269,-0.629,99.76,2.0,,0.0,0.0,102.03
2025-08-14T23:34:46.854Z,3,GR86-036-98,-23.9,0.236,-0.591,99.76,2.0,,0.0,0.0,
2025-08-14T23:34:46.899Z,3,GR86-036-98,-23.9,0.254,-0.63,99.77,2.0,,0.0,0.0,
2025-08-14T23:34:46.942Z,3,GR86-036-98,-23.8,0.25,-0.558,99.78,2.0,,0.0,0.0,
2025-08-14T23:34:46.985Z,3,GR86-036-98,-23.8,0.25,-0.553,99.77,2.0,6031.0,0.0,0.0,
2025-08-14T23:34:47.028Z,3,GR86-036-98,-23.200000000000003,0.26,-0.517,99.79,2.0,,0.0,0.0,103.95
2025-08-14T23:34:47.071Z,3,GR86-036-98,-21.5,0.256,-0.483,99.77,2.0,,0.0,0.0,
2025-08-14T23:34:47.114Z,3,GR86-036-98,-19.200000000000003,0.236,-0.473,99.78,2.0,,0.0,0.0,
2025-08-14T23:34:47.159Z,3,GR86-036-98,-16.5,0.259,-0.449,99.77,2.0,,0.0,0.0,
2025-08-14T23:34:47.202Z,3,GR86-036-98,-13.7,0.244,-0.386,99.73,2.0,6217.0,0.0,0.0,
2025-08-14T23:34:47.245Z,3,GR86-036-98,-11.8,0.26,-0.382,99.74,2.0,,0.0,0.0,105.67
2025-08-14T23:34:47.289Z,3,GR86-036-98,-9.6,0.263,-0.344,99.77,2.0,,0.0,0.0,
2025-08-14T23:34:47.332Z,3,GR86-036-98,-7.4,0.259,-0.297,99.76,2.0,,0.0,0.0,
2025-08-14T23:34:47.375Z,3,GR86-036-98,-5.300000000000001,0.264,-0.286,99.77,2.0,,0.0,0.0,
2025-08-14T23:34:47.418Z,3,GR86-036-98,-3.5,0.279,-0.225,99.77,2.0,6314.0,0.0,0.0,
2025-08-14T23:34:47.461Z,3,GR86-036-98,-2.4000000000000004,0.26,-0.196,99.79,2.0,,0.0,0.0,107.51
2025-08-14T23:34:47.504Z,3,GR86-036-98,-1.4,0.257,-0.151,99.78,2.0,,0.0,0.0,
2025-08-14T23:34:47.548Z,3,GR86-036-98,-0.1,0.261,-0.091,99.76,2.0,,0.0,0.0,
2025-08-14T23:34:47.591Z,3,GR86-036-98,0.7000000000000001,0.264,-0.051,99.78,2.0,,0.0,0.0,
2025-08-14T23:34:47.634Z,3,GR86-036-98,1.8,0.259,-0.048,99.77,2.0,6407.0,0.0,0.0,
2025-08-14T23:34:47.677Z,3,GR86-036-98,3.7,0.283,0.008,99.78,2.0,,0.0,0.0,109.38
2025-08-14T23:34:47.720Z,3,GR86-036-98,6.4,0.221,0.015,99.77,2.0,,0.0,0.0,
2025-08-14T23:34:47.763Z,3,GR86-036-98,8.9,-0.087,0.084,99.78,3.0,,0.0,0.0,
2025-08-14T23:34:47.808Z,3,GR86-036-98,11.7,0.381,0.122,99.77,3.0,,0.0,0.0,
2025-08-14T23:34:47.851Z,3,GR86-036-98,13.8,0.456,0.106,99.78,3.0,6049.0,0.0,0.0,
2025-08-14T23:34:47.894Z,3,GR86-036-98,15.2,0.37,0.186,99.78,3.0,,0.0,0.0,111.23
2025-08-14T23:34:47.938Z,3,GR86-036-98,16.1,0.136,0.285,99.77,3.0,,0.0,0.0,
2025-08-14T23:34:47.981Z,3,GR86-036-98,17.0,0.107,0.254,99.78,3.0,,0.0,0.0,
2025-08-14T23:34:48.024Z,3,GR86-036-98,17.8,0.168,0.343,99.78,3.0,,0.0,0.0,
2025-08-14T23:34:48.067Z,3,GR86-036-98,18.9,0.249,0.372,99.79,3.0,5267.0,0.0,0.0,
2025-08-14T23:34:48.111Z,3,GR86-036-98,19.0,0.23,0.417,99.79,3.0,,0.0,0.0,112.69
2025-08-14T23:34:48.154Z,3,GR86-036-98,19.0,0.189,0.45,99.79,3.0,,0.0,0.0,
2025-08-14T23:34:48.199Z,3,GR86-036-98,19.0,0.188,0.459,99.77,3.0,,0.0,0.0,
2025-08-14T23:34:48.242Z,3,GR86-036-98,19.1,0.222,0.479,99.77,3.0,,0.0,0.0,
2025-08-14T23:34:48.285Z,3,GR86-036-98,19.200000000000003,0.218,0.483,99.78,3.0,5390.0,0.0,0.0,
2025-08-14T23:34:48.328Z,3,GR86-036-98,19.200000000000003,0.197,0.499,99.78,3.0,,0.0,0.0,114.27
2025-08-14T23:34:48.371Z,3,GR86-036-98,19.200000000000003,0.209,0.544,99.78,3.0,,0.0,0.0,
2025-08-14T23:34:48.458Z,3,GR86-036-98,19.200000000000003,0.234,0.53,99.77,3.0,,0.0,0.0,
2025-08-14T23:34:48.501Z,3,GR86-036-98,19.200000000000003,0.213,0.54,99.78,3.0,5479.0,0.0,0.0,
2025-08-14T23:34:48.544Z,3,GR86-036-98,19.200000000000003,0.226,0.49,99.79,3.0,,0.0,0.0,115.61
2025-08-14T23:34:48.589Z,3,GR86-036-98,19.1,0.215,0.491,99.78,3.0,,0.0,0.0,
2025-08-14T23:34:48.632Z,3,GR86-036-98,19.200000000000003,0.187,0.511,99.78,3.0,,0.0,0.0,
2025-08-14T23:34:48.675Z,3,GR86-036-98,19.1,0.231,0.505,99.78,3.0,,0.0,0.0,
2025-08-14T23:34:48.718Z,3,GR86-036-98,18.0,0.234,0.46,99.78,3.0,5541.0,0.0,0.0,
2025-08-14T23:34:48.761Z,3,GR86-036-98,16.7,0.197,0.456,99.77,3.0,,0.0,0.0,117.02
2025-08-14T23:34:48.804Z,3,GR86-036-98,15.0,0.216,0.43,99.78,3.0,,0.0,0.0,
2025-08-14T23:34:48.848Z,3,GR86-036-98,12.8,0.222,0.38,99.77,3.0,,0.0,0.0,
2025-08-14T23:34:48.891Z,3,GR86-036-98,11.3,0.222,0.339,99.78,3.0,,0.0,0.0,
2025-08-14T23:34:48.934Z,3,GR86-036-98,9.7,0.201,0.338,99.77,3.0,5581.0,0.0,0.0,
2025-08-14T23:34:48.978Z,3,GR86-036-98,7.7,0.229,0.274,99.79,3.0,,0.0,0.0,118.34
2025-08-14T23:34:49.021Z,3,GR86-036-98,5.6000000000000005,0.212,0.232,99.77,3.0,,0.0,0.0,
2025-08-14T23:34:49.064Z,3,GR86-036-98,3.7,0.2,0.207,99.77,3.0,,0.0,0.0,
2025-08-14T23:34:49.108Z,3,GR86-036-98,0.4,0.194,0.141,99.77,3.0,,0.0,0.0,
2025-08-14T23:34:49.151Z,3,GR86-036-98,-1.9,0.218,0.073,99.77,3.0,5650.0,0.0,0.0,
2025-08-14T23:34:49.194Z,3,GR86-036-98,-4.5,0.218,0.019,99.78,3.0,,0.0,0.0,121.0
2025-08-14T23:34:49.238Z,3,GR86-036-98,-7.1000000000000005,0.194,-0.025,99.78,3.0,,0.0,0.0,
2025-08-14T23:34:49.281Z,3,GR86-036-98,-9.7,0.207,-0.102,99.78,3.0,,0.0,0.0,
2025-08-14T23:34:49.324Z,3,GR86-036-98,-11.7,0.203,-0.165,99.78,3.0,,0.0,0.0,
2025-08-14T23:34:49.368Z,3,GR86-036-98,-13.9,0.207,-0.234,99.79,3.0,5716.0,0.0,0.0,
2025-08-14T23:34:49.411Z,3,GR86-036-98,-14.5,0.185,-0.283,99.78,3.0,,0.0,0.0,122.27
2025-08-14T23:34:49.454Z,3,GR86-036-98,-14.7,0.193,-0.334,99.79,3.0,,0.0,0.0,
2025-08-14T23:34:49.499Z,3,GR86-036-98,-14.7,0.2,-0.382,99.78,3.0,,0.0,0.0,
2025-08-14T23:34:49.542Z,3,GR86-036-98,-14.8,0.18,-0.39,99.76,3.0,,0.0,0.0,
2025-08-14T23:34:49.585Z,3,GR86-036-98,-14.9,0.172,-0.427,99.78,3.0,5782.0,0.0,0.0,
2025-08-14T23:34:49.628Z,3,GR86-036-98,-15.0,0.173,-0.447,99.78,3.0,,0.0,0.0,123.6
2025-08-14T23:34:49.671Z,3,GR86-036-98,-15.3,0.205,-0.502,99.78,3.0,,0.0,0.0,
2025-08-14T23:34:49.714Z,3,GR86-036-98,-15.4,0.187,-0.482,99.77,3.0,,0.0,0.0,
2025-08-14T23:34:49.757Z,3,GR86-036-98,-15.5,0.165,-0.515,99.77,3.0,,0.0,0.0,
2025-08-14T23:34:49.800Z,3,GR86-036-98,-15.5,0.194,-0.544,99.77,3.0,5911.0,0.0,0.0,
2025-08-14T23:34:49.843Z,3,GR86-036-98,-15.7,0.194,-0.515,99.77,3.0,,0.0,0.0,124.83
2025-08-14T23:34:49.888Z,3,GR86-036-98,-15.7,0.2,-0.548,99.77,3.0,,0.0,0.0,
2025-08-14T23:34:49.931Z,3,GR86-036-98,-15.7,0.175,-0.514,99.77,3.0,,0.0,0.0,
2025-08-14T23:34:50.017Z,3,GR86-036-98,-15.7,0.204,-0.504,99.76,3.0,5973.0,0.0,0.0,
2025-08-14T23:34:50.060Z,3,GR86-036-98,-15.8,0.189,-0.47,99.75,3.0,,0.0,0.0,126.13
2025-08-14T23:34:50.103Z,3,GR86-036-98,-15.7,0.171,-0.476,99.76,3.0,,0.0,0.0,
2025-08-14T23:34:50.148Z,3,GR86-036-98,-15.8,0.175,-0.458,99.77,3.0,,0.0,0.0,
2025-08-14T23:34:50.191Z,3,GR86-036-98,-15.8,0.193,-0.469,99.78,3.0,,0.0,0.0,
2025-08-14T23:34:50.234Z,3,GR86-036-98,-15.8,0.203,-0.421,99.77,3.0,6028.0,0.0,0.0,
2025-08-14T23:34:50.277Z,3,GR86-036-98,-14.9,0.18,-0.411,99.77,3.0,,0.0,0.0,127.34
2025-08-14T23:34:50.320Z,3,GR86-036-98,-14.5,0.176,-0.413,99.77,3.0,,0.0,0.0,
2025-08-14T23:34:50.363Z,3,GR86-036-98,-14.3,0.204,-0.383,99.77,3.0,,0.0,0.0,
2025-08-14T23:34:50.408Z,3,GR86-036-98,-14.3,0.193,-0.369,99.78,3.0,,0.0,0.0,
2025-08-14T23:34:50.451Z,3,GR86-036-98,-14.3,0.206,-0.347,99.78,3.0,6079.0,0.0,0.0,
2025-08-14T23:34:50.494Z,3,GR86-036-98,-13.4,0.193,-0.35,99.79,3.0,,0.0,0.0,128.57
2025-08-14T23:34:50.538Z,3,GR86-036-98,-12.0,0.187,-0.365,99.8,3.0,,0.0,0.0,
2025-08-14T23:34:50.581Z,3,GR86-036-98,-9.8,0.202,-0.336,99.78,3.0,,0.0,0.0,
2025-08-14T23:34:50.624Z,3,GR86-036-98,-8.1,0.209,-0.31,99.79,3.0,,0.0,0.0,
2025-08-14T23:34:50.668Z,3,GR86-036-98,-4.3,0.205,-0.258,99.77,3.0,6140.0,0.0,0.0,
2025-08-14T23:34:50.711Z,3,GR86-036-98,-2.9000000000000004,0.198,-0.247,99.77,3.0,,0.0,0.0,129.8
2025-08-14T23:34:50.754Z,3,GR86-036-98,-1.7000000000000002,0.172,-0.213,99.78,3.0,,0.0,0.0,
2025-08-14T23:34:50.799Z,3,GR86-036-98,0.0,0.199,-0.153,61.78,3.0,,0.0,0.0,
2025-08-14T23:34:50.842Z,3,GR86-036-98,1.7000000000000002,0.215,-0.114,38.92,3.0,,0.0,0.0,
2025-08-14T23:34:50.885Z,3,GR86-036-98,3.5,0.199,-0.113,35.02,3.0,6190.0,0.0,0.0,
2025-08-14T23:34:50.928Z,3,GR86-036-98,5.0,0.149,-0.034,32.69,3.0,,0.0,0.0,131.17000000000002
2025-08-14T23:34:50.971Z,3,GR86-036-98,5.6000000000000005,0.101,-0.009,31.63,3.0,,0.0,0.0,
2025-08-14T23:34:51.014Z,3,GR86-036-98,6.4,0.092,0.07,26.69,3.0,,0.0,0.0,
2025-08-14T23:34:51.059Z,3,GR86-036-98,7.2,0.117,0.095,22.85,3.0,,0.0,0.0,
2025-08-14T23:34:51.102Z,3,GR86-036-98,8.0,0.093,0.116,13.1,3.0,6195.0,0.0,0.0,
2025-08-14T23:34:51.145Z,3,GR86-036-98,8.700000000000001,0.052,0.169,3.5700000000000003,3.0,,0.0,0.0,132.51
2025-08-14T23:34:51.188Z,3,GR86-036-98,10.2,-0.065,0.211,3.83,3.0,,0.0,0.0,
2025-08-14T23:34:51.232Z,3,GR86-036-98,10.6,-0.075,0.276,3.7,3.0,,0.0,0.0,
2025-08-14T23:34:51.275Z,3,GR86-036-98,10.7,-0.205,0.257,3.5,3.0,,0.0,0.0,
2025-08-14T23:34:51.318Z,3,GR86-036-98,10.8,-0.278,0.268,3.26,3.0,6168.0,0.0,0.0,
2025-08-14T23:34:51.361Z,3,GR86-036-98,10.8,-0.183,0.317,2.99,3.0,,0.0,0.0,133.55
2025-08-14T23:34:51.404Z,3,GR86-036-98,10.8,-0.105,0.31,2.81,3.0,,0.0,0.0,
2025-08-14T23:34:51.491Z,3,GR86-036-98,12.2,-0.161,0.335,2.5500000000000003,3.0,,2.395,2.305,
2025-08-14T23:34:51.534Z,3,GR86-036-98,12.3,-0.158,0.342,2.53,3.0,6131.0,2.64,2.4250000000000003,
2025-08-14T23:34:51.577Z,3,GR86-036-98,12.3,-0.159,0.361,2.49,3.0,,2.73,2.58,133.74
2025-08-14T23:34:51.620Z,3,GR86-036-98,12.4,-0.177,0.356,2.49,3.0,,3.13,3.13,
2025-08-14T23:34:51.708Z,3,GR86-036-98,13.3,-0.179,0.362,2.48,3.0,,4.93,4.775,
2025-08-14T23:34:51.751Z,3,GR86-036-98,13.5,-0.201,0.346,2.46,3.0,6042.0,5.16,5.0200000000000005,
2025-08-14T23:34:51.794Z,3,GR86-036-98,13.5,-0.22,0.386,2.47,3.0,,5.22,5.22,131.17000000000002
2025-08-14T23:34:51.838Z,3,GR86-036-98,13.6,-0.22,0.406,2.46,3.0,,5.675,5.555,
2025-08-14T23:34:51.881Z,3,GR86-036-98,13.6,-0.206,0.38,2.47,3.0,,5.555,5.555,
2025-08-14T23:34:51.924Z,3,GR86-036-98,13.6,-0.213,0.372,2.48,3.0,,5.585,5.555,
2025-08-14T23:34:51.967Z,3,GR86-036-98,13.6,-0.211,0.351,2.47,3.0,5950.0,5.555,5.555,
2025-08-14T23:34:52.010Z,3,GR86-036-98,13.6,-0.228,0.374,2.47,3.0,,5.34,5.525,129.56
2025-08-14T23:34:52.053Z,3,GR86-036-98,13.6,-0.215,0.366,2.46,3.0,,2.73,3.16,
2025-08-14T23:34:52.142Z,3,GR86-036-98,13.6,-0.145,0.324,2.46,3.0,,0.0,0.0,
2025-08-14T23:34:52.185Z,3,GR86-036-98,12.8,-0.137,0.322,4.74,3.0,5880.0,0.0,0.0,
2025-08-14T23:34:52.228Z,3,GR86-036-98,11.9,-0.128,0.295,22.49,3.0,,0.0,0.0,128.1
2025-08-14T23:34:52.271Z,3,GR86-036-98,11.5,-0.132,0.278,25.35,3.0,,0.0,0.0,
2025-08-14T23:34:52.314Z,3,GR86-036-98,10.9,-0.074,0.227,29.89,3.0,,0.0,0.0,
2025-08-14T23:34:52.358Z,3,GR86-036-98,10.2,-0.07,0.225,31.53,3.0,,0.0,0.0,
2025-08-14T23:34:52.401Z,3,GR86-036-98,7.6,0.081,0.214,32.730000000000004,3.0,6015.0,0.0,0.0,
2025-08-14T23:34:52.444Z,3,GR86-036-98,4.0,0.262,0.142,31.98,3.0,,0.0,0.0,127.18
2025-08-14T23:34:52.489Z,3,GR86-036-98,-0.3,0.112,0.091,36.1,3.0,,0.0,0.0,
2025-08-14T23:34:52.532Z,3,GR86-036-98,-4.0,0.018,0.09,44.62,3.0,,0.0,0.0,
2025-08-14T23:34:52.575Z,3,GR86-036-98,-6.0,0.089,0.013,51.64,3.0,,0.0,0.0,
2025-08-14T23:34:52.618Z,3,GR86-036-98,-9.3,0.156,-0.043,53.870000000000005,3.0,5936.0,0.0,0.0,
2025-08-14T23:34:52.661Z,3,GR86-036-98,-12.0,0.187,-0.108,59.49,3.0,,0.0,0.0,126.89
2025-08-14T23:34:52.704Z,3,GR86-036-98,-14.6,0.184,-0.139,78.08,3.0,,0.0,0.0,
2025-08-14T23:34:52.748Z,3,GR86-036-98,-17.8,0.176,-0.23,99.45,3.0,,0.0,0.0,
2025-08-14T23:34:52.791Z,3,GR86-036-98,-18.4,0.193,-0.304,99.78,3.0,,0.0,0.0,
2025-08-14T23:34:52.877Z,3,GR86-036-98,-18.5,0.178,-0.419,99.74,3.0,6023.0,0.0,0.0,127.54
2025-08-14T23:34:52.921Z,3,GR86-036-98,-18.5,0.2,-0.46,99.76,3.0,,0.0,0.0,
2025-08-14T23:34:53.009Z,3,GR86-036-98,-18.5,0.188,-0.505,99.77,3.0,,0.0,0.0,
2025-08-14T23:34:53.052Z,3,GR86-036-98,-18.6,0.17,-0.5650000000000001,99.75,3.0,6098.0,0.0,0.0,
2025-08-14T23:34:53.095Z,3,GR86-036-98,-18.5,0.175,-0.5710000000000001,99.74,3.0,,0.0,0.0,128.67000000000002
2025-08-14T23:34:53.138Z,3,GR86-036-98,-18.6,0.201,-0.5650000000000001,99.73,3.0,,0.0,0.0,
2025-08-14T23:34:53.181Z,3,GR86-036-98,-18.6,0.183,-0.58,99.75,3.0,,0.0,0.0,
2025-08-14T23:34:53.224Z,3,GR86-036-98,-18.6,0.168,-0.585,99.77,3.0,,0.0,0.0,
2025-08-14T23:34:53.268Z,3,GR86-036-98,-18.6,0.162,-0.5730000000000001,99.74,3.0,6160.0,0.0,0.0,
2025-08-14T23:34:53.311Z,3,GR86-036-98,-18.6,0.168,-0.585,99.74,3.0,,0.0,0.0,129.98
2025-08-14T23:34:53.354Z,3,GR86-036-98,-18.6,0.198,-0.546,99.76,3.0,,0.0,0.0,
2025-08-14T23:34:53.399Z,3,GR86-036-98,-17.900000000000002,0.196,-0.541,99.76,3.0,,0.0,0.0,
2025-08-14T23:34:53.442Z,3,GR86-036-98,-17.0,0.158,-0.521,99.76,3.0,,0.0,0.0,
2025-08-14T23:34:53.485Z,3,GR86-036-98,-16.400000000000002,0.174,-0.504,99.78,3.0,6219.0,0.0,0.0,
2025-08-14T23:34:53.528Z,3,GR86-036-98,-14.9,0.17,-0.477,99.76,3.0,,0.0,0.0,131.26
2025-08-14T23:34:53.571Z,3,GR86-036-98,-12.7,0.137,-0.477,99.77,3.0,,0.0,0.0,
2025-08-14T23:34:53.614Z,3,GR86-036-98,-11.3,-0.135,-0.421,99.76,4.0,,0.0,0.0,
2025-08-14T23:34:53.657Z,3,GR86-036-98,-9.8,0.03,-0.388,99.77,4.0,,0.0,0.0,
2025-08-14T23:34:53.700Z,3,GR86-036-98,-7.9,0.449,-0.404,99.74,4.0,6199.0,0.0,0.0,
2025-08-14T23:34:53.743Z,3,GR86-036-98,-6.800000000000001,0.25,-0.362,99.77,4.0,,0.0,0.0,132.5
2025-08-14T23:34:53.788Z,3,GR86-036-98,-6.0,0.065,-0.279,99.77,4.0,,0.0,0.0,
2025-08-14T23:34:53.832Z,3,GR86-036-98,-5.0,0.138,-0.307,99.77,4.0,,0.0,0.0,
2025-08-14T23:34:53.875Z,3,GR86-036-98,-2.4000000000000004,0.193,-0.195,99.76,4.0,,0.0,0.0,
2025-08-14T23:34:53.918Z,3,GR86-036-98,-0.2,0.175,-0.164,99.76,4.0,5193.0,0.0,0.0,
2025-08-14T23:34:53.961Z,3,GR86-036-98,1.7000000000000002,0.129,-0.157,99.76,4.0,,0.0,0.0,133.47
2025-08-14T23:34:54.004Z,3,GR86-036-98,3.0,0.151,-0.068,99.75,4.0,,0.0,0.0,
2025-08-14T23:34:54.091Z,3,GR86-036-98,5.4,0.171,-0.045,99.75,4.0,,0.0,0.0,
2025-08-14T23:34:54.134Z,3,GR86-036-98,6.800000000000001,0.16,0.113,54.54,4.0,5327.0,0.0,0.0,
2025-08-14T23:34:54.177Z,3,GR86-036-98,7.800000000000001,0.155,0.121,35.62,4.0,,0.0,0.0,134.71
2025-08-14T23:34:54.220Z,3,GR86-036-98,8.700000000000001,0.148,0.154,27.0,4.0,,0.0,0.0,
2025-08-14T23:34:54.263Z,3,GR86-036-98,9.7,0.124,0.224,22.83,4.0,,0.0,0.0,
2025-08-14T23:34:54.308Z,3,GR86-036-98,10.6,0.065,0.251,22.34,4.0,,0.0,0.0,
2025-08-14T23:34:54.351Z,3,GR86-036-98,10.7,0.051,0.32,11.39,4.0,5388.0,0.0,0.0,
2025-08-14T23:34:54.394Z,3,GR86-036-98,10.9,0.045,0.32,3.64,4.0,,0.0,0.0,137.02
2025-08-14T23:34:54.438Z,3,GR86-036-98,11.2,0.018,0.301,4.08,4.0,,0.0,0.0,
2025-08-14T23:34:54.481Z,3,GR86-036-98,11.2,-0.099,0.345,4.01,4.0,,0.0,0.0,
2025-08-14T23:34:54.524Z,3,GR86-036-98,11.2,-0.051,0.365,3.9,4.0,,0.0,0.0,
2025-08-14T23:34:54.568Z,3,GR86-036-98,11.3,-0.252,0.355,3.5700000000000003,4.0,5367.0,0.0,0.0,
2025-08-14T23:34:54.611Z,3,GR86-036-98,11.3,-0.096,0.383,3.28,4.0,,0.0,0.0,137.6
2025-08-14T23:34:54.654Z,3,GR86-036-98,11.3,-0.094,0.329,2.9,4.0,,0.0,0.0,
2025-08-14T23:34:54.742Z,3,GR86-036-98,11.3,-0.131,0.344,2.72,4.0,,0.0,0.0,
2025-08-14T23:34:54.785Z,3,GR86-036-98,11.3,-0.123,0.348,2.56,4.0,5224.0,0.0,0.0,
2025-08-14T23:34:54.828Z,3,GR86-036-98,11.3,-0.122,0.371,2.52,4.0,,0.0,0.0,136.91
2025-08-14T23:34:54.871Z,3,GR86-036-98,11.3,-0.142,0.32,2.49,4.0,,0.0,0.0,
2025-08-14T23:34:54.914Z,3,GR86-036-98,11.2,-0.154,0.283,2.46,4.0,,2.485,2.455,
2025-08-14T23:34:54.959Z,3,GR86-036-98,11.1,-0.149,0.274,2.46,4.0,,3.465,3.22,
2025-08-14T23:34:55.002Z,3,GR86-036-98,10.9,-0.164,0.263,2.43,4.0,5221.0,4.15,3.905,
2025-08-14T23:34:55.045Z,3,GR86-036-98,10.8,-0.176,0.242,2.43,4.0,,4.595,4.53,136.03
2025-08-14T23:34:55.088Z,3,GR86-036-98,10.2,-0.201,0.227,2.43,4.0,,5.555,5.555,
2025-08-14T23:34:55.131Z,3,GR86-036-98,9.9,-0.208,0.165,2.44,4.0,,6.24,6.09,
2025-08-14T23:34:55.174Z,3,GR86-036-98,9.4,-0.222,0.154,2.44,4.0,,6.745,6.425,
2025-08-14T23:34:55.217Z,3,GR86-036-98,8.700000000000001,-0.213,0.171,2.43,4.0,5171.0,7.08,6.96,
2025-08-14T23:34:55.260Z,3,GR86-036-98,8.1,-0.232,0.14,2.43,4.0,,7.295,7.265000000000001,134.67000000000002
2025-08-14T23:34:55.303Z,3,GR86-036-98,7.6,-0.218,0.11,2.43,4.0,,7.555,7.43,
2025-08-14T23:34:55.348Z,3,GR86-036-98,6.1000000000000005,-0.232,0.091,2.44,4.0,,7.645,7.675,
2025-08-14T23:34:55.391Z,3,GR86-036-98,4.7,-0.241,0.062,2.46,4.0,,7.645,7.555,
2025-08-14T23:34:55.434Z,3,GR86-036-98,3.3000000000000003,-0.232,0.073,2.46,4.0,5107.0,7.95,7.675,
2025-08-14T23:34:55.477Z,3,GR86-036-98,2.2,-0.23,0.052,2.44,4.0,,7.95,7.83,133.17000000000002
2025-08-14T23:34:55.520Z,3,GR86-036-98,0.6000000000000001,-0.228,0.006,2.45,4.0,,7.92,7.83,
2025-08-14T23:34:55.563Z,3,GR86-036-98,-1.6,-0.252,-0.018,2.44,4.0,,7.95,7.675,
2025-08-14T23:34:55.607Z,3,GR86-036-98,-5.300000000000001,-0.242,-0.077,2.46,4.0,,7.705,7.675,
2025-08-14T23:34:55.650Z,3,GR86-036-98,-7.4,-0.248,-0.083,2.46,4.0,5048.0,7.98,7.86,
2025-08-14T23:34:55.693Z,3,GR86-036-98,-9.0,-0.251,-0.132,2.46,4.0,,7.98,8.01,131.59
2025-08-14T23:34:55.738Z,3,GR86-036-98,-10.4,-0.248,-0.207,2.46,4.0,,7.83,7.83,
2025-08-14T23:34:55.781Z,3,GR86-036-98,-11.6,-0.25,-0.222,2.46,4.0,,7.95,7.83,
2025-08-14T23:34:55.824Z,3,GR86-036-98,-12.3,-0.254,-0.26,2.46,4.0,,7.98,8.01,
2025-08-14T23:34:55.867Z,3,GR86-036-98,-12.9,-0.27,-0.311,2.45,4.0,4982.0,7.98,8.01,
2025-08-14T23:34:55.910Z,3,GR86-036-98,-13.0,-0.255,-0.372,2.46,4.0,,7.98,8.01,129.91
2025-08-14T23:34:55.953Z,3,GR86-036-98,-13.0,-0.262,-0.421,2.46,4.0,,7.495,7.675,
2025-08-14T23:34:56.042Z,3,GR86-036-98,-13.0,-0.256,-0.423,2.46,4.0,,3.615,4.03,
2025-08-14T23:34:56.128Z,3,GR86-036-98,-13.0,-0.15,-0.504,2.46,4.0,4913.0,0.0,0.0,128.13
2025-08-14T23:34:56.171Z,3,GR86-036-98,-13.0,-0.129,-0.509,5.84,4.0,,0.0,0.0,
2025-08-14T23:34:56.214Z,3,GR86-036-98,-13.0,-0.15,-0.517,11.3,4.0,,0.0,0.0,
2025-08-14T23:34:56.258Z,3,GR86-036-98,-13.1,-0.147,-0.526,20.69,4.0,,0.0,0.0,
2025-08-14T23:34:56.344Z,3,GR86-036-98,-13.1,-0.128,-0.502,20.56,4.0,4884.0,0.0,0.0,127.15
2025-08-14T23:34:56.389Z,3,GR86-036-98,-13.1,-0.092,-0.498,26.88,4.0,,0.0,0.0,
2025-08-14T23:34:56.475Z,3,GR86-036-98,-13.1,-0.039,-0.506,29.62,4.0,,0.0,0.0,
2025-08-14T23:34:56.518Z,3,GR86-036-98,-13.1,0.114,-0.457,32.24,4.0,4905.0,0.0,0.0,
2025-08-14T23:34:56.561Z,3,GR86-036-98,-13.1,0.015,-0.435,38.54,4.0,,0.0,0.0,126.48
2025-08-14T23:34:56.604Z,3,GR86-036-98,-13.1,0.057,-0.406,43.04,4.0,,0.0,0.0,
2025-08-14T23:34:56.648Z,3,GR86-036-98,-12.1,0.178,-0.397,44.3,4.0,,0.0,0.0,
2025-08-14T23:34:56.691Z,3,GR86-036-98,-10.6,0.127,-0.327,51.41,4.0,,0.0,0.0,
2025-08-14T23:34:56.734Z,3,GR86-036-98,-8.700000000000001,0.102,-0.307,64.03,4.0,4917.0,0.0,0.0,
2025-08-14T23:34:56.777Z,3,GR86-036-98,-6.5,0.122,-0.292,88.75,4.0,,0.0,0.0,126.01
2025-08-14T23:34:56.821Z,3,GR86-036-98,-4.1000000000000005,0.158,-0.234,99.56,4.0,,0.0,0.0,
2025-08-14T23:34:56.864Z,3,GR86-036-98,-1.3,0.174,-0.174,99.73,4.0,,0.0,0.0,
2025-08-14T23:34:56.908Z,3,GR86-036-98,2.7,0.151,-0.11,99.74,4.0,,0.0,0.0,
2025-08-14T23:34:56.951Z,3,GR86-036-98,5.1000000000000005,0.16,-0.095,99.73,4.0,5012.0,0.0,0.0,
2025-08-14T23:34:56.994Z,3,GR86-036-98,7.2,0.175,-0.049,99.74,4.0,,0.0,0.0,127.52
2025-08-14T23:34:57.038Z,3,GR86-036-98,9.2,0.169,0.029,99.75,4.0,,0.0,0.0,
2025-08-14T23:34:57.081Z,3,GR86-036-98,11.2,0.16,0.084,99.74,4.0,,0.0,0.0,
2025-08-14T23:34:57.124Z,3,GR86-036-98,12.7,0.156,0.114,99.74,4.0,,0.0,0.0,
2025-08-14T23:34:57.211Z,3,GR86-036-98,14.7,0.167,0.207,99.74,4.0,5065.0,0.0,0.0,128.76
2025-08-14T23:34:57.254Z,3,GR86-036-98,16.5,0.166,0.342,99.74,4.0,,0.0,0.0,
2025-08-14T23:34:57.299Z,3,GR86-036-98,16.5,0.172,0.359,99.74,4.0,,0.0,0.0,
2025-08-14T23:34:57.342Z,3,GR86-036-98,16.5,0.16,0.389,99.77,4.0,,0.0,0.0,
2025-08-14T23:34:57.385Z,3,GR86-036-98,16.5,0.17,0.441,67.71000000000001,4.0,5109.0,0.0,0.0,
2025-08-14T23:34:57.428Z,3,GR86-036-98,16.5,0.165,0.483,41.78,4.0,,0.0,0.0,129.99
2025-08-14T23:34:57.471Z,3,GR86-036-98,16.5,0.171,0.493,39.39,4.0,,0.0,0.0,
2025-08-14T23:34:57.557Z,3,GR86-036-98,16.5,0.157,0.47,37.39,4.0,,0.0,0.0,
2025-08-14T23:34:57.600Z,3,GR86-036-98,15.7,0.131,0.431,28.5,4.0,5183.0,0.0,0.0,
2025-08-14T23:34:57.643Z,3,GR86-036-98,14.7,0.128,0.41,26.16,4.0,,0.0,0.0,131.32
2025-08-14T23:34:57.688Z,3,GR86-036-98,13.2,0.096,0.373,25.67,4.0,,0.0,0.0,
2025-08-14T23:34:57.731Z,3,GR86-036-98,12.3,0.078,0.333,25.61,4.0,,0.0,0.0,
2025-08-14T23:34:57.774Z,3,GR86-036-98,11.5,0.057,0.327,25.43,4.0,,0.0,0.0,
2025-08-14T23:34:57.817Z,3,GR86-036-98,10.7,0.085,0.311,24.76,4.0,5195.0,0.0,0.0,
2025-08-14T23:34:57.860Z,3,GR86-036-98,9.6,0.083,0.289,24.18,4.0,,0.0,0.0,132.16
2025-08-14T23:34:57.903Z,3,GR86-036-98,8.200000000000001,0.064,0.217,23.63,4.0,,0.0,0.0,
2025-08-14T23:34:57.948Z,3,GR86-036-98,6.300000000000001,0.061,0.194,25.8,4.0,,0.0,0.0,
2025-08-14T23:34:57.991Z,3,GR86-036-98,5.2,0.03,0.147,29.5,4.0,,0.0,0.0,
2025-08-14T23:34:58.034Z,3,GR86-036-98,4.4,0.059,0.134,35.72,4.0,5213.0,0.0,0.0,
2025-08-14T23:34:58.077Z,3,GR86-036-98,3.4000000000000004,0.092,0.104,39.93,4.0,,0.0,0.0,132.86
2025-08-14T23:34:58.120Z,3,GR86-036-98,2.0,0.094,0.048,42.06,4.0,,0.0,0.0,
2025-08-14T23:34:58.163Z,3,GR86-036-98,0.0,0.115,0.032,41.5,4.0,,0.0,0.0,
2025-08-14T23:34:58.208Z,3,GR86-036-98,-3.8,0.109,-0.036,41.25,4.0,,0.0,0.0,
2025-08-14T23:34:58.251Z,3,GR86-036-98,-6.5,0.114,-0.053,40.95,4.0,5272.0,0.0,0.0,
2025-08-14T23:34:58.294Z,3,GR86-036-98,-8.8,0.134,-0.09,39.5,4.0,,0.0,0.0,133.39
2025-08-14T23:34:58.338Z,3,GR86-036-98,-10.7,0.113,-0.166,35.480000000000004,4.0,,0.0,0.0,
2025-08-14T23:34:58.381Z,3,GR86-036-98,-12.0,0.099,-0.213,30.35,4.0,,0.0,0.0,
2025-08-14T23:34:58.424Z,3,GR86-036-98,-12.9,0.107,-0.239,27.43,4.0,,0.0,0.0,
2025-08-14T23:34:58.468Z,3,GR86-036-98,-13.2,0.068,-0.307,24.4,4.0,5299.0,0.0,0.0,
2025-08-14T23:34:58.511Z,3,GR86-036-98,-13.3,0.08,-0.324,23.0,4.0,,0.0,0.0,134.11
2025-08-14T23:34:58.554Z,3,GR86-036-98,-13.3,0.059,-0.386,21.73,4.0,,0.0,0.0,
2025-08-14T23:34:58.599Z,3,GR86-036-98,-13.3,0.018,-0.418,21.56,4.0,,0.0,0.0,
2025-08-14T23:34:58.642Z,3,GR86-036-98,-13.4,0.015,-0.426,4.11,4.0,,0.0,0.0,
2025-08-14T23:34:58.685Z,3,GR86-036-98,-13.4,0.041,-0.428,3.8,4.0,5296.0,0.0,0.0,
2025-08-14T23:34:58.728Z,3,GR86-036-98,-13.4,-0.086,-0.417,3.74,4.0,,0.0,0.0,135.01
2025-08-14T23:34:58.771Z,3,GR86-036-98,-13.4,-0.067,-0.405,3.63,4.0,,0.0,0.0,
2025-08-14T23:34:58.814Z,3,GR86-036-98,-13.4,-0.325,-0.444,3.48,4.0,,0.0,0.0,
2025-08-14T23:34:58.859Z,3,GR86-036-98,-13.4,-0.2,-0.399,3.27,4.0,,0.0,0.0,
2025-08-14T23:34:58.902Z,3,GR86-036-98,-13.4,-0.074,-0.418,3.0,4.0,5062.0,0.0,0.0,
2025-08-14T23:34:58.945Z,3,GR86-036-98,-13.4,-0.111,-0.441,2.81,4.0,,0.0,0.0,135.6
2025-08-14T23:34:58.989Z,3,GR86-036-98,-13.4,-0.16,-0.409,2.65,4.0,,0.0,0.0,
2025-08-14T23:34:59.032Z,3,GR86-036-98,-13.4,-0.153,-0.45,2.59,4.0,,0.0,0.0,
2025-08-14T23:34:59.075Z,3,GR86-036-98,-13.3,-0.169,-0.412,2.5500000000000003,4.0,,0.0,0.0,
2025-08-14T23:34:59.118Z,3,GR86-036-98,-12.8,-0.125,-0.394,2.51,4.0,5163.0,0.0,0.0,
2025-08-14T23:34:59.161Z,3,GR86-036-98,-11.9,-0.144,-0.359,2.49,4.0,,0.0,0.0,135.18
2025-08-14T23:34:59.204Z,3,GR86-036-98,-10.9,-0.164,-0.355,2.46,4.0,,0.0,0.0,
2025-08-14T23:34:59.291Z,3,GR86-036-98,-7.2,-0.182,-0.297,2.46,4.0,,2.045,1.985,
2025-08-14T23:34:59.334Z,3,GR86-036-98,-5.6000000000000005,-0.147,-0.258,2.46,4.0,5148.0,2.4250000000000003,2.4250000000000003,
2025-08-14T23:34:59.377Z,3,GR86-036-98,-4.2,-0.15,-0.236,2.46,4.0,,2.73,2.76,134.27
2025-08-14T23:34:59.420Z,3,GR86-036-98,-3.0,-0.186,-0.211,2.44,4.0,,3.035,2.885,
2025-08-14T23:34:59.463Z,3,GR86-036-98,-2.1,-0.184,-0.168,2.44,4.0,,3.13,3.13,
2025-08-14T23:34:59.507Z,3,GR86-036-98,-1.1,-0.196,-0.111,2.46,4.0,,3.22,3.13,
2025-08-14T23:34:59.551Z,3,GR86-036-98,-0.4,-0.139,-0.077,2.46,4.0,5115.0,3.13,3.13,
2025-08-14T23:34:59.594Z,3,GR86-036-98,0.6000000000000001,-0.159,-0.044,2.45,4.0,,3.005,2.855,132.07
2025-08-14T23:34:59.638Z,3,GR86-036-98,1.8,-0.189,-0.018,2.45,4.0,,2.58,2.64,
2025-08-14T23:34:59.681Z,3,GR86-036-98,3.4000000000000004,-0.168,0.027,2.46,4.0,,0.0,0.0,
2025-08-14T23:34:59.724Z,3,GR86-036-98,5.1000000000000005,-0.107,0.058,2.46,4.0,,0.0,0.0,
2025-08-14T23:34:59.767Z,3,GR86-036-98,7.7,-0.112,0.124,2.46,4.0,5062.0,0.0,0.0,
2025-08-14T23:34:59.811Z,3,GR86-036-98,9.7,-0.129,0.129,3.35,4.0,,0.0,0.0,131.1
2025-08-14T23:34:59.854Z,3,GR86-036-98,11.7,-0.143,0.176,4.48,4.0,,0.0,0.0,
2025-08-14T23:34:59.899Z,3,GR86-036-98,13.7,-0.114,0.238,18.6,4.0,,0.0,0.0,
2025-08-14T23:34:59.942Z,3,GR86-036-98,15.4,-0.111,0.262,20.35,4.0,,0.0,0.0,
2025-08-14T23:34:59.985Z,3,GR86-036-98,16.7,-0.138,0.294,20.5,4.0,5035.0,0.0,0.0,
2025-08-14T23:35:00.028Z,3,GR86-036-98,18.4,-0.096,0.34,21.85,4.0,,0.0,0.0,130.47
2025-08-14T23:35:00.071Z,3,GR86-036-98,18.8,-0.058,0.406,24.01,4.0,,0.0,0.0,
2025-08-14T23:35:00.114Z,3,GR86-036-98,19.0,0.094,0.439,24.84,4.0,,0.0,0.0,
2025-08-14T23:35:00.158Z,3,GR86-036-98,19.0,0.183,0.46,25.69,4.0,,0.0,0.0,
2025-08-14T23:35:00.201Z,3,GR86-036-98,19.0,0.024,0.478,28.2,4.0,5078.0,0.0,0.0,
2025-08-14T23:35:00.244Z,3,GR86-036-98,19.0,0.007,0.49,32.17,4.0,,0.0,0.0,129.86
2025-08-14T23:35:00.289Z,3,GR86-036-98,19.0,0.104,0.504,36.18,4.0,,0.0,0.0,
2025-08-14T23:35:00.375Z,3,GR86-036-98,19.0,0.137,0.509,38.47,4.0,,0.0,0.0,
2025-08-14T23:35:00.418Z,3,GR86-036-98,19.0,0.091,0.493,51.9,4.0,5124.0,0.0,0.0,
2025-08-14T23:35:00.461Z,3,GR86-036-98,19.0,0.131,0.507,58.53,4.0,,0.0,0.0,129.97
2025-08-14T23:35:00.504Z,3,GR86-036-98,19.0,0.173,0.505,66.77,4.0,,0.0,0.0,
2025-08-14T23:35:00.548Z,3,GR86-036-98,17.3,0.185,0.503,89.37,4.0,,0.0,0.0,
2025-08-14T23:35:00.591Z,3,GR86-036-98,15.9,0.167,0.457,99.71,4.0,,0.0,0.0,
2025-08-14T23:35:00.634Z,3,GR86-036-98,14.5,0.154,0.438,99.73,4.0,5176.0,0.0,0.0,
2025-08-14T23:35:00.721Z,3,GR86-036-98,12.2,0.179,0.372,99.73,4.0,,0.0,0.0,130.63
2025-08-14T23:35:00.808Z,3,GR86-036-98,7.5,0.166,0.268,99.77,4.0,,0.0,0.0,
2025-08-14T23:35:00.895Z,3,GR86-036-98,2.2,0.175,0.217,99.74,4.0,5216.0,0.0,0.0,131.62
2025-08-14T23:35:00.938Z,3,GR86-036-98,-0.4,0.192,0.148,99.76,4.0,,0.0,0.0,
2025-08-14T23:35:01.024Z,3,GR86-036-98,-2.8000000000000003,0.153,0.086,99.78,4.0,,0.0,0.0,
2025-08-14T23:35:01.068Z,3,GR86-036-98,-8.200000000000001,0.124,-0.039,99.76,4.0,5269.0,0.0,0.0,
2025-08-14T23:35:01.111Z,3,GR86-036-98,-9.9,0.146,-0.071,99.76,4.0,,0.0,0.0,132.71
2025-08-14T23:35:01.154Z,3,GR86-036-98,-11.5,0.177,-0.149,99.33,4.0,,0.0,0.0,
2025-08-14T23:35:01.199Z,3,GR86-036-98,-12.8,0.158,-0.211,70.55,4.0,,0.0,0.0,
2025-08-14T23:35:01.242Z,3,GR86-036-98,-13.9,0.109,-0.268,57.68,4.0,,0.0,0.0,
2025-08-14T23:35:01.285Z,3,GR86-036-98,-14.4,0.134,-0.325,51.02,4.0,5314.0,0.0,0.0,
2025-08-14T23:35:01.328Z,3,GR86-036-98,-14.4,0.116,-0.372,40.85,4.0,,0.0,0.0,133.99
2025-08-14T23:35:01.371Z,3,GR86-036-98,-14.5,0.152,-0.384,35.36,4.0,,0.0,0.0,
2025-08-14T23:35:01.414Z,3,GR86-036-98,-14.5,0.124,-0.413,31.46,4.0,,0.0,0.0,
2025-08-14T23:35:01.457Z,3,GR86-036-98,-14.5,0.054,-0.448,29.86,4.0,,0.0,0.0,
2025-08-14T23:35:01.500Z,3,GR86-036-98,-14.5,0.062,-0.478,29.53,4.0,5344.0,0.0,0.0,
2025-08-14T23:35:01.589Z,3,GR86-036-98,-14.5,0.1,-0.492,29.15,4.0,,0.0,0.0,135.16
2025-08-14T23:35:01.632Z,3,GR86-036-98,-14.6,0.086,-0.506,28.86,4.0,,0.0,0.0,
2025-08-14T23:35:01.675Z,3,GR86-036-98,-14.6,0.071,-0.492,28.85,4.0,,0.0,0.0,
2025-08-14T23:35:01.718Z,3,GR86-036-98,-14.6,0.035,-0.482,28.74,4.0,5350.0,0.0,0.0,
2025-08-14T23:35:01.761Z,3,GR86-036-98,-14.6,0.057,-0.474,28.62,4.0,,0.0,0.0,136.14
2025-08-14T23:35:01.804Z,3,GR86-036-98,-14.7,0.094,-0.477,28.61,4.0,,0.0,0.0,
2025-08-14T23:35:01.848Z,3,GR86-036-98,-14.7,0.065,-0.487,28.64,4.0,,0.0,0.0,
2025-08-14T23:35:01.891Z,3,GR86-036-98,-14.7,0.096,-0.478,28.76,4.0,,0.0,0.0,
2025-08-14T23:35:01.934Z,3,GR86-036-98,-14.7,0.038,-0.457,28.89,4.0,5382.0,0.0,0.0,
2025-08-14T23:35:01.977Z,3,GR86-036-98,-14.8,0.037,-0.451,29.18,4.0,,0.0,0.0,136.81
2025-08-14T23:35:02.020Z,3,GR86-036-98,-14.8,0.067,-0.439,29.49,4.0,,0.0,0.0,
2025-08-14T23:35:02.063Z,3,GR86-036-98,-14.9,0.087,-0.434,29.74,4.0,,0.0,0.0,
2025-08-14T23:35:02.108Z,3,GR86-036-98,-14.0,0.095,-0.428,30.39,4.0,,0.0,0.0,
2025-08-14T23:35:02.151Z,3,GR86-036-98,-12.6,0.081,-0.383,30.75,4.0,5398.0,0.0,0.0,
2025-08-14T23:35:02.238Z,3,GR86-036-98,-11.1,0.048,-0.365,30.84,4.0,,0.0,0.0,137.9
2025-08-14T23:35:02.281Z,3,GR86-036-98,-8.1,0.094,-0.31,29.9,4.0,,0.0,0.0,
2025-08-14T23:35:02.368Z,3,GR86-036-98,-6.7,0.096,-0.279,29.37,4.0,5417.0,0.0,0.0,
2025-08-14T23:35:02.411Z,3,GR86-036-98,-3.7,0.085,-0.201,21.67,4.0,,0.0,0.0,138.47
2025-08-14T23:35:02.454Z,3,GR86-036-98,-2.0,0.028,-0.15,4.61,4.0,,0.0,0.0,
2025-08-14T23:35:02.499Z,3,GR86-036-98,0.2,0.033,-0.118,4.25,4.0,,0.0,0.0,
2025-08-14T23:35:02.542Z,3,GR86-036-98,2.2,-0.033,-0.066,4.11,4.0,,0.0,0.0,
2025-08-14T23:35:02.585Z,3,GR86-036-98,4.3,-0.068,0.008,3.93,4.0,5440.0,0.0,0.0,
2025-08-14T23:35:02.628Z,3,GR86-036-98,7.800000000000001,-0.285,0.025,3.5,4.0,,0.0,0.0,139.08
2025-08-14T23:35:02.671Z,3,GR86-036-98,9.6,-0.178,0.129,3.14,4.0,,0.0,0.0,
2025-08-14T23:35:02.714Z,3,GR86-036-98,10.8,-0.105,0.16,2.87,4.0,,0.0,0.0,
2025-08-14T23:35:02.759Z,3,GR86-036-98,11.3,-0.108,0.178,2.73,4.0,,0.0,0.0,
2025-08-14T23:35:02.802Z,3,GR86-036-98,12.2,-0.131,0.249,2.62,4.0,5317.0,0.0,0.0,
2025-08-14T23:35:02.845Z,3,GR86-036-98,13.5,-0.153,0.262,2.5500000000000003,4.0,,0.0,0.0,138.94
2025-08-14T23:35:02.888Z,3,GR86-036-98,15.2,-0.12,0.321,2.53,4.0,,2.73,2.58,
2025-08-14T23:35:02.931Z,3,GR86-036-98,15.6,-0.163,0.364,2.49,4.0,,3.065,2.825,
2025-08-14T23:35:02.974Z,3,GR86-036-98,15.7,-0.192,0.39,2.48,4.0,,3.465,3.31,
2025-08-14T23:35:03.060Z,3,GR86-036-98,16.1,-0.163,0.43,2.46,4.0,5290.0,3.815,3.845,137.97
2025-08-14T23:35:03.103Z,3,GR86-036-98,16.3,-0.209,0.472,2.44,4.0,,4.09,3.845,
2025-08-14T23:35:03.148Z,3,GR86-036-98,16.400000000000002,-0.182,0.502,2.43,4.0,,4.15,4.09,
2025-08-14T23:35:03.191Z,3,GR86-036-98,16.5,-0.212,0.543,2.43,4.0,,4.15,4.18,
2025-08-14T23:35:03.234Z,3,GR86-036-98,16.5,-0.179,0.541,2.43,4.0,5250.0,4.24,4.18,
2025-08-14T23:35:03.277Z,3,GR86-036-98,16.5,-0.161,0.528,2.44,4.0,,4.15,4.18,136.84
2025-08-14T23:35:03.320Z,3,GR86-036-98,16.5,-0.184,0.516,2.43,4.0,,3.97,3.905,
2025-08-14T23:35:03.363Z,3,GR86-036-98,16.5,-0.2,0.542,2.43,4.0,,4.15,3.905,
2025-08-14T23:35:03.407Z,3,GR86-036-98,16.5,-0.207,0.507,2.43,4.0,,4.03,4.03,
2025-08-14T23:35:03.451Z,3,GR86-036-98,16.5,-0.187,0.503,2.43,4.0,5206.0,3.935,4.0600000000000005,
2025-08-14T23:35:03.494Z,3,GR86-036-98,16.5,-0.143,0.476,2.44,4.0,,3.065,3.28,135.65
2025-08-14T23:35:03.538Z,3,GR86-036-98,16.5,-0.156,0.47,2.45,4.0,,0.0,0.0,
2025-08-14T23:35:03.581Z,3,GR86-036-98,16.5,-0.161,0.478,2.44,4.0,,0.0,0.0,
2025-08-14T23:35:03.624Z,3,GR86-036-98,16.400000000000002,-0.136,0.447,2.46,4.0,,0.0,0.0,
2025-08-14T23:35:03.667Z,3,GR86-036-98,14.9,-0.134,0.417,3.27,4.0,5155.0,0.0,0.0,
2025-08-14T23:35:03.711Z,3,GR86-036-98,13.5,-0.098,0.367,7.66,4.0,,0.0,0.0,134.33
2025-08-14T23:35:03.754Z,3,GR86-036-98,11.7,-0.128,0.342,12.13,4.0,,0.0,0.0,
2025-08-14T23:35:03.799Z,3,GR86-036-98,9.6,-0.156,0.308,17.85,4.0,,0.0,0.0,
2025-08-14T23:35:03.842Z,3,GR86-036-98,7.5,-0.102,0.269,20.86,4.0,,0.0,0.0,
2025-08-14T23:35:03.885Z,3,GR86-036-98,5.4,-0.041,0.204,21.13,4.0,5118.0,0.0,0.0,
2025-08-14T23:35:03.928Z,3,GR86-036-98,1.5,-0.045,0.149,24.19,4.0,,0.0,0.0,133.5
2025-08-14T23:35:03.971Z,3,GR86-036-98,-1.6,-0.073,0.082,25.3,4.0,,0.0,0.0,
2025-08-14T23:35:04.014Z,3,GR86-036-98,-4.4,0.036,0.054,25.56,4.0,,0.0,0.0,
2025-08-14T23:35:04.058Z,3,GR86-036-98,-6.800000000000001,0.218,-0.02,25.68,4.0,,0.0,0.0,
2025-08-14T23:35:04.101Z,3,GR86-036-98,-8.5,0.073,-0.097,28.06,4.0,5238.0,0.0,0.0,
2025-08-14T23:35:04.144Z,3,GR86-036-98,-10.0,-0.034,-0.115,31.99,4.0,,0.0,0.0,132.66
2025-08-14T23:35:04.189Z,3,GR86-036-98,-11.9,0.096,-0.236,34.22,4.0,,0.0,0.0,
2025-08-14T23:35:04.275Z,3,GR86-036-98,-13.3,0.093,-0.304,47.01,4.0,,0.0,0.0,
2025-08-14T23:35:04.318Z,3,GR86-036-98,-13.4,0.119,-0.361,57.8,4.0,5230.0,0.0,0.0,
2025-08-14T23:35:04.361Z,3,GR86-036-98,-13.5,0.11,-0.374,77.47,4.0,,0.0,0.0,132.4
2025-08-14T23:35:04.404Z,3,GR86-036-98,-13.5,0.106,-0.406,99.15,4.0,,0.0,0.0,
2025-08-14T23:35:04.448Z,3,GR86-036-98,-13.5,0.116,-0.416,99.73,4.0,,0.0,0.0,
2025-08-14T23:35:04.491Z,3,GR86-036-98,-13.5,0.135,-0.413,99.75,4.0,,0.0,0.0,
2025-08-14T23:35:04.534Z,3,GR86-036-98,-13.5,0.163,-0.427,99.75,4.0,5260.0,0.0,0.0,
2025-08-14T23:35:04.578Z,3,GR86-036-98,-13.5,0.157,-0.421,99.73,4.0,,0.0,0.0,132.84
2025-08-14T23:35:04.621Z,3,GR86-036-98,-13.5,0.115,-0.43,99.77,4.0,,0.0,0.0,
2025-08-14T23:35:04.664Z,3,GR86-036-98,-13.6,0.136,-0.459,99.78,4.0,,0.0,0.0,
2025-08-14T23:35:04.708Z,3,GR86-036-98,-13.6,0.12,-0.463,99.77,4.0,,0.0,0.0,
2025-08-14T23:35:04.751Z,3,GR86-036-98,-13.6,0.168,-0.457,99.74,4.0,5309.0,0.0,0.0,
2025-08-14T23:35:04.794Z,3,GR86-036-98,-13.6,0.164,-0.444,99.76,4.0,,0.0,0.0,134.79
2025-08-14T23:35:04.838Z,3,GR86-036-98,-13.7,0.131,-0.414,98.68,4.0,,0.0,0.0,
2025-08-14T23:35:04.881Z,3,GR86-036-98,-13.7,0.119,-0.427,75.62,4.0,,0.0,0.0,
2025-08-14T23:35:04.924Z,3,GR86-036-98,-13.6,0.166,-0.419,57.97,4.0,,0.0,0.0,
2025-08-14T23:35:04.968Z,3,GR86-036-98,-12.2,0.153,-0.395,40.93,4.0,5344.0,0.0,0.0,
2025-08-14T23:35:05.011Z,3,GR86-036-98,-11.7,0.16,-0.381,34.31,4.0,,0.0,0.0,135.85
2025-08-14T23:35:05.054Z,3,GR86-036-98,-11.3,0.129,-0.351,31.44,4.0,,0.0,0.0,
2025-08-14T23:35:05.100Z,3,GR86-036-98,-10.8,0.088,-0.333,30.28,4.0,,0.0,0.0,
2025-08-14T23:35:05.189Z,3,GR86-036-98,-7.2,0.059,-0.278,28.71,4.0,5384.0,0.0,0.0,
2025-08-14T23:35:05.232Z,3,GR86-036-98,-5.2,0.081,-0.266,27.77,4.0,,0.0,0.0,136.9
2025-08-14T23:35:05.275Z,3,GR86-036-98,-3.1,0.082,-0.217,25.89,4.0,,0.0,0.0,
2025-08-14T23:35:05.318Z,3,GR86-036-98,-0.9,0.066,-0.169,22.65,4.0,,0.0,0.0,
2025-08-14T23:35:05.361Z,3,GR86-036-98,0.9,0.047,-0.134,21.67,4.0,,0.0,0.0,
2025-08-14T23:35:05.448Z,3,GR86-036-98,3.9,0.022,-0.036,4.01,4.0,5399.0,0.0,0.0,137.77
2025-08-14T23:35:05.491Z,3,GR86-036-98,5.6000000000000005,-0.099,0.016,3.95,4.0,,0.0,0.0,
2025-08-14T23:35:05.534Z,3,GR86-036-98,7.300000000000001,-0.071,0.1,3.85,4.0,,0.0,0.0,
2025-08-14T23:35:05.578Z,3,GR86-036-98,8.6,-0.279,0.119,3.64,4.0,,0.0,0.0,
2025-08-14T23:35:05.621Z,3,GR86-036-98,9.6,-0.205,0.162,3.29,4.0,5158.0,0.0,0.0,
2025-08-14T23:35:05.664Z,3,GR86-036-98,10.5,-0.085,0.195,2.98,4.0,,0.0,0.0,138.33
2025-08-14T23:35:05.708Z,3,GR86-036-98,12.6,-0.12,0.239,2.72,4.0,,0.0,0.0,
2025-08-14T23:35:05.751Z,3,GR86-036-98,13.8,-0.161,0.309,2.61,4.0,,0.0,0.0,
2025-08-14T23:35:05.794Z,3,GR86-036-98,14.6,-0.151,0.317,2.56,4.0,,0.0,0.0,
2025-08-14T23:35:05.838Z,3,GR86-036-98,14.8,-0.13,0.372,2.53,4.0,5275.0,2.045,2.075,
2025-08-14T23:35:05.881Z,3,GR86-036-98,14.9,-0.139,0.388,2.49,4.0,,2.795,2.64,137.8
2025-08-14T23:35:05.924Z,3,GR86-036-98,14.9,-0.155,0.395,2.48,4.0,,3.935,3.785,
2025-08-14T23:35:05.968Z,3,GR86-036-98,14.9,-0.176,0.429,2.46,4.0,,5.965,5.7700000000000005,
2025-08-14T23:35:06.011Z,3,GR86-036-98,14.9,-0.199,0.442,2.45,4.0,,6.96,6.715,
2025-08-14T23:35:06.100Z,3,GR86-036-98,14.9,-0.216,0.468,2.44,4.0,5245.0,7.43,7.295,136.9
2025-08-14T23:35:06.143Z,3,GR86-036-98,14.9,-0.216,0.466,2.43,4.0,,8.575000000000001,8.67,
2025-08-14T23:35:06.188Z,3,GR86-036-98,14.9,-0.221,0.475,2.43,4.0,,8.805,9.035,
2025-08-14T23:35:06.232Z,3,GR86-036-98,14.9,-0.235,0.484,2.43,4.0,,8.88,8.700000000000001,
2025-08-14T23:35:06.275Z,3,GR86-036-98,14.9,-0.247,0.502,2.46,4.0,5187.0,8.805,8.76,
2025-08-14T23:35:06.318Z,3,GR86-036-98,14.9,-0.237,0.515,2.44,4.0,,8.85,9.035,135.43
2025-08-14T23:35:06.361Z,3,GR86-036-98,14.9,-0.232,0.495,2.45,4.0,,8.91,8.91,
2025-08-14T23:35:06.404Z,3,GR86-036-98,14.9,-0.237,0.482,2.44,4.0,,8.67,8.700000000000001,
2025-08-14T23:35:06.448Z,3,GR86-036-98,14.9,-0.23,0.479,2.46,4.0,,8.575000000000001,8.605,
2025-08-14T23:35:06.491Z,3,GR86-036-98,14.9,-0.253,0.501,2.46,4.0,5130.0,8.67,8.805,
2025-08-14T23:35:06.534Z,3,GR86-036-98,14.9,-0.235,0.5,2.45,4.0,,8.67,8.85,133.77
2025-08-14T23:35:06.577Z,3,GR86-036-98,14.9,-0.216,0.5,2.44,4.0,,8.575000000000001,8.575000000000001,
2025-08-14T23:35:06.620Z,3,GR86-036-98,14.9,-0.257,0.491,2.46,4.0,,8.425,8.635,
2025-08-14T23:35:06.663Z,3,GR86-036-98,14.9,-0.242,0.501,2.46,4.0,,8.395,8.700000000000001,
2025-08-14T23:35:06.707Z,3,GR86-036-98,14.9,-0.242,0.485,2.46,4.0,5067.0,8.545,8.67,
2025-08-14T23:35:06.750Z,3,GR86-036-98,14.9,-0.239,0.473,2.46,4.0,,8.395,8.700000000000001,132.13
2025-08-14T23:35:06.793Z,3,GR86-036-98,14.9,-0.228,0.438,2.46,4.0,,8.33,8.36,
2025-08-14T23:35:06.838Z,3,GR86-036-98,14.9,-0.255,0.431,2.46,4.0,,8.01,8.15,
2025-08-14T23:35:06.881Z,3,GR86-036-98,14.9,-0.216,0.42,2.46,4.0,,4.24,4.715,
2025-08-14T23:35:06.967Z,3,GR86-036-98,14.9,-0.134,0.412,2.46,4.0,5001.0,0.0,0.0,130.53
2025-08-14T23:35:07.011Z,3,GR86-036-98,14.7,-0.117,0.356,2.49,4.0,,0.0,0.0,
2025-08-14T23:35:07.054Z,3,GR86-036-98,14.1,-0.123,0.346,17.76,4.0,,0.0,0.0,
2025-08-14T23:35:07.099Z,3,GR86-036-98,13.0,-0.123,0.319,19.97,4.0,,0.0,0.0,
2025-08-14T23:35:07.142Z,3,GR86-036-98,11.3,-0.112,0.272,21.12,4.0,4960.0,0.0,0.0,
2025-08-14T23:35:07.185Z,3,GR86-036-98,8.700000000000001,-0.072,0.265,22.98,4.0,,0.0,0.0,129.09
2025-08-14T23:35:07.228Z,3,GR86-036-98,4.5,-0.067,0.21,26.37,4.0,,0.0,0.0,
2025-08-14T23:35:07.271Z,3,GR86-036-98,1.6,0.087,0.176,27.74,4.0,,0.0,0.0,
2025-08-14T23:35:07.314Z,3,GR86-036-98,-1.1,0.188,0.087,28.96,4.0,,0.0,0.0,
2025-08-14T23:35:07.358Z,3,GR86-036-98,-3.9,0.057,0.054,35.02,4.0,5004.0,0.0,0.0,
2025-08-14T23:35:07.444Z,3,GR86-036-98,-9.5,0.091,-0.076,43.43,4.0,,0.0,0.0,127.94
2025-08-14T23:35:07.489Z,3,GR86-036-98,-13.4,0.152,-0.158,44.56,4.0,,0.0,0.0,
2025-08-14T23:35:07.532Z,3,GR86-036-98,-15.4,0.123,-0.233,51.13,4.0,,0.0,0.0,
2025-08-14T23:35:07.575Z,3,GR86-036-98,-17.0,0.107,-0.295,57.93,4.0,4955.0,0.0,0.0,
2025-08-14T23:35:07.618Z,3,GR86-036-98,-17.7,0.104,-0.356,67.32000000000001,4.0,,0.0,0.0,128.4
2025-08-14T23:35:07.661Z,3,GR86-036-98,-17.8,0.145,-0.408,83.99,4.0,,0.0,0.0,
2025-08-14T23:35:07.704Z,3,GR86-036-98,-17.8,0.166,-0.446,99.88,4.0,,0.0,0.0,
2025-08-14T23:35:07.748Z,3,GR86-036-98,-17.8,0.154,-0.48,99.74,4.0,,0.0,0.0,
2025-08-14T23:35:07.791Z,3,GR86-036-98,-17.8,0.135,-0.488,99.74,4.0,5128.0,0.0,0.0,
2025-08-14T23:35:07.877Z,3,GR86-036-98,-17.8,0.14,-0.528,99.75,4.0,,0.0,0.0,129.37
2025-08-14T23:35:07.964Z,3,GR86-036-98,-17.900000000000002,0.131,-0.535,99.75,4.0,,0.0,0.0,
2025-08-14T23:35:08.052Z,3,GR86-036-98,-16.8,0.142,-0.492,99.74,4.0,5186.0,0.0,0.0,130.41
2025-08-14T23:35:08.095Z,3,GR86-036-98,-15.4,0.135,-0.473,99.78,4.0,,0.0,0.0,
2025-08-14T23:35:08.138Z,3,GR86-036-98,-13.7,0.151,-0.448,99.75,4.0,,0.0,0.0,
2025-08-14T23:35:08.181Z,3,GR86-036-98,-11.9,0.157,-0.426,99.75,4.0,,0.0,0.0,
2025-08-14T23:35:08.224Z,3,GR86-036-98,-10.3,0.147,-0.388,99.76,4.0,5227.0,0.0,0.0,
2025-08-14T23:35:08.268Z,3,GR86-036-98,-7.9,0.153,-0.328,64.65,4.0,,0.0,0.0,131.52
2025-08-14T23:35:08.311Z,3,GR86-036-98,-6.2,0.143,-0.314,53.32,4.0,,0.0,0.0,
2025-08-14T23:35:08.399Z,3,GR86-036-98,-3.9,0.141,-0.254,48.59,4.0,,0.0,0.0,
2025-08-14T23:35:08.442Z,3,GR86-036-98,1.4,0.155,-0.202,38.22,4.0,5274.0,0.0,0.0,
2025-08-14T23:35:08.485Z,3,GR86-036-98,3.7,0.12,-0.145,32.86,4.0,,0.0,0.0,132.58
2025-08-14T23:35:08.528Z,3,GR86-036-98,6.4,0.098,-0.066,28.2,4.0,,0.0,0.0,
2025-08-14T23:35:08.571Z,3,GR86-036-98,7.7,0.089,0.0,27.5,4.0,,0.0,0.0,
2025-08-14T23:35:08.614Z,3,GR86-036-98,8.700000000000001,0.078,0.064,26.76,4.0,,0.0,0.0,
2025-08-14T23:35:08.700Z,3,GR86-036-98,10.1,0.057,0.146,24.45,4.0,5268.0,0.0,0.0,133.94
2025-08-14T23:35:08.743Z,3,GR86-036-98,10.7,0.054,0.222,23.59,4.0,,0.0,0.0,
2025-08-14T23:35:08.789Z,3,GR86-036-98,11.3,0.045,0.256,21.89,4.0,,0.0,0.0,
2025-08-14T23:35:08.832Z,3,GR86-036-98,11.5,0.04,0.31,21.76,4.0,,0.0,0.0,
2025-08-14T23:35:08.875Z,3,GR86-036-98,11.5,0.062,0.305,21.73,4.0,5302.0,0.0,0.0,
2025-08-14T23:35:08.918Z,3,GR86-036-98,11.7,0.04,0.32,21.39,4.0,,0.0,0.0,134.93
2025-08-14T23:35:08.961Z,3,GR86-036-98,11.8,0.017,0.354,7.67,4.0,,0.0,0.0,
2025-08-14T23:35:09.004Z,3,GR86-036-98,12.0,0.029,0.361,5.73,4.0,,0.0,0.0,
2025-08-14T23:35:09.048Z,3,GR86-036-98,12.0,-0.05,0.377,3.99,4.0,,0.0,0.0,
2025-08-14T23:35:09.091Z,3,GR86-036-98,12.0,-0.054,0.388,3.88,4.0,5306.0,0.0,0.0,
2025-08-14T23:35:09.134Z,3,GR86-036-98,12.0,-0.123,0.376,3.65,4.0,,0.0,0.0,135.55
2025-08-14T23:35:09.177Z,3,GR86-036-98,12.1,-0.288,0.371,3.22,4.0,,0.0,0.0,
2025-08-14T23:35:09.220Z,3,GR86-036-98,12.1,-0.146,0.415,2.88,4.0,,0.0,0.0,
2025-08-14T23:35:09.263Z,3,GR86-036-98,12.1,-0.064,0.384,2.74,4.0,,0.0,0.0,
2025-08-14T23:35:09.351Z,3,GR86-036-98,12.1,-0.117,0.4,2.6,4.0,5130.0,0.0,0.0,135.86
2025-08-14T23:35:09.394Z,3,GR86-036-98,12.1,-0.126,0.319,2.5,4.0,,0.0,0.0,
2025-08-14T23:35:09.438Z,3,GR86-036-98,12.1,-0.125,0.358,2.49,4.0,,0.0,0.0,
2025-08-14T23:35:09.481Z,3,GR86-036-98,12.1,-0.12,0.334,2.46,4.0,,0.0,0.0,
2025-08-14T23:35:09.568Z,3,GR86-036-98,12.1,-0.115,0.297,2.46,4.0,5189.0,0.0,0.0,135.25
2025-08-14T23:35:09.611Z,3,GR86-036-98,12.1,-0.131,0.269,2.43,4.0,,0.0,0.0,
2025-08-14T23:35:09.654Z,3,GR86-036-98,12.1,-0.156,0.289,2.44,4.0,,0.0,0.0,
2025-08-14T23:35:09.699Z,3,GR86-036-98,12.1,-0.132,0.282,2.43,4.0,,0.0,0.0,
2025-08-14T23:35:09.742Z,3,GR86-036-98,12.1,-0.118,0.245,2.43,4.0,5159.0,0.0,0.0,
2025-08-14T23:35:09.785Z,3,GR86-036-98,12.1,-0.139,0.227,2.43,4.0,,0.0,0.0,134.42000000000002
2025-08-14T23:35:09.828Z,3,GR86-036-98,12.0,-0.137,0.194,2.43,4.0,,0.0,0.0,
2025-08-14T23:35:09.871Z,3,GR86-036-98,11.7,-0.156,0.224,2.43,4.0,,1.89,0.0,
2025-08-14T23:35:09.914Z,3,GR86-036-98,10.7,-0.146,0.216,2.43,4.0,,2.67,2.4250000000000003,
2025-08-14T23:35:10.002Z,3,GR86-036-98,10.2,-0.168,0.174,2.43,4.0,5132.0,3.465,3.13,132.82
2025-08-14T23:35:10.045Z,3,GR86-036-98,10.2,-0.167,0.19,2.43,4.0,,3.37,3.16,
2025-08-14T23:35:10.132Z,3,GR86-036-98,10.2,-0.179,0.172,2.44,4.0,,3.695,3.495,
2025-08-14T23:35:10.175Z,3,GR86-036-98,10.2,-0.161,0.155,2.43,4.0,5103.0,4.775,4.595,
2025-08-14T23:35:10.218Z,3,GR86-036-98,10.2,-0.197,0.153,2.44,4.0,,5.34,5.19,131.91
2025-08-14T23:35:10.261Z,3,GR86-036-98,10.2,-0.202,0.18,2.46,4.0,,5.9350000000000005,5.555,
2025-08-14T23:35:10.304Z,3,GR86-036-98,10.2,-0.192,0.158,2.46,4.0,,6.575,6.2700000000000005,
2025-08-14T23:35:10.348Z,3,GR86-036-98,10.2,-0.194,0.171,2.46,4.0,,6.96,6.93,
2025-08-14T23:35:10.391Z,3,GR86-036-98,10.2,-0.188,0.136,2.45,4.0,5025.0,7.295,7.235,
2025-08-14T23:35:10.434Z,3,GR86-036-98,10.2,-0.22,0.148,2.46,4.0,,7.86,7.325,130.93
2025-08-14T23:35:10.478Z,3,GR86-036-98,10.2,-0.217,0.163,15.5,4.0,,8.395,8.24,
2025-08-14T23:35:10.521Z,3,GR86-036-98,10.2,-0.221,0.146,59.48,4.0,,9.005,8.91,
2025-08-14T23:35:10.564Z,3,GR86-036-98,10.2,-0.231,0.149,98.28,4.0,,9.095,8.805,
2025-08-14T23:35:10.607Z,3,GR86-036-98,10.2,-0.158,0.157,81.97,4.0,4954.0,9.065,9.035,
2025-08-14T23:35:10.651Z,3,GR86-036-98,10.2,-0.204,0.152,13.61,3.0,,9.065,8.85,129.4
2025-08-14T23:35:10.694Z,3,GR86-036-98,10.2,-0.17,0.203,4.84,3.0,,8.975,9.125,
2025-08-14T23:35:10.738Z,3,GR86-036-98,10.1,-0.45,0.173,4.2700000000000005,3.0,,8.67,8.805,
2025-08-14T23:35:10.781Z,3,GR86-036-98,9.2,-0.34,0.13,4.01,3.0,,8.33,8.33,
2025-08-14T23:35:10.824Z,3,GR86-036-98,8.1,-0.247,0.179,3.77,3.0,5778.0,5.905,6.625,
2025-08-14T23:35:10.910Z,3,GR86-036-98,6.5,-0.174,0.143,3.18,3.0,,0.0,2.105,128.14
2025-08-14T23:35:10.953Z,3,GR86-036-98,5.9,-0.166,0.101,2.69,3.0,,0.0,0.0,
2025-08-14T23:35:10.996Z,3,GR86-036-98,5.9,-0.156,0.091,2.59,3.0,,0.0,0.0,
2025-08-14T23:35:11.082Z,3,GR86-036-98,5.800000000000001,-0.139,0.06,2.52,3.0,5780.0,0.0,0.0,126.94
2025-08-14T23:35:11.128Z,3,GR86-036-98,5.7,-0.158,0.03,2.49,3.0,,2.825,2.76,
2025-08-14T23:35:11.171Z,3,GR86-036-98,5.7,-0.19,0.035,2.49,3.0,,4.15,4.12,
2025-08-14T23:35:11.214Z,3,GR86-036-98,5.7,-0.194,0.034,2.48,3.0,,4.87,4.87,
2025-08-14T23:35:11.258Z,3,GR86-036-98,5.7,-0.189,0.014,2.46,3.0,5744.0,5.22,5.11,
2025-08-14T23:35:11.301Z,3,GR86-036-98,5.7,-0.213,0.017,2.46,3.0,,5.22,5.28,126.23
2025-08-14T23:35:11.344Z,3,GR86-036-98,5.7,-0.214,0.023,2.46,3.0,,5.22,5.4350000000000005,
2025-08-14T23:35:11.432Z,3,GR86-036-98,5.7,-0.191,0.024,2.46,3.0,,4.835,5.0200000000000005,
2025-08-14T23:35:11.475Z,3,GR86-036-98,5.7,-0.209,0.035,2.46,3.0,5678.0,4.745,4.87,
2025-08-14T23:35:11.518Z,3,GR86-036-98,5.7,-0.206,0.057,2.46,3.0,,4.745,4.9,125.01
2025-08-14T23:35:11.561Z,3,GR86-036-98,5.7,-0.186,0.039,2.46,3.0,,3.37,3.905,
2025-08-14T23:35:11.604Z,3,GR86-036-98,5.7,-0.181,0.056,2.46,3.0,,2.4250000000000003,2.825,
2025-08-14T23:35:11.691Z,3,GR86-036-98,5.7,-0.179,0.097,2.47,3.0,5626.0,0.0,2.075,
2025-08-14T23:35:11.734Z,3,GR86-036-98,5.7,-0.157,0.088,2.47,3.0,,1.86,2.075,123.83
2025-08-14T23:35:11.778Z,3,GR86-036-98,5.7,-0.165,0.105,2.46,3.0,,2.045,2.105,
2025-08-14T23:35:11.864Z,3,GR86-036-98,5.7,-0.182,0.115,2.46,3.0,,2.045,2.395,
2025-08-14T23:35:11.952Z,3,GR86-036-98,6.9,-0.162,0.142,2.46,3.0,5596.0,2.165,2.245,123.02
2025-08-14T23:35:11.995Z,3,GR86-036-98,7.6,-0.176,0.192,2.48,3.0,,2.855,2.76,
2025-08-14T23:35:12.081Z,3,GR86-036-98,8.0,-0.182,0.185,2.46,3.0,,3.585,3.465,
2025-08-14T23:35:12.168Z,3,GR86-036-98,8.1,-0.213,0.208,2.49,3.0,5563.0,4.835,4.87,122.18
2025-08-14T23:35:12.211Z,3,GR86-036-98,8.1,-0.189,0.198,2.47,3.0,,7.235,7.05,
2025-08-14T23:35:12.299Z,3,GR86-036-98,8.1,-0.249,0.179,2.48,3.0,,9.185,8.85,
2025-08-14T23:35:12.385Z,3,GR86-036-98,8.1,-0.262,0.186,2.48,3.0,5521.0,11.58,11.245,121.33
2025-08-14T23:35:12.428Z,3,GR86-036-98,8.1,-0.302,0.17,2.49,3.0,,12.085,12.115,
2025-08-14T23:35:12.514Z,3,GR86-036-98,8.1,-0.303,0.155,2.48,3.0,,12.175,12.21,
2025-08-14T23:35:12.557Z,3,GR86-036-98,8.1,-0.315,0.132,2.47,3.0,5447.0,12.175,12.21,
2025-08-14T23:35:12.600Z,3,GR86-036-98,8.1,-0.303,0.148,2.48,3.0,,12.175,12.24,118.07
2025-08-14T23:35:12.643Z,3,GR86-036-98,8.1,-0.307,0.115,2.49,3.0,,12.115,11.935,
2025-08-14T23:35:12.731Z,3,GR86-036-98,8.1,-0.315,0.124,2.49,3.0,,11.84,11.905,
2025-08-14T23:35:12.774Z,3,GR86-036-98,8.1,-0.273,0.123,2.49,3.0,5356.0,11.615,11.52,
2025-08-14T23:35:12.817Z,3,GR86-036-98,8.0,-0.31,0.09,2.48,3.0,,11.615,11.78,116.48
2025-08-14T23:35:12.860Z,3,GR86-036-98,7.9,-0.322,0.106,2.49,3.0,,11.735,11.935,
2025-08-14T23:35:12.903Z,3,GR86-036-98,7.800000000000001,-0.291,0.081,2.49,3.0,,11.4,11.34,
2025-08-14T23:35:12.948Z,3,GR86-036-98,7.6,-0.27,0.085,2.48,3.0,,9.72,10.15,
2025-08-14T23:35:12.991Z,3,GR86-036-98,7.300000000000001,-0.279,0.063,2.49,3.0,5222.0,8.27,9.065,
2025-08-14T23:35:13.034Z,3,GR86-036-98,6.9,-0.245,0.073,2.49,3.0,,7.645,8.01,114.82
2025-08-14T23:35:13.077Z,3,GR86-036-98,6.5,-0.25,0.054,2.49,3.0,,7.83,8.040000000000001,
2025-08-14T23:35:13.163Z,3,GR86-036-98,6.5,-0.24,0.052,2.49,3.0,,7.645,7.92,
2025-08-14T23:35:13.208Z,3,GR86-036-98,6.5,-0.249,0.037,2.49,3.0,5143.0,7.645,8.01,
2025-08-14T23:35:13.251Z,3,GR86-036-98,6.4,-0.26,0.038,2.49,3.0,,7.890000000000001,8.3,113.28
2025-08-14T23:35:13.294Z,3,GR86-036-98,6.4,-0.241,0.035,2.49,3.0,,7.8,7.92,
2025-08-14T23:35:13.381Z,3,GR86-036-98,6.4,-0.261,0.036,2.49,3.0,,8.120000000000001,8.395,
2025-08-14T23:35:13.468Z,3,GR86-036-98,6.4,-0.256,0.024,2.49,3.0,5080.0,9.065,9.005,111.91
2025-08-14T23:35:13.511Z,3,GR86-036-98,6.300000000000001,-0.305,0.023,98.29,3.0,,10.68,10.805,
2025-08-14T23:35:13.554Z,3,GR86-036-98,6.300000000000001,-0.264,0.038,99.77,3.0,,11.035,10.59,
2025-08-14T23:35:13.599Z,3,GR86-036-98,6.300000000000001,-0.232,-0.005,83.26,3.0,,11.155,11.185,
2025-08-14T23:35:13.642Z,3,GR86-036-98,6.300000000000001,-0.241,0.007,11.64,2.0,5204.0,11.55,11.43,
2025-08-14T23:35:13.685Z,3,GR86-036-98,6.2,-0.435,0.064,3.42,2.0,,12.925,12.53,110.5
2025-08-14T23:35:13.728Z,3,GR86-036-98,6.2,-0.476,0.004,2.73,2.0,,17.150000000000002,16.59,
2025-08-14T23:35:13.771Z,3,GR86-036-98,6.2,-0.419,0.043,2.6,2.0,,18.235,17.990000000000002,
2025-08-14T23:35:13.814Z,3,GR86-036-98,6.2,-0.347,0.052,2.53,2.0,,18.495,18.205,
2025-08-14T23:35:13.859Z,3,GR86-036-98,6.2,-0.423,0.011,2.5,2.0,6086.0,18.615,18.83,
2025-08-14T23:35:13.902Z,3,GR86-036-98,6.2,-0.391,0.041,2.48,2.0,,18.86,18.495,108.95
2025-08-14T23:35:13.945Z,3,GR86-036-98,6.1000000000000005,-0.427,0.025,2.46,2.0,,19.18,19.365,
2025-08-14T23:35:14.032Z,3,GR86-036-98,5.9,-0.434,0.028,2.46,2.0,,19.305,19.55,
2025-08-14T23:35:14.075Z,3,GR86-036-98,5.9,-0.428,0.02,2.46,2.0,5888.0,19.18,19.55,
2025-08-14T23:35:14.118Z,3,GR86-036-98,5.9,-0.439,0.034,2.47,2.0,,19.15,18.86,106.1
2025-08-14T23:35:14.161Z,3,GR86-036-98,5.800000000000001,-0.432,0.032,2.46,2.0,,19.18,19.425,
2025-08-14T23:35:14.204Z,3,GR86-036-98,5.7,-0.428,0.029,2.46,2.0,,19.18,19.21,
2025-08-14T23:35:14.248Z,3,GR86-036-98,5.7,-0.414,0.039,2.46,2.0,,19.18,18.83,
2025-08-14T23:35:14.291Z,3,GR86-036-98,5.7,-0.422,0.023,2.46,2.0,5759.0,19.485,19.61,
2025-08-14T23:35:14.334Z,3,GR86-036-98,5.7,-0.433,0.036,2.46,2.0,,19.79,19.485,103.61
2025-08-14T23:35:14.377Z,3,GR86-036-98,5.7,-0.425,0.035,2.47,2.0,,20.695,20.51,
2025-08-14T23:35:14.420Z,3,GR86-036-98,5.7,-0.439,0.033,2.46,2.0,,21.96,21.625,
2025-08-14T23:35:14.463Z,3,GR86-036-98,5.7,-0.468,0.04,2.46,2.0,,23.24,22.815,
2025-08-14T23:35:14.507Z,3,GR86-036-98,5.7,-0.506,0.035,2.46,2.0,5610.0,26.66,25.99,
2025-08-14T23:35:14.550Z,3,GR86-036-98,5.9,-0.518,0.073,2.46,2.0,,28.095,27.315,101.03
2025-08-14T23:35:14.593Z,3,GR86-036-98,5.9,-0.517,0.069,2.46,2.0,,28.615,28.43,
2025-08-14T23:35:14.638Z,3,GR86-036-98,6.2,-0.526,0.091,2.46,2.0,,28.615,27.925,
2025-08-14T23:35:14.681Z,3,GR86-036-98,6.9,-0.534,0.083,2.46,2.0,,27.97,28.185,
2025-08-14T23:35:14.724Z,3,GR86-036-98,7.5,-0.555,0.108,2.46,2.0,5456.0,26.72,27.055,
2025-08-14T23:35:14.767Z,3,GR86-036-98,8.700000000000001,-0.511,0.123,2.47,2.0,,22.31,23.655,98.26
2025-08-14T23:35:14.810Z,3,GR86-036-98,9.3,-0.458,0.127,2.46,2.0,,18.77,20.235,
2025-08-14T23:35:14.853Z,3,GR86-036-98,9.7,-0.425,0.155,2.46,2.0,,15.395,16.68,
2025-08-14T23:35:14.896Z,3,GR86-036-98,9.8,-0.373,0.142,2.47,2.0,,13.045,14.36,
