timestamp,lap,vehicle_id,steering_angle,accx_can,accy_can,ath,gear,nmot,pbrake_f,pbrake_r,speed
2025-08-14T23:15:28.344Z,5,GR86-025-47,-6.1000000000000005,0.133,0.054,99.98,4.0,,0.0,0.0,176.28
2025-08-14T23:15:28.388Z,5,GR86-025-47,-6.1000000000000005,0.124,0.067,100.01,4.0,,0.0,0.0,
2025-08-14T23:15:28.431Z,5,GR86-025-47,-6.1000000000000005,0.11,0.012,100.01,4.0,,0.0,0.0,
2025-08-14T23:15:28.474Z,5,GR86-025-47,-6.1000000000000005,0.093,0.014,99.99,4.0,,0.0,0.0,
2025-08-14T23:15:28.518Z,5,GR86-025-47,-6.1000000000000005,0.129,0.023,100.01,4.0,7002.0,0.0,0.0,
2025-08-14T23:15:28.561Z,5,GR86-025-47,-6.1000000000000005,0.133,0.028,99.98,4.0,,0.0,0.0,177.14
2025-08-14T23:15:28.604Z,5,GR86-025-47,-6.2,0.127,0.005,99.97,4.0,,0.0,0.0,
2025-08-14T23:15:28.648Z,5,GR86-025-47,-6.2,0.117,0.011,100.01,4.0,,0.0,0.0,
2025-08-14T23:15:28.691Z,5,GR86-025-47,-6.2,0.1,0.015,100.01,4.0,,0.0,0.0,
2025-08-14T23:15:28.735Z,5,GR86-025-47,-6.1000000000000005,0.102,-0.004,100.01,4.0,7019.0,0.0,0.0,
2025-08-14T23:15:28.778Z,5,GR86-025-47,-6.1000000000000005,0.141,0.024,100.01,4.0,,0.0,0.0,177.89
2025-08-14T23:15:28.821Z,5,GR86-025-47,-6.1000000000000005,0.114,0.007,100.01,4.0,,0.0,0.0,
2025-08-14T23:15:28.864Z,5,GR86-025-47,-6.2,0.119,-0.005,100.01,4.0,,0.0,0.0,
2025-08-14T23:15:28.908Z,5,GR86-025-47,-6.300000000000001,0.132,0.062,99.98,4.0,,0.0,0.0,
2025-08-14T23:15:28.951Z,5,GR86-025-47,-6.4,0.112,0.035,99.98,4.0,7058.0,0.0,0.0,
2025-08-14T23:15:28.994Z,5,GR86-025-47,-6.300000000000001,0.102,0.033,99.97,4.0,,0.0,0.0,178.61
2025-08-14T23:15:29.037Z,5,GR86-025-47,-6.300000000000001,0.124,0.032,99.99,4.0,,0.0,0.0,
2025-08-14T23:15:29.081Z,5,GR86-025-47,-6.300000000000001,0.099,0.013,100.0,4.0,,0.0,0.0,
2025-08-14T23:15:29.124Z,5,GR86-025-47,-6.300000000000001,0.114,0.035,99.99,4.0,,0.0,0.0,
2025-08-14T23:15:29.168Z,5,GR86-025-47,-6.2,0.116,0.05,100.0,4.0,7088.0,0.0,0.0,
2025-08-14T23:15:29.211Z,5,GR86-025-47,-6.2,0.116,-0.016,100.02,4.0,,0.0,0.0,179.32
2025-08-14T23:15:29.254Z,5,GR86-025-47,-6.2,0.123,0.006,99.99,4.0,,0.0,0.0,
2025-08-14T23:15:29.297Z,5,GR86-025-47,-6.300000000000001,0.111,0.004,100.01,4.0,,0.0,0.0,
2025-08-14T23:15:29.340Z,5,GR86-025-47,-6.300000000000001,0.127,0.002,100.01,4.0,,0.0,0.0,
2025-08-14T23:15:29.383Z,5,GR86-025-47,-6.300000000000001,0.121,0.015,99.98,4.0,7109.0,0.0,0.0,
2025-08-14T23:15:29.426Z,5,GR86-025-47,-5.9,0.101,0.033,99.99,4.0,,0.0,0.0,180.1
2025-08-14T23:15:29.471Z,5,GR86-025-47,-5.4,0.137,0.031,100.02,4.0,,0.0,0.0,
2025-08-14T23:15:29.514Z,5,GR86-025-47,-5.300000000000001,0.112,0.031,100.01,4.0,,0.0,0.0,
2025-08-14T23:15:29.557Z,5,GR86-025-47,-5.300000000000001,0.101,0.044,99.99,4.0,,0.0,0.0,
2025-08-14T23:15:29.601Z,5,GR86-025-47,-5.2,0.098,0.041,99.98,4.0,7145.0,0.0,0.0,
2025-08-14T23:15:29.644Z,5,GR86-025-47,-5.2,0.105,0.066,99.99,4.0,,0.0,0.0,180.92
2025-08-14T23:15:29.688Z,5,GR86-025-47,-4.9,0.107,0.061,100.0,4.0,,0.0,0.0,
2025-08-14T23:15:29.731Z,5,GR86-025-47,-4.5,0.109,0.042,100.02,4.0,,0.0,0.0,
2025-08-14T23:15:29.774Z,5,GR86-025-47,-4.3,0.093,0.069,99.98,4.0,,0.0,0.0,
2025-08-14T23:15:29.818Z,5,GR86-025-47,-4.3,0.1,0.075,100.02,4.0,7169.0,0.0,0.0,
2025-08-14T23:15:29.861Z,5,GR86-025-47,-4.3,0.113,0.091,99.98,4.0,,0.0,0.0,182.33
2025-08-14T23:15:29.904Z,5,GR86-025-47,-4.3,0.104,0.102,100.02,4.0,,0.0,0.0,
2025-08-14T23:15:29.948Z,5,GR86-025-47,-4.3,0.09,0.089,99.98,4.0,,0.0,0.0,
2025-08-14T23:15:29.991Z,5,GR86-025-47,-4.5,0.1,0.123,99.97,4.0,,0.0,0.0,
2025-08-14T23:15:30.035Z,5,GR86-025-47,-4.6000000000000005,0.11,0.13,100.02,4.0,7204.0,0.0,0.0,
2025-08-14T23:15:30.078Z,5,GR86-025-47,-4.7,0.104,0.138,99.99,4.0,,0.0,0.0,183.1
2025-08-14T23:15:30.121Z,5,GR86-025-47,-4.7,0.097,0.124,100.02,4.0,,0.0,0.0,
2025-08-14T23:15:30.164Z,5,GR86-025-47,-4.800000000000001,0.113,0.12,100.01,4.0,,0.0,0.0,
2025-08-14T23:15:30.208Z,5,GR86-025-47,-4.800000000000001,0.128,0.132,100.01,4.0,,0.0,0.0,
2025-08-14T23:15:30.251Z,5,GR86-025-47,-4.800000000000001,0.094,0.133,99.99,4.0,7245.0,0.0,0.0,
2025-08-14T23:15:30.294Z,5,GR86-025-47,-4.9,0.11,0.113,100.01,4.0,,0.0,0.0,183.82
2025-08-14T23:15:30.337Z,5,GR86-025-47,-4.9,0.078,0.111,100.0,4.0,,0.0,0.0,
2025-08-14T23:15:30.381Z,5,GR86-025-47,-4.9,0.1,0.08,99.97,4.0,,0.0,0.0,
2025-08-14T23:15:30.424Z,5,GR86-025-47,-5.1000000000000005,-0.141,0.117,99.98,5.0,,0.0,0.0,
2025-08-14T23:15:30.468Z,5,GR86-025-47,-5.2,0.428,0.146,100.0,5.0,6880.0,0.0,0.0,
2025-08-14T23:15:30.511Z,5,GR86-025-47,-5.2,0.035,-0.015,99.98,5.0,,0.0,0.0,184.31
2025-08-14T23:15:30.554Z,5,GR86-025-47,-5.4,0.019,0.145,100.01,5.0,,0.0,0.0,
2025-08-14T23:15:30.597Z,5,GR86-025-47,-5.5,0.119,0.1,100.01,5.0,,0.0,0.0,
2025-08-14T23:15:30.640Z,5,GR86-025-47,-5.5,0.11,-0.037,100.01,5.0,,0.0,0.0,
2025-08-14T23:15:30.683Z,5,GR86-025-47,-5.5,0.103,-0.025,100.01,5.0,6348.0,0.0,0.0,
2025-08-14T23:15:30.726Z,5,GR86-025-47,-5.6000000000000005,0.087,-0.009,100.01,5.0,,0.0,0.0,184.95
2025-08-14T23:15:30.769Z,5,GR86-025-47,-5.6000000000000005,0.086,-0.02,100.01,5.0,,0.0,0.0,
2025-08-14T23:15:30.812Z,5,GR86-025-47,-5.6000000000000005,0.065,-0.01,100.01,5.0,,0.0,0.0,
2025-08-14T23:15:30.855Z,5,GR86-025-47,-5.7,0.092,0.01,100.0,5.0,,0.0,0.0,
2025-08-14T23:15:30.898Z,5,GR86-025-47,-5.7,0.052,-0.067,100.01,5.0,6340.0,0.0,0.0,
2025-08-14T23:15:30.941Z,5,GR86-025-47,-5.800000000000001,0.095,-0.043,100.01,5.0,,0.0,0.0,185.64
2025-08-14T23:15:31.028Z,5,GR86-025-47,-5.800000000000001,0.085,-0.005,100.0,5.0,,0.0,0.0,
2025-08-14T23:15:31.071Z,5,GR86-025-47,-5.9,0.064,-0.066,100.0,5.0,,0.0,0.0,
2025-08-14T23:15:31.114Z,5,GR86-025-47,-5.9,0.082,-0.041,100.0,5.0,6365.0,0.0,0.0,
2025-08-14T23:15:31.157Z,5,GR86-025-47,-5.9,0.093,-0.062,100.03,5.0,,0.0,0.0,186.27
2025-08-14T23:15:31.201Z,5,GR86-025-47,-5.9,0.076,-0.067,100.01,5.0,,0.0,0.0,
2025-08-14T23:15:31.244Z,5,GR86-025-47,-5.9,0.102,-0.05,100.01,5.0,,0.0,0.0,
2025-08-14T23:15:31.288Z,5,GR86-025-47,-5.800000000000001,0.076,-0.019,100.01,5.0,,0.0,0.0,
2025-08-14T23:15:31.331Z,5,GR86-025-47,-5.800000000000001,0.075,-0.031,99.98,5.0,6381.0,0.0,0.0,
2025-08-14T23:15:31.374Z,5,GR86-025-47,-5.800000000000001,0.065,-0.059,99.99,5.0,,0.0,0.0,186.85
2025-08-14T23:15:31.417Z,5,GR86-025-47,-5.800000000000001,0.07,-0.028,100.0,5.0,,0.0,0.0,
2025-08-14T23:15:31.460Z,5,GR86-025-47,-5.800000000000001,0.087,0.022,100.03,5.0,,0.0,0.0,
2025-08-14T23:15:31.503Z,5,GR86-025-47,-5.800000000000001,0.084,0.018,100.0,5.0,,0.0,0.0,
2025-08-14T23:15:31.548Z,5,GR86-025-47,-5.800000000000001,0.086,-0.02,99.99,5.0,6410.0,0.0,0.0,
2025-08-14T23:15:31.591Z,5,GR86-025-47,-5.800000000000001,0.083,0.026,100.01,5.0,,0.0,0.0,187.41
2025-08-14T23:15:31.634Z,5,GR86-025-47,-5.7,0.076,0.018,99.99,5.0,,0.0,0.0,
2025-08-14T23:15:31.677Z,5,GR86-025-47,-5.7,0.088,0.045,100.0,5.0,,0.0,0.0,
2025-08-14T23:15:31.720Z,5,GR86-025-47,-5.7,0.071,0.03,100.0,5.0,,0.0,0.0,
2025-08-14T23:15:31.763Z,5,GR86-025-47,-5.800000000000001,0.074,0.059,99.98,5.0,6421.0,0.0,0.0,
2025-08-14T23:15:31.806Z,5,GR86-025-47,-5.9,0.101,0.05,99.99,5.0,,0.0,0.0,188.08
2025-08-14T23:15:31.849Z,5,GR86-025-47,-5.9,0.102,0.024,100.01,5.0,,0.0,0.0,
2025-08-14T23:15:31.892Z,5,GR86-025-47,-6.0,0.091,0.054,99.99,5.0,,0.0,0.0,
2025-08-14T23:15:31.935Z,5,GR86-025-47,-6.1000000000000005,0.09,0.015,99.97,5.0,,0.0,0.0,
2025-08-14T23:15:31.978Z,5,GR86-025-47,-6.1000000000000005,0.071,0.038,99.98,5.0,6461.0,0.0,0.0,
2025-08-14T23:15:32.021Z,5,GR86-025-47,-6.1000000000000005,0.074,0.021,100.0,5.0,,0.0,0.0,188.56
2025-08-14T23:15:32.064Z,5,GR86-025-47,-6.1000000000000005,0.089,0.041,100.01,5.0,,0.0,0.0,
2025-08-14T23:15:32.108Z,5,GR86-025-47,-6.2,0.088,0.031,100.01,5.0,,0.0,0.0,
2025-08-14T23:15:32.151Z,5,GR86-025-47,-6.300000000000001,0.077,0.021,100.01,5.0,,0.0,0.0,
2025-08-14T23:15:32.194Z,5,GR86-025-47,-6.300000000000001,0.096,0.016,100.0,5.0,6479.0,0.0,0.0,
2025-08-14T23:15:32.237Z,5,GR86-025-47,-6.4,0.097,-0.002,100.02,5.0,,0.0,0.0,189.12
2025-08-14T23:15:32.281Z,5,GR86-025-47,-6.4,0.065,-0.003,99.99,5.0,,0.0,0.0,
2025-08-14T23:15:32.324Z,5,GR86-025-47,-6.300000000000001,0.112,0.02,99.99,5.0,,0.0,0.0,
2025-08-14T23:15:32.368Z,5,GR86-025-47,-5.5,0.089,-0.024,99.99,5.0,,0.0,0.0,
2025-08-14T23:15:32.411Z,5,GR86-025-47,-4.800000000000001,0.08,0.028,99.99,5.0,6489.0,0.0,0.0,
2025-08-14T23:15:32.454Z,5,GR86-025-47,-4.7,0.087,0.028,100.01,5.0,,0.0,0.0,190.51
2025-08-14T23:15:32.497Z,5,GR86-025-47,-4.800000000000001,0.08,0.016,99.98,5.0,,0.0,0.0,
2025-08-14T23:15:32.540Z,5,GR86-025-47,-4.9,0.092,0.036,99.99,5.0,,0.0,0.0,
2025-08-14T23:15:32.583Z,5,GR86-025-47,-5.0,0.059,0.032,99.97,5.0,,0.0,0.0,
2025-08-14T23:15:32.626Z,5,GR86-025-47,-5.0,0.052,0.032,100.0,5.0,6512.0,0.0,0.0,
2025-08-14T23:15:32.669Z,5,GR86-025-47,-5.1000000000000005,0.093,0.021,99.99,5.0,,0.0,0.0,191.13
2025-08-14T23:15:32.712Z,5,GR86-025-47,-5.2,0.051,0.045,100.0,5.0,,0.0,0.0,
2025-08-14T23:15:32.755Z,5,GR86-025-47,-5.300000000000001,0.087,0.063,100.0,5.0,,0.0,0.0,
2025-08-14T23:15:32.798Z,5,GR86-025-47,-5.300000000000001,0.058,0.034,100.01,5.0,,0.0,0.0,
2025-08-14T23:15:32.841Z,5,GR86-025-47,-5.4,0.079,0.081,99.98,5.0,6528.0,0.0,0.0,
2025-08-14T23:15:32.885Z,5,GR86-025-47,-5.4,0.074,0.063,100.01,5.0,,0.0,0.0,191.82
2025-08-14T23:15:32.928Z,5,GR86-025-47,-5.4,0.069,0.056,100.0,5.0,,0.0,0.0,
2025-08-14T23:15:32.971Z,5,GR86-025-47,-5.300000000000001,0.08,0.064,99.98,5.0,,0.0,0.0,
2025-08-14T23:15:33.014Z,5,GR86-025-47,-5.2,0.062,0.039,100.01,5.0,,0.0,0.0,
2025-08-14T23:15:33.058Z,5,GR86-025-47,-5.2,0.069,0.077,99.97,5.0,6581.0,0.0,0.0,
2025-08-14T23:15:33.101Z,5,GR86-025-47,-5.1000000000000005,0.069,0.055,100.0,5.0,,0.0,0.0,192.31
2025-08-14T23:15:33.144Z,5,GR86-025-47,-4.9,0.076,0.064,100.01,5.0,,0.0,0.0,
2025-08-14T23:15:33.188Z,5,GR86-025-47,-4.9,0.071,0.05,100.0,5.0,,0.0,0.0,
2025-08-14T23:15:33.231Z,5,GR86-025-47,-5.1000000000000005,0.067,0.073,99.99,5.0,,0.0,0.0,
2025-08-14T23:15:33.274Z,5,GR86-025-47,-5.1000000000000005,0.082,0.09,99.99,5.0,6593.0,0.0,0.0,
2025-08-14T23:15:33.317Z,5,GR86-025-47,-5.1000000000000005,0.083,0.05,100.01,5.0,,0.0,0.0,193.08
2025-08-14T23:15:33.360Z,5,GR86-025-47,-5.0,0.07,0.074,99.99,5.0,,0.0,0.0,
2025-08-14T23:15:33.403Z,5,GR86-025-47,-5.0,0.063,0.066,99.97,5.0,,0.0,0.0,
2025-08-14T23:15:33.448Z,5,GR86-025-47,-5.0,0.085,0.08,99.99,5.0,,0.0,0.0,
2025-08-14T23:15:33.491Z,5,GR86-025-47,-5.1000000000000005,0.096,0.092,100.0,5.0,6619.0,0.0,0.0,
2025-08-14T23:15:33.534Z,5,GR86-025-47,-5.2,0.068,0.072,100.01,5.0,,0.0,0.0,193.63
2025-08-14T23:15:33.577Z,5,GR86-025-47,-5.300000000000001,0.074,0.096,100.01,5.0,,0.0,0.0,
2025-08-14T23:15:33.621Z,5,GR86-025-47,-5.5,0.073,0.046,100.0,5.0,,0.0,0.0,
2025-08-14T23:15:33.664Z,5,GR86-025-47,-5.5,0.071,0.059,100.01,5.0,,0.0,0.0,
2025-08-14T23:15:33.708Z,5,GR86-025-47,-5.4,0.087,0.063,100.02,5.0,6636.0,0.0,0.0,
2025-08-14T23:15:33.751Z,5,GR86-025-47,-5.300000000000001,0.073,0.061,99.98,5.0,,0.0,0.0,194.34
2025-08-14T23:15:33.794Z,5,GR86-025-47,-5.2,0.099,0.058,100.01,5.0,,0.0,0.0,
2025-08-14T23:15:33.837Z,5,GR86-025-47,-5.300000000000001,0.085,0.05,100.0,5.0,,0.0,0.0,
2025-08-14T23:15:33.881Z,5,GR86-025-47,-5.300000000000001,0.063,0.044,100.0,5.0,,0.0,0.0,
2025-08-14T23:15:33.924Z,5,GR86-025-47,-5.4,0.054,0.078,100.0,5.0,6646.0,0.0,0.0,
2025-08-14T23:15:33.968Z,5,GR86-025-47,-5.5,0.07,0.035,100.01,5.0,,0.0,0.0,194.81
2025-08-14T23:15:34.011Z,5,GR86-025-47,-5.6000000000000005,0.083,0.071,99.98,5.0,,0.0,0.0,
2025-08-14T23:15:34.054Z,5,GR86-025-47,-5.6000000000000005,0.087,0.051,100.0,5.0,,0.0,0.0,
2025-08-14T23:15:34.097Z,5,GR86-025-47,-5.6000000000000005,0.075,0.032,100.0,5.0,,0.0,0.0,
2025-08-14T23:15:34.140Z,5,GR86-025-47,-5.6000000000000005,0.069,0.031,99.97,5.0,6670.0,0.0,0.0,
2025-08-14T23:15:34.183Z,5,GR86-025-47,-5.6000000000000005,0.082,0.061,100.01,5.0,,0.0,0.0,195.4
2025-08-14T23:15:34.226Z,5,GR86-025-47,-5.800000000000001,0.059,0.026,100.01,5.0,,0.0,0.0,
2025-08-14T23:15:34.271Z,5,GR86-025-47,-5.800000000000001,0.048,0.034,100.01,5.0,,0.0,0.0,
2025-08-14T23:15:34.314Z,5,GR86-025-47,-5.9,0.063,0.001,100.01,5.0,,0.0,0.0,
2025-08-14T23:15:34.357Z,5,GR86-025-47,-5.9,0.081,0.013,99.98,5.0,6685.0,0.0,0.0,
2025-08-14T23:15:34.401Z,5,GR86-025-47,-5.9,0.058,-0.011,99.97,5.0,,0.0,0.0,196.05
2025-08-14T23:15:34.444Z,5,GR86-025-47,-5.800000000000001,0.071,0.008,100.0,5.0,,0.0,0.0,
2025-08-14T23:15:34.488Z,5,GR86-025-47,-5.7,0.069,-0.002,100.01,5.0,,0.0,0.0,
2025-08-14T23:15:34.531Z,5,GR86-025-47,-5.7,0.077,0.02,99.99,5.0,,0.0,0.0,
2025-08-14T23:15:34.574Z,5,GR86-025-47,-5.7,0.04,0.015,99.99,5.0,6709.0,0.0,0.0,
2025-08-14T23:15:34.618Z,5,GR86-025-47,-5.6000000000000005,0.059,0.018,99.99,5.0,,0.0,0.0,196.43
2025-08-14T23:15:34.661Z,5,GR86-025-47,-5.6000000000000005,0.092,0.008,100.0,5.0,,0.0,0.0,
2025-08-14T23:15:34.704Z,5,GR86-025-47,-5.6000000000000005,0.064,-0.006,100.0,5.0,,0.0,0.0,
2025-08-14T23:15:34.748Z,5,GR86-025-47,-5.6000000000000005,0.062,0.013,100.01,5.0,,0.0,0.0,
2025-08-14T23:15:34.791Z,5,GR86-025-47,-5.6000000000000005,0.089,0.043,99.97,5.0,6720.0,0.0,0.0,
2025-08-14T23:15:34.834Z,5,GR86-025-47,-5.6000000000000005,0.075,0.029,100.0,5.0,,0.0,0.0,196.89
2025-08-14T23:15:34.877Z,5,GR86-025-47,-5.6000000000000005,0.04,0.058,99.99,5.0,,0.0,0.0,
2025-08-14T23:15:34.921Z,5,GR86-025-47,-5.6000000000000005,0.06,0.041,100.02,5.0,,0.0,0.0,
2025-08-14T23:15:34.964Z,5,GR86-025-47,-5.6000000000000005,0.062,0.028,100.0,5.0,,0.0,0.0,
2025-08-14T23:15:35.008Z,5,GR86-025-47,-5.6000000000000005,0.082,0.038,99.98,5.0,6746.0,0.0,0.0,
2025-08-14T23:15:35.052Z,5,GR86-025-47,-5.6000000000000005,0.077,0.048,100.01,5.0,,0.0,0.0,197.7
2025-08-14T23:15:35.095Z,5,GR86-025-47,-5.6000000000000005,0.101,0.045,100.01,5.0,,0.0,0.0,
2025-08-14T23:15:35.138Z,5,GR86-025-47,-5.7,0.051,0.069,99.99,5.0,,0.0,0.0,
2025-08-14T23:15:35.181Z,5,GR86-025-47,-5.7,0.083,0.058,100.01,5.0,,0.0,0.0,
2025-08-14T23:15:35.224Z,5,GR86-025-47,-5.7,0.063,0.047,100.01,5.0,6750.0,0.0,0.0,
2025-08-14T23:15:35.267Z,5,GR86-025-47,-5.6000000000000005,0.063,0.073,100.0,5.0,,0.0,0.0,198.29
2025-08-14T23:15:35.311Z,5,GR86-025-47,-5.6000000000000005,0.071,0.064,99.98,5.0,,0.0,0.0,
2025-08-14T23:15:35.354Z,5,GR86-025-47,-5.6000000000000005,0.051,0.057,100.01,5.0,,0.0,0.0,
2025-08-14T23:15:35.440Z,5,GR86-025-47,-5.7,0.045,0.068,99.98,5.0,6761.0,0.0,0.0,
2025-08-14T23:15:35.483Z,5,GR86-025-47,-5.7,0.087,0.047,100.01,5.0,,0.0,0.0,198.48
2025-08-14T23:15:35.526Z,5,GR86-025-47,-5.9,0.089,0.061,100.01,5.0,,0.0,0.0,
2025-08-14T23:15:35.569Z,5,GR86-025-47,-6.0,0.062,0.063,100.01,5.0,,0.0,0.0,
2025-08-14T23:15:35.612Z,5,GR86-025-47,-6.1000000000000005,0.045,0.023,100.0,5.0,,0.0,0.0,
2025-08-14T23:15:35.741Z,5,GR86-025-47,-6.1000000000000005,0.041,0.031,100.0,5.0,6800.0,0.0,0.0,199.09
2025-08-14T23:15:35.784Z,5,GR86-025-47,-5.9,0.056,-0.015,100.01,5.0,,0.0,0.0,
2025-08-14T23:15:35.828Z,5,GR86-025-47,-5.9,0.047,0.031,100.01,5.0,,0.0,0.0,
2025-08-14T23:15:35.871Z,5,GR86-025-47,-5.9,0.081,0.017,100.0,5.0,6814.0,0.0,0.0,
2025-08-14T23:15:35.914Z,5,GR86-025-47,-5.9,0.039,0.04,100.0,5.0,,0.0,0.0,199.58
2025-08-14T23:15:35.957Z,5,GR86-025-47,-5.9,0.056,-0.003,99.99,5.0,,0.0,0.0,
2025-08-14T23:15:36.001Z,5,GR86-025-47,-5.9,0.055,0.023,100.01,5.0,,0.0,0.0,
2025-08-14T23:15:36.044Z,5,GR86-025-47,-5.9,0.06,0.034,100.01,5.0,,0.0,0.0,
2025-08-14T23:15:36.088Z,5,GR86-025-47,-5.9,0.057,0.042,100.0,5.0,6827.0,2.045,2.275,
2025-08-14T23:15:36.131Z,5,GR86-025-47,-5.9,0.039,0.024,100.01,5.0,,0.0,0.0,199.93
2025-08-14T23:15:36.174Z,5,GR86-025-47,-6.1000000000000005,0.053,0.038,99.99,5.0,,0.0,0.0,
2025-08-14T23:15:36.217Z,5,GR86-025-47,-6.1000000000000005,0.056,0.024,99.99,5.0,,0.0,0.0,
2025-08-14T23:15:36.260Z,5,GR86-025-47,-6.300000000000001,0.088,0.01,100.01,5.0,,2.015,2.365,
2025-08-14T23:15:36.303Z,5,GR86-025-47,-7.0,0.056,0.007,99.98,5.0,6837.0,0.0,0.0,
2025-08-14T23:15:36.348Z,5,GR86-025-47,-8.5,0.058,-0.01,99.99,5.0,,0.0,0.0,200.4
2025-08-14T23:15:36.391Z,5,GR86-025-47,-8.700000000000001,0.077,-0.038,100.01,5.0,,0.0,0.0,
2025-08-14T23:15:36.434Z,5,GR86-025-47,-8.8,0.083,-0.07,99.99,5.0,,0.0,0.0,
2025-08-14T23:15:36.477Z,5,GR86-025-47,-8.8,0.062,-0.073,99.98,5.0,,0.0,0.0,
2025-08-14T23:15:36.521Z,5,GR86-025-47,-8.9,0.077,-0.103,100.0,5.0,6865.0,0.0,0.0,
2025-08-14T23:15:36.564Z,5,GR86-025-47,-9.4,0.069,-0.161,100.01,5.0,,0.0,0.0,200.75
2025-08-14T23:15:36.608Z,5,GR86-025-47,-10.0,0.076,-0.185,84.01,5.0,,7.98,8.485,
2025-08-14T23:15:36.651Z,5,GR86-025-47,-10.0,-0.009,-0.195,13.22,5.0,,15.275,15.625,
2025-08-14T23:15:36.694Z,5,GR86-025-47,-6.300000000000001,-0.162,-0.2,3.29,5.0,,23.715,23.745,
2025-08-14T23:15:36.737Z,5,GR86-025-47,-1.5,-0.446,-0.125,2.79,5.0,6879.0,32.625,32.715,
2025-08-14T23:15:36.781Z,5,GR86-025-47,-0.1,-0.722,-0.099,2.68,5.0,,37.11,36.87,201.46
2025-08-14T23:15:36.824Z,5,GR86-025-47,-0.2,-0.845,-0.034,2.56,5.0,,46.205,45.87,
2025-08-14T23:15:36.868Z,5,GR86-025-47,-0.6000000000000001,-0.964,-0.111,2.53,5.0,,48.77,48.48,
2025-08-14T23:15:36.911Z,5,GR86-025-47,-0.7000000000000001,-0.947,-0.014,2.5,5.0,,49.58,49.67,
2025-08-14T23:15:36.954Z,5,GR86-025-47,-0.7000000000000001,-0.923,-0.085,2.51,5.0,6376.0,49.365,49.64,
2025-08-14T23:15:36.997Z,5,GR86-025-47,1.1,-0.944,-0.115,2.5,5.0,,48.955,49.425,198.76
2025-08-14T23:15:37.041Z,5,GR86-025-47,3.6,-0.932,-0.086,2.5,5.0,,48.65,49.105,
2025-08-14T23:15:37.084Z,5,GR86-025-47,6.0,-0.95,-0.079,2.5,5.0,,48.3,48.83,
2025-08-14T23:15:37.128Z,5,GR86-025-47,9.9,-0.869,-0.078,2.5,5.0,,42.36,44.055,
2025-08-14T23:15:37.171Z,5,GR86-025-47,12.7,-0.809,-0.106,2.5,5.0,6044.0,40.12,41.83,
2025-08-14T23:15:37.214Z,5,GR86-025-47,13.1,-0.769,-0.076,2.5,5.0,,33.845,35.34,190.95
2025-08-14T23:15:37.257Z,5,GR86-025-47,12.1,-0.803,-0.09,2.51,5.0,,29.39,30.675,
2025-08-14T23:15:37.301Z,5,GR86-025-47,8.1,-0.604,-0.048,2.5,5.0,,23.15,24.37,
2025-08-14T23:15:37.344Z,5,GR86-025-47,6.1000000000000005,-0.628,-0.127,2.51,5.0,,20.66,21.53,
2025-08-14T23:15:37.388Z,5,GR86-025-47,3.6,-0.556,-0.067,2.5,5.0,5861.0,23.56,23.865,
2025-08-14T23:15:37.431Z,5,GR86-025-47,2.3000000000000003,-0.581,-0.058,2.5,5.0,,29.74,29.835,184.58
2025-08-14T23:15:37.474Z,5,GR86-025-47,2.2,-0.72,-0.055,2.5,5.0,,33.62,33.62,
2025-08-14T23:15:37.517Z,5,GR86-025-47,2.3000000000000003,-0.8140000000000001,0.014,2.51,5.0,,46.71,46.175,
2025-08-14T23:15:37.560Z,5,GR86-025-47,2.4000000000000004,-0.918,0.068,22.08,5.0,,54.95,54.325,
2025-08-14T23:15:37.603Z,5,GR86-025-47,2.2,-0.96,0.089,65.14,4.0,5994.0,61.71,60.885,
2025-08-14T23:15:37.648Z,5,GR86-025-47,1.2000000000000002,-0.751,0.081,7.69,4.0,,71.95,73.05,175.34
2025-08-14T23:15:37.691Z,5,GR86-025-47,0.9,-0.74,0.088,4.44,4.0,,78.515,80.525,
2025-08-14T23:15:37.734Z,5,GR86-025-47,0.7000000000000001,-0.677,0.142,4.16,4.0,,79.4,81.625,
2025-08-14T23:15:37.777Z,5,GR86-025-47,-5.9,-0.837,-0.016,4.04,4.0,,77.92,79.365,
2025-08-14T23:15:37.821Z,5,GR86-025-47,-17.1,-0.936,0.087,3.45,4.0,5691.0,78.45,79.655,
2025-08-14T23:15:37.864Z,5,GR86-025-47,-25.1,-1.025,0.196,3.11,4.0,,86.58500000000001,87.805,160.87
2025-08-14T23:15:37.908Z,5,GR86-025-47,-24.1,-0.945,-0.126,2.79,4.0,,91.195,92.035,
2025-08-14T23:15:37.951Z,5,GR86-025-47,-20.5,-0.867,0.038,2.65,4.0,,98.06,99.955,
2025-08-14T23:15:37.994Z,5,GR86-025-47,-19.5,-0.927,0.041,2.61,4.0,,98.425,99.92,
2025-08-14T23:15:38.037Z,5,GR86-025-47,-15.5,-0.861,-0.104,2.57,4.0,6298.0,91.775,92.66,
2025-08-14T23:15:38.081Z,5,GR86-025-47,-6.4,-0.948,-0.024,2.54,4.0,,89.27,90.52,157.88
2025-08-14T23:15:38.124Z,5,GR86-025-47,0.2,-0.852,0.126,2.51,4.0,,83.99,84.45,
2025-08-14T23:15:38.168Z,5,GR86-025-47,0.3,-0.809,-0.04,2.5,4.0,,76.83500000000001,76.985,
2025-08-14T23:15:38.211Z,5,GR86-025-47,0.1,-0.8190000000000001,-0.114,2.5,4.0,,69.935,71.05,
2025-08-14T23:15:38.254Z,5,GR86-025-47,4.4,-1.019,0.1,2.51,4.0,5846.0,67.905,68.745,
2025-08-14T23:15:38.297Z,5,GR86-025-47,9.5,-1.043,0.041,28.81,4.0,,68.44,69.31,154.62
2025-08-14T23:15:38.340Z,5,GR86-025-47,14.5,-0.905,0.019,57.55,3.0,,61.940000000000005,63.375,
2025-08-14T23:15:38.383Z,5,GR86-025-47,16.8,-0.959,0.074,32.88,3.0,,59.68,61.27,
2025-08-14T23:15:38.426Z,5,GR86-025-47,9.3,-0.901,0.197,6.05,3.0,,60.675,62.305,
2025-08-14T23:15:38.471Z,5,GR86-025-47,-3.9,-1.004,0.197,3.85,3.0,5933.0,61.940000000000005,63.56,
2025-08-14T23:15:38.514Z,5,GR86-025-47,-14.5,-1.017,-0.154,3.8,3.0,,56.555,57.47,148.84
2025-08-14T23:15:38.557Z,5,GR86-025-47,-24.5,-0.856,0.002,3.64,3.0,,57.865,59.485,
2025-08-14T23:15:38.601Z,5,GR86-025-47,-30.6,-0.762,0.078,3.39,3.0,,58.645,59.3,
2025-08-14T23:15:38.644Z,5,GR86-025-47,-30.9,-1.015,-0.261,3.04,3.0,,58.615,59.39,
2025-08-14T23:15:38.688Z,5,GR86-025-47,-22.700000000000003,-0.803,0.048,2.76,3.0,5918.0,55.975,57.33,
2025-08-14T23:15:38.731Z,5,GR86-025-47,-16.0,-0.732,0.055,2.66,3.0,,49.46,50.31,140.25
2025-08-14T23:15:38.774Z,5,GR86-025-47,-15.3,-0.978,-0.113,2.62,3.0,,49.46,50.465,
2025-08-14T23:15:38.818Z,5,GR86-025-47,-20.3,-0.937,0.08,2.54,3.0,,52.115,53.0,
2025-08-14T23:15:38.861Z,5,GR86-025-47,-30.1,-0.967,-0.188,2.51,3.0,,54.8,55.745000000000005,
2025-08-14T23:15:38.904Z,5,GR86-025-47,-37.0,-0.914,-0.287,2.51,3.0,6165.0,55.15,55.945,
2025-08-14T23:15:38.948Z,5,GR86-025-47,-31.6,-0.782,-0.23,2.5,3.0,,52.175,52.405,136.71
2025-08-14T23:15:38.991Z,5,GR86-025-47,-15.0,-0.862,-0.324,2.51,3.0,,53.06,53.805,
2025-08-14T23:15:39.035Z,5,GR86-025-47,1.2000000000000002,-0.921,-0.285,2.49,3.0,,49.17,50.31,
2025-08-14T23:15:39.078Z,5,GR86-025-47,8.4,-0.795,-0.241,2.51,3.0,,43.645,45.03,
2025-08-14T23:15:39.121Z,5,GR86-025-47,7.9,-0.739,-0.278,2.5,3.0,5930.0,32.38,33.495,
2025-08-14T23:15:39.164Z,5,GR86-025-47,-2.6,-0.86,-0.23,2.51,3.0,,30.045,30.705,132.79
2025-08-14T23:15:39.208Z,5,GR86-025-47,-20.3,-0.6980000000000001,-0.36,2.51,3.0,,26.26,27.025,
2025-08-14T23:15:39.251Z,5,GR86-025-47,-30.3,-0.609,-0.453,2.51,3.0,,23.365,24.11,
2025-08-14T23:15:39.294Z,5,GR86-025-47,-37.9,-0.546,-0.485,2.51,3.0,,21.745,22.495,
2025-08-14T23:15:39.337Z,5,GR86-025-47,-41.0,-0.614,-0.46,2.5,3.0,5798.0,21.305,21.805,
2025-08-14T23:15:39.424Z,5,GR86-025-47,-29.9,-0.53,-0.45,2.5,3.0,,22.875,23.485,128.98
2025-08-14T23:15:39.467Z,5,GR86-025-47,-16.3,-0.68,-0.507,2.5,3.0,,24.675,25.055,
2025-08-14T23:15:39.511Z,5,GR86-025-47,-13.3,-0.589,-0.529,2.51,3.0,,25.605,26.26,
2025-08-14T23:15:39.554Z,5,GR86-025-47,-13.1,-0.602,-0.596,2.51,3.0,5567.0,25.21,25.835,
2025-08-14T23:15:39.597Z,5,GR86-025-47,-14.0,-0.5660000000000001,-0.5640000000000001,2.5,3.0,,25.745,26.46,125.49
2025-08-14T23:15:39.640Z,5,GR86-025-47,-14.4,-0.62,-0.577,2.49,3.0,,26.2,26.78,
2025-08-14T23:15:39.726Z,5,GR86-025-47,-11.8,-0.562,-0.61,2.49,3.0,,26.295,26.935,
2025-08-14T23:15:39.769Z,5,GR86-025-47,-10.3,-0.59,-0.533,2.49,3.0,5429.0,20.63,21.47,
2025-08-14T23:15:39.812Z,5,GR86-025-47,-20.1,-0.504,-0.656,2.49,3.0,,10.025,10.715,122.22
2025-08-14T23:15:39.855Z,5,GR86-025-47,-33.4,-0.371,-0.758,2.48,3.0,,3.035,3.465,
2025-08-14T23:15:39.898Z,5,GR86-025-47,-48.7,-0.216,-0.77,2.48,3.0,,0.0,0.0,
2025-08-14T23:15:39.941Z,5,GR86-025-47,-62.5,-0.223,-0.849,2.49,3.0,,0.0,0.0,
2025-08-14T23:15:39.984Z,5,GR86-025-47,-70.60000000000001,-0.184,-0.874,2.5,3.0,5200.0,0.0,0.0,
2025-08-14T23:15:40.028Z,5,GR86-025-47,-71.3,-0.208,-0.932,2.51,3.0,,0.0,0.0,118.22
2025-08-14T23:15:40.071Z,5,GR86-025-47,-64.2,-0.207,-0.936,2.49,3.0,,0.0,0.0,
2025-08-14T23:15:40.157Z,5,GR86-025-47,-55.1,-0.192,-0.891,2.5,3.0,,0.0,0.0,
2025-08-14T23:15:40.201Z,5,GR86-025-47,-47.400000000000006,-0.174,-0.87,3.17,3.0,5287.0,0.0,0.0,
2025-08-14T23:15:40.244Z,5,GR86-025-47,-47.1,-0.179,-0.907,3.59,3.0,,0.0,0.0,117.19
2025-08-14T23:15:40.288Z,5,GR86-025-47,-49.2,-0.186,-0.932,5.84,3.0,,0.0,0.0,
2025-08-14T23:15:40.331Z,5,GR86-025-47,-49.0,-0.18,-0.927,16.42,3.0,,0.0,0.0,
2025-08-14T23:15:40.374Z,5,GR86-025-47,-48.7,-0.194,-0.925,18.73,3.0,,0.0,0.0,
2025-08-14T23:15:40.417Z,5,GR86-025-47,-48.6,-0.171,-0.924,20.83,3.0,5215.0,0.0,0.0,
2025-08-14T23:15:40.460Z,5,GR86-025-47,-54.0,-0.14,-0.943,21.12,3.0,,0.0,0.0,115.33
2025-08-14T23:15:40.503Z,5,GR86-025-47,-62.5,-0.14,-0.998,21.41,3.0,,0.0,0.0,
2025-08-14T23:15:40.547Z,5,GR86-025-47,-72.5,-0.13,-0.969,22.25,3.0,,0.0,0.0,
2025-08-14T23:15:40.591Z,5,GR86-025-47,-76.5,0.014,-0.951,22.44,3.0,,0.0,0.0,
2025-08-14T23:15:40.634Z,5,GR86-025-47,-77.5,0.035,-0.941,22.52,3.0,5212.0,0.0,0.0,
2025-08-14T23:15:40.677Z,5,GR86-025-47,-77.10000000000001,0.005,-0.96,22.64,3.0,,0.0,0.0,113.98
2025-08-14T23:15:40.721Z,5,GR86-025-47,-76.0,-0.019,-0.967,22.96,3.0,,0.0,0.0,
2025-08-14T23:15:40.764Z,5,GR86-025-47,-66.7,-0.028,-0.996,23.16,3.0,,0.0,0.0,
2025-08-14T23:15:40.808Z,5,GR86-025-47,-54.2,-0.016,-0.992,24.58,3.0,,0.0,0.0,
2025-08-14T23:15:40.851Z,5,GR86-025-47,-51.0,0.023,-0.96,24.68,3.0,5316.0,0.0,0.0,
2025-08-14T23:15:40.894Z,5,GR86-025-47,-48.1,0.029,-0.97,24.68,3.0,,0.0,0.0,113.03
2025-08-14T23:15:40.937Z,5,GR86-025-47,-44.900000000000006,0.023,-0.928,24.94,3.0,,0.0,0.0,
2025-08-14T23:15:40.981Z,5,GR86-025-47,-43.3,0.037,-0.932,25.59,3.0,,0.0,0.0,
2025-08-14T23:15:41.024Z,5,GR86-025-47,-43.2,0.033,-0.957,27.53,3.0,,0.0,0.0,
2025-08-14T23:15:41.068Z,5,GR86-025-47,-53.0,0.035,-0.941,28.01,3.0,5317.0,0.0,0.0,
2025-08-14T23:15:41.111Z,5,GR86-025-47,-62.0,0.044,-0.933,28.13,3.0,,0.0,0.0,113.1
2025-08-14T23:15:41.154Z,5,GR86-025-47,-69.8,0.039,-0.918,28.13,3.0,,0.0,0.0,
2025-08-14T23:15:41.197Z,5,GR86-025-47,-74.7,0.039,-0.941,28.04,3.0,,0.0,0.0,
2025-08-14T23:15:41.240Z,5,GR86-025-47,-77.2,0.049,-0.925,27.71,3.0,,0.0,0.0,
2025-08-14T23:15:41.283Z,5,GR86-025-47,-78.30000000000001,0.042,-0.925,27.63,3.0,5335.0,0.0,0.0,
2025-08-14T23:15:41.326Z,5,GR86-025-47,-79.80000000000001,0.017,-0.977,27.08,3.0,,0.0,0.0,112.1
2025-08-14T23:15:41.369Z,5,GR86-025-47,-81.10000000000001,0.034,-0.903,25.86,3.0,,0.0,0.0,
2025-08-14T23:15:41.412Z,5,GR86-025-47,-82.0,0.028,-0.929,22.05,3.0,,0.0,0.0,
2025-08-14T23:15:41.455Z,5,GR86-025-47,-83.30000000000001,0.021,-0.803,22.03,3.0,,0.0,0.0,
2025-08-14T23:15:41.498Z,5,GR86-025-47,-83.9,0.009,-0.939,22.02,3.0,5329.0,0.0,0.0,
2025-08-14T23:15:41.541Z,5,GR86-025-47,-84.0,-0.013,-0.926,20.46,3.0,,0.0,0.0,111.84
2025-08-14T23:15:41.585Z,5,GR86-025-47,-84.10000000000001,-0.025,-0.95,19.42,3.0,,0.0,0.0,
2025-08-14T23:15:41.628Z,5,GR86-025-47,-84.60000000000001,-0.014,-0.882,13.13,3.0,,0.0,0.0,
2025-08-14T23:15:41.671Z,5,GR86-025-47,-85.5,-0.02,-0.877,12.34,3.0,,0.0,0.0,
2025-08-14T23:15:41.714Z,5,GR86-025-47,-86.4,-0.049,-0.88,20.79,3.0,5291.0,0.0,0.0,
2025-08-14T23:15:41.758Z,5,GR86-025-47,-86.7,-0.085,-0.889,21.69,3.0,,0.0,0.0,111.87
2025-08-14T23:15:41.801Z,5,GR86-025-47,-86.7,-0.125,-0.935,21.78,3.0,,0.0,0.0,
2025-08-14T23:15:41.844Z,5,GR86-025-47,-86.7,-0.093,-0.944,22.49,3.0,,0.0,0.0,
2025-08-14T23:15:41.888Z,5,GR86-025-47,-86.60000000000001,-0.034,-0.98,25.33,3.0,,0.0,0.0,
2025-08-14T23:15:41.931Z,5,GR86-025-47,-86.60000000000001,-0.023,-0.932,26.78,3.0,5239.0,0.0,0.0,
2025-08-14T23:15:41.974Z,5,GR86-025-47,-86.5,-0.01,-0.923,27.47,3.0,,0.0,0.0,111.92
2025-08-14T23:15:42.017Z,5,GR86-025-47,-84.2,0.013,-0.925,29.01,3.0,,0.0,0.0,
2025-08-14T23:15:42.060Z,5,GR86-025-47,-77.10000000000001,0.023,-0.914,29.39,3.0,,0.0,0.0,
2025-08-14T23:15:42.103Z,5,GR86-025-47,-68.7,0.051,-0.931,29.92,3.0,,0.0,0.0,
2025-08-14T23:15:42.147Z,5,GR86-025-47,-61.8,0.074,-0.899,33.5,3.0,5299.0,0.0,0.0,
2025-08-14T23:15:42.191Z,5,GR86-025-47,-61.0,0.063,-0.896,36.13,3.0,,0.0,0.0,111.72
2025-08-14T23:15:42.234Z,5,GR86-025-47,-57.1,0.061,-0.895,39.2,3.0,,0.0,0.0,
2025-08-14T23:15:42.278Z,5,GR86-025-47,-47.2,0.076,-0.886,41.89,3.0,,0.0,0.0,
2025-08-14T23:15:42.321Z,5,GR86-025-47,-33.4,0.104,-0.881,59.43,3.0,,0.0,0.0,
2025-08-14T23:15:42.364Z,5,GR86-025-47,-24.1,0.128,-0.865,95.53,3.0,5329.0,0.0,0.0,
2025-08-14T23:15:42.408Z,5,GR86-025-47,-23.5,0.167,-0.873,100.04,3.0,,0.0,0.0,112.23
2025-08-14T23:15:42.451Z,5,GR86-025-47,-35.0,0.181,-0.86,100.03,3.0,,0.0,0.0,
2025-08-14T23:15:42.494Z,5,GR86-025-47,-48.5,0.166,-0.877,100.03,3.0,,0.0,0.0,
2025-08-14T23:15:42.537Z,5,GR86-025-47,-61.0,0.166,-0.894,100.05,3.0,,0.0,0.0,
2025-08-14T23:15:42.581Z,5,GR86-025-47,-69.8,0.138,-0.908,100.03,3.0,5407.0,0.0,0.0,
2025-08-14T23:15:42.624Z,5,GR86-025-47,-73.7,0.129,-0.908,100.03,3.0,,0.0,0.0,112.29
2025-08-14T23:15:42.668Z,5,GR86-025-47,-73.60000000000001,0.135,-0.893,100.03,3.0,,0.0,0.0,
2025-08-14T23:15:42.711Z,5,GR86-025-47,-66.9,0.145,-0.853,100.03,3.0,,0.0,0.0,
2025-08-14T23:15:42.754Z,5,GR86-025-47,-56.0,0.133,-0.903,100.04,3.0,,0.0,0.0,
2025-08-14T23:15:42.797Z,5,GR86-025-47,-44.1,0.15,-0.91,100.03,3.0,5421.0,0.0,0.0,
2025-08-14T23:15:42.840Z,5,GR86-025-47,-33.0,0.168,-0.886,100.03,3.0,,0.0,0.0,112.57
2025-08-14T23:15:42.883Z,5,GR86-025-47,-24.6,0.176,-0.875,100.04,3.0,,0.0,0.0,
2025-08-14T23:15:42.926Z,5,GR86-025-47,-17.900000000000002,0.176,-0.8320000000000001,100.05,3.0,,0.0,0.0,
2025-08-14T23:15:42.971Z,5,GR86-025-47,-17.6,0.182,-0.803,100.03,3.0,,0.0,0.0,
2025-08-14T23:15:43.014Z,5,GR86-025-47,-20.5,0.187,-0.799,100.03,3.0,5484.0,0.0,0.0,
2025-08-14T23:15:43.058Z,5,GR86-025-47,-30.4,0.171,-0.839,100.05,3.0,,0.0,0.0,115.01
2025-08-14T23:15:43.101Z,5,GR86-025-47,-38.900000000000006,0.171,-0.849,100.03,3.0,,0.0,0.0,
2025-08-14T23:15:43.144Z,5,GR86-025-47,-42.3,0.165,-0.839,100.03,3.0,,0.0,0.0,
2025-08-14T23:15:43.188Z,5,GR86-025-47,-42.1,0.161,-0.8140000000000001,100.04,3.0,,0.0,0.0,
2025-08-14T23:15:43.231Z,5,GR86-025-47,-42.0,0.167,-0.8320000000000001,100.04,3.0,5516.0,0.0,0.0,
2025-08-14T23:15:43.274Z,5,GR86-025-47,-43.8,0.156,-0.8240000000000001,100.04,3.0,,0.0,0.0,115.61
2025-08-14T23:15:43.318Z,5,GR86-025-47,-46.0,0.154,-0.8240000000000001,100.03,3.0,,0.0,0.0,
2025-08-14T23:15:43.361Z,5,GR86-025-47,-46.0,0.167,-0.8160000000000001,100.03,3.0,,0.0,0.0,
2025-08-14T23:15:43.404Z,5,GR86-025-47,-45.5,0.174,-0.779,100.04,3.0,,0.0,0.0,
2025-08-14T23:15:43.448Z,5,GR86-025-47,-38.3,0.164,-0.767,100.03,3.0,5598.0,0.0,0.0,
2025-08-14T23:15:43.491Z,5,GR86-025-47,-32.4,0.158,-0.757,100.03,3.0,,0.0,0.0,116.61
2025-08-14T23:15:43.534Z,5,GR86-025-47,-27.3,0.179,-0.73,100.02,3.0,,0.0,0.0,
2025-08-14T23:15:43.577Z,5,GR86-025-47,-24.5,0.176,-0.743,100.03,3.0,,0.0,0.0,
2025-08-14T23:15:43.621Z,5,GR86-025-47,-23.9,0.185,-0.726,100.01,3.0,,0.0,0.0,
2025-08-14T23:15:43.664Z,5,GR86-025-47,-23.9,0.179,-0.707,100.02,3.0,5661.0,0.0,0.0,
2025-08-14T23:15:43.708Z,5,GR86-025-47,-24.6,0.177,-0.762,100.0,3.0,,0.0,0.0,117.55
2025-08-14T23:15:43.751Z,5,GR86-025-47,-25.6,0.193,-0.742,100.02,3.0,,0.0,0.0,
2025-08-14T23:15:43.794Z,5,GR86-025-47,-26.5,0.189,-0.717,100.03,3.0,,0.0,0.0,
2025-08-14T23:15:43.837Z,5,GR86-025-47,-26.9,0.176,-0.7030000000000001,100.01,3.0,,0.0,0.0,
2025-08-14T23:15:43.881Z,5,GR86-025-47,-28.3,0.16,-0.6900000000000001,100.01,3.0,5686.0,0.0,0.0,
2025-08-14T23:15:43.924Z,5,GR86-025-47,-30.4,0.18,-0.647,100.03,3.0,,0.0,0.0,118.83
2025-08-14T23:15:43.968Z,5,GR86-025-47,-33.1,0.231,-0.5730000000000001,100.03,3.0,,0.0,0.0,
2025-08-14T23:15:44.011Z,5,GR86-025-47,-32.800000000000004,0.115,-0.539,100.03,3.0,,0.0,0.0,
2025-08-14T23:15:44.054Z,5,GR86-025-47,-26.1,0.1,-0.519,100.01,3.0,,0.0,0.0,
2025-08-14T23:15:44.097Z,5,GR86-025-47,-14.2,0.164,-0.53,100.03,3.0,5781.0,0.0,0.0,
2025-08-14T23:15:44.140Z,5,GR86-025-47,-3.9,0.149,-0.562,100.01,3.0,,0.0,0.0,119.82
2025-08-14T23:15:44.183Z,5,GR86-025-47,0.1,0.212,-0.498,100.01,3.0,,0.0,0.0,
2025-08-14T23:15:44.226Z,5,GR86-025-47,-0.4,0.173,-0.397,100.02,3.0,,0.0,0.0,
2025-08-14T23:15:44.269Z,5,GR86-025-47,-7.0,0.336,-0.585,100.03,3.0,,0.0,0.0,
2025-08-14T23:15:44.312Z,5,GR86-025-47,-15.8,0.089,-0.33,100.03,3.0,5860.0,0.0,0.0,
2025-08-14T23:15:44.355Z,5,GR86-025-47,-24.5,-0.084,-0.461,100.04,3.0,,0.0,0.0,121.11
2025-08-14T23:15:44.398Z,5,GR86-025-47,-30.0,-0.021,-0.586,100.04,3.0,,0.0,0.0,
2025-08-14T23:15:44.441Z,5,GR86-025-47,-31.3,0.039,-0.7010000000000001,100.03,3.0,,0.0,0.0,
2025-08-14T23:15:44.484Z,5,GR86-025-47,-26.200000000000003,0.187,-0.602,100.04,3.0,,0.0,0.0,
2025-08-14T23:15:44.528Z,5,GR86-025-47,-8.5,0.01,-0.542,100.02,3.0,5928.0,0.0,0.0,
2025-08-14T23:15:44.571Z,5,GR86-025-47,-1.6,0.312,-0.543,100.03,3.0,,0.0,0.0,122.19
2025-08-14T23:15:44.614Z,5,GR86-025-47,-0.9,0.097,-0.488,100.01,3.0,,0.0,0.0,
2025-08-14T23:15:44.657Z,5,GR86-025-47,-1.3,0.204,-0.613,100.01,3.0,,0.0,0.0,
2025-08-14T23:15:44.701Z,5,GR86-025-47,-7.4,0.307,-0.539,100.01,3.0,,0.0,0.0,
2025-08-14T23:15:44.744Z,5,GR86-025-47,-14.5,0.296,-0.533,100.01,3.0,5986.0,0.0,0.0,
2025-08-14T23:15:44.788Z,5,GR86-025-47,-25.700000000000003,0.184,-0.423,100.01,3.0,,0.0,0.0,123.47
2025-08-14T23:15:44.831Z,5,GR86-025-47,-30.0,0.142,-0.503,100.0,3.0,,0.0,0.0,
2025-08-14T23:15:44.874Z,5,GR86-025-47,-30.6,0.055,-0.452,100.0,3.0,,0.0,0.0,
2025-08-14T23:15:44.917Z,5,GR86-025-47,-24.5,0.239,-0.376,100.01,3.0,,0.0,0.0,
2025-08-14T23:15:44.960Z,5,GR86-025-47,-15.4,0.188,-0.293,100.02,3.0,5977.0,0.0,0.0,
2025-08-14T23:15:45.003Z,5,GR86-025-47,-9.9,0.063,-0.402,100.03,3.0,,0.0,0.0,124.96
2025-08-14T23:15:45.048Z,5,GR86-025-47,-9.2,0.304,-0.324,100.03,3.0,,0.0,0.0,
2025-08-14T23:15:45.091Z,5,GR86-025-47,-10.6,0.205,-0.33,100.01,3.0,,0.0,0.0,
2025-08-14T23:15:45.134Z,5,GR86-025-47,-15.5,0.097,-0.461,100.01,3.0,,0.0,0.0,
2025-08-14T23:15:45.221Z,5,GR86-025-47,-16.400000000000002,0.144,-0.483,100.01,3.0,6045.0,0.0,0.0,125.9
2025-08-14T23:15:45.264Z,5,GR86-025-47,-9.2,0.315,-0.345,100.01,3.0,,0.0,0.0,
2025-08-14T23:15:45.308Z,5,GR86-025-47,-2.2,0.166,-0.25,100.02,3.0,,0.0,0.0,
2025-08-14T23:15:45.351Z,5,GR86-025-47,-1.8,0.122,-0.203,100.01,3.0,,0.0,0.0,
2025-08-14T23:15:45.394Z,5,GR86-025-47,-1.9,0.198,-0.22,100.0,3.0,6088.0,0.0,0.0,
2025-08-14T23:15:45.437Z,5,GR86-025-47,-2.1,0.266,-0.252,100.03,3.0,,0.0,0.0,127.56
2025-08-14T23:15:45.481Z,5,GR86-025-47,-2.4000000000000004,0.205,-0.339,100.01,3.0,,0.0,0.0,
2025-08-14T23:15:45.524Z,5,GR86-025-47,-5.9,0.203,-0.113,100.02,3.0,,0.0,0.0,
2025-08-14T23:15:45.568Z,5,GR86-025-47,-10.5,0.127,-0.219,100.01,3.0,,0.0,0.0,
2025-08-14T23:15:45.611Z,5,GR86-025-47,-10.8,0.07,-0.18,100.02,3.0,6245.0,0.0,0.0,
2025-08-14T23:15:45.654Z,5,GR86-025-47,-10.9,0.163,-0.181,100.01,3.0,,0.0,0.0,129.9
2025-08-14T23:15:45.697Z,5,GR86-025-47,-9.9,0.292,-0.147,100.01,3.0,,0.0,0.0,
2025-08-14T23:15:45.740Z,5,GR86-025-47,-9.7,0.289,-0.143,100.02,3.0,,0.0,0.0,
2025-08-14T23:15:45.783Z,5,GR86-025-47,-9.9,0.136,-0.167,100.01,3.0,,0.0,0.0,
2025-08-14T23:15:45.826Z,5,GR86-025-47,-10.2,0.218,-0.18,100.01,3.0,6319.0,0.0,0.0,
2025-08-14T23:15:45.869Z,5,GR86-025-47,-10.3,0.217,-0.176,100.01,3.0,,0.0,0.0,131.6
2025-08-14T23:15:45.912Z,5,GR86-025-47,-8.3,0.216,-0.052,100.03,3.0,,0.0,0.0,
2025-08-14T23:15:45.955Z,5,GR86-025-47,-4.2,0.119,-0.094,100.01,3.0,,0.0,0.0,
2025-08-14T23:15:45.998Z,5,GR86-025-47,-0.7000000000000001,0.245,-0.069,100.01,3.0,,0.0,0.0,
2025-08-14T23:15:46.041Z,5,GR86-025-47,1.8,0.274,0.049,100.0,3.0,6289.0,0.0,0.0,
2025-08-14T23:15:46.085Z,5,GR86-025-47,1.8,0.086,-0.003,100.01,3.0,,0.0,0.0,132.95
2025-08-14T23:15:46.128Z,5,GR86-025-47,0.2,0.307,0.055,100.02,3.0,,0.0,0.0,
2025-08-14T23:15:46.171Z,5,GR86-025-47,-4.0,0.109,0.075,100.01,3.0,,0.0,0.0,
2025-08-14T23:15:46.214Z,5,GR86-025-47,-6.7,0.287,-0.002,100.05,3.0,,0.0,0.0,
2025-08-14T23:15:46.257Z,5,GR86-025-47,-9.4,0.32,0.078,100.02,3.0,6389.0,0.0,0.0,
2025-08-14T23:15:46.301Z,5,GR86-025-47,-11.9,0.188,0.075,100.01,3.0,,0.0,0.0,134.39
2025-08-14T23:15:46.344Z,5,GR86-025-47,-12.7,0.073,0.144,100.02,3.0,,0.0,0.0,
2025-08-14T23:15:46.388Z,5,GR86-025-47,-12.8,0.139,0.179,100.02,3.0,,0.0,0.0,
2025-08-14T23:15:46.431Z,5,GR86-025-47,-10.2,0.274,0.127,100.02,3.0,,0.0,0.0,
2025-08-14T23:15:46.474Z,5,GR86-025-47,-9.4,0.362,0.116,100.03,3.0,6618.0,0.0,0.0,
2025-08-14T23:15:46.517Z,5,GR86-025-47,-9.4,0.187,0.104,100.0,3.0,,0.0,0.0,135.67000000000002
2025-08-14T23:15:46.560Z,5,GR86-025-47,-9.2,0.185,0.085,100.04,3.0,,0.0,0.0,
2025-08-14T23:15:46.603Z,5,GR86-025-47,-7.6,0.145,0.1,100.01,3.0,,0.0,0.0,
2025-08-14T23:15:46.648Z,5,GR86-025-47,-5.9,0.086,0.111,100.04,3.0,,0.0,0.0,
2025-08-14T23:15:46.691Z,5,GR86-025-47,-4.2,0.085,0.071,100.01,3.0,6507.0,0.0,0.0,
2025-08-14T23:15:46.734Z,5,GR86-025-47,-3.4000000000000004,0.44,0.079,100.03,3.0,,0.0,0.0,137.43
2025-08-14T23:15:46.777Z,5,GR86-025-47,-3.9,0.392,0.036,100.01,3.0,,0.0,0.0,
2025-08-14T23:15:46.821Z,5,GR86-025-47,-4.6000000000000005,0.204,0.1,100.02,3.0,,0.0,0.0,
2025-08-14T23:15:46.864Z,5,GR86-025-47,-5.4,0.133,0.146,100.03,3.0,,0.0,0.0,
2025-08-14T23:15:46.908Z,5,GR86-025-47,-5.6000000000000005,0.163,0.09,100.03,3.0,6559.0,0.0,0.0,
2025-08-14T23:15:46.951Z,5,GR86-025-47,-6.1000000000000005,0.185,0.062,100.01,3.0,,0.0,0.0,139.14
2025-08-14T23:15:46.994Z,5,GR86-025-47,-7.5,0.237,0.107,100.01,3.0,,0.0,0.0,
2025-08-14T23:15:47.037Z,5,GR86-025-47,-8.700000000000001,0.209,0.114,100.03,3.0,,0.0,0.0,
2025-08-14T23:15:47.081Z,5,GR86-025-47,-8.8,0.207,0.059,100.03,3.0,,0.0,0.0,
2025-08-14T23:15:47.124Z,5,GR86-025-47,-8.9,0.175,0.04,100.01,3.0,6691.0,0.0,0.0,
2025-08-14T23:15:47.168Z,5,GR86-025-47,-8.3,0.219,0.041,100.03,3.0,,0.0,0.0,140.15
2025-08-14T23:15:47.211Z,5,GR86-025-47,-8.1,0.16,-0.011,100.03,3.0,,0.0,0.0,
2025-08-14T23:15:47.254Z,5,GR86-025-47,-8.1,0.201,0.001,100.03,3.0,,0.0,0.0,
2025-08-14T23:15:47.297Z,5,GR86-025-47,-7.800000000000001,0.203,0.014,100.04,3.0,,0.0,0.0,
2025-08-14T23:15:47.340Z,5,GR86-025-47,-6.9,0.194,0.001,100.03,3.0,6744.0,0.0,0.0,
2025-08-14T23:15:47.383Z,5,GR86-025-47,-5.5,0.237,-0.029,100.03,3.0,,0.0,0.0,141.9
2025-08-14T23:15:47.426Z,5,GR86-025-47,-4.4,0.171,0.007,100.03,3.0,,0.0,0.0,
2025-08-14T23:15:47.471Z,5,GR86-025-47,-4.5,0.205,-0.011,100.02,3.0,,0.0,0.0,
2025-08-14T23:15:47.514Z,5,GR86-025-47,-4.6000000000000005,0.165,-0.01,100.02,3.0,,0.0,0.0,
2025-08-14T23:15:47.557Z,5,GR86-025-47,-4.800000000000001,0.211,0.01,100.02,3.0,6823.0,0.0,0.0,
2025-08-14T23:15:47.601Z,5,GR86-025-47,-4.800000000000001,0.204,0.03,100.01,3.0,,0.0,0.0,143.58
2025-08-14T23:15:47.644Z,5,GR86-025-47,-4.800000000000001,0.197,0.023,100.04,3.0,,0.0,0.0,
2025-08-14T23:15:47.688Z,5,GR86-025-47,-4.9,0.205,0.062,100.01,3.0,,0.0,0.0,
2025-08-14T23:15:47.731Z,5,GR86-025-47,-5.0,0.164,0.047,100.03,3.0,,0.0,0.0,
2025-08-14T23:15:47.774Z,5,GR86-025-47,-5.1000000000000005,0.2,0.043,100.03,3.0,6897.0,0.0,0.0,
2025-08-14T23:15:47.818Z,5,GR86-025-47,-5.1000000000000005,0.198,0.055,100.01,3.0,,0.0,0.0,145.35
2025-08-14T23:15:47.861Z,5,GR86-025-47,-5.2,0.192,0.059,100.03,3.0,,0.0,0.0,
2025-08-14T23:15:47.904Z,5,GR86-025-47,-5.300000000000001,0.198,0.064,100.01,3.0,,0.0,0.0,
2025-08-14T23:15:47.948Z,5,GR86-025-47,-5.5,0.187,0.067,100.03,3.0,,0.0,0.0,
2025-08-14T23:15:47.991Z,5,GR86-025-47,-5.5,0.215,0.074,100.03,3.0,6984.0,0.0,0.0,
2025-08-14T23:15:48.035Z,5,GR86-025-47,-5.6000000000000005,0.19,0.075,100.05,3.0,,0.0,0.0,147.08
2025-08-14T23:15:48.078Z,5,GR86-025-47,-5.7,0.194,0.058,100.0,3.0,,0.0,0.0,
2025-08-14T23:15:48.121Z,5,GR86-025-47,-5.800000000000001,0.143,0.034,100.04,3.0,,0.0,0.0,
2025-08-14T23:15:48.164Z,5,GR86-025-47,-5.9,0.189,0.039,100.02,3.0,,0.0,0.0,
2025-08-14T23:15:48.208Z,5,GR86-025-47,-6.0,0.157,0.034,100.03,3.0,7047.0,0.0,0.0,
2025-08-14T23:15:48.251Z,5,GR86-025-47,-6.1000000000000005,0.161,0.038,100.05,3.0,,0.0,0.0,150.55
2025-08-14T23:15:48.294Z,5,GR86-025-47,-6.300000000000001,0.159,0.031,100.02,3.0,,0.0,0.0,
2025-08-14T23:15:48.337Z,5,GR86-025-47,-6.300000000000001,0.19,0.029,100.01,3.0,,0.0,0.0,
2025-08-14T23:15:48.381Z,5,GR86-025-47,-6.4,0.172,0.007,100.04,3.0,,0.0,0.0,
2025-08-14T23:15:48.424Z,5,GR86-025-47,-6.5,0.16,0.027,100.04,3.0,7118.0,0.0,0.0,
2025-08-14T23:15:48.467Z,5,GR86-025-47,-6.300000000000001,0.162,0.015,100.03,3.0,,0.0,0.0,152.17000000000002
2025-08-14T23:15:48.511Z,5,GR86-025-47,-5.5,0.155,0.044,100.04,3.0,,0.0,0.0,
2025-08-14T23:15:48.554Z,5,GR86-025-47,-4.6000000000000005,0.126,0.003,100.03,3.0,,0.0,0.0,
2025-08-14T23:15:48.597Z,5,GR86-025-47,-4.6000000000000005,-0.154,0.031,100.03,4.0,,0.0,0.0,
2025-08-14T23:15:48.640Z,5,GR86-025-47,-4.800000000000001,0.086,0.065,100.03,4.0,7196.0,0.0,0.0,
2025-08-14T23:15:48.683Z,5,GR86-025-47,-4.9,0.455,0.08,100.03,4.0,,0.0,0.0,153.98
2025-08-14T23:15:48.726Z,5,GR86-025-47,-5.0,0.052,0.014,100.0,4.0,,0.0,0.0,
2025-08-14T23:15:48.769Z,5,GR86-025-47,-5.1000000000000005,0.061,0.15,100.02,4.0,,0.0,0.0,
2025-08-14T23:15:48.812Z,5,GR86-025-47,-5.2,0.142,0.018,100.03,4.0,,0.0,0.0,
2025-08-14T23:15:48.855Z,5,GR86-025-47,-5.2,0.186,0.013,100.02,4.0,6203.0,0.0,0.0,
2025-08-14T23:15:48.898Z,5,GR86-025-47,-5.2,0.127,0.138,100.02,4.0,,0.0,0.0,155.47
2025-08-14T23:15:48.941Z,5,GR86-025-47,-5.4,0.107,0.081,100.02,4.0,,0.0,0.0,
2025-08-14T23:15:48.984Z,5,GR86-025-47,-5.5,0.134,0.029,100.03,4.0,,0.0,0.0,
2025-08-14T23:15:49.028Z,5,GR86-025-47,-5.6000000000000005,0.142,0.102,100.01,4.0,,0.0,0.0,
2025-08-14T23:15:49.071Z,5,GR86-025-47,-5.800000000000001,0.152,0.054,100.02,4.0,6226.0,0.0,0.0,
2025-08-14T23:15:49.114Z,5,GR86-025-47,-6.1000000000000005,0.102,0.018,100.02,4.0,,0.0,0.0,156.94
2025-08-14T23:15:49.157Z,5,GR86-025-47,-7.9,0.121,0.012,100.01,4.0,,0.0,0.0,
2025-08-14T23:15:49.201Z,5,GR86-025-47,-8.5,0.139,0.004,100.02,4.0,,0.0,0.0,
2025-08-14T23:15:49.244Z,5,GR86-025-47,-9.2,0.157,-0.052,100.04,4.0,,0.0,0.0,
2025-08-14T23:15:49.288Z,5,GR86-025-47,-11.4,0.113,-0.062,100.03,4.0,6274.0,0.0,0.0,
2025-08-14T23:15:49.331Z,5,GR86-025-47,-12.7,0.112,-0.123,100.03,4.0,,0.0,0.0,158.39
2025-08-14T23:15:49.374Z,5,GR86-025-47,-12.7,0.118,-0.09,100.01,4.0,,0.0,0.0,
2025-08-14T23:15:49.417Z,5,GR86-025-47,-12.7,0.142,-0.152,100.02,4.0,,0.0,0.0,
2025-08-14T23:15:49.460Z,5,GR86-025-47,-12.6,0.147,-0.135,100.0,4.0,,0.0,0.0,
2025-08-14T23:15:49.503Z,5,GR86-025-47,-12.6,0.123,-0.158,100.03,4.0,6335.0,0.0,0.0,
2025-08-14T23:15:49.547Z,5,GR86-025-47,-13.1,0.133,-0.21,100.01,4.0,,0.0,0.0,159.6
2025-08-14T23:15:49.591Z,5,GR86-025-47,-14.0,0.142,-0.214,100.01,4.0,,0.0,0.0,
2025-08-14T23:15:49.634Z,5,GR86-025-47,-14.0,0.133,-0.231,100.02,4.0,,0.0,0.0,
2025-08-14T23:15:49.677Z,5,GR86-025-47,-13.9,0.104,-0.251,100.05,4.0,,0.0,0.0,
2025-08-14T23:15:49.720Z,5,GR86-025-47,-11.9,0.114,-0.234,100.02,4.0,6386.0,0.0,0.0,
2025-08-14T23:15:49.763Z,5,GR86-025-47,-11.2,0.092,-0.237,100.0,4.0,,0.0,0.0,160.79
2025-08-14T23:15:49.806Z,5,GR86-025-47,-11.3,0.139,-0.252,100.01,4.0,,0.0,0.0,
2025-08-14T23:15:49.849Z,5,GR86-025-47,-12.7,0.127,-0.252,100.02,4.0,,0.0,0.0,
2025-08-14T23:15:49.892Z,5,GR86-025-47,-14.0,0.108,-0.271,100.01,4.0,,0.0,0.0,
2025-08-14T23:15:49.935Z,5,GR86-025-47,-15.0,0.098,-0.265,100.03,4.0,6420.0,0.0,0.0,
2025-08-14T23:15:49.978Z,5,GR86-025-47,-15.1,0.137,-0.29,100.01,4.0,,0.0,0.0,162.02
2025-08-14T23:15:50.021Z,5,GR86-025-47,-15.1,0.1,-0.305,100.0,4.0,,0.0,0.0,
2025-08-14T23:15:50.064Z,5,GR86-025-47,-14.7,0.1,-0.299,100.02,4.0,,0.0,0.0,
2025-08-14T23:15:50.108Z,5,GR86-025-47,-13.3,0.107,-0.264,100.02,4.0,,0.0,0.0,
2025-08-14T23:15:50.151Z,5,GR86-025-47,-13.1,0.097,-0.264,100.01,4.0,6483.0,0.0,0.0,
2025-08-14T23:15:50.194Z,5,GR86-025-47,-13.3,0.089,-0.276,100.0,4.0,,0.0,0.0,163.31
2025-08-14T23:15:50.237Z,5,GR86-025-47,-16.8,0.095,-0.314,91.34,4.0,,4.87,5.22,
2025-08-14T23:15:50.281Z,5,GR86-025-47,-18.6,0.127,-0.296,60.55,4.0,,7.675,8.040000000000001,
2025-08-14T23:15:50.324Z,5,GR86-025-47,-19.1,-0.045,-0.36,3.2,4.0,,16.28,16.525,
2025-08-14T23:15:50.368Z,5,GR86-025-47,-14.7,-0.233,-0.365,3.23,4.0,6522.0,23.99,23.99,
2025-08-14T23:15:50.411Z,5,GR86-025-47,-2.1,-0.664,-0.248,3.17,4.0,,36.15,35.92,164.52
2025-08-14T23:15:50.454Z,5,GR86-025-47,4.9,-0.903,-0.162,3.0700000000000003,4.0,,43.14,42.895,
2025-08-14T23:15:50.497Z,5,GR86-025-47,6.1000000000000005,-0.969,-0.165,2.98,4.0,,49.075,48.77,
2025-08-14T23:15:50.540Z,5,GR86-025-47,5.800000000000001,-0.962,-0.091,2.88,4.0,,51.535,51.505,
2025-08-14T23:15:50.583Z,5,GR86-025-47,5.6000000000000005,-0.989,-0.132,2.83,4.0,6088.0,51.425,51.9,
2025-08-14T23:15:50.626Z,5,GR86-025-47,6.300000000000001,-0.915,-0.162,2.69,4.0,,47.155,48.71,164.37
2025-08-14T23:15:50.669Z,5,GR86-025-47,8.5,-0.898,-0.134,2.67,4.0,,45.9,47.61,
2025-08-14T23:15:50.712Z,5,GR86-025-47,9.1,-0.841,-0.071,2.63,4.0,,39.28,40.835,
2025-08-14T23:15:50.755Z,5,GR86-025-47,8.700000000000001,-0.854,-0.071,2.61,4.0,,32.410000000000004,33.910000000000004,
2025-08-14T23:15:50.798Z,5,GR86-025-47,8.1,-0.773,-0.116,2.6,4.0,5804.0,27.745,29.055,
2025-08-14T23:15:50.841Z,5,GR86-025-47,7.0,-0.6940000000000001,-0.099,2.6,4.0,,26.02,26.995,157.61
2025-08-14T23:15:50.885Z,5,GR86-025-47,5.0,-0.661,-0.06,2.6,4.0,,25.485,26.505,
2025-08-14T23:15:50.928Z,5,GR86-025-47,0.1,-0.6920000000000001,-0.161,2.58,4.0,,23.745,24.675,
2025-08-14T23:15:50.971Z,5,GR86-025-47,-0.3,-0.624,-0.107,2.57,4.0,,23.715,24.49,
2025-08-14T23:15:51.015Z,5,GR86-025-47,0.4,-0.54,-0.057,2.56,4.0,5659.0,23.455,24.02,
2025-08-14T23:15:51.058Z,5,GR86-025-47,2.2,-0.607,-0.017,2.5500000000000003,4.0,,24.08,24.83,147.45000000000002
2025-08-14T23:15:51.101Z,5,GR86-025-47,2.5,-0.682,-0.006,10.07,4.0,,24.92,25.835,
2025-08-14T23:15:51.144Z,5,GR86-025-47,2.1,-0.6970000000000001,0.006,52.83,4.0,,27.59,28.185,
2025-08-14T23:15:51.188Z,5,GR86-025-47,-3.9,-0.799,-0.012,98.47,3.0,,35.92,35.955,
2025-08-14T23:15:51.231Z,5,GR86-025-47,-8.0,-0.8300000000000001,-0.025,43.28,3.0,5624.0,42.18,42.21,
2025-08-14T23:15:51.274Z,5,GR86-025-47,-11.8,-1.015,-0.014,14.29,3.0,,45.155,45.4,143.96
2025-08-14T23:15:51.317Z,5,GR86-025-47,-15.0,-0.969,0.025,3.26,3.0,,54.05,55.395,
2025-08-14T23:15:51.360Z,5,GR86-025-47,-15.7,-0.726,-0.056,3.17,3.0,,54.175,54.645,
2025-08-14T23:15:51.403Z,5,GR86-025-47,-15.7,-0.811,-0.213,3.13,3.0,,54.77,55.01,
2025-08-14T23:15:51.448Z,5,GR86-025-47,-15.8,-0.844,-0.016,3.01,3.0,6126.0,51.425,52.175,
2025-08-14T23:15:51.491Z,5,GR86-025-47,-15.8,-0.8320000000000001,-0.177,2.92,3.0,,49.2,50.555,136.91
2025-08-14T23:15:51.534Z,5,GR86-025-47,-14.1,-0.901,-0.189,2.79,3.0,,45.595,47.275,
2025-08-14T23:15:51.577Z,5,GR86-025-47,-7.300000000000001,-0.864,-0.145,2.73,3.0,,45.43,46.465,
2025-08-14T23:15:51.620Z,5,GR86-025-47,-4.5,-0.843,-0.165,2.63,3.0,,45.4,46.375,
2025-08-14T23:15:51.663Z,5,GR86-025-47,-4.7,-0.808,-0.094,2.59,3.0,5828.0,41.215,42.605,
2025-08-14T23:15:51.706Z,5,GR86-025-47,-5.800000000000001,-0.771,-0.136,2.57,3.0,,35.235,36.805,131.38
2025-08-14T23:15:51.749Z,5,GR86-025-47,-6.1000000000000005,-0.737,-0.151,2.57,3.0,,30.185,31.71,
2025-08-14T23:15:51.792Z,5,GR86-025-47,-6.2,-0.73,-0.191,2.57,3.0,,27.97,28.58,
2025-08-14T23:15:51.835Z,5,GR86-025-47,-3.9,-0.674,-0.214,2.57,3.0,,28.0,28.935,
2025-08-14T23:15:51.878Z,5,GR86-025-47,-0.3,-0.731,-0.177,7.23,3.0,5665.0,28.215,28.84,
2025-08-14T23:15:51.921Z,5,GR86-025-47,3.4000000000000004,-0.742,-0.142,70.22,3.0,,29.985,30.335,126.84
2025-08-14T23:15:51.964Z,5,GR86-025-47,7.1000000000000005,-0.706,-0.128,95.75,2.0,,32.015,32.595,
2025-08-14T23:15:52.009Z,5,GR86-025-47,8.4,-0.884,-0.063,23.97,2.0,,37.89,38.5,
2025-08-14T23:15:52.052Z,5,GR86-025-47,6.800000000000001,-0.8190000000000001,0.004,16.37,2.0,,42.805,44.195,
2025-08-14T23:15:52.095Z,5,GR86-025-47,0.1,-0.78,-0.053,2.97,2.0,6036.0,44.53,45.185,
2025-08-14T23:15:52.138Z,5,GR86-025-47,-5.800000000000001,-0.844,-0.275,2.72,2.0,,43.645,43.95,122.85
2025-08-14T23:15:52.181Z,5,GR86-025-47,-9.0,-0.914,-0.237,2.72,2.0,,44.085,44.195,
2025-08-14T23:15:52.224Z,5,GR86-025-47,-10.3,-0.77,-0.11,2.69,2.0,,44.56,45.03,
2025-08-14T23:15:52.268Z,5,GR86-025-47,-12.6,-0.714,-0.282,2.68,2.0,,42.15,42.865,
2025-08-14T23:15:52.311Z,5,GR86-025-47,-14.5,-0.856,-0.209,2.69,2.0,6351.0,35.02,36.12,
2025-08-14T23:15:52.354Z,5,GR86-025-47,-16.8,-0.834,-0.185,2.69,2.0,,33.555,34.655,115.13
2025-08-14T23:15:52.397Z,5,GR86-025-47,-19.5,-0.68,-0.262,2.67,2.0,,31.83,32.93,
2025-08-14T23:15:52.440Z,5,GR86-025-47,-25.200000000000003,-0.743,-0.298,2.66,2.0,,31.8,32.685,
2025-08-14T23:15:52.483Z,5,GR86-025-47,-34.6,-0.764,-0.306,2.66,2.0,,32.38,32.78,
2025-08-14T23:15:52.526Z,5,GR86-025-47,-47.5,-0.6980000000000001,-0.468,2.63,2.0,6160.0,33.495,34.215,
2025-08-14T23:15:52.614Z,5,GR86-025-47,-47.900000000000006,-0.719,-0.543,2.63,2.0,,31.48,32.595,112.27
2025-08-14T23:15:52.657Z,5,GR86-025-47,-38.400000000000006,-0.6880000000000001,-0.556,2.63,2.0,,27.835,28.84,
2025-08-14T23:15:52.700Z,5,GR86-025-47,-28.8,-0.638,-0.552,2.61,2.0,,23.395,24.43,
2025-08-14T23:15:52.743Z,5,GR86-025-47,-25.0,-0.58,-0.5640000000000001,2.6,2.0,5897.0,19.485,20.115,
2025-08-14T23:15:52.786Z,5,GR86-025-47,-25.6,-0.5670000000000001,-0.597,2.6,2.0,,18.585,19.075,108.4
2025-08-14T23:15:52.829Z,5,GR86-025-47,-27.4,-0.542,-0.682,2.6,2.0,,19.275,19.96,
2025-08-14T23:15:52.872Z,5,GR86-025-47,-27.4,-0.581,-0.657,2.6,2.0,,19.305,19.87,
2025-08-14T23:15:52.915Z,5,GR86-025-47,-24.3,-0.5680000000000001,-0.622,2.57,2.0,,20.295,20.965,
2025-08-14T23:15:52.958Z,5,GR86-025-47,-23.9,-0.555,-0.669,2.57,2.0,5732.0,20.385,20.875,
2025-08-14T23:15:53.001Z,5,GR86-025-47,-25.200000000000003,-0.62,-0.743,2.57,2.0,,21.03,21.625,105.26
2025-08-14T23:15:53.044Z,5,GR86-025-47,-25.5,-0.5750000000000001,-0.801,2.57,2.0,,20.905,21.47,
2025-08-14T23:15:53.088Z,5,GR86-025-47,-25.5,-0.556,-0.716,2.56,2.0,,18.145,19.015,
2025-08-14T23:15:53.131Z,5,GR86-025-47,-25.8,-0.522,-0.739,2.57,2.0,,11.4,12.3,
2025-08-14T23:15:53.174Z,5,GR86-025-47,-33.0,-0.478,-0.78,2.56,2.0,5483.0,6.96,7.495,
2025-08-14T23:15:53.218Z,5,GR86-025-47,-41.6,-0.263,-0.914,2.57,2.0,,0.0,0.0,101.87
2025-08-14T23:15:53.261Z,5,GR86-025-47,-51.1,-0.231,-0.911,2.56,2.0,,0.0,0.0,
2025-08-14T23:15:53.304Z,5,GR86-025-47,-61.1,-0.206,-0.884,2.57,2.0,,0.0,0.0,
2025-08-14T23:15:53.348Z,5,GR86-025-47,-73.7,-0.207,-0.941,2.53,2.0,,0.0,0.0,
2025-08-14T23:15:53.391Z,5,GR86-025-47,-79.5,-0.209,-0.95,2.53,2.0,5357.0,0.0,0.0,
2025-08-14T23:15:53.434Z,5,GR86-025-47,-82.9,-0.222,-0.981,2.54,2.0,,0.0,0.0,98.6
2025-08-14T23:15:53.477Z,5,GR86-025-47,-84.5,-0.217,-0.978,2.54,2.0,,0.0,0.0,
2025-08-14T23:15:53.520Z,5,GR86-025-47,-85.7,-0.224,-0.988,3.26,2.0,,0.0,0.0,
2025-08-14T23:15:53.563Z,5,GR86-025-47,-87.2,-0.21,-0.98,3.7,2.0,,0.0,0.0,
2025-08-14T23:15:53.606Z,5,GR86-025-47,-89.80000000000001,-0.205,-0.974,3.93,2.0,5353.0,0.0,0.0,
2025-08-14T23:15:53.649Z,5,GR86-025-47,-91.5,-0.212,-0.942,3.77,2.0,,0.0,0.0,96.11
2025-08-14T23:15:53.692Z,5,GR86-025-47,-92.4,-0.211,-0.957,3.23,2.0,,0.0,0.0,
2025-08-14T23:15:53.735Z,5,GR86-025-47,-92.6,-0.216,-0.952,3.0700000000000003,2.0,,0.0,0.0,
2025-08-14T23:15:53.778Z,5,GR86-025-47,-92.5,-0.207,-0.939,2.99,2.0,,0.0,0.0,
2025-08-14T23:15:53.821Z,5,GR86-025-47,-92.4,-0.218,-0.999,2.82,2.0,5278.0,0.0,0.0,
2025-08-14T23:15:53.864Z,5,GR86-025-47,-92.4,-0.212,-0.989,2.71,2.0,,0.0,0.0,94.58
2025-08-14T23:15:53.908Z,5,GR86-025-47,-92.3,-0.197,-0.979,2.63,2.0,,0.0,0.0,
2025-08-14T23:15:53.951Z,5,GR86-025-47,-92.3,-0.213,-1.004,2.57,2.0,,0.0,0.0,
2025-08-14T23:15:53.994Z,5,GR86-025-47,-92.3,-0.213,-0.995,2.71,2.0,,0.0,0.0,
2025-08-14T23:15:54.037Z,5,GR86-025-47,-92.3,-0.208,-1.004,3.62,2.0,5195.0,0.0,0.0,
2025-08-14T23:15:54.081Z,5,GR86-025-47,-92.3,-0.209,-1.002,4.14,2.0,,0.0,0.0,93.17
2025-08-14T23:15:54.124Z,5,GR86-025-47,-92.2,-0.213,-1.023,15.47,2.0,,0.0,0.0,
2025-08-14T23:15:54.167Z,5,GR86-025-47,-84.30000000000001,-0.208,-1.024,20.32,2.0,,0.0,0.0,
2025-08-14T23:15:54.211Z,5,GR86-025-47,-76.3,-0.182,-1.019,22.73,2.0,,0.0,0.0,
2025-08-14T23:15:54.254Z,5,GR86-025-47,-71.0,-0.156,-1.005,24.55,2.0,5051.0,0.0,0.0,
2025-08-14T23:15:54.297Z,5,GR86-025-47,-69.0,-0.125,-0.988,25.47,2.0,,0.0,0.0,91.67
2025-08-14T23:15:54.340Z,5,GR86-025-47,-68.8,-0.115,-0.998,26.85,2.0,,0.0,0.0,
2025-08-14T23:15:54.383Z,5,GR86-025-47,-68.5,-0.089,-1.005,27.59,2.0,,0.0,0.0,
2025-08-14T23:15:54.426Z,5,GR86-025-47,-67.9,0.062,-0.972,29.76,2.0,,0.0,0.0,
2025-08-14T23:15:54.469Z,5,GR86-025-47,-67.5,0.087,-0.972,30.64,2.0,5354.0,0.0,0.0,
2025-08-14T23:15:54.512Z,5,GR86-025-47,-66.4,0.117,-0.948,30.85,2.0,,0.0,0.0,90.39
2025-08-14T23:15:54.555Z,5,GR86-025-47,-59.6,0.123,-0.962,32.62,2.0,,0.0,0.0,
2025-08-14T23:15:54.598Z,5,GR86-025-47,-50.6,0.116,-0.967,35.300000000000004,2.0,,0.0,0.0,
2025-08-14T23:15:54.641Z,5,GR86-025-47,-43.3,0.141,-0.928,37.56,2.0,,0.0,0.0,
2025-08-14T23:15:54.684Z,5,GR86-025-47,-38.400000000000006,0.119,-0.939,38.16,2.0,5378.0,0.0,0.0,
2025-08-14T23:15:54.728Z,5,GR86-025-47,-31.8,0.164,-0.908,39.06,2.0,,0.0,0.0,89.99
2025-08-14T23:15:54.771Z,5,GR86-025-47,-28.3,0.156,-0.891,39.18,2.0,,0.0,0.0,
2025-08-14T23:15:54.814Z,5,GR86-025-47,-24.5,0.179,-0.899,39.34,2.0,,0.0,0.0,
2025-08-14T23:15:54.857Z,5,GR86-025-47,-19.1,0.183,-0.9,39.35,2.0,,0.0,0.0,
2025-08-14T23:15:54.901Z,5,GR86-025-47,-14.0,0.199,-0.876,40.1,2.0,5477.0,0.0,0.0,
2025-08-14T23:15:54.944Z,5,GR86-025-47,-10.6,0.193,-0.868,42.17,2.0,,0.0,0.0,90.38
2025-08-14T23:15:54.988Z,5,GR86-025-47,-9.7,0.186,-0.885,42.44,2.0,,0.0,0.0,
2025-08-14T23:15:55.031Z,5,GR86-025-47,-7.9,0.184,-0.887,42.47,2.0,,0.0,0.0,
2025-08-14T23:15:55.074Z,5,GR86-025-47,-1.6,0.205,-0.879,42.47,2.0,,0.0,0.0,
2025-08-14T23:15:55.117Z,5,GR86-025-47,7.7,0.194,-0.844,42.06,2.0,5545.0,0.0,0.0,
2025-08-14T23:15:55.160Z,5,GR86-025-47,15.9,0.209,-0.837,41.65,2.0,,0.0,0.0,91.17
2025-08-14T23:15:55.203Z,5,GR86-025-47,18.5,0.205,-0.81,41.59,2.0,,0.0,0.0,
2025-08-14T23:15:55.248Z,5,GR86-025-47,18.0,0.203,-0.836,41.42,2.0,,0.0,0.0,
2025-08-14T23:15:55.291Z,5,GR86-025-47,15.7,0.225,-0.859,41.31,2.0,,0.0,0.0,
2025-08-14T23:15:55.334Z,5,GR86-025-47,15.5,0.219,-0.841,41.95,2.0,5595.0,0.0,0.0,
2025-08-14T23:15:55.377Z,5,GR86-025-47,13.0,0.234,-0.8230000000000001,42.9,2.0,,0.0,0.0,92.13
2025-08-14T23:15:55.420Z,5,GR86-025-47,5.300000000000001,0.224,-0.843,54.13,2.0,,0.0,0.0,
2025-08-14T23:15:55.463Z,5,GR86-025-47,-5.2,0.221,-0.859,66.68,2.0,,0.0,0.0,
2025-08-14T23:15:55.506Z,5,GR86-025-47,-24.0,0.222,-0.8290000000000001,99.35,2.0,,0.0,0.0,
2025-08-14T23:15:55.549Z,5,GR86-025-47,-38.0,0.231,-0.84,100.0,2.0,5587.0,0.0,0.0,
2025-08-14T23:15:55.592Z,5,GR86-025-47,-50.8,0.246,-0.888,100.01,2.0,,0.0,0.0,93.04
2025-08-14T23:15:55.635Z,5,GR86-025-47,-60.5,0.231,-0.868,100.01,2.0,,0.0,0.0,
2025-08-14T23:15:55.678Z,5,GR86-025-47,-66.4,0.233,-0.87,100.01,2.0,,0.0,0.0,
2025-08-14T23:15:55.721Z,5,GR86-025-47,-69.0,0.235,-0.868,100.0,2.0,,0.0,0.0,
2025-08-14T23:15:55.764Z,5,GR86-025-47,-69.5,0.253,-0.854,100.0,2.0,5667.0,0.0,0.0,
2025-08-14T23:15:55.808Z,5,GR86-025-47,-68.9,0.223,-0.8260000000000001,100.01,2.0,,0.0,0.0,93.07
2025-08-14T23:15:55.851Z,5,GR86-025-47,-67.60000000000001,0.207,-0.8270000000000001,100.01,2.0,,0.0,0.0,
2025-08-14T23:15:55.894Z,5,GR86-025-47,-60.900000000000006,0.212,-0.851,100.01,2.0,,0.0,0.0,
2025-08-14T23:15:55.937Z,5,GR86-025-47,-53.400000000000006,0.216,-0.845,100.0,2.0,,0.0,0.0,
2025-08-14T23:15:55.981Z,5,GR86-025-47,-47.1,0.232,-0.8300000000000001,100.0,2.0,5697.0,0.0,0.0,
2025-08-14T23:15:56.024Z,5,GR86-025-47,-42.1,0.235,-0.846,100.0,2.0,,0.0,0.0,94.78
2025-08-14T23:15:56.068Z,5,GR86-025-47,-35.6,0.234,-0.848,100.01,2.0,,0.0,0.0,
2025-08-14T23:15:56.111Z,5,GR86-025-47,-33.9,0.248,-0.84,100.01,2.0,,0.0,0.0,
2025-08-14T23:15:56.154Z,5,GR86-025-47,-33.9,0.255,-0.793,100.01,2.0,,0.0,0.0,
2025-08-14T23:15:56.197Z,5,GR86-025-47,-33.7,0.259,-0.746,100.01,2.0,5816.0,0.0,0.0,
2025-08-14T23:15:56.240Z,5,GR86-025-47,-33.6,0.244,-0.726,100.01,2.0,,0.0,0.0,97.04
2025-08-14T23:15:56.283Z,5,GR86-025-47,-33.5,0.249,-0.723,100.02,2.0,,0.0,0.0,
2025-08-14T23:15:56.326Z,5,GR86-025-47,-35.0,0.218,-0.73,100.01,2.0,,0.0,0.0,
2025-08-14T23:15:56.369Z,5,GR86-025-47,-39.0,0.25,-0.734,100.01,2.0,,0.0,0.0,
2025-08-14T23:15:56.412Z,5,GR86-025-47,-42.400000000000006,0.254,-0.761,100.01,2.0,5869.0,0.0,0.0,
2025-08-14T23:15:56.455Z,5,GR86-025-47,-43.1,0.246,-0.736,100.01,2.0,,0.0,0.0,99.27
2025-08-14T23:15:56.498Z,5,GR86-025-47,-43.0,0.244,-0.751,100.01,2.0,,0.0,0.0,
2025-08-14T23:15:56.541Z,5,GR86-025-47,-41.5,0.224,-0.739,100.02,2.0,,0.0,0.0,
2025-08-14T23:15:56.628Z,5,GR86-025-47,-38.6,0.258,-0.706,100.02,2.0,5970.0,0.0,0.0,
2025-08-14T23:15:56.671Z,5,GR86-025-47,-38.5,0.243,-0.707,100.02,2.0,,0.0,0.0,100.91
2025-08-14T23:15:56.714Z,5,GR86-025-47,-38.400000000000006,0.232,-0.724,100.0,2.0,,0.0,0.0,
2025-08-14T23:15:56.757Z,5,GR86-025-47,-38.5,0.212,-0.713,100.0,2.0,,0.0,0.0,
2025-08-14T23:15:56.801Z,5,GR86-025-47,-39.0,0.226,-0.734,100.01,2.0,,0.0,0.0,
2025-08-14T23:15:56.844Z,5,GR86-025-47,-39.400000000000006,0.241,-0.758,100.02,2.0,6068.0,0.0,0.0,
2025-08-14T23:15:56.888Z,5,GR86-025-47,-39.3,0.243,-0.773,100.01,2.0,,0.0,0.0,102.55
2025-08-14T23:15:56.931Z,5,GR86-025-47,-39.0,0.233,-0.78,100.0,2.0,,0.0,0.0,
2025-08-14T23:15:56.974Z,5,GR86-025-47,-38.7,0.214,-0.792,100.0,2.0,,0.0,0.0,
2025-08-14T23:15:57.017Z,5,GR86-025-47,-38.6,0.22,-0.789,100.01,2.0,,0.0,0.0,
2025-08-14T23:15:57.060Z,5,GR86-025-47,-39.1,0.244,-0.776,100.01,2.0,6241.0,0.0,0.0,
2025-08-14T23:15:57.103Z,5,GR86-025-47,-40.6,0.217,-0.781,100.01,2.0,,0.0,0.0,104.13
2025-08-14T23:15:57.147Z,5,GR86-025-47,-42.6,0.206,-0.806,100.02,2.0,,0.0,0.0,
2025-08-14T23:15:57.191Z,5,GR86-025-47,-42.900000000000006,0.217,-0.804,100.02,2.0,,0.0,0.0,
2025-08-14T23:15:57.235Z,5,GR86-025-47,-42.900000000000006,0.222,-0.802,100.01,2.0,,0.0,0.0,
2025-08-14T23:15:57.278Z,5,GR86-025-47,-42.8,0.235,-0.797,100.02,2.0,6340.0,0.0,0.0,
2025-08-14T23:15:57.321Z,5,GR86-025-47,-42.6,0.22,-0.8240000000000001,100.0,2.0,,0.0,0.0,105.67
2025-08-14T23:15:57.364Z,5,GR86-025-47,-42.400000000000006,0.22,-0.799,100.02,2.0,,0.0,0.0,
2025-08-14T23:15:57.408Z,5,GR86-025-47,-38.8,0.22,-0.833,100.01,2.0,,0.0,0.0,
2025-08-14T23:15:57.451Z,5,GR86-025-47,-30.4,0.232,-0.741,100.01,2.0,,0.0,0.0,
2025-08-14T23:15:57.494Z,5,GR86-025-47,-21.4,0.242,-0.663,100.02,2.0,6428.0,0.0,0.0,
2025-08-14T23:15:57.537Z,5,GR86-025-47,-15.5,0.282,-0.551,100.01,2.0,,0.0,0.0,107.19
2025-08-14T23:15:57.581Z,5,GR86-025-47,-15.0,0.242,-0.583,100.01,2.0,,0.0,0.0,
2025-08-14T23:15:57.624Z,5,GR86-025-47,-15.3,0.142,-0.402,100.02,2.0,,0.0,0.0,
2025-08-14T23:15:57.668Z,5,GR86-025-47,-23.200000000000003,0.132,-0.339,100.0,2.0,,0.0,0.0,
2025-08-14T23:15:57.711Z,5,GR86-025-47,-27.9,0.281,-0.507,100.0,2.0,6550.0,0.0,0.0,
2025-08-14T23:15:57.754Z,5,GR86-025-47,-29.0,0.25,-0.675,100.01,2.0,,0.0,0.0,108.87
2025-08-14T23:15:57.797Z,5,GR86-025-47,-26.0,0.307,-0.669,100.01,2.0,,0.0,0.0,
2025-08-14T23:15:57.840Z,5,GR86-025-47,-14.2,0.282,-0.682,100.01,2.0,,0.0,0.0,
2025-08-14T23:15:57.883Z,5,GR86-025-47,-2.5,0.277,-0.657,100.01,2.0,,0.0,0.0,
2025-08-14T23:15:57.926Z,5,GR86-025-47,1.7000000000000002,0.287,-0.558,100.01,2.0,6636.0,0.0,0.0,
2025-08-14T23:15:57.971Z,5,GR86-025-47,-0.4,0.256,-0.512,100.01,2.0,,0.0,0.0,110.06
2025-08-14T23:15:58.014Z,5,GR86-025-47,-9.0,0.24,-0.47,100.01,2.0,,0.0,0.0,
2025-08-14T23:15:58.057Z,5,GR86-025-47,-17.900000000000002,0.237,-0.446,100.02,2.0,,0.0,0.0,
2025-08-14T23:15:58.101Z,5,GR86-025-47,-25.4,0.237,-0.399,100.02,2.0,,0.0,0.0,
2025-08-14T23:15:58.144Z,5,GR86-025-47,-30.4,0.218,-0.359,100.02,2.0,6627.0,0.0,0.0,
2025-08-14T23:15:58.188Z,5,GR86-025-47,-31.3,0.259,-0.424,100.0,2.0,,0.0,0.0,112.18
2025-08-14T23:15:58.231Z,5,GR86-025-47,-28.8,0.246,-0.375,100.01,2.0,,0.0,0.0,
2025-08-14T23:15:58.274Z,5,GR86-025-47,-22.700000000000003,0.243,-0.409,100.01,2.0,,0.0,0.0,
2025-08-14T23:15:58.318Z,5,GR86-025-47,-17.8,0.257,-0.407,100.01,2.0,,0.0,0.0,
2025-08-14T23:15:58.361Z,5,GR86-025-47,-15.3,0.29,-0.261,100.0,2.0,6759.0,0.0,0.0,
2025-08-14T23:15:58.404Z,5,GR86-025-47,-14.8,0.24,-0.263,100.01,2.0,,0.0,0.0,113.75
2025-08-14T23:15:58.448Z,5,GR86-025-47,-15.0,0.185,-0.216,100.01,2.0,,0.0,0.0,
2025-08-14T23:15:58.491Z,5,GR86-025-47,-15.1,0.28,-0.237,100.01,2.0,,0.0,0.0,
2025-08-14T23:15:58.534Z,5,GR86-025-47,-15.2,0.302,-0.243,100.02,2.0,,0.0,0.0,
2025-08-14T23:15:58.577Z,5,GR86-025-47,-15.4,0.336,-0.216,100.01,2.0,6783.0,0.0,0.0,
2025-08-14T23:15:58.621Z,5,GR86-025-47,-15.5,0.232,-0.209,100.03,2.0,,0.0,0.0,115.5
2025-08-14T23:15:58.664Z,5,GR86-025-47,-15.5,0.225,-0.135,100.01,2.0,,0.0,0.0,
2025-08-14T23:15:58.708Z,5,GR86-025-47,-6.6000000000000005,0.266,-0.124,100.0,2.0,,0.0,0.0,
2025-08-14T23:15:58.751Z,5,GR86-025-47,-3.9,0.3,-0.114,100.01,2.0,,0.0,0.0,
2025-08-14T23:15:58.794Z,5,GR86-025-47,-4.5,0.281,-0.061,100.01,2.0,6891.0,0.0,0.0,
2025-08-14T23:15:58.838Z,5,GR86-025-47,-5.0,0.224,0.008,100.01,2.0,,0.0,0.0,117.17
2025-08-14T23:15:58.881Z,5,GR86-025-47,-5.6000000000000005,0.183,0.005,100.01,2.0,,0.0,0.0,
2025-08-14T23:15:58.924Z,5,GR86-025-47,-6.1000000000000005,0.235,0.032,100.01,2.0,,0.0,0.0,
2025-08-14T23:15:58.968Z,5,GR86-025-47,-6.300000000000001,0.273,-0.003,100.02,2.0,,0.0,0.0,
2025-08-14T23:15:59.011Z,5,GR86-025-47,-6.6000000000000005,0.245,-0.026,100.01,2.0,6975.0,0.0,0.0,
2025-08-14T23:15:59.054Z,5,GR86-025-47,-6.800000000000001,0.29,-0.01,100.01,2.0,,0.0,0.0,120.7
2025-08-14T23:15:59.097Z,5,GR86-025-47,-7.1000000000000005,0.289,0.05,100.03,2.0,,0.0,0.0,
2025-08-14T23:15:59.140Z,5,GR86-025-47,-7.300000000000001,0.25,0.062,100.04,2.0,,0.0,0.0,
2025-08-14T23:15:59.183Z,5,GR86-025-47,-7.2,0.242,0.083,100.01,2.0,,0.0,0.0,
2025-08-14T23:15:59.226Z,5,GR86-025-47,-7.2,0.119,0.035,100.01,2.0,7131.0,0.0,0.0,
2025-08-14T23:15:59.269Z,5,GR86-025-47,-7.300000000000001,-0.029,0.061,100.0,3.0,,0.0,0.0,122.86
2025-08-14T23:15:59.312Z,5,GR86-025-47,-7.5,0.529,0.115,100.03,3.0,,0.0,0.0,
2025-08-14T23:15:59.355Z,5,GR86-025-47,-7.0,0.539,-0.068,100.03,3.0,,0.0,0.0,
2025-08-14T23:15:59.398Z,5,GR86-025-47,-6.6000000000000005,0.258,-0.01,100.01,3.0,,0.0,0.0,
2025-08-14T23:15:59.441Z,5,GR86-025-47,-6.7,0.154,0.177,100.02,3.0,7019.0,0.0,0.0,
2025-08-14T23:15:59.484Z,5,GR86-025-47,-6.800000000000001,0.122,0.121,100.01,3.0,,0.0,0.0,124.08
2025-08-14T23:15:59.528Z,5,GR86-025-47,-6.800000000000001,0.209,0.011,100.0,3.0,,0.0,0.0,
2025-08-14T23:15:59.571Z,5,GR86-025-47,-6.800000000000001,0.237,0.082,100.01,3.0,,0.0,0.0,
2025-08-14T23:15:59.614Z,5,GR86-025-47,-6.9,0.211,0.026,100.01,3.0,,0.0,0.0,
2025-08-14T23:15:59.658Z,5,GR86-025-47,-7.0,0.176,0.001,100.01,3.0,5951.0,0.0,0.0,
2025-08-14T23:15:59.744Z,5,GR86-025-47,-7.0,0.187,0.01,100.0,3.0,,0.0,0.0,125.97
2025-08-14T23:15:59.788Z,5,GR86-025-47,-7.1000000000000005,0.225,0.001,100.01,3.0,,0.0,0.0,
2025-08-14T23:15:59.831Z,5,GR86-025-47,-7.1000000000000005,0.206,0.03,100.01,3.0,,0.0,0.0,
2025-08-14T23:15:59.874Z,5,GR86-025-47,-7.1000000000000005,0.204,0.03,100.01,3.0,6032.0,0.0,0.0,
2025-08-14T23:15:59.917Z,5,GR86-025-47,-7.1000000000000005,0.207,-0.018,100.01,3.0,,0.0,0.0,127.41
2025-08-14T23:15:59.960Z,5,GR86-025-47,-7.1000000000000005,0.217,0.033,100.02,3.0,,0.0,0.0,
2025-08-14T23:16:00.003Z,5,GR86-025-47,-7.1000000000000005,0.194,0.026,100.02,3.0,,0.0,0.0,
2025-08-14T23:16:00.048Z,5,GR86-025-47,-7.0,0.19,-0.01,100.04,3.0,,0.0,0.0,
2025-08-14T23:16:00.091Z,5,GR86-025-47,-7.0,0.196,-0.007,100.01,3.0,6086.0,0.0,0.0,
2025-08-14T23:16:00.134Z,5,GR86-025-47,-6.9,0.232,0.018,100.01,3.0,,0.0,0.0,128.84
2025-08-14T23:16:00.177Z,5,GR86-025-47,-6.800000000000001,0.205,-0.001,100.0,3.0,,0.0,0.0,
2025-08-14T23:16:00.221Z,5,GR86-025-47,-6.800000000000001,0.181,0.024,100.03,3.0,,0.0,0.0,
2025-08-14T23:16:00.264Z,5,GR86-025-47,-6.800000000000001,0.211,0.032,100.01,3.0,,0.0,0.0,
2025-08-14T23:16:00.308Z,5,GR86-025-47,-6.6000000000000005,0.21,0.013,100.01,3.0,6161.0,0.0,0.0,
2025-08-14T23:16:00.351Z,5,GR86-025-47,-6.6000000000000005,0.223,0.022,100.03,3.0,,0.0,0.0,130.16
2025-08-14T23:16:00.394Z,5,GR86-025-47,-6.6000000000000005,0.188,0.035,100.03,3.0,,0.0,0.0,
2025-08-14T23:16:00.437Z,5,GR86-025-47,-6.6000000000000005,0.193,0.019,100.01,3.0,,0.0,0.0,
2025-08-14T23:16:00.481Z,5,GR86-025-47,-6.7,0.197,0.047,100.03,3.0,,0.0,0.0,
2025-08-14T23:16:00.524Z,5,GR86-025-47,-6.7,0.227,0.054,100.01,3.0,6232.0,0.0,0.0,
2025-08-14T23:16:00.568Z,5,GR86-025-47,-6.6000000000000005,0.179,0.037,100.0,3.0,,0.0,0.0,131.44
2025-08-14T23:16:00.611Z,5,GR86-025-47,-6.5,0.182,0.042,100.03,3.0,,0.0,0.0,
2025-08-14T23:16:00.654Z,5,GR86-025-47,-6.5,0.17,0.019,100.01,3.0,,0.0,0.0,
2025-08-14T23:16:00.697Z,5,GR86-025-47,-6.4,0.241,0.034,100.03,3.0,,0.0,0.0,
2025-08-14T23:16:00.740Z,5,GR86-025-47,-6.300000000000001,0.224,0.05,100.01,3.0,6285.0,0.0,0.0,
2025-08-14T23:16:00.783Z,5,GR86-025-47,-6.2,0.21,0.035,100.01,3.0,,0.0,0.0,132.87
2025-08-14T23:16:00.826Z,5,GR86-025-47,-6.1000000000000005,0.181,0.049,100.01,3.0,,0.0,0.0,
2025-08-14T23:16:00.869Z,5,GR86-025-47,-5.6000000000000005,0.232,0.047,100.02,3.0,,0.0,0.0,
2025-08-14T23:16:00.912Z,5,GR86-025-47,-4.9,0.217,0.037,100.01,3.0,,0.0,0.0,
2025-08-14T23:16:00.955Z,5,GR86-025-47,-4.2,0.238,0.067,100.02,3.0,6349.0,0.0,0.0,
2025-08-14T23:16:00.998Z,5,GR86-025-47,-3.9,0.198,0.092,100.01,3.0,,0.0,0.0,134.26
2025-08-14T23:16:01.041Z,5,GR86-025-47,-3.9,0.174,0.066,100.01,3.0,,0.0,0.0,
2025-08-14T23:16:01.084Z,5,GR86-025-47,-4.0,0.209,0.087,100.01,3.0,,0.0,0.0,
2025-08-14T23:16:01.128Z,5,GR86-025-47,-4.2,0.189,0.083,100.01,3.0,,0.0,0.0,
2025-08-14T23:16:01.171Z,5,GR86-025-47,-4.3,0.191,0.093,100.01,3.0,6413.0,0.0,0.0,
2025-08-14T23:16:01.214Z,5,GR86-025-47,-4.5,0.209,0.123,100.02,3.0,,0.0,0.0,135.66
2025-08-14T23:16:01.257Z,5,GR86-025-47,-4.6000000000000005,0.179,0.104,100.02,3.0,,0.0,0.0,
2025-08-14T23:16:01.301Z,5,GR86-025-47,-4.6000000000000005,0.176,0.079,100.01,3.0,,0.0,0.0,
2025-08-14T23:16:01.344Z,5,GR86-025-47,-4.6000000000000005,0.222,0.096,100.03,3.0,,0.0,0.0,
2025-08-14T23:16:01.388Z,5,GR86-025-47,-4.800000000000001,0.207,0.065,100.0,3.0,6470.0,0.0,0.0,
2025-08-14T23:16:01.431Z,5,GR86-025-47,-4.9,0.219,0.084,100.02,3.0,,0.0,0.0,136.97
2025-08-14T23:16:01.474Z,5,GR86-025-47,-5.4,0.166,0.067,100.01,3.0,,0.0,0.0,
2025-08-14T23:16:01.517Z,5,GR86-025-47,-5.800000000000001,0.165,0.042,100.01,3.0,,0.0,0.0,
2025-08-14T23:16:01.560Z,5,GR86-025-47,-5.9,0.19,0.028,100.02,3.0,,0.0,0.0,
2025-08-14T23:16:01.603Z,5,GR86-025-47,-6.0,0.22,0.022,100.01,3.0,6537.0,0.0,0.0,
2025-08-14T23:16:01.648Z,5,GR86-025-47,-6.300000000000001,0.214,-0.005,100.01,3.0,,0.0,0.0,139.46
2025-08-14T23:16:01.691Z,5,GR86-025-47,-6.5,0.229,-0.013,100.02,3.0,,0.0,0.0,
2025-08-14T23:16:01.734Z,5,GR86-025-47,-6.7,0.184,-0.024,100.02,3.0,,0.0,0.0,
2025-08-14T23:16:01.777Z,5,GR86-025-47,-6.800000000000001,0.211,-0.036,100.01,3.0,,0.0,0.0,
2025-08-14T23:16:01.821Z,5,GR86-025-47,-6.800000000000001,0.19,-0.065,100.01,3.0,6608.0,0.0,0.0,
2025-08-14T23:16:01.864Z,5,GR86-025-47,-6.800000000000001,0.214,-0.043,100.01,3.0,,0.0,0.0,140.76
2025-08-14T23:16:01.908Z,5,GR86-025-47,-6.9,0.196,-0.062,100.01,3.0,,0.0,0.0,
2025-08-14T23:16:01.951Z,5,GR86-025-47,-6.9,0.201,-0.036,100.01,3.0,,0.0,0.0,
2025-08-14T23:16:01.994Z,5,GR86-025-47,-6.9,0.181,-0.046,100.01,3.0,,0.0,0.0,
2025-08-14T23:16:02.037Z,5,GR86-025-47,-7.0,0.17,-0.06,100.0,3.0,6660.0,0.0,0.0,
2025-08-14T23:16:02.081Z,5,GR86-025-47,-7.1000000000000005,0.202,-0.038,100.02,3.0,,0.0,0.0,142.0
2025-08-14T23:16:02.124Z,5,GR86-025-47,-7.1000000000000005,0.21,-0.059,100.01,3.0,,0.0,0.0,
2025-08-14T23:16:02.168Z,5,GR86-025-47,-7.1000000000000005,0.193,-0.038,100.02,3.0,,0.0,0.0,
2025-08-14T23:16:02.211Z,5,GR86-025-47,-7.2,0.196,-0.025,100.01,3.0,,0.0,0.0,
2025-08-14T23:16:02.254Z,5,GR86-025-47,-7.2,0.19,-0.021,100.01,3.0,6769.0,0.0,0.0,
2025-08-14T23:16:02.297Z,5,GR86-025-47,-7.2,0.155,-0.033,100.0,3.0,,0.0,0.0,143.15
2025-08-14T23:16:02.340Z,5,GR86-025-47,-7.300000000000001,0.178,-0.077,99.99,3.0,,0.0,0.0,
2025-08-14T23:16:02.383Z,5,GR86-025-47,-7.300000000000001,0.185,-0.043,100.01,3.0,,0.0,0.0,
2025-08-14T23:16:02.426Z,5,GR86-025-47,-7.300000000000001,0.182,-0.083,100.01,3.0,,0.0,0.0,
2025-08-14T23:16:02.471Z,5,GR86-025-47,-7.300000000000001,0.164,-0.049,100.01,3.0,6816.0,0.0,0.0,
2025-08-14T23:16:02.514Z,5,GR86-025-47,-7.4,0.19,-0.05,100.0,3.0,,0.0,0.0,144.41
2025-08-14T23:16:02.557Z,5,GR86-025-47,-7.4,0.183,-0.055,100.01,3.0,,0.0,0.0,
2025-08-14T23:16:02.601Z,5,GR86-025-47,-7.4,0.163,-0.052,100.01,3.0,,0.0,0.0,
2025-08-14T23:16:02.644Z,5,GR86-025-47,-7.4,0.188,-0.07,100.01,3.0,,0.0,0.0,
2025-08-14T23:16:02.688Z,5,GR86-025-47,-7.5,0.153,-0.054,100.01,3.0,6883.0,0.0,0.0,
2025-08-14T23:16:02.731Z,5,GR86-025-47,-7.5,0.176,-0.067,100.01,3.0,,0.0,0.0,145.58
2025-08-14T23:16:02.774Z,5,GR86-025-47,-7.6,0.16,-0.033,100.03,3.0,,0.0,0.0,
2025-08-14T23:16:02.818Z,5,GR86-025-47,-7.7,0.204,-0.049,100.01,3.0,,0.0,0.0,
2025-08-14T23:16:02.861Z,5,GR86-025-47,-7.7,0.173,-0.029,100.03,3.0,,0.0,0.0,
2025-08-14T23:16:02.904Z,5,GR86-025-47,-7.7,0.155,-0.047,100.01,3.0,6935.0,0.0,0.0,
2025-08-14T23:16:02.948Z,5,GR86-025-47,-7.800000000000001,0.182,-0.037,100.01,3.0,,0.0,0.0,146.79
2025-08-14T23:16:02.991Z,5,GR86-025-47,-7.800000000000001,0.158,-0.039,99.98,3.0,,0.0,0.0,
2025-08-14T23:16:03.035Z,5,GR86-025-47,-7.9,0.145,-0.062,100.01,3.0,,0.0,0.0,
2025-08-14T23:16:03.078Z,5,GR86-025-47,-7.9,0.181,-0.036,100.01,3.0,,0.0,0.0,
2025-08-14T23:16:03.121Z,5,GR86-025-47,-8.0,0.214,-0.074,100.0,3.0,6994.0,0.0,0.0,
2025-08-14T23:16:03.208Z,5,GR86-025-47,-8.1,0.217,-0.087,100.02,3.0,,0.0,0.0,147.93
2025-08-14T23:16:03.251Z,5,GR86-025-47,-8.200000000000001,0.203,-0.096,100.01,3.0,,0.0,0.0,
2025-08-14T23:16:03.294Z,5,GR86-025-47,-8.3,0.165,-0.083,100.02,3.0,,0.0,0.0,
2025-08-14T23:16:03.337Z,5,GR86-025-47,-8.3,0.147,-0.073,99.99,3.0,7046.0,0.0,0.0,
2025-08-14T23:16:03.381Z,5,GR86-025-47,-8.3,0.194,-0.08,100.01,3.0,,0.0,0.0,149.23
2025-08-14T23:16:03.424Z,5,GR86-025-47,-8.3,0.179,-0.102,100.0,3.0,,0.0,0.0,
2025-08-14T23:16:03.467Z,5,GR86-025-47,-8.3,0.201,-0.097,100.01,3.0,,0.0,0.0,
2025-08-14T23:16:03.511Z,5,GR86-025-47,-8.3,0.169,-0.112,100.0,3.0,,0.0,0.0,
2025-08-14T23:16:03.554Z,5,GR86-025-47,-8.3,0.191,-0.09,99.99,3.0,7107.0,0.0,0.0,
2025-08-14T23:16:03.597Z,5,GR86-025-47,-8.3,0.2,-0.074,100.02,3.0,,0.0,0.0,150.33
2025-08-14T23:16:03.640Z,5,GR86-025-47,-8.200000000000001,0.184,-0.064,100.01,3.0,,0.0,0.0,
2025-08-14T23:16:03.683Z,5,GR86-025-47,-8.1,0.177,-0.094,99.98,3.0,,0.0,0.0,
2025-08-14T23:16:03.726Z,5,GR86-025-47,-8.1,0.184,-0.046,100.01,3.0,,0.0,0.0,
2025-08-14T23:16:03.769Z,5,GR86-025-47,-8.1,0.153,-0.067,99.99,3.0,7139.0,0.0,0.0,
2025-08-14T23:16:03.812Z,5,GR86-025-47,-8.200000000000001,0.137,-0.033,100.02,3.0,,0.0,0.0,151.63
2025-08-14T23:16:03.855Z,5,GR86-025-47,-8.3,0.146,-0.047,99.99,3.0,,0.0,0.0,
2025-08-14T23:16:03.898Z,5,GR86-025-47,-8.3,0.163,-0.038,100.02,3.0,,0.0,0.0,
2025-08-14T23:16:03.941Z,5,GR86-025-47,-8.3,0.174,-0.026,100.01,3.0,,0.0,0.0,
2025-08-14T23:16:03.984Z,5,GR86-025-47,-8.4,0.152,-0.03,99.99,3.0,7207.0,0.0,0.0,
2025-08-14T23:16:04.028Z,5,GR86-025-47,-8.6,0.173,-0.041,100.0,3.0,,0.0,0.0,152.71
2025-08-14T23:16:04.071Z,5,GR86-025-47,-8.6,0.114,-0.027,100.0,3.0,,0.0,0.0,
2025-08-14T23:16:04.114Z,5,GR86-025-47,-8.700000000000001,-0.038,0.004,100.01,4.0,,0.0,0.0,
2025-08-14T23:16:04.157Z,5,GR86-025-47,-8.8,0.578,0.013,100.01,4.0,,0.0,0.0,
2025-08-14T23:16:04.201Z,5,GR86-025-47,-8.8,0.232,-0.158,100.01,4.0,7254.0,0.0,0.0,
2025-08-14T23:16:04.244Z,5,GR86-025-47,-8.8,0.031,-0.071,100.01,4.0,,0.0,0.0,153.8
2025-08-14T23:16:04.288Z,5,GR86-025-47,-9.0,0.094,-0.017,100.0,4.0,,0.0,0.0,
2025-08-14T23:16:04.331Z,5,GR86-025-47,-9.0,0.166,-0.181,100.01,4.0,,0.0,0.0,
2025-08-14T23:16:04.374Z,5,GR86-025-47,-9.0,0.17,-0.147,100.01,4.0,,0.0,0.0,
2025-08-14T23:16:04.417Z,5,GR86-025-47,-9.0,0.133,-0.079,100.01,4.0,6017.0,0.0,0.0,
2025-08-14T23:16:04.460Z,5,GR86-025-47,-9.1,0.15,-0.135,99.99,4.0,,0.0,0.0,155.79
2025-08-14T23:16:04.503Z,5,GR86-025-47,-9.2,0.147,-0.156,100.01,4.0,,0.0,0.0,
2025-08-14T23:16:04.548Z,5,GR86-025-47,-9.2,0.138,-0.123,100.01,4.0,,0.0,0.0,
2025-08-14T23:16:04.591Z,5,GR86-025-47,-9.2,0.144,-0.132,100.01,4.0,,0.0,0.0,
2025-08-14T23:16:04.634Z,5,GR86-025-47,-9.2,0.149,-0.164,100.01,4.0,6180.0,0.0,0.0,
2025-08-14T23:16:04.677Z,5,GR86-025-47,-9.2,0.138,-0.171,100.01,4.0,,0.0,0.0,156.77
2025-08-14T23:16:04.721Z,5,GR86-025-47,-9.2,0.131,-0.092,100.01,4.0,,0.0,0.0,
2025-08-14T23:16:04.764Z,5,GR86-025-47,-9.2,0.137,-0.13,100.01,4.0,,0.0,0.0,
2025-08-14T23:16:04.808Z,5,GR86-025-47,-9.2,0.136,-0.104,100.02,4.0,,0.0,0.0,
2025-08-14T23:16:04.851Z,5,GR86-025-47,-9.2,0.133,-0.107,100.01,4.0,6262.0,0.0,0.0,
2025-08-14T23:16:04.894Z,5,GR86-025-47,-9.2,0.119,-0.138,100.02,4.0,,0.0,0.0,157.68
2025-08-14T23:16:04.937Z,5,GR86-025-47,-9.3,0.122,-0.152,100.0,4.0,,0.0,0.0,
2025-08-14T23:16:04.981Z,5,GR86-025-47,-9.3,0.152,-0.124,100.01,4.0,,0.0,0.0,
2025-08-14T23:16:05.024Z,5,GR86-025-47,-9.3,0.142,-0.144,100.01,4.0,,0.0,0.0,
2025-08-14T23:16:05.068Z,5,GR86-025-47,-9.4,0.139,-0.12,100.0,4.0,6286.0,0.0,0.0,
2025-08-14T23:16:05.111Z,5,GR86-025-47,-9.4,0.116,-0.138,100.01,4.0,,0.0,0.0,158.73
2025-08-14T23:16:05.154Z,5,GR86-025-47,-9.4,0.147,-0.143,100.01,4.0,,0.0,0.0,
2025-08-14T23:16:05.197Z,5,GR86-025-47,-9.4,0.156,-0.153,100.02,4.0,,0.0,0.0,
2025-08-14T23:16:05.240Z,5,GR86-025-47,-9.4,0.148,-0.134,100.02,4.0,,0.0,0.0,
2025-08-14T23:16:05.283Z,5,GR86-025-47,-9.4,0.12,-0.142,100.02,4.0,6329.0,0.0,0.0,
2025-08-14T23:16:05.326Z,5,GR86-025-47,-9.5,0.149,-0.159,100.01,4.0,,0.0,0.0,159.61
2025-08-14T23:16:05.369Z,5,GR86-025-47,-9.5,0.106,-0.137,100.01,4.0,,0.0,0.0,
2025-08-14T23:16:05.412Z,5,GR86-025-47,-9.6,0.158,-0.153,100.01,4.0,,0.0,0.0,
2025-08-14T23:16:05.455Z,5,GR86-025-47,-10.3,0.135,-0.146,100.0,4.0,,0.0,0.0,
2025-08-14T23:16:05.498Z,5,GR86-025-47,-10.9,0.119,-0.137,100.01,4.0,6365.0,0.0,0.0,
2025-08-14T23:16:05.541Z,5,GR86-025-47,-11.0,0.105,-0.16,100.02,4.0,,0.0,0.0,160.67000000000002
2025-08-14T23:16:05.585Z,5,GR86-025-47,-11.1,0.149,-0.204,100.01,4.0,,0.0,0.0,
2025-08-14T23:16:05.628Z,5,GR86-025-47,-11.1,0.153,-0.202,100.01,4.0,,0.0,0.0,
2025-08-14T23:16:05.671Z,5,GR86-025-47,-11.1,0.129,-0.225,100.01,4.0,,0.0,0.0,
2025-08-14T23:16:05.714Z,5,GR86-025-47,-11.1,0.105,-0.201,100.0,4.0,6410.0,0.0,0.0,
2025-08-14T23:16:05.757Z,5,GR86-025-47,-11.1,0.096,-0.221,100.0,4.0,,0.0,0.0,161.6
2025-08-14T23:16:05.801Z,5,GR86-025-47,-11.1,0.102,-0.213,100.01,4.0,,0.0,0.0,
2025-08-14T23:16:05.844Z,5,GR86-025-47,-11.1,0.116,-0.199,100.01,4.0,,0.0,0.0,
2025-08-14T23:16:05.888Z,5,GR86-025-47,-11.2,0.123,-0.177,100.0,4.0,,0.0,0.0,
2025-08-14T23:16:05.931Z,5,GR86-025-47,-11.2,0.092,-0.175,100.0,4.0,6444.0,0.0,0.0,
2025-08-14T23:16:05.974Z,5,GR86-025-47,-11.2,0.153,-0.185,99.99,4.0,,0.0,0.0,162.67000000000002
2025-08-14T23:16:06.017Z,5,GR86-025-47,-11.2,0.115,-0.171,100.01,4.0,,0.0,0.0,
2025-08-14T23:16:06.060Z,5,GR86-025-47,-11.2,0.127,-0.168,100.02,4.0,,0.0,0.0,
2025-08-14T23:16:06.103Z,5,GR86-025-47,-11.2,0.129,-0.16,100.0,4.0,,0.0,0.0,
2025-08-14T23:16:06.148Z,5,GR86-025-47,-11.2,0.121,-0.192,100.01,4.0,6492.0,0.0,0.0,
2025-08-14T23:16:06.191Z,5,GR86-025-47,-11.2,0.089,-0.179,100.0,4.0,,0.0,0.0,163.54
2025-08-14T23:16:06.234Z,5,GR86-025-47,-11.2,0.117,-0.205,100.01,4.0,,0.0,0.0,
2025-08-14T23:16:06.277Z,5,GR86-025-47,-11.3,0.136,-0.196,99.99,4.0,,0.0,0.0,
2025-08-14T23:16:06.321Z,5,GR86-025-47,-11.3,0.107,-0.19,100.01,4.0,,0.0,0.0,
2025-08-14T23:16:06.364Z,5,GR86-025-47,-11.3,0.149,-0.184,100.0,4.0,6513.0,0.0,0.0,
2025-08-14T23:16:06.408Z,5,GR86-025-47,-11.3,0.116,-0.192,100.0,4.0,,0.0,0.0,164.66
2025-08-14T23:16:06.451Z,5,GR86-025-47,-11.2,0.106,-0.159,100.01,4.0,,0.0,0.0,
2025-08-14T23:16:06.494Z,5,GR86-025-47,-11.2,0.123,-0.171,100.02,4.0,,0.0,0.0,
2025-08-14T23:16:06.537Z,5,GR86-025-47,-11.2,0.109,-0.15,100.01,4.0,,0.0,0.0,
2025-08-14T23:16:06.581Z,5,GR86-025-47,-11.2,0.12,-0.143,100.01,4.0,6555.0,0.0,0.0,
2025-08-14T23:16:06.624Z,5,GR86-025-47,-11.2,0.149,-0.13,100.0,4.0,,0.0,0.0,165.74
2025-08-14T23:16:06.668Z,5,GR86-025-47,-11.2,0.159,-0.134,100.0,4.0,,0.0,0.0,
2025-08-14T23:16:06.711Z,5,GR86-025-47,-11.2,0.107,-0.139,100.01,4.0,,0.0,0.0,
2025-08-14T23:16:06.754Z,5,GR86-025-47,-11.3,0.109,-0.136,99.97,4.0,,0.0,0.0,
2025-08-14T23:16:06.797Z,5,GR86-025-47,-11.3,0.139,-0.132,99.99,4.0,6600.0,0.0,0.0,
2025-08-14T23:16:06.840Z,5,GR86-025-47,-11.3,0.145,-0.167,100.0,4.0,,0.0,0.0,166.62
2025-08-14T23:16:06.883Z,5,GR86-025-47,-11.3,0.105,-0.182,99.98,4.0,,0.0,0.0,
2025-08-14T23:16:06.926Z,5,GR86-025-47,-11.3,0.122,-0.191,99.98,4.0,,0.0,0.0,
2025-08-14T23:16:06.971Z,5,GR86-025-47,-11.3,0.143,-0.151,99.99,4.0,,0.0,0.0,
2025-08-14T23:16:07.014Z,5,GR86-025-47,-11.3,0.118,-0.142,100.0,4.0,6639.0,0.0,0.0,
2025-08-14T23:16:07.058Z,5,GR86-025-47,-11.3,0.105,-0.156,100.03,4.0,,0.0,0.0,168.49
2025-08-14T23:16:07.101Z,5,GR86-025-47,-11.3,0.148,-0.143,100.02,4.0,,0.0,0.0,
2025-08-14T23:16:07.144Z,5,GR86-025-47,-11.3,0.107,-0.163,100.01,4.0,,0.0,0.0,
2025-08-14T23:16:07.188Z,5,GR86-025-47,-11.3,0.102,-0.18,100.01,4.0,,0.0,0.0,
2025-08-14T23:16:07.231Z,5,GR86-025-47,-11.3,0.13,-0.19,100.02,4.0,6672.0,0.0,0.0,
2025-08-14T23:16:07.274Z,5,GR86-025-47,-11.3,0.112,-0.158,100.01,4.0,,0.0,0.0,169.47
2025-08-14T23:16:07.318Z,5,GR86-025-47,-11.2,0.137,-0.188,100.0,4.0,,0.0,0.0,
2025-08-14T23:16:07.361Z,5,GR86-025-47,-11.3,0.119,-0.198,100.01,4.0,,0.0,0.0,
2025-08-14T23:16:07.404Z,5,GR86-025-47,-11.3,0.141,-0.166,100.01,4.0,,0.0,0.0,
2025-08-14T23:16:07.448Z,5,GR86-025-47,-11.2,0.11,-0.159,100.0,4.0,6735.0,0.0,0.0,
2025-08-14T23:16:07.491Z,5,GR86-025-47,-11.2,0.114,-0.152,100.0,4.0,,0.0,0.0,170.53
2025-08-14T23:16:07.534Z,5,GR86-025-47,-11.2,0.117,-0.132,100.0,4.0,,0.0,0.0,
2025-08-14T23:16:07.577Z,5,GR86-025-47,-11.2,0.113,-0.097,100.01,4.0,,0.0,0.0,
2025-08-14T23:16:07.621Z,5,GR86-025-47,-11.2,0.146,-0.152,100.01,4.0,,0.0,0.0,
2025-08-14T23:16:07.664Z,5,GR86-025-47,-11.2,0.148,-0.151,100.0,4.0,6801.0,0.0,0.0,
2025-08-14T23:16:07.708Z,5,GR86-025-47,-11.2,0.091,-0.15,99.98,4.0,,0.0,0.0,171.26
2025-08-14T23:16:07.751Z,5,GR86-025-47,-11.2,0.102,-0.162,100.0,4.0,,0.0,0.0,
2025-08-14T23:16:07.794Z,5,GR86-025-47,-11.2,0.113,-0.168,99.99,4.0,,0.0,0.0,
2025-08-14T23:16:07.881Z,5,GR86-025-47,-11.1,0.107,-0.131,100.01,4.0,6812.0,0.0,0.0,
2025-08-14T23:16:07.924Z,5,GR86-025-47,-11.1,0.127,-0.153,100.01,4.0,,0.0,0.0,172.27
2025-08-14T23:16:07.968Z,5,GR86-025-47,-11.1,0.125,-0.142,100.0,4.0,,0.0,0.0,
2025-08-14T23:16:08.011Z,5,GR86-025-47,-11.1,0.099,-0.11,100.01,4.0,,0.0,0.0,
2025-08-14T23:16:08.054Z,5,GR86-025-47,-11.0,0.084,-0.1,100.01,4.0,,0.0,0.0,
2025-08-14T23:16:08.097Z,5,GR86-025-47,-10.7,0.094,-0.099,100.01,4.0,6846.0,0.0,0.0,
2025-08-14T23:16:08.140Z,5,GR86-025-47,-10.7,0.085,-0.121,100.01,4.0,,0.0,0.0,173.18
2025-08-14T23:16:08.183Z,5,GR86-025-47,-10.7,0.138,-0.121,100.0,4.0,,0.0,0.0,
2025-08-14T23:16:08.226Z,5,GR86-025-47,-10.7,0.138,-0.121,100.01,4.0,,0.0,0.0,
2025-08-14T23:16:08.269Z,5,GR86-025-47,-10.7,0.087,-0.13,100.0,4.0,,0.0,0.0,
2025-08-14T23:16:08.312Z,5,GR86-025-47,-10.7,0.12,-0.1,100.01,4.0,6887.0,0.0,0.0,
2025-08-14T23:16:08.355Z,5,GR86-025-47,-10.7,0.115,-0.073,100.01,4.0,,0.0,0.0,174.05
2025-08-14T23:16:08.398Z,5,GR86-025-47,-10.7,0.104,-0.071,100.01,4.0,,0.0,0.0,
2025-08-14T23:16:08.441Z,5,GR86-025-47,-10.7,0.096,-0.073,99.97,4.0,,0.0,0.0,
2025-08-14T23:16:08.484Z,5,GR86-025-47,-10.8,0.112,-0.075,100.01,4.0,,0.0,0.0,
2025-08-14T23:16:08.528Z,5,GR86-025-47,-10.8,0.148,-0.108,100.01,4.0,6921.0,0.0,0.0,
2025-08-14T23:16:08.571Z,5,GR86-025-47,-10.8,0.107,-0.107,99.98,4.0,,0.0,0.0,174.92000000000002
2025-08-14T23:16:08.614Z,5,GR86-025-47,-10.8,0.131,-0.123,100.01,4.0,,0.0,0.0,
2025-08-14T23:16:08.657Z,5,GR86-025-47,-10.9,0.141,-0.132,100.01,4.0,,0.0,0.0,
2025-08-14T23:16:08.701Z,5,GR86-025-47,-10.9,0.132,-0.153,100.01,4.0,,0.0,0.0,
2025-08-14T23:16:08.744Z,5,GR86-025-47,-10.9,0.126,-0.141,100.0,4.0,6942.0,0.0,0.0,
2025-08-14T23:16:08.788Z,5,GR86-025-47,-10.9,0.073,-0.176,100.01,4.0,,0.0,0.0,175.86
2025-08-14T23:16:08.831Z,5,GR86-025-47,-10.9,0.089,-0.16,99.99,4.0,,0.0,0.0,
2025-08-14T23:16:08.874Z,5,GR86-025-47,-10.7,0.128,-0.145,99.99,4.0,,0.0,0.0,
2025-08-14T23:16:08.917Z,5,GR86-025-47,-9.9,0.088,-0.154,100.02,4.0,,0.0,0.0,
2025-08-14T23:16:08.960Z,5,GR86-025-47,-9.9,0.078,-0.148,99.98,4.0,7000.0,0.0,0.0,
2025-08-14T23:16:09.003Z,5,GR86-025-47,-10.0,0.096,-0.143,100.02,4.0,,0.0,0.0,176.73
2025-08-14T23:16:09.048Z,5,GR86-025-47,-10.0,0.106,-0.139,100.0,4.0,,0.0,0.0,
2025-08-14T23:16:09.091Z,5,GR86-025-47,-10.0,0.112,-0.135,99.99,4.0,,0.0,0.0,
2025-08-14T23:16:09.134Z,5,GR86-025-47,-10.1,0.095,-0.144,100.01,4.0,,0.0,0.0,
2025-08-14T23:16:09.177Z,5,GR86-025-47,-10.1,0.1,-0.155,99.97,4.0,7025.0,0.0,0.0,
2025-08-14T23:16:09.221Z,5,GR86-025-47,-10.1,0.113,-0.153,100.0,4.0,,0.0,0.0,177.57
2025-08-14T23:16:09.264Z,5,GR86-025-47,-10.1,0.107,-0.15,100.01,4.0,,0.0,0.0,
2025-08-14T23:16:09.308Z,5,GR86-025-47,-10.1,0.097,-0.127,99.99,4.0,,0.0,0.0,
2025-08-14T23:16:09.394Z,5,GR86-025-47,-10.1,0.087,-0.096,100.01,4.0,7040.0,0.0,0.0,
2025-08-14T23:16:09.437Z,5,GR86-025-47,-10.0,0.115,-0.094,100.01,4.0,,0.0,0.0,178.45000000000002
2025-08-14T23:16:09.481Z,5,GR86-025-47,-9.8,0.118,-0.089,100.01,4.0,,0.0,0.0,
2025-08-14T23:16:09.524Z,5,GR86-025-47,-9.8,0.094,-0.074,99.99,4.0,,0.0,0.0,
2025-08-14T23:16:09.568Z,5,GR86-025-47,-9.8,0.09,-0.062,99.99,4.0,,0.0,0.0,
2025-08-14T23:16:09.611Z,5,GR86-025-47,-9.9,0.093,-0.073,100.01,4.0,7098.0,0.0,0.0,
2025-08-14T23:16:09.654Z,5,GR86-025-47,-9.9,0.089,-0.096,100.0,4.0,,0.0,0.0,179.93
2025-08-14T23:16:09.697Z,5,GR86-025-47,-9.9,0.109,-0.086,100.01,4.0,,0.0,0.0,
2025-08-14T23:16:09.740Z,5,GR86-025-47,-10.0,0.102,-0.099,99.98,4.0,,0.0,0.0,
2025-08-14T23:16:09.783Z,5,GR86-025-47,-10.0,0.093,-0.075,99.98,4.0,,0.0,0.0,
2025-08-14T23:16:09.826Z,5,GR86-025-47,-10.0,0.093,-0.067,99.98,4.0,7127.0,0.0,0.0,
2025-08-14T23:16:09.869Z,5,GR86-025-47,-10.0,0.109,-0.085,100.0,4.0,,0.0,0.0,180.79
2025-08-14T23:16:09.912Z,5,GR86-025-47,-9.9,0.088,-0.074,99.97,4.0,,0.0,0.0,
2025-08-14T23:16:09.955Z,5,GR86-025-47,-9.7,0.096,-0.055,99.99,4.0,,0.0,0.0,
2025-08-14T23:16:09.998Z,5,GR86-025-47,-9.7,0.087,-0.043,100.0,4.0,,0.0,0.0,
2025-08-14T23:16:10.041Z,5,GR86-025-47,-9.7,0.098,-0.064,100.01,4.0,7137.0,0.0,0.0,
2025-08-14T23:16:10.084Z,5,GR86-025-47,-9.7,0.097,-0.078,100.01,4.0,,0.0,0.0,181.63
2025-08-14T23:16:10.128Z,5,GR86-025-47,-9.8,0.12,-0.079,100.01,4.0,,0.0,0.0,
2025-08-14T23:16:10.171Z,5,GR86-025-47,-9.9,0.09,-0.077,99.99,4.0,,0.0,0.0,
2025-08-14T23:16:10.214Z,5,GR86-025-47,-9.9,0.115,-0.079,99.97,4.0,,0.0,0.0,
2025-08-14T23:16:10.258Z,5,GR86-025-47,-9.9,0.094,-0.091,100.0,4.0,7190.0,0.0,0.0,
2025-08-14T23:16:10.301Z,5,GR86-025-47,-10.0,0.091,-0.09,100.01,4.0,,0.0,0.0,182.27
2025-08-14T23:16:10.344Z,5,GR86-025-47,-10.1,0.09,-0.109,100.02,4.0,,0.0,0.0,
2025-08-14T23:16:10.388Z,5,GR86-025-47,-9.9,0.092,-0.073,100.01,4.0,,0.0,0.0,
2025-08-14T23:16:10.431Z,5,GR86-025-47,-9.8,0.1,-0.085,100.01,4.0,,0.0,0.0,
2025-08-14T23:16:10.474Z,5,GR86-025-47,-9.8,0.07,-0.098,100.01,4.0,7222.0,0.0,0.0,
2025-08-14T23:16:10.517Z,5,GR86-025-47,-9.8,0.09,-0.083,99.98,4.0,,0.0,0.0,183.05
2025-08-14T23:16:10.560Z,5,GR86-025-47,-9.8,0.101,-0.094,100.01,4.0,,0.0,0.0,
2025-08-14T23:16:10.603Z,5,GR86-025-47,-9.8,0.1,-0.099,100.01,4.0,,0.0,0.0,
2025-08-14T23:16:10.648Z,5,GR86-025-47,-9.8,0.075,-0.106,100.01,4.0,,0.0,0.0,
2025-08-14T23:16:10.691Z,5,GR86-025-47,-9.8,0.058,-0.108,100.01,4.0,7251.0,0.0,0.0,
2025-08-14T23:16:10.734Z,5,GR86-025-47,-9.7,-0.174,-0.08,99.99,5.0,,0.0,0.0,183.8
2025-08-14T23:16:10.777Z,5,GR86-025-47,-9.4,0.065,-0.051,100.01,5.0,,0.0,0.0,
2025-08-14T23:16:10.821Z,5,GR86-025-47,-8.700000000000001,0.166,-0.13,100.0,5.0,,0.0,0.0,
2025-08-14T23:16:10.864Z,5,GR86-025-47,-8.6,-0.079,-0.159,100.01,5.0,,0.0,0.0,
2025-08-14T23:16:10.908Z,5,GR86-025-47,-8.8,0.12,0.01,99.99,5.0,6197.0,0.0,0.0,
2025-08-14T23:16:10.951Z,5,GR86-025-47,-8.8,0.132,-0.135,100.01,5.0,,0.0,0.0,184.53
2025-08-14T23:16:10.994Z,5,GR86-025-47,-8.700000000000001,0.1,-0.06,100.01,5.0,,0.0,0.0,
2025-08-14T23:16:11.037Z,5,GR86-025-47,-8.6,0.092,-0.029,100.0,5.0,,0.0,0.0,
2025-08-14T23:16:11.081Z,5,GR86-025-47,-8.700000000000001,0.052,-0.033,100.0,5.0,,0.0,0.0,
2025-08-14T23:16:11.124Z,5,GR86-025-47,-8.700000000000001,0.095,-0.045,99.98,5.0,6317.0,0.0,0.0,
2025-08-14T23:16:11.168Z,5,GR86-025-47,-8.700000000000001,0.078,-0.028,99.99,5.0,,0.0,0.0,185.32
2025-08-14T23:16:11.211Z,5,GR86-025-47,-8.700000000000001,0.071,-0.035,100.0,5.0,,0.0,0.0,
2025-08-14T23:16:11.254Z,5,GR86-025-47,-8.700000000000001,0.064,-0.049,99.99,5.0,,0.0,0.0,
2025-08-14T23:16:11.297Z,5,GR86-025-47,-8.6,0.072,-0.017,100.01,5.0,,0.0,0.0,
2025-08-14T23:16:11.340Z,5,GR86-025-47,-8.6,0.082,0.005,100.0,5.0,6358.0,0.0,0.0,
2025-08-14T23:16:11.383Z,5,GR86-025-47,-8.6,0.069,-0.013,99.99,5.0,,0.0,0.0,185.81
2025-08-14T23:16:11.426Z,5,GR86-025-47,-8.6,0.071,-0.009,99.97,5.0,,0.0,0.0,
2025-08-14T23:16:11.471Z,5,GR86-025-47,-8.6,0.085,-0.004,100.0,5.0,,0.0,0.0,
2025-08-14T23:16:11.514Z,5,GR86-025-47,-8.6,0.059,-0.053,99.97,5.0,,0.0,0.0,
2025-08-14T23:16:11.557Z,5,GR86-025-47,-8.6,0.071,-0.022,100.0,5.0,6380.0,0.0,0.0,
2025-08-14T23:16:11.601Z,5,GR86-025-47,-8.6,0.053,-0.005,99.98,5.0,,0.0,0.0,186.45
2025-08-14T23:16:11.644Z,5,GR86-025-47,-8.6,0.066,-0.012,100.03,5.0,,0.0,0.0,
2025-08-14T23:16:11.688Z,5,GR86-025-47,-8.6,0.098,0.026,100.02,5.0,,0.0,0.0,
2025-08-14T23:16:11.731Z,5,GR86-025-47,-8.6,0.079,0.021,99.99,5.0,,0.0,0.0,
2025-08-14T23:16:11.774Z,5,GR86-025-47,-8.6,0.07,0.009,100.0,5.0,6395.0,0.0,0.0,
2025-08-14T23:16:11.818Z,5,GR86-025-47,-8.6,0.089,0.011,99.98,5.0,,0.0,0.0,187.16
2025-08-14T23:16:11.861Z,5,GR86-025-47,-8.6,0.092,0.001,100.01,5.0,,0.0,0.0,
2025-08-14T23:16:11.904Z,5,GR86-025-47,-8.6,0.08,-0.025,100.01,5.0,,0.0,0.0,
2025-08-14T23:16:11.948Z,5,GR86-025-47,-8.6,0.066,-0.027,100.01,5.0,,0.0,0.0,
2025-08-14T23:16:11.991Z,5,GR86-025-47,-8.6,0.084,-0.013,99.99,5.0,6415.0,0.0,0.0,
2025-08-14T23:16:12.035Z,5,GR86-025-47,-8.6,0.081,-0.041,100.0,5.0,,0.0,0.0,187.71
2025-08-14T23:16:12.078Z,5,GR86-025-47,-8.6,0.07,-0.052,99.98,5.0,,0.0,0.0,
2025-08-14T23:16:12.121Z,5,GR86-025-47,-8.700000000000001,0.09,-0.013,100.01,5.0,,0.0,0.0,
2025-08-14T23:16:12.164Z,5,GR86-025-47,-8.6,0.073,-0.009,99.99,5.0,,0.0,0.0,
2025-08-14T23:16:12.208Z,5,GR86-025-47,-8.6,0.064,-0.037,100.0,5.0,6453.0,0.0,0.0,
2025-08-14T23:16:12.251Z,5,GR86-025-47,-8.6,0.074,-0.066,100.01,5.0,,0.0,0.0,189.03
2025-08-14T23:16:12.294Z,5,GR86-025-47,-8.6,0.082,-0.062,100.0,5.0,,0.0,0.0,
2025-08-14T23:16:12.337Z,5,GR86-025-47,-8.6,0.076,-0.07,99.98,5.0,,0.0,0.0,
2025-08-14T23:16:12.381Z,5,GR86-025-47,-8.6,0.083,-0.068,100.0,5.0,,0.0,0.0,
2025-08-14T23:16:12.424Z,5,GR86-025-47,-8.6,0.072,-0.052,100.0,5.0,6461.0,0.0,0.0,
2025-08-14T23:16:12.467Z,5,GR86-025-47,-8.6,0.085,-0.062,100.01,5.0,,0.0,0.0,189.7
2025-08-14T23:16:12.511Z,5,GR86-025-47,-8.6,0.075,-0.055,99.98,5.0,,0.0,0.0,
2025-08-14T23:16:12.554Z,5,GR86-025-47,-8.6,0.082,-0.051,99.99,5.0,,0.0,0.0,
2025-08-14T23:16:12.597Z,5,GR86-025-47,-8.6,0.072,-0.045,99.99,5.0,,0.0,0.0,
2025-08-14T23:16:12.640Z,5,GR86-025-47,-8.6,0.073,-0.027,100.0,5.0,6480.0,0.0,0.0,
2025-08-14T23:16:12.683Z,5,GR86-025-47,-8.6,0.048,-0.028,100.01,5.0,,0.0,0.0,190.28
2025-08-14T23:16:12.726Z,5,GR86-025-47,-8.6,0.069,-0.043,100.01,5.0,,0.0,0.0,
2025-08-14T23:16:12.769Z,5,GR86-025-47,-8.5,0.083,-0.034,100.01,5.0,,0.0,0.0,
2025-08-14T23:16:12.812Z,5,GR86-025-47,-8.5,0.055,-0.023,99.99,5.0,,0.0,0.0,
2025-08-14T23:16:12.855Z,5,GR86-025-47,-8.5,0.051,-0.019,100.0,5.0,6515.0,0.0,0.0,
2025-08-14T23:16:12.898Z,5,GR86-025-47,-8.5,0.08,-0.009,100.02,5.0,,0.0,0.0,190.79
2025-08-14T23:16:12.941Z,5,GR86-025-47,-8.4,0.075,-0.021,100.01,5.0,,0.0,0.0,
2025-08-14T23:16:12.984Z,5,GR86-025-47,-8.4,0.07,-0.008,100.02,5.0,,0.0,0.0,
2025-08-14T23:16:13.028Z,5,GR86-025-47,-8.4,0.052,-0.002,100.0,5.0,,0.0,0.0,
2025-08-14T23:16:13.071Z,5,GR86-025-47,-8.4,0.088,-0.031,100.02,5.0,6542.0,0.0,0.0,
2025-08-14T23:16:13.114Z,5,GR86-025-47,-8.5,0.046,-0.025,100.01,5.0,,0.0,0.0,191.36
2025-08-14T23:16:13.157Z,5,GR86-025-47,-8.6,0.064,-0.038,100.02,5.0,,0.0,0.0,
2025-08-14T23:16:13.244Z,5,GR86-025-47,-8.6,0.089,-0.058,100.0,5.0,,0.0,0.0,
2025-08-14T23:16:13.288Z,5,GR86-025-47,-8.6,0.064,-0.066,100.01,5.0,6568.0,0.0,0.0,
2025-08-14T23:16:13.331Z,5,GR86-025-47,-8.6,0.055,-0.064,100.02,5.0,,0.0,0.0,191.94
2025-08-14T23:16:13.374Z,5,GR86-025-47,-8.5,0.081,-0.063,100.01,5.0,,0.0,0.0,
2025-08-14T23:16:13.417Z,5,GR86-025-47,-8.5,0.045,-0.034,100.0,5.0,,0.0,0.0,
2025-08-14T23:16:13.460Z,5,GR86-025-47,-8.5,0.064,-0.036,99.98,5.0,,0.0,0.0,
2025-08-14T23:16:13.503Z,5,GR86-025-47,-8.5,0.097,-0.055,100.01,5.0,6589.0,0.0,0.0,
2025-08-14T23:16:13.548Z,5,GR86-025-47,-8.5,0.049,-0.052,100.01,5.0,,0.0,0.0,192.47
2025-08-14T23:16:13.591Z,5,GR86-025-47,-8.5,0.049,-0.045,100.0,5.0,,0.0,0.0,
2025-08-14T23:16:13.634Z,5,GR86-025-47,-8.4,0.056,-0.05,100.01,5.0,,0.0,0.0,
2025-08-14T23:16:13.677Z,5,GR86-025-47,-8.4,0.098,-0.043,99.98,5.0,,0.0,0.0,
2025-08-14T23:16:13.721Z,5,GR86-025-47,-8.200000000000001,0.054,-0.056,99.99,5.0,6610.0,0.0,0.0,
2025-08-14T23:16:13.764Z,5,GR86-025-47,-7.9,0.074,-0.043,100.01,5.0,,0.0,0.0,192.95
2025-08-14T23:16:13.808Z,5,GR86-025-47,-7.9,0.067,-0.039,100.0,5.0,,0.0,0.0,
2025-08-14T23:16:13.851Z,5,GR86-025-47,-7.9,0.063,-0.017,99.98,5.0,,0.0,0.0,
2025-08-14T23:16:13.894Z,5,GR86-025-47,-7.6,0.045,-0.024,99.98,5.0,,0.0,0.0,
2025-08-14T23:16:13.937Z,5,GR86-025-47,-6.800000000000001,0.043,-0.001,100.01,5.0,6623.0,0.0,0.0,
2025-08-14T23:16:13.981Z,5,GR86-025-47,-5.9,0.071,0.003,100.01,5.0,,0.0,0.0,193.68
2025-08-14T23:16:14.024Z,5,GR86-025-47,-5.5,0.054,0.025,100.01,5.0,,0.0,0.0,
2025-08-14T23:16:14.068Z,5,GR86-025-47,-5.5,0.077,0.028,100.01,5.0,,0.0,0.0,
2025-08-14T23:16:14.111Z,5,GR86-025-47,-5.5,0.052,0.038,100.01,5.0,,0.0,0.0,
2025-08-14T23:16:14.154Z,5,GR86-025-47,-5.5,0.057,0.052,100.01,5.0,6657.0,0.0,0.0,
2025-08-14T23:16:14.197Z,5,GR86-025-47,-5.5,0.043,0.032,100.01,5.0,,0.0,0.0,194.18
2025-08-14T23:16:14.240Z,5,GR86-025-47,-5.4,0.054,0.081,99.98,5.0,,0.0,0.0,
2025-08-14T23:16:14.283Z,5,GR86-025-47,-5.1000000000000005,0.088,0.091,100.0,5.0,,0.0,0.0,
2025-08-14T23:16:14.326Z,5,GR86-025-47,-4.3,0.059,0.085,100.02,5.0,,0.0,0.0,
2025-08-14T23:16:14.369Z,5,GR86-025-47,-3.9,0.064,0.095,100.0,5.0,6659.0,0.0,0.0,
2025-08-14T23:16:14.412Z,5,GR86-025-47,-3.8,0.036,0.106,99.98,5.0,,0.0,0.0,194.89
2025-08-14T23:16:14.455Z,5,GR86-025-47,-3.8,0.06,0.115,100.0,5.0,,0.0,0.0,
2025-08-14T23:16:14.498Z,5,GR86-025-47,-3.8,0.051,0.114,100.0,5.0,,0.0,0.0,
2025-08-14T23:16:14.541Z,5,GR86-025-47,-3.8,0.059,0.141,100.0,5.0,,0.0,0.0,
2025-08-14T23:16:14.585Z,5,GR86-025-47,-3.9,0.069,0.148,100.01,5.0,6680.0,0.0,0.0,
2025-08-14T23:16:14.628Z,5,GR86-025-47,-4.1000000000000005,0.064,0.162,99.99,5.0,,0.0,0.0,195.58
2025-08-14T23:16:14.671Z,5,GR86-025-47,-4.3,0.09,0.166,100.01,5.0,,0.0,0.0,
2025-08-14T23:16:14.714Z,5,GR86-025-47,-4.5,0.066,0.158,100.01,5.0,,0.0,0.0,
2025-08-14T23:16:14.758Z,5,GR86-025-47,-4.6000000000000005,0.07,0.144,99.99,5.0,,0.0,0.0,
2025-08-14T23:16:14.801Z,5,GR86-025-47,-4.6000000000000005,0.062,0.167,99.99,5.0,6703.0,0.0,0.0,
2025-08-14T23:16:14.844Z,5,GR86-025-47,-4.5,0.063,0.162,100.0,5.0,,0.0,0.0,196.04
2025-08-14T23:16:14.888Z,5,GR86-025-47,-3.9,0.058,0.131,99.98,5.0,,0.0,0.0,
2025-08-14T23:16:14.931Z,5,GR86-025-47,-3.7,0.052,0.141,99.99,5.0,,0.0,0.0,
2025-08-14T23:16:14.974Z,5,GR86-025-47,-3.6,0.071,0.14,100.0,5.0,,0.0,0.0,
2025-08-14T23:16:15.017Z,5,GR86-025-47,-3.6,0.076,0.133,100.0,5.0,6716.0,0.0,0.0,
2025-08-14T23:16:15.060Z,5,GR86-025-47,-3.6,0.097,0.134,100.0,5.0,,0.0,0.0,197.31
2025-08-14T23:16:15.103Z,5,GR86-025-47,-3.3000000000000003,0.068,0.149,100.0,5.0,,0.0,0.0,
2025-08-14T23:16:15.148Z,5,GR86-025-47,-1.9,0.077,0.149,100.01,5.0,,0.0,0.0,
2025-08-14T23:16:15.191Z,5,GR86-025-47,-1.6,0.071,0.164,100.0,5.0,,0.0,0.0,
2025-08-14T23:16:15.235Z,5,GR86-025-47,-1.7000000000000002,0.084,0.171,100.0,5.0,6734.0,0.0,0.0,
2025-08-14T23:16:15.278Z,5,GR86-025-47,-2.1,0.09,0.169,100.0,5.0,,0.0,0.0,197.86
2025-08-14T23:16:15.321Z,5,GR86-025-47,-2.3000000000000003,0.1,0.196,100.01,5.0,,0.0,0.0,
2025-08-14T23:16:15.364Z,5,GR86-025-47,-2.5,0.078,0.213,100.01,5.0,,0.0,0.0,
2025-08-14T23:16:15.451Z,5,GR86-025-47,-1.3,0.077,0.195,100.01,5.0,6780.0,0.0,0.0,
2025-08-14T23:16:15.494Z,5,GR86-025-47,0.1,0.079,0.222,99.98,5.0,,0.0,0.0,198.45
2025-08-14T23:16:15.537Z,5,GR86-025-47,0.1,0.069,0.25,99.98,5.0,,0.0,0.0,
2025-08-14T23:16:15.581Z,5,GR86-025-47,-0.3,0.066,0.242,99.99,5.0,,0.0,0.0,
2025-08-14T23:16:15.624Z,5,GR86-025-47,-0.5,0.069,0.26,100.01,5.0,,0.0,0.0,
2025-08-14T23:16:15.668Z,5,GR86-025-47,0.2,0.051,0.253,100.0,5.0,6802.0,0.0,0.0,
2025-08-14T23:16:15.711Z,5,GR86-025-47,0.9,0.073,0.298,99.98,5.0,,0.0,0.0,198.99
2025-08-14T23:16:15.754Z,5,GR86-025-47,1.0,0.08,0.335,100.0,5.0,,0.0,0.0,
2025-08-14T23:16:15.797Z,5,GR86-025-47,0.7000000000000001,0.059,0.366,99.99,5.0,,0.0,0.0,
2025-08-14T23:16:15.840Z,5,GR86-025-47,0.4,0.067,0.385,99.97,5.0,,0.0,0.0,
2025-08-14T23:16:15.883Z,5,GR86-025-47,0.4,0.106,0.369,100.0,5.0,6830.0,0.0,0.0,
2025-08-14T23:16:15.926Z,5,GR86-025-47,0.8,0.071,0.423,99.98,5.0,,0.0,0.0,199.44
2025-08-14T23:16:15.971Z,5,GR86-025-47,1.1,0.089,0.405,100.0,5.0,,0.0,0.0,
2025-08-14T23:16:16.015Z,5,GR86-025-47,0.9,0.048,0.405,100.0,5.0,,0.0,0.0,
2025-08-14T23:16:16.058Z,5,GR86-025-47,0.7000000000000001,0.063,0.385,100.0,5.0,,0.0,1.925,
2025-08-14T23:16:16.101Z,5,GR86-025-47,0.3,0.08,0.359,100.01,5.0,6852.0,0.0,0.0,
2025-08-14T23:16:16.144Z,5,GR86-025-47,0.1,0.07,0.366,99.98,5.0,,0.0,0.0,200.17
2025-08-14T23:16:16.188Z,5,GR86-025-47,-0.2,0.041,0.353,100.01,5.0,,0.0,0.0,
2025-08-14T23:16:16.231Z,5,GR86-025-47,-0.2,0.062,0.355,100.01,5.0,,2.61,3.005,
2025-08-14T23:16:16.274Z,5,GR86-025-47,0.2,0.076,0.364,99.99,5.0,,2.795,3.13,
2025-08-14T23:16:16.318Z,5,GR86-025-47,0.4,0.076,0.368,100.01,5.0,6872.0,0.0,0.0,
2025-08-14T23:16:16.361Z,5,GR86-025-47,0.3,0.08,0.348,100.0,5.0,,0.0,0.0,200.63
2025-08-14T23:16:16.404Z,5,GR86-025-47,-0.1,0.085,0.315,100.0,5.0,,0.0,0.0,
2025-08-14T23:16:16.448Z,5,GR86-025-47,-0.6000000000000001,0.073,0.305,99.99,5.0,,0.0,0.0,
2025-08-14T23:16:16.491Z,5,GR86-025-47,-0.9,0.062,0.283,100.01,5.0,,0.0,0.0,
2025-08-14T23:16:16.534Z,5,GR86-025-47,-1.8,0.069,0.272,99.99,5.0,6886.0,0.0,0.0,
2025-08-14T23:16:16.577Z,5,GR86-025-47,-2.3000000000000003,0.037,0.26,99.98,5.0,,0.0,0.0,201.13
2025-08-14T23:16:16.620Z,5,GR86-025-47,-2.5,0.093,0.252,99.97,5.0,,0.0,0.0,
2025-08-14T23:16:16.663Z,5,GR86-025-47,-2.6,0.063,0.264,99.97,5.0,,0.0,0.0,
2025-08-14T23:16:16.706Z,5,GR86-025-47,-1.7000000000000002,0.083,0.268,99.97,5.0,,0.0,0.0,
2025-08-14T23:16:16.749Z,5,GR86-025-47,0.2,0.084,0.281,99.65,5.0,6909.0,6.745,7.17,
2025-08-14T23:16:16.792Z,5,GR86-025-47,1.2000000000000002,-0.01,0.245,49.86,5.0,,12.24,12.5,201.4
2025-08-14T23:16:16.835Z,5,GR86-025-47,0.8,-0.123,0.266,11.05,5.0,,16.19,16.525,
2025-08-14T23:16:16.878Z,5,GR86-025-47,0.4,-0.143,0.246,5.28,5.0,,17.150000000000002,17.455000000000002,
2025-08-14T23:16:16.921Z,5,GR86-025-47,-0.3,-0.357,0.231,5.87,5.0,,17.455000000000002,18.175,
2025-08-14T23:16:16.964Z,5,GR86-025-47,-1.1,-0.419,0.251,14.1,5.0,6906.0,15.09,15.96,
2025-08-14T23:16:17.008Z,5,GR86-025-47,-1.3,-0.518,0.181,5.79,5.0,,12.775,13.49,202.14
2025-08-14T23:16:17.052Z,5,GR86-025-47,0.0,-0.387,0.226,3.23,5.0,,14.205,14.635,
2025-08-14T23:16:17.095Z,5,GR86-025-47,0.5,-0.407,0.229,3.23,5.0,,19.015,19.18,
2025-08-14T23:16:17.138Z,5,GR86-025-47,0.9,-0.493,0.182,3.17,5.0,,23.96,24.17,
2025-08-14T23:16:17.181Z,5,GR86-025-47,1.2000000000000002,-0.522,0.198,3.11,5.0,6640.0,25.865,26.11,
2025-08-14T23:16:17.224Z,5,GR86-025-47,1.1,-0.685,0.197,2.86,5.0,,32.14,32.14,200.2
2025-08-14T23:16:17.267Z,5,GR86-025-47,0.8,-0.736,0.17,2.7,5.0,,34.745,34.81,
2025-08-14T23:16:17.311Z,5,GR86-025-47,0.7000000000000001,-0.75,0.176,2.57,5.0,,37.205,37.525,
2025-08-14T23:16:17.354Z,5,GR86-025-47,0.6000000000000001,-0.789,0.17,2.5500000000000003,5.0,,37.77,38.045,
2025-08-14T23:16:17.397Z,5,GR86-025-47,0.6000000000000001,-0.781,0.159,2.54,5.0,6462.0,37.77,38.44,
2025-08-14T23:16:17.440Z,5,GR86-025-47,0.6000000000000001,-0.794,0.14,2.54,5.0,,37.42,38.15,197.02
2025-08-14T23:16:17.483Z,5,GR86-025-47,1.3,-0.781,0.2,2.54,5.0,,37.385,37.95,
2025-08-14T23:16:17.526Z,5,GR86-025-47,3.5,-0.785,0.219,2.54,5.0,,38.41,38.775,
2025-08-14T23:16:17.569Z,5,GR86-025-47,4.6000000000000005,-0.805,0.195,2.54,5.0,,38.805,39.25,
2025-08-14T23:16:17.612Z,5,GR86-025-47,4.4,-0.78,0.28,2.54,5.0,6230.0,38.685,39.31,
2025-08-14T23:16:17.655Z,5,GR86-025-47,3.7,-0.759,0.244,2.53,5.0,,38.075,38.9,186.24
2025-08-14T23:16:17.698Z,5,GR86-025-47,0.2,-0.759,0.229,2.53,5.0,,37.355,38.44,
2025-08-14T23:16:17.741Z,5,GR86-025-47,-3.2,-0.785,0.219,2.51,5.0,,37.42,38.625,
2025-08-14T23:16:17.785Z,5,GR86-025-47,-5.2,-0.786,0.163,2.52,5.0,,37.525,38.53,
2025-08-14T23:16:17.828Z,5,GR86-025-47,-6.9,-0.775,0.143,2.51,5.0,6031.0,38.15,38.9,
2025-08-14T23:16:17.871Z,5,GR86-025-47,-7.2,-0.804,0.191,2.51,5.0,,38.18,39.005,180.4
2025-08-14T23:16:17.914Z,5,GR86-025-47,-7.300000000000001,-0.788,0.158,7.09,5.0,,38.5,39.155,
2025-08-14T23:16:17.957Z,5,GR86-025-47,-4.6000000000000005,-0.8130000000000001,0.223,48.49,5.0,,40.27,40.365,
2025-08-14T23:16:18.001Z,5,GR86-025-47,-0.7000000000000001,-0.845,0.215,93.49,5.0,,44.435,44.16,
2025-08-14T23:16:18.044Z,5,GR86-025-47,1.7000000000000002,-0.867,0.276,98.15,5.0,5784.0,47.81,47.43,
2025-08-14T23:16:18.088Z,5,GR86-025-47,1.8,-0.81,0.178,18.13,5.0,,45.49,46.435,175.36
2025-08-14T23:16:18.131Z,5,GR86-025-47,1.2000000000000002,-0.89,0.215,5.46,4.0,,38.41,40.27,
2025-08-14T23:16:18.174Z,5,GR86-025-47,0.9,-0.878,0.401,5.17,4.0,,34.565,36.245,
2025-08-14T23:16:18.217Z,5,GR86-025-47,0.7000000000000001,-0.741,0.245,4.5,4.0,,26.81,27.285,
2025-08-14T23:16:18.260Z,5,GR86-025-47,0.4,-0.663,0.152,4.18,4.0,6366.0,26.23,26.84,
2025-08-14T23:16:18.303Z,5,GR86-025-47,-0.3,-0.629,0.158,3.88,4.0,,26.23,26.905,170.45000000000002
2025-08-14T23:16:18.348Z,5,GR86-025-47,0.1,-0.601,0.162,3.2,4.0,,26.505,27.315,
2025-08-14T23:16:18.391Z,5,GR86-025-47,1.7000000000000002,-0.604,0.204,2.91,4.0,,26.905,27.345,
2025-08-14T23:16:18.434Z,5,GR86-025-47,3.7,-0.58,0.169,2.73,4.0,,26.965,27.59,
2025-08-14T23:16:18.477Z,5,GR86-025-47,4.6000000000000005,-0.682,0.172,2.69,4.0,6293.0,26.905,27.865,
2025-08-14T23:16:18.520Z,5,GR86-025-47,4.0,-0.646,0.219,2.6,4.0,,26.905,27.59,166.43
2025-08-14T23:16:18.563Z,5,GR86-025-47,3.5,-0.6980000000000001,0.186,2.54,4.0,,28.155,28.69,
2025-08-14T23:16:18.606Z,5,GR86-025-47,1.9,-0.655,0.187,35.480000000000004,4.0,,33.315,33.375,
2025-08-14T23:16:18.649Z,5,GR86-025-47,1.8,-0.755,0.203,79.95,4.0,,37.02,37.11,
2025-08-14T23:16:18.692Z,5,GR86-025-47,3.1,-0.8160000000000001,0.223,100.04,4.0,6138.0,38.21,38.805,
2025-08-14T23:16:18.735Z,5,GR86-025-47,6.800000000000001,-0.81,0.268,71.39,3.0,,38.47,39.19,162.51
2025-08-14T23:16:18.778Z,5,GR86-025-47,7.300000000000001,-0.717,0.238,35.9,3.0,,38.685,39.19,
2025-08-14T23:16:18.821Z,5,GR86-025-47,6.5,-0.8300000000000001,0.322,17.740000000000002,3.0,,39.875,41.34,
2025-08-14T23:16:18.864Z,5,GR86-025-47,2.8000000000000003,-0.705,0.315,3.04,3.0,,40.21,40.835,
2025-08-14T23:16:18.908Z,5,GR86-025-47,-3.2,-0.81,0.134,3.01,3.0,6864.0,42.18,42.425,
2025-08-14T23:16:18.951Z,5,GR86-025-47,-5.9,-0.777,0.328,2.98,3.0,,43.55,44.025,157.56
2025-08-14T23:16:18.994Z,5,GR86-025-47,-8.0,-0.784,0.208,2.95,3.0,,44.055,44.68,
2025-08-14T23:16:19.037Z,5,GR86-025-47,-8.3,-0.867,0.07,2.89,3.0,,43.585,44.375,
2025-08-14T23:16:19.124Z,5,GR86-025-47,-6.9,-0.842,0.133,2.85,3.0,6665.0,43.02,43.735,
2025-08-14T23:16:19.168Z,5,GR86-025-47,3.5,-0.8240000000000001,0.198,2.68,3.0,,35.085,36.9,150.93
2025-08-14T23:16:19.211Z,5,GR86-025-47,4.800000000000001,-0.8250000000000001,0.251,2.6,3.0,,30.61,31.51,
2025-08-14T23:16:19.254Z,5,GR86-025-47,3.8,-0.717,0.292,2.57,3.0,,29.36,29.68,
2025-08-14T23:16:19.297Z,5,GR86-025-47,1.0,-0.627,0.221,2.54,3.0,,29.865,30.675,
2025-08-14T23:16:19.340Z,5,GR86-025-47,-2.6,-0.709,0.105,2.52,3.0,6482.0,30.335,31.205,
2025-08-14T23:16:19.426Z,5,GR86-025-47,-1.3,-0.787,0.106,2.51,3.0,,34.03,34.715,146.51
2025-08-14T23:16:19.469Z,5,GR86-025-47,1.9,-0.684,0.12,2.51,3.0,,34.93,35.375,
2025-08-14T23:16:19.512Z,5,GR86-025-47,6.300000000000001,-0.74,0.158,2.51,3.0,,36.455,36.73,
2025-08-14T23:16:19.555Z,5,GR86-025-47,7.7,-0.749,0.211,2.51,3.0,6419.0,38.44,38.9,
2025-08-14T23:16:19.598Z,5,GR86-025-47,8.1,-0.846,0.165,2.5,3.0,,41.31,41.49,142.83
2025-08-14T23:16:19.641Z,5,GR86-025-47,7.4,-0.905,0.158,2.51,3.0,,44.62,44.53,
2025-08-14T23:16:19.684Z,5,GR86-025-47,6.9,-0.915,0.213,2.5,3.0,,45.625,45.78,
2025-08-14T23:16:19.771Z,5,GR86-025-47,6.1000000000000005,-0.92,0.165,2.51,3.0,6055.0,47.245,47.870000000000005,
2025-08-14T23:16:19.857Z,5,GR86-025-47,4.0,-0.963,0.206,46.64,3.0,,46.865,47.81,136.47
2025-08-14T23:16:19.901Z,5,GR86-025-47,-1.3,-0.927,0.137,28.43,2.0,,47.58,48.33,
2025-08-14T23:16:19.944Z,5,GR86-025-47,-2.6,-0.8300000000000001,0.169,15.54,2.0,,50.28,52.370000000000005,
2025-08-14T23:16:19.988Z,5,GR86-025-47,-2.5,-0.6910000000000001,0.087,4.15,2.0,5760.0,51.565,51.655,
2025-08-14T23:16:20.032Z,5,GR86-025-47,0.6000000000000001,-0.991,0.045,4.15,2.0,,53.775,54.83,131.04
2025-08-14T23:16:20.075Z,5,GR86-025-47,6.0,-0.728,0.306,4.09,2.0,,52.585,54.585,
2025-08-14T23:16:20.118Z,5,GR86-025-47,16.400000000000002,-0.736,0.328,3.77,2.0,,49.67,49.7,
2025-08-14T23:16:20.161Z,5,GR86-025-47,21.3,-0.984,0.206,3.35,2.0,,57.5,58.31,
2025-08-14T23:16:20.204Z,5,GR86-025-47,21.200000000000003,-0.709,0.837,3.01,2.0,6327.0,63.205,65.3,
2025-08-14T23:16:20.248Z,5,GR86-025-47,13.3,-1.022,0.193,2.75,2.0,,62.72,63.465,116.86
2025-08-14T23:16:20.291Z,5,GR86-025-47,1.8,-1.135,0.417,2.63,2.0,,69.645,71.205,
2025-08-14T23:16:20.334Z,5,GR86-025-47,-6.0,-0.763,0.489,2.56,2.0,,76.145,77.995,
2025-08-14T23:16:20.377Z,5,GR86-025-47,-6.1000000000000005,-0.804,0.252,2.5500000000000003,2.0,,77.965,79.14,
2025-08-14T23:16:20.421Z,5,GR86-025-47,7.800000000000001,-0.977,0.149,2.51,2.0,6288.0,86.525,86.935,
2025-08-14T23:16:20.464Z,5,GR86-025-47,23.8,-0.754,0.622,2.51,2.0,,85.53,86.19,114.2
2025-08-14T23:16:20.508Z,5,GR86-025-47,39.900000000000006,-0.845,0.276,2.51,2.0,,85.015,85.24,
2025-08-14T23:16:20.551Z,5,GR86-025-47,40.7,-0.729,0.473,2.5,2.0,,81.55,82.265,
2025-08-14T23:16:20.594Z,5,GR86-025-47,40.2,-0.905,0.555,2.5,2.0,,77.58,78.36,
2025-08-14T23:16:20.638Z,5,GR86-025-47,39.900000000000006,-0.787,0.357,2.51,2.0,6224.0,72.76,74.15,
2025-08-14T23:16:20.681Z,5,GR86-025-47,39.0,-0.894,0.373,2.5,2.0,,71.58500000000001,73.11,108.9
2025-08-14T23:16:20.724Z,5,GR86-025-47,30.9,-0.724,0.433,2.5,2.0,,72.67,74.59,
2025-08-14T23:16:20.768Z,5,GR86-025-47,29.9,-0.937,0.235,4.33,2.0,,72.18,72.67,
2025-08-14T23:16:20.811Z,5,GR86-025-47,33.0,-0.771,0.562,65.24,2.0,,73.69,74.025,
2025-08-14T23:16:20.854Z,5,GR86-025-47,33.1,-0.846,0.582,96.81,1.0,5592.0,73.08,73.815,
2025-08-14T23:16:20.897Z,5,GR86-025-47,35.0,-0.911,0.285,40.78,1.0,,76.42,78.025,103.04
2025-08-14T23:16:20.940Z,5,GR86-025-47,39.5,-1.071,0.533,18.43,1.0,,82.08500000000001,84.58500000000001,
2025-08-14T23:16:20.983Z,5,GR86-025-47,40.6,-0.84,0.71,13.59,1.0,,81.395,84.05,
2025-08-14T23:16:21.028Z,5,GR86-025-47,40.400000000000006,-0.768,0.136,3.28,1.0,,73.66,73.965,
2025-08-14T23:16:21.071Z,5,GR86-025-47,39.900000000000006,-1.067,0.235,3.2,1.0,6198.0,73.57000000000001,74.08500000000001,
2025-08-14T23:16:21.114Z,5,GR86-025-47,39.7,-0.784,0.6970000000000001,3.0700000000000003,1.0,,73.265,74.83500000000001,95.57
2025-08-14T23:16:21.157Z,5,GR86-025-47,49.0,-0.636,-0.017,3.04,1.0,,72.83500000000001,73.02,
2025-08-14T23:16:21.201Z,5,GR86-025-47,56.3,-1.145,0.503,2.95,1.0,,73.4,73.17,
2025-08-14T23:16:21.244Z,5,GR86-025-47,58.6,-0.618,0.986,2.85,1.0,,63.74,65.235,
2025-08-14T23:16:21.288Z,5,GR86-025-47,58.400000000000006,-0.8170000000000001,0.23,2.72,1.0,6394.0,60.11,60.2,
2025-08-14T23:16:21.331Z,5,GR86-025-47,58.400000000000006,-0.932,0.477,2.66,1.0,,60.58,61.42,81.79
2025-08-14T23:16:21.374Z,5,GR86-025-47,58.400000000000006,-0.94,0.767,2.63,1.0,,58.28,60.02,
2025-08-14T23:16:21.418Z,5,GR86-025-47,58.3,-0.942,0.255,2.6,1.0,,50.16,51.715,
2025-08-14T23:16:21.461Z,5,GR86-025-47,57.900000000000006,-0.782,0.452,2.57,1.0,,50.465,51.565,
2025-08-14T23:16:21.504Z,5,GR86-025-47,57.8,-0.75,0.773,2.57,1.0,5974.0,47.015,48.955,
2025-08-14T23:16:21.548Z,5,GR86-025-47,57.5,-0.749,0.483,2.57,1.0,,44.59,45.065,80.99
2025-08-14T23:16:21.591Z,5,GR86-025-47,57.3,-0.788,0.603,2.54,1.0,,45.49,45.84,
2025-08-14T23:16:21.634Z,5,GR86-025-47,54.3,-0.807,0.628,2.56,1.0,,46.27,47.275,
2025-08-14T23:16:21.677Z,5,GR86-025-47,50.6,-0.798,0.666,2.54,1.0,,47.335,48.235,
2025-08-14T23:16:21.720Z,5,GR86-025-47,49.0,-0.876,0.25,2.54,1.0,5561.0,49.305,49.58,
2025-08-14T23:16:21.763Z,5,GR86-025-47,50.3,-0.596,0.777,2.53,1.0,,45.065,46.435,77.97
2025-08-14T23:16:21.806Z,5,GR86-025-47,57.8,-0.769,0.311,2.54,1.0,,43.05,44.025,
2025-08-14T23:16:21.849Z,5,GR86-025-47,63.1,-0.768,0.6970000000000001,2.54,1.0,,43.615,44.805,
2025-08-14T23:16:21.892Z,5,GR86-025-47,67.3,-0.71,0.745,2.54,1.0,,39.065,40.47,
2025-08-14T23:16:21.935Z,5,GR86-025-47,69.3,-0.652,0.614,2.53,1.0,5212.0,33.68,34.365,
2025-08-14T23:16:21.978Z,5,GR86-025-47,71.0,-0.593,0.686,2.54,1.0,,31.925,32.99,72.15
2025-08-14T23:16:22.021Z,5,GR86-025-47,71.9,-0.619,0.75,2.54,1.0,,29.5,30.58,
2025-08-14T23:16:22.064Z,5,GR86-025-47,72.0,-0.61,0.761,2.54,1.0,,27.375,28.185,
2025-08-14T23:16:22.108Z,5,GR86-025-47,72.4,-0.604,0.759,2.54,1.0,,23.805,24.765,
2025-08-14T23:16:22.151Z,5,GR86-025-47,72.4,-0.521,0.805,2.54,1.0,4933.0,19.21,19.87,
2025-08-14T23:16:22.194Z,5,GR86-025-47,72.4,-0.495,0.684,2.54,1.0,,16.375,17.12,69.33
2025-08-14T23:16:22.238Z,5,GR86-025-47,72.4,-0.46,0.768,2.53,1.0,,13.58,14.51,
2025-08-14T23:16:22.281Z,5,GR86-025-47,72.4,-0.457,0.8140000000000001,2.51,1.0,,12.65,13.305,
2025-08-14T23:16:22.324Z,5,GR86-025-47,72.4,-0.456,0.795,2.54,1.0,,13.335,13.95,
2025-08-14T23:16:22.368Z,5,GR86-025-47,72.4,-0.422,0.8230000000000001,2.52,1.0,4677.0,13.4,14.055,
2025-08-14T23:16:22.411Z,5,GR86-025-47,72.4,-0.395,0.786,2.54,1.0,,12.21,13.11,67.33
2025-08-14T23:16:22.454Z,5,GR86-025-47,72.4,-0.397,0.8180000000000001,2.53,1.0,,7.83,8.575000000000001,
2025-08-14T23:16:22.497Z,5,GR86-025-47,72.4,-0.293,0.9,2.51,1.0,,2.455,3.035,
2025-08-14T23:16:22.540Z,5,GR86-025-47,72.7,-0.191,0.884,2.52,1.0,,0.0,0.0,
2025-08-14T23:16:22.583Z,5,GR86-025-47,75.0,-0.178,0.893,2.53,1.0,4497.0,0.0,0.0,
2025-08-14T23:16:22.626Z,5,GR86-025-47,83.5,-0.161,0.905,2.52,1.0,,0.0,0.0,65.61
2025-08-14T23:16:22.669Z,5,GR86-025-47,90.7,-0.157,0.901,2.51,1.0,,0.0,0.0,
2025-08-14T23:16:22.712Z,5,GR86-025-47,96.8,-0.169,0.993,2.52,1.0,,0.0,0.0,
2025-08-14T23:16:22.755Z,5,GR86-025-47,101.4,-0.157,0.956,2.53,1.0,,0.0,0.0,
2025-08-14T23:16:22.798Z,5,GR86-025-47,103.5,-0.157,0.982,2.52,1.0,4404.0,0.0,0.0,
2025-08-14T23:16:22.841Z,5,GR86-025-47,103.6,-0.162,1.009,2.66,1.0,,0.0,0.0,63.61
2025-08-14T23:16:22.884Z,5,GR86-025-47,103.6,-0.17,0.989,3.75,1.0,,0.0,0.0,
2025-08-14T23:16:22.928Z,5,GR86-025-47,103.6,-0.164,0.969,18.24,1.0,,0.0,0.0,
2025-08-14T23:16:22.971Z,5,GR86-025-47,103.6,-0.163,0.981,20.02,1.0,,0.0,0.0,
2025-08-14T23:16:23.014Z,5,GR86-025-47,103.6,-0.145,0.973,20.47,1.0,4309.0,0.0,0.0,
2025-08-14T23:16:23.058Z,5,GR86-025-47,103.6,-0.108,1.011,21.54,1.0,,0.0,0.0,61.06
2025-08-14T23:16:23.101Z,5,GR86-025-47,103.6,-0.08,0.997,23.14,1.0,,0.0,0.0,
2025-08-14T23:16:23.144Z,5,GR86-025-47,103.6,-0.086,0.927,24.82,1.0,,0.0,0.0,
2025-08-14T23:16:23.188Z,5,GR86-025-47,103.6,0.07,0.998,25.8,1.0,,0.0,0.0,
2025-08-14T23:16:23.231Z,5,GR86-025-47,103.6,0.222,0.941,25.89,1.0,4299.0,0.0,0.0,
2025-08-14T23:16:23.274Z,5,GR86-025-47,103.4,0.219,0.918,26.09,1.0,,0.0,0.0,60.04
2025-08-14T23:16:23.317Z,5,GR86-025-47,102.6,0.242,0.975,26.56,1.0,,0.0,0.0,
2025-08-14T23:16:23.360Z,5,GR86-025-47,101.3,0.232,0.924,26.61,1.0,,0.0,0.0,
2025-08-14T23:16:23.403Z,5,GR86-025-47,99.7,0.21,0.922,26.58,1.0,,0.0,0.0,
2025-08-14T23:16:23.448Z,5,GR86-025-47,97.5,0.16,0.986,26.63,1.0,4595.0,0.0,0.0,
2025-08-14T23:16:23.491Z,5,GR86-025-47,96.4,0.149,0.92,26.67,1.0,,0.0,0.0,60.18
2025-08-14T23:16:23.534Z,5,GR86-025-47,95.9,0.177,0.967,26.69,1.0,,0.0,0.0,
2025-08-14T23:16:23.577Z,5,GR86-025-47,94.9,0.2,0.967,26.72,1.0,,0.0,0.0,
2025-08-14T23:16:23.620Z,5,GR86-025-47,93.5,0.213,0.904,26.99,1.0,,0.0,0.0,
2025-08-14T23:16:23.663Z,5,GR86-025-47,91.7,0.205,0.95,27.99,1.0,4721.0,0.0,0.0,
2025-08-14T23:16:23.706Z,5,GR86-025-47,90.2,0.198,0.942,28.76,1.0,,0.0,0.0,61.26
2025-08-14T23:16:23.749Z,5,GR86-025-47,90.1,0.202,0.953,29.12,1.0,,0.0,0.0,
2025-08-14T23:16:23.792Z,5,GR86-025-47,89.9,0.19,0.928,29.23,1.0,,0.0,0.0,
2025-08-14T23:16:23.835Z,5,GR86-025-47,89.80000000000001,0.205,0.909,29.29,1.0,,0.0,0.0,
2025-08-14T23:16:23.878Z,5,GR86-025-47,89.60000000000001,0.224,0.94,29.29,1.0,4835.0,0.0,0.0,
2025-08-14T23:16:23.921Z,5,GR86-025-47,88.60000000000001,0.234,0.945,29.64,1.0,,0.0,0.0,62.36
2025-08-14T23:16:23.964Z,5,GR86-025-47,85.0,0.226,0.932,30.54,1.0,,0.0,0.0,
2025-08-14T23:16:24.009Z,5,GR86-025-47,72.9,0.221,0.951,31.15,1.0,,0.0,0.0,
2025-08-14T23:16:24.052Z,5,GR86-025-47,63.900000000000006,0.236,0.913,31.29,1.0,,0.0,0.0,
2025-08-14T23:16:24.095Z,5,GR86-025-47,56.8,0.262,0.889,32.07,1.0,4920.0,0.0,0.0,
2025-08-14T23:16:24.138Z,5,GR86-025-47,52.6,0.264,0.858,33.87,1.0,,0.0,0.0,63.49
2025-08-14T23:16:24.181Z,5,GR86-025-47,51.7,0.275,0.834,35.32,1.0,,0.0,0.0,
2025-08-14T23:16:24.224Z,5,GR86-025-47,51.7,0.29,0.854,45.27,1.0,,0.0,0.0,
2025-08-14T23:16:24.268Z,5,GR86-025-47,52.6,0.284,0.836,67.08,1.0,,0.0,0.0,
2025-08-14T23:16:24.311Z,5,GR86-025-47,52.6,0.314,0.854,99.84,1.0,5038.0,0.0,0.0,
2025-08-14T23:16:24.354Z,5,GR86-025-47,52.1,0.317,0.855,100.02,1.0,,0.0,0.0,64.79
2025-08-14T23:16:24.397Z,5,GR86-025-47,51.7,0.357,0.8170000000000001,100.0,1.0,,0.0,0.0,
2025-08-14T23:16:24.440Z,5,GR86-025-47,51.2,0.376,0.8270000000000001,100.01,1.0,,0.0,0.0,
2025-08-14T23:16:24.483Z,5,GR86-025-47,50.3,0.379,0.801,100.02,1.0,,0.0,0.0,
2025-08-14T23:16:24.526Z,5,GR86-025-47,50.0,0.386,0.778,100.03,1.0,5253.0,0.0,0.0,
2025-08-14T23:16:24.569Z,5,GR86-025-47,49.8,0.369,0.792,100.03,1.0,,0.0,0.0,66.11
2025-08-14T23:16:24.612Z,5,GR86-025-47,47.1,0.335,0.738,100.02,1.0,,0.0,0.0,
2025-08-14T23:16:24.655Z,5,GR86-025-47,40.900000000000006,0.341,0.768,100.03,1.0,,0.0,0.0,
2025-08-14T23:16:24.698Z,5,GR86-025-47,34.5,0.374,0.725,100.02,1.0,,0.0,0.0,
2025-08-14T23:16:24.741Z,5,GR86-025-47,30.8,0.396,0.7010000000000001,100.02,1.0,5381.0,0.0,0.0,
2025-08-14T23:16:24.784Z,5,GR86-025-47,29.4,0.398,0.721,100.03,1.0,,0.0,0.0,68.02
2025-08-14T23:16:24.828Z,5,GR86-025-47,28.4,0.389,0.678,100.02,1.0,,0.0,0.0,
2025-08-14T23:16:24.871Z,5,GR86-025-47,28.0,0.374,0.685,100.03,1.0,,0.0,0.0,
2025-08-14T23:16:24.914Z,5,GR86-025-47,27.6,0.378,0.651,100.04,1.0,,0.0,0.0,
2025-08-14T23:16:24.957Z,5,GR86-025-47,27.200000000000003,0.379,0.625,100.01,1.0,5517.0,0.0,0.0,
2025-08-14T23:16:25.001Z,5,GR86-025-47,26.5,0.39,0.633,100.04,1.0,,0.0,0.0,70.3
2025-08-14T23:16:25.044Z,5,GR86-025-47,25.6,0.391,0.5720000000000001,100.01,1.0,,0.0,0.0,
2025-08-14T23:16:25.088Z,5,GR86-025-47,23.8,0.383,0.56,100.02,1.0,,0.0,0.0,
2025-08-14T23:16:25.131Z,5,GR86-025-47,21.700000000000003,0.362,0.497,100.01,1.0,,0.0,0.0,
2025-08-14T23:16:25.174Z,5,GR86-025-47,20.4,0.35,0.495,100.01,1.0,5654.0,0.0,0.0,
2025-08-14T23:16:25.217Z,5,GR86-025-47,20.1,0.366,0.463,100.02,1.0,,0.0,0.0,72.45
2025-08-14T23:16:25.260Z,5,GR86-025-47,19.8,0.367,0.452,100.02,1.0,,0.0,0.0,
2025-08-14T23:16:25.303Z,5,GR86-025-47,19.5,0.38,0.442,100.04,1.0,,0.0,0.0,
2025-08-14T23:16:25.348Z,5,GR86-025-47,18.6,0.365,0.438,100.03,1.0,,0.0,0.0,
2025-08-14T23:16:25.391Z,5,GR86-025-47,17.2,0.362,0.406,100.03,1.0,5819.0,0.0,0.0,
2025-08-14T23:16:25.434Z,5,GR86-025-47,16.1,0.373,0.387,100.04,1.0,,0.0,0.0,74.21000000000001
2025-08-14T23:16:25.477Z,5,GR86-025-47,15.8,0.368,0.39,100.02,1.0,,0.0,0.0,
2025-08-14T23:16:25.521Z,5,GR86-025-47,15.5,0.378,0.35,100.04,1.0,,0.0,0.0,
2025-08-14T23:16:25.564Z,5,GR86-025-47,15.1,0.373,0.364,100.03,1.0,,0.0,0.0,
2025-08-14T23:16:25.608Z,5,GR86-025-47,14.6,0.357,0.343,100.04,1.0,5985.0,0.0,0.0,
2025-08-14T23:16:25.651Z,5,GR86-025-47,13.6,0.371,0.346,100.03,1.0,,0.0,0.0,79.01
2025-08-14T23:16:25.694Z,5,GR86-025-47,12.0,0.358,0.316,100.03,1.0,,0.0,0.0,
2025-08-14T23:16:25.738Z,5,GR86-025-47,11.4,0.373,0.316,100.03,1.0,,0.0,0.0,
2025-08-14T23:16:25.781Z,5,GR86-025-47,11.2,0.375,0.303,100.02,1.0,,0.0,0.0,
2025-08-14T23:16:25.824Z,5,GR86-025-47,10.8,0.367,0.294,100.04,1.0,6154.0,0.0,0.0,
2025-08-14T23:16:25.868Z,5,GR86-025-47,6.300000000000001,0.356,0.269,100.02,1.0,,0.0,0.0,81.51
2025-08-14T23:16:25.911Z,5,GR86-025-47,1.3,0.348,0.236,100.04,1.0,,0.0,0.0,
2025-08-14T23:16:25.954Z,5,GR86-025-47,-3.9,0.36,0.19,100.05,1.0,,0.0,0.0,
2025-08-14T23:16:25.997Z,5,GR86-025-47,-7.5,0.37,0.155,100.04,1.0,,0.0,0.0,
2025-08-14T23:16:26.041Z,5,GR86-025-47,-9.0,0.365,0.117,100.03,1.0,6317.0,0.0,0.0,
2025-08-14T23:16:26.084Z,5,GR86-025-47,-9.4,0.374,0.113,100.04,1.0,,0.0,0.0,83.89
2025-08-14T23:16:26.128Z,5,GR86-025-47,-9.7,0.352,0.059,100.03,1.0,,0.0,0.0,
2025-08-14T23:16:26.171Z,5,GR86-025-47,-9.8,0.352,0.044,100.05,1.0,,0.0,0.0,
2025-08-14T23:16:26.214Z,5,GR86-025-47,-9.8,0.346,0.008,100.04,1.0,,0.0,0.0,
2025-08-14T23:16:26.301Z,5,GR86-025-47,-9.8,0.355,-0.016,100.04,1.0,6675.0,0.0,0.0,86.32000000000001
2025-08-14T23:16:26.344Z,5,GR86-025-47,-9.8,0.369,-0.015,100.03,1.0,,0.0,0.0,
2025-08-14T23:16:26.388Z,5,GR86-025-47,-9.9,0.355,-0.033,100.05,1.0,,0.0,0.0,
2025-08-14T23:16:26.431Z,5,GR86-025-47,-10.4,0.348,-0.046,100.05,1.0,,0.0,0.0,
2025-08-14T23:16:26.474Z,5,GR86-025-47,-12.8,0.338,-0.064,100.04,1.0,6841.0,0.0,0.0,
2025-08-14T23:16:26.518Z,5,GR86-025-47,-14.2,0.321,-0.095,100.04,1.0,,0.0,0.0,88.76
2025-08-14T23:16:26.561Z,5,GR86-025-47,-14.3,0.335,-0.106,100.04,1.0,,0.0,0.0,
2025-08-14T23:16:26.604Z,5,GR86-025-47,-13.5,0.358,-0.106,100.04,1.0,,0.0,0.0,
2025-08-14T23:16:26.648Z,5,GR86-025-47,-11.6,0.361,-0.1,100.04,1.0,,0.0,0.0,
2025-08-14T23:16:26.691Z,5,GR86-025-47,-11.7,0.356,-0.1,100.06,1.0,7042.0,0.0,0.0,
2025-08-14T23:16:26.734Z,5,GR86-025-47,-11.8,0.328,-0.094,100.04,1.0,,0.0,0.0,91.09
2025-08-14T23:16:26.778Z,5,GR86-025-47,-11.9,0.327,-0.09,100.04,1.0,,0.0,0.0,
2025-08-14T23:16:26.821Z,5,GR86-025-47,-12.1,0.323,-0.087,100.04,1.0,,0.0,0.0,
2025-08-14T23:16:26.864Z,5,GR86-025-47,-12.1,0.333,-0.101,100.04,1.0,,0.0,0.0,
2025-08-14T23:16:26.908Z,5,GR86-025-47,-12.3,0.342,-0.091,100.06,1.0,7183.0,0.0,0.0,
2025-08-14T23:16:26.951Z,5,GR86-025-47,-12.9,0.323,-0.115,100.07,1.0,,0.0,0.0,93.42
2025-08-14T23:16:26.994Z,5,GR86-025-47,-14.1,0.103,-0.116,100.07,1.0,,0.0,0.0,
2025-08-14T23:16:27.038Z,5,GR86-025-47,-14.3,-0.082,-0.099,100.06,2.0,,0.0,0.0,
2025-08-14T23:16:27.081Z,5,GR86-025-47,-14.3,0.075,-0.084,100.04,2.0,,0.0,0.0,
2025-08-14T23:16:27.124Z,5,GR86-025-47,-14.0,0.678,-0.248,100.04,2.0,6756.0,0.0,0.0,
2025-08-14T23:16:27.168Z,5,GR86-025-47,-12.0,0.438,-0.221,100.07,2.0,,0.0,0.0,95.67
2025-08-14T23:16:27.211Z,5,GR86-025-47,-12.0,0.309,-0.125,100.06,2.0,,0.0,0.0,
2025-08-14T23:16:27.254Z,5,GR86-025-47,-11.8,0.17,-0.278,100.05,2.0,,0.0,0.0,
2025-08-14T23:16:27.297Z,5,GR86-025-47,-11.6,0.183,-0.155,100.05,2.0,,0.0,0.0,
2025-08-14T23:16:27.340Z,5,GR86-025-47,-11.6,0.254,-0.132,100.03,2.0,5642.0,0.0,0.0,
2025-08-14T23:16:27.383Z,5,GR86-025-47,-11.6,0.298,-0.171,100.04,2.0,,0.0,0.0,97.49
2025-08-14T23:16:27.426Z,5,GR86-025-47,-11.6,0.302,-0.107,100.06,2.0,,0.0,0.0,
2025-08-14T23:16:27.469Z,5,GR86-025-47,-11.7,0.297,-0.101,100.04,2.0,,0.0,0.0,
2025-08-14T23:16:27.512Z,5,GR86-025-47,-11.7,0.271,-0.093,100.04,2.0,,0.0,0.0,
2025-08-14T23:16:27.555Z,5,GR86-025-47,-11.7,0.266,-0.1,100.05,2.0,5886.0,0.0,0.0,
2025-08-14T23:16:27.598Z,5,GR86-025-47,-11.1,0.285,-0.066,100.05,2.0,,0.0,0.0,99.85
2025-08-14T23:16:27.641Z,5,GR86-025-47,-9.8,0.29,-0.056,100.05,2.0,,0.0,0.0,
2025-08-14T23:16:27.684Z,5,GR86-025-47,-8.9,0.285,-0.061,100.05,2.0,,0.0,0.0,
2025-08-14T23:16:27.728Z,5,GR86-025-47,-8.5,0.279,-0.014,100.05,2.0,,0.0,0.0,
2025-08-14T23:16:27.771Z,5,GR86-025-47,-8.5,0.275,-0.023,100.05,2.0,5986.0,0.0,0.0,
2025-08-14T23:16:27.814Z,5,GR86-025-47,-8.5,0.265,-0.014,100.04,2.0,,0.0,0.0,101.57
2025-08-14T23:16:27.858Z,5,GR86-025-47,-8.5,0.278,-0.007,100.04,2.0,,0.0,0.0,
2025-08-14T23:16:27.901Z,5,GR86-025-47,-8.5,0.29,-0.01,100.03,2.0,,0.0,0.0,
2025-08-14T23:16:27.944Z,5,GR86-025-47,-8.3,0.291,-0.004,100.04,2.0,,0.0,0.0,
2025-08-14T23:16:27.989Z,5,GR86-025-47,-7.0,0.269,0.012,100.05,2.0,6076.0,0.0,0.0,
2025-08-14T23:16:28.032Z,5,GR86-025-47,-5.5,0.275,0.012,100.06,2.0,,0.0,0.0,103.28
2025-08-14T23:16:28.075Z,5,GR86-025-47,-4.4,0.266,0.026,100.04,2.0,,0.0,0.0,
2025-08-14T23:16:28.118Z,5,GR86-025-47,-4.2,0.283,0.034,100.03,2.0,,0.0,0.0,
2025-08-14T23:16:28.161Z,5,GR86-025-47,-4.4,0.286,0.046,100.05,2.0,,0.0,0.0,
2025-08-14T23:16:28.204Z,5,GR86-025-47,-4.6000000000000005,0.276,0.048,100.04,2.0,6151.0,0.0,0.0,
2025-08-14T23:16:28.248Z,5,GR86-025-47,-8.1,0.267,0.014,100.05,2.0,,0.0,0.0,106.54
2025-08-14T23:16:28.291Z,5,GR86-025-47,-11.0,0.285,-0.001,100.04,2.0,,0.0,0.0,
2025-08-14T23:16:28.334Z,5,GR86-025-47,-12.9,0.283,-0.039,100.04,2.0,,0.0,0.0,
2025-08-14T23:16:28.377Z,5,GR86-025-47,-13.2,0.292,-0.039,100.05,2.0,,0.0,0.0,
2025-08-14T23:16:28.421Z,5,GR86-025-47,-13.2,0.275,-0.066,100.04,2.0,6248.0,0.0,0.0,
2025-08-14T23:16:28.464Z,5,GR86-025-47,-13.2,0.262,-0.072,100.06,2.0,,0.0,0.0,108.09
2025-08-14T23:16:28.508Z,5,GR86-025-47,-13.2,0.275,-0.117,100.05,2.0,,0.0,0.0,
2025-08-14T23:16:28.551Z,5,GR86-025-47,-13.3,0.282,-0.119,100.04,2.0,,0.0,0.0,
2025-08-14T23:16:28.594Z,5,GR86-025-47,-13.2,0.263,-0.14,100.05,2.0,,0.0,0.0,
2025-08-14T23:16:28.637Z,5,GR86-025-47,-13.3,0.278,-0.151,100.04,2.0,6330.0,0.0,0.0,
2025-08-14T23:16:28.681Z,5,GR86-025-47,-13.3,0.269,-0.153,100.05,2.0,,0.0,0.0,109.57
2025-08-14T23:16:28.724Z,5,GR86-025-47,-13.3,0.271,-0.153,100.05,2.0,,0.0,0.0,
2025-08-14T23:16:28.768Z,5,GR86-025-47,-13.3,0.279,-0.151,100.04,2.0,,0.0,0.0,
2025-08-14T23:16:28.811Z,5,GR86-025-47,-12.4,0.286,-0.135,100.03,2.0,,0.0,0.0,
2025-08-14T23:16:28.854Z,5,GR86-025-47,-10.9,0.277,-0.133,100.03,2.0,6511.0,0.0,0.0,
2025-08-14T23:16:28.897Z,5,GR86-025-47,-10.1,0.28,-0.116,100.05,2.0,,0.0,0.0,111.02
2025-08-14T23:16:28.940Z,5,GR86-025-47,-10.1,0.259,-0.107,100.03,2.0,,0.0,0.0,
2025-08-14T23:16:28.983Z,5,GR86-025-47,-10.2,0.27,-0.092,100.05,2.0,,0.0,0.0,
2025-08-14T23:16:29.026Z,5,GR86-025-47,-10.5,0.287,-0.099,100.03,2.0,,0.0,0.0,
2025-08-14T23:16:29.069Z,5,GR86-025-47,-10.6,0.278,-0.087,100.04,2.0,6588.0,0.0,0.0,
2025-08-14T23:16:29.112Z,5,GR86-025-47,-10.6,0.254,-0.09,100.03,2.0,,0.0,0.0,112.42
2025-08-14T23:16:29.155Z,5,GR86-025-47,-10.6,0.257,-0.096,100.06,2.0,,0.0,0.0,
2025-08-14T23:16:29.198Z,5,GR86-025-47,-10.7,0.261,-0.09,100.04,2.0,,0.0,0.0,
2025-08-14T23:16:29.241Z,5,GR86-025-47,-10.7,0.273,-0.09,100.04,2.0,,0.0,0.0,
2025-08-14T23:16:29.284Z,5,GR86-025-47,-10.7,0.285,-0.084,100.01,2.0,6681.0,0.0,0.0,
2025-08-14T23:16:29.328Z,5,GR86-025-47,-10.1,0.279,-0.071,100.04,2.0,,0.0,0.0,113.68
2025-08-14T23:16:29.371Z,5,GR86-025-47,-10.1,0.265,-0.08,100.03,2.0,,0.0,0.0,
2025-08-14T23:16:29.414Z,5,GR86-025-47,-10.2,0.258,-0.078,100.04,2.0,,0.0,0.0,
2025-08-14T23:16:29.457Z,5,GR86-025-47,-10.3,0.283,-0.067,100.03,2.0,,0.0,0.0,
2025-08-14T23:16:29.501Z,5,GR86-025-47,-10.3,0.267,-0.081,100.03,2.0,6743.0,0.0,0.0,
2025-08-14T23:16:29.544Z,5,GR86-025-47,-10.4,0.275,-0.088,100.01,2.0,,0.0,0.0,114.93
2025-08-14T23:16:29.588Z,5,GR86-025-47,-10.5,0.263,-0.092,100.02,2.0,,0.0,0.0,
2025-08-14T23:16:29.631Z,5,GR86-025-47,-10.5,0.268,-0.083,100.03,2.0,,0.0,0.0,
2025-08-14T23:16:29.674Z,5,GR86-025-47,-10.5,0.272,-0.091,100.04,2.0,,0.0,0.0,
2025-08-14T23:16:29.717Z,5,GR86-025-47,-10.5,0.272,-0.101,100.02,2.0,6808.0,0.0,0.0,
2025-08-14T23:16:29.760Z,5,GR86-025-47,-10.5,0.272,-0.095,100.01,2.0,,0.0,0.0,116.2
2025-08-14T23:16:29.803Z,5,GR86-025-47,-10.5,0.262,-0.109,100.01,2.0,,0.0,0.0,
2025-08-14T23:16:29.848Z,5,GR86-025-47,-10.5,0.261,-0.092,100.01,2.0,,0.0,0.0,
2025-08-14T23:16:29.891Z,5,GR86-025-47,-10.5,0.266,-0.087,100.01,2.0,,0.0,0.0,
2025-08-14T23:16:29.934Z,5,GR86-025-47,-10.5,0.25,-0.094,100.04,2.0,6871.0,0.0,0.0,
2025-08-14T23:16:29.978Z,5,GR86-025-47,-10.5,0.263,-0.078,100.01,2.0,,0.0,0.0,117.5
2025-08-14T23:16:30.021Z,5,GR86-025-47,-10.5,0.271,-0.069,100.01,2.0,,0.0,0.0,
2025-08-14T23:16:30.064Z,5,GR86-025-47,-10.5,0.26,-0.086,100.03,2.0,,0.0,0.0,
2025-08-14T23:16:30.108Z,5,GR86-025-47,-9.9,0.27,-0.07,100.0,2.0,,0.0,0.0,
2025-08-14T23:16:30.151Z,5,GR86-025-47,-9.2,0.276,-0.06,100.02,2.0,6948.0,0.0,0.0,
2025-08-14T23:16:30.194Z,5,GR86-025-47,-9.1,0.272,-0.033,100.01,2.0,,0.0,0.0,118.65
2025-08-14T23:16:30.238Z,5,GR86-025-47,-9.2,0.249,-0.04,100.0,2.0,,0.0,0.0,
2025-08-14T23:16:30.281Z,5,GR86-025-47,-9.3,0.252,-0.027,100.01,2.0,,0.0,0.0,
2025-08-14T23:16:30.324Z,5,GR86-025-47,-9.4,0.254,-0.039,100.0,2.0,,0.0,0.0,
2025-08-14T23:16:30.368Z,5,GR86-025-47,-9.5,0.266,-0.056,100.02,2.0,7009.0,0.0,0.0,
2025-08-14T23:16:30.411Z,5,GR86-025-47,-9.3,0.269,-0.047,100.02,2.0,,0.0,0.0,119.85
2025-08-14T23:16:30.454Z,5,GR86-025-47,-6.9,0.269,-0.032,100.01,2.0,,0.0,0.0,
2025-08-14T23:16:30.497Z,5,GR86-025-47,-3.9,0.255,-0.006,100.02,2.0,,0.0,0.0,
2025-08-14T23:16:30.540Z,5,GR86-025-47,-1.6,0.25,0.0,100.01,2.0,,0.0,0.0,
2025-08-14T23:16:30.583Z,5,GR86-025-47,-0.7000000000000001,0.259,0.023,100.02,2.0,7075.0,0.0,0.0,
2025-08-14T23:16:30.626Z,5,GR86-025-47,-1.2000000000000002,0.278,0.06,100.01,2.0,,0.0,0.0,120.92
2025-08-14T23:16:30.671Z,5,GR86-025-47,-1.7000000000000002,0.252,0.057,100.02,2.0,,0.0,0.0,
2025-08-14T23:16:30.714Z,5,GR86-025-47,-2.1,0.24,0.067,100.02,2.0,,0.0,0.0,
