timestamp,lap,vehicle_id,steering_angle,accx_can,accy_can,ath,gear,nmot,pbrake_f,pbrake_r,speed
2025-08-14T22:13:05.113Z,2,GR86-047-21,-2.0,0.095,-0.001,27.27,4.0,,0.0,0.0,
2025-08-14T22:13:05.157Z,2,GR86-047-21,-2.0,0.108,-0.019,29.34,4.0,,0.0,0.0,
2025-08-14T22:13:05.199Z,2,GR86-047-21,-2.0,0.13,0.011,30.33,4.0,3299.0,0.0,0.0,
2025-08-14T22:13:05.243Z,2,GR86-047-21,-2.0,0.116,-0.004,33.18,4.0,,0.0,0.0,83.95
2025-08-14T22:13:05.287Z,2,GR86-047-21,-2.0,0.123,0.024,39.23,4.0,,0.0,0.0,
2025-08-14T22:13:05.329Z,2,GR86-047-21,-2.0,0.12,0.005,45.86,4.0,,0.0,0.0,
2025-08-14T22:13:05.373Z,2,GR86-047-21,-2.0,0.128,0.026,55.31,4.0,,0.0,0.0,
2025-08-14T22:13:05.416Z,2,GR86-047-21,-2.0,0.119,-0.002,67.79,4.0,3332.0,0.0,0.0,
2025-08-14T22:13:05.459Z,2,GR86-047-21,-2.0,0.146,0.013,79.82000000000001,4.0,,0.0,0.0,84.63
2025-08-14T22:13:05.502Z,2,GR86-047-21,-2.0,0.165,0.003,97.78,4.0,,0.0,0.0,
2025-08-14T22:13:05.546Z,2,GR86-047-21,-2.0,0.154,0.024,100.04,4.0,,0.0,0.0,
2025-08-14T22:13:05.589Z,2,GR86-047-21,-2.0,0.145,0.001,100.04,4.0,,0.0,0.0,
2025-08-14T22:13:05.632Z,2,GR86-047-21,-2.0,0.154,0.021,100.04,4.0,3389.0,0.0,0.0,
2025-08-14T22:13:05.676Z,2,GR86-047-21,-2.0,0.161,-0.003,100.04,4.0,,0.0,0.0,85.36
2025-08-14T22:13:05.719Z,2,GR86-047-21,-2.0,0.169,0.019,100.04,4.0,,0.0,0.0,
2025-08-14T22:13:05.761Z,2,GR86-047-21,-2.0,0.154,0.005,100.04,4.0,,0.0,0.0,
2025-08-14T22:13:05.807Z,2,GR86-047-21,-2.0,0.158,0.011,100.04,4.0,,0.0,0.0,
2025-08-14T22:13:05.849Z,2,GR86-047-21,-2.0,0.154,0.012,100.04,4.0,3425.0,0.0,0.0,
2025-08-14T22:13:05.893Z,2,GR86-047-21,-1.8,0.159,0.016,100.05,4.0,,0.0,0.0,87.37
2025-08-14T22:13:05.936Z,2,GR86-047-21,-1.7000000000000002,0.155,0.014,100.04,4.0,,0.0,0.0,
2025-08-14T22:13:05.979Z,2,GR86-047-21,-1.6,0.157,0.028,100.04,4.0,,0.0,0.0,
2025-08-14T22:13:06.023Z,2,GR86-047-21,-1.2000000000000002,0.152,0.022,100.04,4.0,,0.0,0.0,
2025-08-14T22:13:06.067Z,2,GR86-047-21,-0.1,0.149,0.039,100.04,4.0,3466.0,0.0,0.0,
2025-08-14T22:13:06.109Z,2,GR86-047-21,1.0,0.167,0.042,100.04,4.0,,0.0,0.0,88.48
2025-08-14T22:13:06.153Z,2,GR86-047-21,2.3000000000000003,0.161,0.052,100.03,4.0,,0.0,0.0,
2025-08-14T22:13:06.198Z,2,GR86-047-21,3.8,0.172,0.061,100.04,4.0,,0.0,0.0,
2025-08-14T22:13:06.240Z,2,GR86-047-21,5.300000000000001,0.152,0.083,100.04,4.0,,0.0,0.0,
2025-08-14T22:13:06.283Z,2,GR86-047-21,6.7,0.167,0.107,100.04,4.0,3502.0,0.0,0.0,
2025-08-14T22:13:06.326Z,2,GR86-047-21,8.5,0.16,0.146,100.04,4.0,,0.0,0.0,89.63
2025-08-14T22:13:06.369Z,2,GR86-047-21,9.2,0.166,0.171,100.04,4.0,,0.0,0.0,
2025-08-14T22:13:06.413Z,2,GR86-047-21,9.4,0.153,0.184,100.02,4.0,,0.0,0.0,
2025-08-14T22:13:06.457Z,2,GR86-047-21,9.4,0.151,0.205,100.02,4.0,,0.0,0.0,
2025-08-14T22:13:06.499Z,2,GR86-047-21,8.8,0.16,0.199,100.07,4.0,3598.0,0.0,0.0,
2025-08-14T22:13:06.543Z,2,GR86-047-21,4.7,0.159,0.187,100.04,4.0,,0.0,0.0,90.73
2025-08-14T22:13:06.587Z,2,GR86-047-21,-3.0,0.17,0.106,100.05,4.0,,0.0,0.0,
2025-08-14T22:13:06.629Z,2,GR86-047-21,-7.800000000000001,0.157,0.057,100.04,4.0,,0.0,0.0,
2025-08-14T22:13:06.673Z,2,GR86-047-21,-11.6,0.178,-0.023,100.03,4.0,,0.0,0.0,
2025-08-14T22:13:06.716Z,2,GR86-047-21,-14.3,0.155,-0.081,100.03,4.0,3642.0,0.0,0.0,
2025-08-14T22:13:06.759Z,2,GR86-047-21,-15.8,0.163,-0.152,100.04,4.0,,0.0,0.0,91.82
2025-08-14T22:13:06.802Z,2,GR86-047-21,-16.400000000000002,0.149,-0.19,100.04,4.0,,0.0,0.0,
2025-08-14T22:13:06.847Z,2,GR86-047-21,-16.6,0.141,-0.247,100.03,4.0,,0.0,0.0,
2025-08-14T22:13:06.889Z,2,GR86-047-21,-16.900000000000002,0.155,-0.284,100.03,4.0,,0.0,0.0,
2025-08-14T22:13:06.933Z,2,GR86-047-21,-17.400000000000002,0.141,-0.291,100.01,4.0,3686.0,0.0,0.0,
2025-08-14T22:13:06.976Z,2,GR86-047-21,-18.0,0.15,-0.328,100.02,4.0,,0.0,0.0,92.92
2025-08-14T22:13:07.019Z,2,GR86-047-21,-18.4,0.139,-0.323,100.03,4.0,,0.0,0.0,
2025-08-14T22:13:07.061Z,2,GR86-047-21,-18.8,0.153,-0.341,100.03,4.0,,0.0,0.0,
2025-08-14T22:13:07.107Z,2,GR86-047-21,-18.8,0.142,-0.339,100.04,4.0,,0.0,0.0,
2025-08-14T22:13:07.149Z,2,GR86-047-21,-18.8,0.143,-0.336,100.01,4.0,3725.0,0.0,0.0,
2025-08-14T22:13:07.193Z,2,GR86-047-21,-18.8,0.15,-0.326,100.04,4.0,,0.0,0.0,94.05
2025-08-14T22:13:07.236Z,2,GR86-047-21,-16.7,0.136,-0.306,100.01,4.0,,0.0,0.0,
2025-08-14T22:13:07.279Z,2,GR86-047-21,-12.8,0.14,-0.28,100.03,4.0,,0.0,0.0,
2025-08-14T22:13:07.323Z,2,GR86-047-21,-8.8,0.128,-0.233,100.03,4.0,,0.0,0.0,
2025-08-14T22:13:07.366Z,2,GR86-047-21,-2.6,0.161,-0.166,100.04,4.0,3767.0,0.0,0.0,
2025-08-14T22:13:07.409Z,2,GR86-047-21,1.9,0.165,-0.106,100.04,4.0,,0.0,0.0,95.17
2025-08-14T22:13:07.451Z,2,GR86-047-21,6.0,0.151,-0.04,100.04,4.0,,0.0,0.0,
2025-08-14T22:13:07.495Z,2,GR86-047-21,9.2,0.152,0.033,100.04,4.0,,0.0,0.0,
2025-08-14T22:13:07.540Z,2,GR86-047-21,11.4,0.146,0.11,100.03,4.0,,0.0,0.0,
2025-08-14T22:13:07.626Z,2,GR86-047-21,12.5,0.146,0.16,100.04,4.0,3809.0,0.0,0.0,96.29
2025-08-14T22:13:07.669Z,2,GR86-047-21,13.0,0.161,0.26,100.04,4.0,,0.0,0.0,
2025-08-14T22:13:07.712Z,2,GR86-047-21,13.0,0.158,0.298,100.04,4.0,,0.0,0.0,
2025-08-14T22:13:07.757Z,2,GR86-047-21,13.0,0.142,0.312,100.04,4.0,,0.0,0.0,
2025-08-14T22:13:07.799Z,2,GR86-047-21,13.0,0.16,0.316,100.02,4.0,3857.0,0.0,0.0,
2025-08-14T22:13:07.887Z,2,GR86-047-21,13.0,0.139,0.314,100.04,4.0,,0.0,0.0,97.37
2025-08-14T22:13:07.930Z,2,GR86-047-21,13.0,0.168,0.303,100.04,4.0,,0.0,0.0,
2025-08-14T22:13:07.973Z,2,GR86-047-21,13.0,0.143,0.294,100.04,4.0,,0.0,0.0,
2025-08-14T22:13:08.018Z,2,GR86-047-21,12.9,0.155,0.277,100.02,4.0,3893.0,0.0,0.0,
2025-08-14T22:13:08.060Z,2,GR86-047-21,12.7,0.136,0.273,100.04,4.0,,0.0,0.0,98.43
2025-08-14T22:13:08.103Z,2,GR86-047-21,12.0,0.161,0.256,100.04,4.0,,0.0,0.0,
2025-08-14T22:13:08.147Z,2,GR86-047-21,9.2,0.16,0.24,100.04,4.0,,0.0,0.0,
2025-08-14T22:13:08.189Z,2,GR86-047-21,6.800000000000001,0.146,0.211,100.05,4.0,,0.0,0.0,
2025-08-14T22:13:08.232Z,2,GR86-047-21,4.6000000000000005,0.163,0.179,100.03,4.0,3940.0,0.0,0.0,
2025-08-14T22:13:08.276Z,2,GR86-047-21,2.7,0.139,0.156,100.01,4.0,,0.0,0.0,99.49
2025-08-14T22:13:08.319Z,2,GR86-047-21,1.3,0.159,0.107,100.03,4.0,,0.0,0.0,
2025-08-14T22:13:08.363Z,2,GR86-047-21,0.1,0.147,0.091,100.03,4.0,,0.0,0.0,
2025-08-14T22:13:08.407Z,2,GR86-047-21,-1.4,0.14,0.033,100.01,4.0,,0.0,0.0,
2025-08-14T22:13:08.449Z,2,GR86-047-21,-2.2,0.157,0.003,100.03,4.0,3973.0,0.0,0.0,
2025-08-14T22:13:08.493Z,2,GR86-047-21,-3.2,0.144,-0.01,100.02,4.0,,0.0,0.0,101.61
2025-08-14T22:13:08.537Z,2,GR86-047-21,-4.0,0.143,-0.059,100.01,4.0,,0.0,0.0,
2025-08-14T22:13:08.579Z,2,GR86-047-21,-4.7,0.146,-0.06,100.02,4.0,,0.0,0.0,
2025-08-14T22:13:08.623Z,2,GR86-047-21,-5.0,0.152,-0.098,100.02,4.0,,0.0,0.0,
2025-08-14T22:13:08.666Z,2,GR86-047-21,-5.2,0.15,-0.106,100.02,4.0,4016.0,0.0,0.0,
2025-08-14T22:13:08.709Z,2,GR86-047-21,-5.2,0.139,-0.097,100.03,4.0,,0.0,0.0,102.68
2025-08-14T22:13:08.753Z,2,GR86-047-21,-5.2,0.143,-0.116,100.01,4.0,,0.0,0.0,
2025-08-14T22:13:08.798Z,2,GR86-047-21,-5.2,0.163,-0.116,100.0,4.0,,0.0,0.0,
2025-08-14T22:13:08.840Z,2,GR86-047-21,-5.2,0.145,-0.114,100.01,4.0,,0.0,0.0,
2025-08-14T22:13:08.883Z,2,GR86-047-21,-5.2,0.144,-0.119,100.02,4.0,4053.0,0.0,0.0,
2025-08-14T22:13:08.926Z,2,GR86-047-21,-5.2,0.15,-0.106,100.02,4.0,,0.0,0.0,103.74
2025-08-14T22:13:08.969Z,2,GR86-047-21,-5.2,0.141,-0.108,100.01,4.0,,0.0,0.0,
2025-08-14T22:13:09.013Z,2,GR86-047-21,-5.2,0.155,-0.119,100.01,4.0,,0.0,0.0,
2025-08-14T22:13:09.057Z,2,GR86-047-21,-5.2,0.134,-0.101,100.01,4.0,,0.0,0.0,
2025-08-14T22:13:09.099Z,2,GR86-047-21,-5.2,0.141,-0.139,100.01,4.0,4141.0,0.0,0.0,
2025-08-14T22:13:09.142Z,2,GR86-047-21,-5.2,0.142,-0.107,82.16,4.0,,0.0,0.0,104.79
2025-08-14T22:13:09.187Z,2,GR86-047-21,-5.2,0.146,-0.103,55.65,4.0,,0.0,0.0,
2025-08-14T22:13:09.229Z,2,GR86-047-21,-5.2,0.143,-0.113,46.51,4.0,,0.0,0.0,
2025-08-14T22:13:09.273Z,2,GR86-047-21,-5.2,0.138,-0.093,36.98,4.0,,0.0,0.0,
2025-08-14T22:13:09.316Z,2,GR86-047-21,-5.2,0.115,-0.089,28.82,4.0,4172.0,0.0,0.0,
2025-08-14T22:13:09.359Z,2,GR86-047-21,-5.2,0.125,-0.089,23.92,4.0,,0.0,0.0,105.85
2025-08-14T22:13:09.402Z,2,GR86-047-21,-5.2,0.1,-0.064,21.41,4.0,,3.37,3.585,
2025-08-14T22:13:09.445Z,2,GR86-047-21,-4.1000000000000005,-0.074,-0.053,14.3,4.0,,13.4,13.305,
2025-08-14T22:13:09.489Z,2,GR86-047-21,-3.5,-0.264,-0.059,3.21,4.0,,25.485,25.085,
2025-08-14T22:13:09.531Z,2,GR86-047-21,-2.7,-0.531,0.014,3.5700000000000003,4.0,4174.0,41.4,40.715,
2025-08-14T22:13:09.575Z,2,GR86-047-21,-2.3000000000000003,-0.92,-0.038,3.54,4.0,,57.685,56.905,106.84
2025-08-14T22:13:09.619Z,2,GR86-047-21,-2.3000000000000003,-1.073,0.038,3.49,4.0,,73.57000000000001,72.515,
2025-08-14T22:13:09.661Z,2,GR86-047-21,-2.3000000000000003,-1.249,-0.03,3.39,4.0,,86.065,85.24,
2025-08-14T22:13:09.707Z,2,GR86-047-21,-2.3000000000000003,-1.095,-0.007,3.0700000000000003,4.0,,102.835,103.585,
2025-08-14T22:13:09.749Z,2,GR86-047-21,-2.3000000000000003,-1.1,-0.011,2.91,4.0,3781.0,102.165,102.625,
2025-08-14T22:13:09.836Z,2,GR86-047-21,-2.3000000000000003,-1.129,0.028,8.47,4.0,,103.905,105.37,103.95
2025-08-14T22:13:09.879Z,2,GR86-047-21,-2.3000000000000003,-1.097,0.062,50.89,4.0,,99.235,100.365,
2025-08-14T22:13:09.921Z,2,GR86-047-21,-2.3000000000000003,-1.132,0.0,95.78,4.0,,85.15,86.785,
2025-08-14T22:13:09.965Z,2,GR86-047-21,-2.3000000000000003,-1.156,0.007,59.75,3.0,3447.0,64.305,66.275,
2025-08-14T22:13:10.009Z,2,GR86-047-21,-2.3000000000000003,-1.008,0.044,5.5600000000000005,3.0,,48.620000000000005,50.25,93.68
2025-08-14T22:13:10.051Z,2,GR86-047-21,-2.3000000000000003,-0.86,-0.003,3.36,3.0,,34.18,35.205,
2025-08-14T22:13:10.095Z,2,GR86-047-21,-2.3000000000000003,-0.647,0.028,3.0,3.0,,20.845,21.715,
2025-08-14T22:13:10.140Z,2,GR86-047-21,-2.3000000000000003,-0.437,-0.02,2.84,3.0,,10.15,10.805,
2025-08-14T22:13:10.183Z,2,GR86-047-21,-2.3000000000000003,-0.141,0.066,2.74,3.0,3722.0,3.16,3.585,
2025-08-14T22:13:10.229Z,2,GR86-047-21,-2.3000000000000003,-0.1,-0.046,2.68,3.0,,0.0,0.0,87.02
2025-08-14T22:13:10.273Z,2,GR86-047-21,-2.3000000000000003,-0.097,0.065,2.62,3.0,,0.0,0.0,
2025-08-14T22:13:10.316Z,2,GR86-047-21,-2.3000000000000003,-0.14,-0.023,2.59,3.0,,0.0,0.0,
2025-08-14T22:13:10.359Z,2,GR86-047-21,-1.5,-0.138,0.04,2.5500000000000003,3.0,,0.0,0.0,
2025-08-14T22:13:10.447Z,2,GR86-047-21,0.8,-0.101,0.065,2.49,3.0,3865.0,0.0,0.0,85.27
2025-08-14T22:13:10.489Z,2,GR86-047-21,2.0,-0.121,0.048,2.7,3.0,,0.0,0.0,
2025-08-14T22:13:10.532Z,2,GR86-047-21,3.2,-0.121,0.086,5.22,3.0,,0.0,0.0,
2025-08-14T22:13:10.576Z,2,GR86-047-21,4.0,-0.126,0.076,17.12,3.0,,0.0,0.0,
2025-08-14T22:13:10.619Z,2,GR86-047-21,4.2,-0.104,0.116,19.14,3.0,3845.0,0.0,0.0,
2025-08-14T22:13:10.661Z,2,GR86-047-21,4.3,-0.079,0.106,20.5,3.0,,0.0,0.0,84.45
2025-08-14T22:13:10.707Z,2,GR86-047-21,4.6000000000000005,-0.066,0.127,21.09,3.0,,0.0,0.0,
2025-08-14T22:13:10.749Z,2,GR86-047-21,4.800000000000001,-0.045,0.126,21.43,3.0,,0.0,0.0,
2025-08-14T22:13:10.793Z,2,GR86-047-21,4.800000000000001,0.106,0.139,21.71,3.0,,0.0,0.0,
2025-08-14T22:13:10.837Z,2,GR86-047-21,4.800000000000001,0.215,0.148,21.84,3.0,3872.0,0.0,0.0,
2025-08-14T22:13:10.879Z,2,GR86-047-21,4.800000000000001,0.11,0.166,21.92,3.0,,0.0,0.0,83.72
2025-08-14T22:13:10.923Z,2,GR86-047-21,4.800000000000001,0.023,0.145,21.97,3.0,,0.0,0.0,
2025-08-14T22:13:10.966Z,2,GR86-047-21,4.1000000000000005,0.087,0.123,22.01,3.0,,0.0,0.0,
2025-08-14T22:13:11.009Z,2,GR86-047-21,3.4000000000000004,0.13,0.084,22.04,3.0,,0.0,0.0,
2025-08-14T22:13:11.053Z,2,GR86-047-21,2.7,0.117,0.088,22.04,3.0,3827.0,0.0,0.0,
2025-08-14T22:13:11.098Z,2,GR86-047-21,1.9,0.066,0.046,22.08,3.0,,0.0,0.0,83.76
2025-08-14T22:13:11.140Z,2,GR86-047-21,0.0,0.074,0.061,22.06,3.0,,0.0,0.0,
2025-08-14T22:13:11.183Z,2,GR86-047-21,-2.2,0.101,0.017,22.06,3.0,,0.0,0.0,
2025-08-14T22:13:11.229Z,2,GR86-047-21,-5.300000000000001,0.114,-0.011,22.05,3.0,,0.0,0.0,
2025-08-14T22:13:11.273Z,2,GR86-047-21,-7.300000000000001,0.08,-0.055,22.04,3.0,3887.0,0.0,0.0,
2025-08-14T22:13:11.316Z,2,GR86-047-21,-9.4,0.08,-0.07,22.04,3.0,,0.0,0.0,84.48
2025-08-14T22:13:11.358Z,2,GR86-047-21,-10.5,0.076,-0.116,22.04,3.0,,0.0,0.0,
2025-08-14T22:13:11.402Z,2,GR86-047-21,-10.8,0.097,-0.117,22.04,3.0,,0.0,0.0,
2025-08-14T22:13:11.447Z,2,GR86-047-21,-10.8,0.09,-0.166,22.04,3.0,,0.0,0.0,
2025-08-14T22:13:11.489Z,2,GR86-047-21,-10.7,0.09,-0.146,22.05,3.0,3982.0,0.0,0.0,
2025-08-14T22:13:11.532Z,2,GR86-047-21,-10.1,0.072,-0.151,22.01,3.0,,0.0,0.0,85.28
2025-08-14T22:13:11.576Z,2,GR86-047-21,-8.6,0.09,-0.117,22.01,3.0,,0.0,0.0,
2025-08-14T22:13:11.619Z,2,GR86-047-21,-6.9,0.083,-0.119,22.01,3.0,,0.0,0.0,
2025-08-14T22:13:11.661Z,2,GR86-047-21,-5.0,0.092,-0.077,22.0,3.0,,0.0,0.0,
2025-08-14T22:13:11.707Z,2,GR86-047-21,-2.4000000000000004,0.097,-0.046,22.01,3.0,4017.0,0.0,0.0,
2025-08-14T22:13:11.749Z,2,GR86-047-21,-1.6,0.104,-0.026,22.01,3.0,,0.0,0.0,86.0
2025-08-14T22:13:11.793Z,2,GR86-047-21,-1.5,0.103,-0.015,22.0,3.0,,0.0,0.0,
2025-08-14T22:13:11.836Z,2,GR86-047-21,-1.5,0.101,0.017,22.01,3.0,,0.0,0.0,
2025-08-14T22:13:11.879Z,2,GR86-047-21,-1.5,0.091,0.007,22.0,3.0,,0.0,0.0,
2025-08-14T22:13:11.923Z,2,GR86-047-21,-1.5,0.093,0.023,21.99,3.0,4052.0,0.0,0.0,
2025-08-14T22:13:11.966Z,2,GR86-047-21,-1.5,0.097,0.032,22.15,3.0,,0.0,0.0,86.74
2025-08-14T22:13:12.009Z,2,GR86-047-21,-1.5,0.094,0.02,22.17,3.0,,0.0,0.0,
2025-08-14T22:13:12.053Z,2,GR86-047-21,-1.5,0.104,0.026,22.21,3.0,,0.0,0.0,
2025-08-14T22:13:12.098Z,2,GR86-047-21,-1.5,0.094,0.006,22.37,3.0,,0.0,0.0,
2025-08-14T22:13:12.140Z,2,GR86-047-21,-1.5,0.096,0.014,23.68,3.0,4082.0,0.0,0.0,
2025-08-14T22:13:12.183Z,2,GR86-047-21,-1.5,0.094,0.01,25.69,3.0,,0.0,0.0,87.49
2025-08-14T22:13:12.226Z,2,GR86-047-21,-1.5,0.103,0.021,27.33,3.0,,0.0,0.0,
2025-08-14T22:13:12.269Z,2,GR86-047-21,-1.5,0.089,0.004,28.21,3.0,,0.0,0.0,
2025-08-14T22:13:12.312Z,2,GR86-047-21,-1.9,0.116,0.014,29.19,3.0,,0.0,0.0,
2025-08-14T22:13:12.357Z,2,GR86-047-21,-2.8000000000000003,0.11,-0.017,29.69,3.0,4124.0,0.0,0.0,
2025-08-14T22:13:12.399Z,2,GR86-047-21,-5.0,0.128,-0.021,29.68,3.0,,0.0,0.0,88.2
2025-08-14T22:13:12.443Z,2,GR86-047-21,-7.5,0.104,-0.066,29.64,3.0,,0.0,0.0,
2025-08-14T22:13:12.487Z,2,GR86-047-21,-10.1,0.132,-0.102,29.63,3.0,,0.0,0.0,
2025-08-14T22:13:12.529Z,2,GR86-047-21,-10.4,0.139,-0.136,29.73,3.0,,0.0,0.0,
2025-08-14T22:13:12.573Z,2,GR86-047-21,-10.4,0.132,-0.135,30.24,3.0,4171.0,0.0,0.0,
2025-08-14T22:13:12.616Z,2,GR86-047-21,-10.4,0.119,-0.167,31.13,3.0,,0.0,0.0,88.98
2025-08-14T22:13:12.659Z,2,GR86-047-21,-10.4,0.131,-0.15,31.93,3.0,,0.0,0.0,
2025-08-14T22:13:12.702Z,2,GR86-047-21,-10.2,0.134,-0.165,32.230000000000004,3.0,,0.0,0.0,
2025-08-14T22:13:12.789Z,2,GR86-047-21,-9.4,0.135,-0.158,34.99,3.0,4226.0,0.0,0.0,
2025-08-14T22:13:12.831Z,2,GR86-047-21,-8.8,0.13,-0.135,38.62,3.0,,0.0,0.0,89.97
2025-08-14T22:13:12.876Z,2,GR86-047-21,-8.700000000000001,0.147,-0.101,43.37,3.0,,0.0,0.0,
2025-08-14T22:13:12.919Z,2,GR86-047-21,-8.5,0.146,-0.114,48.64,3.0,,0.0,0.0,
2025-08-14T22:13:12.961Z,2,GR86-047-21,-8.4,0.176,-0.081,54.75,3.0,,0.0,0.0,
2025-08-14T22:13:13.007Z,2,GR86-047-21,-8.200000000000001,0.186,-0.097,75.78,3.0,4279.0,0.0,0.0,
2025-08-14T22:13:13.049Z,2,GR86-047-21,-8.1,0.2,-0.081,97.75,3.0,,0.0,0.0,91.05
2025-08-14T22:13:13.093Z,2,GR86-047-21,-8.1,0.209,-0.092,100.0,3.0,,0.0,0.0,
2025-08-14T22:13:13.136Z,2,GR86-047-21,-7.9,0.226,-0.074,100.05,3.0,,0.0,0.0,
2025-08-14T22:13:13.179Z,2,GR86-047-21,-7.9,0.231,-0.083,100.04,3.0,,0.0,0.0,
2025-08-14T22:13:13.223Z,2,GR86-047-21,-7.800000000000001,0.212,-0.08,100.03,3.0,4358.0,0.0,0.0,
2025-08-14T22:13:13.309Z,2,GR86-047-21,-7.7,0.209,-0.072,100.04,3.0,,0.0,0.0,92.21
2025-08-14T22:13:13.351Z,2,GR86-047-21,-7.6,0.235,-0.074,100.04,3.0,,0.0,0.0,
2025-08-14T22:13:13.398Z,2,GR86-047-21,-7.5,0.218,-0.091,100.04,3.0,,0.0,0.0,
2025-08-14T22:13:13.440Z,2,GR86-047-21,-7.5,0.221,-0.066,100.05,3.0,4433.0,0.0,0.0,
2025-08-14T22:13:13.483Z,2,GR86-047-21,-7.4,0.209,-0.089,100.03,3.0,,0.0,0.0,93.67
2025-08-14T22:13:13.526Z,2,GR86-047-21,-7.300000000000001,0.218,-0.083,100.04,3.0,,0.0,0.0,
2025-08-14T22:13:13.569Z,2,GR86-047-21,-7.300000000000001,0.23,-0.069,100.04,3.0,,0.0,0.0,
2025-08-14T22:13:13.612Z,2,GR86-047-21,-7.300000000000001,0.21,-0.087,100.05,3.0,,0.0,0.0,
2025-08-14T22:13:13.657Z,2,GR86-047-21,-7.300000000000001,0.22,-0.071,100.05,3.0,4505.0,0.0,0.0,
2025-08-14T22:13:13.699Z,2,GR86-047-21,-7.300000000000001,0.217,-0.088,100.04,3.0,,0.0,0.0,97.04
2025-08-14T22:13:13.743Z,2,GR86-047-21,-7.6,0.216,-0.085,100.04,3.0,,0.0,0.0,
2025-08-14T22:13:13.787Z,2,GR86-047-21,-10.6,0.215,-0.117,100.04,3.0,,0.0,0.0,
2025-08-14T22:13:13.829Z,2,GR86-047-21,-12.5,0.214,-0.158,100.04,3.0,,0.0,0.0,
2025-08-14T22:13:13.873Z,2,GR86-047-21,-14.1,0.221,-0.173,100.05,3.0,4590.0,0.0,0.0,
2025-08-14T22:13:13.916Z,2,GR86-047-21,-15.1,0.214,-0.219,100.04,3.0,,0.0,0.0,98.73
2025-08-14T22:13:13.959Z,2,GR86-047-21,-15.4,0.203,-0.234,100.04,3.0,,0.0,0.0,
2025-08-14T22:13:14.002Z,2,GR86-047-21,-15.4,0.203,-0.266,100.05,3.0,,0.0,0.0,
2025-08-14T22:13:14.047Z,2,GR86-047-21,-15.4,0.212,-0.293,100.04,3.0,,0.0,0.0,
2025-08-14T22:13:14.089Z,2,GR86-047-21,-15.4,0.21,-0.272,100.04,3.0,4752.0,0.0,0.0,
2025-08-14T22:13:14.132Z,2,GR86-047-21,-15.4,0.207,-0.298,100.04,3.0,,0.0,0.0,100.4
2025-08-14T22:13:14.176Z,2,GR86-047-21,-15.4,0.198,-0.27,100.04,3.0,,0.0,0.0,
2025-08-14T22:13:14.261Z,2,GR86-047-21,-14.5,0.206,-0.283,100.05,3.0,,0.0,0.0,
2025-08-14T22:13:14.307Z,2,GR86-047-21,-7.7,0.205,-0.21,100.04,3.0,4829.0,0.0,0.0,
2025-08-14T22:13:14.393Z,2,GR86-047-21,-5.2,0.221,-0.192,100.04,3.0,,0.0,0.0,102.01
2025-08-14T22:13:14.437Z,2,GR86-047-21,0.3,0.214,-0.09,100.04,3.0,,0.0,0.0,
2025-08-14T22:13:14.479Z,2,GR86-047-21,3.4000000000000004,0.21,-0.036,100.04,3.0,,0.0,0.0,
2025-08-14T22:13:14.523Z,2,GR86-047-21,6.300000000000001,0.209,0.032,100.05,3.0,4900.0,0.0,0.0,
2025-08-14T22:13:14.566Z,2,GR86-047-21,9.3,0.221,0.093,100.05,3.0,,0.0,0.0,103.66
2025-08-14T22:13:14.609Z,2,GR86-047-21,10.4,0.214,0.162,100.03,3.0,,0.0,0.0,
2025-08-14T22:13:14.651Z,2,GR86-047-21,10.7,0.197,0.203,100.04,3.0,,0.0,0.0,
2025-08-14T22:13:14.695Z,2,GR86-047-21,10.7,0.206,0.233,100.04,3.0,,0.0,0.0,
2025-08-14T22:13:14.737Z,2,GR86-047-21,10.7,0.193,0.267,100.03,3.0,4969.0,0.0,0.0,
2025-08-14T22:13:14.780Z,2,GR86-047-21,10.7,0.224,0.272,100.05,3.0,,0.0,0.0,105.32
2025-08-14T22:13:14.823Z,2,GR86-047-21,10.7,0.215,0.283,100.04,3.0,,0.0,0.0,
2025-08-14T22:13:14.866Z,2,GR86-047-21,10.7,0.191,0.306,100.05,3.0,,0.0,0.0,
2025-08-14T22:13:14.909Z,2,GR86-047-21,10.7,0.219,0.288,100.03,3.0,,0.0,0.0,
2025-08-14T22:13:14.953Z,2,GR86-047-21,10.7,0.219,0.289,100.01,3.0,5045.0,0.0,0.0,
2025-08-14T22:13:15.041Z,2,GR86-047-21,10.6,0.219,0.259,100.04,3.0,,0.0,0.0,106.93
2025-08-14T22:13:15.087Z,2,GR86-047-21,10.5,0.218,0.245,100.03,3.0,,0.0,0.0,
2025-08-14T22:13:15.129Z,2,GR86-047-21,10.1,0.184,0.247,100.01,3.0,,0.0,0.0,
2025-08-14T22:13:15.173Z,2,GR86-047-21,9.3,0.221,0.213,100.02,3.0,5118.0,0.0,0.0,
2025-08-14T22:13:15.216Z,2,GR86-047-21,8.4,0.22,0.21,100.03,3.0,,0.0,0.0,108.47
2025-08-14T22:13:15.259Z,2,GR86-047-21,7.300000000000001,0.196,0.194,100.03,3.0,,0.0,0.0,
2025-08-14T22:13:15.302Z,2,GR86-047-21,6.0,0.218,0.172,100.04,3.0,,0.0,0.0,
2025-08-14T22:13:15.347Z,2,GR86-047-21,3.6,0.211,0.15,100.04,3.0,,0.0,0.0,
2025-08-14T22:13:15.389Z,2,GR86-047-21,2.6,0.185,0.134,100.04,3.0,5184.0,0.0,0.0,
2025-08-14T22:13:15.476Z,2,GR86-047-21,2.0,0.221,0.09,100.04,3.0,,0.0,0.0,110.0
2025-08-14T22:13:15.519Z,2,GR86-047-21,1.1,0.187,0.041,100.04,3.0,,0.0,0.0,
2025-08-14T22:13:15.563Z,2,GR86-047-21,0.8,0.211,0.023,100.03,3.0,,0.0,0.0,
2025-08-14T22:13:15.607Z,2,GR86-047-21,0.7000000000000001,0.202,-0.002,100.02,3.0,5255.0,0.0,0.0,
2025-08-14T22:13:15.649Z,2,GR86-047-21,0.7000000000000001,0.188,0.001,100.04,3.0,,0.0,0.0,111.54
2025-08-14T22:13:15.693Z,2,GR86-047-21,0.7000000000000001,0.203,-0.034,100.02,3.0,,0.0,0.0,
2025-08-14T22:13:15.737Z,2,GR86-047-21,0.6000000000000001,0.193,-0.017,100.01,3.0,,0.0,0.0,
2025-08-14T22:13:15.779Z,2,GR86-047-21,0.6000000000000001,0.185,-0.015,100.04,3.0,,0.0,0.0,
2025-08-14T22:13:15.823Z,2,GR86-047-21,0.6000000000000001,0.209,-0.03,100.03,3.0,5327.0,0.0,0.0,
2025-08-14T22:13:15.866Z,2,GR86-047-21,0.6000000000000001,0.209,-0.033,100.03,3.0,,0.0,0.0,113.11
2025-08-14T22:13:15.909Z,2,GR86-047-21,0.6000000000000001,0.2,-0.009,100.04,3.0,,0.0,0.0,
2025-08-14T22:13:15.953Z,2,GR86-047-21,0.6000000000000001,0.195,-0.022,100.04,3.0,,0.0,0.0,
2025-08-14T22:13:15.999Z,2,GR86-047-21,0.5,0.192,-0.02,100.02,3.0,,0.0,0.0,
2025-08-14T22:13:16.041Z,2,GR86-047-21,0.3,0.185,-0.013,100.04,3.0,5399.0,0.0,0.0,
2025-08-14T22:13:16.087Z,2,GR86-047-21,0.3,0.199,-0.007,100.01,3.0,,0.0,0.0,116.05
2025-08-14T22:13:16.129Z,2,GR86-047-21,0.3,-0.011,-0.022,100.0,3.0,,0.0,0.0,
2025-08-14T22:13:16.173Z,2,GR86-047-21,0.2,-0.071,0.02,100.04,4.0,,0.0,0.0,
2025-08-14T22:13:16.216Z,2,GR86-047-21,0.2,0.211,-0.028,100.02,4.0,,0.0,0.0,
2025-08-14T22:13:16.259Z,2,GR86-047-21,0.2,0.364,-0.043,100.01,4.0,5473.0,0.0,0.0,
2025-08-14T22:13:16.302Z,2,GR86-047-21,0.2,0.16,0.002,100.01,4.0,,0.0,0.0,117.27
2025-08-14T22:13:16.346Z,2,GR86-047-21,0.1,0.094,0.005,100.02,4.0,,0.0,0.0,
2025-08-14T22:13:16.389Z,2,GR86-047-21,0.1,0.221,-0.006,100.02,4.0,,0.0,0.0,
2025-08-14T22:13:16.432Z,2,GR86-047-21,0.1,0.225,-0.016,100.0,4.0,,0.0,0.0,
2025-08-14T22:13:16.476Z,2,GR86-047-21,0.1,0.137,-0.004,100.02,4.0,4651.0,0.0,0.0,
2025-08-14T22:13:16.519Z,2,GR86-047-21,0.1,0.134,-0.017,100.04,4.0,,0.0,0.0,118.42
2025-08-14T22:13:16.563Z,2,GR86-047-21,0.1,0.186,0.001,98.16,4.0,,0.0,0.0,
2025-08-14T22:13:16.607Z,2,GR86-047-21,0.1,0.17,-0.028,80.42,4.0,,0.0,0.0,
2025-08-14T22:13:16.649Z,2,GR86-047-21,0.1,0.15,0.004,81.62,4.0,,0.0,0.0,
2025-08-14T22:13:16.693Z,2,GR86-047-21,0.1,0.159,-0.012,79.28,4.0,4727.0,0.0,0.0,
2025-08-14T22:13:16.736Z,2,GR86-047-21,0.1,0.168,-0.015,70.79,4.0,,0.0,0.0,119.73
2025-08-14T22:13:16.779Z,2,GR86-047-21,0.1,0.177,0.003,68.1,4.0,,0.0,0.0,
2025-08-14T22:13:16.823Z,2,GR86-047-21,0.1,0.165,-0.004,67.75,4.0,,0.0,0.0,
2025-08-14T22:13:16.866Z,2,GR86-047-21,0.1,0.159,-0.016,61.6,4.0,,0.0,0.0,
2025-08-14T22:13:16.909Z,2,GR86-047-21,0.1,0.157,-0.02,61.64,4.0,4783.0,0.0,0.0,
2025-08-14T22:13:16.998Z,2,GR86-047-21,0.1,0.164,-0.013,58.97,4.0,,0.0,0.0,120.93
2025-08-14T22:13:17.040Z,2,GR86-047-21,0.1,0.152,-0.023,54.32,4.0,,0.0,0.0,
2025-08-14T22:13:17.083Z,2,GR86-047-21,0.1,0.16,0.003,50.46,4.0,,0.0,0.0,
2025-08-14T22:13:17.126Z,2,GR86-047-21,0.1,0.152,-0.008,43.04,4.0,4829.0,0.0,0.0,
2025-08-14T22:13:17.169Z,2,GR86-047-21,0.1,0.155,-0.005,33.13,4.0,,0.0,0.0,122.18
2025-08-14T22:13:17.213Z,2,GR86-047-21,0.1,0.135,-0.028,25.1,4.0,,0.0,0.0,
2025-08-14T22:13:17.257Z,2,GR86-047-21,0.1,0.109,-0.011,21.38,4.0,,0.0,0.0,
2025-08-14T22:13:17.299Z,2,GR86-047-21,0.1,0.095,-0.012,21.38,4.0,,0.0,0.0,
2025-08-14T22:13:17.343Z,2,GR86-047-21,0.1,0.031,-0.023,21.43,4.0,4843.0,0.0,0.0,
2025-08-14T22:13:17.429Z,2,GR86-047-21,0.1,0.026,-0.019,4.39,4.0,,0.0,0.0,123.33
2025-08-14T22:13:17.473Z,2,GR86-047-21,0.1,-0.085,0.004,3.9,4.0,,0.0,0.0,
2025-08-14T22:13:17.516Z,2,GR86-047-21,0.1,-0.077,-0.002,3.76,4.0,,0.0,0.0,
2025-08-14T22:13:17.559Z,2,GR86-047-21,0.1,-0.327,-0.019,3.48,4.0,4732.0,0.0,0.0,
2025-08-14T22:13:17.602Z,2,GR86-047-21,0.1,-0.215,0.022,3.16,4.0,,0.0,0.0,124.26
2025-08-14T22:13:17.647Z,2,GR86-047-21,0.1,-0.058,-0.019,2.88,4.0,,0.0,0.0,
2025-08-14T22:13:17.689Z,2,GR86-047-21,0.1,-0.092,0.012,2.77,4.0,,0.0,0.0,
2025-08-14T22:13:17.733Z,2,GR86-047-21,0.1,-0.15,0.003,2.69,4.0,,0.0,0.0,
2025-08-14T22:13:17.776Z,2,GR86-047-21,0.1,-0.177,0.012,2.63,4.0,4823.0,0.0,0.0,
2025-08-14T22:13:17.819Z,2,GR86-047-21,0.1,-0.123,0.02,2.59,4.0,,0.0,0.0,124.18
2025-08-14T22:13:17.861Z,2,GR86-047-21,0.1,-0.117,-0.009,2.5500000000000003,4.0,,0.0,0.0,
2025-08-14T22:13:17.907Z,2,GR86-047-21,0.1,-0.148,0.005,2.56,4.0,,0.0,0.0,
2025-08-14T22:13:17.949Z,2,GR86-047-21,0.1,-0.144,0.014,2.76,4.0,,0.0,0.0,
2025-08-14T22:13:17.993Z,2,GR86-047-21,0.1,-0.113,0.024,3.5500000000000003,4.0,4751.0,0.0,0.0,
2025-08-14T22:13:18.079Z,2,GR86-047-21,0.1,-0.131,0.009,5.5200000000000005,4.0,,0.0,0.0,123.2
2025-08-14T22:13:18.123Z,2,GR86-047-21,0.1,-0.137,0.013,20.37,4.0,,0.0,0.0,
2025-08-14T22:13:18.166Z,2,GR86-047-21,0.1,-0.065,0.021,20.88,4.0,,0.0,0.0,
2025-08-14T22:13:18.253Z,2,GR86-047-21,0.1,-0.055,0.028,21.56,4.0,4700.0,0.0,0.0,122.33
2025-08-14T22:13:18.298Z,2,GR86-047-21,0.1,0.088,-0.01,21.75,4.0,,0.0,0.0,
2025-08-14T22:13:18.340Z,2,GR86-047-21,0.1,0.174,0.025,21.87,4.0,,0.0,0.0,
2025-08-14T22:13:18.383Z,2,GR86-047-21,0.1,0.004,0.039,21.96,4.0,,0.0,0.0,
2025-08-14T22:13:18.429Z,2,GR86-047-21,0.1,-0.013,0.057,22.0,4.0,4875.0,0.0,0.0,
2025-08-14T22:13:18.516Z,2,GR86-047-21,0.1,0.091,0.054,22.04,4.0,,0.0,0.0,121.57
2025-08-14T22:13:18.559Z,2,GR86-047-21,0.1,0.024,0.062,22.05,4.0,,0.0,0.0,
2025-08-14T22:13:18.602Z,2,GR86-047-21,0.1,0.015,0.035,22.05,4.0,,0.0,0.0,
2025-08-14T22:13:18.647Z,2,GR86-047-21,0.1,0.074,0.028,22.04,4.0,4813.0,0.0,0.0,
2025-08-14T22:13:18.689Z,2,GR86-047-21,0.1,0.051,0.017,22.05,4.0,,0.0,0.0,121.6
2025-08-14T22:13:18.732Z,2,GR86-047-21,0.1,0.028,0.027,22.05,4.0,,0.0,0.0,
2025-08-14T22:13:18.776Z,2,GR86-047-21,0.1,0.043,0.01,22.04,4.0,,0.0,0.0,
2025-08-14T22:13:18.819Z,2,GR86-047-21,-0.1,0.041,0.015,22.04,4.0,,0.0,0.0,
2025-08-14T22:13:18.863Z,2,GR86-047-21,-0.1,0.057,0.017,20.31,4.0,4776.0,0.0,0.0,
2025-08-14T22:13:18.907Z,2,GR86-047-21,-0.1,0.035,-0.005,5.51,4.0,,0.0,0.0,121.97
2025-08-14T22:13:18.949Z,2,GR86-047-21,-0.1,0.035,-0.016,4.04,4.0,,0.0,0.0,
2025-08-14T22:13:18.992Z,2,GR86-047-21,-0.1,-0.075,-0.019,3.99,4.0,,0.0,0.0,
2025-08-14T22:13:19.037Z,2,GR86-047-21,-0.1,-0.069,0.003,3.83,4.0,,0.0,0.0,
2025-08-14T22:13:19.079Z,2,GR86-047-21,-0.1,-0.238,-0.011,3.61,4.0,4770.0,0.0,0.0,
2025-08-14T22:13:19.123Z,2,GR86-047-21,-0.1,-0.262,-0.013,3.21,4.0,,0.0,0.0,122.33
2025-08-14T22:13:19.166Z,2,GR86-047-21,-0.1,-0.064,-0.019,2.91,4.0,,0.0,0.0,
2025-08-14T22:13:19.209Z,2,GR86-047-21,-0.1,-0.082,0.0,2.77,4.0,,0.0,0.0,
2025-08-14T22:13:19.253Z,2,GR86-047-21,-0.1,-0.122,-0.001,2.68,4.0,,0.0,0.0,
2025-08-14T22:13:19.298Z,2,GR86-047-21,-0.1,-0.204,-0.037,2.61,4.0,4625.0,0.0,0.0,
2025-08-14T22:13:19.383Z,2,GR86-047-21,-0.1,-0.136,0.018,2.58,4.0,,0.0,0.0,121.78
2025-08-14T22:13:19.426Z,2,GR86-047-21,-0.1,-0.123,0.011,2.52,4.0,,0.0,0.0,
2025-08-14T22:13:19.469Z,2,GR86-047-21,-0.1,-0.159,-0.006,2.49,4.0,,0.0,0.0,
2025-08-14T22:13:19.513Z,2,GR86-047-21,-0.1,-0.134,0.012,2.47,4.0,4640.0,0.0,0.0,
2025-08-14T22:13:19.557Z,2,GR86-047-21,-0.1,-0.108,0.013,2.46,4.0,,0.0,0.0,120.94
2025-08-14T22:13:19.599Z,2,GR86-047-21,-0.1,-0.134,-0.003,2.45,4.0,,0.0,0.0,
2025-08-14T22:13:19.642Z,2,GR86-047-21,-0.1,-0.126,0.011,2.45,4.0,,0.0,0.0,
2025-08-14T22:13:19.687Z,2,GR86-047-21,-0.1,-0.12,0.016,2.46,4.0,,0.0,0.0,
2025-08-14T22:13:19.773Z,2,GR86-047-21,-0.1,-0.129,-0.003,2.45,4.0,4628.0,0.0,0.0,120.17
2025-08-14T22:13:19.816Z,2,GR86-047-21,-0.1,-0.126,-0.001,2.43,4.0,,0.0,0.0,
2025-08-14T22:13:19.859Z,2,GR86-047-21,-0.1,-0.139,-0.015,2.43,4.0,,0.0,0.0,
2025-08-14T22:13:19.902Z,2,GR86-047-21,-0.1,-0.127,-0.003,2.43,4.0,,0.0,0.0,
2025-08-14T22:13:19.945Z,2,GR86-047-21,-0.1,-0.117,0.009,2.46,4.0,4602.0,0.0,0.0,
2025-08-14T22:13:20.031Z,2,GR86-047-21,-0.1,-0.14,-0.021,2.45,4.0,,0.0,0.0,119.36
2025-08-14T22:13:20.076Z,2,GR86-047-21,-0.1,-0.14,-0.01,2.45,4.0,,0.0,0.0,
2025-08-14T22:13:20.119Z,2,GR86-047-21,-0.1,-0.108,-0.01,2.46,4.0,,0.0,0.0,
2025-08-14T22:13:20.161Z,2,GR86-047-21,-0.1,-0.126,-0.02,2.45,4.0,4568.0,0.0,0.0,
2025-08-14T22:13:20.207Z,2,GR86-047-21,-0.1,-0.14,-0.015,2.45,4.0,,0.0,0.0,118.55
2025-08-14T22:13:20.249Z,2,GR86-047-21,-0.1,-0.142,-0.009,2.46,4.0,,0.0,0.0,
2025-08-14T22:13:20.293Z,2,GR86-047-21,-0.1,-0.123,-0.008,2.45,4.0,,0.0,0.0,
2025-08-14T22:13:20.336Z,2,GR86-047-21,-0.1,-0.128,-0.023,2.46,4.0,,0.0,0.0,
2025-08-14T22:13:20.379Z,2,GR86-047-21,-0.1,-0.118,-0.006,2.44,4.0,4530.0,0.0,0.0,
2025-08-14T22:13:20.421Z,2,GR86-047-21,-0.1,-0.12,-0.022,2.46,4.0,,0.0,0.0,117.72
2025-08-14T22:13:20.466Z,2,GR86-047-21,-0.1,-0.131,-0.026,2.46,4.0,,0.0,0.0,
2025-08-14T22:13:20.509Z,2,GR86-047-21,-0.2,-0.132,-0.022,2.46,4.0,,0.0,0.0,
2025-08-14T22:13:20.553Z,2,GR86-047-21,-0.2,-0.118,-0.01,2.48,4.0,,0.0,0.0,
2025-08-14T22:13:20.598Z,2,GR86-047-21,-0.1,-0.117,-0.03,2.49,4.0,4497.0,0.0,0.0,
2025-08-14T22:13:20.640Z,2,GR86-047-21,-0.1,-0.12,-0.018,2.49,4.0,,0.0,0.0,116.93
2025-08-14T22:13:20.683Z,2,GR86-047-21,-0.2,-0.124,-0.031,2.52,4.0,,0.0,0.0,
2025-08-14T22:13:20.726Z,2,GR86-047-21,-0.2,-0.122,-0.027,2.52,4.0,,0.0,0.0,
2025-08-14T22:13:20.769Z,2,GR86-047-21,-0.1,-0.119,-0.037,2.5,4.0,,0.0,0.0,
2025-08-14T22:13:20.812Z,2,GR86-047-21,-0.1,-0.119,-0.018,2.51,4.0,4463.0,0.0,0.0,
2025-08-14T22:13:20.857Z,2,GR86-047-21,-0.1,-0.125,-0.042,2.51,4.0,,0.0,0.0,116.15
2025-08-14T22:13:20.899Z,2,GR86-047-21,-0.1,-0.128,-0.024,2.5,4.0,,0.0,0.0,
2025-08-14T22:13:20.943Z,2,GR86-047-21,-0.1,-0.131,-0.023,2.5,4.0,,0.0,0.0,
2025-08-14T22:13:20.987Z,2,GR86-047-21,-0.2,-0.12,-0.027,2.51,4.0,,0.0,0.0,
2025-08-14T22:13:21.029Z,2,GR86-047-21,-0.1,-0.123,-0.034,2.5,4.0,4436.0,0.0,0.0,
2025-08-14T22:13:21.073Z,2,GR86-047-21,-0.1,-0.113,-0.018,2.51,4.0,,0.0,0.0,115.36
2025-08-14T22:13:21.116Z,2,GR86-047-21,-0.2,-0.113,-0.027,2.51,4.0,,0.0,0.0,
2025-08-14T22:13:21.202Z,2,GR86-047-21,-0.2,-0.132,-0.005,2.52,4.0,,0.0,0.0,
2025-08-14T22:13:21.247Z,2,GR86-047-21,-0.2,-0.12,-0.004,2.51,4.0,4416.0,0.0,0.0,
2025-08-14T22:13:21.289Z,2,GR86-047-21,-0.2,-0.116,-0.031,2.49,4.0,,0.0,0.0,113.79
2025-08-14T22:13:21.332Z,2,GR86-047-21,-0.3,-0.127,-0.001,2.52,4.0,,0.0,0.0,
2025-08-14T22:13:21.376Z,2,GR86-047-21,-0.3,-0.127,-0.023,2.51,4.0,,0.0,0.0,
2025-08-14T22:13:21.419Z,2,GR86-047-21,-0.4,-0.125,-0.023,2.52,4.0,,0.0,0.0,
2025-08-14T22:13:21.461Z,2,GR86-047-21,-0.4,-0.122,-0.011,2.5,4.0,4386.0,0.0,0.0,
2025-08-14T22:13:21.507Z,2,GR86-047-21,-0.5,-0.118,-0.013,2.5,4.0,,0.0,0.0,112.98
2025-08-14T22:13:21.549Z,2,GR86-047-21,-0.8,-0.12,-0.031,2.5,4.0,,0.0,0.0,
2025-08-14T22:13:21.593Z,2,GR86-047-21,-1.0,-0.125,-0.028,2.51,4.0,,0.0,0.0,
2025-08-14T22:13:21.637Z,2,GR86-047-21,-1.3,-0.125,-0.042,2.52,4.0,,0.0,0.0,
2025-08-14T22:13:21.679Z,2,GR86-047-21,-1.4,-0.128,-0.046,2.5,4.0,4349.0,0.0,0.0,
2025-08-14T22:13:21.766Z,2,GR86-047-21,-1.9,-0.111,-0.032,2.49,4.0,,0.0,0.0,112.15
2025-08-14T22:13:21.809Z,2,GR86-047-21,-2.0,-0.121,-0.044,2.5,4.0,,0.0,0.0,
2025-08-14T22:13:21.851Z,2,GR86-047-21,-2.0,-0.144,-0.041,2.49,4.0,,0.0,0.0,
2025-08-14T22:13:21.895Z,2,GR86-047-21,-2.0,-0.121,-0.061,2.5,4.0,4282.0,0.0,0.0,
2025-08-14T22:13:21.937Z,2,GR86-047-21,-2.0,-0.12,-0.053,2.49,4.0,,0.0,0.0,111.33
2025-08-14T22:13:21.980Z,2,GR86-047-21,-2.0,-0.108,-0.038,2.49,4.0,,0.0,0.0,
2025-08-14T22:13:22.023Z,2,GR86-047-21,-2.0,-0.116,-0.061,2.5,4.0,,0.0,0.0,
2025-08-14T22:13:22.067Z,2,GR86-047-21,-2.0,-0.125,-0.064,2.5,4.0,,0.0,0.0,
2025-08-14T22:13:22.109Z,2,GR86-047-21,-2.0,-0.135,-0.047,2.51,4.0,4255.0,0.0,0.0,
2025-08-14T22:13:22.198Z,2,GR86-047-21,-2.0,-0.113,-0.072,2.52,4.0,,0.0,0.0,110.63
2025-08-14T22:13:22.240Z,2,GR86-047-21,-2.0,-0.12,-0.056,2.5,4.0,,0.0,0.0,
2025-08-14T22:13:22.283Z,2,GR86-047-21,-2.0,-0.105,-0.063,2.51,4.0,,0.0,0.0,
2025-08-14T22:13:22.373Z,2,GR86-047-21,-2.2,-0.125,-0.051,2.51,4.0,4232.0,0.0,0.0,109.96
2025-08-14T22:13:22.416Z,2,GR86-047-21,-2.2,-0.117,-0.06,2.49,4.0,,0.0,0.0,
2025-08-14T22:13:22.459Z,2,GR86-047-21,-2.3000000000000003,-0.127,-0.054,2.49,4.0,,0.0,0.0,
2025-08-14T22:13:22.502Z,2,GR86-047-21,-2.3000000000000003,-0.11,-0.063,2.52,4.0,,0.0,0.0,
2025-08-14T22:13:22.547Z,2,GR86-047-21,-2.4000000000000004,-0.103,-0.064,2.49,4.0,4206.0,0.0,0.0,
2025-08-14T22:13:22.632Z,2,GR86-047-21,-2.4000000000000004,-0.124,-0.05,2.49,4.0,,0.0,0.0,109.16
2025-08-14T22:13:22.676Z,2,GR86-047-21,-2.4000000000000004,-0.12,-0.069,2.5,4.0,,0.0,0.0,
2025-08-14T22:13:22.719Z,2,GR86-047-21,-2.4000000000000004,-0.13,-0.056,2.49,4.0,,3.37,3.405,
2025-08-14T22:13:22.763Z,2,GR86-047-21,-2.4000000000000004,-0.179,-0.082,2.49,4.0,4173.0,4.595,4.5,
2025-08-14T22:13:22.849Z,2,GR86-047-21,-2.4000000000000004,-0.203,-0.04,2.5,4.0,,3.22,3.525,108.4
2025-08-14T22:13:22.893Z,2,GR86-047-21,-2.4000000000000004,-0.137,-0.081,2.49,4.0,,0.0,0.0,
2025-08-14T22:13:22.937Z,2,GR86-047-21,-2.4000000000000004,-0.118,-0.059,2.5,4.0,,0.0,0.0,
2025-08-14T22:13:22.979Z,2,GR86-047-21,-2.4000000000000004,-0.123,-0.064,2.5,4.0,4127.0,0.0,0.0,
2025-08-14T22:13:23.023Z,2,GR86-047-21,-2.4000000000000004,-0.1,-0.058,2.51,4.0,,0.0,0.0,107.37
2025-08-14T22:13:23.067Z,2,GR86-047-21,-2.4000000000000004,-0.108,-0.056,2.5,4.0,,0.0,0.0,
2025-08-14T22:13:23.153Z,2,GR86-047-21,-2.4000000000000004,-0.107,-0.067,2.52,4.0,,0.0,0.0,
2025-08-14T22:13:23.198Z,2,GR86-047-21,-2.4000000000000004,-0.127,-0.053,2.52,4.0,4100.0,0.0,0.0,
2025-08-14T22:13:23.240Z,2,GR86-047-21,-2.4000000000000004,-0.106,-0.072,2.5,4.0,,0.0,0.0,106.53
2025-08-14T22:13:23.283Z,2,GR86-047-21,-2.4000000000000004,-0.122,-0.062,2.5,4.0,,0.0,0.0,
2025-08-14T22:13:23.326Z,2,GR86-047-21,-2.4000000000000004,-0.122,-0.049,2.52,4.0,,0.0,0.0,
2025-08-14T22:13:23.369Z,2,GR86-047-21,-2.4000000000000004,-0.103,-0.073,2.52,4.0,,0.0,0.0,
2025-08-14T22:13:23.412Z,2,GR86-047-21,-2.4000000000000004,-0.113,-0.055,2.5,4.0,4079.0,0.0,0.0,
2025-08-14T22:13:23.499Z,2,GR86-047-21,-2.5,-0.126,-0.078,2.52,4.0,,0.0,0.0,105.86
2025-08-14T22:13:23.543Z,2,GR86-047-21,-2.6,-0.117,-0.071,2.49,4.0,,0.0,0.0,
2025-08-14T22:13:23.587Z,2,GR86-047-21,-3.0,-0.117,-0.078,2.5,4.0,,0.0,0.0,
2025-08-14T22:13:23.629Z,2,GR86-047-21,-3.2,-0.123,-0.081,2.52,4.0,4050.0,0.0,0.0,
2025-08-14T22:13:23.716Z,2,GR86-047-21,-3.3000000000000003,-0.133,-0.074,2.74,4.0,,0.0,0.0,105.18
2025-08-14T22:13:23.759Z,2,GR86-047-21,-3.4000000000000004,-0.125,-0.074,4.5600000000000005,4.0,,0.0,0.0,
2025-08-14T22:13:23.802Z,2,GR86-047-21,-3.5,-0.109,-0.1,4.73,4.0,,0.0,0.0,
2025-08-14T22:13:23.845Z,2,GR86-047-21,-3.7,-0.122,-0.094,8.09,4.0,4027.0,0.0,0.0,
2025-08-14T22:13:23.931Z,2,GR86-047-21,-3.9,-0.132,-0.087,7.5,4.0,,0.0,0.0,103.8
2025-08-14T22:13:23.976Z,2,GR86-047-21,-4.4,-0.07,-0.092,7.52,4.0,,0.0,0.0,
2025-08-14T22:13:24.019Z,2,GR86-047-21,-4.7,-0.062,-0.103,7.53,4.0,,0.0,0.0,
2025-08-14T22:13:24.061Z,2,GR86-047-21,-4.9,-0.076,-0.107,7.6,4.0,3994.0,0.0,0.0,
2025-08-14T22:13:24.107Z,2,GR86-047-21,-5.300000000000001,-0.133,-0.106,8.88,4.0,,0.0,0.0,103.14
2025-08-14T22:13:24.149Z,2,GR86-047-21,-5.4,-0.126,-0.127,8.38,4.0,,0.0,0.0,
2025-08-14T22:13:24.193Z,2,GR86-047-21,-5.7,-0.088,-0.118,7.68,4.0,,0.0,0.0,
2025-08-14T22:13:24.236Z,2,GR86-047-21,-6.1000000000000005,-0.084,-0.122,7.73,4.0,,0.0,0.0,
2025-08-14T22:13:24.321Z,2,GR86-047-21,-6.6000000000000005,-0.097,-0.13,9.54,4.0,3964.0,0.0,0.0,102.69
2025-08-14T22:13:24.365Z,2,GR86-047-21,-8.1,-0.104,-0.148,21.71,4.0,,0.0,0.0,
2025-08-14T22:13:24.409Z,2,GR86-047-21,-8.8,-0.092,-0.16,21.89,4.0,,0.0,0.0,
2025-08-14T22:13:24.451Z,2,GR86-047-21,-9.7,-0.09,-0.172,21.99,4.0,,0.0,0.0,
2025-08-14T22:13:24.498Z,2,GR86-047-21,-10.4,-0.071,-0.191,22.04,4.0,3993.0,0.0,0.0,
2025-08-14T22:13:24.540Z,2,GR86-047-21,-11.3,0.053,-0.193,22.07,4.0,,0.0,0.0,102.17
2025-08-14T22:13:24.583Z,2,GR86-047-21,-12.1,0.281,-0.225,22.09,4.0,,0.0,0.0,
2025-08-14T22:13:24.626Z,2,GR86-047-21,-13.2,-0.037,-0.235,22.24,4.0,,0.0,0.0,
2025-08-14T22:13:24.669Z,2,GR86-047-21,-14.2,-0.056,-0.219,22.21,4.0,,0.0,0.0,
2025-08-14T22:13:24.713Z,2,GR86-047-21,-15.2,0.11,-0.286,22.2,4.0,3962.0,0.0,0.0,
2025-08-14T22:13:24.757Z,2,GR86-047-21,-16.1,0.114,-0.259,22.16,4.0,,0.0,0.0,101.95
2025-08-14T22:13:24.799Z,2,GR86-047-21,-17.3,0.049,-0.304,22.17,4.0,,0.0,0.0,
2025-08-14T22:13:24.843Z,2,GR86-047-21,-17.900000000000002,0.006,-0.303,22.2,4.0,,0.0,0.0,
2025-08-14T22:13:24.887Z,2,GR86-047-21,-18.0,0.069,-0.296,22.8,4.0,,0.0,0.0,
2025-08-14T22:13:24.929Z,2,GR86-047-21,-18.0,0.07,-0.335,24.52,4.0,4051.0,0.0,0.0,
2025-08-14T22:13:24.973Z,2,GR86-047-21,-18.0,0.035,-0.324,24.8,4.0,,0.0,0.0,102.48
2025-08-14T22:13:25.016Z,2,GR86-047-21,-18.0,0.031,-0.36,24.78,4.0,,0.0,0.0,
2025-08-14T22:13:25.059Z,2,GR86-047-21,-18.0,0.069,-0.364,24.77,4.0,,0.0,0.0,
2025-08-14T22:13:25.102Z,2,GR86-047-21,-18.0,0.063,-0.358,24.77,4.0,,0.0,0.0,
2025-08-14T22:13:25.147Z,2,GR86-047-21,-18.8,0.042,-0.367,24.75,4.0,4069.0,0.0,0.0,
2025-08-14T22:13:25.232Z,2,GR86-047-21,-20.700000000000003,0.049,-0.359,26.43,4.0,,0.0,0.0,103.03
2025-08-14T22:13:25.276Z,2,GR86-047-21,-21.200000000000003,0.055,-0.381,28.68,4.0,,0.0,0.0,
2025-08-14T22:13:25.319Z,2,GR86-047-21,-21.700000000000003,0.056,-0.37,30.87,4.0,,0.0,0.0,
2025-08-14T22:13:25.361Z,2,GR86-047-21,-22.8,0.068,-0.404,30.87,4.0,4071.0,0.0,0.0,
2025-08-14T22:13:25.407Z,2,GR86-047-21,-25.700000000000003,0.097,-0.426,30.4,4.0,,0.0,0.0,103.67
2025-08-14T22:13:25.449Z,2,GR86-047-21,-28.6,0.078,-0.411,30.36,4.0,,0.0,0.0,
2025-08-14T22:13:25.493Z,2,GR86-047-21,-31.700000000000003,0.065,-0.491,30.2,4.0,,0.0,0.0,
2025-08-14T22:13:25.537Z,2,GR86-047-21,-34.5,0.069,-0.501,29.52,4.0,,0.0,0.0,
2025-08-14T22:13:25.579Z,2,GR86-047-21,-37.0,0.053,-0.5660000000000001,29.09,4.0,4104.0,0.0,0.0,
2025-08-14T22:13:25.623Z,2,GR86-047-21,-38.8,0.062,-0.611,28.96,4.0,,0.0,0.0,104.35
2025-08-14T22:13:25.666Z,2,GR86-047-21,-40.900000000000006,0.058,-0.644,28.48,4.0,,0.0,0.0,
2025-08-14T22:13:25.709Z,2,GR86-047-21,-42.3,0.041,-0.676,28.06,4.0,,0.0,0.0,
2025-08-14T22:13:25.751Z,2,GR86-047-21,-43.6,0.055,-0.707,27.1,4.0,,0.0,0.0,
2025-08-14T22:13:25.795Z,2,GR86-047-21,-43.900000000000006,0.037,-0.7000000000000001,26.99,4.0,4148.0,0.0,0.0,
2025-08-14T22:13:25.837Z,2,GR86-047-21,-43.900000000000006,0.04,-0.742,26.97,4.0,,0.0,0.0,105.13
2025-08-14T22:13:25.880Z,2,GR86-047-21,-43.900000000000006,0.047,-0.723,27.03,4.0,,0.0,0.0,
2025-08-14T22:13:25.923Z,2,GR86-047-21,-44.0,0.033,-0.744,27.25,4.0,,0.0,0.0,
2025-08-14T22:13:25.966Z,2,GR86-047-21,-46.6,0.03,-0.802,27.29,4.0,,0.0,0.0,
2025-08-14T22:13:26.009Z,2,GR86-047-21,-49.5,0.035,-0.786,27.2,4.0,4180.0,0.0,0.0,
2025-08-14T22:13:26.053Z,2,GR86-047-21,-52.3,0.017,-0.807,26.27,4.0,,0.0,0.0,105.82
2025-08-14T22:13:26.098Z,2,GR86-047-21,-53.7,0.037,-0.8290000000000001,24.04,4.0,,0.0,0.0,
2025-08-14T22:13:26.140Z,2,GR86-047-21,-54.8,0.031,-0.8140000000000001,22.5,4.0,,0.0,0.0,
2025-08-14T22:13:26.229Z,2,GR86-047-21,-56.5,0.019,-0.871,22.08,4.0,4203.0,0.0,0.0,
2025-08-14T22:13:26.273Z,2,GR86-047-21,-63.8,0.005,-0.85,21.97,4.0,,0.0,0.0,106.39
2025-08-14T22:13:26.359Z,2,GR86-047-21,-65.7,-0.006,-0.933,21.92,4.0,,0.0,0.0,
2025-08-14T22:13:26.402Z,2,GR86-047-21,-65.7,-0.011,-0.937,21.92,4.0,,0.0,0.0,
2025-08-14T22:13:26.447Z,2,GR86-047-21,-64.9,-0.017,-0.961,21.92,4.0,4211.0,0.0,0.0,
2025-08-14T22:13:26.489Z,2,GR86-047-21,-62.7,-0.003,-0.969,21.91,4.0,,0.0,0.0,108.3
2025-08-14T22:13:26.532Z,2,GR86-047-21,-60.900000000000006,-0.012,-0.937,21.85,4.0,,0.0,0.0,
2025-08-14T22:13:26.576Z,2,GR86-047-21,-59.6,0.012,-0.966,21.85,4.0,,0.0,0.0,
2025-08-14T22:13:26.619Z,2,GR86-047-21,-59.0,0.013,-0.916,21.86,4.0,,0.0,0.0,
2025-08-14T22:13:26.661Z,2,GR86-047-21,-58.5,-0.022,-0.953,21.89,4.0,4242.0,0.0,0.0,
2025-08-14T22:13:26.749Z,2,GR86-047-21,-58.2,-0.012,-1.009,21.91,4.0,,0.0,0.0,108.54
2025-08-14T22:13:26.793Z,2,GR86-047-21,-58.900000000000006,-0.009,-0.944,21.95,4.0,,0.0,0.0,
2025-08-14T22:13:26.837Z,2,GR86-047-21,-62.400000000000006,0.005,-0.939,21.94,4.0,,0.0,0.0,
2025-08-14T22:13:26.879Z,2,GR86-047-21,-64.7,0.0,-0.918,21.96,4.0,4239.0,0.0,0.0,
2025-08-14T22:13:26.923Z,2,GR86-047-21,-65.10000000000001,-0.014,-0.942,13.89,4.0,,0.0,0.0,108.57
2025-08-14T22:13:26.966Z,2,GR86-047-21,-65.10000000000001,-0.008,-0.951,6.16,4.0,,0.0,0.0,
2025-08-14T22:13:27.009Z,2,GR86-047-21,-65.3,-0.036,-0.903,4.8500000000000005,4.0,,0.0,0.0,
2025-08-14T22:13:27.053Z,2,GR86-047-21,-66.0,-0.113,-0.978,4.82,4.0,,0.0,0.0,
2025-08-14T22:13:27.098Z,2,GR86-047-21,-66.2,-0.14,-0.982,4.8500000000000005,4.0,4115.0,0.0,0.0,
2025-08-14T22:13:27.183Z,2,GR86-047-21,-66.8,-0.129,-0.877,5.05,4.0,,0.0,0.0,108.53
2025-08-14T22:13:27.226Z,2,GR86-047-21,-67.3,-0.168,-0.935,25.23,4.0,,0.0,0.0,
2025-08-14T22:13:27.269Z,2,GR86-047-21,-67.3,-0.144,-0.993,31.59,4.0,,0.0,0.0,
2025-08-14T22:13:27.313Z,2,GR86-047-21,-65.0,-0.113,-0.988,40.8,4.0,4249.0,0.0,0.0,
2025-08-14T22:13:27.357Z,2,GR86-047-21,-60.8,0.051,-0.956,42.54,4.0,,0.0,0.0,108.21
2025-08-14T22:13:27.399Z,2,GR86-047-21,-55.7,0.076,-0.972,41.94,4.0,,0.0,0.0,
2025-08-14T22:13:27.442Z,2,GR86-047-21,-50.0,0.09,-0.893,41.76,4.0,,0.0,0.0,
2025-08-14T22:13:27.487Z,2,GR86-047-21,-40.900000000000006,0.059,-0.938,45.46,4.0,,0.0,0.0,
2025-08-14T22:13:27.529Z,2,GR86-047-21,-36.1,0.052,-0.922,53.73,4.0,4235.0,0.0,0.0,
2025-08-14T22:13:27.573Z,2,GR86-047-21,-34.1,0.085,-0.94,69.77,4.0,,0.0,0.0,107.5
2025-08-14T22:13:27.616Z,2,GR86-047-21,-34.1,0.096,-0.957,96.36,4.0,,0.0,0.0,
2025-08-14T22:13:27.659Z,2,GR86-047-21,-34.1,0.113,-0.93,99.76,4.0,,0.0,0.0,
2025-08-14T22:13:27.702Z,2,GR86-047-21,-34.5,0.126,-0.924,100.03,4.0,,0.0,0.0,
2025-08-14T22:13:27.746Z,2,GR86-047-21,-40.6,0.109,-0.895,100.05,4.0,4272.0,0.0,0.0,
2025-08-14T22:13:27.789Z,2,GR86-047-21,-46.5,0.113,-0.911,100.04,4.0,,0.0,0.0,107.57
2025-08-14T22:13:27.831Z,2,GR86-047-21,-51.5,0.113,-0.921,100.02,4.0,,0.0,0.0,
2025-08-14T22:13:27.876Z,2,GR86-047-21,-54.7,0.085,-0.897,100.04,4.0,,0.0,0.0,
2025-08-14T22:13:27.919Z,2,GR86-047-21,-55.900000000000006,0.104,-0.891,100.02,4.0,,0.0,0.0,
2025-08-14T22:13:27.961Z,2,GR86-047-21,-56.0,0.096,-0.873,100.02,4.0,4273.0,0.0,0.0,
2025-08-14T22:13:28.050Z,2,GR86-047-21,-56.0,0.099,-0.869,100.03,4.0,,0.0,0.0,107.2
2025-08-14T22:13:28.093Z,2,GR86-047-21,-56.0,0.093,-0.869,100.0,4.0,,0.0,0.0,
2025-08-14T22:13:28.136Z,2,GR86-047-21,-56.0,0.09,-0.917,100.01,4.0,,0.0,0.0,
2025-08-14T22:13:28.178Z,2,GR86-047-21,-56.0,0.091,-0.924,100.02,4.0,4305.0,0.0,0.0,
2025-08-14T22:13:28.221Z,2,GR86-047-21,-55.8,0.101,-0.922,100.02,4.0,,0.0,0.0,107.73
2025-08-14T22:13:28.266Z,2,GR86-047-21,-52.900000000000006,0.11,-0.882,100.01,4.0,,0.0,0.0,
2025-08-14T22:13:28.309Z,2,GR86-047-21,-50.8,0.106,-0.86,100.0,4.0,,0.0,0.0,
2025-08-14T22:13:28.351Z,2,GR86-047-21,-48.8,0.107,-0.878,100.0,4.0,,0.0,0.0,
2025-08-14T22:13:28.398Z,2,GR86-047-21,-47.1,0.108,-0.902,100.01,4.0,4340.0,0.0,0.0,
2025-08-14T22:13:28.440Z,2,GR86-047-21,-45.7,0.122,-0.861,100.01,4.0,,0.0,0.0,109.63
2025-08-14T22:13:28.483Z,2,GR86-047-21,-45.400000000000006,0.137,-0.845,100.02,4.0,,0.0,0.0,
2025-08-14T22:13:28.526Z,2,GR86-047-21,-45.400000000000006,0.116,-0.853,100.01,4.0,,0.0,0.0,
2025-08-14T22:13:28.569Z,2,GR86-047-21,-45.400000000000006,0.105,-0.891,100.01,4.0,,0.0,0.0,
2025-08-14T22:13:28.612Z,2,GR86-047-21,-45.400000000000006,0.109,-0.903,100.01,4.0,4382.0,0.0,0.0,
2025-08-14T22:13:28.657Z,2,GR86-047-21,-45.400000000000006,0.126,-0.897,100.0,4.0,,0.0,0.0,110.48
2025-08-14T22:13:28.699Z,2,GR86-047-21,-45.400000000000006,0.123,-0.857,100.0,4.0,,0.0,0.0,
2025-08-14T22:13:28.743Z,2,GR86-047-21,-45.400000000000006,0.13,-0.861,100.02,4.0,,0.0,0.0,
2025-08-14T22:13:28.787Z,2,GR86-047-21,-45.400000000000006,0.123,-0.843,100.01,4.0,,0.0,0.0,
2025-08-14T22:13:28.873Z,2,GR86-047-21,-45.400000000000006,0.117,-0.851,100.01,4.0,4405.0,0.0,0.0,110.61
2025-08-14T22:13:28.916Z,2,GR86-047-21,-49.400000000000006,0.12,-0.8310000000000001,100.01,4.0,,0.0,0.0,
2025-08-14T22:13:28.959Z,2,GR86-047-21,-52.1,0.113,-0.837,100.01,4.0,,0.0,0.0,
2025-08-14T22:13:29.002Z,2,GR86-047-21,-52.400000000000006,0.114,-0.85,100.0,4.0,,0.0,0.0,
2025-08-14T22:13:29.047Z,2,GR86-047-21,-50.1,0.128,-0.88,99.99,4.0,4434.0,0.0,0.0,
2025-08-14T22:13:29.089Z,2,GR86-047-21,-45.2,0.119,-0.864,100.0,4.0,,0.0,0.0,112.01
2025-08-14T22:13:29.132Z,2,GR86-047-21,-42.6,0.137,-0.833,100.0,4.0,,0.0,0.0,
2025-08-14T22:13:29.176Z,2,GR86-047-21,-42.1,0.135,-0.8180000000000001,100.0,4.0,,0.0,0.0,
2025-08-14T22:13:29.219Z,2,GR86-047-21,-42.1,0.127,-0.796,100.0,4.0,,0.0,0.0,
2025-08-14T22:13:29.261Z,2,GR86-047-21,-42.1,0.141,-0.801,100.01,4.0,4479.0,0.0,0.0,
2025-08-14T22:13:29.349Z,2,GR86-047-21,-40.400000000000006,0.14,-0.849,100.03,4.0,,0.0,0.0,112.86
2025-08-14T22:13:29.393Z,2,GR86-047-21,-37.4,0.15,-0.775,100.01,4.0,,0.0,0.0,
2025-08-14T22:13:29.437Z,2,GR86-047-21,-35.300000000000004,0.155,-0.778,100.01,4.0,,0.0,0.0,
2025-08-14T22:13:29.479Z,2,GR86-047-21,-34.5,0.134,-0.725,100.02,4.0,4516.0,0.0,0.0,
2025-08-14T22:13:29.523Z,2,GR86-047-21,-34.5,0.138,-0.741,100.02,4.0,,0.0,0.0,113.78
2025-08-14T22:13:29.566Z,2,GR86-047-21,-34.300000000000004,0.143,-0.764,100.0,4.0,,0.0,0.0,
2025-08-14T22:13:29.609Z,2,GR86-047-21,-33.2,0.16,-0.74,100.01,4.0,,0.0,0.0,
2025-08-14T22:13:29.651Z,2,GR86-047-21,-31.6,0.137,-0.682,100.0,4.0,,0.0,0.0,
2025-08-14T22:13:29.695Z,2,GR86-047-21,-29.5,0.137,-0.677,100.01,4.0,4569.0,0.0,0.0,
2025-08-14T22:13:29.783Z,2,GR86-047-21,-25.5,0.151,-0.588,100.0,4.0,,0.0,0.0,114.88
2025-08-14T22:13:29.829Z,2,GR86-047-21,-24.8,0.153,-0.537,100.02,4.0,,0.0,0.0,
2025-08-14T22:13:29.873Z,2,GR86-047-21,-24.8,0.157,-0.524,100.01,4.0,,0.0,0.0,
2025-08-14T22:13:29.916Z,2,GR86-047-21,-24.9,0.154,-0.484,100.01,4.0,4607.0,0.0,0.0,
2025-08-14T22:13:30.002Z,2,GR86-047-21,-25.0,0.155,-0.485,100.0,4.0,,0.0,0.0,115.99
2025-08-14T22:13:30.047Z,2,GR86-047-21,-25.1,0.139,-0.463,100.02,4.0,,0.0,0.0,
2025-08-14T22:13:30.089Z,2,GR86-047-21,-25.200000000000003,0.151,-0.43,100.02,4.0,,0.0,0.0,
2025-08-14T22:13:30.132Z,2,GR86-047-21,-25.4,0.128,-0.459,100.0,4.0,4660.0,0.0,0.0,
2025-08-14T22:13:30.219Z,2,GR86-047-21,-26.3,0.118,-0.453,100.01,4.0,,0.0,0.0,117.09
2025-08-14T22:13:30.263Z,2,GR86-047-21,-26.4,0.155,-0.415,100.01,4.0,,0.0,0.0,
2025-08-14T22:13:30.307Z,2,GR86-047-21,-26.4,0.126,-0.482,100.0,4.0,,0.0,0.0,
2025-08-14T22:13:30.349Z,2,GR86-047-21,-25.8,0.107,-0.397,100.01,4.0,4718.0,0.0,0.0,
2025-08-14T22:13:30.393Z,2,GR86-047-21,-24.4,0.107,-0.465,100.0,4.0,,0.0,0.0,118.14
2025-08-14T22:13:30.437Z,2,GR86-047-21,-23.5,0.099,-0.543,99.99,4.0,,0.0,0.0,
2025-08-14T22:13:30.479Z,2,GR86-047-21,-23.200000000000003,0.167,-0.481,100.03,4.0,,0.0,0.0,
2025-08-14T22:13:30.523Z,2,GR86-047-21,-23.0,0.131,-0.547,100.0,4.0,,0.0,0.0,
2025-08-14T22:13:30.566Z,2,GR86-047-21,-22.700000000000003,0.121,-0.405,99.99,4.0,4765.0,0.0,0.0,
2025-08-14T22:13:30.609Z,2,GR86-047-21,-22.6,0.09,-0.497,99.98,4.0,,0.0,0.0,119.29
2025-08-14T22:13:30.651Z,2,GR86-047-21,-22.5,0.144,-0.327,100.0,4.0,,0.0,0.0,
2025-08-14T22:13:30.698Z,2,GR86-047-21,-22.4,0.073,-0.326,99.99,4.0,,0.0,0.0,
2025-08-14T22:13:30.740Z,2,GR86-047-21,-21.9,0.115,-0.408,99.97,4.0,,0.0,0.0,
2025-08-14T22:13:30.783Z,2,GR86-047-21,-20.200000000000003,0.132,-0.306,99.99,4.0,4788.0,0.0,0.0,
2025-08-14T22:13:30.826Z,2,GR86-047-21,-18.3,0.175,-0.279,100.0,4.0,,0.0,0.0,120.37
2025-08-14T22:13:30.869Z,2,GR86-047-21,-17.400000000000002,0.102,-0.419,100.0,4.0,,0.0,0.0,
2025-08-14T22:13:30.912Z,2,GR86-047-21,-16.8,0.096,-0.319,100.0,4.0,,0.0,0.0,
2025-08-14T22:13:30.957Z,2,GR86-047-21,-16.5,0.131,-0.38,100.0,4.0,,0.0,0.0,
2025-08-14T22:13:30.999Z,2,GR86-047-21,-16.400000000000002,0.176,-0.443,100.0,4.0,4829.0,0.0,0.0,
2025-08-14T22:13:31.043Z,2,GR86-047-21,-16.2,0.139,-0.299,100.0,4.0,,0.0,0.0,121.38
2025-08-14T22:13:31.087Z,2,GR86-047-21,-16.2,0.099,-0.333,99.99,4.0,,0.0,0.0,
2025-08-14T22:13:31.130Z,2,GR86-047-21,-16.0,0.152,-0.24,100.0,4.0,,0.0,0.0,
2025-08-14T22:13:31.173Z,2,GR86-047-21,-15.1,0.173,-0.272,100.02,4.0,,0.0,0.0,
2025-08-14T22:13:31.216Z,2,GR86-047-21,-13.8,0.149,-0.225,99.98,4.0,4872.0,0.0,0.0,
2025-08-14T22:13:31.302Z,2,GR86-047-21,-11.0,0.147,-0.147,100.0,4.0,,0.0,0.0,122.63
2025-08-14T22:13:31.346Z,2,GR86-047-21,-8.5,0.189,-0.144,100.02,4.0,,0.0,0.0,
2025-08-14T22:13:31.389Z,2,GR86-047-21,-7.5,0.213,-0.216,100.01,4.0,,0.0,0.0,
2025-08-14T22:13:31.431Z,2,GR86-047-21,-7.2,0.185,-0.169,100.02,4.0,4921.0,0.0,0.0,
2025-08-14T22:13:31.476Z,2,GR86-047-21,-7.2,0.125,-0.068,100.01,4.0,,0.0,0.0,123.61
2025-08-14T22:13:31.519Z,2,GR86-047-21,-7.2,0.098,-0.103,100.0,4.0,,0.0,0.0,
2025-08-14T22:13:31.563Z,2,GR86-047-21,-7.300000000000001,0.139,-0.048,100.02,4.0,,0.0,0.0,
2025-08-14T22:13:31.607Z,2,GR86-047-21,-6.4,0.147,-0.086,100.0,4.0,,0.0,0.0,
2025-08-14T22:13:31.649Z,2,GR86-047-21,-6.2,0.146,-0.031,99.99,4.0,4925.0,0.0,0.0,
2025-08-14T22:13:31.736Z,2,GR86-047-21,-6.1000000000000005,0.151,-0.036,100.0,4.0,,0.0,0.0,126.06
2025-08-14T22:13:31.779Z,2,GR86-047-21,-4.9,0.168,-0.006,100.0,4.0,,0.0,0.0,
2025-08-14T22:13:31.821Z,2,GR86-047-21,-4.1000000000000005,0.175,-0.019,100.0,4.0,,0.0,0.0,
2025-08-14T22:13:31.865Z,2,GR86-047-21,-3.3000000000000003,0.183,0.005,100.01,4.0,5006.0,0.0,0.0,
2025-08-14T22:13:31.909Z,2,GR86-047-21,-2.9000000000000004,0.16,0.015,99.99,4.0,,0.0,0.0,127.42
2025-08-14T22:13:31.951Z,2,GR86-047-21,-2.5,0.135,0.015,100.02,4.0,,0.0,0.0,
2025-08-14T22:13:31.998Z,2,GR86-047-21,-1.8,0.177,0.031,100.01,4.0,,0.0,0.0,
2025-08-14T22:13:32.040Z,2,GR86-047-21,-1.4,0.17,0.005,100.0,4.0,,0.0,0.0,
2025-08-14T22:13:32.083Z,2,GR86-047-21,-1.2000000000000002,0.152,0.026,100.01,4.0,5046.0,0.0,0.0,
2025-08-14T22:13:32.169Z,2,GR86-047-21,-1.0,0.151,0.05,99.97,4.0,,0.0,0.0,128.65
2025-08-14T22:13:32.213Z,2,GR86-047-21,-1.0,0.169,0.068,100.01,4.0,,0.0,0.0,
2025-08-14T22:13:32.257Z,2,GR86-047-21,-1.0,0.163,0.056,99.99,4.0,,0.0,0.0,
2025-08-14T22:13:32.299Z,2,GR86-047-21,-1.0,0.137,0.064,100.0,4.0,5153.0,0.0,0.0,
2025-08-14T22:13:32.343Z,2,GR86-047-21,-1.0,0.16,0.06,99.99,4.0,,0.0,0.0,129.89
2025-08-14T22:13:32.387Z,2,GR86-047-21,-1.0,0.144,0.059,99.97,4.0,,0.0,0.0,
2025-08-14T22:13:32.429Z,2,GR86-047-21,-1.0,0.154,0.058,99.98,4.0,,0.0,0.0,
2025-08-14T22:13:32.473Z,2,GR86-047-21,-1.0,0.138,0.048,100.0,4.0,,0.0,0.0,
2025-08-14T22:13:32.516Z,2,GR86-047-21,-1.0,0.134,0.048,100.0,4.0,5193.0,0.0,0.0,
2025-08-14T22:13:32.559Z,2,GR86-047-21,-1.0,0.156,0.026,99.98,4.0,,0.0,0.0,131.26
2025-08-14T22:13:32.602Z,2,GR86-047-21,-1.0,0.158,0.031,99.99,4.0,,0.0,0.0,
2025-08-14T22:13:32.647Z,2,GR86-047-21,-1.0,0.155,0.032,99.99,4.0,,0.0,0.0,
2025-08-14T22:13:32.689Z,2,GR86-047-21,-1.0,0.157,0.022,99.99,4.0,,0.0,0.0,
2025-08-14T22:13:32.732Z,2,GR86-047-21,-1.0,0.145,0.039,100.0,4.0,5255.0,0.0,0.0,
2025-08-14T22:13:32.776Z,2,GR86-047-21,-1.0,0.153,0.048,99.99,4.0,,0.0,0.0,132.51
2025-08-14T22:13:32.819Z,2,GR86-047-21,-1.0,0.149,0.035,100.0,4.0,,0.0,0.0,
2025-08-14T22:13:32.861Z,2,GR86-047-21,-1.0,0.143,0.032,100.01,4.0,,0.0,0.0,
2025-08-14T22:13:32.907Z,2,GR86-047-21,-1.0,0.16,0.032,99.98,4.0,,0.0,0.0,
2025-08-14T22:13:32.949Z,2,GR86-047-21,-1.0,0.154,0.046,99.98,4.0,5301.0,0.0,0.0,
2025-08-14T22:13:32.993Z,2,GR86-047-21,-1.0,0.142,0.05,99.99,4.0,,0.0,0.0,133.78
2025-08-14T22:13:33.037Z,2,GR86-047-21,-1.0,0.146,0.033,100.02,4.0,,0.0,0.0,
2025-08-14T22:13:33.079Z,2,GR86-047-21,-1.0,0.15,0.015,99.99,4.0,,0.0,0.0,
2025-08-14T22:13:33.123Z,2,GR86-047-21,-1.0,0.149,0.016,99.99,4.0,,0.0,0.0,
2025-08-14T22:13:33.166Z,2,GR86-047-21,-1.0,0.133,0.002,99.99,4.0,5360.0,0.0,0.0,
2025-08-14T22:13:33.253Z,2,GR86-047-21,-1.0,0.147,0.03,96.49,4.0,,0.0,0.0,135.03
2025-08-14T22:13:33.298Z,2,GR86-047-21,-1.0,0.159,0.0,91.69,4.0,,0.0,0.0,
2025-08-14T22:13:33.340Z,2,GR86-047-21,-1.0,0.15,0.01,75.56,4.0,,0.0,0.0,
2025-08-14T22:13:33.383Z,2,GR86-047-21,-1.0,0.147,0.016,71.58,4.0,5416.0,0.0,0.0,
2025-08-14T22:13:33.429Z,2,GR86-047-21,-1.0,0.143,0.003,65.22,4.0,,0.0,0.0,136.37
2025-08-14T22:13:33.473Z,2,GR86-047-21,-1.0,0.142,0.018,59.28,4.0,,0.0,0.0,
2025-08-14T22:13:33.516Z,2,GR86-047-21,-1.0,0.146,0.012,58.49,4.0,,0.0,0.0,
2025-08-14T22:13:33.559Z,2,GR86-047-21,-1.0,0.131,0.005,58.34,4.0,,0.0,0.0,
2025-08-14T22:13:33.602Z,2,GR86-047-21,-1.0,0.131,0.023,57.81,4.0,5466.0,0.0,0.0,
2025-08-14T22:13:33.689Z,2,GR86-047-21,-1.0,0.126,0.044,53.85,4.0,,0.0,0.0,137.85
2025-08-14T22:13:33.732Z,2,GR86-047-21,-1.0,0.145,0.039,53.92,4.0,,0.0,0.0,
2025-08-14T22:13:33.776Z,2,GR86-047-21,-1.0,0.138,0.024,54.3,4.0,,0.0,0.0,
2025-08-14T22:13:33.819Z,2,GR86-047-21,-1.0,0.137,-0.002,54.57,4.0,5513.0,0.0,0.0,
2025-08-14T22:13:33.861Z,2,GR86-047-21,-1.0,0.119,0.013,54.65,4.0,,0.0,0.0,139.49
2025-08-14T22:13:33.907Z,2,GR86-047-21,-1.0,0.098,0.006,54.49,4.0,,0.0,0.0,
2025-08-14T22:13:33.949Z,2,GR86-047-21,-1.3,0.122,0.014,54.52,4.0,,0.0,0.0,
2025-08-14T22:13:33.993Z,2,GR86-047-21,-1.4,0.158,0.019,54.49,4.0,,0.0,0.0,
2025-08-14T22:13:34.041Z,2,GR86-047-21,-1.4,0.16,-0.019,52.83,4.0,5564.0,0.0,0.0,
2025-08-14T22:13:34.129Z,2,GR86-047-21,-1.8,0.144,-0.021,44.07,4.0,,0.0,0.0,142.39
2025-08-14T22:13:34.173Z,2,GR86-047-21,-2.5,0.108,-0.073,38.59,4.0,,0.0,0.0,
2025-08-14T22:13:34.216Z,2,GR86-047-21,-2.6,0.008,-0.068,35.43,4.0,,0.0,0.0,
2025-08-14T22:13:34.259Z,2,GR86-047-21,-2.6,-0.088,-0.032,34.44,5.0,5614.0,0.0,0.0,
2025-08-14T22:13:34.346Z,2,GR86-047-21,-2.7,0.126,-0.105,22.05,5.0,,0.0,0.0,143.8
2025-08-14T22:13:34.389Z,2,GR86-047-21,-2.7,-0.032,-0.051,21.99,5.0,,0.0,0.0,
2025-08-14T22:13:34.432Z,2,GR86-047-21,-2.7,-0.023,-0.113,20.31,5.0,,0.0,0.0,
2025-08-14T22:13:34.476Z,2,GR86-047-21,-2.7,0.069,-0.113,4.28,5.0,5343.0,0.0,0.0,
2025-08-14T22:13:34.563Z,2,GR86-047-21,-2.8000000000000003,-0.133,-0.083,4.0,5.0,,0.0,0.0,144.9
2025-08-14T22:13:34.607Z,2,GR86-047-21,-2.9000000000000004,-0.357,-0.089,3.42,5.0,,2.395,2.61,
2025-08-14T22:13:34.649Z,2,GR86-047-21,-3.3000000000000003,-0.123,-0.066,3.1,5.0,,3.615,3.845,
2025-08-14T22:13:34.693Z,2,GR86-047-21,-3.5,-0.103,-0.075,2.89,5.0,4975.0,5.705,5.705,
2025-08-14T22:13:34.736Z,2,GR86-047-21,-3.6,-0.262,-0.121,2.76,5.0,,11.645,11.615,145.65
2025-08-14T22:13:34.779Z,2,GR86-047-21,-3.6,-0.51,-0.122,2.68,5.0,,19.425,19.245,
2025-08-14T22:13:34.823Z,2,GR86-047-21,-4.2,-0.639,-0.11,2.62,5.0,,30.4,30.11,
2025-08-14T22:13:34.866Z,2,GR86-047-21,-6.5,-0.86,-0.136,2.58,5.0,,43.995,43.17,
2025-08-14T22:13:34.909Z,2,GR86-047-21,-7.9,-0.919,-0.138,2.5500000000000003,5.0,4804.0,50.465,49.9,
2025-08-14T22:13:34.951Z,2,GR86-047-21,-8.5,-0.989,-0.142,2.52,5.0,,57.33,56.585,144.0
2025-08-14T22:13:34.995Z,2,GR86-047-21,-8.9,-1.144,-0.186,2.49,5.0,,64.365,63.405,
2025-08-14T22:13:35.041Z,2,GR86-047-21,-9.5,-1.256,-0.216,2.49,5.0,,69.875,69.05,
2025-08-14T22:13:35.087Z,2,GR86-047-21,-9.6,-1.286,-0.238,2.49,5.0,,72.3,71.77,
2025-08-14T22:13:35.129Z,2,GR86-047-21,-9.6,-1.282,-0.304,2.48,5.0,4401.0,74.56,75.84,
2025-08-14T22:13:35.173Z,2,GR86-047-21,-9.5,-1.238,-0.265,2.46,5.0,,74.59,75.49,137.35
2025-08-14T22:13:35.216Z,2,GR86-047-21,-9.5,-1.247,-0.28,2.46,5.0,,74.44,74.025,
2025-08-14T22:13:35.259Z,2,GR86-047-21,-9.6,-1.147,-0.268,2.46,5.0,,73.08,74.41,
2025-08-14T22:13:35.302Z,2,GR86-047-21,-9.5,-1.157,-0.297,2.47,5.0,,65.58500000000001,66.795,
2025-08-14T22:13:35.347Z,2,GR86-047-21,-6.6000000000000005,-1.103,-0.178,2.47,5.0,4116.0,52.465,53.775,
2025-08-14T22:13:35.389Z,2,GR86-047-21,-5.2,-1.1,-0.249,2.46,5.0,,49.365,50.875,128.98
2025-08-14T22:13:35.432Z,2,GR86-047-21,-5.2,-1.01,-0.198,2.46,5.0,,48.055,49.58,
2025-08-14T22:13:35.519Z,2,GR86-047-21,-5.2,-0.998,-0.212,2.48,5.0,,47.995000000000005,49.17,
2025-08-14T22:13:35.561Z,2,GR86-047-21,-5.2,-0.952,-0.18,83.18,5.0,3940.0,45.305,46.865,
2025-08-14T22:13:35.607Z,2,GR86-047-21,-5.2,-0.889,-0.145,65.56,4.0,,41.765,43.325,122.05
2025-08-14T22:13:35.649Z,2,GR86-047-21,-5.2,-1.097,-0.152,5.4,4.0,,39.555,40.805,
2025-08-14T22:13:35.693Z,2,GR86-047-21,-5.2,-0.859,-0.076,3.18,4.0,,39.065,40.425,
2025-08-14T22:13:35.737Z,2,GR86-047-21,-5.2,-0.741,-0.119,2.8000000000000003,4.0,,35.645,36.12,
2025-08-14T22:13:35.779Z,2,GR86-047-21,-5.2,-0.755,-0.134,2.68,4.0,4214.0,31.54,32.475,
2025-08-14T22:13:35.823Z,2,GR86-047-21,-5.2,-0.63,-0.031,2.62,4.0,,27.895,28.87,116.29
2025-08-14T22:13:35.866Z,2,GR86-047-21,-5.2,-0.616,-0.117,2.56,4.0,,25.895,26.69,
2025-08-14T22:13:35.909Z,2,GR86-047-21,-5.2,-0.667,-0.013,2.5500000000000003,4.0,,25.12,25.865,
2025-08-14T22:13:35.951Z,2,GR86-047-21,-5.2,-0.593,-0.045,2.52,4.0,,25.27,25.835,
2025-08-14T22:13:35.995Z,2,GR86-047-21,-5.2,-0.63,-0.049,2.49,4.0,4190.0,25.605,26.17,
2025-08-14T22:13:36.038Z,2,GR86-047-21,-5.2,-0.659,0.005,2.49,4.0,,26.355,26.905,110.68
2025-08-14T22:13:36.080Z,2,GR86-047-21,-5.2,-0.597,-0.065,2.49,4.0,,27.025,27.225,
2025-08-14T22:13:36.123Z,2,GR86-047-21,-5.2,-0.662,-0.014,7.18,4.0,,27.405,27.68,
2025-08-14T22:13:36.166Z,2,GR86-047-21,-5.2,-0.679,-0.014,71.67,4.0,,28.43,28.69,
2025-08-14T22:13:36.209Z,2,GR86-047-21,-5.2,-0.633,-0.056,99.84,4.0,4074.0,28.9,29.3,
2025-08-14T22:13:36.253Z,2,GR86-047-21,-5.2,-0.66,-0.009,87.61,4.0,,29.115,29.465,107.15
2025-08-14T22:13:36.298Z,2,GR86-047-21,-5.2,-0.586,-0.073,26.38,4.0,,28.49,29.025,
2025-08-14T22:13:36.340Z,2,GR86-047-21,-5.2,-0.666,-0.037,5.34,4.0,,26.4,27.375,
2025-08-14T22:13:36.383Z,2,GR86-047-21,-5.2,-0.515,-0.007,4.64,4.0,,22.735,23.56,
2025-08-14T22:13:36.429Z,2,GR86-047-21,-5.2,-0.435,-0.099,4.13,3.0,4125.0,19.52,20.115,
2025-08-14T22:13:36.516Z,2,GR86-047-21,-4.9,-0.589,-0.06,3.3200000000000003,3.0,,19.87,20.235,103.35
2025-08-14T22:13:36.559Z,2,GR86-047-21,-4.9,-0.625,-0.025,2.97,3.0,,21.09,21.24,
2025-08-14T22:13:36.602Z,2,GR86-047-21,-4.9,-0.478,-0.036,2.81,3.0,,22.25,22.43,
2025-08-14T22:13:36.647Z,2,GR86-047-21,-4.9,-0.532,-0.056,2.67,3.0,4368.0,23.93,24.08,
2025-08-14T22:13:36.689Z,2,GR86-047-21,-4.9,-0.615,0.013,2.61,3.0,,25.27,25.545,96.24
2025-08-14T22:13:36.732Z,2,GR86-047-21,-4.9,-0.626,-0.041,2.59,3.0,,26.14,26.43,
2025-08-14T22:13:36.776Z,2,GR86-047-21,-4.9,-0.637,0.018,2.5500000000000003,3.0,,26.72,27.15,
2025-08-14T22:13:36.819Z,2,GR86-047-21,-4.9,-0.596,-0.044,2.52,3.0,,26.995,27.315,
2025-08-14T22:13:36.861Z,2,GR86-047-21,-4.9,-0.625,0.016,2.49,3.0,4338.0,27.71,27.925,
2025-08-14T22:13:36.949Z,2,GR86-047-21,-4.7,-0.665,-0.011,2.45,3.0,,28.095,28.615,92.81
2025-08-14T22:13:36.993Z,2,GR86-047-21,-4.7,-0.5710000000000001,-0.022,2.46,3.0,,27.62,28.125,
2025-08-14T22:13:37.037Z,2,GR86-047-21,-4.7,-0.627,-0.002,2.46,3.0,,27.375,27.925,
2025-08-14T22:13:37.079Z,2,GR86-047-21,-4.7,-0.5720000000000001,-0.029,2.46,3.0,4159.0,26.78,27.56,
2025-08-14T22:13:37.123Z,2,GR86-047-21,-4.7,-0.635,0.003,2.44,3.0,,26.26,26.905,88.96000000000001
2025-08-14T22:13:37.166Z,2,GR86-047-21,-4.7,-0.583,0.025,29.2,3.0,,25.605,26.295,
2025-08-14T22:13:37.209Z,2,GR86-047-21,-4.7,-0.609,-0.019,74.33,3.0,,25.605,26.2,
2025-08-14T22:13:37.252Z,2,GR86-047-21,-4.7,-0.553,0.007,100.04,3.0,,25.575,25.925,
2025-08-14T22:13:37.295Z,2,GR86-047-21,-4.7,-0.582,-0.008,100.03,3.0,3817.0,25.575,26.17,
2025-08-14T22:13:37.337Z,2,GR86-047-21,-4.7,-0.518,-0.042,60.57,2.0,,25.15,25.805,85.17
2025-08-14T22:13:37.380Z,2,GR86-047-21,-4.7,-0.581,-0.005,5.45,2.0,,24.95,25.545,
2025-08-14T22:13:37.423Z,2,GR86-047-21,-4.7,-0.674,-0.011,3.3000000000000003,2.0,,24.615,25.485,
2025-08-14T22:13:37.466Z,2,GR86-047-21,-4.7,-0.638,-0.036,2.84,2.0,,25.085,25.485,
2025-08-14T22:13:37.509Z,2,GR86-047-21,-4.7,-0.545,-0.008,2.74,2.0,4484.0,24.615,25.15,
2025-08-14T22:13:37.553Z,2,GR86-047-21,-4.7,-0.558,-0.004,2.7,2.0,,24.585,25.15,81.59
2025-08-14T22:13:37.598Z,2,GR86-047-21,-4.6000000000000005,-0.601,-0.05,2.65,2.0,,24.235,24.765,
2025-08-14T22:13:37.640Z,2,GR86-047-21,-4.1000000000000005,-0.577,0.057,2.59,2.0,,24.615,25.055,
2025-08-14T22:13:37.683Z,2,GR86-047-21,-3.9,-0.624,-0.04,2.5500000000000003,2.0,,24.675,25.15,
2025-08-14T22:13:37.726Z,2,GR86-047-21,-3.4000000000000004,-0.59,0.059,2.52,2.0,4268.0,24.585,25.15,
2025-08-14T22:13:37.769Z,2,GR86-047-21,-3.0,-0.624,-0.02,2.49,2.0,,24.28,24.995,77.73
2025-08-14T22:13:37.813Z,2,GR86-047-21,-2.7,-0.516,0.046,2.49,2.0,,23.21,23.835,
2025-08-14T22:13:37.857Z,2,GR86-047-21,-2.5,-0.549,0.006,2.48,2.0,,21.96,22.705,
2025-08-14T22:13:37.899Z,2,GR86-047-21,-2.3000000000000003,-0.54,0.002,2.46,2.0,,20.115,20.935,
2025-08-14T22:13:37.942Z,2,GR86-047-21,-2.0,-0.508,0.056,2.46,2.0,4074.0,17.52,18.325,
2025-08-14T22:13:37.987Z,2,GR86-047-21,-1.5,-0.471,0.017,2.46,2.0,,14.205,14.815,74.06
2025-08-14T22:13:38.029Z,2,GR86-047-21,-1.3,-0.389,0.063,2.46,2.0,,12.68,13.37,
2025-08-14T22:13:38.073Z,2,GR86-047-21,-0.9,-0.372,0.019,2.46,2.0,,11.645,12.24,
2025-08-14T22:13:38.116Z,2,GR86-047-21,-0.8,-0.324,0.039,2.46,2.0,,10.835,11.275,
2025-08-14T22:13:38.159Z,2,GR86-047-21,-0.4,-0.347,0.038,2.45,2.0,3947.0,9.935,10.59,
2025-08-14T22:13:38.202Z,2,GR86-047-21,-0.3,-0.37,0.049,2.46,2.0,,9.095,9.72,70.86
2025-08-14T22:13:38.245Z,2,GR86-047-21,-0.2,-0.301,0.062,2.46,2.0,,7.645,8.27,
2025-08-14T22:13:38.289Z,2,GR86-047-21,-0.2,-0.289,0.044,2.46,2.0,,6.18,6.745,
2025-08-14T22:13:38.331Z,2,GR86-047-21,-0.2,-0.191,0.047,2.46,2.0,,3.555,3.97,
2025-08-14T22:13:38.375Z,2,GR86-047-21,-0.2,-0.178,0.025,2.45,2.0,3838.0,0.0,0.0,
2025-08-14T22:13:38.419Z,2,GR86-047-21,-0.3,-0.149,0.027,2.46,2.0,,0.0,0.0,68.72
2025-08-14T22:13:38.461Z,2,GR86-047-21,-0.4,-0.133,0.03,2.46,2.0,,0.0,0.0,
2025-08-14T22:13:38.507Z,2,GR86-047-21,-0.4,-0.128,0.009,2.45,2.0,,0.0,0.0,
2025-08-14T22:13:38.549Z,2,GR86-047-21,-0.4,-0.116,0.017,2.45,2.0,,0.0,0.0,
2025-08-14T22:13:38.593Z,2,GR86-047-21,-0.4,-0.116,0.011,2.46,2.0,3790.0,0.0,0.0,
2025-08-14T22:13:38.636Z,2,GR86-047-21,-0.4,-0.13,0.006,2.46,2.0,,0.0,0.0,67.58
2025-08-14T22:13:38.679Z,2,GR86-047-21,-0.4,-0.124,0.018,2.46,2.0,,0.0,0.0,
2025-08-14T22:13:38.723Z,2,GR86-047-21,-0.4,-0.128,0.006,2.46,2.0,,0.0,0.0,
2025-08-14T22:13:38.766Z,2,GR86-047-21,-0.4,-0.111,0.018,2.45,2.0,,0.0,0.0,
2025-08-14T22:13:38.808Z,2,GR86-047-21,-0.4,-0.122,0.013,2.46,2.0,3757.0,0.0,0.0,
2025-08-14T22:13:38.851Z,2,GR86-047-21,-0.4,-0.124,0.021,2.46,2.0,,0.0,0.0,67.07000000000001
2025-08-14T22:13:38.898Z,2,GR86-047-21,-0.4,-0.118,0.029,2.46,2.0,,0.0,0.0,
2025-08-14T22:13:38.940Z,2,GR86-047-21,-0.4,-0.121,0.022,2.46,2.0,,0.0,0.0,
2025-08-14T22:13:38.983Z,2,GR86-047-21,-0.4,-0.131,0.024,2.46,2.0,,0.0,0.0,
2025-08-14T22:13:39.026Z,2,GR86-047-21,-0.4,-0.125,0.02,2.46,2.0,3738.0,0.0,0.0,
2025-08-14T22:13:39.069Z,2,GR86-047-21,-0.4,-0.125,0.031,2.46,2.0,,0.0,0.0,66.61
2025-08-14T22:13:39.112Z,2,GR86-047-21,-0.4,-0.115,0.042,2.47,2.0,,0.0,0.0,
2025-08-14T22:13:39.157Z,2,GR86-047-21,-0.4,-0.118,0.021,2.46,2.0,,0.0,0.0,
2025-08-14T22:13:39.199Z,2,GR86-047-21,-0.4,-0.124,0.029,2.47,2.0,,0.0,0.0,
2025-08-14T22:13:39.243Z,2,GR86-047-21,-0.4,-0.123,0.039,2.46,2.0,3714.0,0.0,0.0,
2025-08-14T22:13:39.287Z,2,GR86-047-21,-0.4,-0.13,0.035,2.48,2.0,,0.0,0.0,65.68
2025-08-14T22:13:39.329Z,2,GR86-047-21,-0.4,-0.113,0.035,2.49,2.0,,0.0,0.0,
2025-08-14T22:13:39.373Z,2,GR86-047-21,-0.4,-0.119,0.029,2.48,2.0,,0.0,0.0,
2025-08-14T22:13:39.416Z,2,GR86-047-21,-0.4,-0.127,0.025,2.48,2.0,,0.0,0.0,
2025-08-14T22:13:39.459Z,2,GR86-047-21,-0.4,-0.119,0.024,2.49,2.0,3685.0,0.0,0.0,
2025-08-14T22:13:39.502Z,2,GR86-047-21,-0.8,-0.121,0.012,2.48,2.0,,0.0,0.0,65.23
2025-08-14T22:13:39.547Z,2,GR86-047-21,-2.7,-0.113,0.001,2.47,2.0,,0.0,0.0,
2025-08-14T22:13:39.589Z,2,GR86-047-21,-4.9,-0.124,-0.028,2.48,2.0,,0.0,0.0,
2025-08-14T22:13:39.632Z,2,GR86-047-21,-7.1000000000000005,-0.131,-0.042,2.49,2.0,,0.0,0.0,
2025-08-14T22:13:39.676Z,2,GR86-047-21,-7.9,-0.114,-0.055,2.82,2.0,3665.0,0.0,0.0,
2025-08-14T22:13:39.719Z,2,GR86-047-21,-7.9,-0.118,-0.082,4.3500000000000005,2.0,,0.0,0.0,64.78
2025-08-14T22:13:39.761Z,2,GR86-047-21,-7.9,-0.127,-0.084,4.5600000000000005,2.0,,0.0,0.0,
2025-08-14T22:13:39.807Z,2,GR86-047-21,-7.9,-0.124,-0.072,11.25,2.0,,0.0,0.0,
2025-08-14T22:13:39.849Z,2,GR86-047-21,-7.9,-0.128,-0.07,17.26,2.0,,0.0,0.0,
2025-08-14T22:13:39.893Z,2,GR86-047-21,-7.9,-0.087,-0.069,19.13,2.0,3614.0,0.0,0.0,
2025-08-14T22:13:39.936Z,2,GR86-047-21,-7.9,-0.057,-0.079,21.31,2.0,,0.0,0.0,64.32000000000001
2025-08-14T22:13:39.979Z,2,GR86-047-21,-7.9,-0.065,-0.055,21.67,2.0,,0.0,0.0,
2025-08-14T22:13:40.023Z,2,GR86-047-21,-7.800000000000001,-0.04,-0.067,21.85,2.0,,0.0,0.0,
2025-08-14T22:13:40.067Z,2,GR86-047-21,-6.7,0.004,-0.046,21.97,2.0,,0.0,0.0,
2025-08-14T22:13:40.109Z,2,GR86-047-21,-5.7,0.274,-0.057,22.01,2.0,3839.0,0.0,0.0,
2025-08-14T22:13:40.153Z,2,GR86-047-21,-5.1000000000000005,0.301,-0.046,22.03,2.0,,0.0,0.0,63.96
2025-08-14T22:13:40.198Z,2,GR86-047-21,-4.9,0.167,-0.028,22.04,2.0,,0.0,0.0,
2025-08-14T22:13:40.240Z,2,GR86-047-21,-4.9,0.058,-0.014,22.07,2.0,,0.0,0.0,
2025-08-14T22:13:40.283Z,2,GR86-047-21,-4.7,0.041,-0.025,22.08,2.0,,0.0,0.0,
2025-08-14T22:13:40.329Z,2,GR86-047-21,-4.2,0.17,0.005,22.07,2.0,3702.0,0.0,0.0,
2025-08-14T22:13:40.373Z,2,GR86-047-21,-4.2,0.214,-0.003,22.04,2.0,,0.0,0.0,64.51
2025-08-14T22:13:40.416Z,2,GR86-047-21,-4.2,0.165,-0.017,22.05,2.0,,0.0,0.0,
2025-08-14T22:13:40.459Z,2,GR86-047-21,-4.2,0.126,-0.011,22.05,2.0,,0.0,0.0,
2025-08-14T22:13:40.502Z,2,GR86-047-21,-4.2,0.081,-0.006,22.04,2.0,,0.0,0.0,
2025-08-14T22:13:40.547Z,2,GR86-047-21,-4.2,0.131,-0.006,22.04,2.0,3764.0,0.0,0.0,
2025-08-14T22:13:40.589Z,2,GR86-047-21,-4.2,0.169,-0.018,22.05,2.0,,0.0,0.0,65.78
2025-08-14T22:13:40.632Z,2,GR86-047-21,-4.2,0.153,-0.027,22.05,2.0,,0.0,0.0,
2025-08-14T22:13:40.676Z,2,GR86-047-21,-4.2,0.144,-0.004,22.04,2.0,,0.0,0.0,
2025-08-14T22:13:40.719Z,2,GR86-047-21,-4.2,0.114,-0.012,22.02,2.0,,0.0,0.0,
2025-08-14T22:13:40.763Z,2,GR86-047-21,-4.2,0.096,-0.017,22.02,2.0,3873.0,0.0,0.0,
2025-08-14T22:13:40.807Z,2,GR86-047-21,-4.2,0.139,-0.014,22.0,2.0,,0.0,0.0,67.13
2025-08-14T22:13:40.849Z,2,GR86-047-21,-4.2,0.14,-0.017,22.01,2.0,,0.0,0.0,
2025-08-14T22:13:40.893Z,2,GR86-047-21,-4.2,0.141,-0.01,22.02,2.0,,0.0,0.0,
2025-08-14T22:13:40.937Z,2,GR86-047-21,-4.2,0.118,-0.025,22.01,2.0,,0.0,0.0,
2025-08-14T22:13:40.979Z,2,GR86-047-21,-4.2,0.109,-0.019,22.01,2.0,3977.0,0.0,0.0,
2025-08-14T22:13:41.023Z,2,GR86-047-21,-4.2,0.106,-0.02,22.01,2.0,,0.0,0.0,68.43
2025-08-14T22:13:41.067Z,2,GR86-047-21,-4.5,0.125,-0.033,21.99,2.0,,0.0,0.0,
2025-08-14T22:13:41.109Z,2,GR86-047-21,-5.1000000000000005,0.131,-0.031,21.98,2.0,,0.0,0.0,
2025-08-14T22:13:41.153Z,2,GR86-047-21,-5.9,0.122,-0.055,21.98,2.0,,0.0,0.0,
2025-08-14T22:13:41.198Z,2,GR86-047-21,-7.2,0.128,-0.057,21.98,2.0,4055.0,0.0,0.0,
2025-08-14T22:13:41.240Z,2,GR86-047-21,-9.2,0.113,-0.081,22.16,2.0,,0.0,0.0,69.73
2025-08-14T22:13:41.283Z,2,GR86-047-21,-10.6,0.106,-0.098,22.43,2.0,,0.0,0.0,
2025-08-14T22:13:41.326Z,2,GR86-047-21,-14.4,0.135,-0.127,22.6,2.0,,0.0,0.0,
2025-08-14T22:13:41.369Z,2,GR86-047-21,-17.0,0.108,-0.146,22.65,2.0,,0.0,0.0,
2025-08-14T22:13:41.412Z,2,GR86-047-21,-19.4,0.112,-0.174,22.69,2.0,4115.0,0.0,0.0,
2025-08-14T22:13:41.457Z,2,GR86-047-21,-21.3,0.113,-0.202,22.7,2.0,,0.0,0.0,70.96000000000001
2025-08-14T22:13:41.499Z,2,GR86-047-21,-22.9,0.116,-0.222,22.73,2.0,,0.0,0.0,
2025-08-14T22:13:41.542Z,2,GR86-047-21,-24.200000000000003,0.115,-0.246,22.75,2.0,,0.0,0.0,
2025-08-14T22:13:41.587Z,2,GR86-047-21,-25.1,0.122,-0.271,23.13,2.0,,0.0,0.0,
2025-08-14T22:13:41.629Z,2,GR86-047-21,-25.200000000000003,0.122,-0.281,23.69,2.0,4181.0,0.0,0.0,
2025-08-14T22:13:41.673Z,2,GR86-047-21,-25.4,0.1,-0.294,23.72,2.0,,0.0,0.0,72.22
2025-08-14T22:13:41.716Z,2,GR86-047-21,-25.5,0.11,-0.296,23.43,2.0,,0.0,0.0,
2025-08-14T22:13:41.759Z,2,GR86-047-21,-25.8,0.122,-0.308,22.85,2.0,,0.0,0.0,
2025-08-14T22:13:41.802Z,2,GR86-047-21,-26.700000000000003,0.125,-0.308,22.35,2.0,,0.0,0.0,
2025-08-14T22:13:41.846Z,2,GR86-047-21,-28.4,0.114,-0.323,22.15,2.0,4261.0,0.0,0.0,
2025-08-14T22:13:41.889Z,2,GR86-047-21,-30.0,0.113,-0.329,22.09,2.0,,0.0,0.0,74.67
2025-08-14T22:13:41.933Z,2,GR86-047-21,-31.8,0.108,-0.344,22.03,2.0,,0.0,0.0,
2025-08-14T22:13:41.976Z,2,GR86-047-21,-33.7,0.097,-0.358,22.08,2.0,,0.0,0.0,
2025-08-14T22:13:42.019Z,2,GR86-047-21,-35.5,0.099,-0.369,22.08,2.0,,0.0,0.0,
2025-08-14T22:13:42.061Z,2,GR86-047-21,-36.8,0.093,-0.405,22.07,2.0,4330.0,0.0,0.0,
2025-08-14T22:13:42.149Z,2,GR86-047-21,-38.400000000000006,0.084,-0.427,22.02,2.0,,0.0,0.0,75.85000000000001
2025-08-14T22:13:42.193Z,2,GR86-047-21,-39.7,0.101,-0.458,22.01,2.0,,0.0,0.0,
2025-08-14T22:13:42.236Z,2,GR86-047-21,-39.8,0.102,-0.478,22.01,2.0,,0.0,0.0,
2025-08-14T22:13:42.279Z,2,GR86-047-21,-39.8,0.096,-0.481,22.03,2.0,4395.0,0.0,0.0,
2025-08-14T22:13:42.366Z,2,GR86-047-21,-39.900000000000006,0.084,-0.498,22.03,2.0,,0.0,0.0,77.02
2025-08-14T22:13:42.409Z,2,GR86-047-21,-40.5,0.091,-0.498,22.01,2.0,,0.0,0.0,
2025-08-14T22:13:42.453Z,2,GR86-047-21,-42.0,0.093,-0.512,22.01,2.0,,0.0,0.0,
2025-08-14T22:13:42.498Z,2,GR86-047-21,-44.6,0.091,-0.516,22.01,2.0,4532.0,0.0,0.0,
2025-08-14T22:13:42.540Z,2,GR86-047-21,-48.400000000000006,0.078,-0.532,22.01,2.0,,0.0,0.0,78.10000000000001
2025-08-14T22:13:42.583Z,2,GR86-047-21,-52.6,0.077,-0.557,22.01,2.0,,0.0,0.0,
2025-08-14T22:13:42.626Z,2,GR86-047-21,-58.1,0.063,-0.608,21.97,2.0,,0.0,0.0,
2025-08-14T22:13:42.669Z,2,GR86-047-21,-61.3,0.076,-0.639,20.99,2.0,,0.0,0.0,
2025-08-14T22:13:42.712Z,2,GR86-047-21,-64.2,0.062,-0.683,20.85,2.0,4591.0,0.0,0.0,
2025-08-14T22:13:42.757Z,2,GR86-047-21,-67.3,0.057,-0.6910000000000001,21.45,2.0,,0.0,0.0,79.12
2025-08-14T22:13:42.799Z,2,GR86-047-21,-70.3,0.048,-0.757,21.55,2.0,,0.0,0.0,
2025-08-14T22:13:42.843Z,2,GR86-047-21,-73.3,0.045,-0.764,21.64,2.0,,0.0,0.0,
2025-08-14T22:13:42.887Z,2,GR86-047-21,-76.5,0.04,-0.838,21.84,2.0,,0.0,0.0,
2025-08-14T22:13:42.929Z,2,GR86-047-21,-78.0,0.041,-0.8290000000000001,21.93,2.0,4641.0,0.0,0.0,
2025-08-14T22:13:42.973Z,2,GR86-047-21,-79.30000000000001,0.036,-0.883,21.99,2.0,,0.0,0.0,81.02
2025-08-14T22:13:43.016Z,2,GR86-047-21,-80.30000000000001,0.044,-0.858,21.94,2.0,,0.0,0.0,
2025-08-14T22:13:43.102Z,2,GR86-047-21,-81.10000000000001,0.043,-0.899,21.42,2.0,,0.0,0.0,
2025-08-14T22:13:43.147Z,2,GR86-047-21,-86.0,0.023,-0.941,21.52,2.0,4701.0,0.0,0.0,
2025-08-14T22:13:43.189Z,2,GR86-047-21,-89.10000000000001,0.012,-0.906,21.45,2.0,,0.0,0.0,82.02
2025-08-14T22:13:43.232Z,2,GR86-047-21,-90.5,0.015,-0.969,20.11,2.0,,0.0,0.0,
2025-08-14T22:13:43.276Z,2,GR86-047-21,-90.6,0.023,-0.934,20.14,2.0,,0.0,0.0,
2025-08-14T22:13:43.319Z,2,GR86-047-21,-90.6,0.009,-0.959,21.45,2.0,,0.0,0.0,
2025-08-14T22:13:43.361Z,2,GR86-047-21,-90.5,-0.003,-0.986,21.84,2.0,4754.0,0.0,0.0,
2025-08-14T22:13:43.407Z,2,GR86-047-21,-89.10000000000001,-0.001,-1.026,21.97,2.0,,0.0,0.0,82.69
2025-08-14T22:13:43.449Z,2,GR86-047-21,-87.60000000000001,0.019,-0.97,22.0,2.0,,0.0,0.0,
2025-08-14T22:13:43.493Z,2,GR86-047-21,-85.30000000000001,0.017,-1.004,22.03,2.0,,0.0,0.0,
2025-08-14T22:13:43.537Z,2,GR86-047-21,-83.10000000000001,0.028,-0.99,22.05,2.0,,0.0,0.0,
2025-08-14T22:13:43.579Z,2,GR86-047-21,-81.7,0.033,-0.971,22.05,2.0,4785.0,0.0,0.0,
2025-08-14T22:13:43.623Z,2,GR86-047-21,-81.60000000000001,0.039,-1.0,22.08,2.0,,0.0,0.0,83.22
2025-08-14T22:13:43.666Z,2,GR86-047-21,-82.80000000000001,0.039,-0.981,22.07,2.0,,0.0,0.0,
2025-08-14T22:13:43.709Z,2,GR86-047-21,-88.0,0.033,-0.945,22.07,2.0,,0.0,0.0,
2025-08-14T22:13:43.751Z,2,GR86-047-21,-91.1,0.023,-0.96,22.07,2.0,,0.0,0.0,
2025-08-14T22:13:43.795Z,2,GR86-047-21,-91.7,0.02,-0.972,22.08,2.0,4799.0,0.0,0.0,
2025-08-14T22:13:43.837Z,2,GR86-047-21,-91.7,0.026,-0.946,22.74,2.0,,0.0,0.0,83.63
2025-08-14T22:13:43.880Z,2,GR86-047-21,-91.5,0.029,-0.977,24.28,2.0,,0.0,0.0,
2025-08-14T22:13:43.923Z,2,GR86-047-21,-90.0,0.041,-0.932,24.45,2.0,,0.0,0.0,
2025-08-14T22:13:43.966Z,2,GR86-047-21,-88.4,0.038,-0.965,24.89,2.0,,0.0,0.0,
2025-08-14T22:13:44.053Z,2,GR86-047-21,-85.5,0.058,-0.967,26.52,2.0,4827.0,0.0,0.0,83.8
2025-08-14T22:13:44.098Z,2,GR86-047-21,-82.5,0.064,-0.952,27.0,2.0,,0.0,0.0,
2025-08-14T22:13:44.140Z,2,GR86-047-21,-78.7,0.074,-0.964,28.36,2.0,,0.0,0.0,
2025-08-14T22:13:44.183Z,2,GR86-047-21,-75.5,0.086,-0.898,29.21,2.0,,0.0,0.0,
2025-08-14T22:13:44.226Z,2,GR86-047-21,-73.4,0.113,-0.93,29.24,2.0,4872.0,0.0,0.0,
2025-08-14T22:13:44.269Z,2,GR86-047-21,-73.4,0.114,-0.901,29.22,2.0,,0.0,0.0,84.22
2025-08-14T22:13:44.312Z,2,GR86-047-21,-73.3,0.125,-0.914,29.19,2.0,,0.0,0.0,
2025-08-14T22:13:44.357Z,2,GR86-047-21,-72.60000000000001,0.112,-0.892,29.34,2.0,,0.0,0.0,
2025-08-14T22:13:44.399Z,2,GR86-047-21,-71.10000000000001,0.113,-0.946,31.62,2.0,,0.0,0.0,
2025-08-14T22:13:44.443Z,2,GR86-047-21,-69.8,0.114,-0.886,36.14,2.0,4916.0,0.0,0.0,
2025-08-14T22:13:44.487Z,2,GR86-047-21,-67.7,0.132,-0.884,39.77,2.0,,0.0,0.0,85.39
2025-08-14T22:13:44.529Z,2,GR86-047-21,-66.5,0.161,-0.845,41.57,2.0,,0.0,0.0,
2025-08-14T22:13:44.573Z,2,GR86-047-21,-65.60000000000001,0.175,-0.865,43.17,2.0,,0.0,0.0,
2025-08-14T22:13:44.616Z,2,GR86-047-21,-65.4,0.177,-0.85,45.92,2.0,,0.0,0.0,
2025-08-14T22:13:44.658Z,2,GR86-047-21,-65.3,0.177,-0.863,47.03,2.0,4960.0,0.0,0.0,
2025-08-14T22:13:44.702Z,2,GR86-047-21,-65.3,0.172,-0.8310000000000001,46.16,2.0,,0.0,0.0,86.27
2025-08-14T22:13:44.747Z,2,GR86-047-21,-65.5,0.176,-0.872,44.88,2.0,,0.0,0.0,
2025-08-14T22:13:44.833Z,2,GR86-047-21,-66.3,0.172,-0.845,44.25,2.0,,0.0,0.0,
2025-08-14T22:13:44.876Z,2,GR86-047-21,-66.5,0.176,-0.808,41.33,2.0,5034.0,0.0,0.0,
2025-08-14T22:13:44.919Z,2,GR86-047-21,-66.5,0.169,-0.8320000000000001,40.92,2.0,,0.0,0.0,87.66
2025-08-14T22:13:44.963Z,2,GR86-047-21,-66.5,0.162,-0.812,41.04,2.0,,0.0,0.0,
2025-08-14T22:13:45.007Z,2,GR86-047-21,-65.5,0.156,-0.789,43.69,2.0,,0.0,0.0,
2025-08-14T22:13:45.049Z,2,GR86-047-21,-63.900000000000006,0.161,-0.855,46.33,2.0,,0.0,0.0,
2025-08-14T22:13:45.093Z,2,GR86-047-21,-62.5,0.146,-0.849,54.44,2.0,5204.0,0.0,0.0,
2025-08-14T22:13:45.137Z,2,GR86-047-21,-60.8,0.16,-0.869,74.27,2.0,,0.0,0.0,88.93
2025-08-14T22:13:45.179Z,2,GR86-047-21,-59.0,0.181,-0.873,98.48,2.0,,0.0,0.0,
2025-08-14T22:13:45.223Z,2,GR86-047-21,-57.5,0.212,-0.848,99.96,2.0,,0.0,0.0,
2025-08-14T22:13:45.266Z,2,GR86-047-21,-54.400000000000006,0.217,-0.857,100.0,2.0,,0.0,0.0,
2025-08-14T22:13:45.309Z,2,GR86-047-21,-52.0,0.221,-0.835,100.0,2.0,5328.0,0.0,0.0,
2025-08-14T22:13:45.352Z,2,GR86-047-21,-50.1,0.205,-0.859,100.03,2.0,,0.0,0.0,90.35
2025-08-14T22:13:45.398Z,2,GR86-047-21,-49.2,0.212,-0.855,100.01,2.0,,0.0,0.0,
2025-08-14T22:13:45.440Z,2,GR86-047-21,-49.1,0.233,-0.896,100.01,2.0,,0.0,0.0,
2025-08-14T22:13:45.483Z,2,GR86-047-21,-49.1,0.219,-0.864,100.0,2.0,,0.0,0.0,
2025-08-14T22:13:45.526Z,2,GR86-047-21,-49.1,0.22,-0.92,99.99,2.0,5393.0,0.0,0.0,
2025-08-14T22:13:45.569Z,2,GR86-047-21,-49.1,0.215,-0.855,100.0,2.0,,0.0,0.0,91.78
2025-08-14T22:13:45.613Z,2,GR86-047-21,-49.1,0.227,-0.865,100.0,2.0,,0.0,0.0,
2025-08-14T22:13:45.657Z,2,GR86-047-21,-49.1,0.247,-0.758,99.99,2.0,,0.0,0.0,
2025-08-14T22:13:45.699Z,2,GR86-047-21,-49.1,0.238,-0.735,100.01,2.0,,0.0,0.0,
2025-08-14T22:13:45.743Z,2,GR86-047-21,-49.1,0.222,-0.727,100.0,2.0,5450.0,0.0,0.0,
2025-08-14T22:13:45.787Z,2,GR86-047-21,-49.1,0.194,-0.706,100.01,2.0,,0.0,0.0,93.5
2025-08-14T22:13:45.829Z,2,GR86-047-21,-49.1,0.207,-0.762,100.01,2.0,,0.0,0.0,
2025-08-14T22:13:45.873Z,2,GR86-047-21,-49.1,0.244,-0.7020000000000001,100.01,2.0,,0.0,0.0,
2025-08-14T22:13:45.916Z,2,GR86-047-21,-49.1,0.267,-0.6900000000000001,99.99,2.0,,0.0,0.0,
2025-08-14T22:13:45.959Z,2,GR86-047-21,-49.1,0.226,-0.6930000000000001,100.01,2.0,5568.0,0.0,0.0,
2025-08-14T22:13:46.002Z,2,GR86-047-21,-49.1,0.207,-0.728,100.02,2.0,,0.0,0.0,94.17
2025-08-14T22:13:46.046Z,2,GR86-047-21,-49.1,0.201,-0.767,100.0,2.0,,0.0,0.0,
2025-08-14T22:13:46.089Z,2,GR86-047-21,-49.1,0.216,-0.756,100.01,2.0,,0.0,0.0,
2025-08-14T22:13:46.132Z,2,GR86-047-21,-48.8,0.249,-0.789,99.99,2.0,,0.0,0.0,
2025-08-14T22:13:46.176Z,2,GR86-047-21,-48.2,0.231,-0.736,100.01,2.0,5670.0,0.0,0.0,
2025-08-14T22:13:46.219Z,2,GR86-047-21,-47.2,0.213,-0.806,100.0,2.0,,0.0,0.0,96.53
2025-08-14T22:13:46.261Z,2,GR86-047-21,-45.900000000000006,0.201,-0.748,100.0,2.0,,0.0,0.0,
2025-08-14T22:13:46.307Z,2,GR86-047-21,-43.7,0.222,-0.717,100.01,2.0,,0.0,0.0,
2025-08-14T22:13:46.349Z,2,GR86-047-21,-41.900000000000006,0.248,-0.711,100.0,2.0,,0.0,0.0,
2025-08-14T22:13:46.393Z,2,GR86-047-21,-40.0,0.226,-0.666,100.01,2.0,5738.0,0.0,0.0,
2025-08-14T22:13:46.479Z,2,GR86-047-21,-37.2,0.226,-0.679,100.03,2.0,,0.0,0.0,98.47
2025-08-14T22:13:46.523Z,2,GR86-047-21,-36.1,0.231,-0.685,100.01,2.0,,0.0,0.0,
2025-08-14T22:13:46.566Z,2,GR86-047-21,-34.9,0.246,-0.646,100.0,2.0,,0.0,0.0,
2025-08-14T22:13:46.609Z,2,GR86-047-21,-34.6,0.243,-0.582,100.01,2.0,5840.0,0.0,0.0,
2025-08-14T22:13:46.651Z,2,GR86-047-21,-34.2,0.227,-0.603,100.0,2.0,,0.0,0.0,99.08
2025-08-14T22:13:46.698Z,2,GR86-047-21,-33.5,0.231,-0.5670000000000001,100.01,2.0,,0.0,0.0,
2025-08-14T22:13:46.740Z,2,GR86-047-21,-32.7,0.222,-0.601,100.0,2.0,,0.0,0.0,
2025-08-14T22:13:46.783Z,2,GR86-047-21,-31.5,0.254,-0.5680000000000001,100.0,2.0,,0.0,0.0,
2025-08-14T22:13:46.826Z,2,GR86-047-21,-30.6,0.252,-0.541,100.0,2.0,5919.0,0.0,0.0,
2025-08-14T22:13:46.869Z,2,GR86-047-21,-30.4,0.219,-0.545,100.01,2.0,,0.0,0.0,100.92
2025-08-14T22:13:46.913Z,2,GR86-047-21,-30.1,0.242,-0.544,100.0,2.0,,0.0,0.0,
2025-08-14T22:13:46.957Z,2,GR86-047-21,-29.9,0.221,-0.536,100.0,2.0,,0.0,0.0,
2025-08-14T22:13:46.999Z,2,GR86-047-21,-29.6,0.23,-0.541,100.01,2.0,,0.0,0.0,
2025-08-14T22:13:47.043Z,2,GR86-047-21,-29.3,0.234,-0.484,100.01,2.0,6013.0,0.0,0.0,
2025-08-14T22:13:47.087Z,2,GR86-047-21,-28.6,0.158,-0.481,99.98,2.0,,0.0,0.0,104.46
2025-08-14T22:13:47.129Z,2,GR86-047-21,-28.4,-0.13,-0.45,100.01,3.0,,0.0,0.0,
2025-08-14T22:13:47.173Z,2,GR86-047-21,-28.200000000000003,-0.022,-0.446,100.01,3.0,,0.0,0.0,
2025-08-14T22:13:47.216Z,2,GR86-047-21,-27.1,0.548,-0.494,100.01,3.0,,0.0,0.0,
2025-08-14T22:13:47.259Z,2,GR86-047-21,-26.8,0.37,-0.481,100.02,3.0,6116.0,0.0,0.0,
2025-08-14T22:13:47.302Z,2,GR86-047-21,-26.8,0.224,-0.436,100.01,3.0,,0.0,0.0,105.75
2025-08-14T22:13:47.347Z,2,GR86-047-21,-26.8,0.051,-0.498,100.04,3.0,,0.0,0.0,
2025-08-14T22:13:47.389Z,2,GR86-047-21,-26.6,0.162,-0.45,100.03,3.0,,0.0,0.0,
2025-08-14T22:13:47.433Z,2,GR86-047-21,-26.200000000000003,0.23,-0.462,100.03,3.0,,0.0,0.0,
2025-08-14T22:13:47.476Z,2,GR86-047-21,-25.8,0.232,-0.442,100.03,3.0,5052.0,0.0,0.0,
2025-08-14T22:13:47.519Z,2,GR86-047-21,-25.8,0.179,-0.402,100.02,3.0,,0.0,0.0,107.34
2025-08-14T22:13:47.561Z,2,GR86-047-21,-25.4,0.142,-0.426,100.02,3.0,,0.0,0.0,
2025-08-14T22:13:47.607Z,2,GR86-047-21,-23.700000000000003,0.187,-0.401,100.03,3.0,,0.0,0.0,
2025-08-14T22:13:47.649Z,2,GR86-047-21,-22.0,0.208,-0.389,100.01,3.0,,0.0,0.0,
2025-08-14T22:13:47.693Z,2,GR86-047-21,-20.6,0.17,-0.382,100.01,3.0,5146.0,0.0,0.0,
2025-08-14T22:13:47.737Z,2,GR86-047-21,-19.4,0.195,-0.354,100.01,3.0,,0.0,0.0,108.67
2025-08-14T22:13:47.779Z,2,GR86-047-21,-18.4,0.189,-0.345,100.01,3.0,,0.0,0.0,
2025-08-14T22:13:47.823Z,2,GR86-047-21,-16.900000000000002,0.179,-0.334,100.0,3.0,,0.0,0.0,
2025-08-14T22:13:47.866Z,2,GR86-047-21,-13.6,0.201,-0.307,100.01,3.0,,0.0,0.0,
2025-08-14T22:13:47.909Z,2,GR86-047-21,-11.4,0.198,-0.287,99.68,3.0,5208.0,0.0,0.0,
2025-08-14T22:13:47.953Z,2,GR86-047-21,-9.8,0.184,-0.265,96.86,3.0,,0.0,0.0,110.12
2025-08-14T22:13:47.998Z,2,GR86-047-21,-8.3,0.209,-0.207,84.91,3.0,,0.0,0.0,
2025-08-14T22:13:48.083Z,2,GR86-047-21,-7.0,0.197,-0.147,70.79,3.0,,0.0,0.0,
2025-08-14T22:13:48.173Z,2,GR86-047-21,-6.6000000000000005,0.198,-0.099,50.13,3.0,5272.0,0.0,0.0,111.62
2025-08-14T22:13:48.216Z,2,GR86-047-21,-6.6000000000000005,0.181,-0.09,46.91,3.0,,0.0,0.0,
2025-08-14T22:13:48.259Z,2,GR86-047-21,-6.4,0.204,-0.059,39.66,3.0,,0.0,0.0,
2025-08-14T22:13:48.302Z,2,GR86-047-21,-6.1000000000000005,0.179,-0.068,30.1,3.0,,0.0,0.0,
2025-08-14T22:13:48.347Z,2,GR86-047-21,-5.2,0.134,-0.057,21.27,3.0,5331.0,0.0,0.0,
2025-08-14T22:13:48.389Z,2,GR86-047-21,-4.800000000000001,0.113,-0.04,21.12,3.0,,0.0,0.0,113.07
2025-08-14T22:13:48.432Z,2,GR86-047-21,-4.4,0.079,-0.034,4.14,3.0,,0.0,0.0,
2025-08-14T22:13:48.476Z,2,GR86-047-21,-3.6,0.039,-0.037,3.48,3.0,,0.0,0.0,
2025-08-14T22:13:48.519Z,2,GR86-047-21,-3.0,-0.001,-0.009,3.48,3.0,,0.0,0.0,
2025-08-14T22:13:48.563Z,2,GR86-047-21,-2.7,-0.086,0.007,3.42,3.0,5323.0,0.0,0.0,
2025-08-14T22:13:48.649Z,2,GR86-047-21,-2.6,-0.265,0.029,3.1,3.0,,0.0,0.0,114.51
2025-08-14T22:13:48.693Z,2,GR86-047-21,-2.6,-0.111,0.021,2.94,3.0,,0.0,0.0,
2025-08-14T22:13:48.737Z,2,GR86-047-21,-2.6,-0.072,-0.016,2.84,3.0,,0.0,0.0,
2025-08-14T22:13:48.779Z,2,GR86-047-21,-2.6,-0.091,0.039,2.74,3.0,5286.0,0.0,0.0,
2025-08-14T22:13:48.823Z,2,GR86-047-21,-2.6,-0.162,0.0,2.69,3.0,,0.0,0.0,115.12
2025-08-14T22:13:48.866Z,2,GR86-047-21,-2.6,-0.155,0.031,2.62,3.0,,0.0,0.0,
2025-08-14T22:13:48.909Z,2,GR86-047-21,-2.6,-0.135,0.018,2.57,3.0,,0.0,0.0,
2025-08-14T22:13:48.953Z,2,GR86-047-21,-2.5,-0.106,0.026,2.53,3.0,,0.0,0.0,
2025-08-14T22:13:48.998Z,2,GR86-047-21,-2.5,-0.145,0.026,2.5500000000000003,3.0,5220.0,0.0,0.0,
2025-08-14T22:13:49.040Z,2,GR86-047-21,-2.3000000000000003,-0.158,0.031,2.77,3.0,,0.0,0.0,114.3
2025-08-14T22:13:49.083Z,2,GR86-047-21,-2.2,-0.127,0.035,4.18,3.0,,0.0,0.0,
2025-08-14T22:13:49.169Z,2,GR86-047-21,-1.9,-0.131,0.034,20.2,3.0,,0.0,0.0,
2025-08-14T22:13:49.213Z,2,GR86-047-21,-1.7000000000000002,-0.066,0.043,20.58,3.0,5173.0,0.0,0.0,
2025-08-14T22:13:49.257Z,2,GR86-047-21,-1.6,-0.09,0.037,20.96,3.0,,0.0,0.0,113.38
2025-08-14T22:13:49.299Z,2,GR86-047-21,-1.6,-0.054,0.055,21.36,3.0,,0.0,0.0,
2025-08-14T22:13:49.342Z,2,GR86-047-21,-1.6,0.164,0.05,22.01,3.0,,0.0,0.0,
2025-08-14T22:13:49.387Z,2,GR86-047-21,-1.6,0.1,0.057,22.2,3.0,,0.0,0.0,
2025-08-14T22:13:49.429Z,2,GR86-047-21,-1.6,-0.029,0.069,22.62,3.0,5279.0,0.0,0.0,
2025-08-14T22:13:49.473Z,2,GR86-047-21,-1.6,0.001,0.078,22.67,3.0,,0.0,0.0,112.51
2025-08-14T22:13:49.516Z,2,GR86-047-21,-1.6,0.05,0.062,22.67,3.0,,0.0,0.0,
2025-08-14T22:13:49.559Z,2,GR86-047-21,-1.6,0.101,0.078,23.02,3.0,,0.0,0.0,
2025-08-14T22:13:49.602Z,2,GR86-047-21,-1.6,0.084,0.063,24.62,3.0,,0.0,0.0,
2025-08-14T22:13:49.646Z,2,GR86-047-21,-1.6,0.042,0.047,26.58,3.0,5190.0,0.0,0.0,
2025-08-14T22:13:49.689Z,2,GR86-047-21,-1.6,0.055,0.038,27.07,3.0,,0.0,0.0,112.5
2025-08-14T22:13:49.733Z,2,GR86-047-21,-1.6,0.117,0.051,27.94,3.0,,0.0,0.0,
2025-08-14T22:13:49.776Z,2,GR86-047-21,-1.6,0.097,0.039,28.86,3.0,,0.0,0.0,
2025-08-14T22:13:49.819Z,2,GR86-047-21,-1.5,0.096,0.029,29.41,3.0,,0.0,0.0,
2025-08-14T22:13:49.861Z,2,GR86-047-21,-1.6,0.116,0.027,29.4,3.0,5235.0,0.0,0.0,
2025-08-14T22:13:49.907Z,2,GR86-047-21,-1.6,0.124,0.03,29.42,3.0,,0.0,0.0,112.92
2025-08-14T22:13:49.949Z,2,GR86-047-21,-1.6,0.104,0.017,29.39,3.0,,0.0,0.0,
2025-08-14T22:13:49.993Z,2,GR86-047-21,-1.6,0.119,0.034,29.4,3.0,,0.0,0.0,
2025-08-14T22:13:50.036Z,2,GR86-047-21,-1.6,0.101,0.015,29.85,3.0,,0.0,0.0,
2025-08-14T22:13:50.079Z,2,GR86-047-21,-1.6,0.105,0.027,30.61,3.0,5279.0,0.0,0.0,
2025-08-14T22:13:50.121Z,2,GR86-047-21,-1.6,0.131,0.04,32.11,3.0,,0.0,0.0,113.56
2025-08-14T22:13:50.165Z,2,GR86-047-21,-1.5,0.127,0.029,34.97,3.0,,0.0,0.0,
2025-08-14T22:13:50.209Z,2,GR86-047-21,-1.5,0.109,0.004,35.77,3.0,,0.0,0.0,
2025-08-14T22:13:50.251Z,2,GR86-047-21,-1.5,0.147,0.013,35.81,3.0,,0.0,0.0,
2025-08-14T22:13:50.295Z,2,GR86-047-21,-1.5,0.149,0.016,35.78,3.0,5360.0,0.0,0.0,
2025-08-14T22:13:50.340Z,2,GR86-047-21,-1.6,0.137,0.006,35.76,3.0,,0.0,0.0,114.35
2025-08-14T22:13:50.383Z,2,GR86-047-21,-1.5,0.152,0.023,35.78,3.0,,0.0,0.0,
2025-08-14T22:13:50.426Z,2,GR86-047-21,-1.5,0.158,0.019,36.29,3.0,,0.0,0.0,
2025-08-14T22:13:50.469Z,2,GR86-047-21,-1.5,0.138,0.007,36.51,3.0,,0.0,0.0,
2025-08-14T22:13:50.512Z,2,GR86-047-21,-1.6,0.146,0.016,36.54,3.0,5406.0,0.0,0.0,
2025-08-14T22:13:50.557Z,2,GR86-047-21,-1.6,0.147,0.032,36.52,3.0,,0.0,0.0,115.24
2025-08-14T22:13:50.599Z,2,GR86-047-21,-1.6,0.129,0.013,36.54,3.0,,0.0,0.0,
2025-08-14T22:13:50.643Z,2,GR86-047-21,-1.5,0.156,0.032,36.56,3.0,,0.0,0.0,
2025-08-14T22:13:50.687Z,2,GR86-047-21,-1.5,0.151,0.023,36.65,3.0,,0.0,0.0,
2025-08-14T22:13:50.729Z,2,GR86-047-21,-1.5,0.138,0.022,36.65,3.0,5451.0,0.0,0.0,
2025-08-14T22:13:50.773Z,2,GR86-047-21,-1.6,0.139,0.007,36.68,3.0,,0.0,0.0,116.24
2025-08-14T22:13:50.816Z,2,GR86-047-21,-1.6,0.151,0.024,36.62,3.0,,0.0,0.0,
2025-08-14T22:13:50.859Z,2,GR86-047-21,-1.6,0.126,0.025,36.58,3.0,,0.0,0.0,
2025-08-14T22:13:50.902Z,2,GR86-047-21,-1.5,0.139,0.019,36.55,3.0,,0.0,0.0,
2025-08-14T22:13:50.947Z,2,GR86-047-21,-1.6,0.142,0.013,36.41,3.0,5499.0,0.0,0.0,
2025-08-14T22:13:50.989Z,2,GR86-047-21,-1.5,0.153,0.024,35.07,3.0,,0.0,0.0,117.33
2025-08-14T22:13:51.032Z,2,GR86-047-21,-1.5,0.123,0.017,34.2,3.0,,0.0,0.0,
2025-08-14T22:13:51.076Z,2,GR86-047-21,-1.5,0.145,0.017,34.12,3.0,,0.0,0.0,
2025-08-14T22:13:51.119Z,2,GR86-047-21,-1.6,0.144,0.035,34.11,3.0,,0.0,0.0,
2025-08-14T22:13:51.161Z,2,GR86-047-21,-1.5,0.11,0.012,34.36,3.0,5540.0,0.0,0.0,
2025-08-14T22:13:51.249Z,2,GR86-047-21,-1.6,0.111,0.019,35.75,3.0,,0.0,0.0,118.32
2025-08-14T22:13:51.293Z,2,GR86-047-21,-1.5,0.142,0.027,37.95,3.0,,0.0,0.0,
2025-08-14T22:13:51.337Z,2,GR86-047-21,-1.6,0.116,0.016,40.91,3.0,,0.0,0.0,
2025-08-14T22:13:51.380Z,2,GR86-047-21,-1.5,0.153,0.027,44.3,3.0,5581.0,0.0,0.0,
2025-08-14T22:13:51.423Z,2,GR86-047-21,-1.5,0.149,0.032,44.27,3.0,,0.0,0.0,119.29
2025-08-14T22:13:51.466Z,2,GR86-047-21,-1.6,0.157,0.033,43.76,3.0,,0.0,0.0,
2025-08-14T22:13:51.509Z,2,GR86-047-21,-1.6,0.128,0.02,43.0,3.0,,0.0,0.0,
2025-08-14T22:13:51.552Z,2,GR86-047-21,-1.6,0.137,0.034,42.57,3.0,,0.0,0.0,
2025-08-14T22:13:51.598Z,2,GR86-047-21,-1.6,0.139,0.025,42.07,3.0,5634.0,0.0,0.0,
2025-08-14T22:13:51.640Z,2,GR86-047-21,-1.5,0.151,0.018,40.04,3.0,,0.0,0.0,120.11
2025-08-14T22:13:51.683Z,2,GR86-047-21,-1.6,0.184,0.015,38.62,3.0,,0.0,0.0,
2025-08-14T22:13:51.729Z,2,GR86-047-21,-1.7000000000000002,0.157,0.01,38.15,3.0,,0.0,0.0,
2025-08-14T22:13:51.773Z,2,GR86-047-21,-1.8,0.132,0.004,35.92,3.0,,0.0,0.0,
2025-08-14T22:13:51.902Z,2,GR86-047-21,-2.0,0.158,-0.013,31.17,3.0,5687.0,0.0,0.0,121.05
2025-08-14T22:13:51.947Z,2,GR86-047-21,-2.2,0.107,-0.024,30.26,3.0,,0.0,0.0,
2025-08-14T22:13:51.989Z,2,GR86-047-21,-2.3000000000000003,0.073,-0.037,30.27,3.0,,0.0,0.0,
2025-08-14T22:13:52.032Z,2,GR86-047-21,-2.6,0.112,-0.038,30.33,3.0,5712.0,0.0,0.0,
2025-08-14T22:13:52.076Z,2,GR86-047-21,-2.9000000000000004,0.11,-0.048,30.46,3.0,,0.0,0.0,122.05
2025-08-14T22:13:52.119Z,2,GR86-047-21,-3.2,0.09,-0.059,30.86,3.0,,0.0,0.0,
2025-08-14T22:13:52.163Z,2,GR86-047-21,-3.3000000000000003,0.108,-0.067,31.38,3.0,,0.0,0.0,
2025-08-14T22:13:52.207Z,2,GR86-047-21,-3.5,0.107,-0.073,31.75,3.0,,0.0,0.0,
2025-08-14T22:13:52.249Z,2,GR86-047-21,-3.6,0.128,-0.085,31.96,3.0,5750.0,0.0,0.0,
2025-08-14T22:13:52.293Z,2,GR86-047-21,-3.9,0.094,-0.09,32.15,3.0,,0.0,0.0,123.65
2025-08-14T22:13:52.337Z,2,GR86-047-21,-4.4,0.11,-0.092,32.26,3.0,,0.0,0.0,
2025-08-14T22:13:52.379Z,2,GR86-047-21,-4.800000000000001,0.128,-0.106,32.31,3.0,,0.0,0.0,
2025-08-14T22:13:52.423Z,2,GR86-047-21,-5.1000000000000005,0.092,-0.119,32.32,3.0,,0.0,0.0,
2025-08-14T22:13:52.466Z,2,GR86-047-21,-5.6000000000000005,0.082,-0.132,32.42,3.0,5779.0,0.0,0.0,
2025-08-14T22:13:52.509Z,2,GR86-047-21,-5.7,0.098,-0.129,32.52,3.0,,0.0,0.0,124.37
2025-08-14T22:13:52.553Z,2,GR86-047-21,-5.7,0.14,-0.134,32.6,3.0,,0.0,0.0,
2025-08-14T22:13:52.598Z,2,GR86-047-21,-5.7,0.104,-0.137,32.660000000000004,3.0,,0.0,0.0,
2025-08-14T22:13:52.640Z,2,GR86-047-21,-5.7,0.095,-0.146,32.8,3.0,,0.0,0.0,
2025-08-14T22:13:52.683Z,2,GR86-047-21,-5.7,0.129,-0.151,31.47,3.0,5812.0,0.0,0.0,
2025-08-14T22:13:52.726Z,2,GR86-047-21,-5.7,-0.08,-0.129,29.8,4.0,,0.0,0.0,125.1
2025-08-14T22:13:52.769Z,2,GR86-047-21,-5.800000000000001,-0.042,-0.113,29.15,4.0,,0.0,0.0,
2025-08-14T22:13:52.812Z,2,GR86-047-21,-5.7,0.44,-0.151,27.99,4.0,,0.0,0.0,
2025-08-14T22:13:52.899Z,2,GR86-047-21,-5.800000000000001,0.024,-0.103,28.45,4.0,4839.0,0.0,0.0,
2025-08-14T22:13:52.943Z,2,GR86-047-21,-5.800000000000001,-0.066,-0.125,28.28,4.0,,0.0,0.0,125.65
2025-08-14T22:13:52.987Z,2,GR86-047-21,-5.800000000000001,0.144,-0.108,27.26,4.0,,0.0,0.0,
2025-08-14T22:13:53.029Z,2,GR86-047-21,-5.7,0.138,-0.088,27.84,4.0,,0.0,0.0,
2025-08-14T22:13:53.073Z,2,GR86-047-21,-5.7,0.068,-0.109,28.28,4.0,,0.0,0.0,
2025-08-14T22:13:53.116Z,2,GR86-047-21,-5.7,0.037,-0.086,28.32,4.0,4913.0,0.0,0.0,
2025-08-14T22:13:53.159Z,2,GR86-047-21,-5.7,0.094,-0.095,28.35,4.0,,0.0,0.0,126.44
2025-08-14T22:13:53.202Z,2,GR86-047-21,-5.7,0.131,-0.085,28.44,4.0,,0.0,0.0,
2025-08-14T22:13:53.246Z,2,GR86-047-21,-5.800000000000001,0.074,-0.078,28.54,4.0,,0.0,0.0,
2025-08-14T22:13:53.289Z,2,GR86-047-21,-5.7,0.093,-0.091,28.38,4.0,,0.0,0.0,
2025-08-14T22:13:53.332Z,2,GR86-047-21,-5.800000000000001,0.082,-0.084,28.19,4.0,4988.0,0.0,0.0,
2025-08-14T22:13:53.376Z,2,GR86-047-21,-5.800000000000001,0.091,-0.064,28.03,4.0,,0.0,0.0,127.05
2025-08-14T22:13:53.419Z,2,GR86-047-21,-5.7,0.099,-0.083,27.96,4.0,,0.0,0.0,
2025-08-14T22:13:53.461Z,2,GR86-047-21,-5.7,0.056,-0.076,27.9,4.0,,0.0,0.0,
2025-08-14T22:13:53.507Z,2,GR86-047-21,-5.7,0.079,-0.075,27.41,4.0,,0.0,0.0,
2025-08-14T22:13:53.549Z,2,GR86-047-21,-5.7,0.081,-0.074,27.29,4.0,5019.0,0.0,0.0,
2025-08-14T22:13:53.593Z,2,GR86-047-21,-5.800000000000001,0.095,-0.057,27.19,4.0,,0.0,0.0,127.69
2025-08-14T22:13:53.636Z,2,GR86-047-21,-5.7,0.084,-0.067,27.2,4.0,,0.0,0.0,
2025-08-14T22:13:53.679Z,2,GR86-047-21,-5.800000000000001,0.058,-0.067,27.23,4.0,,0.0,0.0,
2025-08-14T22:13:53.723Z,2,GR86-047-21,-5.7,0.08,-0.068,27.38,4.0,,0.0,0.0,
2025-08-14T22:13:53.766Z,2,GR86-047-21,-5.800000000000001,0.066,-0.072,27.55,4.0,5043.0,0.0,0.0,
2025-08-14T22:13:53.809Z,2,GR86-047-21,-5.7,0.102,-0.073,27.63,4.0,,0.0,0.0,128.28
2025-08-14T22:13:53.853Z,2,GR86-047-21,-5.7,0.074,-0.077,27.83,4.0,,0.0,0.0,
2025-08-14T22:13:53.940Z,2,GR86-047-21,-5.7,0.093,-0.075,28.04,4.0,,0.0,0.0,
2025-08-14T22:13:54.026Z,2,GR86-047-21,-5.800000000000001,0.088,-0.084,27.96,4.0,5063.0,0.0,0.0,128.94
2025-08-14T22:13:54.069Z,2,GR86-047-21,-5.800000000000001,0.068,-0.082,27.88,4.0,,0.0,0.0,
2025-08-14T22:13:54.113Z,2,GR86-047-21,-5.7,0.066,-0.067,27.82,4.0,,0.0,0.0,
2025-08-14T22:13:54.199Z,2,GR86-047-21,-5.7,0.092,-0.076,27.69,4.0,5084.0,0.0,0.0,
2025-08-14T22:13:54.243Z,2,GR86-047-21,-5.7,0.062,-0.082,21.86,4.0,,0.0,0.0,129.46
2025-08-14T22:13:54.287Z,2,GR86-047-21,-5.7,0.045,-0.091,3.53,4.0,,0.0,0.0,
2025-08-14T22:13:54.329Z,2,GR86-047-21,-5.7,0.024,-0.082,3.87,4.0,,0.0,0.0,
2025-08-14T22:13:54.373Z,2,GR86-047-21,-5.7,-0.089,-0.079,3.8,4.0,,0.0,0.0,
2025-08-14T22:13:54.459Z,2,GR86-047-21,-5.7,-0.332,-0.101,3.51,4.0,,0.0,0.0,130.01
2025-08-14T22:13:54.502Z,2,GR86-047-21,-5.7,-0.098,-0.087,3.67,4.0,5096.0,0.0,0.0,
2025-08-14T22:13:54.547Z,2,GR86-047-21,-5.800000000000001,-0.059,-0.121,2.94,4.0,,0.0,0.0,
2025-08-14T22:13:54.589Z,2,GR86-047-21,-5.7,-0.099,-0.093,2.77,4.0,,0.0,0.0,
2025-08-14T22:13:54.632Z,2,GR86-047-21,-5.7,-0.175,-0.113,2.68,4.0,4960.0,0.0,0.0,
2025-08-14T22:13:54.676Z,2,GR86-047-21,-5.800000000000001,-0.155,-0.093,2.6,4.0,,0.0,0.0,130.37
2025-08-14T22:13:54.719Z,2,GR86-047-21,-5.7,-0.101,-0.087,2.56,4.0,,0.0,0.0,
2025-08-14T22:13:54.761Z,2,GR86-047-21,-5.7,-0.14,-0.104,2.52,4.0,,0.0,0.0,
2025-08-14T22:13:54.807Z,2,GR86-047-21,-5.7,-0.146,-0.097,2.49,4.0,,0.0,0.0,
2025-08-14T22:13:54.849Z,2,GR86-047-21,-5.7,-0.149,-0.089,2.49,4.0,4987.0,0.0,0.0,
2025-08-14T22:13:54.893Z,2,GR86-047-21,-5.7,-0.112,-0.078,2.48,4.0,,0.0,0.0,128.7
2025-08-14T22:13:54.937Z,2,GR86-047-21,-5.7,-0.129,-0.079,2.47,4.0,,0.0,0.0,
2025-08-14T22:13:54.979Z,2,GR86-047-21,-5.800000000000001,-0.168,-0.086,2.48,4.0,,0.0,0.0,
2025-08-14T22:13:55.023Z,2,GR86-047-21,-5.7,-0.139,-0.071,2.47,4.0,,0.0,0.0,
2025-08-14T22:13:55.067Z,2,GR86-047-21,-5.7,-0.129,-0.074,2.46,4.0,4959.0,0.0,0.0,
2025-08-14T22:13:55.109Z,2,GR86-047-21,-5.800000000000001,-0.112,-0.062,2.46,4.0,,0.0,0.0,127.82
2025-08-14T22:13:55.153Z,2,GR86-047-21,-5.800000000000001,-0.138,-0.064,2.46,4.0,,0.0,0.0,
2025-08-14T22:13:55.198Z,2,GR86-047-21,-5.7,-0.147,-0.058,2.47,4.0,,0.0,0.0,
2025-08-14T22:13:55.240Z,2,GR86-047-21,-5.7,-0.133,-0.054,2.46,4.0,,0.0,0.0,
2025-08-14T22:13:55.283Z,2,GR86-047-21,-5.7,-0.14,-0.057,2.46,4.0,4927.0,0.0,0.0,
2025-08-14T22:13:55.329Z,2,GR86-047-21,-5.7,-0.124,-0.055,2.49,4.0,,0.0,0.0,126.91
2025-08-14T22:13:55.373Z,2,GR86-047-21,-5.800000000000001,-0.141,-0.062,2.48,4.0,,0.0,0.0,
2025-08-14T22:13:55.416Z,2,GR86-047-21,-5.7,-0.125,-0.052,2.47,4.0,,0.0,0.0,
2025-08-14T22:13:55.459Z,2,GR86-047-21,-5.7,-0.127,-0.057,2.46,4.0,,0.0,0.0,
2025-08-14T22:13:55.502Z,2,GR86-047-21,-5.7,-0.149,-0.057,2.47,4.0,4848.0,0.0,0.0,
2025-08-14T22:13:55.547Z,2,GR86-047-21,-5.800000000000001,-0.197,-0.043,2.48,4.0,,3.1,3.22,126.02
2025-08-14T22:13:55.589Z,2,GR86-047-21,-5.800000000000001,-0.177,-0.034,2.46,4.0,,3.875,3.875,
2025-08-14T22:13:55.632Z,2,GR86-047-21,-5.7,-0.153,-0.051,2.46,4.0,,5.22,5.05,
2025-08-14T22:13:55.676Z,2,GR86-047-21,-5.7,-0.309,-0.041,2.48,4.0,,7.98,7.92,
2025-08-14T22:13:55.719Z,2,GR86-047-21,-5.7,-0.298,-0.025,2.46,4.0,4798.0,10.025,9.935,
2025-08-14T22:13:55.763Z,2,GR86-047-21,-5.7,-0.245,-0.056,2.46,4.0,,11.46,11.185,124.88
2025-08-14T22:13:55.807Z,2,GR86-047-21,-5.7,-0.295,-0.064,2.48,4.0,,13.915,13.855,
2025-08-14T22:13:55.849Z,2,GR86-047-21,-5.800000000000001,-0.46,-0.056,2.48,4.0,,14.88,14.91,
2025-08-14T22:13:55.893Z,2,GR86-047-21,-5.7,-0.392,-0.021,2.46,4.0,,15.87,15.75,
2025-08-14T22:13:55.937Z,2,GR86-047-21,-5.7,-0.346,-0.057,2.48,4.0,4709.0,16.315,16.375,
2025-08-14T22:13:55.979Z,2,GR86-047-21,-5.7,-0.501,-0.047,2.49,4.0,,17.12,17.09,122.86
2025-08-14T22:13:56.023Z,2,GR86-047-21,-5.7,-0.416,-0.028,2.48,4.0,,17.990000000000002,17.81,
2025-08-14T22:13:56.066Z,2,GR86-047-21,-5.7,-0.396,-0.029,2.49,4.0,,17.96,17.990000000000002,
2025-08-14T22:13:56.109Z,2,GR86-047-21,-5.7,-0.408,-0.056,2.48,4.0,,17.685,17.81,
2025-08-14T22:13:56.152Z,2,GR86-047-21,-5.7,-0.505,-0.041,2.49,4.0,4603.0,17.715,17.84,
2025-08-14T22:13:56.198Z,2,GR86-047-21,-5.800000000000001,-0.378,-0.032,2.49,4.0,,17.900000000000002,17.84,120.23
2025-08-14T22:13:56.240Z,2,GR86-047-21,-5.800000000000001,-0.466,-0.055,2.48,4.0,,17.61,17.78,
2025-08-14T22:13:56.283Z,2,GR86-047-21,-5.7,-0.476,-0.043,2.49,4.0,,17.655,17.84,
2025-08-14T22:13:56.326Z,2,GR86-047-21,-5.7,-0.458,-0.041,2.49,4.0,,17.81,17.81,
2025-08-14T22:13:56.369Z,2,GR86-047-21,-5.800000000000001,-0.377,-0.059,2.49,4.0,4483.0,17.61,17.81,
2025-08-14T22:13:56.412Z,2,GR86-047-21,-5.800000000000001,-0.513,-0.05,2.49,4.0,,17.395,17.55,117.19
2025-08-14T22:13:56.457Z,2,GR86-047-21,-5.7,-0.396,-0.04,2.49,4.0,,17.61,17.81,
2025-08-14T22:13:56.499Z,2,GR86-047-21,-5.7,-0.415,-0.056,2.49,4.0,,17.09,17.455000000000002,
2025-08-14T22:13:56.543Z,2,GR86-047-21,-5.7,-0.51,-0.053,2.49,4.0,,17.305,17.455000000000002,
2025-08-14T22:13:56.587Z,2,GR86-047-21,-5.7,-0.463,-0.048,2.49,4.0,4368.0,17.185,17.365000000000002,
2025-08-14T22:13:56.629Z,2,GR86-047-21,-5.7,-0.337,-0.072,2.48,4.0,,15.72,16.435,114.33
2025-08-14T22:13:56.673Z,2,GR86-047-21,-5.7,-0.465,-0.054,2.49,4.0,,13.305,14.42,
2025-08-14T22:13:56.716Z,2,GR86-047-21,-5.7,-0.299,-0.054,2.48,4.0,,10.955,11.705,
2025-08-14T22:13:56.759Z,2,GR86-047-21,-5.7,-0.326,-0.079,2.49,4.0,,8.395,9.34,
2025-08-14T22:13:56.802Z,2,GR86-047-21,-5.7,-0.319,-0.038,2.49,4.0,4258.0,6.455,7.235,
2025-08-14T22:13:56.846Z,2,GR86-047-21,-5.7,-0.206,-0.033,2.49,4.0,,3.495,4.0600000000000005,111.47
2025-08-14T22:13:56.889Z,2,GR86-047-21,-5.7,-0.126,-0.068,2.49,4.0,,0.0,0.0,
2025-08-14T22:13:56.932Z,2,GR86-047-21,-5.7,-0.173,-0.055,2.49,4.0,,0.0,0.0,
2025-08-14T22:13:56.976Z,2,GR86-047-21,-5.7,-0.094,-0.068,2.49,4.0,,0.0,0.0,
2025-08-14T22:13:57.019Z,2,GR86-047-21,-5.800000000000001,-0.124,-0.053,2.75,4.0,4206.0,0.0,0.0,
2025-08-14T22:13:57.061Z,2,GR86-047-21,-5.7,-0.121,-0.072,3.58,4.0,,0.0,0.0,109.23
2025-08-14T22:13:57.107Z,2,GR86-047-21,-5.800000000000001,-0.101,-0.072,6.45,4.0,,0.0,0.0,
2025-08-14T22:13:57.149Z,2,GR86-047-21,-6.5,-0.112,-0.079,18.02,4.0,,0.0,0.0,
2025-08-14T22:13:57.193Z,2,GR86-047-21,-7.2,-0.142,-0.095,20.78,4.0,,0.0,0.0,
2025-08-14T22:13:57.236Z,2,GR86-047-21,-7.5,-0.06,-0.115,20.95,4.0,4185.0,0.0,0.0,
2025-08-14T22:13:57.279Z,2,GR86-047-21,-7.6,-0.106,-0.121,21.22,4.0,,0.0,0.0,108.51
2025-08-14T22:13:57.321Z,2,GR86-047-21,-7.6,-0.033,-0.13,22.03,4.0,,0.0,0.0,
2025-08-14T22:13:57.366Z,2,GR86-047-21,-7.6,0.035,-0.155,23.17,4.0,,0.0,0.0,
2025-08-14T22:13:57.409Z,2,GR86-047-21,-7.6,0.23,-0.131,23.36,4.0,,0.0,0.0,
2025-08-14T22:13:57.453Z,2,GR86-047-21,-7.6,0.082,-0.161,26.35,4.0,4194.0,0.0,0.0,
2025-08-14T22:13:57.498Z,2,GR86-047-21,-7.6,-0.038,-0.136,31.59,4.0,,0.0,0.0,107.43
2025-08-14T22:13:57.540Z,2,GR86-047-21,-7.6,-0.006,-0.144,33.77,4.0,,0.0,0.0,
2025-08-14T22:13:57.583Z,2,GR86-047-21,-7.6,0.162,-0.165,35.4,4.0,,0.0,0.0,
2025-08-14T22:13:57.626Z,2,GR86-047-21,-7.6,0.137,-0.135,53.06,4.0,,0.0,0.0,
2025-08-14T22:13:57.669Z,2,GR86-047-21,-7.6,0.049,-0.122,72.13,4.0,4101.0,0.0,0.0,
2025-08-14T22:13:57.713Z,2,GR86-047-21,-7.6,0.118,-0.123,90.48,4.0,,0.0,0.0,107.95
2025-08-14T22:13:57.757Z,2,GR86-047-21,-7.6,0.155,-0.112,100.09,4.0,,0.0,0.0,
2025-08-14T22:13:57.799Z,2,GR86-047-21,-7.6,0.182,-0.095,100.02,4.0,,0.0,0.0,
2025-08-14T22:13:57.843Z,2,GR86-047-21,-7.6,0.161,-0.11,100.01,4.0,,0.0,0.0,
2025-08-14T22:13:57.887Z,2,GR86-047-21,-7.6,0.141,-0.098,100.0,4.0,4289.0,0.0,0.0,
2025-08-14T22:13:57.930Z,2,GR86-047-21,-7.6,0.144,-0.102,100.0,4.0,,0.0,0.0,108.8
2025-08-14T22:13:57.973Z,2,GR86-047-21,-7.6,0.197,-0.104,100.02,4.0,,0.0,0.0,
2025-08-14T22:13:58.017Z,2,GR86-047-21,-7.6,0.141,-0.1,100.01,4.0,,0.0,0.0,
2025-08-14T22:13:58.059Z,2,GR86-047-21,-7.6,0.15,-0.098,100.0,4.0,,0.0,0.0,
2025-08-14T22:13:58.103Z,2,GR86-047-21,-7.6,0.153,-0.098,100.01,4.0,4351.0,0.0,0.0,
2025-08-14T22:13:58.147Z,2,GR86-047-21,-7.6,0.165,-0.102,100.01,4.0,,0.0,0.0,109.94
2025-08-14T22:13:58.189Z,2,GR86-047-21,-7.6,0.16,-0.102,100.01,4.0,,0.0,0.0,
2025-08-14T22:13:58.232Z,2,GR86-047-21,-7.6,0.172,-0.112,100.03,4.0,,0.0,0.0,
2025-08-14T22:13:58.276Z,2,GR86-047-21,-7.6,0.135,-0.103,100.02,4.0,,0.0,0.0,
2025-08-14T22:13:58.319Z,2,GR86-047-21,-7.6,0.187,-0.104,100.01,4.0,4404.0,0.0,0.0,
2025-08-14T22:13:58.361Z,2,GR86-047-21,-7.6,0.166,-0.106,100.01,4.0,,0.0,0.0,111.14
2025-08-14T22:13:58.407Z,2,GR86-047-21,-7.6,0.147,-0.106,100.01,4.0,,0.0,0.0,
2025-08-14T22:13:58.449Z,2,GR86-047-21,-7.6,0.159,-0.099,100.0,4.0,,0.0,0.0,
2025-08-14T22:13:58.493Z,2,GR86-047-21,-7.6,0.184,-0.097,99.99,4.0,,0.0,0.0,
2025-08-14T22:13:58.536Z,2,GR86-047-21,-7.6,0.149,-0.094,100.0,4.0,4463.0,0.0,0.0,
2025-08-14T22:13:58.579Z,2,GR86-047-21,-7.6,0.178,-0.085,99.99,4.0,,0.0,0.0,112.42
2025-08-14T22:13:58.623Z,2,GR86-047-21,-7.6,0.173,-0.09,100.01,4.0,,0.0,0.0,
2025-08-14T22:13:58.666Z,2,GR86-047-21,-7.5,0.174,-0.09,100.01,4.0,,0.0,0.0,
2025-08-14T22:13:58.709Z,2,GR86-047-21,-7.5,0.152,-0.081,100.0,4.0,,0.0,0.0,
2025-08-14T22:13:58.753Z,2,GR86-047-21,-7.4,0.192,-0.091,100.0,4.0,4514.0,0.0,0.0,
2025-08-14T22:13:58.798Z,2,GR86-047-21,-7.4,0.161,-0.083,100.0,4.0,,0.0,0.0,113.78
2025-08-14T22:13:58.840Z,2,GR86-047-21,-7.2,0.17,-0.075,100.01,4.0,,0.0,0.0,
2025-08-14T22:13:58.883Z,2,GR86-047-21,-7.0,0.192,-0.078,100.02,4.0,,0.0,0.0,
2025-08-14T22:13:58.929Z,2,GR86-047-21,-6.9,0.174,-0.071,100.01,4.0,,0.0,0.0,
2025-08-14T22:13:58.973Z,2,GR86-047-21,-6.9,0.155,-0.073,100.0,4.0,4566.0,0.0,0.0,
2025-08-14T22:13:59.016Z,2,GR86-047-21,-6.9,0.187,-0.054,100.0,4.0,,0.0,0.0,115.16
2025-08-14T22:13:59.059Z,2,GR86-047-21,-6.9,0.172,-0.062,100.0,4.0,,0.0,0.0,
2025-08-14T22:13:59.102Z,2,GR86-047-21,-6.9,0.165,-0.062,100.01,4.0,,0.0,0.0,
2025-08-14T22:13:59.147Z,2,GR86-047-21,-6.800000000000001,0.164,-0.05,100.0,4.0,,0.0,0.0,
2025-08-14T22:13:59.189Z,2,GR86-047-21,-6.6000000000000005,0.186,-0.042,100.0,4.0,4624.0,0.0,0.0,
2025-08-14T22:13:59.232Z,2,GR86-047-21,-5.800000000000001,0.156,-0.053,99.99,4.0,,0.0,0.0,116.53
2025-08-14T22:13:59.276Z,2,GR86-047-21,-5.1000000000000005,0.178,-0.043,100.0,4.0,,0.0,0.0,
2025-08-14T22:13:59.319Z,2,GR86-047-21,-4.2,0.189,-0.037,100.01,4.0,,0.0,0.0,
2025-08-14T22:13:59.363Z,2,GR86-047-21,-3.5,0.148,-0.039,100.01,4.0,,0.0,0.0,
2025-08-14T22:13:59.407Z,2,GR86-047-21,-3.3000000000000003,0.16,-0.033,100.01,4.0,4678.0,0.0,0.0,
2025-08-14T22:13:59.449Z,2,GR86-047-21,-3.3000000000000003,0.176,-0.008,100.03,4.0,,0.0,0.0,117.89
2025-08-14T22:13:59.493Z,2,GR86-047-21,-3.3000000000000003,0.186,-0.006,100.0,4.0,,0.0,0.0,
2025-08-14T22:13:59.537Z,2,GR86-047-21,-3.3000000000000003,0.151,-0.009,100.0,4.0,,0.0,0.0,
2025-08-14T22:13:59.579Z,2,GR86-047-21,-3.3000000000000003,0.169,-0.008,100.01,4.0,,0.0,0.0,
2025-08-14T22:13:59.623Z,2,GR86-047-21,-3.3000000000000003,0.169,0.003,100.0,4.0,4725.0,0.0,0.0,
2025-08-14T22:13:59.666Z,2,GR86-047-21,-3.3000000000000003,0.171,0.002,100.02,4.0,,0.0,0.0,119.17
2025-08-14T22:13:59.709Z,2,GR86-047-21,-3.3000000000000003,0.148,0.001,100.0,4.0,,0.0,0.0,
2025-08-14T22:13:59.753Z,2,GR86-047-21,-3.3000000000000003,0.176,-0.001,100.01,4.0,,0.0,0.0,
2025-08-14T22:13:59.798Z,2,GR86-047-21,-3.3000000000000003,0.168,0.005,100.01,4.0,,0.0,0.0,
2025-08-14T22:13:59.840Z,2,GR86-047-21,-3.3000000000000003,0.156,-0.006,100.0,4.0,4769.0,0.0,0.0,
2025-08-14T22:13:59.883Z,2,GR86-047-21,-3.3000000000000003,0.167,0.0,100.02,4.0,,0.0,0.0,120.46
2025-08-14T22:13:59.926Z,2,GR86-047-21,-3.3000000000000003,0.167,-0.01,100.01,4.0,,0.0,0.0,
2025-08-14T22:13:59.969Z,2,GR86-047-21,-3.3000000000000003,0.172,-0.004,100.0,4.0,,0.0,0.0,
2025-08-14T22:14:00.013Z,2,GR86-047-21,-3.3000000000000003,0.156,-0.016,100.01,4.0,,0.0,0.0,
2025-08-14T22:14:00.057Z,2,GR86-047-21,-3.3000000000000003,0.171,-0.005,100.0,4.0,4820.0,0.0,0.0,
2025-08-14T22:14:00.099Z,2,GR86-047-21,-3.3000000000000003,0.161,-0.001,95.33,4.0,,3.19,3.495,123.15
2025-08-14T22:14:00.142Z,2,GR86-047-21,-3.3000000000000003,0.085,-0.011,35.79,4.0,,16.435,16.435,
2025-08-14T22:14:00.187Z,2,GR86-047-21,-3.3000000000000003,-0.544,0.001,7.41,4.0,,54.645,53.9,
2025-08-14T22:14:00.229Z,2,GR86-047-21,-3.3000000000000003,-0.846,0.017,4.79,4.0,,79.625,78.545,
2025-08-14T22:14:00.273Z,2,GR86-047-21,-3.0,-0.856,0.014,4.57,4.0,4865.0,98.12,97.16,
2025-08-14T22:14:00.316Z,2,GR86-047-21,-1.9,-1.065,0.035,4.28,4.0,,112.68,113.61,122.71
2025-08-14T22:14:00.359Z,2,GR86-047-21,-1.2000000000000002,-0.8140000000000001,-0.044,3.89,4.0,,114.235,116.22,
2025-08-14T22:14:00.402Z,2,GR86-047-21,-1.2000000000000002,-1.245,0.152,3.48,4.0,,109.87,111.125,
2025-08-14T22:14:00.446Z,2,GR86-047-21,-1.2000000000000002,-1.101,0.046,2.98,4.0,,111.84,112.71,
2025-08-14T22:14:00.489Z,2,GR86-047-21,1.3,-0.873,-0.042,2.78,4.0,4424.0,100.06,101.495,
2025-08-14T22:14:00.532Z,2,GR86-047-21,2.1,-1.071,0.041,2.7,4.0,,71.735,73.57000000000001,109.92
2025-08-14T22:14:00.576Z,2,GR86-047-21,2.1,-0.966,-0.006,2.65,4.0,,44.91,46.345,
2025-08-14T22:14:00.619Z,2,GR86-047-21,1.3,-0.675,0.019,2.6,4.0,,24.49,25.515,
2025-08-14T22:14:00.661Z,2,GR86-047-21,0.4,-0.54,-0.03,2.56,4.0,,9.49,10.27,
2025-08-14T22:14:00.707Z,2,GR86-047-21,0.2,-0.125,-0.083,2.52,4.0,4155.0,0.0,0.0,
2025-08-14T22:14:00.749Z,2,GR86-047-21,0.2,-0.08,0.01,2.49,4.0,,0.0,0.0,107.7
2025-08-14T22:14:00.793Z,2,GR86-047-21,0.2,-0.075,-0.008,2.87,4.0,,0.0,0.0,
2025-08-14T22:14:00.836Z,2,GR86-047-21,0.2,-0.15,0.0,8.66,4.0,,0.0,0.0,
2025-08-14T22:14:00.879Z,2,GR86-047-21,0.2,-0.152,0.021,19.82,4.0,,0.0,0.0,
2025-08-14T22:14:00.921Z,2,GR86-047-21,0.2,-0.105,0.022,23.08,4.0,4195.0,0.0,0.0,
2025-08-14T22:14:00.966Z,2,GR86-047-21,0.2,-0.079,0.005,27.11,4.0,,0.0,0.0,108.99
2025-08-14T22:14:01.009Z,2,GR86-047-21,0.2,-0.081,0.044,31.7,4.0,,0.0,0.0,
2025-08-14T22:14:01.052Z,2,GR86-047-21,0.1,0.136,0.004,33.65,4.0,,0.0,0.0,
2025-08-14T22:14:01.098Z,2,GR86-047-21,-0.6000000000000001,0.193,0.001,34.75,4.0,,0.0,0.0,
2025-08-14T22:14:01.140Z,2,GR86-047-21,-1.3,0.077,0.024,43.52,4.0,4395.0,0.0,0.0,
2025-08-14T22:14:01.183Z,2,GR86-047-21,-1.9,0.02,-0.013,50.64,4.0,,0.0,0.0,108.41
2025-08-14T22:14:01.226Z,2,GR86-047-21,-2.4000000000000004,0.154,-0.02,50.35,4.0,,0.0,0.0,
2025-08-14T22:14:01.269Z,2,GR86-047-21,-2.5,0.169,0.0,53.93,4.0,,0.0,0.0,
2025-08-14T22:14:01.312Z,2,GR86-047-21,-2.5,0.133,-0.031,59.29,4.0,,0.0,0.0,
2025-08-14T22:14:01.357Z,2,GR86-047-21,-2.5,0.098,-0.023,64.06,4.0,4324.0,0.0,0.0,
2025-08-14T22:14:01.399Z,2,GR86-047-21,-2.5,0.151,-0.029,68.19,4.0,,0.0,0.0,108.67
2025-08-14T22:14:01.443Z,2,GR86-047-21,-2.5,0.178,-0.047,77.67,4.0,,0.0,0.0,
2025-08-14T22:14:01.487Z,2,GR86-047-21,-2.5,0.147,-0.054,100.13,4.0,,0.0,0.0,
2025-08-14T22:14:01.529Z,2,GR86-047-21,-2.6,0.127,-0.035,100.0,4.0,,0.0,0.0,
2025-08-14T22:14:01.573Z,2,GR86-047-21,-2.8000000000000003,0.154,-0.06,99.98,4.0,4335.0,0.0,0.0,
2025-08-14T22:14:01.616Z,2,GR86-047-21,-2.9000000000000004,0.162,-0.045,99.99,4.0,,0.0,0.0,109.58
2025-08-14T22:14:01.659Z,2,GR86-047-21,-2.9000000000000004,0.16,-0.046,99.98,4.0,,0.0,0.0,
2025-08-14T22:14:01.702Z,2,GR86-047-21,-3.0,0.149,-0.059,99.97,4.0,,0.0,0.0,
2025-08-14T22:14:01.747Z,2,GR86-047-21,-3.0,0.161,-0.053,99.97,4.0,,0.0,0.0,
2025-08-14T22:14:01.789Z,2,GR86-047-21,-3.0,0.155,-0.044,99.97,4.0,4378.0,0.0,0.0,
2025-08-14T22:14:01.832Z,2,GR86-047-21,-3.0,0.165,-0.058,99.98,4.0,,0.0,0.0,110.75
2025-08-14T22:14:01.876Z,2,GR86-047-21,-3.0,0.151,-0.049,99.97,4.0,,0.0,0.0,
2025-08-14T22:14:01.919Z,2,GR86-047-21,-3.0,0.161,-0.055,99.98,4.0,,0.0,0.0,
2025-08-14T22:14:01.961Z,2,GR86-047-21,-3.0,0.175,-0.071,100.01,4.0,,0.0,0.0,
2025-08-14T22:14:02.007Z,2,GR86-047-21,-3.0,0.17,-0.066,99.98,4.0,4432.0,0.0,0.0,
2025-08-14T22:14:02.049Z,2,GR86-047-21,-3.0,0.157,-0.046,100.01,4.0,,0.0,0.0,111.96
2025-08-14T22:14:02.093Z,2,GR86-047-21,-3.0,0.168,-0.063,99.99,4.0,,0.0,0.0,
2025-08-14T22:14:02.137Z,2,GR86-047-21,-3.0,0.167,-0.053,99.99,4.0,,0.0,0.0,
2025-08-14T22:14:02.179Z,2,GR86-047-21,-3.0,0.167,-0.053,99.99,4.0,,0.0,0.0,
2025-08-14T22:14:02.223Z,2,GR86-047-21,-3.0,0.162,-0.073,99.98,4.0,4485.0,0.0,0.0,
2025-08-14T22:14:02.266Z,2,GR86-047-21,-3.0,0.167,-0.06,99.99,4.0,,0.0,0.0,113.2
2025-08-14T22:14:02.309Z,2,GR86-047-21,-3.0,0.165,-0.045,99.98,4.0,,0.0,0.0,
2025-08-14T22:14:02.353Z,2,GR86-047-21,-3.0,0.168,-0.061,99.97,4.0,,0.0,0.0,
2025-08-14T22:14:02.398Z,2,GR86-047-21,-3.0,0.159,-0.061,98.87,4.0,,0.0,0.0,
2025-08-14T22:14:02.483Z,2,GR86-047-21,-3.0,0.177,-0.063,55.05,4.0,4539.0,0.0,0.0,114.47
2025-08-14T22:14:02.529Z,2,GR86-047-21,-3.0,0.161,-0.061,53.88,4.0,,0.0,0.0,
2025-08-14T22:14:02.616Z,2,GR86-047-21,-3.0,0.152,-0.04,53.58,4.0,,0.0,0.0,
2025-08-14T22:14:02.658Z,2,GR86-047-21,-3.0,0.158,-0.049,44.85,4.0,4595.0,0.0,0.0,
2025-08-14T22:14:02.702Z,2,GR86-047-21,-3.0,0.16,-0.042,41.32,4.0,,0.0,0.0,117.09
2025-08-14T22:14:02.747Z,2,GR86-047-21,-3.0,0.135,-0.036,38.8,4.0,,0.0,0.0,
2025-08-14T22:14:02.789Z,2,GR86-047-21,-3.0,0.131,-0.046,35.300000000000004,4.0,,0.0,0.0,
2025-08-14T22:14:02.832Z,2,GR86-047-21,-3.0,0.122,-0.047,29.02,4.0,,0.0,0.0,
2025-08-14T22:14:02.876Z,2,GR86-047-21,-3.0,0.12,-0.038,24.9,4.0,4643.0,0.0,0.0,
2025-08-14T22:14:02.919Z,2,GR86-047-21,-3.0,0.103,-0.05,21.51,4.0,,0.0,0.0,118.35
2025-08-14T22:14:02.963Z,2,GR86-047-21,-3.0,0.071,-0.05,18.46,4.0,,0.0,0.0,
2025-08-14T22:14:03.007Z,2,GR86-047-21,-3.0,0.044,-0.038,3.77,4.0,,0.0,0.0,
2025-08-14T22:14:03.049Z,2,GR86-047-21,-3.0,0.025,-0.022,3.65,4.0,,0.0,0.0,
2025-08-14T22:14:03.093Z,2,GR86-047-21,-3.0,-0.107,-0.019,3.58,4.0,4585.0,0.0,0.0,
2025-08-14T22:14:03.137Z,2,GR86-047-21,-3.0,-0.1,-0.009,3.48,4.0,,0.0,0.0,119.38
2025-08-14T22:14:03.179Z,2,GR86-047-21,-3.0,-0.312,-0.021,3.35,4.0,,0.0,0.0,
2025-08-14T22:14:03.223Z,2,GR86-047-21,-3.0,-0.159,-0.003,3.1,4.0,,0.0,0.0,
2025-08-14T22:14:03.266Z,2,GR86-047-21,-3.0,-0.086,-0.042,2.84,4.0,,0.0,0.0,
2025-08-14T22:14:03.352Z,2,GR86-047-21,-3.0,-0.164,-0.028,2.65,4.0,4652.0,0.0,0.0,119.44
2025-08-14T22:14:03.395Z,2,GR86-047-21,-3.0,-0.174,-0.034,2.61,4.0,,0.0,0.0,
2025-08-14T22:14:03.440Z,2,GR86-047-21,-3.0,-0.133,-0.003,2.56,4.0,,0.0,0.0,
2025-08-14T22:14:03.483Z,2,GR86-047-21,-3.0,-0.1,-0.035,2.52,4.0,,0.0,0.0,
2025-08-14T22:14:03.526Z,2,GR86-047-21,-3.0,-0.126,-0.017,2.49,4.0,4589.0,0.0,0.0,
2025-08-14T22:14:03.569Z,2,GR86-047-21,-3.0,-0.141,-0.03,2.47,4.0,,0.0,0.0,118.63
2025-08-14T22:14:03.612Z,2,GR86-047-21,-3.0,-0.131,0.003,2.46,4.0,,0.0,0.0,
2025-08-14T22:14:03.657Z,2,GR86-047-21,-3.0,-0.12,-0.024,2.46,4.0,,0.0,0.0,
2025-08-14T22:14:03.699Z,2,GR86-047-21,-3.0,-0.144,-0.021,2.5500000000000003,4.0,,0.0,0.0,
2025-08-14T22:14:03.742Z,2,GR86-047-21,-3.0,-0.139,-0.007,2.62,4.0,4532.0,0.0,0.0,
2025-08-14T22:14:03.787Z,2,GR86-047-21,-3.0,-0.116,-0.011,2.65,4.0,,0.0,0.0,117.85
2025-08-14T22:14:03.829Z,2,GR86-047-21,-2.6,-0.114,-0.017,2.74,4.0,,0.0,0.0,
2025-08-14T22:14:03.873Z,2,GR86-047-21,-2.4000000000000004,-0.133,0.007,3.83,4.0,,0.0,0.0,
2025-08-14T22:14:03.916Z,2,GR86-047-21,-2.4000000000000004,-0.13,0.013,4.63,4.0,,0.0,0.0,
2025-08-14T22:14:03.959Z,2,GR86-047-21,-2.4000000000000004,-0.142,-0.002,4.74,4.0,4499.0,0.0,0.0,
2025-08-14T22:14:04.002Z,2,GR86-047-21,-2.4000000000000004,-0.137,0.016,4.82,4.0,,0.0,0.0,117.08
2025-08-14T22:14:04.046Z,2,GR86-047-21,-2.4000000000000004,-0.126,0.026,4.92,4.0,,0.0,0.0,
2025-08-14T22:14:04.089Z,2,GR86-047-21,-2.4000000000000004,-0.113,0.029,4.96,4.0,,0.0,0.0,
2025-08-14T22:14:04.131Z,2,GR86-047-21,-2.4000000000000004,-0.121,0.021,5.15,4.0,,0.0,0.0,
2025-08-14T22:14:04.176Z,2,GR86-047-21,-2.4000000000000004,-0.121,0.052,12.02,4.0,4482.0,0.0,0.0,
2025-08-14T22:14:04.219Z,2,GR86-047-21,-2.4000000000000004,-0.116,0.024,17.98,4.0,,0.0,0.0,116.4
2025-08-14T22:14:04.261Z,2,GR86-047-21,-2.3000000000000003,-0.105,0.035,18.87,4.0,,0.0,0.0,
2025-08-14T22:14:04.307Z,2,GR86-047-21,-2.3000000000000003,-0.088,0.04,20.18,4.0,,0.0,0.0,
2025-08-14T22:14:04.349Z,2,GR86-047-21,-2.3000000000000003,-0.07,0.056,21.74,4.0,,0.0,0.0,
2025-08-14T22:14:04.393Z,2,GR86-047-21,-2.2,-0.088,0.029,21.95,4.0,4498.0,0.0,0.0,
2025-08-14T22:14:04.437Z,2,GR86-047-21,-2.3000000000000003,-0.021,0.056,22.0,4.0,,0.0,0.0,115.7
2025-08-14T22:14:04.479Z,2,GR86-047-21,-2.2,0.254,0.044,22.06,4.0,,0.0,0.0,
2025-08-14T22:14:04.523Z,2,GR86-047-21,-2.3000000000000003,0.095,0.031,22.07,4.0,,0.0,0.0,
2025-08-14T22:14:04.566Z,2,GR86-047-21,-2.3000000000000003,-0.068,0.051,22.1,4.0,,0.0,0.0,
2025-08-14T22:14:04.609Z,2,GR86-047-21,-2.2,0.047,0.027,22.09,4.0,4685.0,0.0,0.0,
2025-08-14T22:14:04.653Z,2,GR86-047-21,-2.2,0.135,0.023,22.07,4.0,,0.0,0.0,115.14
2025-08-14T22:14:04.698Z,2,GR86-047-21,-2.2,0.063,0.02,22.07,4.0,,0.0,0.0,
2025-08-14T22:14:04.740Z,2,GR86-047-21,-2.3000000000000003,0.009,0.002,22.08,4.0,,0.0,0.0,
2025-08-14T22:14:04.783Z,2,GR86-047-21,-2.3000000000000003,0.022,-0.003,22.06,4.0,,0.0,0.0,
2025-08-14T22:14:04.826Z,2,GR86-047-21,-2.2,0.073,-0.021,22.04,4.0,4548.0,0.0,0.0,
2025-08-14T22:14:04.869Z,2,GR86-047-21,-2.3000000000000003,0.054,-0.009,22.04,4.0,,0.0,0.0,115.26
2025-08-14T22:14:04.912Z,2,GR86-047-21,-2.3000000000000003,0.031,-0.019,22.03,4.0,,0.0,0.0,
2025-08-14T22:14:04.957Z,2,GR86-047-21,-2.2,0.039,-0.031,21.69,4.0,,0.0,0.0,
2025-08-14T22:14:04.999Z,2,GR86-047-21,-2.3000000000000003,0.074,-0.001,21.44,4.0,,0.0,0.0,
2025-08-14T22:14:05.043Z,2,GR86-047-21,-2.3000000000000003,0.067,-0.021,21.37,4.0,4524.0,0.0,0.0,
2025-08-14T22:14:05.087Z,2,GR86-047-21,-2.3000000000000003,0.028,-0.026,21.5,4.0,,0.0,0.0,116.18
2025-08-14T22:14:05.129Z,2,GR86-047-21,-2.3000000000000003,0.034,-0.024,21.63,4.0,,0.0,0.0,
2025-08-14T22:14:05.173Z,2,GR86-047-21,-2.3000000000000003,0.06,-0.017,21.61,4.0,,0.0,0.0,
2025-08-14T22:14:05.216Z,2,GR86-047-21,-2.3000000000000003,0.053,-0.032,21.44,4.0,,0.0,0.0,
2025-08-14T22:14:05.259Z,2,GR86-047-21,-2.3000000000000003,0.039,-0.021,21.41,4.0,4535.0,0.0,0.0,
2025-08-14T22:14:05.302Z,2,GR86-047-21,-2.3000000000000003,0.049,-0.024,21.36,4.0,,0.0,0.0,116.7
2025-08-14T22:14:05.347Z,2,GR86-047-21,-2.3000000000000003,0.058,-0.026,21.19,4.0,,0.0,0.0,
2025-08-14T22:14:05.389Z,2,GR86-047-21,-2.3000000000000003,0.04,-0.041,21.01,4.0,,0.0,0.0,
2025-08-14T22:14:05.432Z,2,GR86-047-21,-2.2,0.042,-0.022,20.86,4.0,,0.0,0.0,
2025-08-14T22:14:05.476Z,2,GR86-047-21,-2.2,0.045,-0.035,20.34,4.0,4565.0,0.0,0.0,
2025-08-14T22:14:05.519Z,2,GR86-047-21,-2.3000000000000003,0.038,-0.026,19.66,4.0,,0.0,0.0,117.17
2025-08-14T22:14:05.561Z,2,GR86-047-21,-2.2,0.038,-0.019,19.31,4.0,,0.0,0.0,
2025-08-14T22:14:05.607Z,2,GR86-047-21,-2.3000000000000003,0.02,-0.027,19.12,4.0,,0.0,0.0,
2025-08-14T22:14:05.649Z,2,GR86-047-21,-2.3000000000000003,0.022,-0.047,18.33,4.0,,0.0,0.0,
2025-08-14T22:14:05.693Z,2,GR86-047-21,-2.3000000000000003,0.014,-0.027,16.15,4.0,4598.0,0.0,0.0,
2025-08-14T22:14:05.737Z,2,GR86-047-21,-2.3000000000000003,0.032,-0.024,13.79,4.0,,0.0,0.0,117.6
2025-08-14T22:14:05.779Z,2,GR86-047-21,-2.3000000000000003,0.006,-0.037,10.04,4.0,,0.0,0.0,
2025-08-14T22:14:05.823Z,2,GR86-047-21,-2.3000000000000003,-0.019,-0.022,10.49,4.0,,0.0,0.0,
2025-08-14T22:14:05.866Z,2,GR86-047-21,-3.1,-0.051,-0.026,12.23,4.0,,0.0,0.0,
2025-08-14T22:14:05.909Z,2,GR86-047-21,-3.8,-0.049,-0.046,17.080000000000002,4.0,4575.0,0.0,0.0,
2025-08-14T22:14:05.952Z,2,GR86-047-21,-3.9,-0.079,-0.056,22.24,4.0,,0.0,0.0,117.88
2025-08-14T22:14:05.998Z,2,GR86-047-21,-3.9,-0.066,-0.052,22.15,4.0,,0.0,0.0,
2025-08-14T22:14:06.040Z,2,GR86-047-21,-3.9,-0.059,-0.068,22.15,4.0,,0.0,0.0,
2025-08-14T22:14:06.083Z,2,GR86-047-21,-3.9,-0.053,-0.07,22.16,4.0,,0.0,0.0,
2025-08-14T22:14:06.129Z,2,GR86-047-21,-3.9,0.128,-0.07,22.16,4.0,4633.0,0.0,0.0,
2025-08-14T22:14:06.173Z,2,GR86-047-21,-3.9,0.061,-0.062,22.15,4.0,,0.0,0.0,117.93
2025-08-14T22:14:06.216Z,2,GR86-047-21,-3.9,-0.005,-0.089,22.14,4.0,,0.0,0.0,
2025-08-14T22:14:06.259Z,2,GR86-047-21,-3.9,0.029,-0.059,22.12,4.0,,0.0,0.0,
2025-08-14T22:14:06.302Z,2,GR86-047-21,-3.9,0.09,-0.076,22.1,4.0,,0.0,0.0,
2025-08-14T22:14:06.347Z,2,GR86-047-21,-3.9,0.054,-0.07,22.08,4.0,4656.0,0.0,0.0,
2025-08-14T22:14:06.389Z,2,GR86-047-21,-3.9,0.026,-0.093,22.08,4.0,,0.0,0.0,117.89
2025-08-14T22:14:06.432Z,2,GR86-047-21,-3.9,0.048,-0.075,22.04,4.0,,0.0,0.0,
2025-08-14T22:14:06.476Z,2,GR86-047-21,-3.9,0.072,-0.091,22.05,4.0,,0.0,0.0,
2025-08-14T22:14:06.519Z,2,GR86-047-21,-3.9,0.048,-0.088,22.03,4.0,,0.0,0.0,
2025-08-14T22:14:06.563Z,2,GR86-047-21,-3.9,0.026,-0.076,22.03,4.0,4655.0,0.0,0.0,
2025-08-14T22:14:06.607Z,2,GR86-047-21,-3.9,0.046,-0.059,22.25,4.0,,0.0,0.0,118.42
2025-08-14T22:14:06.649Z,2,GR86-047-21,-3.9,0.063,-0.078,22.4,4.0,,0.0,0.0,
2025-08-14T22:14:06.693Z,2,GR86-047-21,-3.9,0.052,-0.068,22.44,4.0,,0.0,0.0,
2025-08-14T22:14:06.737Z,2,GR86-047-21,-3.9,0.034,-0.051,22.41,4.0,,0.0,0.0,
2025-08-14T22:14:06.779Z,2,GR86-047-21,-3.9,0.061,-0.071,22.37,4.0,4663.0,0.0,0.0,
2025-08-14T22:14:06.866Z,2,GR86-047-21,-3.9,0.041,-0.068,22.28,4.0,,0.0,0.0,118.93
2025-08-14T22:14:06.909Z,2,GR86-047-21,-3.9,0.048,-0.062,22.11,4.0,,0.0,0.0,
2025-08-14T22:14:06.952Z,2,GR86-047-21,-3.9,0.059,-0.072,22.08,4.0,,0.0,0.0,
2025-08-14T22:14:06.999Z,2,GR86-047-21,-3.9,0.042,-0.066,22.04,4.0,4681.0,0.0,0.0,
2025-08-14T22:14:07.041Z,2,GR86-047-21,-3.9,0.045,-0.05,22.04,4.0,,0.0,0.0,119.41
2025-08-14T22:14:07.087Z,2,GR86-047-21,-3.9,0.05,-0.061,22.01,4.0,,0.0,0.0,
2025-08-14T22:14:07.129Z,2,GR86-047-21,-3.9,0.059,-0.073,22.01,4.0,,0.0,0.0,
2025-08-14T22:14:07.173Z,2,GR86-047-21,-3.9,0.03,-0.061,22.01,4.0,,0.0,0.0,
2025-08-14T22:14:07.216Z,2,GR86-047-21,-3.9,0.05,-0.046,22.02,4.0,4702.0,0.0,0.0,
2025-08-14T22:14:07.259Z,2,GR86-047-21,-3.9,0.054,-0.069,22.0,4.0,,0.0,0.0,119.9
2025-08-14T22:14:07.302Z,2,GR86-047-21,-3.9,0.044,-0.053,21.99,4.0,,0.0,0.0,
2025-08-14T22:14:07.345Z,2,GR86-047-21,-3.9,0.039,-0.057,22.0,4.0,,0.0,0.0,
2025-08-14T22:14:07.389Z,2,GR86-047-21,-3.9,0.05,-0.046,21.99,4.0,,0.0,0.0,
2025-08-14T22:14:07.432Z,2,GR86-047-21,-3.9,0.056,-0.068,21.99,4.0,4721.0,0.0,0.0,
2025-08-14T22:14:07.476Z,2,GR86-047-21,-3.9,0.035,-0.046,21.99,4.0,,0.0,0.0,120.4
2025-08-14T22:14:07.519Z,2,GR86-047-21,-3.9,0.052,-0.046,21.98,4.0,,0.0,0.0,
2025-08-14T22:14:07.563Z,2,GR86-047-21,-3.9,0.054,-0.06,21.99,4.0,,0.0,0.0,
2025-08-14T22:14:07.607Z,2,GR86-047-21,-3.9,0.054,-0.055,21.99,4.0,,0.0,0.0,
2025-08-14T22:14:07.649Z,2,GR86-047-21,-3.9,0.036,-0.039,21.98,4.0,4736.0,0.0,0.0,
2025-08-14T22:14:07.693Z,2,GR86-047-21,-3.9,0.051,-0.031,21.99,4.0,,0.0,0.0,121.32
2025-08-14T22:14:07.736Z,2,GR86-047-21,-3.9,0.055,-0.059,21.99,4.0,,0.0,0.0,
2025-08-14T22:14:07.779Z,2,GR86-047-21,-3.9,0.03,-0.041,21.98,4.0,,0.0,0.0,
2025-08-14T22:14:07.821Z,2,GR86-047-21,-3.9,0.05,-0.031,21.99,4.0,,0.0,0.0,
2025-08-14T22:14:07.866Z,2,GR86-047-21,-3.9,0.05,-0.026,21.99,4.0,4755.0,0.0,0.0,
2025-08-14T22:14:07.909Z,2,GR86-047-21,-3.9,0.053,-0.044,21.99,4.0,,0.0,0.0,121.83
2025-08-14T22:14:07.951Z,2,GR86-047-21,-3.9,0.029,-0.024,22.0,4.0,,0.0,0.0,
2025-08-14T22:14:07.995Z,2,GR86-047-21,-3.9,0.045,-0.012,22.0,4.0,,0.0,0.0,
2025-08-14T22:14:08.041Z,2,GR86-047-21,-3.9,0.052,-0.04,22.0,4.0,,0.0,0.0,
2025-08-14T22:14:08.087Z,2,GR86-047-21,-3.9,0.059,-0.036,22.0,4.0,4794.0,0.0,0.0,
2025-08-14T22:14:08.129Z,2,GR86-047-21,-3.9,0.034,-0.024,22.0,4.0,,0.0,0.0,122.24
2025-08-14T22:14:08.173Z,2,GR86-047-21,-3.9,0.042,-0.016,21.99,4.0,,0.0,0.0,
2025-08-14T22:14:08.216Z,2,GR86-047-21,-3.9,0.057,-0.035,21.99,4.0,,0.0,0.0,
2025-08-14T22:14:08.259Z,2,GR86-047-21,-3.9,0.033,-0.018,21.98,4.0,,0.0,0.0,
2025-08-14T22:14:08.302Z,2,GR86-047-21,-3.9,0.037,-0.008,21.99,4.0,4806.0,0.0,0.0,
2025-08-14T22:14:08.347Z,2,GR86-047-21,-3.9,0.041,-0.017,21.98,4.0,,0.0,0.0,122.69
2025-08-14T22:14:08.389Z,2,GR86-047-21,-3.9,0.058,-0.031,21.99,4.0,,0.0,0.0,
2025-08-14T22:14:08.432Z,2,GR86-047-21,-3.9,0.024,-0.023,21.99,4.0,,0.0,0.0,
2025-08-14T22:14:08.476Z,2,GR86-047-21,-3.8,0.036,0.0,21.99,4.0,,0.0,0.0,
2025-08-14T22:14:08.561Z,2,GR86-047-21,-3.3000000000000003,0.059,-0.026,22.0,4.0,4822.0,0.0,0.0,123.08
2025-08-14T22:14:08.607Z,2,GR86-047-21,-2.6,0.034,0.002,21.99,4.0,,0.0,0.0,
2025-08-14T22:14:08.649Z,2,GR86-047-21,-2.4000000000000004,0.035,0.029,21.99,4.0,,0.0,0.0,
2025-08-14T22:14:08.693Z,2,GR86-047-21,-2.3000000000000003,0.048,0.015,21.99,4.0,,0.0,0.0,
2025-08-14T22:14:08.737Z,2,GR86-047-21,-2.3000000000000003,0.035,0.019,21.99,4.0,4836.0,0.0,0.0,
2025-08-14T22:14:08.779Z,2,GR86-047-21,-2.2,0.03,0.052,21.2,4.0,,0.0,0.0,123.49
2025-08-14T22:14:08.823Z,2,GR86-047-21,-1.9,0.055,0.036,18.01,4.0,,0.0,0.0,
2025-08-14T22:14:08.866Z,2,GR86-047-21,-1.8,0.041,0.053,9.56,4.0,,0.0,0.0,
2025-08-14T22:14:08.909Z,2,GR86-047-21,-1.8,0.005,0.039,7.87,4.0,,0.0,0.0,
2025-08-14T22:14:08.998Z,2,GR86-047-21,-1.8,-0.056,0.076,3.99,4.0,4847.0,0.0,0.0,123.95
2025-08-14T22:14:09.041Z,2,GR86-047-21,-1.8,-0.069,0.066,3.9,4.0,,0.0,0.0,
2025-08-14T22:14:09.087Z,2,GR86-047-21,-1.8,-0.071,0.057,3.61,4.0,,0.0,0.0,
2025-08-14T22:14:09.129Z,2,GR86-047-21,-1.8,-0.237,0.058,3.27,4.0,,0.0,0.0,
2025-08-14T22:14:09.173Z,2,GR86-047-21,-1.8,-0.237,0.083,2.96,4.0,4744.0,0.0,0.0,
2025-08-14T22:14:09.216Z,2,GR86-047-21,-1.8,-0.097,0.04,2.81,4.0,,0.0,0.0,124.26
2025-08-14T22:14:09.259Z,2,GR86-047-21,-1.8,-0.084,0.036,2.72,4.0,,0.0,0.0,
2025-08-14T22:14:09.302Z,2,GR86-047-21,-1.8,-0.087,0.052,2.68,4.0,,0.0,0.0,
2025-08-14T22:14:09.347Z,2,GR86-047-21,-1.8,-0.166,0.035,2.97,4.0,,0.0,0.0,
2025-08-14T22:14:09.389Z,2,GR86-047-21,-1.8,-0.111,0.019,3.47,4.0,4787.0,0.0,0.0,
2025-08-14T22:14:09.433Z,2,GR86-047-21,-3.1,-0.13,0.015,4.41,4.0,,0.0,0.0,123.87
2025-08-14T22:14:09.476Z,2,GR86-047-21,-5.300000000000001,-0.131,-0.002,4.66,4.0,,0.0,0.0,
2025-08-14T22:14:09.519Z,2,GR86-047-21,-7.2,-0.125,-0.059,4.94,4.0,,0.0,0.0,
2025-08-14T22:14:09.563Z,2,GR86-047-21,-8.3,-0.138,-0.063,5.05,4.0,,0.0,0.0,
2025-08-14T22:14:09.607Z,2,GR86-047-21,-8.6,-0.137,-0.121,5.13,4.0,4732.0,0.0,0.0,
2025-08-14T22:14:09.649Z,2,GR86-047-21,-8.6,-0.128,-0.13,5.13,4.0,,0.0,0.0,123.05
2025-08-14T22:14:09.693Z,2,GR86-047-21,-8.6,-0.111,-0.171,5.17,4.0,,0.0,0.0,
2025-08-14T22:14:09.737Z,2,GR86-047-21,-6.6000000000000005,-0.133,-0.141,5.2700000000000005,4.0,,0.0,0.0,
2025-08-14T22:14:09.779Z,2,GR86-047-21,-4.800000000000001,-0.11,-0.136,5.37,4.0,,0.0,0.0,
2025-08-14T22:14:09.823Z,2,GR86-047-21,-2.5,-0.111,-0.139,5.5,4.0,4711.0,0.0,0.0,
2025-08-14T22:14:09.866Z,2,GR86-047-21,1.0,-0.115,-0.088,5.79,4.0,,0.0,0.0,122.27
2025-08-14T22:14:09.909Z,2,GR86-047-21,2.9000000000000004,-0.117,-0.032,6.32,4.0,,0.0,0.0,
2025-08-14T22:14:09.953Z,2,GR86-047-21,4.4,-0.103,0.029,6.71,4.0,,0.0,0.0,
2025-08-14T22:14:09.999Z,2,GR86-047-21,5.5,-0.089,0.05,7.28,4.0,,0.0,0.0,
2025-08-14T22:14:10.041Z,2,GR86-047-21,6.6000000000000005,-0.115,0.123,8.91,4.0,4685.0,0.0,0.0,
2025-08-14T22:14:10.087Z,2,GR86-047-21,8.1,-0.113,0.194,14.33,4.0,,0.0,0.0,121.01
2025-08-14T22:14:10.129Z,2,GR86-047-21,9.2,-0.085,0.232,16.91,4.0,,0.0,0.0,
2025-08-14T22:14:10.173Z,2,GR86-047-21,10.4,-0.091,0.256,18.25,4.0,,0.0,0.0,
2025-08-14T22:14:10.216Z,2,GR86-047-21,11.7,-0.134,0.314,20.19,4.0,,0.0,0.0,
2025-08-14T22:14:10.259Z,2,GR86-047-21,13.1,-0.073,0.343,20.43,4.0,4675.0,0.0,0.0,
2025-08-14T22:14:10.302Z,2,GR86-047-21,14.2,-0.066,0.359,20.5,4.0,,0.0,0.0,120.51
2025-08-14T22:14:10.346Z,2,GR86-047-21,15.0,0.126,0.401,20.53,4.0,,0.0,0.0,
2025-08-14T22:14:10.389Z,2,GR86-047-21,15.0,0.143,0.457,20.56,4.0,,0.0,0.0,
2025-08-14T22:14:10.432Z,2,GR86-047-21,15.0,-0.014,0.44,22.05,4.0,,0.0,0.0,
2025-08-14T22:14:10.476Z,2,GR86-047-21,15.0,-0.047,0.442,22.13,4.0,4703.0,0.0,0.0,
2025-08-14T22:14:10.519Z,2,GR86-047-21,15.0,0.019,0.458,22.15,4.0,,0.0,0.0,120.22
2025-08-14T22:14:10.563Z,2,GR86-047-21,15.0,0.12,0.453,22.15,4.0,,0.0,0.0,
2025-08-14T22:14:10.607Z,2,GR86-047-21,14.9,0.035,0.436,22.13,4.0,,0.0,0.0,
2025-08-14T22:14:10.649Z,2,GR86-047-21,14.4,0.026,0.402,22.14,4.0,,0.0,0.0,
2025-08-14T22:14:10.693Z,2,GR86-047-21,12.4,0.039,0.418,22.15,4.0,4727.0,0.0,0.0,
2025-08-14T22:14:10.736Z,2,GR86-047-21,9.1,0.085,0.368,22.14,4.0,,0.0,0.0,120.52
2025-08-14T22:14:10.779Z,2,GR86-047-21,5.300000000000001,0.061,0.303,22.11,4.0,,0.0,0.0,
