timestamp,lap,vehicle_id,steering_angle,accx_can,accy_can,ath,gear,nmot,pbrake_f,pbrake_r,speed
2025-08-14T22:38:29.210Z,2,GR86-035-11,-3.8,0.146,0.05,25.76,3.0,,0.0,0.0,
2025-08-14T22:38:29.253Z,2,GR86-035-11,-6.7,0.147,-0.013,23.81,3.0,,0.0,0.0,
2025-08-14T22:38:29.297Z,2,GR86-035-11,-10.9,0.104,-0.095,23.18,3.0,3884.0,0.0,0.0,
2025-08-14T22:38:29.340Z,2,GR86-035-11,-13.3,0.086,-0.161,21.85,3.0,,0.0,0.0,82.82000000000001
2025-08-14T22:38:29.383Z,2,GR86-035-11,-15.5,0.087,-0.19,21.71,3.0,,0.0,0.0,
2025-08-14T22:38:29.426Z,2,GR86-035-11,-17.6,0.092,-0.237,21.76,3.0,,0.0,0.0,
2025-08-14T22:38:29.469Z,2,GR86-035-11,-19.6,0.093,-0.264,18.79,3.0,,0.0,0.0,
2025-08-14T22:38:29.512Z,2,GR86-035-11,-21.200000000000003,0.087,-0.3,3.85,3.0,3916.0,0.0,0.0,
2025-08-14T22:38:29.555Z,2,GR86-035-11,-22.4,0.032,-0.347,3.8,3.0,,0.0,0.0,83.77
2025-08-14T22:38:29.599Z,2,GR86-035-11,-22.5,-0.118,-0.364,3.76,3.0,,0.0,0.0,
2025-08-14T22:38:29.642Z,2,GR86-035-11,-22.700000000000003,-0.058,-0.377,3.63,3.0,,0.0,0.0,
2025-08-14T22:38:29.685Z,2,GR86-035-11,-22.8,-0.311,-0.427,3.35,3.0,,0.0,0.0,
2025-08-14T22:38:29.728Z,2,GR86-035-11,-22.8,-0.215,-0.38,2.94,3.0,3665.0,0.0,0.0,
2025-08-14T22:38:29.771Z,2,GR86-035-11,-22.8,-0.07,-0.439,2.84,3.0,,0.0,0.0,84.38
2025-08-14T22:38:29.814Z,2,GR86-035-11,-22.8,-0.076,-0.447,2.75,3.0,,0.0,0.0,
2025-08-14T22:38:29.857Z,2,GR86-035-11,-22.9,-0.082,-0.462,2.65,3.0,,0.0,0.0,
2025-08-14T22:38:29.900Z,2,GR86-035-11,-23.200000000000003,-0.174,-0.455,2.59,3.0,,0.0,0.0,
2025-08-14T22:38:29.943Z,2,GR86-035-11,-23.6,-0.174,-0.446,2.56,3.0,3798.0,0.0,0.0,
2025-08-14T22:38:29.986Z,2,GR86-035-11,-23.6,-0.118,-0.453,2.53,3.0,,0.0,0.0,83.88
2025-08-14T22:38:30.029Z,2,GR86-035-11,-23.6,-0.092,-0.447,2.52,3.0,,0.0,0.0,
2025-08-14T22:38:30.072Z,2,GR86-035-11,-23.6,-0.114,-0.445,2.49,3.0,,0.0,0.0,
2025-08-14T22:38:30.115Z,2,GR86-035-11,-23.6,-0.14,-0.449,11.68,3.0,,0.0,0.0,
2025-08-14T22:38:30.158Z,2,GR86-035-11,-23.6,-0.124,-0.436,19.69,3.0,3790.0,0.0,0.0,
2025-08-14T22:38:30.201Z,2,GR86-035-11,-23.6,-0.118,-0.439,19.59,3.0,,0.0,0.0,83.10000000000001
2025-08-14T22:38:30.244Z,2,GR86-035-11,-23.6,-0.051,-0.441,5.99,3.0,,0.0,0.0,
2025-08-14T22:38:30.287Z,2,GR86-035-11,-22.3,-0.085,-0.435,5.71,3.0,,0.0,0.0,
2025-08-14T22:38:30.330Z,2,GR86-035-11,-20.1,0.001,-0.426,16.78,3.0,,0.0,0.0,
2025-08-14T22:38:30.373Z,2,GR86-035-11,-17.400000000000002,0.125,-0.399,5.09,3.0,3851.0,0.0,0.0,
2025-08-14T22:38:30.416Z,2,GR86-035-11,-14.1,-0.079,-0.368,5.17,3.0,,0.0,0.0,82.28
2025-08-14T22:38:30.460Z,2,GR86-035-11,-11.7,-0.057,-0.32,19.54,3.0,,0.0,0.0,
2025-08-14T22:38:30.503Z,2,GR86-035-11,-8.8,-0.215,-0.316,20.8,3.0,,0.0,0.0,
2025-08-14T22:38:30.546Z,2,GR86-035-11,-5.7,-0.219,-0.225,14.25,3.0,,0.0,0.0,
2025-08-14T22:38:30.589Z,2,GR86-035-11,-2.2,-0.012,-0.231,5.57,3.0,3613.0,0.0,0.0,
2025-08-14T22:38:30.632Z,2,GR86-035-11,1.3,0.018,-0.182,10.64,3.0,,0.0,0.0,81.84
2025-08-14T22:38:30.677Z,2,GR86-035-11,6.0,0.158,-0.111,6.3,3.0,,0.0,0.0,
2025-08-14T22:38:30.720Z,2,GR86-035-11,9.3,-0.095,-0.05,6.54,3.0,,0.0,0.0,
2025-08-14T22:38:30.763Z,2,GR86-035-11,12.8,-0.045,0.037,16.3,3.0,,0.0,0.0,
2025-08-14T22:38:30.806Z,2,GR86-035-11,16.6,-0.105,0.073,21.18,3.0,3969.0,0.0,0.0,
2025-08-14T22:38:30.849Z,2,GR86-035-11,21.0,-0.115,0.161,21.37,3.0,,0.0,0.0,81.5
2025-08-14T22:38:30.892Z,2,GR86-035-11,25.3,-0.076,0.24,21.43,3.0,,0.0,0.0,
2025-08-14T22:38:30.935Z,2,GR86-035-11,30.700000000000003,-0.067,0.305,21.75,3.0,,0.0,0.0,
2025-08-14T22:38:30.978Z,2,GR86-035-11,33.1,0.133,0.398,21.86,3.0,,0.0,0.0,
2025-08-14T22:38:31.021Z,2,GR86-035-11,34.4,0.315,0.443,7.03,3.0,3743.0,0.0,0.0,
2025-08-14T22:38:31.064Z,2,GR86-035-11,35.1,0.127,0.451,6.5600000000000005,3.0,,0.0,0.0,81.53
2025-08-14T22:38:31.107Z,2,GR86-035-11,35.6,-0.028,0.517,21.63,3.0,,0.0,0.0,
2025-08-14T22:38:31.150Z,2,GR86-035-11,36.3,-0.039,0.51,21.63,3.0,,0.0,0.0,
2025-08-14T22:38:31.193Z,2,GR86-035-11,36.8,0.006,0.558,21.7,3.0,,0.0,0.0,
2025-08-14T22:38:31.236Z,2,GR86-035-11,37.6,0.095,0.578,19.43,3.0,3718.0,0.0,0.0,
2025-08-14T22:38:31.280Z,2,GR86-035-11,38.5,0.09,0.598,21.94,3.0,,0.0,0.0,81.78
2025-08-14T22:38:31.323Z,2,GR86-035-11,39.2,0.078,0.6,21.97,3.0,,0.0,0.0,
2025-08-14T22:38:31.366Z,2,GR86-035-11,39.3,0.077,0.636,19.21,3.0,,0.0,0.0,
2025-08-14T22:38:31.409Z,2,GR86-035-11,39.3,0.09,0.606,20.08,3.0,,0.0,0.0,
2025-08-14T22:38:31.452Z,2,GR86-035-11,39.3,0.089,0.65,21.99,3.0,3840.0,0.0,0.0,
2025-08-14T22:38:31.495Z,2,GR86-035-11,39.3,0.088,0.628,21.85,3.0,,0.0,0.0,82.14
2025-08-14T22:38:31.538Z,2,GR86-035-11,39.1,0.089,0.625,12.98,3.0,,0.0,0.0,
2025-08-14T22:38:31.581Z,2,GR86-035-11,37.4,0.108,0.607,19.7,3.0,,0.0,0.0,
2025-08-14T22:38:31.624Z,2,GR86-035-11,34.800000000000004,0.086,0.602,22.1,3.0,,0.0,0.0,
2025-08-14T22:38:31.667Z,2,GR86-035-11,31.9,0.048,0.5650000000000001,22.1,3.0,3846.0,0.0,0.0,
2025-08-14T22:38:31.710Z,2,GR86-035-11,28.9,0.052,0.5640000000000001,18.32,3.0,,0.0,0.0,82.69
2025-08-14T22:38:31.753Z,2,GR86-035-11,25.200000000000003,0.095,0.506,20.16,3.0,,0.0,0.0,
2025-08-14T22:38:31.841Z,2,GR86-035-11,18.3,0.062,0.416,17.650000000000002,3.0,,0.0,0.0,
2025-08-14T22:38:31.884Z,2,GR86-035-11,14.5,0.085,0.376,9.28,3.0,3870.0,0.0,0.0,
2025-08-14T22:38:31.927Z,2,GR86-035-11,10.3,0.108,0.287,18.88,3.0,,0.0,0.0,83.2
2025-08-14T22:38:31.970Z,2,GR86-035-11,6.2,0.063,0.246,20.37,3.0,,0.0,0.0,
2025-08-14T22:38:32.013Z,2,GR86-035-11,3.0,0.004,0.172,11.87,3.0,,0.0,0.0,
2025-08-14T22:38:32.056Z,2,GR86-035-11,-0.7000000000000001,0.037,0.094,14.03,3.0,,0.0,0.0,
2025-08-14T22:38:32.099Z,2,GR86-035-11,-3.2,0.067,0.039,20.46,3.0,3899.0,0.0,0.0,
2025-08-14T22:38:32.142Z,2,GR86-035-11,-5.6000000000000005,0.028,0.003,19.69,3.0,,0.0,0.0,83.68
2025-08-14T22:38:32.185Z,2,GR86-035-11,-8.1,-0.004,-0.056,16.56,3.0,,0.0,0.0,
2025-08-14T22:38:32.228Z,2,GR86-035-11,-10.8,0.024,-0.099,19.28,3.0,,0.0,0.0,
2025-08-14T22:38:32.271Z,2,GR86-035-11,-13.7,0.073,-0.157,21.97,3.0,,0.0,0.0,
2025-08-14T22:38:32.314Z,2,GR86-035-11,-16.7,0.059,-0.198,22.1,3.0,3941.0,0.0,0.0,
2025-08-14T22:38:32.357Z,2,GR86-035-11,-20.6,0.058,-0.276,20.85,3.0,,0.0,0.0,83.98
2025-08-14T22:38:32.400Z,2,GR86-035-11,-22.700000000000003,0.089,-0.295,21.95,3.0,,0.0,0.0,
2025-08-14T22:38:32.443Z,2,GR86-035-11,-24.6,0.089,-0.348,22.0,3.0,,0.0,0.0,
2025-08-14T22:38:32.486Z,2,GR86-035-11,-26.1,0.081,-0.355,20.11,3.0,,0.0,0.0,
2025-08-14T22:38:32.529Z,2,GR86-035-11,-27.700000000000003,0.064,-0.389,18.56,3.0,3941.0,0.0,0.0,
2025-08-14T22:38:32.572Z,2,GR86-035-11,-28.9,0.063,-0.409,20.96,3.0,,0.0,0.0,84.28
2025-08-14T22:38:32.617Z,2,GR86-035-11,-29.8,0.059,-0.452,21.88,3.0,,0.0,0.0,
2025-08-14T22:38:32.661Z,2,GR86-035-11,-30.6,0.057,-0.474,9.91,3.0,,0.0,0.0,
2025-08-14T22:38:32.705Z,2,GR86-035-11,-31.8,0.063,-0.513,8.81,3.0,,0.0,0.0,
2025-08-14T22:38:32.749Z,2,GR86-035-11,-32.9,0.061,-0.511,19.41,3.0,3963.0,0.0,0.0,
2025-08-14T22:38:32.792Z,2,GR86-035-11,-34.300000000000004,-0.007,-0.548,22.01,3.0,,0.0,0.0,84.84
2025-08-14T22:38:32.835Z,2,GR86-035-11,-34.9,-0.029,-0.5690000000000001,21.59,3.0,,0.0,0.0,
2025-08-14T22:38:32.879Z,2,GR86-035-11,-34.9,0.017,-0.58,21.86,3.0,,0.0,0.0,
2025-08-14T22:38:32.922Z,2,GR86-035-11,-34.9,0.093,-0.582,21.97,3.0,,0.0,0.0,
2025-08-14T22:38:32.965Z,2,GR86-035-11,-34.9,0.094,-0.605,21.97,3.0,3987.0,0.0,0.0,
2025-08-14T22:38:33.008Z,2,GR86-035-11,-34.800000000000004,0.064,-0.599,21.66,3.0,,0.0,0.0,85.43
2025-08-14T22:38:33.051Z,2,GR86-035-11,-34.300000000000004,0.05,-0.608,21.85,3.0,,0.0,0.0,
2025-08-14T22:38:33.093Z,2,GR86-035-11,-33.4,0.061,-0.594,21.91,3.0,,0.0,0.0,
2025-08-14T22:38:33.137Z,2,GR86-035-11,-31.700000000000003,0.069,-0.577,18.11,3.0,,0.0,0.0,
2025-08-14T22:38:33.180Z,2,GR86-035-11,-30.1,0.065,-0.5680000000000001,10.55,3.0,4000.0,0.0,0.0,
2025-08-14T22:38:33.223Z,2,GR86-035-11,-27.9,0.053,-0.537,18.64,3.0,,0.0,0.0,85.74
2025-08-14T22:38:33.266Z,2,GR86-035-11,-26.5,0.011,-0.53,20.64,3.0,,0.0,0.0,
2025-08-14T22:38:33.309Z,2,GR86-035-11,-24.8,-0.018,-0.494,19.2,3.0,,0.0,0.0,
2025-08-14T22:38:33.352Z,2,GR86-035-11,-22.4,0.01,-0.48,18.37,3.0,,0.0,0.0,
2025-08-14T22:38:33.395Z,2,GR86-035-11,-17.900000000000002,0.071,-0.434,20.52,3.0,3991.0,0.0,0.0,
2025-08-14T22:38:33.438Z,2,GR86-035-11,-15.1,0.063,-0.407,21.13,3.0,,0.0,0.0,86.28
2025-08-14T22:38:33.481Z,2,GR86-035-11,-12.4,0.028,-0.359,18.17,3.0,,0.0,0.0,
2025-08-14T22:38:33.524Z,2,GR86-035-11,-9.0,0.04,-0.322,16.81,3.0,,0.0,0.0,
2025-08-14T22:38:33.567Z,2,GR86-035-11,-6.800000000000001,0.062,-0.26,19.87,3.0,,0.0,0.0,
2025-08-14T22:38:33.610Z,2,GR86-035-11,-3.4000000000000004,0.049,-0.218,21.75,3.0,4019.0,0.0,0.0,
2025-08-14T22:38:33.654Z,2,GR86-035-11,0.8,0.037,-0.164,19.23,3.0,,0.0,0.0,86.68
2025-08-14T22:38:33.697Z,2,GR86-035-11,4.9,0.078,-0.096,19.13,3.0,,0.0,0.0,
2025-08-14T22:38:33.740Z,2,GR86-035-11,7.800000000000001,0.091,-0.034,21.83,3.0,,0.0,0.0,
2025-08-14T22:38:33.783Z,2,GR86-035-11,10.2,0.078,0.025,20.46,3.0,,0.0,0.0,
2025-08-14T22:38:33.826Z,2,GR86-035-11,14.4,0.045,0.067,11.66,3.0,4045.0,0.0,0.0,
2025-08-14T22:38:33.869Z,2,GR86-035-11,17.0,0.072,0.127,16.23,3.0,,0.0,0.0,87.04
2025-08-14T22:38:33.912Z,2,GR86-035-11,20.4,0.069,0.177,22.29,3.0,,0.0,0.0,
2025-08-14T22:38:33.955Z,2,GR86-035-11,25.6,0.013,0.271,20.81,3.0,,0.0,0.0,
2025-08-14T22:38:33.998Z,2,GR86-035-11,29.200000000000003,0.03,0.319,8.8,3.0,,0.0,0.0,
2025-08-14T22:38:34.041Z,2,GR86-035-11,31.3,0.1,0.381,15.07,3.0,4090.0,0.0,0.0,
2025-08-14T22:38:34.084Z,2,GR86-035-11,32.4,0.095,0.431,21.46,3.0,,0.0,0.0,88.08
2025-08-14T22:38:34.127Z,2,GR86-035-11,33.2,0.008,0.483,18.49,3.0,,0.0,0.0,
2025-08-14T22:38:34.170Z,2,GR86-035-11,33.5,-0.013,0.507,9.42,3.0,,0.0,0.0,
2025-08-14T22:38:34.214Z,2,GR86-035-11,33.800000000000004,0.042,0.53,15.93,3.0,,0.0,0.0,
2025-08-14T22:38:34.257Z,2,GR86-035-11,33.800000000000004,0.041,0.586,6.44,3.0,4151.0,0.0,0.0,
2025-08-14T22:38:34.300Z,2,GR86-035-11,33.800000000000004,-0.012,0.606,4.21,3.0,,0.0,0.0,88.49
2025-08-14T22:38:34.343Z,2,GR86-035-11,33.800000000000004,-0.023,0.61,4.15,3.0,,0.0,0.0,
2025-08-14T22:38:34.386Z,2,GR86-035-11,33.800000000000004,-0.064,0.631,4.2,3.0,,0.0,0.0,
2025-08-14T22:38:34.429Z,2,GR86-035-11,33.800000000000004,-0.043,0.633,3.87,3.0,,0.0,0.0,
2025-08-14T22:38:34.472Z,2,GR86-035-11,33.800000000000004,-0.207,0.62,3.67,3.0,4105.0,0.0,0.0,
2025-08-14T22:38:34.515Z,2,GR86-035-11,33.800000000000004,-0.176,0.638,2.97,3.0,,0.0,0.0,88.66
2025-08-14T22:38:34.558Z,2,GR86-035-11,33.800000000000004,-0.069,0.625,2.84,3.0,,0.0,0.0,
2025-08-14T22:38:34.601Z,2,GR86-035-11,32.7,-0.078,0.647,2.78,3.0,,0.0,0.0,
2025-08-14T22:38:34.644Z,2,GR86-035-11,30.6,-0.077,0.636,2.72,3.0,,0.0,0.0,
2025-08-14T22:38:34.687Z,2,GR86-035-11,29.4,-0.147,0.601,2.66,3.0,3972.0,0.0,0.0,
2025-08-14T22:38:34.730Z,2,GR86-035-11,27.1,-0.143,0.595,2.62,3.0,,0.0,0.0,88.04
2025-08-14T22:38:34.773Z,2,GR86-035-11,25.4,-0.107,0.562,2.59,3.0,,0.0,0.0,
2025-08-14T22:38:34.817Z,2,GR86-035-11,20.8,-0.087,0.526,2.56,3.0,,0.0,0.0,
2025-08-14T22:38:34.860Z,2,GR86-035-11,18.3,-0.108,0.451,2.54,3.0,,0.0,0.0,
2025-08-14T22:38:34.903Z,2,GR86-035-11,14.7,-0.121,0.425,2.52,3.0,3959.0,0.0,0.0,
2025-08-14T22:38:34.946Z,2,GR86-035-11,10.2,-0.11,0.362,2.52,3.0,,0.0,0.0,87.21000000000001
2025-08-14T22:38:34.989Z,2,GR86-035-11,7.7,-0.091,0.298,2.49,3.0,,0.0,0.0,
2025-08-14T22:38:35.032Z,2,GR86-035-11,3.9,-0.099,0.229,2.49,3.0,,0.0,0.0,
2025-08-14T22:38:35.077Z,2,GR86-035-11,0.5,-0.118,0.146,2.46,3.0,,0.0,0.0,
2025-08-14T22:38:35.120Z,2,GR86-035-11,-1.9,-0.115,0.071,7.19,3.0,3932.0,0.0,0.0,
2025-08-14T22:38:35.163Z,2,GR86-035-11,-4.800000000000001,-0.104,0.024,10.09,3.0,,0.0,0.0,86.41
2025-08-14T22:38:35.206Z,2,GR86-035-11,-7.4,-0.102,-0.046,5.16,3.0,,0.0,0.0,
2025-08-14T22:38:35.249Z,2,GR86-035-11,-9.9,-0.099,-0.081,7.56,3.0,,0.0,0.0,
2025-08-14T22:38:35.292Z,2,GR86-035-11,-12.5,-0.069,-0.142,16.490000000000002,3.0,,0.0,0.0,
2025-08-14T22:38:35.380Z,2,GR86-035-11,-18.3,-0.068,-0.255,14.23,3.0,3945.0,0.0,0.0,85.68
2025-08-14T22:38:35.423Z,2,GR86-035-11,-20.5,-0.092,-0.266,17.02,3.0,,0.0,0.0,
2025-08-14T22:38:35.468Z,2,GR86-035-11,-22.5,-0.067,-0.337,17.05,3.0,,0.0,0.0,
2025-08-14T22:38:35.511Z,2,GR86-035-11,-24.4,-0.08,-0.35,14.03,3.0,,0.0,0.0,
2025-08-14T22:38:35.554Z,2,GR86-035-11,-26.6,-0.035,-0.389,12.97,3.0,3930.0,0.0,0.0,
2025-08-14T22:38:35.597Z,2,GR86-035-11,-28.6,0.15,-0.446,13.84,3.0,,0.0,0.0,85.14
2025-08-14T22:38:35.640Z,2,GR86-035-11,-29.700000000000003,-0.01,-0.473,18.33,3.0,,0.0,0.0,
2025-08-14T22:38:35.683Z,2,GR86-035-11,-30.5,-0.081,-0.483,18.86,3.0,,0.0,0.0,
2025-08-14T22:38:35.726Z,2,GR86-035-11,-31.200000000000003,-0.066,-0.528,18.5,3.0,,0.0,0.0,
2025-08-14T22:38:35.769Z,2,GR86-035-11,-32.2,-0.041,-0.522,18.48,3.0,3816.0,0.0,0.0,
2025-08-14T22:38:35.812Z,2,GR86-035-11,-33.0,0.079,-0.557,18.32,3.0,,0.0,0.0,84.87
2025-08-14T22:38:35.855Z,2,GR86-035-11,-33.5,0.043,-0.582,12.04,3.0,,0.0,0.0,
2025-08-14T22:38:35.899Z,2,GR86-035-11,-34.1,-0.007,-0.577,14.15,3.0,,0.0,0.0,
2025-08-14T22:38:35.942Z,2,GR86-035-11,-34.6,-0.024,-0.591,18.22,3.0,,0.0,0.0,
2025-08-14T22:38:35.985Z,2,GR86-035-11,-35.0,0.001,-0.595,18.45,3.0,3936.0,0.0,0.0,
2025-08-14T22:38:36.028Z,2,GR86-035-11,-35.1,0.007,-0.583,16.36,3.0,,0.0,0.0,85.02
2025-08-14T22:38:36.071Z,2,GR86-035-11,-35.1,0.006,-0.609,16.25,3.0,,0.0,0.0,
2025-08-14T22:38:36.113Z,2,GR86-035-11,-35.1,-0.003,-0.581,18.47,3.0,,0.0,0.0,
2025-08-14T22:38:36.157Z,2,GR86-035-11,-35.1,0.017,-0.61,19.18,3.0,,0.0,0.0,
2025-08-14T22:38:36.200Z,2,GR86-035-11,-35.1,0.027,-0.612,17.56,3.0,3960.0,0.0,0.0,
2025-08-14T22:38:36.243Z,2,GR86-035-11,-33.9,0.032,-0.619,17.21,3.0,,0.0,0.0,85.29
2025-08-14T22:38:36.286Z,2,GR86-035-11,-31.6,0.037,-0.599,18.44,3.0,,0.0,0.0,
2025-08-14T22:38:36.329Z,2,GR86-035-11,-28.9,0.036,-0.587,18.6,3.0,,0.0,0.0,
2025-08-14T22:38:36.372Z,2,GR86-035-11,-26.200000000000003,0.025,-0.533,11.5,3.0,,0.0,0.0,
2025-08-14T22:38:36.415Z,2,GR86-035-11,-22.1,0.03,-0.491,9.74,3.0,3983.0,0.0,0.0,
2025-08-14T22:38:36.458Z,2,GR86-035-11,-19.3,0.017,-0.472,18.33,3.0,,0.0,0.0,85.46000000000001
2025-08-14T22:38:36.501Z,2,GR86-035-11,-16.7,-0.025,-0.419,20.17,3.0,,0.0,0.0,
2025-08-14T22:38:36.544Z,2,GR86-035-11,-14.6,-0.025,-0.391,18.93,3.0,,0.0,0.0,
2025-08-14T22:38:36.587Z,2,GR86-035-11,-12.8,0.0,-0.363,18.06,3.0,,0.0,0.0,
2025-08-14T22:38:36.630Z,2,GR86-035-11,-11.2,0.041,-0.327,18.54,3.0,3974.0,0.0,0.0,
2025-08-14T22:38:36.673Z,2,GR86-035-11,-9.9,0.075,-0.306,19.11,3.0,,0.0,0.0,85.77
2025-08-14T22:38:36.717Z,2,GR86-035-11,-6.6000000000000005,0.045,-0.242,12.48,3.0,,0.0,0.0,
2025-08-14T22:38:36.760Z,2,GR86-035-11,-3.7,0.024,-0.201,15.98,3.0,,0.0,0.0,
2025-08-14T22:38:36.803Z,2,GR86-035-11,-0.5,0.041,-0.161,19.69,3.0,,0.0,0.0,
2025-08-14T22:38:36.846Z,2,GR86-035-11,3.1,0.024,-0.091,22.04,3.0,4026.0,0.0,0.0,
2025-08-14T22:38:36.889Z,2,GR86-035-11,6.9,0.018,-0.056,20.34,3.0,,0.0,0.0,86.29
2025-08-14T22:38:36.932Z,2,GR86-035-11,10.8,0.035,0.007,19.93,3.0,,0.0,0.0,
2025-08-14T22:38:36.977Z,2,GR86-035-11,16.8,0.099,0.08,21.91,3.0,,0.0,0.0,
2025-08-14T22:38:37.020Z,2,GR86-035-11,20.8,0.085,0.145,22.04,3.0,,0.0,0.0,
2025-08-14T22:38:37.063Z,2,GR86-035-11,24.700000000000003,0.064,0.205,21.03,3.0,3997.0,0.0,0.0,
2025-08-14T22:38:37.106Z,2,GR86-035-11,28.4,0.068,0.272,21.05,3.0,,0.0,0.0,86.73
2025-08-14T22:38:37.149Z,2,GR86-035-11,31.5,0.086,0.336,21.94,3.0,,0.0,0.0,
2025-08-14T22:38:37.192Z,2,GR86-035-11,34.2,0.073,0.409,21.98,3.0,,0.0,0.0,
2025-08-14T22:38:37.235Z,2,GR86-035-11,37.0,0.079,0.488,22.04,3.0,,0.0,0.0,
2025-08-14T22:38:37.278Z,2,GR86-035-11,38.0,0.08,0.535,22.06,3.0,4084.0,0.0,0.0,
2025-08-14T22:38:37.321Z,2,GR86-035-11,38.6,0.099,0.5750000000000001,22.07,3.0,,0.0,0.0,87.37
2025-08-14T22:38:37.364Z,2,GR86-035-11,38.6,0.09,0.604,22.07,3.0,,0.0,0.0,
2025-08-14T22:38:37.407Z,2,GR86-035-11,38.6,0.084,0.62,21.75,3.0,,0.0,0.0,
2025-08-14T22:38:37.450Z,2,GR86-035-11,38.6,0.082,0.651,21.88,3.0,,0.0,0.0,
2025-08-14T22:38:37.493Z,2,GR86-035-11,38.6,0.084,0.66,21.95,3.0,4124.0,0.0,0.0,
2025-08-14T22:38:37.536Z,2,GR86-035-11,38.6,0.076,0.663,17.89,3.0,,0.0,0.0,88.09
2025-08-14T22:38:37.580Z,2,GR86-035-11,38.6,0.077,0.665,6.38,3.0,,0.0,0.0,
2025-08-14T22:38:37.623Z,2,GR86-035-11,38.6,0.068,0.676,8.120000000000001,3.0,,0.0,0.0,
2025-08-14T22:38:37.666Z,2,GR86-035-11,38.6,0.027,0.672,21.13,3.0,,0.0,0.0,
2025-08-14T22:38:37.709Z,2,GR86-035-11,38.6,-0.033,0.684,19.59,3.0,4108.0,0.0,0.0,
2025-08-14T22:38:37.752Z,2,GR86-035-11,37.9,-0.022,0.666,6.97,3.0,,0.0,0.0,88.72
2025-08-14T22:38:37.795Z,2,GR86-035-11,35.800000000000004,0.033,0.677,16.28,3.0,,0.0,0.0,
2025-08-14T22:38:37.838Z,2,GR86-035-11,34.5,0.03,0.666,21.61,3.0,,0.0,0.0,
2025-08-14T22:38:37.881Z,2,GR86-035-11,33.2,-0.026,0.666,18.57,3.0,,0.0,0.0,
2025-08-14T22:38:37.924Z,2,GR86-035-11,31.700000000000003,-0.024,0.635,7.72,3.0,4100.0,0.0,0.0,
2025-08-14T22:38:37.967Z,2,GR86-035-11,29.8,0.029,0.623,11.87,3.0,,0.0,0.0,89.08
2025-08-14T22:38:38.010Z,2,GR86-035-11,27.5,0.055,0.595,5.46,3.0,,0.0,0.0,
2025-08-14T22:38:38.054Z,2,GR86-035-11,24.700000000000003,0.004,0.5680000000000001,3.86,3.0,,0.0,0.0,
2025-08-14T22:38:38.097Z,2,GR86-035-11,20.0,-0.05,0.509,3.83,3.0,,0.0,0.0,
2025-08-14T22:38:38.141Z,2,GR86-035-11,16.3,-0.031,0.461,3.75,3.0,4080.0,0.0,0.0,
2025-08-14T22:38:38.184Z,2,GR86-035-11,12.5,-0.245,0.382,3.49,3.0,,0.0,0.0,89.15
2025-08-14T22:38:38.227Z,2,GR86-035-11,8.6,-0.216,0.354,3.02,3.0,,0.0,0.0,
2025-08-14T22:38:38.270Z,2,GR86-035-11,4.5,-0.086,0.271,2.85,3.0,,0.0,0.0,
2025-08-14T22:38:38.356Z,2,GR86-035-11,-3.8,-0.08,0.129,2.68,3.0,4140.0,0.0,0.0,
2025-08-14T22:38:38.400Z,2,GR86-035-11,-6.4,-0.153,0.044,2.63,3.0,,0.0,0.0,89.13
2025-08-14T22:38:38.443Z,2,GR86-035-11,-9.0,-0.157,-0.013,2.59,3.0,,0.0,0.0,
2025-08-14T22:38:38.486Z,2,GR86-035-11,-12.2,-0.099,-0.081,2.57,3.0,,0.0,0.0,
2025-08-14T22:38:38.529Z,2,GR86-035-11,-14.8,-0.09,-0.147,2.54,3.0,,0.0,0.0,
2025-08-14T22:38:38.572Z,2,GR86-035-11,-17.400000000000002,-0.101,-0.202,2.52,3.0,4045.0,0.0,0.0,
2025-08-14T22:38:38.617Z,2,GR86-035-11,-21.1,-0.139,-0.283,2.49,3.0,,0.0,0.0,88.41
2025-08-14T22:38:38.661Z,2,GR86-035-11,-23.3,-0.14,-0.333,2.48,3.0,,0.0,0.0,
2025-08-14T22:38:38.704Z,2,GR86-035-11,-25.4,-0.12,-0.363,2.47,3.0,,0.0,0.0,
2025-08-14T22:38:38.747Z,2,GR86-035-11,-27.6,-0.124,-0.414,2.46,3.0,,0.0,0.0,
2025-08-14T22:38:38.790Z,2,GR86-035-11,-29.200000000000003,-0.136,-0.44,2.46,3.0,4009.0,0.0,0.0,
2025-08-14T22:38:38.833Z,2,GR86-035-11,-29.9,-0.142,-0.49,2.46,3.0,,0.0,0.0,87.74
2025-08-14T22:38:38.877Z,2,GR86-035-11,-30.5,-0.131,-0.525,2.44,3.0,,0.0,0.0,
2025-08-14T22:38:38.920Z,2,GR86-035-11,-30.8,-0.136,-0.532,2.44,3.0,,0.0,0.0,
2025-08-14T22:38:38.963Z,2,GR86-035-11,-31.200000000000003,-0.143,-0.559,2.44,3.0,,0.0,0.0,
2025-08-14T22:38:39.006Z,2,GR86-035-11,-31.9,-0.139,-0.562,2.46,3.0,3976.0,0.0,0.0,
2025-08-14T22:38:39.049Z,2,GR86-035-11,-32.2,-0.139,-0.581,3.92,3.0,,0.0,0.0,87.08
2025-08-14T22:38:39.092Z,2,GR86-035-11,-32.300000000000004,-0.145,-0.604,2.52,3.0,,0.0,0.0,
2025-08-14T22:38:39.135Z,2,GR86-035-11,-32.300000000000004,-0.135,-0.621,2.59,3.0,,0.0,0.0,
2025-08-14T22:38:39.179Z,2,GR86-035-11,-32.300000000000004,-0.142,-0.614,5.49,3.0,,0.0,0.0,
2025-08-14T22:38:39.222Z,2,GR86-035-11,-32.300000000000004,-0.134,-0.63,6.21,3.0,3937.0,0.0,0.0,
2025-08-14T22:38:39.265Z,2,GR86-035-11,-32.300000000000004,-0.136,-0.609,6.11,3.0,,0.0,0.0,86.42
2025-08-14T22:38:39.308Z,2,GR86-035-11,-32.300000000000004,-0.145,-0.626,6.11,3.0,,0.0,0.0,
2025-08-14T22:38:39.351Z,2,GR86-035-11,-32.300000000000004,-0.147,-0.613,6.15,3.0,,0.0,0.0,
2025-08-14T22:38:39.394Z,2,GR86-035-11,-32.300000000000004,-0.131,-0.621,6.11,3.0,,0.0,0.0,
2025-08-14T22:38:39.437Z,2,GR86-035-11,-32.300000000000004,-0.089,-0.578,6.07,3.0,3909.0,0.0,0.0,
2025-08-14T22:38:39.480Z,2,GR86-035-11,-31.9,-0.088,-0.599,6.09,3.0,,0.0,0.0,85.05
2025-08-14T22:38:39.523Z,2,GR86-035-11,-30.1,-0.097,-0.5670000000000001,6.17,3.0,,0.0,0.0,
2025-08-14T22:38:39.566Z,2,GR86-035-11,-27.8,-0.114,-0.5730000000000001,5.43,3.0,,0.0,0.0,
2025-08-14T22:38:39.609Z,2,GR86-035-11,-25.6,-0.122,-0.523,5.32,3.0,,0.0,0.0,
2025-08-14T22:38:39.652Z,2,GR86-035-11,-23.6,-0.118,-0.536,11.01,3.0,3912.0,0.0,0.0,
2025-08-14T22:38:39.695Z,2,GR86-035-11,-20.6,-0.105,-0.483,20.26,3.0,,0.0,0.0,84.47
2025-08-14T22:38:39.738Z,2,GR86-035-11,-18.1,-0.083,-0.478,20.22,3.0,,0.0,0.0,
2025-08-14T22:38:39.781Z,2,GR86-035-11,-15.6,-0.106,-0.42,20.07,3.0,,0.0,0.0,
2025-08-14T22:38:39.824Z,2,GR86-035-11,-12.5,-0.083,-0.395,20.92,3.0,,0.0,0.0,
2025-08-14T22:38:39.867Z,2,GR86-035-11,-8.8,-0.073,-0.35,21.31,3.0,3867.0,0.0,0.0,
2025-08-14T22:38:39.910Z,2,GR86-035-11,-4.800000000000001,0.104,-0.297,21.58,3.0,,0.0,0.0,83.97
2025-08-14T22:38:39.953Z,2,GR86-035-11,-0.8,0.304,-0.246,21.15,3.0,,0.0,0.0,
2025-08-14T22:38:39.997Z,2,GR86-035-11,4.4,0.031,-0.158,21.84,3.0,,0.0,0.0,
2025-08-14T22:38:40.040Z,2,GR86-035-11,8.0,-0.037,-0.077,21.91,3.0,,0.0,0.0,
2025-08-14T22:38:40.083Z,2,GR86-035-11,11.8,0.058,-0.031,21.96,3.0,3897.0,0.0,0.0,
2025-08-14T22:38:40.126Z,2,GR86-035-11,15.6,0.167,0.067,21.99,3.0,,0.0,0.0,84.0
2025-08-14T22:38:40.169Z,2,GR86-035-11,19.6,0.145,0.117,22.01,3.0,,0.0,0.0,
2025-08-14T22:38:40.212Z,2,GR86-035-11,23.5,0.063,0.188,22.02,3.0,,0.0,0.0,
2025-08-14T22:38:40.255Z,2,GR86-035-11,28.6,0.065,0.285,22.04,3.0,,0.0,0.0,
2025-08-14T22:38:40.298Z,2,GR86-035-11,31.3,0.109,0.344,22.05,3.0,3952.0,0.0,0.0,
2025-08-14T22:38:40.341Z,2,GR86-035-11,33.0,0.125,0.402,22.06,3.0,,0.0,0.0,84.76
2025-08-14T22:38:40.384Z,2,GR86-035-11,34.300000000000004,0.094,0.458,22.04,3.0,,0.0,0.0,
2025-08-14T22:38:40.427Z,2,GR86-035-11,35.6,0.068,0.494,22.04,3.0,,0.0,0.0,
2025-08-14T22:38:40.470Z,2,GR86-035-11,36.5,0.071,0.533,22.05,3.0,,0.0,0.0,
2025-08-14T22:38:40.513Z,2,GR86-035-11,37.3,0.091,0.561,22.04,3.0,4005.0,0.0,0.0,
2025-08-14T22:38:40.556Z,2,GR86-035-11,37.5,0.085,0.602,22.04,3.0,,0.0,0.0,85.54
2025-08-14T22:38:40.599Z,2,GR86-035-11,37.5,0.086,0.611,22.05,3.0,,0.0,0.0,
2025-08-14T22:38:40.642Z,2,GR86-035-11,37.5,0.082,0.613,22.04,3.0,,0.0,0.0,
2025-08-14T22:38:40.685Z,2,GR86-035-11,37.5,0.092,0.622,22.04,3.0,,0.0,0.0,
2025-08-14T22:38:40.728Z,2,GR86-035-11,37.5,0.086,0.624,22.06,3.0,4044.0,0.0,0.0,
2025-08-14T22:38:40.771Z,2,GR86-035-11,37.5,0.083,0.616,22.03,3.0,,0.0,0.0,86.32000000000001
2025-08-14T22:38:40.814Z,2,GR86-035-11,37.5,0.078,0.62,22.04,3.0,,0.0,0.0,
2025-08-14T22:38:40.857Z,2,GR86-035-11,37.5,0.097,0.606,22.04,3.0,,0.0,0.0,
2025-08-14T22:38:40.900Z,2,GR86-035-11,37.5,0.092,0.616,22.04,3.0,,0.0,0.0,
2025-08-14T22:38:40.943Z,2,GR86-035-11,37.5,0.085,0.607,22.03,3.0,4074.0,0.0,0.0,
2025-08-14T22:38:40.986Z,2,GR86-035-11,37.5,0.081,0.624,22.03,3.0,,0.0,0.0,87.0
2025-08-14T22:38:41.029Z,2,GR86-035-11,37.4,0.094,0.622,22.01,3.0,,0.0,0.0,
2025-08-14T22:38:41.072Z,2,GR86-035-11,35.7,0.091,0.63,22.01,3.0,,0.0,0.0,
2025-08-14T22:38:41.115Z,2,GR86-035-11,33.1,0.079,0.589,22.01,3.0,,0.0,0.0,
2025-08-14T22:38:41.158Z,2,GR86-035-11,30.9,0.089,0.584,22.02,3.0,4105.0,0.0,0.0,
2025-08-14T22:38:41.201Z,2,GR86-035-11,28.1,0.07,0.56,22.01,3.0,,0.0,0.0,87.58
2025-08-14T22:38:41.244Z,2,GR86-035-11,24.9,0.067,0.53,22.01,3.0,,0.0,0.0,
2025-08-14T22:38:41.287Z,2,GR86-035-11,20.8,0.079,0.488,22.01,3.0,,0.0,0.0,
2025-08-14T22:38:41.330Z,2,GR86-035-11,15.9,0.091,0.439,20.52,3.0,,0.0,0.0,
2025-08-14T22:38:41.373Z,2,GR86-035-11,10.9,0.091,0.379,21.66,3.0,4122.0,0.0,0.0,
2025-08-14T22:38:41.416Z,2,GR86-035-11,3.3000000000000003,0.084,0.269,21.85,3.0,,0.0,0.0,88.21000000000001
2025-08-14T22:38:41.460Z,2,GR86-035-11,-1.5,0.078,0.184,21.5,3.0,,0.0,0.0,
2025-08-14T22:38:41.503Z,2,GR86-035-11,-5.5,0.093,0.103,18.38,3.0,,0.0,0.0,
2025-08-14T22:38:41.546Z,2,GR86-035-11,-8.9,0.081,0.024,20.88,3.0,,0.0,0.0,
2025-08-14T22:38:41.589Z,2,GR86-035-11,-11.8,0.079,-0.044,21.73,3.0,4148.0,0.0,0.0,
2025-08-14T22:38:41.632Z,2,GR86-035-11,-15.0,0.047,-0.119,4.64,3.0,,0.0,0.0,88.84
2025-08-14T22:38:41.677Z,2,GR86-035-11,-19.1,0.058,-0.225,4.23,3.0,,0.0,0.0,
2025-08-14T22:38:41.720Z,2,GR86-035-11,-21.8,-0.058,-0.272,7.73,3.0,,0.0,0.0,
2025-08-14T22:38:41.849Z,2,GR86-035-11,-28.4,-0.267,-0.421,4.41,3.0,4170.0,0.0,0.0,89.48
2025-08-14T22:38:41.892Z,2,GR86-035-11,-30.6,-0.135,-0.454,4.3500000000000005,3.0,,0.0,0.0,
2025-08-14T22:38:41.935Z,2,GR86-035-11,-32.1,-0.095,-0.54,3.1,3.0,,0.0,0.0,
2025-08-14T22:38:42.021Z,2,GR86-035-11,-32.300000000000004,-0.091,-0.552,2.94,3.0,4113.0,0.0,0.0,
2025-08-14T22:38:42.063Z,2,GR86-035-11,-32.300000000000004,-0.182,-0.597,2.76,3.0,,0.0,0.0,89.89
2025-08-14T22:38:42.107Z,2,GR86-035-11,-32.300000000000004,-0.142,-0.625,2.69,3.0,,0.0,0.0,
2025-08-14T22:38:42.150Z,2,GR86-035-11,-32.300000000000004,-0.128,-0.628,2.65,3.0,,0.0,0.0,
2025-08-14T22:38:42.193Z,2,GR86-035-11,-32.300000000000004,-0.134,-0.64,2.59,3.0,,0.0,0.0,
2025-08-14T22:38:42.280Z,2,GR86-035-11,-32.300000000000004,-0.147,-0.621,2.5500000000000003,3.0,4044.0,0.0,0.0,88.57000000000001
2025-08-14T22:38:42.323Z,2,GR86-035-11,-32.300000000000004,-0.12,-0.63,11.09,3.0,,0.0,0.0,
2025-08-14T22:38:42.367Z,2,GR86-035-11,-31.5,-0.132,-0.622,10.85,3.0,,0.0,0.0,
2025-08-14T22:38:42.411Z,2,GR86-035-11,-29.6,-0.133,-0.618,10.85,3.0,,0.0,0.0,
2025-08-14T22:38:42.455Z,2,GR86-035-11,-25.5,-0.119,-0.5760000000000001,11.88,3.0,4028.0,0.0,0.0,
2025-08-14T22:38:42.499Z,2,GR86-035-11,-22.4,-0.068,-0.5720000000000001,12.18,3.0,,0.0,0.0,87.74
2025-08-14T22:38:42.542Z,2,GR86-035-11,-19.5,-0.083,-0.51,14.51,3.0,,0.0,0.0,
2025-08-14T22:38:42.585Z,2,GR86-035-11,-16.1,-0.072,-0.5,14.63,3.0,,0.0,0.0,
2025-08-14T22:38:42.671Z,2,GR86-035-11,-12.0,-0.045,-0.445,16.93,3.0,4023.0,0.0,0.0,
2025-08-14T22:38:42.714Z,2,GR86-035-11,-5.2,-0.054,-0.341,22.19,3.0,,0.0,0.0,87.06
2025-08-14T22:38:42.757Z,2,GR86-035-11,-2.1,-0.022,-0.248,22.26,3.0,,0.0,0.0,
2025-08-14T22:38:42.800Z,2,GR86-035-11,-1.2000000000000002,0.061,-0.193,22.26,3.0,,0.0,0.0,
2025-08-14T22:38:42.843Z,2,GR86-035-11,-0.5,0.117,-0.147,22.26,3.0,,0.0,0.0,
2025-08-14T22:38:42.886Z,2,GR86-035-11,0.4,0.098,-0.101,22.26,3.0,4071.0,0.0,0.0,
2025-08-14T22:38:42.929Z,2,GR86-035-11,1.6,0.06,-0.069,22.25,3.0,,0.0,0.0,86.82000000000001
2025-08-14T22:38:42.972Z,2,GR86-035-11,3.3000000000000003,0.052,-0.027,22.23,3.0,,0.0,0.0,
2025-08-14T22:38:43.015Z,2,GR86-035-11,7.0,0.104,0.025,22.2,3.0,,0.0,0.0,
2025-08-14T22:38:43.058Z,2,GR86-035-11,9.7,0.109,0.052,22.16,3.0,,0.0,0.0,
2025-08-14T22:38:43.101Z,2,GR86-035-11,11.9,0.076,0.096,22.15,3.0,4079.0,0.0,0.0,
2025-08-14T22:38:43.144Z,2,GR86-035-11,14.3,0.07,0.107,22.11,3.0,,0.0,0.0,87.23
2025-08-14T22:38:43.187Z,2,GR86-035-11,16.6,0.092,0.159,22.09,3.0,,0.0,0.0,
2025-08-14T22:38:43.230Z,2,GR86-035-11,19.1,0.098,0.183,22.07,3.0,,0.0,0.0,
2025-08-14T22:38:43.273Z,2,GR86-035-11,22.0,0.092,0.242,22.03,3.0,,0.0,0.0,
2025-08-14T22:38:43.317Z,2,GR86-035-11,25.1,0.079,0.298,22.01,3.0,4104.0,0.0,0.0,
2025-08-14T22:38:43.360Z,2,GR86-035-11,25.9,0.075,0.343,22.0,3.0,,0.0,0.0,87.96000000000001
2025-08-14T22:38:43.403Z,2,GR86-035-11,25.9,0.103,0.369,22.01,3.0,,0.0,0.0,
2025-08-14T22:38:43.446Z,2,GR86-035-11,25.9,0.091,0.399,21.98,3.0,,0.0,0.0,
2025-08-14T22:38:43.489Z,2,GR86-035-11,25.9,0.088,0.405,21.97,3.0,,0.0,0.0,
2025-08-14T22:38:43.532Z,2,GR86-035-11,25.9,0.077,0.432,21.97,3.0,4137.0,0.0,0.0,
2025-08-14T22:38:43.577Z,2,GR86-035-11,25.9,0.079,0.447,21.97,3.0,,0.0,0.0,88.65
2025-08-14T22:38:43.620Z,2,GR86-035-11,25.9,0.087,0.438,21.97,3.0,,0.0,0.0,
2025-08-14T22:38:43.663Z,2,GR86-035-11,26.200000000000003,0.088,0.452,21.98,3.0,,0.0,0.0,
2025-08-14T22:38:43.749Z,2,GR86-035-11,27.5,0.084,0.454,22.2,3.0,4168.0,0.0,0.0,
2025-08-14T22:38:43.792Z,2,GR86-035-11,28.0,0.084,0.46,22.21,3.0,,0.0,0.0,89.31
2025-08-14T22:38:43.835Z,2,GR86-035-11,28.1,0.08,0.46,22.29,3.0,,0.0,0.0,
2025-08-14T22:38:43.878Z,2,GR86-035-11,28.1,0.086,0.457,22.33,3.0,,0.0,0.0,
2025-08-14T22:38:43.921Z,2,GR86-035-11,28.1,0.076,0.48,22.32,3.0,,0.0,0.0,
2025-08-14T22:38:43.964Z,2,GR86-035-11,28.1,0.09,0.477,22.28,3.0,4196.0,0.0,0.0,
2025-08-14T22:38:44.007Z,2,GR86-035-11,27.6,0.093,0.476,22.28,3.0,,0.0,0.0,89.89
2025-08-14T22:38:44.050Z,2,GR86-035-11,26.3,0.092,0.474,23.08,3.0,,0.0,0.0,
2025-08-14T22:38:44.093Z,2,GR86-035-11,24.9,0.074,0.464,24.05,3.0,,0.0,0.0,
2025-08-14T22:38:44.180Z,2,GR86-035-11,19.200000000000003,0.099,0.407,23.2,3.0,4215.0,0.0,0.0,
2025-08-14T22:38:44.223Z,2,GR86-035-11,16.2,0.103,0.391,23.25,3.0,,0.0,0.0,90.48
2025-08-14T22:38:44.266Z,2,GR86-035-11,12.8,0.091,0.339,23.38,3.0,,0.0,0.0,
2025-08-14T22:38:44.309Z,2,GR86-035-11,9.3,0.09,0.29,22.88,3.0,,0.0,0.0,
2025-08-14T22:38:44.352Z,2,GR86-035-11,5.6000000000000005,0.083,0.23,22.6,3.0,,0.0,0.0,
2025-08-14T22:38:44.395Z,2,GR86-035-11,-0.1,0.091,0.133,23.71,3.0,4253.0,0.0,0.0,
2025-08-14T22:38:44.438Z,2,GR86-035-11,-3.3000000000000003,0.099,0.068,24.19,3.0,,0.0,0.0,91.12
2025-08-14T22:38:44.481Z,2,GR86-035-11,-6.6000000000000005,0.07,0.006,24.09,3.0,,0.0,0.0,
2025-08-14T22:38:44.524Z,2,GR86-035-11,-9.9,0.086,-0.055,23.97,3.0,,0.0,0.0,
2025-08-14T22:38:44.567Z,2,GR86-035-11,-13.2,0.097,-0.104,24.03,3.0,,0.0,0.0,
2025-08-14T22:38:44.610Z,2,GR86-035-11,-16.1,0.102,-0.156,24.1,3.0,4276.0,0.0,0.0,
2025-08-14T22:38:44.654Z,2,GR86-035-11,-18.9,0.082,-0.229,23.75,3.0,,0.0,0.0,91.81
2025-08-14T22:38:44.697Z,2,GR86-035-11,-21.700000000000003,0.069,-0.289,23.41,3.0,,0.0,0.0,
2025-08-14T22:38:44.741Z,2,GR86-035-11,-23.3,0.069,-0.349,23.57,3.0,,0.0,0.0,
2025-08-14T22:38:44.785Z,2,GR86-035-11,-25.0,0.083,-0.377,23.72,3.0,,0.0,0.0,
2025-08-14T22:38:44.828Z,2,GR86-035-11,-26.3,0.075,-0.419,23.26,3.0,4305.0,0.0,0.0,
2025-08-14T22:38:44.871Z,2,GR86-035-11,-27.4,0.067,-0.444,22.96,3.0,,0.0,0.0,92.36
2025-08-14T22:38:44.914Z,2,GR86-035-11,-28.4,0.069,-0.459,23.09,3.0,,0.0,0.0,
2025-08-14T22:38:44.957Z,2,GR86-035-11,-28.6,0.062,-0.504,23.83,3.0,,0.0,0.0,
2025-08-14T22:38:45.000Z,2,GR86-035-11,-28.6,0.071,-0.497,23.59,3.0,,0.0,0.0,
2025-08-14T22:38:45.043Z,2,GR86-035-11,-28.700000000000003,0.057,-0.521,23.48,3.0,4348.0,0.0,0.0,
2025-08-14T22:38:45.086Z,2,GR86-035-11,-28.700000000000003,0.076,-0.524,23.76,3.0,,0.0,0.0,93.75
2025-08-14T22:38:45.129Z,2,GR86-035-11,-28.8,0.07,-0.535,23.96,3.0,,0.0,0.0,
2025-08-14T22:38:45.172Z,2,GR86-035-11,-29.1,0.067,-0.521,23.59,3.0,,0.0,0.0,
2025-08-14T22:38:45.260Z,2,GR86-035-11,-29.200000000000003,0.074,-0.553,23.13,3.0,4382.0,0.0,0.0,
2025-08-14T22:38:45.347Z,2,GR86-035-11,-29.200000000000003,0.063,-0.562,23.25,3.0,,0.0,0.0,94.36
2025-08-14T22:38:45.390Z,2,GR86-035-11,-29.200000000000003,0.071,-0.559,22.92,3.0,,0.0,0.0,
2025-08-14T22:38:45.434Z,2,GR86-035-11,-29.200000000000003,0.062,-0.538,23.02,3.0,,0.0,0.0,
2025-08-14T22:38:45.477Z,2,GR86-035-11,-29.200000000000003,0.07,-0.56,23.48,3.0,4448.0,0.0,0.0,
2025-08-14T22:38:45.520Z,2,GR86-035-11,-29.200000000000003,0.063,-0.53,22.94,3.0,,0.0,0.0,95.03
2025-08-14T22:38:45.563Z,2,GR86-035-11,-28.3,0.061,-0.556,22.65,3.0,,0.0,0.0,
2025-08-14T22:38:45.606Z,2,GR86-035-11,-26.1,0.071,-0.537,22.77,3.0,,0.0,0.0,
2025-08-14T22:38:45.649Z,2,GR86-035-11,-23.6,0.074,-0.524,23.08,3.0,,0.0,0.0,
2025-08-14T22:38:45.692Z,2,GR86-035-11,-20.9,0.074,-0.496,22.98,3.0,4473.0,0.0,0.0,
2025-08-14T22:38:45.735Z,2,GR86-035-11,-16.400000000000002,0.079,-0.452,22.42,3.0,,0.0,0.0,95.65
2025-08-14T22:38:45.780Z,2,GR86-035-11,-13.0,0.084,-0.417,22.54,3.0,,0.0,0.0,
2025-08-14T22:38:45.823Z,2,GR86-035-11,-8.700000000000001,0.082,-0.368,22.8,3.0,,0.0,0.0,
2025-08-14T22:38:45.866Z,2,GR86-035-11,-3.3000000000000003,0.074,-0.327,22.61,3.0,,0.0,0.0,
2025-08-14T22:38:45.909Z,2,GR86-035-11,1.8,0.082,-0.245,22.38,3.0,4496.0,0.0,0.0,
2025-08-14T22:38:45.952Z,2,GR86-035-11,6.4,0.082,-0.166,22.57,3.0,,0.0,0.0,96.29
2025-08-14T22:38:45.995Z,2,GR86-035-11,12.3,0.086,-0.044,23.02,3.0,,0.0,0.0,
2025-08-14T22:38:46.038Z,2,GR86-035-11,15.7,0.094,0.028,22.48,3.0,,0.0,0.0,
2025-08-14T22:38:46.081Z,2,GR86-035-11,18.5,0.089,0.114,22.35,3.0,,0.0,0.0,
2025-08-14T22:38:46.124Z,2,GR86-035-11,20.9,0.091,0.173,22.49,3.0,4534.0,0.0,0.0,
2025-08-14T22:38:46.167Z,2,GR86-035-11,23.200000000000003,0.077,0.262,23.21,3.0,,0.0,0.0,97.03
2025-08-14T22:38:46.210Z,2,GR86-035-11,25.4,0.08,0.314,22.96,3.0,,0.0,0.0,
2025-08-14T22:38:46.253Z,2,GR86-035-11,27.5,0.079,0.383,22.46,3.0,,0.0,0.0,
2025-08-14T22:38:46.297Z,2,GR86-035-11,30.4,0.092,0.472,22.85,3.0,,0.0,0.0,
2025-08-14T22:38:46.340Z,2,GR86-035-11,32.300000000000004,0.093,0.498,23.61,3.0,4569.0,0.0,0.0,
2025-08-14T22:38:46.426Z,2,GR86-035-11,35.0,0.083,0.5760000000000001,22.74,3.0,,0.0,0.0,97.77
2025-08-14T22:38:46.469Z,2,GR86-035-11,35.300000000000004,0.08,0.6,22.95,3.0,,0.0,0.0,
2025-08-14T22:38:46.512Z,2,GR86-035-11,35.300000000000004,0.092,0.624,24.07,3.0,,0.0,0.0,
2025-08-14T22:38:46.555Z,2,GR86-035-11,35.300000000000004,0.092,0.614,23.73,3.0,4611.0,0.0,0.0,
2025-08-14T22:38:46.598Z,2,GR86-035-11,35.300000000000004,0.078,0.641,23.47,3.0,,0.0,0.0,98.49
2025-08-14T22:38:46.641Z,2,GR86-035-11,35.300000000000004,0.088,0.64,23.9,3.0,,0.0,0.0,
2025-08-14T22:38:46.684Z,2,GR86-035-11,35.4,0.087,0.665,24.41,3.0,,0.0,0.0,
2025-08-14T22:38:46.727Z,2,GR86-035-11,35.300000000000004,0.08,0.677,24.35,3.0,,0.0,0.0,
2025-08-14T22:38:46.770Z,2,GR86-035-11,35.300000000000004,0.095,0.664,24.03,3.0,4640.0,0.0,0.0,
2025-08-14T22:38:46.813Z,2,GR86-035-11,35.300000000000004,0.095,0.6940000000000001,24.14,3.0,,0.0,0.0,99.07
2025-08-14T22:38:46.856Z,2,GR86-035-11,35.300000000000004,0.09,0.676,24.63,3.0,,0.0,0.0,
2025-08-14T22:38:46.899Z,2,GR86-035-11,35.300000000000004,0.088,0.679,24.47,3.0,,0.0,0.0,
2025-08-14T22:38:46.942Z,2,GR86-035-11,34.300000000000004,0.093,0.68,24.29,3.0,,0.0,0.0,
2025-08-14T22:38:46.985Z,2,GR86-035-11,32.9,0.099,0.654,24.41,3.0,4667.0,0.0,0.0,
2025-08-14T22:38:47.028Z,2,GR86-035-11,31.5,0.092,0.669,24.87,3.0,,0.0,0.0,99.65
2025-08-14T22:38:47.071Z,2,GR86-035-11,30.1,0.092,0.616,24.74,3.0,,0.0,0.0,
2025-08-14T22:38:47.113Z,2,GR86-035-11,28.4,0.093,0.632,24.38,3.0,,0.0,0.0,
2025-08-14T22:38:47.157Z,2,GR86-035-11,24.1,0.111,0.586,24.66,3.0,,0.0,0.0,
2025-08-14T22:38:47.200Z,2,GR86-035-11,20.3,0.115,0.518,24.8,3.0,4687.0,0.0,0.0,
2025-08-14T22:38:47.243Z,2,GR86-035-11,15.7,0.094,0.516,24.05,3.0,,0.0,0.0,100.26
2025-08-14T22:38:47.286Z,2,GR86-035-11,11.2,0.098,0.423,23.19,3.0,,0.0,0.0,
2025-08-14T22:38:47.329Z,2,GR86-035-11,6.7,0.105,0.381,23.71,3.0,,0.0,0.0,
2025-08-14T22:38:47.372Z,2,GR86-035-11,2.0,0.098,0.281,24.28,3.0,,0.0,0.0,
2025-08-14T22:38:47.415Z,2,GR86-035-11,-2.7,0.084,0.155,23.57,3.0,4713.0,0.0,0.0,
2025-08-14T22:38:47.458Z,2,GR86-035-11,-4.6000000000000005,0.087,0.109,23.57,3.0,,0.0,0.0,100.92
2025-08-14T22:38:47.501Z,2,GR86-035-11,-6.300000000000001,0.102,0.014,24.34,3.0,,0.0,0.0,
2025-08-14T22:38:47.587Z,2,GR86-035-11,-7.6,0.096,-0.037,25.67,3.0,,0.0,0.0,
2025-08-14T22:38:47.630Z,2,GR86-035-11,-11.0,0.091,-0.145,26.11,3.0,4745.0,0.0,0.0,
2025-08-14T22:38:47.673Z,2,GR86-035-11,-12.9,0.096,-0.195,26.19,3.0,,0.0,0.0,101.56
2025-08-14T22:38:47.717Z,2,GR86-035-11,-16.2,0.103,-0.268,26.51,3.0,,0.0,0.0,
2025-08-14T22:38:47.760Z,2,GR86-035-11,-18.0,0.094,-0.31,26.84,3.0,,0.0,0.0,
2025-08-14T22:38:47.803Z,2,GR86-035-11,-19.3,0.082,-0.344,27.49,3.0,,0.0,0.0,
2025-08-14T22:38:47.846Z,2,GR86-035-11,-20.4,0.104,-0.384,28.08,3.0,4789.0,0.0,0.0,
2025-08-14T22:38:47.889Z,2,GR86-035-11,-21.1,0.096,-0.378,28.19,3.0,,0.0,0.0,102.91
2025-08-14T22:38:47.932Z,2,GR86-035-11,-21.9,0.099,-0.419,28.22,3.0,,0.0,0.0,
2025-08-14T22:38:47.977Z,2,GR86-035-11,-23.4,0.11,-0.446,28.21,3.0,,0.0,0.0,
2025-08-14T22:38:48.020Z,2,GR86-035-11,-24.200000000000003,0.093,-0.453,28.2,3.0,,0.0,0.0,
2025-08-14T22:38:48.063Z,2,GR86-035-11,-24.700000000000003,0.099,-0.483,28.17,3.0,4820.0,0.0,0.0,
2025-08-14T22:38:48.106Z,2,GR86-035-11,-24.8,0.09,-0.493,28.15,3.0,,0.0,0.0,103.69
2025-08-14T22:38:48.149Z,2,GR86-035-11,-24.9,0.091,-0.501,28.16,3.0,,0.0,0.0,
2025-08-14T22:38:48.192Z,2,GR86-035-11,-24.9,0.108,-0.525,28.18,3.0,,0.0,0.0,
2025-08-14T22:38:48.235Z,2,GR86-035-11,-25.1,0.106,-0.527,28.15,3.0,,0.0,0.0,
2025-08-14T22:38:48.278Z,2,GR86-035-11,-25.5,0.092,-0.532,28.18,3.0,4901.0,0.0,0.0,
2025-08-14T22:38:48.321Z,2,GR86-035-11,-25.5,0.11,-0.546,28.16,3.0,,0.0,0.0,104.52
2025-08-14T22:38:48.364Z,2,GR86-035-11,-25.5,0.094,-0.549,28.15,3.0,,0.0,0.0,
2025-08-14T22:38:48.407Z,2,GR86-035-11,-25.5,0.102,-0.5660000000000001,28.16,3.0,,0.0,0.0,
2025-08-14T22:38:48.450Z,2,GR86-035-11,-25.5,0.092,-0.556,28.15,3.0,,0.0,0.0,
2025-08-14T22:38:48.493Z,2,GR86-035-11,-25.5,0.101,-0.557,28.18,3.0,4945.0,0.0,0.0,
2025-08-14T22:38:48.536Z,2,GR86-035-11,-24.6,0.1,-0.545,28.17,3.0,,0.0,0.0,105.32
2025-08-14T22:38:48.580Z,2,GR86-035-11,-24.1,0.094,-0.53,28.15,3.0,,0.0,0.0,
2025-08-14T22:38:48.623Z,2,GR86-035-11,-23.6,0.081,-0.538,28.15,3.0,,0.0,0.0,
2025-08-14T22:38:48.667Z,2,GR86-035-11,-22.8,0.117,-0.543,28.16,3.0,,0.0,0.0,
2025-08-14T22:38:48.754Z,2,GR86-035-11,-18.4,0.105,-0.527,28.15,3.0,4992.0,0.0,0.0,106.1
2025-08-14T22:38:48.797Z,2,GR86-035-11,-14.4,0.113,-0.476,28.16,3.0,,0.0,0.0,
2025-08-14T22:38:48.840Z,2,GR86-035-11,-10.9,0.099,-0.428,28.2,3.0,,0.0,0.0,
2025-08-14T22:38:48.926Z,2,GR86-035-11,-6.7,0.113,-0.391,28.31,3.0,5020.0,0.0,0.0,
2025-08-14T22:38:48.970Z,2,GR86-035-11,-0.3,0.097,-0.272,30.07,3.0,,0.0,0.0,107.0
2025-08-14T22:38:49.013Z,2,GR86-035-11,1.7000000000000002,0.125,-0.22,30.5,3.0,,0.0,0.0,
2025-08-14T22:38:49.056Z,2,GR86-035-11,4.6000000000000005,0.136,-0.117,32.0,3.0,,0.0,0.0,
2025-08-14T22:38:49.099Z,2,GR86-035-11,6.2,0.123,-0.062,33.32,3.0,,0.0,0.0,
2025-08-14T22:38:49.142Z,2,GR86-035-11,7.5,0.142,0.003,34.61,3.0,5057.0,0.0,0.0,
2025-08-14T22:38:49.185Z,2,GR86-035-11,8.3,0.143,0.052,36.06,3.0,,0.0,0.0,107.9
2025-08-14T22:38:49.228Z,2,GR86-035-11,9.0,0.151,0.095,37.13,3.0,,0.0,0.0,
2025-08-14T22:38:49.271Z,2,GR86-035-11,9.8,0.156,0.131,38.81,3.0,,0.0,0.0,
2025-08-14T22:38:49.313Z,2,GR86-035-11,10.0,0.151,0.144,45.52,3.0,,0.0,0.0,
2025-08-14T22:38:49.357Z,2,GR86-035-11,10.1,0.155,0.181,57.03,3.0,5109.0,0.0,0.0,
2025-08-14T22:38:49.443Z,2,GR86-035-11,10.1,0.18,0.207,84.3,3.0,,0.0,0.0,108.83
2025-08-14T22:38:49.486Z,2,GR86-035-11,10.1,0.214,0.201,99.69,3.0,,0.0,0.0,
2025-08-14T22:38:49.529Z,2,GR86-035-11,10.1,0.211,0.218,100.04,3.0,,0.0,0.0,
2025-08-14T22:38:49.572Z,2,GR86-035-11,10.1,0.2,0.206,100.02,3.0,5188.0,0.0,0.0,
2025-08-14T22:38:49.615Z,2,GR86-035-11,10.1,0.198,0.203,100.03,3.0,,0.0,0.0,109.94
2025-08-14T22:38:49.658Z,2,GR86-035-11,10.1,0.226,0.207,100.02,3.0,,0.0,0.0,
2025-08-14T22:38:49.701Z,2,GR86-035-11,10.1,0.191,0.204,100.01,3.0,,0.0,0.0,
2025-08-14T22:38:49.745Z,2,GR86-035-11,10.1,0.203,0.213,100.01,3.0,,0.0,0.0,
2025-08-14T22:38:49.788Z,2,GR86-035-11,10.1,0.216,0.212,100.01,3.0,5253.0,0.0,0.0,
2025-08-14T22:38:49.874Z,2,GR86-035-11,10.1,0.212,0.217,100.03,3.0,,0.0,0.0,111.26
2025-08-14T22:38:49.917Z,2,GR86-035-11,10.1,0.214,0.224,100.01,3.0,,0.0,0.0,
2025-08-14T22:38:49.960Z,2,GR86-035-11,10.1,0.193,0.221,100.0,3.0,,0.0,0.0,
2025-08-14T22:38:50.003Z,2,GR86-035-11,10.1,0.2,0.23,100.03,3.0,5318.0,0.0,0.0,
2025-08-14T22:38:50.046Z,2,GR86-035-11,10.1,0.221,0.23,100.03,3.0,,0.0,0.0,112.8
2025-08-14T22:38:50.089Z,2,GR86-035-11,10.1,0.192,0.231,100.01,3.0,,0.0,0.0,
2025-08-14T22:38:50.132Z,2,GR86-035-11,10.1,0.199,0.229,96.01,3.0,,0.0,0.0,
2025-08-14T22:38:50.177Z,2,GR86-035-11,8.9,0.204,0.219,93.69,3.0,,0.0,0.0,
2025-08-14T22:38:50.220Z,2,GR86-035-11,7.5,0.206,0.198,90.2,3.0,5396.0,0.0,0.0,
2025-08-14T22:38:50.263Z,2,GR86-035-11,6.300000000000001,0.19,0.191,75.28,3.0,,0.0,0.0,114.33
2025-08-14T22:38:50.306Z,2,GR86-035-11,5.6000000000000005,0.203,0.181,65.15,3.0,,0.0,0.0,
2025-08-14T22:38:50.349Z,2,GR86-035-11,5.300000000000001,0.21,0.151,63.23,3.0,,0.0,0.0,
2025-08-14T22:38:50.392Z,2,GR86-035-11,5.300000000000001,0.2,0.148,60.870000000000005,3.0,,0.0,0.0,
2025-08-14T22:38:50.435Z,2,GR86-035-11,5.300000000000001,0.183,0.13,50.95,3.0,5460.0,0.0,0.0,
2025-08-14T22:38:50.479Z,2,GR86-035-11,5.300000000000001,0.191,0.12,42.92,3.0,,0.0,0.0,117.38
2025-08-14T22:38:50.522Z,2,GR86-035-11,5.300000000000001,0.178,0.097,37.59,3.0,,0.0,0.0,
2025-08-14T22:38:50.565Z,2,GR86-035-11,5.2,0.168,0.103,33.69,3.0,,0.0,0.0,
2025-08-14T22:38:50.608Z,2,GR86-035-11,4.9,0.147,0.093,27.86,3.0,,0.0,0.0,
2025-08-14T22:38:50.651Z,2,GR86-035-11,4.6000000000000005,0.124,0.075,13.01,3.0,5525.0,0.0,0.0,
2025-08-14T22:38:50.695Z,2,GR86-035-11,4.1000000000000005,0.087,0.063,3.84,3.0,,0.0,0.0,118.84
2025-08-14T22:38:50.738Z,2,GR86-035-11,3.4000000000000004,-0.089,0.074,3.59,3.0,,0.0,0.0,
2025-08-14T22:38:50.781Z,2,GR86-035-11,2.6,-0.053,0.087,3.18,3.0,,0.0,0.0,
2025-08-14T22:38:50.824Z,2,GR86-035-11,1.9,-0.352,0.016,2.87,3.0,,0.0,0.0,
2025-08-14T22:38:50.867Z,2,GR86-035-11,1.3,-0.27,0.062,2.73,3.0,5560.0,0.0,0.0,
2025-08-14T22:38:50.910Z,2,GR86-035-11,1.0,-0.095,0.028,2.66,3.0,,0.0,0.0,119.82
2025-08-14T22:38:50.954Z,2,GR86-035-11,-0.2,-0.088,-0.03,2.63,3.0,,0.0,0.0,
2025-08-14T22:38:50.997Z,2,GR86-035-11,-2.0,-0.162,-0.026,2.59,3.0,,0.0,0.0,
2025-08-14T22:38:51.041Z,2,GR86-035-11,-2.5,-0.191,-0.068,2.58,3.0,,0.0,0.0,
2025-08-14T22:38:51.084Z,2,GR86-035-11,-3.2,-0.148,-0.056,2.56,3.0,5424.0,0.0,0.0,
2025-08-14T22:38:51.127Z,2,GR86-035-11,-4.7,-0.139,-0.107,2.56,3.0,,6.2700000000000005,6.335,119.14
2025-08-14T22:38:51.170Z,2,GR86-035-11,-6.0,-0.194,-0.108,2.56,3.0,,8.94,9.035,
2025-08-14T22:38:51.256Z,2,GR86-035-11,-7.5,-0.271,-0.15,2.53,3.0,,11.125,11.155,
2025-08-14T22:38:51.300Z,2,GR86-035-11,-12.1,-0.294,-0.243,2.5,3.0,5360.0,13.305,13.245,
2025-08-14T22:38:51.343Z,2,GR86-035-11,-13.5,-0.301,-0.266,2.49,3.0,,12.895,12.955,117.93
2025-08-14T22:38:51.386Z,2,GR86-035-11,-13.9,-0.324,-0.326,2.49,3.0,,11.84,12.145,
2025-08-14T22:38:51.429Z,2,GR86-035-11,-13.9,-0.285,-0.35,2.48,3.0,,7.37,7.86,
2025-08-14T22:38:51.472Z,2,GR86-035-11,-14.0,-0.198,-0.371,2.46,3.0,,2.64,3.065,
2025-08-14T22:38:51.517Z,2,GR86-035-11,-14.0,-0.166,-0.398,2.46,3.0,5275.0,0.0,0.0,
2025-08-14T22:38:51.560Z,2,GR86-035-11,-14.0,-0.174,-0.408,2.46,3.0,,0.0,0.0,115.96
2025-08-14T22:38:51.603Z,2,GR86-035-11,-14.5,-0.147,-0.414,2.46,3.0,,0.0,0.0,
2025-08-14T22:38:51.647Z,2,GR86-035-11,-15.2,-0.149,-0.432,2.46,3.0,,0.0,0.0,
2025-08-14T22:38:51.690Z,2,GR86-035-11,-16.6,-0.179,-0.453,2.46,3.0,,0.0,0.0,
2025-08-14T22:38:51.733Z,2,GR86-035-11,-18.8,-0.167,-0.448,2.46,3.0,5232.0,0.0,0.0,
2025-08-14T22:38:51.777Z,2,GR86-035-11,-23.200000000000003,-0.144,-0.485,2.46,3.0,,3.28,3.435,115.05
2025-08-14T22:38:51.820Z,2,GR86-035-11,-25.200000000000003,-0.195,-0.521,2.46,3.0,,6.515000000000001,6.515000000000001,
2025-08-14T22:38:51.863Z,2,GR86-035-11,-25.3,-0.256,-0.54,2.46,3.0,,8.88,8.635,
2025-08-14T22:38:51.906Z,2,GR86-035-11,-25.3,-0.281,-0.562,2.47,3.0,,9.125,9.34,
2025-08-14T22:38:51.949Z,2,GR86-035-11,-25.3,-0.271,-0.579,2.46,3.0,5192.0,9.125,9.4,
2025-08-14T22:38:51.992Z,2,GR86-035-11,-25.3,-0.249,-0.599,2.47,3.0,,8.575000000000001,8.88,114.21
2025-08-14T22:38:52.035Z,2,GR86-035-11,-26.3,-0.213,-0.64,2.46,3.0,,2.7,3.13,
2025-08-14T22:38:52.079Z,2,GR86-035-11,-27.3,-0.208,-0.659,2.47,3.0,,2.795,3.25,
2025-08-14T22:38:52.122Z,2,GR86-035-11,-30.0,-0.208,-0.687,2.47,3.0,,7.0200000000000005,7.17,
2025-08-14T22:38:52.165Z,2,GR86-035-11,-31.6,-0.258,-0.713,2.47,3.0,5115.0,9.905,9.905,
2025-08-14T22:38:52.208Z,2,GR86-035-11,-32.800000000000004,-0.277,-0.733,2.46,3.0,,10.865,10.805,112.54
2025-08-14T22:38:52.251Z,2,GR86-035-11,-33.0,-0.29,-0.759,2.47,3.0,,10.715,10.835,
2025-08-14T22:38:52.294Z,2,GR86-035-11,-33.0,-0.327,-0.769,2.46,3.0,,10.745,10.805,
2025-08-14T22:38:52.337Z,2,GR86-035-11,-33.1,-0.298,-0.785,2.48,3.0,,8.85,9.125,
2025-08-14T22:38:52.380Z,2,GR86-035-11,-33.300000000000004,-0.246,-0.803,2.47,3.0,5044.0,3.875,4.365,
2025-08-14T22:38:52.423Z,2,GR86-035-11,-35.0,-0.216,-0.812,2.46,3.0,,1.8,2.245,111.78
2025-08-14T22:38:52.466Z,2,GR86-035-11,-36.3,-0.202,-0.848,2.48,3.0,,0.0,0.0,
2025-08-14T22:38:52.509Z,2,GR86-035-11,-37.9,-0.171,-0.872,2.48,3.0,,0.0,0.0,
2025-08-14T22:38:52.552Z,2,GR86-035-11,-39.2,-0.19,-0.885,2.48,3.0,,0.0,0.0,
2025-08-14T22:38:52.638Z,2,GR86-035-11,-40.3,-0.159,-0.854,2.47,3.0,4982.0,0.0,0.0,110.77
2025-08-14T22:38:52.681Z,2,GR86-035-11,-40.8,-0.179,-0.865,2.47,3.0,,0.0,0.0,
2025-08-14T22:38:52.724Z,2,GR86-035-11,-41.0,-0.176,-0.871,2.48,3.0,,0.0,0.0,
2025-08-14T22:38:52.767Z,2,GR86-035-11,-41.0,-0.185,-0.862,2.47,3.0,,0.0,0.0,
2025-08-14T22:38:52.810Z,2,GR86-035-11,-41.400000000000006,-0.182,-0.848,2.48,3.0,4951.0,0.0,0.0,
2025-08-14T22:38:52.853Z,2,GR86-035-11,-42.2,-0.163,-0.882,2.47,3.0,,0.0,0.0,109.22
2025-08-14T22:38:52.897Z,2,GR86-035-11,-42.8,-0.165,-0.882,2.48,3.0,,0.0,0.0,
2025-08-14T22:38:52.940Z,2,GR86-035-11,-42.900000000000006,-0.186,-0.882,2.48,3.0,,0.0,0.0,
2025-08-14T22:38:52.983Z,2,GR86-035-11,-43.2,-0.18,-0.933,2.47,3.0,,0.0,0.0,
2025-08-14T22:38:53.026Z,2,GR86-035-11,-43.8,-0.18,-0.92,2.49,3.0,4897.0,0.0,0.0,
2025-08-14T22:38:53.069Z,2,GR86-035-11,-44.1,-0.185,-0.919,2.49,3.0,,0.0,0.0,108.17
2025-08-14T22:38:53.112Z,2,GR86-035-11,-44.400000000000006,-0.171,-0.908,2.48,3.0,,0.0,0.0,
2025-08-14T22:38:53.199Z,2,GR86-035-11,-44.7,-0.166,-0.914,2.48,3.0,,0.0,0.0,
2025-08-14T22:38:53.242Z,2,GR86-035-11,-44.7,-0.181,-0.955,2.48,3.0,4845.0,0.0,0.0,
2025-08-14T22:38:53.285Z,2,GR86-035-11,-43.3,-0.193,-0.931,12.24,3.0,,0.0,0.0,106.37
2025-08-14T22:38:53.328Z,2,GR86-035-11,-42.8,-0.168,-0.931,19.95,3.0,,0.0,0.0,
2025-08-14T22:38:53.371Z,2,GR86-035-11,-43.8,-0.168,-0.93,20.29,3.0,,0.0,0.0,
2025-08-14T22:38:53.414Z,2,GR86-035-11,-47.6,-0.127,-0.946,20.67,3.0,,0.0,0.0,
2025-08-14T22:38:53.457Z,2,GR86-035-11,-55.8,-0.117,-0.964,21.21,3.0,4783.0,0.0,0.0,
2025-08-14T22:38:53.500Z,2,GR86-035-11,-58.6,-0.067,-0.955,21.52,3.0,,0.0,0.0,105.49
2025-08-14T22:38:53.543Z,2,GR86-035-11,-61.2,0.104,-0.949,21.76,3.0,,0.0,0.0,
2025-08-14T22:38:53.586Z,2,GR86-035-11,-61.2,0.039,-0.984,22.2,3.0,,0.0,0.0,
2025-08-14T22:38:53.629Z,2,GR86-035-11,-61.2,-0.043,-1.016,24.66,3.0,,0.0,0.0,
2025-08-14T22:38:53.672Z,2,GR86-035-11,-61.2,0.004,-0.878,27.55,3.0,4884.0,0.0,0.0,
2025-08-14T22:38:53.715Z,2,GR86-035-11,-61.2,0.083,-0.905,27.77,3.0,,0.0,0.0,104.79
2025-08-14T22:38:53.758Z,2,GR86-035-11,-61.2,0.033,-0.9,27.47,3.0,,0.0,0.0,
2025-08-14T22:38:53.844Z,2,GR86-035-11,-61.7,0.047,-0.962,27.48,3.0,,0.0,0.0,
2025-08-14T22:38:53.887Z,2,GR86-035-11,-61.900000000000006,0.042,-0.983,27.54,3.0,4912.0,0.0,0.0,
2025-08-14T22:38:53.930Z,2,GR86-035-11,-61.900000000000006,0.044,-0.951,27.86,3.0,,0.0,0.0,104.72
2025-08-14T22:38:53.973Z,2,GR86-035-11,-62.0,0.048,-0.938,28.47,3.0,,0.0,0.0,
2025-08-14T22:38:54.017Z,2,GR86-035-11,-62.0,0.035,-0.941,28.68,3.0,,0.0,0.0,
2025-08-14T22:38:54.060Z,2,GR86-035-11,-62.0,0.039,-0.97,28.77,3.0,,0.0,0.0,
2025-08-14T22:38:54.103Z,2,GR86-035-11,-62.0,0.059,-0.97,29.45,3.0,4925.0,0.0,0.0,
2025-08-14T22:38:54.146Z,2,GR86-035-11,-60.7,0.072,-1.015,32.8,3.0,,0.0,0.0,105.23
2025-08-14T22:38:54.189Z,2,GR86-035-11,-57.6,0.053,-0.945,36.64,3.0,,0.0,0.0,
2025-08-14T22:38:54.232Z,2,GR86-035-11,-55.8,0.071,-0.989,40.58,3.0,,0.0,0.0,
2025-08-14T22:38:54.277Z,2,GR86-035-11,-55.0,0.1,-0.936,46.48,3.0,,0.0,0.0,
2025-08-14T22:38:54.320Z,2,GR86-035-11,-52.2,0.102,-0.971,49.59,3.0,4973.0,0.0,0.0,
2025-08-14T22:38:54.363Z,2,GR86-035-11,-48.1,0.137,-0.957,52.8,3.0,,0.0,0.0,105.79
2025-08-14T22:38:54.406Z,2,GR86-035-11,-44.5,0.135,-0.944,52.31,3.0,,0.0,0.0,
2025-08-14T22:38:54.449Z,2,GR86-035-11,-43.5,0.137,-0.933,50.93,3.0,,0.0,0.0,
2025-08-14T22:38:54.492Z,2,GR86-035-11,-43.5,0.155,-0.947,50.4,3.0,,0.0,0.0,
2025-08-14T22:38:54.535Z,2,GR86-035-11,-43.5,0.152,-0.924,42.37,3.0,5025.0,0.0,0.0,
2025-08-14T22:38:54.578Z,2,GR86-035-11,-42.400000000000006,0.129,-0.912,38.39,3.0,,0.0,0.0,106.42
2025-08-14T22:38:54.621Z,2,GR86-035-11,-41.400000000000006,0.145,-0.927,38.93,3.0,,0.0,0.0,
2025-08-14T22:38:54.664Z,2,GR86-035-11,-40.900000000000006,0.128,-0.919,39.87,3.0,,0.0,0.0,
2025-08-14T22:38:54.707Z,2,GR86-035-11,-40.900000000000006,0.107,-0.949,41.21,3.0,,0.0,0.0,
2025-08-14T22:38:54.750Z,2,GR86-035-11,-42.8,0.113,-0.94,48.71,3.0,5058.0,0.0,0.0,
2025-08-14T22:38:54.793Z,2,GR86-035-11,-44.7,0.116,-0.955,56.17,3.0,,0.0,0.0,107.33
2025-08-14T22:38:54.836Z,2,GR86-035-11,-44.7,0.135,-0.921,75.12,3.0,,0.0,0.0,
2025-08-14T22:38:54.880Z,2,GR86-035-11,-42.1,0.158,-0.898,98.61,3.0,,0.0,0.0,
2025-08-14T22:38:54.923Z,2,GR86-035-11,-40.7,0.157,-0.888,100.01,3.0,,0.0,0.0,
2025-08-14T22:38:54.967Z,2,GR86-035-11,-40.7,0.154,-0.858,100.02,3.0,5102.0,0.0,0.0,
2025-08-14T22:38:55.010Z,2,GR86-035-11,-40.7,0.162,-0.842,100.03,3.0,,0.0,0.0,107.65
2025-08-14T22:38:55.053Z,2,GR86-035-11,-40.7,0.163,-0.846,100.02,3.0,,0.0,0.0,
2025-08-14T22:38:55.097Z,2,GR86-035-11,-40.7,0.163,-0.836,100.03,3.0,,0.0,0.0,
2025-08-14T22:38:55.140Z,2,GR86-035-11,-40.7,0.16,-0.874,100.02,3.0,,0.0,0.0,
2025-08-14T22:38:55.183Z,2,GR86-035-11,-40.2,0.151,-0.892,100.02,3.0,5145.0,0.0,0.0,
2025-08-14T22:38:55.226Z,2,GR86-035-11,-38.2,0.155,-0.881,100.02,3.0,,0.0,0.0,108.1
2025-08-14T22:38:55.269Z,2,GR86-035-11,-37.8,0.162,-0.861,100.03,3.0,,0.0,0.0,
2025-08-14T22:38:55.312Z,2,GR86-035-11,-37.8,0.167,-0.858,100.01,3.0,,0.0,0.0,
2025-08-14T22:38:55.355Z,2,GR86-035-11,-37.8,0.172,-0.844,100.01,3.0,,0.0,0.0,
2025-08-14T22:38:55.399Z,2,GR86-035-11,-37.8,0.163,-0.858,100.01,3.0,5197.0,0.0,0.0,
2025-08-14T22:38:55.442Z,2,GR86-035-11,-37.8,0.152,-0.833,99.98,3.0,,0.0,0.0,109.32
2025-08-14T22:38:55.485Z,2,GR86-035-11,-37.8,0.152,-0.833,100.0,3.0,,0.0,0.0,
2025-08-14T22:38:55.528Z,2,GR86-035-11,-37.8,0.168,-0.845,100.01,3.0,,0.0,0.0,
2025-08-14T22:38:55.571Z,2,GR86-035-11,-37.8,0.157,-0.834,100.0,3.0,,0.0,0.0,
2025-08-14T22:38:55.614Z,2,GR86-035-11,-37.8,0.149,-0.8230000000000001,100.0,3.0,5252.0,0.0,0.0,
2025-08-14T22:38:55.657Z,2,GR86-035-11,-37.7,0.161,-0.8180000000000001,99.99,3.0,,0.0,0.0,110.52
2025-08-14T22:38:55.700Z,2,GR86-035-11,-36.2,0.153,-0.843,99.99,3.0,,0.0,0.0,
2025-08-14T22:38:55.743Z,2,GR86-035-11,-34.7,0.147,-0.8130000000000001,100.01,3.0,,0.0,0.0,
2025-08-14T22:38:55.786Z,2,GR86-035-11,-34.0,0.17,-0.811,100.0,3.0,,0.0,0.0,
2025-08-14T22:38:55.829Z,2,GR86-035-11,-33.6,0.162,-0.803,100.01,3.0,5311.0,0.0,0.0,
2025-08-14T22:38:55.872Z,2,GR86-035-11,-32.9,0.145,-0.784,100.01,3.0,,0.0,0.0,111.7
2025-08-14T22:38:55.915Z,2,GR86-035-11,-32.1,0.155,-0.783,100.0,3.0,,0.0,0.0,
2025-08-14T22:38:55.958Z,2,GR86-035-11,-32.0,0.178,-0.777,100.01,3.0,,0.0,0.0,
2025-08-14T22:38:56.001Z,2,GR86-035-11,-31.9,0.166,-0.765,100.01,3.0,,0.0,0.0,
2025-08-14T22:38:56.044Z,2,GR86-035-11,-31.9,0.152,-0.76,100.0,3.0,5355.0,0.0,0.0,
2025-08-14T22:38:56.087Z,2,GR86-035-11,-31.9,0.164,-0.779,100.0,3.0,,0.0,0.0,113.83
2025-08-14T22:38:56.130Z,2,GR86-035-11,-31.9,0.166,-0.802,99.99,3.0,,0.0,0.0,
2025-08-14T22:38:56.173Z,2,GR86-035-11,-31.9,0.175,-0.799,93.19,3.0,,0.0,0.0,
2025-08-14T22:38:56.217Z,2,GR86-035-11,-33.2,0.165,-0.79,40.09,3.0,,0.0,0.0,
2025-08-14T22:38:56.260Z,2,GR86-035-11,-33.9,0.145,-0.791,35.49,3.0,5414.0,0.0,0.0,
2025-08-14T22:38:56.303Z,2,GR86-035-11,-34.1,0.126,-0.79,36.02,3.0,,0.0,0.0,115.14
2025-08-14T22:38:56.346Z,2,GR86-035-11,-34.2,0.119,-0.796,36.89,3.0,,0.0,0.0,
2025-08-14T22:38:56.389Z,2,GR86-035-11,-34.2,0.084,-0.778,42.25,3.0,,0.0,0.0,
2025-08-14T22:38:56.432Z,2,GR86-035-11,-34.2,0.083,-0.78,55.25,3.0,,0.0,0.0,
2025-08-14T22:38:56.477Z,2,GR86-035-11,-30.8,0.099,-0.776,73.04,3.0,5492.0,0.0,0.0,
2025-08-14T22:38:56.520Z,2,GR86-035-11,-27.5,0.137,-0.776,92.1,3.0,,0.0,0.0,116.3
2025-08-14T22:38:56.563Z,2,GR86-035-11,-24.5,0.149,-0.745,99.78,3.0,,0.0,0.0,
2025-08-14T22:38:56.606Z,2,GR86-035-11,-21.4,0.18,-0.713,99.98,3.0,,0.0,0.0,
2025-08-14T22:38:56.649Z,2,GR86-035-11,-18.7,0.209,-0.6890000000000001,100.03,3.0,,0.0,0.0,
2025-08-14T22:38:56.692Z,2,GR86-035-11,-17.0,0.169,-0.616,99.97,3.0,5552.0,0.0,0.0,
2025-08-14T22:38:56.735Z,2,GR86-035-11,-15.6,0.17,-0.541,99.99,3.0,,0.0,0.0,117.12
2025-08-14T22:38:56.778Z,2,GR86-035-11,-14.4,0.172,-0.514,99.99,3.0,,0.0,0.0,
2025-08-14T22:38:56.821Z,2,GR86-035-11,-12.8,0.181,-0.488,99.99,3.0,,0.0,0.0,
2025-08-14T22:38:56.864Z,2,GR86-035-11,-10.9,0.159,-0.465,100.0,3.0,,0.0,0.0,
2025-08-14T22:38:56.907Z,2,GR86-035-11,-9.2,0.19,-0.469,100.0,3.0,5622.0,0.0,0.0,
2025-08-14T22:38:56.993Z,2,GR86-035-11,-6.5,0.182,-0.384,99.99,3.0,,0.0,0.0,118.28
2025-08-14T22:38:57.036Z,2,GR86-035-11,-4.4,0.176,-0.321,100.01,3.0,,0.0,0.0,
2025-08-14T22:38:57.080Z,2,GR86-035-11,-3.4000000000000004,0.189,-0.295,100.02,3.0,,0.0,0.0,
2025-08-14T22:38:57.123Z,2,GR86-035-11,-3.0,0.215,-0.245,100.0,3.0,5660.0,0.0,0.0,
2025-08-14T22:38:57.166Z,2,GR86-035-11,-2.6,0.187,-0.179,100.0,3.0,,0.0,0.0,119.67
2025-08-14T22:38:57.209Z,2,GR86-035-11,-2.6,0.178,-0.16,99.99,3.0,,0.0,0.0,
2025-08-14T22:38:57.252Z,2,GR86-035-11,-2.6,0.203,-0.128,99.99,3.0,,0.0,0.0,
2025-08-14T22:38:57.295Z,2,GR86-035-11,-2.6,0.217,-0.097,100.02,3.0,,0.0,0.0,
2025-08-14T22:38:57.338Z,2,GR86-035-11,-2.6,0.183,-0.075,100.02,3.0,5717.0,0.0,0.0,
2025-08-14T22:38:57.381Z,2,GR86-035-11,-2.6,0.191,-0.078,100.03,3.0,,0.0,0.0,121.03
2025-08-14T22:38:57.424Z,2,GR86-035-11,-2.6,0.202,-0.077,99.99,3.0,,0.0,0.0,
2025-08-14T22:38:57.467Z,2,GR86-035-11,-2.1,0.179,-0.071,100.0,3.0,,0.0,0.0,
2025-08-14T22:38:57.510Z,2,GR86-035-11,-2.0,0.191,-0.06,100.02,3.0,,0.0,0.0,
2025-08-14T22:38:57.553Z,2,GR86-035-11,-2.0,0.203,-0.068,100.01,3.0,5777.0,0.0,0.0,
2025-08-14T22:38:57.596Z,2,GR86-035-11,-1.4,0.199,-0.058,100.0,3.0,,0.0,0.0,122.48
2025-08-14T22:38:57.639Z,2,GR86-035-11,-1.2000000000000002,0.194,-0.056,100.01,3.0,,0.0,0.0,
2025-08-14T22:38:57.682Z,2,GR86-035-11,-1.2000000000000002,0.197,-0.056,100.0,3.0,,0.0,0.0,
2025-08-14T22:38:57.725Z,2,GR86-035-11,-1.2000000000000002,0.192,-0.056,100.02,3.0,,0.0,0.0,
2025-08-14T22:38:57.768Z,2,GR86-035-11,-1.2000000000000002,0.194,-0.042,100.01,3.0,5844.0,0.0,0.0,
2025-08-14T22:38:57.811Z,2,GR86-035-11,-1.2000000000000002,0.175,-0.04,100.0,3.0,,0.0,0.0,123.88
2025-08-14T22:38:57.854Z,2,GR86-035-11,-1.2000000000000002,0.198,-0.044,100.0,3.0,,0.0,0.0,
2025-08-14T22:38:57.897Z,2,GR86-035-11,-1.2000000000000002,0.192,-0.032,100.01,3.0,,0.0,0.0,
2025-08-14T22:38:57.941Z,2,GR86-035-11,-1.2000000000000002,0.195,-0.034,100.0,3.0,,0.0,0.0,
2025-08-14T22:38:57.984Z,2,GR86-035-11,-1.2000000000000002,0.183,-0.03,100.01,3.0,5915.0,0.0,0.0,
2025-08-14T22:38:58.027Z,2,GR86-035-11,-1.2000000000000002,0.193,-0.033,100.0,3.0,,0.0,0.0,125.36
2025-08-14T22:38:58.070Z,2,GR86-035-11,-1.2000000000000002,0.201,-0.04,99.99,3.0,,0.0,0.0,
2025-08-14T22:38:58.113Z,2,GR86-035-11,-1.2000000000000002,0.2,-0.03,99.99,3.0,,0.0,0.0,
2025-08-14T22:38:58.156Z,2,GR86-035-11,-1.2000000000000002,0.188,-0.037,99.98,3.0,,0.0,0.0,
2025-08-14T22:38:58.199Z,2,GR86-035-11,-1.2000000000000002,0.174,-0.047,99.99,3.0,5982.0,0.0,0.0,
2025-08-14T22:38:58.242Z,2,GR86-035-11,-1.2000000000000002,0.206,-0.061,100.0,3.0,,0.0,0.0,126.82
2025-08-14T22:38:58.285Z,2,GR86-035-11,-1.2000000000000002,0.208,-0.059,100.01,3.0,,0.0,0.0,
2025-08-14T22:38:58.328Z,2,GR86-035-11,-1.2000000000000002,0.188,-0.058,100.01,3.0,,0.0,0.0,
2025-08-14T22:38:58.414Z,2,GR86-035-11,-1.2000000000000002,0.183,-0.077,100.01,3.0,6068.0,0.0,0.0,
2025-08-14T22:38:58.457Z,2,GR86-035-11,-1.2000000000000002,0.116,-0.072,100.01,3.0,,0.0,0.0,128.27
2025-08-14T22:38:58.500Z,2,GR86-035-11,-1.2000000000000002,-0.138,-0.023,100.01,4.0,,0.0,0.0,
2025-08-14T22:38:58.543Z,2,GR86-035-11,-0.8,0.189,-0.043,100.01,4.0,,0.0,0.0,
2025-08-14T22:38:58.586Z,2,GR86-035-11,0.0,0.225,-0.12,100.0,4.0,,0.0,0.0,
2025-08-14T22:38:58.629Z,2,GR86-035-11,0.1,0.271,-0.058,100.0,4.0,6050.0,0.0,0.0,
2025-08-14T22:38:58.672Z,2,GR86-035-11,0.1,0.213,-0.019,100.01,4.0,,0.0,0.0,129.82
2025-08-14T22:38:58.715Z,2,GR86-035-11,0.1,0.1,-0.058,100.01,4.0,,0.0,0.0,
2025-08-14T22:38:58.760Z,2,GR86-035-11,0.1,0.13,-0.001,100.02,4.0,,0.0,0.0,
2025-08-14T22:38:58.803Z,2,GR86-035-11,0.1,0.169,-0.059,100.02,4.0,,0.0,0.0,
2025-08-14T22:38:58.847Z,2,GR86-035-11,0.4,0.169,-0.019,100.02,4.0,5221.0,0.0,0.0,
2025-08-14T22:38:58.890Z,2,GR86-035-11,0.9,0.149,-0.002,100.01,4.0,,0.0,0.0,132.41
2025-08-14T22:38:58.933Z,2,GR86-035-11,0.9,0.136,-0.027,100.02,4.0,,0.0,0.0,
2025-08-14T22:38:58.977Z,2,GR86-035-11,0.9,0.165,0.0,100.02,4.0,,0.0,0.0,
2025-08-14T22:38:59.020Z,2,GR86-035-11,0.9,0.156,-0.012,100.01,4.0,,0.0,0.0,
2025-08-14T22:38:59.063Z,2,GR86-035-11,0.9,0.137,-0.011,100.0,4.0,5230.0,0.0,0.0,
2025-08-14T22:38:59.106Z,2,GR86-035-11,0.9,0.142,0.002,100.0,4.0,,0.0,0.0,133.73
2025-08-14T22:38:59.149Z,2,GR86-035-11,0.9,0.157,-0.006,100.01,4.0,,0.0,0.0,
2025-08-14T22:38:59.192Z,2,GR86-035-11,0.9,0.148,-0.009,100.02,4.0,,0.0,0.0,
2025-08-14T22:38:59.235Z,2,GR86-035-11,1.5,0.155,-0.011,100.01,4.0,,0.0,0.0,
2025-08-14T22:38:59.279Z,2,GR86-035-11,2.7,0.143,-0.014,100.02,4.0,5343.0,0.0,0.0,
2025-08-14T22:38:59.322Z,2,GR86-035-11,3.4000000000000004,0.132,0.023,100.0,4.0,,0.0,0.0,135.1
2025-08-14T22:38:59.365Z,2,GR86-035-11,3.7,0.151,0.025,100.01,4.0,,0.0,0.0,
2025-08-14T22:38:59.408Z,2,GR86-035-11,3.7,0.154,0.016,100.02,4.0,,0.0,0.0,
2025-08-14T22:38:59.452Z,2,GR86-035-11,3.7,0.147,0.028,99.99,4.0,,0.0,0.0,
2025-08-14T22:38:59.495Z,2,GR86-035-11,3.7,0.159,0.033,96.97,4.0,5406.0,0.0,0.0,
2025-08-14T22:38:59.538Z,2,GR86-035-11,3.7,0.136,0.077,96.52,4.0,,0.0,0.0,136.43
2025-08-14T22:38:59.581Z,2,GR86-035-11,3.8,0.136,0.093,96.27,4.0,,0.0,0.0,
2025-08-14T22:38:59.624Z,2,GR86-035-11,4.1000000000000005,0.167,0.074,88.87,4.0,,0.0,0.0,
2025-08-14T22:38:59.667Z,2,GR86-035-11,4.6000000000000005,0.163,0.071,80.79,4.0,,0.0,0.0,
2025-08-14T22:38:59.710Z,2,GR86-035-11,5.0,0.136,0.115,73.83,4.0,5467.0,0.0,0.0,
2025-08-14T22:38:59.754Z,2,GR86-035-11,5.0,0.126,0.134,63.2,4.0,,0.0,0.0,137.79
2025-08-14T22:38:59.797Z,2,GR86-035-11,5.0,0.136,0.133,57.94,4.0,,0.0,0.0,
2025-08-14T22:38:59.840Z,2,GR86-035-11,5.0,0.122,0.147,57.7,4.0,,0.0,0.0,
2025-08-14T22:38:59.883Z,2,GR86-035-11,5.0,0.153,0.13,59.22,4.0,,0.0,0.0,
2025-08-14T22:38:59.926Z,2,GR86-035-11,5.0,0.152,0.125,69.58,4.0,5504.0,0.0,0.0,
2025-08-14T22:38:59.969Z,2,GR86-035-11,5.0,0.128,0.145,75.39,4.0,,0.0,0.0,139.20000000000002
2025-08-14T22:39:00.012Z,2,GR86-035-11,5.0,0.123,0.159,73.45,4.0,,0.0,0.0,
2025-08-14T22:39:00.055Z,2,GR86-035-11,4.7,0.144,0.154,66.85,4.0,,0.0,0.0,
2025-08-14T22:39:00.098Z,2,GR86-035-11,4.3,0.134,0.152,58.53,4.0,,0.0,0.0,
2025-08-14T22:39:00.141Z,2,GR86-035-11,4.2,0.147,0.119,49.97,4.0,5580.0,0.0,0.0,
2025-08-14T22:39:00.185Z,2,GR86-035-11,4.2,0.158,0.115,44.54,4.0,,0.0,0.0,140.58
2025-08-14T22:39:00.228Z,2,GR86-035-11,4.1000000000000005,0.126,0.124,44.13,4.0,,0.0,0.0,
2025-08-14T22:39:00.271Z,2,GR86-035-11,4.1000000000000005,0.087,0.129,32.97,4.0,,0.0,0.0,
2025-08-14T22:39:00.314Z,2,GR86-035-11,3.9,0.079,0.106,4.58,4.0,,0.0,0.0,
2025-08-14T22:39:00.357Z,2,GR86-035-11,3.4000000000000004,0.023,0.091,3.77,4.0,5600.0,0.0,0.0,
2025-08-14T22:39:00.400Z,2,GR86-035-11,2.9000000000000004,-0.132,0.09,3.45,4.0,,0.0,0.0,142.15
2025-08-14T22:39:00.443Z,2,GR86-035-11,2.6,-0.135,0.057,3.0,4.0,,0.0,0.0,
2025-08-14T22:39:00.486Z,2,GR86-035-11,2.4000000000000004,-0.327,0.028,2.84,4.0,,0.0,0.0,
2025-08-14T22:39:00.529Z,2,GR86-035-11,2.4000000000000004,-0.162,0.065,2.73,4.0,,6.15,6.365,
2025-08-14T22:39:00.572Z,2,GR86-035-11,2.4000000000000004,-0.13,0.029,2.63,4.0,5326.0,7.140000000000001,7.140000000000001,
2025-08-14T22:39:00.615Z,2,GR86-035-11,2.4000000000000004,-0.256,0.044,2.61,4.0,,9.155,9.095,143.41
2025-08-14T22:39:00.658Z,2,GR86-035-11,2.4000000000000004,-0.303,0.007,2.58,4.0,,10.715,10.865,
2025-08-14T22:39:00.701Z,2,GR86-035-11,2.4000000000000004,-0.262,-0.005,2.57,4.0,,12.42,12.36,
2025-08-14T22:39:00.745Z,2,GR86-035-11,2.4000000000000004,-0.275,-0.011,2.56,4.0,,13.46,13.335,
2025-08-14T22:39:00.788Z,2,GR86-035-11,2.4000000000000004,-0.306,-0.009,2.54,4.0,5474.0,13.64,13.825,
2025-08-14T22:39:00.831Z,2,GR86-035-11,2.4000000000000004,-0.316,0.005,2.54,4.0,,13.705,13.95,143.16
2025-08-14T22:39:00.874Z,2,GR86-035-11,2.4000000000000004,-0.306,-0.022,2.5500000000000003,4.0,,14.33,14.36,
2025-08-14T22:39:00.917Z,2,GR86-035-11,2.4000000000000004,-0.402,-0.027,2.53,4.0,,18.68,18.68,
2025-08-14T22:39:01.003Z,2,GR86-035-11,2.4000000000000004,-0.406,-0.053,2.52,4.0,5424.0,22.645,22.555,
2025-08-14T22:39:01.046Z,2,GR86-035-11,2.4000000000000004,-0.534,-0.035,2.51,4.0,,31.71,31.48,141.54
2025-08-14T22:39:01.089Z,2,GR86-035-11,2.4000000000000004,-0.606,-0.033,2.49,4.0,,36.12,35.800000000000004,
2025-08-14T22:39:01.132Z,2,GR86-035-11,2.4000000000000004,-0.662,-0.043,2.49,4.0,,41.735,41.31,
2025-08-14T22:39:01.177Z,2,GR86-035-11,2.4000000000000004,-0.767,-0.035,2.49,4.0,,49.73,49.17,
2025-08-14T22:39:01.220Z,2,GR86-035-11,2.5,-0.848,-0.058,2.49,4.0,5337.0,54.175,53.515,
2025-08-14T22:39:01.263Z,2,GR86-035-11,2.9000000000000004,-0.941,-0.053,2.49,4.0,,57.895,57.24,139.59
2025-08-14T22:39:01.306Z,2,GR86-035-11,2.9000000000000004,-0.997,-0.047,2.48,4.0,,60.58,59.985,
2025-08-14T22:39:01.349Z,2,GR86-035-11,3.4000000000000004,-1.039,-0.073,2.46,4.0,,63.085,62.305,
2025-08-14T22:39:01.392Z,2,GR86-035-11,4.4,-1.076,-0.083,2.46,4.0,,65.205,64.58,
2025-08-14T22:39:01.435Z,2,GR86-035-11,5.300000000000001,-1.132,-0.091,2.46,4.0,5072.0,67.39,66.76,
2025-08-14T22:39:01.478Z,2,GR86-035-11,6.800000000000001,-1.11,-0.073,2.46,4.0,,67.525,67.42,128.55
2025-08-14T22:39:01.521Z,2,GR86-035-11,8.3,-1.086,-0.09,2.48,4.0,,67.465,67.205,
2025-08-14T22:39:01.565Z,2,GR86-035-11,10.0,-0.989,-0.086,2.48,4.0,,66.64,66.7,
2025-08-14T22:39:01.610Z,2,GR86-035-11,10.7,-1.032,-0.072,2.48,4.0,,68.565,68.275,
2025-08-14T22:39:01.653Z,2,GR86-035-11,9.6,-1.106,-0.082,2.47,4.0,4793.0,69.905,69.34,
2025-08-14T22:39:01.697Z,2,GR86-035-11,7.0,-1.173,-0.026,2.48,4.0,,67.815,68.06,121.94
2025-08-14T22:39:01.740Z,2,GR86-035-11,7.0,-1.173,0.052,2.47,4.0,,68.47,68.47,
2025-08-14T22:39:01.783Z,2,GR86-035-11,6.800000000000001,-1.179,0.066,2.48,4.0,,69.83,69.615,
2025-08-14T22:39:01.826Z,2,GR86-035-11,6.1000000000000005,-1.207,0.052,2.47,4.0,,71.295,70.685,
2025-08-14T22:39:01.869Z,2,GR86-035-11,6.1000000000000005,-1.194,0.09,2.47,4.0,4450.0,72.515,71.95,
2025-08-14T22:39:01.912Z,2,GR86-035-11,5.800000000000001,-1.243,0.053,2.47,4.0,,73.46000000000001,72.83500000000001,114.16
2025-08-14T22:39:01.955Z,2,GR86-035-11,5.0,-1.252,0.044,2.47,4.0,,74.285,73.815,
2025-08-14T22:39:02.000Z,2,GR86-035-11,5.0,-1.189,0.035,2.48,4.0,,74.44,74.055,
2025-08-14T22:39:02.043Z,2,GR86-035-11,5.7,-1.185,0.009,2.48,4.0,,68.18,69.58500000000001,
2025-08-14T22:39:02.086Z,2,GR86-035-11,5.7,-1.15,0.028,2.49,4.0,3880.0,53.120000000000005,55.21,
2025-08-14T22:39:02.129Z,2,GR86-035-11,5.7,-0.801,0.122,2.48,4.0,,35.405,36.93,105.12
2025-08-14T22:39:02.172Z,2,GR86-035-11,5.7,-0.669,0.057,2.48,4.0,,19.395,20.385,
2025-08-14T22:39:02.215Z,2,GR86-035-11,5.1000000000000005,-0.255,0.084,2.49,4.0,,3.845,4.3950000000000005,
2025-08-14T22:39:02.258Z,2,GR86-035-11,3.5,-0.07,0.048,2.47,4.0,,0.0,0.0,
2025-08-14T22:39:02.301Z,2,GR86-035-11,3.1,-0.101,0.063,2.48,4.0,3995.0,0.0,0.0,
2025-08-14T22:39:02.344Z,2,GR86-035-11,3.1,-0.125,0.066,2.49,4.0,,0.0,0.0,101.17
2025-08-14T22:39:02.387Z,2,GR86-035-11,3.1,-0.15,0.054,2.48,4.0,,0.0,0.0,
2025-08-14T22:39:02.430Z,2,GR86-035-11,3.1,-0.112,0.054,2.48,4.0,,0.0,0.0,
2025-08-14T22:39:02.473Z,2,GR86-035-11,3.1,-0.078,0.063,2.49,4.0,,0.0,0.0,
2025-08-14T22:39:02.517Z,2,GR86-035-11,1.3,-0.12,0.049,2.49,4.0,3930.0,0.0,0.0,
2025-08-14T22:39:02.560Z,2,GR86-035-11,0.3,-0.148,0.034,2.49,4.0,,0.0,0.0,101.53
2025-08-14T22:39:02.603Z,2,GR86-035-11,0.1,-0.097,0.023,2.49,4.0,,0.0,0.0,
2025-08-14T22:39:02.646Z,2,GR86-035-11,0.1,-0.102,0.007,31.87,4.0,,0.0,0.0,
2025-08-14T22:39:02.689Z,2,GR86-035-11,-0.1,-0.101,0.004,77.34,4.0,,0.0,0.0,
2025-08-14T22:39:02.732Z,2,GR86-035-11,-0.1,-0.132,-0.01,100.01,4.0,3899.0,0.0,0.0,
2025-08-14T22:39:02.777Z,2,GR86-035-11,-0.1,-0.052,-0.022,42.92,3.0,,0.0,0.0,101.2
2025-08-14T22:39:02.820Z,2,GR86-035-11,-0.6000000000000001,-0.073,-0.038,6.2700000000000005,3.0,,0.0,0.0,
2025-08-14T22:39:02.863Z,2,GR86-035-11,-1.3,-0.066,0.0,4.91,3.0,,0.0,0.0,
2025-08-14T22:39:02.906Z,2,GR86-035-11,-1.4,-0.253,-0.027,4.5200000000000005,3.0,,0.0,0.0,
2025-08-14T22:39:02.949Z,2,GR86-035-11,-1.4,-0.208,-0.083,4.29,3.0,4495.0,0.0,0.0,
2025-08-14T22:39:02.992Z,2,GR86-035-11,-1.4,-0.1,-0.014,3.93,3.0,,0.0,0.0,100.93
2025-08-14T22:39:03.035Z,2,GR86-035-11,-1.4,-0.088,-0.065,3.0700000000000003,3.0,,0.0,0.0,
2025-08-14T22:39:03.078Z,2,GR86-035-11,-1.4,-0.132,-0.038,2.82,3.0,,0.0,0.0,
2025-08-14T22:39:03.121Z,2,GR86-035-11,-1.4,-0.159,-0.053,2.75,3.0,,0.0,0.0,
2025-08-14T22:39:03.164Z,2,GR86-035-11,-2.1,-0.131,-0.058,2.69,3.0,4581.0,0.0,0.0,
2025-08-14T22:39:03.207Z,2,GR86-035-11,-2.6,-0.11,-0.046,2.64,3.0,,0.0,0.0,100.64
2025-08-14T22:39:03.250Z,2,GR86-035-11,-2.8000000000000003,-0.124,-0.066,2.59,3.0,,0.0,0.0,
2025-08-14T22:39:03.293Z,2,GR86-035-11,-3.3000000000000003,-0.152,-0.065,2.56,3.0,,0.0,0.0,
2025-08-14T22:39:03.336Z,2,GR86-035-11,-5.1000000000000005,-0.131,-0.068,2.53,3.0,,0.0,0.0,
2025-08-14T22:39:03.380Z,2,GR86-035-11,-5.7,-0.116,-0.1,2.53,3.0,4569.0,0.0,0.0,
2025-08-14T22:39:03.466Z,2,GR86-035-11,-5.800000000000001,-0.131,-0.105,2.5,3.0,,0.0,0.0,100.2
2025-08-14T22:39:03.552Z,2,GR86-035-11,-5.800000000000001,-0.125,-0.104,2.46,3.0,,0.0,0.0,
2025-08-14T22:39:03.595Z,2,GR86-035-11,-5.800000000000001,-0.126,-0.122,2.46,3.0,4558.0,0.0,0.0,
2025-08-14T22:39:03.638Z,2,GR86-035-11,-5.800000000000001,-0.137,-0.124,2.45,3.0,,0.0,0.0,99.83
2025-08-14T22:39:03.681Z,2,GR86-035-11,-5.800000000000001,-0.129,-0.124,2.45,3.0,,0.0,0.0,
2025-08-14T22:39:03.724Z,2,GR86-035-11,-5.800000000000001,-0.139,-0.121,2.44,3.0,,0.0,0.0,
2025-08-14T22:39:03.767Z,2,GR86-035-11,-5.800000000000001,-0.131,-0.123,18.65,3.0,,0.0,0.0,
2025-08-14T22:39:03.810Z,2,GR86-035-11,-5.800000000000001,-0.145,-0.133,33.8,3.0,4543.0,0.0,0.0,
2025-08-14T22:39:03.854Z,2,GR86-035-11,-5.800000000000001,-0.12,-0.124,52.34,3.0,,0.0,0.0,99.41
2025-08-14T22:39:03.897Z,2,GR86-035-11,-5.800000000000001,-0.076,-0.142,63.34,3.0,,0.0,0.0,
2025-08-14T22:39:03.941Z,2,GR86-035-11,-5.800000000000001,-0.02,-0.129,73.49,3.0,,0.0,0.0,
2025-08-14T22:39:03.984Z,2,GR86-035-11,-5.800000000000001,0.448,-0.151,75.69,3.0,,0.0,0.0,
2025-08-14T22:39:04.027Z,2,GR86-035-11,-5.1000000000000005,0.198,-0.142,92.89,3.0,4579.0,0.0,0.0,
2025-08-14T22:39:04.070Z,2,GR86-035-11,-4.9,0.314,-0.118,99.97,3.0,,0.0,0.0,99.01
2025-08-14T22:39:04.113Z,2,GR86-035-11,-4.800000000000001,0.202,-0.142,99.97,3.0,,0.0,0.0,
2025-08-14T22:39:04.156Z,2,GR86-035-11,-4.1000000000000005,0.157,-0.102,99.98,3.0,,0.0,0.0,
2025-08-14T22:39:04.200Z,2,GR86-035-11,-3.9,0.214,-0.112,99.99,3.0,,0.0,0.0,
2025-08-14T22:39:04.243Z,2,GR86-035-11,-3.8,0.229,-0.096,99.98,3.0,4732.0,0.0,0.0,
2025-08-14T22:39:04.286Z,2,GR86-035-11,-3.8,0.217,-0.094,99.97,3.0,,0.0,0.0,100.56
2025-08-14T22:39:04.329Z,2,GR86-035-11,-3.7,0.195,-0.089,99.99,3.0,,0.0,0.0,
2025-08-14T22:39:04.372Z,2,GR86-035-11,-3.7,0.203,-0.084,99.98,3.0,,0.0,0.0,
2025-08-14T22:39:04.417Z,2,GR86-035-11,-3.7,0.21,-0.063,99.97,3.0,,0.0,0.0,
2025-08-14T22:39:04.460Z,2,GR86-035-11,-3.4000000000000004,0.208,-0.079,99.98,3.0,4774.0,0.0,0.0,
2025-08-14T22:39:04.503Z,2,GR86-035-11,-2.8000000000000003,0.219,-0.059,99.98,3.0,,0.0,0.0,102.41
2025-08-14T22:39:04.547Z,2,GR86-035-11,-2.8000000000000003,0.202,-0.068,99.99,3.0,,0.0,0.0,
2025-08-14T22:39:04.590Z,2,GR86-035-11,-2.8000000000000003,0.188,-0.065,99.98,3.0,,0.0,0.0,
2025-08-14T22:39:04.633Z,2,GR86-035-11,-2.8000000000000003,0.194,-0.064,99.98,3.0,,0.0,0.0,
2025-08-14T22:39:04.677Z,2,GR86-035-11,-2.6,0.202,-0.073,99.99,3.0,4944.0,0.0,0.0,
2025-08-14T22:39:04.720Z,2,GR86-035-11,-2.6,0.199,-0.051,99.97,3.0,,0.0,0.0,104.25
2025-08-14T22:39:04.763Z,2,GR86-035-11,-2.6,0.194,-0.064,99.98,3.0,,0.0,0.0,
2025-08-14T22:39:04.806Z,2,GR86-035-11,-2.5,0.189,-0.054,89.52,3.0,,0.0,0.0,
2025-08-14T22:39:04.849Z,2,GR86-035-11,-2.5,0.206,-0.046,89.04,3.0,,0.0,0.0,
2025-08-14T22:39:04.892Z,2,GR86-035-11,-2.4000000000000004,0.203,-0.059,85.87,3.0,5027.0,0.0,0.0,
2025-08-14T22:39:04.935Z,2,GR86-035-11,-2.4000000000000004,0.197,-0.055,74.12,3.0,,0.0,0.0,106.09
2025-08-14T22:39:04.980Z,2,GR86-035-11,-2.3000000000000003,0.203,-0.052,66.45,3.0,,0.0,0.0,
2025-08-14T22:39:05.023Z,2,GR86-035-11,-2.3000000000000003,0.193,-0.058,56.69,3.0,,0.0,0.0,
2025-08-14T22:39:05.066Z,2,GR86-035-11,-2.3000000000000003,0.183,-0.047,49.74,3.0,,0.0,0.0,
2025-08-14T22:39:05.109Z,2,GR86-035-11,-2.3000000000000003,0.199,-0.066,42.41,3.0,5100.0,0.0,0.0,
2025-08-14T22:39:05.152Z,2,GR86-035-11,-2.3000000000000003,0.182,-0.061,36.15,3.0,,0.0,0.0,107.93
2025-08-14T22:39:05.195Z,2,GR86-035-11,-2.3000000000000003,0.15,-0.058,34.54,3.0,,0.0,0.0,
2025-08-14T22:39:05.238Z,2,GR86-035-11,-2.3000000000000003,0.141,-0.06,34.94,3.0,,0.0,0.0,
2025-08-14T22:39:05.281Z,2,GR86-035-11,-2.3000000000000003,0.125,-0.068,25.44,3.0,,0.0,0.0,
2025-08-14T22:39:05.324Z,2,GR86-035-11,-2.3000000000000003,0.113,-0.056,11.2,3.0,5149.0,0.0,0.0,
2025-08-14T22:39:05.367Z,2,GR86-035-11,-2.3000000000000003,0.143,-0.08,4.15,3.0,,0.0,0.0,109.73
2025-08-14T22:39:05.410Z,2,GR86-035-11,-2.4000000000000004,0.036,-0.075,4.07,3.0,,0.0,0.0,
2025-08-14T22:39:05.455Z,2,GR86-035-11,-2.4000000000000004,-0.071,-0.055,3.59,3.0,,0.0,0.0,
2025-08-14T22:39:05.498Z,2,GR86-035-11,-2.8000000000000003,-0.347,-0.102,3.01,3.0,,0.0,0.0,
2025-08-14T22:39:05.541Z,2,GR86-035-11,-4.5,-0.243,-0.054,2.83,3.0,4901.0,0.0,0.0,
2025-08-14T22:39:05.584Z,2,GR86-035-11,-5.0,-0.127,-0.094,2.75,3.0,,1.955,2.135,111.25
2025-08-14T22:39:05.627Z,2,GR86-035-11,-5.0,-0.084,-0.143,2.69,3.0,,4.99,4.99,
2025-08-14T22:39:05.670Z,2,GR86-035-11,-5.0,-0.203,-0.108,2.62,3.0,,8.73,8.67,
2025-08-14T22:39:05.714Z,2,GR86-035-11,-4.7,-0.293,-0.156,2.57,3.0,,12.42,12.36,
2025-08-14T22:39:05.757Z,2,GR86-035-11,-4.7,-0.334,-0.143,2.52,3.0,5065.0,17.455000000000002,17.305,
2025-08-14T22:39:05.800Z,2,GR86-035-11,-4.800000000000001,-0.414,-0.15,2.49,3.0,,20.45,20.48,111.32
2025-08-14T22:39:05.843Z,2,GR86-035-11,-4.800000000000001,-0.432,-0.151,2.48,3.0,,22.31,22.31,
2025-08-14T22:39:05.886Z,2,GR86-035-11,-4.7,-0.475,-0.163,2.46,3.0,,22.675,22.675,
2025-08-14T22:39:05.929Z,2,GR86-035-11,-4.800000000000001,-0.473,-0.163,2.46,3.0,,22.705,22.675,
2025-08-14T22:39:05.972Z,2,GR86-035-11,-3.4000000000000004,-0.462,-0.187,2.46,3.0,4959.0,21.12,21.625,
2025-08-14T22:39:06.015Z,2,GR86-035-11,-0.1,-0.391,-0.163,2.46,3.0,,15.72,16.435,109.42
2025-08-14T22:39:06.058Z,2,GR86-035-11,0.6000000000000001,-0.365,-0.145,2.46,3.0,,14.785,15.305,
2025-08-14T22:39:06.102Z,2,GR86-035-11,0.6000000000000001,-0.378,-0.152,2.46,3.0,,14.725,15.155,
2025-08-14T22:39:06.188Z,2,GR86-035-11,0.5,-0.331,-0.102,2.46,3.0,4826.0,15.0,15.365,
2025-08-14T22:39:06.231Z,2,GR86-035-11,0.5,-0.358,-0.081,2.46,3.0,,15.395,15.72,106.45
2025-08-14T22:39:06.274Z,2,GR86-035-11,-0.5,-0.397,-0.065,2.47,3.0,,16.19,16.19,
2025-08-14T22:39:06.317Z,2,GR86-035-11,-1.9,-0.399,-0.063,2.46,3.0,,17.12,17.150000000000002,
2025-08-14T22:39:06.403Z,2,GR86-035-11,-2.0,-0.394,-0.074,2.45,3.0,4728.0,19.275,19.12,
2025-08-14T22:39:06.446Z,2,GR86-035-11,-2.2,-0.475,-0.079,4.48,3.0,,23.775,23.745,104.35
2025-08-14T22:39:06.489Z,2,GR86-035-11,-3.1,-0.496,-0.068,45.34,3.0,,24.735,24.555,
2025-08-14T22:39:06.532Z,2,GR86-035-11,-5.0,-0.5,-0.091,91.36,2.0,,25.18,25.21,
2025-08-14T22:39:06.576Z,2,GR86-035-11,-6.9,-0.615,-0.136,29.64,2.0,,25.835,25.955,
2025-08-14T22:39:06.620Z,2,GR86-035-11,-7.800000000000001,-0.705,-0.097,3.53,2.0,4627.0,27.835,28.215,
2025-08-14T22:39:06.663Z,2,GR86-035-11,-8.700000000000001,-0.669,-0.139,2.74,2.0,,29.74,30.305,102.16
2025-08-14T22:39:06.706Z,2,GR86-035-11,-9.3,-0.532,-0.275,2.59,2.0,,28.965,29.175,
2025-08-14T22:39:06.749Z,2,GR86-035-11,-11.1,-0.8210000000000001,-0.215,2.52,2.0,,28.37,28.52,
2025-08-14T22:39:06.792Z,2,GR86-035-11,-13.5,-0.66,-0.231,2.5,2.0,,27.835,27.97,
2025-08-14T22:39:06.835Z,2,GR86-035-11,-18.5,-0.472,-0.345,2.5,2.0,5094.0,22.02,23.09,
2025-08-14T22:39:06.878Z,2,GR86-035-11,-23.5,-0.439,-0.36,2.49,2.0,,19.7,20.845,95.54
2025-08-14T22:39:06.921Z,2,GR86-035-11,-27.700000000000003,-0.496,-0.494,2.5,2.0,,19.15,19.93,
2025-08-14T22:39:06.964Z,2,GR86-035-11,-31.1,-0.49,-0.455,2.49,2.0,,17.455000000000002,18.465,
2025-08-14T22:39:07.007Z,2,GR86-035-11,-34.2,-0.414,-0.531,2.5,2.0,,15.81,16.68,
2025-08-14T22:39:07.050Z,2,GR86-035-11,-35.9,-0.397,-0.592,2.47,2.0,5267.0,15.395,16.055,
2025-08-14T22:39:07.093Z,2,GR86-035-11,-36.7,-0.397,-0.56,2.48,2.0,,13.015,13.675,92.87
2025-08-14T22:39:07.136Z,2,GR86-035-11,-37.6,-0.284,-0.647,2.46,2.0,,4.12,4.6850000000000005,
2025-08-14T22:39:07.180Z,2,GR86-035-11,-38.7,-0.211,-0.666,2.47,2.0,,0.0,0.0,
2025-08-14T22:39:07.223Z,2,GR86-035-11,-40.8,-0.207,-0.732,2.48,2.0,,0.0,0.0,
2025-08-14T22:39:07.267Z,2,GR86-035-11,-42.900000000000006,-0.213,-0.741,2.46,2.0,5126.0,0.0,0.0,
2025-08-14T22:39:07.311Z,2,GR86-035-11,-44.1,-0.198,-0.761,2.46,2.0,,0.0,0.0,91.37
2025-08-14T22:39:07.353Z,2,GR86-035-11,-44.1,-0.169,-0.769,2.46,2.0,,0.0,0.0,
2025-08-14T22:39:07.397Z,2,GR86-035-11,-45.0,-0.155,-0.761,2.48,2.0,,0.0,0.0,
2025-08-14T22:39:07.440Z,2,GR86-035-11,-46.3,-0.183,-0.803,2.48,2.0,,0.0,0.0,
2025-08-14T22:39:07.483Z,2,GR86-035-11,-47.3,-0.181,-0.8,2.47,2.0,4996.0,0.0,0.0,
2025-08-14T22:39:07.526Z,2,GR86-035-11,-48.2,-0.189,-0.799,2.46,2.0,,0.0,0.0,90.54
2025-08-14T22:39:07.569Z,2,GR86-035-11,-49.400000000000006,-0.184,-0.81,2.47,2.0,,0.0,0.0,
2025-08-14T22:39:07.612Z,2,GR86-035-11,-51.3,-0.191,-0.8270000000000001,2.47,2.0,,0.0,0.0,
2025-08-14T22:39:07.655Z,2,GR86-035-11,-53.8,-0.185,-0.852,2.47,2.0,,0.0,0.0,
2025-08-14T22:39:07.699Z,2,GR86-035-11,-54.3,-0.195,-0.871,2.46,2.0,4966.0,0.0,0.0,
2025-08-14T22:39:07.785Z,2,GR86-035-11,-54.3,-0.19,-0.86,2.48,2.0,,0.0,0.0,89.77
2025-08-14T22:39:07.828Z,2,GR86-035-11,-54.3,-0.193,-0.866,2.47,2.0,,0.0,0.0,
2025-08-14T22:39:07.871Z,2,GR86-035-11,-54.3,-0.196,-0.9,2.48,2.0,,0.0,0.0,
2025-08-14T22:39:07.914Z,2,GR86-035-11,-55.0,-0.176,-0.885,2.47,2.0,4907.0,0.0,0.0,
2025-08-14T22:39:07.957Z,2,GR86-035-11,-57.7,-0.201,-0.89,2.48,2.0,,0.0,0.0,88.96000000000001
2025-08-14T22:39:08.000Z,2,GR86-035-11,-58.1,-0.197,-0.9,2.47,2.0,,0.0,0.0,
2025-08-14T22:39:08.043Z,2,GR86-035-11,-58.1,-0.201,-0.885,2.48,2.0,,0.0,0.0,
2025-08-14T22:39:08.086Z,2,GR86-035-11,-58.6,-0.196,-0.892,2.49,2.0,,0.0,0.0,
2025-08-14T22:39:08.129Z,2,GR86-035-11,-58.900000000000006,-0.204,-0.931,9.2,2.0,4843.0,0.0,0.0,
2025-08-14T22:39:08.172Z,2,GR86-035-11,-59.400000000000006,-0.192,-0.911,3.68,2.0,,0.0,0.0,87.96000000000001
2025-08-14T22:39:08.215Z,2,GR86-035-11,-62.400000000000006,-0.192,-0.911,2.4,2.0,,0.0,0.0,
2025-08-14T22:39:08.258Z,2,GR86-035-11,-64.9,-0.197,-0.926,9.45,2.0,,0.0,0.0,
2025-08-14T22:39:08.301Z,2,GR86-035-11,-67.5,-0.198,-0.943,20.19,2.0,,0.0,0.0,
2025-08-14T22:39:08.344Z,2,GR86-035-11,-69.8,-0.202,-0.974,21.91,2.0,4777.0,0.0,0.0,
2025-08-14T22:39:08.387Z,2,GR86-035-11,-71.7,-0.17,-0.995,22.25,2.0,,0.0,0.0,86.93
2025-08-14T22:39:08.430Z,2,GR86-035-11,-73.2,-0.134,-1.01,23.86,2.0,,0.0,0.0,
2025-08-14T22:39:08.473Z,2,GR86-035-11,-74.10000000000001,-0.139,-0.991,26.71,2.0,,0.0,0.0,
2025-08-14T22:39:08.517Z,2,GR86-035-11,-74.10000000000001,0.109,-0.986,26.98,2.0,,0.0,0.0,
2025-08-14T22:39:08.560Z,2,GR86-035-11,-74.10000000000001,0.168,-0.979,26.58,2.0,4917.0,0.0,0.0,
2025-08-14T22:39:08.603Z,2,GR86-035-11,-74.10000000000001,0.113,-0.983,26.59,2.0,,0.0,0.0,85.97
2025-08-14T22:39:08.646Z,2,GR86-035-11,-74.10000000000001,0.078,-0.979,26.55,2.0,,0.0,0.0,
2025-08-14T22:39:08.689Z,2,GR86-035-11,-74.2,0.054,-0.987,26.53,2.0,,0.0,0.0,
2025-08-14T22:39:08.732Z,2,GR86-035-11,-74.8,0.048,-0.965,26.52,2.0,,0.0,0.0,
2025-08-14T22:39:08.777Z,2,GR86-035-11,-75.7,0.083,-0.988,26.52,2.0,4908.0,0.0,0.0,
2025-08-14T22:39:08.820Z,2,GR86-035-11,-75.5,0.101,-0.97,26.78,2.0,,0.0,0.0,85.44
2025-08-14T22:39:08.863Z,2,GR86-035-11,-72.10000000000001,0.1,-0.965,27.69,2.0,,0.0,0.0,
2025-08-14T22:39:08.906Z,2,GR86-035-11,-67.5,0.099,-0.957,28.86,2.0,,0.0,0.0,
2025-08-14T22:39:08.949Z,2,GR86-035-11,-63.1,0.084,-0.935,29.95,2.0,,0.0,0.0,
2025-08-14T22:39:08.992Z,2,GR86-035-11,-57.400000000000006,0.093,-0.934,30.14,2.0,4980.0,0.0,0.0,
2025-08-14T22:39:09.035Z,2,GR86-035-11,-53.2,0.113,-0.93,32.51,2.0,,0.0,0.0,85.86
2025-08-14T22:39:09.078Z,2,GR86-035-11,-53.2,0.139,-0.895,33.7,2.0,,0.0,0.0,
2025-08-14T22:39:09.121Z,2,GR86-035-11,-55.900000000000006,0.136,-0.872,33.76,2.0,,0.0,0.0,
2025-08-14T22:39:09.164Z,2,GR86-035-11,-59.8,0.154,-0.895,33.730000000000004,2.0,,0.0,0.0,
2025-08-14T22:39:09.207Z,2,GR86-035-11,-64.2,0.153,-0.88,33.71,2.0,5033.0,0.0,0.0,
2025-08-14T22:39:09.250Z,2,GR86-035-11,-67.4,0.156,-0.875,33.61,2.0,,0.0,0.0,86.48
2025-08-14T22:39:09.293Z,2,GR86-035-11,-67.60000000000001,0.127,-0.884,33.54,2.0,,0.0,0.0,
2025-08-14T22:39:09.336Z,2,GR86-035-11,-67.5,0.11,-0.898,33.49,2.0,,0.0,0.0,
2025-08-14T22:39:09.380Z,2,GR86-035-11,-66.0,0.127,-0.911,33.54,2.0,,0.0,0.0,
2025-08-14T22:39:09.423Z,2,GR86-035-11,-63.400000000000006,0.128,-0.9,33.8,2.0,5077.0,0.0,0.0,
2025-08-14T22:39:09.466Z,2,GR86-035-11,-60.5,0.123,-0.865,34.43,2.0,,0.0,0.0,87.21000000000001
2025-08-14T22:39:09.509Z,2,GR86-035-11,-57.2,0.125,-0.886,34.77,2.0,,0.0,0.0,
2025-08-14T22:39:09.552Z,2,GR86-035-11,-53.7,0.13,-0.873,35.76,2.0,,0.0,0.0,
2025-08-14T22:39:09.595Z,2,GR86-035-11,-53.0,0.136,-0.871,38.84,2.0,,0.0,0.0,
2025-08-14T22:39:09.638Z,2,GR86-035-11,-53.0,0.169,-0.863,39.96,2.0,5132.0,0.0,0.0,
2025-08-14T22:39:09.681Z,2,GR86-035-11,-53.0,0.166,-0.887,40.22,2.0,,0.0,0.0,89.34
2025-08-14T22:39:09.724Z,2,GR86-035-11,-53.0,0.178,-0.841,41.69,2.0,,0.0,0.0,
2025-08-14T22:39:09.767Z,2,GR86-035-11,-55.0,0.163,-0.842,42.64,2.0,,0.0,0.0,
2025-08-14T22:39:09.810Z,2,GR86-035-11,-58.5,0.164,-0.8140000000000001,42.67,2.0,,0.0,0.0,
2025-08-14T22:39:09.855Z,2,GR86-035-11,-63.1,0.145,-0.834,42.23,2.0,5216.0,0.0,0.0,
2025-08-14T22:39:09.899Z,2,GR86-035-11,-65.4,0.141,-0.78,41.61,2.0,,0.0,0.0,90.42
2025-08-14T22:39:09.942Z,2,GR86-035-11,-65.5,0.145,-0.8160000000000001,40.35,2.0,,0.0,0.0,
2025-08-14T22:39:09.985Z,2,GR86-035-11,-64.5,0.143,-0.839,40.22,2.0,,0.0,0.0,
2025-08-14T22:39:10.028Z,2,GR86-035-11,-61.400000000000006,0.139,-0.836,40.22,2.0,,0.0,0.0,
2025-08-14T22:39:10.071Z,2,GR86-035-11,-56.0,0.135,-0.881,40.23,2.0,5272.0,0.0,0.0,
2025-08-14T22:39:10.114Z,2,GR86-035-11,-50.2,0.17,-0.869,40.38,2.0,,0.0,0.0,91.51
2025-08-14T22:39:10.157Z,2,GR86-035-11,-45.6,0.173,-0.8310000000000001,41.52,2.0,,0.0,0.0,
2025-08-14T22:39:10.200Z,2,GR86-035-11,-44.3,0.159,-0.8220000000000001,41.93,2.0,,0.0,0.0,
2025-08-14T22:39:10.243Z,2,GR86-035-11,-43.8,0.143,-0.8230000000000001,43.73,2.0,,0.0,0.0,
2025-08-14T22:39:10.286Z,2,GR86-035-11,-43.8,0.138,-0.8240000000000001,47.17,2.0,5424.0,0.0,0.0,
2025-08-14T22:39:10.329Z,2,GR86-035-11,-43.900000000000006,0.157,-0.869,48.03,2.0,,0.0,0.0,92.9
2025-08-14T22:39:10.372Z,2,GR86-035-11,-45.3,0.17,-0.869,48.02,2.0,,0.0,0.0,
2025-08-14T22:39:10.417Z,2,GR86-035-11,-51.400000000000006,0.173,-0.914,47.38,2.0,,0.0,0.0,
2025-08-14T22:39:10.460Z,2,GR86-035-11,-53.400000000000006,0.165,-0.912,46.7,2.0,,0.0,0.0,
2025-08-14T22:39:10.503Z,2,GR86-035-11,-54.400000000000006,0.176,-0.916,46.66,2.0,5498.0,0.0,0.0,
2025-08-14T22:39:10.547Z,2,GR86-035-11,-54.400000000000006,0.175,-0.894,47.28,2.0,,0.0,0.0,94.13
2025-08-14T22:39:10.590Z,2,GR86-035-11,-52.0,0.175,-0.834,48.31,2.0,,0.0,0.0,
2025-08-14T22:39:10.633Z,2,GR86-035-11,-48.6,0.16,-0.8190000000000001,53.61,2.0,,0.0,0.0,
2025-08-14T22:39:10.677Z,2,GR86-035-11,-43.0,0.167,-0.795,74.60000000000001,2.0,,0.0,0.0,
2025-08-14T22:39:10.720Z,2,GR86-035-11,-40.7,0.198,-0.789,90.51,2.0,5550.0,0.0,0.0,
2025-08-14T22:39:10.763Z,2,GR86-035-11,-40.5,0.217,-0.805,99.73,2.0,,0.0,0.0,95.52
2025-08-14T22:39:10.806Z,2,GR86-035-11,-40.5,0.256,-0.804,99.97,2.0,,0.0,0.0,
2025-08-14T22:39:10.892Z,2,GR86-035-11,-40.400000000000006,0.213,-0.789,99.97,2.0,,0.0,0.0,
2025-08-14T22:39:10.935Z,2,GR86-035-11,-40.3,0.211,-0.78,99.98,2.0,5654.0,0.0,0.0,
2025-08-14T22:39:10.979Z,2,GR86-035-11,-40.0,0.195,-0.782,99.99,2.0,,0.0,0.0,96.86
2025-08-14T22:39:11.022Z,2,GR86-035-11,-39.3,0.235,-0.769,99.97,2.0,,0.0,0.0,
2025-08-14T22:39:11.065Z,2,GR86-035-11,-38.0,0.231,-0.767,99.97,2.0,,0.0,0.0,
2025-08-14T22:39:11.108Z,2,GR86-035-11,-36.0,0.22,-0.769,99.98,2.0,,0.0,0.0,
2025-08-14T22:39:11.151Z,2,GR86-035-11,-35.5,0.222,-0.746,99.97,2.0,5768.0,0.0,0.0,
2025-08-14T22:39:11.194Z,2,GR86-035-11,-35.5,0.211,-0.757,99.96,2.0,,0.0,0.0,97.67
2025-08-14T22:39:11.237Z,2,GR86-035-11,-35.300000000000004,0.24,-0.71,99.98,2.0,,0.0,0.0,
2025-08-14T22:39:11.280Z,2,GR86-035-11,-35.300000000000004,0.22,-0.6960000000000001,99.97,2.0,,0.0,0.0,
2025-08-14T22:39:11.323Z,2,GR86-035-11,-35.300000000000004,0.215,-0.67,99.99,2.0,,0.0,0.0,
2025-08-14T22:39:11.366Z,2,GR86-035-11,-34.9,0.221,-0.6970000000000001,99.99,2.0,5846.0,0.0,0.0,
2025-08-14T22:39:11.409Z,2,GR86-035-11,-33.1,0.231,-0.731,99.98,2.0,,0.0,0.0,99.27
2025-08-14T22:39:11.452Z,2,GR86-035-11,-30.4,0.25,-0.704,99.97,2.0,,0.0,0.0,
2025-08-14T22:39:11.495Z,2,GR86-035-11,-27.6,0.257,-0.665,99.99,2.0,,0.0,0.0,
2025-08-14T22:39:11.538Z,2,GR86-035-11,-26.4,0.23,-0.665,99.98,2.0,,0.0,0.0,
2025-08-14T22:39:11.581Z,2,GR86-035-11,-25.3,0.227,-0.634,99.99,2.0,5948.0,0.0,0.0,
2025-08-14T22:39:11.624Z,2,GR86-035-11,-24.200000000000003,0.206,-0.635,99.99,2.0,,0.0,0.0,100.94
2025-08-14T22:39:11.667Z,2,GR86-035-11,-23.3,0.239,-0.626,99.99,2.0,,0.0,0.0,
2025-08-14T22:39:11.710Z,2,GR86-035-11,-22.200000000000003,0.237,-0.605,99.98,2.0,,0.0,0.0,
2025-08-14T22:39:11.754Z,2,GR86-035-11,-21.9,0.24,-0.581,99.97,2.0,,0.0,0.0,
2025-08-14T22:39:11.797Z,2,GR86-035-11,-21.9,0.221,-0.556,99.98,2.0,6054.0,0.0,0.0,
2025-08-14T22:39:11.840Z,2,GR86-035-11,-21.1,0.236,-0.531,99.99,2.0,,0.0,0.0,102.7
2025-08-14T22:39:11.884Z,2,GR86-035-11,-20.700000000000003,0.239,-0.516,99.99,2.0,,0.0,0.0,
2025-08-14T22:39:11.927Z,2,GR86-035-11,-20.700000000000003,0.259,-0.47,100.0,2.0,,0.0,0.0,
2025-08-14T22:39:11.970Z,2,GR86-035-11,-20.700000000000003,0.224,-0.466,99.98,2.0,,0.0,0.0,
2025-08-14T22:39:12.013Z,2,GR86-035-11,-20.4,0.225,-0.442,99.97,2.0,6130.0,0.0,0.0,
2025-08-14T22:39:12.057Z,2,GR86-035-11,-20.1,0.227,-0.431,99.99,2.0,,0.0,0.0,104.5
2025-08-14T22:39:12.100Z,2,GR86-035-11,-20.0,0.233,-0.416,100.0,2.0,,0.0,0.0,
2025-08-14T22:39:12.143Z,2,GR86-035-11,-18.7,0.236,-0.424,99.99,2.0,,0.0,0.0,
2025-08-14T22:39:12.186Z,2,GR86-035-11,-17.2,0.227,-0.425,99.98,2.0,,0.0,0.0,
2025-08-14T22:39:12.229Z,2,GR86-035-11,-16.0,0.226,-0.412,99.98,2.0,6228.0,0.0,0.0,
2025-08-14T22:39:12.272Z,2,GR86-035-11,-15.9,0.231,-0.409,99.99,2.0,,0.0,0.0,106.23
2025-08-14T22:39:12.315Z,2,GR86-035-11,-15.3,0.246,-0.393,99.99,2.0,,0.0,0.0,
2025-08-14T22:39:12.358Z,2,GR86-035-11,-14.7,0.22,-0.367,99.98,2.0,,0.0,0.0,
2025-08-14T22:39:12.401Z,2,GR86-035-11,-14.6,0.229,-0.349,99.99,2.0,,0.0,0.0,
2025-08-14T22:39:12.444Z,2,GR86-035-11,-14.6,0.231,-0.338,100.0,2.0,6330.0,0.0,0.0,
2025-08-14T22:39:12.487Z,2,GR86-035-11,-14.2,0.233,-0.337,99.99,2.0,,0.0,0.0,109.69
2025-08-14T22:39:12.530Z,2,GR86-035-11,-13.2,0.235,-0.331,100.0,2.0,,0.0,0.0,
2025-08-14T22:39:12.573Z,2,GR86-035-11,-12.8,0.242,-0.317,99.99,2.0,,0.0,0.0,
2025-08-14T22:39:12.617Z,2,GR86-035-11,-12.6,0.226,-0.321,99.98,2.0,,0.0,0.0,
2025-08-14T22:39:12.660Z,2,GR86-035-11,-12.2,0.236,-0.292,100.0,2.0,6426.0,0.0,0.0,
2025-08-14T22:39:12.703Z,2,GR86-035-11,-11.7,0.236,-0.302,99.99,2.0,,0.0,0.0,111.43
2025-08-14T22:39:12.746Z,2,GR86-035-11,-11.1,0.236,-0.318,100.01,2.0,,0.0,0.0,
2025-08-14T22:39:12.789Z,2,GR86-035-11,-10.4,0.235,-0.313,99.98,2.0,,0.0,0.0,
2025-08-14T22:39:12.832Z,2,GR86-035-11,-9.3,0.241,-0.306,100.01,2.0,,0.0,0.0,
2025-08-14T22:39:12.877Z,2,GR86-035-11,-9.3,0.239,-0.287,100.02,2.0,6614.0,0.0,0.0,
2025-08-14T22:39:12.920Z,2,GR86-035-11,-9.3,0.238,-0.258,99.98,2.0,,0.0,0.0,113.24
2025-08-14T22:39:12.963Z,2,GR86-035-11,-8.700000000000001,0.221,-0.25,99.99,2.0,,0.0,0.0,
2025-08-14T22:39:13.006Z,2,GR86-035-11,-7.5,0.24,-0.25,100.02,2.0,,0.0,0.0,
2025-08-14T22:39:13.049Z,2,GR86-035-11,-7.2,0.199,-0.25,100.0,2.0,,0.0,0.0,
2025-08-14T22:39:13.092Z,2,GR86-035-11,-7.1000000000000005,-0.1,-0.224,100.02,3.0,6497.0,0.0,0.0,
2025-08-14T22:39:13.135Z,2,GR86-035-11,-5.4,0.487,-0.234,100.02,3.0,,0.0,0.0,114.98
2025-08-14T22:39:13.179Z,2,GR86-035-11,-4.3,0.173,-0.268,99.99,3.0,,0.0,0.0,
2025-08-14T22:39:13.222Z,2,GR86-035-11,-4.2,0.306,-0.185,100.01,3.0,,0.0,0.0,
2025-08-14T22:39:13.265Z,2,GR86-035-11,-4.2,0.306,-0.159,99.99,3.0,,0.0,0.0,
2025-08-14T22:39:13.310Z,2,GR86-035-11,-4.2,0.264,-0.179,99.99,3.0,5672.0,0.0,0.0,
2025-08-14T22:39:13.353Z,2,GR86-035-11,-4.2,0.148,-0.114,99.98,3.0,,0.0,0.0,116.37
2025-08-14T22:39:13.397Z,2,GR86-035-11,-4.1000000000000005,0.137,-0.144,100.01,3.0,,0.0,0.0,
2025-08-14T22:39:13.440Z,2,GR86-035-11,-4.2,0.219,-0.128,100.01,3.0,,0.0,0.0,
2025-08-14T22:39:13.483Z,2,GR86-035-11,-4.1000000000000005,0.22,-0.13,100.0,3.0,,0.0,0.0,
2025-08-14T22:39:13.526Z,2,GR86-035-11,-4.1000000000000005,0.183,-0.153,100.01,3.0,5610.0,0.0,0.0,
2025-08-14T22:39:13.569Z,2,GR86-035-11,-4.1000000000000005,0.196,-0.133,100.0,3.0,,0.0,0.0,118.16
2025-08-14T22:39:13.612Z,2,GR86-035-11,-4.2,0.175,-0.143,100.01,3.0,,0.0,0.0,
2025-08-14T22:39:13.655Z,2,GR86-035-11,-4.1000000000000005,0.202,-0.126,100.0,3.0,,0.0,0.0,
2025-08-14T22:39:13.699Z,2,GR86-035-11,-4.1000000000000005,0.186,-0.126,100.0,3.0,,0.0,0.0,
2025-08-14T22:39:13.742Z,2,GR86-035-11,-4.1000000000000005,0.212,-0.121,100.03,3.0,5653.0,0.0,0.0,
2025-08-14T22:39:13.785Z,2,GR86-035-11,-4.0,0.183,-0.124,100.01,3.0,,0.0,0.0,119.69
2025-08-14T22:39:13.828Z,2,GR86-035-11,-3.7,0.18,-0.115,99.98,3.0,,0.0,0.0,
2025-08-14T22:39:13.871Z,2,GR86-035-11,-3.7,0.207,-0.122,100.02,3.0,,0.0,0.0,
2025-08-14T22:39:13.914Z,2,GR86-035-11,-3.1,0.19,-0.117,100.01,3.0,,0.0,0.0,
2025-08-14T22:39:13.957Z,2,GR86-035-11,-2.0,0.187,-0.112,99.99,3.0,5720.0,0.0,0.0,
2025-08-14T22:39:14.000Z,2,GR86-035-11,-1.1,0.189,-0.099,100.02,3.0,,0.0,0.0,121.18
2025-08-14T22:39:14.043Z,2,GR86-035-11,-0.5,0.206,-0.093,100.01,3.0,,0.0,0.0,
2025-08-14T22:39:14.086Z,2,GR86-035-11,-0.1,0.191,-0.078,100.01,3.0,,0.0,0.0,
2025-08-14T22:39:14.129Z,2,GR86-035-11,0.9,0.174,-0.078,99.99,3.0,,0.0,0.0,
2025-08-14T22:39:14.172Z,2,GR86-035-11,2.2,0.199,-0.056,100.0,3.0,5772.0,0.0,0.0,
2025-08-14T22:39:14.215Z,2,GR86-035-11,3.7,0.215,-0.037,100.0,3.0,,0.0,0.0,122.66
2025-08-14T22:39:14.258Z,2,GR86-035-11,3.9,0.188,-0.012,100.01,3.0,,0.0,0.0,
2025-08-14T22:39:14.301Z,2,GR86-035-11,4.0,0.175,0.026,100.01,3.0,,0.0,0.0,
2025-08-14T22:39:14.344Z,2,GR86-035-11,4.4,0.187,0.056,100.03,3.0,,0.0,0.0,
2025-08-14T22:39:14.387Z,2,GR86-035-11,5.0,0.221,0.065,100.01,3.0,5845.0,0.0,0.0,
2025-08-14T22:39:14.430Z,2,GR86-035-11,5.7,0.185,0.086,100.02,3.0,,0.0,0.0,124.1
2025-08-14T22:39:14.473Z,2,GR86-035-11,6.6000000000000005,0.188,0.103,100.01,3.0,,0.0,0.0,
2025-08-14T22:39:14.517Z,2,GR86-035-11,7.300000000000001,0.181,0.141,99.99,3.0,,0.0,0.0,
2025-08-14T22:39:14.560Z,2,GR86-035-11,7.5,0.19,0.158,99.97,3.0,,0.0,0.0,
2025-08-14T22:39:14.603Z,2,GR86-035-11,7.6,0.204,0.163,100.0,3.0,5909.0,0.0,0.0,
2025-08-14T22:39:14.646Z,2,GR86-035-11,7.6,0.177,0.183,100.0,3.0,,0.0,0.0,125.49
2025-08-14T22:39:14.689Z,2,GR86-035-11,7.6,0.198,0.201,100.0,3.0,,0.0,0.0,
2025-08-14T22:39:14.732Z,2,GR86-035-11,7.7,0.216,0.207,99.99,3.0,,0.0,0.0,
2025-08-14T22:39:14.777Z,2,GR86-035-11,7.7,0.198,0.225,100.0,3.0,,0.0,0.0,
2025-08-14T22:39:14.820Z,2,GR86-035-11,7.800000000000001,0.19,0.221,100.0,3.0,5980.0,0.0,0.0,
2025-08-14T22:39:14.863Z,2,GR86-035-11,8.0,0.179,0.231,100.0,3.0,,0.0,0.0,126.8
2025-08-14T22:39:14.906Z,2,GR86-035-11,8.200000000000001,0.196,0.222,100.01,3.0,,0.0,0.0,
2025-08-14T22:39:14.949Z,2,GR86-035-11,8.4,0.203,0.212,100.01,3.0,,0.0,0.0,
2025-08-14T22:39:14.992Z,2,GR86-035-11,8.700000000000001,0.179,0.217,100.02,3.0,,0.0,0.0,
2025-08-14T22:39:15.035Z,2,GR86-035-11,8.700000000000001,0.18,0.215,100.02,3.0,6041.0,0.0,0.0,
2025-08-14T22:39:15.078Z,2,GR86-035-11,8.700000000000001,0.174,0.226,100.03,3.0,,0.0,0.0,129.44
2025-08-14T22:39:15.121Z,2,GR86-035-11,8.700000000000001,0.183,0.23,100.01,3.0,,0.0,0.0,
2025-08-14T22:39:15.163Z,2,GR86-035-11,8.700000000000001,0.206,0.236,100.01,3.0,,0.0,0.0,
2025-08-14T22:39:15.207Z,2,GR86-035-11,8.700000000000001,0.18,0.246,100.01,3.0,,0.0,0.0,
2025-08-14T22:39:15.250Z,2,GR86-035-11,8.700000000000001,0.183,0.267,99.98,3.0,6098.0,0.0,0.0,
2025-08-14T22:39:15.293Z,2,GR86-035-11,8.700000000000001,0.194,0.261,100.0,3.0,,0.0,0.0,130.81
2025-08-14T22:39:15.336Z,2,GR86-035-11,8.700000000000001,0.19,0.258,100.01,3.0,,0.0,0.0,
2025-08-14T22:39:15.380Z,2,GR86-035-11,8.8,0.208,0.243,100.01,3.0,,0.0,0.0,
2025-08-14T22:39:15.423Z,2,GR86-035-11,8.8,0.168,0.252,99.99,3.0,,0.0,0.0,
2025-08-14T22:39:15.466Z,2,GR86-035-11,8.700000000000001,0.181,0.26,100.0,3.0,6149.0,0.0,0.0,
2025-08-14T22:39:15.509Z,2,GR86-035-11,8.700000000000001,0.191,0.248,100.02,3.0,,0.0,0.0,132.12
2025-08-14T22:39:15.552Z,2,GR86-035-11,8.700000000000001,0.193,0.238,100.0,3.0,,0.0,0.0,
2025-08-14T22:39:15.595Z,2,GR86-035-11,8.0,0.191,0.232,91.98,3.0,,0.0,0.0,
2025-08-14T22:39:15.638Z,2,GR86-035-11,7.2,0.181,0.217,81.10000000000001,3.0,,0.0,0.0,
2025-08-14T22:39:15.681Z,2,GR86-035-11,6.800000000000001,0.187,0.217,70.35000000000001,3.0,6280.0,0.0,0.0,
2025-08-14T22:39:15.724Z,2,GR86-035-11,6.0,0.193,0.2,58.57,3.0,,0.0,0.0,133.4
2025-08-14T22:39:15.767Z,2,GR86-035-11,4.9,0.184,0.188,60.81,3.0,,0.0,0.0,
2025-08-14T22:39:15.810Z,2,GR86-035-11,4.4,0.165,0.173,64.68,3.0,,0.0,0.0,
2025-08-14T22:39:15.854Z,2,GR86-035-11,4.3,0.178,0.155,64.84,3.0,,0.0,0.0,
2025-08-14T22:39:15.897Z,2,GR86-035-11,3.9,0.168,0.131,59.94,3.0,6332.0,0.0,0.0,
2025-08-14T22:39:15.941Z,2,GR86-035-11,3.2,0.174,0.112,63.45,3.0,,0.0,0.0,134.64
2025-08-14T22:39:15.984Z,2,GR86-035-11,2.4000000000000004,0.181,0.084,63.68,3.0,,0.0,0.0,
2025-08-14T22:39:16.027Z,2,GR86-035-11,1.5,0.192,0.073,60.52,3.0,,0.0,0.0,
2025-08-14T22:39:16.070Z,2,GR86-035-11,0.6000000000000001,0.174,0.048,56.23,3.0,,0.0,0.0,
2025-08-14T22:39:16.113Z,2,GR86-035-11,0.0,0.18,0.043,51.3,3.0,6388.0,0.0,0.0,
2025-08-14T22:39:16.156Z,2,GR86-035-11,-0.1,0.158,0.028,44.39,3.0,,0.0,0.0,135.8
2025-08-14T22:39:16.200Z,2,GR86-035-11,-0.6000000000000001,0.167,0.014,38.69,3.0,,0.0,0.0,
2025-08-14T22:39:16.243Z,2,GR86-035-11,-1.6,0.16,0.003,36.17,3.0,,0.0,0.0,
2025-08-14T22:39:16.286Z,2,GR86-035-11,-2.2,0.135,-0.017,35.37,3.0,,0.0,0.0,
2025-08-14T22:39:16.329Z,2,GR86-035-11,-2.3000000000000003,0.1,-0.03,35.17,3.0,6422.0,0.0,0.0,
2025-08-14T22:39:16.372Z,2,GR86-035-11,-2.8000000000000003,0.091,-0.047,35.13,3.0,,0.0,0.0,136.97
2025-08-14T22:39:16.417Z,2,GR86-035-11,-3.8,0.093,-0.084,35.300000000000004,3.0,,0.0,0.0,
2025-08-14T22:39:16.460Z,2,GR86-035-11,-4.0,0.101,-0.112,36.16,3.0,,0.0,0.0,
2025-08-14T22:39:16.503Z,2,GR86-035-11,-4.0,0.104,-0.129,37.77,3.0,,0.0,0.0,
2025-08-14T22:39:16.546Z,2,GR86-035-11,-4.0,0.108,-0.147,38.22,3.0,6454.0,0.0,0.0,
2025-08-14T22:39:16.590Z,2,GR86-035-11,-4.0,0.103,-0.141,38.32,3.0,,0.0,0.0,138.07
2025-08-14T22:39:16.633Z,2,GR86-035-11,-4.0,0.12,-0.161,38.88,3.0,,0.0,0.0,
2025-08-14T22:39:16.677Z,2,GR86-035-11,-4.0,0.113,-0.165,56.06,3.0,,0.0,0.0,
2025-08-14T22:39:16.720Z,2,GR86-035-11,-4.0,0.113,-0.171,88.84,3.0,,0.0,0.0,
2025-08-14T22:39:16.763Z,2,GR86-035-11,-4.0,0.144,-0.174,99.78,3.0,6489.0,0.0,0.0,
2025-08-14T22:39:16.806Z,2,GR86-035-11,-4.0,0.197,-0.176,100.02,3.0,,0.0,0.0,138.81
2025-08-14T22:39:16.849Z,2,GR86-035-11,-4.0,0.198,-0.172,99.99,3.0,,0.0,0.0,
2025-08-14T22:39:16.892Z,2,GR86-035-11,-4.0,0.188,-0.176,100.01,3.0,,0.0,0.0,
2025-08-14T22:39:16.935Z,2,GR86-035-11,-4.0,0.165,-0.185,100.0,3.0,,0.0,0.0,
2025-08-14T22:39:16.979Z,2,GR86-035-11,-3.8,0.17,-0.178,100.02,3.0,6570.0,0.0,0.0,
2025-08-14T22:39:17.022Z,2,GR86-035-11,-3.0,0.184,-0.166,100.01,3.0,,0.0,0.0,139.57
2025-08-14T22:39:17.065Z,2,GR86-035-11,-2.4000000000000004,0.194,-0.155,100.0,3.0,,0.0,0.0,
2025-08-14T22:39:17.108Z,2,GR86-035-11,-2.3000000000000003,0.178,-0.161,99.97,3.0,,0.0,0.0,
2025-08-14T22:39:17.152Z,2,GR86-035-11,-2.4000000000000004,0.176,-0.158,92.46,3.0,,0.0,0.0,
2025-08-14T22:39:17.195Z,2,GR86-035-11,-2.4000000000000004,0.185,-0.141,37.99,3.0,6630.0,0.0,0.0,
2025-08-14T22:39:17.238Z,2,GR86-035-11,-2.4000000000000004,0.165,-0.13,35.32,3.0,,0.0,0.0,140.76
2025-08-14T22:39:17.281Z,2,GR86-035-11,-2.4000000000000004,0.122,-0.13,29.82,3.0,,0.0,0.0,
2025-08-14T22:39:17.324Z,2,GR86-035-11,-2.4000000000000004,0.094,-0.13,5.54,3.0,,0.0,0.0,
2025-08-14T22:39:17.367Z,2,GR86-035-11,-2.4000000000000004,0.083,-0.135,4.5200000000000005,3.0,,0.0,0.0,
2025-08-14T22:39:17.410Z,2,GR86-035-11,-2.4000000000000004,-0.122,-0.096,4.17,3.0,6666.0,0.0,0.0,
2025-08-14T22:39:17.454Z,2,GR86-035-11,-2.4000000000000004,-0.099,-0.087,3.84,3.0,,0.0,0.0,142.03
2025-08-14T22:39:17.497Z,2,GR86-035-11,-2.4000000000000004,-0.329,-0.112,3.16,3.0,,0.0,0.0,
2025-08-14T22:39:17.540Z,2,GR86-035-11,-2.4000000000000004,-0.198,-0.074,2.83,3.0,,6.745,6.745,
2025-08-14T22:39:17.583Z,2,GR86-035-11,-2.4000000000000004,-0.185,-0.147,2.68,3.0,,9.34,9.4,
2025-08-14T22:39:17.626Z,2,GR86-035-11,-2.4000000000000004,-0.234,-0.106,2.59,3.0,6305.0,13.245,13.2,
2025-08-14T22:39:17.669Z,2,GR86-035-11,-2.4000000000000004,-0.36,-0.113,2.56,3.0,,17.990000000000002,17.87,143.1
2025-08-14T22:39:17.712Z,2,GR86-035-11,-2.3000000000000003,-0.456,-0.147,2.54,3.0,,22.4,22.22,
2025-08-14T22:39:17.755Z,2,GR86-035-11,-1.1,-0.517,-0.134,2.5,3.0,,29.33,28.965,
2025-08-14T22:39:17.799Z,2,GR86-035-11,-0.2,-0.62,-0.151,2.52,3.0,,33.25,33.1,
2025-08-14T22:39:17.842Z,2,GR86-035-11,0.8,-0.651,-0.137,2.51,3.0,6442.0,35.585,35.495,
2025-08-14T22:39:17.885Z,2,GR86-035-11,1.9,-0.686,-0.135,2.49,3.0,,37.355,37.11,138.65
2025-08-14T22:39:17.928Z,2,GR86-035-11,3.1,-0.6960000000000001,-0.118,2.5,3.0,,38.805,38.775,
2025-08-14T22:39:17.971Z,2,GR86-035-11,4.2,-0.721,-0.12,2.5,3.0,,39.72,39.815,
2025-08-14T22:39:18.014Z,2,GR86-035-11,4.9,-0.753,-0.108,2.49,3.0,,40.21,40.18,
2025-08-14T22:39:18.057Z,2,GR86-035-11,5.4,-0.779,-0.097,2.5,3.0,6246.0,40.775,40.865,
2025-08-14T22:39:18.100Z,2,GR86-035-11,5.4,-0.773,-0.086,2.49,3.0,,41.25,41.14,133.47
2025-08-14T22:39:18.143Z,2,GR86-035-11,5.4,-0.785,-0.063,2.49,3.0,,41.965,41.89,
2025-08-14T22:39:18.186Z,2,GR86-035-11,5.4,-0.792,-0.049,2.49,3.0,,42.65,42.605,
2025-08-14T22:39:18.229Z,2,GR86-035-11,5.300000000000001,-0.784,-0.034,2.5,3.0,,42.985,42.955,
2025-08-14T22:39:18.272Z,2,GR86-035-11,5.300000000000001,-0.8170000000000001,-0.016,2.49,3.0,5987.0,43.05,43.05,
2025-08-14T22:39:18.315Z,2,GR86-035-11,4.4,-0.803,-0.001,2.49,3.0,,43.26,43.295,128.37
2025-08-14T22:39:18.358Z,2,GR86-035-11,3.7,-0.804,0.005,2.5,3.0,,43.2,43.325,
2025-08-14T22:39:18.401Z,2,GR86-035-11,2.8000000000000003,-0.805,0.006,2.49,3.0,,43.02,43.295,
2025-08-14T22:39:18.487Z,2,GR86-035-11,2.1,-0.8230000000000001,-0.004,2.49,3.0,5482.0,42.485,42.955,
2025-08-14T22:39:18.530Z,2,GR86-035-11,1.7000000000000002,-0.782,-0.008,2.49,3.0,,41.31,42.025,122.76
2025-08-14T22:39:18.573Z,2,GR86-035-11,1.1,-0.743,-0.023,2.5,3.0,,38.35,39.675,
2025-08-14T22:39:18.617Z,2,GR86-035-11,0.8,-0.736,-0.052,2.49,3.0,,35.375,36.58,
2025-08-14T22:39:18.660Z,2,GR86-035-11,0.3,-0.712,-0.048,2.49,3.0,,32.275,33.65,
2025-08-14T22:39:18.703Z,2,GR86-035-11,-0.1,-0.605,-0.067,2.49,3.0,5254.0,22.555,23.805,
2025-08-14T22:39:18.789Z,2,GR86-035-11,-0.1,-0.237,-0.092,2.5,3.0,,2.915,3.525,117.37
2025-08-14T22:39:18.832Z,2,GR86-035-11,-0.3,-0.178,-0.087,2.49,3.0,,0.0,0.0,
2025-08-14T22:39:18.920Z,2,GR86-035-11,-0.3,-0.13,-0.085,18.96,3.0,5238.0,0.0,0.0,
2025-08-14T22:39:18.963Z,2,GR86-035-11,-0.4,-0.105,-0.07,59.620000000000005,3.0,,0.0,0.0,114.48
2025-08-14T22:39:19.006Z,2,GR86-035-11,-0.4,-0.073,-0.06,86.97,3.0,,0.0,0.0,
2025-08-14T22:39:19.049Z,2,GR86-035-11,-0.4,-0.046,-0.049,99.38,3.0,,0.0,0.0,
2025-08-14T22:39:19.092Z,2,GR86-035-11,-0.4,0.176,-0.067,99.62,3.0,,0.0,0.0,
2025-08-14T22:39:19.135Z,2,GR86-035-11,-0.4,0.205,-0.054,99.73,3.0,5473.0,0.0,0.0,
2025-08-14T22:39:19.178Z,2,GR86-035-11,-0.5,0.302,-0.045,99.79,3.0,,0.0,0.0,113.73
2025-08-14T22:39:19.221Z,2,GR86-035-11,-0.5,0.2,-0.045,99.87,3.0,,0.0,0.0,
2025-08-14T22:39:19.264Z,2,GR86-035-11,-0.5,0.135,-0.045,99.92,3.0,,0.0,0.0,
2025-08-14T22:39:19.307Z,2,GR86-035-11,-0.5,0.172,-0.041,99.93,3.0,,0.0,0.0,
2025-08-14T22:39:19.350Z,2,GR86-035-11,-1.4,0.226,-0.053,99.97,3.0,5323.0,0.0,0.0,
2025-08-14T22:39:19.393Z,2,GR86-035-11,-2.1,0.23,-0.052,99.93,3.0,,0.0,0.0,113.92
2025-08-14T22:39:19.436Z,2,GR86-035-11,-3.0,0.181,-0.066,99.94,3.0,,0.0,0.0,
2025-08-14T22:39:19.480Z,2,GR86-035-11,-4.3,0.192,-0.066,99.95,3.0,,0.0,0.0,
2025-08-14T22:39:19.523Z,2,GR86-035-11,-5.300000000000001,0.191,-0.096,99.95,3.0,,0.0,0.0,
2025-08-14T22:39:19.567Z,2,GR86-035-11,-6.0,0.189,-0.106,99.97,3.0,5428.0,0.0,0.0,
2025-08-14T22:39:19.611Z,2,GR86-035-11,-6.7,0.216,-0.131,99.95,3.0,,0.0,0.0,115.41
2025-08-14T22:39:19.655Z,2,GR86-035-11,-7.7,0.209,-0.154,99.94,3.0,,0.0,0.0,
2025-08-14T22:39:19.699Z,2,GR86-035-11,-8.1,0.193,-0.167,99.94,3.0,,0.0,0.0,
2025-08-14T22:39:19.742Z,2,GR86-035-11,-8.3,0.174,-0.174,99.95,3.0,,0.0,0.0,
2025-08-14T22:39:19.785Z,2,GR86-035-11,-8.4,0.208,-0.209,99.95,3.0,5509.0,0.0,0.0,
2025-08-14T22:39:19.828Z,2,GR86-035-11,-8.5,0.195,-0.215,99.95,3.0,,0.0,0.0,116.84
2025-08-14T22:39:19.871Z,2,GR86-035-11,-8.5,0.193,-0.227,99.95,3.0,,0.0,0.0,
2025-08-14T22:39:19.914Z,2,GR86-035-11,-8.5,0.215,-0.234,99.96,3.0,,0.0,0.0,
2025-08-14T22:39:19.957Z,2,GR86-035-11,-8.5,0.206,-0.258,97.87,3.0,,0.0,0.0,
2025-08-14T22:39:20.000Z,2,GR86-035-11,-8.5,0.184,-0.252,87.05,3.0,5595.0,0.0,0.0,
2025-08-14T22:39:20.043Z,2,GR86-035-11,-8.5,0.185,-0.248,57.03,3.0,,0.0,0.0,118.27
2025-08-14T22:39:20.086Z,2,GR86-035-11,-8.5,0.216,-0.257,42.17,3.0,,0.0,0.0,
2025-08-14T22:39:20.129Z,2,GR86-035-11,-8.700000000000001,0.177,-0.243,36.13,3.0,,0.0,0.0,
2025-08-14T22:39:20.172Z,2,GR86-035-11,-8.700000000000001,0.15,-0.227,33.72,3.0,,0.0,0.0,
2025-08-14T22:39:20.215Z,2,GR86-035-11,-8.700000000000001,0.106,-0.251,33.17,3.0,5664.0,0.0,0.0,
2025-08-14T22:39:20.258Z,2,GR86-035-11,-7.7,0.127,-0.256,33.76,3.0,,0.0,0.0,119.75
2025-08-14T22:39:20.301Z,2,GR86-035-11,-5.6000000000000005,0.107,-0.243,35.54,3.0,,0.0,0.0,
2025-08-14T22:39:20.344Z,2,GR86-035-11,-4.5,0.098,-0.215,40.67,3.0,,0.0,0.0,
2025-08-14T22:39:20.387Z,2,GR86-035-11,-4.5,0.118,-0.206,51.57,3.0,,0.0,0.0,
2025-08-14T22:39:20.430Z,2,GR86-035-11,-4.6000000000000005,0.117,-0.185,66.68,3.0,5690.0,0.0,0.0,
2025-08-14T22:39:20.473Z,2,GR86-035-11,-4.6000000000000005,0.151,-0.183,91.63,3.0,,0.0,0.0,121.16
2025-08-14T22:39:20.517Z,2,GR86-035-11,-4.6000000000000005,0.184,-0.154,99.98,3.0,,0.0,0.0,
2025-08-14T22:39:20.560Z,2,GR86-035-11,-4.6000000000000005,0.213,-0.153,99.98,3.0,,0.0,0.0,
2025-08-14T22:39:20.603Z,2,GR86-035-11,-4.6000000000000005,0.199,-0.141,99.97,3.0,,0.0,0.0,
2025-08-14T22:39:20.646Z,2,GR86-035-11,-4.800000000000001,0.167,-0.118,99.98,3.0,5774.0,0.0,0.0,
2025-08-14T22:39:20.689Z,2,GR86-035-11,-5.1000000000000005,0.193,-0.131,99.99,3.0,,0.0,0.0,123.41
2025-08-14T22:39:20.732Z,2,GR86-035-11,-5.1000000000000005,0.207,-0.136,99.97,3.0,,0.0,0.0,
2025-08-14T22:39:20.777Z,2,GR86-035-11,-5.1000000000000005,0.205,-0.153,99.97,3.0,,0.0,0.0,
2025-08-14T22:39:20.820Z,2,GR86-035-11,-5.1000000000000005,0.158,-0.149,99.99,3.0,,0.0,0.0,
2025-08-14T22:39:20.863Z,2,GR86-035-11,-5.1000000000000005,0.187,-0.16,99.98,3.0,5818.0,0.0,0.0,
2025-08-14T22:39:20.906Z,2,GR86-035-11,-5.1000000000000005,0.216,-0.174,99.99,3.0,,0.0,0.0,124.89
2025-08-14T22:39:20.949Z,2,GR86-035-11,-5.1000000000000005,0.182,-0.161,99.99,3.0,,0.0,0.0,
2025-08-14T22:39:20.992Z,2,GR86-035-11,-5.1000000000000005,0.181,-0.167,99.98,3.0,,0.0,0.0,
2025-08-14T22:39:21.035Z,2,GR86-035-11,-5.1000000000000005,0.177,-0.158,99.98,3.0,,0.0,0.0,
2025-08-14T22:39:21.121Z,2,GR86-035-11,-5.1000000000000005,0.188,-0.173,99.98,3.0,5967.0,0.0,0.0,126.39
2025-08-14T22:39:21.163Z,2,GR86-035-11,-5.1000000000000005,0.169,-0.159,99.99,3.0,,0.0,0.0,
2025-08-14T22:39:21.207Z,2,GR86-035-11,-5.1000000000000005,0.178,-0.161,99.99,3.0,,0.0,0.0,
2025-08-14T22:39:21.250Z,2,GR86-035-11,-5.1000000000000005,0.198,-0.16,99.99,3.0,,0.0,0.0,
2025-08-14T22:39:21.293Z,2,GR86-035-11,-5.1000000000000005,0.177,-0.139,91.29,3.0,6028.0,0.0,0.0,
2025-08-14T22:39:21.336Z,2,GR86-035-11,-4.2,0.198,-0.157,86.76,3.0,,0.0,0.0,127.92
2025-08-14T22:39:21.380Z,2,GR86-035-11,-3.7,0.185,-0.143,87.48,3.0,,0.0,0.0,
2025-08-14T22:39:21.423Z,2,GR86-035-11,-3.7,0.188,-0.145,79.83,3.0,,0.0,0.0,
2025-08-14T22:39:21.466Z,2,GR86-035-11,-3.5,0.195,-0.138,62.46,3.0,,0.0,0.0,
2025-08-14T22:39:21.509Z,2,GR86-035-11,-3.4000000000000004,0.163,-0.124,54.17,3.0,6090.0,0.0,0.0,
2025-08-14T22:39:21.552Z,2,GR86-035-11,-3.4000000000000004,0.172,-0.144,51.120000000000005,3.0,,0.0,0.0,129.38
2025-08-14T22:39:21.595Z,2,GR86-035-11,-2.7,0.15,-0.143,44.76,3.0,,0.0,0.0,
2025-08-14T22:39:21.638Z,2,GR86-035-11,-2.5,0.154,-0.146,37.1,3.0,,0.0,0.0,
2025-08-14T22:39:21.681Z,2,GR86-035-11,-2.5,0.15,-0.126,32.18,3.0,,0.0,0.0,
2025-08-14T22:39:21.724Z,2,GR86-035-11,-1.9,0.123,-0.127,5.45,3.0,6139.0,0.0,0.0,
2025-08-14T22:39:21.767Z,2,GR86-035-11,-1.4,0.104,-0.117,3.75,3.0,,0.0,0.0,130.92000000000002
2025-08-14T22:39:21.811Z,2,GR86-035-11,-1.4,-0.017,-0.122,3.63,3.0,,0.0,0.0,
2025-08-14T22:39:21.854Z,2,GR86-035-11,-1.2000000000000002,-0.097,-0.075,3.41,3.0,,0.0,0.0,
2025-08-14T22:39:21.897Z,2,GR86-035-11,-0.5,-0.394,-0.125,2.91,3.0,,0.0,0.0,
2025-08-14T22:39:21.941Z,2,GR86-035-11,-0.5,-0.248,-0.038,2.74,3.0,5819.0,0.0,0.0,
2025-08-14T22:39:21.984Z,2,GR86-035-11,-0.5,-0.083,-0.1,2.66,3.0,,0.0,0.0,132.2
2025-08-14T22:39:22.027Z,2,GR86-035-11,-0.4,-0.085,-0.078,2.59,3.0,,0.0,0.0,
2025-08-14T22:39:22.070Z,2,GR86-035-11,-0.4,-0.151,-0.047,2.56,3.0,,0.0,0.0,
2025-08-14T22:39:22.113Z,2,GR86-035-11,-0.3,-0.226,-0.083,2.5500000000000003,3.0,,0.0,0.0,
2025-08-14T22:39:22.156Z,2,GR86-035-11,-0.1,-0.192,-0.047,2.52,3.0,5973.0,7.295,7.4,
2025-08-14T22:39:22.200Z,2,GR86-035-11,-0.1,-0.224,-0.059,2.51,3.0,,9.81,9.78,131.91
2025-08-14T22:39:22.243Z,2,GR86-035-11,-0.1,-0.273,-0.025,2.5,3.0,,11.155,11.185,
2025-08-14T22:39:22.286Z,2,GR86-035-11,0.8,-0.314,-0.023,2.51,3.0,,12.71,12.835,
2025-08-14T22:39:22.372Z,2,GR86-035-11,2.2,-0.397,-0.029,2.5,3.0,5945.0,18.985,19.015,
2025-08-14T22:39:22.417Z,2,GR86-035-11,3.1,-0.448,-0.023,2.51,3.0,,22.16,22.095,130.78
2025-08-14T22:39:22.460Z,2,GR86-035-11,3.6,-0.481,-0.001,2.5,3.0,,22.735,22.705,
2025-08-14T22:39:22.503Z,2,GR86-035-11,3.9,-0.479,-0.005,2.51,3.0,,23.09,23.06,
2025-08-14T22:39:22.547Z,2,GR86-035-11,4.2,-0.479,-0.011,2.5,3.0,,22.845,23.09,
2025-08-14T22:39:22.590Z,2,GR86-035-11,5.0,-0.513,-0.006,2.49,3.0,5819.0,22.735,23.06,
2025-08-14T22:39:22.633Z,2,GR86-035-11,5.6000000000000005,-0.516,0.012,2.49,3.0,,22.77,23.06,128.04
2025-08-14T22:39:22.677Z,2,GR86-035-11,5.7,-0.478,0.031,2.5,3.0,,22.735,22.995,
2025-08-14T22:39:22.720Z,2,GR86-035-11,5.7,-0.46,0.034,2.5,3.0,,22.615,22.995,
2025-08-14T22:39:22.763Z,2,GR86-035-11,6.0,-0.51,0.039,2.49,3.0,,22.4,22.675,
2025-08-14T22:39:22.806Z,2,GR86-035-11,6.800000000000001,-0.507,0.074,2.51,3.0,5664.0,22.615,22.845,
2025-08-14T22:39:22.849Z,2,GR86-035-11,8.0,-0.464,0.051,2.5,3.0,,22.4,22.965,124.79
2025-08-14T22:39:22.892Z,2,GR86-035-11,8.8,-0.51,0.093,2.5,3.0,,22.16,22.675,
2025-08-14T22:39:22.935Z,2,GR86-035-11,8.9,-0.484,0.099,2.51,3.0,,18.955,19.73,
2025-08-14T22:39:23.022Z,2,GR86-035-11,8.9,-0.411,0.118,2.5,3.0,5515.0,15.215,16.145,
2025-08-14T22:39:23.065Z,2,GR86-035-11,8.9,-0.287,0.134,2.5,3.0,,5.19,5.615,121.65
2025-08-14T22:39:23.108Z,2,GR86-035-11,9.3,-0.174,0.157,2.5,3.0,,0.0,0.0,
2025-08-14T22:39:23.152Z,2,GR86-035-11,9.5,-0.14,0.155,2.5,3.0,,0.0,0.0,
2025-08-14T22:39:23.195Z,2,GR86-035-11,9.6,-0.148,0.183,2.49,3.0,,0.0,0.0,
2025-08-14T22:39:23.238Z,2,GR86-035-11,9.6,-0.146,0.217,2.49,3.0,5401.0,0.0,0.0,
2025-08-14T22:39:23.281Z,2,GR86-035-11,9.6,-0.122,0.227,2.49,3.0,,0.0,0.0,117.87
2025-08-14T22:39:23.324Z,2,GR86-035-11,9.6,-0.125,0.226,2.5,3.0,,0.0,0.0,
2025-08-14T22:39:23.367Z,2,GR86-035-11,9.6,-0.148,0.25,2.49,3.0,,0.0,0.0,
2025-08-14T22:39:23.410Z,2,GR86-035-11,9.6,-0.155,0.249,2.5,3.0,,0.0,0.0,
2025-08-14T22:39:23.455Z,2,GR86-035-11,9.6,-0.127,0.25,2.5,3.0,5385.0,0.0,0.0,
2025-08-14T22:39:23.498Z,2,GR86-035-11,9.6,-0.124,0.256,2.49,3.0,,0.0,0.0,117.02
2025-08-14T22:39:23.541Z,2,GR86-035-11,9.6,-0.149,0.259,2.49,3.0,,0.0,0.0,
2025-08-14T22:39:23.585Z,2,GR86-035-11,9.6,-0.146,0.234,2.49,3.0,,0.0,0.0,
2025-08-14T22:39:23.628Z,2,GR86-035-11,8.200000000000001,-0.139,0.229,2.5,3.0,,0.0,0.0,
2025-08-14T22:39:23.671Z,2,GR86-035-11,6.6000000000000005,-0.129,0.221,2.5,3.0,5341.0,0.0,0.0,
2025-08-14T22:39:23.714Z,2,GR86-035-11,5.0,-0.12,0.176,2.49,3.0,,0.0,0.0,116.18
2025-08-14T22:39:23.757Z,2,GR86-035-11,2.8000000000000003,-0.138,0.143,2.49,3.0,,0.0,0.0,
2025-08-14T22:39:23.800Z,2,GR86-035-11,1.4,-0.159,0.138,2.5,3.0,,0.0,0.0,
2025-08-14T22:39:23.843Z,2,GR86-035-11,0.1,-0.134,0.096,2.49,3.0,,0.0,0.0,
2025-08-14T22:39:23.886Z,2,GR86-035-11,-0.6000000000000001,-0.127,0.059,2.49,3.0,5271.0,0.0,0.0,
2025-08-14T22:39:23.929Z,2,GR86-035-11,-1.2000000000000002,-0.139,0.046,2.49,3.0,,0.0,0.0,115.35
2025-08-14T22:39:23.972Z,2,GR86-035-11,-2.5,-0.13,-0.015,2.5,3.0,,0.0,0.0,
2025-08-14T22:39:24.015Z,2,GR86-035-11,-4.5,-0.138,-0.06,2.49,3.0,,0.0,0.0,
2025-08-14T22:39:24.060Z,2,GR86-035-11,-5.9,-0.15,-0.083,2.49,3.0,,0.0,0.0,
2025-08-14T22:39:24.103Z,2,GR86-035-11,-7.4,-0.139,-0.107,2.49,3.0,5223.0,0.0,0.0,
2025-08-14T22:39:24.146Z,2,GR86-035-11,-8.700000000000001,-0.138,-0.161,2.5,3.0,,0.0,0.0,114.49
2025-08-14T22:39:24.189Z,2,GR86-035-11,-10.0,-0.156,-0.166,2.51,3.0,,0.0,0.0,
2025-08-14T22:39:24.232Z,2,GR86-035-11,-11.4,-0.14,-0.216,2.5,3.0,,0.0,0.0,
2025-08-14T22:39:24.277Z,2,GR86-035-11,-13.0,-0.126,-0.264,2.5,3.0,,0.0,0.0,
2025-08-14T22:39:24.320Z,2,GR86-035-11,-13.8,-0.162,-0.287,2.5,3.0,5180.0,0.0,0.0,
2025-08-14T22:39:24.363Z,2,GR86-035-11,-14.4,-0.149,-0.318,2.52,3.0,,0.0,0.0,113.62
2025-08-14T22:39:24.406Z,2,GR86-035-11,-14.9,-0.147,-0.359,2.52,3.0,,0.0,0.0,
2025-08-14T22:39:24.449Z,2,GR86-035-11,-15.3,-0.164,-0.364,2.49,3.0,,0.0,0.0,
2025-08-14T22:39:24.492Z,2,GR86-035-11,-15.7,-0.129,-0.393,2.49,3.0,,0.0,0.0,
2025-08-14T22:39:24.578Z,2,GR86-035-11,-16.2,-0.138,-0.419,2.51,3.0,5149.0,0.0,0.0,112.78
2025-08-14T22:39:24.621Z,2,GR86-035-11,-17.8,-0.148,-0.425,2.49,3.0,,0.0,0.0,
2025-08-14T22:39:24.664Z,2,GR86-035-11,-18.5,-0.133,-0.439,2.49,3.0,,0.0,0.0,
2025-08-14T22:39:24.707Z,2,GR86-035-11,-18.9,-0.168,-0.435,2.49,3.0,,0.0,0.0,
2025-08-14T22:39:24.750Z,2,GR86-035-11,-19.200000000000003,-0.137,-0.451,2.5,3.0,5106.0,0.0,0.0,
2025-08-14T22:39:24.793Z,2,GR86-035-11,-19.200000000000003,-0.151,-0.438,2.49,3.0,,0.0,0.0,111.98
2025-08-14T22:39:24.836Z,2,GR86-035-11,-19.200000000000003,-0.155,-0.469,2.5,3.0,,0.0,0.0,
2025-08-14T22:39:24.880Z,2,GR86-035-11,-19.200000000000003,-0.151,-0.484,2.49,3.0,,0.0,0.0,
2025-08-14T22:39:24.923Z,2,GR86-035-11,-19.200000000000003,-0.154,-0.519,2.49,3.0,,0.0,0.0,
2025-08-14T22:39:24.967Z,2,GR86-035-11,-19.200000000000003,-0.165,-0.507,2.5,3.0,5058.0,0.0,0.0,
2025-08-14T22:39:25.010Z,2,GR86-035-11,-19.200000000000003,-0.135,-0.532,2.49,3.0,,0.0,0.0,111.08
2025-08-14T22:39:25.054Z,2,GR86-035-11,-19.200000000000003,-0.15,-0.52,2.49,3.0,,0.0,0.0,
2025-08-14T22:39:25.097Z,2,GR86-035-11,-19.200000000000003,-0.158,-0.514,2.5,3.0,,0.0,0.0,
2025-08-14T22:39:25.140Z,2,GR86-035-11,-19.200000000000003,-0.148,-0.523,2.5,3.0,,0.0,0.0,
2025-08-14T22:39:25.183Z,2,GR86-035-11,-19.200000000000003,-0.141,-0.51,2.5,3.0,5032.0,0.0,0.0,
2025-08-14T22:39:25.226Z,2,GR86-035-11,-19.200000000000003,-0.158,-0.496,2.49,3.0,,0.0,0.0,110.33
2025-08-14T22:39:25.269Z,2,GR86-035-11,-19.200000000000003,-0.128,-0.515,2.5,3.0,,0.0,0.0,
2025-08-14T22:39:25.312Z,2,GR86-035-11,-19.200000000000003,-0.155,-0.492,2.5,3.0,,0.0,0.0,
2025-08-14T22:39:25.355Z,2,GR86-035-11,-17.0,-0.174,-0.487,2.5,3.0,,0.0,0.0,
2025-08-14T22:39:25.399Z,2,GR86-035-11,-15.1,-0.14,-0.501,2.5,3.0,4993.0,0.0,0.0,
2025-08-14T22:39:25.442Z,2,GR86-035-11,-13.5,-0.145,-0.441,2.5,3.0,,0.0,0.0,109.5
2025-08-14T22:39:25.485Z,2,GR86-035-11,-12.6,-0.141,-0.435,2.49,3.0,,0.0,0.0,
2025-08-14T22:39:25.528Z,2,GR86-035-11,-11.9,-0.142,-0.421,2.49,3.0,,0.0,0.0,
2025-08-14T22:39:25.613Z,2,GR86-035-11,-10.7,-0.158,-0.379,2.49,3.0,4964.0,0.0,0.0,
2025-08-14T22:39:25.657Z,2,GR86-035-11,-6.5,-0.137,-0.342,2.5,3.0,,0.0,0.0,108.71
2025-08-14T22:39:25.700Z,2,GR86-035-11,-3.7,-0.158,-0.286,2.49,3.0,,0.0,0.0,
2025-08-14T22:39:25.743Z,2,GR86-035-11,-0.8,-0.135,-0.271,2.49,3.0,,0.0,0.0,
2025-08-14T22:39:25.786Z,2,GR86-035-11,1.8,-0.137,-0.205,2.49,3.0,,0.0,0.0,
2025-08-14T22:39:25.829Z,2,GR86-035-11,4.1000000000000005,-0.13,-0.168,2.5,3.0,4918.0,0.0,0.0,
2025-08-14T22:39:25.872Z,2,GR86-035-11,6.7,-0.124,-0.114,2.49,3.0,,0.0,0.0,107.94
2025-08-14T22:39:25.915Z,2,GR86-035-11,10.7,-0.133,-0.024,2.49,3.0,,0.0,0.0,
2025-08-14T22:39:25.958Z,2,GR86-035-11,13.3,-0.141,0.041,2.49,3.0,,0.0,0.0,
2025-08-14T22:39:26.001Z,2,GR86-035-11,15.4,-0.131,0.087,2.49,3.0,,0.0,0.0,
2025-08-14T22:39:26.044Z,2,GR86-035-11,17.2,-0.14,0.185,2.5,3.0,4889.0,0.0,0.0,
2025-08-14T22:39:26.087Z,2,GR86-035-11,18.8,-0.115,0.211,2.49,3.0,,0.0,0.0,106.37
2025-08-14T22:39:26.130Z,2,GR86-035-11,20.5,-0.127,0.304,2.5,3.0,,0.0,0.0,
2025-08-14T22:39:26.173Z,2,GR86-035-11,21.8,-0.119,0.341,2.49,3.0,,0.0,0.0,
2025-08-14T22:39:26.217Z,2,GR86-035-11,23.200000000000003,-0.132,0.406,2.5,3.0,,0.0,0.0,
2025-08-14T22:39:26.260Z,2,GR86-035-11,23.6,-0.142,0.461,2.49,3.0,4859.0,0.0,0.0,
2025-08-14T22:39:26.303Z,2,GR86-035-11,23.8,-0.126,0.486,2.49,3.0,,0.0,0.0,105.58
2025-08-14T22:39:26.346Z,2,GR86-035-11,24.1,-0.123,0.499,2.5,3.0,,0.0,0.0,
2025-08-14T22:39:26.389Z,2,GR86-035-11,24.200000000000003,-0.134,0.541,2.49,3.0,,0.0,0.0,
2025-08-14T22:39:26.432Z,2,GR86-035-11,24.3,-0.127,0.523,2.49,3.0,,0.0,0.0,
2025-08-14T22:39:26.477Z,2,GR86-035-11,24.3,-0.136,0.546,2.5,3.0,4775.0,0.0,0.0,
2025-08-14T22:39:26.520Z,2,GR86-035-11,24.3,-0.138,0.577,2.49,3.0,,0.0,0.0,104.82
2025-08-14T22:39:26.563Z,2,GR86-035-11,24.3,-0.13,0.548,2.5,3.0,,0.0,0.0,
2025-08-14T22:39:26.606Z,2,GR86-035-11,24.3,-0.141,0.577,2.5,3.0,,0.0,0.0,
2025-08-14T22:39:26.649Z,2,GR86-035-11,24.3,-0.122,0.549,2.49,3.0,,0.0,0.0,
2025-08-14T22:39:26.692Z,2,GR86-035-11,24.3,-0.125,0.559,2.5,3.0,4738.0,0.0,0.0,
2025-08-14T22:39:26.735Z,2,GR86-035-11,24.3,-0.139,0.578,2.5,3.0,,0.0,0.0,103.96
2025-08-14T22:39:26.778Z,2,GR86-035-11,24.3,-0.132,0.553,2.49,3.0,,0.0,0.0,
2025-08-14T22:39:26.821Z,2,GR86-035-11,23.9,-0.139,0.578,2.49,3.0,,0.0,0.0,
2025-08-14T22:39:26.864Z,2,GR86-035-11,23.1,-0.11,0.557,3.88,3.0,,0.0,0.0,
2025-08-14T22:39:26.907Z,2,GR86-035-11,22.1,-0.118,0.556,19.52,3.0,4707.0,0.0,0.0,
2025-08-14T22:39:26.950Z,2,GR86-035-11,20.9,-0.121,0.551,22.74,3.0,,0.0,0.0,103.09
2025-08-14T22:39:26.994Z,2,GR86-035-11,19.4,-0.116,0.512,25.14,3.0,,0.0,0.0,
2025-08-14T22:39:27.037Z,2,GR86-035-11,16.8,-0.069,0.479,26.06,3.0,,0.0,0.0,
2025-08-14T22:39:27.080Z,2,GR86-035-11,14.6,-0.02,0.461,26.32,3.0,,0.0,0.0,
2025-08-14T22:39:27.123Z,2,GR86-035-11,11.7,0.265,0.406,26.3,3.0,4809.0,0.0,0.0,
2025-08-14T22:39:27.166Z,2,GR86-035-11,8.700000000000001,0.243,0.381,25.89,3.0,,0.0,0.0,102.29
2025-08-14T22:39:27.209Z,2,GR86-035-11,6.1000000000000005,0.061,0.317,25.47,3.0,,0.0,0.0,
2025-08-14T22:39:27.252Z,2,GR86-035-11,2.8000000000000003,-0.004,0.282,25.44,3.0,,0.0,0.0,
2025-08-14T22:39:27.295Z,2,GR86-035-11,-2.5,0.134,0.16,21.88,3.0,,0.0,0.0,
2025-08-14T22:39:27.338Z,2,GR86-035-11,-5.0,0.159,0.083,21.94,3.0,4748.0,0.0,0.0,
2025-08-14T22:39:27.381Z,2,GR86-035-11,-6.800000000000001,0.09,0.036,21.94,3.0,,0.0,0.0,102.17
2025-08-14T22:39:27.424Z,2,GR86-035-11,-8.6,0.043,-0.03,21.94,3.0,,0.0,0.0,
2025-08-14T22:39:27.468Z,2,GR86-035-11,-10.3,0.032,-0.058,20.34,3.0,,0.0,0.0,
2025-08-14T22:39:27.512Z,2,GR86-035-11,-12.5,0.094,-0.126,7.3,3.0,,0.0,0.0,
2025-08-14T22:39:27.555Z,2,GR86-035-11,-15.5,0.06,-0.188,13.4,3.0,4783.0,0.0,0.0,
2025-08-14T22:39:27.598Z,2,GR86-035-11,-17.0,-0.037,-0.208,6.13,3.0,,0.0,0.0,102.91
2025-08-14T22:39:27.641Z,2,GR86-035-11,-18.5,-0.062,-0.277,3.87,3.0,,0.0,0.0,
2025-08-14T22:39:27.684Z,2,GR86-035-11,-19.700000000000003,-0.085,-0.315,3.82,3.0,,0.0,0.0,
2025-08-14T22:39:27.727Z,2,GR86-035-11,-21.0,-0.054,-0.356,3.69,3.0,,0.0,0.0,
2025-08-14T22:39:27.770Z,2,GR86-035-11,-22.9,-0.232,-0.414,3.28,3.0,4729.0,0.0,0.0,
2025-08-14T22:39:27.813Z,2,GR86-035-11,-24.4,-0.28,-0.451,3.4,3.0,,0.0,0.0,103.5
2025-08-14T22:39:27.856Z,2,GR86-035-11,-25.3,-0.09,-0.503,19.78,3.0,,0.0,0.0,
2025-08-14T22:39:27.899Z,2,GR86-035-11,-25.4,-0.095,-0.542,20.08,3.0,,0.0,0.0,
2025-08-14T22:39:27.942Z,2,GR86-035-11,-25.4,-0.09,-0.532,20.66,3.0,,0.0,0.0,
2025-08-14T22:39:27.985Z,2,GR86-035-11,-25.4,-0.09,-0.593,20.92,3.0,4802.0,0.0,0.0,
2025-08-14T22:39:28.028Z,2,GR86-035-11,-25.3,-0.097,-0.555,21.27,3.0,,0.0,0.0,103.56
2025-08-14T22:39:28.071Z,2,GR86-035-11,-25.3,0.11,-0.61,21.53,3.0,,0.0,0.0,
2025-08-14T22:39:28.113Z,2,GR86-035-11,-25.3,0.168,-0.609,21.75,3.0,,0.0,0.0,
2025-08-14T22:39:28.157Z,2,GR86-035-11,-25.3,-0.023,-0.5700000000000001,21.94,3.0,,0.0,0.0,
2025-08-14T22:39:28.200Z,2,GR86-035-11,-25.3,-0.024,-0.593,22.0,3.0,4966.0,0.0,0.0,
2025-08-14T22:39:28.243Z,2,GR86-035-11,-25.3,0.041,-0.5640000000000001,22.04,3.0,,0.0,0.0,102.79
2025-08-14T22:39:28.286Z,2,GR86-035-11,-25.3,0.102,-0.547,22.04,3.0,,0.0,0.0,
2025-08-14T22:39:28.329Z,2,GR86-035-11,-25.0,0.073,-0.551,22.05,3.0,,0.0,0.0,
2025-08-14T22:39:28.372Z,2,GR86-035-11,-23.700000000000003,0.023,-0.521,21.81,3.0,,0.0,0.0,
2025-08-14T22:39:28.417Z,2,GR86-035-11,-19.1,0.052,-0.526,7.7,3.0,4855.0,0.0,0.0,
2025-08-14T22:39:28.460Z,2,GR86-035-11,-17.0,0.062,-0.484,14.02,3.0,,0.0,0.0,102.88
2025-08-14T22:39:28.503Z,2,GR86-035-11,-14.9,0.003,-0.447,16.55,3.0,,0.0,0.0,
2025-08-14T22:39:28.547Z,2,GR86-035-11,-13.5,-0.072,-0.421,7.73,3.0,,0.0,0.0,
2025-08-14T22:39:28.590Z,2,GR86-035-11,-12.4,-0.086,-0.383,9.77,3.0,,0.0,0.0,
2025-08-14T22:39:28.634Z,2,GR86-035-11,-10.7,-0.069,-0.391,19.08,3.0,4840.0,0.0,0.0,
2025-08-14T22:39:28.677Z,2,GR86-035-11,-7.4,-0.08,-0.351,7.74,3.0,,0.0,0.0,103.76
2025-08-14T22:39:28.720Z,2,GR86-035-11,-5.0,-0.091,-0.291,7.88,3.0,,0.0,0.0,
2025-08-14T22:39:28.763Z,2,GR86-035-11,-3.7,-0.111,-0.301,19.82,3.0,,0.0,0.0,
2025-08-14T22:39:28.806Z,2,GR86-035-11,-2.0,-0.079,-0.223,21.85,3.0,,0.0,0.0,
2025-08-14T22:39:28.849Z,2,GR86-035-11,0.5,-0.059,-0.185,21.88,3.0,4748.0,0.0,0.0,
2025-08-14T22:39:28.892Z,2,GR86-035-11,3.8,-0.073,-0.137,21.93,3.0,,0.0,0.0,103.57
2025-08-14T22:39:28.935Z,2,GR86-035-11,10.0,0.048,-0.038,21.97,3.0,,0.0,0.0,
2025-08-14T22:39:28.979Z,2,GR86-035-11,12.2,0.262,0.016,22.01,3.0,,0.0,0.0,
2025-08-14T22:39:29.022Z,2,GR86-035-11,15.4,0.108,0.081,22.01,3.0,,0.0,0.0,
2025-08-14T22:39:29.065Z,2,GR86-035-11,17.400000000000002,-0.02,0.163,22.06,3.0,4772.0,0.0,0.0,
2025-08-14T22:39:29.108Z,2,GR86-035-11,19.700000000000003,-0.017,0.222,23.16,3.0,,0.0,0.0,103.35
2025-08-14T22:39:29.151Z,2,GR86-035-11,21.200000000000003,0.068,0.278,23.06,3.0,,0.0,0.0,
2025-08-14T22:39:29.195Z,2,GR86-035-11,22.4,0.114,0.366,22.96,3.0,,0.0,0.0,
2025-08-14T22:39:29.238Z,2,GR86-035-11,23.3,0.058,0.386,23.06,3.0,,0.0,0.0,
2025-08-14T22:39:29.281Z,2,GR86-035-11,24.700000000000003,0.033,0.449,23.07,3.0,4819.0,0.0,0.0,
2025-08-14T22:39:29.324Z,2,GR86-035-11,26.3,0.073,0.447,22.82,3.0,,0.0,0.0,103.95
2025-08-14T22:39:29.367Z,2,GR86-035-11,26.9,0.091,0.503,22.78,3.0,,0.0,0.0,
2025-08-14T22:39:29.410Z,2,GR86-035-11,27.3,0.1,0.498,22.86,3.0,,0.0,0.0,
2025-08-14T22:39:29.454Z,2,GR86-035-11,27.3,0.068,0.526,22.94,3.0,,0.0,0.0,
2025-08-14T22:39:29.497Z,2,GR86-035-11,27.3,0.064,0.556,22.68,3.0,4874.0,0.0,0.0,
2025-08-14T22:39:29.540Z,2,GR86-035-11,27.3,0.084,0.56,22.68,3.0,,0.0,0.0,104.58
2025-08-14T22:39:29.583Z,2,GR86-035-11,27.3,0.069,0.578,22.89,3.0,,0.0,0.0,
2025-08-14T22:39:29.626Z,2,GR86-035-11,27.3,0.066,0.606,22.63,3.0,,0.0,0.0,
2025-08-14T22:39:29.669Z,2,GR86-035-11,27.3,0.066,0.586,22.32,3.0,,0.0,0.0,
2025-08-14T22:39:29.712Z,2,GR86-035-11,27.3,0.061,0.623,22.29,3.0,4907.0,0.0,0.0,
2025-08-14T22:39:29.755Z,2,GR86-035-11,27.3,0.055,0.61,22.29,3.0,,0.0,0.0,105.17
2025-08-14T22:39:29.798Z,2,GR86-035-11,27.1,0.07,0.5720000000000001,22.15,3.0,,0.0,0.0,
2025-08-14T22:39:29.841Z,2,GR86-035-11,26.4,0.067,0.595,22.13,3.0,,0.0,0.0,
2025-08-14T22:39:29.884Z,2,GR86-035-11,25.3,0.082,0.55,22.1,3.0,,0.0,0.0,
2025-08-14T22:39:29.927Z,2,GR86-035-11,22.5,0.05,0.554,22.51,3.0,4936.0,0.0,0.0,
2025-08-14T22:39:29.970Z,2,GR86-035-11,20.200000000000003,0.061,0.529,22.43,3.0,,0.0,0.0,105.72
2025-08-14T22:39:30.014Z,2,GR86-035-11,16.8,0.063,0.478,22.24,3.0,,0.0,0.0,
2025-08-14T22:39:30.057Z,2,GR86-035-11,11.8,0.066,0.426,22.26,3.0,,0.0,0.0,
2025-08-14T22:39:30.100Z,2,GR86-035-11,7.800000000000001,0.07,0.379,22.45,3.0,,0.0,0.0,
2025-08-14T22:39:30.143Z,2,GR86-035-11,4.3,0.079,0.302,22.17,3.0,4958.0,0.0,0.0,
2025-08-14T22:39:30.186Z,2,GR86-035-11,1.7000000000000002,0.074,0.265,22.15,3.0,,0.0,0.0,106.2
2025-08-14T22:39:30.229Z,2,GR86-035-11,-2.0,0.083,0.164,22.13,3.0,,0.0,0.0,
2025-08-14T22:39:30.272Z,2,GR86-035-11,-4.0,0.062,0.117,22.11,3.0,,0.0,0.0,
2025-08-14T22:39:30.315Z,2,GR86-035-11,-7.9,0.062,0.009,19.6,3.0,,0.0,0.0,
2025-08-14T22:39:30.358Z,2,GR86-035-11,-9.9,0.069,-0.072,20.56,3.0,4969.0,0.0,0.0,
2025-08-14T22:39:30.401Z,2,GR86-035-11,-11.8,0.045,-0.111,21.69,3.0,,0.0,0.0,106.71
2025-08-14T22:39:30.444Z,2,GR86-035-11,-13.0,0.031,-0.163,21.78,3.0,,0.0,0.0,
2025-08-14T22:39:30.487Z,2,GR86-035-11,-14.3,0.044,-0.208,21.85,3.0,,0.0,0.0,
2025-08-14T22:39:30.530Z,2,GR86-035-11,-15.7,0.046,-0.232,21.94,3.0,,0.0,0.0,
2025-08-14T22:39:30.573Z,2,GR86-035-11,-16.6,0.065,-0.282,21.97,3.0,4981.0,0.0,0.0,
2025-08-14T22:39:30.617Z,2,GR86-035-11,-18.3,0.057,-0.333,22.02,3.0,,0.0,0.0,107.26
2025-08-14T22:39:30.660Z,2,GR86-035-11,-19.8,0.04,-0.352,22.04,3.0,,0.0,0.0,
2025-08-14T22:39:30.703Z,2,GR86-035-11,-21.4,0.045,-0.406,22.06,3.0,,0.0,0.0,
2025-08-14T22:39:30.746Z,2,GR86-035-11,-22.9,0.037,-0.418,22.04,3.0,,0.0,0.0,
2025-08-14T22:39:30.832Z,2,GR86-035-11,-25.700000000000003,0.046,-0.482,22.06,3.0,5027.0,0.0,0.0,107.78
2025-08-14T22:39:30.877Z,2,GR86-035-11,-26.1,0.045,-0.521,22.07,3.0,,0.0,0.0,
2025-08-14T22:39:30.920Z,2,GR86-035-11,-26.1,0.039,-0.522,22.05,3.0,,0.0,0.0,
2025-08-14T22:39:30.963Z,2,GR86-035-11,-26.1,0.045,-0.547,22.04,3.0,,0.0,0.0,
2025-08-14T22:39:31.006Z,2,GR86-035-11,-26.200000000000003,0.022,-0.552,20.79,3.0,5058.0,0.0,0.0,
2025-08-14T22:39:31.049Z,2,GR86-035-11,-26.200000000000003,0.026,-0.5660000000000001,21.79,3.0,,0.0,0.0,108.35
2025-08-14T22:39:31.092Z,2,GR86-035-11,-26.200000000000003,0.039,-0.591,21.91,3.0,,0.0,0.0,
2025-08-14T22:39:31.135Z,2,GR86-035-11,-26.200000000000003,0.016,-0.593,22.0,3.0,,0.0,0.0,
2025-08-14T22:39:31.178Z,2,GR86-035-11,-26.0,0.026,-0.599,22.04,3.0,,0.0,0.0,
2025-08-14T22:39:31.221Z,2,GR86-035-11,-24.6,0.046,-0.602,22.04,3.0,5078.0,0.0,0.0,
2025-08-14T22:39:31.264Z,2,GR86-035-11,-21.6,0.029,-0.5700000000000001,22.05,3.0,,0.0,0.0,108.82
2025-08-14T22:39:31.307Z,2,GR86-035-11,-18.1,0.045,-0.547,20.05,3.0,,0.0,0.0,
2025-08-14T22:39:31.350Z,2,GR86-035-11,-14.4,0.038,-0.5,20.58,3.0,,0.0,0.0,
2025-08-14T22:39:31.393Z,2,GR86-035-11,-12.7,0.038,-0.481,21.85,3.0,,0.0,0.0,
2025-08-14T22:39:31.436Z,2,GR86-035-11,-9.6,0.033,-0.423,21.97,3.0,5097.0,0.0,0.0,
2025-08-14T22:39:31.480Z,2,GR86-035-11,-8.4,0.054,-0.391,21.36,3.0,,0.0,0.0,109.75
2025-08-14T22:39:31.523Z,2,GR86-035-11,-6.9,0.058,-0.345,21.97,3.0,,0.0,0.0,
2025-08-14T22:39:31.567Z,2,GR86-035-11,-5.5,0.059,-0.294,22.01,3.0,,0.0,0.0,
2025-08-14T22:39:31.611Z,2,GR86-035-11,-3.6,0.042,-0.234,20.87,3.0,,0.0,0.0,
2025-08-14T22:39:31.654Z,2,GR86-035-11,-0.8,0.045,-0.202,18.41,3.0,5109.0,0.0,0.0,
2025-08-14T22:39:31.697Z,2,GR86-035-11,1.4,0.048,-0.146,21.76,3.0,,0.0,0.0,110.22
2025-08-14T22:39:31.740Z,2,GR86-035-11,3.3000000000000003,0.024,-0.083,21.92,3.0,,0.0,0.0,
2025-08-14T22:39:31.783Z,2,GR86-035-11,5.1000000000000005,0.026,-0.047,19.23,3.0,,0.0,0.0,
2025-08-14T22:39:31.826Z,2,GR86-035-11,6.9,0.045,-0.001,18.94,3.0,,0.0,0.0,
2025-08-14T22:39:31.869Z,2,GR86-035-11,8.8,0.041,0.059,21.35,3.0,5129.0,0.0,0.0,
2025-08-14T22:39:31.912Z,2,GR86-035-11,10.9,0.03,0.084,20.51,3.0,,0.0,0.0,110.73
2025-08-14T22:39:31.955Z,2,GR86-035-11,14.3,0.013,0.15,19.09,3.0,,0.0,0.0,
2025-08-14T22:39:32.000Z,2,GR86-035-11,16.3,0.049,0.203,21.73,3.0,,0.0,0.0,
2025-08-14T22:39:32.043Z,2,GR86-035-11,18.3,0.038,0.243,21.91,3.0,,0.0,0.0,
2025-08-14T22:39:32.086Z,2,GR86-035-11,20.0,0.032,0.281,20.87,3.0,5155.0,0.0,0.0,
2025-08-14T22:39:32.129Z,2,GR86-035-11,21.6,0.02,0.332,19.62,3.0,,0.0,0.0,111.16
2025-08-14T22:39:32.172Z,2,GR86-035-11,22.9,0.046,0.365,21.67,3.0,,0.0,0.0,
2025-08-14T22:39:32.215Z,2,GR86-035-11,23.9,0.033,0.425,21.94,3.0,,0.0,0.0,
2025-08-14T22:39:32.258Z,2,GR86-035-11,24.1,0.032,0.467,19.88,3.0,,0.0,0.0,
2025-08-14T22:39:32.301Z,2,GR86-035-11,24.1,0.045,0.497,21.06,3.0,5176.0,0.0,0.0,
2025-08-14T22:39:32.344Z,2,GR86-035-11,24.1,0.057,0.509,21.91,3.0,,0.0,0.0,111.53
