timestamp,lap,vehicle_id,steering_angle,accx_can,accy_can,ath,gear,nmot,pbrake_f,pbrake_r,speed
2025-08-15T04:59:39.391Z,7,GR86-028-89,1.8,0.093,0.078,100.08,4.0,6978.0,0.0,0.0,
2025-08-15T04:59:39.434Z,7,GR86-028-89,1.8,0.09,0.07,100.04,4.0,,0.0,0.0,176.61
2025-08-15T04:59:39.477Z,7,GR86-028-89,1.8,0.123,0.037,100.03,4.0,,0.0,0.0,
2025-08-15T04:59:39.520Z,7,GR86-028-89,1.7000000000000002,0.108,0.047,100.03,4.0,,0.0,0.0,
2025-08-15T04:59:39.565Z,7,GR86-028-89,1.6,0.107,0.036,100.01,4.0,,0.0,0.0,
2025-08-15T04:59:39.607Z,7,GR86-028-89,1.5,0.104,0.031,100.0,4.0,7023.0,0.0,0.0,
2025-08-15T04:59:39.650Z,7,GR86-028-89,1.2000000000000002,0.098,0.034,99.99,4.0,,0.0,0.0,177.34
2025-08-15T04:59:39.694Z,7,GR86-028-89,1.2000000000000002,0.103,0.012,99.97,4.0,,0.0,0.0,
2025-08-15T04:59:39.736Z,7,GR86-028-89,1.2000000000000002,0.105,0.009,100.01,4.0,,0.0,0.0,
2025-08-15T04:59:39.779Z,7,GR86-028-89,1.2000000000000002,0.117,0.025,100.0,4.0,,0.0,0.0,
2025-08-15T04:59:39.825Z,7,GR86-028-89,1.2000000000000002,0.114,0.01,99.97,4.0,7067.0,0.0,0.0,
2025-08-15T04:59:39.867Z,7,GR86-028-89,1.2000000000000002,0.111,0.0,99.96,4.0,,0.0,0.0,178.0
2025-08-15T04:59:39.910Z,7,GR86-028-89,1.2000000000000002,0.114,0.003,99.99,4.0,,0.0,0.0,
2025-08-15T04:59:39.954Z,7,GR86-028-89,1.2000000000000002,0.103,-0.017,100.0,4.0,,0.0,0.0,
2025-08-15T04:59:39.996Z,7,GR86-028-89,1.1,0.099,-0.005,100.03,4.0,,0.0,0.0,
2025-08-15T04:59:40.039Z,7,GR86-028-89,1.0,0.112,-0.012,100.0,4.0,7093.0,0.0,0.0,
2025-08-15T04:59:40.084Z,7,GR86-028-89,1.0,0.098,0.01,99.99,4.0,,0.0,0.0,178.76
2025-08-15T04:59:40.127Z,7,GR86-028-89,1.0,0.087,-0.014,100.04,4.0,,0.0,0.0,
2025-08-15T04:59:40.171Z,7,GR86-028-89,1.2000000000000002,0.102,-0.006,100.05,4.0,,0.0,0.0,
2025-08-15T04:59:40.214Z,7,GR86-028-89,1.3,0.086,-0.028,100.03,4.0,,0.0,0.0,
2025-08-15T04:59:40.257Z,7,GR86-028-89,1.3,0.104,-0.034,100.02,4.0,7116.0,0.0,0.0,
2025-08-15T04:59:40.299Z,7,GR86-028-89,1.3,0.088,-0.027,100.02,4.0,,0.0,0.0,179.53
2025-08-15T04:59:40.345Z,7,GR86-028-89,1.5,0.103,-0.046,99.98,4.0,,0.0,0.0,
2025-08-15T04:59:40.387Z,7,GR86-028-89,2.0,0.107,-0.031,100.01,4.0,,0.0,0.0,
2025-08-15T04:59:40.431Z,7,GR86-028-89,2.4000000000000004,0.116,-0.026,99.96,4.0,,0.0,0.0,
2025-08-15T04:59:40.475Z,7,GR86-028-89,2.5,0.124,-0.031,99.98,4.0,7144.0,0.0,0.0,
2025-08-15T04:59:40.517Z,7,GR86-028-89,2.5,0.109,-0.023,99.96,4.0,,0.0,0.0,180.34
2025-08-15T04:59:40.560Z,7,GR86-028-89,2.5,0.112,-0.031,99.99,4.0,,0.0,0.0,
2025-08-15T04:59:40.605Z,7,GR86-028-89,2.5,0.1,-0.015,99.96,4.0,,0.0,0.0,
2025-08-15T04:59:40.648Z,7,GR86-028-89,2.5,0.082,-0.008,99.98,4.0,,0.0,0.0,
2025-08-15T04:59:40.691Z,7,GR86-028-89,2.8000000000000003,0.107,0.018,100.01,4.0,7169.0,0.0,0.0,
2025-08-15T04:59:40.734Z,7,GR86-028-89,3.3000000000000003,0.118,0.008,100.0,4.0,,0.0,0.0,181.17
2025-08-15T04:59:40.777Z,7,GR86-028-89,3.4000000000000004,0.106,0.019,100.01,4.0,,0.0,0.0,
2025-08-15T04:59:40.821Z,7,GR86-028-89,3.5,0.106,0.004,100.0,4.0,,0.0,0.0,
2025-08-15T04:59:40.865Z,7,GR86-028-89,4.0,0.11,0.023,100.04,4.0,,0.0,0.0,
2025-08-15T04:59:40.907Z,7,GR86-028-89,4.4,0.101,0.046,100.01,4.0,7200.0,0.0,0.0,
2025-08-15T04:59:40.950Z,7,GR86-028-89,4.6000000000000005,0.11,0.067,100.04,4.0,,0.0,0.0,181.82
2025-08-15T04:59:40.994Z,7,GR86-028-89,4.7,0.107,0.053,100.04,4.0,,0.0,0.0,
2025-08-15T04:59:41.037Z,7,GR86-028-89,4.7,0.116,0.064,100.0,4.0,,0.0,0.0,
2025-08-15T04:59:41.079Z,7,GR86-028-89,4.4,0.105,0.055,99.98,4.0,,0.0,0.0,
2025-08-15T04:59:41.125Z,7,GR86-028-89,4.4,0.097,0.085,99.96,4.0,7247.0,0.0,0.0,
2025-08-15T04:59:41.168Z,7,GR86-028-89,4.4,-0.075,0.099,99.97,5.0,,0.0,0.0,182.58
2025-08-15T04:59:41.211Z,7,GR86-028-89,4.6000000000000005,0.259,0.142,99.99,5.0,,0.0,0.0,
2025-08-15T04:59:41.254Z,7,GR86-028-89,4.4,0.279,0.038,99.98,5.0,,0.0,0.0,
2025-08-15T04:59:41.297Z,7,GR86-028-89,3.3000000000000003,0.062,0.089,99.98,5.0,,0.0,0.0,
2025-08-15T04:59:41.340Z,7,GR86-028-89,2.3000000000000003,0.023,0.18,99.98,5.0,6941.0,0.0,0.0,
2025-08-15T04:59:41.384Z,7,GR86-028-89,2.3000000000000003,0.136,0.038,99.99,5.0,,0.0,0.0,183.46
2025-08-15T04:59:41.427Z,7,GR86-028-89,2.4000000000000004,0.109,0.138,99.97,5.0,,0.0,0.0,
2025-08-15T04:59:41.471Z,7,GR86-028-89,2.4000000000000004,0.091,0.07,99.99,5.0,,0.0,0.0,
2025-08-15T04:59:41.514Z,7,GR86-028-89,2.2,0.101,0.05,100.01,5.0,,0.0,0.0,
2025-08-15T04:59:41.557Z,7,GR86-028-89,1.8,0.101,0.093,100.04,5.0,6366.0,0.0,0.0,
2025-08-15T04:59:41.644Z,7,GR86-028-89,1.8,0.101,0.059,100.08,5.0,,0.0,0.0,184.15
2025-08-15T04:59:41.687Z,7,GR86-028-89,1.6,0.073,0.052,100.09,5.0,,0.0,0.0,
2025-08-15T04:59:41.731Z,7,GR86-028-89,1.3,0.068,0.042,100.12,5.0,,0.0,0.0,
2025-08-15T04:59:41.774Z,7,GR86-028-89,1.3,0.075,0.039,100.07,5.0,6343.0,0.0,0.0,
2025-08-15T04:59:41.817Z,7,GR86-028-89,1.3,0.062,0.041,100.07,5.0,,0.0,0.0,185.49
2025-08-15T04:59:41.860Z,7,GR86-028-89,1.3,0.076,0.018,100.0,5.0,,0.0,0.0,
2025-08-15T04:59:41.906Z,7,GR86-028-89,0.9,0.097,0.009,99.96,5.0,,0.0,0.0,
2025-08-15T04:59:41.949Z,7,GR86-028-89,0.8,0.09,-0.01,99.96,5.0,,0.0,0.0,
2025-08-15T04:59:41.993Z,7,GR86-028-89,0.8,0.083,-0.021,99.95,5.0,6364.0,0.0,0.0,
2025-08-15T04:59:42.035Z,7,GR86-028-89,0.8,0.08,-0.012,99.96,5.0,,0.0,0.0,186.18
2025-08-15T04:59:42.078Z,7,GR86-028-89,0.8,0.08,-0.012,99.95,5.0,,0.0,0.0,
2025-08-15T04:59:42.121Z,7,GR86-028-89,0.9,0.082,-0.023,99.94,5.0,,0.0,0.0,
2025-08-15T04:59:42.168Z,7,GR86-028-89,1.0,0.086,-0.017,99.95,5.0,,0.0,0.0,
2025-08-15T04:59:42.211Z,7,GR86-028-89,1.0,0.083,-0.038,99.98,5.0,6402.0,0.0,0.0,
2025-08-15T04:59:42.254Z,7,GR86-028-89,1.0,0.077,-0.032,99.97,5.0,,0.0,0.0,186.93
2025-08-15T04:59:42.297Z,7,GR86-028-89,1.0,0.098,-0.039,99.95,5.0,,0.0,0.0,
2025-08-15T04:59:42.340Z,7,GR86-028-89,0.6000000000000001,0.095,-0.053,99.99,5.0,,0.0,0.0,
2025-08-15T04:59:42.384Z,7,GR86-028-89,-0.1,0.07,-0.032,99.94,5.0,,0.0,0.0,
2025-08-15T04:59:42.427Z,7,GR86-028-89,0.0,0.053,-0.05,99.97,5.0,6421.0,0.0,0.0,
2025-08-15T04:59:42.471Z,7,GR86-028-89,0.6000000000000001,0.073,-0.038,99.97,5.0,,0.0,0.0,187.54
2025-08-15T04:59:42.514Z,7,GR86-028-89,1.2000000000000002,0.072,-0.038,100.0,5.0,,0.0,0.0,
2025-08-15T04:59:42.557Z,7,GR86-028-89,1.1,0.073,-0.055,99.97,5.0,,0.0,0.0,
2025-08-15T04:59:42.600Z,7,GR86-028-89,0.5,0.083,-0.078,99.97,5.0,,0.0,0.0,
2025-08-15T04:59:42.644Z,7,GR86-028-89,-1.0,0.078,-0.038,99.97,5.0,6458.0,0.0,0.0,
2025-08-15T04:59:42.687Z,7,GR86-028-89,-1.3,0.081,-0.057,100.07,5.0,,0.0,0.0,188.2
2025-08-15T04:59:42.731Z,7,GR86-028-89,-1.1,0.073,-0.047,100.11,5.0,,0.0,0.0,
2025-08-15T04:59:42.775Z,7,GR86-028-89,-1.1,0.078,-0.061,100.14,5.0,,0.0,0.0,
2025-08-15T04:59:42.817Z,7,GR86-028-89,-1.1,0.07,-0.078,100.12,5.0,,0.0,0.0,
2025-08-15T04:59:42.860Z,7,GR86-028-89,-1.2000000000000002,0.067,-0.061,100.14,5.0,6480.0,0.0,0.0,
2025-08-15T04:59:42.906Z,7,GR86-028-89,-1.2000000000000002,0.07,-0.089,100.07,5.0,,0.0,0.0,188.67
2025-08-15T04:59:42.948Z,7,GR86-028-89,-1.4,0.08,-0.091,100.05,5.0,,0.0,0.0,
2025-08-15T04:59:42.991Z,7,GR86-028-89,-1.4,0.069,-0.075,99.98,5.0,,0.0,0.0,
2025-08-15T04:59:43.034Z,7,GR86-028-89,-1.0,0.066,-0.115,99.97,5.0,,0.0,0.0,
2025-08-15T04:59:43.077Z,7,GR86-028-89,-0.6000000000000001,0.077,-0.103,99.91,5.0,6491.0,0.0,0.0,
2025-08-15T04:59:43.120Z,7,GR86-028-89,-0.5,0.065,-0.124,99.96,5.0,,0.0,0.0,189.3
2025-08-15T04:59:43.165Z,7,GR86-028-89,-0.5,0.051,-0.122,99.96,5.0,,0.0,0.0,
2025-08-15T04:59:43.207Z,7,GR86-028-89,-0.5,0.059,-0.129,99.94,5.0,,0.0,0.0,
2025-08-15T04:59:43.250Z,7,GR86-028-89,-0.7000000000000001,0.062,-0.141,99.97,5.0,,0.0,0.0,
2025-08-15T04:59:43.294Z,7,GR86-028-89,-1.0,0.053,-0.129,99.94,5.0,6507.0,0.0,0.0,
2025-08-15T04:59:43.336Z,7,GR86-028-89,-0.9,0.066,-0.102,99.98,5.0,,0.0,0.0,190.06
2025-08-15T04:59:43.379Z,7,GR86-028-89,-0.1,0.063,-0.118,99.93,5.0,,0.0,0.0,
2025-08-15T04:59:43.425Z,7,GR86-028-89,0.6000000000000001,0.074,-0.113,99.97,5.0,,0.0,0.0,
2025-08-15T04:59:43.467Z,7,GR86-028-89,0.6000000000000001,0.069,-0.1,99.98,5.0,,0.0,0.0,
2025-08-15T04:59:43.510Z,7,GR86-028-89,0.6000000000000001,0.052,-0.116,99.94,5.0,6545.0,0.0,0.0,
2025-08-15T04:59:43.554Z,7,GR86-028-89,0.7000000000000001,0.055,-0.085,100.0,5.0,,0.0,0.0,190.64
2025-08-15T04:59:43.597Z,7,GR86-028-89,0.8,0.054,-0.105,99.95,5.0,,0.0,0.0,
2025-08-15T04:59:43.640Z,7,GR86-028-89,0.7000000000000001,0.071,-0.085,99.96,5.0,,0.0,0.0,
2025-08-15T04:59:43.684Z,7,GR86-028-89,0.2,0.052,-0.056,100.0,5.0,,0.0,0.0,
2025-08-15T04:59:43.727Z,7,GR86-028-89,0.2,0.077,-0.036,99.99,5.0,6552.0,0.0,0.0,
2025-08-15T04:59:43.770Z,7,GR86-028-89,0.2,0.045,-0.048,100.06,5.0,,0.0,0.0,191.42
2025-08-15T04:59:43.814Z,7,GR86-028-89,0.2,0.072,-0.05,100.12,5.0,,0.0,0.0,
2025-08-15T04:59:43.857Z,7,GR86-028-89,0.2,0.029,-0.065,100.12,5.0,,0.0,0.0,
2025-08-15T04:59:43.900Z,7,GR86-028-89,0.2,0.039,-0.083,100.14,5.0,,0.0,0.0,
2025-08-15T04:59:43.946Z,7,GR86-028-89,-0.2,0.061,-0.077,100.11,5.0,6601.0,0.0,0.0,
2025-08-15T04:59:43.988Z,7,GR86-028-89,-0.5,0.065,-0.077,100.06,5.0,,0.0,0.0,191.86
2025-08-15T04:59:44.031Z,7,GR86-028-89,-0.5,0.067,-0.066,100.04,5.0,,0.0,0.0,
2025-08-15T04:59:44.075Z,7,GR86-028-89,-0.5,0.057,-0.06,99.97,5.0,,0.0,0.0,
2025-08-15T04:59:44.117Z,7,GR86-028-89,-0.5,0.051,-0.053,99.93,5.0,,0.0,0.0,
2025-08-15T04:59:44.160Z,7,GR86-028-89,0.2,0.056,-0.043,99.95,5.0,6595.0,0.0,0.0,
2025-08-15T04:59:44.205Z,7,GR86-028-89,1.3,0.064,-0.07,99.96,5.0,,0.0,0.0,193.12
2025-08-15T04:59:44.248Z,7,GR86-028-89,1.2000000000000002,0.07,-0.096,99.94,5.0,,0.0,0.0,
2025-08-15T04:59:44.291Z,7,GR86-028-89,0.6000000000000001,0.054,-0.082,99.96,5.0,,0.0,0.0,
2025-08-15T04:59:44.334Z,7,GR86-028-89,0.6000000000000001,0.049,-0.088,99.94,5.0,,0.0,0.0,
2025-08-15T04:59:44.377Z,7,GR86-028-89,0.5,0.064,-0.073,99.94,5.0,6624.0,0.0,0.0,
2025-08-15T04:59:44.421Z,7,GR86-028-89,0.3,0.039,-0.086,99.96,5.0,,0.0,0.0,193.9
2025-08-15T04:59:44.465Z,7,GR86-028-89,0.2,0.072,-0.107,99.97,5.0,,0.0,0.0,
2025-08-15T04:59:44.507Z,7,GR86-028-89,0.4,0.063,-0.086,99.94,5.0,,0.0,0.0,
2025-08-15T04:59:44.550Z,7,GR86-028-89,0.8,0.057,-0.059,99.98,5.0,,0.0,0.0,
2025-08-15T04:59:44.594Z,7,GR86-028-89,1.3,0.054,-0.049,99.99,5.0,6629.0,0.0,0.0,
2025-08-15T04:59:44.637Z,7,GR86-028-89,2.0,0.047,-0.057,99.97,5.0,,0.0,0.0,194.28
2025-08-15T04:59:44.679Z,7,GR86-028-89,2.1,0.048,-0.064,99.98,5.0,,0.0,0.0,
2025-08-15T04:59:44.725Z,7,GR86-028-89,1.8,0.058,-0.08,100.02,5.0,,0.0,0.0,
2025-08-15T04:59:44.767Z,7,GR86-028-89,1.8,0.056,-0.058,100.1,5.0,,0.0,0.0,
2025-08-15T04:59:44.810Z,7,GR86-028-89,1.8,0.058,-0.053,100.12,5.0,6663.0,0.0,0.0,
2025-08-15T04:59:44.854Z,7,GR86-028-89,1.8,0.068,-0.047,100.13,5.0,,0.0,0.0,195.0
2025-08-15T04:59:44.897Z,7,GR86-028-89,1.8,0.058,-0.026,100.16,5.0,,0.0,0.0,
2025-08-15T04:59:44.940Z,7,GR86-028-89,1.8,0.06,-0.028,100.1,5.0,,0.0,0.0,
2025-08-15T04:59:44.984Z,7,GR86-028-89,1.8,0.083,-0.001,100.09,5.0,,0.0,0.0,
2025-08-15T04:59:45.027Z,7,GR86-028-89,2.0,0.07,-0.004,100.0,5.0,6695.0,0.0,0.0,
2025-08-15T04:59:45.070Z,7,GR86-028-89,2.2,0.071,-0.013,99.97,5.0,,0.0,0.0,195.34
2025-08-15T04:59:45.114Z,7,GR86-028-89,2.2,0.064,-0.006,99.94,5.0,,0.0,0.0,
2025-08-15T04:59:45.157Z,7,GR86-028-89,1.8,0.062,-0.019,99.91,5.0,,0.0,0.0,
2025-08-15T04:59:45.200Z,7,GR86-028-89,1.0,0.052,-0.001,99.94,5.0,,0.0,0.0,
2025-08-15T04:59:45.244Z,7,GR86-028-89,0.7000000000000001,0.071,-0.01,99.96,5.0,6705.0,0.0,0.0,
2025-08-15T04:59:45.287Z,7,GR86-028-89,0.7000000000000001,0.071,-0.026,99.95,5.0,,0.0,0.0,196.07
2025-08-15T04:59:45.331Z,7,GR86-028-89,0.6000000000000001,0.054,-0.021,99.95,5.0,,0.0,0.0,
2025-08-15T04:59:45.374Z,7,GR86-028-89,0.8,0.046,-0.03,99.94,5.0,,0.0,0.0,
2025-08-15T04:59:45.417Z,7,GR86-028-89,1.6,0.065,-0.034,99.97,5.0,,0.0,0.0,
2025-08-15T04:59:45.460Z,7,GR86-028-89,2.3000000000000003,0.074,-0.022,99.97,5.0,6733.0,0.0,0.0,
2025-08-15T04:59:45.505Z,7,GR86-028-89,2.6,0.062,-0.026,99.98,5.0,,0.0,0.0,196.5
2025-08-15T04:59:45.548Z,7,GR86-028-89,2.6,0.049,-0.05,99.95,5.0,,0.0,0.0,
2025-08-15T04:59:45.591Z,7,GR86-028-89,2.5,0.053,-0.056,99.94,5.0,,0.0,0.0,
2025-08-15T04:59:45.634Z,7,GR86-028-89,2.4000000000000004,0.036,-0.058,99.96,5.0,,0.0,0.0,
2025-08-15T04:59:45.677Z,7,GR86-028-89,2.2,0.052,-0.032,100.02,5.0,6747.0,0.0,0.0,
2025-08-15T04:59:45.720Z,7,GR86-028-89,1.9,0.064,-0.033,100.01,5.0,,0.0,0.0,197.14
2025-08-15T04:59:45.765Z,7,GR86-028-89,1.8,0.054,-0.019,100.15,5.0,,0.0,0.0,
2025-08-15T04:59:45.807Z,7,GR86-028-89,2.5,0.027,-0.034,100.14,5.0,,0.0,0.0,
2025-08-15T04:59:45.850Z,7,GR86-028-89,3.1,0.058,-0.027,100.1,5.0,,0.0,0.0,
2025-08-15T04:59:45.894Z,7,GR86-028-89,3.1,0.057,-0.015,100.12,5.0,6758.0,0.0,0.0,
2025-08-15T04:59:45.936Z,7,GR86-028-89,3.1,0.056,-0.007,100.1,5.0,,0.0,0.0,197.59
2025-08-15T04:59:45.979Z,7,GR86-028-89,3.3000000000000003,0.052,-0.013,100.07,5.0,,0.0,0.0,
2025-08-15T04:59:46.025Z,7,GR86-028-89,3.0,0.033,-0.017,99.97,5.0,,0.0,0.0,
2025-08-15T04:59:46.068Z,7,GR86-028-89,2.6,0.065,-0.011,99.91,5.0,,0.0,0.0,
2025-08-15T04:59:46.111Z,7,GR86-028-89,2.7,0.024,-0.021,99.91,5.0,6769.0,0.0,0.0,
2025-08-15T04:59:46.154Z,7,GR86-028-89,3.1,0.068,0.004,99.94,5.0,,0.0,0.0,197.89
2025-08-15T04:59:46.197Z,7,GR86-028-89,3.4000000000000004,0.062,0.019,99.96,5.0,,0.0,0.0,
2025-08-15T04:59:46.240Z,7,GR86-028-89,3.4000000000000004,0.049,0.031,99.94,5.0,,0.0,0.0,
2025-08-15T04:59:46.284Z,7,GR86-028-89,3.6,0.053,0.046,99.97,5.0,,0.0,0.0,
2025-08-15T04:59:46.327Z,7,GR86-028-89,3.1,0.058,0.026,99.96,5.0,6804.0,0.0,0.0,
2025-08-15T04:59:46.371Z,7,GR86-028-89,2.0,0.081,0.031,99.93,5.0,,0.0,0.0,198.25
2025-08-15T04:59:46.414Z,7,GR86-028-89,1.6,0.072,0.025,99.95,5.0,,0.0,0.0,
2025-08-15T04:59:46.457Z,7,GR86-028-89,1.9,0.054,0.029,99.96,5.0,,0.0,0.0,
2025-08-15T04:59:46.500Z,7,GR86-028-89,2.1,0.048,0.021,100.0,5.0,,0.0,0.0,
2025-08-15T04:59:46.544Z,7,GR86-028-89,1.5,0.062,0.0,99.96,5.0,6809.0,0.0,0.0,
2025-08-15T04:59:46.587Z,7,GR86-028-89,1.3,0.068,-0.001,99.99,5.0,,0.0,0.0,198.64
2025-08-15T04:59:46.631Z,7,GR86-028-89,1.3,0.047,0.011,100.01,5.0,,0.0,0.0,
2025-08-15T04:59:46.675Z,7,GR86-028-89,1.4,0.04,0.012,100.02,5.0,,0.0,0.0,
2025-08-15T04:59:46.717Z,7,GR86-028-89,1.4,0.041,-0.005,100.1,5.0,,0.0,0.0,
2025-08-15T04:59:46.760Z,7,GR86-028-89,1.5,0.027,-0.01,100.11,5.0,6818.0,0.0,0.0,
2025-08-15T04:59:46.806Z,7,GR86-028-89,1.9,0.046,-0.009,100.11,5.0,,0.0,0.0,199.61
2025-08-15T04:59:46.848Z,7,GR86-028-89,2.2,0.052,-0.009,100.11,5.0,,0.0,0.0,
2025-08-15T04:59:46.891Z,7,GR86-028-89,2.3000000000000003,0.03,-0.016,100.08,5.0,,0.0,0.0,
2025-08-15T04:59:46.935Z,7,GR86-028-89,2.3000000000000003,0.041,-0.033,100.08,5.0,,0.0,0.0,
2025-08-15T04:59:46.977Z,7,GR86-028-89,2.3000000000000003,0.028,-0.032,100.01,5.0,6833.0,0.0,2.045,
2025-08-15T04:59:47.020Z,7,GR86-028-89,2.4000000000000004,0.043,-0.038,99.96,5.0,,4.09,4.305,200.01
2025-08-15T04:59:47.065Z,7,GR86-028-89,2.8000000000000003,-0.035,-0.016,99.95,5.0,,9.49,9.57,
2025-08-15T04:59:47.107Z,7,GR86-028-89,3.1,-0.106,-0.005,99.95,5.0,,14.575,14.635,
2025-08-15T04:59:47.150Z,7,GR86-028-89,3.1,-0.209,0.019,63.67,5.0,,19.395,19.365,
2025-08-15T04:59:47.194Z,7,GR86-028-89,2.3000000000000003,-0.271,0.02,46.61,5.0,6843.0,21.775,21.715,
2025-08-15T04:59:47.236Z,7,GR86-028-89,1.6,-0.291,0.038,40.01,5.0,,21.625,21.99,199.94
2025-08-15T04:59:47.279Z,7,GR86-028-89,1.6,-0.295,0.015,38.19,5.0,,19.9,20.755,
2025-08-15T04:59:47.325Z,7,GR86-028-89,1.8,-0.281,0.025,37.19,5.0,,12.65,13.52,
2025-08-15T04:59:47.367Z,7,GR86-028-89,2.0,-0.2,0.032,37.2,5.0,,9.31,10.025,
2025-08-15T04:59:47.410Z,7,GR86-028-89,2.7,-0.184,0.013,34.57,5.0,6728.0,9.25,9.69,
2025-08-15T04:59:47.454Z,7,GR86-028-89,2.7,-0.179,0.028,32.42,5.0,,12.5,12.71,197.13
2025-08-15T04:59:47.497Z,7,GR86-028-89,1.6,-0.242,0.036,31.22,5.0,,18.65,18.68,
2025-08-15T04:59:47.540Z,7,GR86-028-89,1.0,-0.372,0.037,30.38,5.0,,24.4,24.4,
2025-08-15T04:59:47.584Z,7,GR86-028-89,1.2000000000000002,-0.481,0.037,23.28,5.0,,27.805,27.865,
2025-08-15T04:59:47.627Z,7,GR86-028-89,1.2000000000000002,-0.503,0.02,20.62,5.0,6627.0,28.9,28.84,
2025-08-15T04:59:47.670Z,7,GR86-028-89,1.1,-0.551,0.019,18.2,5.0,,35.175000000000004,34.84,195.98
2025-08-15T04:59:47.714Z,7,GR86-028-89,1.1,-0.718,0.007,14.9,5.0,,44.195,43.795,
2025-08-15T04:59:47.757Z,7,GR86-028-89,1.1,-0.864,-0.005,14.14,5.0,,49.075,48.77,
2025-08-15T04:59:47.799Z,7,GR86-028-89,1.1,-0.896,-0.003,10.68,5.0,,49.73,49.795,
2025-08-15T04:59:47.845Z,7,GR86-028-89,1.1,-0.928,-0.008,7.890000000000001,5.0,6345.0,49.7,49.9,
2025-08-15T04:59:47.887Z,7,GR86-028-89,1.1,-0.917,0.013,7.46,5.0,,49.17,49.55,191.63
2025-08-15T04:59:47.931Z,7,GR86-028-89,1.1,-0.948,0.013,7.71,5.0,,46.375,47.64,
2025-08-15T04:59:47.975Z,7,GR86-028-89,1.8,-0.917,-0.009,6.95,5.0,,41.52,43.355,
2025-08-15T04:59:48.017Z,7,GR86-028-89,2.1,-0.892,-0.017,6.0,5.0,,37.77,39.525,
2025-08-15T04:59:48.060Z,7,GR86-028-89,2.1,-0.802,-0.043,5.67,5.0,5956.0,35.02,36.775,
2025-08-15T04:59:48.105Z,7,GR86-028-89,2.0,-0.774,-0.02,5.22,5.0,,32.38,33.94,184.43
2025-08-15T04:59:48.148Z,7,GR86-028-89,2.2,-0.774,-0.034,4.98,5.0,,31.42,32.84,
2025-08-15T04:59:48.191Z,7,GR86-028-89,2.7,-0.795,-0.041,4.91,5.0,,31.33,32.475,
2025-08-15T04:59:48.234Z,7,GR86-028-89,3.2,-0.8200000000000001,-0.048,4.9,5.0,,32.475,33.1,
2025-08-15T04:59:48.277Z,7,GR86-028-89,3.6,-0.783,-0.031,4.65,5.0,5820.0,36.335,36.18,
2025-08-15T04:59:48.321Z,7,GR86-028-89,3.5,-0.867,-0.017,2.98,5.0,,40.59,40.395,178.8
2025-08-15T04:59:48.365Z,7,GR86-028-89,4.4,-0.931,-0.035,3.0500000000000003,5.0,,44.88,44.56,
2025-08-15T04:59:48.407Z,7,GR86-028-89,6.1000000000000005,-0.952,-0.033,16.43,5.0,,45.75,45.69,
2025-08-15T04:59:48.450Z,7,GR86-028-89,6.7,-0.965,-0.012,61.85,5.0,,44.62,45.095,
2025-08-15T04:59:48.494Z,7,GR86-028-89,6.5,-0.979,-0.017,98.97,5.0,5590.0,39.19,40.775,
2025-08-15T04:59:48.537Z,7,GR86-028-89,5.9,-0.851,-0.004,89.59,4.0,,31.025,32.625,172.88
2025-08-15T04:59:48.579Z,7,GR86-028-89,5.5,-0.683,-0.061,17.67,4.0,,25.3,26.69,
2025-08-15T04:59:48.625Z,7,GR86-028-89,3.7,-0.753,0.089,3.53,4.0,,30.675,31.8,
2025-08-15T04:59:48.668Z,7,GR86-028-89,2.6,-0.715,-0.023,3.12,4.0,,41.25,41.49,
2025-08-15T04:59:48.711Z,7,GR86-028-89,2.1,-0.908,0.076,2.95,4.0,6041.0,50.13,50.07,
2025-08-15T04:59:48.754Z,7,GR86-028-89,1.4,-1.01,0.106,3.0,4.0,,55.715,55.18,168.12
2025-08-15T04:59:48.797Z,7,GR86-028-89,0.9,-1.038,0.033,2.98,4.0,,55.105,54.8,
2025-08-15T04:59:48.840Z,7,GR86-028-89,0.4,-0.94,0.1,3.02,4.0,,51.15,52.05,
2025-08-15T04:59:48.884Z,7,GR86-028-89,-1.2000000000000002,-0.962,0.08,3.19,4.0,,46.495,48.39,
2025-08-15T04:59:48.927Z,7,GR86-028-89,-2.0,-0.963,0.09,3.25,4.0,6108.0,45.125,46.8,
2025-08-15T04:59:48.970Z,7,GR86-028-89,-2.3000000000000003,-0.967,0.125,3.37,4.0,,44.025,45.87,161.89
2025-08-15T04:59:49.014Z,7,GR86-028-89,-3.3000000000000003,-0.913,0.004,3.29,4.0,,43.89,45.065,
2025-08-15T04:59:49.057Z,7,GR86-028-89,-5.300000000000001,-1.026,0.063,3.46,4.0,,44.68,45.4,
2025-08-15T04:59:49.100Z,7,GR86-028-89,-7.300000000000001,-0.954,0.048,3.5700000000000003,4.0,,45.305,45.75,
2025-08-15T04:59:49.145Z,7,GR86-028-89,-11.3,-0.947,-0.005,3.71,4.0,5701.0,49.075,48.68,
2025-08-15T04:59:49.187Z,7,GR86-028-89,-13.3,-1.034,-0.051,3.71,4.0,,54.98,54.465,151.88
2025-08-15T04:59:49.231Z,7,GR86-028-89,-12.4,-0.88,-0.132,3.72,4.0,,55.865,56.25,
2025-08-15T04:59:49.274Z,7,GR86-028-89,-9.4,-1.007,-0.118,3.71,4.0,,54.205,55.365,
2025-08-15T04:59:49.317Z,7,GR86-028-89,-5.800000000000001,-1.053,-0.101,3.98,4.0,,48.45,50.1,
2025-08-15T04:59:49.360Z,7,GR86-028-89,-3.8,-0.973,-0.114,4.84,4.0,5503.0,39.005,40.775,
2025-08-15T04:59:49.405Z,7,GR86-028-89,-1.9,-0.856,-0.103,26.53,4.0,,27.745,28.84,140.06
2025-08-15T04:59:49.448Z,7,GR86-028-89,-1.9,-0.685,-0.111,72.81,4.0,,25.18,26.295,
2025-08-15T04:59:49.491Z,7,GR86-028-89,-3.1,-0.636,-0.145,100.08,3.0,,22.675,23.865,
2025-08-15T04:59:49.534Z,7,GR86-028-89,-3.8,-0.5750000000000001,-0.148,66.88,3.0,,19.425,20.51,
2025-08-15T04:59:49.577Z,7,GR86-028-89,-3.0,-0.8190000000000001,-0.197,23.81,3.0,5182.0,17.12,18.115,
2025-08-15T04:59:49.620Z,7,GR86-028-89,0.8,-0.617,-0.102,21.22,3.0,,17.09,17.84,137.95000000000002
2025-08-15T04:59:49.664Z,7,GR86-028-89,7.9,-0.452,-0.324,19.97,3.0,,16.375,16.71,
2025-08-15T04:59:49.707Z,7,GR86-028-89,9.5,-0.349,-0.13,21.86,3.0,,16.59,16.740000000000002,
2025-08-15T04:59:49.750Z,7,GR86-028-89,9.4,-0.253,-0.213,21.6,3.0,,16.495,17.06,
2025-08-15T04:59:49.794Z,7,GR86-028-89,8.9,-0.298,-0.193,21.66,3.0,5827.0,14.815,15.565,
2025-08-15T04:59:49.836Z,7,GR86-028-89,8.8,-0.339,-0.07,22.68,3.0,,14.24,14.755,135.91
2025-08-15T04:59:49.879Z,7,GR86-028-89,8.1,-0.37,-0.121,22.74,3.0,,15.9,16.315,
2025-08-15T04:59:49.926Z,7,GR86-028-89,7.0,-0.357,-0.002,21.57,3.0,,21.18,21.38,
2025-08-15T04:59:49.969Z,7,GR86-028-89,5.1000000000000005,-0.413,0.015,21.49,3.0,,23.99,24.08,
2025-08-15T04:59:50.014Z,7,GR86-028-89,2.2,-0.46,0.044,21.74,3.0,6212.0,24.83,25.15,
2025-08-15T04:59:50.057Z,7,GR86-028-89,-3.1,-0.442,0.1,22.03,3.0,,24.765,25.485,133.23
2025-08-15T04:59:50.100Z,7,GR86-028-89,-9.4,-0.47,0.058,21.94,3.0,,25.15,25.545,
2025-08-15T04:59:50.144Z,7,GR86-028-89,-15.2,-0.479,0.01,20.7,3.0,,28.55,28.72,
2025-08-15T04:59:50.187Z,7,GR86-028-89,-17.1,-0.509,-0.031,21.04,3.0,,31.3,31.235,
2025-08-15T04:59:50.231Z,7,GR86-028-89,-19.0,-0.585,-0.062,21.12,3.0,6060.0,32.535000000000004,32.84,
2025-08-15T04:59:50.275Z,7,GR86-028-89,-20.4,-0.587,-0.085,20.8,3.0,,33.77,33.97,130.06
2025-08-15T04:59:50.317Z,7,GR86-028-89,-23.200000000000003,-0.606,-0.138,20.84,3.0,,36.61,36.455,
2025-08-15T04:59:50.360Z,7,GR86-028-89,-29.700000000000003,-0.667,-0.178,20.85,3.0,,40.865,40.685,
2025-08-15T04:59:50.405Z,7,GR86-028-89,-40.1,-0.705,-0.222,20.82,3.0,,50.375,49.96,
2025-08-15T04:59:50.448Z,7,GR86-028-89,-43.3,-0.637,-0.338,19.56,3.0,5837.0,56.935,56.845,
2025-08-15T04:59:50.491Z,7,GR86-028-89,-44.0,-0.536,-0.372,18.23,3.0,,54.355,55.455,124.72
2025-08-15T04:59:50.534Z,7,GR86-028-89,-44.0,-0.648,-0.352,18.65,3.0,,53.03,54.495000000000005,
2025-08-15T04:59:50.577Z,7,GR86-028-89,-43.1,-0.602,-0.553,8.61,3.0,,49.64,51.535,
2025-08-15T04:59:50.620Z,7,GR86-028-89,-42.8,-0.674,-0.5670000000000001,8.4,3.0,,44.91,46.405,
2025-08-15T04:59:50.664Z,7,GR86-028-89,-50.7,-0.748,-0.634,13.17,3.0,5529.0,45.37,45.75,
2025-08-15T04:59:50.707Z,7,GR86-028-89,-57.3,-0.677,-0.649,9.77,3.0,,42.895,44.225,118.7
2025-08-15T04:59:50.750Z,7,GR86-028-89,-57.2,-0.677,-0.584,11.02,3.0,,40.925,42.21,
2025-08-15T04:59:50.794Z,7,GR86-028-89,-51.2,-0.666,-0.51,18.9,3.0,,37.77,39.34,
2025-08-15T04:59:50.836Z,7,GR86-028-89,-46.5,-0.6970000000000001,-0.561,19.67,3.0,,28.46,29.865,
2025-08-15T04:59:50.879Z,7,GR86-028-89,-45.2,-0.602,-0.765,19.67,3.0,5269.0,14.175,14.85,
2025-08-15T04:59:50.926Z,7,GR86-028-89,-46.8,-0.185,-0.807,20.12,3.0,,0.0,2.075,115.79
2025-08-15T04:59:50.968Z,7,GR86-028-89,-50.1,-0.114,-0.843,20.77,3.0,,0.0,0.0,
2025-08-15T04:59:51.011Z,7,GR86-028-89,-57.3,-0.155,-0.889,22.01,3.0,,0.0,0.0,
2025-08-15T04:59:51.054Z,7,GR86-028-89,-65.60000000000001,-0.078,-0.868,22.12,3.0,,0.0,0.0,
2025-08-15T04:59:51.097Z,7,GR86-028-89,-71.2,0.059,-0.978,22.14,3.0,5348.0,0.0,0.0,
2025-08-15T04:59:51.140Z,7,GR86-028-89,-75.2,-0.028,-0.98,22.15,3.0,,0.0,0.0,112.47
2025-08-15T04:59:51.184Z,7,GR86-028-89,-76.10000000000001,-0.055,-0.969,22.14,3.0,,0.0,0.0,
2025-08-15T04:59:51.227Z,7,GR86-028-89,-76.5,-0.023,-0.945,22.0,3.0,,0.0,0.0,
2025-08-15T04:59:51.271Z,7,GR86-028-89,-77.80000000000001,-0.017,-0.906,21.53,3.0,,0.0,0.0,
2025-08-15T04:59:51.315Z,7,GR86-028-89,-78.7,-0.02,-0.909,18.76,3.0,5421.0,0.0,0.0,
2025-08-15T04:59:51.357Z,7,GR86-028-89,-78.80000000000001,-0.01,-0.927,11.28,3.0,,0.0,0.0,116.05
2025-08-15T04:59:51.400Z,7,GR86-028-89,-78.7,-0.047,-0.947,11.3,3.0,,0.0,0.0,
2025-08-15T04:59:51.445Z,7,GR86-028-89,-78.5,-0.096,-0.957,10.79,3.0,,0.0,0.0,
2025-08-15T04:59:51.487Z,7,GR86-028-89,-77.9,-0.107,-0.948,11.42,3.0,,0.0,0.0,
2025-08-15T04:59:51.531Z,7,GR86-028-89,-77.30000000000001,-0.114,-0.933,14.66,3.0,5408.0,0.0,0.0,
2025-08-15T04:59:51.575Z,7,GR86-028-89,-77.10000000000001,-0.142,-0.924,17.8,3.0,,0.0,0.0,115.64
2025-08-15T04:59:51.617Z,7,GR86-028-89,-77.4,-0.134,-0.941,18.74,3.0,,0.0,0.0,
2025-08-15T04:59:51.660Z,7,GR86-028-89,-77.60000000000001,-0.135,-0.96,19.03,3.0,,0.0,0.0,
2025-08-15T04:59:51.705Z,7,GR86-028-89,-77.0,-0.103,-0.932,20.79,3.0,,0.0,0.0,
2025-08-15T04:59:51.748Z,7,GR86-028-89,-75.8,-0.068,-0.922,22.14,3.0,5285.0,0.0,0.0,
2025-08-15T04:59:51.791Z,7,GR86-028-89,-74.5,-0.056,-0.939,22.24,3.0,,0.0,0.0,115.35
2025-08-15T04:59:51.835Z,7,GR86-028-89,-74.2,-0.051,-0.911,23.43,3.0,,0.0,0.0,
2025-08-15T04:59:51.878Z,7,GR86-028-89,-74.2,-0.037,-0.967,23.63,3.0,,0.0,0.0,
2025-08-15T04:59:51.921Z,7,GR86-028-89,-74.2,-0.032,-0.985,23.33,3.0,,0.0,0.0,
2025-08-15T04:59:51.965Z,7,GR86-028-89,-74.9,0.002,-0.97,23.31,3.0,5341.0,0.0,0.0,
2025-08-15T04:59:52.007Z,7,GR86-028-89,-75.3,0.003,-0.915,23.34,3.0,,0.0,0.0,114.11
2025-08-15T04:59:52.050Z,7,GR86-028-89,-76.4,0.011,-0.911,23.34,3.0,,0.0,0.0,
2025-08-15T04:59:52.094Z,7,GR86-028-89,-78.10000000000001,-0.008,-0.928,23.29,3.0,,0.0,0.0,
2025-08-15T04:59:52.137Z,7,GR86-028-89,-79.30000000000001,-0.018,-0.987,22.74,3.0,,0.0,0.0,
2025-08-15T04:59:52.179Z,7,GR86-028-89,-79.30000000000001,-0.014,-0.98,22.2,3.0,5380.0,0.0,0.0,
2025-08-15T04:59:52.225Z,7,GR86-028-89,-77.9,-0.002,-0.971,22.1,3.0,,0.0,0.0,113.74
2025-08-15T04:59:52.267Z,7,GR86-028-89,-77.10000000000001,0.002,-0.93,22.07,3.0,,0.0,0.0,
2025-08-15T04:59:52.310Z,7,GR86-028-89,-76.5,-0.01,-0.887,22.0,3.0,,0.0,0.0,
2025-08-15T04:59:52.354Z,7,GR86-028-89,-76.3,-0.016,-0.937,22.0,3.0,,0.0,0.0,
2025-08-15T04:59:52.396Z,7,GR86-028-89,-76.80000000000001,-0.026,-0.934,21.97,3.0,5355.0,0.0,0.0,
2025-08-15T04:59:52.439Z,7,GR86-028-89,-77.0,-0.02,-0.958,22.0,3.0,,0.0,0.0,113.64
2025-08-15T04:59:52.484Z,7,GR86-028-89,-76.60000000000001,-0.016,-0.948,22.24,3.0,,0.0,0.0,
2025-08-15T04:59:52.527Z,7,GR86-028-89,-76.2,-0.037,-0.934,22.3,3.0,,0.0,0.0,
2025-08-15T04:59:52.570Z,7,GR86-028-89,-76.0,0.039,-0.868,22.4,3.0,,0.0,0.0,
2025-08-15T04:59:52.614Z,7,GR86-028-89,-75.4,-0.03,-0.912,22.86,3.0,5336.0,0.0,0.0,
2025-08-15T04:59:52.656Z,7,GR86-028-89,-75.0,-0.024,-0.888,23.11,3.0,,0.0,0.0,113.6
2025-08-15T04:59:52.699Z,7,GR86-028-89,-74.9,-0.022,-0.976,23.79,3.0,,0.0,0.0,
2025-08-15T04:59:52.744Z,7,GR86-028-89,-74.9,-0.002,-0.916,25.59,3.0,,0.0,0.0,
2025-08-15T04:59:52.787Z,7,GR86-028-89,-74.9,0.022,-0.888,26.26,3.0,,0.0,0.0,
2025-08-15T04:59:52.831Z,7,GR86-028-89,-74.9,0.01,-0.875,26.7,3.0,5339.0,0.0,0.0,
2025-08-15T04:59:52.874Z,7,GR86-028-89,-75.2,0.018,-0.909,26.74,3.0,,0.0,0.0,112.82
2025-08-15T04:59:52.917Z,7,GR86-028-89,-75.4,0.018,-0.956,26.73,3.0,,0.0,0.0,
2025-08-15T04:59:52.960Z,7,GR86-028-89,-75.5,0.012,-0.979,26.7,3.0,,0.0,0.0,
2025-08-15T04:59:53.006Z,7,GR86-028-89,-75.60000000000001,0.028,-0.941,25.78,3.0,,0.0,0.0,
2025-08-15T04:59:53.048Z,7,GR86-028-89,-76.2,0.032,-0.959,24.39,3.0,5355.0,0.0,0.0,
2025-08-15T04:59:53.091Z,7,GR86-028-89,-77.5,0.016,-0.923,24.04,3.0,,0.0,0.0,113.22
2025-08-15T04:59:53.135Z,7,GR86-028-89,-79.4,0.013,-0.963,23.98,3.0,,0.0,0.0,
2025-08-15T04:59:53.178Z,7,GR86-028-89,-80.2,-0.01,-0.989,23.92,3.0,,0.0,0.0,
2025-08-15T04:59:53.221Z,7,GR86-028-89,-80.0,-0.005,-0.953,23.27,3.0,,0.0,0.0,
2025-08-15T04:59:53.265Z,7,GR86-028-89,-79.4,0.011,-0.947,23.1,3.0,5336.0,0.0,0.0,
2025-08-15T04:59:53.307Z,7,GR86-028-89,-79.30000000000001,-0.006,-0.961,23.82,3.0,,0.0,0.0,113.45
2025-08-15T04:59:53.350Z,7,GR86-028-89,-78.9,-0.016,-0.944,29.85,3.0,,0.0,0.0,
2025-08-15T04:59:53.394Z,7,GR86-028-89,-77.9,-0.008,-0.982,44.36,3.0,,0.0,0.0,
2025-08-15T04:59:53.436Z,7,GR86-028-89,-76.9,-0.003,-0.977,65.9,3.0,,0.0,0.0,
2025-08-15T04:59:53.479Z,7,GR86-028-89,-75.5,0.027,-0.996,98.44,3.0,5335.0,0.0,0.0,
2025-08-15T04:59:53.525Z,7,GR86-028-89,-70.8,0.112,-1.027,100.58,3.0,,0.0,0.0,113.47
2025-08-15T04:59:53.568Z,7,GR86-028-89,-69.0,0.123,-0.968,100.58,3.0,,0.0,0.0,
2025-08-15T04:59:53.611Z,7,GR86-028-89,-69.4,0.133,-0.963,100.58,3.0,,0.0,0.0,
2025-08-15T04:59:53.654Z,7,GR86-028-89,-69.9,0.137,-0.962,100.58,3.0,,0.0,0.0,
2025-08-15T04:59:53.697Z,7,GR86-028-89,-69.3,0.112,-0.96,100.52,3.0,5484.0,0.0,0.0,
2025-08-15T04:59:53.740Z,7,GR86-028-89,-67.2,0.126,-0.982,100.55,3.0,,0.0,0.0,113.47
2025-08-15T04:59:53.784Z,7,GR86-028-89,-50.7,0.124,-0.957,100.55,3.0,,0.0,0.0,
2025-08-15T04:59:53.827Z,7,GR86-028-89,-26.700000000000003,0.098,-0.938,100.48,3.0,,0.0,0.0,
2025-08-15T04:59:53.871Z,7,GR86-028-89,-11.3,0.105,-0.942,81.74,3.0,,0.0,0.0,
2025-08-15T04:59:53.915Z,7,GR86-028-89,4.800000000000001,0.177,-0.986,81.75,3.0,5551.0,0.0,0.0,
2025-08-15T04:59:53.957Z,7,GR86-028-89,8.8,0.196,-0.93,83.65,3.0,,0.0,0.0,113.79
2025-08-15T04:59:54.000Z,7,GR86-028-89,4.6000000000000005,0.205,-0.913,85.12,3.0,,0.0,0.0,
2025-08-15T04:59:54.044Z,7,GR86-028-89,-9.2,0.179,-0.911,86.8,3.0,,0.0,0.0,
2025-08-15T04:59:54.087Z,7,GR86-028-89,-13.4,0.171,-0.95,96.56,3.0,,0.0,0.0,
2025-08-15T04:59:54.131Z,7,GR86-028-89,-11.2,0.13,-0.956,100.53,3.0,5668.0,0.0,0.0,
2025-08-15T04:59:54.175Z,7,GR86-028-89,-8.1,0.149,-0.977,100.49,3.0,,0.0,0.0,114.67
2025-08-15T04:59:54.217Z,7,GR86-028-89,-7.4,0.179,-0.966,100.46,3.0,,0.0,0.0,
2025-08-15T04:59:54.260Z,7,GR86-028-89,-7.300000000000001,0.19,-0.938,100.44,3.0,,0.0,0.0,
2025-08-15T04:59:54.305Z,7,GR86-028-89,-7.7,0.178,-0.896,100.36,3.0,,0.0,0.0,
2025-08-15T04:59:54.348Z,7,GR86-028-89,-13.2,0.186,-0.909,100.32,3.0,5713.0,0.0,0.0,
2025-08-15T04:59:54.391Z,7,GR86-028-89,-20.3,0.206,-0.925,100.28,3.0,,0.0,0.0,114.98
2025-08-15T04:59:54.434Z,7,GR86-028-89,-31.3,0.188,-0.957,100.2,3.0,,0.0,0.0,
2025-08-15T04:59:54.477Z,7,GR86-028-89,-41.0,0.174,-0.928,100.11,3.0,,0.0,0.0,
2025-08-15T04:59:54.520Z,7,GR86-028-89,-45.400000000000006,0.152,-0.89,100.04,3.0,,0.0,0.0,
2025-08-15T04:59:54.565Z,7,GR86-028-89,-43.3,0.172,-0.893,99.9,3.0,5698.0,0.0,0.0,
2025-08-15T04:59:54.607Z,7,GR86-028-89,-42.6,0.165,-0.906,99.89,3.0,,0.0,0.0,115.84
2025-08-15T04:59:54.651Z,7,GR86-028-89,-41.400000000000006,0.156,-0.92,99.88,3.0,,0.0,0.0,
2025-08-15T04:59:54.694Z,7,GR86-028-89,-40.400000000000006,0.17,-0.885,99.88,3.0,,0.0,0.0,
2025-08-15T04:59:54.736Z,7,GR86-028-89,-38.1,0.167,-0.84,99.89,3.0,,0.0,0.0,
2025-08-15T04:59:54.779Z,7,GR86-028-89,-35.1,0.15,-0.834,99.89,3.0,5680.0,0.0,0.0,
2025-08-15T04:59:54.825Z,7,GR86-028-89,-32.9,0.141,-0.874,99.91,3.0,,0.0,0.0,116.65
2025-08-15T04:59:54.867Z,7,GR86-028-89,-30.9,0.16,-0.897,99.94,3.0,,0.0,0.0,
2025-08-15T04:59:54.910Z,7,GR86-028-89,-28.5,0.161,-0.843,99.94,3.0,,0.0,0.0,
2025-08-15T04:59:54.954Z,7,GR86-028-89,-21.4,0.181,-0.872,99.92,3.0,,0.0,0.0,
2025-08-15T04:59:54.996Z,7,GR86-028-89,-17.400000000000002,0.209,-0.8,99.97,3.0,5654.0,0.0,0.0,
2025-08-15T04:59:55.039Z,7,GR86-028-89,-14.7,0.233,-0.731,99.97,3.0,,0.0,0.0,117.87
2025-08-15T04:59:55.084Z,7,GR86-028-89,-11.8,0.09,-0.5630000000000001,99.99,3.0,,0.0,0.0,
2025-08-15T04:59:55.127Z,7,GR86-028-89,-8.3,0.053,-0.5640000000000001,100.04,3.0,,0.0,0.0,
2025-08-15T04:59:55.171Z,7,GR86-028-89,-3.3000000000000003,0.078,-0.613,100.1,3.0,,0.0,0.0,
2025-08-15T04:59:55.214Z,7,GR86-028-89,0.3,0.102,-0.646,100.11,3.0,5771.0,0.0,0.0,
2025-08-15T04:59:55.257Z,7,GR86-028-89,3.1,0.201,-0.708,100.1,3.0,,0.0,0.0,118.74
2025-08-15T04:59:55.300Z,7,GR86-028-89,3.7,0.224,-0.726,100.09,3.0,,0.0,0.0,
2025-08-15T04:59:55.344Z,7,GR86-028-89,-1.9,0.059,-0.531,100.1,3.0,,0.0,0.0,
2025-08-15T04:59:55.387Z,7,GR86-028-89,-9.2,0.067,-0.488,100.07,3.0,,0.0,0.0,
2025-08-15T04:59:55.431Z,7,GR86-028-89,-16.7,0.054,-0.536,100.04,3.0,5800.0,0.0,0.0,
2025-08-15T04:59:55.475Z,7,GR86-028-89,-23.9,0.139,-0.507,99.98,3.0,,0.0,0.0,120.18
2025-08-15T04:59:55.517Z,7,GR86-028-89,-25.200000000000003,0.112,-0.643,99.96,3.0,,0.0,0.0,
2025-08-15T04:59:55.560Z,7,GR86-028-89,-25.200000000000003,0.158,-0.558,99.94,3.0,,0.0,0.0,
2025-08-15T04:59:55.605Z,7,GR86-028-89,-21.1,0.016,-0.493,99.94,3.0,,0.0,0.0,
2025-08-15T04:59:55.648Z,7,GR86-028-89,-18.2,-0.028,-0.368,99.95,3.0,5878.0,0.0,0.0,
2025-08-15T04:59:55.691Z,7,GR86-028-89,-15.3,-0.005,-0.5670000000000001,99.94,3.0,,0.0,0.0,121.24
2025-08-15T04:59:55.734Z,7,GR86-028-89,-13.6,0.052,-0.652,99.94,3.0,,0.0,0.0,
2025-08-15T04:59:55.777Z,7,GR86-028-89,-12.7,0.184,-0.667,99.94,3.0,,0.0,0.0,
2025-08-15T04:59:55.821Z,7,GR86-028-89,-10.6,0.295,-0.72,99.93,3.0,,0.0,0.0,
2025-08-15T04:59:55.865Z,7,GR86-028-89,-4.7,0.053,-0.472,99.95,3.0,5931.0,0.0,0.0,
2025-08-15T04:59:55.907Z,7,GR86-028-89,-1.1,0.086,-0.6910000000000001,99.97,3.0,,0.0,0.0,122.41
2025-08-15T04:59:55.950Z,7,GR86-028-89,0.1,0.18,-0.392,100.0,3.0,,0.0,0.0,
2025-08-15T04:59:55.994Z,7,GR86-028-89,0.3,0.241,-0.535,100.04,3.0,,0.0,0.0,
2025-08-15T04:59:56.037Z,7,GR86-028-89,1.5,0.341,-0.299,100.06,3.0,,0.0,0.0,
2025-08-15T04:59:56.079Z,7,GR86-028-89,3.4000000000000004,0.25,-0.328,100.09,3.0,5986.0,0.0,0.0,
2025-08-15T04:59:56.125Z,7,GR86-028-89,4.6000000000000005,0.327,-0.426,100.07,3.0,,0.0,0.0,123.61
2025-08-15T04:59:56.167Z,7,GR86-028-89,5.7,0.352,-0.38,100.06,3.0,,0.0,0.0,
2025-08-15T04:59:56.210Z,7,GR86-028-89,6.5,0.194,-0.262,100.06,3.0,,0.0,0.0,
2025-08-15T04:59:56.254Z,7,GR86-028-89,7.1000000000000005,0.213,-0.411,100.04,3.0,,0.0,0.0,
2025-08-15T04:59:56.297Z,7,GR86-028-89,6.7,0.17,-0.337,100.0,3.0,6001.0,0.0,0.0,
2025-08-15T04:59:56.340Z,7,GR86-028-89,6.2,0.151,-0.215,99.97,3.0,,0.0,0.0,124.78
2025-08-15T04:59:56.384Z,7,GR86-028-89,6.6000000000000005,0.12,-0.173,99.94,3.0,,0.0,0.0,
2025-08-15T04:59:56.427Z,7,GR86-028-89,7.2,0.124,-0.118,99.93,3.0,,0.0,0.0,
2025-08-15T04:59:56.470Z,7,GR86-028-89,7.5,0.166,-0.012,99.94,3.0,,0.0,0.0,
2025-08-15T04:59:56.514Z,7,GR86-028-89,7.5,0.209,0.02,99.95,3.0,6018.0,0.0,0.0,
2025-08-15T04:59:56.557Z,7,GR86-028-89,7.5,0.239,0.118,99.95,3.0,,0.0,0.0,126.21
2025-08-15T04:59:56.600Z,7,GR86-028-89,7.7,0.281,0.121,99.94,3.0,,0.0,0.0,
2025-08-15T04:59:56.644Z,7,GR86-028-89,7.5,0.247,0.184,99.95,3.0,,0.0,0.0,
2025-08-15T04:59:56.687Z,7,GR86-028-89,6.800000000000001,0.272,0.173,99.97,3.0,,0.0,0.0,
2025-08-15T04:59:56.731Z,7,GR86-028-89,6.1000000000000005,0.21,0.209,99.98,3.0,6111.0,0.0,0.0,
2025-08-15T04:59:56.774Z,7,GR86-028-89,5.0,0.123,0.253,100.01,3.0,,0.0,0.0,127.45
2025-08-15T04:59:56.817Z,7,GR86-028-89,3.7,0.127,0.268,100.03,3.0,,0.0,0.0,
2025-08-15T04:59:56.860Z,7,GR86-028-89,1.3,0.147,0.242,100.04,3.0,,0.0,0.0,
2025-08-15T04:59:56.906Z,7,GR86-028-89,-0.2,0.225,0.239,100.07,3.0,,0.0,0.0,
2025-08-15T04:59:56.949Z,7,GR86-028-89,-0.3,0.202,0.243,100.08,3.0,6154.0,0.0,0.0,
2025-08-15T04:59:56.993Z,7,GR86-028-89,-0.6000000000000001,0.174,0.224,100.09,3.0,,0.0,0.0,128.83
2025-08-15T04:59:57.035Z,7,GR86-028-89,-1.7000000000000002,0.185,0.2,100.08,3.0,,0.0,0.0,
2025-08-15T04:59:57.078Z,7,GR86-028-89,-2.5,0.207,0.158,100.03,3.0,,0.0,0.0,
2025-08-15T04:59:57.121Z,7,GR86-028-89,-2.5,0.188,0.114,100.03,3.0,,0.0,0.0,
2025-08-15T04:59:57.165Z,7,GR86-028-89,-2.2,0.16,0.06,99.97,3.0,6190.0,0.0,0.0,
2025-08-15T04:59:57.207Z,7,GR86-028-89,-2.2,0.154,0.043,99.94,3.0,,0.0,0.0,131.85
2025-08-15T04:59:57.250Z,7,GR86-028-89,-2.1,0.191,0.0,99.97,3.0,,0.0,0.0,
2025-08-15T04:59:57.294Z,7,GR86-028-89,-1.6,0.205,-0.038,99.94,3.0,,0.0,0.0,
2025-08-15T04:59:57.336Z,7,GR86-028-89,-1.4,0.201,-0.046,99.91,3.0,,0.0,0.0,
2025-08-15T04:59:57.379Z,7,GR86-028-89,-1.3,0.178,-0.059,99.94,3.0,6259.0,0.0,0.0,
2025-08-15T04:59:57.425Z,7,GR86-028-89,-1.1,0.161,-0.07,99.95,3.0,,0.0,0.0,133.36
2025-08-15T04:59:57.468Z,7,GR86-028-89,-0.6000000000000001,0.166,-0.075,99.96,3.0,,0.0,0.0,
2025-08-15T04:59:57.511Z,7,GR86-028-89,0.3,0.193,-0.095,99.96,3.0,,0.0,0.0,
2025-08-15T04:59:57.554Z,7,GR86-028-89,1.3,0.201,-0.113,99.97,3.0,,0.0,0.0,
2025-08-15T04:59:57.597Z,7,GR86-028-89,2.2,0.194,-0.079,100.02,3.0,6337.0,0.0,0.0,
2025-08-15T04:59:57.640Z,7,GR86-028-89,3.2,0.18,-0.093,100.02,3.0,,0.0,0.0,134.78
2025-08-15T04:59:57.684Z,7,GR86-028-89,4.4,0.157,-0.059,100.09,3.0,,0.0,0.0,
2025-08-15T04:59:57.727Z,7,GR86-028-89,5.0,0.182,-0.062,100.07,3.0,,0.0,0.0,
2025-08-15T04:59:57.771Z,7,GR86-028-89,6.0,0.216,-0.072,100.1,3.0,,0.0,0.0,
2025-08-15T04:59:57.814Z,7,GR86-028-89,6.4,0.189,-0.026,100.06,3.0,6491.0,0.0,0.0,
2025-08-15T04:59:57.857Z,7,GR86-028-89,6.4,0.17,0.01,100.08,3.0,,0.0,0.0,136.34
2025-08-15T04:59:57.900Z,7,GR86-028-89,6.800000000000001,0.177,0.009,100.0,3.0,,0.0,0.0,
2025-08-15T04:59:57.945Z,7,GR86-028-89,6.9,0.176,0.052,99.95,3.0,,0.0,0.0,
2025-08-15T04:59:57.988Z,7,GR86-028-89,6.9,0.198,0.055,99.94,3.0,,0.0,0.0,
2025-08-15T04:59:58.031Z,7,GR86-028-89,6.9,0.191,0.058,99.92,3.0,6557.0,0.0,0.0,
2025-08-15T04:59:58.075Z,7,GR86-028-89,6.6000000000000005,0.175,0.093,99.96,3.0,,0.0,0.0,137.93
2025-08-15T04:59:58.117Z,7,GR86-028-89,6.6000000000000005,0.161,0.101,99.96,3.0,,0.0,0.0,
2025-08-15T04:59:58.160Z,7,GR86-028-89,6.4,0.18,0.103,99.93,3.0,,0.0,0.0,
2025-08-15T04:59:58.205Z,7,GR86-028-89,6.4,0.168,0.134,99.95,3.0,,0.0,0.0,
2025-08-15T04:59:58.248Z,7,GR86-028-89,6.4,0.185,0.137,99.99,3.0,6648.0,0.0,0.0,
2025-08-15T04:59:58.291Z,7,GR86-028-89,6.5,0.203,0.145,99.96,3.0,,0.0,0.0,139.44
2025-08-15T04:59:58.334Z,7,GR86-028-89,6.5,0.198,0.138,99.93,3.0,,0.0,0.0,
2025-08-15T04:59:58.377Z,7,GR86-028-89,6.5,0.159,0.148,100.0,3.0,,0.0,0.0,
2025-08-15T04:59:58.420Z,7,GR86-028-89,6.4,0.158,0.161,100.07,3.0,,0.0,0.0,
2025-08-15T04:59:58.465Z,7,GR86-028-89,6.300000000000001,0.177,0.175,100.08,3.0,6716.0,0.0,0.0,
2025-08-15T04:59:58.507Z,7,GR86-028-89,6.300000000000001,0.175,0.19,100.1,3.0,,0.0,0.0,141.0
2025-08-15T04:59:58.550Z,7,GR86-028-89,6.300000000000001,0.194,0.185,100.08,3.0,,0.0,0.0,
2025-08-15T04:59:58.594Z,7,GR86-028-89,6.300000000000001,0.178,0.172,100.06,3.0,,0.0,0.0,
2025-08-15T04:59:58.636Z,7,GR86-028-89,6.300000000000001,0.166,0.179,100.04,3.0,,0.0,0.0,
2025-08-15T04:59:58.679Z,7,GR86-028-89,6.300000000000001,0.159,0.172,100.01,3.0,6780.0,0.0,0.0,
2025-08-15T04:59:58.725Z,7,GR86-028-89,6.300000000000001,0.181,0.193,99.94,3.0,,0.0,0.0,142.66
2025-08-15T04:59:58.767Z,7,GR86-028-89,6.2,0.188,0.205,99.91,3.0,,0.0,0.0,
2025-08-15T04:59:58.810Z,7,GR86-028-89,5.300000000000001,0.199,0.177,99.92,3.0,,0.0,0.0,
2025-08-15T04:59:58.854Z,7,GR86-028-89,4.2,0.172,0.182,99.97,3.0,,0.0,0.0,
2025-08-15T04:59:58.897Z,7,GR86-028-89,3.5,0.158,0.176,99.98,3.0,6878.0,0.0,0.0,
2025-08-15T04:59:58.940Z,7,GR86-028-89,3.3000000000000003,0.153,0.152,99.95,3.0,,0.0,0.0,144.33
2025-08-15T04:59:58.984Z,7,GR86-028-89,3.1,0.184,0.156,99.95,3.0,,0.0,0.0,
2025-08-15T04:59:59.027Z,7,GR86-028-89,2.9000000000000004,0.174,0.133,99.95,3.0,,0.0,0.0,
2025-08-15T04:59:59.114Z,7,GR86-028-89,2.4000000000000004,0.172,0.105,99.97,3.0,6960.0,0.0,0.0,
2025-08-15T04:59:59.157Z,7,GR86-028-89,1.6,0.17,0.085,100.01,3.0,,0.0,0.0,146.03
2025-08-15T04:59:59.200Z,7,GR86-028-89,1.5,0.164,0.099,100.04,3.0,,0.0,0.0,
2025-08-15T04:59:59.245Z,7,GR86-028-89,1.0,0.177,0.05,100.1,3.0,,0.0,0.0,
2025-08-15T04:59:59.287Z,7,GR86-028-89,0.8,0.146,0.042,100.07,3.0,,0.0,0.0,
2025-08-15T04:59:59.331Z,7,GR86-028-89,0.6000000000000001,0.147,0.041,100.1,3.0,7017.0,0.0,0.0,
2025-08-15T04:59:59.375Z,7,GR86-028-89,0.5,0.158,0.025,100.07,3.0,,0.0,0.0,147.8
2025-08-15T04:59:59.417Z,7,GR86-028-89,0.4,0.164,-0.007,100.0,3.0,,0.0,0.0,
2025-08-15T04:59:59.460Z,7,GR86-028-89,0.1,-0.118,0.02,99.95,4.0,,0.0,0.0,
2025-08-15T04:59:59.505Z,7,GR86-028-89,0.8,0.456,-0.014,99.94,4.0,,0.0,0.0,
2025-08-15T04:59:59.548Z,7,GR86-028-89,0.3,0.286,-0.099,99.93,4.0,7100.0,0.0,0.0,
2025-08-15T04:59:59.591Z,7,GR86-028-89,0.0,0.149,0.016,99.94,4.0,,0.0,0.0,149.49
2025-08-15T04:59:59.634Z,7,GR86-028-89,0.1,0.048,-0.024,99.93,4.0,,0.0,0.0,
2025-08-15T04:59:59.677Z,7,GR86-028-89,0.2,0.112,-0.079,99.94,4.0,,0.0,0.0,
2025-08-15T04:59:59.721Z,7,GR86-028-89,0.2,0.147,0.024,99.95,4.0,,0.0,0.0,
2025-08-15T04:59:59.765Z,7,GR86-028-89,0.2,0.104,-0.087,99.97,4.0,5931.0,0.0,0.0,
2025-08-15T04:59:59.807Z,7,GR86-028-89,0.2,0.107,-0.027,100.0,4.0,,0.0,0.0,152.74
2025-08-15T04:59:59.850Z,7,GR86-028-89,0.2,0.116,-0.027,100.03,4.0,,0.0,0.0,
2025-08-15T04:59:59.894Z,7,GR86-028-89,-0.2,0.14,-0.076,100.06,4.0,,0.0,0.0,
2025-08-15T04:59:59.937Z,7,GR86-028-89,-0.8,0.143,-0.057,100.07,4.0,,0.0,0.0,
2025-08-15T04:59:59.979Z,7,GR86-028-89,-1.8,0.153,-0.059,100.09,4.0,6062.0,0.0,0.0,
2025-08-15T05:00:00.025Z,7,GR86-028-89,-3.9,0.118,-0.081,100.1,4.0,,0.0,0.0,154.17000000000002
2025-08-15T05:00:00.068Z,7,GR86-028-89,-5.300000000000001,0.135,-0.083,100.08,4.0,,0.0,0.0,
2025-08-15T05:00:00.111Z,7,GR86-028-89,-5.9,0.146,-0.113,100.07,4.0,,0.0,0.0,
2025-08-15T05:00:00.154Z,7,GR86-028-89,-6.300000000000001,0.131,-0.12,100.02,4.0,,0.0,0.0,
2025-08-15T05:00:00.197Z,7,GR86-028-89,-7.6,0.125,-0.11,100.0,4.0,6131.0,0.0,0.0,
2025-08-15T05:00:00.240Z,7,GR86-028-89,-9.0,0.111,-0.153,99.97,4.0,,0.0,0.0,155.62
2025-08-15T05:00:00.284Z,7,GR86-028-89,-10.2,0.127,-0.184,99.94,4.0,,0.0,0.0,
2025-08-15T05:00:00.327Z,7,GR86-028-89,-10.4,0.13,-0.211,99.92,4.0,,0.0,0.0,
2025-08-15T05:00:00.370Z,7,GR86-028-89,-10.7,0.113,-0.237,99.96,4.0,,0.0,0.0,
2025-08-15T05:00:00.414Z,7,GR86-028-89,-11.2,0.113,-0.249,99.94,4.0,6241.0,0.0,0.0,
2025-08-15T05:00:00.456Z,7,GR86-028-89,-11.7,0.113,-0.299,99.94,4.0,,0.0,0.0,157.1
2025-08-15T05:00:00.499Z,7,GR86-028-89,-11.4,0.116,-0.317,99.94,4.0,,0.0,0.0,
2025-08-15T05:00:00.544Z,7,GR86-028-89,-12.0,0.117,-0.337,99.96,4.0,,0.0,0.0,
2025-08-15T05:00:00.587Z,7,GR86-028-89,-14.4,0.106,-0.37,99.96,4.0,,0.0,0.0,
2025-08-15T05:00:00.631Z,7,GR86-028-89,-16.6,0.109,-0.372,99.99,4.0,6298.0,0.0,0.0,
2025-08-15T05:00:00.674Z,7,GR86-028-89,-17.0,0.105,-0.402,100.04,4.0,,0.0,0.0,158.43
2025-08-15T05:00:00.717Z,7,GR86-028-89,-16.3,0.11,-0.399,100.08,4.0,,0.0,0.0,
2025-08-15T05:00:00.760Z,7,GR86-028-89,-17.400000000000002,0.114,-0.402,100.11,4.0,,0.0,0.0,
2025-08-15T05:00:00.805Z,7,GR86-028-89,-21.4,0.091,-0.433,100.1,4.0,,0.0,0.0,
2025-08-15T05:00:00.848Z,7,GR86-028-89,-21.9,0.097,-0.495,100.06,4.0,6355.0,0.0,0.0,
2025-08-15T05:00:00.891Z,7,GR86-028-89,-20.3,0.101,-0.539,100.08,4.0,,0.0,0.0,159.6
2025-08-15T05:00:00.935Z,7,GR86-028-89,-18.2,0.103,-0.562,100.01,4.0,,0.0,0.0,
2025-08-15T05:00:00.977Z,7,GR86-028-89,-15.3,0.097,-0.581,100.03,4.0,,0.0,0.0,
2025-08-15T05:00:01.020Z,7,GR86-028-89,-12.2,0.107,-0.612,99.94,4.0,,0.0,0.0,
2025-08-15T05:00:01.065Z,7,GR86-028-89,-10.9,0.099,-0.609,99.94,4.0,6408.0,0.0,0.0,
2025-08-15T05:00:01.107Z,7,GR86-028-89,-11.6,0.099,-0.585,99.92,4.0,,0.0,0.0,160.75
2025-08-15T05:00:01.150Z,7,GR86-028-89,-11.6,0.097,-0.5690000000000001,99.93,4.0,,0.0,0.0,
2025-08-15T05:00:01.194Z,7,GR86-028-89,-10.9,0.121,-0.546,99.94,4.0,,0.0,0.0,
2025-08-15T05:00:01.236Z,7,GR86-028-89,-9.9,0.111,-0.54,99.94,4.0,,0.0,0.0,
2025-08-15T05:00:01.279Z,7,GR86-028-89,-9.0,0.129,-0.514,99.94,4.0,6459.0,0.0,0.0,
2025-08-15T05:00:01.325Z,7,GR86-028-89,-6.6000000000000005,0.111,-0.447,99.97,4.0,,0.0,0.0,162.04
2025-08-15T05:00:01.368Z,7,GR86-028-89,-4.0,0.112,-0.414,99.96,4.0,,0.0,0.0,
2025-08-15T05:00:01.411Z,7,GR86-028-89,-1.3,0.118,-0.379,100.03,4.0,,0.0,0.0,
2025-08-15T05:00:01.454Z,7,GR86-028-89,-0.3,0.125,-0.356,100.04,4.0,,0.0,0.0,
2025-08-15T05:00:01.497Z,7,GR86-028-89,-1.7000000000000002,0.119,-0.324,100.11,4.0,6495.0,0.0,0.0,
2025-08-15T05:00:01.540Z,7,GR86-028-89,-3.5,0.132,-0.308,100.1,4.0,,0.0,0.0,163.15
2025-08-15T05:00:01.584Z,7,GR86-028-89,-4.3,0.092,-0.258,100.09,4.0,,6.425,6.575,
2025-08-15T05:00:01.627Z,7,GR86-028-89,-3.6,0.044,-0.232,93.58,4.0,,13.37,13.46,
2025-08-15T05:00:01.671Z,7,GR86-028-89,-2.6,-0.115,-0.203,64.75,4.0,,20.02,20.08,
2025-08-15T05:00:01.715Z,7,GR86-028-89,-1.0,-0.254,-0.176,60.58,4.0,6528.0,24.86,24.675,
2025-08-15T05:00:01.757Z,7,GR86-028-89,0.8,-0.317,-0.135,56.89,4.0,,25.805,26.02,164.56
2025-08-15T05:00:01.800Z,7,GR86-028-89,1.8,-0.335,-0.1,38.83,4.0,,26.08,26.17,
2025-08-15T05:00:01.844Z,7,GR86-028-89,0.4,-0.333,-0.061,31.73,4.0,,31.42,31.235,
2025-08-15T05:00:01.887Z,7,GR86-028-89,-0.6000000000000001,-0.483,-0.049,30.7,4.0,,39.37,39.035,
2025-08-15T05:00:01.931Z,7,GR86-028-89,-1.1,-0.5760000000000001,-0.041,25.46,4.0,6463.0,45.03,44.94,
2025-08-15T05:00:01.975Z,7,GR86-028-89,-1.2000000000000002,-0.658,-0.017,22.87,4.0,,45.275,45.69,163.94
2025-08-15T05:00:02.017Z,7,GR86-028-89,-1.0,-0.513,-0.015,17.87,4.0,,37.705,39.4,
2025-08-15T05:00:02.060Z,7,GR86-028-89,0.3,-0.51,-0.014,7.7,4.0,,31.39,32.81,
2025-08-15T05:00:02.105Z,7,GR86-028-89,2.2,-0.5700000000000001,-0.023,7.6,4.0,,29.71,30.965,
2025-08-15T05:00:02.148Z,7,GR86-028-89,2.5,-0.618,0.008,6.3500000000000005,4.0,6232.0,30.215,31.145,
2025-08-15T05:00:02.191Z,7,GR86-028-89,1.3,-0.654,0.011,6.08,4.0,,37.265,37.235,158.88
2025-08-15T05:00:02.234Z,7,GR86-028-89,0.5,-0.859,0.04,5.7,4.0,,53.835,53.425,
2025-08-15T05:00:02.277Z,7,GR86-028-89,0.3,-1.091,0.034,5.48,4.0,,70.595,69.83,
2025-08-15T05:00:02.320Z,7,GR86-028-89,-1.2000000000000002,-1.057,0.039,5.33,4.0,,84.205,83.245,
2025-08-15T05:00:02.365Z,7,GR86-028-89,-6.1000000000000005,-1.071,0.041,5.2,4.0,6030.0,99.235,100.775,
2025-08-15T05:00:02.407Z,7,GR86-028-89,-8.9,-0.874,0.007,5.13,4.0,,96.93,98.565,149.43
2025-08-15T05:00:02.450Z,7,GR86-028-89,-10.5,-1.102,0.002,5.1000000000000005,4.0,,97.68,98.565,
2025-08-15T05:00:02.494Z,7,GR86-028-89,-11.3,-0.965,0.031,5.0600000000000005,4.0,,103.465,105.31,
2025-08-15T05:00:02.536Z,7,GR86-028-89,-14.0,-1.007,-0.029,5.03,4.0,,101.45,101.83,
2025-08-15T05:00:02.579Z,7,GR86-028-89,-17.5,-0.914,0.006,5.0,4.0,5321.0,100.18,100.87,
2025-08-15T05:00:02.625Z,7,GR86-028-89,-16.0,-1.054,-0.021,5.0,4.0,,106.485,108.39,139.97
2025-08-15T05:00:02.667Z,7,GR86-028-89,-15.5,-0.97,-0.022,4.78,4.0,,104.56,105.43,
2025-08-15T05:00:02.710Z,7,GR86-028-89,-19.3,-0.982,-0.055,4.59,4.0,,103.28,103.935,
2025-08-15T05:00:02.754Z,7,GR86-028-89,-18.8,-0.967,-0.058,4.5200000000000005,4.0,,105.155,106.835,
2025-08-15T05:00:02.796Z,7,GR86-028-89,-15.6,-0.948,-0.015,9.86,4.0,5353.0,107.05,108.21,
2025-08-15T05:00:02.839Z,7,GR86-028-89,-17.0,-0.904,-0.113,52.81,4.0,,103.755,104.5,135.08
2025-08-15T05:00:02.884Z,7,GR86-028-89,-22.0,-0.8160000000000001,-0.085,96.29,3.0,,104.775,106.545,
2025-08-15T05:00:02.927Z,7,GR86-028-89,-17.900000000000002,-0.913,-0.133,33.59,3.0,,106.3,107.37,
2025-08-15T05:00:02.971Z,7,GR86-028-89,-17.3,-0.897,-0.103,3.71,3.0,,106.055,107.86,
2025-08-15T05:00:03.014Z,7,GR86-028-89,-23.9,-0.781,-0.028,2.92,3.0,5292.0,106.545,107.95,
2025-08-15T05:00:03.057Z,7,GR86-028-89,-28.9,-0.791,-0.229,2.79,3.0,,104.395,105.4,126.5
2025-08-15T05:00:03.100Z,7,GR86-028-89,-26.5,-0.884,-0.107,2.68,3.0,,105.185,106.395,
2025-08-15T05:00:03.187Z,7,GR86-028-89,-23.9,-0.6910000000000001,-0.41,2.64,3.0,,100.275,101.585,
2025-08-15T05:00:03.231Z,7,GR86-028-89,-40.6,-0.754,-0.052,2.59,3.0,5061.0,105.965,107.585,
2025-08-15T05:00:03.275Z,7,GR86-028-89,-40.7,-0.727,-0.416,2.59,3.0,,102.805,103.875,117.18
2025-08-15T05:00:03.317Z,7,GR86-028-89,-38.2,-0.906,-0.259,2.57,3.0,,102.485,102.93,
2025-08-15T05:00:03.360Z,7,GR86-028-89,-37.7,-0.757,-0.279,2.5500000000000003,3.0,,102.58,103.965,
2025-08-15T05:00:03.405Z,7,GR86-028-89,-42.2,-0.775,-0.323,2.5500000000000003,3.0,,101.985,102.9,
2025-08-15T05:00:03.448Z,7,GR86-028-89,-40.6,-0.887,-0.34,2.56,3.0,5287.0,99.525,100.0,
2025-08-15T05:00:03.491Z,7,GR86-028-89,-35.9,-0.805,-0.479,2.53,3.0,,99.495,101.175,111.25
2025-08-15T05:00:03.534Z,7,GR86-028-89,-38.900000000000006,-0.791,-0.283,2.5,3.0,,92.72,93.59,
2025-08-15T05:00:03.577Z,7,GR86-028-89,-45.0,-0.847,-0.299,2.5,3.0,,90.49,91.085,
2025-08-15T05:00:03.621Z,7,GR86-028-89,-45.0,-0.843,-0.319,2.51,3.0,,84.295,85.24,
2025-08-15T05:00:03.665Z,7,GR86-028-89,-43.2,-0.8210000000000001,-0.355,2.5,3.0,5144.0,62.565000000000005,64.61,
2025-08-15T05:00:03.707Z,7,GR86-028-89,-45.900000000000006,-0.734,-0.504,5.39,3.0,,47.61,49.46,107.75
2025-08-15T05:00:03.750Z,7,GR86-028-89,-48.8,-0.881,-0.392,47.67,3.0,,44.74,45.9,
2025-08-15T05:00:03.794Z,7,GR86-028-89,-49.400000000000006,-0.805,-0.556,76.9,2.0,,44.435,45.49,
2025-08-15T05:00:03.837Z,7,GR86-028-89,-49.6,-0.942,-0.425,15.29,2.0,,45.78,46.65,
2025-08-15T05:00:03.879Z,7,GR86-028-89,-49.8,-1.018,-0.368,3.74,2.0,4933.0,47.49,48.620000000000005,
2025-08-15T05:00:03.926Z,7,GR86-028-89,-47.6,-0.744,-0.62,3.14,2.0,,41.935,42.485,103.56
2025-08-15T05:00:03.969Z,7,GR86-028-89,-47.3,-0.919,-0.269,3.02,2.0,,40.59,41.585,
2025-08-15T05:00:04.014Z,7,GR86-028-89,-47.5,-0.852,-0.387,2.93,2.0,,42.425,43.4,
2025-08-15T05:00:04.057Z,7,GR86-028-89,-47.6,-0.758,-0.707,2.88,2.0,,38.53,39.035,
2025-08-15T05:00:04.100Z,7,GR86-028-89,-47.1,-0.926,-0.676,2.8000000000000003,2.0,5216.0,34.395,34.93,
2025-08-15T05:00:04.144Z,7,GR86-028-89,-46.5,-0.644,-0.772,2.72,2.0,,36.335,37.02,102.49
2025-08-15T05:00:04.187Z,7,GR86-028-89,-49.5,-0.721,-0.718,2.68,2.0,,37.74,38.38,
2025-08-15T05:00:04.231Z,7,GR86-028-89,-55.2,-0.772,-0.656,2.64,2.0,,37.98,38.045,
2025-08-15T05:00:04.274Z,7,GR86-028-89,-58.900000000000006,-0.751,-0.756,2.63,2.0,,34.685,35.375,
2025-08-15T05:00:04.317Z,7,GR86-028-89,-60.900000000000006,-0.718,-0.79,2.61,2.0,5377.0,32.045,32.84,
2025-08-15T05:00:04.360Z,7,GR86-028-89,-63.8,-0.664,-0.8230000000000001,2.59,2.0,,30.365,31.145,98.04
2025-08-15T05:00:04.405Z,7,GR86-028-89,-67.60000000000001,-0.581,-0.833,2.57,2.0,,25.485,26.535,
2025-08-15T05:00:04.448Z,7,GR86-028-89,-70.4,-0.5750000000000001,-0.76,2.54,2.0,,25.36,25.865,
2025-08-15T05:00:04.491Z,7,GR86-028-89,-73.5,-0.638,-0.791,2.51,2.0,,26.905,27.115,
2025-08-15T05:00:04.534Z,7,GR86-028-89,-75.7,-0.63,-0.841,2.49,2.0,5249.0,26.66,27.285,
2025-08-15T05:00:04.577Z,7,GR86-028-89,-77.80000000000001,-0.612,-0.888,2.47,2.0,,23.455,24.28,94.54
2025-08-15T05:00:04.620Z,7,GR86-028-89,-78.9,-0.537,-0.912,2.48,2.0,,17.455000000000002,18.325,
2025-08-15T05:00:04.664Z,7,GR86-028-89,-80.7,-0.455,-0.889,2.47,2.0,,7.92,8.545,
2025-08-15T05:00:04.707Z,7,GR86-028-89,-83.9,-0.43,-0.93,2.47,2.0,,2.215,2.52,
2025-08-15T05:00:04.750Z,7,GR86-028-89,-88.7,-0.326,-0.935,2.47,2.0,5022.0,0.0,0.0,
2025-08-15T05:00:04.794Z,7,GR86-028-89,-92.1,-0.257,-0.961,2.47,2.0,,0.0,0.0,92.36
2025-08-15T05:00:04.836Z,7,GR86-028-89,-93.5,-0.216,-0.955,2.46,2.0,,0.0,0.0,
2025-08-15T05:00:04.879Z,7,GR86-028-89,-93.5,-0.214,-0.967,2.47,2.0,,0.0,0.0,
2025-08-15T05:00:04.926Z,7,GR86-028-89,-93.4,-0.217,-0.984,2.47,2.0,,0.0,0.0,
2025-08-15T05:00:04.969Z,7,GR86-028-89,-93.6,-0.227,-0.968,2.47,2.0,5023.0,0.0,0.0,
2025-08-15T05:00:05.014Z,7,GR86-028-89,-93.2,-0.228,-1.005,2.47,2.0,,0.0,0.0,90.76
2025-08-15T05:00:05.057Z,7,GR86-028-89,-92.4,-0.224,-0.993,2.47,2.0,,0.0,0.0,
2025-08-15T05:00:05.100Z,7,GR86-028-89,-92.2,-0.225,-1.025,2.51,2.0,,0.0,0.0,
2025-08-15T05:00:05.144Z,7,GR86-028-89,-92.4,-0.23,-1.008,3.65,2.0,,0.0,0.0,
2025-08-15T05:00:05.187Z,7,GR86-028-89,-92.4,-0.216,-1.044,8.27,2.0,4971.0,0.0,0.0,
2025-08-15T05:00:05.231Z,7,GR86-028-89,-92.4,-0.223,-1.027,16.580000000000002,2.0,,0.0,0.0,89.4
2025-08-15T05:00:05.275Z,7,GR86-028-89,-92.4,-0.217,-1.065,20.84,2.0,,0.0,0.0,
2025-08-15T05:00:05.317Z,7,GR86-028-89,-92.1,-0.206,-1.055,20.93,2.0,,0.0,0.0,
2025-08-15T05:00:05.360Z,7,GR86-028-89,-90.5,-0.166,-1.064,22.79,2.0,,0.0,0.0,
2025-08-15T05:00:05.405Z,7,GR86-028-89,-87.0,-0.142,-1.042,24.13,2.0,4889.0,0.0,0.0,
2025-08-15T05:00:05.448Z,7,GR86-028-89,-85.0,-0.145,-1.053,26.44,2.0,,0.0,0.0,87.83
2025-08-15T05:00:05.491Z,7,GR86-028-89,-83.9,0.07,-1.013,27.99,2.0,,0.0,0.0,
2025-08-15T05:00:05.534Z,7,GR86-028-89,-82.0,0.084,-1.042,30.01,2.0,,0.0,0.0,
2025-08-15T05:00:05.577Z,7,GR86-028-89,-78.80000000000001,0.092,-0.996,32.34,2.0,,0.0,0.0,
2025-08-15T05:00:05.620Z,7,GR86-028-89,-73.8,0.092,-1.01,35.18,2.0,5123.0,0.0,0.0,
2025-08-15T05:00:05.665Z,7,GR86-028-89,-67.60000000000001,0.105,-1.01,41.91,2.0,,0.0,0.0,86.74
2025-08-15T05:00:05.707Z,7,GR86-028-89,-66.3,0.131,-1.0,42.27,2.0,,0.0,0.0,
2025-08-15T05:00:05.750Z,7,GR86-028-89,-65.5,0.151,-1.002,45.07,2.0,,0.0,0.0,
2025-08-15T05:00:05.794Z,7,GR86-028-89,-65.0,0.175,-0.958,52.79,2.0,,0.0,0.0,
2025-08-15T05:00:05.837Z,7,GR86-028-89,-64.5,0.175,-0.98,54.8,2.0,5182.0,0.0,0.0,
2025-08-15T05:00:05.880Z,7,GR86-028-89,-63.8,0.158,-0.957,54.53,2.0,,0.0,0.0,86.48
2025-08-15T05:00:05.926Z,7,GR86-028-89,-63.400000000000006,0.175,-0.932,59.43,2.0,,0.0,0.0,
2025-08-15T05:00:05.968Z,7,GR86-028-89,-64.3,0.201,-0.946,76.04,2.0,,0.0,0.0,
2025-08-15T05:00:06.011Z,7,GR86-028-89,-64.10000000000001,0.213,-0.93,98.24,2.0,,0.0,0.0,
2025-08-15T05:00:06.054Z,7,GR86-028-89,-62.0,0.212,-0.929,100.51,2.0,5282.0,0.0,0.0,
2025-08-15T05:00:06.097Z,7,GR86-028-89,-59.0,0.21,-0.935,100.54,2.0,,0.0,0.0,87.11
2025-08-15T05:00:06.140Z,7,GR86-028-89,-55.8,0.208,-0.93,100.54,2.0,,0.0,0.0,
2025-08-15T05:00:06.184Z,7,GR86-028-89,-50.2,0.22,-0.944,100.53,2.0,,0.0,0.0,
2025-08-15T05:00:06.227Z,7,GR86-028-89,-45.900000000000006,0.222,-0.93,100.51,2.0,,0.0,0.0,
2025-08-15T05:00:06.270Z,7,GR86-028-89,-42.7,0.22,-0.911,100.49,2.0,5351.0,0.0,0.0,
2025-08-15T05:00:06.314Z,7,GR86-028-89,-40.3,0.212,-0.909,100.47,2.0,,0.0,0.0,88.23
2025-08-15T05:00:06.357Z,7,GR86-028-89,-38.7,0.218,-0.898,100.4,2.0,,0.0,0.0,
2025-08-15T05:00:06.400Z,7,GR86-028-89,-37.6,0.212,-0.892,100.37,2.0,,0.0,0.0,
2025-08-15T05:00:06.445Z,7,GR86-028-89,-36.1,0.231,-0.931,100.29,2.0,,0.0,0.0,
2025-08-15T05:00:06.487Z,7,GR86-028-89,-35.9,0.235,-0.905,100.22,2.0,5415.0,0.0,0.0,
2025-08-15T05:00:06.531Z,7,GR86-028-89,-36.3,0.224,-0.882,100.16,2.0,,0.0,0.0,89.66
2025-08-15T05:00:06.575Z,7,GR86-028-89,-36.6,0.237,-0.86,100.09,2.0,,0.0,0.0,
2025-08-15T05:00:06.617Z,7,GR86-028-89,-37.2,0.224,-0.864,100.04,2.0,,0.0,0.0,
2025-08-15T05:00:06.660Z,7,GR86-028-89,-38.2,0.214,-0.839,99.94,2.0,,0.0,0.0,
2025-08-15T05:00:06.705Z,7,GR86-028-89,-40.3,0.215,-0.8260000000000001,99.87,2.0,5470.0,0.0,0.0,
2025-08-15T05:00:06.748Z,7,GR86-028-89,-40.7,0.241,-0.859,99.88,2.0,,0.0,0.0,91.07
2025-08-15T05:00:06.791Z,7,GR86-028-89,-41.3,0.218,-0.851,99.88,2.0,,0.0,0.0,
2025-08-15T05:00:06.834Z,7,GR86-028-89,-43.1,0.229,-0.857,99.89,2.0,,0.0,0.0,
2025-08-15T05:00:06.877Z,7,GR86-028-89,-45.6,0.231,-0.848,99.9,2.0,,0.0,0.0,
2025-08-15T05:00:06.921Z,7,GR86-028-89,-46.900000000000006,0.238,-0.842,99.9,2.0,5551.0,0.0,0.0,
2025-08-15T05:00:06.965Z,7,GR86-028-89,-47.6,0.221,-0.8280000000000001,99.94,2.0,,0.0,0.0,92.27
2025-08-15T05:00:07.007Z,7,GR86-028-89,-49.8,0.198,-0.81,99.94,2.0,,0.0,0.0,
2025-08-15T05:00:07.050Z,7,GR86-028-89,-55.0,0.223,-0.84,99.96,2.0,,0.0,0.0,
2025-08-15T05:00:07.094Z,7,GR86-028-89,-61.2,0.209,-0.857,99.97,2.0,,0.0,0.0,
2025-08-15T05:00:07.137Z,7,GR86-028-89,-64.0,0.22,-0.895,100.0,2.0,5607.0,0.0,0.0,
2025-08-15T05:00:07.179Z,7,GR86-028-89,-62.1,0.197,-0.851,100.03,2.0,,0.0,0.0,93.89
2025-08-15T05:00:07.225Z,7,GR86-028-89,-51.8,0.209,-0.935,100.08,2.0,,0.0,0.0,
2025-08-15T05:00:07.268Z,7,GR86-028-89,-45.3,0.212,-0.885,100.08,2.0,,0.0,0.0,
2025-08-15T05:00:07.311Z,7,GR86-028-89,-41.2,0.196,-0.896,100.06,2.0,,0.0,0.0,
2025-08-15T05:00:07.354Z,7,GR86-028-89,-39.6,0.229,-0.869,100.06,2.0,5695.0,0.0,0.0,
2025-08-15T05:00:07.397Z,7,GR86-028-89,-39.400000000000006,0.231,-0.8190000000000001,100.07,2.0,,0.0,0.0,95.45
2025-08-15T05:00:07.440Z,7,GR86-028-89,-37.8,0.223,-0.8230000000000001,100.06,2.0,,0.0,0.0,
2025-08-15T05:00:07.484Z,7,GR86-028-89,-32.7,0.198,-0.8220000000000001,100.06,2.0,,0.0,0.0,
2025-08-15T05:00:07.527Z,7,GR86-028-89,-29.200000000000003,0.194,-0.854,100.03,2.0,,0.0,0.0,
2025-08-15T05:00:07.571Z,7,GR86-028-89,-26.6,0.226,-0.86,100.02,2.0,5805.0,0.0,0.0,
2025-08-15T05:00:07.614Z,7,GR86-028-89,-24.8,0.254,-0.8300000000000001,100.0,2.0,,0.0,0.0,98.43
2025-08-15T05:00:07.656Z,7,GR86-028-89,-22.4,0.249,-0.801,100.0,2.0,,0.0,0.0,
2025-08-15T05:00:07.699Z,7,GR86-028-89,-17.8,0.23,-0.8130000000000001,100.01,2.0,,0.0,0.0,
2025-08-15T05:00:07.744Z,7,GR86-028-89,-12.7,0.233,-0.811,99.99,2.0,,0.0,0.0,
2025-08-15T05:00:07.787Z,7,GR86-028-89,-12.6,0.243,-0.833,99.96,2.0,5934.0,0.0,0.0,
2025-08-15T05:00:07.831Z,7,GR86-028-89,-13.0,0.261,-0.798,99.98,2.0,,0.0,0.0,99.85
2025-08-15T05:00:07.874Z,7,GR86-028-89,-13.0,0.266,-0.766,99.96,2.0,,0.0,0.0,
2025-08-15T05:00:07.917Z,7,GR86-028-89,-12.8,0.235,-0.768,99.96,2.0,,0.0,0.0,
2025-08-15T05:00:07.960Z,7,GR86-028-89,-15.2,0.243,-0.759,99.94,2.0,,0.0,0.0,
2025-08-15T05:00:08.005Z,7,GR86-028-89,-23.4,0.236,-0.779,99.95,2.0,6075.0,0.0,0.0,
2025-08-15T05:00:08.048Z,7,GR86-028-89,-28.200000000000003,0.239,-0.773,99.96,2.0,,0.0,0.0,100.63
2025-08-15T05:00:08.134Z,7,GR86-028-89,-31.3,0.257,-0.765,99.95,2.0,,0.0,0.0,
2025-08-15T05:00:08.177Z,7,GR86-028-89,-31.4,0.241,-0.767,99.96,2.0,,0.0,0.0,
2025-08-15T05:00:08.220Z,7,GR86-028-89,-29.700000000000003,0.225,-0.742,100.01,2.0,6114.0,0.0,0.0,
2025-08-15T05:00:08.307Z,7,GR86-028-89,-28.0,0.227,-0.705,100.06,2.0,,0.0,0.0,102.01
2025-08-15T05:00:08.350Z,7,GR86-028-89,-25.9,0.231,-0.667,100.06,2.0,,0.0,0.0,
2025-08-15T05:00:08.394Z,7,GR86-028-89,-24.8,0.22,-0.627,100.06,2.0,,0.0,0.0,
2025-08-15T05:00:08.436Z,7,GR86-028-89,-23.700000000000003,0.246,-0.636,100.06,2.0,6182.0,0.0,0.0,
2025-08-15T05:00:08.479Z,7,GR86-028-89,-23.6,0.226,-0.603,100.06,2.0,,0.0,0.0,103.72
2025-08-15T05:00:08.525Z,7,GR86-028-89,-28.4,0.228,-0.5730000000000001,100.03,2.0,,0.0,0.0,
2025-08-15T05:00:08.568Z,7,GR86-028-89,-30.8,0.237,-0.616,100.0,2.0,,0.0,0.0,
2025-08-15T05:00:08.611Z,7,GR86-028-89,-30.200000000000003,0.219,-0.602,99.99,2.0,,0.0,0.0,
2025-08-15T05:00:08.654Z,7,GR86-028-89,-28.0,0.229,-0.596,99.98,2.0,6276.0,0.0,0.0,
2025-08-15T05:00:08.697Z,7,GR86-028-89,-26.0,0.235,-0.5710000000000001,99.94,2.0,,0.0,0.0,105.47
2025-08-15T05:00:08.740Z,7,GR86-028-89,-25.1,0.216,-0.534,99.98,2.0,,0.0,0.0,
2025-08-15T05:00:08.784Z,7,GR86-028-89,-26.1,0.213,-0.527,99.94,2.0,,0.0,0.0,
2025-08-15T05:00:08.827Z,7,GR86-028-89,-27.4,0.233,-0.517,99.97,2.0,,0.0,0.0,
2025-08-15T05:00:08.870Z,7,GR86-028-89,-27.700000000000003,0.21,-0.469,99.96,2.0,6358.0,0.0,0.0,
2025-08-15T05:00:08.915Z,7,GR86-028-89,-26.3,0.21,-0.512,99.93,2.0,,0.0,0.0,107.21
2025-08-15T05:00:08.957Z,7,GR86-028-89,-24.6,0.189,-0.529,99.98,2.0,,0.0,0.0,
2025-08-15T05:00:09.000Z,7,GR86-028-89,-24.1,0.222,-0.537,99.99,2.0,,0.0,0.0,
2025-08-15T05:00:09.044Z,7,GR86-028-89,-22.1,0.215,-0.482,100.01,2.0,,0.0,0.0,
2025-08-15T05:00:09.087Z,7,GR86-028-89,-19.5,0.118,-0.367,100.06,2.0,6516.0,0.0,0.0,
2025-08-15T05:00:09.131Z,7,GR86-028-89,-17.5,0.102,-0.412,100.02,2.0,,0.0,0.0,108.92
2025-08-15T05:00:09.175Z,7,GR86-028-89,-16.400000000000002,0.186,-0.457,100.04,2.0,,0.0,0.0,
2025-08-15T05:00:09.217Z,7,GR86-028-89,-15.8,0.193,-0.352,100.05,2.0,,0.0,0.0,
2025-08-15T05:00:09.260Z,7,GR86-028-89,-14.9,0.134,-0.346,100.03,2.0,,0.0,0.0,
2025-08-15T05:00:09.305Z,7,GR86-028-89,-11.5,0.276,-0.381,100.0,2.0,6608.0,0.0,0.0,
2025-08-15T05:00:09.348Z,7,GR86-028-89,-9.0,0.257,-0.31,99.99,2.0,,0.0,0.0,110.6
2025-08-15T05:00:09.391Z,7,GR86-028-89,-6.9,0.265,-0.366,99.99,2.0,,0.0,0.0,
2025-08-15T05:00:09.434Z,7,GR86-028-89,-4.6000000000000005,0.239,-0.326,99.99,2.0,,0.0,0.0,
2025-08-15T05:00:09.477Z,7,GR86-028-89,-2.7,0.263,-0.286,99.96,2.0,,0.0,0.0,
2025-08-15T05:00:09.520Z,7,GR86-028-89,-0.1,0.287,-0.359,99.92,2.0,6764.0,0.0,0.0,
2025-08-15T05:00:09.564Z,7,GR86-028-89,4.0,0.245,-0.303,99.98,2.0,,0.0,0.0,112.02
2025-08-15T05:00:09.607Z,7,GR86-028-89,4.9,0.27,-0.276,99.96,2.0,,0.0,0.0,
2025-08-15T05:00:09.650Z,7,GR86-028-89,5.5,0.281,-0.311,99.94,2.0,,0.0,0.0,
2025-08-15T05:00:09.694Z,7,GR86-028-89,5.800000000000001,0.238,-0.17,99.98,2.0,,0.0,0.0,
2025-08-15T05:00:09.736Z,7,GR86-028-89,5.9,0.232,-0.108,100.03,2.0,6831.0,0.0,0.0,
2025-08-15T05:00:09.779Z,7,GR86-028-89,5.9,0.227,-0.126,100.05,2.0,,0.0,0.0,113.86
2025-08-15T05:00:09.825Z,7,GR86-028-89,5.800000000000001,0.248,0.047,100.04,2.0,,0.0,0.0,
2025-08-15T05:00:09.867Z,7,GR86-028-89,5.300000000000001,0.27,0.022,100.04,2.0,,0.0,0.0,
2025-08-15T05:00:09.910Z,7,GR86-028-89,4.7,0.289,0.071,100.02,2.0,,0.0,0.0,
2025-08-15T05:00:09.954Z,7,GR86-028-89,2.8000000000000003,0.293,0.108,100.03,2.0,6870.0,0.0,0.0,
2025-08-15T05:00:09.996Z,7,GR86-028-89,0.5,0.253,0.116,100.04,2.0,,0.0,0.0,115.78
2025-08-15T05:00:10.039Z,7,GR86-028-89,-1.0,0.215,0.112,100.01,2.0,,0.0,0.0,
2025-08-15T05:00:10.084Z,7,GR86-028-89,-2.0,0.216,0.114,99.98,2.0,,0.0,0.0,
2025-08-15T05:00:10.127Z,7,GR86-028-89,-2.6,0.241,0.073,99.96,2.0,,0.0,0.0,
2025-08-15T05:00:10.170Z,7,GR86-028-89,-2.7,0.246,0.074,99.95,2.0,6900.0,0.0,0.0,
2025-08-15T05:00:10.214Z,7,GR86-028-89,-2.7,0.245,0.059,99.96,2.0,,0.0,0.0,119.4
2025-08-15T05:00:10.257Z,7,GR86-028-89,-2.7,0.26,0.007,99.97,2.0,,0.0,0.0,
2025-08-15T05:00:10.300Z,7,GR86-028-89,-2.9000000000000004,0.251,-0.008,100.01,2.0,,0.0,0.0,
2025-08-15T05:00:10.345Z,7,GR86-028-89,-3.1,0.239,-0.048,99.97,2.0,,0.0,0.0,
2025-08-15T05:00:10.387Z,7,GR86-028-89,-3.1,0.221,-0.059,99.98,2.0,7059.0,0.0,0.0,
2025-08-15T05:00:10.431Z,7,GR86-028-89,-3.1,0.234,-0.07,100.01,2.0,,0.0,0.0,121.41
2025-08-15T05:00:10.475Z,7,GR86-028-89,-3.1,0.226,-0.089,100.02,2.0,,0.0,0.0,
2025-08-15T05:00:10.517Z,7,GR86-028-89,-3.1,0.216,-0.078,100.0,2.0,,0.0,0.0,
2025-08-15T05:00:10.560Z,7,GR86-028-89,-3.1,0.227,-0.087,99.97,2.0,,0.0,0.0,
2025-08-15T05:00:10.605Z,7,GR86-028-89,-3.1,0.222,-0.094,100.01,2.0,7235.0,0.0,0.0,
2025-08-15T05:00:10.648Z,7,GR86-028-89,-2.9000000000000004,0.234,-0.104,99.96,2.0,,0.0,0.0,123.04
2025-08-15T05:00:10.691Z,7,GR86-028-89,-2.8000000000000003,0.215,-0.105,100.01,2.0,,0.0,0.0,
2025-08-15T05:00:10.734Z,7,GR86-028-89,-2.7,0.208,-0.118,100.01,2.0,,0.0,0.0,
2025-08-15T05:00:10.777Z,7,GR86-028-89,-1.8,0.223,-0.127,99.97,2.0,,0.0,0.0,
2025-08-15T05:00:10.821Z,7,GR86-028-89,-1.1,0.114,-0.124,99.99,3.0,7301.0,0.0,0.0,
2025-08-15T05:00:10.865Z,7,GR86-028-89,-0.5,0.365,-0.045,100.02,3.0,,0.0,0.0,124.63
2025-08-15T05:00:10.907Z,7,GR86-028-89,-0.3,0.488,-0.187,99.99,3.0,,0.0,0.0,
2025-08-15T05:00:10.950Z,7,GR86-028-89,-0.5,0.377,-0.123,100.0,3.0,,0.0,0.0,
2025-08-15T05:00:10.994Z,7,GR86-028-89,-0.5,0.185,-0.024,100.0,3.0,,0.0,0.0,
2025-08-15T05:00:11.037Z,7,GR86-028-89,0.3,0.076,-0.163,99.99,3.0,5886.0,0.0,0.0,
2025-08-15T05:00:11.080Z,7,GR86-028-89,1.0,0.136,-0.097,99.99,3.0,,0.0,0.0,126.12
2025-08-15T05:00:11.125Z,7,GR86-028-89,1.7000000000000002,0.216,-0.112,100.01,3.0,,0.0,0.0,
2025-08-15T05:00:11.168Z,7,GR86-028-89,1.9,0.2,-0.11,100.02,3.0,,0.0,0.0,
2025-08-15T05:00:11.211Z,7,GR86-028-89,1.9,0.213,-0.039,100.04,3.0,,0.0,0.0,
2025-08-15T05:00:11.254Z,7,GR86-028-89,1.9,0.178,-0.058,100.04,3.0,6077.0,0.0,0.0,
2025-08-15T05:00:11.297Z,7,GR86-028-89,1.9,0.179,-0.055,100.03,3.0,,0.0,0.0,128.0
2025-08-15T05:00:11.340Z,7,GR86-028-89,2.3000000000000003,0.196,-0.027,100.04,3.0,,0.0,0.0,
2025-08-15T05:00:11.384Z,7,GR86-028-89,3.1,0.198,-0.033,100.05,3.0,,0.0,0.0,
2025-08-15T05:00:11.427Z,7,GR86-028-89,3.3000000000000003,0.197,-0.011,100.04,3.0,,0.0,0.0,
2025-08-15T05:00:11.471Z,7,GR86-028-89,3.3000000000000003,0.19,0.002,100.0,3.0,6146.0,0.0,0.0,
2025-08-15T05:00:11.514Z,7,GR86-028-89,3.4000000000000004,0.188,-0.014,99.98,3.0,,0.0,0.0,129.34
2025-08-15T05:00:11.557Z,7,GR86-028-89,3.4000000000000004,0.202,0.007,99.99,3.0,,0.0,0.0,
2025-08-15T05:00:11.600Z,7,GR86-028-89,3.4000000000000004,0.19,0.023,99.98,3.0,,0.0,0.0,
2025-08-15T05:00:11.644Z,7,GR86-028-89,3.4000000000000004,0.191,0.031,99.96,3.0,,0.0,0.0,
2025-08-15T05:00:11.687Z,7,GR86-028-89,3.5,0.192,0.041,99.97,3.0,6201.0,0.0,0.0,
2025-08-15T05:00:11.731Z,7,GR86-028-89,3.5,0.197,0.033,99.98,3.0,,0.0,0.0,130.69
2025-08-15T05:00:11.774Z,7,GR86-028-89,3.5,0.202,0.036,99.98,3.0,,0.0,0.0,
2025-08-15T05:00:11.817Z,7,GR86-028-89,3.5,0.192,0.044,99.98,3.0,,0.0,0.0,
2025-08-15T05:00:11.860Z,7,GR86-028-89,3.5,0.177,0.02,99.97,3.0,,0.0,0.0,
2025-08-15T05:00:11.906Z,7,GR86-028-89,3.5,0.192,0.034,100.0,3.0,6254.0,0.0,0.0,
2025-08-15T05:00:11.948Z,7,GR86-028-89,3.5,0.199,0.045,99.97,3.0,,0.0,0.0,132.12
2025-08-15T05:00:11.991Z,7,GR86-028-89,3.4000000000000004,0.192,0.047,100.01,3.0,,0.0,0.0,
2025-08-15T05:00:12.034Z,7,GR86-028-89,3.4000000000000004,0.176,0.046,99.99,3.0,,0.0,0.0,
2025-08-15T05:00:12.077Z,7,GR86-028-89,3.2,0.184,0.034,100.0,3.0,,0.0,0.0,
2025-08-15T05:00:12.120Z,7,GR86-028-89,2.8000000000000003,0.181,0.039,100.01,3.0,6324.0,0.0,0.0,
2025-08-15T05:00:12.164Z,7,GR86-028-89,2.4000000000000004,0.189,0.033,99.97,3.0,,0.0,0.0,133.47
2025-08-15T05:00:12.207Z,7,GR86-028-89,2.2,0.185,0.049,100.01,3.0,,0.0,0.0,
2025-08-15T05:00:12.250Z,7,GR86-028-89,2.1,0.187,0.061,99.99,3.0,,0.0,0.0,
2025-08-15T05:00:12.294Z,7,GR86-028-89,2.2,0.183,0.044,100.01,3.0,,0.0,0.0,
2025-08-15T05:00:12.336Z,7,GR86-028-89,2.2,0.176,0.033,99.99,3.0,6398.0,0.0,0.0,
2025-08-15T05:00:12.379Z,7,GR86-028-89,2.2,0.168,0.052,100.0,3.0,,0.0,0.0,134.83
2025-08-15T05:00:12.425Z,7,GR86-028-89,2.2,0.183,0.026,100.01,3.0,,0.0,0.0,
2025-08-15T05:00:12.468Z,7,GR86-028-89,2.1,0.181,0.047,100.02,3.0,,0.0,0.0,
2025-08-15T05:00:12.511Z,7,GR86-028-89,2.1,0.178,0.051,100.0,3.0,,0.0,0.0,
2025-08-15T05:00:12.554Z,7,GR86-028-89,2.1,0.19,0.026,100.05,3.0,6450.0,0.0,0.0,
2025-08-15T05:00:12.597Z,7,GR86-028-89,2.1,0.191,0.028,100.01,3.0,,0.0,0.0,136.17000000000002
2025-08-15T05:00:12.640Z,7,GR86-028-89,1.9,0.169,0.039,100.04,3.0,,0.0,0.0,
2025-08-15T05:00:12.684Z,7,GR86-028-89,1.6,0.17,0.028,99.98,3.0,,0.0,0.0,
2025-08-15T05:00:12.727Z,7,GR86-028-89,1.6,0.179,0.037,99.98,3.0,,0.0,0.0,
2025-08-15T05:00:12.771Z,7,GR86-028-89,1.6,0.181,0.031,100.0,3.0,6509.0,0.0,0.0,
2025-08-15T05:00:12.814Z,7,GR86-028-89,1.6,0.188,0.007,99.97,3.0,,0.0,0.0,138.67000000000002
2025-08-15T05:00:12.857Z,7,GR86-028-89,1.6,0.178,0.008,99.99,3.0,,0.0,0.0,
2025-08-15T05:00:12.900Z,7,GR86-028-89,1.6,0.174,0.01,99.97,3.0,,0.0,0.0,
2025-08-15T05:00:12.944Z,7,GR86-028-89,1.6,0.174,0.013,99.95,3.0,,0.0,0.0,
2025-08-15T05:00:12.987Z,7,GR86-028-89,1.5,0.164,0.025,99.98,3.0,6565.0,0.0,0.0,
2025-08-15T05:00:13.031Z,7,GR86-028-89,1.4,0.163,0.018,100.01,3.0,,0.0,0.0,139.83
2025-08-15T05:00:13.075Z,7,GR86-028-89,1.4,0.176,0.0,99.97,3.0,,0.0,0.0,
2025-08-15T05:00:13.117Z,7,GR86-028-89,1.4,0.181,-0.006,100.02,3.0,,0.0,0.0,
2025-08-15T05:00:13.160Z,7,GR86-028-89,1.4,0.167,0.011,100.01,3.0,,0.0,0.0,
2025-08-15T05:00:13.205Z,7,GR86-028-89,1.4,0.191,-0.009,100.01,3.0,6677.0,0.0,0.0,
2025-08-15T05:00:13.248Z,7,GR86-028-89,1.1,0.174,0.008,99.96,3.0,,0.0,0.0,141.02
2025-08-15T05:00:13.291Z,7,GR86-028-89,0.6000000000000001,0.163,0.023,99.99,3.0,,0.0,0.0,
2025-08-15T05:00:13.334Z,7,GR86-028-89,0.2,0.169,0.006,100.01,3.0,,0.0,0.0,
2025-08-15T05:00:13.377Z,7,GR86-028-89,0.2,0.179,-0.003,100.01,3.0,,0.0,0.0,
2025-08-15T05:00:13.420Z,7,GR86-028-89,0.2,0.172,0.007,100.01,3.0,6726.0,0.0,0.0,
2025-08-15T05:00:13.464Z,7,GR86-028-89,-0.1,0.174,-0.008,100.0,3.0,,0.0,0.0,142.19
2025-08-15T05:00:13.507Z,7,GR86-028-89,-0.2,0.173,0.001,100.03,3.0,,0.0,0.0,
2025-08-15T05:00:13.550Z,7,GR86-028-89,-0.2,0.16,-0.008,100.07,3.0,,0.0,0.0,
2025-08-15T05:00:13.594Z,7,GR86-028-89,-0.2,0.163,0.007,100.04,3.0,,0.0,0.0,
2025-08-15T05:00:13.636Z,7,GR86-028-89,-0.4,0.164,-0.019,100.02,3.0,6780.0,0.0,0.0,
2025-08-15T05:00:13.679Z,7,GR86-028-89,-0.5,0.18,-0.015,100.01,3.0,,0.0,0.0,143.32
2025-08-15T05:00:13.725Z,7,GR86-028-89,-0.9,0.175,-0.02,99.96,3.0,,0.0,0.0,
2025-08-15T05:00:13.767Z,7,GR86-028-89,-1.3,0.181,-0.025,99.95,3.0,,0.0,0.0,
2025-08-15T05:00:13.810Z,7,GR86-028-89,-1.3,0.178,-0.035,99.96,3.0,,0.0,0.0,
2025-08-15T05:00:13.854Z,7,GR86-028-89,-1.3,0.178,-0.044,99.95,3.0,6836.0,0.0,0.0,
2025-08-15T05:00:13.896Z,7,GR86-028-89,-1.3,0.171,-0.043,99.98,3.0,,0.0,0.0,144.47
2025-08-15T05:00:13.939Z,7,GR86-028-89,-1.4,0.17,-0.054,99.97,3.0,,0.0,0.0,
2025-08-15T05:00:13.984Z,7,GR86-028-89,-1.4,0.157,-0.044,99.98,3.0,,0.0,0.0,
2025-08-15T05:00:14.027Z,7,GR86-028-89,-1.4,0.16,-0.06,99.97,3.0,,0.0,0.0,
2025-08-15T05:00:14.070Z,7,GR86-028-89,-1.4,0.187,-0.067,99.98,3.0,6892.0,0.0,0.0,
2025-08-15T05:00:14.114Z,7,GR86-028-89,-1.5,0.184,-0.06,100.03,3.0,,0.0,0.0,145.65
2025-08-15T05:00:14.157Z,7,GR86-028-89,-1.5,0.171,-0.073,100.04,3.0,,0.0,0.0,
2025-08-15T05:00:14.200Z,7,GR86-028-89,-1.5,0.157,-0.101,100.04,3.0,,0.0,0.0,
2025-08-15T05:00:14.245Z,7,GR86-028-89,-1.5,0.17,-0.078,100.02,3.0,,0.0,0.0,
2025-08-15T05:00:14.287Z,7,GR86-028-89,-1.5,0.171,-0.086,100.0,3.0,6952.0,0.0,0.0,
2025-08-15T05:00:14.331Z,7,GR86-028-89,-1.3,0.16,-0.092,100.01,3.0,,0.0,0.0,146.85
2025-08-15T05:00:14.375Z,7,GR86-028-89,-1.2000000000000002,0.167,-0.084,99.99,3.0,,0.0,0.0,
2025-08-15T05:00:14.417Z,7,GR86-028-89,-1.2000000000000002,0.179,-0.086,99.98,3.0,,0.0,0.0,
2025-08-15T05:00:14.460Z,7,GR86-028-89,-1.1,0.17,-0.086,99.96,3.0,,0.0,0.0,
2025-08-15T05:00:14.505Z,7,GR86-028-89,-1.1,0.163,-0.095,99.96,3.0,7010.0,0.0,0.0,
2025-08-15T05:00:14.591Z,7,GR86-028-89,-1.1,0.177,-0.095,99.96,3.0,,0.0,0.0,148.03
2025-08-15T05:00:14.634Z,7,GR86-028-89,-1.1,0.163,-0.098,99.96,3.0,,0.0,0.0,
2025-08-15T05:00:14.677Z,7,GR86-028-89,-1.0,0.161,-0.101,99.97,3.0,,0.0,0.0,
2025-08-15T05:00:14.721Z,7,GR86-028-89,-0.9,0.16,-0.083,99.97,3.0,7066.0,0.0,0.0,
2025-08-15T05:00:14.765Z,7,GR86-028-89,-0.6000000000000001,0.164,-0.104,100.01,3.0,,0.0,0.0,149.24
2025-08-15T05:00:14.807Z,7,GR86-028-89,-0.5,0.163,-0.109,99.98,3.0,,0.0,0.0,
2025-08-15T05:00:14.850Z,7,GR86-028-89,-0.5,0.161,-0.082,99.99,3.0,,0.0,0.0,
2025-08-15T05:00:14.894Z,7,GR86-028-89,-0.5,0.164,-0.074,100.0,3.0,,0.0,0.0,
2025-08-15T05:00:14.937Z,7,GR86-028-89,-0.5,0.152,-0.073,100.0,3.0,7110.0,0.0,0.0,
2025-08-15T05:00:14.979Z,7,GR86-028-89,-0.3,0.158,-0.083,100.01,3.0,,0.0,0.0,150.45000000000002
2025-08-15T05:00:15.025Z,7,GR86-028-89,-0.1,0.157,-0.071,99.99,3.0,,0.0,0.0,
2025-08-15T05:00:15.067Z,7,GR86-028-89,-0.1,0.165,-0.07,100.01,3.0,,0.0,0.0,
2025-08-15T05:00:15.110Z,7,GR86-028-89,-0.1,0.18,-0.074,99.99,3.0,,0.0,0.0,
2025-08-15T05:00:15.154Z,7,GR86-028-89,0.0,0.159,-0.074,99.98,3.0,7164.0,0.0,0.0,
2025-08-15T05:00:15.196Z,7,GR86-028-89,0.1,0.159,-0.069,99.99,3.0,,0.0,0.0,151.62
2025-08-15T05:00:15.239Z,7,GR86-028-89,0.1,0.152,-0.052,100.02,3.0,,0.0,0.0,
2025-08-15T05:00:15.284Z,7,GR86-028-89,0.1,0.166,-0.087,99.99,3.0,,0.0,0.0,
2025-08-15T05:00:15.327Z,7,GR86-028-89,0.3,0.165,-0.064,100.01,3.0,,0.0,0.0,
2025-08-15T05:00:15.370Z,7,GR86-028-89,0.9,0.16,-0.059,100.01,3.0,7211.0,0.0,0.0,
2025-08-15T05:00:15.414Z,7,GR86-028-89,1.1,0.137,-0.056,99.99,3.0,,0.0,0.0,153.75
2025-08-15T05:00:15.456Z,7,GR86-028-89,1.0,-0.145,-0.017,99.99,4.0,,0.0,0.0,
2025-08-15T05:00:15.499Z,7,GR86-028-89,1.0,-0.003,-0.004,100.0,4.0,,0.0,0.0,
2025-08-15T05:00:15.544Z,7,GR86-028-89,1.6,0.281,-0.081,100.0,4.0,,0.0,0.0,
2025-08-15T05:00:15.587Z,7,GR86-028-89,1.0,0.156,0.003,99.98,4.0,7265.0,0.0,0.0,
2025-08-15T05:00:15.631Z,7,GR86-028-89,0.8,0.057,-0.013,100.01,4.0,,0.0,0.0,154.52
2025-08-15T05:00:15.674Z,7,GR86-028-89,0.9,0.113,-0.09,100.03,4.0,,0.0,0.0,
2025-08-15T05:00:15.717Z,7,GR86-028-89,0.9,0.164,-0.013,100.05,4.0,,0.0,0.0,
2025-08-15T05:00:15.760Z,7,GR86-028-89,0.7000000000000001,0.16,0.0,100.07,4.0,,0.0,0.0,
2025-08-15T05:00:15.806Z,7,GR86-028-89,0.4,0.139,-0.037,100.07,4.0,6189.0,0.0,0.0,
2025-08-15T05:00:15.848Z,7,GR86-028-89,-0.3,0.151,-0.001,100.03,4.0,,0.0,0.0,155.54
2025-08-15T05:00:15.891Z,7,GR86-028-89,-0.9,0.141,-0.029,100.04,4.0,,0.0,0.0,
2025-08-15T05:00:15.935Z,7,GR86-028-89,-1.2000000000000002,0.121,-0.006,99.99,4.0,,0.0,0.0,
2025-08-15T05:00:15.977Z,7,GR86-028-89,-1.4,0.128,0.001,100.03,4.0,,0.0,0.0,
2025-08-15T05:00:16.020Z,7,GR86-028-89,-1.6,0.117,-0.03,99.98,4.0,6241.0,0.0,0.0,
2025-08-15T05:00:16.064Z,7,GR86-028-89,-1.8,0.138,-0.02,99.95,4.0,,0.0,0.0,156.6
2025-08-15T05:00:16.107Z,7,GR86-028-89,-1.9,0.133,-0.027,99.97,4.0,,0.0,0.0,
2025-08-15T05:00:16.150Z,7,GR86-028-89,-2.1,0.119,-0.054,99.96,4.0,,0.0,0.0,
2025-08-15T05:00:16.194Z,7,GR86-028-89,-2.5,0.129,-0.041,99.96,4.0,,0.0,0.0,
2025-08-15T05:00:16.236Z,7,GR86-028-89,-2.7,0.119,-0.048,99.96,4.0,6268.0,0.0,0.0,
2025-08-15T05:00:16.279Z,7,GR86-028-89,-2.7,0.127,-0.061,99.98,4.0,,0.0,0.0,157.59
2025-08-15T05:00:16.325Z,7,GR86-028-89,-3.3000000000000003,0.115,-0.067,99.98,4.0,,0.0,0.0,
2025-08-15T05:00:16.368Z,7,GR86-028-89,-3.3000000000000003,0.114,-0.089,99.96,4.0,,0.0,0.0,
2025-08-15T05:00:16.411Z,7,GR86-028-89,-3.3000000000000003,0.123,-0.086,100.02,4.0,,0.0,0.0,
2025-08-15T05:00:16.456Z,7,GR86-028-89,-3.3000000000000003,0.126,-0.092,100.02,4.0,6311.0,0.0,0.0,
2025-08-15T05:00:16.499Z,7,GR86-028-89,-3.5,0.13,-0.1,100.03,4.0,,0.0,0.0,158.61
2025-08-15T05:00:16.543Z,7,GR86-028-89,-3.6,0.112,-0.112,100.05,4.0,,0.0,0.0,
2025-08-15T05:00:16.587Z,7,GR86-028-89,-3.6,0.119,-0.12,100.03,4.0,,0.0,0.0,
2025-08-15T05:00:16.631Z,7,GR86-028-89,-3.6,0.124,-0.099,100.05,4.0,,0.0,0.0,
2025-08-15T05:00:16.675Z,7,GR86-028-89,-3.6,0.117,-0.099,100.04,4.0,6339.0,0.0,0.0,
2025-08-15T05:00:16.717Z,7,GR86-028-89,-3.5,0.123,-0.106,100.01,4.0,,0.0,0.0,159.67000000000002
2025-08-15T05:00:16.760Z,7,GR86-028-89,-3.3000000000000003,0.12,-0.114,100.03,4.0,,0.0,0.0,
2025-08-15T05:00:16.806Z,7,GR86-028-89,-3.5,0.129,-0.121,99.94,4.0,,0.0,0.0,
2025-08-15T05:00:16.848Z,7,GR86-028-89,-3.2,0.132,-0.126,99.97,4.0,,0.0,0.0,
2025-08-15T05:00:16.891Z,7,GR86-028-89,-3.3000000000000003,0.12,-0.118,99.93,4.0,6389.0,0.0,0.0,
2025-08-15T05:00:16.934Z,7,GR86-028-89,-3.7,0.119,-0.131,99.95,4.0,,0.0,0.0,160.59
2025-08-15T05:00:16.977Z,7,GR86-028-89,-3.6,0.126,-0.143,99.94,4.0,,0.0,0.0,
2025-08-15T05:00:17.020Z,7,GR86-028-89,-3.2,0.119,-0.163,99.91,4.0,,0.0,0.0,
2025-08-15T05:00:17.064Z,7,GR86-028-89,-3.1,0.118,-0.143,99.97,4.0,,0.0,0.0,
2025-08-15T05:00:17.107Z,7,GR86-028-89,-3.4000000000000004,0.118,-0.139,100.0,4.0,6419.0,0.0,0.0,
2025-08-15T05:00:17.150Z,7,GR86-028-89,-3.4000000000000004,0.121,-0.157,100.03,4.0,,0.0,0.0,161.56
2025-08-15T05:00:17.194Z,7,GR86-028-89,-3.4000000000000004,0.126,-0.148,100.07,4.0,,0.0,0.0,
2025-08-15T05:00:17.237Z,7,GR86-028-89,-3.4000000000000004,0.116,-0.153,100.1,4.0,,0.0,0.0,
2025-08-15T05:00:17.280Z,7,GR86-028-89,-3.4000000000000004,0.116,-0.156,100.06,4.0,,0.0,0.0,
2025-08-15T05:00:17.325Z,7,GR86-028-89,-3.5,0.113,-0.145,100.06,4.0,6455.0,0.0,0.0,
2025-08-15T05:00:17.367Z,7,GR86-028-89,-3.5,0.11,-0.145,100.07,4.0,,0.0,0.0,162.54
2025-08-15T05:00:17.410Z,7,GR86-028-89,-3.5,0.117,-0.162,100.03,4.0,,0.0,0.0,
2025-08-15T05:00:17.454Z,7,GR86-028-89,-3.5,0.113,-0.157,100.02,4.0,,0.0,0.0,
2025-08-15T05:00:17.496Z,7,GR86-028-89,-3.5,0.121,-0.166,99.97,4.0,,0.0,0.0,
2025-08-15T05:00:17.539Z,7,GR86-028-89,-3.5,0.113,-0.155,99.97,4.0,6493.0,0.0,0.0,
2025-08-15T05:00:17.584Z,7,GR86-028-89,-3.4000000000000004,0.118,-0.152,99.91,4.0,,0.0,0.0,163.55
2025-08-15T05:00:17.627Z,7,GR86-028-89,-3.5,0.119,-0.149,99.9,4.0,,0.0,0.0,
2025-08-15T05:00:17.671Z,7,GR86-028-89,-3.5,0.124,-0.151,99.95,4.0,,0.0,0.0,
2025-08-15T05:00:17.714Z,7,GR86-028-89,-3.5,0.126,-0.149,99.95,4.0,,0.0,0.0,
2025-08-15T05:00:17.757Z,7,GR86-028-89,-3.6,0.121,-0.145,99.98,4.0,6524.0,0.0,0.0,
2025-08-15T05:00:17.800Z,7,GR86-028-89,-3.6,0.111,-0.131,99.94,4.0,,0.0,0.0,164.53
2025-08-15T05:00:17.845Z,7,GR86-028-89,-3.7,0.123,-0.143,99.99,4.0,,0.0,0.0,
2025-08-15T05:00:17.887Z,7,GR86-028-89,-3.7,0.112,-0.138,100.04,4.0,,0.0,0.0,
2025-08-15T05:00:17.931Z,7,GR86-028-89,-3.7,0.12,-0.141,100.04,4.0,,0.0,0.0,
2025-08-15T05:00:17.975Z,7,GR86-028-89,-3.7,0.11,-0.134,100.09,4.0,6571.0,0.0,0.0,
2025-08-15T05:00:18.017Z,7,GR86-028-89,-3.7,0.124,-0.143,100.08,4.0,,0.0,0.0,166.52
2025-08-15T05:00:18.060Z,7,GR86-028-89,-3.7,0.121,-0.148,100.07,4.0,,0.0,0.0,
2025-08-15T05:00:18.105Z,7,GR86-028-89,-3.7,0.109,-0.154,100.04,4.0,,0.0,0.0,
2025-08-15T05:00:18.148Z,7,GR86-028-89,-3.7,0.112,-0.139,100.05,4.0,,0.0,0.0,
2025-08-15T05:00:18.191Z,7,GR86-028-89,-3.8,0.11,-0.163,99.99,4.0,6610.0,0.0,0.0,
2025-08-15T05:00:18.234Z,7,GR86-028-89,-3.9,0.123,-0.157,99.97,4.0,,0.0,0.0,167.28
2025-08-15T05:00:18.277Z,7,GR86-028-89,-3.8,0.116,-0.164,99.97,4.0,,0.0,0.0,
2025-08-15T05:00:18.321Z,7,GR86-028-89,-3.8,0.123,-0.168,99.92,4.0,,0.0,0.0,
2025-08-15T05:00:18.365Z,7,GR86-028-89,-3.8,0.11,-0.181,99.92,4.0,,0.0,0.0,
2025-08-15T05:00:18.407Z,7,GR86-028-89,-3.8,0.108,-0.177,99.94,4.0,6680.0,0.0,0.0,
2025-08-15T05:00:18.451Z,7,GR86-028-89,-3.8,0.124,-0.186,99.97,4.0,,0.0,0.0,168.37
2025-08-15T05:00:18.494Z,7,GR86-028-89,-3.8,0.119,-0.185,99.92,4.0,,0.0,0.0,
2025-08-15T05:00:18.537Z,7,GR86-028-89,-3.8,0.136,-0.189,99.95,4.0,,0.0,0.0,
2025-08-15T05:00:18.579Z,7,GR86-028-89,-3.5,0.123,-0.169,99.99,4.0,,0.0,0.0,
2025-08-15T05:00:18.625Z,7,GR86-028-89,-3.2,0.097,-0.174,100.06,4.0,6719.0,0.0,0.0,
2025-08-15T05:00:18.667Z,7,GR86-028-89,-3.1,0.121,-0.17,100.1,4.0,,0.0,0.0,169.41
2025-08-15T05:00:18.710Z,7,GR86-028-89,-2.9000000000000004,0.106,-0.164,100.09,4.0,,0.0,0.0,
2025-08-15T05:00:18.754Z,7,GR86-028-89,-2.9000000000000004,0.111,-0.163,100.07,4.0,,0.0,0.0,
2025-08-15T05:00:18.796Z,7,GR86-028-89,-2.7,0.1,-0.152,100.08,4.0,,0.0,0.0,
2025-08-15T05:00:18.839Z,7,GR86-028-89,-2.5,0.104,-0.144,100.07,4.0,6758.0,0.0,0.0,
2025-08-15T05:00:18.884Z,7,GR86-028-89,-2.4000000000000004,0.105,-0.174,99.99,4.0,,0.0,0.0,170.37
2025-08-15T05:00:18.927Z,7,GR86-028-89,-2.4000000000000004,0.104,-0.166,99.99,4.0,,0.0,0.0,
2025-08-15T05:00:18.971Z,7,GR86-028-89,-2.4000000000000004,0.102,-0.17,99.93,4.0,,0.0,0.0,
2025-08-15T05:00:19.014Z,7,GR86-028-89,-2.3000000000000003,0.112,-0.149,99.9,4.0,,0.0,0.0,
2025-08-15T05:00:19.057Z,7,GR86-028-89,-2.2,0.091,-0.152,99.91,4.0,6794.0,0.0,0.0,
2025-08-15T05:00:19.100Z,7,GR86-028-89,-2.0,0.106,-0.159,99.94,4.0,,0.0,0.0,171.27
2025-08-15T05:00:19.144Z,7,GR86-028-89,-1.7000000000000002,0.113,-0.15,99.91,4.0,,0.0,0.0,
2025-08-15T05:00:19.187Z,7,GR86-028-89,-1.4,0.113,-0.176,99.95,4.0,,0.0,0.0,
2025-08-15T05:00:19.231Z,7,GR86-028-89,-1.2000000000000002,0.102,-0.145,99.99,4.0,,0.0,0.0,
2025-08-15T05:00:19.274Z,7,GR86-028-89,-1.2000000000000002,0.101,-0.145,100.04,4.0,6839.0,0.0,0.0,
2025-08-15T05:00:19.317Z,7,GR86-028-89,-1.2000000000000002,0.106,-0.136,100.08,4.0,,0.0,0.0,172.14
2025-08-15T05:00:19.360Z,7,GR86-028-89,-1.2000000000000002,0.1,-0.102,100.1,4.0,,0.0,0.0,
2025-08-15T05:00:19.405Z,7,GR86-028-89,-1.4,0.105,-0.093,100.1,4.0,,0.0,0.0,
2025-08-15T05:00:19.448Z,7,GR86-028-89,-1.4,0.108,-0.093,100.07,4.0,,0.0,0.0,
2025-08-15T05:00:19.491Z,7,GR86-028-89,-1.3,0.113,-0.082,100.07,4.0,6861.0,0.0,0.0,
2025-08-15T05:00:19.534Z,7,GR86-028-89,-0.7000000000000001,0.131,-0.086,100.02,4.0,,0.0,0.0,173.24
2025-08-15T05:00:19.577Z,7,GR86-028-89,-0.6000000000000001,0.121,-0.092,99.98,4.0,,0.0,0.0,
2025-08-15T05:00:19.620Z,7,GR86-028-89,-0.9,0.114,-0.074,99.96,4.0,,0.0,0.0,
2025-08-15T05:00:19.664Z,7,GR86-028-89,-1.3,0.104,-0.082,99.95,4.0,,0.0,0.0,
2025-08-15T05:00:19.707Z,7,GR86-028-89,-1.1,0.11,-0.043,99.93,4.0,6893.0,0.0,0.0,
2025-08-15T05:00:19.751Z,7,GR86-028-89,-0.9,0.102,-0.037,99.95,4.0,,0.0,0.0,173.99
2025-08-15T05:00:19.794Z,7,GR86-028-89,-0.7000000000000001,0.107,-0.058,99.93,4.0,,0.0,0.0,
2025-08-15T05:00:19.836Z,7,GR86-028-89,-0.9,0.109,-0.033,99.94,4.0,,0.0,0.0,
2025-08-15T05:00:19.879Z,7,GR86-028-89,-1.0,0.101,-0.055,99.95,4.0,,0.0,0.0,
2025-08-15T05:00:19.926Z,7,GR86-028-89,-1.2000000000000002,0.086,-0.049,99.99,4.0,6937.0,0.0,0.0,
2025-08-15T05:00:20.014Z,7,GR86-028-89,-1.4,0.102,-0.063,100.1,4.0,,0.0,0.0,174.94
2025-08-15T05:00:20.057Z,7,GR86-028-89,-1.4,0.112,-0.047,100.11,4.0,,0.0,0.0,
2025-08-15T05:00:20.100Z,7,GR86-028-89,-1.4,0.11,-0.06,100.08,4.0,,0.0,0.0,
2025-08-15T05:00:20.144Z,7,GR86-028-89,-1.7000000000000002,0.106,-0.063,100.06,4.0,6981.0,0.0,0.0,
2025-08-15T05:00:20.187Z,7,GR86-028-89,-2.3000000000000003,0.097,-0.074,100.03,4.0,,0.0,0.0,175.74
2025-08-15T05:00:20.231Z,7,GR86-028-89,-3.1,0.08,-0.053,100.01,4.0,,0.0,0.0,
2025-08-15T05:00:20.275Z,7,GR86-028-89,-3.5,0.099,-0.08,99.97,4.0,,0.0,0.0,
2025-08-15T05:00:20.317Z,7,GR86-028-89,-3.5,0.096,-0.073,99.95,4.0,,0.0,0.0,
2025-08-15T05:00:20.360Z,7,GR86-028-89,-3.5,0.086,-0.077,99.92,4.0,7002.0,0.0,0.0,
2025-08-15T05:00:20.405Z,7,GR86-028-89,-3.5,0.101,-0.079,99.93,4.0,,0.0,0.0,177.57
2025-08-15T05:00:20.448Z,7,GR86-028-89,-3.5,0.102,-0.09,99.93,4.0,,0.0,0.0,
2025-08-15T05:00:20.491Z,7,GR86-028-89,-3.5,0.099,-0.123,99.94,4.0,,0.0,0.0,
2025-08-15T05:00:20.534Z,7,GR86-028-89,-3.3000000000000003,0.099,-0.117,99.94,4.0,,0.0,0.0,
2025-08-15T05:00:20.577Z,7,GR86-028-89,-2.9000000000000004,0.104,-0.122,99.98,4.0,7040.0,0.0,0.0,
2025-08-15T05:00:20.620Z,7,GR86-028-89,-2.8000000000000003,0.099,-0.13,99.99,4.0,,0.0,0.0,178.44
2025-08-15T05:00:20.664Z,7,GR86-028-89,-2.6,0.088,-0.123,100.05,4.0,,0.0,0.0,
2025-08-15T05:00:20.707Z,7,GR86-028-89,-2.3000000000000003,0.095,-0.136,100.09,4.0,,0.0,0.0,
2025-08-15T05:00:20.751Z,7,GR86-028-89,-2.1,0.085,-0.137,100.04,4.0,,0.0,0.0,
2025-08-15T05:00:20.794Z,7,GR86-028-89,-2.1,0.09,-0.132,100.06,4.0,7073.0,0.0,0.0,
2025-08-15T05:00:20.836Z,7,GR86-028-89,-2.2,0.099,-0.154,100.03,4.0,,0.0,0.0,179.15
2025-08-15T05:00:20.879Z,7,GR86-028-89,-2.2,0.077,-0.097,100.02,4.0,,0.0,0.0,
2025-08-15T05:00:20.926Z,7,GR86-028-89,-1.0,0.08,-0.159,99.97,4.0,,0.0,0.0,
2025-08-15T05:00:20.968Z,7,GR86-028-89,0.0,0.097,-0.127,99.92,4.0,,0.0,0.0,
2025-08-15T05:00:21.013Z,7,GR86-028-89,0.3,0.104,-0.123,99.91,4.0,7146.0,0.0,0.0,
2025-08-15T05:00:21.055Z,7,GR86-028-89,0.3,0.086,-0.119,99.92,4.0,,0.0,0.0,179.79
2025-08-15T05:00:21.098Z,7,GR86-028-89,0.1,0.09,-0.118,99.95,4.0,,0.0,0.0,
2025-08-15T05:00:21.141Z,7,GR86-028-89,0.1,0.089,-0.118,99.97,4.0,,0.0,0.0,
2025-08-15T05:00:21.184Z,7,GR86-028-89,0.1,0.097,-0.089,99.97,4.0,,0.0,0.0,
2025-08-15T05:00:21.227Z,7,GR86-028-89,0.0,0.093,-0.052,100.02,4.0,7153.0,0.0,0.0,
2025-08-15T05:00:21.270Z,7,GR86-028-89,-0.1,0.101,-0.051,100.04,4.0,,0.0,0.0,180.83
2025-08-15T05:00:21.314Z,7,GR86-028-89,-0.2,0.101,-0.038,100.09,4.0,,0.0,0.0,
2025-08-15T05:00:21.357Z,7,GR86-028-89,-0.2,0.098,-0.006,100.07,4.0,,0.0,0.0,
2025-08-15T05:00:21.400Z,7,GR86-028-89,-0.1,0.105,-0.018,100.07,4.0,,0.0,0.0,
2025-08-15T05:00:21.445Z,7,GR86-028-89,0.1,0.106,-0.037,100.04,4.0,7210.0,0.0,0.0,
2025-08-15T05:00:21.487Z,7,GR86-028-89,0.1,0.082,-0.023,100.03,4.0,,0.0,0.0,181.53
2025-08-15T05:00:21.575Z,7,GR86-028-89,0.2,0.087,0.004,99.94,4.0,,0.0,0.0,
2025-08-15T05:00:21.617Z,7,GR86-028-89,0.2,0.099,-0.01,99.94,4.0,,0.0,0.0,
2025-08-15T05:00:21.660Z,7,GR86-028-89,0.1,0.078,-0.013,99.9,4.0,7225.0,0.0,0.0,
2025-08-15T05:00:21.705Z,7,GR86-028-89,-0.4,0.09,0.001,99.91,4.0,,0.0,0.0,182.32
2025-08-15T05:00:21.748Z,7,GR86-028-89,-1.1,-0.071,-0.004,99.93,5.0,,0.0,0.0,
2025-08-15T05:00:21.791Z,7,GR86-028-89,-1.0,0.06,0.028,99.96,5.0,,0.0,0.0,
2025-08-15T05:00:21.834Z,7,GR86-028-89,-0.7000000000000001,0.303,-0.069,99.97,5.0,,0.0,0.0,
2025-08-15T05:00:21.877Z,7,GR86-028-89,-1.5,0.047,-0.052,99.96,5.0,6850.0,0.0,0.0,
2025-08-15T05:00:21.921Z,7,GR86-028-89,-1.8,0.018,0.057,100.01,5.0,,0.0,0.0,183.12
2025-08-15T05:00:21.965Z,7,GR86-028-89,-0.4,0.12,-0.108,100.07,5.0,,0.0,0.0,
2025-08-15T05:00:22.007Z,7,GR86-028-89,-0.6000000000000001,0.095,0.024,100.1,5.0,,0.0,0.0,
2025-08-15T05:00:22.050Z,7,GR86-028-89,-0.9,0.058,-0.062,100.11,5.0,,0.0,0.0,
2025-08-15T05:00:22.094Z,7,GR86-028-89,-0.9,0.077,-0.075,100.1,5.0,6325.0,0.0,0.0,
2025-08-15T05:00:22.137Z,7,GR86-028-89,-1.1,0.094,-0.03,100.07,5.0,,0.0,0.0,183.89
2025-08-15T05:00:22.179Z,7,GR86-028-89,-1.2000000000000002,0.086,-0.061,100.04,5.0,,0.0,0.0,
2025-08-15T05:00:22.225Z,7,GR86-028-89,-1.1,0.057,-0.049,100.04,5.0,,0.0,0.0,
2025-08-15T05:00:22.267Z,7,GR86-028-89,-1.1,0.07,-0.09,100.01,5.0,,0.0,0.0,
2025-08-15T05:00:22.310Z,7,GR86-028-89,-1.1,0.076,-0.094,100.01,5.0,6332.0,0.0,0.0,
2025-08-15T05:00:22.354Z,7,GR86-028-89,-1.3,0.08,-0.091,99.97,5.0,,0.0,0.0,184.73
2025-08-15T05:00:22.396Z,7,GR86-028-89,-1.5,0.056,-0.084,99.95,5.0,,0.0,0.0,
2025-08-15T05:00:22.439Z,7,GR86-028-89,-1.4,0.07,-0.097,99.91,5.0,,0.0,0.0,
2025-08-15T05:00:22.484Z,7,GR86-028-89,-0.6000000000000001,0.086,-0.063,99.91,5.0,,0.0,0.0,
2025-08-15T05:00:22.527Z,7,GR86-028-89,-0.5,0.083,-0.076,99.96,5.0,6353.0,0.0,0.0,
2025-08-15T05:00:22.570Z,7,GR86-028-89,-0.2,0.09,-0.057,99.91,5.0,,0.0,0.0,185.39
2025-08-15T05:00:22.614Z,7,GR86-028-89,0.0,0.084,-0.077,99.96,5.0,,0.0,0.0,
2025-08-15T05:00:22.656Z,7,GR86-028-89,0.0,0.084,-0.075,99.96,5.0,,0.0,0.0,
2025-08-15T05:00:22.699Z,7,GR86-028-89,-0.1,0.092,-0.065,100.01,5.0,,0.0,0.0,
2025-08-15T05:00:22.744Z,7,GR86-028-89,0.1,0.066,-0.058,100.06,5.0,6377.0,0.0,0.0,
2025-08-15T05:00:22.787Z,7,GR86-028-89,0.5,0.077,-0.061,100.07,5.0,,0.0,0.0,186.0
2025-08-15T05:00:22.831Z,7,GR86-028-89,0.8,0.073,-0.061,100.11,5.0,,0.0,0.0,
2025-08-15T05:00:22.874Z,7,GR86-028-89,0.8,0.074,-0.051,100.07,5.0,,0.0,0.0,
2025-08-15T05:00:22.917Z,7,GR86-028-89,0.8,0.062,-0.044,100.11,5.0,,0.0,0.0,
2025-08-15T05:00:22.960Z,7,GR86-028-89,0.7000000000000001,0.069,-0.039,100.04,5.0,6405.0,0.0,0.0,
2025-08-15T05:00:23.005Z,7,GR86-028-89,1.1,0.08,-0.039,100.01,5.0,,0.0,0.0,187.35
2025-08-15T05:00:23.048Z,7,GR86-028-89,1.4,0.079,-0.039,99.99,5.0,,0.0,0.0,
2025-08-15T05:00:23.091Z,7,GR86-028-89,1.5,0.092,-0.037,99.94,5.0,,0.0,0.0,
2025-08-15T05:00:23.134Z,7,GR86-028-89,1.5,0.075,-0.011,99.92,5.0,,0.0,0.0,
2025-08-15T05:00:23.177Z,7,GR86-028-89,1.5,0.081,-0.028,99.91,5.0,6427.0,0.0,0.0,
2025-08-15T05:00:23.220Z,7,GR86-028-89,1.6,0.078,-0.008,99.92,5.0,,0.0,0.0,188.17
2025-08-15T05:00:23.264Z,7,GR86-028-89,1.7000000000000002,0.083,-0.011,99.95,5.0,,0.0,0.0,
2025-08-15T05:00:23.307Z,7,GR86-028-89,1.7000000000000002,0.094,-0.007,99.94,5.0,,0.0,0.0,
2025-08-15T05:00:23.351Z,7,GR86-028-89,2.1,0.099,0.011,99.97,5.0,,0.0,0.0,
2025-08-15T05:00:23.394Z,7,GR86-028-89,2.8000000000000003,0.099,0.013,100.01,5.0,6448.0,0.0,0.0,
2025-08-15T05:00:23.436Z,7,GR86-028-89,3.3000000000000003,0.094,-0.001,100.08,5.0,,0.0,0.0,188.62
2025-08-15T05:00:23.479Z,7,GR86-028-89,3.4000000000000004,0.074,0.019,100.07,5.0,,0.0,0.0,
2025-08-15T05:00:23.525Z,7,GR86-028-89,3.4000000000000004,0.057,0.017,100.09,5.0,,0.0,0.0,
2025-08-15T05:00:23.568Z,7,GR86-028-89,3.4000000000000004,0.083,0.024,100.06,5.0,,0.0,0.0,
2025-08-15T05:00:23.614Z,7,GR86-028-89,3.4000000000000004,0.073,0.054,100.1,5.0,6491.0,0.0,0.0,
2025-08-15T05:00:23.657Z,7,GR86-028-89,3.4000000000000004,0.085,0.037,100.02,5.0,,0.0,0.0,189.65
2025-08-15T05:00:23.700Z,7,GR86-028-89,3.2,0.091,0.053,100.04,5.0,,0.0,0.0,
2025-08-15T05:00:23.744Z,7,GR86-028-89,3.2,0.052,0.034,100.02,5.0,,0.0,0.0,
2025-08-15T05:00:23.787Z,7,GR86-028-89,3.2,0.075,0.058,99.98,5.0,,0.0,0.0,
2025-08-15T05:00:23.831Z,7,GR86-028-89,3.2,0.062,0.069,99.95,5.0,6518.0,0.0,0.0,
2025-08-15T05:00:23.875Z,7,GR86-028-89,3.2,0.067,0.034,99.9,5.0,,0.0,0.0,190.26
2025-08-15T05:00:23.917Z,7,GR86-028-89,2.8000000000000003,0.058,0.044,99.93,5.0,,0.0,0.0,
2025-08-15T05:00:23.960Z,7,GR86-028-89,2.5,0.089,0.054,99.9,5.0,,0.0,0.0,
2025-08-15T05:00:24.005Z,7,GR86-028-89,2.1,0.083,0.08,99.94,5.0,,0.0,0.0,
2025-08-15T05:00:24.048Z,7,GR86-028-89,1.9,0.07,0.073,99.94,5.0,6550.0,0.0,0.0,
2025-08-15T05:00:24.091Z,7,GR86-028-89,1.8,0.074,0.07,99.95,5.0,,0.0,0.0,190.87
2025-08-15T05:00:24.134Z,7,GR86-028-89,1.7000000000000002,0.065,0.055,100.01,5.0,,0.0,0.0,
2025-08-15T05:00:24.177Z,7,GR86-028-89,1.2000000000000002,0.071,0.043,100.03,5.0,,0.0,0.0,
2025-08-15T05:00:24.220Z,7,GR86-028-89,0.8,0.069,0.038,100.07,5.0,,0.0,0.0,
2025-08-15T05:00:24.264Z,7,GR86-028-89,0.6000000000000001,0.099,0.053,100.12,5.0,6570.0,0.0,0.0,
2025-08-15T05:00:24.307Z,7,GR86-028-89,0.6000000000000001,0.085,0.044,100.05,5.0,,0.0,0.0,191.61
2025-08-15T05:00:24.350Z,7,GR86-028-89,0.6000000000000001,0.065,0.026,100.07,5.0,,0.0,0.0,
2025-08-15T05:00:24.394Z,7,GR86-028-89,0.6000000000000001,0.078,0.02,100.08,5.0,,0.0,0.0,
2025-08-15T05:00:24.436Z,7,GR86-028-89,0.6000000000000001,0.058,0.008,100.04,5.0,,0.0,0.0,
2025-08-15T05:00:24.479Z,7,GR86-028-89,0.6000000000000001,0.062,-0.024,100.05,5.0,6586.0,0.0,0.0,
2025-08-15T05:00:24.525Z,7,GR86-028-89,0.7000000000000001,0.088,0.001,100.01,5.0,,0.0,0.0,192.37
2025-08-15T05:00:24.567Z,7,GR86-028-89,0.8,0.085,-0.007,99.95,5.0,,0.0,0.0,
2025-08-15T05:00:24.610Z,7,GR86-028-89,0.8,0.086,-0.008,99.9,5.0,,0.0,0.0,
2025-08-15T05:00:24.654Z,7,GR86-028-89,0.9,0.07,-0.01,99.89,5.0,,0.0,0.0,
2025-08-15T05:00:24.696Z,7,GR86-028-89,0.9,0.069,-0.031,99.91,5.0,6611.0,0.0,0.0,
2025-08-15T05:00:24.739Z,7,GR86-028-89,0.8,0.082,-0.03,99.96,5.0,,0.0,0.0,192.92
2025-08-15T05:00:24.784Z,7,GR86-028-89,0.8,0.078,-0.037,99.93,5.0,,0.0,0.0,
2025-08-15T05:00:24.827Z,7,GR86-028-89,1.4,0.08,-0.009,100.0,5.0,,0.0,0.0,
2025-08-15T05:00:24.870Z,7,GR86-028-89,2.1,0.085,-0.01,100.05,5.0,,0.0,0.0,
2025-08-15T05:00:24.914Z,7,GR86-028-89,2.5,0.065,-0.024,100.1,5.0,6642.0,0.0,0.0,
2025-08-15T05:00:24.957Z,7,GR86-028-89,2.7,0.088,-0.032,100.08,5.0,,0.0,0.0,193.46
2025-08-15T05:00:24.999Z,7,GR86-028-89,2.7,0.063,-0.012,100.07,5.0,,0.0,0.0,
2025-08-15T05:00:25.045Z,7,GR86-028-89,2.3000000000000003,0.069,-0.017,100.08,5.0,,0.0,0.0,
2025-08-15T05:00:25.088Z,7,GR86-028-89,2.1,0.068,0.01,100.09,5.0,,0.0,0.0,
2025-08-15T05:00:25.131Z,7,GR86-028-89,2.1,0.066,0.006,100.03,5.0,6655.0,0.0,0.0,
2025-08-15T05:00:25.175Z,7,GR86-028-89,2.2,0.07,0.001,100.01,5.0,,0.0,0.0,194.18
2025-08-15T05:00:25.217Z,7,GR86-028-89,2.4000000000000004,0.078,0.027,100.01,5.0,,0.0,0.0,
2025-08-15T05:00:25.260Z,7,GR86-028-89,3.7,0.08,0.016,99.91,5.0,,0.0,0.0,
2025-08-15T05:00:25.305Z,7,GR86-028-89,6.5,0.071,0.058,99.91,5.0,,0.0,0.0,
2025-08-15T05:00:25.348Z,7,GR86-028-89,7.0,0.069,0.067,99.92,5.0,6678.0,0.0,0.0,
2025-08-15T05:00:25.391Z,7,GR86-028-89,7.0,0.066,0.089,99.95,5.0,,0.0,0.0,194.85
2025-08-15T05:00:25.434Z,7,GR86-028-89,7.0,0.061,0.118,99.96,5.0,,0.0,0.0,
2025-08-15T05:00:25.477Z,7,GR86-028-89,7.2,0.086,0.119,99.95,5.0,,0.0,0.0,
2025-08-15T05:00:25.521Z,7,GR86-028-89,7.4,0.074,0.118,99.98,5.0,,0.0,0.0,
2025-08-15T05:00:25.565Z,7,GR86-028-89,7.5,0.064,0.145,100.06,5.0,6710.0,0.0,0.0,
2025-08-15T05:00:25.607Z,7,GR86-028-89,7.5,0.068,0.178,100.08,5.0,,0.0,0.0,196.25
2025-08-15T05:00:25.650Z,7,GR86-028-89,7.5,0.072,0.203,100.09,5.0,,0.0,0.0,
2025-08-15T05:00:25.694Z,7,GR86-028-89,7.5,0.083,0.227,100.06,5.0,,0.0,0.0,
2025-08-15T05:00:25.737Z,7,GR86-028-89,7.5,0.081,0.208,100.05,5.0,,0.0,0.0,
2025-08-15T05:00:25.779Z,7,GR86-028-89,7.5,0.091,0.227,100.07,5.0,6729.0,0.0,0.0,
2025-08-15T05:00:25.825Z,7,GR86-028-89,8.0,0.073,0.221,100.01,5.0,,0.0,0.0,197.0
2025-08-15T05:00:25.867Z,7,GR86-028-89,8.1,0.081,0.258,100.0,5.0,,0.0,0.0,
2025-08-15T05:00:25.910Z,7,GR86-028-89,8.1,0.086,0.285,99.95,5.0,,0.0,0.0,
2025-08-15T05:00:25.954Z,7,GR86-028-89,8.1,0.093,0.262,99.92,5.0,,0.0,0.0,
2025-08-15T05:00:25.996Z,7,GR86-028-89,8.0,0.097,0.257,99.91,5.0,6751.0,0.0,0.0,
2025-08-15T05:00:26.039Z,7,GR86-028-89,7.5,0.081,0.262,99.94,5.0,,0.0,0.0,197.74
2025-08-15T05:00:26.084Z,7,GR86-028-89,7.2,0.078,0.235,99.95,5.0,,0.0,0.0,
2025-08-15T05:00:26.127Z,7,GR86-028-89,7.2,0.09,0.242,99.97,5.0,,0.0,0.0,
2025-08-15T05:00:26.171Z,7,GR86-028-89,7.2,0.087,0.237,99.99,5.0,,0.0,0.0,
2025-08-15T05:00:26.214Z,7,GR86-028-89,7.300000000000001,0.087,0.261,100.02,5.0,6809.0,0.0,0.0,
2025-08-15T05:00:26.256Z,7,GR86-028-89,8.3,0.09,0.256,100.07,5.0,,0.0,0.0,198.29
2025-08-15T05:00:26.299Z,7,GR86-028-89,9.6,0.066,0.253,100.08,5.0,,0.0,0.0,
2025-08-15T05:00:26.387Z,7,GR86-028-89,11.5,0.106,0.282,100.08,5.0,,0.0,0.0,
2025-08-15T05:00:26.431Z,7,GR86-028-89,10.9,0.082,0.269,100.07,5.0,6817.0,0.0,0.0,
2025-08-15T05:00:26.474Z,7,GR86-028-89,9.9,0.073,0.304,100.06,5.0,,0.0,0.0,198.99
2025-08-15T05:00:26.517Z,7,GR86-028-89,9.1,0.047,0.293,100.03,5.0,,0.0,0.0,
2025-08-15T05:00:26.560Z,7,GR86-028-89,8.9,0.052,0.285,99.97,5.0,,0.0,0.0,
2025-08-15T05:00:26.605Z,7,GR86-028-89,9.2,0.075,0.289,99.95,5.0,,0.0,0.0,
2025-08-15T05:00:26.648Z,7,GR86-028-89,9.5,0.073,0.319,99.93,5.0,6837.0,0.0,0.0,
2025-08-15T05:00:26.691Z,7,GR86-028-89,9.5,0.081,0.319,99.91,5.0,,0.0,0.0,199.63
2025-08-15T05:00:26.734Z,7,GR86-028-89,9.5,0.076,0.294,99.91,5.0,,0.0,0.0,
2025-08-15T05:00:26.777Z,7,GR86-028-89,9.5,0.061,0.309,99.92,5.0,,0.0,0.0,
2025-08-15T05:00:26.820Z,7,GR86-028-89,9.3,0.055,0.305,99.97,5.0,,0.0,0.0,
2025-08-15T05:00:26.864Z,7,GR86-028-89,8.6,0.056,0.282,100.0,5.0,6860.0,0.0,0.0,
2025-08-15T05:00:26.907Z,7,GR86-028-89,8.6,0.069,0.259,100.06,5.0,,0.0,0.0,200.18
2025-08-15T05:00:26.950Z,7,GR86-028-89,8.6,0.056,0.272,100.11,5.0,,0.0,0.0,
2025-08-15T05:00:26.994Z,7,GR86-028-89,8.6,0.073,0.291,100.08,5.0,,0.0,0.0,
2025-08-15T05:00:27.036Z,7,GR86-028-89,8.6,0.089,0.337,100.1,5.0,,0.0,0.0,
2025-08-15T05:00:27.079Z,7,GR86-028-89,8.8,0.083,0.305,100.04,5.0,6911.0,0.0,0.0,
2025-08-15T05:00:27.125Z,7,GR86-028-89,9.4,0.064,0.32,100.0,5.0,,0.0,0.0,200.57
2025-08-15T05:00:27.168Z,7,GR86-028-89,9.6,0.066,0.295,99.97,5.0,,0.0,0.0,
2025-08-15T05:00:27.214Z,7,GR86-028-89,9.4,0.07,0.317,99.96,5.0,,0.0,0.0,
2025-08-15T05:00:27.257Z,7,GR86-028-89,8.5,0.087,0.309,99.97,5.0,,0.0,0.0,
2025-08-15T05:00:27.300Z,7,GR86-028-89,7.4,0.084,0.301,99.96,5.0,6912.0,0.0,0.0,
2025-08-15T05:00:27.344Z,7,GR86-028-89,6.6000000000000005,0.079,0.248,99.92,5.0,,0.0,0.0,201.42
2025-08-15T05:00:27.387Z,7,GR86-028-89,6.7,0.073,0.254,99.93,5.0,,0.0,0.0,
2025-08-15T05:00:27.431Z,7,GR86-028-89,6.7,0.062,0.241,99.94,5.0,,0.0,0.0,
2025-08-15T05:00:27.475Z,7,GR86-028-89,5.9,0.068,0.238,99.97,5.0,,0.0,0.0,
2025-08-15T05:00:27.517Z,7,GR86-028-89,4.6000000000000005,0.076,0.262,100.04,5.0,6931.0,0.0,0.0,
2025-08-15T05:00:27.560Z,7,GR86-028-89,4.2,0.078,0.236,100.1,5.0,,0.0,0.0,202.05
2025-08-15T05:00:27.605Z,7,GR86-028-89,5.9,0.065,0.194,100.08,5.0,,0.0,0.0,
2025-08-15T05:00:27.691Z,7,GR86-028-89,7.300000000000001,0.057,0.174,100.07,5.0,,0.0,0.0,
2025-08-15T05:00:27.734Z,7,GR86-028-89,7.9,0.053,0.18,100.05,5.0,6943.0,0.0,0.0,
2025-08-15T05:00:27.777Z,7,GR86-028-89,7.5,0.06,0.218,100.02,5.0,,0.0,0.0,202.7
2025-08-15T05:00:27.820Z,7,GR86-028-89,7.1000000000000005,0.075,0.187,99.98,5.0,,0.0,0.0,
2025-08-15T05:00:27.864Z,7,GR86-028-89,7.1000000000000005,0.057,0.216,99.96,5.0,,0.0,0.0,
2025-08-15T05:00:27.907Z,7,GR86-028-89,7.2,0.062,0.184,99.94,5.0,,0.0,0.0,
2025-08-15T05:00:27.950Z,7,GR86-028-89,7.5,0.061,0.231,99.94,5.0,6989.0,0.0,0.0,
2025-08-15T05:00:27.994Z,7,GR86-028-89,7.7,0.069,0.221,99.96,5.0,,4.835,4.93,203.08
2025-08-15T05:00:28.036Z,7,GR86-028-89,7.7,0.026,0.22,99.95,5.0,,9.185,9.25,
2025-08-15T05:00:28.079Z,7,GR86-028-89,7.4,-0.066,0.239,99.94,5.0,,11.095,11.125,
2025-08-15T05:00:28.125Z,7,GR86-028-89,6.4,-0.113,0.259,91.73,5.0,,11.185,11.52,
2025-08-15T05:00:28.167Z,7,GR86-028-89,6.1000000000000005,-0.12,0.272,53.6,5.0,6999.0,11.55,11.675,
2025-08-15T05:00:28.210Z,7,GR86-028-89,5.5,-0.134,0.282,34.47,5.0,,20.63,20.785,203.62
2025-08-15T05:00:28.254Z,7,GR86-028-89,5.2,-0.344,0.278,18.46,5.0,,42.68,42.605,
2025-08-15T05:00:28.296Z,7,GR86-028-89,5.1000000000000005,-0.725,0.26,6.43,5.0,,66.015,65.525,
2025-08-15T05:00:28.339Z,7,GR86-028-89,4.800000000000001,-0.776,0.139,6.01,5.0,,85.44,84.615,
2025-08-15T05:00:28.384Z,7,GR86-028-89,4.4,-0.795,0.207,3.44,5.0,6985.0,102.015,103.645,
2025-08-15T05:00:28.427Z,7,GR86-028-89,5.0,-0.772,0.168,3.08,5.0,,101.145,102.655,197.66
2025-08-15T05:00:28.470Z,7,GR86-028-89,4.6000000000000005,-1.227,0.206,3.18,5.0,,99.65,99.71,
2025-08-15T05:00:28.514Z,7,GR86-028-89,5.0,-1.049,0.11,3.02,5.0,,103.525,103.905,
2025-08-15T05:00:28.557Z,7,GR86-028-89,9.5,-1.167,0.158,3.02,5.0,,106.21,107.585,
2025-08-15T05:00:28.600Z,7,GR86-028-89,12.0,-1.046,0.251,2.99,5.0,6360.0,104.805,106.025,
2025-08-15T05:00:28.644Z,7,GR86-028-89,8.0,-1.105,0.163,3.0,5.0,,106.425,108.71,190.82
2025-08-15T05:00:28.687Z,7,GR86-028-89,7.2,-1.138,0.141,2.96,5.0,,107.49,108.56,
2025-08-15T05:00:28.731Z,7,GR86-028-89,9.8,-1.157,0.203,2.89,5.0,,108.01,109.905,
2025-08-15T05:00:28.775Z,7,GR86-028-89,9.5,-1.025,0.144,2.8000000000000003,5.0,,106.24,107.325,
2025-08-15T05:00:28.817Z,7,GR86-028-89,5.5,-1.072,0.174,2.73,5.0,5788.0,105.525,106.745,
2025-08-15T05:00:28.860Z,7,GR86-028-89,2.7,-0.911,0.11,2.69,5.0,,97.465,98.87,179.19
2025-08-15T05:00:28.906Z,7,GR86-028-89,6.0,-0.839,0.114,2.64,5.0,,65.985,67.725,
2025-08-15T05:00:28.948Z,7,GR86-028-89,6.9,-0.741,0.079,2.64,5.0,,48.265,49.395,
2025-08-15T05:00:28.991Z,7,GR86-028-89,6.7,-0.846,0.094,2.61,5.0,,37.265,38.15,
2025-08-15T05:00:29.034Z,7,GR86-028-89,7.2,-0.789,0.133,2.59,5.0,5605.0,34.335,35.050000000000004,
2025-08-15T05:00:29.077Z,7,GR86-028-89,7.5,-0.845,0.145,2.57,5.0,,35.145,35.585,170.87
2025-08-15T05:00:29.121Z,7,GR86-028-89,7.800000000000001,-0.6940000000000001,0.246,2.5500000000000003,5.0,,36.305,36.87,
2025-08-15T05:00:29.207Z,7,GR86-028-89,3.6,-0.846,0.213,2.54,5.0,,38.805,39.25,
2025-08-15T05:00:29.250Z,7,GR86-028-89,-2.5,-0.833,0.206,2.54,5.0,5663.0,33.055,34.215,
2025-08-15T05:00:29.294Z,7,GR86-028-89,-3.8,-0.763,0.205,2.54,5.0,,32.045,32.96,170.59
2025-08-15T05:00:29.337Z,7,GR86-028-89,-4.9,-0.72,0.225,8.17,5.0,,30.825,31.895,
2025-08-15T05:00:29.379Z,7,GR86-028-89,-4.800000000000001,-0.764,0.207,52.31,5.0,,29.085,30.275,
2025-08-15T05:00:29.425Z,7,GR86-028-89,-3.8,-0.786,0.251,100.25,5.0,,28.615,29.33,
2025-08-15T05:00:29.467Z,7,GR86-028-89,-3.3000000000000003,-0.706,0.239,72.05,4.0,5511.0,28.615,29.33,
2025-08-15T05:00:29.510Z,7,GR86-028-89,-2.0,-0.6970000000000001,0.2,6.13,4.0,,28.0,28.935,169.63
2025-08-15T05:00:29.554Z,7,GR86-028-89,-0.9,-0.884,0.283,4.09,4.0,,25.805,26.6,
2025-08-15T05:00:29.596Z,7,GR86-028-89,0.4,-0.626,0.196,3.6,4.0,,22.645,23.745,
2025-08-15T05:00:29.639Z,7,GR86-028-89,0.6000000000000001,-0.641,0.172,3.26,4.0,,20.63,21.09,
2025-08-15T05:00:29.684Z,7,GR86-028-89,-0.5,-0.5660000000000001,0.172,2.98,4.0,6270.0,19.9,20.6,
2025-08-15T05:00:29.727Z,7,GR86-028-89,-0.8,-0.588,0.094,2.86,4.0,,20.145,20.6,166.73
2025-08-15T05:00:29.770Z,7,GR86-028-89,-0.7000000000000001,-0.618,0.136,2.79,4.0,,21.685,22.095,
2025-08-15T05:00:29.814Z,7,GR86-028-89,0.2,-0.599,0.076,2.76,4.0,,25.515,25.895,
2025-08-15T05:00:29.856Z,7,GR86-028-89,1.7000000000000002,-0.7010000000000001,0.044,2.71,4.0,,29.055,29.21,
2025-08-15T05:00:29.899Z,7,GR86-028-89,3.2,-0.72,0.075,2.68,4.0,6159.0,30.9,31.115,
2025-08-15T05:00:29.945Z,7,GR86-028-89,7.2,-0.731,0.03,41.15,4.0,,32.715,33.055,161.48
2025-08-15T05:00:29.988Z,7,GR86-028-89,10.8,-0.772,0.073,88.14,4.0,,38.15,38.44,
2025-08-15T05:00:30.031Z,7,GR86-028-89,11.9,-0.859,0.077,99.2,3.0,,48.025,48.175,
2025-08-15T05:00:30.074Z,7,GR86-028-89,9.9,-0.895,-0.016,41.68,3.0,,59.515,59.68,
2025-08-15T05:00:30.117Z,7,GR86-028-89,8.4,-0.921,0.087,4.2,3.0,5994.0,76.3,77.08,
2025-08-15T05:00:30.160Z,7,GR86-028-89,9.0,-0.918,0.116,2.78,3.0,,86.22,87.685,157.65
2025-08-15T05:00:30.205Z,7,GR86-028-89,12.2,-0.911,0.069,2.63,3.0,,86.22,87.27,
2025-08-15T05:00:30.248Z,7,GR86-028-89,10.5,-0.907,0.153,2.6,3.0,,91.94,93.435,
2025-08-15T05:00:30.291Z,7,GR86-028-89,11.1,-0.892,0.0,2.57,3.0,,88.89,90.385,
2025-08-15T05:00:30.334Z,7,GR86-028-89,13.4,-0.974,0.093,2.54,3.0,6307.0,86.31,86.995,
2025-08-15T05:00:30.377Z,7,GR86-028-89,14.2,-1.043,0.192,2.6,3.0,,91.15,92.55,145.83
2025-08-15T05:00:30.420Z,7,GR86-028-89,13.7,-0.941,0.085,2.54,3.0,,93.435,94.4,
2025-08-15T05:00:30.464Z,7,GR86-028-89,10.7,-0.992,0.255,2.54,3.0,,91.055,92.095,
2025-08-15T05:00:30.507Z,7,GR86-028-89,10.2,-1.045,0.111,2.53,3.0,,91.225,91.895,
2025-08-15T05:00:30.550Z,7,GR86-028-89,11.4,-1.08,0.166,2.53,3.0,6476.0,90.14,91.055,
2025-08-15T05:00:30.594Z,7,GR86-028-89,11.9,-1.098,0.228,2.53,3.0,,82.375,83.73,141.21
2025-08-15T05:00:30.636Z,7,GR86-028-89,12.2,-1.064,0.198,2.56,3.0,,73.72,75.185,
2025-08-15T05:00:30.679Z,7,GR86-028-89,13.5,-1.087,0.247,2.63,3.0,,69.19,70.515,
2025-08-15T05:00:30.725Z,7,GR86-028-89,14.2,-0.992,0.227,2.59,3.0,,67.235,68.21000000000001,
2025-08-15T05:00:30.768Z,7,GR86-028-89,10.6,-0.912,0.172,20.14,3.0,6094.0,62.0,63.375,
2025-08-15T05:00:30.811Z,7,GR86-028-89,8.4,-0.787,0.138,64.12,2.0,,47.305,48.65,130.79
2025-08-15T05:00:30.854Z,7,GR86-028-89,7.9,-0.882,0.164,20.42,2.0,,30.93,32.015,
2025-08-15T05:00:30.897Z,7,GR86-028-89,2.0,-0.803,0.174,4.55,2.0,,23.745,24.95,
2025-08-15T05:00:30.940Z,7,GR86-028-89,-2.5,-0.559,0.317,4.26,2.0,,26.57,27.71,
2025-08-15T05:00:30.984Z,7,GR86-028-89,-3.1,-0.868,0.193,3.5,2.0,5769.0,37.385,37.83,
2025-08-15T05:00:31.027Z,7,GR86-028-89,-1.4,-0.918,0.229,3.46,2.0,,53.09,54.11,122.83
2025-08-15T05:00:31.071Z,7,GR86-028-89,3.6,-0.94,0.051,3.08,2.0,,69.25,70.0,
2025-08-15T05:00:31.114Z,7,GR86-028-89,8.3,-1.057,0.222,3.12,2.0,,75.78,76.025,
2025-08-15T05:00:31.157Z,7,GR86-028-89,9.6,-0.659,0.427,2.95,2.0,,77.14,78.115,
2025-08-15T05:00:31.200Z,7,GR86-028-89,9.6,-0.857,0.165,2.82,2.0,5867.0,78.3,78.955,
2025-08-15T05:00:31.244Z,7,GR86-028-89,8.1,-0.8300000000000001,0.318,2.83,2.0,,81.49,81.425,116.8
2025-08-15T05:00:31.287Z,7,GR86-028-89,6.9,-0.916,0.236,2.83,2.0,,79.4,79.96000000000001,
2025-08-15T05:00:31.331Z,7,GR86-028-89,5.2,-1.001,0.189,3.13,2.0,,82.62,83.9,
2025-08-15T05:00:31.375Z,7,GR86-028-89,4.2,-1.101,0.272,4.13,2.0,,85.84,86.495,
2025-08-15T05:00:31.417Z,7,GR86-028-89,5.0,-1.187,0.14,4.53,2.0,5998.0,86.815,87.395,
2025-08-15T05:00:31.505Z,7,GR86-028-89,5.2,-0.96,0.133,4.53,2.0,,82.74,83.485,112.6
2025-08-15T05:00:31.548Z,7,GR86-028-89,5.300000000000001,-0.971,0.16,4.59,2.0,,73.34,73.57000000000001,
2025-08-15T05:00:31.591Z,7,GR86-028-89,4.4,-0.991,0.193,4.62,2.0,,63.025,64.0,
2025-08-15T05:00:31.634Z,7,GR86-028-89,4.2,-1.05,0.138,4.74,2.0,5770.0,57.120000000000005,58.615,
2025-08-15T05:00:31.677Z,7,GR86-028-89,4.7,-1.092,0.156,4.8100000000000005,2.0,,55.24,56.4,107.93
2025-08-15T05:00:31.720Z,7,GR86-028-89,5.800000000000001,-1.085,0.159,23.97,2.0,,54.77,55.835,
2025-08-15T05:00:31.764Z,7,GR86-028-89,5.4,-1.057,0.113,36.24,1.0,,54.43,55.18,
2025-08-15T05:00:31.807Z,7,GR86-028-89,5.5,-1.046,0.073,7.67,1.0,,56.31,57.33,
2025-08-15T05:00:31.850Z,7,GR86-028-89,6.300000000000001,-0.866,0.186,7.05,1.0,5510.0,50.1,51.395,
2025-08-15T05:00:31.894Z,7,GR86-028-89,6.300000000000001,-0.891,-0.027,6.68,1.0,,33.555,34.18,101.04
2025-08-15T05:00:31.936Z,7,GR86-028-89,5.300000000000001,-0.902,0.142,6.59,1.0,,22.735,23.395,
2025-08-15T05:00:31.979Z,7,GR86-028-89,4.6000000000000005,-0.604,0.223,6.36,1.0,,15.155,15.99,
2025-08-15T05:00:32.025Z,7,GR86-028-89,6.1000000000000005,-0.547,-0.014,5.1000000000000005,1.0,,13.37,13.995,
2025-08-15T05:00:32.067Z,7,GR86-028-89,6.2,-0.674,0.308,14.82,1.0,6114.0,18.495,19.12,
2025-08-15T05:00:32.110Z,7,GR86-028-89,6.5,-0.739,-0.022,6.6000000000000005,1.0,,23.805,24.555,94.24
2025-08-15T05:00:32.154Z,7,GR86-028-89,7.6,-0.918,0.067,17.580000000000002,1.0,,26.23,27.085,
2025-08-15T05:00:32.196Z,7,GR86-028-89,12.0,-0.722,0.319,20.6,1.0,,27.18,27.925,
2025-08-15T05:00:32.239Z,7,GR86-028-89,16.1,-0.7000000000000001,0.048,17.56,1.0,,24.86,25.635,
2025-08-15T05:00:32.284Z,7,GR86-028-89,23.9,-0.487,0.3,17.69,1.0,6576.0,20.965,21.24,
2025-08-15T05:00:32.327Z,7,GR86-028-89,30.1,-0.543,0.216,17.650000000000002,1.0,,21.27,21.53,94.52
2025-08-15T05:00:32.370Z,7,GR86-028-89,35.6,-0.532,0.274,18.27,1.0,,21.5,21.96,
2025-08-15T05:00:32.414Z,7,GR86-028-89,41.5,-0.313,0.409,17.7,1.0,,21.41,21.805,
2025-08-15T05:00:32.457Z,7,GR86-028-89,48.5,-0.343,0.378,7.54,1.0,,23.425,23.53,
2025-08-15T05:00:32.500Z,7,GR86-028-89,54.900000000000006,-0.441,0.453,7.62,1.0,6848.0,31.39,31.54,
2025-08-15T05:00:32.545Z,7,GR86-028-89,62.1,-0.749,0.45,6.46,1.0,,54.175,53.96,90.4
2025-08-15T05:00:32.587Z,7,GR86-028-89,69.10000000000001,-0.884,0.448,5.69,1.0,,68.655,68.12,
2025-08-15T05:00:32.631Z,7,GR86-028-89,73.3,-0.778,0.645,4.55,1.0,,76.985,76.65,
2025-08-15T05:00:32.675Z,7,GR86-028-89,75.8,-0.8230000000000001,0.611,3.16,1.0,,80.495,80.055,
2025-08-15T05:00:32.717Z,7,GR86-028-89,80.0,-0.895,0.425,2.96,1.0,6236.0,80.16,81.0,
2025-08-15T05:00:32.760Z,7,GR86-028-89,85.2,-0.8,0.739,2.83,1.0,,68.5,70.515,87.51
2025-08-15T05:00:32.805Z,7,GR86-028-89,91.4,-0.775,0.679,2.76,1.0,,51.305,52.86,
2025-08-15T05:00:32.848Z,7,GR86-028-89,94.1,-0.869,0.738,2.73,1.0,,44.91,46.435,
2025-08-15T05:00:32.891Z,7,GR86-028-89,95.0,-0.8320000000000001,0.766,2.7,1.0,,40.835,42.21,
2025-08-15T05:00:32.935Z,7,GR86-028-89,95.5,-0.783,0.724,2.64,1.0,5520.0,32.535000000000004,33.435,
2025-08-15T05:00:32.977Z,7,GR86-028-89,96.0,-0.678,0.793,2.61,1.0,,28.155,29.055,78.87
2025-08-15T05:00:33.021Z,7,GR86-028-89,96.9,-0.666,0.758,2.6,1.0,,27.225,28.035,
2025-08-15T05:00:33.065Z,7,GR86-028-89,97.5,-0.5750000000000001,0.839,2.54,1.0,,23.425,24.2,
2025-08-15T05:00:33.107Z,7,GR86-028-89,97.3,-0.543,0.879,2.51,1.0,,23.485,24.08,
2025-08-15T05:00:33.150Z,7,GR86-028-89,96.4,-0.542,0.847,2.56,1.0,5302.0,22.31,22.905,
2025-08-15T05:00:33.194Z,7,GR86-028-89,91.8,-0.514,0.867,3.08,1.0,,16.740000000000002,17.580000000000002,74.7
2025-08-15T05:00:33.237Z,7,GR86-028-89,81.30000000000001,-0.447,0.881,5.39,1.0,,9.46,10.055,
2025-08-15T05:00:33.279Z,7,GR86-028-89,65.60000000000001,-0.349,0.907,19.48,1.0,,4.93,5.34,
2025-08-15T05:00:33.325Z,7,GR86-028-89,55.0,-0.258,0.864,20.03,1.0,,2.7,3.13,
2025-08-15T05:00:33.367Z,7,GR86-028-89,56.8,-0.183,0.842,20.68,1.0,5043.0,0.0,0.0,
2025-08-15T05:00:33.410Z,7,GR86-028-89,63.3,-0.078,0.876,21.01,1.0,,0.0,0.0,70.82000000000001
2025-08-15T05:00:33.454Z,7,GR86-028-89,73.7,-0.073,0.903,21.25,1.0,,0.0,0.0,
2025-08-15T05:00:33.496Z,7,GR86-028-89,85.0,-0.064,0.937,21.4,1.0,,0.0,0.0,
2025-08-15T05:00:33.539Z,7,GR86-028-89,95.3,0.135,0.946,21.53,1.0,,0.0,0.0,
2025-08-15T05:00:33.584Z,7,GR86-028-89,108.9,0.134,0.954,21.44,1.0,5041.0,0.0,0.0,
2025-08-15T05:00:33.627Z,7,GR86-028-89,116.0,0.129,0.949,20.52,1.0,,0.0,0.0,70.0
2025-08-15T05:00:33.670Z,7,GR86-028-89,121.7,0.097,0.884,16.16,1.0,,0.0,0.0,
2025-08-15T05:00:33.714Z,7,GR86-028-89,125.1,0.054,0.912,12.08,1.0,,0.0,0.0,
2025-08-15T05:00:33.757Z,7,GR86-028-89,126.8,0.051,0.919,6.7,1.0,,0.0,0.0,
2025-08-15T05:00:33.800Z,7,GR86-028-89,127.3,0.003,0.899,6.46,1.0,5326.0,0.0,0.0,
2025-08-15T05:00:33.845Z,7,GR86-028-89,127.3,-0.069,0.959,3.85,1.0,,2.245,2.4250000000000003,69.56
2025-08-15T05:00:33.887Z,7,GR86-028-89,127.3,-0.109,0.929,3.44,1.0,,3.405,3.725,
2025-08-15T05:00:33.931Z,7,GR86-028-89,127.5,-0.162,0.916,3.17,1.0,,6.335,6.455,
2025-08-15T05:00:33.974Z,7,GR86-028-89,127.7,-0.221,0.95,3.03,1.0,,9.125,9.215,
2025-08-15T05:00:34.017Z,7,GR86-028-89,127.7,-0.278,0.96,2.98,1.0,4933.0,10.44,10.68,
2025-08-15T05:00:34.060Z,7,GR86-028-89,127.8,-0.284,0.935,3.63,1.0,,10.865,10.985,69.62
2025-08-15T05:00:34.105Z,7,GR86-028-89,127.8,-0.306,0.942,4.2,1.0,,10.025,10.405,
2025-08-15T05:00:34.148Z,7,GR86-028-89,127.8,-0.4,0.959,19.63,1.0,,4.18,4.595,
2025-08-15T05:00:34.191Z,7,GR86-028-89,127.4,-0.27,1.018,20.32,1.0,,0.0,0.0,
2025-08-15T05:00:34.234Z,7,GR86-028-89,125.9,-0.217,0.996,20.63,1.0,4659.0,0.0,0.0,
2025-08-15T05:00:34.277Z,7,GR86-028-89,121.9,-0.169,1.018,26.46,1.0,,0.0,0.0,68.02
2025-08-15T05:00:34.320Z,7,GR86-028-89,115.4,-0.113,0.991,34.38,1.0,,0.0,0.0,
2025-08-15T05:00:34.364Z,7,GR86-028-89,105.6,-0.113,0.988,47.16,1.0,,0.0,0.0,
2025-08-15T05:00:34.407Z,7,GR86-028-89,98.7,0.108,1.026,59.52,1.0,,0.0,0.0,
2025-08-15T05:00:34.450Z,7,GR86-028-89,93.1,0.185,0.943,61.85,1.0,5138.0,0.0,0.0,
2025-08-15T05:00:34.494Z,7,GR86-028-89,88.4,0.204,0.927,61.39,1.0,,0.0,0.0,66.93
2025-08-15T05:00:34.536Z,7,GR86-028-89,83.5,0.27,0.93,60.16,1.0,,0.0,0.0,
2025-08-15T05:00:34.579Z,7,GR86-028-89,76.2,0.312,0.867,58.63,1.0,,0.0,0.0,
2025-08-15T05:00:34.625Z,7,GR86-028-89,55.7,0.311,0.929,58.28,1.0,,0.0,0.0,
2025-08-15T05:00:34.668Z,7,GR86-028-89,34.0,0.305,0.947,54.99,1.0,5553.0,0.0,0.0,
2025-08-15T05:00:34.711Z,7,GR86-028-89,5.5,0.308,0.924,48.36,1.0,,0.0,0.0,66.35
2025-08-15T05:00:34.754Z,7,GR86-028-89,-21.5,0.319,0.904,43.25,1.0,,0.0,0.0,
2025-08-15T05:00:34.797Z,7,GR86-028-89,-41.6,0.314,0.8150000000000001,38.36,1.0,,0.0,0.0,
2025-08-15T05:00:34.840Z,7,GR86-028-89,-59.3,0.322,0.755,34.79,1.0,,0.0,0.0,
2025-08-15T05:00:34.884Z,7,GR86-028-89,-71.0,0.337,0.752,33.47,1.0,5730.0,0.0,0.0,
2025-08-15T05:00:34.927Z,7,GR86-028-89,-81.0,0.339,0.755,33.1,1.0,,0.0,0.0,67.87
2025-08-15T05:00:34.972Z,7,GR86-028-89,-92.8,0.31,0.743,32.71,1.0,,0.0,0.0,
2025-08-15T05:00:35.017Z,7,GR86-028-89,-102.3,0.283,0.712,32.79,1.0,,0.0,0.0,
2025-08-15T05:00:35.060Z,7,GR86-028-89,-105.5,0.274,0.687,33.06,1.0,,0.0,0.0,
2025-08-15T05:00:35.105Z,7,GR86-028-89,-87.7,0.302,0.6920000000000001,35.45,1.0,5726.0,0.0,0.0,
2025-08-15T05:00:35.148Z,7,GR86-028-89,-62.3,0.31,0.78,37.92,1.0,,0.0,0.0,69.49
2025-08-15T05:00:35.191Z,7,GR86-028-89,-32.300000000000004,0.325,0.846,51.370000000000005,1.0,,0.0,0.0,
2025-08-15T05:00:35.234Z,7,GR86-028-89,-6.7,0.299,0.979,85.08,1.0,,0.0,0.0,
2025-08-15T05:00:35.277Z,7,GR86-028-89,4.5,0.265,0.993,94.79,1.0,,0.0,0.0,
2025-08-15T05:00:35.320Z,7,GR86-028-89,3.9,0.269,0.982,87.52,1.0,5765.0,0.0,0.0,
2025-08-15T05:00:35.364Z,7,GR86-028-89,1.7000000000000002,0.321,0.944,66.11,1.0,,0.0,0.0,70.02
2025-08-15T05:00:35.407Z,7,GR86-028-89,3.2,0.353,0.935,59.34,1.0,,0.0,0.0,
2025-08-15T05:00:35.450Z,7,GR86-028-89,-0.3,0.361,0.908,59.17,1.0,,0.0,0.0,
2025-08-15T05:00:35.494Z,7,GR86-028-89,-6.300000000000001,0.364,0.846,53.33,1.0,,0.0,0.0,
2025-08-15T05:00:35.536Z,7,GR86-028-89,-0.7000000000000001,0.372,0.767,45.77,1.0,6064.0,0.0,0.0,
2025-08-15T05:00:35.579Z,7,GR86-028-89,20.0,0.354,0.801,38.46,1.0,,0.0,0.0,70.62
2025-08-15T05:00:35.625Z,7,GR86-028-89,44.3,0.304,0.895,33.95,1.0,,0.0,0.0,
2025-08-15T05:00:35.667Z,7,GR86-028-89,40.8,0.264,0.975,34.43,1.0,,0.0,0.0,
2025-08-15T05:00:35.710Z,7,GR86-028-89,26.700000000000003,0.243,0.984,34.81,1.0,,0.0,0.0,
2025-08-15T05:00:35.754Z,7,GR86-028-89,17.2,0.224,0.937,34.94,1.0,6207.0,0.0,0.0,
2025-08-15T05:00:35.796Z,7,GR86-028-89,16.5,0.247,0.879,35.07,1.0,,0.0,0.0,72.08
2025-08-15T05:00:35.839Z,7,GR86-028-89,11.9,0.281,0.892,35.93,1.0,,0.0,0.0,
2025-08-15T05:00:35.884Z,7,GR86-028-89,-9.3,0.319,0.874,38.56,1.0,,0.0,0.0,
2025-08-15T05:00:35.927Z,7,GR86-028-89,-25.8,0.327,0.866,38.04,1.0,,0.0,0.0,
2025-08-15T05:00:35.970Z,7,GR86-028-89,-35.5,0.328,0.811,37.64,1.0,6249.0,0.0,0.0,
2025-08-15T05:00:36.014Z,7,GR86-028-89,-40.400000000000006,0.316,0.767,38.86,1.0,,0.0,0.0,75.42
2025-08-15T05:00:36.057Z,7,GR86-028-89,-44.400000000000006,0.325,0.757,41.96,1.0,,0.0,0.0,
2025-08-15T05:00:36.100Z,7,GR86-028-89,-46.0,0.301,0.75,48.27,1.0,,0.0,0.0,
2025-08-15T05:00:36.145Z,7,GR86-028-89,-43.3,0.334,0.765,79.56,1.0,,0.0,0.0,
2025-08-15T05:00:36.187Z,7,GR86-028-89,-37.3,0.343,0.742,100.36,1.0,6187.0,0.0,0.0,
2025-08-15T05:00:36.231Z,7,GR86-028-89,-27.3,0.366,0.741,100.58,1.0,,0.0,0.0,76.71000000000001
2025-08-15T05:00:36.275Z,7,GR86-028-89,-11.6,0.364,0.744,100.6,1.0,,0.0,0.0,
2025-08-15T05:00:36.317Z,7,GR86-028-89,2.8000000000000003,0.39,0.776,100.58,1.0,,0.0,0.0,
2025-08-15T05:00:36.360Z,7,GR86-028-89,8.6,0.405,0.795,100.55,1.0,,0.0,0.0,
2025-08-15T05:00:36.405Z,7,GR86-028-89,5.800000000000001,0.426,0.782,100.54,1.0,6351.0,0.0,0.0,
2025-08-15T05:00:36.448Z,7,GR86-028-89,4.2,0.42,0.761,100.53,1.0,,0.0,0.0,77.24
2025-08-15T05:00:36.491Z,7,GR86-028-89,6.1000000000000005,0.409,0.7030000000000001,100.53,1.0,,0.0,0.0,
2025-08-15T05:00:36.534Z,7,GR86-028-89,8.4,0.403,0.669,100.48,1.0,,0.0,0.0,
2025-08-15T05:00:36.577Z,7,GR86-028-89,6.9,0.399,0.622,100.39,1.0,,0.0,0.0,
2025-08-15T05:00:36.621Z,7,GR86-028-89,2.1,0.4,0.555,100.33,1.0,6334.0,0.0,0.0,
2025-08-15T05:00:36.665Z,7,GR86-028-89,-5.1000000000000005,0.373,0.433,100.27,1.0,,0.0,0.0,79.42
2025-08-15T05:00:36.707Z,7,GR86-028-89,-6.1000000000000005,0.363,0.339,100.17,1.0,,0.0,0.0,
2025-08-15T05:00:36.750Z,7,GR86-028-89,-3.1,0.355,0.271,100.11,1.0,,0.0,0.0,
2025-08-15T05:00:36.794Z,7,GR86-028-89,1.3,0.356,0.215,99.98,1.0,,0.0,0.0,
2025-08-15T05:00:36.837Z,7,GR86-028-89,6.1000000000000005,0.353,0.178,99.94,1.0,6410.0,0.0,0.0,
2025-08-15T05:00:36.879Z,7,GR86-028-89,10.4,0.361,0.139,99.9,1.0,,0.0,0.0,82.04
2025-08-15T05:00:36.926Z,7,GR86-028-89,9.8,0.341,0.117,99.9,1.0,,0.0,0.0,
2025-08-15T05:00:36.968Z,7,GR86-028-89,7.800000000000001,0.338,0.093,99.92,1.0,,0.0,0.0,
2025-08-15T05:00:37.013Z,7,GR86-028-89,6.7,0.315,0.064,99.9,1.0,,0.0,0.0,
2025-08-15T05:00:37.055Z,7,GR86-028-89,5.5,0.337,0.051,99.95,1.0,6547.0,0.0,0.0,
2025-08-15T05:00:37.098Z,7,GR86-028-89,3.5,0.332,0.059,99.91,1.0,,0.0,0.0,84.62
2025-08-15T05:00:37.141Z,7,GR86-028-89,2.6,0.356,0.045,99.91,1.0,,0.0,0.0,
2025-08-15T05:00:37.184Z,7,GR86-028-89,2.1,0.354,0.048,99.95,1.0,,0.0,0.0,
2025-08-15T05:00:37.227Z,7,GR86-028-89,2.1,0.335,0.057,99.94,1.0,,0.0,0.0,
2025-08-15T05:00:37.270Z,7,GR86-028-89,2.1,0.328,0.051,99.97,1.0,6750.0,0.0,0.0,
2025-08-15T05:00:37.314Z,7,GR86-028-89,2.0,0.323,0.057,99.97,1.0,,0.0,0.0,87.01
2025-08-15T05:00:37.357Z,7,GR86-028-89,2.0,0.339,0.051,100.04,1.0,,0.0,0.0,
2025-08-15T05:00:37.444Z,7,GR86-028-89,2.1,0.346,0.055,100.04,1.0,,0.0,0.0,
2025-08-15T05:00:37.487Z,7,GR86-028-89,2.2,0.338,0.03,100.05,1.0,6933.0,0.0,0.0,
2025-08-15T05:00:37.531Z,7,GR86-028-89,2.2,0.342,0.032,100.05,1.0,,0.0,0.0,89.41
2025-08-15T05:00:37.574Z,7,GR86-028-89,2.2,0.301,0.023,100.03,1.0,,0.0,0.0,
2025-08-15T05:00:37.617Z,7,GR86-028-89,2.2,0.295,0.022,100.02,1.0,,0.0,0.0,
2025-08-15T05:00:37.660Z,7,GR86-028-89,2.1,0.312,0.013,100.02,1.0,,0.0,0.0,
2025-08-15T05:00:37.705Z,7,GR86-028-89,2.1,0.347,-0.001,100.0,1.0,7083.0,0.0,0.0,
2025-08-15T05:00:37.748Z,7,GR86-028-89,2.1,0.348,0.001,99.99,1.0,,0.0,0.0,91.73
2025-08-15T05:00:37.791Z,7,GR86-028-89,2.1,0.314,-0.001,99.98,1.0,,0.0,0.0,
2025-08-15T05:00:37.834Z,7,GR86-028-89,2.1,0.302,0.013,99.96,1.0,,0.0,0.0,
2025-08-15T05:00:37.877Z,7,GR86-028-89,2.1,0.295,0.001,100.01,1.0,,0.0,0.0,
2025-08-15T05:00:37.920Z,7,GR86-028-89,2.1,0.266,0.01,99.97,1.0,7239.0,0.0,0.0,
2025-08-15T05:00:37.965Z,7,GR86-028-89,2.1,-0.084,0.038,99.96,2.0,,0.0,0.0,94.03
2025-08-15T05:00:38.007Z,7,GR86-028-89,2.1,0.517,0.036,99.97,2.0,,0.0,0.0,
2025-08-15T05:00:38.050Z,7,GR86-028-89,2.2,0.668,-0.072,99.96,2.0,,0.0,0.0,
2025-08-15T05:00:38.094Z,7,GR86-028-89,1.8,0.627,-0.016,99.96,2.0,,0.0,0.0,
2025-08-15T05:00:38.136Z,7,GR86-028-89,1.8,0.406,0.066,99.98,2.0,6810.0,0.0,0.0,
2025-08-15T05:00:38.179Z,7,GR86-028-89,1.7000000000000002,0.176,-0.082,99.96,2.0,,0.0,0.0,96.27
2025-08-15T05:00:38.225Z,7,GR86-028-89,1.7000000000000002,0.161,0.05,99.99,2.0,,0.0,0.0,
2025-08-15T05:00:38.268Z,7,GR86-028-89,1.7000000000000002,0.262,-0.05,100.0,2.0,,0.0,0.0,
2025-08-15T05:00:38.311Z,7,GR86-028-89,2.0,0.312,-0.041,99.99,2.0,,0.0,0.0,
2025-08-15T05:00:38.354Z,7,GR86-028-89,2.0,0.316,0.013,100.02,2.0,5674.0,0.0,0.0,
2025-08-15T05:00:38.397Z,7,GR86-028-89,2.1,0.283,-0.025,100.02,2.0,,0.0,0.0,98.2
2025-08-15T05:00:38.440Z,7,GR86-028-89,2.4000000000000004,0.253,-0.019,100.02,2.0,,0.0,0.0,
2025-08-15T05:00:38.484Z,7,GR86-028-89,2.7,0.252,0.024,100.01,2.0,,0.0,0.0,
2025-08-15T05:00:38.527Z,7,GR86-028-89,3.0,0.264,-0.006,100.02,2.0,,0.0,0.0,
2025-08-15T05:00:38.571Z,7,GR86-028-89,3.0,0.281,0.006,100.02,2.0,5913.0,0.0,0.0,
2025-08-15T05:00:38.614Z,7,GR86-028-89,2.4000000000000004,0.273,0.032,100.01,2.0,,0.0,0.0,102.23
2025-08-15T05:00:38.657Z,7,GR86-028-89,2.4000000000000004,0.272,-0.003,100.0,2.0,,0.0,0.0,
2025-08-15T05:00:38.700Z,7,GR86-028-89,2.4000000000000004,0.259,0.032,99.99,2.0,,0.0,0.0,
2025-08-15T05:00:38.744Z,7,GR86-028-89,2.2,0.267,0.022,100.01,2.0,,0.0,0.0,
2025-08-15T05:00:38.787Z,7,GR86-028-89,2.1,0.288,0.011,99.99,2.0,6025.0,0.0,0.0,
2025-08-15T05:00:38.831Z,7,GR86-028-89,2.1,0.264,0.037,100.01,2.0,,0.0,0.0,103.93
2025-08-15T05:00:38.875Z,7,GR86-028-89,2.2,0.259,0.012,100.01,2.0,,0.0,0.0,
2025-08-15T05:00:38.917Z,7,GR86-028-89,3.0,0.248,0.016,100.0,2.0,,0.0,0.0,
2025-08-15T05:00:38.960Z,7,GR86-028-89,7.9,0.255,0.033,100.01,2.0,,0.0,0.0,
2025-08-15T05:00:39.005Z,7,GR86-028-89,16.1,0.279,0.074,100.03,2.0,6223.0,0.0,0.0,
2025-08-15T05:00:39.048Z,7,GR86-028-89,18.2,0.278,0.109,100.04,2.0,,0.0,0.0,105.54
2025-08-15T05:00:39.091Z,7,GR86-028-89,18.1,0.261,0.163,100.01,2.0,,0.0,0.0,
2025-08-15T05:00:39.134Z,7,GR86-028-89,17.5,0.269,0.167,99.99,2.0,,0.0,0.0,
2025-08-15T05:00:39.177Z,7,GR86-028-89,17.2,0.252,0.206,100.01,2.0,,0.0,0.0,
2025-08-15T05:00:39.220Z,7,GR86-028-89,17.2,0.272,0.229,100.01,2.0,6297.0,0.0,0.0,
2025-08-15T05:00:39.264Z,7,GR86-028-89,16.2,0.272,0.258,100.01,2.0,,0.0,0.0,107.15
2025-08-15T05:00:39.307Z,7,GR86-028-89,15.0,0.254,0.269,99.99,2.0,,0.0,0.0,
2025-08-15T05:00:39.350Z,7,GR86-028-89,12.2,0.263,0.293,99.98,2.0,,0.0,0.0,
2025-08-15T05:00:39.394Z,7,GR86-028-89,6.9,0.27,0.284,100.01,2.0,,0.0,0.0,
2025-08-15T05:00:39.436Z,7,GR86-028-89,-0.2,0.253,0.279,99.99,2.0,6396.0,0.0,0.0,
2025-08-15T05:00:39.479Z,7,GR86-028-89,-6.9,0.281,0.235,99.99,2.0,,0.0,0.0,108.64
2025-08-15T05:00:39.525Z,7,GR86-028-89,-12.8,0.27,0.132,99.97,2.0,,0.0,0.0,
2025-08-15T05:00:39.567Z,7,GR86-028-89,-14.8,0.25,0.069,100.01,2.0,,0.0,0.0,
2025-08-15T05:00:39.610Z,7,GR86-028-89,-15.6,0.257,0.016,99.96,2.0,,0.0,0.0,
2025-08-15T05:00:39.654Z,7,GR86-028-89,-17.7,0.257,-0.061,100.0,2.0,6459.0,0.0,0.0,
2025-08-15T05:00:39.696Z,7,GR86-028-89,-21.3,0.248,-0.113,99.98,2.0,,0.0,0.0,110.16
2025-08-15T05:00:39.739Z,7,GR86-028-89,-27.1,0.259,-0.184,100.02,2.0,,0.0,0.0,
2025-08-15T05:00:39.784Z,7,GR86-028-89,-34.7,0.242,-0.336,100.02,2.0,,0.0,0.0,
2025-08-15T05:00:39.827Z,7,GR86-028-89,-35.6,0.227,-0.415,99.98,2.0,,0.0,0.0,
2025-08-15T05:00:39.870Z,7,GR86-028-89,-34.2,0.229,-0.461,100.02,2.0,6547.0,0.0,0.0,
2025-08-15T05:00:39.914Z,7,GR86-028-89,-32.2,0.232,-0.539,99.99,2.0,,0.0,0.0,111.56
2025-08-15T05:00:39.957Z,7,GR86-028-89,-30.200000000000003,0.22,-0.5740000000000001,100.02,2.0,,0.0,0.0,
2025-08-15T05:00:40.000Z,7,GR86-028-89,-28.3,0.23,-0.599,100.04,2.0,,0.0,0.0,
2025-08-15T05:00:40.045Z,7,GR86-028-89,-27.5,0.244,-0.641,100.02,2.0,,0.0,0.0,
2025-08-15T05:00:40.087Z,7,GR86-028-89,-27.5,0.24,-0.65,99.99,2.0,6641.0,0.0,0.0,
2025-08-15T05:00:40.131Z,7,GR86-028-89,-27.4,0.231,-0.646,99.99,2.0,,0.0,0.0,112.85
2025-08-15T05:00:40.175Z,7,GR86-028-89,-26.700000000000003,0.232,-0.645,100.01,2.0,,0.0,0.0,
2025-08-15T05:00:40.217Z,7,GR86-028-89,-25.200000000000003,0.223,-0.648,100.01,2.0,,0.0,0.0,
2025-08-15T05:00:40.260Z,7,GR86-028-89,-22.9,0.23,-0.655,99.99,2.0,,0.0,0.0,
2025-08-15T05:00:40.305Z,7,GR86-028-89,-18.5,0.248,-0.647,99.96,2.0,6710.0,0.0,0.0,
2025-08-15T05:00:40.348Z,7,GR86-028-89,-15.4,0.253,-0.603,99.99,2.0,,0.0,0.0,114.02
2025-08-15T05:00:40.391Z,7,GR86-028-89,-12.2,0.24,-0.5710000000000001,100.02,2.0,,0.0,0.0,
2025-08-15T05:00:40.434Z,7,GR86-028-89,-9.0,0.245,-0.549,100.02,2.0,,0.0,0.0,
2025-08-15T05:00:40.477Z,7,GR86-028-89,-6.0,0.242,-0.509,100.01,2.0,,0.0,0.0,
2025-08-15T05:00:40.521Z,7,GR86-028-89,-2.9000000000000004,0.25,-0.468,100.0,2.0,6769.0,0.0,0.0,
2025-08-15T05:00:40.565Z,7,GR86-028-89,1.2000000000000002,0.251,-0.388,99.99,2.0,,0.0,0.0,115.0
2025-08-15T05:00:40.607Z,7,GR86-028-89,4.3,0.247,-0.329,99.97,2.0,,0.0,0.0,
2025-08-15T05:00:40.650Z,7,GR86-028-89,8.5,0.239,-0.268,99.98,2.0,,0.0,0.0,
2025-08-15T05:00:40.694Z,7,GR86-028-89,12.5,0.253,-0.196,99.98,2.0,,0.0,0.0,
2025-08-15T05:00:40.737Z,7,GR86-028-89,13.6,0.251,-0.101,100.01,2.0,6823.0,0.0,0.0,
2025-08-15T05:00:40.779Z,7,GR86-028-89,13.4,0.236,-0.02,100.0,2.0,,0.0,0.0,116.09
2025-08-15T05:00:40.825Z,7,GR86-028-89,13.3,0.219,0.055,99.99,2.0,,0.0,0.0,
2025-08-15T05:00:40.867Z,7,GR86-028-89,12.9,0.224,0.106,99.98,2.0,,0.0,0.0,
2025-08-15T05:00:40.910Z,7,GR86-028-89,12.0,0.231,0.16,100.0,2.0,,0.0,0.0,
2025-08-15T05:00:40.954Z,7,GR86-028-89,11.1,0.24,0.198,100.05,2.0,6860.0,0.0,0.0,
2025-08-15T05:00:40.996Z,7,GR86-028-89,10.4,0.24,0.225,100.01,2.0,,0.0,0.0,117.28
2025-08-15T05:00:41.084Z,7,GR86-028-89,9.2,0.238,0.255,99.99,2.0,,0.0,0.0,
2025-08-15T05:00:41.127Z,7,GR86-028-89,7.300000000000001,0.254,0.292,99.97,2.0,,0.0,0.0,
2025-08-15T05:00:41.170Z,7,GR86-028-89,7.300000000000001,0.263,0.274,99.98,2.0,6936.0,0.0,0.0,
2025-08-15T05:00:41.214Z,7,GR86-028-89,7.300000000000001,0.258,0.276,99.98,2.0,,0.0,0.0,119.32
2025-08-15T05:00:41.257Z,7,GR86-028-89,7.2,0.26,0.265,99.97,2.0,,0.0,0.0,
2025-08-15T05:00:41.300Z,7,GR86-028-89,6.9,0.237,0.237,99.98,2.0,,0.0,0.0,
2025-08-15T05:00:41.345Z,7,GR86-028-89,6.300000000000001,0.238,0.22,100.01,2.0,,0.0,0.0,
2025-08-15T05:00:41.387Z,7,GR86-028-89,5.7,0.233,0.229,100.01,2.0,7013.0,0.0,0.0,
2025-08-15T05:00:41.431Z,7,GR86-028-89,5.1000000000000005,0.26,0.232,99.99,2.0,,0.0,0.0,120.32
2025-08-15T05:00:41.474Z,7,GR86-028-89,4.800000000000001,0.267,0.207,99.96,2.0,,0.0,0.0,
2025-08-15T05:00:41.517Z,7,GR86-028-89,4.9,0.22,0.197,99.97,2.0,,0.0,0.0,
2025-08-15T05:00:41.560Z,7,GR86-028-89,4.800000000000001,-0.053,0.213,99.97,3.0,,0.0,0.0,
2025-08-15T05:00:41.606Z,7,GR86-028-89,4.800000000000001,0.601,0.169,99.97,3.0,6561.0,0.0,0.0,
2025-08-15T05:00:41.648Z,7,GR86-028-89,4.2,0.438,0.075,99.98,3.0,,0.0,0.0,121.41
2025-08-15T05:00:41.691Z,7,GR86-028-89,2.9000000000000004,0.304,0.194,99.95,3.0,,0.0,0.0,
2025-08-15T05:00:41.734Z,7,GR86-028-89,1.8,0.124,0.176,99.96,3.0,,0.0,0.0,
2025-08-15T05:00:41.777Z,7,GR86-028-89,1.2000000000000002,0.15,0.056,100.0,3.0,,0.0,0.0,
2025-08-15T05:00:41.820Z,7,GR86-028-89,1.3,0.173,0.159,100.01,3.0,5811.0,0.0,0.0,
2025-08-15T05:00:41.864Z,7,GR86-028-89,2.1,0.221,0.065,100.0,3.0,,0.0,0.0,122.3
2025-08-15T05:00:41.907Z,7,GR86-028-89,1.3,0.216,0.107,99.99,3.0,,3.31,3.28,
2025-08-15T05:00:41.950Z,7,GR86-028-89,1.3,0.175,0.096,100.01,3.0,,6.12,6.335,
2025-08-15T05:00:41.994Z,7,GR86-028-89,2.5,0.096,0.051,100.01,3.0,,8.425,8.485,
2025-08-15T05:00:42.036Z,7,GR86-028-89,3.2,0.056,0.078,100.02,3.0,5832.0,9.49,9.43,
2025-08-15T05:00:42.079Z,7,GR86-028-89,3.4000000000000004,0.06,0.087,100.02,3.0,,9.4,9.69,123.22
