timestamp,lap,vehicle_id,steering_angle,accx_can,accy_can,ath,gear,nmot,pbrake_f,pbrake_r,speed
2025-08-14T23:40:32.814Z,5,GR86-036-98,2.8000000000000003,0.084,0.062,99.86,4.0,,0.0,0.0,
2025-08-14T23:40:32.858Z,5,GR86-036-98,2.8000000000000003,0.129,0.023,99.85,4.0,7001.0,0.0,0.0,
2025-08-14T23:40:32.901Z,5,GR86-036-98,2.8000000000000003,0.099,0.019,99.85,4.0,,0.0,0.0,177.02
2025-08-14T23:40:32.944Z,5,GR86-036-98,2.8000000000000003,0.113,0.009,99.85,4.0,,0.0,0.0,
2025-08-14T23:40:32.989Z,5,GR86-036-98,2.8000000000000003,0.138,0.016,99.86,4.0,,0.0,0.0,
2025-08-14T23:40:33.032Z,5,GR86-036-98,2.8000000000000003,0.133,0.003,99.87,4.0,,0.0,0.0,
2025-08-14T23:40:33.075Z,5,GR86-036-98,2.8000000000000003,0.133,-0.009,99.89,4.0,7030.0,0.0,0.0,
2025-08-14T23:40:33.118Z,5,GR86-036-98,2.8000000000000003,0.144,0.002,99.86,4.0,,0.0,0.0,177.73
2025-08-14T23:40:33.161Z,5,GR86-036-98,2.8000000000000003,0.146,0.006,99.85,4.0,,0.0,0.0,
2025-08-14T23:40:33.248Z,5,GR86-036-98,2.7,0.145,-0.012,99.84,4.0,,0.0,0.0,
2025-08-14T23:40:33.291Z,5,GR86-036-98,2.7,0.082,0.002,99.88,4.0,7066.0,0.0,0.0,
2025-08-14T23:40:33.334Z,5,GR86-036-98,2.7,0.086,-0.004,99.88,4.0,,0.0,0.0,178.43
2025-08-14T23:40:33.378Z,5,GR86-036-98,2.7,0.074,0.005,99.86,4.0,,0.0,0.0,
2025-08-14T23:40:33.464Z,5,GR86-036-98,2.7,0.088,0.007,99.85,4.0,,0.0,0.0,
2025-08-14T23:40:33.508Z,5,GR86-036-98,2.7,0.124,0.036,99.89,4.0,7093.0,0.0,0.0,
2025-08-14T23:40:33.552Z,5,GR86-036-98,2.7,0.156,0.025,99.86,4.0,,0.0,0.0,179.21
2025-08-14T23:40:33.595Z,5,GR86-036-98,2.6,0.122,0.014,99.85,4.0,,0.0,0.0,
2025-08-14T23:40:33.638Z,5,GR86-036-98,2.6,0.132,0.015,99.83,4.0,,0.0,0.0,
2025-08-14T23:40:33.681Z,5,GR86-036-98,2.6,0.117,-0.005,99.84,4.0,,0.0,0.0,
2025-08-14T23:40:33.724Z,5,GR86-036-98,2.6,0.156,0.021,99.87,4.0,7127.0,0.0,0.0,
2025-08-14T23:40:33.768Z,5,GR86-036-98,2.5,0.102,0.023,99.85,4.0,,0.0,0.0,179.99
2025-08-14T23:40:33.811Z,5,GR86-036-98,2.5,0.1,0.028,99.87,4.0,,0.0,0.0,
2025-08-14T23:40:33.854Z,5,GR86-036-98,2.5,0.095,0.013,99.87,4.0,,0.0,0.0,
2025-08-14T23:40:33.899Z,5,GR86-036-98,2.5,0.091,0.012,99.86,4.0,,0.0,0.0,
2025-08-14T23:40:33.942Z,5,GR86-036-98,2.5,0.103,0.021,99.87,4.0,7159.0,0.0,0.0,
2025-08-14T23:40:33.985Z,5,GR86-036-98,2.5,0.103,0.021,99.85,4.0,,0.0,0.0,180.77
2025-08-14T23:40:34.028Z,5,GR86-036-98,2.4000000000000004,0.092,-0.008,99.88,4.0,,0.0,0.0,
2025-08-14T23:40:34.071Z,5,GR86-036-98,2.4000000000000004,0.114,0.005,99.84,4.0,,0.0,0.0,
2025-08-14T23:40:34.114Z,5,GR86-036-98,2.4000000000000004,0.101,-0.03,99.85,4.0,,0.0,0.0,
2025-08-14T23:40:34.157Z,5,GR86-036-98,2.4000000000000004,0.104,-0.016,99.86,4.0,7181.0,0.0,0.0,
2025-08-14T23:40:34.200Z,5,GR86-036-98,2.4000000000000004,0.089,-0.017,99.86,4.0,,0.0,0.0,182.28
2025-08-14T23:40:34.243Z,5,GR86-036-98,2.4000000000000004,0.114,-0.001,99.85,4.0,,0.0,0.0,
2025-08-14T23:40:34.288Z,5,GR86-036-98,2.4000000000000004,0.117,-0.003,99.86,4.0,,0.0,0.0,
2025-08-14T23:40:34.331Z,5,GR86-036-98,2.4000000000000004,0.091,-0.011,99.87,4.0,,0.0,0.0,
2025-08-14T23:40:34.374Z,5,GR86-036-98,2.3000000000000003,-0.142,0.023,99.88,5.0,7208.0,0.0,0.0,
2025-08-14T23:40:34.460Z,5,GR86-036-98,2.3000000000000003,0.318,-0.031,99.86,5.0,,0.0,0.0,183.04
2025-08-14T23:40:34.503Z,5,GR86-036-98,2.3000000000000003,0.129,0.041,99.85,5.0,,0.0,0.0,
2025-08-14T23:40:34.547Z,5,GR86-036-98,2.4000000000000004,0.024,0.037,99.88,5.0,,0.0,0.0,
2025-08-14T23:40:34.591Z,5,GR86-036-98,2.4000000000000004,0.102,0.023,99.87,5.0,6307.0,0.0,0.0,
2025-08-14T23:40:34.634Z,5,GR86-036-98,2.3000000000000003,0.095,0.116,99.86,5.0,,0.0,0.0,183.62
2025-08-14T23:40:34.677Z,5,GR86-036-98,2.3000000000000003,0.065,0.052,99.88,5.0,,0.0,0.0,
2025-08-14T23:40:34.720Z,5,GR86-036-98,2.3000000000000003,0.065,0.052,99.85,5.0,,0.0,0.0,
2025-08-14T23:40:34.763Z,5,GR86-036-98,2.4000000000000004,0.095,0.096,99.86,5.0,,0.0,0.0,
2025-08-14T23:40:34.808Z,5,GR86-036-98,2.3000000000000003,0.097,0.057,99.85,5.0,6324.0,0.0,0.0,
2025-08-14T23:40:34.851Z,5,GR86-036-98,2.3000000000000003,0.079,0.108,99.87,5.0,,0.0,0.0,184.13
2025-08-14T23:40:34.894Z,5,GR86-036-98,2.4000000000000004,0.081,0.099,99.85,5.0,,0.0,0.0,
2025-08-14T23:40:34.938Z,5,GR86-036-98,2.3000000000000003,0.074,0.071,99.88,5.0,,0.0,0.0,
2025-08-14T23:40:34.981Z,5,GR86-036-98,2.3000000000000003,0.072,0.093,99.88,5.0,,0.0,0.0,
2025-08-14T23:40:35.024Z,5,GR86-036-98,2.3000000000000003,0.071,0.067,99.88,5.0,6337.0,0.0,0.0,
2025-08-14T23:40:35.068Z,5,GR86-036-98,2.4000000000000004,0.123,0.102,99.85,5.0,,0.0,0.0,184.78
2025-08-14T23:40:35.111Z,5,GR86-036-98,2.3000000000000003,0.12,0.096,99.85,5.0,,0.0,0.0,
2025-08-14T23:40:35.154Z,5,GR86-036-98,2.3000000000000003,0.133,0.073,99.85,5.0,,0.0,0.0,
2025-08-14T23:40:35.199Z,5,GR86-036-98,2.3000000000000003,0.123,0.097,99.86,5.0,,0.0,0.0,
2025-08-14T23:40:35.242Z,5,GR86-036-98,2.4000000000000004,0.129,0.082,99.86,5.0,6349.0,0.0,0.0,
2025-08-14T23:40:35.288Z,5,GR86-036-98,2.3000000000000003,0.062,0.092,99.89,5.0,,0.0,0.0,185.4
2025-08-14T23:40:35.331Z,5,GR86-036-98,2.3000000000000003,0.059,0.068,99.87,5.0,,0.0,0.0,
2025-08-14T23:40:35.374Z,5,GR86-036-98,2.3000000000000003,0.076,0.069,99.84,5.0,,0.0,0.0,
2025-08-14T23:40:35.417Z,5,GR86-036-98,2.3000000000000003,0.075,0.085,99.85,5.0,,0.0,0.0,
2025-08-14T23:40:35.460Z,5,GR86-036-98,2.3000000000000003,0.081,0.061,99.87,5.0,6379.0,0.0,0.0,
2025-08-14T23:40:35.503Z,5,GR86-036-98,2.3000000000000003,0.074,0.049,99.85,5.0,,0.0,0.0,185.98
2025-08-14T23:40:35.548Z,5,GR86-036-98,2.3000000000000003,0.056,0.073,99.85,5.0,,0.0,0.0,
2025-08-14T23:40:35.591Z,5,GR86-036-98,2.4000000000000004,0.076,0.052,99.89,5.0,,0.0,0.0,
2025-08-14T23:40:35.634Z,5,GR86-036-98,2.3000000000000003,0.075,0.065,99.87,5.0,,0.0,0.0,
2025-08-14T23:40:35.678Z,5,GR86-036-98,2.3000000000000003,0.065,0.026,99.87,5.0,6398.0,0.0,0.0,
2025-08-14T23:40:35.721Z,5,GR86-036-98,2.3000000000000003,0.05,0.038,99.85,5.0,,0.0,0.0,186.68
2025-08-14T23:40:35.764Z,5,GR86-036-98,2.3000000000000003,0.054,0.059,99.86,5.0,,0.0,0.0,
2025-08-14T23:40:35.807Z,5,GR86-036-98,2.3000000000000003,0.126,0.045,99.87,5.0,,0.0,0.0,
2025-08-14T23:40:35.850Z,5,GR86-036-98,2.3000000000000003,0.115,0.039,99.85,5.0,,0.0,0.0,
2025-08-14T23:40:35.893Z,5,GR86-036-98,2.3000000000000003,0.123,0.032,99.9,5.0,6416.0,0.0,0.0,
2025-08-14T23:40:35.938Z,5,GR86-036-98,2.3000000000000003,0.101,0.036,99.89,5.0,,0.0,0.0,187.3
2025-08-14T23:40:35.981Z,5,GR86-036-98,2.4000000000000004,0.1,0.039,99.85,5.0,,0.0,0.0,
2025-08-14T23:40:36.024Z,5,GR86-036-98,2.3000000000000003,0.089,0.035,99.87,5.0,,0.0,0.0,
2025-08-14T23:40:36.067Z,5,GR86-036-98,2.3000000000000003,0.104,0.058,99.88,5.0,,0.0,0.0,
2025-08-14T23:40:36.111Z,5,GR86-036-98,2.3000000000000003,0.102,0.029,99.87,5.0,6441.0,0.0,0.0,
2025-08-14T23:40:36.154Z,5,GR86-036-98,2.3000000000000003,0.108,0.03,99.89,5.0,,0.0,0.0,188.04
2025-08-14T23:40:36.199Z,5,GR86-036-98,2.4000000000000004,0.108,0.026,99.86,5.0,,0.0,0.0,
2025-08-14T23:40:36.242Z,5,GR86-036-98,2.3000000000000003,0.093,0.055,99.84,5.0,,0.0,0.0,
2025-08-14T23:40:36.289Z,5,GR86-036-98,2.3000000000000003,0.058,0.031,99.85,5.0,,0.0,0.0,
2025-08-14T23:40:36.332Z,5,GR86-036-98,2.3000000000000003,0.07,0.047,99.88,5.0,6461.0,0.0,0.0,
2025-08-14T23:40:36.375Z,5,GR86-036-98,2.3000000000000003,0.068,0.023,99.87,5.0,,0.0,0.0,188.53
2025-08-14T23:40:36.418Z,5,GR86-036-98,2.3000000000000003,0.085,0.045,99.88,5.0,,0.0,0.0,
2025-08-14T23:40:36.461Z,5,GR86-036-98,2.3000000000000003,0.068,0.043,99.88,5.0,,0.0,0.0,
2025-08-14T23:40:36.504Z,5,GR86-036-98,2.4000000000000004,0.067,0.031,99.85,5.0,,0.0,0.0,
2025-08-14T23:40:36.548Z,5,GR86-036-98,2.4000000000000004,0.058,0.041,99.85,5.0,6501.0,0.0,0.0,
2025-08-14T23:40:36.591Z,5,GR86-036-98,2.3000000000000003,0.083,0.002,99.86,5.0,,0.0,0.0,189.93
2025-08-14T23:40:36.634Z,5,GR86-036-98,2.3000000000000003,0.071,0.006,99.89,5.0,,0.0,0.0,
2025-08-14T23:40:36.678Z,5,GR86-036-98,2.3000000000000003,0.063,0.011,99.87,5.0,,0.0,0.0,
2025-08-14T23:40:36.721Z,5,GR86-036-98,2.3000000000000003,0.081,-0.004,99.84,5.0,,0.0,0.0,
2025-08-14T23:40:36.764Z,5,GR86-036-98,2.3000000000000003,0.085,-0.012,99.86,5.0,6502.0,0.0,0.0,
2025-08-14T23:40:36.808Z,5,GR86-036-98,2.3000000000000003,0.075,-0.039,99.87,5.0,,0.0,0.0,190.5
2025-08-14T23:40:36.851Z,5,GR86-036-98,2.3000000000000003,0.052,-0.046,99.86,5.0,,0.0,0.0,
2025-08-14T23:40:36.894Z,5,GR86-036-98,2.3000000000000003,0.074,-0.021,99.86,5.0,,0.0,0.0,
2025-08-14T23:40:36.938Z,5,GR86-036-98,2.2,0.077,-0.038,99.84,5.0,,0.0,0.0,
2025-08-14T23:40:36.981Z,5,GR86-036-98,2.3000000000000003,0.074,-0.032,99.86,5.0,6524.0,0.0,0.0,
2025-08-14T23:40:37.024Z,5,GR86-036-98,2.3000000000000003,0.071,-0.033,99.86,5.0,,0.0,0.0,191.19
2025-08-14T23:40:37.068Z,5,GR86-036-98,2.2,0.034,-0.032,99.87,5.0,,0.0,0.0,
2025-08-14T23:40:37.111Z,5,GR86-036-98,2.2,0.045,0.001,99.87,5.0,,0.0,0.0,
2025-08-14T23:40:37.154Z,5,GR86-036-98,2.2,0.049,0.002,99.84,5.0,,0.0,0.0,
2025-08-14T23:40:37.199Z,5,GR86-036-98,2.2,0.05,0.016,99.85,5.0,6566.0,0.0,0.0,
2025-08-14T23:40:37.242Z,5,GR86-036-98,2.2,0.067,0.012,99.87,5.0,,0.0,0.0,191.78
2025-08-14T23:40:37.288Z,5,GR86-036-98,2.2,0.056,0.037,99.88,5.0,,0.0,0.0,
2025-08-14T23:40:37.331Z,5,GR86-036-98,2.2,0.032,0.04,99.87,5.0,,0.0,0.0,
2025-08-14T23:40:37.374Z,5,GR86-036-98,2.2,0.05,0.026,99.85,5.0,,0.0,0.0,
2025-08-14T23:40:37.417Z,5,GR86-036-98,2.2,0.028,0.029,99.85,5.0,6591.0,0.0,0.0,
2025-08-14T23:40:37.460Z,5,GR86-036-98,2.2,0.038,0.051,99.88,5.0,,0.0,0.0,192.33
2025-08-14T23:40:37.503Z,5,GR86-036-98,2.2,0.057,0.051,99.88,5.0,,0.0,0.0,
2025-08-14T23:40:37.547Z,5,GR86-036-98,2.2,0.07,0.065,99.84,5.0,,0.0,0.0,
2025-08-14T23:40:37.591Z,5,GR86-036-98,2.2,0.049,0.051,99.85,5.0,,0.0,0.0,
2025-08-14T23:40:37.634Z,5,GR86-036-98,2.2,0.025,0.041,99.88,5.0,6602.0,0.0,0.0,
2025-08-14T23:40:37.677Z,5,GR86-036-98,2.2,0.036,0.026,99.86,5.0,,0.0,0.0,193.03
2025-08-14T23:40:37.720Z,5,GR86-036-98,2.2,0.03,0.043,99.87,5.0,,0.0,0.0,
2025-08-14T23:40:37.763Z,5,GR86-036-98,2.2,0.036,0.04,99.84,5.0,,0.0,0.0,
2025-08-14T23:40:37.808Z,5,GR86-036-98,2.2,0.07,0.025,99.86,5.0,,0.0,0.0,
2025-08-14T23:40:37.851Z,5,GR86-036-98,2.2,0.064,0.019,99.85,5.0,6627.0,0.0,0.0,
2025-08-14T23:40:37.894Z,5,GR86-036-98,2.2,0.047,0.023,99.87,5.0,,0.0,0.0,193.57
2025-08-14T23:40:37.938Z,5,GR86-036-98,2.2,0.026,0.028,99.85,5.0,,0.0,0.0,
2025-08-14T23:40:37.981Z,5,GR86-036-98,2.2,0.035,0.04,99.86,5.0,,0.0,0.0,
2025-08-14T23:40:38.024Z,5,GR86-036-98,2.2,0.042,0.033,99.86,5.0,,0.0,0.0,
2025-08-14T23:40:38.068Z,5,GR86-036-98,2.2,0.073,0.012,99.87,5.0,6645.0,0.0,0.0,
2025-08-14T23:40:38.111Z,5,GR86-036-98,2.2,0.073,0.015,99.85,5.0,,2.395,2.58,194.1
2025-08-14T23:40:38.154Z,5,GR86-036-98,2.2,0.039,0.002,99.85,5.0,,4.305,4.09,
2025-08-14T23:40:38.199Z,5,GR86-036-98,2.2,-0.002,0.007,99.88,5.0,,1.955,2.045,
2025-08-14T23:40:38.242Z,5,GR86-036-98,2.2,0.016,0.003,99.87,5.0,,0.0,0.0,
2025-08-14T23:40:38.288Z,5,GR86-036-98,2.2,0.079,-0.032,99.86,5.0,6662.0,0.0,0.0,
2025-08-14T23:40:38.331Z,5,GR86-036-98,2.2,0.076,-0.029,99.87,5.0,,0.0,0.0,194.61
2025-08-14T23:40:38.374Z,5,GR86-036-98,2.1,0.058,-0.024,99.86,5.0,,0.0,0.0,
2025-08-14T23:40:38.417Z,5,GR86-036-98,2.1,0.024,-0.047,99.85,5.0,,0.0,0.0,
2025-08-14T23:40:38.460Z,5,GR86-036-98,2.1,0.026,-0.043,99.87,5.0,,0.0,0.0,
2025-08-14T23:40:38.503Z,5,GR86-036-98,2.0,0.014,-0.064,99.84,5.0,6674.0,0.0,0.0,
2025-08-14T23:40:38.548Z,5,GR86-036-98,2.0,0.07,-0.08,99.86,5.0,,4.6850000000000005,4.835,194.92
2025-08-14T23:40:38.591Z,5,GR86-036-98,2.0,0.014,-0.096,99.85,5.0,,4.18,4.12,
2025-08-14T23:40:38.634Z,5,GR86-036-98,1.9,-0.001,-0.098,99.87,5.0,,0.0,0.0,
2025-08-14T23:40:38.677Z,5,GR86-036-98,1.9,0.037,-0.093,99.83,5.0,,0.0,0.0,
2025-08-14T23:40:38.720Z,5,GR86-036-98,1.9,0.029,-0.109,99.85,5.0,6681.0,0.0,0.0,
2025-08-14T23:40:38.763Z,5,GR86-036-98,1.9,0.029,-0.096,99.85,5.0,,3.465,3.525,195.58
2025-08-14T23:40:38.807Z,5,GR86-036-98,1.9,0.019,-0.11,99.86,5.0,,3.065,2.975,
2025-08-14T23:40:38.850Z,5,GR86-036-98,1.9,0.026,-0.101,99.85,5.0,,0.0,0.0,
2025-08-14T23:40:38.893Z,5,GR86-036-98,1.9,0.04,-0.097,99.86,5.0,,0.0,0.0,
2025-08-14T23:40:38.938Z,5,GR86-036-98,1.9,0.032,-0.08,99.86,5.0,6701.0,0.0,0.0,
2025-08-14T23:40:38.981Z,5,GR86-036-98,1.9,0.035,-0.079,99.86,5.0,,2.395,2.485,195.68
2025-08-14T23:40:39.024Z,5,GR86-036-98,1.9,0.026,-0.06,99.84,5.0,,2.365,2.305,
2025-08-14T23:40:39.067Z,5,GR86-036-98,1.9,0.055,-0.078,99.86,5.0,,0.0,0.0,
2025-08-14T23:40:39.111Z,5,GR86-036-98,1.9,0.043,-0.038,99.87,5.0,,0.0,0.0,
2025-08-14T23:40:39.154Z,5,GR86-036-98,1.9,0.057,-0.028,99.86,5.0,6710.0,0.0,0.0,
2025-08-14T23:40:39.199Z,5,GR86-036-98,1.9,0.044,-0.023,99.86,5.0,,0.0,0.0,196.39
2025-08-14T23:40:39.242Z,5,GR86-036-98,1.8,0.06,-0.007,99.85,5.0,,0.0,0.0,
2025-08-14T23:40:39.288Z,5,GR86-036-98,1.8,0.056,-0.007,99.86,5.0,,0.0,0.0,
2025-08-14T23:40:39.332Z,5,GR86-036-98,1.8,0.054,0.001,99.84,5.0,,0.0,0.0,
2025-08-14T23:40:39.375Z,5,GR86-036-98,1.8,0.045,-0.021,99.85,5.0,6718.0,0.0,0.0,
2025-08-14T23:40:39.418Z,5,GR86-036-98,1.8,0.046,-0.031,99.86,5.0,,0.0,0.0,196.83
2025-08-14T23:40:39.461Z,5,GR86-036-98,1.8,0.073,-0.023,99.86,5.0,,0.0,0.0,
2025-08-14T23:40:39.504Z,5,GR86-036-98,1.8,0.035,-0.04,99.83,5.0,,0.0,0.0,
2025-08-14T23:40:39.548Z,5,GR86-036-98,1.8,0.027,-0.018,99.85,5.0,,0.0,0.0,
2025-08-14T23:40:39.591Z,5,GR86-036-98,1.8,0.071,-0.029,99.86,5.0,6750.0,0.0,0.0,
2025-08-14T23:40:39.634Z,5,GR86-036-98,1.7000000000000002,0.04,-0.015,99.88,5.0,,0.0,0.0,197.18
2025-08-14T23:40:39.677Z,5,GR86-036-98,1.7000000000000002,0.059,-0.039,99.86,5.0,,0.0,0.0,
2025-08-14T23:40:39.721Z,5,GR86-036-98,1.7000000000000002,0.063,-0.034,99.85,5.0,,0.0,0.0,
2025-08-14T23:40:39.764Z,5,GR86-036-98,1.2000000000000002,0.065,-0.053,99.86,5.0,,0.0,0.0,
2025-08-14T23:40:39.809Z,5,GR86-036-98,1.1,0.056,-0.066,99.84,5.0,6779.0,0.0,0.0,
2025-08-14T23:40:39.852Z,5,GR86-036-98,1.1,0.067,-0.049,99.85,5.0,,0.0,0.0,197.55
2025-08-14T23:40:39.895Z,5,GR86-036-98,1.1,0.07,-0.046,99.85,5.0,,0.0,0.0,
2025-08-14T23:40:39.938Z,5,GR86-036-98,1.1,0.073,-0.057,99.87,5.0,,0.0,0.0,
2025-08-14T23:40:39.981Z,5,GR86-036-98,1.1,0.066,-0.059,99.83,5.0,,0.0,0.0,
2025-08-14T23:40:40.024Z,5,GR86-036-98,1.1,0.057,-0.068,99.84,5.0,6766.0,0.0,0.0,
2025-08-14T23:40:40.068Z,5,GR86-036-98,1.0,0.067,-0.059,99.87,5.0,,0.0,0.0,198.03
2025-08-14T23:40:40.111Z,5,GR86-036-98,1.0,0.076,-0.059,99.85,5.0,,0.0,0.0,
2025-08-14T23:40:40.154Z,5,GR86-036-98,1.0,0.075,-0.037,99.85,5.0,,0.0,0.0,
2025-08-14T23:40:40.199Z,5,GR86-036-98,1.0,0.073,-0.024,99.87,5.0,,0.0,0.0,
2025-08-14T23:40:40.242Z,5,GR86-036-98,1.0,0.053,-0.042,99.87,5.0,6793.0,0.0,0.0,
2025-08-14T23:40:40.288Z,5,GR86-036-98,1.0,0.058,-0.031,99.86,5.0,,0.0,0.0,198.49
2025-08-14T23:40:40.331Z,5,GR86-036-98,1.0,0.088,-0.028,99.86,5.0,,0.0,0.0,
2025-08-14T23:40:40.374Z,5,GR86-036-98,1.0,0.078,-0.009,99.86,5.0,,0.0,0.0,
2025-08-14T23:40:40.417Z,5,GR86-036-98,1.0,0.052,-0.028,99.84,5.0,,0.0,0.0,
2025-08-14T23:40:40.460Z,5,GR86-036-98,1.0,0.057,-0.022,99.85,5.0,6799.0,0.0,0.0,
2025-08-14T23:40:40.503Z,5,GR86-036-98,1.0,0.029,0.005,99.85,5.0,,0.0,0.0,198.81
2025-08-14T23:40:40.547Z,5,GR86-036-98,1.0,0.079,0.0,99.85,5.0,,0.0,0.0,
2025-08-14T23:40:40.591Z,5,GR86-036-98,1.0,0.072,0.015,99.85,5.0,,0.0,0.0,
2025-08-14T23:40:40.634Z,5,GR86-036-98,1.0,0.076,0.007,99.87,5.0,,0.0,0.0,
2025-08-14T23:40:40.677Z,5,GR86-036-98,1.0,0.047,0.021,99.87,5.0,6813.0,0.0,0.0,
2025-08-14T23:40:40.720Z,5,GR86-036-98,1.0,0.041,0.017,99.83,5.0,,0.0,0.0,199.31
2025-08-14T23:40:40.763Z,5,GR86-036-98,0.9,0.025,0.025,99.84,5.0,,0.0,0.0,
2025-08-14T23:40:40.808Z,5,GR86-036-98,0.9,0.05,-0.015,99.87,5.0,,0.0,0.0,
2025-08-14T23:40:40.851Z,5,GR86-036-98,0.9,0.056,0.001,99.84,5.0,,0.0,0.0,
2025-08-14T23:40:40.894Z,5,GR86-036-98,0.8,0.038,0.019,99.84,5.0,6830.0,0.0,0.0,
2025-08-14T23:40:40.938Z,5,GR86-036-98,0.8,0.042,-0.033,88.58,5.0,,0.0,0.0,199.7
2025-08-14T23:40:40.981Z,5,GR86-036-98,0.8,0.048,-0.047,39.73,5.0,,0.0,0.0,
2025-08-14T23:40:41.024Z,5,GR86-036-98,0.8,0.053,-0.04,33.21,5.0,,0.0,0.0,
2025-08-14T23:40:41.068Z,5,GR86-036-98,0.8,-0.022,-0.024,4.78,5.0,,3.13,3.25,
2025-08-14T23:40:41.111Z,5,GR86-036-98,0.8,-0.06,-0.02,4.69,5.0,6845.0,6.805,6.655,
2025-08-14T23:40:41.154Z,5,GR86-036-98,0.8,-0.275,-0.056,4.49,5.0,,10.405,10.15,200.31
2025-08-14T23:40:41.199Z,5,GR86-036-98,0.8,-0.308,-0.002,4.25,5.0,,17.275000000000002,17.09,
2025-08-14T23:40:41.242Z,5,GR86-036-98,0.8,-0.625,-0.036,3.97,5.0,,29.895,29.5,
2025-08-14T23:40:41.285Z,5,GR86-036-98,0.8,-0.708,-0.007,3.69,5.0,,44.13,43.14,
2025-08-14T23:40:41.328Z,5,GR86-036-98,0.8,-1.006,-0.009,3.12,5.0,6618.0,63.405,62.305,
2025-08-14T23:40:41.371Z,5,GR86-036-98,0.8,-1.027,0.02,2.85,5.0,,73.05,71.77,200.68
2025-08-14T23:40:41.414Z,5,GR86-036-98,2.2,-0.962,0.0,2.69,5.0,,75.675,75.245,
2025-08-14T23:40:41.459Z,5,GR86-036-98,4.9,-0.809,0.025,2.62,5.0,,62.78,64.215,
2025-08-14T23:40:41.502Z,5,GR86-036-98,5.800000000000001,-0.8310000000000001,0.075,2.56,5.0,,45.935,47.335,
2025-08-14T23:40:41.545Z,5,GR86-036-98,5.9,-0.858,0.046,2.52,5.0,6374.0,37.08,38.21,
2025-08-14T23:40:41.588Z,5,GR86-036-98,5.300000000000001,-0.676,0.1,2.49,5.0,,36.775,36.99,181.66
2025-08-14T23:40:41.631Z,5,GR86-036-98,-3.0,-0.738,0.028,2.47,5.0,,37.355,37.705,
2025-08-14T23:40:41.674Z,5,GR86-036-98,-10.2,-0.751,0.036,2.47,5.0,,38.5,38.9,
2025-08-14T23:40:41.720Z,5,GR86-036-98,-13.0,-0.76,0.023,2.47,5.0,,41.4,41.555,
2025-08-14T23:40:41.763Z,5,GR86-036-98,-13.1,-0.883,-0.006,2.47,5.0,6059.0,45.275,45.335,
2025-08-14T23:40:41.807Z,5,GR86-036-98,-13.0,-0.985,-0.042,2.46,5.0,,48.36,48.555,180.17
2025-08-14T23:40:41.851Z,5,GR86-036-98,-7.1000000000000005,-1.012,-0.019,2.44,5.0,,50.465,50.65,
2025-08-14T23:40:41.894Z,5,GR86-036-98,-0.5,-1.049,-0.061,2.46,5.0,,52.145,52.370000000000005,
2025-08-14T23:40:41.938Z,5,GR86-036-98,3.2,-0.975,-0.05,2.46,5.0,,52.92,53.09,
2025-08-14T23:40:41.981Z,5,GR86-036-98,4.0,-0.919,-0.062,2.46,5.0,5959.0,51.595,52.145,
2025-08-14T23:40:42.024Z,5,GR86-036-98,6.1000000000000005,-0.866,-0.095,21.9,5.0,,43.855,45.155,176.71
2025-08-14T23:40:42.067Z,5,GR86-036-98,12.2,-0.871,-0.12,89.48,5.0,,38.715,39.095,
2025-08-14T23:40:42.110Z,5,GR86-036-98,14.1,-0.719,-0.096,99.79,5.0,,37.05,37.45,
2025-08-14T23:40:42.153Z,5,GR86-036-98,15.3,-0.8190000000000001,-0.187,84.03,4.0,,37.235,37.385,
2025-08-14T23:40:42.196Z,5,GR86-036-98,16.3,-0.956,-0.127,12.21,4.0,5815.0,38.805,39.22,
2025-08-14T23:40:42.242Z,5,GR86-036-98,17.900000000000002,-0.849,-0.012,3.33,4.0,,42.835,43.4,170.41
2025-08-14T23:40:42.289Z,5,GR86-036-98,21.9,-0.905,-0.112,2.76,4.0,,44.775,44.805,
2025-08-14T23:40:42.332Z,5,GR86-036-98,21.9,-0.845,0.113,2.64,4.0,,46.465,46.345,
2025-08-14T23:40:42.375Z,5,GR86-036-98,13.1,-0.847,-0.03,2.5500000000000003,4.0,,44.775,45.46,
2025-08-14T23:40:42.418Z,5,GR86-036-98,3.8,-0.8240000000000001,-0.064,2.53,4.0,6259.0,37.555,38.5,
2025-08-14T23:40:42.461Z,5,GR86-036-98,-1.4,-0.763,-0.063,2.5,4.0,,32.410000000000004,33.25,165.18
2025-08-14T23:40:42.504Z,5,GR86-036-98,-1.6,-0.721,-0.08,2.49,4.0,,31.74,32.105000000000004,
2025-08-14T23:40:42.548Z,5,GR86-036-98,1.8,-0.786,0.031,2.49,4.0,,36.55,36.61,
2025-08-14T23:40:42.591Z,5,GR86-036-98,4.9,-0.806,0.031,2.48,4.0,,41.215,41.14,
2025-08-14T23:40:42.634Z,5,GR86-036-98,5.1000000000000005,-0.882,0.087,2.49,4.0,6065.0,43.17,43.14,
2025-08-14T23:40:42.677Z,5,GR86-036-98,5.1000000000000005,-0.871,0.125,2.48,4.0,,43.855,43.95,159.47
2025-08-14T23:40:42.720Z,5,GR86-036-98,0.9,-0.878,0.078,5.55,4.0,,44.025,44.13,
2025-08-14T23:40:42.763Z,5,GR86-036-98,-2.6,-0.877,0.032,46.25,4.0,,44.055,44.435,
2025-08-14T23:40:42.808Z,5,GR86-036-98,-3.7,-0.886,0.007,99.54,4.0,,43.615,44.025,
2025-08-14T23:40:42.851Z,5,GR86-036-98,-3.8,-0.872,-0.009,90.55,3.0,5726.0,40.395,41.28,
2025-08-14T23:40:42.894Z,5,GR86-036-98,-3.6,-0.87,-0.091,21.57,3.0,,35.555,36.245,153.65
2025-08-14T23:40:42.938Z,5,GR86-036-98,-2.5,-0.809,0.083,3.49,3.0,,34.625,35.435,
2025-08-14T23:40:42.981Z,5,GR86-036-98,-2.5,-0.722,-0.134,3.02,3.0,,32.595,32.78,
2025-08-14T23:40:43.024Z,5,GR86-036-98,-2.5,-0.869,-0.051,2.79,3.0,,29.68,30.075,
2025-08-14T23:40:43.068Z,5,GR86-036-98,-8.1,-0.647,-0.161,2.61,3.0,6393.0,34.87,34.84,
2025-08-14T23:40:43.111Z,5,GR86-036-98,-10.1,-0.834,-0.255,2.53,3.0,,39.845,39.905,147.94
2025-08-14T23:40:43.154Z,5,GR86-036-98,-10.9,-0.868,-0.188,2.5,3.0,,47.55,47.365,
2025-08-14T23:40:43.199Z,5,GR86-036-98,-11.5,-0.974,-0.32,2.49,3.0,,54.98,54.585,
2025-08-14T23:40:43.242Z,5,GR86-036-98,-11.8,-0.94,-0.286,2.49,3.0,,59.39,60.2,
2025-08-14T23:40:43.285Z,5,GR86-036-98,-11.9,-0.89,-0.266,2.49,3.0,6396.0,60.49,61.485,
2025-08-14T23:40:43.328Z,5,GR86-036-98,-11.9,-0.896,-0.367,2.48,3.0,,60.08,60.08,143.14
2025-08-14T23:40:43.371Z,5,GR86-036-98,-11.5,-0.96,-0.316,2.47,3.0,,61.59,62.275,
2025-08-14T23:40:43.414Z,5,GR86-036-98,-9.1,-0.919,-0.412,2.46,3.0,,58.645,59.27,
2025-08-14T23:40:43.457Z,5,GR86-036-98,-8.9,-0.958,-0.344,2.46,3.0,,50.345,51.0,
2025-08-14T23:40:43.500Z,5,GR86-036-98,-11.7,-0.801,-0.298,2.46,3.0,6003.0,39.035,40.025,
2025-08-14T23:40:43.543Z,5,GR86-036-98,-18.2,-0.681,-0.468,2.48,3.0,,28.245,28.9,136.8
2025-08-14T23:40:43.588Z,5,GR86-036-98,-19.9,-0.629,-0.472,2.47,3.0,,19.12,19.67,
2025-08-14T23:40:43.631Z,5,GR86-036-98,-18.4,-0.598,-0.53,2.47,3.0,,17.0,17.365000000000002,
2025-08-14T23:40:43.674Z,5,GR86-036-98,-10.7,-0.482,-0.515,2.47,3.0,,16.77,17.12,
2025-08-14T23:40:43.717Z,5,GR86-036-98,-4.4,-0.474,-0.473,2.47,3.0,5763.0,15.535,15.93,
2025-08-14T23:40:43.803Z,5,GR86-036-98,-1.4,-0.512,-0.499,2.47,3.0,,13.52,13.855,131.4
2025-08-14T23:40:43.847Z,5,GR86-036-98,2.7,-0.44,-0.579,2.47,3.0,,11.87,12.175,
2025-08-14T23:40:43.891Z,5,GR86-036-98,5.300000000000001,-0.37,-0.552,2.46,3.0,,12.21,12.5,
2025-08-14T23:40:43.934Z,5,GR86-036-98,5.6000000000000005,-0.453,-0.502,2.49,3.0,5777.0,12.925,12.985,
2025-08-14T23:40:43.977Z,5,GR86-036-98,-2.6,-0.453,-0.508,2.46,3.0,,13.95,13.95,130.13
2025-08-14T23:40:44.020Z,5,GR86-036-98,-21.1,-0.423,-0.5660000000000001,2.48,3.0,,14.605,14.85,
2025-08-14T23:40:44.063Z,5,GR86-036-98,-37.5,-0.482,-0.636,2.47,3.0,,16.28,16.405,
2025-08-14T23:40:44.108Z,5,GR86-036-98,-48.5,-0.545,-0.6970000000000001,2.46,3.0,,22.815,22.705,
2025-08-14T23:40:44.194Z,5,GR86-036-98,-39.8,-0.639,-0.68,2.47,3.0,,28.52,28.69,124.03
2025-08-14T23:40:44.238Z,5,GR86-036-98,-48.6,-0.642,-0.669,2.49,3.0,5716.0,26.4,26.325,
2025-08-14T23:40:44.324Z,5,GR86-036-98,-20.700000000000003,-0.682,-0.6950000000000001,2.47,3.0,,29.865,30.4,
2025-08-14T23:40:44.368Z,5,GR86-036-98,-22.0,-0.507,-0.764,2.49,3.0,5500.0,11.37,11.905,
2025-08-14T23:40:44.411Z,5,GR86-036-98,-26.1,-0.372,-0.788,2.47,3.0,,2.825,3.22,120.08
2025-08-14T23:40:44.454Z,5,GR86-036-98,-26.700000000000003,-0.262,-0.883,2.47,3.0,,0.0,0.0,
2025-08-14T23:40:44.499Z,5,GR86-036-98,-29.700000000000003,-0.173,-0.884,2.47,3.0,,0.0,0.0,
2025-08-14T23:40:44.542Z,5,GR86-036-98,-35.6,-0.183,-0.891,2.48,3.0,,0.0,0.0,
2025-08-14T23:40:44.588Z,5,GR86-036-98,-36.8,-0.195,-0.947,2.49,3.0,5313.0,0.0,0.0,
2025-08-14T23:40:44.631Z,5,GR86-036-98,-24.700000000000003,-0.185,-0.964,3.08,3.0,,0.0,0.0,118.8
2025-08-14T23:40:44.674Z,5,GR86-036-98,-15.5,-0.153,-0.88,7.890000000000001,3.0,,0.0,0.0,
2025-08-14T23:40:44.803Z,5,GR86-036-98,-15.5,-0.173,-0.863,20.18,3.0,5267.0,0.0,0.0,
2025-08-14T23:40:44.848Z,5,GR86-036-98,-67.3,-0.133,-0.903,6.16,3.0,,0.0,0.0,117.5
2025-08-14T23:40:44.891Z,5,GR86-036-98,-74.4,-0.149,-0.972,4.34,3.0,,0.0,0.0,
2025-08-14T23:40:44.934Z,5,GR86-036-98,-75.8,-0.091,-0.986,3.84,3.0,,0.0,0.0,
2025-08-14T23:40:44.977Z,5,GR86-036-98,-75.9,-0.105,-0.937,3.69,3.0,,0.0,0.0,
2025-08-14T23:40:45.020Z,5,GR86-036-98,-76.2,-0.145,-1.006,3.31,3.0,5306.0,0.0,0.0,
2025-08-14T23:40:45.063Z,5,GR86-036-98,-77.0,-0.124,-0.974,2.89,3.0,,0.0,0.0,115.12
2025-08-14T23:40:45.107Z,5,GR86-036-98,-78.0,-0.295,-0.984,3.83,3.0,,0.0,0.0,
2025-08-14T23:40:45.150Z,5,GR86-036-98,-78.10000000000001,-0.237,-0.961,5.24,3.0,,0.0,0.0,
2025-08-14T23:40:45.193Z,5,GR86-036-98,-78.10000000000001,-0.158,-0.953,7.24,3.0,,0.0,0.0,
2025-08-14T23:40:45.238Z,5,GR86-036-98,-78.30000000000001,-0.207,-0.965,11.08,3.0,5175.0,0.0,0.0,
2025-08-14T23:40:45.281Z,5,GR86-036-98,-78.4,-0.204,-0.991,16.7,3.0,,0.0,0.0,114.71
2025-08-14T23:40:45.324Z,5,GR86-036-98,-78.5,-0.174,-0.994,17.51,3.0,,0.0,0.0,
2025-08-14T23:40:45.367Z,5,GR86-036-98,-78.5,-0.161,-0.97,17.94,3.0,,0.0,0.0,
2025-08-14T23:40:45.410Z,5,GR86-036-98,-78.60000000000001,-0.134,-0.998,18.14,3.0,,0.0,0.0,
2025-08-14T23:40:45.453Z,5,GR86-036-98,-78.60000000000001,-0.128,-0.96,18.5,3.0,5113.0,0.0,0.0,
2025-08-14T23:40:45.496Z,5,GR86-036-98,-78.4,-0.14,-0.987,21.89,3.0,,0.0,0.0,113.28
2025-08-14T23:40:45.539Z,5,GR86-036-98,-69.4,0.014,-0.985,21.96,3.0,,0.0,0.0,
2025-08-14T23:40:45.582Z,5,GR86-036-98,-60.8,-0.015,-0.983,23.16,3.0,,0.0,0.0,
2025-08-14T23:40:45.628Z,5,GR86-036-98,-59.400000000000006,-0.024,-0.994,25.73,3.0,,0.0,0.0,
2025-08-14T23:40:45.671Z,5,GR86-036-98,-62.0,-0.004,-0.989,27.18,3.0,5232.0,0.0,0.0,
2025-08-14T23:40:45.714Z,5,GR86-036-98,-68.2,0.082,-0.927,28.13,3.0,,0.0,0.0,111.8
2025-08-14T23:40:45.758Z,5,GR86-036-98,-73.3,-0.004,-0.905,29.82,3.0,,0.0,0.0,
2025-08-14T23:40:45.801Z,5,GR86-036-98,-77.0,0.049,-0.893,35.28,3.0,,0.0,0.0,
2025-08-14T23:40:45.888Z,5,GR86-036-98,-78.10000000000001,0.039,-1.0,41.57,3.0,5259.0,0.0,0.0,
2025-08-14T23:40:45.931Z,5,GR86-036-98,-78.30000000000001,0.127,-0.891,52.7,3.0,,0.0,0.0,111.22
2025-08-14T23:40:45.974Z,5,GR86-036-98,-78.9,0.138,-0.879,49.33,3.0,,0.0,0.0,
2025-08-14T23:40:46.017Z,5,GR86-036-98,-79.0,0.121,-0.898,42.1,3.0,,0.0,0.0,
2025-08-14T23:40:46.060Z,5,GR86-036-98,-79.2,0.142,-0.912,36.03,3.0,,0.0,0.0,
2025-08-14T23:40:46.103Z,5,GR86-036-98,-79.30000000000001,0.122,-0.957,28.06,3.0,5320.0,0.0,0.0,
2025-08-14T23:40:46.148Z,5,GR86-036-98,-79.60000000000001,0.106,-0.916,21.61,3.0,,0.0,0.0,110.56
2025-08-14T23:40:46.191Z,5,GR86-036-98,-79.7,0.06,-0.959,21.67,3.0,,0.0,0.0,
2025-08-14T23:40:46.234Z,5,GR86-036-98,-79.9,0.042,-0.928,21.67,3.0,,0.0,0.0,
2025-08-14T23:40:46.277Z,5,GR86-036-98,-80.0,-0.025,-0.948,21.67,3.0,,0.0,0.0,
2025-08-14T23:40:46.320Z,5,GR86-036-98,-80.0,-0.012,-0.976,27.91,3.0,5288.0,0.0,0.0,
2025-08-14T23:40:46.363Z,5,GR86-036-98,-80.0,0.009,-0.95,33.4,3.0,,0.0,0.0,110.93
2025-08-14T23:40:46.408Z,5,GR86-036-98,-80.10000000000001,0.026,-0.914,35.07,3.0,,0.0,0.0,
2025-08-14T23:40:46.452Z,5,GR86-036-98,-80.10000000000001,0.045,-0.931,35.64,3.0,,0.0,0.0,
2025-08-14T23:40:46.495Z,5,GR86-036-98,-80.10000000000001,0.107,-0.919,38.2,3.0,,0.0,0.0,
2025-08-14T23:40:46.538Z,5,GR86-036-98,-80.10000000000001,0.075,-0.915,44.59,3.0,5251.0,0.0,0.0,
2025-08-14T23:40:46.581Z,5,GR86-036-98,-80.10000000000001,0.085,-0.958,48.2,3.0,,0.0,0.0,111.84
2025-08-14T23:40:46.624Z,5,GR86-036-98,-80.10000000000001,0.097,-0.958,48.92,3.0,,0.0,0.0,
2025-08-14T23:40:46.668Z,5,GR86-036-98,-80.10000000000001,0.099,-0.993,48.74,3.0,,0.0,0.0,
2025-08-14T23:40:46.711Z,5,GR86-036-98,-78.2,0.092,-0.993,48.79,3.0,,0.0,0.0,
2025-08-14T23:40:46.754Z,5,GR86-036-98,-68.7,0.146,-0.954,49.48,3.0,5331.0,0.0,0.0,
2025-08-14T23:40:46.799Z,5,GR86-036-98,-53.1,0.137,-0.955,57.16,3.0,,0.0,0.0,112.5
2025-08-14T23:40:46.842Z,5,GR86-036-98,-32.1,0.124,-0.959,78.12,3.0,,0.0,0.0,
2025-08-14T23:40:46.888Z,5,GR86-036-98,-3.8,0.165,-0.874,99.45,3.0,,0.0,0.0,
2025-08-14T23:40:46.931Z,5,GR86-036-98,4.3,0.221,-0.798,99.81,3.0,,0.0,0.0,
2025-08-14T23:40:46.974Z,5,GR86-036-98,4.3,0.191,-0.755,99.81,3.0,5407.0,0.0,0.0,
2025-08-14T23:40:47.017Z,5,GR86-036-98,-11.3,0.192,-0.799,99.8,3.0,,0.0,0.0,113.48
2025-08-14T23:40:47.060Z,5,GR86-036-98,-26.5,0.197,-0.9,99.79,3.0,,0.0,0.0,
2025-08-14T23:40:47.103Z,5,GR86-036-98,-36.4,0.175,-0.95,99.82,3.0,,0.0,0.0,
2025-08-14T23:40:47.148Z,5,GR86-036-98,-47.8,0.164,-0.964,99.81,3.0,,0.0,0.0,
2025-08-14T23:40:47.191Z,5,GR86-036-98,-55.1,0.181,-0.938,99.81,3.0,5480.0,0.0,0.0,
2025-08-14T23:40:47.234Z,5,GR86-036-98,-59.7,0.164,-0.972,99.8,3.0,,0.0,0.0,113.78
2025-08-14T23:40:47.277Z,5,GR86-036-98,-60.2,0.152,-0.94,99.82,3.0,,0.0,0.0,
2025-08-14T23:40:47.320Z,5,GR86-036-98,-60.0,0.152,-0.907,99.8,3.0,,0.0,0.0,
2025-08-14T23:40:47.363Z,5,GR86-036-98,-51.1,0.158,-0.903,99.8,3.0,,0.0,0.0,
2025-08-14T23:40:47.408Z,5,GR86-036-98,-34.0,0.19,-0.864,99.81,3.0,5506.0,0.0,0.0,
2025-08-14T23:40:47.451Z,5,GR86-036-98,-24.0,0.176,-0.794,99.82,3.0,,0.0,0.0,114.11
2025-08-14T23:40:47.494Z,5,GR86-036-98,-21.6,0.175,-0.796,99.81,3.0,,0.0,0.0,
2025-08-14T23:40:47.538Z,5,GR86-036-98,-23.3,0.197,-0.797,99.81,3.0,,0.0,0.0,
2025-08-14T23:40:47.581Z,5,GR86-036-98,-34.1,0.186,-0.8170000000000001,99.82,3.0,,0.0,0.0,
2025-08-14T23:40:47.624Z,5,GR86-036-98,-42.3,0.182,-0.8310000000000001,99.8,3.0,5550.0,0.0,0.0,
2025-08-14T23:40:47.668Z,5,GR86-036-98,-44.6,0.174,-0.8130000000000001,99.82,3.0,,0.0,0.0,116.21
2025-08-14T23:40:47.711Z,5,GR86-036-98,-41.900000000000006,0.182,-0.812,99.81,3.0,,0.0,0.0,
2025-08-14T23:40:47.754Z,5,GR86-036-98,-33.800000000000004,0.156,-0.787,99.81,3.0,,0.0,0.0,
2025-08-14T23:40:47.799Z,5,GR86-036-98,-29.5,0.183,-0.772,99.81,3.0,,0.0,0.0,
2025-08-14T23:40:47.842Z,5,GR86-036-98,-29.3,0.21,-0.728,99.81,3.0,5588.0,0.0,0.0,
2025-08-14T23:40:47.888Z,5,GR86-036-98,-29.3,0.206,-0.704,99.81,3.0,,0.0,0.0,116.58
2025-08-14T23:40:47.931Z,5,GR86-036-98,-29.3,0.154,-0.6980000000000001,99.8,3.0,,0.0,0.0,
2025-08-14T23:40:47.974Z,5,GR86-036-98,-27.3,0.17,-0.733,99.83,3.0,,0.0,0.0,
2025-08-14T23:40:48.017Z,5,GR86-036-98,-25.5,0.172,-0.708,99.8,3.0,,0.0,0.0,
2025-08-14T23:40:48.060Z,5,GR86-036-98,-24.700000000000003,0.135,-0.663,99.82,3.0,5639.0,0.0,0.0,
2025-08-14T23:40:48.103Z,5,GR86-036-98,-24.5,0.203,-0.516,99.8,3.0,,0.0,0.0,117.16
2025-08-14T23:40:48.148Z,5,GR86-036-98,-24.5,0.197,-0.599,99.82,3.0,,0.0,0.0,
2025-08-14T23:40:48.191Z,5,GR86-036-98,-24.5,0.214,-0.636,99.82,3.0,,0.0,0.0,
2025-08-14T23:40:48.234Z,5,GR86-036-98,-23.200000000000003,0.219,-0.609,99.81,3.0,,0.0,0.0,
2025-08-14T23:40:48.278Z,5,GR86-036-98,-21.3,0.208,-0.744,99.82,3.0,5707.0,0.0,0.0,
2025-08-14T23:40:48.321Z,5,GR86-036-98,-20.0,0.288,-0.559,99.82,3.0,,0.0,0.0,118.48
2025-08-14T23:40:48.364Z,5,GR86-036-98,-18.0,0.222,-0.526,99.8,3.0,,0.0,0.0,
2025-08-14T23:40:48.408Z,5,GR86-036-98,-15.4,0.092,-0.495,99.8,3.0,,0.0,0.0,
2025-08-14T23:40:48.451Z,5,GR86-036-98,-13.7,0.147,-0.708,99.82,3.0,,0.0,0.0,
2025-08-14T23:40:48.494Z,5,GR86-036-98,-12.4,0.359,-0.612,99.82,3.0,5789.0,0.0,0.0,
2025-08-14T23:40:48.538Z,5,GR86-036-98,-12.3,0.304,-0.855,99.81,3.0,,0.0,0.0,119.76
2025-08-14T23:40:48.581Z,5,GR86-036-98,-12.3,0.394,-0.677,99.81,3.0,,0.0,0.0,
2025-08-14T23:40:48.624Z,5,GR86-036-98,-12.3,0.348,-0.631,99.82,3.0,,0.0,0.0,
2025-08-14T23:40:48.667Z,5,GR86-036-98,-15.7,0.123,-0.65,99.82,3.0,,0.0,0.0,
2025-08-14T23:40:48.710Z,5,GR86-036-98,-20.700000000000003,0.205,-0.5660000000000001,99.81,3.0,5833.0,0.0,0.0,
2025-08-14T23:40:48.753Z,5,GR86-036-98,-26.8,0.264,-0.581,99.81,3.0,,0.0,0.0,121.13
2025-08-14T23:40:48.796Z,5,GR86-036-98,-30.1,0.345,-0.5690000000000001,99.79,3.0,,0.0,0.0,
2025-08-14T23:40:48.842Z,5,GR86-036-98,-30.4,0.306,-0.54,99.8,3.0,,0.0,0.0,
2025-08-14T23:40:48.888Z,5,GR86-036-98,-23.5,0.171,-0.619,99.81,3.0,,0.0,0.0,
2025-08-14T23:40:48.931Z,5,GR86-036-98,-17.0,0.261,-0.678,99.81,3.0,5918.0,0.0,0.0,
2025-08-14T23:40:48.974Z,5,GR86-036-98,-11.9,0.282,-0.591,99.82,3.0,,0.0,0.0,122.09
2025-08-14T23:40:49.017Z,5,GR86-036-98,-10.6,0.251,-0.52,99.81,3.0,,0.0,0.0,
2025-08-14T23:40:49.060Z,5,GR86-036-98,-10.6,0.255,-0.61,99.82,3.0,,0.0,0.0,
2025-08-14T23:40:49.103Z,5,GR86-036-98,-14.8,0.156,-0.397,99.83,3.0,,0.0,0.0,
2025-08-14T23:40:49.148Z,5,GR86-036-98,-21.8,0.229,-0.505,99.82,3.0,5933.0,0.0,0.0,
2025-08-14T23:40:49.191Z,5,GR86-036-98,-21.9,0.245,-0.477,99.82,3.0,,0.0,0.0,124.7
2025-08-14T23:40:49.234Z,5,GR86-036-98,-20.6,0.21,-0.512,99.81,3.0,,0.0,0.0,
2025-08-14T23:40:49.278Z,5,GR86-036-98,-17.7,0.199,-0.483,99.82,3.0,,0.0,0.0,
2025-08-14T23:40:49.321Z,5,GR86-036-98,-17.6,0.123,-0.539,99.81,3.0,,0.0,0.0,
2025-08-14T23:40:49.364Z,5,GR86-036-98,-17.5,0.142,-0.553,99.81,3.0,5987.0,0.0,0.0,
2025-08-14T23:40:49.408Z,5,GR86-036-98,-17.5,0.148,-0.518,99.79,3.0,,0.0,0.0,125.81
2025-08-14T23:40:49.451Z,5,GR86-036-98,-14.1,0.036,-0.632,99.81,3.0,,0.0,0.0,
2025-08-14T23:40:49.494Z,5,GR86-036-98,-12.4,0.314,-0.459,99.8,3.0,,0.0,0.0,
2025-08-14T23:40:49.538Z,5,GR86-036-98,-12.4,0.234,-0.53,99.82,3.0,,0.0,0.0,
2025-08-14T23:40:49.581Z,5,GR86-036-98,-12.4,0.27,-0.459,99.82,3.0,6034.0,0.0,0.0,
2025-08-14T23:40:49.624Z,5,GR86-036-98,-12.4,0.179,-0.354,99.82,3.0,,0.0,0.0,127.35
2025-08-14T23:40:49.668Z,5,GR86-036-98,-12.4,0.226,-0.452,99.82,3.0,,0.0,0.0,
2025-08-14T23:40:49.711Z,5,GR86-036-98,-8.1,0.191,-0.313,99.81,3.0,,0.0,0.0,
2025-08-14T23:40:49.754Z,5,GR86-036-98,-5.300000000000001,0.091,-0.435,99.82,3.0,,0.0,0.0,
2025-08-14T23:40:49.799Z,5,GR86-036-98,-4.1000000000000005,0.185,-0.484,99.81,3.0,6261.0,0.0,0.0,
2025-08-14T23:40:49.842Z,5,GR86-036-98,-4.0,0.239,-0.256,99.8,3.0,,0.0,0.0,128.36
2025-08-14T23:40:49.885Z,5,GR86-036-98,-3.9,0.192,-0.281,99.81,3.0,,0.0,0.0,
2025-08-14T23:40:49.928Z,5,GR86-036-98,-3.9,0.092,-0.304,99.8,3.0,,0.0,0.0,
2025-08-14T23:40:49.971Z,5,GR86-036-98,-2.0,0.283,-0.444,99.82,3.0,,0.0,0.0,
2025-08-14T23:40:50.014Z,5,GR86-036-98,-1.4,0.322,-0.357,99.81,3.0,6385.0,0.0,0.0,
2025-08-14T23:40:50.057Z,5,GR86-036-98,-1.3,0.172,-0.298,99.81,3.0,,0.0,0.0,129.56
2025-08-14T23:40:50.100Z,5,GR86-036-98,-1.3,0.154,-0.291,99.81,3.0,,0.0,0.0,
2025-08-14T23:40:50.143Z,5,GR86-036-98,-1.1,0.175,-0.412,99.84,3.0,,0.0,0.0,
2025-08-14T23:40:50.188Z,5,GR86-036-98,2.4000000000000004,0.141,-0.191,99.83,3.0,,0.0,0.0,
2025-08-14T23:40:50.231Z,5,GR86-036-98,2.8000000000000003,0.131,-0.074,99.81,3.0,6290.0,0.0,0.0,
2025-08-14T23:40:50.274Z,5,GR86-036-98,2.9000000000000004,0.192,-0.022,99.82,3.0,,0.0,0.0,131.87
2025-08-14T23:40:50.317Z,5,GR86-036-98,2.9000000000000004,0.273,-0.023,99.81,3.0,,0.0,0.0,
2025-08-14T23:40:50.360Z,5,GR86-036-98,2.9000000000000004,0.237,0.053,99.83,3.0,,0.0,0.0,
2025-08-14T23:40:50.403Z,5,GR86-036-98,2.9000000000000004,0.116,0.047,99.81,3.0,,0.0,0.0,
2025-08-14T23:40:50.447Z,5,GR86-036-98,3.1,0.287,0.062,99.81,3.0,6409.0,0.0,0.0,
2025-08-14T23:40:50.491Z,5,GR86-036-98,5.800000000000001,0.239,0.162,99.82,3.0,,0.0,0.0,132.74
2025-08-14T23:40:50.534Z,5,GR86-036-98,7.0,0.216,0.151,99.8,3.0,,0.0,0.0,
2025-08-14T23:40:50.577Z,5,GR86-036-98,7.0,0.212,0.16,99.81,3.0,,0.0,0.0,
2025-08-14T23:40:50.621Z,5,GR86-036-98,7.0,0.077,0.19,99.82,3.0,,0.0,0.0,
2025-08-14T23:40:50.664Z,5,GR86-036-98,7.0,0.173,0.255,99.81,3.0,6350.0,0.0,0.0,
2025-08-14T23:40:50.708Z,5,GR86-036-98,7.0,0.243,0.265,99.82,3.0,,0.0,0.0,134.39
2025-08-14T23:40:50.751Z,5,GR86-036-98,7.0,0.159,0.369,99.81,3.0,,0.0,0.0,
2025-08-14T23:40:50.794Z,5,GR86-036-98,7.0,0.219,0.381,99.81,3.0,,0.0,0.0,
2025-08-14T23:40:50.838Z,5,GR86-036-98,7.0,0.281,0.325,99.81,3.0,,0.0,0.0,
2025-08-14T23:40:50.881Z,5,GR86-036-98,7.0,0.233,0.398,99.83,3.0,6591.0,0.0,0.0,
2025-08-14T23:40:50.924Z,5,GR86-036-98,7.0,0.204,0.396,99.82,3.0,,0.0,0.0,135.42000000000002
2025-08-14T23:40:50.968Z,5,GR86-036-98,7.0,0.17,0.365,99.82,3.0,,0.0,0.0,
2025-08-14T23:40:51.011Z,5,GR86-036-98,7.0,0.18,0.35,99.82,3.0,,0.0,0.0,
2025-08-14T23:40:51.054Z,5,GR86-036-98,7.0,0.201,0.281,99.8,3.0,,0.0,0.0,
2025-08-14T23:40:51.099Z,5,GR86-036-98,7.0,0.228,0.256,99.8,3.0,6515.0,0.0,0.0,
2025-08-14T23:40:51.142Z,5,GR86-036-98,7.0,0.217,0.259,99.84,3.0,,0.0,0.0,137.59
2025-08-14T23:40:51.186Z,5,GR86-036-98,7.0,0.203,0.249,99.81,3.0,,0.0,0.0,
2025-08-14T23:40:51.231Z,5,GR86-036-98,7.0,0.207,0.232,99.81,3.0,,0.0,0.0,
2025-08-14T23:40:51.274Z,5,GR86-036-98,7.0,0.196,0.217,99.82,3.0,,0.0,0.0,
2025-08-14T23:40:51.317Z,5,GR86-036-98,5.800000000000001,0.199,0.159,99.83,3.0,6610.0,0.0,0.0,
2025-08-14T23:40:51.360Z,5,GR86-036-98,5.1000000000000005,0.177,0.143,99.81,3.0,,0.0,0.0,138.96
2025-08-14T23:40:51.403Z,5,GR86-036-98,5.1000000000000005,0.213,0.166,99.82,3.0,,0.0,0.0,
2025-08-14T23:40:51.448Z,5,GR86-036-98,5.1000000000000005,0.197,0.125,99.82,3.0,,0.0,0.0,
2025-08-14T23:40:51.491Z,5,GR86-036-98,5.1000000000000005,0.206,0.157,99.82,3.0,,0.0,0.0,
2025-08-14T23:40:51.534Z,5,GR86-036-98,5.1000000000000005,0.204,0.146,99.8,3.0,6692.0,0.0,0.0,
2025-08-14T23:40:51.577Z,5,GR86-036-98,5.1000000000000005,0.186,0.102,99.83,3.0,,0.0,0.0,140.43
2025-08-14T23:40:51.620Z,5,GR86-036-98,5.1000000000000005,0.175,0.082,99.82,3.0,,0.0,0.0,
2025-08-14T23:40:51.663Z,5,GR86-036-98,5.1000000000000005,0.199,0.099,99.82,3.0,,0.0,0.0,
2025-08-14T23:40:51.708Z,5,GR86-036-98,5.1000000000000005,0.178,0.075,99.81,3.0,,0.0,0.0,
2025-08-14T23:40:51.751Z,5,GR86-036-98,5.1000000000000005,0.178,0.097,99.81,3.0,6787.0,0.0,0.0,
2025-08-14T23:40:51.794Z,5,GR86-036-98,5.0,0.196,0.111,99.82,3.0,,0.0,0.0,143.78
2025-08-14T23:40:51.838Z,5,GR86-036-98,5.0,0.205,0.095,99.82,3.0,,0.0,0.0,
2025-08-14T23:40:51.881Z,5,GR86-036-98,5.0,0.189,0.079,99.81,3.0,,0.0,0.0,
2025-08-14T23:40:51.924Z,5,GR86-036-98,5.0,0.175,0.07,99.82,3.0,,0.0,0.0,
2025-08-14T23:40:51.967Z,5,GR86-036-98,4.6000000000000005,0.194,0.055,99.82,3.0,6836.0,0.0,0.0,
2025-08-14T23:40:52.010Z,5,GR86-036-98,3.6,0.15,0.045,99.81,3.0,,0.0,0.0,145.64
2025-08-14T23:40:52.053Z,5,GR86-036-98,2.9000000000000004,0.153,0.044,99.85,3.0,,0.0,0.0,
2025-08-14T23:40:52.096Z,5,GR86-036-98,2.8000000000000003,0.189,0.062,99.82,3.0,,0.0,0.0,
2025-08-14T23:40:52.140Z,5,GR86-036-98,2.8000000000000003,0.232,0.053,99.82,3.0,,0.0,0.0,
2025-08-14T23:40:52.183Z,5,GR86-036-98,2.8000000000000003,0.218,0.01,99.84,3.0,6916.0,0.0,0.0,
2025-08-14T23:40:52.228Z,5,GR86-036-98,2.7,0.195,0.04,99.82,3.0,,0.0,0.0,147.37
2025-08-14T23:40:52.271Z,5,GR86-036-98,2.7,0.199,-0.004,99.83,3.0,,0.0,0.0,
2025-08-14T23:40:52.314Z,5,GR86-036-98,2.7,0.198,-0.002,99.81,3.0,,0.0,0.0,
2025-08-14T23:40:52.358Z,5,GR86-036-98,2.7,0.113,-0.009,99.83,3.0,,0.0,0.0,
2025-08-14T23:40:52.401Z,5,GR86-036-98,2.7,-0.146,0.012,99.83,4.0,6831.0,0.0,0.0,
2025-08-14T23:40:52.444Z,5,GR86-036-98,2.7,0.355,0.04,99.85,4.0,,0.0,0.0,149.16
2025-08-14T23:40:52.488Z,5,GR86-036-98,2.7,0.27,-0.051,99.83,4.0,,0.0,0.0,
2025-08-14T23:40:52.531Z,5,GR86-036-98,2.7,0.151,0.055,99.84,4.0,,0.0,0.0,
2025-08-14T23:40:52.574Z,5,GR86-036-98,2.7,0.063,-0.008,99.83,4.0,,0.0,0.0,
2025-08-14T23:40:52.660Z,5,GR86-036-98,1.8,0.148,-0.069,99.83,4.0,5930.0,0.0,0.0,150.70000000000002
2025-08-14T23:40:52.703Z,5,GR86-036-98,0.8,0.163,-0.073,99.83,4.0,,0.0,0.0,
2025-08-14T23:40:52.748Z,5,GR86-036-98,0.8,0.16,-0.062,99.85,4.0,,0.0,0.0,
2025-08-14T23:40:52.791Z,5,GR86-036-98,0.8,0.132,-0.075,99.85,4.0,,0.0,0.0,
2025-08-14T23:40:52.921Z,5,GR86-036-98,0.7000000000000001,0.112,-0.065,99.84,4.0,6048.0,0.0,0.0,152.44
2025-08-14T23:40:52.964Z,5,GR86-036-98,0.7000000000000001,0.133,-0.102,99.85,4.0,,0.0,0.0,
2025-08-14T23:40:53.009Z,5,GR86-036-98,0.7000000000000001,0.138,-0.084,99.85,4.0,,0.0,0.0,
2025-08-14T23:40:53.052Z,5,GR86-036-98,0.7000000000000001,0.141,-0.113,99.83,4.0,6139.0,0.0,0.0,
2025-08-14T23:40:53.095Z,5,GR86-036-98,0.2,0.127,-0.122,99.85,4.0,,3.065,3.34,153.94
2025-08-14T23:40:53.138Z,5,GR86-036-98,-0.1,0.114,-0.134,99.83,4.0,,4.5,4.53,
2025-08-14T23:40:53.181Z,5,GR86-036-98,-0.1,0.065,-0.161,99.85,4.0,,1.955,2.045,
2025-08-14T23:40:53.224Z,5,GR86-036-98,-0.1,0.12,-0.143,99.81,4.0,,0.0,0.0,
2025-08-14T23:40:53.268Z,5,GR86-036-98,-0.1,0.119,-0.158,99.84,4.0,6175.0,0.0,0.0,
2025-08-14T23:40:53.311Z,5,GR86-036-98,-0.1,0.137,-0.147,99.85,4.0,,3.435,3.725,155.51
2025-08-14T23:40:53.354Z,5,GR86-036-98,-0.1,0.124,-0.121,99.83,4.0,,4.15,4.0600000000000005,
2025-08-14T23:40:53.399Z,5,GR86-036-98,-0.1,0.063,-0.126,99.83,4.0,,2.4250000000000003,2.395,
2025-08-14T23:40:53.442Z,5,GR86-036-98,-0.1,0.113,-0.098,99.84,4.0,,0.0,0.0,
2025-08-14T23:40:53.488Z,5,GR86-036-98,-0.1,0.132,-0.111,99.84,4.0,6228.0,0.0,0.0,
2025-08-14T23:40:53.531Z,5,GR86-036-98,-0.1,0.14,-0.083,99.85,4.0,,0.0,0.0,156.84
2025-08-14T23:40:53.574Z,5,GR86-036-98,-1.8,0.152,-0.08,99.82,4.0,,0.0,0.0,
2025-08-14T23:40:53.617Z,5,GR86-036-98,-6.1000000000000005,0.154,-0.091,99.81,4.0,,0.0,0.0,
2025-08-14T23:40:53.660Z,5,GR86-036-98,-8.8,0.145,-0.142,99.85,4.0,,0.0,0.0,
2025-08-14T23:40:53.703Z,5,GR86-036-98,-9.1,0.127,-0.174,99.82,4.0,6280.0,0.0,0.0,
2025-08-14T23:40:53.747Z,5,GR86-036-98,-9.1,0.155,-0.19,99.84,4.0,,0.0,0.0,158.08
2025-08-14T23:40:53.790Z,5,GR86-036-98,-8.700000000000001,0.153,-0.175,99.84,4.0,,0.0,0.0,
2025-08-14T23:40:53.833Z,5,GR86-036-98,-8.700000000000001,0.148,-0.196,99.85,4.0,,0.0,0.0,
2025-08-14T23:40:53.877Z,5,GR86-036-98,-8.700000000000001,0.135,-0.207,99.83,4.0,,0.0,0.0,
2025-08-14T23:40:53.920Z,5,GR86-036-98,-8.700000000000001,0.103,-0.258,99.83,4.0,6335.0,0.0,0.0,
2025-08-14T23:40:53.963Z,5,GR86-036-98,-10.0,0.099,-0.299,99.82,4.0,,0.0,0.0,159.44
2025-08-14T23:40:54.008Z,5,GR86-036-98,-10.0,0.147,-0.318,99.81,4.0,,0.0,0.0,
2025-08-14T23:40:54.051Z,5,GR86-036-98,-7.5,0.135,-0.342,99.85,4.0,,0.0,0.0,
2025-08-14T23:40:54.094Z,5,GR86-036-98,-3.3000000000000003,0.113,-0.332,99.82,4.0,,0.0,0.0,
2025-08-14T23:40:54.137Z,5,GR86-036-98,-2.1,0.107,-0.301,99.85,4.0,6403.0,0.0,0.0,
2025-08-14T23:40:54.181Z,5,GR86-036-98,-2.1,0.092,-0.31,99.85,4.0,,0.0,0.0,160.61
2025-08-14T23:40:54.224Z,5,GR86-036-98,-2.1,0.112,-0.268,99.81,4.0,,0.0,0.0,
2025-08-14T23:40:54.268Z,5,GR86-036-98,-6.2,0.117,-0.287,99.82,4.0,,0.0,0.0,
2025-08-14T23:40:54.311Z,5,GR86-036-98,-6.9,0.107,-0.284,99.85,4.0,,0.0,0.0,
2025-08-14T23:40:54.354Z,5,GR86-036-98,-6.9,0.101,-0.283,99.84,4.0,6440.0,0.0,0.0,
2025-08-14T23:40:54.399Z,5,GR86-036-98,-6.9,0.102,-0.264,99.87,4.0,,0.0,0.0,163.33
2025-08-14T23:40:54.442Z,5,GR86-036-98,-4.9,0.109,-0.21,99.84,4.0,,0.0,0.0,
2025-08-14T23:40:54.531Z,5,GR86-036-98,-4.0,0.125,-0.189,99.84,4.0,,0.0,0.0,
2025-08-14T23:40:54.574Z,5,GR86-036-98,-4.9,0.099,-0.198,99.83,4.0,6498.0,0.0,0.0,
2025-08-14T23:40:54.617Z,5,GR86-036-98,-5.6000000000000005,0.098,-0.209,99.84,4.0,,0.0,0.0,164.63
2025-08-14T23:40:54.660Z,5,GR86-036-98,-5.6000000000000005,0.106,-0.242,69.01,4.0,,2.165,2.275,
2025-08-14T23:40:54.703Z,5,GR86-036-98,-5.6000000000000005,0.103,-0.227,30.73,4.0,,9.49,9.46,
2025-08-14T23:40:54.748Z,5,GR86-036-98,-5.6000000000000005,-0.176,-0.227,4.88,4.0,,18.085,17.78,
2025-08-14T23:40:54.791Z,5,GR86-036-98,-5.6000000000000005,-0.373,-0.218,4.76,4.0,6515.0,21.09,20.815,
2025-08-14T23:40:54.834Z,5,GR86-036-98,-4.2,-0.55,-0.159,4.54,4.0,,22.705,22.465,165.91
2025-08-14T23:40:54.877Z,5,GR86-036-98,-2.3000000000000003,-0.589,-0.15,4.25,4.0,,25.895,25.605,
2025-08-14T23:40:54.920Z,5,GR86-036-98,-1.2000000000000002,-0.724,-0.118,3.97,4.0,,35.585,34.84,
2025-08-14T23:40:54.963Z,5,GR86-036-98,-0.7000000000000001,-0.789,-0.069,3.72,4.0,,51.120000000000005,50.07,
2025-08-14T23:40:55.007Z,5,GR86-036-98,-0.4,-1.0,-0.08,3.2,4.0,6197.0,71.43,70.24,
2025-08-14T23:40:55.051Z,5,GR86-036-98,-0.4,-0.942,-0.007,2.91,4.0,,80.68,80.315,162.83
2025-08-14T23:40:55.094Z,5,GR86-036-98,-0.3,-0.8190000000000001,-0.049,2.78,4.0,,75.4,76.805,
2025-08-14T23:40:55.138Z,5,GR86-036-98,0.2,-0.898,-0.06,2.7,4.0,,61.79,63.465,
2025-08-14T23:40:55.181Z,5,GR86-036-98,1.0,-0.952,-0.084,2.65,4.0,,53.96,54.77,
2025-08-14T23:40:55.224Z,5,GR86-036-98,1.0,-0.972,-0.037,2.61,4.0,5447.0,51.15,51.565,
2025-08-14T23:40:55.267Z,5,GR86-036-98,1.0,-0.963,-0.017,2.53,4.0,,57.895,58.215,150.89
2025-08-14T23:40:55.311Z,5,GR86-036-98,-0.9,-1.205,-0.033,2.52,4.0,,62.305,62.245000000000005,
2025-08-14T23:40:55.354Z,5,GR86-036-98,-3.4000000000000004,-1.015,-0.052,2.5,4.0,,64.52,65.525,
2025-08-14T23:40:55.399Z,5,GR86-036-98,-3.7,-1.094,-0.073,2.5,4.0,,58.185,59.085,
2025-08-14T23:40:55.442Z,5,GR86-036-98,-3.8,-0.97,-0.054,2.48,4.0,5605.0,49.64,50.495000000000005,
2025-08-14T23:40:55.485Z,5,GR86-036-98,1.3,-0.929,-0.029,2.47,4.0,,44.435,45.4,145.79
2025-08-14T23:40:55.532Z,5,GR86-036-98,4.0,-0.972,0.003,2.48,4.0,,43.355,44.405,
2025-08-14T23:40:55.575Z,5,GR86-036-98,4.3,-0.919,0.003,37.27,4.0,,43.995,44.085,
2025-08-14T23:40:55.618Z,5,GR86-036-98,4.3,-0.899,0.0,82.04,4.0,,43.825,43.735,
2025-08-14T23:40:55.704Z,5,GR86-036-98,4.2,-0.86,-0.017,99.61,4.0,5320.0,42.865,43.295,141.22
2025-08-14T23:40:55.748Z,5,GR86-036-98,-1.6,-1.032,-0.05,3.96,3.0,,39.125,40.15,
2025-08-14T23:40:55.791Z,5,GR86-036-98,-1.7000000000000002,-0.77,-0.098,3.11,3.0,,39.525,40.09,
2025-08-14T23:40:55.834Z,5,GR86-036-98,3.9,-0.8270000000000001,-0.203,2.81,3.0,,36.305,36.365,
2025-08-14T23:40:55.877Z,5,GR86-036-98,6.300000000000001,-0.715,-0.026,2.67,3.0,5981.0,33.875,34.245,
2025-08-14T23:40:55.920Z,5,GR86-036-98,6.300000000000001,-0.746,-0.097,2.61,3.0,,34.09,34.595,137.28
2025-08-14T23:40:55.963Z,5,GR86-036-98,-0.3,-0.753,-0.118,2.5500000000000003,3.0,,34.81,35.085,
2025-08-14T23:40:56.008Z,5,GR86-036-98,-12.3,-0.79,-0.189,2.52,3.0,,35.68,35.92,
2025-08-14T23:40:56.052Z,5,GR86-036-98,-16.2,-0.783,-0.301,2.51,3.0,,37.42,37.615,
2025-08-14T23:40:56.095Z,5,GR86-036-98,-16.400000000000002,-0.782,-0.272,2.51,3.0,5918.0,38.41,38.775,
2025-08-14T23:40:56.138Z,5,GR86-036-98,-12.6,-0.798,-0.281,2.5,3.0,,37.145,37.74,131.83
2025-08-14T23:40:56.181Z,5,GR86-036-98,-3.8,-0.704,-0.265,2.5,3.0,,34.15,34.78,
2025-08-14T23:40:56.224Z,5,GR86-036-98,8.1,-0.745,-0.199,3.29,3.0,,34.275,34.52,
2025-08-14T23:40:56.268Z,5,GR86-036-98,9.1,-0.63,-0.15,63.49,3.0,,34.9,35.265,
2025-08-14T23:40:56.311Z,5,GR86-036-98,8.3,-0.762,-0.225,98.93,3.0,5632.0,35.205,35.615,
2025-08-14T23:40:56.354Z,5,GR86-036-98,2.4000000000000004,-0.775,-0.243,99.8,3.0,,35.955,36.365,127.71
2025-08-14T23:40:56.399Z,5,GR86-036-98,0.6000000000000001,-0.619,-0.324,71.4,2.0,,34.395,34.99,
2025-08-14T23:40:56.442Z,5,GR86-036-98,0.5,-0.858,-0.279,4.94,2.0,,33.160000000000004,33.77,
2025-08-14T23:40:56.485Z,5,GR86-036-98,0.5,-0.807,-0.187,3.3000000000000003,2.0,,32.99,33.71,
2025-08-14T23:40:56.528Z,5,GR86-036-98,0.5,-0.8250000000000001,-0.352,2.77,2.0,5697.0,28.34,28.72,
2025-08-14T23:40:56.571Z,5,GR86-036-98,-7.2,-0.6930000000000001,-0.201,2.64,2.0,,28.125,28.275,123.22
2025-08-14T23:40:56.614Z,5,GR86-036-98,-18.9,-0.6890000000000001,-0.412,2.5500000000000003,2.0,,28.965,29.33,
2025-08-14T23:40:56.657Z,5,GR86-036-98,-26.700000000000003,-0.664,-0.461,2.5,2.0,,31.955,32.14,
2025-08-14T23:40:56.700Z,5,GR86-036-98,-32.4,-0.762,-0.395,2.49,2.0,,36.805,36.805,
2025-08-14T23:40:56.743Z,5,GR86-036-98,-35.0,-0.767,-0.512,2.47,2.0,6473.0,40.59,40.715,
2025-08-14T23:40:56.788Z,5,GR86-036-98,-35.800000000000004,-0.773,-0.544,2.47,2.0,,41.46,41.795,114.55
2025-08-14T23:40:56.831Z,5,GR86-036-98,-35.9,-0.772,-0.598,2.47,2.0,,38.775,39.43,
2025-08-14T23:40:56.874Z,5,GR86-036-98,-23.8,-0.71,-0.612,2.47,2.0,,34.87,35.585,
2025-08-14T23:40:56.917Z,5,GR86-036-98,-12.6,-0.66,-0.475,2.46,2.0,,33.94,34.03,
2025-08-14T23:40:57.003Z,5,GR86-036-98,-7.5,-0.762,-0.53,2.46,2.0,6181.0,33.465,33.910000000000004,109.77
2025-08-14T23:40:57.047Z,5,GR86-036-98,-11.5,-0.5670000000000001,-0.605,2.47,2.0,,18.585,19.075,
2025-08-14T23:40:57.091Z,5,GR86-036-98,-23.8,-0.526,-0.667,2.47,2.0,,16.055,16.495,
2025-08-14T23:40:57.134Z,5,GR86-036-98,-35.9,-0.505,-0.708,2.47,2.0,,16.025,16.28,
2025-08-14T23:40:57.177Z,5,GR86-036-98,-39.3,-0.535,-0.745,2.46,2.0,5828.0,15.72,16.055,
2025-08-14T23:40:57.220Z,5,GR86-036-98,-36.6,-0.513,-0.794,2.46,2.0,,14.27,14.68,106.98
2025-08-14T23:40:57.263Z,5,GR86-036-98,-20.5,-0.501,-0.854,2.46,2.0,,13.275,13.52,
2025-08-14T23:40:57.308Z,5,GR86-036-98,-2.9000000000000004,-0.479,-0.715,2.46,2.0,,13.855,13.95,
2025-08-14T23:40:57.351Z,5,GR86-036-98,-2.1,-0.496,-0.7020000000000001,2.46,2.0,,14.635,14.785,
2025-08-14T23:40:57.394Z,5,GR86-036-98,-10.0,-0.494,-0.685,2.47,2.0,5616.0,15.125,15.275,
2025-08-14T23:40:57.438Z,5,GR86-036-98,-25.3,-0.512,-0.769,2.47,2.0,,15.335,15.72,103.99
2025-08-14T23:40:57.481Z,5,GR86-036-98,-37.1,-0.465,-0.863,2.46,2.0,,15.245,15.275,
2025-08-14T23:40:57.524Z,5,GR86-036-98,-43.8,-0.486,-0.8290000000000001,2.47,2.0,,13.735,14.175,
2025-08-14T23:40:57.568Z,5,GR86-036-98,-46.7,-0.427,-0.951,2.47,2.0,,3.875,4.24,
2025-08-14T23:40:57.611Z,5,GR86-036-98,-47.8,-0.263,-0.924,2.47,2.0,5438.0,0.0,0.0,
2025-08-14T23:40:57.654Z,5,GR86-036-98,-50.3,-0.254,-0.942,2.47,2.0,,0.0,0.0,100.53
2025-08-14T23:40:57.699Z,5,GR86-036-98,-54.3,-0.207,-0.916,2.47,2.0,,0.0,0.0,
2025-08-14T23:40:57.742Z,5,GR86-036-98,-59.7,-0.208,-0.944,2.47,2.0,,0.0,0.0,
2025-08-14T23:40:57.788Z,5,GR86-036-98,-65.8,-0.204,-0.987,2.47,2.0,,0.0,0.0,
2025-08-14T23:40:57.831Z,5,GR86-036-98,-67.3,-0.203,-0.973,2.47,2.0,5453.0,0.0,0.0,
2025-08-14T23:40:57.874Z,5,GR86-036-98,-68.9,-0.213,-0.973,2.49,2.0,,0.0,0.0,99.27
2025-08-14T23:40:57.917Z,5,GR86-036-98,-72.2,-0.192,-0.924,2.46,2.0,,0.0,0.0,
2025-08-14T23:40:57.960Z,5,GR86-036-98,-76.80000000000001,-0.211,-0.951,2.48,2.0,,0.0,0.0,
2025-08-14T23:40:58.003Z,5,GR86-036-98,-80.30000000000001,-0.205,-0.916,2.47,2.0,,0.0,0.0,
2025-08-14T23:40:58.048Z,5,GR86-036-98,-81.60000000000001,-0.212,-0.969,2.48,2.0,5372.0,0.0,0.0,
2025-08-14T23:40:58.091Z,5,GR86-036-98,-81.60000000000001,-0.213,-0.989,2.46,2.0,,0.0,0.0,97.87
2025-08-14T23:40:58.134Z,5,GR86-036-98,-81.60000000000001,-0.214,-0.997,2.48,2.0,,0.0,0.0,
2025-08-14T23:40:58.177Z,5,GR86-036-98,-81.7,-0.213,-0.986,2.47,2.0,,0.0,0.0,
2025-08-14T23:40:58.221Z,5,GR86-036-98,-81.7,-0.224,-1.027,2.47,2.0,,0.0,0.0,
2025-08-14T23:40:58.264Z,5,GR86-036-98,-81.7,-0.2,-0.989,2.47,2.0,5286.0,0.0,0.0,
2025-08-14T23:40:58.308Z,5,GR86-036-98,-81.9,-0.203,-1.003,2.49,2.0,,0.0,0.0,96.34
2025-08-14T23:40:58.351Z,5,GR86-036-98,-82.2,-0.213,-0.997,2.48,2.0,,0.0,0.0,
2025-08-14T23:40:58.394Z,5,GR86-036-98,-82.2,-0.195,-1.008,2.48,2.0,,0.0,0.0,
2025-08-14T23:40:58.438Z,5,GR86-036-98,-82.30000000000001,-0.207,-0.996,2.48,2.0,,0.0,0.0,
2025-08-14T23:40:58.481Z,5,GR86-036-98,-82.30000000000001,-0.195,-1.011,2.49,2.0,5195.0,0.0,0.0,
2025-08-14T23:40:58.524Z,5,GR86-036-98,-82.30000000000001,-0.206,-1.008,2.5500000000000003,2.0,,0.0,0.0,94.92
2025-08-14T23:40:58.567Z,5,GR86-036-98,-82.4,-0.203,-1.01,4.32,2.0,,0.0,0.0,
2025-08-14T23:40:58.611Z,5,GR86-036-98,-82.4,-0.204,-0.989,10.87,2.0,,0.0,0.0,
2025-08-14T23:40:58.654Z,5,GR86-036-98,-82.4,-0.197,-0.974,20.35,2.0,,0.0,0.0,
2025-08-14T23:40:58.699Z,5,GR86-036-98,-82.4,-0.201,-0.98,22.31,2.0,5093.0,0.0,0.0,
2025-08-14T23:40:58.742Z,5,GR86-036-98,-82.4,-0.163,-1.0,24.75,2.0,,0.0,0.0,93.22
2025-08-14T23:40:58.785Z,5,GR86-036-98,-82.4,-0.144,-1.024,26.18,2.0,,0.0,0.0,
2025-08-14T23:40:58.828Z,5,GR86-036-98,-82.4,-0.12,-0.971,27.44,2.0,,0.0,0.0,
2025-08-14T23:40:58.871Z,5,GR86-036-98,-82.4,0.05,-0.994,26.92,2.0,,0.0,0.0,
2025-08-14T23:40:58.914Z,5,GR86-036-98,-82.4,0.127,-0.937,25.28,2.0,5073.0,0.0,0.0,
2025-08-14T23:40:58.958Z,5,GR86-036-98,-82.5,0.11,-0.941,25.54,2.0,,0.0,0.0,91.42
2025-08-14T23:40:59.001Z,5,GR86-036-98,-82.5,0.111,-0.931,26.89,2.0,,0.0,0.0,
2025-08-14T23:40:59.044Z,5,GR86-036-98,-82.5,0.094,-0.917,28.97,2.0,,0.0,0.0,
2025-08-14T23:40:59.088Z,5,GR86-036-98,-82.60000000000001,0.075,-0.921,36.49,2.0,,0.0,0.0,
2025-08-14T23:40:59.132Z,5,GR86-036-98,-82.60000000000001,0.075,-0.93,41.57,2.0,5360.0,0.0,0.0,
2025-08-14T23:40:59.175Z,5,GR86-036-98,-82.60000000000001,0.097,-0.948,47.67,2.0,,0.0,0.0,90.4
2025-08-14T23:40:59.218Z,5,GR86-036-98,-82.60000000000001,0.134,-0.95,50.89,2.0,,0.0,0.0,
2025-08-14T23:40:59.261Z,5,GR86-036-98,-82.60000000000001,0.172,-0.945,51.6,2.0,,0.0,0.0,
2025-08-14T23:40:59.304Z,5,GR86-036-98,-82.60000000000001,0.195,-0.896,51.47,2.0,,0.0,0.0,
2025-08-14T23:40:59.348Z,5,GR86-036-98,-82.60000000000001,0.174,-0.911,51.28,2.0,5358.0,0.0,0.0,
2025-08-14T23:40:59.391Z,5,GR86-036-98,-80.7,0.172,-0.937,50.33,2.0,,0.0,0.0,90.31
2025-08-14T23:40:59.434Z,5,GR86-036-98,-69.5,0.172,-0.959,49.43,2.0,,0.0,0.0,
2025-08-14T23:40:59.478Z,5,GR86-036-98,-54.900000000000006,0.196,-0.959,49.38,2.0,,0.0,0.0,
2025-08-14T23:40:59.521Z,5,GR86-036-98,-39.7,0.206,-0.945,49.35,2.0,,0.0,0.0,
2025-08-14T23:40:59.564Z,5,GR86-036-98,-25.0,0.226,-0.918,49.27,2.0,5480.0,0.0,0.0,
2025-08-14T23:40:59.608Z,5,GR86-036-98,-14.2,0.23,-0.858,49.24,2.0,,0.0,0.0,91.56
2025-08-14T23:40:59.651Z,5,GR86-036-98,-14.2,0.222,-0.8270000000000001,49.77,2.0,,0.0,0.0,
2025-08-14T23:40:59.738Z,5,GR86-036-98,-40.7,0.211,-0.845,78.44,2.0,,0.0,0.0,
2025-08-14T23:40:59.781Z,5,GR86-036-98,-55.1,0.188,-0.895,99.44,2.0,5559.0,0.0,0.0,
2025-08-14T23:40:59.868Z,5,GR86-036-98,-60.2,0.194,-0.939,99.75,2.0,,0.0,0.0,92.97
2025-08-14T23:40:59.954Z,5,GR86-036-98,-29.200000000000003,0.272,-0.864,99.76,2.0,,0.0,0.0,
2025-08-14T23:40:59.999Z,5,GR86-036-98,-19.4,0.276,-0.857,99.74,2.0,5822.0,0.0,0.0,
2025-08-14T23:41:00.042Z,5,GR86-036-98,-12.7,0.294,-0.8180000000000001,99.75,2.0,,0.0,0.0,93.79
2025-08-14T23:41:00.085Z,5,GR86-036-98,-10.1,0.256,-0.8250000000000001,99.77,2.0,,0.0,0.0,
2025-08-14T23:41:00.128Z,5,GR86-036-98,-9.8,0.26,-0.856,99.76,2.0,,0.0,0.0,
2025-08-14T23:41:00.171Z,5,GR86-036-98,-9.8,0.288,-0.833,99.76,2.0,,0.0,0.0,
2025-08-14T23:41:00.257Z,5,GR86-036-98,-15.6,0.251,-0.874,99.78,2.0,5785.0,0.0,0.0,95.36
2025-08-14T23:41:00.300Z,5,GR86-036-98,-32.1,0.243,-0.909,99.78,2.0,,0.0,0.0,
2025-08-14T23:41:00.343Z,5,GR86-036-98,-39.7,0.258,-0.937,99.77,2.0,,0.0,0.0,
2025-08-14T23:41:00.388Z,5,GR86-036-98,-44.2,0.261,-0.859,99.79,2.0,,0.0,0.0,
2025-08-14T23:41:00.474Z,5,GR86-036-98,-44.400000000000006,0.244,-0.841,99.78,2.0,5815.0,0.0,0.0,96.9
2025-08-14T23:41:00.517Z,5,GR86-036-98,-45.5,0.21,-0.835,99.77,2.0,,0.0,0.0,
2025-08-14T23:41:00.560Z,5,GR86-036-98,-47.2,0.197,-0.872,99.78,2.0,,0.0,0.0,
2025-08-14T23:41:00.603Z,5,GR86-036-98,-48.6,0.221,-0.841,99.79,2.0,,0.0,0.0,
2025-08-14T23:41:00.647Z,5,GR86-036-98,-48.900000000000006,0.254,-0.802,99.79,2.0,5876.0,0.0,0.0,
2025-08-14T23:41:00.691Z,5,GR86-036-98,-48.900000000000006,0.243,-0.8200000000000001,99.78,2.0,,0.0,0.0,98.12
2025-08-14T23:41:00.734Z,5,GR86-036-98,-39.6,0.226,-0.8220000000000001,99.78,2.0,,0.0,0.0,
2025-08-14T23:41:00.777Z,5,GR86-036-98,-30.700000000000003,0.208,-0.8210000000000001,99.78,2.0,,0.0,0.0,
2025-08-14T23:41:00.820Z,5,GR86-036-98,-27.4,0.249,-0.798,99.79,2.0,,0.0,0.0,
2025-08-14T23:41:00.863Z,5,GR86-036-98,-27.4,0.253,-0.76,99.79,2.0,5952.0,0.0,0.0,
2025-08-14T23:41:00.908Z,5,GR86-036-98,-29.4,0.232,-0.783,99.79,2.0,,0.0,0.0,99.76
2025-08-14T23:41:00.951Z,5,GR86-036-98,-29.700000000000003,0.241,-0.785,99.78,2.0,,0.0,0.0,
2025-08-14T23:41:00.994Z,5,GR86-036-98,-29.700000000000003,0.224,-0.783,99.79,2.0,,0.0,0.0,
2025-08-14T23:41:01.038Z,5,GR86-036-98,-29.8,0.238,-0.8180000000000001,99.78,2.0,,0.0,0.0,
2025-08-14T23:41:01.081Z,5,GR86-036-98,-30.200000000000003,0.26,-0.805,99.78,2.0,6048.0,0.0,0.0,
2025-08-14T23:41:01.124Z,5,GR86-036-98,-32.2,0.245,-0.8240000000000001,99.77,2.0,,0.0,0.0,101.45
2025-08-14T23:41:01.168Z,5,GR86-036-98,-34.9,0.228,-0.8270000000000001,99.78,2.0,,0.0,0.0,
2025-08-14T23:41:01.211Z,5,GR86-036-98,-37.7,0.233,-0.8250000000000001,99.79,2.0,,0.0,0.0,
2025-08-14T23:41:01.254Z,5,GR86-036-98,-40.900000000000006,0.204,-0.836,99.79,2.0,,0.0,0.0,
2025-08-14T23:41:01.299Z,5,GR86-036-98,-44.900000000000006,0.243,-0.8220000000000001,99.79,2.0,6121.0,0.0,0.0,
2025-08-14T23:41:01.342Z,5,GR86-036-98,-47.8,0.208,-0.834,99.79,2.0,,0.0,0.0,102.98
2025-08-14T23:41:01.385Z,5,GR86-036-98,-48.2,0.213,-0.848,99.79,2.0,,0.0,0.0,
2025-08-14T23:41:01.431Z,5,GR86-036-98,-48.2,0.227,-0.864,99.75,2.0,,0.0,0.0,
2025-08-14T23:41:01.474Z,5,GR86-036-98,-46.6,0.22,-0.85,99.79,2.0,,0.0,0.0,
2025-08-14T23:41:01.517Z,5,GR86-036-98,-40.1,0.214,-0.8300000000000001,99.78,2.0,6201.0,0.0,0.0,
2025-08-14T23:41:01.560Z,5,GR86-036-98,-32.5,0.228,-0.862,99.78,2.0,,0.0,0.0,104.49
2025-08-14T23:41:01.603Z,5,GR86-036-98,-28.6,0.218,-0.791,99.79,2.0,,0.0,0.0,
2025-08-14T23:41:01.648Z,5,GR86-036-98,-28.3,0.206,-0.793,99.8,2.0,,0.0,0.0,
2025-08-14T23:41:01.691Z,5,GR86-036-98,-28.3,0.252,-0.733,99.8,2.0,,0.0,0.0,
2025-08-14T23:41:01.734Z,5,GR86-036-98,-25.6,0.244,-0.6990000000000001,99.8,2.0,6288.0,0.0,0.0,
2025-08-14T23:41:01.820Z,5,GR86-036-98,-23.0,0.275,-0.609,99.78,2.0,,0.0,0.0,106.06
2025-08-14T23:41:01.863Z,5,GR86-036-98,-16.8,0.143,-0.438,99.8,2.0,,0.0,0.0,
2025-08-14T23:41:01.907Z,5,GR86-036-98,-8.3,0.265,-0.587,99.81,2.0,,0.0,0.0,
2025-08-14T23:41:01.950Z,5,GR86-036-98,-3.1,0.306,-0.542,99.8,2.0,6444.0,0.0,0.0,
2025-08-14T23:41:01.993Z,5,GR86-036-98,2.1,0.315,-0.553,99.78,2.0,,0.0,0.0,107.68
2025-08-14T23:41:02.038Z,5,GR86-036-98,7.9,0.341,-0.49,99.79,2.0,,0.0,0.0,
2025-08-14T23:41:02.081Z,5,GR86-036-98,13.1,0.398,-0.469,99.79,2.0,,0.0,0.0,
2025-08-14T23:41:02.124Z,5,GR86-036-98,14.1,0.31,-0.388,99.79,2.0,,0.0,0.0,
2025-08-14T23:41:02.168Z,5,GR86-036-98,11.8,0.25,-0.423,99.79,2.0,6578.0,0.0,0.0,
2025-08-14T23:41:02.211Z,5,GR86-036-98,5.300000000000001,0.277,-0.371,99.81,2.0,,0.0,0.0,109.4
2025-08-14T23:41:02.254Z,5,GR86-036-98,2.7,0.231,-0.344,99.79,2.0,,0.0,0.0,
2025-08-14T23:41:02.299Z,5,GR86-036-98,2.4000000000000004,0.227,-0.297,99.79,2.0,,0.0,0.0,
2025-08-14T23:41:02.342Z,5,GR86-036-98,0.4,0.277,-0.237,99.82,2.0,,0.0,0.0,
2025-08-14T23:41:02.385Z,5,GR86-036-98,-4.4,0.313,-0.166,99.79,2.0,6588.0,0.0,0.0,
2025-08-14T23:41:02.428Z,5,GR86-036-98,-9.5,0.202,-0.132,99.79,2.0,,0.0,0.0,111.11
2025-08-14T23:41:02.471Z,5,GR86-036-98,-9.6,0.161,-0.091,99.8,2.0,,0.0,0.0,
2025-08-14T23:41:02.514Z,5,GR86-036-98,-8.3,0.223,-0.093,99.81,2.0,,0.0,0.0,
2025-08-14T23:41:02.558Z,5,GR86-036-98,-2.7,0.245,-0.076,99.81,2.0,,0.0,0.0,
2025-08-14T23:41:02.601Z,5,GR86-036-98,-0.6000000000000001,0.188,0.031,99.79,2.0,6763.0,0.0,0.0,
2025-08-14T23:41:02.644Z,5,GR86-036-98,-0.5,0.202,0.023,99.82,2.0,,0.0,0.0,112.83
2025-08-14T23:41:02.688Z,5,GR86-036-98,-3.4000000000000004,0.341,0.027,99.78,2.0,,0.0,0.0,
2025-08-14T23:41:02.731Z,5,GR86-036-98,-4.9,0.288,0.019,99.79,2.0,,0.0,0.0,
2025-08-14T23:41:02.774Z,5,GR86-036-98,-5.0,0.342,-0.027,99.81,2.0,,0.0,0.0,
2025-08-14T23:41:02.817Z,5,GR86-036-98,-5.1000000000000005,0.341,-0.014,99.82,2.0,6826.0,0.0,0.0,
2025-08-14T23:41:02.860Z,5,GR86-036-98,-5.1000000000000005,0.243,0.04,99.8,2.0,,0.0,0.0,114.83
2025-08-14T23:41:02.903Z,5,GR86-036-98,-5.1000000000000005,0.223,0.028,99.8,2.0,,0.0,0.0,
2025-08-14T23:41:02.948Z,5,GR86-036-98,-5.1000000000000005,0.231,-0.053,99.81,2.0,,0.0,0.0,
2025-08-14T23:41:03.034Z,5,GR86-036-98,-5.2,0.291,0.029,99.81,2.0,6914.0,0.0,0.0,
2025-08-14T23:41:03.077Z,5,GR86-036-98,-5.300000000000001,0.172,-0.055,99.8,2.0,,0.0,0.0,116.64
2025-08-14T23:41:03.121Z,5,GR86-036-98,-5.300000000000001,0.164,0.043,99.82,2.0,,0.0,0.0,
2025-08-14T23:41:03.208Z,5,GR86-036-98,-5.300000000000001,0.232,-0.05,99.8,2.0,,0.0,0.0,
2025-08-14T23:41:03.251Z,5,GR86-036-98,-4.9,0.256,-0.042,99.81,2.0,7056.0,0.0,0.0,
2025-08-14T23:41:03.294Z,5,GR86-036-98,-4.9,0.275,-0.071,99.81,2.0,,0.0,0.0,118.21
2025-08-14T23:41:03.338Z,5,GR86-036-98,-4.9,0.255,-0.055,99.8,2.0,,0.0,0.0,
2025-08-14T23:41:03.381Z,5,GR86-036-98,-4.9,0.241,-0.059,99.81,2.0,,0.0,0.0,
2025-08-14T23:41:03.424Z,5,GR86-036-98,-4.9,0.235,-0.04,99.82,2.0,,0.0,0.0,
2025-08-14T23:41:03.468Z,5,GR86-036-98,-4.9,0.222,-0.013,99.8,2.0,7058.0,0.0,0.0,
2025-08-14T23:41:03.511Z,5,GR86-036-98,-4.9,0.22,-0.065,99.82,2.0,,0.0,0.0,120.46
2025-08-14T23:41:03.554Z,5,GR86-036-98,-4.9,0.231,-0.044,99.82,2.0,,0.0,0.0,
2025-08-14T23:41:03.599Z,5,GR86-036-98,-4.9,0.249,-0.019,99.81,2.0,,0.0,0.0,
2025-08-14T23:41:03.642Z,5,GR86-036-98,-4.9,0.051,-0.044,99.83,2.0,,0.0,0.0,
2025-08-14T23:41:03.688Z,5,GR86-036-98,-4.9,0.108,-0.006,99.81,3.0,7215.0,0.0,0.0,
2025-08-14T23:41:03.731Z,5,GR86-036-98,-4.9,0.481,-0.105,99.81,3.0,,0.0,0.0,121.96
2025-08-14T23:41:03.774Z,5,GR86-036-98,-4.9,0.42,-0.038,99.8,3.0,,0.0,0.0,
2025-08-14T23:41:03.817Z,5,GR86-036-98,-4.9,0.309,0.002,99.8,3.0,,0.0,0.0,
2025-08-14T23:41:03.860Z,5,GR86-036-98,-4.9,0.129,-0.084,99.8,3.0,,0.0,0.0,
2025-08-14T23:41:03.903Z,5,GR86-036-98,-4.9,0.118,-0.073,99.82,3.0,6122.0,0.0,0.0,
2025-08-14T23:41:03.947Z,5,GR86-036-98,-4.9,0.21,-0.051,99.82,3.0,,0.0,0.0,123.36
2025-08-14T23:41:03.990Z,5,GR86-036-98,-4.9,0.226,-0.094,99.82,3.0,,0.0,0.0,
2025-08-14T23:41:04.033Z,5,GR86-036-98,-4.9,0.224,-0.084,99.83,3.0,,0.0,0.0,
2025-08-14T23:41:04.077Z,5,GR86-036-98,-4.9,0.177,-0.098,99.83,3.0,,0.0,0.0,
2025-08-14T23:41:04.120Z,5,GR86-036-98,-4.9,0.183,-0.121,99.82,3.0,5980.0,0.0,0.0,
2025-08-14T23:41:04.163Z,5,GR86-036-98,-4.9,0.214,-0.101,99.82,3.0,,0.0,0.0,125.01
2025-08-14T23:41:04.208Z,5,GR86-036-98,-4.9,0.226,-0.136,99.83,3.0,,0.0,0.0,
2025-08-14T23:41:04.251Z,5,GR86-036-98,-4.9,0.197,-0.12,99.83,3.0,,0.0,0.0,
2025-08-14T23:41:04.294Z,5,GR86-036-98,-4.9,0.176,-0.11,99.8,3.0,,0.0,0.0,
2025-08-14T23:41:04.338Z,5,GR86-036-98,-4.9,0.198,-0.137,99.81,3.0,6019.0,0.0,0.0,
2025-08-14T23:41:04.381Z,5,GR86-036-98,-4.9,0.234,-0.147,99.8,3.0,,0.0,0.0,126.54
2025-08-14T23:41:04.424Z,5,GR86-036-98,-4.6000000000000005,0.196,-0.11,99.8,3.0,,0.0,0.0,
2025-08-14T23:41:04.468Z,5,GR86-036-98,-3.6,0.192,-0.125,99.82,3.0,,0.0,0.0,
2025-08-14T23:41:04.511Z,5,GR86-036-98,-3.0,0.199,-0.084,99.81,3.0,,0.0,0.0,
2025-08-14T23:41:04.554Z,5,GR86-036-98,-2.7,0.209,-0.098,99.83,3.0,6092.0,0.0,0.0,
2025-08-14T23:41:04.599Z,5,GR86-036-98,-2.3000000000000003,0.203,-0.08,99.81,3.0,,0.0,0.0,129.26
2025-08-14T23:41:04.642Z,5,GR86-036-98,-2.0,0.187,-0.052,99.81,3.0,,0.0,0.0,
2025-08-14T23:41:04.685Z,5,GR86-036-98,-1.8,0.209,-0.072,99.82,3.0,,0.0,0.0,
2025-08-14T23:41:04.728Z,5,GR86-036-98,-1.4,0.202,-0.042,99.81,3.0,,0.0,0.0,
2025-08-14T23:41:04.771Z,5,GR86-036-98,-1.3,0.213,-0.069,99.81,3.0,6137.0,0.0,0.0,
2025-08-14T23:41:04.814Z,5,GR86-036-98,-1.2000000000000002,0.207,-0.036,99.81,3.0,,0.0,0.0,130.63
2025-08-14T23:41:04.859Z,5,GR86-036-98,-1.3,0.192,-0.003,99.83,3.0,,0.0,0.0,
2025-08-14T23:41:04.902Z,5,GR86-036-98,-1.3,0.182,-0.015,99.81,3.0,,0.0,0.0,
2025-08-14T23:41:04.945Z,5,GR86-036-98,-1.2000000000000002,0.206,-0.029,99.82,3.0,,0.0,0.0,
2025-08-14T23:41:04.988Z,5,GR86-036-98,-1.2000000000000002,0.203,-0.044,99.81,3.0,6274.0,0.0,0.0,
2025-08-14T23:41:05.031Z,5,GR86-036-98,-1.2000000000000002,0.207,-0.023,99.81,3.0,,0.0,0.0,132.04
2025-08-14T23:41:05.074Z,5,GR86-036-98,-1.1,0.203,0.009,99.82,3.0,,0.0,0.0,
2025-08-14T23:41:05.117Z,5,GR86-036-98,-1.1,0.201,0.001,99.82,3.0,,0.0,0.0,
2025-08-14T23:41:05.160Z,5,GR86-036-98,-1.1,0.191,-0.005,99.83,3.0,,0.0,0.0,
2025-08-14T23:41:05.203Z,5,GR86-036-98,-1.1,0.213,0.016,99.82,3.0,6329.0,0.0,0.0,
2025-08-14T23:41:05.248Z,5,GR86-036-98,-1.1,0.205,-0.004,99.83,3.0,,0.0,0.0,133.47
2025-08-14T23:41:05.291Z,5,GR86-036-98,-1.1,0.206,0.014,99.82,3.0,,0.0,0.0,
2025-08-14T23:41:05.334Z,5,GR86-036-98,-1.1,0.195,0.024,99.8,3.0,,0.0,0.0,
2025-08-14T23:41:05.377Z,5,GR86-036-98,-1.1,0.195,0.001,99.81,3.0,,0.0,0.0,
2025-08-14T23:41:05.420Z,5,GR86-036-98,-1.1,0.192,0.019,99.81,3.0,6401.0,0.0,0.0,
2025-08-14T23:41:05.463Z,5,GR86-036-98,-1.1,0.219,0.036,99.82,3.0,,0.0,0.0,134.8
2025-08-14T23:41:05.508Z,5,GR86-036-98,-0.7000000000000001,0.194,0.022,99.82,3.0,,0.0,0.0,
2025-08-14T23:41:05.551Z,5,GR86-036-98,-0.3,0.215,0.051,99.82,3.0,,0.0,0.0,
2025-08-14T23:41:05.594Z,5,GR86-036-98,-0.3,0.204,0.022,99.81,3.0,,0.0,0.0,
2025-08-14T23:41:05.638Z,5,GR86-036-98,-0.3,0.186,0.028,99.82,3.0,6451.0,0.0,0.0,
2025-08-14T23:41:05.681Z,5,GR86-036-98,-0.3,0.198,0.055,99.82,3.0,,0.0,0.0,136.17000000000002
2025-08-14T23:41:05.724Z,5,GR86-036-98,0.1,0.217,0.036,99.81,3.0,,0.0,0.0,
2025-08-14T23:41:05.767Z,5,GR86-036-98,1.7000000000000002,0.204,0.069,99.85,3.0,,0.0,0.0,
2025-08-14T23:41:05.811Z,5,GR86-036-98,1.7000000000000002,0.224,0.063,99.84,3.0,,0.0,0.0,
2025-08-14T23:41:05.854Z,5,GR86-036-98,1.7000000000000002,0.199,0.062,99.82,3.0,6517.0,0.0,0.0,
2025-08-14T23:41:05.899Z,5,GR86-036-98,1.7000000000000002,0.166,0.062,99.81,3.0,,0.0,0.0,137.48
2025-08-14T23:41:05.942Z,5,GR86-036-98,1.7000000000000002,0.195,0.057,99.81,3.0,,0.0,0.0,
2025-08-14T23:41:05.985Z,5,GR86-036-98,1.7000000000000002,0.232,0.043,99.81,3.0,,0.0,0.0,
2025-08-14T23:41:06.032Z,5,GR86-036-98,1.7000000000000002,0.195,0.057,99.82,3.0,,0.0,0.0,
2025-08-14T23:41:06.075Z,5,GR86-036-98,1.7000000000000002,0.22,0.032,99.83,3.0,6578.0,0.0,0.0,
2025-08-14T23:41:06.118Z,5,GR86-036-98,1.7000000000000002,0.203,0.022,99.82,3.0,,0.0,0.0,138.78
2025-08-14T23:41:06.161Z,5,GR86-036-98,1.7000000000000002,0.163,0.028,99.81,3.0,,0.0,0.0,
2025-08-14T23:41:06.204Z,5,GR86-036-98,1.7000000000000002,0.178,0.017,99.82,3.0,,0.0,0.0,
2025-08-14T23:41:06.248Z,5,GR86-036-98,1.6,0.16,0.016,99.82,3.0,,0.0,0.0,
2025-08-14T23:41:06.291Z,5,GR86-036-98,1.6,0.191,0.002,99.81,3.0,6633.0,0.0,0.0,
2025-08-14T23:41:06.334Z,5,GR86-036-98,1.6,0.219,0.002,99.81,3.0,,0.0,0.0,140.06
2025-08-14T23:41:06.378Z,5,GR86-036-98,1.6,0.206,-0.025,99.82,3.0,,0.0,0.0,
2025-08-14T23:41:06.421Z,5,GR86-036-98,1.6,0.172,-0.017,99.8,3.0,,0.0,0.0,
2025-08-14T23:41:06.464Z,5,GR86-036-98,1.6,0.164,-0.001,99.81,3.0,,0.0,0.0,
2025-08-14T23:41:06.508Z,5,GR86-036-98,1.6,0.16,-0.024,99.83,3.0,6699.0,0.0,0.0,
2025-08-14T23:41:06.551Z,5,GR86-036-98,1.6,0.171,-0.014,99.81,3.0,,0.0,0.0,141.31
2025-08-14T23:41:06.594Z,5,GR86-036-98,1.6,0.199,-0.019,99.82,3.0,,0.0,0.0,
2025-08-14T23:41:06.638Z,5,GR86-036-98,1.6,0.223,-0.023,99.82,3.0,,0.0,0.0,
2025-08-14T23:41:06.681Z,5,GR86-036-98,1.6,0.192,-0.04,99.82,3.0,,0.0,0.0,
2025-08-14T23:41:06.768Z,5,GR86-036-98,1.6,0.169,-0.028,99.8,3.0,6758.0,0.0,0.0,142.49
2025-08-14T23:41:06.811Z,5,GR86-036-98,1.6,0.159,-0.021,99.83,3.0,,0.0,0.0,
2025-08-14T23:41:06.854Z,5,GR86-036-98,1.6,0.181,-0.018,99.81,3.0,,0.0,0.0,
2025-08-14T23:41:06.899Z,5,GR86-036-98,1.6,0.204,-0.018,99.81,3.0,,0.0,0.0,
2025-08-14T23:41:06.942Z,5,GR86-036-98,1.6,0.198,-0.047,99.81,3.0,6807.0,0.0,0.0,
2025-08-14T23:41:06.985Z,5,GR86-036-98,1.5,0.173,-0.027,99.82,3.0,,0.0,0.0,143.77
2025-08-14T23:41:07.031Z,5,GR86-036-98,1.5,0.169,-0.043,99.82,3.0,,0.0,0.0,
2025-08-14T23:41:07.074Z,5,GR86-036-98,1.5,0.187,-0.034,99.82,3.0,,0.0,0.0,
2025-08-14T23:41:07.117Z,5,GR86-036-98,1.5,0.203,-0.02,99.83,3.0,,0.0,0.0,
2025-08-14T23:41:07.160Z,5,GR86-036-98,1.5,0.201,-0.02,99.83,3.0,6855.0,0.0,0.0,
2025-08-14T23:41:07.203Z,5,GR86-036-98,1.5,0.176,-0.022,99.83,3.0,,0.0,0.0,146.21
2025-08-14T23:41:07.247Z,5,GR86-036-98,1.1,0.198,-0.011,99.81,3.0,,0.0,0.0,
2025-08-14T23:41:07.290Z,5,GR86-036-98,0.9,0.19,-0.028,99.79,3.0,,0.0,0.0,
2025-08-14T23:41:07.333Z,5,GR86-036-98,0.9,0.167,-0.061,99.82,3.0,,0.0,0.0,
2025-08-14T23:41:07.377Z,5,GR86-036-98,0.8,0.156,-0.062,99.81,3.0,6923.0,0.0,0.0,
2025-08-14T23:41:07.420Z,5,GR86-036-98,0.8,0.189,-0.047,99.8,3.0,,0.0,0.0,147.36
2025-08-14T23:41:07.463Z,5,GR86-036-98,0.8,0.209,-0.043,99.81,3.0,,0.0,0.0,
2025-08-14T23:41:07.508Z,5,GR86-036-98,0.8,0.166,-0.065,99.82,3.0,,0.0,0.0,
2025-08-14T23:41:07.551Z,5,GR86-036-98,0.8,0.193,-0.044,99.81,3.0,,0.0,0.0,
2025-08-14T23:41:07.638Z,5,GR86-036-98,0.8,0.213,-0.041,99.82,3.0,7027.0,0.0,0.0,148.67000000000002
2025-08-14T23:41:07.681Z,5,GR86-036-98,0.8,0.146,-0.084,99.81,3.0,,0.0,0.0,
2025-08-14T23:41:07.724Z,5,GR86-036-98,0.4,0.143,-0.085,99.81,3.0,,0.0,0.0,
2025-08-14T23:41:07.768Z,5,GR86-036-98,0.0,0.156,-0.098,99.82,3.0,,0.0,0.0,
2025-08-14T23:41:07.811Z,5,GR86-036-98,-0.3,0.138,-0.107,99.83,3.0,7096.0,0.0,0.0,
2025-08-14T23:41:07.854Z,5,GR86-036-98,-0.3,0.146,-0.105,99.82,3.0,,0.0,0.0,149.81
2025-08-14T23:41:07.899Z,5,GR86-036-98,-0.4,0.187,-0.086,99.82,3.0,,0.0,0.0,
2025-08-14T23:41:07.942Z,5,GR86-036-98,-0.5,0.21,-0.091,99.8,3.0,,0.0,0.0,
2025-08-14T23:41:07.985Z,5,GR86-036-98,-0.5,0.192,-0.094,99.82,3.0,,0.0,0.0,
2025-08-14T23:41:08.028Z,5,GR86-036-98,-0.5,0.176,-0.082,99.82,3.0,7142.0,0.0,0.0,
2025-08-14T23:41:08.114Z,5,GR86-036-98,-0.5,0.183,-0.108,99.82,3.0,,0.0,0.0,151.11
2025-08-14T23:41:08.202Z,5,GR86-036-98,-0.6000000000000001,0.132,-0.098,99.81,3.0,,0.0,0.0,
2025-08-14T23:41:08.245Z,5,GR86-036-98,-0.7000000000000001,0.148,-0.075,99.81,3.0,7187.0,0.0,0.0,
2025-08-14T23:41:08.288Z,5,GR86-036-98,-0.7000000000000001,0.134,-0.083,99.81,3.0,,0.0,0.0,152.20000000000002
2025-08-14T23:41:08.331Z,5,GR86-036-98,-0.7000000000000001,0.125,-0.066,99.82,3.0,,0.0,0.0,
2025-08-14T23:41:08.374Z,5,GR86-036-98,-0.7000000000000001,0.079,-0.064,99.82,3.0,,0.0,0.0,
2025-08-14T23:41:08.417Z,5,GR86-036-98,-0.7000000000000001,-0.104,-0.022,99.83,4.0,,0.0,0.0,
2025-08-14T23:41:08.460Z,5,GR86-036-98,-0.7000000000000001,0.442,-0.048,99.83,4.0,7136.0,0.0,0.0,
2025-08-14T23:41:08.503Z,5,GR86-036-98,-0.7000000000000001,0.272,-0.134,99.83,4.0,,0.0,0.0,153.25
2025-08-14T23:41:08.548Z,5,GR86-036-98,-0.8,0.144,-0.007,99.82,4.0,,0.0,0.0,
2025-08-14T23:41:08.591Z,5,GR86-036-98,-0.8,0.102,-0.081,99.83,4.0,,0.0,0.0,
2025-08-14T23:41:08.634Z,5,GR86-036-98,-0.9,0.13,-0.11,99.82,4.0,,0.0,0.0,
2025-08-14T23:41:08.677Z,5,GR86-036-98,-0.9,0.149,-0.045,99.84,4.0,6045.0,0.0,0.0,
2025-08-14T23:41:08.720Z,5,GR86-036-98,-0.9,0.106,-0.115,99.83,4.0,,0.0,0.0,154.11
2025-08-14T23:41:08.763Z,5,GR86-036-98,-0.9,0.116,-0.089,99.81,4.0,,0.0,0.0,
2025-08-14T23:41:08.807Z,5,GR86-036-98,-0.9,0.127,-0.106,99.81,4.0,,0.0,0.0,
2025-08-14T23:41:08.851Z,5,GR86-036-98,-0.9,0.118,-0.11,99.81,4.0,,0.0,0.0,
2025-08-14T23:41:08.894Z,5,GR86-036-98,-0.9,0.129,-0.097,99.81,4.0,6169.0,0.0,0.0,
2025-08-14T23:41:08.938Z,5,GR86-036-98,-0.9,0.135,-0.114,99.81,4.0,,0.0,0.0,155.21
2025-08-14T23:41:08.981Z,5,GR86-036-98,-0.9,0.149,-0.116,99.81,4.0,,0.0,0.0,
2025-08-14T23:41:09.024Z,5,GR86-036-98,-0.9,0.153,-0.102,99.83,4.0,,0.0,0.0,
2025-08-14T23:41:09.067Z,5,GR86-036-98,-0.9,0.13,-0.095,99.81,4.0,,0.0,0.0,
2025-08-14T23:41:09.111Z,5,GR86-036-98,-0.9,0.138,-0.106,99.84,4.0,6202.0,0.0,0.0,
2025-08-14T23:41:09.154Z,5,GR86-036-98,-0.9,0.147,-0.108,99.83,4.0,,0.0,0.0,156.17000000000002
2025-08-14T23:41:09.199Z,5,GR86-036-98,-0.9,0.135,-0.114,99.82,4.0,,0.0,0.0,
2025-08-14T23:41:09.242Z,5,GR86-036-98,-0.9,0.132,-0.099,99.82,4.0,,0.0,0.0,
2025-08-14T23:41:09.371Z,5,GR86-036-98,-0.9,0.119,-0.1,99.81,4.0,6246.0,0.0,0.0,157.12
2025-08-14T23:41:09.414Z,5,GR86-036-98,-0.9,0.131,-0.083,99.82,4.0,,0.0,0.0,
2025-08-14T23:41:09.458Z,5,GR86-036-98,-0.9,0.148,-0.068,99.82,4.0,,0.0,0.0,
2025-08-14T23:41:09.501Z,5,GR86-036-98,-0.9,0.159,-0.065,99.81,4.0,,0.0,0.0,
2025-08-14T23:41:09.544Z,5,GR86-036-98,-0.9,0.15,-0.089,99.82,4.0,6282.0,0.0,0.0,
2025-08-14T23:41:09.589Z,5,GR86-036-98,-2.3000000000000003,0.119,-0.086,99.81,4.0,,0.0,0.0,159.1
2025-08-14T23:41:09.632Z,5,GR86-036-98,-3.2,0.142,-0.1,99.81,4.0,,0.0,0.0,
2025-08-14T23:41:09.675Z,5,GR86-036-98,-3.3000000000000003,0.15,-0.116,99.81,4.0,,0.0,0.0,
2025-08-14T23:41:09.718Z,5,GR86-036-98,-3.6,0.15,-0.121,99.81,4.0,,0.0,0.0,
2025-08-14T23:41:09.761Z,5,GR86-036-98,-4.6000000000000005,0.138,-0.132,99.82,4.0,6318.0,0.0,0.0,
2025-08-14T23:41:09.804Z,5,GR86-036-98,-5.6000000000000005,0.115,-0.172,99.82,4.0,,0.0,0.0,160.1
2025-08-14T23:41:09.848Z,5,GR86-036-98,-5.9,0.154,-0.195,99.81,4.0,,0.0,0.0,
2025-08-14T23:41:09.891Z,5,GR86-036-98,-5.9,0.161,-0.218,99.85,4.0,,0.0,0.0,
2025-08-14T23:41:09.934Z,5,GR86-036-98,-5.9,0.152,-0.25,99.82,4.0,,0.0,0.0,
2025-08-14T23:41:09.978Z,5,GR86-036-98,-5.9,0.118,-0.257,99.82,4.0,6362.0,0.0,0.0,
2025-08-14T23:41:10.021Z,5,GR86-036-98,-5.9,0.1,-0.291,99.81,4.0,,0.0,0.0,161.12
2025-08-14T23:41:10.064Z,5,GR86-036-98,-5.9,0.093,-0.296,99.82,4.0,,0.0,0.0,
2025-08-14T23:41:10.108Z,5,GR86-036-98,-5.9,0.153,-0.262,99.83,4.0,,0.0,0.0,
2025-08-14T23:41:10.151Z,5,GR86-036-98,-6.0,0.125,-0.271,99.83,4.0,,0.0,0.0,
2025-08-14T23:41:10.194Z,5,GR86-036-98,-5.9,0.12,-0.278,99.84,4.0,6440.0,0.0,0.0,
2025-08-14T23:41:10.238Z,5,GR86-036-98,-6.0,0.076,-0.273,99.82,4.0,,0.0,0.0,162.1
2025-08-14T23:41:10.281Z,5,GR86-036-98,-6.0,0.103,-0.278,99.81,4.0,,0.0,0.0,
2025-08-14T23:41:10.324Z,5,GR86-036-98,-6.0,0.103,-0.275,99.82,4.0,,0.0,0.0,
2025-08-14T23:41:10.368Z,5,GR86-036-98,-6.0,0.12,-0.259,99.82,4.0,,0.0,0.0,
2025-08-14T23:41:10.411Z,5,GR86-036-98,-6.0,0.111,-0.292,99.82,4.0,6482.0,0.0,0.0,
2025-08-14T23:41:10.454Z,5,GR86-036-98,-5.9,0.101,-0.275,99.82,4.0,,0.0,0.0,162.94
2025-08-14T23:41:10.499Z,5,GR86-036-98,-5.9,0.098,-0.294,99.81,4.0,,0.0,0.0,
2025-08-14T23:41:10.542Z,5,GR86-036-98,-5.9,0.102,-0.279,99.82,4.0,,0.0,0.0,
2025-08-14T23:41:10.585Z,5,GR86-036-98,-5.9,0.135,-0.271,99.8,4.0,,0.0,0.0,
2025-08-14T23:41:10.628Z,5,GR86-036-98,-5.9,0.106,-0.242,99.81,4.0,6513.0,0.0,0.0,
2025-08-14T23:41:10.671Z,5,GR86-036-98,-5.9,0.094,-0.232,99.83,4.0,,0.0,0.0,164.13
2025-08-14T23:41:10.714Z,5,GR86-036-98,-5.9,0.11,-0.199,99.82,4.0,,0.0,0.0,
2025-08-14T23:41:10.757Z,5,GR86-036-98,-5.9,0.104,-0.176,99.81,4.0,,0.0,0.0,
2025-08-14T23:41:10.800Z,5,GR86-036-98,-5.9,0.137,-0.17,99.81,4.0,,0.0,0.0,
2025-08-14T23:41:10.843Z,5,GR86-036-98,-5.9,0.128,-0.161,99.82,4.0,6553.0,0.0,0.0,
2025-08-14T23:41:10.888Z,5,GR86-036-98,-5.300000000000001,0.101,-0.142,99.83,4.0,,0.0,0.0,165.19
2025-08-14T23:41:10.931Z,5,GR86-036-98,-5.1000000000000005,0.11,-0.139,99.82,4.0,,0.0,0.0,
2025-08-14T23:41:10.974Z,5,GR86-036-98,-5.1000000000000005,0.104,-0.11,99.81,4.0,,0.0,0.0,
2025-08-14T23:41:11.017Z,5,GR86-036-98,-5.1000000000000005,0.126,-0.121,99.83,4.0,,0.0,0.0,
2025-08-14T23:41:11.060Z,5,GR86-036-98,-5.1000000000000005,0.115,-0.11,99.81,4.0,6590.0,0.0,0.0,
2025-08-14T23:41:11.103Z,5,GR86-036-98,-5.1000000000000005,0.164,-0.142,99.81,4.0,,0.0,0.0,166.14
2025-08-14T23:41:11.148Z,5,GR86-036-98,-5.1000000000000005,0.102,-0.142,99.81,4.0,,0.0,0.0,
2025-08-14T23:41:11.191Z,5,GR86-036-98,-5.1000000000000005,0.117,-0.183,99.8,4.0,,0.0,0.0,
2025-08-14T23:41:11.234Z,5,GR86-036-98,-5.1000000000000005,0.125,-0.143,99.81,4.0,,0.0,0.0,
2025-08-14T23:41:11.277Z,5,GR86-036-98,-5.1000000000000005,0.107,-0.17,99.83,4.0,6634.0,0.0,0.0,
2025-08-14T23:41:11.320Z,5,GR86-036-98,-5.1000000000000005,0.139,-0.171,99.81,4.0,,0.0,0.0,167.03
2025-08-14T23:41:11.363Z,5,GR86-036-98,-5.1000000000000005,0.119,-0.172,99.82,4.0,,0.0,0.0,
2025-08-14T23:41:11.408Z,5,GR86-036-98,-5.1000000000000005,0.113,-0.193,99.82,4.0,,0.0,0.0,
2025-08-14T23:41:11.451Z,5,GR86-036-98,-5.1000000000000005,0.14,-0.182,99.83,4.0,,0.0,0.0,
2025-08-14T23:41:11.494Z,5,GR86-036-98,-5.1000000000000005,0.128,-0.206,99.8,4.0,6691.0,0.0,0.0,
2025-08-14T23:41:11.538Z,5,GR86-036-98,-5.1000000000000005,0.15,-0.193,99.82,4.0,,0.0,0.0,167.95000000000002
2025-08-14T23:41:11.581Z,5,GR86-036-98,-5.1000000000000005,0.109,-0.205,99.81,4.0,,0.0,0.0,
2025-08-14T23:41:11.624Z,5,GR86-036-98,-5.1000000000000005,0.139,-0.205,99.83,4.0,,0.0,0.0,
2025-08-14T23:41:11.668Z,5,GR86-036-98,-4.4,0.137,-0.167,99.81,4.0,,0.0,0.0,
2025-08-14T23:41:11.711Z,5,GR86-036-98,-3.8,0.121,-0.145,99.82,4.0,6698.0,0.0,0.0,
2025-08-14T23:41:11.754Z,5,GR86-036-98,-3.7,0.132,-0.13,99.81,4.0,,0.0,0.0,169.13
2025-08-14T23:41:11.799Z,5,GR86-036-98,-3.7,0.134,-0.106,99.82,4.0,,0.0,0.0,
2025-08-14T23:41:11.842Z,5,GR86-036-98,-3.7,0.139,-0.119,99.82,4.0,,0.0,0.0,
2025-08-14T23:41:11.888Z,5,GR86-036-98,-3.6,0.101,-0.089,99.82,4.0,,0.0,0.0,
2025-08-14T23:41:11.931Z,5,GR86-036-98,-3.6,0.121,-0.117,99.83,4.0,6747.0,0.0,0.0,
2025-08-14T23:41:11.974Z,5,GR86-036-98,-3.5,0.116,-0.09,99.81,4.0,,0.0,0.0,170.12
2025-08-14T23:41:12.017Z,5,GR86-036-98,-3.5,0.107,-0.067,99.81,4.0,,0.0,0.0,
2025-08-14T23:41:12.060Z,5,GR86-036-98,-3.5,0.124,-0.096,99.81,4.0,,0.0,0.0,
2025-08-14T23:41:12.103Z,5,GR86-036-98,-3.5,0.149,-0.083,99.83,4.0,,0.0,0.0,
2025-08-14T23:41:12.148Z,5,GR86-036-98,-3.5,0.094,-0.105,99.82,4.0,6768.0,0.0,0.0,
2025-08-14T23:41:12.191Z,5,GR86-036-98,-3.5,0.093,-0.12,99.81,4.0,,0.0,0.0,171.98
2025-08-14T23:41:12.234Z,5,GR86-036-98,-3.5,0.079,-0.101,99.83,4.0,,0.0,0.0,
2025-08-14T23:41:12.277Z,5,GR86-036-98,-3.5,0.089,-0.121,99.82,4.0,,0.0,0.0,
2025-08-14T23:41:12.320Z,5,GR86-036-98,-3.5,0.108,-0.101,99.83,4.0,,0.0,0.0,
2025-08-14T23:41:12.363Z,5,GR86-036-98,-3.5,0.113,-0.102,99.82,4.0,6814.0,0.0,0.0,
2025-08-14T23:41:12.407Z,5,GR86-036-98,-3.5,0.133,-0.117,99.81,4.0,,0.0,0.0,172.94
2025-08-14T23:41:12.451Z,5,GR86-036-98,-3.5,0.113,-0.136,99.82,4.0,,0.0,0.0,
2025-08-14T23:41:12.494Z,5,GR86-036-98,-3.4000000000000004,0.099,-0.153,99.82,4.0,,0.0,0.0,
2025-08-14T23:41:12.538Z,5,GR86-036-98,-3.4000000000000004,0.107,-0.174,99.81,4.0,,0.0,0.0,
2025-08-14T23:41:12.581Z,5,GR86-036-98,-3.4000000000000004,0.097,-0.161,99.8,4.0,6853.0,0.0,0.0,
2025-08-14T23:41:12.624Z,5,GR86-036-98,-3.4000000000000004,0.083,-0.147,99.81,4.0,,0.0,0.0,173.8
2025-08-14T23:41:12.668Z,5,GR86-036-98,-3.4000000000000004,0.149,-0.123,99.79,4.0,,0.0,0.0,
2025-08-14T23:41:12.711Z,5,GR86-036-98,-3.4000000000000004,0.147,-0.115,99.81,4.0,,0.0,0.0,
2025-08-14T23:41:12.754Z,5,GR86-036-98,-3.4000000000000004,0.133,-0.109,99.82,4.0,,0.0,0.0,
2025-08-14T23:41:12.799Z,5,GR86-036-98,-3.4000000000000004,0.141,-0.124,99.81,4.0,6936.0,0.0,0.0,
2025-08-14T23:41:12.842Z,5,GR86-036-98,-3.4000000000000004,0.164,-0.113,99.81,4.0,,0.0,0.0,174.66
2025-08-14T23:41:12.885Z,5,GR86-036-98,-3.4000000000000004,0.152,-0.132,99.82,4.0,,0.0,0.0,
2025-08-14T23:41:12.971Z,5,GR86-036-98,-3.4000000000000004,0.099,-0.13,99.81,4.0,,0.0,0.0,
2025-08-14T23:41:13.014Z,5,GR86-036-98,-3.4000000000000004,0.101,-0.117,99.83,4.0,6962.0,0.0,0.0,
2025-08-14T23:41:13.058Z,5,GR86-036-98,-3.4000000000000004,0.103,-0.122,99.81,4.0,,0.0,0.0,175.73
2025-08-14T23:41:13.101Z,5,GR86-036-98,-3.4000000000000004,0.114,-0.113,99.83,4.0,,0.0,0.0,
2025-08-14T23:41:13.144Z,5,GR86-036-98,-3.4000000000000004,0.12,-0.143,99.83,4.0,,0.0,0.0,
2025-08-14T23:41:13.231Z,5,GR86-036-98,-3.4000000000000004,0.11,-0.111,99.83,4.0,6992.0,0.0,0.0,
2025-08-14T23:41:13.274Z,5,GR86-036-98,-3.4000000000000004,0.085,-0.103,99.82,4.0,,0.0,0.0,176.61
2025-08-14T23:41:13.317Z,5,GR86-036-98,-3.4000000000000004,0.094,-0.127,99.83,4.0,,0.0,0.0,
2025-08-14T23:41:13.360Z,5,GR86-036-98,-3.4000000000000004,0.109,-0.128,99.82,4.0,,0.0,0.0,
2025-08-14T23:41:13.403Z,5,GR86-036-98,-3.4000000000000004,0.102,-0.141,99.81,4.0,,0.0,0.0,
2025-08-14T23:41:13.448Z,5,GR86-036-98,-3.4000000000000004,0.124,-0.163,99.82,4.0,7034.0,0.0,0.0,
2025-08-14T23:41:13.491Z,5,GR86-036-98,-3.4000000000000004,0.117,-0.163,99.83,4.0,,0.0,0.0,177.48
2025-08-14T23:41:13.534Z,5,GR86-036-98,-3.4000000000000004,0.124,-0.156,99.83,4.0,,0.0,0.0,
2025-08-14T23:41:13.578Z,5,GR86-036-98,-3.4000000000000004,0.12,-0.179,99.81,4.0,,0.0,0.0,
2025-08-14T23:41:13.621Z,5,GR86-036-98,-3.4000000000000004,0.108,-0.158,99.83,4.0,,0.0,0.0,
2025-08-14T23:41:13.664Z,5,GR86-036-98,-3.4000000000000004,0.114,-0.16,99.81,4.0,7052.0,0.0,0.0,
2025-08-14T23:41:13.708Z,5,GR86-036-98,-3.4000000000000004,0.107,-0.157,99.82,4.0,,0.0,0.0,178.43
2025-08-14T23:41:13.752Z,5,GR86-036-98,-3.4000000000000004,0.122,-0.134,99.83,4.0,,0.0,0.0,
2025-08-14T23:41:13.795Z,5,GR86-036-98,-3.4000000000000004,0.106,-0.147,99.83,4.0,,0.0,0.0,
2025-08-14T23:41:13.838Z,5,GR86-036-98,-3.4000000000000004,0.11,-0.11,99.83,4.0,,0.0,0.0,
2025-08-14T23:41:13.881Z,5,GR86-036-98,-3.4000000000000004,0.121,-0.134,99.81,4.0,7090.0,0.0,0.0,
2025-08-14T23:41:13.924Z,5,GR86-036-98,-3.4000000000000004,0.11,-0.109,99.82,4.0,,0.0,0.0,179.20000000000002
2025-08-14T23:41:13.968Z,5,GR86-036-98,-3.4000000000000004,0.09,-0.11,99.81,4.0,,0.0,0.0,
2025-08-14T23:41:14.054Z,5,GR86-036-98,-3.4000000000000004,0.092,-0.097,99.79,4.0,,0.0,0.0,
2025-08-14T23:41:14.100Z,5,GR86-036-98,-3.1,0.086,-0.104,99.82,4.0,7136.0,0.0,0.0,
2025-08-14T23:41:14.188Z,5,GR86-036-98,-3.0,0.126,-0.063,99.82,4.0,,0.0,0.0,179.92000000000002
2025-08-14T23:41:14.231Z,5,GR86-036-98,-3.0,0.126,-0.055,99.83,4.0,,0.0,0.0,
2025-08-14T23:41:14.274Z,5,GR86-036-98,-3.0,0.108,-0.041,99.84,4.0,,0.0,0.0,
2025-08-14T23:41:14.317Z,5,GR86-036-98,-2.9000000000000004,0.124,-0.066,99.82,4.0,7158.0,0.0,0.0,
2025-08-14T23:41:14.360Z,5,GR86-036-98,-2.9000000000000004,0.12,-0.042,99.82,4.0,,0.0,0.0,180.92
2025-08-14T23:41:14.403Z,5,GR86-036-98,-2.9000000000000004,0.098,-0.057,99.82,4.0,,0.0,0.0,
2025-08-14T23:41:14.447Z,5,GR86-036-98,-2.9000000000000004,0.069,-0.049,99.82,4.0,,0.0,0.0,
2025-08-14T23:41:14.490Z,5,GR86-036-98,-2.9000000000000004,0.106,-0.063,99.82,4.0,,0.0,0.0,
2025-08-14T23:41:14.533Z,5,GR86-036-98,-2.9000000000000004,0.073,-0.087,99.81,4.0,7196.0,0.0,0.0,
2025-08-14T23:41:14.578Z,5,GR86-036-98,-2.9000000000000004,0.077,-0.071,99.83,4.0,,0.0,0.0,181.73
2025-08-14T23:41:14.621Z,5,GR86-036-98,-2.9000000000000004,0.066,-0.085,99.82,4.0,,0.0,0.0,
2025-08-14T23:41:14.664Z,5,GR86-036-98,-2.9000000000000004,0.069,-0.102,99.83,4.0,,0.0,0.0,
2025-08-14T23:41:14.751Z,5,GR86-036-98,-2.9000000000000004,-0.118,-0.056,99.81,5.0,7214.0,0.0,0.0,
2025-08-14T23:41:14.794Z,5,GR86-036-98,-2.9000000000000004,0.19,-0.158,99.81,5.0,,0.0,0.0,183.29
2025-08-14T23:41:14.838Z,5,GR86-036-98,-2.9000000000000004,0.111,-0.051,99.83,5.0,,0.0,0.0,
2025-08-14T23:41:14.881Z,5,GR86-036-98,-2.9000000000000004,0.025,-0.093,99.84,5.0,,0.0,0.0,
2025-08-14T23:41:14.924Z,5,GR86-036-98,-2.9000000000000004,0.096,-0.146,99.82,5.0,,0.0,0.0,
2025-08-14T23:41:14.968Z,5,GR86-036-98,-2.9000000000000004,0.085,-0.068,99.81,5.0,6573.0,0.0,0.0,
2025-08-14T23:41:15.011Z,5,GR86-036-98,-2.9000000000000004,0.049,-0.131,99.82,5.0,,0.0,0.0,183.92
2025-08-14T23:41:15.054Z,5,GR86-036-98,-2.9000000000000004,0.076,-0.06,99.82,5.0,,0.0,0.0,
2025-08-14T23:41:15.100Z,5,GR86-036-98,-2.9000000000000004,0.08,-0.066,99.81,5.0,,0.0,0.0,
2025-08-14T23:41:15.143Z,5,GR86-036-98,-2.9000000000000004,0.083,-0.072,99.83,5.0,,0.0,0.0,
2025-08-14T23:41:15.188Z,5,GR86-036-98,-2.9000000000000004,0.081,-0.073,99.81,5.0,6327.0,0.0,0.0,
2025-08-14T23:41:15.231Z,5,GR86-036-98,-2.9000000000000004,0.075,-0.08,99.84,5.0,,0.0,0.0,184.71
2025-08-14T23:41:15.274Z,5,GR86-036-98,-2.9000000000000004,0.085,-0.092,99.82,5.0,,0.0,0.0,
2025-08-14T23:41:15.317Z,5,GR86-036-98,-2.9000000000000004,0.068,-0.067,99.81,5.0,,0.0,0.0,
2025-08-14T23:41:15.360Z,5,GR86-036-98,-2.9000000000000004,0.043,-0.063,99.81,5.0,,0.0,0.0,
2025-08-14T23:41:15.403Z,5,GR86-036-98,-2.9000000000000004,0.065,-0.076,99.83,5.0,6356.0,0.0,0.0,
2025-08-14T23:41:15.448Z,5,GR86-036-98,-2.9000000000000004,0.097,-0.077,99.82,5.0,,0.0,0.0,185.5
2025-08-14T23:41:15.491Z,5,GR86-036-98,-2.9000000000000004,0.115,-0.092,99.83,5.0,,0.0,0.0,
2025-08-14T23:41:15.534Z,5,GR86-036-98,-2.9000000000000004,0.117,-0.09,99.82,5.0,,0.0,0.0,
2025-08-14T23:41:15.577Z,5,GR86-036-98,-2.9000000000000004,0.108,-0.086,99.83,5.0,,0.0,0.0,
2025-08-14T23:41:15.663Z,5,GR86-036-98,-2.9000000000000004,0.099,-0.098,99.8,5.0,6375.0,0.0,0.0,186.05
2025-08-14T23:41:15.707Z,5,GR86-036-98,-2.9000000000000004,0.083,-0.091,99.82,5.0,,0.0,0.0,
2025-08-14T23:41:15.750Z,5,GR86-036-98,-2.9000000000000004,0.073,-0.122,99.82,5.0,,0.0,0.0,
2025-08-14T23:41:15.793Z,5,GR86-036-98,-2.9000000000000004,0.092,-0.112,99.84,5.0,,0.0,0.0,
2025-08-14T23:41:15.881Z,5,GR86-036-98,-2.9000000000000004,0.063,-0.103,99.81,5.0,6404.0,0.0,0.0,186.7
2025-08-14T23:41:15.924Z,5,GR86-036-98,-2.9000000000000004,0.108,-0.119,99.83,5.0,,0.0,0.0,
2025-08-14T23:41:15.967Z,5,GR86-036-98,-2.9000000000000004,0.071,-0.099,99.81,5.0,,0.0,0.0,
2025-08-14T23:41:16.011Z,5,GR86-036-98,-2.9000000000000004,0.062,-0.12,99.81,5.0,,0.0,0.0,
2025-08-14T23:41:16.054Z,5,GR86-036-98,-2.9000000000000004,0.086,-0.088,99.83,5.0,6432.0,0.0,0.0,
2025-08-14T23:41:16.099Z,5,GR86-036-98,-2.9000000000000004,0.08,-0.12,99.81,5.0,,0.0,0.0,187.5
2025-08-14T23:41:16.142Z,5,GR86-036-98,-2.9000000000000004,0.075,-0.098,99.84,5.0,,0.0,0.0,
2025-08-14T23:41:16.185Z,5,GR86-036-98,-2.9000000000000004,0.095,-0.117,99.82,5.0,,0.0,0.0,
2025-08-14T23:41:16.228Z,5,GR86-036-98,-2.9000000000000004,0.07,-0.103,99.81,5.0,,0.0,0.0,
2025-08-14T23:41:16.271Z,5,GR86-036-98,-2.9000000000000004,0.081,-0.094,99.82,5.0,6450.0,0.0,0.0,
2025-08-14T23:41:16.314Z,5,GR86-036-98,-2.9000000000000004,0.062,-0.103,99.82,5.0,,0.0,0.0,188.25
2025-08-14T23:41:16.358Z,5,GR86-036-98,-2.9000000000000004,0.08,-0.099,99.81,5.0,,0.0,0.0,
2025-08-14T23:41:16.401Z,5,GR86-036-98,-2.9000000000000004,0.082,-0.129,99.83,5.0,,0.0,0.0,
2025-08-14T23:41:16.444Z,5,GR86-036-98,-2.9000000000000004,0.078,-0.07,99.83,5.0,,0.0,0.0,
2025-08-14T23:41:16.488Z,5,GR86-036-98,-2.9000000000000004,0.078,-0.072,99.82,5.0,6486.0,0.0,0.0,
2025-08-14T23:41:16.532Z,5,GR86-036-98,-2.9000000000000004,0.052,-0.075,99.81,5.0,,0.0,0.0,188.82
2025-08-14T23:41:16.575Z,5,GR86-036-98,-2.9000000000000004,0.072,-0.079,99.82,5.0,,0.0,0.0,
2025-08-14T23:41:16.618Z,5,GR86-036-98,-2.9000000000000004,0.06,-0.074,99.82,5.0,,0.0,0.0,
2025-08-14T23:41:16.661Z,5,GR86-036-98,-2.9000000000000004,0.06,-0.063,99.83,5.0,,0.0,0.0,
2025-08-14T23:41:16.704Z,5,GR86-036-98,-2.9000000000000004,0.059,-0.082,99.82,5.0,6492.0,0.0,0.0,
2025-08-14T23:41:16.748Z,5,GR86-036-98,-2.9000000000000004,0.075,-0.084,99.82,5.0,,0.0,0.0,189.61
2025-08-14T23:41:16.791Z,5,GR86-036-98,-2.9000000000000004,0.089,-0.096,99.83,5.0,,0.0,0.0,
2025-08-14T23:41:16.834Z,5,GR86-036-98,-2.9000000000000004,0.073,-0.089,99.82,5.0,,0.0,0.0,
2025-08-14T23:41:16.878Z,5,GR86-036-98,-2.9000000000000004,0.068,-0.093,99.82,5.0,,0.0,0.0,
2025-08-14T23:41:16.921Z,5,GR86-036-98,-2.9000000000000004,0.052,-0.078,99.84,5.0,6509.0,0.0,0.0,
2025-08-14T23:41:16.964Z,5,GR86-036-98,-2.9000000000000004,0.045,-0.078,99.81,5.0,,0.0,0.0,190.26
2025-08-14T23:41:17.008Z,5,GR86-036-98,-2.9000000000000004,0.089,-0.101,99.81,5.0,,0.0,0.0,
2025-08-14T23:41:17.052Z,5,GR86-036-98,-2.9000000000000004,0.087,-0.096,99.82,5.0,,0.0,0.0,
2025-08-14T23:41:17.095Z,5,GR86-036-98,-2.9000000000000004,0.065,-0.089,99.83,5.0,,0.0,0.0,
2025-08-14T23:41:17.138Z,5,GR86-036-98,-2.7,0.077,-0.074,99.82,5.0,6547.0,0.0,0.0,
2025-08-14T23:41:17.181Z,5,GR86-036-98,-2.5,0.058,-0.064,99.81,5.0,,0.0,0.0,190.83
2025-08-14T23:41:17.224Z,5,GR86-036-98,-2.4000000000000004,0.051,-0.088,99.82,5.0,,0.0,0.0,
2025-08-14T23:41:17.268Z,5,GR86-036-98,-2.0,0.093,-0.074,99.82,5.0,,0.0,0.0,
2025-08-14T23:41:17.311Z,5,GR86-036-98,-1.4,0.096,-0.048,99.83,5.0,,0.0,0.0,
2025-08-14T23:41:17.354Z,5,GR86-036-98,-0.8,0.081,-0.04,99.81,5.0,6561.0,0.0,0.0,
2025-08-14T23:41:17.399Z,5,GR86-036-98,-0.6000000000000001,0.069,-0.021,99.83,5.0,,0.0,0.0,192.07
2025-08-14T23:41:17.442Z,5,GR86-036-98,-0.6000000000000001,0.077,-0.007,99.82,5.0,,0.0,0.0,
2025-08-14T23:41:17.485Z,5,GR86-036-98,-0.6000000000000001,0.057,0.018,99.81,5.0,,0.0,0.0,
2025-08-14T23:41:17.528Z,5,GR86-036-98,-0.5,0.082,0.03,99.82,5.0,,0.0,0.0,
2025-08-14T23:41:17.571Z,5,GR86-036-98,-0.5,0.093,0.032,99.81,5.0,6574.0,0.0,0.0,
2025-08-14T23:41:17.614Z,5,GR86-036-98,-0.5,0.089,0.04,99.82,5.0,,0.0,0.0,192.62
2025-08-14T23:41:17.657Z,5,GR86-036-98,-0.5,0.074,0.056,99.81,5.0,,0.0,0.0,
2025-08-14T23:41:17.700Z,5,GR86-036-98,-0.5,0.082,0.069,99.82,5.0,,0.0,0.0,
2025-08-14T23:41:17.788Z,5,GR86-036-98,-0.5,0.072,0.063,99.83,5.0,6618.0,0.0,0.0,
2025-08-14T23:41:17.831Z,5,GR86-036-98,-0.5,0.084,0.065,99.82,5.0,,0.0,0.0,193.03
2025-08-14T23:41:17.874Z,5,GR86-036-98,-0.5,0.074,0.073,99.81,5.0,,0.0,0.0,
2025-08-14T23:41:17.917Z,5,GR86-036-98,-0.5,0.086,0.07,99.82,5.0,,3.13,3.13,
2025-08-14T23:41:17.960Z,5,GR86-036-98,-0.5,0.043,0.072,99.81,5.0,,2.075,2.105,
2025-08-14T23:41:18.003Z,5,GR86-036-98,-0.5,0.045,0.051,99.81,5.0,6637.0,0.0,0.0,
2025-08-14T23:41:18.047Z,5,GR86-036-98,-0.5,0.072,0.045,99.81,5.0,,0.0,0.0,193.57
2025-08-14T23:41:18.091Z,5,GR86-036-98,-0.5,0.08,0.043,99.82,5.0,,0.0,0.0,
2025-08-14T23:41:18.134Z,5,GR86-036-98,-0.5,0.09,0.038,99.81,5.0,,3.465,3.465,
2025-08-14T23:41:18.177Z,5,GR86-036-98,-0.5,0.04,0.038,99.83,5.0,,2.135,2.105,
2025-08-14T23:41:18.220Z,5,GR86-036-98,-0.1,0.047,0.036,99.82,5.0,6651.0,0.0,0.0,
2025-08-14T23:41:18.263Z,5,GR86-036-98,0.7000000000000001,0.051,0.047,99.82,5.0,,0.0,0.0,194.08
2025-08-14T23:41:18.308Z,5,GR86-036-98,0.8,0.055,0.071,99.81,5.0,,0.0,0.0,
2025-08-14T23:41:18.351Z,5,GR86-036-98,0.8,0.088,0.07,99.83,5.0,,2.395,2.4250000000000003,
2025-08-14T23:41:18.394Z,5,GR86-036-98,0.8,0.045,0.077,99.82,5.0,,0.0,0.0,
2025-08-14T23:41:18.438Z,5,GR86-036-98,0.9,0.048,0.08,99.81,5.0,6682.0,0.0,0.0,
2025-08-14T23:41:18.481Z,5,GR86-036-98,0.9,0.065,0.089,99.82,5.0,,0.0,0.0,194.4
2025-08-14T23:41:18.524Z,5,GR86-036-98,1.7000000000000002,0.059,0.107,99.81,5.0,,0.0,0.0,
2025-08-14T23:41:18.568Z,5,GR86-036-98,2.6,0.079,0.134,99.82,5.0,,2.395,2.485,
2025-08-14T23:41:18.611Z,5,GR86-036-98,2.7,0.042,0.146,99.82,5.0,,2.045,1.955,
2025-08-14T23:41:18.654Z,5,GR86-036-98,2.7,0.056,0.156,99.82,5.0,6678.0,0.0,0.0,
2025-08-14T23:41:18.699Z,5,GR86-036-98,2.7,0.053,0.168,99.82,5.0,,0.0,0.0,195.05
2025-08-14T23:41:18.742Z,5,GR86-036-98,2.7,0.058,0.15,99.82,5.0,,0.0,0.0,
2025-08-14T23:41:18.785Z,5,GR86-036-98,2.7,0.042,0.139,99.83,5.0,,0.0,0.0,
2025-08-14T23:41:18.871Z,5,GR86-036-98,4.4,0.046,0.193,99.82,5.0,6692.0,0.0,0.0,
2025-08-14T23:41:18.914Z,5,GR86-036-98,4.4,0.054,0.216,99.82,5.0,,0.0,0.0,195.53
2025-08-14T23:41:18.959Z,5,GR86-036-98,4.5,0.062,0.216,99.83,5.0,,0.0,0.0,
2025-08-14T23:41:19.002Z,5,GR86-036-98,4.5,0.048,0.218,99.82,5.0,,0.0,0.0,
2025-08-14T23:41:19.045Z,5,GR86-036-98,4.5,0.049,0.193,99.83,5.0,,2.395,2.4250000000000003,
2025-08-14T23:41:19.088Z,5,GR86-036-98,4.800000000000001,0.043,0.216,99.81,5.0,6714.0,0.0,0.0,
2025-08-14T23:41:19.131Z,5,GR86-036-98,5.800000000000001,0.05,0.237,99.82,5.0,,0.0,0.0,195.94
2025-08-14T23:41:19.174Z,5,GR86-036-98,6.1000000000000005,0.058,0.254,99.8,5.0,,0.0,0.0,
2025-08-14T23:41:19.217Z,5,GR86-036-98,6.1000000000000005,0.056,0.254,99.81,5.0,,0.0,0.0,
2025-08-14T23:41:19.260Z,5,GR86-036-98,6.1000000000000005,0.048,0.27,99.81,5.0,,0.0,1.985,
2025-08-14T23:41:19.303Z,5,GR86-036-98,6.1000000000000005,0.031,0.264,99.81,5.0,6733.0,0.0,0.0,
2025-08-14T23:41:19.348Z,5,GR86-036-98,6.1000000000000005,0.074,0.27,99.81,5.0,,0.0,0.0,196.45
2025-08-14T23:41:19.391Z,5,GR86-036-98,6.1000000000000005,0.053,0.295,99.82,5.0,,0.0,0.0,
2025-08-14T23:41:19.434Z,5,GR86-036-98,6.1000000000000005,0.057,0.29,99.81,5.0,,0.0,0.0,
2025-08-14T23:41:19.477Z,5,GR86-036-98,6.1000000000000005,0.039,0.295,99.83,5.0,,0.0,0.0,
2025-08-14T23:41:19.520Z,5,GR86-036-98,6.1000000000000005,0.048,0.272,99.82,5.0,6753.0,0.0,0.0,
2025-08-14T23:41:19.563Z,5,GR86-036-98,6.1000000000000005,0.055,0.288,99.82,5.0,,0.0,0.0,196.97
2025-08-14T23:41:19.607Z,5,GR86-036-98,6.300000000000001,0.059,0.291,99.82,5.0,,0.0,0.0,
2025-08-14T23:41:19.651Z,5,GR86-036-98,6.300000000000001,0.036,0.303,99.79,5.0,,0.0,0.0,
2025-08-14T23:41:19.694Z,5,GR86-036-98,6.300000000000001,0.043,0.301,99.81,5.0,,0.0,0.0,
2025-08-14T23:41:19.738Z,5,GR86-036-98,6.300000000000001,0.046,0.284,99.81,5.0,6765.0,0.0,0.0,
2025-08-14T23:41:19.781Z,5,GR86-036-98,6.300000000000001,0.056,0.267,99.81,5.0,,0.0,0.0,197.54
2025-08-14T23:41:19.824Z,5,GR86-036-98,6.300000000000001,0.071,0.246,99.82,5.0,,0.0,0.0,
2025-08-14T23:41:19.867Z,5,GR86-036-98,6.300000000000001,0.055,0.242,99.82,5.0,,0.0,0.0,
2025-08-14T23:41:19.911Z,5,GR86-036-98,6.300000000000001,0.042,0.221,99.83,5.0,,0.0,0.0,
2025-08-14T23:41:19.999Z,5,GR86-036-98,6.300000000000001,0.053,0.251,99.81,5.0,6782.0,0.0,0.0,198.38
2025-08-14T23:41:20.042Z,5,GR86-036-98,6.300000000000001,0.077,0.266,99.8,5.0,,0.0,0.0,
2025-08-14T23:41:20.085Z,5,GR86-036-98,6.300000000000001,0.085,0.284,99.82,5.0,,0.0,0.0,
2025-08-14T23:41:20.128Z,5,GR86-036-98,6.300000000000001,0.064,0.272,99.82,5.0,,0.0,0.0,
2025-08-14T23:41:20.171Z,5,GR86-036-98,6.300000000000001,0.065,0.246,99.81,5.0,6809.0,0.0,0.0,
2025-08-14T23:41:20.214Z,5,GR86-036-98,6.300000000000001,0.07,0.254,99.83,5.0,,0.0,0.0,198.98
2025-08-14T23:41:20.258Z,5,GR86-036-98,6.4,0.083,0.257,99.8,5.0,,0.0,0.0,
2025-08-14T23:41:20.301Z,5,GR86-036-98,7.5,0.075,0.292,99.79,5.0,,0.0,0.0,
2025-08-14T23:41:20.344Z,5,GR86-036-98,8.1,0.05,0.293,99.81,5.0,,0.0,0.0,
2025-08-14T23:41:20.388Z,5,GR86-036-98,8.200000000000001,0.075,0.293,99.8,5.0,6838.0,0.0,0.0,
2025-08-14T23:41:20.432Z,5,GR86-036-98,8.200000000000001,0.077,0.281,99.8,5.0,,0.0,0.0,199.49
2025-08-14T23:41:20.475Z,5,GR86-036-98,8.200000000000001,0.067,0.266,99.82,5.0,,0.0,0.0,
2025-08-14T23:41:20.518Z,5,GR86-036-98,8.200000000000001,0.06,0.301,99.82,5.0,,0.0,0.0,
2025-08-14T23:41:20.561Z,5,GR86-036-98,8.200000000000001,0.052,0.328,99.82,5.0,,0.0,0.0,
2025-08-14T23:41:20.604Z,5,GR86-036-98,8.200000000000001,0.054,0.334,99.82,5.0,6860.0,0.0,0.0,
2025-08-14T23:41:20.648Z,5,GR86-036-98,9.0,0.064,0.371,99.82,5.0,,0.0,0.0,199.87
2025-08-14T23:41:20.691Z,5,GR86-036-98,9.1,0.057,0.361,99.82,5.0,,0.0,0.0,
2025-08-14T23:41:20.734Z,5,GR86-036-98,9.1,0.042,0.365,99.81,5.0,,0.0,0.0,
2025-08-14T23:41:20.778Z,5,GR86-036-98,9.1,0.036,0.362,99.83,5.0,,0.0,0.0,
2025-08-14T23:41:20.821Z,5,GR86-036-98,9.1,0.052,0.341,99.8,5.0,6878.0,0.0,0.0,
2025-08-14T23:41:20.864Z,5,GR86-036-98,9.1,0.08,0.378,99.83,5.0,,0.0,0.0,200.48
2025-08-14T23:41:20.908Z,5,GR86-036-98,8.4,0.056,0.353,99.82,5.0,,0.0,0.0,
2025-08-14T23:41:20.952Z,5,GR86-036-98,7.9,0.037,0.357,99.81,5.0,,0.0,0.0,
2025-08-14T23:41:20.995Z,5,GR86-036-98,7.7,0.058,0.351,99.82,5.0,,0.0,0.0,
2025-08-14T23:41:21.038Z,5,GR86-036-98,7.6,0.07,0.348,99.82,5.0,6912.0,0.0,0.0,
2025-08-14T23:41:21.081Z,5,GR86-036-98,7.6,0.076,0.373,99.77,5.0,,0.0,0.0,200.81
2025-08-14T23:41:21.124Z,5,GR86-036-98,7.5,0.079,0.397,58.76,5.0,,0.0,0.0,
2025-08-14T23:41:21.168Z,5,GR86-036-98,7.5,0.027,0.386,11.15,5.0,,9.28,9.155,
2025-08-14T23:41:21.211Z,5,GR86-036-98,7.5,-0.113,0.387,5.01,5.0,,14.025,13.765,
2025-08-14T23:41:21.254Z,5,GR86-036-98,7.5,-0.347,0.395,4.8,5.0,6915.0,18.65,18.405,
2025-08-14T23:41:21.299Z,5,GR86-036-98,7.5,-0.475,0.405,4.53,5.0,,20.235,20.265,201.39
2025-08-14T23:41:21.342Z,5,GR86-036-98,7.5,-0.641,0.309,4.19,5.0,,20.205,20.51,
2025-08-14T23:41:21.385Z,5,GR86-036-98,7.5,-0.536,0.248,3.92,5.0,,20.205,20.555,
2025-08-14T23:41:21.428Z,5,GR86-036-98,7.5,-0.499,0.183,3.44,5.0,,20.115,20.235,
2025-08-14T23:41:21.471Z,5,GR86-036-98,7.5,-0.549,0.19,3.06,5.0,6630.0,23.09,22.905,
2025-08-14T23:41:21.514Z,5,GR86-036-98,7.5,-0.649,0.19,2.78,5.0,,32.015,31.48,199.88
2025-08-14T23:41:21.557Z,5,GR86-036-98,7.5,-0.797,0.176,2.64,5.0,,42.925,42.12,
2025-08-14T23:41:21.600Z,5,GR86-036-98,7.4,-0.941,0.193,2.5500000000000003,5.0,,56.370000000000005,55.15,
2025-08-14T23:41:21.643Z,5,GR86-036-98,7.4,-1.062,0.195,2.53,5.0,,70.715,69.4,
2025-08-14T23:41:21.688Z,5,GR86-036-98,7.4,-1.077,0.101,2.5,5.0,6431.0,92.035,91.835,
2025-08-14T23:41:21.731Z,5,GR86-036-98,7.4,-1.069,0.139,2.49,5.0,,101.8,101.585,195.43
2025-08-14T23:41:21.774Z,5,GR86-036-98,7.4,-1.115,0.16,2.51,5.0,,100.9,102.075,
2025-08-14T23:41:21.817Z,5,GR86-036-98,7.4,-1.045,0.138,2.5,5.0,,91.59,93.36,
2025-08-14T23:41:21.860Z,5,GR86-036-98,7.4,-1.015,0.158,2.5,5.0,,84.645,86.125,
2025-08-14T23:41:21.903Z,5,GR86-036-98,8.0,-0.972,0.025,2.5,5.0,5699.0,69.435,70.515,
2025-08-14T23:41:21.947Z,5,GR86-036-98,13.3,-0.776,0.139,2.49,5.0,,38.18,39.19,182.87
2025-08-14T23:41:21.991Z,5,GR86-036-98,14.8,-0.708,0.134,2.49,5.0,,27.865,28.72,
2025-08-14T23:41:22.034Z,5,GR86-036-98,16.0,-0.611,0.14,2.49,5.0,,21.655,22.28,
2025-08-14T23:41:22.077Z,5,GR86-036-98,17.3,-0.517,0.142,2.49,5.0,,16.65,17.275000000000002,
2025-08-14T23:41:22.120Z,5,GR86-036-98,17.7,-0.474,0.154,2.5,5.0,5768.0,14.68,15.215,
2025-08-14T23:41:22.163Z,5,GR86-036-98,17.7,-0.443,0.201,2.49,5.0,,16.19,16.62,173.05
2025-08-14T23:41:22.208Z,5,GR86-036-98,12.6,-0.539,0.261,2.49,5.0,,22.935,23.025,
2025-08-14T23:41:22.251Z,5,GR86-036-98,5.1000000000000005,-0.656,0.258,2.49,5.0,,29.59,29.59,
2025-08-14T23:41:22.294Z,5,GR86-036-98,-0.2,-0.716,0.217,2.49,5.0,,36.395,36.425,
2025-08-14T23:41:22.338Z,5,GR86-036-98,-2.2,-0.805,0.192,2.48,5.0,5906.0,42.65,42.605,
2025-08-14T23:41:22.381Z,5,GR86-036-98,-2.3000000000000003,-0.85,0.178,2.49,5.0,,47.275,47.365,176.61
2025-08-14T23:41:22.424Z,5,GR86-036-98,-0.7000000000000001,-0.933,0.231,15.05,5.0,,51.455,51.395,
2025-08-14T23:41:22.468Z,5,GR86-036-98,9.7,-1.008,0.335,41.93,4.0,,60.08,59.71,
2025-08-14T23:41:22.511Z,5,GR86-036-98,11.9,-0.948,0.261,5.36,4.0,,66.73,67.58500000000001,
2025-08-14T23:41:22.554Z,5,GR86-036-98,12.0,-0.789,0.289,4.42,4.0,5696.0,67.815,68.805,
2025-08-14T23:41:22.599Z,5,GR86-036-98,14.0,-0.8260000000000001,0.261,4.13,4.0,,55.24,55.775,167.04
2025-08-14T23:41:22.642Z,5,GR86-036-98,14.7,-0.877,0.279,3.9,4.0,,48.68,48.74,
2025-08-14T23:41:22.685Z,5,GR86-036-98,14.7,-0.729,0.378,3.66,4.0,,45.305,46.025,
2025-08-14T23:41:22.728Z,5,GR86-036-98,11.6,-0.732,0.34,3.14,4.0,,46.375,47.215,
2025-08-14T23:41:22.771Z,5,GR86-036-98,11.1,-0.734,0.245,2.81,4.0,5592.0,57.24,57.775,
2025-08-14T23:41:22.814Z,5,GR86-036-98,11.0,-0.638,0.262,2.69,4.0,,67.42,68.12,152.42000000000002
2025-08-14T23:41:22.859Z,5,GR86-036-98,6.0,-0.782,0.358,2.62,4.0,,72.865,73.66,
2025-08-14T23:41:22.902Z,5,GR86-036-98,-1.4,-0.861,0.35,2.57,4.0,,80.56,80.74,
2025-08-14T23:41:22.945Z,5,GR86-036-98,-6.6000000000000005,-1.015,0.326,2.53,4.0,,86.645,86.935,
2025-08-14T23:41:22.988Z,5,GR86-036-98,-8.8,-1.0,0.339,2.49,4.0,5739.0,87.365,87.805,
2025-08-14T23:41:23.031Z,5,GR86-036-98,-9.4,-0.995,0.326,2.48,4.0,,87.9,87.83500000000001,152.92000000000002
2025-08-14T23:41:23.074Z,5,GR86-036-98,-10.3,-1.053,0.206,2.46,4.0,,89.12,90.2,
2025-08-14T23:41:23.117Z,5,GR86-036-98,-10.4,-0.787,0.182,13.01,4.0,,88.615,89.12,
2025-08-14T23:41:23.160Z,5,GR86-036-98,-7.5,-0.763,0.129,56.33,4.0,,83.55,83.33500000000001,
2025-08-14T23:41:23.203Z,5,GR86-036-98,0.4,-0.8300000000000001,0.12,97.58,4.0,5515.0,72.21000000000001,72.895,
2025-08-14T23:41:23.248Z,5,GR86-036-98,13.8,-0.81,0.122,43.35,3.0,,48.265,49.135,145.69
2025-08-14T23:41:23.291Z,5,GR86-036-98,21.200000000000003,-0.856,0.281,3.87,3.0,,41.86,42.925,
2025-08-14T23:41:23.334Z,5,GR86-036-98,22.0,-0.876,0.227,2.84,3.0,,36.485,37.11,
2025-08-14T23:41:23.420Z,5,GR86-036-98,18.6,-0.779,0.153,2.63,3.0,5918.0,30.58,30.855,
2025-08-14T23:41:23.508Z,5,GR86-036-98,-5.6000000000000005,-0.622,0.103,2.5,3.0,,27.53,27.895,142.15
2025-08-14T23:41:23.551Z,5,GR86-036-98,-12.4,-0.645,0.043,2.46,3.0,,25.925,26.325,
2025-08-14T23:41:23.638Z,5,GR86-036-98,-1.0,-0.71,0.045,2.45,3.0,6410.0,28.275,28.275,
2025-08-14T23:41:23.724Z,5,GR86-036-98,6.0,-0.687,0.039,2.45,3.0,,28.615,28.995,141.6
2025-08-14T23:41:23.767Z,5,GR86-036-98,10.2,-0.6970000000000001,0.094,2.46,3.0,,31.77,32.17,
2025-08-14T23:41:23.811Z,5,GR86-036-98,7.300000000000001,-0.722,-0.019,2.46,3.0,,32.96,33.1,
2025-08-14T23:41:23.854Z,5,GR86-036-98,3.8,-0.771,-0.044,2.45,3.0,6230.0,35.89,35.86,
2025-08-14T23:41:23.899Z,5,GR86-036-98,3.5,-0.8,-0.082,2.46,3.0,,40.27,40.47,137.96
2025-08-14T23:41:23.942Z,5,GR86-036-98,4.0,-0.865,-0.08,2.45,3.0,,46.375,46.24,
2025-08-14T23:41:23.985Z,5,GR86-036-98,10.0,-1.018,-0.018,2.46,3.0,,53.93,53.425,
2025-08-14T23:41:24.028Z,5,GR86-036-98,15.8,-1.123,0.032,25.96,3.0,,61.97,61.27,
2025-08-14T23:41:24.071Z,5,GR86-036-98,18.6,-1.034,0.052,52.93,2.0,5857.0,61.97,62.625,
2025-08-14T23:41:24.114Z,5,GR86-036-98,21.1,-0.926,0.045,5.76,2.0,,54.585,55.745000000000005,132.1
2025-08-14T23:41:24.158Z,5,GR86-036-98,21.200000000000003,-0.709,0.118,4.5600000000000005,2.0,,42.715,43.855,
2025-08-14T23:41:24.201Z,5,GR86-036-98,19.1,-0.907,0.021,4.19,2.0,,33.19,33.8,
2025-08-14T23:41:24.244Z,5,GR86-036-98,16.0,-0.856,0.125,3.91,2.0,,29.36,29.865,
2025-08-14T23:41:24.289Z,5,GR86-036-98,15.6,-0.857,0.087,3.54,2.0,5780.0,32.93,33.465,
2025-08-14T23:41:24.332Z,5,GR86-036-98,15.6,-1.029,0.112,3.17,2.0,,35.555,36.245,122.11
2025-08-14T23:41:24.375Z,5,GR86-036-98,15.6,-0.847,0.334,2.83,2.0,,38.5,39.31,
2025-08-14T23:41:24.418Z,5,GR86-036-98,15.6,-0.762,0.086,2.65,2.0,,40.025,40.685,
2025-08-14T23:41:24.504Z,5,GR86-036-98,14.6,-0.969,0.302,2.53,2.0,6351.0,40.835,41.675,
2025-08-14T23:41:24.548Z,5,GR86-036-98,9.8,-0.68,0.258,2.43,2.0,,30.215,30.305,120.11
2025-08-14T23:41:24.591Z,5,GR86-036-98,9.8,-0.587,0.361,2.43,2.0,,25.745,25.925,
2025-08-14T23:41:24.634Z,5,GR86-036-98,12.2,-0.599,0.277,2.43,2.0,,25.21,25.3,
2025-08-14T23:41:24.678Z,5,GR86-036-98,12.4,-0.607,0.36,2.43,2.0,,25.635,25.835,
2025-08-14T23:41:24.721Z,5,GR86-036-98,12.4,-0.66,0.401,2.44,2.0,6480.0,26.23,26.295,
2025-08-14T23:41:24.764Z,5,GR86-036-98,9.7,-0.7030000000000001,0.321,2.43,2.0,,28.52,28.645,115.66
2025-08-14T23:41:24.808Z,5,GR86-036-98,7.6,-0.754,0.338,2.44,2.0,,32.9,32.9,
2025-08-14T23:41:24.894Z,5,GR86-036-98,7.5,-0.746,0.254,2.45,2.0,,33.160000000000004,33.65,
2025-08-14T23:41:24.938Z,5,GR86-036-98,13.6,-0.773,0.289,2.46,2.0,6202.0,37.295,37.355,
2025-08-14T23:41:24.981Z,5,GR86-036-98,21.8,-0.872,0.293,17.35,2.0,,43.52,43.14,112.37
2025-08-14T23:41:25.024Z,5,GR86-036-98,27.6,-0.907,0.356,60.78,1.0,,51.505,51.03,
2025-08-14T23:41:25.068Z,5,GR86-036-98,31.6,-0.915,0.213,5.21,1.0,,65.525,65.895,
2025-08-14T23:41:25.111Z,5,GR86-036-98,35.1,-1.054,0.392,4.55,1.0,,75.185,76.455,
2025-08-14T23:41:25.154Z,5,GR86-036-98,35.1,-0.726,0.414,4.26,1.0,5863.0,70.12,71.4,
2025-08-14T23:41:25.199Z,5,GR86-036-98,35.1,-0.98,0.318,3.97,1.0,,66.55,66.93,98.67
2025-08-14T23:41:25.242Z,5,GR86-036-98,35.0,-0.764,0.465,3.69,1.0,,67.465,68.715,
2025-08-14T23:41:25.285Z,5,GR86-036-98,34.9,-0.879,0.403,3.28,1.0,,66.075,66.795,
2025-08-14T23:41:25.328Z,5,GR86-036-98,34.9,-1.076,0.62,2.71,1.0,,69.02,69.555,
2025-08-14T23:41:25.371Z,5,GR86-036-98,35.1,-0.914,0.504,2.56,1.0,5882.0,79.84,80.62,
2025-08-14T23:41:25.414Z,5,GR86-036-98,43.3,-0.719,0.333,2.5,1.0,,81.96000000000001,82.62,92.65
2025-08-14T23:41:25.457Z,5,GR86-036-98,48.8,-0.925,0.582,2.47,1.0,,81.425,81.52,
2025-08-14T23:41:25.500Z,5,GR86-036-98,51.400000000000006,-0.8210000000000001,0.494,2.44,1.0,,82.33,82.435,
2025-08-14T23:41:25.543Z,5,GR86-036-98,60.7,-0.944,0.396,2.44,1.0,,88.08,88.95,
2025-08-14T23:41:25.588Z,5,GR86-036-98,69.8,-0.912,0.781,2.43,1.0,5999.0,81.46000000000001,81.52,
2025-08-14T23:41:25.631Z,5,GR86-036-98,70.2,-0.947,0.553,2.43,1.0,,78.71000000000001,78.36,88.2
2025-08-14T23:41:25.674Z,5,GR86-036-98,71.60000000000001,-0.778,0.599,2.43,1.0,,79.185,79.9,
2025-08-14T23:41:25.717Z,5,GR86-036-98,73.9,-0.881,0.597,2.43,1.0,,71.02,72.395,
2025-08-14T23:41:25.760Z,5,GR86-036-98,74.5,-0.766,0.623,2.43,1.0,,63.315000000000005,63.835,
2025-08-14T23:41:25.803Z,5,GR86-036-98,74.5,-0.874,0.608,2.44,1.0,5762.0,62.505,62.185,
2025-08-14T23:41:25.847Z,5,GR86-036-98,75.60000000000001,-0.859,0.539,2.43,1.0,,64.43,65.115,83.12
2025-08-14T23:41:25.891Z,5,GR86-036-98,76.3,-0.8140000000000001,0.664,2.44,1.0,,57.5,58.675,
2025-08-14T23:41:25.934Z,5,GR86-036-98,77.5,-0.738,0.458,2.43,1.0,,51.96,52.405,
2025-08-14T23:41:25.977Z,5,GR86-036-98,79.2,-0.6990000000000001,0.665,2.44,1.0,,49.61,49.765,
2025-08-14T23:41:26.020Z,5,GR86-036-98,81.4,-0.758,0.6930000000000001,2.43,1.0,5353.0,43.43,44.375,
2025-08-14T23:41:26.063Z,5,GR86-036-98,82.9,-0.769,0.625,2.44,1.0,,41.705,42.485,78.14
2025-08-14T23:41:26.108Z,5,GR86-036-98,88.0,-0.75,0.602,2.43,1.0,,38.21,39.155,
2025-08-14T23:41:26.194Z,5,GR86-036-98,90.0,-0.584,0.838,2.43,1.0,,21.41,21.745,
2025-08-14T23:41:26.238Z,5,GR86-036-98,90.0,-0.596,0.6960000000000001,2.44,1.0,4995.0,20.6,20.965,
2025-08-14T23:41:26.281Z,5,GR86-036-98,90.8,-0.552,0.765,2.44,1.0,,17.745,18.205,74.22
2025-08-14T23:41:26.324Z,5,GR86-036-98,93.0,-0.477,0.776,2.45,1.0,,10.805,11.245,
2025-08-14T23:41:26.368Z,5,GR86-036-98,95.0,-0.268,0.892,2.44,1.0,,0.0,0.0,
2025-08-14T23:41:26.454Z,5,GR86-036-98,96.1,-0.193,0.899,2.44,1.0,4827.0,0.0,0.0,
2025-08-14T23:41:26.499Z,5,GR86-036-98,96.5,-0.178,0.939,2.47,1.0,,0.0,0.0,70.81
2025-08-14T23:41:26.542Z,5,GR86-036-98,97.5,-0.169,0.924,2.46,1.0,,0.0,0.0,
2025-08-14T23:41:26.585Z,5,GR86-036-98,98.3,-0.177,0.94,2.46,1.0,,0.0,0.0,
2025-08-14T23:41:26.628Z,5,GR86-036-98,99.1,-0.166,0.928,2.47,1.0,,0.0,0.0,
2025-08-14T23:41:26.671Z,5,GR86-036-98,99.1,-0.171,0.921,2.46,1.0,4824.0,0.0,0.0,
2025-08-14T23:41:26.714Z,5,GR86-036-98,99.1,-0.155,0.944,2.46,1.0,,0.0,0.0,69.39
2025-08-14T23:41:26.759Z,5,GR86-036-98,99.1,-0.156,0.955,2.46,1.0,,0.0,0.0,
2025-08-14T23:41:26.802Z,5,GR86-036-98,95.5,-0.164,1.001,2.47,1.0,,0.0,0.0,
2025-08-14T23:41:26.845Z,5,GR86-036-98,94.4,-0.146,1.001,2.46,1.0,,0.0,0.0,
2025-08-14T23:41:26.888Z,5,GR86-036-98,94.4,-0.163,0.954,2.46,1.0,4710.0,0.0,0.0,
2025-08-14T23:41:26.931Z,5,GR86-036-98,96.5,-0.173,1.023,2.46,1.0,,0.0,0.0,67.89
2025-08-14T23:41:26.974Z,5,GR86-036-98,97.2,-0.166,1.013,2.47,1.0,,0.0,0.0,
2025-08-14T23:41:27.060Z,5,GR86-036-98,97.2,-0.161,1.044,2.47,1.0,,0.0,0.0,
2025-08-14T23:41:27.103Z,5,GR86-036-98,97.2,-0.164,1.016,2.47,1.0,4583.0,0.0,0.0,
2025-08-14T23:41:27.148Z,5,GR86-036-98,97.2,-0.162,1.005,2.98,1.0,,0.0,0.0,66.57000000000001
2025-08-14T23:41:27.191Z,5,GR86-036-98,97.2,-0.172,1.004,5.5,1.0,,0.0,0.0,
2025-08-14T23:41:27.234Z,5,GR86-036-98,97.2,-0.162,1.016,9.16,1.0,,0.0,0.0,
2025-08-14T23:41:27.277Z,5,GR86-036-98,97.2,-0.161,1.005,20.56,1.0,,0.0,0.0,
2025-08-14T23:41:27.320Z,5,GR86-036-98,97.2,-0.155,0.988,21.04,1.0,4455.0,0.0,0.0,
2025-08-14T23:41:27.407Z,5,GR86-036-98,97.2,-0.127,1.002,22.77,1.0,,0.0,0.0,65.05
2025-08-14T23:41:27.450Z,5,GR86-036-98,97.2,-0.106,0.966,27.32,1.0,,0.0,0.0,
2025-08-14T23:41:27.493Z,5,GR86-036-98,97.2,-0.038,1.014,28.11,1.0,,0.0,0.0,
2025-08-14T23:41:27.538Z,5,GR86-036-98,97.2,0.189,0.98,29.52,1.0,4432.0,0.0,0.0,
2025-08-14T23:41:27.581Z,5,GR86-036-98,97.2,0.186,0.931,30.06,1.0,,0.0,0.0,63.46
2025-08-14T23:41:27.624Z,5,GR86-036-98,97.2,0.219,1.002,29.85,1.0,,0.0,0.0,
2025-08-14T23:41:27.667Z,5,GR86-036-98,97.2,0.208,0.994,27.04,1.0,,0.0,0.0,
2025-08-14T23:41:27.710Z,5,GR86-036-98,97.2,0.189,1.047,27.38,1.0,,0.0,0.0,
2025-08-14T23:41:27.753Z,5,GR86-036-98,97.2,0.158,1.043,29.51,1.0,4950.0,0.0,0.0,
2025-08-14T23:41:27.796Z,5,GR86-036-98,97.2,0.179,1.03,31.91,1.0,,0.0,0.0,62.440000000000005
2025-08-14T23:41:27.839Z,5,GR86-036-98,93.1,0.224,1.009,32.26,1.0,,0.0,0.0,
2025-08-14T23:41:27.882Z,5,GR86-036-98,80.4,0.251,0.996,31.81,1.0,,0.0,0.0,
2025-08-14T23:41:27.925Z,5,GR86-036-98,60.7,0.264,0.966,30.73,1.0,,0.0,0.0,
2025-08-14T23:41:27.968Z,5,GR86-036-98,28.200000000000003,0.291,0.906,31.38,1.0,5020.0,0.0,0.0,
2025-08-14T23:41:28.011Z,5,GR86-036-98,15.7,0.269,0.8300000000000001,32.01,1.0,,0.0,0.0,63.59
2025-08-14T23:41:28.054Z,5,GR86-036-98,14.3,0.28,0.848,34.12,1.0,,0.0,0.0,
2025-08-14T23:41:28.099Z,5,GR86-036-98,14.3,0.267,0.8320000000000001,46.54,1.0,,0.0,0.0,
2025-08-14T23:41:28.142Z,5,GR86-036-98,14.3,0.257,0.889,81.01,1.0,,0.0,0.0,
2025-08-14T23:41:28.185Z,5,GR86-036-98,12.2,0.301,0.885,99.65,1.0,5092.0,0.0,0.0,
2025-08-14T23:41:28.228Z,5,GR86-036-98,-6.1000000000000005,0.306,0.809,99.77,1.0,,0.0,0.0,64.82000000000001
2025-08-14T23:41:28.271Z,5,GR86-036-98,-15.9,0.351,0.744,99.78,1.0,,0.0,0.0,
2025-08-14T23:41:28.314Z,5,GR86-036-98,-22.0,0.362,0.646,99.79,1.0,,0.0,0.0,
2025-08-14T23:41:28.358Z,5,GR86-036-98,-26.700000000000003,0.38,0.673,99.77,1.0,,0.0,0.0,
2025-08-14T23:41:28.401Z,5,GR86-036-98,-29.8,0.38,0.626,99.78,1.0,5489.0,0.0,0.0,
2025-08-14T23:41:28.444Z,5,GR86-036-98,-29.9,0.39,0.605,99.8,1.0,,0.0,0.0,65.97
2025-08-14T23:41:28.488Z,5,GR86-036-98,-19.700000000000003,0.38,0.631,99.78,1.0,,0.0,0.0,
2025-08-14T23:41:28.531Z,5,GR86-036-98,-12.3,0.413,0.716,99.8,1.0,,0.0,0.0,
2025-08-14T23:41:28.574Z,5,GR86-036-98,-6.0,0.438,0.717,99.79,1.0,,0.0,0.0,
2025-08-14T23:41:28.617Z,5,GR86-036-98,5.6000000000000005,0.453,0.7020000000000001,99.81,1.0,5633.0,0.0,0.0,
2025-08-14T23:41:28.660Z,5,GR86-036-98,20.9,0.447,0.801,99.8,1.0,,0.0,0.0,67.43
2025-08-14T23:41:28.703Z,5,GR86-036-98,34.5,0.423,0.8130000000000001,99.79,1.0,,0.0,0.0,
2025-08-14T23:41:28.748Z,5,GR86-036-98,42.7,0.414,0.841,99.81,1.0,,0.0,0.0,
2025-08-14T23:41:28.791Z,5,GR86-036-98,42.7,0.386,0.763,99.79,1.0,,0.0,0.0,
2025-08-14T23:41:28.834Z,5,GR86-036-98,42.7,0.392,0.804,99.82,1.0,5582.0,0.0,0.0,
2025-08-14T23:41:28.921Z,5,GR86-036-98,36.8,0.369,0.748,99.8,1.0,,0.0,0.0,68.96000000000001
2025-08-14T23:41:29.008Z,5,GR86-036-98,33.6,0.4,0.587,99.82,1.0,,0.0,0.0,
2025-08-14T23:41:29.051Z,5,GR86-036-98,44.3,0.395,0.624,99.79,1.0,5695.0,0.0,0.0,
2025-08-14T23:41:29.094Z,5,GR86-036-98,49.7,0.378,0.626,99.8,1.0,,0.0,0.0,72.19
2025-08-14T23:41:29.138Z,5,GR86-036-98,49.900000000000006,0.362,0.67,99.82,1.0,,0.0,0.0,
2025-08-14T23:41:29.181Z,5,GR86-036-98,46.3,0.344,0.622,99.81,1.0,,0.0,0.0,
2025-08-14T23:41:29.224Z,5,GR86-036-98,36.2,0.356,0.5710000000000001,99.8,1.0,,0.0,0.0,
2025-08-14T23:41:29.268Z,5,GR86-036-98,29.3,0.373,0.479,99.81,1.0,5791.0,0.0,0.0,
2025-08-14T23:41:29.311Z,5,GR86-036-98,29.3,0.378,0.484,99.8,1.0,,0.0,0.0,73.96000000000001
2025-08-14T23:41:29.354Z,5,GR86-036-98,33.0,0.377,0.483,99.81,1.0,,0.0,0.0,
2025-08-14T23:41:29.399Z,5,GR86-036-98,38.3,0.363,0.514,99.78,1.0,,0.0,0.0,
2025-08-14T23:41:29.442Z,5,GR86-036-98,39.3,0.353,0.551,99.79,1.0,,0.0,0.0,
2025-08-14T23:41:29.485Z,5,GR86-036-98,39.3,0.343,0.55,99.81,1.0,5985.0,0.0,0.0,
2025-08-14T23:41:29.528Z,5,GR86-036-98,25.5,0.351,0.485,99.82,1.0,,0.0,0.0,76.42
2025-08-14T23:41:29.571Z,5,GR86-036-98,19.9,0.358,0.448,99.82,1.0,,0.0,0.0,
2025-08-14T23:41:29.614Z,5,GR86-036-98,19.200000000000003,0.38,0.41,99.8,1.0,,0.0,0.0,
2025-08-14T23:41:29.657Z,5,GR86-036-98,19.200000000000003,0.369,0.396,99.82,1.0,,0.0,0.0,
2025-08-14T23:41:29.700Z,5,GR86-036-98,18.6,0.361,0.402,99.81,1.0,6162.0,0.0,0.0,
2025-08-14T23:41:29.743Z,5,GR86-036-98,15.7,0.351,0.35,99.82,1.0,,0.0,0.0,78.78
2025-08-14T23:41:29.788Z,5,GR86-036-98,14.6,0.355,0.316,99.82,1.0,,0.0,0.0,
2025-08-14T23:41:29.831Z,5,GR86-036-98,14.6,0.366,0.285,99.81,1.0,,0.0,0.0,
2025-08-14T23:41:29.874Z,5,GR86-036-98,14.6,0.368,0.291,99.81,1.0,,0.0,0.0,
2025-08-14T23:41:29.917Z,5,GR86-036-98,15.1,0.359,0.262,99.82,1.0,6318.0,0.0,0.0,
2025-08-14T23:41:29.960Z,5,GR86-036-98,15.1,0.356,0.276,99.82,1.0,,0.0,0.0,81.18
2025-08-14T23:41:30.003Z,5,GR86-036-98,15.1,0.353,0.241,99.83,1.0,,0.0,0.0,
2025-08-14T23:41:30.047Z,5,GR86-036-98,14.9,0.36,0.221,99.83,1.0,,0.0,0.0,
2025-08-14T23:41:30.091Z,5,GR86-036-98,14.7,0.345,0.21,99.81,1.0,,0.0,0.0,
2025-08-14T23:41:30.134Z,5,GR86-036-98,14.7,0.368,0.205,99.82,1.0,6475.0,0.0,0.0,
2025-08-14T23:41:30.220Z,5,GR86-036-98,14.7,0.352,0.205,99.82,1.0,,0.0,0.0,83.60000000000001
2025-08-14T23:41:30.263Z,5,GR86-036-98,13.4,0.357,0.197,99.81,1.0,,0.0,0.0,
2025-08-14T23:41:30.308Z,5,GR86-036-98,8.0,0.346,0.17,99.82,1.0,,0.0,0.0,
2025-08-14T23:41:30.351Z,5,GR86-036-98,3.5,0.336,0.139,99.84,1.0,6671.0,0.0,0.0,
2025-08-14T23:41:30.394Z,5,GR86-036-98,0.6000000000000001,0.357,0.117,99.81,1.0,,0.0,0.0,88.35000000000001
2025-08-14T23:41:30.438Z,5,GR86-036-98,-0.4,0.347,0.078,99.83,1.0,,0.0,0.0,
2025-08-14T23:41:30.481Z,5,GR86-036-98,-0.4,0.355,0.062,99.85,1.0,,0.0,0.0,
2025-08-14T23:41:30.524Z,5,GR86-036-98,-0.5,0.343,0.035,99.82,1.0,,0.0,0.0,
2025-08-14T23:41:30.568Z,5,GR86-036-98,-0.5,0.323,0.015,99.82,1.0,6848.0,0.0,0.0,
2025-08-14T23:41:30.611Z,5,GR86-036-98,-0.5,0.338,-0.003,99.84,1.0,,0.0,0.0,90.68
2025-08-14T23:41:30.654Z,5,GR86-036-98,-1.5,0.331,-0.04,99.82,1.0,,0.0,0.0,
2025-08-14T23:41:30.699Z,5,GR86-036-98,-2.5,0.345,-0.052,99.83,1.0,,0.0,0.0,
2025-08-14T23:41:30.742Z,5,GR86-036-98,-2.7,0.323,-0.087,99.82,1.0,,0.0,0.0,
2025-08-14T23:41:30.785Z,5,GR86-036-98,-2.8000000000000003,0.308,-0.109,99.82,1.0,7010.0,0.0,0.0,
2025-08-14T23:41:30.828Z,5,GR86-036-98,-2.8000000000000003,-0.068,-0.078,99.85,2.0,,0.0,0.0,93.05
2025-08-14T23:41:30.871Z,5,GR86-036-98,-2.8000000000000003,0.068,-0.103,99.85,2.0,,0.0,0.0,
2025-08-14T23:41:30.914Z,5,GR86-036-98,-2.8000000000000003,0.684,-0.204,99.85,2.0,,0.0,0.0,
2025-08-14T23:41:30.959Z,5,GR86-036-98,-2.8000000000000003,0.501,-0.157,99.85,2.0,,0.0,0.0,
2025-08-14T23:41:31.002Z,5,GR86-036-98,-2.9000000000000004,0.555,-0.116,99.85,2.0,6166.0,0.0,0.0,
2025-08-14T23:41:31.045Z,5,GR86-036-98,-2.9000000000000004,0.453,-0.231,99.84,2.0,,0.0,0.0,94.77
2025-08-14T23:41:31.088Z,5,GR86-036-98,-3.0,0.226,-0.13,99.84,2.0,,0.0,0.0,
2025-08-14T23:41:31.174Z,5,GR86-036-98,-3.1,0.21,-0.172,99.85,2.0,,0.0,0.0,
2025-08-14T23:41:31.217Z,5,GR86-036-98,-3.1,0.289,-0.103,99.84,2.0,5748.0,0.0,0.0,
2025-08-14T23:41:31.260Z,5,GR86-036-98,-3.1,0.317,-0.138,99.83,2.0,,0.0,0.0,97.27
2025-08-14T23:41:31.303Z,5,GR86-036-98,-3.1,0.306,-0.122,99.85,2.0,,0.0,0.0,
2025-08-14T23:41:31.348Z,5,GR86-036-98,-3.1,0.26,-0.091,99.85,2.0,,0.0,0.0,
2025-08-14T23:41:31.391Z,5,GR86-036-98,-3.1,0.257,-0.113,99.84,2.0,,0.0,0.0,
2025-08-14T23:41:31.434Z,5,GR86-036-98,-3.1,0.279,-0.084,99.83,2.0,5828.0,0.0,0.0,
2025-08-14T23:41:31.477Z,5,GR86-036-98,-3.1,0.282,-0.101,99.84,2.0,,0.0,0.0,99.2
2025-08-14T23:41:31.520Z,5,GR86-036-98,-3.2,0.273,-0.096,99.84,2.0,,0.0,0.0,
2025-08-14T23:41:31.563Z,5,GR86-036-98,-3.3000000000000003,0.27,-0.103,99.85,2.0,,0.0,0.0,
2025-08-14T23:41:31.608Z,5,GR86-036-98,-3.4000000000000004,0.269,-0.114,99.85,2.0,,0.0,0.0,
2025-08-14T23:41:31.651Z,5,GR86-036-98,-3.5,0.267,-0.11,99.84,2.0,5953.0,0.0,0.0,
2025-08-14T23:41:31.694Z,5,GR86-036-98,-3.5,0.277,-0.125,99.84,2.0,,0.0,0.0,100.93
2025-08-14T23:41:31.738Z,5,GR86-036-98,-3.5,0.26,-0.128,99.84,2.0,,0.0,0.0,
2025-08-14T23:41:31.781Z,5,GR86-036-98,-3.6,0.27,-0.129,99.84,2.0,,0.0,0.0,
2025-08-14T23:41:31.824Z,5,GR86-036-98,-3.6,0.277,-0.12,99.82,2.0,,0.0,0.0,
2025-08-14T23:41:31.867Z,5,GR86-036-98,-3.6,0.254,-0.123,99.85,2.0,6046.0,0.0,0.0,
2025-08-14T23:41:31.910Z,5,GR86-036-98,-3.7,0.274,-0.133,99.85,2.0,,0.0,0.0,102.59
2025-08-14T23:41:31.953Z,5,GR86-036-98,-3.7,0.283,-0.139,99.85,2.0,,0.0,0.0,
2025-08-14T23:41:31.996Z,5,GR86-036-98,-3.7,0.254,-0.145,99.83,2.0,,0.0,0.0,
2025-08-14T23:41:32.042Z,5,GR86-036-98,-3.7,0.271,-0.144,99.84,2.0,,0.0,0.0,
2025-08-14T23:41:32.085Z,5,GR86-036-98,-3.8,0.252,-0.144,99.84,2.0,6135.0,0.0,0.0,
2025-08-14T23:41:32.128Z,5,GR86-036-98,-5.9,0.249,-0.162,99.83,2.0,,0.0,0.0,104.16
2025-08-14T23:41:32.171Z,5,GR86-036-98,-9.9,0.271,-0.195,99.84,2.0,,0.0,0.0,
2025-08-14T23:41:32.214Z,5,GR86-036-98,-14.3,0.272,-0.214,99.85,2.0,,0.0,0.0,
2025-08-14T23:41:32.258Z,5,GR86-036-98,-17.400000000000002,0.257,-0.266,99.84,2.0,,0.0,0.0,
2025-08-14T23:41:32.301Z,5,GR86-036-98,-17.7,0.272,-0.29,99.85,2.0,6222.0,0.0,0.0,
2025-08-14T23:41:32.344Z,5,GR86-036-98,-17.7,0.231,-0.315,99.85,2.0,,0.0,0.0,105.72
2025-08-14T23:41:32.388Z,5,GR86-036-98,-17.7,0.246,-0.352,99.85,2.0,,0.0,0.0,
2025-08-14T23:41:32.432Z,5,GR86-036-98,-17.7,0.284,-0.337,99.84,2.0,,0.0,0.0,
2025-08-14T23:41:32.475Z,5,GR86-036-98,-17.7,0.247,-0.38,99.85,2.0,,0.0,0.0,
2025-08-14T23:41:32.518Z,5,GR86-036-98,-17.7,0.263,-0.382,99.84,2.0,6315.0,0.0,0.0,
2025-08-14T23:41:32.561Z,5,GR86-036-98,-17.7,0.277,-0.377,99.85,2.0,,0.0,0.0,107.21
2025-08-14T23:41:32.604Z,5,GR86-036-98,-17.7,0.232,-0.395,99.85,2.0,,0.0,0.0,
2025-08-14T23:41:32.648Z,5,GR86-036-98,-17.3,0.247,-0.382,99.83,2.0,,0.0,0.0,
2025-08-14T23:41:32.691Z,5,GR86-036-98,-16.1,0.291,-0.377,99.85,2.0,,0.0,0.0,
2025-08-14T23:41:32.734Z,5,GR86-036-98,-13.4,0.245,-0.362,99.83,2.0,6391.0,0.0,0.0,
2025-08-14T23:41:32.778Z,5,GR86-036-98,-9.6,0.275,-0.332,99.84,2.0,,0.0,0.0,108.73
2025-08-14T23:41:32.821Z,5,GR86-036-98,-6.300000000000001,0.277,-0.299,99.85,2.0,,0.0,0.0,
2025-08-14T23:41:32.864Z,5,GR86-036-98,-4.6000000000000005,0.232,-0.274,99.84,2.0,,0.0,0.0,
2025-08-14T23:41:32.908Z,5,GR86-036-98,-3.5,0.245,-0.23,99.84,2.0,,0.0,0.0,
2025-08-14T23:41:32.951Z,5,GR86-036-98,-2.4000000000000004,0.292,-0.191,99.83,2.0,6471.0,0.0,0.0,
2025-08-14T23:41:32.994Z,5,GR86-036-98,-0.9,0.245,-0.153,99.85,2.0,,0.0,0.0,111.54
2025-08-14T23:41:33.038Z,5,GR86-036-98,1.0,0.253,-0.123,99.85,2.0,,0.0,0.0,
2025-08-14T23:41:33.081Z,5,GR86-036-98,2.8000000000000003,0.276,-0.084,99.85,2.0,,0.0,0.0,
2025-08-14T23:41:33.124Z,5,GR86-036-98,3.9,0.239,-0.031,99.83,2.0,,0.0,0.0,
2025-08-14T23:41:33.168Z,5,GR86-036-98,5.2,0.232,0.014,99.84,2.0,6543.0,0.0,0.0,
2025-08-14T23:41:33.211Z,5,GR86-036-98,6.5,0.28,0.068,99.83,2.0,,0.0,0.0,112.94
2025-08-14T23:41:33.254Z,5,GR86-036-98,7.9,0.26,0.096,99.85,2.0,,0.0,0.0,
2025-08-14T23:41:33.299Z,5,GR86-036-98,9.4,0.252,0.144,99.83,2.0,,0.0,0.0,
2025-08-14T23:41:33.342Z,5,GR86-036-98,10.1,0.297,0.181,99.85,2.0,,0.0,0.0,
2025-08-14T23:41:33.385Z,5,GR86-036-98,10.2,0.268,0.197,99.85,2.0,6602.0,0.0,0.0,
2025-08-14T23:41:33.428Z,5,GR86-036-98,10.7,0.259,0.232,99.85,2.0,,0.0,0.0,114.08
2025-08-14T23:41:33.471Z,5,GR86-036-98,10.8,0.266,0.275,99.83,2.0,,0.0,0.0,
2025-08-14T23:41:33.514Z,5,GR86-036-98,10.8,0.296,0.263,99.84,2.0,,0.0,0.0,
2025-08-14T23:41:33.557Z,5,GR86-036-98,10.8,0.285,0.266,99.85,2.0,,0.0,0.0,
2025-08-14T23:41:33.600Z,5,GR86-036-98,10.8,0.277,0.286,99.85,2.0,6767.0,0.0,0.0,
2025-08-14T23:41:33.643Z,5,GR86-036-98,10.8,0.27,0.274,99.84,2.0,,0.0,0.0,115.25
2025-08-14T23:41:33.688Z,5,GR86-036-98,10.8,0.284,0.288,99.84,2.0,,0.0,0.0,
2025-08-14T23:41:33.731Z,5,GR86-036-98,10.8,0.283,0.295,99.85,2.0,,0.0,0.0,
2025-08-14T23:41:33.774Z,5,GR86-036-98,10.8,0.291,0.294,99.84,2.0,,0.0,0.0,
2025-08-14T23:41:33.817Z,5,GR86-036-98,10.8,0.275,0.272,99.85,2.0,6840.0,0.0,0.0,
2025-08-14T23:41:33.860Z,5,GR86-036-98,10.7,0.263,0.275,99.85,2.0,,0.0,0.0,116.45
2025-08-14T23:41:33.903Z,5,GR86-036-98,10.5,0.271,0.246,99.83,2.0,,0.0,0.0,
2025-08-14T23:41:33.947Z,5,GR86-036-98,10.4,0.272,0.235,99.85,2.0,,0.0,0.0,
2025-08-14T23:41:33.991Z,5,GR86-036-98,10.4,0.267,0.227,99.84,2.0,,0.0,0.0,
2025-08-14T23:41:34.034Z,5,GR86-036-98,10.4,0.282,0.24,99.85,2.0,6905.0,2.395,2.64,
2025-08-14T23:41:34.077Z,5,GR86-036-98,10.4,0.27,0.231,99.86,2.0,,5.7700000000000005,5.555,117.63
2025-08-14T23:41:34.120Z,5,GR86-036-98,10.3,0.182,0.241,99.86,2.0,,5.05,5.05,
2025-08-14T23:41:34.163Z,5,GR86-036-98,10.3,0.206,0.269,99.82,2.0,,0.0,0.0,
2025-08-14T23:41:34.208Z,5,GR86-036-98,10.3,0.266,0.263,99.84,2.0,,0.0,0.0,
2025-08-14T23:41:34.251Z,5,GR86-036-98,7.4,0.267,0.197,99.85,2.0,6952.0,0.0,0.0,
2025-08-14T23:41:34.294Z,5,GR86-036-98,5.300000000000001,0.3,0.194,99.85,2.0,,0.0,0.0,118.56
2025-08-14T23:41:34.338Z,5,GR86-036-98,4.6000000000000005,0.282,0.178,99.84,2.0,,0.0,0.0,
2025-08-14T23:41:34.381Z,5,GR86-036-98,4.3,0.237,0.153,99.85,2.0,,0.0,0.0,
2025-08-14T23:41:34.468Z,5,GR86-036-98,3.2,0.282,0.14,99.85,2.0,7021.0,0.0,0.0,
2025-08-14T23:41:34.511Z,5,GR86-036-98,3.2,0.302,0.131,99.86,2.0,,0.0,0.0,119.69
2025-08-14T23:41:34.554Z,5,GR86-036-98,3.1,0.258,0.086,99.85,2.0,,0.0,0.0,
2025-08-14T23:41:34.599Z,5,GR86-036-98,2.4000000000000004,0.277,0.101,99.85,2.0,,0.0,0.0,
2025-08-14T23:41:34.642Z,5,GR86-036-98,0.3,0.256,0.06,99.83,2.0,,0.0,0.0,
2025-08-14T23:41:34.688Z,5,GR86-036-98,-0.5,0.263,0.016,99.85,2.0,7081.0,0.0,0.0,
2025-08-14T23:41:34.731Z,5,GR86-036-98,-0.5,0.239,-0.014,99.85,2.0,,0.0,0.0,120.89
2025-08-14T23:41:34.774Z,5,GR86-036-98,2.7,0.269,0.012,99.84,2.0,,0.0,0.0,
2025-08-14T23:41:34.817Z,5,GR86-036-98,6.2,0.28,0.033,99.81,2.0,,0.0,0.0,
2025-08-14T23:41:34.860Z,5,GR86-036-98,6.800000000000001,0.239,0.023,99.84,2.0,,0.0,0.0,
2025-08-14T23:41:34.903Z,5,GR86-036-98,6.800000000000001,0.253,0.067,99.86,2.0,7169.0,0.0,0.0,
2025-08-14T23:41:34.948Z,5,GR86-036-98,6.800000000000001,0.248,0.043,99.85,2.0,,0.0,0.0,121.9
2025-08-14T23:41:34.991Z,5,GR86-036-98,6.800000000000001,0.273,0.057,99.85,2.0,,0.0,0.0,
2025-08-14T23:41:35.034Z,5,GR86-036-98,6.800000000000001,0.244,0.056,77.42,2.0,,0.0,0.0,
2025-08-14T23:41:35.077Z,5,GR86-036-98,7.6,0.228,0.102,52.0,2.0,,0.0,0.0,
2025-08-14T23:41:35.121Z,5,GR86-036-98,9.1,0.282,0.141,36.73,2.0,7230.0,0.0,0.0,
2025-08-14T23:41:35.164Z,5,GR86-036-98,10.1,0.239,0.142,22.98,2.0,,0.0,0.0,122.98
2025-08-14T23:41:35.207Z,5,GR86-036-98,10.4,0.122,0.185,4.67,2.0,,10.56,10.56,
2025-08-14T23:41:35.250Z,5,GR86-036-98,10.4,-0.203,0.201,4.54,2.0,,19.87,19.58,
2025-08-14T23:41:35.293Z,5,GR86-036-98,10.4,-0.493,0.278,4.32,2.0,,30.335,29.805,
2025-08-14T23:41:35.338Z,5,GR86-036-98,10.4,-0.647,0.173,4.11,2.0,7243.0,39.875,38.865,
2025-08-14T23:41:35.381Z,5,GR86-036-98,10.4,-0.8300000000000001,0.198,3.87,2.0,,45.81,45.185,124.11
2025-08-14T23:41:35.424Z,5,GR86-036-98,9.8,-0.782,0.227,3.5500000000000003,2.0,,46.56,46.085,
2025-08-14T23:41:35.467Z,5,GR86-036-98,4.800000000000001,-0.728,0.188,3.02,2.0,,45.72,45.43,
2025-08-14T23:41:35.553Z,5,GR86-036-98,2.7,-0.579,0.132,2.66,2.0,6666.0,34.49,35.92,
2025-08-14T23:41:35.596Z,5,GR86-036-98,1.8,-0.633,0.206,2.58,2.0,,28.72,29.71,115.13
2025-08-14T23:41:35.642Z,5,GR86-036-98,1.6,-0.739,0.191,2.52,2.0,,28.87,29.53,
2025-08-14T23:41:35.688Z,5,GR86-036-98,7.2,-0.719,0.228,2.5,2.0,,40.33,39.905,
2025-08-14T23:41:35.731Z,5,GR86-036-98,15.3,-0.656,0.177,2.49,2.0,,45.0,44.225,
2025-08-14T23:41:35.774Z,5,GR86-036-98,22.0,-0.5660000000000001,0.108,2.49,2.0,6100.0,40.96,42.055,
2025-08-14T23:41:35.817Z,5,GR86-036-98,26.8,-0.629,0.196,2.48,2.0,,28.4,29.65,109.08
2025-08-14T23:41:35.860Z,5,GR86-036-98,28.9,-0.504,0.318,2.47,2.0,,20.02,20.935,
2025-08-14T23:41:35.903Z,5,GR86-036-98,29.200000000000003,-0.62,0.325,2.48,2.0,,19.55,20.145,
2025-08-14T23:41:35.948Z,5,GR86-036-98,29.5,-0.55,0.381,2.47,2.0,,26.14,26.46,
2025-08-14T23:41:35.991Z,5,GR86-036-98,29.6,-0.715,0.35,2.47,2.0,5758.0,31.77,31.42,
2025-08-14T23:41:36.034Z,5,GR86-036-98,29.6,-0.734,0.448,2.47,2.0,,34.18,33.845,104.48
2025-08-14T23:41:36.078Z,5,GR86-036-98,29.4,-0.681,0.364,2.47,2.0,,34.84,34.9,
2025-08-14T23:41:36.121Z,5,GR86-036-98,22.3,-0.6930000000000001,0.419,2.48,2.0,,35.050000000000004,34.99,
2025-08-14T23:41:36.164Z,5,GR86-036-98,13.2,-0.627,0.413,2.49,2.0,,34.305,34.99,
2025-08-14T23:41:36.208Z,5,GR86-036-98,3.1,-0.499,0.382,2.47,2.0,5505.0,24.14,25.21,
