timestamp,lap,vehicle_id,steering_angle,accx_can,accy_can,ath,gear,nmot,pbrake_f,pbrake_r,speed
2025-08-15T03:10:47.872Z,5,GR86-012-8,-2.0,0.105,-0.033,99.95,4.0,6818.0,0.0,0.0,
2025-08-15T03:10:47.918Z,5,GR86-012-8,-2.0,0.107,-0.021,99.94,4.0,,0.0,0.0,173.79
2025-08-15T03:10:47.961Z,5,GR86-012-8,-1.4,0.122,-0.019,99.94,4.0,,0.0,0.0,
2025-08-15T03:10:48.006Z,5,GR86-012-8,-0.7000000000000001,0.093,-0.031,99.95,4.0,,0.0,0.0,
2025-08-15T03:10:48.049Z,5,GR86-012-8,-0.7000000000000001,0.077,-0.02,99.94,4.0,,0.0,0.0,
2025-08-15T03:10:48.092Z,5,GR86-012-8,-0.7000000000000001,0.094,-0.027,99.93,4.0,6866.0,0.0,0.0,
2025-08-15T03:10:48.135Z,5,GR86-012-8,-0.7000000000000001,0.098,-0.043,99.93,4.0,,0.0,0.0,174.55
2025-08-15T03:10:48.178Z,5,GR86-012-8,-0.7000000000000001,0.106,-0.031,99.94,4.0,,0.0,0.0,
2025-08-15T03:10:48.221Z,5,GR86-012-8,-0.7000000000000001,0.103,-0.029,99.95,4.0,,0.0,0.0,
2025-08-15T03:10:48.265Z,5,GR86-012-8,-0.8,0.093,-0.007,99.94,4.0,,0.0,0.0,
2025-08-15T03:10:48.308Z,5,GR86-012-8,-0.8,0.09,-0.017,99.93,4.0,6902.0,0.0,0.0,
2025-08-15T03:10:48.351Z,5,GR86-012-8,-0.8,0.087,-0.028,99.93,4.0,,0.0,0.0,175.22
2025-08-15T03:10:48.396Z,5,GR86-012-8,-0.8,0.097,-0.021,99.94,4.0,,0.0,0.0,
2025-08-15T03:10:48.439Z,5,GR86-012-8,-0.8,0.081,-0.009,99.95,4.0,,0.0,0.0,
2025-08-15T03:10:48.482Z,5,GR86-012-8,-0.7000000000000001,0.086,0.002,99.95,4.0,,0.0,0.0,
2025-08-15T03:10:48.525Z,5,GR86-012-8,-0.5,0.113,-0.02,99.94,4.0,6924.0,0.0,0.0,
2025-08-15T03:10:48.568Z,5,GR86-012-8,-0.8,0.109,-0.03,99.93,4.0,,0.0,0.0,176.05
2025-08-15T03:10:48.611Z,5,GR86-012-8,-1.3,0.098,-0.002,99.93,4.0,,0.0,0.0,
2025-08-15T03:10:48.655Z,5,GR86-012-8,-1.6,0.102,0.011,99.94,4.0,,0.0,0.0,
2025-08-15T03:10:48.698Z,5,GR86-012-8,-1.8,0.096,0.007,99.94,4.0,,0.0,0.0,
2025-08-15T03:10:48.741Z,5,GR86-012-8,-1.9,0.105,0.009,99.93,4.0,6969.0,0.0,0.0,
2025-08-15T03:10:48.785Z,5,GR86-012-8,-1.9,0.106,-0.051,99.94,4.0,,0.0,0.0,176.78
2025-08-15T03:10:48.828Z,5,GR86-012-8,-2.1,0.105,-0.052,99.93,4.0,,0.0,0.0,
2025-08-15T03:10:48.871Z,5,GR86-012-8,-2.4000000000000004,0.087,-0.051,99.95,4.0,,0.0,0.0,
2025-08-15T03:10:48.915Z,5,GR86-012-8,-2.6,0.092,-0.051,99.95,4.0,,0.0,0.0,
2025-08-15T03:10:48.957Z,5,GR86-012-8,-2.5,0.11,-0.052,99.94,4.0,6987.0,0.0,0.0,
2025-08-15T03:10:49.000Z,5,GR86-012-8,-1.8,0.117,-0.058,99.93,4.0,,0.0,0.0,177.58
2025-08-15T03:10:49.045Z,5,GR86-012-8,-1.5,-0.17,-0.012,99.95,5.0,,0.0,0.0,
2025-08-15T03:10:49.088Z,5,GR86-012-8,-1.5,0.32,-0.018,99.95,5.0,,0.0,0.0,
2025-08-15T03:10:49.131Z,5,GR86-012-8,-1.0,0.208,-0.123,99.94,5.0,,0.0,0.0,
2025-08-15T03:10:49.175Z,5,GR86-012-8,-1.0,-0.003,-0.022,99.95,5.0,6647.0,0.0,0.0,
2025-08-15T03:10:49.218Z,5,GR86-012-8,-1.1,-0.004,-0.064,99.94,5.0,,0.0,0.0,178.26
2025-08-15T03:10:49.261Z,5,GR86-012-8,-0.7000000000000001,0.104,-0.073,99.93,5.0,,0.0,0.0,
2025-08-15T03:10:49.307Z,5,GR86-012-8,-0.4,0.077,-0.023,99.93,5.0,,0.0,0.0,
2025-08-15T03:10:49.350Z,5,GR86-012-8,-0.4,0.054,-0.046,99.95,5.0,,0.0,0.0,
2025-08-15T03:10:49.397Z,5,GR86-012-8,-0.4,0.085,-0.014,99.94,5.0,6128.0,0.0,0.0,
2025-08-15T03:10:49.440Z,5,GR86-012-8,-0.4,0.097,-0.002,99.94,5.0,,0.0,0.0,178.85
2025-08-15T03:10:49.485Z,5,GR86-012-8,-0.4,0.07,-0.016,99.94,5.0,,0.0,0.0,
2025-08-15T03:10:49.528Z,5,GR86-012-8,-0.4,0.058,-0.027,99.93,5.0,,0.0,0.0,
2025-08-15T03:10:49.571Z,5,GR86-012-8,-0.4,0.068,-0.031,99.94,5.0,,0.0,0.0,
2025-08-15T03:10:49.615Z,5,GR86-012-8,-0.4,0.069,-0.011,99.94,5.0,6120.0,0.0,0.0,
2025-08-15T03:10:49.657Z,5,GR86-012-8,-0.4,0.071,-0.029,99.94,5.0,,0.0,0.0,179.58
2025-08-15T03:10:49.700Z,5,GR86-012-8,-0.4,0.066,-0.009,99.94,5.0,,0.0,0.0,
2025-08-15T03:10:49.746Z,5,GR86-012-8,-0.4,0.075,0.017,99.94,5.0,,0.0,0.0,
2025-08-15T03:10:49.788Z,5,GR86-012-8,-0.6000000000000001,0.074,0.03,99.95,5.0,,0.0,0.0,
2025-08-15T03:10:49.831Z,5,GR86-012-8,-0.7000000000000001,0.081,0.03,99.94,5.0,6146.0,0.0,0.0,
2025-08-15T03:10:49.875Z,5,GR86-012-8,-0.7000000000000001,0.084,0.017,99.94,5.0,,0.0,0.0,180.14
2025-08-15T03:10:49.918Z,5,GR86-012-8,-0.7000000000000001,0.072,0.026,99.93,5.0,,0.0,0.0,
2025-08-15T03:10:49.961Z,5,GR86-012-8,-0.7000000000000001,0.078,0.028,99.94,5.0,,0.0,0.0,
2025-08-15T03:10:50.005Z,5,GR86-012-8,-0.7000000000000001,0.081,0.01,99.94,5.0,,0.0,0.0,
2025-08-15T03:10:50.048Z,5,GR86-012-8,-0.7000000000000001,0.077,0.017,99.94,5.0,6167.0,0.0,0.0,
2025-08-15T03:10:50.091Z,5,GR86-012-8,-0.7000000000000001,0.079,-0.008,99.94,5.0,,0.0,0.0,181.27
2025-08-15T03:10:50.135Z,5,GR86-012-8,-0.8,0.072,-0.028,99.94,5.0,,0.0,0.0,
2025-08-15T03:10:50.178Z,5,GR86-012-8,-0.9,0.072,-0.036,99.93,5.0,,0.0,0.0,
2025-08-15T03:10:50.221Z,5,GR86-012-8,-1.1,0.077,-0.026,99.93,5.0,,0.0,0.0,
2025-08-15T03:10:50.265Z,5,GR86-012-8,-1.3,0.075,0.0,99.94,5.0,6188.0,0.0,0.0,
2025-08-15T03:10:50.308Z,5,GR86-012-8,-1.3,0.068,0.0,99.94,5.0,,0.0,0.0,181.99
2025-08-15T03:10:50.351Z,5,GR86-012-8,-1.3,0.066,-0.003,99.93,5.0,,0.0,0.0,
2025-08-15T03:10:50.396Z,5,GR86-012-8,-1.3,0.077,0.002,99.94,5.0,,0.0,0.0,
2025-08-15T03:10:50.439Z,5,GR86-012-8,-1.3,0.074,0.002,99.95,5.0,,0.0,0.0,
2025-08-15T03:10:50.482Z,5,GR86-012-8,-1.5,0.075,-0.014,99.92,5.0,6207.0,0.0,0.0,
2025-08-15T03:10:50.528Z,5,GR86-012-8,-1.7000000000000002,0.074,-0.04,99.95,5.0,,0.0,0.0,182.62
2025-08-15T03:10:50.571Z,5,GR86-012-8,-1.7000000000000002,0.075,-0.041,99.95,5.0,,0.0,0.0,
2025-08-15T03:10:50.615Z,5,GR86-012-8,-1.7000000000000002,0.081,-0.047,99.94,5.0,,0.0,0.0,
2025-08-15T03:10:50.657Z,5,GR86-012-8,-1.7000000000000002,0.072,-0.054,99.94,5.0,,0.0,0.0,
2025-08-15T03:10:50.700Z,5,GR86-012-8,-1.7000000000000002,0.055,-0.065,99.94,5.0,6251.0,0.0,0.0,
2025-08-15T03:10:50.746Z,5,GR86-012-8,-1.7000000000000002,0.067,-0.031,99.93,5.0,,0.0,0.0,183.26
2025-08-15T03:10:50.789Z,5,GR86-012-8,-1.7000000000000002,0.056,-0.02,99.94,5.0,,0.0,0.0,
2025-08-15T03:10:50.832Z,5,GR86-012-8,-1.7000000000000002,0.063,-0.041,99.93,5.0,,0.0,0.0,
2025-08-15T03:10:50.875Z,5,GR86-012-8,-1.8,0.066,-0.054,99.93,5.0,,0.0,0.0,
2025-08-15T03:10:50.918Z,5,GR86-012-8,-2.0,0.071,-0.055,99.93,5.0,6265.0,0.0,0.0,
2025-08-15T03:10:50.961Z,5,GR86-012-8,-2.0,0.072,-0.056,99.94,5.0,,0.0,0.0,183.89
2025-08-15T03:10:51.006Z,5,GR86-012-8,-1.9,0.055,-0.068,99.94,5.0,,0.0,0.0,
2025-08-15T03:10:51.049Z,5,GR86-012-8,-1.5,0.073,-0.07,99.94,5.0,,0.0,0.0,
2025-08-15T03:10:51.092Z,5,GR86-012-8,-1.2000000000000002,0.068,-0.048,99.95,5.0,,0.0,0.0,
2025-08-15T03:10:51.135Z,5,GR86-012-8,-1.0,0.058,-0.051,99.93,5.0,6293.0,0.0,0.0,
2025-08-15T03:10:51.178Z,5,GR86-012-8,-1.0,0.063,-0.052,99.93,5.0,,0.0,0.0,184.31
2025-08-15T03:10:51.221Z,5,GR86-012-8,-0.9,0.073,-0.053,99.94,5.0,,0.0,0.0,
2025-08-15T03:10:51.265Z,5,GR86-012-8,-0.9,0.081,-0.042,99.94,5.0,,0.0,0.0,
2025-08-15T03:10:51.308Z,5,GR86-012-8,-0.9,0.072,-0.035,99.93,5.0,,0.0,0.0,
2025-08-15T03:10:51.351Z,5,GR86-012-8,-0.9,0.085,-0.023,99.93,5.0,6302.0,0.0,0.0,
2025-08-15T03:10:51.396Z,5,GR86-012-8,-0.7000000000000001,0.091,-0.018,99.94,5.0,,0.0,0.0,184.9
2025-08-15T03:10:51.439Z,5,GR86-012-8,-0.6000000000000001,0.083,-0.018,99.94,5.0,,0.0,0.0,
2025-08-15T03:10:51.482Z,5,GR86-012-8,-0.4,0.075,-0.028,99.96,5.0,,0.0,0.0,
2025-08-15T03:10:51.525Z,5,GR86-012-8,-0.3,0.049,-0.009,99.93,5.0,,0.0,0.0,
2025-08-15T03:10:51.568Z,5,GR86-012-8,-0.3,0.054,-0.011,99.94,5.0,6322.0,0.0,0.0,
2025-08-15T03:10:51.611Z,5,GR86-012-8,-0.3,0.058,0.022,99.93,5.0,,0.0,0.0,185.64
2025-08-15T03:10:51.655Z,5,GR86-012-8,-0.3,0.051,0.012,99.95,5.0,,0.0,0.0,
2025-08-15T03:10:51.697Z,5,GR86-012-8,-0.3,0.06,0.025,99.93,5.0,,0.0,0.0,
2025-08-15T03:10:51.740Z,5,GR86-012-8,-0.3,0.066,0.019,99.95,5.0,,0.0,0.0,
2025-08-15T03:10:51.785Z,5,GR86-012-8,-0.3,0.069,0.01,99.95,5.0,6359.0,0.0,0.0,
2025-08-15T03:10:51.828Z,5,GR86-012-8,-0.3,0.069,0.005,99.94,5.0,,0.0,0.0,186.24
2025-08-15T03:10:51.871Z,5,GR86-012-8,-0.3,0.075,-0.006,99.94,5.0,,0.0,0.0,
2025-08-15T03:10:51.915Z,5,GR86-012-8,-0.3,0.069,-0.013,99.94,5.0,,0.0,0.0,
2025-08-15T03:10:51.957Z,5,GR86-012-8,-0.3,0.065,-0.011,99.94,5.0,,0.0,0.0,
2025-08-15T03:10:52.000Z,5,GR86-012-8,-0.3,0.053,0.021,99.94,5.0,6379.0,0.0,0.0,
2025-08-15T03:10:52.045Z,5,GR86-012-8,-0.3,0.086,0.031,99.94,5.0,,0.0,0.0,186.97
2025-08-15T03:10:52.088Z,5,GR86-012-8,-0.3,0.091,0.01,99.93,5.0,,0.0,0.0,
2025-08-15T03:10:52.131Z,5,GR86-012-8,-0.3,0.076,0.006,99.93,5.0,,0.0,0.0,
2025-08-15T03:10:52.175Z,5,GR86-012-8,-0.3,0.066,0.018,99.94,5.0,,0.0,0.0,
2025-08-15T03:10:52.218Z,5,GR86-012-8,-0.3,0.071,-0.001,99.93,5.0,6409.0,0.0,0.0,
2025-08-15T03:10:52.261Z,5,GR86-012-8,-0.3,0.059,-0.012,99.93,5.0,,0.0,0.0,187.51
2025-08-15T03:10:52.306Z,5,GR86-012-8,-0.4,0.048,-0.015,99.93,5.0,,0.0,0.0,
2025-08-15T03:10:52.348Z,5,GR86-012-8,-0.4,0.043,-0.005,99.94,5.0,,0.0,0.0,
2025-08-15T03:10:52.391Z,5,GR86-012-8,-0.5,0.038,0.001,99.94,5.0,,0.0,0.0,
2025-08-15T03:10:52.435Z,5,GR86-012-8,-0.7000000000000001,0.052,0.012,99.94,5.0,6414.0,0.0,0.0,
2025-08-15T03:10:52.478Z,5,GR86-012-8,-0.6000000000000001,0.062,-0.005,99.94,5.0,,0.0,0.0,188.29
2025-08-15T03:10:52.521Z,5,GR86-012-8,-0.7000000000000001,0.056,-0.011,99.94,5.0,,0.0,0.0,
2025-08-15T03:10:52.565Z,5,GR86-012-8,-0.7000000000000001,0.051,-0.027,99.93,5.0,,0.0,0.0,
2025-08-15T03:10:52.608Z,5,GR86-012-8,-0.7000000000000001,0.05,-0.017,99.95,5.0,,0.0,0.0,
2025-08-15T03:10:52.651Z,5,GR86-012-8,-0.7000000000000001,0.056,-0.021,99.94,5.0,6444.0,0.0,0.0,
2025-08-15T03:10:52.697Z,5,GR86-012-8,-0.7000000000000001,0.056,-0.03,99.94,5.0,,0.0,0.0,189.47
2025-08-15T03:10:52.740Z,5,GR86-012-8,-0.6000000000000001,0.055,-0.033,99.93,5.0,,0.0,0.0,
2025-08-15T03:10:52.785Z,5,GR86-012-8,-0.7000000000000001,0.074,-0.007,99.94,5.0,,0.0,0.0,
2025-08-15T03:10:52.828Z,5,GR86-012-8,-0.7000000000000001,0.073,-0.017,99.93,5.0,,0.0,0.0,
2025-08-15T03:10:52.871Z,5,GR86-012-8,-0.7000000000000001,0.077,0.001,99.95,5.0,6448.0,0.0,0.0,
2025-08-15T03:10:52.915Z,5,GR86-012-8,-0.7000000000000001,0.063,0.007,99.94,5.0,,0.0,0.0,190.01
2025-08-15T03:10:52.957Z,5,GR86-012-8,-0.7000000000000001,0.062,-0.012,99.93,5.0,,0.0,0.0,
2025-08-15T03:10:53.000Z,5,GR86-012-8,-0.7000000000000001,0.064,-0.024,99.94,5.0,,0.0,0.0,
2025-08-15T03:10:53.045Z,5,GR86-012-8,-1.1,0.065,0.021,99.93,5.0,,0.0,0.0,
2025-08-15T03:10:53.088Z,5,GR86-012-8,-1.5,0.063,0.026,99.94,5.0,6490.0,0.0,0.0,
2025-08-15T03:10:53.131Z,5,GR86-012-8,-1.5,0.063,0.004,99.94,5.0,,0.0,0.0,190.66
2025-08-15T03:10:53.175Z,5,GR86-012-8,-1.5,0.073,-0.03,99.93,5.0,,0.0,0.0,
2025-08-15T03:10:53.218Z,5,GR86-012-8,-1.5,0.071,-0.018,99.94,5.0,,0.0,0.0,
2025-08-15T03:10:53.261Z,5,GR86-012-8,-1.7000000000000002,0.073,-0.017,99.93,5.0,,0.0,0.0,
2025-08-15T03:10:53.305Z,5,GR86-012-8,-1.8,0.048,-0.004,99.92,5.0,6511.0,0.0,0.0,
2025-08-15T03:10:53.348Z,5,GR86-012-8,-1.8,0.056,-0.024,99.94,5.0,,0.0,0.0,191.23
2025-08-15T03:10:53.391Z,5,GR86-012-8,-1.8,0.062,-0.03,99.94,5.0,,0.0,0.0,
2025-08-15T03:10:53.435Z,5,GR86-012-8,-1.8,0.048,-0.04,99.93,5.0,,0.0,0.0,
2025-08-15T03:10:53.478Z,5,GR86-012-8,-2.1,0.05,-0.038,99.93,5.0,,0.0,0.0,
2025-08-15T03:10:53.521Z,5,GR86-012-8,-2.4000000000000004,0.048,-0.037,99.95,5.0,6537.0,0.0,0.0,
2025-08-15T03:10:53.565Z,5,GR86-012-8,-2.6,0.052,-0.062,99.95,5.0,,0.0,0.0,191.85
2025-08-15T03:10:53.608Z,5,GR86-012-8,-2.6,0.052,-0.075,99.95,5.0,,0.0,0.0,
2025-08-15T03:10:53.651Z,5,GR86-012-8,-2.6,0.05,-0.057,99.93,5.0,,0.0,0.0,
2025-08-15T03:10:53.696Z,5,GR86-012-8,-2.6,0.045,-0.026,99.94,5.0,,0.0,0.0,
2025-08-15T03:10:53.739Z,5,GR86-012-8,-2.6,0.041,-0.019,99.94,5.0,6556.0,0.0,0.0,
2025-08-15T03:10:53.782Z,5,GR86-012-8,-2.6,0.059,-0.05,99.94,5.0,,0.0,0.0,192.47
2025-08-15T03:10:53.828Z,5,GR86-012-8,-2.4000000000000004,0.046,-0.076,99.95,5.0,,0.0,0.0,
2025-08-15T03:10:53.871Z,5,GR86-012-8,-2.2,0.052,-0.079,99.94,5.0,,0.0,0.0,
2025-08-15T03:10:53.915Z,5,GR86-012-8,-2.2,0.042,-0.075,99.94,5.0,,0.0,0.0,
2025-08-15T03:10:53.957Z,5,GR86-012-8,-2.2,0.037,-0.064,99.94,5.0,6572.0,0.0,0.0,
2025-08-15T03:10:54.000Z,5,GR86-012-8,-1.9,0.03,-0.063,99.95,5.0,,0.0,0.0,192.92
2025-08-15T03:10:54.046Z,5,GR86-012-8,-0.9,0.061,-0.094,99.92,5.0,,0.0,0.0,
2025-08-15T03:10:54.089Z,5,GR86-012-8,-0.7000000000000001,0.055,-0.08,99.94,5.0,,0.0,0.0,
2025-08-15T03:10:54.132Z,5,GR86-012-8,-0.7000000000000001,0.06,-0.056,99.94,5.0,,0.0,0.0,
2025-08-15T03:10:54.175Z,5,GR86-012-8,-0.7000000000000001,0.046,-0.031,99.92,5.0,6585.0,0.0,0.0,
2025-08-15T03:10:54.218Z,5,GR86-012-8,-0.2,0.054,-0.016,99.95,5.0,,0.0,0.0,193.35
2025-08-15T03:10:54.261Z,5,GR86-012-8,0.3,0.049,-0.024,99.91,5.0,,0.0,0.0,
2025-08-15T03:10:54.306Z,5,GR86-012-8,0.8,0.061,-0.024,99.92,5.0,,0.0,0.0,
2025-08-15T03:10:54.349Z,5,GR86-012-8,0.8,0.057,-0.016,99.94,5.0,,0.0,0.0,
2025-08-15T03:10:54.392Z,5,GR86-012-8,0.8,0.061,-0.004,99.94,5.0,6601.0,0.0,0.0,
2025-08-15T03:10:54.435Z,5,GR86-012-8,0.7000000000000001,0.067,-0.001,99.94,5.0,,0.0,0.0,193.7
2025-08-15T03:10:54.478Z,5,GR86-012-8,0.0,0.04,0.006,99.94,5.0,,0.0,0.0,
2025-08-15T03:10:54.521Z,5,GR86-012-8,-0.7000000000000001,0.06,0.024,99.94,5.0,,0.0,0.0,
2025-08-15T03:10:54.565Z,5,GR86-012-8,-0.9,0.068,0.034,99.94,5.0,,0.0,0.0,
2025-08-15T03:10:54.608Z,5,GR86-012-8,-0.9,0.074,0.039,99.94,5.0,6624.0,0.0,0.0,
2025-08-15T03:10:54.651Z,5,GR86-012-8,-0.9,0.051,0.013,99.93,5.0,,0.0,0.0,194.21
2025-08-15T03:10:54.696Z,5,GR86-012-8,-0.9,0.059,-0.004,99.94,5.0,,0.0,0.0,
2025-08-15T03:10:54.739Z,5,GR86-012-8,-0.9,0.056,-0.012,99.94,5.0,,0.0,0.0,
2025-08-15T03:10:54.782Z,5,GR86-012-8,-0.9,0.05,0.004,99.94,5.0,,0.0,0.0,
2025-08-15T03:10:54.825Z,5,GR86-012-8,-0.9,0.06,0.001,99.92,5.0,6632.0,0.0,0.0,
2025-08-15T03:10:54.868Z,5,GR86-012-8,-0.9,0.07,-0.011,99.93,5.0,,0.0,0.0,194.85
2025-08-15T03:10:54.911Z,5,GR86-012-8,-0.9,0.058,-0.029,99.94,5.0,,0.0,0.0,
2025-08-15T03:10:54.955Z,5,GR86-012-8,-0.9,0.061,-0.05,99.94,5.0,,0.0,0.0,
2025-08-15T03:10:54.998Z,5,GR86-012-8,-0.9,0.055,-0.029,99.94,5.0,,0.0,0.0,
2025-08-15T03:10:55.041Z,5,GR86-012-8,-0.9,0.051,-0.035,99.94,5.0,6659.0,0.0,0.0,
2025-08-15T03:10:55.086Z,5,GR86-012-8,-0.9,0.067,-0.034,99.94,5.0,,0.0,0.0,195.64
2025-08-15T03:10:55.128Z,5,GR86-012-8,-0.9,0.056,-0.036,99.93,5.0,,0.0,0.0,
2025-08-15T03:10:55.171Z,5,GR86-012-8,-0.9,0.067,-0.033,99.93,5.0,,0.0,0.0,
2025-08-15T03:10:55.215Z,5,GR86-012-8,-0.9,0.054,-0.011,92.35,5.0,,0.0,0.0,
2025-08-15T03:10:55.257Z,5,GR86-012-8,-0.7000000000000001,0.062,-0.025,86.06,5.0,6670.0,0.0,0.0,
2025-08-15T03:10:55.300Z,5,GR86-012-8,-0.6000000000000001,0.061,-0.041,83.7,5.0,,0.0,0.0,196.03
2025-08-15T03:10:55.345Z,5,GR86-012-8,-0.6000000000000001,0.069,-0.018,62.88,5.0,,0.0,0.0,
2025-08-15T03:10:55.388Z,5,GR86-012-8,-0.6000000000000001,0.067,-0.015,48.33,5.0,,0.0,0.0,
2025-08-15T03:10:55.431Z,5,GR86-012-8,-0.6000000000000001,0.062,-0.02,41.72,5.0,,0.0,0.0,
2025-08-15T03:10:55.475Z,5,GR86-012-8,-0.6000000000000001,0.03,-0.022,37.6,5.0,6685.0,0.0,0.0,
2025-08-15T03:10:55.518Z,5,GR86-012-8,-0.6000000000000001,0.027,-0.01,32.45,5.0,,0.0,0.0,196.7
2025-08-15T03:10:55.561Z,5,GR86-012-8,-0.6000000000000001,0.01,0.006,22.49,5.0,,0.0,0.0,
2025-08-15T03:10:55.606Z,5,GR86-012-8,-0.4,-0.009,0.005,3.84,5.0,,0.0,0.0,
2025-08-15T03:10:55.649Z,5,GR86-012-8,-0.2,-0.088,0.012,3.64,5.0,,0.0,0.0,
2025-08-15T03:10:55.692Z,5,GR86-012-8,-0.2,-0.131,0.024,3.43,5.0,6490.0,0.0,0.0,
2025-08-15T03:10:55.736Z,5,GR86-012-8,-0.2,-0.344,-0.008,3.27,5.0,,0.0,0.0,197.02
2025-08-15T03:10:55.778Z,5,GR86-012-8,-0.6000000000000001,-0.226,0.007,3.12,5.0,,0.0,0.0,
2025-08-15T03:10:55.821Z,5,GR86-012-8,-0.7000000000000001,-0.162,0.0,3.0,5.0,,0.0,0.0,
2025-08-15T03:10:55.865Z,5,GR86-012-8,-0.7000000000000001,-0.224,-0.013,2.8000000000000003,5.0,,5.11,5.28,
2025-08-15T03:10:55.908Z,5,GR86-012-8,-0.4,-0.307,-0.02,2.71,5.0,6523.0,8.635,8.455,
2025-08-15T03:10:55.951Z,5,GR86-012-8,-0.1,-0.378,-0.037,2.61,5.0,,13.4,13.14,196.64
2025-08-15T03:10:55.997Z,5,GR86-012-8,-0.1,-0.493,-0.017,2.54,5.0,,18.265,17.78,
2025-08-15T03:10:56.040Z,5,GR86-012-8,-0.1,-0.587,-0.012,2.51,5.0,,22.465,21.96,
2025-08-15T03:10:56.085Z,5,GR86-012-8,-0.1,-0.68,-0.007,2.48,5.0,,30.46,29.77,
2025-08-15T03:10:56.128Z,5,GR86-012-8,-0.1,-0.767,-0.012,2.48,5.0,6407.0,35.050000000000004,34.245,
2025-08-15T03:10:56.171Z,5,GR86-012-8,-0.1,-0.8170000000000001,-0.011,2.48,5.0,,36.73,36.09,193.9
2025-08-15T03:10:56.215Z,5,GR86-012-8,-0.1,-0.847,-0.008,2.47,5.0,,36.87,36.455,
2025-08-15T03:10:56.257Z,5,GR86-012-8,0.0,-0.842,-0.013,2.63,5.0,,36.67,36.365,
2025-08-15T03:10:56.300Z,5,GR86-012-8,0.0,-0.808,-0.02,39.35,5.0,,36.335,36.245,
2025-08-15T03:10:56.346Z,5,GR86-012-8,0.0,-0.8300000000000001,-0.02,96.47,4.0,6165.0,35.68,35.615,
2025-08-15T03:10:56.388Z,5,GR86-012-8,0.2,-0.838,-0.04,42.71,4.0,,33.77,34.455,187.83
2025-08-15T03:10:56.431Z,5,GR86-012-8,0.3,-0.873,-0.056,4.13,4.0,,31.3,32.410000000000004,
2025-08-15T03:10:56.475Z,5,GR86-012-8,0.4,-0.841,-0.042,2.77,4.0,,31.115,32.2,
2025-08-15T03:10:56.518Z,5,GR86-012-8,0.8,-0.676,-0.132,2.5500000000000003,4.0,,30.43,30.64,
2025-08-15T03:10:56.561Z,5,GR86-012-8,0.8,-0.885,-0.028,2.48,4.0,6637.0,30.675,31.085,
2025-08-15T03:10:56.605Z,5,GR86-012-8,0.7000000000000001,-0.657,-0.114,2.48,4.0,,31.39,31.65,181.66
2025-08-15T03:10:56.648Z,5,GR86-012-8,0.7000000000000001,-0.755,-0.049,2.47,4.0,,31.3,31.025,
2025-08-15T03:10:56.691Z,5,GR86-012-8,0.7000000000000001,-0.73,-0.07,2.47,4.0,,31.45,31.36,
2025-08-15T03:10:56.735Z,5,GR86-012-8,0.7000000000000001,-0.739,-0.103,2.47,4.0,,32.2,31.895,
2025-08-15T03:10:56.778Z,5,GR86-012-8,0.8,-0.8150000000000001,-0.098,2.48,4.0,6713.0,34.685,33.94,
2025-08-15T03:10:56.821Z,5,GR86-012-8,1.0,-0.878,-0.118,2.48,4.0,,37.585,36.93,176.3
2025-08-15T03:10:56.865Z,5,GR86-012-8,2.5,-0.924,-0.069,2.47,4.0,,44.085,43.14,
2025-08-15T03:10:56.908Z,5,GR86-012-8,2.8000000000000003,-0.986,-0.065,2.48,4.0,,48.3,47.215,
2025-08-15T03:10:56.951Z,5,GR86-012-8,2.9000000000000004,-1.024,-0.047,2.48,4.0,,51.215,50.1,
2025-08-15T03:10:56.996Z,5,GR86-012-8,3.1,-0.99,-0.041,2.47,4.0,6457.0,53.03,51.93,
2025-08-15T03:10:57.039Z,5,GR86-012-8,3.8,-0.956,-0.038,2.48,4.0,,54.495000000000005,53.515,171.14
2025-08-15T03:10:57.082Z,5,GR86-012-8,5.0,-0.875,-0.027,2.48,4.0,,56.935,55.485,
2025-08-15T03:10:57.125Z,5,GR86-012-8,2.1,-0.879,0.025,2.48,4.0,,59.42,58.28,
2025-08-15T03:10:57.168Z,5,GR86-012-8,0.5,-0.953,0.023,2.47,4.0,,57.21,57.620000000000005,
2025-08-15T03:10:57.211Z,5,GR86-012-8,1.3,-0.929,0.0,2.48,4.0,6093.0,53.395,54.325,
2025-08-15T03:10:57.255Z,5,GR86-012-8,1.8,-1.042,0.078,2.47,4.0,,53.58,54.11,164.25
2025-08-15T03:10:57.298Z,5,GR86-012-8,0.8,-0.985,0.096,25.86,4.0,,56.095,57.18,
2025-08-15T03:10:57.341Z,5,GR86-012-8,0.4,-0.837,0.144,70.33,4.0,,54.555,56.095,
2025-08-15T03:10:57.385Z,5,GR86-012-8,-1.3,-0.956,0.216,64.14,3.0,,52.22,51.81,
2025-08-15T03:10:57.428Z,5,GR86-012-8,-2.8000000000000003,-1.03,0.044,4.18,3.0,5721.0,54.92,55.64,
2025-08-15T03:10:57.471Z,5,GR86-012-8,-2.7,-0.833,0.112,2.9,3.0,,53.395,54.89,152.37
2025-08-15T03:10:57.515Z,5,GR86-012-8,-2.0,-0.938,-0.02,2.64,3.0,,50.13,50.345,
2025-08-15T03:10:57.557Z,5,GR86-012-8,-3.6,-1.001,0.111,2.54,3.0,,46.62,47.52,
2025-08-15T03:10:57.600Z,5,GR86-012-8,-4.5,-0.872,0.007,2.51,3.0,,43.95,45.245,
2025-08-15T03:10:57.646Z,5,GR86-012-8,-2.7,-0.899,0.043,2.48,3.0,6129.0,36.84,37.235,
2025-08-15T03:10:57.689Z,5,GR86-012-8,-2.7,-0.901,0.034,2.48,3.0,,32.625,33.465,144.33
2025-08-15T03:10:57.732Z,5,GR86-012-8,-1.9,-0.684,-0.084,2.48,3.0,,25.635,26.295,
2025-08-15T03:10:57.775Z,5,GR86-012-8,-0.2,-0.722,-0.006,2.48,3.0,,17.78,18.83,
2025-08-15T03:10:57.818Z,5,GR86-012-8,0.6000000000000001,-0.55,-0.029,2.48,3.0,,14.97,15.565,
2025-08-15T03:10:57.862Z,5,GR86-012-8,0.9,-0.435,-0.114,2.48,3.0,6138.0,12.865,13.275,
2025-08-15T03:10:57.906Z,5,GR86-012-8,2.1,-0.35,-0.074,2.48,3.0,,10.5,10.985,141.77
2025-08-15T03:10:57.949Z,5,GR86-012-8,2.6,-0.413,-0.108,2.48,3.0,,11.55,11.84,
2025-08-15T03:10:57.992Z,5,GR86-012-8,2.7,-0.467,-0.061,2.48,3.0,,15.09,15.185,
2025-08-15T03:10:58.035Z,5,GR86-012-8,3.4000000000000004,-0.532,-0.035,2.48,3.0,,21.18,20.935,
2025-08-15T03:10:58.078Z,5,GR86-012-8,2.9000000000000004,-0.626,-0.01,2.48,3.0,6440.0,28.9,28.4,
2025-08-15T03:10:58.121Z,5,GR86-012-8,0.9,-0.745,-0.004,2.47,3.0,,35.92,35.265,139.19
2025-08-15T03:10:58.165Z,5,GR86-012-8,-1.5,-0.885,-0.013,2.48,3.0,,42.39,41.83,
2025-08-15T03:10:58.208Z,5,GR86-012-8,-2.2,-0.908,-0.018,2.48,3.0,,44.255,43.92,
2025-08-15T03:10:58.251Z,5,GR86-012-8,-2.4000000000000004,-0.929,-0.015,2.48,3.0,,45.4,45.065,
2025-08-15T03:10:58.296Z,5,GR86-012-8,-2.6,-0.936,-0.003,2.48,3.0,5874.0,45.625,45.52,
2025-08-15T03:10:58.339Z,5,GR86-012-8,-2.6,-0.966,-0.028,2.48,3.0,,45.49,45.69,133.08
2025-08-15T03:10:58.382Z,5,GR86-012-8,-2.4000000000000004,-0.994,-0.014,2.48,3.0,,45.065,45.49,
2025-08-15T03:10:58.425Z,5,GR86-012-8,-0.9,-0.903,-0.03,2.48,3.0,,36.15,37.615,
2025-08-15T03:10:58.468Z,5,GR86-012-8,-0.7000000000000001,-0.754,-0.022,2.48,3.0,,26.78,28.035,
2025-08-15T03:10:58.598Z,5,GR86-012-8,-1.5,-0.503,-0.085,2.48,3.0,5599.0,16.055,16.405,126.52
2025-08-15T03:10:58.641Z,5,GR86-012-8,-2.1,-0.453,-0.102,2.48,3.0,,15.09,15.685,
2025-08-15T03:10:58.685Z,5,GR86-012-8,-2.9000000000000004,-0.434,-0.094,2.48,3.0,,13.915,14.39,
2025-08-15T03:10:58.728Z,5,GR86-012-8,-3.8,-0.466,-0.085,2.48,3.0,5600.0,13.045,13.64,
2025-08-15T03:10:58.771Z,5,GR86-012-8,-4.7,-0.432,-0.072,2.47,3.0,,11.905,12.33,123.54
2025-08-15T03:10:58.815Z,5,GR86-012-8,-6.1000000000000005,-0.389,-0.1,2.48,3.0,,10.985,11.46,
2025-08-15T03:10:58.857Z,5,GR86-012-8,-7.9,-0.414,-0.113,2.48,3.0,,11.31,11.81,
2025-08-15T03:10:58.900Z,5,GR86-012-8,-10.0,-0.415,-0.117,2.48,3.0,,11.995,12.21,
2025-08-15T03:10:58.945Z,5,GR86-012-8,-13.4,-0.431,-0.136,2.48,3.0,5480.0,13.52,13.735,
2025-08-15T03:10:58.988Z,5,GR86-012-8,-14.4,-0.441,-0.178,2.48,3.0,,16.025,16.055,120.75
2025-08-15T03:10:59.031Z,5,GR86-012-8,-14.4,-0.515,-0.207,2.48,3.0,,18.585,18.555,
2025-08-15T03:10:59.075Z,5,GR86-012-8,-14.4,-0.54,-0.226,2.47,3.0,,19.93,20.08,
2025-08-15T03:10:59.118Z,5,GR86-012-8,-14.7,-0.577,-0.259,2.48,3.0,,20.66,20.875,
2025-08-15T03:10:59.161Z,5,GR86-012-8,-16.1,-0.58,-0.275,2.48,3.0,5325.0,21.305,21.47,
2025-08-15T03:10:59.206Z,5,GR86-012-8,-19.8,-0.558,-0.318,2.48,3.0,,21.35,21.595,117.89
2025-08-15T03:10:59.248Z,5,GR86-012-8,-23.200000000000003,-0.55,-0.358,2.48,3.0,,20.875,21.5,
2025-08-15T03:10:59.291Z,5,GR86-012-8,-26.700000000000003,-0.559,-0.411,2.49,3.0,,21.18,21.595,
2025-08-15T03:10:59.336Z,5,GR86-012-8,-29.4,-0.589,-0.47,2.48,3.0,,20.965,21.27,
2025-08-15T03:10:59.378Z,5,GR86-012-8,-31.200000000000003,-0.593,-0.53,2.48,3.0,5158.0,20.875,21.21,
2025-08-15T03:10:59.421Z,5,GR86-012-8,-32.5,-0.561,-0.556,2.48,3.0,,20.875,20.905,114.92
2025-08-15T03:10:59.465Z,5,GR86-012-8,-35.2,-0.562,-0.62,2.49,3.0,,19.365,19.9,
2025-08-15T03:10:59.508Z,5,GR86-012-8,-37.6,-0.547,-0.667,2.49,3.0,,18.435,19.015,
2025-08-15T03:10:59.551Z,5,GR86-012-8,-39.3,-0.529,-0.713,2.48,3.0,,17.55,18.085,
2025-08-15T03:10:59.597Z,5,GR86-012-8,-39.8,-0.531,-0.76,2.49,3.0,4974.0,16.435,17.06,
2025-08-15T03:10:59.639Z,5,GR86-012-8,-39.8,-0.503,-0.79,2.48,3.0,,15.245,15.78,111.93
2025-08-15T03:10:59.682Z,5,GR86-012-8,-39.6,-0.484,-0.809,2.49,3.0,,13.49,14.175,
2025-08-15T03:10:59.725Z,5,GR86-012-8,-38.900000000000006,-0.437,-0.857,2.48,3.0,,10.44,11.155,
2025-08-15T03:10:59.768Z,5,GR86-012-8,-37.2,-0.38,-0.885,2.49,3.0,,7.8,8.395,
2025-08-15T03:10:59.811Z,5,GR86-012-8,-35.5,-0.329,-0.901,2.48,3.0,4821.0,4.96,5.74,
2025-08-15T03:10:59.856Z,5,GR86-012-8,-34.9,-0.252,-0.917,2.49,3.0,,1.8,2.335,108.98
2025-08-15T03:10:59.899Z,5,GR86-012-8,-34.9,-0.219,-0.929,2.51,3.0,,0.0,0.0,
2025-08-15T03:10:59.942Z,5,GR86-012-8,-34.9,-0.183,-0.934,2.48,3.0,,0.0,0.0,
2025-08-15T03:10:59.985Z,5,GR86-012-8,-35.1,-0.168,-0.937,2.48,3.0,,0.0,0.0,
2025-08-15T03:11:00.028Z,5,GR86-012-8,-36.3,-0.167,-0.918,2.51,3.0,4723.0,0.0,0.0,
2025-08-15T03:11:00.071Z,5,GR86-012-8,-38.7,-0.173,-0.931,2.48,3.0,,0.0,0.0,106.49
2025-08-15T03:11:00.115Z,5,GR86-012-8,-41.900000000000006,-0.175,-0.917,2.5,3.0,,0.0,0.0,
2025-08-15T03:11:00.157Z,5,GR86-012-8,-45.5,-0.179,-0.925,2.5,3.0,,0.0,0.0,
2025-08-15T03:11:00.200Z,5,GR86-012-8,-49.900000000000006,-0.185,-0.907,2.49,3.0,,0.0,0.0,
2025-08-15T03:11:00.245Z,5,GR86-012-8,-57.1,-0.185,-0.913,2.5,3.0,4697.0,0.0,0.0,
2025-08-15T03:11:00.288Z,5,GR86-012-8,-60.7,-0.192,-0.928,2.51,3.0,,0.0,0.0,103.74
2025-08-15T03:11:00.331Z,5,GR86-012-8,-61.6,-0.19,-0.934,2.5,3.0,,0.0,0.0,
2025-08-15T03:11:00.375Z,5,GR86-012-8,-61.6,-0.186,-0.921,2.8000000000000003,3.0,,0.0,0.0,
2025-08-15T03:11:00.418Z,5,GR86-012-8,-61.6,-0.191,-0.932,12.7,3.0,,0.0,0.0,
2025-08-15T03:11:00.461Z,5,GR86-012-8,-61.8,-0.181,-0.927,17.81,3.0,4651.0,0.0,0.0,
2025-08-15T03:11:00.505Z,5,GR86-012-8,-64.0,-0.185,-0.918,17.95,3.0,,0.0,0.0,102.53
2025-08-15T03:11:00.548Z,5,GR86-012-8,-66.5,-0.126,-0.932,20.03,3.0,,0.0,0.0,
2025-08-15T03:11:00.591Z,5,GR86-012-8,-69.60000000000001,-0.12,-0.898,20.37,3.0,,0.0,0.0,
2025-08-15T03:11:00.635Z,5,GR86-012-8,-71.4,-0.127,-0.934,21.01,3.0,,0.0,0.0,
2025-08-15T03:11:00.678Z,5,GR86-012-8,-70.9,-0.045,-0.937,21.49,3.0,4595.0,0.0,0.0,
2025-08-15T03:11:00.721Z,5,GR86-012-8,-69.3,0.055,-0.949,22.11,3.0,,0.0,0.0,101.51
2025-08-15T03:11:00.765Z,5,GR86-012-8,-68.2,0.008,-0.95,25.01,3.0,,0.0,0.0,
2025-08-15T03:11:00.808Z,5,GR86-012-8,-68.2,-0.006,-0.926,27.55,3.0,,0.0,0.0,
2025-08-15T03:11:00.851Z,5,GR86-012-8,-68.2,0.003,-0.951,27.53,3.0,,0.0,0.0,
2025-08-15T03:11:00.896Z,5,GR86-012-8,-68.2,0.036,-0.955,27.49,3.0,4724.0,0.0,0.0,
2025-08-15T03:11:00.939Z,5,GR86-012-8,-68.0,0.044,-0.948,27.98,3.0,,0.0,0.0,100.99
2025-08-15T03:11:00.982Z,5,GR86-012-8,-67.60000000000001,0.052,-0.948,28.49,3.0,,0.0,0.0,
2025-08-15T03:11:01.025Z,5,GR86-012-8,-66.9,0.07,-0.928,28.9,3.0,,0.0,0.0,
2025-08-15T03:11:01.068Z,5,GR86-012-8,-66.7,0.045,-0.925,32.67,3.0,,0.0,0.0,
2025-08-15T03:11:01.111Z,5,GR86-012-8,-66.7,0.042,-0.946,34.87,3.0,4732.0,0.0,0.0,
2025-08-15T03:11:01.155Z,5,GR86-012-8,-66.7,0.052,-0.943,35.06,3.0,,0.0,0.0,101.04
2025-08-15T03:11:01.198Z,5,GR86-012-8,-66.4,0.042,-0.942,37.61,3.0,,0.0,0.0,
2025-08-15T03:11:01.241Z,5,GR86-012-8,-66.0,0.156,-0.896,41.48,3.0,,0.0,0.0,
2025-08-15T03:11:01.286Z,5,GR86-012-8,-64.5,0.124,-0.943,45.19,3.0,,0.0,0.0,
2025-08-15T03:11:01.329Z,5,GR86-012-8,-62.8,0.075,-0.883,48.41,3.0,4780.0,0.0,0.0,
2025-08-15T03:11:01.372Z,5,GR86-012-8,-60.5,0.079,-0.956,51.22,3.0,,0.0,0.0,101.44
2025-08-15T03:11:01.415Z,5,GR86-012-8,-58.1,0.153,-0.933,51.41,3.0,,0.0,0.0,
2025-08-15T03:11:01.458Z,5,GR86-012-8,-56.5,0.167,-0.875,51.25,3.0,,0.0,0.0,
2025-08-15T03:11:01.501Z,5,GR86-012-8,-55.7,0.148,-0.86,50.91,3.0,,0.0,0.0,
2025-08-15T03:11:01.546Z,5,GR86-012-8,-54.7,0.14,-0.859,49.8,3.0,4830.0,0.0,0.0,
2025-08-15T03:11:01.588Z,5,GR86-012-8,-53.3,0.149,-0.861,48.84,3.0,,0.0,0.0,102.03
2025-08-15T03:11:01.631Z,5,GR86-012-8,-51.2,0.136,-0.899,48.67,3.0,,0.0,0.0,
2025-08-15T03:11:01.675Z,5,GR86-012-8,-49.7,0.133,-0.886,48.36,3.0,,0.0,0.0,
2025-08-15T03:11:01.717Z,5,GR86-012-8,-49.7,0.154,-0.841,46.25,3.0,,0.0,0.0,
2025-08-15T03:11:01.760Z,5,GR86-012-8,-50.7,0.152,-0.855,44.22,3.0,4878.0,0.0,0.0,
2025-08-15T03:11:01.806Z,5,GR86-012-8,-52.2,0.125,-0.836,38.91,3.0,,0.0,0.0,102.81
2025-08-15T03:11:01.849Z,5,GR86-012-8,-52.400000000000006,0.124,-0.857,35.93,3.0,,0.0,0.0,
2025-08-15T03:11:01.892Z,5,GR86-012-8,-52.400000000000006,0.124,-0.844,35.230000000000004,3.0,,0.0,0.0,
2025-08-15T03:11:01.935Z,5,GR86-012-8,-52.3,0.135,-0.811,35.18,3.0,,0.0,0.0,
2025-08-15T03:11:01.978Z,5,GR86-012-8,-51.8,0.105,-0.79,34.83,3.0,4917.0,0.0,0.0,
2025-08-15T03:11:02.021Z,5,GR86-012-8,-51.6,0.095,-0.781,34.76,3.0,,0.0,0.0,103.9
2025-08-15T03:11:02.065Z,5,GR86-012-8,-51.8,0.11,-0.79,35.52,3.0,,0.0,0.0,
2025-08-15T03:11:02.108Z,5,GR86-012-8,-52.0,0.073,-0.76,36.81,3.0,,0.0,0.0,
2025-08-15T03:11:02.151Z,5,GR86-012-8,-52.0,0.061,-0.8240000000000001,44.14,3.0,,0.0,0.0,
2025-08-15T03:11:02.196Z,5,GR86-012-8,-51.400000000000006,0.077,-0.835,60.9,3.0,4939.0,0.0,0.0,
2025-08-15T03:11:02.239Z,5,GR86-012-8,-50.3,0.151,-0.807,80.28,3.0,,0.0,0.0,104.6
2025-08-15T03:11:02.282Z,5,GR86-012-8,-49.1,0.181,-0.844,97.5,3.0,,0.0,0.0,
2025-08-15T03:11:02.325Z,5,GR86-012-8,-47.1,0.136,-0.784,99.89,3.0,,0.0,0.0,
2025-08-15T03:11:02.368Z,5,GR86-012-8,-46.400000000000006,0.131,-0.865,99.88,3.0,,0.0,0.0,
2025-08-15T03:11:02.411Z,5,GR86-012-8,-46.2,0.172,-0.8130000000000001,99.86,3.0,5030.0,0.0,0.0,
2025-08-15T03:11:02.455Z,5,GR86-012-8,-46.2,0.128,-0.797,99.88,3.0,,0.0,0.0,105.66
2025-08-15T03:11:02.497Z,5,GR86-012-8,-45.400000000000006,0.153,-0.874,99.87,3.0,,0.0,0.0,
2025-08-15T03:11:02.540Z,5,GR86-012-8,-43.900000000000006,0.166,-0.903,99.86,3.0,,0.0,0.0,
2025-08-15T03:11:02.586Z,5,GR86-012-8,-40.0,0.101,-0.85,99.88,3.0,,0.0,0.0,
2025-08-15T03:11:02.628Z,5,GR86-012-8,-36.2,0.146,-0.872,99.88,3.0,5156.0,0.0,0.0,
2025-08-15T03:11:02.671Z,5,GR86-012-8,-31.5,0.188,-0.908,94.2,3.0,,0.0,0.0,106.68
2025-08-15T03:11:02.715Z,5,GR86-012-8,-25.700000000000003,0.195,-0.973,72.4,3.0,,0.0,0.0,
2025-08-15T03:11:02.757Z,5,GR86-012-8,-18.7,0.201,-1.006,61.18,3.0,,0.0,0.0,
2025-08-15T03:11:02.800Z,5,GR86-012-8,-10.5,0.17,-0.958,42.81,3.0,,0.0,0.0,
2025-08-15T03:11:02.845Z,5,GR86-012-8,0.3,0.18,-0.951,31.87,3.0,5283.0,0.0,0.0,
2025-08-15T03:11:02.888Z,5,GR86-012-8,0.9,0.159,-0.889,29.9,3.0,,0.0,0.0,108.74
2025-08-15T03:11:02.931Z,5,GR86-012-8,-4.9,0.159,-0.894,30.09,3.0,,0.0,0.0,
2025-08-15T03:11:02.975Z,5,GR86-012-8,-14.0,0.107,-0.844,43.31,3.0,,0.0,0.0,
2025-08-15T03:11:03.018Z,5,GR86-012-8,-24.700000000000003,0.085,-0.877,76.55,3.0,,0.0,0.0,
2025-08-15T03:11:03.061Z,5,GR86-012-8,-36.0,0.12,-0.872,99.69,3.0,5176.0,0.0,0.0,
2025-08-15T03:11:03.105Z,5,GR86-012-8,-49.0,0.168,-0.8280000000000001,99.88,3.0,,0.0,0.0,108.6
2025-08-15T03:11:03.148Z,5,GR86-012-8,-51.3,0.169,-0.806,99.87,3.0,,0.0,0.0,
2025-08-15T03:11:03.191Z,5,GR86-012-8,-48.7,0.163,-0.768,99.85,3.0,,0.0,0.0,
2025-08-15T03:11:03.235Z,5,GR86-012-8,-44.2,0.133,-0.734,99.87,3.0,,0.0,0.0,
2025-08-15T03:11:03.278Z,5,GR86-012-8,-39.8,0.155,-0.7010000000000001,99.86,3.0,5148.0,0.0,0.0,
2025-08-15T03:11:03.321Z,5,GR86-012-8,-36.5,0.177,-0.666,99.87,3.0,,0.0,0.0,109.0
2025-08-15T03:11:03.365Z,5,GR86-012-8,-32.4,0.159,-0.643,99.87,3.0,,0.0,0.0,
2025-08-15T03:11:03.408Z,5,GR86-012-8,-28.3,0.152,-0.656,99.87,3.0,,0.0,0.0,
2025-08-15T03:11:03.451Z,5,GR86-012-8,-23.700000000000003,0.179,-0.635,99.86,3.0,,0.0,0.0,
2025-08-15T03:11:03.497Z,5,GR86-012-8,-19.1,0.164,-0.609,99.87,3.0,5245.0,0.0,0.0,
2025-08-15T03:11:03.539Z,5,GR86-012-8,-15.8,0.18,-0.585,99.87,3.0,,0.0,0.0,110.14
2025-08-15T03:11:03.582Z,5,GR86-012-8,-14.3,0.191,-0.535,99.88,3.0,,0.0,0.0,
2025-08-15T03:11:03.625Z,5,GR86-012-8,-13.9,0.186,-0.498,99.87,3.0,,0.0,0.0,
2025-08-15T03:11:03.668Z,5,GR86-012-8,-13.9,0.18,-0.465,99.87,3.0,,0.0,0.0,
2025-08-15T03:11:03.711Z,5,GR86-012-8,-13.9,0.192,-0.446,99.87,3.0,5295.0,0.0,0.0,
2025-08-15T03:11:03.756Z,5,GR86-012-8,-13.6,0.18,-0.406,99.87,3.0,,0.0,0.0,111.46
2025-08-15T03:11:03.799Z,5,GR86-012-8,-13.5,0.181,-0.365,99.86,3.0,,0.0,0.0,
2025-08-15T03:11:03.842Z,5,GR86-012-8,-13.5,0.186,-0.332,99.87,3.0,,0.0,0.0,
2025-08-15T03:11:03.886Z,5,GR86-012-8,-13.5,0.18,-0.299,99.87,3.0,,0.0,0.0,
2025-08-15T03:11:03.929Z,5,GR86-012-8,-13.5,0.171,-0.28,99.87,3.0,5331.0,0.0,0.0,
2025-08-15T03:11:03.972Z,5,GR86-012-8,-13.5,0.185,-0.281,99.86,3.0,,0.0,0.0,112.86
2025-08-15T03:11:04.015Z,5,GR86-012-8,-13.5,0.198,-0.261,99.89,3.0,,0.0,0.0,
2025-08-15T03:11:04.058Z,5,GR86-012-8,-13.5,0.174,-0.257,99.88,3.0,,0.0,0.0,
2025-08-15T03:11:04.101Z,5,GR86-012-8,-13.4,0.168,-0.269,99.87,3.0,,0.0,0.0,
2025-08-15T03:11:04.145Z,5,GR86-012-8,-13.0,0.186,-0.271,99.86,3.0,5391.0,0.0,0.0,
2025-08-15T03:11:04.188Z,5,GR86-012-8,-12.8,0.194,-0.258,99.88,3.0,,0.0,0.0,114.22
2025-08-15T03:11:04.231Z,5,GR86-012-8,-12.5,0.185,-0.269,99.87,3.0,,0.0,0.0,
2025-08-15T03:11:04.275Z,5,GR86-012-8,-12.5,0.173,-0.273,99.91,3.0,,0.0,0.0,
2025-08-15T03:11:04.318Z,5,GR86-012-8,-12.4,0.169,-0.27,99.89,3.0,,0.0,0.0,
2025-08-15T03:11:04.361Z,5,GR86-012-8,-11.7,0.191,-0.274,99.9,3.0,5455.0,0.0,0.0,
2025-08-15T03:11:04.405Z,5,GR86-012-8,-9.4,0.185,-0.264,99.89,3.0,,0.0,0.0,115.55
2025-08-15T03:11:04.448Z,5,GR86-012-8,-7.800000000000001,0.177,-0.257,99.91,3.0,,0.0,0.0,
2025-08-15T03:11:04.491Z,5,GR86-012-8,-6.7,0.177,-0.25,99.89,3.0,,0.0,0.0,
2025-08-15T03:11:04.535Z,5,GR86-012-8,-6.300000000000001,0.192,-0.231,99.91,3.0,,0.0,0.0,
2025-08-15T03:11:04.578Z,5,GR86-012-8,-5.9,0.203,-0.218,99.89,3.0,5531.0,0.0,0.0,
2025-08-15T03:11:04.621Z,5,GR86-012-8,-5.5,0.183,-0.196,99.91,3.0,,0.0,0.0,116.89
2025-08-15T03:11:04.665Z,5,GR86-012-8,-5.2,0.182,-0.184,99.89,3.0,,0.0,0.0,
2025-08-15T03:11:04.708Z,5,GR86-012-8,-4.9,0.184,-0.179,99.9,3.0,,0.0,0.0,
2025-08-15T03:11:04.751Z,5,GR86-012-8,-4.7,0.192,-0.161,99.91,3.0,,0.0,0.0,
2025-08-15T03:11:04.797Z,5,GR86-012-8,-4.7,0.187,-0.16,99.89,3.0,5593.0,0.0,0.0,
2025-08-15T03:11:04.839Z,5,GR86-012-8,-4.6000000000000005,0.185,-0.153,99.91,3.0,,0.0,0.0,118.18
2025-08-15T03:11:04.882Z,5,GR86-012-8,-4.4,0.196,-0.13,99.88,3.0,,0.0,0.0,
2025-08-15T03:11:04.925Z,5,GR86-012-8,-4.2,0.192,-0.116,99.91,3.0,,0.0,0.0,
2025-08-15T03:11:04.968Z,5,GR86-012-8,-4.2,0.189,-0.11,99.9,3.0,,0.0,0.0,
2025-08-15T03:11:05.011Z,5,GR86-012-8,-4.2,0.171,-0.097,99.89,3.0,5652.0,0.0,0.0,
2025-08-15T03:11:05.055Z,5,GR86-012-8,-4.0,0.195,-0.102,99.91,3.0,,0.0,0.0,119.61
2025-08-15T03:11:05.098Z,5,GR86-012-8,-3.9,0.196,-0.098,99.91,3.0,,0.0,0.0,
2025-08-15T03:11:05.141Z,5,GR86-012-8,-3.9,0.188,-0.089,99.9,3.0,,0.0,0.0,
2025-08-15T03:11:05.186Z,5,GR86-012-8,-3.9,0.18,-0.087,99.9,3.0,,0.0,0.0,
2025-08-15T03:11:05.272Z,5,GR86-012-8,-3.9,0.184,-0.077,99.89,3.0,5732.0,0.0,0.0,120.99
2025-08-15T03:11:05.315Z,5,GR86-012-8,-3.8,0.177,-0.079,99.91,3.0,,0.0,0.0,
2025-08-15T03:11:05.358Z,5,GR86-012-8,-3.6,0.179,-0.074,99.89,3.0,,0.0,0.0,
2025-08-15T03:11:05.401Z,5,GR86-012-8,-3.2,0.209,-0.083,99.87,3.0,,0.0,0.0,
2025-08-15T03:11:05.446Z,5,GR86-012-8,-3.0,0.197,-0.077,99.9,3.0,5787.0,0.0,0.0,
2025-08-15T03:11:05.488Z,5,GR86-012-8,-3.0,0.179,-0.069,99.91,3.0,,0.0,0.0,123.91
2025-08-15T03:11:05.531Z,5,GR86-012-8,-3.0,0.166,-0.063,99.91,3.0,,0.0,0.0,
2025-08-15T03:11:05.575Z,5,GR86-012-8,-3.0,0.2,-0.071,99.91,3.0,,0.0,0.0,
2025-08-15T03:11:05.617Z,5,GR86-012-8,-3.0,0.196,-0.065,99.9,3.0,,0.0,0.0,
2025-08-15T03:11:05.660Z,5,GR86-012-8,-3.0,0.176,-0.053,99.89,3.0,5844.0,0.0,0.0,
2025-08-15T03:11:05.706Z,5,GR86-012-8,-3.0,0.167,-0.067,99.89,3.0,,0.0,0.0,125.33
2025-08-15T03:11:05.749Z,5,GR86-012-8,-2.8000000000000003,0.185,-0.064,99.87,3.0,,0.0,0.0,
2025-08-15T03:11:05.792Z,5,GR86-012-8,-2.2,0.211,-0.075,99.89,3.0,,0.0,0.0,
2025-08-15T03:11:05.835Z,5,GR86-012-8,-1.6,0.188,-0.049,99.88,3.0,,0.0,0.0,
2025-08-15T03:11:05.878Z,5,GR86-012-8,-1.5,0.174,-0.051,99.89,3.0,5920.0,0.0,0.0,
2025-08-15T03:11:05.921Z,5,GR86-012-8,-1.5,0.181,-0.058,99.87,3.0,,0.0,0.0,126.85
2025-08-15T03:11:05.965Z,5,GR86-012-8,-1.5,0.191,-0.055,99.9,3.0,,0.0,0.0,
2025-08-15T03:11:06.008Z,5,GR86-012-8,-1.5,0.2,-0.045,99.88,3.0,,0.0,0.0,
2025-08-15T03:11:06.051Z,5,GR86-012-8,-1.5,0.174,-0.022,99.87,3.0,,0.0,0.0,
2025-08-15T03:11:06.096Z,5,GR86-012-8,-1.5,0.179,-0.032,99.91,3.0,6060.0,0.0,0.0,
2025-08-15T03:11:06.139Z,5,GR86-012-8,-1.5,0.191,-0.036,99.9,3.0,,0.0,0.0,128.36
2025-08-15T03:11:06.182Z,5,GR86-012-8,-1.5,0.174,-0.032,99.88,3.0,,0.0,0.0,
2025-08-15T03:11:06.225Z,5,GR86-012-8,-1.5,0.185,-0.03,99.86,3.0,,0.0,0.0,
2025-08-15T03:11:06.268Z,5,GR86-012-8,-1.5,0.167,-0.018,99.87,3.0,,0.0,0.0,
2025-08-15T03:11:06.311Z,5,GR86-012-8,-1.5,0.178,-0.019,99.89,3.0,6139.0,0.0,0.0,
2025-08-15T03:11:06.355Z,5,GR86-012-8,-1.5,0.192,-0.022,99.9,3.0,,0.0,0.0,129.82
2025-08-15T03:11:06.397Z,5,GR86-012-8,-1.3,0.173,-0.004,99.89,3.0,,0.0,0.0,
2025-08-15T03:11:06.440Z,5,GR86-012-8,-1.2000000000000002,0.156,-0.01,99.91,3.0,,0.0,0.0,
2025-08-15T03:11:06.486Z,5,GR86-012-8,-1.2000000000000002,0.157,-0.015,99.9,3.0,,0.0,0.0,
2025-08-15T03:11:06.529Z,5,GR86-012-8,-1.2000000000000002,0.176,-0.021,99.9,3.0,6206.0,0.0,0.0,
2025-08-15T03:11:06.572Z,5,GR86-012-8,-1.1,0.202,-0.021,99.9,3.0,,0.0,0.0,131.37
2025-08-15T03:11:06.615Z,5,GR86-012-8,-1.1,0.172,-0.017,99.89,3.0,,0.0,0.0,
2025-08-15T03:11:06.658Z,5,GR86-012-8,-1.1,0.165,-0.012,99.9,3.0,,0.0,0.0,
2025-08-15T03:11:06.701Z,5,GR86-012-8,-1.1,0.168,-0.02,99.91,3.0,,0.0,0.0,
2025-08-15T03:11:06.745Z,5,GR86-012-8,-1.1,0.167,-0.019,99.89,3.0,6272.0,0.0,0.0,
2025-08-15T03:11:06.788Z,5,GR86-012-8,-1.1,0.189,-0.029,99.92,3.0,,0.0,0.0,132.86
2025-08-15T03:11:06.831Z,5,GR86-012-8,-1.1,0.174,-0.02,99.9,3.0,,0.0,0.0,
2025-08-15T03:11:06.875Z,5,GR86-012-8,-1.0,0.162,-0.028,99.9,3.0,,0.0,0.0,
2025-08-15T03:11:06.918Z,5,GR86-012-8,-1.0,0.165,-0.026,99.91,3.0,,0.0,0.0,
2025-08-15T03:11:06.961Z,5,GR86-012-8,-0.9,0.177,-0.032,99.92,3.0,6342.0,0.0,0.0,
2025-08-15T03:11:07.006Z,5,GR86-012-8,-0.9,0.172,-0.015,99.91,3.0,,0.0,0.0,134.36
2025-08-15T03:11:07.048Z,5,GR86-012-8,-0.8,0.188,-0.015,99.91,3.0,,0.0,0.0,
2025-08-15T03:11:07.091Z,5,GR86-012-8,-0.7000000000000001,0.173,-0.016,99.91,3.0,,0.0,0.0,
2025-08-15T03:11:07.136Z,5,GR86-012-8,-0.5,0.156,-0.016,99.89,3.0,,0.0,0.0,
2025-08-15T03:11:07.178Z,5,GR86-012-8,-0.3,0.169,-0.026,99.91,3.0,6429.0,0.0,0.0,
2025-08-15T03:11:07.221Z,5,GR86-012-8,-0.1,0.188,-0.027,99.91,3.0,,0.0,0.0,135.82
2025-08-15T03:11:07.265Z,5,GR86-012-8,-0.1,0.162,-0.019,99.9,3.0,,0.0,0.0,
2025-08-15T03:11:07.308Z,5,GR86-012-8,-0.1,0.168,-0.014,99.89,3.0,,0.0,0.0,
2025-08-15T03:11:07.351Z,5,GR86-012-8,-0.1,0.168,-0.018,99.9,3.0,,0.0,0.0,
2025-08-15T03:11:07.397Z,5,GR86-012-8,-0.1,0.169,-0.012,99.91,3.0,6493.0,0.0,0.0,
2025-08-15T03:11:07.440Z,5,GR86-012-8,0.0,0.171,-0.008,99.9,3.0,,0.0,0.0,137.35
2025-08-15T03:11:07.486Z,5,GR86-012-8,0.0,0.157,-0.013,99.91,3.0,,0.0,0.0,
2025-08-15T03:11:07.529Z,5,GR86-012-8,0.0,0.164,-0.004,99.9,3.0,,0.0,0.0,
2025-08-15T03:11:07.572Z,5,GR86-012-8,0.0,0.159,-0.007,99.89,3.0,,0.0,0.0,
2025-08-15T03:11:07.615Z,5,GR86-012-8,0.0,0.167,-0.007,99.91,3.0,6568.0,0.0,0.0,
2025-08-15T03:11:07.658Z,5,GR86-012-8,0.1,0.17,-0.002,99.9,3.0,,0.0,0.0,138.98
2025-08-15T03:11:07.701Z,5,GR86-012-8,0.3,0.168,0.004,99.91,3.0,,0.0,0.0,
2025-08-15T03:11:07.745Z,5,GR86-012-8,0.3,0.153,0.006,99.9,3.0,,0.0,0.0,
2025-08-15T03:11:07.788Z,5,GR86-012-8,0.3,0.126,-0.004,99.9,3.0,,0.0,0.0,
2025-08-15T03:11:07.831Z,5,GR86-012-8,0.3,-0.132,0.04,99.92,4.0,6659.0,0.0,0.0,
2025-08-15T03:11:07.875Z,5,GR86-012-8,0.3,0.045,0.013,99.91,4.0,,0.0,0.0,140.61
2025-08-15T03:11:07.918Z,5,GR86-012-8,0.8,0.484,-0.016,99.9,4.0,,0.0,0.0,
2025-08-15T03:11:07.961Z,5,GR86-012-8,0.8,0.181,0.007,99.92,4.0,,0.0,0.0,
2025-08-15T03:11:08.005Z,5,GR86-012-8,-0.7000000000000001,0.015,0.01,99.9,4.0,,0.0,0.0,
2025-08-15T03:11:08.048Z,5,GR86-012-8,-0.7000000000000001,0.131,0.003,99.91,4.0,6240.0,0.0,0.0,
2025-08-15T03:11:08.091Z,5,GR86-012-8,-0.7000000000000001,0.184,0.025,99.9,4.0,,0.0,0.0,143.82
2025-08-15T03:11:08.135Z,5,GR86-012-8,-0.7000000000000001,0.133,0.009,99.9,4.0,,0.0,0.0,
2025-08-15T03:11:08.178Z,5,GR86-012-8,-1.3,0.125,-0.002,99.91,4.0,,0.0,0.0,
2025-08-15T03:11:08.221Z,5,GR86-012-8,-2.2,0.13,0.01,99.89,4.0,,0.0,0.0,
2025-08-15T03:11:08.265Z,5,GR86-012-8,-2.6,0.149,-0.02,99.91,4.0,5756.0,0.0,0.0,
2025-08-15T03:11:08.308Z,5,GR86-012-8,-3.2,0.15,-0.018,99.91,4.0,,0.0,0.0,145.33
2025-08-15T03:11:08.351Z,5,GR86-012-8,-4.4,0.127,-0.015,99.89,4.0,,0.0,0.0,
2025-08-15T03:11:08.396Z,5,GR86-012-8,-5.7,0.109,-0.028,99.89,4.0,,0.0,0.0,
2025-08-15T03:11:08.439Z,5,GR86-012-8,-5.9,0.116,-0.055,99.92,4.0,,0.0,0.0,
2025-08-15T03:11:08.482Z,5,GR86-012-8,-5.9,0.144,-0.082,99.91,4.0,5768.0,0.0,0.0,
2025-08-15T03:11:08.525Z,5,GR86-012-8,-6.1000000000000005,0.127,-0.095,99.9,4.0,,0.0,0.0,146.71
2025-08-15T03:11:08.568Z,5,GR86-012-8,-6.300000000000001,0.112,-0.115,99.9,4.0,,0.0,0.0,
2025-08-15T03:11:08.611Z,5,GR86-012-8,-6.300000000000001,0.129,-0.139,99.91,4.0,,0.0,0.0,
2025-08-15T03:11:08.655Z,5,GR86-012-8,-6.300000000000001,0.143,-0.153,99.91,4.0,,0.0,0.0,
2025-08-15T03:11:08.698Z,5,GR86-012-8,-6.300000000000001,0.135,-0.136,99.9,4.0,5872.0,0.0,0.0,
2025-08-15T03:11:08.741Z,5,GR86-012-8,-6.300000000000001,0.109,-0.136,99.89,4.0,,0.0,0.0,148.41
2025-08-15T03:11:08.786Z,5,GR86-012-8,-6.300000000000001,0.131,-0.162,99.9,4.0,,0.0,0.0,
2025-08-15T03:11:08.829Z,5,GR86-012-8,-6.300000000000001,0.127,-0.181,99.9,4.0,,0.0,0.0,
2025-08-15T03:11:08.872Z,5,GR86-012-8,-6.300000000000001,0.112,-0.18,99.89,4.0,,0.0,0.0,
2025-08-15T03:11:08.915Z,5,GR86-012-8,-6.300000000000001,0.108,-0.185,99.9,4.0,5932.0,0.0,0.0,
2025-08-15T03:11:08.958Z,5,GR86-012-8,-6.300000000000001,0.129,-0.193,99.91,4.0,,0.0,0.0,149.77
2025-08-15T03:11:09.001Z,5,GR86-012-8,-6.300000000000001,0.14,-0.194,99.9,4.0,,0.0,0.0,
2025-08-15T03:11:09.046Z,5,GR86-012-8,-6.300000000000001,0.12,-0.186,99.9,4.0,,0.0,0.0,
2025-08-15T03:11:09.088Z,5,GR86-012-8,-6.4,0.131,-0.19,99.9,4.0,,0.0,0.0,
2025-08-15T03:11:09.131Z,5,GR86-012-8,-6.6000000000000005,0.138,-0.188,99.9,4.0,5990.0,0.0,0.0,
2025-08-15T03:11:09.175Z,5,GR86-012-8,-6.6000000000000005,0.128,-0.183,99.9,4.0,,0.0,0.0,151.31
2025-08-15T03:11:09.217Z,5,GR86-012-8,-6.6000000000000005,0.113,-0.168,99.9,4.0,,0.0,0.0,
2025-08-15T03:11:09.260Z,5,GR86-012-8,-6.6000000000000005,0.105,-0.165,99.9,4.0,,0.0,0.0,
2025-08-15T03:11:09.306Z,5,GR86-012-8,-6.800000000000001,0.124,-0.158,99.9,4.0,,0.0,0.0,
2025-08-15T03:11:09.392Z,5,GR86-012-8,-7.5,0.107,-0.173,99.91,4.0,6040.0,0.0,0.0,152.87
2025-08-15T03:11:09.435Z,5,GR86-012-8,-8.200000000000001,0.12,-0.181,99.91,4.0,,0.0,0.0,
2025-08-15T03:11:09.478Z,5,GR86-012-8,-9.1,0.134,-0.19,99.91,4.0,,0.0,0.0,
2025-08-15T03:11:09.565Z,5,GR86-012-8,-9.7,0.135,-0.2,99.92,4.0,6095.0,0.0,0.0,
2025-08-15T03:11:09.608Z,5,GR86-012-8,-9.9,0.12,-0.23,99.9,4.0,,0.0,0.0,154.24
2025-08-15T03:11:09.651Z,5,GR86-012-8,-9.9,0.142,-0.231,99.9,4.0,,0.0,0.0,
2025-08-15T03:11:09.696Z,5,GR86-012-8,-9.9,0.131,-0.214,99.92,4.0,,0.0,0.0,
2025-08-15T03:11:09.739Z,5,GR86-012-8,-10.0,0.119,-0.215,99.91,4.0,,0.0,0.0,
2025-08-15T03:11:09.782Z,5,GR86-012-8,-10.0,0.097,-0.221,99.9,4.0,6146.0,0.0,0.0,
2025-08-15T03:11:09.825Z,5,GR86-012-8,-10.2,0.137,-0.274,99.91,4.0,,0.0,0.0,155.5
2025-08-15T03:11:09.868Z,5,GR86-012-8,-10.6,0.13,-0.294,99.91,4.0,,0.0,0.0,
2025-08-15T03:11:09.911Z,5,GR86-012-8,-11.1,0.111,-0.293,99.9,4.0,,0.0,0.0,
2025-08-15T03:11:09.955Z,5,GR86-012-8,-12.0,0.086,-0.307,99.9,4.0,,0.0,0.0,
2025-08-15T03:11:09.997Z,5,GR86-012-8,-12.8,0.081,-0.333,98.55,4.0,6211.0,0.0,0.0,
2025-08-15T03:11:10.040Z,5,GR86-012-8,-12.8,0.106,-0.337,90.35,4.0,,0.0,0.0,156.67000000000002
2025-08-15T03:11:10.086Z,5,GR86-012-8,-11.1,0.09,-0.329,71.57000000000001,4.0,,0.0,0.0,
2025-08-15T03:11:10.129Z,5,GR86-012-8,-9.3,0.083,-0.328,66.55,4.0,,0.0,0.0,
2025-08-15T03:11:10.172Z,5,GR86-012-8,-7.5,0.101,-0.314,60.2,4.0,,0.0,0.0,
2025-08-15T03:11:10.215Z,5,GR86-012-8,-7.0,0.105,-0.311,52.76,4.0,6253.0,0.0,0.0,
2025-08-15T03:11:10.258Z,5,GR86-012-8,-7.0,0.12,-0.301,45.55,4.0,,0.0,0.0,158.14
2025-08-15T03:11:10.301Z,5,GR86-012-8,-7.0,0.116,-0.298,44.18,4.0,,0.0,0.0,
2025-08-15T03:11:10.345Z,5,GR86-012-8,-7.800000000000001,0.073,-0.281,40.43,4.0,,0.0,0.0,
2025-08-15T03:11:10.388Z,5,GR86-012-8,-8.5,0.072,-0.266,37.46,4.0,,0.0,0.0,
2025-08-15T03:11:10.431Z,5,GR86-012-8,-8.5,0.077,-0.249,36.8,4.0,6296.0,0.0,0.0,
2025-08-15T03:11:10.475Z,5,GR86-012-8,-7.800000000000001,0.068,-0.243,36.73,4.0,,0.0,0.0,159.4
2025-08-15T03:11:10.518Z,5,GR86-012-8,-7.0,0.069,-0.241,35.13,4.0,,0.0,0.0,
2025-08-15T03:11:10.561Z,5,GR86-012-8,-5.800000000000001,0.047,-0.235,34.62,4.0,,0.0,0.0,
2025-08-15T03:11:10.605Z,5,GR86-012-8,-4.7,0.067,-0.219,34.52,4.0,,0.0,0.0,
2025-08-15T03:11:10.648Z,5,GR86-012-8,-4.7,0.062,-0.207,33.31,4.0,6319.0,0.0,0.0,
2025-08-15T03:11:10.691Z,5,GR86-012-8,-4.7,0.056,-0.191,32.0,4.0,,0.0,0.0,161.67000000000002
2025-08-15T03:11:10.736Z,5,GR86-012-8,-4.7,0.038,-0.181,29.68,4.0,,0.0,0.0,
2025-08-15T03:11:10.778Z,5,GR86-012-8,-4.7,0.023,-0.157,3.26,4.0,,0.0,0.0,
2025-08-15T03:11:10.821Z,5,GR86-012-8,-4.7,0.008,-0.149,3.88,4.0,,0.0,0.0,
2025-08-15T03:11:10.866Z,5,GR86-012-8,-4.9,-0.129,-0.113,3.6,4.0,6340.0,0.0,0.0,
2025-08-15T03:11:10.908Z,5,GR86-012-8,-5.4,-0.15,-0.125,3.37,4.0,,0.0,0.0,162.41
2025-08-15T03:11:10.951Z,5,GR86-012-8,-6.300000000000001,-0.333,-0.109,3.19,4.0,,0.0,0.0,
2025-08-15T03:11:10.996Z,5,GR86-012-8,-7.1000000000000005,-0.197,-0.1,3.08,4.0,,4.565,4.775,
2025-08-15T03:11:11.039Z,5,GR86-012-8,-7.300000000000001,-0.199,-0.157,2.97,4.0,,13.52,13.335,
2025-08-15T03:11:11.082Z,5,GR86-012-8,-7.2,-0.515,-0.146,2.9,4.0,6151.0,26.05,25.425,
2025-08-15T03:11:11.125Z,5,GR86-012-8,-6.2,-0.8310000000000001,-0.142,2.73,4.0,,42.955,42.025,162.24
2025-08-15T03:11:11.168Z,5,GR86-012-8,-4.7,-0.927,-0.125,2.67,4.0,,48.865,47.765,
2025-08-15T03:11:11.211Z,5,GR86-012-8,-3.5,-0.962,-0.144,2.6,4.0,,52.89,51.93,
2025-08-15T03:11:11.256Z,5,GR86-012-8,-3.1,-1.024,-0.169,2.5500000000000003,4.0,,57.925,56.585,
2025-08-15T03:11:11.299Z,5,GR86-012-8,-3.4000000000000004,-0.99,-0.183,2.54,4.0,5761.0,60.4,59.985,
2025-08-15T03:11:11.342Z,5,GR86-012-8,-2.9000000000000004,-1.099,-0.169,2.53,4.0,,60.49,60.08,155.61
2025-08-15T03:11:11.386Z,5,GR86-012-8,-1.5,-1.17,-0.142,2.52,4.0,,65.205,64.03,
2025-08-15T03:11:11.429Z,5,GR86-012-8,-2.5,-1.041,-0.092,2.51,4.0,,64.365,64.185,
2025-08-15T03:11:11.472Z,5,GR86-012-8,-3.4000000000000004,-1.132,-0.089,2.51,4.0,,64.33500000000001,64.185,
2025-08-15T03:11:11.515Z,5,GR86-012-8,-4.5,-1.13,-0.102,6.640000000000001,4.0,5420.0,66.275,65.3,
2025-08-15T03:11:11.558Z,5,GR86-012-8,-7.1000000000000005,-1.138,-0.164,48.03,4.0,,65.65,65.71000000000001,148.54
2025-08-15T03:11:11.601Z,5,GR86-012-8,-8.700000000000001,-1.163,-0.118,87.32000000000001,3.0,,63.955,64.365,
2025-08-15T03:11:11.645Z,5,GR86-012-8,-7.800000000000001,-1.035,-0.11,5.65,3.0,,65.68,66.365,
2025-08-15T03:11:11.688Z,5,GR86-012-8,-7.800000000000001,-1.003,-0.031,3.47,3.0,,67.05,68.565,
2025-08-15T03:11:11.731Z,5,GR86-012-8,-7.9,-1.177,-0.18,3.16,3.0,5403.0,63.955,64.52,
2025-08-15T03:11:11.775Z,5,GR86-012-8,-7.0,-1.054,0.013,3.02,3.0,,61.45,61.68,138.55
2025-08-15T03:11:11.817Z,5,GR86-012-8,-6.800000000000001,-0.8180000000000001,-0.041,2.96,3.0,,60.2,61.33,
2025-08-15T03:11:11.905Z,5,GR86-012-8,-8.700000000000001,-0.945,-0.139,2.86,3.0,,50.875,51.565,
2025-08-15T03:11:11.948Z,5,GR86-012-8,-10.0,-0.869,-0.184,2.64,3.0,5310.0,40.685,41.11,
2025-08-15T03:11:11.991Z,5,GR86-012-8,-10.4,-0.811,-0.092,2.61,3.0,,43.02,43.92,128.51
2025-08-15T03:11:12.035Z,5,GR86-012-8,-14.0,-0.912,-0.111,2.57,3.0,,46.895,47.58,
2025-08-15T03:11:12.078Z,5,GR86-012-8,-16.400000000000002,-0.709,-0.267,2.51,3.0,,48.265,49.23,
2025-08-15T03:11:12.121Z,5,GR86-012-8,-15.7,-0.838,-0.271,11.25,3.0,,47.09,47.185,
2025-08-15T03:11:12.165Z,5,GR86-012-8,-15.2,-0.85,-0.219,77.84,3.0,5742.0,49.825,49.365,
2025-08-15T03:11:12.207Z,5,GR86-012-8,-16.400000000000002,-0.911,-0.291,85.49,2.0,,52.115,51.96,127.84
2025-08-15T03:11:12.250Z,5,GR86-012-8,-15.5,-0.859,-0.28,15.33,2.0,,52.370000000000005,53.0,
2025-08-15T03:11:12.294Z,5,GR86-012-8,-14.1,-0.914,-0.194,2.96,2.0,,54.74,55.365,
2025-08-15T03:11:12.336Z,5,GR86-012-8,-13.0,-0.996,-0.465,2.8000000000000003,2.0,,56.555,56.875,
2025-08-15T03:11:12.379Z,5,GR86-012-8,-12.8,-1.016,-0.313,2.64,2.0,5851.0,53.24,53.715,
2025-08-15T03:11:12.422Z,5,GR86-012-8,-12.8,-0.874,-0.224,2.54,2.0,,53.425,54.205,123.78
2025-08-15T03:11:12.465Z,5,GR86-012-8,-13.6,-0.808,-0.592,2.51,2.0,,45.095,45.81,
2025-08-15T03:11:12.508Z,5,GR86-012-8,-14.1,-0.856,-0.353,2.48,2.0,,37.555,38.56,
2025-08-15T03:11:12.551Z,5,GR86-012-8,-14.1,-0.681,-0.59,2.48,2.0,,35.405,35.83,
2025-08-15T03:11:12.596Z,5,GR86-012-8,-14.4,-0.862,-0.556,2.48,2.0,5980.0,35.31,35.435,
2025-08-15T03:11:12.639Z,5,GR86-012-8,-14.3,-0.77,-0.555,2.48,2.0,,34.49,34.99,117.17
2025-08-15T03:11:12.682Z,5,GR86-012-8,-11.3,-0.706,-0.661,2.48,2.0,,32.14,32.685,
2025-08-15T03:11:12.729Z,5,GR86-012-8,-8.700000000000001,-0.6990000000000001,-0.526,2.48,2.0,,32.015,32.105000000000004,
2025-08-15T03:11:12.772Z,5,GR86-012-8,-9.7,-0.736,-0.595,2.48,2.0,,32.17,32.38,
2025-08-15T03:11:12.815Z,5,GR86-012-8,-12.9,-0.6900000000000001,-0.5630000000000001,2.48,2.0,6183.0,30.93,31.33,
2025-08-15T03:11:12.858Z,5,GR86-012-8,-15.4,-0.772,-0.534,2.48,2.0,,31.8,31.74,113.99
2025-08-15T03:11:12.901Z,5,GR86-012-8,-19.5,-0.713,-0.604,2.48,2.0,,32.14,32.445,
2025-08-15T03:11:12.946Z,5,GR86-012-8,-22.8,-0.721,-0.558,2.47,2.0,,30.61,30.995,
2025-08-15T03:11:12.988Z,5,GR86-012-8,-24.8,-0.6950000000000001,-0.459,2.48,2.0,,31.68,31.83,
2025-08-15T03:11:13.031Z,5,GR86-012-8,-27.200000000000003,-0.744,-0.5700000000000001,2.48,2.0,5913.0,32.17,32.305,
2025-08-15T03:11:13.075Z,5,GR86-012-8,-29.8,-0.642,-0.5750000000000001,2.48,2.0,,29.465,30.245,109.53
2025-08-15T03:11:13.118Z,5,GR86-012-8,-32.800000000000004,-0.724,-0.599,2.48,2.0,,28.125,28.49,
2025-08-15T03:11:13.161Z,5,GR86-012-8,-36.5,-0.733,-0.579,2.48,2.0,,28.37,28.69,
2025-08-15T03:11:13.206Z,5,GR86-012-8,-41.900000000000006,-0.667,-0.661,2.48,2.0,,26.535,27.18,
2025-08-15T03:11:13.249Z,5,GR86-012-8,-44.2,-0.648,-0.662,2.48,2.0,5677.0,24.735,25.15,
2025-08-15T03:11:13.292Z,5,GR86-012-8,-44.6,-0.655,-0.662,2.48,2.0,,23.865,24.34,100.84
2025-08-15T03:11:13.335Z,5,GR86-012-8,-44.0,-0.588,-0.767,2.48,2.0,,22.905,23.335,
2025-08-15T03:11:13.378Z,5,GR86-012-8,-43.3,-0.582,-0.741,2.48,2.0,,20.295,21.15,
2025-08-15T03:11:13.421Z,5,GR86-012-8,-43.3,-0.5740000000000001,-0.719,2.48,2.0,,18.83,19.245,
2025-08-15T03:11:13.465Z,5,GR86-012-8,-43.3,-0.531,-0.75,2.48,2.0,5503.0,15.03,15.84,
2025-08-15T03:11:13.508Z,5,GR86-012-8,-45.1,-0.468,-0.8170000000000001,2.48,2.0,,12.895,13.49,97.52
2025-08-15T03:11:13.551Z,5,GR86-012-8,-47.7,-0.468,-0.8190000000000001,2.47,2.0,,12.145,12.74,
2025-08-15T03:11:13.596Z,5,GR86-012-8,-49.0,-0.452,-0.844,2.47,2.0,,12.145,12.53,
2025-08-15T03:11:13.639Z,5,GR86-012-8,-49.1,-0.459,-0.855,2.47,2.0,,11.37,11.995,
2025-08-15T03:11:13.682Z,5,GR86-012-8,-49.1,-0.438,-0.864,2.47,2.0,5299.0,11.035,11.43,
2025-08-15T03:11:13.725Z,5,GR86-012-8,-49.1,-0.422,-0.883,2.48,2.0,,9.57,10.115,94.83
2025-08-15T03:11:13.768Z,5,GR86-012-8,-49.7,-0.387,-0.894,2.48,2.0,,8.27,8.76,
2025-08-15T03:11:13.811Z,5,GR86-012-8,-51.8,-0.371,-0.866,2.47,2.0,,6.655,7.235,
2025-08-15T03:11:13.855Z,5,GR86-012-8,-54.2,-0.329,-0.888,2.47,2.0,,4.99,5.555,
2025-08-15T03:11:13.897Z,5,GR86-012-8,-55.1,-0.316,-0.917,2.47,2.0,5018.0,3.035,3.525,
2025-08-15T03:11:13.940Z,5,GR86-012-8,-55.0,-0.234,-0.958,2.48,2.0,,0.0,0.0,92.13
2025-08-15T03:11:13.986Z,5,GR86-012-8,-54.3,-0.209,-0.927,2.48,2.0,,0.0,0.0,
2025-08-15T03:11:14.028Z,5,GR86-012-8,-54.3,-0.204,-0.95,2.48,2.0,,0.0,0.0,
2025-08-15T03:11:14.071Z,5,GR86-012-8,-54.3,-0.199,-0.936,2.48,2.0,,0.0,0.0,
2025-08-15T03:11:14.115Z,5,GR86-012-8,-54.3,-0.195,-0.993,5.0600000000000005,2.0,4958.0,0.0,0.0,
2025-08-15T03:11:14.157Z,5,GR86-012-8,-55.3,-0.201,-0.964,5.47,2.0,,0.0,0.0,90.65
2025-08-15T03:11:14.200Z,5,GR86-012-8,-58.400000000000006,-0.196,-0.982,8.72,2.0,,0.0,0.0,
2025-08-15T03:11:14.245Z,5,GR86-012-8,-64.60000000000001,-0.199,-0.952,16.54,2.0,,0.0,0.0,
2025-08-15T03:11:14.288Z,5,GR86-012-8,-68.5,-0.184,-0.951,17.71,2.0,,0.0,0.0,
2025-08-15T03:11:14.331Z,5,GR86-012-8,-71.8,-0.149,-0.967,20.4,2.0,4897.0,0.0,0.0,
2025-08-15T03:11:14.375Z,5,GR86-012-8,-74.5,-0.144,-0.964,21.2,2.0,,0.0,0.0,89.24
2025-08-15T03:11:14.418Z,5,GR86-012-8,-77.0,-0.144,-0.959,21.37,2.0,,0.0,0.0,
2025-08-15T03:11:14.461Z,5,GR86-012-8,-79.2,-0.134,-0.953,21.58,2.0,,0.0,0.0,
2025-08-15T03:11:14.506Z,5,GR86-012-8,-81.7,-0.077,-0.947,21.84,2.0,,0.0,0.0,
2025-08-15T03:11:14.548Z,5,GR86-012-8,-83.10000000000001,0.127,-0.914,21.96,2.0,5018.0,0.0,0.0,
2025-08-15T03:11:14.591Z,5,GR86-012-8,-83.80000000000001,0.104,-0.926,22.04,2.0,,0.0,0.0,87.82000000000001
2025-08-15T03:11:14.636Z,5,GR86-012-8,-83.80000000000001,0.051,-0.903,22.7,2.0,,0.0,0.0,
2025-08-15T03:11:14.678Z,5,GR86-012-8,-84.30000000000001,0.001,-0.916,23.12,2.0,,0.0,0.0,
2025-08-15T03:11:14.721Z,5,GR86-012-8,-86.60000000000001,-0.023,-0.904,23.73,2.0,,0.0,0.0,
2025-08-15T03:11:14.765Z,5,GR86-012-8,-92.2,0.032,-0.919,23.68,2.0,4959.0,0.0,0.0,
2025-08-15T03:11:14.808Z,5,GR86-012-8,-94.3,0.048,-0.934,22.58,2.0,,0.0,0.0,87.09
2025-08-15T03:11:14.851Z,5,GR86-012-8,-94.6,0.058,-0.897,22.38,2.0,,0.0,0.0,
2025-08-15T03:11:14.896Z,5,GR86-012-8,-94.6,0.043,-0.878,22.27,2.0,,0.0,0.0,
2025-08-15T03:11:14.939Z,5,GR86-012-8,-94.7,0.033,-0.904,18.78,2.0,,0.0,0.0,
2025-08-15T03:11:14.982Z,5,GR86-012-8,-94.7,0.017,-0.886,10.26,2.0,5035.0,0.0,0.0,
2025-08-15T03:11:15.025Z,5,GR86-012-8,-94.7,-0.004,-0.893,8.05,2.0,,0.0,0.0,87.19
2025-08-15T03:11:15.068Z,5,GR86-012-8,-94.7,-0.045,-0.907,7.96,2.0,,0.0,0.0,
2025-08-15T03:11:15.111Z,5,GR86-012-8,-94.7,-0.1,-0.924,12.75,2.0,,0.0,0.0,
2025-08-15T03:11:15.156Z,5,GR86-012-8,-94.7,-0.13,-0.94,21.81,2.0,,0.0,0.0,
2025-08-15T03:11:15.199Z,5,GR86-012-8,-94.7,-0.136,-0.933,21.61,2.0,4963.0,0.0,0.0,
2025-08-15T03:11:15.242Z,5,GR86-012-8,-94.7,-0.148,-0.916,22.22,2.0,,0.0,0.0,87.44
2025-08-15T03:11:15.286Z,5,GR86-012-8,-93.4,-0.152,-0.954,33.06,2.0,,0.0,0.0,
2025-08-15T03:11:15.329Z,5,GR86-012-8,-90.9,-0.153,-0.981,42.93,2.0,,0.0,0.0,
2025-08-15T03:11:15.372Z,5,GR86-012-8,-87.7,-0.056,-0.973,56.43,2.0,,0.0,0.0,
2025-08-15T03:11:15.415Z,5,GR86-012-8,-84.2,0.197,-0.971,71.72,2.0,4777.0,0.0,0.0,
2025-08-15T03:11:15.458Z,5,GR86-012-8,-81.4,0.233,-0.953,90.36,2.0,,0.0,0.0,87.58
2025-08-15T03:11:15.501Z,5,GR86-012-8,-78.4,0.241,-0.916,99.95,2.0,,0.0,0.0,
2025-08-15T03:11:15.545Z,5,GR86-012-8,-73.5,0.188,-0.931,99.84,2.0,,0.0,0.0,
2025-08-15T03:11:15.588Z,5,GR86-012-8,-69.4,0.176,-0.925,99.86,2.0,,0.0,0.0,
2025-08-15T03:11:15.631Z,5,GR86-012-8,-65.10000000000001,0.162,-0.926,99.85,2.0,5191.0,0.0,0.0,
2025-08-15T03:11:15.675Z,5,GR86-012-8,-61.1,0.181,-0.903,99.84,2.0,,0.0,0.0,86.96000000000001
2025-08-15T03:11:15.717Z,5,GR86-012-8,-57.6,0.213,-0.869,99.84,2.0,,0.0,0.0,
2025-08-15T03:11:15.760Z,5,GR86-012-8,-54.7,0.222,-0.894,99.85,2.0,,0.0,0.0,
2025-08-15T03:11:15.805Z,5,GR86-012-8,-51.900000000000006,0.206,-0.876,99.85,2.0,,0.0,0.0,
2025-08-15T03:11:15.848Z,5,GR86-012-8,-52.0,0.208,-0.928,99.85,2.0,5233.0,0.0,0.0,
2025-08-15T03:11:15.936Z,5,GR86-012-8,-53.900000000000006,0.222,-0.916,99.84,2.0,,0.0,0.0,88.73
2025-08-15T03:11:15.978Z,5,GR86-012-8,-57.8,0.225,-0.85,99.86,2.0,,0.0,0.0,
2025-08-15T03:11:16.065Z,5,GR86-012-8,-58.400000000000006,0.211,-0.857,99.85,2.0,5316.0,0.0,0.0,
2025-08-15T03:11:16.108Z,5,GR86-012-8,-58.3,0.206,-0.895,99.87,2.0,,0.0,0.0,90.02
2025-08-15T03:11:16.151Z,5,GR86-012-8,-57.5,0.237,-0.896,99.84,2.0,,0.0,0.0,
2025-08-15T03:11:16.196Z,5,GR86-012-8,-56.3,0.232,-0.892,99.83,2.0,,0.0,0.0,
2025-08-15T03:11:16.239Z,5,GR86-012-8,-55.0,0.226,-0.932,99.84,2.0,,0.0,0.0,
2025-08-15T03:11:16.282Z,5,GR86-012-8,-53.1,0.206,-0.913,99.85,2.0,5369.0,0.0,0.0,
2025-08-15T03:11:16.325Z,5,GR86-012-8,-50.900000000000006,0.213,-0.932,99.87,2.0,,0.0,0.0,91.54
2025-08-15T03:11:16.368Z,5,GR86-012-8,-50.6,0.233,-0.866,99.83,2.0,,0.0,0.0,
2025-08-15T03:11:16.455Z,5,GR86-012-8,-51.0,0.214,-0.8150000000000001,99.87,2.0,,0.0,0.0,
2025-08-15T03:11:16.498Z,5,GR86-012-8,-51.1,0.194,-0.843,99.86,2.0,5484.0,0.0,0.0,
2025-08-15T03:11:16.541Z,5,GR86-012-8,-51.1,0.201,-0.8260000000000001,99.87,2.0,,0.0,0.0,93.21
2025-08-15T03:11:16.586Z,5,GR86-012-8,-50.900000000000006,0.22,-0.847,99.87,2.0,,0.0,0.0,
2025-08-15T03:11:16.629Z,5,GR86-012-8,-50.2,0.224,-0.8270000000000001,99.87,2.0,,0.0,0.0,
2025-08-15T03:11:16.672Z,5,GR86-012-8,-49.1,0.214,-0.782,99.85,2.0,,0.0,0.0,
2025-08-15T03:11:16.715Z,5,GR86-012-8,-47.8,0.22,-0.811,99.87,2.0,5568.0,0.0,0.0,
2025-08-15T03:11:16.758Z,5,GR86-012-8,-46.3,0.198,-0.788,99.84,2.0,,0.0,0.0,94.68
2025-08-15T03:11:16.801Z,5,GR86-012-8,-44.900000000000006,0.217,-0.8290000000000001,99.85,2.0,,0.0,0.0,
2025-08-15T03:11:16.846Z,5,GR86-012-8,-42.7,0.222,-0.797,99.85,2.0,,0.0,0.0,
2025-08-15T03:11:16.888Z,5,GR86-012-8,-40.7,0.227,-0.781,99.86,2.0,,0.0,0.0,
2025-08-15T03:11:16.931Z,5,GR86-012-8,-38.3,0.225,-0.797,99.84,2.0,5676.0,0.0,0.0,
2025-08-15T03:11:16.975Z,5,GR86-012-8,-35.300000000000004,0.22,-0.78,99.83,2.0,,0.0,0.0,96.22
2025-08-15T03:11:17.017Z,5,GR86-012-8,-32.4,0.244,-0.773,99.86,2.0,,0.0,0.0,
2025-08-15T03:11:17.060Z,5,GR86-012-8,-29.5,0.251,-0.714,99.84,2.0,,0.0,0.0,
2025-08-15T03:11:17.106Z,5,GR86-012-8,-26.3,0.236,-0.66,99.87,2.0,,0.0,0.0,
2025-08-15T03:11:17.149Z,5,GR86-012-8,-24.9,0.232,-0.62,99.86,2.0,5745.0,0.0,0.0,
2025-08-15T03:11:17.192Z,5,GR86-012-8,-23.700000000000003,0.222,-0.616,99.84,2.0,,0.0,0.0,97.86
2025-08-15T03:11:17.235Z,5,GR86-012-8,-22.9,0.245,-0.621,99.84,2.0,,0.0,0.0,
2025-08-15T03:11:17.278Z,5,GR86-012-8,-22.4,0.252,-0.5760000000000001,99.84,2.0,,0.0,0.0,
2025-08-15T03:11:17.321Z,5,GR86-012-8,-22.4,0.247,-0.54,99.85,2.0,,0.0,0.0,
2025-08-15T03:11:17.365Z,5,GR86-012-8,-22.4,0.251,-0.491,99.85,2.0,5825.0,0.0,0.0,
2025-08-15T03:11:17.408Z,5,GR86-012-8,-21.6,0.224,-0.462,99.84,2.0,,0.0,0.0,98.53
2025-08-15T03:11:17.451Z,5,GR86-012-8,-20.700000000000003,0.222,-0.461,99.85,2.0,,0.0,0.0,
2025-08-15T03:11:17.496Z,5,GR86-012-8,-19.9,0.222,-0.442,99.87,2.0,,0.0,0.0,
2025-08-15T03:11:17.539Z,5,GR86-012-8,-19.3,0.238,-0.417,99.87,2.0,,0.0,0.0,
2025-08-15T03:11:17.582Z,5,GR86-012-8,-18.9,0.239,-0.402,99.87,2.0,5919.0,0.0,0.0,
2025-08-15T03:11:17.628Z,5,GR86-012-8,-17.7,0.221,-0.401,99.87,2.0,,0.0,0.0,100.37
2025-08-15T03:11:17.671Z,5,GR86-012-8,-17.5,0.225,-0.386,99.87,2.0,,0.0,0.0,
2025-08-15T03:11:17.715Z,5,GR86-012-8,-17.5,0.238,-0.38,99.88,2.0,,0.0,0.0,
2025-08-15T03:11:17.757Z,5,GR86-012-8,-17.400000000000002,0.249,-0.362,99.87,2.0,,0.0,0.0,
2025-08-15T03:11:17.800Z,5,GR86-012-8,-16.8,0.241,-0.346,99.87,2.0,6007.0,0.0,0.0,
2025-08-15T03:11:17.845Z,5,GR86-012-8,-14.7,0.232,-0.323,99.89,2.0,,0.0,0.0,102.23
2025-08-15T03:11:17.888Z,5,GR86-012-8,-13.1,0.231,-0.315,99.85,2.0,,0.0,0.0,
2025-08-15T03:11:17.931Z,5,GR86-012-8,-11.7,0.248,-0.294,99.83,2.0,,0.0,0.0,
2025-08-15T03:11:17.975Z,5,GR86-012-8,-11.1,0.235,-0.284,99.84,2.0,,0.0,0.0,
2025-08-15T03:11:18.018Z,5,GR86-012-8,-11.1,0.233,-0.273,99.85,2.0,6106.0,0.0,0.0,
2025-08-15T03:11:18.061Z,5,GR86-012-8,-11.1,0.233,-0.276,99.87,2.0,,0.0,0.0,104.02
2025-08-15T03:11:18.108Z,5,GR86-012-8,-11.0,0.227,-0.268,99.87,2.0,,0.0,0.0,
2025-08-15T03:11:18.151Z,5,GR86-012-8,-10.8,0.254,-0.254,99.89,2.0,,0.0,0.0,
2025-08-15T03:11:18.197Z,5,GR86-012-8,-10.6,0.254,-0.231,99.88,2.0,,0.0,0.0,
2025-08-15T03:11:18.239Z,5,GR86-012-8,-10.3,0.225,-0.216,99.86,2.0,6198.0,0.0,0.0,
2025-08-15T03:11:18.282Z,5,GR86-012-8,-9.7,0.226,-0.213,99.89,2.0,,0.0,0.0,105.75
2025-08-15T03:11:18.329Z,5,GR86-012-8,-8.3,0.226,-0.187,99.88,2.0,,0.0,0.0,
2025-08-15T03:11:18.372Z,5,GR86-012-8,-8.1,0.215,-0.188,99.87,2.0,,0.0,0.0,
2025-08-15T03:11:18.415Z,5,GR86-012-8,-7.9,0.243,-0.166,99.86,2.0,,0.0,0.0,
2025-08-15T03:11:18.458Z,5,GR86-012-8,-7.300000000000001,0.241,-0.163,99.87,2.0,6296.0,0.0,0.0,
2025-08-15T03:11:18.501Z,5,GR86-012-8,-6.7,0.234,-0.149,99.88,2.0,,0.0,0.0,109.27
2025-08-15T03:11:18.545Z,5,GR86-012-8,-6.5,0.242,-0.14,99.88,2.0,,0.0,0.0,
2025-08-15T03:11:18.588Z,5,GR86-012-8,-6.4,0.238,-0.142,99.87,2.0,,0.0,0.0,
2025-08-15T03:11:18.631Z,5,GR86-012-8,-6.0,0.219,-0.138,99.88,2.0,,0.0,0.0,
2025-08-15T03:11:18.675Z,5,GR86-012-8,-5.5,0.231,-0.133,99.87,2.0,6398.0,0.0,0.0,
2025-08-15T03:11:18.717Z,5,GR86-012-8,-5.4,0.237,-0.14,99.88,2.0,,0.0,0.0,111.02
2025-08-15T03:11:18.760Z,5,GR86-012-8,-5.300000000000001,0.238,-0.112,99.88,2.0,,0.0,0.0,
2025-08-15T03:11:18.805Z,5,GR86-012-8,-4.6000000000000005,0.234,-0.102,99.89,2.0,,0.0,0.0,
2025-08-15T03:11:18.848Z,5,GR86-012-8,-4.0,0.222,-0.092,99.88,2.0,,0.0,0.0,
2025-08-15T03:11:18.891Z,5,GR86-012-8,-3.7,0.222,-0.098,99.88,2.0,6607.0,0.0,0.0,
2025-08-15T03:11:18.935Z,5,GR86-012-8,-3.5,0.236,-0.092,99.88,2.0,,0.0,0.0,112.79
2025-08-15T03:11:18.978Z,5,GR86-012-8,-3.4000000000000004,0.224,-0.094,99.88,2.0,,0.0,0.0,
2025-08-15T03:11:19.021Z,5,GR86-012-8,-3.4000000000000004,0.23,-0.094,99.88,2.0,,0.0,0.0,
2025-08-15T03:11:19.065Z,5,GR86-012-8,-3.4000000000000004,0.222,-0.075,99.88,2.0,,0.0,0.0,
2025-08-15T03:11:19.108Z,5,GR86-012-8,-3.4000000000000004,0.219,-0.063,99.87,2.0,6693.0,0.0,0.0,
2025-08-15T03:11:19.151Z,5,GR86-012-8,-3.4000000000000004,0.215,-0.06,99.88,2.0,,0.0,0.0,114.56
2025-08-15T03:11:19.196Z,5,GR86-012-8,-3.4000000000000004,0.223,-0.047,99.88,2.0,,0.0,0.0,
2025-08-15T03:11:19.239Z,5,GR86-012-8,-3.2,0.25,-0.052,99.87,2.0,,0.0,0.0,
2025-08-15T03:11:19.282Z,5,GR86-012-8,-3.1,0.237,-0.047,99.87,2.0,,0.0,0.0,
2025-08-15T03:11:19.325Z,5,GR86-012-8,-3.1,0.208,-0.056,99.88,2.0,6787.0,0.0,0.0,
2025-08-15T03:11:19.368Z,5,GR86-012-8,-3.0,0.213,-0.067,99.87,2.0,,0.0,0.0,116.24
2025-08-15T03:11:19.411Z,5,GR86-012-8,-2.7,0.21,-0.062,99.87,2.0,,0.0,0.0,
2025-08-15T03:11:19.455Z,5,GR86-012-8,-2.7,0.224,-0.072,99.87,2.0,,0.0,0.0,
2025-08-15T03:11:19.498Z,5,GR86-012-8,-2.6,0.237,-0.065,99.87,2.0,,0.0,0.0,
2025-08-15T03:11:19.541Z,5,GR86-012-8,-2.7,0.224,-0.05,99.88,2.0,6886.0,0.0,0.0,
2025-08-15T03:11:19.586Z,5,GR86-012-8,-2.7,0.211,-0.039,99.89,2.0,,0.0,0.0,117.99
2025-08-15T03:11:19.629Z,5,GR86-012-8,-2.6,0.21,-0.047,99.87,2.0,,0.0,0.0,
2025-08-15T03:11:19.672Z,5,GR86-012-8,-2.7,0.224,-0.04,99.88,2.0,,0.0,0.0,
2025-08-15T03:11:19.715Z,5,GR86-012-8,-2.7,0.216,-0.028,99.9,2.0,,0.0,0.0,
2025-08-15T03:11:19.758Z,5,GR86-012-8,-2.8000000000000003,0.21,-0.039,99.88,2.0,6979.0,0.0,0.0,
2025-08-15T03:11:19.801Z,5,GR86-012-8,-2.8000000000000003,0.21,-0.038,99.88,2.0,,0.0,0.0,119.65
2025-08-15T03:11:19.846Z,5,GR86-012-8,-2.8000000000000003,0.217,-0.041,99.9,2.0,,0.0,0.0,
2025-08-15T03:11:19.888Z,5,GR86-012-8,-2.8000000000000003,0.225,-0.041,99.9,2.0,,0.0,0.0,
2025-08-15T03:11:19.931Z,5,GR86-012-8,-2.8000000000000003,0.225,-0.037,99.91,2.0,,0.0,0.0,
2025-08-15T03:11:19.975Z,5,GR86-012-8,-2.8000000000000003,0.215,-0.036,99.89,2.0,7082.0,0.0,0.0,
2025-08-15T03:11:20.018Z,5,GR86-012-8,-2.8000000000000003,0.206,-0.028,99.88,2.0,,0.0,0.0,121.25
2025-08-15T03:11:20.061Z,5,GR86-012-8,-2.8000000000000003,0.194,-0.04,99.87,2.0,,0.0,0.0,
2025-08-15T03:11:20.106Z,5,GR86-012-8,-2.8000000000000003,0.204,-0.044,99.88,2.0,,0.0,0.0,
2025-08-15T03:11:20.149Z,5,GR86-012-8,-2.6,0.092,-0.043,99.9,3.0,,0.0,0.0,
2025-08-15T03:11:20.192Z,5,GR86-012-8,-2.5,-0.125,-0.009,99.88,3.0,7158.0,0.0,0.0,
2025-08-15T03:11:20.235Z,5,GR86-012-8,-1.9,0.591,-0.053,99.89,3.0,,0.0,0.0,122.86
2025-08-15T03:11:20.278Z,5,GR86-012-8,-1.5,0.457,-0.129,99.9,3.0,,0.0,0.0,
2025-08-15T03:11:20.321Z,5,GR86-012-8,-1.7000000000000002,0.294,0.002,99.91,3.0,,0.0,0.0,
2025-08-15T03:11:20.365Z,5,GR86-012-8,-2.2,0.021,-0.092,99.9,3.0,,0.0,0.0,
2025-08-15T03:11:20.408Z,5,GR86-012-8,-2.2,0.109,-0.03,99.88,3.0,6158.0,0.0,0.0,
2025-08-15T03:11:20.451Z,5,GR86-012-8,-2.2,0.224,-0.062,99.9,3.0,,0.0,0.0,124.28
2025-08-15T03:11:20.496Z,5,GR86-012-8,-2.4000000000000004,0.224,-0.056,99.9,3.0,,0.0,0.0,
2025-08-15T03:11:20.539Z,5,GR86-012-8,-3.0,0.178,-0.036,99.9,3.0,,0.0,0.0,
2025-08-15T03:11:20.582Z,5,GR86-012-8,-3.7,0.159,-0.052,99.88,3.0,,0.0,0.0,
2025-08-15T03:11:20.628Z,5,GR86-012-8,-3.8,0.17,-0.065,99.87,3.0,5996.0,0.0,0.0,
2025-08-15T03:11:20.671Z,5,GR86-012-8,-4.1000000000000005,0.191,-0.056,99.88,3.0,,0.0,0.0,125.93
2025-08-15T03:11:20.715Z,5,GR86-012-8,-4.4,0.173,-0.06,99.89,3.0,,0.0,0.0,
2025-08-15T03:11:20.757Z,5,GR86-012-8,-4.4,0.165,-0.067,99.89,3.0,,0.0,0.0,
2025-08-15T03:11:20.800Z,5,GR86-012-8,-4.4,0.181,-0.077,99.89,3.0,,0.0,0.0,
2025-08-15T03:11:20.845Z,5,GR86-012-8,-4.4,0.181,-0.087,99.9,3.0,6012.0,0.0,0.0,
2025-08-15T03:11:20.888Z,5,GR86-012-8,-4.4,0.19,-0.091,99.91,3.0,,0.0,0.0,128.56
2025-08-15T03:11:20.931Z,5,GR86-012-8,-4.4,0.159,-0.08,99.91,3.0,,0.0,0.0,
2025-08-15T03:11:20.975Z,5,GR86-012-8,-4.4,0.161,-0.084,99.89,3.0,,0.0,0.0,
2025-08-15T03:11:21.018Z,5,GR86-012-8,-4.4,0.164,-0.081,99.9,3.0,,0.0,0.0,
2025-08-15T03:11:21.061Z,5,GR86-012-8,-4.2,0.181,-0.096,99.9,3.0,6063.0,0.0,0.0,
2025-08-15T03:11:21.106Z,5,GR86-012-8,-4.1000000000000005,0.185,-0.099,99.91,3.0,,0.0,0.0,129.81
2025-08-15T03:11:21.148Z,5,GR86-012-8,-3.9,0.159,-0.105,99.9,3.0,,0.0,0.0,
2025-08-15T03:11:21.191Z,5,GR86-012-8,-3.8,0.162,-0.105,99.88,3.0,,0.0,0.0,
2025-08-15T03:11:21.235Z,5,GR86-012-8,-3.8,0.173,-0.107,99.88,3.0,,0.0,0.0,
2025-08-15T03:11:21.278Z,5,GR86-012-8,-3.8,0.174,-0.103,99.88,3.0,6140.0,0.0,0.0,
2025-08-15T03:11:21.321Z,5,GR86-012-8,-3.8,0.178,-0.098,99.88,3.0,,0.0,0.0,131.12
2025-08-15T03:11:21.365Z,5,GR86-012-8,-3.7,0.164,-0.086,99.89,3.0,,0.0,0.0,
2025-08-15T03:11:21.408Z,5,GR86-012-8,-3.7,0.174,-0.077,99.91,3.0,,0.0,0.0,
2025-08-15T03:11:21.451Z,5,GR86-012-8,-3.7,0.168,-0.079,99.91,3.0,,0.0,0.0,
2025-08-15T03:11:21.496Z,5,GR86-012-8,-3.7,0.175,-0.08,99.91,3.0,6242.0,0.0,0.0,
2025-08-15T03:11:21.539Z,5,GR86-012-8,-3.7,0.171,-0.085,99.9,3.0,,0.0,0.0,132.37
2025-08-15T03:11:21.582Z,5,GR86-012-8,-3.7,0.182,-0.082,99.89,3.0,,0.0,0.0,
2025-08-15T03:11:21.628Z,5,GR86-012-8,-3.7,0.175,-0.081,99.88,3.0,,0.0,0.0,
2025-08-15T03:11:21.671Z,5,GR86-012-8,-3.7,0.169,-0.06,99.9,3.0,,0.0,0.0,
2025-08-15T03:11:21.715Z,5,GR86-012-8,-3.7,0.167,-0.074,99.88,3.0,6296.0,0.0,0.0,
2025-08-15T03:11:21.757Z,5,GR86-012-8,-3.7,0.168,-0.077,99.89,3.0,,0.0,0.0,133.62
2025-08-15T03:11:21.800Z,5,GR86-012-8,-3.7,0.179,-0.071,99.89,3.0,,0.0,0.0,
2025-08-15T03:11:21.845Z,5,GR86-012-8,-3.7,0.162,-0.073,99.91,3.0,,0.0,0.0,
2025-08-15T03:11:21.888Z,5,GR86-012-8,-3.7,0.169,-0.066,99.91,3.0,,0.0,0.0,
2025-08-15T03:11:21.931Z,5,GR86-012-8,-3.7,0.161,-0.075,99.89,3.0,6338.0,0.0,0.0,
2025-08-15T03:11:21.975Z,5,GR86-012-8,-3.7,0.173,-0.084,99.87,3.0,,0.0,0.0,134.81
2025-08-15T03:11:22.018Z,5,GR86-012-8,-3.7,0.171,-0.088,99.91,3.0,,0.0,0.0,
2025-08-15T03:11:22.061Z,5,GR86-012-8,-3.7,0.178,-0.084,99.9,3.0,,0.0,0.0,
2025-08-15T03:11:22.105Z,5,GR86-012-8,-3.7,0.167,-0.086,99.9,3.0,,0.0,0.0,
2025-08-15T03:11:22.148Z,5,GR86-012-8,-3.7,0.171,-0.087,99.91,3.0,6389.0,0.0,0.0,
2025-08-15T03:11:22.191Z,5,GR86-012-8,-3.7,0.164,-0.092,99.91,3.0,,0.0,0.0,135.98
2025-08-15T03:11:22.235Z,5,GR86-012-8,-3.7,0.16,-0.1,99.87,3.0,,0.0,0.0,
2025-08-15T03:11:22.278Z,5,GR86-012-8,-3.7,0.187,-0.107,99.89,3.0,,0.0,0.0,
2025-08-15T03:11:22.321Z,5,GR86-012-8,-3.7,0.179,-0.09,99.89,3.0,,0.0,0.0,
2025-08-15T03:11:22.365Z,5,GR86-012-8,-3.7,0.181,-0.098,99.87,3.0,6463.0,0.0,0.0,
2025-08-15T03:11:22.408Z,5,GR86-012-8,-3.7,0.169,-0.087,99.91,3.0,,0.0,0.0,137.19
2025-08-15T03:11:22.451Z,5,GR86-012-8,-3.7,0.163,-0.095,99.91,3.0,,0.0,0.0,
2025-08-15T03:11:22.496Z,5,GR86-012-8,-3.7,0.16,-0.103,99.88,3.0,,0.0,0.0,
2025-08-15T03:11:22.539Z,5,GR86-012-8,-3.7,0.174,-0.092,99.87,3.0,,0.0,0.0,
2025-08-15T03:11:22.582Z,5,GR86-012-8,-3.5,0.173,-0.072,99.91,3.0,6506.0,0.0,0.0,
2025-08-15T03:11:22.629Z,5,GR86-012-8,-3.3000000000000003,0.185,-0.077,99.92,3.0,,0.0,0.0,138.36
2025-08-15T03:11:22.672Z,5,GR86-012-8,-3.1,0.174,-0.07,99.89,3.0,,0.0,0.0,
2025-08-15T03:11:22.715Z,5,GR86-012-8,-2.9000000000000004,0.144,-0.071,99.88,3.0,,0.0,0.0,
2025-08-15T03:11:22.758Z,5,GR86-012-8,-2.8000000000000003,0.158,-0.08,99.87,3.0,,0.0,0.0,
2025-08-15T03:11:22.801Z,5,GR86-012-8,-2.8000000000000003,0.174,-0.079,99.89,3.0,6565.0,0.0,0.0,
2025-08-15T03:11:22.846Z,5,GR86-012-8,-2.8000000000000003,0.174,-0.088,99.9,3.0,,0.0,0.0,139.5
2025-08-15T03:11:22.888Z,5,GR86-012-8,-2.8000000000000003,0.172,-0.076,99.87,3.0,,0.0,0.0,
2025-08-15T03:11:22.931Z,5,GR86-012-8,-2.8000000000000003,0.168,-0.065,99.88,3.0,,0.0,0.0,
2025-08-15T03:11:22.975Z,5,GR86-012-8,-2.8000000000000003,0.153,-0.065,99.91,3.0,,0.0,0.0,
2025-08-15T03:11:23.017Z,5,GR86-012-8,-2.8000000000000003,0.157,-0.073,99.91,3.0,6613.0,0.0,0.0,
2025-08-15T03:11:23.060Z,5,GR86-012-8,-2.8000000000000003,0.172,-0.079,99.9,3.0,,0.0,0.0,140.72
2025-08-15T03:11:23.106Z,5,GR86-012-8,-2.8000000000000003,0.149,-0.061,99.88,3.0,,0.0,0.0,
2025-08-15T03:11:23.149Z,5,GR86-012-8,-2.7,0.15,-0.059,99.89,3.0,,0.0,0.0,
2025-08-15T03:11:23.192Z,5,GR86-012-8,-2.5,0.158,-0.067,99.91,3.0,,0.0,0.0,
2025-08-15T03:11:23.235Z,5,GR86-012-8,-2.5,0.164,-0.058,99.88,3.0,6677.0,0.0,0.0,
2025-08-15T03:11:23.278Z,5,GR86-012-8,-2.5,0.157,-0.066,99.88,3.0,,0.0,0.0,141.86
2025-08-15T03:11:23.321Z,5,GR86-012-8,-2.5,0.159,-0.059,99.89,3.0,,0.0,0.0,
2025-08-15T03:11:23.365Z,5,GR86-012-8,-2.4000000000000004,0.147,-0.056,99.9,3.0,,0.0,0.0,
2025-08-15T03:11:23.408Z,5,GR86-012-8,-2.4000000000000004,0.146,-0.052,99.9,3.0,,0.0,0.0,
2025-08-15T03:11:23.451Z,5,GR86-012-8,-2.3000000000000003,0.159,-0.051,99.91,3.0,6739.0,0.0,0.0,
2025-08-15T03:11:23.497Z,5,GR86-012-8,-2.2,0.164,-0.057,99.91,3.0,,0.0,0.0,144.15
2025-08-15T03:11:23.539Z,5,GR86-012-8,-2.2,0.161,-0.042,99.89,3.0,,0.0,0.0,
2025-08-15T03:11:23.582Z,5,GR86-012-8,-2.2,0.152,-0.048,99.9,3.0,,0.0,0.0,
2025-08-15T03:11:23.625Z,5,GR86-012-8,-2.2,0.157,-0.043,99.88,3.0,,0.0,0.0,
2025-08-15T03:11:23.668Z,5,GR86-012-8,-2.2,0.145,-0.046,99.92,3.0,6786.0,0.0,0.0,
2025-08-15T03:11:23.711Z,5,GR86-012-8,-2.2,0.149,-0.041,99.9,3.0,,0.0,0.0,145.38
2025-08-15T03:11:23.755Z,5,GR86-012-8,-2.1,0.163,-0.045,99.9,3.0,,0.0,0.0,
2025-08-15T03:11:23.797Z,5,GR86-012-8,-2.1,0.166,-0.039,99.88,3.0,,0.0,0.0,
2025-08-15T03:11:23.840Z,5,GR86-012-8,-2.1,0.149,-0.035,99.88,3.0,,0.0,0.0,
2025-08-15T03:11:23.886Z,5,GR86-012-8,-2.1,0.16,-0.04,99.89,3.0,6892.0,0.0,0.0,
2025-08-15T03:11:23.929Z,5,GR86-012-8,-2.1,0.16,-0.042,99.9,3.0,,0.0,0.0,146.47
2025-08-15T03:11:23.972Z,5,GR86-012-8,-2.1,0.147,-0.04,99.91,3.0,,0.0,0.0,
2025-08-15T03:11:24.015Z,5,GR86-012-8,-2.1,0.148,-0.046,99.89,3.0,,0.0,0.0,
2025-08-15T03:11:24.058Z,5,GR86-012-8,-2.1,0.152,-0.044,99.91,3.0,,0.0,0.0,
2025-08-15T03:11:24.101Z,5,GR86-012-8,-2.1,0.161,-0.048,99.9,3.0,6939.0,0.0,0.0,
2025-08-15T03:11:24.145Z,5,GR86-012-8,-2.1,0.152,-0.035,99.89,3.0,,0.0,0.0,147.65
2025-08-15T03:11:24.188Z,5,GR86-012-8,-2.1,0.143,-0.028,99.91,3.0,,0.0,0.0,
2025-08-15T03:11:24.231Z,5,GR86-012-8,-2.1,0.158,-0.039,99.91,3.0,,0.0,0.0,
2025-08-15T03:11:24.275Z,5,GR86-012-8,-2.1,0.149,-0.043,99.89,3.0,,0.0,0.0,
2025-08-15T03:11:24.318Z,5,GR86-012-8,-2.1,0.155,-0.046,99.91,3.0,6986.0,0.0,0.0,
2025-08-15T03:11:24.361Z,5,GR86-012-8,-2.1,0.148,-0.032,99.9,3.0,,0.0,0.0,148.70000000000002
2025-08-15T03:11:24.405Z,5,GR86-012-8,-2.1,0.142,-0.032,99.91,3.0,,0.0,0.0,
2025-08-15T03:11:24.448Z,5,GR86-012-8,-2.1,0.143,-0.028,99.89,3.0,,0.0,0.0,
2025-08-15T03:11:24.491Z,5,GR86-012-8,-2.1,0.145,-0.029,99.91,3.0,,0.0,0.0,
2025-08-15T03:11:24.536Z,5,GR86-012-8,-2.1,0.151,-0.025,99.89,3.0,7033.0,0.0,0.0,
2025-08-15T03:11:24.578Z,5,GR86-012-8,-2.1,0.156,-0.034,99.91,3.0,,0.0,0.0,149.77
2025-08-15T03:11:24.621Z,5,GR86-012-8,-2.1,0.157,-0.035,99.9,3.0,,0.0,0.0,
2025-08-15T03:11:24.665Z,5,GR86-012-8,-2.1,0.151,-0.039,99.86,3.0,,0.0,0.0,
2025-08-15T03:11:24.708Z,5,GR86-012-8,-2.1,0.145,-0.042,99.88,3.0,,0.0,0.0,
2025-08-15T03:11:24.751Z,5,GR86-012-8,-2.1,0.14,-0.052,99.9,3.0,7079.0,0.0,0.0,
2025-08-15T03:11:24.797Z,5,GR86-012-8,-2.1,0.15,-0.04,99.91,3.0,,0.0,0.0,150.82
2025-08-15T03:11:24.840Z,5,GR86-012-8,-2.1,0.156,-0.045,99.87,3.0,,0.0,0.0,
2025-08-15T03:11:24.886Z,5,GR86-012-8,-2.7,0.137,-0.075,99.9,3.0,,0.0,0.0,
2025-08-15T03:11:24.929Z,5,GR86-012-8,-3.6,0.14,-0.056,99.9,3.0,,0.0,0.0,
2025-08-15T03:11:24.972Z,5,GR86-012-8,-4.2,0.135,-0.05,99.9,3.0,7141.0,0.0,0.0,
2025-08-15T03:11:25.015Z,5,GR86-012-8,-4.2,0.14,-0.07,99.88,3.0,,0.0,0.0,151.83
2025-08-15T03:11:25.058Z,5,GR86-012-8,-4.2,0.151,-0.069,99.89,3.0,,0.0,0.0,
2025-08-15T03:11:25.101Z,5,GR86-012-8,-4.2,0.147,-0.096,99.9,3.0,,0.0,0.0,
2025-08-15T03:11:25.145Z,5,GR86-012-8,-4.2,0.134,-0.091,99.89,3.0,,0.0,0.0,
2025-08-15T03:11:25.188Z,5,GR86-012-8,-4.2,0.14,-0.093,99.91,3.0,7196.0,0.0,0.0,
2025-08-15T03:11:25.231Z,5,GR86-012-8,-4.2,0.134,-0.107,99.9,3.0,,0.0,0.0,152.89
2025-08-15T03:11:25.275Z,5,GR86-012-8,-4.2,0.135,-0.113,99.9,3.0,,0.0,0.0,
2025-08-15T03:11:25.318Z,5,GR86-012-8,-4.2,0.138,-0.112,99.89,3.0,,0.0,0.0,
2025-08-15T03:11:25.361Z,5,GR86-012-8,-4.2,0.144,-0.098,99.89,3.0,,0.0,0.0,
2025-08-15T03:11:25.405Z,5,GR86-012-8,-4.2,0.137,-0.116,99.88,3.0,7243.0,0.0,0.0,
2025-08-15T03:11:25.448Z,5,GR86-012-8,-4.2,0.132,-0.099,99.9,3.0,,0.0,0.0,153.95000000000002
2025-08-15T03:11:25.491Z,5,GR86-012-8,-4.2,0.143,-0.115,99.88,3.0,,0.0,0.0,
2025-08-15T03:11:25.535Z,5,GR86-012-8,-4.1000000000000005,0.004,-0.099,99.87,4.0,,0.0,0.0,
2025-08-15T03:11:25.578Z,5,GR86-012-8,-4.1000000000000005,-0.043,-0.054,99.91,4.0,,0.0,0.0,
2025-08-15T03:11:25.621Z,5,GR86-012-8,-3.7,0.482,-0.127,99.91,4.0,7292.0,0.0,0.0,
2025-08-15T03:11:25.665Z,5,GR86-012-8,-3.9,0.17,-0.064,99.89,4.0,,0.0,0.0,155.04
2025-08-15T03:11:25.708Z,5,GR86-012-8,-4.4,-0.004,-0.105,99.88,4.0,,0.0,0.0,
2025-08-15T03:11:25.751Z,5,GR86-012-8,-4.4,0.08,-0.13,99.88,4.0,,0.0,0.0,
2025-08-15T03:11:25.797Z,5,GR86-012-8,-4.4,0.149,-0.092,99.87,4.0,,0.0,0.0,
2025-08-15T03:11:25.839Z,5,GR86-012-8,-4.4,0.125,-0.128,99.88,4.0,6079.0,0.0,0.0,
2025-08-15T03:11:25.882Z,5,GR86-012-8,-4.4,0.103,-0.146,99.88,4.0,,0.0,0.0,155.95000000000002
2025-08-15T03:11:25.925Z,5,GR86-012-8,-5.300000000000001,0.106,-0.113,99.89,4.0,,0.0,0.0,
2025-08-15T03:11:25.968Z,5,GR86-012-8,-6.4,0.114,-0.121,99.88,4.0,,0.0,0.0,
2025-08-15T03:11:26.011Z,5,GR86-012-8,-7.1000000000000005,0.105,-0.111,99.91,4.0,,0.0,0.0,
2025-08-15T03:11:26.055Z,5,GR86-012-8,-7.1000000000000005,0.116,-0.117,99.9,4.0,6191.0,0.0,0.0,
2025-08-15T03:11:26.098Z,5,GR86-012-8,-7.0,0.128,-0.134,99.9,4.0,,0.0,0.0,158.12
2025-08-15T03:11:26.141Z,5,GR86-012-8,-6.800000000000001,0.123,-0.142,99.91,4.0,,0.0,0.0,
2025-08-15T03:11:26.186Z,5,GR86-012-8,-6.800000000000001,0.103,-0.166,99.91,4.0,,0.0,0.0,
2025-08-15T03:11:26.229Z,5,GR86-012-8,-6.800000000000001,0.123,-0.174,99.88,4.0,,0.0,0.0,
2025-08-15T03:11:26.272Z,5,GR86-012-8,-6.800000000000001,0.122,-0.17,99.89,4.0,6258.0,0.0,0.0,
2025-08-15T03:11:26.315Z,5,GR86-012-8,-6.800000000000001,0.12,-0.19,99.89,4.0,,0.0,0.0,159.15
2025-08-15T03:11:26.358Z,5,GR86-012-8,-6.800000000000001,0.109,-0.196,99.89,4.0,,0.0,0.0,
2025-08-15T03:11:26.401Z,5,GR86-012-8,-6.800000000000001,0.107,-0.197,99.88,4.0,,0.0,0.0,
2025-08-15T03:11:26.446Z,5,GR86-012-8,-6.800000000000001,0.121,-0.178,99.89,4.0,,0.0,0.0,
2025-08-15T03:11:26.488Z,5,GR86-012-8,-6.7,0.106,-0.183,99.87,4.0,6323.0,0.0,0.0,
2025-08-15T03:11:26.531Z,5,GR86-012-8,-6.4,0.105,-0.201,99.91,4.0,,0.0,0.0,160.08
2025-08-15T03:11:26.575Z,5,GR86-012-8,-6.1000000000000005,0.098,-0.204,99.91,4.0,,0.0,0.0,
2025-08-15T03:11:26.618Z,5,GR86-012-8,-5.9,0.099,-0.207,99.87,4.0,,0.0,0.0,
2025-08-15T03:11:26.661Z,5,GR86-012-8,-5.9,0.088,-0.182,99.88,4.0,,0.0,0.0,
2025-08-15T03:11:26.706Z,5,GR86-012-8,-5.7,0.093,-0.166,99.88,4.0,6352.0,0.0,0.0,
2025-08-15T03:11:26.749Z,5,GR86-012-8,-5.4,0.099,-0.177,99.88,4.0,,0.0,0.0,161.05
2025-08-15T03:11:26.792Z,5,GR86-012-8,-5.1000000000000005,0.101,-0.183,99.88,4.0,,0.0,0.0,
2025-08-15T03:11:26.835Z,5,GR86-012-8,-5.0,0.096,-0.172,99.89,4.0,,0.0,0.0,
2025-08-15T03:11:26.878Z,5,GR86-012-8,-5.0,0.095,-0.158,99.88,4.0,,0.0,0.0,
2025-08-15T03:11:26.921Z,5,GR86-012-8,-5.0,0.112,-0.152,99.89,4.0,6383.0,0.0,0.0,
2025-08-15T03:11:26.965Z,5,GR86-012-8,-5.0,0.098,-0.139,99.89,4.0,,0.0,0.0,162.02
2025-08-15T03:11:27.008Z,5,GR86-012-8,-5.0,0.091,-0.125,99.88,4.0,,0.0,0.0,
2025-08-15T03:11:27.051Z,5,GR86-012-8,-4.9,0.103,-0.111,99.91,4.0,,0.0,0.0,
2025-08-15T03:11:27.096Z,5,GR86-012-8,-4.9,0.111,-0.109,99.89,4.0,,0.0,0.0,
2025-08-15T03:11:27.139Z,5,GR86-012-8,-4.9,0.115,-0.105,99.9,4.0,6425.0,0.0,0.0,
2025-08-15T03:11:27.182Z,5,GR86-012-8,-4.9,0.128,-0.114,99.9,4.0,,0.0,0.0,162.97
2025-08-15T03:11:27.225Z,5,GR86-012-8,-4.9,0.092,-0.105,99.89,4.0,,0.0,0.0,
2025-08-15T03:11:27.268Z,5,GR86-012-8,-4.9,0.104,-0.113,99.88,4.0,,0.0,0.0,
2025-08-15T03:11:27.311Z,5,GR86-012-8,-4.9,0.121,-0.117,99.91,4.0,,0.0,0.0,
2025-08-15T03:11:27.355Z,5,GR86-012-8,-4.9,0.133,-0.126,99.9,4.0,6475.0,0.0,0.0,
2025-08-15T03:11:27.397Z,5,GR86-012-8,-4.9,0.126,-0.113,99.92,4.0,,0.0,0.0,163.82
2025-08-15T03:11:27.440Z,5,GR86-012-8,-4.9,0.12,-0.12,99.88,4.0,,0.0,0.0,
2025-08-15T03:11:27.486Z,5,GR86-012-8,-4.9,0.118,-0.136,99.88,4.0,,0.0,0.0,
2025-08-15T03:11:27.529Z,5,GR86-012-8,-4.9,0.121,-0.159,99.87,4.0,,0.0,0.0,
2025-08-15T03:11:27.615Z,5,GR86-012-8,-4.9,0.125,-0.144,99.89,4.0,6521.0,0.0,0.0,164.64
2025-08-15T03:11:27.658Z,5,GR86-012-8,-4.9,0.129,-0.128,99.92,4.0,,0.0,0.0,
2025-08-15T03:11:27.701Z,5,GR86-012-8,-4.9,0.109,-0.136,99.87,4.0,,0.0,0.0,
2025-08-15T03:11:27.745Z,5,GR86-012-8,-4.9,0.104,-0.142,99.89,4.0,,0.0,0.0,
2025-08-15T03:11:27.788Z,5,GR86-012-8,-4.9,0.115,-0.126,99.88,4.0,6533.0,0.0,0.0,
2025-08-15T03:11:27.831Z,5,GR86-012-8,-4.800000000000001,0.113,-0.125,99.89,4.0,,0.0,0.0,165.73
2025-08-15T03:11:27.875Z,5,GR86-012-8,-4.5,0.115,-0.131,99.89,4.0,,0.0,0.0,
2025-08-15T03:11:27.918Z,5,GR86-012-8,-4.4,0.118,-0.122,99.87,4.0,,0.0,0.0,
2025-08-15T03:11:27.961Z,5,GR86-012-8,-4.4,0.119,-0.127,99.87,4.0,,0.0,0.0,
2025-08-15T03:11:28.008Z,5,GR86-012-8,-4.3,0.114,-0.104,99.88,4.0,6567.0,0.0,0.0,
2025-08-15T03:11:28.051Z,5,GR86-012-8,-4.3,0.125,-0.096,99.9,4.0,,0.0,0.0,166.71
2025-08-15T03:11:28.097Z,5,GR86-012-8,-4.2,0.131,-0.101,99.87,4.0,,0.0,0.0,
2025-08-15T03:11:28.139Z,5,GR86-012-8,-4.2,0.113,-0.1,99.88,4.0,,0.0,0.0,
2025-08-15T03:11:28.182Z,5,GR86-012-8,-4.2,0.119,-0.105,99.88,4.0,,0.0,0.0,
2025-08-15T03:11:28.225Z,5,GR86-012-8,-4.2,0.108,-0.096,99.9,4.0,6613.0,0.0,0.0,
2025-08-15T03:11:28.268Z,5,GR86-012-8,-4.2,0.1,-0.092,99.89,4.0,,0.0,0.0,167.65
2025-08-15T03:11:28.311Z,5,GR86-012-8,-4.2,0.116,-0.094,99.88,4.0,,0.0,0.0,
2025-08-15T03:11:28.356Z,5,GR86-012-8,-4.2,0.122,-0.109,99.9,4.0,,0.0,0.0,
2025-08-15T03:11:28.399Z,5,GR86-012-8,-4.2,0.111,-0.123,99.91,4.0,,0.0,0.0,
2025-08-15T03:11:28.442Z,5,GR86-012-8,-4.2,0.111,-0.12,99.91,4.0,6642.0,0.0,0.0,
2025-08-15T03:11:28.486Z,5,GR86-012-8,-4.2,0.094,-0.106,99.87,4.0,,0.0,0.0,169.35
2025-08-15T03:11:28.529Z,5,GR86-012-8,-4.2,0.105,-0.103,99.88,4.0,,0.0,0.0,
2025-08-15T03:11:28.572Z,5,GR86-012-8,-4.2,0.108,-0.105,99.9,4.0,,0.0,0.0,
2025-08-15T03:11:28.615Z,5,GR86-012-8,-4.2,0.115,-0.11,99.88,4.0,,0.0,0.0,
2025-08-15T03:11:28.658Z,5,GR86-012-8,-4.2,0.103,-0.078,99.9,4.0,6688.0,0.0,0.0,
2025-08-15T03:11:28.701Z,5,GR86-012-8,-4.2,0.113,-0.091,99.89,4.0,,0.0,0.0,170.39
2025-08-15T03:11:28.745Z,5,GR86-012-8,-4.2,0.089,-0.103,99.9,4.0,,0.0,0.0,
2025-08-15T03:11:28.788Z,5,GR86-012-8,-4.1000000000000005,0.101,-0.091,99.86,4.0,,0.0,0.0,
2025-08-15T03:11:28.831Z,5,GR86-012-8,-3.9,0.103,-0.08,99.87,4.0,,0.0,0.0,
2025-08-15T03:11:28.875Z,5,GR86-012-8,-3.9,0.104,-0.071,99.87,4.0,6713.0,0.0,0.0,
2025-08-15T03:11:28.918Z,5,GR86-012-8,-3.9,0.101,-0.084,99.87,4.0,,0.0,0.0,171.12
2025-08-15T03:11:28.961Z,5,GR86-012-8,-3.9,0.101,-0.097,99.87,4.0,,0.0,0.0,
2025-08-15T03:11:29.005Z,5,GR86-012-8,-3.9,0.088,-0.093,99.88,4.0,,0.0,0.0,
2025-08-15T03:11:29.048Z,5,GR86-012-8,-3.9,0.088,-0.09,99.9,4.0,,0.0,0.0,
2025-08-15T03:11:29.091Z,5,GR86-012-8,-3.9,0.091,-0.09,99.87,4.0,6780.0,0.0,0.0,
2025-08-15T03:11:29.135Z,5,GR86-012-8,-3.9,0.098,-0.087,99.88,4.0,,0.0,0.0,172.02
2025-08-15T03:11:29.178Z,5,GR86-012-8,-3.9,0.094,-0.092,99.9,4.0,,0.0,0.0,
2025-08-15T03:11:29.221Z,5,GR86-012-8,-3.9,0.094,-0.072,99.91,4.0,,0.0,0.0,
2025-08-15T03:11:29.265Z,5,GR86-012-8,-3.9,0.079,-0.086,99.91,4.0,,0.0,0.0,
2025-08-15T03:11:29.308Z,5,GR86-012-8,-3.9,0.073,-0.095,99.91,4.0,6828.0,0.0,0.0,
2025-08-15T03:11:29.351Z,5,GR86-012-8,-3.9,0.075,-0.102,99.91,4.0,,0.0,0.0,172.8
2025-08-15T03:11:29.396Z,5,GR86-012-8,-3.9,0.065,-0.098,99.88,4.0,,0.0,0.0,
2025-08-15T03:11:29.439Z,5,GR86-012-8,-3.9,0.073,-0.1,99.88,4.0,,0.0,0.0,
2025-08-15T03:11:29.482Z,5,GR86-012-8,-3.9,0.088,-0.112,99.87,4.0,,0.0,0.0,
2025-08-15T03:11:29.525Z,5,GR86-012-8,-3.9,0.098,-0.092,99.87,4.0,6843.0,0.0,0.0,
2025-08-15T03:11:29.568Z,5,GR86-012-8,-3.9,0.084,-0.068,99.88,4.0,,0.0,0.0,173.76
2025-08-15T03:11:29.611Z,5,GR86-012-8,-3.9,0.092,-0.08,99.87,4.0,,0.0,0.0,
2025-08-15T03:11:29.656Z,5,GR86-012-8,-3.9,0.091,-0.071,99.9,4.0,,0.0,0.0,
2025-08-15T03:11:29.698Z,5,GR86-012-8,-3.9,0.091,-0.08,99.91,4.0,,0.0,0.0,
2025-08-15T03:11:29.741Z,5,GR86-012-8,-3.8,0.076,-0.073,99.89,4.0,6875.0,0.0,0.0,
2025-08-15T03:11:29.786Z,5,GR86-012-8,-3.8,0.109,-0.09,99.91,4.0,,0.0,0.0,174.5
2025-08-15T03:11:29.829Z,5,GR86-012-8,-3.8,0.106,-0.086,99.88,4.0,,0.0,0.0,
2025-08-15T03:11:29.872Z,5,GR86-012-8,-3.8,0.109,-0.087,99.87,4.0,,0.0,0.0,
2025-08-15T03:11:29.915Z,5,GR86-012-8,-3.7,0.1,-0.066,99.9,4.0,,0.0,0.0,
2025-08-15T03:11:29.958Z,5,GR86-012-8,-3.7,0.101,-0.064,99.9,4.0,6907.0,0.0,0.0,
2025-08-15T03:11:30.001Z,5,GR86-012-8,-3.7,0.095,-0.063,99.87,4.0,,0.0,0.0,175.37
2025-08-15T03:11:30.046Z,5,GR86-012-8,-3.7,0.081,-0.078,99.88,4.0,,0.0,0.0,
2025-08-15T03:11:30.088Z,5,GR86-012-8,-3.7,0.09,-0.072,99.88,4.0,,0.0,0.0,
2025-08-15T03:11:30.131Z,5,GR86-012-8,-3.7,0.097,-0.078,99.87,4.0,,0.0,0.0,
2025-08-15T03:11:30.218Z,5,GR86-012-8,-3.7,0.093,-0.09,99.89,4.0,6940.0,0.0,0.0,176.16
2025-08-15T03:11:30.261Z,5,GR86-012-8,-3.7,0.096,-0.089,99.88,4.0,,0.0,0.0,
2025-08-15T03:11:30.306Z,5,GR86-012-8,-3.1,0.078,-0.073,99.88,4.0,,0.0,0.0,
2025-08-15T03:11:30.349Z,5,GR86-012-8,-2.7,0.058,-0.071,99.89,4.0,,0.0,0.0,
2025-08-15T03:11:30.392Z,5,GR86-012-8,-2.3000000000000003,0.061,-0.079,99.88,4.0,6979.0,0.0,0.0,
2025-08-15T03:11:30.435Z,5,GR86-012-8,-1.9,0.064,-0.069,99.87,4.0,,0.0,0.0,176.83
2025-08-15T03:11:30.478Z,5,GR86-012-8,-1.7000000000000002,0.065,-0.065,99.9,4.0,,0.0,0.0,
2025-08-15T03:11:30.521Z,5,GR86-012-8,-1.5,0.058,-0.061,99.89,4.0,,0.0,0.0,
2025-08-15T03:11:30.565Z,5,GR86-012-8,-1.5,0.092,-0.038,99.9,4.0,,0.0,0.0,
2025-08-15T03:11:30.608Z,5,GR86-012-8,-1.5,0.1,-0.005,99.87,4.0,7014.0,0.0,0.0,
2025-08-15T03:11:30.651Z,5,GR86-012-8,-1.5,0.095,0.012,99.89,4.0,,0.0,0.0,177.78
2025-08-15T03:11:30.697Z,5,GR86-012-8,-1.5,0.092,0.012,99.88,4.0,,0.0,0.0,
2025-08-15T03:11:30.739Z,5,GR86-012-8,-1.5,0.09,0.012,99.88,4.0,,0.0,0.0,
2025-08-15T03:11:30.782Z,5,GR86-012-8,-1.5,0.082,0.001,99.88,4.0,,0.0,0.0,
2025-08-15T03:11:30.825Z,5,GR86-012-8,-1.5,0.077,0.006,99.89,4.0,7029.0,0.0,0.0,
2025-08-15T03:11:30.868Z,5,GR86-012-8,-1.3,0.082,0.02,99.91,4.0,,0.0,0.0,178.59
2025-08-15T03:11:30.911Z,5,GR86-012-8,-0.9,0.081,0.021,99.87,4.0,,0.0,0.0,
2025-08-15T03:11:30.955Z,5,GR86-012-8,-0.7000000000000001,-0.074,0.013,99.89,5.0,,0.0,0.0,
2025-08-15T03:11:30.997Z,5,GR86-012-8,-0.7000000000000001,-0.093,0.062,99.88,5.0,,0.0,0.0,
2025-08-15T03:11:31.040Z,5,GR86-012-8,-0.3,0.396,-0.024,99.87,5.0,7072.0,0.0,0.0,
2025-08-15T03:11:31.086Z,5,GR86-012-8,-1.0,-0.008,0.062,99.88,5.0,,0.0,0.0,179.86
2025-08-15T03:11:31.129Z,5,GR86-012-8,-1.6,-0.013,0.001,99.88,5.0,,0.0,0.0,
2025-08-15T03:11:31.172Z,5,GR86-012-8,-1.7000000000000002,0.095,-0.023,99.88,5.0,,0.0,0.0,
2025-08-15T03:11:31.215Z,5,GR86-012-8,-1.7000000000000002,0.083,0.023,99.88,5.0,,0.0,0.0,
2025-08-15T03:11:31.258Z,5,GR86-012-8,-1.7000000000000002,0.039,-0.004,99.87,5.0,6071.0,0.0,0.0,
2025-08-15T03:11:31.301Z,5,GR86-012-8,-1.8,0.055,-0.008,99.87,5.0,,0.0,0.0,180.47
2025-08-15T03:11:31.345Z,5,GR86-012-8,-1.9,0.077,0.002,99.89,5.0,,0.0,0.0,
2025-08-15T03:11:31.388Z,5,GR86-012-8,-1.9,0.068,-0.003,99.87,5.0,,0.0,0.0,
2025-08-15T03:11:31.431Z,5,GR86-012-8,-1.9,0.066,0.002,99.88,5.0,,0.0,0.0,
2025-08-15T03:11:31.475Z,5,GR86-012-8,-1.9,0.074,-0.008,99.87,5.0,6153.0,0.0,0.0,
2025-08-15T03:11:31.518Z,5,GR86-012-8,-1.9,0.077,-0.007,99.9,5.0,,0.0,0.0,181.34
2025-08-15T03:11:31.561Z,5,GR86-012-8,-1.9,0.079,0.003,99.88,5.0,,0.0,0.0,
2025-08-15T03:11:31.608Z,5,GR86-012-8,-1.9,0.06,-0.03,99.87,5.0,,0.0,0.0,
2025-08-15T03:11:31.651Z,5,GR86-012-8,-1.9,0.057,-0.033,99.88,5.0,,0.0,0.0,
2025-08-15T03:11:31.697Z,5,GR86-012-8,-2.0,0.058,-0.036,99.87,5.0,6206.0,0.0,0.0,
2025-08-15T03:11:31.739Z,5,GR86-012-8,-2.0,0.053,-0.041,99.87,5.0,,0.0,0.0,181.88
2025-08-15T03:11:31.782Z,5,GR86-012-8,-2.0,0.054,-0.051,99.9,5.0,,0.0,0.0,
2025-08-15T03:11:31.825Z,5,GR86-012-8,-2.0,0.083,-0.046,99.88,5.0,,0.0,0.0,
2025-08-15T03:11:31.868Z,5,GR86-012-8,-2.0,0.074,-0.047,99.88,5.0,,0.0,0.0,
2025-08-15T03:11:31.911Z,5,GR86-012-8,-2.0,0.071,-0.046,99.88,5.0,6217.0,0.0,0.0,
2025-08-15T03:11:31.956Z,5,GR86-012-8,-2.0,0.087,-0.049,99.87,5.0,,0.0,0.0,182.49
2025-08-15T03:11:31.999Z,5,GR86-012-8,-2.0,0.078,-0.039,99.86,5.0,,0.0,0.0,
2025-08-15T03:11:32.042Z,5,GR86-012-8,-2.0,0.068,-0.039,99.88,5.0,,0.0,0.0,
2025-08-15T03:11:32.086Z,5,GR86-012-8,-2.0,0.071,-0.046,99.87,5.0,,0.0,0.0,
2025-08-15T03:11:32.129Z,5,GR86-012-8,-2.0,0.07,-0.047,99.88,5.0,6252.0,0.0,0.0,
2025-08-15T03:11:32.172Z,5,GR86-012-8,-2.0,0.067,-0.034,99.88,5.0,,0.0,0.0,183.12
2025-08-15T03:11:32.215Z,5,GR86-012-8,-2.0,0.065,-0.037,99.87,5.0,,0.0,0.0,
2025-08-15T03:11:32.258Z,5,GR86-012-8,-2.0,0.061,-0.044,99.88,5.0,,0.0,0.0,
2025-08-15T03:11:32.301Z,5,GR86-012-8,-2.0,0.058,-0.038,99.89,5.0,,0.0,0.0,
2025-08-15T03:11:32.345Z,5,GR86-012-8,-2.0,0.076,-0.038,99.88,5.0,6270.0,0.0,0.0,
2025-08-15T03:11:32.388Z,5,GR86-012-8,-2.0,0.066,-0.04,99.87,5.0,,0.0,0.0,183.81
2025-08-15T03:11:32.431Z,5,GR86-012-8,-2.0,0.068,-0.038,99.87,5.0,,0.0,0.0,
2025-08-15T03:11:32.475Z,5,GR86-012-8,-2.0,0.073,-0.03,99.87,5.0,,0.0,0.0,
2025-08-15T03:11:32.517Z,5,GR86-012-8,-2.0,0.075,-0.033,99.88,5.0,,0.0,0.0,
2025-08-15T03:11:32.560Z,5,GR86-012-8,-2.0,0.069,-0.03,99.88,5.0,6297.0,0.0,0.0,
2025-08-15T03:11:32.605Z,5,GR86-012-8,-2.0,0.073,-0.023,99.9,5.0,,0.0,0.0,184.42
2025-08-15T03:11:32.648Z,5,GR86-012-8,-2.0,0.069,-0.023,99.87,5.0,,0.0,0.0,
2025-08-15T03:11:32.691Z,5,GR86-012-8,-2.0,0.07,-0.017,99.9,5.0,,0.0,0.0,
2025-08-15T03:11:32.735Z,5,GR86-012-8,-2.0,0.073,-0.033,99.87,5.0,,0.0,0.0,
2025-08-15T03:11:32.778Z,5,GR86-012-8,-2.0,0.078,-0.033,99.87,5.0,6324.0,0.0,0.0,
2025-08-15T03:11:32.821Z,5,GR86-012-8,-2.0,0.076,-0.047,99.87,5.0,,0.0,0.0,185.02
2025-08-15T03:11:32.866Z,5,GR86-012-8,-2.0,0.058,-0.061,99.88,5.0,,0.0,0.0,
2025-08-15T03:11:32.908Z,5,GR86-012-8,-2.0,0.054,-0.068,99.88,5.0,,0.0,0.0,
2025-08-15T03:11:32.951Z,5,GR86-012-8,-2.0,0.053,-0.039,99.88,5.0,,0.0,0.0,
2025-08-15T03:11:32.996Z,5,GR86-012-8,-2.0,0.051,-0.016,99.87,5.0,6333.0,0.0,0.0,
2025-08-15T03:11:33.039Z,5,GR86-012-8,-2.0,0.052,-0.033,99.89,5.0,,0.0,0.0,185.81
2025-08-15T03:11:33.082Z,5,GR86-012-8,-2.0,0.046,-0.024,99.88,5.0,,0.0,0.0,
2025-08-15T03:11:33.125Z,5,GR86-012-8,-2.0,0.074,-0.036,99.88,5.0,,0.0,0.0,
2025-08-15T03:11:33.168Z,5,GR86-012-8,-2.0,0.074,-0.04,99.87,5.0,,0.0,0.0,
2025-08-15T03:11:33.211Z,5,GR86-012-8,-2.0,0.072,-0.044,99.88,5.0,6360.0,0.0,0.0,
2025-08-15T03:11:33.255Z,5,GR86-012-8,-2.0,0.073,-0.043,99.88,5.0,,0.0,0.0,186.45
2025-08-15T03:11:33.298Z,5,GR86-012-8,-2.0,0.076,-0.042,99.86,5.0,,0.0,0.0,
2025-08-15T03:11:33.341Z,5,GR86-012-8,-2.0,0.074,-0.053,99.87,5.0,,0.0,0.0,
2025-08-15T03:11:33.386Z,5,GR86-012-8,-2.0,0.061,-0.042,99.87,5.0,,0.0,0.0,
2025-08-15T03:11:33.429Z,5,GR86-012-8,-2.0,0.052,-0.041,99.87,5.0,6377.0,0.0,0.0,
2025-08-15T03:11:33.472Z,5,GR86-012-8,-2.0,0.068,-0.02,99.88,5.0,,0.0,0.0,187.05
2025-08-15T03:11:33.515Z,5,GR86-012-8,-2.0,0.07,-0.024,99.88,5.0,,0.0,0.0,
2025-08-15T03:11:33.558Z,5,GR86-012-8,-2.0,0.061,-0.035,99.88,5.0,,0.0,0.0,
2025-08-15T03:11:33.601Z,5,GR86-012-8,-2.0,0.071,-0.032,99.89,5.0,,0.0,0.0,
2025-08-15T03:11:33.646Z,5,GR86-012-8,-2.0,0.059,-0.042,99.89,5.0,6403.0,0.0,0.0,
2025-08-15T03:11:33.688Z,5,GR86-012-8,-2.0,0.047,-0.037,99.88,5.0,,0.0,0.0,188.21
2025-08-15T03:11:33.731Z,5,GR86-012-8,-1.9,0.041,-0.038,99.87,5.0,,0.0,0.0,
2025-08-15T03:11:33.775Z,5,GR86-012-8,-1.8,0.052,-0.013,99.88,5.0,,0.0,0.0,
2025-08-15T03:11:33.817Z,5,GR86-012-8,-1.7000000000000002,0.051,-0.005,99.87,5.0,,0.0,0.0,
2025-08-15T03:11:33.860Z,5,GR86-012-8,-1.6,0.039,-0.013,99.89,5.0,6415.0,0.0,0.0,
2025-08-15T03:11:33.906Z,5,GR86-012-8,-1.1,0.082,-0.027,99.89,5.0,,0.0,0.0,188.81
2025-08-15T03:11:33.949Z,5,GR86-012-8,-0.9,0.076,-0.034,99.89,5.0,,0.0,0.0,
2025-08-15T03:11:33.992Z,5,GR86-012-8,-0.8,0.067,-0.019,99.87,5.0,,0.0,0.0,
2025-08-15T03:11:34.035Z,5,GR86-012-8,-0.8,0.059,-0.016,99.87,5.0,,0.0,0.0,
2025-08-15T03:11:34.078Z,5,GR86-012-8,-0.8,0.054,-0.034,99.88,5.0,6437.0,0.0,0.0,
2025-08-15T03:11:34.121Z,5,GR86-012-8,-0.7000000000000001,0.058,-0.029,99.88,5.0,,0.0,0.0,189.42
2025-08-15T03:11:34.165Z,5,GR86-012-8,-0.6000000000000001,0.081,-0.019,99.88,5.0,,0.0,0.0,
2025-08-15T03:11:34.208Z,5,GR86-012-8,-0.3,0.081,0.0,99.88,5.0,,0.0,0.0,
2025-08-15T03:11:34.251Z,5,GR86-012-8,0.5,0.079,0.004,99.88,5.0,,0.0,0.0,
2025-08-15T03:11:34.296Z,5,GR86-012-8,1.6,0.073,0.006,99.88,5.0,6485.0,0.0,0.0,
2025-08-15T03:11:34.339Z,5,GR86-012-8,2.5,0.064,0.028,99.87,5.0,,0.0,0.0,189.91
2025-08-15T03:11:34.382Z,5,GR86-012-8,2.7,0.073,0.028,99.88,5.0,,0.0,0.0,
2025-08-15T03:11:34.425Z,5,GR86-012-8,2.7,0.057,0.055,99.9,5.0,,0.0,0.0,
2025-08-15T03:11:34.468Z,5,GR86-012-8,2.7,0.068,0.062,99.89,5.0,,0.0,0.0,
2025-08-15T03:11:34.511Z,5,GR86-012-8,2.7,0.072,0.066,99.87,5.0,6496.0,0.0,0.0,
2025-08-15T03:11:34.555Z,5,GR86-012-8,2.7,0.067,0.073,99.88,5.0,,0.0,0.0,190.57
2025-08-15T03:11:34.598Z,5,GR86-012-8,2.7,0.069,0.095,99.91,5.0,,0.0,0.0,
2025-08-15T03:11:34.641Z,5,GR86-012-8,2.7,0.072,0.123,99.87,5.0,,0.0,0.0,
2025-08-15T03:11:34.686Z,5,GR86-012-8,2.7,0.043,0.133,99.88,5.0,,0.0,0.0,
2025-08-15T03:11:34.729Z,5,GR86-012-8,2.7,0.039,0.136,99.87,5.0,6527.0,0.0,0.0,
2025-08-15T03:11:34.772Z,5,GR86-012-8,2.7,0.044,0.144,99.88,5.0,,0.0,0.0,191.11
2025-08-15T03:11:34.815Z,5,GR86-012-8,2.7,0.049,0.144,99.88,5.0,,0.0,0.0,
2025-08-15T03:11:34.858Z,5,GR86-012-8,2.7,0.062,0.144,99.87,5.0,,0.0,0.0,
2025-08-15T03:11:34.901Z,5,GR86-012-8,2.7,0.063,0.141,99.88,5.0,,0.0,0.0,
2025-08-15T03:11:34.945Z,5,GR86-012-8,2.7,0.045,0.152,99.86,5.0,6544.0,0.0,0.0,
2025-08-15T03:11:34.988Z,5,GR86-012-8,2.7,0.047,0.159,99.88,5.0,,0.0,0.0,191.71
2025-08-15T03:11:35.031Z,5,GR86-012-8,2.7,0.045,0.148,99.88,5.0,,0.0,0.0,
2025-08-15T03:11:35.075Z,5,GR86-012-8,2.9000000000000004,0.039,0.149,99.87,5.0,,0.0,0.0,
2025-08-15T03:11:35.118Z,5,GR86-012-8,3.1,0.038,0.148,99.88,5.0,,0.0,0.0,
2025-08-15T03:11:35.161Z,5,GR86-012-8,3.2,0.045,0.135,99.86,5.0,6562.0,0.0,0.0,
2025-08-15T03:11:35.205Z,5,GR86-012-8,3.2,0.064,0.137,99.88,5.0,,0.0,0.0,192.37
2025-08-15T03:11:35.248Z,5,GR86-012-8,3.3000000000000003,0.051,0.166,99.89,5.0,,0.0,0.0,
2025-08-15T03:11:35.291Z,5,GR86-012-8,3.6,0.046,0.159,99.89,5.0,,0.0,0.0,
2025-08-15T03:11:35.336Z,5,GR86-012-8,3.9,0.044,0.147,99.88,5.0,,0.0,0.0,
2025-08-15T03:11:35.378Z,5,GR86-012-8,3.9,0.054,0.125,99.88,5.0,6576.0,0.0,0.0,
2025-08-15T03:11:35.421Z,5,GR86-012-8,3.9,0.046,0.137,99.88,5.0,,0.0,0.0,192.98
2025-08-15T03:11:35.465Z,5,GR86-012-8,4.3,0.068,0.159,99.88,5.0,,0.0,0.0,
2025-08-15T03:11:35.508Z,5,GR86-012-8,5.0,0.063,0.147,99.89,5.0,,0.0,0.0,
2025-08-15T03:11:35.551Z,5,GR86-012-8,5.6000000000000005,0.059,0.159,99.88,5.0,,0.0,0.0,
2025-08-15T03:11:35.596Z,5,GR86-012-8,5.9,0.052,0.188,99.88,5.0,6595.0,0.0,0.0,
2025-08-15T03:11:35.639Z,5,GR86-012-8,6.1000000000000005,0.046,0.208,99.88,5.0,,0.0,0.0,193.59
2025-08-15T03:11:35.682Z,5,GR86-012-8,6.4,0.044,0.218,99.87,5.0,,0.0,0.0,
2025-08-15T03:11:35.725Z,5,GR86-012-8,7.4,0.059,0.212,99.88,5.0,,0.0,0.0,
2025-08-15T03:11:35.768Z,5,GR86-012-8,7.800000000000001,0.056,0.249,99.87,5.0,,0.0,0.0,
2025-08-15T03:11:35.811Z,5,GR86-012-8,7.800000000000001,0.067,0.273,99.87,5.0,6619.0,0.0,0.0,
2025-08-15T03:11:35.856Z,5,GR86-012-8,7.800000000000001,0.058,0.281,99.87,5.0,,0.0,0.0,194.12
2025-08-15T03:11:35.899Z,5,GR86-012-8,7.800000000000001,0.048,0.297,99.89,5.0,,0.0,0.0,
2025-08-15T03:11:35.942Z,5,GR86-012-8,7.800000000000001,0.045,0.311,99.88,5.0,,0.0,0.0,
2025-08-15T03:11:35.986Z,5,GR86-012-8,7.800000000000001,0.065,0.328,99.88,5.0,,0.0,0.0,
2025-08-15T03:11:36.028Z,5,GR86-012-8,7.800000000000001,0.066,0.331,99.88,5.0,6632.0,0.0,0.0,
2025-08-15T03:11:36.071Z,5,GR86-012-8,7.9,0.068,0.342,99.88,5.0,,0.0,0.0,194.71
2025-08-15T03:11:36.115Z,5,GR86-012-8,8.200000000000001,0.067,0.355,99.88,5.0,,0.0,0.0,
2025-08-15T03:11:36.157Z,5,GR86-012-8,8.6,0.07,0.338,99.87,5.0,,0.0,0.0,
2025-08-15T03:11:36.200Z,5,GR86-012-8,8.9,0.061,0.336,99.88,5.0,,0.0,0.0,
2025-08-15T03:11:36.245Z,5,GR86-012-8,9.0,0.062,0.352,99.88,5.0,6660.0,0.0,0.0,
2025-08-15T03:11:36.288Z,5,GR86-012-8,9.0,0.072,0.353,99.87,5.0,,0.0,0.0,195.73
2025-08-15T03:11:36.331Z,5,GR86-012-8,9.1,0.063,0.359,99.87,5.0,,0.0,0.0,
2025-08-15T03:11:36.375Z,5,GR86-012-8,9.1,0.069,0.358,99.88,5.0,,0.0,0.0,
2025-08-15T03:11:36.417Z,5,GR86-012-8,9.1,0.06,0.375,99.87,5.0,,0.0,0.0,
2025-08-15T03:11:36.460Z,5,GR86-012-8,9.1,0.055,0.409,99.88,5.0,6685.0,0.0,0.0,
2025-08-15T03:11:36.505Z,5,GR86-012-8,9.1,0.067,0.449,99.86,5.0,,0.0,0.0,196.06
2025-08-15T03:11:36.548Z,5,GR86-012-8,9.1,0.066,0.43,99.87,5.0,,0.0,0.0,
2025-08-15T03:11:36.591Z,5,GR86-012-8,8.8,0.058,0.454,94.85,5.0,,0.0,0.0,
2025-08-15T03:11:36.635Z,5,GR86-012-8,8.0,0.05,0.457,91.13,5.0,,0.0,0.0,
2025-08-15T03:11:36.678Z,5,GR86-012-8,7.2,0.052,0.448,88.17,5.0,6708.0,0.0,0.0,
2025-08-15T03:11:36.721Z,5,GR86-012-8,6.9,0.059,0.437,78.49,5.0,,0.0,0.0,196.88
2025-08-15T03:11:36.765Z,5,GR86-012-8,6.7,0.057,0.419,70.54,5.0,,0.0,0.0,
2025-08-15T03:11:36.808Z,5,GR86-012-8,6.7,0.064,0.387,70.0,5.0,,0.0,0.0,
2025-08-15T03:11:36.851Z,5,GR86-012-8,6.7,0.061,0.372,69.43,5.0,,0.0,0.0,
2025-08-15T03:11:36.896Z,5,GR86-012-8,6.6000000000000005,0.044,0.362,69.38,5.0,6724.0,0.0,0.0,
2025-08-15T03:11:36.939Z,5,GR86-012-8,6.2,0.049,0.349,69.57000000000001,5.0,,0.0,0.0,197.4
2025-08-15T03:11:36.982Z,5,GR86-012-8,5.800000000000001,0.051,0.351,69.67,5.0,,0.0,0.0,
2025-08-15T03:11:37.025Z,5,GR86-012-8,3.9,0.053,0.332,69.79,5.0,,0.0,0.0,
2025-08-15T03:11:37.068Z,5,GR86-012-8,2.3000000000000003,0.055,0.292,66.74,5.0,,0.0,0.0,
2025-08-15T03:11:37.111Z,5,GR86-012-8,0.8,0.059,0.262,57.75,5.0,6749.0,0.0,0.0,
2025-08-15T03:11:37.155Z,5,GR86-012-8,0.1,0.059,0.222,49.85,5.0,,0.0,0.0,197.93
2025-08-15T03:11:37.198Z,5,GR86-012-8,0.0,0.045,0.206,37.19,5.0,,0.0,0.0,
2025-08-15T03:11:37.241Z,5,GR86-012-8,0.1,0.034,0.183,28.03,5.0,,0.0,0.0,
2025-08-15T03:11:37.286Z,5,GR86-012-8,0.9,0.029,0.154,3.73,5.0,,0.0,0.0,
2025-08-15T03:11:37.329Z,5,GR86-012-8,1.6,-0.071,0.136,3.53,5.0,6742.0,0.0,0.0,
2025-08-15T03:11:37.372Z,5,GR86-012-8,2.0,-0.14,0.126,3.36,5.0,,0.0,0.0,198.27
2025-08-15T03:11:37.415Z,5,GR86-012-8,2.1,-0.342,0.057,3.22,5.0,,0.0,0.0,
2025-08-15T03:11:37.458Z,5,GR86-012-8,2.1,-0.22,0.071,3.1,5.0,,10.15,10.085,
2025-08-15T03:11:37.501Z,5,GR86-012-8,2.1,-0.317,0.056,2.96,5.0,,19.87,19.55,
2025-08-15T03:11:37.546Z,5,GR86-012-8,1.3,-0.712,0.033,2.8000000000000003,5.0,6633.0,33.28,32.595,
2025-08-15T03:11:37.588Z,5,GR86-012-8,1.3,-0.804,0.02,2.67,5.0,,40.925,40.06,198.57
2025-08-15T03:11:37.631Z,5,GR86-012-8,2.1,-0.921,0.007,2.61,5.0,,47.06,46.055,
2025-08-15T03:11:37.675Z,5,GR86-012-8,3.4000000000000004,-1.03,0.018,2.5500000000000003,5.0,,50.97,50.07,
2025-08-15T03:11:37.718Z,5,GR86-012-8,5.300000000000001,-1.124,0.028,2.51,5.0,,53.24,52.465,
2025-08-15T03:11:37.761Z,5,GR86-012-8,7.300000000000001,-1.139,0.044,2.51,5.0,6243.0,54.77,53.99,
2025-08-15T03:11:37.806Z,5,GR86-012-8,8.3,-1.044,0.064,2.49,5.0,,55.075,54.74,193.28
2025-08-15T03:11:37.849Z,5,GR86-012-8,8.3,-0.937,0.044,2.5,5.0,,54.645,54.74,
2025-08-15T03:11:37.892Z,5,GR86-012-8,8.3,-0.864,0.026,2.49,5.0,,55.24,55.715,
2025-08-15T03:11:37.935Z,5,GR86-012-8,7.2,-1.006,0.035,2.5,5.0,,55.975,57.120000000000005,
2025-08-15T03:11:37.978Z,5,GR86-012-8,5.6000000000000005,-0.705,0.025,2.48,5.0,5926.0,47.84,49.67,
2025-08-15T03:11:38.021Z,5,GR86-012-8,5.5,-1.064,0.083,14.94,5.0,,44.085,44.74,186.05
2025-08-15T03:11:38.065Z,5,GR86-012-8,5.5,-0.953,0.099,81.97,5.0,,43.17,43.585,
2025-08-15T03:11:38.108Z,5,GR86-012-8,5.2,-0.969,0.105,99.77,5.0,,42.515,42.455,
2025-08-15T03:11:38.151Z,5,GR86-012-8,5.2,-0.912,0.068,69.97,4.0,,43.735,43.49,
2025-08-15T03:11:38.196Z,5,GR86-012-8,5.2,-0.948,0.075,5.5200000000000005,4.0,5791.0,43.795,43.89,
2025-08-15T03:11:38.239Z,5,GR86-012-8,5.2,-1.022,0.186,3.76,4.0,,44.345,44.53,176.79
2025-08-15T03:11:38.282Z,5,GR86-012-8,5.6000000000000005,-0.962,0.105,3.3200000000000003,4.0,,45.095,46.3,
2025-08-15T03:11:38.325Z,5,GR86-012-8,6.6000000000000005,-1.003,0.175,3.09,4.0,,44.405,43.95,
2025-08-15T03:11:38.368Z,5,GR86-012-8,6.4,-0.933,0.137,2.99,4.0,,43.43,43.52,
2025-08-15T03:11:38.411Z,5,GR86-012-8,6.4,-0.887,0.121,2.86,4.0,6417.0,42.455,42.68,
2025-08-15T03:11:38.498Z,5,GR86-012-8,6.4,-0.808,0.134,2.71,4.0,,29.59,31.175,173.55
2025-08-15T03:11:38.541Z,5,GR86-012-8,6.4,-0.72,0.191,2.64,4.0,,24.34,25.515,
2025-08-15T03:11:38.586Z,5,GR86-012-8,6.2,-0.655,0.195,2.5500000000000003,4.0,,21.685,22.4,
2025-08-15T03:11:38.628Z,5,GR86-012-8,5.800000000000001,-0.628,0.216,2.53,4.0,6160.0,21.18,21.96,
2025-08-15T03:11:38.671Z,5,GR86-012-8,5.0,-0.611,0.233,11.01,4.0,,19.96,20.935,166.5
2025-08-15T03:11:38.715Z,5,GR86-012-8,4.6000000000000005,-0.5700000000000001,0.252,54.85,4.0,,18.115,19.12,
2025-08-15T03:11:38.757Z,5,GR86-012-8,4.0,-0.542,0.271,97.12,4.0,,16.71,17.61,
2025-08-15T03:11:38.800Z,5,GR86-012-8,3.8,-0.48,0.272,99.82,3.0,,14.3,15.215,
2025-08-15T03:11:38.845Z,5,GR86-012-8,3.7,-0.507,0.231,26.81,3.0,6173.0,9.4,10.27,
2025-08-15T03:11:38.888Z,5,GR86-012-8,2.7,-0.5640000000000001,0.27,3.22,3.0,,9.46,10.025,160.51
2025-08-15T03:11:38.931Z,5,GR86-012-8,2.0,-0.294,0.224,2.8000000000000003,3.0,,9.995,10.405,
2025-08-15T03:11:38.975Z,5,GR86-012-8,1.8,-0.387,0.181,2.6,3.0,,11.155,11.34,
2025-08-15T03:11:39.018Z,5,GR86-012-8,1.7000000000000002,-0.485,0.266,2.52,3.0,,14.39,14.24,
2025-08-15T03:11:39.061Z,5,GR86-012-8,1.7000000000000002,-0.548,0.181,2.51,3.0,6835.0,16.19,16.145,
2025-08-15T03:11:39.105Z,5,GR86-012-8,1.7000000000000002,-0.478,0.212,2.51,3.0,,17.93,17.87,158.32
2025-08-15T03:11:39.148Z,5,GR86-012-8,1.7000000000000002,-0.52,0.159,2.5,3.0,,19.15,19.045,
2025-08-15T03:11:39.191Z,5,GR86-012-8,1.7000000000000002,-0.5760000000000001,0.126,2.49,3.0,,20.845,20.66,
2025-08-15T03:11:39.235Z,5,GR86-012-8,1.5,-0.614,0.136,2.5,3.0,,23.655,23.395,
2025-08-15T03:11:39.278Z,5,GR86-012-8,1.4,-0.665,0.129,2.5,3.0,7187.0,27.345,26.995,
2025-08-15T03:11:39.321Z,5,GR86-012-8,1.3,-0.678,0.103,2.51,3.0,,31.51,31.025,154.42000000000002
2025-08-15T03:11:39.365Z,5,GR86-012-8,1.3,-0.778,0.073,2.5,3.0,,36.06,35.405,
2025-08-15T03:11:39.408Z,5,GR86-012-8,1.3,-0.8210000000000001,0.088,2.51,3.0,,38.015,37.45,
2025-08-15T03:11:39.451Z,5,GR86-012-8,1.2000000000000002,-0.864,0.083,2.49,3.0,,39.125,38.595,
2025-08-15T03:11:39.497Z,5,GR86-012-8,1.2000000000000002,-0.909,0.055,32.72,3.0,6613.0,39.22,38.805,
2025-08-15T03:11:39.539Z,5,GR86-012-8,1.4,-0.889,0.032,77.92,3.0,,38.805,38.9,148.95000000000002
2025-08-15T03:11:39.582Z,5,GR86-012-8,1.7000000000000002,-0.878,0.037,99.89,3.0,,39.095,39.125,
2025-08-15T03:11:39.625Z,5,GR86-012-8,3.7,-0.875,-0.028,77.94,2.0,,39.25,39.37,
2025-08-15T03:11:39.668Z,5,GR86-012-8,4.9,-0.961,0.056,7.97,2.0,,40.395,40.895,
2025-08-15T03:11:39.711Z,5,GR86-012-8,6.0,-0.945,0.149,2.93,2.0,7232.0,44.47,45.55,
2025-08-15T03:11:39.756Z,5,GR86-012-8,8.1,-1.003,-0.055,2.67,2.0,,45.625,45.66,144.11
2025-08-15T03:11:39.799Z,5,GR86-012-8,9.8,-1.013,0.131,2.57,2.0,,45.625,45.81,
2025-08-15T03:11:39.842Z,5,GR86-012-8,9.8,-0.913,0.044,2.5500000000000003,2.0,,46.27,46.68,
2025-08-15T03:11:39.886Z,5,GR86-012-8,9.5,-0.929,0.087,2.52,2.0,,45.69,45.625,
2025-08-15T03:11:39.929Z,5,GR86-012-8,9.5,-0.93,0.086,2.51,2.0,7396.0,45.37,45.065,
2025-08-15T03:11:39.972Z,5,GR86-012-8,9.5,-0.929,0.023,2.53,2.0,,45.0,44.97,136.75
2025-08-15T03:11:40.015Z,5,GR86-012-8,9.1,-0.99,0.063,2.51,2.0,,42.985,43.95,
2025-08-15T03:11:40.058Z,5,GR86-012-8,8.8,-0.789,0.149,2.51,2.0,,36.425,37.98,
2025-08-15T03:11:40.101Z,5,GR86-012-8,9.3,-0.844,0.062,2.51,2.0,,29.805,31.205,
2025-08-15T03:11:40.145Z,5,GR86-012-8,10.6,-0.6930000000000001,0.179,2.51,2.0,7087.0,22.645,23.805,
2025-08-15T03:11:40.188Z,5,GR86-012-8,10.7,-0.676,0.152,2.51,2.0,,21.18,22.16,130.52
2025-08-15T03:11:40.231Z,5,GR86-012-8,10.6,-0.63,0.244,2.5,2.0,,20.725,21.56,
2025-08-15T03:11:40.275Z,5,GR86-012-8,10.0,-0.598,0.237,2.51,2.0,,19.52,20.175,
2025-08-15T03:11:40.318Z,5,GR86-012-8,9.0,-0.596,0.206,2.51,2.0,,18.235,19.275,
2025-08-15T03:11:40.361Z,5,GR86-012-8,8.1,-0.559,0.258,2.5,2.0,7089.0,16.555,17.55,
2025-08-15T03:11:40.405Z,5,GR86-012-8,7.7,-0.487,0.257,2.51,2.0,,12.025,12.955,127.53
2025-08-15T03:11:40.448Z,5,GR86-012-8,7.7,-0.401,0.272,2.5,2.0,,11.31,11.78,
2025-08-15T03:11:40.491Z,5,GR86-012-8,7.2,-0.458,0.221,2.51,2.0,,11.995,12.45,
2025-08-15T03:11:40.535Z,5,GR86-012-8,6.1000000000000005,-0.483,0.262,2.5,2.0,,14.545,14.635,
2025-08-15T03:11:40.578Z,5,GR86-012-8,4.6000000000000005,-0.504,0.268,2.5,2.0,6936.0,18.435,18.115,
2025-08-15T03:11:40.621Z,5,GR86-012-8,2.8000000000000003,-0.578,0.192,2.49,2.0,,22.585,22.37,124.64
2025-08-15T03:11:40.665Z,5,GR86-012-8,0.6000000000000001,-0.71,0.182,2.51,2.0,,29.24,28.9,
2025-08-15T03:11:40.707Z,5,GR86-012-8,0.3,-0.777,0.178,2.51,2.0,,34.0,33.435,
2025-08-15T03:11:40.750Z,5,GR86-012-8,0.3,-0.841,0.192,2.49,2.0,,37.645,36.87,
2025-08-15T03:11:40.794Z,5,GR86-012-8,0.4,-0.864,0.137,2.49,2.0,6714.0,39.155,39.065,
2025-08-15T03:11:40.839Z,5,GR86-012-8,0.7000000000000001,-0.866,0.141,2.5,2.0,,39.645,39.585,121.48
2025-08-15T03:11:40.882Z,5,GR86-012-8,1.1,-0.892,0.147,2.5,2.0,,39.125,39.525,
2025-08-15T03:11:40.925Z,5,GR86-012-8,1.2000000000000002,-0.923,0.135,2.49,2.0,,39.035,39.555,
2025-08-15T03:11:40.968Z,5,GR86-012-8,1.5,-0.92,0.113,2.5,2.0,,39.555,39.845,
2025-08-15T03:11:41.011Z,5,GR86-012-8,1.6,-0.95,0.118,2.51,2.0,6369.0,39.25,39.72,
2025-08-15T03:11:41.055Z,5,GR86-012-8,1.6,-0.905,0.073,13.13,2.0,,39.815,40.06,116.24
2025-08-15T03:11:41.098Z,5,GR86-012-8,1.5,-0.875,0.09,55.86,1.0,,39.875,40.06,
2025-08-15T03:11:41.141Z,5,GR86-012-8,1.4,-0.905,0.074,12.9,1.0,,39.72,40.15,
2025-08-15T03:11:41.186Z,5,GR86-012-8,1.3,-0.979,0.091,4.5,1.0,,40.715,41.765,
2025-08-15T03:11:41.229Z,5,GR86-012-8,1.4,-0.987,0.04,4.05,1.0,6059.0,41.645,42.775,
2025-08-15T03:11:41.272Z,5,GR86-012-8,2.3000000000000003,-1.009,-0.011,3.59,1.0,,40.15,40.655,110.12
2025-08-15T03:11:41.315Z,5,GR86-012-8,2.3000000000000003,-0.949,0.201,3.3200000000000003,1.0,,38.715,39.525,
2025-08-15T03:11:41.358Z,5,GR86-012-8,2.0,-0.919,-0.06,3.12,1.0,,34.12,35.34,
2025-08-15T03:11:41.401Z,5,GR86-012-8,2.8000000000000003,-0.725,0.07,2.93,1.0,,30.49,30.795,
2025-08-15T03:11:41.446Z,5,GR86-012-8,2.7,-0.908,0.073,2.77,1.0,6111.0,30.58,31.42,
2025-08-15T03:11:41.488Z,5,GR86-012-8,2.7,-0.788,-0.069,2.63,1.0,,30.58,30.855,98.76
2025-08-15T03:11:41.531Z,5,GR86-012-8,2.7,-0.934,0.145,2.54,1.0,,30.11,30.075,
2025-08-15T03:11:41.575Z,5,GR86-012-8,3.0,-0.889,0.006,2.49,1.0,,28.43,28.84,
2025-08-15T03:11:41.617Z,5,GR86-012-8,4.9,-0.714,-0.004,2.48,1.0,,24.765,25.665,
2025-08-15T03:11:41.660Z,5,GR86-012-8,8.0,-0.6880000000000001,0.082,2.47,1.0,6637.0,21.09,21.99,
2025-08-15T03:11:41.706Z,5,GR86-012-8,12.1,-0.619,0.043,2.48,1.0,,18.405,19.15,93.87
2025-08-15T03:11:41.749Z,5,GR86-012-8,13.3,-0.5740000000000001,0.138,2.48,1.0,,17.150000000000002,18.02,
2025-08-15T03:11:41.792Z,5,GR86-012-8,13.3,-0.579,0.108,2.47,1.0,,17.305,18.085,
2025-08-15T03:11:41.835Z,5,GR86-012-8,13.3,-0.56,0.138,2.48,1.0,,17.490000000000002,17.715,
2025-08-15T03:11:41.878Z,5,GR86-012-8,13.3,-0.581,0.154,2.48,1.0,6665.0,18.555,18.71,
2025-08-15T03:11:41.921Z,5,GR86-012-8,14.4,-0.5650000000000001,0.173,2.48,1.0,,18.205,18.615,90.02
2025-08-15T03:11:41.965Z,5,GR86-012-8,17.3,-0.622,0.188,2.48,1.0,,19.9,19.79,
2025-08-15T03:11:42.008Z,5,GR86-012-8,21.0,-0.595,0.237,2.48,1.0,,21.15,20.905,
2025-08-15T03:11:42.051Z,5,GR86-012-8,24.9,-0.685,0.272,2.48,1.0,,23.27,23.12,
2025-08-15T03:11:42.096Z,5,GR86-012-8,27.8,-0.667,0.354,2.48,1.0,6170.0,23.53,23.425,
2025-08-15T03:11:42.139Z,5,GR86-012-8,28.3,-0.676,0.375,2.48,1.0,,24.08,24.02,86.45
2025-08-15T03:11:42.182Z,5,GR86-012-8,27.200000000000003,-0.642,0.407,2.48,1.0,,22.845,23.3,
2025-08-15T03:11:42.225Z,5,GR86-012-8,23.0,-0.65,0.414,2.48,1.0,,19.455,20.555,
2025-08-15T03:11:42.268Z,5,GR86-012-8,21.8,-0.551,0.429,2.48,1.0,,14.085,15.275,
2025-08-15T03:11:42.311Z,5,GR86-012-8,22.0,-0.451,0.435,2.48,1.0,5845.0,9.81,10.805,
2025-08-15T03:11:42.355Z,5,GR86-012-8,23.4,-0.357,0.473,2.48,1.0,,8.09,8.91,83.39
2025-08-15T03:11:42.397Z,5,GR86-012-8,26.200000000000003,-0.389,0.455,2.48,1.0,,8.73,9.25,
2025-08-15T03:11:42.440Z,5,GR86-012-8,29.5,-0.382,0.478,2.48,1.0,,9.065,9.34,
2025-08-15T03:11:42.486Z,5,GR86-012-8,34.6,-0.406,0.504,2.48,1.0,,10.5,10.68,
2025-08-15T03:11:42.529Z,5,GR86-012-8,38.0,-0.379,0.546,2.47,1.0,5732.0,10.65,11.065,
2025-08-15T03:11:42.572Z,5,GR86-012-8,40.900000000000006,-0.389,0.5650000000000001,2.48,1.0,,11.37,11.46,80.68
2025-08-15T03:11:42.615Z,5,GR86-012-8,43.0,-0.423,0.5690000000000001,2.48,1.0,,11.55,11.78,
2025-08-15T03:11:42.658Z,5,GR86-012-8,43.5,-0.401,0.5690000000000001,2.48,1.0,,11.275,11.78,
2025-08-15T03:11:42.701Z,5,GR86-012-8,43.3,-0.434,0.593,2.48,1.0,,11.55,12.115,
2025-08-15T03:11:42.745Z,5,GR86-012-8,43.1,-0.363,0.613,2.48,1.0,5521.0,11.275,11.81,
2025-08-15T03:11:42.788Z,5,GR86-012-8,43.0,-0.423,0.628,2.48,1.0,,11.52,11.935,78.12
2025-08-15T03:11:42.831Z,5,GR86-012-8,42.8,-0.409,0.645,2.48,1.0,,10.865,11.4,
2025-08-15T03:11:42.875Z,5,GR86-012-8,42.2,-0.435,0.671,2.48,1.0,,10.59,11.125,
2025-08-15T03:11:42.918Z,5,GR86-012-8,41.6,-0.364,0.6930000000000001,2.48,1.0,,8.700000000000001,9.49,
2025-08-15T03:11:42.961Z,5,GR86-012-8,41.400000000000006,-0.29,0.673,2.48,1.0,5300.0,5.525,6.24,
2025-08-15T03:11:43.006Z,5,GR86-012-8,41.400000000000006,-0.196,0.708,2.47,1.0,,0.0,0.0,75.7
2025-08-15T03:11:43.048Z,5,GR86-012-8,41.400000000000006,-0.186,0.674,2.48,1.0,,0.0,0.0,
2025-08-15T03:11:43.091Z,5,GR86-012-8,41.400000000000006,-0.195,0.678,2.48,1.0,,0.0,0.0,
2025-08-15T03:11:43.136Z,5,GR86-012-8,42.2,-0.179,0.646,2.48,1.0,,0.0,0.0,
2025-08-15T03:11:43.178Z,5,GR86-012-8,44.900000000000006,-0.169,0.673,2.48,1.0,5165.0,0.0,0.0,
2025-08-15T03:11:43.221Z,5,GR86-012-8,49.2,-0.162,0.686,2.48,1.0,,0.0,0.0,73.61
2025-08-15T03:11:43.265Z,5,GR86-012-8,58.6,-0.164,0.679,2.47,1.0,,0.0,0.0,
2025-08-15T03:11:43.308Z,5,GR86-012-8,67.60000000000001,-0.187,0.716,2.48,1.0,,0.0,0.0,
2025-08-15T03:11:43.351Z,5,GR86-012-8,76.0,-0.188,0.74,2.48,1.0,,0.0,0.0,
2025-08-15T03:11:43.396Z,5,GR86-012-8,81.10000000000001,-0.193,0.8140000000000001,2.48,1.0,5111.0,0.0,0.0,
2025-08-15T03:11:43.439Z,5,GR86-012-8,82.7,-0.187,0.851,2.48,1.0,,0.0,0.0,72.2
2025-08-15T03:11:43.482Z,5,GR86-012-8,82.80000000000001,-0.184,0.855,2.49,1.0,,0.0,0.0,
2025-08-15T03:11:43.525Z,5,GR86-012-8,82.80000000000001,-0.192,0.858,2.84,1.0,,0.0,0.0,
2025-08-15T03:11:43.568Z,5,GR86-012-8,82.9,-0.193,0.838,4.64,1.0,,0.0,0.0,
2025-08-15T03:11:43.611Z,5,GR86-012-8,82.9,-0.188,0.852,4.73,1.0,5031.0,0.0,0.0,
2025-08-15T03:11:43.656Z,5,GR86-012-8,81.10000000000001,-0.179,0.846,6.8100000000000005,1.0,,0.0,0.0,71.17
2025-08-15T03:11:43.699Z,5,GR86-012-8,76.10000000000001,-0.174,0.908,20.55,1.0,,0.0,0.0,
2025-08-15T03:11:43.742Z,5,GR86-012-8,68.9,-0.178,0.954,20.65,1.0,,0.0,0.0,
2025-08-15T03:11:43.786Z,5,GR86-012-8,56.2,-0.12,0.896,21.04,1.0,,0.0,0.0,
2025-08-15T03:11:43.829Z,5,GR86-012-8,49.900000000000006,-0.086,0.889,21.2,1.0,4931.0,0.0,0.0,
2025-08-15T03:11:43.872Z,5,GR86-012-8,48.1,-0.08,0.845,21.42,1.0,,0.0,0.0,70.45
2025-08-15T03:11:43.915Z,5,GR86-012-8,49.5,-0.042,0.907,21.52,1.0,,0.0,0.0,
2025-08-15T03:11:43.958Z,5,GR86-012-8,53.400000000000006,0.158,0.888,21.68,1.0,,0.0,0.0,
2025-08-15T03:11:44.001Z,5,GR86-012-8,58.3,0.167,0.894,21.8,1.0,,0.0,0.0,
2025-08-15T03:11:44.045Z,5,GR86-012-8,65.10000000000001,0.15,0.908,21.94,1.0,5091.0,0.0,0.0,
2025-08-15T03:11:44.088Z,5,GR86-012-8,71.4,0.108,0.859,22.02,1.0,,0.0,0.0,68.76
2025-08-15T03:11:44.131Z,5,GR86-012-8,78.9,0.067,0.931,22.06,1.0,,0.0,0.0,
2025-08-15T03:11:44.175Z,5,GR86-012-8,85.5,0.069,0.916,22.07,1.0,,0.0,0.0,
2025-08-15T03:11:44.217Z,5,GR86-012-8,89.7,0.109,0.873,22.09,1.0,,0.0,0.0,
2025-08-15T03:11:44.260Z,5,GR86-012-8,91.6,0.106,0.9,22.1,1.0,5163.0,0.0,0.0,
2025-08-15T03:11:44.305Z,5,GR86-012-8,91.7,0.109,0.908,22.1,1.0,,0.0,0.0,68.86
2025-08-15T03:11:44.348Z,5,GR86-012-8,91.7,0.111,0.891,22.09,1.0,,0.0,0.0,
2025-08-15T03:11:44.391Z,5,GR86-012-8,91.2,0.081,0.889,22.1,1.0,,0.0,0.0,
2025-08-15T03:11:44.435Z,5,GR86-012-8,90.9,0.081,0.885,22.09,1.0,,0.0,0.0,
2025-08-15T03:11:44.477Z,5,GR86-012-8,90.9,0.082,0.913,22.1,1.0,5228.0,0.0,0.0,
2025-08-15T03:11:44.520Z,5,GR86-012-8,90.9,0.085,0.955,22.09,1.0,,0.0,0.0,69.27
2025-08-15T03:11:44.565Z,5,GR86-012-8,91.9,0.066,0.996,22.07,1.0,,0.0,0.0,
2025-08-15T03:11:44.608Z,5,GR86-012-8,93.2,0.068,0.993,22.07,1.0,,0.0,0.0,
2025-08-15T03:11:44.651Z,5,GR86-012-8,93.4,0.081,0.996,22.06,1.0,,0.0,0.0,
2025-08-15T03:11:44.696Z,5,GR86-012-8,93.4,0.076,0.945,19.89,1.0,5298.0,0.0,0.0,
2025-08-15T03:11:44.739Z,5,GR86-012-8,93.4,0.071,0.947,17.23,1.0,,0.0,0.0,70.23
2025-08-15T03:11:44.782Z,5,GR86-012-8,92.8,0.099,0.958,16.62,1.0,,0.0,0.0,
2025-08-15T03:11:44.825Z,5,GR86-012-8,91.9,0.04,0.962,20.1,1.0,,0.0,0.0,
2025-08-15T03:11:44.868Z,5,GR86-012-8,90.0,0.026,0.971,21.88,1.0,,0.0,0.0,
2025-08-15T03:11:44.911Z,5,GR86-012-8,88.4,-0.01,0.968,21.91,1.0,5236.0,0.0,0.0,
2025-08-15T03:11:44.956Z,5,GR86-012-8,87.80000000000001,-0.011,0.97,21.91,1.0,,0.0,0.0,70.83
2025-08-15T03:11:44.998Z,5,GR86-012-8,87.80000000000001,0.021,0.936,21.93,1.0,,0.0,0.0,
2025-08-15T03:11:45.041Z,5,GR86-012-8,87.80000000000001,0.059,0.975,21.94,1.0,,0.0,0.0,
2025-08-15T03:11:45.086Z,5,GR86-012-8,87.80000000000001,0.082,0.964,21.98,1.0,,0.0,0.0,
2025-08-15T03:11:45.129Z,5,GR86-012-8,87.80000000000001,0.094,0.965,22.01,1.0,5354.0,0.0,0.0,
2025-08-15T03:11:45.172Z,5,GR86-012-8,87.7,0.098,0.955,22.02,1.0,,0.0,0.0,71.18
2025-08-15T03:11:45.215Z,5,GR86-012-8,87.60000000000001,0.076,0.95,22.04,1.0,,0.0,0.0,
2025-08-15T03:11:45.258Z,5,GR86-012-8,87.10000000000001,0.049,0.988,22.04,1.0,,0.0,0.0,
2025-08-15T03:11:45.301Z,5,GR86-012-8,85.9,0.053,0.951,22.05,1.0,,0.0,0.0,
2025-08-15T03:11:45.346Z,5,GR86-012-8,83.60000000000001,0.064,0.949,22.06,1.0,5343.0,0.0,0.0,
2025-08-15T03:11:45.388Z,5,GR86-012-8,79.7,0.079,0.961,22.05,1.0,,0.0,0.0,71.44
2025-08-15T03:11:45.431Z,5,GR86-012-8,75.3,0.101,0.948,22.06,1.0,,0.0,0.0,
2025-08-15T03:11:45.475Z,5,GR86-012-8,69.4,0.077,0.967,22.06,1.0,,0.0,0.0,
2025-08-15T03:11:45.518Z,5,GR86-012-8,64.4,0.067,0.924,23.23,1.0,,0.0,0.0,
2025-08-15T03:11:45.561Z,5,GR86-012-8,58.0,0.066,0.974,25.74,1.0,5393.0,0.0,0.0,
2025-08-15T03:11:45.606Z,5,GR86-012-8,50.0,0.096,0.88,27.34,1.0,,0.0,0.0,71.76
2025-08-15T03:11:45.649Z,5,GR86-012-8,44.7,0.125,0.898,27.68,1.0,,0.0,0.0,
2025-08-15T03:11:45.692Z,5,GR86-012-8,38.7,0.146,0.882,29.1,1.0,,0.0,0.0,
2025-08-15T03:11:45.735Z,5,GR86-012-8,34.1,0.181,0.885,29.51,1.0,,0.0,0.0,
2025-08-15T03:11:45.778Z,5,GR86-012-8,31.1,0.206,0.888,29.91,1.0,5483.0,0.0,0.0,
2025-08-15T03:11:45.821Z,5,GR86-012-8,29.5,0.208,0.8310000000000001,30.36,1.0,,0.0,0.0,72.3
2025-08-15T03:11:45.865Z,5,GR86-012-8,29.3,0.243,0.808,32.94,1.0,,0.0,0.0,
2025-08-15T03:11:45.908Z,5,GR86-012-8,31.6,0.243,0.763,40.52,1.0,,0.0,0.0,
2025-08-15T03:11:45.951Z,5,GR86-012-8,35.1,0.24,0.793,57.21,1.0,,0.0,0.0,
2025-08-15T03:11:45.996Z,5,GR86-012-8,38.7,0.221,0.775,87.54,1.0,5555.0,0.0,0.0,
2025-08-15T03:11:46.039Z,5,GR86-012-8,41.2,0.26,0.739,99.73,1.0,,0.0,0.0,72.76
2025-08-15T03:11:46.082Z,5,GR86-012-8,41.0,0.316,0.728,99.86,1.0,,0.0,0.0,
2025-08-15T03:11:46.125Z,5,GR86-012-8,40.0,0.348,0.655,99.88,1.0,,0.0,0.0,
2025-08-15T03:11:46.168Z,5,GR86-012-8,38.0,0.353,0.635,99.87,1.0,,0.0,0.0,
2025-08-15T03:11:46.211Z,5,GR86-012-8,37.1,0.35,0.614,99.86,1.0,5694.0,0.0,0.0,
2025-08-15T03:11:46.255Z,5,GR86-012-8,35.4,0.355,0.598,99.86,1.0,,0.0,0.0,73.59
2025-08-15T03:11:46.297Z,5,GR86-012-8,32.6,0.338,0.61,99.86,1.0,,0.0,0.0,
2025-08-15T03:11:46.340Z,5,GR86-012-8,29.5,0.355,0.588,99.88,1.0,,0.0,0.0,
2025-08-15T03:11:46.386Z,5,GR86-012-8,25.5,0.332,0.546,99.88,1.0,,0.0,0.0,
2025-08-15T03:11:46.429Z,5,GR86-012-8,22.6,0.35,0.502,99.88,1.0,5821.0,0.0,0.0,
2025-08-15T03:11:46.472Z,5,GR86-012-8,19.8,0.346,0.49,99.88,1.0,,0.0,0.0,75.33
2025-08-15T03:11:46.515Z,5,GR86-012-8,17.900000000000002,0.346,0.489,99.87,1.0,,0.0,0.0,
2025-08-15T03:11:46.558Z,5,GR86-012-8,14.8,0.324,0.459,99.87,1.0,,0.0,0.0,
2025-08-15T03:11:46.601Z,5,GR86-012-8,12.7,0.34,0.426,99.87,1.0,,0.0,0.0,
2025-08-15T03:11:46.645Z,5,GR86-012-8,9.9,0.364,0.348,99.86,1.0,6004.0,0.0,0.0,
2025-08-15T03:11:46.731Z,5,GR86-012-8,8.5,0.368,0.307,99.88,1.0,,0.0,0.0,79.43
2025-08-15T03:11:46.775Z,5,GR86-012-8,6.5,0.344,0.215,99.86,1.0,,0.0,0.0,
2025-08-15T03:11:46.818Z,5,GR86-012-8,5.800000000000001,0.322,0.169,99.87,1.0,,0.0,0.0,
2025-08-15T03:11:46.861Z,5,GR86-012-8,5.1000000000000005,0.318,0.175,99.87,1.0,6170.0,0.0,0.0,
2025-08-15T03:11:46.906Z,5,GR86-012-8,4.1000000000000005,0.344,0.131,99.87,1.0,,0.0,0.0,81.69
2025-08-15T03:11:46.948Z,5,GR86-012-8,3.9,0.368,0.134,99.89,1.0,,0.0,0.0,
2025-08-15T03:11:46.991Z,5,GR86-012-8,3.9,0.367,0.103,99.87,1.0,,0.0,0.0,
2025-08-15T03:11:47.035Z,5,GR86-012-8,3.7,0.33,0.098,99.88,1.0,,0.0,0.0,
2025-08-15T03:11:47.078Z,5,GR86-012-8,2.4000000000000004,0.34,0.081,99.87,1.0,6332.0,0.0,0.0,
2025-08-15T03:11:47.121Z,5,GR86-012-8,1.7000000000000002,0.282,0.091,99.88,1.0,,0.0,0.0,84.09
2025-08-15T03:11:47.165Z,5,GR86-012-8,1.7000000000000002,0.291,0.063,99.88,1.0,,0.0,0.0,
2025-08-15T03:11:47.208Z,5,GR86-012-8,1.7000000000000002,0.375,0.039,99.89,1.0,,0.0,0.0,
2025-08-15T03:11:47.251Z,5,GR86-012-8,1.7000000000000002,0.333,0.065,99.9,1.0,,0.0,0.0,
2025-08-15T03:11:47.297Z,5,GR86-012-8,1.7000000000000002,0.308,-0.002,99.87,1.0,6642.0,0.0,0.0,
2025-08-15T03:11:47.340Z,5,GR86-012-8,1.7000000000000002,0.324,0.016,99.87,1.0,,0.0,0.0,86.65
2025-08-15T03:11:47.386Z,5,GR86-012-8,1.7000000000000002,0.361,0.001,99.88,1.0,,0.0,0.0,
2025-08-15T03:11:47.428Z,5,GR86-012-8,1.7000000000000002,0.345,0.003,99.87,1.0,,0.0,0.0,
2025-08-15T03:11:47.471Z,5,GR86-012-8,1.7000000000000002,0.326,-0.004,99.87,1.0,,0.0,0.0,
2025-08-15T03:11:47.515Z,5,GR86-012-8,1.7000000000000002,0.307,0.016,99.87,1.0,6810.0,0.0,0.0,
2025-08-15T03:11:47.557Z,5,GR86-012-8,1.7000000000000002,0.32,0.016,99.91,1.0,,0.0,0.0,88.91
2025-08-15T03:11:47.600Z,5,GR86-012-8,1.7000000000000002,0.33,0.016,99.91,1.0,,0.0,0.0,
2025-08-15T03:11:47.645Z,5,GR86-012-8,1.7000000000000002,0.319,0.023,99.89,1.0,,0.0,0.0,
2025-08-15T03:11:47.688Z,5,GR86-012-8,1.5,0.319,0.034,99.87,1.0,,0.0,0.0,
2025-08-15T03:11:47.731Z,5,GR86-012-8,1.2000000000000002,0.304,0.045,99.88,1.0,6979.0,0.0,0.0,
2025-08-15T03:11:47.775Z,5,GR86-012-8,1.2000000000000002,0.305,0.051,99.9,1.0,,0.0,0.0,91.12
2025-08-15T03:11:47.817Z,5,GR86-012-8,1.1,0.308,0.045,99.89,1.0,,0.0,0.0,
2025-08-15T03:11:47.860Z,5,GR86-012-8,0.7000000000000001,0.312,0.054,99.91,1.0,,0.0,0.0,
2025-08-15T03:11:47.905Z,5,GR86-012-8,-0.2,0.301,0.058,99.89,1.0,,0.0,0.0,
2025-08-15T03:11:47.948Z,5,GR86-012-8,-0.9,0.29,0.046,99.9,1.0,7127.0,0.0,0.0,
2025-08-15T03:11:47.991Z,5,GR86-012-8,-1.2000000000000002,0.305,0.044,99.92,1.0,,0.0,0.0,93.37
2025-08-15T03:11:48.035Z,5,GR86-012-8,-1.6,0.309,0.03,99.87,1.0,,0.0,0.0,
2025-08-15T03:11:48.078Z,5,GR86-012-8,-2.1,0.292,0.027,99.9,1.0,,0.0,0.0,
2025-08-15T03:11:48.121Z,5,GR86-012-8,-2.8000000000000003,0.273,0.011,99.91,1.0,,0.0,0.0,
2025-08-15T03:11:48.165Z,5,GR86-012-8,-3.1,0.214,0.008,99.9,1.0,7263.0,0.0,0.0,
2025-08-15T03:11:48.208Z,5,GR86-012-8,-3.1,0.174,0.003,99.9,1.0,,0.0,0.0,95.53
2025-08-15T03:11:48.251Z,5,GR86-012-8,-3.1,0.162,-0.024,99.89,1.0,,0.0,0.0,
2025-08-15T03:11:48.296Z,5,GR86-012-8,-3.1,0.133,-0.015,99.88,1.0,,0.0,0.0,
2025-08-15T03:11:48.339Z,5,GR86-012-8,-3.1,-0.029,-0.011,99.88,2.0,,0.0,0.0,
2025-08-15T03:11:48.382Z,5,GR86-012-8,-3.1,-0.027,0.006,99.89,2.0,7308.0,0.0,0.0,
2025-08-15T03:11:48.425Z,5,GR86-012-8,-2.7,0.676,-0.112,99.9,2.0,,0.0,0.0,97.45
2025-08-15T03:11:48.468Z,5,GR86-012-8,-2.7,0.631,0.001,99.9,2.0,,0.0,0.0,
2025-08-15T03:11:48.511Z,5,GR86-012-8,-2.7,0.403,-0.062,99.9,2.0,,0.0,0.0,
2025-08-15T03:11:48.555Z,5,GR86-012-8,-2.7,0.154,-0.043,99.9,2.0,,0.0,0.0,
2025-08-15T03:11:48.598Z,5,GR86-012-8,-2.7,0.107,-0.016,99.89,2.0,6046.0,0.0,0.0,
2025-08-15T03:11:48.641Z,5,GR86-012-8,-2.8000000000000003,0.186,-0.057,99.89,2.0,,0.0,0.0,98.6
2025-08-15T03:11:48.686Z,5,GR86-012-8,-2.8000000000000003,0.341,-0.054,99.91,2.0,,0.0,0.0,
2025-08-15T03:11:48.729Z,5,GR86-012-8,-2.8000000000000003,0.329,-0.015,99.9,2.0,,0.0,0.0,
2025-08-15T03:11:48.772Z,5,GR86-012-8,-2.9000000000000004,0.272,-0.039,99.9,2.0,,0.0,0.0,
2025-08-15T03:11:48.816Z,5,GR86-012-8,-2.9000000000000004,0.212,-0.024,99.91,2.0,6007.0,0.0,0.0,
2025-08-15T03:11:48.859Z,5,GR86-012-8,-3.0,0.21,-0.024,99.89,2.0,,0.0,0.0,100.93
2025-08-15T03:11:48.902Z,5,GR86-012-8,-3.2,0.238,-0.04,99.9,2.0,,0.0,0.0,
2025-08-15T03:11:48.946Z,5,GR86-012-8,-3.2,0.262,-0.028,99.9,2.0,,0.0,0.0,
2025-08-15T03:11:49.031Z,5,GR86-012-8,-3.3000000000000003,0.265,-0.029,99.9,2.0,5999.0,0.0,0.0,
2025-08-15T03:11:49.075Z,5,GR86-012-8,-3.4000000000000004,0.251,-0.015,99.9,2.0,,0.0,0.0,102.65
2025-08-15T03:11:49.118Z,5,GR86-012-8,-4.0,0.273,-0.038,99.91,2.0,,0.0,0.0,
2025-08-15T03:11:49.161Z,5,GR86-012-8,-4.1000000000000005,0.252,-0.024,99.91,2.0,,0.0,0.0,
2025-08-15T03:11:49.206Z,5,GR86-012-8,-4.1000000000000005,0.244,-0.041,99.9,2.0,,0.0,0.0,
2025-08-15T03:11:49.249Z,5,GR86-012-8,-4.1000000000000005,0.251,-0.051,99.91,2.0,6081.0,0.0,0.0,
2025-08-15T03:11:49.292Z,5,GR86-012-8,-4.2,0.241,-0.038,99.9,2.0,,0.0,0.0,105.67
2025-08-15T03:11:49.335Z,5,GR86-012-8,-4.7,0.249,-0.051,99.91,2.0,,0.0,0.0,
2025-08-15T03:11:49.378Z,5,GR86-012-8,-4.7,0.266,-0.06,99.89,2.0,,0.0,0.0,
2025-08-15T03:11:49.421Z,5,GR86-012-8,-4.7,0.243,-0.054,99.91,2.0,,0.0,0.0,
2025-08-15T03:11:49.465Z,5,GR86-012-8,-4.7,0.239,-0.062,99.91,2.0,6176.0,0.0,0.0,
2025-08-15T03:11:49.508Z,5,GR86-012-8,-4.7,0.258,-0.075,99.9,2.0,,0.0,0.0,107.13
2025-08-15T03:11:49.551Z,5,GR86-012-8,-4.7,0.245,-0.052,99.92,2.0,,0.0,0.0,
2025-08-15T03:11:49.596Z,5,GR86-012-8,-4.7,0.235,-0.08,99.9,2.0,,0.0,0.0,
2025-08-15T03:11:49.639Z,5,GR86-012-8,-4.7,0.243,-0.062,99.91,2.0,,0.0,0.0,
2025-08-15T03:11:49.682Z,5,GR86-012-8,-4.7,0.242,-0.061,99.9,2.0,6252.0,0.0,0.0,
2025-08-15T03:11:49.725Z,5,GR86-012-8,-4.2,0.244,-0.066,99.94,2.0,,0.0,0.0,108.54
2025-08-15T03:11:49.768Z,5,GR86-012-8,-4.0,0.265,-0.071,99.91,2.0,,0.0,0.0,
2025-08-15T03:11:49.811Z,5,GR86-012-8,-4.0,0.229,-0.038,99.9,2.0,,0.0,0.0,
2025-08-15T03:11:49.855Z,5,GR86-012-8,-4.0,0.233,-0.057,99.91,2.0,,0.0,0.0,
2025-08-15T03:11:49.897Z,5,GR86-012-8,-3.7,0.243,-0.033,99.91,2.0,6403.0,0.0,0.0,
2025-08-15T03:11:49.940Z,5,GR86-012-8,-3.4000000000000004,0.248,-0.045,99.91,2.0,,0.0,0.0,109.92
2025-08-15T03:11:49.986Z,5,GR86-012-8,-3.3000000000000003,0.245,-0.051,99.91,2.0,,0.0,0.0,
2025-08-15T03:11:50.028Z,5,GR86-012-8,-3.1,0.258,-0.037,99.91,2.0,,0.0,0.0,
2025-08-15T03:11:50.071Z,5,GR86-012-8,-3.0,0.234,-0.019,99.91,2.0,,0.0,0.0,
2025-08-15T03:11:50.115Z,5,GR86-012-8,-3.0,0.244,-0.033,99.9,2.0,6464.0,0.0,0.0,
2025-08-15T03:11:50.157Z,5,GR86-012-8,-2.9000000000000004,0.248,-0.013,99.9,2.0,,0.0,0.0,111.21
2025-08-15T03:11:50.200Z,5,GR86-012-8,-2.6,0.235,-0.025,99.93,2.0,,0.0,0.0,
2025-08-15T03:11:50.245Z,5,GR86-012-8,-2.1,0.237,-0.025,99.94,2.0,,0.0,0.0,
2025-08-15T03:11:50.288Z,5,GR86-012-8,-1.9,0.263,-0.009,99.92,2.0,,0.0,0.0,
2025-08-15T03:11:50.331Z,5,GR86-012-8,-1.7000000000000002,0.236,-0.003,99.9,2.0,6542.0,0.0,0.0,
2025-08-15T03:11:50.375Z,5,GR86-012-8,-1.7000000000000002,0.245,-0.013,99.91,2.0,,0.0,0.0,112.33
2025-08-15T03:11:50.418Z,5,GR86-012-8,-1.6,0.246,0.005,99.91,2.0,,0.0,0.0,
2025-08-15T03:11:50.461Z,5,GR86-012-8,-1.5,0.221,-0.016,99.91,2.0,,0.0,0.0,
2025-08-15T03:11:50.505Z,5,GR86-012-8,-1.4,0.243,-0.01,99.9,2.0,,0.0,0.0,
2025-08-15T03:11:50.548Z,5,GR86-012-8,-1.2000000000000002,0.257,0.008,99.92,2.0,6612.0,0.0,0.0,
2025-08-15T03:11:50.591Z,5,GR86-012-8,-1.1,0.249,0.009,99.91,2.0,,0.0,0.0,113.45
2025-08-15T03:11:50.635Z,5,GR86-012-8,-1.1,0.241,-0.011,99.9,2.0,,0.0,0.0,
2025-08-15T03:11:50.678Z,5,GR86-012-8,-1.1,0.248,0.011,99.91,2.0,,0.0,0.0,
2025-08-15T03:11:50.721Z,5,GR86-012-8,-1.1,0.234,0.005,99.9,2.0,,0.0,0.0,
2025-08-15T03:11:50.765Z,5,GR86-012-8,-1.1,0.239,0.008,99.91,2.0,6669.0,0.0,0.0,
2025-08-15T03:11:50.808Z,5,GR86-012-8,-0.9,0.24,-0.001,99.94,2.0,,0.0,0.0,114.56
2025-08-15T03:11:50.851Z,5,GR86-012-8,-0.9,0.252,0.019,99.91,2.0,,0.0,0.0,
2025-08-15T03:11:50.897Z,5,GR86-012-8,-0.9,0.226,0.003,99.91,2.0,,0.0,0.0,
2025-08-15T03:11:50.939Z,5,GR86-012-8,-0.9,0.233,0.007,99.92,2.0,,0.0,0.0,
2025-08-15T03:11:50.982Z,5,GR86-012-8,-0.9,0.249,0.016,99.94,2.0,6730.0,0.0,0.0,
2025-08-15T03:11:51.025Z,5,GR86-012-8,-0.9,0.265,0.019,99.9,2.0,,0.0,0.0,115.7
2025-08-15T03:11:51.068Z,5,GR86-012-8,-0.9,0.238,0.005,99.92,2.0,,0.0,0.0,
2025-08-15T03:11:51.111Z,5,GR86-012-8,-0.9,0.245,0.026,99.92,2.0,,0.0,0.0,
2025-08-15T03:11:51.156Z,5,GR86-012-8,-0.9,0.235,0.011,99.91,2.0,,0.0,0.0,
2025-08-15T03:11:51.199Z,5,GR86-012-8,-0.9,0.224,0.006,99.9,2.0,6793.0,0.0,0.0,
2025-08-15T03:11:51.242Z,5,GR86-012-8,-0.7000000000000001,0.245,0.012,99.9,2.0,,0.0,0.0,116.8
