timestamp,lap,vehicle_id,steering_angle,accx_can,accy_can,ath,gear,nmot,pbrake_f,pbrake_r,speed
2025-08-15T03:13:43.156Z,6,GR86-012-8,0.3,0.117,0.066,99.88,4.0,,0.0,0.0,
2025-08-15T03:13:43.199Z,6,GR86-012-8,0.2,0.119,0.068,99.88,4.0,,0.0,0.0,
2025-08-15T03:13:43.242Z,6,GR86-012-8,-0.2,0.115,0.063,99.88,4.0,,0.0,0.0,
2025-08-15T03:13:43.287Z,6,GR86-012-8,-0.7000000000000001,0.087,0.037,99.89,4.0,6819.0,0.0,0.0,
2025-08-15T03:13:43.329Z,6,GR86-012-8,-0.8,0.092,0.032,99.88,4.0,,0.0,0.0,172.9
2025-08-15T03:13:43.372Z,6,GR86-012-8,-0.8,0.1,0.023,99.89,4.0,,0.0,0.0,
2025-08-15T03:13:43.415Z,6,GR86-012-8,-0.8,0.105,0.033,99.88,4.0,,0.0,0.0,
2025-08-15T03:13:43.458Z,6,GR86-012-8,-0.8,0.097,0.016,99.88,4.0,,0.0,0.0,
2025-08-15T03:13:43.501Z,6,GR86-012-8,-0.9,0.096,0.017,99.88,4.0,6835.0,0.0,0.0,
2025-08-15T03:13:43.546Z,6,GR86-012-8,-1.1,0.09,-0.001,99.88,4.0,,0.0,0.0,173.63
2025-08-15T03:13:43.588Z,6,GR86-012-8,-1.1,0.098,0.013,99.88,4.0,,0.0,0.0,
2025-08-15T03:13:43.631Z,6,GR86-012-8,-1.1,0.094,0.01,99.88,4.0,,0.0,0.0,
2025-08-15T03:13:43.675Z,6,GR86-012-8,-1.1,0.096,-0.014,99.88,4.0,,0.0,0.0,
2025-08-15T03:13:43.718Z,6,GR86-012-8,-1.1,0.082,-0.021,99.91,4.0,6878.0,0.0,0.0,
2025-08-15T03:13:43.806Z,6,GR86-012-8,-1.1,0.104,0.007,99.87,4.0,,0.0,0.0,174.34
2025-08-15T03:13:43.849Z,6,GR86-012-8,-1.1,0.107,0.002,99.9,4.0,,0.0,0.0,
2025-08-15T03:13:43.935Z,6,GR86-012-8,-1.1,0.104,-0.01,99.9,4.0,6901.0,0.0,0.0,
2025-08-15T03:13:43.978Z,6,GR86-012-8,-1.1,0.095,-0.03,99.87,4.0,,0.0,0.0,175.12
2025-08-15T03:13:44.021Z,6,GR86-012-8,-1.1,0.09,-0.023,99.88,4.0,,0.0,0.0,
2025-08-15T03:13:44.065Z,6,GR86-012-8,-1.0,0.107,0.006,99.87,4.0,,0.0,0.0,
2025-08-15T03:13:44.108Z,6,GR86-012-8,-0.7000000000000001,0.104,-0.008,99.88,4.0,,0.0,0.0,
2025-08-15T03:13:44.151Z,6,GR86-012-8,-0.7000000000000001,0.105,0.006,99.89,4.0,6928.0,0.0,0.0,
2025-08-15T03:13:44.196Z,6,GR86-012-8,-0.6000000000000001,0.103,0.006,99.86,4.0,,0.0,0.0,175.89
2025-08-15T03:13:44.239Z,6,GR86-012-8,-0.5,0.11,-0.013,99.9,4.0,,0.0,0.0,
2025-08-15T03:13:44.282Z,6,GR86-012-8,-0.5,0.103,-0.005,99.86,4.0,,0.0,0.0,
2025-08-15T03:13:44.325Z,6,GR86-012-8,-0.5,-0.144,0.051,99.87,5.0,,0.0,0.0,
2025-08-15T03:13:44.368Z,6,GR86-012-8,-0.3,-0.127,-0.015,99.87,5.0,6952.0,0.0,0.0,
2025-08-15T03:13:44.411Z,6,GR86-012-8,0.4,0.385,0.014,99.87,5.0,,0.0,0.0,176.65
2025-08-15T03:13:44.455Z,6,GR86-012-8,0.7000000000000001,0.119,-0.003,99.87,5.0,,0.0,0.0,
2025-08-15T03:13:44.497Z,6,GR86-012-8,0.7000000000000001,-0.022,0.031,99.88,5.0,,0.0,0.0,
2025-08-15T03:13:44.540Z,6,GR86-012-8,0.7000000000000001,0.036,0.012,99.87,5.0,,0.0,0.0,
2025-08-15T03:13:44.586Z,6,GR86-012-8,0.8,0.112,0.059,99.87,5.0,5940.0,0.0,0.0,
2025-08-15T03:13:44.629Z,6,GR86-012-8,1.0,0.057,0.04,99.87,5.0,,0.0,0.0,177.03
2025-08-15T03:13:44.672Z,6,GR86-012-8,1.0,0.066,0.022,99.87,5.0,,0.0,0.0,
2025-08-15T03:13:44.715Z,6,GR86-012-8,1.0,0.08,0.018,99.88,5.0,,0.0,0.0,
2025-08-15T03:13:44.758Z,6,GR86-012-8,1.0,0.07,0.043,99.88,5.0,,0.0,0.0,
2025-08-15T03:13:44.801Z,6,GR86-012-8,0.9,0.059,0.056,99.89,5.0,6064.0,0.0,0.0,
2025-08-15T03:13:44.888Z,6,GR86-012-8,0.5,0.092,0.043,99.88,5.0,,0.0,0.0,177.6
2025-08-15T03:13:44.931Z,6,GR86-012-8,0.1,0.082,0.043,99.89,5.0,,0.0,0.0,
2025-08-15T03:13:44.975Z,6,GR86-012-8,-0.5,0.079,0.055,99.88,5.0,,0.0,0.0,
2025-08-15T03:13:45.018Z,6,GR86-012-8,-1.0,0.083,0.041,99.87,5.0,6089.0,0.0,0.0,
2025-08-15T03:13:45.061Z,6,GR86-012-8,-1.2000000000000002,0.083,0.027,99.88,5.0,,0.0,0.0,178.26
2025-08-15T03:13:45.106Z,6,GR86-012-8,-1.2000000000000002,0.058,0.002,99.89,5.0,,0.0,0.0,
2025-08-15T03:13:45.148Z,6,GR86-012-8,-1.2000000000000002,0.065,0.008,99.88,5.0,,0.0,0.0,
2025-08-15T03:13:45.191Z,6,GR86-012-8,-1.2000000000000002,0.065,-0.003,99.87,5.0,,0.0,0.0,
2025-08-15T03:13:45.235Z,6,GR86-012-8,-1.2000000000000002,0.069,-0.011,99.87,5.0,6114.0,0.0,0.0,
2025-08-15T03:13:45.278Z,6,GR86-012-8,-1.2000000000000002,0.076,-0.015,99.87,5.0,,0.0,0.0,178.79
2025-08-15T03:13:45.321Z,6,GR86-012-8,-1.2000000000000002,0.067,-0.013,99.87,5.0,,0.0,0.0,
2025-08-15T03:13:45.365Z,6,GR86-012-8,-1.1,0.084,-0.012,99.88,5.0,,0.0,0.0,
2025-08-15T03:13:45.408Z,6,GR86-012-8,-1.1,0.086,-0.016,99.88,5.0,,0.0,0.0,
2025-08-15T03:13:45.451Z,6,GR86-012-8,-1.1,0.083,-0.01,99.88,5.0,6129.0,0.0,0.0,
2025-08-15T03:13:45.497Z,6,GR86-012-8,-1.1,0.08,-0.003,99.88,5.0,,0.0,0.0,179.95000000000002
2025-08-15T03:13:45.539Z,6,GR86-012-8,-1.1,0.08,-0.003,99.88,5.0,,0.0,0.0,
2025-08-15T03:13:45.582Z,6,GR86-012-8,-1.1,0.077,-0.014,99.88,5.0,,0.0,0.0,
2025-08-15T03:13:45.625Z,6,GR86-012-8,-1.1,0.063,-0.028,99.86,5.0,,0.0,0.0,
2025-08-15T03:13:45.668Z,6,GR86-012-8,-1.1,0.07,-0.021,99.86,5.0,6147.0,0.0,0.0,
2025-08-15T03:13:45.711Z,6,GR86-012-8,-1.1,0.07,-0.003,99.89,5.0,,0.0,0.0,180.61
2025-08-15T03:13:45.756Z,6,GR86-012-8,-1.1,0.07,-0.01,99.88,5.0,,0.0,0.0,
2025-08-15T03:13:45.799Z,6,GR86-012-8,-1.1,0.063,-0.028,99.88,5.0,,0.0,0.0,
2025-08-15T03:13:45.842Z,6,GR86-012-8,-1.1,0.069,-0.02,99.87,5.0,,0.0,0.0,
2025-08-15T03:13:45.886Z,6,GR86-012-8,-1.1,0.066,-0.023,99.89,5.0,6187.0,0.0,0.0,
2025-08-15T03:13:45.929Z,6,GR86-012-8,-1.1,0.074,-0.025,99.87,5.0,,0.0,0.0,181.31
2025-08-15T03:13:45.972Z,6,GR86-012-8,-1.1,0.072,-0.021,99.87,5.0,,0.0,0.0,
2025-08-15T03:13:46.015Z,6,GR86-012-8,-1.1,0.066,-0.013,99.87,5.0,,0.0,0.0,
2025-08-15T03:13:46.058Z,6,GR86-012-8,-1.1,0.073,-0.011,99.89,5.0,,0.0,0.0,
2025-08-15T03:13:46.101Z,6,GR86-012-8,-1.1,0.069,-0.026,99.87,5.0,6198.0,0.0,0.0,
2025-08-15T03:13:46.145Z,6,GR86-012-8,-1.1,0.065,-0.023,99.87,5.0,,0.0,0.0,181.89
2025-08-15T03:13:46.188Z,6,GR86-012-8,-1.1,0.072,-0.008,99.88,5.0,,0.0,0.0,
2025-08-15T03:13:46.231Z,6,GR86-012-8,-1.1,0.07,-0.007,99.87,5.0,,0.0,0.0,
2025-08-15T03:13:46.275Z,6,GR86-012-8,-1.1,0.058,-0.01,99.87,5.0,,0.0,0.0,
2025-08-15T03:13:46.318Z,6,GR86-012-8,-1.1,0.06,-0.005,99.88,5.0,6221.0,0.0,0.0,
2025-08-15T03:13:46.361Z,6,GR86-012-8,-1.1,0.079,-0.005,99.88,5.0,,0.0,0.0,182.53
2025-08-15T03:13:46.405Z,6,GR86-012-8,-1.1,0.076,-0.003,99.88,5.0,,0.0,0.0,
2025-08-15T03:13:46.448Z,6,GR86-012-8,-1.1,0.066,-0.009,99.88,5.0,,0.0,0.0,
2025-08-15T03:13:46.491Z,6,GR86-012-8,-1.1,0.082,-0.029,99.87,5.0,,0.0,0.0,
2025-08-15T03:13:46.535Z,6,GR86-012-8,-1.1,0.066,-0.021,99.88,5.0,6257.0,0.0,0.0,
2025-08-15T03:13:46.578Z,6,GR86-012-8,-1.1,0.074,-0.019,99.87,5.0,,0.0,0.0,183.02
2025-08-15T03:13:46.621Z,6,GR86-012-8,-1.1,0.072,-0.016,99.87,5.0,,0.0,0.0,
2025-08-15T03:13:46.665Z,6,GR86-012-8,-1.1,0.062,-0.011,99.87,5.0,,0.0,0.0,
2025-08-15T03:13:46.707Z,6,GR86-012-8,-1.1,0.067,-0.015,99.87,5.0,,0.0,0.0,
2025-08-15T03:13:46.750Z,6,GR86-012-8,-1.1,0.063,-0.017,99.9,5.0,6274.0,0.0,0.0,
2025-08-15T03:13:46.794Z,6,GR86-012-8,-1.1,0.064,-0.022,99.89,5.0,,0.0,0.0,183.57
2025-08-15T03:13:46.839Z,6,GR86-012-8,-1.1,0.064,-0.027,99.88,5.0,,0.0,0.0,
2025-08-15T03:13:46.882Z,6,GR86-012-8,-1.1,0.068,-0.016,99.9,5.0,,0.0,0.0,
2025-08-15T03:13:46.926Z,6,GR86-012-8,-1.1,0.078,-0.015,99.86,5.0,,0.0,0.0,
2025-08-15T03:13:46.968Z,6,GR86-012-8,-1.1,0.077,-0.018,99.88,5.0,6291.0,0.0,0.0,
2025-08-15T03:13:47.011Z,6,GR86-012-8,-1.2000000000000002,0.076,-0.019,99.87,5.0,,0.0,0.0,184.23
2025-08-15T03:13:47.055Z,6,GR86-012-8,-1.2000000000000002,0.075,-0.014,99.88,5.0,,0.0,0.0,
2025-08-15T03:13:47.098Z,6,GR86-012-8,-1.2000000000000002,0.08,0.001,99.87,5.0,,0.0,0.0,
2025-08-15T03:13:47.141Z,6,GR86-012-8,-1.2000000000000002,0.085,-0.006,99.87,5.0,,0.0,0.0,
2025-08-15T03:13:47.186Z,6,GR86-012-8,-1.2000000000000002,0.049,-0.021,99.89,5.0,6308.0,0.0,0.0,
2025-08-15T03:13:47.229Z,6,GR86-012-8,-1.2000000000000002,0.058,-0.02,99.87,5.0,,0.0,0.0,184.91
2025-08-15T03:13:47.272Z,6,GR86-012-8,-1.2000000000000002,0.052,-0.03,99.87,5.0,,0.0,0.0,
2025-08-15T03:13:47.315Z,6,GR86-012-8,-1.2000000000000002,0.065,-0.046,99.88,5.0,,0.0,0.0,
2025-08-15T03:13:47.358Z,6,GR86-012-8,-1.2000000000000002,0.056,-0.046,99.87,5.0,,0.0,0.0,
2025-08-15T03:13:47.401Z,6,GR86-012-8,-1.2000000000000002,0.055,-0.05,99.88,5.0,6345.0,0.0,0.0,
2025-08-15T03:13:47.446Z,6,GR86-012-8,-1.4,0.059,0.007,99.87,5.0,,0.0,0.0,185.62
2025-08-15T03:13:47.488Z,6,GR86-012-8,-1.4,0.076,0.007,99.88,5.0,,0.0,0.0,
2025-08-15T03:13:47.531Z,6,GR86-012-8,-1.4,0.074,0.003,99.88,5.0,,0.0,0.0,
2025-08-15T03:13:47.575Z,6,GR86-012-8,-1.4,0.072,-0.018,99.89,5.0,,0.0,0.0,
2025-08-15T03:13:47.618Z,6,GR86-012-8,-1.4,0.061,-0.017,99.86,5.0,6364.0,0.0,0.0,
2025-08-15T03:13:47.661Z,6,GR86-012-8,-1.4,0.064,-0.035,99.87,5.0,,0.0,0.0,186.26
2025-08-15T03:13:47.706Z,6,GR86-012-8,-1.4,0.067,-0.048,99.87,5.0,,0.0,0.0,
2025-08-15T03:13:47.749Z,6,GR86-012-8,-1.4,0.071,-0.05,99.89,5.0,,0.0,0.0,
2025-08-15T03:13:47.792Z,6,GR86-012-8,-1.4,0.063,-0.041,99.86,5.0,,0.0,0.0,
2025-08-15T03:13:47.835Z,6,GR86-012-8,-1.4,0.062,-0.023,99.88,5.0,6384.0,0.0,0.0,
2025-08-15T03:13:47.878Z,6,GR86-012-8,-1.5,0.062,-0.026,99.9,5.0,,0.0,0.0,186.9
2025-08-15T03:13:47.921Z,6,GR86-012-8,-1.5,0.075,-0.013,99.87,5.0,,0.0,0.0,
2025-08-15T03:13:47.965Z,6,GR86-012-8,-1.5,0.058,-0.029,99.88,5.0,,0.0,0.0,
2025-08-15T03:13:48.008Z,6,GR86-012-8,-1.5,0.048,-0.052,99.87,5.0,,0.0,0.0,
2025-08-15T03:13:48.051Z,6,GR86-012-8,-1.5,0.047,-0.045,99.87,5.0,6400.0,0.0,0.0,
2025-08-15T03:13:48.096Z,6,GR86-012-8,-1.6,0.057,-0.042,99.88,5.0,,0.0,0.0,188.22
2025-08-15T03:13:48.139Z,6,GR86-012-8,-1.6,0.049,-0.044,99.88,5.0,,0.0,0.0,
2025-08-15T03:13:48.182Z,6,GR86-012-8,-1.6,0.055,-0.048,99.88,5.0,,0.0,0.0,
2025-08-15T03:13:48.225Z,6,GR86-012-8,-1.6,0.054,-0.04,99.87,5.0,,0.0,0.0,
2025-08-15T03:13:48.268Z,6,GR86-012-8,-1.6,0.06,-0.04,99.87,5.0,6419.0,0.0,0.0,
2025-08-15T03:13:48.311Z,6,GR86-012-8,-1.6,0.056,-0.03,99.88,5.0,,0.0,0.0,188.85
2025-08-15T03:13:48.355Z,6,GR86-012-8,-1.8,0.057,-0.011,99.86,5.0,,0.0,0.0,
2025-08-15T03:13:48.397Z,6,GR86-012-8,-2.1,0.069,-0.011,99.88,5.0,,0.0,0.0,
2025-08-15T03:13:48.440Z,6,GR86-012-8,-2.5,0.061,-0.024,99.88,5.0,,0.0,0.0,
2025-08-15T03:13:48.486Z,6,GR86-012-8,-2.9000000000000004,0.053,-0.058,99.87,5.0,6460.0,0.0,0.0,
2025-08-15T03:13:48.529Z,6,GR86-012-8,-3.2,0.063,-0.052,99.88,5.0,,0.0,0.0,189.37
2025-08-15T03:13:48.572Z,6,GR86-012-8,-3.2,0.068,-0.046,99.88,5.0,,0.0,0.0,
2025-08-15T03:13:48.615Z,6,GR86-012-8,-3.2,0.065,-0.046,99.86,5.0,,0.0,0.0,
2025-08-15T03:13:48.658Z,6,GR86-012-8,-3.2,0.067,-0.059,99.87,5.0,,0.0,0.0,
2025-08-15T03:13:48.701Z,6,GR86-012-8,-3.2,0.074,-0.065,99.87,5.0,6479.0,0.0,0.0,
2025-08-15T03:13:48.745Z,6,GR86-012-8,-3.2,0.048,-0.048,99.88,5.0,,0.0,0.0,190.01
2025-08-15T03:13:48.788Z,6,GR86-012-8,-3.2,0.06,-0.061,99.88,5.0,,0.0,0.0,
2025-08-15T03:13:48.831Z,6,GR86-012-8,-3.2,0.052,-0.071,99.88,5.0,,0.0,0.0,
2025-08-15T03:13:48.875Z,6,GR86-012-8,-3.2,0.052,-0.074,99.88,5.0,,0.0,0.0,
2025-08-15T03:13:48.918Z,6,GR86-012-8,-3.2,0.057,-0.087,99.9,5.0,6496.0,0.0,0.0,
2025-08-15T03:13:48.961Z,6,GR86-012-8,-3.3000000000000003,0.061,-0.102,99.87,5.0,,0.0,0.0,190.45
2025-08-15T03:13:49.006Z,6,GR86-012-8,-3.3000000000000003,0.038,-0.091,99.88,5.0,,0.0,0.0,
2025-08-15T03:13:49.048Z,6,GR86-012-8,-3.2,0.039,-0.095,99.88,5.0,,0.0,0.0,
2025-08-15T03:13:49.091Z,6,GR86-012-8,-2.8000000000000003,0.041,-0.096,99.87,5.0,,0.0,0.0,
2025-08-15T03:13:49.136Z,6,GR86-012-8,-2.8000000000000003,0.043,-0.085,99.89,5.0,6504.0,0.0,0.0,
2025-08-15T03:13:49.178Z,6,GR86-012-8,-2.7,0.046,-0.08,99.89,5.0,,0.0,0.0,191.21
2025-08-15T03:13:49.221Z,6,GR86-012-8,-2.5,0.048,-0.078,99.87,5.0,,0.0,0.0,
2025-08-15T03:13:49.265Z,6,GR86-012-8,-1.7000000000000002,0.059,-0.079,99.88,5.0,,0.0,0.0,
2025-08-15T03:13:49.308Z,6,GR86-012-8,-1.3,0.048,-0.073,99.87,5.0,,0.0,0.0,
2025-08-15T03:13:49.351Z,6,GR86-012-8,-1.3,0.045,-0.069,99.89,5.0,6528.0,0.0,0.0,
2025-08-15T03:13:49.396Z,6,GR86-012-8,-1.3,0.032,-0.078,99.89,5.0,,0.0,0.0,191.53
2025-08-15T03:13:49.439Z,6,GR86-012-8,-1.4,0.033,-0.064,99.86,5.0,,0.0,0.0,
2025-08-15T03:13:49.482Z,6,GR86-012-8,-1.4,0.045,-0.062,99.87,5.0,,0.0,0.0,
2025-08-15T03:13:49.525Z,6,GR86-012-8,-1.4,0.068,-0.049,99.87,5.0,,0.0,0.0,
2025-08-15T03:13:49.568Z,6,GR86-012-8,-1.4,0.062,-0.04,99.88,5.0,6557.0,0.0,0.0,
2025-08-15T03:13:49.611Z,6,GR86-012-8,-1.4,0.043,-0.02,99.89,5.0,,0.0,0.0,192.01
2025-08-15T03:13:49.656Z,6,GR86-012-8,-1.3,0.043,-0.027,99.87,5.0,,0.0,0.0,
2025-08-15T03:13:49.699Z,6,GR86-012-8,-1.1,0.038,-0.016,99.86,5.0,,0.0,0.0,
2025-08-15T03:13:49.742Z,6,GR86-012-8,-0.9,0.048,-0.012,99.87,5.0,,0.0,0.0,
2025-08-15T03:13:49.786Z,6,GR86-012-8,-0.9,0.068,0.003,99.88,5.0,6574.0,0.0,0.0,
2025-08-15T03:13:49.828Z,6,GR86-012-8,-0.9,0.07,-0.019,99.88,5.0,,0.0,0.0,192.45
2025-08-15T03:13:49.871Z,6,GR86-012-8,-0.9,0.071,-0.018,99.87,5.0,,0.0,0.0,
2025-08-15T03:13:49.915Z,6,GR86-012-8,-1.1,0.06,0.006,99.88,5.0,,0.0,0.0,
2025-08-15T03:13:49.957Z,6,GR86-012-8,-1.2000000000000002,0.05,-0.022,99.86,5.0,,0.0,0.0,
2025-08-15T03:13:50.000Z,6,GR86-012-8,-1.2000000000000002,0.051,-0.008,99.88,5.0,6589.0,0.0,0.0,
2025-08-15T03:13:50.045Z,6,GR86-012-8,-1.2000000000000002,0.063,0.002,99.87,5.0,,0.0,0.0,192.96
2025-08-15T03:13:50.088Z,6,GR86-012-8,-1.4,0.078,0.045,99.88,5.0,,0.0,0.0,
2025-08-15T03:13:50.131Z,6,GR86-012-8,-1.5,0.054,0.017,99.88,5.0,,0.0,0.0,
2025-08-15T03:13:50.175Z,6,GR86-012-8,-1.7000000000000002,0.061,-0.017,99.87,5.0,,0.0,0.0,
2025-08-15T03:13:50.217Z,6,GR86-012-8,-2.2,0.068,-0.015,99.86,5.0,6595.0,0.0,0.0,
2025-08-15T03:13:50.260Z,6,GR86-012-8,-2.7,0.061,-0.019,99.87,5.0,,0.0,0.0,193.46
2025-08-15T03:13:50.305Z,6,GR86-012-8,-2.9000000000000004,0.056,-0.016,99.87,5.0,,0.0,0.0,
2025-08-15T03:13:50.348Z,6,GR86-012-8,-2.9000000000000004,0.06,-0.023,99.86,5.0,,0.0,0.0,
2025-08-15T03:13:50.391Z,6,GR86-012-8,-3.2,0.061,-0.046,99.87,5.0,,0.0,0.0,
2025-08-15T03:13:50.435Z,6,GR86-012-8,-3.9,0.06,-0.052,99.86,5.0,6620.0,0.0,0.0,
2025-08-15T03:13:50.477Z,6,GR86-012-8,-4.4,0.058,-0.066,99.88,5.0,,0.0,0.0,193.85
2025-08-15T03:13:50.520Z,6,GR86-012-8,-4.4,0.047,-0.065,99.88,5.0,,0.0,0.0,
2025-08-15T03:13:50.565Z,6,GR86-012-8,-4.6000000000000005,0.06,-0.088,99.88,5.0,,0.0,0.0,
2025-08-15T03:13:50.608Z,6,GR86-012-8,-5.1000000000000005,0.065,-0.08,99.7,5.0,,0.0,0.0,
2025-08-15T03:13:50.651Z,6,GR86-012-8,-5.4,0.059,-0.08,82.99,5.0,6632.0,0.0,0.0,
2025-08-15T03:13:50.696Z,6,GR86-012-8,-5.4,0.055,-0.095,74.96000000000001,5.0,,0.0,0.0,194.84
2025-08-15T03:13:50.739Z,6,GR86-012-8,-5.300000000000001,0.065,-0.122,69.4,5.0,,0.0,0.0,
2025-08-15T03:13:50.782Z,6,GR86-012-8,-4.4,0.063,-0.129,60.0,5.0,,0.0,0.0,
2025-08-15T03:13:50.825Z,6,GR86-012-8,-1.8,0.037,-0.157,50.14,5.0,,0.0,0.0,
2025-08-15T03:13:50.868Z,6,GR86-012-8,-0.5,0.026,-0.154,41.37,5.0,6653.0,0.0,0.0,
2025-08-15T03:13:50.911Z,6,GR86-012-8,-0.3,0.035,-0.133,38.24,5.0,,0.0,0.0,195.34
2025-08-15T03:13:50.955Z,6,GR86-012-8,-0.5,0.011,-0.105,37.37,5.0,,0.0,0.0,
2025-08-15T03:13:50.998Z,6,GR86-012-8,-0.5,0.005,-0.081,36.35,5.0,,0.0,0.0,
2025-08-15T03:13:51.041Z,6,GR86-012-8,-0.5,0.001,-0.063,34.35,5.0,,0.0,0.0,
2025-08-15T03:13:51.086Z,6,GR86-012-8,-0.5,-0.01,-0.035,25.61,5.0,6636.0,0.0,0.0,
2025-08-15T03:13:51.129Z,6,GR86-012-8,-0.4,-0.012,-0.044,3.63,5.0,,0.0,0.0,195.71
2025-08-15T03:13:51.172Z,6,GR86-012-8,-0.2,-0.018,-0.038,3.79,5.0,,0.0,0.0,
2025-08-15T03:13:51.215Z,6,GR86-012-8,-0.1,-0.147,0.009,3.67,5.0,,0.0,0.0,
2025-08-15T03:13:51.258Z,6,GR86-012-8,-0.1,-0.156,0.026,3.51,5.0,,0.0,0.0,
2025-08-15T03:13:51.301Z,6,GR86-012-8,-0.1,-0.357,0.028,3.31,5.0,6348.0,0.0,0.0,
2025-08-15T03:13:51.346Z,6,GR86-012-8,-0.1,-0.169,0.037,3.12,5.0,,0.0,0.0,195.83
2025-08-15T03:13:51.388Z,6,GR86-012-8,-0.1,-0.199,0.016,2.99,5.0,,0.0,0.0,
2025-08-15T03:13:51.431Z,6,GR86-012-8,-0.1,-0.228,0.019,2.89,5.0,,0.0,0.0,
2025-08-15T03:13:51.475Z,6,GR86-012-8,-0.1,-0.202,0.022,2.77,5.0,,2.245,2.455,
2025-08-15T03:13:51.518Z,6,GR86-012-8,-0.1,-0.194,0.027,2.65,5.0,6509.0,12.21,12.24,
2025-08-15T03:13:51.561Z,6,GR86-012-8,-0.1,-0.431,0.036,2.58,5.0,,23.3,22.815,195.05
2025-08-15T03:13:51.606Z,6,GR86-012-8,-0.3,-0.805,0.009,2.51,5.0,,40.21,39.31,
2025-08-15T03:13:51.649Z,6,GR86-012-8,-1.4,-0.954,0.017,2.48,5.0,,48.8,47.705,
2025-08-15T03:13:51.692Z,6,GR86-012-8,-2.5,-1.075,0.014,2.45,5.0,,55.425,54.235,
2025-08-15T03:13:51.735Z,6,GR86-012-8,-2.5,-1.117,0.017,2.45,5.0,6239.0,60.08,58.845,
2025-08-15T03:13:51.778Z,6,GR86-012-8,-2.0,-1.119,0.007,2.45,5.0,,62.275,61.33,191.36
2025-08-15T03:13:51.821Z,6,GR86-012-8,-0.2,-1.105,-0.004,2.48,5.0,,62.9,62.125,
2025-08-15T03:13:51.865Z,6,GR86-012-8,3.3000000000000003,-1.035,0.011,2.48,5.0,,64.87,64.0,
2025-08-15T03:13:51.908Z,6,GR86-012-8,0.6000000000000001,-0.982,0.013,2.46,5.0,,64.99,64.43,
2025-08-15T03:13:51.951Z,6,GR86-012-8,-5.300000000000001,-0.912,0.012,2.48,5.0,5629.0,58.705,59.59,
2025-08-15T03:13:51.996Z,6,GR86-012-8,-6.4,-0.894,0.058,2.47,5.0,,53.96,55.575,179.41
2025-08-15T03:13:52.039Z,6,GR86-012-8,-2.8000000000000003,-1.095,0.076,2.48,5.0,,51.15,51.535,
2025-08-15T03:13:52.082Z,6,GR86-012-8,-0.9,-0.9,0.007,2.47,5.0,,48.235,49.17,
2025-08-15T03:13:52.129Z,6,GR86-012-8,-4.1000000000000005,-0.861,0.022,2.48,5.0,,48.33,49.17,
2025-08-15T03:13:52.172Z,6,GR86-012-8,-4.6000000000000005,-0.8230000000000001,0.055,2.48,5.0,5744.0,46.77,48.235,
2025-08-15T03:13:52.215Z,6,GR86-012-8,-5.4,-0.764,-0.126,2.46,5.0,,42.18,43.675,168.55
2025-08-15T03:13:52.258Z,6,GR86-012-8,-6.300000000000001,-0.911,-0.047,2.47,5.0,,40.18,41.25,
2025-08-15T03:13:52.301Z,6,GR86-012-8,-5.1000000000000005,-1.068,-0.065,2.45,5.0,,39.31,40.3,
2025-08-15T03:13:52.345Z,6,GR86-012-8,-0.4,-0.923,-0.117,2.48,5.0,,40.21,40.59,
2025-08-15T03:13:52.388Z,6,GR86-012-8,0.9,-0.941,-0.098,2.47,5.0,5274.0,41.34,41.43,
2025-08-15T03:13:52.431Z,6,GR86-012-8,1.3,-0.941,-0.099,23.03,5.0,,42.055,42.18,166.39
2025-08-15T03:13:52.475Z,6,GR86-012-8,1.5,-0.891,-0.11,66.94,5.0,,41.83,42.18,
2025-08-15T03:13:52.518Z,6,GR86-012-8,1.3,-0.858,-0.126,99.44,5.0,,39.22,40.06,
2025-08-15T03:13:52.561Z,6,GR86-012-8,1.2000000000000002,-0.753,-0.138,75.89,4.0,,36.96,37.98,
2025-08-15T03:13:52.605Z,6,GR86-012-8,-0.9,-0.923,-0.103,4.03,4.0,5376.0,36.84,37.98,
2025-08-15T03:13:52.648Z,6,GR86-012-8,-0.9,-0.799,-0.172,3.1,4.0,,36.15,36.9,163.77
2025-08-15T03:13:52.691Z,6,GR86-012-8,1.1,-0.874,-0.203,2.96,4.0,,36.12,36.09,
2025-08-15T03:13:52.736Z,6,GR86-012-8,2.0,-0.8190000000000001,-0.087,2.8000000000000003,4.0,,36.99,36.99,
2025-08-15T03:13:52.778Z,6,GR86-012-8,2.0,-0.714,-0.121,2.71,4.0,,36.67,37.02,
2025-08-15T03:13:52.821Z,6,GR86-012-8,2.0,-0.809,-0.102,2.65,4.0,5850.0,37.42,37.585,
2025-08-15T03:13:52.866Z,6,GR86-012-8,2.4000000000000004,-0.883,-0.089,2.6,4.0,,39.75,39.555,157.67000000000002
2025-08-15T03:13:52.909Z,6,GR86-012-8,2.4000000000000004,-0.918,-0.06,2.58,4.0,,42.715,42.27,
2025-08-15T03:13:52.952Z,6,GR86-012-8,2.4000000000000004,-0.894,-0.057,2.57,4.0,,46.3,45.84,
2025-08-15T03:13:52.996Z,6,GR86-012-8,0.2,-0.905,-0.094,2.57,4.0,,50.31,49.55,
2025-08-15T03:13:53.039Z,6,GR86-012-8,-4.7,-0.924,-0.062,2.5500000000000003,4.0,5710.0,52.77,52.465,
2025-08-15T03:13:53.082Z,6,GR86-012-8,-8.6,-0.945,-0.04,2.54,4.0,,52.89,53.03,151.95000000000002
2025-08-15T03:13:53.125Z,6,GR86-012-8,-8.4,-1.089,-0.074,2.5500000000000003,4.0,,54.98,54.525,
2025-08-15T03:13:53.168Z,6,GR86-012-8,-5.7,-1.129,-0.073,2.54,4.0,,57.59,56.69,
2025-08-15T03:13:53.211Z,6,GR86-012-8,-3.7,-1.13,-0.081,2.54,4.0,,61.115,59.985,
2025-08-15T03:13:53.256Z,6,GR86-012-8,-3.7,-1.107,-0.054,2.51,4.0,5416.0,61.88,61.39,
2025-08-15T03:13:53.299Z,6,GR86-012-8,-4.0,-1.026,-0.05,2.52,4.0,,62.370000000000005,61.88,137.61
2025-08-15T03:13:53.342Z,6,GR86-012-8,-4.0,-0.993,-0.04,2.53,4.0,,65.115,64.33500000000001,
2025-08-15T03:13:53.386Z,6,GR86-012-8,-4.6000000000000005,-0.917,-0.188,2.51,4.0,,61.515,62.75,
2025-08-15T03:13:53.429Z,6,GR86-012-8,-4.3,-1.095,-0.115,14.86,4.0,,61.21,62.125,
2025-08-15T03:13:53.472Z,6,GR86-012-8,-2.5,-1.141,-0.111,58.19,4.0,5084.0,63.375,63.525,
2025-08-15T03:13:53.515Z,6,GR86-012-8,-2.3000000000000003,-1.108,-0.092,94.31,3.0,,67.785,68.775,129.39
2025-08-15T03:13:53.558Z,6,GR86-012-8,-3.2,-1.008,-0.093,40.65,3.0,,66.245,67.175,
2025-08-15T03:13:53.601Z,6,GR86-012-8,-3.0,-1.098,-0.035,3.73,3.0,,67.69500000000001,68.93,
2025-08-15T03:13:53.645Z,6,GR86-012-8,-0.7000000000000001,-0.94,-0.116,2.86,3.0,,68.9,68.99,
2025-08-15T03:13:53.731Z,6,GR86-012-8,0.8,-0.704,-0.081,2.74,3.0,5038.0,52.31,53.61,121.17
2025-08-15T03:13:53.775Z,6,GR86-012-8,1.7000000000000002,-0.87,-0.051,2.73,3.0,,46.65,47.155,
2025-08-15T03:13:53.818Z,6,GR86-012-8,1.0,-0.993,-0.044,2.71,3.0,,47.155,47.96,
2025-08-15T03:13:53.861Z,6,GR86-012-8,-1.1,-0.964,-0.073,2.71,3.0,,47.185,47.765,
2025-08-15T03:13:53.905Z,6,GR86-012-8,-1.7000000000000002,-1.04,-0.099,2.64,3.0,5292.0,48.59,48.39,
2025-08-15T03:13:53.948Z,6,GR86-012-8,-1.7000000000000002,-1.032,-0.108,2.61,3.0,,48.865,49.135,115.54
2025-08-15T03:13:53.991Z,6,GR86-012-8,-1.7000000000000002,-0.995,-0.083,2.57,3.0,,44.13,45.245,
2025-08-15T03:13:54.035Z,6,GR86-012-8,-1.8,-0.868,-0.105,2.51,3.0,,37.495,38.93,
2025-08-15T03:13:54.121Z,6,GR86-012-8,-1.8,-0.789,-0.106,2.51,3.0,4973.0,31.235,32.535000000000004,
2025-08-15T03:13:54.165Z,6,GR86-012-8,-4.5,-0.639,-0.136,2.48,3.0,,21.685,22.615,112.15
2025-08-15T03:13:54.208Z,6,GR86-012-8,-5.4,-0.579,-0.134,2.45,3.0,,21.685,22.125,
2025-08-15T03:13:54.251Z,6,GR86-012-8,-6.2,-0.621,-0.135,2.45,3.0,,22.28,22.37,
2025-08-15T03:13:54.296Z,6,GR86-012-8,-6.9,-0.624,-0.149,2.45,3.0,,23.685,23.865,
2025-08-15T03:13:54.339Z,6,GR86-012-8,-7.5,-0.655,-0.145,2.45,3.0,4928.0,26.26,26.08,
2025-08-15T03:13:54.382Z,6,GR86-012-8,-7.5,-0.724,-0.153,2.43,3.0,,29.56,29.39,108.47
2025-08-15T03:13:54.425Z,6,GR86-012-8,-6.5,-0.774,-0.162,2.44,3.0,,31.39,31.39,
2025-08-15T03:13:54.468Z,6,GR86-012-8,-6.5,-0.769,-0.15,2.42,3.0,,30.795,31.145,
2025-08-15T03:13:54.556Z,6,GR86-012-8,-7.800000000000001,-0.776,-0.156,2.42,3.0,4677.0,30.43,31.025,
2025-08-15T03:13:54.598Z,6,GR86-012-8,-7.300000000000001,-0.764,-0.175,2.42,3.0,,31.055,31.48,104.63
2025-08-15T03:13:54.641Z,6,GR86-012-8,-7.800000000000001,-0.7000000000000001,-0.18,2.42,3.0,,25.515,26.505,
2025-08-15T03:13:54.686Z,6,GR86-012-8,-7.800000000000001,-0.634,-0.221,2.42,3.0,,20.725,21.685,
2025-08-15T03:13:54.729Z,6,GR86-012-8,-7.800000000000001,-0.602,-0.241,2.43,3.0,,18.525,19.365,
2025-08-15T03:13:54.772Z,6,GR86-012-8,-7.800000000000001,-0.544,-0.227,2.43,3.0,4438.0,16.25,17.12,
2025-08-15T03:13:54.816Z,6,GR86-012-8,-7.800000000000001,-0.499,-0.253,2.43,3.0,,16.115000000000002,16.97,99.48
2025-08-15T03:13:54.859Z,6,GR86-012-8,-7.800000000000001,-0.503,-0.22,2.43,3.0,,15.75,16.345,
2025-08-15T03:13:54.902Z,6,GR86-012-8,-7.800000000000001,-0.5,-0.231,2.44,3.0,,16.085,16.68,
2025-08-15T03:13:54.946Z,6,GR86-012-8,-7.800000000000001,-0.499,-0.197,2.43,3.0,,15.335,15.96,
2025-08-15T03:13:54.988Z,6,GR86-012-8,-7.800000000000001,-0.497,-0.209,2.44,3.0,4355.0,11.55,12.5,
2025-08-15T03:13:55.031Z,6,GR86-012-8,-7.800000000000001,-0.329,-0.182,2.45,3.0,,5.705,6.485,96.39
2025-08-15T03:13:55.075Z,6,GR86-012-8,-7.9,-0.194,-0.211,2.45,3.0,,0.0,1.955,
2025-08-15T03:13:55.118Z,6,GR86-012-8,-7.9,-0.141,-0.188,2.44,3.0,,0.0,0.0,
2025-08-15T03:13:55.161Z,6,GR86-012-8,-7.9,-0.141,-0.192,2.44,3.0,,0.0,0.0,
2025-08-15T03:13:55.206Z,6,GR86-012-8,-9.1,-0.124,-0.177,2.45,3.0,4229.0,0.0,0.0,
2025-08-15T03:13:55.249Z,6,GR86-012-8,-10.0,-0.128,-0.155,10.67,3.0,,0.0,0.0,93.01
2025-08-15T03:13:55.292Z,6,GR86-012-8,-11.4,-0.128,-0.163,19.51,3.0,,0.0,0.0,
2025-08-15T03:13:55.335Z,6,GR86-012-8,-13.5,-0.133,-0.145,19.82,3.0,,0.0,0.0,
2025-08-15T03:13:55.378Z,6,GR86-012-8,-16.400000000000002,-0.079,-0.187,20.56,3.0,,0.0,0.0,
2025-08-15T03:13:55.421Z,6,GR86-012-8,-19.700000000000003,-0.078,-0.184,20.98,3.0,4220.0,0.0,0.0,
2025-08-15T03:13:55.465Z,6,GR86-012-8,-24.8,0.048,-0.244,21.29,3.0,,0.0,0.0,92.68
2025-08-15T03:13:55.508Z,6,GR86-012-8,-27.700000000000003,0.173,-0.278,21.42,3.0,,0.0,0.0,
2025-08-15T03:13:55.551Z,6,GR86-012-8,-30.200000000000003,0.083,-0.316,21.58,3.0,,0.0,0.0,
2025-08-15T03:13:55.596Z,6,GR86-012-8,-32.1,-0.011,-0.331,21.72,3.0,,0.0,0.0,
2025-08-15T03:13:55.639Z,6,GR86-012-8,-33.4,0.002,-0.383,21.84,3.0,4423.0,0.0,0.0,
2025-08-15T03:13:55.682Z,6,GR86-012-8,-35.0,0.055,-0.425,19.18,3.0,,0.0,0.0,92.14
2025-08-15T03:13:55.728Z,6,GR86-012-8,-41.0,0.07,-0.457,6.4,3.0,,0.0,0.0,
2025-08-15T03:13:55.771Z,6,GR86-012-8,-45.6,0.033,-0.523,4.17,3.0,,0.0,0.0,
2025-08-15T03:13:55.815Z,6,GR86-012-8,-49.1,-0.029,-0.537,4.05,3.0,,0.0,0.0,
2025-08-15T03:13:55.857Z,6,GR86-012-8,-52.1,-0.102,-0.593,3.91,3.0,4350.0,0.0,0.0,
2025-08-15T03:13:55.900Z,6,GR86-012-8,-54.7,-0.101,-0.65,3.66,3.0,,0.0,0.0,92.86
2025-08-15T03:13:55.945Z,6,GR86-012-8,-57.5,-0.305,-0.6950000000000001,3.54,3.0,,0.0,0.0,
2025-08-15T03:13:55.988Z,6,GR86-012-8,-57.900000000000006,-0.211,-0.739,3.53,3.0,,0.0,0.0,
2025-08-15T03:13:56.031Z,6,GR86-012-8,-57.900000000000006,-0.13,-0.78,3.56,3.0,,0.0,0.0,
2025-08-15T03:13:56.075Z,6,GR86-012-8,-57.8,-0.138,-0.788,7.98,3.0,4134.0,0.0,0.0,
2025-08-15T03:13:56.118Z,6,GR86-012-8,-57.8,-0.161,-0.806,19.99,3.0,,0.0,0.0,93.46
2025-08-15T03:13:56.161Z,6,GR86-012-8,-57.2,-0.179,-0.844,20.27,3.0,,0.0,0.0,
2025-08-15T03:13:56.205Z,6,GR86-012-8,-53.6,-0.107,-0.865,21.31,3.0,,0.0,0.0,
2025-08-15T03:13:56.248Z,6,GR86-012-8,-50.3,-0.116,-0.895,23.29,3.0,,0.0,0.0,
2025-08-15T03:13:56.291Z,6,GR86-012-8,-46.8,0.006,-0.891,23.41,3.0,4373.0,0.0,0.0,
2025-08-15T03:13:56.335Z,6,GR86-012-8,-44.400000000000006,0.142,-0.868,23.81,3.0,,0.0,0.0,92.85
2025-08-15T03:13:56.378Z,6,GR86-012-8,-43.3,0.089,-0.8180000000000001,26.63,3.0,,0.0,0.0,
2025-08-15T03:13:56.421Z,6,GR86-012-8,-43.3,0.042,-0.8250000000000001,27.37,3.0,,0.0,0.0,
2025-08-15T03:13:56.465Z,6,GR86-012-8,-43.3,0.028,-0.8310000000000001,27.63,3.0,,0.0,0.0,
2025-08-15T03:13:56.508Z,6,GR86-012-8,-42.6,0.062,-0.8210000000000001,28.37,3.0,4310.0,0.0,0.0,
2025-08-15T03:13:56.551Z,6,GR86-012-8,-42.400000000000006,0.091,-0.84,28.93,3.0,,0.0,0.0,92.43
2025-08-15T03:13:56.597Z,6,GR86-012-8,-43.1,0.089,-0.791,29.08,3.0,,0.0,0.0,
2025-08-15T03:13:56.639Z,6,GR86-012-8,-44.400000000000006,0.077,-0.762,29.16,3.0,,0.0,0.0,
2025-08-15T03:13:56.682Z,6,GR86-012-8,-45.2,0.069,-0.719,29.42,3.0,,0.0,0.0,
2025-08-15T03:13:56.725Z,6,GR86-012-8,-48.7,0.084,-0.725,29.63,3.0,4326.0,0.0,0.0,
2025-08-15T03:13:56.768Z,6,GR86-012-8,-53.400000000000006,0.074,-0.718,29.56,3.0,,0.0,0.0,92.32
2025-08-15T03:13:56.811Z,6,GR86-012-8,-58.6,0.069,-0.732,29.44,3.0,,0.0,0.0,
2025-08-15T03:13:56.856Z,6,GR86-012-8,-62.2,0.067,-0.743,29.03,3.0,,0.0,0.0,
2025-08-15T03:13:56.899Z,6,GR86-012-8,-63.8,0.062,-0.745,28.37,3.0,,0.0,0.0,
2025-08-15T03:13:56.942Z,6,GR86-012-8,-63.8,0.057,-0.751,28.33,3.0,4367.0,0.0,0.0,
2025-08-15T03:13:56.986Z,6,GR86-012-8,-60.5,0.064,-0.792,29.71,3.0,,0.0,0.0,92.32
2025-08-15T03:13:57.028Z,6,GR86-012-8,-57.7,0.107,-0.748,32.43,3.0,,0.0,0.0,
2025-08-15T03:13:57.071Z,6,GR86-012-8,-55.400000000000006,0.049,-0.787,34.12,3.0,,0.0,0.0,
2025-08-15T03:13:57.115Z,6,GR86-012-8,-54.8,0.116,-0.747,34.54,3.0,,0.0,0.0,
2025-08-15T03:13:57.157Z,6,GR86-012-8,-54.8,0.117,-0.732,35.24,3.0,4402.0,0.0,0.0,
2025-08-15T03:13:57.200Z,6,GR86-012-8,-54.8,0.067,-0.8150000000000001,37.35,3.0,,0.0,0.0,93.9
2025-08-15T03:13:57.245Z,6,GR86-012-8,-55.2,0.091,-0.836,37.85,3.0,,0.0,0.0,
2025-08-15T03:13:57.288Z,6,GR86-012-8,-56.900000000000006,0.137,-0.804,38.14,3.0,,0.0,0.0,
2025-08-15T03:13:57.331Z,6,GR86-012-8,-59.2,0.127,-0.796,38.22,3.0,,0.0,0.0,
2025-08-15T03:13:57.375Z,6,GR86-012-8,-60.2,0.118,-0.78,38.5,3.0,4475.0,0.0,0.0,
2025-08-15T03:13:57.417Z,6,GR86-012-8,-59.6,0.11,-0.793,39.2,3.0,,0.0,0.0,94.73
2025-08-15T03:13:57.460Z,6,GR86-012-8,-57.7,0.109,-0.8220000000000001,40.33,3.0,,0.0,0.0,
2025-08-15T03:13:57.505Z,6,GR86-012-8,-55.6,0.107,-0.8150000000000001,46.33,3.0,,0.0,0.0,
2025-08-15T03:13:57.548Z,6,GR86-012-8,-55.400000000000006,0.124,-0.839,50.51,3.0,,0.0,0.0,
2025-08-15T03:13:57.591Z,6,GR86-012-8,-56.0,0.134,-0.802,53.25,3.0,4510.0,0.0,0.0,
2025-08-15T03:13:57.635Z,6,GR86-012-8,-56.5,0.159,-0.8,54.32,3.0,,0.0,0.0,95.52
2025-08-15T03:13:57.678Z,6,GR86-012-8,-56.8,0.173,-0.8190000000000001,55.05,3.0,,0.0,0.0,
2025-08-15T03:13:57.765Z,6,GR86-012-8,-56.8,0.158,-0.8140000000000001,56.82,3.0,,0.0,0.0,
2025-08-15T03:13:57.808Z,6,GR86-012-8,-56.8,0.167,-0.8240000000000001,73.83,3.0,4579.0,0.0,0.0,
2025-08-15T03:13:57.851Z,6,GR86-012-8,-56.8,0.176,-0.8130000000000001,90.14,3.0,,0.0,0.0,96.51
2025-08-15T03:13:57.896Z,6,GR86-012-8,-56.8,0.167,-0.794,99.92,3.0,,0.0,0.0,
2025-08-15T03:13:57.939Z,6,GR86-012-8,-56.900000000000006,0.171,-0.8130000000000001,99.8,3.0,,0.0,0.0,
2025-08-15T03:13:57.982Z,6,GR86-012-8,-57.2,0.166,-0.806,99.82,3.0,,0.0,0.0,
2025-08-15T03:13:58.025Z,6,GR86-012-8,-57.3,0.168,-0.803,99.81,3.0,4625.0,0.0,0.0,
2025-08-15T03:13:58.068Z,6,GR86-012-8,-57.3,0.17,-0.8240000000000001,99.82,3.0,,0.0,0.0,97.53
2025-08-15T03:13:58.111Z,6,GR86-012-8,-57.3,0.169,-0.8180000000000001,99.82,3.0,,0.0,0.0,
2025-08-15T03:13:58.155Z,6,GR86-012-8,-57.1,0.153,-0.844,99.81,3.0,,0.0,0.0,
2025-08-15T03:13:58.198Z,6,GR86-012-8,-56.2,0.13,-0.867,99.81,3.0,,0.0,0.0,
2025-08-15T03:13:58.241Z,6,GR86-012-8,-54.5,0.146,-0.869,99.82,3.0,4697.0,0.0,0.0,
2025-08-15T03:13:58.286Z,6,GR86-012-8,-51.900000000000006,0.174,-0.851,99.82,3.0,,0.0,0.0,99.94
2025-08-15T03:13:58.329Z,6,GR86-012-8,-50.7,0.155,-0.8310000000000001,99.82,3.0,,0.0,0.0,
2025-08-15T03:13:58.372Z,6,GR86-012-8,-49.8,0.143,-0.8220000000000001,99.81,3.0,,0.0,0.0,
2025-08-15T03:13:58.415Z,6,GR86-012-8,-48.400000000000006,0.143,-0.833,99.82,3.0,,0.0,0.0,
2025-08-15T03:13:58.458Z,6,GR86-012-8,-46.6,0.156,-0.85,99.82,3.0,4764.0,0.0,0.0,
2025-08-15T03:13:58.501Z,6,GR86-012-8,-44.6,0.163,-0.8320000000000001,99.82,3.0,,0.0,0.0,101.05
2025-08-15T03:13:58.546Z,6,GR86-012-8,-42.1,0.164,-0.781,99.82,3.0,,0.0,0.0,
2025-08-15T03:13:58.588Z,6,GR86-012-8,-40.900000000000006,0.174,-0.806,99.84,3.0,,0.0,0.0,
2025-08-15T03:13:58.631Z,6,GR86-012-8,-39.900000000000006,0.146,-0.799,99.82,3.0,,0.0,0.0,
2025-08-15T03:13:58.675Z,6,GR86-012-8,-39.1,0.166,-0.851,99.83,3.0,4814.0,0.0,0.0,
2025-08-15T03:13:58.718Z,6,GR86-012-8,-38.2,0.183,-0.844,99.82,3.0,,0.0,0.0,102.08
2025-08-15T03:13:58.761Z,6,GR86-012-8,-37.0,0.162,-0.8300000000000001,99.82,3.0,,0.0,0.0,
2025-08-15T03:13:58.806Z,6,GR86-012-8,-34.6,0.174,-0.8160000000000001,99.8,3.0,,0.0,0.0,
2025-08-15T03:13:58.849Z,6,GR86-012-8,-33.1,0.158,-0.799,99.82,3.0,,0.0,0.0,
2025-08-15T03:13:58.892Z,6,GR86-012-8,-32.4,0.155,-0.761,99.81,3.0,4892.0,0.0,0.0,
2025-08-15T03:13:58.936Z,6,GR86-012-8,-32.1,0.173,-0.745,99.82,3.0,,0.0,0.0,103.35
2025-08-15T03:13:58.978Z,6,GR86-012-8,-32.0,0.172,-0.709,99.83,3.0,,0.0,0.0,
2025-08-15T03:13:59.021Z,6,GR86-012-8,-31.700000000000003,0.174,-0.714,99.83,3.0,,0.0,0.0,
2025-08-15T03:13:59.065Z,6,GR86-012-8,-30.200000000000003,0.168,-0.665,99.81,3.0,,0.0,0.0,
2025-08-15T03:13:59.108Z,6,GR86-012-8,-29.200000000000003,0.18,-0.64,99.83,3.0,4932.0,0.0,0.0,
2025-08-15T03:13:59.151Z,6,GR86-012-8,-28.6,0.189,-0.617,99.82,3.0,,0.0,0.0,103.53
2025-08-15T03:13:59.196Z,6,GR86-012-8,-28.200000000000003,0.17,-0.581,99.82,3.0,,0.0,0.0,
2025-08-15T03:13:59.239Z,6,GR86-012-8,-28.0,0.167,-0.584,99.81,3.0,,0.0,0.0,
2025-08-15T03:13:59.282Z,6,GR86-012-8,-27.9,0.183,-0.547,99.82,3.0,,0.0,0.0,
2025-08-15T03:13:59.325Z,6,GR86-012-8,-27.8,0.174,-0.527,99.82,3.0,4992.0,0.0,0.0,
2025-08-15T03:13:59.368Z,6,GR86-012-8,-27.8,0.162,-0.532,99.83,3.0,,0.0,0.0,104.79
2025-08-15T03:13:59.411Z,6,GR86-012-8,-27.6,0.168,-0.531,99.83,3.0,,0.0,0.0,
2025-08-15T03:13:59.455Z,6,GR86-012-8,-26.6,0.178,-0.52,99.81,3.0,,0.0,0.0,
2025-08-15T03:13:59.497Z,6,GR86-012-8,-25.5,0.193,-0.516,99.82,3.0,,0.0,0.0,
2025-08-15T03:13:59.540Z,6,GR86-012-8,-25.1,0.18,-0.487,99.82,3.0,5049.0,0.0,0.0,
2025-08-15T03:13:59.586Z,6,GR86-012-8,-25.0,0.177,-0.477,99.82,3.0,,0.0,0.0,106.06
2025-08-15T03:13:59.629Z,6,GR86-012-8,-25.0,0.166,-0.484,99.84,3.0,,0.0,0.0,
2025-08-15T03:13:59.672Z,6,GR86-012-8,-24.9,0.172,-0.485,99.82,3.0,,0.0,0.0,
2025-08-15T03:13:59.715Z,6,GR86-012-8,-24.4,0.183,-0.507,99.82,3.0,,0.0,0.0,
2025-08-15T03:13:59.758Z,6,GR86-012-8,-23.700000000000003,0.197,-0.51,99.81,3.0,5114.0,0.0,0.0,
2025-08-15T03:13:59.801Z,6,GR86-012-8,-22.700000000000003,0.186,-0.487,99.81,3.0,,0.0,0.0,107.4
2025-08-15T03:13:59.845Z,6,GR86-012-8,-21.1,0.177,-0.478,99.82,3.0,,0.0,0.0,
2025-08-15T03:13:59.888Z,6,GR86-012-8,-20.0,0.176,-0.486,99.8,3.0,,0.0,0.0,
2025-08-15T03:13:59.931Z,6,GR86-012-8,-18.6,0.173,-0.469,99.81,3.0,,0.0,0.0,
2025-08-15T03:13:59.975Z,6,GR86-012-8,-17.1,0.182,-0.481,99.8,3.0,5166.0,0.0,0.0,
2025-08-15T03:14:00.018Z,6,GR86-012-8,-15.5,0.196,-0.427,99.8,3.0,,0.0,0.0,108.81
2025-08-15T03:14:00.061Z,6,GR86-012-8,-13.7,0.182,-0.401,99.82,3.0,,0.0,0.0,
2025-08-15T03:14:00.105Z,6,GR86-012-8,-11.0,0.179,-0.371,99.82,3.0,,0.0,0.0,
2025-08-15T03:14:00.148Z,6,GR86-012-8,-9.4,0.178,-0.336,99.82,3.0,,0.0,0.0,
2025-08-15T03:14:00.191Z,6,GR86-012-8,-8.6,0.173,-0.303,99.82,3.0,5219.0,0.0,0.0,
2025-08-15T03:14:00.235Z,6,GR86-012-8,-8.6,0.205,-0.302,99.82,3.0,,0.0,0.0,110.16
2025-08-15T03:14:00.278Z,6,GR86-012-8,-8.6,0.204,-0.263,99.81,3.0,,0.0,0.0,
2025-08-15T03:14:00.321Z,6,GR86-012-8,-8.6,0.171,-0.25,99.8,3.0,,0.0,0.0,
2025-08-15T03:14:00.365Z,6,GR86-012-8,-8.6,0.186,-0.227,99.82,3.0,,0.0,0.0,
2025-08-15T03:14:00.408Z,6,GR86-012-8,-8.6,0.189,-0.201,99.82,3.0,5281.0,0.0,0.0,
2025-08-15T03:14:00.451Z,6,GR86-012-8,-8.6,0.184,-0.179,99.81,3.0,,0.0,0.0,111.47
2025-08-15T03:14:00.497Z,6,GR86-012-8,-8.6,0.191,-0.195,99.81,3.0,,0.0,0.0,
2025-08-15T03:14:00.539Z,6,GR86-012-8,-8.6,0.2,-0.175,99.81,3.0,,0.0,0.0,
2025-08-15T03:14:00.582Z,6,GR86-012-8,-8.6,0.19,-0.165,99.81,3.0,,0.0,0.0,
2025-08-15T03:14:00.625Z,6,GR86-012-8,-8.700000000000001,0.17,-0.174,99.8,3.0,5339.0,0.0,0.0,
2025-08-15T03:14:00.668Z,6,GR86-012-8,-8.8,0.182,-0.18,99.83,3.0,,0.0,0.0,112.83
2025-08-15T03:14:00.711Z,6,GR86-012-8,-9.1,0.198,-0.169,99.83,3.0,,0.0,0.0,
2025-08-15T03:14:00.756Z,6,GR86-012-8,-9.8,0.196,-0.181,99.81,3.0,,0.0,0.0,
2025-08-15T03:14:00.799Z,6,GR86-012-8,-10.4,0.187,-0.178,99.82,3.0,,0.0,0.0,
2025-08-15T03:14:00.842Z,6,GR86-012-8,-10.6,0.183,-0.179,99.84,3.0,5408.0,0.0,0.0,
2025-08-15T03:14:00.886Z,6,GR86-012-8,-10.6,0.191,-0.183,99.83,3.0,,0.0,0.0,115.64
2025-08-15T03:14:00.929Z,6,GR86-012-8,-10.6,0.199,-0.209,99.84,3.0,,0.0,0.0,
2025-08-15T03:14:00.972Z,6,GR86-012-8,-10.5,0.19,-0.194,99.82,3.0,,0.0,0.0,
2025-08-15T03:14:01.015Z,6,GR86-012-8,-10.2,0.179,-0.213,99.82,3.0,,0.0,0.0,
2025-08-15T03:14:01.058Z,6,GR86-012-8,-9.7,0.191,-0.226,99.84,3.0,5481.0,0.0,0.0,
2025-08-15T03:14:01.101Z,6,GR86-012-8,-8.700000000000001,0.18,-0.195,99.83,3.0,,0.0,0.0,117.11
2025-08-15T03:14:01.145Z,6,GR86-012-8,-7.6,0.183,-0.187,99.84,3.0,,0.0,0.0,
2025-08-15T03:14:01.188Z,6,GR86-012-8,-7.300000000000001,0.191,-0.198,99.82,3.0,,0.0,0.0,
2025-08-15T03:14:01.231Z,6,GR86-012-8,-7.2,0.2,-0.201,99.85,3.0,,0.0,0.0,
2025-08-15T03:14:01.275Z,6,GR86-012-8,-6.9,0.186,-0.182,99.82,3.0,5545.0,0.0,0.0,
2025-08-15T03:14:01.318Z,6,GR86-012-8,-6.0,0.186,-0.187,99.83,3.0,,0.0,0.0,118.49
2025-08-15T03:14:01.361Z,6,GR86-012-8,-4.9,0.193,-0.182,99.83,3.0,,0.0,0.0,
2025-08-15T03:14:01.405Z,6,GR86-012-8,-3.9,0.194,-0.161,99.84,3.0,,0.0,0.0,
2025-08-15T03:14:01.448Z,6,GR86-012-8,-3.7,0.186,-0.139,99.83,3.0,,0.0,0.0,
2025-08-15T03:14:01.491Z,6,GR86-012-8,-3.6,0.195,-0.141,99.84,3.0,5688.0,0.0,0.0,
2025-08-15T03:14:01.535Z,6,GR86-012-8,-3.4000000000000004,0.202,-0.116,99.82,3.0,,0.0,0.0,119.97
2025-08-15T03:14:01.578Z,6,GR86-012-8,-3.1,0.171,-0.099,99.83,3.0,,0.0,0.0,
2025-08-15T03:14:01.621Z,6,GR86-012-8,-3.1,0.175,-0.099,99.84,3.0,,0.0,0.0,
2025-08-15T03:14:01.665Z,6,GR86-012-8,-3.0,0.202,-0.09,99.83,3.0,,0.0,0.0,
2025-08-15T03:14:01.707Z,6,GR86-012-8,-2.7,0.213,-0.085,99.85,3.0,5765.0,0.0,0.0,
2025-08-15T03:14:01.750Z,6,GR86-012-8,-2.5,0.188,-0.063,99.86,3.0,,0.0,0.0,121.42
2025-08-15T03:14:01.794Z,6,GR86-012-8,-2.5,0.177,-0.077,99.83,3.0,,0.0,0.0,
2025-08-15T03:14:01.839Z,6,GR86-012-8,-2.5,0.178,-0.067,99.84,3.0,,0.0,0.0,
2025-08-15T03:14:01.882Z,6,GR86-012-8,-2.5,0.19,-0.05,99.85,3.0,,0.0,0.0,
2025-08-15T03:14:01.925Z,6,GR86-012-8,-2.5,0.203,-0.052,99.84,3.0,5838.0,0.0,0.0,
2025-08-15T03:14:01.968Z,6,GR86-012-8,-2.5,0.181,-0.055,99.84,3.0,,0.0,0.0,122.9
2025-08-15T03:14:02.011Z,6,GR86-012-8,-2.5,0.192,-0.075,99.83,3.0,,0.0,0.0,
2025-08-15T03:14:02.055Z,6,GR86-012-8,-2.5,0.205,-0.048,99.81,3.0,,0.0,0.0,
2025-08-15T03:14:02.098Z,6,GR86-012-8,-2.5,0.179,-0.045,99.82,3.0,,0.0,0.0,
2025-08-15T03:14:02.141Z,6,GR86-012-8,-2.4000000000000004,0.177,-0.041,99.83,3.0,5892.0,0.0,0.0,
2025-08-15T03:14:02.186Z,6,GR86-012-8,-2.3000000000000003,0.192,-0.042,99.84,3.0,,0.0,0.0,124.53
2025-08-15T03:14:02.229Z,6,GR86-012-8,-1.8,0.203,-0.045,99.83,3.0,,0.0,0.0,
2025-08-15T03:14:02.272Z,6,GR86-012-8,-1.6,0.197,-0.041,99.84,3.0,,0.0,0.0,
2025-08-15T03:14:02.315Z,6,GR86-012-8,-1.6,0.186,-0.051,99.85,3.0,,0.0,0.0,
2025-08-15T03:14:02.358Z,6,GR86-012-8,-1.6,0.186,-0.039,99.85,3.0,5974.0,0.0,0.0,
2025-08-15T03:14:02.401Z,6,GR86-012-8,-1.6,0.176,-0.027,99.85,3.0,,0.0,0.0,126.03
2025-08-15T03:14:02.446Z,6,GR86-012-8,-1.7000000000000002,0.176,-0.004,99.83,3.0,,0.0,0.0,
2025-08-15T03:14:02.488Z,6,GR86-012-8,-1.7000000000000002,0.179,-0.028,99.83,3.0,,0.0,0.0,
2025-08-15T03:14:02.531Z,6,GR86-012-8,-1.7000000000000002,0.202,-0.038,99.82,3.0,,0.0,0.0,
2025-08-15T03:14:02.575Z,6,GR86-012-8,-1.7000000000000002,0.201,-0.026,99.82,3.0,6057.0,0.0,0.0,
2025-08-15T03:14:02.617Z,6,GR86-012-8,-1.7000000000000002,0.177,-0.044,99.83,3.0,,0.0,0.0,127.54
2025-08-15T03:14:02.660Z,6,GR86-012-8,-1.7000000000000002,0.155,-0.048,99.85,3.0,,0.0,0.0,
2025-08-15T03:14:02.706Z,6,GR86-012-8,-1.7000000000000002,0.164,-0.04,99.85,3.0,,0.0,0.0,
2025-08-15T03:14:02.749Z,6,GR86-012-8,-1.6,0.204,-0.047,99.84,3.0,,0.0,0.0,
2025-08-15T03:14:02.792Z,6,GR86-012-8,-1.5,0.204,-0.016,99.84,3.0,6101.0,0.0,0.0,
2025-08-15T03:14:02.835Z,6,GR86-012-8,-1.5,0.167,-0.039,99.84,3.0,,0.0,0.0,129.15
2025-08-15T03:14:02.878Z,6,GR86-012-8,-1.5,0.165,-0.039,99.84,3.0,,0.0,0.0,
2025-08-15T03:14:02.921Z,6,GR86-012-8,-1.4,0.183,-0.027,99.83,3.0,,0.0,0.0,
2025-08-15T03:14:02.965Z,6,GR86-012-8,-1.1,0.199,-0.035,99.83,3.0,,0.0,0.0,
2025-08-15T03:14:03.008Z,6,GR86-012-8,-0.5,0.182,-0.023,99.84,3.0,6186.0,0.0,0.0,
2025-08-15T03:14:03.051Z,6,GR86-012-8,0.0,0.166,-0.028,99.84,3.0,,0.0,0.0,130.69
2025-08-15T03:14:03.096Z,6,GR86-012-8,0.2,0.149,-0.032,99.83,3.0,,0.0,0.0,
2025-08-15T03:14:03.139Z,6,GR86-012-8,0.2,0.175,-0.012,99.84,3.0,,0.0,0.0,
2025-08-15T03:14:03.182Z,6,GR86-012-8,0.5,0.176,-0.003,99.83,3.0,,0.0,0.0,
2025-08-15T03:14:03.225Z,6,GR86-012-8,1.3,0.18,-0.002,99.85,3.0,6234.0,0.0,0.0,
2025-08-15T03:14:03.268Z,6,GR86-012-8,1.6,0.157,-0.003,99.83,3.0,,0.0,0.0,132.27
2025-08-15T03:14:03.311Z,6,GR86-012-8,1.7000000000000002,0.172,-0.012,99.82,3.0,,0.0,0.0,
2025-08-15T03:14:03.355Z,6,GR86-012-8,1.7000000000000002,0.186,0.002,99.84,3.0,,0.0,0.0,
2025-08-15T03:14:03.397Z,6,GR86-012-8,1.7000000000000002,0.165,0.033,99.84,3.0,,0.0,0.0,
2025-08-15T03:14:03.440Z,6,GR86-012-8,1.3,0.148,0.01,99.85,3.0,6323.0,0.0,0.0,
2025-08-15T03:14:03.486Z,6,GR86-012-8,0.5,0.163,0.036,99.84,3.0,,0.0,0.0,135.23
2025-08-15T03:14:03.529Z,6,GR86-012-8,0.4,0.178,0.026,99.86,3.0,,0.0,0.0,
2025-08-15T03:14:03.572Z,6,GR86-012-8,0.2,0.182,0.023,99.85,3.0,,0.0,0.0,
2025-08-15T03:14:03.615Z,6,GR86-012-8,0.0,0.177,0.041,99.83,3.0,,0.0,0.0,
2025-08-15T03:14:03.658Z,6,GR86-012-8,-0.4,0.149,0.034,99.85,3.0,6422.0,0.0,0.0,
2025-08-15T03:14:03.701Z,6,GR86-012-8,-0.7000000000000001,0.148,0.007,99.84,3.0,,0.0,0.0,136.93
2025-08-15T03:14:03.745Z,6,GR86-012-8,-0.7000000000000001,0.156,0.023,99.84,3.0,,0.0,0.0,
2025-08-15T03:14:03.788Z,6,GR86-012-8,-0.7000000000000001,0.173,0.015,99.84,3.0,,0.0,0.0,
2025-08-15T03:14:03.831Z,6,GR86-012-8,-0.7000000000000001,0.18,0.025,99.84,3.0,,0.0,0.0,
2025-08-15T03:14:03.875Z,6,GR86-012-8,-0.7000000000000001,0.171,0.017,99.84,3.0,6467.0,0.0,0.0,
2025-08-15T03:14:03.918Z,6,GR86-012-8,-0.7000000000000001,0.147,0.012,99.84,3.0,,0.0,0.0,138.63
2025-08-15T03:14:03.961Z,6,GR86-012-8,-0.7000000000000001,0.143,-0.009,99.83,3.0,,0.0,0.0,
2025-08-15T03:14:04.006Z,6,GR86-012-8,-0.7000000000000001,0.155,-0.005,99.85,3.0,,0.0,0.0,
2025-08-15T03:14:04.048Z,6,GR86-012-8,-0.7000000000000001,0.186,-0.011,99.85,3.0,,0.0,0.0,
2025-08-15T03:14:04.091Z,6,GR86-012-8,-0.7000000000000001,0.183,-0.011,99.84,3.0,6641.0,0.0,0.0,
2025-08-15T03:14:04.136Z,6,GR86-012-8,-0.7000000000000001,0.153,0.0,99.84,3.0,,0.0,0.0,140.27
2025-08-15T03:14:04.178Z,6,GR86-012-8,-0.7000000000000001,0.136,-0.01,99.84,3.0,,0.0,0.0,
2025-08-15T03:14:04.221Z,6,GR86-012-8,-0.7000000000000001,0.145,-0.02,99.83,3.0,,0.0,0.0,
2025-08-15T03:14:04.265Z,6,GR86-012-8,-0.7000000000000001,0.17,-0.015,99.85,3.0,,0.0,0.0,
2025-08-15T03:14:04.308Z,6,GR86-012-8,-0.7000000000000001,0.164,-0.025,99.84,3.0,6717.0,0.0,0.0,
2025-08-15T03:14:04.351Z,6,GR86-012-8,-0.7000000000000001,0.148,-0.02,99.84,3.0,,0.0,0.0,141.94
2025-08-15T03:14:04.396Z,6,GR86-012-8,-0.7000000000000001,0.101,-0.025,99.82,3.0,,0.0,0.0,
2025-08-15T03:14:04.439Z,6,GR86-012-8,-0.7000000000000001,-0.151,0.023,99.83,4.0,,0.0,0.0,
2025-08-15T03:14:04.482Z,6,GR86-012-8,-0.8,0.326,-0.014,99.84,4.0,,0.0,0.0,
2025-08-15T03:14:04.568Z,6,GR86-012-8,-2.2,0.07,0.015,99.84,4.0,6276.0,0.0,0.0,143.63
2025-08-15T03:14:04.611Z,6,GR86-012-8,-3.1,0.049,-0.081,99.84,4.0,,0.0,0.0,
2025-08-15T03:14:04.656Z,6,GR86-012-8,-3.1,0.158,-0.038,99.83,4.0,,0.0,0.0,
2025-08-15T03:14:04.699Z,6,GR86-012-8,-3.1,0.16,-0.023,99.84,4.0,,0.0,0.0,
2025-08-15T03:14:04.742Z,6,GR86-012-8,-3.5,0.1,-0.054,99.84,4.0,5791.0,0.0,0.0,
2025-08-15T03:14:04.786Z,6,GR86-012-8,-4.3,0.129,-0.047,99.84,4.0,,0.0,0.0,145.07
2025-08-15T03:14:04.828Z,6,GR86-012-8,-4.800000000000001,0.143,-0.063,99.84,4.0,,0.0,0.0,
2025-08-15T03:14:04.871Z,6,GR86-012-8,-5.4,0.125,-0.079,99.83,4.0,,0.0,0.0,
2025-08-15T03:14:04.915Z,6,GR86-012-8,-5.7,0.115,-0.1,99.85,4.0,,0.0,0.0,
2025-08-15T03:14:04.957Z,6,GR86-012-8,-5.800000000000001,0.131,-0.098,99.84,4.0,5807.0,0.0,0.0,
2025-08-15T03:14:05.000Z,6,GR86-012-8,-5.800000000000001,0.139,-0.086,99.83,4.0,,0.0,0.0,146.75
2025-08-15T03:14:05.045Z,6,GR86-012-8,-5.800000000000001,0.13,-0.116,99.84,4.0,,0.0,0.0,
2025-08-15T03:14:05.088Z,6,GR86-012-8,-6.0,0.131,-0.105,99.84,4.0,,0.0,0.0,
2025-08-15T03:14:05.131Z,6,GR86-012-8,-6.6000000000000005,0.123,-0.123,99.85,4.0,,0.0,0.0,
2025-08-15T03:14:05.175Z,6,GR86-012-8,-7.300000000000001,0.126,-0.139,99.85,4.0,5863.0,0.0,0.0,
2025-08-15T03:14:05.218Z,6,GR86-012-8,-7.7,0.121,-0.168,99.86,4.0,,0.0,0.0,148.19
2025-08-15T03:14:05.261Z,6,GR86-012-8,-8.1,0.127,-0.179,99.85,4.0,,0.0,0.0,
2025-08-15T03:14:05.305Z,6,GR86-012-8,-8.200000000000001,0.118,-0.194,99.85,4.0,,0.0,0.0,
2025-08-15T03:14:05.348Z,6,GR86-012-8,-8.200000000000001,0.12,-0.205,99.84,4.0,,0.0,0.0,
2025-08-15T03:14:05.391Z,6,GR86-012-8,-8.200000000000001,0.128,-0.185,99.84,4.0,5931.0,0.0,0.0,
2025-08-15T03:14:05.435Z,6,GR86-012-8,-8.200000000000001,0.129,-0.169,99.84,4.0,,0.0,0.0,149.64
2025-08-15T03:14:05.478Z,6,GR86-012-8,-8.200000000000001,0.117,-0.175,99.84,4.0,,0.0,0.0,
2025-08-15T03:14:05.521Z,6,GR86-012-8,-8.200000000000001,0.113,-0.21,99.84,4.0,,0.0,0.0,
2025-08-15T03:14:05.565Z,6,GR86-012-8,-8.200000000000001,0.129,-0.202,99.85,4.0,,0.0,0.0,
2025-08-15T03:14:05.608Z,6,GR86-012-8,-8.200000000000001,0.122,-0.203,99.84,4.0,5984.0,0.0,0.0,
2025-08-15T03:14:05.651Z,6,GR86-012-8,-8.200000000000001,0.106,-0.227,99.84,4.0,,0.0,0.0,151.15
2025-08-15T03:14:05.696Z,6,GR86-012-8,-8.200000000000001,0.106,-0.238,99.84,4.0,,0.0,0.0,
2025-08-15T03:14:05.739Z,6,GR86-012-8,-8.4,0.118,-0.235,99.84,4.0,,0.0,0.0,
2025-08-15T03:14:05.782Z,6,GR86-012-8,-9.2,0.13,-0.217,99.85,4.0,,0.0,0.0,
2025-08-15T03:14:05.825Z,6,GR86-012-8,-10.7,0.118,-0.24,99.85,4.0,6037.0,0.0,0.0,
2025-08-15T03:14:05.868Z,6,GR86-012-8,-11.6,0.116,-0.239,99.84,4.0,,0.0,0.0,152.55
2025-08-15T03:14:05.911Z,6,GR86-012-8,-12.0,0.119,-0.213,99.83,4.0,,0.0,0.0,
2025-08-15T03:14:05.956Z,6,GR86-012-8,-12.0,0.11,-0.227,99.82,4.0,,0.0,0.0,
2025-08-15T03:14:05.998Z,6,GR86-012-8,-10.8,0.108,-0.253,99.84,4.0,,0.0,0.0,
2025-08-15T03:14:06.041Z,6,GR86-012-8,-9.4,0.109,-0.278,99.84,4.0,6094.0,0.0,0.0,
2025-08-15T03:14:06.086Z,6,GR86-012-8,-7.2,0.126,-0.255,99.86,4.0,,0.0,0.0,155.05
2025-08-15T03:14:06.129Z,6,GR86-012-8,-6.6000000000000005,0.107,-0.255,99.84,4.0,,0.0,0.0,
2025-08-15T03:14:06.172Z,6,GR86-012-8,-6.6000000000000005,0.1,-0.275,99.84,4.0,,0.0,0.0,
2025-08-15T03:14:06.215Z,6,GR86-012-8,-7.1000000000000005,0.102,-0.285,99.86,4.0,,0.0,0.0,
2025-08-15T03:14:06.258Z,6,GR86-012-8,-8.700000000000001,0.114,-0.273,99.82,4.0,6144.0,0.0,0.0,
2025-08-15T03:14:06.301Z,6,GR86-012-8,-10.7,0.109,-0.271,91.58,4.0,,0.0,0.0,156.48
2025-08-15T03:14:06.346Z,6,GR86-012-8,-12.6,0.096,-0.288,72.9,4.0,,0.0,0.0,
2025-08-15T03:14:06.388Z,6,GR86-012-8,-12.3,0.109,-0.299,63.46,4.0,,0.0,0.0,
2025-08-15T03:14:06.431Z,6,GR86-012-8,-11.1,0.118,-0.288,57.83,4.0,,0.0,0.0,
2025-08-15T03:14:06.475Z,6,GR86-012-8,-9.5,0.107,-0.26,53.33,4.0,6192.0,0.0,0.0,
2025-08-15T03:14:06.518Z,6,GR86-012-8,-8.3,0.103,-0.235,45.4,4.0,,0.0,0.0,157.76
2025-08-15T03:14:06.561Z,6,GR86-012-8,-7.9,0.093,-0.238,38.58,4.0,,0.0,0.0,
2025-08-15T03:14:06.606Z,6,GR86-012-8,-7.9,0.083,-0.272,37.23,4.0,,0.0,0.0,
2025-08-15T03:14:06.649Z,6,GR86-012-8,-8.0,0.059,-0.269,33.42,4.0,,0.0,0.0,
2025-08-15T03:14:06.692Z,6,GR86-012-8,-8.1,0.055,-0.271,28.44,4.0,6250.0,0.0,0.0,
2025-08-15T03:14:06.735Z,6,GR86-012-8,-8.1,0.035,-0.269,21.27,4.0,,0.0,0.0,158.96
2025-08-15T03:14:06.778Z,6,GR86-012-8,-8.1,0.022,-0.268,3.89,4.0,,0.0,0.0,
2025-08-15T03:14:06.821Z,6,GR86-012-8,-8.1,-0.028,-0.278,3.76,4.0,,0.0,0.0,
2025-08-15T03:14:06.865Z,6,GR86-012-8,-8.1,-0.114,-0.209,3.53,4.0,,0.0,0.0,
2025-08-15T03:14:06.908Z,6,GR86-012-8,-8.1,-0.334,-0.234,3.31,4.0,6038.0,0.0,0.0,
2025-08-15T03:14:06.951Z,6,GR86-012-8,-7.800000000000001,-0.282,-0.216,3.15,4.0,,3.97,4.24,160.08
2025-08-15T03:14:06.996Z,6,GR86-012-8,-6.6000000000000005,-0.21,-0.238,3.09,4.0,,9.845,9.78,
2025-08-15T03:14:07.039Z,6,GR86-012-8,-5.0,-0.327,-0.213,2.97,4.0,,18.74,18.435,
2025-08-15T03:14:07.082Z,6,GR86-012-8,-4.6000000000000005,-0.544,-0.168,2.87,4.0,,29.865,29.175,
2025-08-15T03:14:07.125Z,6,GR86-012-8,-4.6000000000000005,-0.807,-0.138,2.77,4.0,6081.0,42.835,41.86,
2025-08-15T03:14:07.168Z,6,GR86-012-8,-4.6000000000000005,-0.844,-0.121,2.71,4.0,,48.055,47.015,159.61
2025-08-15T03:14:07.211Z,6,GR86-012-8,-4.9,-0.839,-0.127,2.63,4.0,,53.0,51.745000000000005,
2025-08-15T03:14:07.298Z,6,GR86-012-8,-11.0,-0.837,-0.138,2.58,4.0,,57.21,56.995000000000005,
2025-08-15T03:14:07.341Z,6,GR86-012-8,-9.6,-0.953,-0.16,2.5500000000000003,4.0,5655.0,57.21,56.965,
2025-08-15T03:14:07.386Z,6,GR86-012-8,-5.300000000000001,-1.062,-0.073,2.5500000000000003,4.0,,57.055,57.47,151.86
2025-08-15T03:14:07.429Z,6,GR86-012-8,-5.2,-0.938,-0.15,2.52,4.0,,57.895,58.965,
2025-08-15T03:14:07.472Z,6,GR86-012-8,-3.7,-0.937,-0.217,2.51,4.0,,56.72,57.18,
2025-08-15T03:14:07.515Z,6,GR86-012-8,-2.6,-1.122,-0.097,2.51,4.0,,59.24,58.46,
2025-08-15T03:14:07.558Z,6,GR86-012-8,-4.2,-1.037,-0.18,2.51,4.0,5368.0,61.485,60.95,
2025-08-15T03:14:07.601Z,6,GR86-012-8,-5.9,-1.073,-0.115,2.5,4.0,,61.515,61.175,144.02
2025-08-15T03:14:07.645Z,6,GR86-012-8,-6.2,-1.012,-0.089,2.48,4.0,,63.955,63.055,
2025-08-15T03:14:07.688Z,6,GR86-012-8,-6.2,-0.952,-0.088,2.48,4.0,,62.095,62.535,
2025-08-15T03:14:07.731Z,6,GR86-012-8,-5.4,-1.033,-0.143,2.47,4.0,,59.835,60.765,
2025-08-15T03:14:07.775Z,6,GR86-012-8,-4.6000000000000005,-1.072,-0.137,14.69,4.0,5180.0,61.485,61.42,
2025-08-15T03:14:07.818Z,6,GR86-012-8,-4.6000000000000005,-1.113,-0.078,57.18,4.0,,64.275,64.06,137.72
2025-08-15T03:14:07.861Z,6,GR86-012-8,-5.0,-0.871,-0.171,90.56,3.0,,60.675,61.88,
2025-08-15T03:14:07.906Z,6,GR86-012-8,-5.1000000000000005,-1.032,-0.125,4.58,3.0,,58.615,59.59,
2025-08-15T03:14:07.948Z,6,GR86-012-8,-4.4,-0.841,-0.027,3.18,3.0,,59.485,60.675,
2025-08-15T03:14:07.991Z,6,GR86-012-8,-4.4,-0.784,-0.187,3.06,3.0,4911.0,50.405,50.845,
2025-08-15T03:14:08.035Z,6,GR86-012-8,-5.7,-1.036,-0.037,2.93,3.0,,40.365,41.31,130.66
2025-08-15T03:14:08.078Z,6,GR86-012-8,-5.7,-0.79,-0.162,2.83,3.0,,38.075,38.805,
2025-08-15T03:14:08.121Z,6,GR86-012-8,-5.2,-0.776,-0.132,2.77,3.0,,34.425000000000004,34.81,
2025-08-15T03:14:08.165Z,6,GR86-012-8,-5.6000000000000005,-0.8290000000000001,-0.093,2.71,3.0,,34.15,34.0,
2025-08-15T03:14:08.208Z,6,GR86-012-8,-5.6000000000000005,-0.787,-0.161,2.67,3.0,5639.0,35.555,35.435,
2025-08-15T03:14:08.251Z,6,GR86-012-8,-6.1000000000000005,-0.779,-0.158,2.63,3.0,,36.775,36.64,125.13
2025-08-15T03:14:08.296Z,6,GR86-012-8,-6.5,-0.782,-0.141,2.61,3.0,,36.7,36.96,
2025-08-15T03:14:08.382Z,6,GR86-012-8,-6.5,-0.8250000000000001,-0.176,27.83,3.0,,37.02,37.175,
2025-08-15T03:14:08.425Z,6,GR86-012-8,-4.9,-0.81,-0.179,54.56,2.0,5503.0,34.745,35.74,
2025-08-15T03:14:08.468Z,6,GR86-012-8,-3.1,-0.874,-0.083,3.98,2.0,,33.845,34.685,121.92
2025-08-15T03:14:08.511Z,6,GR86-012-8,-3.0,-0.777,-0.167,2.85,2.0,,29.71,30.965,
2025-08-15T03:14:08.556Z,6,GR86-012-8,-1.9,-0.601,-0.316,2.74,2.0,,24.92,25.21,
2025-08-15T03:14:08.599Z,6,GR86-012-8,-1.2000000000000002,-0.8210000000000001,-0.071,2.67,2.0,,21.745,22.43,
2025-08-15T03:14:08.642Z,6,GR86-012-8,-1.2000000000000002,-0.64,-0.253,2.6,2.0,5620.0,20.205,20.815,
2025-08-15T03:14:08.686Z,6,GR86-012-8,-2.0,-0.713,-0.216,2.54,2.0,,16.085,16.68,114.05
2025-08-15T03:14:08.729Z,6,GR86-012-8,-2.9000000000000004,-0.658,-0.261,2.53,2.0,,15.99,16.315,
2025-08-15T03:14:08.772Z,6,GR86-012-8,-3.3000000000000003,-0.532,-0.387,2.51,2.0,,16.525,16.71,
2025-08-15T03:14:08.815Z,6,GR86-012-8,-3.9,-0.545,-0.285,2.51,2.0,,16.435,16.71,
2025-08-15T03:14:08.858Z,6,GR86-012-8,-4.6000000000000005,-0.5690000000000001,-0.337,2.48,2.0,5901.0,16.8,17.185,
2025-08-15T03:14:08.901Z,6,GR86-012-8,-4.800000000000001,-0.505,-0.305,2.48,2.0,,17.365000000000002,17.365000000000002,110.59
2025-08-15T03:14:08.945Z,6,GR86-012-8,-5.2,-0.524,-0.25,2.48,2.0,,17.78,17.96,
2025-08-15T03:14:08.988Z,6,GR86-012-8,-9.3,-0.592,-0.254,2.48,2.0,,18.555,18.77,
2025-08-15T03:14:09.031Z,6,GR86-012-8,-16.400000000000002,-0.547,-0.232,2.48,2.0,,19.395,19.485,
2025-08-15T03:14:09.075Z,6,GR86-012-8,-24.4,-0.584,-0.284,2.48,2.0,6123.0,20.51,20.51,
2025-08-15T03:14:09.118Z,6,GR86-012-8,-31.9,-0.593,-0.353,2.48,2.0,,22.585,22.525,106.41
2025-08-15T03:14:09.161Z,6,GR86-012-8,-37.5,-0.659,-0.384,2.48,2.0,,24.95,24.83,
2025-08-15T03:14:09.205Z,6,GR86-012-8,-43.0,-0.6990000000000001,-0.456,2.48,2.0,,27.68,27.62,
2025-08-15T03:14:09.248Z,6,GR86-012-8,-44.400000000000006,-0.685,-0.475,2.48,2.0,,28.34,28.34,
2025-08-15T03:14:09.291Z,6,GR86-012-8,-44.400000000000006,-0.6900000000000001,-0.472,2.48,2.0,5679.0,29.025,28.9,
2025-08-15T03:14:09.335Z,6,GR86-012-8,-44.400000000000006,-0.713,-0.514,2.48,2.0,,30.075,29.985,103.18
2025-08-15T03:14:09.378Z,6,GR86-012-8,-43.7,-0.636,-0.659,2.49,2.0,,30.11,30.4,
2025-08-15T03:14:09.421Z,6,GR86-012-8,-43.3,-0.662,-0.667,2.48,2.0,,28.645,29.27,
2025-08-15T03:14:09.465Z,6,GR86-012-8,-44.1,-0.668,-0.645,2.48,2.0,,28.81,29.175,
2025-08-15T03:14:09.508Z,6,GR86-012-8,-45.6,-0.661,-0.764,2.49,2.0,5370.0,28.215,28.78,
2025-08-15T03:14:09.551Z,6,GR86-012-8,-46.6,-0.608,-0.792,2.48,2.0,,25.055,26.02,99.69
2025-08-15T03:14:09.596Z,6,GR86-012-8,-46.6,-0.5640000000000001,-0.772,2.48,2.0,,21.06,21.93,
2025-08-15T03:14:09.639Z,6,GR86-012-8,-46.900000000000006,-0.552,-0.774,2.48,2.0,,18.8,19.7,
2025-08-15T03:14:09.682Z,6,GR86-012-8,-48.5,-0.516,-0.8220000000000001,2.48,2.0,,16.25,17.06,
2025-08-15T03:14:09.725Z,6,GR86-012-8,-53.0,-0.461,-0.863,2.48,2.0,5169.0,10.27,10.895,
2025-08-15T03:14:09.811Z,6,GR86-012-8,-59.7,-0.416,-0.905,2.48,2.0,,7.525,7.98,95.79
2025-08-15T03:14:09.855Z,6,GR86-012-8,-62.5,-0.36,-0.946,2.48,2.0,,4.3950000000000005,4.93,
2025-08-15T03:14:09.898Z,6,GR86-012-8,-63.7,-0.286,-0.953,2.48,2.0,,0.0,2.215,
2025-08-15T03:14:09.941Z,6,GR86-012-8,-63.7,-0.225,-0.962,2.48,2.0,5083.0,0.0,0.0,
2025-08-15T03:14:09.986Z,6,GR86-012-8,-63.1,-0.215,-0.941,2.47,2.0,,0.0,0.0,93.2
2025-08-15T03:14:10.029Z,6,GR86-012-8,-62.900000000000006,-0.2,-0.968,2.48,2.0,,0.0,0.0,
2025-08-15T03:14:10.072Z,6,GR86-012-8,-62.900000000000006,-0.206,-0.948,15.23,2.0,,0.0,0.0,
2025-08-15T03:14:10.115Z,6,GR86-012-8,-62.900000000000006,-0.193,-0.98,19.52,2.0,,0.0,0.0,
2025-08-15T03:14:10.158Z,6,GR86-012-8,-62.900000000000006,-0.209,-0.956,19.9,2.0,5036.0,0.0,0.0,
2025-08-15T03:14:10.201Z,6,GR86-012-8,-63.3,-0.144,-0.97,20.57,2.0,,0.0,0.0,91.89
2025-08-15T03:14:10.246Z,6,GR86-012-8,-65.10000000000001,-0.131,-0.948,22.15,2.0,,0.0,0.0,
2025-08-15T03:14:10.288Z,6,GR86-012-8,-66.60000000000001,-0.125,-0.953,22.96,2.0,,0.0,0.0,
2025-08-15T03:14:10.331Z,6,GR86-012-8,-68.5,0.082,-0.962,23.04,2.0,,0.0,0.0,
2025-08-15T03:14:10.375Z,6,GR86-012-8,-71.3,0.103,-0.946,23.07,2.0,5171.0,0.0,0.0,
2025-08-15T03:14:10.417Z,6,GR86-012-8,-74.5,0.059,-0.933,23.12,2.0,,0.0,0.0,90.54
2025-08-15T03:14:10.460Z,6,GR86-012-8,-77.7,0.025,-0.935,23.19,2.0,,0.0,0.0,
2025-08-15T03:14:10.506Z,6,GR86-012-8,-81.2,0.021,-0.964,23.24,2.0,,0.0,0.0,
2025-08-15T03:14:10.549Z,6,GR86-012-8,-84.30000000000001,0.015,-0.953,23.33,2.0,,0.0,0.0,
2025-08-15T03:14:10.592Z,6,GR86-012-8,-88.80000000000001,0.033,-0.956,23.35,2.0,5139.0,0.0,0.0,
2025-08-15T03:14:10.635Z,6,GR86-012-8,-94.1,0.023,-0.926,23.33,2.0,,0.0,0.0,89.79
2025-08-15T03:14:10.678Z,6,GR86-012-8,-99.5,0.03,-0.924,22.78,2.0,,0.0,0.0,
2025-08-15T03:14:10.721Z,6,GR86-012-8,-102.5,0.023,-0.901,22.25,2.0,,0.0,0.0,
2025-08-15T03:14:10.765Z,6,GR86-012-8,-102.8,0.007,-0.906,6.2,2.0,,0.0,0.0,
2025-08-15T03:14:10.808Z,6,GR86-012-8,-102.3,-0.002,-0.913,6.21,2.0,5181.0,0.0,0.0,
2025-08-15T03:14:10.851Z,6,GR86-012-8,-102.1,-0.055,-0.903,6.21,2.0,,0.0,0.0,90.01
2025-08-15T03:14:10.896Z,6,GR86-012-8,-101.7,-0.121,-0.92,7.81,2.0,,0.0,0.0,
2025-08-15T03:14:10.939Z,6,GR86-012-8,-100.8,-0.142,-0.918,12.19,2.0,,0.0,0.0,
2025-08-15T03:14:10.982Z,6,GR86-012-8,-99.5,-0.156,-0.939,17.63,2.0,,0.0,0.0,
2025-08-15T03:14:11.025Z,6,GR86-012-8,-97.9,-0.143,-0.925,18.99,2.0,5082.0,0.0,0.0,
2025-08-15T03:14:11.068Z,6,GR86-012-8,-97.7,-0.169,-0.94,19.05,2.0,,0.0,0.0,90.14
2025-08-15T03:14:11.111Z,6,GR86-012-8,-97.5,-0.228,-0.952,21.13,2.0,,0.0,0.0,
2025-08-15T03:14:11.155Z,6,GR86-012-8,-96.6,-0.134,-0.963,21.84,2.0,,0.0,0.0,
2025-08-15T03:14:11.197Z,6,GR86-012-8,-94.7,-0.146,-0.962,21.91,2.0,,0.0,0.0,
2025-08-15T03:14:11.240Z,6,GR86-012-8,-92.0,0.002,-0.951,22.84,2.0,4868.0,0.0,0.0,
2025-08-15T03:14:11.286Z,6,GR86-012-8,-88.10000000000001,0.072,-0.926,23.47,2.0,,0.0,0.0,89.18
2025-08-15T03:14:11.329Z,6,GR86-012-8,-86.10000000000001,0.054,-0.923,23.7,2.0,,0.0,0.0,
2025-08-15T03:14:11.372Z,6,GR86-012-8,-84.2,0.023,-0.93,25.19,2.0,,0.0,0.0,
2025-08-15T03:14:11.415Z,6,GR86-012-8,-83.60000000000001,0.008,-0.936,26.13,2.0,,0.0,0.0,
2025-08-15T03:14:11.458Z,6,GR86-012-8,-83.60000000000001,0.025,-0.973,27.03,2.0,5212.0,0.0,0.0,
2025-08-15T03:14:11.501Z,6,GR86-012-8,-84.4,0.063,-0.965,28.09,2.0,,0.0,0.0,88.62
2025-08-15T03:14:11.545Z,6,GR86-012-8,-86.9,0.075,-0.94,30.0,2.0,,0.0,0.0,
2025-08-15T03:14:11.588Z,6,GR86-012-8,-88.10000000000001,0.078,-0.94,31.05,2.0,,0.0,0.0,
2025-08-15T03:14:11.631Z,6,GR86-012-8,-88.5,0.076,-0.962,33.77,2.0,,0.0,0.0,
2025-08-15T03:14:11.675Z,6,GR86-012-8,-88.60000000000001,0.073,-0.967,37.34,2.0,5169.0,0.0,0.0,
2025-08-15T03:14:11.718Z,6,GR86-012-8,-88.60000000000001,0.089,-0.982,41.05,2.0,,0.0,0.0,88.55
2025-08-15T03:14:11.761Z,6,GR86-012-8,-88.60000000000001,0.111,-1.006,45.49,2.0,,0.0,0.0,
2025-08-15T03:14:11.805Z,6,GR86-012-8,-88.60000000000001,0.158,-0.952,58.24,2.0,,0.0,0.0,
2025-08-15T03:14:11.848Z,6,GR86-012-8,-87.80000000000001,0.174,-0.939,78.07000000000001,2.0,,0.0,0.0,
2025-08-15T03:14:11.891Z,6,GR86-012-8,-86.10000000000001,0.173,-0.932,95.34,2.0,5290.0,0.0,0.0,
2025-08-15T03:14:11.936Z,6,GR86-012-8,-83.80000000000001,0.17,-0.928,99.5,2.0,,0.0,0.0,89.11
2025-08-15T03:14:11.978Z,6,GR86-012-8,-81.30000000000001,0.186,-0.913,99.77,2.0,,0.0,0.0,
2025-08-15T03:14:12.021Z,6,GR86-012-8,-78.4,0.216,-0.904,99.77,2.0,,0.0,0.0,
2025-08-15T03:14:12.065Z,6,GR86-012-8,-72.5,0.199,-0.947,99.77,2.0,,0.0,0.0,
2025-08-15T03:14:12.108Z,6,GR86-012-8,-68.0,0.182,-0.918,99.78,2.0,5407.0,0.0,0.0,
2025-08-15T03:14:12.151Z,6,GR86-012-8,-63.5,0.187,-0.955,99.81,2.0,,0.0,0.0,89.9
2025-08-15T03:14:12.197Z,6,GR86-012-8,-59.6,0.205,-0.925,99.81,2.0,,0.0,0.0,
2025-08-15T03:14:12.239Z,6,GR86-012-8,-56.8,0.224,-0.903,99.77,2.0,,0.0,0.0,
2025-08-15T03:14:12.282Z,6,GR86-012-8,-54.7,0.215,-0.86,99.8,2.0,,0.0,0.0,
2025-08-15T03:14:12.325Z,6,GR86-012-8,-51.6,0.187,-0.872,99.8,2.0,5468.0,0.0,0.0,
2025-08-15T03:14:12.368Z,6,GR86-012-8,-49.0,0.193,-0.911,99.79,2.0,,0.0,0.0,91.37
2025-08-15T03:14:12.411Z,6,GR86-012-8,-46.0,0.193,-0.916,99.79,2.0,,0.0,0.0,
2025-08-15T03:14:12.456Z,6,GR86-012-8,-43.2,0.223,-0.924,99.8,2.0,,0.0,0.0,
2025-08-15T03:14:12.499Z,6,GR86-012-8,-40.6,0.213,-0.9,99.78,2.0,,0.0,0.0,
2025-08-15T03:14:12.542Z,6,GR86-012-8,-38.5,0.214,-0.97,99.81,2.0,5575.0,0.0,0.0,
2025-08-15T03:14:12.586Z,6,GR86-012-8,-35.9,0.201,-0.941,99.8,2.0,,0.0,0.0,92.66
2025-08-15T03:14:12.628Z,6,GR86-012-8,-35.2,0.219,-0.919,99.81,2.0,,0.0,0.0,
2025-08-15T03:14:12.671Z,6,GR86-012-8,-35.0,0.238,-0.87,99.79,2.0,,0.0,0.0,
2025-08-15T03:14:12.715Z,6,GR86-012-8,-35.0,0.237,-0.8200000000000001,99.81,2.0,,0.0,0.0,
2025-08-15T03:14:12.757Z,6,GR86-012-8,-34.800000000000004,0.22,-0.844,99.82,2.0,5611.0,0.0,0.0,
2025-08-15T03:14:12.800Z,6,GR86-012-8,-34.2,0.198,-0.8250000000000001,99.81,2.0,,0.0,0.0,94.24
2025-08-15T03:14:12.845Z,6,GR86-012-8,-32.6,0.222,-0.848,99.8,2.0,,0.0,0.0,
2025-08-15T03:14:12.888Z,6,GR86-012-8,-31.5,0.239,-0.8180000000000001,99.79,2.0,,0.0,0.0,
2025-08-15T03:14:12.931Z,6,GR86-012-8,-30.8,0.259,-0.761,99.8,2.0,,0.0,0.0,
2025-08-15T03:14:12.975Z,6,GR86-012-8,-30.1,0.237,-0.739,99.8,2.0,5688.0,0.0,0.0,
2025-08-15T03:14:13.017Z,6,GR86-012-8,-29.200000000000003,0.228,-0.724,99.81,2.0,,0.0,0.0,95.38
2025-08-15T03:14:13.060Z,6,GR86-012-8,-28.0,0.225,-0.6990000000000001,99.81,2.0,,0.0,0.0,
2025-08-15T03:14:13.105Z,6,GR86-012-8,-26.9,0.225,-0.648,99.81,2.0,,0.0,0.0,
2025-08-15T03:14:13.148Z,6,GR86-012-8,-26.9,0.236,-0.626,99.81,2.0,,0.0,0.0,
2025-08-15T03:14:13.191Z,6,GR86-012-8,-26.9,0.238,-0.602,99.81,2.0,5707.0,0.0,0.0,
2025-08-15T03:14:13.235Z,6,GR86-012-8,-26.9,0.238,-0.5650000000000001,99.81,2.0,,0.0,0.0,96.17
2025-08-15T03:14:13.278Z,6,GR86-012-8,-26.9,0.235,-0.545,99.8,2.0,,0.0,0.0,
2025-08-15T03:14:13.365Z,6,GR86-012-8,-26.9,0.237,-0.489,99.81,2.0,,0.0,0.0,
2025-08-15T03:14:13.408Z,6,GR86-012-8,-26.9,0.232,-0.468,99.8,2.0,5782.0,0.0,0.0,
2025-08-15T03:14:13.451Z,6,GR86-012-8,-26.9,0.229,-0.463,99.8,2.0,,0.0,0.0,97.85
2025-08-15T03:14:13.496Z,6,GR86-012-8,-26.9,0.226,-0.479,99.79,2.0,,0.0,0.0,
2025-08-15T03:14:13.539Z,6,GR86-012-8,-26.9,0.22,-0.492,99.8,2.0,,0.0,0.0,
2025-08-15T03:14:13.582Z,6,GR86-012-8,-26.9,0.232,-0.49,99.81,2.0,,0.0,0.0,
2025-08-15T03:14:13.625Z,6,GR86-012-8,-26.700000000000003,0.245,-0.466,99.8,2.0,5882.0,0.0,0.0,
2025-08-15T03:14:13.668Z,6,GR86-012-8,-26.1,0.223,-0.484,99.82,2.0,,0.0,0.0,99.68
2025-08-15T03:14:13.711Z,6,GR86-012-8,-25.1,0.213,-0.479,99.8,2.0,,0.0,0.0,
2025-08-15T03:14:13.755Z,6,GR86-012-8,-23.8,0.214,-0.487,99.8,2.0,,0.0,0.0,
2025-08-15T03:14:13.798Z,6,GR86-012-8,-22.9,0.246,-0.487,99.8,2.0,,0.0,0.0,
2025-08-15T03:14:13.841Z,6,GR86-012-8,-22.6,0.249,-0.466,99.8,2.0,5964.0,0.0,0.0,
2025-08-15T03:14:13.886Z,6,GR86-012-8,-22.6,0.224,-0.486,99.82,2.0,,0.0,0.0,103.17
2025-08-15T03:14:13.929Z,6,GR86-012-8,-22.6,0.241,-0.475,99.82,2.0,,0.0,0.0,
2025-08-15T03:14:13.972Z,6,GR86-012-8,-23.0,0.239,-0.465,99.8,2.0,,0.0,0.0,
2025-08-15T03:14:14.015Z,6,GR86-012-8,-23.1,0.233,-0.461,99.8,2.0,,0.0,0.0,
2025-08-15T03:14:14.058Z,6,GR86-012-8,-23.1,0.225,-0.436,99.8,2.0,6077.0,0.0,0.0,
2025-08-15T03:14:14.101Z,6,GR86-012-8,-23.1,0.212,-0.446,99.81,2.0,,0.0,0.0,104.94
2025-08-15T03:14:14.146Z,6,GR86-012-8,-22.6,0.209,-0.442,99.81,2.0,,0.0,0.0,
2025-08-15T03:14:14.188Z,6,GR86-012-8,-22.3,0.232,-0.433,99.81,2.0,,0.0,0.0,
2025-08-15T03:14:14.231Z,6,GR86-012-8,-21.8,0.229,-0.42,99.82,2.0,,0.0,0.0,
2025-08-15T03:14:14.275Z,6,GR86-012-8,-20.8,0.236,-0.433,99.8,2.0,6170.0,0.0,0.0,
2025-08-15T03:14:14.317Z,6,GR86-012-8,-19.3,0.213,-0.43,99.81,2.0,,0.0,0.0,106.64
2025-08-15T03:14:14.360Z,6,GR86-012-8,-18.1,0.211,-0.443,99.82,2.0,,0.0,0.0,
2025-08-15T03:14:14.406Z,6,GR86-012-8,-17.400000000000002,0.245,-0.428,99.82,2.0,,0.0,0.0,
2025-08-15T03:14:14.449Z,6,GR86-012-8,-17.1,0.233,-0.378,99.81,2.0,,0.0,0.0,
2025-08-15T03:14:14.492Z,6,GR86-012-8,-16.900000000000002,0.208,-0.384,99.81,2.0,6350.0,0.0,0.0,
2025-08-15T03:14:14.535Z,6,GR86-012-8,-16.900000000000002,0.225,-0.363,99.82,2.0,,0.0,0.0,108.43
2025-08-15T03:14:14.578Z,6,GR86-012-8,-16.7,0.213,-0.359,99.82,2.0,,0.0,0.0,
2025-08-15T03:14:14.621Z,6,GR86-012-8,-15.9,0.212,-0.366,99.82,2.0,,0.0,0.0,
2025-08-15T03:14:14.665Z,6,GR86-012-8,-14.3,0.23,-0.339,99.82,2.0,,0.0,0.0,
2025-08-15T03:14:14.708Z,6,GR86-012-8,-13.0,0.22,-0.324,99.8,2.0,6466.0,0.0,0.0,
2025-08-15T03:14:14.751Z,6,GR86-012-8,-11.6,0.212,-0.325,99.82,2.0,,0.0,0.0,109.99
2025-08-15T03:14:14.797Z,6,GR86-012-8,-10.6,0.228,-0.3,99.82,2.0,,0.0,0.0,
2025-08-15T03:14:14.839Z,6,GR86-012-8,-10.0,0.222,-0.309,99.81,2.0,,0.0,0.0,
2025-08-15T03:14:14.882Z,6,GR86-012-8,-9.2,0.233,-0.317,99.81,2.0,,0.0,0.0,
2025-08-15T03:14:14.925Z,6,GR86-012-8,-7.6,0.227,-0.294,99.8,2.0,6580.0,0.0,0.0,
2025-08-15T03:14:14.968Z,6,GR86-012-8,-7.300000000000001,0.242,-0.252,99.81,2.0,,0.0,0.0,111.64
2025-08-15T03:14:15.011Z,6,GR86-012-8,-7.300000000000001,0.215,-0.235,99.81,2.0,,0.0,0.0,
2025-08-15T03:14:15.055Z,6,GR86-012-8,-7.300000000000001,0.206,-0.2,99.82,2.0,,0.0,0.0,
2025-08-15T03:14:15.098Z,6,GR86-012-8,-7.2,0.211,-0.184,99.82,2.0,,0.0,0.0,
2025-08-15T03:14:15.141Z,6,GR86-012-8,-6.800000000000001,0.218,-0.187,99.8,2.0,6652.0,0.0,0.0,
2025-08-15T03:14:15.186Z,6,GR86-012-8,-6.5,0.234,-0.192,99.81,2.0,,0.0,0.0,113.43
2025-08-15T03:14:15.229Z,6,GR86-012-8,-6.5,0.253,-0.181,99.82,2.0,,0.0,0.0,
2025-08-15T03:14:15.272Z,6,GR86-012-8,-6.5,0.228,-0.157,99.81,2.0,,0.0,0.0,
2025-08-15T03:14:15.315Z,6,GR86-012-8,-6.5,0.221,-0.138,99.82,2.0,,0.0,0.0,
2025-08-15T03:14:15.358Z,6,GR86-012-8,-6.5,0.215,-0.117,99.81,2.0,6731.0,0.0,0.0,
2025-08-15T03:14:15.401Z,6,GR86-012-8,-6.5,0.198,-0.118,99.8,2.0,,0.0,0.0,115.2
2025-08-15T03:14:15.445Z,6,GR86-012-8,-6.5,0.218,-0.108,99.83,2.0,,0.0,0.0,
2025-08-15T03:14:15.488Z,6,GR86-012-8,-6.4,0.232,-0.11,99.81,2.0,,0.0,0.0,
2025-08-15T03:14:15.531Z,6,GR86-012-8,-6.1000000000000005,0.236,-0.129,99.81,2.0,,0.0,0.0,
2025-08-15T03:14:15.575Z,6,GR86-012-8,-5.9,0.215,-0.133,99.82,2.0,6863.0,0.0,0.0,
2025-08-15T03:14:15.618Z,6,GR86-012-8,-5.4,0.217,-0.142,99.83,2.0,,0.0,0.0,116.8
2025-08-15T03:14:15.661Z,6,GR86-012-8,-5.2,0.218,-0.136,99.82,2.0,,0.0,0.0,
2025-08-15T03:14:15.705Z,6,GR86-012-8,-5.1000000000000005,0.212,-0.124,99.82,2.0,,0.0,0.0,
2025-08-15T03:14:15.748Z,6,GR86-012-8,-4.9,0.208,-0.124,99.8,2.0,,0.0,0.0,
2025-08-15T03:14:15.791Z,6,GR86-012-8,-4.7,0.212,-0.101,99.83,2.0,6922.0,0.0,0.0,
2025-08-15T03:14:15.835Z,6,GR86-012-8,-4.5,0.219,-0.1,99.83,2.0,,0.0,0.0,118.66
2025-08-15T03:14:15.878Z,6,GR86-012-8,-4.5,0.209,-0.081,99.81,2.0,,0.0,0.0,
2025-08-15T03:14:15.921Z,6,GR86-012-8,-4.4,0.222,-0.078,99.83,2.0,,0.0,0.0,
2025-08-15T03:14:15.965Z,6,GR86-012-8,-4.1000000000000005,0.225,-0.078,99.81,2.0,,0.0,0.0,
2025-08-15T03:14:16.008Z,6,GR86-012-8,-3.8,0.215,-0.071,99.8,2.0,7019.0,0.0,0.0,
2025-08-15T03:14:16.051Z,6,GR86-012-8,-3.7,0.208,-0.085,99.82,2.0,,0.0,0.0,120.29
2025-08-15T03:14:16.097Z,6,GR86-012-8,-3.4000000000000004,0.222,-0.08,99.82,2.0,,0.0,0.0,
2025-08-15T03:14:16.139Z,6,GR86-012-8,-3.0,0.209,-0.074,99.84,2.0,,0.0,0.0,
2025-08-15T03:14:16.182Z,6,GR86-012-8,-2.7,0.212,-0.063,99.84,2.0,,0.0,0.0,
2025-08-15T03:14:16.225Z,6,GR86-012-8,-1.7000000000000002,-0.01,-0.032,99.82,3.0,7116.0,0.0,0.0,
2025-08-15T03:14:16.268Z,6,GR86-012-8,-1.3,-0.03,-0.02,99.82,3.0,,0.0,0.0,121.82
2025-08-15T03:14:16.311Z,6,GR86-012-8,-0.5,0.645,-0.068,99.83,3.0,,0.0,0.0,
2025-08-15T03:14:16.356Z,6,GR86-012-8,-0.3,0.423,-0.068,99.81,3.0,,0.0,0.0,
2025-08-15T03:14:16.399Z,6,GR86-012-8,-0.3,0.2,0.013,99.85,3.0,,0.0,0.0,
2025-08-15T03:14:16.442Z,6,GR86-012-8,-0.3,0.018,-0.062,99.84,3.0,6719.0,0.0,0.0,
2025-08-15T03:14:16.486Z,6,GR86-012-8,-0.5,0.165,-0.006,99.82,3.0,,0.0,0.0,125.01
2025-08-15T03:14:16.529Z,6,GR86-012-8,-0.5,0.219,-0.037,99.82,3.0,,0.0,0.0,
2025-08-15T03:14:16.572Z,6,GR86-012-8,-0.5,0.229,-0.009,99.82,3.0,,0.0,0.0,
2025-08-15T03:14:16.615Z,6,GR86-012-8,-0.5,0.173,0.005,99.81,3.0,,0.0,0.0,
2025-08-15T03:14:16.658Z,6,GR86-012-8,-0.5,0.134,-0.009,99.82,3.0,5899.0,0.0,0.0,
2025-08-15T03:14:16.701Z,6,GR86-012-8,-0.5,0.171,-0.003,99.83,3.0,,0.0,0.0,126.5
2025-08-15T03:14:16.745Z,6,GR86-012-8,-0.5,0.189,-0.004,99.83,3.0,,0.0,0.0,
2025-08-15T03:14:16.788Z,6,GR86-012-8,-0.5,0.186,0.002,99.83,3.0,,0.0,0.0,
2025-08-15T03:14:16.831Z,6,GR86-012-8,-0.5,0.175,0.01,99.83,3.0,,0.0,0.0,
2025-08-15T03:14:16.875Z,6,GR86-012-8,-0.5,0.167,-0.003,99.84,3.0,5967.0,0.0,0.0,
2025-08-15T03:14:16.918Z,6,GR86-012-8,-0.5,0.188,0.002,99.84,3.0,,0.0,0.0,127.76
2025-08-15T03:14:16.961Z,6,GR86-012-8,-0.5,0.172,0.004,99.84,3.0,,0.0,0.0,
2025-08-15T03:14:17.005Z,6,GR86-012-8,-0.5,0.172,-0.001,99.85,3.0,,0.0,0.0,
2025-08-15T03:14:17.048Z,6,GR86-012-8,-0.5,0.175,0.001,99.84,3.0,,0.0,0.0,
2025-08-15T03:14:17.091Z,6,GR86-012-8,-0.5,0.191,0.002,99.84,3.0,6100.0,0.0,0.0,
2025-08-15T03:14:17.135Z,6,GR86-012-8,-0.5,0.203,0.013,99.81,3.0,,0.0,0.0,128.98
2025-08-15T03:14:17.178Z,6,GR86-012-8,-0.5,0.166,0.008,99.83,3.0,,0.0,0.0,
2025-08-15T03:14:17.221Z,6,GR86-012-8,-0.5,0.159,-0.001,99.85,3.0,,0.0,0.0,
2025-08-15T03:14:17.265Z,6,GR86-012-8,-0.5,0.162,0.002,99.83,3.0,,0.0,0.0,
2025-08-15T03:14:17.308Z,6,GR86-012-8,-0.5,0.188,-0.008,99.83,3.0,6165.0,0.0,0.0,
2025-08-15T03:14:17.351Z,6,GR86-012-8,-0.5,0.191,-0.006,99.84,3.0,,0.0,0.0,130.29
2025-08-15T03:14:17.396Z,6,GR86-012-8,-0.5,0.165,-0.017,99.84,3.0,,0.0,0.0,
2025-08-15T03:14:17.439Z,6,GR86-012-8,-0.5,0.152,-0.011,99.85,3.0,,0.0,0.0,
2025-08-15T03:14:17.482Z,6,GR86-012-8,-0.5,0.178,-0.011,99.84,3.0,,0.0,0.0,
2025-08-15T03:14:17.525Z,6,GR86-012-8,-0.5,0.174,-0.003,99.84,3.0,6210.0,0.0,0.0,
2025-08-15T03:14:17.568Z,6,GR86-012-8,-0.5,0.181,0.002,99.81,3.0,,0.0,0.0,131.62
2025-08-15T03:14:17.611Z,6,GR86-012-8,-0.5,0.167,-0.005,99.8,3.0,,0.0,0.0,
2025-08-15T03:14:17.655Z,6,GR86-012-8,-0.5,0.162,0.001,99.82,3.0,,0.0,0.0,
2025-08-15T03:14:17.698Z,6,GR86-012-8,-0.5,0.171,-0.003,99.83,3.0,,0.0,0.0,
2025-08-15T03:14:17.741Z,6,GR86-012-8,-0.5,0.176,0.006,99.84,3.0,6260.0,0.0,0.0,
2025-08-15T03:14:17.786Z,6,GR86-012-8,-0.5,0.185,0.011,99.83,3.0,,0.0,0.0,132.91
2025-08-15T03:14:17.829Z,6,GR86-012-8,-0.5,0.162,0.01,99.85,3.0,,0.0,0.0,
2025-08-15T03:14:17.872Z,6,GR86-012-8,-0.5,0.157,-0.002,99.85,3.0,,0.0,0.0,
2025-08-15T03:14:17.915Z,6,GR86-012-8,-0.5,0.164,0.005,99.84,3.0,,0.0,0.0,
2025-08-15T03:14:17.958Z,6,GR86-012-8,-0.5,0.179,0.008,99.83,3.0,6309.0,0.0,0.0,
2025-08-15T03:14:18.001Z,6,GR86-012-8,-0.5,0.168,0.011,99.83,3.0,,0.0,0.0,134.13
2025-08-15T03:14:18.046Z,6,GR86-012-8,-0.5,0.17,0.007,99.83,3.0,,0.0,0.0,
2025-08-15T03:14:18.088Z,6,GR86-012-8,-0.5,0.155,0.0,99.85,3.0,,0.0,0.0,
2025-08-15T03:14:18.131Z,6,GR86-012-8,-0.5,0.162,0.006,99.82,3.0,,0.0,0.0,
2025-08-15T03:14:18.175Z,6,GR86-012-8,-0.5,0.178,-0.003,99.85,3.0,6363.0,0.0,0.0,
2025-08-15T03:14:18.217Z,6,GR86-012-8,-0.5,0.177,0.004,99.84,3.0,,0.0,0.0,135.28
2025-08-15T03:14:18.260Z,6,GR86-012-8,-0.6000000000000001,0.162,-0.005,99.81,3.0,,0.0,0.0,
2025-08-15T03:14:18.306Z,6,GR86-012-8,-0.9,0.162,-0.006,99.84,3.0,,0.0,0.0,
2025-08-15T03:14:18.349Z,6,GR86-012-8,-1.2000000000000002,0.151,-0.019,99.82,3.0,,0.0,0.0,
2025-08-15T03:14:18.392Z,6,GR86-012-8,-1.6,0.165,-0.026,99.84,3.0,6433.0,0.0,0.0,
2025-08-15T03:14:18.435Z,6,GR86-012-8,-2.2,0.176,-0.023,99.84,3.0,,0.0,0.0,136.43
2025-08-15T03:14:18.478Z,6,GR86-012-8,-2.5,0.174,-0.027,99.84,3.0,,0.0,0.0,
2025-08-15T03:14:18.521Z,6,GR86-012-8,-2.7,0.157,-0.039,99.82,3.0,,0.0,0.0,
2025-08-15T03:14:18.565Z,6,GR86-012-8,-2.7,0.153,-0.034,99.84,3.0,,0.0,0.0,
2025-08-15T03:14:18.608Z,6,GR86-012-8,-2.7,0.16,-0.046,99.84,3.0,6481.0,0.0,0.0,
2025-08-15T03:14:18.651Z,6,GR86-012-8,-2.7,0.182,-0.056,99.84,3.0,,0.0,0.0,137.63
2025-08-15T03:14:18.696Z,6,GR86-012-8,-2.7,0.171,-0.047,99.84,3.0,,0.0,0.0,
2025-08-15T03:14:18.739Z,6,GR86-012-8,-2.7,0.165,-0.055,99.82,3.0,,0.0,0.0,
2025-08-15T03:14:18.782Z,6,GR86-012-8,-2.7,0.16,-0.054,99.83,3.0,,0.0,0.0,
2025-08-15T03:14:18.828Z,6,GR86-012-8,-2.7,0.168,-0.054,99.85,3.0,6539.0,0.0,0.0,
2025-08-15T03:14:18.871Z,6,GR86-012-8,-2.7,0.158,-0.053,99.84,3.0,,0.0,0.0,138.79
2025-08-15T03:14:18.915Z,6,GR86-012-8,-2.7,0.165,-0.061,99.82,3.0,,0.0,0.0,
2025-08-15T03:14:18.957Z,6,GR86-012-8,-2.7,0.157,-0.053,99.83,3.0,,0.0,0.0,
2025-08-15T03:14:19.000Z,6,GR86-012-8,-2.7,0.161,-0.06,99.83,3.0,,0.0,0.0,
2025-08-15T03:14:19.045Z,6,GR86-012-8,-2.7,0.166,-0.069,99.84,3.0,6593.0,0.0,0.0,
2025-08-15T03:14:19.088Z,6,GR86-012-8,-2.7,0.16,-0.067,99.84,3.0,,0.0,0.0,141.09
2025-08-15T03:14:19.131Z,6,GR86-012-8,-2.8000000000000003,0.156,-0.06,99.83,3.0,,0.0,0.0,
2025-08-15T03:14:19.175Z,6,GR86-012-8,-2.9000000000000004,0.157,-0.046,99.83,3.0,,0.0,0.0,
2025-08-15T03:14:19.218Z,6,GR86-012-8,-2.9000000000000004,0.155,-0.055,99.83,3.0,,0.0,0.0,
2025-08-15T03:14:19.261Z,6,GR86-012-8,-2.9000000000000004,0.156,-0.066,99.84,3.0,6643.0,0.0,0.0,
2025-08-15T03:14:19.306Z,6,GR86-012-8,-2.9000000000000004,0.173,-0.06,99.83,3.0,,0.0,0.0,142.19
2025-08-15T03:14:19.348Z,6,GR86-012-8,-2.9000000000000004,0.156,-0.067,99.82,3.0,,0.0,0.0,
2025-08-15T03:14:19.391Z,6,GR86-012-8,-2.9000000000000004,0.147,-0.063,99.83,3.0,,0.0,0.0,
2025-08-15T03:14:19.435Z,6,GR86-012-8,-2.9000000000000004,0.147,-0.067,99.84,3.0,,0.0,0.0,
2025-08-15T03:14:19.478Z,6,GR86-012-8,-2.9000000000000004,0.162,-0.066,99.84,3.0,6704.0,0.0,0.0,
2025-08-15T03:14:19.521Z,6,GR86-012-8,-2.9000000000000004,0.167,-0.072,99.84,3.0,,0.0,0.0,143.3
2025-08-15T03:14:19.565Z,6,GR86-012-8,-2.9000000000000004,0.153,-0.068,99.83,3.0,,0.0,0.0,
2025-08-15T03:14:19.608Z,6,GR86-012-8,-2.9000000000000004,0.149,-0.063,99.81,3.0,,0.0,0.0,
2025-08-15T03:14:19.651Z,6,GR86-012-8,-2.9000000000000004,0.155,-0.068,99.82,3.0,,0.0,0.0,
2025-08-15T03:14:19.697Z,6,GR86-012-8,-2.9000000000000004,0.153,-0.068,99.81,3.0,6799.0,0.0,0.0,
2025-08-15T03:14:19.739Z,6,GR86-012-8,-2.9000000000000004,0.152,-0.056,99.85,3.0,,0.0,0.0,144.45000000000002
2025-08-15T03:14:19.782Z,6,GR86-012-8,-2.9000000000000004,0.15,-0.051,99.83,3.0,,0.0,0.0,
2025-08-15T03:14:19.825Z,6,GR86-012-8,-2.9000000000000004,0.167,-0.063,99.82,3.0,,0.0,0.0,
2025-08-15T03:14:19.868Z,6,GR86-012-8,-2.9000000000000004,0.156,-0.053,99.84,3.0,,0.0,0.0,
2025-08-15T03:14:19.956Z,6,GR86-012-8,-2.9000000000000004,0.145,-0.066,99.83,3.0,6853.0,0.0,0.0,145.6
2025-08-15T03:14:19.999Z,6,GR86-012-8,-2.9000000000000004,0.154,-0.067,99.84,3.0,,0.0,0.0,
2025-08-15T03:14:20.042Z,6,GR86-012-8,-2.9000000000000004,0.152,-0.053,99.82,3.0,,0.0,0.0,
2025-08-15T03:14:20.086Z,6,GR86-012-8,-2.9000000000000004,0.149,-0.056,99.84,3.0,,0.0,0.0,
2025-08-15T03:14:20.172Z,6,GR86-012-8,-2.9000000000000004,0.165,-0.065,99.84,3.0,6914.0,0.0,0.0,146.67000000000002
2025-08-15T03:14:20.215Z,6,GR86-012-8,-2.9000000000000004,0.153,-0.067,99.84,3.0,,0.0,0.0,
2025-08-15T03:14:20.258Z,6,GR86-012-8,-2.9000000000000004,0.146,-0.075,99.85,3.0,,0.0,0.0,
2025-08-15T03:14:20.301Z,6,GR86-012-8,-2.9000000000000004,0.144,-0.08,99.82,3.0,,0.0,0.0,
2025-08-15T03:14:20.345Z,6,GR86-012-8,-3.0,0.145,-0.073,99.83,3.0,6951.0,0.0,0.0,
2025-08-15T03:14:20.431Z,6,GR86-012-8,-3.4000000000000004,0.147,-0.082,99.84,3.0,,0.0,0.0,147.87
2025-08-15T03:14:20.475Z,6,GR86-012-8,-3.4000000000000004,0.164,-0.072,99.82,3.0,,0.0,0.0,
2025-08-15T03:14:20.518Z,6,GR86-012-8,-3.4000000000000004,0.164,-0.064,99.84,3.0,,0.0,0.0,
2025-08-15T03:14:20.561Z,6,GR86-012-8,-3.4000000000000004,0.147,-0.062,99.83,3.0,7007.0,0.0,0.0,
2025-08-15T03:14:20.605Z,6,GR86-012-8,-3.4000000000000004,0.144,-0.081,99.81,3.0,,0.0,0.0,148.95000000000002
2025-08-15T03:14:20.648Z,6,GR86-012-8,-3.4000000000000004,-0.121,-0.048,99.83,3.0,,0.0,0.0,
2025-08-15T03:14:20.691Z,6,GR86-012-8,-3.4000000000000004,-0.051,-0.048,99.81,4.0,,0.0,0.0,
2025-08-15T03:14:20.735Z,6,GR86-012-8,-3.3000000000000003,0.413,-0.11,99.81,4.0,,0.0,0.0,
2025-08-15T03:14:20.778Z,6,GR86-012-8,-3.1,0.289,-0.114,99.82,4.0,6677.0,0.0,0.0,
2025-08-15T03:14:20.821Z,6,GR86-012-8,-3.3000000000000003,0.089,-0.046,99.83,4.0,,0.0,0.0,150.06
2025-08-15T03:14:20.865Z,6,GR86-012-8,-3.9,0.063,-0.12,99.81,4.0,,0.0,0.0,
2025-08-15T03:14:20.908Z,6,GR86-012-8,-4.0,0.15,-0.086,99.82,4.0,,0.0,0.0,
2025-08-15T03:14:20.951Z,6,GR86-012-8,-4.4,0.151,-0.08,99.82,4.0,,0.0,0.0,
2025-08-15T03:14:20.996Z,6,GR86-012-8,-5.2,0.126,-0.104,99.82,4.0,5962.0,0.0,0.0,
2025-08-15T03:14:21.039Z,6,GR86-012-8,-6.1000000000000005,0.117,-0.096,99.83,4.0,,0.0,0.0,150.84
2025-08-15T03:14:21.082Z,6,GR86-012-8,-6.7,0.13,-0.123,99.82,4.0,,0.0,0.0,
2025-08-15T03:14:21.125Z,6,GR86-012-8,-6.7,0.129,-0.134,99.83,4.0,,0.0,0.0,
2025-08-15T03:14:21.211Z,6,GR86-012-8,-6.7,0.11,-0.166,99.82,4.0,6015.0,0.0,0.0,
2025-08-15T03:14:21.255Z,6,GR86-012-8,-6.7,0.122,-0.171,99.81,4.0,,0.0,0.0,151.75
2025-08-15T03:14:21.298Z,6,GR86-012-8,-6.7,0.133,-0.176,99.83,4.0,,0.0,0.0,
2025-08-15T03:14:21.341Z,6,GR86-012-8,-6.800000000000001,0.125,-0.192,99.82,4.0,,0.0,0.0,
2025-08-15T03:14:21.386Z,6,GR86-012-8,-6.9,0.105,-0.196,99.83,4.0,,0.0,0.0,
2025-08-15T03:14:21.429Z,6,GR86-012-8,-6.9,0.133,-0.204,99.83,4.0,6049.0,0.0,0.0,
2025-08-15T03:14:21.472Z,6,GR86-012-8,-6.9,0.133,-0.204,99.84,4.0,,0.0,0.0,152.68
2025-08-15T03:14:21.515Z,6,GR86-012-8,-6.9,0.126,-0.206,99.84,4.0,,0.0,0.0,
2025-08-15T03:14:21.558Z,6,GR86-012-8,-6.9,0.115,-0.216,99.84,4.0,,0.0,0.0,
2025-08-15T03:14:21.601Z,6,GR86-012-8,-6.9,0.113,-0.213,99.84,4.0,,0.0,0.0,
2025-08-15T03:14:21.646Z,6,GR86-012-8,-6.9,0.128,-0.211,99.81,4.0,6082.0,0.0,0.0,
2025-08-15T03:14:21.688Z,6,GR86-012-8,-6.9,0.113,-0.221,99.8,4.0,,0.0,0.0,154.52
2025-08-15T03:14:21.731Z,6,GR86-012-8,-6.9,0.113,-0.222,99.81,4.0,,0.0,0.0,
2025-08-15T03:14:21.775Z,6,GR86-012-8,-6.9,0.106,-0.21,99.82,4.0,,0.0,0.0,
2025-08-15T03:14:21.818Z,6,GR86-012-8,-6.9,0.11,-0.208,99.82,4.0,,0.0,0.0,
2025-08-15T03:14:21.861Z,6,GR86-012-8,-6.9,0.121,-0.209,99.84,4.0,6115.0,0.0,0.0,
2025-08-15T03:14:21.906Z,6,GR86-012-8,-6.6000000000000005,0.115,-0.215,99.83,4.0,,0.0,0.0,155.43
2025-08-15T03:14:21.949Z,6,GR86-012-8,-6.5,0.117,-0.211,99.84,4.0,,0.0,0.0,
2025-08-15T03:14:21.992Z,6,GR86-012-8,-6.5,0.124,-0.208,99.85,4.0,,0.0,0.0,
2025-08-15T03:14:22.035Z,6,GR86-012-8,-6.300000000000001,0.128,-0.204,99.84,4.0,,0.0,0.0,
2025-08-15T03:14:22.078Z,6,GR86-012-8,-6.2,0.123,-0.199,99.82,4.0,6162.0,0.0,0.0,
2025-08-15T03:14:22.121Z,6,GR86-012-8,-6.1000000000000005,0.113,-0.189,99.83,4.0,,0.0,0.0,156.47
2025-08-15T03:14:22.165Z,6,GR86-012-8,-6.0,0.12,-0.17,99.81,4.0,,0.0,0.0,
2025-08-15T03:14:22.208Z,6,GR86-012-8,-5.9,0.121,-0.164,99.81,4.0,,0.0,0.0,
2025-08-15T03:14:22.251Z,6,GR86-012-8,-5.800000000000001,0.121,-0.176,99.82,4.0,,0.0,0.0,
2025-08-15T03:14:22.296Z,6,GR86-012-8,-5.4,0.106,-0.183,99.82,4.0,6225.0,0.0,0.0,
2025-08-15T03:14:22.339Z,6,GR86-012-8,-5.1000000000000005,0.107,-0.193,99.82,4.0,,0.0,0.0,157.37
2025-08-15T03:14:22.382Z,6,GR86-012-8,-4.9,0.113,-0.19,99.83,4.0,,0.0,0.0,
2025-08-15T03:14:22.425Z,6,GR86-012-8,-4.9,0.104,-0.165,99.83,4.0,,0.0,0.0,
2025-08-15T03:14:22.468Z,6,GR86-012-8,-4.9,0.098,-0.151,99.83,4.0,,0.0,0.0,
2025-08-15T03:14:22.511Z,6,GR86-012-8,-4.9,0.106,-0.149,99.84,4.0,6258.0,0.0,0.0,
2025-08-15T03:14:22.555Z,6,GR86-012-8,-4.9,0.115,-0.151,99.83,4.0,,0.0,0.0,158.38
2025-08-15T03:14:22.597Z,6,GR86-012-8,-4.9,0.115,-0.145,99.85,4.0,,0.0,0.0,
2025-08-15T03:14:22.640Z,6,GR86-012-8,-4.9,0.119,-0.135,99.83,4.0,,0.0,0.0,
2025-08-15T03:14:22.686Z,6,GR86-012-8,-4.9,0.094,-0.129,99.84,4.0,,0.0,0.0,
2025-08-15T03:14:22.729Z,6,GR86-012-8,-4.9,0.107,-0.135,99.82,4.0,6303.0,0.0,0.0,
2025-08-15T03:14:22.772Z,6,GR86-012-8,-4.9,0.11,-0.13,99.81,4.0,,0.0,0.0,159.33
2025-08-15T03:14:22.815Z,6,GR86-012-8,-4.9,0.114,-0.134,99.82,4.0,,0.0,0.0,
2025-08-15T03:14:22.858Z,6,GR86-012-8,-4.9,0.113,-0.141,99.81,4.0,,0.0,0.0,
2025-08-15T03:14:22.901Z,6,GR86-012-8,-4.9,0.107,-0.149,99.84,4.0,,0.0,0.0,
2025-08-15T03:14:22.945Z,6,GR86-012-8,-4.9,0.112,-0.127,99.85,4.0,6332.0,0.0,0.0,
2025-08-15T03:14:22.988Z,6,GR86-012-8,-4.9,0.11,-0.123,99.82,4.0,,0.0,0.0,160.3
2025-08-15T03:14:23.031Z,6,GR86-012-8,-4.9,0.119,-0.126,99.82,4.0,,0.0,0.0,
2025-08-15T03:14:23.075Z,6,GR86-012-8,-4.9,0.11,-0.139,99.82,4.0,,0.0,0.0,
2025-08-15T03:14:23.118Z,6,GR86-012-8,-4.9,0.1,-0.139,99.84,4.0,,0.0,0.0,
2025-08-15T03:14:23.161Z,6,GR86-012-8,-4.9,0.102,-0.134,99.83,4.0,6368.0,0.0,0.0,
2025-08-15T03:14:23.205Z,6,GR86-012-8,-4.9,0.118,-0.124,99.83,4.0,,0.0,0.0,161.25
2025-08-15T03:14:23.248Z,6,GR86-012-8,-4.9,0.103,-0.113,99.82,4.0,,0.0,0.0,
2025-08-15T03:14:23.291Z,6,GR86-012-8,-4.800000000000001,0.087,-0.104,99.82,4.0,,0.0,0.0,
2025-08-15T03:14:23.336Z,6,GR86-012-8,-4.6000000000000005,0.097,-0.113,99.81,4.0,,0.0,0.0,
2025-08-15T03:14:23.378Z,6,GR86-012-8,-4.5,0.098,-0.108,99.81,4.0,6395.0,0.0,0.0,
2025-08-15T03:14:23.421Z,6,GR86-012-8,-4.5,0.112,-0.09,99.83,4.0,,0.0,0.0,162.17000000000002
2025-08-15T03:14:23.465Z,6,GR86-012-8,-4.5,0.093,-0.107,99.84,4.0,,0.0,0.0,
2025-08-15T03:14:23.508Z,6,GR86-012-8,-4.5,0.096,-0.102,99.85,4.0,,0.0,0.0,
2025-08-15T03:14:23.551Z,6,GR86-012-8,-4.5,0.102,-0.102,99.84,4.0,,0.0,0.0,
2025-08-15T03:14:23.597Z,6,GR86-012-8,-4.5,0.117,-0.09,99.82,4.0,6431.0,0.0,0.0,
2025-08-15T03:14:23.639Z,6,GR86-012-8,-4.5,0.107,-0.09,99.83,4.0,,0.0,0.0,163.07
2025-08-15T03:14:23.682Z,6,GR86-012-8,-4.5,0.108,-0.097,99.85,4.0,,0.0,0.0,
2025-08-15T03:14:23.725Z,6,GR86-012-8,-4.5,0.107,-0.119,99.84,4.0,,0.0,0.0,
2025-08-15T03:14:23.768Z,6,GR86-012-8,-4.5,0.104,-0.116,99.83,4.0,,0.0,0.0,
2025-08-15T03:14:23.811Z,6,GR86-012-8,-4.5,0.106,-0.106,99.81,4.0,6471.0,0.0,0.0,
2025-08-15T03:14:23.856Z,6,GR86-012-8,-4.5,0.113,-0.111,99.84,4.0,,0.0,0.0,163.81
2025-08-15T03:14:23.899Z,6,GR86-012-8,-4.5,0.127,-0.113,99.82,4.0,,0.0,0.0,
2025-08-15T03:14:23.942Z,6,GR86-012-8,-4.5,0.114,-0.11,99.83,4.0,,0.0,0.0,
2025-08-15T03:14:23.986Z,6,GR86-012-8,-4.5,0.106,-0.127,99.84,4.0,,0.0,0.0,
2025-08-15T03:14:24.028Z,6,GR86-012-8,-4.5,0.109,-0.113,99.81,4.0,6519.0,0.0,0.0,
2025-08-15T03:14:24.071Z,6,GR86-012-8,-4.5,0.116,-0.118,99.83,4.0,,0.0,0.0,164.79
2025-08-15T03:14:24.115Z,6,GR86-012-8,-4.5,0.111,-0.114,99.83,4.0,,0.0,0.0,
2025-08-15T03:14:24.200Z,6,GR86-012-8,-4.5,0.117,-0.108,99.84,4.0,,0.0,0.0,
2025-08-15T03:14:24.245Z,6,GR86-012-8,-4.5,0.102,-0.099,99.82,4.0,6550.0,0.0,0.0,
2025-08-15T03:14:24.288Z,6,GR86-012-8,-4.5,0.113,-0.094,99.81,4.0,,0.0,0.0,166.76
2025-08-15T03:14:24.331Z,6,GR86-012-8,-4.5,0.116,-0.096,99.82,4.0,,0.0,0.0,
2025-08-15T03:14:24.375Z,6,GR86-012-8,-4.4,0.109,-0.091,99.82,4.0,,0.0,0.0,
2025-08-15T03:14:24.418Z,6,GR86-012-8,-4.4,0.116,-0.095,99.82,4.0,,0.0,0.0,
2025-08-15T03:14:24.461Z,6,GR86-012-8,-4.4,0.104,-0.102,99.82,4.0,6585.0,0.0,0.0,
2025-08-15T03:14:24.548Z,6,GR86-012-8,-4.1000000000000005,0.113,-0.096,99.8,4.0,,0.0,0.0,
2025-08-15T03:14:24.635Z,6,GR86-012-8,-4.2,0.1,-0.104,99.82,4.0,,0.0,0.0,167.57
2025-08-15T03:14:24.677Z,6,GR86-012-8,-4.1000000000000005,0.117,-0.11,99.83,4.0,6621.0,0.0,0.0,
2025-08-15T03:14:24.720Z,6,GR86-012-8,-4.1000000000000005,0.112,-0.105,99.85,4.0,,0.0,0.0,168.4
2025-08-15T03:14:24.765Z,6,GR86-012-8,-4.0,0.108,-0.115,99.84,4.0,,0.0,0.0,
2025-08-15T03:14:24.808Z,6,GR86-012-8,-3.9,0.107,-0.122,99.82,4.0,,0.0,0.0,
2025-08-15T03:14:24.851Z,6,GR86-012-8,-3.8,0.118,-0.107,99.82,4.0,,0.0,0.0,
2025-08-15T03:14:24.896Z,6,GR86-012-8,-3.8,0.118,-0.092,99.84,4.0,6683.0,0.0,0.0,
2025-08-15T03:14:24.939Z,6,GR86-012-8,-3.8,0.105,-0.086,99.86,4.0,,0.0,0.0,169.45000000000002
2025-08-15T03:14:24.982Z,6,GR86-012-8,-3.8,0.11,-0.079,99.85,4.0,,0.0,0.0,
2025-08-15T03:14:25.025Z,6,GR86-012-8,-3.7,0.1,-0.085,99.82,4.0,,0.0,0.0,
2025-08-15T03:14:25.068Z,6,GR86-012-8,-3.3000000000000003,0.101,-0.081,99.82,4.0,,0.0,0.0,
2025-08-15T03:14:25.111Z,6,GR86-012-8,-3.0,0.103,-0.095,99.82,4.0,6723.0,0.0,0.0,
2025-08-15T03:14:25.198Z,6,GR86-012-8,-2.9000000000000004,0.106,-0.086,99.81,4.0,,0.0,0.0,170.17000000000002
2025-08-15T03:14:25.241Z,6,GR86-012-8,-2.9000000000000004,0.107,-0.071,99.82,4.0,,0.0,0.0,
2025-08-15T03:14:25.286Z,6,GR86-012-8,-2.9000000000000004,0.075,-0.049,99.83,4.0,,0.0,0.0,
2025-08-15T03:14:25.329Z,6,GR86-012-8,-2.9000000000000004,0.088,-0.051,99.84,4.0,6751.0,0.0,0.0,
2025-08-15T03:14:25.372Z,6,GR86-012-8,-2.9000000000000004,0.091,-0.051,99.82,4.0,,0.0,0.0,171.13
2025-08-15T03:14:25.415Z,6,GR86-012-8,-2.9000000000000004,0.097,-0.051,99.82,4.0,,0.0,0.0,
2025-08-15T03:14:25.458Z,6,GR86-012-8,-2.9000000000000004,0.093,-0.044,99.82,4.0,,0.0,0.0,
2025-08-15T03:14:25.501Z,6,GR86-012-8,-2.9000000000000004,0.092,-0.057,99.83,4.0,,0.0,0.0,
2025-08-15T03:14:25.546Z,6,GR86-012-8,-2.9000000000000004,0.075,-0.064,99.82,4.0,6776.0,0.0,0.0,
2025-08-15T03:14:25.588Z,6,GR86-012-8,-2.9000000000000004,0.078,-0.058,99.82,4.0,,0.0,0.0,171.94
2025-08-15T03:14:25.631Z,6,GR86-012-8,-2.9000000000000004,0.072,-0.061,99.82,4.0,,0.0,0.0,
2025-08-15T03:14:25.675Z,6,GR86-012-8,-2.9000000000000004,0.07,-0.053,99.82,4.0,,0.0,0.0,
2025-08-15T03:14:25.717Z,6,GR86-012-8,-2.9000000000000004,0.077,-0.054,99.82,4.0,,0.0,0.0,
2025-08-15T03:14:25.760Z,6,GR86-012-8,-2.9000000000000004,0.082,-0.046,99.81,4.0,6808.0,0.0,0.0,
2025-08-15T03:14:25.806Z,6,GR86-012-8,-2.9000000000000004,0.08,-0.056,99.83,4.0,,0.0,0.0,172.8
2025-08-15T03:14:25.849Z,6,GR86-012-8,-2.9000000000000004,0.084,-0.057,99.82,4.0,,0.0,0.0,
2025-08-15T03:14:25.892Z,6,GR86-012-8,-2.9000000000000004,0.088,-0.052,99.82,4.0,,0.0,0.0,
2025-08-15T03:14:25.935Z,6,GR86-012-8,-2.9000000000000004,0.071,-0.033,99.83,4.0,,0.0,0.0,
2025-08-15T03:14:25.978Z,6,GR86-012-8,-2.9000000000000004,0.061,-0.043,99.83,4.0,6855.0,0.0,0.0,
2025-08-15T03:14:26.021Z,6,GR86-012-8,-2.9000000000000004,0.065,-0.043,99.85,4.0,,0.0,0.0,173.54
2025-08-15T03:14:26.065Z,6,GR86-012-8,-2.9000000000000004,0.098,-0.038,99.82,4.0,,0.0,0.0,
2025-08-15T03:14:26.108Z,6,GR86-012-8,-2.9000000000000004,0.102,-0.043,99.82,4.0,,0.0,0.0,
2025-08-15T03:14:26.151Z,6,GR86-012-8,-2.9000000000000004,0.095,-0.035,99.84,4.0,,0.0,0.0,
2025-08-15T03:14:26.197Z,6,GR86-012-8,-2.9000000000000004,0.089,-0.041,99.83,4.0,6881.0,0.0,0.0,
2025-08-15T03:14:26.239Z,6,GR86-012-8,-2.9000000000000004,0.089,-0.042,99.83,4.0,,0.0,0.0,174.36
2025-08-15T03:14:26.282Z,6,GR86-012-8,-2.9000000000000004,0.082,-0.043,99.81,4.0,,0.0,0.0,
2025-08-15T03:14:26.325Z,6,GR86-012-8,-3.0,0.085,-0.03,99.82,4.0,,0.0,0.0,
2025-08-15T03:14:26.629Z,6,GR86-012-8,-3.4000000000000004,0.067,-0.065,99.8,4.0,6945.0,0.0,0.0,
2025-08-15T03:14:26.715Z,6,GR86-012-8,-3.4000000000000004,0.058,-0.062,99.82,4.0,,0.0,0.0,175.69
2025-08-15T03:14:26.758Z,6,GR86-012-8,-2.9000000000000004,0.075,-0.068,99.81,4.0,,0.0,0.0,
2025-08-15T03:14:26.801Z,6,GR86-012-8,-2.6,0.005,-0.064,99.81,5.0,,0.0,0.0,
2025-08-15T03:14:26.888Z,6,GR86-012-8,-2.5,0.138,0.01,99.82,5.0,6961.0,0.0,0.0,177.38
2025-08-15T03:14:26.931Z,6,GR86-012-8,-2.1,-0.003,-0.007,99.82,5.0,,0.0,0.0,
2025-08-15T03:14:26.975Z,6,GR86-012-8,-2.7,-0.02,-0.01,99.82,5.0,,0.0,0.0,
2025-08-15T03:14:27.061Z,6,GR86-012-8,-2.9000000000000004,0.072,-0.061,99.82,5.0,6358.0,0.0,0.0,
2025-08-15T03:14:27.105Z,6,GR86-012-8,-2.9000000000000004,0.056,-0.036,99.8,5.0,,0.0,0.0,177.69
2025-08-15T03:14:27.148Z,6,GR86-012-8,-2.9000000000000004,0.068,-0.03,99.8,5.0,,0.0,0.0,
2025-08-15T03:14:27.191Z,6,GR86-012-8,-2.9000000000000004,0.074,-0.02,99.81,5.0,,0.0,0.0,
2025-08-15T03:14:27.235Z,6,GR86-012-8,-3.1,0.062,-0.032,99.82,5.0,,0.0,0.0,
2025-08-15T03:14:27.278Z,6,GR86-012-8,-3.1,0.065,-0.033,99.83,5.0,6082.0,0.0,0.0,
2025-08-15T03:14:27.321Z,6,GR86-012-8,-3.1,0.067,-0.034,99.82,5.0,,0.0,0.0,178.47
2025-08-15T03:14:27.365Z,6,GR86-012-8,-3.3000000000000003,0.044,-0.043,99.82,5.0,,0.0,0.0,
2025-08-15T03:14:27.408Z,6,GR86-012-8,-3.4000000000000004,0.05,-0.054,99.82,5.0,,0.0,0.0,
2025-08-15T03:14:27.451Z,6,GR86-012-8,-3.4000000000000004,0.054,-0.056,99.82,5.0,,0.0,0.0,
2025-08-15T03:14:27.496Z,6,GR86-012-8,-3.4000000000000004,0.056,-0.068,99.81,5.0,6119.0,0.0,0.0,
2025-08-15T03:14:27.539Z,6,GR86-012-8,-3.5,0.052,-0.072,99.81,5.0,,0.0,0.0,178.89
2025-08-15T03:14:27.582Z,6,GR86-012-8,-3.6,0.046,-0.078,99.82,5.0,,0.0,0.0,
2025-08-15T03:14:27.625Z,6,GR86-012-8,-3.6,0.064,-0.066,99.82,5.0,,0.0,0.0,
2025-08-15T03:14:27.668Z,6,GR86-012-8,-3.6,0.067,-0.062,99.81,5.0,,0.0,0.0,
2025-08-15T03:14:27.711Z,6,GR86-012-8,-3.6,0.061,-0.074,99.81,5.0,6131.0,0.0,0.0,
2025-08-15T03:14:27.756Z,6,GR86-012-8,-3.6,0.058,-0.066,99.82,5.0,,0.0,0.0,179.73
2025-08-15T03:14:27.799Z,6,GR86-012-8,-3.6,0.067,-0.059,99.82,5.0,,0.0,0.0,
2025-08-15T03:14:27.842Z,6,GR86-012-8,-3.6,0.061,-0.059,99.82,5.0,,0.0,0.0,
2025-08-15T03:14:27.886Z,6,GR86-012-8,-3.6,0.067,-0.088,99.81,5.0,,0.0,0.0,
2025-08-15T03:14:27.929Z,6,GR86-012-8,-3.6,0.063,-0.095,99.81,5.0,6152.0,0.0,0.0,
2025-08-15T03:14:27.972Z,6,GR86-012-8,-3.6,0.062,-0.094,99.82,5.0,,0.0,0.0,180.3
2025-08-15T03:14:28.015Z,6,GR86-012-8,-3.6,0.065,-0.096,99.81,5.0,,0.0,0.0,
2025-08-15T03:14:28.058Z,6,GR86-012-8,-3.6,0.065,-0.092,99.8,5.0,,0.0,0.0,
2025-08-15T03:14:28.101Z,6,GR86-012-8,-3.6,0.066,-0.103,99.81,5.0,,0.0,0.0,
2025-08-15T03:14:28.145Z,6,GR86-012-8,-3.3000000000000003,0.055,-0.084,99.83,5.0,6181.0,0.0,0.0,
2025-08-15T03:14:28.188Z,6,GR86-012-8,-2.9000000000000004,0.059,-0.07,99.82,5.0,,0.0,0.0,180.81
2025-08-15T03:14:28.231Z,6,GR86-012-8,-2.5,0.051,-0.068,99.81,5.0,,0.0,0.0,
2025-08-15T03:14:28.275Z,6,GR86-012-8,-2.4000000000000004,0.052,-0.073,99.81,5.0,,0.0,0.0,
2025-08-15T03:14:28.318Z,6,GR86-012-8,-2.3000000000000003,0.053,-0.06,99.82,5.0,,0.0,0.0,
2025-08-15T03:14:28.361Z,6,GR86-012-8,-2.1,0.062,-0.055,99.81,5.0,6192.0,0.0,0.0,
2025-08-15T03:14:28.405Z,6,GR86-012-8,-1.6,0.07,-0.064,99.81,5.0,,0.0,0.0,181.49
2025-08-15T03:14:28.448Z,6,GR86-012-8,-1.6,0.072,-0.056,99.83,5.0,,0.0,0.0,
2025-08-15T03:14:28.491Z,6,GR86-012-8,-1.6,0.076,-0.043,99.82,5.0,,0.0,0.0,
2025-08-15T03:14:28.535Z,6,GR86-012-8,-1.6,0.071,-0.042,99.82,5.0,,0.0,0.0,
2025-08-15T03:14:28.578Z,6,GR86-012-8,-1.6,0.073,-0.041,99.82,5.0,6213.0,0.0,0.0,
2025-08-15T03:14:28.621Z,6,GR86-012-8,-1.6,0.077,-0.036,99.82,5.0,,0.0,0.0,182.11
2025-08-15T03:14:28.665Z,6,GR86-012-8,-1.5,0.062,-0.029,99.81,5.0,,0.0,0.0,
2025-08-15T03:14:28.708Z,6,GR86-012-8,-1.4,0.061,-0.027,99.82,5.0,,0.0,0.0,
2025-08-15T03:14:28.751Z,6,GR86-012-8,-1.3,0.061,-0.019,99.81,5.0,,0.0,0.0,
2025-08-15T03:14:28.797Z,6,GR86-012-8,-1.2000000000000002,0.068,-0.018,99.82,5.0,6244.0,0.0,0.0,
2025-08-15T03:14:28.839Z,6,GR86-012-8,-1.2000000000000002,0.064,-0.009,99.82,5.0,,0.0,0.0,182.65
2025-08-15T03:14:28.882Z,6,GR86-012-8,-1.2000000000000002,0.065,-0.01,99.81,5.0,,0.0,0.0,
2025-08-15T03:14:28.926Z,6,GR86-012-8,-1.2000000000000002,0.057,-0.014,99.82,5.0,,0.0,0.0,
2025-08-15T03:14:28.968Z,6,GR86-012-8,-1.2000000000000002,0.066,-0.013,99.82,5.0,,0.0,0.0,
2025-08-15T03:14:29.011Z,6,GR86-012-8,-1.2000000000000002,0.073,-0.024,99.8,5.0,6258.0,0.0,0.0,
2025-08-15T03:14:29.055Z,6,GR86-012-8,-1.2000000000000002,0.061,-0.044,99.81,5.0,,0.0,0.0,183.37
2025-08-15T03:14:29.098Z,6,GR86-012-8,-1.1,0.049,-0.033,99.81,5.0,,0.0,0.0,
2025-08-15T03:14:29.141Z,6,GR86-012-8,-1.2000000000000002,0.062,-0.029,99.81,5.0,,0.0,0.0,
2025-08-15T03:14:29.186Z,6,GR86-012-8,-1.1,0.065,-0.02,99.82,5.0,,0.0,0.0,
2025-08-15T03:14:29.229Z,6,GR86-012-8,-1.1,0.077,-0.014,99.81,5.0,6273.0,0.0,0.0,
2025-08-15T03:14:29.272Z,6,GR86-012-8,-1.2000000000000002,0.068,0.0,99.81,5.0,,0.0,0.0,183.88
2025-08-15T03:14:29.315Z,6,GR86-012-8,-1.2000000000000002,0.071,-0.004,99.8,5.0,,0.0,0.0,
2025-08-15T03:14:29.358Z,6,GR86-012-8,-1.1,0.079,-0.009,99.84,5.0,,0.0,0.0,
2025-08-15T03:14:29.401Z,6,GR86-012-8,-1.2000000000000002,0.08,-0.007,99.82,5.0,,0.0,0.0,
2025-08-15T03:14:29.446Z,6,GR86-012-8,-1.1,0.054,-0.006,99.82,5.0,6299.0,0.0,0.0,
2025-08-15T03:14:29.488Z,6,GR86-012-8,-1.1,0.045,0.001,99.81,5.0,,0.0,0.0,185.26
2025-08-15T03:14:29.531Z,6,GR86-012-8,-1.2000000000000002,0.045,-0.003,99.82,5.0,,0.0,0.0,
2025-08-15T03:14:29.575Z,6,GR86-012-8,-1.1,0.05,-0.011,99.81,5.0,,0.0,0.0,
2025-08-15T03:14:29.617Z,6,GR86-012-8,-1.1,0.045,-0.007,99.82,5.0,,0.0,0.0,
2025-08-15T03:14:29.660Z,6,GR86-012-8,-1.1,0.051,-0.005,99.81,5.0,6322.0,0.0,0.0,
2025-08-15T03:14:29.706Z,6,GR86-012-8,-0.8,0.069,-0.01,99.83,5.0,,0.0,0.0,185.82
2025-08-15T03:14:29.749Z,6,GR86-012-8,-0.6000000000000001,0.073,-0.003,99.81,5.0,,0.0,0.0,
2025-08-15T03:14:29.792Z,6,GR86-012-8,-0.5,0.079,0.006,99.82,5.0,,0.0,0.0,
2025-08-15T03:14:29.835Z,6,GR86-012-8,-0.4,0.062,-0.003,99.81,5.0,,0.0,0.0,
2025-08-15T03:14:29.878Z,6,GR86-012-8,-0.3,0.06,0.012,99.8,5.0,6340.0,0.0,0.0,
2025-08-15T03:14:29.921Z,6,GR86-012-8,-0.3,0.067,0.009,99.81,5.0,,0.0,0.0,186.4
2025-08-15T03:14:29.965Z,6,GR86-012-8,-0.1,0.048,0.02,99.82,5.0,,0.0,0.0,
2025-08-15T03:14:30.008Z,6,GR86-012-8,0.0,0.044,0.023,99.8,5.0,,0.0,0.0,
2025-08-15T03:14:30.051Z,6,GR86-012-8,0.0,0.062,0.037,99.82,5.0,,0.0,0.0,
2025-08-15T03:14:30.096Z,6,GR86-012-8,0.0,0.061,0.036,99.81,5.0,6376.0,0.0,0.0,
2025-08-15T03:14:30.139Z,6,GR86-012-8,0.0,0.061,0.03,99.8,5.0,,0.0,0.0,187.09
2025-08-15T03:14:30.182Z,6,GR86-012-8,0.0,0.06,0.031,99.81,5.0,,0.0,0.0,
2025-08-15T03:14:30.225Z,6,GR86-012-8,0.0,0.063,0.045,99.81,5.0,,0.0,0.0,
2025-08-15T03:14:30.268Z,6,GR86-012-8,0.1,0.065,0.051,99.82,5.0,,0.0,0.0,
2025-08-15T03:14:30.311Z,6,GR86-012-8,0.3,0.049,0.044,99.8,5.0,6390.0,0.0,0.0,
2025-08-15T03:14:30.355Z,6,GR86-012-8,0.4,0.036,0.042,99.84,5.0,,0.0,0.0,187.56
2025-08-15T03:14:30.398Z,6,GR86-012-8,0.4,0.057,0.038,99.81,5.0,,0.0,0.0,
2025-08-15T03:14:30.441Z,6,GR86-012-8,0.4,0.05,0.042,99.81,5.0,,0.0,0.0,
2025-08-15T03:14:30.486Z,6,GR86-012-8,0.4,0.07,0.07,99.82,5.0,,0.0,0.0,
2025-08-15T03:14:30.529Z,6,GR86-012-8,0.4,0.062,0.071,99.81,5.0,6425.0,0.0,0.0,
2025-08-15T03:14:30.572Z,6,GR86-012-8,0.4,0.057,0.063,99.81,5.0,,0.0,0.0,187.99
2025-08-15T03:14:30.615Z,6,GR86-012-8,0.4,0.059,0.059,99.82,5.0,,0.0,0.0,
2025-08-15T03:14:30.658Z,6,GR86-012-8,0.4,0.057,0.06,99.82,5.0,,0.0,0.0,
2025-08-15T03:14:30.701Z,6,GR86-012-8,0.4,0.063,0.055,99.82,5.0,,0.0,0.0,
2025-08-15T03:14:30.745Z,6,GR86-012-8,0.4,0.059,0.055,99.83,5.0,6435.0,0.0,0.0,
2025-08-15T03:14:30.788Z,6,GR86-012-8,0.4,0.062,0.061,99.81,5.0,,0.0,0.0,188.64
2025-08-15T03:14:30.831Z,6,GR86-012-8,0.4,0.066,0.043,99.81,5.0,,0.0,0.0,
2025-08-15T03:14:30.875Z,6,GR86-012-8,0.4,0.06,0.034,99.83,5.0,,0.0,0.0,
2025-08-15T03:14:30.918Z,6,GR86-012-8,0.4,0.064,0.05,99.83,5.0,,0.0,0.0,
2025-08-15T03:14:30.961Z,6,GR86-012-8,0.4,0.072,0.064,99.82,5.0,6450.0,0.0,0.0,
2025-08-15T03:14:31.006Z,6,GR86-012-8,0.4,0.041,0.061,99.82,5.0,,0.0,0.0,189.18
2025-08-15T03:14:31.048Z,6,GR86-012-8,0.5,0.042,0.039,99.81,5.0,,0.0,0.0,
2025-08-15T03:14:31.091Z,6,GR86-012-8,0.6000000000000001,0.045,0.058,99.82,5.0,,0.0,0.0,
2025-08-15T03:14:31.136Z,6,GR86-012-8,0.6000000000000001,0.042,0.048,99.82,5.0,,0.0,0.0,
2025-08-15T03:14:31.178Z,6,GR86-012-8,0.7000000000000001,0.052,0.055,99.82,5.0,6471.0,0.0,0.0,
2025-08-15T03:14:31.221Z,6,GR86-012-8,0.8,0.051,0.052,99.81,5.0,,0.0,0.0,189.75
2025-08-15T03:14:31.265Z,6,GR86-012-8,1.2000000000000002,0.051,0.049,99.81,5.0,,0.0,0.0,
2025-08-15T03:14:31.308Z,6,GR86-012-8,1.7000000000000002,0.047,0.055,99.81,5.0,,0.0,0.0,
2025-08-15T03:14:31.351Z,6,GR86-012-8,2.1,0.045,0.058,99.79,5.0,,0.0,0.0,
2025-08-15T03:14:31.397Z,6,GR86-012-8,2.4000000000000004,0.046,0.054,99.82,5.0,6501.0,0.0,0.0,
2025-08-15T03:14:31.440Z,6,GR86-012-8,2.4000000000000004,0.044,0.064,99.81,5.0,,0.0,0.0,190.34
2025-08-15T03:14:31.486Z,6,GR86-012-8,2.4000000000000004,0.064,0.077,99.81,5.0,,0.0,0.0,
2025-08-15T03:14:31.529Z,6,GR86-012-8,2.6,0.072,0.092,99.8,5.0,,0.0,0.0,
2025-08-15T03:14:31.572Z,6,GR86-012-8,3.1,0.067,0.096,99.81,5.0,,0.0,0.0,
2025-08-15T03:14:31.615Z,6,GR86-012-8,4.1000000000000005,0.059,0.104,99.81,5.0,6519.0,0.0,0.0,
2025-08-15T03:14:31.658Z,6,GR86-012-8,5.1000000000000005,0.062,0.106,99.81,5.0,,0.0,0.0,190.97
2025-08-15T03:14:31.701Z,6,GR86-012-8,6.0,0.056,0.139,99.8,5.0,,0.0,0.0,
2025-08-15T03:14:31.745Z,6,GR86-012-8,7.1000000000000005,0.059,0.162,99.81,5.0,,0.0,0.0,
2025-08-15T03:14:31.788Z,6,GR86-012-8,7.7,0.072,0.179,99.81,5.0,,0.0,0.0,
2025-08-15T03:14:31.831Z,6,GR86-012-8,7.800000000000001,0.077,0.196,99.83,5.0,6529.0,0.0,0.0,
2025-08-15T03:14:31.875Z,6,GR86-012-8,7.800000000000001,0.079,0.223,99.81,5.0,,0.0,0.0,191.63
2025-08-15T03:14:31.918Z,6,GR86-012-8,7.800000000000001,0.065,0.261,99.8,5.0,,0.0,0.0,
2025-08-15T03:14:31.961Z,6,GR86-012-8,7.800000000000001,0.065,0.276,99.81,5.0,,0.0,0.0,
2025-08-15T03:14:32.005Z,6,GR86-012-8,7.800000000000001,0.052,0.297,97.01,5.0,,0.0,0.0,
2025-08-15T03:14:32.048Z,6,GR86-012-8,7.800000000000001,0.058,0.319,79.56,5.0,6559.0,0.0,0.0,
2025-08-15T03:14:32.091Z,6,GR86-012-8,7.7,0.069,0.326,76.68,5.0,,0.0,0.0,192.72
2025-08-15T03:14:32.135Z,6,GR86-012-8,7.2,0.069,0.345,72.34,5.0,,0.0,0.0,
2025-08-15T03:14:32.178Z,6,GR86-012-8,6.800000000000001,0.066,0.34,63.57,5.0,,0.0,0.0,
2025-08-15T03:14:32.221Z,6,GR86-012-8,6.6000000000000005,0.061,0.351,58.47,5.0,,0.0,0.0,
2025-08-15T03:14:32.265Z,6,GR86-012-8,6.5,0.04,0.361,50.9,5.0,6582.0,0.0,0.0,
2025-08-15T03:14:32.308Z,6,GR86-012-8,6.5,0.046,0.351,42.48,5.0,,0.0,0.0,193.29
2025-08-15T03:14:32.351Z,6,GR86-012-8,6.5,0.039,0.358,38.04,5.0,,0.0,0.0,
2025-08-15T03:14:32.396Z,6,GR86-012-8,6.5,0.033,0.339,34.26,5.0,,0.0,0.0,
2025-08-15T03:14:32.439Z,6,GR86-012-8,6.6000000000000005,0.017,0.321,31.58,5.0,,0.0,0.0,
2025-08-15T03:14:32.482Z,6,GR86-012-8,6.6000000000000005,0.007,0.313,22.69,5.0,6596.0,0.0,0.0,
2025-08-15T03:14:32.525Z,6,GR86-012-8,6.800000000000001,-0.036,0.32,3.66,5.0,,0.0,0.0,193.82
2025-08-15T03:14:32.568Z,6,GR86-012-8,7.2,-0.09,0.317,3.6,5.0,,0.0,0.0,
2025-08-15T03:14:32.611Z,6,GR86-012-8,7.6,-0.145,0.317,3.53,5.0,,0.0,0.0,
2025-08-15T03:14:32.655Z,6,GR86-012-8,8.0,-0.285,0.268,3.4,5.0,,0.0,0.0,
2025-08-15T03:14:32.698Z,6,GR86-012-8,8.200000000000001,-0.234,0.288,3.25,5.0,6336.0,0.0,0.0,
2025-08-15T03:14:32.741Z,6,GR86-012-8,8.1,-0.161,0.318,3.12,5.0,,0.0,0.0,193.92
2025-08-15T03:14:32.786Z,6,GR86-012-8,8.0,-0.248,0.332,2.96,5.0,,0.0,0.0,
2025-08-15T03:14:32.872Z,6,GR86-012-8,8.0,-0.225,0.34,2.86,5.0,,0.0,0.0,
2025-08-15T03:14:32.915Z,6,GR86-012-8,8.0,-0.2,0.36,2.64,5.0,6449.0,0.0,0.0,
2025-08-15T03:14:32.958Z,6,GR86-012-8,7.9,-0.224,0.365,2.57,5.0,,0.0,0.0,193.11
2025-08-15T03:14:33.001Z,6,GR86-012-8,7.9,-0.224,0.345,2.51,5.0,,0.0,0.0,
2025-08-15T03:14:33.046Z,6,GR86-012-8,7.5,-0.208,0.347,2.48,5.0,,0.0,0.0,
2025-08-15T03:14:33.088Z,6,GR86-012-8,6.800000000000001,-0.213,0.336,2.47,5.0,,0.0,0.0,
2025-08-15T03:14:33.131Z,6,GR86-012-8,6.300000000000001,-0.21,0.315,2.45,5.0,6381.0,0.0,0.0,
2025-08-15T03:14:33.175Z,6,GR86-012-8,6.2,-0.188,0.291,2.45,5.0,,0.0,0.0,191.91
2025-08-15T03:14:33.217Z,6,GR86-012-8,6.2,-0.194,0.298,2.45,5.0,,0.0,0.0,
2025-08-15T03:14:33.260Z,6,GR86-012-8,6.2,-0.208,0.295,2.45,5.0,,0.0,0.0,
2025-08-15T03:14:33.306Z,6,GR86-012-8,6.2,-0.214,0.3,2.45,5.0,,0.0,0.0,
2025-08-15T03:14:33.349Z,6,GR86-012-8,6.2,-0.203,0.293,2.45,5.0,6325.0,0.0,2.045,
2025-08-15T03:14:33.392Z,6,GR86-012-8,6.2,-0.211,0.287,2.45,5.0,,5.9350000000000005,5.965,190.48
2025-08-15T03:14:33.435Z,6,GR86-012-8,6.2,-0.301,0.269,2.45,5.0,,8.18,8.040000000000001,
2025-08-15T03:14:33.478Z,6,GR86-012-8,6.1000000000000005,-0.324,0.26,2.46,5.0,,9.78,9.66,
2025-08-15T03:14:33.521Z,6,GR86-012-8,6.0,-0.359,0.245,2.46,5.0,,12.33,12.24,
2025-08-15T03:14:33.565Z,6,GR86-012-8,5.5,-0.456,0.255,2.46,5.0,6287.0,14.725,14.545,
2025-08-15T03:14:33.608Z,6,GR86-012-8,5.0,-0.467,0.255,2.45,5.0,,14.94,14.91,189.33
2025-08-15T03:14:33.651Z,6,GR86-012-8,4.9,-0.474,0.266,2.45,5.0,,14.725,14.94,
2025-08-15T03:14:33.696Z,6,GR86-012-8,4.9,-0.465,0.258,2.45,5.0,,14.725,14.91,
2025-08-15T03:14:33.739Z,6,GR86-012-8,5.0,-0.464,0.263,2.48,5.0,,14.755,14.91,
2025-08-15T03:14:33.782Z,6,GR86-012-8,4.9,-0.476,0.262,2.48,5.0,6131.0,15.565,15.535,
2025-08-15T03:14:33.825Z,6,GR86-012-8,4.6000000000000005,-0.518,0.291,2.48,5.0,,20.205,19.76,185.68
2025-08-15T03:14:33.868Z,6,GR86-012-8,3.8,-0.5690000000000001,0.292,2.48,5.0,,23.805,23.3,
2025-08-15T03:14:33.911Z,6,GR86-012-8,2.7,-0.634,0.29,2.47,5.0,,27.085,26.505,
2025-08-15T03:14:33.955Z,6,GR86-012-8,1.5,-0.685,0.289,2.48,5.0,,29.985,29.33,
2025-08-15T03:14:33.997Z,6,GR86-012-8,0.8,-0.721,0.29,2.48,5.0,6016.0,31.83,31.3,
2025-08-15T03:14:34.040Z,6,GR86-012-8,0.5,-0.754,0.295,2.47,5.0,,32.9,32.445,182.33
2025-08-15T03:14:34.086Z,6,GR86-012-8,0.5,-0.835,0.277,2.47,5.0,,34.745,34.305,
2025-08-15T03:14:34.129Z,6,GR86-012-8,0.5,-0.8300000000000001,0.266,2.47,5.0,,35.375,35.175000000000004,
2025-08-15T03:14:34.215Z,6,GR86-012-8,0.5,-0.766,0.195,47.12,5.0,5830.0,35.205,35.175000000000004,
2025-08-15T03:14:34.258Z,6,GR86-012-8,0.3,-0.779,0.165,57.4,4.0,,34.685,34.9,177.85
2025-08-15T03:14:34.301Z,6,GR86-012-8,0.1,-0.903,0.135,5.2,4.0,,33.22,33.97,
2025-08-15T03:14:34.345Z,6,GR86-012-8,-0.7000000000000001,-0.9,0.146,4.15,4.0,,28.245,29.71,
2025-08-15T03:14:34.388Z,6,GR86-012-8,-1.2000000000000002,-0.717,0.166,3.72,4.0,,22.845,23.485,
2025-08-15T03:14:34.431Z,6,GR86-012-8,-2.7,-0.777,0.153,3.45,4.0,5598.0,19.305,20.145,
2025-08-15T03:14:34.475Z,6,GR86-012-8,-4.5,-0.399,0.137,3.25,4.0,,15.81,16.405,171.82
2025-08-15T03:14:34.518Z,6,GR86-012-8,-5.0,-0.492,0.101,3.12,4.0,,12.53,13.2,
2025-08-15T03:14:34.605Z,6,GR86-012-8,-5.0,-0.423,0.083,3.02,4.0,,11.78,12.145,
2025-08-15T03:14:34.648Z,6,GR86-012-8,-4.3,-0.363,0.019,2.8000000000000003,4.0,6345.0,8.425,9.28,
2025-08-15T03:14:34.691Z,6,GR86-012-8,-2.9000000000000004,-0.319,-0.03,2.7,4.0,,7.705,8.27,165.61
2025-08-15T03:14:34.736Z,6,GR86-012-8,-1.1,-0.316,-0.056,2.61,4.0,,7.05,7.555,
2025-08-15T03:14:34.778Z,6,GR86-012-8,0.5,-0.303,-0.072,2.54,4.0,,5.585,6.335,
2025-08-15T03:14:34.821Z,6,GR86-012-8,1.6,-0.284,-0.079,2.51,4.0,,4.9,5.465,
2025-08-15T03:14:34.866Z,6,GR86-012-8,3.2,-0.274,-0.064,2.48,4.0,6345.0,5.11,5.465,
2025-08-15T03:14:34.909Z,6,GR86-012-8,4.4,-0.276,-0.05,2.46,4.0,,5.705,5.9350000000000005,163.88
2025-08-15T03:14:34.952Z,6,GR86-012-8,5.1000000000000005,-0.3,-0.036,2.45,4.0,,7.525,7.645,
2025-08-15T03:14:34.996Z,6,GR86-012-8,5.300000000000001,-0.347,-0.023,2.44,4.0,,10.115,10.055,
2025-08-15T03:14:35.039Z,6,GR86-012-8,5.300000000000001,-0.418,-0.007,2.44,4.0,,13.335,13.045,
2025-08-15T03:14:35.082Z,6,GR86-012-8,5.300000000000001,-0.491,0.017,2.45,4.0,6283.0,16.345,15.99,
2025-08-15T03:14:35.129Z,6,GR86-012-8,5.300000000000001,-0.505,0.059,2.45,4.0,,18.615,18.435,161.96
2025-08-15T03:14:35.172Z,6,GR86-012-8,5.300000000000001,-0.554,0.076,2.45,4.0,,18.555,18.435,
2025-08-15T03:14:35.215Z,6,GR86-012-8,5.300000000000001,-0.547,0.084,2.45,4.0,,18.085,18.405,
2025-08-15T03:14:35.301Z,6,GR86-012-8,5.300000000000001,-0.5650000000000001,0.104,27.41,4.0,6042.0,17.52,18.055,
2025-08-15T03:14:35.345Z,6,GR86-012-8,5.300000000000001,-0.486,0.176,98.67,3.0,,16.435,17.0,158.42000000000002
2025-08-15T03:14:35.388Z,6,GR86-012-8,5.300000000000001,-0.538,0.103,42.5,3.0,,16.8,17.365000000000002,
2025-08-15T03:14:35.431Z,6,GR86-012-8,5.300000000000001,-0.77,0.233,4.0,3.0,,17.84,18.435,
2025-08-15T03:14:35.475Z,6,GR86-012-8,5.300000000000001,-0.512,0.254,2.86,3.0,,19.64,20.265,
2025-08-15T03:14:35.561Z,6,GR86-012-8,5.1000000000000005,-0.598,0.312,2.61,3.0,6881.0,24.795,24.43,155.26
2025-08-15T03:14:35.605Z,6,GR86-012-8,4.6000000000000005,-0.5720000000000001,0.202,2.56,3.0,,26.23,26.14,
2025-08-15T03:14:35.648Z,6,GR86-012-8,4.2,-0.599,0.288,2.54,3.0,,26.905,26.6,
2025-08-15T03:14:35.691Z,6,GR86-012-8,3.5,-0.6920000000000001,0.246,2.54,3.0,,27.68,27.47,
2025-08-15T03:14:35.735Z,6,GR86-012-8,2.6,-0.6990000000000001,0.221,2.53,3.0,6783.0,29.085,28.75,
2025-08-15T03:14:35.778Z,6,GR86-012-8,1.3,-0.742,0.246,2.53,3.0,,30.735,30.275,151.08
2025-08-15T03:14:35.821Z,6,GR86-012-8,0.0,-0.709,0.23,2.51,3.0,,32.17,31.77,
2025-08-15T03:14:35.866Z,6,GR86-012-8,-1.0,-0.773,0.221,2.51,3.0,,33.555,33.345,
2025-08-15T03:14:35.908Z,6,GR86-012-8,-1.0,-0.808,0.238,2.51,3.0,,34.275,34.09,
2025-08-15T03:14:35.951Z,6,GR86-012-8,-1.1,-0.792,0.247,2.51,3.0,6535.0,34.685,34.425000000000004,
2025-08-15T03:14:36.039Z,6,GR86-012-8,-1.7000000000000002,-0.799,0.221,2.51,3.0,,34.625,34.455,146.36
2025-08-15T03:14:36.082Z,6,GR86-012-8,-3.9,-0.805,0.155,2.51,3.0,,33.8,34.18,
2025-08-15T03:14:36.125Z,6,GR86-012-8,-4.7,-0.715,0.109,2.51,3.0,,26.43,27.775,
2025-08-15T03:14:36.168Z,6,GR86-012-8,-4.7,-0.586,0.1,2.51,3.0,6337.0,18.89,20.325,
2025-08-15T03:14:36.211Z,6,GR86-012-8,-4.7,-0.457,0.084,2.51,3.0,,12.955,13.915,141.77
2025-08-15T03:14:36.256Z,6,GR86-012-8,-4.0,-0.425,0.014,2.51,3.0,,11.155,11.87,
2025-08-15T03:14:36.298Z,6,GR86-012-8,-2.4000000000000004,-0.444,0.006,2.5,3.0,,11.52,12.055,
2025-08-15T03:14:36.386Z,6,GR86-012-8,0.3,-0.485,-0.015,2.51,3.0,6226.0,18.74,18.585,
2025-08-15T03:14:36.429Z,6,GR86-012-8,-0.7000000000000001,-0.408,0.015,2.5,3.0,,13.4,13.37,137.75
2025-08-15T03:14:36.472Z,6,GR86-012-8,2.3000000000000003,-0.592,-0.049,2.49,3.0,,23.99,23.53,
2025-08-15T03:14:36.515Z,6,GR86-012-8,3.8,-0.654,-0.062,2.49,3.0,,26.46,26.26,
2025-08-15T03:14:36.558Z,6,GR86-012-8,4.7,-0.667,-0.014,2.51,3.0,,28.4,28.035,
2025-08-15T03:14:36.646Z,6,GR86-012-8,4.9,-0.7020000000000001,0.009,2.51,3.0,6121.0,30.245,29.77,135.57
2025-08-15T03:14:36.688Z,6,GR86-012-8,5.1000000000000005,-0.788,0.012,2.51,3.0,,33.555,33.525,
2025-08-15T03:14:36.731Z,6,GR86-012-8,5.1000000000000005,-0.791,0.031,2.5,3.0,,34.275,34.09,
2025-08-15T03:14:36.775Z,6,GR86-012-8,5.1000000000000005,-0.779,0.07,11.0,3.0,,34.305,34.15,
2025-08-15T03:14:36.817Z,6,GR86-012-8,5.2,-0.804,0.078,54.370000000000005,3.0,5914.0,33.875,34.12,
2025-08-15T03:14:36.860Z,6,GR86-012-8,5.1000000000000005,-0.797,0.068,97.12,3.0,,34.03,34.12,131.19
2025-08-15T03:14:36.906Z,6,GR86-012-8,5.2,-0.734,0.055,78.43,2.0,,33.555,33.94,
2025-08-15T03:14:36.949Z,6,GR86-012-8,4.9,-0.975,0.069,7.42,2.0,,33.25,33.585,
2025-08-15T03:14:36.992Z,6,GR86-012-8,3.7,-0.803,0.218,3.0,2.0,,33.22,34.365,
2025-08-15T03:14:37.035Z,6,GR86-012-8,3.4000000000000004,-0.8220000000000001,-0.02,2.83,2.0,5691.0,32.565,32.96,
2025-08-15T03:14:37.078Z,6,GR86-012-8,3.5,-0.868,0.198,2.74,2.0,,31.36,31.33,126.23
2025-08-15T03:14:37.121Z,6,GR86-012-8,3.2,-0.86,0.176,2.67,2.0,,31.055,31.895,
2025-08-15T03:14:37.165Z,6,GR86-012-8,3.6,-0.767,0.142,2.61,2.0,,29.36,29.33,
2025-08-15T03:14:37.208Z,6,GR86-012-8,4.5,-0.731,0.184,2.57,2.0,,29.3,29.115,
2025-08-15T03:14:37.251Z,6,GR86-012-8,5.9,-0.72,0.131,2.5500000000000003,2.0,6356.0,29.025,29.24,
2025-08-15T03:14:37.296Z,6,GR86-012-8,6.800000000000001,-0.731,0.147,2.51,2.0,,29.055,29.33,116.36
2025-08-15T03:14:37.339Z,6,GR86-012-8,6.9,-0.709,0.179,2.51,2.0,,29.71,29.59,
2025-08-15T03:14:37.382Z,6,GR86-012-8,6.9,-0.737,0.16,2.5,2.0,,29.175,29.56,
2025-08-15T03:14:37.428Z,6,GR86-012-8,6.9,-0.737,0.173,2.48,2.0,,29.145,29.59,
2025-08-15T03:14:37.471Z,6,GR86-012-8,6.1000000000000005,-0.737,0.145,2.49,2.0,6452.0,29.71,29.925,
2025-08-15T03:14:37.515Z,6,GR86-012-8,4.4,-0.705,0.166,2.49,2.0,,29.435,29.65,111.82
2025-08-15T03:14:37.557Z,6,GR86-012-8,2.9000000000000004,-0.74,0.128,2.48,2.0,,29.925,30.155,
2025-08-15T03:14:37.645Z,6,GR86-012-8,2.9000000000000004,-0.741,0.139,2.48,2.0,,30.765,30.61,
2025-08-15T03:14:37.688Z,6,GR86-012-8,2.9000000000000004,-0.775,0.11,54.32,2.0,5936.0,31.3,31.33,
2025-08-15T03:14:37.731Z,6,GR86-012-8,2.9000000000000004,-0.729,0.126,97.06,2.0,,31.8,31.68,107.23
2025-08-15T03:14:37.775Z,6,GR86-012-8,3.0,-0.759,0.136,83.7,1.0,,31.8,31.955,
2025-08-15T03:14:37.818Z,6,GR86-012-8,3.0,-0.803,0.011,10.73,1.0,,32.410000000000004,32.14,
2025-08-15T03:14:37.861Z,6,GR86-012-8,2.9000000000000004,-0.908,0.192,3.09,1.0,,32.17,32.99,
2025-08-15T03:14:37.906Z,6,GR86-012-8,2.6,-0.804,-0.069,2.89,1.0,6407.0,32.81,33.525,
2025-08-15T03:14:37.948Z,6,GR86-012-8,2.8000000000000003,-0.936,0.191,2.8000000000000003,1.0,,31.145,31.36,102.56
2025-08-15T03:14:37.991Z,6,GR86-012-8,2.2,-0.954,0.107,2.71,1.0,,31.115,32.015,
2025-08-15T03:14:38.036Z,6,GR86-012-8,2.4000000000000004,-0.735,-0.021,2.5500000000000003,1.0,,32.17,32.410000000000004,
2025-08-15T03:14:38.078Z,6,GR86-012-8,2.7,-0.899,0.153,2.48,1.0,,31.925,31.74,
2025-08-15T03:14:38.121Z,6,GR86-012-8,2.8000000000000003,-0.849,0.059,2.46,1.0,6752.0,32.595,32.38,
2025-08-15T03:14:38.165Z,6,GR86-012-8,2.8000000000000003,-0.756,0.101,2.45,1.0,,31.74,32.015,97.19
2025-08-15T03:14:38.208Z,6,GR86-012-8,2.8000000000000003,-0.781,0.056,2.45,1.0,,29.955,30.93,
2025-08-15T03:14:38.251Z,6,GR86-012-8,2.9000000000000004,-0.726,0.03,2.45,1.0,,25.775,27.025,
2025-08-15T03:14:38.296Z,6,GR86-012-8,3.4000000000000004,-0.659,0.056,2.45,1.0,,22.615,23.775,
2025-08-15T03:14:38.339Z,6,GR86-012-8,4.800000000000001,-0.62,0.055,2.45,1.0,6520.0,22.065,22.935,
2025-08-15T03:14:38.382Z,6,GR86-012-8,8.5,-0.6900000000000001,0.044,2.45,1.0,,23.99,24.11,91.59
2025-08-15T03:14:38.425Z,6,GR86-012-8,13.5,-0.714,0.095,2.45,1.0,,28.245,27.865,
2025-08-15T03:14:38.468Z,6,GR86-012-8,15.6,-0.787,0.111,2.46,1.0,,30.49,30.11,
2025-08-15T03:14:38.511Z,6,GR86-012-8,18.4,-0.74,0.163,2.47,1.0,,32.38,31.895,
2025-08-15T03:14:38.556Z,6,GR86-012-8,22.0,-0.807,0.162,2.48,1.0,6271.0,35.085,34.52,
2025-08-15T03:14:38.599Z,6,GR86-012-8,26.4,-0.8260000000000001,0.226,2.47,1.0,,36.84,36.245,87.68
2025-08-15T03:14:38.642Z,6,GR86-012-8,30.4,-0.895,0.269,2.45,1.0,,38.47,37.89,
2025-08-15T03:14:38.686Z,6,GR86-012-8,33.800000000000004,-0.877,0.352,2.46,1.0,,38.93,38.685,
2025-08-15T03:14:38.729Z,6,GR86-012-8,34.1,-0.895,0.359,2.47,1.0,,39.19,39.035,
2025-08-15T03:14:38.772Z,6,GR86-012-8,34.1,-0.882,0.389,2.47,1.0,5856.0,38.075,38.47,
2025-08-15T03:14:38.815Z,6,GR86-012-8,34.2,-0.869,0.413,2.48,1.0,,35.800000000000004,36.99,83.02
2025-08-15T03:14:38.858Z,6,GR86-012-8,34.1,-0.808,0.456,2.48,1.0,,30.4,31.955,
2025-08-15T03:14:38.901Z,6,GR86-012-8,34.1,-0.553,0.535,2.47,1.0,,24.735,25.865,
2025-08-15T03:14:38.988Z,6,GR86-012-8,34.1,-0.586,0.558,2.48,1.0,5405.0,16.71,17.87,
2025-08-15T03:14:39.031Z,6,GR86-012-8,34.4,-0.502,0.548,2.48,1.0,,12.33,13.08,78.43
2025-08-15T03:14:39.075Z,6,GR86-012-8,35.7,-0.454,0.5690000000000001,2.47,1.0,,10.24,11.215,
2025-08-15T03:14:39.118Z,6,GR86-012-8,36.9,-0.376,0.604,2.48,1.0,,8.805,9.4,
2025-08-15T03:14:39.161Z,6,GR86-012-8,38.900000000000006,-0.298,0.609,2.48,1.0,,6.6850000000000005,7.525,
2025-08-15T03:14:39.205Z,6,GR86-012-8,43.8,-0.23,0.628,2.47,1.0,5210.0,0.0,2.455,
2025-08-15T03:14:39.248Z,6,GR86-012-8,48.0,-0.187,0.643,2.48,1.0,,0.0,0.0,74.28
2025-08-15T03:14:39.291Z,6,GR86-012-8,52.1,-0.198,0.653,2.48,1.0,,0.0,0.0,
2025-08-15T03:14:39.335Z,6,GR86-012-8,55.5,-0.175,0.681,2.47,1.0,,0.0,0.0,
2025-08-15T03:14:39.378Z,6,GR86-012-8,57.7,-0.172,0.681,2.48,1.0,,0.0,0.0,
2025-08-15T03:14:39.421Z,6,GR86-012-8,60.1,-0.161,0.7030000000000001,2.47,1.0,5060.0,0.0,0.0,
2025-08-15T03:14:39.465Z,6,GR86-012-8,66.3,-0.168,0.711,4.7,1.0,,0.0,0.0,71.88
2025-08-15T03:14:39.508Z,6,GR86-012-8,69.2,-0.178,0.751,15.12,1.0,,0.0,0.0,
2025-08-15T03:14:39.551Z,6,GR86-012-8,71.0,-0.177,0.75,16.07,1.0,,0.0,0.0,
2025-08-15T03:14:39.596Z,6,GR86-012-8,72.60000000000001,-0.167,0.783,16.11,1.0,,0.0,0.0,
2025-08-15T03:14:39.639Z,6,GR86-012-8,75.60000000000001,-0.133,0.833,16.11,1.0,5007.0,0.0,0.0,
2025-08-15T03:14:39.682Z,6,GR86-012-8,78.2,-0.094,0.836,14.27,1.0,,0.0,0.0,70.73
2025-08-15T03:14:39.725Z,6,GR86-012-8,79.4,-0.096,0.85,8.26,1.0,,0.0,0.0,
2025-08-15T03:14:39.768Z,6,GR86-012-8,79.0,-0.092,0.854,8.13,1.0,,0.0,0.0,
2025-08-15T03:14:39.811Z,6,GR86-012-8,77.9,-0.025,0.84,12.64,1.0,,0.0,0.0,
2025-08-15T03:14:39.855Z,6,GR86-012-8,76.5,0.01,0.863,22.09,1.0,5025.0,0.0,0.0,
2025-08-15T03:14:39.898Z,6,GR86-012-8,75.60000000000001,-0.05,0.881,21.82,1.0,,0.0,0.0,69.21000000000001
2025-08-15T03:14:39.941Z,6,GR86-012-8,75.3,-0.095,0.888,21.84,1.0,,0.0,0.0,
2025-08-15T03:14:39.986Z,6,GR86-012-8,75.3,-0.094,0.904,23.54,1.0,,0.0,0.0,
2025-08-15T03:14:40.029Z,6,GR86-012-8,75.3,-0.057,0.899,23.92,1.0,,0.0,0.0,
2025-08-15T03:14:40.072Z,6,GR86-012-8,75.3,0.081,0.864,23.9,1.0,5038.0,0.0,0.0,
2025-08-15T03:14:40.115Z,6,GR86-012-8,76.9,0.136,0.8200000000000001,23.86,1.0,,0.0,0.0,68.9
2025-08-15T03:14:40.158Z,6,GR86-012-8,79.7,0.169,0.874,23.87,1.0,,0.0,0.0,
2025-08-15T03:14:40.246Z,6,GR86-012-8,83.9,0.151,0.915,23.86,1.0,,0.0,0.0,
2025-08-15T03:14:40.331Z,6,GR86-012-8,89.30000000000001,0.124,0.879,23.33,1.0,5204.0,0.0,0.0,68.74
2025-08-15T03:14:40.375Z,6,GR86-012-8,90.4,0.105,0.914,22.88,1.0,,0.0,0.0,
2025-08-15T03:14:40.417Z,6,GR86-012-8,90.4,0.103,0.928,22.45,1.0,,0.0,0.0,
2025-08-15T03:14:40.460Z,6,GR86-012-8,90.4,0.101,0.89,22.28,1.0,,0.0,0.0,
2025-08-15T03:14:40.549Z,6,GR86-012-8,90.4,0.1,0.89,22.0,1.0,5258.0,0.0,0.0,69.39
2025-08-15T03:14:40.592Z,6,GR86-012-8,90.4,0.102,0.915,21.9,1.0,,0.0,0.0,
2025-08-15T03:14:40.635Z,6,GR86-012-8,90.4,0.08,0.919,21.87,1.0,,0.0,0.0,
2025-08-15T03:14:40.678Z,6,GR86-012-8,90.4,0.082,0.887,21.87,1.0,,0.0,0.0,
2025-08-15T03:14:40.765Z,6,GR86-012-8,90.4,0.072,0.904,21.61,1.0,5276.0,0.0,0.0,70.09
2025-08-15T03:14:40.808Z,6,GR86-012-8,90.6,0.085,0.921,19.42,1.0,,0.0,0.0,
2025-08-15T03:14:40.939Z,6,GR86-012-8,90.6,0.064,0.912,19.28,1.0,5321.0,0.0,0.0,
2025-08-15T03:14:40.982Z,6,GR86-012-8,90.6,0.033,0.98,19.35,1.0,,0.0,0.0,70.82000000000001
2025-08-15T03:14:41.025Z,6,GR86-012-8,90.6,-0.001,1.004,19.48,1.0,,0.0,0.0,
2025-08-15T03:14:41.068Z,6,GR86-012-8,90.6,0.0,1.012,19.6,1.0,,0.0,0.0,
2025-08-15T03:14:41.111Z,6,GR86-012-8,90.6,0.026,1.034,19.64,1.0,,0.0,0.0,
2025-08-15T03:14:41.155Z,6,GR86-012-8,90.6,0.023,0.996,19.67,1.0,5321.0,0.0,0.0,
2025-08-15T03:14:41.198Z,6,GR86-012-8,90.6,0.028,0.981,19.7,1.0,,0.0,0.0,71.47
2025-08-15T03:14:41.241Z,6,GR86-012-8,90.6,0.034,0.978,19.88,1.0,,0.0,0.0,
2025-08-15T03:14:41.286Z,6,GR86-012-8,90.6,0.021,0.967,21.91,1.0,,0.0,0.0,
2025-08-15T03:14:41.329Z,6,GR86-012-8,90.0,0.021,0.972,22.0,1.0,,0.0,0.0,
2025-08-15T03:14:41.372Z,6,GR86-012-8,88.7,0.034,1.001,22.06,1.0,5336.0,0.0,0.0,
2025-08-15T03:14:41.415Z,6,GR86-012-8,87.80000000000001,0.061,0.969,22.1,1.0,,0.0,0.0,71.89
2025-08-15T03:14:41.458Z,6,GR86-012-8,87.0,0.052,0.961,22.92,1.0,,0.0,0.0,
2025-08-15T03:14:41.501Z,6,GR86-012-8,85.5,0.072,0.985,23.39,1.0,,0.0,0.0,
2025-08-15T03:14:41.588Z,6,GR86-012-8,78.9,0.079,0.966,24.25,1.0,5394.0,0.0,0.0,
2025-08-15T03:14:41.631Z,6,GR86-012-8,76.3,0.102,0.946,24.32,1.0,,0.0,0.0,71.88
2025-08-15T03:14:41.675Z,6,GR86-012-8,71.10000000000001,0.118,0.944,24.34,1.0,,0.0,0.0,
2025-08-15T03:14:41.718Z,6,GR86-012-8,66.2,0.122,0.941,24.35,1.0,,0.0,0.0,
2025-08-15T03:14:41.761Z,6,GR86-012-8,61.0,0.117,0.906,24.31,1.0,,0.0,0.0,
2025-08-15T03:14:41.806Z,6,GR86-012-8,54.5,0.147,0.889,24.3,1.0,5444.0,0.0,0.0,
2025-08-15T03:14:41.848Z,6,GR86-012-8,52.0,0.145,0.888,24.36,1.0,,0.0,0.0,72.29
2025-08-15T03:14:41.891Z,6,GR86-012-8,48.6,0.147,0.865,25.21,1.0,,0.0,0.0,
2025-08-15T03:14:41.936Z,6,GR86-012-8,47.6,0.129,0.852,27.94,1.0,,0.0,0.0,
2025-08-15T03:14:41.978Z,6,GR86-012-8,47.5,0.124,0.864,31.06,1.0,,0.0,0.0,
2025-08-15T03:14:42.021Z,6,GR86-012-8,47.5,0.14,0.881,33.09,1.0,5503.0,0.0,0.0,
2025-08-15T03:14:42.065Z,6,GR86-012-8,47.5,0.175,0.841,33.730000000000004,1.0,,0.0,0.0,72.78
2025-08-15T03:14:42.108Z,6,GR86-012-8,47.5,0.22,0.833,34.71,1.0,,0.0,0.0,
2025-08-15T03:14:42.151Z,6,GR86-012-8,47.5,0.256,0.8320000000000001,36.91,1.0,,0.0,0.0,
2025-08-15T03:14:42.196Z,6,GR86-012-8,47.5,0.25,0.86,43.86,1.0,,0.0,0.0,
2025-08-15T03:14:42.239Z,6,GR86-012-8,46.8,0.225,0.853,53.26,1.0,5595.0,0.0,0.0,
2025-08-15T03:14:42.282Z,6,GR86-012-8,45.7,0.244,0.837,57.94,1.0,,0.0,0.0,73.34
2025-08-15T03:14:42.325Z,6,GR86-012-8,44.400000000000006,0.289,0.803,72.39,1.0,,0.0,0.0,
2025-08-15T03:14:42.368Z,6,GR86-012-8,42.6,0.316,0.787,79.96000000000001,1.0,,0.0,0.0,
2025-08-15T03:14:42.411Z,6,GR86-012-8,39.8,0.333,0.812,91.13,1.0,,0.0,0.0,
2025-08-15T03:14:42.456Z,6,GR86-012-8,36.5,0.348,0.763,97.83,1.0,5714.0,0.0,0.0,
2025-08-15T03:14:42.499Z,6,GR86-012-8,33.2,0.358,0.752,99.73,1.0,,0.0,0.0,75.86
2025-08-15T03:14:42.542Z,6,GR86-012-8,30.3,0.357,0.727,99.8,1.0,,0.0,0.0,
2025-08-15T03:14:42.586Z,6,GR86-012-8,26.5,0.342,0.686,99.8,1.0,,0.0,0.0,
2025-08-15T03:14:42.629Z,6,GR86-012-8,24.3,0.328,0.67,99.8,1.0,,0.0,0.0,
2025-08-15T03:14:42.672Z,6,GR86-012-8,22.3,0.335,0.643,99.8,1.0,5920.0,0.0,0.0,
2025-08-15T03:14:42.715Z,6,GR86-012-8,21.200000000000003,0.347,0.627,99.81,1.0,,0.0,0.0,77.85000000000001
2025-08-15T03:14:42.758Z,6,GR86-012-8,19.6,0.351,0.613,99.81,1.0,,0.0,0.0,
2025-08-15T03:14:42.801Z,6,GR86-012-8,17.5,0.329,0.5690000000000001,99.82,1.0,,0.0,0.0,
2025-08-15T03:14:42.845Z,6,GR86-012-8,14.2,0.319,0.5660000000000001,99.81,1.0,,0.0,0.0,
2025-08-15T03:14:42.888Z,6,GR86-012-8,12.8,0.343,0.521,99.82,1.0,6205.0,0.0,0.0,
2025-08-15T03:14:42.931Z,6,GR86-012-8,12.2,0.346,0.425,99.82,1.0,,0.0,0.0,79.75
2025-08-15T03:14:42.975Z,6,GR86-012-8,12.2,0.328,0.377,99.81,1.0,,0.0,0.0,
2025-08-15T03:14:43.018Z,6,GR86-012-8,12.2,0.357,0.357,99.82,1.0,,0.0,0.0,
2025-08-15T03:14:43.061Z,6,GR86-012-8,12.2,0.292,0.326,99.82,1.0,,0.0,0.0,
2025-08-15T03:14:43.105Z,6,GR86-012-8,12.2,0.344,0.31,99.83,1.0,6352.0,0.0,0.0,
2025-08-15T03:14:43.148Z,6,GR86-012-8,12.2,0.348,0.271,99.84,1.0,,0.0,0.0,81.61
2025-08-15T03:14:43.191Z,6,GR86-012-8,12.2,0.36,0.239,99.81,1.0,,0.0,0.0,
2025-08-15T03:14:43.235Z,6,GR86-012-8,12.2,0.35,0.206,99.82,1.0,,0.0,0.0,
2025-08-15T03:14:43.278Z,6,GR86-012-8,11.8,0.313,0.237,99.85,1.0,,0.0,0.0,
2025-08-15T03:14:43.321Z,6,GR86-012-8,11.5,0.26,0.232,99.84,1.0,6487.0,0.0,0.0,
2025-08-15T03:14:43.365Z,6,GR86-012-8,11.2,0.343,0.248,99.82,1.0,,0.0,0.0,84.01
2025-08-15T03:14:43.408Z,6,GR86-012-8,11.2,0.353,0.241,99.85,1.0,,0.0,0.0,
2025-08-15T03:14:43.451Z,6,GR86-012-8,11.0,0.333,0.227,99.84,1.0,,0.0,0.0,
2025-08-15T03:14:43.496Z,6,GR86-012-8,10.4,0.379,0.23,99.82,1.0,,0.0,0.0,
2025-08-15T03:14:43.539Z,6,GR86-012-8,9.2,0.344,0.253,99.83,1.0,6661.0,0.0,0.0,
2025-08-15T03:14:43.582Z,6,GR86-012-8,8.4,0.305,0.201,99.83,1.0,,0.0,0.0,86.48
2025-08-15T03:14:43.625Z,6,GR86-012-8,7.1000000000000005,0.358,0.203,99.82,1.0,,0.0,0.0,
2025-08-15T03:14:43.668Z,6,GR86-012-8,6.0,0.178,0.144,99.85,1.0,,0.0,0.0,
2025-08-15T03:14:43.711Z,6,GR86-012-8,4.9,0.187,0.146,99.85,1.0,,0.0,0.0,
2025-08-15T03:14:43.755Z,6,GR86-012-8,4.2,0.374,0.148,99.84,1.0,6848.0,0.0,0.0,
2025-08-15T03:14:43.798Z,6,GR86-012-8,3.6,0.42,0.135,99.83,1.0,,0.0,0.0,88.74
2025-08-15T03:14:43.841Z,6,GR86-012-8,3.4000000000000004,0.384,0.145,99.85,1.0,,0.0,0.0,
2025-08-15T03:14:43.886Z,6,GR86-012-8,2.6,0.331,0.147,99.83,1.0,,0.0,0.0,
2025-08-15T03:14:43.929Z,6,GR86-012-8,2.2,0.322,0.088,99.81,1.0,,0.0,0.0,
2025-08-15T03:14:43.972Z,6,GR86-012-8,1.7000000000000002,0.305,0.119,99.82,1.0,6980.0,0.0,0.0,
2025-08-15T03:14:44.015Z,6,GR86-012-8,1.5,0.25,0.031,99.82,1.0,,0.0,0.0,90.98
2025-08-15T03:14:44.058Z,6,GR86-012-8,1.3,0.043,0.109,99.84,1.0,,0.0,0.0,
2025-08-15T03:14:44.101Z,6,GR86-012-8,0.5,-0.108,0.089,99.83,2.0,,0.0,0.0,
2025-08-15T03:14:44.146Z,6,GR86-012-8,0.1,0.55,-0.001,99.84,2.0,,0.0,0.0,
2025-08-15T03:14:44.188Z,6,GR86-012-8,0.2,0.62,-0.002,99.84,2.0,6744.0,0.0,0.0,
2025-08-15T03:14:44.231Z,6,GR86-012-8,-0.3,0.614,0.068,99.84,2.0,,0.0,0.0,93.25
2025-08-15T03:14:44.275Z,6,GR86-012-8,-1.7000000000000002,0.346,-0.049,99.83,2.0,,0.0,0.0,
2025-08-15T03:14:44.318Z,6,GR86-012-8,-2.9000000000000004,0.209,0.002,99.85,2.0,,0.0,0.0,
2025-08-15T03:14:44.361Z,6,GR86-012-8,-3.4000000000000004,0.116,-0.041,99.84,2.0,,0.0,0.0,
2025-08-15T03:14:44.406Z,6,GR86-012-8,-3.5,0.251,-0.074,99.83,2.0,5583.0,0.0,0.0,
2025-08-15T03:14:44.449Z,6,GR86-012-8,-3.5,0.318,-0.066,99.83,2.0,,0.0,0.0,94.81
2025-08-15T03:14:44.492Z,6,GR86-012-8,-3.5,0.295,-0.077,99.83,2.0,,0.0,0.0,
2025-08-15T03:14:44.535Z,6,GR86-012-8,-3.6,0.255,-0.064,99.84,2.0,,0.0,0.0,
2025-08-15T03:14:44.578Z,6,GR86-012-8,-3.7,0.232,-0.068,99.83,2.0,,0.0,0.0,
2025-08-15T03:14:44.621Z,6,GR86-012-8,-3.7,0.242,-0.079,99.84,2.0,5753.0,0.0,0.0,
2025-08-15T03:14:44.665Z,6,GR86-012-8,-3.7,0.261,-0.067,99.85,2.0,,0.0,0.0,97.33
2025-08-15T03:14:44.708Z,6,GR86-012-8,-3.7,0.273,-0.071,99.85,2.0,,0.0,0.0,
2025-08-15T03:14:44.751Z,6,GR86-012-8,-3.7,0.272,-0.057,99.85,2.0,,0.0,0.0,
2025-08-15T03:14:44.797Z,6,GR86-012-8,-3.7,0.25,-0.039,99.83,2.0,,0.0,0.0,
2025-08-15T03:14:44.839Z,6,GR86-012-8,-3.7,0.257,-0.05,99.85,2.0,5831.0,0.0,0.0,
2025-08-15T03:14:44.882Z,6,GR86-012-8,-3.7,0.238,-0.038,99.85,2.0,,0.0,0.0,99.01
2025-08-15T03:14:44.925Z,6,GR86-012-8,-3.7,0.258,-0.04,99.85,2.0,,0.0,0.0,
2025-08-15T03:14:44.968Z,6,GR86-012-8,-3.7,0.267,-0.055,99.85,2.0,,0.0,0.0,
2025-08-15T03:14:45.011Z,6,GR86-012-8,-3.7,0.248,-0.037,99.85,2.0,,0.0,0.0,
2025-08-15T03:14:45.055Z,6,GR86-012-8,-3.7,0.253,-0.056,99.85,2.0,5901.0,0.0,0.0,
2025-08-15T03:14:45.097Z,6,GR86-012-8,-3.7,0.249,-0.042,99.85,2.0,,0.0,0.0,102.44
2025-08-15T03:14:45.140Z,6,GR86-012-8,-3.7,0.253,-0.039,99.85,2.0,,0.0,0.0,
2025-08-15T03:14:45.186Z,6,GR86-012-8,-3.7,0.245,-0.05,99.84,2.0,,0.0,0.0,
2025-08-15T03:14:45.229Z,6,GR86-012-8,-3.7,0.243,-0.031,99.85,2.0,,0.0,0.0,
2025-08-15T03:14:45.272Z,6,GR86-012-8,-3.9,0.249,-0.041,99.83,2.0,5996.0,0.0,0.0,
2025-08-15T03:14:45.315Z,6,GR86-012-8,-3.9,0.271,-0.048,99.84,2.0,,0.0,0.0,104.04
2025-08-15T03:14:45.358Z,6,GR86-012-8,-3.9,0.253,-0.036,99.85,2.0,,0.0,0.0,
2025-08-15T03:14:45.401Z,6,GR86-012-8,-3.9,0.249,-0.044,99.84,2.0,,0.0,0.0,
2025-08-15T03:14:45.445Z,6,GR86-012-8,-3.9,0.259,-0.044,99.84,2.0,,0.0,0.0,
2025-08-15T03:14:45.488Z,6,GR86-012-8,-3.9,0.26,-0.027,99.84,2.0,6174.0,0.0,0.0,
2025-08-15T03:14:45.531Z,6,GR86-012-8,-3.9,0.245,-0.044,99.84,2.0,,0.0,0.0,105.63
2025-08-15T03:14:45.575Z,6,GR86-012-8,-3.9,0.231,-0.038,99.86,2.0,,0.0,0.0,
2025-08-15T03:14:45.618Z,6,GR86-012-8,-3.7,0.229,-0.048,99.84,2.0,,0.0,0.0,
2025-08-15T03:14:45.661Z,6,GR86-012-8,-3.3000000000000003,0.249,-0.045,99.86,2.0,,0.0,0.0,
2025-08-15T03:14:45.705Z,6,GR86-012-8,-3.0,0.268,-0.048,99.84,2.0,6265.0,0.0,0.0,
2025-08-15T03:14:45.748Z,6,GR86-012-8,-3.0,0.251,-0.041,99.85,2.0,,0.0,0.0,107.02
2025-08-15T03:14:45.791Z,6,GR86-012-8,-3.0,0.245,-0.051,99.85,2.0,,0.0,0.0,
2025-08-15T03:14:45.835Z,6,GR86-012-8,-2.9000000000000004,0.23,-0.032,99.83,2.0,,0.0,0.0,
2025-08-15T03:14:45.878Z,6,GR86-012-8,-2.7,0.234,-0.043,99.84,2.0,,0.0,0.0,
2025-08-15T03:14:45.921Z,6,GR86-012-8,-2.3000000000000003,0.257,-0.028,99.84,2.0,6336.0,0.0,0.0,
2025-08-15T03:14:45.965Z,6,GR86-012-8,-2.1,0.259,-0.031,99.84,2.0,,0.0,0.0,108.44
2025-08-15T03:14:46.008Z,6,GR86-012-8,-2.1,0.245,-0.021,99.86,2.0,,0.0,0.0,
2025-08-15T03:14:46.051Z,6,GR86-012-8,-2.0,0.245,-0.022,99.83,2.0,,0.0,0.0,
2025-08-15T03:14:46.096Z,6,GR86-012-8,-1.8,0.243,-0.014,99.85,2.0,,0.0,0.0,
2025-08-15T03:14:46.139Z,6,GR86-012-8,-1.6,0.253,-0.018,99.85,2.0,6406.0,0.0,0.0,
2025-08-15T03:14:46.182Z,6,GR86-012-8,-1.4,0.257,-0.002,99.85,2.0,,0.0,0.0,109.86
2025-08-15T03:14:46.225Z,6,GR86-012-8,-1.0,0.262,0.006,99.85,2.0,,0.0,0.0,
2025-08-15T03:14:46.268Z,6,GR86-012-8,-0.9,0.245,0.019,99.85,2.0,,0.0,0.0,
2025-08-15T03:14:46.311Z,6,GR86-012-8,-0.9,0.247,0.012,99.83,2.0,,0.0,0.0,
2025-08-15T03:14:46.356Z,6,GR86-012-8,-0.9,0.243,0.019,99.85,2.0,6470.0,0.0,0.0,
2025-08-15T03:14:46.399Z,6,GR86-012-8,-0.9,0.241,0.017,99.85,2.0,,0.0,0.0,111.24
2025-08-15T03:14:46.442Z,6,GR86-012-8,-0.8,0.252,0.023,99.84,2.0,,0.0,0.0,
2025-08-15T03:14:46.486Z,6,GR86-012-8,-0.9,0.262,0.029,99.86,2.0,,0.0,0.0,
2025-08-15T03:14:46.529Z,6,GR86-012-8,-0.9,0.236,0.031,99.83,2.0,,0.0,0.0,
2025-08-15T03:14:46.572Z,6,GR86-012-8,-0.9,0.232,0.034,99.85,2.0,6557.0,0.0,0.0,
2025-08-15T03:14:46.615Z,6,GR86-012-8,-0.8,0.242,0.034,99.84,2.0,,0.0,0.0,112.52
2025-08-15T03:14:46.658Z,6,GR86-012-8,-0.7000000000000001,0.258,0.042,99.87,2.0,,0.0,0.0,
2025-08-15T03:14:46.701Z,6,GR86-012-8,-0.7000000000000001,0.254,0.04,99.86,2.0,,0.0,0.0,
2025-08-15T03:14:46.745Z,6,GR86-012-8,-0.7000000000000001,0.246,0.032,99.88,2.0,,0.0,0.0,
2025-08-15T03:14:46.788Z,6,GR86-012-8,-0.7000000000000001,0.227,0.024,99.84,2.0,6633.0,0.0,0.0,
2025-08-15T03:14:46.831Z,6,GR86-012-8,-0.7000000000000001,0.228,0.026,99.86,2.0,,0.0,0.0,113.66
2025-08-15T03:14:46.875Z,6,GR86-012-8,-0.7000000000000001,0.246,0.03,99.85,2.0,,0.0,0.0,
2025-08-15T03:14:46.918Z,6,GR86-012-8,-0.7000000000000001,0.251,0.028,99.86,2.0,,0.0,0.0,
2025-08-15T03:14:46.961Z,6,GR86-012-8,-0.7000000000000001,0.256,0.03,99.85,2.0,,0.0,0.0,
2025-08-15T03:14:47.005Z,6,GR86-012-8,-0.9,0.242,0.025,99.84,2.0,6699.0,0.0,0.0,
2025-08-15T03:14:47.048Z,6,GR86-012-8,-1.0,0.224,0.015,99.85,2.0,,0.0,0.0,114.73
2025-08-15T03:14:47.091Z,6,GR86-012-8,-1.0,0.246,0.015,99.84,2.0,,0.0,0.0,
