timestamp,lap,vehicle_id,steering_angle,accx_can,accy_can,ath,gear,nmot,pbrake_f,pbrake_r,speed
2025-08-14T22:54:29.643Z,6,GR86-010-16,0.6000000000000001,0.11,0.028,99.9,4.0,,0.0,0.0,
2025-08-14T22:54:29.686Z,6,GR86-010-16,0.6000000000000001,0.125,0.026,99.89,4.0,,0.0,0.0,
2025-08-14T22:54:29.729Z,6,GR86-010-16,0.6000000000000001,0.121,0.018,99.88,4.0,6827.0,0.0,0.0,
2025-08-14T22:54:29.772Z,6,GR86-010-16,0.6000000000000001,0.11,0.016,99.89,4.0,,0.0,0.0,171.81
2025-08-14T22:54:29.815Z,6,GR86-010-16,0.6000000000000001,0.102,0.003,99.9,4.0,,0.0,0.0,
2025-08-14T22:54:29.858Z,6,GR86-010-16,0.6000000000000001,0.13,-0.006,99.89,4.0,,0.0,0.0,
2025-08-14T22:54:29.902Z,6,GR86-010-16,0.6000000000000001,0.116,0.016,99.89,4.0,,0.0,0.0,
2025-08-14T22:54:29.945Z,6,GR86-010-16,0.6000000000000001,0.113,0.017,99.9,4.0,6827.0,0.0,0.0,
2025-08-14T22:54:29.988Z,6,GR86-010-16,0.6000000000000001,0.104,0.02,99.9,4.0,,0.0,0.0,172.64
2025-08-14T22:54:30.032Z,6,GR86-010-16,0.6000000000000001,0.102,0.031,99.91,4.0,,0.0,0.0,
2025-08-14T22:54:30.075Z,6,GR86-010-16,0.6000000000000001,0.099,0.021,99.9,4.0,,0.0,0.0,
2025-08-14T22:54:30.118Z,6,GR86-010-16,0.6000000000000001,0.119,0.024,99.89,4.0,,0.0,0.0,
2025-08-14T22:54:30.162Z,6,GR86-010-16,0.6000000000000001,0.128,0.017,99.9,4.0,6863.0,0.0,0.0,
2025-08-14T22:54:30.205Z,6,GR86-010-16,0.6000000000000001,0.107,0.018,99.88,4.0,,0.0,0.0,173.21
2025-08-14T22:54:30.248Z,6,GR86-010-16,0.6000000000000001,0.108,0.028,99.89,4.0,,0.0,0.0,
2025-08-14T22:54:30.292Z,6,GR86-010-16,0.6000000000000001,0.108,0.043,99.9,4.0,,0.0,0.0,
2025-08-14T22:54:30.335Z,6,GR86-010-16,0.6000000000000001,0.107,0.048,99.9,4.0,,0.0,0.0,
2025-08-14T22:54:30.378Z,6,GR86-010-16,0.6000000000000001,0.114,0.043,99.91,4.0,6851.0,0.0,0.0,
2025-08-14T22:54:30.465Z,6,GR86-010-16,0.6000000000000001,0.112,0.029,99.9,4.0,,0.0,0.0,173.85
2025-08-14T22:54:30.508Z,6,GR86-010-16,0.6000000000000001,0.113,0.041,99.9,4.0,,0.0,0.0,
2025-08-14T22:54:30.552Z,6,GR86-010-16,0.6000000000000001,0.112,0.03,99.91,4.0,,0.0,0.0,
2025-08-14T22:54:30.595Z,6,GR86-010-16,0.6000000000000001,0.106,0.009,99.91,4.0,6872.0,0.0,0.0,
2025-08-14T22:54:30.638Z,6,GR86-010-16,0.6000000000000001,0.105,0.011,99.89,4.0,,0.0,0.0,174.62
2025-08-14T22:54:30.682Z,6,GR86-010-16,0.6000000000000001,0.102,0.015,99.88,4.0,,0.0,0.0,
2025-08-14T22:54:30.725Z,6,GR86-010-16,0.6000000000000001,0.11,0.005,99.89,4.0,,0.0,0.0,
2025-08-14T22:54:30.768Z,6,GR86-010-16,0.6000000000000001,0.105,0.004,99.9,4.0,,0.0,0.0,
2025-08-14T22:54:30.811Z,6,GR86-010-16,0.6000000000000001,0.091,-0.008,99.9,4.0,6947.0,0.0,0.0,
2025-08-14T22:54:30.854Z,6,GR86-010-16,0.6000000000000001,0.102,-0.009,99.9,4.0,,0.0,0.0,175.32
2025-08-14T22:54:30.897Z,6,GR86-010-16,0.6000000000000001,0.103,-0.014,99.9,4.0,,0.0,0.0,
2025-08-14T22:54:30.940Z,6,GR86-010-16,0.6000000000000001,0.118,0.001,99.9,4.0,,0.0,0.0,
2025-08-14T22:54:30.983Z,6,GR86-010-16,0.6000000000000001,0.131,0.008,99.9,4.0,,0.0,0.0,
2025-08-14T22:54:31.027Z,6,GR86-010-16,0.6000000000000001,0.127,0.013,99.9,4.0,6985.0,0.0,0.0,
2025-08-14T22:54:31.071Z,6,GR86-010-16,0.6000000000000001,0.112,0.018,99.91,4.0,,0.0,0.0,175.94
2025-08-14T22:54:31.114Z,6,GR86-010-16,0.6000000000000001,0.121,0.02,99.9,4.0,,0.0,0.0,
2025-08-14T22:54:31.157Z,6,GR86-010-16,0.6000000000000001,0.113,0.016,99.9,4.0,,0.0,0.0,
2025-08-14T22:54:31.243Z,6,GR86-010-16,0.6000000000000001,0.097,0.01,99.91,4.0,6986.0,0.0,0.0,
2025-08-14T22:54:31.286Z,6,GR86-010-16,0.6000000000000001,0.094,0.016,99.86,4.0,,0.0,0.0,176.78
2025-08-14T22:54:31.329Z,6,GR86-010-16,0.6000000000000001,0.089,0.022,99.9,4.0,,0.0,0.0,
2025-08-14T22:54:31.372Z,6,GR86-010-16,0.6000000000000001,0.087,0.022,99.9,4.0,,0.0,0.0,
2025-08-14T22:54:31.415Z,6,GR86-010-16,0.6000000000000001,0.091,0.022,99.87,4.0,,0.0,0.0,
2025-08-14T22:54:31.458Z,6,GR86-010-16,0.6000000000000001,0.088,0.022,99.89,4.0,6985.0,0.0,0.0,
2025-08-14T22:54:31.502Z,6,GR86-010-16,0.6000000000000001,0.108,0.031,99.9,4.0,,0.0,0.0,177.42000000000002
2025-08-14T22:54:31.587Z,6,GR86-010-16,0.6000000000000001,0.106,0.019,99.9,4.0,,0.0,0.0,
2025-08-14T22:54:31.630Z,6,GR86-010-16,0.6000000000000001,0.12,0.011,99.87,4.0,,0.0,0.0,
2025-08-14T22:54:31.673Z,6,GR86-010-16,0.6000000000000001,0.112,0.024,99.91,4.0,7048.0,0.0,0.0,
2025-08-14T22:54:31.716Z,6,GR86-010-16,0.6000000000000001,0.115,0.003,99.9,4.0,,0.0,0.0,178.16
2025-08-14T22:54:31.759Z,6,GR86-010-16,0.6000000000000001,0.075,-0.016,99.9,4.0,,0.0,0.0,
2025-08-14T22:54:31.802Z,6,GR86-010-16,0.6000000000000001,0.096,-0.013,99.91,4.0,,0.0,0.0,
2025-08-14T22:54:31.845Z,6,GR86-010-16,0.6000000000000001,0.116,-0.014,99.9,4.0,,0.0,0.0,
2025-08-14T22:54:31.888Z,6,GR86-010-16,0.6000000000000001,0.099,-0.005,99.9,4.0,7032.0,0.0,0.0,
2025-08-14T22:54:31.931Z,6,GR86-010-16,0.6000000000000001,0.098,0.0,99.91,4.0,,0.0,0.0,179.64
2025-08-14T22:54:31.974Z,6,GR86-010-16,0.6000000000000001,0.081,-0.001,99.9,4.0,,0.0,0.0,
2025-08-14T22:54:32.017Z,6,GR86-010-16,0.6000000000000001,0.091,0.009,99.89,4.0,,0.0,0.0,
2025-08-14T22:54:32.061Z,6,GR86-010-16,0.6000000000000001,0.099,-0.011,99.91,4.0,,0.0,0.0,
2025-08-14T22:54:32.104Z,6,GR86-010-16,0.6000000000000001,0.108,-0.005,99.88,4.0,7093.0,0.0,0.0,
2025-08-14T22:54:32.147Z,6,GR86-010-16,0.6000000000000001,0.121,-0.001,99.89,4.0,,0.0,0.0,180.0
2025-08-14T22:54:32.190Z,6,GR86-010-16,0.6000000000000001,0.106,0.003,99.89,4.0,,0.0,0.0,
2025-08-14T22:54:32.233Z,6,GR86-010-16,0.6000000000000001,0.104,0.017,99.9,4.0,,0.0,0.0,
2025-08-14T22:54:32.276Z,6,GR86-010-16,0.6000000000000001,0.102,0.022,99.9,4.0,,0.0,0.0,
2025-08-14T22:54:32.319Z,6,GR86-010-16,0.6000000000000001,0.104,0.03,99.89,4.0,7120.0,0.0,0.0,
2025-08-14T22:54:32.362Z,6,GR86-010-16,0.6000000000000001,0.101,0.06,99.89,4.0,,0.0,0.0,180.64
2025-08-14T22:54:32.405Z,6,GR86-010-16,0.6000000000000001,0.099,0.056,99.9,4.0,,0.0,0.0,
2025-08-14T22:54:32.448Z,6,GR86-010-16,0.6000000000000001,0.088,0.053,99.9,4.0,,0.0,0.0,
2025-08-14T22:54:32.491Z,6,GR86-010-16,0.6000000000000001,0.097,0.058,99.89,4.0,,0.0,0.0,
2025-08-14T22:54:32.534Z,6,GR86-010-16,0.6000000000000001,0.078,0.055,99.91,4.0,7134.0,0.0,0.0,
2025-08-14T22:54:32.577Z,6,GR86-010-16,0.6000000000000001,0.086,0.054,99.88,4.0,,0.0,0.0,181.37
2025-08-14T22:54:32.622Z,6,GR86-010-16,0.6000000000000001,0.116,0.027,99.89,4.0,,0.0,0.0,
2025-08-14T22:54:32.665Z,6,GR86-010-16,0.6000000000000001,0.117,0.028,99.89,4.0,,0.0,0.0,
2025-08-14T22:54:32.708Z,6,GR86-010-16,0.6000000000000001,0.105,0.023,99.89,4.0,,0.0,0.0,
2025-08-14T22:54:32.751Z,6,GR86-010-16,0.6000000000000001,0.113,0.02,99.91,4.0,7154.0,0.0,0.0,
2025-08-14T22:54:32.794Z,6,GR86-010-16,0.6000000000000001,0.095,0.015,99.89,4.0,,0.0,0.0,182.11
2025-08-14T22:54:32.837Z,6,GR86-010-16,0.6000000000000001,0.102,0.01,99.9,4.0,,0.0,0.0,
2025-08-14T22:54:32.881Z,6,GR86-010-16,0.6000000000000001,0.1,0.038,99.9,4.0,,0.0,0.0,
2025-08-14T22:54:32.925Z,6,GR86-010-16,0.6000000000000001,0.086,0.032,99.89,4.0,,0.0,0.0,
2025-08-14T22:54:32.968Z,6,GR86-010-16,0.6000000000000001,0.094,0.026,99.91,4.0,7181.0,0.0,0.0,
2025-08-14T22:54:33.011Z,6,GR86-010-16,0.6000000000000001,0.082,0.026,99.91,4.0,,0.0,0.0,182.86
2025-08-14T22:54:33.054Z,6,GR86-010-16,0.6000000000000001,0.092,0.019,99.87,4.0,,0.0,0.0,
2025-08-14T22:54:33.097Z,6,GR86-010-16,0.6000000000000001,0.082,0.012,99.9,4.0,,0.0,0.0,
2025-08-14T22:54:33.141Z,6,GR86-010-16,0.6000000000000001,-0.161,0.031,99.9,5.0,,0.0,0.0,
2025-08-14T22:54:33.184Z,6,GR86-010-16,0.6000000000000001,0.278,0.055,99.9,5.0,7199.0,0.0,0.0,
2025-08-14T22:54:33.227Z,6,GR86-010-16,0.6000000000000001,0.231,-0.039,99.89,5.0,,0.0,0.0,183.56
2025-08-14T22:54:33.270Z,6,GR86-010-16,0.6000000000000001,0.093,0.011,99.89,5.0,,0.0,0.0,
2025-08-14T22:54:33.313Z,6,GR86-010-16,0.6000000000000001,0.027,0.06,99.9,5.0,,0.0,0.0,
2025-08-14T22:54:33.356Z,6,GR86-010-16,0.6000000000000001,0.069,-0.025,99.9,5.0,,0.0,0.0,
2025-08-14T22:54:33.399Z,6,GR86-010-16,0.6000000000000001,0.092,0.026,99.88,5.0,7084.0,0.0,0.0,
2025-08-14T22:54:33.442Z,6,GR86-010-16,0.6000000000000001,0.089,0.002,99.89,5.0,,0.0,0.0,184.09
2025-08-14T22:54:33.485Z,6,GR86-010-16,0.6000000000000001,0.109,-0.019,99.9,5.0,,0.0,0.0,
2025-08-14T22:54:33.528Z,6,GR86-010-16,0.6000000000000001,0.095,0.017,99.9,5.0,,0.0,0.0,
2025-08-14T22:54:33.571Z,6,GR86-010-16,0.6000000000000001,0.082,-0.005,99.89,5.0,,0.0,0.0,
2025-08-14T22:54:33.614Z,6,GR86-010-16,0.6000000000000001,0.089,0.016,99.9,5.0,6281.0,0.0,0.0,
2025-08-14T22:54:33.657Z,6,GR86-010-16,0.6000000000000001,0.081,0.013,99.9,5.0,,0.0,0.0,184.56
2025-08-14T22:54:33.702Z,6,GR86-010-16,0.6000000000000001,0.09,0.024,99.9,5.0,,0.0,0.0,
2025-08-14T22:54:33.745Z,6,GR86-010-16,0.6000000000000001,0.097,0.032,99.9,5.0,,0.0,0.0,
2025-08-14T22:54:33.788Z,6,GR86-010-16,0.6000000000000001,0.098,0.03,99.89,5.0,,0.0,0.0,
2025-08-14T22:54:33.831Z,6,GR86-010-16,0.6000000000000001,0.108,0.043,99.91,5.0,6359.0,0.0,0.0,
2025-08-14T22:54:33.874Z,6,GR86-010-16,0.6000000000000001,0.096,0.046,99.88,5.0,,0.0,0.0,185.24
2025-08-14T22:54:33.917Z,6,GR86-010-16,0.6000000000000001,0.097,0.049,99.91,5.0,,0.0,0.0,
2025-08-14T22:54:33.961Z,6,GR86-010-16,0.6000000000000001,0.071,0.023,99.88,5.0,,0.0,0.0,
2025-08-14T22:54:34.004Z,6,GR86-010-16,0.6000000000000001,0.087,0.031,99.89,5.0,,0.0,0.0,
2025-08-14T22:54:34.048Z,6,GR86-010-16,0.6000000000000001,0.062,0.012,99.9,5.0,6375.0,0.0,0.0,
2025-08-14T22:54:34.091Z,6,GR86-010-16,0.6000000000000001,0.07,0.013,99.91,5.0,,0.0,0.0,186.03
2025-08-14T22:54:34.134Z,6,GR86-010-16,0.6000000000000001,0.078,0.028,99.91,5.0,,0.0,0.0,
2025-08-14T22:54:34.177Z,6,GR86-010-16,0.6000000000000001,0.089,0.038,99.9,5.0,,0.0,0.0,
2025-08-14T22:54:34.222Z,6,GR86-010-16,0.6000000000000001,0.083,0.028,99.89,5.0,,0.0,0.0,
2025-08-14T22:54:34.265Z,6,GR86-010-16,0.6000000000000001,0.067,0.028,99.89,5.0,6359.0,0.0,0.0,
2025-08-14T22:54:34.308Z,6,GR86-010-16,0.6000000000000001,0.081,0.033,99.89,5.0,,0.0,0.0,186.7
2025-08-14T22:54:34.351Z,6,GR86-010-16,0.6000000000000001,0.071,0.038,99.91,5.0,,0.0,0.0,
2025-08-14T22:54:34.394Z,6,GR86-010-16,0.6000000000000001,0.054,0.03,99.9,5.0,,0.0,0.0,
2025-08-14T22:54:34.437Z,6,GR86-010-16,0.6000000000000001,0.066,0.039,99.9,5.0,,0.0,0.0,
2025-08-14T22:54:34.481Z,6,GR86-010-16,0.6000000000000001,0.085,0.056,99.85,5.0,6393.0,0.0,0.0,
2025-08-14T22:54:34.525Z,6,GR86-010-16,0.6000000000000001,0.09,0.036,99.88,5.0,,0.0,0.0,188.12
2025-08-14T22:54:34.568Z,6,GR86-010-16,0.6000000000000001,0.088,0.028,99.89,5.0,,0.0,0.0,
2025-08-14T22:54:34.611Z,6,GR86-010-16,0.6000000000000001,0.062,0.035,99.9,5.0,,0.0,0.0,
2025-08-14T22:54:34.654Z,6,GR86-010-16,0.6000000000000001,0.066,0.031,99.91,5.0,,0.0,0.0,
2025-08-14T22:54:34.697Z,6,GR86-010-16,0.6000000000000001,0.059,0.041,99.88,5.0,6442.0,0.0,0.0,
2025-08-14T22:54:34.740Z,6,GR86-010-16,0.6000000000000001,0.094,0.011,99.88,5.0,,0.0,0.0,188.6
2025-08-14T22:54:34.783Z,6,GR86-010-16,0.6000000000000001,0.092,0.012,99.89,5.0,,0.0,0.0,
2025-08-14T22:54:34.827Z,6,GR86-010-16,0.6000000000000001,0.094,0.016,99.9,5.0,,0.0,0.0,
2025-08-14T22:54:34.870Z,6,GR86-010-16,0.6000000000000001,0.085,0.023,99.89,5.0,,0.0,0.0,
2025-08-14T22:54:34.913Z,6,GR86-010-16,0.6000000000000001,0.088,0.035,99.88,5.0,6427.0,0.0,0.0,
2025-08-14T22:54:34.957Z,6,GR86-010-16,0.6000000000000001,0.071,0.038,99.87,5.0,,0.0,0.0,189.31
2025-08-14T22:54:34.999Z,6,GR86-010-16,0.6000000000000001,0.056,0.036,99.9,5.0,,0.0,0.0,
2025-08-14T22:54:35.042Z,6,GR86-010-16,0.6000000000000001,0.079,0.014,99.87,5.0,,0.0,0.0,
2025-08-14T22:54:35.085Z,6,GR86-010-16,0.6000000000000001,0.076,0.016,99.89,5.0,,0.0,0.0,
2025-08-14T22:54:35.128Z,6,GR86-010-16,0.6000000000000001,0.07,0.008,99.91,5.0,6508.0,0.0,0.0,
2025-08-14T22:54:35.172Z,6,GR86-010-16,0.6000000000000001,0.072,0.023,99.89,5.0,,0.0,0.0,189.93
2025-08-14T22:54:35.215Z,6,GR86-010-16,0.6000000000000001,0.08,0.034,99.89,5.0,,0.0,0.0,
2025-08-14T22:54:35.258Z,6,GR86-010-16,0.6000000000000001,0.067,0.055,99.88,5.0,,0.0,0.0,
2025-08-14T22:54:35.302Z,6,GR86-010-16,0.6000000000000001,0.051,0.043,99.92,5.0,,0.0,0.0,
2025-08-14T22:54:35.344Z,6,GR86-010-16,0.6000000000000001,0.058,0.043,99.9,5.0,6479.0,0.0,0.0,
2025-08-14T22:54:35.387Z,6,GR86-010-16,0.6000000000000001,0.068,0.032,99.89,5.0,,0.0,0.0,190.52
2025-08-14T22:54:35.431Z,6,GR86-010-16,0.6000000000000001,0.065,0.036,99.9,5.0,,0.0,0.0,
2025-08-14T22:54:35.473Z,6,GR86-010-16,0.6000000000000001,0.058,0.024,99.88,5.0,,0.0,0.0,
2025-08-14T22:54:35.516Z,6,GR86-010-16,0.6000000000000001,0.066,0.021,99.89,5.0,,0.0,0.0,
2025-08-14T22:54:35.559Z,6,GR86-010-16,0.6000000000000001,0.08,0.027,99.91,5.0,6530.0,0.0,0.0,
2025-08-14T22:54:35.602Z,6,GR86-010-16,0.6000000000000001,0.052,0.048,99.86,5.0,,0.0,0.0,190.96
2025-08-14T22:54:35.645Z,6,GR86-010-16,0.6000000000000001,0.061,0.053,99.91,5.0,,0.0,0.0,
2025-08-14T22:54:35.688Z,6,GR86-010-16,0.6000000000000001,0.073,0.037,99.87,5.0,,0.0,0.0,
2025-08-14T22:54:35.775Z,6,GR86-010-16,0.6000000000000001,0.058,0.035,99.89,5.0,6551.0,0.0,0.0,
2025-08-14T22:54:35.818Z,6,GR86-010-16,0.6000000000000001,0.054,0.038,99.88,5.0,,0.0,0.0,191.35
2025-08-14T22:54:35.862Z,6,GR86-010-16,0.6000000000000001,0.042,0.066,99.91,5.0,,0.0,0.0,
2025-08-14T22:54:35.905Z,6,GR86-010-16,0.6000000000000001,0.058,0.062,99.9,5.0,,0.0,0.0,
2025-08-14T22:54:35.948Z,6,GR86-010-16,0.6000000000000001,0.051,0.058,99.9,5.0,,0.0,0.0,
2025-08-14T22:54:35.991Z,6,GR86-010-16,0.6000000000000001,0.066,0.048,99.89,5.0,6551.0,0.0,0.0,
2025-08-14T22:54:36.034Z,6,GR86-010-16,0.6000000000000001,0.051,0.045,99.88,5.0,,0.0,0.0,191.84
2025-08-14T22:54:36.077Z,6,GR86-010-16,0.6000000000000001,0.051,0.029,99.9,5.0,,0.0,0.0,
2025-08-14T22:54:36.122Z,6,GR86-010-16,0.6000000000000001,0.037,0.055,99.88,5.0,,0.0,0.0,
2025-08-14T22:54:36.165Z,6,GR86-010-16,0.6000000000000001,0.048,0.046,99.91,5.0,,0.0,0.0,
2025-08-14T22:54:36.208Z,6,GR86-010-16,0.6000000000000001,0.04,0.052,99.89,5.0,6528.0,0.0,0.0,
2025-08-14T22:54:36.252Z,6,GR86-010-16,0.6000000000000001,0.049,0.055,99.87,5.0,,0.0,0.0,192.11
2025-08-14T22:54:36.295Z,6,GR86-010-16,0.6000000000000001,0.034,0.059,99.87,5.0,,4.305,4.3950000000000005,
2025-08-14T22:54:36.338Z,6,GR86-010-16,0.6000000000000001,0.027,0.025,99.9,5.0,,5.25,5.525,
2025-08-14T22:54:36.382Z,6,GR86-010-16,0.6000000000000001,-0.03,0.008,99.9,5.0,,1.8,2.335,
2025-08-14T22:54:36.425Z,6,GR86-010-16,0.6000000000000001,-0.001,0.008,99.89,5.0,6548.0,0.0,0.0,
2025-08-14T22:54:36.468Z,6,GR86-010-16,0.6000000000000001,0.028,0.015,99.9,5.0,,0.0,0.0,192.42
2025-08-14T22:54:36.511Z,6,GR86-010-16,0.6000000000000001,0.046,0.024,99.88,5.0,,0.0,0.0,
2025-08-14T22:54:36.554Z,6,GR86-010-16,0.6000000000000001,0.037,0.022,99.88,5.0,,0.0,0.0,
2025-08-14T22:54:36.597Z,6,GR86-010-16,0.6000000000000001,0.037,0.034,99.91,5.0,,0.0,0.0,
2025-08-14T22:54:36.640Z,6,GR86-010-16,0.6000000000000001,0.021,0.015,99.89,5.0,6545.0,0.0,0.0,
2025-08-14T22:54:36.683Z,6,GR86-010-16,0.6000000000000001,0.031,0.023,99.89,5.0,,0.0,0.0,192.87
2025-08-14T22:54:36.727Z,6,GR86-010-16,0.6000000000000001,0.028,0.005,99.91,5.0,,0.0,0.0,
2025-08-14T22:54:36.770Z,6,GR86-010-16,0.6000000000000001,0.03,0.013,99.91,5.0,,0.0,0.0,
2025-08-14T22:54:36.813Z,6,GR86-010-16,0.6000000000000001,0.037,0.013,99.9,5.0,,0.0,0.0,
2025-08-14T22:54:36.857Z,6,GR86-010-16,0.6000000000000001,0.023,-0.002,99.89,5.0,6565.0,0.0,0.0,
2025-08-14T22:54:36.901Z,6,GR86-010-16,0.6000000000000001,0.017,-0.016,99.88,5.0,,0.0,0.0,192.52
2025-08-14T22:54:36.944Z,6,GR86-010-16,0.6000000000000001,0.026,-0.024,99.88,5.0,,0.0,0.0,
2025-08-14T22:54:36.987Z,6,GR86-010-16,0.6000000000000001,0.037,-0.022,99.9,5.0,,0.0,0.0,
2025-08-14T22:54:37.030Z,6,GR86-010-16,0.6000000000000001,0.024,-0.019,99.89,5.0,,0.0,0.0,
2025-08-14T22:54:37.073Z,6,GR86-010-16,0.6000000000000001,0.044,-0.008,99.89,5.0,6557.0,0.0,0.0,
2025-08-14T22:54:37.116Z,6,GR86-010-16,0.6000000000000001,0.038,-0.001,99.89,5.0,,0.0,0.0,193.16
2025-08-14T22:54:37.159Z,6,GR86-010-16,0.6000000000000001,0.037,0.01,99.88,5.0,,0.0,0.0,
2025-08-14T22:54:37.202Z,6,GR86-010-16,0.6000000000000001,0.028,-0.018,99.91,5.0,,0.0,0.0,
2025-08-14T22:54:37.245Z,6,GR86-010-16,0.6000000000000001,0.022,0.001,99.88,5.0,,0.0,0.0,
2025-08-14T22:54:37.288Z,6,GR86-010-16,0.6000000000000001,0.039,0.014,99.89,5.0,6573.0,0.0,0.0,
2025-08-14T22:54:37.331Z,6,GR86-010-16,0.6000000000000001,0.049,0.007,99.88,5.0,,0.0,0.0,193.29
2025-08-14T22:54:37.374Z,6,GR86-010-16,0.6000000000000001,0.05,0.014,99.9,5.0,,0.0,0.0,
2025-08-14T22:54:37.417Z,6,GR86-010-16,0.6000000000000001,0.045,0.023,99.91,5.0,,0.0,0.0,
2025-08-14T22:54:37.461Z,6,GR86-010-16,0.6000000000000001,0.015,0.031,99.89,5.0,,0.0,0.0,
2025-08-14T22:54:37.503Z,6,GR86-010-16,0.6000000000000001,0.022,0.038,99.91,5.0,6568.0,0.0,0.0,
2025-08-14T22:54:37.546Z,6,GR86-010-16,0.6000000000000001,0.036,0.033,99.89,5.0,,0.0,0.0,193.59
2025-08-14T22:54:37.589Z,6,GR86-010-16,0.6000000000000001,0.048,0.011,99.9,5.0,,0.0,0.0,
2025-08-14T22:54:37.632Z,6,GR86-010-16,0.6000000000000001,0.042,0.023,99.9,5.0,,0.0,0.0,
2025-08-14T22:54:37.675Z,6,GR86-010-16,0.6000000000000001,0.059,0.017,99.9,5.0,,0.0,0.0,
2025-08-14T22:54:37.718Z,6,GR86-010-16,0.6000000000000001,0.051,0.047,99.88,5.0,6578.0,0.0,0.0,
2025-08-14T22:54:37.762Z,6,GR86-010-16,0.6000000000000001,0.025,0.041,99.9,5.0,,0.0,0.0,193.76
2025-08-14T22:54:37.805Z,6,GR86-010-16,0.6000000000000001,0.04,0.021,99.87,5.0,,0.0,0.0,
2025-08-14T22:54:37.848Z,6,GR86-010-16,0.6000000000000001,0.045,0.025,99.9,5.0,,0.0,0.0,
2025-08-14T22:54:37.891Z,6,GR86-010-16,0.6000000000000001,0.047,0.035,99.88,5.0,,0.0,0.0,
2025-08-14T22:54:37.934Z,6,GR86-010-16,0.6000000000000001,0.058,0.043,99.9,5.0,6589.0,0.0,0.0,
2025-08-14T22:54:37.977Z,6,GR86-010-16,0.6000000000000001,0.065,0.054,99.89,5.0,,0.0,0.0,194.02
2025-08-14T22:54:38.022Z,6,GR86-010-16,0.6000000000000001,0.027,0.041,99.9,5.0,,0.0,0.0,
2025-08-14T22:54:38.065Z,6,GR86-010-16,0.6000000000000001,0.04,0.042,99.91,5.0,,0.0,0.0,
2025-08-14T22:54:38.108Z,6,GR86-010-16,0.6000000000000001,0.05,0.044,99.89,5.0,,0.0,0.0,
2025-08-14T22:54:38.151Z,6,GR86-010-16,0.6000000000000001,0.071,0.033,99.89,5.0,6641.0,0.0,0.0,
2025-08-14T22:54:38.194Z,6,GR86-010-16,0.6000000000000001,0.064,0.022,99.9,5.0,,0.0,0.0,194.16
2025-08-14T22:54:38.237Z,6,GR86-010-16,0.6000000000000001,0.079,0.021,99.9,5.0,,0.0,0.0,
2025-08-14T22:54:38.282Z,6,GR86-010-16,0.6000000000000001,0.039,0.014,99.88,5.0,,0.0,0.0,
2025-08-14T22:54:38.325Z,6,GR86-010-16,0.6000000000000001,0.039,0.0,99.9,5.0,,0.0,0.0,
2025-08-14T22:54:38.368Z,6,GR86-010-16,0.6000000000000001,0.06,-0.038,99.89,5.0,6648.0,0.0,0.0,
2025-08-14T22:54:38.411Z,6,GR86-010-16,0.6000000000000001,0.068,-0.046,99.91,5.0,,0.0,0.0,194.58
2025-08-14T22:54:38.454Z,6,GR86-010-16,0.6000000000000001,0.072,-0.046,99.91,5.0,,0.0,0.0,
2025-08-14T22:54:38.497Z,6,GR86-010-16,0.6000000000000001,0.072,-0.036,99.9,5.0,,0.0,0.0,
2025-08-14T22:54:38.541Z,6,GR86-010-16,0.6000000000000001,0.035,-0.029,78.81,5.0,,10.775,11.035,
2025-08-14T22:54:38.584Z,6,GR86-010-16,1.2000000000000002,-0.062,-0.023,10.23,5.0,6658.0,24.645,24.705,
2025-08-14T22:54:38.627Z,6,GR86-010-16,1.4,-0.368,0.0,4.8100000000000005,5.0,,36.09,35.74,194.83
2025-08-14T22:54:38.670Z,6,GR86-010-16,1.4,-0.761,-0.002,4.86,5.0,,49.49,48.865,
2025-08-14T22:54:38.713Z,6,GR86-010-16,1.4,-0.948,0.038,11.98,5.0,,60.55,60.705,
2025-08-14T22:54:38.756Z,6,GR86-010-16,1.4,-1.069,-0.009,7.79,5.0,,67.175,68.41,
2025-08-14T22:54:38.799Z,6,GR86-010-16,1.4,-1.042,-0.027,7.78,5.0,6626.0,66.61,67.845,
2025-08-14T22:54:38.842Z,6,GR86-010-16,1.4,-0.787,0.037,6.5200000000000005,5.0,,41.28,42.775,195.18
2025-08-14T22:54:38.885Z,6,GR86-010-16,1.4,-0.72,-0.017,4.57,5.0,,35.265,36.365,
2025-08-14T22:54:38.928Z,6,GR86-010-16,1.4,-0.846,0.013,4.41,5.0,,37.265,37.705,
2025-08-14T22:54:38.971Z,6,GR86-010-16,1.4,-0.835,-0.012,4.23,5.0,,43.735,43.795,
2025-08-14T22:54:39.014Z,6,GR86-010-16,1.4,-0.99,-0.015,4.15,5.0,6203.0,51.535,51.455,
2025-08-14T22:54:39.057Z,6,GR86-010-16,1.4,-1.079,0.01,7.33,5.0,,57.59,57.3,192.96
2025-08-14T22:54:39.103Z,6,GR86-010-16,1.4,-1.176,-0.027,60.59,4.0,,64.87,64.61,
2025-08-14T22:54:39.146Z,6,GR86-010-16,1.4,-1.242,-0.013,35.84,4.0,,66.7,66.855,
2025-08-14T22:54:39.189Z,6,GR86-010-16,0.8,-1.141,-0.008,33.58,4.0,,64.215,65.555,
2025-08-14T22:54:39.232Z,6,GR86-010-16,0.8,-1.182,-0.029,31.42,4.0,6075.0,51.595,52.86,
2025-08-14T22:54:39.275Z,6,GR86-010-16,0.8,-0.76,-0.089,5.19,4.0,,34.81,36.12,183.77
2025-08-14T22:54:39.318Z,6,GR86-010-16,0.8,-0.665,0.0,4.32,4.0,,26.17,27.345,
2025-08-14T22:54:39.362Z,6,GR86-010-16,0.8,-0.5720000000000001,-0.077,4.15,4.0,,18.265,19.045,
2025-08-14T22:54:39.404Z,6,GR86-010-16,2.0,-0.481,-0.039,3.91,4.0,,13.885,14.48,
2025-08-14T22:54:39.448Z,6,GR86-010-16,2.0,-0.424,-0.033,3.47,4.0,5742.0,12.27,12.985,
2025-08-14T22:54:39.492Z,6,GR86-010-16,2.0,-0.614,-0.068,3.33,4.0,,12.955,13.43,179.42000000000002
2025-08-14T22:54:39.535Z,6,GR86-010-16,1.3,-0.511,-0.051,3.01,4.0,,14.145,14.48,
2025-08-14T22:54:39.579Z,6,GR86-010-16,1.2000000000000002,-0.47,-0.069,2.85,4.0,,15.96,16.375,
2025-08-14T22:54:39.622Z,6,GR86-010-16,1.2000000000000002,-0.51,-0.033,2.73,4.0,,16.77,17.305,
2025-08-14T22:54:39.665Z,6,GR86-010-16,1.0,-0.52,-0.027,2.67,4.0,6706.0,17.425,17.96,
2025-08-14T22:54:39.708Z,6,GR86-010-16,0.8,-0.556,-0.049,2.66,4.0,,25.665,25.99,169.85
2025-08-14T22:54:39.751Z,6,GR86-010-16,0.8,-0.775,-0.034,2.63,4.0,,42.605,42.485,
2025-08-14T22:54:39.794Z,6,GR86-010-16,-0.8,-0.992,-0.056,17.35,4.0,,60.825,60.52,
2025-08-14T22:54:39.837Z,6,GR86-010-16,-1.9,-1.159,-0.049,55.49,3.0,,74.83500000000001,74.47,
2025-08-14T22:54:39.881Z,6,GR86-010-16,-5.4,-1.024,-0.059,32.9,3.0,6438.0,91.115,92.125,
2025-08-14T22:54:39.924Z,6,GR86-010-16,-6.6000000000000005,-1.145,-0.099,30.67,3.0,,94.61,96.52,165.85
2025-08-14T22:54:39.967Z,6,GR86-010-16,-6.6000000000000005,-0.901,-0.207,3.87,3.0,,90.02,90.995,
2025-08-14T22:54:40.010Z,6,GR86-010-16,-6.6000000000000005,-1.178,-0.131,5.84,3.0,,88.89,89.485,
2025-08-14T22:54:40.053Z,6,GR86-010-16,-6.6000000000000005,-0.939,-0.142,5.6000000000000005,3.0,,87.09,88.525,
2025-08-14T22:54:40.096Z,6,GR86-010-16,-6.6000000000000005,-0.8290000000000001,-0.323,4.53,3.0,6315.0,72.15,73.72,
2025-08-14T22:54:40.139Z,6,GR86-010-16,-1.4,-0.983,-0.329,5.29,3.0,,56.75,58.555,155.23
2025-08-14T22:54:40.182Z,6,GR86-010-16,7.9,-0.844,-0.218,5.29,3.0,,34.15,35.525,
2025-08-14T22:54:40.225Z,6,GR86-010-16,8.0,-0.745,-0.312,5.13,3.0,,21.93,23.15,
2025-08-14T22:54:40.268Z,6,GR86-010-16,8.8,-0.6930000000000001,-0.233,6.91,3.0,,16.145,17.185,
2025-08-14T22:54:40.311Z,6,GR86-010-16,8.9,-0.517,-0.259,5.68,3.0,6165.0,12.59,13.2,
2025-08-14T22:54:40.354Z,6,GR86-010-16,3.1,-0.463,-0.312,2.92,3.0,,10.53,11.37,145.9
2025-08-14T22:54:40.397Z,6,GR86-010-16,-5.2,-0.441,-0.399,2.82,3.0,,11.065,11.705,
2025-08-14T22:54:40.440Z,6,GR86-010-16,-6.4,-0.468,-0.399,2.72,3.0,,13.61,14.145,
2025-08-14T22:54:40.483Z,6,GR86-010-16,-6.0,-0.477,-0.353,2.69,3.0,,15.475,15.87,
2025-08-14T22:54:40.527Z,6,GR86-010-16,-1.5,-0.488,-0.291,2.66,3.0,6563.0,16.895,17.425,
2025-08-14T22:54:40.613Z,6,GR86-010-16,-0.6000000000000001,-0.489,-0.205,2.64,3.0,,18.435,18.77,147.36
2025-08-14T22:54:40.656Z,6,GR86-010-16,-6.5,-0.71,-0.174,2.6,3.0,,38.56,38.56,
2025-08-14T22:54:40.699Z,6,GR86-010-16,-18.6,-0.895,-0.221,2.6,3.0,,55.425,55.15,
2025-08-14T22:54:40.742Z,6,GR86-010-16,-26.6,-0.892,-0.181,2.56,3.0,6506.0,77.49,77.735,
2025-08-14T22:54:40.785Z,6,GR86-010-16,-26.6,-0.918,-0.258,4.48,3.0,,79.96000000000001,80.83,144.44
2025-08-14T22:54:40.828Z,6,GR86-010-16,-21.1,-0.791,-0.342,38.86,3.0,,76.21000000000001,77.61,
2025-08-14T22:54:40.872Z,6,GR86-010-16,-13.6,-0.868,-0.244,82.86,3.0,,74.18,74.955,
2025-08-14T22:54:40.915Z,6,GR86-010-16,-12.4,-0.969,-0.097,83.48,2.0,,80.83,82.055,
2025-08-14T22:54:40.958Z,6,GR86-010-16,-16.400000000000002,-0.878,-0.052,28.97,2.0,6256.0,86.705,88.02,
2025-08-14T22:54:41.002Z,6,GR86-010-16,-33.800000000000004,-1.021,-0.389,4.94,2.0,,86.035,87.395,139.84
2025-08-14T22:54:41.044Z,6,GR86-010-16,-40.0,-0.672,-0.319,3.7,2.0,,86.615,87.865,
2025-08-14T22:54:41.087Z,6,GR86-010-16,-44.0,-0.554,-0.372,3.63,2.0,,85.53,86.22,
2025-08-14T22:54:41.131Z,6,GR86-010-16,-47.900000000000006,-0.988,-0.25,3.53,2.0,,88.83,89.635,
2025-08-14T22:54:41.175Z,6,GR86-010-16,-47.900000000000006,-0.776,-0.461,3.29,2.0,6118.0,87.425,88.705,
2025-08-14T22:54:41.218Z,6,GR86-010-16,-46.8,-0.714,-0.725,3.1,2.0,,81.365,82.89,131.34
2025-08-14T22:54:41.262Z,6,GR86-010-16,-48.1,-0.927,-0.533,2.94,2.0,,78.27,79.075,
2025-08-14T22:54:41.305Z,6,GR86-010-16,-45.0,-0.746,-0.383,3.04,2.0,,79.14,79.9,
2025-08-14T22:54:41.348Z,6,GR86-010-16,-39.400000000000006,-0.918,-0.38,2.98,2.0,,75.645,76.5,
2025-08-14T22:54:41.391Z,6,GR86-010-16,-40.5,-0.8210000000000001,-0.351,2.93,2.0,6270.0,75.005,75.31,
2025-08-14T22:54:41.434Z,6,GR86-010-16,-46.900000000000006,-0.858,-0.766,2.85,2.0,,64.9,66.49,119.21
2025-08-14T22:54:41.477Z,6,GR86-010-16,-53.900000000000006,-0.775,-0.645,2.75,2.0,,46.77,48.3,
2025-08-14T22:54:41.522Z,6,GR86-010-16,-52.900000000000006,-0.75,-0.809,2.73,2.0,,45.245,46.205,
2025-08-14T22:54:41.565Z,6,GR86-010-16,-46.900000000000006,-0.84,-0.722,2.7,2.0,,43.735,44.71,
2025-08-14T22:54:41.608Z,6,GR86-010-16,-40.3,-0.8290000000000001,-0.743,2.67,2.0,6310.0,40.425,41.37,
2025-08-14T22:54:41.652Z,6,GR86-010-16,-38.2,-0.743,-0.733,2.66,2.0,,39.155,39.815,117.7
2025-08-14T22:54:41.695Z,6,GR86-010-16,-38.1,-0.6890000000000001,-0.7020000000000001,2.65,2.0,,37.145,37.98,
2025-08-14T22:54:41.738Z,6,GR86-010-16,-38.5,-0.6930000000000001,-0.925,2.66,2.0,,30.64,31.51,
2025-08-14T22:54:41.782Z,6,GR86-010-16,-43.6,-0.404,-1.196,2.63,2.0,,18.205,19.015,
2025-08-14T22:54:41.825Z,6,GR86-010-16,-106.5,0.473,-1.063,2.62,2.0,6153.0,10.405,10.805,
2025-08-14T22:54:41.868Z,6,GR86-010-16,-254.5,0.272,-1.231,2.61,2.0,,3.905,4.335,107.82
2025-08-14T22:54:41.911Z,6,GR86-010-16,-286.0,-0.195,-0.747,6.98,2.0,,0.0,0.0,
2025-08-14T22:54:41.954Z,6,GR86-010-16,-301.90000000000003,-0.131,-0.807,22.03,2.0,,6.425,6.24,
2025-08-14T22:54:41.997Z,6,GR86-010-16,-303.8,-0.372,-0.868,20.18,2.0,,1.985,0.0,
2025-08-14T22:54:42.040Z,6,GR86-010-16,-299.0,-0.356,-0.86,2.82,2.0,5995.0,0.0,0.0,
2025-08-14T22:54:42.083Z,6,GR86-010-16,-279.5,-0.23,-0.812,2.81,2.0,,0.0,0.0,108.43
2025-08-14T22:54:42.127Z,6,GR86-010-16,-246.0,-0.247,-0.725,4.95,2.0,,0.0,0.0,
2025-08-14T22:54:42.170Z,6,GR86-010-16,-227.2,-0.217,-0.849,8.120000000000001,2.0,,0.0,0.0,
2025-08-14T22:54:42.213Z,6,GR86-010-16,-197.2,-0.232,-0.862,2.94,2.0,,0.0,0.0,
2025-08-14T22:54:42.257Z,6,GR86-010-16,-170.9,-0.215,-0.875,3.2,2.0,5844.0,0.0,0.0,
2025-08-14T22:54:42.301Z,6,GR86-010-16,-122.0,-0.184,-0.863,21.26,2.0,,0.0,0.0,107.78
2025-08-14T22:54:42.343Z,6,GR86-010-16,-84.10000000000001,-0.162,-0.846,20.79,2.0,,0.0,0.0,
2025-08-14T22:54:42.386Z,6,GR86-010-16,-58.0,-0.123,-0.856,5.8500000000000005,2.0,,0.0,0.0,
2025-08-14T22:54:42.429Z,6,GR86-010-16,-19.3,-0.118,-0.894,19.89,2.0,,0.0,0.0,
2025-08-14T22:54:42.472Z,6,GR86-010-16,4.5,-0.086,-0.88,23.09,2.0,5856.0,0.0,0.0,
2025-08-14T22:54:42.515Z,6,GR86-010-16,41.0,-0.024,-0.901,18.83,2.0,,0.0,0.0,102.49
2025-08-14T22:54:42.558Z,6,GR86-010-16,68.60000000000001,-0.042,-0.887,21.71,2.0,,0.0,0.0,
2025-08-14T22:54:42.601Z,6,GR86-010-16,123.2,0.062,-0.869,27.88,2.0,,0.0,0.0,
2025-08-14T22:54:42.644Z,6,GR86-010-16,157.70000000000002,0.063,-0.915,20.59,2.0,,0.0,0.0,
2025-08-14T22:54:42.687Z,6,GR86-010-16,188.6,0.104,-0.895,22.14,2.0,5607.0,0.0,0.0,
2025-08-14T22:54:42.730Z,6,GR86-010-16,214.8,0.134,-0.911,30.9,2.0,,0.0,0.0,96.15
2025-08-14T22:54:42.773Z,6,GR86-010-16,230.9,0.143,-0.891,36.01,2.0,,0.0,0.0,
2025-08-14T22:54:42.816Z,6,GR86-010-16,252.5,0.183,-0.887,29.76,2.0,,0.0,0.0,
2025-08-14T22:54:42.859Z,6,GR86-010-16,270.6,0.182,-0.912,4.54,2.0,,0.0,0.0,
2025-08-14T22:54:42.902Z,6,GR86-010-16,313.1,0.203,-0.857,30.61,2.0,5635.0,0.0,0.0,
2025-08-14T22:54:42.945Z,6,GR86-010-16,350.0,0.191,-0.891,42.8,2.0,,0.0,0.0,97.5
2025-08-14T22:54:42.988Z,6,GR86-010-16,384.2000000000001,0.201,-0.734,26.26,2.0,,0.0,0.0,
2025-08-14T22:54:43.031Z,6,GR86-010-16,419.5,0.237,-0.8250000000000001,4.33,2.0,,0.0,0.0,
2025-08-14T22:54:43.074Z,6,GR86-010-16,455.4,0.222,-0.641,4.42,2.0,,0.0,0.0,
2025-08-14T22:54:43.117Z,6,GR86-010-16,478.2000000000001,0.175,-0.579,4.3100000000000005,2.0,5872.0,0.0,0.0,
2025-08-14T22:54:43.161Z,6,GR86-010-16,471.7000000000001,0.196,-0.683,4.0200000000000005,2.0,,0.0,0.0,98.75
2025-08-14T22:54:43.204Z,6,GR86-010-16,471.6,0.169,-0.6,3.5500000000000003,2.0,,0.0,0.0,
2025-08-14T22:54:43.248Z,6,GR86-010-16,469.9,0.191,-0.708,3.49,2.0,,0.0,0.0,
2025-08-14T22:54:43.291Z,6,GR86-010-16,467.0,0.2,-0.741,19.33,2.0,,0.0,0.0,
2025-08-14T22:54:43.334Z,6,GR86-010-16,467.8,0.226,-0.784,48.34,2.0,5630.0,0.0,0.0,
2025-08-14T22:54:43.377Z,6,GR86-010-16,471.9,0.22,-0.741,88.73,2.0,,0.0,0.0,98.4
2025-08-14T22:54:43.422Z,6,GR86-010-16,471.9,0.227,-0.801,26.88,2.0,,0.0,0.0,
2025-08-14T22:54:43.465Z,6,GR86-010-16,472.6,0.285,-0.759,20.43,2.0,,0.0,0.0,
2025-08-14T22:54:43.508Z,6,GR86-010-16,472.7000000000001,0.262,-0.767,20.63,2.0,,0.0,0.0,
2025-08-14T22:54:43.551Z,6,GR86-010-16,473.7000000000001,0.286,-0.733,3.96,2.0,4869.0,0.0,0.0,
2025-08-14T22:54:43.594Z,6,GR86-010-16,473.9,0.274,-0.73,3.83,2.0,,0.0,0.0,96.42
2025-08-14T22:54:43.637Z,6,GR86-010-16,474.0,0.281,-0.776,3.8,2.0,,0.0,0.0,
2025-08-14T22:54:43.682Z,6,GR86-010-16,474.0,0.276,-0.705,21.87,2.0,,0.0,0.0,
2025-08-14T22:54:43.725Z,6,GR86-010-16,474.0,0.268,-0.783,38.38,2.0,,0.0,0.0,
2025-08-14T22:54:43.768Z,6,GR86-010-16,474.0,0.27,-0.665,45.82,2.0,5072.0,0.0,0.0,
2025-08-14T22:54:43.811Z,6,GR86-010-16,472.4,0.271,-0.6900000000000001,59.9,2.0,,0.0,0.0,93.02
2025-08-14T22:54:43.854Z,6,GR86-010-16,468.8,0.288,-0.687,92.92,2.0,,0.0,0.0,
2025-08-14T22:54:43.897Z,6,GR86-010-16,464.9,0.272,-0.603,94.25,2.0,,0.0,0.0,
2025-08-14T22:54:43.941Z,6,GR86-010-16,459.5,0.287,-0.593,99.79,2.0,,0.0,0.0,
2025-08-14T22:54:43.984Z,6,GR86-010-16,457.3,0.298,-0.5740000000000001,99.78,2.0,4729.0,0.0,0.0,
2025-08-14T22:54:44.027Z,6,GR86-010-16,456.9,0.31,-0.5730000000000001,99.81,2.0,,0.0,0.0,88.43
2025-08-14T22:54:44.070Z,6,GR86-010-16,456.8,0.317,-0.532,99.8,2.0,,0.0,0.0,
2025-08-14T22:54:44.113Z,6,GR86-010-16,456.3,0.333,-0.556,99.81,2.0,,0.0,0.0,
2025-08-14T22:54:44.157Z,6,GR86-010-16,455.9,0.334,-0.517,99.8,2.0,,0.0,0.0,
2025-08-14T22:54:44.202Z,6,GR86-010-16,455.8,0.348,-0.514,99.79,2.0,4972.0,0.0,0.0,
2025-08-14T22:54:44.245Z,6,GR86-010-16,455.8,0.367,-0.507,99.81,2.0,,0.0,0.0,81.86
2025-08-14T22:54:44.288Z,6,GR86-010-16,455.8,0.377,-0.498,99.8,2.0,,0.0,0.0,
2025-08-14T22:54:44.331Z,6,GR86-010-16,455.8,0.377,-0.472,99.8,2.0,,0.0,0.0,
2025-08-14T22:54:44.374Z,6,GR86-010-16,455.8,0.443,-0.499,74.35000000000001,2.0,,0.0,0.0,
2025-08-14T22:54:44.417Z,6,GR86-010-16,455.3,0.417,-0.451,37.98,2.0,5647.0,0.0,0.0,
2025-08-14T22:54:44.461Z,6,GR86-010-16,454.8,0.389,-0.429,3.95,2.0,,0.0,0.0,70.67
2025-08-14T22:54:44.503Z,6,GR86-010-16,454.8,0.375,-0.403,4.44,2.0,,0.0,0.0,
2025-08-14T22:54:44.546Z,6,GR86-010-16,454.8,0.327,-0.402,4.24,2.0,,0.0,0.0,
2025-08-14T22:54:44.589Z,6,GR86-010-16,454.8,0.338,-0.376,3.9,2.0,,0.0,0.0,
2025-08-14T22:54:44.632Z,6,GR86-010-16,454.8,0.353,-0.434,3.46,2.0,6170.0,0.0,0.0,
2025-08-14T22:54:44.675Z,6,GR86-010-16,454.8,0.326,-0.418,15.49,2.0,,0.0,0.0,60.49
2025-08-14T22:54:44.718Z,6,GR86-010-16,454.8,0.388,-0.403,58.88,2.0,,0.0,0.0,
2025-08-14T22:54:44.762Z,6,GR86-010-16,458.8,0.34,-0.452,99.76,2.0,,0.0,0.0,
2025-08-14T22:54:44.804Z,6,GR86-010-16,460.5,0.339,-0.427,99.53,2.0,,0.0,0.0,
2025-08-14T22:54:44.847Z,6,GR86-010-16,460.5,0.255,-0.423,49.58,1.0,6430.0,0.0,0.0,
2025-08-14T22:54:44.891Z,6,GR86-010-16,460.5,0.399,-0.473,3.95,1.0,,0.0,0.0,48.88
2025-08-14T22:54:44.934Z,6,GR86-010-16,460.6,0.231,-0.393,2.98,1.0,,0.0,0.0,
2025-08-14T22:54:44.977Z,6,GR86-010-16,460.6,0.466,-0.624,2.78,1.0,,0.0,0.0,
2025-08-14T22:54:45.022Z,6,GR86-010-16,453.9,0.443,-0.5720000000000001,2.7,1.0,,0.0,0.0,
2025-08-14T22:54:45.065Z,6,GR86-010-16,453.8,0.296,-0.425,2.66,1.0,5865.0,0.0,0.0,
2025-08-14T22:54:45.108Z,6,GR86-010-16,453.8,0.249,-0.616,2.61,1.0,,0.0,0.0,31.39
2025-08-14T22:54:45.151Z,6,GR86-010-16,453.8,0.367,-0.656,2.59,1.0,,0.0,0.0,
2025-08-14T22:54:45.194Z,6,GR86-010-16,453.8,0.222,-0.549,2.56,1.0,,0.0,0.0,
2025-08-14T22:54:45.237Z,6,GR86-010-16,453.8,0.354,-0.842,2.56,1.0,,18.02,18.265,
2025-08-14T22:54:45.281Z,6,GR86-010-16,453.1,0.465,-0.738,2.56,1.0,6231.0,52.02,51.0,
2025-08-14T22:54:45.324Z,6,GR86-010-16,452.7000000000001,0.257,-0.59,2.56,1.0,,78.3,76.985,10.06
2025-08-14T22:54:45.367Z,6,GR86-010-16,450.5,0.785,-0.619,2.56,1.0,,103.43,102.545,
2025-08-14T22:54:45.410Z,6,GR86-010-16,448.7000000000001,0.436,-0.386,2.56,1.0,,115.47,115.12,
2025-08-14T22:54:45.453Z,6,GR86-010-16,448.6,0.851,-0.71,2.56,1.0,,125.36,124.855,
2025-08-14T22:54:45.496Z,6,GR86-010-16,448.7000000000001,0.512,-0.655,2.5500000000000003,1.0,6154.0,133.435,133.71,
2025-08-14T22:54:45.539Z,6,GR86-010-16,447.7000000000001,0.621,-0.778,2.54,1.0,,136.12,137.735,27.92
2025-08-14T22:54:45.582Z,6,GR86-010-16,443.7000000000001,0.778,-0.8130000000000001,2.54,1.0,,147.55,149.135,
2025-08-14T22:54:45.625Z,6,GR86-010-16,443.7000000000001,0.551,-0.988,2.53,1.0,,146.59,146.555,
2025-08-14T22:54:45.668Z,6,GR86-010-16,443.6,0.363,-0.559,2.53,1.0,,149.365,148.235,
2025-08-14T22:54:45.711Z,6,GR86-010-16,443.5,0.615,-0.978,2.54,1.0,5633.0,148.175,146.71,
2025-08-14T22:54:45.754Z,6,GR86-010-16,443.5,0.655,-0.48,2.53,1.0,,146.895,145.215,12.88
2025-08-14T22:54:45.797Z,6,GR86-010-16,443.5,0.601,-0.661,2.53,1.0,,146.3,144.62,
2025-08-14T22:54:45.840Z,6,GR86-010-16,442.4,0.8150000000000001,-0.678,2.53,1.0,,148.39,146.025,
2025-08-14T22:54:45.883Z,6,GR86-010-16,442.4,0.75,-0.871,2.53,1.0,,152.965,150.785,
2025-08-14T22:54:45.926Z,6,GR86-010-16,442.4,0.928,-0.887,2.53,1.0,4726.0,159.145,158.55,
2025-08-14T22:54:45.969Z,6,GR86-010-16,442.4,0.665,-0.758,2.53,1.0,,158.4,158.46,29.95
2025-08-14T22:54:46.012Z,6,GR86-010-16,442.4,0.781,-0.658,2.53,1.0,,158.965,157.405,
2025-08-14T22:54:46.055Z,6,GR86-010-16,442.4,0.705,-0.649,2.53,1.0,,160.43,158.305,
2025-08-14T22:54:46.098Z,6,GR86-010-16,442.8,0.731,-0.583,2.53,1.0,,160.04500000000002,157.865,
2025-08-14T22:54:46.141Z,6,GR86-010-16,445.7000000000001,0.733,-0.5750000000000001,2.53,1.0,4283.0,156.34,156.095,
2025-08-14T22:54:46.184Z,6,GR86-010-16,445.7000000000001,0.8290000000000001,-0.733,2.52,1.0,,151.93,151.96,31.87
2025-08-14T22:54:46.227Z,6,GR86-010-16,445.7000000000001,0.757,-0.733,2.53,1.0,,150.435,152.525,
2025-08-14T22:54:46.270Z,6,GR86-010-16,446.7000000000001,0.842,-0.773,2.52,1.0,,141.215,141.82500000000002,
2025-08-14T22:54:46.313Z,6,GR86-010-16,446.8,0.6890000000000001,-0.719,2.52,1.0,,140.085,141.52,
2025-08-14T22:54:46.357Z,6,GR86-010-16,446.8,0.782,-0.755,2.53,1.0,3879.0,139.935,142.115,
2025-08-14T22:54:46.399Z,6,GR86-010-16,447.4,0.686,-0.628,2.53,1.0,,132.18,132.715,29.15
2025-08-14T22:54:46.442Z,6,GR86-010-16,448.0,0.721,-0.744,2.53,1.0,,123.62,124.795,
2025-08-14T22:54:46.485Z,6,GR86-010-16,448.0,0.868,-0.714,2.52,1.0,,121.53,123.12,
2025-08-14T22:54:46.528Z,6,GR86-010-16,448.0,0.877,-0.718,2.52,1.0,,120.66,121.53,
2025-08-14T22:54:46.572Z,6,GR86-010-16,448.0,0.859,-0.718,2.53,1.0,3526.0,124.735,123.775,
2025-08-14T22:54:46.615Z,6,GR86-010-16,448.0,0.809,-0.626,2.53,1.0,,131.71,130.365,23.41
2025-08-14T22:54:46.658Z,6,GR86-010-16,448.0,0.935,-0.511,2.52,1.0,,134.775,133.525,
2025-08-14T22:54:46.701Z,6,GR86-010-16,448.0,1.052,-0.544,2.53,1.0,,136.455,135.145,
2025-08-14T22:54:46.744Z,6,GR86-010-16,448.0,0.833,-0.536,2.53,1.0,,138.895,137.525,
2025-08-14T22:54:46.787Z,6,GR86-010-16,448.0,0.8180000000000001,-0.58,2.51,1.0,3197.0,140.5,139.065,
2025-08-14T22:54:46.831Z,6,GR86-010-16,448.0,0.859,-0.577,2.52,1.0,,139.215,139.155,18.49
2025-08-14T22:54:46.875Z,6,GR86-010-16,448.0,0.943,-0.5750000000000001,2.52,1.0,,135.645,135.77,
2025-08-14T22:54:46.919Z,6,GR86-010-16,448.1,0.947,-0.506,2.52,1.0,,135.175,134.595,
2025-08-14T22:54:46.962Z,6,GR86-010-16,448.2000000000001,0.916,-0.439,2.51,1.0,,131.115,132.06,
2025-08-14T22:54:47.005Z,6,GR86-010-16,448.2000000000001,0.844,-0.342,2.51,1.0,2874.0,127.56,129.74,
2025-08-14T22:54:47.048Z,6,GR86-010-16,448.3,0.923,-0.316,2.51,1.0,,123.15,125.925,14.01
2025-08-14T22:54:47.091Z,6,GR86-010-16,448.3,0.903,-0.296,2.52,1.0,,109.125,112.115,
2025-08-14T22:54:47.134Z,6,GR86-010-16,448.3,0.801,-0.242,2.52,1.0,,73.72,76.145,
2025-08-14T22:54:47.177Z,6,GR86-010-16,448.3,0.5710000000000001,-0.247,2.52,1.0,,39.845,41.555,
2025-08-14T22:54:47.222Z,6,GR86-010-16,448.3,0.409,-0.302,2.51,1.0,2548.0,9.63,10.68,
2025-08-14T22:54:47.265Z,6,GR86-010-16,448.3,0.272,-0.415,9.53,1.0,,1.83,2.52,9.96
2025-08-14T22:54:47.308Z,6,GR86-010-16,448.3,0.163,-0.243,53.1,1.0,,0.0,0.0,
2025-08-14T22:54:47.352Z,6,GR86-010-16,448.3,0.047,-0.157,87.66,1.0,,0.0,0.0,
2025-08-14T22:54:47.395Z,6,GR86-010-16,448.3,-0.069,0.037,89.57000000000001,1.0,,0.0,0.0,
2025-08-14T22:54:47.438Z,6,GR86-010-16,448.3,-0.124,0.195,89.77,1.0,2228.0,0.0,0.0,
2025-08-14T22:54:47.482Z,6,GR86-010-16,448.3,-0.12,0.284,89.92,1.0,,0.0,0.0,5.41
2025-08-14T22:54:47.525Z,6,GR86-010-16,448.8,-0.085,0.267,89.98,1.0,,0.0,0.0,
2025-08-14T22:54:47.568Z,6,GR86-010-16,452.8,-0.021,0.195,94.19,1.0,,0.0,0.0,
2025-08-14T22:54:47.611Z,6,GR86-010-16,457.5,0.025,0.001,99.17,1.0,,0.0,0.0,
2025-08-14T22:54:47.654Z,6,GR86-010-16,460.5,0.091,-0.128,99.78,1.0,1930.0,0.0,0.0,
2025-08-14T22:54:47.697Z,6,GR86-010-16,461.1,0.069,-0.169,99.77,1.0,,0.0,0.0,1.79
2025-08-14T22:54:47.740Z,6,GR86-010-16,461.1,0.082,-0.111,99.76,1.0,,0.0,0.0,
2025-08-14T22:54:47.783Z,6,GR86-010-16,461.1,0.002,-0.025,99.78,1.0,,0.0,0.0,
2025-08-14T22:54:47.827Z,6,GR86-010-16,461.1,0.044,0.068,99.79,1.0,,0.0,0.0,
2025-08-14T22:54:47.870Z,6,GR86-010-16,462.2000000000001,-0.008,0.127,99.78,1.0,2141.0,0.0,0.0,
2025-08-14T22:54:47.913Z,6,GR86-010-16,467.9,0.043,0.16,98.69,1.0,,0.0,0.0,2.09
2025-08-14T22:54:47.957Z,6,GR86-010-16,471.1,0.319,0.175,53.04,1.0,,0.0,0.0,
2025-08-14T22:54:47.999Z,6,GR86-010-16,471.2000000000001,0.5,0.129,26.0,1.0,,0.0,0.0,
2025-08-14T22:54:48.042Z,6,GR86-010-16,471.2000000000001,0.311,0.176,34.93,1.0,,0.0,0.0,
2025-08-14T22:54:48.128Z,6,GR86-010-16,472.0,0.295,0.193,57.94,1.0,3575.0,0.0,0.0,1.35
2025-08-14T22:54:48.171Z,6,GR86-010-16,472.9,0.309,0.171,99.72,1.0,,0.0,0.0,
2025-08-14T22:54:48.214Z,6,GR86-010-16,472.9,0.312,0.152,99.8,1.0,,0.0,0.0,
2025-08-14T22:54:48.257Z,6,GR86-010-16,472.9,0.349,0.106,99.78,1.0,,0.0,0.0,
2025-08-14T22:54:48.301Z,6,GR86-010-16,472.9,0.233,0.159,78.53,1.0,5172.0,0.0,0.0,
2025-08-14T22:54:48.343Z,6,GR86-010-16,472.9,0.328,0.136,96.44,1.0,,0.0,0.0,0.61
2025-08-14T22:54:48.386Z,6,GR86-010-16,472.9,0.257,0.194,99.63,1.0,,0.0,0.0,
2025-08-14T22:54:48.429Z,6,GR86-010-16,471.0,0.258,0.177,99.8,1.0,,0.0,0.0,
2025-08-14T22:54:48.472Z,6,GR86-010-16,467.6,0.31,0.175,72.85000000000001,1.0,,0.0,0.0,
2025-08-14T22:54:48.515Z,6,GR86-010-16,461.0,0.222,0.199,34.95,1.0,5008.0,0.0,0.0,
2025-08-14T22:54:48.558Z,6,GR86-010-16,449.7000000000001,0.307,0.161,30.47,1.0,,0.0,0.0,3.14
2025-08-14T22:54:48.601Z,6,GR86-010-16,425.7000000000001,0.272,0.16,25.75,1.0,,0.0,0.0,
2025-08-14T22:54:48.644Z,6,GR86-010-16,410.1,0.254,0.157,24.53,1.0,,0.0,0.0,
2025-08-14T22:54:48.687Z,6,GR86-010-16,395.4,0.327,0.141,28.96,1.0,,0.0,0.0,
2025-08-14T22:54:48.730Z,6,GR86-010-16,384.6,0.253,0.131,42.15,1.0,4719.0,0.0,0.0,
2025-08-14T22:54:48.773Z,6,GR86-010-16,378.4,0.323,0.132,67.55,1.0,,0.0,0.0,6.53
2025-08-14T22:54:48.816Z,6,GR86-010-16,377.4,0.249,0.152,94.47,1.0,,0.0,0.0,
2025-08-14T22:54:48.859Z,6,GR86-010-16,377.4,0.281,0.178,95.0,1.0,,0.0,0.0,
2025-08-14T22:54:48.902Z,6,GR86-010-16,377.4,0.264,0.227,62.35,1.0,,0.0,0.0,
2025-08-14T22:54:48.945Z,6,GR86-010-16,379.5,0.241,0.265,44.01,1.0,4500.0,0.0,0.0,
2025-08-14T22:54:48.988Z,6,GR86-010-16,379.8,0.213,0.313,42.15,1.0,,0.0,0.0,9.45
2025-08-14T22:54:49.031Z,6,GR86-010-16,379.8,0.23,0.331,33.49,1.0,,0.0,0.0,
2025-08-14T22:54:49.074Z,6,GR86-010-16,378.6,0.23,0.346,29.45,1.0,,0.0,0.0,
2025-08-14T22:54:49.117Z,6,GR86-010-16,375.5,0.244,0.336,31.44,1.0,,0.0,0.0,
2025-08-14T22:54:49.161Z,6,GR86-010-16,371.7000000000001,0.194,0.293,47.99,1.0,4321.0,0.0,0.0,
2025-08-14T22:54:49.203Z,6,GR86-010-16,364.7000000000001,0.222,0.277,61.78,1.0,,0.0,0.0,11.74
2025-08-14T22:54:49.246Z,6,GR86-010-16,357.3,0.243,0.246,60.89,1.0,,0.0,0.0,
2025-08-14T22:54:49.289Z,6,GR86-010-16,352.40000000000003,0.246,0.258,52.82,1.0,,0.0,0.0,
2025-08-14T22:54:49.332Z,6,GR86-010-16,344.70000000000005,0.238,0.283,31.69,1.0,,0.0,0.0,
2025-08-14T22:54:49.418Z,6,GR86-010-16,331.0,0.243,0.298,35.02,1.0,4325.0,0.0,0.0,14.21
2025-08-14T22:54:49.461Z,6,GR86-010-16,281.6,0.252,0.262,97.91,1.0,,0.0,0.0,
2025-08-14T22:54:49.504Z,6,GR86-010-16,266.1,0.287,0.22,99.68,1.0,,0.0,0.0,
2025-08-14T22:54:49.548Z,6,GR86-010-16,259.0,0.308,0.171,99.79,1.0,,0.0,0.0,
2025-08-14T22:54:49.591Z,6,GR86-010-16,258.90000000000003,0.291,0.173,99.79,1.0,4203.0,0.0,0.0,
2025-08-14T22:54:49.634Z,6,GR86-010-16,266.0,0.29,0.232,99.8,1.0,,0.0,0.0,16.47
2025-08-14T22:54:49.677Z,6,GR86-010-16,272.8,0.254,0.321,99.75,1.0,,0.0,0.0,
2025-08-14T22:54:49.722Z,6,GR86-010-16,283.0,0.232,0.427,88.36,1.0,,0.0,0.0,
2025-08-14T22:54:49.765Z,6,GR86-010-16,290.8,0.209,0.481,87.01,1.0,,0.0,0.0,
2025-08-14T22:54:49.808Z,6,GR86-010-16,292.7,0.19,0.512,88.5,1.0,4136.0,0.0,0.0,
2025-08-14T22:54:49.851Z,6,GR86-010-16,287.8,0.194,0.524,89.49,1.0,,0.0,0.0,18.6
2025-08-14T22:54:49.894Z,6,GR86-010-16,276.90000000000003,0.198,0.468,85.24,1.0,,0.0,0.0,
2025-08-14T22:54:49.937Z,6,GR86-010-16,260.0,0.208,0.419,62.43,1.0,,0.0,0.0,
2025-08-14T22:54:49.982Z,6,GR86-010-16,227.9,0.309,0.351,47.16,1.0,,0.0,0.0,
2025-08-14T22:54:50.025Z,6,GR86-010-16,206.9,0.278,0.294,44.75,1.0,4279.0,0.0,0.0,
2025-08-14T22:54:50.068Z,6,GR86-010-16,189.3,0.296,0.272,55.53,1.0,,0.0,0.0,20.25
2025-08-14T22:54:50.111Z,6,GR86-010-16,175.60000000000002,0.282,0.214,69.46000000000001,1.0,,0.0,0.0,
2025-08-14T22:54:50.154Z,6,GR86-010-16,167.70000000000002,0.293,0.221,83.85000000000001,1.0,,0.0,0.0,
2025-08-14T22:54:50.197Z,6,GR86-010-16,166.9,0.285,0.22,99.54,1.0,,0.0,0.0,
2025-08-14T22:54:50.241Z,6,GR86-010-16,171.4,0.275,0.262,99.79,1.0,4490.0,0.0,0.0,
2025-08-14T22:54:50.284Z,6,GR86-010-16,173.5,0.263,0.311,99.81,1.0,,0.0,0.0,22.41
2025-08-14T22:54:50.327Z,6,GR86-010-16,173.5,0.254,0.42,99.8,1.0,,0.0,0.0,
2025-08-14T22:54:50.370Z,6,GR86-010-16,167.8,0.265,0.423,99.73,1.0,,0.0,0.0,
2025-08-14T22:54:50.413Z,6,GR86-010-16,154.0,0.237,0.374,72.57000000000001,1.0,,0.0,0.0,
2025-08-14T22:54:50.456Z,6,GR86-010-16,136.1,0.283,0.332,47.19,1.0,4882.0,0.0,0.0,
2025-08-14T22:54:50.499Z,6,GR86-010-16,116.6,0.272,0.272,41.53,1.0,,0.0,0.0,24.63
2025-08-14T22:54:50.542Z,6,GR86-010-16,98.1,0.27,0.194,45.2,1.0,,0.0,0.0,
2025-08-14T22:54:50.585Z,6,GR86-010-16,93.9,0.302,0.127,52.44,1.0,,0.0,0.0,
2025-08-14T22:54:50.628Z,6,GR86-010-16,93.8,0.269,0.1,65.8,1.0,,0.0,0.0,
2025-08-14T22:54:50.671Z,6,GR86-010-16,95.3,0.28,0.15,73.32000000000001,1.0,5283.0,0.0,0.0,
2025-08-14T22:54:50.714Z,6,GR86-010-16,98.5,0.267,0.209,51.85,1.0,,0.0,0.0,25.92
2025-08-14T22:54:50.757Z,6,GR86-010-16,98.5,0.27,0.237,34.43,1.0,,0.0,0.0,
2025-08-14T22:54:50.802Z,6,GR86-010-16,90.3,0.284,0.261,4.33,1.0,,0.0,0.0,
2025-08-14T22:54:50.845Z,6,GR86-010-16,80.2,0.265,0.237,4.44,1.0,,0.0,0.0,
2025-08-14T22:54:50.888Z,6,GR86-010-16,70.3,0.272,0.202,7.78,1.0,5679.0,0.0,0.0,
2025-08-14T22:54:50.931Z,6,GR86-010-16,60.900000000000006,0.268,0.149,22.53,1.0,,0.0,0.0,29.54
2025-08-14T22:54:50.974Z,6,GR86-010-16,53.7,0.268,0.103,23.88,1.0,,0.0,0.0,
2025-08-14T22:54:51.017Z,6,GR86-010-16,49.0,0.264,0.073,28.54,1.0,,0.0,0.0,
2025-08-14T22:54:51.061Z,6,GR86-010-16,44.900000000000006,0.263,0.042,39.0,1.0,,0.0,0.0,
2025-08-14T22:54:51.104Z,6,GR86-010-16,44.6,0.258,0.024,68.58,1.0,5996.0,0.0,0.0,
2025-08-14T22:54:51.148Z,6,GR86-010-16,44.7,0.272,0.079,94.23,1.0,,0.0,0.0,31.3
2025-08-14T22:54:51.191Z,6,GR86-010-16,44.7,0.253,0.102,93.13,1.0,,0.0,0.0,
2025-08-14T22:54:51.234Z,6,GR86-010-16,44.6,0.271,0.125,99.46,1.0,,0.0,0.0,
2025-08-14T22:54:51.277Z,6,GR86-010-16,44.6,0.264,0.14,99.8,1.0,,0.0,0.0,
2025-08-14T22:54:51.322Z,6,GR86-010-16,44.6,0.264,0.105,87.21000000000001,1.0,4953.0,0.0,0.0,
2025-08-14T22:54:51.365Z,6,GR86-010-16,44.6,0.275,0.12,32.78,1.0,,0.0,0.0,32.75
2025-08-14T22:54:51.408Z,6,GR86-010-16,44.5,0.267,0.122,13.38,1.0,,0.0,0.0,
2025-08-14T22:54:51.451Z,6,GR86-010-16,36.1,0.281,0.142,4.38,1.0,,0.0,0.0,
2025-08-14T22:54:51.494Z,6,GR86-010-16,25.200000000000003,0.268,0.098,4.3500000000000005,1.0,,0.0,0.0,
2025-08-14T22:54:51.537Z,6,GR86-010-16,14.9,0.267,0.061,4.21,1.0,5489.0,0.0,0.0,
2025-08-14T22:54:51.581Z,6,GR86-010-16,8.0,0.265,-0.068,16.990000000000002,1.0,,0.0,0.0,34.38
2025-08-14T22:54:51.624Z,6,GR86-010-16,8.0,0.251,-0.056,20.11,1.0,,0.0,0.0,
2025-08-14T22:54:51.667Z,6,GR86-010-16,8.0,0.26,-0.032,20.99,1.0,,0.0,0.0,
2025-08-14T22:54:51.710Z,6,GR86-010-16,11.0,0.264,-0.001,33.74,1.0,,0.0,0.0,
2025-08-14T22:54:51.753Z,6,GR86-010-16,15.8,0.261,0.032,45.49,1.0,5672.0,0.0,0.0,
2025-08-14T22:54:51.796Z,6,GR86-010-16,19.700000000000003,0.267,0.032,78.48,1.0,,0.0,0.0,36.3
2025-08-14T22:54:51.839Z,6,GR86-010-16,22.9,0.264,0.055,99.67,1.0,,0.0,0.0,
2025-08-14T22:54:51.882Z,6,GR86-010-16,24.5,0.269,0.11,99.8,1.0,,0.0,0.0,
2025-08-14T22:54:51.925Z,6,GR86-010-16,24.5,0.28,0.132,99.82,1.0,,0.0,0.0,
2025-08-14T22:54:51.968Z,6,GR86-010-16,24.4,0.305,0.123,99.83,1.0,4345.0,0.0,0.0,
2025-08-14T22:54:52.011Z,6,GR86-010-16,19.700000000000003,0.285,0.078,99.82,1.0,,0.0,0.0,37.79
2025-08-14T22:54:52.054Z,6,GR86-010-16,13.0,0.305,0.031,99.81,1.0,,0.0,0.0,
2025-08-14T22:54:52.097Z,6,GR86-010-16,6.5,0.287,-0.011,99.8,1.0,,0.0,0.0,
2025-08-14T22:54:52.140Z,6,GR86-010-16,1.0,0.296,-0.023,99.83,1.0,,0.0,0.0,
2025-08-14T22:54:52.183Z,6,GR86-010-16,0.7000000000000001,0.328,-0.033,99.81,1.0,4189.0,0.0,0.0,
2025-08-14T22:54:52.227Z,6,GR86-010-16,0.7000000000000001,0.308,-0.041,99.79,1.0,,0.0,0.0,39.52
2025-08-14T22:54:52.269Z,6,GR86-010-16,2.6,0.341,-0.046,93.91,1.0,,0.0,0.0,
2025-08-14T22:54:52.312Z,6,GR86-010-16,6.7,0.307,-0.019,95.66,1.0,,0.0,0.0,
2025-08-14T22:54:52.355Z,6,GR86-010-16,9.3,0.333,0.002,99.57,1.0,,0.0,0.0,
2025-08-14T22:54:52.398Z,6,GR86-010-16,10.0,0.315,0.038,99.81,1.0,4660.0,0.0,0.0,
2025-08-14T22:54:52.442Z,6,GR86-010-16,10.3,0.329,0.018,99.81,1.0,,0.0,0.0,41.44
2025-08-14T22:54:52.485Z,6,GR86-010-16,10.3,0.322,0.044,81.61,1.0,,0.0,0.0,
2025-08-14T22:54:52.528Z,6,GR86-010-16,10.3,0.33,-0.005,71.88,1.0,,0.0,0.0,
2025-08-14T22:54:52.572Z,6,GR86-010-16,10.3,0.321,0.017,50.84,1.0,,0.0,0.0,
2025-08-14T22:54:52.615Z,6,GR86-010-16,7.2,0.312,0.012,41.65,1.0,5158.0,0.0,0.0,
2025-08-14T22:54:52.658Z,6,GR86-010-16,5.6000000000000005,0.344,-0.013,46.69,1.0,,0.0,0.0,43.44
2025-08-14T22:54:52.701Z,6,GR86-010-16,5.6000000000000005,0.299,-0.035,70.10000000000001,1.0,,0.0,0.0,
2025-08-14T22:54:52.744Z,6,GR86-010-16,5.6000000000000005,0.322,-0.022,69.10000000000001,1.0,,0.0,0.0,
2025-08-14T22:54:52.787Z,6,GR86-010-16,5.6000000000000005,0.304,-0.02,75.62,1.0,,0.0,0.0,
2025-08-14T22:54:52.831Z,6,GR86-010-16,4.4,0.303,-0.036,98.23,1.0,5545.0,0.0,0.0,
2025-08-14T22:54:52.875Z,6,GR86-010-16,2.3000000000000003,0.311,-0.04,99.83,1.0,,0.0,0.0,45.58
2025-08-14T22:54:52.918Z,6,GR86-010-16,1.9,0.288,-0.049,99.81,1.0,,0.0,0.0,
2025-08-14T22:54:52.962Z,6,GR86-010-16,1.9,0.31,-0.038,99.81,1.0,,0.0,0.0,
2025-08-14T22:54:53.005Z,6,GR86-010-16,1.9,0.294,-0.068,99.84,1.0,,0.0,0.0,
2025-08-14T22:54:53.048Z,6,GR86-010-16,1.9,0.286,-0.054,99.84,1.0,5814.0,0.0,0.0,
2025-08-14T22:54:53.091Z,6,GR86-010-16,1.9,0.288,0.005,99.84,1.0,,0.0,0.0,47.91
2025-08-14T22:54:53.134Z,6,GR86-010-16,1.9,0.248,0.015,99.84,1.0,,0.0,0.0,
2025-08-14T22:54:53.177Z,6,GR86-010-16,1.9,0.264,-0.065,98.36,1.0,,0.0,0.0,
2025-08-14T22:54:53.222Z,6,GR86-010-16,1.9,0.277,-0.05,99.82,1.0,,0.0,0.0,
2025-08-14T22:54:53.265Z,6,GR86-010-16,1.9,0.272,0.003,76.64,1.0,6185.0,0.0,0.0,
2025-08-14T22:54:53.308Z,6,GR86-010-16,1.9,0.295,-0.006,38.25,1.0,,0.0,0.0,50.05
2025-08-14T22:54:53.352Z,6,GR86-010-16,1.9,0.282,-0.014,36.5,1.0,,0.0,0.0,
2025-08-14T22:54:53.395Z,6,GR86-010-16,2.9000000000000004,0.266,-0.025,36.58,1.0,,0.0,0.0,
2025-08-14T22:54:53.438Z,6,GR86-010-16,2.9000000000000004,0.294,-0.019,34.06,1.0,,0.0,0.0,
2025-08-14T22:54:53.482Z,6,GR86-010-16,2.9000000000000004,0.299,0.027,49.06,1.0,5697.0,0.0,0.0,
2025-08-14T22:54:53.525Z,6,GR86-010-16,2.9000000000000004,0.271,-0.026,91.54,1.0,,0.0,0.0,54.120000000000005
2025-08-14T22:54:53.568Z,6,GR86-010-16,2.9000000000000004,0.3,-0.056,99.77,1.0,,0.0,0.0,
2025-08-14T22:54:53.611Z,6,GR86-010-16,2.9000000000000004,0.295,-0.029,69.87,1.0,,0.0,0.0,
2025-08-14T22:54:53.654Z,6,GR86-010-16,2.2,0.295,-0.023,47.68,1.0,,0.0,0.0,
2025-08-14T22:54:53.697Z,6,GR86-010-16,1.2000000000000002,0.279,-0.035,44.19,1.0,5915.0,0.0,0.0,
2025-08-14T22:54:53.740Z,6,GR86-010-16,1.2000000000000002,0.279,-0.085,93.59,1.0,,0.0,0.0,56.1
2025-08-14T22:54:53.783Z,6,GR86-010-16,1.2000000000000002,0.299,-0.048,99.77,1.0,,0.0,0.0,
2025-08-14T22:54:53.827Z,6,GR86-010-16,1.2000000000000002,0.321,-0.042,99.83,1.0,,0.0,0.0,
2025-08-14T22:54:53.870Z,6,GR86-010-16,1.2000000000000002,0.269,-0.028,99.83,1.0,,0.0,0.0,
2025-08-14T22:54:53.913Z,6,GR86-010-16,1.2000000000000002,0.267,-0.019,99.83,1.0,6082.0,0.0,0.0,
2025-08-14T22:54:53.957Z,6,GR86-010-16,1.0,0.265,-0.085,99.85,1.0,,0.0,0.0,58.05
2025-08-14T22:54:53.999Z,6,GR86-010-16,-0.4,0.262,-0.093,99.83,1.0,,0.0,0.0,
2025-08-14T22:54:54.042Z,6,GR86-010-16,-0.6000000000000001,0.284,-0.103,45.71,1.0,,0.0,0.0,
2025-08-14T22:54:54.085Z,6,GR86-010-16,-0.6000000000000001,0.288,-0.057,24.96,1.0,,0.0,0.0,
2025-08-14T22:54:54.128Z,6,GR86-010-16,-0.6000000000000001,0.295,-0.039,4.54,1.0,5888.0,0.0,0.0,
2025-08-14T22:54:54.171Z,6,GR86-010-16,-0.6000000000000001,0.286,-0.049,4.34,1.0,,0.0,0.0,60.08
2025-08-14T22:54:54.214Z,6,GR86-010-16,-0.6000000000000001,0.247,-0.061,4.2,1.0,,0.0,0.0,
2025-08-14T22:54:54.257Z,6,GR86-010-16,-0.6000000000000001,0.258,-0.07,3.91,1.0,,0.0,0.0,
2025-08-14T22:54:54.301Z,6,GR86-010-16,-0.6000000000000001,0.185,-0.073,3.17,1.0,,0.0,0.0,
2025-08-14T22:54:54.344Z,6,GR86-010-16,-0.6000000000000001,0.042,-0.074,2.91,1.0,6066.0,0.0,0.0,
2025-08-14T22:54:54.387Z,6,GR86-010-16,-0.6000000000000001,-0.002,-0.091,2.8000000000000003,1.0,,0.0,0.0,62.0
2025-08-14T22:54:54.430Z,6,GR86-010-16,-0.8,-0.029,-0.078,2.75,1.0,,0.0,0.0,
2025-08-14T22:54:54.473Z,6,GR86-010-16,-1.9,-0.04,-0.098,2.7,1.0,,0.0,0.0,
2025-08-14T22:54:54.516Z,6,GR86-010-16,-2.1,-0.02,-0.114,2.67,1.0,,0.0,0.0,
2025-08-14T22:54:54.559Z,6,GR86-010-16,-2.1,-0.028,-0.123,2.65,1.0,5297.0,0.0,0.0,
2025-08-14T22:54:54.602Z,6,GR86-010-16,-2.1,-0.001,-0.098,2.62,1.0,,0.0,0.0,63.91
2025-08-14T22:54:54.645Z,6,GR86-010-16,-2.1,-0.039,-0.104,2.6,1.0,,0.0,0.0,
2025-08-14T22:54:54.688Z,6,GR86-010-16,-2.2,-0.024,-0.119,2.6,1.0,,0.0,0.0,
2025-08-14T22:54:54.731Z,6,GR86-010-16,-4.2,-0.019,-0.124,2.59,1.0,,0.0,0.0,
2025-08-14T22:54:54.774Z,6,GR86-010-16,-10.4,-0.027,-0.145,2.56,1.0,4728.0,0.0,0.0,
2025-08-14T22:54:54.817Z,6,GR86-010-16,-15.4,-0.049,-0.209,2.57,1.0,,0.0,0.0,65.02
2025-08-14T22:54:54.861Z,6,GR86-010-16,-17.7,-0.02,-0.26,2.56,1.0,,0.0,0.0,
2025-08-14T22:54:54.903Z,6,GR86-010-16,-17.7,-0.035,-0.228,2.56,1.0,,0.0,0.0,
2025-08-14T22:54:54.946Z,6,GR86-010-16,-15.4,-0.03,-0.251,2.56,1.0,,0.0,0.0,
2025-08-14T22:54:54.989Z,6,GR86-010-16,-7.2,-0.04,-0.215,2.54,1.0,4304.0,0.0,0.0,
2025-08-14T22:54:55.032Z,6,GR86-010-16,-0.5,-0.044,-0.17,2.53,1.0,,0.0,0.0,65.13
2025-08-14T22:54:55.075Z,6,GR86-010-16,2.5,-0.02,-0.149,2.53,1.0,,0.0,0.0,
2025-08-14T22:54:55.118Z,6,GR86-010-16,2.5,-0.043,-0.122,2.53,1.0,,0.0,0.0,
2025-08-14T22:54:55.161Z,6,GR86-010-16,-1.0,-0.019,-0.123,19.16,1.0,,0.0,0.0,
2025-08-14T22:54:55.204Z,6,GR86-010-16,-5.9,-0.069,-0.133,19.12,1.0,3973.0,0.0,0.0,
2025-08-14T22:54:55.248Z,6,GR86-010-16,-7.300000000000001,-0.061,-0.145,19.72,1.0,,0.0,0.0,64.87
2025-08-14T22:54:55.291Z,6,GR86-010-16,-7.300000000000001,-0.096,-0.154,19.16,1.0,,0.0,0.0,
2025-08-14T22:54:55.334Z,6,GR86-010-16,-7.300000000000001,-0.086,-0.139,3.5700000000000003,1.0,,0.0,0.0,
2025-08-14T22:54:55.377Z,6,GR86-010-16,-2.9000000000000004,-0.156,-0.113,3.37,1.0,,0.0,0.0,
2025-08-14T22:54:55.422Z,6,GR86-010-16,0.3,-0.123,-0.066,3.33,1.0,3614.0,0.0,0.0,
2025-08-14T22:54:55.465Z,6,GR86-010-16,0.3,-0.073,-0.106,3.29,1.0,,0.0,0.0,64.65
2025-08-14T22:54:55.508Z,6,GR86-010-16,0.3,-0.083,-0.128,3.2,1.0,,0.0,0.0,
2025-08-14T22:54:55.551Z,6,GR86-010-16,0.3,-0.031,-0.137,3.83,1.0,,0.0,0.0,
2025-08-14T22:54:55.594Z,6,GR86-010-16,3.1,-0.047,-0.13,2.78,1.0,,0.0,0.0,
2025-08-14T22:54:55.637Z,6,GR86-010-16,5.4,-0.006,-0.041,2.78,1.0,3585.0,0.0,0.0,
2025-08-14T22:54:55.681Z,6,GR86-010-16,5.4,-0.061,-0.039,2.78,1.0,,0.0,0.0,64.21000000000001
2025-08-14T22:54:55.725Z,6,GR86-010-16,5.4,0.005,0.066,2.78,1.0,,0.0,0.0,
2025-08-14T22:54:55.768Z,6,GR86-010-16,5.4,-0.054,-0.097,2.76,1.0,,0.0,0.0,
2025-08-14T22:54:55.811Z,6,GR86-010-16,5.4,-0.038,-0.031,2.73,1.0,,0.0,0.0,
2025-08-14T22:54:55.854Z,6,GR86-010-16,5.4,-0.013,0.006,2.73,1.0,4202.0,0.0,0.0,
2025-08-14T22:54:55.897Z,6,GR86-010-16,5.4,-0.077,-0.017,2.69,1.0,,0.0,0.0,64.14
2025-08-14T22:54:55.941Z,6,GR86-010-16,-2.8000000000000003,-0.124,0.004,2.68,1.0,,0.0,0.0,
2025-08-14T22:54:55.984Z,6,GR86-010-16,-10.9,-0.1,-0.078,10.76,1.0,,0.0,0.0,
2025-08-14T22:54:56.027Z,6,GR86-010-16,-19.1,-0.145,-0.01,23.31,1.0,,0.0,0.0,
2025-08-14T22:54:56.070Z,6,GR86-010-16,-26.5,-0.076,-0.069,24.27,1.0,3954.0,0.0,0.0,
2025-08-14T22:54:56.113Z,6,GR86-010-16,-29.1,-0.164,-0.116,20.51,1.0,,0.0,0.0,63.75
2025-08-14T22:54:56.156Z,6,GR86-010-16,-29.1,-0.095,-0.195,3.09,1.0,,0.0,0.0,
2025-08-14T22:54:56.199Z,6,GR86-010-16,-25.4,-0.123,-0.068,3.01,1.0,,0.0,0.0,
2025-08-14T22:54:56.242Z,6,GR86-010-16,-12.8,-0.051,-0.256,3.0,1.0,,0.0,0.0,
2025-08-14T22:54:56.285Z,6,GR86-010-16,-4.4,-0.006,-0.175,2.97,1.0,3645.0,0.0,0.0,
2025-08-14T22:54:56.328Z,6,GR86-010-16,3.4000000000000004,-0.097,-0.168,2.96,1.0,,0.0,0.0,62.52
2025-08-14T22:54:56.371Z,6,GR86-010-16,8.3,0.032,-0.161,2.94,1.0,,0.0,0.0,
2025-08-14T22:54:56.414Z,6,GR86-010-16,11.2,-0.074,-0.065,2.92,1.0,,0.0,0.0,
2025-08-14T22:54:56.457Z,6,GR86-010-16,13.6,-0.034,-0.204,2.88,1.0,,0.0,0.0,
2025-08-14T22:54:56.501Z,6,GR86-010-16,14.5,-0.039,-0.15,18.76,1.0,3325.0,0.0,0.0,
2025-08-14T22:54:56.545Z,6,GR86-010-16,14.5,-0.089,-0.073,22.49,1.0,,0.0,0.0,62.61
2025-08-14T22:54:56.588Z,6,GR86-010-16,16.900000000000002,-0.011,-0.095,20.91,1.0,,0.0,0.0,
2025-08-14T22:54:56.631Z,6,GR86-010-16,18.7,-0.118,-0.133,7.67,1.0,,0.0,0.0,
2025-08-14T22:54:56.674Z,6,GR86-010-16,18.9,-0.046,-0.029,3.34,1.0,,0.0,0.0,
2025-08-14T22:54:56.717Z,6,GR86-010-16,18.9,-0.009,-0.187,3.33,1.0,3880.0,0.0,0.0,
2025-08-14T22:54:56.761Z,6,GR86-010-16,12.2,0.017,0.01,3.29,1.0,,0.0,0.0,61.75
2025-08-14T22:54:56.803Z,6,GR86-010-16,10.6,-0.139,0.01,3.26,1.0,,0.0,0.0,
2025-08-14T22:54:56.846Z,6,GR86-010-16,9.6,0.019,-0.065,3.2,1.0,,0.0,0.0,
2025-08-14T22:54:56.889Z,6,GR86-010-16,6.300000000000001,-0.162,0.054,3.13,1.0,,0.0,0.0,
2025-08-14T22:54:56.932Z,6,GR86-010-16,0.8,-0.008,-0.006,2.97,2.0,3932.0,0.0,0.0,
2025-08-14T22:54:56.975Z,6,GR86-010-16,-2.5,0.002,-0.091,2.88,2.0,,0.0,0.0,61.77
2025-08-14T22:54:57.019Z,6,GR86-010-16,-2.5,-0.131,0.023,2.78,2.0,,0.0,0.0,
2025-08-14T22:54:57.062Z,6,GR86-010-16,9.7,0.007,0.073,2.72,2.0,,0.0,0.0,
2025-08-14T22:54:57.105Z,6,GR86-010-16,17.5,-0.103,0.037,2.67,2.0,,0.0,0.0,
2025-08-14T22:54:57.148Z,6,GR86-010-16,18.9,-0.017,0.1,10.52,2.0,3999.0,0.0,0.0,
2025-08-14T22:54:57.191Z,6,GR86-010-16,18.9,-0.103,0.105,37.26,2.0,,0.0,0.0,61.63
2025-08-14T22:54:57.234Z,6,GR86-010-16,18.8,-0.031,0.095,47.13,2.0,,0.0,0.0,
2025-08-14T22:54:57.277Z,6,GR86-010-16,14.1,-0.104,0.041,24.65,2.0,,0.0,0.0,
2025-08-14T22:54:57.322Z,6,GR86-010-16,8.9,-0.033,0.003,2.99,2.0,,0.0,0.0,
2025-08-14T22:54:57.365Z,6,GR86-010-16,8.8,-0.027,0.057,2.65,2.0,3665.0,0.0,0.0,
2025-08-14T22:54:57.408Z,6,GR86-010-16,9.5,-0.043,0.08,14.28,2.0,,0.0,0.0,61.16
2025-08-14T22:54:57.451Z,6,GR86-010-16,13.8,0.0,0.047,19.96,2.0,,0.0,0.0,
2025-08-14T22:54:57.494Z,6,GR86-010-16,14.2,-0.028,0.073,18.42,2.0,,0.0,0.0,
2025-08-14T22:54:57.537Z,6,GR86-010-16,14.2,0.005,0.07,17.69,2.0,,0.0,0.0,
2025-08-14T22:54:57.581Z,6,GR86-010-16,12.5,0.018,0.059,21.09,2.0,3807.0,0.0,0.0,
2025-08-14T22:54:57.624Z,6,GR86-010-16,10.8,0.107,0.067,21.2,2.0,,0.0,0.0,60.54
2025-08-14T22:54:57.667Z,6,GR86-010-16,9.8,0.157,0.043,21.35,2.0,,0.0,0.0,
2025-08-14T22:54:57.710Z,6,GR86-010-16,9.8,0.134,0.041,21.58,2.0,,0.0,0.0,
2025-08-14T22:54:57.753Z,6,GR86-010-16,9.8,0.133,0.076,20.24,2.0,,0.0,0.0,
2025-08-14T22:54:57.796Z,6,GR86-010-16,17.1,0.193,0.086,20.39,2.0,3845.0,0.0,0.0,
2025-08-14T22:54:57.840Z,6,GR86-010-16,26.3,0.217,0.167,22.77,2.0,,0.0,0.0,60.21
2025-08-14T22:54:57.883Z,6,GR86-010-16,28.8,0.212,0.193,29.92,2.0,,0.0,0.0,
2025-08-14T22:54:57.927Z,6,GR86-010-16,28.9,0.193,0.23,34.0,2.0,,0.0,0.0,
2025-08-14T22:54:57.970Z,6,GR86-010-16,27.1,0.137,0.254,36.44,2.0,,0.0,0.0,
2025-08-14T22:54:58.013Z,6,GR86-010-16,21.3,0.145,0.227,45.82,2.0,4017.0,0.0,0.0,
2025-08-14T22:54:58.057Z,6,GR86-010-16,13.3,0.185,0.193,55.82,2.0,,0.0,0.0,60.33
2025-08-14T22:54:58.101Z,6,GR86-010-16,4.5,0.141,0.191,69.13,2.0,,0.0,0.0,
2025-08-14T22:54:58.143Z,6,GR86-010-16,-1.8,0.112,0.173,76.26,2.0,,0.0,0.0,
2025-08-14T22:54:58.186Z,6,GR86-010-16,-4.5,0.143,0.145,76.03,2.0,,0.0,0.0,
2025-08-14T22:54:58.229Z,6,GR86-010-16,-5.6000000000000005,0.276,0.12,75.44,2.0,3759.0,0.0,0.0,
2025-08-14T22:54:58.272Z,6,GR86-010-16,-5.6000000000000005,0.333,0.137,74.8,2.0,,0.0,0.0,61.5
2025-08-14T22:54:58.315Z,6,GR86-010-16,-2.5,0.299,0.145,71.55,2.0,,0.0,0.0,
2025-08-14T22:54:58.358Z,6,GR86-010-16,-0.4,0.277,0.12,50.64,2.0,,0.0,0.0,
2025-08-14T22:54:58.401Z,6,GR86-010-16,4.6000000000000005,0.28,0.084,44.27,2.0,,0.0,0.0,
2025-08-14T22:54:58.444Z,6,GR86-010-16,11.8,0.256,0.088,55.04,2.0,3926.0,0.0,0.0,
2025-08-14T22:54:58.487Z,6,GR86-010-16,15.6,0.283,0.092,76.26,2.0,,0.0,0.0,63.75
2025-08-14T22:54:58.531Z,6,GR86-010-16,16.6,0.28,0.101,96.28,2.0,,0.0,0.0,
2025-08-14T22:54:58.575Z,6,GR86-010-16,16.6,0.267,0.1,99.8,2.0,,0.0,0.0,
2025-08-14T22:54:58.618Z,6,GR86-010-16,16.7,0.298,0.088,99.81,2.0,,0.0,0.0,
2025-08-14T22:54:58.662Z,6,GR86-010-16,16.7,0.306,0.104,99.79,2.0,4341.0,0.0,0.0,
2025-08-14T22:54:58.705Z,6,GR86-010-16,14.7,0.282,0.077,99.81,2.0,,0.0,0.0,64.59
2025-08-14T22:54:58.748Z,6,GR86-010-16,8.3,0.281,0.066,99.81,2.0,,0.0,0.0,
2025-08-14T22:54:58.791Z,6,GR86-010-16,3.9,0.313,0.027,99.81,2.0,,0.0,0.0,
2025-08-14T22:54:58.834Z,6,GR86-010-16,3.4000000000000004,0.303,-0.002,99.8,2.0,,0.0,0.0,
2025-08-14T22:54:58.877Z,6,GR86-010-16,3.4000000000000004,0.291,-0.004,99.8,2.0,4418.0,0.0,0.0,
2025-08-14T22:54:58.922Z,6,GR86-010-16,12.1,0.289,0.004,99.8,2.0,,0.0,0.0,68.72
2025-08-14T22:54:58.965Z,6,GR86-010-16,18.1,0.302,0.057,99.82,2.0,,0.0,0.0,
2025-08-14T22:54:59.008Z,6,GR86-010-16,22.1,0.315,0.079,99.81,2.0,,0.0,0.0,
2025-08-14T22:54:59.052Z,6,GR86-010-16,24.4,0.308,0.115,99.82,2.0,,0.0,0.0,
2025-08-14T22:54:59.095Z,6,GR86-010-16,24.5,0.294,0.134,99.81,2.0,4620.0,0.0,0.0,
2025-08-14T22:54:59.138Z,6,GR86-010-16,24.5,0.31,0.141,99.83,2.0,,0.0,0.0,71.01
2025-08-14T22:54:59.182Z,6,GR86-010-16,21.3,0.311,0.14,99.82,2.0,,0.0,0.0,
2025-08-14T22:54:59.224Z,6,GR86-010-16,16.900000000000002,0.286,0.146,99.83,2.0,,0.0,0.0,
2025-08-14T22:54:59.267Z,6,GR86-010-16,11.7,0.317,0.132,99.81,2.0,,0.0,0.0,
2025-08-14T22:54:59.310Z,6,GR86-010-16,7.300000000000001,0.299,0.082,99.81,2.0,4777.0,0.0,0.0,
2025-08-14T22:54:59.353Z,6,GR86-010-16,5.9,0.321,0.078,99.83,2.0,,0.0,0.0,73.46000000000001
2025-08-14T22:54:59.396Z,6,GR86-010-16,5.9,0.293,0.045,99.82,2.0,,0.0,0.0,
2025-08-14T22:54:59.439Z,6,GR86-010-16,5.9,0.302,0.05,99.82,2.0,,0.0,0.0,
2025-08-14T22:54:59.482Z,6,GR86-010-16,5.9,0.303,0.013,99.84,2.0,,0.0,0.0,
2025-08-14T22:54:59.525Z,6,GR86-010-16,5.9,0.308,0.02,99.82,2.0,4919.0,0.0,0.0,
2025-08-14T22:54:59.568Z,6,GR86-010-16,5.9,0.296,-0.018,99.83,2.0,,0.0,0.0,75.92
2025-08-14T22:54:59.611Z,6,GR86-010-16,5.800000000000001,0.303,-0.019,99.83,2.0,,0.0,0.0,
2025-08-14T22:54:59.654Z,6,GR86-010-16,5.800000000000001,0.278,-0.04,99.82,2.0,,0.0,0.0,
2025-08-14T22:54:59.697Z,6,GR86-010-16,5.7,0.273,-0.053,99.82,2.0,,0.0,0.0,
2025-08-14T22:54:59.740Z,6,GR86-010-16,5.800000000000001,0.303,-0.066,99.81,2.0,4946.0,0.0,0.0,
2025-08-14T22:54:59.783Z,6,GR86-010-16,5.800000000000001,0.303,-0.064,99.8,2.0,,0.0,0.0,78.41
2025-08-14T22:54:59.827Z,6,GR86-010-16,5.800000000000001,0.28,-0.068,99.84,2.0,,0.0,0.0,
2025-08-14T22:54:59.869Z,6,GR86-010-16,5.7,0.296,-0.065,99.82,2.0,,0.0,0.0,
2025-08-14T22:54:59.912Z,6,GR86-010-16,5.800000000000001,0.285,-0.061,99.83,2.0,,0.0,0.0,
2025-08-14T22:54:59.955Z,6,GR86-010-16,5.800000000000001,0.29,-0.05,99.82,2.0,5058.0,0.0,0.0,
2025-08-14T22:54:59.998Z,6,GR86-010-16,5.800000000000001,0.271,-0.057,99.82,2.0,,0.0,0.0,80.92
2025-08-14T22:55:00.042Z,6,GR86-010-16,5.800000000000001,0.304,-0.049,99.81,2.0,,0.0,0.0,
2025-08-14T22:55:00.085Z,6,GR86-010-16,5.800000000000001,0.29,-0.048,99.81,2.0,,0.0,0.0,
2025-08-14T22:55:00.128Z,6,GR86-010-16,5.800000000000001,0.29,-0.035,99.83,2.0,,0.0,0.0,
2025-08-14T22:55:00.171Z,6,GR86-010-16,5.9,0.282,-0.035,99.8,2.0,5146.0,0.0,0.0,
2025-08-14T22:55:00.214Z,6,GR86-010-16,6.2,0.289,-0.026,99.82,2.0,,0.0,0.0,83.4
2025-08-14T22:55:00.257Z,6,GR86-010-16,6.2,0.286,-0.024,99.81,2.0,,0.0,0.0,
2025-08-14T22:55:00.301Z,6,GR86-010-16,6.2,0.284,-0.027,99.82,2.0,,0.0,0.0,
2025-08-14T22:55:00.344Z,6,GR86-010-16,6.2,0.278,-0.018,99.81,2.0,,0.0,0.0,
2025-08-14T22:55:00.387Z,6,GR86-010-16,6.2,0.269,-0.03,99.81,2.0,5217.0,0.0,0.0,
2025-08-14T22:55:00.430Z,6,GR86-010-16,6.2,0.269,-0.032,99.81,2.0,,0.0,0.0,85.84
2025-08-14T22:55:00.473Z,6,GR86-010-16,6.2,0.276,-0.046,99.81,2.0,,0.0,0.0,
2025-08-14T22:55:00.516Z,6,GR86-010-16,6.2,0.288,-0.052,99.81,2.0,,0.0,0.0,
2025-08-14T22:55:00.559Z,6,GR86-010-16,6.2,0.282,-0.043,99.84,2.0,,0.0,0.0,
2025-08-14T22:55:00.602Z,6,GR86-010-16,6.2,0.274,-0.052,99.84,2.0,5365.0,0.0,0.0,
2025-08-14T22:55:00.645Z,6,GR86-010-16,6.2,0.272,-0.046,99.81,2.0,,0.0,0.0,88.29
2025-08-14T22:55:00.688Z,6,GR86-010-16,6.2,0.26,-0.059,99.83,2.0,,0.0,0.0,
2025-08-14T22:55:00.731Z,6,GR86-010-16,6.2,0.261,-0.055,99.83,2.0,,0.0,0.0,
2025-08-14T22:55:00.774Z,6,GR86-010-16,6.2,0.271,-0.061,99.83,2.0,,0.0,0.0,
2025-08-14T22:55:00.817Z,6,GR86-010-16,6.2,0.271,-0.069,99.84,2.0,5493.0,0.0,0.0,
2025-08-14T22:55:00.861Z,6,GR86-010-16,6.2,0.282,-0.063,99.83,2.0,,0.0,0.0,90.66
2025-08-14T22:55:00.904Z,6,GR86-010-16,6.2,0.284,-0.064,99.83,2.0,,0.0,0.0,
2025-08-14T22:55:00.948Z,6,GR86-010-16,6.2,0.258,-0.064,99.82,2.0,,0.0,0.0,
2025-08-14T22:55:00.991Z,6,GR86-010-16,6.2,0.265,-0.061,99.83,2.0,,0.0,0.0,
2025-08-14T22:55:01.034Z,6,GR86-010-16,6.2,0.265,-0.078,99.83,2.0,5584.0,0.0,0.0,
2025-08-14T22:55:01.077Z,6,GR86-010-16,6.2,0.265,-0.059,99.83,2.0,,0.0,0.0,92.99
2025-08-14T22:55:01.122Z,6,GR86-010-16,6.2,0.277,-0.069,99.83,2.0,,0.0,0.0,
2025-08-14T22:55:01.165Z,6,GR86-010-16,6.2,0.271,-0.06,99.83,2.0,,0.0,0.0,
2025-08-14T22:55:01.208Z,6,GR86-010-16,6.2,0.272,-0.057,99.82,2.0,,0.0,0.0,
2025-08-14T22:55:01.251Z,6,GR86-010-16,6.2,0.268,-0.058,99.82,2.0,5709.0,0.0,0.0,
2025-08-14T22:55:01.294Z,6,GR86-010-16,6.2,0.273,-0.054,99.81,2.0,,0.0,0.0,95.49
2025-08-14T22:55:01.337Z,6,GR86-010-16,6.2,0.286,-0.056,99.81,2.0,,0.0,0.0,
2025-08-14T22:55:01.381Z,6,GR86-010-16,6.0,0.281,-0.062,99.82,2.0,,0.0,0.0,
2025-08-14T22:55:01.425Z,6,GR86-010-16,5.9,0.285,-0.071,99.83,2.0,,0.0,0.0,
2025-08-14T22:55:01.468Z,6,GR86-010-16,5.9,0.273,-0.067,99.81,2.0,5878.0,0.0,0.0,
2025-08-14T22:55:01.511Z,6,GR86-010-16,5.9,0.274,-0.077,99.83,2.0,,0.0,0.0,97.89
2025-08-14T22:55:01.554Z,6,GR86-010-16,5.9,0.263,-0.077,99.83,2.0,,0.0,0.0,
2025-08-14T22:55:01.597Z,6,GR86-010-16,5.9,0.266,-0.085,99.82,2.0,,0.0,0.0,
2025-08-14T22:55:01.641Z,6,GR86-010-16,4.9,0.272,-0.086,99.83,2.0,,0.0,0.0,
2025-08-14T22:55:01.684Z,6,GR86-010-16,3.1,0.267,-0.093,99.83,2.0,5958.0,0.0,0.0,
2025-08-14T22:55:01.727Z,6,GR86-010-16,1.7000000000000002,0.265,-0.113,99.83,2.0,,0.0,0.0,102.59
2025-08-14T22:55:01.770Z,6,GR86-010-16,1.6,0.278,-0.129,99.84,2.0,,0.0,0.0,
2025-08-14T22:55:01.813Z,6,GR86-010-16,1.6,0.261,-0.131,99.82,2.0,,0.0,0.0,
2025-08-14T22:55:01.856Z,6,GR86-010-16,1.6,0.261,-0.127,99.84,2.0,,0.0,0.0,
2025-08-14T22:55:01.899Z,6,GR86-010-16,2.1,0.254,-0.123,99.82,2.0,6125.0,0.0,0.0,
2025-08-14T22:55:01.942Z,6,GR86-010-16,2.1,0.253,-0.113,99.84,2.0,,0.0,0.0,104.98
2025-08-14T22:55:01.985Z,6,GR86-010-16,2.1,0.261,-0.12,99.83,2.0,,0.0,0.0,
2025-08-14T22:55:02.028Z,6,GR86-010-16,2.1,0.273,-0.111,99.84,2.0,,0.0,0.0,
2025-08-14T22:55:02.071Z,6,GR86-010-16,2.0,0.26,-0.103,99.84,2.0,,0.0,0.0,
2025-08-14T22:55:02.114Z,6,GR86-010-16,2.1,0.265,-0.109,99.83,2.0,6214.0,0.0,0.0,
2025-08-14T22:55:02.157Z,6,GR86-010-16,2.1,0.244,-0.116,99.84,2.0,,0.0,0.0,107.32
2025-08-14T22:55:02.202Z,6,GR86-010-16,2.1,0.246,-0.132,99.83,2.0,,0.0,0.0,
2025-08-14T22:55:02.245Z,6,GR86-010-16,2.1,0.273,-0.139,99.84,2.0,,0.0,0.0,
2025-08-14T22:55:02.288Z,6,GR86-010-16,2.1,0.275,-0.136,99.84,2.0,,0.0,0.0,
2025-08-14T22:55:02.331Z,6,GR86-010-16,2.1,0.244,-0.136,99.84,2.0,6496.0,0.0,0.0,
2025-08-14T22:55:02.374Z,6,GR86-010-16,2.1,0.25,-0.128,99.84,2.0,,0.0,0.0,109.58
2025-08-14T22:55:02.417Z,6,GR86-010-16,2.9000000000000004,0.253,-0.119,99.84,2.0,,0.0,0.0,
2025-08-14T22:55:02.461Z,6,GR86-010-16,3.0,0.264,-0.102,99.83,2.0,,0.0,0.0,
2025-08-14T22:55:02.503Z,6,GR86-010-16,3.0,0.277,-0.097,99.83,2.0,,0.0,0.0,
2025-08-14T22:55:02.546Z,6,GR86-010-16,3.0,0.266,-0.093,99.83,2.0,6619.0,0.0,0.0,
2025-08-14T22:55:02.589Z,6,GR86-010-16,3.0,0.245,-0.088,99.83,2.0,,0.0,0.0,111.84
2025-08-14T22:55:02.632Z,6,GR86-010-16,3.0,0.267,-0.095,99.84,2.0,,0.0,0.0,
2025-08-14T22:55:02.675Z,6,GR86-010-16,3.0,0.262,-0.085,99.83,2.0,,0.0,0.0,
2025-08-14T22:55:02.718Z,6,GR86-010-16,3.0,0.242,-0.097,99.82,2.0,,0.0,0.0,
2025-08-14T22:55:02.761Z,6,GR86-010-16,-0.8,0.183,-0.123,99.84,2.0,6756.0,0.0,0.0,
2025-08-14T22:55:02.804Z,6,GR86-010-16,-5.800000000000001,-0.058,-0.135,99.83,3.0,,0.0,0.0,114.0
2025-08-14T22:55:02.848Z,6,GR86-010-16,-9.0,0.109,-0.181,99.85,3.0,,0.0,0.0,
2025-08-14T22:55:02.891Z,6,GR86-010-16,-9.0,0.32,-0.291,99.85,3.0,,0.0,0.0,
2025-08-14T22:55:02.934Z,6,GR86-010-16,-8.5,0.285,-0.273,99.84,3.0,,0.0,0.0,
2025-08-14T22:55:02.977Z,6,GR86-010-16,-5.6000000000000005,0.261,-0.205,99.84,3.0,6873.0,0.0,0.0,
2025-08-14T22:55:03.022Z,6,GR86-010-16,-3.5,0.251,-0.316,99.85,3.0,,0.0,0.0,116.1
2025-08-14T22:55:03.065Z,6,GR86-010-16,-2.3000000000000003,0.232,-0.246,99.83,3.0,,0.0,0.0,
2025-08-14T22:55:03.108Z,6,GR86-010-16,0.3,0.266,-0.273,99.83,3.0,,0.0,0.0,
2025-08-14T22:55:03.151Z,6,GR86-010-16,2.3000000000000003,0.23,-0.277,99.84,3.0,,0.0,0.0,
2025-08-14T22:55:03.194Z,6,GR86-010-16,2.3000000000000003,0.235,-0.21,99.83,3.0,6099.0,0.0,0.0,
2025-08-14T22:55:03.237Z,6,GR86-010-16,2.3000000000000003,0.225,-0.241,99.85,3.0,,0.0,0.0,118.06
2025-08-14T22:55:03.281Z,6,GR86-010-16,2.3000000000000003,0.221,-0.192,99.84,3.0,,0.0,0.0,
2025-08-14T22:55:03.324Z,6,GR86-010-16,3.1,0.204,-0.182,99.83,3.0,,0.0,0.0,
2025-08-14T22:55:03.367Z,6,GR86-010-16,3.1,0.219,-0.156,99.85,3.0,,0.0,0.0,
2025-08-14T22:55:03.410Z,6,GR86-010-16,3.1,0.218,-0.121,99.84,3.0,5839.0,0.0,0.0,
2025-08-14T22:55:03.453Z,6,GR86-010-16,3.1,0.196,-0.108,99.84,3.0,,0.0,0.0,119.98
2025-08-14T22:55:03.496Z,6,GR86-010-16,3.1,0.212,-0.088,99.84,3.0,,0.0,0.0,
2025-08-14T22:55:03.540Z,6,GR86-010-16,3.1,0.21,-0.082,99.84,3.0,,0.0,0.0,
2025-08-14T22:55:03.583Z,6,GR86-010-16,3.1,0.211,-0.075,99.85,3.0,,0.0,0.0,
2025-08-14T22:55:03.627Z,6,GR86-010-16,3.1,0.192,-0.065,99.84,3.0,5877.0,0.0,0.0,
2025-08-14T22:55:03.670Z,6,GR86-010-16,3.1,0.196,-0.067,99.84,3.0,,0.0,0.0,122.07
2025-08-14T22:55:03.713Z,6,GR86-010-16,3.1,0.217,-0.093,99.84,3.0,,0.0,0.0,
2025-08-14T22:55:03.757Z,6,GR86-010-16,3.1,0.198,-0.089,99.85,3.0,,0.0,0.0,
2025-08-14T22:55:03.800Z,6,GR86-010-16,3.1,0.202,-0.11,99.86,3.0,,0.0,0.0,
2025-08-14T22:55:03.843Z,6,GR86-010-16,3.1,0.191,-0.108,99.84,3.0,5909.0,0.0,0.0,
2025-08-14T22:55:03.886Z,6,GR86-010-16,3.1,0.208,-0.126,99.84,3.0,,0.0,0.0,123.96
2025-08-14T22:55:03.929Z,6,GR86-010-16,3.1,0.209,-0.123,99.84,3.0,,0.0,0.0,
2025-08-14T22:55:03.972Z,6,GR86-010-16,3.1,0.192,-0.122,99.84,3.0,,0.0,0.0,
2025-08-14T22:55:04.015Z,6,GR86-010-16,3.1,0.197,-0.134,99.84,3.0,,0.0,0.0,
2025-08-14T22:55:04.058Z,6,GR86-010-16,3.1,0.217,-0.136,99.84,3.0,5975.0,8.425,8.76,
2025-08-14T22:55:04.101Z,6,GR86-010-16,3.1,0.109,-0.128,99.83,3.0,,8.73,9.43,125.85
2025-08-14T22:55:04.144Z,6,GR86-010-16,3.1,0.067,-0.114,99.82,3.0,,4.03,4.835,
2025-08-14T22:55:04.187Z,6,GR86-010-16,3.1,0.175,-0.116,99.83,3.0,,0.0,0.0,
2025-08-14T22:55:04.231Z,6,GR86-010-16,3.2,0.222,-0.111,99.84,3.0,,0.0,0.0,
2025-08-14T22:55:04.273Z,6,GR86-010-16,3.8,0.229,-0.093,99.82,3.0,6048.0,0.0,0.0,
2025-08-14T22:55:04.317Z,6,GR86-010-16,3.9,0.179,-0.077,99.84,3.0,,0.0,0.0,127.68
2025-08-14T22:55:04.361Z,6,GR86-010-16,3.9,0.192,-0.091,99.83,3.0,,0.0,0.0,
2025-08-14T22:55:04.403Z,6,GR86-010-16,3.9,0.187,-0.093,99.84,3.0,,0.0,0.0,
2025-08-14T22:55:04.446Z,6,GR86-010-16,3.9,0.211,-0.097,99.85,3.0,,0.0,0.0,
2025-08-14T22:55:04.489Z,6,GR86-010-16,6.5,0.212,-0.061,99.84,3.0,6171.0,0.0,0.0,
2025-08-14T22:55:04.532Z,6,GR86-010-16,7.800000000000001,0.175,-0.043,99.84,3.0,,0.0,0.0,130.36
2025-08-14T22:55:04.575Z,6,GR86-010-16,7.9,0.192,-0.032,99.69,3.0,,0.0,0.0,
2025-08-14T22:55:04.618Z,6,GR86-010-16,7.9,0.226,-0.008,53.7,3.0,,7.46,7.705,
2025-08-14T22:55:04.662Z,6,GR86-010-16,7.9,0.043,-0.008,4.93,3.0,,30.245,30.215,
2025-08-14T22:55:04.704Z,6,GR86-010-16,7.9,-0.448,0.003,5.23,3.0,6201.0,49.46,48.895,
2025-08-14T22:55:04.747Z,6,GR86-010-16,5.2,-0.759,0.029,5.13,3.0,,59.085,58.49,132.23
2025-08-14T22:55:04.791Z,6,GR86-010-16,4.2,-0.964,0.047,5.14,3.0,,60.4,61.175,
2025-08-14T22:55:04.834Z,6,GR86-010-16,4.2,-0.58,-0.058,4.3,3.0,,55.915,57.41,
2025-08-14T22:55:04.877Z,6,GR86-010-16,4.2,-0.792,0.009,4.65,3.0,,48.68,49.93,
2025-08-14T22:55:04.922Z,6,GR86-010-16,4.2,-0.869,-0.032,7.49,3.0,6216.0,33.160000000000004,34.365,
2025-08-14T22:55:04.965Z,6,GR86-010-16,4.1000000000000005,-0.553,-0.056,6.18,3.0,,25.12,26.08,133.78
2025-08-14T22:55:05.008Z,6,GR86-010-16,1.1,-0.617,-0.093,5.97,3.0,,25.33,26.02,
2025-08-14T22:55:05.052Z,6,GR86-010-16,-1.5,-0.645,-0.121,3.35,3.0,,26.535,27.18,
2025-08-14T22:55:05.095Z,6,GR86-010-16,-2.3000000000000003,-0.585,-0.196,2.78,3.0,,21.625,22.34,
2025-08-14T22:55:05.138Z,6,GR86-010-16,-2.3000000000000003,-0.426,-0.234,2.73,3.0,5757.0,12.145,13.015,
2025-08-14T22:55:05.182Z,6,GR86-010-16,1.4,-0.261,-0.25,2.69,3.0,,3.725,4.275,125.57
2025-08-14T22:55:05.225Z,6,GR86-010-16,8.5,-0.266,-0.207,2.67,3.0,,3.31,3.755,
2025-08-14T22:55:05.268Z,6,GR86-010-16,10.5,-0.216,-0.178,2.66,3.0,,5.74,6.0600000000000005,
2025-08-14T22:55:05.311Z,6,GR86-010-16,10.5,-0.228,-0.165,2.63,3.0,,10.24,10.405,
2025-08-14T22:55:05.354Z,6,GR86-010-16,9.7,-0.348,-0.135,2.61,3.0,5664.0,15.125,15.245,
2025-08-14T22:55:05.397Z,6,GR86-010-16,9.3,-0.453,-0.167,2.6,3.0,,23.27,23.18,124.85
2025-08-14T22:55:05.440Z,6,GR86-010-16,9.2,-0.684,-0.121,2.6,3.0,,35.77,35.34,
2025-08-14T22:55:05.483Z,6,GR86-010-16,9.2,-0.768,-0.106,2.58,3.0,,40.56,40.12,
2025-08-14T22:55:05.527Z,6,GR86-010-16,9.2,-0.8320000000000001,-0.065,9.48,3.0,,41.49,41.49,
2025-08-14T22:55:05.570Z,6,GR86-010-16,9.2,-0.803,-0.054,52.18,3.0,5662.0,41.185,41.4,
2025-08-14T22:55:05.613Z,6,GR86-010-16,9.1,-0.8290000000000001,-0.04,42.53,2.0,,40.47,40.96,123.87
2025-08-14T22:55:05.657Z,6,GR86-010-16,8.0,-0.915,-0.011,35.32,2.0,,36.84,37.645,
2025-08-14T22:55:05.699Z,6,GR86-010-16,4.2,-0.686,-0.021,36.39,2.0,,26.78,27.925,
2025-08-14T22:55:05.742Z,6,GR86-010-16,0.8,-0.418,-0.234,12.57,2.0,,10.985,12.085,
2025-08-14T22:55:05.785Z,6,GR86-010-16,-0.4,-0.508,-0.122,4.3100000000000005,2.0,5319.0,7.98,8.85,
2025-08-14T22:55:05.828Z,6,GR86-010-16,-0.6000000000000001,-0.175,-0.213,4.19,2.0,,11.78,12.175,120.18
2025-08-14T22:55:05.871Z,6,GR86-010-16,-0.6000000000000001,-0.381,-0.296,4.0,2.0,,17.06,17.245,
2025-08-14T22:55:05.914Z,6,GR86-010-16,-0.2,-0.459,-0.167,3.64,2.0,,20.45,20.63,
2025-08-14T22:55:05.957Z,6,GR86-010-16,0.0,-0.54,-0.234,3.26,2.0,,22.31,22.43,
2025-08-14T22:55:06.001Z,6,GR86-010-16,-0.1,-0.5710000000000001,-0.229,2.95,2.0,5539.0,26.43,26.4,
2025-08-14T22:55:06.043Z,6,GR86-010-16,-6.2,-0.636,-0.215,2.82,2.0,,30.045,29.985,113.55
2025-08-14T22:55:06.086Z,6,GR86-010-16,-16.3,-0.72,-0.336,2.74,2.0,,33.345,33.160000000000004,
2025-08-14T22:55:06.129Z,6,GR86-010-16,-27.5,-0.7000000000000001,-0.346,2.7,2.0,,37.295,37.02,
2025-08-14T22:55:06.172Z,6,GR86-010-16,-33.7,-0.783,-0.406,2.67,2.0,,40.655,40.27,
2025-08-14T22:55:06.215Z,6,GR86-010-16,-34.0,-0.713,-0.427,2.66,2.0,6209.0,43.355,43.02,
2025-08-14T22:55:06.258Z,6,GR86-010-16,-32.5,-0.787,-0.407,2.63,2.0,,45.46,45.155,112.32
2025-08-14T22:55:06.301Z,6,GR86-010-16,-25.5,-0.811,-0.517,2.61,2.0,,48.985,48.65,
2025-08-14T22:55:06.344Z,6,GR86-010-16,-24.4,-0.778,-0.435,2.61,2.0,,46.495,47.46,
2025-08-14T22:55:06.387Z,6,GR86-010-16,-25.200000000000003,-0.8140000000000001,-0.476,2.6,2.0,,45.37,46.205,
2025-08-14T22:55:06.430Z,6,GR86-010-16,-36.9,-0.8210000000000001,-0.533,2.59,2.0,5982.0,40.745,42.455,
2025-08-14T22:55:06.473Z,6,GR86-010-16,-46.8,-0.673,-0.6990000000000001,2.57,2.0,,35.235,37.175,108.39
2025-08-14T22:55:06.516Z,6,GR86-010-16,-50.0,-0.648,-0.6880000000000001,2.56,2.0,,30.155,31.71,
2025-08-14T22:55:06.559Z,6,GR86-010-16,-48.5,-0.588,-0.634,2.63,2.0,,26.535,28.125,
2025-08-14T22:55:06.602Z,6,GR86-010-16,-30.700000000000003,-0.653,-0.743,2.63,2.0,,20.355,21.305,
2025-08-14T22:55:06.645Z,6,GR86-010-16,-14.8,-0.531,-0.769,2.85,2.0,5538.0,16.68,17.61,
2025-08-14T22:55:06.688Z,6,GR86-010-16,-2.5,-0.47,-0.733,2.91,2.0,,11.995,12.74,104.25
2025-08-14T22:55:06.731Z,6,GR86-010-16,1.2000000000000002,-0.352,-0.6930000000000001,3.17,2.0,,3.905,4.595,
2025-08-14T22:55:06.774Z,6,GR86-010-16,-4.800000000000001,-0.206,-0.709,3.2,2.0,,0.0,0.0,
2025-08-14T22:55:06.817Z,6,GR86-010-16,-26.0,-0.17,-0.775,3.08,2.0,,0.0,0.0,
2025-08-14T22:55:06.861Z,6,GR86-010-16,-56.400000000000006,-0.176,-0.877,3.04,2.0,5152.0,0.0,0.0,
2025-08-14T22:55:06.904Z,6,GR86-010-16,-69.2,-0.175,-0.906,3.01,2.0,,0.0,0.0,99.06
2025-08-14T22:55:06.947Z,6,GR86-010-16,-73.3,-0.183,-0.912,2.94,2.0,,0.0,0.0,
2025-08-14T22:55:06.990Z,6,GR86-010-16,-72.5,-0.197,-0.971,2.93,2.0,,0.0,0.0,
2025-08-14T22:55:07.033Z,6,GR86-010-16,-70.2,-0.205,-0.929,3.26,2.0,,0.0,0.0,
2025-08-14T22:55:07.076Z,6,GR86-010-16,-67.60000000000001,-0.197,-0.947,4.3100000000000005,2.0,5227.0,0.0,0.0,
2025-08-14T22:55:07.119Z,6,GR86-010-16,-66.10000000000001,-0.189,-0.935,4.53,2.0,,0.0,0.0,95.61
2025-08-14T22:55:07.162Z,6,GR86-010-16,-61.3,-0.181,-0.938,8.9,2.0,,0.0,0.0,
2025-08-14T22:55:07.205Z,6,GR86-010-16,-55.7,-0.182,-0.918,20.59,2.0,,0.0,0.0,
2025-08-14T22:55:07.248Z,6,GR86-010-16,-50.6,-0.172,-0.928,20.55,2.0,,0.0,0.0,
2025-08-14T22:55:07.291Z,6,GR86-010-16,-49.0,-0.127,-0.925,20.74,2.0,5189.0,0.0,0.0,
2025-08-14T22:55:07.334Z,6,GR86-010-16,-49.400000000000006,-0.115,-0.942,21.04,2.0,,0.0,0.0,93.58
2025-08-14T22:55:07.377Z,6,GR86-010-16,-50.6,-0.105,-0.924,21.29,2.0,,0.0,0.0,
2025-08-14T22:55:07.422Z,6,GR86-010-16,-56.400000000000006,0.019,-0.92,22.24,2.0,,0.0,0.0,
2025-08-14T22:55:07.465Z,6,GR86-010-16,-62.3,0.157,-0.927,22.21,2.0,,0.0,0.0,
2025-08-14T22:55:07.508Z,6,GR86-010-16,-63.900000000000006,0.104,-0.977,22.09,2.0,5167.0,0.0,0.0,
2025-08-14T22:55:07.551Z,6,GR86-010-16,-60.6,0.063,-0.925,22.3,2.0,,0.0,0.0,92.69
2025-08-14T22:55:07.594Z,6,GR86-010-16,-56.0,0.052,-0.947,24.45,2.0,,0.0,0.0,
2025-08-14T22:55:07.637Z,6,GR86-010-16,-55.900000000000006,0.048,-0.944,24.55,2.0,,0.0,0.0,
2025-08-14T22:55:07.682Z,6,GR86-010-16,-58.2,0.045,-0.958,24.77,2.0,,0.0,0.0,
2025-08-14T22:55:07.725Z,6,GR86-010-16,-53.5,0.075,-0.933,25.4,2.0,5304.0,0.0,0.0,
2025-08-14T22:55:07.768Z,6,GR86-010-16,-45.2,0.091,-0.903,25.66,2.0,,0.0,0.0,91.87
2025-08-14T22:55:07.811Z,6,GR86-010-16,-35.300000000000004,0.112,-0.897,25.69,2.0,,0.0,0.0,
2025-08-14T22:55:07.854Z,6,GR86-010-16,-32.5,0.121,-0.86,25.76,2.0,,0.0,0.0,
2025-08-14T22:55:07.897Z,6,GR86-010-16,-38.8,0.123,-0.861,24.14,2.0,,0.0,0.0,
2025-08-14T22:55:07.941Z,6,GR86-010-16,-64.2,0.102,-0.864,12.94,2.0,5307.0,0.0,0.0,
2025-08-14T22:55:07.984Z,6,GR86-010-16,-78.0,0.083,-0.866,7.71,2.0,,0.0,0.0,91.79
2025-08-14T22:55:08.027Z,6,GR86-010-16,-84.4,0.024,-0.896,6.6000000000000005,2.0,,0.0,0.0,
2025-08-14T22:55:08.071Z,6,GR86-010-16,-85.10000000000001,-0.051,-0.883,6.22,2.0,,0.0,0.0,
2025-08-14T22:55:08.114Z,6,GR86-010-16,-82.60000000000001,-0.101,-0.89,7.73,2.0,,0.0,0.0,
2025-08-14T22:55:08.157Z,6,GR86-010-16,-78.2,-0.108,-0.88,20.37,2.0,5320.0,0.0,0.0,
2025-08-14T22:55:08.202Z,6,GR86-010-16,-71.7,-0.111,-0.894,20.86,2.0,,0.0,0.0,92.26
2025-08-14T22:55:08.245Z,6,GR86-010-16,-65.7,-0.119,-0.903,21.05,2.0,,0.0,0.0,
2025-08-14T22:55:08.288Z,6,GR86-010-16,-57.8,-0.119,-0.9,21.31,2.0,,0.0,0.0,
2025-08-14T22:55:08.331Z,6,GR86-010-16,-52.8,-0.098,-0.912,21.54,2.0,,0.0,0.0,
2025-08-14T22:55:08.374Z,6,GR86-010-16,-53.3,-0.082,-0.905,21.79,2.0,5195.0,0.0,0.0,
2025-08-14T22:55:08.417Z,6,GR86-010-16,-58.6,0.107,-0.882,21.93,2.0,,0.0,0.0,92.49
2025-08-14T22:55:08.461Z,6,GR86-010-16,-64.7,0.095,-0.918,22.04,2.0,,0.0,0.0,
2025-08-14T22:55:08.503Z,6,GR86-010-16,-63.2,0.066,-0.873,22.5,2.0,,0.0,0.0,
2025-08-14T22:55:08.546Z,6,GR86-010-16,-58.2,0.032,-0.896,22.81,2.0,,0.0,0.0,
2025-08-14T22:55:08.589Z,6,GR86-010-16,-56.6,0.024,-0.915,22.91,2.0,5242.0,0.0,0.0,
2025-08-14T22:55:08.632Z,6,GR86-010-16,-58.8,0.048,-0.925,24.45,2.0,,0.0,0.0,92.52
2025-08-14T22:55:08.675Z,6,GR86-010-16,-63.400000000000006,0.053,-0.939,26.23,2.0,,0.0,0.0,
2025-08-14T22:55:08.718Z,6,GR86-010-16,-65.2,0.067,-0.919,26.64,2.0,,0.0,0.0,
2025-08-14T22:55:08.761Z,6,GR86-010-16,-57.3,0.107,-0.899,28.62,2.0,,0.0,0.0,
2025-08-14T22:55:08.804Z,6,GR86-010-16,-47.6,0.108,-0.914,29.93,2.0,5292.0,0.0,0.0,
2025-08-14T22:55:08.848Z,6,GR86-010-16,-37.3,0.124,-0.907,30.21,2.0,,0.0,0.0,91.97
2025-08-14T22:55:08.891Z,6,GR86-010-16,-35.1,0.132,-0.894,30.21,2.0,,0.0,0.0,
2025-08-14T22:55:08.934Z,6,GR86-010-16,-41.2,0.158,-0.898,30.27,2.0,,0.0,0.0,
2025-08-14T22:55:08.977Z,6,GR86-010-16,-55.5,0.142,-0.916,32.99,2.0,,0.0,0.0,
2025-08-14T22:55:09.022Z,6,GR86-010-16,-71.7,0.128,-0.902,35.050000000000004,2.0,5321.0,0.0,0.0,
2025-08-14T22:55:09.065Z,6,GR86-010-16,-73.60000000000001,0.141,-0.913,34.76,2.0,,0.0,0.0,91.79
2025-08-14T22:55:09.108Z,6,GR86-010-16,-71.2,0.142,-0.909,33.56,2.0,,0.0,0.0,
2025-08-14T22:55:09.151Z,6,GR86-010-16,-67.9,0.157,-0.89,33.59,2.0,,0.0,0.0,
2025-08-14T22:55:09.194Z,6,GR86-010-16,-65.2,0.16,-0.86,34.31,2.0,,0.0,0.0,
2025-08-14T22:55:09.237Z,6,GR86-010-16,-63.3,0.156,-0.86,36.05,2.0,5377.0,0.0,0.0,
2025-08-14T22:55:09.281Z,6,GR86-010-16,-55.2,0.129,-0.903,37.29,2.0,,0.0,0.0,92.02
2025-08-14T22:55:09.324Z,6,GR86-010-16,-47.0,0.122,-0.906,37.77,2.0,,0.0,0.0,
2025-08-14T22:55:09.453Z,6,GR86-010-16,-40.6,0.177,-0.92,38.12,2.0,5421.0,0.0,0.0,
2025-08-14T22:55:09.496Z,6,GR86-010-16,-51.1,0.172,-0.881,95.99,2.0,,0.0,0.0,92.62
2025-08-14T22:55:09.539Z,6,GR86-010-16,-49.900000000000006,0.178,-0.898,99.71,2.0,,0.0,0.0,
2025-08-14T22:55:09.582Z,6,GR86-010-16,-38.2,0.221,-0.924,99.78,2.0,,0.0,0.0,
2025-08-14T22:55:09.625Z,6,GR86-010-16,-31.1,0.254,-0.9,99.8,2.0,,0.0,0.0,
2025-08-14T22:55:09.668Z,6,GR86-010-16,-25.700000000000003,0.261,-0.902,99.8,2.0,5504.0,0.0,0.0,
2025-08-14T22:55:09.711Z,6,GR86-010-16,-23.700000000000003,0.25,-0.903,99.78,2.0,,0.0,0.0,93.34
2025-08-14T22:55:09.754Z,6,GR86-010-16,-25.4,0.256,-0.905,99.8,2.0,,0.0,0.0,
2025-08-14T22:55:09.797Z,6,GR86-010-16,-24.5,0.237,-0.911,99.8,2.0,,0.0,0.0,
2025-08-14T22:55:09.840Z,6,GR86-010-16,-16.5,0.261,-0.841,99.79,2.0,,0.0,0.0,
2025-08-14T22:55:09.883Z,6,GR86-010-16,-16.1,0.27,-0.808,99.8,2.0,5560.0,0.0,0.0,
2025-08-14T22:55:09.926Z,6,GR86-010-16,-28.6,0.244,-0.848,99.8,2.0,,0.0,0.0,95.72
2025-08-14T22:55:09.969Z,6,GR86-010-16,-42.2,0.222,-0.877,99.8,2.0,,0.0,0.0,
2025-08-14T22:55:10.012Z,6,GR86-010-16,-48.900000000000006,0.203,-0.915,99.79,2.0,,0.0,0.0,
2025-08-14T22:55:10.141Z,6,GR86-010-16,-17.5,0.249,-0.8300000000000001,99.81,2.0,5692.0,0.0,0.0,97.09
2025-08-14T22:55:10.184Z,6,GR86-010-16,-9.6,0.239,-0.812,99.8,2.0,,0.0,0.0,
2025-08-14T22:55:10.227Z,6,GR86-010-16,-7.2,0.25,-0.787,99.8,2.0,,0.0,0.0,
2025-08-14T22:55:10.270Z,6,GR86-010-16,-7.2,0.266,-0.791,99.8,2.0,,0.0,0.0,
2025-08-14T22:55:10.313Z,6,GR86-010-16,-14.5,0.284,-0.797,99.81,2.0,5760.0,0.0,0.0,
2025-08-14T22:55:10.356Z,6,GR86-010-16,-16.3,0.279,-0.794,99.79,2.0,,0.0,0.0,98.17
2025-08-14T22:55:10.399Z,6,GR86-010-16,-16.3,0.244,-0.801,99.8,2.0,,0.0,0.0,
2025-08-14T22:55:10.442Z,6,GR86-010-16,-16.900000000000002,0.247,-0.8,99.8,2.0,,0.0,0.0,
2025-08-14T22:55:10.485Z,6,GR86-010-16,-31.5,0.254,-0.842,99.8,2.0,,0.0,0.0,
2025-08-14T22:55:10.528Z,6,GR86-010-16,-43.3,0.247,-0.841,99.81,2.0,5976.0,0.0,0.0,
2025-08-14T22:55:10.572Z,6,GR86-010-16,-45.1,0.24,-0.859,99.81,2.0,,0.0,0.0,99.77
2025-08-14T22:55:10.615Z,6,GR86-010-16,-39.0,0.218,-0.868,99.81,2.0,,0.0,0.0,
2025-08-14T22:55:10.658Z,6,GR86-010-16,-30.0,0.244,-0.885,99.8,2.0,,0.0,0.0,
2025-08-14T22:55:10.701Z,6,GR86-010-16,-19.700000000000003,0.245,-0.833,99.8,2.0,,0.0,0.0,
2025-08-14T22:55:10.744Z,6,GR86-010-16,-16.6,0.248,-0.802,99.8,2.0,6040.0,0.0,0.0,
2025-08-14T22:55:10.787Z,6,GR86-010-16,-19.9,0.273,-0.766,99.8,2.0,,0.0,0.0,100.38
2025-08-14T22:55:10.831Z,6,GR86-010-16,-28.200000000000003,0.235,-0.804,99.8,2.0,,0.0,0.0,
2025-08-14T22:55:10.875Z,6,GR86-010-16,-36.4,0.234,-0.806,99.8,2.0,,0.0,0.0,
2025-08-14T22:55:10.918Z,6,GR86-010-16,-40.400000000000006,0.23,-0.866,99.79,2.0,,0.0,0.0,
2025-08-14T22:55:10.962Z,6,GR86-010-16,-35.800000000000004,0.224,-0.846,99.81,2.0,6109.0,0.0,0.0,
2025-08-14T22:55:11.005Z,6,GR86-010-16,-26.9,0.222,-0.851,99.79,2.0,,0.0,0.0,102.69
2025-08-14T22:55:11.048Z,6,GR86-010-16,-17.400000000000002,0.234,-0.837,99.79,2.0,,0.0,0.0,
2025-08-14T22:55:11.091Z,6,GR86-010-16,-7.4,0.247,-0.79,99.81,2.0,,0.0,0.0,
2025-08-14T22:55:11.134Z,6,GR86-010-16,-1.5,0.251,-0.705,99.79,2.0,,0.0,0.0,
2025-08-14T22:55:11.222Z,6,GR86-010-16,-3.4000000000000004,0.188,-0.599,99.79,2.0,6158.0,0.0,0.0,103.88
2025-08-14T22:55:11.265Z,6,GR86-010-16,-12.0,0.187,-0.616,99.81,2.0,,0.0,0.0,
2025-08-14T22:55:11.308Z,6,GR86-010-16,-19.0,0.243,-0.637,99.8,2.0,,0.0,0.0,
2025-08-14T22:55:11.352Z,6,GR86-010-16,-20.0,0.311,-0.544,99.8,2.0,,0.0,0.0,
2025-08-14T22:55:11.395Z,6,GR86-010-16,-17.1,0.324,-0.601,99.8,2.0,6245.0,0.0,0.0,
2025-08-14T22:55:11.438Z,6,GR86-010-16,-8.3,0.303,-0.5760000000000001,99.79,2.0,,0.0,0.0,105.88
2025-08-14T22:55:11.482Z,6,GR86-010-16,5.9,0.158,-0.271,99.8,2.0,,0.0,0.0,
2025-08-14T22:55:11.524Z,6,GR86-010-16,10.3,0.124,-0.407,99.8,2.0,,0.0,0.0,
2025-08-14T22:55:11.567Z,6,GR86-010-16,10.4,0.164,-0.352,99.8,2.0,,0.0,0.0,
2025-08-14T22:55:11.610Z,6,GR86-010-16,5.9,0.229,-0.409,99.81,2.0,6375.0,0.0,0.0,
2025-08-14T22:55:11.653Z,6,GR86-010-16,0.1,0.286,-0.466,99.79,2.0,,0.0,0.0,106.61
2025-08-14T22:55:11.696Z,6,GR86-010-16,-1.9,0.255,-0.413,99.79,2.0,,0.0,0.0,
2025-08-14T22:55:11.740Z,6,GR86-010-16,-2.0,0.229,-0.322,99.81,2.0,,0.0,0.0,
2025-08-14T22:55:11.783Z,6,GR86-010-16,-5.0,0.197,-0.341,99.8,2.0,,0.0,0.0,
2025-08-14T22:55:11.826Z,6,GR86-010-16,-10.9,0.166,-0.271,99.81,2.0,6529.0,0.0,0.0,
2025-08-14T22:55:11.870Z,6,GR86-010-16,-11.7,0.137,-0.235,99.81,2.0,,0.0,0.0,107.66
2025-08-14T22:55:11.913Z,6,GR86-010-16,-9.2,0.182,-0.281,99.82,2.0,,0.0,0.0,
2025-08-14T22:55:11.957Z,6,GR86-010-16,-1.0,0.152,-0.222,99.8,2.0,,0.0,0.0,
2025-08-14T22:55:11.999Z,6,GR86-010-16,5.2,0.155,-0.228,99.81,2.0,,0.0,0.0,
2025-08-14T22:55:12.042Z,6,GR86-010-16,10.8,0.379,-0.272,99.8,2.0,6553.0,0.0,0.0,
2025-08-14T22:55:12.085Z,6,GR86-010-16,10.8,0.356,-0.164,99.82,2.0,,0.0,0.0,109.5
2025-08-14T22:55:12.128Z,6,GR86-010-16,10.8,0.344,-0.22,99.81,2.0,,0.0,0.0,
2025-08-14T22:55:12.171Z,6,GR86-010-16,10.4,0.331,-0.187,99.83,2.0,,0.0,0.0,
2025-08-14T22:55:12.214Z,6,GR86-010-16,10.4,0.349,-0.116,99.81,2.0,,0.0,0.0,
2025-08-14T22:55:12.257Z,6,GR86-010-16,10.4,0.268,-0.081,99.83,2.0,6720.0,0.0,0.0,
2025-08-14T22:55:12.301Z,6,GR86-010-16,10.4,0.214,-0.054,99.8,2.0,,0.0,0.0,110.98
2025-08-14T22:55:12.344Z,6,GR86-010-16,8.4,0.221,0.031,99.81,2.0,,0.0,0.0,
2025-08-14T22:55:12.387Z,6,GR86-010-16,7.9,0.257,-0.005,99.81,2.0,,0.0,0.0,
2025-08-14T22:55:12.430Z,6,GR86-010-16,7.6,0.278,0.047,99.81,2.0,,0.0,0.0,
2025-08-14T22:55:12.473Z,6,GR86-010-16,7.4,0.307,0.072,99.81,2.0,6737.0,0.0,0.0,
2025-08-14T22:55:12.516Z,6,GR86-010-16,7.4,0.282,0.054,99.83,2.0,,0.0,0.0,112.86
2025-08-14T22:55:12.559Z,6,GR86-010-16,7.4,0.244,0.068,99.8,2.0,,0.0,0.0,
2025-08-14T22:55:12.602Z,6,GR86-010-16,7.4,0.224,0.076,99.81,2.0,,0.0,0.0,
2025-08-14T22:55:12.645Z,6,GR86-010-16,7.4,0.25,0.074,99.81,2.0,,0.0,0.0,
2025-08-14T22:55:12.688Z,6,GR86-010-16,7.4,0.258,0.055,99.83,2.0,6776.0,0.0,0.0,
2025-08-14T22:55:12.731Z,6,GR86-010-16,7.4,0.259,0.041,99.81,2.0,,0.0,0.0,116.7
2025-08-14T22:55:12.774Z,6,GR86-010-16,7.4,0.268,0.041,99.8,2.0,,0.0,0.0,
2025-08-14T22:55:12.817Z,6,GR86-010-16,7.4,0.26,0.015,99.84,2.0,,0.0,0.0,
2025-08-14T22:55:12.861Z,6,GR86-010-16,7.4,0.248,-0.002,99.83,2.0,,0.0,0.0,
2025-08-14T22:55:12.903Z,6,GR86-010-16,7.4,0.248,-0.012,99.8,2.0,6866.0,0.0,0.0,
2025-08-14T22:55:12.946Z,6,GR86-010-16,7.5,0.247,0.018,99.82,2.0,,0.0,0.0,118.44
2025-08-14T22:55:12.989Z,6,GR86-010-16,7.7,0.243,0.005,99.83,2.0,,0.0,0.0,
2025-08-14T22:55:13.032Z,6,GR86-010-16,7.7,0.244,0.022,99.82,2.0,,0.0,0.0,
2025-08-14T22:55:13.075Z,6,GR86-010-16,7.7,0.249,0.049,99.81,2.0,,0.0,0.0,
2025-08-14T22:55:13.119Z,6,GR86-010-16,7.7,0.247,0.043,99.81,2.0,6998.0,0.0,0.0,
2025-08-14T22:55:13.162Z,6,GR86-010-16,7.7,0.217,0.03,99.84,2.0,,0.0,0.0,120.38
2025-08-14T22:55:13.205Z,6,GR86-010-16,7.7,-0.046,0.049,99.83,3.0,,0.0,0.0,
2025-08-14T22:55:13.248Z,6,GR86-010-16,7.7,0.258,0.093,99.84,3.0,,0.0,0.0,
2025-08-14T22:55:13.291Z,6,GR86-010-16,7.7,0.334,-0.029,99.84,3.0,,0.0,0.0,
2025-08-14T22:55:13.334Z,6,GR86-010-16,7.7,0.302,0.019,99.85,3.0,7123.0,0.0,0.0,
2025-08-14T22:55:13.377Z,6,GR86-010-16,7.7,0.28,0.119,99.84,3.0,,0.0,0.0,121.98
2025-08-14T22:55:13.422Z,6,GR86-010-16,7.7,0.277,0.012,99.82,3.0,,0.0,0.0,
2025-08-14T22:55:13.465Z,6,GR86-010-16,7.7,0.229,0.078,99.84,3.0,,0.0,0.0,
2025-08-14T22:55:13.508Z,6,GR86-010-16,7.7,0.232,0.016,99.83,3.0,,0.0,0.0,
2025-08-14T22:55:13.551Z,6,GR86-010-16,7.7,0.223,-0.007,99.84,3.0,6297.0,0.0,0.0,
2025-08-14T22:55:13.594Z,6,GR86-010-16,7.7,0.194,0.036,99.82,3.0,,0.0,0.0,123.5
2025-08-14T22:55:13.637Z,6,GR86-010-16,7.7,0.211,-0.039,99.84,3.0,,0.0,0.0,
2025-08-14T22:55:13.681Z,6,GR86-010-16,7.7,0.22,-0.019,99.82,3.0,,0.0,0.0,
2025-08-14T22:55:13.725Z,6,GR86-010-16,7.7,0.225,-0.019,99.83,3.0,,0.0,0.0,
2025-08-14T22:55:13.768Z,6,GR86-010-16,7.7,0.216,-0.003,99.83,3.0,5972.0,0.0,0.0,
2025-08-14T22:55:13.811Z,6,GR86-010-16,7.7,0.2,-0.03,99.83,3.0,,0.0,0.0,125.11
2025-08-14T22:55:13.854Z,6,GR86-010-16,7.7,0.216,-0.046,99.83,3.0,,0.0,0.0,
2025-08-14T22:55:13.897Z,6,GR86-010-16,7.7,0.226,-0.023,99.82,3.0,,0.0,0.0,
2025-08-14T22:55:13.941Z,6,GR86-010-16,7.7,0.22,-0.02,99.83,3.0,,0.0,0.0,
2025-08-14T22:55:13.984Z,6,GR86-010-16,7.7,0.215,0.001,99.84,3.0,6030.0,0.0,0.0,
2025-08-14T22:55:14.027Z,6,GR86-010-16,7.7,0.204,-0.05,99.84,3.0,,0.0,0.0,126.79
2025-08-14T22:55:14.070Z,6,GR86-010-16,7.7,0.212,-0.046,99.83,3.0,,0.0,0.0,
2025-08-14T22:55:14.113Z,6,GR86-010-16,7.7,0.214,-0.043,99.83,3.0,,0.0,0.0,
2025-08-14T22:55:14.157Z,6,GR86-010-16,7.7,0.202,-0.052,99.82,3.0,,0.0,0.0,
2025-08-14T22:55:14.202Z,6,GR86-010-16,7.7,0.207,-0.038,99.84,3.0,6095.0,0.0,0.0,
2025-08-14T22:55:14.245Z,6,GR86-010-16,7.7,0.205,-0.056,99.81,3.0,,0.0,0.0,128.15
2025-08-14T22:55:14.288Z,6,GR86-010-16,7.7,0.215,-0.045,99.83,3.0,,0.0,0.0,
2025-08-14T22:55:14.331Z,6,GR86-010-16,7.7,0.204,-0.036,99.84,3.0,,0.0,0.0,
2025-08-14T22:55:14.374Z,6,GR86-010-16,7.7,0.202,-0.051,99.83,3.0,,0.0,0.0,
2025-08-14T22:55:14.417Z,6,GR86-010-16,7.7,0.196,-0.072,99.83,3.0,6124.0,0.0,0.0,
2025-08-14T22:55:14.461Z,6,GR86-010-16,7.7,0.202,-0.064,99.83,3.0,,0.0,0.0,129.48
2025-08-14T22:55:14.503Z,6,GR86-010-16,7.7,0.206,-0.054,99.82,3.0,,0.0,0.0,
2025-08-14T22:55:14.546Z,6,GR86-010-16,7.7,0.206,-0.038,99.84,3.0,,0.0,0.0,
2025-08-14T22:55:14.589Z,6,GR86-010-16,7.7,0.195,-0.069,99.82,3.0,,0.0,0.0,
2025-08-14T22:55:14.632Z,6,GR86-010-16,7.7,0.2,-0.077,99.84,3.0,6186.0,0.0,0.0,
2025-08-14T22:55:14.675Z,6,GR86-010-16,7.7,0.212,-0.044,99.83,3.0,,0.0,0.0,130.99
2025-08-14T22:55:14.718Z,6,GR86-010-16,7.7,0.214,-0.021,99.83,3.0,,0.0,0.0,
2025-08-14T22:55:14.762Z,6,GR86-010-16,7.7,0.201,-0.021,99.83,3.0,,0.0,0.0,
2025-08-14T22:55:14.805Z,6,GR86-010-16,7.7,0.202,-0.034,99.84,3.0,,0.0,0.0,
2025-08-14T22:55:14.848Z,6,GR86-010-16,7.7,0.194,-0.055,99.81,3.0,6291.0,0.0,0.0,
2025-08-14T22:55:14.891Z,6,GR86-010-16,7.7,0.199,-0.044,99.84,3.0,,0.0,0.0,132.36
2025-08-14T22:55:14.934Z,6,GR86-010-16,7.7,0.207,-0.023,99.83,3.0,,0.0,0.0,
2025-08-14T22:55:14.977Z,6,GR86-010-16,7.0,0.206,-0.048,99.84,3.0,,0.0,0.0,
2025-08-14T22:55:15.022Z,6,GR86-010-16,6.300000000000001,0.19,-0.045,99.84,3.0,,0.0,0.0,
2025-08-14T22:55:15.065Z,6,GR86-010-16,6.300000000000001,0.2,-0.079,99.84,3.0,6346.0,0.0,0.0,
2025-08-14T22:55:15.108Z,6,GR86-010-16,6.300000000000001,0.198,-0.089,99.83,3.0,,0.0,0.0,133.75
2025-08-14T22:55:15.151Z,6,GR86-010-16,6.300000000000001,0.202,-0.057,99.84,3.0,,0.0,0.0,
2025-08-14T22:55:15.194Z,6,GR86-010-16,6.300000000000001,0.202,-0.059,99.83,3.0,,0.0,0.0,
2025-08-14T22:55:15.237Z,6,GR86-010-16,6.300000000000001,0.206,-0.093,99.83,3.0,,0.0,0.0,
2025-08-14T22:55:15.281Z,6,GR86-010-16,6.300000000000001,0.204,-0.069,99.84,3.0,6372.0,0.0,0.0,
2025-08-14T22:55:15.325Z,6,GR86-010-16,6.300000000000001,0.206,-0.084,99.84,3.0,,0.0,0.0,136.27
2025-08-14T22:55:15.368Z,6,GR86-010-16,6.300000000000001,0.193,-0.068,99.84,3.0,,0.0,0.0,
2025-08-14T22:55:15.411Z,6,GR86-010-16,6.300000000000001,0.204,-0.055,99.82,3.0,,0.0,0.0,
2025-08-14T22:55:15.454Z,6,GR86-010-16,6.300000000000001,0.2,-0.081,99.83,3.0,,0.0,0.0,
2025-08-14T22:55:15.497Z,6,GR86-010-16,5.6000000000000005,0.198,-0.113,99.83,3.0,6478.0,0.0,0.0,
2025-08-14T22:55:15.540Z,6,GR86-010-16,4.0,0.203,-0.128,99.83,3.0,,0.0,0.0,137.52
2025-08-14T22:55:15.583Z,6,GR86-010-16,4.1000000000000005,0.192,-0.136,99.84,3.0,,0.0,0.0,
2025-08-14T22:55:15.627Z,6,GR86-010-16,4.1000000000000005,0.192,-0.109,99.83,3.0,,0.0,0.0,
2025-08-14T22:55:15.670Z,6,GR86-010-16,4.0,0.182,-0.095,99.83,3.0,,0.0,0.0,
2025-08-14T22:55:15.713Z,6,GR86-010-16,4.1000000000000005,0.192,-0.105,99.83,3.0,6487.0,0.0,0.0,
2025-08-14T22:55:15.757Z,6,GR86-010-16,4.5,0.198,-0.113,99.81,3.0,,0.0,0.0,138.83
2025-08-14T22:55:15.801Z,6,GR86-010-16,5.0,0.203,-0.097,99.83,3.0,,0.0,0.0,
2025-08-14T22:55:15.843Z,6,GR86-010-16,5.0,0.196,-0.1,99.82,3.0,,0.0,0.0,
2025-08-14T22:55:15.886Z,6,GR86-010-16,5.0,0.199,-0.092,99.83,3.0,,0.0,0.0,
2025-08-14T22:55:15.929Z,6,GR86-010-16,5.0,0.183,-0.059,99.81,3.0,6595.0,0.0,0.0,
2025-08-14T22:55:15.972Z,6,GR86-010-16,5.0,0.19,-0.08,99.83,3.0,,0.0,0.0,140.09
2025-08-14T22:55:16.015Z,6,GR86-010-16,5.0,0.206,-0.098,99.82,3.0,,0.0,0.0,
2025-08-14T22:55:16.058Z,6,GR86-010-16,5.0,0.192,-0.077,99.83,3.0,,0.0,0.0,
2025-08-14T22:55:16.101Z,6,GR86-010-16,5.0,0.208,-0.091,99.84,3.0,,0.0,0.0,
2025-08-14T22:55:16.144Z,6,GR86-010-16,5.0,0.197,-0.084,99.85,3.0,6655.0,0.0,0.0,
2025-08-14T22:55:16.187Z,6,GR86-010-16,5.0,0.196,-0.065,99.85,3.0,,0.0,0.0,141.26
2025-08-14T22:55:16.231Z,6,GR86-010-16,5.0,0.176,-0.081,99.84,3.0,,0.0,0.0,
2025-08-14T22:55:16.275Z,6,GR86-010-16,5.0,0.189,-0.099,99.84,3.0,,0.0,0.0,
2025-08-14T22:55:16.318Z,6,GR86-010-16,5.0,0.188,-0.097,99.83,3.0,,0.0,0.0,
2025-08-14T22:55:16.362Z,6,GR86-010-16,5.0,0.198,-0.073,99.84,3.0,6760.0,0.0,0.0,
2025-08-14T22:55:16.405Z,6,GR86-010-16,5.0,0.204,-0.087,99.84,3.0,,0.0,0.0,142.43
2025-08-14T22:55:16.448Z,6,GR86-010-16,5.0,0.195,-0.051,99.84,3.0,,0.0,0.0,
2025-08-14T22:55:16.491Z,6,GR86-010-16,5.0,0.179,-0.048,99.85,3.0,,0.0,0.0,
2025-08-14T22:55:16.534Z,6,GR86-010-16,5.0,0.186,-0.066,99.83,3.0,,0.0,0.0,
2025-08-14T22:55:16.577Z,6,GR86-010-16,5.0,0.195,-0.094,99.81,3.0,6766.0,0.0,0.0,
2025-08-14T22:55:16.622Z,6,GR86-010-16,4.5,0.193,-0.07,99.82,3.0,,0.0,0.0,143.67000000000002
2025-08-14T22:55:16.665Z,6,GR86-010-16,4.5,0.18,-0.096,99.83,3.0,,0.0,0.0,
2025-08-14T22:55:16.708Z,6,GR86-010-16,4.5,0.18,-0.103,99.83,3.0,,0.0,0.0,
2025-08-14T22:55:16.752Z,6,GR86-010-16,4.5,0.192,-0.085,99.84,3.0,,0.0,0.0,
2025-08-14T22:55:16.795Z,6,GR86-010-16,4.5,0.188,-0.075,99.83,3.0,6823.0,0.0,0.0,
2025-08-14T22:55:16.838Z,6,GR86-010-16,4.800000000000001,0.19,-0.081,99.81,3.0,,0.0,0.0,144.86
2025-08-14T22:55:16.882Z,6,GR86-010-16,4.800000000000001,0.184,-0.071,99.84,3.0,,0.0,0.0,
2025-08-14T22:55:16.925Z,6,GR86-010-16,4.800000000000001,0.203,-0.075,99.84,3.0,,0.0,0.0,
2025-08-14T22:55:16.968Z,6,GR86-010-16,4.800000000000001,0.186,-0.1,99.83,3.0,,0.0,0.0,
2025-08-14T22:55:17.011Z,6,GR86-010-16,4.800000000000001,0.175,-0.117,99.84,3.0,6885.0,0.0,0.0,
2025-08-14T22:55:17.054Z,6,GR86-010-16,4.800000000000001,0.175,-0.107,99.84,3.0,,0.0,0.0,146.09
2025-08-14T22:55:17.097Z,6,GR86-010-16,4.800000000000001,0.178,-0.092,99.84,3.0,,0.0,0.0,
2025-08-14T22:55:17.140Z,6,GR86-010-16,4.800000000000001,0.176,-0.099,99.83,3.0,,0.0,0.0,
2025-08-14T22:55:17.183Z,6,GR86-010-16,4.800000000000001,0.18,-0.075,99.84,3.0,,0.0,0.0,
2025-08-14T22:55:17.227Z,6,GR86-010-16,4.800000000000001,0.195,-0.068,99.85,3.0,6937.0,0.0,0.0,
2025-08-14T22:55:17.270Z,6,GR86-010-16,4.800000000000001,0.195,-0.094,99.82,3.0,,0.0,0.0,147.4
2025-08-14T22:55:17.313Z,6,GR86-010-16,4.800000000000001,0.192,-0.124,99.84,3.0,,0.0,0.0,
2025-08-14T22:55:17.356Z,6,GR86-010-16,4.800000000000001,0.183,-0.137,99.84,3.0,,0.0,0.0,
2025-08-14T22:55:17.399Z,6,GR86-010-16,4.800000000000001,0.17,-0.132,99.84,3.0,,0.0,0.0,
2025-08-14T22:55:17.442Z,6,GR86-010-16,4.800000000000001,0.186,-0.125,99.84,3.0,7034.0,0.0,0.0,
2025-08-14T22:55:17.485Z,6,GR86-010-16,4.800000000000001,0.179,-0.101,99.83,3.0,,0.0,0.0,148.65
2025-08-14T22:55:17.528Z,6,GR86-010-16,4.800000000000001,0.161,-0.076,99.84,3.0,,0.0,0.0,
2025-08-14T22:55:17.571Z,6,GR86-010-16,4.800000000000001,0.181,-0.067,99.84,3.0,,0.0,0.0,
2025-08-14T22:55:17.614Z,6,GR86-010-16,4.800000000000001,0.196,-0.073,99.82,3.0,,0.0,0.0,
2025-08-14T22:55:17.701Z,6,GR86-010-16,4.800000000000001,0.186,-0.045,99.85,3.0,7042.0,0.0,0.0,149.84
2025-08-14T22:55:17.744Z,6,GR86-010-16,4.800000000000001,0.191,-0.062,99.83,3.0,,0.0,0.0,
2025-08-14T22:55:17.787Z,6,GR86-010-16,4.800000000000001,0.19,-0.073,99.82,3.0,,0.0,0.0,
2025-08-14T22:55:17.830Z,6,GR86-010-16,4.800000000000001,0.174,-0.067,99.84,3.0,,0.0,0.0,
2025-08-14T22:55:17.873Z,6,GR86-010-16,4.800000000000001,0.166,-0.056,99.84,3.0,7141.0,0.0,0.0,
2025-08-14T22:55:17.916Z,6,GR86-010-16,4.800000000000001,0.168,-0.033,99.82,3.0,,0.0,0.0,151.05
2025-08-14T22:55:17.961Z,6,GR86-010-16,4.800000000000001,0.168,-0.051,99.84,3.0,,0.0,0.0,
2025-08-14T22:55:18.003Z,6,GR86-010-16,4.800000000000001,0.162,-0.018,99.84,3.0,,0.0,0.0,
2025-08-14T22:55:18.046Z,6,GR86-010-16,4.800000000000001,0.113,-0.024,99.84,3.0,,0.0,0.0,
2025-08-14T22:55:18.089Z,6,GR86-010-16,4.800000000000001,-0.106,0.004,99.84,4.0,7193.0,0.0,0.0,
2025-08-14T22:55:18.132Z,6,GR86-010-16,4.800000000000001,0.462,-0.009,99.83,4.0,,0.0,0.0,153.3
2025-08-14T22:55:18.175Z,6,GR86-010-16,4.800000000000001,0.253,-0.134,99.84,4.0,,0.0,0.0,
2025-08-14T22:55:18.218Z,6,GR86-010-16,4.800000000000001,0.214,-0.043,99.83,4.0,,0.0,0.0,
2025-08-14T22:55:18.261Z,6,GR86-010-16,4.800000000000001,0.187,-0.062,99.84,4.0,,0.0,0.0,
2025-08-14T22:55:18.304Z,6,GR86-010-16,4.800000000000001,0.17,-0.089,99.83,4.0,7251.0,0.0,0.0,
2025-08-14T22:55:18.347Z,6,GR86-010-16,4.800000000000001,0.16,-0.038,99.83,4.0,,0.0,0.0,154.27
2025-08-14T22:55:18.391Z,6,GR86-010-16,4.800000000000001,0.152,-0.097,99.84,4.0,,0.0,0.0,
2025-08-14T22:55:18.434Z,6,GR86-010-16,4.800000000000001,0.136,-0.052,99.84,4.0,,0.0,0.0,
2025-08-14T22:55:18.477Z,6,GR86-010-16,4.800000000000001,0.141,-0.01,99.83,4.0,,0.0,0.0,
2025-08-14T22:55:18.522Z,6,GR86-010-16,4.800000000000001,0.144,-0.067,99.84,4.0,6198.0,0.0,0.0,
2025-08-14T22:55:18.608Z,6,GR86-010-16,5.5,0.149,-0.029,99.82,4.0,,0.0,0.0,155.21
2025-08-14T22:55:18.651Z,6,GR86-010-16,5.5,0.161,-0.017,99.83,4.0,,0.0,0.0,
2025-08-14T22:55:18.694Z,6,GR86-010-16,5.5,0.146,-0.026,99.82,4.0,,0.0,0.0,
2025-08-14T22:55:18.737Z,6,GR86-010-16,5.5,0.159,-0.039,99.84,4.0,6202.0,0.0,0.0,
2025-08-14T22:55:18.781Z,6,GR86-010-16,5.5,0.156,-0.001,99.84,4.0,,0.0,0.0,156.51
2025-08-14T22:55:18.825Z,6,GR86-010-16,5.5,0.148,-0.009,99.83,4.0,,0.0,0.0,
2025-08-14T22:55:18.868Z,6,GR86-010-16,5.5,0.154,-0.023,99.84,4.0,,0.0,0.0,
2025-08-14T22:55:18.911Z,6,GR86-010-16,5.5,0.147,-0.047,99.83,4.0,,0.0,0.0,
2025-08-14T22:55:18.954Z,6,GR86-010-16,5.5,0.15,-0.038,99.85,4.0,6239.0,0.0,0.0,
2025-08-14T22:55:18.997Z,6,GR86-010-16,5.5,0.149,-0.032,99.84,4.0,,0.0,0.0,157.58
2025-08-14T22:55:19.041Z,6,GR86-010-16,5.5,0.151,-0.047,99.83,4.0,,0.0,0.0,
2025-08-14T22:55:19.084Z,6,GR86-010-16,5.5,0.15,-0.069,99.82,4.0,,0.0,0.0,
2025-08-14T22:55:19.128Z,6,GR86-010-16,5.5,0.145,-0.075,99.83,4.0,,0.0,0.0,
2025-08-14T22:55:19.171Z,6,GR86-010-16,5.5,0.141,-0.072,99.83,4.0,6278.0,0.0,0.0,
2025-08-14T22:55:19.214Z,6,GR86-010-16,5.5,0.152,-0.051,99.84,4.0,,0.0,0.0,158.67000000000002
2025-08-14T22:55:19.257Z,6,GR86-010-16,5.5,0.144,-0.055,99.84,4.0,,0.0,0.0,
2025-08-14T22:55:19.301Z,6,GR86-010-16,5.5,0.143,-0.077,99.84,4.0,,0.0,0.0,
2025-08-14T22:55:19.345Z,6,GR86-010-16,5.5,0.15,-0.066,99.83,4.0,,0.0,0.0,
2025-08-14T22:55:19.388Z,6,GR86-010-16,5.5,0.15,-0.052,99.84,4.0,6309.0,0.0,0.0,
2025-08-14T22:55:19.431Z,6,GR86-010-16,5.5,0.148,-0.062,99.83,4.0,,0.0,0.0,159.8
2025-08-14T22:55:19.474Z,6,GR86-010-16,3.1,0.147,-0.074,99.83,4.0,,0.0,0.0,
2025-08-14T22:55:19.517Z,6,GR86-010-16,2.3000000000000003,0.144,-0.108,99.84,4.0,,0.0,0.0,
2025-08-14T22:55:19.561Z,6,GR86-010-16,2.3000000000000003,0.137,-0.124,99.84,4.0,,0.0,0.0,
2025-08-14T22:55:19.647Z,6,GR86-010-16,2.3000000000000003,0.148,-0.129,99.84,4.0,6401.0,0.0,0.0,160.75
2025-08-14T22:55:19.690Z,6,GR86-010-16,2.4000000000000004,0.141,-0.132,99.84,4.0,,0.0,0.0,
2025-08-14T22:55:19.733Z,6,GR86-010-16,2.3000000000000003,0.147,-0.148,99.83,4.0,,0.0,0.0,
2025-08-14T22:55:19.776Z,6,GR86-010-16,2.4000000000000004,0.143,-0.164,99.84,4.0,,0.0,0.0,
2025-08-14T22:55:19.819Z,6,GR86-010-16,2.6,0.154,-0.162,99.84,4.0,6433.0,0.0,0.0,
2025-08-14T22:55:19.862Z,6,GR86-010-16,2.6,0.151,-0.122,99.82,4.0,,0.0,0.0,161.85
2025-08-14T22:55:19.905Z,6,GR86-010-16,2.6,0.154,-0.128,99.84,4.0,,0.0,0.0,
2025-08-14T22:55:19.948Z,6,GR86-010-16,2.6,0.148,-0.136,99.84,4.0,,0.0,0.0,
2025-08-14T22:55:19.991Z,6,GR86-010-16,2.6,0.146,-0.139,99.83,4.0,,0.0,0.0,
2025-08-14T22:55:20.034Z,6,GR86-010-16,2.6,0.15,-0.135,99.83,4.0,6435.0,0.0,0.0,
2025-08-14T22:55:20.077Z,6,GR86-010-16,2.7,0.143,-0.117,99.83,4.0,,0.0,0.0,162.89
2025-08-14T22:55:20.122Z,6,GR86-010-16,2.7,0.144,-0.091,99.83,4.0,,0.0,0.0,
2025-08-14T22:55:20.165Z,6,GR86-010-16,2.7,0.146,-0.093,99.84,4.0,,0.0,0.0,
2025-08-14T22:55:20.208Z,6,GR86-010-16,2.7,0.154,-0.092,99.84,4.0,,0.0,0.0,
2025-08-14T22:55:20.251Z,6,GR86-010-16,2.7,0.146,-0.079,99.83,4.0,6472.0,0.0,0.0,
2025-08-14T22:55:20.294Z,6,GR86-010-16,2.7,0.131,-0.061,99.83,4.0,,0.0,0.0,163.96
2025-08-14T22:55:20.337Z,6,GR86-010-16,2.7,0.119,-0.058,99.84,4.0,,0.0,0.0,
2025-08-14T22:55:20.381Z,6,GR86-010-16,2.7,0.148,-0.076,99.82,4.0,,0.0,0.0,
2025-08-14T22:55:20.425Z,6,GR86-010-16,2.7,0.145,-0.088,99.85,4.0,,0.0,0.0,
2025-08-14T22:55:20.468Z,6,GR86-010-16,2.7,0.144,-0.094,99.84,4.0,6555.0,0.0,0.0,
2025-08-14T22:55:20.511Z,6,GR86-010-16,2.7,0.148,-0.085,99.83,4.0,,0.0,0.0,165.09
2025-08-14T22:55:20.554Z,6,GR86-010-16,2.7,0.127,-0.082,99.84,4.0,,0.0,0.0,
2025-08-14T22:55:20.597Z,6,GR86-010-16,2.7,0.124,-0.095,99.82,4.0,,0.0,0.0,
2025-08-14T22:55:20.640Z,6,GR86-010-16,2.7,0.142,-0.118,99.85,4.0,,0.0,0.0,
2025-08-14T22:55:20.683Z,6,GR86-010-16,2.7,0.138,-0.134,99.84,4.0,6593.0,0.0,0.0,
2025-08-14T22:55:20.727Z,6,GR86-010-16,2.7,0.139,-0.148,99.84,4.0,,0.0,0.0,167.12
2025-08-14T22:55:20.770Z,6,GR86-010-16,2.7,0.139,-0.132,99.83,4.0,,0.0,0.0,
2025-08-14T22:55:20.813Z,6,GR86-010-16,2.7,0.142,-0.121,99.83,4.0,,0.0,0.0,
2025-08-14T22:55:20.857Z,6,GR86-010-16,2.7,0.127,-0.109,99.83,4.0,,0.0,0.0,
2025-08-14T22:55:20.899Z,6,GR86-010-16,2.7,0.132,-0.119,99.82,4.0,6637.0,0.0,0.0,
2025-08-14T22:55:20.942Z,6,GR86-010-16,2.7,0.139,-0.167,99.84,4.0,,0.0,0.0,167.94
2025-08-14T22:55:20.985Z,6,GR86-010-16,2.7,0.152,-0.177,99.84,4.0,,0.0,0.0,
2025-08-14T22:55:21.028Z,6,GR86-010-16,2.7,0.147,-0.144,99.84,4.0,,0.0,0.0,
2025-08-14T22:55:21.072Z,6,GR86-010-16,2.7,0.129,-0.126,99.84,4.0,,0.0,0.0,
2025-08-14T22:55:21.115Z,6,GR86-010-16,2.7,0.126,-0.124,99.84,4.0,6688.0,0.0,0.0,
2025-08-14T22:55:21.158Z,6,GR86-010-16,2.7,0.125,-0.113,99.84,4.0,,0.0,0.0,169.13
2025-08-14T22:55:21.201Z,6,GR86-010-16,2.7,0.142,-0.126,99.83,4.0,,0.0,0.0,
2025-08-14T22:55:21.244Z,6,GR86-010-16,2.7,0.143,-0.124,99.81,4.0,,0.0,0.0,
2025-08-14T22:55:21.287Z,6,GR86-010-16,2.7,0.142,-0.118,99.83,4.0,,0.0,0.0,
2025-08-14T22:55:21.331Z,6,GR86-010-16,2.7,0.143,-0.116,99.82,4.0,6750.0,0.0,0.0,
2025-08-14T22:55:21.373Z,6,GR86-010-16,2.7,0.145,-0.111,99.82,4.0,,0.0,0.0,170.22
2025-08-14T22:55:21.416Z,6,GR86-010-16,2.7,0.138,-0.092,99.83,4.0,,0.0,0.0,
2025-08-14T22:55:21.459Z,6,GR86-010-16,2.7,0.131,-0.093,99.84,4.0,,0.0,0.0,
2025-08-14T22:55:21.502Z,6,GR86-010-16,2.7,0.135,-0.075,99.82,4.0,,0.0,0.0,
2025-08-14T22:55:21.545Z,6,GR86-010-16,2.7,0.142,-0.091,99.83,4.0,6746.0,0.0,0.0,
2025-08-14T22:55:21.632Z,6,GR86-010-16,2.7,0.134,-0.126,99.84,4.0,,0.0,0.0,171.26
2025-08-14T22:55:21.675Z,6,GR86-010-16,2.7,0.142,-0.117,99.85,4.0,,0.0,0.0,
2025-08-14T22:55:21.718Z,6,GR86-010-16,2.7,0.142,-0.133,99.85,4.0,,0.0,0.0,
2025-08-14T22:55:21.762Z,6,GR86-010-16,2.7,0.153,-0.117,99.84,4.0,6837.0,0.0,0.0,
2025-08-14T22:55:21.891Z,6,GR86-010-16,2.7,0.144,-0.126,99.84,4.0,,0.0,0.0,172.06
2025-08-14T22:55:21.934Z,6,GR86-010-16,2.7,0.131,-0.125,99.81,4.0,,0.0,0.0,
2025-08-14T22:55:21.977Z,6,GR86-010-16,2.7,0.127,-0.124,99.84,4.0,6867.0,0.0,0.0,
2025-08-14T22:55:22.022Z,6,GR86-010-16,2.7,0.134,-0.126,99.83,4.0,,0.0,0.0,173.05
2025-08-14T22:55:22.065Z,6,GR86-010-16,2.7,0.133,-0.151,99.83,4.0,,0.0,0.0,
2025-08-14T22:55:22.108Z,6,GR86-010-16,2.7,0.125,-0.159,99.83,4.0,,0.0,0.0,
2025-08-14T22:55:22.195Z,6,GR86-010-16,2.7,0.136,-0.163,99.83,4.0,6906.0,0.0,0.0,
2025-08-14T22:55:22.238Z,6,GR86-010-16,2.7,0.126,-0.13,99.84,4.0,,0.0,0.0,174.16
2025-08-14T22:55:22.282Z,6,GR86-010-16,2.7,0.13,-0.166,99.84,4.0,,0.0,0.0,
2025-08-14T22:55:22.325Z,6,GR86-010-16,2.7,0.136,-0.17,99.82,4.0,,0.0,0.0,
2025-08-14T22:55:22.368Z,6,GR86-010-16,2.7,0.122,-0.163,99.83,4.0,,0.0,0.0,
2025-08-14T22:55:22.411Z,6,GR86-010-16,2.7,0.129,-0.142,99.84,4.0,6941.0,0.0,0.0,
2025-08-14T22:55:22.454Z,6,GR86-010-16,2.7,0.127,-0.144,99.84,4.0,,0.0,0.0,175.09
2025-08-14T22:55:22.540Z,6,GR86-010-16,2.7,0.119,-0.14,99.84,4.0,,0.0,0.0,
2025-08-14T22:55:22.583Z,6,GR86-010-16,3.2,0.141,-0.119,99.84,4.0,,0.0,0.0,
2025-08-14T22:55:22.627Z,6,GR86-010-16,3.7,0.13,-0.106,99.81,4.0,6935.0,0.0,0.0,
2025-08-14T22:55:22.670Z,6,GR86-010-16,3.8,0.137,-0.109,99.84,4.0,,0.0,0.0,176.07
2025-08-14T22:55:22.713Z,6,GR86-010-16,3.7,0.136,-0.1,99.84,4.0,,0.0,0.0,
2025-08-14T22:55:22.757Z,6,GR86-010-16,3.8,0.123,-0.089,99.83,4.0,,0.0,0.0,
2025-08-14T22:55:22.801Z,6,GR86-010-16,3.7,0.126,-0.046,99.84,4.0,,0.0,0.0,
2025-08-14T22:55:22.843Z,6,GR86-010-16,3.8,0.129,-0.026,99.84,4.0,6977.0,0.0,0.0,
2025-08-14T22:55:22.886Z,6,GR86-010-16,3.8,0.129,-0.03,99.82,4.0,,0.0,0.0,176.93
2025-08-14T22:55:22.929Z,6,GR86-010-16,3.7,0.139,-0.037,99.84,4.0,,0.0,0.0,
2025-08-14T22:55:22.972Z,6,GR86-010-16,3.8,0.131,-0.038,99.82,4.0,,0.0,0.0,
2025-08-14T22:55:23.015Z,6,GR86-010-16,3.8,0.131,-0.033,99.82,4.0,,0.0,0.0,
2025-08-14T22:55:23.058Z,6,GR86-010-16,3.8,0.131,-0.034,99.83,4.0,7050.0,0.0,0.0,
2025-08-14T22:55:23.101Z,6,GR86-010-16,3.8,0.116,-0.045,99.84,4.0,,0.0,0.0,178.05
2025-08-14T22:55:23.144Z,6,GR86-010-16,3.8,0.115,-0.073,99.83,4.0,,0.0,0.0,
2025-08-14T22:55:23.187Z,6,GR86-010-16,3.8,0.119,-0.064,99.84,4.0,,0.0,0.0,
2025-08-14T22:55:23.230Z,6,GR86-010-16,3.8,0.12,-0.073,99.82,4.0,,0.0,0.0,
2025-08-14T22:55:23.273Z,6,GR86-010-16,3.8,0.121,-0.07,99.84,4.0,7052.0,0.0,0.0,
2025-08-14T22:55:23.316Z,6,GR86-010-16,3.8,0.109,-0.069,99.82,4.0,,0.0,0.0,178.93
2025-08-14T22:55:23.359Z,6,GR86-010-16,3.8,0.11,-0.105,99.84,4.0,,0.0,0.0,
2025-08-14T22:55:23.402Z,6,GR86-010-16,3.8,0.124,-0.087,99.83,4.0,,0.0,0.0,
2025-08-14T22:55:23.445Z,6,GR86-010-16,3.8,0.119,-0.084,99.84,4.0,,0.0,0.0,
2025-08-14T22:55:23.488Z,6,GR86-010-16,3.8,0.132,-0.092,99.82,4.0,7086.0,0.0,0.0,
2025-08-14T22:55:23.531Z,6,GR86-010-16,3.8,0.116,-0.095,99.83,4.0,,0.0,0.0,180.8
2025-08-14T22:55:23.617Z,6,GR86-010-16,3.8,0.124,-0.12,99.81,4.0,,0.0,0.0,
2025-08-14T22:55:23.661Z,6,GR86-010-16,3.8,0.107,-0.126,99.84,4.0,,0.0,0.0,
2025-08-14T22:55:23.703Z,6,GR86-010-16,3.8,0.102,-0.113,99.84,4.0,7160.0,0.0,0.0,
2025-08-14T22:55:23.746Z,6,GR86-010-16,3.8,0.088,-0.095,99.84,4.0,,0.0,0.0,181.54
2025-08-14T22:55:23.789Z,6,GR86-010-16,3.8,-0.126,-0.077,99.83,5.0,,0.0,0.0,
2025-08-14T22:55:23.832Z,6,GR86-010-16,3.8,0.06,-0.023,99.83,5.0,,0.0,0.0,
2025-08-14T22:55:23.875Z,6,GR86-010-16,3.8,0.174,-0.104,99.83,5.0,,0.0,0.0,
2025-08-14T22:55:23.918Z,6,GR86-010-16,3.8,0.161,-0.095,99.82,5.0,7206.0,0.0,0.0,
2025-08-14T22:55:24.047Z,6,GR86-010-16,3.8,0.081,-0.112,99.83,5.0,,0.0,0.0,182.64
2025-08-14T22:55:24.133Z,6,GR86-010-16,3.8,0.091,-0.05,99.83,5.0,6369.0,0.0,0.0,
2025-08-14T22:55:24.176Z,6,GR86-010-16,3.8,0.088,-0.046,99.81,5.0,,0.0,0.0,183.1
2025-08-14T22:55:24.222Z,6,GR86-010-16,3.8,0.081,-0.115,99.83,5.0,,0.0,0.0,
2025-08-14T22:55:24.265Z,6,GR86-010-16,3.8,0.087,-0.107,99.83,5.0,,0.0,0.0,
2025-08-14T22:55:24.308Z,6,GR86-010-16,3.8,0.091,-0.113,99.85,5.0,,0.0,0.0,
2025-08-14T22:55:24.351Z,6,GR86-010-16,3.8,0.081,-0.136,99.84,5.0,6279.0,0.0,0.0,
2025-08-14T22:55:24.394Z,6,GR86-010-16,3.8,0.096,-0.14,99.84,5.0,,0.0,0.0,183.99
2025-08-14T22:55:24.437Z,6,GR86-010-16,3.8,0.083,-0.144,99.83,5.0,,0.0,0.0,
2025-08-14T22:55:24.481Z,6,GR86-010-16,3.8,0.074,-0.121,99.81,5.0,,0.0,0.0,
2025-08-14T22:55:24.525Z,6,GR86-010-16,3.9,0.06,-0.099,99.82,5.0,,0.0,0.0,
2025-08-14T22:55:24.568Z,6,GR86-010-16,3.9,0.073,-0.094,99.84,5.0,6341.0,0.0,0.0,
2025-08-14T22:55:24.611Z,6,GR86-010-16,3.9,0.062,-0.082,99.83,5.0,,0.0,0.0,184.7
2025-08-14T22:55:24.654Z,6,GR86-010-16,4.1000000000000005,0.064,-0.065,99.84,5.0,,0.0,0.0,
2025-08-14T22:55:24.697Z,6,GR86-010-16,4.2,0.07,-0.083,99.82,5.0,,0.0,0.0,
2025-08-14T22:55:24.741Z,6,GR86-010-16,4.2,0.09,-0.075,99.84,5.0,,0.0,0.0,
2025-08-14T22:55:24.784Z,6,GR86-010-16,4.2,0.08,-0.068,99.84,5.0,6357.0,0.0,0.0,
2025-08-14T22:55:24.827Z,6,GR86-010-16,4.2,0.085,-0.035,99.83,5.0,,0.0,0.0,185.5
2025-08-14T22:55:24.870Z,6,GR86-010-16,4.2,0.087,-0.035,99.84,5.0,,0.0,0.0,
2025-08-14T22:55:24.913Z,6,GR86-010-16,4.2,0.082,-0.035,99.83,5.0,,0.0,0.0,
2025-08-14T22:55:24.956Z,6,GR86-010-16,4.2,0.084,-0.032,99.82,5.0,,0.0,0.0,
2025-08-14T22:55:24.999Z,6,GR86-010-16,4.2,0.077,-0.036,99.82,5.0,6379.0,0.0,0.0,
2025-08-14T22:55:25.042Z,6,GR86-010-16,4.2,0.086,-0.074,99.84,5.0,,0.0,0.0,186.08
2025-08-14T22:55:25.085Z,6,GR86-010-16,4.2,0.087,-0.075,99.84,5.0,,0.0,0.0,
2025-08-14T22:55:25.128Z,6,GR86-010-16,4.2,0.08,-0.07,99.82,5.0,,0.0,0.0,
2025-08-14T22:55:25.171Z,6,GR86-010-16,4.2,0.087,-0.071,99.84,5.0,,0.0,0.0,
2025-08-14T22:55:25.214Z,6,GR86-010-16,4.2,0.073,-0.086,99.82,5.0,6359.0,0.0,0.0,
2025-08-14T22:55:25.257Z,6,GR86-010-16,4.4,0.086,-0.083,99.84,5.0,,0.0,0.0,186.66
2025-08-14T22:55:25.302Z,6,GR86-010-16,4.4,0.092,-0.06,99.84,5.0,,0.0,0.0,
2025-08-14T22:55:25.345Z,6,GR86-010-16,4.4,0.072,-0.06,99.83,5.0,,0.0,0.0,
2025-08-14T22:55:25.388Z,6,GR86-010-16,4.4,0.073,-0.054,99.83,5.0,,0.0,0.0,
2025-08-14T22:55:25.431Z,6,GR86-010-16,4.4,0.06,-0.052,99.83,5.0,6421.0,0.0,0.0,
2025-08-14T22:55:25.474Z,6,GR86-010-16,4.4,0.058,-0.042,99.83,5.0,,0.0,0.0,187.26
2025-08-14T22:55:25.517Z,6,GR86-010-16,4.4,0.077,-0.044,99.83,5.0,,0.0,0.0,
2025-08-14T22:55:25.561Z,6,GR86-010-16,4.4,0.094,-0.013,99.83,5.0,,0.0,0.0,
2025-08-14T22:55:25.603Z,6,GR86-010-16,4.4,0.08,-0.024,99.84,5.0,,0.0,0.0,
2025-08-14T22:55:25.646Z,6,GR86-010-16,4.4,0.065,-0.013,99.83,5.0,6438.0,0.0,0.0,
2025-08-14T22:55:25.689Z,6,GR86-010-16,4.4,0.076,-0.017,99.83,5.0,,0.0,0.0,187.89
2025-08-14T22:55:25.732Z,6,GR86-010-16,4.4,0.071,-0.022,99.82,5.0,,0.0,0.0,
2025-08-14T22:55:25.775Z,6,GR86-010-16,4.4,0.062,-0.024,99.83,5.0,,0.0,0.0,
2025-08-14T22:55:25.818Z,6,GR86-010-16,4.4,0.085,-0.038,99.84,5.0,,0.0,0.0,
2025-08-14T22:55:25.861Z,6,GR86-010-16,4.4,0.084,-0.067,99.84,5.0,6429.0,0.0,0.0,
2025-08-14T22:55:25.904Z,6,GR86-010-16,4.4,0.084,-0.056,99.82,5.0,,0.0,0.0,188.4
2025-08-14T22:55:25.947Z,6,GR86-010-16,4.4,0.086,-0.062,99.84,5.0,,0.0,0.0,
2025-08-14T22:55:25.990Z,6,GR86-010-16,4.4,0.07,-0.056,99.83,5.0,,0.0,0.0,
2025-08-14T22:55:26.033Z,6,GR86-010-16,4.4,0.099,-0.066,99.82,5.0,,0.0,0.0,
2025-08-14T22:55:26.076Z,6,GR86-010-16,4.4,0.08,-0.061,99.85,5.0,6438.0,0.0,0.0,
2025-08-14T22:55:26.119Z,6,GR86-010-16,4.4,0.096,-0.06,99.84,5.0,,0.0,0.0,189.09
2025-08-14T22:55:26.162Z,6,GR86-010-16,4.4,0.076,-0.075,99.83,5.0,,0.0,0.0,
2025-08-14T22:55:26.205Z,6,GR86-010-16,4.4,0.071,-0.08,99.83,5.0,,0.0,0.0,
2025-08-14T22:55:26.248Z,6,GR86-010-16,4.4,0.069,-0.084,99.82,5.0,,0.0,0.0,
2025-08-14T22:55:26.291Z,6,GR86-010-16,4.5,0.076,-0.07,99.85,5.0,6501.0,0.0,0.0,
2025-08-14T22:55:26.334Z,6,GR86-010-16,4.6000000000000005,0.091,-0.064,99.84,5.0,,0.0,0.0,190.33
2025-08-14T22:55:26.377Z,6,GR86-010-16,4.7,0.079,-0.053,99.81,5.0,,0.0,0.0,
2025-08-14T22:55:26.422Z,6,GR86-010-16,4.800000000000001,0.048,-0.03,99.81,5.0,,0.0,0.0,
2025-08-14T22:55:26.465Z,6,GR86-010-16,4.800000000000001,0.056,-0.026,99.82,5.0,,0.0,0.0,
2025-08-14T22:55:26.508Z,6,GR86-010-16,4.800000000000001,0.073,-0.003,99.84,5.0,6483.0,0.0,0.0,
2025-08-14T22:55:26.551Z,6,GR86-010-16,4.800000000000001,0.061,-0.002,99.84,5.0,,0.0,0.0,190.92
2025-08-14T22:55:26.594Z,6,GR86-010-16,4.800000000000001,0.079,0.009,99.82,5.0,,0.0,0.0,
2025-08-14T22:55:26.637Z,6,GR86-010-16,4.800000000000001,0.082,0.006,99.81,5.0,,0.0,0.0,
2025-08-14T22:55:26.681Z,6,GR86-010-16,4.800000000000001,0.067,0.012,99.82,5.0,,0.0,0.0,
2025-08-14T22:55:26.725Z,6,GR86-010-16,4.800000000000001,0.062,0.018,99.83,5.0,6563.0,0.0,0.0,
2025-08-14T22:55:26.768Z,6,GR86-010-16,4.800000000000001,0.074,0.012,99.84,5.0,,0.0,0.0,191.37
2025-08-14T22:55:26.811Z,6,GR86-010-16,4.9,0.066,-0.016,99.82,5.0,,0.0,0.0,
2025-08-14T22:55:26.854Z,6,GR86-010-16,4.9,0.056,-0.043,99.82,5.0,,0.0,0.0,
2025-08-14T22:55:26.897Z,6,GR86-010-16,4.9,0.059,-0.052,99.81,5.0,,0.0,0.0,
2025-08-14T22:55:26.940Z,6,GR86-010-16,4.800000000000001,0.062,-0.03,99.83,5.0,6581.0,0.0,0.0,
2025-08-14T22:55:26.983Z,6,GR86-010-16,4.9,0.081,-0.033,99.82,5.0,,0.0,0.0,191.98
2025-08-14T22:55:27.026Z,6,GR86-010-16,4.9,0.073,-0.047,99.82,5.0,,0.0,0.0,
2025-08-14T22:55:27.071Z,6,GR86-010-16,5.0,0.062,-0.051,99.84,5.0,,0.0,0.0,
2025-08-14T22:55:27.113Z,6,GR86-010-16,5.1000000000000005,0.062,-0.052,99.84,5.0,,0.0,0.0,
2025-08-14T22:55:27.157Z,6,GR86-010-16,5.2,0.061,-0.038,99.82,5.0,6600.0,0.0,0.0,
2025-08-14T22:55:27.200Z,6,GR86-010-16,5.7,0.093,-0.015,99.84,5.0,,0.0,0.0,192.59
2025-08-14T22:55:27.243Z,6,GR86-010-16,5.800000000000001,0.093,-0.002,99.82,5.0,,0.0,0.0,
2025-08-14T22:55:27.286Z,6,GR86-010-16,5.9,0.079,-0.003,99.81,5.0,,0.0,0.0,
2025-08-14T22:55:27.329Z,6,GR86-010-16,5.9,0.074,0.02,99.83,5.0,,0.0,0.0,
2025-08-14T22:55:27.372Z,6,GR86-010-16,5.9,0.076,0.047,99.8,5.0,6613.0,0.0,0.0,
2025-08-14T22:55:27.415Z,6,GR86-010-16,6.4,0.073,0.036,99.82,5.0,,0.0,0.0,193.21
2025-08-14T22:55:27.458Z,6,GR86-010-16,6.800000000000001,0.056,0.032,99.83,5.0,,0.0,0.0,
2025-08-14T22:55:27.501Z,6,GR86-010-16,6.800000000000001,0.086,0.039,99.83,5.0,,0.0,0.0,
2025-08-14T22:55:27.544Z,6,GR86-010-16,6.800000000000001,0.079,0.062,99.81,5.0,,0.0,0.0,
2025-08-14T22:55:27.587Z,6,GR86-010-16,6.7,0.08,0.079,99.82,5.0,6640.0,0.0,0.0,
2025-08-14T22:55:27.631Z,6,GR86-010-16,6.800000000000001,0.065,0.085,99.83,5.0,,0.0,0.0,193.6
2025-08-14T22:55:27.675Z,6,GR86-010-16,6.800000000000001,0.063,0.088,99.84,5.0,,0.0,0.0,
2025-08-14T22:55:27.718Z,6,GR86-010-16,6.9,0.071,0.076,99.84,5.0,,0.0,0.0,
2025-08-14T22:55:27.762Z,6,GR86-010-16,7.0,0.08,0.082,99.81,5.0,,0.0,0.0,
2025-08-14T22:55:27.805Z,6,GR86-010-16,7.0,0.077,0.08,99.83,5.0,6617.0,0.0,0.0,
2025-08-14T22:55:27.848Z,6,GR86-010-16,7.0,0.08,0.087,99.84,5.0,,0.0,0.0,194.25
2025-08-14T22:55:27.892Z,6,GR86-010-16,7.0,0.084,0.075,99.85,5.0,,0.0,0.0,
2025-08-14T22:55:27.934Z,6,GR86-010-16,7.1000000000000005,0.061,0.082,99.83,5.0,,0.0,0.0,
2025-08-14T22:55:27.977Z,6,GR86-010-16,7.1000000000000005,0.069,0.063,99.84,5.0,,0.0,0.0,
2025-08-14T22:55:28.022Z,6,GR86-010-16,7.4,0.067,0.084,99.84,5.0,6636.0,0.0,0.0,
2025-08-14T22:55:28.065Z,6,GR86-010-16,7.800000000000001,0.068,0.083,99.83,5.0,,0.0,0.0,194.8
2025-08-14T22:55:28.108Z,6,GR86-010-16,7.9,0.094,0.097,99.83,5.0,,0.0,0.0,
2025-08-14T22:55:28.152Z,6,GR86-010-16,7.9,0.066,0.087,99.84,5.0,,0.0,0.0,
2025-08-14T22:55:28.195Z,6,GR86-010-16,7.9,0.077,0.068,99.84,5.0,,0.0,0.0,
2025-08-14T22:55:28.238Z,6,GR86-010-16,8.0,0.067,0.069,99.82,5.0,6706.0,0.0,0.0,
2025-08-14T22:55:28.282Z,6,GR86-010-16,9.4,0.068,0.083,99.81,5.0,,0.0,0.0,195.32
2025-08-14T22:55:28.325Z,6,GR86-010-16,10.1,0.075,0.107,99.81,5.0,,0.0,0.0,
2025-08-14T22:55:28.368Z,6,GR86-010-16,10.6,0.073,0.135,99.84,5.0,,0.0,0.0,
2025-08-14T22:55:28.411Z,6,GR86-010-16,11.2,0.068,0.156,99.82,5.0,,0.0,0.0,
2025-08-14T22:55:28.454Z,6,GR86-010-16,11.2,0.068,0.174,99.82,5.0,6716.0,0.0,0.0,
2025-08-14T22:55:28.497Z,6,GR86-010-16,11.2,0.063,0.158,99.83,5.0,,0.0,0.0,196.05
2025-08-14T22:55:28.540Z,6,GR86-010-16,11.2,0.078,0.179,99.84,5.0,,0.0,0.0,
2025-08-14T22:55:28.583Z,6,GR86-010-16,11.2,0.067,0.212,99.84,5.0,,0.0,0.0,
2025-08-14T22:55:28.627Z,6,GR86-010-16,11.2,0.076,0.205,99.85,5.0,,0.0,0.0,
2025-08-14T22:55:28.669Z,6,GR86-010-16,11.2,0.063,0.201,99.84,5.0,6699.0,6.425,6.745,
2025-08-14T22:55:28.712Z,6,GR86-010-16,11.2,0.018,0.18,99.84,5.0,,7.46,7.98,196.52
2025-08-14T22:55:28.755Z,6,GR86-010-16,11.2,-0.034,0.195,99.84,5.0,,6.775,7.495,
2025-08-14T22:55:28.798Z,6,GR86-010-16,11.2,-0.033,0.199,99.84,5.0,,2.795,3.525,
2025-08-14T22:55:28.842Z,6,GR86-010-16,11.2,0.056,0.228,99.82,5.0,,0.0,0.0,
2025-08-14T22:55:28.885Z,6,GR86-010-16,11.5,0.087,0.228,99.82,5.0,6743.0,0.0,0.0,
2025-08-14T22:55:28.928Z,6,GR86-010-16,12.5,0.089,0.225,99.81,5.0,,0.0,0.0,197.74
2025-08-14T22:55:28.971Z,6,GR86-010-16,12.7,0.061,0.234,99.82,5.0,,0.0,0.0,
2025-08-14T22:55:29.014Z,6,GR86-010-16,12.8,0.055,0.245,99.84,5.0,,0.0,0.0,
2025-08-14T22:55:29.057Z,6,GR86-010-16,13.1,0.074,0.249,99.82,5.0,,0.0,0.0,
2025-08-14T22:55:29.101Z,6,GR86-010-16,14.2,0.068,0.271,99.82,5.0,6730.0,0.0,0.0,
2025-08-14T22:55:29.144Z,6,GR86-010-16,15.4,0.058,0.281,99.83,5.0,,0.0,0.0,197.68
2025-08-14T22:55:29.187Z,6,GR86-010-16,16.5,0.043,0.328,99.82,5.0,,0.0,0.0,
2025-08-14T22:55:29.230Z,6,GR86-010-16,16.7,0.055,0.353,99.82,5.0,,0.0,0.0,
2025-08-14T22:55:29.273Z,6,GR86-010-16,16.7,0.061,0.364,99.82,5.0,,0.0,0.0,
2025-08-14T22:55:29.316Z,6,GR86-010-16,16.7,0.059,0.386,99.84,5.0,6787.0,0.0,0.0,
2025-08-14T22:55:29.359Z,6,GR86-010-16,16.7,0.069,0.383,99.83,5.0,,0.0,0.0,198.51
2025-08-14T22:55:29.402Z,6,GR86-010-16,16.7,0.036,0.392,99.81,5.0,,0.0,0.0,
2025-08-14T22:55:29.445Z,6,GR86-010-16,16.7,0.047,0.402,99.84,5.0,,0.0,0.0,
2025-08-14T22:55:29.488Z,6,GR86-010-16,15.8,0.057,0.439,99.82,5.0,,0.0,0.0,
2025-08-14T22:55:29.574Z,6,GR86-010-16,14.9,0.074,0.451,99.83,5.0,6775.0,0.0,0.0,198.99
2025-08-14T22:55:29.617Z,6,GR86-010-16,14.9,0.069,0.461,99.82,5.0,,0.0,0.0,
2025-08-14T22:55:29.661Z,6,GR86-010-16,14.9,0.056,0.474,99.83,5.0,,0.0,0.0,
2025-08-14T22:55:29.703Z,6,GR86-010-16,13.1,0.049,0.452,99.84,5.0,,0.0,0.0,
2025-08-14T22:55:29.746Z,6,GR86-010-16,11.3,0.086,0.377,99.81,5.0,6859.0,0.0,0.0,
2025-08-14T22:55:29.789Z,6,GR86-010-16,10.0,0.08,0.32,99.81,5.0,,0.0,0.0,199.09
2025-08-14T22:55:29.832Z,6,GR86-010-16,9.8,0.105,0.245,99.83,5.0,,0.0,0.0,
2025-08-14T22:55:29.875Z,6,GR86-010-16,9.8,0.087,0.199,99.83,5.0,,0.0,0.0,
2025-08-14T22:55:29.918Z,6,GR86-010-16,9.8,0.073,0.173,99.83,5.0,,0.0,0.0,
2025-08-14T22:55:29.961Z,6,GR86-010-16,10.4,0.054,0.116,99.83,5.0,6858.0,0.0,0.0,
2025-08-14T22:55:30.004Z,6,GR86-010-16,11.2,0.076,0.108,99.84,5.0,,0.0,0.0,199.82
2025-08-14T22:55:30.047Z,6,GR86-010-16,11.2,0.086,0.091,99.83,5.0,,0.0,0.0,
2025-08-14T22:55:30.090Z,6,GR86-010-16,11.3,0.058,0.07,99.82,5.0,,0.0,0.0,
2025-08-14T22:55:30.133Z,6,GR86-010-16,11.3,0.067,0.085,99.83,5.0,,0.0,0.0,
2025-08-14T22:55:30.176Z,6,GR86-010-16,11.4,0.035,0.096,99.82,5.0,6863.0,0.0,0.0,
2025-08-14T22:55:30.219Z,6,GR86-010-16,11.4,0.039,0.111,99.8,5.0,,0.0,0.0,200.56
2025-08-14T22:55:30.262Z,6,GR86-010-16,11.5,0.047,0.146,99.84,5.0,,0.0,0.0,
2025-08-14T22:55:30.305Z,6,GR86-010-16,11.5,0.05,0.161,99.81,5.0,,0.0,0.0,
2025-08-14T22:55:30.348Z,6,GR86-010-16,11.5,0.04,0.185,99.82,5.0,,0.0,0.0,
2025-08-14T22:55:30.391Z,6,GR86-010-16,11.5,0.054,0.191,99.83,5.0,6842.0,0.0,0.0,
2025-08-14T22:55:30.434Z,6,GR86-010-16,11.5,0.039,0.207,99.81,5.0,,4.53,4.87,200.89
2025-08-14T22:55:30.477Z,6,GR86-010-16,11.7,0.02,0.215,99.81,5.0,,8.455,8.700000000000001,
2025-08-14T22:55:30.522Z,6,GR86-010-16,11.7,-0.115,0.27,44.07,5.0,,17.61,17.655,
2025-08-14T22:55:30.565Z,6,GR86-010-16,11.7,-0.253,0.248,4.3500000000000005,5.0,,30.215,30.155,
2025-08-14T22:55:30.608Z,6,GR86-010-16,11.7,-0.532,0.233,5.13,5.0,6877.0,43.89,43.49,
2025-08-14T22:55:30.651Z,6,GR86-010-16,9.6,-0.898,0.213,4.78,5.0,,50.16,49.795,201.17
2025-08-14T22:55:30.694Z,6,GR86-010-16,6.1000000000000005,-0.833,0.216,29.09,5.0,,45.095,46.175,
2025-08-14T22:55:30.737Z,6,GR86-010-16,5.800000000000001,-0.6890000000000001,0.126,32.17,5.0,,30.675,32.275,
2025-08-14T22:55:30.781Z,6,GR86-010-16,5.800000000000001,-0.634,0.182,20.54,5.0,,23.895,24.795,
2025-08-14T22:55:30.825Z,6,GR86-010-16,5.800000000000001,-0.5740000000000001,0.086,4.41,5.0,6908.0,30.245,30.46,
2025-08-14T22:55:30.868Z,6,GR86-010-16,5.800000000000001,-0.394,0.104,4.09,5.0,,35.92,36.18,201.81
2025-08-14T22:55:30.911Z,6,GR86-010-16,6.7,-0.8300000000000001,0.129,3.96,5.0,,38.18,38.655,
2025-08-14T22:55:30.954Z,6,GR86-010-16,6.7,-0.783,0.084,3.75,5.0,,37.495,38.285,
2025-08-14T22:55:30.997Z,6,GR86-010-16,6.7,-0.844,0.047,3.42,5.0,,36.7,37.585,
2025-08-14T22:55:31.041Z,6,GR86-010-16,7.5,-0.8250000000000001,0.063,3.04,5.0,6322.0,46.68,46.65,
2025-08-14T22:55:31.084Z,6,GR86-010-16,9.7,-0.989,0.046,2.87,5.0,,51.535,51.395,198.34
2025-08-14T22:55:31.127Z,6,GR86-010-16,10.1,-1.008,0.072,2.87,5.0,,48.74,49.93,
2025-08-14T22:55:31.170Z,6,GR86-010-16,10.1,-0.909,0.082,17.21,5.0,,38.5,40.24,
2025-08-14T22:55:31.213Z,6,GR86-010-16,10.2,-0.733,0.065,29.03,5.0,,28.095,29.56,
2025-08-14T22:55:31.256Z,6,GR86-010-16,10.2,-0.618,0.091,23.11,5.0,6300.0,22.02,22.965,
2025-08-14T22:55:31.299Z,6,GR86-010-16,10.2,-0.48,0.057,3.11,5.0,,21.745,22.43,194.58
2025-08-14T22:55:31.342Z,6,GR86-010-16,10.2,-0.596,0.062,2.95,5.0,,27.59,28.0,
2025-08-14T22:55:31.385Z,6,GR86-010-16,10.2,-0.5750000000000001,0.092,27.78,5.0,,28.615,29.3,
2025-08-14T22:55:31.428Z,6,GR86-010-16,10.2,-0.633,0.076,61.61,4.0,,24.525,25.605,
2025-08-14T22:55:31.514Z,6,GR86-010-16,8.8,-0.723,0.061,31.26,4.0,6016.0,21.41,22.37,188.41
2025-08-14T22:55:31.557Z,6,GR86-010-16,7.800000000000001,-0.744,0.073,18.01,4.0,,27.805,28.46,
2025-08-14T22:55:31.602Z,6,GR86-010-16,8.5,-0.495,0.106,4.38,4.0,,19.455,20.115,
2025-08-14T22:55:31.688Z,6,GR86-010-16,8.5,-0.253,0.113,4.09,4.0,6241.0,4.24,4.96,
2025-08-14T22:55:31.731Z,6,GR86-010-16,8.5,-0.195,0.113,3.8,4.0,,3.725,4.305,179.72
2025-08-14T22:55:31.774Z,6,GR86-010-16,8.5,-0.383,0.132,3.35,4.0,,12.39,12.835,
2025-08-14T22:55:31.817Z,6,GR86-010-16,8.5,-0.545,0.08,3.25,4.0,,23.59,23.56,
2025-08-14T22:55:31.861Z,6,GR86-010-16,8.8,-0.799,0.112,2.86,4.0,,49.73,49.275,
2025-08-14T22:55:31.946Z,6,GR86-010-16,8.8,-1.028,0.135,2.79,4.0,6374.0,62.995000000000005,62.185,175.76
2025-08-14T22:55:31.989Z,6,GR86-010-16,8.8,-1.022,0.118,2.69,4.0,,59.24,60.735,
2025-08-14T22:55:32.032Z,6,GR86-010-16,8.0,-0.969,0.128,2.75,4.0,,41.705,43.4,
2025-08-14T22:55:32.075Z,6,GR86-010-16,8.0,-0.6890000000000001,0.004,2.67,4.0,,27.745,29.21,
2025-08-14T22:55:32.119Z,6,GR86-010-16,8.0,-0.768,0.056,2.66,4.0,6657.0,21.305,22.37,
