timestamp,lap,vehicle_id,steering_angle,accx_can,accy_can,ath,gear,nmot,pbrake_f,pbrake_r,speed
2025-08-14T23:12:20.001Z,5,GR86-051-71,3.8,-0.389,-0.029,99.75,4.0,,0.0,0.0,
2025-08-14T23:12:20.044Z,5,GR86-051-71,3.8,-0.355,-0.04,99.75,4.0,,0.0,0.0,
2025-08-14T23:12:20.087Z,5,GR86-051-71,3.8,-0.337,-0.019,99.75,4.0,,0.0,0.0,
2025-08-14T23:12:20.130Z,5,GR86-051-71,3.8,-0.329,-0.009,99.77,4.0,6941.0,0.0,0.0,
2025-08-14T23:12:20.174Z,5,GR86-051-71,3.8,-0.376,0.009,99.75,4.0,,0.0,0.0,175.86
2025-08-14T23:12:20.216Z,5,GR86-051-71,3.8,-0.4,-0.033,99.74,4.0,,0.0,0.0,
2025-08-14T23:12:20.259Z,5,GR86-051-71,3.8,-0.405,-0.013,99.75,4.0,,0.0,0.0,
2025-08-14T23:12:20.302Z,5,GR86-051-71,3.8,-0.377,-0.029,99.74,4.0,,0.0,0.0,
2025-08-14T23:12:20.345Z,5,GR86-051-71,3.7,-0.356,-0.017,99.72,4.0,6978.0,0.0,0.0,
2025-08-14T23:12:20.388Z,5,GR86-051-71,3.8,-0.361,-0.027,99.74,4.0,,0.0,0.0,176.69
2025-08-14T23:12:20.431Z,5,GR86-051-71,3.8,-0.354,-0.02,99.75,4.0,,0.0,0.0,
2025-08-14T23:12:20.475Z,5,GR86-051-71,3.8,-0.361,-0.01,99.75,4.0,,0.0,0.0,
2025-08-14T23:12:20.517Z,5,GR86-051-71,3.8,-0.37,0.01,99.75,4.0,,0.0,0.0,
2025-08-14T23:12:20.560Z,5,GR86-051-71,3.8,-0.385,0.018,99.75,4.0,7015.0,0.0,0.0,
2025-08-14T23:12:20.603Z,5,GR86-051-71,3.8,-0.371,0.004,99.72,4.0,,0.0,0.0,177.44
2025-08-14T23:12:20.646Z,5,GR86-051-71,3.8,-0.36,-0.002,99.74,4.0,,0.0,0.0,
2025-08-14T23:12:20.690Z,5,GR86-051-71,3.8,-0.358,-0.023,99.74,4.0,,0.0,0.0,
2025-08-14T23:12:20.732Z,5,GR86-051-71,3.8,-0.371,-0.028,99.74,4.0,,0.0,0.0,
2025-08-14T23:12:20.775Z,5,GR86-051-71,3.8,-0.366,-0.026,99.76,4.0,7057.0,0.0,0.0,
2025-08-14T23:12:20.818Z,5,GR86-051-71,3.8,-0.337,-0.045,99.74,4.0,,0.0,0.0,178.09
2025-08-14T23:12:20.861Z,5,GR86-051-71,3.8,-0.093,-0.051,99.74,5.0,,0.0,0.0,
2025-08-14T23:12:20.905Z,5,GR86-051-71,3.8,-0.446,-0.073,99.75,5.0,,0.0,0.0,
2025-08-14T23:12:20.947Z,5,GR86-051-71,3.8,-0.46,0.015,99.75,5.0,,0.0,0.0,
2025-08-14T23:12:20.990Z,5,GR86-051-71,3.8,-0.301,-0.023,99.75,5.0,7082.0,0.0,0.0,
2025-08-14T23:12:21.034Z,5,GR86-051-71,3.8,-0.362,-0.038,99.77,5.0,,0.0,0.0,178.81
2025-08-14T23:12:21.076Z,5,GR86-051-71,3.8,-0.405,0.019,99.75,5.0,,0.0,0.0,
2025-08-14T23:12:21.119Z,5,GR86-051-71,3.8,-0.381,-0.095,99.75,5.0,,0.0,0.0,
2025-08-14T23:12:21.162Z,5,GR86-051-71,3.8,-0.363,-0.031,99.77,5.0,,0.0,0.0,
2025-08-14T23:12:21.205Z,5,GR86-051-71,3.8,-0.355,-0.005,99.76,5.0,6205.0,0.0,0.0,
2025-08-14T23:12:21.248Z,5,GR86-051-71,3.8,-0.378,-0.054,99.76,5.0,,0.0,0.0,179.46
2025-08-14T23:12:21.291Z,5,GR86-051-71,3.8,-0.375,-0.033,99.74,5.0,,0.0,0.0,
2025-08-14T23:12:21.335Z,5,GR86-051-71,3.8,-0.34,-0.04,99.75,5.0,,0.0,0.0,
2025-08-14T23:12:21.377Z,5,GR86-051-71,3.8,-0.337,-0.047,99.74,5.0,,0.0,0.0,
2025-08-14T23:12:21.420Z,5,GR86-051-71,3.8,-0.316,-0.019,99.73,5.0,6171.0,0.0,0.0,
2025-08-14T23:12:21.464Z,5,GR86-051-71,3.8,-0.344,-0.054,99.74,5.0,,0.0,0.0,180.24
2025-08-14T23:12:21.509Z,5,GR86-051-71,3.8,-0.333,-0.053,99.76,5.0,,0.0,0.0,
2025-08-14T23:12:21.552Z,5,GR86-051-71,3.8,-0.359,-0.023,99.75,5.0,,0.0,0.0,
2025-08-14T23:12:21.595Z,5,GR86-051-71,3.8,-0.344,-0.048,99.73,5.0,,0.0,0.0,
2025-08-14T23:12:21.638Z,5,GR86-051-71,3.8,-0.358,-0.036,99.75,5.0,6198.0,0.0,0.0,
2025-08-14T23:12:21.681Z,5,GR86-051-71,3.8,-0.366,-0.057,99.74,5.0,,0.0,0.0,180.91
2025-08-14T23:12:21.724Z,5,GR86-051-71,3.8,-0.348,-0.046,99.74,5.0,,0.0,0.0,
2025-08-14T23:12:21.768Z,5,GR86-051-71,3.8,-0.342,-0.029,99.74,5.0,,0.0,0.0,
2025-08-14T23:12:21.810Z,5,GR86-051-71,3.8,-0.376,-0.021,99.72,5.0,,0.0,0.0,
2025-08-14T23:12:21.855Z,5,GR86-051-71,3.8,-0.362,-0.026,99.75,5.0,6226.0,0.0,0.0,
2025-08-14T23:12:21.898Z,5,GR86-051-71,3.8,-0.378,-0.012,99.73,5.0,,0.0,0.0,181.44
2025-08-14T23:12:21.941Z,5,GR86-051-71,3.8,-0.376,-0.045,99.73,5.0,,0.0,0.0,
2025-08-14T23:12:21.985Z,5,GR86-051-71,3.8,-0.326,0.0,99.76,5.0,,0.0,0.0,
2025-08-14T23:12:22.028Z,5,GR86-051-71,3.8,-0.296,0.006,99.75,5.0,,0.0,0.0,
2025-08-14T23:12:22.071Z,5,GR86-051-71,3.8,-0.301,0.022,99.75,5.0,6245.0,0.0,0.0,
2025-08-14T23:12:22.115Z,5,GR86-051-71,3.8,-0.361,0.05,99.77,5.0,,0.0,0.0,182.21
2025-08-14T23:12:22.158Z,5,GR86-051-71,3.8,-0.372,0.023,99.75,5.0,,0.0,0.0,
2025-08-14T23:12:22.201Z,5,GR86-051-71,3.8,-0.336,0.041,99.74,5.0,,0.0,0.0,
2025-08-14T23:12:22.244Z,5,GR86-051-71,3.8,-0.329,0.054,99.72,5.0,,0.0,0.0,
2025-08-14T23:12:22.287Z,5,GR86-051-71,3.8,-0.35,0.059,99.75,5.0,6262.0,0.0,0.0,
2025-08-14T23:12:22.330Z,5,GR86-051-71,3.8,-0.366,0.06,99.73,5.0,,0.0,0.0,182.92
2025-08-14T23:12:22.374Z,5,GR86-051-71,3.8,-0.328,0.049,99.74,5.0,,0.0,0.0,
2025-08-14T23:12:22.416Z,5,GR86-051-71,3.8,-0.336,0.054,99.75,5.0,,0.0,0.0,
2025-08-14T23:12:22.459Z,5,GR86-051-71,3.8,-0.324,0.076,99.74,5.0,,0.0,0.0,
2025-08-14T23:12:22.503Z,5,GR86-051-71,3.8,-0.313,0.06,99.75,5.0,6307.0,0.0,0.0,
2025-08-14T23:12:22.545Z,5,GR86-051-71,3.8,-0.319,0.062,99.73,5.0,,0.0,0.0,183.23
2025-08-14T23:12:22.589Z,5,GR86-051-71,3.8,-0.322,0.032,99.73,5.0,,0.0,0.0,
2025-08-14T23:12:22.632Z,5,GR86-051-71,3.8,-0.322,0.043,99.74,5.0,,0.0,0.0,
2025-08-14T23:12:22.675Z,5,GR86-051-71,3.8,-0.382,0.056,99.74,5.0,,0.0,0.0,
2025-08-14T23:12:22.718Z,5,GR86-051-71,3.8,-0.385,0.067,99.75,5.0,6305.0,0.0,0.0,
2025-08-14T23:12:22.761Z,5,GR86-051-71,3.8,-0.356,0.03,99.75,5.0,,0.0,0.0,184.68
2025-08-14T23:12:22.804Z,5,GR86-051-71,3.8,-0.366,0.048,99.73,5.0,,0.0,0.0,
2025-08-14T23:12:22.847Z,5,GR86-051-71,3.8,-0.368,0.044,99.76,5.0,,0.0,0.0,
2025-08-14T23:12:22.890Z,5,GR86-051-71,3.8,-0.364,0.038,99.75,5.0,,0.0,0.0,
2025-08-14T23:12:22.934Z,5,GR86-051-71,3.8,-0.335,-0.031,99.73,5.0,6334.0,0.0,0.0,
2025-08-14T23:12:22.976Z,5,GR86-051-71,3.8,-0.316,-0.043,99.75,5.0,,0.0,0.0,185.39
2025-08-14T23:12:23.019Z,5,GR86-051-71,3.8,-0.327,-0.021,99.73,5.0,,0.0,0.0,
2025-08-14T23:12:23.062Z,5,GR86-051-71,3.8,-0.325,-0.03,99.74,5.0,,0.0,0.0,
2025-08-14T23:12:23.105Z,5,GR86-051-71,3.8,-0.365,-0.024,99.75,5.0,,0.0,0.0,
2025-08-14T23:12:23.148Z,5,GR86-051-71,3.8,-0.389,-0.053,99.75,5.0,6349.0,0.0,0.0,
2025-08-14T23:12:23.191Z,5,GR86-051-71,3.8,-0.382,-0.064,99.74,5.0,,0.0,0.0,186.09
2025-08-14T23:12:23.235Z,5,GR86-051-71,3.8,-0.326,-0.081,99.73,5.0,,0.0,0.0,
2025-08-14T23:12:23.278Z,5,GR86-051-71,3.8,-0.333,-0.072,99.73,5.0,,0.0,0.0,
2025-08-14T23:12:23.321Z,5,GR86-051-71,3.8,-0.298,-0.083,99.74,5.0,,0.0,0.0,
2025-08-14T23:12:23.365Z,5,GR86-051-71,3.8,-0.29,-0.069,99.75,5.0,6398.0,0.0,0.0,
2025-08-14T23:12:23.407Z,5,GR86-051-71,3.8,-0.292,-0.088,99.72,5.0,,0.0,0.0,186.72
2025-08-14T23:12:23.450Z,5,GR86-051-71,3.8,-0.327,-0.094,99.75,5.0,,0.0,0.0,
2025-08-14T23:12:23.494Z,5,GR86-051-71,3.8,-0.32,-0.091,99.74,5.0,,0.0,0.0,
2025-08-14T23:12:23.536Z,5,GR86-051-71,3.8,-0.311,-0.068,99.72,5.0,,0.0,0.0,
2025-08-14T23:12:23.579Z,5,GR86-051-71,3.8,-0.328,-0.067,99.74,5.0,6415.0,0.0,0.0,
2025-08-14T23:12:23.622Z,5,GR86-051-71,3.8,-0.293,-0.068,99.74,5.0,,0.0,0.0,187.37
2025-08-14T23:12:23.665Z,5,GR86-051-71,3.8,-0.276,-0.045,99.73,5.0,,0.0,0.0,
2025-08-14T23:12:23.709Z,5,GR86-051-71,3.8,-0.317,-0.019,99.75,5.0,,0.0,0.0,
2025-08-14T23:12:23.752Z,5,GR86-051-71,3.7,-0.349,-0.05,99.74,5.0,,0.0,0.0,
2025-08-14T23:12:23.795Z,5,GR86-051-71,3.3000000000000003,-0.357,-0.019,99.73,5.0,6447.0,0.0,0.0,
2025-08-14T23:12:23.838Z,5,GR86-051-71,3.0,-0.325,-0.053,99.74,5.0,,0.0,0.0,187.87
2025-08-14T23:12:23.881Z,5,GR86-051-71,3.0,-0.336,0.005,99.74,5.0,,0.0,0.0,
2025-08-14T23:12:23.924Z,5,GR86-051-71,3.0,-0.356,0.038,99.74,5.0,,0.0,0.0,
2025-08-14T23:12:23.967Z,5,GR86-051-71,3.0,-0.343,0.038,99.76,5.0,,0.0,0.0,
2025-08-14T23:12:24.010Z,5,GR86-051-71,2.9000000000000004,-0.341,0.048,99.75,5.0,6476.0,0.0,0.0,
2025-08-14T23:12:24.055Z,5,GR86-051-71,2.8000000000000003,-0.332,0.054,99.74,5.0,,0.0,0.0,188.39
2025-08-14T23:12:24.098Z,5,GR86-051-71,2.8000000000000003,-0.319,0.091,99.72,5.0,,0.0,0.0,
2025-08-14T23:12:24.141Z,5,GR86-051-71,2.8000000000000003,-0.333,0.101,99.73,5.0,,0.0,0.0,
2025-08-14T23:12:24.184Z,5,GR86-051-71,2.8000000000000003,-0.344,0.105,99.75,5.0,,0.0,0.0,
2025-08-14T23:12:24.227Z,5,GR86-051-71,2.9000000000000004,-0.349,0.109,99.75,5.0,6479.0,0.0,0.0,
2025-08-14T23:12:24.270Z,5,GR86-051-71,2.8000000000000003,-0.345,0.127,99.73,5.0,,0.0,0.0,189.2
2025-08-14T23:12:24.314Z,5,GR86-051-71,2.8000000000000003,-0.323,0.118,99.73,5.0,,0.0,0.0,
2025-08-14T23:12:24.358Z,5,GR86-051-71,2.8000000000000003,-0.314,0.126,99.73,5.0,,0.0,0.0,
2025-08-14T23:12:24.401Z,5,GR86-051-71,2.8000000000000003,-0.344,0.113,99.75,5.0,,0.0,0.0,
2025-08-14T23:12:24.444Z,5,GR86-051-71,2.8000000000000003,-0.372,0.104,99.74,5.0,6505.0,0.0,0.0,
2025-08-14T23:12:24.487Z,5,GR86-051-71,2.8000000000000003,-0.365,0.105,99.74,5.0,,0.0,0.0,189.82
2025-08-14T23:12:24.530Z,5,GR86-051-71,2.8000000000000003,-0.351,0.079,99.75,5.0,,0.0,0.0,
2025-08-14T23:12:24.574Z,5,GR86-051-71,2.8000000000000003,-0.323,0.05,99.75,5.0,,0.0,0.0,
2025-08-14T23:12:24.618Z,5,GR86-051-71,2.8000000000000003,-0.343,0.055,99.72,5.0,,0.0,0.0,
2025-08-14T23:12:24.660Z,5,GR86-051-71,2.8000000000000003,-0.339,0.039,99.73,5.0,6518.0,0.0,0.0,
2025-08-14T23:12:24.704Z,5,GR86-051-71,2.8000000000000003,-0.349,0.01,99.73,5.0,,0.0,0.0,190.55
2025-08-14T23:12:24.746Z,5,GR86-051-71,2.8000000000000003,-0.367,0.031,99.75,5.0,,0.0,0.0,
2025-08-14T23:12:24.789Z,5,GR86-051-71,2.8000000000000003,-0.373,-0.001,99.74,5.0,,0.0,0.0,
2025-08-14T23:12:24.832Z,5,GR86-051-71,2.8000000000000003,-0.344,0.007,99.73,5.0,,0.0,0.0,
2025-08-14T23:12:24.875Z,5,GR86-051-71,2.8000000000000003,-0.361,0.006,99.75,5.0,6541.0,0.0,0.0,
2025-08-14T23:12:24.918Z,5,GR86-051-71,2.8000000000000003,-0.366,0.009,99.73,5.0,,0.0,0.0,191.3
2025-08-14T23:12:24.961Z,5,GR86-051-71,2.8000000000000003,-0.364,-0.002,99.72,5.0,,0.0,0.0,
2025-08-14T23:12:25.005Z,5,GR86-051-71,2.8000000000000003,-0.355,-0.017,99.75,5.0,,0.0,0.0,
2025-08-14T23:12:25.047Z,5,GR86-051-71,2.8000000000000003,-0.357,-0.017,99.76,5.0,,0.0,0.0,
2025-08-14T23:12:25.090Z,5,GR86-051-71,2.8000000000000003,-0.344,-0.023,99.74,5.0,6585.0,0.0,0.0,
2025-08-14T23:12:25.135Z,5,GR86-051-71,2.9000000000000004,-0.366,-0.044,99.74,5.0,,0.0,0.0,191.87
2025-08-14T23:12:25.178Z,5,GR86-051-71,2.9000000000000004,-0.364,-0.038,99.74,5.0,,0.0,0.0,
2025-08-14T23:12:25.221Z,5,GR86-051-71,3.3000000000000003,-0.379,-0.05,99.73,5.0,,0.0,0.0,
2025-08-14T23:12:25.265Z,5,GR86-051-71,3.4000000000000004,-0.391,-0.051,99.74,5.0,,0.0,0.0,
2025-08-14T23:12:25.307Z,5,GR86-051-71,3.4000000000000004,-0.391,-0.059,99.72,5.0,6603.0,0.0,0.0,
2025-08-14T23:12:25.350Z,5,GR86-051-71,3.4000000000000004,-0.353,-0.047,99.74,5.0,,0.0,0.0,192.72
2025-08-14T23:12:25.394Z,5,GR86-051-71,3.4000000000000004,-0.333,-0.06,99.72,5.0,,0.0,0.0,
2025-08-14T23:12:25.437Z,5,GR86-051-71,3.4000000000000004,-0.355,-0.094,99.74,5.0,,0.0,0.0,
2025-08-14T23:12:25.480Z,5,GR86-051-71,3.4000000000000004,-0.374,-0.086,99.72,5.0,,0.0,0.0,
2025-08-14T23:12:25.523Z,5,GR86-051-71,3.4000000000000004,-0.375,-0.078,99.73,5.0,6622.0,0.0,0.0,
2025-08-14T23:12:25.566Z,5,GR86-051-71,3.4000000000000004,-0.353,-0.093,99.73,5.0,,0.0,0.0,194.25
2025-08-14T23:12:25.609Z,5,GR86-051-71,3.5,-0.334,-0.104,99.73,5.0,,0.0,0.0,
2025-08-14T23:12:25.652Z,5,GR86-051-71,3.6,-0.329,-0.127,99.74,5.0,,0.0,0.0,
2025-08-14T23:12:25.695Z,5,GR86-051-71,3.6,-0.38,-0.13,99.74,5.0,,0.0,0.0,
2025-08-14T23:12:25.738Z,5,GR86-051-71,3.6,-0.371,-0.127,99.73,5.0,6635.0,0.0,0.0,
2025-08-14T23:12:25.781Z,5,GR86-051-71,3.6,-0.346,-0.137,99.74,5.0,,0.0,0.0,194.81
2025-08-14T23:12:25.825Z,5,GR86-051-71,3.6,-0.352,-0.141,99.73,5.0,,0.0,0.0,
2025-08-14T23:12:25.867Z,5,GR86-051-71,3.6,-0.368,-0.17,99.74,5.0,,0.0,0.0,
2025-08-14T23:12:25.910Z,5,GR86-051-71,3.6,-0.37,-0.151,99.75,5.0,,0.0,0.0,
2025-08-14T23:12:25.955Z,5,GR86-051-71,3.6,-0.366,-0.156,99.75,5.0,6679.0,0.0,0.0,
2025-08-14T23:12:25.998Z,5,GR86-051-71,3.6,-0.344,-0.12,99.73,5.0,,0.0,0.0,195.41
2025-08-14T23:12:26.041Z,5,GR86-051-71,3.6,-0.337,-0.137,99.74,5.0,,0.0,0.0,
2025-08-14T23:12:26.084Z,5,GR86-051-71,3.6,-0.343,-0.13,99.74,5.0,,0.0,0.0,
2025-08-14T23:12:26.127Z,5,GR86-051-71,3.6,-0.372,-0.112,99.75,5.0,,0.0,0.0,
2025-08-14T23:12:26.170Z,5,GR86-051-71,3.5,-0.37,-0.07,99.74,5.0,6702.0,0.0,0.0,
2025-08-14T23:12:26.214Z,5,GR86-051-71,3.3000000000000003,-0.36,-0.064,99.72,5.0,,0.0,0.0,196.12
2025-08-14T23:12:26.257Z,5,GR86-051-71,3.0,-0.329,-0.031,99.73,5.0,,0.0,0.0,
2025-08-14T23:12:26.300Z,5,GR86-051-71,2.3000000000000003,-0.322,-0.002,99.73,5.0,,0.0,0.0,
2025-08-14T23:12:26.344Z,5,GR86-051-71,1.1,-0.357,0.027,99.72,5.0,,0.0,0.0,
2025-08-14T23:12:26.386Z,5,GR86-051-71,-0.2,-0.355,0.056,99.73,5.0,6724.0,0.0,0.0,
2025-08-14T23:12:26.429Z,5,GR86-051-71,-0.8,-0.338,0.08,99.73,5.0,,0.0,0.0,196.58
2025-08-14T23:12:26.472Z,5,GR86-051-71,-0.9,-0.324,0.12,99.73,5.0,,0.0,0.0,
2025-08-14T23:12:26.515Z,5,GR86-051-71,-0.9,-0.393,0.189,99.74,5.0,,0.0,0.0,
2025-08-14T23:12:26.558Z,5,GR86-051-71,-0.9,-0.361,0.178,99.74,5.0,,0.0,0.0,
2025-08-14T23:12:26.601Z,5,GR86-051-71,-0.9,-0.322,0.221,99.75,5.0,6747.0,0.0,0.0,
2025-08-14T23:12:26.644Z,5,GR86-051-71,-0.9,-0.31,0.218,99.73,5.0,,0.0,0.0,197.08
2025-08-14T23:12:26.687Z,5,GR86-051-71,-0.9,-0.3,0.21,99.74,5.0,,0.0,0.0,
2025-08-14T23:12:26.730Z,5,GR86-051-71,-0.9,-0.31,0.223,99.73,5.0,,0.0,0.0,
2025-08-14T23:12:26.774Z,5,GR86-051-71,-0.9,-0.315,0.234,99.75,5.0,,0.0,0.0,
2025-08-14T23:12:26.816Z,5,GR86-051-71,-0.9,-0.353,0.237,99.73,5.0,6758.0,0.0,0.0,
2025-08-14T23:12:26.859Z,5,GR86-051-71,-0.9,-0.384,0.253,99.74,5.0,,0.0,0.0,197.65
2025-08-14T23:12:26.902Z,5,GR86-051-71,0.1,-0.386,0.234,99.74,5.0,,0.0,0.0,
2025-08-14T23:12:26.945Z,5,GR86-051-71,0.3,-0.36,0.232,99.75,5.0,,0.0,0.0,
2025-08-14T23:12:26.988Z,5,GR86-051-71,0.3,-0.317,0.153,99.75,5.0,,0.0,0.0,
2025-08-14T23:12:27.031Z,5,GR86-051-71,0.3,-0.281,0.1,99.73,5.0,6788.0,0.0,0.0,
2025-08-14T23:12:27.075Z,5,GR86-051-71,0.3,-0.303,0.072,99.73,5.0,,0.0,0.0,198.05
2025-08-14T23:12:27.117Z,5,GR86-051-71,0.3,-0.324,0.036,99.74,5.0,,0.0,0.0,
2025-08-14T23:12:27.160Z,5,GR86-051-71,0.3,-0.327,0.027,99.74,5.0,,0.0,0.0,
2025-08-14T23:12:27.203Z,5,GR86-051-71,0.3,-0.328,0.01,99.75,5.0,,0.0,0.0,
2025-08-14T23:12:27.246Z,5,GR86-051-71,0.3,-0.297,-0.02,99.73,5.0,6791.0,0.0,0.0,
2025-08-14T23:12:27.290Z,5,GR86-051-71,0.3,-0.323,-0.007,99.73,5.0,,0.0,0.0,198.84
2025-08-14T23:12:27.334Z,5,GR86-051-71,0.3,-0.33,-0.041,99.74,5.0,,0.0,0.0,
2025-08-14T23:12:27.376Z,5,GR86-051-71,0.3,-0.322,-0.005,99.75,5.0,,0.0,0.0,
2025-08-14T23:12:27.420Z,5,GR86-051-71,0.3,-0.302,-0.01,99.73,5.0,,0.0,0.0,
2025-08-14T23:12:27.464Z,5,GR86-051-71,0.3,-0.309,-0.002,99.73,5.0,6843.0,0.0,0.0,
2025-08-14T23:12:27.508Z,5,GR86-051-71,0.3,-0.306,0.01,99.72,5.0,,4.09,4.275,198.98
2025-08-14T23:12:27.552Z,5,GR86-051-71,-1.7000000000000002,-0.26,0.018,99.73,5.0,,9.78,9.935,
2025-08-14T23:12:27.595Z,5,GR86-051-71,-3.0,-0.123,0.09,99.73,5.0,,12.42,12.65,
2025-08-14T23:12:27.681Z,5,GR86-051-71,-3.0,-0.1,0.109,99.75,5.0,6833.0,7.8,8.395,
2025-08-14T23:12:27.724Z,5,GR86-051-71,-2.3000000000000003,-0.3,0.133,99.73,5.0,,0.0,0.0,199.64
2025-08-14T23:12:27.768Z,5,GR86-051-71,-2.3000000000000003,-0.337,0.153,99.72,5.0,,0.0,0.0,
2025-08-14T23:12:27.811Z,5,GR86-051-71,-2.3000000000000003,-0.336,0.197,99.74,5.0,,0.0,0.0,
2025-08-14T23:12:27.855Z,5,GR86-051-71,-2.1,-0.308,0.181,99.73,5.0,,0.0,0.0,
2025-08-14T23:12:27.898Z,5,GR86-051-71,-1.9,-0.317,0.147,99.72,5.0,6845.0,0.0,0.0,
2025-08-14T23:12:27.941Z,5,GR86-051-71,-1.6,-0.342,0.154,99.75,5.0,,0.0,0.0,200.2
2025-08-14T23:12:27.985Z,5,GR86-051-71,-0.4,-0.319,0.117,99.73,5.0,,0.0,0.0,
2025-08-14T23:12:28.028Z,5,GR86-051-71,0.8,-0.292,0.115,99.74,5.0,,0.0,0.0,
2025-08-14T23:12:28.071Z,5,GR86-051-71,1.3,-0.295,0.08,99.74,5.0,,0.0,0.0,
2025-08-14T23:12:28.115Z,5,GR86-051-71,1.6,-0.332,0.026,99.72,5.0,6844.0,4.24,4.655,
2025-08-14T23:12:28.158Z,5,GR86-051-71,1.9,-0.327,0.031,99.74,5.0,,14.88,15.0,200.27
2025-08-14T23:12:28.201Z,5,GR86-051-71,1.9,-0.131,0.0,99.73,5.0,,24.83,24.615,
2025-08-14T23:12:28.245Z,5,GR86-051-71,2.1,0.1,-0.017,62.4,5.0,,34.49,34.18,
2025-08-14T23:12:28.287Z,5,GR86-051-71,2.7,0.304,-0.02,35.03,5.0,,42.925,42.39,
2025-08-14T23:12:28.330Z,5,GR86-051-71,3.2,0.401,-0.04,31.45,5.0,6845.0,48.8,48.175,
2025-08-14T23:12:28.374Z,5,GR86-051-71,3.3000000000000003,0.538,-0.064,14.66,5.0,,51.275,51.09,200.66
2025-08-14T23:12:28.416Z,5,GR86-051-71,3.3000000000000003,0.561,-0.054,6.38,5.0,,50.875,50.905,
2025-08-14T23:12:28.459Z,5,GR86-051-71,3.3000000000000003,0.591,-0.082,6.4,5.0,,49.015,49.795,
2025-08-14T23:12:28.505Z,5,GR86-051-71,3.3000000000000003,0.582,-0.071,5.98,5.0,,45.245,46.865,
2025-08-14T23:12:28.548Z,5,GR86-051-71,3.3000000000000003,0.588,-0.073,5.25,5.0,6868.0,41.645,43.43,
2025-08-14T23:12:28.591Z,5,GR86-051-71,3.3000000000000003,0.546,-0.086,3.77,5.0,,38.41,40.21,197.03
2025-08-14T23:12:28.635Z,5,GR86-051-71,3.3000000000000003,0.545,-0.127,3.29,5.0,,33.71,35.145,
2025-08-14T23:12:28.678Z,5,GR86-051-71,5.1000000000000005,0.448,-0.136,2.93,5.0,,33.1,34.275,
2025-08-14T23:12:28.721Z,5,GR86-051-71,7.300000000000001,0.448,-0.16,2.67,5.0,,33.74,34.595,
2025-08-14T23:12:28.765Z,5,GR86-051-71,8.0,0.487,-0.153,2.54,5.0,6199.0,34.96,35.34,
2025-08-14T23:12:28.807Z,5,GR86-051-71,8.0,0.489,-0.197,9.36,5.0,,36.245,36.425,190.93
2025-08-14T23:12:28.850Z,5,GR86-051-71,8.0,0.521,-0.184,51.39,5.0,,36.55,36.775,
2025-08-14T23:12:28.894Z,5,GR86-051-71,7.6,0.539,-0.19,99.75,5.0,,36.21,36.425,
2025-08-14T23:12:28.936Z,5,GR86-051-71,6.800000000000001,0.519,-0.165,96.94,5.0,,35.86,36.425,
2025-08-14T23:12:28.979Z,5,GR86-051-71,5.4,0.518,-0.166,36.47,4.0,6029.0,35.525,36.18,
2025-08-14T23:12:29.022Z,5,GR86-051-71,2.9000000000000004,0.582,-0.237,4.33,4.0,,36.21,36.55,186.27
2025-08-14T23:12:29.065Z,5,GR86-051-71,0.1,0.552,-0.245,3.92,4.0,,38.745,39.46,
2025-08-14T23:12:29.108Z,5,GR86-051-71,-1.6,0.617,-0.228,3.78,4.0,,43.17,43.43,
2025-08-14T23:12:29.151Z,5,GR86-051-71,-2.5,0.677,-0.257,3.52,4.0,,46.435,46.175,
2025-08-14T23:12:29.195Z,5,GR86-051-71,-3.3000000000000003,0.683,-0.191,3.09,4.0,6142.0,51.275,51.0,
2025-08-14T23:12:29.237Z,5,GR86-051-71,-3.5,0.743,-0.212,2.75,4.0,,54.92,55.945,179.82
2025-08-14T23:12:29.280Z,5,GR86-051-71,-3.5,0.743,-0.174,2.59,4.0,,56.995000000000005,56.995000000000005,
2025-08-14T23:12:29.324Z,5,GR86-051-71,-3.5,0.778,-0.137,2.51,4.0,,58.155,57.955,
2025-08-14T23:12:29.367Z,5,GR86-051-71,-3.5,0.726,-0.149,2.47,4.0,,59.59,60.705,
2025-08-14T23:12:29.410Z,5,GR86-051-71,-2.6,0.713,-0.136,2.47,4.0,6514.0,58.795,58.845,
2025-08-14T23:12:29.455Z,5,GR86-051-71,3.3000000000000003,0.749,-0.105,27.29,4.0,,53.455,54.615,174.84
2025-08-14T23:12:29.498Z,5,GR86-051-71,6.4,0.67,-0.114,70.58,4.0,,48.175,50.07,
2025-08-14T23:12:29.541Z,5,GR86-051-71,8.6,0.5660000000000001,-0.128,99.7,3.0,,43.615,45.4,
2025-08-14T23:12:29.584Z,5,GR86-051-71,9.6,0.56,-0.064,58.15,3.0,,38.745,40.59,
2025-08-14T23:12:29.627Z,5,GR86-051-71,9.6,0.623,-0.032,2.99,3.0,6206.0,34.335,35.800000000000004,
2025-08-14T23:12:29.670Z,5,GR86-051-71,9.6,0.556,-0.159,3.28,3.0,,31.65,32.96,167.87
2025-08-14T23:12:29.715Z,5,GR86-051-71,9.6,0.653,0.021,2.86,3.0,,28.155,29.145,
2025-08-14T23:12:29.758Z,5,GR86-051-71,9.6,0.498,-0.185,2.67,3.0,,27.5,28.615,
2025-08-14T23:12:29.801Z,5,GR86-051-71,9.6,0.398,0.012,2.57,3.0,,24.995,25.425,
2025-08-14T23:12:29.844Z,5,GR86-051-71,6.5,0.353,-0.047,2.52,3.0,5802.0,24.28,24.46,
2025-08-14T23:12:29.887Z,5,GR86-051-71,2.2,0.28,-0.134,2.51,3.0,,25.025,24.89,160.06
2025-08-14T23:12:29.930Z,5,GR86-051-71,0.4,0.332,0.063,2.48,3.0,,25.835,26.08,
2025-08-14T23:12:29.974Z,5,GR86-051-71,0.3,0.377,-0.097,2.49,3.0,,29.025,28.965,
2025-08-14T23:12:30.018Z,5,GR86-051-71,0.3,0.417,-0.016,2.48,3.0,,33.25,33.025,
2025-08-14T23:12:30.060Z,5,GR86-051-71,1.4,0.502,-0.028,2.48,3.0,6830.0,37.05,36.775,
2025-08-14T23:12:30.104Z,5,GR86-051-71,2.1,0.531,-0.047,2.48,3.0,,40.365,40.025,155.43
2025-08-14T23:12:30.146Z,5,GR86-051-71,2.1,0.529,-0.013,2.47,3.0,,43.14,42.835,
2025-08-14T23:12:30.189Z,5,GR86-051-71,2.1,0.539,0.006,2.49,3.0,,45.4,45.0,
2025-08-14T23:12:30.232Z,5,GR86-051-71,2.1,0.616,-0.019,2.47,3.0,,46.68,46.53,
2025-08-14T23:12:30.275Z,5,GR86-051-71,2.1,0.645,0.013,2.48,3.0,6786.0,47.015,46.955,
2025-08-14T23:12:30.318Z,5,GR86-051-71,2.1,0.682,0.016,2.48,3.0,,46.68,46.895,151.58
2025-08-14T23:12:30.361Z,5,GR86-051-71,2.3000000000000003,0.668,0.053,2.48,3.0,,44.59,45.43,
2025-08-14T23:12:30.404Z,5,GR86-051-71,3.0,0.549,0.057,2.48,3.0,,37.92,39.645,
2025-08-14T23:12:30.447Z,5,GR86-051-71,3.8,0.483,0.042,2.48,3.0,,29.925,31.575,
2025-08-14T23:12:30.490Z,5,GR86-051-71,4.1000000000000005,0.456,0.072,2.47,3.0,6539.0,24.02,25.395,
2025-08-14T23:12:30.535Z,5,GR86-051-71,4.1000000000000005,0.337,0.066,2.48,3.0,,22.125,22.815,146.34
2025-08-14T23:12:30.578Z,5,GR86-051-71,3.9,0.335,0.088,2.48,3.0,,23.27,23.485,
2025-08-14T23:12:30.621Z,5,GR86-051-71,-3.4000000000000004,0.284,0.101,2.48,3.0,,25.15,25.24,
2025-08-14T23:12:30.664Z,5,GR86-051-71,-10.1,0.332,0.176,2.49,3.0,,27.285,27.225,
2025-08-14T23:12:30.707Z,5,GR86-051-71,-12.1,0.382,0.251,2.49,3.0,6099.0,28.55,28.43,
2025-08-14T23:12:30.750Z,5,GR86-051-71,-12.1,0.367,0.275,2.49,3.0,,28.935,29.145,139.17000000000002
2025-08-14T23:12:30.794Z,5,GR86-051-71,-13.1,0.387,0.294,2.48,3.0,,29.56,29.77,
2025-08-14T23:12:30.836Z,5,GR86-051-71,-20.9,0.384,0.357,2.48,3.0,,29.895,30.11,
2025-08-14T23:12:30.879Z,5,GR86-051-71,-25.0,0.401,0.444,2.48,3.0,,29.895,30.11,
2025-08-14T23:12:30.922Z,5,GR86-051-71,-25.0,0.386,0.476,2.47,3.0,6063.0,29.56,30.045,
2025-08-14T23:12:30.965Z,5,GR86-051-71,-24.0,0.33,0.486,2.48,3.0,,28.49,29.21,131.94
2025-08-14T23:12:31.009Z,5,GR86-051-71,-17.1,0.277,0.49,2.47,3.0,,25.605,26.875,
2025-08-14T23:12:31.052Z,5,GR86-051-71,-10.7,0.309,0.536,2.49,3.0,,21.15,22.22,
2025-08-14T23:12:31.095Z,5,GR86-051-71,-6.1000000000000005,0.193,0.582,2.48,3.0,,13.14,14.145,
2025-08-14T23:12:31.138Z,5,GR86-051-71,-6.1000000000000005,0.105,0.583,2.51,3.0,5944.0,6.865,7.555,
2025-08-14T23:12:31.181Z,5,GR86-051-71,-6.9,-0.008,0.603,2.53,3.0,,0.0,2.105,128.58
2025-08-14T23:12:31.224Z,5,GR86-051-71,-16.0,-0.066,0.667,2.6,3.0,,0.0,0.0,
2025-08-14T23:12:31.267Z,5,GR86-051-71,-26.5,-0.102,0.775,2.6,3.0,,0.0,0.0,
2025-08-14T23:12:31.310Z,5,GR86-051-71,-38.3,-0.092,0.853,2.6,3.0,,0.0,0.0,
2025-08-14T23:12:31.355Z,5,GR86-051-71,-54.0,-0.089,0.927,2.59,3.0,5565.0,0.0,0.0,
2025-08-14T23:12:31.398Z,5,GR86-051-71,-55.900000000000006,-0.09,0.901,2.6,3.0,,0.0,0.0,125.45
2025-08-14T23:12:31.441Z,5,GR86-051-71,-55.900000000000006,-0.107,0.921,2.59,3.0,,0.0,0.0,
2025-08-14T23:12:31.484Z,5,GR86-051-71,-49.6,-0.091,0.914,2.59,3.0,,0.0,0.0,
2025-08-14T23:12:31.527Z,5,GR86-051-71,-44.6,-0.093,0.853,2.58,3.0,,0.0,0.0,
2025-08-14T23:12:31.570Z,5,GR86-051-71,-43.900000000000006,-0.103,0.896,2.58,3.0,5595.0,0.0,0.0,
2025-08-14T23:12:31.614Z,5,GR86-051-71,-42.2,-0.111,0.913,2.58,3.0,,0.0,0.0,124.13
2025-08-14T23:12:31.657Z,5,GR86-051-71,-38.3,-0.108,0.949,2.58,3.0,,0.0,0.0,
2025-08-14T23:12:31.700Z,5,GR86-051-71,-33.0,-0.113,0.89,2.57,3.0,,0.0,0.0,
2025-08-14T23:12:31.744Z,5,GR86-051-71,-28.1,-0.11,0.974,2.57,3.0,,0.0,0.0,
2025-08-14T23:12:31.786Z,5,GR86-051-71,-25.9,-0.124,1.004,2.59,3.0,5539.0,0.0,0.0,
2025-08-14T23:12:31.829Z,5,GR86-051-71,-25.6,-0.133,0.95,2.63,3.0,,0.0,0.0,123.43
2025-08-14T23:12:31.872Z,5,GR86-051-71,-24.3,-0.12,1.004,2.8000000000000003,3.0,,0.0,0.0,
2025-08-14T23:12:31.915Z,5,GR86-051-71,-23.8,-0.114,0.962,3.95,3.0,,0.0,0.0,
2025-08-14T23:12:31.958Z,5,GR86-051-71,-23.8,-0.125,0.95,4.08,3.0,,0.0,0.0,
2025-08-14T23:12:32.001Z,5,GR86-051-71,-24.4,-0.117,0.926,4.6000000000000005,3.0,5470.0,0.0,0.0,
2025-08-14T23:12:32.044Z,5,GR86-051-71,-26.4,-0.11,1.017,4.47,3.0,,0.0,0.0,122.78
2025-08-14T23:12:32.087Z,5,GR86-051-71,-27.4,-0.137,0.991,4.42,3.0,,0.0,0.0,
2025-08-14T23:12:32.130Z,5,GR86-051-71,-27.6,-0.114,0.974,4.43,3.0,,0.0,0.0,
2025-08-14T23:12:32.174Z,5,GR86-051-71,-27.700000000000003,-0.104,0.966,18.05,3.0,,0.0,0.0,
2025-08-14T23:12:32.216Z,5,GR86-051-71,-29.9,-0.127,1.018,20.11,3.0,5397.0,0.0,0.0,
2025-08-14T23:12:32.259Z,5,GR86-051-71,-35.9,-0.139,0.994,20.2,3.0,,0.0,0.0,121.7
2025-08-14T23:12:32.302Z,5,GR86-051-71,-43.3,-0.143,1.003,20.4,3.0,,0.0,0.0,
2025-08-14T23:12:32.345Z,5,GR86-051-71,-49.7,-0.19,0.968,20.38,3.0,,0.0,0.0,
2025-08-14T23:12:32.389Z,5,GR86-051-71,-52.900000000000006,-0.166,0.948,6.53,3.0,,0.0,0.0,
2025-08-14T23:12:32.432Z,5,GR86-051-71,-53.400000000000006,-0.211,1.007,3.97,3.0,5337.0,0.0,0.0,
2025-08-14T23:12:32.475Z,5,GR86-051-71,-53.400000000000006,-0.196,0.992,3.93,3.0,,0.0,0.0,120.02
2025-08-14T23:12:32.518Z,5,GR86-051-71,-53.400000000000006,-0.176,1.015,3.89,3.0,,0.0,0.0,
2025-08-14T23:12:32.561Z,5,GR86-051-71,-54.3,-0.162,1.022,3.78,3.0,,0.0,0.0,
2025-08-14T23:12:32.605Z,5,GR86-051-71,-55.900000000000006,-0.062,1.057,3.69,3.0,,0.0,0.0,
2025-08-14T23:12:32.647Z,5,GR86-051-71,-57.5,-0.098,0.966,3.8,3.0,5407.0,0.0,0.0,
2025-08-14T23:12:32.690Z,5,GR86-051-71,-58.7,-0.1,1.0,3.95,3.0,,0.0,0.0,118.38
2025-08-14T23:12:32.734Z,5,GR86-051-71,-59.3,-0.086,1.006,4.47,3.0,,0.0,0.0,
2025-08-14T23:12:32.776Z,5,GR86-051-71,-59.3,-0.113,1.007,7.1000000000000005,3.0,,0.0,0.0,
2025-08-14T23:12:32.819Z,5,GR86-051-71,-59.3,-0.108,1.009,12.85,3.0,,0.0,0.0,
2025-08-14T23:12:32.864Z,5,GR86-051-71,-59.3,-0.11,0.992,18.85,3.0,5196.0,0.0,0.0,
2025-08-14T23:12:32.908Z,5,GR86-051-71,-59.3,-0.139,0.994,20.82,3.0,,0.0,0.0,116.44
2025-08-14T23:12:32.951Z,5,GR86-051-71,-59.3,-0.13,0.987,21.0,3.0,,0.0,0.0,
2025-08-14T23:12:32.995Z,5,GR86-051-71,-59.3,-0.149,0.983,22.97,3.0,,0.0,0.0,
2025-08-14T23:12:33.037Z,5,GR86-051-71,-59.3,-0.165,0.997,25.04,3.0,,0.0,0.0,
2025-08-14T23:12:33.081Z,5,GR86-051-71,-59.3,-0.245,0.986,26.91,3.0,5154.0,0.0,0.0,
2025-08-14T23:12:33.124Z,5,GR86-051-71,-59.3,-0.362,0.953,27.48,3.0,,0.0,0.0,115.47
2025-08-14T23:12:33.167Z,5,GR86-051-71,-58.8,-0.31,1.014,27.88,3.0,,0.0,0.0,
2025-08-14T23:12:33.210Z,5,GR86-051-71,-55.6,-0.348,0.891,28.82,3.0,,0.0,0.0,
2025-08-14T23:12:33.255Z,5,GR86-051-71,-54.7,-0.354,1.027,29.49,3.0,,0.0,0.0,
2025-08-14T23:12:33.298Z,5,GR86-051-71,-54.7,-0.349,0.98,29.61,3.0,5130.0,0.0,0.0,
2025-08-14T23:12:33.341Z,5,GR86-051-71,-54.7,-0.338,0.959,29.83,3.0,,0.0,0.0,114.0
2025-08-14T23:12:33.385Z,5,GR86-051-71,-54.7,-0.385,0.984,30.68,3.0,,0.0,0.0,
2025-08-14T23:12:33.428Z,5,GR86-051-71,-55.0,-0.366,0.877,32.39,3.0,,0.0,0.0,
2025-08-14T23:12:33.471Z,5,GR86-051-71,-55.900000000000006,-0.339,0.911,35.18,3.0,,0.0,0.0,
2025-08-14T23:12:33.515Z,5,GR86-051-71,-56.400000000000006,-0.348,0.949,37.81,3.0,5351.0,0.0,0.0,
2025-08-14T23:12:33.557Z,5,GR86-051-71,-56.400000000000006,-0.399,0.97,39.31,3.0,,0.0,0.0,112.12
2025-08-14T23:12:33.600Z,5,GR86-051-71,-56.400000000000006,-0.377,0.935,40.85,3.0,,0.0,0.0,
2025-08-14T23:12:33.643Z,5,GR86-051-71,-57.2,-0.395,0.926,47.83,3.0,,0.0,0.0,
2025-08-14T23:12:33.686Z,5,GR86-051-71,-58.2,-0.402,0.915,60.21,3.0,,0.0,0.0,
2025-08-14T23:12:33.729Z,5,GR86-051-71,-59.1,-0.379,0.921,94.94,3.0,5380.0,0.0,0.0,
2025-08-14T23:12:33.772Z,5,GR86-051-71,-59.2,-0.431,0.941,99.71,3.0,,0.0,0.0,111.75
2025-08-14T23:12:33.815Z,5,GR86-051-71,-59.2,-0.468,0.953,99.69,3.0,,0.0,0.0,
2025-08-14T23:12:33.858Z,5,GR86-051-71,-59.2,-0.409,0.896,99.66,3.0,,0.0,0.0,
2025-08-14T23:12:33.901Z,5,GR86-051-71,-59.2,-0.431,0.906,99.71,3.0,,0.0,0.0,
2025-08-14T23:12:33.945Z,5,GR86-051-71,-59.2,-0.441,0.895,99.68,3.0,5370.0,0.0,0.0,
2025-08-14T23:12:33.987Z,5,GR86-051-71,-59.2,-0.369,0.872,99.68,3.0,,0.0,0.0,112.61
2025-08-14T23:12:34.030Z,5,GR86-051-71,-58.8,-0.451,0.974,99.71,3.0,,0.0,0.0,
2025-08-14T23:12:34.074Z,5,GR86-051-71,-43.5,-0.462,0.987,99.66,3.0,,0.0,0.0,
2025-08-14T23:12:34.116Z,5,GR86-051-71,-35.0,-0.453,0.894,99.69,3.0,,0.0,0.0,
2025-08-14T23:12:34.159Z,5,GR86-051-71,-33.7,-0.426,0.921,99.69,3.0,5458.0,0.0,0.0,
2025-08-14T23:12:34.202Z,5,GR86-051-71,-33.7,-0.492,0.941,99.71,3.0,,0.0,0.0,113.56
2025-08-14T23:12:34.245Z,5,GR86-051-71,-33.7,-0.433,0.878,99.7,3.0,,0.0,0.0,
2025-08-14T23:12:34.289Z,5,GR86-051-71,-33.7,-0.428,0.939,99.7,3.0,,0.0,0.0,
2025-08-14T23:12:34.332Z,5,GR86-051-71,-33.7,-0.469,0.94,99.69,3.0,,0.0,0.0,
2025-08-14T23:12:34.375Z,5,GR86-051-71,-30.3,-0.467,0.905,99.69,3.0,5528.0,0.0,0.0,
2025-08-14T23:12:34.418Z,5,GR86-051-71,-27.9,-0.407,0.836,99.71,3.0,,0.0,0.0,114.64
2025-08-14T23:12:34.461Z,5,GR86-051-71,-21.9,-0.424,0.853,99.67,3.0,,0.0,0.0,
2025-08-14T23:12:34.504Z,5,GR86-051-71,-15.5,-0.457,0.865,99.69,3.0,,0.0,0.0,
2025-08-14T23:12:34.547Z,5,GR86-051-71,-13.8,-0.458,0.861,99.69,3.0,,0.0,0.0,
2025-08-14T23:12:34.590Z,5,GR86-051-71,-13.8,-0.491,0.9,99.73,3.0,5574.0,0.0,0.0,
2025-08-14T23:12:34.634Z,5,GR86-051-71,-29.3,-0.463,0.884,99.73,3.0,,0.0,0.0,115.75
2025-08-14T23:12:34.677Z,5,GR86-051-71,-42.6,-0.452,0.902,99.69,3.0,,0.0,0.0,
2025-08-14T23:12:34.720Z,5,GR86-051-71,-50.2,-0.419,0.931,99.72,3.0,,0.0,0.0,
2025-08-14T23:12:34.764Z,5,GR86-051-71,-51.0,-0.426,0.967,99.69,3.0,,0.0,0.0,
2025-08-14T23:12:34.806Z,5,GR86-051-71,-51.0,-0.433,0.956,99.7,3.0,5631.0,0.0,0.0,
2025-08-14T23:12:34.849Z,5,GR86-051-71,-51.0,-0.43,0.928,99.69,3.0,,0.0,0.0,116.47
2025-08-14T23:12:34.892Z,5,GR86-051-71,-49.3,-0.438,0.924,99.72,3.0,,0.0,0.0,
2025-08-14T23:12:34.935Z,5,GR86-051-71,-47.2,-0.43,0.941,99.7,3.0,,0.0,0.0,
2025-08-14T23:12:34.978Z,5,GR86-051-71,-46.6,-0.445,0.944,99.71,3.0,,0.0,0.0,
2025-08-14T23:12:35.021Z,5,GR86-051-71,-45.1,-0.427,0.91,99.7,3.0,5623.0,0.0,0.0,
2025-08-14T23:12:35.065Z,5,GR86-051-71,-41.5,-0.406,0.923,99.7,3.0,,0.0,0.0,116.41
2025-08-14T23:12:35.107Z,5,GR86-051-71,-36.5,-0.43,0.911,99.7,3.0,,0.0,0.0,
2025-08-14T23:12:35.150Z,5,GR86-051-71,-31.6,-0.449,0.904,99.7,3.0,,0.0,0.0,
2025-08-14T23:12:35.194Z,5,GR86-051-71,-26.1,-0.463,0.9,99.68,3.0,,0.0,0.0,
2025-08-14T23:12:35.236Z,5,GR86-051-71,-22.200000000000003,-0.417,0.87,99.69,3.0,5676.0,0.0,0.0,
2025-08-14T23:12:35.279Z,5,GR86-051-71,-19.4,-0.429,0.876,99.67,3.0,,0.0,0.0,118.04
2025-08-14T23:12:35.322Z,5,GR86-051-71,-19.0,-0.46,0.785,99.7,3.0,,0.0,0.0,
2025-08-14T23:12:35.365Z,5,GR86-051-71,-19.0,-0.408,0.798,99.71,3.0,,0.0,0.0,
2025-08-14T23:12:35.408Z,5,GR86-051-71,-19.0,-0.362,0.606,99.7,3.0,,0.0,0.0,
2025-08-14T23:12:35.452Z,5,GR86-051-71,-19.0,-0.435,0.708,99.66,3.0,5739.0,0.0,0.0,
2025-08-14T23:12:35.495Z,5,GR86-051-71,-15.3,-0.45,0.639,99.67,3.0,,0.0,0.0,119.26
2025-08-14T23:12:35.538Z,5,GR86-051-71,-13.6,-0.405,0.5720000000000001,99.68,3.0,,0.0,0.0,
2025-08-14T23:12:35.581Z,5,GR86-051-71,-13.6,-0.317,0.683,99.71,3.0,,0.0,0.0,
2025-08-14T23:12:35.624Z,5,GR86-051-71,-14.2,-0.327,0.682,99.69,3.0,,0.0,0.0,
2025-08-14T23:12:35.667Z,5,GR86-051-71,-15.8,-0.255,0.621,99.66,3.0,5790.0,0.0,0.0,
2025-08-14T23:12:35.710Z,5,GR86-051-71,-15.8,-0.217,0.746,99.67,3.0,,0.0,0.0,120.08
2025-08-14T23:12:35.755Z,5,GR86-051-71,-15.7,-0.504,0.5750000000000001,99.69,3.0,,0.0,0.0,
2025-08-14T23:12:35.798Z,5,GR86-051-71,-15.7,-0.387,0.676,99.71,3.0,,0.0,0.0,
2025-08-14T23:12:35.841Z,5,GR86-051-71,-15.7,-0.529,0.8160000000000001,99.69,3.0,,0.0,0.0,
2025-08-14T23:12:35.884Z,5,GR86-051-71,-15.8,-0.443,0.807,99.69,3.0,5855.0,0.0,0.0,
2025-08-14T23:12:35.927Z,5,GR86-051-71,-15.8,-0.376,0.896,99.7,3.0,,0.0,0.0,120.11
2025-08-14T23:12:35.970Z,5,GR86-051-71,-12.9,-0.389,0.991,99.68,3.0,,0.0,0.0,
2025-08-14T23:12:36.015Z,5,GR86-051-71,-12.1,-0.663,0.714,99.71,3.0,,0.0,0.0,
2025-08-14T23:12:36.058Z,5,GR86-051-71,-14.8,-0.468,0.609,99.7,3.0,,0.0,0.0,
2025-08-14T23:12:36.101Z,5,GR86-051-71,-23.4,-0.311,0.586,99.7,3.0,5878.0,0.0,0.0,
2025-08-14T23:12:36.145Z,5,GR86-051-71,-28.3,-0.261,0.56,99.68,3.0,,0.0,0.0,121.07
2025-08-14T23:12:36.187Z,5,GR86-051-71,-28.8,-0.164,0.554,99.69,3.0,,0.0,0.0,
2025-08-14T23:12:36.230Z,5,GR86-051-71,-28.8,-0.236,0.726,99.68,3.0,,0.0,0.0,
2025-08-14T23:12:36.274Z,5,GR86-051-71,-28.8,-0.524,0.668,99.71,3.0,,0.0,0.0,
2025-08-14T23:12:36.318Z,5,GR86-051-71,-30.1,-0.519,0.65,99.71,3.0,5985.0,0.0,0.0,
2025-08-14T23:12:36.360Z,5,GR86-051-71,-31.6,-0.466,0.857,99.7,3.0,,0.0,0.0,122.85
2025-08-14T23:12:36.404Z,5,GR86-051-71,-31.6,-0.504,0.858,99.67,3.0,,0.0,0.0,
2025-08-14T23:12:36.446Z,5,GR86-051-71,-28.9,-0.505,0.89,99.67,3.0,,0.0,0.0,
2025-08-14T23:12:36.489Z,5,GR86-051-71,-21.9,-0.52,0.778,99.68,3.0,,0.0,0.0,
2025-08-14T23:12:36.532Z,5,GR86-051-71,-17.7,-0.472,0.652,99.68,3.0,5958.0,0.0,0.0,
2025-08-14T23:12:36.575Z,5,GR86-051-71,-17.1,-0.378,0.613,99.68,3.0,,0.0,0.0,123.6
2025-08-14T23:12:36.618Z,5,GR86-051-71,-17.1,-0.432,0.5700000000000001,99.69,3.0,,0.0,0.0,
2025-08-14T23:12:36.661Z,5,GR86-051-71,-17.1,-0.45,0.501,99.67,3.0,,0.0,0.0,
2025-08-14T23:12:36.704Z,5,GR86-051-71,-17.1,-0.46,0.498,99.67,3.0,,0.0,0.0,
2025-08-14T23:12:36.748Z,5,GR86-051-71,-17.1,-0.399,0.642,99.67,3.0,6008.0,0.0,0.0,
2025-08-14T23:12:36.790Z,5,GR86-051-71,-14.1,-0.308,0.503,99.66,3.0,,0.0,0.0,125.58
2025-08-14T23:12:36.835Z,5,GR86-051-71,-10.9,-0.451,0.499,99.67,3.0,,0.0,0.0,
2025-08-14T23:12:36.878Z,5,GR86-051-71,-9.9,-0.377,0.551,99.68,3.0,,0.0,0.0,
2025-08-14T23:12:36.921Z,5,GR86-051-71,-8.5,-0.457,0.5670000000000001,99.68,3.0,,0.0,0.0,
2025-08-14T23:12:36.965Z,5,GR86-051-71,-6.300000000000001,-0.468,0.5690000000000001,99.67,3.0,6100.0,0.0,0.0,
2025-08-14T23:12:37.007Z,5,GR86-051-71,-4.0,-0.482,0.455,99.67,3.0,,0.0,0.0,126.27
2025-08-14T23:12:37.050Z,5,GR86-051-71,-2.3000000000000003,-0.428,0.298,99.68,3.0,,0.0,0.0,
2025-08-14T23:12:37.094Z,5,GR86-051-71,-0.6000000000000001,-0.382,0.386,99.68,3.0,,0.0,0.0,
2025-08-14T23:12:37.136Z,5,GR86-051-71,1.0,-0.462,0.299,99.66,3.0,,0.0,0.0,
2025-08-14T23:12:37.179Z,5,GR86-051-71,1.8,-0.508,0.264,99.71,3.0,6134.0,0.0,0.0,
2025-08-14T23:12:37.222Z,5,GR86-051-71,1.8,-0.46,0.256,99.7,3.0,,0.0,0.0,127.84
2025-08-14T23:12:37.265Z,5,GR86-051-71,1.8,-0.413,0.17,99.69,3.0,,0.0,0.0,
2025-08-14T23:12:37.308Z,5,GR86-051-71,1.8,-0.383,0.21,99.7,3.0,,0.0,0.0,
2025-08-14T23:12:37.352Z,5,GR86-051-71,1.8,-0.37,0.11,99.66,3.0,,0.0,0.0,
2025-08-14T23:12:37.395Z,5,GR86-051-71,3.7,-0.535,0.113,99.7,3.0,6269.0,0.0,0.0,
2025-08-14T23:12:37.438Z,5,GR86-051-71,5.0,-0.607,0.122,99.67,3.0,,0.0,0.0,128.88
2025-08-14T23:12:37.481Z,5,GR86-051-71,5.800000000000001,-0.457,0.042,99.7,3.0,,0.0,0.0,
2025-08-14T23:12:37.524Z,5,GR86-051-71,6.6000000000000005,-0.392,0.039,99.69,3.0,,0.0,0.0,
2025-08-14T23:12:37.567Z,5,GR86-051-71,7.300000000000001,-0.433,-0.036,99.7,3.0,,0.0,0.0,
2025-08-14T23:12:37.610Z,5,GR86-051-71,7.6,-0.486,-0.082,99.71,3.0,6310.0,0.0,0.0,
2025-08-14T23:12:37.655Z,5,GR86-051-71,7.7,-0.404,-0.119,99.7,3.0,,0.0,0.0,130.48
2025-08-14T23:12:37.698Z,5,GR86-051-71,7.800000000000001,-0.429,-0.119,99.69,3.0,,0.0,0.0,
2025-08-14T23:12:37.741Z,5,GR86-051-71,7.800000000000001,-0.473,-0.138,99.7,3.0,,0.0,0.0,
2025-08-14T23:12:37.784Z,5,GR86-051-71,7.800000000000001,-0.407,-0.161,99.71,3.0,,0.0,0.0,
2025-08-14T23:12:37.827Z,5,GR86-051-71,7.800000000000001,-0.416,-0.215,99.69,3.0,6299.0,0.0,0.0,
2025-08-14T23:12:37.870Z,5,GR86-051-71,7.800000000000001,-0.363,-0.25,99.7,3.0,,0.0,0.0,132.09
2025-08-14T23:12:37.914Z,5,GR86-051-71,7.9,-0.497,-0.341,99.73,3.0,,0.0,0.0,
2025-08-14T23:12:37.957Z,5,GR86-051-71,7.800000000000001,-0.534,-0.31,99.69,3.0,,0.0,0.0,
2025-08-14T23:12:38.000Z,5,GR86-051-71,7.800000000000001,-0.49,-0.338,99.71,3.0,,0.0,0.0,
2025-08-14T23:12:38.043Z,5,GR86-051-71,7.800000000000001,-0.413,-0.396,99.69,3.0,6350.0,0.0,0.0,
2025-08-14T23:12:38.086Z,5,GR86-051-71,7.800000000000001,-0.412,-0.385,99.7,3.0,,0.0,0.0,133.52
2025-08-14T23:12:38.129Z,5,GR86-051-71,7.800000000000001,-0.481,-0.332,99.71,3.0,,0.0,0.0,
2025-08-14T23:12:38.172Z,5,GR86-051-71,7.800000000000001,-0.478,-0.342,99.7,3.0,,0.0,0.0,
2025-08-14T23:12:38.215Z,5,GR86-051-71,7.9,-0.428,-0.306,99.69,3.0,,0.0,0.0,
2025-08-14T23:12:38.258Z,5,GR86-051-71,7.800000000000001,-0.448,-0.329,99.68,3.0,6481.0,0.0,0.0,
2025-08-14T23:12:38.301Z,5,GR86-051-71,7.800000000000001,-0.428,-0.321,99.7,3.0,,0.0,0.0,134.67000000000002
2025-08-14T23:12:38.344Z,5,GR86-051-71,7.800000000000001,-0.423,-0.271,99.74,3.0,,0.0,0.0,
2025-08-14T23:12:38.387Z,5,GR86-051-71,7.800000000000001,-0.433,-0.26,99.71,3.0,,0.0,0.0,
2025-08-14T23:12:38.430Z,5,GR86-051-71,7.800000000000001,-0.445,-0.268,99.69,3.0,,0.0,0.0,
2025-08-14T23:12:38.474Z,5,GR86-051-71,7.9,-0.442,-0.233,99.7,3.0,6513.0,0.0,0.0,
2025-08-14T23:12:38.516Z,5,GR86-051-71,7.800000000000001,-0.474,-0.24,99.69,3.0,,0.0,0.0,136.24
2025-08-14T23:12:38.559Z,5,GR86-051-71,7.800000000000001,-0.429,-0.219,99.7,3.0,,0.0,0.0,
2025-08-14T23:12:38.602Z,5,GR86-051-71,7.800000000000001,-0.383,-0.191,99.69,3.0,,0.0,0.0,
2025-08-14T23:12:38.645Z,5,GR86-051-71,7.800000000000001,-0.405,-0.182,99.7,3.0,,0.0,0.0,
2025-08-14T23:12:38.688Z,5,GR86-051-71,7.800000000000001,-0.422,-0.171,99.7,3.0,6573.0,0.0,0.0,
2025-08-14T23:12:38.731Z,5,GR86-051-71,7.800000000000001,-0.407,-0.15,99.7,3.0,,0.0,0.0,137.84
2025-08-14T23:12:38.775Z,5,GR86-051-71,7.800000000000001,-0.428,-0.139,99.7,3.0,,0.0,0.0,
2025-08-14T23:12:38.817Z,5,GR86-051-71,7.800000000000001,-0.439,-0.142,99.7,3.0,,0.0,0.0,
2025-08-14T23:12:38.860Z,5,GR86-051-71,7.800000000000001,-0.399,-0.106,99.69,3.0,,0.0,0.0,
2025-08-14T23:12:38.904Z,5,GR86-051-71,7.6,-0.382,-0.105,99.73,3.0,6650.0,0.0,0.0,
2025-08-14T23:12:38.946Z,5,GR86-051-71,6.5,-0.392,-0.097,99.7,3.0,,0.0,0.0,139.41
2025-08-14T23:12:38.990Z,5,GR86-051-71,5.1000000000000005,-0.399,-0.096,99.7,3.0,,0.0,0.0,
2025-08-14T23:12:39.034Z,5,GR86-051-71,4.2,-0.42,-0.076,99.7,3.0,,0.0,0.0,
2025-08-14T23:12:39.077Z,5,GR86-051-71,4.2,-0.425,-0.058,99.71,3.0,,0.0,0.0,
2025-08-14T23:12:39.120Z,5,GR86-051-71,4.2,-0.422,-0.042,99.7,3.0,6724.0,0.0,0.0,
2025-08-14T23:12:39.164Z,5,GR86-051-71,3.9,-0.411,-0.017,99.71,3.0,,0.0,0.0,142.5
2025-08-14T23:12:39.208Z,5,GR86-051-71,3.2,-0.402,-0.012,99.69,3.0,,0.0,0.0,
2025-08-14T23:12:39.295Z,5,GR86-051-71,3.0,-0.411,-0.01,99.69,3.0,,0.0,0.0,
2025-08-14T23:12:39.338Z,5,GR86-051-71,2.9000000000000004,-0.439,0.011,99.71,3.0,6797.0,0.0,0.0,
2025-08-14T23:12:39.381Z,5,GR86-051-71,2.4000000000000004,-0.406,0.037,99.69,3.0,,0.0,0.0,144.19
2025-08-14T23:12:39.424Z,5,GR86-051-71,-0.2,-0.397,0.08,99.7,3.0,,0.0,0.0,
2025-08-14T23:12:39.468Z,5,GR86-051-71,-1.4,-0.413,0.12,99.69,3.0,,0.0,0.0,
2025-08-14T23:12:39.510Z,5,GR86-051-71,-1.4,-0.446,0.136,99.7,3.0,,0.0,0.0,
2025-08-14T23:12:39.555Z,5,GR86-051-71,-1.4,-0.418,0.153,99.7,3.0,6954.0,0.0,0.0,
2025-08-14T23:12:39.598Z,5,GR86-051-71,-1.4,-0.433,0.168,99.7,3.0,,0.0,0.0,145.95000000000002
2025-08-14T23:12:39.641Z,5,GR86-051-71,-1.6,-0.423,0.165,99.7,3.0,,0.0,0.0,
2025-08-14T23:12:39.685Z,5,GR86-051-71,-1.7000000000000002,-0.413,0.188,99.69,3.0,,0.0,0.0,
2025-08-14T23:12:39.728Z,5,GR86-051-71,-1.7000000000000002,-0.409,0.21,99.7,3.0,,0.0,0.0,
2025-08-14T23:12:39.771Z,5,GR86-051-71,-1.7000000000000002,-0.409,0.242,99.71,3.0,7026.0,0.0,0.0,
2025-08-14T23:12:39.815Z,5,GR86-051-71,-1.7000000000000002,-0.41,0.233,99.69,3.0,,0.0,0.0,147.68
2025-08-14T23:12:39.857Z,5,GR86-051-71,-1.7000000000000002,-0.404,0.251,99.71,3.0,,0.0,0.0,
2025-08-14T23:12:39.900Z,5,GR86-051-71,-1.3,-0.41,0.241,99.69,3.0,,0.0,0.0,
2025-08-14T23:12:39.944Z,5,GR86-051-71,-1.0,-0.367,0.234,99.69,3.0,,0.0,0.0,
2025-08-14T23:12:39.986Z,5,GR86-051-71,-1.0,-0.13,0.155,99.69,3.0,7090.0,0.0,0.0,
2025-08-14T23:12:40.029Z,5,GR86-051-71,-0.6000000000000001,-0.285,0.138,99.72,3.0,,0.0,0.0,149.38
2025-08-14T23:12:40.072Z,5,GR86-051-71,1.4,-0.615,0.191,99.71,3.0,,0.0,0.0,
2025-08-14T23:12:40.115Z,5,GR86-051-71,3.1,-0.421,0.136,99.7,3.0,,0.0,0.0,
2025-08-14T23:12:40.158Z,5,GR86-051-71,3.1,-0.385,0.1,99.7,3.0,,0.0,0.0,
2025-08-14T23:12:40.201Z,5,GR86-051-71,4.0,-0.425,0.122,99.73,3.0,6958.0,0.0,0.0,
2025-08-14T23:12:40.244Z,5,GR86-051-71,4.7,-0.412,0.059,99.73,4.0,,0.0,0.0,151.06
2025-08-14T23:12:40.287Z,5,GR86-051-71,4.7,-0.379,0.047,99.72,4.0,,0.0,0.0,
2025-08-14T23:12:40.330Z,5,GR86-051-71,4.7,-0.377,0.051,99.72,4.0,,0.0,0.0,
2025-08-14T23:12:40.374Z,5,GR86-051-71,4.7,-0.357,-0.055,99.69,4.0,,0.0,0.0,
2025-08-14T23:12:40.416Z,5,GR86-051-71,4.7,-0.381,-0.026,99.69,4.0,6046.0,0.0,0.0,
2025-08-14T23:12:40.459Z,5,GR86-051-71,4.7,-0.424,-0.078,99.7,4.0,,0.0,0.0,152.43
2025-08-14T23:12:40.505Z,5,GR86-051-71,4.7,-0.433,-0.101,99.73,4.0,,0.0,0.0,
2025-08-14T23:12:40.548Z,5,GR86-051-71,4.7,-0.427,-0.107,99.71,4.0,,0.0,0.0,
2025-08-14T23:12:40.720Z,5,GR86-051-71,3.4000000000000004,-0.422,-0.082,99.71,4.0,,0.0,0.0,
2025-08-14T23:12:40.935Z,5,GR86-051-71,0.8,-0.406,0.022,99.73,4.0,6180.0,0.0,0.0,155.55
2025-08-14T23:12:40.978Z,5,GR86-051-71,-4.5,-0.409,0.111,99.72,4.0,,0.0,0.0,
2025-08-14T23:12:41.021Z,5,GR86-051-71,-5.7,-0.399,0.16,99.72,4.0,,0.0,0.0,
2025-08-14T23:12:41.065Z,5,GR86-051-71,-6.5,-0.393,0.178,99.71,4.0,6243.0,0.0,0.0,
2025-08-14T23:12:41.107Z,5,GR86-051-71,-7.300000000000001,-0.402,0.215,99.71,4.0,,0.0,0.0,157.02
2025-08-14T23:12:41.150Z,5,GR86-051-71,-8.0,-0.407,0.262,99.71,4.0,,0.0,0.0,
2025-08-14T23:12:41.194Z,5,GR86-051-71,-8.200000000000001,-0.41,0.331,99.7,4.0,,0.0,0.0,
2025-08-14T23:12:41.236Z,5,GR86-051-71,-8.3,-0.391,0.329,99.72,4.0,,0.0,0.0,
2025-08-14T23:12:41.279Z,5,GR86-051-71,-8.8,-0.362,0.322,99.69,4.0,6291.0,0.0,0.0,
2025-08-14T23:12:41.322Z,5,GR86-051-71,-9.8,-0.346,0.344,99.7,4.0,,0.0,0.0,158.53
2025-08-14T23:12:41.365Z,5,GR86-051-71,-10.6,-0.371,0.402,99.7,4.0,,0.0,0.0,
2025-08-14T23:12:41.408Z,5,GR86-051-71,-10.7,-0.385,0.445,99.7,4.0,,0.0,0.0,
2025-08-14T23:12:41.452Z,5,GR86-051-71,-10.7,-0.389,0.503,99.7,4.0,,0.0,0.0,
2025-08-14T23:12:41.495Z,5,GR86-051-71,-10.7,-0.39,0.513,99.69,4.0,6355.0,0.0,0.0,
2025-08-14T23:12:41.538Z,5,GR86-051-71,-10.7,-0.403,0.534,99.69,4.0,,0.0,0.0,159.78
2025-08-14T23:12:41.581Z,5,GR86-051-71,-10.7,-0.404,0.5660000000000001,99.71,4.0,,0.0,0.0,
2025-08-14T23:12:41.624Z,5,GR86-051-71,-10.7,-0.394,0.5760000000000001,99.69,4.0,,0.0,0.0,
2025-08-14T23:12:41.667Z,5,GR86-051-71,-10.7,-0.383,0.5640000000000001,99.7,4.0,,0.0,0.0,
2025-08-14T23:12:41.710Z,5,GR86-051-71,-10.7,-0.384,0.553,99.71,4.0,6413.0,0.0,0.0,
2025-08-14T23:12:41.755Z,5,GR86-051-71,-10.3,-0.385,0.505,99.71,4.0,,0.0,0.0,162.26
2025-08-14T23:12:41.798Z,5,GR86-051-71,-9.1,-0.39,0.49,99.69,4.0,,0.0,0.0,
2025-08-14T23:12:41.841Z,5,GR86-051-71,-7.0,-0.386,0.47,99.71,4.0,,0.0,0.0,
2025-08-14T23:12:41.884Z,5,GR86-051-71,-4.9,-0.383,0.452,99.71,4.0,,0.0,0.0,
2025-08-14T23:12:41.927Z,5,GR86-051-71,-3.5,-0.389,0.418,99.69,4.0,6471.0,0.0,0.0,
2025-08-14T23:12:41.970Z,5,GR86-051-71,-2.9000000000000004,-0.409,0.367,99.71,4.0,,0.0,0.0,163.47
2025-08-14T23:12:42.015Z,5,GR86-051-71,-2.6,-0.39,0.329,99.69,4.0,,12.025,12.145,
2025-08-14T23:12:42.058Z,5,GR86-051-71,-2.1,-0.273,0.306,79.5,4.0,,24.05,24.02,
2025-08-14T23:12:42.101Z,5,GR86-051-71,-0.8,-0.029,0.282,34.4,4.0,,42.055,41.555,
2025-08-14T23:12:42.144Z,5,GR86-051-71,1.3,0.321,0.204,25.61,4.0,6516.0,60.08,59.33,
2025-08-14T23:12:42.187Z,5,GR86-051-71,3.3000000000000003,0.557,0.134,18.21,4.0,,74.47,73.265,164.70000000000002
2025-08-14T23:12:42.230Z,5,GR86-051-71,3.7,0.481,0.13,5.43,4.0,,80.62,80.315,
2025-08-14T23:12:42.274Z,5,GR86-051-71,3.7,0.609,0.06,4.28,4.0,,79.045,80.16,
2025-08-14T23:12:42.317Z,5,GR86-051-71,3.7,0.71,0.097,4.12,4.0,,75.615,77.37,
2025-08-14T23:12:42.360Z,5,GR86-051-71,3.7,0.719,0.01,3.95,4.0,6458.0,73.995,76.145,
2025-08-14T23:12:42.404Z,5,GR86-051-71,3.7,0.8260000000000001,0.006,3.67,4.0,,71.175,71.525,164.88
2025-08-14T23:12:42.446Z,5,GR86-051-71,3.8,0.558,-0.04,3.42,4.0,,68.595,70.33500000000001,
2025-08-14T23:12:42.489Z,5,GR86-051-71,3.7,0.7010000000000001,0.016,3.2,4.0,,63.315000000000005,63.525,
2025-08-14T23:12:42.532Z,5,GR86-051-71,3.7,0.6980000000000001,-0.022,2.89,4.0,,62.335,63.205,
2025-08-14T23:12:42.575Z,5,GR86-051-71,3.7,0.6930000000000001,-0.039,2.66,4.0,5670.0,57.955,59.865,
2025-08-14T23:12:42.618Z,5,GR86-051-71,3.7,0.643,-0.03,2.59,4.0,,53.09,53.9,157.39
2025-08-14T23:12:42.661Z,5,GR86-051-71,3.7,0.737,-0.104,2.52,4.0,,51.93,52.86,
2025-08-14T23:12:42.704Z,5,GR86-051-71,3.7,0.727,-0.089,29.83,4.0,,54.08,55.455,
2025-08-14T23:12:42.747Z,5,GR86-051-71,3.7,0.764,-0.051,73.13,4.0,,55.545,56.005,
2025-08-14T23:12:42.790Z,5,GR86-051-71,0.2,0.8,-0.043,99.77,4.0,5511.0,58.185,58.675,
2025-08-14T23:12:42.835Z,5,GR86-051-71,-1.6,0.78,0.094,49.4,3.0,,61.025,61.39,148.88
2025-08-14T23:12:42.878Z,5,GR86-051-71,-1.6,0.8180000000000001,-0.012,3.62,3.0,,59.955,61.145,
2025-08-14T23:12:42.921Z,5,GR86-051-71,-1.6,0.808,0.029,3.15,3.0,,54.98,56.185,
2025-08-14T23:12:42.965Z,5,GR86-051-71,0.3,0.621,0.102,2.93,3.0,,44.59,45.66,
2025-08-14T23:12:43.007Z,5,GR86-051-71,3.3000000000000003,0.622,-0.011,2.75,3.0,5311.0,36.03,37.325,
2025-08-14T23:12:43.050Z,5,GR86-051-71,5.0,0.475,0.05,2.63,3.0,,32.99,34.03,142.39
2025-08-14T23:12:43.094Z,5,GR86-051-71,5.6000000000000005,0.482,0.04,2.56,3.0,,33.435,33.97,
2025-08-14T23:12:43.136Z,5,GR86-051-71,5.6000000000000005,0.485,0.052,2.54,3.0,,34.49,35.02,
2025-08-14T23:12:43.179Z,5,GR86-051-71,5.6000000000000005,0.491,0.141,2.52,3.0,,35.145,35.495,
2025-08-14T23:12:43.222Z,5,GR86-051-71,5.6000000000000005,0.46,0.103,2.52,3.0,5934.0,35.495,35.83,
2025-08-14T23:12:43.265Z,5,GR86-051-71,5.6000000000000005,0.482,0.089,2.48,3.0,,35.86,36.425,134.3
2025-08-14T23:12:43.308Z,5,GR86-051-71,5.9,0.514,0.119,2.47,3.0,,36.21,36.73,
2025-08-14T23:12:43.352Z,5,GR86-051-71,6.1000000000000005,0.52,0.083,2.49,3.0,,36.58,37.08,
2025-08-14T23:12:43.395Z,5,GR86-051-71,6.1000000000000005,0.541,0.076,2.48,3.0,,37.235,37.585,
2025-08-14T23:12:43.438Z,5,GR86-051-71,6.1000000000000005,0.533,0.056,2.49,3.0,5980.0,37.86,38.32,
2025-08-14T23:12:43.481Z,5,GR86-051-71,6.1000000000000005,0.529,0.059,2.48,3.0,,38.075,38.655,132.14
2025-08-14T23:12:43.524Z,5,GR86-051-71,6.1000000000000005,0.5640000000000001,0.069,2.5,3.0,,38.32,38.775,
2025-08-14T23:12:43.567Z,5,GR86-051-71,6.0,0.537,0.055,36.42,3.0,,38.655,39.22,
2025-08-14T23:12:43.610Z,5,GR86-051-71,5.2,0.552,0.077,80.75,3.0,,38.655,39.22,
2025-08-14T23:12:43.655Z,5,GR86-051-71,4.9,0.538,0.075,99.62,3.0,5734.0,38.285,38.865,
2025-08-14T23:12:43.698Z,5,GR86-051-71,5.0,0.546,0.11,83.94,2.0,,36.7,37.555,127.88
2025-08-14T23:12:43.741Z,5,GR86-051-71,4.9,0.546,0.058,11.2,2.0,,34.715,35.89,
2025-08-14T23:12:43.785Z,5,GR86-051-71,4.9,0.637,0.015,3.22,2.0,,34.15,35.175000000000004,
2025-08-14T23:12:43.827Z,5,GR86-051-71,4.9,0.477,0.12,2.99,2.0,,34.685,35.34,
2025-08-14T23:12:43.870Z,5,GR86-051-71,4.9,0.5660000000000001,0.083,2.77,2.0,5471.0,33.910000000000004,34.365,
2025-08-14T23:12:43.914Z,5,GR86-051-71,4.9,0.473,0.134,2.61,2.0,,34.12,34.365,122.2
2025-08-14T23:12:43.957Z,5,GR86-051-71,3.7,0.481,0.154,2.56,2.0,,34.12,34.715,
2025-08-14T23:12:44.000Z,5,GR86-051-71,2.5,0.495,0.122,2.53,2.0,,34.12,34.685,
2025-08-14T23:12:44.043Z,5,GR86-051-71,1.1,0.517,0.184,2.51,2.0,,33.1,33.71,
2025-08-14T23:12:44.086Z,5,GR86-051-71,-0.7000000000000001,0.475,0.173,2.49,2.0,5997.0,31.055,32.105000000000004,
2025-08-14T23:12:44.129Z,5,GR86-051-71,-4.4,0.428,0.196,2.49,2.0,,29.145,30.015,116.7
2025-08-14T23:12:44.172Z,5,GR86-051-71,-11.9,0.387,0.227,2.5,2.0,,28.37,29.3,
2025-08-14T23:12:44.215Z,5,GR86-051-71,-26.3,0.412,0.325,2.5,2.0,,27.745,28.615,
2025-08-14T23:12:44.258Z,5,GR86-051-71,-32.300000000000004,0.399,0.42,2.49,2.0,,26.81,27.53,
2025-08-14T23:12:44.301Z,5,GR86-051-71,-33.5,0.353,0.471,2.49,2.0,6148.0,24.95,25.925,
2025-08-14T23:12:44.345Z,5,GR86-051-71,-33.5,0.311,0.501,2.48,2.0,,22.16,23.025,111.67
2025-08-14T23:12:44.387Z,5,GR86-051-71,-33.5,0.288,0.535,2.48,2.0,,19.55,20.355,
2025-08-14T23:12:44.430Z,5,GR86-051-71,-33.4,0.246,0.585,2.49,2.0,,16.68,17.61,
2025-08-14T23:12:44.474Z,5,GR86-051-71,-31.1,0.172,0.621,2.49,2.0,,13.46,14.205,
2025-08-14T23:12:44.516Z,5,GR86-051-71,-31.0,0.167,0.663,2.49,2.0,5932.0,12.33,12.985,
2025-08-14T23:12:44.559Z,5,GR86-051-71,-31.4,0.116,0.723,2.5,2.0,,11.735,12.3,104.21
2025-08-14T23:12:44.602Z,5,GR86-051-71,-40.1,0.107,0.773,2.49,2.0,,11.735,12.3,
2025-08-14T23:12:44.645Z,5,GR86-051-71,-43.5,0.118,0.8140000000000001,2.49,2.0,,12.085,12.56,
2025-08-14T23:12:44.689Z,5,GR86-051-71,-43.5,0.13,0.797,2.49,2.0,,12.42,12.985,
2025-08-14T23:12:44.732Z,5,GR86-051-71,-33.1,0.162,0.8250000000000001,2.48,2.0,5725.0,12.775,13.14,
2025-08-14T23:12:44.775Z,5,GR86-051-71,-21.0,0.119,0.844,2.49,2.0,,13.015,13.37,102.16
2025-08-14T23:12:44.818Z,5,GR86-051-71,-20.3,0.098,0.851,2.49,2.0,,11.935,12.5,
2025-08-14T23:12:44.861Z,5,GR86-051-71,-20.3,0.073,0.863,2.49,2.0,,9.065,9.935,
2025-08-14T23:12:44.904Z,5,GR86-051-71,-20.200000000000003,0.052,0.84,2.49,2.0,,6.365,7.0200000000000005,
2025-08-14T23:12:44.947Z,5,GR86-051-71,-20.5,-0.011,0.893,2.5,2.0,5585.0,3.13,3.695,
2025-08-14T23:12:44.990Z,5,GR86-051-71,-30.6,-0.079,0.901,2.51,2.0,,0.0,0.0,99.76
2025-08-14T23:12:45.119Z,5,GR86-051-71,-44.0,-0.113,1.008,2.49,2.0,,0.0,0.0,
2025-08-14T23:12:45.162Z,5,GR86-051-71,-46.7,-0.112,0.965,2.48,2.0,5267.0,0.0,0.0,
2025-08-14T23:12:45.335Z,5,GR86-051-71,-46.0,-0.116,1.022,2.49,2.0,,0.0,0.0,97.55
2025-08-14T23:12:45.377Z,5,GR86-051-71,-57.900000000000006,-0.104,0.959,2.49,2.0,5230.0,0.0,0.0,
2025-08-14T23:12:45.420Z,5,GR86-051-71,-58.400000000000006,-0.117,1.012,2.49,2.0,,0.0,0.0,96.26
2025-08-14T23:12:45.464Z,5,GR86-051-71,-58.900000000000006,-0.099,0.983,2.48,2.0,,0.0,0.0,
2025-08-14T23:12:45.508Z,5,GR86-051-71,-61.0,-0.111,0.999,2.51,2.0,,0.0,0.0,
2025-08-14T23:12:45.552Z,5,GR86-051-71,-64.3,-0.096,0.969,2.48,2.0,,0.0,0.0,
2025-08-14T23:12:45.595Z,5,GR86-051-71,-68.4,-0.097,1.008,2.49,2.0,5173.0,0.0,0.0,
2025-08-14T23:12:45.638Z,5,GR86-051-71,-70.0,-0.097,1.007,2.49,2.0,,0.0,0.0,94.96
2025-08-14T23:12:45.681Z,5,GR86-051-71,-71.10000000000001,-0.103,0.997,2.49,2.0,,0.0,0.0,
2025-08-14T23:12:45.724Z,5,GR86-051-71,-72.4,-0.105,1.015,2.49,2.0,,0.0,0.0,
2025-08-14T23:12:45.768Z,5,GR86-051-71,-73.7,-0.11,0.988,2.51,2.0,,0.0,0.0,
2025-08-14T23:12:45.810Z,5,GR86-051-71,-74.60000000000001,-0.102,1.031,2.5,2.0,5098.0,0.0,0.0,
2025-08-14T23:12:45.855Z,5,GR86-051-71,-74.8,-0.103,1.009,2.5,2.0,,0.0,0.0,93.35
2025-08-14T23:12:45.898Z,5,GR86-051-71,-74.8,-0.109,1.051,2.77,2.0,,0.0,0.0,
2025-08-14T23:12:45.941Z,5,GR86-051-71,-74.8,-0.101,1.034,4.63,2.0,,0.0,0.0,
2025-08-14T23:12:45.985Z,5,GR86-051-71,-73.2,-0.118,1.066,19.67,2.0,,0.0,0.0,
2025-08-14T23:12:46.028Z,5,GR86-051-71,-69.2,-0.111,1.049,20.14,2.0,5015.0,0.0,0.0,
2025-08-14T23:12:46.071Z,5,GR86-051-71,-66.9,-0.148,1.031,20.22,2.0,,0.0,0.0,91.97
2025-08-14T23:12:46.115Z,5,GR86-051-71,-66.10000000000001,-0.169,1.038,20.76,2.0,,0.0,0.0,
2025-08-14T23:12:46.158Z,5,GR86-051-71,-65.60000000000001,-0.182,0.988,21.32,2.0,,0.0,0.0,
2025-08-14T23:12:46.201Z,5,GR86-051-71,-63.7,-0.268,1.039,21.59,2.0,,0.0,0.0,
2025-08-14T23:12:46.245Z,5,GR86-051-71,-58.900000000000006,-0.373,0.985,21.72,2.0,4930.0,0.0,0.0,
2025-08-14T23:12:46.287Z,5,GR86-051-71,-51.400000000000006,-0.33,0.989,22.59,2.0,,0.0,0.0,90.63
2025-08-14T23:12:46.330Z,5,GR86-051-71,-42.0,-0.343,0.957,24.8,2.0,,0.0,0.0,
2025-08-14T23:12:46.374Z,5,GR86-051-71,-30.1,-0.351,0.988,29.36,2.0,,0.0,0.0,
2025-08-14T23:12:46.416Z,5,GR86-051-71,-24.5,-0.364,0.928,33.660000000000004,2.0,,0.0,0.0,
2025-08-14T23:12:46.459Z,5,GR86-051-71,-20.200000000000003,-0.382,0.945,37.26,2.0,5063.0,0.0,0.0,
2025-08-14T23:12:46.503Z,5,GR86-051-71,-16.7,-0.421,0.92,40.43,2.0,,0.0,0.0,89.22
2025-08-14T23:12:46.545Z,5,GR86-051-71,-14.1,-0.444,0.92,43.78,2.0,,0.0,0.0,
2025-08-14T23:12:46.588Z,5,GR86-051-71,-14.0,-0.463,0.862,49.85,2.0,,0.0,0.0,
2025-08-14T23:12:46.631Z,5,GR86-051-71,-17.900000000000002,-0.483,0.899,58.58,2.0,,0.0,0.0,
2025-08-14T23:12:46.675Z,5,GR86-051-71,-38.2,-0.473,0.901,98.13,2.0,5165.0,0.0,0.0,
2025-08-14T23:12:46.717Z,5,GR86-051-71,-42.0,-0.476,0.895,99.56,2.0,,0.0,0.0,88.24
2025-08-14T23:12:46.760Z,5,GR86-051-71,-42.0,-0.464,0.883,99.63,2.0,,0.0,0.0,
2025-08-14T23:12:46.803Z,5,GR86-051-71,-37.6,-0.504,0.87,99.67,2.0,,0.0,0.0,
2025-08-14T23:12:46.846Z,5,GR86-051-71,-36.1,-0.503,0.88,99.66,2.0,,0.0,0.0,
2025-08-14T23:12:46.889Z,5,GR86-051-71,-36.0,-0.52,0.845,99.65,2.0,5275.0,0.0,0.0,
2025-08-14T23:12:46.932Z,5,GR86-051-71,-36.0,-0.509,0.8310000000000001,99.66,2.0,,0.0,0.0,87.88
2025-08-14T23:12:46.975Z,5,GR86-051-71,-37.0,-0.519,0.857,99.64,2.0,,0.0,0.0,
2025-08-14T23:12:47.018Z,5,GR86-051-71,-37.0,-0.51,0.88,99.68,2.0,,0.0,0.0,
2025-08-14T23:12:47.061Z,5,GR86-051-71,-37.0,-0.519,0.888,99.64,2.0,,0.0,0.0,
2025-08-14T23:12:47.105Z,5,GR86-051-71,-34.5,-0.532,0.87,99.63,2.0,5370.0,0.0,0.0,
2025-08-14T23:12:47.147Z,5,GR86-051-71,-33.800000000000004,-0.538,0.887,99.68,2.0,,0.0,0.0,88.25
2025-08-14T23:12:47.190Z,5,GR86-051-71,-33.800000000000004,-0.524,0.852,99.64,2.0,,0.0,0.0,
2025-08-14T23:12:47.234Z,5,GR86-051-71,-33.800000000000004,-0.505,0.804,99.66,2.0,,0.0,0.0,
2025-08-14T23:12:47.276Z,5,GR86-051-71,-34.0,-0.533,0.8180000000000001,99.65,2.0,,0.0,0.0,
2025-08-14T23:12:47.319Z,5,GR86-051-71,-35.1,-0.486,0.785,99.62,2.0,5446.0,0.0,0.0,
2025-08-14T23:12:47.364Z,5,GR86-051-71,-35.5,-0.476,0.8140000000000001,99.63,2.0,,0.0,0.0,90.88
2025-08-14T23:12:47.406Z,5,GR86-051-71,-35.5,-0.488,0.762,99.65,2.0,,0.0,0.0,
2025-08-14T23:12:47.449Z,5,GR86-051-71,-35.5,-0.487,0.8220000000000001,99.64,2.0,,0.0,0.0,
2025-08-14T23:12:47.492Z,5,GR86-051-71,-35.5,-0.463,0.764,99.63,2.0,,0.0,0.0,
2025-08-14T23:12:47.535Z,5,GR86-051-71,-35.5,-0.519,0.853,99.63,2.0,5516.0,0.0,0.0,
2025-08-14T23:12:47.579Z,5,GR86-051-71,-35.5,-0.522,0.8280000000000001,99.64,2.0,,0.0,0.0,92.37
2025-08-14T23:12:47.622Z,5,GR86-051-71,-30.200000000000003,-0.491,0.785,99.65,2.0,,0.0,0.0,
2025-08-14T23:12:47.665Z,5,GR86-051-71,-23.9,-0.515,0.849,99.64,2.0,,0.0,0.0,
2025-08-14T23:12:47.708Z,5,GR86-051-71,-19.6,-0.49,0.755,99.64,2.0,,0.0,0.0,
2025-08-14T23:12:47.752Z,5,GR86-051-71,-16.900000000000002,-0.493,0.843,99.64,2.0,5569.0,0.0,0.0,
2025-08-14T23:12:47.795Z,5,GR86-051-71,-14.3,-0.534,0.8130000000000001,99.63,2.0,,0.0,0.0,93.8
2025-08-14T23:12:47.838Z,5,GR86-051-71,-13.2,-0.531,0.769,99.63,2.0,,0.0,0.0,
2025-08-14T23:12:47.881Z,5,GR86-051-71,-12.1,-0.533,0.855,99.65,2.0,,0.0,0.0,
2025-08-14T23:12:47.924Z,5,GR86-051-71,-11.4,-0.579,0.789,99.66,2.0,,0.0,0.0,
2025-08-14T23:12:47.967Z,5,GR86-051-71,-11.3,-0.547,0.812,99.67,2.0,5786.0,0.0,0.0,
2025-08-14T23:12:48.010Z,5,GR86-051-71,-11.3,-0.58,0.74,99.64,2.0,,0.0,0.0,95.49
2025-08-14T23:12:48.055Z,5,GR86-051-71,-22.9,-0.546,0.738,99.65,2.0,,0.0,0.0,
2025-08-14T23:12:48.098Z,5,GR86-051-71,-29.6,-0.498,0.762,99.64,2.0,,0.0,0.0,
2025-08-14T23:12:48.141Z,5,GR86-051-71,-31.8,-0.519,0.737,99.63,2.0,,0.0,0.0,
2025-08-14T23:12:48.185Z,5,GR86-051-71,-31.8,-0.509,0.742,99.63,2.0,5844.0,0.0,0.0,
2025-08-14T23:12:48.227Z,5,GR86-051-71,-31.8,-0.527,0.6890000000000001,99.63,2.0,,0.0,0.0,97.11
2025-08-14T23:12:48.270Z,5,GR86-051-71,-31.8,-0.52,0.666,99.62,2.0,,0.0,0.0,
2025-08-14T23:12:48.314Z,5,GR86-051-71,-31.8,-0.507,0.65,99.66,2.0,,0.0,0.0,
2025-08-14T23:12:48.358Z,5,GR86-051-71,-31.3,-0.519,0.645,99.63,2.0,,0.0,0.0,
2025-08-14T23:12:48.401Z,5,GR86-051-71,-30.9,-0.501,0.654,99.63,2.0,5860.0,0.0,0.0,
2025-08-14T23:12:48.444Z,5,GR86-051-71,-30.9,-0.496,0.639,99.64,2.0,,0.0,0.0,97.59
2025-08-14T23:12:48.487Z,5,GR86-051-71,-30.9,-0.519,0.633,99.64,2.0,,0.0,0.0,
2025-08-14T23:12:48.530Z,5,GR86-051-71,-30.9,-0.479,0.628,99.63,2.0,,0.0,0.0,
2025-08-14T23:12:48.574Z,5,GR86-051-71,-34.0,-0.471,0.668,99.66,2.0,,0.0,0.0,
2025-08-14T23:12:48.617Z,5,GR86-051-71,-36.1,-0.506,0.6940000000000001,99.64,2.0,5939.0,0.0,0.0,
2025-08-14T23:12:48.660Z,5,GR86-051-71,-36.5,-0.477,0.6920000000000001,99.65,2.0,,0.0,0.0,99.31
2025-08-14T23:12:48.704Z,5,GR86-051-71,-36.5,-0.498,0.6950000000000001,99.64,2.0,,0.0,0.0,
2025-08-14T23:12:48.746Z,5,GR86-051-71,-36.2,-0.465,0.705,99.63,2.0,,0.0,0.0,
2025-08-14T23:12:48.789Z,5,GR86-051-71,-32.0,-0.484,0.734,99.64,2.0,,0.0,0.0,
2025-08-14T23:12:48.834Z,5,GR86-051-71,-30.5,-0.522,0.763,99.64,2.0,6043.0,0.0,0.0,
2025-08-14T23:12:48.878Z,5,GR86-051-71,-30.5,-0.49,0.727,99.66,2.0,,0.0,0.0,101.07
2025-08-14T23:12:48.921Z,5,GR86-051-71,-32.300000000000004,-0.485,0.783,99.64,2.0,,0.0,0.0,
2025-08-14T23:12:48.964Z,5,GR86-051-71,-33.800000000000004,-0.51,0.786,99.67,2.0,,0.0,0.0,
2025-08-14T23:12:49.007Z,5,GR86-051-71,-33.800000000000004,-0.454,0.798,99.64,2.0,,0.0,0.0,
2025-08-14T23:12:49.050Z,5,GR86-051-71,-33.800000000000004,-0.508,0.851,99.64,2.0,6157.0,0.0,0.0,
2025-08-14T23:12:49.094Z,5,GR86-051-71,-33.800000000000004,-0.526,0.834,99.65,2.0,,0.0,0.0,102.7
2025-08-14T23:12:49.137Z,5,GR86-051-71,-33.5,-0.468,0.786,99.64,2.0,,0.0,0.0,
2025-08-14T23:12:49.180Z,5,GR86-051-71,-26.700000000000003,-0.483,0.854,99.68,2.0,,0.0,0.0,
2025-08-14T23:12:49.223Z,5,GR86-051-71,-22.3,-0.53,0.777,99.67,2.0,,0.0,0.0,
2025-08-14T23:12:49.266Z,5,GR86-051-71,-22.3,-0.491,0.806,99.69,2.0,6264.0,0.0,0.0,
2025-08-14T23:12:49.309Z,5,GR86-051-71,-22.5,-0.54,0.793,99.68,2.0,,0.0,0.0,105.34
2025-08-14T23:12:49.352Z,5,GR86-051-71,-25.9,-0.473,0.728,99.68,2.0,,0.0,0.0,
2025-08-14T23:12:49.395Z,5,GR86-051-71,-26.1,-0.434,0.604,99.67,2.0,,0.0,0.0,
2025-08-14T23:12:49.438Z,5,GR86-051-71,-26.1,-0.428,0.625,99.68,2.0,,0.0,0.0,
2025-08-14T23:12:49.481Z,5,GR86-051-71,-26.0,-0.475,0.499,99.66,2.0,6351.0,0.0,0.0,
2025-08-14T23:12:49.525Z,5,GR86-051-71,-26.0,-0.412,0.508,99.67,2.0,,0.0,0.0,106.85
2025-08-14T23:12:49.568Z,5,GR86-051-71,-25.5,-0.447,0.483,99.66,2.0,,0.0,0.0,
2025-08-14T23:12:49.611Z,5,GR86-051-71,-21.200000000000003,-0.422,0.433,99.67,2.0,,0.0,0.0,
2025-08-14T23:12:49.655Z,5,GR86-051-71,-11.8,-0.5640000000000001,0.644,99.66,2.0,,0.0,0.0,
2025-08-14T23:12:49.698Z,5,GR86-051-71,-4.4,-0.5700000000000001,0.627,99.66,2.0,6423.0,0.0,0.0,
2025-08-14T23:12:49.741Z,5,GR86-051-71,0.3,-0.5650000000000001,0.705,99.67,2.0,,0.0,0.0,108.34
2025-08-14T23:12:49.784Z,5,GR86-051-71,1.3,-0.54,0.707,99.69,2.0,,0.0,0.0,
2025-08-14T23:12:49.827Z,5,GR86-051-71,1.3,-0.544,0.716,99.69,2.0,,0.0,0.0,
2025-08-14T23:12:49.870Z,5,GR86-051-71,-3.6,-0.552,0.657,99.69,2.0,,0.0,0.0,
2025-08-14T23:12:49.914Z,5,GR86-051-71,-24.4,-0.524,0.679,99.69,2.0,6591.0,0.0,0.0,
2025-08-14T23:12:49.957Z,5,GR86-051-71,-26.9,-0.425,0.561,99.67,2.0,,0.0,0.0,109.88
2025-08-14T23:12:50.000Z,5,GR86-051-71,-25.0,-0.443,0.621,99.68,2.0,,0.0,0.0,
2025-08-14T23:12:50.043Z,5,GR86-051-71,-15.1,-0.486,0.539,99.68,2.0,,0.0,0.0,
2025-08-14T23:12:50.086Z,5,GR86-051-71,-11.3,-0.538,0.47,99.69,2.0,,0.0,0.0,
2025-08-14T23:12:50.130Z,5,GR86-051-71,-11.2,-0.5740000000000001,0.506,99.68,2.0,6689.0,0.0,0.0,
2025-08-14T23:12:50.174Z,5,GR86-051-71,-11.3,-0.521,0.359,99.67,2.0,,0.0,0.0,111.73
2025-08-14T23:12:50.217Z,5,GR86-051-71,-11.3,-0.487,0.358,99.67,2.0,,0.0,0.0,
2025-08-14T23:12:50.260Z,5,GR86-051-71,-11.3,-0.372,0.322,99.64,2.0,,0.0,0.0,
2025-08-14T23:12:50.304Z,5,GR86-051-71,-10.2,-0.439,0.285,99.66,2.0,,0.0,0.0,
2025-08-14T23:12:50.346Z,5,GR86-051-71,-6.9,-0.522,0.288,99.66,2.0,6655.0,0.0,0.0,
2025-08-14T23:12:50.390Z,5,GR86-051-71,-4.800000000000001,-0.506,0.282,99.66,2.0,,0.0,0.0,113.28
2025-08-14T23:12:50.434Z,5,GR86-051-71,-4.5,-0.524,0.197,99.68,2.0,,0.0,0.0,
2025-08-14T23:12:50.476Z,5,GR86-051-71,-4.5,-0.507,0.167,99.67,2.0,,0.0,0.0,
2025-08-14T23:12:50.519Z,5,GR86-051-71,-4.5,-0.483,0.133,99.66,2.0,,0.0,0.0,
2025-08-14T23:12:50.562Z,5,GR86-051-71,-3.7,-0.56,0.203,99.65,2.0,6923.0,0.0,0.0,
2025-08-14T23:12:50.605Z,5,GR86-051-71,-2.4000000000000004,-0.543,0.109,99.67,2.0,,0.0,0.0,114.91
2025-08-14T23:12:50.648Z,5,GR86-051-71,-2.4000000000000004,-0.52,0.122,99.68,2.0,,0.0,0.0,
2025-08-14T23:12:50.691Z,5,GR86-051-71,-2.4000000000000004,-0.376,0.064,99.67,2.0,,0.0,0.0,
2025-08-14T23:12:50.735Z,5,GR86-051-71,-2.4000000000000004,-0.412,0.027,99.67,2.0,,0.0,0.0,
2025-08-14T23:12:50.777Z,5,GR86-051-71,-2.4000000000000004,-0.53,0.061,99.69,2.0,6944.0,0.0,0.0,
2025-08-14T23:12:50.820Z,5,GR86-051-71,-2.4000000000000004,-0.5660000000000001,0.018,99.66,2.0,,0.0,0.0,116.99
2025-08-14T23:12:50.864Z,5,GR86-051-71,-2.4000000000000004,-0.609,0.068,99.68,2.0,,0.0,0.0,
2025-08-14T23:12:50.908Z,5,GR86-051-71,-2.4000000000000004,-0.624,0.056,99.67,2.0,,0.0,0.0,
2025-08-14T23:12:50.952Z,5,GR86-051-71,-2.4000000000000004,-0.5670000000000001,0.007,99.67,2.0,,0.0,0.0,
2025-08-14T23:12:50.995Z,5,GR86-051-71,-2.4000000000000004,-0.404,-0.003,99.67,2.0,7106.0,0.0,0.0,
2025-08-14T23:12:51.038Z,5,GR86-051-71,-2.0,-0.205,-0.013,99.71,3.0,,0.0,0.0,118.26
2025-08-14T23:12:51.081Z,5,GR86-051-71,-1.4,-0.812,-0.023,99.69,3.0,,0.0,0.0,
2025-08-14T23:12:51.124Z,5,GR86-051-71,-1.2000000000000002,-0.64,0.077,99.68,3.0,,0.0,0.0,
2025-08-14T23:12:51.167Z,5,GR86-051-71,-1.2000000000000002,-0.5670000000000001,-0.014,99.66,3.0,,0.0,0.0,
2025-08-14T23:12:51.210Z,5,GR86-051-71,-1.2000000000000002,-0.421,-0.044,99.66,3.0,7038.0,0.0,0.0,
2025-08-14T23:12:51.255Z,5,GR86-051-71,-1.2000000000000002,-0.418,0.045,99.67,3.0,,0.0,0.0,120.64
2025-08-14T23:12:51.298Z,5,GR86-051-71,-1.0,-0.483,-0.041,99.68,3.0,,0.0,0.0,
2025-08-14T23:12:51.341Z,5,GR86-051-71,-0.7000000000000001,-0.49,0.034,99.67,3.0,,0.0,0.0,
2025-08-14T23:12:51.385Z,5,GR86-051-71,-0.6000000000000001,-0.477,0.021,99.71,3.0,,0.0,0.0,
2025-08-14T23:12:51.428Z,5,GR86-051-71,-0.6000000000000001,-0.444,-0.027,99.69,3.0,5935.0,0.0,0.0,
2025-08-14T23:12:51.471Z,5,GR86-051-71,-0.6000000000000001,-0.459,0.019,99.68,3.0,,0.0,0.0,122.01
2025-08-14T23:12:51.514Z,5,GR86-051-71,-0.6000000000000001,-0.478,-0.013,99.69,3.0,,0.0,0.0,
2025-08-14T23:12:51.557Z,5,GR86-051-71,-0.4,-0.477,0.01,99.67,3.0,,0.0,0.0,
2025-08-14T23:12:51.600Z,5,GR86-051-71,-0.2,-0.472,0.006,99.69,3.0,,0.0,0.0,
2025-08-14T23:12:51.643Z,5,GR86-051-71,-0.1,-0.465,0.002,99.69,3.0,5904.0,0.0,0.0,
2025-08-14T23:12:51.686Z,5,GR86-051-71,-0.1,-0.45,0.001,99.69,3.0,,0.0,0.0,123.76
2025-08-14T23:12:51.730Z,5,GR86-051-71,0.0,-0.484,0.006,99.68,3.0,,0.0,0.0,
2025-08-14T23:12:51.772Z,5,GR86-051-71,0.1,-0.49,-0.017,99.67,3.0,,0.0,0.0,
2025-08-14T23:12:51.815Z,5,GR86-051-71,1.0,-0.466,-0.001,99.69,3.0,,0.0,0.0,
2025-08-14T23:12:51.858Z,5,GR86-051-71,1.6,-0.456,-0.005,99.67,3.0,5964.0,0.0,0.0,
2025-08-14T23:12:51.901Z,5,GR86-051-71,1.8,-0.452,-0.024,99.68,3.0,,0.0,0.0,125.26
2025-08-14T23:12:51.944Z,5,GR86-051-71,1.8,-0.439,-0.037,99.69,3.0,,0.0,0.0,
2025-08-14T23:12:51.987Z,5,GR86-051-71,1.8,-0.451,-0.032,99.69,3.0,,0.0,0.0,
2025-08-14T23:12:52.030Z,5,GR86-051-71,1.8,-0.469,-0.021,99.67,3.0,,0.0,0.0,
2025-08-14T23:12:52.074Z,5,GR86-051-71,1.8,-0.46,-0.02,99.66,3.0,6020.0,0.0,0.0,
2025-08-14T23:12:52.116Z,5,GR86-051-71,1.8,-0.46,-0.029,99.67,3.0,,0.0,0.0,126.7
2025-08-14T23:12:52.159Z,5,GR86-051-71,1.8,-0.437,-0.037,99.67,3.0,,0.0,0.0,
2025-08-14T23:12:52.202Z,5,GR86-051-71,1.8,-0.437,-0.015,99.68,3.0,,0.0,0.0,
2025-08-14T23:12:52.245Z,5,GR86-051-71,1.8,-0.469,-0.01,99.67,3.0,,0.0,0.0,
2025-08-14T23:12:52.288Z,5,GR86-051-71,1.8,-0.459,-0.027,99.66,3.0,6091.0,0.0,0.0,
2025-08-14T23:12:52.331Z,5,GR86-051-71,1.8,-0.459,-0.026,99.69,3.0,,0.0,0.0,128.1
2025-08-14T23:12:52.375Z,5,GR86-051-71,1.8,-0.449,-0.029,99.69,3.0,,0.0,0.0,
2025-08-14T23:12:52.417Z,5,GR86-051-71,1.8,-0.439,-0.009,99.66,3.0,,0.0,0.0,
2025-08-14T23:12:52.460Z,5,GR86-051-71,1.8,-0.462,0.003,99.72,3.0,,0.0,0.0,
2025-08-14T23:12:52.504Z,5,GR86-051-71,1.8,-0.456,-0.019,99.69,3.0,6149.0,0.0,0.0,
2025-08-14T23:12:52.546Z,5,GR86-051-71,1.8,-0.447,0.0,99.68,3.0,,0.0,0.0,129.46
2025-08-14T23:12:52.589Z,5,GR86-051-71,1.8,-0.447,0.031,99.67,3.0,,0.0,0.0,
2025-08-14T23:12:52.632Z,5,GR86-051-71,1.8,-0.473,0.03,99.67,3.0,,0.0,0.0,
2025-08-14T23:12:52.675Z,5,GR86-051-71,1.8,-0.477,0.047,99.69,3.0,,0.0,0.0,
2025-08-14T23:12:52.718Z,5,GR86-051-71,1.8,-0.485,0.027,99.69,3.0,6224.0,0.0,0.0,
2025-08-14T23:12:52.761Z,5,GR86-051-71,1.8,-0.472,0.027,99.7,3.0,,0.0,0.0,132.17000000000002
2025-08-14T23:12:52.804Z,5,GR86-051-71,1.8,-0.458,0.044,99.67,3.0,,0.0,0.0,
2025-08-14T23:12:52.847Z,5,GR86-051-71,2.1,-0.467,0.019,99.69,3.0,,0.0,0.0,
2025-08-14T23:12:52.890Z,5,GR86-051-71,2.1,-0.467,0.001,99.67,3.0,,0.0,0.0,
2025-08-14T23:12:52.934Z,5,GR86-051-71,2.1,-0.481,0.005,99.66,3.0,6287.0,0.0,0.0,
2025-08-14T23:12:52.976Z,5,GR86-051-71,2.1,-0.472,-0.018,99.69,3.0,,0.0,0.0,133.56
2025-08-14T23:12:53.020Z,5,GR86-051-71,2.2,-0.44,-0.018,99.68,3.0,,0.0,0.0,
2025-08-14T23:12:53.064Z,5,GR86-051-71,2.2,-0.446,-0.018,99.7,3.0,,0.0,0.0,
2025-08-14T23:12:53.106Z,5,GR86-051-71,2.2,-0.466,-0.05,99.69,3.0,,0.0,0.0,
2025-08-14T23:12:53.149Z,5,GR86-051-71,2.2,-0.463,-0.072,99.69,3.0,6341.0,0.0,0.0,
2025-08-14T23:12:53.194Z,5,GR86-051-71,2.2,-0.481,-0.052,99.7,3.0,,0.0,0.0,134.9
2025-08-14T23:12:53.236Z,5,GR86-051-71,2.2,-0.439,-0.06,99.7,3.0,,0.0,0.0,
2025-08-14T23:12:53.279Z,5,GR86-051-71,2.2,-0.436,-0.029,99.69,3.0,,0.0,0.0,
2025-08-14T23:12:53.322Z,5,GR86-051-71,2.2,-0.442,-0.039,99.7,3.0,,0.0,0.0,
2025-08-14T23:12:53.365Z,5,GR86-051-71,2.2,-0.45,-0.06,99.7,3.0,6450.0,0.0,0.0,
2025-08-14T23:12:53.408Z,5,GR86-051-71,2.2,-0.457,-0.057,99.7,3.0,,0.0,0.0,136.24
2025-08-14T23:12:53.452Z,5,GR86-051-71,2.2,-0.448,-0.036,99.69,3.0,,0.0,0.0,
2025-08-14T23:12:53.495Z,5,GR86-051-71,2.2,-0.45,-0.04,99.69,3.0,,0.0,0.0,
2025-08-14T23:12:53.538Z,5,GR86-051-71,2.2,-0.43,-0.026,99.69,3.0,,0.0,0.0,
2025-08-14T23:12:53.581Z,5,GR86-051-71,2.2,-0.437,-0.016,99.72,3.0,6514.0,0.0,0.0,
2025-08-14T23:12:53.625Z,5,GR86-051-71,2.2,-0.461,-0.015,99.69,3.0,,0.0,0.0,137.46
2025-08-14T23:12:53.667Z,5,GR86-051-71,2.2,-0.456,-0.004,99.69,3.0,,0.0,0.0,
2025-08-14T23:12:53.710Z,5,GR86-051-71,2.2,-0.435,0.01,99.67,3.0,,0.0,0.0,
2025-08-14T23:12:53.755Z,5,GR86-051-71,2.2,-0.441,-0.001,99.69,3.0,,0.0,0.0,
2025-08-14T23:12:53.798Z,5,GR86-051-71,2.2,-0.458,0.014,99.7,3.0,6572.0,0.0,0.0,
2025-08-14T23:12:53.841Z,5,GR86-051-71,2.2,-0.454,0.009,99.69,3.0,,0.0,0.0,138.74
2025-08-14T23:12:53.884Z,5,GR86-051-71,2.2,-0.438,0.003,99.68,3.0,,0.0,0.0,
2025-08-14T23:12:53.927Z,5,GR86-051-71,2.2,-0.428,0.016,99.69,3.0,,0.0,0.0,
2025-08-14T23:12:53.970Z,5,GR86-051-71,2.2,-0.433,0.037,99.69,3.0,,0.0,0.0,
2025-08-14T23:12:54.015Z,5,GR86-051-71,2.2,-0.431,0.024,99.7,3.0,6633.0,0.0,0.0,
2025-08-14T23:12:54.058Z,5,GR86-051-71,2.2,-0.436,0.041,99.71,3.0,,0.0,0.0,140.0
2025-08-14T23:12:54.101Z,5,GR86-051-71,2.2,-0.444,0.018,99.69,3.0,,0.0,0.0,
2025-08-14T23:12:54.144Z,5,GR86-051-71,2.2,-0.431,0.006,99.7,3.0,,0.0,0.0,
2025-08-14T23:12:54.187Z,5,GR86-051-71,2.2,-0.432,0.016,99.66,3.0,,0.0,0.0,
2025-08-14T23:12:54.230Z,5,GR86-051-71,2.2,-0.43,0.03,99.7,3.0,6692.0,0.0,0.0,
2025-08-14T23:12:54.274Z,5,GR86-051-71,2.2,-0.42,0.023,99.69,3.0,,0.0,0.0,141.28
2025-08-14T23:12:54.317Z,5,GR86-051-71,2.2,-0.431,0.028,99.66,3.0,,0.0,0.0,
2025-08-14T23:12:54.360Z,5,GR86-051-71,2.2,-0.445,0.03,99.67,3.0,,0.0,0.0,
2025-08-14T23:12:54.404Z,5,GR86-051-71,2.2,-0.428,0.006,99.69,3.0,,0.0,0.0,
2025-08-14T23:12:54.446Z,5,GR86-051-71,2.2,-0.428,-0.003,99.7,3.0,6744.0,0.0,0.0,
2025-08-14T23:12:54.489Z,5,GR86-051-71,2.2,-0.423,0.002,99.7,3.0,,0.0,0.0,142.38
2025-08-14T23:12:54.535Z,5,GR86-051-71,2.2,-0.429,-0.008,99.69,3.0,,0.0,0.0,
2025-08-14T23:12:54.578Z,5,GR86-051-71,2.2,-0.408,-0.002,99.7,3.0,,0.0,0.0,
2025-08-14T23:12:54.621Z,5,GR86-051-71,2.2,-0.418,0.033,99.7,3.0,,0.0,0.0,
2025-08-14T23:12:54.664Z,5,GR86-051-71,2.2,-0.448,0.034,99.67,3.0,6800.0,0.0,0.0,
2025-08-14T23:12:54.707Z,5,GR86-051-71,2.2,-0.456,0.029,99.69,3.0,,0.0,0.0,143.6
2025-08-14T23:12:54.750Z,5,GR86-051-71,2.2,-0.434,0.008,99.69,3.0,,0.0,0.0,
2025-08-14T23:12:54.794Z,5,GR86-051-71,2.2,-0.439,0.027,99.67,3.0,,0.0,0.0,
2025-08-14T23:12:54.836Z,5,GR86-051-71,2.2,-0.439,0.001,99.7,3.0,,0.0,0.0,
2025-08-14T23:12:54.879Z,5,GR86-051-71,2.2,-0.401,0.014,99.69,3.0,6856.0,0.0,0.0,
2025-08-14T23:12:54.922Z,5,GR86-051-71,2.2,-0.401,0.042,99.7,3.0,,0.0,0.0,144.81
2025-08-14T23:12:54.965Z,5,GR86-051-71,2.2,-0.423,0.057,99.68,3.0,,0.0,0.0,
2025-08-14T23:12:55.008Z,5,GR86-051-71,2.2,-0.451,0.046,99.69,3.0,,0.0,0.0,
2025-08-14T23:12:55.051Z,5,GR86-051-71,2.1,-0.457,0.04,99.68,3.0,,0.0,0.0,
2025-08-14T23:12:55.095Z,5,GR86-051-71,1.0,-0.468,0.08,99.68,3.0,6913.0,0.0,0.0,
2025-08-14T23:12:55.137Z,5,GR86-051-71,0.7000000000000001,-0.438,0.068,99.69,3.0,,0.0,0.0,145.92000000000002
2025-08-14T23:12:55.180Z,5,GR86-051-71,0.6000000000000001,-0.406,0.087,99.68,3.0,,0.0,0.0,
2025-08-14T23:12:55.266Z,5,GR86-051-71,0.6000000000000001,-0.403,0.125,99.67,3.0,,0.0,0.0,
2025-08-14T23:12:55.309Z,5,GR86-051-71,0.6000000000000001,-0.429,0.143,99.68,3.0,6970.0,0.0,0.0,
2025-08-14T23:12:55.352Z,5,GR86-051-71,0.6000000000000001,-0.46,0.129,99.69,3.0,,0.0,0.0,147.11
2025-08-14T23:12:55.395Z,5,GR86-051-71,0.6000000000000001,-0.448,0.162,99.69,3.0,,0.0,0.0,
2025-08-14T23:12:55.438Z,5,GR86-051-71,0.6000000000000001,-0.468,0.147,99.69,3.0,,0.0,0.0,
2025-08-14T23:12:55.481Z,5,GR86-051-71,0.6000000000000001,-0.46,0.144,99.69,3.0,,0.0,0.0,
2025-08-14T23:12:55.524Z,5,GR86-051-71,0.6000000000000001,-0.433,0.138,99.67,3.0,7013.0,0.0,0.0,
2025-08-14T23:12:55.567Z,5,GR86-051-71,0.6000000000000001,-0.41,0.133,99.7,3.0,,0.0,0.0,149.44
2025-08-14T23:12:55.610Z,5,GR86-051-71,0.6000000000000001,-0.401,0.146,99.69,3.0,,0.0,0.0,
2025-08-14T23:12:55.655Z,5,GR86-051-71,0.6000000000000001,-0.426,0.108,99.67,3.0,,0.0,0.0,
2025-08-14T23:12:55.698Z,5,GR86-051-71,0.6000000000000001,-0.407,0.128,99.69,3.0,,0.0,0.0,
2025-08-14T23:12:55.741Z,5,GR86-051-71,0.6000000000000001,-0.235,0.142,99.67,3.0,7077.0,0.0,0.0,
2025-08-14T23:12:55.784Z,5,GR86-051-71,0.6000000000000001,-0.238,0.076,99.68,4.0,,0.0,0.0,150.72
2025-08-14T23:12:55.827Z,5,GR86-051-71,0.6000000000000001,-0.655,0.119,99.7,4.0,,0.0,0.0,
2025-08-14T23:12:55.870Z,5,GR86-051-71,0.6000000000000001,-0.43,0.132,99.7,4.0,,0.0,0.0,
2025-08-14T23:12:55.914Z,5,GR86-051-71,0.6000000000000001,-0.35,0.053,99.7,4.0,,0.0,0.0,
2025-08-14T23:12:55.957Z,5,GR86-051-71,0.6000000000000001,-0.405,0.109,99.71,4.0,6858.0,0.0,0.0,
2025-08-14T23:12:56.000Z,5,GR86-051-71,0.6000000000000001,-0.423,0.102,99.72,4.0,,0.0,0.0,151.79
2025-08-14T23:12:56.043Z,5,GR86-051-71,0.6000000000000001,-0.393,0.071,99.71,4.0,,0.0,0.0,
2025-08-14T23:12:56.086Z,5,GR86-051-71,0.6000000000000001,-0.358,0.128,99.67,4.0,,0.0,0.0,
2025-08-14T23:12:56.130Z,5,GR86-051-71,0.6000000000000001,-0.356,0.108,99.67,4.0,,0.0,0.0,
2025-08-14T23:12:56.174Z,5,GR86-051-71,0.6000000000000001,-0.372,0.102,99.67,4.0,6089.0,0.0,0.0,
2025-08-14T23:12:56.216Z,5,GR86-051-71,0.6000000000000001,-0.381,0.128,99.68,4.0,,0.0,0.0,152.64
2025-08-14T23:12:56.259Z,5,GR86-051-71,0.6000000000000001,-0.394,0.096,99.69,4.0,,0.0,0.0,
2025-08-14T23:12:56.302Z,5,GR86-051-71,0.6000000000000001,-0.381,0.113,99.69,4.0,,0.0,0.0,
2025-08-14T23:12:56.345Z,5,GR86-051-71,0.6000000000000001,-0.383,0.091,99.67,4.0,,0.0,0.0,
2025-08-14T23:12:56.389Z,5,GR86-051-71,0.6000000000000001,-0.383,0.099,99.68,4.0,6107.0,0.0,0.0,
2025-08-14T23:12:56.432Z,5,GR86-051-71,0.6000000000000001,-0.385,0.104,99.68,4.0,,0.0,0.0,153.58
2025-08-14T23:12:56.475Z,5,GR86-051-71,0.6000000000000001,-0.385,0.092,99.71,4.0,,0.0,0.0,
2025-08-14T23:12:56.518Z,5,GR86-051-71,0.6000000000000001,-0.373,0.104,99.69,4.0,,0.0,0.0,
2025-08-14T23:12:56.561Z,5,GR86-051-71,0.6000000000000001,-0.375,0.111,99.69,4.0,,0.0,0.0,
2025-08-14T23:12:56.604Z,5,GR86-051-71,0.6000000000000001,-0.381,0.125,99.69,4.0,6144.0,0.0,0.0,
2025-08-14T23:12:56.648Z,5,GR86-051-71,0.6000000000000001,-0.373,0.137,99.68,4.0,,0.0,0.0,154.5
2025-08-14T23:12:56.690Z,5,GR86-051-71,0.6000000000000001,-0.387,0.129,99.69,4.0,,0.0,0.0,
2025-08-14T23:12:56.734Z,5,GR86-051-71,0.6000000000000001,-0.383,0.139,99.7,4.0,,0.0,0.0,
2025-08-14T23:12:56.777Z,5,GR86-051-71,0.6000000000000001,-0.399,0.155,99.7,4.0,,0.0,0.0,
2025-08-14T23:12:56.820Z,5,GR86-051-71,0.6000000000000001,-0.412,0.141,99.67,4.0,6186.0,0.0,0.0,
2025-08-14T23:12:56.864Z,5,GR86-051-71,0.6000000000000001,-0.403,0.142,99.69,4.0,,0.0,0.0,155.5
2025-08-14T23:12:56.908Z,5,GR86-051-71,0.6000000000000001,-0.364,0.121,99.69,4.0,,0.0,0.0,
2025-08-14T23:12:56.952Z,5,GR86-051-71,0.6000000000000001,-0.344,0.121,99.67,4.0,,0.0,0.0,
2025-08-14T23:12:56.995Z,5,GR86-051-71,0.6000000000000001,-0.396,0.137,99.67,4.0,,0.0,0.0,
2025-08-14T23:12:57.038Z,5,GR86-051-71,0.6000000000000001,-0.397,0.125,99.69,4.0,6231.0,0.0,0.0,
2025-08-14T23:12:57.081Z,5,GR86-051-71,0.6000000000000001,-0.386,0.121,99.69,4.0,,0.0,0.0,156.41
2025-08-14T23:12:57.124Z,5,GR86-051-71,0.6000000000000001,-0.368,0.125,99.69,4.0,,0.0,0.0,
2025-08-14T23:12:57.168Z,5,GR86-051-71,0.6000000000000001,-0.366,0.128,99.69,4.0,,0.0,0.0,
2025-08-14T23:12:57.210Z,5,GR86-051-71,0.6000000000000001,-0.386,0.162,99.7,4.0,,0.0,0.0,
2025-08-14T23:12:57.255Z,5,GR86-051-71,-1.2000000000000002,-0.375,0.143,99.7,4.0,6255.0,0.0,0.0,
2025-08-14T23:12:57.298Z,5,GR86-051-71,-2.4000000000000004,-0.35,0.166,99.71,4.0,,0.0,0.0,157.43
2025-08-14T23:12:57.341Z,5,GR86-051-71,-2.8000000000000003,-0.342,0.186,99.69,4.0,,0.0,0.0,
2025-08-14T23:12:57.385Z,5,GR86-051-71,-2.8000000000000003,-0.356,0.203,99.69,4.0,,0.0,0.0,
2025-08-14T23:12:57.428Z,5,GR86-051-71,-2.8000000000000003,-0.365,0.209,99.7,4.0,,0.0,0.0,
2025-08-14T23:12:57.471Z,5,GR86-051-71,-2.8000000000000003,-0.396,0.226,99.7,4.0,6300.0,0.0,0.0,
2025-08-14T23:12:57.514Z,5,GR86-051-71,-2.8000000000000003,-0.401,0.237,99.7,4.0,,0.0,0.0,158.39
2025-08-14T23:12:57.557Z,5,GR86-051-71,-2.8000000000000003,-0.385,0.265,99.69,4.0,,0.0,0.0,
2025-08-14T23:12:57.600Z,5,GR86-051-71,-2.8000000000000003,-0.377,0.256,99.7,4.0,,0.0,0.0,
2025-08-14T23:12:57.643Z,5,GR86-051-71,-2.8000000000000003,-0.404,0.26,99.67,4.0,,0.0,0.0,
2025-08-14T23:12:57.686Z,5,GR86-051-71,-2.8000000000000003,-0.423,0.26,99.71,4.0,6339.0,0.0,0.0,
2025-08-14T23:12:57.730Z,5,GR86-051-71,-2.8000000000000003,-0.417,0.225,99.69,4.0,,0.0,0.0,159.48
2025-08-14T23:12:57.774Z,5,GR86-051-71,-2.8000000000000003,-0.367,0.252,99.71,4.0,,0.0,0.0,
2025-08-14T23:12:57.816Z,5,GR86-051-71,-2.8000000000000003,-0.375,0.256,99.71,4.0,,0.0,0.0,
2025-08-14T23:12:57.859Z,5,GR86-051-71,-2.8000000000000003,-0.397,0.236,99.69,4.0,,0.0,0.0,
2025-08-14T23:12:57.902Z,5,GR86-051-71,-2.8000000000000003,-0.372,0.206,99.71,4.0,6380.0,0.0,0.0,
2025-08-14T23:12:57.945Z,5,GR86-051-71,-2.8000000000000003,-0.38,0.205,99.7,4.0,,0.0,0.0,160.49
2025-08-14T23:12:57.988Z,5,GR86-051-71,-2.8000000000000003,-0.385,0.215,99.69,4.0,,0.0,0.0,
2025-08-14T23:12:58.032Z,5,GR86-051-71,-2.8000000000000003,-0.405,0.245,99.72,4.0,,0.0,0.0,
2025-08-14T23:12:58.075Z,5,GR86-051-71,-2.8000000000000003,-0.424,0.239,99.71,4.0,,0.0,0.0,
2025-08-14T23:12:58.118Z,5,GR86-051-71,-2.8000000000000003,-0.423,0.246,99.69,4.0,6412.0,0.0,0.0,
2025-08-14T23:12:58.161Z,5,GR86-051-71,-2.8000000000000003,-0.413,0.245,99.7,4.0,,0.0,0.0,162.38
2025-08-14T23:12:58.204Z,5,GR86-051-71,-2.8000000000000003,-0.418,0.258,99.68,4.0,,0.0,0.0,
2025-08-14T23:12:58.247Z,5,GR86-051-71,-2.8000000000000003,-0.405,0.229,99.68,4.0,,0.0,0.0,
2025-08-14T23:12:58.290Z,5,GR86-051-71,-2.8000000000000003,-0.387,0.24,99.72,4.0,,0.0,0.0,
2025-08-14T23:12:58.334Z,5,GR86-051-71,-2.8000000000000003,-0.387,0.178,99.7,4.0,6460.0,0.0,0.0,
2025-08-14T23:12:58.376Z,5,GR86-051-71,-2.8000000000000003,-0.39,0.192,99.7,4.0,,0.0,0.0,163.61
2025-08-14T23:12:58.420Z,5,GR86-051-71,-2.8000000000000003,-0.385,0.168,99.7,4.0,,0.0,0.0,
2025-08-14T23:12:58.464Z,5,GR86-051-71,-2.8000000000000003,-0.391,0.178,99.67,4.0,,0.0,0.0,
2025-08-14T23:12:58.506Z,5,GR86-051-71,-2.8000000000000003,-0.384,0.198,99.71,4.0,,0.0,0.0,
2025-08-14T23:12:58.549Z,5,GR86-051-71,-2.8000000000000003,-0.378,0.182,99.69,4.0,6495.0,0.0,0.0,
2025-08-14T23:12:58.592Z,5,GR86-051-71,-2.8000000000000003,-0.36,0.19,99.69,4.0,,0.0,0.0,164.69
2025-08-14T23:12:58.635Z,5,GR86-051-71,-2.8000000000000003,-0.364,0.171,99.7,4.0,,0.0,0.0,
2025-08-14T23:12:58.678Z,5,GR86-051-71,-2.8000000000000003,-0.387,0.198,99.71,4.0,,0.0,0.0,
2025-08-14T23:12:58.721Z,5,GR86-051-71,-2.8000000000000003,-0.402,0.246,99.69,4.0,,0.0,0.0,
2025-08-14T23:12:58.764Z,5,GR86-051-71,-2.8000000000000003,-0.416,0.262,99.67,4.0,6572.0,0.0,0.0,
2025-08-14T23:12:58.807Z,5,GR86-051-71,-2.8000000000000003,-0.412,0.268,99.68,4.0,,0.0,0.0,165.57
2025-08-14T23:12:58.850Z,5,GR86-051-71,-2.8000000000000003,-0.385,0.251,99.69,4.0,,0.0,0.0,
2025-08-14T23:12:58.894Z,5,GR86-051-71,-2.8000000000000003,-0.343,0.248,99.69,4.0,,0.0,0.0,
2025-08-14T23:12:58.936Z,5,GR86-051-71,-2.8000000000000003,-0.344,0.251,99.69,4.0,,0.0,0.0,
2025-08-14T23:12:58.979Z,5,GR86-051-71,-2.8000000000000003,-0.346,0.276,99.69,4.0,6618.0,0.0,0.0,
2025-08-14T23:12:59.022Z,5,GR86-051-71,-2.8000000000000003,-0.375,0.258,99.7,4.0,,0.0,0.0,166.46
2025-08-14T23:12:59.065Z,5,GR86-051-71,-2.8000000000000003,-0.402,0.277,99.71,4.0,,0.0,0.0,
2025-08-14T23:12:59.108Z,5,GR86-051-71,-2.8000000000000003,-0.421,0.298,99.7,4.0,,0.0,0.0,
2025-08-14T23:12:59.152Z,5,GR86-051-71,-2.8000000000000003,-0.424,0.288,99.7,4.0,,0.0,0.0,
2025-08-14T23:12:59.195Z,5,GR86-051-71,-2.8000000000000003,-0.38,0.318,99.7,4.0,6669.0,0.0,0.0,
2025-08-14T23:12:59.238Z,5,GR86-051-71,-2.8000000000000003,-0.415,0.311,99.71,4.0,,0.0,0.0,167.44
2025-08-14T23:12:59.281Z,5,GR86-051-71,-2.8000000000000003,-0.415,0.304,99.7,4.0,,0.0,0.0,
2025-08-14T23:12:59.324Z,5,GR86-051-71,-2.8000000000000003,-0.392,0.271,99.68,4.0,,0.0,0.0,
2025-08-14T23:12:59.367Z,5,GR86-051-71,-2.8000000000000003,-0.368,0.238,99.67,4.0,,0.0,0.0,
2025-08-14T23:12:59.410Z,5,GR86-051-71,-2.8000000000000003,-0.35,0.221,99.7,4.0,6692.0,0.0,0.0,
2025-08-14T23:12:59.455Z,5,GR86-051-71,-2.8000000000000003,-0.347,0.19,99.69,4.0,,0.0,0.0,168.48
2025-08-14T23:12:59.498Z,5,GR86-051-71,-2.8000000000000003,-0.384,0.183,99.7,4.0,,0.0,0.0,
2025-08-14T23:12:59.541Z,5,GR86-051-71,-2.3000000000000003,-0.4,0.205,99.69,4.0,,0.0,0.0,
2025-08-14T23:12:59.584Z,5,GR86-051-71,-2.3000000000000003,-0.386,0.181,99.71,4.0,,0.0,0.0,
2025-08-14T23:12:59.627Z,5,GR86-051-71,-2.3000000000000003,-0.383,0.185,99.69,4.0,6714.0,0.0,0.0,
2025-08-14T23:12:59.670Z,5,GR86-051-71,-2.3000000000000003,-0.394,0.174,99.69,4.0,,0.0,0.0,169.61
2025-08-14T23:12:59.715Z,5,GR86-051-71,-2.3000000000000003,-0.387,0.137,99.69,4.0,,0.0,0.0,
2025-08-14T23:12:59.758Z,5,GR86-051-71,-2.3000000000000003,-0.363,0.118,99.67,4.0,,0.0,0.0,
2025-08-14T23:12:59.801Z,5,GR86-051-71,-2.3000000000000003,-0.334,0.115,99.67,4.0,,0.0,0.0,
2025-08-14T23:12:59.844Z,5,GR86-051-71,-2.3000000000000003,-0.353,0.11,99.68,4.0,6774.0,0.0,0.0,
2025-08-14T23:12:59.887Z,5,GR86-051-71,-2.3000000000000003,-0.365,0.102,99.71,4.0,,0.0,0.0,170.29
2025-08-14T23:12:59.930Z,5,GR86-051-71,-2.3000000000000003,-0.37,0.107,99.71,4.0,,0.0,0.0,
2025-08-14T23:13:00.017Z,5,GR86-051-71,-2.3000000000000003,-0.387,0.087,99.69,4.0,,0.0,0.0,
2025-08-14T23:13:00.060Z,5,GR86-051-71,-2.3000000000000003,-0.395,0.098,99.7,4.0,6788.0,0.0,0.0,
2025-08-14T23:13:00.104Z,5,GR86-051-71,-2.3000000000000003,-0.386,0.113,99.68,4.0,,0.0,0.0,171.46
2025-08-14T23:13:00.146Z,5,GR86-051-71,-2.3000000000000003,-0.363,0.119,99.68,4.0,,0.0,0.0,
2025-08-14T23:13:00.189Z,5,GR86-051-71,-2.3000000000000003,-0.341,0.131,99.7,4.0,,0.0,0.0,
2025-08-14T23:13:00.232Z,5,GR86-051-71,-2.3000000000000003,-0.356,0.133,99.69,4.0,,0.0,0.0,
2025-08-14T23:13:00.275Z,5,GR86-051-71,-2.3000000000000003,-0.37,0.111,99.7,4.0,6842.0,0.0,0.0,
2025-08-14T23:13:00.318Z,5,GR86-051-71,-2.3000000000000003,-0.352,0.101,99.68,4.0,,0.0,0.0,172.35
2025-08-14T23:13:00.361Z,5,GR86-051-71,-2.3000000000000003,-0.356,0.1,99.7,4.0,,0.0,0.0,
2025-08-14T23:13:00.404Z,5,GR86-051-71,-2.3000000000000003,-0.386,0.119,99.71,4.0,,0.0,0.0,
2025-08-14T23:13:00.447Z,5,GR86-051-71,-2.3000000000000003,-0.411,0.107,99.67,4.0,,0.0,0.0,
2025-08-14T23:13:00.490Z,5,GR86-051-71,-2.3000000000000003,-0.416,0.124,99.68,4.0,6873.0,0.0,0.0,
2025-08-14T23:13:00.535Z,5,GR86-051-71,-2.3000000000000003,-0.381,0.17,99.68,4.0,,0.0,0.0,173.38
2025-08-14T23:13:00.578Z,5,GR86-051-71,-2.3000000000000003,-0.379,0.182,99.69,4.0,,0.0,0.0,
2025-08-14T23:13:00.621Z,5,GR86-051-71,-2.3000000000000003,-0.378,0.16,99.67,4.0,,0.0,0.0,
2025-08-14T23:13:00.665Z,5,GR86-051-71,-2.3000000000000003,-0.387,0.153,99.7,4.0,,0.0,0.0,
2025-08-14T23:13:00.707Z,5,GR86-051-71,-2.3000000000000003,-0.392,0.152,99.69,4.0,6926.0,0.0,0.0,
2025-08-14T23:13:00.750Z,5,GR86-051-71,-2.3000000000000003,-0.402,0.15,99.68,4.0,,0.0,0.0,174.23
2025-08-14T23:13:00.794Z,5,GR86-051-71,-2.3000000000000003,-0.362,0.149,99.7,4.0,,0.0,0.0,
2025-08-14T23:13:00.836Z,5,GR86-051-71,-2.3000000000000003,-0.331,0.135,99.7,4.0,,0.0,0.0,
2025-08-14T23:13:00.879Z,5,GR86-051-71,-2.3000000000000003,-0.358,0.14,99.69,4.0,,0.0,0.0,
2025-08-14T23:13:00.922Z,5,GR86-051-71,-2.3000000000000003,-0.383,0.143,99.71,4.0,6940.0,0.0,0.0,
2025-08-14T23:13:00.965Z,5,GR86-051-71,-2.3000000000000003,-0.378,0.157,99.7,4.0,,0.0,0.0,176.16
2025-08-14T23:13:01.009Z,5,GR86-051-71,-2.3000000000000003,-0.36,0.147,99.69,4.0,,0.0,0.0,
2025-08-14T23:13:01.052Z,5,GR86-051-71,-2.3000000000000003,-0.368,0.155,99.71,4.0,,0.0,0.0,
2025-08-14T23:13:01.095Z,5,GR86-051-71,-2.3000000000000003,-0.409,0.157,99.7,4.0,,0.0,0.0,
2025-08-14T23:13:01.138Z,5,GR86-051-71,-2.3000000000000003,-0.396,0.147,99.7,4.0,6981.0,0.0,0.0,
2025-08-14T23:13:01.181Z,5,GR86-051-71,-2.3000000000000003,-0.382,0.152,99.69,4.0,,0.0,0.0,176.95000000000002
2025-08-14T23:13:01.224Z,5,GR86-051-71,-2.3000000000000003,-0.354,0.133,99.68,4.0,,0.0,0.0,
2025-08-14T23:13:01.267Z,5,GR86-051-71,-2.3000000000000003,-0.359,0.153,99.7,4.0,,0.0,0.0,
2025-08-14T23:13:01.310Z,5,GR86-051-71,-2.3000000000000003,-0.378,0.133,99.71,4.0,,0.0,0.0,
2025-08-14T23:13:01.355Z,5,GR86-051-71,-2.3000000000000003,-0.372,0.124,99.69,4.0,7040.0,0.0,0.0,
2025-08-14T23:13:01.398Z,5,GR86-051-71,-2.3000000000000003,-0.352,0.139,99.69,4.0,,0.0,0.0,177.95000000000002
2025-08-14T23:13:01.441Z,5,GR86-051-71,-2.3000000000000003,-0.366,0.16,99.68,4.0,,0.0,0.0,
2025-08-14T23:13:01.484Z,5,GR86-051-71,-2.3000000000000003,-0.356,0.153,99.7,4.0,,0.0,0.0,
2025-08-14T23:13:01.527Z,5,GR86-051-71,-2.3000000000000003,-0.363,0.175,99.7,4.0,,0.0,0.0,
2025-08-14T23:13:01.570Z,5,GR86-051-71,-2.3000000000000003,-0.377,0.172,99.69,4.0,7084.0,0.0,0.0,
2025-08-14T23:13:01.614Z,5,GR86-051-71,-2.3000000000000003,-0.331,0.182,99.71,4.0,,0.0,0.0,178.73
2025-08-14T23:13:01.657Z,5,GR86-051-71,-2.3000000000000003,-0.344,0.182,99.66,4.0,,0.0,0.0,
2025-08-14T23:13:01.700Z,5,GR86-051-71,-2.3000000000000003,-0.359,0.187,99.69,4.0,,0.0,0.0,
2025-08-14T23:13:01.743Z,5,GR86-051-71,-2.3000000000000003,-0.365,0.212,99.67,4.0,,0.0,0.0,
2025-08-14T23:13:01.786Z,5,GR86-051-71,-2.3000000000000003,-0.357,0.209,99.66,4.0,7122.0,0.0,0.0,
2025-08-14T23:13:01.830Z,5,GR86-051-71,-2.3000000000000003,-0.191,0.193,99.67,5.0,,0.0,0.0,179.49
2025-08-14T23:13:01.874Z,5,GR86-051-71,-2.3000000000000003,-0.56,0.153,99.7,5.0,,0.0,0.0,
2025-08-14T23:13:01.917Z,5,GR86-051-71,-2.3000000000000003,-0.505,0.203,99.69,5.0,,0.0,0.0,
2025-08-14T23:13:01.960Z,5,GR86-051-71,-2.3000000000000003,-0.329,0.159,99.67,5.0,,0.0,0.0,
2025-08-14T23:13:02.003Z,5,GR86-051-71,-2.3000000000000003,-0.288,0.106,99.66,5.0,7157.0,0.0,0.0,
2025-08-14T23:13:02.046Z,5,GR86-051-71,-2.3000000000000003,-0.373,0.203,99.68,5.0,,0.0,0.0,180.42
2025-08-14T23:13:02.089Z,5,GR86-051-71,-2.3000000000000003,-0.372,0.097,99.7,5.0,,0.0,0.0,
2025-08-14T23:13:02.132Z,5,GR86-051-71,-2.3000000000000003,-0.37,0.087,99.67,5.0,,0.0,0.0,
2025-08-14T23:13:02.218Z,5,GR86-051-71,-2.3000000000000003,-0.331,0.076,99.69,5.0,6145.0,0.0,0.0,
2025-08-14T23:13:02.261Z,5,GR86-051-71,-2.3000000000000003,-0.331,0.139,99.68,5.0,,0.0,0.0,181.17
2025-08-14T23:13:02.304Z,5,GR86-051-71,-2.3000000000000003,-0.326,0.092,99.69,5.0,,0.0,0.0,
2025-08-14T23:13:02.347Z,5,GR86-051-71,-2.3000000000000003,-0.329,0.088,99.66,5.0,,0.0,0.0,
2025-08-14T23:13:02.392Z,5,GR86-051-71,-2.3000000000000003,-0.32,0.076,99.69,5.0,,0.0,0.0,
2025-08-14T23:13:02.435Z,5,GR86-051-71,-2.3000000000000003,-0.375,0.065,99.68,5.0,6245.0,0.0,0.0,
2025-08-14T23:13:02.478Z,5,GR86-051-71,-2.3000000000000003,-0.379,0.087,99.67,5.0,,0.0,0.0,181.85
2025-08-14T23:13:02.521Z,5,GR86-051-71,-2.3000000000000003,-0.384,0.082,99.68,5.0,,0.0,0.0,
2025-08-14T23:13:02.565Z,5,GR86-051-71,-2.3000000000000003,-0.395,0.087,99.68,5.0,,0.0,0.0,
2025-08-14T23:13:02.608Z,5,GR86-051-71,-2.3000000000000003,-0.387,0.05,99.69,5.0,,0.0,0.0,
2025-08-14T23:13:02.652Z,5,GR86-051-71,-2.3000000000000003,-0.39,0.07,99.68,5.0,6272.0,0.0,0.0,
2025-08-14T23:13:02.695Z,5,GR86-051-71,-2.3000000000000003,-0.339,0.068,99.68,5.0,,0.0,0.0,182.71
2025-08-14T23:13:02.738Z,5,GR86-051-71,-2.3000000000000003,-0.314,0.06,99.67,5.0,,0.0,0.0,
2025-08-14T23:13:02.781Z,5,GR86-051-71,-2.3000000000000003,-0.328,0.054,99.68,5.0,,0.0,0.0,
2025-08-14T23:13:02.824Z,5,GR86-051-71,-2.3000000000000003,-0.352,0.038,99.68,5.0,,0.0,0.0,
2025-08-14T23:13:02.868Z,5,GR86-051-71,-2.3000000000000003,-0.37,0.068,99.67,5.0,6293.0,0.0,0.0,
2025-08-14T23:13:02.910Z,5,GR86-051-71,-2.3000000000000003,-0.378,0.081,99.69,5.0,,0.0,0.0,183.5
2025-08-14T23:13:02.955Z,5,GR86-051-71,-2.3000000000000003,-0.346,0.075,99.67,5.0,,0.0,0.0,
2025-08-14T23:13:02.998Z,5,GR86-051-71,-2.3000000000000003,-0.339,0.07,99.72,5.0,,0.0,0.0,
2025-08-14T23:13:03.041Z,5,GR86-051-71,-2.3000000000000003,-0.347,0.076,99.69,5.0,,0.0,0.0,
2025-08-14T23:13:03.128Z,5,GR86-051-71,-2.3000000000000003,-0.341,0.1,99.67,5.0,6319.0,0.0,0.0,184.33
2025-08-14T23:13:03.171Z,5,GR86-051-71,-2.3000000000000003,-0.353,0.09,99.69,5.0,,0.0,0.0,
2025-08-14T23:13:03.215Z,5,GR86-051-71,-2.3000000000000003,-0.357,0.083,99.69,5.0,,0.0,0.0,
2025-08-14T23:13:03.257Z,5,GR86-051-71,-2.3000000000000003,-0.34,0.109,99.69,5.0,,0.0,0.0,
2025-08-14T23:13:03.300Z,5,GR86-051-71,-2.3000000000000003,-0.343,0.082,99.68,5.0,6329.0,0.0,0.0,
2025-08-14T23:13:03.344Z,5,GR86-051-71,-2.3000000000000003,-0.362,0.079,99.67,5.0,,0.0,0.0,185.09
2025-08-14T23:13:03.386Z,5,GR86-051-71,-2.3000000000000003,-0.378,0.082,99.68,5.0,,0.0,0.0,
2025-08-14T23:13:03.430Z,5,GR86-051-71,-2.3000000000000003,-0.384,0.116,99.67,5.0,,0.0,0.0,
2025-08-14T23:13:03.474Z,5,GR86-051-71,-2.3000000000000003,-0.333,0.113,99.67,5.0,,0.0,0.0,
2025-08-14T23:13:03.516Z,5,GR86-051-71,-2.3000000000000003,-0.332,0.104,99.69,5.0,6371.0,0.0,0.0,
2025-08-14T23:13:03.559Z,5,GR86-051-71,-2.3000000000000003,-0.324,0.063,99.66,5.0,,0.0,0.0,186.38
2025-08-14T23:13:03.603Z,5,GR86-051-71,-2.3000000000000003,-0.327,0.074,99.69,5.0,,0.0,0.0,
2025-08-14T23:13:03.646Z,5,GR86-051-71,-2.3000000000000003,-0.342,0.059,99.68,5.0,,0.0,0.0,
2025-08-14T23:13:03.689Z,5,GR86-051-71,-2.3000000000000003,-0.349,0.08,99.67,5.0,,0.0,0.0,
2025-08-14T23:13:03.732Z,5,GR86-051-71,-2.3000000000000003,-0.334,0.076,99.67,5.0,6391.0,0.0,0.0,
2025-08-14T23:13:03.775Z,5,GR86-051-71,-2.3000000000000003,-0.367,0.086,99.67,5.0,,0.0,0.0,187.22
2025-08-14T23:13:03.818Z,5,GR86-051-71,-2.3000000000000003,-0.341,0.054,99.7,5.0,,0.0,0.0,
2025-08-14T23:13:03.861Z,5,GR86-051-71,-2.3000000000000003,-0.33,0.075,99.67,5.0,,0.0,0.0,
2025-08-14T23:13:03.905Z,5,GR86-051-71,-2.3000000000000003,-0.322,0.093,99.66,5.0,,0.0,0.0,
2025-08-14T23:13:03.947Z,5,GR86-051-71,-2.3000000000000003,-0.325,0.077,99.68,5.0,6411.0,0.0,0.0,
2025-08-14T23:13:03.990Z,5,GR86-051-71,-2.3000000000000003,-0.366,0.074,99.68,5.0,,0.0,0.0,187.9
2025-08-14T23:13:04.034Z,5,GR86-051-71,-2.3000000000000003,-0.347,0.065,99.66,5.0,,0.0,0.0,
2025-08-14T23:13:04.076Z,5,GR86-051-71,-2.3000000000000003,-0.328,0.054,99.66,5.0,,0.0,0.0,
2025-08-14T23:13:04.119Z,5,GR86-051-71,-2.3000000000000003,-0.354,0.083,99.69,5.0,,0.0,0.0,
2025-08-14T23:13:04.162Z,5,GR86-051-71,-2.3000000000000003,-0.376,0.074,99.68,5.0,6471.0,0.0,0.0,
2025-08-14T23:13:04.205Z,5,GR86-051-71,-2.3000000000000003,-0.379,0.082,99.69,5.0,,0.0,0.0,188.53
2025-08-14T23:13:04.248Z,5,GR86-051-71,-2.3000000000000003,-0.381,0.113,99.7,5.0,,0.0,0.0,
2025-08-14T23:13:04.291Z,5,GR86-051-71,-2.3000000000000003,-0.365,0.093,99.68,5.0,,0.0,0.0,
2025-08-14T23:13:04.335Z,5,GR86-051-71,-2.3000000000000003,-0.343,0.101,99.68,5.0,,0.0,0.0,
2025-08-14T23:13:04.377Z,5,GR86-051-71,-2.3000000000000003,-0.339,0.091,99.69,5.0,6483.0,0.0,0.0,
2025-08-14T23:13:04.420Z,5,GR86-051-71,-2.3000000000000003,-0.366,0.08,99.68,5.0,,0.0,0.0,189.31
2025-08-14T23:13:04.464Z,5,GR86-051-71,-2.3000000000000003,-0.371,0.086,99.66,5.0,,0.0,0.0,
2025-08-14T23:13:04.506Z,5,GR86-051-71,-2.3000000000000003,-0.338,0.065,99.67,5.0,,0.0,0.0,
2025-08-14T23:13:04.550Z,5,GR86-051-71,-2.3000000000000003,-0.329,0.076,99.69,5.0,,0.0,0.0,
2025-08-14T23:13:04.592Z,5,GR86-051-71,-2.3000000000000003,-0.331,0.065,99.68,5.0,6510.0,0.0,0.0,
2025-08-14T23:13:04.635Z,5,GR86-051-71,-2.3000000000000003,-0.335,0.078,99.69,5.0,,0.0,0.0,190.15
2025-08-14T23:13:04.678Z,5,GR86-051-71,-2.3000000000000003,-0.343,0.057,99.67,5.0,,0.0,0.0,
2025-08-14T23:13:04.721Z,5,GR86-051-71,-2.3000000000000003,-0.326,0.062,99.68,5.0,,0.0,0.0,
2025-08-14T23:13:04.765Z,5,GR86-051-71,-2.2,-0.297,0.071,99.7,5.0,,0.0,0.0,
2025-08-14T23:13:04.807Z,5,GR86-051-71,-2.1,-0.309,0.05,99.72,5.0,6537.0,0.0,0.0,
2025-08-14T23:13:04.850Z,5,GR86-051-71,-2.1,-0.338,0.053,99.71,5.0,,0.0,0.0,190.82
2025-08-14T23:13:04.894Z,5,GR86-051-71,-2.1,-0.354,0.065,99.7,5.0,,0.0,0.0,
2025-08-14T23:13:04.936Z,5,GR86-051-71,-1.8,-0.35,0.065,99.69,5.0,,0.0,0.0,
2025-08-14T23:13:04.979Z,5,GR86-051-71,-1.5,-0.318,0.06,99.7,5.0,,0.0,0.0,
2025-08-14T23:13:05.022Z,5,GR86-051-71,-1.5,-0.31,0.055,99.71,5.0,6558.0,0.0,0.0,
2025-08-14T23:13:05.065Z,5,GR86-051-71,-1.5,-0.329,0.029,99.68,5.0,,0.0,0.0,191.47
2025-08-14T23:13:05.108Z,5,GR86-051-71,-1.5,-0.349,0.033,99.67,5.0,,0.0,0.0,
2025-08-14T23:13:05.152Z,5,GR86-051-71,-1.5,-0.363,0.039,99.67,5.0,,0.0,0.0,
2025-08-14T23:13:05.195Z,5,GR86-051-71,-1.5,-0.342,0.042,99.69,5.0,,0.0,0.0,
2025-08-14T23:13:05.238Z,5,GR86-051-71,-1.5,-0.312,0.036,99.68,5.0,6580.0,0.0,0.0,
2025-08-14T23:13:05.281Z,5,GR86-051-71,-1.5,-0.298,0.05,99.66,5.0,,0.0,0.0,192.21
2025-08-14T23:13:05.324Z,5,GR86-051-71,-1.5,-0.296,0.029,99.67,5.0,,0.0,0.0,
2025-08-14T23:13:05.367Z,5,GR86-051-71,-1.5,-0.316,0.021,99.67,5.0,,0.0,0.0,
2025-08-14T23:13:05.410Z,5,GR86-051-71,-1.5,-0.322,0.033,99.69,5.0,,0.0,0.0,
2025-08-14T23:13:05.455Z,5,GR86-051-71,-1.5,-0.332,0.04,99.66,5.0,6612.0,0.0,0.0,
2025-08-14T23:13:05.498Z,5,GR86-051-71,-1.5,-0.331,0.046,99.66,5.0,,0.0,0.0,192.89
2025-08-14T23:13:05.541Z,5,GR86-051-71,-1.5,-0.34,0.037,99.68,5.0,,0.0,0.0,
2025-08-14T23:13:05.585Z,5,GR86-051-71,-1.5,-0.317,0.052,99.69,5.0,,0.0,0.0,
2025-08-14T23:13:05.627Z,5,GR86-051-71,-1.5,-0.304,0.064,99.69,5.0,,0.0,0.0,
2025-08-14T23:13:05.670Z,5,GR86-051-71,-1.5,-0.34,0.055,99.67,5.0,6630.0,0.0,0.0,
2025-08-14T23:13:05.714Z,5,GR86-051-71,-1.5,-0.355,0.089,99.67,5.0,,0.0,0.0,193.45
2025-08-14T23:13:05.758Z,5,GR86-051-71,-1.4,-0.346,0.071,99.68,5.0,,0.0,0.0,
2025-08-14T23:13:05.801Z,5,GR86-051-71,-1.5,-0.323,0.08,99.68,5.0,,0.0,0.0,
2025-08-14T23:13:05.844Z,5,GR86-051-71,-1.2000000000000002,-0.298,0.063,99.69,5.0,,0.0,0.0,
2025-08-14T23:13:05.887Z,5,GR86-051-71,-0.8,-0.28,0.064,99.68,5.0,6657.0,0.0,0.0,
2025-08-14T23:13:05.930Z,5,GR86-051-71,-0.4,-0.289,0.051,99.66,5.0,,0.0,0.0,194.08
2025-08-14T23:13:05.974Z,5,GR86-051-71,1.1,-0.355,0.057,99.66,5.0,,0.0,0.0,
2025-08-14T23:13:06.018Z,5,GR86-051-71,2.2,-0.345,0.063,99.67,5.0,,0.0,0.0,
2025-08-14T23:13:06.060Z,5,GR86-051-71,3.0,-0.345,0.039,99.67,5.0,,0.0,0.0,
2025-08-14T23:13:06.104Z,5,GR86-051-71,3.5,-0.332,0.017,99.71,5.0,6671.0,0.0,0.0,
2025-08-14T23:13:06.146Z,5,GR86-051-71,4.0,-0.339,-0.025,99.68,5.0,,0.0,0.0,194.81
2025-08-14T23:13:06.189Z,5,GR86-051-71,4.4,-0.351,-0.003,99.68,5.0,,0.0,0.0,
2025-08-14T23:13:06.232Z,5,GR86-051-71,4.5,-0.35,-0.061,99.7,5.0,,0.0,0.0,
2025-08-14T23:13:06.275Z,5,GR86-051-71,4.5,-0.342,-0.058,99.66,5.0,,0.0,0.0,
2025-08-14T23:13:06.318Z,5,GR86-051-71,4.5,-0.349,-0.103,99.66,5.0,6716.0,0.0,0.0,
2025-08-14T23:13:06.361Z,5,GR86-051-71,4.5,-0.337,-0.135,99.67,5.0,,0.0,0.0,196.26
2025-08-14T23:13:06.404Z,5,GR86-051-71,4.5,-0.33,-0.15,99.67,5.0,,0.0,0.0,
2025-08-14T23:13:06.447Z,5,GR86-051-71,4.5,-0.339,-0.178,99.68,5.0,,0.0,0.0,
2025-08-14T23:13:06.490Z,5,GR86-051-71,4.5,-0.34,-0.171,99.67,5.0,,0.0,0.0,
2025-08-14T23:13:06.534Z,5,GR86-051-71,4.5,-0.369,-0.197,99.67,5.0,6721.0,0.0,0.0,
2025-08-14T23:13:06.578Z,5,GR86-051-71,4.5,-0.387,-0.226,99.69,5.0,,0.0,0.0,197.03
2025-08-14T23:13:06.621Z,5,GR86-051-71,4.9,-0.375,-0.226,99.69,5.0,,0.0,0.0,
2025-08-14T23:13:06.665Z,5,GR86-051-71,5.4,-0.354,-0.234,99.68,5.0,,0.0,0.0,
2025-08-14T23:13:06.707Z,5,GR86-051-71,5.4,-0.328,-0.243,99.68,5.0,,0.0,0.0,
2025-08-14T23:13:06.750Z,5,GR86-051-71,5.4,-0.322,-0.249,99.68,5.0,6749.0,0.0,0.0,
2025-08-14T23:13:06.794Z,5,GR86-051-71,5.4,-0.337,-0.227,99.66,5.0,,0.0,0.0,197.67
2025-08-14T23:13:06.836Z,5,GR86-051-71,5.4,-0.338,-0.213,99.69,5.0,,0.0,0.0,
2025-08-14T23:13:06.879Z,5,GR86-051-71,5.4,-0.325,-0.207,99.67,5.0,,0.0,0.0,
2025-08-14T23:13:06.922Z,5,GR86-051-71,5.4,-0.338,-0.233,99.69,5.0,,0.0,0.0,
2025-08-14T23:13:06.965Z,5,GR86-051-71,6.4,-0.347,-0.261,99.67,5.0,6795.0,0.0,0.0,
2025-08-14T23:13:07.009Z,5,GR86-051-71,7.6,-0.336,-0.265,99.69,5.0,,0.0,0.0,198.49
2025-08-14T23:13:07.052Z,5,GR86-051-71,8.8,-0.341,-0.282,99.67,5.0,,0.0,0.0,
2025-08-14T23:13:07.095Z,5,GR86-051-71,9.8,-0.341,-0.273,99.68,5.0,,0.0,0.0,
2025-08-14T23:13:07.138Z,5,GR86-051-71,9.8,-0.347,-0.297,99.69,5.0,,0.0,0.0,
2025-08-14T23:13:07.181Z,5,GR86-051-71,9.8,-0.348,-0.291,99.71,5.0,6826.0,0.0,0.0,
2025-08-14T23:13:07.224Z,5,GR86-051-71,9.8,-0.331,-0.306,99.69,5.0,,0.0,0.0,199.08
2025-08-14T23:13:07.267Z,5,GR86-051-71,9.8,-0.322,-0.308,99.68,5.0,,0.0,0.0,
2025-08-14T23:13:07.310Z,5,GR86-051-71,9.8,-0.346,-0.322,99.69,5.0,,0.0,0.0,
2025-08-14T23:13:07.355Z,5,GR86-051-71,9.8,-0.322,-0.309,99.66,5.0,,0.0,0.0,
2025-08-14T23:13:07.398Z,5,GR86-051-71,9.8,-0.293,-0.334,99.68,5.0,6842.0,0.0,0.0,
2025-08-14T23:13:07.441Z,5,GR86-051-71,9.8,-0.309,-0.322,99.71,5.0,,0.0,0.0,199.78
2025-08-14T23:13:07.484Z,5,GR86-051-71,9.8,-0.297,-0.324,99.69,5.0,,0.0,0.0,
2025-08-14T23:13:07.527Z,5,GR86-051-71,9.8,-0.279,-0.323,99.66,5.0,,0.0,0.0,
2025-08-14T23:13:07.570Z,5,GR86-051-71,10.1,-0.291,-0.336,99.67,5.0,,0.0,0.0,
2025-08-14T23:13:07.614Z,5,GR86-051-71,10.2,-0.317,-0.409,99.67,5.0,6864.0,0.0,0.0,
2025-08-14T23:13:07.657Z,5,GR86-051-71,10.2,-0.346,-0.439,99.66,5.0,,0.0,0.0,200.32
2025-08-14T23:13:07.700Z,5,GR86-051-71,10.2,-0.366,-0.464,99.67,5.0,,0.0,0.0,
2025-08-14T23:13:07.744Z,5,GR86-051-71,10.2,-0.374,-0.496,99.7,5.0,,0.0,0.0,
2025-08-14T23:13:07.830Z,5,GR86-051-71,10.2,-0.336,-0.481,99.68,5.0,6900.0,0.0,0.0,
2025-08-14T23:13:07.874Z,5,GR86-051-71,10.2,-0.351,-0.474,99.68,5.0,,0.0,0.0,200.81
2025-08-14T23:13:07.917Z,5,GR86-051-71,10.2,-0.345,-0.437,99.67,5.0,,0.0,0.0,
2025-08-14T23:13:07.960Z,5,GR86-051-71,10.2,-0.325,-0.412,99.7,5.0,,0.0,0.0,
2025-08-14T23:13:08.046Z,5,GR86-051-71,10.2,-0.298,-0.375,99.7,5.0,6909.0,0.0,0.0,
2025-08-14T23:13:08.089Z,5,GR86-051-71,10.2,-0.31,-0.396,99.67,5.0,,0.0,0.0,201.52
2025-08-14T23:13:08.132Z,5,GR86-051-71,10.2,-0.346,-0.415,99.7,5.0,,0.0,0.0,
2025-08-14T23:13:08.175Z,5,GR86-051-71,10.2,-0.335,-0.367,99.68,5.0,,0.0,0.0,
2025-08-14T23:13:08.218Z,5,GR86-051-71,10.2,-0.295,-0.346,99.68,5.0,,0.0,0.0,
2025-08-14T23:13:08.261Z,5,GR86-051-71,10.2,-0.29,-0.313,99.67,5.0,6934.0,0.0,0.0,
2025-08-14T23:13:08.304Z,5,GR86-051-71,10.2,-0.276,-0.294,99.64,5.0,,11.245,11.49,202.17
2025-08-14T23:13:08.347Z,5,GR86-051-71,10.1,-0.134,-0.265,94.14,5.0,,23.715,23.685,
2025-08-14T23:13:08.390Z,5,GR86-051-71,9.8,0.153,-0.208,37.83,5.0,,33.22,32.81,
2025-08-14T23:13:08.434Z,5,GR86-051-71,8.8,0.355,-0.208,35.64,5.0,,37.95,37.86,
2025-08-14T23:13:08.476Z,5,GR86-051-71,8.3,0.339,-0.217,34.410000000000004,5.0,6954.0,37.585,38.075,
2025-08-14T23:13:08.520Z,5,GR86-051-71,7.300000000000001,0.33,-0.244,33.69,5.0,,36.395,37.02,202.7
2025-08-14T23:13:08.564Z,5,GR86-051-71,6.1000000000000005,0.266,-0.233,33.39,5.0,,29.56,30.995,
2025-08-14T23:13:08.608Z,5,GR86-051-71,5.1000000000000005,0.113,-0.238,32.43,5.0,,20.145,21.44,
2025-08-14T23:13:08.651Z,5,GR86-051-71,4.9,0.022,-0.221,31.74,5.0,,15.335,16.375,
2025-08-14T23:13:08.695Z,5,GR86-051-71,4.9,0.029,-0.176,26.22,5.0,6968.0,18.235,18.465,
2025-08-14T23:13:08.737Z,5,GR86-051-71,4.9,0.167,-0.163,20.77,5.0,,28.615,28.4,203.25
2025-08-14T23:13:08.780Z,5,GR86-051-71,4.9,0.403,-0.137,17.82,5.0,,42.3,41.935,
2025-08-14T23:13:08.824Z,5,GR86-051-71,4.9,0.612,-0.111,10.97,5.0,,54.265,53.64,
2025-08-14T23:13:08.867Z,5,GR86-051-71,4.9,0.7000000000000001,-0.088,6.8100000000000005,5.0,,61.88,61.175,
2025-08-14T23:13:08.910Z,5,GR86-051-71,4.9,0.781,-0.078,6.22,5.0,6675.0,66.55,65.985,
2025-08-14T23:13:08.955Z,5,GR86-051-71,4.9,0.805,-0.053,3.77,5.0,,68.365,68.18,196.39
2025-08-14T23:13:08.998Z,5,GR86-051-71,5.0,0.782,-0.022,3.58,5.0,,68.21000000000001,68.44,
2025-08-14T23:13:09.041Z,5,GR86-051-71,6.5,0.767,-0.013,3.36,5.0,,69.37,71.02,
2025-08-14T23:13:09.085Z,5,GR86-051-71,7.1000000000000005,0.753,0.008,3.04,5.0,,71.265,72.515,
2025-08-14T23:13:09.128Z,5,GR86-051-71,7.1000000000000005,0.909,-0.001,2.63,5.0,6690.0,70.24,70.625,
2025-08-14T23:13:09.171Z,5,GR86-051-71,7.1000000000000005,0.5710000000000001,-0.085,2.52,5.0,,62.06,63.525,188.94
2025-08-14T23:13:09.215Z,5,GR86-051-71,7.1000000000000005,0.647,-0.089,7.95,5.0,,49.795,50.785,
2025-08-14T23:13:09.258Z,5,GR86-051-71,7.1000000000000005,0.718,-0.096,48.86,5.0,,46.74,48.33,
2025-08-14T23:13:09.301Z,5,GR86-051-71,7.1000000000000005,0.635,-0.068,92.25,4.0,,45.9,46.59,
2025-08-14T23:13:09.344Z,5,GR86-051-71,7.1000000000000005,0.656,-0.061,55.49,4.0,6055.0,46.345,46.955,
2025-08-14T23:13:09.387Z,5,GR86-051-71,7.1000000000000005,0.641,-0.065,3.0500000000000003,4.0,,47.335,48.620000000000005,176.98
2025-08-14T23:13:09.430Z,5,GR86-051-71,6.4,0.6920000000000001,-0.113,3.02,4.0,,48.265,49.305,
2025-08-14T23:13:09.474Z,5,GR86-051-71,5.300000000000001,0.676,-0.112,2.7,4.0,,44.285,44.71,
2025-08-14T23:13:09.516Z,5,GR86-051-71,5.1000000000000005,0.5740000000000001,-0.084,2.63,4.0,,40.18,41.185,
2025-08-14T23:13:09.560Z,5,GR86-051-71,5.1000000000000005,0.498,-0.047,2.54,4.0,5884.0,36.275,36.84,
2025-08-14T23:13:09.603Z,5,GR86-051-71,5.1000000000000005,0.515,-0.104,2.51,4.0,,33.28,34.03,174.56
2025-08-14T23:13:09.646Z,5,GR86-051-71,5.1000000000000005,0.472,-0.128,2.48,4.0,,31.955,32.81,
2025-08-14T23:13:09.689Z,5,GR86-051-71,5.1000000000000005,0.493,-0.058,2.46,4.0,,30.64,31.54,
2025-08-14T23:13:09.732Z,5,GR86-051-71,5.0,0.53,-0.083,2.45,4.0,,29.145,29.865,
2025-08-14T23:13:09.775Z,5,GR86-051-71,5.0,0.403,-0.039,2.46,4.0,6388.0,26.81,27.65,
2025-08-14T23:13:09.818Z,5,GR86-051-71,5.0,0.39,-0.065,2.46,4.0,,25.36,26.23,170.22
2025-08-14T23:13:09.861Z,5,GR86-051-71,4.2,0.394,-0.062,2.46,4.0,,23.96,24.795,
2025-08-14T23:13:09.904Z,5,GR86-051-71,3.8,0.382,-0.047,2.45,4.0,,23.27,23.865,
2025-08-14T23:13:09.947Z,5,GR86-051-71,3.8,0.407,-0.037,2.45,4.0,,23.24,23.775,
2025-08-14T23:13:09.990Z,5,GR86-051-71,3.8,0.371,-0.008,2.45,4.0,6261.0,23.27,23.805,
2025-08-14T23:13:10.034Z,5,GR86-051-71,3.8,0.364,0.03,9.31,4.0,,22.77,23.395,166.23
2025-08-14T23:13:10.076Z,5,GR86-051-71,3.8,0.305,0.012,51.0,4.0,,21.655,22.31,
2025-08-14T23:13:10.119Z,5,GR86-051-71,3.8,0.297,0.012,94.66,4.0,,20.845,21.56,
2025-08-14T23:13:10.162Z,5,GR86-051-71,4.1000000000000005,0.275,0.021,99.62,4.0,,20.45,21.18,
2025-08-14T23:13:10.205Z,5,GR86-051-71,5.2,0.239,0.084,92.18,4.0,6152.0,20.45,21.06,
2025-08-14T23:13:10.248Z,5,GR86-051-71,7.0,0.274,0.054,23.88,3.0,,20.42,21.03,162.92000000000002
2025-08-14T23:13:10.291Z,5,GR86-051-71,7.0,0.398,0.012,3.34,3.0,,20.695,21.27,
2025-08-14T23:13:10.377Z,5,GR86-051-71,7.0,0.344,0.056,2.57,3.0,,22.585,23.12,
2025-08-14T23:13:10.420Z,5,GR86-051-71,7.0,0.349,0.025,2.52,3.0,6059.0,22.905,23.12,
2025-08-14T23:13:10.464Z,5,GR86-051-71,7.2,0.338,0.061,2.49,3.0,,23.025,23.455,159.5
2025-08-14T23:13:10.506Z,5,GR86-051-71,7.300000000000001,0.333,-0.005,2.48,3.0,,23.27,23.805,
2025-08-14T23:13:10.549Z,5,GR86-051-71,7.300000000000001,0.317,-0.008,2.49,3.0,,23.62,24.14,
2025-08-14T23:13:10.594Z,5,GR86-051-71,7.300000000000001,0.32,-0.039,2.47,3.0,,23.96,24.43,
2025-08-14T23:13:10.637Z,5,GR86-051-71,7.300000000000001,0.289,-0.048,2.49,3.0,6976.0,24.31,24.86,
2025-08-14T23:13:10.680Z,5,GR86-051-71,7.300000000000001,0.301,-0.047,2.48,3.0,,24.89,25.27,156.36
2025-08-14T23:13:10.723Z,5,GR86-051-71,7.300000000000001,0.325,-0.067,2.49,3.0,,25.7,26.02,
2025-08-14T23:13:10.766Z,5,GR86-051-71,7.300000000000001,0.39,-0.059,2.48,3.0,,27.62,27.745,
2025-08-14T23:13:10.809Z,5,GR86-051-71,7.300000000000001,0.415,-0.065,2.48,3.0,,29.53,29.71,
2025-08-14T23:13:10.852Z,5,GR86-051-71,7.300000000000001,0.389,-0.09,2.48,3.0,6894.0,30.855,31.235,
2025-08-14T23:13:10.895Z,5,GR86-051-71,7.300000000000001,0.434,-0.085,2.48,3.0,,32.715,32.87,152.81
2025-08-14T23:13:10.938Z,5,GR86-051-71,7.300000000000001,0.448,-0.083,2.49,3.0,,34.18,34.455,
2025-08-14T23:13:10.981Z,5,GR86-051-71,7.300000000000001,0.481,-0.084,2.49,3.0,,35.77,35.955,
2025-08-14T23:13:11.025Z,5,GR86-051-71,7.300000000000001,0.546,-0.064,2.49,3.0,,37.495,37.585,
2025-08-14T23:13:11.067Z,5,GR86-051-71,7.300000000000001,0.549,-0.073,2.49,3.0,6732.0,38.56,38.835,
2025-08-14T23:13:11.110Z,5,GR86-051-71,7.300000000000001,0.5,-0.088,2.49,3.0,,38.685,39.19,149.19
2025-08-14T23:13:11.155Z,5,GR86-051-71,7.300000000000001,0.5,-0.086,2.49,3.0,,38.32,38.835,
2025-08-14T23:13:11.198Z,5,GR86-051-71,7.2,0.499,-0.089,2.49,3.0,,37.385,38.21,
2025-08-14T23:13:11.284Z,5,GR86-051-71,7.2,0.521,-0.072,2.49,3.0,6429.0,35.405,36.455,
2025-08-14T23:13:11.327Z,5,GR86-051-71,7.2,0.394,-0.071,2.48,3.0,,30.075,31.235,143.85
2025-08-14T23:13:11.370Z,5,GR86-051-71,7.300000000000001,0.374,-0.088,2.49,3.0,,27.835,28.87,
2025-08-14T23:13:11.415Z,5,GR86-051-71,7.2,0.338,-0.08,2.49,3.0,,25.865,26.905,
2025-08-14T23:13:11.458Z,5,GR86-051-71,7.300000000000001,0.358,-0.073,36.3,3.0,,24.86,25.605,
2025-08-14T23:13:11.501Z,5,GR86-051-71,7.300000000000001,0.328,-0.069,80.47,3.0,6191.0,24.31,25.24,
2025-08-14T23:13:11.544Z,5,GR86-051-71,7.7,0.294,-0.088,99.48,3.0,,24.31,25.085,138.88
2025-08-14T23:13:11.587Z,5,GR86-051-71,9.5,0.26,-0.074,99.33,3.0,,24.675,25.21,
2025-08-14T23:13:11.630Z,5,GR86-051-71,11.0,0.31,-0.081,50.14,2.0,,25.395,25.895,
2025-08-14T23:13:11.674Z,5,GR86-051-71,11.5,0.645,-0.145,3.12,2.0,,29.835,30.275,
2025-08-14T23:13:11.718Z,5,GR86-051-71,11.5,0.465,-0.12,2.9,2.0,6015.0,38.41,39.125,
2025-08-14T23:13:11.760Z,5,GR86-051-71,11.5,0.63,-0.124,2.74,2.0,,44.88,45.245,130.76
2025-08-14T23:13:11.804Z,5,GR86-051-71,11.5,0.687,-0.169,2.62,2.0,,48.8,48.925,
2025-08-14T23:13:11.846Z,5,GR86-051-71,11.5,0.61,-0.083,2.56,2.0,,51.09,51.06,
2025-08-14T23:13:11.889Z,5,GR86-051-71,11.5,0.668,-0.137,2.54,2.0,,51.06,51.0,
2025-08-14T23:13:11.932Z,5,GR86-051-71,11.3,0.716,-0.163,2.51,2.0,5943.0,50.585,51.06,
2025-08-14T23:13:11.975Z,5,GR86-051-71,10.1,0.6880000000000001,-0.163,2.49,2.0,,48.74,49.7,126.94
2025-08-14T23:13:12.018Z,5,GR86-051-71,9.2,0.591,-0.202,2.48,2.0,,44.775,46.205,
2025-08-14T23:13:12.061Z,5,GR86-051-71,8.3,0.544,-0.185,2.49,2.0,,40.775,42.15,
2025-08-14T23:13:12.105Z,5,GR86-051-71,7.4,0.611,-0.17,2.48,2.0,,37.585,38.9,
2025-08-14T23:13:12.147Z,5,GR86-051-71,6.5,0.489,-0.187,2.48,2.0,6837.0,35.145,36.275,
2025-08-14T23:13:12.190Z,5,GR86-051-71,6.4,0.485,-0.141,2.49,2.0,,33.345,34.565,120.04
2025-08-14T23:13:12.234Z,5,GR86-051-71,6.4,0.486,-0.146,2.48,2.0,,31.27,32.335,
2025-08-14T23:13:12.278Z,5,GR86-051-71,6.4,0.427,-0.128,2.49,2.0,,30.4,31.145,
2025-08-14T23:13:12.321Z,5,GR86-051-71,6.4,0.401,-0.152,2.49,2.0,,29.895,30.855,
2025-08-14T23:13:12.364Z,5,GR86-051-71,6.4,0.424,-0.137,2.49,2.0,6219.0,29.895,30.4,
2025-08-14T23:13:12.407Z,5,GR86-051-71,6.6000000000000005,0.415,-0.121,2.48,2.0,,29.62,30.46,114.96
2025-08-14T23:13:12.450Z,5,GR86-051-71,6.9,0.447,-0.112,2.48,2.0,,29.895,30.4,
2025-08-14T23:13:12.494Z,5,GR86-051-71,7.0,0.431,-0.096,2.49,2.0,,30.765,31.115,
2025-08-14T23:13:12.537Z,5,GR86-051-71,7.5,0.41,-0.088,2.49,2.0,,31.3,31.83,
2025-08-14T23:13:12.580Z,5,GR86-051-71,8.700000000000001,0.469,-0.069,2.49,2.0,6081.0,32.17,32.410000000000004,
2025-08-14T23:13:12.623Z,5,GR86-051-71,9.9,0.45,-0.09,2.48,2.0,,33.405,33.65,109.72
2025-08-14T23:13:12.666Z,5,GR86-051-71,11.7,0.495,-0.094,2.48,2.0,,35.525,35.68,
2025-08-14T23:13:12.709Z,5,GR86-051-71,14.2,0.497,-0.116,2.49,2.0,,37.585,37.615,
2025-08-14T23:13:12.752Z,5,GR86-051-71,16.7,0.549,-0.131,36.0,2.0,,39.25,39.43,
2025-08-14T23:13:12.795Z,5,GR86-051-71,19.4,0.5690000000000001,-0.148,97.87,2.0,5854.0,39.995,40.18,
2025-08-14T23:13:12.838Z,5,GR86-051-71,19.8,0.546,-0.187,99.59,2.0,,40.06,40.59,105.59
2025-08-14T23:13:12.881Z,5,GR86-051-71,19.8,0.554,-0.164,67.34,1.0,,40.06,40.395,
2025-08-14T23:13:12.924Z,5,GR86-051-71,19.8,0.681,-0.226,3.11,1.0,,39.75,40.365,
2025-08-14T23:13:12.967Z,5,GR86-051-71,19.8,0.708,-0.272,3.3000000000000003,1.0,,40.425,41.05,
2025-08-14T23:13:13.010Z,5,GR86-051-71,19.8,0.492,-0.178,3.19,1.0,5549.0,39.965,40.865,
2025-08-14T23:13:13.055Z,5,GR86-051-71,19.8,0.547,-0.406,2.89,1.0,,37.355,37.98,101.04
2025-08-14T23:13:13.098Z,5,GR86-051-71,19.8,0.435,-0.282,2.63,1.0,,34.18,35.235,
2025-08-14T23:13:13.141Z,5,GR86-051-71,19.8,0.372,-0.369,2.48,1.0,,28.81,29.955,
2025-08-14T23:13:13.184Z,5,GR86-051-71,21.0,0.344,-0.442,2.43,1.0,,26.14,27.15,
2025-08-14T23:13:13.227Z,5,GR86-051-71,28.1,0.369,-0.383,2.39,1.0,6112.0,26.02,26.63,
2025-08-14T23:13:13.314Z,5,GR86-051-71,38.1,0.382,-0.491,2.39,1.0,,26.6,27.315,96.42
2025-08-14T23:13:13.357Z,5,GR86-051-71,50.0,0.384,-0.595,2.39,1.0,,28.185,28.72,
2025-08-14T23:13:13.443Z,5,GR86-051-71,50.1,0.347,-0.627,2.4,1.0,6395.0,28.46,28.75,
2025-08-14T23:13:13.486Z,5,GR86-051-71,51.0,0.383,-0.59,2.41,1.0,,28.965,29.39,90.31
2025-08-14T23:13:13.529Z,5,GR86-051-71,51.0,0.395,-0.6,2.4,1.0,,29.175,29.77,
2025-08-14T23:13:13.572Z,5,GR86-051-71,51.7,0.355,-0.737,2.38,1.0,,29.895,30.155,
2025-08-14T23:13:13.615Z,5,GR86-051-71,52.900000000000006,0.346,-0.706,2.41,1.0,,28.55,29.39,
2025-08-14T23:13:13.658Z,5,GR86-051-71,54.8,0.326,-0.7000000000000001,2.4,1.0,6106.0,28.84,29.24,
2025-08-14T23:13:13.701Z,5,GR86-051-71,57.5,0.333,-0.6950000000000001,2.41,1.0,,28.75,29.36,86.92
2025-08-14T23:13:13.744Z,5,GR86-051-71,60.900000000000006,0.32,-0.751,2.4,1.0,,28.72,29.39,
2025-08-14T23:13:13.787Z,5,GR86-051-71,64.3,0.272,-0.798,2.4,1.0,,27.315,28.065,
2025-08-14T23:13:13.830Z,5,GR86-051-71,67.8,0.291,-0.786,2.42,1.0,,25.36,26.46,
2025-08-14T23:13:13.874Z,5,GR86-051-71,74.8,0.264,-0.803,2.42,1.0,5718.0,21.53,22.31,
2025-08-14T23:13:13.917Z,5,GR86-051-71,80.9,0.27,-0.739,2.43,1.0,,21.15,21.715,83.24
2025-08-14T23:13:13.960Z,5,GR86-051-71,86.80000000000001,0.24,-0.805,2.45,1.0,,20.45,21.38,
2025-08-14T23:13:14.003Z,5,GR86-051-71,90.7,0.23,-0.844,2.45,1.0,,19.7,20.325,
2025-08-14T23:13:14.046Z,5,GR86-051-71,91.3,0.195,-0.863,2.46,1.0,,18.02,18.955,
2025-08-14T23:13:14.090Z,5,GR86-051-71,91.3,0.187,-0.895,2.45,1.0,5358.0,16.525,17.490000000000002,
2025-08-14T23:13:14.134Z,5,GR86-051-71,91.3,0.147,-0.8280000000000001,2.45,1.0,,10.955,11.81,78.96000000000001
2025-08-14T23:13:14.176Z,5,GR86-051-71,91.3,0.102,-0.929,2.45,1.0,,5.4350000000000005,6.09,
2025-08-14T23:13:14.219Z,5,GR86-051-71,91.3,0.011,-0.905,2.45,1.0,,0.0,0.0,
2025-08-14T23:13:14.262Z,5,GR86-051-71,91.3,-0.062,-0.941,2.46,1.0,,0.0,0.0,
2025-08-14T23:13:14.305Z,5,GR86-051-71,92.0,-0.085,-0.986,2.45,1.0,5051.0,0.0,0.0,
2025-08-14T23:13:14.348Z,5,GR86-051-71,93.5,-0.078,-0.964,2.45,1.0,,0.0,0.0,74.85000000000001
2025-08-14T23:13:14.392Z,5,GR86-051-71,95.0,-0.087,-0.948,2.49,1.0,,0.0,0.0,
2025-08-14T23:13:14.435Z,5,GR86-051-71,97.4,-0.076,-0.909,3.25,1.0,,0.0,0.0,
2025-08-14T23:13:14.478Z,5,GR86-051-71,98.5,-0.079,-0.934,4.1,1.0,,0.0,0.0,
2025-08-14T23:13:14.521Z,5,GR86-051-71,98.8,-0.069,-0.977,4.95,1.0,4794.0,0.0,0.0,
2025-08-14T23:13:14.565Z,5,GR86-051-71,98.9,-0.078,-0.962,13.88,1.0,,0.0,0.0,69.15
2025-08-14T23:13:14.609Z,5,GR86-051-71,98.9,-0.099,-0.999,20.72,1.0,,0.0,0.0,
2025-08-14T23:13:14.652Z,5,GR86-051-71,98.9,-0.103,-1.009,20.68,1.0,,0.0,0.0,
2025-08-14T23:13:14.695Z,5,GR86-051-71,98.9,-0.125,-0.941,21.1,1.0,,0.0,0.0,
2025-08-14T23:13:14.738Z,5,GR86-051-71,98.9,-0.155,-0.983,21.47,1.0,4751.0,0.0,0.0,
2025-08-14T23:13:14.781Z,5,GR86-051-71,98.9,-0.148,-0.964,21.78,1.0,,0.0,0.0,67.54
2025-08-14T23:13:14.824Z,5,GR86-051-71,98.9,-0.225,-1.018,21.98,1.0,,0.0,0.0,
2025-08-14T23:13:14.868Z,5,GR86-051-71,98.9,-0.366,-0.992,22.07,1.0,,0.0,0.0,
2025-08-14T23:13:14.910Z,5,GR86-051-71,98.9,-0.341,-0.904,22.27,1.0,,0.0,0.0,
2025-08-14T23:13:14.955Z,5,GR86-051-71,98.9,-0.378,-0.915,22.69,1.0,4782.0,0.0,0.0,
2025-08-14T23:13:14.998Z,5,GR86-051-71,98.9,-0.389,-0.888,23.64,1.0,,0.0,0.0,66.19
2025-08-14T23:13:15.041Z,5,GR86-051-71,99.6,-0.416,-0.982,24.78,1.0,,0.0,0.0,
2025-08-14T23:13:15.085Z,5,GR86-051-71,99.6,-0.394,-0.913,26.21,1.0,,0.0,0.0,
2025-08-14T23:13:15.128Z,5,GR86-051-71,99.6,-0.35,-0.938,27.77,1.0,,0.0,0.0,
2025-08-14T23:13:15.171Z,5,GR86-051-71,99.6,-0.383,-0.976,28.11,1.0,5112.0,0.0,0.0,
2025-08-14T23:13:15.215Z,5,GR86-051-71,99.6,-0.389,-0.951,28.42,1.0,,0.0,0.0,65.29
2025-08-14T23:13:15.257Z,5,GR86-051-71,97.5,-0.408,-0.912,28.59,1.0,,0.0,0.0,
2025-08-14T23:13:15.300Z,5,GR86-051-71,94.8,-0.415,-0.912,28.7,1.0,,0.0,0.0,
2025-08-14T23:13:15.344Z,5,GR86-051-71,92.1,-0.425,-0.924,28.99,1.0,,0.0,0.0,
2025-08-14T23:13:15.386Z,5,GR86-051-71,87.30000000000001,-0.43,-0.922,29.32,1.0,5066.0,0.0,0.0,
2025-08-14T23:13:15.429Z,5,GR86-051-71,76.60000000000001,-0.433,-0.949,29.81,1.0,,0.0,0.0,64.9
2025-08-14T23:13:15.472Z,5,GR86-051-71,59.400000000000006,-0.468,-1.041,30.74,1.0,,0.0,0.0,
2025-08-14T23:13:15.515Z,5,GR86-051-71,32.2,-0.464,-0.959,32.77,1.0,,0.0,0.0,
2025-08-14T23:13:15.558Z,5,GR86-051-71,18.1,-0.511,-0.953,35.5,1.0,,0.0,0.0,
2025-08-14T23:13:15.601Z,5,GR86-051-71,7.300000000000001,-0.538,-0.844,39.75,1.0,5212.0,0.0,0.0,
2025-08-14T23:13:15.644Z,5,GR86-051-71,0.1,-0.544,-0.8240000000000001,48.84,1.0,,0.0,0.0,65.62
2025-08-14T23:13:15.687Z,5,GR86-051-71,-1.9,-0.545,-0.781,58.09,1.0,,0.0,0.0,
2025-08-14T23:13:15.730Z,5,GR86-051-71,-1.9,-0.557,-0.78,86.68,1.0,,0.0,0.0,
2025-08-14T23:13:15.774Z,5,GR86-051-71,7.1000000000000005,-0.5670000000000001,-0.79,99.6,1.0,,0.0,0.0,
2025-08-14T23:13:15.816Z,5,GR86-051-71,18.2,-0.596,-0.809,99.66,1.0,5309.0,0.0,0.0,
2025-08-14T23:13:15.859Z,5,GR86-051-71,30.200000000000003,-0.631,-0.867,99.67,1.0,,0.0,0.0,66.87
2025-08-14T23:13:15.902Z,5,GR86-051-71,41.2,-0.62,-0.856,99.67,1.0,,0.0,0.0,
2025-08-14T23:13:15.945Z,5,GR86-051-71,49.2,-0.605,-0.895,99.68,1.0,,0.0,0.0,
2025-08-14T23:13:15.989Z,5,GR86-051-71,49.900000000000006,-0.599,-0.88,99.66,1.0,,0.0,0.0,
2025-08-14T23:13:16.032Z,5,GR86-051-71,41.7,-0.582,-0.862,99.67,1.0,5447.0,0.0,0.0,
2025-08-14T23:13:16.075Z,5,GR86-051-71,3.6,-0.593,-0.743,99.63,1.0,,0.0,0.0,68.11
2025-08-14T23:13:16.118Z,5,GR86-051-71,-18.6,-0.586,-0.68,99.64,1.0,,0.0,0.0,
2025-08-14T23:13:16.161Z,5,GR86-051-71,-27.9,-0.6,-0.5650000000000001,99.65,1.0,,0.0,0.0,
2025-08-14T23:13:16.204Z,5,GR86-051-71,-28.0,-0.595,-0.555,99.68,1.0,,0.0,0.0,
2025-08-14T23:13:16.247Z,5,GR86-051-71,-23.8,-0.608,-0.579,99.69,1.0,5663.0,0.0,0.0,
2025-08-14T23:13:16.290Z,5,GR86-051-71,-12.9,-0.643,-0.609,99.66,1.0,,0.0,0.0,69.23
2025-08-14T23:13:16.334Z,5,GR86-051-71,10.8,-0.617,-0.6960000000000001,99.7,1.0,,0.0,0.0,
2025-08-14T23:13:16.420Z,5,GR86-051-71,29.200000000000003,-0.635,-0.796,99.69,1.0,,0.0,0.0,
2025-08-14T23:13:16.464Z,5,GR86-051-71,37.9,-0.608,-0.841,99.67,1.0,5840.0,0.0,0.0,
2025-08-14T23:13:16.506Z,5,GR86-051-71,30.0,-0.587,-0.808,99.67,1.0,,0.0,0.0,71.44
2025-08-14T23:13:16.550Z,5,GR86-051-71,13.2,-0.601,-0.774,99.68,1.0,,0.0,0.0,
2025-08-14T23:13:16.594Z,5,GR86-051-71,-7.2,-0.613,-0.623,99.67,1.0,,0.0,0.0,
2025-08-14T23:13:16.637Z,5,GR86-051-71,-10.4,-0.619,-0.602,99.67,1.0,,0.0,0.0,
2025-08-14T23:13:16.680Z,5,GR86-051-71,-10.4,-0.636,-0.5750000000000001,99.68,1.0,6025.0,0.0,0.0,
2025-08-14T23:13:16.723Z,5,GR86-051-71,-4.9,-0.675,-0.592,99.67,1.0,,0.0,0.0,73.14
2025-08-14T23:13:16.766Z,5,GR86-051-71,0.0,-0.687,-0.641,99.69,1.0,,0.0,0.0,
2025-08-14T23:13:16.809Z,5,GR86-051-71,3.6,-0.6960000000000001,-0.623,99.68,1.0,,0.0,0.0,
2025-08-14T23:13:16.852Z,5,GR86-051-71,11.9,-0.67,-0.646,99.71,1.0,,0.0,0.0,
2025-08-14T23:13:16.895Z,5,GR86-051-71,31.9,-0.62,-0.641,99.7,1.0,6137.0,0.0,0.0,
2025-08-14T23:13:16.938Z,5,GR86-051-71,39.400000000000006,-0.603,-0.629,99.67,1.0,,0.0,0.0,75.15
2025-08-14T23:13:16.981Z,5,GR86-051-71,40.6,-0.589,-0.606,99.71,1.0,,0.0,0.0,
2025-08-14T23:13:17.024Z,5,GR86-051-71,40.7,-0.577,-0.586,99.67,1.0,,0.0,0.0,
2025-08-14T23:13:17.067Z,5,GR86-051-71,40.2,-0.586,-0.548,99.69,1.0,,0.0,0.0,
2025-08-14T23:13:17.110Z,5,GR86-051-71,35.4,-0.6,-0.552,99.66,1.0,6233.0,0.0,0.0,
2025-08-14T23:13:17.155Z,5,GR86-051-71,32.5,-0.597,-0.519,99.68,1.0,,0.0,0.0,79.2
2025-08-14T23:13:17.198Z,5,GR86-051-71,32.1,-0.601,-0.526,99.67,1.0,,0.0,0.0,
2025-08-14T23:13:17.241Z,5,GR86-051-71,31.700000000000003,-0.605,-0.508,99.66,1.0,,0.0,0.0,
2025-08-14T23:13:17.284Z,5,GR86-051-71,31.6,-0.599,-0.508,99.69,1.0,,0.0,0.0,
2025-08-14T23:13:17.327Z,5,GR86-051-71,31.6,-0.597,-0.505,99.69,1.0,6224.0,0.0,0.0,
2025-08-14T23:13:17.370Z,5,GR86-051-71,31.6,-0.587,-0.527,99.71,1.0,,0.0,0.0,81.58
2025-08-14T23:13:17.414Z,5,GR86-051-71,31.6,-0.598,-0.539,99.69,1.0,,0.0,0.0,
2025-08-14T23:13:17.458Z,5,GR86-051-71,30.3,-0.601,-0.529,99.7,1.0,,0.0,0.0,
2025-08-14T23:13:17.501Z,5,GR86-051-71,24.8,-0.616,-0.524,99.7,1.0,,0.0,0.0,
2025-08-14T23:13:17.544Z,5,GR86-051-71,18.6,-0.616,-0.465,99.71,1.0,6411.0,0.0,0.0,
2025-08-14T23:13:17.587Z,5,GR86-051-71,14.9,-0.603,-0.402,99.7,1.0,,0.0,0.0,83.96000000000001
2025-08-14T23:13:17.630Z,5,GR86-051-71,14.1,-0.604,-0.385,99.7,1.0,,0.0,0.0,
2025-08-14T23:13:17.674Z,5,GR86-051-71,14.1,-0.5760000000000001,-0.373,99.71,1.0,,0.0,0.0,
2025-08-14T23:13:17.717Z,5,GR86-051-71,14.1,-0.595,-0.376,99.69,1.0,,0.0,0.0,
2025-08-14T23:13:17.760Z,5,GR86-051-71,14.1,-0.601,-0.338,99.69,1.0,6749.0,0.0,0.0,
2025-08-14T23:13:17.846Z,5,GR86-051-71,15.6,-0.607,-0.328,99.7,1.0,,0.0,0.0,86.35000000000001
2025-08-14T23:13:17.889Z,5,GR86-051-71,15.7,-0.609,-0.324,99.7,1.0,,0.0,0.0,
2025-08-14T23:13:17.932Z,5,GR86-051-71,15.7,-0.5630000000000001,-0.304,99.7,1.0,,0.0,0.0,
2025-08-14T23:13:17.975Z,5,GR86-051-71,11.8,-0.622,-0.256,99.7,1.0,6951.0,0.0,0.0,
2025-08-14T23:13:18.018Z,5,GR86-051-71,9.0,-0.484,-0.226,99.69,1.0,,0.0,0.0,88.63
2025-08-14T23:13:18.061Z,5,GR86-051-71,8.4,-0.206,-0.204,99.7,2.0,,0.0,0.0,
2025-08-14T23:13:18.105Z,5,GR86-051-71,8.3,-0.669,-0.207,99.73,2.0,,0.0,0.0,
2025-08-14T23:13:18.147Z,5,GR86-051-71,8.200000000000001,-0.884,-0.049,99.72,2.0,,0.0,0.0,
2025-08-14T23:13:18.190Z,5,GR86-051-71,8.200000000000001,-0.78,-0.123,99.69,2.0,7083.0,0.0,0.0,
2025-08-14T23:13:18.234Z,5,GR86-051-71,8.1,-0.686,-0.116,99.71,2.0,,0.0,0.0,90.99
2025-08-14T23:13:18.278Z,5,GR86-051-71,8.1,-0.5760000000000001,-0.022,99.7,2.0,,0.0,0.0,
2025-08-14T23:13:18.321Z,5,GR86-051-71,7.7,-0.508,-0.109,99.7,2.0,,0.0,0.0,
2025-08-14T23:13:18.364Z,5,GR86-051-71,7.5,-0.495,-0.037,99.69,2.0,,0.0,0.0,
2025-08-14T23:13:18.407Z,5,GR86-051-71,7.5,-0.505,0.008,99.71,2.0,6119.0,0.0,0.0,
2025-08-14T23:13:18.450Z,5,GR86-051-71,7.5,-0.536,-0.017,99.71,2.0,,0.0,0.0,92.99
2025-08-14T23:13:18.494Z,5,GR86-051-71,7.5,-0.5630000000000001,0.02,99.7,2.0,,0.0,0.0,
2025-08-14T23:13:18.537Z,5,GR86-051-71,7.5,-0.551,0.014,99.7,2.0,,0.0,0.0,
2025-08-14T23:13:18.580Z,5,GR86-051-71,7.5,-0.5690000000000001,0.018,99.71,2.0,,0.0,0.0,
2025-08-14T23:13:18.623Z,5,GR86-051-71,7.5,-0.5630000000000001,0.021,99.69,2.0,5615.0,0.0,0.0,
2025-08-14T23:13:18.666Z,5,GR86-051-71,7.5,-0.5700000000000001,0.028,99.71,2.0,,0.0,0.0,95.44
2025-08-14T23:13:18.710Z,5,GR86-051-71,7.5,-0.551,0.006,99.7,2.0,,0.0,0.0,
2025-08-14T23:13:18.752Z,5,GR86-051-71,7.5,-0.546,0.04,99.7,2.0,,0.0,0.0,
2025-08-14T23:13:18.795Z,5,GR86-051-71,7.5,-0.538,0.006,99.71,2.0,,0.0,0.0,
2025-08-14T23:13:18.838Z,5,GR86-051-71,7.5,-0.525,-0.001,99.71,2.0,5796.0,0.0,0.0,
2025-08-14T23:13:18.881Z,5,GR86-051-71,7.5,-0.543,0.011,99.71,2.0,,0.0,0.0,97.57
2025-08-14T23:13:18.924Z,5,GR86-051-71,7.5,-0.54,-0.015,99.72,2.0,,0.0,0.0,
2025-08-14T23:13:18.967Z,5,GR86-051-71,7.5,-0.556,-0.006,99.72,2.0,,0.0,0.0,
2025-08-14T23:13:19.010Z,5,GR86-051-71,7.5,-0.549,-0.039,99.7,2.0,,0.0,0.0,
2025-08-14T23:13:19.055Z,5,GR86-051-71,7.5,-0.544,-0.045,99.71,2.0,5859.0,0.0,0.0,
2025-08-14T23:13:19.098Z,5,GR86-051-71,7.5,-0.5680000000000001,-0.03,99.71,2.0,,0.0,0.0,99.39
2025-08-14T23:13:19.141Z,5,GR86-051-71,7.4,-0.562,-0.055,99.71,2.0,,0.0,0.0,
2025-08-14T23:13:19.184Z,5,GR86-051-71,7.300000000000001,-0.541,-0.042,99.73,2.0,,0.0,0.0,
2025-08-14T23:13:19.227Z,5,GR86-051-71,6.5,-0.551,-0.032,99.73,2.0,,0.0,0.0,
2025-08-14T23:13:19.270Z,5,GR86-051-71,5.9,-0.525,-0.039,99.72,2.0,5988.0,0.0,0.0,
2025-08-14T23:13:19.314Z,5,GR86-051-71,5.6000000000000005,-0.551,-0.03,99.7,2.0,,0.0,0.0,101.05
2025-08-14T23:13:19.357Z,5,GR86-051-71,5.6000000000000005,-0.582,-0.022,99.73,2.0,,0.0,0.0,
2025-08-14T23:13:19.400Z,5,GR86-051-71,5.1000000000000005,-0.555,-0.02,99.72,2.0,,0.0,0.0,
2025-08-14T23:13:19.443Z,5,GR86-051-71,4.6000000000000005,-0.557,-0.015,99.73,2.0,,0.0,0.0,
2025-08-14T23:13:19.486Z,5,GR86-051-71,4.4,-0.548,-0.022,99.74,2.0,6061.0,0.0,0.0,
2025-08-14T23:13:19.530Z,5,GR86-051-71,4.3,-0.542,-0.01,99.69,2.0,,0.0,0.0,102.89
2025-08-14T23:13:19.574Z,5,GR86-051-71,3.9,-0.548,0.012,99.7,2.0,,0.0,0.0,
2025-08-14T23:13:19.617Z,5,GR86-051-71,3.4000000000000004,-0.549,0.002,99.72,2.0,,0.0,0.0,
2025-08-14T23:13:19.660Z,5,GR86-051-71,2.8000000000000003,-0.548,0.016,99.71,2.0,,0.0,0.0,
2025-08-14T23:13:19.703Z,5,GR86-051-71,2.1,-0.5760000000000001,0.015,99.72,2.0,6168.0,0.0,0.0,
2025-08-14T23:13:19.746Z,5,GR86-051-71,1.2000000000000002,-0.549,0.021,99.73,2.0,,0.0,0.0,104.55
2025-08-14T23:13:19.789Z,5,GR86-051-71,0.2,-0.561,0.049,99.74,2.0,,0.0,0.0,
2025-08-14T23:13:19.832Z,5,GR86-051-71,0.0,-0.554,0.052,99.71,2.0,,0.0,0.0,
2025-08-14T23:13:19.875Z,5,GR86-051-71,-0.1,-0.536,0.079,99.71,2.0,,0.0,0.0,
2025-08-14T23:13:19.918Z,5,GR86-051-71,-0.1,-0.527,0.097,99.72,2.0,6244.0,0.0,0.0,
2025-08-14T23:13:19.961Z,5,GR86-051-71,-0.1,-0.55,0.095,99.71,2.0,,0.0,0.0,107.86
2025-08-14T23:13:20.004Z,5,GR86-051-71,-0.1,-0.546,0.114,99.73,2.0,,0.0,0.0,
2025-08-14T23:13:20.047Z,5,GR86-051-71,-0.1,-0.551,0.126,99.72,2.0,,0.0,0.0,
2025-08-14T23:13:20.090Z,5,GR86-051-71,-0.1,-0.558,0.126,99.73,2.0,,0.0,0.0,
2025-08-14T23:13:20.134Z,5,GR86-051-71,-0.1,-0.554,0.135,99.69,2.0,6344.0,0.0,0.0,
2025-08-14T23:13:20.177Z,5,GR86-051-71,-0.1,-0.525,0.147,99.71,2.0,,0.0,0.0,109.34
2025-08-14T23:13:20.220Z,5,GR86-051-71,-0.1,-0.546,0.149,99.73,2.0,,0.0,0.0,
2025-08-14T23:13:20.264Z,5,GR86-051-71,-0.1,-0.559,0.143,99.71,2.0,,0.0,0.0,
2025-08-14T23:13:20.308Z,5,GR86-051-71,-0.1,-0.554,0.14,99.72,2.0,,0.0,0.0,
2025-08-14T23:13:20.352Z,5,GR86-051-71,-0.1,-0.5700000000000001,0.131,99.7,2.0,6437.0,0.0,0.0,
2025-08-14T23:13:20.395Z,5,GR86-051-71,-0.1,-0.5690000000000001,0.123,99.7,2.0,,0.0,0.0,110.83
2025-08-14T23:13:20.438Z,5,GR86-051-71,-0.1,-0.55,0.125,99.7,2.0,,0.0,0.0,
2025-08-14T23:13:20.481Z,5,GR86-051-71,-0.1,-0.5670000000000001,0.107,99.7,2.0,,0.0,0.0,
2025-08-14T23:13:20.524Z,5,GR86-051-71,-0.1,-0.5720000000000001,0.093,99.71,2.0,,0.0,0.0,
2025-08-14T23:13:20.568Z,5,GR86-051-71,-0.1,-0.541,0.087,99.71,2.0,6606.0,0.0,0.0,
2025-08-14T23:13:20.610Z,5,GR86-051-71,-0.1,-0.559,0.082,99.72,2.0,,0.0,0.0,112.34
2025-08-14T23:13:20.655Z,5,GR86-051-71,-0.1,-0.5660000000000001,0.07,99.7,2.0,,0.0,0.0,
2025-08-14T23:13:20.698Z,5,GR86-051-71,-0.1,-0.5640000000000001,0.067,99.69,2.0,,0.0,0.0,
2025-08-14T23:13:20.741Z,5,GR86-051-71,-0.1,-0.544,0.056,99.69,2.0,,0.0,0.0,
2025-08-14T23:13:20.785Z,5,GR86-051-71,-0.1,-0.543,0.047,99.7,2.0,6682.0,0.0,0.0,
2025-08-14T23:13:20.828Z,5,GR86-051-71,-0.1,-0.535,0.031,99.71,2.0,,0.0,0.0,113.82
2025-08-14T23:13:20.871Z,5,GR86-051-71,0.4,-0.535,0.025,99.69,2.0,,0.0,0.0,
2025-08-14T23:13:20.915Z,5,GR86-051-71,0.7000000000000001,-0.543,-0.002,99.71,2.0,,0.0,0.0,
2025-08-14T23:13:20.958Z,5,GR86-051-71,1.2000000000000002,-0.538,0.002,99.69,2.0,,0.0,0.0,
2025-08-14T23:13:21.001Z,5,GR86-051-71,2.7,-0.535,-0.004,99.69,2.0,6751.0,0.0,0.0,
2025-08-14T23:13:21.044Z,5,GR86-051-71,4.0,-0.517,-0.035,99.69,2.0,,0.0,0.0,115.18
2025-08-14T23:13:21.087Z,5,GR86-051-71,4.3,-0.524,-0.037,99.71,2.0,,0.0,0.0,
2025-08-14T23:13:21.130Z,5,GR86-051-71,4.3,-0.529,-0.046,99.71,2.0,,0.0,0.0,
2025-08-14T23:13:21.174Z,5,GR86-051-71,4.3,-0.522,-0.068,99.71,2.0,,0.0,0.0,
2025-08-14T23:13:21.216Z,5,GR86-051-71,4.3,-0.515,-0.079,99.71,2.0,6831.0,0.0,0.0,
2025-08-14T23:13:21.259Z,5,GR86-051-71,4.3,-0.544,-0.055,99.69,2.0,,0.0,0.0,116.39
2025-08-14T23:13:21.302Z,5,GR86-051-71,4.3,-0.529,-0.083,99.71,2.0,,0.0,0.0,
2025-08-14T23:13:21.345Z,5,GR86-051-71,4.3,-0.511,-0.104,99.72,2.0,,0.0,0.0,
2025-08-14T23:13:21.389Z,5,GR86-051-71,4.4,-0.545,-0.082,99.7,2.0,,0.0,0.0,
2025-08-14T23:13:21.432Z,5,GR86-051-71,4.3,-0.528,-0.116,99.71,2.0,6918.0,0.0,0.0,
2025-08-14T23:13:21.475Z,5,GR86-051-71,4.3,-0.52,-0.099,99.73,2.0,,0.0,0.0,117.52
2025-08-14T23:13:21.518Z,5,GR86-051-71,4.3,-0.478,-0.092,99.71,2.0,,0.0,0.0,
2025-08-14T23:13:21.561Z,5,GR86-051-71,4.3,-0.536,-0.069,99.7,2.0,,0.0,0.0,
2025-08-14T23:13:21.604Z,5,GR86-051-71,4.3,-0.378,-0.088,99.69,2.0,,0.0,0.0,
