timestamp,lap,vehicle_id,steering_angle,accx_can,accy_can,ath,gear,nmot,pbrake_f,pbrake_r,speed
2025-08-14T23:44:47.683Z,6,GR86-024-41,17.900000000000002,0.128,0.017,100.0,4.0,6714.0,0.0,0.0,
2025-08-14T23:44:47.728Z,6,GR86-024-41,17.900000000000002,0.129,0.033,100.0,4.0,,0.0,0.0,169.61
2025-08-14T23:44:47.772Z,6,GR86-024-41,17.900000000000002,0.131,0.033,100.02,4.0,,0.0,0.0,
2025-08-14T23:44:47.815Z,6,GR86-024-41,17.900000000000002,0.137,0.035,100.01,4.0,,0.0,0.0,
2025-08-14T23:44:47.858Z,6,GR86-024-41,17.900000000000002,0.11,0.036,100.01,4.0,,0.0,0.0,
2025-08-14T23:44:47.902Z,6,GR86-024-41,17.900000000000002,0.135,0.02,99.98,4.0,6753.0,0.0,0.0,
2025-08-14T23:44:47.945Z,6,GR86-024-41,17.900000000000002,0.139,0.026,100.0,4.0,,0.0,0.0,170.23
2025-08-14T23:44:47.988Z,6,GR86-024-41,17.900000000000002,0.095,0.039,99.98,4.0,,0.0,0.0,
2025-08-14T23:44:48.031Z,6,GR86-024-41,17.900000000000002,0.088,0.031,99.98,4.0,,0.0,0.0,
2025-08-14T23:44:48.074Z,6,GR86-024-41,17.900000000000002,0.092,0.029,100.02,4.0,,0.0,0.0,
2025-08-14T23:44:48.117Z,6,GR86-024-41,17.8,0.097,0.023,100.03,4.0,6761.0,0.0,0.0,
2025-08-14T23:44:48.160Z,6,GR86-024-41,17.8,0.117,0.016,100.02,4.0,,0.0,0.0,171.13
2025-08-14T23:44:48.203Z,6,GR86-024-41,17.8,0.119,0.02,100.0,4.0,,0.0,0.0,
2025-08-14T23:44:48.246Z,6,GR86-024-41,17.8,0.069,0.022,100.01,4.0,,0.0,0.0,
2025-08-14T23:44:48.289Z,6,GR86-024-41,17.8,0.068,0.011,99.99,4.0,,0.0,0.0,
2025-08-14T23:44:48.332Z,6,GR86-024-41,17.8,0.062,0.02,100.0,4.0,6789.0,0.0,0.0,
2025-08-14T23:44:48.375Z,6,GR86-024-41,17.8,0.066,0.021,99.98,4.0,,0.0,0.0,171.83
2025-08-14T23:44:48.418Z,6,GR86-024-41,17.8,0.093,0.024,100.01,4.0,,0.0,0.0,
2025-08-14T23:44:48.461Z,6,GR86-024-41,17.8,0.087,0.019,99.99,4.0,,0.0,0.0,
2025-08-14T23:44:48.504Z,6,GR86-024-41,17.8,0.097,0.004,100.03,4.0,,0.0,0.0,
2025-08-14T23:44:48.547Z,6,GR86-024-41,17.8,0.101,0.034,100.01,4.0,6828.0,0.0,0.0,
2025-08-14T23:44:48.590Z,6,GR86-024-41,17.8,0.082,0.026,100.0,4.0,,0.0,0.0,172.45000000000002
2025-08-14T23:44:48.633Z,6,GR86-024-41,17.8,0.105,0.025,100.04,4.0,,0.0,0.0,
2025-08-14T23:44:48.676Z,6,GR86-024-41,17.8,0.089,0.004,100.03,4.0,,0.0,0.0,
2025-08-14T23:44:48.719Z,6,GR86-024-41,17.8,0.087,0.009,100.03,4.0,,0.0,0.0,
2025-08-14T23:44:48.763Z,6,GR86-024-41,17.8,0.08,0.005,100.01,4.0,6863.0,0.0,0.0,
2025-08-14T23:44:48.806Z,6,GR86-024-41,17.8,0.122,0.012,100.02,4.0,,0.0,0.0,173.19
2025-08-14T23:44:48.851Z,6,GR86-024-41,17.8,0.119,0.01,100.0,4.0,,0.0,0.0,
2025-08-14T23:44:48.894Z,6,GR86-024-41,17.8,0.108,0.02,100.03,4.0,,0.0,0.0,
2025-08-14T23:44:48.937Z,6,GR86-024-41,17.8,0.119,0.025,100.02,4.0,,0.0,0.0,
2025-08-14T23:44:48.980Z,6,GR86-024-41,17.8,0.115,0.032,100.02,4.0,6888.0,0.0,0.0,
2025-08-14T23:44:49.023Z,6,GR86-024-41,17.8,0.109,0.046,99.99,4.0,,0.0,0.0,173.83
2025-08-14T23:44:49.066Z,6,GR86-024-41,17.8,0.103,0.016,100.01,4.0,,0.0,0.0,
2025-08-14T23:44:49.109Z,6,GR86-024-41,17.8,0.103,0.03,100.0,4.0,,0.0,0.0,
2025-08-14T23:44:49.152Z,6,GR86-024-41,17.8,0.101,0.029,100.03,4.0,,0.0,0.0,
2025-08-14T23:44:49.195Z,6,GR86-024-41,17.8,0.119,0.039,100.02,4.0,6918.0,0.0,0.0,
2025-08-14T23:44:49.238Z,6,GR86-024-41,17.8,0.129,0.039,100.0,4.0,,0.0,0.0,175.4
2025-08-14T23:44:49.282Z,6,GR86-024-41,17.8,0.113,0.023,100.03,4.0,,0.0,0.0,
2025-08-14T23:44:49.328Z,6,GR86-024-41,17.8,0.091,0.025,99.98,4.0,,0.0,0.0,
2025-08-14T23:44:49.371Z,6,GR86-024-41,17.8,0.088,0.029,99.99,4.0,,0.0,0.0,
2025-08-14T23:44:49.414Z,6,GR86-024-41,17.8,0.091,0.026,100.0,4.0,6944.0,0.0,0.0,
2025-08-14T23:44:49.457Z,6,GR86-024-41,17.8,0.105,0.018,99.98,4.0,,0.0,0.0,176.05
2025-08-14T23:44:49.500Z,6,GR86-024-41,17.8,0.106,0.021,100.01,4.0,,0.0,0.0,
2025-08-14T23:44:49.543Z,6,GR86-024-41,17.8,0.1,0.014,99.99,4.0,,0.0,0.0,
2025-08-14T23:44:49.586Z,6,GR86-024-41,17.8,0.075,0.038,100.02,4.0,,0.0,0.0,
2025-08-14T23:44:49.630Z,6,GR86-024-41,17.8,0.073,0.048,100.05,4.0,6996.0,0.0,0.0,
2025-08-14T23:44:49.673Z,6,GR86-024-41,17.8,0.084,0.047,100.01,4.0,,0.0,0.0,176.79
2025-08-14T23:44:49.716Z,6,GR86-024-41,17.8,0.097,0.04,100.0,4.0,,0.0,0.0,
2025-08-14T23:44:49.759Z,6,GR86-024-41,17.8,0.075,0.058,100.02,4.0,,0.0,0.0,
2025-08-14T23:44:49.802Z,6,GR86-024-41,17.8,0.068,0.045,100.01,4.0,,0.0,0.0,
2025-08-14T23:44:49.845Z,6,GR86-024-41,17.8,0.068,0.039,100.0,4.0,7023.0,0.0,0.0,
2025-08-14T23:44:49.888Z,6,GR86-024-41,17.8,0.109,0.016,100.01,4.0,,0.0,0.0,177.52
2025-08-14T23:44:49.931Z,6,GR86-024-41,17.8,0.124,0.028,100.0,4.0,,0.0,0.0,
2025-08-14T23:44:49.974Z,6,GR86-024-41,17.8,0.109,0.036,100.03,4.0,,0.0,0.0,
2025-08-14T23:44:50.017Z,6,GR86-024-41,17.8,0.11,0.032,100.0,4.0,,0.0,0.0,
2025-08-14T23:44:50.060Z,6,GR86-024-41,17.8,0.117,0.019,99.99,4.0,7043.0,0.0,0.0,
2025-08-14T23:44:50.103Z,6,GR86-024-41,17.8,0.107,0.023,100.01,4.0,,0.0,0.0,178.27
2025-08-14T23:44:50.146Z,6,GR86-024-41,17.8,0.063,0.024,100.02,4.0,,0.0,0.0,
2025-08-14T23:44:50.189Z,6,GR86-024-41,17.8,0.06,0.039,100.03,4.0,,0.0,0.0,
2025-08-14T23:44:50.233Z,6,GR86-024-41,17.8,0.076,0.029,100.01,4.0,,0.0,0.0,
2025-08-14T23:44:50.276Z,6,GR86-024-41,17.8,0.077,0.02,100.0,4.0,7080.0,0.0,0.0,
2025-08-14T23:44:50.321Z,6,GR86-024-41,17.8,0.068,0.027,99.98,4.0,,0.0,0.0,178.86
2025-08-14T23:44:50.364Z,6,GR86-024-41,17.8,0.078,0.034,99.99,4.0,,0.0,0.0,
2025-08-14T23:44:50.407Z,6,GR86-024-41,17.8,0.1,0.035,100.04,4.0,,0.0,0.0,
2025-08-14T23:44:50.450Z,6,GR86-024-41,17.8,0.096,0.032,99.98,4.0,,0.0,0.0,
2025-08-14T23:44:50.493Z,6,GR86-024-41,17.8,0.107,0.048,99.97,4.0,7104.0,0.0,0.0,
2025-08-14T23:44:50.536Z,6,GR86-024-41,17.8,0.116,0.036,99.97,4.0,,0.0,0.0,179.51
2025-08-14T23:44:50.579Z,6,GR86-024-41,17.8,0.104,0.038,100.0,4.0,,0.0,0.0,
2025-08-14T23:44:50.622Z,6,GR86-024-41,17.8,0.102,0.021,100.03,4.0,,0.0,0.0,
2025-08-14T23:44:50.666Z,6,GR86-024-41,17.8,0.075,0.04,99.99,4.0,,0.0,0.0,
2025-08-14T23:44:50.709Z,6,GR86-024-41,17.8,0.068,0.045,100.02,4.0,7120.0,0.0,0.0,
2025-08-14T23:44:50.752Z,6,GR86-024-41,17.8,0.071,0.028,100.02,4.0,,0.0,0.0,180.23
2025-08-14T23:44:50.795Z,6,GR86-024-41,17.8,0.069,0.024,100.02,4.0,,0.0,0.0,
2025-08-14T23:44:50.838Z,6,GR86-024-41,17.8,0.078,0.023,100.0,4.0,,0.0,0.0,
2025-08-14T23:44:50.881Z,6,GR86-024-41,17.8,0.081,0.038,100.0,4.0,,0.0,0.0,
2025-08-14T23:44:50.928Z,6,GR86-024-41,17.8,0.11,0.041,99.99,4.0,7150.0,0.0,0.0,
2025-08-14T23:44:50.971Z,6,GR86-024-41,17.8,0.1,0.022,99.97,4.0,,0.0,0.0,181.0
2025-08-14T23:44:51.014Z,6,GR86-024-41,17.8,-0.008,0.009,99.98,5.0,,0.0,0.0,
2025-08-14T23:44:51.058Z,6,GR86-024-41,17.7,-0.092,0.068,100.0,5.0,,0.0,0.0,
2025-08-14T23:44:51.102Z,6,GR86-024-41,17.7,0.333,0.002,99.97,5.0,,0.0,0.0,
2025-08-14T23:44:51.145Z,6,GR86-024-41,17.7,0.198,-0.023,99.96,5.0,7189.0,0.0,0.0,
2025-08-14T23:44:51.188Z,6,GR86-024-41,17.7,-0.019,0.014,100.0,5.0,,0.0,0.0,181.6
2025-08-14T23:44:51.231Z,6,GR86-024-41,17.6,0.025,-0.062,99.97,5.0,,0.0,0.0,
2025-08-14T23:44:51.274Z,6,GR86-024-41,17.5,0.076,0.041,99.97,5.0,,0.0,0.0,
2025-08-14T23:44:51.317Z,6,GR86-024-41,17.5,0.066,-0.036,100.03,5.0,,0.0,0.0,
2025-08-14T23:44:51.360Z,6,GR86-024-41,17.5,0.041,-0.037,100.01,5.0,6916.0,0.0,0.0,
2025-08-14T23:44:51.403Z,6,GR86-024-41,17.400000000000002,0.064,-0.005,100.0,5.0,,0.0,0.0,182.35
2025-08-14T23:44:51.446Z,6,GR86-024-41,17.3,0.086,-0.038,100.0,5.0,,0.0,0.0,
2025-08-14T23:44:51.491Z,6,GR86-024-41,17.3,0.084,-0.03,100.01,5.0,,0.0,0.0,
2025-08-14T23:44:51.534Z,6,GR86-024-41,17.3,0.091,-0.018,100.0,5.0,,0.0,0.0,
2025-08-14T23:44:51.577Z,6,GR86-024-41,17.3,0.089,-0.026,99.97,5.0,6269.0,0.0,0.0,
2025-08-14T23:44:51.620Z,6,GR86-024-41,17.3,0.094,-0.027,100.0,5.0,,0.0,0.0,182.83
2025-08-14T23:44:51.664Z,6,GR86-024-41,17.3,0.088,-0.046,99.98,5.0,,0.0,0.0,
2025-08-14T23:44:51.707Z,6,GR86-024-41,17.3,0.065,-0.042,100.02,5.0,,0.0,0.0,
2025-08-14T23:44:51.750Z,6,GR86-024-41,17.3,0.066,-0.038,100.01,5.0,,0.0,0.0,
2025-08-14T23:44:51.793Z,6,GR86-024-41,17.3,0.07,-0.038,100.0,5.0,6283.0,0.0,0.0,
2025-08-14T23:44:51.836Z,6,GR86-024-41,17.3,0.062,-0.038,100.02,5.0,,0.0,0.0,183.95
2025-08-14T23:44:51.879Z,6,GR86-024-41,17.3,0.061,-0.03,100.01,5.0,,0.0,0.0,
2025-08-14T23:44:51.922Z,6,GR86-024-41,17.3,0.063,-0.031,100.0,5.0,,0.0,0.0,
2025-08-14T23:44:51.965Z,6,GR86-024-41,17.3,0.077,-0.025,100.01,5.0,,0.0,0.0,
2025-08-14T23:44:52.008Z,6,GR86-024-41,17.3,0.085,-0.017,99.99,5.0,6308.0,0.0,0.0,
2025-08-14T23:44:52.051Z,6,GR86-024-41,17.3,0.086,-0.021,100.03,5.0,,0.0,0.0,184.75
2025-08-14T23:44:52.094Z,6,GR86-024-41,17.3,0.091,-0.022,100.0,5.0,,0.0,0.0,
2025-08-14T23:44:52.137Z,6,GR86-024-41,17.3,0.091,-0.024,100.01,5.0,,0.0,0.0,
2025-08-14T23:44:52.180Z,6,GR86-024-41,17.3,0.091,-0.017,100.01,5.0,,0.0,0.0,
2025-08-14T23:44:52.223Z,6,GR86-024-41,17.3,0.084,-0.004,100.01,5.0,6324.0,0.0,0.0,
2025-08-14T23:44:52.266Z,6,GR86-024-41,17.3,0.051,0.003,99.99,5.0,,0.0,0.0,185.38
2025-08-14T23:44:52.309Z,6,GR86-024-41,17.3,0.077,0.011,100.0,5.0,,0.0,0.0,
2025-08-14T23:44:52.352Z,6,GR86-024-41,17.3,0.056,0.014,99.97,5.0,,0.0,0.0,
2025-08-14T23:44:52.395Z,6,GR86-024-41,17.0,0.056,0.004,100.02,5.0,,0.0,0.0,
2025-08-14T23:44:52.438Z,6,GR86-024-41,16.400000000000002,0.063,-0.012,99.99,5.0,6366.0,0.0,0.0,
2025-08-14T23:44:52.482Z,6,GR86-024-41,16.1,0.057,-0.024,100.02,5.0,,0.0,0.0,186.05
2025-08-14T23:44:52.525Z,6,GR86-024-41,16.0,0.064,-0.024,100.0,5.0,,0.0,0.0,
2025-08-14T23:44:52.568Z,6,GR86-024-41,16.0,0.081,-0.048,99.98,5.0,,0.0,0.0,
2025-08-14T23:44:52.611Z,6,GR86-024-41,16.0,0.047,-0.064,100.01,5.0,,0.0,0.0,
2025-08-14T23:44:52.654Z,6,GR86-024-41,16.0,0.066,-0.066,99.98,5.0,6393.0,0.0,0.0,
2025-08-14T23:44:52.697Z,6,GR86-024-41,16.0,0.064,-0.051,100.0,5.0,,0.0,0.0,186.7
2025-08-14T23:44:52.740Z,6,GR86-024-41,16.0,0.057,-0.064,100.0,5.0,,0.0,0.0,
2025-08-14T23:44:52.783Z,6,GR86-024-41,16.0,0.063,-0.066,100.01,5.0,,0.0,0.0,
2025-08-14T23:44:52.828Z,6,GR86-024-41,16.1,0.077,-0.078,100.01,5.0,,0.0,0.0,
2025-08-14T23:44:52.872Z,6,GR86-024-41,16.1,0.1,-0.076,100.0,5.0,6407.0,0.0,0.0,
2025-08-14T23:44:52.915Z,6,GR86-024-41,16.1,0.104,-0.062,99.99,5.0,,0.0,0.0,187.37
2025-08-14T23:44:52.958Z,6,GR86-024-41,16.1,0.094,-0.062,100.03,5.0,,0.0,0.0,
2025-08-14T23:44:53.001Z,6,GR86-024-41,16.1,0.08,-0.07,100.0,5.0,,0.0,0.0,
2025-08-14T23:44:53.044Z,6,GR86-024-41,16.1,0.08,-0.052,100.01,5.0,,0.0,0.0,
2025-08-14T23:44:53.087Z,6,GR86-024-41,16.2,0.068,-0.035,100.0,5.0,6426.0,0.0,0.0,
2025-08-14T23:44:53.130Z,6,GR86-024-41,16.400000000000002,0.075,-0.016,100.01,5.0,,0.0,0.0,188.02
2025-08-14T23:44:53.173Z,6,GR86-024-41,16.7,0.075,-0.01,99.99,5.0,,0.0,0.0,
2025-08-14T23:44:53.216Z,6,GR86-024-41,16.900000000000002,0.1,0.015,100.01,5.0,,0.0,0.0,
2025-08-14T23:44:53.259Z,6,GR86-024-41,17.0,0.085,0.02,99.99,5.0,,0.0,0.0,
2025-08-14T23:44:53.302Z,6,GR86-024-41,17.0,0.089,0.017,100.01,5.0,6454.0,0.0,0.0,
2025-08-14T23:44:53.345Z,6,GR86-024-41,17.0,0.105,0.028,100.02,5.0,,0.0,0.0,188.62
2025-08-14T23:44:53.388Z,6,GR86-024-41,16.3,0.052,0.001,100.03,5.0,,0.0,0.0,
2025-08-14T23:44:53.431Z,6,GR86-024-41,15.4,0.034,-0.004,99.98,5.0,,0.0,0.0,
2025-08-14T23:44:53.474Z,6,GR86-024-41,15.0,0.042,-0.015,100.0,5.0,,0.0,0.0,
2025-08-14T23:44:53.517Z,6,GR86-024-41,14.7,0.062,-0.027,99.98,5.0,6468.0,0.0,0.0,
2025-08-14T23:44:53.560Z,6,GR86-024-41,14.5,0.065,-0.035,99.99,5.0,,0.0,0.0,189.24
2025-08-14T23:44:53.603Z,6,GR86-024-41,14.4,0.071,-0.046,99.97,5.0,,0.0,0.0,
2025-08-14T23:44:53.646Z,6,GR86-024-41,14.4,0.043,-0.081,99.99,5.0,,0.0,0.0,
2025-08-14T23:44:53.689Z,6,GR86-024-41,14.4,0.051,-0.102,100.02,5.0,,0.0,0.0,
2025-08-14T23:44:53.733Z,6,GR86-024-41,14.4,0.047,-0.113,99.98,5.0,6486.0,0.0,0.0,
2025-08-14T23:44:53.776Z,6,GR86-024-41,14.4,0.03,-0.127,99.99,5.0,,0.0,0.0,189.84
2025-08-14T23:44:53.819Z,6,GR86-024-41,14.4,0.044,-0.16,100.0,5.0,,0.0,0.0,
2025-08-14T23:44:53.862Z,6,GR86-024-41,14.5,0.059,-0.159,100.03,5.0,,0.0,0.0,
2025-08-14T23:44:53.908Z,6,GR86-024-41,14.6,0.073,-0.137,100.03,5.0,,0.0,0.0,
2025-08-14T23:44:53.951Z,6,GR86-024-41,14.9,0.05,-0.105,100.0,5.0,6513.0,0.0,0.0,
2025-08-14T23:44:53.994Z,6,GR86-024-41,15.6,0.054,-0.108,100.01,5.0,,0.0,0.0,190.3
2025-08-14T23:44:54.037Z,6,GR86-024-41,16.6,0.061,-0.103,100.01,5.0,,0.0,0.0,
2025-08-14T23:44:54.080Z,6,GR86-024-41,17.6,0.052,-0.102,100.03,5.0,,0.0,0.0,
2025-08-14T23:44:54.123Z,6,GR86-024-41,18.1,0.05,-0.097,99.98,5.0,,0.0,0.0,
2025-08-14T23:44:54.166Z,6,GR86-024-41,18.2,0.086,-0.043,100.01,5.0,6527.0,0.0,0.0,
2025-08-14T23:44:54.209Z,6,GR86-024-41,18.2,0.07,-0.013,99.99,5.0,,0.0,0.0,191.0
2025-08-14T23:44:54.252Z,6,GR86-024-41,18.2,0.083,-0.002,99.98,5.0,,0.0,0.0,
2025-08-14T23:44:54.295Z,6,GR86-024-41,18.3,0.066,0.017,100.03,5.0,,0.0,0.0,
2025-08-14T23:44:54.338Z,6,GR86-024-41,18.4,0.076,0.012,100.0,5.0,,0.0,0.0,
2025-08-14T23:44:54.381Z,6,GR86-024-41,18.4,0.041,0.053,99.99,5.0,6552.0,0.0,0.0,
2025-08-14T23:44:54.428Z,6,GR86-024-41,18.4,0.077,0.092,100.01,5.0,,0.0,0.0,192.02
2025-08-14T23:44:54.471Z,6,GR86-024-41,18.3,0.084,0.099,99.99,5.0,,0.0,0.0,
2025-08-14T23:44:54.514Z,6,GR86-024-41,18.3,0.069,0.074,99.99,5.0,,0.0,0.0,
2025-08-14T23:44:54.557Z,6,GR86-024-41,18.3,0.074,0.09,100.01,5.0,,0.0,0.0,
2025-08-14T23:44:54.600Z,6,GR86-024-41,17.7,0.071,0.092,100.0,5.0,6569.0,0.0,0.0,
2025-08-14T23:44:54.643Z,6,GR86-024-41,17.2,0.063,0.081,100.01,5.0,,0.0,0.0,192.51
2025-08-14T23:44:54.686Z,6,GR86-024-41,17.1,0.077,0.058,100.0,5.0,,0.0,0.0,
2025-08-14T23:44:54.729Z,6,GR86-024-41,17.0,0.057,0.056,99.99,5.0,,0.0,0.0,
2025-08-14T23:44:54.772Z,6,GR86-024-41,17.0,0.073,0.054,99.99,5.0,,0.0,0.0,
2025-08-14T23:44:54.815Z,6,GR86-024-41,16.900000000000002,0.042,0.073,100.0,5.0,6584.0,0.0,0.0,
2025-08-14T23:44:54.858Z,6,GR86-024-41,16.900000000000002,0.073,0.033,100.0,5.0,,0.0,0.0,193.0
2025-08-14T23:44:54.902Z,6,GR86-024-41,16.900000000000002,0.064,-0.023,100.02,5.0,,0.0,0.0,
2025-08-14T23:44:54.945Z,6,GR86-024-41,16.8,0.061,-0.015,100.02,5.0,,0.0,0.0,
2025-08-14T23:44:54.988Z,6,GR86-024-41,16.400000000000002,0.049,-0.035,100.01,5.0,,0.0,0.0,
2025-08-14T23:44:55.031Z,6,GR86-024-41,16.400000000000002,0.055,-0.012,100.01,5.0,6624.0,0.0,0.0,
2025-08-14T23:44:55.074Z,6,GR86-024-41,16.400000000000002,0.062,-0.053,100.03,5.0,,0.0,0.0,193.48
2025-08-14T23:44:55.117Z,6,GR86-024-41,16.400000000000002,0.063,-0.056,100.01,5.0,,0.0,0.0,
2025-08-14T23:44:55.160Z,6,GR86-024-41,16.400000000000002,0.075,-0.055,100.0,5.0,,0.0,0.0,
2025-08-14T23:44:55.203Z,6,GR86-024-41,16.400000000000002,0.075,-0.06,100.01,5.0,,0.0,0.0,
2025-08-14T23:44:55.246Z,6,GR86-024-41,16.400000000000002,0.047,-0.07,100.03,5.0,6645.0,0.0,0.0,
2025-08-14T23:44:55.289Z,6,GR86-024-41,16.400000000000002,0.067,-0.072,99.98,5.0,,0.0,0.0,193.91
2025-08-14T23:44:55.333Z,6,GR86-024-41,16.5,0.042,-0.082,99.99,5.0,,0.0,0.0,
2025-08-14T23:44:55.376Z,6,GR86-024-41,16.5,0.06,-0.078,100.01,5.0,,0.0,0.0,
2025-08-14T23:44:55.421Z,6,GR86-024-41,16.5,0.063,-0.048,99.99,5.0,,0.0,0.0,
2025-08-14T23:44:55.464Z,6,GR86-024-41,16.6,0.075,-0.016,100.0,5.0,6645.0,0.0,0.0,
2025-08-14T23:44:55.507Z,6,GR86-024-41,16.900000000000002,0.045,-0.023,99.99,5.0,,0.0,0.0,194.44
2025-08-14T23:44:55.550Z,6,GR86-024-41,17.5,0.033,-0.03,100.0,5.0,,0.0,0.0,
2025-08-14T23:44:55.593Z,6,GR86-024-41,17.8,0.049,-0.027,99.99,5.0,,0.0,0.0,
2025-08-14T23:44:55.636Z,6,GR86-024-41,17.900000000000002,0.043,0.01,99.99,5.0,,0.0,0.0,
2025-08-14T23:44:55.679Z,6,GR86-024-41,17.900000000000002,0.062,0.025,100.0,5.0,6669.0,0.0,0.0,
2025-08-14T23:44:55.722Z,6,GR86-024-41,17.900000000000002,0.063,0.036,100.01,5.0,,0.0,0.0,194.96
2025-08-14T23:44:55.765Z,6,GR86-024-41,18.1,0.068,0.033,99.99,5.0,,0.0,0.0,
2025-08-14T23:44:55.808Z,6,GR86-024-41,18.3,0.033,0.036,99.98,5.0,,0.0,0.0,
2025-08-14T23:44:55.851Z,6,GR86-024-41,18.3,0.033,0.058,100.0,5.0,,0.0,0.0,
2025-08-14T23:44:55.894Z,6,GR86-024-41,18.3,0.045,0.096,100.0,5.0,6697.0,0.0,0.0,
2025-08-14T23:44:55.937Z,6,GR86-024-41,18.3,0.068,0.091,99.99,5.0,,0.0,0.0,195.35
2025-08-14T23:44:55.980Z,6,GR86-024-41,18.3,0.078,0.093,99.99,5.0,,0.0,0.0,
2025-08-14T23:44:56.023Z,6,GR86-024-41,18.3,0.06,0.106,100.0,5.0,,0.0,0.0,
2025-08-14T23:44:56.066Z,6,GR86-024-41,18.3,0.038,0.117,100.01,5.0,,0.0,0.0,
2025-08-14T23:44:56.109Z,6,GR86-024-41,18.3,0.059,0.107,100.03,5.0,6694.0,0.0,0.0,
2025-08-14T23:44:56.152Z,6,GR86-024-41,18.3,0.059,0.1,99.99,5.0,,0.0,0.0,196.04
2025-08-14T23:44:56.195Z,6,GR86-024-41,18.2,0.073,0.1,100.0,5.0,,0.0,0.0,
2025-08-14T23:44:56.238Z,6,GR86-024-41,18.2,0.079,0.103,100.0,5.0,,0.0,0.0,
2025-08-14T23:44:56.282Z,6,GR86-024-41,18.2,0.082,0.1,100.02,5.0,,0.0,0.0,
2025-08-14T23:44:56.325Z,6,GR86-024-41,18.2,0.074,0.08,99.98,5.0,6715.0,0.0,0.0,
2025-08-14T23:44:56.368Z,6,GR86-024-41,18.0,0.064,0.057,99.78,5.0,,0.0,0.0,196.44
2025-08-14T23:44:56.411Z,6,GR86-024-41,17.900000000000002,0.064,0.052,84.74,5.0,,0.0,0.0,
2025-08-14T23:44:56.454Z,6,GR86-024-41,17.7,0.079,0.026,75.71000000000001,5.0,,0.0,0.0,
2025-08-14T23:44:56.497Z,6,GR86-024-41,17.5,0.076,0.022,62.15,5.0,,2.395,2.305,
2025-08-14T23:44:56.541Z,6,GR86-024-41,17.3,0.058,0.02,48.71,5.0,6728.0,4.775,4.805,
2025-08-14T23:44:56.584Z,6,GR86-024-41,16.8,-0.034,0.041,37.04,5.0,,8.605,8.575000000000001,196.94
2025-08-14T23:44:56.628Z,6,GR86-024-41,16.400000000000002,-0.25,-0.008,31.83,5.0,,14.88,14.39,
2025-08-14T23:44:56.671Z,6,GR86-024-41,16.3,-0.31,-0.021,29.61,5.0,,17.61,17.275000000000002,
2025-08-14T23:44:56.714Z,6,GR86-024-41,16.3,-0.334,-0.026,21.28,5.0,,19.73,19.55,
2025-08-14T23:44:56.757Z,6,GR86-024-41,16.2,-0.374,-0.031,11.59,5.0,6746.0,21.835,21.745,
2025-08-14T23:44:56.801Z,6,GR86-024-41,16.2,-0.432,-0.039,5.96,5.0,,24.795,24.585,197.39
2025-08-14T23:44:56.844Z,6,GR86-024-41,16.2,-0.544,-0.052,5.5600000000000005,5.0,,30.995,30.64,
2025-08-14T23:44:56.887Z,6,GR86-024-41,15.8,-0.865,-0.081,4.24,5.0,,48.955,48.39,
2025-08-14T23:44:56.930Z,6,GR86-024-41,15.5,-0.986,-0.057,3.9,5.0,,62.06,61.33,
2025-08-14T23:44:56.973Z,6,GR86-024-41,15.5,-0.995,-0.043,2.85,5.0,6712.0,77.855,77.46000000000001,
2025-08-14T23:44:57.016Z,6,GR86-024-41,15.5,-1.049,-0.059,2.65,5.0,,88.675,90.11,197.43
2025-08-14T23:44:57.059Z,6,GR86-024-41,17.5,-0.854,-0.194,2.53,5.0,,87.15,87.59,
2025-08-14T23:44:57.102Z,6,GR86-024-41,20.4,-1.206,-0.034,2.49,5.0,,86.705,87.03,
2025-08-14T23:44:57.145Z,6,GR86-024-41,21.1,-0.938,-0.088,2.47,5.0,,83.795,84.295,
2025-08-14T23:44:57.188Z,6,GR86-024-41,22.8,-1.108,-0.076,2.47,5.0,6517.0,80.375,79.69,
2025-08-14T23:44:57.231Z,6,GR86-024-41,22.9,-1.116,-0.039,2.46,5.0,,81.49,81.625,185.61
2025-08-14T23:44:57.274Z,6,GR86-024-41,21.1,-0.938,0.009,2.47,5.0,,78.895,79.625,
2025-08-14T23:44:57.317Z,6,GR86-024-41,20.5,-1.04,-0.027,2.46,5.0,,75.125,75.095,
2025-08-14T23:44:57.360Z,6,GR86-024-41,20.5,-1.011,-0.08,2.47,5.0,,69.71000000000001,70.455,
2025-08-14T23:44:57.403Z,6,GR86-024-41,20.0,-0.998,0.005,5.58,5.0,5821.0,69.935,71.235,
2025-08-14T23:44:57.446Z,6,GR86-024-41,17.8,-0.995,-0.037,60.22,4.0,,62.995000000000005,63.71,178.39
2025-08-14T23:44:57.491Z,6,GR86-024-41,17.6,-1.05,-0.083,8.84,4.0,,54.675,55.945,
2025-08-14T23:44:57.534Z,6,GR86-024-41,14.6,-1.059,-0.023,4.84,4.0,,51.06,52.115,
2025-08-14T23:44:57.577Z,6,GR86-024-41,13.9,-1.194,-0.099,4.3,4.0,,47.705,48.65,
2025-08-14T23:44:57.620Z,6,GR86-024-41,14.6,-1.03,-0.085,3.98,4.0,5836.0,41.05,41.49,
2025-08-14T23:44:57.664Z,6,GR86-024-41,17.0,-0.849,-0.03,3.64,4.0,,37.74,38.47,169.71
2025-08-14T23:44:57.707Z,6,GR86-024-41,17.3,-0.794,-0.14,2.97,4.0,,35.89,36.335,
2025-08-14T23:44:57.750Z,6,GR86-024-41,17.3,-0.957,-0.076,2.71,4.0,,36.73,37.495,
2025-08-14T23:44:57.793Z,6,GR86-024-41,17.3,-0.788,-0.152,2.59,4.0,,36.09,36.61,
2025-08-14T23:44:57.836Z,6,GR86-024-41,17.900000000000002,-0.8250000000000001,-0.156,2.56,4.0,5914.0,34.455,35.050000000000004,
2025-08-14T23:44:57.879Z,6,GR86-024-41,19.700000000000003,-0.789,-0.15,2.53,4.0,,34.365,34.595,162.37
2025-08-14T23:44:57.922Z,6,GR86-024-41,21.5,-0.851,-0.226,2.5,4.0,,34.215,34.15,
2025-08-14T23:44:57.966Z,6,GR86-024-41,22.3,-0.778,-0.148,2.49,4.0,,34.715,34.93,
2025-08-14T23:44:58.009Z,6,GR86-024-41,22.6,-0.81,-0.155,2.5,4.0,,34.625,34.93,
2025-08-14T23:44:58.052Z,6,GR86-024-41,23.200000000000003,-0.883,-0.18,2.49,4.0,6005.0,34.685,34.96,
2025-08-14T23:44:58.095Z,6,GR86-024-41,23.4,-0.864,-0.178,2.49,4.0,,35.145,35.615,159.25
2025-08-14T23:44:58.138Z,6,GR86-024-41,23.5,-0.836,-0.144,2.5,4.0,,36.21,36.425,
2025-08-14T23:44:58.182Z,6,GR86-024-41,23.5,-0.8150000000000001,-0.095,2.49,4.0,,36.87,36.93,
2025-08-14T23:44:58.225Z,6,GR86-024-41,23.4,-0.837,-0.086,2.49,4.0,,37.555,37.77,
2025-08-14T23:44:58.268Z,6,GR86-024-41,20.8,-0.874,-0.061,8.14,4.0,5857.0,40.895,40.865,
2025-08-14T23:44:58.311Z,6,GR86-024-41,17.400000000000002,-0.908,-0.073,51.77,4.0,,45.125,44.775,156.53
2025-08-14T23:44:58.354Z,6,GR86-024-41,14.3,-0.999,-0.088,87.82000000000001,3.0,,48.74,48.74,
2025-08-14T23:44:58.397Z,6,GR86-024-41,12.7,-1.101,-0.082,32.22,3.0,,49.93,49.825,
2025-08-14T23:44:58.440Z,6,GR86-024-41,12.4,-0.971,-0.062,4.19,3.0,,49.23,49.96,
2025-08-14T23:44:58.483Z,6,GR86-024-41,12.4,-1.094,-0.15,3.37,3.0,5627.0,45.965,46.65,
2025-08-14T23:44:58.528Z,6,GR86-024-41,13.7,-1.014,-0.068,2.75,3.0,,36.7,37.08,149.25
2025-08-14T23:44:58.571Z,6,GR86-024-41,13.7,-0.799,-0.11,2.62,3.0,,34.81,35.31,
2025-08-14T23:44:58.614Z,6,GR86-024-41,13.4,-0.754,-0.273,2.56,3.0,,33.22,33.555,
2025-08-14T23:44:58.657Z,6,GR86-024-41,12.5,-0.863,-0.159,2.53,3.0,,33.405,33.495,
2025-08-14T23:44:58.743Z,6,GR86-024-41,12.4,-0.808,-0.317,2.52,3.0,5812.0,33.055,33.25,142.24
2025-08-14T23:44:58.786Z,6,GR86-024-41,7.800000000000001,-0.783,-0.289,2.5,3.0,,34.245,34.715,
2025-08-14T23:44:58.830Z,6,GR86-024-41,4.1000000000000005,-0.77,-0.395,2.5,3.0,,34.9,35.115,
2025-08-14T23:44:58.873Z,6,GR86-024-41,2.4000000000000004,-0.78,-0.414,2.49,3.0,,35.585,35.645,
2025-08-14T23:44:58.959Z,6,GR86-024-41,7.0,-0.662,-0.518,2.49,3.0,5975.0,24.11,24.735,135.59
2025-08-14T23:44:59.002Z,6,GR86-024-41,11.9,-0.593,-0.467,2.5,3.0,,17.61,18.115,
2025-08-14T23:44:59.046Z,6,GR86-024-41,13.8,-0.421,-0.519,2.49,3.0,,11.645,12.055,
2025-08-14T23:44:59.089Z,6,GR86-024-41,13.2,-0.408,-0.498,2.49,3.0,,10.68,11.095,
2025-08-14T23:44:59.133Z,6,GR86-024-41,7.300000000000001,-0.445,-0.517,2.49,3.0,5912.0,10.925,11.125,
2025-08-14T23:44:59.176Z,6,GR86-024-41,-0.3,-0.398,-0.644,2.5,3.0,,10.18,10.56,132.74
2025-08-14T23:44:59.219Z,6,GR86-024-41,-5.7,-0.335,-0.635,2.49,3.0,,9.065,9.4,
2025-08-14T23:44:59.263Z,6,GR86-024-41,-7.7,-0.361,-0.602,2.49,3.0,,8.24,8.425,
2025-08-14T23:44:59.351Z,6,GR86-024-41,-10.7,-0.363,-0.652,2.5,3.0,5727.0,8.21,8.36,
2025-08-14T23:44:59.394Z,6,GR86-024-41,-14.8,-0.345,-0.749,2.5,3.0,,9.995,9.995,128.71
2025-08-14T23:44:59.437Z,6,GR86-024-41,-14.9,-0.383,-0.708,2.5,3.0,,9.995,10.115,
2025-08-14T23:44:59.480Z,6,GR86-024-41,-14.9,-0.431,-0.804,2.5,3.0,,9.66,9.875,
2025-08-14T23:44:59.523Z,6,GR86-024-41,-15.7,-0.344,-0.8300000000000001,2.49,3.0,,5.83,6.24,
2025-08-14T23:44:59.566Z,6,GR86-024-41,-16.7,-0.182,-0.866,2.5,3.0,5729.0,0.0,0.0,
2025-08-14T23:44:59.609Z,6,GR86-024-41,-19.700000000000003,-0.188,-0.871,2.5,3.0,,0.0,0.0,127.02
2025-08-14T23:44:59.652Z,6,GR86-024-41,-23.700000000000003,-0.165,-0.911,2.5,3.0,,0.0,0.0,
2025-08-14T23:44:59.695Z,6,GR86-024-41,-25.6,-0.172,-0.929,2.5,3.0,,0.0,0.0,
2025-08-14T23:44:59.738Z,6,GR86-024-41,-25.700000000000003,-0.171,-0.918,2.49,3.0,,0.0,0.0,
2025-08-14T23:44:59.782Z,6,GR86-024-41,-25.200000000000003,-0.159,-0.931,2.5,3.0,5625.0,0.0,0.0,
2025-08-14T23:44:59.828Z,6,GR86-024-41,-24.200000000000003,-0.174,-0.962,2.49,3.0,,0.0,0.0,123.15
2025-08-14T23:44:59.871Z,6,GR86-024-41,-24.5,-0.172,-0.993,2.49,3.0,,0.0,0.0,
2025-08-14T23:44:59.914Z,6,GR86-024-41,-26.200000000000003,-0.174,-0.96,2.49,3.0,,0.0,0.0,
2025-08-14T23:44:59.957Z,6,GR86-024-41,-29.4,-0.17,-0.926,2.49,3.0,,0.0,0.0,
2025-08-14T23:45:00.000Z,6,GR86-024-41,-33.1,-0.163,-0.996,2.49,3.0,5536.0,0.0,0.0,
2025-08-14T23:45:00.043Z,6,GR86-024-41,-35.1,-0.177,-0.987,2.49,3.0,,0.0,0.0,121.58
2025-08-14T23:45:00.086Z,6,GR86-024-41,-35.6,-0.179,-0.975,2.49,3.0,,0.0,0.0,
2025-08-14T23:45:00.129Z,6,GR86-024-41,-35.6,-0.172,-0.933,2.49,3.0,,0.0,0.0,
2025-08-14T23:45:00.172Z,6,GR86-024-41,-36.0,-0.16,-0.963,2.49,3.0,,0.0,0.0,
2025-08-14T23:45:00.216Z,6,GR86-024-41,-36.3,-0.18,-0.948,2.5,3.0,5483.0,0.0,0.0,
2025-08-14T23:45:00.259Z,6,GR86-024-41,-36.5,-0.181,-0.99,2.49,3.0,,0.0,0.0,120.24
2025-08-14T23:45:00.302Z,6,GR86-024-41,-36.5,-0.171,-1.03,2.49,3.0,,0.0,0.0,
2025-08-14T23:45:00.346Z,6,GR86-024-41,-36.6,-0.163,-0.999,2.49,3.0,,0.0,0.0,
2025-08-14T23:45:00.389Z,6,GR86-024-41,-37.1,-0.186,-0.929,2.5,3.0,,0.0,0.0,
2025-08-14T23:45:00.432Z,6,GR86-024-41,-37.3,-0.159,-0.918,2.49,3.0,5353.0,4.96,4.96,
2025-08-14T23:45:00.475Z,6,GR86-024-41,-36.8,-0.251,-0.945,2.49,3.0,,7.555,7.43,118.84
2025-08-14T23:45:00.518Z,6,GR86-024-41,-34.6,-0.401,-0.96,2.49,3.0,,10.44,10.27,
2025-08-14T23:45:00.561Z,6,GR86-024-41,-29.1,-0.329,-0.965,2.49,3.0,,12.775,12.5,
2025-08-14T23:45:00.604Z,6,GR86-024-41,-22.0,-0.454,-0.883,2.5,3.0,,12.45,12.74,
2025-08-14T23:45:00.647Z,6,GR86-024-41,-9.0,-0.406,-0.881,2.56,3.0,5289.0,3.065,3.435,
2025-08-14T23:45:00.690Z,6,GR86-024-41,-2.4000000000000004,-0.163,-0.963,2.56,3.0,,0.0,0.0,117.29
2025-08-14T23:45:00.733Z,6,GR86-024-41,1.5,-0.176,-0.932,3.59,3.0,,0.0,0.0,
2025-08-14T23:45:00.776Z,6,GR86-024-41,2.8000000000000003,-0.15,-0.894,5.32,3.0,,0.0,0.0,
2025-08-14T23:45:00.821Z,6,GR86-024-41,2.4000000000000004,-0.116,-0.926,7.85,3.0,,0.0,0.0,
2025-08-14T23:45:00.864Z,6,GR86-024-41,-0.9,-0.167,-0.985,20.41,3.0,5102.0,0.0,0.0,
2025-08-14T23:45:00.907Z,6,GR86-024-41,-5.5,-0.178,-0.991,31.95,3.0,,0.0,0.0,115.2
2025-08-14T23:45:00.950Z,6,GR86-024-41,-7.0,-0.064,-0.849,41.06,3.0,,0.0,0.0,
2025-08-14T23:45:00.993Z,6,GR86-024-41,1.8,-0.095,-1.006,52.03,3.0,,0.0,0.0,
2025-08-14T23:45:01.036Z,6,GR86-024-41,14.9,-0.075,-0.933,57.49,3.0,,0.0,0.0,
2025-08-14T23:45:01.079Z,6,GR86-024-41,31.6,0.186,-0.965,55.95,3.0,5049.0,0.0,0.0,
2025-08-14T23:45:01.122Z,6,GR86-024-41,40.900000000000006,0.177,-0.882,55.95,3.0,,0.0,0.0,113.25
2025-08-14T23:45:01.165Z,6,GR86-024-41,42.0,0.232,-0.85,60.17,3.0,,0.0,0.0,
2025-08-14T23:45:01.208Z,6,GR86-024-41,24.4,0.225,-0.858,70.82000000000001,3.0,,0.0,0.0,
2025-08-14T23:45:01.251Z,6,GR86-024-41,-5.300000000000001,0.2,-0.922,77.26,3.0,,0.0,0.0,
2025-08-14T23:45:01.294Z,6,GR86-024-41,-29.9,0.184,-0.937,79.75,3.0,5250.0,0.0,0.0,
2025-08-14T23:45:01.337Z,6,GR86-024-41,-44.8,0.168,-1.018,79.7,3.0,,0.0,0.0,111.27
2025-08-14T23:45:01.380Z,6,GR86-024-41,-58.7,0.165,-0.959,79.62,3.0,,0.0,0.0,
2025-08-14T23:45:01.423Z,6,GR86-024-41,-67.10000000000001,0.185,-1.025,79.82000000000001,3.0,,0.0,0.0,
2025-08-14T23:45:01.466Z,6,GR86-024-41,-69.9,0.158,-0.975,92.65,3.0,,0.0,0.0,
2025-08-14T23:45:01.510Z,6,GR86-024-41,-70.9,0.143,-0.954,100.1,3.0,5407.0,0.0,0.0,
2025-08-14T23:45:01.553Z,6,GR86-024-41,-73.0,0.136,-0.949,100.06,3.0,,0.0,0.0,110.91
2025-08-14T23:45:01.597Z,6,GR86-024-41,-74.60000000000001,0.159,-0.973,100.06,3.0,,0.0,0.0,
2025-08-14T23:45:01.640Z,6,GR86-024-41,-76.4,0.17,-0.939,100.06,3.0,,0.0,0.0,
2025-08-14T23:45:01.683Z,6,GR86-024-41,-77.4,0.122,-0.947,100.07,3.0,,0.0,0.0,
2025-08-14T23:45:01.727Z,6,GR86-024-41,-77.60000000000001,0.119,-0.924,100.06,3.0,5404.0,0.0,0.0,
2025-08-14T23:45:01.771Z,6,GR86-024-41,-77.60000000000001,0.142,-0.917,100.08,3.0,,0.0,0.0,110.3
2025-08-14T23:45:01.814Z,6,GR86-024-41,-77.60000000000001,0.148,-0.922,100.06,3.0,,0.0,0.0,
2025-08-14T23:45:01.858Z,6,GR86-024-41,-77.60000000000001,0.13,-0.952,100.03,3.0,,0.0,0.0,
2025-08-14T23:45:01.901Z,6,GR86-024-41,-77.60000000000001,0.134,-0.94,100.07,3.0,,0.0,0.0,
2025-08-14T23:45:01.944Z,6,GR86-024-41,-77.60000000000001,0.123,-0.957,100.06,3.0,5379.0,0.0,0.0,
2025-08-14T23:45:01.987Z,6,GR86-024-41,-74.10000000000001,0.13,-0.951,100.05,3.0,,0.0,0.0,110.53
2025-08-14T23:45:02.030Z,6,GR86-024-41,-66.5,0.137,-0.95,100.06,3.0,,0.0,0.0,
2025-08-14T23:45:02.073Z,6,GR86-024-41,-54.3,0.139,-0.972,100.03,3.0,,0.0,0.0,
2025-08-14T23:45:02.116Z,6,GR86-024-41,-39.400000000000006,0.139,-0.948,100.04,3.0,,0.0,0.0,
2025-08-14T23:45:02.159Z,6,GR86-024-41,-24.8,0.17,-0.884,100.04,3.0,5395.0,0.0,0.0,
2025-08-14T23:45:02.202Z,6,GR86-024-41,-16.1,0.17,-0.896,100.04,3.0,,0.0,0.0,110.54
2025-08-14T23:45:02.245Z,6,GR86-024-41,-14.5,0.154,-0.882,100.03,3.0,,0.0,0.0,
2025-08-14T23:45:02.288Z,6,GR86-024-41,-19.5,0.172,-0.95,100.04,3.0,,0.0,0.0,
2025-08-14T23:45:02.331Z,6,GR86-024-41,-24.4,0.178,-0.946,100.06,3.0,,0.0,0.0,
2025-08-14T23:45:02.374Z,6,GR86-024-41,-27.5,0.186,-0.958,100.08,3.0,5430.0,0.0,0.0,
2025-08-14T23:45:02.417Z,6,GR86-024-41,-28.9,0.164,-0.937,100.05,3.0,,0.0,0.0,112.14
2025-08-14T23:45:02.460Z,6,GR86-024-41,-29.9,0.169,-0.941,100.08,3.0,,0.0,0.0,
2025-08-14T23:45:02.503Z,6,GR86-024-41,-30.200000000000003,0.171,-0.951,100.07,3.0,,0.0,0.0,
2025-08-14T23:45:02.546Z,6,GR86-024-41,-29.6,0.178,-0.983,100.03,3.0,,0.0,0.0,
2025-08-14T23:45:02.591Z,6,GR86-024-41,-27.700000000000003,0.164,-0.976,100.07,3.0,5480.0,0.0,0.0,
2025-08-14T23:45:02.634Z,6,GR86-024-41,-27.0,0.185,-0.973,100.07,3.0,,0.0,0.0,114.66
2025-08-14T23:45:02.677Z,6,GR86-024-41,-27.9,0.173,-0.944,100.06,3.0,,0.0,0.0,
2025-08-14T23:45:02.720Z,6,GR86-024-41,-30.700000000000003,0.144,-0.937,100.06,3.0,,0.0,0.0,
2025-08-14T23:45:02.763Z,6,GR86-024-41,-32.0,0.169,-0.94,100.03,3.0,,0.0,0.0,
2025-08-14T23:45:02.806Z,6,GR86-024-41,-31.700000000000003,0.185,-0.923,100.03,3.0,5510.0,0.0,0.0,
2025-08-14T23:45:02.849Z,6,GR86-024-41,-30.1,0.179,-0.954,100.04,3.0,,0.0,0.0,114.46
2025-08-14T23:45:02.892Z,6,GR86-024-41,-29.4,0.165,-0.904,100.03,3.0,,0.0,0.0,
2025-08-14T23:45:02.935Z,6,GR86-024-41,-29.5,0.184,-0.893,100.04,3.0,,0.0,0.0,
2025-08-14T23:45:02.978Z,6,GR86-024-41,-29.8,0.15,-0.935,100.03,3.0,,0.0,0.0,
2025-08-14T23:45:03.021Z,6,GR86-024-41,-30.1,0.158,-0.948,100.05,3.0,5545.0,0.0,0.0,
2025-08-14T23:45:03.064Z,6,GR86-024-41,-30.1,0.156,-0.879,100.04,3.0,,0.0,0.0,115.71
2025-08-14T23:45:03.107Z,6,GR86-024-41,-28.700000000000003,0.1,-0.5750000000000001,100.01,3.0,,0.0,0.0,
2025-08-14T23:45:03.150Z,6,GR86-024-41,-25.6,0.034,-0.524,100.01,3.0,,0.0,0.0,
2025-08-14T23:45:03.193Z,6,GR86-024-41,-17.400000000000002,0.055,-0.617,100.02,3.0,,0.0,0.0,
2025-08-14T23:45:03.236Z,6,GR86-024-41,-6.7,0.143,-0.653,100.0,3.0,5606.0,0.0,0.0,
2025-08-14T23:45:03.279Z,6,GR86-024-41,8.0,0.072,-0.803,100.01,3.0,,0.0,0.0,116.68
2025-08-14T23:45:03.322Z,6,GR86-024-41,21.4,0.072,-0.716,100.02,3.0,,0.0,0.0,
2025-08-14T23:45:03.365Z,6,GR86-024-41,32.9,0.093,-0.734,100.03,3.0,,0.0,0.0,
2025-08-14T23:45:03.408Z,6,GR86-024-41,43.1,0.239,-0.613,100.03,3.0,,0.0,0.0,
2025-08-14T23:45:03.451Z,6,GR86-024-41,47.3,0.136,-0.594,100.03,3.0,5735.0,0.0,0.0,
2025-08-14T23:45:03.537Z,6,GR86-024-41,52.6,0.084,-0.684,100.02,3.0,,0.0,0.0,116.46
2025-08-14T23:45:03.580Z,6,GR86-024-41,53.3,-0.025,-0.72,100.03,3.0,,0.0,0.0,
2025-08-14T23:45:03.623Z,6,GR86-024-41,48.7,0.06,-0.765,100.03,3.0,,0.0,0.0,
2025-08-14T23:45:03.666Z,6,GR86-024-41,8.9,0.391,-0.672,100.05,3.0,5772.0,0.0,0.0,
2025-08-14T23:45:03.709Z,6,GR86-024-41,-23.200000000000003,0.316,-0.715,100.07,3.0,,0.0,0.0,118.41
2025-08-14T23:45:03.752Z,6,GR86-024-41,-49.5,0.244,-0.879,100.06,3.0,,0.0,0.0,
2025-08-14T23:45:03.795Z,6,GR86-024-41,-60.400000000000006,0.179,-0.867,100.04,3.0,,0.0,0.0,
2025-08-14T23:45:03.838Z,6,GR86-024-41,-60.8,0.157,-0.723,100.0,3.0,,0.0,0.0,
2025-08-14T23:45:03.883Z,6,GR86-024-41,-49.900000000000006,0.144,-0.758,100.01,3.0,5807.0,0.0,0.0,
2025-08-14T23:45:03.928Z,6,GR86-024-41,-32.800000000000004,0.162,-0.658,100.02,3.0,,0.0,0.0,118.99
2025-08-14T23:45:03.971Z,6,GR86-024-41,-25.6,0.161,-0.712,100.0,3.0,,0.0,0.0,
2025-08-14T23:45:04.014Z,6,GR86-024-41,-22.1,0.176,-0.624,100.0,3.0,,0.0,0.0,
2025-08-14T23:45:04.057Z,6,GR86-024-41,-20.5,0.203,-0.659,81.5,3.0,,0.0,0.0,
2025-08-14T23:45:04.100Z,6,GR86-024-41,-16.400000000000002,0.185,-0.751,72.49,3.0,5712.0,0.0,0.0,
2025-08-14T23:45:04.143Z,6,GR86-024-41,-9.7,0.162,-0.734,75.36,3.0,,0.0,0.0,120.12
2025-08-14T23:45:04.186Z,6,GR86-024-41,-1.1,0.153,-0.893,78.46000000000001,3.0,,0.0,0.0,
2025-08-14T23:45:04.230Z,6,GR86-024-41,1.0,0.172,-0.906,97.57,3.0,,0.0,0.0,
2025-08-14T23:45:04.273Z,6,GR86-024-41,1.1,0.243,-0.8260000000000001,99.91,3.0,,0.0,0.0,
2025-08-14T23:45:04.316Z,6,GR86-024-41,1.6,0.184,-0.804,100.03,3.0,5818.0,0.0,0.0,
2025-08-14T23:45:04.359Z,6,GR86-024-41,4.5,0.171,-0.733,100.04,3.0,,0.0,0.0,120.61
2025-08-14T23:45:04.402Z,6,GR86-024-41,5.5,0.182,-0.676,100.04,3.0,,0.0,0.0,
2025-08-14T23:45:04.445Z,6,GR86-024-41,5.300000000000001,0.213,-0.659,100.05,3.0,,0.0,0.0,
2025-08-14T23:45:04.488Z,6,GR86-024-41,2.6,0.2,-0.562,100.04,3.0,,0.0,0.0,
2025-08-14T23:45:04.531Z,6,GR86-024-41,2.4000000000000004,0.186,-0.584,100.04,3.0,5884.0,0.0,0.0,
2025-08-14T23:45:04.574Z,6,GR86-024-41,3.9,0.191,-0.5720000000000001,100.03,3.0,,0.0,0.0,122.02
2025-08-14T23:45:04.617Z,6,GR86-024-41,7.300000000000001,0.237,-0.502,100.04,3.0,,0.0,0.0,
2025-08-14T23:45:04.660Z,6,GR86-024-41,9.1,0.202,-0.47,100.03,3.0,,0.0,0.0,
2025-08-14T23:45:04.703Z,6,GR86-024-41,9.8,0.168,-0.388,100.03,3.0,,0.0,0.0,
2025-08-14T23:45:04.746Z,6,GR86-024-41,12.1,0.248,-0.433,100.03,3.0,5913.0,0.0,0.0,
2025-08-14T23:45:04.789Z,6,GR86-024-41,14.4,0.281,-0.378,100.03,3.0,,0.0,0.0,123.1
2025-08-14T23:45:04.832Z,6,GR86-024-41,16.6,0.244,-0.294,100.03,3.0,,0.0,0.0,
2025-08-14T23:45:04.876Z,6,GR86-024-41,17.3,0.146,-0.23,100.03,3.0,,0.0,0.0,
2025-08-14T23:45:04.919Z,6,GR86-024-41,17.3,0.095,-0.277,100.03,3.0,,0.0,0.0,
2025-08-14T23:45:04.962Z,6,GR86-024-41,17.3,0.108,-0.219,100.03,3.0,5949.0,0.0,0.0,
2025-08-14T23:45:05.008Z,6,GR86-024-41,17.400000000000002,0.179,-0.249,100.05,3.0,,0.0,0.0,124.39
2025-08-14T23:45:05.052Z,6,GR86-024-41,17.3,0.178,-0.213,100.04,3.0,,0.0,0.0,
2025-08-14T23:45:05.095Z,6,GR86-024-41,17.3,0.196,-0.132,100.04,3.0,,0.0,0.0,
2025-08-14T23:45:05.138Z,6,GR86-024-41,18.6,0.204,-0.16,100.02,3.0,,0.0,0.0,
2025-08-14T23:45:05.183Z,6,GR86-024-41,21.4,0.163,-0.086,100.02,3.0,5977.0,0.0,0.0,
2025-08-14T23:45:05.228Z,6,GR86-024-41,23.6,0.248,-0.051,100.03,3.0,,0.0,0.0,127.05
2025-08-14T23:45:05.271Z,6,GR86-024-41,23.5,0.282,-0.109,100.01,3.0,,0.0,0.0,
2025-08-14T23:45:05.314Z,6,GR86-024-41,17.5,0.235,-0.092,100.03,3.0,,0.0,0.0,
2025-08-14T23:45:05.357Z,6,GR86-024-41,8.3,0.154,-0.102,100.02,3.0,,0.0,0.0,
2025-08-14T23:45:05.400Z,6,GR86-024-41,1.0,0.154,-0.232,100.03,3.0,6181.0,0.0,0.0,
2025-08-14T23:45:05.443Z,6,GR86-024-41,-0.9,0.219,-0.256,100.0,3.0,,0.0,0.0,128.55
2025-08-14T23:45:05.486Z,6,GR86-024-41,11.2,0.197,-0.176,100.04,3.0,,0.0,0.0,
2025-08-14T23:45:05.529Z,6,GR86-024-41,21.5,0.165,-0.1,100.04,3.0,,0.0,0.0,
2025-08-14T23:45:05.572Z,6,GR86-024-41,28.5,0.161,0.001,100.03,3.0,,0.0,0.0,
2025-08-14T23:45:05.615Z,6,GR86-024-41,30.200000000000003,0.198,0.014,100.01,3.0,6263.0,0.0,0.0,
2025-08-14T23:45:05.658Z,6,GR86-024-41,30.1,0.201,0.049,100.03,3.0,,0.0,0.0,130.11
2025-08-14T23:45:05.702Z,6,GR86-024-41,29.6,0.273,0.036,100.04,3.0,,0.0,0.0,
2025-08-14T23:45:05.745Z,6,GR86-024-41,27.3,0.212,0.068,100.02,3.0,,0.0,0.0,
2025-08-14T23:45:05.788Z,6,GR86-024-41,25.8,0.196,0.065,100.04,3.0,,0.0,0.0,
2025-08-14T23:45:05.831Z,6,GR86-024-41,25.8,0.187,0.113,100.03,3.0,6325.0,0.0,0.0,
2025-08-14T23:45:05.874Z,6,GR86-024-41,26.8,0.157,0.184,100.04,3.0,,0.0,0.0,131.2
2025-08-14T23:45:05.917Z,6,GR86-024-41,27.6,0.2,0.228,100.03,3.0,,0.0,0.0,
2025-08-14T23:45:05.960Z,6,GR86-024-41,27.5,0.193,0.261,100.03,3.0,,0.0,0.0,
2025-08-14T23:45:06.003Z,6,GR86-024-41,27.3,0.181,0.276,100.0,3.0,,0.0,0.0,
2025-08-14T23:45:06.046Z,6,GR86-024-41,24.0,0.186,0.285,100.01,3.0,6295.0,0.0,0.0,
2025-08-14T23:45:06.089Z,6,GR86-024-41,21.8,0.163,0.279,100.02,3.0,,0.0,0.0,132.81
2025-08-14T23:45:06.132Z,6,GR86-024-41,20.9,0.188,0.274,100.03,3.0,,0.0,0.0,
2025-08-14T23:45:06.176Z,6,GR86-024-41,20.700000000000003,0.203,0.256,100.02,3.0,,0.0,0.0,
2025-08-14T23:45:06.221Z,6,GR86-024-41,20.1,0.168,0.225,100.02,3.0,,0.0,0.0,
2025-08-14T23:45:06.264Z,6,GR86-024-41,17.900000000000002,0.17,0.211,100.02,3.0,6390.0,0.0,0.0,
2025-08-14T23:45:06.307Z,6,GR86-024-41,14.2,0.17,0.161,100.01,3.0,,0.0,0.0,134.29
2025-08-14T23:45:06.350Z,6,GR86-024-41,13.8,0.185,0.129,100.02,3.0,,0.0,0.0,
2025-08-14T23:45:06.393Z,6,GR86-024-41,13.9,0.213,0.096,100.01,3.0,,0.0,0.0,
2025-08-14T23:45:06.436Z,6,GR86-024-41,16.8,0.187,0.059,100.05,3.0,,0.0,0.0,
2025-08-14T23:45:06.479Z,6,GR86-024-41,19.700000000000003,0.151,0.04,100.02,3.0,6450.0,0.0,0.0,
2025-08-14T23:45:06.522Z,6,GR86-024-41,21.8,0.155,0.039,100.03,3.0,,0.0,0.0,135.79
2025-08-14T23:45:06.565Z,6,GR86-024-41,23.700000000000003,0.209,0.049,100.01,3.0,,0.0,0.0,
2025-08-14T23:45:06.608Z,6,GR86-024-41,26.3,0.203,0.054,100.01,3.0,,0.0,0.0,
2025-08-14T23:45:06.651Z,6,GR86-024-41,27.6,0.205,0.083,100.04,3.0,,0.0,0.0,
2025-08-14T23:45:06.694Z,6,GR86-024-41,28.3,0.182,0.089,100.01,3.0,6518.0,0.0,0.0,
2025-08-14T23:45:06.737Z,6,GR86-024-41,29.700000000000003,0.154,0.103,100.0,3.0,,0.0,0.0,137.27
2025-08-14T23:45:06.780Z,6,GR86-024-41,32.0,0.155,0.165,100.02,3.0,,0.0,0.0,
2025-08-14T23:45:06.823Z,6,GR86-024-41,34.800000000000004,0.201,0.237,100.03,3.0,,0.0,0.0,
2025-08-14T23:45:06.866Z,6,GR86-024-41,37.7,0.192,0.33,100.03,3.0,,0.0,0.0,
2025-08-14T23:45:06.909Z,6,GR86-024-41,38.2,0.208,0.382,100.01,3.0,6611.0,0.0,0.0,
2025-08-14T23:45:06.952Z,6,GR86-024-41,38.2,0.171,0.432,100.0,3.0,,0.0,0.0,138.77
2025-08-14T23:45:06.995Z,6,GR86-024-41,35.5,0.153,0.467,100.03,3.0,,0.0,0.0,
2025-08-14T23:45:07.039Z,6,GR86-024-41,27.700000000000003,0.151,0.464,100.02,3.0,,0.0,0.0,
2025-08-14T23:45:07.082Z,6,GR86-024-41,20.200000000000003,0.182,0.471,100.02,3.0,,0.0,0.0,
2025-08-14T23:45:07.125Z,6,GR86-024-41,17.3,0.19,0.453,100.01,3.0,6692.0,0.0,0.0,
2025-08-14T23:45:07.168Z,6,GR86-024-41,18.8,0.193,0.481,100.01,3.0,,0.0,0.0,140.32
2025-08-14T23:45:07.211Z,6,GR86-024-41,23.6,0.203,0.507,100.02,3.0,,0.0,0.0,
2025-08-14T23:45:07.254Z,6,GR86-024-41,26.700000000000003,0.181,0.51,100.0,3.0,,0.0,0.0,
2025-08-14T23:45:07.297Z,6,GR86-024-41,27.3,0.164,0.505,100.01,3.0,,0.0,0.0,
2025-08-14T23:45:07.341Z,6,GR86-024-41,26.8,0.169,0.477,100.01,3.0,6763.0,0.0,0.0,
2025-08-14T23:45:07.384Z,6,GR86-024-41,25.700000000000003,0.178,0.436,100.03,3.0,,0.0,0.0,141.84
2025-08-14T23:45:07.428Z,6,GR86-024-41,21.9,0.163,0.363,99.99,3.0,,0.0,0.0,
2025-08-14T23:45:07.471Z,6,GR86-024-41,20.700000000000003,0.199,0.333,99.99,3.0,,0.0,0.0,
2025-08-14T23:45:07.514Z,6,GR86-024-41,20.5,0.184,0.299,100.0,3.0,,0.0,0.0,
2025-08-14T23:45:07.558Z,6,GR86-024-41,20.5,0.18,0.245,100.02,3.0,6840.0,0.0,0.0,
2025-08-14T23:45:07.602Z,6,GR86-024-41,20.4,0.161,0.225,100.02,3.0,,0.0,0.0,143.49
2025-08-14T23:45:07.645Z,6,GR86-024-41,20.4,0.173,0.222,100.02,3.0,,0.0,0.0,
2025-08-14T23:45:07.688Z,6,GR86-024-41,20.4,0.158,0.157,99.99,3.0,,0.0,0.0,
2025-08-14T23:45:07.731Z,6,GR86-024-41,20.4,0.157,0.16,100.02,3.0,,0.0,0.0,
2025-08-14T23:45:07.774Z,6,GR86-024-41,20.4,0.192,0.158,100.02,3.0,6904.0,0.0,0.0,
2025-08-14T23:45:07.817Z,6,GR86-024-41,20.4,0.194,0.121,100.02,3.0,,0.0,0.0,145.18
2025-08-14T23:45:07.860Z,6,GR86-024-41,20.3,0.183,0.091,100.03,3.0,,0.0,0.0,
2025-08-14T23:45:07.903Z,6,GR86-024-41,20.3,0.134,0.079,100.03,3.0,,0.0,0.0,
2025-08-14T23:45:07.946Z,6,GR86-024-41,20.200000000000003,0.145,0.076,99.97,3.0,,0.0,0.0,
2025-08-14T23:45:07.991Z,6,GR86-024-41,20.3,-0.154,0.092,100.01,4.0,6967.0,0.0,0.0,
2025-08-14T23:45:08.034Z,6,GR86-024-41,20.200000000000003,0.206,0.072,100.0,4.0,,0.0,0.0,148.56
2025-08-14T23:45:08.077Z,6,GR86-024-41,20.200000000000003,0.344,-0.018,100.0,4.0,,0.0,0.0,
2025-08-14T23:45:08.120Z,6,GR86-024-41,20.200000000000003,0.281,0.071,100.0,4.0,,0.0,0.0,
2025-08-14T23:45:08.163Z,6,GR86-024-41,20.1,0.069,0.071,100.01,4.0,,0.0,0.0,
2025-08-14T23:45:08.206Z,6,GR86-024-41,20.1,0.128,0.022,99.99,4.0,7040.0,0.0,0.0,
2025-08-14T23:45:08.249Z,6,GR86-024-41,20.1,0.181,0.08,100.0,4.0,,0.0,0.0,150.22
2025-08-14T23:45:08.292Z,6,GR86-024-41,20.1,0.135,0.023,100.01,4.0,,0.0,0.0,
2025-08-14T23:45:08.335Z,6,GR86-024-41,20.1,0.134,0.04,100.0,4.0,,0.0,0.0,
2025-08-14T23:45:08.378Z,6,GR86-024-41,20.0,0.11,0.031,100.01,4.0,,0.0,0.0,
2025-08-14T23:45:08.421Z,6,GR86-024-41,19.8,0.143,0.029,100.02,4.0,6647.0,0.0,0.0,
2025-08-14T23:45:08.464Z,6,GR86-024-41,19.3,0.156,0.051,100.01,4.0,,0.0,0.0,151.75
2025-08-14T23:45:08.507Z,6,GR86-024-41,18.5,0.115,0.021,100.01,4.0,,0.0,0.0,
2025-08-14T23:45:08.550Z,6,GR86-024-41,17.900000000000002,0.126,0.026,100.0,4.0,,0.0,0.0,
2025-08-14T23:45:08.593Z,6,GR86-024-41,17.3,0.15,0.029,100.01,4.0,,0.0,0.0,
2025-08-14T23:45:08.636Z,6,GR86-024-41,16.1,0.154,0.02,100.02,4.0,6099.0,0.0,0.0,
2025-08-14T23:45:08.679Z,6,GR86-024-41,14.6,0.159,0.001,100.0,4.0,,0.0,0.0,153.35
2025-08-14T23:45:08.722Z,6,GR86-024-41,13.4,0.136,-0.034,100.02,4.0,,0.0,0.0,
2025-08-14T23:45:08.765Z,6,GR86-024-41,12.4,0.124,-0.073,100.02,4.0,,0.0,0.0,
2025-08-14T23:45:08.808Z,6,GR86-024-41,10.6,0.143,-0.078,100.01,4.0,,0.0,0.0,
2025-08-14T23:45:08.851Z,6,GR86-024-41,9.4,0.134,-0.109,100.0,4.0,6158.0,0.0,0.0,
2025-08-14T23:45:08.894Z,6,GR86-024-41,8.1,0.135,-0.143,100.01,4.0,,0.0,0.0,154.83
2025-08-14T23:45:08.937Z,6,GR86-024-41,6.9,0.108,-0.176,100.01,4.0,,0.0,0.0,
2025-08-14T23:45:08.980Z,6,GR86-024-41,5.6000000000000005,0.114,-0.204,100.0,4.0,,0.0,0.0,
2025-08-14T23:45:09.023Z,6,GR86-024-41,4.800000000000001,0.122,-0.235,99.99,4.0,,0.0,0.0,
2025-08-14T23:45:09.066Z,6,GR86-024-41,4.6000000000000005,0.117,-0.309,100.0,4.0,6197.0,0.0,0.0,
2025-08-14T23:45:09.109Z,6,GR86-024-41,4.6000000000000005,0.116,-0.324,100.01,4.0,,0.0,0.0,156.42000000000002
2025-08-14T23:45:09.152Z,6,GR86-024-41,4.6000000000000005,0.113,-0.344,99.99,4.0,,0.0,0.0,
2025-08-14T23:45:09.195Z,6,GR86-024-41,4.6000000000000005,0.132,-0.346,99.99,4.0,,0.0,0.0,
2025-08-14T23:45:09.238Z,6,GR86-024-41,4.6000000000000005,0.131,-0.373,100.01,4.0,,0.0,0.0,
2025-08-14T23:45:09.283Z,6,GR86-024-41,4.6000000000000005,0.145,-0.408,99.98,4.0,6268.0,0.0,0.0,
2025-08-14T23:45:09.328Z,6,GR86-024-41,4.9,0.132,-0.447,100.0,4.0,,0.0,0.0,157.64
2025-08-14T23:45:09.371Z,6,GR86-024-41,5.300000000000001,0.134,-0.459,100.0,4.0,,0.0,0.0,
2025-08-14T23:45:09.414Z,6,GR86-024-41,5.800000000000001,0.142,-0.465,100.02,4.0,,0.0,0.0,
2025-08-14T23:45:09.457Z,6,GR86-024-41,6.5,0.145,-0.48,100.0,4.0,,0.0,0.0,
2025-08-14T23:45:09.500Z,6,GR86-024-41,7.9,0.134,-0.492,99.99,4.0,6319.0,0.0,0.0,
2025-08-14T23:45:09.543Z,6,GR86-024-41,9.4,0.129,-0.462,100.01,4.0,,0.0,0.0,158.89
2025-08-14T23:45:09.586Z,6,GR86-024-41,10.2,0.134,-0.404,100.01,4.0,,0.0,0.0,
2025-08-14T23:45:09.631Z,6,GR86-024-41,10.5,0.129,-0.379,100.0,4.0,,0.0,0.0,
2025-08-14T23:45:09.674Z,6,GR86-024-41,11.6,0.131,-0.389,100.0,4.0,,0.0,0.0,
2025-08-14T23:45:09.717Z,6,GR86-024-41,13.8,0.133,-0.369,100.01,4.0,6374.0,0.0,0.0,
2025-08-14T23:45:09.760Z,6,GR86-024-41,15.2,0.122,-0.327,100.02,4.0,,0.0,0.0,160.15
2025-08-14T23:45:09.803Z,6,GR86-024-41,15.5,0.116,-0.27,81.22,4.0,,0.0,0.0,
2025-08-14T23:45:09.846Z,6,GR86-024-41,16.1,0.127,-0.193,57.11,4.0,,1.925,1.985,
2025-08-14T23:45:09.889Z,6,GR86-024-41,17.0,0.113,-0.144,44.69,4.0,,3.34,3.435,
2025-08-14T23:45:09.933Z,6,GR86-024-41,17.6,0.061,-0.112,35.26,4.0,6409.0,9.065,8.88,
2025-08-14T23:45:09.976Z,6,GR86-024-41,17.8,-0.134,-0.066,31.64,4.0,,18.68,18.68,161.47
2025-08-14T23:45:10.019Z,6,GR86-024-41,17.8,-0.352,-0.033,27.27,4.0,,32.505,32.275,
2025-08-14T23:45:10.062Z,6,GR86-024-41,17.7,-0.613,0.006,21.9,4.0,,49.365,48.865,
2025-08-14T23:45:10.108Z,6,GR86-024-41,17.400000000000002,-0.995,0.02,13.97,4.0,,75.875,74.775,
2025-08-14T23:45:10.151Z,6,GR86-024-41,17.400000000000002,-0.634,0.031,3.08,4.0,6461.0,89.09,88.46000000000001,
2025-08-14T23:45:10.194Z,6,GR86-024-41,17.2,-1.004,0.022,3.39,4.0,,97.285,95.8,162.85
2025-08-14T23:45:10.237Z,6,GR86-024-41,16.1,-1.228,0.043,28.82,4.0,,107.02,106.485,
2025-08-14T23:45:10.280Z,6,GR86-024-41,15.0,-0.996,0.021,73.64,3.0,,107.295,108.68,
2025-08-14T23:45:10.323Z,6,GR86-024-41,14.2,-1.091,0.004,53.93,3.0,,108.15,108.62,
2025-08-14T23:45:10.366Z,6,GR86-024-41,12.9,-0.908,0.029,4.12,3.0,6409.0,109.49,111.305,
2025-08-14T23:45:10.409Z,6,GR86-024-41,12.3,-1.157,-0.089,3.67,3.0,,109.37,110.955,163.42000000000002
2025-08-14T23:45:10.452Z,6,GR86-024-41,12.1,-1.12,-0.012,3.13,3.0,,106.895,107.615,
2025-08-14T23:45:10.495Z,6,GR86-024-41,12.1,-0.907,-0.013,2.87,3.0,,106.895,108.59,
2025-08-14T23:45:10.538Z,6,GR86-024-41,12.1,-0.937,-0.226,2.69,3.0,,104.15,104.835,
2025-08-14T23:45:10.582Z,6,GR86-024-41,12.5,-1.203,-0.153,2.61,3.0,5658.0,101.02,101.295,
2025-08-14T23:45:10.625Z,6,GR86-024-41,16.1,-1.029,-0.058,2.56,3.0,,103.095,104.395,155.69
2025-08-14T23:45:10.668Z,6,GR86-024-41,22.4,-0.914,-0.321,2.52,3.0,,82.175,82.68,
2025-08-14T23:45:10.711Z,6,GR86-024-41,24.200000000000003,-1.182,-0.123,2.53,3.0,,64.46000000000001,65.145,
2025-08-14T23:45:10.755Z,6,GR86-024-41,25.200000000000003,-0.914,-0.295,2.5,3.0,,52.92,53.96,
2025-08-14T23:45:10.798Z,6,GR86-024-41,27.700000000000003,-0.933,-0.362,2.51,3.0,5809.0,43.325,44.56,
2025-08-14T23:45:10.841Z,6,GR86-024-41,31.6,-0.931,-0.242,2.5,3.0,,41.83,42.805,139.92000000000002
2025-08-14T23:45:10.884Z,6,GR86-024-41,34.2,-0.842,-0.311,2.49,3.0,,42.21,42.805,
2025-08-14T23:45:10.928Z,6,GR86-024-41,34.2,-0.873,-0.217,2.5,3.0,,40.745,40.865,
2025-08-14T23:45:10.971Z,6,GR86-024-41,30.4,-0.893,-0.19,2.5,3.0,,40.09,40.62,
2025-08-14T23:45:11.014Z,6,GR86-024-41,23.9,-0.943,-0.209,2.49,3.0,6085.0,40.53,40.925,
2025-08-14T23:45:11.057Z,6,GR86-024-41,18.7,-0.902,-0.224,2.49,3.0,,40.395,40.865,133.77
2025-08-14T23:45:11.100Z,6,GR86-024-41,16.5,-0.882,-0.236,2.49,3.0,,39.34,39.935,
2025-08-14T23:45:11.143Z,6,GR86-024-41,16.1,-0.86,-0.218,2.5,3.0,,38.56,39.19,
2025-08-14T23:45:11.186Z,6,GR86-024-41,16.0,-0.996,-0.187,2.49,3.0,,37.385,38.045,
2025-08-14T23:45:11.230Z,6,GR86-024-41,16.0,-0.874,-0.128,2.49,3.0,5938.0,37.95,38.255,
2025-08-14T23:45:11.273Z,6,GR86-024-41,16.5,-0.899,-0.122,18.12,3.0,,37.525,38.045,131.01
2025-08-14T23:45:11.316Z,6,GR86-024-41,16.8,-0.86,-0.085,63.16,3.0,,36.7,37.495,
2025-08-14T23:45:11.359Z,6,GR86-024-41,16.7,-0.843,-0.107,99.01,3.0,,34.625,35.235,
2025-08-14T23:45:11.402Z,6,GR86-024-41,16.0,-0.811,-0.099,80.85000000000001,2.0,,30.705,31.39,
2025-08-14T23:45:11.446Z,6,GR86-024-41,15.9,-0.87,-0.104,4.89,2.0,5612.0,26.325,27.055,
2025-08-14T23:45:11.489Z,6,GR86-024-41,16.1,-0.72,-0.009,3.06,2.0,,25.775,26.26,125.75
2025-08-14T23:45:11.533Z,6,GR86-024-41,16.6,-0.811,-0.271,2.69,2.0,,22.28,22.495,
2025-08-14T23:45:11.576Z,6,GR86-024-41,16.7,-0.746,-0.017,2.56,2.0,,21.0,21.53,
2025-08-14T23:45:11.621Z,6,GR86-024-41,16.7,-0.5640000000000001,-0.149,2.5,2.0,,20.355,20.51,
2025-08-14T23:45:11.664Z,6,GR86-024-41,15.6,-0.602,-0.273,2.5,2.0,5734.0,18.615,18.92,
2025-08-14T23:45:11.707Z,6,GR86-024-41,12.6,-0.592,-0.177,2.5,2.0,,16.68,17.150000000000002,119.49
2025-08-14T23:45:11.750Z,6,GR86-024-41,11.9,-0.543,-0.276,2.5,2.0,,15.595,16.085,
2025-08-14T23:45:11.793Z,6,GR86-024-41,11.8,-0.48,-0.205,2.47,2.0,,14.91,15.03,
2025-08-14T23:45:11.836Z,6,GR86-024-41,11.7,-0.526,-0.208,2.47,2.0,,14.725,15.125,
2025-08-14T23:45:11.879Z,6,GR86-024-41,11.4,-0.446,-0.254,2.49,2.0,6330.0,14.91,15.185,
2025-08-14T23:45:11.922Z,6,GR86-024-41,10.2,-0.498,-0.203,2.49,2.0,,14.51,15.0,115.13
2025-08-14T23:45:11.965Z,6,GR86-024-41,8.3,-0.491,-0.215,2.5,2.0,,14.605,15.0,
2025-08-14T23:45:12.008Z,6,GR86-024-41,5.9,-0.453,-0.248,2.5,2.0,,14.27,14.635,
2025-08-14T23:45:12.051Z,6,GR86-024-41,3.1,-0.465,-0.279,2.48,2.0,,13.52,13.95,
2025-08-14T23:45:12.094Z,6,GR86-024-41,1.3,-0.48,-0.291,2.5,2.0,6276.0,12.985,13.275,
2025-08-14T23:45:12.137Z,6,GR86-024-41,-1.2000000000000002,-0.418,-0.346,2.5,2.0,,12.53,12.895,112.02
2025-08-14T23:45:12.180Z,6,GR86-024-41,-2.7,-0.497,-0.349,2.49,2.0,,12.42,12.895,
2025-08-14T23:45:12.223Z,6,GR86-024-41,-3.1,-0.417,-0.41,2.49,2.0,,13.015,12.985,
2025-08-14T23:45:12.266Z,6,GR86-024-41,-4.3,-0.434,-0.459,2.49,2.0,,13.765,13.855,
2025-08-14T23:45:12.309Z,6,GR86-024-41,-6.300000000000001,-0.503,-0.442,2.47,2.0,6103.0,14.205,14.635,
2025-08-14T23:45:12.352Z,6,GR86-024-41,-8.4,-0.45,-0.49,2.5,2.0,,14.97,15.215,109.36
2025-08-14T23:45:12.395Z,6,GR86-024-41,-9.2,-0.477,-0.512,2.49,2.0,,15.625,15.9,
2025-08-14T23:45:12.438Z,6,GR86-024-41,-9.5,-0.503,-0.533,2.48,2.0,,16.62,16.8,
2025-08-14T23:45:12.482Z,6,GR86-024-41,-9.6,-0.523,-0.611,2.48,2.0,,18.145,18.36,
2025-08-14T23:45:12.525Z,6,GR86-024-41,-9.6,-0.5740000000000001,-0.5750000000000001,2.49,2.0,5971.0,19.425,19.61,
2025-08-14T23:45:12.568Z,6,GR86-024-41,-9.4,-0.58,-0.62,2.49,2.0,,20.63,20.695,106.69
2025-08-14T23:45:12.611Z,6,GR86-024-41,-9.2,-0.544,-0.633,2.48,2.0,,20.42,20.905,
2025-08-14T23:45:12.654Z,6,GR86-024-41,-9.1,-0.61,-0.627,2.5,2.0,,19.64,20.115,
2025-08-14T23:45:12.697Z,6,GR86-024-41,-9.7,-0.544,-0.715,2.49,2.0,,16.025,16.465,
2025-08-14T23:45:12.740Z,6,GR86-024-41,-10.2,-0.429,-0.749,2.49,2.0,5784.0,8.120000000000001,8.76,
2025-08-14T23:45:12.783Z,6,GR86-024-41,-11.1,-0.245,-0.8260000000000001,2.49,2.0,,4.44,4.805,104.83
2025-08-14T23:45:12.828Z,6,GR86-024-41,-17.7,-0.268,-0.794,2.49,2.0,,5.08,5.16,
2025-08-14T23:45:12.871Z,6,GR86-024-41,-20.0,-0.328,-0.839,2.49,2.0,,5.465,5.615,
2025-08-14T23:45:12.914Z,6,GR86-024-41,-21.6,-0.247,-0.867,2.49,2.0,,3.97,4.275,
2025-08-14T23:45:12.957Z,6,GR86-024-41,-23.700000000000003,-0.226,-0.888,2.48,2.0,5559.0,0.0,0.0,
2025-08-14T23:45:13.001Z,6,GR86-024-41,-27.1,-0.159,-0.891,2.49,2.0,,0.0,0.0,102.22
2025-08-14T23:45:13.044Z,6,GR86-024-41,-30.4,-0.193,-0.857,2.5,2.0,,0.0,0.0,
2025-08-14T23:45:13.087Z,6,GR86-024-41,-37.9,-0.184,-0.857,2.49,2.0,,0.0,0.0,
2025-08-14T23:45:13.131Z,6,GR86-024-41,-42.8,-0.168,-0.899,2.49,2.0,,0.0,0.0,
2025-08-14T23:45:13.174Z,6,GR86-024-41,-45.2,-0.185,-0.93,2.49,2.0,5421.0,0.0,0.0,
2025-08-14T23:45:13.217Z,6,GR86-024-41,-48.5,-0.178,-0.95,2.48,2.0,,0.0,0.0,99.22
2025-08-14T23:45:13.260Z,6,GR86-024-41,-53.6,-0.201,-0.934,2.49,2.0,,0.0,0.0,
2025-08-14T23:45:13.303Z,6,GR86-024-41,-57.0,-0.186,-0.933,2.49,2.0,,0.0,0.0,
2025-08-14T23:45:13.346Z,6,GR86-024-41,-61.400000000000006,-0.186,-0.969,2.53,2.0,,0.0,0.0,
2025-08-14T23:45:13.391Z,6,GR86-024-41,-61.6,-0.186,-0.931,3.01,2.0,5363.0,0.0,0.0,
2025-08-14T23:45:13.434Z,6,GR86-024-41,-61.0,-0.181,-0.981,4.39,2.0,,0.0,0.0,96.6
2025-08-14T23:45:13.477Z,6,GR86-024-41,-60.6,-0.188,-0.94,4.65,2.0,,0.0,0.0,
2025-08-14T23:45:13.520Z,6,GR86-024-41,-60.0,-0.184,-1.016,4.7700000000000005,2.0,,0.0,0.0,
2025-08-14T23:45:13.563Z,6,GR86-024-41,-59.3,-0.192,-1.001,6.08,2.0,,0.0,0.0,
2025-08-14T23:45:13.606Z,6,GR86-024-41,-58.0,-0.179,-0.926,18.53,2.0,5317.0,0.0,0.0,
2025-08-14T23:45:13.649Z,6,GR86-024-41,-55.900000000000006,-0.179,-0.981,20.77,2.0,,0.0,0.0,95.53
2025-08-14T23:45:13.692Z,6,GR86-024-41,-54.8,-0.13,-0.975,21.06,2.0,,0.0,0.0,
2025-08-14T23:45:13.736Z,6,GR86-024-41,-54.1,-0.145,-1.05,21.45,2.0,,0.0,0.0,
2025-08-14T23:45:13.779Z,6,GR86-024-41,-53.7,-0.103,-1.014,22.27,2.0,,0.0,0.0,
2025-08-14T23:45:13.822Z,6,GR86-024-41,-53.8,-0.114,-1.036,24.26,2.0,5256.0,0.0,0.0,
2025-08-14T23:45:13.865Z,6,GR86-024-41,-54.7,0.035,-0.93,25.64,2.0,,0.0,0.0,94.27
2025-08-14T23:45:13.908Z,6,GR86-024-41,-54.8,0.095,-1.044,28.15,2.0,,0.0,0.0,
2025-08-14T23:45:13.951Z,6,GR86-024-41,-54.8,0.08,-0.887,31.35,2.0,,0.0,0.0,
2025-08-14T23:45:13.994Z,6,GR86-024-41,-54.8,0.088,-0.972,32.96,2.0,,0.0,0.0,
2025-08-14T23:45:14.037Z,6,GR86-024-41,-54.7,0.112,-0.893,33.74,2.0,5418.0,0.0,0.0,
2025-08-14T23:45:14.080Z,6,GR86-024-41,-54.400000000000006,0.122,-0.907,35.410000000000004,2.0,,0.0,0.0,92.93
2025-08-14T23:45:14.123Z,6,GR86-024-41,-53.7,0.131,-0.922,36.4,2.0,,0.0,0.0,
2025-08-14T23:45:14.166Z,6,GR86-024-41,-52.3,0.154,-0.902,36.84,2.0,,0.0,0.0,
2025-08-14T23:45:14.209Z,6,GR86-024-41,-51.5,0.164,-0.889,36.56,2.0,,0.0,0.0,
2025-08-14T23:45:14.252Z,6,GR86-024-41,-51.2,0.177,-0.896,35.89,2.0,5415.0,0.0,0.0,
2025-08-14T23:45:14.295Z,6,GR86-024-41,-51.400000000000006,0.166,-0.863,35.7,2.0,,0.0,0.0,91.92
2025-08-14T23:45:14.338Z,6,GR86-024-41,-51.8,0.165,-0.887,35.660000000000004,2.0,,0.0,0.0,
2025-08-14T23:45:14.382Z,6,GR86-024-41,-52.1,0.172,-0.895,35.7,2.0,,0.0,0.0,
2025-08-14T23:45:14.425Z,6,GR86-024-41,-54.0,0.172,-0.905,35.74,2.0,,0.0,0.0,
2025-08-14T23:45:14.468Z,6,GR86-024-41,-60.3,0.155,-0.874,35.660000000000004,2.0,5505.0,0.0,0.0,
2025-08-14T23:45:14.511Z,6,GR86-024-41,-64.5,0.157,-0.844,32.5,2.0,,0.0,0.0,91.37
2025-08-14T23:45:14.554Z,6,GR86-024-41,-68.10000000000001,0.147,-0.876,25.45,2.0,,0.0,0.0,
2025-08-14T23:45:14.597Z,6,GR86-024-41,-70.10000000000001,0.158,-0.838,21.79,2.0,,0.0,0.0,
2025-08-14T23:45:14.640Z,6,GR86-024-41,-70.7,0.133,-0.866,14.96,2.0,,0.0,0.0,
2025-08-14T23:45:14.683Z,6,GR86-024-41,-70.8,0.086,-0.855,6.05,2.0,5513.0,0.0,0.0,
2025-08-14T23:45:14.728Z,6,GR86-024-41,-70.9,0.022,-0.895,4.61,2.0,,0.0,0.0,91.58
2025-08-14T23:45:14.771Z,6,GR86-024-41,-71.0,-0.065,-0.876,4.37,2.0,,0.0,0.0,
2025-08-14T23:45:14.814Z,6,GR86-024-41,-71.10000000000001,-0.107,-0.91,4.24,2.0,,0.0,0.0,
2025-08-14T23:45:14.857Z,6,GR86-024-41,-71.10000000000001,-0.113,-0.938,5.53,2.0,,0.0,0.0,
2025-08-14T23:45:14.900Z,6,GR86-024-41,-71.10000000000001,-0.26,-0.942,19.99,2.0,5506.0,0.0,0.0,
2025-08-14T23:45:14.943Z,6,GR86-024-41,-71.10000000000001,-0.278,-0.924,20.24,2.0,,0.0,0.0,91.77
2025-08-14T23:45:14.986Z,6,GR86-024-41,-71.2,-0.131,-0.944,23.29,2.0,,0.0,0.0,
2025-08-14T23:45:15.030Z,6,GR86-024-41,-71.2,-0.119,-0.915,26.52,2.0,,0.0,0.0,
2025-08-14T23:45:15.073Z,6,GR86-024-41,-71.2,-0.069,-0.869,28.2,2.0,,0.0,0.0,
2025-08-14T23:45:15.116Z,6,GR86-024-41,-71.3,0.125,-0.879,28.33,2.0,5121.0,0.0,0.0,
2025-08-14T23:45:15.159Z,6,GR86-024-41,-71.5,0.159,-0.864,30.08,2.0,,0.0,0.0,91.91
2025-08-14T23:45:15.202Z,6,GR86-024-41,-71.9,0.139,-0.865,33.96,2.0,,0.0,0.0,
2025-08-14T23:45:15.245Z,6,GR86-024-41,-72.10000000000001,0.106,-0.857,36.26,2.0,,0.0,0.0,
2025-08-14T23:45:15.288Z,6,GR86-024-41,-72.2,0.102,-0.92,38.81,2.0,,0.0,0.0,
2025-08-14T23:45:15.331Z,6,GR86-024-41,-72.2,0.117,-0.913,44.28,2.0,5296.0,0.0,0.0,
2025-08-14T23:45:15.374Z,6,GR86-024-41,-72.3,0.159,-0.96,51.620000000000005,2.0,,0.0,0.0,92.23
2025-08-14T23:45:15.417Z,6,GR86-024-41,-72.3,0.178,-0.877,57.46,2.0,,0.0,0.0,
2025-08-14T23:45:15.460Z,6,GR86-024-41,-72.3,0.192,-0.888,66.35,2.0,,0.0,0.0,
2025-08-14T23:45:15.503Z,6,GR86-024-41,-71.9,0.193,-0.879,74.78,2.0,,0.0,0.0,
2025-08-14T23:45:15.546Z,6,GR86-024-41,-62.2,0.179,-0.923,86.8,2.0,5375.0,0.0,0.0,
2025-08-14T23:45:15.589Z,6,GR86-024-41,-51.8,0.193,-0.952,95.63,2.0,,0.0,0.0,91.7
2025-08-14T23:45:15.633Z,6,GR86-024-41,-39.7,0.212,-0.95,99.72,2.0,,0.0,0.0,
2025-08-14T23:45:15.676Z,6,GR86-024-41,-28.4,0.238,-0.902,100.05,2.0,,0.0,0.0,
2025-08-14T23:45:15.719Z,6,GR86-024-41,-18.2,0.258,-0.925,100.05,2.0,,0.0,0.0,
2025-08-14T23:45:15.762Z,6,GR86-024-41,-9.5,0.226,-0.906,100.04,2.0,5500.0,0.0,0.0,
2025-08-14T23:45:15.805Z,6,GR86-024-41,-6.0,0.265,-0.907,100.03,2.0,,0.0,0.0,91.96
2025-08-14T23:45:15.848Z,6,GR86-024-41,-10.9,0.252,-0.851,100.05,2.0,,0.0,0.0,
2025-08-14T23:45:15.891Z,6,GR86-024-41,-21.700000000000003,0.257,-0.848,100.06,2.0,,0.0,0.0,
2025-08-14T23:45:15.934Z,6,GR86-024-41,-31.200000000000003,0.254,-0.856,100.06,2.0,,0.0,0.0,
2025-08-14T23:45:15.977Z,6,GR86-024-41,-35.9,0.231,-0.887,100.03,2.0,5603.0,0.0,0.0,
2025-08-14T23:45:16.020Z,6,GR86-024-41,-35.9,0.215,-0.895,100.02,2.0,,0.0,0.0,92.66
2025-08-14T23:45:16.063Z,6,GR86-024-41,-34.6,0.222,-0.937,100.04,2.0,,0.0,0.0,
2025-08-14T23:45:16.108Z,6,GR86-024-41,-32.2,0.26,-0.867,100.04,2.0,,0.0,0.0,
2025-08-14T23:45:16.151Z,6,GR86-024-41,-26.1,0.25,-0.836,100.03,2.0,,0.0,0.0,
2025-08-14T23:45:16.194Z,6,GR86-024-41,-14.5,0.247,-0.846,100.04,2.0,5665.0,0.0,0.0,
2025-08-14T23:45:16.237Z,6,GR86-024-41,-1.1,0.229,-0.837,100.03,2.0,,0.0,0.0,95.48
2025-08-14T23:45:16.280Z,6,GR86-024-41,8.200000000000001,0.237,-0.802,100.02,2.0,,0.0,0.0,
2025-08-14T23:45:16.323Z,6,GR86-024-41,9.7,0.267,-0.773,100.05,2.0,,0.0,0.0,
2025-08-14T23:45:16.366Z,6,GR86-024-41,-4.9,0.271,-0.751,100.07,2.0,,0.0,0.0,
2025-08-14T23:45:16.409Z,6,GR86-024-41,-20.5,0.257,-0.801,100.07,2.0,5718.0,0.0,0.0,
2025-08-14T23:45:16.452Z,6,GR86-024-41,-34.0,0.23,-0.8240000000000001,100.06,2.0,,0.0,0.0,96.73
2025-08-14T23:45:16.495Z,6,GR86-024-41,-43.6,0.202,-0.855,100.06,2.0,,0.0,0.0,
2025-08-14T23:45:16.538Z,6,GR86-024-41,-48.6,0.198,-0.885,100.03,2.0,,0.0,0.0,
2025-08-14T23:45:16.582Z,6,GR86-024-41,-50.1,0.221,-0.899,100.03,2.0,,0.0,0.0,
2025-08-14T23:45:16.625Z,6,GR86-024-41,-49.8,0.228,-0.907,100.03,2.0,5788.0,0.0,0.0,
2025-08-14T23:45:16.668Z,6,GR86-024-41,-42.0,0.204,-0.888,100.04,2.0,,0.0,0.0,98.06
2025-08-14T23:45:16.711Z,6,GR86-024-41,-30.8,0.22,-0.907,100.04,2.0,,0.0,0.0,
2025-08-14T23:45:16.755Z,6,GR86-024-41,-17.1,0.225,-0.865,100.03,2.0,,0.0,0.0,
2025-08-14T23:45:16.798Z,6,GR86-024-41,-5.4,0.252,-0.8280000000000001,100.03,2.0,,0.0,0.0,
2025-08-14T23:45:16.841Z,6,GR86-024-41,0.7000000000000001,0.242,-0.781,100.03,2.0,5935.0,0.0,0.0,
2025-08-14T23:45:16.884Z,6,GR86-024-41,0.7000000000000001,0.24,-0.768,100.05,2.0,,0.0,0.0,98.6
2025-08-14T23:45:16.928Z,6,GR86-024-41,-14.9,0.261,-0.802,100.06,2.0,,0.0,0.0,
2025-08-14T23:45:16.971Z,6,GR86-024-41,-28.1,0.232,-0.841,100.06,2.0,,0.0,0.0,
2025-08-14T23:45:17.014Z,6,GR86-024-41,-37.8,0.235,-0.842,100.03,2.0,,0.0,0.0,
2025-08-14T23:45:17.057Z,6,GR86-024-41,-41.6,0.207,-0.855,100.04,2.0,6020.0,0.0,0.0,
2025-08-14T23:45:17.100Z,6,GR86-024-41,-41.8,0.2,-0.846,100.04,2.0,,0.0,0.0,101.15
2025-08-14T23:45:17.143Z,6,GR86-024-41,-39.900000000000006,0.242,-0.778,100.02,2.0,,0.0,0.0,
2025-08-14T23:45:17.186Z,6,GR86-024-41,-30.0,0.18,-0.793,100.03,2.0,,0.0,0.0,
2025-08-14T23:45:17.230Z,6,GR86-024-41,-19.9,0.258,-0.646,100.04,2.0,,0.0,0.0,
2025-08-14T23:45:17.273Z,6,GR86-024-41,-10.0,0.319,-0.669,100.03,2.0,6079.0,0.0,0.0,
2025-08-14T23:45:17.316Z,6,GR86-024-41,-2.5,0.289,-0.604,100.03,2.0,,0.0,0.0,101.79
2025-08-14T23:45:17.359Z,6,GR86-024-41,2.9000000000000004,0.261,-0.501,100.03,2.0,,0.0,0.0,
2025-08-14T23:45:17.402Z,6,GR86-024-41,8.1,0.195,-0.391,100.03,2.0,,0.0,0.0,
2025-08-14T23:45:17.445Z,6,GR86-024-41,12.9,0.199,-0.417,100.04,2.0,,0.0,0.0,
2025-08-14T23:45:17.488Z,6,GR86-024-41,17.5,0.303,-0.531,100.03,2.0,6201.0,0.0,0.0,
2025-08-14T23:45:17.531Z,6,GR86-024-41,20.3,0.332,-0.496,100.04,2.0,,0.0,0.0,103.23
2025-08-14T23:45:17.574Z,6,GR86-024-41,22.200000000000003,0.342,-0.43,100.03,2.0,,0.0,0.0,
2025-08-14T23:45:17.617Z,6,GR86-024-41,23.8,0.379,-0.449,100.05,2.0,,0.0,0.0,
2025-08-14T23:45:17.660Z,6,GR86-024-41,24.0,0.291,-0.348,100.03,2.0,,0.0,0.0,
2025-08-14T23:45:17.703Z,6,GR86-024-41,19.8,0.303,-0.406,100.03,2.0,6341.0,0.0,0.0,
2025-08-14T23:45:17.746Z,6,GR86-024-41,0.4,0.297,-0.419,100.04,2.0,,0.0,0.0,104.03
2025-08-14T23:45:17.789Z,6,GR86-024-41,-8.3,0.291,-0.368,100.03,2.0,,0.0,0.0,
2025-08-14T23:45:17.832Z,6,GR86-024-41,-9.8,0.275,-0.408,100.03,2.0,,0.0,0.0,
2025-08-14T23:45:17.876Z,6,GR86-024-41,-5.6000000000000005,0.265,-0.329,100.03,2.0,,0.0,0.0,
2025-08-14T23:45:17.921Z,6,GR86-024-41,2.4000000000000004,0.258,-0.286,100.03,2.0,6383.0,0.0,0.0,
2025-08-14T23:45:17.964Z,6,GR86-024-41,8.5,0.263,-0.225,100.03,2.0,,0.0,0.0,105.7
2025-08-14T23:45:18.007Z,6,GR86-024-41,11.6,0.214,-0.168,100.01,2.0,,0.0,0.0,
2025-08-14T23:45:18.050Z,6,GR86-024-41,11.6,0.3,-0.164,100.03,2.0,,0.0,0.0,
2025-08-14T23:45:18.093Z,6,GR86-024-41,10.4,0.287,-0.221,100.05,2.0,,0.0,0.0,
2025-08-14T23:45:18.136Z,6,GR86-024-41,7.5,0.297,-0.233,100.03,2.0,6403.0,0.0,0.0,
2025-08-14T23:45:18.179Z,6,GR86-024-41,6.1000000000000005,0.295,-0.227,100.03,2.0,,0.0,0.0,107.56
2025-08-14T23:45:18.222Z,6,GR86-024-41,6.1000000000000005,0.281,-0.281,100.01,2.0,,0.0,0.0,
2025-08-14T23:45:18.266Z,6,GR86-024-41,7.300000000000001,0.18,-0.166,100.03,2.0,,0.0,0.0,
2025-08-14T23:45:18.310Z,6,GR86-024-41,8.700000000000001,0.225,-0.148,100.03,2.0,,0.0,0.0,
2025-08-14T23:45:18.353Z,6,GR86-024-41,9.4,0.222,-0.201,100.02,2.0,6591.0,0.0,0.0,
2025-08-14T23:45:18.396Z,6,GR86-024-41,9.9,0.177,-0.119,100.01,2.0,,0.0,0.0,108.94
2025-08-14T23:45:18.439Z,6,GR86-024-41,10.9,0.183,-0.134,100.03,2.0,,0.0,0.0,
2025-08-14T23:45:18.483Z,6,GR86-024-41,12.9,0.227,-0.179,100.04,2.0,,0.0,0.0,
2025-08-14T23:45:18.527Z,6,GR86-024-41,13.8,0.284,-0.115,100.03,2.0,,0.0,0.0,
2025-08-14T23:45:18.571Z,6,GR86-024-41,13.9,0.28,-0.14,100.01,2.0,6595.0,0.0,0.0,
2025-08-14T23:45:18.614Z,6,GR86-024-41,14.1,0.24,-0.093,100.01,2.0,,0.0,0.0,110.9
2025-08-14T23:45:18.657Z,6,GR86-024-41,14.6,0.203,-0.072,100.02,2.0,,0.0,0.0,
2025-08-14T23:45:18.702Z,6,GR86-024-41,15.2,0.222,-0.066,100.02,2.0,,0.0,0.0,
2025-08-14T23:45:18.745Z,6,GR86-024-41,16.1,0.237,-0.051,100.03,2.0,,0.0,0.0,
2025-08-14T23:45:18.788Z,6,GR86-024-41,16.8,0.247,-0.048,100.03,2.0,6671.0,0.0,0.0,
2025-08-14T23:45:18.831Z,6,GR86-024-41,16.8,0.239,-0.033,100.02,2.0,,0.0,0.0,114.5
2025-08-14T23:45:18.874Z,6,GR86-024-41,16.8,0.246,-0.046,100.02,2.0,,0.0,0.0,
2025-08-14T23:45:18.917Z,6,GR86-024-41,16.900000000000002,0.236,-0.028,100.02,2.0,,0.0,0.0,
2025-08-14T23:45:18.960Z,6,GR86-024-41,17.2,0.235,-0.014,99.99,2.0,,0.0,0.0,
2025-08-14T23:45:19.003Z,6,GR86-024-41,17.7,0.229,-0.009,100.01,2.0,6703.0,0.0,0.0,
2025-08-14T23:45:19.046Z,6,GR86-024-41,19.0,0.227,0.019,100.03,2.0,,0.0,0.0,116.24
2025-08-14T23:45:19.091Z,6,GR86-024-41,19.9,0.231,0.034,100.02,2.0,,0.0,0.0,
2025-08-14T23:45:19.134Z,6,GR86-024-41,20.5,0.217,0.055,100.0,2.0,,0.0,0.0,
2025-08-14T23:45:19.177Z,6,GR86-024-41,20.9,0.236,0.069,100.01,2.0,,0.0,0.0,
2025-08-14T23:45:19.220Z,6,GR86-024-41,20.9,0.242,0.077,100.01,2.0,6846.0,0.0,0.0,
2025-08-14T23:45:19.264Z,6,GR86-024-41,20.9,0.228,0.095,100.0,2.0,,0.0,0.0,118.1
2025-08-14T23:45:19.307Z,6,GR86-024-41,20.8,0.229,0.099,99.99,2.0,,0.0,0.0,
2025-08-14T23:45:19.350Z,6,GR86-024-41,20.8,0.235,0.114,100.0,2.0,,0.0,0.0,
2025-08-14T23:45:19.393Z,6,GR86-024-41,20.8,0.244,0.114,100.0,2.0,,0.0,0.0,
2025-08-14T23:45:19.436Z,6,GR86-024-41,20.8,0.234,0.122,100.02,2.0,7022.0,0.0,0.0,
2025-08-14T23:45:19.479Z,6,GR86-024-41,20.8,0.227,0.13,100.03,2.0,,0.0,0.0,119.66
2025-08-14T23:45:19.522Z,6,GR86-024-41,20.8,0.225,0.133,100.03,2.0,,0.0,0.0,
2025-08-14T23:45:19.565Z,6,GR86-024-41,20.8,0.218,0.12,100.01,2.0,,0.0,0.0,
2025-08-14T23:45:19.608Z,6,GR86-024-41,20.700000000000003,0.228,0.11,99.99,2.0,,0.0,0.0,
2025-08-14T23:45:19.651Z,6,GR86-024-41,20.700000000000003,-0.023,0.123,99.99,3.0,7113.0,0.0,0.0,
2025-08-14T23:45:19.694Z,6,GR86-024-41,20.200000000000003,-0.01,0.149,100.01,3.0,,0.0,0.0,121.31
2025-08-14T23:45:19.737Z,6,GR86-024-41,20.0,0.5680000000000001,0.05,99.99,3.0,,0.0,0.0,
2025-08-14T23:45:19.780Z,6,GR86-024-41,19.9,0.352,0.058,99.99,3.0,,0.0,0.0,
2025-08-14T23:45:19.823Z,6,GR86-024-41,19.5,0.329,0.122,100.01,3.0,,0.0,0.0,
2025-08-14T23:45:19.866Z,6,GR86-024-41,18.5,0.095,0.023,99.99,3.0,7105.0,0.0,0.0,
2025-08-14T23:45:19.909Z,6,GR86-024-41,18.1,0.136,0.09,100.0,3.0,,0.0,0.0,122.94
2025-08-14T23:45:19.952Z,6,GR86-024-41,17.8,0.179,0.043,100.01,3.0,,0.0,0.0,
2025-08-14T23:45:19.995Z,6,GR86-024-41,17.8,0.201,0.029,100.0,3.0,,0.0,0.0,
2025-08-14T23:45:20.038Z,6,GR86-024-41,17.8,0.214,0.048,99.99,3.0,,0.0,0.0,
2025-08-14T23:45:20.083Z,6,GR86-024-41,17.7,0.174,-0.01,100.0,3.0,5851.0,0.0,0.0,
2025-08-14T23:45:20.172Z,6,GR86-024-41,17.7,0.175,0.001,99.99,3.0,,0.0,0.0,124.24
2025-08-14T23:45:20.215Z,6,GR86-024-41,17.7,0.19,0.003,100.01,3.0,,0.0,0.0,
2025-08-14T23:45:20.258Z,6,GR86-024-41,17.7,0.203,-0.007,100.0,3.0,,0.0,0.0,
2025-08-14T23:45:20.301Z,6,GR86-024-41,17.7,0.186,-0.012,100.01,3.0,5972.0,0.0,0.0,
2025-08-14T23:45:20.344Z,6,GR86-024-41,17.8,0.185,-0.005,100.01,3.0,,0.0,0.0,125.93
2025-08-14T23:45:20.387Z,6,GR86-024-41,17.8,0.182,-0.002,100.0,3.0,,0.0,0.0,
2025-08-14T23:45:20.430Z,6,GR86-024-41,17.8,0.19,0.001,100.0,3.0,,0.0,0.0,
2025-08-14T23:45:20.473Z,6,GR86-024-41,17.8,0.182,-0.026,100.01,3.0,,0.0,0.0,
2025-08-14T23:45:20.516Z,6,GR86-024-41,17.8,0.159,0.0,100.0,3.0,6035.0,0.0,0.0,
2025-08-14T23:45:20.559Z,6,GR86-024-41,17.8,0.194,0.001,100.0,3.0,,0.0,0.0,127.16
2025-08-14T23:45:20.602Z,6,GR86-024-41,17.8,0.215,0.001,100.01,3.0,,0.0,0.0,
2025-08-14T23:45:20.645Z,6,GR86-024-41,17.8,0.177,-0.014,99.99,3.0,,0.0,0.0,
2025-08-14T23:45:20.688Z,6,GR86-024-41,17.8,0.176,-0.013,100.0,3.0,,0.0,0.0,
2025-08-14T23:45:20.731Z,6,GR86-024-41,17.8,0.166,-0.008,100.01,3.0,6081.0,0.0,0.0,
2025-08-14T23:45:20.774Z,6,GR86-024-41,17.8,0.192,0.008,100.02,3.0,,0.0,0.0,128.55
2025-08-14T23:45:20.817Z,6,GR86-024-41,17.8,0.201,-0.008,100.0,3.0,,0.0,0.0,
2025-08-14T23:45:20.860Z,6,GR86-024-41,17.8,0.172,-0.007,100.01,3.0,,0.0,0.0,
2025-08-14T23:45:20.903Z,6,GR86-024-41,17.8,0.182,0.007,100.01,3.0,,0.0,0.0,
2025-08-14T23:45:20.946Z,6,GR86-024-41,17.8,0.176,0.008,100.0,3.0,6145.0,0.0,0.0,
2025-08-14T23:45:20.989Z,6,GR86-024-41,17.8,0.185,0.009,100.01,3.0,,0.0,0.0,129.88
2025-08-14T23:45:21.032Z,6,GR86-024-41,17.8,0.203,0.016,100.0,3.0,,0.0,0.0,
2025-08-14T23:45:21.076Z,6,GR86-024-41,17.8,0.183,-0.005,100.01,3.0,,0.0,0.0,
2025-08-14T23:45:21.119Z,6,GR86-024-41,17.8,0.178,0.023,100.0,3.0,,0.0,0.0,
2025-08-14T23:45:21.163Z,6,GR86-024-41,17.8,0.181,0.032,100.0,3.0,6215.0,0.0,0.0,
2025-08-14T23:45:21.208Z,6,GR86-024-41,17.8,0.19,0.043,100.02,3.0,,0.0,0.0,131.19
2025-08-14T23:45:21.251Z,6,GR86-024-41,17.8,0.19,0.035,100.01,3.0,,0.0,0.0,
2025-08-14T23:45:21.294Z,6,GR86-024-41,17.8,0.177,0.016,100.0,3.0,,0.0,0.0,
2025-08-14T23:45:21.337Z,6,GR86-024-41,17.8,0.169,0.019,100.01,3.0,,0.0,0.0,
2025-08-14T23:45:21.380Z,6,GR86-024-41,17.8,0.181,0.034,100.0,3.0,6272.0,0.0,0.0,
2025-08-14T23:45:21.423Z,6,GR86-024-41,17.7,0.175,0.02,100.01,3.0,,0.0,0.0,132.46
2025-08-14T23:45:21.466Z,6,GR86-024-41,17.7,0.19,0.015,100.0,3.0,,0.0,0.0,
2025-08-14T23:45:21.510Z,6,GR86-024-41,17.1,0.163,-0.002,100.04,3.0,,0.0,0.0,
2025-08-14T23:45:21.554Z,6,GR86-024-41,15.5,0.169,-0.011,100.0,3.0,,0.0,0.0,
2025-08-14T23:45:21.597Z,6,GR86-024-41,14.5,0.188,-0.014,100.01,3.0,6331.0,0.0,0.0,
2025-08-14T23:45:21.640Z,6,GR86-024-41,14.2,0.185,-0.032,100.0,3.0,,0.0,0.0,134.86
2025-08-14T23:45:21.684Z,6,GR86-024-41,13.8,0.161,-0.069,100.0,3.0,,0.0,0.0,
2025-08-14T23:45:21.728Z,6,GR86-024-41,13.6,0.165,-0.081,99.99,3.0,,0.0,0.0,
2025-08-14T23:45:21.771Z,6,GR86-024-41,13.5,0.161,-0.094,100.02,3.0,,0.0,0.0,
2025-08-14T23:45:21.814Z,6,GR86-024-41,13.5,0.173,-0.09,100.01,3.0,6390.0,0.0,0.0,
2025-08-14T23:45:21.857Z,6,GR86-024-41,13.6,0.191,-0.106,99.99,3.0,,0.0,0.0,136.05
2025-08-14T23:45:21.900Z,6,GR86-024-41,13.6,0.166,-0.122,100.01,3.0,,0.0,0.0,
2025-08-14T23:45:21.943Z,6,GR86-024-41,13.7,0.152,-0.125,100.02,3.0,,0.0,0.0,
2025-08-14T23:45:21.986Z,6,GR86-024-41,13.7,0.16,-0.127,100.0,3.0,,0.0,0.0,
2025-08-14T23:45:22.030Z,6,GR86-024-41,13.7,0.157,-0.132,100.0,3.0,6491.0,0.0,0.0,
2025-08-14T23:45:22.073Z,6,GR86-024-41,13.7,0.189,-0.107,100.0,3.0,,0.0,0.0,137.24
2025-08-14T23:45:22.116Z,6,GR86-024-41,13.8,0.192,-0.125,100.0,3.0,,0.0,0.0,
2025-08-14T23:45:22.159Z,6,GR86-024-41,13.8,0.159,-0.123,100.01,3.0,,0.0,0.0,
2025-08-14T23:45:22.202Z,6,GR86-024-41,13.8,0.145,-0.107,99.99,3.0,,0.0,0.0,
2025-08-14T23:45:22.245Z,6,GR86-024-41,13.9,0.184,-0.097,100.01,3.0,6545.0,0.0,0.0,
2025-08-14T23:45:22.288Z,6,GR86-024-41,14.1,0.156,-0.107,100.0,3.0,,0.0,0.0,138.36
2025-08-14T23:45:22.331Z,6,GR86-024-41,14.4,0.188,-0.098,100.01,3.0,,0.0,0.0,
2025-08-14T23:45:22.374Z,6,GR86-024-41,14.5,0.188,-0.097,99.99,3.0,,0.0,0.0,
2025-08-14T23:45:22.417Z,6,GR86-024-41,14.5,0.158,-0.089,100.0,3.0,,0.0,0.0,
2025-08-14T23:45:22.460Z,6,GR86-024-41,14.5,0.154,-0.083,100.0,3.0,6605.0,0.0,0.0,
2025-08-14T23:45:22.503Z,6,GR86-024-41,14.5,0.164,-0.069,100.0,3.0,,0.0,0.0,139.45000000000002
2025-08-14T23:45:22.546Z,6,GR86-024-41,14.5,0.151,-0.077,100.0,3.0,,0.0,0.0,
2025-08-14T23:45:22.589Z,6,GR86-024-41,14.5,0.181,-0.055,100.0,3.0,,0.0,0.0,
2025-08-14T23:45:22.633Z,6,GR86-024-41,14.5,0.179,-0.037,100.0,3.0,,0.0,0.0,
2025-08-14T23:45:22.676Z,6,GR86-024-41,14.5,0.166,-0.058,99.98,3.0,6653.0,0.0,0.0,
2025-08-14T23:45:22.721Z,6,GR86-024-41,14.5,0.144,-0.043,100.0,3.0,,0.0,0.0,140.63
2025-08-14T23:45:22.764Z,6,GR86-024-41,14.5,0.164,-0.048,100.0,3.0,,0.0,0.0,
2025-08-14T23:45:22.807Z,6,GR86-024-41,14.5,0.144,-0.054,100.01,3.0,,0.0,0.0,
2025-08-14T23:45:22.850Z,6,GR86-024-41,14.5,0.172,-0.04,100.03,3.0,,0.0,0.0,
2025-08-14T23:45:22.893Z,6,GR86-024-41,14.5,0.19,-0.043,100.0,3.0,6697.0,0.0,0.0,
2025-08-14T23:45:22.936Z,6,GR86-024-41,14.5,0.173,-0.042,99.99,3.0,,0.0,0.0,141.77
2025-08-14T23:45:22.979Z,6,GR86-024-41,14.5,0.157,-0.054,100.01,3.0,,0.0,0.0,
2025-08-14T23:45:23.022Z,6,GR86-024-41,14.5,0.152,-0.05,100.0,3.0,,0.0,0.0,
2025-08-14T23:45:23.066Z,6,GR86-024-41,14.5,0.158,-0.068,100.01,3.0,,0.0,0.0,
2025-08-14T23:45:23.110Z,6,GR86-024-41,14.5,0.163,-0.064,100.01,3.0,6763.0,0.0,0.0,
2025-08-14T23:45:23.153Z,6,GR86-024-41,14.5,0.183,-0.045,100.0,3.0,,0.0,0.0,142.86
2025-08-14T23:45:23.197Z,6,GR86-024-41,14.5,0.183,-0.044,100.0,3.0,,0.0,0.0,
2025-08-14T23:45:23.240Z,6,GR86-024-41,14.5,0.171,-0.044,99.98,3.0,,0.0,0.0,
2025-08-14T23:45:23.283Z,6,GR86-024-41,14.5,0.16,-0.061,100.0,3.0,,0.0,0.0,
2025-08-14T23:45:23.328Z,6,GR86-024-41,14.5,0.168,-0.047,100.0,3.0,6807.0,0.0,0.0,
2025-08-14T23:45:23.371Z,6,GR86-024-41,14.5,0.153,-0.067,100.0,3.0,,0.0,0.0,143.98
2025-08-14T23:45:23.414Z,6,GR86-024-41,14.5,0.169,-0.058,100.02,3.0,,0.0,0.0,
2025-08-14T23:45:23.458Z,6,GR86-024-41,14.5,0.194,-0.041,100.02,3.0,,0.0,0.0,
2025-08-14T23:45:23.502Z,6,GR86-024-41,14.5,0.189,-0.047,99.98,3.0,,0.0,0.0,
2025-08-14T23:45:23.545Z,6,GR86-024-41,14.5,0.169,-0.051,99.99,3.0,6857.0,0.0,0.0,
2025-08-14T23:45:23.588Z,6,GR86-024-41,14.5,0.182,-0.048,100.01,3.0,,0.0,0.0,145.15
2025-08-14T23:45:23.631Z,6,GR86-024-41,14.6,0.162,-0.051,100.01,3.0,,0.0,0.0,
2025-08-14T23:45:23.674Z,6,GR86-024-41,14.6,0.154,-0.048,100.01,3.0,,0.0,0.0,
2025-08-14T23:45:23.717Z,6,GR86-024-41,14.7,0.153,-0.05,100.01,3.0,,0.0,0.0,
2025-08-14T23:45:23.760Z,6,GR86-024-41,14.8,0.176,-0.031,100.01,3.0,6920.0,0.0,0.0,
2025-08-14T23:45:23.803Z,6,GR86-024-41,14.9,0.19,-0.016,100.0,3.0,,0.0,0.0,146.23
2025-08-14T23:45:23.846Z,6,GR86-024-41,15.1,0.175,-0.026,99.97,3.0,,0.0,0.0,
2025-08-14T23:45:23.891Z,6,GR86-024-41,15.3,0.182,-0.018,99.98,3.0,,0.0,0.0,
2025-08-14T23:45:23.934Z,6,GR86-024-41,15.6,0.173,-0.009,99.99,3.0,,0.0,0.0,
2025-08-14T23:45:23.977Z,6,GR86-024-41,15.7,0.157,-0.011,99.99,3.0,6964.0,0.0,0.0,
2025-08-14T23:45:24.020Z,6,GR86-024-41,15.7,0.143,-0.011,100.01,3.0,,0.0,0.0,147.43
2025-08-14T23:45:24.064Z,6,GR86-024-41,15.9,0.153,-0.004,100.0,3.0,,0.0,0.0,
2025-08-14T23:45:24.107Z,6,GR86-024-41,16.0,0.154,0.002,99.99,3.0,,0.0,0.0,
2025-08-14T23:45:24.150Z,6,GR86-024-41,16.0,0.152,0.013,99.99,3.0,,0.0,0.0,
2025-08-14T23:45:24.193Z,6,GR86-024-41,16.1,0.154,0.035,99.99,3.0,7019.0,0.0,0.0,
2025-08-14T23:45:24.236Z,6,GR86-024-41,16.1,0.171,0.032,100.0,3.0,,0.0,0.0,149.63
2025-08-14T23:45:24.279Z,6,GR86-024-41,16.1,0.175,0.017,100.03,3.0,,0.0,0.0,
2025-08-14T23:45:24.322Z,6,GR86-024-41,16.1,0.158,0.004,100.0,3.0,,0.0,0.0,
2025-08-14T23:45:24.365Z,6,GR86-024-41,16.1,0.141,-0.001,100.0,3.0,,0.0,0.0,
2025-08-14T23:45:24.451Z,6,GR86-024-41,16.1,0.167,0.018,100.01,3.0,7073.0,0.0,0.0,150.71
2025-08-14T23:45:24.494Z,6,GR86-024-41,16.1,0.138,-0.003,99.97,3.0,,0.0,0.0,
2025-08-14T23:45:24.537Z,6,GR86-024-41,16.2,0.141,0.012,100.0,3.0,,0.0,0.0,
2025-08-14T23:45:24.580Z,6,GR86-024-41,16.2,0.169,0.034,100.03,3.0,,0.0,0.0,
2025-08-14T23:45:24.623Z,6,GR86-024-41,16.3,0.17,0.041,100.02,3.0,7130.0,0.0,0.0,
2025-08-14T23:45:24.666Z,6,GR86-024-41,16.400000000000002,0.14,0.023,100.03,3.0,,0.0,0.0,151.72
2025-08-14T23:45:24.710Z,6,GR86-024-41,16.400000000000002,0.168,0.025,100.0,3.0,,0.0,0.0,
2025-08-14T23:45:24.754Z,6,GR86-024-41,16.400000000000002,0.166,0.03,100.01,3.0,,0.0,0.0,
2025-08-14T23:45:24.798Z,6,GR86-024-41,16.400000000000002,0.167,0.02,99.96,3.0,,0.0,0.0,
2025-08-14T23:45:24.841Z,6,GR86-024-41,16.400000000000002,-0.085,0.012,99.98,4.0,7229.0,0.0,0.0,
2025-08-14T23:45:24.884Z,6,GR86-024-41,16.3,0.049,0.05,99.99,4.0,,0.0,0.0,152.89
2025-08-14T23:45:24.928Z,6,GR86-024-41,16.3,0.277,-0.053,100.0,4.0,,0.0,0.0,
2025-08-14T23:45:24.971Z,6,GR86-024-41,16.3,0.232,0.062,100.02,4.0,,0.0,0.0,
2025-08-14T23:45:25.014Z,6,GR86-024-41,16.3,0.057,-0.009,100.02,4.0,,0.0,0.0,
2025-08-14T23:45:25.057Z,6,GR86-024-41,16.3,0.079,-0.054,100.01,4.0,7008.0,0.0,0.0,
2025-08-14T23:45:25.100Z,6,GR86-024-41,16.2,0.132,0.057,100.0,4.0,,0.0,0.0,153.95000000000002
2025-08-14T23:45:25.143Z,6,GR86-024-41,16.0,0.154,-0.015,100.01,4.0,,0.0,0.0,
2025-08-14T23:45:25.186Z,6,GR86-024-41,16.0,0.137,0.007,99.97,4.0,,0.0,0.0,
2025-08-14T23:45:25.230Z,6,GR86-024-41,15.9,0.123,-0.029,99.98,4.0,,0.0,0.0,
2025-08-14T23:45:25.273Z,6,GR86-024-41,15.6,0.136,-0.029,100.0,4.0,6093.0,0.0,0.0,
2025-08-14T23:45:25.316Z,6,GR86-024-41,15.6,0.138,-0.021,100.0,4.0,,0.0,0.0,154.98
2025-08-14T23:45:25.359Z,6,GR86-024-41,15.5,0.138,-0.034,100.0,4.0,,0.0,0.0,
2025-08-14T23:45:25.402Z,6,GR86-024-41,15.5,0.134,-0.051,99.99,4.0,,0.0,0.0,
2025-08-14T23:45:25.446Z,6,GR86-024-41,15.2,0.128,-0.041,100.0,4.0,,0.0,0.0,
2025-08-14T23:45:25.489Z,6,GR86-024-41,15.0,0.118,-0.064,99.99,4.0,6203.0,0.0,0.0,
2025-08-14T23:45:25.532Z,6,GR86-024-41,14.7,0.121,-0.066,100.02,4.0,,0.0,0.0,156.14
2025-08-14T23:45:25.575Z,6,GR86-024-41,14.0,0.121,-0.076,100.0,4.0,,0.0,0.0,
2025-08-14T23:45:25.618Z,6,GR86-024-41,12.7,0.12,-0.098,100.01,4.0,,0.0,0.0,
2025-08-14T23:45:25.661Z,6,GR86-024-41,10.9,0.119,-0.101,100.0,4.0,,0.0,0.0,
2025-08-14T23:45:25.704Z,6,GR86-024-41,10.0,0.132,-0.122,100.0,4.0,6231.0,0.0,0.0,
2025-08-14T23:45:25.747Z,6,GR86-024-41,9.8,0.113,-0.173,99.98,4.0,,0.0,0.0,157.18
2025-08-14T23:45:25.790Z,6,GR86-024-41,9.8,0.126,-0.195,99.99,4.0,,0.0,0.0,
2025-08-14T23:45:25.833Z,6,GR86-024-41,9.8,0.13,-0.215,100.01,4.0,,0.0,0.0,
2025-08-14T23:45:25.876Z,6,GR86-024-41,9.9,0.141,-0.218,99.99,4.0,,0.0,0.0,
2025-08-14T23:45:25.919Z,6,GR86-024-41,10.0,0.139,-0.235,99.99,4.0,6268.0,0.0,0.0,
2025-08-14T23:45:25.962Z,6,GR86-024-41,10.0,0.127,-0.238,100.0,4.0,,0.0,0.0,158.08
2025-08-14T23:45:26.005Z,6,GR86-024-41,10.1,0.106,-0.262,100.0,4.0,,0.0,0.0,
2025-08-14T23:45:26.048Z,6,GR86-024-41,10.2,0.137,-0.264,99.99,4.0,,0.0,0.0,
2025-08-14T23:45:26.091Z,6,GR86-024-41,10.3,0.134,-0.271,99.98,4.0,,0.0,0.0,
2025-08-14T23:45:26.134Z,6,GR86-024-41,10.4,0.114,-0.279,99.97,4.0,6312.0,0.0,0.0,
2025-08-14T23:45:26.177Z,6,GR86-024-41,10.6,0.108,-0.27,99.99,4.0,,0.0,0.0,159.03
2025-08-14T23:45:26.220Z,6,GR86-024-41,10.7,0.105,-0.261,99.99,4.0,,0.0,0.0,
2025-08-14T23:45:26.263Z,6,GR86-024-41,10.9,0.114,-0.26,100.02,4.0,,0.0,0.0,
2025-08-14T23:45:26.308Z,6,GR86-024-41,11.1,0.118,-0.248,100.01,4.0,,0.0,0.0,
2025-08-14T23:45:26.351Z,6,GR86-024-41,11.3,0.105,-0.235,99.97,4.0,6358.0,0.0,0.0,
2025-08-14T23:45:26.394Z,6,GR86-024-41,11.5,0.096,-0.222,100.0,4.0,,0.0,0.0,160.0
2025-08-14T23:45:26.437Z,6,GR86-024-41,11.6,0.114,-0.207,99.99,4.0,,0.0,0.0,
2025-08-14T23:45:26.480Z,6,GR86-024-41,11.7,0.122,-0.183,100.01,4.0,,0.0,0.0,
2025-08-14T23:45:26.523Z,6,GR86-024-41,11.8,0.122,-0.155,100.0,4.0,,0.0,0.0,
2025-08-14T23:45:26.566Z,6,GR86-024-41,11.9,0.095,-0.147,100.01,4.0,6387.0,0.0,0.0,
2025-08-14T23:45:26.609Z,6,GR86-024-41,12.1,0.107,-0.141,100.01,4.0,,0.0,0.0,160.95000000000002
2025-08-14T23:45:26.652Z,6,GR86-024-41,12.3,0.107,-0.117,100.0,4.0,,0.0,0.0,
2025-08-14T23:45:26.695Z,6,GR86-024-41,12.4,0.127,-0.103,99.99,4.0,,0.0,0.0,
2025-08-14T23:45:26.738Z,6,GR86-024-41,12.5,0.123,-0.088,100.0,4.0,,0.0,0.0,
2025-08-14T23:45:26.782Z,6,GR86-024-41,12.5,0.138,-0.078,100.0,4.0,6420.0,0.0,0.0,
2025-08-14T23:45:26.825Z,6,GR86-024-41,12.5,0.144,-0.085,100.0,4.0,,0.0,0.0,161.98
2025-08-14T23:45:26.868Z,6,GR86-024-41,12.5,0.118,-0.088,99.98,4.0,,0.0,0.0,
2025-08-14T23:45:26.911Z,6,GR86-024-41,12.5,0.122,-0.076,99.98,4.0,,0.0,0.0,
2025-08-14T23:45:26.955Z,6,GR86-024-41,12.5,0.137,-0.085,100.01,4.0,,0.0,0.0,
2025-08-14T23:45:26.998Z,6,GR86-024-41,12.5,0.142,-0.092,99.99,4.0,6459.0,0.0,0.0,
2025-08-14T23:45:27.041Z,6,GR86-024-41,12.5,0.13,-0.115,100.02,4.0,,0.0,0.0,163.76
2025-08-14T23:45:27.084Z,6,GR86-024-41,12.5,0.126,-0.133,100.02,4.0,,0.0,0.0,
2025-08-14T23:45:27.128Z,6,GR86-024-41,12.5,0.121,-0.114,100.0,4.0,,0.0,0.0,
2025-08-14T23:45:27.171Z,6,GR86-024-41,12.5,0.125,-0.112,100.01,4.0,,0.0,0.0,
2025-08-14T23:45:27.214Z,6,GR86-024-41,12.5,0.136,-0.121,99.99,4.0,6499.0,0.0,0.0,
2025-08-14T23:45:27.257Z,6,GR86-024-41,12.5,0.118,-0.127,100.0,4.0,,0.0,0.0,164.62
2025-08-14T23:45:27.300Z,6,GR86-024-41,12.5,0.131,-0.141,99.97,4.0,,0.0,0.0,
2025-08-14T23:45:27.343Z,6,GR86-024-41,12.5,0.113,-0.142,100.01,4.0,,0.0,0.0,
2025-08-14T23:45:27.386Z,6,GR86-024-41,12.5,0.113,-0.129,100.0,4.0,,0.0,0.0,
2025-08-14T23:45:27.429Z,6,GR86-024-41,12.5,0.133,-0.121,100.01,4.0,6563.0,0.0,0.0,
2025-08-14T23:45:27.472Z,6,GR86-024-41,12.5,0.128,-0.123,100.01,4.0,,0.0,0.0,165.69
2025-08-14T23:45:27.515Z,6,GR86-024-41,12.5,0.125,-0.124,99.99,4.0,,0.0,0.0,
2025-08-14T23:45:27.558Z,6,GR86-024-41,12.5,0.121,-0.119,99.98,4.0,,0.0,0.0,
2025-08-14T23:45:27.601Z,6,GR86-024-41,12.5,0.126,-0.14,100.0,4.0,,0.0,0.0,
2025-08-14T23:45:27.644Z,6,GR86-024-41,12.5,0.096,-0.141,100.0,4.0,6608.0,0.0,0.0,
2025-08-14T23:45:27.687Z,6,GR86-024-41,12.5,0.125,-0.136,100.0,4.0,,0.0,0.0,166.62
2025-08-14T23:45:27.731Z,6,GR86-024-41,12.5,0.13,-0.132,99.98,4.0,,0.0,0.0,
2025-08-14T23:45:27.817Z,6,GR86-024-41,12.5,0.11,-0.126,100.0,4.0,,0.0,0.0,
2025-08-14T23:45:27.860Z,6,GR86-024-41,12.5,0.12,-0.156,100.0,4.0,6632.0,0.0,0.0,
2025-08-14T23:45:27.946Z,6,GR86-024-41,12.5,0.101,-0.155,100.0,4.0,,0.0,0.0,167.5
2025-08-14T23:45:27.989Z,6,GR86-024-41,12.5,0.114,-0.156,100.0,4.0,,0.0,0.0,
2025-08-14T23:45:28.033Z,6,GR86-024-41,12.5,0.12,-0.146,99.97,4.0,,0.0,0.0,
2025-08-14T23:45:28.076Z,6,GR86-024-41,12.5,0.107,-0.159,99.98,4.0,6675.0,0.0,0.0,
2025-08-14T23:45:28.121Z,6,GR86-024-41,12.5,0.105,-0.136,100.0,4.0,,0.0,0.0,168.3
2025-08-14T23:45:28.164Z,6,GR86-024-41,12.5,0.097,-0.134,100.0,4.0,,0.0,0.0,
2025-08-14T23:45:28.207Z,6,GR86-024-41,12.5,0.097,-0.118,100.0,4.0,,0.0,0.0,
2025-08-14T23:45:28.250Z,6,GR86-024-41,12.5,0.114,-0.111,99.98,4.0,,0.0,0.0,
2025-08-14T23:45:28.293Z,6,GR86-024-41,12.5,0.103,-0.111,99.99,4.0,6707.0,0.0,0.0,
2025-08-14T23:45:28.336Z,6,GR86-024-41,12.5,0.105,-0.122,100.0,4.0,,0.0,0.0,169.23
2025-08-14T23:45:28.379Z,6,GR86-024-41,12.6,0.104,-0.13,100.0,4.0,,0.0,0.0,
2025-08-14T23:45:28.422Z,6,GR86-024-41,12.5,0.102,-0.136,100.0,4.0,,0.0,0.0,
2025-08-14T23:45:28.465Z,6,GR86-024-41,12.5,0.091,-0.133,99.99,4.0,,0.0,0.0,
2025-08-14T23:45:28.508Z,6,GR86-024-41,12.5,0.114,-0.094,99.99,4.0,6752.0,0.0,0.0,
2025-08-14T23:45:28.594Z,6,GR86-024-41,12.5,0.12,-0.102,99.98,4.0,,0.0,0.0,170.17000000000002
2025-08-14T23:45:28.637Z,6,GR86-024-41,12.6,0.11,-0.109,100.0,4.0,,0.0,0.0,
2025-08-14T23:45:28.680Z,6,GR86-024-41,12.6,0.108,-0.099,100.0,4.0,,0.0,0.0,
2025-08-14T23:45:28.723Z,6,GR86-024-41,12.6,0.094,-0.101,100.0,4.0,6767.0,0.0,0.0,
2025-08-14T23:45:28.766Z,6,GR86-024-41,12.6,0.124,-0.109,100.01,4.0,,0.0,0.0,171.03
2025-08-14T23:45:28.809Z,6,GR86-024-41,12.6,0.121,-0.099,100.0,4.0,,0.0,0.0,
2025-08-14T23:45:28.852Z,6,GR86-024-41,12.6,0.123,-0.1,100.01,4.0,,0.0,0.0,
2025-08-14T23:45:28.895Z,6,GR86-024-41,12.6,0.126,-0.106,99.99,4.0,,0.0,0.0,
2025-08-14T23:45:28.938Z,6,GR86-024-41,12.6,0.124,-0.102,100.0,4.0,6806.0,0.0,0.0,
2025-08-14T23:45:28.982Z,6,GR86-024-41,12.6,0.128,-0.119,99.98,4.0,,0.0,0.0,171.88
2025-08-14T23:45:29.025Z,6,GR86-024-41,12.6,0.119,-0.113,100.0,4.0,,0.0,0.0,
2025-08-14T23:45:29.068Z,6,GR86-024-41,12.7,0.089,-0.1,99.97,4.0,,0.0,0.0,
2025-08-14T23:45:29.111Z,6,GR86-024-41,12.8,0.079,-0.089,99.97,4.0,,0.0,0.0,
2025-08-14T23:45:29.154Z,6,GR86-024-41,12.9,0.109,-0.074,99.97,4.0,6852.0,0.0,0.0,
2025-08-14T23:45:29.197Z,6,GR86-024-41,13.1,0.097,-0.075,100.0,4.0,,0.0,0.0,172.6
2025-08-14T23:45:29.240Z,6,GR86-024-41,13.3,0.104,-0.087,100.0,4.0,,0.0,0.0,
2025-08-14T23:45:29.283Z,6,GR86-024-41,13.5,0.113,-0.076,100.0,4.0,,0.0,0.0,
2025-08-14T23:45:29.328Z,6,GR86-024-41,13.6,0.09,-0.088,99.98,4.0,,0.0,0.0,
2025-08-14T23:45:29.371Z,6,GR86-024-41,13.6,0.074,-0.066,99.98,4.0,6862.0,0.0,0.0,
2025-08-14T23:45:29.414Z,6,GR86-024-41,13.7,0.077,-0.05,99.98,4.0,,0.0,0.0,173.6
2025-08-14T23:45:29.458Z,6,GR86-024-41,13.8,0.085,-0.039,100.0,4.0,,0.0,0.0,
2025-08-14T23:45:29.501Z,6,GR86-024-41,13.9,0.083,-0.048,100.0,4.0,,0.0,0.0,
2025-08-14T23:45:29.544Z,6,GR86-024-41,14.0,0.079,-0.047,100.0,4.0,,0.0,0.0,
2025-08-14T23:45:29.587Z,6,GR86-024-41,14.0,0.102,-0.039,99.97,4.0,6893.0,0.0,0.0,
2025-08-14T23:45:29.631Z,6,GR86-024-41,14.0,0.11,-0.038,99.97,4.0,,0.0,0.0,175.16
2025-08-14T23:45:29.674Z,6,GR86-024-41,14.0,0.094,-0.035,99.97,4.0,,0.0,0.0,
2025-08-14T23:45:29.717Z,6,GR86-024-41,14.0,0.089,-0.05,99.98,4.0,,0.0,0.0,
2025-08-14T23:45:29.760Z,6,GR86-024-41,14.0,0.107,-0.048,99.97,4.0,,0.0,0.0,
2025-08-14T23:45:29.803Z,6,GR86-024-41,14.0,0.095,-0.056,99.97,4.0,6930.0,0.0,0.0,
2025-08-14T23:45:29.846Z,6,GR86-024-41,14.0,0.08,-0.034,100.01,4.0,,0.0,0.0,175.89
2025-08-14T23:45:29.891Z,6,GR86-024-41,14.0,0.095,-0.03,100.0,4.0,,0.0,0.0,
2025-08-14T23:45:29.934Z,6,GR86-024-41,14.0,0.105,-0.038,100.0,4.0,,0.0,0.0,
2025-08-14T23:45:29.977Z,6,GR86-024-41,14.0,0.109,-0.058,99.99,4.0,,0.0,0.0,
2025-08-14T23:45:30.021Z,6,GR86-024-41,14.0,0.095,-0.034,100.0,4.0,6969.0,0.0,0.0,
2025-08-14T23:45:30.064Z,6,GR86-024-41,14.0,0.096,-0.023,100.02,4.0,,0.0,0.0,176.61
2025-08-14T23:45:30.107Z,6,GR86-024-41,14.0,0.084,-0.026,99.97,4.0,,0.0,0.0,
2025-08-14T23:45:30.150Z,6,GR86-024-41,14.1,0.074,-0.016,99.98,4.0,,0.0,0.0,
2025-08-14T23:45:30.193Z,6,GR86-024-41,14.2,0.099,-0.019,99.97,4.0,,0.0,0.0,
2025-08-14T23:45:30.279Z,6,GR86-024-41,14.2,0.088,-0.014,100.0,4.0,7011.0,0.0,0.0,177.55
2025-08-14T23:45:30.322Z,6,GR86-024-41,14.2,0.094,-0.014,100.0,4.0,,0.0,0.0,
2025-08-14T23:45:30.366Z,6,GR86-024-41,14.2,0.109,-0.001,100.0,4.0,,0.0,0.0,
2025-08-14T23:45:30.409Z,6,GR86-024-41,14.2,0.093,-0.007,99.96,4.0,,0.0,0.0,
2025-08-14T23:45:30.452Z,6,GR86-024-41,14.2,0.094,-0.016,99.99,4.0,7068.0,0.0,0.0,
2025-08-14T23:45:30.495Z,6,GR86-024-41,14.2,0.085,-0.016,99.98,4.0,,0.0,0.0,178.17000000000002
2025-08-14T23:45:30.538Z,6,GR86-024-41,14.2,0.095,-0.013,100.0,4.0,,0.0,0.0,
2025-08-14T23:45:30.582Z,6,GR86-024-41,14.2,0.09,-0.034,100.0,4.0,,0.0,0.0,
2025-08-14T23:45:30.625Z,6,GR86-024-41,14.2,0.077,-0.029,100.01,4.0,,0.0,0.0,
2025-08-14T23:45:30.668Z,6,GR86-024-41,14.2,0.094,-0.042,99.99,4.0,7076.0,0.0,0.0,
2025-08-14T23:45:30.711Z,6,GR86-024-41,14.2,0.113,-0.046,99.98,4.0,,0.0,0.0,178.94
2025-08-14T23:45:30.754Z,6,GR86-024-41,14.2,0.006,-0.068,99.98,5.0,,0.0,0.0,
2025-08-14T23:45:30.797Z,6,GR86-024-41,14.2,-0.144,-0.014,99.99,5.0,,0.0,0.0,
2025-08-14T23:45:30.840Z,6,GR86-024-41,14.2,0.34,-0.069,100.0,5.0,,0.0,0.0,
2025-08-14T23:45:30.883Z,6,GR86-024-41,14.4,0.172,-0.103,100.01,5.0,7126.0,0.0,0.0,
2025-08-14T23:45:30.928Z,6,GR86-024-41,14.4,-0.014,-0.035,100.0,5.0,,0.0,0.0,179.63
2025-08-14T23:45:30.971Z,6,GR86-024-41,14.4,0.031,-0.119,100.0,5.0,,0.0,0.0,
2025-08-14T23:45:31.014Z,6,GR86-024-41,14.4,0.095,-0.017,100.0,5.0,,0.0,0.0,
2025-08-14T23:45:31.057Z,6,GR86-024-41,14.4,0.077,-0.065,100.02,5.0,,0.0,0.0,
2025-08-14T23:45:31.100Z,6,GR86-024-41,14.4,0.053,-0.075,100.0,5.0,6594.0,0.0,0.0,
2025-08-14T23:45:31.143Z,6,GR86-024-41,14.4,0.066,-0.037,100.0,5.0,,0.0,0.0,180.47
2025-08-14T23:45:31.186Z,6,GR86-024-41,14.4,0.088,-0.047,100.01,5.0,,0.0,0.0,
2025-08-14T23:45:31.230Z,6,GR86-024-41,14.4,0.088,-0.034,99.99,5.0,,0.0,0.0,
2025-08-14T23:45:31.273Z,6,GR86-024-41,14.4,0.101,-0.016,100.0,5.0,,0.0,0.0,
2025-08-14T23:45:31.316Z,6,GR86-024-41,14.5,0.089,-0.026,99.99,5.0,6217.0,0.0,0.0,
2025-08-14T23:45:31.359Z,6,GR86-024-41,14.7,0.105,-0.022,99.99,5.0,,0.0,0.0,181.22
2025-08-14T23:45:31.402Z,6,GR86-024-41,14.8,0.1,-0.011,100.0,5.0,,0.0,0.0,
2025-08-14T23:45:31.445Z,6,GR86-024-41,14.8,0.093,-0.015,100.01,5.0,,0.0,0.0,
2025-08-14T23:45:31.488Z,6,GR86-024-41,14.8,0.073,-0.023,100.0,5.0,,0.0,0.0,
2025-08-14T23:45:31.531Z,6,GR86-024-41,14.8,0.067,-0.022,100.02,5.0,6233.0,0.0,0.0,
2025-08-14T23:45:31.574Z,6,GR86-024-41,14.8,0.067,-0.007,100.01,5.0,,0.0,0.0,181.77
2025-08-14T23:45:31.617Z,6,GR86-024-41,14.8,0.08,-0.025,100.0,5.0,,0.0,0.0,
2025-08-14T23:45:31.660Z,6,GR86-024-41,14.8,0.073,-0.026,100.0,5.0,,0.0,0.0,
2025-08-14T23:45:31.703Z,6,GR86-024-41,14.8,0.068,-0.035,99.98,5.0,,0.0,0.0,
2025-08-14T23:45:31.746Z,6,GR86-024-41,14.8,0.085,0.018,99.99,5.0,6241.0,0.0,0.0,
2025-08-14T23:45:31.789Z,6,GR86-024-41,14.8,0.079,0.026,99.97,5.0,,0.0,0.0,182.46
2025-08-14T23:45:31.833Z,6,GR86-024-41,14.8,0.079,0.019,99.99,5.0,,0.0,0.0,
2025-08-14T23:45:31.876Z,6,GR86-024-41,14.8,0.073,-0.002,100.0,5.0,,0.0,0.0,
2025-08-14T23:45:31.919Z,6,GR86-024-41,14.8,0.091,-0.009,99.99,5.0,,0.0,0.0,
2025-08-14T23:45:31.963Z,6,GR86-024-41,14.8,0.075,0.001,100.02,5.0,6272.0,0.0,0.0,
2025-08-14T23:45:32.008Z,6,GR86-024-41,14.8,0.086,-0.021,100.01,5.0,,0.0,0.0,183.07
2025-08-14T23:45:32.052Z,6,GR86-024-41,14.8,0.074,-0.016,100.0,5.0,,0.0,0.0,
2025-08-14T23:45:32.095Z,6,GR86-024-41,14.8,0.073,-0.019,99.99,5.0,,0.0,0.0,
2025-08-14T23:45:32.138Z,6,GR86-024-41,14.8,0.082,-0.026,100.0,5.0,,0.0,0.0,
2025-08-14T23:45:32.182Z,6,GR86-024-41,14.8,0.084,-0.043,99.99,5.0,6296.0,0.0,0.0,
2025-08-14T23:45:32.225Z,6,GR86-024-41,14.8,0.071,-0.051,100.01,5.0,,0.0,0.0,183.67
2025-08-14T23:45:32.268Z,6,GR86-024-41,14.8,0.072,-0.046,100.0,5.0,,0.0,0.0,
2025-08-14T23:45:32.311Z,6,GR86-024-41,14.8,0.064,-0.058,100.01,5.0,,0.0,0.0,
2025-08-14T23:45:32.355Z,6,GR86-024-41,14.8,0.06,-0.053,100.0,5.0,,0.0,0.0,
2025-08-14T23:45:32.398Z,6,GR86-024-41,14.8,0.052,-0.054,100.0,5.0,6307.0,0.0,0.0,
2025-08-14T23:45:32.441Z,6,GR86-024-41,14.8,0.069,-0.045,99.98,5.0,,0.0,0.0,184.85
2025-08-14T23:45:32.484Z,6,GR86-024-41,14.8,0.057,-0.045,99.99,5.0,,0.0,0.0,
2025-08-14T23:45:32.528Z,6,GR86-024-41,14.8,0.081,-0.039,99.99,5.0,,0.0,0.0,
2025-08-14T23:45:32.571Z,6,GR86-024-41,14.8,0.084,-0.022,100.0,5.0,,0.0,0.0,
2025-08-14T23:45:32.614Z,6,GR86-024-41,14.8,0.074,-0.023,99.99,5.0,6348.0,0.0,0.0,
2025-08-14T23:45:32.657Z,6,GR86-024-41,14.8,0.086,-0.026,100.03,5.0,,0.0,0.0,185.77
2025-08-14T23:45:32.700Z,6,GR86-024-41,14.8,0.079,-0.03,100.01,5.0,,0.0,0.0,
2025-08-14T23:45:32.743Z,6,GR86-024-41,14.8,0.084,-0.029,100.0,5.0,,0.0,0.0,
2025-08-14T23:45:32.786Z,6,GR86-024-41,14.8,0.069,-0.043,100.0,5.0,,0.0,0.0,
2025-08-14T23:45:32.872Z,6,GR86-024-41,14.8,0.067,-0.035,99.97,5.0,6377.0,0.0,0.0,186.29
2025-08-14T23:45:32.915Z,6,GR86-024-41,14.9,0.073,-0.026,99.98,5.0,,0.0,0.0,
2025-08-14T23:45:32.958Z,6,GR86-024-41,15.0,0.085,-0.021,100.01,5.0,,0.0,0.0,
2025-08-14T23:45:33.001Z,6,GR86-024-41,15.0,0.077,-0.02,100.01,5.0,,0.0,0.0,
2025-08-14T23:45:33.044Z,6,GR86-024-41,15.0,0.071,-0.014,99.99,5.0,6397.0,0.0,0.0,
2025-08-14T23:45:33.087Z,6,GR86-024-41,15.0,0.062,-0.009,99.99,5.0,,0.0,0.0,186.9
2025-08-14T23:45:33.131Z,6,GR86-024-41,15.0,0.086,-0.008,100.01,5.0,,0.0,0.0,
2025-08-14T23:45:33.174Z,6,GR86-024-41,15.0,0.07,0.02,100.0,5.0,,0.0,0.0,
2025-08-14T23:45:33.217Z,6,GR86-024-41,15.0,0.069,0.031,100.01,5.0,,0.0,0.0,
2025-08-14T23:45:33.260Z,6,GR86-024-41,15.2,0.082,0.024,100.01,5.0,6421.0,0.0,0.0,
2025-08-14T23:45:33.303Z,6,GR86-024-41,15.4,0.066,0.017,100.01,5.0,,0.0,0.0,187.62
2025-08-14T23:45:33.346Z,6,GR86-024-41,15.7,0.065,0.031,100.01,5.0,,0.0,0.0,
2025-08-14T23:45:33.389Z,6,GR86-024-41,15.9,0.074,0.041,100.01,5.0,,0.0,0.0,
2025-08-14T23:45:33.432Z,6,GR86-024-41,15.9,0.073,0.041,100.0,5.0,,0.0,0.0,
2025-08-14T23:45:33.475Z,6,GR86-024-41,15.9,0.08,0.047,100.0,5.0,6431.0,0.0,0.0,
2025-08-14T23:45:33.518Z,6,GR86-024-41,15.9,0.074,0.057,99.99,5.0,,0.0,0.0,188.19
2025-08-14T23:45:33.561Z,6,GR86-024-41,15.9,0.087,0.049,99.99,5.0,,0.0,0.0,
2025-08-14T23:45:33.604Z,6,GR86-024-41,15.9,0.064,0.039,99.99,5.0,,0.0,0.0,
2025-08-14T23:45:33.647Z,6,GR86-024-41,15.9,0.058,0.028,100.0,5.0,,0.0,0.0,
2025-08-14T23:45:33.690Z,6,GR86-024-41,15.9,0.094,0.041,99.99,5.0,6462.0,0.0,0.0,
2025-08-14T23:45:33.733Z,6,GR86-024-41,15.9,0.067,0.054,100.01,5.0,,0.0,0.0,188.7
2025-08-14T23:45:33.776Z,6,GR86-024-41,15.9,0.076,0.047,100.0,5.0,,0.0,0.0,
2025-08-14T23:45:33.821Z,6,GR86-024-41,16.0,0.057,0.037,99.97,5.0,,0.0,0.0,
2025-08-14T23:45:33.864Z,6,GR86-024-41,16.1,0.068,0.051,100.01,5.0,,0.0,0.0,
2025-08-14T23:45:33.907Z,6,GR86-024-41,16.2,0.066,0.047,99.99,5.0,6483.0,0.0,0.0,
2025-08-14T23:45:33.950Z,6,GR86-024-41,16.3,0.052,0.053,99.99,5.0,,0.0,0.0,189.19
2025-08-14T23:45:33.993Z,6,GR86-024-41,16.3,0.063,0.036,100.01,5.0,,0.0,0.0,
2025-08-14T23:45:34.036Z,6,GR86-024-41,16.3,0.07,0.031,99.98,5.0,,0.0,0.0,
2025-08-14T23:45:34.079Z,6,GR86-024-41,16.3,0.047,0.039,100.0,5.0,,0.0,0.0,
2025-08-14T23:45:34.122Z,6,GR86-024-41,16.3,0.065,0.029,100.0,5.0,6510.0,0.0,0.0,
2025-08-14T23:45:34.165Z,6,GR86-024-41,16.3,0.08,0.051,100.0,5.0,,0.0,0.0,189.83
2025-08-14T23:45:34.208Z,6,GR86-024-41,16.7,0.079,0.064,100.0,5.0,,0.0,0.0,
2025-08-14T23:45:34.251Z,6,GR86-024-41,17.400000000000002,0.066,0.073,100.0,5.0,,0.0,0.0,
2025-08-14T23:45:34.294Z,6,GR86-024-41,18.4,0.066,0.073,100.01,5.0,,0.0,0.0,
2025-08-14T23:45:34.337Z,6,GR86-024-41,19.200000000000003,0.061,0.091,100.0,5.0,6523.0,0.0,0.0,
2025-08-14T23:45:34.380Z,6,GR86-024-41,19.4,0.069,0.113,100.0,5.0,,0.0,0.0,190.46
2025-08-14T23:45:34.423Z,6,GR86-024-41,19.4,0.069,0.115,100.02,5.0,,0.0,0.0,
2025-08-14T23:45:34.466Z,6,GR86-024-41,19.4,0.056,0.148,99.98,5.0,,0.0,0.0,
2025-08-14T23:45:34.510Z,6,GR86-024-41,19.4,0.049,0.157,100.0,5.0,,0.0,0.0,
2025-08-14T23:45:34.553Z,6,GR86-024-41,19.4,0.074,0.164,100.01,5.0,6547.0,0.0,0.0,
2025-08-14T23:45:34.596Z,6,GR86-024-41,19.5,0.06,0.166,99.99,5.0,,0.0,0.0,191.02
2025-08-14T23:45:34.639Z,6,GR86-024-41,19.6,0.069,0.168,100.0,5.0,,0.0,0.0,
2025-08-14T23:45:34.683Z,6,GR86-024-41,19.6,0.073,0.186,99.98,5.0,,0.0,0.0,
2025-08-14T23:45:34.728Z,6,GR86-024-41,19.9,0.062,0.224,100.0,5.0,,0.0,0.0,
2025-08-14T23:45:34.771Z,6,GR86-024-41,20.5,0.067,0.244,100.0,5.0,6561.0,0.0,0.0,
2025-08-14T23:45:34.814Z,6,GR86-024-41,21.1,0.062,0.261,100.01,5.0,,0.0,0.0,191.64
2025-08-14T23:45:34.858Z,6,GR86-024-41,21.5,0.067,0.265,99.99,5.0,,0.0,0.0,
2025-08-14T23:45:34.902Z,6,GR86-024-41,21.8,0.061,0.256,100.01,5.0,,0.0,0.0,
2025-08-14T23:45:34.945Z,6,GR86-024-41,22.0,0.074,0.241,99.98,5.0,,0.0,0.0,
2025-08-14T23:45:34.988Z,6,GR86-024-41,22.200000000000003,0.073,0.274,99.99,5.0,6583.0,0.0,0.0,
2025-08-14T23:45:35.031Z,6,GR86-024-41,22.4,0.057,0.3,99.99,5.0,,0.0,0.0,193.1
2025-08-14T23:45:35.074Z,6,GR86-024-41,22.4,0.061,0.324,99.97,5.0,,0.0,0.0,
2025-08-14T23:45:35.117Z,6,GR86-024-41,22.4,0.068,0.331,99.98,5.0,,0.0,0.0,
2025-08-14T23:45:35.160Z,6,GR86-024-41,22.3,0.059,0.356,100.01,5.0,,0.0,0.0,
2025-08-14T23:45:35.203Z,6,GR86-024-41,22.200000000000003,0.05,0.35,100.01,5.0,6612.0,0.0,0.0,
2025-08-14T23:45:35.246Z,6,GR86-024-41,22.200000000000003,0.051,0.345,99.99,5.0,,0.0,0.0,193.75
2025-08-14T23:45:35.291Z,6,GR86-024-41,22.200000000000003,0.067,0.363,100.01,5.0,,0.0,0.0,
2025-08-14T23:45:35.334Z,6,GR86-024-41,22.200000000000003,0.058,0.352,100.0,5.0,,0.0,0.0,
2025-08-14T23:45:35.377Z,6,GR86-024-41,22.1,0.054,0.351,100.0,5.0,,0.0,0.0,
2025-08-14T23:45:35.420Z,6,GR86-024-41,22.1,0.053,0.338,100.0,5.0,6634.0,0.0,0.0,
2025-08-14T23:45:35.463Z,6,GR86-024-41,22.1,0.062,0.338,100.01,5.0,,0.0,0.0,194.31
2025-08-14T23:45:35.506Z,6,GR86-024-41,21.9,0.075,0.31,100.0,5.0,,0.0,0.0,
2025-08-14T23:45:35.550Z,6,GR86-024-41,21.5,0.047,0.305,100.01,5.0,,0.0,0.0,
2025-08-14T23:45:35.593Z,6,GR86-024-41,21.200000000000003,0.053,0.292,100.0,5.0,,0.0,0.0,
2025-08-14T23:45:35.636Z,6,GR86-024-41,21.1,0.068,0.266,100.01,5.0,6669.0,0.0,0.0,
2025-08-14T23:45:35.679Z,6,GR86-024-41,21.1,0.055,0.243,100.0,5.0,,0.0,0.0,194.92
2025-08-14T23:45:35.722Z,6,GR86-024-41,21.1,0.071,0.204,100.01,5.0,,0.0,0.0,
2025-08-14T23:45:35.765Z,6,GR86-024-41,21.0,0.064,0.178,100.01,5.0,,0.0,0.0,
2025-08-14T23:45:35.808Z,6,GR86-024-41,21.0,0.047,0.151,99.99,5.0,,0.0,0.0,
2025-08-14T23:45:35.851Z,6,GR86-024-41,21.0,0.039,0.142,99.99,5.0,6702.0,0.0,0.0,
2025-08-14T23:45:35.894Z,6,GR86-024-41,21.0,0.041,0.159,100.01,5.0,,0.0,0.0,195.45
2025-08-14T23:45:35.937Z,6,GR86-024-41,21.1,0.041,0.174,99.97,5.0,,0.0,0.0,
2025-08-14T23:45:35.980Z,6,GR86-024-41,21.3,0.076,0.196,99.99,5.0,,0.0,0.0,
2025-08-14T23:45:36.023Z,6,GR86-024-41,21.9,0.059,0.22,100.0,5.0,,0.0,0.0,
2025-08-14T23:45:36.066Z,6,GR86-024-41,23.0,0.046,0.235,100.01,5.0,6705.0,0.0,0.0,
2025-08-14T23:45:36.109Z,6,GR86-024-41,23.3,0.047,0.247,99.98,5.0,,0.0,0.0,195.91
2025-08-14T23:45:36.152Z,6,GR86-024-41,23.200000000000003,0.054,0.258,99.98,5.0,,0.0,0.0,
2025-08-14T23:45:36.195Z,6,GR86-024-41,23.1,0.059,0.259,99.97,5.0,,0.0,0.0,
2025-08-14T23:45:36.238Z,6,GR86-024-41,23.0,0.068,0.263,99.99,5.0,,0.0,0.0,
2025-08-14T23:45:36.282Z,6,GR86-024-41,23.0,0.081,0.269,99.99,5.0,6719.0,0.0,0.0,
2025-08-14T23:45:36.325Z,6,GR86-024-41,23.0,0.072,0.275,100.0,5.0,,0.0,0.0,196.44
2025-08-14T23:45:36.368Z,6,GR86-024-41,23.0,0.057,0.283,100.01,5.0,,0.0,0.0,
2025-08-14T23:45:36.411Z,6,GR86-024-41,23.0,0.064,0.289,99.99,5.0,,0.0,0.0,
2025-08-14T23:45:36.454Z,6,GR86-024-41,22.8,0.071,0.299,100.0,5.0,,0.0,0.0,
2025-08-14T23:45:36.541Z,6,GR86-024-41,18.6,0.06,0.285,100.0,5.0,6756.0,0.0,0.0,197.11
2025-08-14T23:45:36.584Z,6,GR86-024-41,17.900000000000002,0.062,0.248,99.99,5.0,,0.0,0.0,
2025-08-14T23:45:36.628Z,6,GR86-024-41,17.8,0.064,0.206,100.01,5.0,,0.0,0.0,
2025-08-14T23:45:36.671Z,6,GR86-024-41,17.8,0.057,0.194,100.01,5.0,,0.0,0.0,
2025-08-14T23:45:36.714Z,6,GR86-024-41,18.0,0.058,0.155,99.99,5.0,6768.0,0.0,0.0,
2025-08-14T23:45:36.757Z,6,GR86-024-41,18.8,0.055,0.162,99.97,5.0,,0.0,0.0,197.62
2025-08-14T23:45:36.800Z,6,GR86-024-41,19.6,0.063,0.144,99.99,5.0,,0.0,0.0,
2025-08-14T23:45:36.843Z,6,GR86-024-41,19.8,0.062,0.142,100.0,5.0,,0.0,0.0,
2025-08-14T23:45:36.886Z,6,GR86-024-41,19.700000000000003,0.051,0.129,99.99,5.0,,0.0,0.0,
2025-08-14T23:45:36.930Z,6,GR86-024-41,19.700000000000003,0.05,0.118,99.99,5.0,6796.0,0.0,0.0,
2025-08-14T23:45:36.973Z,6,GR86-024-41,19.6,0.049,0.117,100.01,5.0,,0.0,0.0,198.29
2025-08-14T23:45:37.016Z,6,GR86-024-41,19.6,0.052,0.112,86.08,5.0,,2.245,2.365,
2025-08-14T23:45:37.059Z,6,GR86-024-41,19.6,0.051,0.107,53.8,5.0,,5.83,5.74,
2025-08-14T23:45:37.102Z,6,GR86-024-41,19.6,-0.049,0.123,40.18,5.0,,9.935,9.905,
2025-08-14T23:45:37.145Z,6,GR86-024-41,19.6,-0.187,0.106,36.39,5.0,6823.0,14.42,14.205,
2025-08-14T23:45:37.188Z,6,GR86-024-41,19.6,-0.353,0.127,32.2,5.0,,19.61,19.52,198.53
2025-08-14T23:45:37.232Z,6,GR86-024-41,19.6,-0.411,0.134,26.32,5.0,,21.835,21.655,
2025-08-14T23:45:37.275Z,6,GR86-024-41,19.6,-0.431,0.133,18.85,5.0,,22.37,22.34,
2025-08-14T23:45:37.318Z,6,GR86-024-41,19.6,-0.452,0.131,5.72,5.0,,22.31,22.585,
2025-08-14T23:45:37.361Z,6,GR86-024-41,19.5,-0.472,0.12,3.93,5.0,6827.0,22.065,22.34,
2025-08-14T23:45:37.404Z,6,GR86-024-41,19.5,-0.5630000000000001,0.123,3.76,5.0,,21.805,21.99,199.34
2025-08-14T23:45:37.447Z,6,GR86-024-41,19.5,-0.603,0.155,3.26,5.0,,22.125,22.34,
2025-08-14T23:45:37.490Z,6,GR86-024-41,19.5,-0.721,0.153,2.94,5.0,,22.28,22.34,
2025-08-14T23:45:37.533Z,6,GR86-024-41,19.6,-0.616,0.206,2.72,5.0,,22.555,22.675,
2025-08-14T23:45:37.576Z,6,GR86-024-41,19.6,-0.626,0.201,2.62,5.0,6728.0,23.53,23.455,
2025-08-14T23:45:37.619Z,6,GR86-024-41,19.5,-0.665,0.191,2.56,5.0,,28.305,28.0,198.32
2025-08-14T23:45:37.663Z,6,GR86-024-41,19.1,-0.779,0.171,2.52,5.0,,37.295,36.775,
2025-08-14T23:45:37.708Z,6,GR86-024-41,17.5,-1.002,0.145,2.51,5.0,,53.455,52.71,
2025-08-14T23:45:37.751Z,6,GR86-024-41,16.8,-1.089,0.136,2.53,5.0,,63.315000000000005,62.565000000000005,
2025-08-14T23:45:37.794Z,6,GR86-024-41,16.7,-1.089,0.118,2.53,5.0,6381.0,72.18,71.98,
2025-08-14T23:45:37.837Z,6,GR86-024-41,16.8,-0.927,0.084,2.53,5.0,,80.115,79.72,190.94
2025-08-14T23:45:37.880Z,6,GR86-024-41,18.9,-0.847,0.083,2.52,5.0,,84.92,85.35000000000001,
2025-08-14T23:45:37.923Z,6,GR86-024-41,19.1,-0.905,0.109,2.52,5.0,,87.33500000000001,87.56,
2025-08-14T23:45:37.966Z,6,GR86-024-41,16.7,-0.939,0.134,2.53,5.0,,81.365,82.265,
2025-08-14T23:45:38.009Z,6,GR86-024-41,11.4,-0.728,0.27,2.53,5.0,6316.0,72.3,72.76,
2025-08-14T23:45:38.052Z,6,GR86-024-41,11.1,-0.841,0.21,2.51,5.0,,70.12,71.11,183.2
2025-08-14T23:45:38.095Z,6,GR86-024-41,16.0,-0.914,0.201,15.84,5.0,,71.77,72.24,
2025-08-14T23:45:38.138Z,6,GR86-024-41,19.200000000000003,-0.7000000000000001,0.116,59.9,5.0,,66.7,67.325,
2025-08-14T23:45:38.182Z,6,GR86-024-41,18.7,-0.977,0.237,92.58,4.0,,66.215,67.175,
2025-08-14T23:45:38.225Z,6,GR86-024-41,16.5,-0.8150000000000001,0.33,34.06,4.0,5754.0,62.06,62.565000000000005,
2025-08-14T23:45:38.268Z,6,GR86-024-41,17.1,-0.884,0.311,3.2,4.0,,64.58,65.3,169.28
2025-08-14T23:45:38.311Z,6,GR86-024-41,21.8,-0.707,0.109,2.72,4.0,,58.4,58.735,
2025-08-14T23:45:38.354Z,6,GR86-024-41,21.8,-1.017,0.254,2.54,4.0,,56.34,56.555,
2025-08-14T23:45:38.397Z,6,GR86-024-41,19.9,-0.671,0.329,2.49,4.0,,56.965,57.620000000000005,
2025-08-14T23:45:38.440Z,6,GR86-024-41,19.8,-0.874,0.19,2.47,4.0,5741.0,56.185,56.78,
2025-08-14T23:45:38.483Z,6,GR86-024-41,20.1,-0.968,0.305,2.47,4.0,,55.64,55.715,162.35
2025-08-14T23:45:38.528Z,6,GR86-024-41,19.9,-0.852,0.209,2.47,4.0,,63.435,64.09,
2025-08-14T23:45:38.571Z,6,GR86-024-41,19.1,-0.906,0.265,2.47,4.0,,65.265,65.33,
2025-08-14T23:45:38.614Z,6,GR86-024-41,19.200000000000003,-0.8270000000000001,0.143,2.46,4.0,,64.33500000000001,64.43,
2025-08-14T23:45:38.657Z,6,GR86-024-41,19.4,-0.876,0.111,2.47,4.0,6109.0,67.235,67.295,
2025-08-14T23:45:38.700Z,6,GR86-024-41,18.7,-1.07,0.152,2.46,4.0,,72.485,72.96000000000001,158.75
2025-08-14T23:45:38.743Z,6,GR86-024-41,17.1,-0.6960000000000001,0.234,2.47,4.0,,66.425,67.39,
2025-08-14T23:45:38.786Z,6,GR86-024-41,16.7,-1.147,0.161,2.47,4.0,,63.65,63.68,
2025-08-14T23:45:38.829Z,6,GR86-024-41,16.7,-1.028,0.209,2.46,4.0,,65.36,65.8,
2025-08-14T23:45:38.872Z,6,GR86-024-41,16.5,-0.954,0.193,2.47,4.0,5861.0,59.620000000000005,60.2,
2025-08-14T23:45:38.958Z,6,GR86-024-41,15.1,-1.075,0.199,2.47,4.0,,60.08,60.675,158.11
2025-08-14T23:45:39.001Z,6,GR86-024-41,14.7,-1.05,0.148,2.47,4.0,,56.125,57.21,
2025-08-14T23:45:39.044Z,6,GR86-024-41,14.6,-1.031,0.186,2.46,4.0,,55.24,56.155,
2025-08-14T23:45:39.087Z,6,GR86-024-41,14.5,-0.851,0.131,2.46,4.0,5754.0,52.435,53.485,
2025-08-14T23:45:39.131Z,6,GR86-024-41,14.4,-0.92,0.178,29.11,4.0,,49.55,50.28,149.66
2025-08-14T23:45:39.174Z,6,GR86-024-41,13.8,-1.035,0.1,73.98,4.0,,50.1,50.405,
2025-08-14T23:45:39.217Z,6,GR86-024-41,12.8,-1.027,0.1,100.08,3.0,,49.075,49.9,
2025-08-14T23:45:39.260Z,6,GR86-024-41,11.7,-0.912,0.059,60.36,3.0,,45.995,46.495,
2025-08-14T23:45:39.303Z,6,GR86-024-41,10.7,-1.057,0.033,5.28,3.0,5444.0,47.335,47.84,
2025-08-14T23:45:39.346Z,6,GR86-024-41,10.2,-1.067,-0.023,2.93,3.0,,46.055,46.24,146.44
2025-08-14T23:45:39.389Z,6,GR86-024-41,10.2,-1.096,-0.031,2.69,3.0,,39.34,39.155,
2025-08-14T23:45:39.476Z,6,GR86-024-41,10.0,-0.867,0.021,2.56,3.0,,36.245,36.73,
2025-08-14T23:45:39.521Z,6,GR86-024-41,8.200000000000001,-0.756,-0.104,2.5,3.0,5207.0,28.615,28.995,
2025-08-14T23:45:39.564Z,6,GR86-024-41,7.800000000000001,-0.728,-0.167,2.5,3.0,,27.435,27.775,139.41
2025-08-14T23:45:39.607Z,6,GR86-024-41,11.1,-0.705,-0.242,2.5,3.0,,27.115,27.59,
2025-08-14T23:45:39.650Z,6,GR86-024-41,17.900000000000002,-0.755,-0.225,2.49,3.0,,27.435,27.865,
2025-08-14T23:45:39.693Z,6,GR86-024-41,22.8,-0.731,-0.264,2.49,3.0,,28.0,28.095,
2025-08-14T23:45:39.736Z,6,GR86-024-41,26.0,-0.675,-0.163,2.47,3.0,6073.0,27.59,27.925,
2025-08-14T23:45:39.822Z,6,GR86-024-41,29.5,-0.734,-0.175,2.48,3.0,,27.775,27.895,134.57
2025-08-14T23:45:39.866Z,6,GR86-024-41,30.4,-0.719,-0.111,2.47,3.0,,27.435,27.59,
2025-08-14T23:45:39.909Z,6,GR86-024-41,30.5,-0.685,-0.067,2.49,3.0,,26.935,27.15,
2025-08-14T23:45:39.995Z,6,GR86-024-41,30.3,-0.73,-0.01,2.47,3.0,5971.0,26.81,27.255,131.18
2025-08-14T23:45:40.038Z,6,GR86-024-41,30.200000000000003,-0.68,0.069,2.48,3.0,,26.505,26.84,
2025-08-14T23:45:40.081Z,6,GR86-024-41,29.8,-0.756,0.106,2.47,3.0,,26.75,27.255,
2025-08-14T23:45:40.125Z,6,GR86-024-41,27.200000000000003,-0.713,0.127,9.82,3.0,,27.5,27.65,
2025-08-14T23:45:40.168Z,6,GR86-024-41,20.4,-0.6960000000000001,0.17,77.38,3.0,5769.0,28.035,28.095,
2025-08-14T23:45:40.211Z,6,GR86-024-41,17.900000000000002,-0.745,0.22,100.13,3.0,,27.775,28.245,128.07
2025-08-14T23:45:40.254Z,6,GR86-024-41,17.6,-0.6940000000000001,0.171,70.58,2.0,,28.52,28.995,
2025-08-14T23:45:40.297Z,6,GR86-024-41,17.7,-0.966,0.159,5.82,2.0,,29.53,29.835,
2025-08-14T23:45:40.341Z,6,GR86-024-41,18.1,-0.931,0.33,3.18,2.0,,30.245,30.765,
2025-08-14T23:45:40.384Z,6,GR86-024-41,18.4,-0.754,0.156,2.66,2.0,5580.0,30.735,31.085,
2025-08-14T23:45:40.428Z,6,GR86-024-41,17.900000000000002,-0.769,0.355,2.5,2.0,,30.275,30.365,119.32
2025-08-14T23:45:40.471Z,6,GR86-024-41,17.6,-0.768,0.197,2.47,2.0,,29.53,29.925,
2025-08-14T23:45:40.514Z,6,GR86-024-41,17.7,-0.795,0.261,2.46,2.0,,30.185,30.365,
2025-08-14T23:45:40.558Z,6,GR86-024-41,21.5,-0.764,0.3,2.47,2.0,,29.895,30.275,
2025-08-14T23:45:40.601Z,6,GR86-024-41,24.700000000000003,-0.811,0.241,2.47,2.0,5374.0,30.245,30.58,
2025-08-14T23:45:40.644Z,6,GR86-024-41,25.4,-0.742,0.333,2.46,2.0,,30.275,30.365,114.67
2025-08-14T23:45:40.687Z,6,GR86-024-41,23.6,-0.778,0.277,2.46,2.0,,29.74,30.015,
2025-08-14T23:45:40.731Z,6,GR86-024-41,19.200000000000003,-0.796,0.262,2.46,2.0,,29.115,29.56,
2025-08-14T23:45:40.774Z,6,GR86-024-41,16.400000000000002,-0.73,0.226,2.47,2.0,,28.125,28.4,
2025-08-14T23:45:40.817Z,6,GR86-024-41,15.9,-0.732,0.191,2.46,2.0,6261.0,26.905,27.47,
2025-08-14T23:45:40.860Z,6,GR86-024-41,16.1,-0.714,0.156,2.47,2.0,,26.46,26.905,109.29
2025-08-14T23:45:40.903Z,6,GR86-024-41,19.9,-0.717,0.181,2.46,2.0,,26.295,26.535,
2025-08-14T23:45:40.946Z,6,GR86-024-41,24.1,-0.714,0.191,2.47,2.0,,26.4,26.905,
2025-08-14T23:45:41.034Z,6,GR86-024-41,24.6,-0.723,0.199,2.47,2.0,5755.0,26.4,26.84,
2025-08-14T23:45:41.120Z,6,GR86-024-41,25.9,-0.723,0.167,2.47,2.0,,27.115,27.47,104.52
2025-08-14T23:45:41.206Z,6,GR86-024-41,31.700000000000003,-0.746,0.185,2.46,2.0,,29.62,29.65,
2025-08-14T23:45:41.249Z,6,GR86-024-41,34.6,-0.91,0.263,36.25,2.0,5518.0,38.44,38.32,
2025-08-14T23:45:41.292Z,6,GR86-024-41,34.9,-0.944,0.297,81.22,1.0,,40.21,40.3,99.92
2025-08-14T23:45:41.335Z,6,GR86-024-41,35.6,-0.959,0.293,38.53,1.0,,40.025,40.18,
2025-08-14T23:45:41.378Z,6,GR86-024-41,35.7,-1.129,0.279,5.2700000000000005,1.0,,39.43,39.815,
2025-08-14T23:45:41.421Z,6,GR86-024-41,36.0,-0.971,0.363,4.0,1.0,,38.015,38.625,
2025-08-14T23:45:41.464Z,6,GR86-024-41,37.0,-0.836,0.353,3.58,1.0,5247.0,34.84,35.085,
2025-08-14T23:45:41.507Z,6,GR86-024-41,40.3,-0.897,0.494,2.88,1.0,,25.99,26.505,95.41
2025-08-14T23:45:41.550Z,6,GR86-024-41,40.8,-0.721,0.518,2.72,1.0,,23.56,24.11,
2025-08-14T23:45:41.593Z,6,GR86-024-41,40.8,-0.718,0.5750000000000001,2.57,1.0,,18.74,18.955,
2025-08-14T23:45:41.636Z,6,GR86-024-41,41.1,-0.525,0.726,2.53,1.0,,15.72,15.9,
2025-08-14T23:45:41.679Z,6,GR86-024-41,42.8,-0.558,0.605,2.49,1.0,5445.0,13.795,14.24,
2025-08-14T23:45:41.722Z,6,GR86-024-41,45.900000000000006,-0.435,0.7000000000000001,2.47,1.0,,12.74,12.955,89.57000000000001
2025-08-14T23:45:41.766Z,6,GR86-024-41,52.6,-0.478,0.666,2.46,1.0,,11.4,11.935,
2025-08-14T23:45:41.809Z,6,GR86-024-41,60.2,-0.412,0.738,2.47,1.0,,10.24,10.5,
2025-08-14T23:45:41.852Z,6,GR86-024-41,66.0,-0.406,0.763,2.47,1.0,,9.6,9.935,
2025-08-14T23:45:41.895Z,6,GR86-024-41,70.8,-0.342,0.752,2.46,1.0,5857.0,8.575000000000001,9.005,
2025-08-14T23:45:41.938Z,6,GR86-024-41,75.3,-0.351,0.778,2.47,1.0,,6.15,6.655,84.82000000000001
2025-08-14T23:45:41.981Z,6,GR86-024-41,78.7,-0.276,0.781,2.46,1.0,,5.525,5.83,
2025-08-14T23:45:42.025Z,6,GR86-024-41,80.60000000000001,-0.335,0.792,2.47,1.0,,5.905,6.0600000000000005,
2025-08-14T23:45:42.068Z,6,GR86-024-41,81.0,-0.284,0.8290000000000001,2.47,1.0,,6.12,6.2700000000000005,
2025-08-14T23:45:42.111Z,6,GR86-024-41,81.4,-0.311,0.836,2.46,1.0,5753.0,6.775,6.775,
2025-08-14T23:45:42.154Z,6,GR86-024-41,82.0,-0.351,0.8290000000000001,2.47,1.0,,6.805,6.99,81.66
2025-08-14T23:45:42.197Z,6,GR86-024-41,82.2,-0.329,0.856,2.47,1.0,,7.08,7.205,
2025-08-14T23:45:42.240Z,6,GR86-024-41,82.10000000000001,-0.37,0.8230000000000001,2.46,1.0,,7.83,8.01,
2025-08-14T23:45:42.283Z,6,GR86-024-41,81.30000000000001,-0.33,0.875,2.47,1.0,,7.46,7.675,
2025-08-14T23:45:42.328Z,6,GR86-024-41,80.60000000000001,-0.348,0.86,2.47,1.0,5574.0,4.87,5.16,
2025-08-14T23:45:42.371Z,6,GR86-024-41,80.60000000000001,-0.189,0.891,2.47,1.0,,0.0,0.0,79.14
2025-08-14T23:45:42.414Z,6,GR86-024-41,80.60000000000001,-0.181,0.89,2.46,1.0,,0.0,0.0,
2025-08-14T23:45:42.457Z,6,GR86-024-41,80.60000000000001,-0.202,0.866,2.47,1.0,,0.0,0.0,
2025-08-14T23:45:42.500Z,6,GR86-024-41,80.5,-0.187,0.901,2.47,1.0,,0.0,0.0,
2025-08-14T23:45:42.543Z,6,GR86-024-41,80.5,-0.184,0.916,2.48,1.0,5399.0,0.0,0.0,
2025-08-14T23:45:42.586Z,6,GR86-024-41,85.60000000000001,-0.192,0.988,2.47,1.0,,0.0,0.0,77.09
2025-08-14T23:45:42.631Z,6,GR86-024-41,89.0,-0.198,0.944,2.47,1.0,,0.0,0.0,
2025-08-14T23:45:42.674Z,6,GR86-024-41,90.9,-0.188,0.907,2.47,1.0,,0.0,0.0,
2025-08-14T23:45:42.717Z,6,GR86-024-41,91.9,-0.178,0.898,2.48,1.0,,0.0,0.0,
2025-08-14T23:45:42.760Z,6,GR86-024-41,92.4,-0.182,0.883,2.49,1.0,5217.0,0.0,0.0,
2025-08-14T23:45:42.803Z,6,GR86-024-41,92.6,-0.182,0.922,2.49,1.0,,0.0,0.0,74.97
2025-08-14T23:45:42.846Z,6,GR86-024-41,92.9,-0.179,0.935,2.5,1.0,,0.0,0.0,
2025-08-14T23:45:42.889Z,6,GR86-024-41,93.0,-0.194,0.912,2.5,1.0,,0.0,0.0,
2025-08-14T23:45:42.932Z,6,GR86-024-41,93.3,-0.201,0.931,2.48,1.0,,0.0,0.0,
2025-08-14T23:45:42.976Z,6,GR86-024-41,93.4,-0.194,0.938,2.5,1.0,5137.0,0.0,0.0,
2025-08-14T23:45:43.019Z,6,GR86-024-41,93.5,-0.173,0.924,2.49,1.0,,0.0,0.0,73.75
2025-08-14T23:45:43.062Z,6,GR86-024-41,93.5,-0.172,0.953,2.48,1.0,,0.0,0.0,
2025-08-14T23:45:43.108Z,6,GR86-024-41,93.5,-0.168,0.912,2.49,1.0,,0.0,0.0,
2025-08-14T23:45:43.151Z,6,GR86-024-41,93.5,-0.18,0.907,2.49,1.0,,0.0,0.0,
2025-08-14T23:45:43.194Z,6,GR86-024-41,93.5,-0.19,0.935,2.64,1.0,5032.0,0.0,0.0,
2025-08-14T23:45:43.237Z,6,GR86-024-41,93.5,-0.182,0.985,4.03,1.0,,0.0,0.0,70.63
2025-08-14T23:45:43.280Z,6,GR86-024-41,93.5,-0.168,0.956,6.17,1.0,,0.0,0.0,
2025-08-14T23:45:43.323Z,6,GR86-024-41,93.7,-0.182,0.91,19.12,1.0,,0.0,0.0,
2025-08-14T23:45:43.366Z,6,GR86-024-41,94.1,-0.181,0.939,25.88,1.0,,0.0,0.0,
2025-08-14T23:45:43.409Z,6,GR86-024-41,94.2,-0.159,0.936,37.18,1.0,4936.0,0.0,0.0,
2025-08-14T23:45:43.452Z,6,GR86-024-41,94.2,-0.103,0.963,51.34,1.0,,0.0,0.0,69.21000000000001
2025-08-14T23:45:43.495Z,6,GR86-024-41,94.2,-0.107,0.982,62.15,1.0,,0.0,0.0,
2025-08-14T23:45:43.538Z,6,GR86-024-41,94.1,0.018,0.931,73.34,1.0,,0.0,0.0,
2025-08-14T23:45:43.628Z,6,GR86-024-41,93.0,0.351,0.908,78.48,1.0,4822.0,0.0,0.0,
2025-08-14T23:45:43.671Z,6,GR86-024-41,92.4,0.354,0.946,79.43,1.0,,0.0,0.0,67.87
2025-08-14T23:45:43.714Z,6,GR86-024-41,92.2,0.355,0.957,79.5,1.0,,0.0,0.0,
2025-08-14T23:45:43.757Z,6,GR86-024-41,91.6,0.329,0.992,79.31,1.0,,0.0,0.0,
2025-08-14T23:45:43.800Z,6,GR86-024-41,88.7,0.298,0.953,78.82000000000001,1.0,,0.0,0.0,
2025-08-14T23:45:43.843Z,6,GR86-024-41,79.7,0.302,0.977,77.52,1.0,5471.0,0.0,0.0,
2025-08-14T23:45:43.886Z,6,GR86-024-41,54.8,0.3,0.929,75.67,1.0,,0.0,0.0,66.9
2025-08-14T23:45:43.929Z,6,GR86-024-41,34.6,0.315,0.896,73.77,1.0,,0.0,0.0,
2025-08-14T23:45:43.972Z,6,GR86-024-41,19.5,0.318,0.8210000000000001,72.37,1.0,,0.0,0.0,
2025-08-14T23:45:44.015Z,6,GR86-024-41,15.9,0.331,0.769,71.55,1.0,,0.0,0.0,
2025-08-14T23:45:44.058Z,6,GR86-024-41,24.8,0.343,0.801,71.43,1.0,5467.0,0.0,0.0,
2025-08-14T23:45:44.101Z,6,GR86-024-41,45.3,0.346,0.836,72.88,1.0,,0.0,0.0,68.47
2025-08-14T23:45:44.144Z,6,GR86-024-41,62.6,0.361,0.941,75.21000000000001,1.0,,0.0,0.0,
2025-08-14T23:45:44.187Z,6,GR86-024-41,67.60000000000001,0.327,0.993,75.86,1.0,,0.0,0.0,
2025-08-14T23:45:44.232Z,6,GR86-024-41,60.1,0.344,0.994,75.46000000000001,1.0,,0.0,0.0,
2025-08-14T23:45:44.275Z,6,GR86-024-41,51.5,0.342,0.913,74.78,1.0,5678.0,0.0,0.0,
2025-08-14T23:45:44.318Z,6,GR86-024-41,49.2,0.343,0.919,74.60000000000001,1.0,,0.0,0.0,70.5
2025-08-14T23:45:44.361Z,6,GR86-024-41,49.2,0.315,0.898,74.74,1.0,,0.0,0.0,
2025-08-14T23:45:44.404Z,6,GR86-024-41,50.1,0.295,0.892,75.29,1.0,,0.0,0.0,
2025-08-14T23:45:44.447Z,6,GR86-024-41,48.3,0.329,0.876,75.52,1.0,,0.0,0.0,
2025-08-14T23:45:44.490Z,6,GR86-024-41,40.7,0.328,0.898,75.56,1.0,5805.0,0.0,0.0,
2025-08-14T23:45:44.533Z,6,GR86-024-41,30.700000000000003,0.326,0.838,75.57000000000001,1.0,,0.0,0.0,72.02
2025-08-14T23:45:44.576Z,6,GR86-024-41,19.5,0.325,0.812,75.37,1.0,,0.0,0.0,
2025-08-14T23:45:44.621Z,6,GR86-024-41,8.200000000000001,0.32,0.806,74.65,1.0,,0.0,0.0,
2025-08-14T23:45:44.664Z,6,GR86-024-41,-1.0,0.345,0.777,74.31,1.0,,0.0,0.0,
2025-08-14T23:45:44.707Z,6,GR86-024-41,-9.4,0.363,0.6930000000000001,73.74,1.0,5959.0,0.0,0.0,
2025-08-14T23:45:44.750Z,6,GR86-024-41,-11.5,0.356,0.712,73.26,1.0,,0.0,0.0,73.99
2025-08-14T23:45:44.793Z,6,GR86-024-41,-12.2,0.35,0.7020000000000001,73.15,1.0,,0.0,0.0,
2025-08-14T23:45:44.836Z,6,GR86-024-41,-12.3,0.356,0.729,73.48,1.0,,0.0,0.0,
2025-08-14T23:45:44.879Z,6,GR86-024-41,0.0,0.362,0.731,73.97,1.0,,0.0,0.0,
2025-08-14T23:45:44.922Z,6,GR86-024-41,23.8,0.391,0.801,76.35000000000001,1.0,6191.0,0.0,0.0,
2025-08-14T23:45:44.965Z,6,GR86-024-41,49.3,0.387,0.892,83.28,1.0,,0.0,0.0,75.84
2025-08-14T23:45:45.008Z,6,GR86-024-41,59.8,0.356,0.938,97.41,1.0,,0.0,0.0,
2025-08-14T23:45:45.051Z,6,GR86-024-41,56.3,0.367,0.924,100.01,1.0,,0.0,0.0,
2025-08-14T23:45:45.094Z,6,GR86-024-41,52.8,0.361,0.883,100.04,1.0,,0.0,0.0,
2025-08-14T23:45:45.137Z,6,GR86-024-41,52.400000000000006,0.353,0.854,100.06,1.0,6321.0,0.0,0.0,
2025-08-14T23:45:45.180Z,6,GR86-024-41,53.7,0.318,0.781,100.07,1.0,,0.0,0.0,77.72
2025-08-14T23:45:45.223Z,6,GR86-024-41,54.7,0.301,0.8,100.07,1.0,,0.0,0.0,
2025-08-14T23:45:45.266Z,6,GR86-024-41,54.7,0.308,0.716,100.07,1.0,,0.0,0.0,
2025-08-14T23:45:45.309Z,6,GR86-024-41,54.5,0.34,0.774,100.06,1.0,,0.0,0.0,
2025-08-14T23:45:45.352Z,6,GR86-024-41,53.2,0.304,0.745,100.04,1.0,6364.0,0.0,0.0,
2025-08-14T23:45:45.395Z,6,GR86-024-41,48.3,0.366,0.719,100.05,1.0,,0.0,0.0,79.35000000000001
2025-08-14T23:45:45.438Z,6,GR86-024-41,38.8,0.335,0.591,100.05,1.0,,0.0,0.0,
2025-08-14T23:45:45.482Z,6,GR86-024-41,24.700000000000003,0.278,0.528,100.03,1.0,,0.0,0.0,
2025-08-14T23:45:45.525Z,6,GR86-024-41,10.4,0.304,0.543,100.04,1.0,,0.0,0.0,
2025-08-14T23:45:45.568Z,6,GR86-024-41,-0.8,0.216,0.49,100.03,1.0,6433.0,0.0,0.0,
2025-08-14T23:45:45.611Z,6,GR86-024-41,1.0,0.438,0.382,100.04,1.0,,0.0,0.0,81.5
2025-08-14T23:45:45.654Z,6,GR86-024-41,14.0,0.467,0.447,100.06,1.0,,0.0,0.0,
2025-08-14T23:45:45.697Z,6,GR86-024-41,25.0,0.324,0.415,100.06,1.0,,0.0,0.0,
2025-08-14T23:45:45.741Z,6,GR86-024-41,27.5,0.287,0.313,100.06,1.0,,0.0,0.0,
2025-08-14T23:45:45.784Z,6,GR86-024-41,27.3,0.341,0.38,100.04,1.0,6644.0,0.0,0.0,
2025-08-14T23:45:45.828Z,6,GR86-024-41,27.0,0.19,0.289,100.06,1.0,,0.0,0.0,85.59
2025-08-14T23:45:45.871Z,6,GR86-024-41,26.9,0.336,0.313,100.05,1.0,,0.0,0.0,
2025-08-14T23:45:45.957Z,6,GR86-024-41,26.9,0.412,0.404,100.05,1.0,,0.0,0.0,
2025-08-14T23:45:46.001Z,6,GR86-024-41,26.700000000000003,-0.022,0.31,100.03,2.0,6845.0,0.0,0.0,
2025-08-14T23:45:46.044Z,6,GR86-024-41,25.0,0.11,0.231,100.04,2.0,,0.0,0.0,87.12
2025-08-14T23:45:46.087Z,6,GR86-024-41,21.6,0.25,0.106,100.03,2.0,,0.0,0.0,
2025-08-14T23:45:46.131Z,6,GR86-024-41,19.8,0.25,0.099,100.0,2.0,,0.0,0.0,
2025-08-14T23:45:46.174Z,6,GR86-024-41,19.6,0.462,0.167,100.04,2.0,,0.0,0.0,
2025-08-14T23:45:46.217Z,6,GR86-024-41,21.700000000000003,0.396,0.104,100.02,2.0,6882.0,0.0,0.0,
2025-08-14T23:45:46.260Z,6,GR86-024-41,23.8,0.425,0.287,100.04,2.0,,0.0,0.0,89.53
2025-08-14T23:45:46.303Z,6,GR86-024-41,24.3,0.222,0.338,100.04,2.0,,0.0,0.0,
2025-08-14T23:45:46.346Z,6,GR86-024-41,24.8,0.362,0.363,100.04,2.0,,0.0,0.0,
2025-08-14T23:45:46.391Z,6,GR86-024-41,23.0,0.419,0.433,100.02,2.0,,0.0,0.0,
2025-08-14T23:45:46.434Z,6,GR86-024-41,17.0,0.324,0.342,100.03,2.0,5549.0,0.0,0.0,
2025-08-14T23:45:46.477Z,6,GR86-024-41,12.0,0.378,0.263,100.03,2.0,,0.0,0.0,91.36
2025-08-14T23:45:46.520Z,6,GR86-024-41,10.2,0.128,0.138,100.03,2.0,,0.0,0.0,
2025-08-14T23:45:46.563Z,6,GR86-024-41,9.6,0.098,0.157,100.03,2.0,,0.0,0.0,
2025-08-14T23:45:46.606Z,6,GR86-024-41,9.6,0.231,0.069,100.05,2.0,,0.0,0.0,
2025-08-14T23:45:46.650Z,6,GR86-024-41,9.6,0.185,0.073,100.03,2.0,5623.0,0.0,0.0,
2025-08-14T23:45:46.693Z,6,GR86-024-41,10.1,0.192,0.03,100.03,2.0,,0.0,0.0,93.71
2025-08-14T23:45:46.736Z,6,GR86-024-41,12.0,0.199,0.016,100.02,2.0,,0.0,0.0,
2025-08-14T23:45:46.779Z,6,GR86-024-41,13.8,0.315,0.002,100.04,2.0,,0.0,0.0,
2025-08-14T23:45:46.822Z,6,GR86-024-41,14.7,0.377,-0.009,100.01,2.0,,0.0,0.0,
2025-08-14T23:45:46.865Z,6,GR86-024-41,15.0,0.407,-0.023,100.02,2.0,5744.0,0.0,0.0,
2025-08-14T23:45:46.908Z,6,GR86-024-41,15.2,0.194,-0.081,100.03,2.0,,0.0,0.0,95.53
2025-08-14T23:45:46.951Z,6,GR86-024-41,15.1,0.369,-0.091,100.03,2.0,,0.0,0.0,
2025-08-14T23:45:46.994Z,6,GR86-024-41,15.1,0.429,-0.116,100.03,2.0,,0.0,0.0,
2025-08-14T23:45:47.037Z,6,GR86-024-41,15.3,0.492,-0.128,100.02,2.0,,0.0,0.0,
2025-08-14T23:45:47.080Z,6,GR86-024-41,16.900000000000002,0.384,-0.107,100.04,2.0,5798.0,0.0,0.0,
2025-08-14T23:45:47.123Z,6,GR86-024-41,19.4,0.317,-0.147,100.03,2.0,,0.0,0.0,97.19
2025-08-14T23:45:47.166Z,6,GR86-024-41,23.0,0.355,-0.118,100.01,2.0,,0.0,0.0,
2025-08-14T23:45:47.209Z,6,GR86-024-41,24.9,0.384,-0.123,100.02,2.0,,0.0,0.0,
2025-08-14T23:45:47.252Z,6,GR86-024-41,27.3,0.386,-0.08,100.02,2.0,,0.0,0.0,
2025-08-14T23:45:47.295Z,6,GR86-024-41,30.6,0.35,-0.111,100.01,2.0,5923.0,0.0,0.0,
2025-08-14T23:45:47.338Z,6,GR86-024-41,35.0,0.339,-0.023,100.03,2.0,,0.0,0.0,98.98
2025-08-14T23:45:47.382Z,6,GR86-024-41,38.7,0.352,0.019,100.03,2.0,,0.0,0.0,
2025-08-14T23:45:47.425Z,6,GR86-024-41,40.8,0.251,0.056,100.03,2.0,,0.0,0.0,
2025-08-14T23:45:47.468Z,6,GR86-024-41,40.8,0.36,0.212,100.01,2.0,,0.0,0.0,
2025-08-14T23:45:47.511Z,6,GR86-024-41,37.2,0.336,0.197,100.0,2.0,5980.0,0.0,0.0,
2025-08-14T23:45:47.554Z,6,GR86-024-41,31.8,0.353,0.228,100.01,2.0,,0.0,0.0,100.77
2025-08-14T23:45:47.597Z,6,GR86-024-41,26.6,0.333,0.158,100.03,2.0,,0.0,0.0,
2025-08-14T23:45:47.640Z,6,GR86-024-41,24.1,0.251,0.142,100.04,2.0,,0.0,0.0,
2025-08-14T23:45:47.683Z,6,GR86-024-41,23.8,0.29,0.181,100.02,2.0,,0.0,0.0,
2025-08-14T23:45:47.728Z,6,GR86-024-41,27.0,0.259,0.161,100.04,2.0,6078.0,0.0,0.0,
2025-08-14T23:45:47.771Z,6,GR86-024-41,29.700000000000003,0.291,0.232,100.0,2.0,,0.0,0.0,102.42
2025-08-14T23:45:47.814Z,6,GR86-024-41,30.3,0.337,0.315,100.03,2.0,,0.0,0.0,
2025-08-14T23:45:47.857Z,6,GR86-024-41,30.1,0.369,0.289,100.01,2.0,,0.0,0.0,
2025-08-14T23:45:47.900Z,6,GR86-024-41,30.0,0.305,0.294,99.99,2.0,,0.0,0.0,
2025-08-14T23:45:47.943Z,6,GR86-024-41,30.4,0.353,0.316,100.02,2.0,6131.0,0.0,0.0,
2025-08-14T23:45:47.986Z,6,GR86-024-41,30.6,0.296,0.246,100.01,2.0,,0.0,0.0,104.11
2025-08-14T23:45:48.030Z,6,GR86-024-41,29.700000000000003,0.237,0.216,100.0,2.0,,0.0,0.0,
2025-08-14T23:45:48.073Z,6,GR86-024-41,26.200000000000003,0.231,0.155,100.04,2.0,,0.0,0.0,
2025-08-14T23:45:48.116Z,6,GR86-024-41,23.700000000000003,0.233,0.18,100.02,2.0,,0.0,0.0,
2025-08-14T23:45:48.159Z,6,GR86-024-41,22.9,0.254,0.179,100.01,2.0,6249.0,0.0,0.0,
2025-08-14T23:45:48.202Z,6,GR86-024-41,22.8,0.294,0.219,100.02,2.0,,0.0,0.0,105.67
2025-08-14T23:45:48.245Z,6,GR86-024-41,22.8,0.303,0.254,100.0,2.0,,0.0,0.0,
2025-08-14T23:45:48.288Z,6,GR86-024-41,22.8,0.264,0.2,100.02,2.0,,0.0,0.0,
2025-08-14T23:45:48.331Z,6,GR86-024-41,22.8,0.226,0.171,100.0,2.0,,0.0,0.0,
2025-08-14T23:45:48.374Z,6,GR86-024-41,21.9,0.233,0.152,100.03,2.0,6258.0,0.0,0.0,
2025-08-14T23:45:48.417Z,6,GR86-024-41,18.2,0.226,0.144,100.03,2.0,,0.0,0.0,107.02
2025-08-14T23:45:48.460Z,6,GR86-024-41,13.2,0.265,0.147,100.01,2.0,,0.0,0.0,
2025-08-14T23:45:48.503Z,6,GR86-024-41,8.8,0.323,0.108,100.02,2.0,,0.0,0.0,
2025-08-14T23:45:48.546Z,6,GR86-024-41,7.0,0.253,0.041,100.03,2.0,,0.0,0.0,
2025-08-14T23:45:48.589Z,6,GR86-024-41,7.0,0.249,-0.032,100.01,2.0,6406.0,0.0,0.0,
2025-08-14T23:45:48.633Z,6,GR86-024-41,7.1000000000000005,0.232,-0.096,100.0,2.0,,0.0,0.0,109.75
2025-08-14T23:45:48.676Z,6,GR86-024-41,7.2,0.194,-0.087,100.0,2.0,,0.0,0.0,
2025-08-14T23:45:48.719Z,6,GR86-024-41,7.4,0.235,-0.147,100.01,2.0,,0.0,0.0,
2025-08-14T23:45:48.762Z,6,GR86-024-41,8.1,0.335,-0.156,100.03,2.0,,0.0,0.0,
2025-08-14T23:45:48.808Z,6,GR86-024-41,9.2,0.303,-0.213,100.02,2.0,6478.0,0.0,0.0,
2025-08-14T23:45:48.851Z,6,GR86-024-41,9.4,0.241,-0.217,100.01,2.0,,0.0,0.0,111.42
2025-08-14T23:45:48.894Z,6,GR86-024-41,10.0,0.234,-0.233,100.03,2.0,,0.0,0.0,
2025-08-14T23:45:48.937Z,6,GR86-024-41,11.8,0.252,-0.214,100.01,2.0,,0.0,0.0,
2025-08-14T23:45:48.980Z,6,GR86-024-41,14.3,0.262,-0.191,100.0,2.0,,0.0,0.0,
2025-08-14T23:45:49.023Z,6,GR86-024-41,16.2,0.277,-0.152,100.03,2.0,6497.0,0.0,0.0,
2025-08-14T23:45:49.066Z,6,GR86-024-41,17.3,0.262,-0.101,100.03,2.0,,0.0,0.0,112.66
2025-08-14T23:45:49.109Z,6,GR86-024-41,17.400000000000002,0.242,-0.082,100.0,2.0,,0.0,0.0,
2025-08-14T23:45:49.152Z,6,GR86-024-41,17.5,0.257,-0.049,100.0,2.0,,0.0,0.0,
2025-08-14T23:45:49.195Z,6,GR86-024-41,17.6,0.288,-0.034,100.02,2.0,,0.0,0.0,
2025-08-14T23:45:49.238Z,6,GR86-024-41,17.7,0.261,-0.029,100.03,2.0,6667.0,0.0,0.0,
2025-08-14T23:45:49.282Z,6,GR86-024-41,17.7,0.256,-0.008,99.99,2.0,,0.0,0.0,113.94
2025-08-14T23:45:49.325Z,6,GR86-024-41,17.7,0.258,0.018,99.99,2.0,,0.0,0.0,
2025-08-14T23:45:49.368Z,6,GR86-024-41,17.8,0.262,0.049,99.99,2.0,,0.0,0.0,
2025-08-14T23:45:49.411Z,6,GR86-024-41,17.900000000000002,0.244,0.051,100.0,2.0,,0.0,0.0,
2025-08-14T23:45:49.454Z,6,GR86-024-41,18.0,0.27,0.052,100.01,2.0,6743.0,0.0,0.0,
2025-08-14T23:45:49.497Z,6,GR86-024-41,18.0,0.271,0.052,100.03,2.0,,0.0,0.0,115.07
2025-08-14T23:45:49.541Z,6,GR86-024-41,18.0,0.246,0.056,100.03,2.0,,0.0,0.0,
2025-08-14T23:45:49.584Z,6,GR86-024-41,17.900000000000002,0.262,0.07,100.03,2.0,,0.0,0.0,
2025-08-14T23:45:49.628Z,6,GR86-024-41,17.6,0.265,0.059,100.02,2.0,,0.0,0.0,
2025-08-14T23:45:49.671Z,6,GR86-024-41,17.400000000000002,0.259,0.045,100.02,2.0,6826.0,0.0,0.0,
2025-08-14T23:45:49.714Z,6,GR86-024-41,16.3,0.253,0.023,100.02,2.0,,0.0,0.0,116.13
2025-08-14T23:45:49.757Z,6,GR86-024-41,14.5,0.269,0.013,100.02,2.0,,0.0,0.0,
2025-08-14T23:45:49.800Z,6,GR86-024-41,12.8,0.248,-0.007,100.03,2.0,,0.0,0.0,
2025-08-14T23:45:49.843Z,6,GR86-024-41,11.9,0.24,-0.04,100.01,2.0,,0.0,0.0,
2025-08-14T23:45:49.886Z,6,GR86-024-41,11.5,0.263,-0.053,100.01,2.0,6881.0,0.0,0.0,
2025-08-14T23:45:49.929Z,6,GR86-024-41,11.4,0.279,-0.083,99.98,2.0,,0.0,0.0,117.31
2025-08-14T23:45:49.972Z,6,GR86-024-41,11.4,0.145,-0.106,100.01,2.0,,0.0,0.0,
2025-08-14T23:45:50.015Z,6,GR86-024-41,11.1,-0.115,-0.096,100.0,3.0,,0.0,0.0,
2025-08-14T23:45:50.058Z,6,GR86-024-41,10.9,0.537,-0.129,100.01,3.0,,0.0,0.0,
2025-08-14T23:45:50.101Z,6,GR86-024-41,10.9,0.356,-0.235,99.99,3.0,6954.0,0.0,0.0,
2025-08-14T23:45:50.144Z,6,GR86-024-41,10.4,0.4,-0.128,100.02,3.0,,0.0,0.0,118.4
2025-08-14T23:45:50.187Z,6,GR86-024-41,10.2,0.152,-0.254,100.0,3.0,,0.0,0.0,
2025-08-14T23:45:50.230Z,6,GR86-024-41,10.2,0.132,-0.192,100.01,3.0,,0.0,0.0,
2025-08-14T23:45:50.273Z,6,GR86-024-41,10.2,0.189,-0.188,99.99,3.0,,0.0,0.0,
2025-08-14T23:45:50.316Z,6,GR86-024-41,10.5,0.227,-0.252,100.0,3.0,6517.0,0.0,0.0,
2025-08-14T23:45:50.359Z,6,GR86-024-41,11.0,0.25,-0.177,100.01,3.0,,0.0,0.0,119.56
2025-08-14T23:45:50.402Z,6,GR86-024-41,11.6,0.211,-0.203,100.0,3.0,,0.0,0.0,
2025-08-14T23:45:50.445Z,6,GR86-024-41,12.9,0.197,-0.203,100.01,3.0,,0.0,0.0,
2025-08-14T23:45:50.488Z,6,GR86-024-41,15.0,0.198,-0.164,100.0,3.0,,0.0,0.0,
2025-08-14T23:45:50.531Z,6,GR86-024-41,15.2,0.214,-0.159,100.0,3.0,5652.0,0.0,0.0,
2025-08-14T23:45:50.574Z,6,GR86-024-41,15.2,0.206,-0.129,99.99,3.0,,0.0,0.0,120.45
2025-08-14T23:45:50.617Z,6,GR86-024-41,15.2,0.209,-0.12,100.0,3.0,,0.0,0.0,
2025-08-14T23:45:50.660Z,6,GR86-024-41,15.5,0.211,-0.113,100.02,3.0,,0.0,0.0,
2025-08-14T23:45:50.703Z,6,GR86-024-41,16.400000000000002,0.203,-0.089,100.01,3.0,,0.0,0.0,
2025-08-14T23:45:50.746Z,6,GR86-024-41,17.1,0.213,-0.073,100.0,3.0,5744.0,0.0,0.0,
2025-08-14T23:45:50.789Z,6,GR86-024-41,17.3,0.214,-0.057,100.01,3.0,,0.0,0.0,121.54
2025-08-14T23:45:50.832Z,6,GR86-024-41,17.400000000000002,0.208,-0.031,100.01,3.0,,0.0,0.0,
2025-08-14T23:45:50.875Z,6,GR86-024-41,17.400000000000002,0.211,-0.02,99.99,3.0,,0.0,0.0,
2025-08-14T23:45:50.918Z,6,GR86-024-41,17.5,0.215,-0.009,99.99,3.0,,0.0,0.0,
2025-08-14T23:45:50.961Z,6,GR86-024-41,17.7,0.219,0.006,99.99,3.0,5795.0,0.0,0.0,
2025-08-14T23:45:51.004Z,6,GR86-024-41,18.4,0.2,0.005,100.0,3.0,,0.0,0.0,122.24
2025-08-14T23:45:51.047Z,6,GR86-024-41,19.9,0.198,0.041,100.01,3.0,,0.0,0.0,
2025-08-14T23:45:51.090Z,6,GR86-024-41,20.1,0.211,0.068,99.88,3.0,,0.0,0.0,
2025-08-14T23:45:51.133Z,6,GR86-024-41,20.1,0.236,0.071,55.46,3.0,,0.0,0.0,
