timestamp,lap,vehicle_id,steering_angle,accx_can,accy_can,ath,gear,nmot,pbrake_f,pbrake_r,speed
2025-08-15T00:58:32.154Z,2,GR86-040-3,2.2,0.037,-0.006,16.05,2.0,,0.0,0.0,
2025-08-15T00:58:32.197Z,2,GR86-040-3,2.2,0.039,0.033,16.240000000000002,2.0,,0.0,0.0,
2025-08-15T00:58:32.240Z,2,GR86-040-3,2.2,0.009,-0.015,16.6,2.0,4676.0,0.0,0.0,
2025-08-15T00:58:32.283Z,2,GR86-040-3,2.2,0.012,0.022,16.92,2.0,,0.0,0.0,82.32000000000001
2025-08-15T00:58:32.326Z,2,GR86-040-3,2.2,0.025,-0.02,17.07,2.0,,0.0,0.0,
2025-08-15T00:58:32.373Z,2,GR86-040-3,2.2,0.032,0.012,17.16,2.0,,0.0,0.0,
2025-08-15T00:58:32.418Z,2,GR86-040-3,2.2,0.037,-0.023,17.17,2.0,,0.0,0.0,
2025-08-15T00:58:32.461Z,2,GR86-040-3,2.2,0.043,0.028,17.16,2.0,4701.0,0.0,0.0,
2025-08-15T00:58:32.504Z,2,GR86-040-3,2.2,0.029,-0.021,17.17,2.0,,0.0,0.0,82.53
2025-08-15T00:58:32.547Z,2,GR86-040-3,2.2,0.03,0.025,17.21,2.0,,0.0,0.0,
2025-08-15T00:58:32.590Z,2,GR86-040-3,2.2,0.035,-0.003,17.23,2.0,,0.0,0.0,
2025-08-15T00:58:32.633Z,2,GR86-040-3,2.2,0.042,0.015,17.23,2.0,,0.0,0.0,
2025-08-15T00:58:32.677Z,2,GR86-040-3,2.2,0.042,-0.011,17.13,2.0,4715.0,0.0,0.0,
2025-08-15T00:58:32.721Z,2,GR86-040-3,2.2,0.039,0.028,17.16,2.0,,0.0,0.0,82.68
2025-08-15T00:58:32.764Z,2,GR86-040-3,2.2,0.035,-0.014,17.2,2.0,,0.0,0.0,
2025-08-15T00:58:32.808Z,2,GR86-040-3,2.2,0.037,0.025,17.2,2.0,,0.0,0.0,
2025-08-15T00:58:32.851Z,2,GR86-040-3,2.2,0.037,0.006,17.22,2.0,,0.0,0.0,
2025-08-15T00:58:32.894Z,2,GR86-040-3,2.2,0.045,0.016,17.23,2.0,4728.0,0.0,0.0,
2025-08-15T00:58:32.938Z,2,GR86-040-3,2.2,0.038,-0.014,17.23,2.0,,0.0,0.0,82.9
2025-08-15T00:58:32.981Z,2,GR86-040-3,2.2,0.034,0.032,17.3,2.0,,0.0,0.0,
2025-08-15T00:58:33.024Z,2,GR86-040-3,2.2,0.036,-0.005,17.43,2.0,,0.0,0.0,
2025-08-15T00:58:33.067Z,2,GR86-040-3,2.2,0.037,0.009,17.43,2.0,,0.0,0.0,
2025-08-15T00:58:33.110Z,2,GR86-040-3,2.2,0.038,0.007,17.43,2.0,4735.0,0.0,0.0,
2025-08-15T00:58:33.153Z,2,GR86-040-3,2.2,0.043,-0.002,17.240000000000002,2.0,,0.0,0.0,83.18
2025-08-15T00:58:33.198Z,2,GR86-040-3,2.2,0.044,-0.016,16.97,2.0,,0.0,0.0,
2025-08-15T00:58:33.241Z,2,GR86-040-3,2.2,0.048,0.014,16.81,2.0,,0.0,0.0,
2025-08-15T00:58:33.284Z,2,GR86-040-3,2.2,0.039,-0.011,16.240000000000002,2.0,,0.0,0.0,
2025-08-15T00:58:33.330Z,2,GR86-040-3,2.2,0.035,0.004,15.34,2.0,4759.0,0.0,0.0,
2025-08-15T00:58:33.373Z,2,GR86-040-3,2.2,0.028,0.006,15.27,2.0,,0.0,0.0,83.47
2025-08-15T00:58:33.418Z,2,GR86-040-3,2.2,0.02,0.027,15.14,2.0,,0.0,0.0,
2025-08-15T00:58:33.461Z,2,GR86-040-3,2.2,0.022,-0.01,14.64,2.0,,0.0,0.0,
2025-08-15T00:58:33.504Z,2,GR86-040-3,2.2,0.011,0.016,14.31,2.0,,0.0,0.0,
2025-08-15T00:58:33.547Z,2,GR86-040-3,2.2,-0.003,0.0,14.1,2.0,4764.0,0.0,0.0,
2025-08-15T00:58:33.590Z,2,GR86-040-3,2.2,-0.018,0.005,14.02,2.0,,0.0,0.0,83.71000000000001
2025-08-15T00:58:33.633Z,2,GR86-040-3,2.2,-0.023,0.011,14.11,2.0,,0.0,0.0,
2025-08-15T00:58:33.678Z,2,GR86-040-3,2.2,-0.021,0.021,13.94,2.0,,0.0,0.0,
2025-08-15T00:58:33.721Z,2,GR86-040-3,2.2,-0.03,-0.01,13.93,2.0,,0.0,0.0,
2025-08-15T00:58:33.764Z,2,GR86-040-3,2.2,-0.024,0.015,14.01,2.0,4749.0,0.0,0.0,
2025-08-15T00:58:33.807Z,2,GR86-040-3,2.2,-0.031,-0.005,14.53,2.0,,0.0,0.0,83.9
2025-08-15T00:58:33.851Z,2,GR86-040-3,2.2,-0.031,-0.004,15.27,2.0,,0.0,0.0,
2025-08-15T00:58:33.894Z,2,GR86-040-3,2.2,-0.024,0.008,16.1,2.0,,0.0,0.0,
2025-08-15T00:58:33.937Z,2,GR86-040-3,2.2,-0.021,0.005,16.79,2.0,,0.0,0.0,
2025-08-15T00:58:33.980Z,2,GR86-040-3,2.2,-0.025,-0.018,16.96,2.0,4742.0,0.0,0.0,
2025-08-15T00:58:34.023Z,2,GR86-040-3,2.2,-0.006,0.005,16.990000000000002,2.0,,0.0,0.0,83.75
2025-08-15T00:58:34.068Z,2,GR86-040-3,2.2,0.031,-0.002,16.97,2.0,,0.0,0.0,
2025-08-15T00:58:34.111Z,2,GR86-040-3,2.2,0.06,0.0,16.75,2.0,,0.0,0.0,
2025-08-15T00:58:34.154Z,2,GR86-040-3,2.2,0.062,0.011,16.65,2.0,,0.0,0.0,
2025-08-15T00:58:34.197Z,2,GR86-040-3,2.2,0.027,0.022,16.830000000000002,2.0,4747.0,0.0,0.0,
2025-08-15T00:58:34.241Z,2,GR86-040-3,2.2,0.012,-0.01,17.0,2.0,,0.0,0.0,83.66
2025-08-15T00:58:34.284Z,2,GR86-040-3,2.2,0.024,0.016,17.07,2.0,,0.0,0.0,
2025-08-15T00:58:34.329Z,2,GR86-040-3,2.2,0.038,0.01,17.02,2.0,,0.0,0.0,
2025-08-15T00:58:34.373Z,2,GR86-040-3,2.2,0.051,0.004,16.76,2.0,,0.0,0.0,
2025-08-15T00:58:34.418Z,2,GR86-040-3,2.2,0.036,-0.009,16.76,2.0,4774.0,0.0,0.0,
2025-08-15T00:58:34.461Z,2,GR86-040-3,2.2,0.025,0.021,16.89,2.0,,0.0,0.0,83.91
2025-08-15T00:58:34.504Z,2,GR86-040-3,2.2,0.024,-0.005,16.97,2.0,,0.0,0.0,
2025-08-15T00:58:34.547Z,2,GR86-040-3,1.7000000000000002,0.027,0.006,17.0,2.0,,0.0,0.0,
2025-08-15T00:58:34.590Z,2,GR86-040-3,1.1,0.029,0.007,17.03,2.0,,0.0,0.0,
2025-08-15T00:58:34.633Z,2,GR86-040-3,0.4,0.039,-0.005,17.04,2.0,4798.0,0.0,0.0,
2025-08-15T00:58:34.678Z,2,GR86-040-3,0.1,0.041,-0.026,17.07,2.0,,0.0,0.0,84.18
2025-08-15T00:58:34.721Z,2,GR86-040-3,0.1,0.028,-0.006,17.06,2.0,,0.0,0.0,
2025-08-15T00:58:34.764Z,2,GR86-040-3,0.1,0.03,-0.03,17.07,2.0,,0.0,0.0,
2025-08-15T00:58:34.808Z,2,GR86-040-3,0.1,0.024,-0.02,17.03,2.0,,0.0,0.0,
2025-08-15T00:58:34.851Z,2,GR86-040-3,0.1,0.032,-0.021,17.13,2.0,4802.0,0.0,0.0,
2025-08-15T00:58:34.894Z,2,GR86-040-3,0.1,0.044,-0.029,17.11,2.0,,0.0,0.0,84.34
2025-08-15T00:58:34.937Z,2,GR86-040-3,0.1,0.032,-0.04,17.1,2.0,,0.0,0.0,
2025-08-15T00:58:34.981Z,2,GR86-040-3,0.1,0.03,-0.007,17.11,2.0,,0.0,0.0,
2025-08-15T00:58:35.024Z,2,GR86-040-3,0.1,0.025,-0.038,17.13,2.0,,0.0,0.0,
2025-08-15T00:58:35.068Z,2,GR86-040-3,-0.3,0.03,-0.021,17.150000000000002,2.0,4812.0,0.0,0.0,
2025-08-15T00:58:35.111Z,2,GR86-040-3,-1.6,0.037,-0.029,17.04,2.0,,0.0,0.0,84.62
2025-08-15T00:58:35.154Z,2,GR86-040-3,-4.0,0.037,-0.034,16.96,2.0,,0.0,0.0,
2025-08-15T00:58:35.197Z,2,GR86-040-3,-8.3,0.032,-0.086,16.9,2.0,,0.0,0.0,
2025-08-15T00:58:35.241Z,2,GR86-040-3,-11.4,0.031,-0.073,16.87,2.0,,0.0,0.0,
2025-08-15T00:58:35.284Z,2,GR86-040-3,-14.0,0.015,-0.129,16.97,2.0,4831.0,0.0,0.0,
2025-08-15T00:58:35.330Z,2,GR86-040-3,-16.1,0.016,-0.165,17.03,2.0,,0.0,0.0,84.89
2025-08-15T00:58:35.373Z,2,GR86-040-3,-17.7,0.019,-0.194,17.07,2.0,,0.0,0.0,
2025-08-15T00:58:35.418Z,2,GR86-040-3,-19.8,0.022,-0.222,17.1,2.0,,0.0,0.0,
2025-08-15T00:58:35.461Z,2,GR86-040-3,-20.6,0.012,-0.301,17.09,2.0,,0.0,0.0,
2025-08-15T00:58:35.504Z,2,GR86-040-3,-20.700000000000003,0.023,-0.275,17.03,2.0,4849.0,0.0,0.0,
2025-08-15T00:58:35.547Z,2,GR86-040-3,-20.700000000000003,0.012,-0.341,17.03,2.0,,0.0,0.0,85.12
2025-08-15T00:58:35.590Z,2,GR86-040-3,-20.700000000000003,0.018,-0.32,17.11,2.0,,0.0,0.0,
2025-08-15T00:58:35.633Z,2,GR86-040-3,-20.700000000000003,0.023,-0.362,17.14,2.0,,0.0,0.0,
2025-08-15T00:58:35.676Z,2,GR86-040-3,-20.700000000000003,0.023,-0.329,17.27,2.0,,0.0,0.0,
2025-08-15T00:58:35.720Z,2,GR86-040-3,-20.700000000000003,0.017,-0.4,17.36,2.0,4862.0,0.0,0.0,
2025-08-15T00:58:35.763Z,2,GR86-040-3,-20.700000000000003,0.023,-0.336,17.55,2.0,,0.0,0.0,85.34
2025-08-15T00:58:35.808Z,2,GR86-040-3,-20.200000000000003,0.015,-0.4,17.59,2.0,,0.0,0.0,
2025-08-15T00:58:35.851Z,2,GR86-040-3,-18.8,0.016,-0.349,17.8,2.0,,0.0,0.0,
2025-08-15T00:58:35.894Z,2,GR86-040-3,-16.7,0.017,-0.378,17.96,2.0,,0.0,0.0,
2025-08-15T00:58:35.938Z,2,GR86-040-3,-12.1,0.037,-0.286,18.03,2.0,4875.0,0.0,0.0,
2025-08-15T00:58:35.981Z,2,GR86-040-3,-8.8,0.036,-0.329,17.900000000000002,2.0,,0.0,0.0,85.54
2025-08-15T00:58:36.024Z,2,GR86-040-3,-5.300000000000001,0.044,-0.228,17.71,2.0,,0.0,0.0,
2025-08-15T00:58:36.067Z,2,GR86-040-3,-1.6,0.036,-0.247,17.490000000000002,2.0,,0.0,0.0,
2025-08-15T00:58:36.111Z,2,GR86-040-3,2.7,0.038,-0.154,17.39,2.0,,0.0,0.0,
2025-08-15T00:58:36.154Z,2,GR86-040-3,7.6,0.039,-0.14,17.19,2.0,4891.0,0.0,0.0,
2025-08-15T00:58:36.198Z,2,GR86-040-3,15.5,0.048,0.017,15.91,2.0,,0.0,0.0,85.77
2025-08-15T00:58:36.241Z,2,GR86-040-3,20.6,0.033,0.046,15.05,2.0,,0.0,0.0,
2025-08-15T00:58:36.284Z,2,GR86-040-3,25.4,0.037,0.172,14.98,2.0,,0.0,0.0,
2025-08-15T00:58:36.330Z,2,GR86-040-3,29.200000000000003,0.02,0.209,14.53,2.0,,0.0,0.0,
2025-08-15T00:58:36.373Z,2,GR86-040-3,31.9,0.012,0.325,14.1,2.0,4904.0,0.0,0.0,
2025-08-15T00:58:36.418Z,2,GR86-040-3,33.6,-0.023,0.388,13.36,2.0,,0.0,0.0,86.34
2025-08-15T00:58:36.461Z,2,GR86-040-3,33.7,-0.026,0.469,12.8,2.0,,0.0,0.0,
2025-08-15T00:58:36.504Z,2,GR86-040-3,33.7,-0.032,0.47,12.35,2.0,,0.0,0.0,
2025-08-15T00:58:36.547Z,2,GR86-040-3,33.7,-0.022,0.541,11.91,2.0,,0.0,0.0,
2025-08-15T00:58:36.590Z,2,GR86-040-3,33.7,-0.035,0.514,11.85,2.0,4890.0,0.0,0.0,
2025-08-15T00:58:36.633Z,2,GR86-040-3,33.7,-0.033,0.593,12.14,2.0,,0.0,0.0,86.45
2025-08-15T00:58:36.678Z,2,GR86-040-3,33.7,-0.046,0.585,12.83,2.0,,0.0,0.0,
2025-08-15T00:58:36.721Z,2,GR86-040-3,33.7,-0.055,0.581,13.58,2.0,,0.0,0.0,
2025-08-15T00:58:36.764Z,2,GR86-040-3,33.7,-0.049,0.5710000000000001,13.58,2.0,,0.0,0.0,
2025-08-15T00:58:36.808Z,2,GR86-040-3,33.7,-0.053,0.585,13.72,2.0,4883.0,0.0,0.0,
2025-08-15T00:58:36.851Z,2,GR86-040-3,33.7,-0.045,0.5650000000000001,14.27,2.0,,0.0,0.0,86.2
2025-08-15T00:58:36.894Z,2,GR86-040-3,32.6,-0.049,0.593,15.43,2.0,,0.0,0.0,
2025-08-15T00:58:36.937Z,2,GR86-040-3,30.4,-0.027,0.583,15.6,2.0,,0.0,0.0,
2025-08-15T00:58:36.981Z,2,GR86-040-3,29.1,-0.022,0.529,15.63,2.0,,0.0,0.0,
2025-08-15T00:58:37.024Z,2,GR86-040-3,28.1,-0.021,0.534,15.63,2.0,4850.0,0.0,0.0,
2025-08-15T00:58:37.068Z,2,GR86-040-3,27.1,-0.013,0.515,15.65,2.0,,0.0,0.0,85.81
2025-08-15T00:58:37.111Z,2,GR86-040-3,26.1,0.0,0.481,15.7,2.0,,0.0,0.0,
2025-08-15T00:58:37.154Z,2,GR86-040-3,24.9,0.013,0.495,15.75,2.0,,0.0,0.0,
2025-08-15T00:58:37.197Z,2,GR86-040-3,22.200000000000003,0.0,0.472,16.14,2.0,,0.0,0.0,
2025-08-15T00:58:37.241Z,2,GR86-040-3,19.6,-0.008,0.397,16.72,2.0,4843.0,0.0,0.0,
2025-08-15T00:58:37.284Z,2,GR86-040-3,16.0,0.004,0.4,16.830000000000002,2.0,,0.0,0.0,85.53
2025-08-15T00:58:37.330Z,2,GR86-040-3,11.6,0.016,0.331,17.0,2.0,,0.0,0.0,
2025-08-15T00:58:37.373Z,2,GR86-040-3,7.1000000000000005,0.027,0.282,17.17,2.0,,0.0,0.0,
2025-08-15T00:58:37.418Z,2,GR86-040-3,-0.5,0.03,0.162,17.76,2.0,,0.0,0.0,
2025-08-15T00:58:37.461Z,2,GR86-040-3,-6.4,0.034,0.137,18.38,2.0,4865.0,0.0,0.0,
2025-08-15T00:58:37.504Z,2,GR86-040-3,-13.1,0.029,0.02,18.57,2.0,,0.0,0.0,85.48
2025-08-15T00:58:37.547Z,2,GR86-040-3,-19.8,0.037,-0.047,18.83,2.0,,0.0,0.0,
2025-08-15T00:58:37.591Z,2,GR86-040-3,-25.700000000000003,0.036,-0.172,19.2,2.0,,0.0,0.0,
2025-08-15T00:58:37.634Z,2,GR86-040-3,-30.5,0.036,-0.248,19.6,2.0,,0.0,0.0,
2025-08-15T00:58:37.678Z,2,GR86-040-3,-35.0,0.033,-0.387,20.91,2.0,4884.0,0.0,0.0,
2025-08-15T00:58:37.721Z,2,GR86-040-3,-36.2,0.031,-0.413,21.39,2.0,,0.0,0.0,85.56
2025-08-15T00:58:37.764Z,2,GR86-040-3,-36.3,0.035,-0.517,21.81,2.0,,0.0,0.0,
2025-08-15T00:58:37.808Z,2,GR86-040-3,-36.3,0.05,-0.507,22.13,2.0,,0.0,0.0,
2025-08-15T00:58:37.851Z,2,GR86-040-3,-36.3,0.058,-0.599,22.15,2.0,,0.0,0.0,
2025-08-15T00:58:37.894Z,2,GR86-040-3,-36.3,0.073,-0.557,22.2,2.0,4931.0,0.0,0.0,
2025-08-15T00:58:37.937Z,2,GR86-040-3,-36.3,0.076,-0.624,22.16,2.0,,0.0,0.0,85.88
2025-08-15T00:58:37.981Z,2,GR86-040-3,-36.3,0.081,-0.5670000000000001,22.1,2.0,,0.0,0.0,
2025-08-15T00:58:38.024Z,2,GR86-040-3,-36.3,0.071,-0.641,22.03,2.0,,0.0,0.0,
2025-08-15T00:58:38.067Z,2,GR86-040-3,-35.6,0.077,-0.5700000000000001,21.97,2.0,,0.0,0.0,
2025-08-15T00:58:38.111Z,2,GR86-040-3,-34.6,0.083,-0.634,21.88,2.0,4970.0,0.0,0.0,
2025-08-15T00:58:38.154Z,2,GR86-040-3,-33.300000000000004,0.083,-0.53,21.79,2.0,,0.0,0.0,87.12
2025-08-15T00:58:38.197Z,2,GR86-040-3,-31.200000000000003,0.08,-0.5630000000000001,21.63,2.0,,0.0,0.0,
2025-08-15T00:58:38.241Z,2,GR86-040-3,-29.9,0.078,-0.529,21.52,2.0,,0.0,0.0,
2025-08-15T00:58:38.284Z,2,GR86-040-3,-29.0,0.077,-0.555,21.43,2.0,,0.0,0.0,
2025-08-15T00:58:38.330Z,2,GR86-040-3,-28.3,0.076,-0.512,21.42,2.0,5004.0,0.0,0.0,
2025-08-15T00:58:38.373Z,2,GR86-040-3,-28.3,0.08,-0.542,21.42,2.0,,0.0,0.0,86.99
2025-08-15T00:58:38.418Z,2,GR86-040-3,-28.3,0.072,-0.503,21.42,2.0,,0.0,0.0,
2025-08-15T00:58:38.461Z,2,GR86-040-3,-28.200000000000003,0.07,-0.473,21.35,2.0,,0.0,0.0,
2025-08-15T00:58:38.504Z,2,GR86-040-3,-27.700000000000003,0.07,-0.489,21.23,2.0,,0.0,0.0,
2025-08-15T00:58:38.547Z,2,GR86-040-3,-26.4,0.074,-0.453,21.13,2.0,5037.0,0.0,0.0,
2025-08-15T00:58:38.590Z,2,GR86-040-3,-23.9,0.072,-0.462,20.9,2.0,,0.0,0.0,87.64
2025-08-15T00:58:38.633Z,2,GR86-040-3,-20.6,0.069,-0.435,20.45,2.0,,0.0,0.0,
2025-08-15T00:58:38.677Z,2,GR86-040-3,-15.9,0.07,-0.419,18.53,2.0,,0.0,0.0,
2025-08-15T00:58:38.721Z,2,GR86-040-3,-12.9,0.068,-0.339,18.54,2.0,,0.0,0.0,
2025-08-15T00:58:38.764Z,2,GR86-040-3,-9.7,0.052,-0.345,18.48,2.0,5063.0,0.0,0.0,
2025-08-15T00:58:38.808Z,2,GR86-040-3,-6.2,0.048,-0.265,18.21,2.0,,0.0,0.0,88.26
2025-08-15T00:58:38.851Z,2,GR86-040-3,-2.3000000000000003,0.03,-0.262,18.02,2.0,,0.0,0.0,
2025-08-15T00:58:38.894Z,2,GR86-040-3,1.7000000000000002,0.041,-0.171,17.1,2.0,,0.0,0.0,
2025-08-15T00:58:38.938Z,2,GR86-040-3,7.6,0.043,-0.11,16.57,2.0,,0.0,0.0,
2025-08-15T00:58:38.981Z,2,GR86-040-3,11.8,0.037,-0.028,15.51,2.0,5069.0,0.0,0.0,
2025-08-15T00:58:39.024Z,2,GR86-040-3,15.9,0.03,0.025,14.67,2.0,,0.0,0.0,89.37
2025-08-15T00:58:39.067Z,2,GR86-040-3,20.1,0.013,0.11,11.73,2.0,,0.0,0.0,
2025-08-15T00:58:39.111Z,2,GR86-040-3,24.1,0.002,0.167,7.82,2.0,,0.0,0.0,
2025-08-15T00:58:39.154Z,2,GR86-040-3,27.8,-0.006,0.25,7.81,2.0,,0.0,0.0,
2025-08-15T00:58:39.198Z,2,GR86-040-3,32.4,-0.049,0.356,7.2,2.0,5083.0,0.0,0.0,
2025-08-15T00:58:39.241Z,2,GR86-040-3,34.4,-0.046,0.395,6.95,2.0,,0.0,0.0,89.69
2025-08-15T00:58:39.284Z,2,GR86-040-3,35.4,-0.059,0.48,6.7,2.0,,0.0,0.0,
2025-08-15T00:58:39.329Z,2,GR86-040-3,35.5,-0.064,0.503,6.37,2.0,,0.0,0.0,
2025-08-15T00:58:39.373Z,2,GR86-040-3,35.5,-0.183,0.5670000000000001,6.75,2.0,,0.0,0.0,
2025-08-15T00:58:39.418Z,2,GR86-040-3,35.5,-0.175,0.5760000000000001,6.86,2.0,4960.0,0.0,0.0,
2025-08-15T00:58:39.461Z,2,GR86-040-3,35.5,-0.099,0.625,6.83,2.0,,0.0,0.0,89.64
2025-08-15T00:58:39.504Z,2,GR86-040-3,35.5,-0.063,0.611,6.76,2.0,,0.0,0.0,
2025-08-15T00:58:39.547Z,2,GR86-040-3,34.300000000000004,-0.07,0.669,6.7,2.0,,0.0,0.0,
2025-08-15T00:58:39.590Z,2,GR86-040-3,32.4,-0.087,0.587,6.72,2.0,,0.0,0.0,
2025-08-15T00:58:39.633Z,2,GR86-040-3,30.6,-0.119,0.653,6.78,2.0,4954.0,0.0,0.0,
2025-08-15T00:58:39.678Z,2,GR86-040-3,29.3,-0.111,0.58,6.82,2.0,,0.0,0.0,88.94
2025-08-15T00:58:39.721Z,2,GR86-040-3,29.3,-0.085,0.579,6.82,2.0,,0.0,0.0,
2025-08-15T00:58:39.764Z,2,GR86-040-3,29.3,-0.09,0.549,6.84,2.0,,0.0,0.0,
2025-08-15T00:58:39.807Z,2,GR86-040-3,29.200000000000003,-0.086,0.5710000000000001,6.95,2.0,,0.0,0.0,
2025-08-15T00:58:39.851Z,2,GR86-040-3,29.200000000000003,-0.104,0.531,7.01,2.0,4933.0,0.0,0.0,
2025-08-15T00:58:39.894Z,2,GR86-040-3,29.1,-0.101,0.554,7.04,2.0,,0.0,0.0,88.14
2025-08-15T00:58:39.937Z,2,GR86-040-3,27.0,-0.095,0.546,7.11,2.0,,0.0,0.0,
2025-08-15T00:58:39.981Z,2,GR86-040-3,24.700000000000003,-0.089,0.483,7.140000000000001,2.0,,0.0,0.0,
2025-08-15T00:58:40.024Z,2,GR86-040-3,22.200000000000003,-0.083,0.478,7.24,2.0,,0.0,0.0,
2025-08-15T00:58:40.067Z,2,GR86-040-3,19.700000000000003,-0.09,0.451,7.63,2.0,4905.0,0.0,0.0,
2025-08-15T00:58:40.111Z,2,GR86-040-3,17.2,-0.096,0.407,8.08,2.0,,0.0,0.0,87.45
2025-08-15T00:58:40.154Z,2,GR86-040-3,14.5,-0.093,0.389,8.78,2.0,,0.0,0.0,
2025-08-15T00:58:40.197Z,2,GR86-040-3,9.6,-0.092,0.338,9.9,2.0,,0.0,0.0,
2025-08-15T00:58:40.240Z,2,GR86-040-3,6.7,-0.09,0.252,11.04,2.0,,0.0,0.0,
2025-08-15T00:58:40.283Z,2,GR86-040-3,3.7,-0.097,0.235,12.01,2.0,4874.0,0.0,0.0,
2025-08-15T00:58:40.326Z,2,GR86-040-3,1.3,-0.105,0.159,13.8,2.0,,0.0,0.0,86.78
2025-08-15T00:58:40.372Z,2,GR86-040-3,-1.2000000000000002,-0.12,0.121,15.43,2.0,,0.0,0.0,
2025-08-15T00:58:40.415Z,2,GR86-040-3,-4.2,-0.122,0.06,16.86,2.0,,0.0,0.0,
2025-08-15T00:58:40.458Z,2,GR86-040-3,-10.2,-0.057,-0.019,17.42,2.0,,0.0,0.0,
2025-08-15T00:58:40.501Z,2,GR86-040-3,-14.6,-0.069,-0.108,18.57,2.0,4810.0,0.0,0.0,
2025-08-15T00:58:40.544Z,2,GR86-040-3,-18.8,-0.057,-0.124,19.48,2.0,,0.0,0.0,86.15
2025-08-15T00:58:40.588Z,2,GR86-040-3,-22.3,-0.029,-0.248,20.3,2.0,,0.0,0.0,
2025-08-15T00:58:40.631Z,2,GR86-040-3,-25.1,0.168,-0.253,19.5,2.0,,0.0,0.0,
2025-08-15T00:58:40.674Z,2,GR86-040-3,-27.200000000000003,0.157,-0.355,19.44,2.0,,0.0,0.0,
2025-08-15T00:58:40.718Z,2,GR86-040-3,-30.0,0.004,-0.342,21.94,2.0,5038.0,0.0,0.0,
2025-08-15T00:58:40.761Z,2,GR86-040-3,-31.4,-0.036,-0.457,22.09,2.0,,0.0,0.0,85.51
2025-08-15T00:58:40.804Z,2,GR86-040-3,-32.4,0.022,-0.434,22.16,2.0,,0.0,0.0,
2025-08-15T00:58:40.847Z,2,GR86-040-3,-33.1,0.084,-0.511,22.19,2.0,,0.0,0.0,
2025-08-15T00:58:40.891Z,2,GR86-040-3,-33.4,0.111,-0.492,22.17,2.0,,0.0,0.0,
2025-08-15T00:58:40.934Z,2,GR86-040-3,-33.4,0.091,-0.541,22.16,2.0,4931.0,0.0,0.0,
2025-08-15T00:58:40.978Z,2,GR86-040-3,-33.4,0.062,-0.52,22.16,2.0,,0.0,0.0,85.69
2025-08-15T00:58:41.021Z,2,GR86-040-3,-33.4,0.067,-0.579,22.15,2.0,,0.0,0.0,
2025-08-15T00:58:41.064Z,2,GR86-040-3,-33.4,0.078,-0.544,22.1,2.0,,0.0,0.0,
2025-08-15T00:58:41.108Z,2,GR86-040-3,-33.4,0.094,-0.582,22.09,2.0,,0.0,0.0,
2025-08-15T00:58:41.151Z,2,GR86-040-3,-33.4,0.079,-0.533,22.07,2.0,4949.0,0.0,0.0,
2025-08-15T00:58:41.194Z,2,GR86-040-3,-33.4,0.082,-0.583,22.03,2.0,,0.0,0.0,86.21000000000001
2025-08-15T00:58:41.237Z,2,GR86-040-3,-32.2,0.079,-0.553,22.0,2.0,,0.0,0.0,
2025-08-15T00:58:41.280Z,2,GR86-040-3,-30.4,0.076,-0.548,21.99,2.0,,0.0,0.0,
2025-08-15T00:58:41.323Z,2,GR86-040-3,-28.200000000000003,0.094,-0.512,21.97,2.0,,0.0,0.0,
2025-08-15T00:58:41.367Z,2,GR86-040-3,-26.200000000000003,0.083,-0.512,21.97,2.0,4996.0,0.0,0.0,
2025-08-15T00:58:41.411Z,2,GR86-040-3,-24.700000000000003,0.087,-0.466,21.97,2.0,,0.0,0.0,86.95
2025-08-15T00:58:41.454Z,2,GR86-040-3,-23.6,0.082,-0.481,21.97,2.0,,0.0,0.0,
2025-08-15T00:58:41.497Z,2,GR86-040-3,-21.1,0.075,-0.45,21.97,2.0,,0.0,0.0,
2025-08-15T00:58:41.541Z,2,GR86-040-3,-19.1,0.082,-0.404,21.97,2.0,,0.0,0.0,
2025-08-15T00:58:41.584Z,2,GR86-040-3,-16.3,0.085,-0.383,21.97,2.0,5036.0,0.0,0.0,
2025-08-15T00:58:41.629Z,2,GR86-040-3,-12.9,0.088,-0.342,21.97,2.0,,0.0,0.0,88.41
2025-08-15T00:58:41.673Z,2,GR86-040-3,-9.1,0.09,-0.315,21.97,2.0,,0.0,0.0,
2025-08-15T00:58:41.718Z,2,GR86-040-3,-2.6,0.095,-0.226,21.97,2.0,,0.0,0.0,
2025-08-15T00:58:41.761Z,2,GR86-040-3,1.9,0.093,-0.206,21.97,2.0,,0.0,0.0,
2025-08-15T00:58:41.804Z,2,GR86-040-3,6.300000000000001,0.093,-0.119,21.97,2.0,5083.0,0.0,0.0,
2025-08-15T00:58:41.847Z,2,GR86-040-3,10.7,0.092,-0.077,21.97,2.0,,0.0,0.0,89.18
2025-08-15T00:58:41.890Z,2,GR86-040-3,15.6,0.093,0.012,20.84,2.0,,0.0,0.0,
2025-08-15T00:58:41.933Z,2,GR86-040-3,20.6,0.098,0.075,18.78,2.0,,0.0,0.0,
2025-08-15T00:58:41.977Z,2,GR86-040-3,27.700000000000003,0.086,0.199,14.2,2.0,,0.0,0.0,
2025-08-15T00:58:42.021Z,2,GR86-040-3,31.700000000000003,0.064,0.28,10.91,2.0,5139.0,0.0,0.0,
2025-08-15T00:58:42.064Z,2,GR86-040-3,34.800000000000004,0.028,0.36,8.94,2.0,,0.0,0.0,90.0
2025-08-15T00:58:42.108Z,2,GR86-040-3,36.9,-0.012,0.428,7.890000000000001,2.0,,0.0,0.0,
2025-08-15T00:58:42.151Z,2,GR86-040-3,38.1,-0.04,0.498,7.81,2.0,,0.0,0.0,
2025-08-15T00:58:42.194Z,2,GR86-040-3,38.3,-0.052,0.542,6.75,2.0,,0.0,0.0,
2025-08-15T00:58:42.238Z,2,GR86-040-3,38.3,-0.064,0.603,6.38,2.0,5082.0,0.0,0.0,
2025-08-15T00:58:42.281Z,2,GR86-040-3,38.3,-0.07,0.655,5.98,2.0,,0.0,0.0,90.67
2025-08-15T00:58:42.324Z,2,GR86-040-3,38.3,-0.177,0.644,5.55,2.0,,0.0,0.0,
2025-08-15T00:58:42.367Z,2,GR86-040-3,38.3,-0.213,0.71,5.38,2.0,,0.0,0.0,
2025-08-15T00:58:42.410Z,2,GR86-040-3,37.9,-0.153,0.671,5.28,2.0,,0.0,0.0,
2025-08-15T00:58:42.453Z,2,GR86-040-3,36.3,-0.105,0.704,5.19,2.0,5081.0,0.0,0.0,
2025-08-15T00:58:42.498Z,2,GR86-040-3,32.9,-0.094,0.658,5.09,2.0,,0.0,0.0,90.61
2025-08-15T00:58:42.541Z,2,GR86-040-3,30.3,-0.13,0.66,5.04,2.0,,0.0,0.0,
2025-08-15T00:58:42.584Z,2,GR86-040-3,27.700000000000003,-0.148,0.61,5.0,2.0,,0.0,0.0,
2025-08-15T00:58:42.629Z,2,GR86-040-3,25.200000000000003,-0.138,0.627,4.97,2.0,,0.0,0.0,
2025-08-15T00:58:42.672Z,2,GR86-040-3,22.3,-0.125,0.558,4.94,2.0,4992.0,0.0,0.0,
2025-08-15T00:58:42.715Z,2,GR86-040-3,19.6,-0.116,0.56,4.94,2.0,,0.0,0.0,89.73
2025-08-15T00:58:42.758Z,2,GR86-040-3,14.2,-0.129,0.459,4.91,2.0,,0.0,0.0,
2025-08-15T00:58:42.801Z,2,GR86-040-3,9.6,-0.123,0.392,4.91,2.0,,0.0,0.0,
2025-08-15T00:58:42.844Z,2,GR86-040-3,4.7,-0.122,0.313,4.9,2.0,,0.0,0.0,
2025-08-15T00:58:42.887Z,2,GR86-040-3,0.5,-0.128,0.247,4.92,2.0,4958.0,0.0,0.0,
2025-08-15T00:58:42.930Z,2,GR86-040-3,-2.9000000000000004,-0.123,0.158,4.9,2.0,,0.0,0.0,88.79
2025-08-15T00:58:42.973Z,2,GR86-040-3,-5.6000000000000005,-0.111,0.092,4.91,2.0,,0.0,0.0,
2025-08-15T00:58:43.018Z,2,GR86-040-3,-10.1,-0.118,0.004,5.41,2.0,,0.0,0.0,
2025-08-15T00:58:43.061Z,2,GR86-040-3,-13.4,-0.129,-0.083,6.38,2.0,,0.0,0.0,
2025-08-15T00:58:43.104Z,2,GR86-040-3,-16.5,-0.147,-0.128,7.7,2.0,4916.0,0.0,0.0,
2025-08-15T00:58:43.147Z,2,GR86-040-3,-19.5,-0.127,-0.221,9.55,2.0,,0.0,0.0,87.87
2025-08-15T00:58:43.190Z,2,GR86-040-3,-22.4,-0.104,-0.254,11.13,2.0,,0.0,0.0,
2025-08-15T00:58:43.233Z,2,GR86-040-3,-25.0,-0.086,-0.334,13.11,2.0,,0.0,0.0,
2025-08-15T00:58:43.278Z,2,GR86-040-3,-28.4,-0.098,-0.373,17.61,2.0,,0.0,0.0,
2025-08-15T00:58:43.321Z,2,GR86-040-3,-30.1,-0.144,-0.441,19.03,2.0,4909.0,0.0,0.0,
2025-08-15T00:58:43.364Z,2,GR86-040-3,-31.0,-0.144,-0.433,20.6,2.0,,0.0,0.0,87.07000000000001
2025-08-15T00:58:43.407Z,2,GR86-040-3,-31.0,-0.092,-0.514,20.75,2.0,,0.0,0.0,
2025-08-15T00:58:43.451Z,2,GR86-040-3,-31.0,-0.075,-0.474,20.89,2.0,,0.0,0.0,
2025-08-15T00:58:43.494Z,2,GR86-040-3,-31.1,-0.048,-0.554,21.12,2.0,,0.0,0.0,
2025-08-15T00:58:43.537Z,2,GR86-040-3,-31.0,0.254,-0.526,19.05,2.0,4895.0,0.0,0.0,
2025-08-15T00:58:43.581Z,2,GR86-040-3,-30.6,0.165,-0.5680000000000001,19.26,2.0,,0.0,0.0,86.47
2025-08-15T00:58:43.624Z,2,GR86-040-3,-29.0,0.029,-0.491,21.17,2.0,,0.0,0.0,
2025-08-15T00:58:43.668Z,2,GR86-040-3,-26.5,-0.047,-0.528,21.65,2.0,,0.0,0.0,
2025-08-15T00:58:43.711Z,2,GR86-040-3,-24.0,-0.002,-0.486,21.58,2.0,,0.0,0.0,
2025-08-15T00:58:43.754Z,2,GR86-040-3,-22.1,0.068,-0.503,20.97,2.0,4867.0,0.0,0.0,
2025-08-15T00:58:43.797Z,2,GR86-040-3,-19.5,0.123,-0.464,20.56,2.0,,0.0,0.0,85.99
2025-08-15T00:58:43.841Z,2,GR86-040-3,-17.5,0.102,-0.397,20.61,2.0,,0.0,0.0,
2025-08-15T00:58:43.884Z,2,GR86-040-3,-14.8,0.057,-0.372,20.75,2.0,,0.0,0.0,
2025-08-15T00:58:43.929Z,2,GR86-040-3,-12.0,0.055,-0.357,20.81,2.0,,0.0,0.0,
2025-08-15T00:58:43.972Z,2,GR86-040-3,-8.9,0.066,-0.292,20.75,2.0,5003.0,0.0,0.0,
2025-08-15T00:58:44.015Z,2,GR86-040-3,-5.5,0.087,-0.265,20.65,2.0,,0.0,0.0,86.51
2025-08-15T00:58:44.061Z,2,GR86-040-3,-0.7000000000000001,0.089,-0.192,20.65,2.0,,0.0,0.0,
2025-08-15T00:58:44.104Z,2,GR86-040-3,2.2,0.084,-0.124,20.61,2.0,,0.0,0.0,
2025-08-15T00:58:44.147Z,2,GR86-040-3,5.4,0.075,-0.09,20.55,2.0,,0.0,0.0,
2025-08-15T00:58:44.190Z,2,GR86-040-3,8.9,0.074,-0.034,20.27,2.0,5009.0,0.0,0.0,
2025-08-15T00:58:44.233Z,2,GR86-040-3,12.7,0.076,0.019,19.99,2.0,,0.0,0.0,87.8
2025-08-15T00:58:44.278Z,2,GR86-040-3,18.1,0.069,0.121,19.85,2.0,,0.0,0.0,
2025-08-15T00:58:44.321Z,2,GR86-040-3,20.9,0.068,0.17,19.76,2.0,,0.0,0.0,
2025-08-15T00:58:44.364Z,2,GR86-040-3,22.9,0.065,0.227,19.47,2.0,,0.0,0.0,
2025-08-15T00:58:44.408Z,2,GR86-040-3,23.8,0.065,0.265,19.05,2.0,5026.0,0.0,0.0,
2025-08-15T00:58:44.451Z,2,GR86-040-3,23.8,0.057,0.309,18.6,2.0,,0.0,0.0,88.47
2025-08-15T00:58:44.494Z,2,GR86-040-3,23.8,0.057,0.328,17.75,2.0,,0.0,0.0,
2025-08-15T00:58:44.537Z,2,GR86-040-3,22.1,0.055,0.369,12.31,2.0,,0.0,0.0,
2025-08-15T00:58:44.580Z,2,GR86-040-3,20.700000000000003,0.047,0.352,7.82,2.0,,0.0,0.0,
2025-08-15T00:58:44.623Z,2,GR86-040-3,19.6,0.018,0.369,7.81,2.0,5068.0,0.0,0.0,
2025-08-15T00:58:44.668Z,2,GR86-040-3,18.9,-0.019,0.351,7.930000000000001,2.0,,0.0,0.0,89.04
2025-08-15T00:58:44.711Z,2,GR86-040-3,18.0,-0.049,0.355,8.35,2.0,,0.0,0.0,
2025-08-15T00:58:44.754Z,2,GR86-040-3,16.3,-0.055,0.325,8.88,2.0,,0.0,0.0,
2025-08-15T00:58:44.797Z,2,GR86-040-3,11.9,-0.058,0.307,11.72,2.0,,0.0,0.0,
2025-08-15T00:58:44.841Z,2,GR86-040-3,8.6,-0.199,0.277,17.34,2.0,4892.0,0.0,0.0,
2025-08-15T00:58:44.884Z,2,GR86-040-3,6.2,-0.201,0.24,17.990000000000002,2.0,,0.0,0.0,89.36
2025-08-15T00:58:44.930Z,2,GR86-040-3,4.9,-0.147,0.196,18.02,2.0,,0.0,0.0,
2025-08-15T00:58:44.973Z,2,GR86-040-3,4.6000000000000005,-0.039,0.153,18.05,2.0,,0.0,0.0,
2025-08-15T00:58:45.018Z,2,GR86-040-3,4.6000000000000005,-0.058,0.146,18.18,2.0,,0.0,0.0,
2025-08-15T00:58:45.061Z,2,GR86-040-3,4.4,0.059,0.091,17.42,2.0,5115.0,0.0,0.0,
2025-08-15T00:58:45.104Z,2,GR86-040-3,3.6,0.203,0.081,15.86,2.0,,0.0,0.0,88.85000000000001
2025-08-15T00:58:45.147Z,2,GR86-040-3,3.0,0.123,0.051,16.68,2.0,,0.0,0.0,
2025-08-15T00:58:45.190Z,2,GR86-040-3,2.9000000000000004,-0.012,0.055,18.04,2.0,,0.0,0.0,
2025-08-15T00:58:45.233Z,2,GR86-040-3,2.9000000000000004,-0.057,0.033,18.63,2.0,,0.0,0.0,
2025-08-15T00:58:45.277Z,2,GR86-040-3,2.5,-0.031,0.03,18.89,2.0,4925.0,0.0,0.0,
2025-08-15T00:58:45.320Z,2,GR86-040-3,2.4000000000000004,0.075,0.01,18.83,2.0,,0.0,0.0,88.41
2025-08-15T00:58:45.363Z,2,GR86-040-3,2.4000000000000004,0.101,0.018,18.64,2.0,,0.0,0.0,
2025-08-15T00:58:45.408Z,2,GR86-040-3,2.4000000000000004,0.076,0.002,18.59,2.0,,0.0,0.0,
2025-08-15T00:58:45.451Z,2,GR86-040-3,2.4000000000000004,0.029,0.023,18.6,2.0,,0.0,0.0,
2025-08-15T00:58:45.494Z,2,GR86-040-3,2.3000000000000003,0.019,0.011,18.63,2.0,5042.0,0.0,0.0,
2025-08-15T00:58:45.538Z,2,GR86-040-3,2.3000000000000003,0.045,0.016,18.59,2.0,,0.0,0.0,88.71000000000001
2025-08-15T00:58:45.581Z,2,GR86-040-3,2.3000000000000003,0.059,0.013,18.48,2.0,,0.0,0.0,
2025-08-15T00:58:45.624Z,2,GR86-040-3,2.3000000000000003,0.051,0.014,18.33,2.0,,0.0,0.0,
2025-08-15T00:58:45.667Z,2,GR86-040-3,2.5,0.043,0.011,18.31,2.0,,0.0,0.0,
2025-08-15T00:58:45.711Z,2,GR86-040-3,3.5,0.041,0.026,18.31,2.0,5086.0,0.0,0.0,
2025-08-15T00:58:45.754Z,2,GR86-040-3,3.7,0.044,0.022,18.28,2.0,,0.0,0.0,89.05
2025-08-15T00:58:45.797Z,2,GR86-040-3,3.7,0.039,0.028,18.09,2.0,,0.0,0.0,
2025-08-15T00:58:45.841Z,2,GR86-040-3,3.7,0.033,0.037,18.02,2.0,,0.0,0.0,
2025-08-15T00:58:45.884Z,2,GR86-040-3,3.7,0.044,0.031,17.26,2.0,,0.0,0.0,
2025-08-15T00:58:45.929Z,2,GR86-040-3,3.7,0.034,0.045,16.79,2.0,5098.0,0.0,0.0,
2025-08-15T00:58:45.972Z,2,GR86-040-3,3.7,0.034,0.038,16.28,2.0,,0.0,0.0,89.4
2025-08-15T00:58:46.015Z,2,GR86-040-3,3.7,0.023,0.047,15.91,2.0,,0.0,0.0,
2025-08-15T00:58:46.058Z,2,GR86-040-3,3.7,0.011,0.05,15.53,2.0,,0.0,0.0,
2025-08-15T00:58:46.101Z,2,GR86-040-3,3.7,0.011,0.043,15.72,2.0,,0.0,0.0,
2025-08-15T00:58:46.144Z,2,GR86-040-3,3.7,0.001,0.044,15.95,2.0,5102.0,0.0,0.0,
2025-08-15T00:58:46.187Z,2,GR86-040-3,3.7,-0.001,0.028,16.17,2.0,,0.0,0.0,89.74
2025-08-15T00:58:46.230Z,2,GR86-040-3,3.7,-0.011,0.034,16.37,2.0,,0.0,0.0,
2025-08-15T00:58:46.273Z,2,GR86-040-3,3.7,-0.008,0.035,16.73,2.0,,0.0,0.0,
2025-08-15T00:58:46.318Z,2,GR86-040-3,2.8000000000000003,0.001,0.044,17.0,2.0,,0.0,0.0,
2025-08-15T00:58:46.404Z,2,GR86-040-3,2.5,0.012,0.037,17.23,2.0,5100.0,0.0,0.0,90.03
2025-08-15T00:58:46.447Z,2,GR86-040-3,2.5,0.01,0.019,17.26,2.0,,0.0,0.0,
2025-08-15T00:58:46.490Z,2,GR86-040-3,2.5,0.015,0.028,17.28,2.0,,0.0,0.0,
2025-08-15T00:58:46.533Z,2,GR86-040-3,2.5,0.025,0.01,17.3,2.0,,0.0,0.0,
2025-08-15T00:58:46.578Z,2,GR86-040-3,2.5,0.038,0.021,17.13,2.0,5109.0,0.0,0.0,
2025-08-15T00:58:46.621Z,2,GR86-040-3,2.5,0.034,0.015,16.85,2.0,,0.0,0.0,90.13
2025-08-15T00:58:46.664Z,2,GR86-040-3,2.5,0.024,0.024,16.77,2.0,,0.0,0.0,
2025-08-15T00:58:46.707Z,2,GR86-040-3,2.5,0.02,0.017,16.7,2.0,,0.0,0.0,
2025-08-15T00:58:46.751Z,2,GR86-040-3,2.5,0.016,0.023,16.69,2.0,,0.0,0.0,
2025-08-15T00:58:46.794Z,2,GR86-040-3,2.5,0.015,0.013,16.53,2.0,5123.0,0.0,0.0,
2025-08-15T00:58:46.837Z,2,GR86-040-3,2.5,0.023,0.015,15.84,2.0,,0.0,0.0,90.3
2025-08-15T00:58:46.881Z,2,GR86-040-3,2.5,0.017,0.032,15.69,2.0,,0.0,0.0,
2025-08-15T00:58:46.924Z,2,GR86-040-3,2.5,0.02,0.018,15.64,2.0,,0.0,0.0,
2025-08-15T00:58:46.968Z,2,GR86-040-3,2.5,0.005,0.018,15.82,2.0,,0.0,0.0,
2025-08-15T00:58:47.011Z,2,GR86-040-3,2.3000000000000003,-0.007,0.002,16.04,2.0,5135.0,0.0,0.0,
2025-08-15T00:58:47.054Z,2,GR86-040-3,1.6,-0.026,0.017,16.67,2.0,,0.0,0.0,90.48
2025-08-15T00:58:47.097Z,2,GR86-040-3,0.9,-0.012,-0.012,16.82,2.0,,0.0,0.0,
2025-08-15T00:58:47.140Z,2,GR86-040-3,0.9,0.008,-0.01,16.64,2.0,,0.0,0.0,
2025-08-15T00:58:47.183Z,2,GR86-040-3,0.9,0.013,-0.011,16.37,2.0,,0.0,0.0,
2025-08-15T00:58:47.226Z,2,GR86-040-3,0.9,0.006,0.0,16.19,2.0,5139.0,0.0,0.0,
2025-08-15T00:58:47.272Z,2,GR86-040-3,0.9,0.002,-0.01,16.05,2.0,,0.0,0.0,90.6
2025-08-15T00:58:47.315Z,2,GR86-040-3,0.9,0.0,0.004,16.14,2.0,,0.0,0.0,
2025-08-15T00:58:47.358Z,2,GR86-040-3,0.9,0.001,-0.004,16.5,2.0,,0.0,0.0,
2025-08-15T00:58:47.401Z,2,GR86-040-3,0.9,-0.005,-0.011,16.73,2.0,,0.0,0.0,
2025-08-15T00:58:47.444Z,2,GR86-040-3,0.9,-0.018,-0.009,16.95,2.0,5132.0,0.0,0.0,
2025-08-15T00:58:47.488Z,2,GR86-040-3,0.8,-0.007,-0.016,17.06,2.0,,0.0,0.0,90.57
2025-08-15T00:58:47.531Z,2,GR86-040-3,0.8,-0.002,-0.017,17.13,2.0,,0.0,0.0,
2025-08-15T00:58:47.574Z,2,GR86-040-3,0.3,0.016,-0.017,17.2,2.0,,0.0,0.0,
2025-08-15T00:58:47.618Z,2,GR86-040-3,-0.9,0.012,-0.017,17.2,2.0,,0.0,0.0,
2025-08-15T00:58:47.661Z,2,GR86-040-3,-1.0,0.022,-0.026,17.23,2.0,5153.0,0.0,0.0,
2025-08-15T00:58:47.704Z,2,GR86-040-3,-1.0,0.011,-0.028,17.43,2.0,,0.0,0.0,90.63
2025-08-15T00:58:47.747Z,2,GR86-040-3,-1.0,0.015,-0.033,17.54,2.0,,0.0,0.0,
2025-08-15T00:58:47.791Z,2,GR86-040-3,-1.0,0.01,-0.025,17.63,2.0,,0.0,0.0,
2025-08-15T00:58:47.834Z,2,GR86-040-3,-1.0,0.017,-0.041,17.71,2.0,,0.0,0.0,
2025-08-15T00:58:47.878Z,2,GR86-040-3,-1.0,0.026,-0.036,17.78,2.0,5163.0,0.0,0.0,
2025-08-15T00:58:47.921Z,2,GR86-040-3,-1.0,0.021,-0.025,18.03,2.0,,0.0,0.0,90.74
2025-08-15T00:58:47.964Z,2,GR86-040-3,-1.0,0.02,-0.034,18.34,2.0,,0.0,0.0,
2025-08-15T00:58:48.008Z,2,GR86-040-3,-1.0,0.029,-0.03,18.41,2.0,,0.0,0.0,
2025-08-15T00:58:48.051Z,2,GR86-040-3,-1.0,0.033,-0.039,18.44,2.0,,0.0,0.0,
2025-08-15T00:58:48.094Z,2,GR86-040-3,-1.0,0.035,-0.043,18.48,2.0,5174.0,0.0,0.0,
2025-08-15T00:58:48.137Z,2,GR86-040-3,-1.0,0.034,-0.041,18.48,2.0,,0.0,0.0,90.89
2025-08-15T00:58:48.181Z,2,GR86-040-3,-1.0,0.022,-0.036,18.48,2.0,,0.0,0.0,
2025-08-15T00:58:48.224Z,2,GR86-040-3,-1.0,0.042,-0.043,18.48,2.0,,0.0,0.0,
2025-08-15T00:58:48.268Z,2,GR86-040-3,-1.0,0.033,-0.034,18.48,2.0,,0.0,0.0,
2025-08-15T00:58:48.311Z,2,GR86-040-3,-1.0,0.028,-0.039,18.5,2.0,5191.0,0.0,0.0,
2025-08-15T00:58:48.354Z,2,GR86-040-3,-1.0,0.026,-0.034,18.63,2.0,,0.0,0.0,91.15
2025-08-15T00:58:48.398Z,2,GR86-040-3,-0.9,0.034,-0.021,18.73,2.0,,0.0,0.0,
2025-08-15T00:58:48.441Z,2,GR86-040-3,-0.7000000000000001,0.039,-0.027,18.83,2.0,,0.0,0.0,
2025-08-15T00:58:48.484Z,2,GR86-040-3,-0.7000000000000001,0.041,-0.028,19.04,2.0,,0.0,0.0,
2025-08-15T00:58:48.529Z,2,GR86-040-3,-0.7000000000000001,0.037,-0.024,20.59,2.0,5210.0,0.0,0.0,
2025-08-15T00:58:48.573Z,2,GR86-040-3,-0.6000000000000001,0.037,-0.029,21.68,2.0,,0.0,0.0,91.43
2025-08-15T00:58:48.618Z,2,GR86-040-3,-0.5,0.05,-0.028,22.22,2.0,,0.0,0.0,
2025-08-15T00:58:48.661Z,2,GR86-040-3,-0.5,0.063,-0.024,22.25,2.0,,0.0,0.0,
2025-08-15T00:58:48.704Z,2,GR86-040-3,-0.5,0.091,-0.028,22.26,2.0,,0.0,0.0,
2025-08-15T00:58:48.747Z,2,GR86-040-3,-0.5,0.098,-0.024,22.26,2.0,5228.0,0.0,0.0,
2025-08-15T00:58:48.790Z,2,GR86-040-3,-0.5,0.095,-0.023,22.25,2.0,,0.0,0.0,91.71
2025-08-15T00:58:48.833Z,2,GR86-040-3,-0.5,0.082,-0.025,23.17,2.0,,0.0,0.0,
2025-08-15T00:58:48.876Z,2,GR86-040-3,0.5,0.083,-0.021,26.95,2.0,,0.0,0.0,
2025-08-15T00:58:48.963Z,2,GR86-040-3,1.3,0.086,-0.022,29.94,2.0,5268.0,0.0,0.0,
2025-08-15T00:58:49.008Z,2,GR86-040-3,1.5,0.135,-0.012,39.92,2.0,,0.0,0.0,92.09
2025-08-15T00:58:49.051Z,2,GR86-040-3,1.5,0.176,-0.009,47.64,2.0,,0.0,0.0,
2025-08-15T00:58:49.094Z,2,GR86-040-3,1.5,0.213,-0.005,59.3,2.0,,0.0,0.0,
2025-08-15T00:58:49.138Z,2,GR86-040-3,1.5,0.243,0.004,99.53,2.0,,0.0,0.0,
2025-08-15T00:58:49.181Z,2,GR86-040-3,1.5,0.259,0.014,99.93,2.0,5351.0,0.0,0.0,
2025-08-15T00:58:49.224Z,2,GR86-040-3,1.5,0.275,0.007,99.92,2.0,,0.0,0.0,93.73
2025-08-15T00:58:49.267Z,2,GR86-040-3,1.5,0.289,0.021,99.94,2.0,,0.0,0.0,
2025-08-15T00:58:49.311Z,2,GR86-040-3,1.5,0.268,0.03,99.92,2.0,,0.0,0.0,
2025-08-15T00:58:49.354Z,2,GR86-040-3,1.5,0.252,0.022,99.93,2.0,,0.0,0.0,
2025-08-15T00:58:49.398Z,2,GR86-040-3,1.5,0.274,0.029,99.91,2.0,5460.0,0.0,0.0,
2025-08-15T00:58:49.441Z,2,GR86-040-3,1.5,0.277,0.022,99.93,2.0,,0.0,0.0,95.42
2025-08-15T00:58:49.484Z,2,GR86-040-3,1.5,0.285,0.031,99.92,2.0,,0.0,0.0,
2025-08-15T00:58:49.530Z,2,GR86-040-3,1.5,0.268,0.017,99.93,2.0,,0.0,0.0,
2025-08-15T00:58:49.573Z,2,GR86-040-3,1.5,0.256,0.023,99.93,2.0,,0.0,0.0,
2025-08-15T00:58:49.618Z,2,GR86-040-3,1.5,0.265,0.016,99.93,2.0,5677.0,0.0,0.0,
2025-08-15T00:58:49.661Z,2,GR86-040-3,1.5,0.274,0.015,99.92,2.0,,0.0,0.0,97.33
2025-08-15T00:58:49.704Z,2,GR86-040-3,1.4,0.283,0.01,99.94,2.0,,0.0,0.0,
2025-08-15T00:58:49.747Z,2,GR86-040-3,0.8,0.274,0.012,99.93,2.0,,0.0,0.0,
2025-08-15T00:58:49.790Z,2,GR86-040-3,0.5,0.259,0.012,99.9,2.0,,0.0,0.0,
2025-08-15T00:58:49.833Z,2,GR86-040-3,0.5,0.263,0.01,99.94,2.0,5778.0,0.0,0.0,
2025-08-15T00:58:49.878Z,2,GR86-040-3,0.5,0.266,-0.002,99.94,2.0,,0.0,0.0,99.26
2025-08-15T00:58:49.921Z,2,GR86-040-3,0.5,0.271,0.0,99.94,2.0,,0.0,0.0,
2025-08-15T00:58:49.964Z,2,GR86-040-3,0.5,0.276,-0.009,99.93,2.0,,0.0,0.0,
2025-08-15T00:58:50.008Z,2,GR86-040-3,0.5,0.257,-0.01,99.93,2.0,,0.0,0.0,
2025-08-15T00:58:50.051Z,2,GR86-040-3,0.1,0.268,-0.007,99.93,2.0,5890.0,0.0,0.0,
2025-08-15T00:58:50.094Z,2,GR86-040-3,-1.2000000000000002,0.243,-0.014,99.94,2.0,,0.0,0.0,101.2
2025-08-15T00:58:50.137Z,2,GR86-040-3,-2.4000000000000004,0.244,-0.021,99.93,2.0,,0.0,0.0,
2025-08-15T00:58:50.181Z,2,GR86-040-3,-2.4000000000000004,0.273,-0.041,99.93,2.0,,0.0,0.0,
2025-08-15T00:58:50.224Z,2,GR86-040-3,-2.4000000000000004,0.247,-0.043,99.93,2.0,,0.0,0.0,
2025-08-15T00:58:50.268Z,2,GR86-040-3,-1.8,0.284,-0.05,99.93,2.0,6006.0,0.0,0.0,
2025-08-15T00:58:50.311Z,2,GR86-040-3,-1.5,0.24,-0.056,99.93,2.0,,0.0,0.0,103.1
2025-08-15T00:58:50.354Z,2,GR86-040-3,-1.4,0.257,-0.047,99.93,2.0,,0.0,0.0,
2025-08-15T00:58:50.398Z,2,GR86-040-3,-1.4,0.281,-0.051,99.94,2.0,,0.0,0.0,
2025-08-15T00:58:50.441Z,2,GR86-040-3,-1.4,0.249,-0.063,99.94,2.0,,0.0,0.0,
2025-08-15T00:58:50.484Z,2,GR86-040-3,-1.4,0.253,-0.051,99.93,2.0,6113.0,0.0,0.0,
2025-08-15T00:58:50.529Z,2,GR86-040-3,-1.4,0.254,-0.058,99.94,2.0,,0.0,0.0,104.95
2025-08-15T00:58:50.572Z,2,GR86-040-3,-1.4,0.244,-0.057,99.94,2.0,,0.0,0.0,
2025-08-15T00:58:50.615Z,2,GR86-040-3,-1.4,0.28,-0.05,99.93,2.0,,0.0,0.0,
2025-08-15T00:58:50.658Z,2,GR86-040-3,-1.4,0.268,-0.044,99.93,2.0,,0.0,0.0,
2025-08-15T00:58:50.701Z,2,GR86-040-3,-1.4,0.235,-0.05,99.95,2.0,6212.0,0.0,0.0,
2025-08-15T00:58:50.744Z,2,GR86-040-3,-1.0,0.268,-0.038,99.95,2.0,,0.0,0.0,106.84
2025-08-15T00:58:50.787Z,2,GR86-040-3,-0.5,0.255,-0.049,99.94,2.0,,0.0,0.0,
2025-08-15T00:58:50.831Z,2,GR86-040-3,-0.5,0.246,-0.045,99.93,2.0,,0.0,0.0,
2025-08-15T00:58:50.874Z,2,GR86-040-3,-0.5,0.263,-0.055,99.95,2.0,,0.0,0.0,
2025-08-15T00:58:50.918Z,2,GR86-040-3,-0.5,0.253,-0.052,99.94,2.0,6319.0,0.0,0.0,
2025-08-15T00:58:50.961Z,2,GR86-040-3,-0.5,0.241,-0.046,99.94,2.0,,0.0,0.0,108.6
2025-08-15T00:58:51.004Z,2,GR86-040-3,-0.5,0.269,-0.039,99.96,2.0,,0.0,0.0,
2025-08-15T00:58:51.047Z,2,GR86-040-3,-0.5,0.244,-0.052,99.93,2.0,,0.0,0.0,
2025-08-15T00:58:51.091Z,2,GR86-040-3,-0.5,0.258,-0.038,99.94,2.0,,0.0,0.0,
2025-08-15T00:58:51.134Z,2,GR86-040-3,-0.4,0.279,-0.033,99.96,2.0,6421.0,0.0,0.0,
2025-08-15T00:58:51.178Z,2,GR86-040-3,-0.4,0.26,-0.036,99.93,2.0,,0.0,0.0,110.42
2025-08-15T00:58:51.221Z,2,GR86-040-3,0.0,0.242,-0.033,99.93,2.0,,0.0,0.0,
2025-08-15T00:58:51.264Z,2,GR86-040-3,0.3,0.272,-0.019,99.94,2.0,,0.0,0.0,
2025-08-15T00:58:51.308Z,2,GR86-040-3,0.4,0.24,-0.027,99.94,2.0,,0.0,0.0,
2025-08-15T00:58:51.351Z,2,GR86-040-3,0.4,0.036,-0.015,99.95,2.0,6526.0,0.0,0.0,
2025-08-15T00:58:51.394Z,2,GR86-040-3,0.4,-0.086,0.028,99.94,3.0,,0.0,0.0,112.2
2025-08-15T00:58:51.437Z,2,GR86-040-3,0.4,0.643,-0.068,99.97,3.0,,0.0,0.0,
2025-08-15T00:58:51.481Z,2,GR86-040-3,0.4,0.222,-0.049,99.96,3.0,,0.0,0.0,
2025-08-15T00:58:51.524Z,2,GR86-040-3,0.4,0.389,0.023,99.93,3.0,,0.0,0.0,
2025-08-15T00:58:51.568Z,2,GR86-040-3,0.4,0.281,-0.048,99.95,3.0,6121.0,0.0,0.0,
2025-08-15T00:58:51.611Z,2,GR86-040-3,0.4,0.108,-0.047,99.96,3.0,,0.0,0.0,114.0
2025-08-15T00:58:51.654Z,2,GR86-040-3,0.4,0.131,0.025,99.94,3.0,,0.0,0.0,
2025-08-15T00:58:51.697Z,2,GR86-040-3,0.4,0.259,-0.046,32.79,3.0,,0.0,0.0,
2025-08-15T00:58:51.741Z,2,GR86-040-3,0.4,0.232,0.016,12.54,3.0,,2.795,3.1,
2025-08-15T00:58:51.784Z,2,GR86-040-3,0.4,0.127,-0.032,5.28,3.0,5327.0,4.12,4.305,
2025-08-15T00:58:51.829Z,2,GR86-040-3,0.4,-0.007,-0.023,4.97,3.0,,7.265000000000001,7.46,117.17
2025-08-15T00:58:51.872Z,2,GR86-040-3,0.4,-0.222,0.021,4.67,3.0,,10.925,11.31,
2025-08-15T00:58:51.958Z,2,GR86-040-3,0.4,-0.396,-0.028,4.2700000000000005,3.0,,13.61,13.64,
2025-08-15T00:58:52.001Z,2,GR86-040-3,0.8,-0.324,-0.02,3.13,3.0,5416.0,16.315,16.740000000000002,
2025-08-15T00:58:52.044Z,2,GR86-040-3,1.8,-0.319,-0.056,2.95,3.0,,15.78,16.085,117.17
2025-08-15T00:58:52.087Z,2,GR86-040-3,2.1,-0.365,0.003,2.85,3.0,,16.8,17.09,
2025-08-15T00:58:52.130Z,2,GR86-040-3,2.1,-0.394,-0.052,2.78,3.0,,18.295,18.86,
2025-08-15T00:58:52.173Z,2,GR86-040-3,2.1,-0.423,-0.027,2.71,3.0,,20.235,20.265,
2025-08-15T00:58:52.218Z,2,GR86-040-3,2.1,-0.446,-0.037,2.67,3.0,5196.0,23.53,23.56,
2025-08-15T00:58:52.261Z,2,GR86-040-3,2.1,-0.468,-0.044,2.62,3.0,,25.395,25.865,114.72
2025-08-15T00:58:52.304Z,2,GR86-040-3,2.1,-0.493,-0.018,2.6,3.0,,26.63,26.505,
2025-08-15T00:58:52.347Z,2,GR86-040-3,2.1,-0.54,-0.03,2.57,3.0,,27.925,28.305,
2025-08-15T00:58:52.390Z,2,GR86-040-3,2.1,-0.527,-0.02,2.5500000000000003,3.0,,29.085,29.53,
2025-08-15T00:58:52.433Z,2,GR86-040-3,2.2,-0.5690000000000001,-0.006,2.5500000000000003,3.0,5016.0,30.015,30.045,
2025-08-15T00:58:52.477Z,2,GR86-040-3,2.2,-0.608,-0.016,2.5500000000000003,3.0,,31.71,32.105000000000004,111.56
2025-08-15T00:58:52.520Z,2,GR86-040-3,2.2,-0.591,-0.013,2.53,3.0,,32.84,33.405,
2025-08-15T00:58:52.563Z,2,GR86-040-3,2.2,-0.618,-0.006,2.53,3.0,,32.96,33.19,
2025-08-15T00:58:52.608Z,2,GR86-040-3,2.2,-0.606,-0.019,2.51,3.0,,33.465,34.215,
2025-08-15T00:58:52.651Z,2,GR86-040-3,2.2,-0.596,-0.004,2.75,3.0,4805.0,32.595,32.78,
2025-08-15T00:58:52.694Z,2,GR86-040-3,2.2,-0.622,-0.022,41.68,3.0,,31.42,32.445,107.65
2025-08-15T00:58:52.738Z,2,GR86-040-3,2.2,-0.47,-0.015,95.26,2.0,,16.315,17.580000000000002,
2025-08-15T00:58:52.781Z,2,GR86-040-3,2.2,-0.362,-0.019,37.04,2.0,,6.575,7.325,
2025-08-15T00:58:52.824Z,2,GR86-040-3,2.2,-0.483,-0.019,3.99,2.0,,0.0,0.0,
2025-08-15T00:58:52.867Z,2,GR86-040-3,2.2,-0.347,0.059,2.78,2.0,4778.0,0.0,0.0,
2025-08-15T00:58:52.910Z,2,GR86-040-3,2.2,-0.338,-0.11,2.65,2.0,,0.0,0.0,103.64
2025-08-15T00:58:52.953Z,2,GR86-040-3,2.2,-0.288,-0.015,2.59,2.0,,0.0,0.0,
2025-08-15T00:58:52.997Z,2,GR86-040-3,2.2,-0.116,-0.094,2.5500000000000003,2.0,,0.0,0.0,
2025-08-15T00:58:53.041Z,2,GR86-040-3,2.2,-0.077,-0.062,2.54,2.0,,0.0,0.0,
2025-08-15T00:58:53.084Z,2,GR86-040-3,2.2,-0.117,0.083,2.51,2.0,5737.0,0.0,0.0,
2025-08-15T00:58:53.130Z,2,GR86-040-3,2.2,-0.164,-0.071,2.51,2.0,,0.0,0.0,101.75
2025-08-15T00:58:53.173Z,2,GR86-040-3,2.2,-0.19,0.023,2.51,2.0,,0.0,0.0,
2025-08-15T00:58:53.218Z,2,GR86-040-3,2.2,-0.163,-0.023,2.52,2.0,,0.0,0.0,
2025-08-15T00:58:53.261Z,2,GR86-040-3,2.2,-0.127,0.021,2.52,2.0,,0.0,0.0,
2025-08-15T00:58:53.304Z,2,GR86-040-3,2.2,-0.15,0.024,2.51,2.0,5593.0,0.0,0.0,
2025-08-15T00:58:53.347Z,2,GR86-040-3,2.2,-0.148,0.019,2.51,2.0,,0.0,0.0,100.29
2025-08-15T00:58:53.390Z,2,GR86-040-3,2.2,-0.157,0.003,2.51,2.0,,0.0,0.0,
2025-08-15T00:58:53.433Z,2,GR86-040-3,2.2,-0.165,0.034,2.52,2.0,,0.0,0.0,
2025-08-15T00:58:53.478Z,2,GR86-040-3,2.2,-0.148,0.017,2.52,2.0,,0.0,0.0,
2025-08-15T00:58:53.521Z,2,GR86-040-3,2.2,-0.152,0.019,2.52,2.0,5542.0,0.0,0.0,
2025-08-15T00:58:53.564Z,2,GR86-040-3,2.2,-0.138,0.031,2.52,2.0,,0.0,0.0,99.32
2025-08-15T00:58:53.607Z,2,GR86-040-3,2.2,-0.142,-0.001,2.51,2.0,,0.0,0.0,
2025-08-15T00:58:53.651Z,2,GR86-040-3,2.2,-0.15,0.041,2.51,2.0,,0.0,0.0,
2025-08-15T00:58:53.694Z,2,GR86-040-3,2.2,-0.166,0.002,2.51,2.0,,0.0,0.0,
2025-08-15T00:58:53.737Z,2,GR86-040-3,2.2,-0.152,0.01,2.52,2.0,5486.0,0.0,0.0,
2025-08-15T00:58:53.781Z,2,GR86-040-3,2.2,-0.137,0.031,2.51,2.0,,0.0,0.0,98.38
2025-08-15T00:58:53.824Z,2,GR86-040-3,2.2,-0.146,0.003,2.51,2.0,,0.0,0.0,
2025-08-15T00:58:53.868Z,2,GR86-040-3,2.2,-0.143,0.038,2.52,2.0,,0.0,0.0,
2025-08-15T00:58:53.911Z,2,GR86-040-3,1.1,-0.157,0.0,2.51,2.0,,0.0,0.0,
2025-08-15T00:58:53.954Z,2,GR86-040-3,0.5,-0.156,0.029,2.52,2.0,5444.0,0.0,0.0,
2025-08-15T00:58:53.997Z,2,GR86-040-3,0.3,-0.137,-0.005,2.51,2.0,,0.0,0.0,97.48
2025-08-15T00:58:54.041Z,2,GR86-040-3,0.3,-0.144,-0.016,2.51,2.0,,0.0,0.0,
2025-08-15T00:58:54.084Z,2,GR86-040-3,0.3,-0.138,-0.01,2.5,2.0,,0.0,0.0,
2025-08-15T00:58:54.129Z,2,GR86-040-3,0.2,-0.152,-0.036,2.51,2.0,,0.0,0.0,
2025-08-15T00:58:54.172Z,2,GR86-040-3,-0.1,-0.155,-0.015,2.5,2.0,5400.0,0.0,0.0,
2025-08-15T00:58:54.215Z,2,GR86-040-3,-0.7000000000000001,-0.148,-0.043,2.5,2.0,,0.0,0.0,96.62
2025-08-15T00:58:54.258Z,2,GR86-040-3,-1.5,-0.141,-0.023,2.5,2.0,,0.0,0.0,
2025-08-15T00:58:54.301Z,2,GR86-040-3,-1.5,-0.141,-0.043,2.5,2.0,,0.0,0.0,
2025-08-15T00:58:54.344Z,2,GR86-040-3,-1.5,-0.148,-0.044,2.5,2.0,,0.0,0.0,
2025-08-15T00:58:54.387Z,2,GR86-040-3,-1.9,-0.151,-0.044,2.49,2.0,5345.0,0.0,0.0,
2025-08-15T00:58:54.431Z,2,GR86-040-3,-2.7,-0.153,-0.052,2.5,2.0,,0.0,0.0,94.81
2025-08-15T00:58:54.474Z,2,GR86-040-3,-3.5,-0.145,-0.046,2.49,2.0,,0.0,0.0,
2025-08-15T00:58:54.518Z,2,GR86-040-3,-4.5,-0.144,-0.075,2.5,2.0,,0.0,0.0,
2025-08-15T00:58:54.561Z,2,GR86-040-3,-5.4,-0.129,-0.056,2.5,2.0,,0.0,0.0,
2025-08-15T00:58:54.604Z,2,GR86-040-3,-7.1000000000000005,-0.149,-0.099,2.49,2.0,5293.0,0.0,0.0,
2025-08-15T00:58:54.647Z,2,GR86-040-3,-8.8,-0.162,-0.094,2.69,2.0,,0.0,0.0,93.92
2025-08-15T00:58:54.691Z,2,GR86-040-3,-11.0,-0.178,-0.156,3.52,2.0,,0.0,0.0,
2025-08-15T00:58:54.734Z,2,GR86-040-3,-13.5,-0.162,-0.15,4.39,2.0,,0.0,0.0,
2025-08-15T00:58:54.778Z,2,GR86-040-3,-18.5,-0.138,-0.201,4.67,2.0,,0.0,0.0,
2025-08-15T00:58:54.821Z,2,GR86-040-3,-22.4,-0.145,-0.256,7.24,2.0,5219.0,0.0,0.0,
2025-08-15T00:58:54.864Z,2,GR86-040-3,-26.200000000000003,-0.143,-0.287,12.53,2.0,,0.0,0.0,93.18
2025-08-15T00:58:54.908Z,2,GR86-040-3,-29.8,-0.152,-0.368,18.88,2.0,,0.0,0.0,
2025-08-15T00:58:54.951Z,2,GR86-040-3,-32.4,-0.117,-0.394,21.11,2.0,,0.0,0.0,
2025-08-15T00:58:54.994Z,2,GR86-040-3,-34.0,-0.116,-0.473,21.3,2.0,,0.0,0.0,
2025-08-15T00:58:55.037Z,2,GR86-040-3,-34.7,-0.13,-0.504,21.55,2.0,5173.0,0.0,0.0,
2025-08-15T00:58:55.080Z,2,GR86-040-3,-34.7,-0.072,-0.5750000000000001,21.68,2.0,,0.0,0.0,92.28
2025-08-15T00:58:55.123Z,2,GR86-040-3,-34.7,-0.085,-0.582,22.65,2.0,,0.0,0.0,
2025-08-15T00:58:55.168Z,2,GR86-040-3,-34.800000000000004,0.172,-0.616,22.71,2.0,,0.0,0.0,
2025-08-15T00:58:55.211Z,2,GR86-040-3,-35.0,0.223,-0.643,22.75,2.0,,0.0,0.0,
2025-08-15T00:58:55.254Z,2,GR86-040-3,-35.9,0.109,-0.639,23.87,2.0,5359.0,0.0,0.0,
2025-08-15T00:58:55.297Z,2,GR86-040-3,-38.2,-0.021,-0.67,26.6,2.0,,0.0,0.0,91.97
2025-08-15T00:58:55.341Z,2,GR86-040-3,-39.6,0.018,-0.643,26.74,2.0,,0.0,0.0,
2025-08-15T00:58:55.384Z,2,GR86-040-3,-41.0,0.077,-0.676,26.76,2.0,,0.0,0.0,
2025-08-15T00:58:55.429Z,2,GR86-040-3,-41.8,0.129,-0.662,26.77,2.0,,0.0,0.0,
2025-08-15T00:58:55.472Z,2,GR86-040-3,-42.0,0.122,-0.663,26.77,2.0,5369.0,0.0,0.0,
2025-08-15T00:58:55.515Z,2,GR86-040-3,-42.0,0.104,-0.616,26.74,2.0,,0.0,0.0,93.05
2025-08-15T00:58:55.558Z,2,GR86-040-3,-42.5,0.085,-0.655,26.7,2.0,,0.0,0.0,
2025-08-15T00:58:55.601Z,2,GR86-040-3,-44.1,0.093,-0.687,26.66,2.0,,0.0,0.0,
2025-08-15T00:58:55.644Z,2,GR86-040-3,-46.5,0.097,-0.6880000000000001,26.6,2.0,,0.0,0.0,
2025-08-15T00:58:55.687Z,2,GR86-040-3,-49.400000000000006,0.1,-0.709,26.54,2.0,5376.0,0.0,0.0,
2025-08-15T00:58:55.730Z,2,GR86-040-3,-52.3,0.094,-0.6950000000000001,26.45,2.0,,0.0,0.0,93.73
2025-08-15T00:58:55.773Z,2,GR86-040-3,-54.6,0.086,-0.746,26.32,2.0,,0.0,0.0,
2025-08-15T00:58:55.818Z,2,GR86-040-3,-55.900000000000006,0.09,-0.736,26.25,2.0,,0.0,0.0,
2025-08-15T00:58:55.861Z,2,GR86-040-3,-56.1,0.066,-0.8190000000000001,26.25,2.0,,0.0,0.0,
2025-08-15T00:58:55.904Z,2,GR86-040-3,-56.1,0.085,-0.795,26.28,2.0,5423.0,0.0,0.0,
2025-08-15T00:58:55.947Z,2,GR86-040-3,-56.6,0.069,-0.808,26.31,2.0,,0.0,0.0,94.82
2025-08-15T00:58:55.990Z,2,GR86-040-3,-58.1,0.075,-0.803,26.36,2.0,,0.0,0.0,
2025-08-15T00:58:56.033Z,2,GR86-040-3,-59.6,0.075,-0.8160000000000001,26.44,2.0,,0.0,0.0,
2025-08-15T00:58:56.076Z,2,GR86-040-3,-59.900000000000006,0.063,-0.867,26.67,2.0,,0.0,0.0,
2025-08-15T00:58:56.120Z,2,GR86-040-3,-59.900000000000006,0.076,-0.861,27.06,2.0,5494.0,0.0,0.0,
2025-08-15T00:58:56.163Z,2,GR86-040-3,-59.5,0.058,-0.901,31.84,2.0,,0.0,0.0,95.78
2025-08-15T00:58:56.208Z,2,GR86-040-3,-56.7,0.08,-0.874,57.11,2.0,,0.0,0.0,
2025-08-15T00:58:56.251Z,2,GR86-040-3,-52.0,0.078,-0.891,93.22,2.0,,0.0,0.0,
2025-08-15T00:58:56.294Z,2,GR86-040-3,-45.400000000000006,0.115,-0.867,99.62,2.0,,0.0,0.0,
2025-08-15T00:58:56.337Z,2,GR86-040-3,-38.7,0.22,-0.8260000000000001,99.89,2.0,5538.0,0.0,0.0,
2025-08-15T00:58:56.381Z,2,GR86-040-3,-38.5,0.251,-0.865,99.91,2.0,,0.0,0.0,96.56
2025-08-15T00:58:56.424Z,2,GR86-040-3,-41.0,0.282,-0.805,99.91,2.0,,0.0,0.0,
2025-08-15T00:58:56.467Z,2,GR86-040-3,-44.3,0.231,-0.845,99.91,2.0,,0.0,0.0,
2025-08-15T00:58:56.511Z,2,GR86-040-3,-46.2,0.205,-0.8240000000000001,99.91,2.0,,0.0,0.0,
2025-08-15T00:58:56.554Z,2,GR86-040-3,-46.3,0.195,-0.887,99.9,2.0,5729.0,0.0,0.0,
2025-08-15T00:58:56.598Z,2,GR86-040-3,-41.1,0.211,-0.898,99.9,2.0,,0.0,0.0,97.35
2025-08-15T00:58:56.641Z,2,GR86-040-3,-34.6,0.224,-0.848,99.93,2.0,,0.0,0.0,
2025-08-15T00:58:56.684Z,2,GR86-040-3,-29.0,0.225,-0.84,99.91,2.0,,0.0,0.0,
2025-08-15T00:58:56.729Z,2,GR86-040-3,-26.3,0.247,-0.789,99.91,2.0,,0.0,0.0,
2025-08-15T00:58:56.772Z,2,GR86-040-3,-26.1,0.25,-0.788,99.92,2.0,5793.0,0.0,0.0,
2025-08-15T00:58:56.815Z,2,GR86-040-3,-26.1,0.243,-0.778,99.9,2.0,,0.0,0.0,98.65
2025-08-15T00:58:56.858Z,2,GR86-040-3,-26.1,0.226,-0.773,99.92,2.0,,0.0,0.0,
2025-08-15T00:58:56.901Z,2,GR86-040-3,-26.9,0.245,-0.75,99.93,2.0,,0.0,0.0,
2025-08-15T00:58:56.944Z,2,GR86-040-3,-30.200000000000003,0.241,-0.746,99.9,2.0,,0.0,0.0,
2025-08-15T00:58:56.987Z,2,GR86-040-3,-35.4,0.245,-0.764,99.91,2.0,5857.0,0.0,0.0,
2025-08-15T00:58:57.030Z,2,GR86-040-3,-41.7,0.255,-0.713,99.91,2.0,,0.0,0.0,101.76
2025-08-15T00:58:57.073Z,2,GR86-040-3,-46.400000000000006,0.227,-0.78,99.91,2.0,,0.0,0.0,
2025-08-15T00:58:57.161Z,2,GR86-040-3,-48.2,0.184,-0.719,68.68,2.0,,0.0,0.0,
2025-08-15T00:58:57.204Z,2,GR86-040-3,-42.6,0.232,-0.773,52.8,2.0,5922.0,0.0,0.0,
2025-08-15T00:58:57.247Z,2,GR86-040-3,-38.6,0.217,-0.793,50.67,2.0,,0.0,0.0,103.09
2025-08-15T00:58:57.290Z,2,GR86-040-3,-36.2,0.21,-0.737,50.5,2.0,,0.0,0.0,
2025-08-15T00:58:57.333Z,2,GR86-040-3,-36.0,0.196,-0.737,49.54,2.0,,0.0,0.0,
2025-08-15T00:58:57.378Z,2,GR86-040-3,-36.0,0.167,-0.747,45.39,2.0,,0.0,0.0,
2025-08-15T00:58:57.421Z,2,GR86-040-3,-37.8,0.151,-0.775,44.92,2.0,6097.0,0.0,0.0,
2025-08-15T00:58:57.464Z,2,GR86-040-3,-43.1,0.2,-0.767,44.81,2.0,,0.0,0.0,105.28
2025-08-15T00:58:57.508Z,2,GR86-040-3,-49.5,0.178,-0.841,44.82,2.0,,0.0,0.0,
2025-08-15T00:58:57.551Z,2,GR86-040-3,-54.0,0.18,-0.768,44.79,2.0,,0.0,0.0,
2025-08-15T00:58:57.594Z,2,GR86-040-3,-55.400000000000006,0.138,-0.839,44.97,2.0,,0.0,0.0,
2025-08-15T00:58:57.637Z,2,GR86-040-3,-55.400000000000006,0.117,-0.854,45.09,2.0,6152.0,0.0,0.0,
2025-08-15T00:58:57.681Z,2,GR86-040-3,-55.400000000000006,0.133,-0.833,45.14,2.0,,0.0,0.0,106.57
2025-08-15T00:58:57.724Z,2,GR86-040-3,-54.8,0.14,-0.871,45.18,2.0,,0.0,0.0,
2025-08-15T00:58:57.768Z,2,GR86-040-3,-52.7,0.137,-0.846,45.3,2.0,,0.0,0.0,
2025-08-15T00:58:57.811Z,2,GR86-040-3,-48.2,0.18,-0.8190000000000001,45.52,2.0,,0.0,0.0,
2025-08-15T00:58:57.854Z,2,GR86-040-3,-43.7,0.138,-0.859,46.93,2.0,6245.0,0.0,0.0,
2025-08-15T00:58:57.897Z,2,GR86-040-3,-42.7,0.145,-0.839,95.64,2.0,,0.0,0.0,107.81
2025-08-15T00:58:57.941Z,2,GR86-040-3,-42.6,0.194,-0.789,99.9,2.0,,0.0,0.0,
2025-08-15T00:58:57.984Z,2,GR86-040-3,-39.8,0.166,-0.891,99.92,2.0,,0.0,0.0,
2025-08-15T00:58:58.029Z,2,GR86-040-3,-34.1,0.193,-0.851,99.9,2.0,,0.0,0.0,
2025-08-15T00:58:58.072Z,2,GR86-040-3,-29.1,0.223,-0.902,99.91,2.0,6379.0,0.0,0.0,
2025-08-15T00:58:58.115Z,2,GR86-040-3,-25.4,0.222,-0.878,99.91,2.0,,0.0,0.0,108.87
2025-08-15T00:58:58.158Z,2,GR86-040-3,-24.5,0.232,-0.808,99.89,2.0,,0.0,0.0,
2025-08-15T00:58:58.201Z,2,GR86-040-3,-26.5,0.244,-0.833,99.91,2.0,,0.0,0.0,
2025-08-15T00:58:58.244Z,2,GR86-040-3,-30.1,0.207,-0.852,99.91,2.0,,0.0,0.0,
2025-08-15T00:58:58.287Z,2,GR86-040-3,-35.2,0.213,-0.854,99.9,2.0,6445.0,0.0,0.0,
2025-08-15T00:58:58.331Z,2,GR86-040-3,-40.2,0.226,-0.875,99.91,2.0,,0.0,0.0,110.23
2025-08-15T00:58:58.374Z,2,GR86-040-3,-42.1,0.198,-0.876,99.92,2.0,,0.0,0.0,
2025-08-15T00:58:58.418Z,2,GR86-040-3,-41.3,0.198,-0.838,99.91,2.0,,0.0,0.0,
2025-08-15T00:58:58.461Z,2,GR86-040-3,-39.2,0.199,-0.853,99.9,2.0,,0.0,0.0,
2025-08-15T00:58:58.504Z,2,GR86-040-3,-36.3,0.211,-0.902,99.91,2.0,6519.0,0.0,0.0,
2025-08-15T00:58:58.547Z,2,GR86-040-3,-32.5,0.208,-0.868,99.93,2.0,,0.0,0.0,111.39
2025-08-15T00:58:58.591Z,2,GR86-040-3,-29.9,0.217,-0.906,99.91,2.0,,0.0,0.0,
2025-08-15T00:58:58.634Z,2,GR86-040-3,-29.3,0.219,-0.853,99.91,2.0,,0.0,0.0,
2025-08-15T00:58:58.678Z,2,GR86-040-3,-29.3,0.208,-0.857,99.92,2.0,,0.0,0.0,
2025-08-15T00:58:58.721Z,2,GR86-040-3,-29.3,0.222,-0.859,99.9,2.0,6599.0,0.0,0.0,
2025-08-15T00:58:58.764Z,2,GR86-040-3,-29.3,0.243,-0.838,99.92,2.0,,0.0,0.0,112.93
2025-08-15T00:58:58.808Z,2,GR86-040-3,-29.3,0.198,-0.8200000000000001,99.91,2.0,,0.0,0.0,
2025-08-15T00:58:58.851Z,2,GR86-040-3,-29.3,0.207,-0.849,99.91,2.0,,0.0,0.0,
2025-08-15T00:58:58.894Z,2,GR86-040-3,-29.3,0.232,-0.8,99.93,2.0,,0.0,0.0,
2025-08-15T00:58:58.937Z,2,GR86-040-3,-29.1,0.233,-0.743,99.93,2.0,6653.0,0.0,0.0,
2025-08-15T00:58:58.980Z,2,GR86-040-3,-28.3,0.206,-0.759,99.94,2.0,,0.0,0.0,114.41
2025-08-15T00:58:59.023Z,2,GR86-040-3,-26.8,0.216,-0.776,99.93,2.0,,0.0,0.0,
2025-08-15T00:58:59.068Z,2,GR86-040-3,-25.0,0.226,-0.735,99.94,2.0,,0.0,0.0,
2025-08-15T00:58:59.111Z,2,GR86-040-3,-24.4,0.221,-0.725,99.94,2.0,,0.0,0.0,
2025-08-15T00:58:59.154Z,2,GR86-040-3,-24.4,0.239,-0.668,99.94,2.0,6726.0,0.0,0.0,
2025-08-15T00:58:59.197Z,2,GR86-040-3,-24.4,0.226,-0.657,99.92,2.0,,0.0,0.0,114.66
2025-08-15T00:58:59.241Z,2,GR86-040-3,-25.1,0.207,-0.667,99.94,2.0,,0.0,0.0,
2025-08-15T00:58:59.284Z,2,GR86-040-3,-26.9,0.213,-0.675,99.94,2.0,,0.0,0.0,
2025-08-15T00:58:59.330Z,2,GR86-040-3,-27.5,0.241,-0.653,99.94,2.0,,0.0,0.0,
2025-08-15T00:58:59.373Z,2,GR86-040-3,-27.5,0.212,-0.644,99.94,2.0,6792.0,0.0,0.0,
2025-08-15T00:58:59.418Z,2,GR86-040-3,-25.1,0.203,-0.681,99.94,2.0,,0.0,0.0,117.59
2025-08-15T00:58:59.461Z,2,GR86-040-3,-23.1,0.211,-0.679,99.94,2.0,,0.0,0.0,
2025-08-15T00:58:59.504Z,2,GR86-040-3,-22.200000000000003,0.23,-0.667,99.94,2.0,,0.0,0.0,
2025-08-15T00:58:59.547Z,2,GR86-040-3,-22.1,0.214,-0.668,99.94,2.0,,0.0,0.0,
2025-08-15T00:58:59.590Z,2,GR86-040-3,-22.1,0.217,-0.672,99.94,2.0,6884.0,0.0,0.0,
2025-08-15T00:58:59.633Z,2,GR86-040-3,-22.1,0.229,-0.657,99.94,2.0,,0.0,0.0,119.09
2025-08-15T00:58:59.677Z,2,GR86-040-3,-23.6,0.224,-0.63,99.92,2.0,,0.0,0.0,
2025-08-15T00:58:59.721Z,2,GR86-040-3,-24.4,0.205,-0.636,99.94,2.0,,0.0,0.0,
2025-08-15T00:58:59.764Z,2,GR86-040-3,-24.4,0.21,-0.624,99.94,2.0,,0.0,0.0,
2025-08-15T00:58:59.808Z,2,GR86-040-3,-22.4,0.211,-0.595,99.92,2.0,6963.0,0.0,0.0,
2025-08-15T00:58:59.851Z,2,GR86-040-3,-20.700000000000003,0.196,-0.596,99.92,2.0,,0.0,0.0,120.69
2025-08-15T00:58:59.894Z,2,GR86-040-3,-20.200000000000003,0.203,-0.581,99.91,2.0,,0.0,0.0,
2025-08-15T00:58:59.938Z,2,GR86-040-3,-20.200000000000003,0.218,-0.594,99.93,2.0,,0.0,0.0,
2025-08-15T00:58:59.981Z,2,GR86-040-3,-20.200000000000003,0.22,-0.5740000000000001,99.91,2.0,,0.0,0.0,
2025-08-15T00:59:00.024Z,2,GR86-040-3,-19.8,0.215,-0.58,99.92,2.0,7122.0,0.0,0.0,
2025-08-15T00:59:00.067Z,2,GR86-040-3,-18.0,0.203,-0.5690000000000001,99.94,2.0,,0.0,0.0,122.15
2025-08-15T00:59:00.110Z,2,GR86-040-3,-15.8,0.206,-0.523,99.94,2.0,,0.0,0.0,
2025-08-15T00:59:00.153Z,2,GR86-040-3,-14.3,0.189,-0.473,99.96,2.0,,0.0,0.0,
2025-08-15T00:59:00.198Z,2,GR86-040-3,-11.4,-0.013,-0.499,99.93,3.0,,0.0,0.0,
2025-08-15T00:59:00.241Z,2,GR86-040-3,-10.6,-0.092,-0.437,99.94,3.0,6959.0,0.0,0.0,
2025-08-15T00:59:00.284Z,2,GR86-040-3,-9.6,0.497,-0.407,99.95,3.0,,0.0,0.0,123.57
2025-08-15T00:59:00.329Z,2,GR86-040-3,-8.700000000000001,0.307,-0.525,99.95,3.0,,0.0,0.0,
2025-08-15T00:59:00.373Z,2,GR86-040-3,-8.3,0.297,-0.388,99.94,3.0,,0.0,0.0,
2025-08-15T00:59:00.418Z,2,GR86-040-3,-8.3,0.157,-0.341,99.93,3.0,,0.0,0.0,
2025-08-15T00:59:00.461Z,2,GR86-040-3,-9.2,0.047,-0.315,99.92,3.0,5868.0,0.0,0.0,
2025-08-15T00:59:00.504Z,2,GR86-040-3,-9.3,0.165,-0.213,99.93,3.0,,0.0,0.0,124.84
2025-08-15T00:59:00.547Z,2,GR86-040-3,-8.4,0.178,-0.308,99.93,3.0,,0.0,0.0,
2025-08-15T00:59:00.590Z,2,GR86-040-3,-7.2,0.216,-0.21,99.94,3.0,,0.0,0.0,
2025-08-15T00:59:00.633Z,2,GR86-040-3,-6.9,0.229,-0.159,99.94,3.0,,0.0,0.0,
2025-08-15T00:59:00.678Z,2,GR86-040-3,-6.4,0.185,-0.216,99.93,3.0,5966.0,0.0,0.0,
2025-08-15T00:59:00.721Z,2,GR86-040-3,-5.5,0.244,-0.206,99.94,3.0,,0.0,0.0,126.23
2025-08-15T00:59:00.764Z,2,GR86-040-3,-5.0,0.209,-0.219,99.94,3.0,,0.0,0.0,
2025-08-15T00:59:00.808Z,2,GR86-040-3,-4.9,0.184,-0.201,99.93,3.0,,0.0,0.0,
2025-08-15T00:59:00.851Z,2,GR86-040-3,-4.6000000000000005,0.182,-0.201,99.93,3.0,,0.0,0.0,
2025-08-15T00:59:00.894Z,2,GR86-040-3,-4.3,0.164,-0.144,99.95,3.0,6020.0,0.0,0.0,
2025-08-15T00:59:00.937Z,2,GR86-040-3,-3.6,0.167,-0.128,99.94,3.0,,0.0,0.0,127.76
2025-08-15T00:59:00.981Z,2,GR86-040-3,-3.1,0.148,-0.134,99.95,3.0,,0.0,0.0,
2025-08-15T00:59:01.024Z,2,GR86-040-3,-2.7,0.175,-0.113,99.94,3.0,,0.0,0.0,
2025-08-15T00:59:01.068Z,2,GR86-040-3,-2.7,0.224,-0.074,99.94,3.0,,0.0,0.0,
2025-08-15T00:59:01.111Z,2,GR86-040-3,-3.0,0.202,-0.052,99.93,3.0,6116.0,0.0,0.0,
2025-08-15T00:59:01.154Z,2,GR86-040-3,-3.0,0.23,-0.075,99.94,3.0,,0.0,0.0,129.07
2025-08-15T00:59:01.197Z,2,GR86-040-3,-2.3000000000000003,0.226,-0.063,99.94,3.0,,0.0,0.0,
2025-08-15T00:59:01.241Z,2,GR86-040-3,-2.3000000000000003,0.224,-0.073,99.93,3.0,,0.0,0.0,
2025-08-15T00:59:01.284Z,2,GR86-040-3,-2.4000000000000004,0.163,-0.019,99.93,3.0,,0.0,0.0,
2025-08-15T00:59:01.330Z,2,GR86-040-3,-2.5,0.155,-0.027,99.94,3.0,6169.0,0.0,0.0,
2025-08-15T00:59:01.373Z,2,GR86-040-3,-2.5,0.144,-0.006,99.96,3.0,,0.0,0.0,130.4
2025-08-15T00:59:01.418Z,2,GR86-040-3,-2.8000000000000003,0.208,-0.025,99.94,3.0,,0.0,0.0,
2025-08-15T00:59:01.461Z,2,GR86-040-3,-2.8000000000000003,0.195,-0.021,99.95,3.0,,0.0,0.0,
2025-08-15T00:59:01.504Z,2,GR86-040-3,-2.8000000000000003,0.194,-0.002,99.92,3.0,,0.0,0.0,
2025-08-15T00:59:01.547Z,2,GR86-040-3,-2.8000000000000003,0.201,-0.019,99.93,3.0,6244.0,0.0,0.0,
2025-08-15T00:59:01.591Z,2,GR86-040-3,-2.8000000000000003,0.201,-0.035,99.95,3.0,,0.0,0.0,131.96
2025-08-15T00:59:01.634Z,2,GR86-040-3,-2.8000000000000003,0.185,-0.043,99.94,3.0,,0.0,0.0,
2025-08-15T00:59:01.678Z,2,GR86-040-3,-2.8000000000000003,0.189,-0.046,99.94,3.0,,0.0,0.0,
2025-08-15T00:59:01.721Z,2,GR86-040-3,-2.9000000000000004,0.174,-0.056,99.93,3.0,,0.0,0.0,
2025-08-15T00:59:01.764Z,2,GR86-040-3,-2.7,0.174,-0.067,99.95,3.0,6270.0,0.0,0.0,
2025-08-15T00:59:01.808Z,2,GR86-040-3,-1.5,0.2,-0.084,99.95,3.0,,0.0,0.0,133.32
2025-08-15T00:59:01.851Z,2,GR86-040-3,-0.1,0.203,-0.093,99.95,3.0,,0.0,0.0,
2025-08-15T00:59:01.894Z,2,GR86-040-3,0.1,0.177,-0.072,99.94,3.0,,0.0,0.0,
2025-08-15T00:59:01.937Z,2,GR86-040-3,-0.1,0.188,-0.1,99.94,3.0,,0.0,0.0,
2025-08-15T00:59:01.981Z,2,GR86-040-3,-0.3,0.169,-0.063,99.94,3.0,6356.0,0.0,0.0,
2025-08-15T00:59:02.024Z,2,GR86-040-3,-0.3,0.186,-0.074,99.93,3.0,,0.0,0.0,136.26
2025-08-15T00:59:02.067Z,2,GR86-040-3,-0.1,0.192,-0.071,99.96,3.0,,0.0,0.0,
2025-08-15T00:59:02.111Z,2,GR86-040-3,1.2000000000000002,0.194,-0.065,99.94,3.0,,0.0,0.0,
2025-08-15T00:59:02.154Z,2,GR86-040-3,2.2,0.173,-0.049,99.94,3.0,,0.0,0.0,
2025-08-15T00:59:02.197Z,2,GR86-040-3,2.3000000000000003,0.158,-0.026,99.94,3.0,6407.0,0.0,0.0,
2025-08-15T00:59:02.241Z,2,GR86-040-3,2.3000000000000003,0.169,-0.016,99.95,3.0,,0.0,0.0,137.78
2025-08-15T00:59:02.284Z,2,GR86-040-3,2.3000000000000003,0.173,-0.031,99.94,3.0,,0.0,0.0,
2025-08-15T00:59:02.330Z,2,GR86-040-3,2.3000000000000003,0.209,-0.028,99.97,3.0,,0.0,0.0,
2025-08-15T00:59:02.373Z,2,GR86-040-3,2.3000000000000003,0.178,-0.002,99.94,3.0,,0.0,0.0,
2025-08-15T00:59:02.418Z,2,GR86-040-3,2.3000000000000003,0.186,0.0,99.95,3.0,6548.0,0.0,0.0,
2025-08-15T00:59:02.461Z,2,GR86-040-3,2.3000000000000003,0.166,0.009,99.95,3.0,,0.0,0.0,139.25
2025-08-15T00:59:02.504Z,2,GR86-040-3,2.3000000000000003,0.165,0.025,99.93,3.0,,0.0,0.0,
2025-08-15T00:59:02.547Z,2,GR86-040-3,2.3000000000000003,0.185,0.013,99.96,3.0,,0.0,0.0,
2025-08-15T00:59:02.590Z,2,GR86-040-3,2.3000000000000003,0.19,0.009,99.94,3.0,,0.0,0.0,
2025-08-15T00:59:02.633Z,2,GR86-040-3,2.3000000000000003,0.17,0.019,99.94,3.0,6615.0,0.0,0.0,
2025-08-15T00:59:02.677Z,2,GR86-040-3,2.3000000000000003,0.194,0.017,99.93,3.0,,0.0,0.0,140.77
2025-08-15T00:59:02.721Z,2,GR86-040-3,2.3000000000000003,0.166,0.032,99.94,3.0,,0.0,0.0,
2025-08-15T00:59:02.764Z,2,GR86-040-3,2.3000000000000003,0.147,0.023,99.93,3.0,,0.0,0.0,
2025-08-15T00:59:02.808Z,2,GR86-040-3,2.3000000000000003,0.168,0.014,99.93,3.0,,0.0,0.0,
2025-08-15T00:59:02.851Z,2,GR86-040-3,2.3000000000000003,0.206,-0.003,99.94,3.0,6703.0,0.0,0.0,
2025-08-15T00:59:02.894Z,2,GR86-040-3,0.6000000000000001,0.189,0.023,99.95,3.0,,0.0,0.0,142.12
2025-08-15T00:59:02.938Z,2,GR86-040-3,-0.8,0.171,-0.01,99.94,3.0,,0.0,0.0,
2025-08-15T00:59:02.981Z,2,GR86-040-3,-0.8,0.17,0.0,99.94,3.0,,0.0,0.0,
2025-08-15T00:59:03.024Z,2,GR86-040-3,-0.8,0.162,-0.003,99.93,3.0,,0.0,0.0,
2025-08-15T00:59:03.067Z,2,GR86-040-3,-0.5,0.159,-0.017,99.94,3.0,6776.0,0.0,0.0,
2025-08-15T00:59:03.111Z,2,GR86-040-3,0.3,0.167,-0.029,99.95,3.0,,0.0,0.0,143.63
2025-08-15T00:59:03.154Z,2,GR86-040-3,0.8,0.185,-0.043,99.94,3.0,,0.0,0.0,
2025-08-15T00:59:03.198Z,2,GR86-040-3,0.8,0.151,-0.051,99.95,3.0,,0.0,0.0,
2025-08-15T00:59:03.241Z,2,GR86-040-3,0.8,0.187,-0.052,99.94,3.0,,0.0,0.0,
2025-08-15T00:59:03.284Z,2,GR86-040-3,0.8,0.184,-0.032,99.94,3.0,6832.0,0.0,0.0,
2025-08-15T00:59:03.330Z,2,GR86-040-3,0.8,0.172,-0.019,99.94,3.0,,0.0,0.0,145.29
2025-08-15T00:59:03.373Z,2,GR86-040-3,0.8,0.146,-0.033,99.93,3.0,,0.0,0.0,
2025-08-15T00:59:03.418Z,2,GR86-040-3,0.8,0.151,-0.013,99.94,3.0,,0.0,0.0,
2025-08-15T00:59:03.461Z,2,GR86-040-3,0.8,0.13,-0.025,99.95,3.0,,0.0,0.0,
2025-08-15T00:59:03.504Z,2,GR86-040-3,0.8,0.154,-0.022,99.96,3.0,6900.0,0.0,0.0,
2025-08-15T00:59:03.547Z,2,GR86-040-3,1.0,0.182,-0.031,99.94,3.0,,0.0,0.0,146.99
2025-08-15T00:59:03.590Z,2,GR86-040-3,1.6,0.189,-0.019,99.96,3.0,,0.0,0.0,
2025-08-15T00:59:03.633Z,2,GR86-040-3,1.7000000000000002,0.159,0.006,99.94,3.0,,0.0,0.0,
2025-08-15T00:59:03.678Z,2,GR86-040-3,1.7000000000000002,0.171,-0.014,99.94,3.0,,0.0,0.0,
2025-08-15T00:59:03.721Z,2,GR86-040-3,1.7000000000000002,0.177,0.014,99.94,3.0,6965.0,0.0,0.0,
2025-08-15T00:59:03.764Z,2,GR86-040-3,1.7000000000000002,0.16,0.011,99.92,3.0,,0.0,0.0,148.57
2025-08-15T00:59:03.808Z,2,GR86-040-3,1.7000000000000002,0.142,0.008,99.94,3.0,,0.0,0.0,
2025-08-15T00:59:03.851Z,2,GR86-040-3,1.7000000000000002,0.149,-0.016,99.93,3.0,,0.0,0.0,
2025-08-15T00:59:03.894Z,2,GR86-040-3,1.7000000000000002,0.171,-0.012,99.94,3.0,,0.0,0.0,
2025-08-15T00:59:03.937Z,2,GR86-040-3,1.7000000000000002,-0.109,0.026,99.97,4.0,7039.0,0.0,0.0,
2025-08-15T00:59:03.980Z,2,GR86-040-3,1.7000000000000002,-0.034,0.036,99.94,4.0,,0.0,0.0,150.21
2025-08-15T00:59:04.023Z,2,GR86-040-3,1.4,0.42,-0.064,99.95,4.0,,0.0,0.0,
2025-08-15T00:59:04.068Z,2,GR86-040-3,0.7000000000000001,0.228,-0.049,99.93,4.0,,0.0,0.0,
2025-08-15T00:59:04.111Z,2,GR86-040-3,0.1,0.129,0.075,99.94,4.0,,0.0,0.0,
2025-08-15T00:59:04.154Z,2,GR86-040-3,0.1,0.02,-0.032,99.94,4.0,6536.0,0.0,0.0,
2025-08-15T00:59:04.197Z,2,GR86-040-3,0.1,0.128,0.026,91.17,4.0,,4.365,4.625,151.74
2025-08-15T00:59:04.241Z,2,GR86-040-3,0.1,0.127,-0.026,35.09,4.0,,9.215,9.25,
2025-08-15T00:59:04.284Z,2,GR86-040-3,0.1,-0.021,-0.057,5.69,4.0,,14.42,14.545,
2025-08-15T00:59:04.330Z,2,GR86-040-3,0.1,-0.147,-0.018,5.08,4.0,,19.79,20.115,
2025-08-15T00:59:04.373Z,2,GR86-040-3,0.1,-0.41,-0.054,4.71,4.0,6092.0,23.835,24.11,
2025-08-15T00:59:04.418Z,2,GR86-040-3,0.1,-0.488,-0.006,4.17,4.0,,27.53,28.095,153.47
2025-08-15T00:59:04.461Z,2,GR86-040-3,1.1,-0.724,-0.067,3.7,4.0,,28.37,29.115,
2025-08-15T00:59:04.504Z,2,GR86-040-3,1.9,-0.624,-0.01,3.2,4.0,,27.805,28.275,
2025-08-15T00:59:04.547Z,2,GR86-040-3,2.3000000000000003,-0.599,-0.07,2.96,4.0,,27.745,27.925,
2025-08-15T00:59:04.591Z,2,GR86-040-3,2.3000000000000003,-0.577,-0.027,2.85,4.0,5723.0,28.155,28.55,
2025-08-15T00:59:04.634Z,2,GR86-040-3,2.3000000000000003,-0.553,-0.022,2.78,4.0,,28.615,29.27,151.20000000000002
2025-08-15T00:59:04.678Z,2,GR86-040-3,-0.1,-0.621,-0.058,2.72,4.0,,32.075,32.2,
2025-08-15T00:59:04.721Z,2,GR86-040-3,-0.6000000000000001,-0.617,-0.043,2.69,4.0,,36.06,36.335,
2025-08-15T00:59:04.764Z,2,GR86-040-3,-0.6000000000000001,-0.707,-0.077,2.66,4.0,,39.035,39.585,
2025-08-15T00:59:04.808Z,2,GR86-040-3,-0.6000000000000001,-0.808,-0.068,2.65,4.0,5737.0,41.935,42.055,
2025-08-15T00:59:04.851Z,2,GR86-040-3,-0.6000000000000001,-0.869,-0.079,2.61,4.0,,45.065,44.88,147.39
2025-08-15T00:59:04.894Z,2,GR86-040-3,0.6000000000000001,-0.846,-0.05,2.61,4.0,,48.48,48.39,
2025-08-15T00:59:04.937Z,2,GR86-040-3,1.3,-0.939,-0.062,2.58,4.0,,51.96,51.870000000000005,
2025-08-15T00:59:04.981Z,2,GR86-040-3,1.3,-0.901,-0.042,18.67,4.0,,53.365,53.9,
2025-08-15T00:59:05.024Z,2,GR86-040-3,1.3,-0.917,-0.062,64.16,4.0,5303.0,54.205,54.77,
2025-08-15T00:59:05.068Z,2,GR86-040-3,1.3,-1.008,-0.075,99.05,4.0,,54.05,54.295,142.21
2025-08-15T00:59:05.111Z,2,GR86-040-3,1.3,-0.985,-0.066,99.89,4.0,,54.08,54.385,
2025-08-15T00:59:05.154Z,2,GR86-040-3,1.3,-0.908,-0.093,74.71000000000001,4.0,,54.11,55.075,
2025-08-15T00:59:05.197Z,2,GR86-040-3,1.3,-0.903,-0.075,4.3500000000000005,3.0,,53.545,54.555,
2025-08-15T00:59:05.241Z,2,GR86-040-3,1.3,-0.927,-0.079,3.04,3.0,5829.0,51.685,52.74,
2025-08-15T00:59:05.284Z,2,GR86-040-3,1.3,-0.999,-0.151,2.82,3.0,,43.11,44.775,135.91
2025-08-15T00:59:05.330Z,2,GR86-040-3,1.3,-0.787,-0.076,2.72,3.0,,33.025,34.395,
2025-08-15T00:59:05.373Z,2,GR86-040-3,1.3,-0.643,-0.125,2.68,3.0,,26.535,27.865,
2025-08-15T00:59:05.418Z,2,GR86-040-3,1.3,-0.557,-0.061,2.64,3.0,,23.3,24.43,
2025-08-15T00:59:05.461Z,2,GR86-040-3,1.3,-0.5650000000000001,-0.125,2.62,3.0,5786.0,22.995,23.715,
2025-08-15T00:59:05.504Z,2,GR86-040-3,1.3,-0.5630000000000001,-0.158,2.62,3.0,,21.41,21.835,130.08
2025-08-15T00:59:05.547Z,2,GR86-040-3,1.3,-0.488,-0.091,2.59,3.0,,16.830000000000002,17.93,
2025-08-15T00:59:05.590Z,2,GR86-040-3,1.3,-0.479,-0.119,2.59,3.0,,13.245,14.085,
2025-08-15T00:59:05.633Z,2,GR86-040-3,1.3,-0.417,-0.107,2.56,3.0,,9.965,10.315,
2025-08-15T00:59:05.676Z,2,GR86-040-3,0.8,-0.314,-0.092,2.5500000000000003,3.0,5703.0,7.265000000000001,7.8,
2025-08-15T00:59:05.721Z,2,GR86-040-3,-1.1,-0.298,-0.055,2.56,3.0,,6.655,7.37,126.51
2025-08-15T00:59:05.764Z,2,GR86-040-3,-3.0,-0.293,-0.047,2.5500000000000003,3.0,,4.24,4.93,
2025-08-15T00:59:05.808Z,2,GR86-040-3,-4.3,-0.241,-0.087,2.5500000000000003,3.0,,1.985,2.52,
2025-08-15T00:59:05.851Z,2,GR86-040-3,-4.4,-0.2,-0.083,2.5500000000000003,3.0,,0.0,0.0,
2025-08-15T00:59:05.894Z,2,GR86-040-3,-4.5,-0.171,-0.065,2.5500000000000003,3.0,5660.0,0.0,0.0,
2025-08-15T00:59:05.938Z,2,GR86-040-3,-4.800000000000001,-0.153,-0.091,2.53,3.0,,0.0,0.0,124.62
2025-08-15T00:59:05.981Z,2,GR86-040-3,-5.6000000000000005,-0.149,-0.123,2.54,3.0,,0.0,0.0,
2025-08-15T00:59:06.024Z,2,GR86-040-3,-5.9,-0.163,-0.145,2.52,3.0,,0.0,0.0,
2025-08-15T00:59:06.067Z,2,GR86-040-3,-5.9,-0.165,-0.125,2.51,3.0,,2.395,2.73,
2025-08-15T00:59:06.111Z,2,GR86-040-3,-5.9,-0.18,-0.157,2.51,3.0,5629.0,5.05,5.11,
2025-08-15T00:59:06.154Z,2,GR86-040-3,-5.9,-0.223,-0.172,2.52,3.0,,9.81,9.935,123.75
2025-08-15T00:59:06.198Z,2,GR86-040-3,-5.300000000000001,-0.403,-0.173,2.51,3.0,,21.5,21.305,
2025-08-15T00:59:06.241Z,2,GR86-040-3,-3.1,-0.51,-0.152,2.51,3.0,,29.175,28.9,
2025-08-15T00:59:06.284Z,2,GR86-040-3,-0.7000000000000001,-0.65,-0.166,2.52,3.0,,38.41,37.705,
2025-08-15T00:59:06.330Z,2,GR86-040-3,0.3,-0.76,-0.139,2.51,3.0,5577.0,47.185,46.68,
2025-08-15T00:59:06.373Z,2,GR86-040-3,0.3,-0.91,-0.133,2.5,3.0,,54.05,53.545,122.94
2025-08-15T00:59:06.418Z,2,GR86-040-3,0.3,-1.054,-0.15,2.49,3.0,,61.65,61.175,
2025-08-15T00:59:06.461Z,2,GR86-040-3,0.9,-1.098,-0.166,2.49,3.0,,65.42,65.115,
2025-08-15T00:59:06.504Z,2,GR86-040-3,2.9000000000000004,-1.118,-0.154,2.49,3.0,,68.06,67.815,
2025-08-15T00:59:06.547Z,2,GR86-040-3,5.6000000000000005,-1.082,-0.123,2.51,3.0,5272.0,70.06,69.83,
2025-08-15T00:59:06.590Z,2,GR86-040-3,7.300000000000001,-0.955,-0.134,2.5,3.0,,73.54,74.83500000000001,119.14
2025-08-15T00:59:06.633Z,2,GR86-040-3,7.300000000000001,-1.037,-0.112,2.5,3.0,,74.47,74.285,
2025-08-15T00:59:06.678Z,2,GR86-040-3,7.0,-0.948,-0.021,2.49,3.0,,70.715,71.175,
2025-08-15T00:59:06.721Z,2,GR86-040-3,7.0,-0.947,-0.068,2.5,3.0,,68.685,70.655,
2025-08-15T00:59:06.764Z,2,GR86-040-3,6.2,-1.025,0.053,2.5,3.0,4748.0,63.59,64.03,
2025-08-15T00:59:06.807Z,2,GR86-040-3,3.0,-1.048,-0.055,2.51,3.0,,59.3,60.31,113.23
2025-08-15T00:59:06.851Z,2,GR86-040-3,-0.2,-1.004,0.017,2.52,3.0,,43.675,45.4,
2025-08-15T00:59:06.894Z,2,GR86-040-3,-2.0,-0.602,0.017,2.51,3.0,,24.795,26.08,
2025-08-15T00:59:06.937Z,2,GR86-040-3,-2.4000000000000004,-0.419,-0.009,2.5,3.0,,6.545,7.140000000000001,
2025-08-15T00:59:06.981Z,2,GR86-040-3,-2.4000000000000004,-0.252,-0.008,2.51,3.0,4453.0,0.0,1.925,
2025-08-15T00:59:07.024Z,2,GR86-040-3,-2.4000000000000004,-0.09,-0.02,18.29,3.0,,0.0,0.0,100.36
2025-08-15T00:59:07.111Z,2,GR86-040-3,-2.4000000000000004,-0.1,-0.051,99.07,3.0,,0.0,0.0,
2025-08-15T00:59:07.154Z,2,GR86-040-3,-2.4000000000000004,-0.133,-0.041,99.91,3.0,,0.0,0.0,
2025-08-15T00:59:07.197Z,2,GR86-040-3,-2.4000000000000004,-0.126,-0.109,37.08,2.0,4620.0,0.0,0.0,
2025-08-15T00:59:07.241Z,2,GR86-040-3,-2.4000000000000004,-0.417,-0.048,4.0200000000000005,2.0,,0.0,0.0,99.96
2025-08-15T00:59:07.284Z,2,GR86-040-3,-2.4000000000000004,-0.294,-0.016,2.89,2.0,,0.0,0.0,
2025-08-15T00:59:07.330Z,2,GR86-040-3,-2.4000000000000004,-0.056,-0.181,2.72,2.0,,0.0,0.0,
2025-08-15T00:59:07.373Z,2,GR86-040-3,-2.4000000000000004,-0.105,-0.05,2.66,2.0,,0.0,0.0,
2025-08-15T00:59:07.418Z,2,GR86-040-3,-2.4000000000000004,-0.122,-0.137,2.62,2.0,5542.0,0.0,0.0,
2025-08-15T00:59:07.504Z,2,GR86-040-3,-2.4000000000000004,-0.189,-0.036,2.58,2.0,,0.0,0.0,99.22
2025-08-15T00:59:07.547Z,2,GR86-040-3,-2.4000000000000004,-0.172,-0.149,2.58,2.0,,0.0,0.0,
2025-08-15T00:59:07.591Z,2,GR86-040-3,-2.4000000000000004,-0.144,-0.075,2.59,2.0,,0.0,0.0,
2025-08-15T00:59:07.634Z,2,GR86-040-3,-2.4000000000000004,-0.155,-0.089,2.58,2.0,5515.0,0.0,0.0,
2025-08-15T00:59:07.678Z,2,GR86-040-3,-2.4000000000000004,-0.154,-0.09,2.58,2.0,,0.0,0.0,98.54
2025-08-15T00:59:07.721Z,2,GR86-040-3,-2.4000000000000004,-0.144,-0.08,2.59,2.0,,0.0,0.0,
2025-08-15T00:59:07.764Z,2,GR86-040-3,-2.4000000000000004,-0.155,-0.094,2.69,2.0,,0.0,0.0,
2025-08-15T00:59:07.808Z,2,GR86-040-3,-2.4000000000000004,-0.151,-0.09,3.35,2.0,,0.0,0.0,
2025-08-15T00:59:07.851Z,2,GR86-040-3,-2.4000000000000004,-0.168,-0.077,4.45,2.0,5468.0,0.0,0.0,
2025-08-15T00:59:07.894Z,2,GR86-040-3,-2.4000000000000004,-0.141,-0.099,4.61,2.0,,0.0,0.0,97.86
2025-08-15T00:59:07.937Z,2,GR86-040-3,-2.4000000000000004,-0.137,-0.071,4.78,2.0,,0.0,0.0,
2025-08-15T00:59:07.980Z,2,GR86-040-3,-2.4000000000000004,-0.167,-0.106,5.17,2.0,,0.0,0.0,
2025-08-15T00:59:08.023Z,2,GR86-040-3,-2.4000000000000004,-0.156,-0.087,14.09,2.0,,0.0,0.0,
2025-08-15T00:59:08.067Z,2,GR86-040-3,-2.4000000000000004,-0.158,-0.094,17.650000000000002,2.0,5426.0,0.0,0.0,
2025-08-15T00:59:08.111Z,2,GR86-040-3,-2.4000000000000004,-0.108,-0.085,18.24,2.0,,0.0,0.0,97.18
2025-08-15T00:59:08.154Z,2,GR86-040-3,-2.1,-0.095,-0.094,18.88,2.0,,0.0,0.0,
2025-08-15T00:59:08.197Z,2,GR86-040-3,-2.1,-0.065,-0.097,20.87,2.0,,0.0,0.0,
2025-08-15T00:59:08.241Z,2,GR86-040-3,-2.1,-0.071,-0.09,21.72,2.0,,0.0,0.0,
2025-08-15T00:59:08.284Z,2,GR86-040-3,-2.1,-0.058,-0.09,22.22,2.0,5451.0,0.0,0.0,
2025-08-15T00:59:08.330Z,2,GR86-040-3,-2.1,0.0,-0.086,22.39,2.0,,0.0,0.0,96.48
2025-08-15T00:59:08.373Z,2,GR86-040-3,-2.1,0.212,-0.08,22.23,2.0,,0.0,0.0,
2025-08-15T00:59:08.418Z,2,GR86-040-3,-1.4,0.118,-0.084,22.14,2.0,,0.0,0.0,
2025-08-15T00:59:08.461Z,2,GR86-040-3,-0.9,0.011,-0.059,22.13,2.0,,0.0,0.0,
2025-08-15T00:59:08.504Z,2,GR86-040-3,0.3,0.003,-0.069,22.25,2.0,5550.0,0.0,0.0,
2025-08-15T00:59:08.547Z,2,GR86-040-3,0.9,0.03,-0.045,22.38,2.0,,0.0,0.0,96.17
2025-08-15T00:59:08.590Z,2,GR86-040-3,0.9,0.095,-0.029,22.39,2.0,,0.0,0.0,
2025-08-15T00:59:08.633Z,2,GR86-040-3,0.9,0.108,-0.032,22.38,2.0,,0.0,0.0,
2025-08-15T00:59:08.677Z,2,GR86-040-3,0.9,0.053,-0.009,22.36,2.0,,0.0,0.0,
2025-08-15T00:59:08.721Z,2,GR86-040-3,0.9,0.046,-0.029,22.35,2.0,5592.0,0.0,0.0,
2025-08-15T00:59:08.764Z,2,GR86-040-3,0.9,0.048,-0.007,22.41,2.0,,0.0,0.0,96.87
2025-08-15T00:59:08.808Z,2,GR86-040-3,0.9,0.075,-0.018,22.45,2.0,,0.0,0.0,
2025-08-15T00:59:08.851Z,2,GR86-040-3,0.9,0.073,-0.005,22.48,2.0,,0.0,0.0,
2025-08-15T00:59:08.894Z,2,GR86-040-3,0.9,0.067,-0.007,22.52,2.0,,0.0,0.0,
2025-08-15T00:59:08.938Z,2,GR86-040-3,0.2,0.075,-0.004,22.57,2.0,5604.0,0.0,0.0,
2025-08-15T00:59:08.981Z,2,GR86-040-3,-0.3,0.055,-0.001,22.61,2.0,,0.0,0.0,97.64
2025-08-15T00:59:09.024Z,2,GR86-040-3,-1.1,0.063,-0.008,22.69,2.0,,0.0,0.0,
2025-08-15T00:59:09.067Z,2,GR86-040-3,-1.8,0.039,-0.015,22.73,2.0,,2.67,2.825,
2025-08-15T00:59:09.110Z,2,GR86-040-3,-3.4000000000000004,0.032,-0.025,22.77,2.0,,4.595,4.655,
2025-08-15T00:59:09.198Z,2,GR86-040-3,-5.1000000000000005,0.001,-0.028,22.77,2.0,5637.0,5.9350000000000005,6.12,98.46
2025-08-15T00:59:09.241Z,2,GR86-040-3,-9.9,-0.045,-0.107,22.67,2.0,,7.140000000000001,7.4,
2025-08-15T00:59:09.284Z,2,GR86-040-3,-11.2,-0.058,-0.127,15.47,2.0,,8.01,8.18,
2025-08-15T00:59:09.330Z,2,GR86-040-3,-12.6,-0.07,-0.153,3.3000000000000003,2.0,,9.37,9.66,
2025-08-15T00:59:09.373Z,2,GR86-040-3,-13.2,-0.115,-0.185,4.03,2.0,5673.0,10.835,10.925,
2025-08-15T00:59:09.418Z,2,GR86-040-3,-13.9,-0.286,-0.187,3.78,2.0,,13.015,12.985,99.06
2025-08-15T00:59:09.461Z,2,GR86-040-3,-14.4,-0.289,-0.262,3.46,2.0,,14.51,14.45,
2025-08-15T00:59:09.504Z,2,GR86-040-3,-15.8,-0.519,-0.26,3.2,2.0,,15.395,15.475,
2025-08-15T00:59:09.547Z,2,GR86-040-3,-17.400000000000002,-0.527,-0.272,3.0,2.0,,16.28,16.375,
2025-08-15T00:59:09.590Z,2,GR86-040-3,-18.9,-0.43,-0.329,2.91,2.0,5502.0,16.315,16.495,
2025-08-15T00:59:09.633Z,2,GR86-040-3,-19.9,-0.373,-0.388,2.81,2.0,,16.28,16.71,97.84
2025-08-15T00:59:09.678Z,2,GR86-040-3,-22.200000000000003,-0.402,-0.439,2.72,2.0,,16.315,16.65,
2025-08-15T00:59:09.721Z,2,GR86-040-3,-23.3,-0.428,-0.453,2.68,2.0,,16.28,16.68,
2025-08-15T00:59:09.764Z,2,GR86-040-3,-23.700000000000003,-0.438,-0.469,2.65,2.0,,16.19,16.68,
2025-08-15T00:59:09.807Z,2,GR86-040-3,-25.0,-0.403,-0.482,2.62,2.0,5477.0,15.43,16.055,
2025-08-15T00:59:09.851Z,2,GR86-040-3,-27.3,-0.396,-0.527,2.61,2.0,,10.44,11.43,96.32
2025-08-15T00:59:09.894Z,2,GR86-040-3,-29.6,-0.282,-0.533,2.58,2.0,,7.11,7.765000000000001,
2025-08-15T00:59:09.937Z,2,GR86-040-3,-35.7,-0.309,-0.578,2.58,2.0,,7.46,7.765000000000001,
2025-08-15T00:59:09.981Z,2,GR86-040-3,-37.7,-0.323,-0.636,2.59,2.0,,8.36,8.515,
2025-08-15T00:59:10.024Z,2,GR86-040-3,-40.2,-0.336,-0.657,2.59,2.0,5177.0,9.72,9.995,
2025-08-15T00:59:10.068Z,2,GR86-040-3,-41.3,-0.369,-0.7020000000000001,2.82,2.0,,11.125,11.215,94.3
2025-08-15T00:59:10.111Z,2,GR86-040-3,-42.7,-0.388,-0.6980000000000001,3.23,2.0,,12.175,12.53,
2025-08-15T00:59:10.154Z,2,GR86-040-3,-43.6,-0.388,-0.739,3.46,2.0,,12.45,12.71,
2025-08-15T00:59:10.197Z,2,GR86-040-3,-43.900000000000006,-0.36,-0.73,3.65,2.0,,12.835,13.2,
2025-08-15T00:59:10.241Z,2,GR86-040-3,-43.900000000000006,-0.361,-0.784,3.98,2.0,5049.0,12.3,12.895,
2025-08-15T00:59:10.284Z,2,GR86-040-3,-43.900000000000006,-0.361,-0.768,4.87,2.0,,7.615,8.21,92.57
2025-08-15T00:59:10.329Z,2,GR86-040-3,-44.400000000000006,-0.26,-0.8130000000000001,4.93,2.0,,1.925,2.58,
2025-08-15T00:59:10.373Z,2,GR86-040-3,-45.2,-0.224,-0.834,4.96,2.0,,0.0,0.0,
2025-08-15T00:59:10.418Z,2,GR86-040-3,-46.400000000000006,-0.199,-0.8140000000000001,4.96,2.0,,0.0,0.0,
2025-08-15T00:59:10.461Z,2,GR86-040-3,-46.6,-0.164,-0.874,4.99,2.0,4941.0,0.0,0.0,
2025-08-15T00:59:10.504Z,2,GR86-040-3,-47.1,-0.15,-0.837,5.0,2.0,,0.0,0.0,90.69
2025-08-15T00:59:10.547Z,2,GR86-040-3,-48.400000000000006,-0.167,-0.891,5.01,2.0,,0.0,0.0,
2025-08-15T00:59:10.591Z,2,GR86-040-3,-50.0,-0.183,-0.837,5.9,2.0,,0.0,0.0,
2025-08-15T00:59:10.634Z,2,GR86-040-3,-51.900000000000006,-0.191,-0.88,7.08,2.0,,0.0,0.0,
2025-08-15T00:59:10.678Z,2,GR86-040-3,-55.2,-0.163,-0.844,7.11,2.0,4896.0,0.0,0.0,
2025-08-15T00:59:10.721Z,2,GR86-040-3,-57.7,-0.151,-0.879,7.17,2.0,,0.0,0.0,89.47
2025-08-15T00:59:10.764Z,2,GR86-040-3,-59.900000000000006,-0.142,-0.81,8.950000000000001,2.0,,0.0,0.0,
2025-08-15T00:59:10.808Z,2,GR86-040-3,-61.6,-0.156,-0.899,12.58,2.0,,0.0,0.0,
2025-08-15T00:59:10.851Z,2,GR86-040-3,-63.3,-0.156,-0.8210000000000001,17.25,2.0,,0.0,0.0,
2025-08-15T00:59:10.894Z,2,GR86-040-3,-65.4,-0.165,-0.912,17.740000000000002,2.0,4880.0,0.0,0.0,
2025-08-15T00:59:10.937Z,2,GR86-040-3,-68.8,-0.175,-0.888,19.91,2.0,,0.0,0.0,88.46000000000001
2025-08-15T00:59:10.981Z,2,GR86-040-3,-71.3,-0.147,-0.922,21.74,2.0,,0.0,0.0,
2025-08-15T00:59:11.024Z,2,GR86-040-3,-73.8,-0.119,-0.919,21.94,2.0,,0.0,0.0,
2025-08-15T00:59:11.068Z,2,GR86-040-3,-75.5,-0.12,-0.955,22.05,2.0,,0.0,0.0,
2025-08-15T00:59:11.111Z,2,GR86-040-3,-75.8,0.039,-0.936,22.13,2.0,4888.0,0.0,0.0,
2025-08-15T00:59:11.154Z,2,GR86-040-3,-76.3,0.108,-0.966,22.13,2.0,,0.0,0.0,87.69
2025-08-15T00:59:11.197Z,2,GR86-040-3,-78.0,0.063,-0.967,22.13,2.0,,0.0,0.0,
2025-08-15T00:59:11.240Z,2,GR86-040-3,-79.9,0.015,-0.958,22.13,2.0,,0.0,0.0,
2025-08-15T00:59:11.283Z,2,GR86-040-3,-82.10000000000001,-0.006,-1.004,22.14,2.0,,0.0,0.0,
2025-08-15T00:59:11.326Z,2,GR86-040-3,-84.0,0.002,-0.965,22.13,2.0,4974.0,0.0,0.0,
2025-08-15T00:59:11.369Z,2,GR86-040-3,-85.2,0.012,-1.023,22.1,2.0,,0.0,0.0,87.12
2025-08-15T00:59:11.413Z,2,GR86-040-3,-86.2,0.034,-0.975,22.09,2.0,,0.0,0.0,
2025-08-15T00:59:11.456Z,2,GR86-040-3,-87.2,0.026,-0.959,22.06,2.0,,0.0,0.0,
2025-08-15T00:59:11.544Z,2,GR86-040-3,-89.60000000000001,0.012,-0.979,22.0,2.0,5017.0,0.0,0.0,
2025-08-15T00:59:11.630Z,2,GR86-040-3,-89.10000000000001,0.027,-0.941,22.03,2.0,,0.0,0.0,87.28
2025-08-15T00:59:11.673Z,2,GR86-040-3,-89.7,0.02,-0.949,21.98,2.0,,0.0,0.0,
2025-08-15T00:59:11.718Z,2,GR86-040-3,-88.4,0.009,-0.971,21.97,2.0,,0.0,0.0,
2025-08-15T00:59:11.761Z,2,GR86-040-3,-86.2,0.025,-0.952,21.98,2.0,5007.0,0.0,0.0,
2025-08-15T00:59:11.804Z,2,GR86-040-3,-83.7,0.028,-0.944,21.98,2.0,,0.0,0.0,87.25
2025-08-15T00:59:11.847Z,2,GR86-040-3,-80.9,0.021,-0.933,21.97,2.0,,0.0,0.0,
2025-08-15T00:59:11.890Z,2,GR86-040-3,-77.80000000000001,0.028,-0.945,21.97,2.0,,0.0,0.0,
2025-08-15T00:59:11.933Z,2,GR86-040-3,-75.10000000000001,0.026,-0.913,28.55,2.0,,0.0,0.0,
2025-08-15T00:59:11.977Z,2,GR86-040-3,-70.4,0.031,-0.904,85.66,2.0,5021.0,0.0,0.0,
2025-08-15T00:59:12.021Z,2,GR86-040-3,-65.3,0.056,-0.901,99.87,2.0,,0.0,0.0,87.51
2025-08-15T00:59:12.064Z,2,GR86-040-3,-59.400000000000006,0.117,-0.899,99.88,2.0,,0.0,0.0,
2025-08-15T00:59:12.108Z,2,GR86-040-3,-52.8,0.188,-0.904,99.87,2.0,,0.0,0.0,
2025-08-15T00:59:12.151Z,2,GR86-040-3,-48.0,0.215,-0.866,99.87,2.0,,0.0,0.0,
2025-08-15T00:59:12.194Z,2,GR86-040-3,-44.8,0.207,-0.861,99.87,2.0,5032.0,0.0,0.0,
2025-08-15T00:59:12.238Z,2,GR86-040-3,-42.3,0.26,-0.804,99.88,2.0,,0.0,0.0,87.93
2025-08-15T00:59:12.281Z,2,GR86-040-3,-42.1,0.247,-0.899,99.87,2.0,,0.0,0.0,
2025-08-15T00:59:12.324Z,2,GR86-040-3,-41.0,0.252,-0.855,99.87,2.0,,0.0,0.0,
2025-08-15T00:59:12.367Z,2,GR86-040-3,-36.7,0.23,-0.901,99.86,2.0,,0.0,0.0,
2025-08-15T00:59:12.410Z,2,GR86-040-3,-29.4,0.243,-0.869,99.87,2.0,5258.0,0.0,0.0,
2025-08-15T00:59:12.453Z,2,GR86-040-3,-21.5,0.25,-0.902,99.87,2.0,,0.0,0.0,89.27
2025-08-15T00:59:12.498Z,2,GR86-040-3,-13.5,0.252,-0.793,99.56,2.0,,0.0,0.0,
2025-08-15T00:59:12.541Z,2,GR86-040-3,-12.9,0.272,-0.809,90.91,2.0,,0.0,0.0,
2025-08-15T00:59:12.584Z,2,GR86-040-3,-17.2,0.259,-0.732,99.5,2.0,,0.0,0.0,
2025-08-15T00:59:12.629Z,2,GR86-040-3,-26.9,0.276,-0.759,99.87,2.0,5343.0,0.0,0.0,
2025-08-15T00:59:12.672Z,2,GR86-040-3,-39.2,0.252,-0.736,99.89,2.0,,0.0,0.0,90.81
2025-08-15T00:59:12.715Z,2,GR86-040-3,-50.8,0.25,-0.758,99.88,2.0,,0.0,0.0,
2025-08-15T00:59:12.758Z,2,GR86-040-3,-58.1,0.218,-0.786,99.88,2.0,,0.0,0.0,
2025-08-15T00:59:12.801Z,2,GR86-040-3,-58.2,0.204,-0.763,99.88,2.0,,0.0,0.0,
2025-08-15T00:59:12.844Z,2,GR86-040-3,-55.7,0.203,-0.803,99.86,2.0,5383.0,0.0,0.0,
2025-08-15T00:59:12.887Z,2,GR86-040-3,-52.2,0.216,-0.762,99.87,2.0,,0.0,0.0,91.28
2025-08-15T00:59:12.930Z,2,GR86-040-3,-49.0,0.226,-0.738,99.88,2.0,,0.0,0.0,
2025-08-15T00:59:12.973Z,2,GR86-040-3,-45.400000000000006,0.224,-0.719,99.86,2.0,,0.0,0.0,
2025-08-15T00:59:13.018Z,2,GR86-040-3,-41.1,0.228,-0.744,99.87,2.0,,0.0,0.0,
2025-08-15T00:59:13.061Z,2,GR86-040-3,-40.400000000000006,0.209,-0.72,99.87,2.0,5500.0,0.0,0.0,
2025-08-15T00:59:13.147Z,2,GR86-040-3,-40.400000000000006,0.238,-0.764,99.87,2.0,,0.0,0.0,94.02
2025-08-15T00:59:13.190Z,2,GR86-040-3,-40.400000000000006,0.217,-0.8,99.87,2.0,,0.0,0.0,
2025-08-15T00:59:13.233Z,2,GR86-040-3,-40.400000000000006,0.242,-0.8290000000000001,99.87,2.0,,0.0,0.0,
2025-08-15T00:59:13.278Z,2,GR86-040-3,-40.400000000000006,0.222,-0.805,99.87,2.0,5615.0,0.0,0.0,
2025-08-15T00:59:13.321Z,2,GR86-040-3,-40.400000000000006,0.225,-0.8290000000000001,99.87,2.0,,0.0,0.0,95.82
2025-08-15T00:59:13.364Z,2,GR86-040-3,-40.400000000000006,0.249,-0.752,99.87,2.0,,0.0,0.0,
2025-08-15T00:59:13.407Z,2,GR86-040-3,-40.400000000000006,0.227,-0.778,99.88,2.0,,0.0,0.0,
2025-08-15T00:59:13.451Z,2,GR86-040-3,-40.400000000000006,0.23,-0.756,99.86,2.0,,0.0,0.0,
2025-08-15T00:59:13.494Z,2,GR86-040-3,-40.0,0.201,-0.766,99.87,2.0,5680.0,0.0,0.0,
2025-08-15T00:59:13.537Z,2,GR86-040-3,-37.1,0.229,-0.792,99.89,2.0,,0.0,0.0,97.6
2025-08-15T00:59:13.581Z,2,GR86-040-3,-34.2,0.245,-0.737,99.9,2.0,,0.0,0.0,
2025-08-15T00:59:13.624Z,2,GR86-040-3,-32.2,0.242,-0.731,99.91,2.0,,0.0,0.0,
2025-08-15T00:59:13.668Z,2,GR86-040-3,-31.3,0.252,-0.712,99.9,2.0,,0.0,0.0,
2025-08-15T00:59:13.711Z,2,GR86-040-3,-31.200000000000003,0.224,-0.733,99.89,2.0,5795.0,0.0,0.0,
2025-08-15T00:59:13.754Z,2,GR86-040-3,-31.200000000000003,0.245,-0.727,99.87,2.0,,0.0,0.0,99.05
2025-08-15T00:59:13.797Z,2,GR86-040-3,-31.1,0.255,-0.704,99.88,2.0,,0.0,0.0,
2025-08-15T00:59:13.841Z,2,GR86-040-3,-31.1,0.244,-0.73,99.87,2.0,,0.0,0.0,
2025-08-15T00:59:13.884Z,2,GR86-040-3,-31.1,0.253,-0.6910000000000001,99.88,2.0,,0.0,0.0,
2025-08-15T00:59:13.929Z,2,GR86-040-3,-31.1,0.224,-0.716,99.9,2.0,5891.0,0.0,0.0,
2025-08-15T00:59:13.972Z,2,GR86-040-3,-31.1,0.249,-0.6950000000000001,99.88,2.0,,0.0,0.0,100.7
2025-08-15T00:59:14.015Z,2,GR86-040-3,-30.9,0.224,-0.676,99.88,2.0,,0.0,0.0,
2025-08-15T00:59:14.101Z,2,GR86-040-3,-30.1,0.237,-0.6880000000000001,99.89,2.0,,0.0,0.0,
2025-08-15T00:59:14.144Z,2,GR86-040-3,-28.4,0.219,-0.6940000000000001,99.88,2.0,5970.0,0.0,0.0,
2025-08-15T00:59:14.188Z,2,GR86-040-3,-26.9,0.235,-0.707,99.87,2.0,,0.0,0.0,101.45
2025-08-15T00:59:14.231Z,2,GR86-040-3,-25.200000000000003,0.243,-0.674,99.88,2.0,,0.0,0.0,
2025-08-15T00:59:14.274Z,2,GR86-040-3,-24.1,0.253,-0.663,99.89,2.0,,0.0,0.0,
2025-08-15T00:59:14.318Z,2,GR86-040-3,-23.700000000000003,0.237,-0.657,99.9,2.0,,0.0,0.0,
2025-08-15T00:59:14.361Z,2,GR86-040-3,-23.700000000000003,0.233,-0.633,99.9,2.0,6073.0,0.0,0.0,
2025-08-15T00:59:14.404Z,2,GR86-040-3,-23.700000000000003,0.242,-0.632,99.9,2.0,,0.0,0.0,103.07
2025-08-15T00:59:14.448Z,2,GR86-040-3,-23.700000000000003,0.249,-0.614,99.91,2.0,,0.0,0.0,
2025-08-15T00:59:14.491Z,2,GR86-040-3,-23.700000000000003,0.24,-0.594,99.9,2.0,,0.0,0.0,
2025-08-15T00:59:14.534Z,2,GR86-040-3,-23.700000000000003,0.237,-0.606,99.9,2.0,,0.0,0.0,
2025-08-15T00:59:14.578Z,2,GR86-040-3,-23.700000000000003,0.24,-0.586,99.9,2.0,6168.0,0.0,0.0,
2025-08-15T00:59:14.621Z,2,GR86-040-3,-23.700000000000003,0.241,-0.555,99.9,2.0,,0.0,0.0,106.57
2025-08-15T00:59:14.664Z,2,GR86-040-3,-23.700000000000003,0.238,-0.539,99.9,2.0,,0.0,0.0,
2025-08-15T00:59:14.708Z,2,GR86-040-3,-23.3,0.229,-0.521,99.9,2.0,,0.0,0.0,
2025-08-15T00:59:14.751Z,2,GR86-040-3,-23.1,0.226,-0.515,99.9,2.0,,0.0,0.0,
2025-08-15T00:59:14.794Z,2,GR86-040-3,-23.1,0.224,-0.518,99.9,2.0,6248.0,0.0,0.0,
2025-08-15T00:59:14.837Z,2,GR86-040-3,-25.0,0.23,-0.511,99.91,2.0,,0.0,0.0,108.25
2025-08-15T00:59:14.881Z,2,GR86-040-3,-26.4,0.238,-0.518,99.89,2.0,,0.0,0.0,
2025-08-15T00:59:14.924Z,2,GR86-040-3,-26.6,0.218,-0.554,99.9,2.0,,0.0,0.0,
2025-08-15T00:59:14.968Z,2,GR86-040-3,-26.6,0.214,-0.558,99.89,2.0,,0.0,0.0,
2025-08-15T00:59:15.011Z,2,GR86-040-3,-26.6,0.227,-0.584,99.91,2.0,6347.0,0.0,0.0,
2025-08-15T00:59:15.054Z,2,GR86-040-3,-26.6,0.214,-0.583,99.91,2.0,,0.0,0.0,109.95
2025-08-15T00:59:15.097Z,2,GR86-040-3,-24.200000000000003,0.211,-0.499,99.91,2.0,,0.0,0.0,
2025-08-15T00:59:15.141Z,2,GR86-040-3,-20.4,0.231,-0.539,99.88,2.0,,0.0,0.0,
2025-08-15T00:59:15.184Z,2,GR86-040-3,-16.7,0.221,-0.488,99.91,2.0,,0.0,0.0,
2025-08-15T00:59:15.229Z,2,GR86-040-3,-13.9,0.232,-0.414,99.91,2.0,6566.0,0.0,0.0,
2025-08-15T00:59:15.272Z,2,GR86-040-3,-12.8,0.203,-0.391,99.89,2.0,,0.0,0.0,111.63
2025-08-15T00:59:15.315Z,2,GR86-040-3,-12.7,0.181,-0.347,99.9,2.0,,0.0,0.0,
2025-08-15T00:59:15.358Z,2,GR86-040-3,-12.6,0.25,-0.4,99.91,2.0,,0.0,0.0,
2025-08-15T00:59:15.401Z,2,GR86-040-3,-12.1,0.261,-0.345,99.91,2.0,,0.0,0.0,
2025-08-15T00:59:15.444Z,2,GR86-040-3,-11.1,0.263,-0.374,99.91,2.0,6673.0,0.0,0.0,
2025-08-15T00:59:15.487Z,2,GR86-040-3,-9.5,0.279,-0.366,99.91,2.0,,0.0,0.0,113.06
2025-08-15T00:59:15.530Z,2,GR86-040-3,-7.4,0.299,-0.388,99.91,2.0,,0.0,0.0,
2025-08-15T00:59:15.573Z,2,GR86-040-3,-5.7,0.262,-0.352,99.92,2.0,,0.0,0.0,
2025-08-15T00:59:15.618Z,2,GR86-040-3,-4.2,0.19,-0.285,99.91,2.0,,0.0,0.0,
2025-08-15T00:59:15.661Z,2,GR86-040-3,-4.0,0.174,-0.196,99.91,2.0,6748.0,0.0,0.0,
2025-08-15T00:59:15.704Z,2,GR86-040-3,-4.0,0.209,-0.245,99.9,2.0,,0.0,0.0,114.86
2025-08-15T00:59:15.747Z,2,GR86-040-3,-4.0,0.186,-0.229,99.9,2.0,,0.0,0.0,
2025-08-15T00:59:15.790Z,2,GR86-040-3,-4.0,0.154,-0.165,99.92,2.0,,0.0,0.0,
2025-08-15T00:59:15.833Z,2,GR86-040-3,-4.0,0.149,-0.119,99.91,2.0,,0.0,0.0,
2025-08-15T00:59:15.877Z,2,GR86-040-3,-4.0,0.29,-0.163,99.91,2.0,6791.0,0.0,0.0,
2025-08-15T00:59:15.921Z,2,GR86-040-3,-4.0,0.305,-0.061,99.91,2.0,,0.0,0.0,116.61
2025-08-15T00:59:15.964Z,2,GR86-040-3,-3.9,0.237,-0.057,99.91,2.0,,0.0,0.0,
2025-08-15T00:59:16.008Z,2,GR86-040-3,-4.0,0.233,-0.114,99.91,2.0,,0.0,0.0,
2025-08-15T00:59:16.051Z,2,GR86-040-3,-4.0,0.181,0.016,99.92,2.0,,0.0,0.0,
2025-08-15T00:59:16.094Z,2,GR86-040-3,-4.0,0.236,-0.019,99.93,2.0,6869.0,0.0,0.0,
2025-08-15T00:59:16.138Z,2,GR86-040-3,-3.9,0.275,-0.002,99.9,2.0,,0.0,0.0,118.38
2025-08-15T00:59:16.181Z,2,GR86-040-3,-3.9,0.25,-0.066,99.91,2.0,,0.0,0.0,
2025-08-15T00:59:16.224Z,2,GR86-040-3,-4.0,0.213,-0.062,99.9,2.0,,0.0,0.0,
2025-08-15T00:59:16.267Z,2,GR86-040-3,-4.0,0.222,-0.072,99.92,2.0,,0.0,0.0,
2025-08-15T00:59:16.311Z,2,GR86-040-3,-4.0,0.241,-0.097,99.9,2.0,7002.0,0.0,0.0,
2025-08-15T00:59:16.354Z,2,GR86-040-3,-3.9,0.233,-0.064,99.91,2.0,,0.0,0.0,120.15
2025-08-15T00:59:16.398Z,2,GR86-040-3,-4.0,0.222,-0.035,99.92,2.0,,0.0,0.0,
2025-08-15T00:59:16.441Z,2,GR86-040-3,-4.0,0.225,-0.052,99.9,2.0,,0.0,0.0,
2025-08-15T00:59:16.484Z,2,GR86-040-3,-3.9,0.233,-0.069,99.91,2.0,,0.0,0.0,
2025-08-15T00:59:16.529Z,2,GR86-040-3,-3.9,0.222,-0.048,99.9,2.0,7066.0,0.0,0.0,
2025-08-15T00:59:16.573Z,2,GR86-040-3,-3.9,0.222,-0.068,99.92,2.0,,0.0,0.0,121.87
2025-08-15T00:59:16.618Z,2,GR86-040-3,-3.9,0.217,-0.079,99.9,2.0,,0.0,0.0,
2025-08-15T00:59:16.661Z,2,GR86-040-3,-2.9000000000000004,0.237,-0.124,99.9,2.0,,0.0,0.0,
2025-08-15T00:59:16.704Z,2,GR86-040-3,-1.5,0.233,-0.108,99.94,2.0,,0.0,0.0,
2025-08-15T00:59:16.747Z,2,GR86-040-3,-0.3,0.143,-0.105,99.93,2.0,7169.0,0.0,0.0,
2025-08-15T00:59:16.790Z,2,GR86-040-3,-0.3,-0.121,-0.074,99.92,3.0,,0.0,0.0,123.38
2025-08-15T00:59:16.833Z,2,GR86-040-3,-0.3,0.269,-0.088,99.94,3.0,,0.0,0.0,
2025-08-15T00:59:16.878Z,2,GR86-040-3,-0.3,0.295,-0.167,99.93,3.0,,0.0,0.0,
2025-08-15T00:59:16.921Z,2,GR86-040-3,-0.3,0.357,-0.023,99.93,3.0,,0.0,0.0,
2025-08-15T00:59:16.964Z,2,GR86-040-3,-0.3,0.232,-0.098,99.93,3.0,6775.0,0.0,0.0,
2025-08-15T00:59:17.007Z,2,GR86-040-3,-0.3,0.122,-0.131,99.94,3.0,,0.0,0.0,125.03
2025-08-15T00:59:17.051Z,2,GR86-040-3,-0.3,0.124,-0.007,99.93,3.0,,0.0,0.0,
2025-08-15T00:59:17.094Z,2,GR86-040-3,0.9,0.206,-0.116,99.93,3.0,,0.0,0.0,
2025-08-15T00:59:17.137Z,2,GR86-040-3,2.2,0.222,-0.012,99.94,3.0,,0.0,0.0,
2025-08-15T00:59:17.181Z,2,GR86-040-3,2.2,0.187,-0.064,99.94,3.0,5844.0,0.0,0.0,
2025-08-15T00:59:17.224Z,2,GR86-040-3,2.2,0.182,-0.032,99.92,3.0,,0.0,0.0,128.06
2025-08-15T00:59:17.268Z,2,GR86-040-3,2.2,0.186,0.025,99.92,3.0,,0.0,0.0,
2025-08-15T00:59:17.311Z,2,GR86-040-3,2.2,0.186,-0.027,99.94,3.0,,0.0,0.0,
2025-08-15T00:59:17.354Z,2,GR86-040-3,2.1,0.203,-0.01,99.93,3.0,,0.0,0.0,
2025-08-15T00:59:17.398Z,2,GR86-040-3,1.4,0.189,-0.007,99.91,3.0,5985.0,0.0,0.0,
2025-08-15T00:59:17.441Z,2,GR86-040-3,1.4,0.203,0.023,99.92,3.0,,0.0,0.0,129.35
2025-08-15T00:59:17.484Z,2,GR86-040-3,1.4,0.187,0.027,99.94,3.0,,0.0,0.0,
2025-08-15T00:59:17.529Z,2,GR86-040-3,1.4,0.192,-0.002,99.95,3.0,,0.0,0.0,
2025-08-15T00:59:17.572Z,2,GR86-040-3,1.4,0.191,-0.002,99.95,3.0,,0.0,0.0,
2025-08-15T00:59:17.615Z,2,GR86-040-3,1.4,0.2,0.029,99.92,3.0,6068.0,0.0,0.0,
2025-08-15T00:59:17.658Z,2,GR86-040-3,1.4,0.199,0.021,99.94,3.0,,0.0,0.0,130.63
2025-08-15T00:59:17.701Z,2,GR86-040-3,1.4,0.188,0.017,99.93,3.0,,0.0,0.0,
2025-08-15T00:59:17.744Z,2,GR86-040-3,1.4,0.194,-0.024,99.94,3.0,,0.0,0.0,
2025-08-15T00:59:17.788Z,2,GR86-040-3,1.4,0.185,-0.004,99.91,3.0,,0.0,0.0,
2025-08-15T00:59:17.831Z,2,GR86-040-3,1.4,0.198,0.022,99.93,3.0,6193.0,0.0,0.0,
2025-08-15T00:59:17.874Z,2,GR86-040-3,1.4,0.162,0.001,99.93,3.0,,0.0,0.0,132.03
2025-08-15T00:59:17.918Z,2,GR86-040-3,1.4,0.188,0.009,99.91,3.0,,0.0,0.0,
2025-08-15T00:59:17.961Z,2,GR86-040-3,1.4,0.181,-0.025,99.94,3.0,,0.0,0.0,
2025-08-15T00:59:18.004Z,2,GR86-040-3,1.4,0.182,-0.018,99.93,3.0,,0.0,0.0,
2025-08-15T00:59:18.047Z,2,GR86-040-3,1.4,0.193,-0.003,99.91,3.0,6252.0,0.0,0.0,
2025-08-15T00:59:18.091Z,2,GR86-040-3,1.4,0.182,-0.007,99.94,3.0,,0.0,0.0,133.29
2025-08-15T00:59:18.134Z,2,GR86-040-3,1.4,0.17,-0.034,99.93,3.0,,0.0,0.0,
2025-08-15T00:59:18.178Z,2,GR86-040-3,1.4,0.165,-0.016,99.91,3.0,,0.0,0.0,
2025-08-15T00:59:18.221Z,2,GR86-040-3,1.4,0.18,-0.014,99.93,3.0,,0.0,0.0,
2025-08-15T00:59:18.264Z,2,GR86-040-3,1.4,0.198,0.02,99.94,3.0,6317.0,0.0,0.0,
2025-08-15T00:59:18.308Z,2,GR86-040-3,1.4,0.19,0.014,99.91,3.0,,0.0,0.0,134.6
2025-08-15T00:59:18.351Z,2,GR86-040-3,1.4,0.167,-0.011,99.93,3.0,,0.0,0.0,
2025-08-15T00:59:18.394Z,2,GR86-040-3,1.4,0.179,-0.002,99.94,3.0,,0.0,0.0,
2025-08-15T00:59:18.437Z,2,GR86-040-3,1.4,0.179,-0.012,99.95,3.0,,0.0,0.0,
2025-08-15T00:59:18.481Z,2,GR86-040-3,1.4,0.186,0.013,99.95,3.0,6381.0,0.0,0.0,
2025-08-15T00:59:18.524Z,2,GR86-040-3,1.4,0.194,0.033,99.91,3.0,,0.0,0.0,135.8
2025-08-15T00:59:18.568Z,2,GR86-040-3,1.4,0.188,-0.008,99.93,3.0,,0.0,0.0,
2025-08-15T00:59:18.611Z,2,GR86-040-3,1.4,0.181,-0.017,99.9,3.0,,0.0,0.0,
2025-08-15T00:59:18.654Z,2,GR86-040-3,1.4,0.193,-0.003,99.92,3.0,,0.0,0.0,
2025-08-15T00:59:18.697Z,2,GR86-040-3,1.4,0.166,-0.014,99.95,3.0,6438.0,0.0,0.0,
2025-08-15T00:59:18.741Z,2,GR86-040-3,1.4,0.187,0.018,99.94,3.0,,0.0,0.0,137.06
2025-08-15T00:59:18.784Z,2,GR86-040-3,1.4,0.205,0.012,99.9,3.0,,0.0,0.0,
2025-08-15T00:59:18.829Z,2,GR86-040-3,1.4,0.183,-0.014,99.92,3.0,,0.0,0.0,
2025-08-15T00:59:18.872Z,2,GR86-040-3,1.4,0.166,-0.025,99.92,3.0,,0.0,0.0,
2025-08-15T00:59:18.915Z,2,GR86-040-3,1.4,0.181,-0.008,99.93,3.0,6494.0,0.0,0.0,
2025-08-15T00:59:18.958Z,2,GR86-040-3,1.4,0.173,-0.035,99.93,3.0,,0.0,0.0,138.25
2025-08-15T00:59:19.001Z,2,GR86-040-3,1.4,0.195,0.004,99.91,3.0,,0.0,0.0,
2025-08-15T00:59:19.044Z,2,GR86-040-3,1.4,0.196,0.003,99.93,3.0,,0.0,0.0,
2025-08-15T00:59:19.087Z,2,GR86-040-3,1.4,0.181,-0.029,99.94,3.0,,0.0,0.0,
2025-08-15T00:59:19.130Z,2,GR86-040-3,1.4,0.171,-0.033,99.93,3.0,6541.0,0.0,0.0,
2025-08-15T00:59:19.173Z,2,GR86-040-3,1.4,0.181,0.007,99.94,3.0,,0.0,0.0,139.51
2025-08-15T00:59:19.218Z,2,GR86-040-3,1.4,0.168,-0.003,99.94,3.0,,0.0,0.0,
2025-08-15T00:59:19.261Z,2,GR86-040-3,1.4,0.188,0.017,99.92,3.0,,0.0,0.0,
2025-08-15T00:59:19.304Z,2,GR86-040-3,1.4,0.193,0.027,99.93,3.0,,0.0,0.0,
2025-08-15T00:59:19.347Z,2,GR86-040-3,1.4,0.191,-0.017,99.94,3.0,6597.0,0.0,0.0,
2025-08-15T00:59:19.390Z,2,GR86-040-3,1.4,0.167,-0.015,99.9,3.0,,0.0,0.0,140.73
2025-08-15T00:59:19.433Z,2,GR86-040-3,1.4,0.171,0.012,99.95,3.0,,0.0,0.0,
2025-08-15T00:59:19.477Z,2,GR86-040-3,1.4,0.168,-0.007,99.92,3.0,,0.0,0.0,
2025-08-15T00:59:19.520Z,2,GR86-040-3,1.4,0.168,0.021,99.93,3.0,,0.0,0.0,
2025-08-15T00:59:19.563Z,2,GR86-040-3,1.4,0.185,0.027,99.9,3.0,6658.0,0.0,0.0,
2025-08-15T00:59:19.608Z,2,GR86-040-3,1.4,0.184,0.004,99.9,3.0,,0.0,0.0,141.9
2025-08-15T00:59:19.651Z,2,GR86-040-3,1.4,0.189,-0.027,99.93,3.0,,0.0,0.0,
2025-08-15T00:59:19.694Z,2,GR86-040-3,1.2000000000000002,0.165,-0.014,99.94,3.0,,0.0,0.0,
2025-08-15T00:59:19.738Z,2,GR86-040-3,0.8,0.171,-0.041,99.94,3.0,,0.0,0.0,
2025-08-15T00:59:19.781Z,2,GR86-040-3,0.8,0.172,-0.022,99.94,3.0,6720.0,0.0,0.0,
2025-08-15T00:59:19.824Z,2,GR86-040-3,0.8,0.169,-0.008,99.94,3.0,,0.0,0.0,144.28
2025-08-15T00:59:19.867Z,2,GR86-040-3,0.8,0.186,-0.003,99.94,3.0,,0.0,0.0,
2025-08-15T00:59:19.910Z,2,GR86-040-3,0.8,0.185,-0.015,80.41,3.0,,0.0,0.0,
2025-08-15T00:59:19.953Z,2,GR86-040-3,0.8,0.165,-0.043,34.32,3.0,,6.625,6.865,
2025-08-15T00:59:19.998Z,2,GR86-040-3,0.8,0.039,-0.035,5.4,3.0,6767.0,12.74,12.925,
2025-08-15T00:59:20.041Z,2,GR86-040-3,0.8,-0.133,-0.056,4.94,3.0,,16.71,17.03,145.46
2025-08-15T00:59:20.084Z,2,GR86-040-3,0.8,-0.396,-0.006,4.58,3.0,,19.76,20.265,
2025-08-15T00:59:20.129Z,2,GR86-040-3,0.8,-0.513,-0.018,4.19,3.0,,21.93,22.16,
2025-08-15T00:59:20.172Z,2,GR86-040-3,0.8,-0.686,-0.054,3.71,3.0,,23.335,23.53,
2025-08-15T00:59:20.215Z,2,GR86-040-3,0.8,-0.534,0.009,3.2,3.0,6804.0,24.4,24.765,
2025-08-15T00:59:20.258Z,2,GR86-040-3,0.8,-0.546,-0.067,2.91,3.0,,26.4,26.505,144.43
2025-08-15T00:59:20.301Z,2,GR86-040-3,0.8,-0.558,-0.017,2.81,3.0,,27.865,28.4,
2025-08-15T00:59:20.344Z,2,GR86-040-3,0.8,-0.562,-0.078,2.74,3.0,,28.215,28.9,
2025-08-15T00:59:20.387Z,2,GR86-040-3,0.8,-0.63,-0.071,2.69,3.0,,27.865,28.215,
2025-08-15T00:59:20.430Z,2,GR86-040-3,0.8,-0.622,-0.051,2.66,3.0,6312.0,27.71,28.035,
2025-08-15T00:59:20.473Z,2,GR86-040-3,0.7000000000000001,-0.595,-0.102,2.63,3.0,,28.125,28.81,140.75
2025-08-15T00:59:20.518Z,2,GR86-040-3,-2.0,-0.592,-0.088,2.6,3.0,,27.925,28.49,
2025-08-15T00:59:20.561Z,2,GR86-040-3,-3.5,-0.5650000000000001,-0.131,2.58,3.0,,28.095,28.935,
2025-08-15T00:59:20.604Z,2,GR86-040-3,-3.8,-0.58,-0.135,2.59,3.0,,27.71,28.275,
2025-08-15T00:59:20.647Z,2,GR86-040-3,-3.9,-0.625,-0.148,2.56,3.0,6128.0,27.835,28.245,
2025-08-15T00:59:20.690Z,2,GR86-040-3,-3.9,-0.599,-0.153,2.5500000000000003,3.0,,28.305,29.115,136.61
2025-08-15T00:59:20.733Z,2,GR86-040-3,-3.9,-0.587,-0.195,2.56,3.0,,28.155,29.025,
2025-08-15T00:59:20.821Z,2,GR86-040-3,-3.9,-0.595,-0.219,2.5500000000000003,3.0,,28.34,29.21,
2025-08-15T00:59:20.864Z,2,GR86-040-3,-3.9,-0.616,-0.228,2.53,3.0,5933.0,27.115,27.5,
2025-08-15T00:59:20.907Z,2,GR86-040-3,-3.9,-0.5730000000000001,-0.256,2.52,3.0,,24.17,25.3,132.41
2025-08-15T00:59:20.951Z,2,GR86-040-3,-3.9,-0.523,-0.259,2.52,3.0,,18.435,19.365,
2025-08-15T00:59:20.994Z,2,GR86-040-3,-3.9,-0.446,-0.247,2.52,3.0,,13.275,13.765,
2025-08-15T00:59:21.037Z,2,GR86-040-3,-3.9,-0.366,-0.239,2.52,3.0,,11.125,11.58,
2025-08-15T00:59:21.081Z,2,GR86-040-3,-3.9,-0.361,-0.25,2.51,3.0,5781.0,11.78,12.5,
2025-08-15T00:59:21.124Z,2,GR86-040-3,-4.0,-0.35,-0.256,2.51,3.0,,11.81,12.53,128.37
2025-08-15T00:59:21.168Z,2,GR86-040-3,-4.0,-0.386,-0.232,2.51,3.0,,11.84,12.42,
2025-08-15T00:59:21.211Z,2,GR86-040-3,-4.0,-0.373,-0.2,2.51,3.0,,12.5,13.14,
2025-08-15T00:59:21.254Z,2,GR86-040-3,-4.0,-0.367,-0.228,2.52,3.0,,12.145,12.895,
2025-08-15T00:59:21.341Z,2,GR86-040-3,-4.0,-0.365,-0.197,2.51,3.0,5677.0,11.125,11.49,125.56
2025-08-15T00:59:21.384Z,2,GR86-040-3,-4.0,-0.363,-0.172,2.52,3.0,,11.46,12.27,
2025-08-15T00:59:21.429Z,2,GR86-040-3,-4.0,-0.346,-0.192,2.52,3.0,,11.46,12.175,
2025-08-15T00:59:21.472Z,2,GR86-040-3,-4.0,-0.365,-0.185,2.52,3.0,,10.085,10.5,
2025-08-15T00:59:21.515Z,2,GR86-040-3,-4.0,-0.319,-0.181,2.51,3.0,5565.0,5.705,6.425,
2025-08-15T00:59:21.558Z,2,GR86-040-3,-4.0,-0.213,-0.186,2.51,3.0,,2.365,3.1,123.01
2025-08-15T00:59:21.601Z,2,GR86-040-3,-4.0,-0.219,-0.213,2.52,3.0,,2.365,2.76,
2025-08-15T00:59:21.644Z,2,GR86-040-3,-4.0,-0.203,-0.183,2.52,3.0,,2.73,3.19,
2025-08-15T00:59:21.687Z,2,GR86-040-3,-4.0,-0.192,-0.17,2.51,3.0,,3.845,4.275,
2025-08-15T00:59:21.731Z,2,GR86-040-3,-4.0,-0.216,-0.191,2.51,3.0,5479.0,4.745,5.19,
2025-08-15T00:59:21.774Z,2,GR86-040-3,-3.8,-0.245,-0.153,2.51,3.0,,6.21,6.545,120.71
2025-08-15T00:59:21.818Z,2,GR86-040-3,-1.2000000000000002,-0.286,-0.142,2.52,3.0,,8.3,8.67,
2025-08-15T00:59:21.861Z,2,GR86-040-3,1.3,-0.299,-0.138,2.51,3.0,,8.94,9.43,
2025-08-15T00:59:21.904Z,2,GR86-040-3,2.5,-0.299,-0.127,2.52,3.0,,8.635,9.065,
2025-08-15T00:59:21.947Z,2,GR86-040-3,2.5,-0.304,-0.08,2.51,3.0,5403.0,9.035,9.49,
2025-08-15T00:59:21.991Z,2,GR86-040-3,2.7,-0.291,-0.099,2.51,3.0,,8.395,9.035,119.31
2025-08-15T00:59:22.034Z,2,GR86-040-3,3.3000000000000003,-0.291,-0.083,2.5,3.0,,6.745,7.11,
2025-08-15T00:59:22.078Z,2,GR86-040-3,4.800000000000001,-0.229,-0.053,2.51,3.0,,4.0,4.565,
2025-08-15T00:59:22.121Z,2,GR86-040-3,5.4,-0.223,-0.021,2.52,3.0,,3.905,4.5,
2025-08-15T00:59:22.164Z,2,GR86-040-3,5.9,-0.233,0.0,2.51,3.0,5309.0,3.97,4.47,
2025-08-15T00:59:22.208Z,2,GR86-040-3,6.2,-0.217,0.035,2.51,3.0,,4.44,4.87,117.3
2025-08-15T00:59:22.251Z,2,GR86-040-3,6.4,-0.231,0.045,2.5,3.0,,4.625,5.19,
2025-08-15T00:59:22.294Z,2,GR86-040-3,6.7,-0.232,0.045,2.52,3.0,,4.805,5.16,
2025-08-15T00:59:22.337Z,2,GR86-040-3,6.800000000000001,-0.245,0.084,2.5,3.0,,4.9,5.3100000000000005,
2025-08-15T00:59:22.380Z,2,GR86-040-3,6.9,-0.24,0.115,2.51,3.0,5249.0,5.05,5.675,
2025-08-15T00:59:22.423Z,2,GR86-040-3,7.0,-0.246,0.108,2.51,3.0,,4.15,4.5,114.01
2025-08-15T00:59:22.468Z,2,GR86-040-3,7.1000000000000005,-0.199,0.128,2.5,3.0,,0.0,2.275,
2025-08-15T00:59:22.511Z,2,GR86-040-3,7.7,-0.167,0.131,2.49,3.0,,0.0,0.0,
2025-08-15T00:59:22.554Z,2,GR86-040-3,8.3,-0.158,0.13,2.5,3.0,,0.0,0.0,
2025-08-15T00:59:22.597Z,2,GR86-040-3,8.700000000000001,-0.152,0.154,2.49,3.0,5173.0,0.0,0.0,
2025-08-15T00:59:22.641Z,2,GR86-040-3,8.700000000000001,-0.145,0.173,2.49,3.0,,0.0,0.0,112.65
2025-08-15T00:59:22.684Z,2,GR86-040-3,8.700000000000001,-0.162,0.163,2.49,3.0,,0.0,0.0,
2025-08-15T00:59:22.729Z,2,GR86-040-3,8.8,-0.15,0.195,2.49,3.0,,0.0,0.0,
2025-08-15T00:59:22.773Z,2,GR86-040-3,8.8,-0.168,0.181,2.5,3.0,,0.0,0.0,
2025-08-15T00:59:22.818Z,2,GR86-040-3,8.8,-0.157,0.173,2.53,3.0,5078.0,0.0,0.0,
2025-08-15T00:59:22.861Z,2,GR86-040-3,8.8,-0.118,0.185,3.2,3.0,,0.0,0.0,111.64
2025-08-15T00:59:22.904Z,2,GR86-040-3,8.8,-0.13,0.192,4.32,3.0,,0.0,0.0,
2025-08-15T00:59:22.947Z,2,GR86-040-3,8.700000000000001,-0.137,0.182,4.5200000000000005,3.0,,0.0,0.0,
2025-08-15T00:59:22.990Z,2,GR86-040-3,8.700000000000001,-0.125,0.184,4.7,3.0,,0.0,0.0,
2025-08-15T00:59:23.033Z,2,GR86-040-3,8.700000000000001,-0.151,0.177,6.96,3.0,5034.0,0.0,0.0,
2025-08-15T00:59:23.076Z,2,GR86-040-3,8.8,-0.141,0.167,9.8,3.0,,0.0,0.0,110.77
2025-08-15T00:59:23.120Z,2,GR86-040-3,8.8,-0.087,0.178,11.8,3.0,,0.0,0.0,
2025-08-15T00:59:23.163Z,2,GR86-040-3,8.8,-0.097,0.172,14.87,3.0,,0.0,0.0,
2025-08-15T00:59:23.208Z,2,GR86-040-3,8.6,-0.085,0.167,18.27,3.0,,0.0,0.0,
2025-08-15T00:59:23.251Z,2,GR86-040-3,7.800000000000001,-0.103,0.184,21.59,3.0,5025.0,0.0,0.0,
2025-08-15T00:59:23.294Z,2,GR86-040-3,6.7,-0.142,0.166,21.84,3.0,,0.0,0.0,109.94
2025-08-15T00:59:23.338Z,2,GR86-040-3,5.7,-0.061,0.143,21.94,3.0,,0.0,0.0,
2025-08-15T00:59:23.381Z,2,GR86-040-3,5.6000000000000005,-0.049,0.149,22.0,3.0,,0.0,0.0,
2025-08-15T00:59:23.424Z,2,GR86-040-3,5.6000000000000005,0.19,0.139,22.03,3.0,,0.0,0.0,
2025-08-15T00:59:23.468Z,2,GR86-040-3,5.6000000000000005,0.201,0.129,22.07,3.0,5258.0,0.0,0.0,
2025-08-15T00:59:23.511Z,2,GR86-040-3,5.5,0.028,0.134,22.08,3.0,,0.0,0.0,109.24
2025-08-15T00:59:23.554Z,2,GR86-040-3,4.800000000000001,-0.049,0.138,22.09,3.0,,0.0,0.0,
2025-08-15T00:59:23.598Z,2,GR86-040-3,3.6,0.077,0.09,22.08,3.0,,0.0,0.0,
2025-08-15T00:59:23.641Z,2,GR86-040-3,3.0,0.124,0.113,22.08,3.0,,0.0,0.0,
2025-08-15T00:59:23.684Z,2,GR86-040-3,1.9,0.056,0.061,22.57,3.0,5131.0,0.0,0.0,
2025-08-15T00:59:23.730Z,2,GR86-040-3,0.4,0.043,0.076,23.56,3.0,,0.0,0.0,109.25
2025-08-15T00:59:23.773Z,2,GR86-040-3,-1.5,0.038,0.052,24.72,3.0,,0.0,0.0,
2025-08-15T00:59:23.818Z,2,GR86-040-3,-4.4,0.07,-0.001,27.32,3.0,,0.0,0.0,
2025-08-15T00:59:23.861Z,2,GR86-040-3,-5.6000000000000005,0.092,-0.03,31.98,3.0,,0.0,0.0,
2025-08-15T00:59:23.904Z,2,GR86-040-3,-6.4,0.091,-0.036,36.45,3.0,5116.0,0.0,0.0,
2025-08-15T00:59:23.947Z,2,GR86-040-3,-7.0,0.092,-0.081,38.81,3.0,,0.0,0.0,109.72
2025-08-15T00:59:23.990Z,2,GR86-040-3,-7.5,0.156,-0.08,40.38,3.0,,0.0,0.0,
2025-08-15T00:59:24.033Z,2,GR86-040-3,-8.0,0.161,-0.124,42.94,3.0,,0.0,0.0,
2025-08-15T00:59:24.078Z,2,GR86-040-3,-8.9,0.15,-0.152,45.89,3.0,,0.0,0.0,
2025-08-15T00:59:24.121Z,2,GR86-040-3,-9.6,0.158,-0.174,49.2,3.0,5188.0,0.0,0.0,
2025-08-15T00:59:24.164Z,2,GR86-040-3,-10.3,0.151,-0.178,52.63,3.0,,0.0,0.0,110.3
2025-08-15T00:59:24.208Z,2,GR86-040-3,-11.0,0.158,-0.228,54.03,3.0,,0.0,0.0,
2025-08-15T00:59:24.251Z,2,GR86-040-3,-11.2,0.203,-0.223,54.42,3.0,,0.0,0.0,
2025-08-15T00:59:24.294Z,2,GR86-040-3,-11.3,0.184,-0.237,59.06,3.0,,0.0,0.0,
2025-08-15T00:59:24.337Z,2,GR86-040-3,-11.4,0.176,-0.25,75.44,3.0,5235.0,0.0,0.0,
2025-08-15T00:59:24.380Z,2,GR86-040-3,-11.4,0.196,-0.272,94.59,3.0,,0.0,0.0,111.23
2025-08-15T00:59:24.423Z,2,GR86-040-3,-11.4,0.198,-0.275,99.58,3.0,,0.0,0.0,
2025-08-15T00:59:24.467Z,2,GR86-040-3,-11.4,0.201,-0.308,99.88,3.0,,0.0,0.0,
2025-08-15T00:59:24.511Z,2,GR86-040-3,-11.4,0.213,-0.292,99.87,3.0,,0.0,0.0,
2025-08-15T00:59:24.554Z,2,GR86-040-3,-11.4,0.181,-0.305,99.87,3.0,5311.0,0.0,0.0,
2025-08-15T00:59:24.597Z,2,GR86-040-3,-11.4,0.177,-0.316,99.88,3.0,,0.0,0.0,112.52
2025-08-15T00:59:24.641Z,2,GR86-040-3,-11.4,0.202,-0.336,99.87,3.0,,0.0,0.0,
2025-08-15T00:59:24.684Z,2,GR86-040-3,-11.4,0.205,-0.307,99.87,3.0,,0.0,0.0,
2025-08-15T00:59:24.729Z,2,GR86-040-3,-11.4,0.181,-0.333,99.87,3.0,,0.0,0.0,
2025-08-15T00:59:24.772Z,2,GR86-040-3,-11.4,0.198,-0.334,99.88,3.0,5380.0,0.0,0.0,
2025-08-15T00:59:24.815Z,2,GR86-040-3,-11.4,0.198,-0.33,99.87,3.0,,0.0,0.0,114.03
2025-08-15T00:59:24.858Z,2,GR86-040-3,-11.4,0.202,-0.324,99.87,3.0,,0.0,0.0,
2025-08-15T00:59:24.901Z,2,GR86-040-3,-11.4,0.192,-0.326,99.87,3.0,,0.0,0.0,
2025-08-15T00:59:24.944Z,2,GR86-040-3,-11.4,0.203,-0.304,99.88,3.0,,0.0,0.0,
2025-08-15T00:59:24.988Z,2,GR86-040-3,-11.4,0.18,-0.306,99.87,3.0,5446.0,0.0,0.0,
2025-08-15T00:59:25.031Z,2,GR86-040-3,-10.9,0.19,-0.307,99.88,3.0,,0.0,0.0,117.04
2025-08-15T00:59:25.074Z,2,GR86-040-3,-10.0,0.206,-0.302,99.88,3.0,,0.0,0.0,
2025-08-15T00:59:25.118Z,2,GR86-040-3,-8.8,0.201,-0.296,99.86,3.0,,0.0,0.0,
2025-08-15T00:59:25.161Z,2,GR86-040-3,-8.1,0.177,-0.297,99.87,3.0,,0.0,0.0,
2025-08-15T00:59:25.204Z,2,GR86-040-3,-7.800000000000001,0.198,-0.282,99.88,3.0,5516.0,0.0,0.0,
2025-08-15T00:59:25.247Z,2,GR86-040-3,-7.800000000000001,0.212,-0.241,99.87,3.0,,0.0,0.0,118.55
2025-08-15T00:59:25.291Z,2,GR86-040-3,-7.800000000000001,0.176,-0.244,99.87,3.0,,0.0,0.0,
2025-08-15T00:59:25.334Z,2,GR86-040-3,-7.4,0.192,-0.255,99.88,3.0,,0.0,0.0,
2025-08-15T00:59:25.378Z,2,GR86-040-3,-6.300000000000001,0.207,-0.245,99.91,3.0,,0.0,0.0,
2025-08-15T00:59:25.421Z,2,GR86-040-3,-5.300000000000001,0.214,-0.218,99.87,3.0,5655.0,0.0,0.0,
2025-08-15T00:59:25.464Z,2,GR86-040-3,-5.0,0.188,-0.2,99.9,3.0,,0.0,0.0,119.96
2025-08-15T00:59:25.508Z,2,GR86-040-3,-4.4,0.192,-0.222,99.9,3.0,,0.0,0.0,
2025-08-15T00:59:25.551Z,2,GR86-040-3,-3.1,0.209,-0.19,99.88,3.0,,0.0,0.0,
2025-08-15T00:59:25.594Z,2,GR86-040-3,-1.6,0.199,-0.171,99.89,3.0,,0.0,0.0,
2025-08-15T00:59:25.637Z,2,GR86-040-3,-0.1,0.189,-0.136,99.89,3.0,5719.0,0.0,0.0,
2025-08-15T00:59:25.681Z,2,GR86-040-3,0.8,0.199,-0.12,99.9,3.0,,0.0,0.0,121.39
2025-08-15T00:59:25.724Z,2,GR86-040-3,1.6,0.188,-0.097,99.91,3.0,,0.0,0.0,
2025-08-15T00:59:25.768Z,2,GR86-040-3,2.8000000000000003,0.19,-0.079,99.9,3.0,,0.0,0.0,
2025-08-15T00:59:25.811Z,2,GR86-040-3,3.9,0.196,-0.055,99.9,3.0,,0.0,0.0,
2025-08-15T00:59:25.854Z,2,GR86-040-3,4.6000000000000005,0.2,-0.015,99.91,3.0,5793.0,0.0,0.0,
2025-08-15T00:59:25.897Z,2,GR86-040-3,5.2,0.187,0.015,99.9,3.0,,0.0,0.0,122.94
2025-08-15T00:59:25.941Z,2,GR86-040-3,5.5,0.181,0.044,99.9,3.0,,0.0,0.0,
2025-08-15T00:59:25.984Z,2,GR86-040-3,5.7,0.188,0.069,99.9,3.0,,0.0,0.0,
2025-08-15T00:59:26.029Z,2,GR86-040-3,5.9,0.196,0.074,99.91,3.0,,0.0,0.0,
2025-08-15T00:59:26.073Z,2,GR86-040-3,5.9,0.197,0.097,99.9,3.0,5859.0,0.0,0.0,
2025-08-15T00:59:26.118Z,2,GR86-040-3,5.9,0.186,0.116,99.9,3.0,,0.0,0.0,124.5
2025-08-15T00:59:26.161Z,2,GR86-040-3,5.9,0.199,0.144,99.9,3.0,,0.0,0.0,
2025-08-15T00:59:26.204Z,2,GR86-040-3,5.9,0.204,0.15,99.89,3.0,,0.0,0.0,
2025-08-15T00:59:26.247Z,2,GR86-040-3,5.9,0.185,0.148,99.9,3.0,,0.0,0.0,
2025-08-15T00:59:26.290Z,2,GR86-040-3,5.9,0.197,0.181,99.9,3.0,5922.0,0.0,0.0,
2025-08-15T00:59:26.333Z,2,GR86-040-3,5.9,0.201,0.184,99.9,3.0,,0.0,0.0,125.97
2025-08-15T00:59:26.377Z,2,GR86-040-3,5.9,0.206,0.183,99.9,3.0,,0.0,0.0,
2025-08-15T00:59:26.421Z,2,GR86-040-3,5.9,0.2,0.164,99.9,3.0,,0.0,0.0,
2025-08-15T00:59:26.464Z,2,GR86-040-3,5.9,0.187,0.158,99.88,3.0,,0.0,0.0,
2025-08-15T00:59:26.508Z,2,GR86-040-3,5.9,0.199,0.175,99.9,3.0,5991.0,0.0,0.0,
2025-08-15T00:59:26.551Z,2,GR86-040-3,5.9,0.202,0.165,99.89,3.0,,0.0,0.0,127.44
2025-08-15T00:59:26.594Z,2,GR86-040-3,5.9,0.185,0.148,99.91,3.0,,0.0,0.0,
2025-08-15T00:59:26.638Z,2,GR86-040-3,5.9,0.189,0.152,88.75,3.0,,0.0,0.0,
2025-08-15T00:59:26.681Z,2,GR86-040-3,5.9,0.193,0.143,37.51,3.0,,0.0,0.0,
2025-08-15T00:59:26.724Z,2,GR86-040-3,5.9,0.194,0.163,16.37,3.0,6054.0,4.365,4.565,
2025-08-15T00:59:26.768Z,2,GR86-040-3,5.9,0.115,0.134,5.17,3.0,,7.08,7.43,128.82
2025-08-15T00:59:26.811Z,2,GR86-040-3,5.9,-0.106,0.136,4.97,3.0,,10.055,10.18,
2025-08-15T00:59:26.854Z,2,GR86-040-3,5.9,-0.297,0.172,4.71,3.0,,13.015,13.14,
2025-08-15T00:59:26.898Z,2,GR86-040-3,5.9,-0.5690000000000001,0.113,4.17,3.0,,15.81,16.115000000000002,
2025-08-15T00:59:26.941Z,2,GR86-040-3,5.9,-0.484,0.138,3.59,3.0,6001.0,17.335,17.96,
2025-08-15T00:59:26.984Z,2,GR86-040-3,5.9,-0.426,0.122,3.15,3.0,,17.395,17.84,130.18
2025-08-15T00:59:27.029Z,2,GR86-040-3,5.9,-0.437,0.096,2.94,3.0,,17.365000000000002,17.78,
2025-08-15T00:59:27.072Z,2,GR86-040-3,5.9,-0.41,0.162,2.81,3.0,,17.745,18.465,
2025-08-15T00:59:27.115Z,2,GR86-040-3,5.9,-0.447,0.082,2.74,3.0,,17.395,17.93,
2025-08-15T00:59:27.161Z,2,GR86-040-3,5.9,-0.396,0.123,2.71,3.0,5891.0,16.740000000000002,17.425,
2025-08-15T00:59:27.204Z,2,GR86-040-3,5.9,-0.448,0.09,2.68,3.0,,15.43,15.87,129.4
2025-08-15T00:59:27.247Z,2,GR86-040-3,5.9,-0.39,0.096,2.66,3.0,,13.045,13.885,
2025-08-15T00:59:27.290Z,2,GR86-040-3,5.9,-0.337,0.101,2.65,3.0,,11.125,11.84,
2025-08-15T00:59:27.333Z,2,GR86-040-3,5.9,-0.405,0.078,2.62,3.0,,9.57,10.085,
2025-08-15T00:59:27.378Z,2,GR86-040-3,5.9,-0.341,0.091,2.58,3.0,5723.0,6.775,7.295,
2025-08-15T00:59:27.421Z,2,GR86-040-3,5.9,-0.279,0.104,2.58,3.0,,5.705,6.335,123.92
2025-08-15T00:59:27.464Z,2,GR86-040-3,5.9,-0.22,0.078,2.56,3.0,,4.24,4.625,
2025-08-15T00:59:27.507Z,2,GR86-040-3,5.9,-0.245,0.09,2.56,3.0,,3.065,3.435,
2025-08-15T00:59:27.551Z,2,GR86-040-3,5.9,-0.208,0.106,2.5500000000000003,3.0,,2.305,2.795,
2025-08-15T00:59:27.594Z,2,GR86-040-3,5.9,-0.192,0.086,2.56,3.0,5618.0,0.0,0.0,
2025-08-15T00:59:27.637Z,2,GR86-040-3,5.9,-0.149,0.092,2.53,3.0,,0.0,0.0,122.3
2025-08-15T00:59:27.681Z,2,GR86-040-3,5.9,-0.142,0.089,2.52,3.0,,0.0,0.0,
2025-08-15T00:59:27.724Z,2,GR86-040-3,5.5,-0.155,0.11,2.51,3.0,,0.0,0.0,
2025-08-15T00:59:27.768Z,2,GR86-040-3,5.1000000000000005,-0.149,0.098,2.53,3.0,,0.0,0.0,
2025-08-15T00:59:27.811Z,2,GR86-040-3,4.800000000000001,-0.163,0.083,2.51,3.0,5558.0,0.0,0.0,
2025-08-15T00:59:27.854Z,2,GR86-040-3,4.4,-0.151,0.095,2.52,3.0,,0.0,0.0,121.32
2025-08-15T00:59:27.897Z,2,GR86-040-3,3.7,-0.141,0.101,2.51,3.0,,0.0,0.0,
2025-08-15T00:59:27.941Z,2,GR86-040-3,3.5,-0.145,0.079,2.5,3.0,,0.0,0.0,
2025-08-15T00:59:27.984Z,2,GR86-040-3,3.5,-0.15,0.068,2.49,3.0,,0.0,0.0,
2025-08-15T00:59:28.029Z,2,GR86-040-3,3.3000000000000003,-0.143,0.071,2.49,3.0,5466.0,0.0,0.0,
2025-08-15T00:59:28.072Z,2,GR86-040-3,2.7,-0.152,0.049,2.5,3.0,,0.0,0.0,120.35
2025-08-15T00:59:28.115Z,2,GR86-040-3,2.1,-0.143,0.044,2.5,3.0,,0.0,0.0,
2025-08-15T00:59:28.158Z,2,GR86-040-3,0.9,-0.147,0.038,2.49,3.0,,0.0,0.0,
2025-08-15T00:59:28.201Z,2,GR86-040-3,-0.2,-0.152,0.036,2.49,3.0,,0.0,0.0,
2025-08-15T00:59:28.244Z,2,GR86-040-3,-1.5,-0.146,0.01,2.5,3.0,5435.0,0.0,0.0,
2025-08-15T00:59:28.287Z,2,GR86-040-3,-2.5,-0.153,-0.002,2.49,3.0,,0.0,0.0,119.51
2025-08-15T00:59:28.331Z,2,GR86-040-3,-3.4000000000000004,-0.145,-0.002,2.49,3.0,,0.0,0.0,
2025-08-15T00:59:28.374Z,2,GR86-040-3,-4.3,-0.156,-0.037,2.49,3.0,,0.0,0.0,
2025-08-15T00:59:28.418Z,2,GR86-040-3,-5.6000000000000005,-0.149,-0.062,2.49,3.0,,0.0,0.0,
2025-08-15T00:59:28.461Z,2,GR86-040-3,-6.2,-0.15,-0.079,2.49,3.0,5397.0,0.0,0.0,
2025-08-15T00:59:28.504Z,2,GR86-040-3,-6.4,-0.143,-0.101,2.5,3.0,,0.0,0.0,118.63
2025-08-15T00:59:28.547Z,2,GR86-040-3,-6.4,-0.159,-0.13,2.5,3.0,,0.0,0.0,
2025-08-15T00:59:28.591Z,2,GR86-040-3,-6.4,-0.15,-0.144,2.49,3.0,,0.0,0.0,
2025-08-15T00:59:28.634Z,2,GR86-040-3,-6.4,-0.142,-0.155,2.49,3.0,,0.0,0.0,
2025-08-15T00:59:28.678Z,2,GR86-040-3,-6.4,-0.146,-0.186,2.5,3.0,5357.0,0.0,0.0,
2025-08-15T00:59:28.721Z,2,GR86-040-3,-6.4,-0.148,-0.195,2.49,3.0,,0.0,0.0,117.73
2025-08-15T00:59:28.764Z,2,GR86-040-3,-6.4,-0.153,-0.2,2.49,3.0,,0.0,0.0,
2025-08-15T00:59:28.808Z,2,GR86-040-3,-6.4,-0.149,-0.225,2.49,3.0,,0.0,0.0,
2025-08-15T00:59:28.894Z,2,GR86-040-3,-6.4,-0.141,-0.203,2.49,3.0,5317.0,0.0,0.0,
2025-08-15T00:59:28.937Z,2,GR86-040-3,-6.4,-0.138,-0.198,2.5,3.0,,0.0,0.0,116.85
2025-08-15T00:59:28.981Z,2,GR86-040-3,-6.4,-0.146,-0.216,2.5,3.0,,0.0,0.0,
2025-08-15T00:59:29.024Z,2,GR86-040-3,-6.4,-0.163,-0.206,2.49,3.0,,0.0,0.0,
2025-08-15T00:59:29.068Z,2,GR86-040-3,-6.4,-0.148,-0.23,2.5,3.0,,0.0,0.0,
2025-08-15T00:59:29.111Z,2,GR86-040-3,-6.4,-0.143,-0.224,2.49,3.0,5261.0,0.0,0.0,
2025-08-15T00:59:29.154Z,2,GR86-040-3,-6.4,-0.152,-0.215,2.5,3.0,,0.0,0.0,115.91
2025-08-15T00:59:29.197Z,2,GR86-040-3,-6.4,-0.15,-0.202,2.49,3.0,,0.0,0.0,
2025-08-15T00:59:29.240Z,2,GR86-040-3,-6.4,-0.135,-0.21,2.5,3.0,,0.0,0.0,
2025-08-15T00:59:29.283Z,2,GR86-040-3,-6.4,-0.147,-0.203,2.49,3.0,,0.0,0.0,
2025-08-15T00:59:29.369Z,2,GR86-040-3,-6.4,-0.144,-0.207,2.5,3.0,5236.0,0.0,0.0,115.07
2025-08-15T00:59:29.413Z,2,GR86-040-3,-6.4,-0.157,-0.207,2.49,3.0,,0.0,0.0,
2025-08-15T00:59:29.456Z,2,GR86-040-3,-6.4,-0.138,-0.208,2.5,3.0,,0.0,0.0,
2025-08-15T00:59:29.501Z,2,GR86-040-3,-6.4,-0.138,-0.211,2.49,3.0,,0.0,0.0,
2025-08-15T00:59:29.544Z,2,GR86-040-3,-6.5,-0.146,-0.213,2.49,3.0,5189.0,0.0,0.0,
2025-08-15T00:59:29.587Z,2,GR86-040-3,-6.4,-0.164,-0.208,2.5,3.0,,0.0,0.0,114.15
2025-08-15T00:59:29.630Z,2,GR86-040-3,-6.5,-0.147,-0.223,2.49,3.0,,0.0,0.0,
2025-08-15T00:59:29.673Z,2,GR86-040-3,-6.4,-0.155,-0.205,2.5,3.0,,0.0,0.0,
2025-08-15T00:59:29.718Z,2,GR86-040-3,-6.5,-0.147,-0.203,2.49,3.0,,0.0,0.0,
2025-08-15T00:59:29.761Z,2,GR86-040-3,-6.4,-0.131,-0.22,2.49,3.0,5143.0,0.0,0.0,
2025-08-15T00:59:29.804Z,2,GR86-040-3,-6.5,-0.157,-0.21,2.5,3.0,,0.0,0.0,113.23
2025-08-15T00:59:29.847Z,2,GR86-040-3,-6.5,-0.154,-0.202,2.49,3.0,,0.0,0.0,
2025-08-15T00:59:29.933Z,2,GR86-040-3,-6.5,-0.144,-0.205,2.49,3.0,,0.0,0.0,
2025-08-15T00:59:29.977Z,2,GR86-040-3,-6.5,-0.141,-0.19,2.5,3.0,5103.0,0.0,0.0,
2025-08-15T00:59:30.021Z,2,GR86-040-3,-6.4,-0.138,-0.193,2.49,3.0,,0.0,0.0,111.55
2025-08-15T00:59:30.064Z,2,GR86-040-3,-6.1000000000000005,-0.158,-0.189,2.5,3.0,,0.0,0.0,
2025-08-15T00:59:30.108Z,2,GR86-040-3,-4.7,-0.135,-0.181,2.49,3.0,,0.0,0.0,
2025-08-15T00:59:30.151Z,2,GR86-040-3,-4.3,-0.129,-0.189,2.5,3.0,,0.0,0.0,
2025-08-15T00:59:30.194Z,2,GR86-040-3,-4.3,-0.144,-0.162,2.49,3.0,5070.0,0.0,0.0,
2025-08-15T00:59:30.238Z,2,GR86-040-3,-3.1,-0.147,-0.131,2.49,3.0,,0.0,0.0,110.64
2025-08-15T00:59:30.281Z,2,GR86-040-3,-1.9,-0.13,-0.144,2.49,3.0,,0.0,0.0,
2025-08-15T00:59:30.324Z,2,GR86-040-3,-0.5,-0.152,-0.126,2.49,3.0,,0.0,0.0,
2025-08-15T00:59:30.367Z,2,GR86-040-3,0.1,-0.142,-0.122,2.49,3.0,,0.0,0.0,
2025-08-15T00:59:30.410Z,2,GR86-040-3,0.8,-0.152,-0.117,2.49,3.0,5025.0,0.0,0.0,
2025-08-15T00:59:30.453Z,2,GR86-040-3,1.5,-0.146,-0.067,2.5,3.0,,0.0,0.0,109.79
2025-08-15T00:59:30.498Z,2,GR86-040-3,2.6,-0.13,-0.043,2.5,3.0,,0.0,0.0,
2025-08-15T00:59:30.541Z,2,GR86-040-3,3.8,-0.133,-0.042,2.5,3.0,,0.0,0.0,
2025-08-15T00:59:30.584Z,2,GR86-040-3,4.9,-0.149,0.005,2.49,3.0,,0.0,0.0,
2025-08-15T00:59:30.629Z,2,GR86-040-3,5.6000000000000005,-0.129,0.017,2.49,3.0,4952.0,0.0,0.0,
2025-08-15T00:59:30.672Z,2,GR86-040-3,6.5,-0.141,0.046,2.49,3.0,,0.0,0.0,108.93
2025-08-15T00:59:30.715Z,2,GR86-040-3,7.0,-0.119,0.071,2.49,3.0,,0.0,0.0,
2025-08-15T00:59:30.758Z,2,GR86-040-3,7.0,-0.125,0.096,2.5,3.0,,0.0,0.0,
2025-08-15T00:59:30.801Z,2,GR86-040-3,7.1000000000000005,-0.147,0.106,2.48,3.0,,0.0,0.0,
2025-08-15T00:59:30.844Z,2,GR86-040-3,7.4,-0.127,0.137,2.49,3.0,4914.0,0.0,0.0,
2025-08-15T00:59:30.887Z,2,GR86-040-3,7.5,-0.134,0.128,2.52,3.0,,0.0,0.0,108.13
2025-08-15T00:59:30.930Z,2,GR86-040-3,7.5,-0.141,0.147,2.94,3.0,,0.0,0.0,
2025-08-15T00:59:30.973Z,2,GR86-040-3,7.5,-0.12,0.145,3.52,3.0,,0.0,0.0,
2025-08-15T00:59:31.018Z,2,GR86-040-3,7.5,-0.131,0.137,4.64,3.0,,0.0,0.0,
2025-08-15T00:59:31.061Z,2,GR86-040-3,7.5,-0.148,0.153,6.93,3.0,4878.0,0.0,0.0,
2025-08-15T00:59:31.104Z,2,GR86-040-3,7.5,-0.126,0.155,8.74,3.0,,0.0,0.0,107.31
2025-08-15T00:59:31.147Z,2,GR86-040-3,7.5,-0.133,0.15,9.15,3.0,,0.0,0.0,
2025-08-15T00:59:31.190Z,2,GR86-040-3,7.5,-0.096,0.161,9.85,3.0,,0.0,0.0,
2025-08-15T00:59:31.233Z,2,GR86-040-3,7.5,-0.083,0.145,11.4,3.0,,0.0,0.0,
2025-08-15T00:59:31.278Z,2,GR86-040-3,7.5,-0.098,0.136,15.95,3.0,4884.0,0.0,0.0,
2025-08-15T00:59:31.321Z,2,GR86-040-3,7.5,-0.12,0.17,17.7,3.0,,0.0,0.0,106.51
2025-08-15T00:59:31.364Z,2,GR86-040-3,7.5,-0.146,0.143,18.73,3.0,,0.0,0.0,
2025-08-15T00:59:31.408Z,2,GR86-040-3,7.6,-0.099,0.153,18.8,3.0,,0.0,0.0,
2025-08-15T00:59:31.451Z,2,GR86-040-3,7.1000000000000005,-0.053,0.15,18.83,3.0,,0.0,0.0,
2025-08-15T00:59:31.494Z,2,GR86-040-3,6.2,-0.074,0.136,18.82,3.0,4868.0,0.0,0.0,
2025-08-15T00:59:31.537Z,2,GR86-040-3,5.300000000000001,0.188,0.144,15.33,3.0,,0.0,0.0,105.88
2025-08-15T00:59:31.581Z,2,GR86-040-3,5.300000000000001,0.102,0.109,16.17,3.0,,0.0,0.0,
2025-08-15T00:59:31.624Z,2,GR86-040-3,5.300000000000001,-0.054,0.127,17.93,3.0,,0.0,0.0,
2025-08-15T00:59:31.668Z,2,GR86-040-3,5.300000000000001,-0.045,0.129,18.38,3.0,,0.0,0.0,
2025-08-15T00:59:31.711Z,2,GR86-040-3,5.300000000000001,-0.06,0.088,18.7,3.0,4794.0,0.0,0.0,
2025-08-15T00:59:31.754Z,2,GR86-040-3,5.300000000000001,0.025,0.124,18.73,3.0,,0.0,0.0,105.36
2025-08-15T00:59:31.797Z,2,GR86-040-3,5.300000000000001,0.055,0.083,18.8,3.0,,0.0,0.0,
2025-08-15T00:59:31.841Z,2,GR86-040-3,5.300000000000001,0.009,0.075,19.05,3.0,,0.0,0.0,
2025-08-15T00:59:31.884Z,2,GR86-040-3,5.300000000000001,-0.007,0.084,19.28,3.0,,0.0,0.0,
2025-08-15T00:59:31.929Z,2,GR86-040-3,5.300000000000001,0.023,0.069,19.56,3.0,4890.0,0.0,0.0,
2025-08-15T00:59:31.972Z,2,GR86-040-3,5.300000000000001,0.032,0.077,19.69,3.0,,0.0,0.0,105.53
2025-08-15T00:59:32.015Z,2,GR86-040-3,5.300000000000001,0.053,0.078,19.69,3.0,,0.0,0.0,
2025-08-15T00:59:32.058Z,2,GR86-040-3,5.300000000000001,0.038,0.083,19.69,3.0,,0.0,0.0,
2025-08-15T00:59:32.101Z,2,GR86-040-3,5.300000000000001,0.024,0.085,19.69,3.0,,0.0,0.0,
2025-08-15T00:59:32.144Z,2,GR86-040-3,5.300000000000001,0.049,0.096,19.66,3.0,4897.0,0.0,0.0,
2025-08-15T00:59:32.188Z,2,GR86-040-3,5.300000000000001,0.035,0.079,19.62,3.0,,0.0,0.0,105.69
2025-08-15T00:59:32.231Z,2,GR86-040-3,5.300000000000001,0.03,0.098,19.52,3.0,,0.0,0.0,
2025-08-15T00:59:32.274Z,2,GR86-040-3,5.300000000000001,0.033,0.077,19.47,3.0,,0.0,0.0,
2025-08-15T00:59:32.318Z,2,GR86-040-3,5.300000000000001,0.026,0.083,19.36,3.0,,0.0,0.0,
2025-08-15T00:59:32.361Z,2,GR86-040-3,5.300000000000001,0.022,0.108,19.3,3.0,4910.0,0.0,0.0,
2025-08-15T00:59:32.404Z,2,GR86-040-3,5.300000000000001,0.04,0.095,19.23,3.0,,0.0,0.0,105.99
2025-08-15T00:59:32.447Z,2,GR86-040-3,5.300000000000001,0.026,0.088,19.18,3.0,,0.0,0.0,
2025-08-15T00:59:32.491Z,2,GR86-040-3,5.300000000000001,0.04,0.094,19.05,3.0,,0.0,0.0,
2025-08-15T00:59:32.534Z,2,GR86-040-3,5.300000000000001,0.017,0.077,18.98,3.0,,0.0,0.0,
2025-08-15T00:59:32.578Z,2,GR86-040-3,5.300000000000001,0.026,0.09,18.83,3.0,4926.0,0.0,0.0,
2025-08-15T00:59:32.621Z,2,GR86-040-3,5.300000000000001,0.044,0.097,18.8,3.0,,0.0,0.0,106.69
2025-08-15T00:59:32.664Z,2,GR86-040-3,5.300000000000001,0.018,0.077,18.8,3.0,,0.0,0.0,
2025-08-15T00:59:32.708Z,2,GR86-040-3,5.300000000000001,0.017,0.099,18.79,3.0,,0.0,0.0,
2025-08-15T00:59:32.751Z,2,GR86-040-3,5.300000000000001,0.029,0.077,18.8,3.0,,0.0,0.0,
2025-08-15T00:59:32.794Z,2,GR86-040-3,5.300000000000001,0.02,0.094,18.79,3.0,4937.0,0.0,0.0,
2025-08-15T00:59:32.837Z,2,GR86-040-3,5.300000000000001,0.018,0.093,18.8,3.0,,0.0,0.0,107.0
2025-08-15T00:59:32.881Z,2,GR86-040-3,5.300000000000001,0.032,0.081,18.79,3.0,,0.0,0.0,
2025-08-15T00:59:32.924Z,2,GR86-040-3,5.300000000000001,0.017,0.075,18.8,3.0,,0.0,0.0,
2025-08-15T00:59:32.968Z,2,GR86-040-3,4.7,0.042,0.089,18.79,3.0,,0.0,0.0,
2025-08-15T00:59:33.011Z,2,GR86-040-3,3.1,0.017,0.068,18.8,3.0,4951.0,0.0,0.0,
2025-08-15T00:59:33.054Z,2,GR86-040-3,1.8,0.019,0.073,18.79,3.0,,0.0,0.0,107.3
2025-08-15T00:59:33.097Z,2,GR86-040-3,0.5,0.033,0.063,18.8,3.0,,0.0,0.0,
2025-08-15T00:59:33.141Z,2,GR86-040-3,-0.1,0.016,0.035,18.8,3.0,,0.0,0.0,
2025-08-15T00:59:33.184Z,2,GR86-040-3,-0.6000000000000001,0.016,0.052,18.82,3.0,,0.0,0.0,
2025-08-15T00:59:33.230Z,2,GR86-040-3,-0.8,0.021,0.02,18.92,3.0,4973.0,0.0,0.0,
2025-08-15T00:59:33.273Z,2,GR86-040-3,-0.8,0.021,0.015,19.06,3.0,,0.0,0.0,107.56
2025-08-15T00:59:33.318Z,2,GR86-040-3,-1.5,0.021,0.003,19.24,3.0,,0.0,0.0,
2025-08-15T00:59:33.361Z,2,GR86-040-3,-2.7,0.042,-0.013,19.31,3.0,,0.0,0.0,
2025-08-15T00:59:33.404Z,2,GR86-040-3,-3.7,0.013,-0.034,19.45,3.0,,0.0,0.0,
2025-08-15T00:59:33.447Z,2,GR86-040-3,-4.0,0.026,-0.029,19.69,3.0,4984.0,0.0,0.0,
2025-08-15T00:59:33.490Z,2,GR86-040-3,-4.0,0.025,-0.068,19.76,3.0,,0.0,0.0,107.84
2025-08-15T00:59:33.533Z,2,GR86-040-3,-4.0,0.022,-0.05,19.82,3.0,,0.0,0.0,
2025-08-15T00:59:33.577Z,2,GR86-040-3,-4.0,0.024,-0.059,19.4,3.0,,0.0,0.0,
2025-08-15T00:59:33.621Z,2,GR86-040-3,-3.3000000000000003,0.024,-0.088,19.31,3.0,,0.0,0.0,
2025-08-15T00:59:33.664Z,2,GR86-040-3,-2.5,0.018,-0.08,18.8,3.0,5005.0,0.0,0.0,
2025-08-15T00:59:33.708Z,2,GR86-040-3,-2.5,0.042,-0.092,14.49,3.0,,0.0,0.0,108.12
2025-08-15T00:59:33.751Z,2,GR86-040-3,-2.5,0.015,-0.098,13.24,3.0,,0.0,0.0,
2025-08-15T00:59:33.794Z,2,GR86-040-3,-2.5,0.004,-0.073,13.29,3.0,,0.0,0.0,
2025-08-15T00:59:33.838Z,2,GR86-040-3,-2.5,-0.023,-0.07,13.84,3.0,,0.0,0.0,
2025-08-15T00:59:33.881Z,2,GR86-040-3,-2.5,-0.062,-0.078,13.36,3.0,4999.0,0.0,0.0,
2025-08-15T00:59:33.924Z,2,GR86-040-3,-2.5,-0.072,-0.059,13.14,3.0,,0.0,0.0,108.5
2025-08-15T00:59:33.967Z,2,GR86-040-3,-2.4000000000000004,-0.062,-0.083,13.39,3.0,,0.0,0.0,
2025-08-15T00:59:34.010Z,2,GR86-040-3,-1.7000000000000002,-0.061,-0.075,13.68,3.0,,0.0,0.0,
2025-08-15T00:59:34.053Z,2,GR86-040-3,-0.8,-0.032,-0.068,14.49,3.0,,0.0,0.0,
2025-08-15T00:59:34.098Z,2,GR86-040-3,-0.7000000000000001,-0.029,-0.063,14.53,3.0,4999.0,0.0,0.0,
2025-08-15T00:59:34.141Z,2,GR86-040-3,-0.7000000000000001,-0.06,-0.074,14.56,3.0,,0.0,0.0,108.67
2025-08-15T00:59:34.184Z,2,GR86-040-3,-0.6000000000000001,-0.047,-0.056,14.6,3.0,,0.0,0.0,
2025-08-15T00:59:34.229Z,2,GR86-040-3,-0.2,-0.044,-0.084,14.43,3.0,,0.0,0.0,
2025-08-15T00:59:34.273Z,2,GR86-040-3,0.5,-0.033,-0.052,14.42,3.0,,0.0,0.0,
2025-08-15T00:59:34.318Z,2,GR86-040-3,0.6000000000000001,-0.035,-0.035,14.57,3.0,4986.0,0.0,0.0,
2025-08-15T00:59:34.361Z,2,GR86-040-3,0.6000000000000001,-0.037,-0.055,14.86,3.0,,0.0,0.0,108.45
2025-08-15T00:59:34.404Z,2,GR86-040-3,0.6000000000000001,-0.034,-0.028,15.08,3.0,,0.0,0.0,
2025-08-15T00:59:34.447Z,2,GR86-040-3,0.6000000000000001,-0.03,-0.03,15.14,3.0,,0.0,0.0,
2025-08-15T00:59:34.490Z,2,GR86-040-3,0.6000000000000001,-0.052,-0.038,15.84,3.0,,0.0,0.0,
2025-08-15T00:59:34.533Z,2,GR86-040-3,0.6000000000000001,-0.047,-0.022,16.01,3.0,4978.0,0.0,0.0,
2025-08-15T00:59:34.578Z,2,GR86-040-3,0.6000000000000001,-0.015,-0.023,15.86,3.0,,0.0,0.0,108.3
2025-08-15T00:59:34.621Z,2,GR86-040-3,0.6000000000000001,-0.028,-0.04,15.53,3.0,,0.0,0.0,
2025-08-15T00:59:34.664Z,2,GR86-040-3,0.6000000000000001,-0.023,-0.005,15.46,3.0,,0.0,0.0,
2025-08-15T00:59:34.708Z,2,GR86-040-3,0.7000000000000001,-0.019,-0.018,15.5,3.0,,0.0,0.0,
2025-08-15T00:59:34.794Z,2,GR86-040-3,1.1,-0.034,-0.005,15.98,3.0,4983.0,0.0,0.0,108.19
2025-08-15T00:59:34.837Z,2,GR86-040-3,1.6,-0.017,-0.003,17.900000000000002,3.0,,0.0,0.0,
2025-08-15T00:59:34.880Z,2,GR86-040-3,1.6,-0.027,0.003,17.93,3.0,,0.0,0.0,
2025-08-15T00:59:34.923Z,2,GR86-040-3,1.6,0.004,0.017,18.18,3.0,,0.0,0.0,
2025-08-15T00:59:34.968Z,2,GR86-040-3,1.6,0.006,-0.006,18.23,3.0,4971.0,0.0,0.0,
2025-08-15T00:59:35.011Z,2,GR86-040-3,1.6,0.011,0.027,18.28,3.0,,0.0,0.0,108.03
2025-08-15T00:59:35.054Z,2,GR86-040-3,1.6,0.015,0.006,18.32,3.0,,0.0,0.0,
2025-08-15T00:59:35.097Z,2,GR86-040-3,1.6,0.008,0.012,18.32,3.0,,0.0,0.0,
2025-08-15T00:59:35.140Z,2,GR86-040-3,1.5,0.008,0.024,18.32,3.0,,0.0,0.0,
2025-08-15T00:59:35.183Z,2,GR86-040-3,1.5,0.028,0.023,18.28,3.0,4984.0,0.0,0.0,
2025-08-15T00:59:35.226Z,2,GR86-040-3,1.5,0.007,0.017,18.22,3.0,,0.0,0.0,108.09
2025-08-15T00:59:35.269Z,2,GR86-040-3,1.5,0.015,0.029,18.22,3.0,,0.0,0.0,
2025-08-15T00:59:35.312Z,2,GR86-040-3,1.5,0.004,-0.006,18.19,3.0,,0.0,0.0,
2025-08-15T00:59:35.355Z,2,GR86-040-3,1.4,0.005,0.012,18.16,3.0,,0.0,0.0,
2025-08-15T00:59:35.398Z,2,GR86-040-3,1.1,0.006,0.018,18.16,3.0,4997.0,0.0,0.0,
2025-08-15T00:59:35.441Z,2,GR86-040-3,1.1,0.013,-0.002,18.16,3.0,,0.0,0.0,108.31
2025-08-15T00:59:35.484Z,2,GR86-040-3,1.1,0.009,0.005,18.16,3.0,,0.0,0.0,
2025-08-15T00:59:35.529Z,2,GR86-040-3,1.1,0.02,-0.004,18.16,3.0,,0.0,0.0,
2025-08-15T00:59:35.572Z,2,GR86-040-3,1.1,0.002,-0.022,18.14,3.0,,0.0,0.0,
2025-08-15T00:59:35.615Z,2,GR86-040-3,1.1,0.009,0.002,18.14,3.0,5003.0,0.0,0.0,
2025-08-15T00:59:35.658Z,2,GR86-040-3,1.1,0.023,-0.005,18.15,3.0,,0.0,0.0,108.5
2025-08-15T00:59:35.701Z,2,GR86-040-3,1.1,0.008,-0.026,18.12,3.0,,0.0,0.0,
2025-08-15T00:59:35.744Z,2,GR86-040-3,1.1,0.001,-0.003,18.13,3.0,,0.0,0.0,
2025-08-15T00:59:35.787Z,2,GR86-040-3,1.1,0.011,-0.027,18.1,3.0,,0.0,0.0,
2025-08-15T00:59:35.831Z,2,GR86-040-3,1.1,0.008,-0.017,17.68,3.0,5019.0,0.0,0.0,
2025-08-15T00:59:35.874Z,2,GR86-040-3,1.1,0.022,-0.003,17.26,3.0,,0.0,0.0,108.68
2025-08-15T00:59:35.918Z,2,GR86-040-3,0.5,0.022,-0.016,16.38,3.0,,0.0,0.0,
2025-08-15T00:59:35.961Z,2,GR86-040-3,0.0,0.004,-0.023,16.5,3.0,,0.0,0.0,
2025-08-15T00:59:36.004Z,2,GR86-040-3,-0.5,-0.003,-0.008,16.5,3.0,,0.0,0.0,
2025-08-15T00:59:36.047Z,2,GR86-040-3,-1.2000000000000002,-0.015,-0.04,16.63,3.0,5017.0,0.0,0.0,
2025-08-15T00:59:36.090Z,2,GR86-040-3,-1.3,-0.015,-0.015,16.81,3.0,,0.0,0.0,108.85
2025-08-15T00:59:36.133Z,2,GR86-040-3,-1.3,-0.003,-0.03,17.11,3.0,,0.0,0.0,
2025-08-15T00:59:36.178Z,2,GR86-040-3,-1.3,-0.001,-0.047,17.97,3.0,,0.0,0.0,
2025-08-15T00:59:36.221Z,2,GR86-040-3,-1.3,0.003,-0.049,18.41,3.0,,0.0,0.0,
2025-08-15T00:59:36.264Z,2,GR86-040-3,-1.3,0.005,-0.042,18.57,3.0,5028.0,0.0,0.0,
2025-08-15T00:59:36.308Z,2,GR86-040-3,-1.3,0.001,-0.068,18.7,3.0,,0.0,0.0,108.98
2025-08-15T00:59:36.351Z,2,GR86-040-3,-1.3,0.014,-0.05,18.79,3.0,,0.0,0.0,
