timestamp,lap,vehicle_id,steering_angle,accx_can,accy_can,ath,gear,nmot,pbrake_f,pbrake_r,speed
2025-08-14T21:54:25.058Z,4,GR86-013-80,1.1,0.112,0.032,99.9,4.0,,0.0,0.0,
2025-08-14T21:54:25.101Z,4,GR86-013-80,1.2000000000000002,0.124,0.032,99.9,4.0,6800.0,0.0,0.0,
2025-08-14T21:54:25.143Z,4,GR86-013-80,0.8,0.117,0.055,99.91,4.0,,0.0,0.0,173.05
2025-08-14T21:54:25.188Z,4,GR86-013-80,0.4,0.117,0.087,99.91,4.0,,0.0,0.0,
2025-08-14T21:54:25.231Z,4,GR86-013-80,0.1,0.108,0.065,99.91,4.0,,0.0,0.0,
2025-08-14T21:54:25.274Z,4,GR86-013-80,-0.3,0.096,0.051,99.92,4.0,,0.0,0.0,
2025-08-14T21:54:25.318Z,4,GR86-013-80,-0.4,0.126,0.061,99.91,4.0,6821.0,0.0,0.0,
2025-08-14T21:54:25.361Z,4,GR86-013-80,-0.6000000000000001,0.142,0.06,99.91,4.0,,0.0,0.0,173.83
2025-08-14T21:54:25.404Z,4,GR86-013-80,-0.6000000000000001,0.145,0.061,99.92,4.0,,0.0,0.0,
2025-08-14T21:54:25.492Z,4,GR86-013-80,-1.0,0.127,0.031,99.9,4.0,,0.0,0.0,
2025-08-14T21:54:25.538Z,4,GR86-013-80,-0.8,0.149,0.047,99.9,4.0,6861.0,0.0,0.0,
2025-08-14T21:54:25.581Z,4,GR86-013-80,-0.7000000000000001,0.12,0.019,99.9,4.0,,0.0,0.0,174.65
2025-08-14T21:54:25.624Z,4,GR86-013-80,-0.3,0.146,0.023,99.9,4.0,,0.0,0.0,
2025-08-14T21:54:25.667Z,4,GR86-013-80,0.4,0.123,0.021,99.9,4.0,,0.0,0.0,
2025-08-14T21:54:25.710Z,4,GR86-013-80,1.4,0.145,0.026,99.91,4.0,,0.0,0.0,
2025-08-14T21:54:25.753Z,4,GR86-013-80,2.5,0.141,0.034,99.9,4.0,6902.0,0.0,0.0,
2025-08-14T21:54:25.798Z,4,GR86-013-80,3.7,0.073,0.057,99.92,4.0,,0.0,0.0,175.31
2025-08-14T21:54:25.841Z,4,GR86-013-80,3.9,0.108,0.067,99.9,4.0,,0.0,0.0,
2025-08-14T21:54:25.883Z,4,GR86-013-80,3.6,0.098,0.105,99.92,4.0,,0.0,0.0,
2025-08-14T21:54:25.928Z,4,GR86-013-80,2.9000000000000004,0.113,0.106,99.91,4.0,,0.0,0.0,
2025-08-14T21:54:25.971Z,4,GR86-013-80,2.2,0.096,0.107,99.9,4.0,6924.0,0.0,0.0,
2025-08-14T21:54:26.014Z,4,GR86-013-80,1.9,0.121,0.125,99.9,4.0,,0.0,0.0,176.1
2025-08-14T21:54:26.058Z,4,GR86-013-80,1.5,0.126,0.124,99.91,4.0,,0.0,0.0,
2025-08-14T21:54:26.101Z,4,GR86-013-80,1.2000000000000002,0.127,0.145,99.89,4.0,,0.0,0.0,
2025-08-14T21:54:26.145Z,4,GR86-013-80,0.9,0.122,0.13,99.9,4.0,,0.0,0.0,
2025-08-14T21:54:26.188Z,4,GR86-013-80,0.4,0.123,0.116,99.92,4.0,6959.0,0.0,0.0,
2025-08-14T21:54:26.231Z,4,GR86-013-80,-0.2,0.117,0.094,99.89,4.0,,0.0,0.0,176.8
2025-08-14T21:54:26.274Z,4,GR86-013-80,-0.7000000000000001,0.116,0.076,99.9,4.0,,0.0,0.0,
2025-08-14T21:54:26.318Z,4,GR86-013-80,-1.2000000000000002,0.118,0.062,99.91,4.0,,0.0,0.0,
2025-08-14T21:54:26.361Z,4,GR86-013-80,-1.4,0.135,0.057,99.9,4.0,,0.0,0.0,
2025-08-14T21:54:26.404Z,4,GR86-013-80,-1.6,0.128,0.035,99.91,4.0,6988.0,0.0,0.0,
2025-08-14T21:54:26.450Z,4,GR86-013-80,-1.7000000000000002,0.146,0.023,99.91,4.0,,0.0,0.0,177.61
2025-08-14T21:54:26.492Z,4,GR86-013-80,-1.9,0.133,-0.003,99.91,4.0,,0.0,0.0,
2025-08-14T21:54:26.538Z,4,GR86-013-80,-2.7,0.095,-0.007,99.91,4.0,,0.0,0.0,
2025-08-14T21:54:26.581Z,4,GR86-013-80,-3.0,0.092,-0.013,99.9,4.0,,0.0,0.0,
2025-08-14T21:54:26.624Z,4,GR86-013-80,-3.0,0.085,-0.029,99.91,4.0,7011.0,0.0,0.0,
2025-08-14T21:54:26.667Z,4,GR86-013-80,-3.0,0.098,-0.059,99.9,4.0,,0.0,0.0,178.38
2025-08-14T21:54:26.711Z,4,GR86-013-80,-3.0,0.108,-0.06,99.9,4.0,,0.0,0.0,
2025-08-14T21:54:26.754Z,4,GR86-013-80,-2.8000000000000003,0.098,-0.063,99.92,4.0,,0.0,0.0,
2025-08-14T21:54:26.841Z,4,GR86-013-80,-2.8000000000000003,0.111,-0.104,99.9,4.0,7035.0,0.0,0.0,
2025-08-14T21:54:26.884Z,4,GR86-013-80,-2.8000000000000003,0.117,-0.125,99.91,4.0,,0.0,0.0,179.03
2025-08-14T21:54:26.928Z,4,GR86-013-80,-2.8000000000000003,0.121,-0.116,99.9,4.0,,0.0,0.0,
2025-08-14T21:54:26.971Z,4,GR86-013-80,-2.8000000000000003,0.113,-0.121,99.91,4.0,,0.0,0.0,
2025-08-14T21:54:27.014Z,4,GR86-013-80,-2.6,0.113,-0.104,99.9,4.0,,0.0,0.0,
2025-08-14T21:54:27.058Z,4,GR86-013-80,-1.6,0.113,-0.063,99.91,4.0,7063.0,0.0,0.0,
2025-08-14T21:54:27.101Z,4,GR86-013-80,-0.9,0.083,-0.042,99.92,4.0,,0.0,0.0,179.74
2025-08-14T21:54:27.144Z,4,GR86-013-80,-0.3,0.094,-0.043,99.89,4.0,,0.0,0.0,
2025-08-14T21:54:27.187Z,4,GR86-013-80,-0.2,0.098,-0.047,99.91,4.0,,0.0,0.0,
2025-08-14T21:54:27.231Z,4,GR86-013-80,-0.2,0.098,-0.029,99.9,4.0,,0.0,0.0,
2025-08-14T21:54:27.274Z,4,GR86-013-80,-0.3,0.096,-0.012,99.91,4.0,7098.0,0.0,0.0,
2025-08-14T21:54:27.318Z,4,GR86-013-80,-0.4,0.099,-0.005,99.9,4.0,,0.0,0.0,180.37
2025-08-14T21:54:27.361Z,4,GR86-013-80,-0.7000000000000001,0.102,-0.008,99.9,4.0,,0.0,0.0,
2025-08-14T21:54:27.404Z,4,GR86-013-80,-1.1,0.106,0.002,99.9,4.0,,0.0,0.0,
2025-08-14T21:54:27.450Z,4,GR86-013-80,-1.4,0.106,0.006,99.92,4.0,,0.0,0.0,
2025-08-14T21:54:27.492Z,4,GR86-013-80,-1.8,0.103,0.015,99.9,4.0,7118.0,0.0,0.0,
2025-08-14T21:54:27.538Z,4,GR86-013-80,-2.1,0.101,0.028,99.92,4.0,,0.0,0.0,181.71
2025-08-14T21:54:27.581Z,4,GR86-013-80,-2.3000000000000003,0.1,0.009,99.91,4.0,,0.0,0.0,
2025-08-14T21:54:27.624Z,4,GR86-013-80,-2.4000000000000004,0.095,-0.005,99.9,4.0,,0.0,0.0,
2025-08-14T21:54:27.668Z,4,GR86-013-80,-2.5,0.112,-0.004,99.9,4.0,,0.0,0.0,
2025-08-14T21:54:27.711Z,4,GR86-013-80,-2.6,0.118,-0.021,99.91,4.0,7150.0,0.0,0.0,
2025-08-14T21:54:27.753Z,4,GR86-013-80,-2.9000000000000004,0.115,-0.033,99.93,4.0,,0.0,0.0,182.48
2025-08-14T21:54:27.798Z,4,GR86-013-80,-3.9,0.096,-0.046,99.91,4.0,,0.0,0.0,
2025-08-14T21:54:27.841Z,4,GR86-013-80,-4.2,0.107,-0.07,99.91,4.0,,0.0,0.0,
2025-08-14T21:54:27.883Z,4,GR86-013-80,-4.2,0.101,-0.066,99.91,4.0,,0.0,0.0,
2025-08-14T21:54:27.927Z,4,GR86-013-80,-4.2,0.114,-0.098,99.91,4.0,7174.0,0.0,0.0,
2025-08-14T21:54:27.970Z,4,GR86-013-80,-4.2,0.101,-0.096,99.9,4.0,,0.0,0.0,183.13
2025-08-14T21:54:28.012Z,4,GR86-013-80,-4.1000000000000005,0.113,-0.118,99.91,4.0,,0.0,0.0,
2025-08-14T21:54:28.058Z,4,GR86-013-80,-3.9,0.097,-0.117,99.9,4.0,,0.0,0.0,
2025-08-14T21:54:28.101Z,4,GR86-013-80,-3.9,0.106,-0.123,99.9,4.0,,0.0,0.0,
2025-08-14T21:54:28.143Z,4,GR86-013-80,-3.9,0.079,-0.116,99.91,4.0,7223.0,0.0,0.0,
2025-08-14T21:54:28.188Z,4,GR86-013-80,-3.9,0.11,-0.103,99.91,4.0,,0.0,0.0,183.86
2025-08-14T21:54:28.231Z,4,GR86-013-80,-3.9,0.097,-0.107,99.91,4.0,,0.0,0.0,
2025-08-14T21:54:28.274Z,4,GR86-013-80,-3.7,0.108,-0.125,99.87,4.0,,0.0,0.0,
2025-08-14T21:54:28.318Z,4,GR86-013-80,-3.4000000000000004,0.11,-0.154,99.91,4.0,,0.0,0.0,
2025-08-14T21:54:28.361Z,4,GR86-013-80,-3.3000000000000003,0.067,-0.137,99.87,4.0,7251.0,0.0,0.0,
2025-08-14T21:54:28.403Z,4,GR86-013-80,-3.2,-0.156,-0.08,99.88,5.0,,0.0,0.0,184.58
2025-08-14T21:54:28.449Z,4,GR86-013-80,-3.2,0.058,-0.072,99.91,5.0,,0.0,0.0,
2025-08-14T21:54:28.492Z,4,GR86-013-80,-3.0,0.378,-0.162,99.9,5.0,,0.0,0.0,
2025-08-14T21:54:28.538Z,4,GR86-013-80,-3.0,0.07,-0.027,99.91,5.0,,0.0,0.0,
2025-08-14T21:54:28.581Z,4,GR86-013-80,-3.1,0.027,-0.098,99.9,5.0,6271.0,0.0,0.0,
2025-08-14T21:54:28.624Z,4,GR86-013-80,-3.1,0.082,-0.113,99.92,5.0,,0.0,0.0,184.93
2025-08-14T21:54:28.667Z,4,GR86-013-80,-3.0,0.099,-0.031,99.9,5.0,,0.0,0.0,
2025-08-14T21:54:28.710Z,4,GR86-013-80,-2.7,0.071,-0.081,99.9,5.0,,0.0,0.0,
2025-08-14T21:54:28.753Z,4,GR86-013-80,-2.3000000000000003,0.067,-0.054,99.9,5.0,,0.0,0.0,
2025-08-14T21:54:28.798Z,4,GR86-013-80,-1.9,0.116,-0.066,99.9,5.0,6321.0,0.0,0.0,
2025-08-14T21:54:28.841Z,4,GR86-013-80,-1.6,0.112,-0.062,99.9,5.0,,0.0,0.0,185.54
2025-08-14T21:54:28.883Z,4,GR86-013-80,-1.4,0.102,-0.026,99.91,5.0,,0.0,0.0,
2025-08-14T21:54:28.927Z,4,GR86-013-80,-1.4,0.103,-0.04,99.92,5.0,,0.0,0.0,
2025-08-14T21:54:28.971Z,4,GR86-013-80,-1.6,0.113,-0.038,99.91,5.0,,0.0,0.0,
2025-08-14T21:54:29.014Z,4,GR86-013-80,-2.1,0.086,-0.017,99.91,5.0,6346.0,0.0,0.0,
2025-08-14T21:54:29.058Z,4,GR86-013-80,-2.3000000000000003,0.07,0.008,99.91,5.0,,0.0,0.0,186.38
2025-08-14T21:54:29.102Z,4,GR86-013-80,-2.2,0.071,0.015,99.91,5.0,,0.0,0.0,
2025-08-14T21:54:29.145Z,4,GR86-013-80,-2.2,0.073,-0.014,99.9,5.0,,0.0,0.0,
2025-08-14T21:54:29.188Z,4,GR86-013-80,-2.2,0.075,-0.038,99.9,5.0,,0.0,0.0,
2025-08-14T21:54:29.231Z,4,GR86-013-80,-1.9,0.089,-0.013,99.92,5.0,6372.0,0.0,0.0,
2025-08-14T21:54:29.274Z,4,GR86-013-80,-1.7000000000000002,0.075,-0.013,99.91,5.0,,0.0,0.0,186.94
2025-08-14T21:54:29.318Z,4,GR86-013-80,-1.6,0.068,-0.004,99.89,5.0,,0.0,0.0,
2025-08-14T21:54:29.361Z,4,GR86-013-80,-1.8,0.084,-0.016,99.9,5.0,,0.0,0.0,
2025-08-14T21:54:29.403Z,4,GR86-013-80,-2.0,0.071,-0.012,99.91,5.0,,0.0,0.0,
2025-08-14T21:54:29.450Z,4,GR86-013-80,-2.2,0.055,0.011,99.92,5.0,6389.0,0.0,0.0,
2025-08-14T21:54:29.492Z,4,GR86-013-80,-2.2,0.076,0.005,99.9,5.0,,0.0,0.0,187.68
2025-08-14T21:54:29.538Z,4,GR86-013-80,-2.0,0.11,0.02,99.91,5.0,,0.0,0.0,
2025-08-14T21:54:29.581Z,4,GR86-013-80,-1.7000000000000002,0.099,-0.001,99.9,5.0,,0.0,0.0,
2025-08-14T21:54:29.624Z,4,GR86-013-80,-1.3,0.089,-0.007,99.9,5.0,,0.0,0.0,
2025-08-14T21:54:29.667Z,4,GR86-013-80,-1.0,0.087,-0.018,99.91,5.0,6423.0,0.0,0.0,
2025-08-14T21:54:29.710Z,4,GR86-013-80,-0.8,0.094,-0.02,99.91,5.0,,0.0,0.0,188.11
2025-08-14T21:54:29.753Z,4,GR86-013-80,-0.7000000000000001,0.088,-0.016,99.91,5.0,,0.0,0.0,
2025-08-14T21:54:29.798Z,4,GR86-013-80,-0.7000000000000001,0.086,-0.006,99.91,5.0,,0.0,0.0,
2025-08-14T21:54:29.841Z,4,GR86-013-80,-0.6000000000000001,0.072,0.015,93.39,5.0,,0.0,0.0,
2025-08-14T21:54:29.883Z,4,GR86-013-80,-0.4,0.113,0.012,84.11,5.0,6423.0,0.0,0.0,
2025-08-14T21:54:29.927Z,4,GR86-013-80,-0.3,0.097,0.022,81.76,5.0,,0.0,0.0,188.94
2025-08-14T21:54:29.971Z,4,GR86-013-80,-0.4,0.093,0.007,74.7,5.0,,0.0,0.0,
2025-08-14T21:54:30.013Z,4,GR86-013-80,-0.6000000000000001,0.087,-0.004,55.75,5.0,,0.0,0.0,
2025-08-14T21:54:30.058Z,4,GR86-013-80,-1.1,0.067,0.015,46.77,5.0,,0.0,0.0,
2025-08-14T21:54:30.101Z,4,GR86-013-80,-1.3,0.059,0.01,46.87,5.0,6457.0,0.0,0.0,
2025-08-14T21:54:30.143Z,4,GR86-013-80,-1.3,0.054,0.002,46.79,5.0,,0.0,0.0,190.17
2025-08-14T21:54:30.187Z,4,GR86-013-80,-1.3,0.042,0.002,45.51,5.0,,0.0,0.0,
2025-08-14T21:54:30.231Z,4,GR86-013-80,-1.2000000000000002,0.066,-0.009,41.01,5.0,,0.0,0.0,
2025-08-14T21:54:30.274Z,4,GR86-013-80,-1.0,0.061,0.012,38.45,5.0,,0.0,0.0,
2025-08-14T21:54:30.318Z,4,GR86-013-80,-0.4,0.038,0.029,35.09,5.0,6449.0,0.0,0.0,
2025-08-14T21:54:30.361Z,4,GR86-013-80,-0.1,0.016,0.033,34.42,5.0,,0.0,0.0,190.62
2025-08-14T21:54:30.404Z,4,GR86-013-80,-0.1,0.001,0.038,34.54,5.0,,0.0,0.0,
2025-08-14T21:54:30.449Z,4,GR86-013-80,-0.2,0.008,0.026,34.76,5.0,,0.0,0.0,
2025-08-14T21:54:30.492Z,4,GR86-013-80,-0.4,0.008,0.025,35.03,5.0,,0.0,0.0,
2025-08-14T21:54:30.538Z,4,GR86-013-80,-0.6000000000000001,0.03,0.01,35.86,5.0,6463.0,0.0,0.0,
2025-08-14T21:54:30.581Z,4,GR86-013-80,-0.8,0.038,0.022,36.94,5.0,,0.0,0.0,191.09
2025-08-14T21:54:30.623Z,4,GR86-013-80,-1.3,0.034,0.034,37.31,5.0,,0.0,0.0,
2025-08-14T21:54:30.667Z,4,GR86-013-80,-2.1,0.029,0.029,37.36,5.0,,0.0,0.0,
2025-08-14T21:54:30.711Z,4,GR86-013-80,-3.0,0.021,-0.007,37.07,5.0,,0.0,0.0,
2025-08-14T21:54:30.753Z,4,GR86-013-80,-3.5,0.011,-0.011,36.21,5.0,6482.0,0.0,0.0,
2025-08-14T21:54:30.798Z,4,GR86-013-80,-3.7,0.039,-0.056,32.97,5.0,,0.0,0.0,191.23
2025-08-14T21:54:30.841Z,4,GR86-013-80,-3.5,0.053,-0.036,30.4,5.0,,0.0,0.0,
2025-08-14T21:54:30.883Z,4,GR86-013-80,-3.2,0.024,-0.059,21.05,5.0,,3.695,3.815,
2025-08-14T21:54:30.927Z,4,GR86-013-80,-2.8000000000000003,-0.015,-0.074,5.09,5.0,,6.09,6.12,
2025-08-14T21:54:30.970Z,4,GR86-013-80,-2.5,-0.113,-0.087,3.73,5.0,6470.0,9.28,9.34,
2025-08-14T21:54:31.012Z,4,GR86-013-80,-2.2,-0.245,-0.082,3.67,5.0,,12.33,12.56,191.48
2025-08-14T21:54:31.056Z,4,GR86-013-80,-2.3000000000000003,-0.414,-0.077,3.44,5.0,,16.895,17.06,
2025-08-14T21:54:31.101Z,4,GR86-013-80,-2.8000000000000003,-0.597,-0.091,3.25,5.0,,19.21,19.395,
2025-08-14T21:54:31.143Z,4,GR86-013-80,-3.4000000000000004,-0.548,-0.071,3.09,5.0,,20.51,20.905,
2025-08-14T21:54:31.188Z,4,GR86-013-80,-3.6,-0.492,-0.108,2.89,5.0,6232.0,22.125,22.34,
2025-08-14T21:54:31.231Z,4,GR86-013-80,-3.4000000000000004,-0.548,-0.113,2.7,5.0,,23.805,24.05,190.04
2025-08-14T21:54:31.274Z,4,GR86-013-80,-2.7,-0.5700000000000001,-0.094,2.59,5.0,,24.645,24.83,
2025-08-14T21:54:31.318Z,4,GR86-013-80,-0.9,-0.556,-0.116,2.49,5.0,,24.795,25.085,
2025-08-14T21:54:31.360Z,4,GR86-013-80,0.4,-0.558,-0.096,2.46,5.0,,24.49,24.86,
2025-08-14T21:54:31.403Z,4,GR86-013-80,1.4,-0.54,-0.077,2.46,5.0,6152.0,24.05,24.555,
2025-08-14T21:54:31.450Z,4,GR86-013-80,1.5,-0.559,-0.069,2.46,5.0,,24.11,24.43,186.12
2025-08-14T21:54:31.492Z,4,GR86-013-80,0.2,-0.562,-0.101,2.45,5.0,,24.28,24.765,
2025-08-14T21:54:31.538Z,4,GR86-013-80,-3.0,-0.546,-0.105,2.46,5.0,,23.805,23.93,
2025-08-14T21:54:31.581Z,4,GR86-013-80,-3.8,-0.518,-0.096,2.46,5.0,,23.775,23.96,
2025-08-14T21:54:31.623Z,4,GR86-013-80,-3.3000000000000003,-0.557,-0.061,2.46,5.0,6023.0,23.775,23.93,
2025-08-14T21:54:31.667Z,4,GR86-013-80,-0.6000000000000001,-0.562,-0.037,2.46,5.0,,23.775,23.895,182.08
2025-08-14T21:54:31.710Z,4,GR86-013-80,1.9,-0.601,-0.029,2.45,5.0,,23.655,23.865,
2025-08-14T21:54:31.753Z,4,GR86-013-80,3.0,-0.613,-0.02,2.46,5.0,,23.21,23.59,
2025-08-14T21:54:31.797Z,4,GR86-013-80,3.1,-0.433,-0.044,2.46,5.0,,22.125,22.675,
2025-08-14T21:54:31.841Z,4,GR86-013-80,2.1,-0.416,-0.05,2.46,5.0,5865.0,20.02,20.66,
2025-08-14T21:54:31.883Z,4,GR86-013-80,1.2000000000000002,-0.405,-0.045,2.46,5.0,,17.81,18.235,178.09
2025-08-14T21:54:31.927Z,4,GR86-013-80,0.5,-0.414,-0.032,2.46,5.0,,15.75,16.085,
2025-08-14T21:54:31.971Z,4,GR86-013-80,0.2,-0.429,-0.038,2.46,5.0,,13.735,14.115,
2025-08-14T21:54:32.014Z,4,GR86-013-80,0.4,-0.397,0.005,2.46,5.0,,13.14,13.37,
2025-08-14T21:54:32.058Z,4,GR86-013-80,1.4,-0.36,0.023,2.46,5.0,5783.0,14.085,14.635,
2025-08-14T21:54:32.101Z,4,GR86-013-80,2.3000000000000003,-0.337,0.052,2.46,5.0,,14.205,14.68,174.75
2025-08-14T21:54:32.145Z,4,GR86-013-80,2.6,-0.319,0.034,2.46,5.0,,13.705,14.205,
2025-08-14T21:54:32.188Z,4,GR86-013-80,2.2,-0.32,0.048,2.46,5.0,,13.4,13.855,
2025-08-14T21:54:32.231Z,4,GR86-013-80,1.2000000000000002,-0.329,0.029,2.46,5.0,,13.015,13.37,
2025-08-14T21:54:32.274Z,4,GR86-013-80,0.5,-0.377,0.015,2.46,5.0,5740.0,12.835,12.985,
2025-08-14T21:54:32.318Z,4,GR86-013-80,0.1,-0.36,0.043,2.47,5.0,,12.895,13.275,172.5
2025-08-14T21:54:32.361Z,4,GR86-013-80,0.0,-0.336,0.02,2.46,5.0,,12.53,12.925,
2025-08-14T21:54:32.403Z,4,GR86-013-80,-0.3,-0.313,0.018,2.46,5.0,,11.965,12.24,
2025-08-14T21:54:32.450Z,4,GR86-013-80,-0.7000000000000001,-0.318,0.016,2.47,5.0,,11.215,11.58,
2025-08-14T21:54:32.538Z,4,GR86-013-80,-1.1,-0.332,0.006,2.47,5.0,5609.0,10.865,10.955,166.96
2025-08-14T21:54:32.581Z,4,GR86-013-80,-1.0,-0.284,-0.011,2.47,5.0,,10.5,10.835,
2025-08-14T21:54:32.623Z,4,GR86-013-80,-1.2000000000000002,-0.288,-0.034,2.46,5.0,,10.68,10.925,
2025-08-14T21:54:32.667Z,4,GR86-013-80,-1.6,-0.294,-0.06,2.46,5.0,,11.065,11.215,
2025-08-14T21:54:32.710Z,4,GR86-013-80,-1.7000000000000002,-0.323,-0.048,2.49,5.0,5544.0,11.705,11.905,
2025-08-14T21:54:32.752Z,4,GR86-013-80,-1.3,-0.368,-0.039,2.46,5.0,,13.64,13.64,164.69
2025-08-14T21:54:32.798Z,4,GR86-013-80,0.5,-0.35,-0.038,2.47,5.0,,17.580000000000002,17.900000000000002,
2025-08-14T21:54:32.841Z,4,GR86-013-80,1.4,-0.382,-0.041,2.48,5.0,,20.175,20.175,
2025-08-14T21:54:32.883Z,4,GR86-013-80,2.0,-0.454,-0.054,2.48,5.0,,22.43,22.37,
2025-08-14T21:54:32.927Z,4,GR86-013-80,2.6,-0.509,-0.043,2.47,5.0,5466.0,23.655,23.93,
2025-08-14T21:54:32.971Z,4,GR86-013-80,2.8000000000000003,-0.559,-0.009,2.47,5.0,,24.08,24.675,161.62
2025-08-14T21:54:33.013Z,4,GR86-013-80,2.8000000000000003,-0.551,0.024,2.46,5.0,,24.11,24.765,
2025-08-14T21:54:33.058Z,4,GR86-013-80,1.9,-0.489,-0.026,13.63,5.0,,23.27,23.745,
2025-08-14T21:54:33.101Z,4,GR86-013-80,1.4,-0.528,0.001,58.69,5.0,,22.995,23.685,
2025-08-14T21:54:33.143Z,4,GR86-013-80,0.8,-0.544,0.056,98.31,5.0,5234.0,22.645,23.395,
2025-08-14T21:54:33.187Z,4,GR86-013-80,0.4,-0.509,0.075,91.2,4.0,,21.9,22.465,158.41
2025-08-14T21:54:33.231Z,4,GR86-013-80,0.3,-0.433,-0.004,26.23,4.0,,20.45,20.965,
2025-08-14T21:54:33.274Z,4,GR86-013-80,0.2,-0.439,-0.028,4.74,4.0,,18.74,19.045,
2025-08-14T21:54:33.318Z,4,GR86-013-80,-0.1,-0.505,0.079,3.88,4.0,,17.490000000000002,18.055,
2025-08-14T21:54:33.361Z,4,GR86-013-80,-0.2,-0.383,-0.039,3.62,4.0,5872.0,16.8,17.03,
2025-08-14T21:54:33.404Z,4,GR86-013-80,-0.9,-0.354,0.012,3.41,4.0,,16.085,16.375,154.86
2025-08-14T21:54:33.450Z,4,GR86-013-80,-2.3000000000000003,-0.395,-0.049,3.22,4.0,,15.505,15.9,
2025-08-14T21:54:33.492Z,4,GR86-013-80,-3.0,-0.472,-0.02,3.01,4.0,,15.395,15.9,
2025-08-14T21:54:33.538Z,4,GR86-013-80,-2.8000000000000003,-0.359,-0.086,2.68,4.0,,14.545,14.97,
2025-08-14T21:54:33.581Z,4,GR86-013-80,-2.3000000000000003,-0.414,-0.065,2.58,4.0,5796.0,13.795,14.45,
2025-08-14T21:54:33.623Z,4,GR86-013-80,-1.6,-0.456,0.014,2.52,4.0,,12.835,13.4,151.91
2025-08-14T21:54:33.667Z,4,GR86-013-80,-1.3,-0.389,-0.016,2.5,4.0,,11.31,11.905,
2025-08-14T21:54:33.710Z,4,GR86-013-80,-1.4,-0.289,-0.083,2.49,4.0,,9.49,9.72,
2025-08-14T21:54:33.753Z,4,GR86-013-80,-1.4,-0.246,-0.121,2.47,4.0,,7.140000000000001,7.525,
2025-08-14T21:54:33.798Z,4,GR86-013-80,-1.4,-0.167,-0.103,2.47,4.0,5718.0,2.67,3.035,
2025-08-14T21:54:33.841Z,4,GR86-013-80,-1.6,-0.15,-0.103,2.46,4.0,,0.0,0.0,149.55
2025-08-14T21:54:33.883Z,4,GR86-013-80,-1.6,-0.147,-0.064,2.46,4.0,,0.0,0.0,
2025-08-14T21:54:33.927Z,4,GR86-013-80,-1.6,-0.156,-0.066,2.46,4.0,,0.0,0.0,
2025-08-14T21:54:33.970Z,4,GR86-013-80,-1.6,-0.138,-0.041,2.46,4.0,,0.0,0.0,
2025-08-14T21:54:34.012Z,4,GR86-013-80,-1.5,-0.134,-0.048,2.46,4.0,5689.0,0.0,0.0,
2025-08-14T21:54:34.058Z,4,GR86-013-80,-1.6,-0.145,-0.045,2.46,4.0,,0.0,0.0,148.33
2025-08-14T21:54:34.101Z,4,GR86-013-80,-1.7000000000000002,-0.151,-0.028,2.46,4.0,,0.0,0.0,
2025-08-14T21:54:34.143Z,4,GR86-013-80,-1.9,-0.129,-0.033,2.46,4.0,,0.0,0.0,
2025-08-14T21:54:34.188Z,4,GR86-013-80,-2.0,-0.124,-0.035,2.46,4.0,,0.0,0.0,
2025-08-14T21:54:34.231Z,4,GR86-013-80,-2.2,-0.129,-0.036,2.46,4.0,5644.0,0.0,0.0,
2025-08-14T21:54:34.274Z,4,GR86-013-80,-2.2,-0.15,-0.027,2.46,4.0,,0.0,0.0,147.62
2025-08-14T21:54:34.318Z,4,GR86-013-80,-2.0,-0.141,-0.071,2.46,4.0,,0.0,0.0,
2025-08-14T21:54:34.360Z,4,GR86-013-80,-1.9,-0.158,-0.054,2.46,4.0,,0.0,0.0,
2025-08-14T21:54:34.403Z,4,GR86-013-80,-1.9,-0.134,-0.03,2.46,4.0,,0.0,0.0,
2025-08-14T21:54:34.450Z,4,GR86-013-80,-2.0,-0.128,-0.026,2.46,4.0,5591.0,0.0,0.0,
2025-08-14T21:54:34.492Z,4,GR86-013-80,-2.0,-0.111,-0.048,4.66,4.0,,0.0,0.0,146.49
2025-08-14T21:54:34.538Z,4,GR86-013-80,-2.0,-0.135,-0.042,20.21,4.0,,0.0,0.0,
2025-08-14T21:54:34.581Z,4,GR86-013-80,-1.9,-0.122,-0.046,22.26,4.0,,0.0,0.0,
2025-08-14T21:54:34.623Z,4,GR86-013-80,-1.7000000000000002,-0.08,-0.054,24.02,4.0,,0.0,0.0,
2025-08-14T21:54:34.667Z,4,GR86-013-80,-1.5,-0.1,-0.033,26.54,4.0,5555.0,0.0,0.0,
2025-08-14T21:54:34.710Z,4,GR86-013-80,-1.4,-0.059,-0.017,27.56,4.0,,0.0,0.0,145.48
2025-08-14T21:54:34.753Z,4,GR86-013-80,-1.5,0.173,-0.05,25.32,4.0,,0.0,0.0,
2025-08-14T21:54:34.797Z,4,GR86-013-80,-1.2000000000000002,0.076,-0.005,26.38,4.0,,0.0,0.0,
2025-08-14T21:54:34.841Z,4,GR86-013-80,-0.9,0.014,-0.026,30.18,4.0,,0.0,0.0,
2025-08-14T21:54:34.883Z,4,GR86-013-80,-0.9,0.014,-0.038,32.79,4.0,5821.0,0.0,0.0,
2025-08-14T21:54:34.927Z,4,GR86-013-80,-0.8,0.052,-0.038,35.61,4.0,,0.0,0.0,144.53
2025-08-14T21:54:34.971Z,4,GR86-013-80,-0.8,0.074,0.0,39.23,4.0,,0.0,0.0,
2025-08-14T21:54:35.014Z,4,GR86-013-80,-0.7000000000000001,0.115,-0.008,41.7,4.0,,0.0,0.0,
2025-08-14T21:54:35.058Z,4,GR86-013-80,-0.5,0.094,0.024,40.37,4.0,,0.0,0.0,
2025-08-14T21:54:35.101Z,4,GR86-013-80,-0.3,0.121,0.026,37.29,4.0,5679.0,0.0,0.0,
2025-08-14T21:54:35.145Z,4,GR86-013-80,-0.1,0.134,0.013,30.41,4.0,,0.0,0.0,144.84
2025-08-14T21:54:35.188Z,4,GR86-013-80,0.1,0.103,0.026,26.48,4.0,,0.0,0.0,
2025-08-14T21:54:35.231Z,4,GR86-013-80,0.2,0.065,0.033,24.54,4.0,,0.0,0.0,
2025-08-14T21:54:35.274Z,4,GR86-013-80,0.2,0.05,0.046,22.13,4.0,,0.0,0.0,
2025-08-14T21:54:35.318Z,4,GR86-013-80,-0.3,0.008,0.021,3.82,4.0,5693.0,0.0,0.0,
2025-08-14T21:54:35.361Z,4,GR86-013-80,-0.6000000000000001,-0.042,0.044,3.76,4.0,,3.905,4.03,145.41
2025-08-14T21:54:35.403Z,4,GR86-013-80,-1.1,-0.158,0.069,3.69,4.0,,6.2700000000000005,6.15,
2025-08-14T21:54:35.450Z,4,GR86-013-80,-1.6,-0.194,-0.005,3.61,4.0,,8.67,8.91,
2025-08-14T21:54:35.492Z,4,GR86-013-80,-1.7000000000000002,-0.437,-0.003,3.44,4.0,,10.68,11.035,
2025-08-14T21:54:35.538Z,4,GR86-013-80,-1.8,-0.298,-0.037,3.09,4.0,5516.0,12.59,12.985,
2025-08-14T21:54:35.581Z,4,GR86-013-80,-1.4,-0.36,-0.034,2.84,4.0,,12.955,13.4,145.05
2025-08-14T21:54:35.623Z,4,GR86-013-80,-0.9,-0.399,0.044,2.68,4.0,,13.08,13.46,
2025-08-14T21:54:35.667Z,4,GR86-013-80,-0.6000000000000001,-0.364,-0.018,2.62,4.0,,13.675,13.885,
2025-08-14T21:54:35.710Z,4,GR86-013-80,-0.6000000000000001,-0.311,-0.082,2.5500000000000003,4.0,,14.24,14.68,
2025-08-14T21:54:35.752Z,4,GR86-013-80,-0.5,-0.36,-0.051,2.49,4.0,5426.0,15.06,15.395,
2025-08-14T21:54:35.798Z,4,GR86-013-80,-0.1,-0.335,-0.095,2.46,4.0,,15.81,16.315,142.12
2025-08-14T21:54:35.841Z,4,GR86-013-80,0.1,-0.43,-0.067,22.35,4.0,,16.085,16.465,
2025-08-14T21:54:35.883Z,4,GR86-013-80,0.1,-0.481,-0.024,68.18,4.0,,16.055,16.145,
2025-08-14T21:54:35.927Z,4,GR86-013-80,-0.3,-0.393,-0.04,99.49,4.0,,16.115000000000002,16.405,
2025-08-14T21:54:35.970Z,4,GR86-013-80,-0.6000000000000001,-0.274,-0.097,99.62,4.0,5324.0,15.75,16.25,
2025-08-14T21:54:36.013Z,4,GR86-013-80,-0.9,-0.376,-0.102,54.15,3.0,,15.75,16.315,139.52
2025-08-14T21:54:36.058Z,4,GR86-013-80,-0.9,-0.497,-0.058,3.65,3.0,,15.78,16.435,
2025-08-14T21:54:36.101Z,4,GR86-013-80,-0.6000000000000001,-0.5760000000000001,-0.014,3.25,3.0,,16.085,16.555,
2025-08-14T21:54:36.143Z,4,GR86-013-80,0.1,-0.469,-0.042,3.0,3.0,,16.895,17.12,
2025-08-14T21:54:36.187Z,4,GR86-013-80,0.3,-0.331,-0.022,2.78,3.0,6172.0,18.115,18.405,
2025-08-14T21:54:36.230Z,4,GR86-013-80,0.0,-0.441,-0.102,2.65,3.0,,23.025,23.395,136.68
2025-08-14T21:54:36.272Z,4,GR86-013-80,-0.7000000000000001,-0.663,-0.051,2.56,3.0,,27.925,27.865,
2025-08-14T21:54:36.318Z,4,GR86-013-80,-1.0,-0.652,-0.058,2.51,3.0,,30.46,30.825,
2025-08-14T21:54:36.361Z,4,GR86-013-80,-1.2000000000000002,-0.647,-0.037,2.49,3.0,,31.205,31.3,
2025-08-14T21:54:36.404Z,4,GR86-013-80,-1.4,-0.54,-0.04,2.49,3.0,5994.0,30.795,31.27,
2025-08-14T21:54:36.450Z,4,GR86-013-80,-1.8,-0.606,-0.122,2.49,3.0,,30.49,31.085,133.37
2025-08-14T21:54:36.492Z,4,GR86-013-80,-2.3000000000000003,-0.6930000000000001,-0.084,2.49,3.0,,30.93,30.965,
2025-08-14T21:54:36.538Z,4,GR86-013-80,-3.1,-0.685,-0.109,2.49,3.0,,30.825,30.795,
2025-08-14T21:54:36.581Z,4,GR86-013-80,-3.3000000000000003,-0.589,-0.074,2.49,3.0,,30.965,31.33,
2025-08-14T21:54:36.623Z,4,GR86-013-80,-3.3000000000000003,-0.589,-0.153,2.5,3.0,5767.0,30.735,31.175,
2025-08-14T21:54:36.668Z,4,GR86-013-80,-3.1,-0.665,-0.143,2.5,3.0,,30.965,30.965,128.81
2025-08-14T21:54:36.711Z,4,GR86-013-80,-2.7,-0.598,-0.11,2.49,3.0,,31.27,31.45,
2025-08-14T21:54:36.754Z,4,GR86-013-80,-2.4000000000000004,-0.62,-0.18,2.49,3.0,,30.855,31.33,
2025-08-14T21:54:36.798Z,4,GR86-013-80,-2.3000000000000003,-0.632,-0.191,2.49,3.0,,30.675,31.3,
2025-08-14T21:54:36.841Z,4,GR86-013-80,-2.3000000000000003,-0.644,-0.181,2.49,3.0,5593.0,31.055,30.855,
2025-08-14T21:54:36.883Z,4,GR86-013-80,-2.4000000000000004,-0.587,-0.14,15.76,3.0,,30.795,31.025,124.64
2025-08-14T21:54:36.928Z,4,GR86-013-80,-2.6,-0.63,-0.219,61.2,3.0,,30.46,31.115,
2025-08-14T21:54:36.971Z,4,GR86-013-80,-3.3000000000000003,-0.621,-0.192,98.71,3.0,,30.795,30.705,
2025-08-14T21:54:37.013Z,4,GR86-013-80,-4.5,-0.5730000000000001,-0.194,99.55,2.0,,30.185,30.49,
2025-08-14T21:54:37.058Z,4,GR86-013-80,-5.7,-0.762,-0.23,11.27,2.0,5384.0,30.075,30.305,
2025-08-14T21:54:37.101Z,4,GR86-013-80,-6.0,-0.785,-0.17,3.0700000000000003,2.0,,30.765,31.71,120.26
2025-08-14T21:54:37.143Z,4,GR86-013-80,-6.0,-0.5630000000000001,-0.258,2.65,2.0,,30.245,31.025,
2025-08-14T21:54:37.188Z,4,GR86-013-80,-6.0,-0.677,-0.407,2.49,2.0,,25.545,26.26,
2025-08-14T21:54:37.231Z,4,GR86-013-80,-6.0,-0.617,-0.23,2.44,2.0,,19.15,19.73,
2025-08-14T21:54:37.274Z,4,GR86-013-80,-6.0,-0.42,-0.364,2.43,2.0,6084.0,12.65,13.11,
2025-08-14T21:54:37.318Z,4,GR86-013-80,-6.6000000000000005,-0.275,-0.346,2.43,2.0,,2.76,3.1,116.01
2025-08-14T21:54:37.361Z,4,GR86-013-80,-8.6,-0.197,-0.398,2.43,2.0,,0.0,0.0,
2025-08-14T21:54:37.403Z,4,GR86-013-80,-11.8,-0.176,-0.453,2.43,2.0,,0.0,0.0,
2025-08-14T21:54:37.450Z,4,GR86-013-80,-15.5,-0.141,-0.383,2.43,2.0,,0.0,0.0,
2025-08-14T21:54:37.492Z,4,GR86-013-80,-19.1,-0.171,-0.436,2.43,2.0,6214.0,2.5500000000000003,2.64,
2025-08-14T21:54:37.538Z,4,GR86-013-80,-22.8,-0.198,-0.406,2.43,2.0,,3.615,3.495,111.76
2025-08-14T21:54:37.581Z,4,GR86-013-80,-24.4,-0.238,-0.459,2.44,2.0,,4.9,5.16,
2025-08-14T21:54:37.624Z,4,GR86-013-80,-27.700000000000003,-0.27,-0.473,2.43,2.0,,5.585,5.585,
2025-08-14T21:54:37.667Z,4,GR86-013-80,-30.6,-0.239,-0.498,2.45,2.0,,5.3100000000000005,5.585,
2025-08-14T21:54:37.710Z,4,GR86-013-80,-31.200000000000003,-0.322,-0.58,2.45,2.0,6210.0,5.705,5.965,
2025-08-14T21:54:37.753Z,4,GR86-013-80,-31.3,-0.229,-0.5650000000000001,2.46,2.0,,5.28,5.25,110.03
2025-08-14T21:54:37.798Z,4,GR86-013-80,-31.5,-0.232,-0.586,2.46,2.0,,4.21,4.305,
2025-08-14T21:54:37.841Z,4,GR86-013-80,-33.1,-0.264,-0.681,2.46,2.0,,0.0,1.955,
2025-08-14T21:54:37.883Z,4,GR86-013-80,-35.0,-0.164,-0.674,2.46,2.0,,0.0,0.0,
2025-08-14T21:54:37.927Z,4,GR86-013-80,-36.6,-0.175,-0.707,2.46,2.0,6114.0,0.0,0.0,
2025-08-14T21:54:37.971Z,4,GR86-013-80,-37.0,-0.176,-0.755,2.46,2.0,,0.0,0.0,109.6
2025-08-14T21:54:38.014Z,4,GR86-013-80,-37.0,-0.166,-0.757,2.48,2.0,,0.0,0.0,
2025-08-14T21:54:38.058Z,4,GR86-013-80,-36.9,-0.171,-0.771,2.49,2.0,,0.0,0.0,
2025-08-14T21:54:38.101Z,4,GR86-013-80,-37.4,-0.178,-0.79,2.49,2.0,,0.0,0.0,
2025-08-14T21:54:38.145Z,4,GR86-013-80,-38.7,-0.168,-0.797,2.49,2.0,5968.0,0.0,0.0,
2025-08-14T21:54:38.188Z,4,GR86-013-80,-40.8,-0.183,-0.8,2.49,2.0,,0.0,0.0,108.65
2025-08-14T21:54:38.231Z,4,GR86-013-80,-43.400000000000006,-0.155,-0.8280000000000001,2.49,2.0,,0.0,0.0,
2025-08-14T21:54:38.274Z,4,GR86-013-80,-46.1,-0.176,-0.8180000000000001,2.49,2.0,,0.0,0.0,
2025-08-14T21:54:38.318Z,4,GR86-013-80,-49.6,-0.183,-0.842,2.49,2.0,,0.0,0.0,
2025-08-14T21:54:38.361Z,4,GR86-013-80,-50.8,-0.173,-0.876,2.49,2.0,5890.0,0.0,0.0,
2025-08-14T21:54:38.403Z,4,GR86-013-80,-51.400000000000006,-0.194,-0.864,2.49,2.0,,0.0,0.0,107.42
2025-08-14T21:54:38.450Z,4,GR86-013-80,-51.5,-0.187,-0.886,2.49,2.0,,0.0,0.0,
2025-08-14T21:54:38.492Z,4,GR86-013-80,-51.5,-0.176,-0.882,2.49,2.0,,0.0,0.0,
2025-08-14T21:54:38.538Z,4,GR86-013-80,-50.400000000000006,-0.193,-0.91,2.49,2.0,,0.0,0.0,
2025-08-14T21:54:38.581Z,4,GR86-013-80,-49.1,-0.189,-0.933,2.49,2.0,5808.0,0.0,0.0,
2025-08-14T21:54:38.623Z,4,GR86-013-80,-48.0,-0.18,-0.953,2.49,2.0,,0.0,0.0,106.28
2025-08-14T21:54:38.667Z,4,GR86-013-80,-47.8,-0.183,-0.924,2.49,2.0,,0.0,0.0,
2025-08-14T21:54:38.710Z,4,GR86-013-80,-48.1,-0.165,-0.945,2.49,2.0,,0.0,0.0,
2025-08-14T21:54:38.752Z,4,GR86-013-80,-48.7,-0.178,-0.927,2.49,2.0,,0.0,0.0,
2025-08-14T21:54:38.798Z,4,GR86-013-80,-48.2,-0.177,-0.955,2.49,2.0,5727.0,0.0,0.0,
2025-08-14T21:54:38.841Z,4,GR86-013-80,-46.1,-0.173,-0.982,2.66,2.0,,0.0,0.0,105.07
2025-08-14T21:54:38.883Z,4,GR86-013-80,-44.2,-0.166,-0.92,3.43,2.0,,0.0,0.0,
2025-08-14T21:54:38.928Z,4,GR86-013-80,-43.1,-0.174,-0.955,3.86,2.0,,0.0,0.0,
2025-08-14T21:54:38.971Z,4,GR86-013-80,-42.8,-0.169,-0.912,4.41,2.0,,0.0,0.0,
2025-08-14T21:54:39.013Z,4,GR86-013-80,-42.8,-0.171,-0.948,5.25,2.0,5646.0,0.0,0.0,
2025-08-14T21:54:39.058Z,4,GR86-013-80,-44.900000000000006,-0.175,-0.945,20.6,2.0,,0.0,0.0,103.66
2025-08-14T21:54:39.101Z,4,GR86-013-80,-48.400000000000006,-0.172,-0.92,21.32,2.0,,0.0,0.0,
2025-08-14T21:54:39.143Z,4,GR86-013-80,-54.0,-0.134,-0.962,21.76,2.0,,0.0,0.0,
2025-08-14T21:54:39.187Z,4,GR86-013-80,-59.7,-0.118,-0.936,22.85,2.0,,0.0,0.0,
2025-08-14T21:54:39.231Z,4,GR86-013-80,-63.400000000000006,-0.093,-0.986,24.01,2.0,5618.0,0.0,0.0,
2025-08-14T21:54:39.274Z,4,GR86-013-80,-64.9,-0.107,-1.015,25.64,2.0,,0.0,0.0,102.15
2025-08-14T21:54:39.318Z,4,GR86-013-80,-66.5,0.138,-0.941,24.66,2.0,,0.0,0.0,
2025-08-14T21:54:39.361Z,4,GR86-013-80,-68.2,0.237,-0.953,23.94,2.0,,0.0,0.0,
2025-08-14T21:54:39.404Z,4,GR86-013-80,-69.3,0.108,-0.8250000000000001,23.85,2.0,,0.0,0.0,
2025-08-14T21:54:39.450Z,4,GR86-013-80,-69.4,0.049,-0.969,24.1,2.0,5920.0,0.0,0.0,
2025-08-14T21:54:39.492Z,4,GR86-013-80,-68.7,0.059,-0.922,26.08,2.0,,0.0,0.0,100.74
2025-08-14T21:54:39.538Z,4,GR86-013-80,-68.3,0.056,-0.929,29.79,2.0,,0.0,0.0,
2025-08-14T21:54:39.581Z,4,GR86-013-80,-68.3,0.08,-0.95,31.91,2.0,,0.0,0.0,
2025-08-14T21:54:39.623Z,4,GR86-013-80,-68.3,0.105,-0.864,33.79,2.0,,0.0,0.0,
2025-08-14T21:54:39.667Z,4,GR86-013-80,-68.4,0.106,-0.889,36.07,2.0,5732.0,0.0,0.0,
2025-08-14T21:54:39.711Z,4,GR86-013-80,-68.2,0.12,-0.93,39.35,2.0,,0.0,0.0,100.5
2025-08-14T21:54:39.754Z,4,GR86-013-80,-67.5,0.121,-0.905,45.85,2.0,,0.0,0.0,
2025-08-14T21:54:39.798Z,4,GR86-013-80,-64.4,0.153,-0.922,51.94,2.0,,0.0,0.0,
2025-08-14T21:54:39.841Z,4,GR86-013-80,-60.7,0.176,-0.847,53.83,2.0,,0.0,0.0,
2025-08-14T21:54:39.883Z,4,GR86-013-80,-56.900000000000006,0.161,-0.847,56.75,2.0,5826.0,0.0,0.0,
2025-08-14T21:54:39.927Z,4,GR86-013-80,-52.6,0.203,-0.846,58.1,2.0,,0.0,0.0,100.83
2025-08-14T21:54:39.970Z,4,GR86-013-80,-47.3,0.204,-0.8280000000000001,58.58,2.0,,0.0,0.0,
2025-08-14T21:54:40.013Z,4,GR86-013-80,-42.400000000000006,0.237,-0.8250000000000001,58.54,2.0,,0.0,0.0,
2025-08-14T21:54:40.056Z,4,GR86-013-80,-40.0,0.24,-0.797,58.8,2.0,,0.0,0.0,
2025-08-14T21:54:40.101Z,4,GR86-013-80,-42.1,0.237,-0.769,66.42,2.0,5911.0,0.0,0.0,
2025-08-14T21:54:40.143Z,4,GR86-013-80,-44.900000000000006,0.251,-0.783,79.66,2.0,,0.0,0.0,102.5
2025-08-14T21:54:40.188Z,4,GR86-013-80,-46.8,0.239,-0.768,98.47,2.0,,0.0,0.0,
2025-08-14T21:54:40.230Z,4,GR86-013-80,-46.900000000000006,0.223,-0.784,99.87,2.0,,0.0,0.0,
2025-08-14T21:54:40.274Z,4,GR86-013-80,-46.7,0.236,-0.77,99.83,2.0,,0.0,0.0,
2025-08-14T21:54:40.318Z,4,GR86-013-80,-47.900000000000006,0.253,-0.739,99.84,2.0,5980.0,0.0,0.0,
2025-08-14T21:54:40.361Z,4,GR86-013-80,-50.400000000000006,0.223,-0.745,99.85,2.0,,0.0,0.0,103.78
2025-08-14T21:54:40.404Z,4,GR86-013-80,-52.2,0.214,-0.763,99.85,2.0,,0.0,0.0,
2025-08-14T21:54:40.450Z,4,GR86-013-80,-52.6,0.204,-0.806,99.84,2.0,,0.0,0.0,
2025-08-14T21:54:40.492Z,4,GR86-013-80,-51.7,0.246,-0.8170000000000001,99.83,2.0,,0.0,0.0,
2025-08-14T21:54:40.538Z,4,GR86-013-80,-49.3,0.218,-0.8200000000000001,99.86,2.0,6159.0,0.0,0.0,
2025-08-14T21:54:40.581Z,4,GR86-013-80,-47.7,0.222,-0.8150000000000001,99.84,2.0,,0.0,0.0,105.31
2025-08-14T21:54:40.623Z,4,GR86-013-80,-45.900000000000006,0.265,-0.8320000000000001,99.86,2.0,,0.0,0.0,
2025-08-14T21:54:40.667Z,4,GR86-013-80,-43.8,0.22,-0.8,99.86,2.0,,0.0,0.0,
2025-08-14T21:54:40.710Z,4,GR86-013-80,-41.7,0.225,-0.807,99.88,2.0,,0.0,0.0,
2025-08-14T21:54:40.753Z,4,GR86-013-80,-39.900000000000006,0.217,-0.784,99.87,2.0,6249.0,0.0,0.0,
2025-08-14T21:54:40.798Z,4,GR86-013-80,-38.8,0.194,-0.787,99.87,2.0,,0.0,0.0,106.9
2025-08-14T21:54:40.841Z,4,GR86-013-80,-38.3,0.21,-0.838,99.86,2.0,,0.0,0.0,
2025-08-14T21:54:40.883Z,4,GR86-013-80,-37.9,0.252,-0.8250000000000001,99.87,2.0,,0.0,0.0,
2025-08-14T21:54:40.928Z,4,GR86-013-80,-37.6,0.248,-0.802,99.87,2.0,,0.0,0.0,
2025-08-14T21:54:40.971Z,4,GR86-013-80,-37.6,0.246,-0.788,99.87,2.0,6334.0,0.0,0.0,
2025-08-14T21:54:41.014Z,4,GR86-013-80,-38.7,0.222,-0.781,99.87,2.0,,0.0,0.0,108.24
2025-08-14T21:54:41.058Z,4,GR86-013-80,-42.1,0.209,-0.808,99.88,2.0,,0.0,0.0,
2025-08-14T21:54:41.101Z,4,GR86-013-80,-44.1,0.216,-0.8220000000000001,99.87,2.0,,0.0,0.0,
2025-08-14T21:54:41.145Z,4,GR86-013-80,-45.5,0.233,-0.808,99.87,2.0,,0.0,0.0,
2025-08-14T21:54:41.188Z,4,GR86-013-80,-45.900000000000006,0.243,-0.793,99.88,2.0,6399.0,0.0,0.0,
2025-08-14T21:54:41.231Z,4,GR86-013-80,-45.8,0.218,-0.803,99.87,2.0,,0.0,0.0,109.54
2025-08-14T21:54:41.274Z,4,GR86-013-80,-44.5,0.21,-0.801,99.87,2.0,,0.0,0.0,
2025-08-14T21:54:41.318Z,4,GR86-013-80,-40.7,0.218,-0.789,99.88,2.0,,0.0,0.0,
2025-08-14T21:54:41.361Z,4,GR86-013-80,-39.2,0.22,-0.8150000000000001,99.88,2.0,,0.0,0.0,
2025-08-14T21:54:41.403Z,4,GR86-013-80,-39.1,0.225,-0.799,99.86,2.0,6483.0,0.0,0.0,
2025-08-14T21:54:41.450Z,4,GR86-013-80,-39.1,0.246,-0.802,99.87,2.0,,0.0,0.0,110.99
2025-08-14T21:54:41.493Z,4,GR86-013-80,-38.900000000000006,0.227,-0.77,99.88,2.0,,0.0,0.0,
2025-08-14T21:54:41.538Z,4,GR86-013-80,-37.8,0.217,-0.755,99.87,2.0,,0.0,0.0,
2025-08-14T21:54:41.580Z,4,GR86-013-80,-36.8,0.222,-0.747,99.87,2.0,,0.0,0.0,
2025-08-14T21:54:41.624Z,4,GR86-013-80,-35.300000000000004,0.228,-0.798,99.87,2.0,6564.0,0.0,0.0,
2025-08-14T21:54:41.667Z,4,GR86-013-80,-33.5,0.231,-0.728,99.87,2.0,,0.0,0.0,112.42
2025-08-14T21:54:41.710Z,4,GR86-013-80,-32.2,0.236,-0.74,99.87,2.0,,0.0,0.0,
2025-08-14T21:54:41.752Z,4,GR86-013-80,-32.1,0.249,-0.719,99.88,2.0,,0.0,0.0,
2025-08-14T21:54:41.798Z,4,GR86-013-80,-33.800000000000004,0.233,-0.744,99.88,2.0,,0.0,0.0,
2025-08-14T21:54:41.841Z,4,GR86-013-80,-34.2,0.232,-0.766,99.88,2.0,6658.0,0.0,0.0,
2025-08-14T21:54:41.884Z,4,GR86-013-80,-34.300000000000004,0.221,-0.789,99.87,2.0,,0.0,0.0,113.65
2025-08-14T21:54:41.927Z,4,GR86-013-80,-33.7,0.228,-0.737,99.88,2.0,,0.0,0.0,
2025-08-14T21:54:41.971Z,4,GR86-013-80,-33.0,0.25,-0.753,99.87,2.0,,0.0,0.0,
2025-08-14T21:54:42.014Z,4,GR86-013-80,-32.6,0.234,-0.738,99.88,2.0,,0.0,0.0,
2025-08-14T21:54:42.058Z,4,GR86-013-80,-32.4,0.233,-0.757,99.89,2.0,6729.0,0.0,0.0,
2025-08-14T21:54:42.101Z,4,GR86-013-80,-31.9,0.218,-0.728,99.86,2.0,,0.0,0.0,114.3
2025-08-14T21:54:42.143Z,4,GR86-013-80,-31.4,0.235,-0.681,99.86,2.0,,0.0,0.0,
2025-08-14T21:54:42.187Z,4,GR86-013-80,-30.700000000000003,0.227,-0.604,99.86,2.0,,0.0,0.0,
2025-08-14T21:54:42.231Z,4,GR86-013-80,-29.3,0.207,-0.615,99.87,2.0,,0.0,0.0,
2025-08-14T21:54:42.274Z,4,GR86-013-80,-27.700000000000003,0.223,-0.629,99.87,2.0,6799.0,0.0,0.0,
2025-08-14T21:54:42.318Z,4,GR86-013-80,-23.0,0.184,-0.55,99.87,2.0,,0.0,0.0,115.55
2025-08-14T21:54:42.361Z,4,GR86-013-80,-19.0,0.212,-0.626,99.86,2.0,,0.0,0.0,
2025-08-14T21:54:42.404Z,4,GR86-013-80,-16.1,0.251,-0.603,99.87,2.0,,0.0,0.0,
2025-08-14T21:54:42.450Z,4,GR86-013-80,-14.2,0.271,-0.5650000000000001,99.87,2.0,,0.0,0.0,
2025-08-14T21:54:42.492Z,4,GR86-013-80,-13.6,0.25,-0.459,99.87,2.0,6911.0,0.0,0.0,
2025-08-14T21:54:42.538Z,4,GR86-013-80,-12.5,0.168,-0.379,99.88,2.0,,0.0,0.0,118.32
2025-08-14T21:54:42.581Z,4,GR86-013-80,-10.6,0.179,-0.416,99.87,2.0,,0.0,0.0,
2025-08-14T21:54:42.623Z,4,GR86-013-80,-9.1,0.182,-0.383,99.87,2.0,,0.0,0.0,
2025-08-14T21:54:42.668Z,4,GR86-013-80,-8.6,0.171,-0.328,99.87,2.0,,0.0,0.0,
2025-08-14T21:54:42.711Z,4,GR86-013-80,-8.8,0.194,-0.392,99.9,2.0,6971.0,0.0,0.0,
2025-08-14T21:54:42.754Z,4,GR86-013-80,-9.3,0.247,-0.417,99.88,2.0,,0.0,0.0,119.85
2025-08-14T21:54:42.798Z,4,GR86-013-80,-9.6,0.241,-0.352,99.88,2.0,,0.0,0.0,
2025-08-14T21:54:42.841Z,4,GR86-013-80,-8.700000000000001,0.192,-0.278,99.86,2.0,,0.0,0.0,
2025-08-14T21:54:42.883Z,4,GR86-013-80,-6.6000000000000005,0.16,-0.193,99.87,2.0,,0.0,0.0,
2025-08-14T21:54:42.927Z,4,GR86-013-80,-4.2,0.19,-0.28,99.9,2.0,7063.0,0.0,0.0,
2025-08-14T21:54:42.970Z,4,GR86-013-80,-2.3000000000000003,0.215,-0.124,99.86,2.0,,0.0,0.0,121.5
2025-08-14T21:54:43.012Z,4,GR86-013-80,-0.7000000000000001,0.272,-0.13,99.87,2.0,,0.0,0.0,
2025-08-14T21:54:43.058Z,4,GR86-013-80,1.3,0.2,-0.042,99.87,2.0,,0.0,0.0,
2025-08-14T21:54:43.101Z,4,GR86-013-80,2.2,0.268,-0.05,99.88,2.0,,0.0,0.0,
2025-08-14T21:54:43.143Z,4,GR86-013-80,2.8000000000000003,0.3,-0.048,99.87,2.0,7244.0,0.0,0.0,
2025-08-14T21:54:43.188Z,4,GR86-013-80,2.9000000000000004,0.293,0.001,99.87,2.0,,0.0,0.0,122.89
2025-08-14T21:54:43.230Z,4,GR86-013-80,2.5,0.254,0.032,99.87,2.0,,0.0,0.0,
2025-08-14T21:54:43.274Z,4,GR86-013-80,2.4000000000000004,0.227,0.034,99.87,2.0,,0.0,0.0,
2025-08-14T21:54:43.318Z,4,GR86-013-80,2.2,0.228,0.111,99.86,2.0,,0.0,0.0,
2025-08-14T21:54:43.361Z,4,GR86-013-80,2.0,0.194,0.117,99.86,2.0,7294.0,0.0,0.0,
2025-08-14T21:54:43.403Z,4,GR86-013-80,1.7000000000000002,-0.042,0.152,99.86,3.0,,0.0,0.0,124.72
2025-08-14T21:54:43.450Z,4,GR86-013-80,1.1,-0.056,0.17,99.87,3.0,,0.0,0.0,
2025-08-14T21:54:43.492Z,4,GR86-013-80,0.7000000000000001,0.651,0.114,99.91,3.0,,0.0,0.0,
2025-08-14T21:54:43.538Z,4,GR86-013-80,-0.1,0.41,0.136,99.89,3.0,,0.0,0.0,
2025-08-14T21:54:43.581Z,4,GR86-013-80,-1.0,0.19,0.137,99.9,3.0,6269.0,0.0,0.0,
2025-08-14T21:54:43.624Z,4,GR86-013-80,-1.9,0.086,0.069,99.9,3.0,,0.0,0.0,126.04
2025-08-14T21:54:43.667Z,4,GR86-013-80,-2.8000000000000003,0.129,0.095,99.91,3.0,,0.0,0.0,
2025-08-14T21:54:43.710Z,4,GR86-013-80,-3.5,0.209,0.079,99.89,3.0,,0.0,0.0,
2025-08-14T21:54:43.753Z,4,GR86-013-80,-3.6,0.251,0.005,99.9,3.0,,0.0,0.0,
2025-08-14T21:54:43.798Z,4,GR86-013-80,-3.7,0.222,0.005,99.91,3.0,6097.0,0.0,0.0,
2025-08-14T21:54:43.841Z,4,GR86-013-80,-3.8,0.181,-0.05,99.89,3.0,,0.0,0.0,127.66
2025-08-14T21:54:43.883Z,4,GR86-013-80,-3.8,0.18,-0.023,99.86,3.0,,0.0,0.0,
2025-08-14T21:54:43.927Z,4,GR86-013-80,-3.8,0.199,-0.048,99.88,3.0,,0.0,0.0,
2025-08-14T21:54:43.971Z,4,GR86-013-80,-3.5,0.222,-0.07,99.88,3.0,,0.0,0.0,
2025-08-14T21:54:44.014Z,4,GR86-013-80,-3.4000000000000004,0.204,-0.071,99.89,3.0,6121.0,0.0,0.0,
2025-08-14T21:54:44.058Z,4,GR86-013-80,-3.4000000000000004,0.191,-0.088,99.88,3.0,,0.0,0.0,129.11
2025-08-14T21:54:44.102Z,4,GR86-013-80,-3.3000000000000003,0.189,-0.078,99.87,3.0,,0.0,0.0,
2025-08-14T21:54:44.145Z,4,GR86-013-80,-3.2,0.193,-0.073,99.87,3.0,,0.0,0.0,
2025-08-14T21:54:44.188Z,4,GR86-013-80,-3.1,0.184,-0.068,99.88,3.0,,0.0,0.0,
2025-08-14T21:54:44.230Z,4,GR86-013-80,-3.1,0.174,-0.063,99.87,3.0,6170.0,0.0,0.0,
2025-08-14T21:54:44.274Z,4,GR86-013-80,-3.0,0.21,-0.055,99.89,3.0,,0.0,0.0,130.67000000000002
2025-08-14T21:54:44.318Z,4,GR86-013-80,-2.0,0.201,-0.054,99.9,3.0,,0.0,0.0,
2025-08-14T21:54:44.361Z,4,GR86-013-80,-1.6,0.209,-0.063,99.88,3.0,,0.0,0.0,
2025-08-14T21:54:44.403Z,4,GR86-013-80,-1.4,0.191,-0.061,99.89,3.0,,0.0,0.0,
2025-08-14T21:54:44.450Z,4,GR86-013-80,-1.0,0.181,-0.032,99.89,3.0,6249.0,0.0,0.0,
2025-08-14T21:54:44.492Z,4,GR86-013-80,-0.4,0.184,-0.006,99.9,3.0,,0.0,0.0,132.08
2025-08-14T21:54:44.538Z,4,GR86-013-80,0.9,0.18,0.005,99.88,3.0,,0.0,0.0,
2025-08-14T21:54:44.581Z,4,GR86-013-80,1.4,0.212,-0.003,99.89,3.0,,0.0,0.0,
2025-08-14T21:54:44.623Z,4,GR86-013-80,1.4,0.198,-0.009,99.88,3.0,,0.0,0.0,
2025-08-14T21:54:44.667Z,4,GR86-013-80,1.4,0.182,0.019,99.9,3.0,6318.0,0.0,0.0,
2025-08-14T21:54:44.710Z,4,GR86-013-80,1.2000000000000002,0.174,0.051,99.9,3.0,,0.0,0.0,133.47
2025-08-14T21:54:44.752Z,4,GR86-013-80,1.1,0.207,0.038,99.88,3.0,,0.0,0.0,
2025-08-14T21:54:44.798Z,4,GR86-013-80,0.9,0.204,0.041,99.87,3.0,,0.0,0.0,
2025-08-14T21:54:44.841Z,4,GR86-013-80,0.8,0.192,0.042,99.87,3.0,,0.0,0.0,
2025-08-14T21:54:44.884Z,4,GR86-013-80,0.8,0.163,0.048,99.88,3.0,6376.0,0.0,0.0,
2025-08-14T21:54:44.928Z,4,GR86-013-80,0.8,0.165,0.066,99.89,3.0,,0.0,0.0,135.02
2025-08-14T21:54:44.971Z,4,GR86-013-80,0.9,0.198,0.072,99.9,3.0,,0.0,0.0,
2025-08-14T21:54:45.014Z,4,GR86-013-80,0.9,0.212,0.056,99.89,3.0,,0.0,0.0,
2025-08-14T21:54:45.058Z,4,GR86-013-80,0.7000000000000001,0.202,0.068,99.9,3.0,,0.0,0.0,
2025-08-14T21:54:45.101Z,4,GR86-013-80,0.7000000000000001,0.174,0.053,99.87,3.0,6456.0,0.0,0.0,
2025-08-14T21:54:45.143Z,4,GR86-013-80,0.5,0.152,0.063,99.89,3.0,,0.0,0.0,137.96
2025-08-14T21:54:45.187Z,4,GR86-013-80,0.3,0.174,0.084,99.91,3.0,,0.0,0.0,
2025-08-14T21:54:45.274Z,4,GR86-013-80,0.1,0.202,0.057,99.88,3.0,,0.0,0.0,
2025-08-14T21:54:45.318Z,4,GR86-013-80,0.0,0.216,0.042,99.88,3.0,6516.0,0.0,0.0,
2025-08-14T21:54:45.361Z,4,GR86-013-80,-0.1,0.186,0.033,99.89,3.0,,0.0,0.0,139.33
2025-08-14T21:54:45.404Z,4,GR86-013-80,-0.1,0.138,0.038,99.89,3.0,,0.0,0.0,
2025-08-14T21:54:45.450Z,4,GR86-013-80,-0.1,0.154,0.046,99.88,3.0,,0.0,0.0,
2025-08-14T21:54:45.492Z,4,GR86-013-80,-0.2,0.197,0.052,99.89,3.0,,0.0,0.0,
2025-08-14T21:54:45.538Z,4,GR86-013-80,-0.3,0.188,0.044,99.9,3.0,6681.0,0.0,0.0,
2025-08-14T21:54:45.581Z,4,GR86-013-80,-0.3,0.217,0.028,99.89,3.0,,0.0,0.0,140.82
2025-08-14T21:54:45.623Z,4,GR86-013-80,-0.3,0.17,0.004,99.88,3.0,,0.0,0.0,
2025-08-14T21:54:45.668Z,4,GR86-013-80,-0.3,0.131,0.015,99.87,3.0,,0.0,0.0,
2025-08-14T21:54:45.711Z,4,GR86-013-80,-0.3,0.141,0.017,99.88,3.0,,0.0,0.0,
2025-08-14T21:54:45.754Z,4,GR86-013-80,-0.1,0.199,0.013,99.9,3.0,6739.0,0.0,0.0,
2025-08-14T21:54:45.798Z,4,GR86-013-80,-0.1,0.171,0.025,99.88,3.0,,0.0,0.0,142.43
2025-08-14T21:54:45.841Z,4,GR86-013-80,-0.1,0.208,0.025,99.87,3.0,,0.0,0.0,
2025-08-14T21:54:45.883Z,4,GR86-013-80,-0.2,0.187,0.007,99.88,3.0,,0.0,0.0,
2025-08-14T21:54:45.927Z,4,GR86-013-80,-0.3,0.139,-0.003,99.87,3.0,,0.0,0.0,
2025-08-14T21:54:45.970Z,4,GR86-013-80,-0.3,0.136,0.003,99.87,3.0,6787.0,0.0,0.0,
2025-08-14T21:54:46.012Z,4,GR86-013-80,-0.3,0.179,0.03,99.89,3.0,,0.0,0.0,144.19
2025-08-14T21:54:46.058Z,4,GR86-013-80,-0.3,0.152,0.016,99.87,3.0,,0.0,0.0,
2025-08-14T21:54:46.101Z,4,GR86-013-80,-0.3,0.158,0.024,99.87,3.0,,0.0,0.0,
2025-08-14T21:54:46.143Z,4,GR86-013-80,-0.3,0.183,0.01,99.87,3.0,,0.0,0.0,
2025-08-14T21:54:46.188Z,4,GR86-013-80,-0.3,0.187,-0.009,99.89,3.0,6868.0,0.0,0.0,
2025-08-14T21:54:46.231Z,4,GR86-013-80,-0.4,0.168,0.013,99.87,3.0,,0.0,0.0,145.8
2025-08-14T21:54:46.274Z,4,GR86-013-80,-0.4,0.136,0.014,99.87,3.0,,0.0,0.0,
2025-08-14T21:54:46.318Z,4,GR86-013-80,-0.7000000000000001,0.143,0.0,99.86,3.0,,0.0,0.0,
2025-08-14T21:54:46.361Z,4,GR86-013-80,-1.2000000000000002,0.146,-0.012,99.86,3.0,,0.0,0.0,
2025-08-14T21:54:46.403Z,4,GR86-013-80,-1.5,0.16,-0.001,99.87,3.0,6939.0,0.0,0.0,
2025-08-14T21:54:46.450Z,4,GR86-013-80,-1.6,0.191,0.002,99.9,3.0,,0.0,0.0,147.43
2025-08-14T21:54:46.492Z,4,GR86-013-80,-1.8,0.165,0.0,99.87,3.0,,0.0,0.0,
2025-08-14T21:54:46.538Z,4,GR86-013-80,-2.0,0.177,-0.017,99.91,3.0,,0.0,0.0,
2025-08-14T21:54:46.581Z,4,GR86-013-80,-2.3000000000000003,0.193,-0.032,99.87,3.0,,0.0,0.0,
2025-08-14T21:54:46.623Z,4,GR86-013-80,-2.9000000000000004,0.178,-0.052,99.88,3.0,7023.0,0.0,0.0,
2025-08-14T21:54:46.667Z,4,GR86-013-80,-3.5,0.149,-0.07,99.89,3.0,,0.0,0.0,148.93
2025-08-14T21:54:46.710Z,4,GR86-013-80,-4.2,0.131,-0.07,99.87,3.0,,0.0,0.0,
2025-08-14T21:54:46.753Z,4,GR86-013-80,-4.800000000000001,0.159,-0.067,99.87,3.0,,0.0,0.0,
2025-08-14T21:54:46.798Z,4,GR86-013-80,-5.7,0.128,-0.099,99.88,3.0,,0.0,0.0,
2025-08-14T21:54:46.841Z,4,GR86-013-80,-6.300000000000001,0.132,-0.096,99.87,3.0,7080.0,0.0,0.0,
2025-08-14T21:54:46.883Z,4,GR86-013-80,-6.800000000000001,0.163,-0.132,99.88,3.0,,0.0,0.0,150.62
2025-08-14T21:54:46.927Z,4,GR86-013-80,-7.4,0.174,-0.161,99.88,3.0,,0.0,0.0,
2025-08-14T21:54:46.971Z,4,GR86-013-80,-7.800000000000001,0.18,-0.193,99.88,3.0,,0.0,0.0,
2025-08-14T21:54:47.058Z,4,GR86-013-80,-8.200000000000001,0.154,-0.214,99.87,3.0,7173.0,0.0,0.0,
2025-08-14T21:54:47.102Z,4,GR86-013-80,-9.3,0.16,-0.257,99.88,3.0,,0.0,0.0,152.06
2025-08-14T21:54:47.145Z,4,GR86-013-80,-9.5,0.142,-0.282,99.87,3.0,,0.0,0.0,
2025-08-14T21:54:47.188Z,4,GR86-013-80,-9.4,0.13,-0.28,99.87,3.0,,0.0,0.0,
2025-08-14T21:54:47.231Z,4,GR86-013-80,-9.3,0.144,-0.279,99.87,3.0,,0.0,0.0,
2025-08-14T21:54:47.274Z,4,GR86-013-80,-9.3,0.156,-0.281,99.89,3.0,7219.0,0.0,0.0,
2025-08-14T21:54:47.318Z,4,GR86-013-80,-9.4,0.131,-0.308,99.87,3.0,,0.0,0.0,153.66
2025-08-14T21:54:47.361Z,4,GR86-013-80,-9.6,0.135,-0.29,99.91,3.0,,0.0,0.0,
2025-08-14T21:54:47.403Z,4,GR86-013-80,-9.8,0.13,-0.294,99.88,3.0,,0.0,0.0,
2025-08-14T21:54:47.450Z,4,GR86-013-80,-10.4,0.133,-0.323,99.91,3.0,,0.0,0.0,
2025-08-14T21:54:47.492Z,4,GR86-013-80,-10.9,0.114,-0.342,99.89,3.0,7290.0,0.0,0.0,
2025-08-14T21:54:47.538Z,4,GR86-013-80,-11.4,0.071,-0.326,99.9,3.0,,0.0,0.0,156.59
2025-08-14T21:54:47.581Z,4,GR86-013-80,-11.3,0.08,-0.339,99.87,3.0,,0.0,0.0,
2025-08-14T21:54:47.623Z,4,GR86-013-80,-10.4,0.062,-0.342,99.7,3.0,,0.0,0.0,
2025-08-14T21:54:47.667Z,4,GR86-013-80,-8.700000000000001,0.033,-0.334,99.87,3.0,,0.0,0.0,
2025-08-14T21:54:47.710Z,4,GR86-013-80,-7.9,0.04,-0.309,99.85,3.0,7304.0,0.0,0.0,
2025-08-14T21:54:47.752Z,4,GR86-013-80,-7.7,0.028,-0.285,99.81,3.0,,0.0,0.0,157.62
2025-08-14T21:54:47.798Z,4,GR86-013-80,-7.800000000000001,0.031,-0.279,99.56,3.0,,0.0,0.0,
2025-08-14T21:54:47.883Z,4,GR86-013-80,-7.7,0.002,-0.273,98.82,3.0,,0.0,0.0,
2025-08-14T21:54:47.928Z,4,GR86-013-80,-7.4,-0.032,-0.274,85.7,3.0,7295.0,0.0,0.0,
2025-08-14T21:54:47.971Z,4,GR86-013-80,-6.9,-0.071,-0.236,55.86,3.0,,0.0,0.0,158.06
2025-08-14T21:54:48.013Z,4,GR86-013-80,-6.9,-0.051,-0.196,49.07,4.0,,0.0,0.0,
2025-08-14T21:54:48.058Z,4,GR86-013-80,-6.800000000000001,0.452,-0.262,34.51,4.0,,0.0,0.0,
2025-08-14T21:54:48.101Z,4,GR86-013-80,-6.7,0.239,-0.241,33.4,4.0,,0.0,0.0,
2025-08-14T21:54:48.143Z,4,GR86-013-80,-6.800000000000001,0.068,-0.16,33.37,4.0,6150.0,0.0,0.0,
2025-08-14T21:54:48.187Z,4,GR86-013-80,-6.800000000000001,-0.016,-0.217,32.82,4.0,,0.0,0.0,158.67000000000002
2025-08-14T21:54:48.231Z,4,GR86-013-80,-6.9,0.044,-0.202,29.86,4.0,,0.0,0.0,
2025-08-14T21:54:48.274Z,4,GR86-013-80,-7.5,0.093,-0.191,22.96,4.0,,0.0,0.0,
2025-08-14T21:54:48.318Z,4,GR86-013-80,-8.5,0.059,-0.194,14.21,4.0,,2.335,2.275,
2025-08-14T21:54:48.361Z,4,GR86-013-80,-9.4,-0.03,-0.168,3.23,4.0,6237.0,5.0200000000000005,4.775,
2025-08-14T21:54:48.404Z,4,GR86-013-80,-9.7,-0.165,-0.247,3.6,4.0,,9.57,9.37,159.83
2025-08-14T21:54:48.450Z,4,GR86-013-80,-9.7,-0.35,-0.23,3.54,4.0,,15.275,15.03,
2025-08-14T21:54:48.538Z,4,GR86-013-80,-8.9,-0.419,-0.233,3.41,4.0,,21.12,20.935,
2025-08-14T21:54:48.623Z,4,GR86-013-80,-5.2,-0.735,-0.282,2.93,4.0,5899.0,26.81,27.18,159.4
2025-08-14T21:54:48.667Z,4,GR86-013-80,-1.3,-0.582,-0.203,2.62,4.0,,26.43,27.115,
2025-08-14T21:54:48.711Z,4,GR86-013-80,0.5,-0.494,-0.182,2.53,4.0,,26.295,26.905,
2025-08-14T21:54:48.754Z,4,GR86-013-80,1.2000000000000002,-0.515,-0.26,2.49,4.0,,26.505,26.995,
2025-08-14T21:54:48.798Z,4,GR86-013-80,-0.1,-0.527,-0.178,2.46,4.0,5916.0,27.345,27.925,
2025-08-14T21:54:49.361Z,4,GR86-013-80,1.5,-0.845,-0.139,2.46,4.0,,47.61,48.025,
2025-08-14T21:54:49.538Z,4,GR86-013-80,5.300000000000001,-0.8160000000000001,-0.146,99.85,4.0,,37.11,37.555,
2025-08-14T21:54:49.710Z,4,GR86-013-80,6.2,-0.604,-0.106,6.08,3.0,5076.0,34.625,35.435,141.5
2025-08-14T21:54:49.753Z,4,GR86-013-80,4.9,-0.628,-0.071,3.13,3.0,,34.625,35.465,
2025-08-14T21:54:49.798Z,4,GR86-013-80,3.5,-0.661,-0.007,2.81,3.0,,35.34,35.86,
2025-08-14T21:54:49.841Z,4,GR86-013-80,2.8000000000000003,-0.6990000000000001,-0.022,2.67,3.0,,35.02,35.375,
2025-08-14T21:54:49.928Z,4,GR86-013-80,2.2,-0.769,0.0,2.59,3.0,5901.0,34.685,34.96,131.87
2025-08-14T21:54:49.971Z,4,GR86-013-80,1.5,-0.665,0.04,2.52,3.0,,35.89,36.275,
2025-08-14T21:54:50.013Z,4,GR86-013-80,0.9,-0.772,0.019,2.52,3.0,,35.71,35.92,
2025-08-14T21:54:50.058Z,4,GR86-013-80,-0.6000000000000001,-0.754,-0.02,2.5,3.0,,37.585,37.675,
2025-08-14T21:54:50.101Z,4,GR86-013-80,-1.4,-0.72,-0.016,2.49,3.0,5675.0,40.18,40.745,
2025-08-14T21:54:50.145Z,4,GR86-013-80,-1.9,-0.746,0.026,2.49,3.0,,40.3,40.53,122.21
2025-08-14T21:54:50.231Z,4,GR86-013-80,-1.9,-0.669,-0.041,24.59,3.0,,40.895,41.86,
2025-08-14T21:54:50.274Z,4,GR86-013-80,-1.9,-0.8220000000000001,-0.025,70.63,3.0,,39.25,39.28,
2025-08-14T21:54:50.361Z,4,GR86-013-80,-1.7000000000000002,-0.803,-0.038,99.9,3.0,5442.0,38.015,38.075,116.82
2025-08-14T21:54:50.403Z,4,GR86-013-80,-0.8,-0.671,-0.073,10.46,2.0,,33.875,34.305,
2025-08-14T21:54:50.450Z,4,GR86-013-80,-0.8,-0.886,-0.024,3.16,2.0,,33.22,34.12,
2025-08-14T21:54:50.492Z,4,GR86-013-80,-1.1,-0.601,-0.161,2.71,2.0,,34.425000000000004,35.175000000000004,
2025-08-14T21:54:50.538Z,4,GR86-013-80,-2.7,-0.721,-0.102,2.48,2.0,6053.0,34.275,34.745,
2025-08-14T21:54:50.581Z,4,GR86-013-80,-4.800000000000001,-0.756,-0.127,2.45,2.0,,34.305,34.335,112.46
2025-08-14T21:54:50.623Z,4,GR86-013-80,-6.2,-0.747,-0.315,2.43,2.0,,35.68,36.455,
2025-08-14T21:54:50.667Z,4,GR86-013-80,-8.200000000000001,-0.729,-0.146,2.43,2.0,,35.145,35.145,
2025-08-14T21:54:50.710Z,4,GR86-013-80,-9.1,-0.793,-0.281,2.43,2.0,,38.655,39.125,
2025-08-14T21:54:50.752Z,4,GR86-013-80,-9.8,-0.728,-0.316,2.42,2.0,5892.0,40.805,40.685,
2025-08-14T21:54:50.798Z,4,GR86-013-80,-10.0,-0.8180000000000001,-0.273,2.43,2.0,,43.355,43.2,108.4
2025-08-14T21:54:50.841Z,4,GR86-013-80,-10.0,-0.802,-0.35,2.46,2.0,,45.125,45.69,
2025-08-14T21:54:50.883Z,4,GR86-013-80,-10.0,-0.732,-0.223,2.45,2.0,,43.92,43.645,
2025-08-14T21:54:50.928Z,4,GR86-013-80,-10.2,-0.8180000000000001,-0.396,2.45,2.0,,45.0,45.215,
2025-08-14T21:54:50.971Z,4,GR86-013-80,-10.2,-0.6880000000000001,-0.351,2.43,2.0,5549.0,41.31,41.585,
2025-08-14T21:54:51.013Z,4,GR86-013-80,-10.1,-0.741,-0.371,2.43,2.0,,40.5,40.5,104.1
2025-08-14T21:54:51.058Z,4,GR86-013-80,-13.8,-0.6880000000000001,-0.391,2.44,2.0,,38.715,39.19,
2025-08-14T21:54:51.101Z,4,GR86-013-80,-17.900000000000002,-0.67,-0.443,2.44,2.0,,34.335,34.425000000000004,
2025-08-14T21:54:51.143Z,4,GR86-013-80,-20.6,-0.5750000000000001,-0.457,2.43,2.0,,29.74,30.185,
2025-08-14T21:54:51.187Z,4,GR86-013-80,-21.9,-0.608,-0.477,2.46,2.0,5309.0,25.27,25.36,
2025-08-14T21:54:51.231Z,4,GR86-013-80,-23.0,-0.522,-0.513,2.46,2.0,,22.965,23.21,99.42
2025-08-14T21:54:51.274Z,4,GR86-013-80,-24.1,-0.515,-0.552,2.44,2.0,,18.985,19.15,
2025-08-14T21:54:51.318Z,4,GR86-013-80,-28.5,-0.465,-0.534,2.46,2.0,,17.03,17.12,
2025-08-14T21:54:51.361Z,4,GR86-013-80,-33.4,-0.492,-0.5660000000000001,2.45,2.0,,16.435,16.895,
2025-08-14T21:54:51.404Z,4,GR86-013-80,-37.7,-0.426,-0.652,2.46,2.0,5240.0,17.12,17.09,
2025-08-14T21:54:51.450Z,4,GR86-013-80,-40.6,-0.481,-0.639,2.46,2.0,,16.71,17.12,96.1
2025-08-14T21:54:51.492Z,4,GR86-013-80,-41.3,-0.441,-0.708,2.46,2.0,,17.03,17.06,
2025-08-14T21:54:51.538Z,4,GR86-013-80,-40.900000000000006,-0.485,-0.717,2.45,2.0,,15.215,15.565,
2025-08-14T21:54:51.581Z,4,GR86-013-80,-40.6,-0.405,-0.748,2.46,2.0,,10.115,10.47,
2025-08-14T21:54:51.623Z,4,GR86-013-80,-40.5,-0.313,-0.769,2.46,2.0,5078.0,3.405,3.695,
2025-08-14T21:54:51.667Z,4,GR86-013-80,-40.5,-0.169,-0.804,3.17,2.0,,0.0,0.0,93.5
2025-08-14T21:54:51.711Z,4,GR86-013-80,-40.400000000000006,-0.175,-0.78,4.83,2.0,,0.0,0.0,
2025-08-14T21:54:51.753Z,4,GR86-013-80,-40.7,-0.162,-0.8210000000000001,6.16,2.0,,0.0,0.0,
2025-08-14T21:54:51.798Z,4,GR86-013-80,-42.6,-0.148,-0.85,18.05,2.0,,0.0,0.0,
2025-08-14T21:54:51.841Z,4,GR86-013-80,-47.400000000000006,-0.148,-0.837,19.5,2.0,4993.0,0.0,0.0,
2025-08-14T21:54:51.883Z,4,GR86-013-80,-55.1,-0.123,-0.908,19.55,2.0,,0.0,0.0,91.51
2025-08-14T21:54:51.927Z,4,GR86-013-80,-64.10000000000001,-0.114,-0.875,19.47,2.0,,0.0,0.0,
2025-08-14T21:54:51.970Z,4,GR86-013-80,-70.4,-0.116,-0.887,19.42,2.0,,0.0,0.0,
2025-08-14T21:54:52.012Z,4,GR86-013-80,-72.5,-0.087,-0.886,19.23,2.0,,0.0,0.0,
2025-08-14T21:54:52.058Z,4,GR86-013-80,-72.0,-0.061,-0.892,18.69,2.0,5007.0,0.0,0.0,
2025-08-14T21:54:52.101Z,4,GR86-013-80,-72.2,0.138,-0.893,15.18,2.0,,0.0,0.0,90.45
2025-08-14T21:54:52.143Z,4,GR86-013-80,-74.0,0.134,-0.907,14.51,2.0,,0.0,0.0,
2025-08-14T21:54:52.188Z,4,GR86-013-80,-77.5,0.044,-0.848,15.69,2.0,,0.0,0.0,
2025-08-14T21:54:52.230Z,4,GR86-013-80,-81.4,-0.044,-0.918,14.38,2.0,,0.0,0.0,
2025-08-14T21:54:52.274Z,4,GR86-013-80,-84.60000000000001,-0.086,-0.932,10.51,2.0,5209.0,0.0,0.0,
2025-08-14T21:54:52.318Z,4,GR86-013-80,-88.2,-0.056,-0.96,7.38,2.0,,0.0,0.0,89.54
2025-08-14T21:54:52.361Z,4,GR86-013-80,-89.80000000000001,-0.061,-0.975,6.45,2.0,,0.0,0.0,
2025-08-14T21:54:52.403Z,4,GR86-013-80,-91.1,-0.067,-0.935,5.73,2.0,,0.0,0.0,
2025-08-14T21:54:52.450Z,4,GR86-013-80,-91.3,-0.095,-0.946,5.61,2.0,,0.0,0.0,
2025-08-14T21:54:52.492Z,4,GR86-013-80,-91.0,-0.117,-0.999,5.61,2.0,5042.0,0.0,0.0,
2025-08-14T21:54:52.538Z,4,GR86-013-80,-86.5,-0.123,-1.047,5.55,2.0,,0.0,0.0,89.58
2025-08-14T21:54:52.581Z,4,GR86-013-80,-81.5,-0.113,-1.011,6.0,2.0,,0.0,0.0,
2025-08-14T21:54:52.623Z,4,GR86-013-80,-76.7,-0.209,-1.038,12.63,2.0,,0.0,0.0,
2025-08-14T21:54:52.667Z,4,GR86-013-80,-73.4,-0.21,-0.994,18.52,2.0,,0.0,0.0,
2025-08-14T21:54:52.710Z,4,GR86-013-80,-66.8,-0.182,-1.042,20.46,2.0,4872.0,0.0,0.0,
2025-08-14T21:54:52.753Z,4,GR86-013-80,-60.7,-0.108,-1.022,20.97,2.0,,0.0,0.0,88.95
2025-08-14T21:54:52.798Z,4,GR86-013-80,-57.2,-0.107,-0.976,21.39,2.0,,0.0,0.0,
2025-08-14T21:54:52.841Z,4,GR86-013-80,-60.0,-0.092,-0.979,22.76,2.0,,0.0,0.0,
2025-08-14T21:54:52.883Z,4,GR86-013-80,-62.400000000000006,-0.04,-0.988,24.26,2.0,,0.0,0.0,
2025-08-14T21:54:52.928Z,4,GR86-013-80,-63.0,0.188,-0.956,25.53,2.0,4886.0,0.0,0.0,
2025-08-14T21:54:52.971Z,4,GR86-013-80,-62.1,0.172,-0.982,29.96,2.0,,0.0,0.0,87.63
2025-08-14T21:54:53.014Z,4,GR86-013-80,-59.5,0.154,-0.903,37.9,2.0,,0.0,0.0,
2025-08-14T21:54:53.058Z,4,GR86-013-80,-59.7,0.089,-0.958,45.76,2.0,,0.0,0.0,
2025-08-14T21:54:53.101Z,4,GR86-013-80,-62.8,0.126,-0.916,51.34,2.0,,0.0,0.0,
2025-08-14T21:54:53.188Z,4,GR86-013-80,-72.7,0.209,-0.922,55.46,2.0,5113.0,0.0,0.0,87.11
2025-08-14T21:54:53.231Z,4,GR86-013-80,-75.60000000000001,0.209,-0.874,56.32,2.0,,0.0,0.0,
2025-08-14T21:54:53.274Z,4,GR86-013-80,-76.10000000000001,0.213,-0.852,56.4,2.0,,0.0,0.0,
2025-08-14T21:54:53.318Z,4,GR86-013-80,-75.8,0.242,-0.856,55.58,2.0,,0.0,0.0,
2025-08-14T21:54:53.361Z,4,GR86-013-80,-75.60000000000001,0.253,-0.8250000000000001,55.09,2.0,5161.0,0.0,0.0,
2025-08-14T21:54:53.403Z,4,GR86-013-80,-75.5,0.238,-0.8180000000000001,54.74,2.0,,0.0,0.0,87.61
2025-08-14T21:54:53.450Z,4,GR86-013-80,-75.5,0.237,-0.8310000000000001,54.73,2.0,,0.0,0.0,
2025-08-14T21:54:53.492Z,4,GR86-013-80,-75.7,0.227,-0.8300000000000001,54.76,2.0,,0.0,0.0,
2025-08-14T21:54:53.538Z,4,GR86-013-80,-76.2,0.198,-0.856,54.59,2.0,,0.0,0.0,
2025-08-14T21:54:53.581Z,4,GR86-013-80,-76.5,0.197,-0.812,54.52,2.0,5237.0,0.0,0.0,
2025-08-14T21:54:53.623Z,4,GR86-013-80,-76.7,0.206,-0.8280000000000001,54.52,2.0,,0.0,0.0,88.98
2025-08-14T21:54:53.667Z,4,GR86-013-80,-76.7,0.188,-0.844,54.67,2.0,,0.0,0.0,
2025-08-14T21:54:53.710Z,4,GR86-013-80,-76.5,0.189,-0.87,54.89,2.0,,0.0,0.0,
2025-08-14T21:54:53.752Z,4,GR86-013-80,-75.9,0.179,-0.881,55.02,2.0,,0.0,0.0,
2025-08-14T21:54:53.798Z,4,GR86-013-80,-74.0,0.23,-0.894,55.22,2.0,5331.0,0.0,0.0,
2025-08-14T21:54:53.841Z,4,GR86-013-80,-71.4,0.23,-0.879,55.29,2.0,,0.0,0.0,90.56
2025-08-14T21:54:53.883Z,4,GR86-013-80,-69.9,0.232,-0.872,55.2,2.0,,0.0,0.0,
2025-08-14T21:54:53.971Z,4,GR86-013-80,-68.7,0.228,-0.868,54.97,2.0,,0.0,0.0,
2025-08-14T21:54:54.013Z,4,GR86-013-80,-62.5,0.197,-0.869,54.620000000000005,2.0,5428.0,0.0,0.0,
2025-08-14T21:54:54.058Z,4,GR86-013-80,-56.7,0.24,-0.811,54.45,2.0,,0.0,0.0,92.16
2025-08-14T21:54:54.101Z,4,GR86-013-80,-52.900000000000006,0.254,-0.848,54.82,2.0,,0.0,0.0,
2025-08-14T21:54:54.187Z,4,GR86-013-80,-52.5,0.235,-0.812,56.21,2.0,,0.0,0.0,
2025-08-14T21:54:54.231Z,4,GR86-013-80,-54.8,0.23,-0.847,76.25,2.0,5517.0,0.0,0.0,
2025-08-14T21:54:54.274Z,4,GR86-013-80,-57.1,0.239,-0.809,90.21,2.0,,0.0,0.0,93.35
2025-08-14T21:54:54.318Z,4,GR86-013-80,-61.400000000000006,0.261,-0.8300000000000001,99.57,2.0,,0.0,0.0,
2025-08-14T21:54:54.361Z,4,GR86-013-80,-64.7,0.259,-0.807,99.8,2.0,,0.0,0.0,
2025-08-14T21:54:54.404Z,4,GR86-013-80,-65.3,0.242,-0.871,99.81,2.0,,0.0,0.0,
2025-08-14T21:54:54.450Z,4,GR86-013-80,-65.0,0.233,-0.858,99.8,2.0,5601.0,0.0,0.0,
2025-08-14T21:54:54.492Z,4,GR86-013-80,-64.5,0.252,-0.887,99.81,2.0,,0.0,0.0,94.76
2025-08-14T21:54:54.538Z,4,GR86-013-80,-63.8,0.256,-0.938,99.8,2.0,,0.0,0.0,
2025-08-14T21:54:54.581Z,4,GR86-013-80,-63.400000000000006,0.247,-0.935,99.8,2.0,,0.0,0.0,
2025-08-14T21:54:54.623Z,4,GR86-013-80,-62.5,0.244,-0.958,99.82,2.0,,0.0,0.0,
2025-08-14T21:54:54.667Z,4,GR86-013-80,-60.5,0.236,-0.925,99.8,2.0,5686.0,0.0,0.0,
2025-08-14T21:54:54.711Z,4,GR86-013-80,-58.3,0.252,-0.856,99.81,2.0,,0.0,0.0,96.08
2025-08-14T21:54:54.753Z,4,GR86-013-80,-55.7,0.234,-0.8220000000000001,99.81,2.0,,0.0,0.0,
2025-08-14T21:54:54.798Z,4,GR86-013-80,-51.400000000000006,0.221,-0.85,99.8,2.0,,0.0,0.0,
2025-08-14T21:54:54.841Z,4,GR86-013-80,-48.6,0.218,-0.851,99.8,2.0,,0.0,0.0,
2025-08-14T21:54:54.883Z,4,GR86-013-80,-46.6,0.227,-0.839,99.82,2.0,5756.0,0.0,0.0,
2025-08-14T21:54:54.927Z,4,GR86-013-80,-45.3,0.227,-0.835,99.82,2.0,,0.0,0.0,97.85
2025-08-14T21:54:54.970Z,4,GR86-013-80,-44.400000000000006,0.254,-0.787,99.84,2.0,,0.0,0.0,
2025-08-14T21:54:55.012Z,4,GR86-013-80,-44.1,0.249,-0.8280000000000001,99.83,2.0,,0.0,0.0,
2025-08-14T21:54:55.056Z,4,GR86-013-80,-43.7,0.219,-0.839,99.84,2.0,,0.0,0.0,
2025-08-14T21:54:55.101Z,4,GR86-013-80,-43.6,0.227,-0.85,99.83,2.0,5866.0,0.0,0.0,
2025-08-14T21:54:55.143Z,4,GR86-013-80,-43.900000000000006,0.234,-0.833,99.84,2.0,,0.0,0.0,100.41
2025-08-14T21:54:55.188Z,4,GR86-013-80,-44.400000000000006,0.271,-0.804,99.84,2.0,,0.0,0.0,
2025-08-14T21:54:55.231Z,4,GR86-013-80,-44.400000000000006,0.245,-0.8160000000000001,99.84,2.0,,0.0,0.0,
2025-08-14T21:54:55.274Z,4,GR86-013-80,-43.6,0.248,-0.833,99.82,2.0,,0.0,0.0,
2025-08-14T21:54:55.318Z,4,GR86-013-80,-40.6,0.261,-0.836,99.83,2.0,5931.0,0.0,0.0,
2025-08-14T21:54:55.361Z,4,GR86-013-80,-38.5,0.261,-0.8130000000000001,99.83,2.0,,0.0,0.0,101.82
2025-08-14T21:54:55.403Z,4,GR86-013-80,-37.2,0.267,-0.782,99.84,2.0,,0.0,0.0,
2025-08-14T21:54:55.449Z,4,GR86-013-80,-36.5,0.204,-0.777,99.83,2.0,,0.0,0.0,
2025-08-14T21:54:55.492Z,4,GR86-013-80,-36.0,0.233,-0.836,99.84,2.0,,0.0,0.0,
2025-08-14T21:54:55.538Z,4,GR86-013-80,-35.5,0.247,-0.803,99.85,2.0,6094.0,0.0,0.0,
2025-08-14T21:54:55.581Z,4,GR86-013-80,-35.5,0.26,-0.764,99.84,2.0,,0.0,0.0,103.35
2025-08-14T21:54:55.623Z,4,GR86-013-80,-35.6,0.266,-0.742,99.84,2.0,,0.0,0.0,
2025-08-14T21:54:55.667Z,4,GR86-013-80,-35.7,0.246,-0.773,99.83,2.0,,0.0,0.0,
2025-08-14T21:54:55.710Z,4,GR86-013-80,-35.7,0.252,-0.746,99.83,2.0,,0.0,0.0,
2025-08-14T21:54:55.753Z,4,GR86-013-80,-35.300000000000004,0.242,-0.766,99.85,2.0,6156.0,0.0,0.0,
2025-08-14T21:54:55.798Z,4,GR86-013-80,-34.7,0.256,-0.722,99.84,2.0,,0.0,0.0,104.79
2025-08-14T21:54:55.841Z,4,GR86-013-80,-34.4,0.255,-0.7030000000000001,99.84,2.0,,0.0,0.0,
2025-08-14T21:54:55.883Z,4,GR86-013-80,-33.9,0.232,-0.705,99.84,2.0,,0.0,0.0,
2025-08-14T21:54:55.927Z,4,GR86-013-80,-32.800000000000004,0.23,-0.71,99.83,2.0,,0.0,0.0,
2025-08-14T21:54:55.971Z,4,GR86-013-80,-31.4,0.264,-0.662,99.83,2.0,6234.0,0.0,0.0,
2025-08-14T21:54:56.014Z,4,GR86-013-80,-30.4,0.255,-0.655,99.84,2.0,,0.0,0.0,105.45
2025-08-14T21:54:56.058Z,4,GR86-013-80,-29.3,0.247,-0.634,99.83,2.0,,0.0,0.0,
2025-08-14T21:54:56.101Z,4,GR86-013-80,-28.9,0.258,-0.609,99.84,2.0,,0.0,0.0,
2025-08-14T21:54:56.145Z,4,GR86-013-80,-28.200000000000003,0.23,-0.608,99.83,2.0,,0.0,0.0,
2025-08-14T21:54:56.188Z,4,GR86-013-80,-26.9,0.238,-0.579,99.86,2.0,6312.0,0.0,0.0,
2025-08-14T21:54:56.231Z,4,GR86-013-80,-25.0,0.235,-0.579,99.85,2.0,,0.0,0.0,106.87
2025-08-14T21:54:56.274Z,4,GR86-013-80,-23.0,0.246,-0.58,99.85,2.0,,0.0,0.0,
2025-08-14T21:54:56.318Z,4,GR86-013-80,-19.8,0.253,-0.581,99.84,2.0,,0.0,0.0,
2025-08-14T21:54:56.361Z,4,GR86-013-80,-17.5,0.264,-0.548,99.83,2.0,,0.0,0.0,
2025-08-14T21:54:56.404Z,4,GR86-013-80,-16.0,0.25,-0.511,99.85,2.0,6406.0,0.0,0.0,
2025-08-14T21:54:56.450Z,4,GR86-013-80,-15.1,0.249,-0.454,99.83,2.0,,0.0,0.0,108.48
2025-08-14T21:54:56.493Z,4,GR86-013-80,-14.3,0.242,-0.441,99.86,2.0,,0.0,0.0,
2025-08-14T21:54:56.538Z,4,GR86-013-80,-12.5,0.227,-0.381,99.84,2.0,,0.0,0.0,
2025-08-14T21:54:56.581Z,4,GR86-013-80,-11.1,0.266,-0.359,99.84,2.0,,0.0,0.0,
2025-08-14T21:54:56.623Z,4,GR86-013-80,-10.2,0.259,-0.325,99.85,2.0,6479.0,0.0,0.0,
2025-08-14T21:54:56.667Z,4,GR86-013-80,-9.9,0.256,-0.283,99.84,2.0,,0.0,0.0,110.19
2025-08-14T21:54:56.710Z,4,GR86-013-80,-9.9,0.267,-0.287,99.84,2.0,,0.0,0.0,
2025-08-14T21:54:56.752Z,4,GR86-013-80,-9.5,0.257,-0.262,99.85,2.0,,0.0,0.0,
2025-08-14T21:54:56.798Z,4,GR86-013-80,-7.0,0.239,-0.232,99.84,2.0,,0.0,0.0,
2025-08-14T21:54:56.841Z,4,GR86-013-80,-4.5,0.254,-0.225,99.84,2.0,6585.0,0.0,0.0,
2025-08-14T21:54:56.883Z,4,GR86-013-80,-2.3000000000000003,0.242,-0.196,99.85,2.0,,0.0,0.0,111.8
2025-08-14T21:54:56.928Z,4,GR86-013-80,-1.4,0.267,-0.186,99.84,2.0,,0.0,0.0,
2025-08-14T21:54:56.971Z,4,GR86-013-80,-1.2000000000000002,0.287,-0.143,99.86,2.0,,0.0,0.0,
2025-08-14T21:54:57.013Z,4,GR86-013-80,-1.1,0.231,-0.11,99.85,2.0,,0.0,0.0,
2025-08-14T21:54:57.058Z,4,GR86-013-80,-0.7000000000000001,0.216,-0.069,99.85,2.0,6672.0,0.0,0.0,
2025-08-14T21:54:57.101Z,4,GR86-013-80,-0.4,0.237,-0.045,99.83,2.0,,0.0,0.0,113.6
2025-08-14T21:54:57.143Z,4,GR86-013-80,-0.4,0.261,-0.02,99.85,2.0,,0.0,0.0,
2025-08-14T21:54:57.187Z,4,GR86-013-80,-0.4,0.251,-0.025,99.84,2.0,,0.0,0.0,
2025-08-14T21:54:57.231Z,4,GR86-013-80,-0.5,0.267,-0.004,99.85,2.0,,0.0,0.0,
2025-08-14T21:54:57.274Z,4,GR86-013-80,-1.0,0.272,0.007,99.85,2.0,6779.0,0.0,0.0,
2025-08-14T21:54:57.318Z,4,GR86-013-80,-1.8,0.243,0.019,99.83,2.0,,0.0,0.0,115.35
2025-08-14T21:54:57.361Z,4,GR86-013-80,-2.4000000000000004,0.234,0.02,99.85,2.0,,0.0,0.0,
2025-08-14T21:54:57.404Z,4,GR86-013-80,-2.7,0.239,0.039,99.85,2.0,,0.0,0.0,
2025-08-14T21:54:57.450Z,4,GR86-013-80,-2.8000000000000003,0.248,0.021,99.84,2.0,,0.0,0.0,
2025-08-14T21:54:57.492Z,4,GR86-013-80,-2.8000000000000003,0.242,0.015,99.84,2.0,6837.0,0.0,0.0,
2025-08-14T21:54:57.538Z,4,GR86-013-80,-2.9000000000000004,0.254,-0.008,99.84,2.0,,0.0,0.0,118.79
2025-08-14T21:54:57.581Z,4,GR86-013-80,-3.0,0.265,-0.01,99.84,2.0,,0.0,0.0,
2025-08-14T21:54:57.623Z,4,GR86-013-80,-3.0,0.262,-0.046,99.84,2.0,,0.0,0.0,
2025-08-14T21:54:57.667Z,4,GR86-013-80,-3.0,0.243,-0.036,99.83,2.0,,0.0,0.0,
2025-08-14T21:54:57.711Z,4,GR86-013-80,-3.0,0.244,-0.023,99.85,2.0,6971.0,0.0,0.0,
2025-08-14T21:54:57.753Z,4,GR86-013-80,-3.0,0.255,-0.045,99.84,2.0,,0.0,0.0,120.7
2025-08-14T21:54:57.798Z,4,GR86-013-80,-3.0,0.252,-0.056,99.85,2.0,,0.0,0.0,
2025-08-14T21:54:57.841Z,4,GR86-013-80,-3.0,0.23,-0.033,99.84,2.0,,0.0,0.0,
2025-08-14T21:54:57.883Z,4,GR86-013-80,-3.0,0.25,-0.021,99.85,2.0,,0.0,0.0,
2025-08-14T21:54:57.927Z,4,GR86-013-80,-3.0,0.254,-0.036,99.85,2.0,7039.0,0.0,0.0,
2025-08-14T21:54:57.970Z,4,GR86-013-80,-3.1,0.23,-0.032,99.84,2.0,,0.0,0.0,122.29
2025-08-14T21:54:58.012Z,4,GR86-013-80,-3.1,0.246,-0.02,99.85,2.0,,0.0,0.0,
2025-08-14T21:54:58.056Z,4,GR86-013-80,-3.1,0.248,-0.028,99.84,2.0,,0.0,0.0,
2025-08-14T21:54:58.101Z,4,GR86-013-80,-3.1,0.251,-0.04,99.86,2.0,,0.0,0.0,
2025-08-14T21:54:58.143Z,4,GR86-013-80,-3.1,0.233,-0.05,99.85,2.0,7230.0,0.0,0.0,
2025-08-14T21:54:58.188Z,4,GR86-013-80,-3.1,0.23,-0.015,99.85,2.0,,0.0,0.0,123.94
2025-08-14T21:54:58.231Z,4,GR86-013-80,-3.1,0.228,-0.029,99.87,2.0,,0.0,0.0,
2025-08-14T21:54:58.274Z,4,GR86-013-80,-3.0,0.229,-0.048,99.84,2.0,,0.0,0.0,
2025-08-14T21:54:58.318Z,4,GR86-013-80,-2.8000000000000003,0.226,-0.049,99.86,2.0,,0.0,0.0,
2025-08-14T21:54:58.361Z,4,GR86-013-80,-2.7,0.157,-0.05,99.85,2.0,7300.0,0.0,0.0,
2025-08-14T21:54:58.403Z,4,GR86-013-80,-2.8000000000000003,-0.09,-0.016,99.85,3.0,,0.0,0.0,125.51
2025-08-14T21:54:58.450Z,4,GR86-013-80,-2.9000000000000004,0.033,-0.031,99.86,3.0,,0.0,0.0,
2025-08-14T21:54:58.492Z,4,GR86-013-80,-2.7,0.667,-0.1,99.87,3.0,,0.0,0.0,
2025-08-14T21:54:58.538Z,4,GR86-013-80,-2.8000000000000003,0.363,-0.022,99.85,3.0,,0.0,0.0,
2025-08-14T21:54:58.581Z,4,GR86-013-80,-3.0,0.123,-0.021,99.86,3.0,6092.0,0.0,0.0,
2025-08-14T21:54:58.624Z,4,GR86-013-80,-3.0,0.091,-0.086,99.86,3.0,,0.0,0.0,126.79
2025-08-14T21:54:58.667Z,4,GR86-013-80,-3.0,0.164,-0.027,99.85,3.0,,0.0,0.0,
2025-08-14T21:54:58.710Z,4,GR86-013-80,-2.7,0.218,-0.052,99.86,3.0,,0.0,0.0,
2025-08-14T21:54:58.753Z,4,GR86-013-80,-2.6,0.246,-0.045,99.86,3.0,,0.0,0.0,
2025-08-14T21:54:58.798Z,4,GR86-013-80,-2.6,0.19,-0.023,99.88,3.0,6101.0,0.0,0.0,
2025-08-14T21:54:58.841Z,4,GR86-013-80,-2.6,0.188,-0.061,99.86,3.0,,0.0,0.0,128.37
2025-08-14T21:54:58.883Z,4,GR86-013-80,-2.6,0.192,-0.036,99.87,3.0,,0.0,0.0,
2025-08-14T21:54:58.927Z,4,GR86-013-80,-2.6,0.194,-0.046,99.87,3.0,,0.0,0.0,
2025-08-14T21:54:58.971Z,4,GR86-013-80,-2.6,0.215,-0.041,99.87,3.0,,0.0,0.0,
2025-08-14T21:54:59.014Z,4,GR86-013-80,-2.6,0.209,-0.039,99.87,3.0,6132.0,0.0,0.0,
2025-08-14T21:54:59.058Z,4,GR86-013-80,-2.6,0.209,-0.042,99.87,3.0,,0.0,0.0,129.62
2025-08-14T21:54:59.101Z,4,GR86-013-80,-2.6,0.2,-0.042,99.86,3.0,,0.0,0.0,
2025-08-14T21:54:59.145Z,4,GR86-013-80,-2.6,0.191,-0.038,99.86,3.0,,0.0,0.0,
2025-08-14T21:54:59.188Z,4,GR86-013-80,-2.6,0.209,-0.051,99.85,3.0,,0.0,0.0,
2025-08-14T21:54:59.231Z,4,GR86-013-80,-2.6,0.198,-0.034,99.85,3.0,6178.0,0.0,0.0,
2025-08-14T21:54:59.273Z,4,GR86-013-80,-2.6,0.212,-0.028,99.85,3.0,,0.0,0.0,131.04
2025-08-14T21:54:59.318Z,4,GR86-013-80,-2.7,0.2,-0.038,99.85,3.0,,0.0,0.0,
2025-08-14T21:54:59.361Z,4,GR86-013-80,-2.7,0.178,-0.039,99.87,3.0,,0.0,0.0,
2025-08-14T21:54:59.404Z,4,GR86-013-80,-2.5,0.191,-0.05,99.88,3.0,,0.0,0.0,
2025-08-14T21:54:59.450Z,4,GR86-013-80,-2.3000000000000003,0.201,-0.041,99.86,3.0,6234.0,0.0,0.0,
2025-08-14T21:54:59.492Z,4,GR86-013-80,-2.0,0.2,-0.035,99.85,3.0,,0.0,0.0,132.34
2025-08-14T21:54:59.538Z,4,GR86-013-80,-1.7000000000000002,0.193,-0.022,99.84,3.0,,0.0,0.0,
2025-08-14T21:54:59.581Z,4,GR86-013-80,-1.7000000000000002,0.188,-0.014,99.85,3.0,,0.0,0.0,
2025-08-14T21:54:59.624Z,4,GR86-013-80,-1.6,0.189,-0.019,99.84,3.0,,0.0,0.0,
2025-08-14T21:54:59.667Z,4,GR86-013-80,-1.4,0.199,-0.019,99.85,3.0,6297.0,0.0,0.0,
2025-08-14T21:54:59.710Z,4,GR86-013-80,-1.3,0.19,0.002,99.85,3.0,,0.0,0.0,133.68
2025-08-14T21:54:59.752Z,4,GR86-013-80,-1.2000000000000002,0.199,0.004,99.86,3.0,,0.0,0.0,
2025-08-14T21:54:59.798Z,4,GR86-013-80,-1.1,0.183,-0.006,99.87,3.0,,0.0,0.0,
2025-08-14T21:54:59.841Z,4,GR86-013-80,-1.0,0.189,-0.002,99.87,3.0,,0.0,0.0,
2025-08-14T21:54:59.883Z,4,GR86-013-80,-1.0,0.193,-0.012,99.86,3.0,6361.0,0.0,0.0,
2025-08-14T21:54:59.927Z,4,GR86-013-80,-1.0,0.197,0.0,99.87,3.0,,0.0,0.0,134.84
2025-08-14T21:54:59.971Z,4,GR86-013-80,-0.9,0.191,0.015,99.85,3.0,,0.0,0.0,
2025-08-14T21:55:00.014Z,4,GR86-013-80,-0.9,0.201,0.015,99.86,3.0,,0.0,0.0,
2025-08-14T21:55:00.058Z,4,GR86-013-80,-0.7000000000000001,0.187,0.03,99.86,3.0,,0.0,0.0,
2025-08-14T21:55:00.101Z,4,GR86-013-80,-0.7000000000000001,0.205,0.012,99.88,3.0,6413.0,0.0,0.0,
2025-08-14T21:55:00.143Z,4,GR86-013-80,-0.5,0.199,0.004,99.85,3.0,,0.0,0.0,137.27
2025-08-14T21:55:00.187Z,4,GR86-013-80,-0.4,0.182,0.021,99.87,3.0,,0.0,0.0,
2025-08-14T21:55:00.231Z,4,GR86-013-80,-0.4,0.187,0.029,99.87,3.0,,0.0,0.0,
2025-08-14T21:55:00.274Z,4,GR86-013-80,-0.3,0.21,0.028,99.84,3.0,,0.0,0.0,
2025-08-14T21:55:00.318Z,4,GR86-013-80,-0.3,0.195,0.032,99.88,3.0,6473.0,0.0,0.0,
2025-08-14T21:55:00.361Z,4,GR86-013-80,-0.4,0.203,0.007,99.85,3.0,,0.0,0.0,138.52
2025-08-14T21:55:00.404Z,4,GR86-013-80,-0.5,0.184,0.01,99.86,3.0,,0.0,0.0,
2025-08-14T21:55:00.450Z,4,GR86-013-80,-0.7000000000000001,0.171,0.019,99.87,3.0,,0.0,0.0,
2025-08-14T21:55:00.492Z,4,GR86-013-80,-0.9,0.176,0.03,99.87,3.0,,0.0,0.0,
2025-08-14T21:55:00.538Z,4,GR86-013-80,-1.2000000000000002,0.173,0.03,99.88,3.0,6580.0,0.0,0.0,
2025-08-14T21:55:00.581Z,4,GR86-013-80,-1.2000000000000002,0.198,0.042,99.85,3.0,,0.0,0.0,139.75
2025-08-14T21:55:00.623Z,4,GR86-013-80,-1.3,0.223,0.013,99.84,3.0,,0.0,0.0,
2025-08-14T21:55:00.667Z,4,GR86-013-80,-1.3,0.182,-0.002,99.84,3.0,,0.0,0.0,
2025-08-14T21:55:00.711Z,4,GR86-013-80,-1.3,0.173,0.007,99.89,3.0,,0.0,0.0,
2025-08-14T21:55:00.754Z,4,GR86-013-80,-1.3,0.178,0.016,99.87,3.0,6635.0,0.0,0.0,
2025-08-14T21:55:00.798Z,4,GR86-013-80,-1.4,0.165,0.009,99.87,3.0,,0.0,0.0,140.93
2025-08-14T21:55:00.841Z,4,GR86-013-80,-1.4,0.186,0.007,99.87,3.0,,0.0,0.0,
2025-08-14T21:55:00.883Z,4,GR86-013-80,-1.4,0.208,0.005,99.87,3.0,,0.0,0.0,
2025-08-14T21:55:00.927Z,4,GR86-013-80,-1.4,0.184,-0.023,99.86,3.0,,0.0,0.0,
2025-08-14T21:55:00.970Z,4,GR86-013-80,-1.4,0.153,-0.03,99.88,3.0,6687.0,0.0,0.0,
2025-08-14T21:55:01.012Z,4,GR86-013-80,-1.5,0.161,-0.011,99.87,3.0,,0.0,0.0,142.03
2025-08-14T21:55:01.058Z,4,GR86-013-80,-1.6,0.153,-0.028,99.87,3.0,,0.0,0.0,
2025-08-14T21:55:01.101Z,4,GR86-013-80,-1.7000000000000002,0.168,-0.014,99.83,3.0,,0.0,0.0,
2025-08-14T21:55:01.143Z,4,GR86-013-80,-1.7000000000000002,0.205,-0.011,99.84,3.0,,0.0,0.0,
2025-08-14T21:55:01.188Z,4,GR86-013-80,-1.9,0.208,-0.033,99.85,3.0,6744.0,0.0,0.0,
2025-08-14T21:55:01.231Z,4,GR86-013-80,-2.0,0.181,-0.043,99.85,3.0,,0.0,0.0,143.19
2025-08-14T21:55:01.274Z,4,GR86-013-80,-2.1,0.165,-0.034,99.83,3.0,,0.0,0.0,
2025-08-14T21:55:01.318Z,4,GR86-013-80,-2.2,0.161,-0.048,99.87,3.0,,0.0,0.0,
2025-08-14T21:55:01.361Z,4,GR86-013-80,-2.2,0.147,-0.058,99.88,3.0,,0.0,0.0,
2025-08-14T21:55:01.403Z,4,GR86-013-80,-2.2,0.183,-0.036,99.84,3.0,6784.0,0.0,0.0,
2025-08-14T21:55:01.450Z,4,GR86-013-80,-2.3000000000000003,0.211,-0.044,99.85,3.0,,0.0,0.0,144.3
2025-08-14T21:55:01.492Z,4,GR86-013-80,-2.4000000000000004,0.199,-0.061,99.85,3.0,,0.0,0.0,
2025-08-14T21:55:01.538Z,4,GR86-013-80,-2.4000000000000004,0.204,-0.052,99.84,3.0,,0.0,0.0,
2025-08-14T21:55:01.581Z,4,GR86-013-80,-2.4000000000000004,0.198,-0.063,99.84,3.0,,0.0,0.0,
2025-08-14T21:55:01.624Z,4,GR86-013-80,-2.4000000000000004,0.163,-0.066,99.85,3.0,6846.0,0.0,0.0,
2025-08-14T21:55:01.667Z,4,GR86-013-80,-2.4000000000000004,0.153,-0.051,99.88,3.0,,0.0,0.0,145.42000000000002
2025-08-14T21:55:01.710Z,4,GR86-013-80,-2.4000000000000004,0.169,-0.041,99.87,3.0,,0.0,0.0,
2025-08-14T21:55:01.753Z,4,GR86-013-80,-2.4000000000000004,0.215,-0.051,99.87,3.0,,0.0,0.0,
2025-08-14T21:55:01.798Z,4,GR86-013-80,-2.4000000000000004,0.184,-0.059,99.85,3.0,,0.0,0.0,
2025-08-14T21:55:01.841Z,4,GR86-013-80,-2.4000000000000004,0.193,-0.05,99.87,3.0,6908.0,0.0,0.0,
2025-08-14T21:55:01.883Z,4,GR86-013-80,-2.4000000000000004,0.176,-0.05,99.87,3.0,,0.0,0.0,146.56
2025-08-14T21:55:01.928Z,4,GR86-013-80,-2.4000000000000004,0.158,-0.061,99.88,3.0,,0.0,0.0,
2025-08-14T21:55:01.971Z,4,GR86-013-80,-2.4000000000000004,0.135,-0.044,99.85,3.0,,0.0,0.0,
2025-08-14T21:55:02.014Z,4,GR86-013-80,-2.6,0.161,-0.046,99.87,3.0,,0.0,0.0,
2025-08-14T21:55:02.058Z,4,GR86-013-80,-3.1,0.157,-0.068,99.84,3.0,6946.0,0.0,0.0,
2025-08-14T21:55:02.101Z,4,GR86-013-80,-3.8,0.163,-0.071,99.85,3.0,,0.0,0.0,147.77
2025-08-14T21:55:02.145Z,4,GR86-013-80,-4.3,0.185,-0.086,99.85,3.0,,0.0,0.0,
2025-08-14T21:55:02.188Z,4,GR86-013-80,-4.6000000000000005,0.192,-0.086,99.84,3.0,,0.0,0.0,
2025-08-14T21:55:02.231Z,4,GR86-013-80,-4.7,0.189,-0.099,99.85,3.0,,0.0,0.0,
2025-08-14T21:55:02.274Z,4,GR86-013-80,-4.7,0.162,-0.11,99.88,3.0,6994.0,0.0,0.0,
2025-08-14T21:55:02.318Z,4,GR86-013-80,-4.7,0.186,-0.104,99.85,3.0,,0.0,0.0,148.86
2025-08-14T21:55:02.361Z,4,GR86-013-80,-4.7,0.162,-0.127,99.87,3.0,,0.0,0.0,
2025-08-14T21:55:02.404Z,4,GR86-013-80,-4.7,0.154,-0.116,99.84,3.0,,0.0,0.0,
2025-08-14T21:55:02.450Z,4,GR86-013-80,-4.7,0.171,-0.118,99.85,3.0,,0.0,0.0,
2025-08-14T21:55:02.494Z,4,GR86-013-80,-4.7,0.176,-0.124,99.85,3.0,7050.0,0.0,0.0,
2025-08-14T21:55:02.538Z,4,GR86-013-80,-4.7,0.155,-0.124,99.85,3.0,,0.0,0.0,151.07
2025-08-14T21:55:02.581Z,4,GR86-013-80,-4.7,0.168,-0.125,99.86,3.0,,0.0,0.0,
2025-08-14T21:55:02.624Z,4,GR86-013-80,-4.7,0.174,-0.134,99.84,3.0,,0.0,0.0,
2025-08-14T21:55:02.667Z,4,GR86-013-80,-4.7,0.173,-0.145,99.86,3.0,,0.0,0.0,
2025-08-14T21:55:02.710Z,4,GR86-013-80,-4.7,0.168,-0.159,99.88,3.0,7096.0,0.0,0.0,
2025-08-14T21:55:02.752Z,4,GR86-013-80,-4.7,0.158,-0.138,99.86,3.0,,0.0,0.0,152.06
2025-08-14T21:55:02.798Z,4,GR86-013-80,-4.6000000000000005,0.171,-0.143,99.87,3.0,,0.0,0.0,
2025-08-14T21:55:02.841Z,4,GR86-013-80,-4.6000000000000005,0.15,-0.134,99.86,3.0,,0.0,0.0,
2025-08-14T21:55:02.884Z,4,GR86-013-80,-4.6000000000000005,0.136,-0.131,99.85,3.0,,0.0,0.0,
2025-08-14T21:55:02.927Z,4,GR86-013-80,-4.6000000000000005,0.155,-0.144,99.85,3.0,7153.0,0.0,0.0,
2025-08-14T21:55:02.971Z,4,GR86-013-80,-4.5,0.164,-0.141,99.86,3.0,,0.0,0.0,153.0
2025-08-14T21:55:03.013Z,4,GR86-013-80,-4.4,0.194,-0.147,99.87,3.0,,0.0,0.0,
2025-08-14T21:55:03.058Z,4,GR86-013-80,-4.3,0.165,-0.135,99.84,3.0,,0.0,0.0,
2025-08-14T21:55:03.101Z,4,GR86-013-80,-4.3,0.163,-0.143,99.87,3.0,,0.0,0.0,
2025-08-14T21:55:03.143Z,4,GR86-013-80,-4.3,0.167,-0.165,99.85,3.0,7246.0,0.0,0.0,
2025-08-14T21:55:03.187Z,4,GR86-013-80,-4.3,0.169,-0.164,99.85,3.0,,0.0,0.0,154.15
2025-08-14T21:55:03.231Z,4,GR86-013-80,-4.3,0.146,-0.142,99.85,3.0,,0.0,0.0,
2025-08-14T21:55:03.274Z,4,GR86-013-80,-4.4,0.131,-0.145,99.84,3.0,,0.0,0.0,
2025-08-14T21:55:03.318Z,4,GR86-013-80,-4.5,-0.126,-0.109,99.85,4.0,,0.0,0.0,
2025-08-14T21:55:03.361Z,4,GR86-013-80,-4.5,0.269,-0.123,99.85,4.0,6879.0,0.0,0.0,
2025-08-14T21:55:03.404Z,4,GR86-013-80,-4.5,0.332,-0.193,99.85,4.0,,0.0,0.0,155.17000000000002
2025-08-14T21:55:03.450Z,4,GR86-013-80,-4.7,0.181,-0.102,99.83,4.0,,0.0,0.0,
2025-08-14T21:55:03.493Z,4,GR86-013-80,-5.0,0.074,-0.107,99.84,4.0,,0.0,0.0,
2025-08-14T21:55:03.538Z,4,GR86-013-80,-5.1000000000000005,0.092,-0.176,99.86,4.0,,0.0,0.0,
2025-08-14T21:55:03.581Z,4,GR86-013-80,-5.2,0.153,-0.103,99.87,4.0,6169.0,0.0,0.0,
2025-08-14T21:55:03.623Z,4,GR86-013-80,-5.2,0.159,-0.167,99.85,4.0,,0.0,0.0,156.04
2025-08-14T21:55:03.668Z,4,GR86-013-80,-5.5,0.157,-0.122,99.85,4.0,,0.0,0.0,
2025-08-14T21:55:03.711Z,4,GR86-013-80,-6.7,0.147,-0.147,99.88,4.0,,0.0,0.0,
2025-08-14T21:55:03.754Z,4,GR86-013-80,-7.300000000000001,0.127,-0.198,99.87,4.0,,0.0,0.0,
2025-08-14T21:55:03.798Z,4,GR86-013-80,-7.4,0.159,-0.181,99.85,4.0,6208.0,0.0,0.0,
2025-08-14T21:55:03.841Z,4,GR86-013-80,-7.300000000000001,0.155,-0.186,99.88,4.0,,0.0,0.0,157.08
2025-08-14T21:55:03.883Z,4,GR86-013-80,-7.300000000000001,0.151,-0.215,99.87,4.0,,0.0,0.0,
2025-08-14T21:55:03.927Z,4,GR86-013-80,-7.300000000000001,0.126,-0.232,99.86,4.0,,0.0,0.0,
2025-08-14T21:55:03.970Z,4,GR86-013-80,-7.1000000000000005,0.124,-0.218,99.85,4.0,,0.0,0.0,
2025-08-14T21:55:04.013Z,4,GR86-013-80,-6.800000000000001,0.111,-0.213,99.84,4.0,6245.0,0.0,0.0,
2025-08-14T21:55:04.058Z,4,GR86-013-80,-6.2,0.133,-0.212,99.85,4.0,,0.0,0.0,158.06
2025-08-14T21:55:04.101Z,4,GR86-013-80,-5.9,0.138,-0.21,99.84,4.0,,0.0,0.0,
2025-08-14T21:55:04.143Z,4,GR86-013-80,-5.9,0.107,-0.194,99.84,4.0,,0.0,0.0,
2025-08-14T21:55:04.188Z,4,GR86-013-80,-5.800000000000001,0.124,-0.21,99.85,4.0,,0.0,0.0,
2025-08-14T21:55:04.231Z,4,GR86-013-80,-5.2,0.147,-0.216,99.84,4.0,6282.0,0.0,0.0,
2025-08-14T21:55:04.274Z,4,GR86-013-80,-4.4,0.16,-0.194,99.85,4.0,,0.0,0.0,158.96
2025-08-14T21:55:04.318Z,4,GR86-013-80,-4.2,0.112,-0.169,99.85,4.0,,0.0,0.0,
2025-08-14T21:55:04.361Z,4,GR86-013-80,-4.2,0.123,-0.16,99.85,4.0,,0.0,0.0,
2025-08-14T21:55:04.403Z,4,GR86-013-80,-4.2,0.13,-0.153,99.84,4.0,,0.0,0.0,
2025-08-14T21:55:04.450Z,4,GR86-013-80,-3.9,0.148,-0.135,99.84,4.0,6312.0,0.0,0.0,
2025-08-14T21:55:04.492Z,4,GR86-013-80,-3.5,0.152,-0.13,99.84,4.0,,0.0,0.0,160.01
2025-08-14T21:55:04.538Z,4,GR86-013-80,-3.6,0.127,-0.096,99.85,4.0,,0.0,0.0,
2025-08-14T21:55:04.581Z,4,GR86-013-80,-4.1000000000000005,0.125,-0.091,99.85,4.0,,0.0,0.0,
2025-08-14T21:55:04.623Z,4,GR86-013-80,-4.5,0.151,-0.077,99.88,4.0,,0.0,0.0,
2025-08-14T21:55:04.667Z,4,GR86-013-80,-4.7,0.144,-0.08,99.87,4.0,6350.0,0.0,0.0,
2025-08-14T21:55:04.710Z,4,GR86-013-80,-4.7,0.153,-0.082,99.84,4.0,,0.0,0.0,161.02
2025-08-14T21:55:04.753Z,4,GR86-013-80,-4.7,0.133,-0.078,99.85,4.0,,0.0,0.0,
2025-08-14T21:55:04.798Z,4,GR86-013-80,-4.9,0.145,-0.088,99.84,4.0,,0.0,0.0,
2025-08-14T21:55:04.841Z,4,GR86-013-80,-5.300000000000001,0.15,-0.114,99.84,4.0,,0.0,0.0,
2025-08-14T21:55:04.883Z,4,GR86-013-80,-5.800000000000001,0.136,-0.123,99.84,4.0,6396.0,0.0,0.0,
2025-08-14T21:55:04.927Z,4,GR86-013-80,-6.300000000000001,0.141,-0.135,99.86,4.0,,0.0,0.0,161.87
2025-08-14T21:55:04.971Z,4,GR86-013-80,-6.7,0.124,-0.143,99.86,4.0,,0.0,0.0,
2025-08-14T21:55:05.014Z,4,GR86-013-80,-7.0,0.123,-0.158,99.84,4.0,,0.0,0.0,
2025-08-14T21:55:05.058Z,4,GR86-013-80,-7.2,0.145,-0.179,99.84,4.0,,0.0,0.0,
2025-08-14T21:55:05.101Z,4,GR86-013-80,-7.2,0.131,-0.182,99.86,4.0,6429.0,0.0,0.0,
2025-08-14T21:55:05.145Z,4,GR86-013-80,-7.2,0.128,-0.19,99.84,4.0,,0.0,0.0,164.04
2025-08-14T21:55:05.188Z,4,GR86-013-80,-7.300000000000001,0.11,-0.207,99.86,4.0,,0.0,0.0,
2025-08-14T21:55:05.231Z,4,GR86-013-80,-7.300000000000001,0.121,-0.219,99.84,4.0,,0.0,0.0,
2025-08-14T21:55:05.274Z,4,GR86-013-80,-7.2,0.106,-0.204,99.84,4.0,,0.0,0.0,
2025-08-14T21:55:05.318Z,4,GR86-013-80,-7.2,0.131,-0.21,99.84,4.0,6462.0,0.0,0.0,
2025-08-14T21:55:05.361Z,4,GR86-013-80,-7.300000000000001,0.122,-0.22,99.83,4.0,,0.0,0.0,164.9
2025-08-14T21:55:05.403Z,4,GR86-013-80,-7.300000000000001,0.115,-0.229,99.86,4.0,,0.0,0.0,
2025-08-14T21:55:05.450Z,4,GR86-013-80,-7.300000000000001,0.118,-0.229,99.85,4.0,,0.0,0.0,
2025-08-14T21:55:05.492Z,4,GR86-013-80,-7.2,0.126,-0.213,99.84,4.0,,0.0,0.0,
2025-08-14T21:55:05.538Z,4,GR86-013-80,-7.0,0.112,-0.238,99.87,4.0,6537.0,0.0,0.0,
2025-08-14T21:55:05.581Z,4,GR86-013-80,-7.0,0.119,-0.26,99.86,4.0,,0.0,0.0,165.66
2025-08-14T21:55:05.623Z,4,GR86-013-80,-6.9,0.108,-0.239,99.88,4.0,,0.0,0.0,
2025-08-14T21:55:05.667Z,4,GR86-013-80,-6.800000000000001,0.114,-0.246,99.86,4.0,,0.0,0.0,
2025-08-14T21:55:05.710Z,4,GR86-013-80,-6.6000000000000005,0.102,-0.217,99.83,4.0,,0.0,0.0,
2025-08-14T21:55:05.753Z,4,GR86-013-80,-6.4,0.141,-0.216,99.86,4.0,6579.0,0.0,0.0,
2025-08-14T21:55:05.798Z,4,GR86-013-80,-6.2,0.127,-0.228,99.85,4.0,,0.0,0.0,166.37
2025-08-14T21:55:05.841Z,4,GR86-013-80,-5.9,0.118,-0.217,99.87,4.0,,0.0,0.0,
2025-08-14T21:55:05.883Z,4,GR86-013-80,-5.5,0.119,-0.211,99.85,4.0,,0.0,0.0,
2025-08-14T21:55:05.927Z,4,GR86-013-80,-5.5,0.107,-0.187,99.83,4.0,,0.0,0.0,
2025-08-14T21:55:05.971Z,4,GR86-013-80,-5.6000000000000005,0.121,-0.188,99.85,4.0,6597.0,0.0,0.0,
2025-08-14T21:55:06.014Z,4,GR86-013-80,-5.800000000000001,0.115,-0.194,99.84,4.0,,0.0,0.0,167.48
2025-08-14T21:55:06.058Z,4,GR86-013-80,-5.9,0.116,-0.186,99.86,4.0,,0.0,0.0,
2025-08-14T21:55:06.101Z,4,GR86-013-80,-5.9,0.104,-0.158,99.84,4.0,,0.0,0.0,
2025-08-14T21:55:06.143Z,4,GR86-013-80,-5.800000000000001,0.1,-0.131,99.84,4.0,,0.0,0.0,
2025-08-14T21:55:06.187Z,4,GR86-013-80,-5.7,0.104,-0.14,99.84,4.0,6641.0,0.0,0.0,
2025-08-14T21:55:06.231Z,4,GR86-013-80,-5.6000000000000005,0.126,-0.142,99.84,4.0,,0.0,0.0,168.36
2025-08-14T21:55:06.274Z,4,GR86-013-80,-5.5,0.127,-0.133,99.84,4.0,,0.0,0.0,
2025-08-14T21:55:06.318Z,4,GR86-013-80,-5.5,0.126,-0.158,99.84,4.0,,0.0,0.0,
2025-08-14T21:55:06.361Z,4,GR86-013-80,-5.6000000000000005,0.101,-0.144,99.84,4.0,,0.0,0.0,
2025-08-14T21:55:06.404Z,4,GR86-013-80,-5.800000000000001,0.109,-0.155,99.84,4.0,6671.0,0.0,0.0,
2025-08-14T21:55:06.450Z,4,GR86-013-80,-5.9,0.095,-0.162,99.84,4.0,,0.0,0.0,169.19
2025-08-14T21:55:06.492Z,4,GR86-013-80,-5.9,0.119,-0.153,99.86,4.0,,0.0,0.0,
2025-08-14T21:55:06.538Z,4,GR86-013-80,-5.9,0.127,-0.19,99.85,4.0,,0.0,0.0,
2025-08-14T21:55:06.581Z,4,GR86-013-80,-5.9,0.118,-0.172,99.85,4.0,,0.0,0.0,
2025-08-14T21:55:06.623Z,4,GR86-013-80,-5.9,0.12,-0.184,99.83,4.0,6705.0,0.0,0.0,
2025-08-14T21:55:06.668Z,4,GR86-013-80,-5.800000000000001,0.117,-0.181,99.85,4.0,,0.0,0.0,170.07
2025-08-14T21:55:06.711Z,4,GR86-013-80,-5.5,0.116,-0.15,99.85,4.0,,0.0,0.0,
2025-08-14T21:55:06.754Z,4,GR86-013-80,-5.2,0.096,-0.149,99.85,4.0,,0.0,0.0,
2025-08-14T21:55:06.798Z,4,GR86-013-80,-5.2,0.127,-0.158,99.85,4.0,,0.0,0.0,
2025-08-14T21:55:06.841Z,4,GR86-013-80,-5.2,0.127,-0.179,99.85,4.0,6732.0,0.0,0.0,
2025-08-14T21:55:06.883Z,4,GR86-013-80,-5.2,0.13,-0.177,99.85,4.0,,0.0,0.0,170.99
2025-08-14T21:55:06.927Z,4,GR86-013-80,-5.1000000000000005,0.114,-0.176,99.84,4.0,,0.0,0.0,
2025-08-14T21:55:06.970Z,4,GR86-013-80,-5.1000000000000005,0.114,-0.16,99.85,4.0,,0.0,0.0,
2025-08-14T21:55:07.013Z,4,GR86-013-80,-5.0,0.102,-0.177,99.84,4.0,,0.0,0.0,
2025-08-14T21:55:07.056Z,4,GR86-013-80,-4.9,0.132,-0.122,99.85,4.0,6777.0,0.0,0.0,
2025-08-14T21:55:07.101Z,4,GR86-013-80,-4.7,0.133,-0.116,99.85,4.0,,0.0,0.0,171.74
2025-08-14T21:55:07.143Z,4,GR86-013-80,-4.6000000000000005,0.133,-0.111,99.84,4.0,,0.0,0.0,
2025-08-14T21:55:07.188Z,4,GR86-013-80,-4.4,0.135,-0.136,99.84,4.0,,0.0,0.0,
2025-08-14T21:55:07.231Z,4,GR86-013-80,-4.3,0.132,-0.139,99.83,4.0,,0.0,0.0,
2025-08-14T21:55:07.274Z,4,GR86-013-80,-4.3,0.119,-0.123,99.84,4.0,6800.0,0.0,0.0,
2025-08-14T21:55:07.318Z,4,GR86-013-80,-4.7,0.096,-0.094,99.86,4.0,,0.0,0.0,172.68
2025-08-14T21:55:07.361Z,4,GR86-013-80,-5.0,0.095,-0.092,99.84,4.0,,0.0,0.0,
2025-08-14T21:55:07.403Z,4,GR86-013-80,-5.0,0.108,-0.093,99.84,4.0,,0.0,0.0,
2025-08-14T21:55:07.450Z,4,GR86-013-80,-4.7,0.107,-0.104,99.84,4.0,,0.0,0.0,
2025-08-14T21:55:07.492Z,4,GR86-013-80,-4.1000000000000005,0.12,-0.107,99.87,4.0,6829.0,0.0,0.0,
2025-08-14T21:55:07.538Z,4,GR86-013-80,-3.9,0.089,-0.117,99.85,4.0,,0.0,0.0,174.37
2025-08-14T21:55:07.581Z,4,GR86-013-80,-4.0,0.093,-0.1,99.86,4.0,,0.0,0.0,
2025-08-14T21:55:07.624Z,4,GR86-013-80,-4.1000000000000005,0.086,-0.095,99.88,4.0,,0.0,0.0,
2025-08-14T21:55:07.667Z,4,GR86-013-80,-4.1000000000000005,0.09,-0.088,99.85,4.0,,0.0,0.0,
2025-08-14T21:55:07.710Z,4,GR86-013-80,-4.0,0.096,-0.084,99.85,4.0,6859.0,0.0,0.0,
2025-08-14T21:55:07.753Z,4,GR86-013-80,-4.0,0.101,-0.065,99.85,4.0,,0.0,0.0,175.14
2025-08-14T21:55:07.798Z,4,GR86-013-80,-3.9,0.112,-0.082,99.85,4.0,,0.0,0.0,
2025-08-14T21:55:07.841Z,4,GR86-013-80,-3.9,0.117,-0.095,99.84,4.0,,0.0,0.0,
2025-08-14T21:55:07.884Z,4,GR86-013-80,-3.8,0.107,-0.112,99.88,4.0,,0.0,0.0,
2025-08-14T21:55:07.928Z,4,GR86-013-80,-3.8,0.119,-0.113,99.86,4.0,6896.0,0.0,0.0,
2025-08-14T21:55:07.971Z,4,GR86-013-80,-3.8,0.097,-0.078,99.84,4.0,,0.0,0.0,175.95000000000002
2025-08-14T21:55:08.014Z,4,GR86-013-80,-3.8,0.099,-0.071,99.84,4.0,,0.0,0.0,
2025-08-14T21:55:08.058Z,4,GR86-013-80,-3.9,0.109,-0.074,99.84,4.0,,0.0,0.0,
2025-08-14T21:55:08.101Z,4,GR86-013-80,-3.8,0.122,-0.083,99.84,4.0,,0.0,0.0,
2025-08-14T21:55:08.145Z,4,GR86-013-80,-3.8,0.125,-0.094,99.85,4.0,6954.0,0.0,0.0,
2025-08-14T21:55:08.188Z,4,GR86-013-80,-3.8,0.115,-0.056,99.85,4.0,,0.0,0.0,176.64
2025-08-14T21:55:08.231Z,4,GR86-013-80,-3.8,0.103,-0.06,99.84,4.0,,0.0,0.0,
2025-08-14T21:55:08.274Z,4,GR86-013-80,-3.8,0.108,-0.061,99.84,4.0,,0.0,0.0,
2025-08-14T21:55:08.318Z,4,GR86-013-80,-3.8,0.091,-0.052,99.85,4.0,,0.0,0.0,
2025-08-14T21:55:08.361Z,4,GR86-013-80,-3.6,0.106,-0.066,99.85,4.0,6995.0,0.0,0.0,
2025-08-14T21:55:08.403Z,4,GR86-013-80,-3.5,0.113,-0.058,99.84,4.0,,0.0,0.0,177.19
2025-08-14T21:55:08.450Z,4,GR86-013-80,-3.4000000000000004,0.107,-0.057,99.84,4.0,,0.0,0.0,
2025-08-14T21:55:08.492Z,4,GR86-013-80,-3.4000000000000004,0.077,-0.066,99.86,4.0,,0.0,0.0,
2025-08-14T21:55:08.538Z,4,GR86-013-80,-3.0,0.099,-0.052,99.84,4.0,,0.0,0.0,
2025-08-14T21:55:08.581Z,4,GR86-013-80,-2.4000000000000004,0.101,-0.045,99.85,4.0,7006.0,0.0,0.0,
2025-08-14T21:55:08.623Z,4,GR86-013-80,-2.3000000000000003,0.105,-0.039,99.85,4.0,,0.0,0.0,178.04
2025-08-14T21:55:08.667Z,4,GR86-013-80,-2.3000000000000003,0.093,-0.009,99.84,4.0,,0.0,0.0,
2025-08-14T21:55:08.710Z,4,GR86-013-80,-2.4000000000000004,0.094,-0.003,99.84,4.0,,0.0,0.0,
2025-08-14T21:55:08.753Z,4,GR86-013-80,-2.6,0.082,0.001,99.85,4.0,,0.0,0.0,
2025-08-14T21:55:08.798Z,4,GR86-013-80,-2.7,0.096,-0.007,99.83,4.0,7028.0,0.0,0.0,
2025-08-14T21:55:08.841Z,4,GR86-013-80,-2.7,0.111,-0.01,99.84,4.0,,0.0,0.0,178.91
2025-08-14T21:55:08.883Z,4,GR86-013-80,-3.0,0.107,-0.003,99.85,4.0,,0.0,0.0,
2025-08-14T21:55:08.928Z,4,GR86-013-80,-3.4000000000000004,0.096,-0.016,99.84,4.0,,0.0,0.0,
2025-08-14T21:55:08.971Z,4,GR86-013-80,-3.5,0.1,-0.016,99.85,4.0,,0.0,0.0,
2025-08-14T21:55:09.014Z,4,GR86-013-80,-3.6,0.09,-0.016,99.85,4.0,7071.0,0.0,0.0,
2025-08-14T21:55:09.058Z,4,GR86-013-80,-3.6,0.082,-0.024,99.85,4.0,,0.0,0.0,179.42000000000002
2025-08-14T21:55:09.101Z,4,GR86-013-80,-3.6,0.096,-0.018,99.84,4.0,,0.0,0.0,
2025-08-14T21:55:09.143Z,4,GR86-013-80,-3.6,0.09,-0.019,99.83,4.0,,0.0,0.0,
2025-08-14T21:55:09.187Z,4,GR86-013-80,-3.6,0.072,-0.022,99.85,4.0,,0.0,0.0,
2025-08-14T21:55:09.231Z,4,GR86-013-80,-3.7,0.078,-0.02,99.84,4.0,7092.0,0.0,0.0,
2025-08-14T21:55:09.274Z,4,GR86-013-80,-3.7,0.078,-0.052,99.84,4.0,,0.0,0.0,180.18
2025-08-14T21:55:09.318Z,4,GR86-013-80,-3.6,0.102,-0.069,99.85,4.0,,0.0,0.0,
2025-08-14T21:55:09.361Z,4,GR86-013-80,-3.5,0.109,-0.064,99.83,4.0,,0.0,0.0,
2025-08-14T21:55:09.404Z,4,GR86-013-80,-3.4000000000000004,0.105,-0.073,99.84,4.0,,0.0,0.0,
2025-08-14T21:55:09.450Z,4,GR86-013-80,-3.3000000000000003,0.091,-0.091,99.84,4.0,7124.0,0.0,0.0,
2025-08-14T21:55:09.492Z,4,GR86-013-80,-3.3000000000000003,0.089,-0.09,99.85,4.0,,0.0,0.0,180.68
2025-08-14T21:55:09.538Z,4,GR86-013-80,-3.0,0.092,-0.044,99.85,4.0,,0.0,0.0,
2025-08-14T21:55:09.581Z,4,GR86-013-80,-2.9000000000000004,0.089,-0.021,99.85,4.0,,0.0,0.0,
2025-08-14T21:55:09.623Z,4,GR86-013-80,-2.8000000000000003,0.08,-0.023,99.83,4.0,,0.0,0.0,
2025-08-14T21:55:09.668Z,4,GR86-013-80,-2.8000000000000003,0.082,-0.035,99.84,4.0,7137.0,0.0,0.0,
2025-08-14T21:55:09.711Z,4,GR86-013-80,-2.8000000000000003,0.09,-0.029,99.85,4.0,,0.0,0.0,181.56
2025-08-14T21:55:09.754Z,4,GR86-013-80,-2.7,0.095,-0.035,99.85,4.0,,0.0,0.0,
2025-08-14T21:55:09.798Z,4,GR86-013-80,-2.7,0.109,-0.06,99.84,4.0,,0.0,0.0,
2025-08-14T21:55:09.841Z,4,GR86-013-80,-2.8000000000000003,0.099,-0.044,99.85,4.0,,0.0,0.0,
2025-08-14T21:55:09.883Z,4,GR86-013-80,-2.7,0.096,-0.065,99.84,4.0,7170.0,0.0,0.0,
2025-08-14T21:55:09.927Z,4,GR86-013-80,-2.4000000000000004,0.109,-0.039,99.83,4.0,,0.0,0.0,182.23
2025-08-14T21:55:09.970Z,4,GR86-013-80,-2.1,0.113,-0.043,99.85,4.0,,0.0,0.0,
2025-08-14T21:55:10.012Z,4,GR86-013-80,-2.0,0.101,-0.03,99.84,4.0,,0.0,0.0,
2025-08-14T21:55:10.056Z,4,GR86-013-80,-2.0,0.07,-0.013,99.84,4.0,,0.0,0.0,
2025-08-14T21:55:10.101Z,4,GR86-013-80,-2.0,0.091,-0.012,99.85,4.0,7204.0,0.0,0.0,
2025-08-14T21:55:10.143Z,4,GR86-013-80,-2.0,0.089,-0.006,99.84,4.0,,0.0,0.0,183.56
2025-08-14T21:55:10.188Z,4,GR86-013-80,-2.0,0.088,-0.001,99.83,4.0,,0.0,0.0,
2025-08-14T21:55:10.231Z,4,GR86-013-80,-1.9,0.084,0.008,99.82,4.0,,0.0,0.0,
2025-08-14T21:55:10.274Z,4,GR86-013-80,-1.9,0.066,-0.024,99.85,4.0,,0.0,0.0,
2025-08-14T21:55:10.318Z,4,GR86-013-80,-1.9,-0.124,0.01,99.86,5.0,7226.0,0.0,0.0,
2025-08-14T21:55:10.361Z,4,GR86-013-80,-1.9,0.214,-0.035,99.85,5.0,,0.0,0.0,184.31
2025-08-14T21:55:10.403Z,4,GR86-013-80,-1.8,0.29,-0.056,99.86,5.0,,0.0,0.0,
2025-08-14T21:55:10.450Z,4,GR86-013-80,-2.1,0.105,0.004,99.83,5.0,,0.0,0.0,
2025-08-14T21:55:10.492Z,4,GR86-013-80,-2.3000000000000003,0.03,-0.014,99.84,5.0,,0.0,0.0,
2025-08-14T21:55:10.538Z,4,GR86-013-80,-2.3000000000000003,0.096,-0.007,99.84,5.0,6338.0,0.0,0.0,
2025-08-14T21:55:10.581Z,4,GR86-013-80,-2.3000000000000003,0.101,0.019,99.85,5.0,,0.0,0.0,184.79
2025-08-14T21:55:10.623Z,4,GR86-013-80,-2.1,0.064,-0.031,99.84,5.0,,0.0,0.0,
2025-08-14T21:55:10.667Z,4,GR86-013-80,-2.1,0.064,-0.002,99.84,5.0,,0.0,0.0,
2025-08-14T21:55:10.710Z,4,GR86-013-80,-2.3000000000000003,0.075,0.003,99.87,5.0,,0.0,0.0,
2025-08-14T21:55:10.753Z,4,GR86-013-80,-2.4000000000000004,0.062,-0.019,99.84,5.0,6330.0,0.0,0.0,
2025-08-14T21:55:10.798Z,4,GR86-013-80,-2.4000000000000004,0.083,0.005,99.84,5.0,,0.0,0.0,185.53
2025-08-14T21:55:10.841Z,4,GR86-013-80,-2.4000000000000004,0.08,-0.009,99.84,5.0,,0.0,0.0,
2025-08-14T21:55:10.883Z,4,GR86-013-80,-2.3000000000000003,0.078,-0.009,99.85,5.0,,0.0,0.0,
2025-08-14T21:55:10.928Z,4,GR86-013-80,-2.4000000000000004,0.071,-0.009,99.84,5.0,,0.0,0.0,
2025-08-14T21:55:10.971Z,4,GR86-013-80,-2.4000000000000004,0.08,-0.014,99.85,5.0,6339.0,0.0,0.0,
2025-08-14T21:55:11.013Z,4,GR86-013-80,-2.4000000000000004,0.068,-0.011,99.84,5.0,,0.0,0.0,186.18
2025-08-14T21:55:11.058Z,4,GR86-013-80,-2.5,0.089,-0.017,99.86,5.0,,0.0,0.0,
2025-08-14T21:55:11.101Z,4,GR86-013-80,-2.5,0.094,-0.046,99.85,5.0,,0.0,0.0,
2025-08-14T21:55:11.145Z,4,GR86-013-80,-2.7,0.084,-0.03,99.84,5.0,,0.0,0.0,
2025-08-14T21:55:11.188Z,4,GR86-013-80,-2.9000000000000004,0.11,-0.032,99.84,5.0,6358.0,0.0,0.0,
2025-08-14T21:55:11.231Z,4,GR86-013-80,-2.9000000000000004,0.099,-0.026,99.84,5.0,,0.0,0.0,186.8
2025-08-14T21:55:11.274Z,4,GR86-013-80,-2.9000000000000004,0.103,-0.027,99.84,5.0,,0.0,0.0,
2025-08-14T21:55:11.318Z,4,GR86-013-80,-2.9000000000000004,0.061,-0.037,99.84,5.0,,0.0,0.0,
2025-08-14T21:55:11.361Z,4,GR86-013-80,-2.9000000000000004,0.072,-0.046,99.85,5.0,,0.0,0.0,
2025-08-14T21:55:11.403Z,4,GR86-013-80,-2.9000000000000004,0.068,-0.056,99.84,5.0,6381.0,0.0,0.0,
2025-08-14T21:55:11.450Z,4,GR86-013-80,-2.9000000000000004,0.076,-0.044,99.85,5.0,,0.0,0.0,187.35
2025-08-14T21:55:11.492Z,4,GR86-013-80,-2.9000000000000004,0.075,-0.039,99.84,5.0,,0.0,0.0,
2025-08-14T21:55:11.538Z,4,GR86-013-80,-2.9000000000000004,0.082,-0.019,99.85,5.0,,0.0,0.0,
2025-08-14T21:55:11.581Z,4,GR86-013-80,-2.9000000000000004,0.082,-0.027,99.85,5.0,,0.0,0.0,
2025-08-14T21:55:11.623Z,4,GR86-013-80,-2.9000000000000004,0.073,-0.024,99.84,5.0,6407.0,0.0,0.0,
2025-08-14T21:55:11.667Z,4,GR86-013-80,-2.9000000000000004,0.081,-0.039,99.85,5.0,,0.0,0.0,187.95
2025-08-14T21:55:11.710Z,4,GR86-013-80,-2.7,0.073,-0.042,99.85,5.0,,0.0,0.0,
2025-08-14T21:55:11.752Z,4,GR86-013-80,-2.5,0.085,-0.034,99.85,5.0,,0.0,0.0,
2025-08-14T21:55:11.798Z,4,GR86-013-80,-2.3000000000000003,0.098,-0.026,99.85,5.0,,0.0,0.0,
2025-08-14T21:55:11.841Z,4,GR86-013-80,-2.1,0.078,-0.027,99.83,5.0,6425.0,0.0,0.0,
2025-08-14T21:55:11.883Z,4,GR86-013-80,-1.9,0.086,-0.006,99.84,5.0,,0.0,0.0,188.49
2025-08-14T21:55:11.928Z,4,GR86-013-80,-1.7000000000000002,0.081,-0.01,99.84,5.0,,0.0,0.0,
2025-08-14T21:55:11.971Z,4,GR86-013-80,-1.6,0.077,-0.021,99.85,5.0,,0.0,0.0,
2025-08-14T21:55:12.013Z,4,GR86-013-80,-1.6,0.09,-0.024,99.85,5.0,,0.0,0.0,
2025-08-14T21:55:12.058Z,4,GR86-013-80,-1.5,0.086,-0.016,99.85,5.0,6441.0,0.0,0.0,
2025-08-14T21:55:12.101Z,4,GR86-013-80,-1.4,0.078,0.002,99.84,5.0,,0.0,0.0,189.08
2025-08-14T21:55:12.143Z,4,GR86-013-80,-1.4,0.1,-0.003,99.84,5.0,,0.0,0.0,
2025-08-14T21:55:12.187Z,4,GR86-013-80,-1.3,0.071,0.015,99.84,5.0,,0.0,0.0,
2025-08-14T21:55:12.231Z,4,GR86-013-80,-1.2000000000000002,0.088,0.022,99.85,5.0,,0.0,0.0,
2025-08-14T21:55:12.274Z,4,GR86-013-80,-1.0,0.077,0.032,99.85,5.0,6459.0,0.0,0.0,
2025-08-14T21:55:12.318Z,4,GR86-013-80,-0.7000000000000001,0.069,0.047,99.85,5.0,,0.0,0.0,189.69
2025-08-14T21:55:12.361Z,4,GR86-013-80,-0.4,0.07,0.043,99.85,5.0,,0.0,0.0,
2025-08-14T21:55:12.404Z,4,GR86-013-80,-0.1,0.064,0.049,99.84,5.0,,0.0,0.0,
2025-08-14T21:55:12.450Z,4,GR86-013-80,0.1,0.082,0.049,99.87,5.0,,0.0,0.0,
2025-08-14T21:55:12.492Z,4,GR86-013-80,0.1,0.073,0.07,99.85,5.0,6493.0,0.0,0.0,
2025-08-14T21:55:12.538Z,4,GR86-013-80,0.2,0.073,0.077,99.84,5.0,,0.0,0.0,190.75
2025-08-14T21:55:12.581Z,4,GR86-013-80,0.3,0.085,0.073,99.84,5.0,,0.0,0.0,
2025-08-14T21:55:12.623Z,4,GR86-013-80,0.4,0.082,0.078,99.85,5.0,,0.0,0.0,
2025-08-14T21:55:12.668Z,4,GR86-013-80,0.8,0.075,0.08,99.84,5.0,,0.0,0.0,
2025-08-14T21:55:12.711Z,4,GR86-013-80,1.6,0.071,0.091,99.85,5.0,6496.0,0.0,0.0,
2025-08-14T21:55:12.754Z,4,GR86-013-80,2.6,0.072,0.108,99.83,5.0,,0.0,0.0,191.34
2025-08-14T21:55:12.798Z,4,GR86-013-80,3.9,0.086,0.131,99.84,5.0,,0.0,0.0,
2025-08-14T21:55:12.841Z,4,GR86-013-80,4.7,0.08,0.146,99.85,5.0,,0.0,0.0,
2025-08-14T21:55:12.883Z,4,GR86-013-80,4.800000000000001,0.077,0.162,99.83,5.0,,0.0,0.0,
2025-08-14T21:55:12.927Z,4,GR86-013-80,4.7,0.073,0.2,99.85,5.0,6518.0,0.0,0.0,
2025-08-14T21:55:12.971Z,4,GR86-013-80,4.2,0.079,0.198,99.84,5.0,,0.0,0.0,191.89
2025-08-14T21:55:13.013Z,4,GR86-013-80,3.9,0.09,0.199,99.83,5.0,,0.0,0.0,
2025-08-14T21:55:13.058Z,4,GR86-013-80,3.9,0.078,0.232,99.85,5.0,,0.0,0.0,
2025-08-14T21:55:13.101Z,4,GR86-013-80,3.9,0.078,0.248,99.84,5.0,,0.0,0.0,
2025-08-14T21:55:13.143Z,4,GR86-013-80,3.7,0.087,0.257,99.86,5.0,6563.0,0.0,0.0,
2025-08-14T21:55:13.188Z,4,GR86-013-80,3.7,0.081,0.264,99.84,5.0,,0.0,0.0,192.67
2025-08-14T21:55:13.231Z,4,GR86-013-80,3.6,0.088,0.244,99.85,5.0,,0.0,0.0,
2025-08-14T21:55:13.274Z,4,GR86-013-80,3.6,0.084,0.245,99.85,5.0,,0.0,0.0,
2025-08-14T21:55:13.318Z,4,GR86-013-80,4.1000000000000005,0.067,0.265,99.86,5.0,,0.0,0.0,
2025-08-14T21:55:13.361Z,4,GR86-013-80,4.9,0.067,0.273,99.85,5.0,6583.0,0.0,0.0,
2025-08-14T21:55:13.403Z,4,GR86-013-80,5.800000000000001,0.072,0.287,99.84,5.0,,0.0,0.0,193.34
2025-08-14T21:55:13.449Z,4,GR86-013-80,6.2,0.079,0.293,99.85,5.0,,0.0,0.0,
2025-08-14T21:55:13.492Z,4,GR86-013-80,6.4,0.062,0.289,99.85,5.0,,0.0,0.0,
2025-08-14T21:55:13.538Z,4,GR86-013-80,6.0,0.049,0.284,99.85,5.0,,0.0,0.0,
2025-08-14T21:55:13.581Z,4,GR86-013-80,5.6000000000000005,0.069,0.286,99.85,5.0,6600.0,0.0,0.0,
2025-08-14T21:55:13.624Z,4,GR86-013-80,5.0,0.07,0.295,99.84,5.0,,0.0,0.0,193.97
2025-08-14T21:55:13.667Z,4,GR86-013-80,4.5,0.077,0.291,99.85,5.0,,0.0,0.0,
2025-08-14T21:55:13.710Z,4,GR86-013-80,4.0,0.097,0.261,99.84,5.0,,0.0,0.0,
2025-08-14T21:55:13.753Z,4,GR86-013-80,3.7,0.079,0.246,99.84,5.0,,0.0,0.0,
2025-08-14T21:55:13.798Z,4,GR86-013-80,3.7,0.054,0.254,86.74,5.0,6619.0,0.0,0.0,
2025-08-14T21:55:13.841Z,4,GR86-013-80,3.6,0.077,0.245,88.22,5.0,,0.0,0.0,194.39
2025-08-14T21:55:13.883Z,4,GR86-013-80,3.6,0.07,0.251,92.84,5.0,,0.0,0.0,
2025-08-14T21:55:13.928Z,4,GR86-013-80,3.6,0.09,0.223,98.68,5.0,,0.0,0.0,
2025-08-14T21:55:13.971Z,4,GR86-013-80,3.6,0.07,0.198,99.68,5.0,,0.0,0.0,
2025-08-14T21:55:14.014Z,4,GR86-013-80,3.5,0.079,0.174,99.78,5.0,6633.0,0.0,0.0,
2025-08-14T21:55:14.058Z,4,GR86-013-80,3.4000000000000004,0.055,0.171,99.79,5.0,,0.0,0.0,194.95
2025-08-14T21:55:14.101Z,4,GR86-013-80,3.4000000000000004,0.064,0.156,99.81,5.0,,0.0,0.0,
2025-08-14T21:55:14.145Z,4,GR86-013-80,3.6,0.057,0.153,99.8,5.0,,0.0,0.0,
2025-08-14T21:55:14.188Z,4,GR86-013-80,4.4,0.068,0.157,99.81,5.0,,0.0,0.0,
2025-08-14T21:55:14.231Z,4,GR86-013-80,5.300000000000001,0.059,0.148,99.82,5.0,6653.0,0.0,0.0,
2025-08-14T21:55:14.274Z,4,GR86-013-80,6.2,0.078,0.149,99.8,5.0,,0.0,0.0,195.57
2025-08-14T21:55:14.318Z,4,GR86-013-80,6.9,0.045,0.181,99.8,5.0,,0.0,0.0,
2025-08-14T21:55:14.361Z,4,GR86-013-80,6.9,0.055,0.201,99.81,5.0,,0.0,0.0,
2025-08-14T21:55:14.403Z,4,GR86-013-80,6.7,0.064,0.203,99.82,5.0,,0.0,0.0,
2025-08-14T21:55:14.450Z,4,GR86-013-80,6.5,0.057,0.227,99.82,5.0,6674.0,0.0,0.0,
2025-08-14T21:55:14.492Z,4,GR86-013-80,6.4,0.073,0.226,99.82,5.0,,0.0,0.0,196.11
2025-08-14T21:55:14.538Z,4,GR86-013-80,6.300000000000001,0.055,0.308,99.8,5.0,,0.0,0.0,
2025-08-14T21:55:14.581Z,4,GR86-013-80,6.6000000000000005,0.06,0.321,99.8,5.0,,0.0,0.0,
2025-08-14T21:55:14.623Z,4,GR86-013-80,7.2,0.044,0.341,99.81,5.0,,0.0,0.0,
2025-08-14T21:55:14.667Z,4,GR86-013-80,7.800000000000001,0.055,0.341,87.77,5.0,6717.0,0.0,0.0,
2025-08-14T21:55:14.710Z,4,GR86-013-80,7.800000000000001,0.075,0.365,73.91,5.0,,0.0,0.0,196.35
2025-08-14T21:55:14.752Z,4,GR86-013-80,7.4,0.086,0.374,61.2,5.0,,0.0,0.0,
2025-08-14T21:55:14.798Z,4,GR86-013-80,6.7,0.058,0.377,57.75,5.0,,0.0,0.0,
2025-08-14T21:55:14.841Z,4,GR86-013-80,6.5,0.036,0.362,53.98,5.0,,0.0,0.0,
2025-08-14T21:55:14.883Z,4,GR86-013-80,6.5,0.051,0.33,50.8,5.0,6719.0,0.0,0.0,
2025-08-14T21:55:14.928Z,4,GR86-013-80,6.5,0.049,0.327,50.91,5.0,,0.0,0.0,197.13
2025-08-14T21:55:14.971Z,4,GR86-013-80,6.4,0.073,0.312,50.92,5.0,,0.0,0.0,
2025-08-14T21:55:15.014Z,4,GR86-013-80,6.2,0.071,0.342,49.82,5.0,,0.0,0.0,
2025-08-14T21:55:15.058Z,4,GR86-013-80,4.9,0.039,0.374,38.6,5.0,,0.0,0.0,
2025-08-14T21:55:15.101Z,4,GR86-013-80,3.9,0.047,0.329,34.68,5.0,6723.0,0.0,0.0,
2025-08-14T21:55:15.144Z,4,GR86-013-80,3.1,0.017,0.301,32.03,5.0,,0.0,0.0,198.16
2025-08-14T21:55:15.187Z,4,GR86-013-80,2.4000000000000004,0.034,0.256,26.49,5.0,,0.0,0.0,
2025-08-14T21:55:15.231Z,4,GR86-013-80,1.4,0.007,0.225,20.48,5.0,,0.0,0.0,
2025-08-14T21:55:15.274Z,4,GR86-013-80,0.2,0.023,0.177,4.45,5.0,,1.8,1.955,
2025-08-14T21:55:15.318Z,4,GR86-013-80,-0.6000000000000001,-0.101,0.133,3.73,5.0,6729.0,1.86,1.955,
2025-08-14T21:55:15.361Z,4,GR86-013-80,-0.6000000000000001,-0.174,0.124,3.56,5.0,,2.61,2.485,198.28
2025-08-14T21:55:15.404Z,4,GR86-013-80,-0.7000000000000001,-0.182,0.114,3.34,5.0,,4.21,4.18,
2025-08-14T21:55:15.450Z,4,GR86-013-80,-0.6000000000000001,-0.327,0.082,3.17,5.0,,5.37,5.495,
2025-08-14T21:55:15.493Z,4,GR86-013-80,-0.7000000000000001,-0.316,0.075,2.99,5.0,,6.655,6.625,
2025-08-14T21:55:15.538Z,4,GR86-013-80,-0.6000000000000001,-0.309,0.036,2.68,5.0,6582.0,9.75,9.905,
2025-08-14T21:55:15.581Z,4,GR86-013-80,-0.1,-0.381,0.034,2.5500000000000003,5.0,,12.27,12.39,197.73
2025-08-14T21:55:15.623Z,4,GR86-013-80,0.4,-0.411,0.017,2.52,5.0,,14.3,14.45,
2025-08-14T21:55:15.667Z,4,GR86-013-80,0.7000000000000001,-0.415,-0.003,2.49,5.0,,14.635,14.91,
2025-08-14T21:55:15.711Z,4,GR86-013-80,1.1,-0.416,-0.005,2.46,5.0,,13.915,14.175,
2025-08-14T21:55:15.754Z,4,GR86-013-80,1.6,-0.384,-0.009,2.46,5.0,6436.0,12.3,12.56,
2025-08-14T21:55:15.798Z,4,GR86-013-80,2.3000000000000003,-0.39,-0.001,2.46,5.0,,9.63,9.935,195.1
2025-08-14T21:55:15.841Z,4,GR86-013-80,2.6,-0.369,0.028,2.46,5.0,,8.15,8.425,
2025-08-14T21:55:15.883Z,4,GR86-013-80,2.8000000000000003,-0.346,0.027,2.45,5.0,,6.425,6.835,
2025-08-14T21:55:15.927Z,4,GR86-013-80,2.7,-0.32,0.037,2.46,5.0,,5.22,5.525,
2025-08-14T21:55:15.970Z,4,GR86-013-80,2.4000000000000004,-0.308,0.046,2.46,5.0,6406.0,4.9,5.22,
2025-08-14T21:55:16.012Z,4,GR86-013-80,2.3000000000000003,-0.298,0.058,2.46,5.0,,5.16,5.525,192.98
2025-08-14T21:55:16.058Z,4,GR86-013-80,2.2,-0.246,0.1,2.46,5.0,,5.995,6.15,
2025-08-14T21:55:16.101Z,4,GR86-013-80,2.2,-0.26,0.109,2.46,5.0,,7.265000000000001,7.43,
2025-08-14T21:55:16.143Z,4,GR86-013-80,2.2,-0.299,0.13,2.46,5.0,,9.31,9.31,
2025-08-14T21:55:16.188Z,4,GR86-013-80,2.4000000000000004,-0.338,0.153,2.46,5.0,6346.0,12.895,12.925,
2025-08-14T21:55:16.230Z,4,GR86-013-80,2.4000000000000004,-0.409,0.164,2.46,5.0,,18.115,18.145,191.56
2025-08-14T21:55:16.274Z,4,GR86-013-80,2.4000000000000004,-0.503,0.168,2.46,5.0,,23.93,23.835,
2025-08-14T21:55:16.318Z,4,GR86-013-80,1.9,-0.498,0.1,2.47,5.0,,31.62,31.65,
2025-08-14T21:55:16.361Z,4,GR86-013-80,1.8,-0.538,0.099,2.49,5.0,,35.02,35.175000000000004,
2025-08-14T21:55:16.403Z,4,GR86-013-80,1.5,-0.583,0.094,2.46,5.0,6222.0,38.775,38.865,
2025-08-14T21:55:16.450Z,4,GR86-013-80,1.1,-0.649,0.084,2.47,5.0,,43.43,43.49,189.22
2025-08-14T21:55:16.492Z,4,GR86-013-80,0.6000000000000001,-0.705,0.092,2.49,5.0,,48.055,48.145,
2025-08-14T21:55:16.538Z,4,GR86-013-80,-0.3,-0.873,0.142,2.47,5.0,,50.585,50.68,
2025-08-14T21:55:16.581Z,4,GR86-013-80,-0.8,-0.882,0.147,2.48,5.0,,50.345,50.465,
2025-08-14T21:55:16.623Z,4,GR86-013-80,-1.4,-0.884,0.139,2.48,5.0,5952.0,49.52,49.64,
2025-08-14T21:55:16.667Z,4,GR86-013-80,-1.6,-0.863,0.117,2.49,5.0,,48.65,48.65,183.38
2025-08-14T21:55:16.710Z,4,GR86-013-80,-1.6,-0.895,0.115,2.49,5.0,,47.52,47.735,
2025-08-14T21:55:16.753Z,4,GR86-013-80,-1.2000000000000002,-0.868,0.12,2.49,5.0,,46.53,46.835,
2025-08-14T21:55:16.798Z,4,GR86-013-80,-0.9,-0.739,0.112,2.49,5.0,,44.94,45.155,
2025-08-14T21:55:16.841Z,4,GR86-013-80,-0.9,-0.803,0.119,28.75,5.0,5660.0,43.26,43.355,
2025-08-14T21:55:16.883Z,4,GR86-013-80,-0.7000000000000001,-0.811,0.129,74.79,5.0,,41.31,41.46,177.44
2025-08-14T21:55:16.927Z,4,GR86-013-80,-0.9,-0.747,0.135,99.89,5.0,,39.25,39.25,
2025-08-14T21:55:16.971Z,4,GR86-013-80,-1.8,-0.742,0.132,74.25,4.0,,36.275,36.485,
2025-08-14T21:55:17.014Z,4,GR86-013-80,-3.6,-0.725,0.147,7.95,4.0,,32.99,33.345,
2025-08-14T21:55:17.058Z,4,GR86-013-80,-5.0,-0.686,0.088,4.39,4.0,5567.0,28.645,28.935,
2025-08-14T21:55:17.101Z,4,GR86-013-80,-5.1000000000000005,-0.624,0.077,3.89,4.0,,27.055,27.225,172.04
2025-08-14T21:55:17.145Z,4,GR86-013-80,-4.5,-0.605,0.039,3.63,4.0,,25.665,25.835,
2025-08-14T21:55:17.188Z,4,GR86-013-80,-3.9,-0.636,0.123,3.41,4.0,,24.705,24.95,
2025-08-14T21:55:17.231Z,4,GR86-013-80,-3.0,-0.619,0.073,3.18,4.0,,24.4,24.735,
2025-08-14T21:55:17.274Z,4,GR86-013-80,-0.8,-0.61,0.054,2.97,4.0,6337.0,24.31,25.025,
2025-08-14T21:55:17.318Z,4,GR86-013-80,2.9000000000000004,-0.541,0.003,2.7,4.0,,24.83,25.025,167.79
2025-08-14T21:55:17.361Z,4,GR86-013-80,5.1000000000000005,-0.598,0.014,2.59,4.0,,25.18,25.485,
2025-08-14T21:55:17.404Z,4,GR86-013-80,7.0,-0.642,0.104,2.52,4.0,,25.775,26.14,
2025-08-14T21:55:17.450Z,4,GR86-013-80,8.3,-0.637,0.102,2.49,4.0,,26.08,26.84,
2025-08-14T21:55:17.493Z,4,GR86-013-80,9.2,-0.614,0.084,2.46,4.0,6234.0,26.75,27.375,
2025-08-14T21:55:17.538Z,4,GR86-013-80,10.0,-0.66,0.129,2.46,4.0,,29.175,29.68,161.38
2025-08-14T21:55:17.581Z,4,GR86-013-80,9.6,-0.7020000000000001,0.189,2.46,4.0,,30.93,31.65,
2025-08-14T21:55:17.624Z,4,GR86-013-80,8.200000000000001,-0.6990000000000001,0.198,2.46,4.0,,32.410000000000004,33.1,
2025-08-14T21:55:17.667Z,4,GR86-013-80,5.4,-0.622,0.165,2.46,4.0,,34.78,35.31,
2025-08-14T21:55:17.710Z,4,GR86-013-80,2.8000000000000003,-0.584,0.096,2.45,4.0,6128.0,38.21,38.41,
2025-08-14T21:55:17.752Z,4,GR86-013-80,0.2,-0.608,0.062,2.46,4.0,,41.34,41.37,156.99
2025-08-14T21:55:17.798Z,4,GR86-013-80,-2.1,-0.753,0.175,2.46,4.0,,42.835,43.05,
2025-08-14T21:55:17.841Z,4,GR86-013-80,-2.8000000000000003,-0.678,0.105,2.46,4.0,,43.355,43.585,
2025-08-14T21:55:17.883Z,4,GR86-013-80,-2.6,-0.6990000000000001,0.101,36.03,4.0,,43.855,44.055,
2025-08-14T21:55:17.927Z,4,GR86-013-80,-1.0,-0.8240000000000001,0.153,82.81,4.0,5905.0,44.225,44.91,
2025-08-14T21:55:17.971Z,4,GR86-013-80,2.0,-0.89,0.254,99.65,4.0,,45.215,45.78,151.64
2025-08-14T21:55:18.014Z,4,GR86-013-80,5.4,-0.859,0.289,99.18,3.0,,47.55,47.735,
2025-08-14T21:55:18.058Z,4,GR86-013-80,8.4,-0.935,0.236,8.73,3.0,,49.93,50.435,
2025-08-14T21:55:18.101Z,4,GR86-013-80,8.200000000000001,-1.034,0.327,3.35,3.0,,53.305,53.305,
2025-08-14T21:55:18.143Z,4,GR86-013-80,7.1000000000000005,-0.9,0.248,2.98,3.0,6403.0,57.38,57.715,
2025-08-14T21:55:18.187Z,4,GR86-013-80,5.300000000000001,-0.942,0.166,2.74,3.0,,60.765,61.59,147.1
2025-08-14T21:55:18.231Z,4,GR86-013-80,3.2,-1.016,0.246,2.62,3.0,,64.0,64.125,
2025-08-14T21:55:18.274Z,4,GR86-013-80,2.1,-0.998,0.184,2.5500000000000003,3.0,,69.31,69.28,
2025-08-14T21:55:18.360Z,4,GR86-013-80,1.6,-0.953,0.178,2.49,3.0,6043.0,76.955,76.68,
2025-08-14T21:55:18.404Z,4,GR86-013-80,4.3,-0.841,0.196,2.5,3.0,,81.655,82.77,141.14
2025-08-14T21:55:18.450Z,4,GR86-013-80,-1.1,-1.017,0.295,2.49,3.0,,77.17,77.55,
2025-08-14T21:55:18.538Z,4,GR86-013-80,-6.300000000000001,-0.956,0.315,2.49,3.0,,60.05,60.825,
2025-08-14T21:55:18.623Z,4,GR86-013-80,-6.4,-0.974,0.212,2.49,3.0,5589.0,55.605,55.915,128.67000000000002
2025-08-14T21:55:18.667Z,4,GR86-013-80,-7.0,-0.966,0.223,2.49,3.0,,55.865,56.25,
2025-08-14T21:55:18.711Z,4,GR86-013-80,-7.1000000000000005,-0.911,0.249,2.49,3.0,,55.395,56.155,
2025-08-14T21:55:18.754Z,4,GR86-013-80,-7.0,-0.998,0.185,2.49,3.0,,53.21,53.545,
2025-08-14T21:55:18.798Z,4,GR86-013-80,-6.5,-1.007,0.189,2.48,3.0,5508.0,50.25,50.615,
2025-08-14T21:55:18.841Z,4,GR86-013-80,-5.7,-0.976,0.165,2.7,3.0,,48.925,49.61,128.51
2025-08-14T21:55:18.883Z,4,GR86-013-80,-3.9,-0.889,0.192,40.73,3.0,,46.435,47.155,
2025-08-14T21:55:18.927Z,4,GR86-013-80,-2.4000000000000004,-0.898,0.182,87.84,3.0,,44.5,44.805,
2025-08-14T21:55:18.971Z,4,GR86-013-80,-1.2000000000000002,-0.901,0.134,99.65,3.0,,44.315,45.215,
2025-08-14T21:55:19.013Z,4,GR86-013-80,-1.3,-0.802,0.186,86.61,2.0,5320.0,42.3,42.895,
2025-08-14T21:55:19.058Z,4,GR86-013-80,-2.9000000000000004,-0.952,0.126,4.65,2.0,,41.43,42.18,122.71
2025-08-14T21:55:19.101Z,4,GR86-013-80,-3.1,-0.952,0.121,2.84,2.0,,42.21,42.955,
2025-08-14T21:55:19.144Z,4,GR86-013-80,-3.0,-0.869,0.016,2.5500000000000003,2.0,,41.83,42.15,
2025-08-14T21:55:19.188Z,4,GR86-013-80,-2.9000000000000004,-0.868,0.068,2.46,2.0,,41.675,41.83,
2025-08-14T21:55:19.231Z,4,GR86-013-80,-2.6,-0.8180000000000001,0.074,2.43,2.0,6156.0,42.455,43.43,
2025-08-14T21:55:19.274Z,4,GR86-013-80,-1.4,-0.794,-0.009,2.43,2.0,,42.745,42.955,117.19
2025-08-14T21:55:19.318Z,4,GR86-013-80,1.6,-0.866,0.134,2.44,2.0,,43.995,44.085,
2025-08-14T21:55:19.361Z,4,GR86-013-80,4.2,-0.911,-0.054,2.43,2.0,,46.24,47.245,
2025-08-14T21:55:19.404Z,4,GR86-013-80,6.1000000000000005,-0.878,0.092,2.43,2.0,,49.105,49.305,
2025-08-14T21:55:19.450Z,4,GR86-013-80,7.4,-1.004,0.047,2.43,2.0,6003.0,53.06,53.745000000000005,
2025-08-14T21:55:19.492Z,4,GR86-013-80,8.8,-0.958,0.042,2.45,2.0,,56.005,56.4,110.62
2025-08-14T21:55:19.538Z,4,GR86-013-80,11.2,-0.957,0.053,2.46,2.0,,58.905,58.935,
2025-08-14T21:55:19.581Z,4,GR86-013-80,11.3,-1.066,0.048,2.46,2.0,,62.78,63.435,
2025-08-14T21:55:19.624Z,4,GR86-013-80,11.4,-0.891,0.13,2.46,2.0,,61.33,61.33,
2025-08-14T21:55:19.667Z,4,GR86-013-80,16.2,-1.008,0.075,2.46,2.0,5649.0,63.085,63.925,
2025-08-14T21:55:19.710Z,4,GR86-013-80,18.3,-0.886,0.166,2.46,2.0,,59.085,59.455,103.8
2025-08-14T21:55:19.753Z,4,GR86-013-80,19.9,-0.967,0.242,2.46,2.0,,55.575,56.965,
2025-08-14T21:55:19.797Z,4,GR86-013-80,24.1,-0.889,0.326,2.46,2.0,,53.93,54.495000000000005,
2025-08-14T21:55:19.841Z,4,GR86-013-80,27.4,-0.953,0.328,2.46,2.0,,51.625,52.25,
2025-08-14T21:55:19.883Z,4,GR86-013-80,31.200000000000003,-0.874,0.386,2.46,2.0,5209.0,48.3,48.985,
2025-08-14T21:55:19.927Z,4,GR86-013-80,34.800000000000004,-0.943,0.472,2.46,2.0,,46.375,47.06,95.78
2025-08-14T21:55:19.971Z,4,GR86-013-80,37.3,-0.8220000000000001,0.513,2.46,2.0,,43.89,44.62,
2025-08-14T21:55:20.014Z,4,GR86-013-80,38.5,-0.796,0.465,2.46,2.0,,42.715,43.645,
2025-08-14T21:55:20.058Z,4,GR86-013-80,39.0,-0.866,0.5730000000000001,2.46,2.0,,43.02,43.645,
2025-08-14T21:55:20.101Z,4,GR86-013-80,39.0,-0.662,0.682,2.46,2.0,4947.0,41.14,41.765,
2025-08-14T21:55:20.145Z,4,GR86-013-80,37.4,-0.791,0.546,2.46,2.0,,40.425,40.99,87.96000000000001
2025-08-14T21:55:20.188Z,4,GR86-013-80,36.3,-0.682,0.653,2.46,2.0,,39.875,40.685,
2025-08-14T21:55:20.231Z,4,GR86-013-80,36.2,-0.724,0.685,2.46,2.0,,39.4,40.15,
2025-08-14T21:55:20.274Z,4,GR86-013-80,37.0,-0.671,0.673,2.46,2.0,,36.515,37.42,
2025-08-14T21:55:20.318Z,4,GR86-013-80,44.6,-0.753,0.5740000000000001,2.47,2.0,4686.0,38.15,38.47,
2025-08-14T21:55:20.361Z,4,GR86-013-80,53.3,-0.654,0.787,2.47,2.0,,38.075,38.41,83.13
2025-08-14T21:55:20.404Z,4,GR86-013-80,61.6,-0.66,0.764,2.49,2.0,,36.99,37.355,
2025-08-14T21:55:20.450Z,4,GR86-013-80,67.10000000000001,-0.653,0.665,2.48,2.0,,34.745,35.175000000000004,
2025-08-14T21:55:20.493Z,4,GR86-013-80,69.7,-0.583,0.807,2.47,2.0,,33.22,33.875,
2025-08-14T21:55:20.538Z,4,GR86-013-80,71.10000000000001,-0.619,0.79,2.46,2.0,4175.0,28.155,28.81,
2025-08-14T21:55:20.581Z,4,GR86-013-80,71.10000000000001,-0.467,0.812,2.46,2.0,,23.835,24.49,78.43
2025-08-14T21:55:20.624Z,4,GR86-013-80,72.5,-0.582,0.621,2.46,2.0,,18.495,19.245,
2025-08-14T21:55:20.667Z,4,GR86-013-80,74.5,-0.436,0.883,2.46,2.0,,9.81,10.315,
2025-08-14T21:55:20.710Z,4,GR86-013-80,76.9,-0.342,0.812,2.45,2.0,,2.975,3.34,
2025-08-14T21:55:20.753Z,4,GR86-013-80,80.0,-0.175,0.931,2.46,2.0,4057.0,0.0,0.0,
2025-08-14T21:55:20.798Z,4,GR86-013-80,85.60000000000001,-0.172,0.872,2.48,2.0,,0.0,0.0,74.52
2025-08-14T21:55:20.841Z,4,GR86-013-80,90.3,-0.148,0.894,2.49,2.0,,0.0,0.0,
2025-08-14T21:55:20.883Z,4,GR86-013-80,95.0,-0.131,0.916,2.49,2.0,,0.0,0.0,
2025-08-14T21:55:20.927Z,4,GR86-013-80,98.4,-0.155,0.902,2.48,2.0,,0.0,0.0,
2025-08-14T21:55:20.971Z,4,GR86-013-80,99.0,-0.164,0.993,2.48,2.0,4032.0,0.0,0.0,
2025-08-14T21:55:21.013Z,4,GR86-013-80,98.3,-0.17,0.925,2.48,2.0,,0.0,0.0,74.09
2025-08-14T21:55:21.058Z,4,GR86-013-80,96.5,-0.155,0.928,2.48,2.0,,0.0,0.0,
2025-08-14T21:55:21.101Z,4,GR86-013-80,95.4,-0.163,0.872,2.49,2.0,,0.0,0.0,
2025-08-14T21:55:21.143Z,4,GR86-013-80,93.3,-0.144,0.926,2.49,2.0,,0.0,0.0,
2025-08-14T21:55:21.187Z,4,GR86-013-80,90.4,-0.144,1.001,2.49,2.0,3956.0,0.0,0.0,
2025-08-14T21:55:21.231Z,4,GR86-013-80,87.9,-0.167,0.958,2.49,2.0,,0.0,0.0,72.83
2025-08-14T21:55:21.274Z,4,GR86-013-80,87.60000000000001,-0.146,0.986,2.49,2.0,,0.0,0.0,
2025-08-14T21:55:21.318Z,4,GR86-013-80,90.8,-0.171,0.907,2.52,2.0,,0.0,0.0,
2025-08-14T21:55:21.361Z,4,GR86-013-80,95.8,-0.156,1.003,2.68,2.0,,0.0,0.0,
2025-08-14T21:55:21.404Z,4,GR86-013-80,99.7,-0.153,0.992,3.52,2.0,3860.0,0.0,0.0,
2025-08-14T21:55:21.449Z,4,GR86-013-80,101.8,-0.162,1.022,4.92,2.0,,0.0,0.0,71.65
2025-08-14T21:55:21.492Z,4,GR86-013-80,102.0,-0.159,1.071,7.9,2.0,,0.0,0.0,
2025-08-14T21:55:21.538Z,4,GR86-013-80,101.6,-0.16,0.979,18.32,2.0,,0.0,0.0,
2025-08-14T21:55:21.581Z,4,GR86-013-80,100.8,-0.152,1.026,21.1,2.0,,0.0,0.0,
2025-08-14T21:55:21.623Z,4,GR86-013-80,99.5,-0.131,0.991,21.23,2.0,3789.0,0.0,0.0,
2025-08-14T21:55:21.711Z,4,GR86-013-80,98.3,-0.104,1.003,21.4,2.0,,0.0,0.0,70.28
2025-08-14T21:55:21.753Z,4,GR86-013-80,98.1,-0.118,0.989,21.64,2.0,,0.0,0.0,
2025-08-14T21:55:21.798Z,4,GR86-013-80,98.2,0.158,1.023,21.79,2.0,,0.0,0.0,
2025-08-14T21:55:21.841Z,4,GR86-013-80,99.0,0.151,0.925,21.86,2.0,3897.0,0.0,0.0,
2025-08-14T21:55:21.883Z,4,GR86-013-80,100.7,0.117,0.978,21.92,2.0,,0.0,0.0,68.92
2025-08-14T21:55:21.927Z,4,GR86-013-80,103.5,0.136,0.986,21.95,2.0,,0.0,0.0,
2025-08-14T21:55:21.970Z,4,GR86-013-80,106.4,0.079,0.952,21.99,2.0,,0.0,0.0,
2025-08-14T21:55:22.013Z,4,GR86-013-80,109.0,0.071,1.031,22.02,2.0,,0.0,0.0,
2025-08-14T21:55:22.056Z,4,GR86-013-80,113.8,0.06,1.025,22.05,2.0,3952.0,0.0,0.0,
2025-08-14T21:55:22.101Z,4,GR86-013-80,118.3,0.08,1.064,22.05,2.0,,0.0,0.0,68.07000000000001
2025-08-14T21:55:22.143Z,4,GR86-013-80,122.8,0.074,1.033,22.05,2.0,,0.0,0.0,
2025-08-14T21:55:22.188Z,4,GR86-013-80,126.1,0.077,0.999,22.05,2.0,,0.0,0.0,
2025-08-14T21:55:22.231Z,4,GR86-013-80,127.2,0.094,1.007,23.45,2.0,,0.0,0.0,
2025-08-14T21:55:22.274Z,4,GR86-013-80,127.3,0.086,0.927,25.62,2.0,3971.0,0.0,0.0,
2025-08-14T21:55:22.318Z,4,GR86-013-80,127.3,0.095,0.973,28.16,2.0,,0.0,0.0,68.12
2025-08-14T21:55:22.361Z,4,GR86-013-80,127.3,0.072,0.968,29.16,2.0,,0.0,0.0,
2025-08-14T21:55:22.403Z,4,GR86-013-80,127.2,0.081,0.936,29.77,2.0,,0.0,0.0,
2025-08-14T21:55:22.450Z,4,GR86-013-80,127.2,0.12,0.912,29.86,2.0,,0.0,0.0,
2025-08-14T21:55:22.492Z,4,GR86-013-80,127.2,0.146,0.865,29.81,2.0,3958.0,0.0,0.0,
2025-08-14T21:55:22.538Z,4,GR86-013-80,127.1,0.128,0.947,29.46,2.0,,0.0,0.0,68.99
2025-08-14T21:55:22.581Z,4,GR86-013-80,127.1,0.098,0.963,29.33,2.0,,0.0,0.0,
2025-08-14T21:55:22.623Z,4,GR86-013-80,127.1,0.091,0.976,29.17,2.0,,0.0,0.0,
2025-08-14T21:55:22.667Z,4,GR86-013-80,127.1,0.107,0.934,28.88,2.0,,0.0,0.0,
2025-08-14T21:55:22.710Z,4,GR86-013-80,127.1,0.14,0.877,28.7,2.0,4013.0,0.0,0.0,
2025-08-14T21:55:22.753Z,4,GR86-013-80,127.1,0.144,0.928,28.73,2.0,,0.0,0.0,69.75
2025-08-14T21:55:22.797Z,4,GR86-013-80,125.3,0.085,0.954,28.74,2.0,,0.0,0.0,
2025-08-14T21:55:22.841Z,4,GR86-013-80,121.0,0.102,1.001,28.47,2.0,,0.0,0.0,
2025-08-14T21:55:22.883Z,4,GR86-013-80,115.8,0.114,0.959,26.37,2.0,,0.0,0.0,
2025-08-14T21:55:22.928Z,4,GR86-013-80,113.1,0.122,0.943,25.68,2.0,4064.0,0.0,0.0,
2025-08-14T21:55:22.971Z,4,GR86-013-80,112.6,0.125,0.988,25.72,2.0,,0.0,0.0,70.26
2025-08-14T21:55:23.014Z,4,GR86-013-80,112.2,0.123,0.932,26.11,2.0,,0.0,0.0,
2025-08-14T21:55:23.058Z,4,GR86-013-80,106.7,0.091,1.001,27.53,2.0,,0.0,0.0,
2025-08-14T21:55:23.101Z,4,GR86-013-80,99.7,0.093,0.967,29.68,2.0,,0.0,0.0,
2025-08-14T21:55:23.145Z,4,GR86-013-80,92.6,0.117,0.982,33.45,2.0,4125.0,0.0,0.0,
2025-08-14T21:55:23.188Z,4,GR86-013-80,86.7,0.136,0.963,37.26,2.0,,0.0,0.0,71.06
2025-08-14T21:55:23.231Z,4,GR86-013-80,82.0,0.138,0.929,43.95,2.0,,0.0,0.0,
2025-08-14T21:55:23.274Z,4,GR86-013-80,76.0,0.175,0.952,49.68,2.0,,0.0,0.0,
2025-08-14T21:55:23.318Z,4,GR86-013-80,63.400000000000006,0.191,0.887,56.870000000000005,2.0,,0.0,0.0,
2025-08-14T21:55:23.361Z,4,GR86-013-80,55.900000000000006,0.199,0.881,60.48,2.0,4194.0,0.0,0.0,
2025-08-14T21:55:23.403Z,4,GR86-013-80,51.900000000000006,0.225,0.836,68.75,2.0,,0.0,0.0,71.72
2025-08-14T21:55:23.450Z,4,GR86-013-80,51.7,0.25,0.808,81.37,2.0,,0.0,0.0,
2025-08-14T21:55:23.492Z,4,GR86-013-80,53.5,0.27,0.752,98.38,2.0,,0.0,0.0,
2025-08-14T21:55:23.538Z,4,GR86-013-80,56.8,0.254,0.777,99.8,2.0,,0.0,0.0,
2025-08-14T21:55:23.581Z,4,GR86-013-80,57.0,0.238,0.722,99.8,2.0,4257.0,0.0,0.0,
2025-08-14T21:55:23.624Z,4,GR86-013-80,57.0,0.261,0.669,99.8,2.0,,0.0,0.0,72.43
2025-08-14T21:55:23.667Z,4,GR86-013-80,55.8,0.219,0.764,99.8,2.0,,0.0,0.0,
2025-08-14T21:55:23.710Z,4,GR86-013-80,53.2,0.224,0.681,99.82,2.0,,0.0,0.0,
2025-08-14T21:55:23.752Z,4,GR86-013-80,47.3,0.243,0.687,99.81,2.0,,0.0,0.0,
2025-08-14T21:55:23.798Z,4,GR86-013-80,37.0,0.227,0.581,99.81,2.0,4337.0,0.0,0.0,
2025-08-14T21:55:23.841Z,4,GR86-013-80,31.200000000000003,0.203,0.615,99.8,2.0,,0.0,0.0,73.58
2025-08-14T21:55:23.883Z,4,GR86-013-80,27.9,0.333,0.533,99.8,2.0,,0.0,0.0,
2025-08-14T21:55:23.927Z,4,GR86-013-80,26.6,0.285,0.499,99.81,2.0,,0.0,0.0,
2025-08-14T21:55:23.971Z,4,GR86-013-80,26.0,0.253,0.512,99.82,2.0,,0.0,0.0,
2025-08-14T21:55:24.013Z,4,GR86-013-80,26.200000000000003,0.327,0.407,99.82,2.0,4448.0,0.0,0.0,
2025-08-14T21:55:24.058Z,4,GR86-013-80,24.6,0.369,0.4,99.83,2.0,,0.0,0.0,75.18
2025-08-14T21:55:24.101Z,4,GR86-013-80,21.8,0.267,0.356,99.84,2.0,,0.0,0.0,
2025-08-14T21:55:24.143Z,4,GR86-013-80,17.0,0.22,0.445,99.85,2.0,,0.0,0.0,
2025-08-14T21:55:24.187Z,4,GR86-013-80,12.4,0.392,0.349,99.84,2.0,,0.0,0.0,
2025-08-14T21:55:24.230Z,4,GR86-013-80,9.2,0.278,0.322,99.83,2.0,4562.0,0.0,0.0,
2025-08-14T21:55:24.272Z,4,GR86-013-80,7.6,0.243,0.349,99.84,2.0,,0.0,0.0,76.4
2025-08-14T21:55:24.318Z,4,GR86-013-80,7.6,0.331,0.296,99.84,2.0,,0.0,0.0,
2025-08-14T21:55:24.361Z,4,GR86-013-80,8.1,0.305,0.237,99.83,2.0,,0.0,0.0,
2025-08-14T21:55:24.404Z,4,GR86-013-80,8.6,0.305,0.209,99.84,2.0,,0.0,0.0,
2025-08-14T21:55:24.450Z,4,GR86-013-80,8.6,0.23,0.232,99.84,2.0,4656.0,0.0,0.0,
2025-08-14T21:55:24.492Z,4,GR86-013-80,8.200000000000001,0.209,0.214,99.84,2.0,,0.0,0.0,77.85000000000001
2025-08-14T21:55:24.538Z,4,GR86-013-80,6.800000000000001,0.336,0.188,99.83,2.0,,0.0,0.0,
2025-08-14T21:55:24.581Z,4,GR86-013-80,5.2,0.333,0.123,99.85,2.0,,0.0,0.0,
2025-08-14T21:55:24.623Z,4,GR86-013-80,3.6,0.307,0.135,99.84,2.0,,0.0,0.0,
2025-08-14T21:55:24.668Z,4,GR86-013-80,2.1,0.268,0.095,99.85,2.0,4784.0,0.0,0.0,
2025-08-14T21:55:24.711Z,4,GR86-013-80,0.8,0.196,0.08,99.83,2.0,,0.0,0.0,79.82000000000001
2025-08-14T21:55:24.753Z,4,GR86-013-80,-0.4,0.288,0.054,99.84,2.0,,0.0,0.0,
2025-08-14T21:55:24.798Z,4,GR86-013-80,-1.4,0.314,-0.011,99.83,2.0,,0.0,0.0,
2025-08-14T21:55:24.883Z,4,GR86-013-80,-2.0,0.33,-0.003,99.84,2.0,4851.0,0.0,0.0,
2025-08-14T21:55:24.928Z,4,GR86-013-80,-2.3000000000000003,0.193,-0.062,99.84,2.0,,0.0,0.0,81.81
2025-08-14T21:55:24.971Z,4,GR86-013-80,-2.4000000000000004,0.374,-0.037,99.84,2.0,,0.0,0.0,
2025-08-14T21:55:25.013Z,4,GR86-013-80,-2.8000000000000003,0.3,-0.058,99.85,2.0,,0.0,0.0,
2025-08-14T21:55:25.058Z,4,GR86-013-80,-3.0,0.281,-0.044,99.85,2.0,,0.0,0.0,
2025-08-14T21:55:25.101Z,4,GR86-013-80,-3.0,0.28,-0.078,99.84,2.0,5012.0,0.0,0.0,
2025-08-14T21:55:25.143Z,4,GR86-013-80,-3.2,0.28,-0.055,99.84,2.0,,0.0,0.0,85.67
2025-08-14T21:55:25.188Z,4,GR86-013-80,-3.3000000000000003,0.287,-0.066,99.84,2.0,,0.0,0.0,
2025-08-14T21:55:25.230Z,4,GR86-013-80,-3.4000000000000004,0.307,-0.071,99.84,2.0,,0.0,0.0,
2025-08-14T21:55:25.274Z,4,GR86-013-80,-3.5,0.299,-0.081,99.85,2.0,,0.0,0.0,
2025-08-14T21:55:25.318Z,4,GR86-013-80,-3.7,0.272,-0.071,99.83,2.0,5049.0,0.0,0.0,
2025-08-14T21:55:25.361Z,4,GR86-013-80,-3.9,0.279,-0.055,99.84,2.0,,0.0,0.0,87.42
2025-08-14T21:55:25.403Z,4,GR86-013-80,-4.1000000000000005,0.262,-0.057,99.84,2.0,,0.0,0.0,
2025-08-14T21:55:25.450Z,4,GR86-013-80,-4.2,0.278,-0.046,99.85,2.0,,0.0,0.0,
2025-08-14T21:55:25.492Z,4,GR86-013-80,-4.3,0.259,-0.053,99.84,2.0,,0.0,0.0,
2025-08-14T21:55:25.538Z,4,GR86-013-80,-4.7,0.299,-0.049,99.84,2.0,5247.0,0.0,0.0,
2025-08-14T21:55:25.581Z,4,GR86-013-80,-4.800000000000001,0.28,-0.074,99.85,2.0,,0.0,0.0,89.29
2025-08-14T21:55:25.623Z,4,GR86-013-80,-5.0,0.304,-0.062,99.85,2.0,,0.0,0.0,
2025-08-14T21:55:25.667Z,4,GR86-013-80,-5.2,0.281,-0.07,99.85,2.0,,0.0,0.0,
2025-08-14T21:55:25.710Z,4,GR86-013-80,-5.4,0.292,-0.063,99.83,2.0,,0.0,0.0,
2025-08-14T21:55:25.753Z,4,GR86-013-80,-5.6000000000000005,0.26,-0.083,99.83,2.0,5342.0,0.0,0.0,
2025-08-14T21:55:25.798Z,4,GR86-013-80,-5.800000000000001,0.267,-0.09,99.85,2.0,,0.0,0.0,91.06
2025-08-14T21:55:25.841Z,4,GR86-013-80,-5.9,0.309,-0.086,99.83,2.0,,0.0,0.0,
2025-08-14T21:55:25.883Z,4,GR86-013-80,-6.0,0.293,-0.103,99.84,2.0,,0.0,0.0,
2025-08-14T21:55:25.927Z,4,GR86-013-80,-6.0,0.315,-0.084,99.84,2.0,,0.0,0.0,
2025-08-14T21:55:25.971Z,4,GR86-013-80,-6.0,0.296,-0.093,99.84,2.0,5452.0,0.0,0.0,
2025-08-14T21:55:26.014Z,4,GR86-013-80,-6.0,0.304,-0.078,99.85,2.0,,0.0,0.0,92.76
2025-08-14T21:55:26.058Z,4,GR86-013-80,-6.0,0.268,-0.103,99.84,2.0,,0.0,0.0,
2025-08-14T21:55:26.101Z,4,GR86-013-80,-6.0,0.278,-0.101,99.83,2.0,,0.0,0.0,
2025-08-14T21:55:26.145Z,4,GR86-013-80,-6.0,0.291,-0.087,99.83,2.0,,0.0,0.0,
2025-08-14T21:55:26.188Z,4,GR86-013-80,-6.0,0.297,-0.092,99.84,2.0,5554.0,0.0,0.0,
2025-08-14T21:55:26.231Z,4,GR86-013-80,-6.0,0.299,-0.089,99.83,2.0,,0.0,0.0,94.5
2025-08-14T21:55:26.274Z,4,GR86-013-80,-6.0,0.289,-0.101,99.83,2.0,,0.0,0.0,
2025-08-14T21:55:26.318Z,4,GR86-013-80,-5.7,0.272,-0.099,99.84,2.0,,0.0,0.0,
2025-08-14T21:55:26.361Z,4,GR86-013-80,-5.2,0.285,-0.094,99.85,2.0,,0.0,0.0,
2025-08-14T21:55:26.403Z,4,GR86-013-80,-4.800000000000001,0.302,-0.083,99.84,2.0,5656.0,0.0,0.0,
2025-08-14T21:55:26.450Z,4,GR86-013-80,-4.5,0.292,-0.074,99.83,2.0,,0.0,0.0,96.15
2025-08-14T21:55:26.492Z,4,GR86-013-80,-4.2,0.292,-0.065,99.85,2.0,,0.0,0.0,
2025-08-14T21:55:26.538Z,4,GR86-013-80,-3.8,0.264,-0.057,99.84,2.0,,0.0,0.0,
2025-08-14T21:55:26.581Z,4,GR86-013-80,-3.6,0.279,-0.05,99.84,2.0,,0.0,0.0,
2025-08-14T21:55:26.623Z,4,GR86-013-80,-3.6,0.304,-0.064,99.85,2.0,5727.0,0.0,0.0,
2025-08-14T21:55:26.667Z,4,GR86-013-80,-3.6,0.303,-0.045,99.84,2.0,,0.0,0.0,97.83
2025-08-14T21:55:26.710Z,4,GR86-013-80,-3.6,0.291,-0.049,99.83,2.0,,0.0,0.0,
2025-08-14T21:55:26.752Z,4,GR86-013-80,-3.5,0.292,-0.029,99.83,2.0,,0.0,0.0,
2025-08-14T21:55:26.798Z,4,GR86-013-80,-3.5,0.296,-0.036,99.84,2.0,,0.0,0.0,
2025-08-14T21:55:26.841Z,4,GR86-013-80,-3.5,0.299,-0.036,99.86,2.0,5823.0,0.0,0.0,
2025-08-14T21:55:26.883Z,4,GR86-013-80,-3.4000000000000004,0.275,-0.03,99.84,2.0,,0.0,0.0,99.44
2025-08-14T21:55:26.928Z,4,GR86-013-80,-3.4000000000000004,0.268,-0.029,99.85,2.0,,0.0,0.0,
2025-08-14T21:55:26.971Z,4,GR86-013-80,-3.4000000000000004,0.275,-0.028,99.84,2.0,,0.0,0.0,
2025-08-14T21:55:27.013Z,4,GR86-013-80,-3.3000000000000003,0.271,-0.034,99.84,2.0,,0.0,0.0,
2025-08-14T21:55:27.058Z,4,GR86-013-80,-3.2,0.28,-0.029,99.84,2.0,5923.0,0.0,0.0,
2025-08-14T21:55:27.101Z,4,GR86-013-80,-3.3000000000000003,0.274,-0.025,99.84,2.0,,0.0,0.0,101.02
2025-08-14T21:55:27.143Z,4,GR86-013-80,-3.4000000000000004,0.275,-0.028,99.84,2.0,,0.0,0.0,
2025-08-14T21:55:27.187Z,4,GR86-013-80,-3.3000000000000003,0.294,-0.033,99.85,2.0,,0.0,0.0,
2025-08-14T21:55:27.231Z,4,GR86-013-80,-3.1,0.28,-0.033,99.85,2.0,,0.0,0.0,
2025-08-14T21:55:27.274Z,4,GR86-013-80,-2.5,0.288,-0.032,99.86,2.0,6004.0,0.0,0.0,
2025-08-14T21:55:27.318Z,4,GR86-013-80,-1.3,0.307,-0.024,99.84,2.0,,0.0,0.0,102.57
2025-08-14T21:55:27.361Z,4,GR86-013-80,-0.3,0.279,-0.01,99.84,2.0,,0.0,0.0,
2025-08-14T21:55:27.404Z,4,GR86-013-80,1.0,0.275,0.016,99.83,2.0,,0.0,0.0,
2025-08-14T21:55:27.450Z,4,GR86-013-80,2.0,0.263,0.024,99.84,2.0,,0.0,0.0,
2025-08-14T21:55:27.492Z,4,GR86-013-80,2.6,0.281,0.039,99.85,2.0,6094.0,0.0,0.0,
2025-08-14T21:55:27.538Z,4,GR86-013-80,2.2,0.272,0.069,99.85,2.0,,0.0,0.0,105.55
2025-08-14T21:55:27.581Z,4,GR86-013-80,1.6,0.278,0.063,99.84,2.0,,0.0,0.0,
2025-08-14T21:55:27.623Z,4,GR86-013-80,1.3,0.291,0.091,99.85,2.0,,0.0,0.0,
2025-08-14T21:55:27.667Z,4,GR86-013-80,0.7000000000000001,0.301,0.079,99.84,2.0,,0.0,0.0,
2025-08-14T21:55:27.711Z,4,GR86-013-80,0.2,0.266,0.072,99.83,2.0,6162.0,0.0,0.0,
2025-08-14T21:55:27.753Z,4,GR86-013-80,0.1,0.275,0.085,99.84,2.0,,0.0,0.0,106.92
2025-08-14T21:55:27.798Z,4,GR86-013-80,-0.2,0.282,0.081,99.85,2.0,,0.0,0.0,
2025-08-14T21:55:27.841Z,4,GR86-013-80,-0.3,0.245,0.07,99.84,2.0,,0.0,0.0,
2025-08-14T21:55:27.883Z,4,GR86-013-80,-0.4,0.273,0.075,99.84,2.0,,0.0,0.0,
2025-08-14T21:55:27.927Z,4,GR86-013-80,-0.4,0.288,0.066,99.84,2.0,6246.0,0.0,0.0,
2025-08-14T21:55:27.970Z,4,GR86-013-80,-0.5,0.276,0.055,99.85,2.0,,0.0,0.0,108.21
2025-08-14T21:55:28.012Z,4,GR86-013-80,-0.6000000000000001,0.284,0.058,99.84,2.0,,0.0,0.0,
2025-08-14T21:55:28.056Z,4,GR86-013-80,-0.8,0.296,0.05,99.84,2.0,,0.0,0.0,
2025-08-14T21:55:28.101Z,4,GR86-013-80,-1.0,0.253,0.026,99.85,2.0,,0.0,0.0,
2025-08-14T21:55:28.143Z,4,GR86-013-80,-1.3,0.265,0.034,99.84,2.0,6380.0,0.0,0.0,
2025-08-14T21:55:28.187Z,4,GR86-013-80,-1.9,0.272,0.01,99.85,2.0,,0.0,0.0,109.42
2025-08-14T21:55:28.231Z,4,GR86-013-80,-2.0,0.278,0.012,99.83,2.0,,0.0,0.0,
2025-08-14T21:55:28.274Z,4,GR86-013-80,-2.1,0.277,0.019,99.86,2.0,,0.0,0.0,
2025-08-14T21:55:28.318Z,4,GR86-013-80,-2.1,0.272,0.004,99.84,2.0,,0.0,0.0,
2025-08-14T21:55:28.361Z,4,GR86-013-80,-2.1,0.243,-0.018,99.85,2.0,6461.0,0.0,0.0,
2025-08-14T21:55:28.403Z,4,GR86-013-80,-2.1,0.283,-0.007,99.84,2.0,,0.0,0.0,110.58
2025-08-14T21:55:28.450Z,4,GR86-013-80,-2.1,0.283,-0.022,99.86,2.0,,0.0,0.0,
2025-08-14T21:55:28.492Z,4,GR86-013-80,-2.2,0.268,-0.016,99.85,2.0,,0.0,0.0,
2025-08-14T21:55:28.538Z,4,GR86-013-80,-2.2,0.277,-0.015,99.87,2.0,,0.0,0.0,
2025-08-14T21:55:28.581Z,4,GR86-013-80,-2.2,0.269,-0.019,99.85,2.0,6528.0,0.0,0.0,
