timestamp,lap,vehicle_id,steering_angle,accx_can,accy_can,ath,gear,nmot,pbrake_f,pbrake_r,speed
2025-08-14T22:26:05.029Z,6,GR86-047-21,-0.4,0.125,0.026,100.01,4.0,,0.0,0.0,
2025-08-14T22:26:05.073Z,6,GR86-047-21,-0.4,0.125,0.011,100.02,4.0,7001.0,0.0,0.0,
2025-08-14T22:26:05.116Z,6,GR86-047-21,-0.4,0.128,0.007,99.99,4.0,,0.0,0.0,177.06
2025-08-14T22:26:05.159Z,6,GR86-047-21,-0.4,0.142,-0.002,100.01,4.0,,0.0,0.0,
2025-08-14T22:26:05.202Z,6,GR86-047-21,-0.4,0.1,0.025,100.0,4.0,,0.0,0.0,
2025-08-14T22:26:05.246Z,6,GR86-047-21,-0.4,0.1,0.01,100.03,4.0,,0.0,0.0,
2025-08-14T22:26:05.289Z,6,GR86-047-21,-0.4,0.126,0.017,99.99,4.0,7049.0,0.0,0.0,
2025-08-14T22:26:05.333Z,6,GR86-047-21,-0.4,0.12,0.039,99.99,4.0,,0.0,0.0,177.81
2025-08-14T22:26:05.376Z,6,GR86-047-21,-0.4,0.112,0.022,99.99,4.0,,0.0,0.0,
2025-08-14T22:26:05.419Z,6,GR86-047-21,-0.4,0.108,0.039,100.0,4.0,,0.0,0.0,
2025-08-14T22:26:05.461Z,6,GR86-047-21,-0.4,0.102,0.03,99.99,4.0,,0.0,0.0,
2025-08-14T22:26:05.507Z,6,GR86-047-21,-0.4,0.113,0.019,99.99,4.0,7069.0,0.0,0.0,
2025-08-14T22:26:05.549Z,6,GR86-047-21,-0.4,0.116,0.015,100.0,4.0,,0.0,0.0,178.6
2025-08-14T22:26:05.593Z,6,GR86-047-21,-0.4,0.125,0.004,99.99,4.0,,0.0,0.0,
2025-08-14T22:26:05.636Z,6,GR86-047-21,-0.4,0.114,0.032,100.01,4.0,,0.0,0.0,
2025-08-14T22:26:05.679Z,6,GR86-047-21,-0.4,0.113,0.018,99.98,4.0,,0.0,0.0,
2025-08-14T22:26:05.723Z,6,GR86-047-21,-0.4,0.093,0.012,100.0,4.0,7102.0,0.0,0.0,
2025-08-14T22:26:05.766Z,6,GR86-047-21,-0.4,0.119,0.034,100.0,4.0,,0.0,0.0,179.43
2025-08-14T22:26:05.809Z,6,GR86-047-21,-0.4,0.113,0.047,99.99,4.0,,0.0,0.0,
2025-08-14T22:26:05.853Z,6,GR86-047-21,-0.4,0.13,0.012,100.0,4.0,,0.0,0.0,
2025-08-14T22:26:05.898Z,6,GR86-047-21,-0.4,0.116,0.006,100.0,4.0,,0.0,0.0,
2025-08-14T22:26:05.940Z,6,GR86-047-21,-0.4,0.111,-0.013,99.96,4.0,7142.0,0.0,0.0,
2025-08-14T22:26:06.026Z,6,GR86-047-21,-0.5,0.099,0.005,99.99,4.0,,0.0,0.0,180.19
2025-08-14T22:26:06.069Z,6,GR86-047-21,-0.5,0.119,-0.021,99.97,4.0,,0.0,0.0,
2025-08-14T22:26:06.113Z,6,GR86-047-21,-0.5,0.104,-0.029,100.01,4.0,,0.0,0.0,
2025-08-14T22:26:06.157Z,6,GR86-047-21,-0.5,0.104,-0.017,99.97,4.0,7175.0,0.0,0.0,
2025-08-14T22:26:06.199Z,6,GR86-047-21,-0.6000000000000001,0.1,-0.03,100.01,4.0,,0.0,0.0,180.81
2025-08-14T22:26:06.243Z,6,GR86-047-21,-0.9,0.104,-0.002,99.98,4.0,,0.0,0.0,
2025-08-14T22:26:06.287Z,6,GR86-047-21,-1.1,0.111,-0.053,100.0,4.0,,0.0,0.0,
2025-08-14T22:26:06.329Z,6,GR86-047-21,-1.1,0.125,0.001,100.01,4.0,,0.0,0.0,
2025-08-14T22:26:06.373Z,6,GR86-047-21,-1.3,0.11,-0.03,99.99,4.0,7186.0,0.0,0.0,
2025-08-14T22:26:06.416Z,6,GR86-047-21,-1.4,0.095,-0.033,100.01,4.0,,0.0,0.0,181.78
2025-08-14T22:26:06.459Z,6,GR86-047-21,-1.6,0.11,-0.041,100.0,4.0,,0.0,0.0,
2025-08-14T22:26:06.502Z,6,GR86-047-21,-1.7000000000000002,0.105,-0.066,99.99,4.0,,0.0,0.0,
2025-08-14T22:26:06.547Z,6,GR86-047-21,-1.7000000000000002,0.101,-0.077,100.0,4.0,,0.0,0.0,
2025-08-14T22:26:06.589Z,6,GR86-047-21,-1.8,0.115,-0.079,99.99,4.0,7225.0,0.0,0.0,
2025-08-14T22:26:06.633Z,6,GR86-047-21,-1.9,0.105,-0.075,99.96,4.0,,0.0,0.0,182.5
2025-08-14T22:26:06.676Z,6,GR86-047-21,-1.9,0.11,-0.088,100.0,4.0,,0.0,0.0,
2025-08-14T22:26:06.719Z,6,GR86-047-21,-1.9,0.092,-0.091,100.02,4.0,,0.0,0.0,
2025-08-14T22:26:06.761Z,6,GR86-047-21,-1.9,0.106,-0.089,99.99,4.0,,0.0,0.0,
2025-08-14T22:26:06.807Z,6,GR86-047-21,-1.9,0.093,-0.084,100.0,4.0,7248.0,0.0,0.0,
2025-08-14T22:26:06.849Z,6,GR86-047-21,-1.9,0.111,-0.067,99.99,4.0,,0.0,0.0,183.32
2025-08-14T22:26:06.893Z,6,GR86-047-21,-1.9,0.074,-0.078,99.99,4.0,,0.0,0.0,
2025-08-14T22:26:06.937Z,6,GR86-047-21,-1.9,-0.138,-0.019,99.97,5.0,,0.0,0.0,
2025-08-14T22:26:07.023Z,6,GR86-047-21,-1.9,0.378,-0.095,99.99,5.0,7279.0,0.0,0.0,
2025-08-14T22:26:07.110Z,6,GR86-047-21,-1.9,0.021,0.006,100.04,5.0,,0.0,0.0,184.11
2025-08-14T22:26:07.543Z,6,GR86-047-21,-1.9,0.082,-0.02,100.0,5.0,,0.0,0.0,
2025-08-14T22:26:07.629Z,6,GR86-047-21,-1.0,0.083,-0.019,100.0,5.0,,0.0,0.0,
2025-08-14T22:26:07.673Z,6,GR86-047-21,-0.5,0.096,-0.011,99.98,5.0,6376.0,0.0,0.0,
2025-08-14T22:26:07.716Z,6,GR86-047-21,-0.3,0.114,0.006,100.02,5.0,,0.0,0.0,186.57
2025-08-14T22:26:07.759Z,6,GR86-047-21,0.1,0.104,0.025,99.99,5.0,,0.0,0.0,
2025-08-14T22:26:07.847Z,6,GR86-047-21,1.2000000000000002,0.08,0.077,100.0,5.0,,0.0,0.0,
2025-08-14T22:26:07.889Z,6,GR86-047-21,1.2000000000000002,0.077,0.088,99.99,5.0,6422.0,0.0,0.0,
2025-08-14T22:26:07.976Z,6,GR86-047-21,1.2000000000000002,0.095,0.112,99.99,5.0,,0.0,0.0,187.37
2025-08-14T22:26:08.019Z,6,GR86-047-21,1.2000000000000002,0.075,0.135,99.99,5.0,,0.0,0.0,
2025-08-14T22:26:08.063Z,6,GR86-047-21,1.2000000000000002,0.09,0.142,100.01,5.0,,0.0,0.0,
2025-08-14T22:26:08.107Z,6,GR86-047-21,1.2000000000000002,0.074,0.179,100.0,5.0,6444.0,0.0,0.0,
2025-08-14T22:26:08.149Z,6,GR86-047-21,1.2000000000000002,0.079,0.193,99.98,5.0,,0.0,0.0,188.02
2025-08-14T22:26:08.193Z,6,GR86-047-21,1.2000000000000002,0.076,0.2,100.0,5.0,,0.0,0.0,
2025-08-14T22:26:08.237Z,6,GR86-047-21,1.2000000000000002,0.073,0.161,100.0,5.0,,0.0,0.0,
2025-08-14T22:26:08.279Z,6,GR86-047-21,1.2000000000000002,0.065,0.157,99.99,5.0,,0.0,0.0,
2025-08-14T22:26:08.323Z,6,GR86-047-21,1.2000000000000002,0.075,0.162,100.0,5.0,6456.0,0.0,0.0,
2025-08-14T22:26:08.366Z,6,GR86-047-21,1.2000000000000002,0.091,0.145,100.02,5.0,,0.0,0.0,188.81
2025-08-14T22:26:08.409Z,6,GR86-047-21,1.2000000000000002,0.109,0.142,99.99,5.0,,0.0,0.0,
2025-08-14T22:26:08.453Z,6,GR86-047-21,1.2000000000000002,0.105,0.122,100.0,5.0,,0.0,0.0,
2025-08-14T22:26:08.498Z,6,GR86-047-21,1.2000000000000002,0.093,0.123,100.01,5.0,,0.0,0.0,
2025-08-14T22:26:08.540Z,6,GR86-047-21,1.3,0.069,0.117,99.99,5.0,6493.0,0.0,0.0,
2025-08-14T22:26:08.583Z,6,GR86-047-21,1.7000000000000002,0.069,0.112,100.02,5.0,,0.0,0.0,189.2
2025-08-14T22:26:08.626Z,6,GR86-047-21,1.7000000000000002,0.112,0.102,99.99,5.0,,0.0,0.0,
2025-08-14T22:26:08.669Z,6,GR86-047-21,1.7000000000000002,0.102,0.138,99.99,5.0,,0.0,0.0,
2025-08-14T22:26:08.712Z,6,GR86-047-21,1.7000000000000002,0.087,0.159,99.99,5.0,,0.0,0.0,
2025-08-14T22:26:08.757Z,6,GR86-047-21,1.7000000000000002,0.116,0.186,99.99,5.0,6524.0,0.0,0.0,
2025-08-14T22:26:08.799Z,6,GR86-047-21,1.7000000000000002,0.107,0.141,100.01,5.0,,0.0,0.0,189.73
2025-08-14T22:26:08.843Z,6,GR86-047-21,1.7000000000000002,0.083,0.168,100.0,5.0,,0.0,0.0,
2025-08-14T22:26:08.887Z,6,GR86-047-21,1.7000000000000002,0.089,0.163,100.02,5.0,,0.0,0.0,
2025-08-14T22:26:08.929Z,6,GR86-047-21,1.7000000000000002,0.082,0.165,99.98,5.0,,0.0,0.0,
2025-08-14T22:26:08.973Z,6,GR86-047-21,1.7000000000000002,0.097,0.149,100.01,5.0,6532.0,0.0,0.0,
2025-08-14T22:26:09.016Z,6,GR86-047-21,1.7000000000000002,0.095,0.174,100.02,5.0,,0.0,0.0,190.7
2025-08-14T22:26:09.059Z,6,GR86-047-21,1.7000000000000002,0.108,0.158,100.03,5.0,,0.0,0.0,
2025-08-14T22:26:09.102Z,6,GR86-047-21,1.7000000000000002,0.105,0.156,99.99,5.0,,0.0,0.0,
2025-08-14T22:26:09.146Z,6,GR86-047-21,1.7000000000000002,0.068,0.118,99.99,5.0,,0.0,0.0,
2025-08-14T22:26:09.189Z,6,GR86-047-21,1.7000000000000002,0.07,0.119,100.0,5.0,6554.0,0.0,0.0,
2025-08-14T22:26:09.232Z,6,GR86-047-21,1.7000000000000002,0.097,0.093,100.01,5.0,,0.0,0.0,191.38
2025-08-14T22:26:09.276Z,6,GR86-047-21,1.7000000000000002,0.095,0.099,99.99,5.0,,0.0,0.0,
2025-08-14T22:26:09.319Z,6,GR86-047-21,1.7000000000000002,0.083,0.057,99.99,5.0,,0.0,0.0,
2025-08-14T22:26:09.361Z,6,GR86-047-21,1.7000000000000002,0.073,0.073,99.97,5.0,,0.0,0.0,
2025-08-14T22:26:09.407Z,6,GR86-047-21,1.7000000000000002,0.081,0.078,99.99,5.0,6581.0,0.0,0.0,
2025-08-14T22:26:09.449Z,6,GR86-047-21,1.7000000000000002,0.082,0.079,99.99,5.0,,0.0,0.0,191.89
2025-08-14T22:26:09.493Z,6,GR86-047-21,1.7000000000000002,0.056,0.068,99.98,5.0,,0.0,0.0,
2025-08-14T22:26:09.536Z,6,GR86-047-21,1.7000000000000002,0.094,0.07,99.97,5.0,,0.0,0.0,
2025-08-14T22:26:09.579Z,6,GR86-047-21,1.7000000000000002,0.081,0.098,100.0,5.0,,0.0,0.0,
2025-08-14T22:26:09.623Z,6,GR86-047-21,1.7000000000000002,0.085,0.072,99.97,5.0,6591.0,0.0,0.0,
2025-08-14T22:26:09.666Z,6,GR86-047-21,1.7000000000000002,0.081,0.046,99.98,5.0,,0.0,0.0,192.66
2025-08-14T22:26:09.709Z,6,GR86-047-21,1.7000000000000002,0.052,0.056,100.01,5.0,,0.0,0.0,
2025-08-14T22:26:09.753Z,6,GR86-047-21,1.7000000000000002,0.067,0.057,99.99,5.0,,0.0,0.0,
2025-08-14T22:26:09.798Z,6,GR86-047-21,1.6,0.076,0.071,99.98,5.0,,0.0,0.0,
2025-08-14T22:26:09.840Z,6,GR86-047-21,1.5,0.062,0.079,99.99,5.0,6624.0,0.0,0.0,
2025-08-14T22:26:09.883Z,6,GR86-047-21,1.5,0.065,0.049,99.98,5.0,,0.0,0.0,193.38
2025-08-14T22:26:09.926Z,6,GR86-047-21,1.5,0.062,0.05,99.96,5.0,,0.0,0.0,
2025-08-14T22:26:09.969Z,6,GR86-047-21,1.5,0.062,0.046,99.99,5.0,,0.0,0.0,
2025-08-14T22:26:10.012Z,6,GR86-047-21,1.5,0.083,0.062,100.0,5.0,,0.0,0.0,
2025-08-14T22:26:10.057Z,6,GR86-047-21,1.5,0.073,0.048,99.97,5.0,6633.0,0.0,0.0,
2025-08-14T22:26:10.099Z,6,GR86-047-21,1.5,0.067,0.032,99.97,5.0,,0.0,0.0,194.58
2025-08-14T22:26:10.143Z,6,GR86-047-21,1.5,0.066,0.035,100.0,5.0,,0.0,0.0,
2025-08-14T22:26:10.187Z,6,GR86-047-21,1.4,0.078,0.053,99.98,5.0,,0.0,0.0,
2025-08-14T22:26:10.229Z,6,GR86-047-21,1.2000000000000002,0.066,0.04,99.99,5.0,,0.0,0.0,
2025-08-14T22:26:10.273Z,6,GR86-047-21,0.7000000000000001,0.087,0.02,99.99,5.0,6663.0,0.0,0.0,
2025-08-14T22:26:10.316Z,6,GR86-047-21,0.1,0.069,-0.005,100.01,5.0,,0.0,0.0,195.16
2025-08-14T22:26:10.359Z,6,GR86-047-21,-0.4,0.067,-0.024,100.01,5.0,,0.0,0.0,
2025-08-14T22:26:10.402Z,6,GR86-047-21,-0.9,0.042,-0.008,100.01,5.0,,0.0,0.0,
2025-08-14T22:26:10.447Z,6,GR86-047-21,-1.4,0.072,-0.039,99.97,5.0,,0.0,0.0,
2025-08-14T22:26:10.489Z,6,GR86-047-21,-1.4,0.082,-0.067,100.02,5.0,6704.0,0.0,0.0,
2025-08-14T22:26:10.532Z,6,GR86-047-21,-1.5,0.067,-0.06,100.02,5.0,,0.0,0.0,195.69
2025-08-14T22:26:10.576Z,6,GR86-047-21,-1.9,0.06,-0.072,99.99,5.0,,0.0,0.0,
2025-08-14T22:26:10.619Z,6,GR86-047-21,-2.4000000000000004,0.046,-0.078,99.98,5.0,,0.0,0.0,
2025-08-14T22:26:10.661Z,6,GR86-047-21,-2.6,0.031,-0.097,100.0,5.0,,0.0,0.0,
2025-08-14T22:26:10.707Z,6,GR86-047-21,-2.7,0.068,-0.105,100.0,5.0,6708.0,0.0,0.0,
2025-08-14T22:26:10.749Z,6,GR86-047-21,-2.7,0.08,-0.101,99.99,5.0,,0.0,0.0,196.19
2025-08-14T22:26:10.793Z,6,GR86-047-21,-2.7,0.065,-0.105,99.98,5.0,,0.0,0.0,
2025-08-14T22:26:10.837Z,6,GR86-047-21,-2.7,0.061,-0.104,100.0,5.0,,0.0,0.0,
2025-08-14T22:26:10.879Z,6,GR86-047-21,-2.7,0.026,-0.102,100.01,5.0,,0.0,0.0,
2025-08-14T22:26:10.923Z,6,GR86-047-21,-2.7,0.03,-0.096,99.99,5.0,6721.0,0.0,0.0,
2025-08-14T22:26:10.966Z,6,GR86-047-21,-2.7,0.095,-0.079,100.0,5.0,,0.0,0.0,196.73
2025-08-14T22:26:11.009Z,6,GR86-047-21,-2.7,0.076,-0.085,100.0,5.0,,0.0,0.0,
2025-08-14T22:26:11.053Z,6,GR86-047-21,-3.0,0.05,-0.082,100.0,5.0,,0.0,0.0,
2025-08-14T22:26:11.098Z,6,GR86-047-21,-3.8,0.034,-0.095,100.01,5.0,,0.0,0.0,
2025-08-14T22:26:11.140Z,6,GR86-047-21,-4.2,0.035,-0.109,100.0,5.0,6746.0,0.0,0.0,
2025-08-14T22:26:11.184Z,6,GR86-047-21,-4.2,0.041,-0.111,99.99,5.0,,0.0,0.0,197.24
2025-08-14T22:26:11.229Z,6,GR86-047-21,-4.2,0.072,-0.12,99.99,5.0,,0.0,0.0,
2025-08-14T22:26:11.273Z,6,GR86-047-21,-4.2,0.055,-0.113,99.98,5.0,,0.0,0.0,
2025-08-14T22:26:11.316Z,6,GR86-047-21,-4.2,0.035,-0.123,100.0,5.0,,0.0,0.0,
2025-08-14T22:26:11.359Z,6,GR86-047-21,-4.2,0.028,-0.14,100.0,5.0,6759.0,0.0,0.0,
2025-08-14T22:26:11.402Z,6,GR86-047-21,-4.2,0.04,-0.168,99.98,5.0,,0.0,0.0,197.8
2025-08-14T22:26:11.447Z,6,GR86-047-21,-4.2,0.04,-0.187,100.0,5.0,,0.0,0.0,
2025-08-14T22:26:11.489Z,6,GR86-047-21,-5.1000000000000005,0.058,-0.156,100.0,5.0,,0.0,0.0,
2025-08-14T22:26:11.532Z,6,GR86-047-21,-6.300000000000001,0.03,-0.157,100.0,5.0,,0.0,0.0,
2025-08-14T22:26:11.576Z,6,GR86-047-21,-6.6000000000000005,0.04,-0.171,100.0,5.0,6772.0,0.0,0.0,
2025-08-14T22:26:11.619Z,6,GR86-047-21,-6.6000000000000005,0.028,-0.208,100.0,5.0,,0.0,0.0,198.17
2025-08-14T22:26:11.661Z,6,GR86-047-21,-6.6000000000000005,0.052,-0.211,100.0,5.0,,0.0,0.0,
2025-08-14T22:26:11.707Z,6,GR86-047-21,-6.6000000000000005,0.049,-0.192,99.99,5.0,,0.0,0.0,
2025-08-14T22:26:11.749Z,6,GR86-047-21,-6.6000000000000005,0.036,-0.198,100.0,5.0,,0.0,0.0,
2025-08-14T22:26:11.793Z,6,GR86-047-21,-6.4,0.052,-0.195,99.99,5.0,6795.0,0.0,0.0,
2025-08-14T22:26:11.837Z,6,GR86-047-21,-5.7,0.025,-0.212,99.99,5.0,,0.0,0.0,198.5
2025-08-14T22:26:11.879Z,6,GR86-047-21,-4.3,0.033,-0.218,99.99,5.0,,0.0,0.0,
2025-08-14T22:26:11.923Z,6,GR86-047-21,-2.3000000000000003,0.075,-0.162,100.0,5.0,,0.0,0.0,
2025-08-14T22:26:11.966Z,6,GR86-047-21,-1.8,0.027,-0.119,100.0,5.0,,0.0,0.0,
2025-08-14T22:26:12.009Z,6,GR86-047-21,-1.8,0.029,-0.077,100.01,5.0,6813.0,0.0,0.0,
2025-08-14T22:26:12.053Z,6,GR86-047-21,-2.5,0.04,-0.081,100.0,5.0,,0.0,0.0,198.86
2025-08-14T22:26:12.098Z,6,GR86-047-21,-3.3000000000000003,0.057,-0.065,100.0,5.0,,0.0,0.0,
2025-08-14T22:26:12.140Z,6,GR86-047-21,-3.8,0.075,-0.049,99.98,5.0,,0.0,0.0,
2025-08-14T22:26:12.183Z,6,GR86-047-21,-4.2,0.068,-0.048,99.97,5.0,,0.0,0.0,
2025-08-14T22:26:12.226Z,6,GR86-047-21,-4.6000000000000005,0.056,-0.076,100.01,5.0,6835.0,0.0,0.0,
2025-08-14T22:26:12.269Z,6,GR86-047-21,-4.6000000000000005,0.049,-0.099,99.99,5.0,,0.0,0.0,199.42
2025-08-14T22:26:12.312Z,6,GR86-047-21,-4.6000000000000005,0.041,-0.114,99.98,5.0,,0.0,0.0,
2025-08-14T22:26:12.357Z,6,GR86-047-21,-4.6000000000000005,0.069,-0.122,100.0,5.0,,0.0,0.0,
2025-08-14T22:26:12.399Z,6,GR86-047-21,-4.6000000000000005,0.057,-0.146,100.01,5.0,,0.0,0.0,
2025-08-14T22:26:12.443Z,6,GR86-047-21,-4.6000000000000005,0.058,-0.154,92.73,5.0,6831.0,0.0,0.0,
2025-08-14T22:26:12.487Z,6,GR86-047-21,-4.6000000000000005,0.065,-0.135,55.53,5.0,,0.0,0.0,200.35
2025-08-14T22:26:12.529Z,6,GR86-047-21,-4.6000000000000005,0.037,-0.128,43.75,5.0,,0.0,0.0,
2025-08-14T22:26:12.573Z,6,GR86-047-21,-4.6000000000000005,0.046,-0.11,42.3,5.0,,0.0,0.0,
2025-08-14T22:26:12.616Z,6,GR86-047-21,-4.6000000000000005,0.011,-0.143,41.99,5.0,,0.0,0.0,
2025-08-14T22:26:12.659Z,6,GR86-047-21,-4.1000000000000005,0.004,-0.137,37.7,5.0,6852.0,0.0,0.0,
2025-08-14T22:26:12.702Z,6,GR86-047-21,-3.9,0.018,-0.137,32.89,5.0,,0.0,0.0,200.67
2025-08-14T22:26:12.746Z,6,GR86-047-21,-3.9,-0.005,-0.118,14.4,5.0,,0.0,0.0,
2025-08-14T22:26:12.789Z,6,GR86-047-21,-3.9,-0.041,-0.098,3.89,5.0,,0.0,0.0,
2025-08-14T22:26:12.833Z,6,GR86-047-21,-3.9,-0.084,-0.049,3.71,5.0,,0.0,0.0,
2025-08-14T22:26:12.876Z,6,GR86-047-21,-3.9,-0.149,-0.016,3.58,5.0,6845.0,0.0,0.0,
2025-08-14T22:26:12.919Z,6,GR86-047-21,-3.9,-0.257,-0.016,3.39,5.0,,1.925,2.075,201.08
2025-08-14T22:26:12.961Z,6,GR86-047-21,-3.4000000000000004,-0.301,-0.045,3.14,5.0,,2.975,3.19,
2025-08-14T22:26:13.007Z,6,GR86-047-21,-3.4000000000000004,-0.221,0.008,2.78,5.0,,5.37,5.585,
2025-08-14T22:26:13.049Z,6,GR86-047-21,-3.4000000000000004,-0.308,-0.013,2.65,5.0,,7.92,8.15,
2025-08-14T22:26:13.093Z,6,GR86-047-21,-3.4000000000000004,-0.363,0.027,2.59,5.0,6650.0,11.84,11.87,
2025-08-14T22:26:13.136Z,6,GR86-047-21,-3.4000000000000004,-0.468,0.033,2.52,5.0,,16.59,16.555,200.29
2025-08-14T22:26:13.179Z,6,GR86-047-21,-3.4000000000000004,-0.554,0.02,2.5,5.0,,20.205,20.08,
2025-08-14T22:26:13.223Z,6,GR86-047-21,-3.3000000000000003,-0.586,0.044,2.5,5.0,,21.15,21.18,
2025-08-14T22:26:13.266Z,6,GR86-047-21,-3.1,-0.59,0.004,2.49,5.0,,22.77,22.675,
2025-08-14T22:26:13.309Z,6,GR86-047-21,-3.1,-0.636,0.017,2.49,5.0,6503.0,24.05,24.08,
2025-08-14T22:26:13.353Z,6,GR86-047-21,-3.1,-0.638,0.004,2.47,5.0,,24.17,24.4,196.3
2025-08-14T22:26:13.398Z,6,GR86-047-21,-3.1,-0.624,-0.007,2.49,5.0,,23.56,23.835,
2025-08-14T22:26:13.440Z,6,GR86-047-21,-3.1,-0.598,0.011,2.47,5.0,,22.675,23.27,
2025-08-14T22:26:13.483Z,6,GR86-047-21,-3.1,-0.614,-0.019,2.49,5.0,,21.595,22.465,
2025-08-14T22:26:13.526Z,6,GR86-047-21,-3.1,-0.622,-0.035,2.48,5.0,6349.0,19.7,20.905,
2025-08-14T22:26:13.569Z,6,GR86-047-21,-1.5,-0.553,-0.041,2.49,5.0,,18.465,19.58,191.54
2025-08-14T22:26:13.613Z,6,GR86-047-21,-1.0,-0.52,-0.003,2.48,5.0,,17.215,18.265,
2025-08-14T22:26:13.657Z,6,GR86-047-21,-1.0,-0.518,-0.013,2.47,5.0,,16.25,17.455000000000002,
2025-08-14T22:26:13.699Z,6,GR86-047-21,-1.0,-0.53,-0.025,2.49,5.0,,16.28,17.09,
2025-08-14T22:26:13.743Z,6,GR86-047-21,-0.9,-0.524,-0.031,2.49,5.0,6216.0,16.465,17.185,
2025-08-14T22:26:13.787Z,6,GR86-047-21,-1.0,-0.494,0.022,2.49,5.0,,16.25,17.09,187.37
2025-08-14T22:26:13.829Z,6,GR86-047-21,-0.9,-0.484,0.02,2.49,5.0,,16.315,17.12,
2025-08-14T22:26:13.873Z,6,GR86-047-21,-0.7000000000000001,-0.508,0.031,2.49,5.0,,16.59,17.12,
2025-08-14T22:26:13.916Z,6,GR86-047-21,-0.7000000000000001,-0.514,0.051,2.49,5.0,,16.59,17.455000000000002,
2025-08-14T22:26:13.959Z,6,GR86-047-21,-0.7000000000000001,-0.518,0.032,2.49,5.0,6120.0,17.12,17.81,
2025-08-14T22:26:14.002Z,6,GR86-047-21,-0.7000000000000001,-0.501,0.048,2.49,5.0,,18.115,18.205,184.18
2025-08-14T22:26:14.047Z,6,GR86-047-21,-0.7000000000000001,-0.586,0.054,2.49,5.0,,22.34,22.095,
2025-08-14T22:26:14.089Z,6,GR86-047-21,-0.7000000000000001,-0.686,0.062,5.6000000000000005,5.0,,26.84,26.505,
2025-08-14T22:26:14.133Z,6,GR86-047-21,-0.7000000000000001,-0.75,0.045,47.32,5.0,,31.54,31.235,
2025-08-14T22:26:14.176Z,6,GR86-047-21,-0.7000000000000001,-0.809,0.052,92.85,5.0,5979.0,35.02,34.745,
2025-08-14T22:26:14.219Z,6,GR86-047-21,-0.7000000000000001,-0.835,0.063,100.09,5.0,,36.58,36.425,180.31
2025-08-14T22:26:14.261Z,6,GR86-047-21,-0.7000000000000001,-0.804,0.047,77.76,4.0,,36.515,36.67,
2025-08-14T22:26:14.307Z,6,GR86-047-21,-1.2000000000000002,-0.889,0.044,4.69,4.0,,33.525,34.455,
2025-08-14T22:26:14.349Z,6,GR86-047-21,-2.0,-0.684,0.05,3.23,4.0,,30.365,31.77,
2025-08-14T22:26:14.393Z,6,GR86-047-21,-2.1,-0.67,-0.062,2.79,4.0,6240.0,26.17,27.68,
2025-08-14T22:26:14.437Z,6,GR86-047-21,-2.1,-0.631,-0.005,2.65,4.0,,23.27,24.645,175.70000000000002
2025-08-14T22:26:14.479Z,6,GR86-047-21,-2.1,-0.6880000000000001,0.023,2.59,4.0,,22.935,24.08,
2025-08-14T22:26:14.523Z,6,GR86-047-21,-1.6,-0.682,-0.052,2.52,4.0,,22.905,24.02,
2025-08-14T22:26:14.566Z,6,GR86-047-21,0.4,-0.621,0.041,2.5,4.0,,24.05,24.615,
2025-08-14T22:26:14.609Z,6,GR86-047-21,0.4,-0.654,-0.038,2.49,4.0,6421.0,24.525,24.995,
2025-08-14T22:26:14.653Z,6,GR86-047-21,-0.9,-0.683,-0.02,2.46,4.0,,24.645,25.15,169.07
2025-08-14T22:26:14.698Z,6,GR86-047-21,-3.9,-0.685,-0.05,2.46,4.0,,24.995,25.33,
2025-08-14T22:26:14.740Z,6,GR86-047-21,-4.800000000000001,-0.6930000000000001,-0.09,2.46,4.0,,25.33,25.545,
2025-08-14T22:26:14.787Z,6,GR86-047-21,-4.800000000000001,-0.681,-0.088,2.47,4.0,,26.965,26.995,
2025-08-14T22:26:14.829Z,6,GR86-047-21,-4.800000000000001,-0.747,-0.083,2.46,4.0,6331.0,29.835,29.5,
2025-08-14T22:26:14.873Z,6,GR86-047-21,-4.5,-0.796,-0.069,2.46,4.0,,31.575,31.33,165.57
2025-08-14T22:26:14.916Z,6,GR86-047-21,-3.7,-0.835,-0.088,2.47,4.0,,31.955,31.895,
2025-08-14T22:26:14.958Z,6,GR86-047-21,-2.4000000000000004,-0.766,-0.083,2.47,4.0,,32.2,32.2,
2025-08-14T22:26:15.002Z,6,GR86-047-21,-2.0,-0.754,-0.078,2.46,4.0,,32.275,32.410000000000004,
2025-08-14T22:26:15.047Z,6,GR86-047-21,-2.3000000000000003,-0.795,-0.091,2.49,4.0,6125.0,32.38,32.445,
2025-08-14T22:26:15.089Z,6,GR86-047-21,-3.6,-0.785,-0.101,4.25,4.0,,33.025,33.19,155.81
2025-08-14T22:26:15.133Z,6,GR86-047-21,-3.9,-0.777,-0.131,44.85,4.0,,33.375,33.375,
2025-08-14T22:26:15.176Z,6,GR86-047-21,-3.9,-0.8180000000000001,-0.141,90.65,4.0,,34.12,34.0,
2025-08-14T22:26:15.219Z,6,GR86-047-21,-3.9,-0.876,-0.14,100.0,4.0,,36.06,35.800000000000004,
2025-08-14T22:26:15.263Z,6,GR86-047-21,-3.4000000000000004,-0.849,-0.156,97.72,3.0,5923.0,37.205,37.02,
2025-08-14T22:26:15.307Z,6,GR86-047-21,-3.4000000000000004,-0.872,-0.148,6.57,3.0,,37.555,37.525,150.1
2025-08-14T22:26:15.349Z,6,GR86-047-21,-3.8,-1.03,-0.096,3.43,3.0,,37.86,37.74,
2025-08-14T22:26:15.393Z,6,GR86-047-21,-3.9,-0.75,-0.189,2.75,3.0,,38.9,40.025,
2025-08-14T22:26:15.437Z,6,GR86-047-21,-3.9,-0.8320000000000001,-0.153,2.58,3.0,,37.585,38.015,
2025-08-14T22:26:15.479Z,6,GR86-047-21,-3.9,-0.885,-0.159,2.52,3.0,6108.0,37.235,37.265,
2025-08-14T22:26:15.523Z,6,GR86-047-21,-5.6000000000000005,-0.776,-0.221,2.5,3.0,,34.685,35.495,143.47
2025-08-14T22:26:15.566Z,6,GR86-047-21,-10.2,-0.86,-0.213,2.47,3.0,,30.55,32.015,
2025-08-14T22:26:15.653Z,6,GR86-047-21,-13.3,-0.768,-0.263,2.46,3.0,,29.65,31.085,
2025-08-14T22:26:15.698Z,6,GR86-047-21,-14.5,-0.746,-0.269,2.44,3.0,6303.0,28.52,30.11,
2025-08-14T22:26:15.783Z,6,GR86-047-21,-17.6,-0.751,-0.36,2.47,3.0,,28.55,29.77,139.28
2025-08-14T22:26:15.826Z,6,GR86-047-21,-19.9,-0.747,-0.369,2.46,3.0,,28.84,29.805,
2025-08-14T22:26:15.869Z,6,GR86-047-21,-21.1,-0.664,-0.363,2.46,3.0,,29.115,30.075,
2025-08-14T22:26:15.913Z,6,GR86-047-21,-21.5,-0.727,-0.422,2.46,3.0,6081.0,30.11,30.64,
2025-08-14T22:26:15.957Z,6,GR86-047-21,-21.5,-0.729,-0.466,2.46,3.0,,29.62,30.43,135.5
2025-08-14T22:26:15.999Z,6,GR86-047-21,-21.5,-0.662,-0.48,2.46,3.0,,28.49,29.65,
2025-08-14T22:26:16.042Z,6,GR86-047-21,-19.8,-0.653,-0.413,2.46,3.0,,28.84,29.56,
2025-08-14T22:26:16.087Z,6,GR86-047-21,-19.5,-0.61,-0.513,2.46,3.0,,25.665,27.18,
2025-08-14T22:26:16.129Z,6,GR86-047-21,-19.5,-0.597,-0.519,2.47,3.0,5824.0,20.05,21.27,
2025-08-14T22:26:16.173Z,6,GR86-047-21,-19.6,-0.608,-0.587,2.46,3.0,,18.615,19.73,131.28
2025-08-14T22:26:16.216Z,6,GR86-047-21,-20.1,-0.589,-0.5680000000000001,2.47,3.0,,18.71,19.55,
2025-08-14T22:26:16.259Z,6,GR86-047-21,-25.6,-0.592,-0.5700000000000001,2.46,3.0,,19.12,19.7,
2025-08-14T22:26:16.302Z,6,GR86-047-21,-31.1,-0.596,-0.606,2.46,3.0,,20.02,20.51,
2025-08-14T22:26:16.345Z,6,GR86-047-21,-35.6,-0.6,-0.686,2.46,3.0,5752.0,20.695,21.12,
2025-08-14T22:26:16.389Z,6,GR86-047-21,-35.9,-0.5650000000000001,-0.721,2.46,3.0,,21.625,21.835,127.72
2025-08-14T22:26:16.432Z,6,GR86-047-21,-36.1,-0.606,-0.658,2.46,3.0,,23.025,23.06,
2025-08-14T22:26:16.476Z,6,GR86-047-21,-36.1,-0.643,-0.657,2.46,3.0,,24.02,24.11,
2025-08-14T22:26:16.519Z,6,GR86-047-21,-36.1,-0.659,-0.715,2.46,3.0,,25.33,25.36,
2025-08-14T22:26:16.561Z,6,GR86-047-21,-36.1,-0.673,-0.753,2.46,3.0,5493.0,26.02,25.99,
2025-08-14T22:26:16.649Z,6,GR86-047-21,-36.1,-0.672,-0.804,2.46,3.0,,27.085,27.255,124.68
2025-08-14T22:26:16.736Z,6,GR86-047-21,-33.4,-0.627,-0.878,2.46,3.0,,27.085,27.085,
2025-08-14T22:26:16.823Z,6,GR86-047-21,-23.0,-0.6,-0.743,2.47,3.0,5248.0,25.865,26.325,120.46
2025-08-14T22:26:16.866Z,6,GR86-047-21,-19.9,-0.621,-0.812,2.49,3.0,,26.4,26.63,
2025-08-14T22:26:16.909Z,6,GR86-047-21,-16.5,-0.603,-0.869,2.46,3.0,,25.15,25.865,
2025-08-14T22:26:16.953Z,6,GR86-047-21,-12.5,-0.578,-0.845,2.49,3.0,,24.235,25.24,
2025-08-14T22:26:17.041Z,6,GR86-047-21,-11.9,-0.638,-0.789,2.49,3.0,5009.0,21.56,22.645,116.11
2025-08-14T22:26:17.087Z,6,GR86-047-21,-23.9,-0.32,-0.933,2.48,3.0,,3.815,4.44,
2025-08-14T22:26:17.129Z,6,GR86-047-21,-32.800000000000004,-0.212,-0.948,2.49,3.0,,0.0,0.0,
2025-08-14T22:26:17.173Z,6,GR86-047-21,-41.7,-0.207,-0.976,2.48,3.0,,0.0,0.0,
2025-08-14T22:26:17.216Z,6,GR86-047-21,-49.3,-0.199,-1.007,2.49,3.0,4857.0,0.0,0.0,
2025-08-14T22:26:17.259Z,6,GR86-047-21,-56.0,-0.19,-0.984,2.49,3.0,,0.0,0.0,111.4
2025-08-14T22:26:17.302Z,6,GR86-047-21,-60.1,-0.173,-1.058,2.49,3.0,,0.0,0.0,
2025-08-14T22:26:17.347Z,6,GR86-047-21,-61.3,-0.181,-1.025,5.08,3.0,,0.0,0.0,
2025-08-14T22:26:17.389Z,6,GR86-047-21,-61.3,-0.183,-0.977,19.15,3.0,,0.0,0.0,
2025-08-14T22:26:17.433Z,6,GR86-047-21,-61.5,-0.188,-1.031,20.31,3.0,4934.0,0.0,0.0,
2025-08-14T22:26:17.476Z,6,GR86-047-21,-63.2,-0.156,-0.996,5.18,3.0,,0.0,0.0,110.28
2025-08-14T22:26:17.519Z,6,GR86-047-21,-65.8,-0.138,-0.996,3.4,3.0,,0.0,0.0,
2025-08-14T22:26:17.561Z,6,GR86-047-21,-67.4,-0.118,-1.002,3.36,3.0,,0.0,0.0,
2025-08-14T22:26:17.607Z,6,GR86-047-21,-68.9,-0.125,-0.971,3.23,3.0,,0.0,0.0,
2025-08-14T22:26:17.649Z,6,GR86-047-21,-69.9,-0.203,-0.977,6.43,3.0,4902.0,0.0,0.0,
2025-08-14T22:26:17.737Z,6,GR86-047-21,-74.2,-0.196,-0.988,33.52,3.0,,0.0,0.0,107.36
2025-08-14T22:26:17.779Z,6,GR86-047-21,-76.0,-0.138,-1.028,28.62,3.0,,0.0,0.0,
2025-08-14T22:26:17.823Z,6,GR86-047-21,-76.60000000000001,-0.13,-0.976,33.83,3.0,,0.0,0.0,
2025-08-14T22:26:17.866Z,6,GR86-047-21,-76.7,0.184,-0.933,34.730000000000004,3.0,4771.0,0.0,0.0,
2025-08-14T22:26:17.909Z,6,GR86-047-21,-76.7,0.115,-0.984,35.12,3.0,,0.0,0.0,106.19
2025-08-14T22:26:17.951Z,6,GR86-047-21,-76.7,0.12,-0.965,30.79,3.0,,0.0,0.0,
2025-08-14T22:26:17.995Z,6,GR86-047-21,-76.7,0.092,-0.964,27.44,3.0,,0.0,0.0,
2025-08-14T22:26:18.040Z,6,GR86-047-21,-76.7,0.082,-1.018,27.6,3.0,,0.0,0.0,
2025-08-14T22:26:18.083Z,6,GR86-047-21,-76.7,0.03,-1.015,27.67,3.0,5190.0,0.0,0.0,
2025-08-14T22:26:18.129Z,6,GR86-047-21,-76.7,-0.016,-1.081,40.31,3.0,,0.0,0.0,105.74
2025-08-14T22:26:18.173Z,6,GR86-047-21,-76.7,0.056,-0.857,53.26,3.0,,0.0,0.0,
2025-08-14T22:26:18.216Z,6,GR86-047-21,-76.7,0.096,-0.99,45.41,3.0,,0.0,0.0,
2025-08-14T22:26:18.259Z,6,GR86-047-21,-76.7,0.055,-0.97,36.05,3.0,,0.0,0.0,
2025-08-14T22:26:18.302Z,6,GR86-047-21,-73.8,0.143,-0.97,50.51,3.0,5110.0,0.0,0.0,
2025-08-14T22:26:18.347Z,6,GR86-047-21,-70.3,0.157,-0.962,58.04,3.0,,0.0,0.0,106.04
2025-08-14T22:26:18.389Z,6,GR86-047-21,-70.2,0.122,-0.951,64.19,3.0,,0.0,0.0,
2025-08-14T22:26:18.433Z,6,GR86-047-21,-70.2,0.134,-0.927,76.52,3.0,,0.0,0.0,
2025-08-14T22:26:18.476Z,6,GR86-047-21,-70.2,0.113,-0.963,56.61,3.0,,0.0,0.0,
2025-08-14T22:26:18.519Z,6,GR86-047-21,-70.2,0.156,-0.96,59.16,3.0,5124.0,0.0,0.0,
2025-08-14T22:26:18.563Z,6,GR86-047-21,-70.2,0.129,-1.006,60.67,3.0,,0.0,0.0,106.53
2025-08-14T22:26:18.607Z,6,GR86-047-21,-70.2,0.141,-0.962,56.54,3.0,,0.0,0.0,
2025-08-14T22:26:18.649Z,6,GR86-047-21,-70.2,0.157,-0.988,77.97,3.0,,0.0,0.0,
2025-08-14T22:26:18.693Z,6,GR86-047-21,-70.2,0.13,-0.959,99.33,3.0,,0.0,0.0,
2025-08-14T22:26:18.736Z,6,GR86-047-21,-70.2,0.13,-0.959,99.96,3.0,5157.0,0.0,0.0,
2025-08-14T22:26:18.779Z,6,GR86-047-21,-70.2,0.154,-0.975,100.01,3.0,,0.0,0.0,107.22
2025-08-14T22:26:18.823Z,6,GR86-047-21,-70.2,0.146,-0.961,100.02,3.0,,0.0,0.0,
2025-08-14T22:26:18.866Z,6,GR86-047-21,-69.60000000000001,0.162,-0.953,99.99,3.0,,0.0,0.0,
2025-08-14T22:26:18.909Z,6,GR86-047-21,-67.8,0.151,-0.941,85.91,3.0,,0.0,0.0,
2025-08-14T22:26:18.953Z,6,GR86-047-21,-66.3,0.14,-0.913,95.82,3.0,5198.0,0.0,0.0,
2025-08-14T22:26:18.998Z,6,GR86-047-21,-65.8,0.154,-0.88,97.97,3.0,,0.0,0.0,107.93
2025-08-14T22:26:19.041Z,6,GR86-047-21,-65.8,0.141,-0.926,100.04,3.0,,0.0,0.0,
2025-08-14T22:26:19.087Z,6,GR86-047-21,-65.8,0.135,-0.94,100.0,3.0,,0.0,0.0,
2025-08-14T22:26:19.173Z,6,GR86-047-21,-62.3,0.138,-0.947,100.0,3.0,5242.0,0.0,0.0,
2025-08-14T22:26:19.216Z,6,GR86-047-21,-62.0,0.162,-0.92,100.0,3.0,,0.0,0.0,108.69
2025-08-14T22:26:19.259Z,6,GR86-047-21,-62.0,0.167,-0.897,100.02,3.0,,0.0,0.0,
2025-08-14T22:26:19.346Z,6,GR86-047-21,-66.0,0.128,-0.89,100.02,3.0,,0.0,0.0,
2025-08-14T22:26:19.389Z,6,GR86-047-21,-69.9,0.162,-0.921,99.98,3.0,5264.0,0.0,0.0,
2025-08-14T22:26:19.432Z,6,GR86-047-21,-69.9,0.132,-0.923,99.99,3.0,,0.0,0.0,109.76
2025-08-14T22:26:19.476Z,6,GR86-047-21,-67.5,0.143,-0.89,99.99,3.0,,0.0,0.0,
2025-08-14T22:26:19.519Z,6,GR86-047-21,-63.0,0.149,-0.913,99.99,3.0,,0.0,0.0,
2025-08-14T22:26:19.563Z,6,GR86-047-21,-56.8,0.141,-0.952,99.99,3.0,,0.0,0.0,
2025-08-14T22:26:19.607Z,6,GR86-047-21,-47.2,0.157,-0.942,99.99,3.0,5318.0,0.0,0.0,
2025-08-14T22:26:19.649Z,6,GR86-047-21,-43.8,0.17,-0.968,100.0,3.0,,0.0,0.0,110.5
2025-08-14T22:26:19.693Z,6,GR86-047-21,-43.6,0.15,-0.944,100.03,3.0,,0.0,0.0,
2025-08-14T22:26:19.736Z,6,GR86-047-21,-43.7,0.155,-0.96,100.01,3.0,,0.0,0.0,
2025-08-14T22:26:19.779Z,6,GR86-047-21,-43.900000000000006,0.161,-0.939,99.98,3.0,,0.0,0.0,
2025-08-14T22:26:19.823Z,6,GR86-047-21,-43.900000000000006,0.164,-0.921,99.99,3.0,5364.0,0.0,0.0,
2025-08-14T22:26:19.866Z,6,GR86-047-21,-43.900000000000006,0.157,-0.926,99.99,3.0,,0.0,0.0,111.62
2025-08-14T22:26:19.909Z,6,GR86-047-21,-43.8,0.169,-0.959,99.99,3.0,,0.0,0.0,
2025-08-14T22:26:19.953Z,6,GR86-047-21,-41.5,0.172,-0.897,99.99,3.0,,0.0,0.0,
2025-08-14T22:26:19.999Z,6,GR86-047-21,-39.6,0.168,-0.895,100.0,3.0,,0.0,0.0,
2025-08-14T22:26:20.041Z,6,GR86-047-21,-38.0,0.169,-0.909,99.99,3.0,5405.0,0.0,0.0,
2025-08-14T22:26:20.087Z,6,GR86-047-21,-35.800000000000004,0.17,-0.919,99.99,3.0,,0.0,0.0,113.45
2025-08-14T22:26:20.129Z,6,GR86-047-21,-34.9,0.187,-0.871,99.99,3.0,,0.0,0.0,
2025-08-14T22:26:20.173Z,6,GR86-047-21,-34.300000000000004,0.189,-0.885,100.01,3.0,,0.0,0.0,
2025-08-14T22:26:20.216Z,6,GR86-047-21,-33.0,0.192,-0.794,100.0,3.0,,0.0,0.0,
2025-08-14T22:26:20.259Z,6,GR86-047-21,-31.200000000000003,0.164,-0.791,99.99,3.0,5440.0,0.0,0.0,
2025-08-14T22:26:20.302Z,6,GR86-047-21,-28.9,0.171,-0.808,99.99,3.0,,0.0,0.0,113.34
2025-08-14T22:26:20.347Z,6,GR86-047-21,-27.200000000000003,0.196,-0.747,100.04,3.0,,0.0,0.0,
2025-08-14T22:26:20.389Z,6,GR86-047-21,-27.200000000000003,0.205,-0.722,100.02,3.0,,0.0,0.0,
2025-08-14T22:26:20.432Z,6,GR86-047-21,-27.5,0.175,-0.711,100.02,3.0,,0.0,0.0,
2025-08-14T22:26:20.476Z,6,GR86-047-21,-27.700000000000003,0.173,-0.6920000000000001,100.0,3.0,5460.0,0.0,0.0,
2025-08-14T22:26:20.519Z,6,GR86-047-21,-27.700000000000003,0.191,-0.677,100.01,3.0,,0.0,0.0,114.51
2025-08-14T22:26:20.561Z,6,GR86-047-21,-27.8,0.176,-0.65,100.01,3.0,,0.0,0.0,
2025-08-14T22:26:20.607Z,6,GR86-047-21,-24.0,0.179,-0.599,99.99,3.0,,0.0,0.0,
2025-08-14T22:26:20.649Z,6,GR86-047-21,-21.1,0.19,-0.541,100.01,3.0,,0.0,0.0,
2025-08-14T22:26:20.693Z,6,GR86-047-21,-18.7,0.189,-0.52,100.01,3.0,5522.0,0.0,0.0,
2025-08-14T22:26:20.737Z,6,GR86-047-21,-18.0,0.185,-0.472,100.01,3.0,,0.0,0.0,115.81
2025-08-14T22:26:20.779Z,6,GR86-047-21,-18.0,0.203,-0.436,100.03,3.0,,0.0,0.0,
2025-08-14T22:26:20.823Z,6,GR86-047-21,-18.7,0.198,-0.442,100.01,3.0,,0.0,0.0,
2025-08-14T22:26:20.866Z,6,GR86-047-21,-25.200000000000003,0.183,-0.448,100.0,3.0,,0.0,0.0,
2025-08-14T22:26:20.909Z,6,GR86-047-21,-27.9,0.166,-0.436,100.03,3.0,5569.0,0.0,0.0,
2025-08-14T22:26:20.953Z,6,GR86-047-21,-28.4,0.188,-0.446,100.0,3.0,,0.0,0.0,117.21
2025-08-14T22:26:20.998Z,6,GR86-047-21,-28.3,0.187,-0.449,100.01,3.0,,0.0,0.0,
2025-08-14T22:26:21.040Z,6,GR86-047-21,-23.8,0.182,-0.419,100.03,3.0,,0.0,0.0,
2025-08-14T22:26:21.083Z,6,GR86-047-21,-19.0,0.18,-0.416,100.02,3.0,,0.0,0.0,
2025-08-14T22:26:21.129Z,6,GR86-047-21,-15.8,0.185,-0.397,100.01,3.0,5638.0,0.0,0.0,
2025-08-14T22:26:21.216Z,6,GR86-047-21,-15.8,0.184,-0.384,100.0,3.0,,0.0,0.0,118.52
2025-08-14T22:26:21.259Z,6,GR86-047-21,-16.400000000000002,0.187,-0.414,100.01,3.0,,0.0,0.0,
2025-08-14T22:26:21.302Z,6,GR86-047-21,-18.3,0.197,-0.412,100.01,3.0,,0.0,0.0,
2025-08-14T22:26:21.347Z,6,GR86-047-21,-20.4,0.199,-0.412,99.98,3.0,5707.0,0.0,0.0,
2025-08-14T22:26:21.389Z,6,GR86-047-21,-20.700000000000003,0.176,-0.408,100.01,3.0,,0.0,0.0,119.81
2025-08-14T22:26:21.432Z,6,GR86-047-21,-21.6,0.168,-0.423,100.02,3.0,,0.0,0.0,
2025-08-14T22:26:21.476Z,6,GR86-047-21,-22.6,0.196,-0.442,100.0,3.0,,0.0,0.0,
2025-08-14T22:26:21.519Z,6,GR86-047-21,-24.0,0.191,-0.41,100.0,3.0,,0.0,0.0,
2025-08-14T22:26:21.563Z,6,GR86-047-21,-24.9,0.17,-0.431,100.0,3.0,5778.0,0.0,0.0,
2025-08-14T22:26:21.607Z,6,GR86-047-21,-24.9,0.162,-0.455,99.99,3.0,,0.0,0.0,121.16
2025-08-14T22:26:21.649Z,6,GR86-047-21,-21.700000000000003,0.187,-0.477,100.0,3.0,,0.0,0.0,
2025-08-14T22:26:21.693Z,6,GR86-047-21,-15.8,0.2,-0.426,100.01,3.0,,0.0,0.0,
2025-08-14T22:26:21.737Z,6,GR86-047-21,-10.9,0.175,-0.409,100.0,3.0,,0.0,0.0,
2025-08-14T22:26:21.779Z,6,GR86-047-21,-9.2,0.195,-0.401,99.99,3.0,5849.0,0.0,0.0,
2025-08-14T22:26:21.823Z,6,GR86-047-21,-7.800000000000001,0.208,-0.343,100.0,3.0,,0.0,0.0,122.43
2025-08-14T22:26:21.866Z,6,GR86-047-21,-5.7,0.206,-0.279,99.99,3.0,,0.0,0.0,
2025-08-14T22:26:21.909Z,6,GR86-047-21,-5.0,0.174,-0.274,99.99,3.0,,0.0,0.0,
2025-08-14T22:26:21.953Z,6,GR86-047-21,-4.3,0.184,-0.226,99.99,3.0,,0.0,0.0,
2025-08-14T22:26:21.999Z,6,GR86-047-21,-4.1000000000000005,0.22,-0.178,99.99,3.0,5892.0,0.0,0.0,
2025-08-14T22:26:22.041Z,6,GR86-047-21,-4.1000000000000005,0.199,-0.148,100.0,3.0,,0.0,0.0,123.82
2025-08-14T22:26:22.087Z,6,GR86-047-21,-4.1000000000000005,0.189,-0.097,99.99,3.0,,0.0,0.0,
2025-08-14T22:26:22.129Z,6,GR86-047-21,-4.1000000000000005,0.16,-0.082,100.01,3.0,,0.0,0.0,
2025-08-14T22:26:22.173Z,6,GR86-047-21,-4.6000000000000005,0.201,-0.051,100.0,3.0,,0.0,0.0,
2025-08-14T22:26:22.216Z,6,GR86-047-21,-6.300000000000001,0.221,-0.056,100.01,3.0,5942.0,0.0,0.0,
2025-08-14T22:26:22.259Z,6,GR86-047-21,-7.6,0.178,-0.07,100.0,3.0,,0.0,0.0,125.28
2025-08-14T22:26:22.302Z,6,GR86-047-21,-8.0,0.176,-0.073,100.0,3.0,,0.0,0.0,
2025-08-14T22:26:22.346Z,6,GR86-047-21,-8.3,0.173,-0.088,100.02,3.0,,0.0,0.0,
2025-08-14T22:26:22.389Z,6,GR86-047-21,-8.8,0.212,-0.096,100.01,3.0,,0.0,0.0,
2025-08-14T22:26:22.431Z,6,GR86-047-21,-9.4,0.204,-0.122,100.03,3.0,6010.0,0.0,0.0,
2025-08-14T22:26:22.476Z,6,GR86-047-21,-9.4,0.162,-0.151,100.02,3.0,,0.0,0.0,126.75
2025-08-14T22:26:22.519Z,6,GR86-047-21,-9.4,0.181,-0.167,100.01,3.0,,0.0,0.0,
2025-08-14T22:26:22.563Z,6,GR86-047-21,-9.4,0.198,-0.164,100.01,3.0,,0.0,0.0,
2025-08-14T22:26:22.607Z,6,GR86-047-21,-7.800000000000001,0.225,-0.17,100.0,3.0,,0.0,0.0,
2025-08-14T22:26:22.649Z,6,GR86-047-21,-7.6,0.198,-0.173,100.0,3.0,6085.0,0.0,0.0,
2025-08-14T22:26:22.693Z,6,GR86-047-21,-7.6,0.152,-0.179,100.0,3.0,,0.0,0.0,129.66
2025-08-14T22:26:22.736Z,6,GR86-047-21,-8.0,0.186,-0.178,100.02,3.0,,0.0,0.0,
2025-08-14T22:26:22.779Z,6,GR86-047-21,-9.4,0.207,-0.192,99.99,3.0,,0.0,0.0,
2025-08-14T22:26:22.821Z,6,GR86-047-21,-9.5,0.184,-0.198,100.0,3.0,,0.0,0.0,
2025-08-14T22:26:22.866Z,6,GR86-047-21,-8.8,0.191,-0.192,99.99,3.0,6145.0,0.0,0.0,
2025-08-14T22:26:22.909Z,6,GR86-047-21,-5.0,0.163,-0.167,99.99,3.0,,0.0,0.0,131.14
2025-08-14T22:26:22.953Z,6,GR86-047-21,-2.4000000000000004,0.183,-0.132,100.03,3.0,,0.0,0.0,
2025-08-14T22:26:22.998Z,6,GR86-047-21,0.0,0.198,-0.122,100.02,3.0,,0.0,0.0,
2025-08-14T22:26:23.041Z,6,GR86-047-21,1.2000000000000002,0.177,-0.091,100.0,3.0,,0.0,0.0,
2025-08-14T22:26:23.087Z,6,GR86-047-21,1.3,0.202,-0.046,100.0,3.0,6304.0,0.0,0.0,
2025-08-14T22:26:23.129Z,6,GR86-047-21,1.3,0.179,-0.021,100.0,3.0,,0.0,0.0,132.58
2025-08-14T22:26:23.173Z,6,GR86-047-21,1.3,0.171,0.0,100.02,3.0,,0.0,0.0,
2025-08-14T22:26:23.216Z,6,GR86-047-21,1.3,0.194,0.006,100.02,3.0,,0.0,0.0,
2025-08-14T22:26:23.258Z,6,GR86-047-21,1.3,0.179,0.03,100.0,3.0,,0.0,0.0,
2025-08-14T22:26:23.302Z,6,GR86-047-21,2.0,0.168,0.073,99.99,3.0,6375.0,0.0,0.0,
2025-08-14T22:26:23.347Z,6,GR86-047-21,4.9,0.193,0.114,100.0,3.0,,0.0,0.0,134.18
2025-08-14T22:26:23.389Z,6,GR86-047-21,7.2,0.17,0.154,100.0,3.0,,0.0,0.0,
2025-08-14T22:26:23.432Z,6,GR86-047-21,7.7,0.182,0.17,99.99,3.0,,0.0,0.0,
2025-08-14T22:26:23.476Z,6,GR86-047-21,7.7,0.192,0.188,100.01,3.0,,0.0,0.0,
2025-08-14T22:26:23.519Z,6,GR86-047-21,7.7,0.183,0.217,99.99,3.0,6439.0,0.0,0.0,
2025-08-14T22:26:23.561Z,6,GR86-047-21,7.5,0.184,0.24,99.98,3.0,,0.0,0.0,135.69
2025-08-14T22:26:23.607Z,6,GR86-047-21,6.5,0.175,0.242,99.97,3.0,,0.0,0.0,
2025-08-14T22:26:23.649Z,6,GR86-047-21,6.300000000000001,0.184,0.256,99.99,3.0,,0.0,0.0,
2025-08-14T22:26:23.693Z,6,GR86-047-21,5.7,0.201,0.229,100.0,3.0,,0.0,0.0,
2025-08-14T22:26:23.737Z,6,GR86-047-21,5.4,0.185,0.214,100.01,3.0,6514.0,0.0,0.0,
2025-08-14T22:26:23.779Z,6,GR86-047-21,5.300000000000001,0.171,0.225,99.99,3.0,,0.0,0.0,137.23
2025-08-14T22:26:23.823Z,6,GR86-047-21,5.300000000000001,0.174,0.24,100.0,3.0,,0.0,0.0,
2025-08-14T22:26:23.866Z,6,GR86-047-21,5.300000000000001,0.192,0.245,99.98,3.0,,0.0,0.0,
2025-08-14T22:26:23.909Z,6,GR86-047-21,5.9,0.197,0.25,100.01,3.0,,0.0,0.0,
2025-08-14T22:26:23.953Z,6,GR86-047-21,6.0,0.175,0.219,99.99,3.0,6599.0,0.0,0.0,
2025-08-14T22:26:23.998Z,6,GR86-047-21,6.0,0.163,0.214,100.01,3.0,,0.0,0.0,138.56
2025-08-14T22:26:24.040Z,6,GR86-047-21,6.0,0.17,0.237,100.0,3.0,,0.0,0.0,
2025-08-14T22:26:24.083Z,6,GR86-047-21,6.0,0.202,0.236,100.0,3.0,,0.0,0.0,
2025-08-14T22:26:24.129Z,6,GR86-047-21,5.5,0.205,0.229,99.97,3.0,,0.0,0.0,
2025-08-14T22:26:24.173Z,6,GR86-047-21,5.0,0.183,0.224,100.0,3.0,6689.0,0.0,0.0,
2025-08-14T22:26:24.216Z,6,GR86-047-21,4.1000000000000005,0.173,0.215,100.01,3.0,,0.0,0.0,140.0
2025-08-14T22:26:24.259Z,6,GR86-047-21,3.0,0.162,0.187,100.01,3.0,,0.0,0.0,
2025-08-14T22:26:24.302Z,6,GR86-047-21,1.7000000000000002,0.174,0.166,99.99,3.0,,0.0,0.0,
2025-08-14T22:26:24.347Z,6,GR86-047-21,0.1,0.156,0.141,100.02,3.0,,0.0,0.0,
2025-08-14T22:26:24.389Z,6,GR86-047-21,-0.8,0.177,0.127,100.01,3.0,6743.0,0.0,0.0,
2025-08-14T22:26:24.432Z,6,GR86-047-21,-1.5,0.209,0.125,100.03,3.0,,0.0,0.0,141.71
2025-08-14T22:26:24.476Z,6,GR86-047-21,-1.8,0.203,0.089,100.03,3.0,,0.0,0.0,
2025-08-14T22:26:24.519Z,6,GR86-047-21,-1.9,0.174,0.057,100.03,3.0,,0.0,0.0,
2025-08-14T22:26:24.563Z,6,GR86-047-21,-1.9,0.144,0.031,100.02,3.0,,0.0,0.0,
2025-08-14T22:26:24.607Z,6,GR86-047-21,-1.9,0.16,-0.005,100.03,3.0,6804.0,0.0,0.0,
2025-08-14T22:26:24.649Z,6,GR86-047-21,-1.9,0.132,-0.014,100.0,3.0,,0.0,0.0,143.46
2025-08-14T22:26:24.693Z,6,GR86-047-21,-1.9,0.156,-0.011,100.02,3.0,,0.0,0.0,
2025-08-14T22:26:24.737Z,6,GR86-047-21,-1.9,0.199,-0.009,100.0,3.0,,0.0,0.0,
2025-08-14T22:26:24.779Z,6,GR86-047-21,-1.9,0.215,-0.036,100.0,3.0,,0.0,0.0,
2025-08-14T22:26:24.823Z,6,GR86-047-21,-1.9,0.171,-0.062,100.02,3.0,6886.0,0.0,0.0,
2025-08-14T22:26:24.866Z,6,GR86-047-21,-1.9,0.194,-0.038,100.01,3.0,,0.0,0.0,145.22
2025-08-14T22:26:24.909Z,6,GR86-047-21,-1.9,0.182,-0.048,100.0,3.0,,0.0,0.0,
2025-08-14T22:26:24.953Z,6,GR86-047-21,-1.9,0.126,-0.028,100.03,3.0,,0.0,0.0,
2025-08-14T22:26:24.999Z,6,GR86-047-21,-1.9,0.128,-0.012,100.02,3.0,,0.0,0.0,
2025-08-14T22:26:25.041Z,6,GR86-047-21,-1.9,0.187,-0.011,99.99,3.0,6949.0,0.0,0.0,
2025-08-14T22:26:25.087Z,6,GR86-047-21,-1.6,0.149,0.011,99.99,3.0,,0.0,0.0,148.63
2025-08-14T22:26:25.129Z,6,GR86-047-21,-1.4,0.116,0.028,100.02,3.0,,0.0,0.0,
2025-08-14T22:26:25.173Z,6,GR86-047-21,-1.4,0.175,0.034,100.03,3.0,,0.0,0.0,
2025-08-14T22:26:25.216Z,6,GR86-047-21,-1.4,0.191,0.032,100.02,3.0,,0.0,0.0,
2025-08-14T22:26:25.259Z,6,GR86-047-21,-1.4,0.197,0.019,100.0,3.0,7035.0,0.0,0.0,
2025-08-14T22:26:25.302Z,6,GR86-047-21,-1.4,0.139,0.006,100.02,3.0,,0.0,0.0,150.29
2025-08-14T22:26:25.346Z,6,GR86-047-21,-1.4,0.175,0.015,100.0,3.0,,0.0,0.0,
2025-08-14T22:26:25.389Z,6,GR86-047-21,-1.5,0.162,-0.003,100.0,3.0,,0.0,0.0,
2025-08-14T22:26:25.432Z,6,GR86-047-21,-1.6,0.141,0.014,99.97,3.0,,0.0,0.0,
2025-08-14T22:26:25.476Z,6,GR86-047-21,-2.2,0.139,0.007,100.0,3.0,7101.0,0.0,0.0,
2025-08-14T22:26:25.519Z,6,GR86-047-21,-3.3000000000000003,0.145,-0.01,99.96,3.0,,0.0,0.0,152.01
2025-08-14T22:26:25.563Z,6,GR86-047-21,-4.0,0.169,-0.022,100.0,3.0,,0.0,0.0,
2025-08-14T22:26:25.607Z,6,GR86-047-21,-4.1000000000000005,0.133,-0.06,99.96,3.0,,0.0,0.0,
2025-08-14T22:26:25.649Z,6,GR86-047-21,-4.1000000000000005,-0.126,-0.04,99.94,4.0,,0.0,0.0,
2025-08-14T22:26:25.693Z,6,GR86-047-21,-4.1000000000000005,0.052,-0.033,100.0,4.0,6868.0,0.0,0.0,
2025-08-14T22:26:25.736Z,6,GR86-047-21,-4.1000000000000005,0.477,-0.149,100.0,4.0,,0.0,0.0,153.66
2025-08-14T22:26:25.779Z,6,GR86-047-21,-4.2,0.277,-0.119,99.99,4.0,,0.0,0.0,
2025-08-14T22:26:25.823Z,6,GR86-047-21,-6.0,0.071,-0.059,100.0,4.0,,0.0,0.0,
2025-08-14T22:26:25.866Z,6,GR86-047-21,-8.200000000000001,0.108,-0.209,100.0,4.0,,0.0,0.0,
2025-08-14T22:26:25.909Z,6,GR86-047-21,-8.4,0.145,-0.154,100.0,4.0,6167.0,0.0,0.0,
2025-08-14T22:26:25.953Z,6,GR86-047-21,-8.4,0.15,-0.202,99.99,4.0,,0.0,0.0,155.08
2025-08-14T22:26:25.999Z,6,GR86-047-21,-8.3,0.113,-0.203,100.0,4.0,,0.0,0.0,
2025-08-14T22:26:26.041Z,6,GR86-047-21,-8.3,0.121,-0.168,100.0,4.0,,0.0,0.0,
2025-08-14T22:26:26.087Z,6,GR86-047-21,-8.5,0.13,-0.22,99.99,4.0,,0.0,0.0,
2025-08-14T22:26:26.173Z,6,GR86-047-21,-9.1,0.136,-0.215,100.01,4.0,6226.0,0.0,0.0,156.82
2025-08-14T22:26:26.216Z,6,GR86-047-21,-10.7,0.132,-0.232,100.0,4.0,,0.0,0.0,
2025-08-14T22:26:26.259Z,6,GR86-047-21,-10.9,0.124,-0.247,100.0,4.0,,0.0,0.0,
2025-08-14T22:26:26.302Z,6,GR86-047-21,-11.0,0.125,-0.269,99.98,4.0,,0.0,0.0,
2025-08-14T22:26:26.347Z,6,GR86-047-21,-11.7,0.128,-0.275,100.03,4.0,6276.0,0.0,0.0,
2025-08-14T22:26:26.389Z,6,GR86-047-21,-12.7,0.13,-0.289,100.02,4.0,,0.0,0.0,158.02
2025-08-14T22:26:26.432Z,6,GR86-047-21,-13.1,0.121,-0.293,100.02,4.0,,0.0,0.0,
2025-08-14T22:26:26.519Z,6,GR86-047-21,-13.1,0.103,-0.323,99.99,4.0,,0.0,0.0,
2025-08-14T22:26:26.561Z,6,GR86-047-21,-13.1,0.11,-0.36,100.0,4.0,6336.0,0.0,0.0,
2025-08-14T22:26:26.607Z,6,GR86-047-21,-13.1,0.108,-0.383,100.02,4.0,,0.0,0.0,159.29
2025-08-14T22:26:26.649Z,6,GR86-047-21,-13.1,0.103,-0.377,99.99,4.0,,0.0,0.0,
2025-08-14T22:26:26.737Z,6,GR86-047-21,-12.5,0.101,-0.378,100.02,4.0,,0.0,0.0,
2025-08-14T22:26:26.779Z,6,GR86-047-21,-11.0,0.119,-0.318,99.99,4.0,6381.0,0.0,0.0,
2025-08-14T22:26:26.823Z,6,GR86-047-21,-11.0,0.124,-0.317,100.01,4.0,,0.0,0.0,160.59
2025-08-14T22:26:26.866Z,6,GR86-047-21,-11.3,0.095,-0.304,99.99,4.0,,0.0,0.0,
2025-08-14T22:26:26.909Z,6,GR86-047-21,-12.0,0.088,-0.335,100.02,4.0,,0.0,0.0,
2025-08-14T22:26:26.953Z,6,GR86-047-21,-12.0,0.108,-0.327,100.01,4.0,,0.0,0.0,
2025-08-14T22:26:26.998Z,6,GR86-047-21,-12.0,0.104,-0.314,100.02,4.0,6432.0,0.0,0.0,
2025-08-14T22:26:27.041Z,6,GR86-047-21,-11.7,0.137,-0.29,100.0,4.0,,0.0,0.0,161.94
2025-08-14T22:26:27.087Z,6,GR86-047-21,-9.9,0.088,-0.252,84.09,4.0,,0.0,0.0,
2025-08-14T22:26:27.129Z,6,GR86-047-21,-9.7,0.097,-0.23,79.61,4.0,,0.0,0.0,
2025-08-14T22:26:27.173Z,6,GR86-047-21,-9.7,0.103,-0.21,70.18,4.0,,0.0,0.0,
2025-08-14T22:26:27.216Z,6,GR86-047-21,-9.8,0.121,-0.21,56.93,4.0,6478.0,0.0,0.0,
2025-08-14T22:26:27.259Z,6,GR86-047-21,-9.8,0.142,-0.224,48.08,4.0,,0.0,0.0,163.35
2025-08-14T22:26:27.302Z,6,GR86-047-21,-10.0,0.145,-0.225,37.29,4.0,,0.0,0.0,
2025-08-14T22:26:27.347Z,6,GR86-047-21,-12.1,0.049,-0.23,32.92,4.0,,0.0,0.0,
2025-08-14T22:26:27.389Z,6,GR86-047-21,-12.2,0.034,-0.228,32.02,4.0,,0.0,0.0,
2025-08-14T22:26:27.432Z,6,GR86-047-21,-12.1,0.029,-0.249,31.45,4.0,6522.0,0.0,0.0,
2025-08-14T22:26:27.476Z,6,GR86-047-21,-12.2,0.045,-0.253,26.38,4.0,,0.0,0.0,164.58
2025-08-14T22:26:27.519Z,6,GR86-047-21,-12.2,0.043,-0.267,16.68,4.0,,0.0,1.83,
2025-08-14T22:26:27.563Z,6,GR86-047-21,-12.2,0.034,-0.287,4.19,4.0,,5.495,5.615,
2025-08-14T22:26:27.607Z,6,GR86-047-21,-12.2,-0.277,-0.29,3.47,4.0,,9.995,10.18,
2025-08-14T22:26:27.649Z,6,GR86-047-21,-9.7,-0.352,-0.263,3.39,4.0,6525.0,15.185,15.335,
2025-08-14T22:26:27.693Z,6,GR86-047-21,-5.9,-0.54,-0.229,3.26,4.0,,20.725,20.845,165.99
2025-08-14T22:26:27.737Z,6,GR86-047-21,-4.0,-0.681,-0.198,3.1,4.0,,26.17,26.08,
2025-08-14T22:26:27.779Z,6,GR86-047-21,-4.0,-0.6880000000000001,-0.168,2.88,4.0,,30.075,29.985,
2025-08-14T22:26:27.823Z,6,GR86-047-21,-4.0,-0.729,-0.222,2.75,4.0,,33.8,33.65,
2025-08-14T22:26:27.866Z,6,GR86-047-21,-3.7,-0.871,-0.162,2.65,4.0,6234.0,40.805,40.5,
2025-08-14T22:26:27.909Z,6,GR86-047-21,-3.6,-0.922,-0.168,2.61,4.0,,46.085,45.49,161.0
2025-08-14T22:26:27.953Z,6,GR86-047-21,-3.7,-1.04,-0.165,2.58,4.0,,49.795,49.365,
2025-08-14T22:26:27.998Z,6,GR86-047-21,-3.7,-1.087,-0.166,2.56,4.0,,50.005,49.96,
2025-08-14T22:26:28.041Z,6,GR86-047-21,-3.7,-1.065,-0.188,2.52,4.0,,45.4,46.65,
2025-08-14T22:26:28.087Z,6,GR86-047-21,-3.8,-0.936,-0.166,2.53,4.0,5725.0,37.98,39.905,
2025-08-14T22:26:28.129Z,6,GR86-047-21,-3.8,-0.956,-0.177,2.52,4.0,,35.465,37.05,153.63
2025-08-14T22:26:28.173Z,6,GR86-047-21,-3.3000000000000003,-0.882,-0.169,27.01,4.0,,35.435,36.67,
2025-08-14T22:26:28.216Z,6,GR86-047-21,-0.7000000000000001,-0.839,-0.157,71.78,4.0,,37.42,38.075,
2025-08-14T22:26:28.259Z,6,GR86-047-21,0.1,-0.909,-0.125,99.88,4.0,,41.645,41.52,
2025-08-14T22:26:28.302Z,6,GR86-047-21,0.3,-0.99,-0.128,99.17,3.0,5626.0,45.52,45.4,
2025-08-14T22:26:28.346Z,6,GR86-047-21,0.5,-1.101,-0.092,9.43,3.0,,48.175,48.055,147.45000000000002
2025-08-14T22:26:28.389Z,6,GR86-047-21,-0.1,-1.151,-0.038,3.49,3.0,,48.74,49.64,
2025-08-14T22:26:28.432Z,6,GR86-047-21,-0.8,-0.959,-0.137,2.79,3.0,,47.64,49.2,
2025-08-14T22:26:28.476Z,6,GR86-047-21,-0.9,-1.02,-0.137,2.61,3.0,,45.215,45.55,
2025-08-14T22:26:28.519Z,6,GR86-047-21,-0.9,-0.913,-0.031,2.53,3.0,6295.0,44.74,44.74,
2025-08-14T22:26:28.563Z,6,GR86-047-21,-0.9,-0.964,-0.134,2.49,3.0,,44.62,44.74,139.9
2025-08-14T22:26:28.607Z,6,GR86-047-21,-6.2,-0.912,-0.073,2.49,3.0,,46.025,46.175,
2025-08-14T22:26:28.649Z,6,GR86-047-21,-10.2,-0.95,-0.122,2.47,3.0,,43.49,44.5,
2025-08-14T22:26:28.693Z,6,GR86-047-21,-10.8,-1.006,-0.184,2.46,3.0,,42.425,43.645,
2025-08-14T22:26:28.736Z,6,GR86-047-21,-10.8,-1.008,-0.094,2.46,3.0,5930.0,41.49,42.955,
2025-08-14T22:26:28.779Z,6,GR86-047-21,-10.8,-1.04,-0.177,2.46,3.0,,40.62,42.12,134.19
2025-08-14T22:26:28.823Z,6,GR86-047-21,-10.8,-0.959,-0.165,2.47,3.0,,40.395,41.89,
2025-08-14T22:26:28.866Z,6,GR86-047-21,-12.3,-0.92,-0.178,2.46,3.0,,40.865,41.86,
2025-08-14T22:26:28.909Z,6,GR86-047-21,-13.7,-0.954,-0.219,2.48,3.0,,41.555,42.485,
2025-08-14T22:26:28.953Z,6,GR86-047-21,-14.5,-1.015,-0.236,2.66,3.0,5739.0,43.705,43.855,
2025-08-14T22:26:28.999Z,6,GR86-047-21,-15.0,-0.864,-0.318,40.07,3.0,,46.27,46.3,127.6
2025-08-14T22:26:29.041Z,6,GR86-047-21,-15.0,-0.993,-0.34,85.21000000000001,3.0,,48.145,47.9,
2025-08-14T22:26:29.087Z,6,GR86-047-21,-15.0,-0.988,-0.28,100.08,3.0,,49.825,49.870000000000005,
2025-08-14T22:26:29.129Z,6,GR86-047-21,-15.0,-0.985,-0.308,79.97,2.0,,46.56,47.81,
2025-08-14T22:26:29.173Z,6,GR86-047-21,-15.0,-1.089,-0.297,9.55,2.0,5451.0,44.65,46.205,
2025-08-14T22:26:29.216Z,6,GR86-047-21,-15.0,-0.928,-0.32,3.46,2.0,,40.895,41.52,122.53
2025-08-14T22:26:29.258Z,6,GR86-047-21,-15.0,-0.989,-0.417,2.8000000000000003,2.0,,36.93,38.21,
2025-08-14T22:26:29.302Z,6,GR86-047-21,-15.0,-0.731,-0.426,2.6,2.0,,30.49,32.105000000000004,
2025-08-14T22:26:29.347Z,6,GR86-047-21,-15.0,-0.6980000000000001,-0.486,2.49,2.0,,22.615,23.745,
2025-08-14T22:26:29.389Z,6,GR86-047-21,-15.1,-0.7000000000000001,-0.498,2.49,2.0,6380.0,20.355,21.5,
2025-08-14T22:26:29.433Z,6,GR86-047-21,-16.6,-0.641,-0.495,2.46,2.0,,19.7,20.6,114.63
2025-08-14T22:26:29.476Z,6,GR86-047-21,-19.4,-0.63,-0.559,2.46,2.0,,20.45,21.0,
2025-08-14T22:26:29.519Z,6,GR86-047-21,-22.9,-0.622,-0.532,2.46,2.0,,21.09,21.655,
2025-08-14T22:26:29.561Z,6,GR86-047-21,-26.4,-0.633,-0.552,2.46,2.0,,21.47,21.93,
2025-08-14T22:26:29.607Z,6,GR86-047-21,-30.9,-0.657,-0.5690000000000001,2.46,2.0,6251.0,22.525,22.875,
2025-08-14T22:26:29.649Z,6,GR86-047-21,-32.6,-0.654,-0.626,2.47,2.0,,22.995,23.53,113.22
2025-08-14T22:26:29.693Z,6,GR86-047-21,-34.6,-0.68,-0.647,2.46,2.0,,23.93,24.235,
2025-08-14T22:26:29.737Z,6,GR86-047-21,-37.7,-0.707,-0.636,2.46,2.0,,25.12,25.425,
2025-08-14T22:26:29.779Z,6,GR86-047-21,-40.900000000000006,-0.763,-0.683,2.46,2.0,,28.965,29.025,
2025-08-14T22:26:29.823Z,6,GR86-047-21,-44.3,-0.807,-0.635,2.48,2.0,6008.0,32.045,32.045,
2025-08-14T22:26:29.866Z,6,GR86-047-21,-49.3,-0.793,-0.773,2.46,2.0,,35.585,35.800000000000004,110.19
2025-08-14T22:26:29.909Z,6,GR86-047-21,-51.400000000000006,-0.784,-0.788,2.46,2.0,,35.465,35.71,
2025-08-14T22:26:29.953Z,6,GR86-047-21,-51.900000000000006,-0.783,-0.722,2.47,2.0,,35.175000000000004,35.68,
2025-08-14T22:26:29.998Z,6,GR86-047-21,-51.900000000000006,-0.783,-0.781,2.46,2.0,,32.78,33.74,
2025-08-14T22:26:30.041Z,6,GR86-047-21,-51.900000000000006,-0.717,-0.8290000000000001,2.46,2.0,5722.0,27.925,29.33,
2025-08-14T22:26:30.087Z,6,GR86-047-21,-52.0,-0.687,-0.8250000000000001,2.46,2.0,,21.685,22.965,101.76
2025-08-14T22:26:30.129Z,6,GR86-047-21,-53.5,-0.585,-0.931,2.46,2.0,,18.77,19.73,
2025-08-14T22:26:30.173Z,6,GR86-047-21,-56.8,-0.535,-0.922,2.46,2.0,,17.61,18.525,
2025-08-14T22:26:30.216Z,6,GR86-047-21,-61.3,-0.613,-0.942,2.46,2.0,,17.655,18.235,
2025-08-14T22:26:30.259Z,6,GR86-047-21,-66.0,-0.594,-0.911,2.46,2.0,5323.0,17.84,18.235,
2025-08-14T22:26:30.302Z,6,GR86-047-21,-69.10000000000001,-0.506,-0.995,2.46,2.0,,14.085,14.91,97.14
2025-08-14T22:26:30.347Z,6,GR86-047-21,-70.10000000000001,-0.476,-1.012,2.46,2.0,,12.68,13.275,
2025-08-14T22:26:30.389Z,6,GR86-047-21,-70.10000000000001,-0.489,-1.02,2.46,2.0,,10.21,10.805,
2025-08-14T22:26:30.432Z,6,GR86-047-21,-69.5,-0.402,-1.027,2.46,2.0,,3.785,4.24,
2025-08-14T22:26:30.476Z,6,GR86-047-21,-69.10000000000001,-0.244,-0.998,2.46,2.0,5243.0,0.0,0.0,
2025-08-14T22:26:30.519Z,6,GR86-047-21,-69.10000000000001,-0.248,-1.068,2.46,2.0,,0.0,0.0,94.01
2025-08-14T22:26:30.563Z,6,GR86-047-21,-69.10000000000001,-0.208,-1.004,2.46,2.0,,0.0,0.0,
2025-08-14T22:26:30.607Z,6,GR86-047-21,-69.10000000000001,-0.195,-1.088,2.46,2.0,,0.0,0.0,
2025-08-14T22:26:30.649Z,6,GR86-047-21,-69.2,-0.199,-1.033,2.46,2.0,,0.0,0.0,
2025-08-14T22:26:30.693Z,6,GR86-047-21,-71.7,-0.214,-1.09,2.46,2.0,5046.0,0.0,0.0,
2025-08-14T22:26:30.737Z,6,GR86-047-21,-76.5,-0.183,-0.976,2.47,2.0,,0.0,0.0,92.42
2025-08-14T22:26:30.779Z,6,GR86-047-21,-80.5,-0.194,-1.047,2.47,2.0,,0.0,0.0,
2025-08-14T22:26:30.823Z,6,GR86-047-21,-84.10000000000001,-0.196,-0.935,2.47,2.0,,0.0,0.0,
2025-08-14T22:26:30.866Z,6,GR86-047-21,-86.9,-0.215,-0.973,2.47,2.0,,0.0,0.0,
2025-08-14T22:26:30.909Z,6,GR86-047-21,-87.4,-0.204,-0.952,2.48,2.0,4952.0,0.0,0.0,
2025-08-14T22:26:30.953Z,6,GR86-047-21,-87.4,-0.201,-0.981,2.48,2.0,,0.0,0.0,90.61
2025-08-14T22:26:30.998Z,6,GR86-047-21,-87.7,-0.198,-1.003,2.49,2.0,,0.0,0.0,
2025-08-14T22:26:31.041Z,6,GR86-047-21,-88.2,-0.195,-0.993,2.47,2.0,,0.0,0.0,
2025-08-14T22:26:31.087Z,6,GR86-047-21,-88.2,-0.196,-0.997,2.71,2.0,,0.0,0.0,
2025-08-14T22:26:31.129Z,6,GR86-047-21,-88.2,-0.196,-0.966,2.7,2.0,4856.0,0.0,0.0,
2025-08-14T22:26:31.173Z,6,GR86-047-21,-88.2,-0.192,-0.992,18.45,2.0,,0.0,0.0,88.68
2025-08-14T22:26:31.216Z,6,GR86-047-21,-88.2,-0.198,-0.972,37.47,2.0,,0.0,0.0,
2025-08-14T22:26:31.259Z,6,GR86-047-21,-88.2,-0.194,-1.029,73.12,2.0,,0.0,0.0,
2025-08-14T22:26:31.302Z,6,GR86-047-21,-87.7,-0.136,-0.991,98.22,2.0,,0.0,0.0,
2025-08-14T22:26:31.346Z,6,GR86-047-21,-81.60000000000001,-0.108,-1.014,99.48,2.0,4788.0,0.0,0.0,
2025-08-14T22:26:31.389Z,6,GR86-047-21,-75.7,0.232,-0.934,99.59,2.0,,0.0,0.0,86.97
2025-08-14T22:26:31.433Z,6,GR86-047-21,-69.60000000000001,0.195,-0.921,99.68,2.0,,0.0,0.0,
2025-08-14T22:26:31.476Z,6,GR86-047-21,-64.7,0.217,-0.897,99.76,2.0,,0.0,0.0,
2025-08-14T22:26:31.519Z,6,GR86-047-21,-61.3,0.247,-0.896,99.79,2.0,,0.0,0.0,
2025-08-14T22:26:31.563Z,6,GR86-047-21,-59.3,0.23,-0.902,99.9,2.0,5361.0,0.0,0.0,
2025-08-14T22:26:31.607Z,6,GR86-047-21,-57.900000000000006,0.198,-0.953,57.71,2.0,,0.0,0.0,85.64
2025-08-14T22:26:31.649Z,6,GR86-047-21,-57.900000000000006,0.218,-0.933,57.9,2.0,,0.0,0.0,
2025-08-14T22:26:31.736Z,6,GR86-047-21,-57.900000000000006,0.204,-0.963,58.07,2.0,,0.0,0.0,
2025-08-14T22:26:31.779Z,6,GR86-047-21,-52.2,0.175,-0.986,49.55,2.0,5426.0,0.0,0.0,
2025-08-14T22:26:31.821Z,6,GR86-047-21,-41.1,0.176,-0.954,39.29,2.0,,0.0,0.0,86.13
2025-08-14T22:26:31.866Z,6,GR86-047-21,-19.200000000000003,0.19,-0.989,38.03,2.0,,0.0,0.0,
2025-08-14T22:26:31.909Z,6,GR86-047-21,-7.300000000000001,0.211,-0.96,38.25,2.0,,0.0,0.0,
2025-08-14T22:26:31.951Z,6,GR86-047-21,0.4,0.217,-0.945,39.06,2.0,,0.0,0.0,
2025-08-14T22:26:31.998Z,6,GR86-047-21,4.0,0.214,-0.893,39.67,2.0,5567.0,0.0,0.0,
2025-08-14T22:26:32.040Z,6,GR86-047-21,5.5,0.202,-0.912,38.5,2.0,,0.0,0.0,87.23
2025-08-14T22:26:32.083Z,6,GR86-047-21,6.300000000000001,0.208,-0.878,38.58,2.0,,0.0,0.0,
2025-08-14T22:26:32.126Z,6,GR86-047-21,8.6,0.167,-0.894,40.06,2.0,,0.0,0.0,
2025-08-14T22:26:32.169Z,6,GR86-047-21,9.8,0.183,-0.909,43.7,2.0,,0.0,0.0,
2025-08-14T22:26:32.212Z,6,GR86-047-21,11.6,0.186,-0.914,44.62,2.0,5525.0,0.0,0.0,
2025-08-14T22:26:32.299Z,6,GR86-047-21,15.8,0.203,-0.919,95.18,2.0,,0.0,0.0,88.44
2025-08-14T22:26:32.387Z,6,GR86-047-21,12.2,0.293,-0.855,100.04,2.0,,0.0,0.0,
2025-08-14T22:26:32.429Z,6,GR86-047-21,-3.2,0.266,-0.898,100.03,2.0,5566.0,0.0,0.0,
2025-08-14T22:26:32.473Z,6,GR86-047-21,-19.9,0.261,-0.908,100.02,2.0,,0.0,0.0,89.01
2025-08-14T22:26:32.516Z,6,GR86-047-21,-32.6,0.248,-0.954,100.02,2.0,,0.0,0.0,
2025-08-14T22:26:32.559Z,6,GR86-047-21,-40.8,0.256,-0.982,100.0,2.0,,0.0,0.0,
2025-08-14T22:26:32.602Z,6,GR86-047-21,-45.5,0.245,-1.033,100.0,2.0,,0.0,0.0,
2025-08-14T22:26:32.647Z,6,GR86-047-21,-48.5,0.241,-0.999,100.0,2.0,5561.0,0.0,0.0,
2025-08-14T22:26:32.689Z,6,GR86-047-21,-48.8,0.248,-1.0,99.98,2.0,,0.0,0.0,90.77
2025-08-14T22:26:32.732Z,6,GR86-047-21,-48.900000000000006,0.22,-0.985,100.0,2.0,,0.0,0.0,
2025-08-14T22:26:32.776Z,6,GR86-047-21,-49.0,0.22,-0.932,100.01,2.0,,0.0,0.0,
2025-08-14T22:26:32.819Z,6,GR86-047-21,-49.1,0.222,-0.962,99.99,2.0,,0.0,0.0,
2025-08-14T22:26:32.861Z,6,GR86-047-21,-49.2,0.236,-0.895,99.99,2.0,5531.0,0.0,0.0,
2025-08-14T22:26:32.907Z,6,GR86-047-21,-49.6,0.232,-0.884,100.0,2.0,,0.0,0.0,92.33
2025-08-14T22:26:32.949Z,6,GR86-047-21,-49.7,0.218,-0.841,99.98,2.0,,0.0,0.0,
2025-08-14T22:26:32.993Z,6,GR86-047-21,-49.6,0.213,-0.861,99.99,2.0,,0.0,0.0,
2025-08-14T22:26:33.037Z,6,GR86-047-21,-49.7,0.204,-0.861,99.99,2.0,,0.0,0.0,
2025-08-14T22:26:33.079Z,6,GR86-047-21,-49.1,0.229,-0.866,99.99,2.0,5542.0,0.0,0.0,
2025-08-14T22:26:33.123Z,6,GR86-047-21,-47.400000000000006,0.243,-0.8240000000000001,100.01,2.0,,0.0,0.0,93.75
2025-08-14T22:26:33.166Z,6,GR86-047-21,-45.8,0.216,-0.793,99.99,2.0,,0.0,0.0,
2025-08-14T22:26:33.209Z,6,GR86-047-21,-45.6,0.217,-0.8230000000000001,100.02,2.0,,0.0,0.0,
2025-08-14T22:26:33.253Z,6,GR86-047-21,-45.6,0.207,-0.788,99.99,2.0,,0.0,0.0,
2025-08-14T22:26:33.298Z,6,GR86-047-21,-45.6,0.228,-0.886,99.98,2.0,5686.0,0.0,0.0,
2025-08-14T22:26:33.340Z,6,GR86-047-21,-45.6,0.236,-0.804,100.01,2.0,,0.0,0.0,95.35
2025-08-14T22:26:33.387Z,6,GR86-047-21,-45.6,0.226,-0.808,99.99,2.0,,0.0,0.0,
2025-08-14T22:26:33.429Z,6,GR86-047-21,-45.6,0.223,-0.795,99.99,2.0,,0.0,0.0,
2025-08-14T22:26:33.473Z,6,GR86-047-21,-45.6,0.19,-0.789,100.0,2.0,,0.0,0.0,
2025-08-14T22:26:33.516Z,6,GR86-047-21,-45.6,0.211,-0.8310000000000001,100.0,2.0,5749.0,0.0,0.0,
2025-08-14T22:26:33.559Z,6,GR86-047-21,-45.6,0.236,-0.791,99.98,2.0,,0.0,0.0,97.0
2025-08-14T22:26:33.602Z,6,GR86-047-21,-45.6,0.244,-0.8250000000000001,100.0,2.0,,0.0,0.0,
2025-08-14T22:26:33.647Z,6,GR86-047-21,-46.1,0.229,-0.795,99.99,2.0,,0.0,0.0,
2025-08-14T22:26:33.689Z,6,GR86-047-21,-47.7,0.206,-0.8320000000000001,99.99,2.0,,0.0,0.0,
2025-08-14T22:26:33.733Z,6,GR86-047-21,-47.900000000000006,0.204,-0.838,99.98,2.0,5828.0,0.0,0.0,
2025-08-14T22:26:33.776Z,6,GR86-047-21,-47.900000000000006,0.219,-0.784,99.98,2.0,,0.0,0.0,98.62
2025-08-14T22:26:33.819Z,6,GR86-047-21,-46.5,0.224,-0.789,99.99,2.0,,0.0,0.0,
2025-08-14T22:26:33.861Z,6,GR86-047-21,-45.0,0.229,-0.743,100.0,2.0,,0.0,0.0,
2025-08-14T22:26:33.907Z,6,GR86-047-21,-44.7,0.21,-0.749,100.0,2.0,,0.0,0.0,
2025-08-14T22:26:33.949Z,6,GR86-047-21,-44.7,0.222,-0.78,100.0,2.0,5917.0,0.0,0.0,
2025-08-14T22:26:33.992Z,6,GR86-047-21,-44.6,0.237,-0.755,100.01,2.0,,0.0,0.0,100.04
2025-08-14T22:26:34.037Z,6,GR86-047-21,-44.7,0.222,-0.77,100.0,2.0,,0.0,0.0,
2025-08-14T22:26:34.079Z,6,GR86-047-21,-44.5,0.233,-0.758,100.0,2.0,,0.0,0.0,
2025-08-14T22:26:34.123Z,6,GR86-047-21,-43.6,0.216,-0.763,100.0,2.0,,0.0,0.0,
2025-08-14T22:26:34.166Z,6,GR86-047-21,-41.8,0.227,-0.683,99.99,2.0,6004.0,0.0,0.0,
2025-08-14T22:26:34.209Z,6,GR86-047-21,-39.900000000000006,0.204,-0.619,99.98,2.0,,0.0,0.0,100.79
2025-08-14T22:26:34.253Z,6,GR86-047-21,-38.5,0.19,-0.592,99.98,2.0,,0.0,0.0,
2025-08-14T22:26:34.298Z,6,GR86-047-21,-36.6,0.175,-0.559,99.99,2.0,,0.0,0.0,
2025-08-14T22:26:34.340Z,6,GR86-047-21,-33.300000000000004,0.148,-0.56,100.0,2.0,,0.0,0.0,
2025-08-14T22:26:34.383Z,6,GR86-047-21,-30.1,0.207,-0.534,100.0,2.0,6130.0,0.0,0.0,
2025-08-14T22:26:34.429Z,6,GR86-047-21,-25.9,0.161,-0.407,99.99,2.0,,0.0,0.0,102.53
2025-08-14T22:26:34.473Z,6,GR86-047-21,-22.700000000000003,0.156,-0.452,99.99,2.0,,0.0,0.0,
2025-08-14T22:26:34.516Z,6,GR86-047-21,-20.4,0.16,-0.398,99.98,2.0,,0.0,0.0,
2025-08-14T22:26:34.559Z,6,GR86-047-21,-19.6,0.16,-0.377,100.0,2.0,,0.0,0.0,
2025-08-14T22:26:34.602Z,6,GR86-047-21,-19.200000000000003,0.155,-0.472,99.99,2.0,6267.0,0.0,0.0,
2025-08-14T22:26:34.646Z,6,GR86-047-21,-16.3,0.195,-0.34,100.0,2.0,,0.0,0.0,103.96
2025-08-14T22:26:34.689Z,6,GR86-047-21,-13.0,0.181,-0.453,99.99,2.0,,0.0,0.0,
2025-08-14T22:26:34.731Z,6,GR86-047-21,-9.3,0.238,-0.428,100.0,2.0,,0.0,0.0,
2025-08-14T22:26:34.776Z,6,GR86-047-21,-7.300000000000001,0.196,-0.276,99.99,2.0,,0.0,0.0,
2025-08-14T22:26:34.819Z,6,GR86-047-21,-7.300000000000001,0.13,-0.311,99.99,2.0,6337.0,0.0,0.0,
2025-08-14T22:26:34.861Z,6,GR86-047-21,-7.300000000000001,0.15,-0.282,100.0,2.0,,0.0,0.0,105.7
2025-08-14T22:26:34.907Z,6,GR86-047-21,-7.4,0.235,-0.193,100.0,2.0,,0.0,0.0,
2025-08-14T22:26:34.949Z,6,GR86-047-21,-7.4,0.216,-0.242,99.99,2.0,,0.0,0.0,
2025-08-14T22:26:34.993Z,6,GR86-047-21,-7.4,0.244,-0.174,100.0,2.0,,0.0,0.0,
2025-08-14T22:26:35.036Z,6,GR86-047-21,-7.0,0.195,-0.144,100.0,2.0,6421.0,0.0,0.0,
2025-08-14T22:26:35.079Z,6,GR86-047-21,-6.1000000000000005,0.243,-0.166,99.99,2.0,,0.0,0.0,107.37
2025-08-14T22:26:35.121Z,6,GR86-047-21,-4.5,0.298,-0.155,100.0,2.0,,0.0,0.0,
2025-08-14T22:26:35.166Z,6,GR86-047-21,-3.4000000000000004,0.3,-0.081,100.01,2.0,,0.0,0.0,
2025-08-14T22:26:35.209Z,6,GR86-047-21,-3.3000000000000003,0.237,-0.084,100.01,2.0,,0.0,0.0,
2025-08-14T22:26:35.253Z,6,GR86-047-21,-3.3000000000000003,0.262,-0.028,100.01,2.0,6545.0,0.0,0.0,
2025-08-14T22:26:35.298Z,6,GR86-047-21,-3.3000000000000003,0.228,0.022,99.98,2.0,,0.0,0.0,111.19
2025-08-14T22:26:35.340Z,6,GR86-047-21,-3.3000000000000003,0.213,0.002,100.02,2.0,,0.0,0.0,
2025-08-14T22:26:35.383Z,6,GR86-047-21,-3.1,0.273,0.024,100.02,2.0,,0.0,0.0,
2025-08-14T22:26:35.426Z,6,GR86-047-21,-3.0,0.285,0.022,100.03,2.0,,0.0,0.0,
2025-08-14T22:26:35.469Z,6,GR86-047-21,-3.0,0.24,0.028,100.01,2.0,6519.0,0.0,0.0,
2025-08-14T22:26:35.512Z,6,GR86-047-21,-3.0,0.262,0.031,100.03,2.0,,0.0,0.0,113.0
2025-08-14T22:26:35.557Z,6,GR86-047-21,-3.0,0.257,0.033,100.03,2.0,,0.0,0.0,
2025-08-14T22:26:35.599Z,6,GR86-047-21,-3.0,0.214,0.021,100.02,2.0,,0.0,0.0,
2025-08-14T22:26:35.643Z,6,GR86-047-21,-3.0,0.25,0.045,100.01,2.0,,0.0,0.0,
2025-08-14T22:26:35.687Z,6,GR86-047-21,-3.0,0.266,0.028,99.99,2.0,6758.0,0.0,0.0,
2025-08-14T22:26:35.729Z,6,GR86-047-21,-2.7,0.248,0.043,100.0,2.0,,0.0,0.0,114.79
2025-08-14T22:26:35.773Z,6,GR86-047-21,-2.6,0.231,0.024,100.03,2.0,,0.0,0.0,
2025-08-14T22:26:35.816Z,6,GR86-047-21,-2.6,0.263,0.029,100.02,2.0,,0.0,0.0,
2025-08-14T22:26:35.859Z,6,GR86-047-21,-2.6,0.231,0.023,100.03,2.0,,0.0,0.0,
2025-08-14T22:26:35.902Z,6,GR86-047-21,-2.6,0.242,0.008,100.01,2.0,6843.0,0.0,0.0,
2025-08-14T22:26:35.947Z,6,GR86-047-21,-2.6,0.234,0.01,100.02,2.0,,0.0,0.0,116.61
2025-08-14T22:26:35.989Z,6,GR86-047-21,-2.6,0.254,0.011,100.03,2.0,,0.0,0.0,
2025-08-14T22:26:36.032Z,6,GR86-047-21,-2.6,0.23,0.011,100.03,2.0,,0.0,0.0,
2025-08-14T22:26:36.076Z,6,GR86-047-21,-2.6,0.229,0.016,100.03,2.0,,0.0,0.0,
2025-08-14T22:26:36.161Z,6,GR86-047-21,-2.6,0.247,0.015,100.03,2.0,6937.0,0.0,0.0,118.46
2025-08-14T22:26:36.207Z,6,GR86-047-21,-2.6,0.224,0.014,100.0,2.0,,0.0,0.0,
2025-08-14T22:26:36.249Z,6,GR86-047-21,-2.6,0.229,0.026,100.01,2.0,,0.0,0.0,
2025-08-14T22:26:36.293Z,6,GR86-047-21,-2.6,0.238,0.009,100.0,2.0,,0.0,0.0,
2025-08-14T22:26:36.337Z,6,GR86-047-21,-2.6,0.226,0.002,99.97,2.0,7034.0,0.0,0.0,
2025-08-14T22:26:36.379Z,6,GR86-047-21,-2.6,0.227,0.007,100.01,2.0,,0.0,0.0,120.08
2025-08-14T22:26:36.423Z,6,GR86-047-21,-2.6,0.251,-0.004,100.0,2.0,,0.0,0.0,
2025-08-14T22:26:36.509Z,6,GR86-047-21,-2.6,0.212,-0.001,99.97,2.0,,0.0,0.0,
2025-08-14T22:26:36.553Z,6,GR86-047-21,-2.6,0.204,-0.002,100.02,2.0,7115.0,0.0,0.0,
2025-08-14T22:26:36.598Z,6,GR86-047-21,-2.6,0.221,-0.011,100.03,2.0,,0.0,0.0,121.76
2025-08-14T22:26:36.640Z,6,GR86-047-21,-2.6,0.235,-0.023,100.03,2.0,,0.0,0.0,
2025-08-14T22:26:36.683Z,6,GR86-047-21,-2.6,0.23,-0.015,100.01,2.0,,0.0,0.0,
2025-08-14T22:26:36.729Z,6,GR86-047-21,-2.6,0.21,-0.032,100.02,2.0,,0.0,0.0,
2025-08-14T22:26:36.773Z,6,GR86-047-21,-2.6,0.209,-0.031,100.01,2.0,7208.0,0.0,0.0,
2025-08-14T22:26:36.816Z,6,GR86-047-21,-2.6,0.24,-0.051,100.01,2.0,,0.0,0.0,123.4
2025-08-14T22:26:36.859Z,6,GR86-047-21,-2.6,0.225,-0.03,99.99,2.0,,0.0,0.0,
2025-08-14T22:26:36.902Z,6,GR86-047-21,-2.6,-0.049,-0.021,100.03,3.0,,0.0,0.0,
2025-08-14T22:26:36.947Z,6,GR86-047-21,-2.6,0.608,-0.033,100.02,3.0,,0.0,0.0,
2025-08-14T22:26:36.989Z,6,GR86-047-21,-2.6,0.391,-0.121,100.03,3.0,7172.0,0.0,0.0,
2025-08-14T22:26:37.032Z,6,GR86-047-21,-2.6,0.311,-0.017,100.01,3.0,,0.0,0.0,124.97
2025-08-14T22:26:37.076Z,6,GR86-047-21,-2.6,0.094,-0.012,100.01,3.0,,0.0,0.0,
2025-08-14T22:26:37.119Z,6,GR86-047-21,-2.7,0.107,-0.105,100.0,3.0,,0.0,0.0,
2025-08-14T22:26:37.163Z,6,GR86-047-21,-2.7,0.18,-0.032,100.03,3.0,,0.0,0.0,
2025-08-14T22:26:37.207Z,6,GR86-047-21,-2.8000000000000003,0.217,-0.113,100.03,3.0,5861.0,0.0,0.0,
2025-08-14T22:26:37.249Z,6,GR86-047-21,-2.8000000000000003,0.206,-0.047,100.03,3.0,,0.0,0.0,126.34
2025-08-14T22:26:37.293Z,6,GR86-047-21,-2.8000000000000003,0.187,-0.05,100.01,3.0,,0.0,0.0,
2025-08-14T22:26:37.337Z,6,GR86-047-21,-2.8000000000000003,0.163,-0.099,100.03,3.0,,0.0,0.0,
2025-08-14T22:26:37.379Z,6,GR86-047-21,-2.8000000000000003,0.205,-0.07,100.01,3.0,,0.0,0.0,
2025-08-14T22:26:37.423Z,6,GR86-047-21,-2.8000000000000003,0.224,-0.071,100.03,3.0,6053.0,0.0,0.0,
2025-08-14T22:26:37.466Z,6,GR86-047-21,-3.8,0.211,-0.085,100.03,3.0,,0.0,0.0,128.01
2025-08-14T22:26:37.509Z,6,GR86-047-21,-3.9,0.165,-0.084,100.04,3.0,,0.0,0.0,
2025-08-14T22:26:37.553Z,6,GR86-047-21,-4.0,0.177,-0.106,100.02,3.0,,0.0,0.0,
2025-08-14T22:26:37.598Z,6,GR86-047-21,-4.0,0.208,-0.119,100.03,3.0,,0.0,0.0,
2025-08-14T22:26:37.640Z,6,GR86-047-21,-4.0,0.211,-0.102,100.03,3.0,6122.0,0.0,0.0,
2025-08-14T22:26:37.683Z,6,GR86-047-21,-4.0,0.182,-0.117,100.03,3.0,,0.0,0.0,129.42000000000002
2025-08-14T22:26:37.726Z,6,GR86-047-21,-4.0,0.187,-0.114,100.01,3.0,,0.0,0.0,
2025-08-14T22:26:37.769Z,6,GR86-047-21,-4.0,0.166,-0.135,100.02,3.0,,0.0,0.0,
2025-08-14T22:26:37.812Z,6,GR86-047-21,-4.1000000000000005,0.211,-0.119,100.03,3.0,,0.0,0.0,
2025-08-14T22:26:37.857Z,6,GR86-047-21,-4.1000000000000005,0.209,-0.118,100.02,3.0,6186.0,0.0,0.0,
2025-08-14T22:26:37.899Z,6,GR86-047-21,-4.1000000000000005,0.177,-0.114,100.03,3.0,,0.0,0.0,132.15
2025-08-14T22:26:37.943Z,6,GR86-047-21,-4.1000000000000005,0.156,-0.115,100.01,3.0,,0.0,0.0,
2025-08-14T22:26:37.987Z,6,GR86-047-21,-4.1000000000000005,0.164,-0.113,100.02,3.0,,0.0,0.0,
2025-08-14T22:26:38.029Z,6,GR86-047-21,-4.1000000000000005,0.182,-0.11,100.02,3.0,,0.0,0.0,
2025-08-14T22:26:38.073Z,6,GR86-047-21,-4.1000000000000005,0.22,-0.114,100.02,3.0,6248.0,0.0,0.0,
2025-08-14T22:26:38.116Z,6,GR86-047-21,-4.1000000000000005,0.19,-0.116,100.03,3.0,,0.0,0.0,133.42000000000002
2025-08-14T22:26:38.159Z,6,GR86-047-21,-4.1000000000000005,0.151,-0.092,100.02,3.0,,0.0,0.0,
2025-08-14T22:26:38.202Z,6,GR86-047-21,-4.1000000000000005,0.169,-0.091,100.04,3.0,,0.0,0.0,
2025-08-14T22:26:38.246Z,6,GR86-047-21,-4.1000000000000005,0.17,-0.094,100.03,3.0,,0.0,0.0,
2025-08-14T22:26:38.289Z,6,GR86-047-21,-4.1000000000000005,0.213,-0.102,100.0,3.0,6376.0,0.0,0.0,
2025-08-14T22:26:38.332Z,6,GR86-047-21,-4.1000000000000005,0.2,-0.095,100.0,3.0,,0.0,0.0,134.7
2025-08-14T22:26:38.376Z,6,GR86-047-21,-4.1000000000000005,0.167,-0.078,100.0,3.0,,0.0,0.0,
2025-08-14T22:26:38.419Z,6,GR86-047-21,-4.1000000000000005,0.159,-0.074,100.02,3.0,,0.0,0.0,
2025-08-14T22:26:38.507Z,6,GR86-047-21,-4.1000000000000005,0.17,-0.073,100.02,3.0,6432.0,0.0,0.0,
2025-08-14T22:26:38.549Z,6,GR86-047-21,-4.1000000000000005,0.208,-0.086,99.99,3.0,,0.0,0.0,135.92000000000002
2025-08-14T22:26:38.593Z,6,GR86-047-21,-4.1000000000000005,0.191,-0.073,99.99,3.0,,0.0,0.0,
2025-08-14T22:26:38.636Z,6,GR86-047-21,-4.1000000000000005,0.161,-0.071,99.98,3.0,,0.0,0.0,
2025-08-14T22:26:38.679Z,6,GR86-047-21,-4.1000000000000005,0.167,-0.069,100.02,3.0,,0.0,0.0,
2025-08-14T22:26:38.723Z,6,GR86-047-21,-4.1000000000000005,0.2,-0.061,99.99,3.0,6486.0,0.0,0.0,
2025-08-14T22:26:38.766Z,6,GR86-047-21,-4.1000000000000005,0.184,-0.064,100.02,3.0,,0.0,0.0,137.20000000000002
2025-08-14T22:26:38.809Z,6,GR86-047-21,-4.1000000000000005,0.195,-0.059,99.99,3.0,,0.0,0.0,
2025-08-14T22:26:38.853Z,6,GR86-047-21,-4.1000000000000005,0.183,-0.065,99.99,3.0,,0.0,0.0,
2025-08-14T22:26:38.898Z,6,GR86-047-21,-4.1000000000000005,0.165,-0.048,100.0,3.0,,0.0,0.0,
2025-08-14T22:26:38.983Z,6,GR86-047-21,-4.1000000000000005,0.186,-0.046,100.0,3.0,6546.0,0.0,0.0,138.42000000000002
2025-08-14T22:26:39.026Z,6,GR86-047-21,-4.1000000000000005,0.175,-0.041,100.01,3.0,,0.0,0.0,
2025-08-14T22:26:39.069Z,6,GR86-047-21,-4.1000000000000005,0.201,-0.053,100.0,3.0,,0.0,0.0,
2025-08-14T22:26:39.112Z,6,GR86-047-21,-4.1000000000000005,0.195,-0.059,99.99,3.0,,0.0,0.0,
2025-08-14T22:26:39.157Z,6,GR86-047-21,-4.1000000000000005,0.181,-0.039,100.0,3.0,6607.0,0.0,0.0,
2025-08-14T22:26:39.199Z,6,GR86-047-21,-4.1000000000000005,0.174,-0.038,99.99,3.0,,0.0,0.0,139.62
2025-08-14T22:26:39.243Z,6,GR86-047-21,-4.1000000000000005,0.186,-0.053,100.01,3.0,,0.0,0.0,
2025-08-14T22:26:39.287Z,6,GR86-047-21,-3.7,0.183,-0.046,100.0,3.0,,0.0,0.0,
2025-08-14T22:26:39.329Z,6,GR86-047-21,-3.1,0.189,-0.047,100.03,3.0,,0.0,0.0,
2025-08-14T22:26:39.373Z,6,GR86-047-21,-2.9000000000000004,0.181,-0.043,100.0,3.0,6665.0,0.0,0.0,
2025-08-14T22:26:39.416Z,6,GR86-047-21,-2.8000000000000003,0.177,-0.026,100.01,3.0,,0.0,0.0,140.84
2025-08-14T22:26:39.459Z,6,GR86-047-21,-2.7,0.169,0.0,100.01,3.0,,0.0,0.0,
2025-08-14T22:26:39.502Z,6,GR86-047-21,-2.7,0.172,-0.006,100.03,3.0,,0.0,0.0,
2025-08-14T22:26:39.632Z,6,GR86-047-21,-2.7,0.194,0.003,100.01,3.0,6718.0,0.0,0.0,142.12
2025-08-14T22:26:39.676Z,6,GR86-047-21,-2.7,0.16,0.012,100.01,3.0,,0.0,0.0,
2025-08-14T22:26:39.719Z,6,GR86-047-21,-2.7,0.191,0.019,100.02,3.0,,0.0,0.0,
2025-08-14T22:26:39.761Z,6,GR86-047-21,-2.7,0.197,0.033,100.02,3.0,,0.0,0.0,
2025-08-14T22:26:39.807Z,6,GR86-047-21,-2.7,0.191,0.023,100.02,3.0,6771.0,0.0,0.0,
2025-08-14T22:26:39.849Z,6,GR86-047-21,-2.7,0.193,0.02,100.01,3.0,,0.0,0.0,143.34
2025-08-14T22:26:39.893Z,6,GR86-047-21,-2.7,0.18,0.004,100.0,3.0,,0.0,0.0,
2025-08-14T22:26:39.937Z,6,GR86-047-21,-2.7,0.171,0.002,100.01,3.0,,0.0,0.0,
2025-08-14T22:26:39.979Z,6,GR86-047-21,-2.7,0.161,0.005,100.0,3.0,,0.0,0.0,
2025-08-14T22:26:40.023Z,6,GR86-047-21,-2.7,0.195,0.008,99.98,3.0,6839.0,0.0,0.0,
2025-08-14T22:26:40.067Z,6,GR86-047-21,-2.7,0.17,-0.014,100.02,3.0,,0.0,0.0,144.54
2025-08-14T22:26:40.109Z,6,GR86-047-21,-2.7,0.185,-0.022,99.98,3.0,,0.0,0.0,
2025-08-14T22:26:40.153Z,6,GR86-047-21,-2.7,0.204,-0.019,99.98,3.0,,0.0,0.0,
2025-08-14T22:26:40.198Z,6,GR86-047-21,-2.7,0.179,-0.041,100.01,3.0,,0.0,0.0,
2025-08-14T22:26:40.240Z,6,GR86-047-21,-2.7,0.156,-0.038,99.99,3.0,6885.0,0.0,0.0,
2025-08-14T22:26:40.283Z,6,GR86-047-21,-2.7,0.153,-0.039,99.97,3.0,,0.0,0.0,145.74
2025-08-14T22:26:40.329Z,6,GR86-047-21,-2.7,0.154,-0.045,100.0,3.0,,0.0,0.0,
2025-08-14T22:26:40.373Z,6,GR86-047-21,-2.8000000000000003,0.142,-0.063,99.99,3.0,,0.0,0.0,
2025-08-14T22:26:40.416Z,6,GR86-047-21,-3.0,0.169,-0.071,99.99,3.0,,0.0,0.0,
2025-08-14T22:26:40.459Z,6,GR86-047-21,-3.0,0.194,-0.07,100.01,3.0,6950.0,0.0,0.0,
2025-08-14T22:26:40.503Z,6,GR86-047-21,-3.1,0.198,-0.08,99.99,3.0,,0.0,0.0,148.23
2025-08-14T22:26:40.547Z,6,GR86-047-21,-3.1,0.185,-0.074,100.0,3.0,,0.0,0.0,
2025-08-14T22:26:40.589Z,6,GR86-047-21,-3.1,0.2,-0.094,99.99,3.0,,0.0,0.0,
2025-08-14T22:26:40.632Z,6,GR86-047-21,-3.2,0.187,-0.104,99.97,3.0,,0.0,0.0,
2025-08-14T22:26:40.676Z,6,GR86-047-21,-3.2,0.138,-0.095,100.0,3.0,6995.0,0.0,0.0,
2025-08-14T22:26:40.763Z,6,GR86-047-21,-3.3000000000000003,0.133,-0.123,99.96,3.0,,0.0,0.0,149.44
2025-08-14T22:26:40.807Z,6,GR86-047-21,-3.3000000000000003,0.14,-0.106,99.99,3.0,,0.0,0.0,
2025-08-14T22:26:40.849Z,6,GR86-047-21,-3.3000000000000003,0.133,-0.085,99.97,3.0,,0.0,0.0,
2025-08-14T22:26:40.893Z,6,GR86-047-21,-3.3000000000000003,0.17,-0.088,99.98,3.0,7104.0,0.0,0.0,
2025-08-14T22:26:40.937Z,6,GR86-047-21,-3.5,0.178,-0.104,99.97,3.0,,0.0,0.0,150.58
2025-08-14T22:26:40.979Z,6,GR86-047-21,-3.5,0.191,-0.114,99.99,3.0,,0.0,0.0,
2025-08-14T22:26:41.067Z,6,GR86-047-21,-3.5,0.199,-0.104,100.0,3.0,,0.0,0.0,
2025-08-14T22:26:41.109Z,6,GR86-047-21,-3.5,0.177,-0.108,100.02,3.0,7164.0,0.0,0.0,
2025-08-14T22:26:41.153Z,6,GR86-047-21,-3.6,0.144,-0.111,100.0,3.0,,0.0,0.0,151.62
2025-08-14T22:26:41.198Z,6,GR86-047-21,-3.6,0.128,-0.089,100.0,3.0,,0.0,0.0,
2025-08-14T22:26:41.241Z,6,GR86-047-21,-3.6,0.145,-0.087,99.97,3.0,,0.0,0.0,
2025-08-14T22:26:41.287Z,6,GR86-047-21,-3.6,0.141,-0.09,100.0,3.0,,0.0,0.0,
2025-08-14T22:26:41.329Z,6,GR86-047-21,-3.6,0.139,-0.075,99.99,3.0,7228.0,0.0,0.0,
2025-08-14T22:26:41.373Z,6,GR86-047-21,-3.6,0.145,-0.074,100.02,3.0,,0.0,0.0,152.64
2025-08-14T22:26:41.416Z,6,GR86-047-21,-3.6,0.152,-0.066,100.03,3.0,,0.0,0.0,
2025-08-14T22:26:41.459Z,6,GR86-047-21,-3.6,0.169,-0.082,99.98,3.0,,0.0,0.0,
2025-08-14T22:26:41.502Z,6,GR86-047-21,-3.6,0.163,-0.085,100.01,3.0,,0.0,0.0,
2025-08-14T22:26:41.589Z,6,GR86-047-21,-3.6,0.071,-0.078,99.99,3.0,7277.0,0.0,0.0,153.76
2025-08-14T22:26:41.632Z,6,GR86-047-21,-3.6,0.059,-0.088,100.0,4.0,,0.0,0.0,
2025-08-14T22:26:41.676Z,6,GR86-047-21,-3.6,0.456,-0.13,100.0,4.0,,0.0,0.0,
2025-08-14T22:26:41.719Z,6,GR86-047-21,-3.6,0.211,-0.07,100.0,4.0,,0.0,0.0,
2025-08-14T22:26:41.761Z,6,GR86-047-21,-3.8,0.045,-0.039,100.0,4.0,6467.0,0.0,0.0,
2025-08-14T22:26:41.807Z,6,GR86-047-21,-4.0,0.123,-0.132,100.0,4.0,,0.0,0.0,154.8
2025-08-14T22:26:41.849Z,6,GR86-047-21,-4.0,0.159,-0.081,100.01,4.0,,0.0,0.0,
2025-08-14T22:26:41.893Z,6,GR86-047-21,-4.0,0.139,-0.104,99.99,4.0,,0.0,0.0,
2025-08-14T22:26:41.936Z,6,GR86-047-21,-4.0,0.134,-0.124,99.98,4.0,,0.0,0.0,
2025-08-14T22:26:41.979Z,6,GR86-047-21,-4.1000000000000005,0.137,-0.093,100.0,4.0,6204.0,0.0,0.0,
2025-08-14T22:26:42.023Z,6,GR86-047-21,-4.5,0.119,-0.129,100.01,4.0,,0.0,0.0,155.69
2025-08-14T22:26:42.067Z,6,GR86-047-21,-4.5,0.127,-0.116,100.0,4.0,,0.0,0.0,
2025-08-14T22:26:42.109Z,6,GR86-047-21,-4.5,0.149,-0.123,100.01,4.0,,0.0,0.0,
2025-08-14T22:26:42.153Z,6,GR86-047-21,-4.5,0.143,-0.142,100.0,4.0,,0.0,0.0,
2025-08-14T22:26:42.198Z,6,GR86-047-21,-4.6000000000000005,0.117,-0.139,100.0,4.0,6225.0,0.0,0.0,
2025-08-14T22:26:42.240Z,6,GR86-047-21,-4.800000000000001,0.112,-0.153,100.02,4.0,,0.0,0.0,156.71
2025-08-14T22:26:42.283Z,6,GR86-047-21,-4.9,0.12,-0.174,100.01,4.0,,0.0,0.0,
2025-08-14T22:26:42.326Z,6,GR86-047-21,-4.9,0.122,-0.139,100.0,4.0,,0.0,0.0,
2025-08-14T22:26:42.369Z,6,GR86-047-21,-5.0,0.107,-0.156,99.98,4.0,,0.0,0.0,
2025-08-14T22:26:42.412Z,6,GR86-047-21,-5.2,0.119,-0.138,100.0,4.0,6268.0,0.0,0.0,
2025-08-14T22:26:42.457Z,6,GR86-047-21,-5.300000000000001,0.122,-0.155,100.0,4.0,,0.0,0.0,157.82
2025-08-14T22:26:42.499Z,6,GR86-047-21,-5.6000000000000005,0.15,-0.173,99.99,4.0,,0.0,0.0,
2025-08-14T22:26:42.543Z,6,GR86-047-21,-6.0,0.155,-0.174,100.0,4.0,,0.0,0.0,
2025-08-14T22:26:42.587Z,6,GR86-047-21,-6.800000000000001,0.12,-0.206,100.0,4.0,,0.0,0.0,
2025-08-14T22:26:42.629Z,6,GR86-047-21,-7.5,0.126,-0.202,100.01,4.0,6314.0,0.0,0.0,
2025-08-14T22:26:42.673Z,6,GR86-047-21,-8.0,0.138,-0.209,99.99,4.0,,0.0,0.0,158.8
2025-08-14T22:26:42.716Z,6,GR86-047-21,-8.1,0.146,-0.221,100.0,4.0,,0.0,0.0,
2025-08-14T22:26:42.759Z,6,GR86-047-21,-8.1,0.145,-0.238,99.99,4.0,,0.0,0.0,
2025-08-14T22:26:42.802Z,6,GR86-047-21,-8.0,0.138,-0.237,100.0,4.0,,0.0,0.0,
2025-08-14T22:26:42.847Z,6,GR86-047-21,-8.0,0.146,-0.226,100.01,4.0,6338.0,0.0,0.0,
2025-08-14T22:26:42.889Z,6,GR86-047-21,-8.0,0.152,-0.211,99.99,4.0,,0.0,0.0,160.97
2025-08-14T22:26:42.932Z,6,GR86-047-21,-8.0,0.142,-0.232,100.0,4.0,,0.0,0.0,
2025-08-14T22:26:42.976Z,6,GR86-047-21,-8.0,0.144,-0.243,99.99,4.0,,0.0,0.0,
2025-08-14T22:26:43.019Z,6,GR86-047-21,-8.0,0.126,-0.245,99.99,4.0,,0.0,0.0,
2025-08-14T22:26:43.063Z,6,GR86-047-21,-8.0,0.1,-0.238,99.98,4.0,6377.0,0.0,0.0,
2025-08-14T22:26:43.107Z,6,GR86-047-21,-8.0,0.16,-0.268,99.99,4.0,,0.0,0.0,161.91
2025-08-14T22:26:43.149Z,6,GR86-047-21,-8.0,0.133,-0.255,100.0,4.0,,0.0,0.0,
2025-08-14T22:26:43.193Z,6,GR86-047-21,-8.0,0.117,-0.255,100.0,4.0,,0.0,0.0,
2025-08-14T22:26:43.237Z,6,GR86-047-21,-8.0,0.105,-0.245,100.0,4.0,,0.0,0.0,
2025-08-14T22:26:43.279Z,6,GR86-047-21,-8.0,0.097,-0.241,100.01,4.0,6428.0,0.0,0.0,
2025-08-14T22:26:43.323Z,6,GR86-047-21,-8.1,0.095,-0.256,99.99,4.0,,0.0,0.0,163.02
2025-08-14T22:26:43.366Z,6,GR86-047-21,-8.1,0.151,-0.25,100.0,4.0,,0.0,0.0,
2025-08-14T22:26:43.409Z,6,GR86-047-21,-8.0,0.118,-0.224,100.01,4.0,,0.0,0.0,
2025-08-14T22:26:43.453Z,6,GR86-047-21,-8.0,0.102,-0.216,100.0,4.0,,0.0,0.0,
2025-08-14T22:26:43.498Z,6,GR86-047-21,-8.0,0.099,-0.201,100.01,4.0,6489.0,0.0,0.0,
2025-08-14T22:26:43.540Z,6,GR86-047-21,-8.1,0.109,-0.196,99.98,4.0,,0.0,0.0,164.09
2025-08-14T22:26:43.583Z,6,GR86-047-21,-8.1,0.11,-0.196,100.0,4.0,,0.0,0.0,
2025-08-14T22:26:43.629Z,6,GR86-047-21,-8.0,0.124,-0.189,99.99,4.0,,0.0,0.0,
2025-08-14T22:26:43.673Z,6,GR86-047-21,-8.1,0.104,-0.203,99.99,4.0,,0.0,0.0,
2025-08-14T22:26:43.716Z,6,GR86-047-21,-8.1,0.099,-0.176,100.0,4.0,6532.0,0.0,0.0,
2025-08-14T22:26:43.759Z,6,GR86-047-21,-8.1,0.111,-0.171,99.99,4.0,,0.0,0.0,165.08
2025-08-14T22:26:43.802Z,6,GR86-047-21,-8.1,0.123,-0.168,100.0,4.0,,0.0,0.0,
2025-08-14T22:26:43.847Z,6,GR86-047-21,-8.0,0.127,-0.184,99.99,4.0,,0.0,0.0,
2025-08-14T22:26:43.889Z,6,GR86-047-21,-8.1,0.119,-0.209,100.01,4.0,,0.0,0.0,
2025-08-14T22:26:43.976Z,6,GR86-047-21,-8.0,0.123,-0.197,100.01,4.0,6582.0,0.0,0.0,165.93
2025-08-14T22:26:44.019Z,6,GR86-047-21,-8.1,0.119,-0.196,99.99,4.0,,0.0,0.0,
2025-08-14T22:26:44.063Z,6,GR86-047-21,-8.0,0.123,-0.177,100.0,4.0,,0.0,0.0,
2025-08-14T22:26:44.107Z,6,GR86-047-21,-8.1,0.116,-0.219,100.03,4.0,,0.0,0.0,
2025-08-14T22:26:44.149Z,6,GR86-047-21,-7.5,0.12,-0.202,99.99,4.0,6624.0,0.0,0.0,
2025-08-14T22:26:44.193Z,6,GR86-047-21,-7.1000000000000005,0.111,-0.18,99.99,4.0,,0.0,0.0,166.86
2025-08-14T22:26:44.237Z,6,GR86-047-21,-7.1000000000000005,0.115,-0.173,100.02,4.0,,0.0,0.0,
2025-08-14T22:26:44.279Z,6,GR86-047-21,-7.1000000000000005,0.127,-0.166,100.01,4.0,,0.0,0.0,
2025-08-14T22:26:44.323Z,6,GR86-047-21,-7.1000000000000005,0.107,-0.163,100.0,4.0,,0.0,0.0,
2025-08-14T22:26:44.366Z,6,GR86-047-21,-7.1000000000000005,0.132,-0.184,99.99,4.0,6648.0,0.0,0.0,
2025-08-14T22:26:44.409Z,6,GR86-047-21,-7.1000000000000005,0.114,-0.158,100.0,4.0,,0.0,0.0,168.07
2025-08-14T22:26:44.453Z,6,GR86-047-21,-7.2,0.117,-0.146,100.0,4.0,,0.0,0.0,
2025-08-14T22:26:44.498Z,6,GR86-047-21,-7.2,0.121,-0.155,99.99,4.0,,0.0,0.0,
2025-08-14T22:26:44.541Z,6,GR86-047-21,-7.2,0.136,-0.179,100.0,4.0,,0.0,0.0,
2025-08-14T22:26:44.587Z,6,GR86-047-21,-7.2,0.118,-0.203,99.99,4.0,6693.0,0.0,0.0,
2025-08-14T22:26:44.629Z,6,GR86-047-21,-7.2,0.115,-0.223,99.99,4.0,,0.0,0.0,169.01
2025-08-14T22:26:44.673Z,6,GR86-047-21,-7.300000000000001,0.092,-0.198,99.97,4.0,,0.0,0.0,
2025-08-14T22:26:44.716Z,6,GR86-047-21,-7.5,0.116,-0.223,99.96,4.0,,0.0,0.0,
2025-08-14T22:26:44.759Z,6,GR86-047-21,-7.6,0.102,-0.241,99.99,4.0,,0.0,0.0,
2025-08-14T22:26:44.802Z,6,GR86-047-21,-7.6,0.115,-0.236,100.0,4.0,6727.0,0.0,0.0,
2025-08-14T22:26:44.845Z,6,GR86-047-21,-7.6,0.109,-0.261,99.99,4.0,,0.0,0.0,169.96
2025-08-14T22:26:44.889Z,6,GR86-047-21,-7.6,0.09,-0.23,100.0,4.0,,0.0,0.0,
2025-08-14T22:26:44.932Z,6,GR86-047-21,-7.6,0.087,-0.242,100.0,4.0,,0.0,0.0,
2025-08-14T22:26:44.976Z,6,GR86-047-21,-7.6,0.085,-0.258,99.97,4.0,,0.0,0.0,
2025-08-14T22:26:45.019Z,6,GR86-047-21,-7.6,0.099,-0.2,99.97,4.0,6771.0,0.0,0.0,
2025-08-14T22:26:45.061Z,6,GR86-047-21,-7.6,0.093,-0.219,99.99,4.0,,0.0,0.0,170.88
2025-08-14T22:26:45.107Z,6,GR86-047-21,-7.6,0.124,-0.182,99.99,4.0,,0.0,0.0,
2025-08-14T22:26:45.149Z,6,GR86-047-21,-7.6,0.108,-0.195,99.99,4.0,,0.0,0.0,
2025-08-14T22:26:45.193Z,6,GR86-047-21,-7.6,0.108,-0.188,99.99,4.0,,0.0,0.0,
2025-08-14T22:26:45.236Z,6,GR86-047-21,-7.6,0.111,-0.206,100.0,4.0,6800.0,0.0,0.0,
2025-08-14T22:26:45.279Z,6,GR86-047-21,-7.6,0.1,-0.188,99.99,4.0,,0.0,0.0,171.87
2025-08-14T22:26:45.323Z,6,GR86-047-21,-7.6,0.082,-0.218,99.99,4.0,,0.0,0.0,
2025-08-14T22:26:45.366Z,6,GR86-047-21,-7.6,0.137,-0.148,100.0,4.0,,0.0,0.0,
2025-08-14T22:26:45.409Z,6,GR86-047-21,-7.6,0.129,-0.156,99.99,4.0,,0.0,0.0,
2025-08-14T22:26:45.453Z,6,GR86-047-21,-7.6,0.126,-0.123,99.99,4.0,6841.0,0.0,0.0,
2025-08-14T22:26:45.498Z,6,GR86-047-21,-7.6,0.137,-0.152,99.99,4.0,,0.0,0.0,173.6
2025-08-14T22:26:45.540Z,6,GR86-047-21,-7.4,0.13,-0.152,99.98,4.0,,0.0,0.0,
2025-08-14T22:26:45.583Z,6,GR86-047-21,-7.300000000000001,0.122,-0.161,99.97,4.0,,0.0,0.0,
2025-08-14T22:26:45.626Z,6,GR86-047-21,-7.300000000000001,0.105,-0.137,100.0,4.0,,0.0,0.0,
2025-08-14T22:26:45.669Z,6,GR86-047-21,-7.300000000000001,0.11,-0.13,99.96,4.0,6883.0,0.0,0.0,
2025-08-14T22:26:45.712Z,6,GR86-047-21,-7.300000000000001,0.114,-0.113,99.98,4.0,,0.0,0.0,174.6
2025-08-14T22:26:45.757Z,6,GR86-047-21,-7.300000000000001,0.116,-0.117,99.99,4.0,,0.0,0.0,
2025-08-14T22:26:45.799Z,6,GR86-047-21,-7.300000000000001,0.136,-0.119,99.99,4.0,,0.0,0.0,
2025-08-14T22:26:45.843Z,6,GR86-047-21,-7.300000000000001,0.124,-0.131,99.95,4.0,,0.0,0.0,
2025-08-14T22:26:45.887Z,6,GR86-047-21,-7.300000000000001,0.08,-0.125,100.01,4.0,6938.0,0.0,0.0,
2025-08-14T22:26:45.929Z,6,GR86-047-21,-7.300000000000001,0.082,-0.103,99.98,4.0,,0.0,0.0,175.5
2025-08-14T22:26:45.973Z,6,GR86-047-21,-7.300000000000001,0.072,-0.095,100.0,4.0,,0.0,0.0,
2025-08-14T22:26:46.016Z,6,GR86-047-21,-7.300000000000001,0.08,-0.118,100.0,4.0,,0.0,0.0,
2025-08-14T22:26:46.059Z,6,GR86-047-21,-7.300000000000001,0.086,-0.106,99.99,4.0,,0.0,0.0,
2025-08-14T22:26:46.102Z,6,GR86-047-21,-7.300000000000001,0.068,-0.136,99.99,4.0,6981.0,0.0,0.0,
2025-08-14T22:26:46.147Z,6,GR86-047-21,-7.300000000000001,0.111,-0.128,100.01,4.0,,0.0,0.0,176.32
2025-08-14T22:26:46.189Z,6,GR86-047-21,-7.300000000000001,0.115,-0.159,99.99,4.0,,0.0,0.0,
2025-08-14T22:26:46.233Z,6,GR86-047-21,-7.300000000000001,0.107,-0.149,99.97,4.0,,0.0,0.0,
2025-08-14T22:26:46.276Z,6,GR86-047-21,-7.300000000000001,0.117,-0.136,100.02,4.0,,0.0,0.0,
2025-08-14T22:26:46.319Z,6,GR86-047-21,-7.300000000000001,0.09,-0.142,100.0,4.0,7001.0,0.0,0.0,
2025-08-14T22:26:46.361Z,6,GR86-047-21,-7.300000000000001,0.094,-0.163,100.0,4.0,,0.0,0.0,177.28
2025-08-14T22:26:46.407Z,6,GR86-047-21,-7.300000000000001,0.1,-0.165,100.01,4.0,,0.0,0.0,
2025-08-14T22:26:46.449Z,6,GR86-047-21,-7.300000000000001,0.118,-0.149,100.0,4.0,,0.0,0.0,
2025-08-14T22:26:46.493Z,6,GR86-047-21,-7.300000000000001,0.088,-0.127,100.02,4.0,,0.0,0.0,
2025-08-14T22:26:46.537Z,6,GR86-047-21,-7.300000000000001,0.097,-0.13,100.03,4.0,7033.0,0.0,0.0,
2025-08-14T22:26:46.579Z,6,GR86-047-21,-7.300000000000001,0.085,-0.119,100.0,4.0,,0.0,0.0,178.0
2025-08-14T22:26:46.623Z,6,GR86-047-21,-7.300000000000001,0.102,-0.126,100.02,4.0,,0.0,0.0,
2025-08-14T22:26:46.666Z,6,GR86-047-21,-7.300000000000001,0.099,-0.153,100.0,4.0,,0.0,0.0,
2025-08-14T22:26:46.709Z,6,GR86-047-21,-7.300000000000001,0.11,-0.152,100.01,4.0,,0.0,0.0,
2025-08-14T22:26:46.753Z,6,GR86-047-21,-7.300000000000001,0.095,-0.141,100.02,4.0,7089.0,0.0,0.0,
2025-08-14T22:26:46.798Z,6,GR86-047-21,-7.300000000000001,0.077,-0.129,100.02,4.0,,0.0,0.0,178.65
2025-08-14T22:26:46.840Z,6,GR86-047-21,-7.300000000000001,0.098,-0.135,100.03,4.0,,0.0,0.0,
2025-08-14T22:26:46.929Z,6,GR86-047-21,-7.300000000000001,0.096,-0.114,100.02,4.0,,0.0,0.0,
2025-08-14T22:26:47.016Z,6,GR86-047-21,-7.2,0.097,-0.101,100.0,4.0,7106.0,0.0,0.0,179.6
2025-08-14T22:26:47.059Z,6,GR86-047-21,-7.2,0.09,-0.064,100.01,4.0,,0.0,0.0,
2025-08-14T22:26:47.102Z,6,GR86-047-21,-6.9,0.077,-0.083,99.98,4.0,,0.0,0.0,
2025-08-14T22:26:47.147Z,6,GR86-047-21,-6.0,0.083,-0.077,100.03,4.0,,0.0,0.0,
2025-08-14T22:26:47.189Z,6,GR86-047-21,-5.800000000000001,0.131,-0.096,99.99,4.0,7138.0,0.0,0.0,
2025-08-14T22:26:47.276Z,6,GR86-047-21,-5.800000000000001,0.101,-0.073,99.98,4.0,,0.0,0.0,
2025-08-14T22:26:47.319Z,6,GR86-047-21,-5.9,0.088,-0.086,100.01,4.0,,0.0,0.0,180.41
2025-08-14T22:26:47.363Z,6,GR86-047-21,-5.800000000000001,0.11,-0.071,100.02,4.0,,0.0,0.0,
2025-08-14T22:26:47.449Z,6,GR86-047-21,-5.800000000000001,0.089,-0.061,99.99,4.0,7162.0,0.0,0.0,181.18
2025-08-14T22:26:47.493Z,6,GR86-047-21,-5.800000000000001,0.103,-0.055,99.98,4.0,,0.0,0.0,
2025-08-14T22:26:47.537Z,6,GR86-047-21,-5.800000000000001,0.074,-0.055,100.01,4.0,,0.0,0.0,
2025-08-14T22:26:47.579Z,6,GR86-047-21,-5.800000000000001,0.089,-0.067,99.96,4.0,,0.0,0.0,
2025-08-14T22:26:47.623Z,6,GR86-047-21,-5.800000000000001,0.098,-0.048,100.0,4.0,7195.0,0.0,0.0,
2025-08-14T22:26:47.666Z,6,GR86-047-21,-5.6000000000000005,0.082,-0.057,99.99,4.0,,0.0,0.0,182.0
2025-08-14T22:26:47.709Z,6,GR86-047-21,-5.6000000000000005,0.096,-0.066,100.0,4.0,,0.0,0.0,
2025-08-14T22:26:47.753Z,6,GR86-047-21,-5.6000000000000005,0.085,-0.069,99.98,4.0,,0.0,0.0,
2025-08-14T22:26:47.798Z,6,GR86-047-21,-5.6000000000000005,0.074,-0.033,99.97,4.0,,0.0,0.0,
2025-08-14T22:26:47.840Z,6,GR86-047-21,-5.6000000000000005,0.091,-0.057,99.99,4.0,7227.0,0.0,0.0,
2025-08-14T22:26:47.883Z,6,GR86-047-21,-5.6000000000000005,0.069,-0.038,100.0,4.0,,0.0,0.0,182.73
2025-08-14T22:26:47.926Z,6,GR86-047-21,-5.6000000000000005,0.094,-0.059,100.01,4.0,,0.0,0.0,
2025-08-14T22:26:47.969Z,6,GR86-047-21,-5.5,0.109,-0.07,99.98,4.0,,0.0,0.0,
2025-08-14T22:26:48.012Z,6,GR86-047-21,-5.4,-0.123,-0.052,99.97,4.0,,0.0,0.0,
2025-08-14T22:26:48.057Z,6,GR86-047-21,-5.4,-0.053,-0.047,100.01,5.0,7254.0,0.0,0.0,
2025-08-14T22:26:48.099Z,6,GR86-047-21,-5.4,0.284,-0.081,100.0,5.0,,0.0,0.0,184.36
2025-08-14T22:26:48.142Z,6,GR86-047-21,-5.4,0.236,-0.062,100.0,5.0,,0.0,0.0,
2025-08-14T22:26:48.187Z,6,GR86-047-21,-5.4,-0.021,-0.027,99.99,5.0,,0.0,0.0,
2025-08-14T22:26:48.229Z,6,GR86-047-21,-5.4,0.049,-0.058,100.0,5.0,,0.0,0.0,
2025-08-14T22:26:48.273Z,6,GR86-047-21,-5.4,0.097,-0.05,99.99,5.0,6845.0,0.0,0.0,
2025-08-14T22:26:48.316Z,6,GR86-047-21,-5.4,0.052,-0.019,100.0,5.0,,0.0,0.0,184.64
2025-08-14T22:26:48.359Z,6,GR86-047-21,-5.4,0.039,-0.058,99.99,5.0,,0.0,0.0,
2025-08-14T22:26:48.402Z,6,GR86-047-21,-5.4,0.064,-0.035,100.01,5.0,,0.0,0.0,
2025-08-14T22:26:48.446Z,6,GR86-047-21,-5.4,0.1,-0.046,100.0,5.0,,0.0,0.0,
2025-08-14T22:26:48.489Z,6,GR86-047-21,-5.4,0.079,-0.029,99.99,5.0,6349.0,0.0,0.0,
2025-08-14T22:26:48.532Z,6,GR86-047-21,-5.4,0.115,-0.039,99.99,5.0,,0.0,0.0,185.44
2025-08-14T22:26:48.576Z,6,GR86-047-21,-5.4,0.087,-0.039,100.0,5.0,,0.0,0.0,
2025-08-14T22:26:48.619Z,6,GR86-047-21,-5.4,0.094,-0.049,99.98,5.0,,0.0,0.0,
2025-08-14T22:26:48.661Z,6,GR86-047-21,-5.4,0.089,-0.046,100.0,5.0,,0.0,0.0,
2025-08-14T22:26:48.707Z,6,GR86-047-21,-5.4,0.066,-0.04,100.0,5.0,6377.0,0.0,0.0,
2025-08-14T22:26:48.749Z,6,GR86-047-21,-5.4,0.076,-0.041,99.99,5.0,,0.0,0.0,186.16
2025-08-14T22:26:48.793Z,6,GR86-047-21,-5.4,0.089,-0.043,99.99,5.0,,0.0,0.0,
2025-08-14T22:26:48.836Z,6,GR86-047-21,-5.4,0.081,-0.056,99.98,5.0,,0.0,0.0,
2025-08-14T22:26:48.879Z,6,GR86-047-21,-5.4,0.087,-0.039,100.0,5.0,,0.0,0.0,
2025-08-14T22:26:48.923Z,6,GR86-047-21,-5.4,0.086,-0.044,99.98,5.0,6398.0,0.0,0.0,
2025-08-14T22:26:48.966Z,6,GR86-047-21,-5.2,0.066,-0.019,99.98,5.0,,0.0,0.0,186.8
2025-08-14T22:26:49.009Z,6,GR86-047-21,-5.2,0.064,-0.038,100.0,5.0,,0.0,0.0,
2025-08-14T22:26:49.053Z,6,GR86-047-21,-5.2,0.065,-0.056,100.0,5.0,,0.0,0.0,
2025-08-14T22:26:49.098Z,6,GR86-047-21,-5.2,0.071,-0.056,99.98,5.0,,0.0,0.0,
2025-08-14T22:26:49.140Z,6,GR86-047-21,-5.2,0.064,-0.05,99.99,5.0,6433.0,0.0,0.0,
2025-08-14T22:26:49.183Z,6,GR86-047-21,-5.2,0.059,-0.045,99.99,5.0,,0.0,0.0,187.27
2025-08-14T22:26:49.226Z,6,GR86-047-21,-5.2,0.072,-0.028,99.99,5.0,,0.0,0.0,
2025-08-14T22:26:49.269Z,6,GR86-047-21,-5.2,0.075,-0.028,100.0,5.0,,0.0,0.0,
2025-08-14T22:26:49.312Z,6,GR86-047-21,-5.1000000000000005,0.07,-0.022,99.99,5.0,,0.0,0.0,
2025-08-14T22:26:49.357Z,6,GR86-047-21,-4.9,0.059,-0.004,100.01,5.0,6441.0,0.0,0.0,
2025-08-14T22:26:49.399Z,6,GR86-047-21,-4.800000000000001,0.075,-0.031,99.99,5.0,,0.0,0.0,188.2
2025-08-14T22:26:49.443Z,6,GR86-047-21,-4.800000000000001,0.079,-0.01,99.99,5.0,,0.0,0.0,
2025-08-14T22:26:49.487Z,6,GR86-047-21,-4.800000000000001,0.065,-0.042,99.98,5.0,,0.0,0.0,
2025-08-14T22:26:49.529Z,6,GR86-047-21,-4.800000000000001,0.071,-0.025,99.99,5.0,,0.0,0.0,
2025-08-14T22:26:49.573Z,6,GR86-047-21,-4.800000000000001,0.066,-0.021,99.98,5.0,6461.0,0.0,0.0,
2025-08-14T22:26:49.616Z,6,GR86-047-21,-4.800000000000001,0.063,-0.014,100.0,5.0,,0.0,0.0,188.77
2025-08-14T22:26:49.659Z,6,GR86-047-21,-4.800000000000001,0.072,-0.032,99.99,5.0,,0.0,0.0,
2025-08-14T22:26:49.702Z,6,GR86-047-21,-4.800000000000001,0.081,-0.042,99.98,5.0,,0.0,0.0,
2025-08-14T22:26:49.747Z,6,GR86-047-21,-4.800000000000001,0.064,-0.019,99.98,5.0,,0.0,0.0,
2025-08-14T22:26:49.789Z,6,GR86-047-21,-4.800000000000001,0.065,-0.019,100.01,5.0,6485.0,0.0,0.0,
2025-08-14T22:26:49.832Z,6,GR86-047-21,-4.800000000000001,0.053,-0.014,100.0,5.0,,0.0,0.0,189.32
2025-08-14T22:26:49.876Z,6,GR86-047-21,-4.800000000000001,0.05,-0.019,99.98,5.0,,0.0,0.0,
2025-08-14T22:26:49.919Z,6,GR86-047-21,-4.800000000000001,0.05,-0.027,100.0,5.0,,0.0,0.0,
2025-08-14T22:26:49.961Z,6,GR86-047-21,-4.800000000000001,0.059,-0.013,100.0,5.0,,0.0,0.0,
2025-08-14T22:26:50.007Z,6,GR86-047-21,-4.800000000000001,0.078,-0.015,100.0,5.0,6502.0,0.0,0.0,
2025-08-14T22:26:50.049Z,6,GR86-047-21,-4.7,0.078,0.0,100.0,5.0,,0.0,0.0,190.01
2025-08-14T22:26:50.093Z,6,GR86-047-21,-4.3,0.053,-0.016,100.0,5.0,,0.0,0.0,
2025-08-14T22:26:50.137Z,6,GR86-047-21,-3.8,0.056,0.011,100.03,5.0,,0.0,0.0,
2025-08-14T22:26:50.179Z,6,GR86-047-21,-3.3000000000000003,0.052,0.016,99.98,5.0,,0.0,0.0,
2025-08-14T22:26:50.223Z,6,GR86-047-21,-3.0,0.038,0.01,99.98,5.0,6517.0,0.0,0.0,
2025-08-14T22:26:50.266Z,6,GR86-047-21,-2.5,0.092,0.028,100.0,5.0,,0.0,0.0,190.62
2025-08-14T22:26:50.309Z,6,GR86-047-21,-2.3000000000000003,0.073,0.028,99.99,5.0,,0.0,0.0,
2025-08-14T22:26:50.353Z,6,GR86-047-21,-2.1,0.069,0.046,99.99,5.0,,0.0,0.0,
2025-08-14T22:26:50.398Z,6,GR86-047-21,-2.0,0.075,0.039,99.97,5.0,,0.0,0.0,
2025-08-14T22:26:50.440Z,6,GR86-047-21,-2.0,0.048,0.05,99.97,5.0,6543.0,0.0,0.0,
2025-08-14T22:26:50.483Z,6,GR86-047-21,-2.0,0.07,0.061,100.0,5.0,,0.0,0.0,191.09
2025-08-14T22:26:50.526Z,6,GR86-047-21,-2.0,0.092,0.058,99.96,5.0,,0.0,0.0,
2025-08-14T22:26:50.569Z,6,GR86-047-21,-2.0,0.088,0.06,99.99,5.0,,0.0,0.0,
2025-08-14T22:26:50.612Z,6,GR86-047-21,-2.0,0.093,0.077,99.99,5.0,,0.0,0.0,
2025-08-14T22:26:50.657Z,6,GR86-047-21,-2.0,0.075,0.071,99.97,5.0,6566.0,0.0,0.0,
2025-08-14T22:26:50.699Z,6,GR86-047-21,-2.0,0.086,0.085,99.99,5.0,,0.0,0.0,192.11
2025-08-14T22:26:50.743Z,6,GR86-047-21,-2.0,0.065,0.073,99.98,5.0,,0.0,0.0,
2025-08-14T22:26:50.787Z,6,GR86-047-21,-2.0,0.071,0.064,99.97,5.0,,0.0,0.0,
2025-08-14T22:26:50.829Z,6,GR86-047-21,-2.0,0.091,0.063,100.0,5.0,,0.0,0.0,
2025-08-14T22:26:50.873Z,6,GR86-047-21,-2.0,0.092,0.07,100.0,5.0,6577.0,0.0,0.0,
2025-08-14T22:26:50.916Z,6,GR86-047-21,-2.0,0.083,0.061,100.01,5.0,,0.0,0.0,192.71
2025-08-14T22:26:50.959Z,6,GR86-047-21,-2.0,0.084,0.054,99.98,5.0,,0.0,0.0,
2025-08-14T22:26:51.002Z,6,GR86-047-21,-2.0,0.08,0.07,99.98,5.0,,0.0,0.0,
2025-08-14T22:26:51.047Z,6,GR86-047-21,-2.0,0.065,0.06,99.99,5.0,,0.0,0.0,
2025-08-14T22:26:51.089Z,6,GR86-047-21,-1.7000000000000002,0.074,0.06,99.99,5.0,6619.0,0.0,0.0,
2025-08-14T22:26:51.132Z,6,GR86-047-21,-0.9,0.075,0.063,99.97,5.0,,0.0,0.0,193.24
2025-08-14T22:26:51.176Z,6,GR86-047-21,0.1,0.087,0.078,99.98,5.0,,0.0,0.0,
2025-08-14T22:26:51.219Z,6,GR86-047-21,0.9,0.09,0.08,99.98,5.0,,0.0,0.0,
2025-08-14T22:26:51.263Z,6,GR86-047-21,1.7000000000000002,0.08,0.101,100.0,5.0,,0.0,0.0,
2025-08-14T22:26:51.307Z,6,GR86-047-21,2.7,0.058,0.121,99.98,5.0,6639.0,0.0,0.0,
2025-08-14T22:26:51.349Z,6,GR86-047-21,3.1,0.052,0.149,100.0,5.0,,0.0,0.0,193.92
2025-08-14T22:26:51.393Z,6,GR86-047-21,3.5,0.063,0.178,100.0,5.0,,0.0,0.0,
2025-08-14T22:26:51.437Z,6,GR86-047-21,3.8,0.084,0.196,99.99,5.0,,0.0,0.0,
2025-08-14T22:26:51.479Z,6,GR86-047-21,3.8,0.086,0.199,100.0,5.0,,0.0,0.0,
2025-08-14T22:26:51.523Z,6,GR86-047-21,3.8,0.078,0.232,100.0,5.0,6660.0,0.0,0.0,
2025-08-14T22:26:51.566Z,6,GR86-047-21,3.8,0.052,0.264,100.0,5.0,,0.0,0.0,194.64
2025-08-14T22:26:51.609Z,6,GR86-047-21,3.8,0.066,0.279,100.01,5.0,,0.0,0.0,
2025-08-14T22:26:51.653Z,6,GR86-047-21,3.8,0.074,0.29,100.0,5.0,,0.0,0.0,
2025-08-14T22:26:51.698Z,6,GR86-047-21,3.8,0.077,0.29,99.99,5.0,,0.0,0.0,
2025-08-14T22:26:51.740Z,6,GR86-047-21,3.8,0.082,0.285,100.01,5.0,6684.0,0.0,0.0,
2025-08-14T22:26:51.783Z,6,GR86-047-21,3.8,0.09,0.27,100.0,5.0,,0.0,0.0,195.27
2025-08-14T22:26:51.826Z,6,GR86-047-21,3.8,0.063,0.249,99.98,5.0,,0.0,0.0,
2025-08-14T22:26:51.869Z,6,GR86-047-21,3.8,0.069,0.244,100.0,5.0,,0.0,0.0,
2025-08-14T22:26:51.913Z,6,GR86-047-21,3.8,0.064,0.244,99.99,5.0,,0.0,0.0,
2025-08-14T22:26:51.957Z,6,GR86-047-21,3.8,0.082,0.225,100.0,5.0,6712.0,0.0,0.0,
2025-08-14T22:26:51.999Z,6,GR86-047-21,3.7,0.082,0.204,100.0,5.0,,0.0,0.0,195.87
2025-08-14T22:26:52.042Z,6,GR86-047-21,3.7,0.068,0.181,100.0,5.0,,0.0,0.0,
2025-08-14T22:26:52.087Z,6,GR86-047-21,3.5,0.06,0.174,99.99,5.0,,0.0,0.0,
2025-08-14T22:26:52.129Z,6,GR86-047-21,3.4000000000000004,0.072,0.159,99.99,5.0,,0.0,0.0,
2025-08-14T22:26:52.173Z,6,GR86-047-21,3.2,0.057,0.13,99.95,5.0,6723.0,0.0,0.0,
2025-08-14T22:26:52.216Z,6,GR86-047-21,3.2,0.068,0.123,98.35,5.0,,0.0,0.0,196.41
2025-08-14T22:26:52.259Z,6,GR86-047-21,3.2,0.078,0.102,83.64,5.0,,0.0,0.0,
2025-08-14T22:26:52.302Z,6,GR86-047-21,3.2,0.08,0.109,77.74,5.0,,0.0,0.0,
2025-08-14T22:26:52.346Z,6,GR86-047-21,3.2,0.062,0.101,52.86,5.0,,0.0,0.0,
2025-08-14T22:26:52.389Z,6,GR86-047-21,3.2,0.061,0.109,38.16,5.0,6745.0,0.0,0.0,
2025-08-14T22:26:52.433Z,6,GR86-047-21,3.2,0.037,0.116,37.88,5.0,,0.0,0.0,197.01
2025-08-14T22:26:52.476Z,6,GR86-047-21,3.2,0.024,0.106,37.96,5.0,,0.0,0.0,
2025-08-14T22:26:52.519Z,6,GR86-047-21,3.7,0.01,0.136,38.05,5.0,,0.0,0.0,
2025-08-14T22:26:52.563Z,6,GR86-047-21,3.8,0.024,0.147,38.0,5.0,,0.0,0.0,
2025-08-14T22:26:52.607Z,6,GR86-047-21,4.0,0.016,0.156,37.29,5.0,6731.0,0.0,0.0,
2025-08-14T22:26:52.649Z,6,GR86-047-21,4.2,0.012,0.147,36.63,5.0,,0.0,0.0,197.6
2025-08-14T22:26:52.693Z,6,GR86-047-21,4.5,-0.002,0.204,36.43,5.0,,0.0,0.0,
2025-08-14T22:26:52.736Z,6,GR86-047-21,4.7,0.019,0.241,36.55,5.0,,0.0,0.0,
2025-08-14T22:26:52.779Z,6,GR86-047-21,4.7,0.024,0.255,36.78,5.0,,0.0,0.0,
2025-08-14T22:26:52.823Z,6,GR86-047-21,4.800000000000001,0.006,0.297,37.1,5.0,6751.0,0.0,0.0,
2025-08-14T22:26:52.866Z,6,GR86-047-21,5.300000000000001,-0.002,0.306,37.6,5.0,,0.0,0.0,197.93
2025-08-14T22:26:52.909Z,6,GR86-047-21,5.4,0.01,0.323,38.8,5.0,,0.0,0.0,
2025-08-14T22:26:52.953Z,6,GR86-047-21,5.4,0.017,0.329,39.64,5.0,,0.0,0.0,
2025-08-14T22:26:52.998Z,6,GR86-047-21,5.6000000000000005,0.017,0.343,39.57,5.0,,0.0,0.0,
2025-08-14T22:26:53.040Z,6,GR86-047-21,5.6000000000000005,0.034,0.334,39.13,5.0,6757.0,0.0,0.0,
2025-08-14T22:26:53.083Z,6,GR86-047-21,5.6000000000000005,0.028,0.348,38.89,5.0,,0.0,0.0,198.24
2025-08-14T22:26:53.126Z,6,GR86-047-21,5.6000000000000005,0.013,0.332,38.67,5.0,,0.0,0.0,
2025-08-14T22:26:53.169Z,6,GR86-047-21,5.6000000000000005,0.026,0.327,38.58,5.0,,0.0,0.0,
2025-08-14T22:26:53.213Z,6,GR86-047-21,5.6000000000000005,0.023,0.311,38.22,5.0,,0.0,0.0,
2025-08-14T22:26:53.257Z,6,GR86-047-21,5.6000000000000005,0.031,0.35,37.44,5.0,6774.0,0.0,0.0,
2025-08-14T22:26:53.299Z,6,GR86-047-21,5.6000000000000005,0.035,0.356,36.61,5.0,,0.0,0.0,198.64
2025-08-14T22:26:53.343Z,6,GR86-047-21,5.6000000000000005,0.024,0.34,36.15,5.0,,0.0,0.0,
2025-08-14T22:26:53.387Z,6,GR86-047-21,5.6000000000000005,0.011,0.302,34.32,5.0,,0.0,0.0,
2025-08-14T22:26:53.429Z,6,GR86-047-21,5.6000000000000005,0.031,0.268,32.980000000000004,5.0,,0.0,0.0,
2025-08-14T22:26:53.473Z,6,GR86-047-21,5.6000000000000005,0.024,0.267,32.84,5.0,6776.0,0.0,0.0,
2025-08-14T22:26:53.559Z,6,GR86-047-21,5.6000000000000005,0.006,0.273,32.84,5.0,,0.0,0.0,198.93
2025-08-14T22:26:53.602Z,6,GR86-047-21,5.6000000000000005,-0.01,0.279,32.53,5.0,,0.0,0.0,
2025-08-14T22:26:53.647Z,6,GR86-047-21,5.6000000000000005,0.014,0.266,31.69,5.0,,0.0,0.0,
2025-08-14T22:26:53.689Z,6,GR86-047-21,5.6000000000000005,0.013,0.259,31.24,5.0,6776.0,0.0,0.0,
2025-08-14T22:26:53.732Z,6,GR86-047-21,5.6000000000000005,0.002,0.268,29.51,5.0,,0.0,0.0,198.88
2025-08-14T22:26:53.776Z,6,GR86-047-21,5.6000000000000005,-0.004,0.256,23.72,5.0,,0.0,0.0,
2025-08-14T22:26:53.819Z,6,GR86-047-21,5.300000000000001,-0.018,0.239,19.22,5.0,,0.0,0.0,
2025-08-14T22:26:53.861Z,6,GR86-047-21,5.1000000000000005,-0.052,0.233,14.16,5.0,,0.0,0.0,
2025-08-14T22:26:53.907Z,6,GR86-047-21,5.0,-0.075,0.235,9.21,5.0,6747.0,0.0,0.0,
2025-08-14T22:26:53.949Z,6,GR86-047-21,5.0,-0.109,0.241,7.66,5.0,,0.0,0.0,199.16
2025-08-14T22:26:53.993Z,6,GR86-047-21,5.0,-0.136,0.249,6.28,5.0,,3.875,4.0600000000000005,
2025-08-14T22:26:54.037Z,6,GR86-047-21,5.0,-0.184,0.246,3.95,5.0,,4.805,4.99,
2025-08-14T22:26:54.079Z,6,GR86-047-21,5.0,-0.321,0.228,3.64,5.0,,6.365,6.485,
2025-08-14T22:26:54.123Z,6,GR86-047-21,5.0,-0.364,0.207,3.27,5.0,6563.0,8.605,8.73,
2025-08-14T22:26:54.166Z,6,GR86-047-21,5.0,-0.344,0.179,2.85,5.0,,12.53,12.56,199.37
2025-08-14T22:26:54.209Z,6,GR86-047-21,3.5,-0.464,0.19,2.68,5.0,,15.475,15.535,
2025-08-14T22:26:54.253Z,6,GR86-047-21,2.9000000000000004,-0.544,0.184,2.61,5.0,,19.52,19.55,
2025-08-14T22:26:54.298Z,6,GR86-047-21,2.6,-0.631,0.174,2.56,5.0,,24.4,24.28,
2025-08-14T22:26:54.340Z,6,GR86-047-21,2.5,-0.6970000000000001,0.166,2.5500000000000003,5.0,6514.0,28.52,28.4,
2025-08-14T22:26:54.383Z,6,GR86-047-21,2.5,-0.758,0.161,2.53,5.0,,31.205,31.085,196.37
2025-08-14T22:26:54.429Z,6,GR86-047-21,2.4000000000000004,-0.783,0.154,2.49,5.0,,33.525,33.345,
2025-08-14T22:26:54.473Z,6,GR86-047-21,2.4000000000000004,-0.839,0.146,2.46,5.0,,35.02,34.93,
2025-08-14T22:26:54.516Z,6,GR86-047-21,1.6,-0.869,0.144,2.46,5.0,,35.86,35.71,
2025-08-14T22:26:54.559Z,6,GR86-047-21,0.3,-0.853,0.112,2.47,5.0,6269.0,35.265,35.465,
2025-08-14T22:26:54.602Z,6,GR86-047-21,-0.5,-0.8260000000000001,0.109,2.46,5.0,,31.865,33.025,191.14
2025-08-14T22:26:54.647Z,6,GR86-047-21,-0.5,-0.674,0.084,2.46,5.0,,24.43,25.895,
2025-08-14T22:26:54.689Z,6,GR86-047-21,-0.5,-0.633,0.085,2.46,5.0,,21.56,22.815,
2025-08-14T22:26:54.732Z,6,GR86-047-21,0.4,-0.608,0.076,2.47,5.0,,20.115,21.21,
2025-08-14T22:26:54.776Z,6,GR86-047-21,1.1,-0.581,0.082,2.47,5.0,6091.0,19.425,20.51,
2025-08-14T22:26:54.819Z,6,GR86-047-21,1.6,-0.579,0.087,2.48,5.0,,19.425,20.295,184.47
2025-08-14T22:26:54.861Z,6,GR86-047-21,1.6,-0.5690000000000001,0.089,2.48,5.0,,19.825,20.6,
2025-08-14T22:26:54.907Z,6,GR86-047-21,1.5,-0.593,0.077,2.48,5.0,,21.18,21.41,
2025-08-14T22:26:54.949Z,6,GR86-047-21,1.5,-0.647,0.069,2.49,5.0,,22.875,22.995,
2025-08-14T22:26:54.993Z,6,GR86-047-21,1.5,-0.662,0.056,2.47,5.0,6042.0,26.26,26.14,
2025-08-14T22:26:55.037Z,6,GR86-047-21,2.2,-0.743,0.094,2.49,5.0,,29.865,29.65,181.19
2025-08-14T22:26:55.079Z,6,GR86-047-21,2.2,-0.715,0.106,2.49,5.0,,32.715,32.595,
2025-08-14T22:26:55.123Z,6,GR86-047-21,2.2,-0.748,0.111,2.48,5.0,,34.03,34.03,
2025-08-14T22:26:55.166Z,6,GR86-047-21,2.2,-0.914,0.161,2.48,5.0,,37.42,37.11,
2025-08-14T22:26:55.209Z,6,GR86-047-21,2.2,-0.933,0.141,22.29,5.0,5900.0,39.34,39.095,
2025-08-14T22:26:55.253Z,6,GR86-047-21,2.2,-0.986,0.179,66.66,5.0,,38.96,39.095,177.61
2025-08-14T22:26:55.298Z,6,GR86-047-21,2.1,-0.847,0.187,99.37,5.0,,35.405,36.61,
2025-08-14T22:26:55.340Z,6,GR86-047-21,1.4,-0.726,0.206,79.4,4.0,,31.235,32.9,
2025-08-14T22:26:55.383Z,6,GR86-047-21,0.3,-0.678,0.191,13.42,4.0,,27.255,28.81,
2025-08-14T22:26:55.426Z,6,GR86-047-21,-1.2000000000000002,-0.745,0.233,4.65,4.0,5640.0,19.87,21.21,
2025-08-14T22:26:55.512Z,6,GR86-047-21,-1.2000000000000002,-0.5640000000000001,0.192,4.21,4.0,,16.8,18.055,172.38
2025-08-14T22:26:55.557Z,6,GR86-047-21,-1.2000000000000002,-0.466,0.26,3.42,4.0,,14.91,15.78,
2025-08-14T22:26:55.599Z,6,GR86-047-21,-1.3,-0.48,0.174,3.09,4.0,,14.94,15.72,
2025-08-14T22:26:55.643Z,6,GR86-047-21,-1.3,-0.454,0.146,2.78,4.0,6356.0,15.335,15.84,
2025-08-14T22:26:55.687Z,6,GR86-047-21,-1.3,-0.515,0.119,2.61,4.0,,15.87,16.145,164.89
2025-08-14T22:26:55.729Z,6,GR86-047-21,-1.3,-0.518,0.092,2.56,4.0,,16.28,16.62,
2025-08-14T22:26:55.773Z,6,GR86-047-21,-1.2000000000000002,-0.479,0.091,2.53,4.0,,16.86,17.09,
2025-08-14T22:26:55.816Z,6,GR86-047-21,-0.1,-0.488,0.056,2.49,4.0,,17.335,17.455000000000002,
2025-08-14T22:26:55.859Z,6,GR86-047-21,-0.1,-0.49,0.034,2.49,4.0,6355.0,17.490000000000002,17.715,
2025-08-14T22:26:55.902Z,6,GR86-047-21,-0.1,-0.528,0.007,2.47,4.0,,18.055,18.175,162.34
2025-08-14T22:26:55.945Z,6,GR86-047-21,-0.1,-0.588,-0.01,2.47,4.0,,22.555,22.4,
2025-08-14T22:26:55.989Z,6,GR86-047-21,-0.2,-0.637,-0.005,2.46,4.0,,26.535,26.2,
2025-08-14T22:26:56.031Z,6,GR86-047-21,-0.2,-0.739,-0.009,2.46,4.0,,30.765,30.55,
2025-08-14T22:26:56.076Z,6,GR86-047-21,-0.2,-0.8290000000000001,-0.025,2.46,4.0,6220.0,35.375,34.99,
2025-08-14T22:26:56.119Z,6,GR86-047-21,-0.2,-0.915,-0.014,15.73,4.0,,40.395,39.845,158.24
2025-08-14T22:26:56.161Z,6,GR86-047-21,0.2,-0.942,-0.005,59.69,4.0,,45.9,45.4,
2025-08-14T22:26:56.207Z,6,GR86-047-21,2.1,-1.069,0.029,99.89,4.0,,54.235,53.545,
2025-08-14T22:26:56.249Z,6,GR86-047-21,2.1,-1.22,0.042,73.05,3.0,,58.585,58.965,
2025-08-14T22:26:56.293Z,6,GR86-047-21,2.1,-1.075,0.039,7.19,3.0,6420.0,61.485,62.72,
2025-08-14T22:26:56.336Z,6,GR86-047-21,2.1,-1.062,0.022,4.34,3.0,,61.055,61.175,151.43
2025-08-14T22:26:56.379Z,6,GR86-047-21,3.4000000000000004,-1.081,0.093,3.87,3.0,,62.595,64.0,
2025-08-14T22:26:56.466Z,6,GR86-047-21,6.300000000000001,-0.944,-0.023,3.48,3.0,,60.46,61.88,
2025-08-14T22:26:56.509Z,6,GR86-047-21,9.7,-0.875,0.131,2.72,3.0,6363.0,57.895,58.875,
2025-08-14T22:26:56.553Z,6,GR86-047-21,10.2,-0.998,0.073,2.62,3.0,,56.78,57.895,140.05
2025-08-14T22:26:56.598Z,6,GR86-047-21,10.0,-1.004,0.15,2.56,3.0,,55.67,56.66,
2025-08-14T22:26:56.640Z,6,GR86-047-21,9.7,-1.073,0.148,2.53,3.0,,57.5,58.28,
2025-08-14T22:26:56.726Z,6,GR86-047-21,8.9,-1.032,0.115,2.5,3.0,6000.0,59.055,59.21,
2025-08-14T22:26:56.812Z,6,GR86-047-21,10.1,-1.009,0.211,2.47,3.0,,59.24,60.49,135.63
2025-08-14T22:26:56.857Z,6,GR86-047-21,10.1,-1.059,0.206,2.5,3.0,,59.745000000000005,60.615,
2025-08-14T22:26:56.899Z,6,GR86-047-21,10.1,-1.049,0.268,24.47,3.0,,62.505,62.625,
2025-08-14T22:26:56.943Z,6,GR86-047-21,10.5,-1.041,0.287,68.39,3.0,5681.0,63.285,63.68,
2025-08-14T22:26:56.987Z,6,GR86-047-21,10.4,-1.02,0.187,100.09,3.0,,64.215,65.58500000000001,130.35
2025-08-14T22:26:57.029Z,6,GR86-047-21,10.4,-1.044,0.251,91.69,2.0,,66.33500000000001,67.615,
2025-08-14T22:26:57.073Z,6,GR86-047-21,10.1,-0.861,0.231,24.55,2.0,,65.36,67.05,
2025-08-14T22:26:57.116Z,6,GR86-047-21,9.1,-0.669,0.232,3.97,2.0,,63.495000000000005,63.925,
2025-08-14T22:26:57.159Z,6,GR86-047-21,9.1,-1.156,0.147,3.38,2.0,6327.0,60.705,61.3,
2025-08-14T22:26:57.202Z,6,GR86-047-21,9.1,-0.593,0.329,2.99,2.0,,60.645,62.245000000000005,124.53
2025-08-14T22:26:57.247Z,6,GR86-047-21,9.1,-0.874,0.148,2.69,2.0,,57.835,58.31,
2025-08-14T22:26:57.333Z,6,GR86-047-21,12.3,-0.704,0.348,2.53,2.0,,66.64,67.905,
2025-08-14T22:26:57.376Z,6,GR86-047-21,15.1,-1.017,0.151,2.52,2.0,6248.0,59.865,60.2,
2025-08-14T22:26:57.419Z,6,GR86-047-21,17.8,-1.125,0.369,2.5,2.0,,59.865,60.05,113.04
2025-08-14T22:26:57.461Z,6,GR86-047-21,19.9,-0.93,0.316,2.48,2.0,,66.045,67.205,
2025-08-14T22:26:57.507Z,6,GR86-047-21,20.1,-0.975,0.186,2.48,2.0,,63.055,63.115,
2025-08-14T22:26:57.549Z,6,GR86-047-21,24.3,-0.928,0.306,2.47,2.0,,66.185,65.985,
2025-08-14T22:26:57.593Z,6,GR86-047-21,26.8,-0.746,0.178,2.47,2.0,6250.0,66.73,67.02,
2025-08-14T22:26:57.637Z,6,GR86-047-21,27.200000000000003,-0.87,0.354,2.46,2.0,,66.99,67.465,110.93
2025-08-14T22:26:57.679Z,6,GR86-047-21,30.200000000000003,-0.929,0.366,2.47,2.0,,68.805,69.28,
2025-08-14T22:26:57.723Z,6,GR86-047-21,30.8,-1.0,0.369,2.46,2.0,,70.655,70.685,
2025-08-14T22:26:57.766Z,6,GR86-047-21,33.4,-1.072,0.293,2.5,2.0,,73.995,74.315,
2025-08-14T22:26:57.809Z,6,GR86-047-21,35.7,-0.946,0.375,31.43,2.0,5794.0,75.43,75.705,
2025-08-14T22:26:57.853Z,6,GR86-047-21,35.7,-0.935,0.499,75.06,1.0,,78.74,78.71000000000001,103.25
2025-08-14T22:26:57.898Z,6,GR86-047-21,37.5,-1.05,0.287,38.22,1.0,,82.925,82.65,
2025-08-14T22:26:57.983Z,6,GR86-047-21,38.1,-1.027,0.451,5.44,1.0,,86.645,87.775,
2025-08-14T22:26:58.029Z,6,GR86-047-21,42.2,-1.11,0.302,3.93,1.0,5495.0,67.42,67.845,
2025-08-14T22:26:58.073Z,6,GR86-047-21,42.5,-0.681,0.654,3.37,1.0,,63.025,64.365,99.32
2025-08-14T22:26:58.116Z,6,GR86-047-21,42.5,-0.741,0.491,3.01,1.0,,56.995000000000005,57.56,
2025-08-14T22:26:58.159Z,6,GR86-047-21,44.5,-1.107,0.424,2.72,1.0,,55.395,55.975,
2025-08-14T22:26:58.247Z,6,GR86-047-21,45.900000000000006,-0.787,0.989,2.59,1.0,6046.0,55.18,56.185,
2025-08-14T22:26:58.289Z,6,GR86-047-21,54.3,-0.865,1.04,2.53,1.0,,54.05,54.8,86.45
2025-08-14T22:26:58.333Z,6,GR86-047-21,59.5,-0.6990000000000001,0.49,2.49,1.0,,50.845,51.685,
2025-08-14T22:26:58.376Z,6,GR86-047-21,61.7,-0.937,0.435,2.5,1.0,,48.925,49.17,
2025-08-14T22:26:58.419Z,6,GR86-047-21,65.10000000000001,-0.735,0.8150000000000001,2.49,1.0,,48.025,48.83,
2025-08-14T22:26:58.463Z,6,GR86-047-21,70.2,-0.771,0.481,2.49,1.0,5973.0,45.065,45.935,
2025-08-14T22:26:58.507Z,6,GR86-047-21,76.2,-0.715,0.874,2.49,1.0,,37.355,37.74,83.05
2025-08-14T22:26:58.549Z,6,GR86-047-21,80.60000000000001,-0.717,0.645,2.46,1.0,,37.385,38.045,
2025-08-14T22:26:58.593Z,6,GR86-047-21,85.30000000000001,-0.686,0.639,2.47,1.0,,35.34,36.275,
2025-08-14T22:26:58.637Z,6,GR86-047-21,88.5,-0.612,0.8190000000000001,2.49,1.0,,33.315,33.71,
2025-08-14T22:26:58.679Z,6,GR86-047-21,91.9,-0.719,0.542,2.47,1.0,5734.0,32.410000000000004,33.055,
2025-08-14T22:26:58.723Z,6,GR86-047-21,96.0,-0.6910000000000001,0.66,2.46,1.0,,32.655,33.19,80.2
2025-08-14T22:26:58.766Z,6,GR86-047-21,98.4,-0.623,0.677,2.46,1.0,,25.15,25.745,
2025-08-14T22:26:58.809Z,6,GR86-047-21,99.1,-0.632,0.724,2.46,1.0,,24.37,25.025,
2025-08-14T22:26:58.853Z,6,GR86-047-21,100.0,-0.557,0.81,2.47,1.0,,22.995,23.685,
2025-08-14T22:26:58.898Z,6,GR86-047-21,101.2,-0.561,0.743,2.47,1.0,5234.0,20.785,21.625,
2025-08-14T22:26:58.940Z,6,GR86-047-21,101.8,-0.486,0.84,2.47,1.0,,19.045,19.79,76.67
2025-08-14T22:26:58.983Z,6,GR86-047-21,101.8,-0.435,0.863,2.47,1.0,,13.825,14.575,
2025-08-14T22:26:59.026Z,6,GR86-047-21,101.8,-0.267,0.912,2.47,1.0,,1.925,2.395,
2025-08-14T22:26:59.069Z,6,GR86-047-21,101.8,-0.262,0.921,2.46,1.0,,0.0,0.0,
2025-08-14T22:26:59.112Z,6,GR86-047-21,101.8,-0.253,0.95,2.47,1.0,5025.0,0.0,0.0,
2025-08-14T22:26:59.157Z,6,GR86-047-21,101.8,-0.218,0.911,2.47,1.0,,0.0,0.0,73.73
2025-08-14T22:26:59.199Z,6,GR86-047-21,101.8,-0.194,0.941,2.49,1.0,,0.0,0.0,
2025-08-14T22:26:59.242Z,6,GR86-047-21,101.8,-0.194,0.981,2.47,1.0,,0.0,0.0,
2025-08-14T22:26:59.287Z,6,GR86-047-21,101.8,-0.178,0.968,2.46,1.0,,0.0,0.0,
2025-08-14T22:26:59.329Z,6,GR86-047-21,101.8,-0.185,0.991,2.48,1.0,5029.0,0.0,0.0,
2025-08-14T22:26:59.373Z,6,GR86-047-21,101.8,-0.19,0.985,2.46,1.0,,0.0,0.0,72.3
2025-08-14T22:26:59.416Z,6,GR86-047-21,101.8,-0.192,0.972,2.46,1.0,,0.0,0.0,
2025-08-14T22:26:59.459Z,6,GR86-047-21,101.8,-0.198,1.022,2.46,1.0,,0.0,0.0,
2025-08-14T22:26:59.502Z,6,GR86-047-21,101.8,-0.18,0.967,2.48,1.0,,0.0,0.0,
2025-08-14T22:26:59.545Z,6,GR86-047-21,101.8,-0.177,1.004,2.46,1.0,4918.0,0.0,0.0,
2025-08-14T22:26:59.589Z,6,GR86-047-21,101.8,-0.197,1.018,2.48,1.0,,0.0,0.0,70.8
2025-08-14T22:26:59.631Z,6,GR86-047-21,101.8,-0.187,0.987,3.58,1.0,,0.0,0.0,
2025-08-14T22:26:59.675Z,6,GR86-047-21,101.8,-0.185,1.032,18.65,1.0,,0.0,0.0,
2025-08-14T22:26:59.719Z,6,GR86-047-21,101.8,-0.179,1.005,20.11,1.0,,0.0,0.0,
2025-08-14T22:26:59.761Z,6,GR86-047-21,101.8,-0.161,1.003,22.06,1.0,4804.0,0.0,0.0,
2025-08-14T22:26:59.807Z,6,GR86-047-21,103.9,-0.117,0.999,35.19,1.0,,0.0,0.0,69.06
2025-08-14T22:26:59.849Z,6,GR86-047-21,105.2,-0.115,1.018,37.83,1.0,,0.0,0.0,
2025-08-14T22:26:59.893Z,6,GR86-047-21,105.5,-0.074,1.053,37.09,1.0,,0.0,0.0,
2025-08-14T22:26:59.936Z,6,GR86-047-21,105.5,0.191,0.976,33.99,1.0,,0.0,0.0,
2025-08-14T22:26:59.979Z,6,GR86-047-21,105.5,0.229,0.883,32.18,1.0,5022.0,0.0,0.0,
2025-08-14T22:27:00.067Z,6,GR86-047-21,105.5,0.333,0.951,31.98,1.0,,0.0,0.0,67.59
2025-08-14T22:27:00.109Z,6,GR86-047-21,105.5,0.291,0.934,25.98,1.0,,0.0,0.0,
2025-08-14T22:27:00.153Z,6,GR86-047-21,105.5,0.2,0.934,25.96,1.0,,0.0,0.0,
2025-08-14T22:27:00.198Z,6,GR86-047-21,105.5,0.158,0.944,24.85,1.0,5304.0,0.0,0.0,
2025-08-14T22:27:00.240Z,6,GR86-047-21,105.5,0.115,1.042,25.11,1.0,,0.0,0.0,66.68
2025-08-14T22:27:00.283Z,6,GR86-047-21,105.5,0.114,0.964,25.54,1.0,,0.0,0.0,
2025-08-14T22:27:00.326Z,6,GR86-047-21,105.5,0.153,0.986,29.81,1.0,,0.0,0.0,
2025-08-14T22:27:00.369Z,6,GR86-047-21,105.5,0.18,0.907,32.24,1.0,,0.0,0.0,
2025-08-14T22:27:00.412Z,6,GR86-047-21,105.5,0.192,0.908,31.89,1.0,5207.0,0.0,0.0,
2025-08-14T22:27:00.457Z,6,GR86-047-21,105.5,0.169,0.925,31.29,1.0,,0.0,0.0,67.73
2025-08-14T22:27:00.499Z,6,GR86-047-21,105.5,0.173,0.906,29.41,1.0,,0.0,0.0,
2025-08-14T22:27:00.543Z,6,GR86-047-21,102.1,0.19,0.915,29.11,1.0,,0.0,0.0,
2025-08-14T22:27:00.587Z,6,GR86-047-21,98.6,0.211,0.854,29.14,1.0,,0.0,0.0,
2025-08-14T22:27:00.629Z,6,GR86-047-21,100.3,0.23,0.89,30.93,1.0,5283.0,0.0,0.0,
2025-08-14T22:27:00.673Z,6,GR86-047-21,109.2,0.193,0.862,36.97,1.0,,0.0,0.0,68.77
2025-08-14T22:27:00.716Z,6,GR86-047-21,115.8,0.165,0.887,36.71,1.0,,0.0,0.0,
2025-08-14T22:27:00.759Z,6,GR86-047-21,116.9,0.149,0.94,36.82,1.0,,0.0,0.0,
2025-08-14T22:27:00.802Z,6,GR86-047-21,116.9,0.17,0.908,37.34,1.0,,0.0,0.0,
2025-08-14T22:27:00.847Z,6,GR86-047-21,112.5,0.227,0.881,38.25,1.0,5342.0,0.0,0.0,
2025-08-14T22:27:00.889Z,6,GR86-047-21,109.8,0.241,0.8240000000000001,38.23,1.0,,0.0,0.0,70.9
2025-08-14T22:27:00.932Z,6,GR86-047-21,107.8,0.24,0.862,44.29,1.0,,0.0,0.0,
2025-08-14T22:27:00.976Z,6,GR86-047-21,105.4,0.211,0.847,59.68,1.0,,0.0,0.0,
2025-08-14T22:27:01.019Z,6,GR86-047-21,103.0,0.216,0.902,60.91,1.0,,0.0,0.0,
2025-08-14T22:27:01.061Z,6,GR86-047-21,100.5,0.216,0.868,75.02,1.0,5517.0,0.0,0.0,
2025-08-14T22:27:01.107Z,6,GR86-047-21,96.2,0.29,0.788,99.74,1.0,,0.0,0.0,72.13
2025-08-14T22:27:01.149Z,6,GR86-047-21,93.1,0.328,0.796,88.5,1.0,,0.0,0.0,
2025-08-14T22:27:01.193Z,6,GR86-047-21,89.7,0.326,0.785,83.52,1.0,,0.0,0.0,
2025-08-14T22:27:01.237Z,6,GR86-047-21,87.30000000000001,0.314,0.839,84.07000000000001,1.0,,0.0,0.0,
2025-08-14T22:27:01.279Z,6,GR86-047-21,86.80000000000001,0.28,0.888,77.11,1.0,5643.0,0.0,0.0,
2025-08-14T22:27:01.323Z,6,GR86-047-21,86.80000000000001,0.276,0.779,68.39,1.0,,0.0,0.0,73.43
2025-08-14T22:27:01.366Z,6,GR86-047-21,90.0,0.289,0.883,64.09,1.0,,0.0,0.0,
2025-08-14T22:27:01.409Z,6,GR86-047-21,91.6,0.27,0.856,62.59,1.0,,0.0,0.0,
2025-08-14T22:27:01.540Z,6,GR86-047-21,91.8,0.269,0.712,61.98,1.0,5985.0,0.0,0.0,75.39
2025-08-14T22:27:01.583Z,6,GR86-047-21,78.7,0.28,0.388,57.33,1.0,,0.0,0.0,
2025-08-14T22:27:01.673Z,6,GR86-047-21,35.0,-0.022,0.84,60.85,1.0,,0.0,0.0,
2025-08-14T22:27:01.759Z,6,GR86-047-21,-19.700000000000003,0.229,0.351,62.190000000000005,1.0,6252.0,0.0,0.0,77.4
2025-08-14T22:27:01.802Z,6,GR86-047-21,-41.8,0.14,0.64,93.05,1.0,,0.0,0.0,
2025-08-14T22:27:01.847Z,6,GR86-047-21,-58.2,-0.011,0.419,99.93,1.0,,0.0,0.0,
2025-08-14T22:27:01.932Z,6,GR86-047-21,-62.900000000000006,0.325,0.169,100.02,1.0,6564.0,0.0,0.0,
2025-08-14T22:27:01.976Z,6,GR86-047-21,-62.900000000000006,0.225,0.5690000000000001,99.99,1.0,,0.0,0.0,79.14
2025-08-14T22:27:02.019Z,6,GR86-047-21,-63.2,0.342,0.556,99.99,1.0,,0.0,0.0,
2025-08-14T22:27:02.063Z,6,GR86-047-21,-68.4,0.226,0.613,100.02,1.0,,0.0,0.0,
2025-08-14T22:27:02.107Z,6,GR86-047-21,-72.5,0.458,0.357,100.01,1.0,,0.0,0.0,
2025-08-14T22:27:02.149Z,6,GR86-047-21,-72.10000000000001,0.127,0.29,100.02,1.0,7049.0,0.0,0.0,
2025-08-14T22:27:02.193Z,6,GR86-047-21,-58.6,0.282,0.492,100.03,1.0,,0.0,0.0,80.16
2025-08-14T22:27:02.237Z,6,GR86-047-21,-36.2,0.584,0.582,100.02,1.0,,0.0,0.0,
2025-08-14T22:27:02.279Z,6,GR86-047-21,-19.6,0.319,0.5,100.04,1.0,,0.0,0.0,
2025-08-14T22:27:02.366Z,6,GR86-047-21,-34.7,0.167,0.532,99.99,1.0,7205.0,0.0,0.0,
2025-08-14T22:27:02.409Z,6,GR86-047-21,-49.3,0.181,0.339,100.0,1.0,,0.0,0.0,80.66
2025-08-14T22:27:02.453Z,6,GR86-047-21,-62.5,0.405,0.577,100.04,1.0,,0.0,0.0,
2025-08-14T22:27:02.540Z,6,GR86-047-21,-80.80000000000001,0.185,0.266,100.02,1.0,,0.0,0.0,
2025-08-14T22:27:02.583Z,6,GR86-047-21,-86.80000000000001,0.142,0.492,100.01,1.0,7345.0,0.0,0.0,
2025-08-14T22:27:02.626Z,6,GR86-047-21,-92.2,0.31,0.44,100.02,1.0,,0.0,0.0,81.93
2025-08-14T22:27:02.669Z,6,GR86-047-21,-92.9,0.374,0.535,100.02,1.0,,0.0,0.0,
2025-08-14T22:27:02.712Z,6,GR86-047-21,-94.0,0.609,0.954,100.03,1.0,,0.0,0.0,
2025-08-14T22:27:02.757Z,6,GR86-047-21,-93.9,0.711,0.361,100.03,1.0,,0.0,0.0,
2025-08-14T22:27:02.799Z,6,GR86-047-21,-82.5,0.166,0.44,100.02,1.0,7243.0,0.0,0.0,
2025-08-14T22:27:02.843Z,6,GR86-047-21,-65.8,0.36,0.553,100.03,1.0,,0.0,0.0,84.0
2025-08-14T22:27:02.887Z,6,GR86-047-21,-30.1,0.354,0.206,100.07,1.0,,0.0,0.0,
2025-08-14T22:27:02.973Z,6,GR86-047-21,28.200000000000003,0.076,0.051,100.03,1.0,,0.0,0.0,
2025-08-14T22:27:03.016Z,6,GR86-047-21,38.0,0.436,0.148,100.03,1.0,6917.0,0.0,0.0,
2025-08-14T22:27:03.059Z,6,GR86-047-21,38.3,0.486,0.023,99.99,1.0,,0.0,0.0,85.86
2025-08-14T22:27:03.102Z,6,GR86-047-21,33.2,0.088,0.096,100.01,1.0,,0.0,0.0,
2025-08-14T22:27:03.146Z,6,GR86-047-21,25.6,0.671,-0.252,100.0,1.0,,0.0,0.0,
2025-08-14T22:27:03.189Z,6,GR86-047-21,22.1,0.595,-0.147,100.01,1.0,,0.0,0.0,
2025-08-14T22:27:03.232Z,6,GR86-047-21,21.0,-0.027,-0.206,99.99,1.0,7230.0,0.0,0.0,
2025-08-14T22:27:03.276Z,6,GR86-047-21,20.6,-0.048,0.054,100.01,1.0,,0.0,0.0,89.29
2025-08-14T22:27:03.319Z,6,GR86-047-21,18.8,0.172,-0.094,100.03,1.0,,0.0,0.0,
2025-08-14T22:27:03.361Z,6,GR86-047-21,15.8,0.443,0.112,99.99,1.0,,0.0,0.0,
2025-08-14T22:27:03.407Z,6,GR86-047-21,10.8,0.217,0.209,100.03,1.0,,0.0,0.0,
2025-08-14T22:27:03.449Z,6,GR86-047-21,7.800000000000001,0.356,0.178,100.0,1.0,7053.0,0.0,0.0,
2025-08-14T22:27:03.493Z,6,GR86-047-21,5.7,0.464,0.15,100.0,1.0,,0.0,0.0,92.6
2025-08-14T22:27:03.536Z,6,GR86-047-21,3.2,0.485,0.147,99.97,1.0,,0.0,0.0,
2025-08-14T22:27:03.579Z,6,GR86-047-21,-1.3,0.159,0.109,100.0,1.0,,0.0,0.0,
2025-08-14T22:27:03.623Z,6,GR86-047-21,-5.0,-0.108,0.037,100.03,1.0,,0.0,0.0,
2025-08-14T22:27:03.666Z,6,GR86-047-21,-8.0,0.223,0.059,100.0,1.0,7163.0,0.0,0.0,
2025-08-14T22:27:03.709Z,6,GR86-047-21,-8.0,0.11,0.048,99.97,1.0,,0.0,0.0,94.19
2025-08-14T22:27:03.753Z,6,GR86-047-21,-8.200000000000001,0.098,0.091,100.01,1.0,,0.0,0.0,
2025-08-14T22:27:03.840Z,6,GR86-047-21,-8.4,0.072,0.084,100.03,1.0,,0.0,0.0,
2025-08-14T22:27:03.883Z,6,GR86-047-21,-8.5,0.159,0.053,100.0,1.0,7278.0,0.0,0.0,
2025-08-14T22:27:03.926Z,6,GR86-047-21,-7.4,0.065,-0.028,99.97,1.0,,0.0,0.0,96.04
2025-08-14T22:27:03.969Z,6,GR86-047-21,-5.9,-0.099,-0.004,99.98,2.0,,0.0,0.0,
2025-08-14T22:27:04.012Z,6,GR86-047-21,-5.4,0.386,-0.032,100.0,2.0,,0.0,0.0,
2025-08-14T22:27:04.057Z,6,GR86-047-21,-5.300000000000001,0.751,-0.131,99.99,2.0,,0.0,0.0,
2025-08-14T22:27:04.099Z,6,GR86-047-21,-5.300000000000001,0.731,-0.148,100.01,2.0,6393.0,0.0,0.0,
2025-08-14T22:27:04.143Z,6,GR86-047-21,-5.300000000000001,0.593,-0.068,100.01,2.0,,0.0,0.0,96.98
2025-08-14T22:27:04.187Z,6,GR86-047-21,-5.4,0.23,-0.229,100.0,2.0,,0.0,0.0,
2025-08-14T22:27:04.229Z,6,GR86-047-21,-5.5,0.239,-0.088,100.0,2.0,,0.0,0.0,
2025-08-14T22:27:04.273Z,6,GR86-047-21,-5.5,0.184,-0.219,100.0,2.0,,0.0,0.0,
2025-08-14T22:27:04.316Z,6,GR86-047-21,-5.5,0.331,-0.21,100.01,2.0,5819.0,0.0,0.0,
2025-08-14T22:27:04.402Z,6,GR86-047-21,-5.5,0.316,-0.187,100.03,2.0,,0.0,0.0,99.16
2025-08-14T22:27:04.489Z,6,GR86-047-21,-5.5,0.302,-0.151,100.01,2.0,,0.0,0.0,
2025-08-14T22:27:04.533Z,6,GR86-047-21,-5.5,0.281,-0.152,100.0,2.0,5950.0,0.0,0.0,
2025-08-14T22:27:04.619Z,6,GR86-047-21,-5.5,0.25,-0.144,100.01,2.0,,0.0,0.0,100.91
2025-08-14T22:27:04.707Z,6,GR86-047-21,-5.5,0.282,-0.139,100.01,2.0,,0.0,0.0,
2025-08-14T22:27:04.749Z,6,GR86-047-21,-5.5,0.289,-0.146,100.0,2.0,6052.0,0.0,0.0,
2025-08-14T22:27:04.793Z,6,GR86-047-21,-5.5,0.299,-0.142,100.01,2.0,,0.0,0.0,102.58
2025-08-14T22:27:04.837Z,6,GR86-047-21,-5.5,0.242,-0.122,100.01,2.0,,0.0,0.0,
2025-08-14T22:27:04.879Z,6,GR86-047-21,-5.5,0.259,-0.133,100.0,2.0,,0.0,0.0,
2025-08-14T22:27:04.923Z,6,GR86-047-21,-5.5,0.237,-0.109,100.0,2.0,,0.0,0.0,
2025-08-14T22:27:04.966Z,6,GR86-047-21,-5.5,0.257,-0.096,100.03,2.0,6087.0,0.0,0.0,
2025-08-14T22:27:05.009Z,6,GR86-047-21,-5.5,0.297,-0.107,100.0,2.0,,0.0,0.0,104.15
2025-08-14T22:27:05.051Z,6,GR86-047-21,-5.5,0.264,-0.087,100.0,2.0,,0.0,0.0,
2025-08-14T22:27:05.095Z,6,GR86-047-21,-5.5,0.26,-0.092,100.01,2.0,,0.0,0.0,
2025-08-14T22:27:05.137Z,6,GR86-047-21,-5.5,0.256,-0.091,100.0,2.0,,0.0,0.0,
2025-08-14T22:27:05.180Z,6,GR86-047-21,-5.5,0.243,-0.076,100.0,2.0,6185.0,0.0,0.0,
2025-08-14T22:27:05.223Z,6,GR86-047-21,-5.5,0.281,-0.091,100.01,2.0,,0.0,0.0,105.66
2025-08-14T22:27:05.266Z,6,GR86-047-21,-5.5,0.283,-0.086,100.0,2.0,,0.0,0.0,
2025-08-14T22:27:05.309Z,6,GR86-047-21,-5.5,0.245,-0.064,100.0,2.0,,0.0,0.0,
2025-08-14T22:27:05.353Z,6,GR86-047-21,-5.5,0.25,-0.081,99.99,2.0,,0.0,0.0,
2025-08-14T22:27:05.398Z,6,GR86-047-21,-5.5,0.243,-0.082,100.01,2.0,6281.0,0.0,0.0,
2025-08-14T22:27:05.440Z,6,GR86-047-21,-5.5,0.267,-0.087,100.01,2.0,,0.0,0.0,107.13
2025-08-14T22:27:05.483Z,6,GR86-047-21,-5.5,0.266,-0.082,99.99,2.0,,0.0,0.0,
2025-08-14T22:27:05.529Z,6,GR86-047-21,-5.5,0.263,-0.074,100.0,2.0,,0.0,0.0,
2025-08-14T22:27:05.573Z,6,GR86-047-21,-5.5,0.263,-0.064,100.0,2.0,,0.0,0.0,
2025-08-14T22:27:05.616Z,6,GR86-047-21,-5.5,0.261,-0.073,100.0,2.0,6352.0,0.0,0.0,
2025-08-14T22:27:05.658Z,6,GR86-047-21,-5.5,0.245,-0.074,99.98,2.0,,0.0,0.0,108.6
2025-08-14T22:27:05.702Z,6,GR86-047-21,-5.5,0.277,-0.073,99.99,2.0,,0.0,0.0,
2025-08-14T22:27:05.747Z,6,GR86-047-21,-5.5,0.28,-0.061,100.01,2.0,,0.0,0.0,
2025-08-14T22:27:05.832Z,6,GR86-047-21,-5.5,0.262,-0.054,100.0,2.0,6431.0,0.0,0.0,
2025-08-14T22:27:05.876Z,6,GR86-047-21,-5.5,0.24,-0.063,100.01,2.0,,0.0,0.0,109.95
2025-08-14T22:27:05.919Z,6,GR86-047-21,-5.4,0.251,-0.07,100.0,2.0,,0.0,0.0,
2025-08-14T22:27:05.961Z,6,GR86-047-21,-5.5,0.281,-0.066,100.0,2.0,,0.0,0.0,
2025-08-14T22:27:06.007Z,6,GR86-047-21,-5.4,0.28,-0.064,99.98,2.0,,0.0,0.0,
2025-08-14T22:27:06.049Z,6,GR86-047-21,-5.5,0.25,-0.071,99.99,2.0,6496.0,0.0,0.0,
2025-08-14T22:27:06.093Z,6,GR86-047-21,-5.5,0.256,-0.067,100.0,2.0,,0.0,0.0,112.45
2025-08-14T22:27:06.137Z,6,GR86-047-21,-5.5,0.233,-0.077,100.0,2.0,,0.0,0.0,
2025-08-14T22:27:06.179Z,6,GR86-047-21,-5.5,0.252,-0.077,100.02,2.0,,0.0,0.0,
2025-08-14T22:27:06.223Z,6,GR86-047-21,-5.300000000000001,0.283,-0.074,99.99,2.0,,0.0,0.0,
2025-08-14T22:27:06.266Z,6,GR86-047-21,-4.2,0.269,-0.069,100.0,2.0,6562.0,0.0,0.0,
2025-08-14T22:27:06.309Z,6,GR86-047-21,-4.1000000000000005,0.234,-0.065,100.0,2.0,,0.0,0.0,113.56
2025-08-14T22:27:06.353Z,6,GR86-047-21,-4.0,0.263,-0.058,100.03,2.0,,0.0,0.0,
2025-08-14T22:27:06.399Z,6,GR86-047-21,-3.6,0.263,-0.048,100.01,2.0,,0.0,0.0,
2025-08-14T22:27:06.441Z,6,GR86-047-21,-3.2,0.242,-0.049,100.0,2.0,,0.0,0.0,
2025-08-14T22:27:06.487Z,6,GR86-047-21,-3.0,0.235,-0.037,100.0,2.0,6711.0,0.0,0.0,
2025-08-14T22:27:06.529Z,6,GR86-047-21,-3.0,0.272,-0.038,100.0,2.0,,0.0,0.0,114.75
2025-08-14T22:27:06.573Z,6,GR86-047-21,-3.0,0.239,-0.025,100.01,2.0,,0.0,0.0,
2025-08-14T22:27:06.616Z,6,GR86-047-21,-3.0,0.241,-0.014,100.0,2.0,,0.0,0.0,
2025-08-14T22:27:06.659Z,6,GR86-047-21,-2.9000000000000004,0.265,-0.021,100.01,2.0,,0.0,0.0,
2025-08-14T22:27:06.702Z,6,GR86-047-21,-2.9000000000000004,0.249,0.002,99.99,2.0,6788.0,0.0,0.0,
2025-08-14T22:27:06.746Z,6,GR86-047-21,-2.9000000000000004,0.246,0.002,100.0,2.0,,0.0,0.0,115.84
2025-08-14T22:27:06.789Z,6,GR86-047-21,-2.9000000000000004,0.267,0.008,100.0,2.0,,0.0,0.0,
2025-08-14T22:27:06.832Z,6,GR86-047-21,-2.9000000000000004,0.245,0.001,99.99,2.0,,0.0,0.0,
2025-08-14T22:27:06.876Z,6,GR86-047-21,-2.9000000000000004,0.231,0.016,99.99,2.0,,0.0,0.0,
2025-08-14T22:27:06.919Z,6,GR86-047-21,-2.8000000000000003,0.282,0.0,99.99,2.0,6854.0,0.0,0.0,
2025-08-14T22:27:06.961Z,6,GR86-047-21,-2.8000000000000003,0.269,0.005,100.02,2.0,,0.0,0.0,116.99
2025-08-14T22:27:07.007Z,6,GR86-047-21,-2.9000000000000004,0.244,0.009,99.97,2.0,,0.0,0.0,
2025-08-14T22:27:07.049Z,6,GR86-047-21,-2.8000000000000003,0.221,0.021,99.99,2.0,,0.0,0.0,
2025-08-14T22:27:07.093Z,6,GR86-047-21,-2.8000000000000003,0.267,0.004,100.02,2.0,,0.0,0.0,
2025-08-14T22:27:07.136Z,6,GR86-047-21,-2.8000000000000003,0.269,0.008,100.01,2.0,6923.0,0.0,0.0,
2025-08-14T22:27:07.179Z,6,GR86-047-21,-2.8000000000000003,0.274,0.019,100.0,2.0,,0.0,0.0,118.07
2025-08-14T22:27:07.223Z,6,GR86-047-21,-2.8000000000000003,0.272,0.006,100.03,2.0,,0.0,0.0,
2025-08-14T22:27:07.266Z,6,GR86-047-21,-2.8000000000000003,0.245,-0.006,99.97,2.0,,0.0,0.0,
2025-08-14T22:27:07.309Z,6,GR86-047-21,-2.8000000000000003,0.237,0.005,100.0,2.0,,0.0,0.0,
2025-08-14T22:27:07.353Z,6,GR86-047-21,-2.8000000000000003,0.23,0.008,99.96,2.0,6962.0,0.0,0.0,
2025-08-14T22:27:07.398Z,6,GR86-047-21,-2.9000000000000004,0.271,-0.027,99.98,2.0,,0.0,0.0,119.29
2025-08-14T22:27:07.440Z,6,GR86-047-21,-3.2,0.265,-0.03,100.01,2.0,,0.0,0.0,
2025-08-14T22:27:07.483Z,6,GR86-047-21,-3.4000000000000004,0.234,-0.04,99.97,2.0,,0.0,0.0,
2025-08-14T22:27:07.526Z,6,GR86-047-21,-3.4000000000000004,0.237,-0.041,100.0,2.0,,0.0,0.0,
2025-08-14T22:27:07.569Z,6,GR86-047-21,-3.4000000000000004,0.249,-0.059,99.98,2.0,7044.0,0.0,0.0,
2025-08-14T22:27:07.612Z,6,GR86-047-21,-3.4000000000000004,0.256,-0.054,99.98,2.0,,0.0,0.0,120.27
2025-08-14T22:27:07.657Z,6,GR86-047-21,-3.4000000000000004,0.234,-0.047,100.01,2.0,,0.0,0.0,
2025-08-14T22:27:07.699Z,6,GR86-047-21,-3.4000000000000004,0.242,-0.061,99.98,2.0,,0.0,0.0,
2025-08-14T22:27:07.787Z,6,GR86-047-21,-3.5,0.245,-0.071,99.99,2.0,7106.0,0.0,0.0,
2025-08-14T22:27:07.829Z,6,GR86-047-21,-3.6,0.243,-0.07,100.0,2.0,,0.0,0.0,121.33
2025-08-14T22:27:07.873Z,6,GR86-047-21,-3.6,0.223,-0.093,100.01,2.0,,0.0,0.0,
2025-08-14T22:27:07.916Z,6,GR86-047-21,-3.4000000000000004,0.243,-0.066,96.38,2.0,,0.0,0.0,
2025-08-14T22:27:07.959Z,6,GR86-047-21,-1.2000000000000002,0.255,-0.05,50.03,2.0,,0.0,0.0,
2025-08-14T22:27:08.047Z,6,GR86-047-21,0.7000000000000001,0.244,-0.037,33.96,2.0,7177.0,0.0,0.0,122.39
2025-08-14T22:27:08.089Z,6,GR86-047-21,1.3,0.118,0.002,3.83,2.0,,5.86,6.12,
2025-08-14T22:27:08.132Z,6,GR86-047-21,1.3,-0.117,0.041,3.71,2.0,,12.62,12.74,
2025-08-14T22:27:08.176Z,6,GR86-047-21,1.3,-0.34,0.065,3.58,2.0,,21.18,21.09,
2025-08-14T22:27:08.219Z,6,GR86-047-21,1.3,-0.608,0.038,3.37,2.0,7163.0,28.87,28.645,
2025-08-14T22:27:08.261Z,6,GR86-047-21,1.3,-0.744,0.075,3.0700000000000003,2.0,,33.585,33.555,123.5
2025-08-14T22:27:08.307Z,6,GR86-047-21,1.5,-0.665,0.08,2.72,2.0,,34.93,34.99,
2025-08-14T22:27:08.349Z,6,GR86-047-21,2.0,-0.674,0.057,2.69,2.0,,34.625,34.655,
2025-08-14T22:27:08.393Z,6,GR86-047-21,3.0,-0.578,0.098,2.6,2.0,,34.84,35.235,
2025-08-14T22:27:08.437Z,6,GR86-047-21,6.300000000000001,-0.613,0.078,2.56,2.0,6619.0,34.305,34.655,
2025-08-14T22:27:08.479Z,6,GR86-047-21,8.4,-0.52,0.134,2.54,2.0,,31.68,32.75,122.62
2025-08-14T22:27:08.523Z,6,GR86-047-21,8.4,-0.6920000000000001,0.199,2.52,2.0,,30.46,31.42,
2025-08-14T22:27:08.566Z,6,GR86-047-21,8.4,-0.678,0.186,2.52,2.0,,32.275,32.475,
2025-08-14T22:27:08.609Z,6,GR86-047-21,8.4,-0.674,0.143,2.49,2.0,,30.58,31.39,
2025-08-14T22:27:08.653Z,6,GR86-047-21,10.2,-0.755,0.145,2.56,2.0,6201.0,31.77,32.335,
2025-08-14T22:27:08.698Z,6,GR86-047-21,13.1,-0.759,0.2,2.62,2.0,,31.68,32.105000000000004,109.02
2025-08-14T22:27:08.740Z,6,GR86-047-21,16.3,-0.793,0.221,2.59,2.0,,32.305,32.78,
2025-08-14T22:27:08.783Z,6,GR86-047-21,19.8,-0.745,0.251,2.58,2.0,,32.105000000000004,32.505,
2025-08-14T22:27:08.829Z,6,GR86-047-21,24.0,-0.679,0.292,2.56,2.0,,31.51,31.865,
2025-08-14T22:27:08.873Z,6,GR86-047-21,26.200000000000003,-0.6920000000000001,0.307,2.56,2.0,6048.0,30.825,31.77,
2025-08-14T22:27:08.916Z,6,GR86-047-21,28.8,-0.519,0.422,2.54,2.0,,26.11,27.62,106.04
2025-08-14T22:27:08.959Z,6,GR86-047-21,30.6,-0.589,0.412,2.56,2.0,,21.775,22.845,
2025-08-14T22:27:09.002Z,6,GR86-047-21,31.3,-0.559,0.454,2.54,2.0,,20.265,21.305,
2025-08-14T22:27:09.047Z,6,GR86-047-21,32.6,-0.538,0.496,2.53,2.0,,20.05,20.875,
2025-08-14T22:27:09.089Z,6,GR86-047-21,34.300000000000004,-0.562,0.515,2.53,2.0,5661.0,20.42,21.305,
2025-08-14T22:27:09.132Z,6,GR86-047-21,34.800000000000004,-0.531,0.599,2.53,2.0,,20.42,21.21,102.95
2025-08-14T22:27:09.176Z,6,GR86-047-21,34.800000000000004,-0.507,0.5730000000000001,2.53,2.0,,20.205,21.06,
2025-08-14T22:27:09.219Z,6,GR86-047-21,34.7,-0.498,0.602,2.56,2.0,,19.425,20.48,
2025-08-14T22:27:09.261Z,6,GR86-047-21,34.6,-0.47,0.561,2.54,2.0,,18.235,19.275,
2025-08-14T22:27:09.307Z,6,GR86-047-21,34.6,-0.41,0.6990000000000001,2.52,2.0,5387.0,16.115000000000002,17.12,
2025-08-14T22:27:09.349Z,6,GR86-047-21,34.6,-0.359,0.739,2.52,2.0,,12.42,13.43,100.18
