timestamp,lap,vehicle_id,steering_angle,accx_can,accy_can,ath,gear,nmot,pbrake_f,pbrake_r,speed
2025-08-14T23:12:37.412Z,4,GR86-025-47,-6.2,0.129,0.041,100.01,4.0,7036.0,0.0,0.0,
2025-08-14T23:12:37.455Z,4,GR86-025-47,-6.300000000000001,0.149,0.034,100.0,4.0,,0.0,0.0,178.69
2025-08-14T23:12:37.498Z,4,GR86-025-47,-6.300000000000001,0.151,0.022,100.0,4.0,,0.0,0.0,
2025-08-14T23:12:37.541Z,4,GR86-025-47,-6.5,0.139,0.05,100.01,4.0,,0.0,0.0,
2025-08-14T23:12:37.584Z,4,GR86-025-47,-6.5,0.108,0.03,99.98,4.0,,0.0,0.0,
2025-08-14T23:12:37.627Z,4,GR86-025-47,-6.6000000000000005,0.097,0.05,100.0,4.0,7054.0,0.0,0.0,
2025-08-14T23:12:37.671Z,4,GR86-025-47,-6.6000000000000005,0.14,0.072,100.0,4.0,,0.0,0.0,179.48
2025-08-14T23:12:37.714Z,4,GR86-025-47,-6.6000000000000005,0.106,0.042,100.0,4.0,,0.0,0.0,
2025-08-14T23:12:37.757Z,4,GR86-025-47,-6.6000000000000005,0.117,-0.006,100.03,4.0,,0.0,0.0,
2025-08-14T23:12:37.801Z,4,GR86-025-47,-6.7,0.113,0.009,100.01,4.0,,0.0,0.0,
2025-08-14T23:12:37.844Z,4,GR86-025-47,-6.800000000000001,0.101,0.012,100.01,4.0,7070.0,0.0,0.0,
2025-08-14T23:12:37.888Z,4,GR86-025-47,-6.800000000000001,0.121,0.041,100.01,4.0,,0.0,0.0,180.3
2025-08-14T23:12:37.931Z,4,GR86-025-47,-6.800000000000001,0.127,0.036,100.01,4.0,,0.0,0.0,
2025-08-14T23:12:37.974Z,4,GR86-025-47,-6.7,0.125,0.01,99.98,4.0,,0.0,0.0,
2025-08-14T23:12:38.017Z,4,GR86-025-47,-6.7,0.13,0.014,100.0,4.0,,0.0,0.0,
2025-08-14T23:12:38.060Z,4,GR86-025-47,-6.7,0.146,0.017,100.01,4.0,7139.0,0.0,0.0,
2025-08-14T23:12:38.103Z,4,GR86-025-47,-6.7,0.102,0.029,100.01,4.0,,0.0,0.0,181.03
2025-08-14T23:12:38.148Z,4,GR86-025-47,-6.6000000000000005,0.109,-0.025,99.99,4.0,,0.0,0.0,
2025-08-14T23:12:38.191Z,4,GR86-025-47,-6.5,0.108,-0.006,100.0,4.0,,0.0,0.0,
2025-08-14T23:12:38.234Z,4,GR86-025-47,-6.5,0.118,-0.025,99.97,4.0,,0.0,0.0,
2025-08-14T23:12:38.277Z,4,GR86-025-47,-6.5,0.119,-0.012,99.98,4.0,7159.0,0.0,0.0,
2025-08-14T23:12:38.321Z,4,GR86-025-47,-6.5,0.13,0.02,99.97,4.0,,0.0,0.0,181.82
2025-08-14T23:12:38.364Z,4,GR86-025-47,-6.4,0.112,0.004,99.99,4.0,,0.0,0.0,
2025-08-14T23:12:38.408Z,4,GR86-025-47,-6.4,0.11,0.012,100.0,4.0,,0.0,0.0,
2025-08-14T23:12:38.451Z,4,GR86-025-47,-6.4,0.117,0.021,99.99,4.0,,0.0,0.0,
2025-08-14T23:12:38.494Z,4,GR86-025-47,-6.4,0.108,0.023,99.98,4.0,7181.0,0.0,0.0,
2025-08-14T23:12:38.537Z,4,GR86-025-47,-6.4,0.143,0.041,99.98,4.0,,0.0,0.0,182.69
2025-08-14T23:12:38.581Z,4,GR86-025-47,-6.4,0.103,0.052,100.01,4.0,,0.0,0.0,
2025-08-14T23:12:38.624Z,4,GR86-025-47,-6.4,0.096,0.04,99.99,4.0,,0.0,0.0,
2025-08-14T23:12:38.668Z,4,GR86-025-47,-6.4,0.113,0.034,99.98,4.0,,0.0,0.0,
2025-08-14T23:12:38.711Z,4,GR86-025-47,-6.4,0.103,0.043,99.99,4.0,7216.0,0.0,0.0,
2025-08-14T23:12:38.754Z,4,GR86-025-47,-6.4,0.108,0.037,100.0,4.0,,0.0,0.0,183.44
2025-08-14T23:12:38.797Z,4,GR86-025-47,-6.4,0.105,0.026,100.0,4.0,,0.0,0.0,
2025-08-14T23:12:38.840Z,4,GR86-025-47,-6.4,0.087,0.043,99.99,4.0,,0.0,0.0,
2025-08-14T23:12:38.883Z,4,GR86-025-47,-6.4,0.114,0.049,99.99,4.0,,0.0,0.0,
2025-08-14T23:12:38.926Z,4,GR86-025-47,-6.4,-0.014,0.065,100.0,5.0,7246.0,0.0,0.0,
2025-08-14T23:12:38.969Z,4,GR86-025-47,-6.4,-0.151,0.055,99.98,5.0,,0.0,0.0,184.2
2025-08-14T23:12:39.012Z,4,GR86-025-47,-6.300000000000001,0.462,0.087,100.01,5.0,,0.0,0.0,
2025-08-14T23:12:39.055Z,4,GR86-025-47,-6.300000000000001,0.102,-0.065,100.0,5.0,,0.0,0.0,
2025-08-14T23:12:39.098Z,4,GR86-025-47,-6.300000000000001,-0.012,0.085,100.01,5.0,,0.0,0.0,
2025-08-14T23:12:39.141Z,4,GR86-025-47,-6.300000000000001,0.11,0.116,100.01,5.0,6339.0,0.0,0.0,
2025-08-14T23:12:39.185Z,4,GR86-025-47,-6.300000000000001,0.132,0.023,100.01,5.0,,0.0,0.0,184.9
2025-08-14T23:12:39.228Z,4,GR86-025-47,-6.1000000000000005,0.07,0.058,100.0,5.0,,0.0,0.0,
2025-08-14T23:12:39.271Z,4,GR86-025-47,-6.2,0.066,0.076,99.98,5.0,,0.0,0.0,
2025-08-14T23:12:39.314Z,4,GR86-025-47,-6.1000000000000005,0.112,-0.03,99.99,5.0,,0.0,0.0,
2025-08-14T23:12:39.357Z,4,GR86-025-47,-6.1000000000000005,0.075,0.034,99.99,5.0,6293.0,0.0,0.0,
2025-08-14T23:12:39.401Z,4,GR86-025-47,-6.1000000000000005,0.089,0.054,100.0,5.0,,0.0,0.0,185.65
2025-08-14T23:12:39.444Z,4,GR86-025-47,-6.1000000000000005,0.091,-0.002,100.0,5.0,,0.0,0.0,
2025-08-14T23:12:39.488Z,4,GR86-025-47,-6.1000000000000005,0.11,0.036,100.0,5.0,,0.0,0.0,
2025-08-14T23:12:39.531Z,4,GR86-025-47,-6.1000000000000005,0.085,0.081,100.01,5.0,,0.0,0.0,
2025-08-14T23:12:39.574Z,4,GR86-025-47,-6.0,0.07,0.047,100.0,5.0,6353.0,0.0,0.0,
2025-08-14T23:12:39.617Z,4,GR86-025-47,-6.0,0.103,0.035,100.01,5.0,,0.0,0.0,186.12
2025-08-14T23:12:39.660Z,4,GR86-025-47,-6.0,0.109,0.051,99.99,5.0,,0.0,0.0,
2025-08-14T23:12:39.703Z,4,GR86-025-47,-6.0,0.097,0.036,100.01,5.0,,0.0,0.0,
2025-08-14T23:12:39.748Z,4,GR86-025-47,-6.1000000000000005,0.095,0.064,100.0,5.0,,0.0,0.0,
2025-08-14T23:12:39.791Z,4,GR86-025-47,-6.1000000000000005,0.092,0.051,100.01,5.0,6376.0,0.0,0.0,
2025-08-14T23:12:39.835Z,4,GR86-025-47,-6.1000000000000005,0.075,0.091,99.99,5.0,,0.0,0.0,186.77
2025-08-14T23:12:39.878Z,4,GR86-025-47,-6.1000000000000005,0.085,0.053,100.0,5.0,,0.0,0.0,
2025-08-14T23:12:39.921Z,4,GR86-025-47,-6.0,0.112,0.038,100.0,5.0,,0.0,0.0,
2025-08-14T23:12:39.964Z,4,GR86-025-47,-6.0,0.102,0.051,99.99,5.0,,0.0,0.0,
2025-08-14T23:12:40.009Z,4,GR86-025-47,-6.0,0.077,0.035,100.0,5.0,6388.0,0.0,0.0,
2025-08-14T23:12:40.052Z,4,GR86-025-47,-6.1000000000000005,0.089,0.023,100.01,5.0,,0.0,0.0,188.19
2025-08-14T23:12:40.095Z,4,GR86-025-47,-6.2,0.082,0.018,100.01,5.0,,0.0,0.0,
2025-08-14T23:12:40.138Z,4,GR86-025-47,-6.300000000000001,0.065,0.055,100.0,5.0,,0.0,0.0,
2025-08-14T23:12:40.181Z,4,GR86-025-47,-6.300000000000001,0.104,0.038,100.0,5.0,,0.0,0.0,
2025-08-14T23:12:40.224Z,4,GR86-025-47,-6.300000000000001,0.065,0.026,100.01,5.0,6415.0,0.0,0.0,
2025-08-14T23:12:40.268Z,4,GR86-025-47,-6.2,0.084,0.05,99.99,5.0,,0.0,0.0,188.86
2025-08-14T23:12:40.311Z,4,GR86-025-47,-6.1000000000000005,0.111,0.011,100.0,5.0,,0.0,0.0,
2025-08-14T23:12:40.354Z,4,GR86-025-47,-6.1000000000000005,0.105,0.014,100.02,5.0,,0.0,0.0,
2025-08-14T23:12:40.397Z,4,GR86-025-47,-6.1000000000000005,0.099,0.05,99.99,5.0,,0.0,0.0,
2025-08-14T23:12:40.440Z,4,GR86-025-47,-6.1000000000000005,0.071,0.028,99.99,5.0,6432.0,0.0,0.0,
2025-08-14T23:12:40.483Z,4,GR86-025-47,-6.1000000000000005,0.102,0.009,100.01,5.0,,0.0,0.0,189.56
2025-08-14T23:12:40.526Z,4,GR86-025-47,-6.1000000000000005,0.11,0.035,100.01,5.0,,0.0,0.0,
2025-08-14T23:12:40.571Z,4,GR86-025-47,-6.1000000000000005,0.073,0.028,100.0,5.0,,0.0,0.0,
2025-08-14T23:12:40.614Z,4,GR86-025-47,-6.0,0.121,0.03,100.01,5.0,,0.0,0.0,
2025-08-14T23:12:40.658Z,4,GR86-025-47,-5.7,0.109,0.054,100.01,5.0,6485.0,0.0,0.0,
2025-08-14T23:12:40.701Z,4,GR86-025-47,-4.9,0.111,0.039,100.0,5.0,,0.0,0.0,190.06
2025-08-14T23:12:40.744Z,4,GR86-025-47,-3.8,0.108,0.045,99.99,5.0,,0.0,0.0,
2025-08-14T23:12:40.788Z,4,GR86-025-47,-3.2,0.089,0.071,100.01,5.0,,0.0,0.0,
2025-08-14T23:12:40.831Z,4,GR86-025-47,-3.2,0.087,0.061,100.02,5.0,,0.0,0.0,
2025-08-14T23:12:40.874Z,4,GR86-025-47,-3.4000000000000004,0.097,0.052,100.01,5.0,6511.0,0.0,0.0,
2025-08-14T23:12:40.918Z,4,GR86-025-47,-3.7,0.096,0.097,100.0,5.0,,0.0,0.0,190.7
2025-08-14T23:12:40.961Z,4,GR86-025-47,-3.8,0.13,0.09,100.01,5.0,,0.0,0.0,
2025-08-14T23:12:41.004Z,4,GR86-025-47,-4.0,0.108,0.128,100.0,5.0,,0.0,0.0,
2025-08-14T23:12:41.048Z,4,GR86-025-47,-4.0,0.078,0.102,100.02,5.0,,0.0,0.0,
2025-08-14T23:12:41.091Z,4,GR86-025-47,-4.1000000000000005,0.07,0.115,99.98,5.0,6530.0,0.0,0.0,
2025-08-14T23:12:41.134Z,4,GR86-025-47,-4.2,0.071,0.161,100.0,5.0,,0.0,0.0,191.36
2025-08-14T23:12:41.177Z,4,GR86-025-47,-4.2,0.107,0.111,100.0,5.0,,0.0,0.0,
2025-08-14T23:12:41.221Z,4,GR86-025-47,-4.4,0.082,0.145,100.01,5.0,,0.0,0.0,
2025-08-14T23:12:41.264Z,4,GR86-025-47,-4.4,0.089,0.131,100.0,5.0,,0.0,0.0,
2025-08-14T23:12:41.351Z,4,GR86-025-47,-4.5,0.072,0.103,99.98,5.0,6552.0,0.0,0.0,192.18
2025-08-14T23:12:41.394Z,4,GR86-025-47,-4.7,0.079,0.068,100.01,5.0,,0.0,0.0,
2025-08-14T23:12:41.438Z,4,GR86-025-47,-4.800000000000001,0.077,0.077,100.01,5.0,,0.0,0.0,
2025-08-14T23:12:41.481Z,4,GR86-025-47,-4.800000000000001,0.103,0.097,100.0,5.0,,0.0,0.0,
2025-08-14T23:12:41.524Z,4,GR86-025-47,-4.800000000000001,0.092,0.032,99.99,5.0,6568.0,0.0,0.0,
2025-08-14T23:12:41.567Z,4,GR86-025-47,-5.0,0.073,0.059,99.99,5.0,,0.0,0.0,192.87
2025-08-14T23:12:41.611Z,4,GR86-025-47,-5.0,0.067,0.01,99.98,5.0,,0.0,0.0,
2025-08-14T23:12:41.654Z,4,GR86-025-47,-5.1000000000000005,0.081,0.056,100.0,5.0,,0.0,0.0,
2025-08-14T23:12:41.697Z,4,GR86-025-47,-5.2,0.061,-0.005,100.01,5.0,,0.0,0.0,
2025-08-14T23:12:41.740Z,4,GR86-025-47,-5.300000000000001,0.073,0.033,99.99,5.0,6601.0,0.0,0.0,
2025-08-14T23:12:41.783Z,4,GR86-025-47,-5.300000000000001,0.099,0.036,99.99,5.0,,0.0,0.0,193.53
2025-08-14T23:12:41.826Z,4,GR86-025-47,-5.4,0.08,0.057,100.02,5.0,,0.0,0.0,
2025-08-14T23:12:41.869Z,4,GR86-025-47,-5.4,0.082,0.054,99.99,5.0,,0.0,0.0,
2025-08-14T23:12:41.912Z,4,GR86-025-47,-5.6000000000000005,0.072,-0.012,99.98,5.0,,0.0,0.0,
2025-08-14T23:12:41.955Z,4,GR86-025-47,-5.6000000000000005,0.079,0.026,99.99,5.0,6618.0,0.0,0.0,
2025-08-14T23:12:41.998Z,4,GR86-025-47,-5.7,0.065,-0.035,99.98,5.0,,0.0,0.0,194.28
2025-08-14T23:12:42.041Z,4,GR86-025-47,-5.800000000000001,0.064,0.018,100.0,5.0,,0.0,0.0,
2025-08-14T23:12:42.084Z,4,GR86-025-47,-5.800000000000001,0.081,0.018,100.01,5.0,,0.0,0.0,
2025-08-14T23:12:42.127Z,4,GR86-025-47,-5.9,0.074,-0.012,100.0,5.0,,0.0,0.0,
2025-08-14T23:12:42.171Z,4,GR86-025-47,-6.0,0.08,-0.029,100.02,5.0,6634.0,0.0,0.0,
2025-08-14T23:12:42.214Z,4,GR86-025-47,-6.0,0.067,-0.016,99.99,5.0,,0.0,0.0,194.93
2025-08-14T23:12:42.257Z,4,GR86-025-47,-6.0,0.065,-0.066,100.02,5.0,,0.0,0.0,
2025-08-14T23:12:42.301Z,4,GR86-025-47,-6.1000000000000005,0.068,-0.053,99.97,5.0,,0.0,0.0,
2025-08-14T23:12:42.344Z,4,GR86-025-47,-6.300000000000001,0.077,-0.033,100.01,5.0,,0.0,0.0,
2025-08-14T23:12:42.388Z,4,GR86-025-47,-6.4,0.068,-0.004,100.0,5.0,6652.0,0.0,0.0,
2025-08-14T23:12:42.431Z,4,GR86-025-47,-6.4,0.086,-0.088,100.01,5.0,,0.0,0.0,195.61
2025-08-14T23:12:42.474Z,4,GR86-025-47,-6.5,0.068,-0.035,99.99,5.0,,0.0,0.0,
2025-08-14T23:12:42.517Z,4,GR86-025-47,-6.5,0.07,-0.07,100.01,5.0,,0.0,0.0,
2025-08-14T23:12:42.560Z,4,GR86-025-47,-6.6000000000000005,0.083,-0.068,100.0,5.0,,0.0,0.0,
2025-08-14T23:12:42.603Z,4,GR86-025-47,-6.6000000000000005,0.07,-0.015,100.02,5.0,6688.0,0.0,0.0,
2025-08-14T23:12:42.648Z,4,GR86-025-47,-5.6000000000000005,0.058,-0.014,99.98,5.0,,0.0,0.0,196.98
2025-08-14T23:12:42.691Z,4,GR86-025-47,-5.4,0.093,-0.019,100.01,5.0,,0.0,0.0,
2025-08-14T23:12:42.734Z,4,GR86-025-47,-5.4,0.078,0.02,100.01,5.0,,0.0,0.0,
2025-08-14T23:12:42.777Z,4,GR86-025-47,-5.5,0.093,0.068,100.0,5.0,,0.0,0.0,
2025-08-14T23:12:42.821Z,4,GR86-025-47,-4.9,0.071,0.047,99.99,5.0,6707.0,0.0,0.0,
2025-08-14T23:12:42.864Z,4,GR86-025-47,-4.0,0.088,0.053,100.01,5.0,,0.0,0.0,197.58
2025-08-14T23:12:42.908Z,4,GR86-025-47,-3.8,0.094,0.089,100.01,5.0,,0.0,0.0,
2025-08-14T23:12:42.951Z,4,GR86-025-47,-4.0,0.075,0.077,100.01,5.0,,0.0,0.0,
2025-08-14T23:12:42.994Z,4,GR86-025-47,-4.1000000000000005,0.072,0.119,100.0,5.0,,0.0,0.0,
2025-08-14T23:12:43.038Z,4,GR86-025-47,-4.0,0.099,0.1,99.98,5.0,6723.0,0.0,0.0,
2025-08-14T23:12:43.081Z,4,GR86-025-47,-3.7,0.091,0.139,100.01,5.0,,0.0,0.0,198.2
2025-08-14T23:12:43.124Z,4,GR86-025-47,-3.7,0.074,0.154,99.99,5.0,,0.0,0.0,
2025-08-14T23:12:43.168Z,4,GR86-025-47,-4.0,0.073,0.151,100.01,5.0,,0.0,0.0,
2025-08-14T23:12:43.211Z,4,GR86-025-47,-4.2,0.067,0.128,100.0,5.0,,0.0,0.0,
2025-08-14T23:12:43.254Z,4,GR86-025-47,-4.4,0.094,0.135,100.02,5.0,6766.0,0.0,0.0,
2025-08-14T23:12:43.297Z,4,GR86-025-47,-4.5,0.075,0.145,99.98,5.0,,0.0,0.0,198.9
2025-08-14T23:12:43.340Z,4,GR86-025-47,-4.6000000000000005,0.097,0.116,99.99,5.0,,0.0,0.0,
2025-08-14T23:12:43.383Z,4,GR86-025-47,-4.6000000000000005,0.085,0.093,100.02,5.0,,0.0,0.0,
2025-08-14T23:12:43.426Z,4,GR86-025-47,-4.7,0.089,0.07,99.98,5.0,,0.0,0.0,
2025-08-14T23:12:43.469Z,4,GR86-025-47,-4.800000000000001,0.077,0.12,100.0,5.0,6781.0,0.0,0.0,
2025-08-14T23:12:43.512Z,4,GR86-025-47,-4.9,0.058,0.073,100.01,5.0,,0.0,0.0,199.43
2025-08-14T23:12:43.555Z,4,GR86-025-47,-5.1000000000000005,0.067,0.091,100.01,5.0,,0.0,0.0,
2025-08-14T23:12:43.598Z,4,GR86-025-47,-5.2,0.069,0.098,99.97,5.0,,0.0,0.0,
2025-08-14T23:12:43.641Z,4,GR86-025-47,-5.4,0.088,0.061,99.99,5.0,,0.0,0.0,
2025-08-14T23:12:43.685Z,4,GR86-025-47,-5.800000000000001,0.051,0.038,100.02,5.0,6809.0,0.0,0.0,
2025-08-14T23:12:43.728Z,4,GR86-025-47,-10.9,0.061,0.005,99.99,5.0,,0.0,0.0,199.92
2025-08-14T23:12:43.771Z,4,GR86-025-47,-13.0,0.068,0.004,100.0,5.0,,0.0,0.0,
2025-08-14T23:12:43.814Z,4,GR86-025-47,-13.9,0.051,-0.083,100.0,5.0,,0.0,0.0,
2025-08-14T23:12:43.857Z,4,GR86-025-47,-13.6,0.074,-0.138,100.01,5.0,,0.0,0.0,
2025-08-14T23:12:43.901Z,4,GR86-025-47,-11.0,0.061,-0.11,100.0,5.0,6818.0,0.0,0.0,
2025-08-14T23:12:43.944Z,4,GR86-025-47,-10.4,0.07,-0.176,99.97,5.0,,0.0,0.0,200.46
2025-08-14T23:12:43.988Z,4,GR86-025-47,-10.6,0.053,-0.158,100.01,5.0,,0.0,0.0,
2025-08-14T23:12:44.031Z,4,GR86-025-47,-10.6,0.05,-0.172,99.99,5.0,,0.0,0.0,
2025-08-14T23:12:44.074Z,4,GR86-025-47,-9.0,0.062,-0.19,100.01,5.0,,0.0,0.0,
2025-08-14T23:12:44.160Z,4,GR86-025-47,-8.1,0.083,-0.211,99.98,5.0,6839.0,0.0,0.0,200.77
2025-08-14T23:12:44.203Z,4,GR86-025-47,-9.0,0.056,-0.119,100.01,5.0,,0.0,0.0,
2025-08-14T23:12:44.248Z,4,GR86-025-47,-10.3,0.052,-0.116,100.01,5.0,,0.0,0.0,
2025-08-14T23:12:44.291Z,4,GR86-025-47,-10.3,0.086,-0.143,99.99,5.0,,0.0,0.0,
2025-08-14T23:12:44.334Z,4,GR86-025-47,-9.8,0.08,-0.108,100.01,5.0,6859.0,0.0,0.0,
2025-08-14T23:12:44.377Z,4,GR86-025-47,-9.8,0.053,-0.109,99.97,5.0,,0.0,0.0,201.37
2025-08-14T23:12:44.421Z,4,GR86-025-47,-9.8,0.057,-0.117,100.01,5.0,,0.0,0.0,
2025-08-14T23:12:44.464Z,4,GR86-025-47,-9.4,0.029,-0.12,99.99,5.0,,0.0,0.0,
2025-08-14T23:12:44.508Z,4,GR86-025-47,-7.1000000000000005,0.063,-0.121,100.0,5.0,,0.0,0.0,
2025-08-14T23:12:44.551Z,4,GR86-025-47,-7.0,0.069,-0.068,100.01,5.0,6869.0,0.0,0.0,
2025-08-14T23:12:44.594Z,4,GR86-025-47,-7.2,0.033,-0.077,99.98,5.0,,0.0,0.0,201.66
2025-08-14T23:12:44.638Z,4,GR86-025-47,-7.4,0.03,-0.072,99.97,5.0,,0.0,0.0,
2025-08-14T23:12:44.681Z,4,GR86-025-47,-7.0,0.056,-0.056,100.01,5.0,,0.0,0.0,
2025-08-14T23:12:44.724Z,4,GR86-025-47,-6.0,0.032,-0.028,99.98,5.0,,0.0,0.0,
2025-08-14T23:12:44.768Z,4,GR86-025-47,-6.0,0.053,0.04,100.0,5.0,6884.0,0.0,0.0,
2025-08-14T23:12:44.811Z,4,GR86-025-47,-6.300000000000001,0.029,0.08,100.02,5.0,,0.0,0.0,202.15
2025-08-14T23:12:44.854Z,4,GR86-025-47,-6.4,0.029,0.059,99.97,5.0,,2.825,3.13,
2025-08-14T23:12:44.897Z,4,GR86-025-47,-6.0,0.054,0.066,99.98,5.0,,0.0,0.0,
2025-08-14T23:12:44.940Z,4,GR86-025-47,-6.0,0.039,0.109,100.01,5.0,,0.0,0.0,
2025-08-14T23:12:44.983Z,4,GR86-025-47,-6.300000000000001,0.047,0.094,100.02,5.0,6902.0,0.0,0.0,
2025-08-14T23:12:45.027Z,4,GR86-025-47,-6.5,0.045,0.082,99.98,5.0,,3.845,4.18,202.56
2025-08-14T23:12:45.071Z,4,GR86-025-47,-6.5,0.067,0.109,99.97,5.0,,3.785,4.0600000000000005,
2025-08-14T23:12:45.114Z,4,GR86-025-47,-6.5,0.035,0.094,99.99,5.0,,0.0,0.0,
2025-08-14T23:12:45.157Z,4,GR86-025-47,-6.5,0.083,0.093,99.99,5.0,,0.0,0.0,
2025-08-14T23:12:45.201Z,4,GR86-025-47,-6.7,0.078,0.089,99.99,5.0,6915.0,0.0,0.0,
2025-08-14T23:12:45.244Z,4,GR86-025-47,-6.9,0.059,0.046,100.01,5.0,,2.4250000000000003,2.76,202.98
2025-08-14T23:12:45.288Z,4,GR86-025-47,-7.2,0.061,0.047,99.97,5.0,,0.0,0.0,
2025-08-14T23:12:45.331Z,4,GR86-025-47,-7.2,0.058,0.049,100.01,5.0,,0.0,0.0,
2025-08-14T23:12:45.374Z,4,GR86-025-47,-7.300000000000001,0.019,0.029,100.01,5.0,,0.0,0.0,
2025-08-14T23:12:45.418Z,4,GR86-025-47,-7.4,0.07,0.0,100.0,5.0,6919.0,0.0,0.0,
2025-08-14T23:12:45.461Z,4,GR86-025-47,-7.4,0.027,-0.026,100.0,5.0,,2.58,2.885,203.75
2025-08-14T23:12:45.504Z,4,GR86-025-47,-7.4,0.026,-0.08,91.33,5.0,,7.98,8.18,
2025-08-14T23:12:45.548Z,4,GR86-025-47,-7.5,-0.044,-0.071,4.03,5.0,,15.96,15.87,
2025-08-14T23:12:45.591Z,4,GR86-025-47,-7.5,-0.155,-0.03,3.0500000000000003,5.0,,20.785,20.935,
2025-08-14T23:12:45.677Z,4,GR86-025-47,-1.4,-0.528,-0.016,2.63,5.0,6933.0,28.035,28.065,203.7
2025-08-14T23:12:45.721Z,4,GR86-025-47,5.1000000000000005,-0.766,0.012,2.54,5.0,,30.49,30.735,
2025-08-14T23:12:45.764Z,4,GR86-025-47,6.800000000000001,-0.636,0.048,2.53,5.0,,31.085,31.27,
2025-08-14T23:12:45.808Z,4,GR86-025-47,6.5,-0.637,0.128,2.51,5.0,,37.235,37.05,
2025-08-14T23:12:45.851Z,4,GR86-025-47,5.5,-0.762,0.107,2.51,5.0,6555.0,50.13,49.7,
2025-08-14T23:12:45.894Z,4,GR86-025-47,2.8000000000000003,-0.937,0.107,2.51,5.0,,63.71,63.085,200.46
2025-08-14T23:12:45.937Z,4,GR86-025-47,0.3,-1.052,0.096,2.52,5.0,,72.865,72.21000000000001,
2025-08-14T23:12:45.981Z,4,GR86-025-47,-0.9,-1.049,0.115,2.51,5.0,,75.75,75.065,
2025-08-14T23:12:46.024Z,4,GR86-025-47,-1.0,-0.986,0.094,2.5,5.0,,84.615,86.465,
2025-08-14T23:12:46.067Z,4,GR86-025-47,-0.8,-1.023,0.115,2.51,5.0,5964.0,88.58500000000001,89.27,
2025-08-14T23:12:46.111Z,4,GR86-025-47,-1.0,-0.985,0.114,2.5,5.0,,84.05,86.19,191.93
2025-08-14T23:12:46.154Z,4,GR86-025-47,-8.5,-0.94,0.198,2.5,5.0,,72.93,74.15,
2025-08-14T23:12:46.197Z,4,GR86-025-47,-16.3,-0.984,0.097,2.51,5.0,,67.815,68.03,
2025-08-14T23:12:46.240Z,4,GR86-025-47,-21.700000000000003,-1.142,0.116,2.51,5.0,,70.18,71.95,
2025-08-14T23:12:46.283Z,4,GR86-025-47,-23.3,-1.071,0.104,2.5,5.0,5972.0,72.545,74.285,
2025-08-14T23:12:46.326Z,4,GR86-025-47,-15.3,-1.199,-0.017,2.51,5.0,,75.615,75.615,178.49
2025-08-14T23:12:46.369Z,4,GR86-025-47,-2.4000000000000004,-1.198,0.081,2.49,5.0,,76.62,77.92,
2025-08-14T23:12:46.412Z,4,GR86-025-47,6.2,-1.157,0.175,2.5,5.0,,72.93,73.905,
2025-08-14T23:12:46.455Z,4,GR86-025-47,6.300000000000001,-1.193,0.162,2.51,5.0,,67.97,69.8,
2025-08-14T23:12:46.498Z,4,GR86-025-47,-2.0,-1.045,0.117,2.5,5.0,5666.0,60.735,62.9,
2025-08-14T23:12:46.541Z,4,GR86-025-47,-6.0,-1.037,0.002,35.52,5.0,,54.8,56.935,176.79
2025-08-14T23:12:46.584Z,4,GR86-025-47,-4.0,-0.961,-0.059,57.07,5.0,,52.02,53.805,
2025-08-14T23:12:46.627Z,4,GR86-025-47,12.9,-0.876,-0.04,29.43,4.0,,41.965,43.26,
2025-08-14T23:12:46.671Z,4,GR86-025-47,21.8,-0.803,0.057,25.69,4.0,,39.72,41.215,
2025-08-14T23:12:46.714Z,4,GR86-025-47,23.3,-0.73,0.176,14.24,4.0,5400.0,36.58,37.74,
2025-08-14T23:12:46.757Z,4,GR86-025-47,21.200000000000003,-0.6930000000000001,0.188,4.01,4.0,,36.365,37.295,169.85
2025-08-14T23:12:46.801Z,4,GR86-025-47,12.7,-0.712,0.182,3.96,5.0,,36.7,37.705,
2025-08-14T23:12:46.844Z,4,GR86-025-47,3.9,-0.708,0.26,3.8,5.0,,37.645,38.38,
2025-08-14T23:12:46.888Z,4,GR86-025-47,-7.2,-0.68,0.124,3.37,5.0,,37.615,38.5,
2025-08-14T23:12:46.931Z,4,GR86-025-47,-12.9,-0.739,0.152,3.04,5.0,5820.0,37.385,38.38,
2025-08-14T23:12:46.974Z,4,GR86-025-47,-14.7,-0.6930000000000001,0.155,2.98,5.0,,37.585,38.38,165.42000000000002
2025-08-14T23:12:47.017Z,4,GR86-025-47,-14.8,-0.785,0.155,2.86,5.0,,39.37,40.15,
2025-08-14T23:12:47.060Z,4,GR86-025-47,-9.9,-0.761,0.19,2.72,5.0,,40.62,41.31,
2025-08-14T23:12:47.103Z,4,GR86-025-47,-6.9,-0.8240000000000001,0.227,24.93,5.0,,41.08,41.89,
2025-08-14T23:12:47.148Z,4,GR86-025-47,-11.6,-0.783,0.239,92.48,5.0,5217.0,41.34,42.12,
2025-08-14T23:12:47.191Z,4,GR86-025-47,-17.8,-0.778,0.112,97.16,4.0,,41.935,42.605,160.88
2025-08-14T23:12:47.234Z,4,GR86-025-47,-15.5,-0.791,0.012,35.19,4.0,,44.13,44.71,
2025-08-14T23:12:47.277Z,4,GR86-025-47,-5.1000000000000005,-0.8230000000000001,0.021,26.13,4.0,,47.185,47.765,
2025-08-14T23:12:47.321Z,4,GR86-025-47,-2.5,-0.944,0.129,6.890000000000001,4.0,,65.925,67.555,
2025-08-14T23:12:47.364Z,4,GR86-025-47,-6.1000000000000005,-0.909,-0.011,3.31,4.0,5343.0,74.62,75.215,
2025-08-14T23:12:47.408Z,4,GR86-025-47,-17.8,-0.784,-0.074,3.29,4.0,,80.405,80.77,155.79
2025-08-14T23:12:47.451Z,4,GR86-025-47,-19.6,-0.948,-0.018,3.27,4.0,,84.86,85.655,
2025-08-14T23:12:47.494Z,4,GR86-025-47,-17.6,-0.76,-0.287,3.23,4.0,,85.275,86.615,
2025-08-14T23:12:47.537Z,4,GR86-025-47,-13.3,-0.882,-0.217,3.18,4.0,,82.175,82.555,
2025-08-14T23:12:47.581Z,4,GR86-025-47,-13.1,-0.978,-0.129,3.13,4.0,5605.0,81.9,82.375,
2025-08-14T23:12:47.624Z,4,GR86-025-47,-13.0,-0.794,-0.291,2.99,4.0,,73.4,74.715,148.78
2025-08-14T23:12:47.668Z,4,GR86-025-47,-13.1,-0.978,-0.221,2.89,4.0,,69.25,70.18,
2025-08-14T23:12:47.711Z,4,GR86-025-47,-13.0,-0.922,-0.231,2.71,4.0,,66.395,68.03,
2025-08-14T23:12:47.754Z,4,GR86-025-47,-12.4,-0.942,-0.217,8.36,4.0,,61.74,63.495000000000005,
2025-08-14T23:12:47.797Z,4,GR86-025-47,-10.5,-0.907,-0.285,50.74,4.0,5359.0,53.96,55.715,
2025-08-14T23:12:47.840Z,4,GR86-025-47,-5.1000000000000005,-0.88,-0.295,69.41,3.0,,45.095,46.68,141.92000000000002
2025-08-14T23:12:47.883Z,4,GR86-025-47,6.6000000000000005,-0.801,-0.241,40.46,3.0,,41.185,42.65,
2025-08-14T23:12:47.926Z,4,GR86-025-47,21.700000000000003,-0.6960000000000001,-0.022,23.04,3.0,,35.555,36.99,
2025-08-14T23:12:47.969Z,4,GR86-025-47,22.200000000000003,-0.8170000000000001,-0.029,22.82,3.0,,36.485,37.355,
2025-08-14T23:12:48.012Z,4,GR86-025-47,20.8,-0.882,-0.247,4.0200000000000005,3.0,5042.0,36.455,37.175,
2025-08-14T23:12:48.055Z,4,GR86-025-47,18.6,-0.628,-0.053,3.93,3.0,,37.615,38.44,132.62
2025-08-14T23:12:48.098Z,4,GR86-025-47,17.0,-0.756,-0.092,3.71,3.0,,38.835,39.72,
2025-08-14T23:12:48.141Z,4,GR86-025-47,16.3,-0.728,-0.21,3.33,3.0,,39.43,40.365,
2025-08-14T23:12:48.184Z,4,GR86-025-47,15.1,-0.752,-0.163,3.13,3.0,,39.46,40.3,
2025-08-14T23:12:48.227Z,4,GR86-025-47,1.7000000000000002,-0.6930000000000001,-0.039,2.79,3.0,5953.0,33.71,34.685,
2025-08-14T23:12:48.271Z,4,GR86-025-47,-14.2,-0.6990000000000001,-0.043,2.78,3.0,,32.075,33.160000000000004,127.45
2025-08-14T23:12:48.314Z,4,GR86-025-47,-27.0,-0.756,-0.162,2.71,3.0,,28.645,29.53,
2025-08-14T23:12:48.401Z,4,GR86-025-47,-30.3,-0.582,-0.176,2.63,3.0,,26.17,27.055,
2025-08-14T23:12:48.444Z,4,GR86-025-47,-29.3,-0.621,-0.203,2.59,3.0,5592.0,24.83,25.605,
2025-08-14T23:12:48.488Z,4,GR86-025-47,-35.7,-0.612,-0.289,2.58,3.0,,23.745,24.43,123.0
2025-08-14T23:12:48.531Z,4,GR86-025-47,-41.6,-0.597,-0.433,2.56,3.0,,24.31,25.15,
2025-08-14T23:12:48.574Z,4,GR86-025-47,-42.7,-0.619,-0.474,2.57,3.0,,24.705,25.33,
2025-08-14T23:12:48.617Z,4,GR86-025-47,-38.8,-0.596,-0.518,2.57,3.0,,25.15,25.835,
2025-08-14T23:12:48.660Z,4,GR86-025-47,-23.9,-0.577,-0.587,2.54,3.0,5372.0,23.685,24.555,
2025-08-14T23:12:48.703Z,4,GR86-025-47,-10.2,-0.562,-0.551,2.53,3.0,,19.15,20.205,120.55
2025-08-14T23:12:48.748Z,4,GR86-025-47,-8.8,-0.371,-0.533,2.52,3.0,,5.705,6.24,
2025-08-14T23:12:48.791Z,4,GR86-025-47,-27.0,-0.248,-0.704,2.5,3.0,,0.0,0.0,
2025-08-14T23:12:48.834Z,4,GR86-025-47,-47.900000000000006,-0.175,-0.788,2.5,3.0,,0.0,0.0,
2025-08-14T23:12:48.877Z,4,GR86-025-47,-63.900000000000006,-0.203,-0.835,2.5,3.0,5294.0,0.0,0.0,
2025-08-14T23:12:48.921Z,4,GR86-025-47,-70.0,-0.195,-0.907,2.47,3.0,,0.0,0.0,118.24
2025-08-14T23:12:48.964Z,4,GR86-025-47,-68.60000000000001,-0.173,-0.908,2.46,3.0,,0.0,0.0,
2025-08-14T23:12:49.009Z,4,GR86-025-47,-49.5,-0.18,-0.884,2.45,3.0,,0.0,0.0,
2025-08-14T23:12:49.052Z,4,GR86-025-47,-40.8,-0.18,-0.843,2.45,3.0,,0.0,0.0,
2025-08-14T23:12:49.095Z,4,GR86-025-47,-40.0,-0.172,-0.845,2.45,3.0,5242.0,0.0,0.0,
2025-08-14T23:12:49.138Z,4,GR86-025-47,-49.900000000000006,-0.171,-0.94,2.45,3.0,,0.0,0.0,116.14
2025-08-14T23:12:49.181Z,4,GR86-025-47,-60.5,-0.193,-0.994,2.45,3.0,,0.0,0.0,
2025-08-14T23:12:49.224Z,4,GR86-025-47,-65.2,-0.201,-0.97,2.44,3.0,,0.0,0.0,
2025-08-14T23:12:49.354Z,4,GR86-025-47,-61.400000000000006,-0.188,-0.946,2.44,3.0,5201.0,0.0,0.0,115.22
2025-08-14T23:12:49.397Z,4,GR86-025-47,-34.6,-0.165,-0.952,2.47,3.0,,0.0,0.0,
2025-08-14T23:12:49.483Z,4,GR86-025-47,-34.2,-0.171,-0.983,2.46,3.0,,0.0,0.0,
2025-08-14T23:12:49.526Z,4,GR86-025-47,-34.300000000000004,-0.183,-0.978,2.46,3.0,5128.0,0.0,0.0,
2025-08-14T23:12:49.571Z,4,GR86-025-47,-38.8,-0.186,-0.942,2.47,3.0,,0.0,0.0,114.96
2025-08-14T23:12:49.614Z,4,GR86-025-47,-44.2,-0.195,-1.008,2.47,3.0,,0.0,0.0,
2025-08-14T23:12:49.657Z,4,GR86-025-47,-49.7,-0.165,-0.96,2.47,3.0,,0.0,0.0,
2025-08-14T23:12:49.701Z,4,GR86-025-47,-53.400000000000006,-0.191,-0.987,2.47,3.0,,0.0,0.0,
2025-08-14T23:12:49.744Z,4,GR86-025-47,-55.0,-0.187,-1.026,4.12,3.0,5061.0,0.0,0.0,
2025-08-14T23:12:49.788Z,4,GR86-025-47,-55.900000000000006,-0.163,-0.94,14.43,3.0,,0.0,0.0,113.63
2025-08-14T23:12:49.831Z,4,GR86-025-47,-57.400000000000006,-0.192,-1.012,18.57,3.0,,0.0,0.0,
2025-08-14T23:12:49.874Z,4,GR86-025-47,-60.5,-0.187,-0.993,18.94,3.0,,0.0,0.0,
2025-08-14T23:12:49.918Z,4,GR86-025-47,-64.10000000000001,-0.135,-0.94,19.11,3.0,,0.0,0.0,
2025-08-14T23:12:49.961Z,4,GR86-025-47,-66.4,-0.158,-0.97,18.61,3.0,4991.0,0.0,0.0,
2025-08-14T23:12:50.048Z,4,GR86-025-47,-50.5,-0.114,-0.991,15.94,3.0,,0.0,0.0,112.02
2025-08-14T23:12:50.091Z,4,GR86-025-47,-33.0,-0.001,-0.961,5.91,3.0,,0.0,0.0,
2025-08-14T23:12:50.134Z,4,GR86-025-47,-24.1,0.023,-0.929,6.05,3.0,,0.0,0.0,
2025-08-14T23:12:50.177Z,4,GR86-025-47,-24.5,-0.021,-0.943,6.0200000000000005,3.0,5129.0,0.0,0.0,
2025-08-14T23:12:50.221Z,4,GR86-025-47,-38.0,-0.066,-0.931,17.36,3.0,,0.0,0.0,110.45
2025-08-14T23:12:50.264Z,4,GR86-025-47,-52.0,-0.121,-0.979,21.02,3.0,,0.0,0.0,
2025-08-14T23:12:50.308Z,4,GR86-025-47,-71.60000000000001,-0.121,-0.891,21.21,3.0,,0.0,0.0,
2025-08-14T23:12:50.351Z,4,GR86-025-47,-81.4,-0.142,-0.954,24.32,3.0,,0.0,0.0,
2025-08-14T23:12:50.394Z,4,GR86-025-47,-86.4,-0.13,-0.974,28.39,3.0,4979.0,0.0,0.0,
2025-08-14T23:12:50.481Z,4,GR86-025-47,-87.5,-0.135,-1.035,29.8,3.0,,0.0,0.0,109.68
2025-08-14T23:12:50.524Z,4,GR86-025-47,-87.5,0.138,-0.89,31.61,3.0,,0.0,0.0,
2025-08-14T23:12:50.567Z,4,GR86-025-47,-87.80000000000001,0.073,-0.935,34.68,3.0,,0.0,0.0,
2025-08-14T23:12:50.611Z,4,GR86-025-47,-88.2,0.085,-0.944,36.32,3.0,5062.0,0.0,0.0,
2025-08-14T23:12:50.654Z,4,GR86-025-47,-88.2,0.081,-0.976,38.65,3.0,,0.0,0.0,106.81
2025-08-14T23:12:50.697Z,4,GR86-025-47,-88.2,0.064,-1.011,41.7,3.0,,0.0,0.0,
2025-08-14T23:12:50.740Z,4,GR86-025-47,-88.2,0.087,-0.97,41.66,3.0,,0.0,0.0,
2025-08-14T23:12:50.783Z,4,GR86-025-47,-88.60000000000001,0.087,-1.007,40.89,3.0,,0.0,0.0,
2025-08-14T23:12:50.826Z,4,GR86-025-47,-89.30000000000001,0.102,-0.966,38.38,3.0,5117.0,0.0,0.0,
2025-08-14T23:12:50.869Z,4,GR86-025-47,-89.80000000000001,0.089,-0.965,38.2,3.0,,0.0,0.0,107.22
2025-08-14T23:12:50.912Z,4,GR86-025-47,-90.1,0.084,-0.961,31.14,3.0,,0.0,0.0,
2025-08-14T23:12:50.955Z,4,GR86-025-47,-90.2,0.084,-0.996,29.77,3.0,,0.0,0.0,
2025-08-14T23:12:50.998Z,4,GR86-025-47,-90.3,0.084,-0.97,30.43,3.0,,0.0,0.0,
2025-08-14T23:12:51.041Z,4,GR86-025-47,-90.4,0.055,-0.95,31.05,3.0,5125.0,0.0,0.0,
2025-08-14T23:12:51.084Z,4,GR86-025-47,-90.4,0.051,-0.953,31.3,3.0,,0.0,0.0,107.89
2025-08-14T23:12:51.127Z,4,GR86-025-47,-90.4,0.045,-0.971,31.34,3.0,,0.0,0.0,
2025-08-14T23:12:51.171Z,4,GR86-025-47,-90.4,0.046,-0.989,31.39,3.0,,0.0,0.0,
2025-08-14T23:12:51.214Z,4,GR86-025-47,-86.7,0.056,-1.021,38.79,3.0,,0.0,0.0,
2025-08-14T23:12:51.258Z,4,GR86-025-47,-72.3,0.049,-1.004,50.64,3.0,5147.0,0.0,0.0,
2025-08-14T23:12:51.301Z,4,GR86-025-47,-54.0,0.065,-1.011,55.98,3.0,,0.0,0.0,108.45
2025-08-14T23:12:51.344Z,4,GR86-025-47,-37.8,0.106,-0.974,54.08,3.0,,0.0,0.0,
2025-08-14T23:12:51.388Z,4,GR86-025-47,-23.5,0.162,-0.933,49.83,3.0,,0.0,0.0,
2025-08-14T23:12:51.431Z,4,GR86-025-47,-22.0,0.17,-0.896,51.77,3.0,,0.0,0.0,
2025-08-14T23:12:51.474Z,4,GR86-025-47,-22.0,0.172,-0.905,55.85,3.0,5241.0,0.0,0.0,
2025-08-14T23:12:51.517Z,4,GR86-025-47,-22.4,0.165,-0.893,83.95,3.0,,0.0,0.0,109.31
2025-08-14T23:12:51.560Z,4,GR86-025-47,-20.700000000000003,0.153,-0.903,98.92,3.0,,0.0,0.0,
2025-08-14T23:12:51.603Z,4,GR86-025-47,-9.8,0.163,-0.873,99.97,3.0,,0.0,0.0,
2025-08-14T23:12:51.648Z,4,GR86-025-47,4.4,0.192,-0.8160000000000001,100.01,3.0,,0.0,0.0,
2025-08-14T23:12:51.691Z,4,GR86-025-47,5.6000000000000005,0.219,-0.796,100.01,3.0,5302.0,0.0,0.0,
2025-08-14T23:12:51.734Z,4,GR86-025-47,-2.9000000000000004,0.219,-0.8230000000000001,100.03,3.0,,0.0,0.0,109.92
2025-08-14T23:12:51.777Z,4,GR86-025-47,-24.3,0.216,-0.848,100.04,3.0,,0.0,0.0,
2025-08-14T23:12:51.821Z,4,GR86-025-47,-44.7,0.177,-0.917,100.03,3.0,,0.0,0.0,
2025-08-14T23:12:51.864Z,4,GR86-025-47,-58.6,0.168,-0.944,100.04,3.0,,0.0,0.0,
2025-08-14T23:12:51.908Z,4,GR86-025-47,-68.9,0.135,-0.981,100.04,3.0,5277.0,0.0,0.0,
2025-08-14T23:12:51.951Z,4,GR86-025-47,-71.7,0.133,-0.985,100.02,3.0,,0.0,0.0,109.93
2025-08-14T23:12:51.994Z,4,GR86-025-47,-72.9,0.14,-0.947,100.02,3.0,,0.0,0.0,
2025-08-14T23:12:52.038Z,4,GR86-025-47,-73.10000000000001,0.138,-0.939,100.01,3.0,,0.0,0.0,
2025-08-14T23:12:52.081Z,4,GR86-025-47,-73.0,0.134,-0.922,100.03,3.0,,0.0,0.0,
2025-08-14T23:12:52.124Z,4,GR86-025-47,-72.0,0.132,-0.928,100.03,3.0,5307.0,0.0,0.0,
2025-08-14T23:12:52.168Z,4,GR86-025-47,-49.5,0.132,-0.923,100.04,3.0,,0.0,0.0,110.65
2025-08-14T23:12:52.211Z,4,GR86-025-47,-27.200000000000003,0.143,-0.897,100.02,3.0,,0.0,0.0,
2025-08-14T23:12:52.254Z,4,GR86-025-47,-11.4,0.183,-0.792,100.03,3.0,,0.0,0.0,
2025-08-14T23:12:52.297Z,4,GR86-025-47,-8.9,0.203,-0.758,100.04,3.0,,0.0,0.0,
2025-08-14T23:12:52.340Z,4,GR86-025-47,-16.2,0.199,-0.786,100.02,3.0,5382.0,0.0,0.0,
2025-08-14T23:12:52.383Z,4,GR86-025-47,-28.5,0.188,-0.8160000000000001,100.03,3.0,,0.0,0.0,112.69
2025-08-14T23:12:52.426Z,4,GR86-025-47,-35.4,0.171,-0.8210000000000001,100.01,3.0,,0.0,0.0,
2025-08-14T23:12:52.469Z,4,GR86-025-47,-35.300000000000004,0.175,-0.8210000000000001,100.02,3.0,,0.0,0.0,
2025-08-14T23:12:52.512Z,4,GR86-025-47,-30.0,0.197,-0.8310000000000001,100.03,3.0,,0.0,0.0,
2025-08-14T23:12:52.555Z,4,GR86-025-47,-21.1,0.178,-0.778,100.01,3.0,5414.0,0.0,0.0,
2025-08-14T23:12:52.598Z,4,GR86-025-47,-17.3,0.175,-0.71,100.03,3.0,,0.0,0.0,113.02
2025-08-14T23:12:52.641Z,4,GR86-025-47,-17.5,0.19,-0.729,100.02,3.0,,0.0,0.0,
2025-08-14T23:12:52.684Z,4,GR86-025-47,-25.6,0.197,-0.757,100.0,3.0,,0.0,0.0,
2025-08-14T23:12:52.728Z,4,GR86-025-47,-35.300000000000004,0.179,-0.763,100.03,3.0,,0.0,0.0,
2025-08-14T23:12:52.771Z,4,GR86-025-47,-36.9,0.186,-0.741,100.02,3.0,5464.0,0.0,0.0,
2025-08-14T23:12:52.814Z,4,GR86-025-47,-37.0,0.169,-0.761,100.02,3.0,,0.0,0.0,113.5
2025-08-14T23:12:52.857Z,4,GR86-025-47,-36.7,0.17,-0.766,100.02,3.0,,0.0,0.0,
2025-08-14T23:12:52.901Z,4,GR86-025-47,-32.7,0.177,-0.6990000000000001,100.0,3.0,,0.0,0.0,
2025-08-14T23:12:52.944Z,4,GR86-025-47,-27.3,0.184,-0.64,100.0,3.0,,0.0,0.0,
2025-08-14T23:12:52.988Z,4,GR86-025-47,-24.700000000000003,0.202,-0.61,100.01,3.0,5483.0,0.0,0.0,
2025-08-14T23:12:53.031Z,4,GR86-025-47,-24.700000000000003,0.183,-0.595,100.03,3.0,,0.0,0.0,114.95
2025-08-14T23:12:53.074Z,4,GR86-025-47,-24.700000000000003,0.188,-0.582,100.01,3.0,,0.0,0.0,
2025-08-14T23:12:53.117Z,4,GR86-025-47,-24.6,0.185,-0.5700000000000001,100.02,3.0,,0.0,0.0,
2025-08-14T23:12:53.160Z,4,GR86-025-47,-24.3,0.179,-0.544,100.02,3.0,,0.0,0.0,
2025-08-14T23:12:53.203Z,4,GR86-025-47,-23.200000000000003,0.198,-0.518,100.01,3.0,5526.0,0.0,0.0,
2025-08-14T23:12:53.248Z,4,GR86-025-47,-23.1,0.202,-0.476,100.03,3.0,,0.0,0.0,117.54
2025-08-14T23:12:53.291Z,4,GR86-025-47,-23.1,0.191,-0.45,100.02,3.0,,0.0,0.0,
2025-08-14T23:12:53.334Z,4,GR86-025-47,-23.0,0.193,-0.433,100.04,3.0,,0.0,0.0,
2025-08-14T23:12:53.377Z,4,GR86-025-47,-21.1,0.186,-0.419,100.01,3.0,,0.0,0.0,
2025-08-14T23:12:53.421Z,4,GR86-025-47,-16.2,0.202,-0.399,100.02,3.0,5582.0,0.0,0.0,
2025-08-14T23:12:53.464Z,4,GR86-025-47,-12.3,0.203,-0.376,100.01,3.0,,0.0,0.0,118.88
2025-08-14T23:12:53.508Z,4,GR86-025-47,-11.0,0.207,-0.329,100.05,3.0,,0.0,0.0,
2025-08-14T23:12:53.551Z,4,GR86-025-47,-11.1,0.208,-0.287,100.03,3.0,,0.0,0.0,
2025-08-14T23:12:53.594Z,4,GR86-025-47,-11.2,0.202,-0.288,100.04,3.0,,0.0,0.0,
2025-08-14T23:12:53.637Z,4,GR86-025-47,-11.2,0.197,-0.269,100.02,3.0,5651.0,0.0,0.0,
2025-08-14T23:12:53.681Z,4,GR86-025-47,-11.3,0.206,-0.245,100.03,3.0,,0.0,0.0,120.3
2025-08-14T23:12:53.724Z,4,GR86-025-47,-11.3,0.198,-0.199,100.04,3.0,,0.0,0.0,
2025-08-14T23:12:53.768Z,4,GR86-025-47,-10.2,0.196,-0.169,100.01,3.0,,0.0,0.0,
2025-08-14T23:12:53.811Z,4,GR86-025-47,-9.2,0.206,-0.122,100.02,3.0,,0.0,0.0,
2025-08-14T23:12:53.854Z,4,GR86-025-47,-8.700000000000001,0.224,-0.066,100.02,3.0,5767.0,0.0,0.0,
2025-08-14T23:12:53.897Z,4,GR86-025-47,-8.700000000000001,0.19,-0.075,100.01,3.0,,0.0,0.0,121.67
2025-08-14T23:12:53.940Z,4,GR86-025-47,-8.700000000000001,0.192,-0.078,100.01,3.0,,0.0,0.0,
2025-08-14T23:12:53.983Z,4,GR86-025-47,-9.0,0.195,-0.052,100.01,3.0,,0.0,0.0,
2025-08-14T23:12:54.027Z,4,GR86-025-47,-9.0,0.223,-0.03,100.02,3.0,,0.0,0.0,
2025-08-14T23:12:54.071Z,4,GR86-025-47,-9.0,0.211,-0.054,100.04,3.0,5827.0,0.0,0.0,
2025-08-14T23:12:54.114Z,4,GR86-025-47,-9.1,0.205,-0.049,100.03,3.0,,0.0,0.0,123.17
2025-08-14T23:12:54.157Z,4,GR86-025-47,-9.1,0.208,-0.026,100.02,3.0,,0.0,0.0,
2025-08-14T23:12:54.201Z,4,GR86-025-47,-9.2,0.196,-0.029,100.04,3.0,,0.0,0.0,
2025-08-14T23:12:54.244Z,4,GR86-025-47,-9.2,0.198,-0.045,100.02,3.0,,0.0,0.0,
2025-08-14T23:12:54.288Z,4,GR86-025-47,-9.2,0.185,-0.07,100.01,3.0,5891.0,0.0,0.0,
2025-08-14T23:12:54.331Z,4,GR86-025-47,-9.2,0.195,-0.055,100.02,3.0,,0.0,0.0,124.58
2025-08-14T23:12:54.374Z,4,GR86-025-47,-8.9,0.191,-0.065,100.02,3.0,,0.0,0.0,
2025-08-14T23:12:54.418Z,4,GR86-025-47,-8.3,0.192,-0.054,100.02,3.0,,0.0,0.0,
2025-08-14T23:12:54.461Z,4,GR86-025-47,-8.3,0.196,-0.047,100.01,3.0,,0.0,0.0,
2025-08-14T23:12:54.504Z,4,GR86-025-47,-8.5,0.198,-0.029,100.01,3.0,5957.0,0.0,0.0,
2025-08-14T23:12:54.548Z,4,GR86-025-47,-8.700000000000001,0.216,-0.043,100.01,3.0,,0.0,0.0,126.08
2025-08-14T23:12:54.591Z,4,GR86-025-47,-9.0,0.203,-0.075,100.01,3.0,,0.0,0.0,
2025-08-14T23:12:54.634Z,4,GR86-025-47,-9.1,0.199,-0.082,100.02,3.0,,0.0,0.0,
2025-08-14T23:12:54.677Z,4,GR86-025-47,-9.1,0.193,-0.061,100.03,3.0,,0.0,0.0,
2025-08-14T23:12:54.721Z,4,GR86-025-47,-7.9,0.187,-0.047,100.04,3.0,6029.0,0.0,0.0,
2025-08-14T23:12:54.764Z,4,GR86-025-47,-7.9,0.18,-0.071,100.03,3.0,,0.0,0.0,127.52
2025-08-14T23:12:54.808Z,4,GR86-025-47,-8.1,0.179,-0.065,100.02,3.0,,0.0,0.0,
2025-08-14T23:12:54.851Z,4,GR86-025-47,-8.1,0.197,-0.069,100.01,3.0,,0.0,0.0,
2025-08-14T23:12:54.894Z,4,GR86-025-47,-8.1,0.202,-0.05,100.01,3.0,,0.0,0.0,
2025-08-14T23:12:54.937Z,4,GR86-025-47,-7.7,0.179,-0.054,100.02,3.0,6091.0,0.0,0.0,
2025-08-14T23:12:54.981Z,4,GR86-025-47,-6.5,0.219,-0.043,100.01,3.0,,0.0,0.0,129.02
2025-08-14T23:12:55.024Z,4,GR86-025-47,-5.0,0.22,-0.009,100.01,3.0,,0.0,0.0,
2025-08-14T23:12:55.067Z,4,GR86-025-47,-3.0,0.212,0.01,100.0,3.0,,0.0,0.0,
2025-08-14T23:12:55.111Z,4,GR86-025-47,-2.6,0.228,0.031,100.02,3.0,,0.0,0.0,
2025-08-14T23:12:55.154Z,4,GR86-025-47,-2.6,0.187,0.038,100.02,3.0,6176.0,0.0,0.0,
2025-08-14T23:12:55.197Z,4,GR86-025-47,-3.0,0.169,0.036,100.01,3.0,,0.0,0.0,130.55
2025-08-14T23:12:55.240Z,4,GR86-025-47,-3.1,0.213,0.068,100.02,3.0,,0.0,0.0,
2025-08-14T23:12:55.283Z,4,GR86-025-47,-3.1,0.164,0.057,100.03,3.0,,0.0,0.0,
2025-08-14T23:12:55.326Z,4,GR86-025-47,-2.8000000000000003,0.236,0.117,100.03,3.0,,0.0,0.0,
2025-08-14T23:12:55.369Z,4,GR86-025-47,-2.8000000000000003,0.206,0.113,100.04,3.0,6233.0,0.0,0.0,
2025-08-14T23:12:55.412Z,4,GR86-025-47,-2.9000000000000004,0.169,0.122,100.02,3.0,,0.0,0.0,132.06
2025-08-14T23:12:55.455Z,4,GR86-025-47,-3.0,0.215,0.128,100.01,3.0,,0.0,0.0,
2025-08-14T23:12:55.498Z,4,GR86-025-47,-3.2,0.216,0.127,100.02,3.0,,0.0,0.0,
2025-08-14T23:12:55.541Z,4,GR86-025-47,-3.2,0.175,0.106,100.02,3.0,,0.0,0.0,
2025-08-14T23:12:55.585Z,4,GR86-025-47,-3.3000000000000003,0.235,0.118,100.03,3.0,6307.0,0.0,0.0,
2025-08-14T23:12:55.628Z,4,GR86-025-47,-3.3000000000000003,0.158,0.079,100.02,3.0,,0.0,0.0,133.61
2025-08-14T23:12:55.671Z,4,GR86-025-47,-3.4000000000000004,0.201,0.084,100.03,3.0,,0.0,0.0,
2025-08-14T23:12:55.714Z,4,GR86-025-47,-3.4000000000000004,0.218,0.095,100.03,3.0,,0.0,0.0,
2025-08-14T23:12:55.757Z,4,GR86-025-47,-3.4000000000000004,0.193,0.083,100.0,3.0,,0.0,0.0,
2025-08-14T23:12:55.801Z,4,GR86-025-47,-3.5,0.169,0.053,100.03,3.0,6388.0,0.0,0.0,
2025-08-14T23:12:55.844Z,4,GR86-025-47,-3.5,0.19,0.058,100.01,3.0,,0.0,0.0,135.15
2025-08-14T23:12:55.888Z,4,GR86-025-47,-3.4000000000000004,0.164,0.063,100.01,3.0,,0.0,0.0,
2025-08-14T23:12:55.931Z,4,GR86-025-47,-3.1,0.215,0.071,100.05,3.0,,0.0,0.0,
2025-08-14T23:12:55.974Z,4,GR86-025-47,-2.5,0.158,0.068,100.03,3.0,,0.0,0.0,
2025-08-14T23:12:56.017Z,4,GR86-025-47,-2.4000000000000004,0.173,0.092,100.01,3.0,6453.0,0.0,0.0,
2025-08-14T23:12:56.060Z,4,GR86-025-47,-2.6,0.179,0.091,100.03,3.0,,0.0,0.0,138.28
2025-08-14T23:12:56.103Z,4,GR86-025-47,-2.7,0.208,0.112,100.01,3.0,,0.0,0.0,
2025-08-14T23:12:56.148Z,4,GR86-025-47,-2.8000000000000003,0.2,0.108,100.04,3.0,,0.0,0.0,
2025-08-14T23:12:56.191Z,4,GR86-025-47,-2.8000000000000003,0.216,0.123,100.01,3.0,,0.0,0.0,
2025-08-14T23:12:56.234Z,4,GR86-025-47,-2.9000000000000004,0.195,0.128,100.03,3.0,6554.0,0.0,0.0,
2025-08-14T23:12:56.277Z,4,GR86-025-47,-3.1,0.196,0.12,100.0,3.0,,0.0,0.0,139.85
2025-08-14T23:12:56.320Z,4,GR86-025-47,-3.2,0.183,0.127,100.02,3.0,,0.0,0.0,
2025-08-14T23:12:56.363Z,4,GR86-025-47,-3.3000000000000003,0.21,0.119,100.02,3.0,,0.0,0.0,
2025-08-14T23:12:56.406Z,4,GR86-025-47,-3.5,0.179,0.102,100.02,3.0,,0.0,0.0,
2025-08-14T23:12:56.449Z,4,GR86-025-47,-3.9,0.204,0.107,100.0,3.0,6705.0,0.0,0.0,
2025-08-14T23:12:56.492Z,4,GR86-025-47,-4.3,0.197,0.085,100.02,3.0,,0.0,0.0,141.56
2025-08-14T23:12:56.535Z,4,GR86-025-47,-4.4,0.168,0.075,100.01,3.0,,0.0,0.0,
2025-08-14T23:12:56.578Z,4,GR86-025-47,-4.4,0.204,0.084,100.01,3.0,,0.0,0.0,
2025-08-14T23:12:56.621Z,4,GR86-025-47,-4.4,0.198,0.048,100.01,3.0,,0.0,0.0,
2025-08-14T23:12:56.664Z,4,GR86-025-47,-4.5,0.225,0.054,100.03,3.0,6772.0,0.0,0.0,
2025-08-14T23:12:56.708Z,4,GR86-025-47,-4.5,0.203,0.046,100.02,3.0,,0.0,0.0,143.25
2025-08-14T23:12:56.751Z,4,GR86-025-47,-4.5,0.196,0.068,100.03,3.0,,0.0,0.0,
2025-08-14T23:12:56.794Z,4,GR86-025-47,-4.5,0.163,0.06,100.03,3.0,,0.0,0.0,
2025-08-14T23:12:56.881Z,4,GR86-025-47,-4.6000000000000005,0.168,0.039,100.0,3.0,6854.0,0.0,0.0,
2025-08-14T23:12:56.924Z,4,GR86-025-47,-4.7,0.194,0.047,100.01,3.0,,0.0,0.0,145.04
2025-08-14T23:12:56.968Z,4,GR86-025-47,-4.800000000000001,0.204,0.049,100.03,3.0,,0.0,0.0,
2025-08-14T23:12:57.011Z,4,GR86-025-47,-4.9,0.208,0.027,100.01,3.0,,0.0,0.0,
2025-08-14T23:12:57.054Z,4,GR86-025-47,-5.0,0.206,0.048,100.03,3.0,,0.0,0.0,
2025-08-14T23:12:57.097Z,4,GR86-025-47,-5.4,0.167,0.055,100.01,3.0,6925.0,0.0,0.0,
2025-08-14T23:12:57.140Z,4,GR86-025-47,-6.800000000000001,0.164,0.024,99.99,3.0,,0.0,0.0,146.79
2025-08-14T23:12:57.183Z,4,GR86-025-47,-8.200000000000001,0.206,0.017,100.01,3.0,,0.0,0.0,
2025-08-14T23:12:57.226Z,4,GR86-025-47,-8.8,0.157,-0.024,100.02,3.0,,0.0,0.0,
2025-08-14T23:12:57.269Z,4,GR86-025-47,-8.9,0.212,-0.026,100.0,3.0,,0.0,0.0,
2025-08-14T23:12:57.312Z,4,GR86-025-47,-8.9,0.16,-0.068,100.03,3.0,7015.0,0.0,0.0,
2025-08-14T23:12:57.355Z,4,GR86-025-47,-9.0,0.188,-0.063,100.01,3.0,,0.0,0.0,148.47
2025-08-14T23:12:57.398Z,4,GR86-025-47,-9.0,0.167,-0.074,100.01,3.0,,0.0,0.0,
2025-08-14T23:12:57.441Z,4,GR86-025-47,-9.0,0.173,-0.085,100.01,3.0,,0.0,0.0,
2025-08-14T23:12:57.484Z,4,GR86-025-47,-8.5,0.214,-0.104,100.01,3.0,,0.0,0.0,
2025-08-14T23:12:57.528Z,4,GR86-025-47,-8.5,0.137,-0.097,100.03,3.0,7108.0,0.0,0.0,
2025-08-14T23:12:57.571Z,4,GR86-025-47,-8.5,0.197,-0.116,99.99,3.0,,0.0,0.0,150.06
2025-08-14T23:12:57.614Z,4,GR86-025-47,-8.4,0.123,-0.091,100.02,3.0,,0.0,0.0,
2025-08-14T23:12:57.657Z,4,GR86-025-47,-8.4,0.163,-0.085,100.0,3.0,,0.0,0.0,
2025-08-14T23:12:57.701Z,4,GR86-025-47,-8.4,0.19,-0.064,100.01,3.0,,0.0,0.0,
2025-08-14T23:12:57.744Z,4,GR86-025-47,-8.3,0.192,-0.036,100.02,3.0,7156.0,0.0,0.0,
2025-08-14T23:12:57.788Z,4,GR86-025-47,-8.1,0.187,-0.058,100.01,3.0,,0.0,0.0,151.92000000000002
2025-08-14T23:12:57.831Z,4,GR86-025-47,-8.1,0.193,-0.034,100.02,3.0,,0.0,0.0,
2025-08-14T23:12:57.874Z,4,GR86-025-47,-8.1,0.125,-0.032,100.01,3.0,,0.0,0.0,
2025-08-14T23:12:57.917Z,4,GR86-025-47,-8.1,0.076,-0.007,100.01,3.0,,0.0,0.0,
2025-08-14T23:12:57.960Z,4,GR86-025-47,-8.1,-0.135,0.04,100.01,4.0,7231.0,0.0,0.0,
2025-08-14T23:12:58.003Z,4,GR86-025-47,-8.1,0.341,0.047,100.02,4.0,,0.0,0.0,153.51
2025-08-14T23:12:58.048Z,4,GR86-025-47,-7.7,0.252,-0.128,100.02,4.0,,0.0,0.0,
2025-08-14T23:12:58.091Z,4,GR86-025-47,-7.9,-0.018,0.033,100.01,4.0,,0.0,0.0,
2025-08-14T23:12:58.134Z,4,GR86-025-47,-7.9,0.045,0.058,100.02,4.0,,0.0,0.0,
2025-08-14T23:12:58.177Z,4,GR86-025-47,-8.0,0.146,-0.018,100.01,4.0,6279.0,0.0,0.0,
2025-08-14T23:12:58.221Z,4,GR86-025-47,-8.1,0.186,-0.062,100.01,4.0,,0.0,0.0,155.11
2025-08-14T23:12:58.264Z,4,GR86-025-47,-8.6,0.158,0.005,100.0,4.0,,0.0,0.0,
2025-08-14T23:12:58.308Z,4,GR86-025-47,-9.9,0.071,-0.087,100.01,4.0,,0.0,0.0,
2025-08-14T23:12:58.351Z,4,GR86-025-47,-10.9,0.172,-0.103,100.02,4.0,,0.0,0.0,
2025-08-14T23:12:58.394Z,4,GR86-025-47,-12.7,0.147,-0.095,100.0,4.0,6166.0,0.0,0.0,
2025-08-14T23:12:58.437Z,4,GR86-025-47,-14.8,0.175,-0.129,100.01,4.0,,0.0,0.0,156.78
2025-08-14T23:12:58.481Z,4,GR86-025-47,-14.9,0.104,-0.21,100.02,4.0,,0.0,0.0,
2025-08-14T23:12:58.524Z,4,GR86-025-47,-14.9,0.128,-0.185,100.01,4.0,,0.0,0.0,
2025-08-14T23:12:58.568Z,4,GR86-025-47,-14.7,0.127,-0.216,100.01,4.0,,0.0,0.0,
2025-08-14T23:12:58.611Z,4,GR86-025-47,-14.6,0.135,-0.243,100.01,4.0,6239.0,0.0,0.0,
2025-08-14T23:12:58.654Z,4,GR86-025-47,-14.6,0.163,-0.247,100.01,4.0,,0.0,0.0,159.43
2025-08-14T23:12:58.697Z,4,GR86-025-47,-14.6,0.119,-0.266,100.01,4.0,,0.0,0.0,
2025-08-14T23:12:58.740Z,4,GR86-025-47,-14.6,0.078,-0.297,100.02,4.0,,0.0,0.0,
2025-08-14T23:12:58.783Z,4,GR86-025-47,-14.5,0.15,-0.305,100.03,4.0,,0.0,0.0,
2025-08-14T23:12:58.826Z,4,GR86-025-47,-12.4,0.123,-0.297,100.02,4.0,6318.0,0.0,0.0,
2025-08-14T23:12:58.871Z,4,GR86-025-47,-11.1,0.101,-0.311,100.01,4.0,,0.0,0.0,160.69
2025-08-14T23:12:58.914Z,4,GR86-025-47,-10.0,0.129,-0.285,100.02,4.0,,0.0,0.0,
2025-08-14T23:12:58.957Z,4,GR86-025-47,-9.8,0.083,-0.273,100.01,4.0,,0.0,0.0,
2025-08-14T23:12:59.001Z,4,GR86-025-47,-9.8,0.098,-0.23,100.01,4.0,,0.0,0.0,
2025-08-14T23:12:59.044Z,4,GR86-025-47,-10.0,0.143,-0.2,100.01,4.0,6360.0,0.0,0.0,
2025-08-14T23:12:59.088Z,4,GR86-025-47,-11.8,0.093,-0.203,100.0,4.0,,0.0,0.0,162.11
2025-08-14T23:12:59.131Z,4,GR86-025-47,-11.8,0.089,-0.225,100.03,4.0,,3.28,3.465,
2025-08-14T23:12:59.174Z,4,GR86-025-47,-11.5,0.148,-0.186,100.01,4.0,,2.915,3.065,
2025-08-14T23:12:59.218Z,4,GR86-025-47,-8.9,0.102,-0.172,100.0,4.0,,0.0,0.0,
2025-08-14T23:12:59.261Z,4,GR86-025-47,-8.700000000000001,0.113,-0.144,100.01,4.0,6450.0,0.0,0.0,
2025-08-14T23:12:59.304Z,4,GR86-025-47,-8.8,0.135,-0.11,100.0,4.0,,0.0,0.0,163.41
2025-08-14T23:12:59.348Z,4,GR86-025-47,-9.8,0.119,-0.148,100.01,4.0,,0.0,0.0,
2025-08-14T23:12:59.391Z,4,GR86-025-47,-11.9,0.101,-0.159,100.01,4.0,,0.0,0.0,
2025-08-14T23:12:59.434Z,4,GR86-025-47,-12.3,0.1,-0.163,100.01,4.0,,0.0,0.0,
2025-08-14T23:12:59.477Z,4,GR86-025-47,-12.3,0.123,-0.165,100.0,4.0,6499.0,0.0,0.0,
2025-08-14T23:12:59.521Z,4,GR86-025-47,-12.4,0.148,-0.163,100.01,4.0,,0.0,0.0,164.63
2025-08-14T23:12:59.564Z,4,GR86-025-47,-11.6,0.126,-0.14,100.01,4.0,,0.0,0.0,
2025-08-14T23:12:59.608Z,4,GR86-025-47,-10.1,0.11,-0.161,100.01,4.0,,0.0,0.0,
2025-08-14T23:12:59.651Z,4,GR86-025-47,-9.9,0.12,-0.151,100.01,4.0,,0.0,0.0,
2025-08-14T23:12:59.694Z,4,GR86-025-47,-9.9,0.14,-0.163,99.61,4.0,6558.0,4.24,4.595,
2025-08-14T23:12:59.737Z,4,GR86-025-47,-9.9,0.099,-0.145,49.27,4.0,,9.52,9.72,165.89
2025-08-14T23:12:59.781Z,4,GR86-025-47,-9.9,0.033,-0.14,18.93,4.0,,11.995,12.175,
2025-08-14T23:12:59.824Z,4,GR86-025-47,-9.8,-0.11,-0.12,3.14,4.0,,20.08,20.05,
2025-08-14T23:12:59.868Z,4,GR86-025-47,-8.0,-0.387,-0.089,3.11,4.0,,26.08,25.99,
2025-08-14T23:12:59.911Z,4,GR86-025-47,-3.9,-0.578,-0.029,3.01,4.0,6492.0,34.84,34.685,
2025-08-14T23:12:59.954Z,4,GR86-025-47,-0.3,-0.765,-0.05,2.92,4.0,,39.785,39.525,166.77
2025-08-14T23:12:59.997Z,4,GR86-025-47,1.2000000000000002,-0.729,-0.011,2.82,4.0,,44.56,44.195,
2025-08-14T23:13:00.041Z,4,GR86-025-47,1.1,-0.804,0.034,2.75,4.0,,50.19,49.52,
2025-08-14T23:13:00.085Z,4,GR86-025-47,0.5,-0.911,0.005,2.72,4.0,,53.685,53.06,
2025-08-14T23:13:00.128Z,4,GR86-025-47,-8.0,-1.063,-0.056,2.63,4.0,6150.0,71.11,70.24,
2025-08-14T23:13:00.171Z,4,GR86-025-47,-10.7,-1.137,-0.104,2.63,4.0,,74.715,73.875,163.67000000000002
2025-08-14T23:13:00.214Z,4,GR86-025-47,-11.2,-1.095,-0.106,2.59,4.0,,82.33,82.465,
2025-08-14T23:13:00.258Z,4,GR86-025-47,-8.700000000000001,-1.128,-0.121,2.59,4.0,,86.74,88.02,
2025-08-14T23:13:00.301Z,4,GR86-025-47,-5.7,-1.133,-0.106,2.6,4.0,,83.93,84.74,
2025-08-14T23:13:00.344Z,4,GR86-025-47,-4.800000000000001,-0.979,-0.038,2.6,4.0,5749.0,71.11,73.31,
2025-08-14T23:13:00.388Z,4,GR86-025-47,-2.8000000000000003,-1.123,-0.081,2.6,4.0,,61.620000000000005,63.865,155.96
2025-08-14T23:13:00.431Z,4,GR86-025-47,-2.9000000000000004,-1.093,-0.02,33.58,4.0,,60.43,60.885,
2025-08-14T23:13:00.474Z,4,GR86-025-47,-3.6,-1.166,0.004,55.3,4.0,,60.52,61.36,
2025-08-14T23:13:00.517Z,4,GR86-025-47,-9.7,-1.097,-0.069,88.88,3.0,,60.23,61.085,
2025-08-14T23:13:00.560Z,4,GR86-025-47,-14.1,-1.044,-0.13,31.7,3.0,5415.0,58.995000000000005,59.71,
2025-08-14T23:13:00.603Z,4,GR86-025-47,-17.8,-1.012,-0.169,22.79,3.0,,57.59,59.24,145.02
2025-08-14T23:13:00.648Z,4,GR86-025-47,-18.2,-0.809,-0.213,2.76,3.0,,49.17,49.73,
2025-08-14T23:13:00.691Z,4,GR86-025-47,-9.7,-0.894,-0.353,3.29,3.0,,44.285,45.625,
2025-08-14T23:13:00.734Z,4,GR86-025-47,0.7000000000000001,-0.8200000000000001,-0.173,3.26,3.0,,43.765,45.065,
2025-08-14T23:13:00.777Z,4,GR86-025-47,6.300000000000001,-0.81,-0.124,3.23,3.0,5875.0,43.705,44.775,
2025-08-14T23:13:00.821Z,4,GR86-025-47,8.8,-0.81,-0.248,3.14,3.0,,41.89,42.985,141.66
2025-08-14T23:13:00.864Z,4,GR86-025-47,8.6,-0.778,-0.243,3.0700000000000003,3.0,,38.595,39.72,
2025-08-14T23:13:00.908Z,4,GR86-025-47,4.5,-0.744,-0.194,2.85,3.0,,33.875,34.78,
2025-08-14T23:13:00.951Z,4,GR86-025-47,3.4000000000000004,-0.745,-0.288,2.74,3.0,,33.28,34.18,
2025-08-14T23:13:00.994Z,4,GR86-025-47,3.2,-0.786,-0.327,2.67,3.0,6017.0,33.68,34.215,
2025-08-14T23:13:01.038Z,4,GR86-025-47,4.4,-0.749,-0.309,2.59,3.0,,34.49,35.235,136.64
2025-08-14T23:13:01.081Z,4,GR86-025-47,5.2,-0.777,-0.212,2.59,3.0,,34.565,35.085,
2025-08-14T23:13:01.124Z,4,GR86-025-47,5.5,-0.764,-0.176,20.28,3.0,,34.96,35.465,
2025-08-14T23:13:01.168Z,4,GR86-025-47,3.8,-0.759,-0.21,63.97,3.0,,35.435,36.03,
2025-08-14T23:13:01.211Z,4,GR86-025-47,-10.1,-0.767,-0.194,98.94,2.0,5885.0,36.09,36.67,
2025-08-14T23:13:01.254Z,4,GR86-025-47,-21.8,-0.6990000000000001,-0.269,42.44,2.0,,36.64,37.325,126.94
2025-08-14T23:13:01.297Z,4,GR86-025-47,-27.700000000000003,-0.929,-0.351,28.61,2.0,,37.45,38.47,
2025-08-14T23:13:01.340Z,4,GR86-025-47,-30.3,-0.857,-0.331,22.01,2.0,,38.255,39.43,
2025-08-14T23:13:01.383Z,4,GR86-025-47,-30.200000000000003,-0.798,-0.277,6.01,2.0,,38.18,38.9,
2025-08-14T23:13:01.426Z,4,GR86-025-47,-19.1,-0.709,-0.525,3.0700000000000003,2.0,5708.0,37.145,37.77,
2025-08-14T23:13:01.469Z,4,GR86-025-47,-17.3,-0.76,-0.43,3.0500000000000003,2.0,,37.295,37.89,122.32
2025-08-14T23:13:01.512Z,4,GR86-025-47,-17.7,-0.743,-0.341,2.97,2.0,,38.745,39.095,
2025-08-14T23:13:01.555Z,4,GR86-025-47,-22.8,-0.792,-0.5640000000000001,2.92,2.0,,39.46,40.18,
2025-08-14T23:13:01.598Z,4,GR86-025-47,-27.0,-0.802,-0.509,2.79,2.0,,39.785,40.59,
2025-08-14T23:13:01.641Z,4,GR86-025-47,-28.1,-0.735,-0.55,2.69,2.0,6799.0,41.25,42.055,
2025-08-14T23:13:01.685Z,4,GR86-025-47,-28.1,-0.744,-0.556,2.66,2.0,,41.935,42.955,118.55
2025-08-14T23:13:01.728Z,4,GR86-025-47,-14.5,-0.767,-0.5670000000000001,2.58,2.0,,42.865,43.325,
2025-08-14T23:13:01.771Z,4,GR86-025-47,-8.8,-0.7010000000000001,-0.591,2.56,2.0,,42.775,43.89,
2025-08-14T23:13:01.814Z,4,GR86-025-47,-8.6,-0.708,-0.56,2.53,2.0,,39.035,39.555,
2025-08-14T23:13:01.857Z,4,GR86-025-47,-21.200000000000003,-0.8200000000000001,-0.541,2.54,2.0,6066.0,38.35,38.745,
2025-08-14T23:13:01.901Z,4,GR86-025-47,-39.0,-0.784,-0.68,2.53,2.0,,38.865,39.28,113.46
2025-08-14T23:13:01.944Z,4,GR86-025-47,-55.900000000000006,-0.735,-0.708,2.54,2.0,,39.065,39.785,
2025-08-14T23:13:01.988Z,4,GR86-025-47,-71.2,-0.714,-0.746,2.53,2.0,,41.14,41.86,
2025-08-14T23:13:02.031Z,4,GR86-025-47,-72.5,-0.749,-0.8130000000000001,2.52,2.0,,41.4,41.995,
2025-08-14T23:13:02.074Z,4,GR86-025-47,-69.10000000000001,-0.8240000000000001,-0.804,2.53,2.0,5732.0,40.96,41.49,
2025-08-14T23:13:02.117Z,4,GR86-025-47,-59.5,-0.772,-0.866,2.53,2.0,,39.785,40.655,108.84
2025-08-14T23:13:02.160Z,4,GR86-025-47,-52.1,-0.672,-0.8200000000000001,2.54,2.0,,36.275,37.02,
2025-08-14T23:13:02.203Z,4,GR86-025-47,-47.400000000000006,-0.704,-0.784,2.54,2.0,,35.375,35.89,
2025-08-14T23:13:02.248Z,4,GR86-025-47,-45.6,-0.682,-0.788,2.51,2.0,,36.12,36.775,
2025-08-14T23:13:02.291Z,4,GR86-025-47,-47.1,-0.669,-0.88,2.52,2.0,5580.0,35.71,36.455,
2025-08-14T23:13:02.334Z,4,GR86-025-47,-55.2,-0.7000000000000001,-0.963,2.51,2.0,,31.925,32.9,104.0
2025-08-14T23:13:02.377Z,4,GR86-025-47,-64.5,-0.6880000000000001,-0.927,2.51,2.0,,30.045,30.965,
2025-08-14T23:13:02.421Z,4,GR86-025-47,-72.0,-0.64,-0.887,2.5,2.0,,28.34,29.145,
2025-08-14T23:13:02.464Z,4,GR86-025-47,-74.2,-0.635,-0.939,2.51,2.0,,25.485,26.4,
2025-08-14T23:13:02.508Z,4,GR86-025-47,-61.3,-0.611,-1.011,2.5,2.0,5249.0,13.825,14.39,
2025-08-14T23:13:02.551Z,4,GR86-025-47,-46.900000000000006,-0.396,-1.057,2.5,2.0,,4.775,5.19,99.96
2025-08-14T23:13:02.594Z,4,GR86-025-47,-41.400000000000006,-0.255,-1.036,2.51,2.0,,0.0,0.0,
2025-08-14T23:13:02.637Z,4,GR86-025-47,-47.6,-0.229,-1.018,2.51,2.0,,0.0,0.0,
2025-08-14T23:13:02.681Z,4,GR86-025-47,-58.5,-0.228,-1.01,2.51,2.0,,0.0,0.0,
2025-08-14T23:13:02.724Z,4,GR86-025-47,-62.900000000000006,-0.202,-1.044,2.51,2.0,5210.0,0.0,0.0,
2025-08-14T23:13:02.768Z,4,GR86-025-47,-55.2,-0.197,-1.067,2.51,2.0,,0.0,0.0,96.06
2025-08-14T23:13:02.811Z,4,GR86-025-47,-44.7,-0.195,-1.087,2.5,2.0,,0.0,0.0,
2025-08-14T23:13:02.854Z,4,GR86-025-47,-39.0,-0.189,-1.08,2.51,2.0,,0.0,0.0,
2025-08-14T23:13:02.897Z,4,GR86-025-47,-37.8,-0.175,-1.018,2.51,2.0,,0.0,0.0,
2025-08-14T23:13:02.940Z,4,GR86-025-47,-40.3,-0.174,-1.035,3.06,2.0,5160.0,0.0,0.0,
2025-08-14T23:13:02.983Z,4,GR86-025-47,-51.3,-0.179,-1.04,4.14,2.0,,0.0,0.0,95.28
2025-08-14T23:13:03.027Z,4,GR86-025-47,-70.0,-0.196,-0.996,6.46,2.0,,0.0,0.0,
2025-08-14T23:13:03.071Z,4,GR86-025-47,-79.4,-0.19,-0.985,10.31,2.0,,0.0,0.0,
2025-08-14T23:13:03.114Z,4,GR86-025-47,-84.0,-0.189,-0.939,18.08,2.0,,0.0,0.0,
2025-08-14T23:13:03.158Z,4,GR86-025-47,-85.80000000000001,-0.172,-0.934,18.76,2.0,5070.0,0.0,0.0,
2025-08-14T23:13:03.201Z,4,GR86-025-47,-86.0,-0.158,-0.957,19.19,2.0,,0.0,0.0,93.72
2025-08-14T23:13:03.244Z,4,GR86-025-47,-85.80000000000001,-0.163,-0.956,19.71,2.0,,0.0,0.0,
2025-08-14T23:13:03.288Z,4,GR86-025-47,-84.7,-0.143,-0.957,19.92,2.0,,0.0,0.0,
2025-08-14T23:13:03.331Z,4,GR86-025-47,-84.2,-0.125,-0.982,20.0,2.0,,0.0,0.0,
2025-08-14T23:13:03.374Z,4,GR86-025-47,-83.9,-0.109,-0.976,19.96,2.0,5038.0,0.0,0.0,
2025-08-14T23:13:03.418Z,4,GR86-025-47,-83.7,0.05,-0.983,19.71,2.0,,0.0,0.0,91.21
2025-08-14T23:13:03.461Z,4,GR86-025-47,-83.4,0.032,-0.974,21.16,2.0,,0.0,0.0,
2025-08-14T23:13:03.504Z,4,GR86-025-47,-83.60000000000001,0.015,-0.945,21.87,2.0,,0.0,0.0,
2025-08-14T23:13:03.548Z,4,GR86-025-47,-84.4,0.001,-0.947,22.01,2.0,,0.0,0.0,
2025-08-14T23:13:03.591Z,4,GR86-025-47,-84.80000000000001,-0.005,-0.958,22.1,2.0,5226.0,0.0,0.0,
2025-08-14T23:13:03.634Z,4,GR86-025-47,-85.80000000000001,0.024,-0.953,22.13,2.0,,0.0,0.0,89.66
2025-08-14T23:13:03.677Z,4,GR86-025-47,-87.0,0.018,-0.963,22.13,2.0,,0.0,0.0,
2025-08-14T23:13:03.721Z,4,GR86-025-47,-88.4,0.023,-0.948,22.13,2.0,,0.0,0.0,
2025-08-14T23:13:03.764Z,4,GR86-025-47,-89.2,0.019,-0.989,21.21,2.0,,0.0,0.0,
2025-08-14T23:13:03.808Z,4,GR86-025-47,-90.0,0.031,-0.948,19.92,2.0,5183.0,0.0,0.0,
2025-08-14T23:13:03.851Z,4,GR86-025-47,-90.6,0.03,-0.935,21.69,2.0,,0.0,0.0,88.5
2025-08-14T23:13:03.894Z,4,GR86-025-47,-91.4,0.01,-0.934,21.88,2.0,,0.0,0.0,
2025-08-14T23:13:03.938Z,4,GR86-025-47,-92.3,-0.002,-0.963,21.96,2.0,,0.0,0.0,
2025-08-14T23:13:03.981Z,4,GR86-025-47,-93.5,-0.008,-0.932,21.99,2.0,,0.0,0.0,
2025-08-14T23:13:04.024Z,4,GR86-025-47,-94.0,-0.006,-0.961,22.06,2.0,5165.0,0.0,0.0,
2025-08-14T23:13:04.067Z,4,GR86-025-47,-94.1,0.023,-0.952,22.1,2.0,,0.0,0.0,88.82000000000001
2025-08-14T23:13:04.111Z,4,GR86-025-47,-94.1,0.014,-0.925,22.13,2.0,,0.0,0.0,
2025-08-14T23:13:04.154Z,4,GR86-025-47,-94.1,0.019,-0.916,22.94,2.0,,0.0,0.0,
2025-08-14T23:13:04.197Z,4,GR86-025-47,-94.1,0.027,-0.911,25.67,2.0,,0.0,0.0,
2025-08-14T23:13:04.240Z,4,GR86-025-47,-94.1,0.01,-0.913,27.52,2.0,5156.0,0.0,0.0,
2025-08-14T23:13:04.283Z,4,GR86-025-47,-94.1,0.027,-0.923,28.35,2.0,,0.0,0.0,89.17
2025-08-14T23:13:04.326Z,4,GR86-025-47,-93.6,0.058,-0.907,29.18,2.0,,0.0,0.0,
2025-08-14T23:13:04.369Z,4,GR86-025-47,-87.0,0.064,-0.924,29.13,2.0,,0.0,0.0,
2025-08-14T23:13:04.412Z,4,GR86-025-47,-73.2,0.089,-0.948,28.9,2.0,,0.0,0.0,
2025-08-14T23:13:04.455Z,4,GR86-025-47,-55.2,0.114,-0.909,28.76,2.0,5253.0,0.0,0.0,
2025-08-14T23:13:04.498Z,4,GR86-025-47,-37.7,0.13,-0.879,28.46,2.0,,0.0,0.0,89.34
2025-08-14T23:13:04.541Z,4,GR86-025-47,-25.700000000000003,0.146,-0.834,28.36,2.0,,0.0,0.0,
2025-08-14T23:13:04.585Z,4,GR86-025-47,-21.4,0.133,-0.8290000000000001,28.36,2.0,,0.0,0.0,
2025-08-14T23:13:04.628Z,4,GR86-025-47,-21.4,0.136,-0.793,28.65,2.0,,0.0,0.0,
2025-08-14T23:13:04.671Z,4,GR86-025-47,-26.6,0.145,-0.8130000000000001,29.9,2.0,5276.0,0.0,0.0,
2025-08-14T23:13:04.714Z,4,GR86-025-47,-36.2,0.144,-0.834,38.45,2.0,,0.0,0.0,90.26
2025-08-14T23:13:04.758Z,4,GR86-025-47,-47.0,0.122,-0.888,52.14,2.0,,0.0,0.0,
2025-08-14T23:13:04.801Z,4,GR86-025-47,-57.3,0.139,-0.885,74.82000000000001,2.0,,0.0,0.0,
2025-08-14T23:13:04.844Z,4,GR86-025-47,-65.7,0.153,-0.932,99.86,2.0,,0.0,0.0,
2025-08-14T23:13:04.888Z,4,GR86-025-47,-73.9,0.198,-0.937,99.99,2.0,5346.0,0.0,0.0,
2025-08-14T23:13:04.931Z,4,GR86-025-47,-76.7,0.221,-0.924,100.0,2.0,,0.0,0.0,90.67
2025-08-14T23:13:04.974Z,4,GR86-025-47,-77.60000000000001,0.235,-0.901,99.99,2.0,,0.0,0.0,
2025-08-14T23:13:05.017Z,4,GR86-025-47,-77.60000000000001,0.226,-0.861,100.0,2.0,,0.0,0.0,
2025-08-14T23:13:05.060Z,4,GR86-025-47,-75.3,0.194,-0.877,99.99,2.0,,0.0,0.0,
2025-08-14T23:13:05.103Z,4,GR86-025-47,-62.400000000000006,0.179,-0.866,100.01,2.0,5426.0,0.0,0.0,
2025-08-14T23:13:05.148Z,4,GR86-025-47,-37.7,0.203,-0.8140000000000001,100.01,2.0,,0.0,0.0,91.68
2025-08-14T23:13:05.191Z,4,GR86-025-47,-29.5,0.238,-0.78,100.0,2.0,,0.0,0.0,
2025-08-14T23:13:05.234Z,4,GR86-025-47,-28.3,0.246,-0.774,100.01,2.0,,0.0,0.0,
2025-08-14T23:13:05.278Z,4,GR86-025-47,-28.1,0.252,-0.8,100.01,2.0,,0.0,0.0,
2025-08-14T23:13:05.321Z,4,GR86-025-47,-23.8,0.23,-0.763,100.01,2.0,5579.0,0.0,0.0,
2025-08-14T23:13:05.364Z,4,GR86-025-47,-15.1,0.224,-0.742,100.01,2.0,,0.0,0.0,93.26
2025-08-14T23:13:05.408Z,4,GR86-025-47,-8.1,0.269,-0.72,100.0,2.0,,0.0,0.0,
2025-08-14T23:13:05.451Z,4,GR86-025-47,-8.0,0.286,-0.6940000000000001,100.02,2.0,,0.0,0.0,
2025-08-14T23:13:05.494Z,4,GR86-025-47,-16.3,0.283,-0.659,100.01,2.0,,0.0,0.0,
2025-08-14T23:13:05.538Z,4,GR86-025-47,-31.0,0.258,-0.6910000000000001,100.0,2.0,5656.0,0.0,0.0,
2025-08-14T23:13:05.581Z,4,GR86-025-47,-47.400000000000006,0.247,-0.728,100.01,2.0,,0.0,0.0,94.68
2025-08-14T23:13:05.624Z,4,GR86-025-47,-61.900000000000006,0.215,-0.769,100.0,2.0,,0.0,0.0,
2025-08-14T23:13:05.668Z,4,GR86-025-47,-72.9,0.2,-0.789,100.01,2.0,,0.0,0.0,
2025-08-14T23:13:05.711Z,4,GR86-025-47,-72.9,0.198,-0.8230000000000001,100.01,2.0,,0.0,0.0,
2025-08-14T23:13:05.754Z,4,GR86-025-47,-68.8,0.204,-0.8310000000000001,100.01,2.0,5672.0,0.0,0.0,
2025-08-14T23:13:05.797Z,4,GR86-025-47,-57.900000000000006,0.205,-0.797,100.01,2.0,,0.0,0.0,95.36
2025-08-14T23:13:05.840Z,4,GR86-025-47,-45.5,0.207,-0.771,100.0,2.0,,0.0,0.0,
2025-08-14T23:13:05.883Z,4,GR86-025-47,-36.4,0.226,-0.752,100.01,2.0,,0.0,0.0,
2025-08-14T23:13:05.926Z,4,GR86-025-47,-32.7,0.23,-0.709,100.01,2.0,,0.0,0.0,
2025-08-14T23:13:05.969Z,4,GR86-025-47,-32.6,0.245,-0.6940000000000001,100.01,2.0,5774.0,0.0,0.0,
2025-08-14T23:13:06.012Z,4,GR86-025-47,-34.300000000000004,0.224,-0.719,100.01,2.0,,0.0,0.0,97.45
2025-08-14T23:13:06.055Z,4,GR86-025-47,-36.7,0.226,-0.739,100.0,2.0,,0.0,0.0,
2025-08-14T23:13:06.098Z,4,GR86-025-47,-40.6,0.224,-0.735,100.01,2.0,,0.0,0.0,
2025-08-14T23:13:06.141Z,4,GR86-025-47,-43.7,0.24,-0.758,100.0,2.0,,0.0,0.0,
2025-08-14T23:13:06.184Z,4,GR86-025-47,-44.2,0.225,-0.76,100.0,2.0,5874.0,0.0,0.0,
2025-08-14T23:13:06.227Z,4,GR86-025-47,-36.9,0.235,-0.741,100.0,2.0,,0.0,0.0,99.64
2025-08-14T23:13:06.271Z,4,GR86-025-47,-28.1,0.228,-0.718,100.0,2.0,,0.0,0.0,
2025-08-14T23:13:06.314Z,4,GR86-025-47,-23.4,0.265,-0.641,100.0,2.0,,0.0,0.0,
2025-08-14T23:13:06.358Z,4,GR86-025-47,-22.9,0.258,-0.632,100.0,2.0,,0.0,0.0,
2025-08-14T23:13:06.401Z,4,GR86-025-47,-23.1,0.263,-0.589,100.01,2.0,5964.0,0.0,0.0,
2025-08-14T23:13:06.444Z,4,GR86-025-47,-25.4,0.237,-0.5730000000000001,100.0,2.0,,0.0,0.0,100.15
2025-08-14T23:13:06.488Z,4,GR86-025-47,-26.1,0.226,-0.537,100.01,2.0,,0.0,0.0,
2025-08-14T23:13:06.531Z,4,GR86-025-47,-21.4,0.24,-0.477,100.01,2.0,,0.0,0.0,
2025-08-14T23:13:06.574Z,4,GR86-025-47,-14.8,0.254,-0.429,100.01,2.0,,0.0,0.0,
2025-08-14T23:13:06.617Z,4,GR86-025-47,-11.2,0.26,-0.316,100.01,2.0,6021.0,0.0,0.0,
2025-08-14T23:13:06.660Z,4,GR86-025-47,-10.7,0.239,-0.303,100.0,2.0,,0.0,0.0,103.61
2025-08-14T23:13:06.703Z,4,GR86-025-47,-10.9,0.255,-0.271,100.01,2.0,,0.0,0.0,
2025-08-14T23:13:06.748Z,4,GR86-025-47,-12.5,0.253,-0.259,100.01,2.0,,0.0,0.0,
2025-08-14T23:13:06.791Z,4,GR86-025-47,-15.1,0.251,-0.271,100.01,2.0,,0.0,0.0,
2025-08-14T23:13:06.834Z,4,GR86-025-47,-17.0,0.266,-0.23,100.0,2.0,6123.0,0.0,0.0,
2025-08-14T23:13:06.877Z,4,GR86-025-47,-17.8,0.247,-0.215,100.01,2.0,,0.0,0.0,105.52
2025-08-14T23:13:06.921Z,4,GR86-025-47,-17.900000000000002,0.269,-0.202,100.05,2.0,,0.0,0.0,
2025-08-14T23:13:06.964Z,4,GR86-025-47,-17.3,0.253,-0.155,100.01,2.0,,0.0,0.0,
2025-08-14T23:13:07.009Z,4,GR86-025-47,-14.6,0.242,-0.14,100.01,2.0,,0.0,0.0,
2025-08-14T23:13:07.052Z,4,GR86-025-47,-14.6,0.249,-0.148,100.01,2.0,6319.0,0.0,0.0,
2025-08-14T23:13:07.095Z,4,GR86-025-47,-15.0,0.249,-0.143,100.02,2.0,,0.0,0.0,107.2
2025-08-14T23:13:07.138Z,4,GR86-025-47,-17.900000000000002,0.244,-0.169,100.01,2.0,,0.0,0.0,
2025-08-14T23:13:07.181Z,4,GR86-025-47,-22.200000000000003,0.244,-0.164,100.01,2.0,,0.0,0.0,
2025-08-14T23:13:07.224Z,4,GR86-025-47,-25.5,0.243,-0.239,100.01,2.0,,0.0,0.0,
2025-08-14T23:13:07.268Z,4,GR86-025-47,-25.200000000000003,0.237,-0.275,100.02,2.0,6415.0,0.0,0.0,
2025-08-14T23:13:07.311Z,4,GR86-025-47,-16.8,0.253,-0.274,100.01,2.0,,0.0,0.0,108.96
2025-08-14T23:13:07.354Z,4,GR86-025-47,-9.4,0.267,-0.246,100.03,2.0,,0.0,0.0,
2025-08-14T23:13:07.397Z,4,GR86-025-47,-6.2,0.271,-0.213,100.0,2.0,,0.0,0.0,
2025-08-14T23:13:07.440Z,4,GR86-025-47,-5.7,0.253,-0.159,100.02,2.0,,0.0,0.0,
2025-08-14T23:13:07.483Z,4,GR86-025-47,-5.6000000000000005,0.247,-0.163,100.03,2.0,6486.0,0.0,0.0,
2025-08-14T23:13:07.527Z,4,GR86-025-47,-5.7,0.242,-0.096,100.01,2.0,,0.0,0.0,110.9
2025-08-14T23:13:07.571Z,4,GR86-025-47,-5.9,0.255,-0.079,100.03,2.0,,0.0,0.0,
2025-08-14T23:13:07.614Z,4,GR86-025-47,-6.0,0.26,-0.068,100.03,2.0,,0.0,0.0,
2025-08-14T23:13:07.658Z,4,GR86-025-47,-6.2,0.274,-0.071,100.03,2.0,,0.0,0.0,
2025-08-14T23:13:07.701Z,4,GR86-025-47,-6.2,0.279,-0.031,100.04,2.0,6622.0,0.0,0.0,
2025-08-14T23:13:07.744Z,4,GR86-025-47,-6.2,0.246,-0.003,100.01,2.0,,0.0,0.0,112.66
2025-08-14T23:13:07.788Z,4,GR86-025-47,-6.2,0.221,0.017,100.04,2.0,,0.0,0.0,
2025-08-14T23:13:07.831Z,4,GR86-025-47,-6.300000000000001,0.243,0.02,100.04,2.0,,0.0,0.0,
2025-08-14T23:13:07.874Z,4,GR86-025-47,-6.300000000000001,0.242,0.015,100.03,2.0,,0.0,0.0,
2025-08-14T23:13:07.918Z,4,GR86-025-47,-5.7,0.258,0.039,100.04,2.0,6722.0,0.0,0.0,
2025-08-14T23:13:07.961Z,4,GR86-025-47,-5.300000000000001,0.266,0.039,100.04,2.0,,0.0,0.0,114.52
2025-08-14T23:13:08.004Z,4,GR86-025-47,-5.5,0.262,0.053,100.04,2.0,,0.0,0.0,
2025-08-14T23:13:08.048Z,4,GR86-025-47,-5.7,0.262,0.046,100.01,2.0,,0.0,0.0,
2025-08-14T23:13:08.091Z,4,GR86-025-47,-5.7,0.258,0.016,100.04,2.0,,0.0,0.0,
2025-08-14T23:13:08.134Z,4,GR86-025-47,-5.800000000000001,0.26,0.045,100.05,2.0,6814.0,0.0,0.0,
2025-08-14T23:13:08.178Z,4,GR86-025-47,-5.800000000000001,0.253,0.02,100.04,2.0,,0.0,0.0,116.37
2025-08-14T23:13:08.221Z,4,GR86-025-47,-5.800000000000001,0.249,0.036,100.01,2.0,,0.0,0.0,
2025-08-14T23:13:08.264Z,4,GR86-025-47,-5.800000000000001,0.26,0.039,100.03,2.0,,0.0,0.0,
2025-08-14T23:13:08.308Z,4,GR86-025-47,-5.800000000000001,0.26,0.06,100.04,2.0,,0.0,0.0,
2025-08-14T23:13:08.351Z,4,GR86-025-47,-5.800000000000001,0.248,0.061,100.03,2.0,6921.0,0.0,0.0,
2025-08-14T23:13:08.394Z,4,GR86-025-47,-6.0,0.246,0.044,100.03,2.0,,0.0,0.0,118.26
2025-08-14T23:13:08.437Z,4,GR86-025-47,-6.0,0.256,0.07,100.04,2.0,,0.0,0.0,
2025-08-14T23:13:08.481Z,4,GR86-025-47,-6.1000000000000005,0.253,0.059,100.01,2.0,,0.0,0.0,
2025-08-14T23:13:08.524Z,4,GR86-025-47,-6.2,0.252,0.039,100.04,2.0,,0.0,0.0,
2025-08-14T23:13:08.567Z,4,GR86-025-47,-6.300000000000001,0.262,0.051,100.04,2.0,7020.0,0.0,0.0,
2025-08-14T23:13:08.611Z,4,GR86-025-47,-6.5,0.259,0.055,100.03,2.0,,0.0,0.0,119.96
2025-08-14T23:13:08.654Z,4,GR86-025-47,-6.5,0.233,0.048,100.03,2.0,,0.0,0.0,
2025-08-14T23:13:08.697Z,4,GR86-025-47,-6.7,0.24,0.037,100.03,2.0,,0.0,0.0,
2025-08-14T23:13:08.740Z,4,GR86-025-47,-6.7,0.252,0.047,100.03,2.0,,0.0,0.0,
2025-08-14T23:13:08.783Z,4,GR86-025-47,-6.7,0.248,0.033,100.04,2.0,7111.0,0.0,0.0,
2025-08-14T23:13:08.826Z,4,GR86-025-47,-6.9,0.241,0.028,100.04,2.0,,0.0,0.0,121.74
2025-08-14T23:13:08.869Z,4,GR86-025-47,-7.0,0.261,0.021,100.02,2.0,,0.0,0.0,
2025-08-14T23:13:08.912Z,4,GR86-025-47,-7.0,-0.078,0.04,100.03,3.0,,0.0,0.0,
2025-08-14T23:13:08.955Z,4,GR86-025-47,-7.1000000000000005,0.482,0.046,100.03,3.0,,0.0,0.0,
2025-08-14T23:13:08.998Z,4,GR86-025-47,-6.7,0.586,-0.079,100.04,3.0,7207.0,0.0,0.0,
2025-08-14T23:13:09.041Z,4,GR86-025-47,-6.5,0.265,-0.077,100.02,3.0,,0.0,0.0,123.46
2025-08-14T23:13:09.085Z,4,GR86-025-47,-6.800000000000001,0.128,0.004,100.03,3.0,,0.0,0.0,
2025-08-14T23:13:09.128Z,4,GR86-025-47,-7.0,0.142,-0.049,100.03,3.0,,0.0,0.0,
2025-08-14T23:13:09.171Z,4,GR86-025-47,-7.0,0.246,-0.094,100.03,3.0,,0.0,0.0,
2025-08-14T23:13:09.214Z,4,GR86-025-47,-7.2,0.265,0.016,100.03,3.0,5789.0,0.0,0.0,
2025-08-14T23:13:09.258Z,4,GR86-025-47,-7.2,0.2,-0.015,100.04,3.0,,0.0,0.0,126.7
2025-08-14T23:13:09.301Z,4,GR86-025-47,-7.300000000000001,0.157,-0.054,100.03,3.0,,0.0,0.0,
2025-08-14T23:13:09.344Z,4,GR86-025-47,-7.4,0.196,-0.047,100.03,3.0,,0.0,0.0,
2025-08-14T23:13:09.388Z,4,GR86-025-47,-7.5,0.191,-0.03,100.03,3.0,,0.0,0.0,
2025-08-14T23:13:09.431Z,4,GR86-025-47,-7.5,0.215,-0.059,100.04,3.0,5975.0,0.0,0.0,
2025-08-14T23:13:09.474Z,4,GR86-025-47,-7.5,0.186,-0.069,100.04,3.0,,0.0,0.0,128.05
2025-08-14T23:13:09.517Z,4,GR86-025-47,-7.4,0.197,-0.044,100.05,3.0,,0.0,0.0,
2025-08-14T23:13:09.560Z,4,GR86-025-47,-7.4,0.236,-0.052,100.05,3.0,,0.0,0.0,
2025-08-14T23:13:09.603Z,4,GR86-025-47,-7.300000000000001,0.216,-0.016,100.04,3.0,,0.0,0.0,
2025-08-14T23:13:09.648Z,4,GR86-025-47,-7.1000000000000005,0.234,-0.013,100.04,3.0,6111.0,0.0,0.0,
2025-08-14T23:13:09.691Z,4,GR86-025-47,-6.7,0.183,-0.024,100.04,3.0,,0.0,0.0,129.52
2025-08-14T23:13:09.734Z,4,GR86-025-47,-6.300000000000001,0.206,-0.023,100.05,3.0,,0.0,0.0,
2025-08-14T23:13:09.777Z,4,GR86-025-47,-6.300000000000001,0.199,0.009,100.06,3.0,,0.0,0.0,
2025-08-14T23:13:09.821Z,4,GR86-025-47,-6.4,0.194,0.013,100.04,3.0,,0.0,0.0,
2025-08-14T23:13:09.864Z,4,GR86-025-47,-6.4,0.155,0.002,100.04,3.0,6169.0,0.0,0.0,
2025-08-14T23:13:09.908Z,4,GR86-025-47,-6.0,0.191,0.009,100.03,3.0,,0.0,0.0,130.88
2025-08-14T23:13:09.951Z,4,GR86-025-47,-4.7,0.198,0.001,100.03,3.0,,0.0,0.0,
2025-08-14T23:13:09.994Z,4,GR86-025-47,-3.6,0.232,0.034,100.05,3.0,,0.0,0.0,
2025-08-14T23:13:10.037Z,4,GR86-025-47,-3.3000000000000003,0.208,0.071,100.05,3.0,,0.0,0.0,
2025-08-14T23:13:10.081Z,4,GR86-025-47,-3.3000000000000003,0.216,0.06,100.04,3.0,6234.0,0.0,0.0,
2025-08-14T23:13:10.124Z,4,GR86-025-47,-3.4000000000000004,0.182,0.076,100.04,3.0,,0.0,0.0,132.31
2025-08-14T23:13:10.168Z,4,GR86-025-47,-3.6,0.223,0.094,100.03,3.0,,0.0,0.0,
2025-08-14T23:13:10.211Z,4,GR86-025-47,-3.7,0.244,0.083,100.04,3.0,,0.0,0.0,
2025-08-14T23:13:10.254Z,4,GR86-025-47,-3.7,0.227,0.113,100.06,3.0,,0.0,0.0,
2025-08-14T23:13:10.297Z,4,GR86-025-47,-3.8,0.175,0.091,100.04,3.0,6309.0,0.0,0.0,
2025-08-14T23:13:10.340Z,4,GR86-025-47,-3.9,0.188,0.084,100.01,3.0,,0.0,0.0,133.6
2025-08-14T23:13:10.383Z,4,GR86-025-47,-4.0,0.189,0.093,100.01,3.0,,0.0,0.0,
2025-08-14T23:13:10.426Z,4,GR86-025-47,-4.0,0.225,0.083,100.03,3.0,,0.0,0.0,
2025-08-14T23:13:10.469Z,4,GR86-025-47,-4.0,0.19,0.087,100.04,3.0,,0.0,0.0,
2025-08-14T23:13:10.512Z,4,GR86-025-47,-4.1000000000000005,0.182,0.091,100.02,3.0,6365.0,0.0,0.0,
2025-08-14T23:13:10.555Z,4,GR86-025-47,-4.2,0.188,0.059,100.05,3.0,,0.0,0.0,134.96
2025-08-14T23:13:10.598Z,4,GR86-025-47,-4.3,0.217,0.077,100.03,3.0,,0.0,0.0,
2025-08-14T23:13:10.641Z,4,GR86-025-47,-4.4,0.223,0.083,100.02,3.0,,0.0,0.0,
2025-08-14T23:13:10.685Z,4,GR86-025-47,-4.7,0.213,0.045,100.01,3.0,,0.0,0.0,
2025-08-14T23:13:10.728Z,4,GR86-025-47,-5.5,0.193,0.05,100.03,3.0,6429.0,0.0,0.0,
2025-08-14T23:13:10.771Z,4,GR86-025-47,-7.0,0.208,0.022,100.03,3.0,,0.0,0.0,136.2
2025-08-14T23:13:10.814Z,4,GR86-025-47,-8.5,0.208,-0.037,100.05,3.0,,0.0,0.0,
2025-08-14T23:13:10.857Z,4,GR86-025-47,-9.0,0.229,-0.031,100.03,3.0,,0.0,0.0,
2025-08-14T23:13:10.901Z,4,GR86-025-47,-9.1,0.189,-0.045,100.01,3.0,,0.0,0.0,
2025-08-14T23:13:10.944Z,4,GR86-025-47,-9.0,0.176,-0.079,100.04,3.0,6495.0,0.0,0.0,
2025-08-14T23:13:10.988Z,4,GR86-025-47,-8.9,0.165,-0.061,100.03,3.0,,0.0,0.0,137.5
2025-08-14T23:13:11.031Z,4,GR86-025-47,-8.9,0.193,-0.101,100.04,3.0,,0.0,0.0,
2025-08-14T23:13:11.074Z,4,GR86-025-47,-9.0,0.199,-0.076,100.05,3.0,,0.0,0.0,
2025-08-14T23:13:11.117Z,4,GR86-025-47,-9.0,0.207,-0.078,100.01,3.0,,0.0,0.0,
2025-08-14T23:13:11.160Z,4,GR86-025-47,-9.0,0.172,-0.094,100.02,3.0,6554.0,0.0,0.0,
2025-08-14T23:13:11.203Z,4,GR86-025-47,-8.1,0.163,-0.102,100.02,3.0,,0.0,0.0,138.81
2025-08-14T23:13:11.248Z,4,GR86-025-47,-7.0,0.168,-0.079,100.03,3.0,,0.0,0.0,
2025-08-14T23:13:11.291Z,4,GR86-025-47,-7.0,0.177,-0.068,100.0,3.0,,0.0,0.0,
2025-08-14T23:13:11.334Z,4,GR86-025-47,-7.2,0.219,-0.075,100.03,3.0,,0.0,0.0,
2025-08-14T23:13:11.377Z,4,GR86-025-47,-7.4,0.163,-0.068,100.01,3.0,6611.0,0.0,0.0,
2025-08-14T23:13:11.421Z,4,GR86-025-47,-7.4,0.167,-0.039,100.01,3.0,,0.0,0.0,140.07
2025-08-14T23:13:11.464Z,4,GR86-025-47,-7.5,0.175,-0.071,100.01,3.0,,0.0,0.0,
2025-08-14T23:13:11.508Z,4,GR86-025-47,-7.5,0.174,-0.057,100.02,3.0,,0.0,0.0,
2025-08-14T23:13:11.551Z,4,GR86-025-47,-7.6,0.166,-0.053,100.01,3.0,,0.0,0.0,
2025-08-14T23:13:11.594Z,4,GR86-025-47,-7.6,0.202,-0.064,100.03,3.0,6675.0,0.0,0.0,
2025-08-14T23:13:11.637Z,4,GR86-025-47,-7.6,0.214,-0.039,100.01,3.0,,0.0,0.0,141.28
2025-08-14T23:13:11.681Z,4,GR86-025-47,-7.7,0.177,-0.054,100.01,3.0,,0.0,0.0,
2025-08-14T23:13:11.724Z,4,GR86-025-47,-7.7,0.17,-0.047,100.01,3.0,,0.0,0.0,
2025-08-14T23:13:11.768Z,4,GR86-025-47,-7.800000000000001,0.18,-0.07,100.03,3.0,,0.0,0.0,
2025-08-14T23:13:11.811Z,4,GR86-025-47,-7.800000000000001,0.14,-0.048,100.01,3.0,6728.0,0.0,0.0,
2025-08-14T23:13:11.854Z,4,GR86-025-47,-7.7,0.17,-0.074,100.0,3.0,,0.0,0.0,143.85
2025-08-14T23:13:11.897Z,4,GR86-025-47,-7.5,0.229,-0.063,100.02,3.0,,0.0,0.0,
2025-08-14T23:13:11.940Z,4,GR86-025-47,-7.4,0.21,-0.035,100.02,3.0,,0.0,0.0,
2025-08-14T23:13:11.983Z,4,GR86-025-47,-7.4,0.199,-0.062,100.01,3.0,,0.0,0.0,
2025-08-14T23:13:12.027Z,4,GR86-025-47,-7.4,0.185,-0.011,100.02,3.0,6787.0,0.0,0.0,
2025-08-14T23:13:12.071Z,4,GR86-025-47,-7.4,0.191,-0.054,100.01,3.0,,0.0,0.0,145.07
2025-08-14T23:13:12.114Z,4,GR86-025-47,-7.300000000000001,0.164,-0.023,100.01,3.0,,0.0,0.0,
2025-08-14T23:13:12.157Z,4,GR86-025-47,-7.1000000000000005,0.17,-0.033,100.01,3.0,,0.0,0.0,
2025-08-14T23:13:12.201Z,4,GR86-025-47,-7.0,0.223,-0.016,100.02,3.0,,0.0,0.0,
2025-08-14T23:13:12.244Z,4,GR86-025-47,-7.1000000000000005,0.201,0.006,100.02,3.0,6841.0,0.0,0.0,
2025-08-14T23:13:12.288Z,4,GR86-025-47,-7.2,0.218,-0.023,100.01,3.0,,0.0,0.0,146.32
2025-08-14T23:13:12.331Z,4,GR86-025-47,-7.4,0.205,-0.023,100.01,3.0,,0.0,0.0,
2025-08-14T23:13:12.374Z,4,GR86-025-47,-7.4,0.162,-0.048,100.0,3.0,,0.0,0.0,
2025-08-14T23:13:12.418Z,4,GR86-025-47,-7.4,0.123,-0.018,100.01,3.0,,0.0,0.0,
2025-08-14T23:13:12.461Z,4,GR86-025-47,-7.5,0.175,-0.044,100.01,3.0,6954.0,0.0,0.0,
2025-08-14T23:13:12.504Z,4,GR86-025-47,-7.5,0.203,-0.043,100.03,3.0,,0.0,0.0,147.63
2025-08-14T23:13:12.548Z,4,GR86-025-47,-7.5,0.17,-0.054,100.02,3.0,,0.0,0.0,
2025-08-14T23:13:12.591Z,4,GR86-025-47,-7.5,0.2,-0.081,100.0,3.0,,0.0,0.0,
2025-08-14T23:13:12.634Z,4,GR86-025-47,-7.6,0.22,-0.061,100.0,3.0,,0.0,0.0,
2025-08-14T23:13:12.678Z,4,GR86-025-47,-7.6,0.162,-0.071,100.01,3.0,7010.0,0.0,0.0,
2025-08-14T23:13:12.721Z,4,GR86-025-47,-7.6,0.176,-0.051,99.99,3.0,,0.0,0.0,148.88
2025-08-14T23:13:12.764Z,4,GR86-025-47,-7.6,0.147,-0.072,100.02,3.0,,0.0,0.0,
2025-08-14T23:13:12.808Z,4,GR86-025-47,-7.6,0.152,-0.046,100.02,3.0,,0.0,0.0,
2025-08-14T23:13:12.851Z,4,GR86-025-47,-7.7,0.152,-0.046,99.99,3.0,,0.0,0.0,
2025-08-14T23:13:12.894Z,4,GR86-025-47,-7.7,0.153,-0.068,100.02,3.0,7060.0,0.0,0.0,
2025-08-14T23:13:12.938Z,4,GR86-025-47,-7.7,0.195,-0.072,99.99,3.0,,0.0,0.0,150.16
2025-08-14T23:13:12.981Z,4,GR86-025-47,-7.7,0.157,-0.035,100.01,3.0,,0.0,0.0,
2025-08-14T23:13:13.024Z,4,GR86-025-47,-7.7,0.186,-0.036,100.01,3.0,,0.0,0.0,
2025-08-14T23:13:13.067Z,4,GR86-025-47,-7.800000000000001,0.161,-0.026,100.01,3.0,,0.0,0.0,
2025-08-14T23:13:13.111Z,4,GR86-025-47,-7.9,0.19,-0.037,100.01,3.0,7121.0,0.0,0.0,
2025-08-14T23:13:13.154Z,4,GR86-025-47,-7.9,0.194,-0.023,100.01,3.0,,0.0,0.0,151.3
2025-08-14T23:13:13.197Z,4,GR86-025-47,-7.9,0.135,-0.052,100.01,3.0,,0.0,0.0,
2025-08-14T23:13:13.240Z,4,GR86-025-47,-8.0,-0.144,-0.054,99.99,4.0,,0.0,0.0,
2025-08-14T23:13:13.283Z,4,GR86-025-47,-8.1,-0.086,-0.021,100.02,4.0,,0.0,0.0,
2025-08-14T23:13:13.326Z,4,GR86-025-47,-8.1,0.304,-0.128,100.02,4.0,6838.0,0.0,0.0,
2025-08-14T23:13:13.369Z,4,GR86-025-47,-8.200000000000001,0.174,-0.174,100.01,4.0,,0.0,0.0,152.42000000000002
2025-08-14T23:13:13.412Z,4,GR86-025-47,-8.3,0.048,0.004,100.02,4.0,,0.0,0.0,
2025-08-14T23:13:13.455Z,4,GR86-025-47,-8.3,0.155,-0.092,100.01,4.0,,0.0,0.0,
2025-08-14T23:13:13.498Z,4,GR86-025-47,-8.3,0.194,-0.195,100.01,4.0,,0.0,0.0,
2025-08-14T23:13:13.541Z,4,GR86-025-47,-8.4,0.145,-0.078,100.01,4.0,6088.0,0.0,0.0,
2025-08-14T23:13:13.585Z,4,GR86-025-47,-8.4,0.16,-0.094,100.01,4.0,,0.0,0.0,153.3
2025-08-14T23:13:13.628Z,4,GR86-025-47,-8.5,0.181,-0.175,100.01,4.0,,0.0,0.0,
2025-08-14T23:13:13.671Z,4,GR86-025-47,-8.5,0.161,-0.201,100.0,4.0,,0.0,0.0,
2025-08-14T23:13:13.714Z,4,GR86-025-47,-8.5,0.154,-0.113,99.99,4.0,,0.0,0.0,
2025-08-14T23:13:13.757Z,4,GR86-025-47,-8.6,0.112,-0.185,99.99,4.0,6130.0,0.0,0.0,
2025-08-14T23:13:13.844Z,4,GR86-025-47,-8.6,0.15,-0.194,100.02,4.0,,0.0,0.0,154.42000000000002
2025-08-14T23:13:13.888Z,4,GR86-025-47,-8.700000000000001,0.116,-0.151,100.01,4.0,,0.0,0.0,
2025-08-14T23:13:13.931Z,4,GR86-025-47,-8.8,0.113,-0.167,100.01,4.0,,0.0,0.0,
2025-08-14T23:13:13.974Z,4,GR86-025-47,-8.9,0.106,-0.121,100.02,4.0,6151.0,0.0,0.0,
2025-08-14T23:13:14.017Z,4,GR86-025-47,-8.9,0.167,-0.157,100.0,4.0,,0.0,0.0,155.45000000000002
2025-08-14T23:13:14.060Z,4,GR86-025-47,-9.0,0.14,-0.157,100.0,4.0,,0.0,0.0,
2025-08-14T23:13:14.103Z,4,GR86-025-47,-9.2,0.16,-0.162,100.01,4.0,,0.0,0.0,
2025-08-14T23:13:14.148Z,4,GR86-025-47,-9.2,0.144,-0.146,100.02,4.0,,0.0,0.0,
2025-08-14T23:13:14.191Z,4,GR86-025-47,-9.2,0.155,-0.139,100.01,4.0,6193.0,0.0,0.0,
2025-08-14T23:13:14.234Z,4,GR86-025-47,-9.2,0.103,-0.124,100.02,4.0,,0.0,0.0,156.41
2025-08-14T23:13:14.277Z,4,GR86-025-47,-9.2,0.137,-0.148,100.01,4.0,,0.0,0.0,
2025-08-14T23:13:14.320Z,4,GR86-025-47,-9.2,0.142,-0.172,99.98,4.0,,0.0,0.0,
2025-08-14T23:13:14.363Z,4,GR86-025-47,-9.2,0.119,-0.169,100.01,4.0,,0.0,0.0,
2025-08-14T23:13:14.406Z,4,GR86-025-47,-9.3,0.13,-0.156,100.01,4.0,6238.0,0.0,0.0,
2025-08-14T23:13:14.449Z,4,GR86-025-47,-9.4,0.102,-0.157,100.02,4.0,,0.0,0.0,158.51
2025-08-14T23:13:14.492Z,4,GR86-025-47,-9.4,0.14,-0.173,100.0,4.0,,0.0,0.0,
2025-08-14T23:13:14.535Z,4,GR86-025-47,-9.4,0.139,-0.177,100.01,4.0,,0.0,0.0,
2025-08-14T23:13:14.578Z,4,GR86-025-47,-9.4,0.107,-0.132,100.01,4.0,,0.0,0.0,
2025-08-14T23:13:14.621Z,4,GR86-025-47,-9.5,0.167,-0.139,100.01,4.0,6271.0,0.0,0.0,
2025-08-14T23:13:14.664Z,4,GR86-025-47,-9.5,0.128,-0.126,100.01,4.0,,0.0,0.0,159.52
2025-08-14T23:13:14.708Z,4,GR86-025-47,-9.6,0.16,-0.187,100.01,4.0,,0.0,0.0,
2025-08-14T23:13:14.751Z,4,GR86-025-47,-9.6,0.178,-0.187,100.02,4.0,,0.0,0.0,
2025-08-14T23:13:14.794Z,4,GR86-025-47,-9.6,0.137,-0.145,99.99,4.0,,0.0,0.0,
2025-08-14T23:13:14.838Z,4,GR86-025-47,-9.6,0.127,-0.127,100.02,4.0,6323.0,0.0,0.0,
2025-08-14T23:13:14.881Z,4,GR86-025-47,-9.4,0.14,-0.167,100.01,4.0,,0.0,0.0,160.66
2025-08-14T23:13:14.924Z,4,GR86-025-47,-9.0,0.103,-0.123,100.01,4.0,,0.0,0.0,
2025-08-14T23:13:14.968Z,4,GR86-025-47,-8.9,0.128,-0.118,100.01,4.0,,0.0,0.0,
2025-08-14T23:13:15.011Z,4,GR86-025-47,-9.0,0.133,-0.095,100.0,4.0,,0.0,0.0,
2025-08-14T23:13:15.054Z,4,GR86-025-47,-9.0,0.115,-0.087,100.0,4.0,6391.0,0.0,0.0,
2025-08-14T23:13:15.097Z,4,GR86-025-47,-9.1,0.115,-0.09,100.01,4.0,,0.0,0.0,161.69
2025-08-14T23:13:15.140Z,4,GR86-025-47,-9.2,0.126,-0.087,100.01,4.0,,0.0,0.0,
2025-08-14T23:13:15.183Z,4,GR86-025-47,-9.2,0.142,-0.091,100.01,4.0,,0.0,0.0,
2025-08-14T23:13:15.226Z,4,GR86-025-47,-9.2,0.135,-0.066,100.01,4.0,,0.0,0.0,
2025-08-14T23:13:15.269Z,4,GR86-025-47,-9.1,0.159,-0.118,100.01,4.0,6425.0,0.0,0.0,
2025-08-14T23:13:15.312Z,4,GR86-025-47,-8.9,0.109,-0.084,99.99,4.0,,0.0,0.0,162.62
2025-08-14T23:13:15.355Z,4,GR86-025-47,-8.9,0.116,-0.113,100.01,4.0,,0.0,0.0,
2025-08-14T23:13:15.398Z,4,GR86-025-47,-9.0,0.137,-0.113,100.01,4.0,,0.0,0.0,
2025-08-14T23:13:15.441Z,4,GR86-025-47,-9.0,0.152,-0.134,99.99,4.0,,0.0,0.0,
2025-08-14T23:13:15.484Z,4,GR86-025-47,-9.1,0.111,-0.118,100.01,4.0,6475.0,0.0,0.0,
2025-08-14T23:13:15.527Z,4,GR86-025-47,-9.2,0.106,-0.116,100.0,4.0,,0.0,0.0,163.77
2025-08-14T23:13:15.571Z,4,GR86-025-47,-9.2,0.179,-0.119,100.0,4.0,,0.0,0.0,
2025-08-14T23:13:15.614Z,4,GR86-025-47,-9.2,0.106,-0.126,100.0,4.0,,0.0,0.0,
2025-08-14T23:13:15.657Z,4,GR86-025-47,-9.2,0.124,-0.124,100.01,4.0,,0.0,0.0,
2025-08-14T23:13:15.701Z,4,GR86-025-47,-9.4,0.147,-0.14,100.01,4.0,6497.0,0.0,0.0,
2025-08-14T23:13:15.744Z,4,GR86-025-47,-9.4,0.168,-0.138,100.0,4.0,,0.0,0.0,164.87
2025-08-14T23:13:15.788Z,4,GR86-025-47,-9.4,0.12,-0.146,100.01,4.0,,0.0,0.0,
2025-08-14T23:13:15.831Z,4,GR86-025-47,-9.4,0.091,-0.14,99.99,4.0,,0.0,0.0,
2025-08-14T23:13:15.874Z,4,GR86-025-47,-9.5,0.106,-0.108,100.01,4.0,,0.0,0.0,
2025-08-14T23:13:15.917Z,4,GR86-025-47,-9.8,0.145,-0.183,100.01,4.0,6547.0,0.0,0.0,
2025-08-14T23:13:15.960Z,4,GR86-025-47,-9.8,0.169,-0.168,100.01,4.0,,0.0,0.0,165.87
2025-08-14T23:13:16.003Z,4,GR86-025-47,-9.8,0.126,-0.194,100.01,4.0,,0.0,0.0,
2025-08-14T23:13:16.048Z,4,GR86-025-47,-9.8,0.116,-0.214,100.0,4.0,,0.0,0.0,
2025-08-14T23:13:16.091Z,4,GR86-025-47,-9.8,0.138,-0.204,100.0,4.0,,0.0,0.0,
2025-08-14T23:13:16.134Z,4,GR86-025-47,-9.8,0.128,-0.214,100.0,4.0,6599.0,0.0,0.0,
2025-08-14T23:13:16.177Z,4,GR86-025-47,-9.8,0.11,-0.183,100.02,4.0,,0.0,0.0,166.72
2025-08-14T23:13:16.221Z,4,GR86-025-47,-9.9,0.13,-0.204,100.01,4.0,,0.0,0.0,
2025-08-14T23:13:16.264Z,4,GR86-025-47,-9.9,0.139,-0.183,100.01,4.0,,0.0,0.0,
2025-08-14T23:13:16.308Z,4,GR86-025-47,-9.9,0.129,-0.221,100.01,4.0,,0.0,0.0,
2025-08-14T23:13:16.351Z,4,GR86-025-47,-10.0,0.129,-0.211,99.98,4.0,6649.0,0.0,0.0,
2025-08-14T23:13:16.394Z,4,GR86-025-47,-10.0,0.168,-0.218,100.02,4.0,,0.0,0.0,167.68
2025-08-14T23:13:16.437Z,4,GR86-025-47,-10.0,0.13,-0.194,100.02,4.0,,0.0,0.0,
2025-08-14T23:13:16.481Z,4,GR86-025-47,-10.0,0.114,-0.173,100.0,4.0,,0.0,0.0,
2025-08-14T23:13:16.524Z,4,GR86-025-47,-10.0,0.131,-0.198,100.02,4.0,,0.0,0.0,
2025-08-14T23:13:16.568Z,4,GR86-025-47,-10.0,0.15,-0.155,100.0,4.0,6662.0,0.0,0.0,
2025-08-14T23:13:16.611Z,4,GR86-025-47,-10.0,0.126,-0.163,100.0,4.0,,0.0,0.0,168.87
2025-08-14T23:13:16.654Z,4,GR86-025-47,-10.1,0.129,-0.161,100.01,4.0,,0.0,0.0,
2025-08-14T23:13:16.697Z,4,GR86-025-47,-10.1,0.138,-0.159,99.98,4.0,,0.0,0.0,
2025-08-14T23:13:16.740Z,4,GR86-025-47,-10.1,0.151,-0.176,100.01,4.0,,0.0,0.0,
2025-08-14T23:13:16.783Z,4,GR86-025-47,-10.1,0.132,-0.18,99.99,4.0,6706.0,0.0,0.0,
2025-08-14T23:13:16.827Z,4,GR86-025-47,-10.1,0.113,-0.198,100.01,4.0,,0.0,0.0,169.84
2025-08-14T23:13:16.871Z,4,GR86-025-47,-10.1,0.117,-0.158,99.99,4.0,,0.0,0.0,
2025-08-14T23:13:16.914Z,4,GR86-025-47,-10.1,0.123,-0.197,99.99,4.0,,0.0,0.0,
2025-08-14T23:13:16.957Z,4,GR86-025-47,-10.1,0.134,-0.19,100.01,4.0,,0.0,0.0,
2025-08-14T23:13:17.001Z,4,GR86-025-47,-10.1,0.196,-0.185,100.01,4.0,6746.0,0.0,0.0,
2025-08-14T23:13:17.044Z,4,GR86-025-47,-10.0,0.237,-0.178,100.02,4.0,,0.0,0.0,170.8
2025-08-14T23:13:17.088Z,4,GR86-025-47,-10.0,0.338,-0.158,99.98,4.0,,0.0,0.0,
2025-08-14T23:13:17.131Z,4,GR86-025-47,-10.0,0.284,-0.157,100.01,4.0,,0.0,0.0,
2025-08-14T23:13:17.174Z,4,GR86-025-47,-9.8,0.236,-0.147,100.0,4.0,,0.0,0.0,
2025-08-14T23:13:17.218Z,4,GR86-025-47,-9.2,0.164,-0.191,100.01,4.0,6785.0,0.0,0.0,
2025-08-14T23:13:17.261Z,4,GR86-025-47,-9.0,0.168,-0.183,100.02,4.0,,0.0,0.0,173.39
2025-08-14T23:13:17.304Z,4,GR86-025-47,-8.9,0.134,-0.207,99.98,4.0,,0.0,0.0,
2025-08-14T23:13:17.348Z,4,GR86-025-47,-8.9,0.128,-0.191,100.01,4.0,,0.0,0.0,
2025-08-14T23:13:17.391Z,4,GR86-025-47,-8.700000000000001,0.143,-0.198,100.01,4.0,,0.0,0.0,
2025-08-14T23:13:17.434Z,4,GR86-025-47,-8.3,0.134,-0.168,100.01,4.0,6861.0,0.0,0.0,
2025-08-14T23:13:17.477Z,4,GR86-025-47,-8.3,0.145,-0.195,100.01,4.0,,0.0,0.0,174.88
2025-08-14T23:13:17.521Z,4,GR86-025-47,-8.3,0.113,-0.122,100.02,4.0,,0.0,0.0,
2025-08-14T23:13:17.564Z,4,GR86-025-47,-8.5,0.114,-0.112,99.99,4.0,,0.0,0.0,
2025-08-14T23:13:17.608Z,4,GR86-025-47,-8.5,0.124,-0.092,100.02,4.0,,0.0,0.0,
2025-08-14T23:13:17.651Z,4,GR86-025-47,-8.5,0.143,-0.08,100.01,4.0,6960.0,0.0,0.0,
2025-08-14T23:13:17.694Z,4,GR86-025-47,-8.5,0.157,-0.055,100.01,4.0,,0.0,0.0,175.89
2025-08-14T23:13:17.737Z,4,GR86-025-47,-8.5,0.146,-0.063,99.99,4.0,,0.0,0.0,
2025-08-14T23:13:17.781Z,4,GR86-025-47,-8.6,0.115,-0.086,100.01,4.0,,0.0,0.0,
2025-08-14T23:13:17.824Z,4,GR86-025-47,-8.700000000000001,0.13,-0.067,100.01,4.0,,0.0,0.0,
2025-08-14T23:13:17.867Z,4,GR86-025-47,-8.700000000000001,0.122,-0.075,100.0,4.0,6988.0,0.0,0.0,
2025-08-14T23:13:17.911Z,4,GR86-025-47,-8.700000000000001,0.108,-0.119,99.99,4.0,,0.0,0.0,176.96
2025-08-14T23:13:17.954Z,4,GR86-025-47,-8.700000000000001,0.126,-0.108,99.98,4.0,,0.0,0.0,
2025-08-14T23:13:17.997Z,4,GR86-025-47,-8.700000000000001,0.119,-0.117,100.02,4.0,,0.0,0.0,
2025-08-14T23:13:18.040Z,4,GR86-025-47,-8.700000000000001,0.124,-0.123,99.99,4.0,,0.0,0.0,
2025-08-14T23:13:18.083Z,4,GR86-025-47,-8.700000000000001,0.109,-0.078,100.01,4.0,7014.0,0.0,0.0,
2025-08-14T23:13:18.126Z,4,GR86-025-47,-8.8,0.105,-0.083,100.01,4.0,,0.0,0.0,177.88
2025-08-14T23:13:18.169Z,4,GR86-025-47,-8.8,0.121,-0.13,99.98,4.0,,0.0,0.0,
2025-08-14T23:13:18.212Z,4,GR86-025-47,-8.9,0.103,-0.111,100.01,4.0,,0.0,0.0,
2025-08-14T23:13:18.255Z,4,GR86-025-47,-8.9,0.095,-0.11,100.02,4.0,,0.0,0.0,
2025-08-14T23:13:18.298Z,4,GR86-025-47,-8.9,0.092,-0.116,100.0,4.0,7050.0,0.0,0.0,
2025-08-14T23:13:18.341Z,4,GR86-025-47,-9.0,0.105,-0.128,100.01,4.0,,0.0,0.0,178.74
2025-08-14T23:13:18.384Z,4,GR86-025-47,-8.8,0.135,-0.142,100.0,4.0,,0.0,0.0,
2025-08-14T23:13:18.428Z,4,GR86-025-47,-7.9,0.129,-0.122,99.99,4.0,,0.0,0.0,
2025-08-14T23:13:18.471Z,4,GR86-025-47,-7.800000000000001,0.089,-0.088,100.01,4.0,,0.0,0.0,
2025-08-14T23:13:18.514Z,4,GR86-025-47,-7.800000000000001,0.127,-0.09,99.99,4.0,7085.0,0.0,0.0,
2025-08-14T23:13:18.557Z,4,GR86-025-47,-7.800000000000001,0.134,-0.084,100.01,4.0,,0.0,0.0,179.73
2025-08-14T23:13:18.601Z,4,GR86-025-47,-7.7,0.129,-0.09,99.97,4.0,,0.0,0.0,
2025-08-14T23:13:18.644Z,4,GR86-025-47,-7.7,0.123,-0.064,99.99,4.0,,0.0,0.0,
2025-08-14T23:13:18.688Z,4,GR86-025-47,-7.9,0.084,-0.041,100.01,4.0,,0.0,0.0,
2025-08-14T23:13:18.731Z,4,GR86-025-47,-7.9,0.087,-0.024,99.98,4.0,7123.0,0.0,0.0,
2025-08-14T23:13:18.774Z,4,GR86-025-47,-8.0,0.134,-0.026,100.0,4.0,,0.0,0.0,180.56
2025-08-14T23:13:18.817Z,4,GR86-025-47,-8.1,0.084,-0.04,100.01,4.0,,0.0,0.0,
2025-08-14T23:13:18.860Z,4,GR86-025-47,-8.1,0.092,-0.033,100.0,4.0,,0.0,0.0,
2025-08-14T23:13:18.903Z,4,GR86-025-47,-8.1,0.075,-0.05,100.02,4.0,,0.0,0.0,
2025-08-14T23:13:18.948Z,4,GR86-025-47,-8.1,0.116,-0.072,100.01,4.0,7160.0,0.0,0.0,
2025-08-14T23:13:18.991Z,4,GR86-025-47,-8.1,0.128,-0.052,100.01,4.0,,0.0,0.0,181.27
2025-08-14T23:13:19.034Z,4,GR86-025-47,-8.200000000000001,0.113,-0.051,99.98,4.0,,0.0,0.0,
2025-08-14T23:13:19.078Z,4,GR86-025-47,-8.1,0.087,-0.039,100.0,4.0,,0.0,0.0,
2025-08-14T23:13:19.121Z,4,GR86-025-47,-8.1,0.123,-0.042,99.98,4.0,,0.0,0.0,
2025-08-14T23:13:19.164Z,4,GR86-025-47,-8.200000000000001,0.128,-0.061,100.01,4.0,7181.0,0.0,0.0,
2025-08-14T23:13:19.208Z,4,GR86-025-47,-8.3,0.082,-0.067,99.99,4.0,,0.0,0.0,182.24
2025-08-14T23:13:19.251Z,4,GR86-025-47,-8.3,0.067,-0.034,100.0,4.0,,0.0,0.0,
2025-08-14T23:13:19.294Z,4,GR86-025-47,-8.4,0.099,-0.056,100.01,4.0,,0.0,0.0,
2025-08-14T23:13:19.337Z,4,GR86-025-47,-8.4,0.098,-0.039,99.99,4.0,,0.0,0.0,
2025-08-14T23:13:19.381Z,4,GR86-025-47,-8.4,0.152,-0.051,100.01,4.0,7217.0,0.0,0.0,
2025-08-14T23:13:19.468Z,4,GR86-025-47,-8.4,0.079,-0.066,100.01,4.0,,0.0,0.0,183.01
2025-08-14T23:13:19.511Z,4,GR86-025-47,-8.5,0.126,-0.053,100.01,4.0,,0.0,0.0,
2025-08-14T23:13:19.554Z,4,GR86-025-47,-8.6,0.075,-0.086,99.99,4.0,,0.0,0.0,
2025-08-14T23:13:19.597Z,4,GR86-025-47,-8.6,-0.152,-0.058,100.02,5.0,7238.0,0.0,0.0,
2025-08-14T23:13:19.640Z,4,GR86-025-47,-8.6,0.282,-0.04,100.01,5.0,,0.0,0.0,183.83
2025-08-14T23:13:19.683Z,4,GR86-025-47,-8.700000000000001,0.436,-0.032,100.01,5.0,,0.0,0.0,
2025-08-14T23:13:19.726Z,4,GR86-025-47,-8.700000000000001,-0.035,-0.092,99.98,5.0,,0.0,0.0,
2025-08-14T23:13:19.769Z,4,GR86-025-47,-8.8,0.041,-0.017,100.01,5.0,,0.0,0.0,
2025-08-14T23:13:19.812Z,4,GR86-025-47,-8.8,0.106,-0.149,100.01,5.0,6729.0,0.0,0.0,
2025-08-14T23:13:19.855Z,4,GR86-025-47,-8.8,0.071,-0.119,100.02,5.0,,0.0,0.0,185.37
2025-08-14T23:13:19.898Z,4,GR86-025-47,-8.700000000000001,0.077,-0.031,99.99,5.0,,0.0,0.0,
2025-08-14T23:13:19.941Z,4,GR86-025-47,-8.700000000000001,0.097,-0.075,100.01,5.0,,0.0,0.0,
2025-08-14T23:13:19.984Z,4,GR86-025-47,-8.700000000000001,0.102,-0.1,100.01,5.0,,0.0,0.0,
2025-08-14T23:13:20.027Z,4,GR86-025-47,-8.700000000000001,0.073,-0.055,99.98,5.0,6323.0,0.0,0.0,
2025-08-14T23:13:20.071Z,4,GR86-025-47,-8.700000000000001,0.089,-0.032,100.0,5.0,,0.0,0.0,186.18
2025-08-14T23:13:20.114Z,4,GR86-025-47,-8.700000000000001,0.101,-0.111,100.02,5.0,,0.0,0.0,
2025-08-14T23:13:20.157Z,4,GR86-025-47,-8.6,0.088,-0.061,99.99,5.0,,0.0,0.0,
2025-08-14T23:13:20.201Z,4,GR86-025-47,-8.6,0.062,-0.028,100.01,5.0,,0.0,0.0,
2025-08-14T23:13:20.244Z,4,GR86-025-47,-8.700000000000001,0.084,-0.07,100.0,5.0,6345.0,0.0,0.0,
2025-08-14T23:13:20.288Z,4,GR86-025-47,-8.700000000000001,0.098,-0.04,100.01,5.0,,0.0,0.0,186.99
2025-08-14T23:13:20.331Z,4,GR86-025-47,-8.700000000000001,0.102,-0.019,100.01,5.0,,0.0,0.0,
2025-08-14T23:13:20.374Z,4,GR86-025-47,-8.8,0.076,-0.047,100.01,5.0,,0.0,0.0,
2025-08-14T23:13:20.417Z,4,GR86-025-47,-8.8,0.113,-0.079,100.01,5.0,,0.0,0.0,
2025-08-14T23:13:20.460Z,4,GR86-025-47,-8.9,0.097,-0.057,99.99,5.0,6401.0,0.0,0.0,
2025-08-14T23:13:20.503Z,4,GR86-025-47,-8.9,0.077,-0.069,100.02,5.0,,0.0,0.0,187.57
2025-08-14T23:13:20.548Z,4,GR86-025-47,-8.9,0.095,-0.105,100.01,5.0,,0.0,0.0,
2025-08-14T23:13:20.591Z,4,GR86-025-47,-9.0,0.074,-0.101,100.01,5.0,,0.0,0.0,
2025-08-14T23:13:20.634Z,4,GR86-025-47,-8.9,0.076,-0.096,99.99,5.0,,0.0,0.0,
2025-08-14T23:13:20.677Z,4,GR86-025-47,-8.5,0.078,-0.124,99.97,5.0,6425.0,0.0,0.0,
2025-08-14T23:13:20.720Z,4,GR86-025-47,-8.5,0.094,-0.11,100.01,5.0,,0.0,0.0,188.28
2025-08-14T23:13:20.763Z,4,GR86-025-47,-8.5,0.084,-0.078,100.01,5.0,,0.0,0.0,
2025-08-14T23:13:20.806Z,4,GR86-025-47,-8.5,0.075,-0.097,100.01,5.0,,0.0,0.0,
2025-08-14T23:13:20.849Z,4,GR86-025-47,-8.5,0.077,-0.099,100.01,5.0,,0.0,0.0,
2025-08-14T23:13:20.892Z,4,GR86-025-47,-8.5,0.071,-0.071,100.01,5.0,6459.0,0.0,0.0,
2025-08-14T23:13:20.935Z,4,GR86-025-47,-8.5,0.066,-0.078,99.99,5.0,,0.0,0.0,189.03
2025-08-14T23:13:20.978Z,4,GR86-025-47,-8.6,0.114,-0.098,100.01,5.0,,0.0,0.0,
2025-08-14T23:13:21.021Z,4,GR86-025-47,-8.700000000000001,0.059,-0.073,100.01,5.0,,0.0,0.0,
2025-08-14T23:13:21.064Z,4,GR86-025-47,-8.700000000000001,0.063,-0.072,100.0,5.0,,0.0,0.0,
2025-08-14T23:13:21.108Z,4,GR86-025-47,-8.8,0.087,-0.103,100.01,5.0,6468.0,0.0,0.0,
2025-08-14T23:13:21.151Z,4,GR86-025-47,-8.8,0.049,-0.079,99.98,5.0,,0.0,0.0,189.76
2025-08-14T23:13:21.194Z,4,GR86-025-47,-8.8,0.094,-0.115,100.01,5.0,,0.0,0.0,
2025-08-14T23:13:21.237Z,4,GR86-025-47,-8.9,0.093,-0.117,99.98,5.0,,0.0,0.0,
2025-08-14T23:13:21.281Z,4,GR86-025-47,-8.9,0.079,-0.076,100.01,5.0,,0.0,0.0,
2025-08-14T23:13:21.324Z,4,GR86-025-47,-8.9,0.062,-0.114,100.01,5.0,6495.0,0.0,0.0,
2025-08-14T23:13:21.368Z,4,GR86-025-47,-8.9,0.068,-0.127,100.0,5.0,,0.0,0.0,190.32
2025-08-14T23:13:21.411Z,4,GR86-025-47,-8.9,0.1,-0.1,100.0,5.0,,0.0,0.0,
2025-08-14T23:13:21.454Z,4,GR86-025-47,-8.8,0.08,-0.142,100.0,5.0,,0.0,0.0,
2025-08-14T23:13:21.497Z,4,GR86-025-47,-8.8,0.081,-0.119,100.01,5.0,,0.0,0.0,
2025-08-14T23:13:21.540Z,4,GR86-025-47,-8.8,0.079,-0.125,99.99,5.0,6519.0,0.0,0.0,
2025-08-14T23:13:21.583Z,4,GR86-025-47,-8.8,0.065,-0.092,100.01,5.0,,0.0,0.0,191.1
2025-08-14T23:13:21.627Z,4,GR86-025-47,-8.3,0.064,-0.076,99.98,5.0,,0.0,0.0,
2025-08-14T23:13:21.671Z,4,GR86-025-47,-8.0,0.081,-0.097,100.01,5.0,,0.0,0.0,
2025-08-14T23:13:21.714Z,4,GR86-025-47,-8.0,0.082,-0.042,100.01,5.0,,0.0,0.0,
2025-08-14T23:13:21.757Z,4,GR86-025-47,-8.0,0.074,-0.036,99.99,5.0,6545.0,0.0,0.0,
2025-08-14T23:13:21.801Z,4,GR86-025-47,-8.0,0.085,-0.047,100.0,5.0,,0.0,0.0,191.74
2025-08-14T23:13:21.844Z,4,GR86-025-47,-7.5,0.083,-0.046,99.98,5.0,,0.0,0.0,
2025-08-14T23:13:21.888Z,4,GR86-025-47,-7.4,0.081,-0.013,99.99,5.0,,0.0,0.0,
2025-08-14T23:13:21.931Z,4,GR86-025-47,-7.4,0.045,0.02,100.0,5.0,,0.0,0.0,
2025-08-14T23:13:21.974Z,4,GR86-025-47,-7.4,0.074,0.013,99.98,5.0,6567.0,0.0,0.0,
2025-08-14T23:13:22.017Z,4,GR86-025-47,-7.4,0.078,0.004,100.02,5.0,,0.0,0.0,192.24
2025-08-14T23:13:22.061Z,4,GR86-025-47,-7.300000000000001,0.078,0.025,99.97,5.0,,0.0,0.0,
2025-08-14T23:13:22.104Z,4,GR86-025-47,-7.2,0.095,-0.001,100.0,5.0,,0.0,0.0,
2025-08-14T23:13:22.148Z,4,GR86-025-47,-7.2,0.059,0.05,99.99,5.0,,0.0,0.0,
2025-08-14T23:13:22.191Z,4,GR86-025-47,-7.1000000000000005,0.055,0.02,100.01,5.0,6583.0,0.0,0.0,
2025-08-14T23:13:22.234Z,4,GR86-025-47,-7.1000000000000005,0.055,0.037,100.0,5.0,,0.0,0.0,192.82
2025-08-14T23:13:22.277Z,4,GR86-025-47,-7.1000000000000005,0.071,0.044,99.98,5.0,,0.0,0.0,
2025-08-14T23:13:22.320Z,4,GR86-025-47,-7.2,0.072,0.021,99.98,5.0,,0.0,0.0,
2025-08-14T23:13:22.363Z,4,GR86-025-47,-7.300000000000001,0.085,0.049,99.98,5.0,,0.0,0.0,
2025-08-14T23:13:22.406Z,4,GR86-025-47,-7.300000000000001,0.046,0.027,100.01,5.0,6592.0,0.0,0.0,
2025-08-14T23:13:22.449Z,4,GR86-025-47,-7.4,0.05,0.041,99.99,5.0,,0.0,0.0,194.05
2025-08-14T23:13:22.492Z,4,GR86-025-47,-7.4,0.047,0.007,100.0,5.0,,0.0,0.0,
2025-08-14T23:13:22.535Z,4,GR86-025-47,-7.5,0.055,0.038,100.01,5.0,,0.0,0.0,
2025-08-14T23:13:22.578Z,4,GR86-025-47,-7.5,0.05,0.032,99.98,5.0,,0.0,0.0,
2025-08-14T23:13:22.621Z,4,GR86-025-47,-7.5,0.084,-0.005,100.01,5.0,6605.0,0.0,0.0,
2025-08-14T23:13:22.664Z,4,GR86-025-47,-7.5,0.074,0.001,100.01,5.0,,0.0,0.0,194.36
2025-08-14T23:13:22.708Z,4,GR86-025-47,-7.5,0.045,-0.014,100.01,5.0,,0.0,0.0,
2025-08-14T23:13:22.751Z,4,GR86-025-47,-7.4,0.051,-0.001,100.01,5.0,,0.0,0.0,
2025-08-14T23:13:22.794Z,4,GR86-025-47,-6.800000000000001,0.041,-0.033,100.01,5.0,,0.0,0.0,
2025-08-14T23:13:22.838Z,4,GR86-025-47,-6.2,0.059,-0.011,100.0,5.0,6642.0,0.0,0.0,
2025-08-14T23:13:22.881Z,4,GR86-025-47,-5.6000000000000005,0.057,-0.027,100.0,5.0,,0.0,0.0,194.93
2025-08-14T23:13:22.924Z,4,GR86-025-47,-5.1000000000000005,0.061,-0.014,100.0,5.0,,0.0,0.0,
2025-08-14T23:13:22.968Z,4,GR86-025-47,-5.0,0.075,-0.009,100.01,5.0,,0.0,0.0,
2025-08-14T23:13:23.011Z,4,GR86-025-47,-5.0,0.04,0.028,99.98,5.0,,0.0,0.0,
2025-08-14T23:13:23.054Z,4,GR86-025-47,-5.1000000000000005,0.053,0.025,99.99,5.0,6672.0,0.0,0.0,
2025-08-14T23:13:23.098Z,4,GR86-025-47,-5.0,0.059,0.054,99.98,5.0,,0.0,0.0,195.54
2025-08-14T23:13:23.141Z,4,GR86-025-47,-4.7,0.066,0.055,100.01,5.0,,0.0,0.0,
2025-08-14T23:13:23.184Z,4,GR86-025-47,-4.7,0.067,0.048,100.0,5.0,,0.0,0.0,
2025-08-14T23:13:23.228Z,4,GR86-025-47,-4.7,0.05,0.079,100.01,5.0,,0.0,0.0,
2025-08-14T23:13:23.271Z,4,GR86-025-47,-4.4,0.08,0.098,100.01,5.0,6697.0,0.0,0.0,
2025-08-14T23:13:23.314Z,4,GR86-025-47,-4.1000000000000005,0.056,0.1,100.01,5.0,,0.0,0.0,195.92
2025-08-14T23:13:23.357Z,4,GR86-025-47,-3.9,0.053,0.136,99.98,5.0,,0.0,0.0,
2025-08-14T23:13:23.401Z,4,GR86-025-47,-3.8,0.051,0.123,99.99,5.0,,0.0,0.0,
2025-08-14T23:13:23.444Z,4,GR86-025-47,-3.8,0.069,0.148,100.0,5.0,,0.0,0.0,
2025-08-14T23:13:23.488Z,4,GR86-025-47,-3.9,0.067,0.121,100.01,5.0,6698.0,0.0,0.0,
2025-08-14T23:13:23.531Z,4,GR86-025-47,-3.6,0.044,0.164,99.99,5.0,,0.0,0.0,196.6
2025-08-14T23:13:23.574Z,4,GR86-025-47,-2.7,0.067,0.16,99.99,5.0,,0.0,0.0,
2025-08-14T23:13:23.617Z,4,GR86-025-47,-1.8,0.047,0.172,99.98,5.0,,0.0,0.0,
2025-08-14T23:13:23.660Z,4,GR86-025-47,-1.2000000000000002,0.069,0.178,100.0,5.0,,0.0,0.0,
2025-08-14T23:13:23.703Z,4,GR86-025-47,-1.2000000000000002,0.062,0.206,100.0,5.0,6721.0,0.0,0.0,
2025-08-14T23:13:23.748Z,4,GR86-025-47,-1.8,0.059,0.189,100.02,5.0,,0.0,0.0,197.13
2025-08-14T23:13:23.791Z,4,GR86-025-47,-2.2,0.052,0.213,100.01,5.0,,0.0,0.0,
2025-08-14T23:13:23.834Z,4,GR86-025-47,-2.4000000000000004,0.056,0.18,100.01,5.0,,0.0,0.0,
2025-08-14T23:13:23.877Z,4,GR86-025-47,-2.6,0.065,0.195,100.0,5.0,,0.0,0.0,
2025-08-14T23:13:23.921Z,4,GR86-025-47,-2.7,0.06,0.163,100.01,5.0,6733.0,0.0,0.0,
2025-08-14T23:13:23.964Z,4,GR86-025-47,-2.5,0.047,0.199,100.02,5.0,,0.0,0.0,197.58
2025-08-14T23:13:24.009Z,4,GR86-025-47,-0.9,0.055,0.172,99.99,5.0,,0.0,0.0,
2025-08-14T23:13:24.052Z,4,GR86-025-47,-0.5,0.061,0.174,99.98,5.0,,0.0,0.0,
2025-08-14T23:13:24.095Z,4,GR86-025-47,-0.8,0.061,0.167,99.99,5.0,,0.0,0.0,
2025-08-14T23:13:24.138Z,4,GR86-025-47,-1.0,0.06,0.173,100.01,5.0,6761.0,0.0,0.0,
2025-08-14T23:13:24.181Z,4,GR86-025-47,-1.2000000000000002,0.062,0.147,100.01,5.0,,0.0,0.0,198.14
2025-08-14T23:13:24.224Z,4,GR86-025-47,-1.3,0.046,0.173,99.98,5.0,,0.0,0.0,
2025-08-14T23:13:24.268Z,4,GR86-025-47,0.0,0.07,0.192,100.0,5.0,,0.0,0.0,
2025-08-14T23:13:24.311Z,4,GR86-025-47,1.9,0.048,0.207,100.0,5.0,,0.0,0.0,
2025-08-14T23:13:24.354Z,4,GR86-025-47,2.1,0.052,0.246,100.01,5.0,6763.0,0.0,0.0,
2025-08-14T23:13:24.397Z,4,GR86-025-47,1.4,0.039,0.253,100.0,5.0,,0.0,0.0,198.61
2025-08-14T23:13:24.440Z,4,GR86-025-47,1.0,0.079,0.274,100.01,5.0,,0.0,0.0,
2025-08-14T23:13:24.483Z,4,GR86-025-47,0.8,0.065,0.232,100.01,5.0,,0.0,0.0,
2025-08-14T23:13:24.526Z,4,GR86-025-47,0.6000000000000001,0.058,0.252,100.01,5.0,,0.0,0.0,
2025-08-14T23:13:24.569Z,4,GR86-025-47,0.5,0.057,0.253,99.98,5.0,6783.0,0.0,0.0,
2025-08-14T23:13:24.612Z,4,GR86-025-47,0.9,0.056,0.274,99.99,5.0,,0.0,0.0,199.13
2025-08-14T23:13:24.655Z,4,GR86-025-47,1.0,0.061,0.295,100.01,5.0,,0.0,0.0,
2025-08-14T23:13:24.698Z,4,GR86-025-47,0.7000000000000001,0.062,0.269,100.0,5.0,,0.0,0.0,
2025-08-14T23:13:24.741Z,4,GR86-025-47,0.3,0.075,0.275,100.02,5.0,,0.0,0.0,
2025-08-14T23:13:24.785Z,4,GR86-025-47,0.1,0.038,0.266,100.01,5.0,6795.0,0.0,0.0,
2025-08-14T23:13:24.828Z,4,GR86-025-47,-0.1,0.069,0.28,100.0,5.0,,0.0,0.0,199.51
2025-08-14T23:13:24.871Z,4,GR86-025-47,-0.2,0.052,0.286,100.0,5.0,,0.0,0.0,
2025-08-14T23:13:24.914Z,4,GR86-025-47,-0.4,0.068,0.317,99.98,5.0,,0.0,0.0,
2025-08-14T23:13:24.957Z,4,GR86-025-47,-0.8,0.067,0.315,99.99,5.0,,0.0,0.0,
2025-08-14T23:13:25.001Z,4,GR86-025-47,-1.1,0.052,0.295,100.0,5.0,6840.0,0.0,0.0,
2025-08-14T23:13:25.044Z,4,GR86-025-47,-1.2000000000000002,0.059,0.283,100.01,5.0,,0.0,0.0,199.7
2025-08-14T23:13:25.088Z,4,GR86-025-47,-0.3,0.039,0.263,99.99,5.0,,3.645,3.935,
2025-08-14T23:13:25.131Z,4,GR86-025-47,0.7000000000000001,0.039,0.245,100.0,5.0,,0.0,0.0,
2025-08-14T23:13:25.174Z,4,GR86-025-47,0.8,0.01,0.278,100.02,5.0,,0.0,0.0,
2025-08-14T23:13:25.217Z,4,GR86-025-47,0.8,0.043,0.233,100.01,5.0,6833.0,0.0,0.0,
2025-08-14T23:13:25.260Z,4,GR86-025-47,0.8,0.053,0.212,100.0,5.0,,5.465,5.8,200.68
2025-08-14T23:13:25.303Z,4,GR86-025-47,0.8,-0.001,0.234,100.01,5.0,,4.595,4.835,
2025-08-14T23:13:25.348Z,4,GR86-025-47,0.6000000000000001,0.04,0.238,100.01,5.0,,0.0,0.0,
2025-08-14T23:13:25.391Z,4,GR86-025-47,0.2,0.053,0.237,99.99,5.0,,0.0,0.0,
2025-08-14T23:13:25.434Z,4,GR86-025-47,-0.1,0.057,0.265,99.99,5.0,6845.0,3.815,4.24,
2025-08-14T23:13:25.477Z,4,GR86-025-47,-0.2,0.058,0.258,100.0,5.0,,5.705,6.0600000000000005,200.8
2025-08-14T23:13:25.521Z,4,GR86-025-47,0.3,-0.036,0.282,100.01,5.0,,3.905,4.21,
2025-08-14T23:13:25.564Z,4,GR86-025-47,1.0,0.003,0.267,100.01,5.0,,0.0,0.0,
2025-08-14T23:13:25.608Z,4,GR86-025-47,2.8000000000000003,0.052,0.264,99.99,5.0,,0.0,0.0,
2025-08-14T23:13:25.651Z,4,GR86-025-47,3.0,0.029,0.312,99.97,5.0,6879.0,0.0,0.0,
2025-08-14T23:13:25.694Z,4,GR86-025-47,2.9000000000000004,0.054,0.336,99.98,5.0,,3.585,3.97,200.87
2025-08-14T23:13:25.738Z,4,GR86-025-47,2.0,0.029,0.385,86.41,5.0,,8.15,8.36,
2025-08-14T23:13:25.781Z,4,GR86-025-47,1.6,0.024,0.373,53.46,5.0,,10.62,10.745,
2025-08-14T23:13:25.824Z,4,GR86-025-47,0.4,-0.148,0.386,3.36,5.0,,19.015,19.21,
2025-08-14T23:13:25.868Z,4,GR86-025-47,-0.2,-0.316,0.373,3.2,5.0,6842.0,23.93,24.05,
2025-08-14T23:13:25.911Z,4,GR86-025-47,0.9,-0.557,0.409,3.01,5.0,,29.985,30.015,201.31
2025-08-14T23:13:25.954Z,4,GR86-025-47,4.0,-0.77,0.366,2.85,5.0,,34.81,34.715,
2025-08-14T23:13:25.997Z,4,GR86-025-47,7.0,-0.719,0.358,2.75,5.0,,38.56,38.44,
2025-08-14T23:13:26.041Z,4,GR86-025-47,7.800000000000001,-0.771,0.463,2.72,5.0,,39.645,39.785,
2025-08-14T23:13:26.084Z,4,GR86-025-47,7.0,-0.726,0.448,2.66,5.0,6417.0,39.815,39.845,
2025-08-14T23:13:26.128Z,4,GR86-025-47,1.0,-0.8150000000000001,0.426,2.59,5.0,,39.965,40.21,197.97
2025-08-14T23:13:26.171Z,4,GR86-025-47,-6.7,-0.786,0.405,2.6,5.0,,40.21,40.5,
2025-08-14T23:13:26.214Z,4,GR86-025-47,-12.3,-0.8,0.298,2.56,5.0,,39.875,40.15,
2025-08-14T23:13:26.258Z,4,GR86-025-47,-15.6,-0.79,0.249,2.57,5.0,,39.525,39.965,
2025-08-14T23:13:26.301Z,4,GR86-025-47,-16.2,-0.833,0.236,2.57,5.0,6240.0,37.89,38.775,
2025-08-14T23:13:26.344Z,4,GR86-025-47,-16.2,-0.8180000000000001,0.189,2.56,5.0,,30.855,32.685,192.54
2025-08-14T23:13:26.388Z,4,GR86-025-47,-12.7,-0.595,0.152,2.54,5.0,,18.175,19.55,
2025-08-14T23:13:26.431Z,4,GR86-025-47,-5.300000000000001,-0.506,0.142,2.54,5.0,,13.2,14.33,
2025-08-14T23:13:26.474Z,4,GR86-025-47,2.9000000000000004,-0.47,0.142,2.53,5.0,,12.175,12.925,
2025-08-14T23:13:26.518Z,4,GR86-025-47,8.6,-0.4,0.132,2.53,5.0,6177.0,12.24,12.865,
2025-08-14T23:13:26.561Z,4,GR86-025-47,9.4,-0.401,0.117,2.54,5.0,,13.015,13.58,187.42
2025-08-14T23:13:26.604Z,4,GR86-025-47,8.4,-0.416,0.097,2.54,5.0,,14.39,14.785,
2025-08-14T23:13:26.648Z,4,GR86-025-47,7.4,-0.49,0.085,2.53,5.0,,15.72,16.145,
2025-08-14T23:13:26.691Z,4,GR86-025-47,6.2,-0.495,0.082,2.52,5.0,,16.085,16.62,
2025-08-14T23:13:26.734Z,4,GR86-025-47,3.3000000000000003,-0.494,0.097,2.52,5.0,6144.0,16.435,17.0,
2025-08-14T23:13:26.777Z,4,GR86-025-47,0.4,-0.456,0.1,2.51,5.0,,16.71,17.335,185.47
2025-08-14T23:13:26.821Z,4,GR86-025-47,-1.0,-0.47,0.119,2.5,5.0,,17.55,17.96,
2025-08-14T23:13:26.864Z,4,GR86-025-47,-1.1,-0.499,0.117,2.51,5.0,,20.66,20.875,
2025-08-14T23:13:26.908Z,4,GR86-025-47,-1.3,-0.5650000000000001,0.177,2.5,5.0,,28.155,28.245,
2025-08-14T23:13:26.951Z,4,GR86-025-47,-1.3,-0.614,0.188,2.51,5.0,6031.0,31.895,31.925,
2025-08-14T23:13:26.994Z,4,GR86-025-47,-0.4,-0.653,0.185,2.51,5.0,,35.205,35.34,182.5
2025-08-14T23:13:27.037Z,4,GR86-025-47,1.2000000000000002,-0.714,0.201,2.51,5.0,,38.9,38.9,
2025-08-14T23:13:27.081Z,4,GR86-025-47,3.8,-0.74,0.219,2.51,5.0,,40.33,40.18,
2025-08-14T23:13:27.124Z,4,GR86-025-47,4.5,-0.763,0.25,2.51,5.0,,42.12,42.33,
2025-08-14T23:13:27.167Z,4,GR86-025-47,3.3000000000000003,-0.837,0.268,2.51,5.0,5813.0,41.705,42.085,
2025-08-14T23:13:27.211Z,4,GR86-025-47,-2.7,-0.806,0.246,2.5,5.0,,40.5,41.46,178.32
2025-08-14T23:13:27.254Z,4,GR86-025-47,-5.300000000000001,-0.765,0.189,2.49,5.0,,39.615,40.745,
2025-08-14T23:13:27.297Z,4,GR86-025-47,-5.6000000000000005,-0.764,0.176,2.51,5.0,,38.38,39.785,
2025-08-14T23:13:27.340Z,4,GR86-025-47,-1.5,-0.787,0.244,2.5,5.0,,37.525,38.9,
2025-08-14T23:13:27.383Z,4,GR86-025-47,4.5,-0.798,0.272,2.5,5.0,5607.0,37.08,38.745,
2025-08-14T23:13:27.426Z,4,GR86-025-47,8.6,-0.745,0.369,2.51,5.0,,35.085,36.58,172.62
2025-08-14T23:13:27.469Z,4,GR86-025-47,7.6,-0.733,0.357,2.5,5.0,,33.495,34.96,
2025-08-14T23:13:27.512Z,4,GR86-025-47,2.6,-0.674,0.329,2.51,5.0,,31.68,32.9,
2025-08-14T23:13:27.555Z,4,GR86-025-47,-5.6000000000000005,-0.6990000000000001,0.245,2.49,5.0,,31.205,32.075,
2025-08-14T23:13:27.598Z,4,GR86-025-47,-12.1,-0.6900000000000001,0.152,7.19,5.0,5486.0,31.025,31.74,
2025-08-14T23:13:27.641Z,4,GR86-025-47,-15.7,-0.7030000000000001,0.103,48.72,5.0,,30.9,31.77,168.0
2025-08-14T23:13:27.684Z,4,GR86-025-47,-16.1,-0.678,0.121,70.69,5.0,,31.115,32.075,
2025-08-14T23:13:27.727Z,4,GR86-025-47,-11.0,-0.669,0.061,74.0,4.0,,31.45,32.075,
2025-08-14T23:13:27.771Z,4,GR86-025-47,-3.3000000000000003,-0.67,0.043,38.21,4.0,,31.8,32.685,
2025-08-14T23:13:27.814Z,4,GR86-025-47,1.5,-0.887,0.006,4.72,4.0,5366.0,32.305,33.13,
2025-08-14T23:13:27.858Z,4,GR86-025-47,2.0,-0.6940000000000001,0.113,4.33,4.0,,32.505,33.19,159.46
2025-08-14T23:13:27.901Z,4,GR86-025-47,1.6,-0.7000000000000001,-0.066,4.0200000000000005,4.0,,32.565,33.465,
2025-08-14T23:13:27.944Z,4,GR86-025-47,0.4,-0.725,-0.089,3.5700000000000003,4.0,,32.84,33.555,
2025-08-14T23:13:27.988Z,4,GR86-025-47,-0.1,-0.6920000000000001,-0.048,3.04,4.0,,32.625,33.435,
2025-08-14T23:13:28.032Z,4,GR86-025-47,0.6000000000000001,-0.709,-0.107,2.85,4.0,5997.0,32.84,33.465,
2025-08-14T23:13:28.075Z,4,GR86-025-47,2.4000000000000004,-0.706,-0.16,2.79,4.0,,32.75,33.525,154.76
2025-08-14T23:13:28.118Z,4,GR86-025-47,3.4000000000000004,-0.713,-0.03,2.65,4.0,,33.8,34.18,
2025-08-14T23:13:28.161Z,4,GR86-025-47,3.3000000000000003,-0.754,-0.05,2.62,4.0,,34.745,35.115,
2025-08-14T23:13:28.204Z,4,GR86-025-47,2.9000000000000004,-0.782,-0.095,2.59,4.0,,35.31,35.92,
2025-08-14T23:13:28.248Z,4,GR86-025-47,8.6,-0.779,-0.028,18.17,4.0,5636.0,36.06,36.7,
2025-08-14T23:13:28.291Z,4,GR86-025-47,13.7,-0.773,0.031,62.07,4.0,,36.7,37.385,150.07
2025-08-14T23:13:28.334Z,4,GR86-025-47,15.7,-0.762,0.101,98.67,4.0,,37.705,38.21,
2025-08-14T23:13:28.377Z,4,GR86-025-47,14.8,-0.771,0.124,99.46,3.0,,38.105,38.56,
2025-08-14T23:13:28.421Z,4,GR86-025-47,12.2,-0.808,0.182,18.19,3.0,,41.11,41.185,
2025-08-14T23:13:28.464Z,4,GR86-025-47,4.1000000000000005,-0.972,0.129,5.14,3.0,6017.0,48.205,49.425,
2025-08-14T23:13:28.508Z,4,GR86-025-47,-4.4,-0.754,0.144,3.33,3.0,,54.05,54.175,145.31
2025-08-14T23:13:28.551Z,4,GR86-025-47,-4.7,-0.991,0.018,3.26,3.0,,54.175,54.8,
2025-08-14T23:13:28.594Z,4,GR86-025-47,-2.0,-0.923,0.237,3.14,3.0,,53.99,53.99,
2025-08-14T23:13:28.637Z,4,GR86-025-47,5.4,-0.885,0.285,3.01,3.0,,53.9,53.9,
2025-08-14T23:13:28.681Z,4,GR86-025-47,12.8,-0.95,0.169,2.95,3.0,6212.0,53.805,53.96,
2025-08-14T23:13:28.724Z,4,GR86-025-47,17.6,-0.976,0.42,2.79,3.0,,52.71,53.395,139.02
2025-08-14T23:13:28.768Z,4,GR86-025-47,16.7,-0.929,0.42,2.71,3.0,,48.77,50.31,
2025-08-14T23:13:28.811Z,4,GR86-025-47,11.7,-0.845,0.332,2.64,3.0,,40.99,43.02,
2025-08-14T23:13:28.854Z,4,GR86-025-47,0.3,-0.879,0.354,2.61,3.0,,35.465,37.05,
2025-08-14T23:13:28.897Z,4,GR86-025-47,-11.2,-0.782,0.264,2.59,3.0,5726.0,33.555,35.085,
2025-08-14T23:13:28.940Z,4,GR86-025-47,-18.6,-0.761,0.142,2.57,3.0,,33.435,34.215,132.98
2025-08-14T23:13:28.983Z,4,GR86-025-47,-20.5,-0.754,0.147,2.53,3.0,,33.68,34.84,
2025-08-14T23:13:29.026Z,4,GR86-025-47,-19.700000000000003,-0.759,0.091,2.52,3.0,,34.625,35.265,
2025-08-14T23:13:29.070Z,4,GR86-025-47,-10.3,-0.788,0.048,2.51,3.0,,34.625,35.265,
2025-08-14T23:13:29.113Z,4,GR86-025-47,4.9,-0.779,0.065,2.51,3.0,5735.0,34.655,35.31,
2025-08-14T23:13:29.156Z,4,GR86-025-47,20.700000000000003,-0.757,0.192,2.51,3.0,,34.96,35.555,128.76
2025-08-14T23:13:29.199Z,4,GR86-025-47,31.1,-0.765,0.288,2.51,3.0,,35.31,36.12,
2025-08-14T23:13:29.242Z,4,GR86-025-47,33.4,-0.78,0.258,2.53,3.0,,36.395,36.805,
2025-08-14T23:13:29.285Z,4,GR86-025-47,32.2,-0.765,0.314,2.51,3.0,,37.235,37.92,
2025-08-14T23:13:29.328Z,4,GR86-025-47,19.700000000000003,-0.866,0.263,2.51,3.0,5528.0,44.775,44.74,
2025-08-14T23:13:29.371Z,4,GR86-025-47,10.8,-0.926,0.238,2.71,3.0,,47.275,47.09,123.56
2025-08-14T23:13:29.414Z,4,GR86-025-47,-2.1,-0.959,0.168,60.4,2.0,,52.71,52.465,
2025-08-14T23:13:29.457Z,4,GR86-025-47,-7.2,-0.995,0.185,27.98,2.0,,56.095,55.67,
2025-08-14T23:13:29.501Z,4,GR86-025-47,-9.0,-1.111,0.125,22.32,2.0,,59.68,61.36,
2025-08-14T23:13:29.544Z,4,GR86-025-47,-7.4,-1.067,0.237,21.92,2.0,5244.0,63.085,65.145,
2025-08-14T23:13:29.588Z,4,GR86-025-47,4.9,-1.085,0.131,4.18,2.0,,58.46,58.645,118.31
2025-08-14T23:13:29.631Z,4,GR86-025-47,13.5,-0.912,0.357,4.14,2.0,,53.545,55.27,
2025-08-14T23:13:29.674Z,4,GR86-025-47,17.0,-0.647,0.595,4.0200000000000005,2.0,,47.995000000000005,49.73,
2025-08-14T23:13:29.717Z,4,GR86-025-47,15.7,-0.6920000000000001,0.247,3.51,2.0,,37.385,38.35,
2025-08-14T23:13:29.760Z,4,GR86-025-47,9.5,-0.979,0.51,3.11,2.0,5947.0,38.35,39.815,
2025-08-14T23:13:29.803Z,4,GR86-025-47,-6.4,-0.806,0.519,2.89,2.0,,40.865,42.33,109.62
2025-08-14T23:13:29.848Z,4,GR86-025-47,-22.3,-0.88,0.023,2.72,2.0,,41.795,42.455,
2025-08-14T23:13:29.891Z,4,GR86-025-47,-22.200000000000003,-0.906,0.137,2.63,2.0,,43.08,43.585,
2025-08-14T23:13:29.934Z,4,GR86-025-47,-4.4,-0.867,0.203,2.6,2.0,,43.645,44.53,
2025-08-14T23:13:29.978Z,4,GR86-025-47,11.2,-0.848,0.147,2.57,2.0,5740.0,43.645,44.225,
2025-08-14T23:13:30.021Z,4,GR86-025-47,31.200000000000003,-0.891,0.254,2.56,2.0,,43.49,44.56,105.33
2025-08-14T23:13:30.064Z,4,GR86-025-47,43.0,-0.923,0.457,2.57,2.0,,42.805,43.795,
2025-08-14T23:13:30.108Z,4,GR86-025-47,42.1,-0.93,0.39,2.56,2.0,,43.645,44.47,
2025-08-14T23:13:30.151Z,4,GR86-025-47,36.9,-0.931,0.383,2.57,2.0,,44.255,45.03,
2025-08-14T23:13:30.194Z,4,GR86-025-47,26.9,-0.995,0.41,2.57,2.0,5456.0,44.435,45.185,
2025-08-14T23:13:30.237Z,4,GR86-025-47,17.0,-0.926,0.343,24.69,2.0,,44.88,45.66,100.26
2025-08-14T23:13:30.281Z,4,GR86-025-47,16.0,-0.914,0.28,46.77,1.0,,45.095,45.965,
2025-08-14T23:13:30.324Z,4,GR86-025-47,25.200000000000003,-0.883,0.436,10.79,1.0,,45.9,46.3,
2025-08-14T23:13:30.368Z,4,GR86-025-47,40.6,-0.918,0.41,18.67,1.0,,46.955,47.4,
2025-08-14T23:13:30.411Z,4,GR86-025-47,53.900000000000006,-0.751,0.637,8.52,1.0,5141.0,51.565,53.365,
2025-08-14T23:13:30.454Z,4,GR86-025-47,58.6,-0.523,0.491,3.9,1.0,,48.205,48.83,89.2
2025-08-14T23:13:30.497Z,4,GR86-025-47,59.7,-0.8210000000000001,0.627,3.86,1.0,,45.87,46.65,
2025-08-14T23:13:30.540Z,4,GR86-025-47,58.900000000000006,-0.741,0.54,3.77,1.0,,46.27,47.52,
2025-08-14T23:13:30.583Z,4,GR86-025-47,56.8,-0.623,0.485,3.74,1.0,,47.215,48.3,
2025-08-14T23:13:30.627Z,4,GR86-025-47,44.3,-0.839,0.838,3.33,1.0,5346.0,42.39,43.55,
2025-08-14T23:13:30.671Z,4,GR86-025-47,39.2,-0.791,0.8130000000000001,3.26,1.0,,42.745,43.92,80.48
2025-08-14T23:13:30.714Z,4,GR86-025-47,39.5,-0.734,0.676,2.88,1.0,,44.775,46.145,
2025-08-14T23:13:30.758Z,4,GR86-025-47,42.0,-0.6930000000000001,0.777,2.82,1.0,,40.59,41.765,
2025-08-14T23:13:30.801Z,4,GR86-025-47,47.1,-0.796,0.78,2.75,1.0,,37.355,38.285,
2025-08-14T23:13:30.844Z,4,GR86-025-47,54.900000000000006,-0.807,0.6890000000000001,2.72,1.0,5695.0,34.625,35.405,
2025-08-14T23:13:30.888Z,4,GR86-025-47,65.60000000000001,-0.617,0.78,2.63,1.0,,33.315,34.52,77.9
2025-08-14T23:13:30.931Z,4,GR86-025-47,70.5,-0.622,0.672,2.59,1.0,,30.4,31.39,
2025-08-14T23:13:30.974Z,4,GR86-025-47,74.10000000000001,-0.627,0.707,2.57,1.0,,28.965,29.62,
2025-08-14T23:13:31.017Z,4,GR86-025-47,76.4,-0.635,0.847,2.54,1.0,,28.065,29.055,
2025-08-14T23:13:31.061Z,4,GR86-025-47,76.5,-0.587,0.8140000000000001,2.51,1.0,5166.0,27.225,28.035,
2025-08-14T23:13:31.104Z,4,GR86-025-47,76.3,-0.585,0.8150000000000001,2.5,1.0,,26.2,27.225,74.72
2025-08-14T23:13:31.148Z,4,GR86-025-47,76.2,-0.501,0.81,2.48,1.0,,21.24,22.25,
2025-08-14T23:13:31.191Z,4,GR86-025-47,76.3,-0.55,0.8210000000000001,2.48,1.0,,14.725,15.625,
2025-08-14T23:13:31.235Z,4,GR86-025-47,76.4,-0.457,0.927,2.47,1.0,,6.15,6.775,
2025-08-14T23:13:31.278Z,4,GR86-025-47,76.2,-0.318,0.943,2.47,1.0,4839.0,2.795,3.405,
2025-08-14T23:13:31.321Z,4,GR86-025-47,74.5,-0.202,0.87,2.47,1.0,,0.0,0.0,71.29
2025-08-14T23:13:31.364Z,4,GR86-025-47,73.7,-0.13,0.871,2.47,1.0,,0.0,0.0,
2025-08-14T23:13:31.408Z,4,GR86-025-47,73.60000000000001,0.086,0.744,2.47,1.0,,0.0,0.0,
2025-08-14T23:13:31.451Z,4,GR86-025-47,73.5,0.102,0.76,2.47,1.0,,0.0,0.0,
2025-08-14T23:13:31.494Z,4,GR86-025-47,73.3,-0.024,0.8190000000000001,2.47,1.0,4824.0,0.0,0.0,
2025-08-14T23:13:31.537Z,4,GR86-025-47,73.10000000000001,-0.112,0.933,2.47,1.0,,0.0,0.0,69.31
2025-08-14T23:13:31.581Z,4,GR86-025-47,73.10000000000001,-0.156,0.991,2.46,1.0,,0.0,0.0,
2025-08-14T23:13:31.624Z,4,GR86-025-47,71.3,-0.164,0.93,2.47,1.0,,0.0,0.0,
2025-08-14T23:13:31.668Z,4,GR86-025-47,41.5,-0.159,0.984,2.47,1.0,,0.0,0.0,
2025-08-14T23:13:31.711Z,4,GR86-025-47,-7.9,-0.141,0.882,2.49,1.0,4716.0,0.0,0.0,
2025-08-14T23:13:31.754Z,4,GR86-025-47,-52.0,-0.101,0.765,2.47,1.0,,0.0,0.0,68.9
2025-08-14T23:13:31.797Z,4,GR86-025-47,-83.4,-0.096,0.536,2.47,1.0,,0.0,0.0,
2025-08-14T23:13:31.840Z,4,GR86-025-47,-83.7,-0.122,0.358,2.48,1.0,,0.0,0.0,
2025-08-14T23:13:31.883Z,4,GR86-025-47,-58.8,-0.103,0.41,2.47,1.0,,0.0,0.0,
2025-08-14T23:13:31.926Z,4,GR86-025-47,8.1,-0.113,0.796,2.47,1.0,4626.0,0.0,0.0,
2025-08-14T23:13:31.969Z,4,GR86-025-47,31.5,-0.113,0.8160000000000001,2.47,1.0,,0.0,0.0,68.04
2025-08-14T23:13:32.012Z,4,GR86-025-47,62.8,-0.099,0.983,2.47,1.0,,0.0,0.0,
2025-08-14T23:13:32.055Z,4,GR86-025-47,76.2,-0.138,0.968,2.46,1.0,,0.0,0.0,
2025-08-14T23:13:32.098Z,4,GR86-025-47,90.7,-0.178,1.009,2.48,1.0,,0.0,0.0,
2025-08-14T23:13:32.141Z,4,GR86-025-47,97.8,-0.208,1.038,3.38,1.0,4546.0,0.0,0.0,
2025-08-14T23:13:32.184Z,4,GR86-025-47,102.3,-0.216,1.023,3.29,1.0,,0.0,0.0,65.28
2025-08-14T23:13:32.227Z,4,GR86-025-47,110.8,-0.18,0.96,4.46,1.0,,0.0,0.0,
2025-08-14T23:13:32.271Z,4,GR86-025-47,113.7,-0.177,0.951,6.45,1.0,,0.0,0.0,
2025-08-14T23:13:32.314Z,4,GR86-025-47,116.3,-0.183,0.927,15.39,1.0,,0.0,0.0,
2025-08-14T23:13:32.357Z,4,GR86-025-47,116.6,-0.184,0.988,19.43,1.0,4509.0,0.0,0.0,
2025-08-14T23:13:32.401Z,4,GR86-025-47,116.6,-0.161,0.963,20.82,1.0,,0.0,0.0,63.440000000000005
2025-08-14T23:13:32.444Z,4,GR86-025-47,116.6,-0.108,0.979,21.14,1.0,,0.0,0.0,
2025-08-14T23:13:32.488Z,4,GR86-025-47,113.6,-0.091,1.005,21.66,1.0,,0.0,0.0,
2025-08-14T23:13:32.531Z,4,GR86-025-47,110.5,-0.098,0.976,21.85,1.0,,0.0,0.0,
2025-08-14T23:13:32.574Z,4,GR86-025-47,106.9,-0.085,0.978,22.63,1.0,4512.0,0.0,0.0,
2025-08-14T23:13:32.617Z,4,GR86-025-47,103.1,0.204,0.975,22.95,1.0,,0.0,0.0,63.1
2025-08-14T23:13:32.660Z,4,GR86-025-47,97.6,0.221,0.908,22.98,1.0,,0.0,0.0,
2025-08-14T23:13:32.703Z,4,GR86-025-47,86.10000000000001,0.219,0.994,23.07,1.0,,0.0,0.0,
2025-08-14T23:13:32.748Z,4,GR86-025-47,59.900000000000006,0.154,0.884,23.18,1.0,,0.0,0.0,
2025-08-14T23:13:32.791Z,4,GR86-025-47,47.1,0.162,0.858,23.31,1.0,4862.0,0.0,0.0,
2025-08-14T23:13:32.834Z,4,GR86-025-47,39.5,0.17,0.833,23.38,1.0,,0.0,0.0,62.84
2025-08-14T23:13:32.877Z,4,GR86-025-47,37.7,0.176,0.798,23.4,1.0,,0.0,0.0,
2025-08-14T23:13:32.921Z,4,GR86-025-47,43.0,0.211,0.795,23.49,1.0,,0.0,0.0,
2025-08-14T23:13:32.964Z,4,GR86-025-47,56.6,0.213,0.846,23.92,1.0,,0.0,0.0,
2025-08-14T23:13:33.009Z,4,GR86-025-47,78.2,0.206,0.895,26.99,1.0,4761.0,0.0,0.0,
2025-08-14T23:13:33.052Z,4,GR86-025-47,87.7,0.204,0.93,29.01,1.0,,0.0,0.0,63.46
2025-08-14T23:13:33.095Z,4,GR86-025-47,91.0,0.219,0.927,30.55,1.0,,0.0,0.0,
2025-08-14T23:13:33.138Z,4,GR86-025-47,91.1,0.277,0.95,30.89,1.0,,0.0,0.0,
2025-08-14T23:13:33.181Z,4,GR86-025-47,91.1,0.289,0.936,30.9,1.0,,0.0,0.0,
2025-08-14T23:13:33.224Z,4,GR86-025-47,90.7,0.335,0.87,30.49,1.0,4798.0,0.0,0.0,
2025-08-14T23:13:33.268Z,4,GR86-025-47,90.7,0.363,0.847,29.91,1.0,,0.0,0.0,64.48
2025-08-14T23:13:33.311Z,4,GR86-025-47,90.7,0.314,0.734,28.85,1.0,,0.0,0.0,
2025-08-14T23:13:33.354Z,4,GR86-025-47,90.7,0.275,0.735,28.63,1.0,,0.0,0.0,
2025-08-14T23:13:33.397Z,4,GR86-025-47,90.7,0.235,0.782,28.27,1.0,,0.0,0.0,
2025-08-14T23:13:33.483Z,4,GR86-025-47,90.5,0.22,0.786,28.07,1.0,4954.0,0.0,0.0,66.47
2025-08-14T23:13:33.526Z,4,GR86-025-47,83.80000000000001,0.198,0.841,27.63,1.0,,0.0,0.0,
2025-08-14T23:13:33.569Z,4,GR86-025-47,73.9,0.203,0.854,27.63,1.0,,0.0,0.0,
2025-08-14T23:13:33.612Z,4,GR86-025-47,59.1,0.195,0.8150000000000001,27.73,1.0,,0.0,0.0,
2025-08-14T23:13:33.655Z,4,GR86-025-47,43.5,0.207,0.774,27.98,1.0,5229.0,0.0,0.0,
2025-08-14T23:13:33.698Z,4,GR86-025-47,30.700000000000003,0.22,0.74,28.43,1.0,,0.0,0.0,68.60000000000001
2025-08-14T23:13:33.741Z,4,GR86-025-47,17.3,0.235,0.6980000000000001,29.18,1.0,,0.0,0.0,
2025-08-14T23:13:33.785Z,4,GR86-025-47,3.8,0.25,0.642,29.59,1.0,,0.0,0.0,
2025-08-14T23:13:33.828Z,4,GR86-025-47,3.3000000000000003,0.263,0.542,31.67,1.0,,0.0,0.0,
2025-08-14T23:13:33.871Z,4,GR86-025-47,21.200000000000003,0.272,0.545,35.4,1.0,5298.0,0.0,0.0,
2025-08-14T23:13:33.914Z,4,GR86-025-47,40.6,0.266,0.614,73.01,1.0,,0.0,0.0,69.78
2025-08-14T23:13:33.957Z,4,GR86-025-47,55.1,0.277,0.638,99.97,1.0,,0.0,0.0,
2025-08-14T23:13:34.001Z,4,GR86-025-47,62.2,0.292,0.671,100.04,1.0,,0.0,0.0,
2025-08-14T23:13:34.044Z,4,GR86-025-47,63.2,0.316,0.661,100.03,1.0,,0.0,0.0,
2025-08-14T23:13:34.088Z,4,GR86-025-47,61.3,0.359,0.657,100.03,1.0,5444.0,0.0,0.0,
2025-08-14T23:13:34.131Z,4,GR86-025-47,52.6,0.357,0.5680000000000001,100.04,1.0,,0.0,0.0,70.05
2025-08-14T23:13:34.174Z,4,GR86-025-47,40.400000000000006,0.344,0.588,100.03,1.0,,0.0,0.0,
2025-08-14T23:13:34.217Z,4,GR86-025-47,24.9,0.351,0.525,100.03,1.0,,0.0,0.0,
2025-08-14T23:13:34.260Z,4,GR86-025-47,10.9,0.34,0.477,100.04,1.0,,0.0,0.0,
2025-08-14T23:13:34.303Z,4,GR86-025-47,6.5,0.348,0.477,100.03,1.0,5652.0,0.0,0.0,
2025-08-14T23:13:34.348Z,4,GR86-025-47,21.9,0.396,0.478,100.04,1.0,,0.0,0.0,72.74
2025-08-14T23:13:34.391Z,4,GR86-025-47,33.9,0.343,0.426,100.03,1.0,,0.0,0.0,
2025-08-14T23:13:34.434Z,4,GR86-025-47,38.6,0.329,0.5,100.02,1.0,,0.0,0.0,
2025-08-14T23:13:34.477Z,4,GR86-025-47,39.2,0.404,0.444,100.03,1.0,,0.0,0.0,
2025-08-14T23:13:34.521Z,4,GR86-025-47,36.6,0.356,0.396,100.03,1.0,5876.0,0.0,0.0,
2025-08-14T23:13:34.564Z,4,GR86-025-47,26.200000000000003,0.228,0.446,100.04,1.0,,0.0,0.0,74.86
2025-08-14T23:13:34.608Z,4,GR86-025-47,10.4,0.25,0.414,100.04,1.0,,0.0,0.0,
2025-08-14T23:13:34.651Z,4,GR86-025-47,3.6,0.457,0.328,100.03,1.0,,0.0,0.0,
2025-08-14T23:13:34.694Z,4,GR86-025-47,0.6000000000000001,0.491,0.311,100.04,1.0,,0.0,0.0,
2025-08-14T23:13:34.738Z,4,GR86-025-47,-0.2,0.344,0.387,100.04,1.0,6125.0,0.0,0.0,
2025-08-14T23:13:34.781Z,4,GR86-025-47,0.2,0.507,0.346,100.05,1.0,,0.0,0.0,76.56
2025-08-14T23:13:34.824Z,4,GR86-025-47,3.2,0.485,0.321,100.04,1.0,,0.0,0.0,
2025-08-14T23:13:34.868Z,4,GR86-025-47,6.0,0.354,0.377,100.05,1.0,,0.0,0.0,
2025-08-14T23:13:34.911Z,4,GR86-025-47,8.1,0.33,0.276,100.03,1.0,,0.0,0.0,
2025-08-14T23:13:34.954Z,4,GR86-025-47,9.2,0.254,0.378,100.04,1.0,6233.0,0.0,0.0,
2025-08-14T23:13:34.997Z,4,GR86-025-47,8.700000000000001,0.383,0.309,100.04,1.0,,0.0,0.0,78.93
2025-08-14T23:13:35.041Z,4,GR86-025-47,7.6,0.472,0.301,100.04,1.0,,0.0,0.0,
2025-08-14T23:13:35.084Z,4,GR86-025-47,4.2,0.348,0.296,100.05,1.0,,0.0,0.0,
2025-08-14T23:13:35.128Z,4,GR86-025-47,-2.6,0.475,0.274,100.05,1.0,,0.0,0.0,
2025-08-14T23:13:35.171Z,4,GR86-025-47,-4.5,0.287,0.204,100.04,1.0,6435.0,0.0,0.0,
2025-08-14T23:13:35.214Z,4,GR86-025-47,-2.8000000000000003,0.327,0.09,100.03,1.0,,0.0,0.0,81.41
2025-08-14T23:13:35.257Z,4,GR86-025-47,7.1000000000000005,0.301,0.121,100.04,1.0,,0.0,0.0,
2025-08-14T23:13:35.301Z,4,GR86-025-47,14.9,0.421,0.212,100.05,1.0,,0.0,0.0,
2025-08-14T23:13:35.344Z,4,GR86-025-47,17.0,0.213,0.203,100.04,1.0,,0.0,0.0,
2025-08-14T23:13:35.388Z,4,GR86-025-47,15.5,0.5,0.263,100.04,1.0,6525.0,0.0,0.0,
2025-08-14T23:13:35.431Z,4,GR86-025-47,10.3,0.378,0.192,100.04,1.0,,0.0,0.0,83.91
2025-08-14T23:13:35.474Z,4,GR86-025-47,3.7,0.498,0.184,100.06,1.0,,0.0,0.0,
2025-08-14T23:13:35.518Z,4,GR86-025-47,-0.6000000000000001,0.409,0.227,100.06,1.0,,0.0,0.0,
2025-08-14T23:13:35.561Z,4,GR86-025-47,-2.0,0.417,0.129,100.06,1.0,,0.0,0.0,
2025-08-14T23:13:35.604Z,4,GR86-025-47,-2.1,0.385,0.12,100.06,1.0,6808.0,0.0,0.0,
2025-08-14T23:13:35.648Z,4,GR86-025-47,-0.5,0.29,0.161,100.05,1.0,,0.0,0.0,88.60000000000001
2025-08-14T23:13:35.691Z,4,GR86-025-47,0.2,0.37,0.138,100.05,1.0,,0.0,0.0,
2025-08-14T23:13:35.734Z,4,GR86-025-47,1.4,0.365,0.159,100.05,1.0,,0.0,0.0,
2025-08-14T23:13:35.777Z,4,GR86-025-47,3.4000000000000004,0.385,0.131,100.04,1.0,,0.0,0.0,
2025-08-14T23:13:35.821Z,4,GR86-025-47,4.9,0.332,0.118,100.05,1.0,6801.0,0.0,0.0,
2025-08-14T23:13:35.864Z,4,GR86-025-47,5.1000000000000005,0.325,0.111,100.08,1.0,,0.0,0.0,90.97
2025-08-14T23:13:35.908Z,4,GR86-025-47,3.1,0.292,0.129,100.06,1.0,,0.0,0.0,
2025-08-14T23:13:35.951Z,4,GR86-025-47,-1.8,0.264,0.068,100.07,1.0,,0.0,0.0,
2025-08-14T23:13:35.994Z,4,GR86-025-47,-5.4,0.335,0.044,100.07,1.0,,0.0,0.0,
2025-08-14T23:13:36.037Z,4,GR86-025-47,-7.1000000000000005,0.367,0.032,100.06,1.0,7023.0,0.0,0.0,
2025-08-14T23:13:36.081Z,4,GR86-025-47,-7.1000000000000005,0.239,0.008,100.06,1.0,,0.0,0.0,93.2
2025-08-14T23:13:36.124Z,4,GR86-025-47,-7.2,-0.102,0.05,100.08,2.0,,0.0,0.0,
2025-08-14T23:13:36.167Z,4,GR86-025-47,-6.9,0.52,0.042,100.08,2.0,,0.0,0.0,
2025-08-14T23:13:36.211Z,4,GR86-025-47,-6.7,0.492,-0.087,100.05,2.0,,0.0,0.0,
2025-08-14T23:13:36.254Z,4,GR86-025-47,-7.0,0.656,0.038,100.07,2.0,6137.0,0.0,0.0,
2025-08-14T23:13:36.297Z,4,GR86-025-47,-7.1000000000000005,0.508,-0.012,100.05,2.0,,0.0,0.0,95.03
2025-08-14T23:13:36.340Z,4,GR86-025-47,-7.2,0.276,-0.153,100.04,2.0,,0.0,0.0,
2025-08-14T23:13:36.383Z,4,GR86-025-47,-7.1000000000000005,0.228,-0.06,100.04,2.0,,0.0,0.0,
2025-08-14T23:13:36.426Z,4,GR86-025-47,-6.7,0.257,-0.054,100.05,2.0,,0.0,0.0,
2025-08-14T23:13:36.469Z,4,GR86-025-47,-6.7,0.291,-0.085,100.04,2.0,5759.0,0.0,0.0,
2025-08-14T23:13:36.512Z,4,GR86-025-47,-6.7,0.353,0.045,100.05,2.0,,0.0,0.0,97.48
2025-08-14T23:13:36.555Z,4,GR86-025-47,-6.800000000000001,0.299,0.0,100.07,2.0,,0.0,0.0,
2025-08-14T23:13:36.598Z,4,GR86-025-47,-6.9,0.272,0.031,100.06,2.0,,0.0,0.0,
2025-08-14T23:13:36.641Z,4,GR86-025-47,-7.0,0.244,0.031,100.04,2.0,,0.0,0.0,
2025-08-14T23:13:36.684Z,4,GR86-025-47,-7.1000000000000005,0.257,0.033,100.03,2.0,5810.0,0.0,0.0,
2025-08-14T23:13:36.727Z,4,GR86-025-47,-7.300000000000001,0.299,0.016,100.04,2.0,,0.0,0.0,99.4
2025-08-14T23:13:36.771Z,4,GR86-025-47,-7.4,0.299,0.007,100.04,2.0,,0.0,0.0,
2025-08-14T23:13:36.814Z,4,GR86-025-47,-7.5,0.295,0.019,100.06,2.0,,0.0,0.0,
2025-08-14T23:13:36.858Z,4,GR86-025-47,-7.6,0.285,0.003,100.07,2.0,,0.0,0.0,
2025-08-14T23:13:36.901Z,4,GR86-025-47,-7.6,0.28,0.006,100.07,2.0,5917.0,0.0,0.0,
2025-08-14T23:13:36.944Z,4,GR86-025-47,-7.7,0.281,-0.006,100.06,2.0,,0.0,0.0,101.16
2025-08-14T23:13:36.988Z,4,GR86-025-47,-7.7,0.29,-0.001,100.05,2.0,,0.0,0.0,
2025-08-14T23:13:37.032Z,4,GR86-025-47,-7.800000000000001,0.292,-0.018,100.06,2.0,,0.0,0.0,
2025-08-14T23:13:37.075Z,4,GR86-025-47,-7.9,0.288,-0.01,100.05,2.0,,0.0,0.0,
2025-08-14T23:13:37.118Z,4,GR86-025-47,-8.0,0.281,-0.016,100.03,2.0,6022.0,0.0,0.0,
2025-08-14T23:13:37.161Z,4,GR86-025-47,-8.1,0.305,-0.006,100.03,2.0,,0.0,0.0,102.79
2025-08-14T23:13:37.204Z,4,GR86-025-47,-8.1,0.29,-0.016,100.04,2.0,,0.0,0.0,
2025-08-14T23:13:37.248Z,4,GR86-025-47,-8.200000000000001,0.272,-0.01,100.04,2.0,,0.0,0.0,
2025-08-14T23:13:37.291Z,4,GR86-025-47,-8.200000000000001,0.267,-0.005,100.06,2.0,,0.0,0.0,
2025-08-14T23:13:37.334Z,4,GR86-025-47,-8.3,0.273,-0.016,100.05,2.0,6103.0,0.0,0.0,
2025-08-14T23:13:37.377Z,4,GR86-025-47,-8.4,0.263,-0.002,100.06,2.0,,0.0,0.0,104.41
2025-08-14T23:13:37.421Z,4,GR86-025-47,-8.5,0.277,-0.009,100.05,2.0,,0.0,0.0,
2025-08-14T23:13:37.464Z,4,GR86-025-47,-8.5,0.29,-0.029,100.07,2.0,,0.0,0.0,
2025-08-14T23:13:37.508Z,4,GR86-025-47,-8.6,0.287,-0.041,100.04,2.0,,0.0,0.0,
2025-08-14T23:13:37.551Z,4,GR86-025-47,-8.6,0.267,-0.02,100.05,2.0,6198.0,0.0,0.0,
2025-08-14T23:13:37.594Z,4,GR86-025-47,-8.6,0.266,-0.038,100.06,2.0,,0.0,0.0,105.94
2025-08-14T23:13:37.637Z,4,GR86-025-47,-8.6,0.268,-0.015,100.04,2.0,,0.0,0.0,
2025-08-14T23:13:37.681Z,4,GR86-025-47,-7.7,0.274,-0.014,100.06,2.0,,0.0,0.0,
2025-08-14T23:13:37.724Z,4,GR86-025-47,-6.300000000000001,0.293,-0.015,100.04,2.0,,0.0,0.0,
2025-08-14T23:13:37.768Z,4,GR86-025-47,-4.5,0.272,0.013,100.05,2.0,6285.0,0.0,0.0,
2025-08-14T23:13:37.811Z,4,GR86-025-47,-4.4,0.258,0.044,100.04,2.0,,0.0,0.0,107.47
2025-08-14T23:13:37.854Z,4,GR86-025-47,-4.4,0.286,0.044,100.04,2.0,,0.0,0.0,
2025-08-14T23:13:37.897Z,4,GR86-025-47,-4.6000000000000005,0.283,0.064,100.04,2.0,,0.0,0.0,
2025-08-14T23:13:37.940Z,4,GR86-025-47,-4.6000000000000005,0.281,0.08,100.05,2.0,,0.0,0.0,
2025-08-14T23:13:37.983Z,4,GR86-025-47,-4.4,0.272,0.093,100.04,2.0,6359.0,0.0,0.0,
2025-08-14T23:13:38.026Z,4,GR86-025-47,-4.3,0.28,0.114,100.04,2.0,,0.0,0.0,108.99
2025-08-14T23:13:38.070Z,4,GR86-025-47,-4.4,0.28,0.107,100.04,2.0,,0.0,0.0,
2025-08-14T23:13:38.113Z,4,GR86-025-47,-4.5,0.292,0.114,100.04,2.0,,0.0,0.0,
2025-08-14T23:13:38.157Z,4,GR86-025-47,-4.7,0.28,0.121,100.04,2.0,,0.0,0.0,
2025-08-14T23:13:38.201Z,4,GR86-025-47,-4.9,0.274,0.104,100.04,2.0,6448.0,0.0,0.0,
2025-08-14T23:13:38.244Z,4,GR86-025-47,-5.1000000000000005,0.272,0.109,100.03,2.0,,0.0,0.0,110.38
2025-08-14T23:13:38.288Z,4,GR86-025-47,-6.5,0.277,0.081,100.03,2.0,,0.0,0.0,
2025-08-14T23:13:38.331Z,4,GR86-025-47,-7.800000000000001,0.275,0.065,100.04,2.0,,0.0,0.0,
2025-08-14T23:13:38.374Z,4,GR86-025-47,-9.0,0.284,0.059,100.03,2.0,,0.0,0.0,
2025-08-14T23:13:38.417Z,4,GR86-025-47,-9.8,0.279,0.008,100.04,2.0,6509.0,0.0,0.0,
2025-08-14T23:13:38.460Z,4,GR86-025-47,-10.3,0.268,-0.018,100.04,2.0,,0.0,0.0,112.99
2025-08-14T23:13:38.503Z,4,GR86-025-47,-10.3,0.275,-0.051,100.01,2.0,,0.0,0.0,
2025-08-14T23:13:38.548Z,4,GR86-025-47,-10.4,0.282,-0.055,100.02,2.0,,0.0,0.0,
2025-08-14T23:13:38.591Z,4,GR86-025-47,-10.4,0.272,-0.094,100.03,2.0,,0.0,0.0,
2025-08-14T23:13:38.634Z,4,GR86-025-47,-10.4,0.276,-0.099,100.01,2.0,6589.0,0.0,0.0,
2025-08-14T23:13:38.677Z,4,GR86-025-47,-10.4,0.26,-0.114,100.04,2.0,,0.0,0.0,114.22
2025-08-14T23:13:38.721Z,4,GR86-025-47,-10.5,0.255,-0.113,100.02,2.0,,0.0,0.0,
2025-08-14T23:13:38.764Z,4,GR86-025-47,-10.5,0.285,-0.124,100.04,2.0,,0.0,0.0,
2025-08-14T23:13:38.808Z,4,GR86-025-47,-10.5,0.272,-0.121,100.03,2.0,,0.0,0.0,
2025-08-14T23:13:38.851Z,4,GR86-025-47,-10.6,0.256,-0.123,100.02,2.0,6744.0,0.0,0.0,
2025-08-14T23:13:38.894Z,4,GR86-025-47,-10.6,0.259,-0.155,100.03,2.0,,0.0,0.0,115.44
2025-08-14T23:13:38.937Z,4,GR86-025-47,-10.7,0.283,-0.138,100.02,2.0,,0.0,0.0,
2025-08-14T23:13:38.981Z,4,GR86-025-47,-10.7,0.264,-0.139,100.01,2.0,,0.0,0.0,
2025-08-14T23:13:39.024Z,4,GR86-025-47,-10.6,0.257,-0.137,100.03,2.0,,0.0,0.0,
2025-08-14T23:13:39.068Z,4,GR86-025-47,-9.2,0.269,-0.112,100.03,2.0,6800.0,0.0,0.0,
2025-08-14T23:13:39.111Z,4,GR86-025-47,-9.2,0.286,-0.097,100.03,2.0,,0.0,0.0,116.71
2025-08-14T23:13:39.154Z,4,GR86-025-47,-9.2,0.255,-0.109,100.02,2.0,,0.0,0.0,
2025-08-14T23:13:39.197Z,4,GR86-025-47,-9.3,0.271,-0.097,100.04,2.0,,0.0,0.0,
2025-08-14T23:13:39.240Z,4,GR86-025-47,-9.3,0.28,-0.066,100.0,2.0,,0.0,0.0,
2025-08-14T23:13:39.283Z,4,GR86-025-47,-9.3,0.279,-0.071,100.03,2.0,6880.0,0.0,0.0,
2025-08-14T23:13:39.327Z,4,GR86-025-47,-9.3,0.254,-0.053,100.04,2.0,,0.0,0.0,117.87
2025-08-14T23:13:39.371Z,4,GR86-025-47,-9.3,0.259,-0.029,100.01,2.0,,0.0,0.0,
2025-08-14T23:13:39.414Z,4,GR86-025-47,-8.9,0.259,-0.032,100.03,2.0,,0.0,0.0,
2025-08-14T23:13:39.457Z,4,GR86-025-47,-7.9,0.265,-0.028,100.03,2.0,,0.0,0.0,
2025-08-14T23:13:39.501Z,4,GR86-025-47,-6.5,0.287,-0.001,100.01,2.0,6959.0,0.0,0.0,
2025-08-14T23:13:39.544Z,4,GR86-025-47,-5.5,0.283,-0.003,100.01,2.0,,0.0,0.0,118.99
