timestamp,lap,vehicle_id,steering_angle,accx_can,accy_can,ath,gear,nmot,pbrake_f,pbrake_r,speed
2025-08-14T22:31:31.994Z,1,GR86-016-55,-1.4,-0.075,0.037,22.81,1.0,3386.0,19.52,19.455,
2025-08-14T22:31:32.037Z,1,GR86-016-55,-1.4,-0.091,0.037,22.81,1.0,,20.235,19.96,45.17
2025-08-14T22:31:32.080Z,1,GR86-016-55,-1.4,-0.098,0.015,22.81,1.0,,21.47,21.305,
2025-08-14T22:31:32.123Z,1,GR86-016-55,-1.4,-0.086,0.029,22.81,1.0,,21.655,21.53,
2025-08-14T22:31:32.167Z,1,GR86-016-55,-1.4,-0.108,0.043,22.81,1.0,,21.805,21.47,
2025-08-14T22:31:32.210Z,1,GR86-016-55,-1.5,-0.091,0.005,22.81,1.0,3349.0,21.99,22.02,
2025-08-14T22:31:32.255Z,1,GR86-016-55,-1.5,-0.101,0.004,22.81,1.0,,22.16,22.065,44.54
2025-08-14T22:31:32.298Z,1,GR86-016-55,-1.5,-0.093,0.026,22.81,1.0,,21.87,21.805,
2025-08-14T22:31:32.341Z,1,GR86-016-55,-1.5,-0.106,0.03,22.81,1.0,,21.27,21.27,
2025-08-14T22:31:32.385Z,1,GR86-016-55,-1.5,-0.089,-0.011,22.81,1.0,,18.115,19.045,
2025-08-14T22:31:32.428Z,1,GR86-016-55,-1.5,0.022,-0.002,22.8,1.0,3244.0,10.44,11.31,
2025-08-14T22:31:32.471Z,1,GR86-016-55,-1.5,0.153,0.038,22.81,1.0,,2.885,3.31,43.77
2025-08-14T22:31:32.514Z,1,GR86-016-55,-1.5,0.205,0.054,22.81,1.0,,0.0,0.0,
2025-08-14T22:31:32.557Z,1,GR86-016-55,-1.0,0.203,0.032,22.81,1.0,,0.0,0.0,
2025-08-14T22:31:32.644Z,1,GR86-016-55,0.0,0.199,0.052,22.81,1.0,3292.0,0.0,0.0,
2025-08-14T22:31:32.687Z,1,GR86-016-55,0.7000000000000001,0.21,0.08,22.81,1.0,,0.0,0.0,43.89
2025-08-14T22:31:32.730Z,1,GR86-016-55,0.7000000000000001,0.229,0.045,22.81,1.0,,0.0,0.0,
2025-08-14T22:31:32.773Z,1,GR86-016-55,0.7000000000000001,0.214,0.061,22.81,1.0,,0.0,0.0,
2025-08-14T22:31:32.816Z,1,GR86-016-55,0.7000000000000001,0.2,0.064,22.81,1.0,,0.0,0.0,
2025-08-14T22:31:32.859Z,1,GR86-016-55,0.6000000000000001,0.187,0.067,22.81,1.0,3392.0,0.0,0.0,
2025-08-14T22:31:32.902Z,1,GR86-016-55,0.6000000000000001,0.175,0.037,22.82,1.0,,6.0600000000000005,6.24,45.0
2025-08-14T22:31:32.945Z,1,GR86-016-55,0.6000000000000001,0.089,0.054,22.81,1.0,,10.115,10.085,
2025-08-14T22:31:32.988Z,1,GR86-016-55,0.6000000000000001,0.03,0.049,22.81,1.0,,13.43,13.275,
2025-08-14T22:31:33.031Z,1,GR86-016-55,0.6000000000000001,0.001,0.02,22.81,1.0,,16.375,16.25,
2025-08-14T22:31:33.074Z,1,GR86-016-55,0.5,-0.023,0.01,22.81,1.0,3497.0,18.555,18.325,
2025-08-14T22:31:33.117Z,1,GR86-016-55,0.2,-0.066,0.034,22.81,1.0,,20.295,20.205,46.22
2025-08-14T22:31:33.160Z,1,GR86-016-55,-0.9,-0.118,0.018,22.81,1.0,,22.675,22.585,
2025-08-14T22:31:33.203Z,1,GR86-016-55,-1.0,-0.14,-0.023,22.81,1.0,,23.745,23.455,
2025-08-14T22:31:33.246Z,1,GR86-016-55,-1.0,-0.13,0.021,22.81,1.0,,23.775,23.805,
2025-08-14T22:31:33.290Z,1,GR86-016-55,-1.0,-0.136,0.007,22.82,1.0,3436.0,23.745,23.53,
2025-08-14T22:31:33.333Z,1,GR86-016-55,-1.0,-0.122,0.01,22.81,1.0,,24.08,23.96,46.22
2025-08-14T22:31:33.376Z,1,GR86-016-55,-1.0,-0.138,-0.016,22.81,1.0,,24.31,24.14,
2025-08-14T22:31:33.419Z,1,GR86-016-55,-1.0,-0.135,0.029,22.81,1.0,,24.08,24.17,
2025-08-14T22:31:33.462Z,1,GR86-016-55,-1.0,-0.144,0.03,22.81,1.0,,24.02,23.805,
2025-08-14T22:31:33.505Z,1,GR86-016-55,-1.0,-0.159,-0.001,22.81,1.0,3358.0,24.49,24.49,
2025-08-14T22:31:33.548Z,1,GR86-016-55,-1.0,-0.154,0.014,22.81,1.0,,24.46,24.46,45.44
2025-08-14T22:31:33.591Z,1,GR86-016-55,-1.0,-0.161,0.039,22.81,1.0,,24.46,24.585,
2025-08-14T22:31:33.634Z,1,GR86-016-55,-1.0,-0.147,0.038,22.81,1.0,,24.675,24.46,
2025-08-14T22:31:33.677Z,1,GR86-016-55,-1.0,-0.153,-0.017,22.81,1.0,,25.15,25.085,
2025-08-14T22:31:33.722Z,1,GR86-016-55,-1.0,-0.144,0.028,22.81,1.0,3280.0,25.18,25.21,
2025-08-14T22:31:33.765Z,1,GR86-016-55,-1.0,-0.161,0.024,22.79,1.0,,24.795,24.995,44.38
2025-08-14T22:31:33.808Z,1,GR86-016-55,-1.0,-0.149,0.036,22.78,1.0,,24.46,24.49,
2025-08-14T22:31:33.851Z,1,GR86-016-55,-1.0,-0.152,-0.011,22.78,1.0,,21.06,21.87,
2025-08-14T22:31:33.894Z,1,GR86-016-55,-0.8,-0.002,0.029,22.78,1.0,,11.705,12.62,
2025-08-14T22:31:33.937Z,1,GR86-016-55,-0.7000000000000001,0.132,0.05,22.78,1.0,3180.0,3.37,3.935,
2025-08-14T22:31:33.980Z,1,GR86-016-55,-0.7000000000000001,0.214,0.034,22.77,1.0,,0.0,0.0,43.15
2025-08-14T22:31:34.025Z,1,GR86-016-55,-0.7000000000000001,0.208,0.022,22.75,1.0,,0.0,0.0,
2025-08-14T22:31:34.068Z,1,GR86-016-55,-0.7000000000000001,0.199,0.052,22.76,1.0,,0.0,0.0,
2025-08-14T22:31:34.154Z,1,GR86-016-55,-0.7000000000000001,0.193,0.07,22.75,1.0,3170.0,0.0,0.0,
2025-08-14T22:31:34.241Z,1,GR86-016-55,-0.8,0.202,0.054,22.76,1.0,,0.0,0.0,42.52
2025-08-14T22:31:34.285Z,1,GR86-016-55,-0.8,0.201,0.041,22.74,1.0,,0.0,0.0,
2025-08-14T22:31:34.328Z,1,GR86-016-55,-1.4,0.208,0.024,22.74,1.0,,0.0,0.0,
2025-08-14T22:31:34.371Z,1,GR86-016-55,-2.1,0.214,-0.006,22.74,1.0,3280.0,0.0,0.0,
2025-08-14T22:31:34.414Z,1,GR86-016-55,-2.3000000000000003,0.197,0.032,22.75,1.0,,0.0,0.0,43.43
2025-08-14T22:31:34.457Z,1,GR86-016-55,-2.4000000000000004,0.2,0.015,22.71,1.0,,0.0,0.0,
2025-08-14T22:31:34.500Z,1,GR86-016-55,-2.4000000000000004,0.215,-0.01,22.71,1.0,,0.0,0.0,
2025-08-14T22:31:34.543Z,1,GR86-016-55,-2.4000000000000004,0.212,0.009,22.72,1.0,,4.18,4.44,
2025-08-14T22:31:34.586Z,1,GR86-016-55,-2.5,0.118,0.047,22.71,1.0,3375.0,10.345,10.345,
2025-08-14T22:31:34.630Z,1,GR86-016-55,-2.7,0.0,0.019,22.71,1.0,,16.025,15.93,46.08
2025-08-14T22:31:34.673Z,1,GR86-016-55,-2.9000000000000004,-0.102,-0.026,22.72,1.0,,21.0,20.785,
2025-08-14T22:31:34.716Z,1,GR86-016-55,-3.0,-0.134,-0.005,22.71,1.0,,24.02,23.865,
2025-08-14T22:31:34.759Z,1,GR86-016-55,-3.2,-0.146,0.003,22.71,1.0,,24.795,24.525,
2025-08-14T22:31:34.802Z,1,GR86-016-55,-3.4000000000000004,-0.161,-0.017,22.73,1.0,3472.0,25.425,25.24,
2025-08-14T22:31:34.845Z,1,GR86-016-55,-3.4000000000000004,-0.17,-0.026,22.71,1.0,,25.395,25.21,46.14
2025-08-14T22:31:34.888Z,1,GR86-016-55,-3.4000000000000004,-0.195,0.01,22.72,1.0,,25.15,25.395,
2025-08-14T22:31:34.931Z,1,GR86-016-55,-3.4000000000000004,-0.173,0.0,22.71,1.0,,25.12,25.025,
2025-08-14T22:31:34.975Z,1,GR86-016-55,-3.4000000000000004,-0.174,-0.009,22.71,1.0,,25.485,25.545,
2025-08-14T22:31:35.018Z,1,GR86-016-55,-3.4000000000000004,-0.152,-0.016,22.71,1.0,3426.0,25.485,25.3,
2025-08-14T22:31:35.062Z,1,GR86-016-55,-3.4000000000000004,-0.155,0.012,22.72,1.0,,25.15,25.21,45.12
2025-08-14T22:31:35.105Z,1,GR86-016-55,-3.4000000000000004,-0.146,0.018,22.71,1.0,,25.15,25.21,
2025-08-14T22:31:35.148Z,1,GR86-016-55,-3.4000000000000004,-0.176,-0.015,22.71,1.0,,25.485,25.485,
2025-08-14T22:31:35.191Z,1,GR86-016-55,-3.4000000000000004,-0.179,0.008,22.71,1.0,,25.805,25.865,
2025-08-14T22:31:35.234Z,1,GR86-016-55,-3.4000000000000004,-0.197,0.023,22.71,1.0,3236.0,25.485,25.485,
2025-08-14T22:31:35.277Z,1,GR86-016-55,-3.4000000000000004,-0.16,0.018,22.71,1.0,,25.15,25.24,43.92
2025-08-14T22:31:35.322Z,1,GR86-016-55,-3.4000000000000004,-0.131,-0.017,22.72,1.0,,22.905,23.805,
2025-08-14T22:31:35.365Z,1,GR86-016-55,-3.4000000000000004,-0.076,0.016,22.72,1.0,,16.055,17.03,
2025-08-14T22:31:35.408Z,1,GR86-016-55,-3.4000000000000004,0.051,0.03,22.72,1.0,,6.93,7.4,
2025-08-14T22:31:35.451Z,1,GR86-016-55,-3.3000000000000003,0.16,0.024,22.71,1.0,3133.0,0.0,0.0,
2025-08-14T22:31:35.494Z,1,GR86-016-55,-3.1,0.188,0.016,22.69,1.0,,0.0,0.0,42.56
2025-08-14T22:31:35.537Z,1,GR86-016-55,-2.8000000000000003,0.199,0.027,22.68,1.0,,0.0,0.0,
2025-08-14T22:31:35.580Z,1,GR86-016-55,-2.6,0.216,0.053,22.68,1.0,,0.0,0.0,
2025-08-14T22:31:35.624Z,1,GR86-016-55,-2.6,0.23,0.036,22.68,1.0,,0.0,0.0,
2025-08-14T22:31:35.667Z,1,GR86-016-55,-2.6,0.226,0.028,22.67,1.0,3248.0,0.0,0.0,
2025-08-14T22:31:35.710Z,1,GR86-016-55,-2.6,0.201,0.059,22.65,1.0,,0.0,0.0,42.97
2025-08-14T22:31:35.753Z,1,GR86-016-55,-2.6,0.185,0.06,22.66,1.0,,0.0,0.0,
2025-08-14T22:31:35.796Z,1,GR86-016-55,-2.6,0.191,0.03,22.65,1.0,,0.0,0.0,
2025-08-14T22:31:35.839Z,1,GR86-016-55,-2.6,0.201,-0.005,22.65,1.0,,0.0,0.0,
2025-08-14T22:31:35.882Z,1,GR86-016-55,-2.6,0.212,0.048,22.65,1.0,3344.0,0.0,0.0,
2025-08-14T22:31:35.925Z,1,GR86-016-55,-2.6,0.211,0.036,22.65,1.0,,2.245,2.52,44.19
2025-08-14T22:31:35.968Z,1,GR86-016-55,-2.7,0.169,0.018,22.65,1.0,,9.065,9.095,
2025-08-14T22:31:36.011Z,1,GR86-016-55,-2.7,0.009,-0.006,22.64,1.0,,14.635,14.42,
2025-08-14T22:31:36.054Z,1,GR86-016-55,-2.7,-0.072,0.025,22.65,1.0,,18.68,18.495,
2025-08-14T22:31:36.098Z,1,GR86-016-55,-2.7,-0.089,0.005,22.62,1.0,3425.0,21.44,21.27,
2025-08-14T22:31:36.141Z,1,GR86-016-55,-2.7,-0.124,-0.015,22.62,1.0,,23.895,23.745,45.54
2025-08-14T22:31:36.185Z,1,GR86-016-55,-2.7,-0.156,0.008,22.63,1.0,,24.235,24.28,
2025-08-14T22:31:36.228Z,1,GR86-016-55,-2.7,-0.141,0.002,22.62,1.0,,24.08,23.835,
2025-08-14T22:31:36.271Z,1,GR86-016-55,-2.7,-0.154,0.0,22.62,1.0,,24.08,24.4,
2025-08-14T22:31:36.314Z,1,GR86-016-55,-2.7,-0.144,-0.012,22.62,1.0,3384.0,24.46,24.49,
2025-08-14T22:31:36.357Z,1,GR86-016-55,-2.7,-0.165,0.016,22.62,1.0,,24.525,24.735,45.58
2025-08-14T22:31:36.401Z,1,GR86-016-55,-2.7,-0.132,0.011,22.62,1.0,,24.28,24.49,
2025-08-14T22:31:36.445Z,1,GR86-016-55,-2.7,-0.155,0.0,22.62,1.0,,24.46,24.49,
2025-08-14T22:31:36.488Z,1,GR86-016-55,-2.5,-0.172,-0.004,22.62,1.0,,24.83,24.89,
2025-08-14T22:31:36.532Z,1,GR86-016-55,-1.8,-0.178,0.02,22.62,1.0,3316.0,24.795,24.795,
2025-08-14T22:31:36.575Z,1,GR86-016-55,-1.3,-0.152,0.031,22.62,1.0,,24.765,24.86,44.76
2025-08-14T22:31:36.618Z,1,GR86-016-55,-1.0,-0.163,0.031,22.62,1.0,,24.86,24.86,
2025-08-14T22:31:36.661Z,1,GR86-016-55,-0.8,-0.194,0.016,22.63,1.0,,25.455,25.545,
2025-08-14T22:31:36.704Z,1,GR86-016-55,-0.8,-0.181,0.034,22.63,1.0,,25.15,24.86,
2025-08-14T22:31:36.747Z,1,GR86-016-55,-0.8,-0.163,0.02,22.62,1.0,3225.0,24.83,25.085,
2025-08-14T22:31:36.790Z,1,GR86-016-55,-0.8,-0.153,0.028,22.62,1.0,,23.425,23.99,43.63
2025-08-14T22:31:36.833Z,1,GR86-016-55,-0.8,-0.082,0.013,22.62,1.0,,15.96,16.895,
2025-08-14T22:31:36.876Z,1,GR86-016-55,-0.8,0.084,0.023,22.62,1.0,,6.0600000000000005,6.715,
2025-08-14T22:31:36.919Z,1,GR86-016-55,-0.8,0.201,0.028,22.62,1.0,,0.0,0.0,
2025-08-14T22:31:36.962Z,1,GR86-016-55,-0.8,0.186,0.037,22.62,1.0,3141.0,0.0,0.0,
2025-08-14T22:31:37.005Z,1,GR86-016-55,-0.8,0.191,0.051,22.63,1.0,,0.0,0.0,42.32
2025-08-14T22:31:37.048Z,1,GR86-016-55,-0.8,0.213,0.066,22.62,1.0,,0.0,0.0,
2025-08-14T22:31:37.091Z,1,GR86-016-55,-0.8,0.237,0.05,22.62,1.0,,0.0,0.0,
2025-08-14T22:31:37.134Z,1,GR86-016-55,-0.8,0.236,0.049,22.62,1.0,,0.0,0.0,
2025-08-14T22:31:37.177Z,1,GR86-016-55,-0.8,0.212,0.054,22.62,1.0,3163.0,0.0,0.0,
2025-08-14T22:31:37.222Z,1,GR86-016-55,-0.8,0.193,0.068,22.62,1.0,,0.0,0.0,43.16
2025-08-14T22:31:37.265Z,1,GR86-016-55,-0.8,0.194,0.041,22.62,1.0,,0.0,0.0,
2025-08-14T22:31:37.308Z,1,GR86-016-55,-0.8,0.21,0.047,22.62,1.0,,0.0,0.0,
2025-08-14T22:31:37.351Z,1,GR86-016-55,-0.8,0.218,0.049,22.58,1.0,,0.0,0.0,
2025-08-14T22:31:37.394Z,1,GR86-016-55,-0.8,0.225,0.066,22.58,1.0,3250.0,0.0,0.0,
2025-08-14T22:31:37.437Z,1,GR86-016-55,-1.0,0.223,0.043,22.58,1.0,,0.0,0.0,44.55
2025-08-14T22:31:37.480Z,1,GR86-016-55,-1.7000000000000002,0.195,0.022,22.58,1.0,,0.0,0.0,
2025-08-14T22:31:37.523Z,1,GR86-016-55,-2.1,0.181,0.036,22.58,1.0,,0.0,0.0,
2025-08-14T22:31:37.567Z,1,GR86-016-55,-2.1,0.189,0.034,22.55,1.0,,6.715,6.775,
2025-08-14T22:31:37.610Z,1,GR86-016-55,-2.1,0.077,0.012,22.55,1.0,3377.0,13.17,13.11,
2025-08-14T22:31:37.653Z,1,GR86-016-55,-2.1,-0.047,0.007,22.55,1.0,,18.585,18.325,45.97
2025-08-14T22:31:37.696Z,1,GR86-016-55,-2.1,-0.111,0.026,22.55,1.0,,22.4,21.99,
2025-08-14T22:31:37.739Z,1,GR86-016-55,-2.1,-0.141,0.005,22.55,1.0,,24.92,24.735,
2025-08-14T22:31:37.782Z,1,GR86-016-55,-2.1,-0.196,0.006,22.55,1.0,,26.63,26.505,
2025-08-14T22:31:37.825Z,1,GR86-016-55,-2.1,-0.208,-0.011,22.55,1.0,3426.0,26.905,26.72,
2025-08-14T22:31:37.868Z,1,GR86-016-55,-2.1,-0.176,0.017,22.55,1.0,,26.66,26.81,46.06
2025-08-14T22:31:37.912Z,1,GR86-016-55,-2.1,-0.195,-0.001,22.55,1.0,,26.355,26.63,
2025-08-14T22:31:37.955Z,1,GR86-016-55,-2.1,-0.19,0.018,22.55,1.0,,26.6,26.84,
2025-08-14T22:31:37.998Z,1,GR86-016-55,-2.1,-0.21,0.02,22.55,1.0,,26.57,26.66,
2025-08-14T22:31:38.041Z,1,GR86-016-55,-2.0,-0.19,0.02,22.55,1.0,3317.0,26.57,26.72,
2025-08-14T22:31:38.085Z,1,GR86-016-55,-1.8,-0.192,0.018,22.55,1.0,,26.295,26.63,44.98
2025-08-14T22:31:38.128Z,1,GR86-016-55,-1.5,-0.194,0.018,22.55,1.0,,26.78,26.965,
2025-08-14T22:31:38.171Z,1,GR86-016-55,-1.1,-0.192,0.036,22.55,1.0,,26.905,26.66,
2025-08-14T22:31:38.214Z,1,GR86-016-55,-0.9,-0.177,0.039,22.55,1.0,,26.935,26.965,
2025-08-14T22:31:38.257Z,1,GR86-016-55,-0.9,-0.204,0.026,22.55,1.0,3224.0,26.905,26.78,
2025-08-14T22:31:38.300Z,1,GR86-016-55,-0.8,-0.231,0.008,22.52,1.0,,27.285,27.405,43.67
2025-08-14T22:31:38.343Z,1,GR86-016-55,-0.7000000000000001,-0.2,0.033,22.53,1.0,,26.46,26.57,
2025-08-14T22:31:38.387Z,1,GR86-016-55,-0.7000000000000001,-0.154,0.022,22.52,1.0,,20.45,21.41,
2025-08-14T22:31:38.430Z,1,GR86-016-55,-0.7000000000000001,0.012,0.028,22.52,1.0,,10.18,11.035,
2025-08-14T22:31:38.473Z,1,GR86-016-55,-0.7000000000000001,0.151,0.024,22.52,1.0,3118.0,2.365,2.825,
2025-08-14T22:31:38.516Z,1,GR86-016-55,-0.7000000000000001,0.207,0.026,22.52,1.0,,0.0,0.0,42.2
2025-08-14T22:31:38.559Z,1,GR86-016-55,-0.7000000000000001,0.186,0.037,22.52,1.0,,0.0,0.0,
2025-08-14T22:31:38.602Z,1,GR86-016-55,-0.7000000000000001,0.191,0.049,22.52,1.0,,0.0,0.0,
2025-08-14T22:31:38.645Z,1,GR86-016-55,-0.7000000000000001,0.209,0.065,22.52,1.0,,0.0,0.0,
2025-08-14T22:31:38.688Z,1,GR86-016-55,-0.7000000000000001,0.231,0.046,22.52,1.0,3170.0,0.0,0.0,
2025-08-14T22:31:38.731Z,1,GR86-016-55,-0.7000000000000001,0.23,0.047,22.52,1.0,,0.0,0.0,42.1
2025-08-14T22:31:38.774Z,1,GR86-016-55,-0.7000000000000001,0.207,0.029,22.51,1.0,,0.0,0.0,
2025-08-14T22:31:38.818Z,1,GR86-016-55,-0.7000000000000001,0.19,0.046,22.49,1.0,,0.0,0.0,
2025-08-14T22:31:38.861Z,1,GR86-016-55,-0.7000000000000001,0.194,0.041,22.49,1.0,,0.0,0.0,
2025-08-14T22:31:38.904Z,1,GR86-016-55,-0.7000000000000001,0.209,0.04,22.49,1.0,3252.0,0.0,0.0,
2025-08-14T22:31:38.947Z,1,GR86-016-55,-0.7000000000000001,0.207,0.033,22.49,1.0,,0.0,0.0,43.2
2025-08-14T22:31:38.991Z,1,GR86-016-55,-0.9,0.213,0.02,22.49,1.0,,0.0,0.0,
2025-08-14T22:31:39.034Z,1,GR86-016-55,-0.9,0.214,0.03,22.49,1.0,,0.0,0.0,
2025-08-14T22:31:39.077Z,1,GR86-016-55,-0.9,0.21,0.038,22.48,1.0,,0.0,0.0,
2025-08-14T22:31:39.122Z,1,GR86-016-55,-0.9,0.198,0.044,22.48,1.0,3381.0,0.0,0.0,
2025-08-14T22:31:39.165Z,1,GR86-016-55,-0.9,0.204,0.006,22.46,1.0,,0.0,0.0,44.56
2025-08-14T22:31:39.208Z,1,GR86-016-55,-0.9,0.212,0.017,22.45,1.0,,0.0,0.0,
2025-08-14T22:31:39.251Z,1,GR86-016-55,-1.0,0.21,0.032,22.45,1.0,,0.0,0.0,
2025-08-14T22:31:39.294Z,1,GR86-016-55,-1.1,0.193,0.066,22.46,1.0,,4.9,5.25,
2025-08-14T22:31:39.337Z,1,GR86-016-55,-1.2000000000000002,0.096,0.052,22.46,1.0,3475.0,10.21,10.21,
2025-08-14T22:31:39.380Z,1,GR86-016-55,-1.2000000000000002,-0.03,0.015,22.46,1.0,,15.87,15.81,45.95
2025-08-14T22:31:39.425Z,1,GR86-016-55,-1.2000000000000002,-0.055,0.015,22.46,1.0,,18.175,18.02,
2025-08-14T22:31:39.468Z,1,GR86-016-55,-1.2000000000000002,-0.059,0.011,22.46,1.0,,19.64,19.64,
2025-08-14T22:31:39.511Z,1,GR86-016-55,-1.2000000000000002,-0.078,0.012,22.46,1.0,,20.63,20.6,
2025-08-14T22:31:39.554Z,1,GR86-016-55,-1.2000000000000002,-0.114,0.005,22.46,1.0,3562.0,20.815,20.66,
2025-08-14T22:31:39.597Z,1,GR86-016-55,-1.2000000000000002,-0.148,0.036,22.46,1.0,,21.305,21.38,47.16
2025-08-14T22:31:39.641Z,1,GR86-016-55,-1.3,-0.118,0.007,22.46,1.0,,21.775,21.775,
2025-08-14T22:31:39.685Z,1,GR86-016-55,-1.3,-0.116,-0.005,22.46,1.0,,22.705,22.465,
2025-08-14T22:31:39.728Z,1,GR86-016-55,-1.3,-0.118,0.003,22.46,1.0,,23.655,23.485,
2025-08-14T22:31:39.771Z,1,GR86-016-55,-1.3,-0.143,0.003,22.46,1.0,3483.0,23.775,23.59,
2025-08-14T22:31:39.814Z,1,GR86-016-55,-1.3,-0.133,0.017,22.46,1.0,,23.775,23.805,47.02
2025-08-14T22:31:39.857Z,1,GR86-016-55,-1.3,-0.145,0.018,22.46,1.0,,23.745,23.745,
2025-08-14T22:31:39.900Z,1,GR86-016-55,-1.3,-0.197,0.016,22.45,1.0,,24.525,24.49,
2025-08-14T22:31:39.943Z,1,GR86-016-55,-1.3,-0.164,0.001,22.46,1.0,,24.795,24.765,
2025-08-14T22:31:39.987Z,1,GR86-016-55,-1.3,-0.171,0.017,22.46,1.0,3419.0,25.085,25.025,
2025-08-14T22:31:40.030Z,1,GR86-016-55,-1.3,-0.164,0.032,22.46,1.0,,24.795,24.86,45.14
2025-08-14T22:31:40.073Z,1,GR86-016-55,-1.3,-0.181,0.043,22.46,1.0,,24.83,25.18,
2025-08-14T22:31:40.116Z,1,GR86-016-55,-1.3,-0.148,0.009,22.46,1.0,,25.15,25.085,
2025-08-14T22:31:40.159Z,1,GR86-016-55,-1.3,-0.169,0.009,22.46,1.0,,25.15,25.21,
2025-08-14T22:31:40.202Z,1,GR86-016-55,-1.3,-0.181,0.022,22.46,1.0,3342.0,24.49,24.86,
2025-08-14T22:31:40.245Z,1,GR86-016-55,-1.3,-0.177,0.029,22.46,1.0,,19.305,20.45,43.84
2025-08-14T22:31:40.288Z,1,GR86-016-55,-1.3,0.023,0.004,22.46,1.0,,9.52,10.315,
2025-08-14T22:31:40.331Z,1,GR86-016-55,-1.3,0.167,0.03,22.46,1.0,,2.275,2.58,
2025-08-14T22:31:40.375Z,1,GR86-016-55,-1.3,0.2,0.034,22.46,1.0,,0.0,0.0,
2025-08-14T22:31:40.418Z,1,GR86-016-55,-1.3,0.182,0.054,22.46,1.0,3228.0,0.0,0.0,
2025-08-14T22:31:40.505Z,1,GR86-016-55,-1.3,0.214,0.051,22.45,1.0,,0.0,0.0,43.23
2025-08-14T22:31:40.548Z,1,GR86-016-55,-1.3,0.213,0.055,22.43,1.0,,0.0,0.0,
2025-08-14T22:31:40.591Z,1,GR86-016-55,-1.3,0.212,0.064,22.43,1.0,,0.0,0.0,
2025-08-14T22:31:40.634Z,1,GR86-016-55,-1.3,0.211,0.031,22.42,1.0,3338.0,0.0,0.0,
2025-08-14T22:31:40.678Z,1,GR86-016-55,-1.3,0.205,0.041,22.42,1.0,,0.0,0.0,44.2
2025-08-14T22:31:40.722Z,1,GR86-016-55,-1.3,0.183,0.047,22.41,1.0,,0.0,0.0,
2025-08-14T22:31:40.765Z,1,GR86-016-55,-1.3,0.202,0.016,22.39,1.0,,0.0,0.0,
2025-08-14T22:31:40.808Z,1,GR86-016-55,-1.3,0.212,0.027,22.39,1.0,,0.0,0.0,
2025-08-14T22:31:40.851Z,1,GR86-016-55,-1.3,0.219,0.043,22.39,1.0,3456.0,0.0,0.0,
2025-08-14T22:31:40.894Z,1,GR86-016-55,-1.3,0.208,0.067,22.39,1.0,,0.0,0.0,45.57
2025-08-14T22:31:40.937Z,1,GR86-016-55,-1.3,0.211,0.031,22.39,1.0,,0.0,0.0,
2025-08-14T22:31:40.980Z,1,GR86-016-55,-1.3,0.183,0.042,22.37,1.0,,6.2700000000000005,6.3950000000000005,
2025-08-14T22:31:41.023Z,1,GR86-016-55,-1.3,0.038,0.055,22.36,1.0,,11.965,11.935,
2025-08-14T22:31:41.066Z,1,GR86-016-55,-1.3,-0.038,0.028,22.36,1.0,3535.0,17.580000000000002,17.395,
2025-08-14T22:31:41.109Z,1,GR86-016-55,-1.3,-0.104,0.015,22.36,1.0,,21.745,21.44,46.95
2025-08-14T22:31:41.152Z,1,GR86-016-55,-1.3,-0.13,0.024,22.36,1.0,,23.395,23.27,
2025-08-14T22:31:41.195Z,1,GR86-016-55,-1.3,-0.153,0.023,22.36,1.0,,24.05,23.835,
2025-08-14T22:31:41.239Z,1,GR86-016-55,-1.3,-0.155,0.009,22.35,1.0,,24.46,24.49,
2025-08-14T22:31:41.282Z,1,GR86-016-55,-1.3,-0.191,0.027,22.36,1.0,3520.0,24.795,24.735,
2025-08-14T22:31:41.325Z,1,GR86-016-55,-1.3,-0.201,0.018,22.36,1.0,,24.765,24.86,47.23
2025-08-14T22:31:41.368Z,1,GR86-016-55,-1.3,-0.164,0.02,22.36,1.0,,24.83,24.86,
2025-08-14T22:31:41.411Z,1,GR86-016-55,-1.3,-0.169,0.011,22.36,1.0,,25.21,25.21,
2025-08-14T22:31:41.454Z,1,GR86-016-55,-1.3,-0.16,0.05,22.36,1.0,,25.12,25.21,
2025-08-14T22:31:41.497Z,1,GR86-016-55,-1.3,-0.19,0.042,22.36,1.0,3447.0,24.795,25.12,
2025-08-14T22:31:41.541Z,1,GR86-016-55,-1.3,-0.191,-0.004,22.36,1.0,,25.485,25.425,46.4
2025-08-14T22:31:41.627Z,1,GR86-016-55,-1.3,-0.209,0.025,22.36,1.0,,25.515,25.545,
2025-08-14T22:31:41.670Z,1,GR86-016-55,-1.3,-0.212,0.042,22.36,1.0,,25.745,25.575,
2025-08-14T22:31:41.713Z,1,GR86-016-55,-1.3,-0.189,0.004,22.36,1.0,3319.0,26.05,25.955,
2025-08-14T22:31:41.756Z,1,GR86-016-55,-1.3,-0.202,0.025,22.36,1.0,,26.08,25.955,45.06
2025-08-14T22:31:41.799Z,1,GR86-016-55,-1.3,-0.185,0.04,22.36,1.0,,26.14,26.23,
2025-08-14T22:31:41.842Z,1,GR86-016-55,-1.3,-0.196,0.052,22.36,1.0,,25.455,25.425,
2025-08-14T22:31:41.885Z,1,GR86-016-55,-1.3,-0.2,0.006,22.36,1.0,,20.845,21.56,
2025-08-14T22:31:41.928Z,1,GR86-016-55,-1.3,-0.015,0.036,22.36,1.0,3223.0,10.62,11.43,
2025-08-14T22:31:42.014Z,1,GR86-016-55,-1.3,0.141,0.041,22.36,1.0,,2.58,3.065,43.62
2025-08-14T22:31:42.057Z,1,GR86-016-55,-1.3,0.209,0.027,22.36,1.0,,0.0,0.0,
2025-08-14T22:31:42.100Z,1,GR86-016-55,-1.3,0.192,0.063,22.36,1.0,,0.0,0.0,
2025-08-14T22:31:42.143Z,1,GR86-016-55,-1.3,0.189,0.075,22.36,1.0,3165.0,0.0,0.0,
2025-08-14T22:31:42.186Z,1,GR86-016-55,-1.3,0.209,0.058,22.36,1.0,,0.0,0.0,42.63
2025-08-14T22:31:42.230Z,1,GR86-016-55,-1.3,0.229,0.027,22.36,1.0,,0.0,0.0,
2025-08-14T22:31:42.275Z,1,GR86-016-55,-1.3,0.228,0.04,22.36,1.0,,0.0,0.0,
2025-08-14T22:31:42.318Z,1,GR86-016-55,-1.3,0.197,0.067,22.36,1.0,,0.0,0.0,
2025-08-14T22:31:42.361Z,1,GR86-016-55,-1.3,0.199,0.044,22.36,1.0,3299.0,0.0,0.0,
2025-08-14T22:31:42.404Z,1,GR86-016-55,-1.3,0.196,0.029,22.36,1.0,,0.0,0.0,43.38
2025-08-14T22:31:42.447Z,1,GR86-016-55,-1.3,0.203,0.068,22.36,1.0,,0.0,0.0,
2025-08-14T22:31:42.533Z,1,GR86-016-55,-1.3,0.227,0.042,22.36,1.0,,0.0,0.0,
2025-08-14T22:31:42.576Z,1,GR86-016-55,-1.3,0.215,0.027,22.36,1.0,3385.0,0.0,0.0,
2025-08-14T22:31:42.619Z,1,GR86-016-55,-1.3,0.191,0.073,22.35,1.0,,0.0,0.0,44.74
2025-08-14T22:31:42.662Z,1,GR86-016-55,-1.3,0.184,0.054,22.33,1.0,,0.0,0.0,
2025-08-14T22:31:42.705Z,1,GR86-016-55,-1.3,0.193,0.025,22.33,1.0,,6.3,6.485,
2025-08-14T22:31:42.748Z,1,GR86-016-55,-1.3,0.073,0.057,22.31,1.0,,13.015,12.985,
2025-08-14T22:31:42.791Z,1,GR86-016-55,-1.3,-0.063,0.056,22.29,1.0,3477.0,18.325,18.145,
2025-08-14T22:31:42.834Z,1,GR86-016-55,-1.3,-0.093,0.037,22.29,1.0,,22.495,22.31,47.5
2025-08-14T22:31:42.877Z,1,GR86-016-55,-1.3,-0.156,0.013,22.29,1.0,,24.83,24.555,
2025-08-14T22:31:42.922Z,1,GR86-016-55,-1.3,-0.215,0.033,22.29,1.0,,25.775,25.665,
2025-08-14T22:31:42.965Z,1,GR86-016-55,-1.3,-0.173,0.022,22.29,1.0,,26.05,25.865,
2025-08-14T22:31:43.008Z,1,GR86-016-55,-1.3,-0.209,-0.003,22.29,1.0,3591.0,26.43,26.355,
2025-08-14T22:31:43.051Z,1,GR86-016-55,-1.3,-0.191,0.039,22.29,1.0,,26.4,26.295,47.03
2025-08-14T22:31:43.094Z,1,GR86-016-55,-1.3,-0.222,0.044,22.29,1.0,,26.2,26.23,
2025-08-14T22:31:43.137Z,1,GR86-016-55,-1.3,-0.171,0.039,22.29,1.0,,26.23,26.23,
2025-08-14T22:31:43.180Z,1,GR86-016-55,-1.3,-0.216,0.011,22.28,1.0,,26.75,26.63,
2025-08-14T22:31:43.223Z,1,GR86-016-55,-1.3,-0.227,0.048,22.29,1.0,3380.0,26.875,27.025,
2025-08-14T22:31:43.310Z,1,GR86-016-55,-1.3,-0.215,0.043,22.29,1.0,,26.43,26.26,45.8
2025-08-14T22:31:43.355Z,1,GR86-016-55,-1.3,-0.214,0.007,22.29,1.0,,27.18,26.995,
2025-08-14T22:31:43.398Z,1,GR86-016-55,-1.3,-0.214,0.04,22.29,1.0,,27.255,27.405,
2025-08-14T22:31:43.441Z,1,GR86-016-55,-1.3,-0.186,0.033,22.29,1.0,3265.0,26.57,26.57,
2025-08-14T22:31:43.485Z,1,GR86-016-55,-1.3,-0.218,0.018,22.29,1.0,,23.425,24.4,44.31
2025-08-14T22:31:43.528Z,1,GR86-016-55,-1.2000000000000002,-0.076,0.028,22.29,1.0,,14.085,15.03,
2025-08-14T22:31:43.571Z,1,GR86-016-55,-1.1,0.094,0.039,22.29,1.0,,4.96,5.465,
2025-08-14T22:31:43.614Z,1,GR86-016-55,-1.1,0.203,0.043,22.29,1.0,,0.0,0.0,
2025-08-14T22:31:43.657Z,1,GR86-016-55,-1.0,0.199,0.038,22.29,1.0,3191.0,0.0,0.0,
2025-08-14T22:31:43.700Z,1,GR86-016-55,-0.9,0.2,0.062,22.27,1.0,,0.0,0.0,43.13
2025-08-14T22:31:43.744Z,1,GR86-016-55,-0.9,0.199,0.088,22.29,1.0,,0.0,0.0,
2025-08-14T22:31:43.787Z,1,GR86-016-55,-0.8,0.213,0.054,22.27,1.0,,0.0,0.0,
2025-08-14T22:31:43.830Z,1,GR86-016-55,-0.8,0.212,0.05,22.28,1.0,,0.0,0.0,
2025-08-14T22:31:43.873Z,1,GR86-016-55,-0.7000000000000001,0.207,0.057,22.26,1.0,3310.0,0.0,0.0,
2025-08-14T22:31:43.916Z,1,GR86-016-55,-0.7000000000000001,0.193,0.083,22.27,1.0,,0.0,0.0,43.73
2025-08-14T22:31:43.959Z,1,GR86-016-55,-0.7000000000000001,0.2,0.063,22.26,1.0,,0.0,0.0,
2025-08-14T22:31:44.002Z,1,GR86-016-55,-0.7000000000000001,0.219,0.041,22.27,1.0,,0.0,0.0,
2025-08-14T22:31:44.045Z,1,GR86-016-55,-0.7000000000000001,0.208,0.073,22.26,1.0,,0.0,0.0,
2025-08-14T22:31:44.088Z,1,GR86-016-55,-0.7000000000000001,0.206,0.071,22.26,1.0,3415.0,0.0,0.0,
2025-08-14T22:31:44.131Z,1,GR86-016-55,-0.7000000000000001,0.211,0.054,22.23,1.0,,0.0,0.0,45.06
2025-08-14T22:31:44.175Z,1,GR86-016-55,-0.7000000000000001,0.196,0.037,22.23,1.0,,0.0,0.0,
2025-08-14T22:31:44.218Z,1,GR86-016-55,-0.7000000000000001,0.188,0.086,22.23,1.0,,0.0,0.0,
2025-08-14T22:31:44.261Z,1,GR86-016-55,-0.7000000000000001,0.2,0.06,22.22,1.0,,0.0,0.0,
2025-08-14T22:31:44.305Z,1,GR86-016-55,-0.7000000000000001,0.212,0.036,22.22,1.0,3509.0,0.0,0.0,
2025-08-14T22:31:44.348Z,1,GR86-016-55,-0.7000000000000001,0.208,0.063,22.22,1.0,,4.365,4.655,46.49
2025-08-14T22:31:44.391Z,1,GR86-016-55,-0.7000000000000001,0.105,0.076,22.23,1.0,,12.025,12.055,
2025-08-14T22:31:44.434Z,1,GR86-016-55,-0.7000000000000001,-0.062,0.043,22.22,1.0,,19.18,18.92,
2025-08-14T22:31:44.477Z,1,GR86-016-55,-0.7000000000000001,-0.182,0.033,22.22,1.0,,24.46,24.17,
2025-08-14T22:31:44.522Z,1,GR86-016-55,-0.6000000000000001,-0.229,0.059,22.21,1.0,3610.0,28.49,28.095,
2025-08-14T22:31:44.565Z,1,GR86-016-55,-0.6000000000000001,-0.228,0.024,22.22,1.0,,30.11,29.835,47.88
2025-08-14T22:31:44.608Z,1,GR86-016-55,-0.6000000000000001,-0.275,0.01,22.21,1.0,,31.39,31.115,
2025-08-14T22:31:44.651Z,1,GR86-016-55,-0.5,-0.304,0.039,22.22,1.0,,32.015,31.955,
2025-08-14T22:31:44.694Z,1,GR86-016-55,-0.5,-0.305,0.055,22.21,1.0,,31.74,31.48,
2025-08-14T22:31:44.737Z,1,GR86-016-55,-0.4,-0.281,0.031,22.22,1.0,3523.0,31.42,31.54,
2025-08-14T22:31:44.780Z,1,GR86-016-55,-0.4,-0.265,0.032,22.2,1.0,,31.77,32.015,47.69
2025-08-14T22:31:44.825Z,1,GR86-016-55,-0.4,-0.281,0.059,22.21,1.0,,31.68,31.62,
2025-08-14T22:31:44.868Z,1,GR86-016-55,-0.3,-0.247,0.039,22.21,1.0,,31.235,31.48,
2025-08-14T22:31:44.911Z,1,GR86-016-55,-0.3,-0.283,0.036,22.23,1.0,,31.42,31.575,
2025-08-14T22:31:44.954Z,1,GR86-016-55,-0.2,-0.302,0.021,22.22,1.0,3391.0,31.77,31.83,
2025-08-14T22:31:44.997Z,1,GR86-016-55,-0.1,-0.313,0.067,22.2,1.0,,31.77,31.83,46.16
2025-08-14T22:31:45.041Z,1,GR86-016-55,-0.1,-0.268,0.037,22.21,1.0,,31.42,31.83,
2025-08-14T22:31:45.084Z,1,GR86-016-55,0.0,-0.268,0.043,22.21,1.0,,31.71,31.65,
2025-08-14T22:31:45.127Z,1,GR86-016-55,0.1,-0.291,0.035,22.21,1.0,,31.45,31.83,
2025-08-14T22:31:45.170Z,1,GR86-016-55,0.4,-0.264,0.069,22.21,1.0,3239.0,26.84,27.97,
2025-08-14T22:31:45.213Z,1,GR86-016-55,0.5,-0.097,0.055,22.21,1.0,,16.405,17.395,44.15
2025-08-14T22:31:45.256Z,1,GR86-016-55,0.6000000000000001,0.08,0.052,22.21,1.0,,6.3,6.745,
2025-08-14T22:31:45.299Z,1,GR86-016-55,0.6000000000000001,0.186,0.043,22.21,1.0,,0.0,0.0,
2025-08-14T22:31:45.342Z,1,GR86-016-55,0.6000000000000001,0.189,0.081,22.22,1.0,,0.0,0.0,
2025-08-14T22:31:45.385Z,1,GR86-016-55,0.6000000000000001,0.198,0.077,22.21,1.0,3085.0,0.0,0.0,
2025-08-14T22:31:45.428Z,1,GR86-016-55,0.6000000000000001,0.22,0.075,22.21,1.0,,0.0,0.0,41.74
2025-08-14T22:31:45.471Z,1,GR86-016-55,0.6000000000000001,0.219,0.078,22.21,1.0,,0.0,0.0,
2025-08-14T22:31:45.514Z,1,GR86-016-55,0.6000000000000001,0.215,0.091,22.21,1.0,,0.0,0.0,
2025-08-14T22:31:45.557Z,1,GR86-016-55,0.6000000000000001,0.212,0.072,22.21,1.0,,0.0,0.0,
2025-08-14T22:31:45.600Z,1,GR86-016-55,0.6000000000000001,0.211,0.057,22.2,1.0,3154.0,0.0,0.0,
2025-08-14T22:31:45.643Z,1,GR86-016-55,0.6000000000000001,0.197,0.065,22.2,1.0,,0.0,0.0,42.86
2025-08-14T22:31:45.687Z,1,GR86-016-55,0.6000000000000001,0.204,0.089,22.2,1.0,,0.0,0.0,
2025-08-14T22:31:45.730Z,1,GR86-016-55,0.6000000000000001,0.208,0.075,22.2,1.0,,0.0,0.0,
2025-08-14T22:31:45.773Z,1,GR86-016-55,0.6000000000000001,0.213,0.062,22.2,1.0,,0.0,0.0,
2025-08-14T22:31:45.816Z,1,GR86-016-55,0.6000000000000001,0.203,0.063,22.2,1.0,3242.0,0.0,0.0,
2025-08-14T22:31:45.859Z,1,GR86-016-55,0.5,0.208,0.083,22.19,1.0,,0.0,0.0,44.28
2025-08-14T22:31:45.902Z,1,GR86-016-55,0.5,0.209,0.062,22.17,1.0,,0.0,0.0,
2025-08-14T22:31:45.945Z,1,GR86-016-55,0.5,0.206,0.067,22.17,1.0,,0.0,0.0,
2025-08-14T22:31:45.988Z,1,GR86-016-55,0.3,0.204,0.069,22.17,1.0,,0.0,0.0,
2025-08-14T22:31:46.031Z,1,GR86-016-55,0.0,0.205,0.072,22.16,1.0,3457.0,0.0,0.0,
2025-08-14T22:31:46.075Z,1,GR86-016-55,-0.4,0.203,0.038,22.15,1.0,,6.835,6.99,45.7
2025-08-14T22:31:46.118Z,1,GR86-016-55,-0.4,0.057,0.055,22.13,1.0,,14.91,14.91,
2025-08-14T22:31:46.162Z,1,GR86-016-55,-0.4,-0.141,0.045,22.13,1.0,,24.2,23.99,
2025-08-14T22:31:46.205Z,1,GR86-016-55,-0.4,-0.205,0.017,22.13,1.0,,28.185,27.805,
2025-08-14T22:31:46.248Z,1,GR86-016-55,-0.4,-0.22,0.036,22.13,1.0,3523.0,29.36,29.36,
2025-08-14T22:31:46.291Z,1,GR86-016-55,-0.4,-0.261,0.021,22.13,1.0,,29.62,29.53,46.65
2025-08-14T22:31:46.334Z,1,GR86-016-55,-0.4,-0.215,0.015,22.13,1.0,,29.39,29.435,
2025-08-14T22:31:46.378Z,1,GR86-016-55,-0.4,-0.245,0.015,22.13,1.0,,29.025,29.39,
2025-08-14T22:31:46.422Z,1,GR86-016-55,-0.5,-0.269,0.033,22.13,1.0,,29.39,29.74,
2025-08-14T22:31:46.465Z,1,GR86-016-55,-0.5,-0.246,0.049,22.13,1.0,3354.0,29.59,29.435,
2025-08-14T22:31:46.508Z,1,GR86-016-55,-0.5,-0.237,0.037,22.14,1.0,,29.465,29.71,45.67
2025-08-14T22:31:46.551Z,1,GR86-016-55,-0.5,-0.227,0.025,22.13,1.0,,29.33,29.39,
2025-08-14T22:31:46.594Z,1,GR86-016-55,-0.5,-0.261,0.038,22.13,1.0,,29.955,30.155,
2025-08-14T22:31:46.637Z,1,GR86-016-55,-0.5,-0.278,0.039,22.13,1.0,,29.71,29.71,
2025-08-14T22:31:46.680Z,1,GR86-016-55,-0.5,-0.29,0.031,22.14,1.0,3229.0,29.985,30.11,
2025-08-14T22:31:46.723Z,1,GR86-016-55,-0.5,-0.249,0.036,22.13,1.0,,29.985,30.045,44.0
2025-08-14T22:31:46.767Z,1,GR86-016-55,-0.5,-0.281,0.013,22.13,1.0,,30.045,30.335,
2025-08-14T22:31:46.810Z,1,GR86-016-55,-0.5,-0.237,0.044,22.13,1.0,,27.53,27.97,
2025-08-14T22:31:46.853Z,1,GR86-016-55,-0.5,-0.127,0.022,22.13,1.0,,17.455000000000002,18.405,
2025-08-14T22:31:46.896Z,1,GR86-016-55,-0.5,0.068,0.03,22.13,1.0,3110.0,6.455,6.99,
2025-08-14T22:31:46.939Z,1,GR86-016-55,-0.5,0.168,0.038,22.13,1.0,,0.0,0.0,42.34
2025-08-14T22:31:46.982Z,1,GR86-016-55,-0.5,0.166,0.051,22.13,1.0,,0.0,0.0,
2025-08-14T22:31:47.068Z,1,GR86-016-55,-0.5,0.22,0.047,22.13,1.0,,0.0,0.0,
2025-08-14T22:31:47.111Z,1,GR86-016-55,-0.5,0.237,0.061,22.13,1.0,3094.0,0.0,0.0,
2025-08-14T22:31:47.154Z,1,GR86-016-55,-0.5,0.235,0.039,22.13,1.0,,0.0,0.0,41.53
2025-08-14T22:31:47.197Z,1,GR86-016-55,-0.5,0.207,0.058,22.14,1.0,,0.0,0.0,
2025-08-14T22:31:47.240Z,1,GR86-016-55,-0.6000000000000001,0.175,0.042,22.13,1.0,,0.0,0.0,
2025-08-14T22:31:47.284Z,1,GR86-016-55,-0.6000000000000001,0.179,0.045,22.13,1.0,,0.0,0.0,
2025-08-14T22:31:47.327Z,1,GR86-016-55,-0.6000000000000001,0.211,0.047,22.13,1.0,3193.0,0.0,0.0,
2025-08-14T22:31:47.370Z,1,GR86-016-55,-0.6000000000000001,0.236,0.047,22.14,1.0,,0.0,0.0,42.48
2025-08-14T22:31:47.413Z,1,GR86-016-55,-0.6000000000000001,0.224,0.043,22.12,1.0,,0.0,0.0,
2025-08-14T22:31:47.456Z,1,GR86-016-55,-0.6000000000000001,0.2,0.05,22.14,1.0,,0.0,0.0,
2025-08-14T22:31:47.499Z,1,GR86-016-55,-0.6000000000000001,0.197,0.053,22.13,1.0,,0.0,0.0,
2025-08-14T22:31:47.542Z,1,GR86-016-55,-0.6000000000000001,0.192,0.043,22.13,1.0,3328.0,0.0,0.0,
2025-08-14T22:31:47.585Z,1,GR86-016-55,-0.6000000000000001,0.197,0.056,22.14,1.0,,0.0,0.0,43.91
2025-08-14T22:31:47.628Z,1,GR86-016-55,-0.6000000000000001,0.195,0.044,22.1,1.0,,0.0,0.0,
2025-08-14T22:31:47.671Z,1,GR86-016-55,-0.6000000000000001,0.215,0.052,22.1,1.0,,0.0,0.0,
2025-08-14T22:31:47.714Z,1,GR86-016-55,-0.6000000000000001,0.221,0.026,22.07,1.0,,2.045,2.305,
2025-08-14T22:31:47.757Z,1,GR86-016-55,-0.6000000000000001,0.164,0.054,22.07,1.0,3439.0,14.24,14.33,
2025-08-14T22:31:47.800Z,1,GR86-016-55,-0.6000000000000001,-0.233,0.046,22.07,1.0,,28.84,28.52,45.38
2025-08-14T22:31:47.843Z,1,GR86-016-55,-0.6000000000000001,-0.348,0.026,22.06,1.0,,34.18,33.8,
2025-08-14T22:31:47.886Z,1,GR86-016-55,-0.6000000000000001,-0.321,0.017,22.05,1.0,,36.275,35.985,
2025-08-14T22:31:47.929Z,1,GR86-016-55,-0.6000000000000001,-0.348,0.017,22.06,1.0,,36.64,36.335,
2025-08-14T22:31:47.972Z,1,GR86-016-55,-0.6000000000000001,-0.327,0.009,22.07,1.0,3525.0,36.425,36.455,
2025-08-14T22:31:48.015Z,1,GR86-016-55,-0.6000000000000001,-0.379,0.017,22.04,1.0,,36.18,36.245,46.79
2025-08-14T22:31:48.058Z,1,GR86-016-55,-0.6000000000000001,-0.353,0.024,22.04,1.0,,35.74,36.245,
2025-08-14T22:31:48.101Z,1,GR86-016-55,-0.6000000000000001,-0.326,0.011,22.07,1.0,,35.265,35.435,
2025-08-14T22:31:48.144Z,1,GR86-016-55,-0.6000000000000001,-0.319,0.007,22.05,1.0,,35.02,35.68,
2025-08-14T22:31:48.187Z,1,GR86-016-55,-0.6000000000000001,-0.322,0.026,22.05,1.0,3347.0,34.0,34.715,
2025-08-14T22:31:48.230Z,1,GR86-016-55,-0.6000000000000001,-0.311,0.036,22.06,1.0,,32.445,33.71,43.52
2025-08-14T22:31:48.275Z,1,GR86-016-55,-0.6000000000000001,-0.289,0.017,22.07,1.0,,30.9,31.83,
2025-08-14T22:31:48.318Z,1,GR86-016-55,-0.6000000000000001,-0.276,0.026,22.07,1.0,,30.43,31.51,
2025-08-14T22:31:48.361Z,1,GR86-016-55,-0.6000000000000001,-0.264,0.029,22.06,1.0,,29.985,30.795,
2025-08-14T22:31:48.404Z,1,GR86-016-55,-0.6000000000000001,-0.271,0.034,22.06,1.0,3176.0,29.955,30.965,
2025-08-14T22:31:48.447Z,1,GR86-016-55,-0.6000000000000001,-0.265,0.015,22.05,1.0,,29.62,30.215,41.37
2025-08-14T22:31:48.491Z,1,GR86-016-55,-0.6000000000000001,-0.262,0.031,22.07,1.0,,27.805,28.9,
2025-08-14T22:31:48.534Z,1,GR86-016-55,-0.6000000000000001,-0.181,0.034,22.07,1.0,,19.15,20.235,
2025-08-14T22:31:48.577Z,1,GR86-016-55,-0.6000000000000001,0.05,0.041,22.06,1.0,,7.205,7.890000000000001,
2025-08-14T22:31:48.622Z,1,GR86-016-55,-0.6000000000000001,0.199,0.016,22.06,1.0,2910.0,0.0,0.0,
2025-08-14T22:31:48.665Z,1,GR86-016-55,-0.6000000000000001,0.187,0.03,21.88,1.0,,0.0,0.0,39.65
2025-08-14T22:31:48.708Z,1,GR86-016-55,-0.6000000000000001,0.188,0.049,4.24,1.0,,0.0,0.0,
2025-08-14T22:31:48.751Z,1,GR86-016-55,-0.6000000000000001,0.21,0.06,4.14,1.0,,0.0,0.0,
2025-08-14T22:31:48.794Z,1,GR86-016-55,-0.6000000000000001,0.197,0.065,3.98,1.0,,0.0,0.0,
2025-08-14T22:31:48.837Z,1,GR86-016-55,-0.6000000000000001,0.11,0.034,3.56,1.0,3009.0,0.0,0.0,
2025-08-14T22:31:48.880Z,1,GR86-016-55,-0.6000000000000001,-0.037,0.049,3.11,1.0,,0.0,0.0,40.22
2025-08-14T22:31:48.923Z,1,GR86-016-55,-0.6000000000000001,-0.029,0.049,3.01,1.0,,0.0,0.0,
2025-08-14T22:31:48.967Z,1,GR86-016-55,-0.6000000000000001,-0.031,0.057,2.95,1.0,,0.0,0.0,
2025-08-14T22:31:49.010Z,1,GR86-016-55,-0.6000000000000001,-0.034,0.036,2.92,1.0,,0.0,0.0,
2025-08-14T22:31:49.053Z,1,GR86-016-55,-0.6000000000000001,-0.047,0.023,2.86,1.0,2927.0,2.335,2.4250000000000003,
2025-08-14T22:31:49.096Z,1,GR86-016-55,-0.6000000000000001,-0.179,0.051,2.76,1.0,,5.465,5.37,41.17
2025-08-14T22:31:49.139Z,1,GR86-016-55,-0.6000000000000001,-0.291,0.049,2.69,1.0,,8.515,8.575000000000001,
2025-08-14T22:31:49.182Z,1,GR86-016-55,-0.6000000000000001,-0.304,0.036,2.65,1.0,,12.33,12.145,
2025-08-14T22:31:49.225Z,1,GR86-016-55,-0.6000000000000001,-0.3,0.04,2.63,1.0,,13.61,13.55,
2025-08-14T22:31:49.268Z,1,GR86-016-55,-0.6000000000000001,-0.268,0.037,2.6,1.0,2974.0,13.765,13.855,
2025-08-14T22:31:49.312Z,1,GR86-016-55,-0.6000000000000001,-0.286,0.032,2.57,1.0,,13.885,14.085,40.81
2025-08-14T22:31:49.355Z,1,GR86-016-55,-0.6000000000000001,-0.302,0.031,2.57,1.0,,13.95,13.95,
2025-08-14T22:31:49.398Z,1,GR86-016-55,-0.6000000000000001,-0.335,0.033,2.54,1.0,,13.95,14.33,
2025-08-14T22:31:49.441Z,1,GR86-016-55,-0.6000000000000001,-0.362,0.056,2.54,1.0,,13.275,13.55,
2025-08-14T22:31:49.485Z,1,GR86-016-55,-0.6000000000000001,-0.312,0.046,2.53,1.0,2733.0,9.28,10.115,
2025-08-14T22:31:49.528Z,1,GR86-016-55,-0.6000000000000001,-0.202,0.041,2.53,1.0,,3.005,3.495,38.99
2025-08-14T22:31:49.571Z,1,GR86-016-55,-0.6000000000000001,-0.091,0.015,2.53,1.0,,0.0,0.0,
2025-08-14T22:31:49.614Z,1,GR86-016-55,-0.6000000000000001,-0.095,0.033,2.52,1.0,,0.0,0.0,
2025-08-14T22:31:49.657Z,1,GR86-016-55,-0.6000000000000001,-0.116,0.054,2.52,1.0,,0.0,0.0,
2025-08-14T22:31:49.700Z,1,GR86-016-55,-0.6000000000000001,-0.128,0.048,2.5,1.0,2635.0,0.0,0.0,
2025-08-14T22:31:49.743Z,1,GR86-016-55,-0.6000000000000001,-0.116,0.046,2.5,1.0,,0.0,0.0,36.92
2025-08-14T22:31:49.787Z,1,GR86-016-55,-0.6000000000000001,-0.1,0.036,2.5,1.0,,0.0,0.0,
2025-08-14T22:31:49.830Z,1,GR86-016-55,-0.6000000000000001,-0.098,0.045,2.5,1.0,,0.0,0.0,
2025-08-14T22:31:49.873Z,1,GR86-016-55,-0.6000000000000001,-0.101,0.046,2.49,1.0,,0.0,0.0,
2025-08-14T22:31:49.916Z,1,GR86-016-55,-0.6000000000000001,-0.114,0.043,2.5,1.0,2595.0,0.0,0.0,
2025-08-14T22:31:49.959Z,1,GR86-016-55,-0.6000000000000001,-0.111,0.042,2.5,1.0,,0.0,0.0,35.85
2025-08-14T22:31:50.002Z,1,GR86-016-55,-0.7000000000000001,-0.102,0.033,2.49,1.0,,0.0,0.0,
2025-08-14T22:31:50.045Z,1,GR86-016-55,-1.0,-0.104,0.033,2.5,1.0,,0.0,0.0,
2025-08-14T22:31:50.088Z,1,GR86-016-55,-1.5,-0.108,0.043,2.49,1.0,,0.0,0.0,
2025-08-14T22:31:50.131Z,1,GR86-016-55,-1.7000000000000002,-0.119,0.033,2.49,1.0,2531.0,0.0,0.0,
2025-08-14T22:31:50.175Z,1,GR86-016-55,-1.9,-0.111,0.016,2.49,1.0,,0.0,0.0,35.09
2025-08-14T22:31:50.218Z,1,GR86-016-55,-1.9,-0.1,0.003,2.49,1.0,,0.0,0.0,
2025-08-14T22:31:50.261Z,1,GR86-016-55,-2.1,-0.105,0.019,2.49,1.0,,0.0,0.0,
2025-08-14T22:31:50.305Z,1,GR86-016-55,-2.2,-0.112,0.028,2.5,1.0,,0.0,0.0,
2025-08-14T22:31:50.348Z,1,GR86-016-55,-2.2,-0.11,0.016,2.48,1.0,2489.0,0.0,0.0,
2025-08-14T22:31:50.391Z,1,GR86-016-55,-2.3000000000000003,-0.103,0.019,2.48,1.0,,0.0,0.0,34.4
2025-08-14T22:31:50.434Z,1,GR86-016-55,-2.3000000000000003,-0.098,0.019,2.47,1.0,,0.0,0.0,
2025-08-14T22:31:50.477Z,1,GR86-016-55,-2.3000000000000003,-0.107,0.022,2.48,1.0,,0.0,0.0,
2025-08-14T22:31:50.522Z,1,GR86-016-55,-2.3000000000000003,-0.106,0.021,2.48,1.0,,0.0,0.0,
2025-08-14T22:31:50.565Z,1,GR86-016-55,-2.3000000000000003,-0.113,0.023,2.48,1.0,2442.0,0.0,0.0,
2025-08-14T22:31:50.651Z,1,GR86-016-55,-2.3000000000000003,-0.096,0.006,2.48,1.0,,0.0,0.0,33.74
2025-08-14T22:31:50.694Z,1,GR86-016-55,-2.3000000000000003,-0.095,0.012,2.5,1.0,,0.0,0.0,
2025-08-14T22:31:50.737Z,1,GR86-016-55,-2.3000000000000003,-0.1,0.027,2.48,1.0,,0.0,0.0,
2025-08-14T22:31:50.780Z,1,GR86-016-55,-2.3000000000000003,-0.112,0.02,2.49,1.0,2391.0,0.0,0.0,
2025-08-14T22:31:50.825Z,1,GR86-016-55,-2.4000000000000004,-0.104,0.019,2.49,1.0,,0.0,0.0,32.4
2025-08-14T22:31:50.868Z,1,GR86-016-55,-2.7,-0.099,0.011,2.49,1.0,,0.0,0.0,
2025-08-14T22:31:50.911Z,1,GR86-016-55,-3.2,-0.084,0.021,2.5,1.0,,0.0,0.0,
2025-08-14T22:31:50.954Z,1,GR86-016-55,-3.8,-0.091,0.006,2.48,1.0,,0.0,0.0,
2025-08-14T22:31:50.998Z,1,GR86-016-55,-4.4,-0.106,-0.001,2.49,1.0,2338.0,0.0,0.0,
2025-08-14T22:31:51.041Z,1,GR86-016-55,-5.1000000000000005,-0.109,0.023,2.49,1.0,,0.0,0.0,31.71
2025-08-14T22:31:51.085Z,1,GR86-016-55,-5.5,-0.1,0.001,2.5,1.0,,0.0,0.0,
2025-08-14T22:31:51.128Z,1,GR86-016-55,-5.5,-0.088,0.012,2.49,1.0,,0.0,0.0,
2025-08-14T22:31:51.171Z,1,GR86-016-55,-5.5,-0.094,0.009,2.48,1.0,,0.0,0.0,
2025-08-14T22:31:51.214Z,1,GR86-016-55,-5.5,-0.097,0.011,2.49,1.0,2281.0,0.0,0.0,
2025-08-14T22:31:51.257Z,1,GR86-016-55,-5.5,-0.103,0.003,2.48,1.0,,0.0,0.0,31.04
2025-08-14T22:31:51.300Z,1,GR86-016-55,-5.5,-0.097,0.013,2.48,1.0,,0.0,0.0,
2025-08-14T22:31:51.343Z,1,GR86-016-55,-5.5,-0.09,0.021,2.49,1.0,,0.0,0.0,
2025-08-14T22:31:51.387Z,1,GR86-016-55,-5.5,-0.099,0.009,2.49,1.0,,0.0,0.0,
2025-08-14T22:31:51.430Z,1,GR86-016-55,-5.5,-0.092,0.018,2.49,1.0,2192.0,0.0,0.0,
2025-08-14T22:31:51.473Z,1,GR86-016-55,-5.5,-0.107,0.016,2.49,1.0,,0.0,0.0,30.39
2025-08-14T22:31:51.516Z,1,GR86-016-55,-5.5,-0.111,0.01,2.49,1.0,,0.0,0.0,
2025-08-14T22:31:51.559Z,1,GR86-016-55,-5.5,-0.094,-0.002,2.48,1.0,,0.0,0.0,
2025-08-14T22:31:51.602Z,1,GR86-016-55,-5.5,-0.088,0.022,2.49,1.0,,0.0,0.0,
2025-08-14T22:31:51.645Z,1,GR86-016-55,-5.5,-0.09,0.017,2.5,1.0,2150.0,0.0,0.0,
2025-08-14T22:31:51.688Z,1,GR86-016-55,-5.5,-0.09,0.032,2.48,1.0,,0.0,0.0,29.73
2025-08-14T22:31:51.731Z,1,GR86-016-55,-5.5,-0.098,0.016,2.48,1.0,,0.0,0.0,
2025-08-14T22:31:51.774Z,1,GR86-016-55,-5.5,-0.108,0.023,2.49,1.0,,0.0,0.0,
2025-08-14T22:31:51.817Z,1,GR86-016-55,-5.5,-0.108,0.011,2.48,1.0,,0.0,0.0,
2025-08-14T22:31:51.862Z,1,GR86-016-55,-5.300000000000001,-0.088,0.015,2.48,1.0,2096.0,0.0,0.0,
2025-08-14T22:31:51.905Z,1,GR86-016-55,-3.5,-0.09,0.026,2.49,1.0,,0.0,0.0,29.08
2025-08-14T22:31:51.948Z,1,GR86-016-55,-1.9,-0.11,0.04,2.5,1.0,,0.0,0.0,
2025-08-14T22:31:51.991Z,1,GR86-016-55,-0.9,-0.125,0.049,2.48,1.0,,2.045,2.015,
2025-08-14T22:31:52.034Z,1,GR86-016-55,-0.4,-0.136,0.055,2.49,1.0,,2.305,2.455,
2025-08-14T22:31:52.078Z,1,GR86-016-55,-0.2,-0.145,0.051,2.48,1.0,2042.0,2.73,2.64,
2025-08-14T22:31:52.122Z,1,GR86-016-55,0.3,-0.136,0.044,2.49,1.0,,3.16,3.19,28.41
2025-08-14T22:31:52.165Z,1,GR86-016-55,1.0,-0.131,0.035,2.48,1.0,,3.16,3.19,
2025-08-14T22:31:52.208Z,1,GR86-016-55,1.8,-0.132,0.045,2.5,1.0,,3.28,3.19,
2025-08-14T22:31:52.251Z,1,GR86-016-55,3.2,-0.149,0.033,2.48,1.0,,3.405,3.555,
2025-08-14T22:31:52.294Z,1,GR86-016-55,4.800000000000001,-0.146,0.052,2.48,1.0,1978.0,3.495,3.585,
2025-08-14T22:31:52.337Z,1,GR86-016-55,6.800000000000001,-0.152,0.064,2.49,1.0,,3.755,3.725,27.59
2025-08-14T22:31:52.380Z,1,GR86-016-55,9.3,-0.142,0.077,2.49,1.0,,3.785,4.0,
2025-08-14T22:31:52.423Z,1,GR86-016-55,10.6,-0.143,0.07,2.49,1.0,,3.845,3.905,
2025-08-14T22:31:52.467Z,1,GR86-016-55,11.2,-0.152,0.088,2.49,1.0,,3.845,3.905,
2025-08-14T22:31:52.510Z,1,GR86-016-55,11.2,-0.144,0.078,2.49,1.0,1912.0,3.615,3.785,
2025-08-14T22:31:52.553Z,1,GR86-016-55,11.2,-0.157,0.073,2.49,1.0,,3.495,3.905,26.63
2025-08-14T22:31:52.596Z,1,GR86-016-55,11.2,-0.161,0.063,2.49,1.0,,3.525,3.905,
2025-08-14T22:31:52.639Z,1,GR86-016-55,11.2,-0.149,0.039,2.48,1.0,,3.495,3.585,
2025-08-14T22:31:52.682Z,1,GR86-016-55,11.1,-0.137,0.06,2.48,1.0,,3.845,3.935,
2025-08-14T22:31:52.725Z,1,GR86-016-55,11.0,-0.149,0.058,2.49,1.0,1839.0,3.845,4.18,
2025-08-14T22:31:52.768Z,1,GR86-016-55,10.9,-0.153,0.057,2.49,1.0,,3.815,3.905,25.64
2025-08-14T22:31:52.811Z,1,GR86-016-55,10.7,-0.16,0.042,2.49,1.0,,4.0,3.905,
2025-08-14T22:31:52.854Z,1,GR86-016-55,9.3,-0.176,0.059,2.49,1.0,,3.845,4.24,
2025-08-14T22:31:52.897Z,1,GR86-016-55,6.9,-0.173,0.035,2.48,1.0,,3.845,4.24,
2025-08-14T22:31:52.940Z,1,GR86-016-55,3.2,-0.137,-0.001,2.49,1.0,1752.0,3.845,3.905,
2025-08-14T22:31:52.983Z,1,GR86-016-55,1.4,-0.134,0.01,2.5,1.0,,3.905,4.09,24.61
2025-08-14T22:31:53.026Z,1,GR86-016-55,0.2,-0.139,0.004,2.5,1.0,,4.12,4.24,
2025-08-14T22:31:53.069Z,1,GR86-016-55,-0.5,-0.155,0.021,2.5,1.0,,4.18,4.21,
2025-08-14T22:31:53.112Z,1,GR86-016-55,-0.9,-0.157,0.013,2.5,1.0,,3.845,3.905,
2025-08-14T22:31:53.155Z,1,GR86-016-55,-1.3,-0.169,0.036,2.5,1.0,1689.0,3.905,4.0,
2025-08-14T22:31:53.198Z,1,GR86-016-55,-1.6,-0.167,0.036,2.5,1.0,,4.0,4.305,23.57
2025-08-14T22:31:53.241Z,1,GR86-016-55,-2.0,-0.137,0.014,2.51,1.0,,3.905,4.09,
2025-08-14T22:31:53.285Z,1,GR86-016-55,-2.0,-0.134,0.015,2.52,1.0,,4.15,4.0600000000000005,
2025-08-14T22:31:53.328Z,1,GR86-016-55,-2.0,-0.107,0.022,2.54,1.0,,4.18,4.275,
2025-08-14T22:31:53.371Z,1,GR86-016-55,-2.0,-0.118,0.023,2.54,1.0,1616.0,4.18,4.24,
2025-08-14T22:31:53.414Z,1,GR86-016-55,-2.0,-0.1,0.033,2.56,1.0,,4.275,4.24,22.55
2025-08-14T22:31:53.457Z,1,GR86-016-55,-2.0,-0.105,0.04,2.6,1.0,,4.18,4.18,
2025-08-14T22:31:53.500Z,1,GR86-016-55,1.8,-0.117,0.055,2.69,1.0,,4.18,4.24,
2025-08-14T22:31:53.543Z,1,GR86-016-55,3.6,-0.116,0.053,2.75,1.0,,4.18,4.47,
2025-08-14T22:31:53.587Z,1,GR86-016-55,4.0,-0.106,0.06,2.82,1.0,1477.0,3.935,4.24,
2025-08-14T22:31:53.630Z,1,GR86-016-55,4.0,-0.11,0.045,2.9,1.0,,3.845,3.905,20.76
2025-08-14T22:31:53.675Z,1,GR86-016-55,3.1,-0.094,0.043,2.95,1.0,,3.845,4.24,
2025-08-14T22:31:53.718Z,1,GR86-016-55,0.9,-0.102,0.021,3.02,1.0,,3.495,4.12,
2025-08-14T22:31:53.761Z,1,GR86-016-55,-1.8,-0.097,0.004,3.18,1.0,,3.16,3.555,
2025-08-14T22:31:53.804Z,1,GR86-016-55,-3.3000000000000003,-0.094,-0.001,3.31,1.0,1276.0,2.795,3.19,
2025-08-14T22:31:53.847Z,1,GR86-016-55,-4.6000000000000005,-0.089,0.005,3.44,1.0,,2.64,3.19,20.08
2025-08-14T22:31:53.890Z,1,GR86-016-55,-5.800000000000001,-0.085,0.009,3.6,1.0,,2.61,3.035,
2025-08-14T22:31:53.933Z,1,GR86-016-55,-6.9,-0.086,0.009,3.72,1.0,,2.4250000000000003,2.975,
2025-08-14T22:31:53.976Z,1,GR86-016-55,-7.800000000000001,-0.073,0.003,3.84,1.0,,2.4250000000000003,2.64,
2025-08-14T22:31:54.019Z,1,GR86-016-55,-8.4,-0.078,0.012,4.0200000000000005,1.0,1076.0,2.395,2.5500000000000003,
2025-08-14T22:31:54.062Z,1,GR86-016-55,-9.0,-0.082,0.007,4.4,1.0,,2.64,3.005,19.47
2025-08-14T22:31:54.105Z,1,GR86-016-55,-9.1,-0.089,0.016,4.53,1.0,,2.73,2.885,
2025-08-14T22:31:54.148Z,1,GR86-016-55,-9.1,-0.084,0.028,4.79,1.0,,2.76,3.1,
2025-08-14T22:31:54.191Z,1,GR86-016-55,-9.1,-0.079,0.021,5.2,1.0,,2.52,2.825,
2025-08-14T22:31:54.277Z,1,GR86-016-55,-9.1,-0.084,0.009,5.5,1.0,792.0,2.7,2.825,18.96
2025-08-14T22:31:54.322Z,1,GR86-016-55,-9.1,-0.082,0.01,5.89,1.0,,2.73,3.065,
2025-08-14T22:31:54.365Z,1,GR86-016-55,-9.1,-0.081,0.007,6.16,1.0,,2.73,2.825,
2025-08-14T22:31:54.408Z,1,GR86-016-55,-9.1,-0.073,0.009,6.38,1.0,,2.67,2.855,
2025-08-14T22:31:54.451Z,1,GR86-016-55,-9.1,-0.08,0.043,6.48,1.0,658.0,2.76,3.13,
2025-08-14T22:31:54.494Z,1,GR86-016-55,-9.3,-0.087,0.01,6.41,1.0,,3.005,3.19,18.42
2025-08-14T22:31:54.537Z,1,GR86-016-55,-9.4,-0.082,0.02,6.33,1.0,,2.795,3.19,
2025-08-14T22:31:54.580Z,1,GR86-016-55,-9.4,-0.086,0.005,6.19,1.0,,2.76,2.825,
2025-08-14T22:31:54.623Z,1,GR86-016-55,-9.4,-0.078,0.026,6.12,1.0,,2.825,3.19,
2025-08-14T22:31:54.667Z,1,GR86-016-55,-9.4,-0.083,0.011,5.95,1.0,710.0,2.795,3.19,
2025-08-14T22:31:54.710Z,1,GR86-016-55,-9.4,-0.094,0.023,5.89,1.0,,2.825,3.22,17.900000000000002
2025-08-14T22:31:54.755Z,1,GR86-016-55,-9.4,-0.086,0.008,5.86,1.0,,3.1,3.34,
2025-08-14T22:31:54.798Z,1,GR86-016-55,-9.4,-0.083,0.005,5.69,1.0,,2.975,3.19,
2025-08-14T22:31:54.841Z,1,GR86-016-55,-9.4,-0.088,0.03,5.13,1.0,,3.16,3.19,
2025-08-14T22:31:54.885Z,1,GR86-016-55,-9.4,-0.088,0.01,5.07,1.0,990.0,3.16,3.555,
2025-08-14T22:31:54.928Z,1,GR86-016-55,-9.4,-0.093,0.014,5.01,1.0,,3.19,3.495,17.34
2025-08-14T22:31:54.971Z,1,GR86-016-55,-9.4,-0.097,0.041,4.98,1.0,,3.34,3.435,
2025-08-14T22:31:55.014Z,1,GR86-016-55,-9.4,-0.087,0.028,4.93,1.0,,3.25,3.19,
2025-08-14T22:31:55.057Z,1,GR86-016-55,-8.5,-0.086,0.019,4.91,1.0,,3.405,3.495,
2025-08-14T22:31:55.100Z,1,GR86-016-55,-4.6000000000000005,-0.098,0.038,4.88,1.0,1279.0,3.495,3.785,
2025-08-14T22:31:55.143Z,1,GR86-016-55,-2.4000000000000004,-0.099,0.039,4.88,1.0,,3.845,3.905,16.8
2025-08-14T22:31:55.187Z,1,GR86-016-55,-1.5,-0.106,0.023,4.8500000000000005,1.0,,3.845,3.905,
2025-08-14T22:31:55.230Z,1,GR86-016-55,-1.3,-0.094,0.04,4.86,1.0,,4.15,4.15,
2025-08-14T22:31:55.273Z,1,GR86-016-55,-1.3,-0.101,0.026,4.82,1.0,,4.18,4.15,
2025-08-14T22:31:55.316Z,1,GR86-016-55,-1.3,-0.105,0.034,4.82,1.0,1276.0,4.18,4.24,
2025-08-14T22:31:55.359Z,1,GR86-016-55,-1.6,-0.103,0.015,4.78,1.0,,4.275,4.565,16.21
2025-08-14T22:31:55.402Z,1,GR86-016-55,-2.6,-0.111,0.027,4.79,1.0,,4.18,4.24,
2025-08-14T22:31:55.445Z,1,GR86-016-55,-3.2,-0.105,0.011,4.78,1.0,,4.18,4.21,
2025-08-14T22:31:55.488Z,1,GR86-016-55,-3.3000000000000003,-0.104,0.008,4.75,1.0,,3.97,3.905,
2025-08-14T22:31:55.531Z,1,GR86-016-55,-3.3000000000000003,-0.102,0.013,4.75,1.0,1256.0,3.935,4.18,
2025-08-14T22:31:55.574Z,1,GR86-016-55,-3.6,-0.108,0.022,4.73,1.0,,4.12,4.24,15.58
2025-08-14T22:31:55.618Z,1,GR86-016-55,-3.6,-0.106,0.025,4.72,1.0,,3.905,4.24,
2025-08-14T22:31:55.661Z,1,GR86-016-55,-3.6,-0.106,0.011,4.73,1.0,,3.845,4.21,
2025-08-14T22:31:55.704Z,1,GR86-016-55,-3.2,-0.096,0.019,4.73,1.0,,3.845,4.09,
2025-08-14T22:31:55.747Z,1,GR86-016-55,-2.1,-0.098,0.022,4.73,1.0,1194.0,3.755,3.905,
2025-08-14T22:31:55.790Z,1,GR86-016-55,-1.1,-0.097,0.032,4.73,1.0,,3.555,3.935,14.88
2025-08-14T22:31:55.833Z,1,GR86-016-55,-0.2,-0.094,0.042,4.72,1.0,,3.555,4.15,
2025-08-14T22:31:55.876Z,1,GR86-016-55,0.8,-0.099,0.031,4.72,1.0,,3.615,4.24,
2025-08-14T22:31:55.919Z,1,GR86-016-55,2.0,-0.098,0.034,4.71,1.0,,3.495,3.905,
2025-08-14T22:31:55.962Z,1,GR86-016-55,3.6,-0.102,0.025,4.7,1.0,1152.0,3.495,3.905,
2025-08-14T22:31:56.005Z,1,GR86-016-55,4.0,-0.098,0.021,4.65,1.0,,3.495,3.555,14.18
2025-08-14T22:31:56.048Z,1,GR86-016-55,4.0,-0.095,0.023,4.63,1.0,,3.645,3.725,
2025-08-14T22:31:56.091Z,1,GR86-016-55,4.0,-0.103,0.026,4.63,1.0,,3.555,3.905,
2025-08-14T22:31:56.134Z,1,GR86-016-55,4.0,-0.098,0.033,4.62,1.0,,3.525,3.935,
2025-08-14T22:31:56.177Z,1,GR86-016-55,3.2,-0.101,0.008,4.63,1.0,1142.0,3.755,3.935,
2025-08-14T22:31:56.222Z,1,GR86-016-55,1.1,-0.102,0.021,4.62,1.0,,3.615,3.905,12.91
2025-08-14T22:31:56.265Z,1,GR86-016-55,-0.3,-0.099,0.009,4.61,1.0,,3.525,3.905,
2025-08-14T22:31:56.308Z,1,GR86-016-55,-1.4,-0.099,0.006,4.62,1.0,,3.815,3.845,
2025-08-14T22:31:56.351Z,1,GR86-016-55,-2.2,-0.097,0.027,4.62,1.0,,3.725,3.905,
2025-08-14T22:31:56.394Z,1,GR86-016-55,-2.8000000000000003,-0.099,0.023,4.61,1.0,1142.0,3.845,4.09,
2025-08-14T22:31:56.437Z,1,GR86-016-55,-3.1,-0.096,0.015,4.59,1.0,,3.935,4.335,12.23
2025-08-14T22:31:56.480Z,1,GR86-016-55,-3.4000000000000004,-0.106,0.019,4.58,1.0,,4.0,4.24,
2025-08-14T22:31:56.525Z,1,GR86-016-55,-3.8,-0.108,0.021,4.5600000000000005,1.0,,4.12,4.21,
2025-08-14T22:31:56.568Z,1,GR86-016-55,-4.4,-0.108,0.029,4.5600000000000005,1.0,,3.875,4.0600000000000005,
2025-08-14T22:31:56.611Z,1,GR86-016-55,-5.0,-0.102,0.001,4.53,1.0,1133.0,3.845,3.845,
2025-08-14T22:31:56.654Z,1,GR86-016-55,-5.6000000000000005,-0.101,0.019,4.53,1.0,,3.845,3.905,11.56
2025-08-14T22:31:56.697Z,1,GR86-016-55,-5.9,-0.101,0.013,4.53,1.0,,3.845,4.12,
2025-08-14T22:31:56.740Z,1,GR86-016-55,-5.9,-0.097,0.02,4.5200000000000005,1.0,,3.755,3.97,
2025-08-14T22:31:56.784Z,1,GR86-016-55,-5.9,-0.101,0.017,4.51,1.0,,3.725,4.09,
2025-08-14T22:31:56.870Z,1,GR86-016-55,-5.9,-0.102,0.023,4.49,1.0,1139.0,3.19,3.645,10.89
2025-08-14T22:31:56.913Z,1,GR86-016-55,-5.9,-0.084,0.019,4.5,1.0,,2.365,2.915,
2025-08-14T22:31:56.956Z,1,GR86-016-55,-5.9,-0.066,0.014,4.45,1.0,,0.0,2.135,
2025-08-14T22:31:56.999Z,1,GR86-016-55,-5.9,-0.063,0.024,4.43,1.0,,0.0,1.8,
2025-08-14T22:31:57.042Z,1,GR86-016-55,-5.9,-0.057,0.026,4.43,1.0,1127.0,0.0,1.955,
2025-08-14T22:31:57.085Z,1,GR86-016-55,-5.9,-0.056,0.031,4.43,1.0,,0.0,1.83,10.25
2025-08-14T22:31:57.128Z,1,GR86-016-55,-5.9,-0.062,0.009,4.43,1.0,,0.0,2.135,
2025-08-14T22:31:57.171Z,1,GR86-016-55,-5.9,-0.064,0.008,4.43,1.0,,0.0,2.135,
2025-08-14T22:31:57.214Z,1,GR86-016-55,-5.9,-0.067,0.028,4.43,1.0,,0.0,1.89,
2025-08-14T22:31:57.257Z,1,GR86-016-55,-5.9,-0.062,0.023,4.43,1.0,1129.0,0.0,1.925,
2025-08-14T22:31:57.300Z,1,GR86-016-55,-5.9,-0.066,0.02,4.43,1.0,,0.0,1.86,9.79
2025-08-14T22:31:57.343Z,1,GR86-016-55,-5.9,-0.068,0.009,4.42,1.0,,0.0,1.8,
2025-08-14T22:31:57.387Z,1,GR86-016-55,-5.9,-0.063,0.021,4.41,1.0,,0.0,2.015,
2025-08-14T22:31:57.430Z,1,GR86-016-55,-5.9,-0.066,0.02,4.4,1.0,,0.0,2.135,
2025-08-14T22:31:57.473Z,1,GR86-016-55,-5.9,-0.07,0.026,4.39,1.0,1126.0,0.0,2.135,
2025-08-14T22:31:57.516Z,1,GR86-016-55,-5.0,-0.066,0.024,4.4,1.0,,0.0,2.135,9.37
2025-08-14T22:31:57.559Z,1,GR86-016-55,-3.2,-0.065,0.023,4.4,1.0,,0.0,2.135,
2025-08-14T22:31:57.602Z,1,GR86-016-55,-1.4,-0.068,0.034,4.39,1.0,,1.89,2.135,
2025-08-14T22:31:57.645Z,1,GR86-016-55,-1.3,-0.068,0.03,4.39,1.0,,1.8,2.215,
2025-08-14T22:31:57.688Z,1,GR86-016-55,-1.3,-0.065,0.023,4.37,1.0,1141.0,0.0,2.135,
2025-08-14T22:31:57.731Z,1,GR86-016-55,-1.3,-0.061,0.02,4.37,1.0,,1.86,1.925,8.94
2025-08-14T22:31:57.775Z,1,GR86-016-55,-1.3,-0.061,0.014,4.3100000000000005,1.0,,0.0,1.985,
2025-08-14T22:31:57.818Z,1,GR86-016-55,-1.3,-0.065,0.021,4.28,1.0,,0.0,2.015,
2025-08-14T22:31:57.862Z,1,GR86-016-55,-1.3,-0.065,0.017,4.23,1.0,,1.955,2.275,
2025-08-14T22:31:57.905Z,1,GR86-016-55,-1.3,-0.065,0.014,4.21,1.0,1124.0,2.075,2.275,
2025-08-14T22:31:57.948Z,1,GR86-016-55,-1.3,-0.067,0.023,4.2,1.0,,2.58,2.795,8.51
2025-08-14T22:31:57.991Z,1,GR86-016-55,-1.3,-0.087,0.02,4.17,1.0,,3.495,3.585,
2025-08-14T22:31:58.034Z,1,GR86-016-55,-1.3,-0.102,0.029,4.18,1.0,,4.44,4.365,
2025-08-14T22:31:58.077Z,1,GR86-016-55,-1.5,-0.122,0.03,4.18,1.0,,5.28,5.22,
2025-08-14T22:31:58.122Z,1,GR86-016-55,-2.3000000000000003,-0.142,0.023,4.17,1.0,1128.0,6.2700000000000005,6.15,
2025-08-14T22:31:58.165Z,1,GR86-016-55,-2.9000000000000004,-0.144,0.014,4.17,1.0,,6.2700000000000005,6.335,8.1
2025-08-14T22:31:58.208Z,1,GR86-016-55,-2.9000000000000004,-0.143,0.006,4.17,1.0,,6.2700000000000005,6.0600000000000005,
2025-08-14T22:31:58.251Z,1,GR86-016-55,-2.9000000000000004,-0.142,0.013,4.17,1.0,,5.965,5.995,
2025-08-14T22:31:58.294Z,1,GR86-016-55,-2.9000000000000004,-0.14,0.016,4.17,1.0,,5.905,5.705,
2025-08-14T22:31:58.337Z,1,GR86-016-55,-2.9000000000000004,-0.13,0.022,4.17,1.0,1119.0,4.835,5.08,
2025-08-14T22:31:58.380Z,1,GR86-016-55,-2.9000000000000004,-0.084,0.026,4.17,1.0,,2.485,3.19,7.5
2025-08-14T22:31:58.423Z,1,GR86-016-55,-2.9000000000000004,-0.07,0.034,4.17,1.0,,2.015,2.485,
2025-08-14T22:31:58.467Z,1,GR86-016-55,-2.9000000000000004,-0.064,0.036,4.18,1.0,,0.0,2.335,
2025-08-14T22:31:58.510Z,1,GR86-016-55,-1.4,-0.068,0.023,4.17,1.0,,0.0,2.215,
2025-08-14T22:31:58.553Z,1,GR86-016-55,0.1,-0.072,0.016,4.17,1.0,1114.0,1.86,2.485,
2025-08-14T22:31:58.596Z,1,GR86-016-55,0.9,-0.076,0.019,4.17,1.0,,2.4250000000000003,2.825,6.65
2025-08-14T22:31:58.639Z,1,GR86-016-55,0.9,-0.085,0.012,4.17,1.0,,3.22,3.555,
2025-08-14T22:31:58.682Z,1,GR86-016-55,0.9,-0.113,0.03,4.17,1.0,,4.835,4.87,
2025-08-14T22:31:58.725Z,1,GR86-016-55,0.7000000000000001,-0.13,0.021,4.18,1.0,,5.585,5.6450000000000005,
2025-08-14T22:31:58.768Z,1,GR86-016-55,0.2,-0.138,0.031,4.17,1.0,1101.0,5.9350000000000005,5.995,
2025-08-14T22:31:58.811Z,1,GR86-016-55,-0.1,-0.137,0.02,4.17,1.0,,6.2700000000000005,5.995,5.94
2025-08-14T22:31:58.854Z,1,GR86-016-55,-0.1,-0.139,0.02,4.17,1.0,,6.15,6.12,
2025-08-14T22:31:58.897Z,1,GR86-016-55,-0.1,-0.137,0.018,4.17,1.0,,5.9350000000000005,5.995,
2025-08-14T22:31:58.940Z,1,GR86-016-55,-0.1,-0.13,0.02,4.17,1.0,,5.9350000000000005,5.965,
2025-08-14T22:31:58.984Z,1,GR86-016-55,-0.1,-0.132,0.028,4.17,1.0,1096.0,5.9350000000000005,5.74,
2025-08-14T22:31:59.027Z,1,GR86-016-55,-0.1,-0.13,0.03,4.17,1.0,,5.9350000000000005,5.8,4.5600000000000005
2025-08-14T22:31:59.070Z,1,GR86-016-55,-0.1,-0.131,0.023,4.17,1.0,,5.585,5.86,
2025-08-14T22:31:59.113Z,1,GR86-016-55,-0.2,-0.126,0.023,4.17,1.0,,4.87,5.3100000000000005,
2025-08-14T22:31:59.156Z,1,GR86-016-55,-0.2,-0.109,0.02,4.18,1.0,,4.15,4.655,
2025-08-14T22:31:59.199Z,1,GR86-016-55,-0.4,-0.097,0.018,4.18,1.0,1104.0,3.645,4.335,
2025-08-14T22:31:59.242Z,1,GR86-016-55,-1.0,-0.093,0.021,4.17,1.0,,3.495,3.935,3.68
2025-08-14T22:31:59.285Z,1,GR86-016-55,-1.4,-0.095,0.019,4.18,1.0,,3.495,3.905,
2025-08-14T22:31:59.328Z,1,GR86-016-55,-1.8,-0.091,0.028,4.17,1.0,,3.405,3.905,
2025-08-14T22:31:59.371Z,1,GR86-016-55,-1.9,-0.092,0.024,4.17,1.0,,3.19,3.905,
2025-08-14T22:31:59.414Z,1,GR86-016-55,-1.9,-0.087,0.023,4.18,1.0,1101.0,3.25,3.785,
2025-08-14T22:31:59.457Z,1,GR86-016-55,-1.9,-0.088,0.031,4.17,1.0,,2.855,3.555,2.95
2025-08-14T22:31:59.500Z,1,GR86-016-55,-1.9,-0.081,0.018,4.14,1.0,,2.64,3.19,
2025-08-14T22:31:59.543Z,1,GR86-016-55,-1.9,-0.079,0.023,4.14,1.0,,2.73,3.19,
2025-08-14T22:31:59.587Z,1,GR86-016-55,-1.9,-0.078,0.015,4.14,1.0,,2.485,3.1,
2025-08-14T22:31:59.632Z,1,GR86-016-55,-1.9,-0.081,0.022,4.12,1.0,1100.0,2.52,2.915,
2025-08-14T22:31:59.675Z,1,GR86-016-55,-1.9,-0.079,0.024,4.11,1.0,,2.76,3.13,2.35
2025-08-14T22:31:59.718Z,1,GR86-016-55,-1.9,-0.08,0.024,4.11,1.0,,2.67,2.915,
2025-08-14T22:31:59.761Z,1,GR86-016-55,-1.9,-0.083,0.025,4.07,1.0,,2.76,2.855,
2025-08-14T22:31:59.804Z,1,GR86-016-55,-1.9,-0.081,0.022,4.07,1.0,,2.76,3.16,
2025-08-14T22:31:59.847Z,1,GR86-016-55,-1.9,-0.083,0.016,4.07,1.0,1087.0,2.73,3.065,
2025-08-14T22:31:59.890Z,1,GR86-016-55,-1.9,-0.082,0.023,4.07,1.0,,2.795,2.975,1.84
2025-08-14T22:31:59.933Z,1,GR86-016-55,-1.9,-0.083,0.016,4.07,1.0,,2.76,3.19,
2025-08-14T22:31:59.976Z,1,GR86-016-55,-1.9,-0.084,0.024,4.05,1.0,,2.76,3.1,
2025-08-14T22:32:00.019Z,1,GR86-016-55,-1.9,-0.083,0.026,4.05,1.0,,2.795,3.035,
2025-08-14T22:32:00.062Z,1,GR86-016-55,-1.9,-0.084,0.023,4.05,1.0,1095.0,2.76,3.16,
2025-08-14T22:32:00.105Z,1,GR86-016-55,-1.9,-0.084,0.028,4.05,1.0,,2.76,3.13,1.36
2025-08-14T22:32:00.148Z,1,GR86-016-55,-1.9,-0.082,0.014,4.04,1.0,,2.76,3.13,
2025-08-14T22:32:00.191Z,1,GR86-016-55,-1.9,-0.082,0.022,4.05,1.0,,2.76,3.13,
2025-08-14T22:32:00.234Z,1,GR86-016-55,-1.9,-0.079,0.02,4.04,1.0,,2.73,3.005,
2025-08-14T22:32:00.277Z,1,GR86-016-55,-1.9,-0.076,0.018,4.05,1.0,1090.0,2.76,3.1,
2025-08-14T22:32:00.322Z,1,GR86-016-55,-1.9,-0.037,0.022,4.05,1.0,,2.455,2.855,0.94
2025-08-14T22:32:00.365Z,1,GR86-016-55,-1.9,-0.002,0.023,4.04,1.0,,2.335,2.7,
2025-08-14T22:32:00.408Z,1,GR86-016-55,-1.9,0.002,0.019,4.05,1.0,,0.0,0.0,
2025-08-14T22:32:00.451Z,1,GR86-016-55,-1.9,0.003,0.026,4.05,1.0,,0.0,0.0,
2025-08-14T22:32:00.537Z,1,GR86-016-55,-1.9,0.003,0.016,4.05,1.0,1088.0,0.0,0.0,0.06
2025-08-14T22:32:00.580Z,1,GR86-016-55,-1.9,0.011,0.019,4.05,1.0,,0.0,0.0,
2025-08-14T22:32:00.623Z,1,GR86-016-55,-1.9,0.008,0.018,4.04,1.0,,0.0,0.0,
2025-08-14T22:32:00.667Z,1,GR86-016-55,-1.9,0.006,0.023,4.04,1.0,,0.0,0.0,
2025-08-14T22:32:00.710Z,1,GR86-016-55,-1.9,0.0,0.017,4.05,1.0,1081.0,0.0,0.0,
2025-08-14T22:32:00.753Z,1,GR86-016-55,-1.9,-0.002,0.025,4.05,1.0,,0.0,0.0,0.0
2025-08-14T22:32:00.796Z,1,GR86-016-55,-1.9,-0.001,0.025,4.04,1.0,,0.0,0.0,
2025-08-14T22:32:00.839Z,1,GR86-016-55,-1.9,-0.004,0.019,4.05,0.0,,0.0,0.0,
2025-08-14T22:32:00.882Z,1,GR86-016-55,-1.9,-0.003,0.025,4.05,0.0,,0.0,0.0,
2025-08-14T22:32:00.925Z,1,GR86-016-55,-1.9,-0.005,0.016,4.05,0.0,1079.0,0.0,0.0,
2025-08-14T22:32:00.968Z,1,GR86-016-55,-1.9,-0.003,0.023,4.05,0.0,,0.0,0.0,0.0
2025-08-14T22:32:01.011Z,1,GR86-016-55,-1.9,-0.006,0.015,4.05,0.0,,0.0,0.0,
2025-08-14T22:32:01.055Z,1,GR86-016-55,-1.9,-0.007,0.02,4.04,0.0,,0.0,0.0,
2025-08-14T22:32:01.098Z,1,GR86-016-55,-1.9,-0.009,0.021,4.04,0.0,,0.0,0.0,
2025-08-14T22:32:01.141Z,1,GR86-016-55,-1.9,-0.016,0.022,4.04,0.0,1076.0,0.0,0.0,
2025-08-14T22:32:01.184Z,1,GR86-016-55,-1.9,-0.012,0.022,4.05,0.0,,0.0,0.0,0.0
2025-08-14T22:32:01.227Z,1,GR86-016-55,-1.9,-0.012,0.022,4.04,0.0,,0.0,0.0,
2025-08-14T22:32:01.270Z,1,GR86-016-55,-1.9,-0.011,0.017,4.05,0.0,,0.0,0.0,
2025-08-14T22:32:01.313Z,1,GR86-016-55,-1.9,0.0,0.023,4.04,0.0,,0.0,0.0,
2025-08-14T22:32:01.356Z,1,GR86-016-55,-1.9,-0.001,0.019,4.04,0.0,1078.0,0.0,0.0,
2025-08-14T22:32:01.399Z,1,GR86-016-55,-1.9,-0.007,0.026,4.04,0.0,,0.0,0.0,0.0
2025-08-14T22:32:01.442Z,1,GR86-016-55,-1.9,-0.002,0.025,4.04,0.0,,0.0,0.0,
2025-08-14T22:32:01.485Z,1,GR86-016-55,-1.9,-0.002,0.017,4.05,0.0,,0.0,0.0,
2025-08-14T22:32:01.528Z,1,GR86-016-55,-1.9,-0.005,0.02,4.04,0.0,,0.0,0.0,
2025-08-14T22:32:01.571Z,1,GR86-016-55,-1.9,-0.01,0.023,4.05,0.0,1076.0,0.0,0.0,
2025-08-14T22:32:01.614Z,1,GR86-016-55,-1.9,-0.009,0.022,4.05,0.0,,0.0,0.0,0.0
2025-08-14T22:32:01.657Z,1,GR86-016-55,-1.9,-0.004,0.026,4.05,0.0,,0.0,0.0,
2025-08-14T22:32:01.700Z,1,GR86-016-55,-1.9,-0.005,0.017,4.0600000000000005,0.0,,0.0,0.0,
2025-08-14T22:32:01.743Z,1,GR86-016-55,-1.9,-0.001,0.022,4.05,0.0,,0.0,0.0,
2025-08-14T22:32:01.787Z,1,GR86-016-55,-1.9,-0.004,0.019,4.0600000000000005,0.0,1077.0,0.0,0.0,
2025-08-14T22:32:01.830Z,1,GR86-016-55,-1.9,-0.004,0.017,4.07,0.0,,0.0,0.0,0.0
2025-08-14T22:32:01.873Z,1,GR86-016-55,-1.9,-0.003,0.025,4.07,0.0,,0.0,0.0,
2025-08-14T22:32:01.916Z,1,GR86-016-55,-1.9,-0.006,0.023,4.07,0.0,,0.0,0.0,
2025-08-14T22:32:01.960Z,1,GR86-016-55,-1.9,-0.005,0.021,4.08,0.0,,0.0,0.0,
2025-08-14T22:32:02.003Z,1,GR86-016-55,-1.9,-0.007,0.025,4.07,0.0,1078.0,0.0,0.0,
2025-08-14T22:32:02.046Z,1,GR86-016-55,-1.9,-0.005,0.012,4.07,0.0,,0.0,0.0,0.0
2025-08-14T22:32:02.090Z,1,GR86-016-55,-1.9,-0.006,0.025,4.07,0.0,,0.0,0.0,
2025-08-14T22:32:02.133Z,1,GR86-016-55,-1.9,-0.003,0.016,4.07,0.0,,0.0,0.0,
2025-08-14T22:32:02.176Z,1,GR86-016-55,-1.9,-0.005,0.021,4.07,0.0,,0.0,0.0,
2025-08-14T22:32:02.219Z,1,GR86-016-55,-1.9,-0.006,0.023,4.07,0.0,1077.0,0.0,0.0,
2025-08-14T22:32:02.262Z,1,GR86-016-55,-1.9,-0.005,0.022,4.08,0.0,,0.0,0.0,0.0
2025-08-14T22:32:02.305Z,1,GR86-016-55,-1.9,-0.006,0.022,4.07,0.0,,0.0,0.0,
2025-08-14T22:32:02.348Z,1,GR86-016-55,-1.9,-0.003,0.021,4.08,0.0,,0.0,0.0,
2025-08-14T22:32:02.391Z,1,GR86-016-55,-1.9,-0.005,0.022,4.11,0.0,,0.0,0.0,
2025-08-14T22:32:02.434Z,1,GR86-016-55,-1.9,-0.005,0.017,4.11,0.0,1024.0,0.0,0.0,
2025-08-14T22:32:02.477Z,1,GR86-016-55,-1.9,-0.005,0.025,4.11,0.0,,0.0,0.0,0.0
2025-08-14T22:32:02.521Z,1,GR86-016-55,-1.9,-0.008,0.023,4.11,0.0,,0.0,0.0,
2025-08-14T22:32:02.565Z,1,GR86-016-55,-1.9,-0.005,0.025,4.11,0.0,,0.0,0.0,
2025-08-14T22:32:02.608Z,1,GR86-016-55,-1.9,-0.004,0.022,4.11,0.0,,0.0,0.0,
2025-08-14T22:32:02.651Z,1,GR86-016-55,-1.9,-0.003,0.018,4.14,0.0,1051.0,0.0,0.0,
2025-08-14T22:32:02.694Z,1,GR86-016-55,-1.9,-0.005,0.023,4.17,0.0,,0.0,0.0,0.0
2025-08-14T22:32:02.737Z,1,GR86-016-55,-1.9,-0.008,0.016,4.17,0.0,,0.0,0.0,
2025-08-14T22:32:02.780Z,1,GR86-016-55,-1.9,-0.007,0.024,4.2,0.0,,0.0,0.0,
2025-08-14T22:32:02.825Z,1,GR86-016-55,-1.9,-0.003,0.018,4.21,0.0,,0.0,0.0,
2025-08-14T22:32:02.868Z,1,GR86-016-55,-1.9,-0.004,0.027,4.2,0.0,1063.0,0.0,0.0,
2025-08-14T22:32:02.911Z,1,GR86-016-55,-1.9,-0.007,0.024,4.23,0.0,,0.0,0.0,0.0
2025-08-14T22:32:02.954Z,1,GR86-016-55,-1.9,-0.007,0.02,4.23,0.0,,0.0,0.0,
2025-08-14T22:32:02.997Z,1,GR86-016-55,-1.9,-0.005,0.021,4.23,0.0,,0.0,0.0,
2025-08-14T22:32:03.040Z,1,GR86-016-55,-1.9,-0.003,0.015,4.24,0.0,,0.0,0.0,
2025-08-14T22:32:03.084Z,1,GR86-016-55,-1.9,-0.001,0.017,4.24,0.0,1070.0,0.0,0.0,
2025-08-14T22:32:03.127Z,1,GR86-016-55,-1.9,-0.004,0.03,4.23,0.0,,0.0,0.0,0.0
2025-08-14T22:32:03.170Z,1,GR86-016-55,-1.9,-0.004,0.017,4.23,0.0,,0.0,0.0,
2025-08-14T22:32:03.213Z,1,GR86-016-55,-1.9,-0.005,0.026,4.23,0.0,,0.0,0.0,
2025-08-14T22:32:03.256Z,1,GR86-016-55,-1.9,-0.009,0.024,4.2700000000000005,0.0,,0.0,0.0,
2025-08-14T22:32:03.299Z,1,GR86-016-55,-1.9,-0.005,0.017,4.2700000000000005,0.0,1076.0,0.0,0.0,
2025-08-14T22:32:03.342Z,1,GR86-016-55,-1.9,-0.007,0.023,4.2700000000000005,0.0,,0.0,0.0,0.0
2025-08-14T22:32:03.385Z,1,GR86-016-55,-1.9,-0.003,0.015,4.2700000000000005,0.0,,0.0,0.0,
2025-08-14T22:32:03.428Z,1,GR86-016-55,-1.9,-0.001,0.019,4.2700000000000005,0.0,,0.0,0.0,
2025-08-14T22:32:03.471Z,1,GR86-016-55,-1.9,-0.003,0.022,4.2700000000000005,0.0,,0.0,0.0,
2025-08-14T22:32:03.514Z,1,GR86-016-55,-1.9,-0.007,0.022,4.2700000000000005,0.0,1072.0,0.0,0.0,
2025-08-14T22:32:03.557Z,1,GR86-016-55,-1.9,-0.006,0.022,4.2700000000000005,0.0,,0.0,0.0,0.0
2025-08-14T22:32:03.600Z,1,GR86-016-55,-1.9,-0.007,0.023,4.2700000000000005,0.0,,0.0,0.0,
2025-08-14T22:32:03.643Z,1,GR86-016-55,-1.9,-0.006,0.016,4.2700000000000005,0.0,,0.0,0.0,
2025-08-14T22:32:03.687Z,1,GR86-016-55,-1.9,-0.003,0.025,4.2700000000000005,0.0,,0.0,0.0,
2025-08-14T22:32:03.730Z,1,GR86-016-55,-1.9,-0.001,0.017,4.2700000000000005,0.0,1073.0,0.0,0.0,
2025-08-14T22:32:03.773Z,1,GR86-016-55,-1.9,-0.002,0.019,4.2700000000000005,0.0,,0.0,0.0,0.0
2025-08-14T22:32:03.816Z,1,GR86-016-55,-1.9,-0.004,0.024,4.2700000000000005,0.0,,0.0,0.0,
2025-08-14T22:32:03.859Z,1,GR86-016-55,-1.9,-0.01,0.017,4.2700000000000005,0.0,,0.0,0.0,
2025-08-14T22:32:03.902Z,1,GR86-016-55,-1.9,-0.008,0.024,4.2700000000000005,0.0,,0.0,0.0,
2025-08-14T22:32:03.945Z,1,GR86-016-55,-1.9,-0.005,0.013,4.2700000000000005,0.0,1073.0,0.0,0.0,
2025-08-14T22:32:03.988Z,1,GR86-016-55,-1.9,-0.002,0.024,4.2700000000000005,0.0,,0.0,0.0,0.0
2025-08-14T22:32:04.031Z,1,GR86-016-55,-1.9,-0.001,0.019,4.2700000000000005,0.0,,0.0,0.0,
2025-08-14T22:32:04.074Z,1,GR86-016-55,-1.9,-0.004,0.022,4.2700000000000005,0.0,,0.0,0.0,
2025-08-14T22:32:04.118Z,1,GR86-016-55,-1.9,-0.003,0.021,4.2700000000000005,0.0,,0.0,0.0,
2025-08-14T22:32:04.162Z,1,GR86-016-55,-1.9,-0.008,0.016,4.28,0.0,1076.0,0.0,0.0,
2025-08-14T22:32:04.205Z,1,GR86-016-55,-1.9,-0.006,0.019,4.2700000000000005,0.0,,0.0,0.0,0.0
2025-08-14T22:32:04.248Z,1,GR86-016-55,-1.9,-0.006,0.022,4.2700000000000005,0.0,,0.0,0.0,
2025-08-14T22:32:04.291Z,1,GR86-016-55,-1.9,-0.004,0.02,4.2700000000000005,0.0,,0.0,0.0,
2025-08-14T22:32:04.334Z,1,GR86-016-55,-1.9,-0.004,0.019,4.2700000000000005,0.0,,0.0,0.0,
2025-08-14T22:32:04.377Z,1,GR86-016-55,-1.9,-0.004,0.023,4.2700000000000005,0.0,1079.0,0.0,0.0,
2025-08-14T22:32:04.422Z,1,GR86-016-55,-1.9,-0.005,0.021,4.2700000000000005,0.0,,0.0,0.0,0.0
2025-08-14T22:32:04.465Z,1,GR86-016-55,-1.9,-0.009,0.02,4.2700000000000005,0.0,,0.0,0.0,
2025-08-14T22:32:04.508Z,1,GR86-016-55,-1.9,-0.006,0.024,4.2700000000000005,0.0,,0.0,0.0,
2025-08-14T22:32:04.551Z,1,GR86-016-55,-1.9,-0.003,0.019,4.2700000000000005,0.0,,0.0,0.0,
2025-08-14T22:32:04.594Z,1,GR86-016-55,-1.9,-0.006,0.023,4.2700000000000005,0.0,1071.0,0.0,0.0,
2025-08-14T22:32:04.637Z,1,GR86-016-55,-1.9,-0.005,0.014,4.2700000000000005,0.0,,0.0,0.0,0.0
2025-08-14T22:32:04.680Z,1,GR86-016-55,-1.9,-0.006,0.025,4.2700000000000005,0.0,,0.0,0.0,
2025-08-14T22:32:04.723Z,1,GR86-016-55,-1.9,-0.006,0.016,4.2700000000000005,0.0,,0.0,0.0,
2025-08-14T22:32:04.767Z,1,GR86-016-55,-1.9,-0.003,0.022,4.2700000000000005,0.0,,0.0,0.0,
2025-08-14T22:32:04.810Z,1,GR86-016-55,-1.9,-0.007,0.025,4.2700000000000005,0.0,1085.0,0.0,0.0,
2025-08-14T22:32:04.853Z,1,GR86-016-55,-1.9,-0.007,0.02,4.2700000000000005,0.0,,0.0,0.0,0.0
2025-08-14T22:32:04.896Z,1,GR86-016-55,-1.9,-0.003,0.023,4.2700000000000005,0.0,,0.0,0.0,
2025-08-14T22:32:04.939Z,1,GR86-016-55,-1.9,-0.005,0.019,4.2700000000000005,0.0,,0.0,0.0,
2025-08-14T22:32:04.982Z,1,GR86-016-55,-1.9,-0.002,0.019,4.2700000000000005,0.0,,0.0,0.0,
2025-08-14T22:32:05.025Z,1,GR86-016-55,-1.9,-0.004,0.021,4.2700000000000005,0.0,1068.0,0.0,0.0,
2025-08-14T22:32:05.068Z,1,GR86-016-55,-1.9,-0.006,0.021,4.28,0.0,,0.0,0.0,0.0
2025-08-14T22:32:05.111Z,1,GR86-016-55,-1.9,-0.005,0.021,4.29,0.0,,0.0,0.0,
2025-08-14T22:32:05.154Z,1,GR86-016-55,-1.9,-0.005,0.024,4.3100000000000005,0.0,,0.0,0.0,
2025-08-14T22:32:05.197Z,1,GR86-016-55,-1.9,-0.007,0.017,4.3100000000000005,0.0,,0.0,0.0,
2025-08-14T22:32:05.240Z,1,GR86-016-55,-1.9,-0.007,0.023,4.3,0.0,1066.0,0.0,0.0,
2025-08-14T22:32:05.283Z,1,GR86-016-55,-1.9,-0.002,0.018,4.3,0.0,,0.0,0.0,0.0
2025-08-14T22:32:05.326Z,1,GR86-016-55,-1.9,-0.004,0.023,4.3,0.0,,0.0,0.0,
2025-08-14T22:32:05.369Z,1,GR86-016-55,-1.9,-0.005,0.022,4.3100000000000005,0.0,,0.0,0.0,
2025-08-14T22:32:05.412Z,1,GR86-016-55,-1.9,-0.006,0.018,4.3,0.0,,0.0,0.0,
2025-08-14T22:32:05.455Z,1,GR86-016-55,-1.9,-0.005,0.02,4.3,0.0,1082.0,0.0,0.0,
2025-08-14T22:32:05.498Z,1,GR86-016-55,-1.9,-0.002,0.024,4.3100000000000005,0.0,,0.0,0.0,0.0
2025-08-14T22:32:05.541Z,1,GR86-016-55,-1.9,-0.004,0.022,4.3,0.0,,0.0,0.0,
2025-08-14T22:32:05.584Z,1,GR86-016-55,-1.9,-0.004,0.023,4.41,0.0,,0.0,0.0,
2025-08-14T22:32:05.627Z,1,GR86-016-55,-1.9,-0.006,0.018,6.32,0.0,,0.0,0.0,
2025-08-14T22:32:05.670Z,1,GR86-016-55,-1.9,-0.003,0.021,7.69,0.0,1082.0,0.0,0.0,
2025-08-14T22:32:05.713Z,1,GR86-016-55,-1.9,-0.001,0.025,7.71,0.0,,0.0,0.0,0.0
2025-08-14T22:32:05.756Z,1,GR86-016-55,-1.9,-0.006,0.007,7.7,0.0,,0.0,0.0,
2025-08-14T22:32:05.799Z,1,GR86-016-55,-1.9,-0.006,0.031,7.7,0.0,,0.0,0.0,
2025-08-14T22:32:05.842Z,1,GR86-016-55,-1.9,-0.004,0.026,7.7,0.0,,0.0,0.0,
2025-08-14T22:32:05.885Z,1,GR86-016-55,-1.9,-0.005,0.023,7.7,0.0,887.0,0.0,0.0,
2025-08-14T22:32:05.928Z,1,GR86-016-55,-1.9,-0.005,0.021,7.7,0.0,,0.0,0.0,0.0
2025-08-14T22:32:05.971Z,1,GR86-016-55,-1.9,-0.003,0.017,7.7,0.0,,0.0,0.0,
2025-08-14T22:32:06.014Z,1,GR86-016-55,-1.9,-0.003,0.016,7.7,0.0,,0.0,0.0,
2025-08-14T22:32:06.057Z,1,GR86-016-55,-1.9,-0.008,0.016,7.72,0.0,,0.0,0.0,
2025-08-14T22:32:06.100Z,1,GR86-016-55,-1.9,-0.007,0.027,7.7,0.0,594.0,0.0,0.0,
2025-08-14T22:32:06.143Z,1,GR86-016-55,-1.9,-0.002,0.022,7.7,0.0,,0.0,0.0,0.0
2025-08-14T22:32:06.187Z,1,GR86-016-55,-1.9,-0.006,0.03,7.7,0.0,,0.0,0.0,
2025-08-14T22:32:06.230Z,1,GR86-016-55,-1.9,-0.01,0.008,7.68,0.0,,0.0,0.0,
2025-08-14T22:32:06.275Z,1,GR86-016-55,-1.9,-0.007,0.041,7.68,0.0,,0.0,0.0,
2025-08-14T22:32:06.318Z,1,GR86-016-55,-1.9,-0.003,-0.031,7.67,0.0,429.0,0.0,0.0,
2025-08-14T22:32:06.361Z,1,GR86-016-55,-1.9,-0.001,0.038,7.7,0.0,,0.0,0.0,0.0
2025-08-14T22:32:06.404Z,1,GR86-016-55,-1.9,-0.003,-0.056,7.7,0.0,,0.0,0.0,
2025-08-14T22:32:06.447Z,1,GR86-016-55,-1.9,-0.004,0.116,7.7,0.0,,0.0,0.0,
2025-08-14T22:32:06.490Z,1,GR86-016-55,-1.9,-0.001,-0.021,7.72,0.0,,0.0,0.0,
2025-08-14T22:32:06.533Z,1,GR86-016-55,-1.9,-0.009,0.034,7.76,0.0,340.0,0.0,0.0,
2025-08-14T22:32:06.576Z,1,GR86-016-55,-1.9,-0.001,0.001,7.76,0.0,,0.0,0.0,0.0
2025-08-14T22:32:06.619Z,1,GR86-016-55,-1.9,-0.008,0.012,7.73,0.0,,0.0,0.0,
2025-08-14T22:32:06.662Z,1,GR86-016-55,-1.9,-0.01,0.012,7.72,0.0,,0.0,0.0,
2025-08-14T22:32:06.705Z,1,GR86-016-55,-1.9,-0.003,0.048,7.72,0.0,,0.0,0.0,
2025-08-14T22:32:06.748Z,1,GR86-016-55,-1.9,-0.005,0.021,7.73,0.0,245.0,0.0,0.0,
2025-08-14T22:32:06.791Z,1,GR86-016-55,-1.9,-0.001,0.028,7.73,0.0,,0.0,0.0,0.0
2025-08-14T22:32:06.834Z,1,GR86-016-55,-1.9,-0.005,0.01,7.72,0.0,,0.0,0.0,
2025-08-14T22:32:06.877Z,1,GR86-016-55,-1.9,-0.004,0.01,7.73,0.0,,0.0,0.0,
2025-08-14T22:32:06.921Z,1,GR86-016-55,-1.9,-0.006,0.019,7.73,0.0,,0.0,0.0,
2025-08-14T22:32:06.965Z,1,GR86-016-55,-1.9,-0.007,0.027,7.73,0.0,245.0,0.0,0.0,
2025-08-14T22:32:07.008Z,1,GR86-016-55,-1.9,-0.004,0.037,7.72,0.0,,0.0,0.0,0.0
2025-08-14T22:32:07.051Z,1,GR86-016-55,-1.9,-0.005,0.024,7.73,0.0,,0.0,0.0,
2025-08-14T22:32:07.094Z,1,GR86-016-55,-1.9,-0.006,0.023,7.73,0.0,,0.0,0.0,
2025-08-14T22:32:07.137Z,1,GR86-016-55,-1.9,-0.003,0.011,7.72,0.0,,0.0,0.0,
2025-08-14T22:32:07.180Z,1,GR86-016-55,-1.9,-0.002,0.016,7.73,0.0,0.0,0.0,0.0,
2025-08-14T22:32:07.223Z,1,GR86-016-55,-1.9,-0.006,0.017,7.72,0.0,,0.0,0.0,0.0
2025-08-14T22:32:07.267Z,1,GR86-016-55,-1.9,-0.004,0.027,7.73,0.0,,0.0,0.0,
2025-08-14T22:32:07.310Z,1,GR86-016-55,-1.9,-0.006,0.029,7.72,0.0,,0.0,0.0,
2025-08-14T22:32:07.354Z,1,GR86-016-55,-1.9,-0.006,0.023,7.73,0.0,,0.0,0.0,
2025-08-14T22:32:07.397Z,1,GR86-016-55,-1.9,-0.006,0.021,7.72,0.0,0.0,0.0,0.0,
2025-08-14T22:32:07.440Z,1,GR86-016-55,-1.9,-0.005,0.01,7.72,0.0,,0.0,0.0,0.0
2025-08-14T22:32:07.483Z,1,GR86-016-55,-1.9,-0.006,0.009,7.72,0.0,,0.0,0.0,
2025-08-14T22:32:07.526Z,1,GR86-016-55,-1.9,-0.005,0.026,7.72,0.0,,0.0,0.0,
2025-08-14T22:32:07.569Z,1,GR86-016-55,-1.9,-0.007,0.032,7.73,0.0,,0.0,0.0,
2025-08-14T22:32:07.612Z,1,GR86-016-55,-1.9,-0.006,0.025,7.73,0.0,0.0,0.0,0.0,
2025-08-14T22:32:07.655Z,1,GR86-016-55,-1.9,-0.004,0.024,7.72,0.0,,0.0,0.0,0.0
2025-08-14T22:32:07.698Z,1,GR86-016-55,-1.9,-0.004,0.016,7.72,0.0,,0.0,0.0,
2025-08-14T22:32:07.741Z,1,GR86-016-55,-1.9,-0.005,0.014,7.73,0.0,,0.0,0.0,
2025-08-14T22:32:07.784Z,1,GR86-016-55,-1.9,-0.008,0.017,7.73,0.0,,0.0,0.0,
2025-08-14T22:32:07.827Z,1,GR86-016-55,-1.9,0.0,0.026,7.73,0.0,0.0,0.0,0.0,
2025-08-14T22:32:07.870Z,1,GR86-016-55,-1.9,-0.007,0.029,7.72,0.0,,0.0,0.0,0.0
2025-08-14T22:32:07.913Z,1,GR86-016-55,-1.9,-0.008,0.026,7.73,0.0,,0.0,0.0,
2025-08-14T22:32:07.956Z,1,GR86-016-55,-1.9,-0.003,0.013,7.73,0.0,,0.0,0.0,
2025-08-14T22:32:07.999Z,1,GR86-016-55,-1.9,-0.003,0.015,7.73,0.0,,0.0,0.0,
2025-08-14T22:32:08.042Z,1,GR86-016-55,-1.9,-0.006,0.022,7.72,0.0,0.0,0.0,0.0,
2025-08-14T22:32:08.085Z,1,GR86-016-55,-1.9,-0.005,0.028,7.73,0.0,,0.0,0.0,0.0
2025-08-14T22:32:08.128Z,1,GR86-016-55,-1.9,-0.004,0.026,7.72,0.0,,0.0,0.0,
2025-08-14T22:32:08.171Z,1,GR86-016-55,-1.9,-0.005,0.025,7.73,0.0,,0.0,0.0,
2025-08-14T22:32:08.214Z,1,GR86-016-55,-1.9,-0.006,0.016,7.72,0.0,,0.0,0.0,
2025-08-14T22:32:08.257Z,1,GR86-016-55,-1.9,-0.005,0.013,7.73,0.0,0.0,0.0,0.0,
2025-08-14T22:32:08.300Z,1,GR86-016-55,-1.9,-0.006,0.021,7.73,0.0,,0.0,0.0,0.0
2025-08-14T22:32:08.343Z,1,GR86-016-55,-1.9,-0.007,0.025,7.73,0.0,,0.0,0.0,
2025-08-14T22:32:08.387Z,1,GR86-016-55,-1.9,-0.004,0.025,7.72,0.0,,0.0,0.0,
2025-08-14T22:32:08.430Z,1,GR86-016-55,-1.9,-0.006,0.023,7.72,0.0,,0.0,0.0,
2025-08-14T22:32:08.473Z,1,GR86-016-55,-1.9,-0.006,0.019,7.72,0.0,0.0,0.0,0.0,
2025-08-14T22:32:08.516Z,1,GR86-016-55,-1.9,-0.004,0.012,7.73,0.0,,0.0,0.0,0.0
2025-08-14T22:32:08.560Z,1,GR86-016-55,-1.9,-0.007,0.02,7.73,0.0,,0.0,0.0,
2025-08-14T22:32:08.604Z,1,GR86-016-55,-1.9,-0.005,0.025,7.72,0.0,,0.0,0.0,
2025-08-14T22:32:08.647Z,1,GR86-016-55,-1.9,-0.001,0.026,7.72,0.0,,0.0,0.0,
2025-08-14T22:32:08.690Z,1,GR86-016-55,-1.9,-0.003,0.027,7.72,0.0,0.0,0.0,0.0,
2025-08-14T22:32:08.733Z,1,GR86-016-55,-1.9,-0.005,0.022,7.73,0.0,,0.0,0.0,0.0
2025-08-14T22:32:08.776Z,1,GR86-016-55,-1.9,-0.009,0.016,7.73,0.0,,0.0,0.0,
2025-08-14T22:32:08.819Z,1,GR86-016-55,-1.9,-0.006,0.018,7.73,0.0,,0.0,0.0,
2025-08-14T22:32:08.862Z,1,GR86-016-55,-1.9,-0.001,0.017,7.72,0.0,,0.0,0.0,
2025-08-14T22:32:08.905Z,1,GR86-016-55,-1.9,-0.001,0.022,7.72,0.0,0.0,0.0,0.0,
2025-08-14T22:32:08.948Z,1,GR86-016-55,-1.9,-0.006,0.026,7.72,0.0,,0.0,0.0,0.0
2025-08-14T22:32:08.991Z,1,GR86-016-55,-1.9,-0.007,0.023,7.73,0.0,,0.0,0.0,
2025-08-14T22:32:09.034Z,1,GR86-016-55,-1.9,-0.005,0.018,7.72,0.0,,0.0,0.0,
2025-08-14T22:32:09.077Z,1,GR86-016-55,-1.9,-0.002,0.016,7.72,0.0,,0.0,0.0,
2025-08-14T22:32:09.121Z,1,GR86-016-55,-1.9,-0.001,0.016,7.73,0.0,0.0,0.0,0.0,
2025-08-14T22:32:09.165Z,1,GR86-016-55,-1.9,-0.01,0.024,7.73,0.0,,0.0,0.0,0.0
2025-08-14T22:32:09.208Z,1,GR86-016-55,-1.9,-0.009,0.029,7.72,0.0,,0.0,0.0,
2025-08-14T22:32:09.251Z,1,GR86-016-55,-1.9,-0.006,0.025,7.73,0.0,,0.0,0.0,
2025-08-14T22:32:09.294Z,1,GR86-016-55,-1.9,-0.003,0.021,7.72,0.0,,0.0,0.0,
2025-08-14T22:32:09.337Z,1,GR86-016-55,-1.9,-0.002,0.017,7.73,0.0,0.0,0.0,0.0,
2025-08-14T22:32:09.380Z,1,GR86-016-55,-1.9,-0.002,0.017,7.72,0.0,,0.0,0.0,0.0
2025-08-14T22:32:09.425Z,1,GR86-016-55,-1.9,-0.007,0.02,7.73,0.0,,0.0,0.0,
2025-08-14T22:32:09.468Z,1,GR86-016-55,-1.9,-0.008,0.023,7.73,0.0,,0.0,0.0,
2025-08-14T22:32:09.511Z,1,GR86-016-55,-1.9,-0.008,0.027,7.73,0.0,,0.0,0.0,
2025-08-14T22:32:09.554Z,1,GR86-016-55,-1.9,-0.004,0.026,7.73,0.0,0.0,0.0,0.0,
2025-08-14T22:32:09.597Z,1,GR86-016-55,-1.9,-0.003,0.016,7.73,0.0,,0.0,0.0,0.0
2025-08-14T22:32:09.641Z,1,GR86-016-55,-1.9,-0.004,0.016,7.73,0.0,,0.0,0.0,
2025-08-14T22:32:09.684Z,1,GR86-016-55,-1.9,-0.008,0.018,7.73,0.0,,0.0,0.0,
2025-08-14T22:32:09.727Z,1,GR86-016-55,-1.9,-0.007,0.023,7.73,0.0,,0.0,0.0,
2025-08-14T22:32:09.770Z,1,GR86-016-55,-1.9,-0.007,0.025,7.73,0.0,0.0,0.0,0.0,
2025-08-14T22:32:09.813Z,1,GR86-016-55,-1.9,-0.007,0.024,7.73,0.0,,0.0,0.0,0.0
2025-08-14T22:32:09.856Z,1,GR86-016-55,-1.9,-0.002,0.019,7.73,0.0,,0.0,0.0,
2025-08-14T22:32:09.899Z,1,GR86-016-55,-1.9,-0.003,0.017,7.73,0.0,,0.0,0.0,
2025-08-14T22:32:09.942Z,1,GR86-016-55,-1.9,-0.005,0.019,7.73,0.0,,0.0,0.0,
2025-08-14T22:32:09.985Z,1,GR86-016-55,-1.9,-0.006,0.02,7.73,0.0,0.0,0.0,0.0,
2025-08-14T22:32:10.028Z,1,GR86-016-55,-1.9,-0.005,0.023,7.72,0.0,,0.0,0.0,0.0
2025-08-14T22:32:10.071Z,1,GR86-016-55,-1.9,-0.007,0.024,7.72,0.0,,0.0,0.0,
2025-08-14T22:32:10.114Z,1,GR86-016-55,-1.9,-0.002,0.02,7.73,0.0,,0.0,0.0,
2025-08-14T22:32:10.157Z,1,GR86-016-55,-1.9,-0.005,0.02,7.72,0.0,,0.0,0.0,
2025-08-14T22:32:10.200Z,1,GR86-016-55,-1.9,-0.002,0.016,7.73,0.0,0.0,0.0,0.0,
2025-08-14T22:32:10.243Z,1,GR86-016-55,-1.9,-0.008,0.02,7.73,0.0,,0.0,0.0,0.0
2025-08-14T22:32:10.287Z,1,GR86-016-55,-1.9,-0.004,0.022,7.73,0.0,,0.0,0.0,
2025-08-14T22:32:10.330Z,1,GR86-016-55,-1.9,-0.002,0.023,7.73,0.0,,0.0,0.0,
2025-08-14T22:32:10.373Z,1,GR86-016-55,-1.9,-0.005,0.021,7.73,0.0,,0.0,0.0,
2025-08-14T22:32:10.416Z,1,GR86-016-55,-1.9,-0.006,0.021,7.72,0.0,0.0,0.0,0.0,
2025-08-14T22:32:10.459Z,1,GR86-016-55,-1.9,-0.005,0.019,7.73,0.0,,0.0,0.0,0.0
2025-08-14T22:32:10.502Z,1,GR86-016-55,-1.9,-0.006,0.021,7.73,0.0,,0.0,0.0,
2025-08-14T22:32:10.545Z,1,GR86-016-55,-1.9,-0.007,0.023,7.73,0.0,,0.0,0.0,
2025-08-14T22:32:10.588Z,1,GR86-016-55,-1.9,-0.005,0.022,7.73,0.0,,0.0,0.0,
2025-08-14T22:32:10.631Z,1,GR86-016-55,-1.9,-0.005,0.022,7.72,0.0,0.0,0.0,0.0,
2025-08-14T22:32:10.674Z,1,GR86-016-55,-1.9,-0.002,0.02,7.72,0.0,,0.0,0.0,0.0
2025-08-14T22:32:10.717Z,1,GR86-016-55,-1.9,-0.003,0.019,7.73,0.0,,0.0,0.0,
2025-08-14T22:32:10.760Z,1,GR86-016-55,-1.9,-0.006,0.022,7.73,0.0,,0.0,0.0,
2025-08-14T22:32:10.805Z,1,GR86-016-55,-1.9,-0.008,0.02,7.73,0.0,,0.0,0.0,
2025-08-14T22:32:10.848Z,1,GR86-016-55,-1.9,-0.005,0.02,7.73,0.0,0.0,0.0,0.0,
2025-08-14T22:32:10.891Z,1,GR86-016-55,-1.9,-0.004,0.021,7.73,0.0,,0.0,0.0,0.0
2025-08-14T22:32:10.934Z,1,GR86-016-55,-1.9,-0.005,0.022,7.73,0.0,,0.0,0.0,
2025-08-14T22:32:10.977Z,1,GR86-016-55,-1.9,-0.005,0.023,7.73,0.0,,0.0,0.0,
2025-08-14T22:32:11.021Z,1,GR86-016-55,-1.9,-0.007,0.022,7.72,0.0,,0.0,0.0,
2025-08-14T22:32:11.065Z,1,GR86-016-55,-1.9,-0.008,0.02,7.73,0.0,0.0,0.0,0.0,
2025-08-14T22:32:11.108Z,1,GR86-016-55,-1.9,-0.006,0.02,7.73,0.0,,0.0,0.0,0.0
2025-08-14T22:32:11.151Z,1,GR86-016-55,-1.9,-0.004,0.02,7.73,0.0,,0.0,0.0,
2025-08-14T22:32:11.194Z,1,GR86-016-55,-1.9,-0.003,0.018,7.73,0.0,,0.0,0.0,
2025-08-14T22:32:11.237Z,1,GR86-016-55,-1.9,-0.003,0.023,7.72,0.0,,0.0,0.0,
2025-08-14T22:32:11.280Z,1,GR86-016-55,-1.9,-0.004,0.023,7.73,0.0,0.0,0.0,0.0,
2025-08-14T22:32:11.323Z,1,GR86-016-55,-1.9,-0.006,0.022,7.73,0.0,,0.0,0.0,0.0
2025-08-14T22:32:11.367Z,1,GR86-016-55,-1.9,-0.007,0.02,7.73,0.0,,0.0,0.0,
2025-08-14T22:32:11.410Z,1,GR86-016-55,-1.9,-0.004,0.021,7.73,0.0,,0.0,0.0,
2025-08-14T22:32:11.453Z,1,GR86-016-55,-1.9,-0.004,0.018,7.72,0.0,,0.0,0.0,
2025-08-14T22:32:11.496Z,1,GR86-016-55,-1.9,-0.005,0.022,7.73,0.0,0.0,0.0,0.0,
2025-08-14T22:32:11.539Z,1,GR86-016-55,-1.9,-0.005,0.021,7.73,0.0,,0.0,0.0,0.0
2025-08-14T22:32:11.582Z,1,GR86-016-55,-1.9,-0.005,0.023,7.73,0.0,,0.0,0.0,
2025-08-14T22:32:11.625Z,1,GR86-016-55,-1.9,-0.008,0.021,7.73,0.0,,0.0,0.0,
2025-08-14T22:32:11.668Z,1,GR86-016-55,-1.9,-0.005,0.019,7.72,0.0,,0.0,0.0,
2025-08-14T22:32:11.711Z,1,GR86-016-55,-1.9,-0.003,0.02,7.73,0.0,0.0,0.0,0.0,
2025-08-14T22:32:11.754Z,1,GR86-016-55,-1.9,-0.005,0.019,7.73,0.0,,0.0,0.0,0.0
2025-08-14T22:32:11.797Z,1,GR86-016-55,-1.9,-0.005,0.023,7.73,0.0,,0.0,0.0,
2025-08-14T22:32:11.841Z,1,GR86-016-55,-1.9,-0.006,0.02,7.73,0.0,,0.0,0.0,
2025-08-14T22:32:11.884Z,1,GR86-016-55,-1.9,-0.005,0.02,7.73,0.0,,0.0,0.0,
2025-08-14T22:32:11.927Z,1,GR86-016-55,-1.9,-0.007,0.023,7.74,0.0,0.0,0.0,0.0,
2025-08-14T22:32:11.970Z,1,GR86-016-55,-1.9,-0.004,0.019,7.74,0.0,,0.0,0.0,0.0
2025-08-14T22:32:12.013Z,1,GR86-016-55,-1.9,-0.005,0.02,7.73,0.0,,0.0,0.0,
2025-08-14T22:32:12.056Z,1,GR86-016-55,-1.9,-0.005,0.019,7.73,0.0,,0.0,0.0,
2025-08-14T22:32:12.099Z,1,GR86-016-55,-1.9,-0.005,0.021,7.73,0.0,,0.0,0.0,
2025-08-14T22:32:12.185Z,1,GR86-016-55,-1.9,-0.007,0.024,7.72,0.0,0.0,0.0,0.0,0.0
2025-08-14T22:32:12.228Z,1,GR86-016-55,-1.9,-0.005,0.022,7.74,0.0,,0.0,0.0,
2025-08-14T22:32:12.271Z,1,GR86-016-55,-1.9,-0.004,0.021,7.72,0.0,,0.0,0.0,
2025-08-14T22:32:12.314Z,1,GR86-016-55,-1.9,-0.006,0.022,7.73,0.0,,0.0,0.0,
2025-08-14T22:32:12.357Z,1,GR86-016-55,-1.9,-0.003,0.016,7.73,0.0,0.0,0.0,0.0,
2025-08-14T22:32:12.400Z,1,GR86-016-55,-1.9,-0.006,0.019,7.73,0.0,,0.0,0.0,0.0
2025-08-14T22:32:12.443Z,1,GR86-016-55,-1.9,-0.007,0.023,7.73,0.0,,0.0,0.0,
2025-08-14T22:32:12.487Z,1,GR86-016-55,-1.9,-0.006,0.021,7.72,0.0,,0.0,0.0,
2025-08-14T22:32:12.530Z,1,GR86-016-55,-1.9,-0.005,0.02,7.73,0.0,,0.0,0.0,
2025-08-14T22:32:12.575Z,1,GR86-016-55,-1.9,-0.004,0.021,7.73,0.0,0.0,0.0,0.0,
2025-08-14T22:32:12.618Z,1,GR86-016-55,-1.9,-0.004,0.02,7.73,0.0,,0.0,0.0,0.0
2025-08-14T22:32:12.661Z,1,GR86-016-55,-1.9,-0.007,0.022,7.73,0.0,,0.0,0.0,
2025-08-14T22:32:12.704Z,1,GR86-016-55,-1.9,-0.003,0.018,7.73,0.0,,0.0,0.0,
2025-08-14T22:32:12.747Z,1,GR86-016-55,-1.9,-0.004,0.021,7.73,0.0,,0.0,0.0,
2025-08-14T22:32:12.790Z,1,GR86-016-55,-1.9,-0.004,0.023,7.73,0.0,0.0,0.0,0.0,
2025-08-14T22:32:12.833Z,1,GR86-016-55,-1.9,-0.004,0.021,7.72,0.0,,0.0,0.0,0.0
2025-08-14T22:32:12.876Z,1,GR86-016-55,-1.9,-0.005,0.02,7.73,0.0,,0.0,0.0,
2025-08-14T22:32:12.919Z,1,GR86-016-55,-1.9,-0.006,0.02,7.73,0.0,,0.0,0.0,
2025-08-14T22:32:12.962Z,1,GR86-016-55,-1.9,-0.005,0.018,7.73,0.0,,0.0,0.0,
2025-08-14T22:32:13.005Z,1,GR86-016-55,-1.9,-0.005,0.022,7.73,0.0,0.0,0.0,0.0,
2025-08-14T22:32:13.048Z,1,GR86-016-55,-1.9,-0.004,0.021,7.73,0.0,,0.0,0.0,0.0
2025-08-14T22:32:13.091Z,1,GR86-016-55,-1.9,-0.004,0.023,7.73,0.0,,0.0,0.0,
2025-08-14T22:32:13.134Z,1,GR86-016-55,-1.9,-0.006,0.02,7.73,0.0,,0.0,0.0,
2025-08-14T22:32:13.177Z,1,GR86-016-55,-1.9,-0.005,0.02,7.73,0.0,,0.0,0.0,
2025-08-14T22:32:13.221Z,1,GR86-016-55,-1.9,-0.007,0.021,7.73,0.0,0.0,0.0,0.0,
2025-08-14T22:32:13.265Z,1,GR86-016-55,-1.9,-0.004,0.023,7.74,0.0,,0.0,0.0,0.0
2025-08-14T22:32:13.308Z,1,GR86-016-55,-1.9,-0.002,0.021,7.72,0.0,,0.0,0.0,
2025-08-14T22:32:13.351Z,1,GR86-016-55,-1.9,-0.003,0.02,7.73,0.0,,0.0,0.0,
2025-08-14T22:32:13.394Z,1,GR86-016-55,-1.9,-0.006,0.019,7.73,0.0,,0.0,0.0,
2025-08-14T22:32:13.437Z,1,GR86-016-55,-1.9,-0.004,0.018,7.73,0.0,0.0,0.0,0.0,
2025-08-14T22:32:13.480Z,1,GR86-016-55,-1.9,-0.004,0.022,7.72,0.0,,0.0,0.0,0.0
2025-08-14T22:32:13.523Z,1,GR86-016-55,-1.9,-0.004,0.023,7.72,0.0,,0.0,0.0,
2025-08-14T22:32:13.567Z,1,GR86-016-55,-1.9,-0.005,0.023,7.73,0.0,,0.0,0.0,
2025-08-14T22:32:13.610Z,1,GR86-016-55,-1.9,-0.005,0.023,7.72,0.0,,0.0,0.0,
2025-08-14T22:32:13.654Z,1,GR86-016-55,-1.9,-0.004,0.022,7.73,0.0,0.0,0.0,0.0,
2025-08-14T22:32:13.697Z,1,GR86-016-55,-1.9,-0.001,0.017,7.73,0.0,,0.0,0.0,0.0
2025-08-14T22:32:13.740Z,1,GR86-016-55,-1.9,-0.006,0.021,7.72,0.0,,0.0,0.0,
2025-08-14T22:32:13.783Z,1,GR86-016-55,-1.9,-0.006,0.023,7.74,0.0,,0.0,0.0,
2025-08-14T22:32:13.826Z,1,GR86-016-55,-1.9,-0.005,0.024,7.72,0.0,,0.0,0.0,
2025-08-14T22:32:13.912Z,1,GR86-016-55,-1.9,-0.003,0.019,7.72,0.0,0.0,0.0,0.0,0.0
2025-08-14T22:32:13.955Z,1,GR86-016-55,-1.9,-0.002,0.019,7.73,0.0,,0.0,0.0,
2025-08-14T22:32:13.998Z,1,GR86-016-55,-1.9,-0.005,0.019,7.74,0.0,,0.0,0.0,
2025-08-14T22:32:14.041Z,1,GR86-016-55,-1.9,-0.006,0.022,7.72,0.0,,0.0,0.0,
2025-08-14T22:32:14.084Z,1,GR86-016-55,-1.9,-0.006,0.022,7.76,0.0,0.0,0.0,0.0,
2025-08-14T22:32:14.127Z,1,GR86-016-55,-1.9,-0.006,0.023,7.72,0.0,,0.0,0.0,0.0
2025-08-14T22:32:14.170Z,1,GR86-016-55,-1.9,-0.004,0.02,7.72,0.0,,0.0,0.0,
2025-08-14T22:32:14.213Z,1,GR86-016-55,-1.9,-0.001,0.02,7.73,0.0,,0.0,0.0,
2025-08-14T22:32:14.256Z,1,GR86-016-55,-1.9,-0.005,0.019,7.72,0.0,,0.0,0.0,
2025-08-14T22:32:14.299Z,1,GR86-016-55,-1.9,-0.006,0.018,7.72,0.0,0.0,0.0,0.0,
2025-08-14T22:32:14.342Z,1,GR86-016-55,-1.9,-0.008,0.023,7.72,0.0,,0.0,0.0,0.0
2025-08-14T22:32:14.385Z,1,GR86-016-55,-1.9,-0.004,0.021,7.73,0.0,,0.0,0.0,
2025-08-14T22:32:14.428Z,1,GR86-016-55,-1.9,-0.004,0.022,7.73,0.0,,0.0,0.0,
2025-08-14T22:32:14.471Z,1,GR86-016-55,-1.9,-0.004,0.023,7.73,0.0,,0.0,0.0,
2025-08-14T22:32:14.514Z,1,GR86-016-55,-1.9,-0.004,0.02,7.73,0.0,0.0,0.0,0.0,
2025-08-14T22:32:14.557Z,1,GR86-016-55,-1.9,-0.006,0.018,7.73,0.0,,0.0,0.0,0.0
2025-08-14T22:32:14.600Z,1,GR86-016-55,-1.9,-0.006,0.019,7.73,0.0,,0.0,0.0,
2025-08-14T22:32:14.643Z,1,GR86-016-55,-1.9,-0.005,0.019,7.73,0.0,,0.0,0.0,
2025-08-14T22:32:14.687Z,1,GR86-016-55,-1.9,-0.006,0.019,7.73,0.0,,0.0,0.0,
2025-08-14T22:32:14.730Z,1,GR86-016-55,-1.9,-0.005,0.021,7.73,0.0,0.0,0.0,0.0,
2025-08-14T22:32:14.773Z,1,GR86-016-55,-1.9,-0.007,0.022,7.72,0.0,,0.0,0.0,0.0
2025-08-14T22:32:14.816Z,1,GR86-016-55,-1.9,-0.006,0.022,7.72,0.0,,0.0,0.0,
2025-08-14T22:32:14.859Z,1,GR86-016-55,-1.9,-0.005,0.019,7.73,0.0,,0.0,0.0,
2025-08-14T22:32:14.902Z,1,GR86-016-55,-1.9,-0.004,0.018,7.73,0.0,,0.0,0.0,
2025-08-14T22:32:14.945Z,1,GR86-016-55,-1.9,-0.006,0.02,7.73,0.0,0.0,0.0,0.0,
2025-08-14T22:32:14.988Z,1,GR86-016-55,-1.9,-0.006,0.024,7.73,0.0,,0.0,0.0,0.0
2025-08-14T22:32:15.031Z,1,GR86-016-55,-1.9,-0.009,0.023,7.73,0.0,,0.0,0.0,
2025-08-14T22:32:15.074Z,1,GR86-016-55,-1.9,-0.007,0.025,7.72,0.0,,0.0,0.0,
2025-08-14T22:32:15.117Z,1,GR86-016-55,-1.9,-0.002,0.019,7.73,0.0,,0.0,0.0,
2025-08-14T22:32:15.203Z,1,GR86-016-55,-1.9,-0.007,0.02,7.74,0.0,0.0,0.0,0.0,0.0
2025-08-14T22:32:15.247Z,1,GR86-016-55,-1.9,-0.004,0.02,7.73,0.0,,0.0,0.0,
2025-08-14T22:32:15.290Z,1,GR86-016-55,-1.9,-0.007,0.023,7.72,0.0,,0.0,0.0,
2025-08-14T22:32:15.333Z,1,GR86-016-55,-1.9,-0.006,0.021,7.73,0.0,,0.0,0.0,
2025-08-14T22:32:15.376Z,1,GR86-016-55,-1.9,-0.004,0.02,7.73,0.0,0.0,0.0,0.0,
2025-08-14T22:32:15.419Z,1,GR86-016-55,-1.9,-0.003,0.019,7.72,0.0,,0.0,0.0,0.0
2025-08-14T22:32:15.462Z,1,GR86-016-55,-1.9,-0.006,0.02,7.73,0.0,,0.0,0.0,
2025-08-14T22:32:15.505Z,1,GR86-016-55,-1.9,-0.007,0.02,7.73,0.0,,0.0,0.0,
2025-08-14T22:32:15.548Z,1,GR86-016-55,-1.9,-0.007,0.022,7.73,0.0,,0.0,0.0,
2025-08-14T22:32:15.591Z,1,GR86-016-55,-1.9,-0.005,0.023,7.73,0.0,0.0,0.0,0.0,
2025-08-14T22:32:15.634Z,1,GR86-016-55,-1.9,-0.002,0.021,7.73,0.0,,0.0,0.0,0.0
2025-08-14T22:32:15.677Z,1,GR86-016-55,-1.9,-0.005,0.021,7.73,0.0,,0.0,0.0,
2025-08-14T22:32:15.721Z,1,GR86-016-55,-1.9,-0.004,0.019,7.73,0.0,,0.0,0.0,
2025-08-14T22:32:15.765Z,1,GR86-016-55,-1.9,-0.005,0.021,7.73,0.0,,0.0,0.0,
2025-08-14T22:32:15.808Z,1,GR86-016-55,-1.9,-0.006,0.021,7.73,0.0,0.0,0.0,0.0,
2025-08-14T22:32:15.851Z,1,GR86-016-55,-1.9,-0.004,0.017,7.73,0.0,,0.0,0.0,0.0
2025-08-14T22:32:15.894Z,1,GR86-016-55,-1.9,-0.003,0.02,7.73,0.0,,0.0,0.0,
2025-08-14T22:32:15.937Z,1,GR86-016-55,-1.9,-0.002,0.019,7.73,0.0,,0.0,0.0,
2025-08-14T22:32:15.980Z,1,GR86-016-55,-1.9,-0.005,0.02,7.73,0.0,,0.0,0.0,
2025-08-14T22:32:16.025Z,1,GR86-016-55,-1.9,-0.005,0.021,7.73,0.0,0.0,0.0,0.0,
2025-08-14T22:32:16.068Z,1,GR86-016-55,-1.9,-0.003,0.019,7.73,0.0,,0.0,0.0,0.0
2025-08-14T22:32:16.111Z,1,GR86-016-55,-1.9,-0.003,0.021,7.73,0.0,,0.0,0.0,
2025-08-14T22:32:16.154Z,1,GR86-016-55,-1.9,-0.006,0.021,7.73,0.0,,0.0,0.0,
2025-08-14T22:32:16.197Z,1,GR86-016-55,-1.9,-0.005,0.022,7.73,0.0,,0.0,0.0,
2025-08-14T22:32:16.240Z,1,GR86-016-55,-1.9,-0.005,0.022,7.74,0.0,0.0,0.0,0.0,
2025-08-14T22:32:16.284Z,1,GR86-016-55,-1.9,-0.003,0.021,7.73,0.0,,0.0,0.0,0.0
2025-08-14T22:32:16.327Z,1,GR86-016-55,-1.9,-0.007,0.019,7.73,0.0,,0.0,0.0,
2025-08-14T22:32:16.370Z,1,GR86-016-55,-1.9,-0.004,0.021,7.73,0.0,,0.0,0.0,
2025-08-14T22:32:16.413Z,1,GR86-016-55,-1.9,-0.005,0.018,7.73,0.0,,0.0,0.0,
2025-08-14T22:32:16.456Z,1,GR86-016-55,-1.9,-0.004,0.023,7.72,0.0,0.0,0.0,0.0,
2025-08-14T22:32:16.499Z,1,GR86-016-55,-1.9,-0.003,0.021,7.73,0.0,,0.0,0.0,0.0
2025-08-14T22:32:16.542Z,1,GR86-016-55,-1.9,-0.005,0.019,7.73,0.0,,0.0,0.0,
2025-08-14T22:32:16.585Z,1,GR86-016-55,-1.9,-0.004,0.021,7.73,0.0,,0.0,0.0,
2025-08-14T22:32:16.628Z,1,GR86-016-55,-1.9,-0.005,0.021,7.73,0.0,,0.0,0.0,
2025-08-14T22:32:16.671Z,1,GR86-016-55,-1.9,-0.002,0.018,7.73,0.0,0.0,0.0,0.0,
2025-08-14T22:32:16.714Z,1,GR86-016-55,-1.9,-0.007,0.02,7.75,0.0,,0.0,0.0,0.0
2025-08-14T22:32:16.757Z,1,GR86-016-55,-1.9,-0.005,0.022,7.74,0.0,,0.0,0.0,
2025-08-14T22:32:16.800Z,1,GR86-016-55,-1.9,-0.007,0.021,7.73,0.0,,0.0,0.0,
2025-08-14T22:32:16.843Z,1,GR86-016-55,-1.9,-0.006,0.02,7.73,0.0,,0.0,0.0,
2025-08-14T22:32:16.887Z,1,GR86-016-55,-1.9,-0.007,0.02,7.73,0.0,0.0,0.0,0.0,
2025-08-14T22:32:16.930Z,1,GR86-016-55,-1.9,-0.004,0.02,7.73,0.0,,0.0,0.0,0.0
2025-08-14T22:32:16.973Z,1,GR86-016-55,-1.9,-0.005,0.021,7.73,0.0,,0.0,0.0,
2025-08-14T22:32:17.016Z,1,GR86-016-55,-1.9,-0.004,0.018,7.73,0.0,,0.0,0.0,
2025-08-14T22:32:17.060Z,1,GR86-016-55,-1.9,-0.005,0.022,7.73,0.0,,0.0,0.0,
2025-08-14T22:32:17.105Z,1,GR86-016-55,-1.9,-0.006,0.022,7.72,0.0,0.0,0.0,0.0,
2025-08-14T22:32:17.148Z,1,GR86-016-55,-1.9,-0.004,0.022,7.73,0.0,,0.0,0.0,0.0
2025-08-14T22:32:17.191Z,1,GR86-016-55,-1.9,-0.008,0.02,7.75,0.0,,0.0,0.0,
2025-08-14T22:32:17.234Z,1,GR86-016-55,-1.9,-0.007,0.022,7.73,0.0,,0.0,0.0,
2025-08-14T22:32:17.277Z,1,GR86-016-55,-1.9,-0.005,0.02,7.73,0.0,,0.0,0.0,
2025-08-14T22:32:17.321Z,1,GR86-016-55,-1.9,-0.007,0.023,7.74,0.0,0.0,0.0,0.0,
2025-08-14T22:32:17.365Z,1,GR86-016-55,-1.9,-0.005,0.019,7.73,0.0,,0.0,0.0,0.0
2025-08-14T22:32:17.408Z,1,GR86-016-55,-1.9,-0.006,0.022,7.73,0.0,,0.0,0.0,
2025-08-14T22:32:17.451Z,1,GR86-016-55,-1.9,-0.004,0.022,7.73,0.0,,0.0,0.0,
2025-08-14T22:32:17.494Z,1,GR86-016-55,-1.9,-0.006,0.019,7.73,0.0,,0.0,0.0,
2025-08-14T22:32:17.537Z,1,GR86-016-55,-1.9,-0.004,0.022,7.73,0.0,0.0,0.0,0.0,
2025-08-14T22:32:17.582Z,1,GR86-016-55,-1.9,-0.007,0.023,7.73,0.0,,0.0,0.0,0.0
2025-08-14T22:32:17.625Z,1,GR86-016-55,-1.9,-0.005,0.018,7.74,0.0,,0.0,0.0,
2025-08-14T22:32:17.668Z,1,GR86-016-55,-1.9,-0.004,0.02,7.73,0.0,,0.0,0.0,
2025-08-14T22:32:17.711Z,1,GR86-016-55,-1.9,-0.004,0.021,7.73,0.0,,0.0,0.0,
2025-08-14T22:32:17.754Z,1,GR86-016-55,-1.9,-0.005,0.022,7.73,0.0,0.0,0.0,0.0,
2025-08-14T22:32:17.797Z,1,GR86-016-55,-1.9,-0.007,0.02,7.74,0.0,,0.0,0.0,0.0
2025-08-14T22:32:17.840Z,1,GR86-016-55,-1.9,-0.004,0.02,7.73,0.0,,0.0,0.0,
2025-08-14T22:32:17.883Z,1,GR86-016-55,-1.9,-0.006,0.019,7.73,0.0,,0.0,0.0,
2025-08-14T22:32:17.926Z,1,GR86-016-55,-1.9,-0.003,0.019,7.73,0.0,,0.0,0.0,
2025-08-14T22:32:17.969Z,1,GR86-016-55,-1.9,-0.007,0.021,7.73,0.0,0.0,0.0,0.0,
2025-08-14T22:32:18.012Z,1,GR86-016-55,-1.9,-0.008,0.022,7.73,0.0,,0.0,0.0,0.0
2025-08-14T22:32:18.055Z,1,GR86-016-55,-1.9,-0.006,0.02,7.73,0.0,,0.0,0.0,
2025-08-14T22:32:18.098Z,1,GR86-016-55,-1.9,-0.007,0.022,7.73,0.0,,0.0,0.0,
2025-08-14T22:32:18.141Z,1,GR86-016-55,-1.9,0.0,0.017,7.74,0.0,,0.0,0.0,
2025-08-14T22:32:18.184Z,1,GR86-016-55,-1.9,0.0,0.016,7.73,0.0,0.0,0.0,0.0,
2025-08-14T22:32:18.227Z,1,GR86-016-55,-1.9,-0.004,0.02,7.73,0.0,,0.0,0.0,0.0
2025-08-14T22:32:18.270Z,1,GR86-016-55,-1.9,-0.009,0.024,7.73,0.0,,0.0,0.0,
2025-08-14T22:32:18.313Z,1,GR86-016-55,-1.9,-0.008,0.026,7.72,0.0,,0.0,0.0,
2025-08-14T22:32:18.356Z,1,GR86-016-55,-1.9,-0.007,0.025,7.73,0.0,,0.0,0.0,
2025-08-14T22:32:18.399Z,1,GR86-016-55,-1.9,-0.002,0.02,7.73,0.0,0.0,0.0,0.0,
2025-08-14T22:32:18.442Z,1,GR86-016-55,-1.9,-0.004,0.016,7.73,0.0,,0.0,0.0,0.0
2025-08-14T22:32:18.485Z,1,GR86-016-55,-1.9,-0.005,0.018,7.73,0.0,,0.0,0.0,
2025-08-14T22:32:18.528Z,1,GR86-016-55,-1.9,-0.005,0.019,7.73,0.0,,0.0,0.0,
2025-08-14T22:32:18.571Z,1,GR86-016-55,-1.9,-0.006,0.023,7.73,0.0,,0.0,0.0,
2025-08-14T22:32:18.614Z,1,GR86-016-55,-1.9,-0.006,0.022,7.73,0.0,0.0,0.0,0.0,
2025-08-14T22:32:18.657Z,1,GR86-016-55,-1.9,-0.005,0.023,7.73,0.0,,0.0,0.0,0.0
2025-08-14T22:32:18.700Z,1,GR86-016-55,-1.9,-0.004,0.018,7.73,0.0,,0.0,0.0,
2025-08-14T22:32:18.743Z,1,GR86-016-55,-1.9,-0.003,0.019,7.72,0.0,,0.0,0.0,
2025-08-14T22:32:18.787Z,1,GR86-016-55,-1.9,-0.006,0.018,7.72,0.0,,0.0,0.0,
2025-08-14T22:32:18.830Z,1,GR86-016-55,-1.9,-0.006,0.022,7.73,0.0,0.0,0.0,0.0,
2025-08-14T22:32:18.875Z,1,GR86-016-55,-1.9,-0.006,0.022,7.73,0.0,,0.0,0.0,0.0
2025-08-14T22:32:18.918Z,1,GR86-016-55,-1.9,-0.006,0.022,7.73,0.0,,0.0,0.0,
2025-08-14T22:32:18.961Z,1,GR86-016-55,-1.9,-0.001,0.019,7.72,0.0,,0.0,0.0,
2025-08-14T22:32:19.004Z,1,GR86-016-55,-1.9,-0.005,0.02,7.72,0.0,,0.0,0.0,
2025-08-14T22:32:19.047Z,1,GR86-016-55,-1.9,-0.005,0.017,7.73,0.0,0.0,0.0,0.0,
2025-08-14T22:32:19.090Z,1,GR86-016-55,-1.9,-0.006,0.02,7.72,0.0,,0.0,0.0,0.0
2025-08-14T22:32:19.133Z,1,GR86-016-55,-1.9,-0.009,0.019,7.73,0.0,,0.0,0.0,
2025-08-14T22:32:19.176Z,1,GR86-016-55,-1.9,-0.007,0.023,7.73,0.0,,0.0,0.0,
2025-08-14T22:32:19.219Z,1,GR86-016-55,-1.9,-0.006,0.022,7.73,0.0,,0.0,0.0,
2025-08-14T22:32:19.262Z,1,GR86-016-55,-1.9,-0.005,0.022,7.73,0.0,0.0,0.0,0.0,
2025-08-14T22:32:19.305Z,1,GR86-016-55,-1.9,-0.002,0.02,7.73,0.0,,0.0,0.0,0.0
2025-08-14T22:32:19.348Z,1,GR86-016-55,-1.9,-0.005,0.016,7.73,0.0,,0.0,0.0,
2025-08-14T22:32:19.391Z,1,GR86-016-55,-1.9,-0.006,0.018,7.73,0.0,,0.0,0.0,
2025-08-14T22:32:19.434Z,1,GR86-016-55,-1.9,-0.008,0.024,7.73,0.0,,0.0,0.0,
2025-08-14T22:32:19.477Z,1,GR86-016-55,-1.9,-0.008,0.023,7.72,0.0,0.0,0.0,0.0,
2025-08-14T22:32:19.521Z,1,GR86-016-55,-1.9,-0.004,0.021,7.73,0.0,,0.0,0.0,0.0
2025-08-14T22:32:19.564Z,1,GR86-016-55,-1.9,-0.004,0.02,7.72,0.0,,0.0,0.0,
2025-08-14T22:32:19.607Z,1,GR86-016-55,-1.9,-0.005,0.017,7.73,0.0,,0.0,0.0,
2025-08-14T22:32:19.651Z,1,GR86-016-55,-1.9,-0.005,0.021,7.72,0.0,,0.0,0.0,
2025-08-14T22:32:19.694Z,1,GR86-016-55,-1.9,-0.007,0.021,7.73,0.0,0.0,0.0,0.0,
2025-08-14T22:32:19.737Z,1,GR86-016-55,-1.9,-0.005,0.021,7.73,0.0,,0.0,0.0,0.0
2025-08-14T22:32:19.780Z,1,GR86-016-55,-1.9,-0.005,0.019,7.73,0.0,,0.0,0.0,
2025-08-14T22:32:19.823Z,1,GR86-016-55,-1.9,-0.004,0.021,7.73,0.0,,0.0,0.0,
2025-08-14T22:32:19.867Z,1,GR86-016-55,-1.9,-0.003,0.017,7.73,0.0,,0.0,0.0,
2025-08-14T22:32:19.910Z,1,GR86-016-55,-1.9,-0.004,0.02,7.73,0.0,0.0,0.0,0.0,
2025-08-14T22:32:19.953Z,1,GR86-016-55,-1.9,-0.004,0.019,7.73,0.0,,0.0,0.0,0.0
2025-08-14T22:32:19.996Z,1,GR86-016-55,-1.9,-0.008,0.022,7.73,0.0,,0.0,0.0,
2025-08-14T22:32:20.039Z,1,GR86-016-55,-1.9,-0.006,0.024,7.74,0.0,,0.0,0.0,
2025-08-14T22:32:20.082Z,1,GR86-016-55,-1.9,-0.004,0.023,7.73,0.0,,0.0,0.0,
2025-08-14T22:32:20.125Z,1,GR86-016-55,-1.9,-0.005,0.019,7.73,0.0,0.0,0.0,0.0,
2025-08-14T22:32:20.168Z,1,GR86-016-55,-1.9,-0.005,0.017,7.73,0.0,,0.0,0.0,0.0
2025-08-14T22:32:20.211Z,1,GR86-016-55,-1.9,-0.005,0.02,7.73,0.0,,0.0,0.0,
2025-08-14T22:32:20.255Z,1,GR86-016-55,-1.9,-0.007,0.023,7.73,0.0,,0.0,0.0,
2025-08-14T22:32:20.298Z,1,GR86-016-55,-1.9,-0.006,0.022,7.73,0.0,,0.0,0.0,
2025-08-14T22:32:20.341Z,1,GR86-016-55,-1.9,-0.007,0.022,7.73,0.0,0.0,0.0,0.0,
2025-08-14T22:32:20.384Z,1,GR86-016-55,-1.9,-0.005,0.019,7.73,0.0,,0.0,0.0,0.0
2025-08-14T22:32:20.427Z,1,GR86-016-55,-1.9,-0.005,0.02,7.72,0.0,,0.0,0.0,
2025-08-14T22:32:20.470Z,1,GR86-016-55,-1.9,-0.006,0.018,7.73,0.0,,0.0,0.0,
2025-08-14T22:32:20.513Z,1,GR86-016-55,-1.9,-0.003,0.02,7.72,0.0,,0.0,0.0,
2025-08-14T22:32:20.556Z,1,GR86-016-55,-1.9,-0.008,0.023,7.73,0.0,0.0,0.0,0.0,
2025-08-14T22:32:20.599Z,1,GR86-016-55,-1.9,-0.005,0.022,7.73,0.0,,0.0,0.0,0.0
2025-08-14T22:32:20.642Z,1,GR86-016-55,-1.9,-0.005,0.02,7.73,0.0,,0.0,0.0,
2025-08-14T22:32:20.685Z,1,GR86-016-55,-1.9,-0.005,0.022,7.73,0.0,,0.0,0.0,
2025-08-14T22:32:20.728Z,1,GR86-016-55,-1.9,-0.005,0.022,7.73,0.0,,0.0,0.0,
2025-08-14T22:32:20.771Z,1,GR86-016-55,-1.9,-0.006,0.02,7.73,0.0,0.0,0.0,0.0,
2025-08-14T22:32:20.814Z,1,GR86-016-55,-1.9,-0.005,0.018,7.73,0.0,,0.0,0.0,0.0
2025-08-14T22:32:20.857Z,1,GR86-016-55,-1.9,-0.006,0.019,7.72,0.0,,0.0,0.0,
2025-08-14T22:32:20.900Z,1,GR86-016-55,-1.9,-0.005,0.024,7.73,0.0,,0.0,0.0,
2025-08-14T22:32:20.943Z,1,GR86-016-55,-1.9,-0.007,0.024,7.73,0.0,,0.0,0.0,
2025-08-14T22:32:20.987Z,1,GR86-016-55,-1.9,-0.005,0.024,7.73,0.0,0.0,0.0,0.0,
2025-08-14T22:32:21.030Z,1,GR86-016-55,-1.9,-0.004,0.02,7.73,0.0,,0.0,0.0,0.0
2025-08-14T22:32:21.073Z,1,GR86-016-55,-1.9,-0.006,0.017,7.72,0.0,,0.0,0.0,
2025-08-14T22:32:21.116Z,1,GR86-016-55,-1.9,-0.007,0.018,7.72,0.0,,0.0,0.0,
2025-08-14T22:32:21.160Z,1,GR86-016-55,-1.9,-0.005,0.024,7.73,0.0,,0.0,0.0,
2025-08-14T22:32:21.203Z,1,GR86-016-55,-1.9,-0.004,0.024,7.73,0.0,0.0,0.0,0.0,
2025-08-14T22:32:21.247Z,1,GR86-016-55,-1.9,-0.005,0.023,7.73,0.0,,0.0,0.0,0.0
2025-08-14T22:32:21.290Z,1,GR86-016-55,-1.9,-0.005,0.019,7.72,0.0,,0.0,0.0,
2025-08-14T22:32:21.333Z,1,GR86-016-55,-1.9,-0.003,0.018,7.74,0.0,,0.0,0.0,
2025-08-14T22:32:21.376Z,1,GR86-016-55,-1.9,-0.005,0.018,7.73,0.0,,0.0,0.0,
2025-08-14T22:32:21.419Z,1,GR86-016-55,-1.9,-0.003,0.019,7.73,0.0,0.0,0.0,0.0,
2025-08-14T22:32:21.462Z,1,GR86-016-55,-1.9,-0.006,0.024,7.73,0.0,,0.0,0.0,0.0
2025-08-14T22:32:21.505Z,1,GR86-016-55,-1.9,-0.005,0.022,7.73,0.0,,0.0,0.0,
2025-08-14T22:32:21.548Z,1,GR86-016-55,-1.9,-0.005,0.023,7.73,0.0,,0.0,0.0,
2025-08-14T22:32:21.591Z,1,GR86-016-55,-1.9,-0.003,0.019,7.73,0.0,,0.0,0.0,
2025-08-14T22:32:21.634Z,1,GR86-016-55,-1.9,-0.005,0.019,7.73,0.0,0.0,0.0,0.0,
2025-08-14T22:32:21.677Z,1,GR86-016-55,-1.9,-0.006,0.02,7.73,0.0,,0.0,0.0,0.0
2025-08-14T22:32:21.721Z,1,GR86-016-55,-1.9,-0.006,0.02,7.73,0.0,,0.0,0.0,
2025-08-14T22:32:21.764Z,1,GR86-016-55,-1.9,-0.006,0.023,7.73,0.0,,0.0,0.0,
2025-08-14T22:32:21.807Z,1,GR86-016-55,-1.9,-0.005,0.023,7.73,0.0,,0.0,0.0,
2025-08-14T22:32:21.850Z,1,GR86-016-55,-1.9,-0.003,0.02,7.73,0.0,0.0,0.0,0.0,
2025-08-14T22:32:21.893Z,1,GR86-016-55,-1.9,-0.006,0.022,7.73,0.0,,0.0,0.0,0.0
2025-08-14T22:32:21.936Z,1,GR86-016-55,-1.9,-0.006,0.018,7.73,0.0,,0.0,0.0,
2025-08-14T22:32:21.979Z,1,GR86-016-55,-1.9,-0.006,0.02,7.73,0.0,,0.0,0.0,
2025-08-14T22:32:22.022Z,1,GR86-016-55,-1.9,-0.006,0.021,7.73,0.0,,0.0,0.0,
2025-08-14T22:32:22.065Z,1,GR86-016-55,-1.9,-0.004,0.02,7.73,0.0,0.0,0.0,0.0,
2025-08-14T22:32:22.108Z,1,GR86-016-55,-1.9,-0.003,0.02,7.73,0.0,,0.0,0.0,0.0
2025-08-14T22:32:22.151Z,1,GR86-016-55,-1.9,-0.005,0.023,7.74,0.0,,0.0,0.0,
2025-08-14T22:32:22.194Z,1,GR86-016-55,-1.9,-0.008,0.022,7.73,0.0,,0.0,0.0,
2025-08-14T22:32:22.237Z,1,GR86-016-55,-1.9,-0.006,0.02,7.73,0.0,,0.0,0.0,
2025-08-14T22:32:22.280Z,1,GR86-016-55,-1.9,-0.004,0.019,7.73,0.0,0.0,0.0,0.0,
2025-08-14T22:32:22.325Z,1,GR86-016-55,-1.9,-0.005,0.021,7.73,0.0,,0.0,0.0,0.0
2025-08-14T22:32:22.368Z,1,GR86-016-55,-1.9,-0.004,0.022,7.72,0.0,,0.0,0.0,
2025-08-14T22:32:22.411Z,1,GR86-016-55,-1.9,-0.005,0.019,7.73,0.0,,0.0,0.0,
2025-08-14T22:32:22.454Z,1,GR86-016-55,-1.9,-0.004,0.022,7.73,0.0,,0.0,0.0,
2025-08-14T22:32:22.497Z,1,GR86-016-55,-1.9,-0.004,0.022,7.73,0.0,0.0,0.0,0.0,
2025-08-14T22:32:22.541Z,1,GR86-016-55,-1.9,-0.005,0.021,7.73,0.0,,0.0,0.0,0.0
2025-08-14T22:32:22.584Z,1,GR86-016-55,-1.9,-0.005,0.02,7.73,0.0,,0.0,0.0,
2025-08-14T22:32:22.627Z,1,GR86-016-55,-1.9,-0.005,0.022,7.73,0.0,,0.0,0.0,
2025-08-14T22:32:22.670Z,1,GR86-016-55,-1.9,-0.005,0.02,7.72,0.0,,0.0,0.0,
2025-08-14T22:32:22.713Z,1,GR86-016-55,-1.9,-0.003,0.021,7.72,0.0,0.0,0.0,0.0,
2025-08-14T22:32:22.756Z,1,GR86-016-55,-1.9,-0.006,0.021,7.72,0.0,,0.0,0.0,0.0
2025-08-14T22:32:22.799Z,1,GR86-016-55,-1.9,-0.005,0.02,7.73,0.0,,0.0,0.0,
2025-08-14T22:32:22.842Z,1,GR86-016-55,-1.9,-0.003,0.021,7.74,0.0,,0.0,0.0,
2025-08-14T22:32:22.885Z,1,GR86-016-55,-1.9,-0.006,0.02,7.73,0.0,,0.0,0.0,
2025-08-14T22:32:22.928Z,1,GR86-016-55,-1.9,-0.004,0.023,7.73,0.0,0.0,0.0,0.0,
2025-08-14T22:32:22.971Z,1,GR86-016-55,-1.9,-0.006,0.023,7.73,0.0,,0.0,0.0,0.0
2025-08-14T22:32:23.014Z,1,GR86-016-55,-1.9,-0.004,0.023,7.73,0.0,,0.0,0.0,
2025-08-14T22:32:23.057Z,1,GR86-016-55,-1.9,-0.005,0.019,7.73,0.0,,0.0,0.0,
2025-08-14T22:32:23.100Z,1,GR86-016-55,-1.9,-0.005,0.02,7.73,0.0,,0.0,0.0,
2025-08-14T22:32:23.143Z,1,GR86-016-55,-1.9,-0.005,0.023,7.73,0.0,0.0,0.0,0.0,
2025-08-14T22:32:23.187Z,1,GR86-016-55,-1.9,-0.005,0.02,7.73,0.0,,0.0,0.0,0.0
2025-08-14T22:32:23.230Z,1,GR86-016-55,-1.9,-0.006,0.021,7.73,0.0,,0.0,0.0,
2025-08-14T22:32:23.273Z,1,GR86-016-55,-1.9,-0.005,0.02,7.73,0.0,,0.0,0.0,
2025-08-14T22:32:23.316Z,1,GR86-016-55,-1.9,-0.002,0.021,7.73,0.0,,0.0,0.0,
2025-08-14T22:32:23.360Z,1,GR86-016-55,-1.9,-0.004,0.023,7.73,0.0,0.0,0.0,0.0,
2025-08-14T22:32:23.405Z,1,GR86-016-55,-1.9,-0.004,0.021,7.73,0.0,,0.0,0.0,0.0
2025-08-14T22:32:23.448Z,1,GR86-016-55,-1.9,-0.004,0.02,7.72,0.0,,0.0,0.0,
2025-08-14T22:32:23.491Z,1,GR86-016-55,-1.9,-0.005,0.022,7.72,0.0,,0.0,0.0,
2025-08-14T22:32:23.534Z,1,GR86-016-55,-1.9,-0.004,0.021,7.73,0.0,,0.0,0.0,
2025-08-14T22:32:23.577Z,1,GR86-016-55,-1.9,-0.006,0.02,7.73,0.0,0.0,0.0,0.0,
2025-08-14T22:32:23.621Z,1,GR86-016-55,-1.9,-0.007,0.021,7.72,0.0,,0.0,0.0,0.0
2025-08-14T22:32:23.665Z,1,GR86-016-55,-1.9,-0.003,0.022,7.73,0.0,,0.0,0.0,
2025-08-14T22:32:23.708Z,1,GR86-016-55,-1.9,-0.008,0.019,7.73,0.0,,0.0,0.0,
2025-08-14T22:32:23.751Z,1,GR86-016-55,-1.9,-0.006,0.02,7.72,0.0,,0.0,0.0,
2025-08-14T22:32:23.794Z,1,GR86-016-55,-1.9,-0.005,0.02,7.73,0.0,0.0,0.0,0.0,
2025-08-14T22:32:23.837Z,1,GR86-016-55,-1.9,-0.005,0.019,7.72,0.0,,0.0,0.0,0.0
2025-08-14T22:32:23.880Z,1,GR86-016-55,-1.9,-0.004,0.022,7.73,0.0,,0.0,0.0,
2025-08-14T22:32:23.923Z,1,GR86-016-55,-1.9,-0.005,0.022,7.75,0.0,,0.0,0.0,
2025-08-14T22:32:23.967Z,1,GR86-016-55,-1.9,-0.005,0.023,7.74,0.0,,0.0,0.0,
2025-08-14T22:32:24.010Z,1,GR86-016-55,-1.9,-0.003,0.021,7.73,0.0,0.0,0.0,0.0,
2025-08-14T22:32:24.053Z,1,GR86-016-55,-1.9,-0.004,0.017,7.72,0.0,,0.0,0.0,0.0
2025-08-14T22:32:24.096Z,1,GR86-016-55,-1.9,-0.003,0.027,7.73,0.0,,0.0,0.0,
2025-08-14T22:32:24.139Z,1,GR86-016-55,-1.9,-0.007,0.024,7.74,0.0,,0.0,0.0,
2025-08-14T22:32:24.182Z,1,GR86-016-55,-1.9,-0.003,0.014,7.73,0.0,,0.0,0.0,
2025-08-14T22:32:24.225Z,1,GR86-016-55,-1.9,-0.002,0.017,7.73,0.0,0.0,0.0,0.0,
2025-08-14T22:32:24.268Z,1,GR86-016-55,-1.9,-0.004,0.02,7.73,0.0,,0.0,0.0,0.0
2025-08-14T22:32:24.311Z,1,GR86-016-55,-1.9,-0.005,0.019,7.73,0.0,,0.0,0.0,
2025-08-14T22:32:24.354Z,1,GR86-016-55,-1.9,-0.007,0.025,7.73,0.0,,0.0,0.0,
2025-08-14T22:32:24.397Z,1,GR86-016-55,-1.9,-0.006,0.02,7.73,0.0,,0.0,0.0,
2025-08-14T22:32:24.440Z,1,GR86-016-55,-1.9,-0.005,0.023,7.73,0.0,0.0,0.0,0.0,
2025-08-14T22:32:24.483Z,1,GR86-016-55,-1.9,-0.005,0.019,7.73,0.0,,0.0,0.0,0.0
2025-08-14T22:32:24.526Z,1,GR86-016-55,-1.9,-0.002,0.02,7.73,0.0,,0.0,0.0,
2025-08-14T22:32:24.570Z,1,GR86-016-55,-1.9,-0.004,0.018,7.74,0.0,,0.0,0.0,
2025-08-14T22:32:24.613Z,1,GR86-016-55,-1.9,-0.002,0.019,7.73,0.0,,0.0,0.0,
2025-08-14T22:32:24.656Z,1,GR86-016-55,-1.9,-0.009,0.018,7.73,0.0,0.0,0.0,0.0,
2025-08-14T22:32:24.699Z,1,GR86-016-55,-1.9,-0.006,0.025,7.74,0.0,,0.0,0.0,0.0
2025-08-14T22:32:24.742Z,1,GR86-016-55,-1.9,-0.001,0.023,7.74,0.0,,0.0,0.0,
2025-08-14T22:32:24.785Z,1,GR86-016-55,-1.9,-0.005,0.019,7.73,0.0,,0.0,0.0,
2025-08-14T22:32:24.828Z,1,GR86-016-55,-1.9,-0.005,0.018,7.73,0.0,,0.0,0.0,
2025-08-14T22:32:24.871Z,1,GR86-016-55,-1.9,-0.007,0.017,7.72,0.0,0.0,0.0,0.0,
2025-08-14T22:32:24.914Z,1,GR86-016-55,-1.9,-0.005,0.017,7.73,0.0,,0.0,0.0,0.0
2025-08-14T22:32:24.957Z,1,GR86-016-55,-1.9,-0.003,0.026,7.73,0.0,,0.0,0.0,
2025-08-14T22:32:25.000Z,1,GR86-016-55,-1.9,-0.007,0.032,7.72,0.0,,0.0,0.0,
2025-08-14T22:32:25.043Z,1,GR86-016-55,-1.9,-0.002,0.023,7.73,0.0,,0.0,0.0,
2025-08-14T22:32:25.087Z,1,GR86-016-55,-1.9,-0.004,0.014,7.73,0.0,0.0,0.0,0.0,
2025-08-14T22:32:25.130Z,1,GR86-016-55,-1.9,-0.004,0.01,7.75,0.0,,0.0,0.0,0.0
2025-08-14T22:32:25.175Z,1,GR86-016-55,-1.9,-0.007,0.017,7.73,0.0,,0.0,0.0,
2025-08-14T22:32:25.218Z,1,GR86-016-55,-1.9,-0.003,0.021,7.73,0.0,,0.0,0.0,
2025-08-14T22:32:25.261Z,1,GR86-016-55,-1.9,-0.004,0.026,7.75,0.0,,0.0,0.0,
2025-08-14T22:32:25.304Z,1,GR86-016-55,-1.9,-0.005,0.028,7.73,0.0,0.0,0.0,0.0,
2025-08-14T22:32:25.347Z,1,GR86-016-55,-1.9,-0.005,0.021,7.72,0.0,,0.0,0.0,0.0
2025-08-14T22:32:25.390Z,1,GR86-016-55,-1.9,-0.004,0.016,7.73,0.0,,0.0,0.0,
2025-08-14T22:32:25.433Z,1,GR86-016-55,-1.9,-0.007,0.014,7.73,0.0,,0.0,0.0,
2025-08-14T22:32:25.476Z,1,GR86-016-55,-1.9,-0.007,0.016,7.74,0.0,,0.0,0.0,
2025-08-14T22:32:25.519Z,1,GR86-016-55,-1.9,-0.005,0.023,7.72,0.0,0.0,0.0,0.0,
2025-08-14T22:32:25.562Z,1,GR86-016-55,-1.9,0.0,0.029,7.73,0.0,,0.0,0.0,0.0
2025-08-14T22:32:25.605Z,1,GR86-016-55,-1.9,-0.003,0.023,7.73,0.0,,0.0,0.0,
2025-08-14T22:32:25.648Z,1,GR86-016-55,-1.9,-0.006,0.023,7.73,0.0,,0.0,0.0,
2025-08-14T22:32:25.691Z,1,GR86-016-55,-1.9,-0.008,0.015,7.73,0.0,,0.0,0.0,
2025-08-14T22:32:25.734Z,1,GR86-016-55,-1.9,-0.009,0.014,7.74,0.0,0.0,0.0,0.0,
2025-08-14T22:32:25.777Z,1,GR86-016-55,-1.9,-0.004,0.017,7.73,0.0,,0.0,0.0,0.0
2025-08-14T22:32:25.821Z,1,GR86-016-55,-1.9,-0.002,0.024,7.73,0.0,,0.0,0.0,
2025-08-14T22:32:25.865Z,1,GR86-016-55,-1.9,-0.002,0.025,7.73,0.0,,0.0,0.0,
2025-08-14T22:32:25.908Z,1,GR86-016-55,-1.9,-0.007,0.023,7.74,0.0,,0.0,0.0,
2025-08-14T22:32:25.951Z,1,GR86-016-55,-1.9,-0.008,0.023,7.72,0.0,0.0,0.0,0.0,
2025-08-14T22:32:25.994Z,1,GR86-016-55,-1.9,-0.009,0.016,7.73,0.0,,0.0,0.0,0.0
2025-08-14T22:32:26.037Z,1,GR86-016-55,-1.9,-0.004,0.016,7.74,0.0,,0.0,0.0,
2025-08-14T22:32:26.080Z,1,GR86-016-55,-1.9,-0.002,0.018,7.73,0.0,,0.0,0.0,
2025-08-14T22:32:26.123Z,1,GR86-016-55,-1.9,-0.005,0.023,7.74,0.0,,0.0,0.0,
2025-08-14T22:32:26.167Z,1,GR86-016-55,-1.9,-0.005,0.023,7.73,0.0,0.0,0.0,0.0,
2025-08-14T22:32:26.210Z,1,GR86-016-55,-1.9,-0.004,0.023,7.73,0.0,,0.0,0.0,0.0
2025-08-14T22:32:26.253Z,1,GR86-016-55,-1.9,-0.009,0.019,7.73,0.0,,0.0,0.0,
2025-08-14T22:32:26.296Z,1,GR86-016-55,-1.9,-0.005,0.019,7.72,0.0,,0.0,0.0,
2025-08-14T22:32:26.339Z,1,GR86-016-55,-1.9,-0.004,0.018,7.73,0.0,,0.0,0.0,
2025-08-14T22:32:26.382Z,1,GR86-016-55,-1.9,-0.004,0.018,7.73,0.0,0.0,0.0,0.0,
2025-08-14T22:32:26.425Z,1,GR86-016-55,-1.9,-0.007,0.02,7.73,0.0,,0.0,0.0,0.0
2025-08-14T22:32:26.468Z,1,GR86-016-55,-1.9,-0.007,0.023,7.73,0.0,,0.0,0.0,
2025-08-14T22:32:26.511Z,1,GR86-016-55,-1.9,-0.007,0.023,7.73,0.0,,0.0,0.0,
2025-08-14T22:32:26.555Z,1,GR86-016-55,-1.9,-0.007,0.023,7.72,0.0,,0.0,0.0,
2025-08-14T22:32:26.598Z,1,GR86-016-55,-1.9,-0.002,0.018,7.73,0.0,0.0,0.0,0.0,
2025-08-14T22:32:26.641Z,1,GR86-016-55,-1.9,-0.004,0.017,7.72,0.0,,0.0,0.0,0.0
2025-08-14T22:32:26.684Z,1,GR86-016-55,-1.9,-0.003,0.021,7.73,0.0,,0.0,0.0,
2025-08-14T22:32:26.727Z,1,GR86-016-55,-1.9,-0.007,0.023,7.73,0.0,,0.0,0.0,
2025-08-14T22:32:26.770Z,1,GR86-016-55,-1.9,-0.007,0.024,7.73,0.0,,0.0,0.0,
2025-08-14T22:32:26.813Z,1,GR86-016-55,-1.9,-0.004,0.021,7.73,0.0,0.0,0.0,0.0,
2025-08-14T22:32:26.856Z,1,GR86-016-55,-1.9,-0.003,0.022,7.73,0.0,,0.0,0.0,0.0
2025-08-14T22:32:26.899Z,1,GR86-016-55,-1.9,-0.004,0.018,7.72,0.0,,0.0,0.0,
2025-08-14T22:32:26.942Z,1,GR86-016-55,-1.9,-0.004,0.017,7.72,0.0,,0.0,0.0,
2025-08-14T22:32:26.985Z,1,GR86-016-55,-1.9,-0.007,0.023,7.73,0.0,,0.0,0.0,
2025-08-14T22:32:27.028Z,1,GR86-016-55,-1.9,-0.006,0.021,7.73,0.0,0.0,0.0,0.0,
2025-08-14T22:32:27.071Z,1,GR86-016-55,-1.9,-0.003,0.027,7.73,0.0,,0.0,0.0,0.0
2025-08-14T22:32:27.114Z,1,GR86-016-55,-1.9,-0.003,0.024,7.72,0.0,,0.0,0.0,
2025-08-14T22:32:27.157Z,1,GR86-016-55,-1.9,-0.006,0.023,7.73,0.0,,0.0,0.0,
2025-08-14T22:32:27.200Z,1,GR86-016-55,-1.9,-0.005,0.017,7.75,0.0,,0.0,0.0,
2025-08-14T22:32:27.243Z,1,GR86-016-55,-1.9,-0.005,0.017,7.73,0.0,0.0,0.0,0.0,
2025-08-14T22:32:27.287Z,1,GR86-016-55,-1.9,-0.003,0.02,7.72,0.0,,0.0,0.0,0.0
2025-08-14T22:32:27.330Z,1,GR86-016-55,-1.9,-0.008,0.024,7.73,0.0,,0.0,0.0,
2025-08-14T22:32:27.373Z,1,GR86-016-55,-1.9,-0.007,0.025,7.73,0.0,,0.0,0.0,
2025-08-14T22:32:27.416Z,1,GR86-016-55,-1.9,-0.004,0.024,7.73,0.0,,0.0,0.0,
2025-08-14T22:32:27.460Z,1,GR86-016-55,-1.9,-0.005,0.018,7.73,0.0,0.0,0.0,0.0,
2025-08-14T22:32:27.503Z,1,GR86-016-55,-1.9,-0.007,0.017,7.72,0.0,,0.0,0.0,0.0
2025-08-14T22:32:27.547Z,1,GR86-016-55,-1.9,-0.005,0.021,7.73,0.0,,0.0,0.0,
2025-08-14T22:32:27.590Z,1,GR86-016-55,-1.9,-0.005,0.023,7.73,0.0,,0.0,0.0,
2025-08-14T22:32:27.633Z,1,GR86-016-55,-1.9,-0.003,0.023,7.74,0.0,,0.0,0.0,
2025-08-14T22:32:27.676Z,1,GR86-016-55,-1.9,-0.005,0.02,7.72,0.0,0.0,0.0,0.0,
2025-08-14T22:32:27.719Z,1,GR86-016-55,-1.9,-0.004,0.017,7.74,0.0,,0.0,0.0,0.0
2025-08-14T22:32:27.762Z,1,GR86-016-55,-1.9,-0.007,0.02,7.73,0.0,,0.0,0.0,
2025-08-14T22:32:27.805Z,1,GR86-016-55,-1.9,-0.006,0.022,7.73,0.0,,0.0,0.0,
2025-08-14T22:32:27.848Z,1,GR86-016-55,-1.9,-0.006,0.022,7.73,0.0,,0.0,0.0,
2025-08-14T22:32:27.891Z,1,GR86-016-55,-1.9,-0.003,0.019,7.72,0.0,0.0,0.0,0.0,
2025-08-14T22:32:27.934Z,1,GR86-016-55,-1.9,-0.005,0.021,7.73,0.0,,0.0,0.0,0.0
2025-08-14T22:32:27.977Z,1,GR86-016-55,-1.9,-0.004,0.021,7.73,0.0,,0.0,0.0,
2025-08-14T22:32:28.021Z,1,GR86-016-55,-1.9,-0.007,0.022,7.74,0.0,,0.0,0.0,
2025-08-14T22:32:28.065Z,1,GR86-016-55,-1.9,-0.004,0.022,7.73,0.0,,0.0,0.0,
2025-08-14T22:32:28.108Z,1,GR86-016-55,-1.9,-0.005,0.022,7.73,0.0,0.0,0.0,0.0,
2025-08-14T22:32:28.151Z,1,GR86-016-55,-1.9,-0.007,0.019,7.73,0.0,,0.0,0.0,0.0
2025-08-14T22:32:28.194Z,1,GR86-016-55,-1.9,-0.006,0.017,7.72,0.0,,0.0,0.0,
2025-08-14T22:32:28.237Z,1,GR86-016-55,-1.9,-0.006,0.018,7.73,0.0,,0.0,0.0,
2025-08-14T22:32:28.280Z,1,GR86-016-55,-1.9,-0.007,0.023,7.73,0.0,,0.0,0.0,
2025-08-14T22:32:28.325Z,1,GR86-016-55,-1.9,-0.005,0.023,7.73,0.0,0.0,0.0,0.0,
2025-08-14T22:32:28.368Z,1,GR86-016-55,-1.9,-0.005,0.019,7.73,0.0,,0.0,0.0,0.0
2025-08-14T22:32:28.411Z,1,GR86-016-55,-1.9,-0.005,0.022,7.72,0.0,,0.0,0.0,
2025-08-14T22:32:28.454Z,1,GR86-016-55,-1.9,-0.005,0.019,7.72,0.0,,0.0,0.0,
2025-08-14T22:32:28.497Z,1,GR86-016-55,-1.9,-0.006,0.02,7.73,0.0,,0.0,0.0,
2025-08-14T22:32:28.541Z,1,GR86-016-55,-1.9,-0.009,0.023,7.73,0.0,0.0,0.0,0.0,
2025-08-14T22:32:28.584Z,1,GR86-016-55,-1.9,-0.007,0.024,7.73,0.0,,0.0,0.0,0.0
2025-08-14T22:32:28.627Z,1,GR86-016-55,-1.9,-0.003,0.026,7.72,0.0,,0.0,0.0,
2025-08-14T22:32:28.670Z,1,GR86-016-55,-1.9,-0.004,0.02,7.73,0.0,,0.0,0.0,
2025-08-14T22:32:28.713Z,1,GR86-016-55,-1.9,-0.004,0.022,7.73,0.0,,0.0,0.0,
2025-08-14T22:32:28.756Z,1,GR86-016-55,-1.9,-0.005,0.022,7.73,0.0,0.0,0.0,0.0,
2025-08-14T22:32:28.799Z,1,GR86-016-55,-1.9,-0.004,0.018,7.74,0.0,,0.0,0.0,0.0
2025-08-14T22:32:28.842Z,1,GR86-016-55,-1.9,-0.006,0.016,7.73,0.0,,0.0,0.0,
2025-08-14T22:32:28.885Z,1,GR86-016-55,-1.9,-0.004,0.018,7.73,0.0,,0.0,0.0,
2025-08-14T22:32:28.928Z,1,GR86-016-55,-1.9,-0.003,0.021,7.72,0.0,,0.0,0.0,
2025-08-14T22:32:28.971Z,1,GR86-016-55,-1.9,-0.005,0.022,7.73,0.0,0.0,0.0,0.0,
2025-08-14T22:32:29.014Z,1,GR86-016-55,-1.9,-0.001,0.024,7.73,0.0,,0.0,0.0,0.0
2025-08-14T22:32:29.057Z,1,GR86-016-55,-1.9,-0.004,0.023,7.73,0.0,,0.0,0.0,
2025-08-14T22:32:29.100Z,1,GR86-016-55,-1.9,-0.006,0.018,7.73,0.0,,0.0,0.0,
2025-08-14T22:32:29.143Z,1,GR86-016-55,-1.9,-0.006,0.016,7.73,0.0,,0.0,0.0,
2025-08-14T22:32:29.187Z,1,GR86-016-55,-1.9,-0.006,0.021,7.72,0.0,0.0,0.0,0.0,
2025-08-14T22:32:29.230Z,1,GR86-016-55,-1.9,-0.003,0.021,7.73,0.0,,0.0,0.0,0.0
2025-08-14T22:32:29.273Z,1,GR86-016-55,-1.9,-0.003,0.023,7.73,0.0,,0.0,0.0,
2025-08-14T22:32:29.316Z,1,GR86-016-55,-1.9,-0.004,0.025,7.73,0.0,,0.0,0.0,
2025-08-14T22:32:29.360Z,1,GR86-016-55,-1.9,-0.007,0.023,7.73,0.0,,0.0,0.0,
2025-08-14T22:32:29.405Z,1,GR86-016-55,-1.9,-0.006,0.019,7.73,0.0,0.0,0.0,0.0,
2025-08-14T22:32:29.448Z,1,GR86-016-55,-1.9,-0.005,0.017,7.73,0.0,,0.0,0.0,0.0
2025-08-14T22:32:29.491Z,1,GR86-016-55,-1.9,-0.003,0.017,7.73,0.0,,0.0,0.0,
2025-08-14T22:32:29.534Z,1,GR86-016-55,-1.9,-0.005,0.022,7.72,0.0,,0.0,0.0,
2025-08-14T22:32:29.577Z,1,GR86-016-55,-1.9,-0.003,0.024,7.72,0.0,,0.0,0.0,
2025-08-14T22:32:29.621Z,1,GR86-016-55,-1.9,-0.004,0.023,7.73,0.0,0.0,0.0,0.0,
2025-08-14T22:32:29.665Z,1,GR86-016-55,-1.9,-0.005,0.02,7.73,0.0,,0.0,0.0,0.0
2025-08-14T22:32:29.708Z,1,GR86-016-55,-1.9,-0.005,0.019,7.72,0.0,,0.0,0.0,
2025-08-14T22:32:29.751Z,1,GR86-016-55,-1.9,-0.004,0.021,7.73,0.0,,0.0,0.0,
2025-08-14T22:32:29.794Z,1,GR86-016-55,-1.9,-0.004,0.019,7.73,0.0,,0.0,0.0,
2025-08-14T22:32:29.880Z,1,GR86-016-55,-1.9,-0.005,0.022,7.73,0.0,0.0,0.0,0.0,0.0
2025-08-14T22:32:29.923Z,1,GR86-016-55,-1.9,-0.007,0.023,7.73,0.0,,0.0,0.0,
2025-08-14T22:32:29.967Z,1,GR86-016-55,-1.9,-0.004,0.02,7.73,0.0,,0.0,0.0,
2025-08-14T22:32:30.010Z,1,GR86-016-55,-1.9,-0.004,0.018,7.73,0.0,,0.0,0.0,
2025-08-14T22:32:30.053Z,1,GR86-016-55,-1.9,-0.002,0.019,7.73,0.0,0.0,0.0,0.0,
2025-08-14T22:32:30.096Z,1,GR86-016-55,-1.9,-0.005,0.022,7.73,0.0,,0.0,0.0,0.0
2025-08-14T22:32:30.139Z,1,GR86-016-55,-1.9,-0.003,0.023,7.73,0.0,,0.0,0.0,
2025-08-14T22:32:30.182Z,1,GR86-016-55,-1.9,-0.005,0.023,7.73,0.0,,0.0,0.0,
2025-08-14T22:32:30.225Z,1,GR86-016-55,-1.9,-0.005,0.02,7.73,0.0,,0.0,0.0,
2025-08-14T22:32:30.268Z,1,GR86-016-55,-1.9,-0.005,0.019,7.73,0.0,0.0,0.0,0.0,
2025-08-14T22:32:30.311Z,1,GR86-016-55,-1.9,-0.005,0.018,7.73,0.0,,0.0,0.0,0.0
2025-08-14T22:32:30.354Z,1,GR86-016-55,-1.9,-0.003,0.02,7.73,0.0,,0.0,0.0,
2025-08-14T22:32:30.397Z,1,GR86-016-55,-1.9,-0.005,0.023,7.72,0.0,,0.0,0.0,
2025-08-14T22:32:30.440Z,1,GR86-016-55,-1.9,-0.003,0.023,7.73,0.0,,0.0,0.0,
2025-08-14T22:32:30.483Z,1,GR86-016-55,-1.9,-0.01,0.021,7.72,0.0,0.0,0.0,0.0,
2025-08-14T22:32:30.526Z,1,GR86-016-55,-1.9,-0.007,0.02,7.73,0.0,,0.0,0.0,0.0
2025-08-14T22:32:30.570Z,1,GR86-016-55,-1.9,-0.003,0.018,7.73,0.0,,0.0,0.0,
2025-08-14T22:32:30.613Z,1,GR86-016-55,-1.9,-0.001,0.018,7.73,0.0,,0.0,0.0,
2025-08-14T22:32:30.656Z,1,GR86-016-55,-1.9,-0.002,0.022,7.73,0.0,,0.0,0.0,
2025-08-14T22:32:30.699Z,1,GR86-016-55,-1.9,-0.008,0.023,7.73,0.0,0.0,0.0,0.0,
2025-08-14T22:32:30.742Z,1,GR86-016-55,-1.9,-0.013,0.02,7.73,0.0,,0.0,0.0,0.0
2025-08-14T22:32:30.785Z,1,GR86-016-55,-1.9,-0.006,0.019,7.73,0.0,,0.0,0.0,
2025-08-14T22:32:30.828Z,1,GR86-016-55,-1.9,0.0,0.02,7.73,0.0,,0.0,0.0,
2025-08-14T22:32:30.871Z,1,GR86-016-55,-1.9,-0.006,0.019,7.73,0.0,,0.0,0.0,
2025-08-14T22:32:30.914Z,1,GR86-016-55,-1.9,0.0,0.022,7.73,0.0,0.0,0.0,0.0,
2025-08-14T22:32:30.957Z,1,GR86-016-55,-1.9,-0.005,0.025,7.73,0.0,,0.0,0.0,0.0
2025-08-14T22:32:31.000Z,1,GR86-016-55,-1.9,-0.008,0.022,7.73,0.0,,0.0,0.0,
2025-08-14T22:32:31.043Z,1,GR86-016-55,-1.9,-0.003,0.017,7.73,0.0,,0.0,0.0,
2025-08-14T22:32:31.087Z,1,GR86-016-55,-1.9,-0.004,0.02,7.73,0.0,,0.0,0.0,
2025-08-14T22:32:31.130Z,1,GR86-016-55,-1.9,-0.008,0.018,7.73,0.0,0.0,0.0,0.0,
2025-08-14T22:32:31.173Z,1,GR86-016-55,-1.9,-0.003,0.022,7.74,0.0,,0.0,0.0,0.0
2025-08-14T22:32:31.216Z,1,GR86-016-55,-1.9,-0.001,0.025,7.72,0.0,,0.0,0.0,
2025-08-14T22:32:31.260Z,1,GR86-016-55,-1.9,-0.005,0.022,7.73,0.0,,0.0,0.0,
2025-08-14T22:32:31.347Z,1,GR86-016-55,-1.9,-0.011,0.023,7.73,0.0,0.0,0.0,0.0,
2025-08-14T22:32:31.390Z,1,GR86-016-55,-1.9,-0.005,0.019,7.73,0.0,,0.0,0.0,0.0
2025-08-14T22:32:31.433Z,1,GR86-016-55,-1.9,-0.005,0.019,7.73,0.0,,0.0,0.0,
2025-08-14T22:32:31.476Z,1,GR86-016-55,-1.9,-0.002,0.022,7.73,0.0,,0.0,0.0,
2025-08-14T22:32:31.562Z,1,GR86-016-55,-1.9,-0.006,0.022,7.73,0.0,0.0,0.0,0.0,
2025-08-14T22:32:31.605Z,1,GR86-016-55,-1.9,-0.012,0.018,7.73,0.0,,0.0,0.0,0.0
2025-08-14T22:32:31.648Z,1,GR86-016-55,-1.9,-0.008,0.017,7.72,0.0,,0.0,0.0,
2025-08-14T22:32:31.691Z,1,GR86-016-55,-1.9,-0.004,0.022,7.73,0.0,,0.0,0.0,
2025-08-14T22:32:31.734Z,1,GR86-016-55,-1.9,-0.006,0.028,7.74,0.0,,0.0,0.0,
2025-08-14T22:32:31.777Z,1,GR86-016-55,-1.9,0.003,0.016,7.73,0.0,0.0,0.0,0.0,
2025-08-14T22:32:31.821Z,1,GR86-016-55,-1.9,-0.005,0.016,7.74,0.0,,0.0,0.0,0.0
2025-08-14T22:32:31.865Z,1,GR86-016-55,-1.9,-0.011,0.027,7.73,0.0,,0.0,0.0,
2025-08-14T22:32:31.908Z,1,GR86-016-55,-1.9,-0.008,0.026,7.73,0.0,,0.0,0.0,
2025-08-14T22:32:31.951Z,1,GR86-016-55,-1.9,-0.006,0.017,7.73,0.0,,0.0,0.0,
2025-08-14T22:32:31.994Z,1,GR86-016-55,-1.9,-0.002,0.019,7.73,0.0,0.0,0.0,0.0,
2025-08-14T22:32:32.037Z,1,GR86-016-55,-1.9,-0.001,0.017,7.73,0.0,,0.0,0.0,0.0
2025-08-14T22:32:32.080Z,1,GR86-016-55,-1.9,-0.005,0.017,7.73,0.0,,0.0,0.0,
2025-08-14T22:32:32.123Z,1,GR86-016-55,-1.9,-0.009,0.021,7.72,0.0,,0.0,0.0,
2025-08-14T22:32:32.167Z,1,GR86-016-55,-1.9,-0.008,0.029,7.73,0.0,,0.0,0.0,
2025-08-14T22:32:32.210Z,1,GR86-016-55,-1.9,-0.004,0.027,7.72,0.0,0.0,0.0,0.0,
2025-08-14T22:32:32.253Z,1,GR86-016-55,-1.9,-0.003,0.023,7.73,0.0,,0.0,0.0,0.0
2025-08-14T22:32:32.296Z,1,GR86-016-55,-1.9,-0.001,0.018,7.73,0.0,,0.0,0.0,
2025-08-14T22:32:32.339Z,1,GR86-016-55,-1.9,-0.004,0.015,7.74,0.0,,0.0,0.0,
2025-08-14T22:32:32.382Z,1,GR86-016-55,-1.9,-0.006,0.018,7.74,0.0,,0.0,0.0,
2025-08-14T22:32:32.425Z,1,GR86-016-55,-1.9,-0.005,0.02,7.74,0.0,0.0,0.0,0.0,
2025-08-14T22:32:32.468Z,1,GR86-016-55,-1.9,-0.007,0.024,7.72,0.0,,0.0,0.0,0.0
2025-08-14T22:32:32.511Z,1,GR86-016-55,-1.9,-0.003,0.026,7.73,0.0,,0.0,0.0,
2025-08-14T22:32:32.555Z,1,GR86-016-55,-1.9,-0.005,0.02,7.73,0.0,,0.0,0.0,
2025-08-14T22:32:32.598Z,1,GR86-016-55,-1.9,-0.005,0.021,7.74,0.0,,0.0,0.0,
2025-08-14T22:32:32.641Z,1,GR86-016-55,-1.9,-0.005,0.02,7.73,0.0,0.0,0.0,0.0,
2025-08-14T22:32:32.684Z,1,GR86-016-55,-1.9,-0.002,0.02,7.75,0.0,,0.0,0.0,0.0
2025-08-14T22:32:32.727Z,1,GR86-016-55,-1.9,-0.003,0.018,7.73,0.0,,0.0,0.0,
2025-08-14T22:32:32.770Z,1,GR86-016-55,-1.9,-0.007,0.017,7.72,0.0,,0.0,0.0,
2025-08-14T22:32:32.813Z,1,GR86-016-55,-1.9,-0.006,0.022,7.72,0.0,,0.0,0.0,
2025-08-14T22:32:32.856Z,1,GR86-016-55,-1.9,-0.007,0.023,7.75,0.0,0.0,0.0,0.0,
2025-08-14T22:32:32.899Z,1,GR86-016-55,-1.9,-0.003,0.021,7.74,0.0,,0.0,0.0,0.0
2025-08-14T22:32:32.942Z,1,GR86-016-55,-1.9,-0.004,0.019,7.73,0.0,,0.0,0.0,
2025-08-14T22:32:32.985Z,1,GR86-016-55,-1.9,-0.004,0.019,7.72,0.0,,0.0,0.0,
2025-08-14T22:32:33.028Z,1,GR86-016-55,-1.9,-0.006,0.018,7.73,0.0,,0.0,0.0,
2025-08-14T22:32:33.071Z,1,GR86-016-55,-1.9,-0.006,0.023,7.73,0.0,0.0,0.0,0.0,
2025-08-14T22:32:33.114Z,1,GR86-016-55,-1.9,-0.008,0.023,7.73,0.0,,0.0,0.0,0.0
2025-08-14T22:32:33.157Z,1,GR86-016-55,-1.9,-0.007,0.021,7.73,0.0,,0.0,0.0,
2025-08-14T22:32:33.200Z,1,GR86-016-55,-1.9,-0.005,0.016,7.73,0.0,,0.0,0.0,
2025-08-14T22:32:33.243Z,1,GR86-016-55,-1.9,0.0,0.019,7.73,0.0,,0.0,0.0,
2025-08-14T22:32:33.287Z,1,GR86-016-55,-1.9,-0.005,0.021,7.73,0.0,0.0,0.0,0.0,
2025-08-14T22:32:33.330Z,1,GR86-016-55,-1.9,-0.005,0.027,7.73,0.0,,0.0,0.0,0.0
2025-08-14T22:32:33.373Z,1,GR86-016-55,-1.9,-0.009,0.026,7.72,0.0,,0.0,0.0,
2025-08-14T22:32:33.416Z,1,GR86-016-55,-1.9,-0.007,0.024,7.73,0.0,,0.0,0.0,
2025-08-14T22:32:33.460Z,1,GR86-016-55,-1.9,-0.003,0.019,7.73,0.0,,0.0,0.0,
2025-08-14T22:32:33.503Z,1,GR86-016-55,-1.9,-0.005,0.013,7.73,0.0,0.0,0.0,0.0,
2025-08-14T22:32:33.547Z,1,GR86-016-55,-1.9,-0.005,0.018,7.74,0.0,,0.0,0.0,0.0
2025-08-14T22:32:33.590Z,1,GR86-016-55,-1.9,-0.006,0.02,7.73,0.0,,0.0,0.0,
2025-08-14T22:32:33.633Z,1,GR86-016-55,-1.9,-0.008,0.028,7.73,0.0,,0.0,0.0,
2025-08-14T22:32:33.676Z,1,GR86-016-55,-1.9,-0.007,0.025,7.73,0.0,,0.0,0.0,
2025-08-14T22:32:33.719Z,1,GR86-016-55,-1.9,-0.002,0.022,7.72,0.0,0.0,0.0,0.0,
2025-08-14T22:32:33.762Z,1,GR86-016-55,-1.9,-0.002,0.017,7.73,0.0,,0.0,0.0,0.0
2025-08-14T22:32:33.805Z,1,GR86-016-55,-1.9,-0.008,0.015,7.74,0.0,,0.0,0.0,
2025-08-14T22:32:33.848Z,1,GR86-016-55,-1.9,-0.009,0.019,7.73,0.0,,0.0,0.0,
2025-08-14T22:32:33.891Z,1,GR86-016-55,-1.9,-0.005,0.024,7.74,0.0,,0.0,0.0,
2025-08-14T22:32:33.934Z,1,GR86-016-55,-1.9,-0.005,0.024,7.72,0.0,0.0,0.0,0.0,
2025-08-14T22:32:33.977Z,1,GR86-016-55,-1.9,-0.005,0.027,7.72,0.0,,0.0,0.0,0.0
2025-08-14T22:32:34.021Z,1,GR86-016-55,-1.9,-0.004,0.02,7.73,0.0,,0.0,0.0,
2025-08-14T22:32:34.065Z,1,GR86-016-55,-1.9,-0.007,0.014,7.73,0.0,,0.0,0.0,
2025-08-14T22:32:34.108Z,1,GR86-016-55,-1.9,-0.003,0.018,7.72,0.0,,0.0,0.0,
2025-08-14T22:32:34.151Z,1,GR86-016-55,-1.9,-0.005,0.018,7.72,0.0,0.0,0.0,0.0,
2025-08-14T22:32:34.194Z,1,GR86-016-55,-1.9,-0.007,0.024,7.74,0.0,,0.0,0.0,0.0
2025-08-14T22:32:34.237Z,1,GR86-016-55,-1.9,-0.006,0.024,7.73,0.0,,0.0,0.0,
2025-08-14T22:32:34.280Z,1,GR86-016-55,-1.9,-0.008,0.021,7.73,0.0,,0.0,0.0,
2025-08-14T22:32:34.325Z,1,GR86-016-55,-1.9,-0.005,0.018,7.73,0.0,,0.0,0.0,
2025-08-14T22:32:34.368Z,1,GR86-016-55,-1.9,-0.003,0.018,7.73,0.0,0.0,0.0,0.0,
2025-08-14T22:32:34.411Z,1,GR86-016-55,-1.9,-0.003,0.017,7.73,0.0,,0.0,0.0,0.0
2025-08-14T22:32:34.454Z,1,GR86-016-55,-1.9,-0.004,0.023,7.74,0.0,,0.0,0.0,
2025-08-14T22:32:34.497Z,1,GR86-016-55,-1.9,-0.008,0.025,7.74,0.0,,0.0,0.0,
2025-08-14T22:32:34.541Z,1,GR86-016-55,-1.9,-0.008,0.025,7.73,0.0,,0.0,0.0,
2025-08-14T22:32:34.584Z,1,GR86-016-55,-1.9,-0.007,0.022,7.73,0.0,0.0,0.0,0.0,
2025-08-14T22:32:34.627Z,1,GR86-016-55,-1.9,-0.003,0.019,7.73,0.0,,0.0,0.0,0.0
2025-08-14T22:32:34.670Z,1,GR86-016-55,-1.9,-0.005,0.019,7.72,0.0,,0.0,0.0,
2025-08-14T22:32:34.713Z,1,GR86-016-55,-1.9,-0.004,0.017,7.72,0.0,,0.0,0.0,
2025-08-14T22:32:34.756Z,1,GR86-016-55,-1.9,-0.005,0.019,7.73,0.0,,0.0,0.0,
2025-08-14T22:32:34.799Z,1,GR86-016-55,-1.9,-0.005,0.022,7.73,0.0,0.0,0.0,0.0,
2025-08-14T22:32:34.842Z,1,GR86-016-55,-1.9,-0.008,0.024,7.72,0.0,,0.0,0.0,0.0
2025-08-14T22:32:34.885Z,1,GR86-016-55,-1.9,-0.006,0.02,7.73,0.0,,0.0,0.0,
2025-08-14T22:32:34.928Z,1,GR86-016-55,-1.9,-0.002,0.019,7.72,0.0,,0.0,0.0,
2025-08-14T22:32:34.971Z,1,GR86-016-55,-1.9,-0.002,0.017,7.73,0.0,,0.0,0.0,
2025-08-14T22:32:35.014Z,1,GR86-016-55,-1.9,-0.005,0.018,7.73,0.0,0.0,0.0,0.0,
2025-08-14T22:32:35.057Z,1,GR86-016-55,-1.9,-0.004,0.021,7.73,0.0,,0.0,0.0,0.0
2025-08-14T22:32:35.100Z,1,GR86-016-55,-1.9,-0.005,0.024,7.73,0.0,,0.0,0.0,
2025-08-14T22:32:35.143Z,1,GR86-016-55,-1.9,-0.009,0.023,7.72,0.0,,0.0,0.0,
2025-08-14T22:32:35.187Z,1,GR86-016-55,-1.9,-0.004,0.019,7.72,0.0,,0.0,0.0,
2025-08-14T22:32:35.230Z,1,GR86-016-55,-1.9,-0.004,0.018,7.72,0.0,0.0,0.0,0.0,
2025-08-14T22:32:35.273Z,1,GR86-016-55,-1.9,-0.003,0.019,7.74,0.0,,0.0,0.0,0.0
2025-08-14T22:32:35.316Z,1,GR86-016-55,-1.9,-0.005,0.017,7.74,0.0,,0.0,0.0,
2025-08-14T22:32:35.360Z,1,GR86-016-55,-1.9,-0.005,0.024,7.73,0.0,,0.0,0.0,
2025-08-14T22:32:35.405Z,1,GR86-016-55,-1.9,-0.007,0.023,7.75,0.0,,0.0,0.0,
2025-08-14T22:32:35.448Z,1,GR86-016-55,-1.9,-0.006,0.022,7.72,0.0,0.0,0.0,0.0,
2025-08-14T22:32:35.491Z,1,GR86-016-55,-1.9,-0.007,0.019,7.73,0.0,,0.0,0.0,0.0
2025-08-14T22:32:35.534Z,1,GR86-016-55,-1.9,-0.003,0.017,7.72,0.0,,0.0,0.0,
2025-08-14T22:32:35.577Z,1,GR86-016-55,-1.9,-0.006,0.018,7.73,0.0,,0.0,0.0,
2025-08-14T22:32:35.621Z,1,GR86-016-55,-1.9,-0.004,0.023,7.73,0.0,,0.0,0.0,
2025-08-14T22:32:35.665Z,1,GR86-016-55,-1.9,-0.004,0.022,7.73,0.0,0.0,0.0,0.0,
2025-08-14T22:32:35.708Z,1,GR86-016-55,-1.9,-0.006,0.022,7.73,0.0,,0.0,0.0,0.0
2025-08-14T22:32:35.751Z,1,GR86-016-55,-1.9,-0.004,0.021,7.72,0.0,,0.0,0.0,
2025-08-14T22:32:35.794Z,1,GR86-016-55,-1.9,-0.006,0.019,7.72,0.0,,0.0,0.0,
2025-08-14T22:32:35.837Z,1,GR86-016-55,-1.9,-0.004,0.017,7.73,0.0,,0.0,0.0,
2025-08-14T22:32:35.880Z,1,GR86-016-55,-1.9,-0.005,0.021,7.73,0.0,0.0,0.0,0.0,
2025-08-14T22:32:35.923Z,1,GR86-016-55,-1.9,-0.004,0.021,7.73,0.0,,0.0,0.0,0.0
2025-08-14T22:32:35.967Z,1,GR86-016-55,-1.9,-0.008,0.022,7.73,0.0,,0.0,0.0,
2025-08-14T22:32:36.010Z,1,GR86-016-55,-1.9,-0.004,0.023,7.73,0.0,,0.0,0.0,
2025-08-14T22:32:36.053Z,1,GR86-016-55,-1.9,-0.006,0.02,7.73,0.0,,0.0,0.0,
2025-08-14T22:32:36.096Z,1,GR86-016-55,-1.9,-0.004,0.019,7.73,0.0,0.0,0.0,0.0,
2025-08-14T22:32:36.139Z,1,GR86-016-55,-1.9,-0.004,0.02,7.72,0.0,,0.0,0.0,0.0
2025-08-14T22:32:36.182Z,1,GR86-016-55,-1.9,-0.004,0.019,7.74,0.0,,0.0,0.0,
2025-08-14T22:32:36.225Z,1,GR86-016-55,-1.9,-0.004,0.024,7.72,0.0,,0.0,0.0,
2025-08-14T22:32:36.268Z,1,GR86-016-55,-1.9,-0.003,0.019,7.73,0.0,,0.0,0.0,
2025-08-14T22:32:36.311Z,1,GR86-016-55,-1.9,-0.003,0.02,7.72,0.0,0.0,0.0,0.0,
