timestamp,lap,vehicle_id,steering_angle,accx_can,accy_can,ath,gear,nmot,pbrake_f,pbrake_r,speed
2025-08-14T22:51:31.871Z,6,GR86-035-11,0.6000000000000001,0.109,-0.011,100.03,4.0,,0.0,0.0,
2025-08-14T22:51:31.914Z,6,GR86-035-11,0.6000000000000001,0.082,-0.026,100.02,4.0,,0.0,0.0,
2025-08-14T22:51:31.957Z,6,GR86-035-11,0.6000000000000001,0.117,-0.056,99.97,4.0,,0.0,0.0,
2025-08-14T22:51:32.000Z,6,GR86-035-11,0.6000000000000001,0.104,-0.044,99.99,4.0,6917.0,0.0,0.0,
2025-08-14T22:51:32.043Z,6,GR86-035-11,0.6000000000000001,0.102,-0.035,99.99,4.0,,0.0,0.0,175.32
2025-08-14T22:51:32.086Z,6,GR86-035-11,0.6000000000000001,0.095,-0.034,99.99,4.0,,0.0,0.0,
2025-08-14T22:51:32.129Z,6,GR86-035-11,1.2000000000000002,0.08,-0.014,100.01,4.0,,0.0,0.0,
2025-08-14T22:51:32.172Z,6,GR86-035-11,1.5,0.084,-0.016,100.03,4.0,,0.0,0.0,
2025-08-14T22:51:32.215Z,6,GR86-035-11,1.5,0.123,-0.023,99.99,4.0,6957.0,0.0,0.0,
2025-08-14T22:51:32.260Z,6,GR86-035-11,1.5,0.13,-0.02,99.98,4.0,,0.0,0.0,176.04
2025-08-14T22:51:32.303Z,6,GR86-035-11,1.5,0.138,-0.013,99.99,4.0,,0.0,0.0,
2025-08-14T22:51:32.346Z,6,GR86-035-11,1.5,0.114,-0.002,99.99,4.0,,0.0,0.0,
2025-08-14T22:51:32.389Z,6,GR86-035-11,1.5,0.117,-0.001,99.98,4.0,,0.0,0.0,
2025-08-14T22:51:32.432Z,6,GR86-035-11,1.5,0.109,-0.001,100.0,4.0,7000.0,0.0,0.0,
2025-08-14T22:51:32.477Z,6,GR86-035-11,1.5,0.078,0.03,100.01,4.0,,0.0,0.0,177.51
2025-08-14T22:51:32.520Z,6,GR86-035-11,1.5,0.09,0.047,99.98,4.0,,0.0,0.0,
2025-08-14T22:51:32.563Z,6,GR86-035-11,1.5,0.08,0.056,100.0,4.0,,0.0,0.0,
2025-08-14T22:51:32.606Z,6,GR86-035-11,1.5,0.09,0.054,99.99,4.0,,0.0,0.0,
2025-08-14T22:51:32.649Z,6,GR86-035-11,1.5,0.079,0.043,99.97,4.0,7024.0,0.0,0.0,
2025-08-14T22:51:32.692Z,6,GR86-035-11,1.5,0.087,0.028,99.99,4.0,,0.0,0.0,178.22
2025-08-14T22:51:32.735Z,6,GR86-035-11,1.3,0.119,0.004,100.03,4.0,,0.0,0.0,
2025-08-14T22:51:32.778Z,6,GR86-035-11,1.3,0.1,0.007,100.02,4.0,,0.0,0.0,
2025-08-14T22:51:32.821Z,6,GR86-035-11,1.2000000000000002,0.108,0.013,100.03,4.0,,0.0,0.0,
2025-08-14T22:51:32.864Z,6,GR86-035-11,1.2000000000000002,0.107,0.005,100.0,4.0,7049.0,0.0,0.0,
2025-08-14T22:51:32.907Z,6,GR86-035-11,1.2000000000000002,0.103,-0.003,100.0,4.0,,0.0,0.0,178.98
2025-08-14T22:51:32.950Z,6,GR86-035-11,1.2000000000000002,0.109,-0.01,99.98,4.0,,0.0,0.0,
2025-08-14T22:51:32.993Z,6,GR86-035-11,1.2000000000000002,0.103,-0.019,99.97,4.0,,0.0,0.0,
2025-08-14T22:51:33.037Z,6,GR86-035-11,1.2000000000000002,0.091,-0.016,100.03,4.0,,0.0,0.0,
2025-08-14T22:51:33.080Z,6,GR86-035-11,1.2000000000000002,0.093,-0.02,100.0,4.0,7100.0,0.0,0.0,
2025-08-14T22:51:33.123Z,6,GR86-035-11,1.2000000000000002,0.09,-0.037,99.99,4.0,,0.0,0.0,179.72
2025-08-14T22:51:33.166Z,6,GR86-035-11,1.2000000000000002,0.083,-0.058,99.95,4.0,,0.0,0.0,
2025-08-14T22:51:33.209Z,6,GR86-035-11,1.2000000000000002,0.093,-0.048,99.98,4.0,,0.0,0.0,
2025-08-14T22:51:33.252Z,6,GR86-035-11,1.2000000000000002,0.104,-0.045,100.01,4.0,,0.0,0.0,
2025-08-14T22:51:33.295Z,6,GR86-035-11,1.2000000000000002,0.095,-0.009,99.97,4.0,7129.0,0.0,0.0,
2025-08-14T22:51:33.338Z,6,GR86-035-11,1.1,0.089,-0.032,99.98,4.0,,0.0,0.0,180.39
2025-08-14T22:51:33.381Z,6,GR86-035-11,1.1,0.09,-0.027,99.98,4.0,,0.0,0.0,
2025-08-14T22:51:33.424Z,6,GR86-035-11,1.1,0.093,-0.015,100.03,4.0,,0.0,0.0,
2025-08-14T22:51:33.468Z,6,GR86-035-11,1.1,0.091,0.005,100.03,4.0,,0.0,0.0,
2025-08-14T22:51:33.511Z,6,GR86-035-11,1.4,0.099,-0.004,100.02,4.0,7160.0,0.0,0.0,
2025-08-14T22:51:33.554Z,6,GR86-035-11,1.6,0.086,-0.006,100.0,4.0,,0.0,0.0,181.11
2025-08-14T22:51:33.597Z,6,GR86-035-11,2.3000000000000003,0.072,-0.019,100.02,4.0,,0.0,0.0,
2025-08-14T22:51:33.641Z,6,GR86-035-11,2.3000000000000003,0.071,-0.004,99.98,4.0,,0.0,0.0,
2025-08-14T22:51:33.684Z,6,GR86-035-11,2.3000000000000003,0.086,0.001,99.96,4.0,,0.0,0.0,
2025-08-14T22:51:33.727Z,6,GR86-035-11,2.3000000000000003,0.102,0.013,99.99,4.0,7186.0,0.0,0.0,
2025-08-14T22:51:33.770Z,6,GR86-035-11,2.3000000000000003,0.083,0.03,100.02,4.0,,0.0,0.0,181.91
2025-08-14T22:51:33.813Z,6,GR86-035-11,2.3000000000000003,0.08,0.023,100.01,4.0,,0.0,0.0,
2025-08-14T22:51:33.856Z,6,GR86-035-11,2.3000000000000003,0.092,0.02,100.01,4.0,,0.0,0.0,
2025-08-14T22:51:33.900Z,6,GR86-035-11,2.3000000000000003,0.075,0.038,100.0,4.0,,0.0,0.0,
2025-08-14T22:51:33.943Z,6,GR86-035-11,2.3000000000000003,0.098,0.041,99.99,4.0,7206.0,0.0,0.0,
2025-08-14T22:51:33.986Z,6,GR86-035-11,2.3000000000000003,0.082,0.041,99.96,4.0,,0.0,0.0,182.54
2025-08-14T22:51:34.029Z,6,GR86-035-11,2.3000000000000003,0.088,0.05,100.0,4.0,,0.0,0.0,
2025-08-14T22:51:34.072Z,6,GR86-035-11,2.3000000000000003,0.091,0.036,100.03,4.0,,0.0,0.0,
2025-08-14T22:51:34.117Z,6,GR86-035-11,2.3000000000000003,0.085,0.046,100.0,4.0,,0.0,0.0,
2025-08-14T22:51:34.161Z,6,GR86-035-11,2.3000000000000003,0.09,0.046,100.03,4.0,7228.0,0.0,0.0,
2025-08-14T22:51:34.204Z,6,GR86-035-11,2.3000000000000003,0.091,0.044,99.97,4.0,,0.0,0.0,183.13
2025-08-14T22:51:34.247Z,6,GR86-035-11,2.3000000000000003,0.092,0.029,99.97,4.0,,0.0,0.0,
2025-08-14T22:51:34.290Z,6,GR86-035-11,2.3000000000000003,-0.012,0.034,99.97,4.0,,0.0,0.0,
2025-08-14T22:51:34.333Z,6,GR86-035-11,2.3000000000000003,-0.135,0.074,99.98,5.0,,0.0,0.0,
2025-08-14T22:51:34.377Z,6,GR86-035-11,2.3000000000000003,0.167,0.023,99.99,5.0,7264.0,0.0,0.0,
2025-08-14T22:51:34.420Z,6,GR86-035-11,2.3000000000000003,0.142,0.026,99.99,5.0,,0.0,0.0,183.76
2025-08-14T22:51:34.463Z,6,GR86-035-11,2.3000000000000003,0.037,0.082,100.0,5.0,,0.0,0.0,
2025-08-14T22:51:34.506Z,6,GR86-035-11,2.3000000000000003,0.008,0.012,100.0,5.0,,0.0,0.0,
2025-08-14T22:51:34.549Z,6,GR86-035-11,2.3000000000000003,0.056,0.036,100.0,5.0,,0.0,0.0,
2025-08-14T22:51:34.592Z,6,GR86-035-11,2.3000000000000003,0.087,0.071,99.97,5.0,6264.0,0.0,0.0,
2025-08-14T22:51:34.635Z,6,GR86-035-11,2.3000000000000003,0.077,-0.001,100.0,5.0,,0.0,0.0,184.31
2025-08-14T22:51:34.680Z,6,GR86-035-11,2.3000000000000003,0.064,0.033,99.98,5.0,,0.0,0.0,
2025-08-14T22:51:34.723Z,6,GR86-035-11,2.3000000000000003,0.083,0.046,100.0,5.0,,0.0,0.0,
2025-08-14T22:51:34.766Z,6,GR86-035-11,2.3000000000000003,0.062,0.036,99.99,5.0,,0.0,0.0,
2025-08-14T22:51:34.809Z,6,GR86-035-11,2.3000000000000003,0.088,0.033,99.99,5.0,6322.0,0.0,0.0,
2025-08-14T22:51:34.852Z,6,GR86-035-11,2.3000000000000003,0.078,0.028,100.01,5.0,,0.0,0.0,185.06
2025-08-14T22:51:34.895Z,6,GR86-035-11,2.3000000000000003,0.071,0.02,100.0,5.0,,0.0,0.0,
2025-08-14T22:51:34.938Z,6,GR86-035-11,2.3000000000000003,0.064,0.018,99.98,5.0,,0.0,0.0,
2025-08-14T22:51:34.981Z,6,GR86-035-11,2.3000000000000003,0.086,0.013,100.02,5.0,,0.0,0.0,
2025-08-14T22:51:35.024Z,6,GR86-035-11,2.3000000000000003,0.082,0.04,99.97,5.0,6341.0,0.0,0.0,
2025-08-14T22:51:35.067Z,6,GR86-035-11,2.3000000000000003,0.075,0.033,100.0,5.0,,0.0,0.0,185.57
2025-08-14T22:51:35.110Z,6,GR86-035-11,2.3000000000000003,0.078,0.013,100.0,5.0,,0.0,0.0,
2025-08-14T22:51:35.154Z,6,GR86-035-11,2.3000000000000003,0.088,0.023,99.99,5.0,,0.0,0.0,
2025-08-14T22:51:35.197Z,6,GR86-035-11,2.3000000000000003,0.056,0.04,100.02,5.0,,0.0,0.0,
2025-08-14T22:51:35.240Z,6,GR86-035-11,2.2,0.051,0.044,99.99,5.0,6354.0,0.0,0.0,
2025-08-14T22:51:35.283Z,6,GR86-035-11,2.2,0.061,0.034,100.01,5.0,,0.0,0.0,186.62
2025-08-14T22:51:35.326Z,6,GR86-035-11,2.2,0.048,0.029,100.0,5.0,,0.0,0.0,
2025-08-14T22:51:35.369Z,6,GR86-035-11,2.2,0.059,0.045,99.98,5.0,,0.0,0.0,
2025-08-14T22:51:35.412Z,6,GR86-035-11,2.2,0.061,0.039,100.0,5.0,,0.0,0.0,
2025-08-14T22:51:35.455Z,6,GR86-035-11,2.2,0.063,0.023,100.01,5.0,6390.0,0.0,0.0,
2025-08-14T22:51:35.498Z,6,GR86-035-11,2.2,0.059,0.033,100.03,5.0,,0.0,0.0,187.14
2025-08-14T22:51:35.542Z,6,GR86-035-11,2.2,0.056,0.044,100.0,5.0,,0.0,0.0,
2025-08-14T22:51:35.585Z,6,GR86-035-11,2.2,0.048,0.047,100.02,5.0,,0.0,0.0,
2025-08-14T22:51:35.628Z,6,GR86-035-11,2.2,0.07,0.037,100.0,5.0,,0.0,0.0,
2025-08-14T22:51:35.671Z,6,GR86-035-11,2.2,0.058,0.038,100.01,5.0,6408.0,0.0,0.0,
2025-08-14T22:51:35.713Z,6,GR86-035-11,2.2,0.049,0.039,99.99,5.0,,0.0,0.0,187.74
2025-08-14T22:51:35.757Z,6,GR86-035-11,2.0,0.087,0.018,100.03,5.0,,0.0,0.0,
2025-08-14T22:51:35.800Z,6,GR86-035-11,1.8,0.075,0.034,99.99,5.0,,0.0,0.0,
2025-08-14T22:51:35.843Z,6,GR86-035-11,1.5,0.086,0.015,99.99,5.0,,0.0,0.0,
2025-08-14T22:51:35.886Z,6,GR86-035-11,1.1,0.072,0.011,100.01,5.0,6455.0,0.0,0.0,
2025-08-14T22:51:35.929Z,6,GR86-035-11,0.6000000000000001,0.071,0.002,99.99,5.0,,0.0,0.0,188.37
2025-08-14T22:51:35.972Z,6,GR86-035-11,0.0,0.061,-0.006,100.0,5.0,,0.0,0.0,
2025-08-14T22:51:36.015Z,6,GR86-035-11,-0.1,0.077,0.002,100.02,5.0,,0.0,0.0,
2025-08-14T22:51:36.058Z,6,GR86-035-11,-0.1,0.074,-0.032,100.0,5.0,,0.0,0.0,
2025-08-14T22:51:36.101Z,6,GR86-035-11,-0.7000000000000001,0.078,-0.045,99.99,5.0,6467.0,0.0,0.0,
2025-08-14T22:51:36.144Z,6,GR86-035-11,-1.2000000000000002,0.076,-0.068,100.01,5.0,,0.0,0.0,189.11
2025-08-14T22:51:36.187Z,6,GR86-035-11,-1.3,0.08,-0.068,99.99,5.0,,0.0,0.0,
2025-08-14T22:51:36.230Z,6,GR86-035-11,-1.3,0.061,-0.073,100.0,5.0,,0.0,0.0,
2025-08-14T22:51:36.273Z,6,GR86-035-11,-1.3,0.088,-0.081,100.01,5.0,,0.0,0.0,
2025-08-14T22:51:36.316Z,6,GR86-035-11,-1.3,0.073,-0.089,100.0,5.0,6494.0,0.0,0.0,
2025-08-14T22:51:36.360Z,6,GR86-035-11,-1.3,0.048,-0.118,100.02,5.0,,0.0,0.0,189.67
2025-08-14T22:51:36.403Z,6,GR86-035-11,-1.3,0.054,-0.126,99.97,5.0,,0.0,0.0,
2025-08-14T22:51:36.446Z,6,GR86-035-11,-1.3,0.064,-0.126,100.02,5.0,,0.0,0.0,
2025-08-14T22:51:36.489Z,6,GR86-035-11,-1.3,0.064,-0.155,99.99,5.0,,0.0,0.0,
2025-08-14T22:51:36.532Z,6,GR86-035-11,-1.3,0.078,-0.134,100.0,5.0,6506.0,0.0,0.0,
2025-08-14T22:51:36.576Z,6,GR86-035-11,-1.4,0.057,-0.147,100.0,5.0,,0.0,0.0,190.35
2025-08-14T22:51:36.620Z,6,GR86-035-11,-1.4,0.043,-0.124,100.0,5.0,,0.0,0.0,
2025-08-14T22:51:36.663Z,6,GR86-035-11,-1.4,0.081,-0.108,100.0,5.0,,0.0,0.0,
2025-08-14T22:51:36.706Z,6,GR86-035-11,-1.4,0.057,-0.134,100.0,5.0,,0.0,0.0,
2025-08-14T22:51:36.749Z,6,GR86-035-11,-1.4,0.066,-0.121,99.99,5.0,6535.0,0.0,0.0,
2025-08-14T22:51:36.792Z,6,GR86-035-11,-1.4,0.06,-0.116,100.0,5.0,,0.0,0.0,190.94
2025-08-14T22:51:36.835Z,6,GR86-035-11,-1.4,0.067,-0.139,100.0,5.0,,0.0,0.0,
2025-08-14T22:51:36.878Z,6,GR86-035-11,-1.2000000000000002,0.053,-0.138,100.01,5.0,,0.0,0.0,
2025-08-14T22:51:36.921Z,6,GR86-035-11,-1.0,0.056,-0.129,99.99,5.0,,0.0,0.0,
2025-08-14T22:51:36.964Z,6,GR86-035-11,-1.1,0.063,-0.126,100.02,5.0,6548.0,0.0,0.0,
2025-08-14T22:51:37.007Z,6,GR86-035-11,-1.0,0.053,-0.109,99.99,5.0,,0.0,0.0,191.61
2025-08-14T22:51:37.050Z,6,GR86-035-11,-1.0,0.062,-0.102,100.02,5.0,,0.0,0.0,
2025-08-14T22:51:37.093Z,6,GR86-035-11,-1.1,0.068,-0.086,99.97,5.0,,0.0,0.0,
2025-08-14T22:51:37.136Z,6,GR86-035-11,-1.1,0.062,-0.081,100.0,5.0,,0.0,0.0,
2025-08-14T22:51:37.180Z,6,GR86-035-11,-1.2000000000000002,0.06,-0.111,100.02,5.0,6573.0,0.0,0.0,
2025-08-14T22:51:37.223Z,6,GR86-035-11,-1.2000000000000002,0.067,-0.101,99.99,5.0,,0.0,0.0,192.23
2025-08-14T22:51:37.267Z,6,GR86-035-11,-1.2000000000000002,0.077,-0.077,100.0,5.0,,0.0,0.0,
2025-08-14T22:51:37.311Z,6,GR86-035-11,-1.2000000000000002,0.068,-0.091,100.0,5.0,,0.0,0.0,
2025-08-14T22:51:37.354Z,6,GR86-035-11,-1.2000000000000002,0.072,-0.077,100.0,5.0,,0.0,0.0,
2025-08-14T22:51:37.397Z,6,GR86-035-11,-1.2000000000000002,0.058,-0.107,100.0,5.0,6588.0,0.0,0.0,
2025-08-14T22:51:37.440Z,6,GR86-035-11,-1.2000000000000002,0.066,-0.077,100.01,5.0,,0.0,0.0,192.8
2025-08-14T22:51:37.483Z,6,GR86-035-11,-1.3,0.066,-0.083,99.97,5.0,,0.0,0.0,
2025-08-14T22:51:37.526Z,6,GR86-035-11,-1.3,0.073,-0.089,99.99,5.0,,0.0,0.0,
2025-08-14T22:51:37.570Z,6,GR86-035-11,-1.4,0.081,-0.095,100.0,5.0,,0.0,0.0,
2025-08-14T22:51:37.613Z,6,GR86-035-11,-1.5,0.077,-0.101,99.99,5.0,6613.0,0.0,0.0,
2025-08-14T22:51:37.656Z,6,GR86-035-11,-1.5,0.041,-0.11,99.98,5.0,,0.0,0.0,193.35
2025-08-14T22:51:37.700Z,6,GR86-035-11,-1.5,0.05,-0.148,100.0,5.0,,0.0,0.0,
2025-08-14T22:51:37.743Z,6,GR86-035-11,-1.6,0.06,-0.156,100.0,5.0,,0.0,0.0,
2025-08-14T22:51:37.786Z,6,GR86-035-11,-1.6,0.061,-0.136,100.0,5.0,,0.0,0.0,
2025-08-14T22:51:37.829Z,6,GR86-035-11,-1.6,0.082,-0.141,100.01,5.0,6628.0,0.0,0.0,
2025-08-14T22:51:37.872Z,6,GR86-035-11,-1.6,0.075,-0.134,99.97,5.0,,0.0,0.0,193.91
2025-08-14T22:51:37.915Z,6,GR86-035-11,-1.4,0.044,-0.117,100.0,5.0,,0.0,0.0,
2025-08-14T22:51:37.958Z,6,GR86-035-11,-0.6000000000000001,0.062,-0.13,100.02,5.0,,0.0,0.0,
2025-08-14T22:51:38.001Z,6,GR86-035-11,-0.1,0.086,-0.135,100.01,5.0,,0.0,0.0,
2025-08-14T22:51:38.044Z,6,GR86-035-11,0.3,0.073,-0.131,99.97,5.0,6643.0,0.0,0.0,
2025-08-14T22:51:38.087Z,6,GR86-035-11,0.3,0.064,-0.117,99.99,5.0,,0.0,0.0,195.07
2025-08-14T22:51:38.130Z,6,GR86-035-11,0.3,0.069,-0.113,100.0,5.0,,0.0,0.0,
2025-08-14T22:51:38.173Z,6,GR86-035-11,0.4,0.061,-0.078,99.97,5.0,,0.0,0.0,
2025-08-14T22:51:38.217Z,6,GR86-035-11,0.3,0.066,-0.08,99.97,5.0,,0.0,0.0,
2025-08-14T22:51:38.260Z,6,GR86-035-11,0.4,0.079,-0.074,99.99,5.0,6646.0,0.0,0.0,
2025-08-14T22:51:38.303Z,6,GR86-035-11,0.3,0.067,-0.068,99.99,5.0,,0.0,0.0,195.55
2025-08-14T22:51:38.346Z,6,GR86-035-11,0.4,0.073,-0.045,99.97,5.0,,0.0,0.0,
2025-08-14T22:51:38.389Z,6,GR86-035-11,0.4,0.067,-0.035,99.98,5.0,,0.0,0.0,
2025-08-14T22:51:38.432Z,6,GR86-035-11,0.4,0.055,-0.038,99.99,5.0,,0.0,0.0,
2025-08-14T22:51:38.477Z,6,GR86-035-11,0.4,0.063,-0.01,100.02,5.0,6701.0,0.0,0.0,
2025-08-14T22:51:38.520Z,6,GR86-035-11,0.5,0.059,-0.038,99.97,5.0,,0.0,0.0,195.91
2025-08-14T22:51:38.563Z,6,GR86-035-11,1.0,0.068,-0.036,99.97,5.0,,0.0,0.0,
2025-08-14T22:51:38.606Z,6,GR86-035-11,1.3,0.085,-0.028,99.98,5.0,,0.0,0.0,
2025-08-14T22:51:38.649Z,6,GR86-035-11,1.3,0.066,-0.026,100.0,5.0,,0.0,0.0,
2025-08-14T22:51:38.692Z,6,GR86-035-11,1.3,0.068,-0.017,99.96,5.0,6713.0,0.0,0.0,
2025-08-14T22:51:38.735Z,6,GR86-035-11,1.3,0.07,-0.002,99.99,5.0,,0.0,0.0,196.46
2025-08-14T22:51:38.778Z,6,GR86-035-11,1.3,0.084,-0.003,100.0,5.0,,0.0,0.0,
2025-08-14T22:51:38.821Z,6,GR86-035-11,1.3,0.078,0.014,100.02,5.0,,0.0,0.0,
2025-08-14T22:51:38.864Z,6,GR86-035-11,1.3,0.069,0.025,100.02,5.0,,0.0,0.0,
2025-08-14T22:51:38.907Z,6,GR86-035-11,1.3,0.054,0.031,99.97,5.0,6726.0,0.0,0.0,
2025-08-14T22:51:38.950Z,6,GR86-035-11,1.1,0.063,0.013,99.99,5.0,,0.0,0.0,197.09
2025-08-14T22:51:38.993Z,6,GR86-035-11,1.1,0.053,0.004,100.0,5.0,,0.0,0.0,
2025-08-14T22:51:39.037Z,6,GR86-035-11,1.1,0.081,0.012,100.0,5.0,,0.0,0.0,
2025-08-14T22:51:39.123Z,6,GR86-035-11,0.6000000000000001,0.071,0.013,100.01,5.0,6752.0,0.0,0.0,
2025-08-14T22:51:39.166Z,6,GR86-035-11,0.6000000000000001,0.044,-0.017,99.98,5.0,,0.0,0.0,197.4
2025-08-14T22:51:39.209Z,6,GR86-035-11,0.6000000000000001,0.05,-0.022,100.0,5.0,,0.0,0.0,
2025-08-14T22:51:39.252Z,6,GR86-035-11,0.6000000000000001,0.041,-0.04,100.0,5.0,,0.0,0.0,
2025-08-14T22:51:39.338Z,6,GR86-035-11,0.6000000000000001,0.058,-0.028,100.02,5.0,6758.0,0.0,0.0,
2025-08-14T22:51:39.381Z,6,GR86-035-11,0.6000000000000001,0.038,-0.053,99.99,5.0,,0.0,0.0,197.96
2025-08-14T22:51:39.424Z,6,GR86-035-11,0.6000000000000001,0.048,-0.069,99.99,5.0,,0.0,0.0,
2025-08-14T22:51:39.467Z,6,GR86-035-11,0.6000000000000001,0.029,-0.084,100.01,5.0,,0.0,0.0,
2025-08-14T22:51:39.510Z,6,GR86-035-11,0.6000000000000001,0.058,-0.082,100.04,5.0,,0.0,0.0,
2025-08-14T22:51:39.553Z,6,GR86-035-11,0.6000000000000001,0.067,-0.075,100.0,5.0,6790.0,0.0,0.0,
2025-08-14T22:51:39.596Z,6,GR86-035-11,1.4,0.046,-0.09,100.02,5.0,,0.0,0.0,198.36
2025-08-14T22:51:39.641Z,6,GR86-035-11,1.8,0.056,-0.069,100.01,5.0,,0.0,0.0,
2025-08-14T22:51:39.684Z,6,GR86-035-11,1.8,0.06,-0.043,99.99,5.0,,0.0,0.0,
2025-08-14T22:51:39.727Z,6,GR86-035-11,1.8,0.061,-0.032,100.0,5.0,,0.0,0.0,
2025-08-14T22:51:39.770Z,6,GR86-035-11,1.8,0.059,-0.019,100.01,5.0,6797.0,0.0,0.0,
2025-08-14T22:51:39.813Z,6,GR86-035-11,2.0,0.077,-0.007,100.03,5.0,,0.0,0.0,199.03
2025-08-14T22:51:39.856Z,6,GR86-035-11,2.5,0.05,-0.022,99.99,5.0,,0.0,0.0,
2025-08-14T22:51:39.900Z,6,GR86-035-11,2.5,0.041,0.009,100.03,5.0,,0.0,0.0,
2025-08-14T22:51:39.943Z,6,GR86-035-11,2.4000000000000004,0.052,0.025,100.03,5.0,,0.0,0.0,
2025-08-14T22:51:39.986Z,6,GR86-035-11,2.4000000000000004,0.057,0.027,99.99,5.0,6811.0,0.0,0.0,
2025-08-14T22:51:40.029Z,6,GR86-035-11,2.3000000000000003,0.063,0.057,100.0,5.0,,0.0,0.0,199.44
2025-08-14T22:51:40.072Z,6,GR86-035-11,2.3000000000000003,0.052,0.051,92.59,5.0,,0.0,0.0,
2025-08-14T22:51:40.117Z,6,GR86-035-11,2.3000000000000003,0.07,0.03,2.68,5.0,,0.0,0.0,
2025-08-14T22:51:40.161Z,6,GR86-035-11,2.3000000000000003,0.06,0.034,3.8,5.0,,0.0,0.0,
2025-08-14T22:51:40.203Z,6,GR86-035-11,2.3000000000000003,-0.154,0.074,3.7,5.0,6819.0,0.0,0.0,
2025-08-14T22:51:40.247Z,6,GR86-035-11,2.3000000000000003,-0.159,0.053,3.42,5.0,,0.0,0.0,200.0
2025-08-14T22:51:40.290Z,6,GR86-035-11,2.3000000000000003,-0.376,0.019,3.09,5.0,,0.0,0.0,
2025-08-14T22:51:40.333Z,6,GR86-035-11,2.3000000000000003,-0.141,0.03,2.84,5.0,,0.0,1.86,
2025-08-14T22:51:40.377Z,6,GR86-035-11,2.3000000000000003,-0.26,0.037,2.69,5.0,,16.085,16.055,
2025-08-14T22:51:40.420Z,6,GR86-035-11,2.3000000000000003,-0.546,0.029,2.61,5.0,6502.0,27.225,26.875,
2025-08-14T22:51:40.463Z,6,GR86-035-11,2.3000000000000003,-0.706,0.031,2.58,5.0,,37.325,36.67,200.53
2025-08-14T22:51:40.506Z,6,GR86-035-11,2.3000000000000003,-0.833,-0.019,2.56,5.0,,44.56,44.025,
2025-08-14T22:51:40.549Z,6,GR86-035-11,2.3000000000000003,-0.972,-0.005,2.56,5.0,,51.09,50.375,
2025-08-14T22:51:40.592Z,6,GR86-035-11,2.3000000000000003,-1.017,-0.032,2.5500000000000003,5.0,,55.64,54.98,
2025-08-14T22:51:40.635Z,6,GR86-035-11,5.5,-0.957,-0.061,2.54,5.0,6633.0,57.620000000000005,57.27,
2025-08-14T22:51:40.679Z,6,GR86-035-11,6.6000000000000005,-0.867,-0.06,2.5500000000000003,5.0,,59.485,59.15,190.17
2025-08-14T22:51:40.722Z,6,GR86-035-11,6.6000000000000005,-0.857,-0.053,2.54,5.0,,61.940000000000005,62.66,
2025-08-14T22:51:40.765Z,6,GR86-035-11,4.4,-0.746,-0.009,2.53,5.0,,61.545,61.91,
2025-08-14T22:51:40.808Z,6,GR86-035-11,1.9,-0.783,0.017,2.54,5.0,,61.27,60.92,
2025-08-14T22:51:40.851Z,6,GR86-035-11,1.2000000000000002,-0.6990000000000001,-0.012,2.52,5.0,6123.0,62.690000000000005,63.56,
2025-08-14T22:51:40.894Z,6,GR86-035-11,1.2000000000000002,-0.8250000000000001,-0.021,2.53,5.0,,58.735,59.56,179.82
2025-08-14T22:51:40.937Z,6,GR86-035-11,-4.6000000000000005,-1.043,-0.032,2.5,5.0,,54.08,54.83,
2025-08-14T22:51:40.980Z,6,GR86-035-11,-6.5,-1.127,-0.001,2.52,5.0,,55.485,55.545,
2025-08-14T22:51:41.023Z,6,GR86-035-11,-7.1000000000000005,-1.116,-0.025,2.53,5.0,,57.65,57.56,
2025-08-14T22:51:41.066Z,6,GR86-035-11,-6.0,-1.143,-0.057,2.52,5.0,5934.0,59.71,59.485,
2025-08-14T22:51:41.110Z,6,GR86-035-11,-2.9000000000000004,-1.023,-0.051,2.5,5.0,,60.52,61.115,174.74
2025-08-14T22:51:41.153Z,6,GR86-035-11,-0.7000000000000001,-0.896,-0.024,2.52,5.0,,63.315000000000005,64.305,
2025-08-14T22:51:41.197Z,6,GR86-035-11,-1.1,-0.8220000000000001,-0.018,2.52,5.0,,64.305,64.93,
2025-08-14T22:51:41.240Z,6,GR86-035-11,1.2000000000000002,-0.802,0.057,2.52,5.0,,63.865,64.61,
2025-08-14T22:51:41.283Z,6,GR86-035-11,5.7,-0.868,-0.068,2.51,5.0,5444.0,62.625,63.175,
2025-08-14T22:51:41.326Z,6,GR86-035-11,10.0,-0.726,-0.069,2.52,5.0,,62.370000000000005,63.025,169.21
2025-08-14T22:51:41.370Z,6,GR86-035-11,8.9,-0.804,-0.017,2.52,5.0,,65.265,66.215,
2025-08-14T22:51:41.413Z,6,GR86-035-11,6.1000000000000005,-0.867,-0.076,2.52,5.0,,69.77,70.12,
2025-08-14T22:51:41.456Z,6,GR86-035-11,6.0,-0.8210000000000001,-0.059,2.49,5.0,,63.955,64.305,
2025-08-14T22:51:41.500Z,6,GR86-035-11,3.8,-0.953,-0.071,2.5,5.0,5331.0,62.93,62.595,
2025-08-14T22:51:41.543Z,6,GR86-035-11,0.8,-0.84,-0.031,2.51,5.0,,65.025,64.52,159.56
2025-08-14T22:51:41.586Z,6,GR86-035-11,-1.0,-0.8240000000000001,0.029,2.52,5.0,,68.06,68.805,
2025-08-14T22:51:41.629Z,6,GR86-035-11,-6.0,-0.891,-0.03,2.5,5.0,,68.41,68.535,
2025-08-14T22:51:41.672Z,6,GR86-035-11,-11.3,-0.935,0.003,15.89,5.0,,68.365,68.565,
2025-08-14T22:51:41.715Z,6,GR86-035-11,-12.0,-1.036,-0.021,41.6,4.0,4923.0,71.465,72.21000000000001,
2025-08-14T22:51:41.758Z,6,GR86-035-11,-2.8000000000000003,-0.97,0.011,5.91,4.0,,70.24,70.685,154.12
2025-08-14T22:51:41.801Z,6,GR86-035-11,-0.7000000000000001,-0.97,0.043,4.42,4.0,,72.575,73.78,
2025-08-14T22:51:41.844Z,6,GR86-035-11,-4.5,-0.903,0.096,4.1,4.0,,71.465,72.67,
2025-08-14T22:51:41.887Z,6,GR86-035-11,-5.9,-1.032,0.03,3.75,4.0,,72.67,73.49,
2025-08-14T22:51:41.930Z,6,GR86-035-11,-3.3000000000000003,-0.797,0.119,3.25,4.0,5323.0,73.265,74.5,
2025-08-14T22:51:41.973Z,6,GR86-035-11,-3.3000000000000003,-0.807,-0.082,2.88,4.0,,69.31,70.21000000000001,147.46
2025-08-14T22:51:42.017Z,6,GR86-035-11,-6.4,-0.8140000000000001,0.018,2.66,4.0,,70.03,70.21000000000001,
2025-08-14T22:51:42.060Z,6,GR86-035-11,-6.4,-0.672,-0.089,2.6,4.0,,65.8,65.83,
2025-08-14T22:51:42.103Z,6,GR86-035-11,-6.4,-0.93,-0.087,2.57,4.0,,65.235,65.055,
2025-08-14T22:51:42.146Z,6,GR86-035-11,-9.6,-0.86,-0.091,13.92,4.0,5786.0,64.96000000000001,65.025,
2025-08-14T22:51:42.189Z,6,GR86-035-11,-9.1,-0.97,-0.177,58.27,3.0,,65.175,65.08500000000001,142.39
2025-08-14T22:51:42.232Z,6,GR86-035-11,-6.0,-0.846,-0.175,25.06,3.0,,64.99,65.025,
2025-08-14T22:51:42.277Z,6,GR86-035-11,-6.300000000000001,-0.884,-0.134,4.5200000000000005,3.0,,67.36,68.365,
2025-08-14T22:51:42.320Z,6,GR86-035-11,-4.1000000000000005,-1.056,-0.197,4.16,3.0,,68.18,68.685,
2025-08-14T22:51:42.363Z,6,GR86-035-11,-0.1,-1.052,-0.143,3.81,3.0,5516.0,64.215,64.52,
2025-08-14T22:51:42.406Z,6,GR86-035-11,0.1,-0.966,-0.119,3.42,3.0,,64.96000000000001,65.77,138.91
2025-08-14T22:51:42.449Z,6,GR86-035-11,-0.9,-0.865,-0.239,2.94,3.0,,57.41,57.925,
2025-08-14T22:51:42.492Z,6,GR86-035-11,-2.1,-1.026,-0.274,2.77,3.0,,49.58,49.73,
2025-08-14T22:51:42.535Z,6,GR86-035-11,-2.3000000000000003,-0.858,-0.216,2.61,3.0,,44.68,45.245,
2025-08-14T22:51:42.580Z,6,GR86-035-11,-3.4000000000000004,-0.806,-0.351,2.57,3.0,5650.0,40.53,40.655,
2025-08-14T22:51:42.623Z,6,GR86-035-11,-5.7,-0.926,-0.311,2.56,3.0,,37.83,38.32,131.26
2025-08-14T22:51:42.667Z,6,GR86-035-11,-6.800000000000001,-0.775,-0.319,2.53,3.0,,32.84,33.65,
2025-08-14T22:51:42.711Z,6,GR86-035-11,-6.800000000000001,-0.6930000000000001,-0.393,2.52,3.0,,29.3,30.155,
2025-08-14T22:51:42.754Z,6,GR86-035-11,-6.4,-0.725,-0.337,2.51,3.0,,28.52,29.025,
2025-08-14T22:51:42.797Z,6,GR86-035-11,-0.7000000000000001,-0.718,-0.433,2.51,3.0,5839.0,26.66,27.15,
2025-08-14T22:51:42.883Z,6,GR86-035-11,12.2,-0.675,-0.336,2.5,3.0,,26.17,26.78,129.22
2025-08-14T22:51:42.926Z,6,GR86-035-11,14.9,-0.678,-0.297,2.5,3.0,,24.235,24.89,
2025-08-14T22:51:42.969Z,6,GR86-035-11,16.400000000000002,-0.599,-0.267,2.5,3.0,,22.845,23.395,
2025-08-14T22:51:43.012Z,6,GR86-035-11,17.400000000000002,-0.668,-0.277,2.5,3.0,5676.0,22.845,23.27,
2025-08-14T22:51:43.055Z,6,GR86-035-11,4.4,-0.632,-0.252,2.5,3.0,,19.64,20.205,127.42
2025-08-14T22:51:43.100Z,6,GR86-035-11,-8.5,-0.537,-0.313,2.49,3.0,,18.465,18.83,
2025-08-14T22:51:43.143Z,6,GR86-035-11,-20.3,-0.525,-0.365,2.51,3.0,,17.93,18.36,
2025-08-14T22:51:43.186Z,6,GR86-035-11,-31.9,-0.515,-0.348,2.5,3.0,,15.87,16.435,
2025-08-14T22:51:43.229Z,6,GR86-035-11,-41.7,-0.461,-0.455,2.5,3.0,5531.0,12.68,13.17,
2025-08-14T22:51:43.272Z,6,GR86-035-11,-48.5,-0.421,-0.508,2.5,3.0,,12.68,12.925,123.64
2025-08-14T22:51:43.315Z,6,GR86-035-11,-47.5,-0.49,-0.609,2.49,3.0,,14.45,14.815,
2025-08-14T22:51:43.358Z,6,GR86-035-11,-37.7,-0.49,-0.63,2.49,3.0,,14.815,15.185,
2025-08-14T22:51:43.401Z,6,GR86-035-11,-27.5,-0.478,-0.637,2.5,3.0,,13.43,13.95,
2025-08-14T22:51:43.444Z,6,GR86-035-11,-21.200000000000003,-0.415,-0.658,2.5,3.0,5402.0,6.99,7.46,
2025-08-14T22:51:43.487Z,6,GR86-035-11,-19.9,-0.256,-0.6920000000000001,2.51,3.0,,0.0,0.0,117.83
2025-08-14T22:51:43.530Z,6,GR86-035-11,-19.3,-0.194,-0.76,2.5,3.0,,0.0,0.0,
2025-08-14T22:51:43.573Z,6,GR86-035-11,-15.6,-0.163,-0.801,2.49,3.0,,0.0,0.0,
2025-08-14T22:51:43.617Z,6,GR86-035-11,-14.2,-0.137,-0.775,2.5,3.0,,0.0,0.0,
2025-08-14T22:51:43.660Z,6,GR86-035-11,-19.3,-0.166,-0.791,2.5,3.0,5286.0,0.0,0.0,
2025-08-14T22:51:43.746Z,6,GR86-035-11,-27.1,-0.163,-0.801,2.49,3.0,,0.0,0.0,117.53
2025-08-14T22:51:43.789Z,6,GR86-035-11,-50.7,-0.198,-0.866,2.49,3.0,,0.0,0.0,
2025-08-14T22:51:43.832Z,6,GR86-035-11,-62.2,-0.188,-0.917,2.5,3.0,,0.0,0.0,
2025-08-14T22:51:43.877Z,6,GR86-035-11,-70.60000000000001,-0.189,-0.887,2.49,3.0,5230.0,0.0,0.0,
2025-08-14T22:51:43.920Z,6,GR86-035-11,-70.9,-0.208,-0.889,2.5,3.0,,0.0,0.0,115.28
2025-08-14T22:51:43.963Z,6,GR86-035-11,-70.9,-0.205,-0.915,2.5,3.0,,0.0,0.0,
2025-08-14T22:51:44.006Z,6,GR86-035-11,-70.9,-0.198,-0.95,2.51,3.0,,0.0,0.0,
2025-08-14T22:51:44.049Z,6,GR86-035-11,-70.9,-0.22,-0.946,2.5,3.0,,0.0,0.0,
2025-08-14T22:51:44.092Z,6,GR86-035-11,-70.9,-0.195,-0.961,2.5,3.0,5172.0,0.0,0.0,
2025-08-14T22:51:44.135Z,6,GR86-035-11,-70.9,-0.192,-0.992,2.5,3.0,,0.0,0.0,114.43
2025-08-14T22:51:44.178Z,6,GR86-035-11,-70.0,-0.197,-0.987,2.5,3.0,,0.0,0.0,
2025-08-14T22:51:44.221Z,6,GR86-035-11,-68.8,-0.204,-1.013,2.5,3.0,,0.0,0.0,
2025-08-14T22:51:44.264Z,6,GR86-035-11,-67.4,-0.196,-1.051,2.5,3.0,,0.0,0.0,
2025-08-14T22:51:44.351Z,6,GR86-035-11,-58.1,-0.196,-1.052,2.51,3.0,5097.0,0.0,0.0,113.82
2025-08-14T22:51:44.394Z,6,GR86-035-11,-50.400000000000006,-0.183,-1.005,2.51,3.0,,0.0,0.0,
2025-08-14T22:51:44.437Z,6,GR86-035-11,-35.800000000000004,-0.179,-1.0,2.5,3.0,,0.0,0.0,
2025-08-14T22:51:44.480Z,6,GR86-035-11,-28.5,-0.189,-1.02,2.5,3.0,,0.0,0.0,
2025-08-14T22:51:44.566Z,6,GR86-035-11,-20.4,-0.19,-1.021,20.58,3.0,5013.0,0.0,0.0,112.47
2025-08-14T22:51:44.609Z,6,GR86-035-11,-22.3,-0.149,-1.006,23.98,3.0,,0.0,0.0,
2025-08-14T22:51:44.652Z,6,GR86-035-11,-36.3,-0.151,-1.015,24.68,3.0,,0.0,0.0,
2025-08-14T22:51:44.695Z,6,GR86-035-11,-61.3,-0.149,-1.055,26.66,3.0,,0.0,0.0,
2025-08-14T22:51:44.738Z,6,GR86-035-11,-73.8,-0.126,-1.086,27.39,3.0,4999.0,0.0,0.0,
2025-08-14T22:51:44.781Z,6,GR86-035-11,-83.0,0.095,-1.042,27.48,3.0,,0.0,0.0,111.16
2025-08-14T22:51:44.824Z,6,GR86-035-11,-89.10000000000001,0.005,-1.055,28.75,3.0,,0.0,0.0,
2025-08-14T22:51:44.867Z,6,GR86-035-11,-91.2,0.035,-1.038,32.88,3.0,,0.0,0.0,
2025-08-14T22:51:44.910Z,6,GR86-035-11,-91.3,0.037,-1.042,35.71,3.0,,0.0,0.0,
2025-08-14T22:51:44.953Z,6,GR86-035-11,-91.2,0.019,-1.081,44.81,3.0,5226.0,0.0,0.0,
2025-08-14T22:51:44.996Z,6,GR86-035-11,-92.3,0.066,-0.899,79.71000000000001,3.0,,0.0,0.0,109.55
2025-08-14T22:51:45.041Z,6,GR86-035-11,-93.0,0.102,-1.099,95.53,3.0,,0.0,0.0,
2025-08-14T22:51:45.084Z,6,GR86-035-11,-93.1,0.081,-0.98,94.09,3.0,,0.0,0.0,
2025-08-14T22:51:45.127Z,6,GR86-035-11,-95.2,0.14,-1.024,92.72,3.0,,0.0,0.0,
2025-08-14T22:51:45.170Z,6,GR86-035-11,-97.8,0.151,-1.03,85.26,3.0,5255.0,0.0,0.0,
2025-08-14T22:51:45.214Z,6,GR86-035-11,-101.4,0.153,-0.963,52.69,3.0,,0.0,0.0,107.94
2025-08-14T22:51:45.257Z,6,GR86-035-11,-106.8,0.105,-0.983,41.21,3.0,,0.0,0.0,
2025-08-14T22:51:45.300Z,6,GR86-035-11,-107.5,0.089,-1.015,42.72,3.0,,0.0,0.0,
2025-08-14T22:51:45.343Z,6,GR86-035-11,-107.8,0.082,-1.004,42.89,3.0,,0.0,0.0,
2025-08-14T22:51:45.386Z,6,GR86-035-11,-107.8,0.085,-1.031,43.92,3.0,5232.0,0.0,0.0,
2025-08-14T22:51:45.429Z,6,GR86-035-11,-108.1,0.06,-0.966,44.67,3.0,,0.0,0.0,108.07
2025-08-14T22:51:45.472Z,6,GR86-035-11,-108.4,0.062,-0.953,43.74,3.0,,0.0,0.0,
2025-08-14T22:51:45.517Z,6,GR86-035-11,-107.7,0.047,-0.981,55.69,3.0,,0.0,0.0,
2025-08-14T22:51:45.561Z,6,GR86-035-11,-105.7,0.05,-0.981,81.3,3.0,,0.0,0.0,
2025-08-14T22:51:45.604Z,6,GR86-035-11,-103.0,0.066,-0.996,98.84,3.0,5201.0,0.0,0.0,
2025-08-14T22:51:45.647Z,6,GR86-035-11,-99.1,0.097,-1.011,99.98,3.0,,0.0,0.0,108.87
2025-08-14T22:51:45.690Z,6,GR86-035-11,-94.2,0.116,-0.994,99.99,3.0,,0.0,0.0,
2025-08-14T22:51:45.733Z,6,GR86-035-11,-86.30000000000001,0.108,-1.019,99.99,3.0,,0.0,0.0,
2025-08-14T22:51:45.777Z,6,GR86-035-11,-72.9,0.108,-1.001,99.98,3.0,,0.0,0.0,
2025-08-14T22:51:45.820Z,6,GR86-035-11,-66.4,0.121,-1.024,99.99,3.0,5274.0,0.0,0.0,
2025-08-14T22:51:45.863Z,6,GR86-035-11,-58.5,0.13,-0.993,99.99,3.0,,0.0,0.0,109.56
2025-08-14T22:51:45.906Z,6,GR86-035-11,-50.6,0.133,-0.998,100.0,3.0,,0.0,0.0,
2025-08-14T22:51:45.949Z,6,GR86-035-11,-44.5,0.144,-0.989,100.0,3.0,,0.0,0.0,
2025-08-14T22:51:45.992Z,6,GR86-035-11,-39.900000000000006,0.138,-1.0,99.99,3.0,,0.0,0.0,
2025-08-14T22:51:46.035Z,6,GR86-035-11,-40.3,0.142,-0.994,100.0,3.0,5317.0,0.0,0.0,
2025-08-14T22:51:46.080Z,6,GR86-035-11,-51.2,0.158,-1.002,100.0,3.0,,0.0,0.0,111.76
2025-08-14T22:51:46.123Z,6,GR86-035-11,-65.2,0.153,-1.021,99.99,3.0,,0.0,0.0,
2025-08-14T22:51:46.166Z,6,GR86-035-11,-75.3,0.128,-0.992,100.0,3.0,,0.0,0.0,
2025-08-14T22:51:46.209Z,6,GR86-035-11,-79.7,0.132,-0.984,99.99,3.0,,0.0,0.0,
2025-08-14T22:51:46.252Z,6,GR86-035-11,-80.0,0.116,-0.971,99.99,3.0,5368.0,0.0,0.0,
2025-08-14T22:51:46.295Z,6,GR86-035-11,-74.7,0.107,-1.003,100.0,3.0,,0.0,0.0,112.22
2025-08-14T22:51:46.338Z,6,GR86-035-11,-67.0,0.114,-1.027,99.98,3.0,,0.0,0.0,
2025-08-14T22:51:46.381Z,6,GR86-035-11,-57.3,0.153,-1.062,99.99,3.0,,0.0,0.0,
2025-08-14T22:51:46.424Z,6,GR86-035-11,-46.8,0.133,-1.032,99.99,3.0,,0.0,0.0,
2025-08-14T22:51:46.467Z,6,GR86-035-11,-36.7,0.155,-1.008,99.96,3.0,5406.0,0.0,0.0,
2025-08-14T22:51:46.510Z,6,GR86-035-11,-26.6,0.15,-0.999,100.0,3.0,,0.0,0.0,112.7
2025-08-14T22:51:46.553Z,6,GR86-035-11,-18.1,0.129,-0.965,99.97,3.0,,0.0,0.0,
2025-08-14T22:51:46.596Z,6,GR86-035-11,-16.900000000000002,0.16,-0.951,99.97,3.0,,0.0,0.0,
2025-08-14T22:51:46.640Z,6,GR86-035-11,-22.5,0.191,-0.964,99.99,3.0,,0.0,0.0,
2025-08-14T22:51:46.683Z,6,GR86-035-11,-30.200000000000003,0.176,-0.953,99.98,3.0,5475.0,0.0,0.0,
2025-08-14T22:51:46.726Z,6,GR86-035-11,-37.0,0.157,-0.978,100.0,3.0,,0.0,0.0,113.96
2025-08-14T22:51:46.770Z,6,GR86-035-11,-40.7,0.153,-0.979,99.97,3.0,,0.0,0.0,
2025-08-14T22:51:46.813Z,6,GR86-035-11,-40.7,0.133,-0.968,99.97,3.0,,0.0,0.0,
2025-08-14T22:51:46.856Z,6,GR86-035-11,-32.5,0.152,-0.936,99.99,3.0,,0.0,0.0,
2025-08-14T22:51:46.899Z,6,GR86-035-11,-29.200000000000003,0.166,-0.894,100.0,3.0,5486.0,0.0,0.0,
2025-08-14T22:51:46.942Z,6,GR86-035-11,-29.8,0.182,-0.875,99.99,3.0,,0.0,0.0,114.68
2025-08-14T22:51:46.985Z,6,GR86-035-11,-34.6,0.161,-0.834,99.97,3.0,,0.0,0.0,
2025-08-14T22:51:47.028Z,6,GR86-035-11,-41.0,0.158,-0.841,100.0,3.0,,0.0,0.0,
2025-08-14T22:51:47.071Z,6,GR86-035-11,-45.5,0.159,-0.851,99.98,3.0,,0.0,0.0,
2025-08-14T22:51:47.115Z,6,GR86-035-11,-46.1,0.162,-0.855,99.99,3.0,5503.0,0.0,0.0,
2025-08-14T22:51:47.201Z,6,GR86-035-11,-35.0,0.173,-0.802,99.98,3.0,,0.0,0.0,114.91
2025-08-14T22:51:47.244Z,6,GR86-035-11,-30.6,0.16,-0.764,99.96,3.0,,0.0,0.0,
2025-08-14T22:51:47.287Z,6,GR86-035-11,-30.3,0.147,-0.784,99.99,3.0,,0.0,0.0,
2025-08-14T22:51:47.330Z,6,GR86-035-11,-30.3,0.164,-0.8180000000000001,99.98,3.0,5545.0,0.0,0.0,
2025-08-14T22:51:47.373Z,6,GR86-035-11,-30.3,0.175,-0.857,99.98,3.0,,0.0,0.0,115.44
2025-08-14T22:51:47.416Z,6,GR86-035-11,-24.9,0.179,-0.804,100.0,3.0,,0.0,0.0,
2025-08-14T22:51:47.460Z,6,GR86-035-11,-19.4,0.168,-0.772,99.96,3.0,,0.0,0.0,
2025-08-14T22:51:47.503Z,6,GR86-035-11,-17.400000000000002,0.168,-0.678,99.99,3.0,,0.0,0.0,
2025-08-14T22:51:47.546Z,6,GR86-035-11,-17.400000000000002,0.215,-0.7030000000000001,99.98,3.0,5592.0,0.0,0.0,
2025-08-14T22:51:47.589Z,6,GR86-035-11,-18.4,0.191,-0.5700000000000001,99.99,3.0,,0.0,0.0,116.75
2025-08-14T22:51:47.632Z,6,GR86-035-11,-22.3,0.176,-0.5680000000000001,99.99,3.0,,0.0,0.0,
2025-08-14T22:51:47.677Z,6,GR86-035-11,-27.6,0.122,-0.5740000000000001,99.98,3.0,,0.0,0.0,
2025-08-14T22:51:47.720Z,6,GR86-035-11,-28.9,0.171,-0.601,100.0,3.0,,0.0,0.0,
2025-08-14T22:51:47.763Z,6,GR86-035-11,-28.9,0.143,-0.775,100.0,3.0,5683.0,0.0,0.0,
2025-08-14T22:51:47.806Z,6,GR86-035-11,-24.3,0.197,-0.595,100.0,3.0,,0.0,0.0,117.97
2025-08-14T22:51:47.849Z,6,GR86-035-11,-17.400000000000002,0.212,-0.786,99.99,3.0,,0.0,0.0,
2025-08-14T22:51:47.892Z,6,GR86-035-11,-10.9,0.205,-0.627,99.99,3.0,,0.0,0.0,
2025-08-14T22:51:47.935Z,6,GR86-035-11,-5.0,0.152,-0.403,100.0,3.0,,0.0,0.0,
2025-08-14T22:51:47.978Z,6,GR86-035-11,-4.4,0.08,-0.392,99.99,3.0,5713.0,0.0,0.0,
2025-08-14T22:51:48.021Z,6,GR86-035-11,-4.5,0.134,-0.337,99.99,3.0,,0.0,0.0,119.14
2025-08-14T22:51:48.064Z,6,GR86-035-11,-4.9,0.131,-0.371,100.0,3.0,,0.0,0.0,
2025-08-14T22:51:48.107Z,6,GR86-035-11,-5.300000000000001,0.204,-0.371,99.99,3.0,,0.0,0.0,
2025-08-14T22:51:48.150Z,6,GR86-035-11,-5.4,0.212,-0.38,99.99,3.0,,0.0,0.0,
2025-08-14T22:51:48.193Z,6,GR86-035-11,-5.5,0.247,-0.338,99.99,3.0,5798.0,0.0,0.0,
2025-08-14T22:51:48.236Z,6,GR86-035-11,-5.5,0.216,-0.373,99.99,3.0,,0.0,0.0,120.32
2025-08-14T22:51:48.280Z,6,GR86-035-11,-5.6000000000000005,0.17,-0.346,99.99,3.0,,0.0,0.0,
2025-08-14T22:51:48.323Z,6,GR86-035-11,-4.4,0.21,-0.274,99.99,3.0,,0.0,0.0,
2025-08-14T22:51:48.367Z,6,GR86-035-11,-3.2,0.184,-0.242,100.0,3.0,,0.0,0.0,
2025-08-14T22:51:48.412Z,6,GR86-035-11,-2.1,0.224,-0.186,99.99,3.0,5825.0,0.0,0.0,
2025-08-14T22:51:48.455Z,6,GR86-035-11,-1.9,0.144,-0.046,99.98,3.0,,0.0,0.0,121.69
2025-08-14T22:51:48.500Z,6,GR86-035-11,-1.9,0.193,-0.084,99.99,3.0,,0.0,0.0,
2025-08-14T22:51:48.543Z,6,GR86-035-11,-1.9,0.21,-0.033,99.99,3.0,,0.0,0.0,
2025-08-14T22:51:48.586Z,6,GR86-035-11,-1.6,0.248,-0.024,99.99,3.0,,0.0,0.0,
2025-08-14T22:51:48.629Z,6,GR86-035-11,-0.8,0.205,-0.035,99.99,3.0,5887.0,0.0,0.0,
2025-08-14T22:51:48.672Z,6,GR86-035-11,-0.8,0.193,-0.025,99.98,3.0,,0.0,0.0,123.08
2025-08-14T22:51:48.715Z,6,GR86-035-11,-0.8,0.218,0.004,99.99,3.0,,0.0,0.0,
2025-08-14T22:51:48.758Z,6,GR86-035-11,-0.8,0.192,-0.018,99.99,3.0,,0.0,0.0,
2025-08-14T22:51:48.801Z,6,GR86-035-11,-0.8,0.148,0.038,99.99,3.0,,0.0,0.0,
2025-08-14T22:51:48.844Z,6,GR86-035-11,-0.8,0.163,0.005,99.98,3.0,5901.0,0.0,0.0,
2025-08-14T22:51:48.887Z,6,GR86-035-11,-0.9,0.136,0.058,99.99,3.0,,0.0,0.0,125.87
2025-08-14T22:51:48.930Z,6,GR86-035-11,-0.9,0.154,0.055,99.99,3.0,,0.0,0.0,
2025-08-14T22:51:48.973Z,6,GR86-035-11,-0.9,0.203,0.064,99.98,3.0,,0.0,0.0,
2025-08-14T22:51:49.017Z,6,GR86-035-11,-0.9,0.152,0.076,99.99,3.0,,0.0,0.0,
2025-08-14T22:51:49.060Z,6,GR86-035-11,-0.9,0.197,0.065,99.99,3.0,5982.0,0.0,0.0,
2025-08-14T22:51:49.103Z,6,GR86-035-11,-0.9,0.205,0.057,99.99,3.0,,0.0,0.0,127.11
2025-08-14T22:51:49.146Z,6,GR86-035-11,-0.9,0.224,0.034,99.99,3.0,,0.0,0.0,
2025-08-14T22:51:49.189Z,6,GR86-035-11,-0.9,0.184,0.032,99.99,3.0,,0.0,0.0,
2025-08-14T22:51:49.232Z,6,GR86-035-11,-1.0,0.15,0.064,100.0,3.0,,0.0,0.0,
2025-08-14T22:51:49.277Z,6,GR86-035-11,-1.0,0.175,0.035,99.99,3.0,6111.0,0.0,0.0,
2025-08-14T22:51:49.320Z,6,GR86-035-11,-1.0,0.165,0.044,100.0,3.0,,0.0,0.0,128.58
2025-08-14T22:51:49.363Z,6,GR86-035-11,-1.6,0.158,0.029,99.99,3.0,,0.0,0.0,
2025-08-14T22:51:49.406Z,6,GR86-035-11,-3.4000000000000004,0.206,0.04,99.99,3.0,,0.0,0.0,
2025-08-14T22:51:49.449Z,6,GR86-035-11,-4.9,0.213,0.034,99.99,3.0,,0.0,0.0,
2025-08-14T22:51:49.535Z,6,GR86-035-11,-5.300000000000001,0.195,-0.001,99.99,3.0,6213.0,0.0,0.0,130.08
2025-08-14T22:51:49.578Z,6,GR86-035-11,-5.300000000000001,0.196,-0.025,99.99,3.0,,0.0,0.0,
2025-08-14T22:51:49.621Z,6,GR86-035-11,-5.300000000000001,0.178,-0.033,99.99,3.0,,0.0,0.0,
2025-08-14T22:51:49.664Z,6,GR86-035-11,-5.300000000000001,0.16,-0.047,99.99,3.0,,0.0,0.0,
2025-08-14T22:51:49.707Z,6,GR86-035-11,-5.300000000000001,0.178,-0.083,99.99,3.0,6234.0,0.0,0.0,
2025-08-14T22:51:49.750Z,6,GR86-035-11,-5.300000000000001,0.21,-0.121,100.0,3.0,,0.0,0.0,131.5
2025-08-14T22:51:49.793Z,6,GR86-035-11,-5.300000000000001,0.204,-0.139,100.01,3.0,,0.0,0.0,
2025-08-14T22:51:49.837Z,6,GR86-035-11,-5.300000000000001,0.169,-0.159,100.0,3.0,,0.0,0.0,
2025-08-14T22:51:49.880Z,6,GR86-035-11,-4.9,0.167,-0.165,99.99,3.0,,0.0,0.0,
2025-08-14T22:51:49.923Z,6,GR86-035-11,-3.8,0.158,-0.138,100.0,3.0,6291.0,0.0,0.0,
2025-08-14T22:51:49.966Z,6,GR86-035-11,-1.6,0.19,-0.169,99.99,3.0,,0.0,0.0,133.03
2025-08-14T22:51:50.009Z,6,GR86-035-11,0.5,0.175,-0.171,100.0,3.0,,0.0,0.0,
2025-08-14T22:51:50.052Z,6,GR86-035-11,1.5,0.188,-0.156,99.99,3.0,,0.0,0.0,
2025-08-14T22:51:50.095Z,6,GR86-035-11,1.5,0.177,-0.13,100.03,3.0,,0.0,0.0,
2025-08-14T22:51:50.138Z,6,GR86-035-11,1.5,0.147,-0.109,100.02,3.0,6388.0,0.0,0.0,
2025-08-14T22:51:50.181Z,6,GR86-035-11,1.5,0.181,-0.107,99.98,3.0,,0.0,0.0,134.4
2025-08-14T22:51:50.224Z,6,GR86-035-11,1.5,0.19,-0.114,100.0,3.0,,0.0,0.0,
2025-08-14T22:51:50.267Z,6,GR86-035-11,1.5,0.186,-0.097,99.99,3.0,,0.0,0.0,
2025-08-14T22:51:50.353Z,6,GR86-035-11,1.6,0.172,-0.055,100.01,3.0,6461.0,0.0,0.0,
2025-08-14T22:51:50.439Z,6,GR86-035-11,2.0,0.213,-0.037,100.0,3.0,,0.0,0.0,135.97
2025-08-14T22:51:50.483Z,6,GR86-035-11,2.0,0.199,-0.026,99.99,3.0,,0.0,0.0,
2025-08-14T22:51:50.526Z,6,GR86-035-11,2.0,0.149,0.0,100.01,3.0,,0.0,0.0,
2025-08-14T22:51:50.570Z,6,GR86-035-11,2.0,0.136,0.01,100.0,3.0,6534.0,0.0,0.0,
2025-08-14T22:51:50.613Z,6,GR86-035-11,2.0,0.183,-0.008,100.04,3.0,,0.0,0.0,137.5
2025-08-14T22:51:50.656Z,6,GR86-035-11,2.0,0.179,0.011,100.03,3.0,,0.0,0.0,
2025-08-14T22:51:50.699Z,6,GR86-035-11,2.0,0.178,-0.002,100.01,3.0,,0.0,0.0,
2025-08-14T22:51:50.742Z,6,GR86-035-11,2.0,0.187,0.012,100.02,3.0,,0.0,0.0,
2025-08-14T22:51:50.785Z,6,GR86-035-11,2.0,0.178,0.019,100.01,3.0,6618.0,0.0,0.0,
2025-08-14T22:51:50.828Z,6,GR86-035-11,2.0,0.148,0.023,99.98,3.0,,0.0,0.0,138.98
2025-08-14T22:51:50.871Z,6,GR86-035-11,2.0,0.152,0.012,99.99,3.0,,0.0,0.0,
2025-08-14T22:51:50.914Z,6,GR86-035-11,2.0,0.172,0.011,100.01,3.0,,0.0,0.0,
2025-08-14T22:51:50.957Z,6,GR86-035-11,2.0,0.187,0.007,100.03,3.0,,0.0,0.0,
2025-08-14T22:51:51.000Z,6,GR86-035-11,2.0,0.198,0.008,100.03,3.0,6672.0,0.0,0.0,
2025-08-14T22:51:51.043Z,6,GR86-035-11,2.0,0.184,0.016,100.01,3.0,,0.0,0.0,140.5
2025-08-14T22:51:51.086Z,6,GR86-035-11,2.0,0.142,0.027,100.0,3.0,,0.0,0.0,
2025-08-14T22:51:51.129Z,6,GR86-035-11,2.0,0.143,0.016,100.03,3.0,,0.0,0.0,
2025-08-14T22:51:51.172Z,6,GR86-035-11,2.0,0.154,0.006,100.03,3.0,,0.0,0.0,
2025-08-14T22:51:51.217Z,6,GR86-035-11,2.0,0.166,0.013,100.0,3.0,6733.0,0.0,0.0,
2025-08-14T22:51:51.261Z,6,GR86-035-11,2.0,0.186,0.013,100.03,3.0,,0.0,0.0,142.11
2025-08-14T22:51:51.347Z,6,GR86-035-11,2.0,0.169,0.021,100.03,3.0,,0.0,0.0,
2025-08-14T22:51:51.390Z,6,GR86-035-11,2.0,0.145,0.024,100.02,3.0,,0.0,0.0,
2025-08-14T22:51:51.433Z,6,GR86-035-11,2.0,0.151,0.007,99.98,3.0,6828.0,0.0,0.0,
2025-08-14T22:51:51.477Z,6,GR86-035-11,2.0,0.19,0.018,100.03,3.0,,0.0,0.0,145.44
2025-08-14T22:51:51.520Z,6,GR86-035-11,2.0,0.168,-0.002,100.03,3.0,,0.0,0.0,
2025-08-14T22:51:51.563Z,6,GR86-035-11,2.0,0.143,0.011,100.03,3.0,,0.0,0.0,
2025-08-14T22:51:51.606Z,6,GR86-035-11,2.0,0.143,0.021,100.03,3.0,,0.0,0.0,
2025-08-14T22:51:51.649Z,6,GR86-035-11,2.0,0.172,0.025,100.03,3.0,6925.0,0.0,0.0,
2025-08-14T22:51:51.692Z,6,GR86-035-11,2.0,0.183,0.03,99.99,3.0,,0.0,0.0,147.13
2025-08-14T22:51:51.735Z,6,GR86-035-11,1.8,0.156,0.02,100.01,3.0,,0.0,0.0,
2025-08-14T22:51:51.779Z,6,GR86-035-11,1.8,0.152,0.018,100.03,3.0,,0.0,0.0,
2025-08-14T22:51:51.822Z,6,GR86-035-11,1.8,0.179,0.005,100.01,3.0,,0.0,0.0,
2025-08-14T22:51:51.865Z,6,GR86-035-11,1.8,0.161,-0.003,100.02,3.0,6982.0,0.0,0.0,
2025-08-14T22:51:51.908Z,6,GR86-035-11,1.8,0.149,0.004,100.03,3.0,,0.0,0.0,148.82
2025-08-14T22:51:51.951Z,6,GR86-035-11,1.8,0.124,0.022,100.01,3.0,,0.0,0.0,
2025-08-14T22:51:51.995Z,6,GR86-035-11,1.8,0.151,-0.013,100.04,3.0,,0.0,0.0,
2025-08-14T22:51:52.038Z,6,GR86-035-11,1.8,0.171,0.001,100.0,3.0,,0.0,0.0,
2025-08-14T22:51:52.081Z,6,GR86-035-11,1.8,0.141,0.011,100.03,3.0,7134.0,0.0,0.0,
2025-08-14T22:51:52.124Z,6,GR86-035-11,1.7000000000000002,0.146,0.002,100.0,3.0,,0.0,0.0,150.38
2025-08-14T22:51:52.167Z,6,GR86-035-11,1.7000000000000002,0.16,0.005,100.03,3.0,,0.0,0.0,
2025-08-14T22:51:52.210Z,6,GR86-035-11,1.7000000000000002,0.164,-0.023,100.05,3.0,,0.0,0.0,
2025-08-14T22:51:52.253Z,6,GR86-035-11,1.3,0.146,-0.016,100.05,3.0,,0.0,0.0,
2025-08-14T22:51:52.296Z,6,GR86-035-11,-0.6000000000000001,0.145,-0.036,100.06,3.0,7186.0,0.0,0.0,
2025-08-14T22:51:52.340Z,6,GR86-035-11,-0.7000000000000001,0.16,-0.056,100.03,3.0,,0.0,0.0,152.21
2025-08-14T22:51:52.383Z,6,GR86-035-11,-0.7000000000000001,0.155,-0.042,100.01,3.0,,0.0,0.0,
2025-08-14T22:51:52.426Z,6,GR86-035-11,-0.8,0.14,-0.043,99.99,3.0,,0.0,0.0,
2025-08-14T22:51:52.469Z,6,GR86-035-11,-0.8,0.122,-0.039,100.03,3.0,,0.0,0.0,
2025-08-14T22:51:52.512Z,6,GR86-035-11,-1.5,0.124,-0.058,100.05,3.0,7254.0,0.0,0.0,
2025-08-14T22:51:52.555Z,6,GR86-035-11,-2.6,0.113,-0.083,100.05,3.0,,0.0,0.0,153.77
2025-08-14T22:51:52.598Z,6,GR86-035-11,-4.1000000000000005,0.086,-0.102,100.0,3.0,,0.0,0.0,
2025-08-14T22:51:52.641Z,6,GR86-035-11,-6.6000000000000005,-0.16,-0.098,100.03,4.0,,0.0,0.0,
2025-08-14T22:51:52.684Z,6,GR86-035-11,-7.1000000000000005,0.012,-0.146,100.03,4.0,,0.0,0.0,
2025-08-14T22:51:52.727Z,6,GR86-035-11,-6.300000000000001,0.319,-0.221,100.01,4.0,6952.0,0.0,0.0,
2025-08-14T22:51:52.770Z,6,GR86-035-11,-5.9,0.24,-0.222,100.02,4.0,,0.0,0.0,155.35
2025-08-14T22:51:52.813Z,6,GR86-035-11,-6.0,0.204,-0.176,100.03,4.0,,0.0,0.0,
2025-08-14T22:51:52.856Z,6,GR86-035-11,-6.0,0.067,-0.266,100.02,4.0,,0.0,0.0,
2025-08-14T22:51:52.900Z,6,GR86-035-11,-6.1000000000000005,0.111,-0.237,100.03,4.0,,0.0,0.0,
2025-08-14T22:51:52.943Z,6,GR86-035-11,-6.2,0.162,-0.242,100.02,4.0,6150.0,0.0,0.0,
2025-08-14T22:51:52.986Z,6,GR86-035-11,-6.800000000000001,0.139,-0.273,99.99,4.0,,0.0,0.0,156.68
2025-08-14T22:51:53.029Z,6,GR86-035-11,-7.0,0.087,-0.236,100.03,4.0,,0.0,0.0,
2025-08-14T22:51:53.072Z,6,GR86-035-11,-7.0,0.087,-0.265,100.03,4.0,,0.0,0.0,
2025-08-14T22:51:53.115Z,6,GR86-035-11,-7.0,0.136,-0.297,100.03,4.0,,0.0,0.0,
2025-08-14T22:51:53.160Z,6,GR86-035-11,-6.7,0.112,-0.294,100.03,4.0,6264.0,0.0,0.0,
2025-08-14T22:51:53.203Z,6,GR86-035-11,-4.9,0.096,-0.266,100.0,4.0,,0.0,0.0,158.07
2025-08-14T22:51:53.246Z,6,GR86-035-11,-5.1000000000000005,0.105,-0.248,100.03,4.0,,0.0,0.0,
2025-08-14T22:51:53.289Z,6,GR86-035-11,-5.1000000000000005,0.081,-0.253,100.02,4.0,,0.0,0.0,
2025-08-14T22:51:53.332Z,6,GR86-035-11,-5.1000000000000005,0.117,-0.268,100.02,4.0,,0.0,0.0,
2025-08-14T22:51:53.377Z,6,GR86-035-11,-5.1000000000000005,0.104,-0.279,100.03,4.0,6320.0,0.0,0.0,
2025-08-14T22:51:53.420Z,6,GR86-035-11,-5.1000000000000005,0.101,-0.292,100.01,4.0,,0.0,0.0,159.32
2025-08-14T22:51:53.463Z,6,GR86-035-11,-5.1000000000000005,0.102,-0.298,100.01,4.0,,0.0,0.0,
2025-08-14T22:51:53.506Z,6,GR86-035-11,-5.1000000000000005,0.113,-0.292,100.03,4.0,,0.0,0.0,
2025-08-14T22:51:53.549Z,6,GR86-035-11,-5.1000000000000005,0.125,-0.286,100.01,4.0,,0.0,0.0,
2025-08-14T22:51:53.592Z,6,GR86-035-11,-5.1000000000000005,0.133,-0.272,98.53,4.0,6362.0,0.0,0.0,
2025-08-14T22:51:53.635Z,6,GR86-035-11,-5.1000000000000005,0.099,-0.26,7.21,4.0,,0.0,0.0,160.52
2025-08-14T22:51:53.678Z,6,GR86-035-11,-5.1000000000000005,0.102,-0.263,4.2,4.0,,0.0,0.0,
2025-08-14T22:51:53.721Z,6,GR86-035-11,-5.1000000000000005,-0.035,-0.259,3.96,4.0,,0.0,0.0,
2025-08-14T22:51:53.764Z,6,GR86-035-11,-5.2,-0.106,-0.237,3.5700000000000003,4.0,,0.0,0.0,
2025-08-14T22:51:53.807Z,6,GR86-035-11,-5.300000000000001,-0.354,-0.255,3.14,4.0,6422.0,0.0,0.0,
2025-08-14T22:51:53.850Z,6,GR86-035-11,-4.7,-0.242,-0.223,2.83,4.0,,10.24,10.27,161.91
2025-08-14T22:51:53.893Z,6,GR86-035-11,-2.8000000000000003,-0.337,-0.169,2.71,4.0,,16.525,16.315,
2025-08-14T22:51:53.937Z,6,GR86-035-11,-1.1,-0.562,-0.191,2.6,4.0,,26.6,26.325,
2025-08-14T22:51:53.980Z,6,GR86-035-11,0.8,-0.713,-0.151,2.57,4.0,,31.575,31.235,
2025-08-14T22:51:54.023Z,6,GR86-035-11,2.2,-0.8,-0.191,2.56,4.0,6321.0,35.955,35.585,
2025-08-14T22:51:54.067Z,6,GR86-035-11,2.9000000000000004,-0.869,-0.185,2.53,4.0,,39.72,39.22,162.99
2025-08-14T22:51:54.110Z,6,GR86-035-11,3.6,-0.913,-0.179,2.53,4.0,,41.615,41.215,
2025-08-14T22:51:54.153Z,6,GR86-035-11,3.7,-0.902,-0.225,2.52,4.0,,41.995,41.795,
2025-08-14T22:51:54.197Z,6,GR86-035-11,4.0,-0.882,-0.186,2.51,4.0,,41.83,41.89,
2025-08-14T22:51:54.240Z,6,GR86-035-11,5.0,-0.887,-0.208,2.51,4.0,6040.0,41.34,41.555,
2025-08-14T22:51:54.283Z,6,GR86-035-11,6.0,-0.904,-0.209,2.51,4.0,,39.525,40.33,154.03
2025-08-14T22:51:54.326Z,6,GR86-035-11,6.5,-0.843,-0.2,2.51,4.0,,35.050000000000004,36.485,
2025-08-14T22:51:54.369Z,6,GR86-035-11,6.300000000000001,-0.757,-0.187,2.5,4.0,,31.74,32.84,
2025-08-14T22:51:54.412Z,6,GR86-035-11,3.9,-0.705,-0.184,2.5,4.0,,30.52,31.42,
2025-08-14T22:51:54.455Z,6,GR86-035-11,4.7,-0.738,-0.203,2.5,4.0,5756.0,28.965,30.015,
2025-08-14T22:51:54.499Z,6,GR86-035-11,7.5,-0.679,-0.161,2.5,4.0,,27.315,28.125,148.38
2025-08-14T22:51:54.542Z,6,GR86-035-11,7.9,-0.655,-0.151,2.51,4.0,,26.295,27.225,
2025-08-14T22:51:54.585Z,6,GR86-035-11,7.2,-0.706,-0.155,2.5,4.0,,26.11,26.905,
2025-08-14T22:51:54.628Z,6,GR86-035-11,6.0,-0.6950000000000001,-0.143,2.49,4.0,,25.395,26.17,
2025-08-14T22:51:54.671Z,6,GR86-035-11,6.4,-0.633,-0.142,2.51,4.0,5587.0,25.575,26.14,
2025-08-14T22:51:54.713Z,6,GR86-035-11,7.300000000000001,-0.654,-0.116,2.49,4.0,,25.835,26.2,143.8
2025-08-14T22:51:54.757Z,6,GR86-035-11,6.300000000000001,-0.646,-0.082,33.79,4.0,,25.925,26.46,
2025-08-14T22:51:54.800Z,6,GR86-035-11,6.2,-0.644,-0.077,46.61,3.0,,25.575,26.17,
2025-08-14T22:51:54.843Z,6,GR86-035-11,6.2,-0.945,-0.046,6.26,3.0,,26.05,26.4,
2025-08-14T22:51:54.886Z,6,GR86-035-11,6.1000000000000005,-0.796,-0.008,4.53,3.0,5483.0,26.63,27.405,
2025-08-14T22:51:54.929Z,6,GR86-035-11,6.1000000000000005,-0.744,-0.025,4.17,3.0,,25.575,25.895,139.3
2025-08-14T22:51:54.972Z,6,GR86-035-11,6.4,-0.838,-0.016,3.81,3.0,,24.31,24.46,
2025-08-14T22:51:55.015Z,6,GR86-035-11,6.4,-0.584,0.016,3.11,3.0,,22.675,23.06,
2025-08-14T22:51:55.058Z,6,GR86-035-11,5.7,-0.5660000000000001,-0.027,2.84,3.0,,19.55,20.51,
2025-08-14T22:51:55.101Z,6,GR86-035-11,3.7,-0.516,0.037,2.7,3.0,6156.0,19.395,19.55,
2025-08-14T22:51:55.144Z,6,GR86-035-11,3.6,-0.561,-0.005,2.62,3.0,,19.64,19.79,134.98
2025-08-14T22:51:55.187Z,6,GR86-035-11,3.5,-0.579,0.005,2.56,3.0,,19.045,19.55,
2025-08-14T22:51:55.231Z,6,GR86-035-11,2.6,-0.559,0.017,2.54,3.0,,19.455,19.58,
2025-08-14T22:51:55.274Z,6,GR86-035-11,2.3000000000000003,-0.513,-0.016,2.53,3.0,,20.02,20.235,
2025-08-14T22:51:55.317Z,6,GR86-035-11,1.4,-0.534,-0.004,2.53,3.0,5992.0,19.67,19.99,
2025-08-14T22:51:55.360Z,6,GR86-035-11,-1.8,-0.532,-0.037,2.52,3.0,,19.12,19.64,131.61
2025-08-14T22:51:55.403Z,6,GR86-035-11,-4.7,-0.559,-0.064,2.5,3.0,,19.64,19.9,
2025-08-14T22:51:55.446Z,6,GR86-035-11,-5.7,-0.547,-0.106,2.51,3.0,,20.51,20.6,
2025-08-14T22:51:55.489Z,6,GR86-035-11,-5.7,-0.528,-0.118,2.49,3.0,,20.555,20.815,
2025-08-14T22:51:55.532Z,6,GR86-035-11,-3.5,-0.58,-0.142,2.51,3.0,5824.0,21.41,21.44,
2025-08-14T22:51:55.577Z,6,GR86-035-11,-0.4,-0.64,-0.135,2.5,3.0,,27.055,26.81,128.44
2025-08-14T22:51:55.620Z,6,GR86-035-11,0.3,-0.655,-0.148,2.51,3.0,,30.275,29.895,
2025-08-14T22:51:55.663Z,6,GR86-035-11,0.9,-0.705,-0.163,2.52,3.0,,31.68,31.54,
2025-08-14T22:51:55.706Z,6,GR86-035-11,0.8,-0.744,-0.165,22.47,3.0,,33.315,33.25,
2025-08-14T22:51:55.749Z,6,GR86-035-11,0.6000000000000001,-0.757,-0.2,67.03,3.0,5622.0,34.87,34.715,
2025-08-14T22:51:55.792Z,6,GR86-035-11,0.6000000000000001,-0.6980000000000001,-0.219,99.44,2.0,,35.435,35.405,124.76
2025-08-14T22:51:55.835Z,6,GR86-035-11,0.6000000000000001,-0.769,-0.207,16.14,2.0,,38.35,38.18,
2025-08-14T22:51:55.878Z,6,GR86-035-11,-0.3,-0.876,-0.168,3.34,2.0,,43.46,44.255,
2025-08-14T22:51:55.921Z,6,GR86-035-11,-3.9,-0.882,-0.215,2.73,2.0,,46.955,47.9,
2025-08-14T22:51:55.963Z,6,GR86-035-11,-4.5,-0.888,-0.34,2.56,2.0,5683.0,45.03,45.125,
2025-08-14T22:51:56.007Z,6,GR86-035-11,-4.5,-0.948,-0.194,2.5,2.0,,47.52,48.39,119.84
2025-08-14T22:51:56.050Z,6,GR86-035-11,-7.0,-0.744,-0.276,2.5,2.0,,48.895,49.2,
2025-08-14T22:51:56.093Z,6,GR86-035-11,-10.5,-0.907,-0.449,2.49,2.0,,47.275,47.49,
2025-08-14T22:51:56.136Z,6,GR86-035-11,-13.5,-0.8200000000000001,-0.271,2.49,2.0,,45.0,44.805,
2025-08-14T22:51:56.180Z,6,GR86-035-11,-14.4,-0.786,-0.417,2.49,2.0,6071.0,46.405,45.965,
2025-08-14T22:51:56.223Z,6,GR86-035-11,-17.8,-0.8220000000000001,-0.435,2.48,2.0,,46.435,46.495,113.86
2025-08-14T22:51:56.266Z,6,GR86-035-11,-20.9,-0.838,-0.35,2.49,2.0,,45.125,45.335,
2025-08-14T22:51:56.309Z,6,GR86-035-11,-23.0,-0.8160000000000001,-0.464,2.49,2.0,,40.925,42.15,
2025-08-14T22:51:56.352Z,6,GR86-035-11,-27.6,-0.792,-0.445,2.49,2.0,,34.565,35.985,
2025-08-14T22:51:56.395Z,6,GR86-035-11,-32.4,-0.705,-0.585,2.48,2.0,5908.0,28.69,29.77,
2025-08-14T22:51:56.438Z,6,GR86-035-11,-35.6,-0.667,-0.556,2.49,2.0,,26.84,27.97,109.03
2025-08-14T22:51:56.481Z,6,GR86-035-11,-36.4,-0.675,-0.586,2.48,2.0,,26.505,26.905,
2025-08-14T22:51:56.524Z,6,GR86-035-11,-36.4,-0.65,-0.66,2.49,2.0,,25.895,26.43,
2025-08-14T22:51:56.567Z,6,GR86-035-11,-36.4,-0.594,-0.705,2.49,2.0,,22.705,23.62,
2025-08-14T22:51:56.610Z,6,GR86-035-11,-36.4,-0.524,-0.738,2.49,2.0,5698.0,15.365,16.145,
2025-08-14T22:51:56.653Z,6,GR86-035-11,-36.7,-0.445,-0.732,2.49,2.0,,10.24,11.125,104.96
2025-08-14T22:51:56.696Z,6,GR86-035-11,-37.4,-0.423,-0.8240000000000001,2.48,2.0,,9.25,9.52,
2025-08-14T22:51:56.741Z,6,GR86-035-11,-37.5,-0.385,-0.847,2.49,2.0,,7.83,8.21,
2025-08-14T22:51:56.784Z,6,GR86-035-11,-37.5,-0.354,-0.902,2.49,2.0,,7.0200000000000005,7.11,
2025-08-14T22:51:56.827Z,6,GR86-035-11,-37.5,-0.353,-0.912,2.49,2.0,5523.0,6.835,7.08,
2025-08-14T22:51:56.870Z,6,GR86-035-11,-36.0,-0.371,-0.905,2.49,2.0,,6.24,6.515000000000001,101.93
2025-08-14T22:51:56.913Z,6,GR86-035-11,-32.800000000000004,-0.306,-0.914,2.47,2.0,,3.22,3.465,
2025-08-14T22:51:56.956Z,6,GR86-035-11,-23.700000000000003,-0.222,-0.923,2.49,2.0,,0.0,0.0,
2025-08-14T22:51:56.999Z,6,GR86-035-11,-16.900000000000002,-0.211,-0.913,2.49,2.0,,0.0,0.0,
2025-08-14T22:51:57.042Z,6,GR86-035-11,-14.7,-0.184,-0.855,2.48,2.0,5460.0,0.0,0.0,
2025-08-14T22:51:57.085Z,6,GR86-035-11,-22.0,-0.185,-0.898,2.49,2.0,,0.0,0.0,98.53
2025-08-14T22:51:57.128Z,6,GR86-035-11,-34.9,-0.186,-0.883,2.49,2.0,,0.0,0.0,
2025-08-14T22:51:57.171Z,6,GR86-035-11,-45.6,-0.201,-0.941,2.49,2.0,,0.0,0.0,
2025-08-14T22:51:57.213Z,6,GR86-035-11,-58.7,-0.207,-0.966,2.49,2.0,,0.0,0.0,
2025-08-14T22:51:57.257Z,6,GR86-035-11,-72.0,-0.217,-0.993,2.49,2.0,5389.0,0.0,0.0,
2025-08-14T22:51:57.300Z,6,GR86-035-11,-74.0,-0.212,-0.951,2.49,2.0,,0.0,0.0,97.25
2025-08-14T22:51:57.343Z,6,GR86-035-11,-74.0,-0.222,-0.949,2.49,2.0,,0.0,0.0,
2025-08-14T22:51:57.386Z,6,GR86-035-11,-74.7,-0.221,-0.947,2.49,2.0,,0.0,0.0,
2025-08-14T22:51:57.429Z,6,GR86-035-11,-75.9,-0.213,-0.932,2.49,2.0,,0.0,0.0,
2025-08-14T22:51:57.472Z,6,GR86-035-11,-76.80000000000001,-0.214,-0.931,2.49,2.0,5350.0,0.0,0.0,
2025-08-14T22:51:57.517Z,6,GR86-035-11,-78.30000000000001,-0.208,-0.944,2.48,2.0,,0.0,0.0,95.72
2025-08-14T22:51:57.561Z,6,GR86-035-11,-80.30000000000001,-0.221,-0.987,2.49,2.0,,0.0,0.0,
2025-08-14T22:51:57.604Z,6,GR86-035-11,-82.80000000000001,-0.207,-0.959,2.49,2.0,,0.0,0.0,
2025-08-14T22:51:57.647Z,6,GR86-035-11,-83.0,-0.211,-0.993,2.49,2.0,,0.0,0.0,
2025-08-14T22:51:57.690Z,6,GR86-035-11,-83.0,-0.214,-0.982,2.48,2.0,5208.0,0.0,0.0,
2025-08-14T22:51:57.733Z,6,GR86-035-11,-82.7,-0.222,-1.012,2.49,2.0,,0.0,0.0,94.65
2025-08-14T22:51:57.777Z,6,GR86-035-11,-73.2,-0.202,-1.005,2.49,2.0,,0.0,0.0,
2025-08-14T22:51:57.820Z,6,GR86-035-11,-66.7,-0.219,-1.031,2.49,2.0,,0.0,0.0,
2025-08-14T22:51:57.863Z,6,GR86-035-11,-60.3,-0.211,-1.035,2.49,2.0,,0.0,0.0,
2025-08-14T22:51:57.906Z,6,GR86-035-11,-56.900000000000006,-0.208,-1.025,2.48,2.0,5114.0,0.0,0.0,
2025-08-14T22:51:57.949Z,6,GR86-035-11,-56.2,-0.202,-1.029,2.49,2.0,,0.0,0.0,93.49
2025-08-14T22:51:57.992Z,6,GR86-035-11,-58.6,-0.187,-1.017,18.64,2.0,,0.0,0.0,
2025-08-14T22:51:58.035Z,6,GR86-035-11,-66.10000000000001,-0.192,-1.008,20.38,2.0,,0.0,0.0,
2025-08-14T22:51:58.080Z,6,GR86-035-11,-70.10000000000001,-0.18,-1.001,20.51,2.0,,0.0,0.0,
2025-08-14T22:51:58.123Z,6,GR86-035-11,-75.5,-0.132,-1.004,24.61,2.0,5033.0,0.0,0.0,
2025-08-14T22:51:58.166Z,6,GR86-035-11,-78.30000000000001,-0.154,-0.993,30.11,2.0,,0.0,0.0,92.34
2025-08-14T22:51:58.209Z,6,GR86-035-11,-82.60000000000001,-0.086,-0.996,27.95,2.0,,0.0,0.0,
2025-08-14T22:51:58.252Z,6,GR86-035-11,-87.2,0.064,-0.968,22.8,2.0,,0.0,0.0,
2025-08-14T22:51:58.295Z,6,GR86-035-11,-94.7,0.079,-1.003,22.24,2.0,,0.0,0.0,
2025-08-14T22:51:58.338Z,6,GR86-035-11,-97.3,0.075,-0.93,24.01,2.0,5342.0,0.0,0.0,
2025-08-14T22:51:58.381Z,6,GR86-035-11,-98.2,0.057,-0.982,25.82,2.0,,0.0,0.0,90.81
2025-08-14T22:51:58.424Z,6,GR86-035-11,-98.5,0.024,-0.97,30.63,2.0,,0.0,0.0,
2025-08-14T22:51:58.467Z,6,GR86-035-11,-100.1,0.033,-0.953,32.37,2.0,,0.0,0.0,
2025-08-14T22:51:58.510Z,6,GR86-035-11,-101.7,0.03,-0.947,23.78,2.0,,0.0,0.0,
2025-08-14T22:51:58.553Z,6,GR86-035-11,-101.7,0.071,-0.941,22.08,2.0,5250.0,0.0,0.0,
2025-08-14T22:51:58.640Z,6,GR86-035-11,-101.4,0.053,-0.918,25.05,2.0,,0.0,0.0,89.63
2025-08-14T22:51:58.683Z,6,GR86-035-11,-101.3,0.025,-0.918,28.43,2.0,,0.0,0.0,
2025-08-14T22:51:58.726Z,6,GR86-035-11,-101.0,0.0,-0.934,33.04,2.0,,0.0,0.0,
2025-08-14T22:51:58.770Z,6,GR86-035-11,-100.0,0.024,-0.94,32.68,2.0,5230.0,0.0,0.0,
2025-08-14T22:51:58.813Z,6,GR86-035-11,-99.7,0.072,-0.941,31.82,2.0,,0.0,0.0,89.2
2025-08-14T22:51:58.856Z,6,GR86-035-11,-99.7,0.119,-0.92,32.13,2.0,,0.0,0.0,
2025-08-14T22:51:58.899Z,6,GR86-035-11,-99.7,0.1,-0.913,26.67,2.0,,0.0,0.0,
2025-08-14T22:51:58.942Z,6,GR86-035-11,-99.7,0.101,-0.935,24.63,2.0,,0.0,0.0,
2025-08-14T22:51:58.985Z,6,GR86-035-11,-99.7,0.062,-0.956,32.57,2.0,5324.0,0.0,0.0,
2025-08-14T22:51:59.028Z,6,GR86-035-11,-99.7,0.068,-0.956,42.25,2.0,,0.0,0.0,89.60000000000001
2025-08-14T22:51:59.071Z,6,GR86-035-11,-99.7,0.03,-0.982,39.02,2.0,,0.0,0.0,
2025-08-14T22:51:59.114Z,6,GR86-035-11,-99.7,0.068,-0.954,33.17,2.0,,0.0,0.0,
2025-08-14T22:51:59.157Z,6,GR86-035-11,-99.6,0.143,-0.945,35.0,2.0,,0.0,0.0,
2025-08-14T22:51:59.200Z,6,GR86-035-11,-96.3,0.138,-0.928,39.94,2.0,5294.0,0.0,0.0,
2025-08-14T22:51:59.286Z,6,GR86-035-11,-90.1,0.12,-0.903,48.5,2.0,,0.0,0.0,90.34
2025-08-14T22:51:59.329Z,6,GR86-035-11,-72.4,0.129,-0.913,98.31,2.0,,0.0,0.0,
2025-08-14T22:51:59.372Z,6,GR86-035-11,-61.2,0.156,-0.955,99.97,2.0,,0.0,0.0,
2025-08-14T22:51:59.415Z,6,GR86-035-11,-44.0,0.189,-0.907,99.97,2.0,5385.0,0.0,0.0,
2025-08-14T22:51:59.459Z,6,GR86-035-11,-37.0,0.24,-0.923,99.96,2.0,,0.0,0.0,91.07
2025-08-14T22:51:59.502Z,6,GR86-035-11,-36.0,0.256,-0.838,99.97,2.0,,0.0,0.0,
2025-08-14T22:51:59.545Z,6,GR86-035-11,-36.0,0.237,-0.865,99.96,2.0,,0.0,0.0,
2025-08-14T22:51:59.588Z,6,GR86-035-11,-36.7,0.228,-0.844,99.97,2.0,,0.0,0.0,
2025-08-14T22:51:59.631Z,6,GR86-035-11,-37.3,0.221,-0.862,99.96,2.0,5555.0,0.0,0.0,
2025-08-14T22:51:59.674Z,6,GR86-035-11,-36.8,0.205,-0.876,99.97,2.0,,0.0,0.0,92.01
2025-08-14T22:51:59.717Z,6,GR86-035-11,-29.4,0.254,-0.893,99.97,2.0,,0.0,0.0,
2025-08-14T22:51:59.760Z,6,GR86-035-11,-23.6,0.239,-0.893,99.96,2.0,,0.0,0.0,
2025-08-14T22:51:59.803Z,6,GR86-035-11,-21.9,0.252,-0.9,99.96,2.0,,0.0,0.0,
2025-08-14T22:51:59.846Z,6,GR86-035-11,-22.8,0.242,-0.864,99.98,2.0,5626.0,0.0,0.0,
2025-08-14T22:51:59.889Z,6,GR86-035-11,-27.5,0.235,-0.883,99.97,2.0,,0.0,0.0,95.07
2025-08-14T22:51:59.932Z,6,GR86-035-11,-31.0,0.249,-0.848,99.96,2.0,,0.0,0.0,
2025-08-14T22:51:59.977Z,6,GR86-035-11,-31.8,0.246,-0.777,99.97,2.0,,0.0,0.0,
2025-08-14T22:52:00.020Z,6,GR86-035-11,-31.8,0.234,-0.756,100.0,2.0,,0.0,0.0,
2025-08-14T22:52:00.063Z,6,GR86-035-11,-32.0,0.212,-0.736,99.97,2.0,5670.0,0.0,0.0,
2025-08-14T22:52:00.106Z,6,GR86-035-11,-32.0,0.215,-0.728,99.97,2.0,,0.0,0.0,96.43
2025-08-14T22:52:00.149Z,6,GR86-035-11,-33.6,0.246,-0.728,100.0,2.0,,0.0,0.0,
2025-08-14T22:52:00.192Z,6,GR86-035-11,-37.7,0.246,-0.711,99.97,2.0,,0.0,0.0,
2025-08-14T22:52:00.235Z,6,GR86-035-11,-44.6,0.228,-0.708,99.97,2.0,,0.0,0.0,
2025-08-14T22:52:00.278Z,6,GR86-035-11,-48.8,0.199,-0.731,99.96,2.0,5777.0,0.0,0.0,
2025-08-14T22:52:00.321Z,6,GR86-035-11,-51.400000000000006,0.19,-0.75,99.99,2.0,,0.0,0.0,97.17
2025-08-14T22:52:00.364Z,6,GR86-035-11,-52.3,0.197,-0.754,99.97,2.0,,0.0,0.0,
2025-08-14T22:52:00.407Z,6,GR86-035-11,-52.400000000000006,0.214,-0.754,99.96,2.0,,0.0,0.0,
2025-08-14T22:52:00.450Z,6,GR86-035-11,-52.2,0.224,-0.775,99.96,2.0,,0.0,0.0,
2025-08-14T22:52:00.493Z,6,GR86-035-11,-49.900000000000006,0.217,-0.79,99.97,2.0,5909.0,0.0,0.0,
2025-08-14T22:52:00.537Z,6,GR86-035-11,-46.8,0.175,-0.8190000000000001,99.98,2.0,,0.0,0.0,98.83
2025-08-14T22:52:00.580Z,6,GR86-035-11,-45.2,0.195,-0.838,99.97,2.0,,0.0,0.0,
2025-08-14T22:52:00.623Z,6,GR86-035-11,-43.7,0.241,-0.8280000000000001,99.96,2.0,,0.0,0.0,
2025-08-14T22:52:00.667Z,6,GR86-035-11,-40.400000000000006,0.22,-0.849,99.97,2.0,,0.0,0.0,
2025-08-14T22:52:00.712Z,6,GR86-035-11,-34.7,0.203,-0.835,99.97,2.0,6037.0,0.0,0.0,
2025-08-14T22:52:00.755Z,6,GR86-035-11,-26.1,0.219,-0.901,99.98,2.0,,0.0,0.0,101.43
2025-08-14T22:52:00.799Z,6,GR86-035-11,-21.5,0.222,-0.862,99.97,2.0,,0.0,0.0,
2025-08-14T22:52:00.842Z,6,GR86-035-11,-18.8,0.235,-0.845,99.96,2.0,,0.0,0.0,
2025-08-14T22:52:00.885Z,6,GR86-035-11,-18.5,0.237,-0.8240000000000001,99.96,2.0,,0.0,0.0,
2025-08-14T22:52:00.928Z,6,GR86-035-11,-18.6,0.218,-0.8270000000000001,99.97,2.0,6136.0,0.0,0.0,
2025-08-14T22:52:00.971Z,6,GR86-035-11,-18.8,0.232,-0.8170000000000001,99.97,2.0,,0.0,0.0,103.1
2025-08-14T22:52:01.014Z,6,GR86-035-11,-20.5,0.222,-0.8290000000000001,99.99,2.0,,0.0,0.0,
2025-08-14T22:52:01.057Z,6,GR86-035-11,-24.0,0.253,-0.8170000000000001,99.97,2.0,,0.0,0.0,
2025-08-14T22:52:01.100Z,6,GR86-035-11,-24.3,0.244,-0.803,99.98,2.0,,0.0,0.0,
2025-08-14T22:52:01.143Z,6,GR86-035-11,-23.6,0.209,-0.79,99.98,2.0,6194.0,0.0,0.0,
2025-08-14T22:52:01.186Z,6,GR86-035-11,-21.1,0.227,-0.759,99.99,2.0,,0.0,0.0,104.01
2025-08-14T22:52:01.229Z,6,GR86-035-11,-19.0,0.226,-0.6950000000000001,99.98,2.0,,0.0,0.0,
2025-08-14T22:52:01.272Z,6,GR86-035-11,-17.900000000000002,0.235,-0.665,99.97,2.0,,0.0,0.0,
2025-08-14T22:52:01.315Z,6,GR86-035-11,-17.8,0.232,-0.594,99.99,2.0,,0.0,0.0,
2025-08-14T22:52:01.358Z,6,GR86-035-11,-17.8,0.231,-0.556,100.0,2.0,6236.0,0.0,0.0,
2025-08-14T22:52:01.401Z,6,GR86-035-11,-17.3,0.222,-0.538,99.98,2.0,,0.0,0.0,104.99
2025-08-14T22:52:01.444Z,6,GR86-035-11,-16.5,0.236,-0.497,99.99,2.0,,0.0,0.0,
2025-08-14T22:52:01.487Z,6,GR86-035-11,-15.7,0.226,-0.474,99.99,2.0,,0.0,0.0,
2025-08-14T22:52:01.530Z,6,GR86-035-11,-15.1,0.23,-0.465,99.99,2.0,,0.0,0.0,
2025-08-14T22:52:01.573Z,6,GR86-035-11,-14.5,0.221,-0.443,100.01,2.0,6313.0,0.0,0.0,
2025-08-14T22:52:01.617Z,6,GR86-035-11,-12.9,0.241,-0.436,99.99,2.0,,0.0,0.0,106.61
2025-08-14T22:52:01.660Z,6,GR86-035-11,-11.7,0.241,-0.402,99.99,2.0,,0.0,0.0,
2025-08-14T22:52:01.703Z,6,GR86-035-11,-10.8,0.247,-0.368,100.0,2.0,,0.0,0.0,
2025-08-14T22:52:01.746Z,6,GR86-035-11,-10.3,0.22,-0.339,100.0,2.0,,0.0,0.0,
2025-08-14T22:52:01.789Z,6,GR86-035-11,-9.9,0.226,-0.305,99.99,2.0,6400.0,0.0,0.0,
2025-08-14T22:52:01.832Z,6,GR86-035-11,-9.8,0.219,-0.293,100.0,2.0,,0.0,0.0,108.4
2025-08-14T22:52:01.877Z,6,GR86-035-11,-9.6,0.25,-0.29,100.0,2.0,,0.0,0.0,
2025-08-14T22:52:01.920Z,6,GR86-035-11,-9.2,0.245,-0.271,99.99,2.0,,0.0,0.0,
2025-08-14T22:52:01.963Z,6,GR86-035-11,-8.4,0.248,-0.281,99.99,2.0,,0.0,0.0,
2025-08-14T22:52:02.006Z,6,GR86-035-11,-7.5,0.229,-0.257,99.99,2.0,6505.0,0.0,0.0,
2025-08-14T22:52:02.049Z,6,GR86-035-11,-7.2,0.217,-0.24,100.0,2.0,,0.0,0.0,110.04
2025-08-14T22:52:02.092Z,6,GR86-035-11,-6.6000000000000005,0.232,-0.257,100.0,2.0,,0.0,0.0,
2025-08-14T22:52:02.135Z,6,GR86-035-11,-4.1000000000000005,0.255,-0.251,100.0,2.0,,0.0,0.0,
2025-08-14T22:52:02.178Z,6,GR86-035-11,-3.2,0.238,-0.229,100.01,2.0,,0.0,0.0,
2025-08-14T22:52:02.221Z,6,GR86-035-11,-3.2,0.238,-0.21,100.0,2.0,6587.0,0.0,0.0,
2025-08-14T22:52:02.264Z,6,GR86-035-11,-3.2,0.231,-0.192,100.01,2.0,,0.0,0.0,111.72
2025-08-14T22:52:02.307Z,6,GR86-035-11,-3.2,0.218,-0.162,100.01,2.0,,0.0,0.0,
2025-08-14T22:52:02.350Z,6,GR86-035-11,-3.0,0.226,-0.152,100.0,2.0,,0.0,0.0,
2025-08-14T22:52:02.393Z,6,GR86-035-11,-2.7,0.249,-0.148,100.0,2.0,,0.0,0.0,
2025-08-14T22:52:02.436Z,6,GR86-035-11,-2.1,0.248,-0.149,99.99,2.0,6666.0,0.0,0.0,
2025-08-14T22:52:02.480Z,6,GR86-035-11,-1.8,0.243,-0.148,99.99,2.0,,0.0,0.0,115.33
2025-08-14T22:52:02.523Z,6,GR86-035-11,-1.8,0.24,-0.115,99.99,2.0,,0.0,0.0,
2025-08-14T22:52:02.566Z,6,GR86-035-11,-1.7000000000000002,0.246,-0.105,100.02,2.0,,0.0,0.0,
2025-08-14T22:52:02.609Z,6,GR86-035-11,-1.5,0.214,-0.08,100.03,2.0,,0.0,0.0,
2025-08-14T22:52:02.652Z,6,GR86-035-11,-1.2000000000000002,0.221,-0.076,100.0,2.0,6796.0,0.0,0.0,
2025-08-14T22:52:02.738Z,6,GR86-035-11,-1.2000000000000002,0.251,-0.066,100.0,2.0,,0.0,0.0,117.12
2025-08-14T22:52:02.781Z,6,GR86-035-11,-0.7000000000000001,0.236,-0.064,100.0,2.0,,0.0,0.0,
2025-08-14T22:52:02.824Z,6,GR86-035-11,-0.6000000000000001,0.231,-0.068,100.03,2.0,,0.0,0.0,
2025-08-14T22:52:02.867Z,6,GR86-035-11,-0.6000000000000001,0.239,-0.077,100.03,2.0,6892.0,0.0,0.0,
2025-08-14T22:52:02.910Z,6,GR86-035-11,-0.6000000000000001,0.221,-0.075,100.0,2.0,,0.0,0.0,118.92
2025-08-14T22:52:02.954Z,6,GR86-035-11,-0.6000000000000001,0.231,-0.065,100.02,2.0,,0.0,0.0,
2025-08-14T22:52:02.997Z,6,GR86-035-11,-0.1,0.227,-0.063,100.03,2.0,,0.0,0.0,
2025-08-14T22:52:03.041Z,6,GR86-035-11,-0.1,0.239,-0.054,100.03,2.0,,0.0,0.0,
2025-08-14T22:52:03.084Z,6,GR86-035-11,-0.1,0.213,-0.059,100.03,2.0,7071.0,0.0,0.0,
2025-08-14T22:52:03.127Z,6,GR86-035-11,0.0,0.216,-0.046,100.02,2.0,,0.0,0.0,120.72
2025-08-14T22:52:03.170Z,6,GR86-035-11,0.0,0.242,-0.048,100.03,2.0,,0.0,0.0,
2025-08-14T22:52:03.213Z,6,GR86-035-11,0.0,0.215,-0.032,100.0,2.0,,0.0,0.0,
2025-08-14T22:52:03.256Z,6,GR86-035-11,0.1,0.212,-0.032,100.03,2.0,,0.0,0.0,
2025-08-14T22:52:03.300Z,6,GR86-035-11,0.2,0.208,-0.03,100.0,2.0,7172.0,0.0,0.0,
2025-08-14T22:52:03.343Z,6,GR86-035-11,0.3,0.239,-0.024,100.01,2.0,,0.0,0.0,122.34
2025-08-14T22:52:03.386Z,6,GR86-035-11,0.7000000000000001,0.225,-0.026,100.02,2.0,,0.0,0.0,
2025-08-14T22:52:03.429Z,6,GR86-035-11,0.8,0.211,-0.019,100.02,2.0,,0.0,0.0,
2025-08-14T22:52:03.472Z,6,GR86-035-11,0.9,0.222,-0.012,100.02,2.0,,0.0,0.0,
2025-08-14T22:52:03.515Z,6,GR86-035-11,1.2000000000000002,0.206,-0.02,100.03,2.0,7252.0,0.0,0.0,
2025-08-14T22:52:03.561Z,6,GR86-035-11,1.2000000000000002,-0.062,-0.004,100.03,3.0,,0.0,0.0,124.0
2025-08-14T22:52:03.604Z,6,GR86-035-11,1.2000000000000002,-0.038,0.009,100.01,3.0,,0.0,0.0,
2025-08-14T22:52:03.647Z,6,GR86-035-11,2.0,0.481,-0.049,100.03,3.0,,0.0,0.0,
2025-08-14T22:52:03.690Z,6,GR86-035-11,2.1,0.348,-0.052,100.03,3.0,,0.0,0.0,
2025-08-14T22:52:03.733Z,6,GR86-035-11,2.1,0.296,0.023,100.03,3.0,6500.0,0.0,0.0,
2025-08-14T22:52:03.777Z,6,GR86-035-11,2.1,0.231,-0.054,100.03,3.0,,0.0,0.0,125.46
2025-08-14T22:52:03.820Z,6,GR86-035-11,2.1,0.113,0.021,100.03,3.0,,0.0,0.0,
2025-08-14T22:52:03.863Z,6,GR86-035-11,2.1,0.153,0.033,100.03,3.0,,0.0,0.0,
2025-08-14T22:52:03.906Z,6,GR86-035-11,2.1,0.211,-0.027,100.03,3.0,,0.0,0.0,
2025-08-14T22:52:03.949Z,6,GR86-035-11,2.1,0.192,0.023,100.03,3.0,5993.0,0.0,0.0,
2025-08-14T22:52:03.992Z,6,GR86-035-11,2.1,0.201,0.003,100.03,3.0,,0.0,0.0,127.0
2025-08-14T22:52:04.035Z,6,GR86-035-11,2.1,0.168,0.021,100.03,3.0,,0.0,0.0,
2025-08-14T22:52:04.079Z,6,GR86-035-11,2.1,0.187,0.023,100.03,3.0,,0.0,0.0,
2025-08-14T22:52:04.122Z,6,GR86-035-11,2.1,0.198,0.018,100.03,3.0,,0.0,0.0,
2025-08-14T22:52:04.208Z,6,GR86-035-11,2.1,0.17,0.039,100.03,3.0,6081.0,0.0,0.0,128.5
2025-08-14T22:52:04.251Z,6,GR86-035-11,2.1,0.198,0.029,100.03,3.0,,0.0,0.0,
2025-08-14T22:52:04.294Z,6,GR86-035-11,2.1,0.192,0.033,100.03,3.0,,0.0,0.0,
2025-08-14T22:52:04.337Z,6,GR86-035-11,2.0,0.205,0.022,100.03,3.0,,0.0,0.0,
2025-08-14T22:52:04.380Z,6,GR86-035-11,2.0,0.173,0.034,100.03,3.0,6164.0,0.0,0.0,
2025-08-14T22:52:04.423Z,6,GR86-035-11,2.0,0.166,0.02,100.03,3.0,,0.0,0.0,129.82
2025-08-14T22:52:04.466Z,6,GR86-035-11,2.0,0.173,0.029,100.04,3.0,,0.0,0.0,
2025-08-14T22:52:04.509Z,6,GR86-035-11,2.0,0.199,0.024,100.03,3.0,,0.0,0.0,
2025-08-14T22:52:04.552Z,6,GR86-035-11,2.0,0.191,0.024,100.03,3.0,,0.0,0.0,
2025-08-14T22:52:04.595Z,6,GR86-035-11,2.0,0.175,0.032,100.03,3.0,6208.0,0.0,0.0,
2025-08-14T22:52:04.638Z,6,GR86-035-11,2.0,0.175,0.027,100.03,3.0,,0.0,0.0,131.18
2025-08-14T22:52:04.681Z,6,GR86-035-11,2.0,0.182,0.022,100.02,3.0,,0.0,0.0,
2025-08-14T22:52:04.724Z,6,GR86-035-11,2.0,0.191,0.015,100.03,3.0,,0.0,0.0,
2025-08-14T22:52:04.767Z,6,GR86-035-11,2.0,0.19,0.012,100.02,3.0,,0.0,0.0,
2025-08-14T22:52:04.810Z,6,GR86-035-11,2.0,0.182,0.009,100.03,3.0,6271.0,0.0,0.0,
2025-08-14T22:52:04.853Z,6,GR86-035-11,2.0,0.181,0.012,100.03,3.0,,0.0,0.0,132.52
2025-08-14T22:52:04.897Z,6,GR86-035-11,2.0,0.171,0.02,100.03,3.0,,0.0,0.0,
2025-08-14T22:52:04.940Z,6,GR86-035-11,2.0,0.178,0.018,100.03,3.0,,0.0,0.0,
2025-08-14T22:52:04.983Z,6,GR86-035-11,2.0,0.19,0.029,100.03,3.0,,0.0,0.0,
2025-08-14T22:52:05.026Z,6,GR86-035-11,2.0,0.178,0.015,100.0,3.0,6318.0,0.0,0.0,
2025-08-14T22:52:05.069Z,6,GR86-035-11,1.9,0.172,0.023,100.03,3.0,,0.0,0.0,133.92000000000002
2025-08-14T22:52:05.112Z,6,GR86-035-11,1.9,0.174,0.022,100.01,3.0,,0.0,0.0,
2025-08-14T22:52:05.155Z,6,GR86-035-11,1.9,0.178,0.025,100.03,3.0,,0.0,0.0,
2025-08-14T22:52:05.198Z,6,GR86-035-11,1.9,0.195,0.008,100.02,3.0,,0.0,0.0,
2025-08-14T22:52:05.242Z,6,GR86-035-11,1.8,0.191,0.014,100.02,3.0,6382.0,0.0,0.0,
2025-08-14T22:52:05.285Z,6,GR86-035-11,1.4,0.172,-0.007,100.02,3.0,,0.0,0.0,136.45
2025-08-14T22:52:05.328Z,6,GR86-035-11,1.3,0.167,0.009,100.03,3.0,,0.0,0.0,
2025-08-14T22:52:05.371Z,6,GR86-035-11,1.2000000000000002,0.193,0.005,100.02,3.0,,0.0,0.0,
2025-08-14T22:52:05.414Z,6,GR86-035-11,1.2000000000000002,0.196,-0.006,100.03,3.0,,0.0,0.0,
2025-08-14T22:52:05.457Z,6,GR86-035-11,0.8,0.189,-0.004,100.0,3.0,6445.0,0.0,0.0,
2025-08-14T22:52:05.500Z,6,GR86-035-11,0.5,0.192,-0.017,100.03,3.0,,0.0,0.0,137.62
2025-08-14T22:52:05.543Z,6,GR86-035-11,0.5,0.167,-0.005,100.02,3.0,,0.0,0.0,
2025-08-14T22:52:05.586Z,6,GR86-035-11,0.4,0.157,-0.006,100.02,3.0,,0.0,0.0,
2025-08-14T22:52:05.629Z,6,GR86-035-11,0.3,0.181,-0.013,100.03,3.0,,0.0,0.0,
2025-08-14T22:52:05.672Z,6,GR86-035-11,0.3,0.205,-0.021,100.03,3.0,6506.0,0.0,0.0,
2025-08-14T22:52:05.715Z,6,GR86-035-11,0.1,0.187,-0.037,100.02,3.0,,0.0,0.0,138.85
2025-08-14T22:52:05.758Z,6,GR86-035-11,-0.3,0.183,-0.041,100.03,3.0,,0.0,0.0,
2025-08-14T22:52:05.801Z,6,GR86-035-11,-0.6000000000000001,0.166,-0.045,100.03,3.0,,0.0,0.0,
2025-08-14T22:52:05.844Z,6,GR86-035-11,-0.6000000000000001,0.161,-0.043,100.02,3.0,,0.0,0.0,
2025-08-14T22:52:05.887Z,6,GR86-035-11,-0.6000000000000001,0.189,-0.047,100.01,3.0,6624.0,0.0,0.0,
2025-08-14T22:52:05.930Z,6,GR86-035-11,-0.6000000000000001,0.202,-0.052,100.0,3.0,,0.0,0.0,140.06
2025-08-14T22:52:05.973Z,6,GR86-035-11,-0.6000000000000001,0.184,-0.057,100.03,3.0,,0.0,0.0,
2025-08-14T22:52:06.017Z,6,GR86-035-11,-0.6000000000000001,0.19,-0.057,100.03,3.0,,0.0,0.0,
2025-08-14T22:52:06.060Z,6,GR86-035-11,-0.6000000000000001,0.173,-0.064,100.01,3.0,,0.0,0.0,
2025-08-14T22:52:06.103Z,6,GR86-035-11,-0.6000000000000001,0.144,-0.058,99.99,3.0,6686.0,0.0,0.0,
2025-08-14T22:52:06.146Z,6,GR86-035-11,-0.6000000000000001,0.153,-0.064,100.03,3.0,,0.0,0.0,141.25
2025-08-14T22:52:06.189Z,6,GR86-035-11,-0.6000000000000001,0.179,-0.071,100.03,3.0,,0.0,0.0,
2025-08-14T22:52:06.232Z,6,GR86-035-11,-0.6000000000000001,0.183,-0.074,100.01,3.0,,0.0,0.0,
2025-08-14T22:52:06.277Z,6,GR86-035-11,-0.6000000000000001,0.178,-0.062,100.02,3.0,,0.0,0.0,
2025-08-14T22:52:06.320Z,6,GR86-035-11,-0.6000000000000001,0.185,-0.068,100.03,3.0,6735.0,0.0,0.0,
2025-08-14T22:52:06.363Z,6,GR86-035-11,-0.6000000000000001,0.164,-0.062,100.03,3.0,,0.0,0.0,142.49
2025-08-14T22:52:06.406Z,6,GR86-035-11,-0.6000000000000001,0.149,-0.062,100.03,3.0,,0.0,0.0,
2025-08-14T22:52:06.449Z,6,GR86-035-11,-0.6000000000000001,0.167,-0.065,100.03,3.0,,0.0,0.0,
2025-08-14T22:52:06.492Z,6,GR86-035-11,-0.6000000000000001,0.19,-0.071,100.03,3.0,,0.0,0.0,
2025-08-14T22:52:06.535Z,6,GR86-035-11,-0.6000000000000001,0.158,-0.058,100.04,3.0,6789.0,0.0,0.0,
2025-08-14T22:52:06.578Z,6,GR86-035-11,-0.7000000000000001,0.181,-0.062,100.01,3.0,,0.0,0.0,143.6
2025-08-14T22:52:06.621Z,6,GR86-035-11,-0.7000000000000001,0.176,-0.057,100.0,3.0,,0.0,0.0,
2025-08-14T22:52:06.664Z,6,GR86-035-11,-0.7000000000000001,0.168,-0.039,100.03,3.0,,0.0,0.0,
2025-08-14T22:52:06.707Z,6,GR86-035-11,-0.7000000000000001,0.15,-0.05,100.02,3.0,,0.0,0.0,
2025-08-14T22:52:06.750Z,6,GR86-035-11,-0.7000000000000001,0.16,-0.054,100.02,3.0,6847.0,0.0,0.0,
2025-08-14T22:52:06.793Z,6,GR86-035-11,-0.7000000000000001,0.168,-0.051,100.03,3.0,,0.0,0.0,144.76
2025-08-14T22:52:06.836Z,6,GR86-035-11,-0.5,0.152,-0.039,100.01,3.0,,0.0,0.0,
2025-08-14T22:52:06.880Z,6,GR86-035-11,-0.4,0.179,-0.035,100.01,3.0,,0.0,0.0,
2025-08-14T22:52:06.923Z,6,GR86-035-11,-0.4,0.174,-0.046,100.03,3.0,,0.0,0.0,
2025-08-14T22:52:06.967Z,6,GR86-035-11,-0.3,0.176,-0.048,100.03,3.0,6904.0,0.0,0.0,
2025-08-14T22:52:07.011Z,6,GR86-035-11,-0.3,0.159,-0.041,100.02,3.0,,0.0,0.0,145.91
2025-08-14T22:52:07.054Z,6,GR86-035-11,-0.3,0.16,-0.046,100.03,3.0,,0.0,0.0,
2025-08-14T22:52:07.097Z,6,GR86-035-11,-0.3,0.161,-0.03,99.99,3.0,,0.0,0.0,
2025-08-14T22:52:07.140Z,6,GR86-035-11,-0.3,0.161,-0.02,100.0,3.0,,0.0,0.0,
2025-08-14T22:52:07.183Z,6,GR86-035-11,-0.3,0.174,-0.015,100.02,3.0,6950.0,0.0,0.0,
2025-08-14T22:52:07.226Z,6,GR86-035-11,-0.4,0.155,-0.026,99.99,3.0,,0.0,0.0,147.1
2025-08-14T22:52:07.269Z,6,GR86-035-11,-0.4,0.148,-0.02,100.0,3.0,,0.0,0.0,
2025-08-14T22:52:07.312Z,6,GR86-035-11,-0.4,0.157,-0.022,99.99,3.0,,0.0,0.0,
2025-08-14T22:52:07.355Z,6,GR86-035-11,-0.4,0.168,-0.027,100.02,3.0,,0.0,0.0,
2025-08-14T22:52:07.400Z,6,GR86-035-11,-0.4,0.158,-0.033,100.03,3.0,6997.0,0.0,0.0,
2025-08-14T22:52:07.443Z,6,GR86-035-11,-0.5,0.161,-0.038,100.04,3.0,,0.0,0.0,148.25
2025-08-14T22:52:07.486Z,6,GR86-035-11,-1.1,0.16,-0.031,100.01,3.0,,0.0,0.0,
2025-08-14T22:52:07.529Z,6,GR86-035-11,-1.4,0.157,-0.043,100.03,3.0,,0.0,0.0,
2025-08-14T22:52:07.572Z,6,GR86-035-11,-1.4,0.153,-0.055,100.01,3.0,,0.0,0.0,
2025-08-14T22:52:07.615Z,6,GR86-035-11,-1.4,0.17,-0.08,100.01,3.0,7043.0,0.0,0.0,
2025-08-14T22:52:07.658Z,6,GR86-035-11,-1.4,0.153,-0.084,100.03,3.0,,0.0,0.0,149.44
2025-08-14T22:52:07.701Z,6,GR86-035-11,-1.5,0.141,-0.08,100.02,3.0,,0.0,0.0,
2025-08-14T22:52:07.744Z,6,GR86-035-11,-1.5,0.136,-0.076,100.01,3.0,,0.0,0.0,
2025-08-14T22:52:07.787Z,6,GR86-035-11,-1.5,0.151,-0.073,99.99,3.0,,0.0,0.0,
2025-08-14T22:52:07.831Z,6,GR86-035-11,-1.5,0.171,-0.083,100.01,3.0,7098.0,0.0,0.0,
2025-08-14T22:52:07.917Z,6,GR86-035-11,-1.6,0.167,-0.095,99.98,3.0,,0.0,0.0,150.55
2025-08-14T22:52:07.960Z,6,GR86-035-11,-1.6,0.165,-0.095,99.97,3.0,,0.0,0.0,
2025-08-14T22:52:08.003Z,6,GR86-035-11,-1.6,0.169,-0.093,100.03,3.0,,0.0,0.0,
2025-08-14T22:52:08.046Z,6,GR86-035-11,-1.6,0.143,-0.084,100.03,3.0,7157.0,0.0,0.0,
2025-08-14T22:52:08.089Z,6,GR86-035-11,-1.6,0.119,-0.076,100.03,3.0,,0.0,0.0,152.68
2025-08-14T22:52:08.132Z,6,GR86-035-11,-1.6,0.127,-0.075,100.0,3.0,,0.0,0.0,
2025-08-14T22:52:08.177Z,6,GR86-035-11,-1.6,0.142,-0.1,100.0,3.0,,0.0,0.0,
2025-08-14T22:52:08.220Z,6,GR86-035-11,-1.6,0.127,-0.076,99.99,3.0,,0.0,0.0,
2025-08-14T22:52:08.263Z,6,GR86-035-11,-1.6,0.126,-0.073,100.02,3.0,7199.0,0.0,0.0,
2025-08-14T22:52:08.306Z,6,GR86-035-11,-1.6,0.144,-0.08,100.02,3.0,,0.0,0.0,153.64
2025-08-14T22:52:08.349Z,6,GR86-035-11,-1.6,0.165,-0.087,99.99,3.0,,0.0,0.0,
2025-08-14T22:52:08.392Z,6,GR86-035-11,-1.6,0.171,-0.109,99.99,3.0,,0.0,0.0,
2025-08-14T22:52:08.435Z,6,GR86-035-11,-0.7000000000000001,0.104,-0.111,99.99,3.0,,0.0,0.0,
2025-08-14T22:52:08.478Z,6,GR86-035-11,-1.0,-0.131,-0.067,100.01,4.0,7071.0,0.0,0.0,
2025-08-14T22:52:08.521Z,6,GR86-035-11,-1.1,0.404,-0.064,100.0,4.0,,0.0,0.0,154.72
2025-08-14T22:52:08.563Z,6,GR86-035-11,-1.0,0.213,-0.151,99.99,4.0,,0.0,0.0,
2025-08-14T22:52:08.607Z,6,GR86-035-11,-1.1,0.235,-0.083,100.0,4.0,,0.0,0.0,
2025-08-14T22:52:08.650Z,6,GR86-035-11,-1.1,0.16,-0.044,100.0,4.0,,0.0,0.0,
2025-08-14T22:52:08.693Z,6,GR86-035-11,-1.1,0.063,-0.128,100.0,4.0,6135.0,0.0,0.0,
2025-08-14T22:52:08.736Z,6,GR86-035-11,-1.1,0.122,-0.041,99.99,4.0,,0.0,0.0,155.62
2025-08-14T22:52:08.780Z,6,GR86-035-11,-1.1,0.104,-0.09,100.0,4.0,,0.0,0.0,
2025-08-14T22:52:08.866Z,6,GR86-035-11,-1.1,0.113,-0.058,99.99,4.0,,0.0,0.0,
2025-08-14T22:52:08.909Z,6,GR86-035-11,-1.1,0.121,-0.069,99.99,4.0,6218.0,0.0,0.0,
2025-08-14T22:52:08.952Z,6,GR86-035-11,-1.1,0.137,-0.066,100.0,4.0,,0.0,0.0,156.87
2025-08-14T22:52:08.995Z,6,GR86-035-11,-1.1,0.115,-0.063,99.99,4.0,,0.0,0.0,
2025-08-14T22:52:09.038Z,6,GR86-035-11,-1.1,0.122,-0.056,100.0,4.0,,0.0,0.0,
2025-08-14T22:52:09.124Z,6,GR86-035-11,-1.1,0.147,-0.059,99.99,4.0,6260.0,0.0,0.0,
2025-08-14T22:52:09.167Z,6,GR86-035-11,-1.1,0.139,-0.073,100.0,4.0,,0.0,0.0,157.83
2025-08-14T22:52:09.210Z,6,GR86-035-11,-1.1,0.126,-0.069,100.0,4.0,,0.0,0.0,
2025-08-14T22:52:09.253Z,6,GR86-035-11,-1.1,0.115,-0.049,99.99,4.0,,0.0,0.0,
2025-08-14T22:52:09.296Z,6,GR86-035-11,-1.6,0.125,-0.062,99.99,4.0,,0.0,0.0,
2025-08-14T22:52:09.341Z,6,GR86-035-11,-1.6,0.131,-0.056,99.98,4.0,6290.0,0.0,0.0,
2025-08-14T22:52:09.384Z,6,GR86-035-11,-1.6,0.106,-0.058,100.0,4.0,,0.0,0.0,158.9
2025-08-14T22:52:09.427Z,6,GR86-035-11,-1.6,0.12,-0.062,99.99,4.0,,0.0,0.0,
2025-08-14T22:52:09.470Z,6,GR86-035-11,-1.6,0.113,-0.067,99.99,4.0,,0.0,0.0,
2025-08-14T22:52:09.513Z,6,GR86-035-11,-1.6,0.105,-0.08,99.99,4.0,,0.0,0.0,
2025-08-14T22:52:09.556Z,6,GR86-035-11,-1.6,0.108,-0.08,100.02,4.0,6338.0,0.0,0.0,
2025-08-14T22:52:09.599Z,6,GR86-035-11,-1.6,0.119,-0.105,100.0,4.0,,0.0,0.0,159.81
2025-08-14T22:52:09.642Z,6,GR86-035-11,-1.8,0.112,-0.111,99.99,4.0,,0.0,0.0,
2025-08-14T22:52:09.685Z,6,GR86-035-11,-2.2,0.114,-0.119,99.99,4.0,,0.0,0.0,
2025-08-14T22:52:09.728Z,6,GR86-035-11,-2.7,0.113,-0.129,100.0,4.0,,0.0,0.0,
2025-08-14T22:52:09.814Z,6,GR86-035-11,-3.2,0.118,-0.143,99.99,4.0,6371.0,0.0,0.0,160.74
2025-08-14T22:52:09.857Z,6,GR86-035-11,-3.2,0.108,-0.15,99.99,4.0,,0.0,0.0,
2025-08-14T22:52:09.900Z,6,GR86-035-11,-3.2,0.117,-0.156,100.01,4.0,,0.0,0.0,
2025-08-14T22:52:09.943Z,6,GR86-035-11,-3.3000000000000003,0.101,-0.152,99.99,4.0,,0.0,0.0,
2025-08-14T22:52:09.986Z,6,GR86-035-11,-3.3000000000000003,0.099,-0.156,100.0,4.0,6404.0,0.0,0.0,
2025-08-14T22:52:10.029Z,6,GR86-035-11,-3.6,0.102,-0.155,99.99,4.0,,0.0,0.0,161.70000000000002
2025-08-14T22:52:10.072Z,6,GR86-035-11,-4.0,0.111,-0.166,100.0,4.0,,0.0,0.0,
2025-08-14T22:52:10.117Z,6,GR86-035-11,-4.2,0.123,-0.204,100.01,4.0,,0.0,0.0,
2025-08-14T22:52:10.161Z,6,GR86-035-11,-4.2,0.112,-0.19,100.0,4.0,,0.0,0.0,
2025-08-14T22:52:10.204Z,6,GR86-035-11,-4.2,0.105,-0.187,100.0,4.0,6449.0,0.0,0.0,
2025-08-14T22:52:10.247Z,6,GR86-035-11,-4.2,0.11,-0.18,100.0,4.0,,0.0,0.0,162.70000000000002
2025-08-14T22:52:10.290Z,6,GR86-035-11,-4.2,0.109,-0.181,99.98,4.0,,0.0,0.0,
2025-08-14T22:52:10.333Z,6,GR86-035-11,-4.3,0.117,-0.196,99.99,4.0,,0.0,0.0,
2025-08-14T22:52:10.420Z,6,GR86-035-11,-4.3,0.104,-0.203,100.01,4.0,6486.0,0.0,0.0,
2025-08-14T22:52:10.463Z,6,GR86-035-11,-4.3,0.096,-0.185,99.99,4.0,,0.0,0.0,163.72
2025-08-14T22:52:10.506Z,6,GR86-035-11,-4.3,0.096,-0.183,99.99,4.0,,0.0,0.0,
2025-08-14T22:52:10.549Z,6,GR86-035-11,-4.3,0.113,-0.186,100.01,4.0,,0.0,0.0,
2025-08-14T22:52:10.592Z,6,GR86-035-11,-4.3,0.112,-0.19,100.0,4.0,,0.0,0.0,
2025-08-14T22:52:10.635Z,6,GR86-035-11,-3.6,0.09,-0.178,100.0,4.0,6530.0,0.0,0.0,
2025-08-14T22:52:10.679Z,6,GR86-035-11,-3.1,0.086,-0.178,100.0,4.0,,0.0,0.0,165.58
2025-08-14T22:52:10.722Z,6,GR86-035-11,-3.1,0.101,-0.182,99.98,4.0,,0.0,0.0,
2025-08-14T22:52:10.765Z,6,GR86-035-11,-3.0,0.098,-0.165,100.0,4.0,,0.0,0.0,
2025-08-14T22:52:10.808Z,6,GR86-035-11,-2.8000000000000003,0.113,-0.173,100.02,4.0,,0.0,0.0,
2025-08-14T22:52:10.851Z,6,GR86-035-11,-2.7,0.123,-0.175,100.01,4.0,6562.0,0.0,0.0,
2025-08-14T22:52:10.894Z,6,GR86-035-11,-2.7,0.136,-0.173,100.01,4.0,,0.0,0.0,166.38
2025-08-14T22:52:10.937Z,6,GR86-035-11,-2.5,0.082,-0.145,100.0,4.0,,0.0,0.0,
2025-08-14T22:52:11.023Z,6,GR86-035-11,-2.4000000000000004,0.079,-0.145,99.99,4.0,,0.0,0.0,
2025-08-14T22:52:11.066Z,6,GR86-035-11,-2.4000000000000004,0.112,-0.144,99.99,4.0,6604.0,0.0,0.0,
2025-08-14T22:52:11.109Z,6,GR86-035-11,-2.4000000000000004,0.118,-0.142,99.99,4.0,,0.0,0.0,167.54
2025-08-14T22:52:11.152Z,6,GR86-035-11,-2.4000000000000004,0.137,-0.117,100.0,4.0,,0.0,0.0,
2025-08-14T22:52:11.195Z,6,GR86-035-11,-2.4000000000000004,0.072,-0.106,100.01,4.0,,0.0,0.0,
2025-08-14T22:52:11.238Z,6,GR86-035-11,-2.4000000000000004,0.089,-0.102,99.99,4.0,,0.0,0.0,
2025-08-14T22:52:11.281Z,6,GR86-035-11,-2.4000000000000004,0.086,-0.104,99.98,4.0,6675.0,0.0,0.0,
2025-08-14T22:52:11.324Z,6,GR86-035-11,-2.4000000000000004,0.099,-0.089,100.0,4.0,,0.0,0.0,168.48
2025-08-14T22:52:11.367Z,6,GR86-035-11,-2.4000000000000004,0.11,-0.084,100.0,4.0,,0.0,0.0,
2025-08-14T22:52:11.410Z,6,GR86-035-11,-2.4000000000000004,0.117,-0.069,99.98,4.0,,0.0,0.0,
2025-08-14T22:52:11.453Z,6,GR86-035-11,-2.4000000000000004,0.117,-0.069,100.0,4.0,,0.0,0.0,
2025-08-14T22:52:11.497Z,6,GR86-035-11,-2.4000000000000004,0.085,-0.072,99.98,4.0,6705.0,0.0,0.0,
2025-08-14T22:52:11.540Z,6,GR86-035-11,-2.4000000000000004,0.084,-0.06,100.01,4.0,,0.0,0.0,169.46
2025-08-14T22:52:11.583Z,6,GR86-035-11,-2.4000000000000004,0.095,-0.082,99.98,4.0,,0.0,0.0,
2025-08-14T22:52:11.626Z,6,GR86-035-11,-2.4000000000000004,0.073,-0.083,99.98,4.0,,0.0,0.0,
2025-08-14T22:52:11.669Z,6,GR86-035-11,-2.4000000000000004,0.103,-0.093,99.98,4.0,,0.0,0.0,
2025-08-14T22:52:11.712Z,6,GR86-035-11,-2.5,0.103,-0.119,100.0,4.0,6738.0,0.0,0.0,
2025-08-14T22:52:11.755Z,6,GR86-035-11,-2.5,0.108,-0.105,100.01,4.0,,0.0,0.0,170.27
2025-08-14T22:52:11.798Z,6,GR86-035-11,-2.5,0.105,-0.111,100.0,4.0,,0.0,0.0,
2025-08-14T22:52:11.841Z,6,GR86-035-11,-2.5,0.082,-0.11,100.0,4.0,,0.0,0.0,
2025-08-14T22:52:11.884Z,6,GR86-035-11,-2.5,0.097,-0.13,99.98,4.0,,0.0,0.0,
2025-08-14T22:52:11.927Z,6,GR86-035-11,-2.5,0.087,-0.131,100.0,4.0,6772.0,0.0,0.0,
2025-08-14T22:52:11.970Z,6,GR86-035-11,-2.5,0.108,-0.105,99.99,4.0,,0.0,0.0,171.17000000000002
2025-08-14T22:52:12.013Z,6,GR86-035-11,-2.5,0.085,-0.096,99.98,4.0,,0.0,0.0,
2025-08-14T22:52:12.056Z,6,GR86-035-11,-2.5,0.09,-0.111,100.01,4.0,,0.0,0.0,
2025-08-14T22:52:12.100Z,6,GR86-035-11,-2.5,0.101,-0.124,100.0,4.0,,0.0,0.0,
2025-08-14T22:52:12.143Z,6,GR86-035-11,-2.5,0.113,-0.118,100.0,4.0,6813.0,0.0,0.0,
2025-08-14T22:52:12.186Z,6,GR86-035-11,-2.5,0.1,-0.129,99.98,4.0,,0.0,0.0,172.15
2025-08-14T22:52:12.229Z,6,GR86-035-11,-2.5,0.097,-0.118,99.99,4.0,,0.0,0.0,
2025-08-14T22:52:12.272Z,6,GR86-035-11,-2.5,0.088,-0.129,99.99,4.0,,0.0,0.0,
2025-08-14T22:52:12.315Z,6,GR86-035-11,-2.5,0.108,-0.148,99.97,4.0,,0.0,0.0,
2025-08-14T22:52:12.360Z,6,GR86-035-11,-2.5,0.103,-0.126,99.97,4.0,6836.0,0.0,0.0,
2025-08-14T22:52:12.403Z,6,GR86-035-11,-2.5,0.101,-0.136,99.99,4.0,,0.0,0.0,173.03
2025-08-14T22:52:12.446Z,6,GR86-035-11,-2.5,0.11,-0.159,100.01,4.0,,0.0,0.0,
2025-08-14T22:52:12.489Z,6,GR86-035-11,-2.5,0.107,-0.14,100.03,4.0,,0.0,0.0,
2025-08-14T22:52:12.532Z,6,GR86-035-11,-2.5,0.1,-0.121,100.0,4.0,,0.0,0.0,
2025-08-14T22:52:12.577Z,6,GR86-035-11,-2.6,0.082,-0.133,100.0,4.0,6876.0,0.0,0.0,
2025-08-14T22:52:12.620Z,6,GR86-035-11,-2.7,0.087,-0.162,99.99,4.0,,0.0,0.0,173.95000000000002
2025-08-14T22:52:12.663Z,6,GR86-035-11,-2.7,0.112,-0.179,99.99,4.0,,0.0,0.0,
2025-08-14T22:52:12.706Z,6,GR86-035-11,-2.7,0.103,-0.175,100.02,4.0,,0.0,0.0,
2025-08-14T22:52:12.749Z,6,GR86-035-11,-2.7,0.088,-0.171,100.02,4.0,,0.0,0.0,
2025-08-14T22:52:12.792Z,6,GR86-035-11,-2.7,0.069,-0.16,99.99,4.0,6925.0,0.0,0.0,
2025-08-14T22:52:12.835Z,6,GR86-035-11,-2.7,0.087,-0.145,100.0,4.0,,0.0,0.0,174.65
2025-08-14T22:52:12.878Z,6,GR86-035-11,-2.7,0.092,-0.151,99.98,4.0,,0.0,0.0,
2025-08-14T22:52:12.921Z,6,GR86-035-11,-2.7,0.088,-0.14,99.98,4.0,,0.0,0.0,
2025-08-14T22:52:12.964Z,6,GR86-035-11,-2.8000000000000003,0.102,-0.146,100.01,4.0,,0.0,0.0,
2025-08-14T22:52:13.007Z,6,GR86-035-11,-2.7,0.102,-0.138,99.99,4.0,6940.0,0.0,0.0,
2025-08-14T22:52:13.050Z,6,GR86-035-11,-2.8000000000000003,0.098,-0.155,99.99,4.0,,0.0,0.0,175.63
2025-08-14T22:52:13.093Z,6,GR86-035-11,-2.7,0.107,-0.17,100.03,4.0,,0.0,0.0,
2025-08-14T22:52:13.137Z,6,GR86-035-11,-2.7,0.09,-0.121,99.99,4.0,,0.0,0.0,
2025-08-14T22:52:13.180Z,6,GR86-035-11,-2.7,0.07,-0.111,100.0,4.0,,0.0,0.0,
2025-08-14T22:52:13.223Z,6,GR86-035-11,-2.7,0.085,-0.109,99.97,4.0,6967.0,0.0,0.0,
2025-08-14T22:52:13.268Z,6,GR86-035-11,-2.2,0.069,-0.093,99.97,4.0,,0.0,0.0,176.39
2025-08-14T22:52:13.311Z,6,GR86-035-11,-1.9,0.084,-0.107,99.99,4.0,,0.0,0.0,
2025-08-14T22:52:13.353Z,6,GR86-035-11,-1.8,0.076,-0.115,99.97,4.0,,0.0,0.0,
2025-08-14T22:52:13.397Z,6,GR86-035-11,-1.8,0.087,-0.12,99.99,4.0,,0.0,0.0,
2025-08-14T22:52:13.440Z,6,GR86-035-11,-1.8,0.078,-0.098,100.01,4.0,7014.0,0.0,0.0,
2025-08-14T22:52:13.483Z,6,GR86-035-11,-1.8,0.066,-0.093,99.99,4.0,,0.0,0.0,177.95000000000002
2025-08-14T22:52:13.957Z,6,GR86-035-11,-1.9,0.071,-0.065,99.99,4.0,,0.0,0.0,
2025-08-14T22:52:14.172Z,6,GR86-035-11,-1.9,0.076,-0.041,100.0,4.0,,0.0,0.0,
2025-08-14T22:52:14.258Z,6,GR86-035-11,-1.9,0.091,-0.081,99.99,4.0,,0.0,0.0,
2025-08-14T22:52:14.344Z,6,GR86-035-11,-1.9,0.067,-0.046,99.97,4.0,,0.0,0.0,180.82
2025-08-14T22:52:14.430Z,6,GR86-035-11,-1.9,0.078,-0.088,100.01,4.0,7145.0,0.0,0.0,180.07
2025-08-14T22:52:14.474Z,6,GR86-035-11,-1.9,0.092,-0.091,99.98,4.0,,0.0,0.0,
2025-08-14T22:52:14.517Z,6,GR86-035-11,-1.9,0.083,-0.097,100.0,4.0,7188.0,0.0,0.0,
2025-08-14T22:52:14.560Z,6,GR86-035-11,-1.8,0.067,-0.088,99.97,4.0,,0.0,0.0,181.52
2025-08-14T22:52:14.603Z,6,GR86-035-11,-1.0,0.081,-0.103,100.0,4.0,,0.0,0.0,
2025-08-14T22:52:14.646Z,6,GR86-035-11,-0.7000000000000001,0.073,-0.081,100.02,4.0,,0.0,0.0,
2025-08-14T22:52:14.689Z,6,GR86-035-11,-0.7000000000000001,0.071,-0.079,100.0,4.0,,0.0,0.0,
2025-08-14T22:52:14.732Z,6,GR86-035-11,-0.7000000000000001,0.08,-0.073,99.99,4.0,7196.0,0.0,0.0,
2025-08-14T22:52:14.777Z,6,GR86-035-11,-0.7000000000000001,0.071,-0.08,100.0,4.0,,0.0,0.0,182.35
2025-08-14T22:52:14.820Z,6,GR86-035-11,-0.7000000000000001,0.09,-0.074,100.0,4.0,,0.0,0.0,
2025-08-14T22:52:14.863Z,6,GR86-035-11,-0.5,0.078,-0.071,100.0,4.0,,0.0,0.0,
2025-08-14T22:52:14.906Z,6,GR86-035-11,-0.5,0.079,-0.075,100.02,4.0,,0.0,0.0,
2025-08-14T22:52:14.949Z,6,GR86-035-11,-0.5,0.079,-0.067,100.02,4.0,7236.0,0.0,0.0,
2025-08-14T22:52:14.992Z,6,GR86-035-11,-0.5,0.084,-0.077,99.98,4.0,,0.0,0.0,183.13
2025-08-14T22:52:15.035Z,6,GR86-035-11,-0.5,0.09,-0.051,100.02,4.0,,0.0,0.0,
2025-08-14T22:52:15.078Z,6,GR86-035-11,-0.4,0.086,-0.038,99.99,4.0,,0.0,0.0,
2025-08-14T22:52:15.121Z,6,GR86-035-11,0.1,0.056,-0.045,99.97,4.0,,0.0,0.0,
2025-08-14T22:52:15.164Z,6,GR86-035-11,0.1,-0.184,-0.014,100.0,5.0,7261.0,0.0,0.0,
2025-08-14T22:52:15.207Z,6,GR86-035-11,0.6000000000000001,0.172,-0.01,100.0,5.0,,0.0,0.0,183.8
2025-08-14T22:52:15.250Z,6,GR86-035-11,0.8,0.157,-0.083,99.99,5.0,,0.0,0.0,
2025-08-14T22:52:15.336Z,6,GR86-035-11,0.8,0.011,-0.036,100.0,5.0,,0.0,0.0,
2025-08-14T22:52:15.380Z,6,GR86-035-11,0.8,0.054,-0.056,100.0,5.0,6468.0,0.0,0.0,
2025-08-14T22:52:15.423Z,6,GR86-035-11,0.8,0.102,-0.005,99.99,5.0,,0.0,0.0,184.46
2025-08-14T22:52:15.466Z,6,GR86-035-11,0.8,0.08,-0.048,99.99,5.0,,0.0,0.0,
2025-08-14T22:52:15.509Z,6,GR86-035-11,0.8,0.079,-0.045,99.99,5.0,,0.0,0.0,
2025-08-14T22:52:15.552Z,6,GR86-035-11,0.8,0.08,-0.028,100.0,5.0,,0.0,0.0,
2025-08-14T22:52:15.595Z,6,GR86-035-11,0.8,0.06,-0.029,99.99,5.0,6336.0,0.0,0.0,
2025-08-14T22:52:15.638Z,6,GR86-035-11,0.8,0.066,-0.008,100.01,5.0,,0.0,0.0,185.05
2025-08-14T22:52:15.681Z,6,GR86-035-11,0.8,0.057,-0.003,100.0,5.0,,0.0,0.0,
2025-08-14T22:52:15.724Z,6,GR86-035-11,0.8,0.063,-0.023,100.01,5.0,,0.0,0.0,
2025-08-14T22:52:15.767Z,6,GR86-035-11,0.8,0.066,-0.031,99.99,5.0,,0.0,0.0,
2025-08-14T22:52:15.810Z,6,GR86-035-11,0.8,0.058,-0.014,100.0,5.0,6359.0,0.0,0.0,
2025-08-14T22:52:15.853Z,6,GR86-035-11,0.8,0.059,-0.002,100.0,5.0,,0.0,0.0,185.69
2025-08-14T22:52:15.896Z,6,GR86-035-11,0.8,0.084,0.023,100.0,5.0,,0.0,0.0,
2025-08-14T22:52:15.941Z,6,GR86-035-11,0.8,0.068,0.003,100.0,5.0,,0.0,0.0,
2025-08-14T22:52:15.984Z,6,GR86-035-11,0.9,0.07,-0.011,100.01,5.0,,0.0,0.0,
2025-08-14T22:52:16.027Z,6,GR86-035-11,0.9,0.076,-0.012,100.01,5.0,6371.0,0.0,0.0,
2025-08-14T22:52:16.070Z,6,GR86-035-11,0.9,0.07,-0.008,99.99,5.0,,0.0,0.0,186.51
2025-08-14T22:52:16.113Z,6,GR86-035-11,0.9,0.058,-0.004,100.0,5.0,,0.0,0.0,
2025-08-14T22:52:16.156Z,6,GR86-035-11,0.9,0.086,-0.016,100.0,5.0,,0.0,0.0,
2025-08-14T22:52:16.199Z,6,GR86-035-11,1.0,0.084,0.011,99.99,5.0,,0.0,0.0,
2025-08-14T22:52:16.242Z,6,GR86-035-11,1.1,0.083,-0.011,100.0,5.0,6409.0,0.0,0.0,
2025-08-14T22:52:16.285Z,6,GR86-035-11,1.1,0.082,-0.001,100.01,5.0,,0.0,0.0,187.87
2025-08-14T22:52:16.328Z,6,GR86-035-11,1.1,0.085,-0.016,100.0,5.0,,0.0,0.0,
2025-08-14T22:52:16.371Z,6,GR86-035-11,1.1,0.076,-0.009,99.99,5.0,,0.0,0.0,
2025-08-14T22:52:16.414Z,6,GR86-035-11,1.1,0.075,0.007,99.99,5.0,,0.0,0.0,
2025-08-14T22:52:16.457Z,6,GR86-035-11,1.1,0.074,-0.009,100.0,5.0,6416.0,0.0,0.0,
2025-08-14T22:52:16.500Z,6,GR86-035-11,1.1,0.067,-0.008,100.0,5.0,,0.0,0.0,188.47
2025-08-14T22:52:16.543Z,6,GR86-035-11,1.1,0.079,-0.011,100.01,5.0,,0.0,0.0,
2025-08-14T22:52:16.586Z,6,GR86-035-11,1.1,0.079,-0.011,100.0,5.0,,0.0,0.0,
2025-08-14T22:52:16.629Z,6,GR86-035-11,1.1,0.079,-0.011,99.99,5.0,,0.0,0.0,
2025-08-14T22:52:16.672Z,6,GR86-035-11,1.1,0.09,-0.016,100.0,5.0,6443.0,0.0,0.0,
2025-08-14T22:52:16.717Z,6,GR86-035-11,1.1,0.056,0.031,99.99,5.0,,0.0,0.0,189.03
2025-08-14T22:52:16.761Z,6,GR86-035-11,1.1,0.05,0.041,100.0,5.0,,0.0,0.0,
2025-08-14T22:52:16.804Z,6,GR86-035-11,1.1,0.063,0.032,100.01,5.0,,0.0,0.0,
2025-08-14T22:52:16.847Z,6,GR86-035-11,1.1,0.054,0.023,100.0,5.0,,0.0,0.0,
2025-08-14T22:52:16.890Z,6,GR86-035-11,1.1,0.074,0.026,100.0,5.0,6497.0,0.0,0.0,
2025-08-14T22:52:16.933Z,6,GR86-035-11,1.1,0.076,0.016,99.99,5.0,,0.0,0.0,189.67
2025-08-14T22:52:16.977Z,6,GR86-035-11,1.1,0.055,0.051,99.99,5.0,,0.0,0.0,
2025-08-14T22:52:17.020Z,6,GR86-035-11,1.1,0.04,0.037,100.02,5.0,,0.0,0.0,
2025-08-14T22:52:17.063Z,6,GR86-035-11,1.1,0.059,0.022,100.01,5.0,,0.0,0.0,
2025-08-14T22:52:17.106Z,6,GR86-035-11,1.1,0.05,0.024,99.99,5.0,6502.0,0.0,0.0,
2025-08-14T22:52:17.149Z,6,GR86-035-11,1.1,0.069,0.006,100.0,5.0,,0.0,0.0,190.37
2025-08-14T22:52:17.192Z,6,GR86-035-11,1.1,0.072,0.017,100.0,5.0,,0.0,0.0,
2025-08-14T22:52:17.235Z,6,GR86-035-11,1.1,0.057,-0.003,99.99,5.0,,0.0,0.0,
2025-08-14T22:52:17.279Z,6,GR86-035-11,1.1,0.044,0.008,100.0,5.0,,0.0,0.0,
2025-08-14T22:52:17.322Z,6,GR86-035-11,1.1,0.049,0.007,99.99,5.0,6518.0,0.0,0.0,
2025-08-14T22:52:17.365Z,6,GR86-035-11,1.1,0.039,0.012,100.0,5.0,,0.0,0.0,190.88
2025-08-14T22:52:17.408Z,6,GR86-035-11,1.1,0.073,0.015,99.99,5.0,,0.0,0.0,
2025-08-14T22:52:17.452Z,6,GR86-035-11,1.1,0.054,-0.005,99.99,5.0,,0.0,0.0,
2025-08-14T22:52:17.495Z,6,GR86-035-11,1.1,0.069,-0.01,100.03,5.0,,0.0,0.0,
2025-08-14T22:52:17.538Z,6,GR86-035-11,1.1,0.073,-0.003,99.98,5.0,6547.0,0.0,0.0,
2025-08-14T22:52:17.581Z,6,GR86-035-11,1.2000000000000002,0.062,-0.005,100.0,5.0,,0.0,0.0,191.4
2025-08-14T22:52:17.624Z,6,GR86-035-11,1.4,0.059,0.006,100.0,5.0,,0.0,0.0,
2025-08-14T22:52:17.667Z,6,GR86-035-11,1.8,0.058,0.002,100.0,5.0,,0.0,0.0,
2025-08-14T22:52:17.710Z,6,GR86-035-11,2.6,0.058,0.006,99.99,5.0,,0.0,0.0,
2025-08-14T22:52:17.753Z,6,GR86-035-11,2.8000000000000003,0.064,0.028,99.99,5.0,6571.0,0.0,0.0,
2025-08-14T22:52:17.797Z,6,GR86-035-11,3.0,0.078,0.021,99.99,5.0,,0.0,0.0,192.03
2025-08-14T22:52:17.840Z,6,GR86-035-11,3.3000000000000003,0.059,0.024,100.0,5.0,,0.0,0.0,
2025-08-14T22:52:17.883Z,6,GR86-035-11,3.4000000000000004,0.051,0.024,100.0,5.0,,0.0,0.0,
2025-08-14T22:52:17.926Z,6,GR86-035-11,3.8,0.062,0.039,100.02,5.0,,0.0,0.0,
2025-08-14T22:52:17.969Z,6,GR86-035-11,4.7,0.07,0.077,99.99,5.0,6590.0,0.0,0.0,
2025-08-14T22:52:18.012Z,6,GR86-035-11,5.6000000000000005,0.062,0.094,99.99,5.0,,0.0,0.0,192.67
2025-08-14T22:52:18.055Z,6,GR86-035-11,5.9,0.06,0.13,99.99,5.0,,0.0,0.0,
2025-08-14T22:52:18.099Z,6,GR86-035-11,5.9,0.064,0.129,100.02,5.0,,0.0,0.0,
2025-08-14T22:52:18.142Z,6,GR86-035-11,5.9,0.065,0.142,99.97,5.0,,0.0,0.0,
2025-08-14T22:52:18.185Z,6,GR86-035-11,5.9,0.06,0.138,99.99,5.0,6613.0,0.0,0.0,
2025-08-14T22:52:18.228Z,6,GR86-035-11,5.9,0.066,0.153,100.0,5.0,,0.0,0.0,193.27
2025-08-14T22:52:18.271Z,6,GR86-035-11,5.9,0.058,0.167,99.99,5.0,,0.0,0.0,
2025-08-14T22:52:18.314Z,6,GR86-035-11,5.9,0.07,0.193,100.01,5.0,,0.0,0.0,
2025-08-14T22:52:18.357Z,6,GR86-035-11,5.9,0.067,0.219,100.01,5.0,,0.0,0.0,
2025-08-14T22:52:18.400Z,6,GR86-035-11,5.9,0.062,0.21,100.0,5.0,6629.0,0.0,0.0,
2025-08-14T22:52:18.443Z,6,GR86-035-11,5.9,0.053,0.209,100.01,5.0,,0.0,0.0,194.02
2025-08-14T22:52:18.486Z,6,GR86-035-11,5.9,0.049,0.214,100.02,5.0,,0.0,0.0,
2025-08-14T22:52:18.529Z,6,GR86-035-11,5.9,0.051,0.231,99.99,5.0,,0.0,0.0,
2025-08-14T22:52:18.572Z,6,GR86-035-11,5.9,0.071,0.229,99.99,5.0,,0.0,0.0,
2025-08-14T22:52:18.615Z,6,GR86-035-11,6.5,0.065,0.237,100.0,5.0,6657.0,0.0,0.0,
2025-08-14T22:52:18.658Z,6,GR86-035-11,7.4,0.052,0.219,100.02,5.0,,0.0,0.0,194.83
2025-08-14T22:52:18.701Z,6,GR86-035-11,7.7,0.068,0.209,99.99,5.0,,0.0,0.0,
2025-08-14T22:52:18.744Z,6,GR86-035-11,7.7,0.068,0.221,99.99,5.0,,0.0,0.0,
2025-08-14T22:52:18.787Z,6,GR86-035-11,7.7,0.07,0.219,99.99,5.0,,0.0,0.0,
2025-08-14T22:52:18.831Z,6,GR86-035-11,7.7,0.078,0.231,99.99,5.0,6678.0,0.0,0.0,
2025-08-14T22:52:18.874Z,6,GR86-035-11,7.7,0.081,0.238,99.97,5.0,,0.0,0.0,195.53
2025-08-14T22:52:18.917Z,6,GR86-035-11,7.7,0.064,0.259,99.99,5.0,,0.0,0.0,
2025-08-14T22:52:18.960Z,6,GR86-035-11,7.7,0.062,0.263,99.99,5.0,,0.0,0.0,
2025-08-14T22:52:19.003Z,6,GR86-035-11,7.7,0.071,0.234,86.83,5.0,,0.0,0.0,
2025-08-14T22:52:19.046Z,6,GR86-035-11,7.7,0.064,0.259,85.0,5.0,6708.0,0.0,0.0,
2025-08-14T22:52:19.089Z,6,GR86-035-11,7.7,0.09,0.25,100.06,5.0,,0.0,0.0,196.63
2025-08-14T22:52:19.132Z,6,GR86-035-11,7.7,0.081,0.263,99.97,5.0,,0.0,0.0,
2025-08-14T22:52:19.176Z,6,GR86-035-11,7.7,0.068,0.274,99.95,5.0,,0.0,0.0,
2025-08-14T22:52:19.220Z,6,GR86-035-11,7.7,0.079,0.263,99.97,5.0,,0.0,0.0,
2025-08-14T22:52:19.263Z,6,GR86-035-11,7.7,0.082,0.258,99.99,5.0,6732.0,0.0,0.0,
2025-08-14T22:52:19.306Z,6,GR86-035-11,7.7,0.065,0.259,99.99,5.0,,0.0,0.0,197.29
2025-08-14T22:52:19.349Z,6,GR86-035-11,7.7,0.075,0.252,99.97,5.0,,0.0,0.0,
2025-08-14T22:52:19.392Z,6,GR86-035-11,7.7,0.073,0.249,99.98,5.0,,0.0,0.0,
2025-08-14T22:52:19.435Z,6,GR86-035-11,7.0,0.087,0.226,99.96,5.0,,0.0,0.0,
2025-08-14T22:52:19.521Z,6,GR86-035-11,7.0,0.075,0.213,99.99,5.0,6762.0,0.0,0.0,197.84
2025-08-14T22:52:19.564Z,6,GR86-035-11,7.0,0.076,0.192,100.0,5.0,,0.0,0.0,
2025-08-14T22:52:19.607Z,6,GR86-035-11,7.2,0.065,0.192,99.97,5.0,,0.0,0.0,
2025-08-14T22:52:19.650Z,6,GR86-035-11,7.6,0.065,0.213,100.0,5.0,,0.0,0.0,
2025-08-14T22:52:19.693Z,6,GR86-035-11,7.6,0.057,0.237,99.99,5.0,6800.0,0.0,0.0,
2025-08-14T22:52:19.736Z,6,GR86-035-11,7.7,0.084,0.239,99.97,5.0,,0.0,0.0,198.2
2025-08-14T22:52:19.780Z,6,GR86-035-11,8.0,0.061,0.244,100.0,5.0,,0.0,0.0,
2025-08-14T22:52:19.823Z,6,GR86-035-11,8.4,0.068,0.241,99.98,5.0,,0.0,0.0,
2025-08-14T22:52:19.867Z,6,GR86-035-11,8.4,0.057,0.249,80.33,5.0,,0.0,0.0,
2025-08-14T22:52:19.912Z,6,GR86-035-11,8.5,0.064,0.269,61.67,5.0,6811.0,0.0,0.0,
2025-08-14T22:52:19.955Z,6,GR86-035-11,9.0,0.087,0.278,41.47,5.0,,0.0,0.0,199.03
2025-08-14T22:52:19.999Z,6,GR86-035-11,9.0,0.048,0.303,22.76,5.0,,0.0,0.0,
2025-08-14T22:52:20.042Z,6,GR86-035-11,9.3,0.019,0.288,4.41,5.0,,0.0,0.0,
2025-08-14T22:52:20.085Z,6,GR86-035-11,9.4,-0.074,0.298,4.24,5.0,,0.0,0.0,
2025-08-14T22:52:20.128Z,6,GR86-035-11,9.3,-0.172,0.32,3.97,5.0,6787.0,0.0,0.0,
2025-08-14T22:52:20.171Z,6,GR86-035-11,8.3,-0.3,0.311,3.5700000000000003,5.0,,0.0,0.0,199.68
2025-08-14T22:52:20.214Z,6,GR86-035-11,7.7,-0.245,0.305,3.12,5.0,,0.0,0.0,
2025-08-14T22:52:20.257Z,6,GR86-035-11,7.5,-0.167,0.319,2.74,5.0,,0.0,0.0,
2025-08-14T22:52:20.300Z,6,GR86-035-11,7.5,-0.197,0.276,2.65,5.0,,0.0,0.0,
2025-08-14T22:52:20.343Z,6,GR86-035-11,7.5,-0.192,0.277,2.59,5.0,6702.0,0.0,0.0,
2025-08-14T22:52:20.386Z,6,GR86-035-11,7.5,-0.188,0.239,2.56,5.0,,7.11,7.295,199.89
2025-08-14T22:52:20.429Z,6,GR86-035-11,7.5,-0.234,0.217,2.52,5.0,,10.68,10.53,
2025-08-14T22:52:20.472Z,6,GR86-035-11,7.5,-0.351,0.219,2.52,5.0,,15.155,15.155,
2025-08-14T22:52:20.515Z,6,GR86-035-11,7.300000000000001,-0.508,0.188,2.5,5.0,,20.48,20.385,
2025-08-14T22:52:20.601Z,6,GR86-035-11,5.9,-0.612,0.209,2.5,5.0,6600.0,25.36,25.3,198.67
2025-08-14T22:52:20.644Z,6,GR86-035-11,4.1000000000000005,-0.672,0.215,2.51,5.0,,27.59,27.5,
2025-08-14T22:52:20.687Z,6,GR86-035-11,3.3000000000000003,-0.679,0.186,2.5,5.0,,29.085,29.055,
2025-08-14T22:52:20.730Z,6,GR86-035-11,3.3000000000000003,-0.7020000000000001,0.176,2.51,5.0,,29.77,29.865,
2025-08-14T22:52:20.773Z,6,GR86-035-11,3.3000000000000003,-0.734,0.161,2.51,5.0,6415.0,30.075,30.015,
2025-08-14T22:52:20.817Z,6,GR86-035-11,3.3000000000000003,-0.6990000000000001,0.132,2.51,5.0,,30.155,30.4,193.61
2025-08-14T22:52:20.860Z,6,GR86-035-11,3.3000000000000003,-0.708,0.115,2.5,5.0,,30.305,30.675,
2025-08-14T22:52:20.903Z,6,GR86-035-11,3.8,-0.721,0.11,2.5,5.0,,30.795,30.995,
2025-08-14T22:52:20.946Z,6,GR86-035-11,5.7,-0.734,0.113,2.5,5.0,,31.175,31.42,
2025-08-14T22:52:20.989Z,6,GR86-035-11,5.800000000000001,-0.742,0.125,2.49,5.0,6227.0,32.38,32.445,
2025-08-14T22:52:21.032Z,6,GR86-035-11,6.1000000000000005,-0.737,0.1,2.5,5.0,,33.62,33.585,188.46
2025-08-14T22:52:21.077Z,6,GR86-035-11,7.5,-0.753,0.113,2.5,5.0,,35.050000000000004,34.93,
2025-08-14T22:52:21.120Z,6,GR86-035-11,7.7,-0.784,0.11,2.5,5.0,,36.425,36.21,
2025-08-14T22:52:21.163Z,6,GR86-035-11,7.5,-0.866,0.103,2.49,5.0,,37.495,37.355,
2025-08-14T22:52:21.206Z,6,GR86-035-11,7.4,-0.866,0.118,2.5,5.0,6093.0,37.89,37.86,
2025-08-14T22:52:21.249Z,6,GR86-035-11,6.9,-0.853,0.098,2.51,5.0,,38.15,38.075,184.03
2025-08-14T22:52:21.292Z,6,GR86-035-11,6.7,-0.838,0.108,2.5,5.0,,38.255,38.47,
2025-08-14T22:52:21.335Z,6,GR86-035-11,6.7,-0.842,0.087,2.5,5.0,,39.065,39.095,
2025-08-14T22:52:21.378Z,6,GR86-035-11,6.7,-0.8320000000000001,0.089,2.5,5.0,,40.12,39.935,
2025-08-14T22:52:21.421Z,6,GR86-035-11,6.6000000000000005,-0.878,0.11,2.49,5.0,5873.0,41.965,41.675,
2025-08-14T22:52:21.464Z,6,GR86-035-11,6.6000000000000005,-0.907,0.115,2.49,5.0,,43.355,43.05,177.98
2025-08-14T22:52:21.507Z,6,GR86-035-11,6.5,-0.914,0.129,2.5,5.0,,44.47,44.055,
2025-08-14T22:52:21.550Z,6,GR86-035-11,6.1000000000000005,-0.932,0.14,2.5,5.0,,45.84,45.46,
2025-08-14T22:52:21.594Z,6,GR86-035-11,5.9,-0.966,0.117,2.49,5.0,,46.895,46.74,
2025-08-14T22:52:21.637Z,6,GR86-035-11,5.800000000000001,-0.942,0.094,2.5,5.0,5682.0,46.175,46.435,
2025-08-14T22:52:21.680Z,6,GR86-035-11,5.2,-0.894,0.113,2.49,5.0,,40.18,41.52,166.15
2025-08-14T22:52:21.723Z,6,GR86-035-11,3.9,-0.776,0.108,2.5,5.0,,30.58,32.045,
2025-08-14T22:52:21.766Z,6,GR86-035-11,2.4000000000000004,-0.678,0.079,2.49,5.0,,22.705,23.96,
2025-08-14T22:52:21.809Z,6,GR86-035-11,1.9,-0.5740000000000001,0.062,2.49,5.0,,18.86,20.02,
2025-08-14T22:52:21.852Z,6,GR86-035-11,1.9,-0.488,0.022,2.5,5.0,5465.0,16.115000000000002,17.09,
2025-08-14T22:52:21.895Z,6,GR86-035-11,1.9,-0.388,0.05,2.5,5.0,,12.39,13.2,162.24
2025-08-14T22:52:21.938Z,6,GR86-035-11,2.2,-0.419,0.013,2.49,5.0,,13.705,13.995,
2025-08-14T22:52:21.981Z,6,GR86-035-11,4.3,-0.423,0.01,2.5,5.0,,14.51,14.815,
2025-08-14T22:52:22.024Z,6,GR86-035-11,5.1000000000000005,-0.413,0.022,16.0,5.0,,14.055,14.635,
2025-08-14T22:52:22.067Z,6,GR86-035-11,4.800000000000001,-0.389,0.023,60.55,5.0,5479.0,12.835,13.55,
2025-08-14T22:52:22.110Z,6,GR86-035-11,4.800000000000001,-0.388,0.032,98.89,5.0,,13.015,13.305,160.94
2025-08-14T22:52:22.153Z,6,GR86-035-11,4.800000000000001,-0.403,0.051,84.24,4.0,,13.015,13.49,
2025-08-14T22:52:22.196Z,6,GR86-035-11,4.800000000000001,-0.526,-0.023,5.46,4.0,,13.705,13.995,
2025-08-14T22:52:22.241Z,6,GR86-035-11,4.800000000000001,-0.56,0.06,3.98,4.0,,14.36,14.575,
2025-08-14T22:52:22.284Z,6,GR86-035-11,4.800000000000001,-0.433,0.041,3.56,4.0,6098.0,14.42,14.68,
2025-08-14T22:52:22.327Z,6,GR86-035-11,4.800000000000001,-0.48,0.016,3.11,4.0,,16.375,16.435,158.69
2025-08-14T22:52:22.370Z,6,GR86-035-11,4.800000000000001,-0.541,0.123,2.83,4.0,,20.875,20.845,
2025-08-14T22:52:22.413Z,6,GR86-035-11,4.800000000000001,-0.591,0.041,2.7,4.0,,25.15,25.18,
2025-08-14T22:52:22.456Z,6,GR86-035-11,4.800000000000001,-0.6990000000000001,0.088,2.59,4.0,,32.17,31.83,
2025-08-14T22:52:22.500Z,6,GR86-035-11,4.800000000000001,-0.785,0.072,2.57,4.0,5942.0,36.99,36.73,
2025-08-14T22:52:22.543Z,6,GR86-035-11,4.800000000000001,-0.8160000000000001,0.042,2.5500000000000003,4.0,,39.965,39.645,155.63
2025-08-14T22:52:22.586Z,6,GR86-035-11,4.800000000000001,-0.884,0.034,2.5500000000000003,4.0,,40.865,40.655,
2025-08-14T22:52:22.629Z,6,GR86-035-11,5.0,-0.863,0.037,2.54,4.0,,40.15,40.425,
2025-08-14T22:52:22.672Z,6,GR86-035-11,6.1000000000000005,-0.865,0.033,2.52,4.0,,37.11,38.255,
2025-08-14T22:52:22.715Z,6,GR86-035-11,6.6000000000000005,-0.731,0.028,2.52,4.0,5659.0,29.895,31.235,
2025-08-14T22:52:22.761Z,6,GR86-035-11,6.6000000000000005,-0.7010000000000001,0.029,2.53,4.0,,27.225,28.49,149.67000000000002
2025-08-14T22:52:22.804Z,6,GR86-035-11,6.6000000000000005,-0.6940000000000001,0.051,2.53,4.0,,26.295,27.345,
2025-08-14T22:52:22.847Z,6,GR86-035-11,6.6000000000000005,-0.662,0.031,24.93,4.0,,26.295,27.025,
2025-08-14T22:52:22.890Z,6,GR86-035-11,6.6000000000000005,-0.625,0.021,69.96000000000001,4.0,,26.325,26.965,
2025-08-14T22:52:22.934Z,6,GR86-035-11,6.5,-0.647,0.026,86.54,3.0,5582.0,26.295,26.905,
2025-08-14T22:52:22.977Z,6,GR86-035-11,4.2,-0.799,0.009,4.8100000000000005,3.0,,26.75,27.5,145.18
2025-08-14T22:52:23.020Z,6,GR86-035-11,3.8,-0.739,0.056,2.93,3.0,,26.43,27.47,
2025-08-14T22:52:23.063Z,6,GR86-035-11,3.8,-0.597,0.019,2.59,3.0,,23.3,23.745,
2025-08-14T22:52:23.106Z,6,GR86-035-11,3.8,-0.768,0.027,2.51,3.0,,21.15,21.47,
2025-08-14T22:52:23.149Z,6,GR86-035-11,4.1000000000000005,-0.556,0.042,2.49,3.0,6062.0,20.815,20.935,
2025-08-14T22:52:23.192Z,6,GR86-035-11,5.1000000000000005,-0.5650000000000001,-0.048,2.49,3.0,,20.66,21.06,141.02
2025-08-14T22:52:23.235Z,6,GR86-035-11,5.800000000000001,-0.5720000000000001,0.049,2.46,3.0,,21.56,21.715,
2025-08-14T22:52:23.279Z,6,GR86-035-11,6.5,-0.642,0.002,2.47,3.0,,24.235,24.14,
2025-08-14T22:52:23.322Z,6,GR86-035-11,8.3,-0.654,0.033,2.47,3.0,,27.315,27.285,
2025-08-14T22:52:23.365Z,6,GR86-035-11,8.8,-0.678,0.061,2.47,3.0,6238.0,30.365,30.185,
2025-08-14T22:52:23.452Z,6,GR86-035-11,8.9,-0.8190000000000001,0.092,2.47,3.0,,36.87,36.64,137.45000000000002
2025-08-14T22:52:23.538Z,6,GR86-035-11,8.9,-0.846,0.076,2.47,3.0,,39.065,39.035,
2025-08-14T22:52:23.581Z,6,GR86-035-11,8.9,-0.881,0.08,2.47,3.0,6015.0,41.43,41.215,
2025-08-14T22:52:23.624Z,6,GR86-035-11,8.9,-0.903,0.102,2.46,3.0,,42.33,42.27,133.81
2025-08-14T22:52:23.667Z,6,GR86-035-11,9.0,-0.877,0.108,5.57,3.0,,42.715,42.575,
2025-08-14T22:52:23.710Z,6,GR86-035-11,9.1,-0.876,0.109,47.45,3.0,,42.36,42.605,
2025-08-14T22:52:23.753Z,6,GR86-035-11,9.1,-0.891,0.087,75.65,2.0,,42.65,42.955,
2025-08-14T22:52:23.840Z,6,GR86-035-11,9.0,-0.853,0.148,4.11,2.0,5744.0,42.65,43.675,128.0
2025-08-14T22:52:23.883Z,6,GR86-035-11,8.8,-1.053,0.117,3.72,2.0,,40.96,42.27,
2025-08-14T22:52:23.926Z,6,GR86-035-11,8.4,-1.029,0.132,3.25,2.0,,36.64,37.205,
2025-08-14T22:52:23.969Z,6,GR86-035-11,8.3,-0.812,0.212,2.87,2.0,,33.71,34.78,
2025-08-14T22:52:24.012Z,6,GR86-035-11,8.3,-0.798,0.122,2.72,2.0,5890.0,30.045,30.61,
2025-08-14T22:52:24.055Z,6,GR86-035-11,7.300000000000001,-0.903,0.206,2.59,2.0,,25.545,26.23,121.43
2025-08-14T22:52:24.099Z,6,GR86-035-11,7.0,-0.641,0.263,2.56,2.0,,23.24,23.685,
2025-08-14T22:52:24.142Z,6,GR86-035-11,7.0,-0.661,0.106,2.5500000000000003,2.0,,19.58,20.02,
2025-08-14T22:52:24.185Z,6,GR86-035-11,7.0,-0.597,0.262,2.52,2.0,,20.205,20.385,
2025-08-14T22:52:24.271Z,6,GR86-035-11,7.300000000000001,-0.594,0.223,2.5,2.0,6144.0,23.21,23.15,115.93
2025-08-14T22:52:24.314Z,6,GR86-035-11,12.4,-0.679,0.265,2.5,2.0,,29.21,29.145,
2025-08-14T22:52:24.357Z,6,GR86-035-11,14.0,-0.73,0.182,2.5,2.0,,31.865,31.8,
2025-08-14T22:52:24.400Z,6,GR86-035-11,14.0,-0.766,0.209,2.5,2.0,,31.925,32.275,
2025-08-14T22:52:24.443Z,6,GR86-035-11,14.3,-0.761,0.216,2.5,2.0,6319.0,32.335,32.475,
2025-08-14T22:52:24.486Z,6,GR86-035-11,14.3,-0.809,0.18,2.49,2.0,,32.655,32.87,108.88
2025-08-14T22:52:24.529Z,6,GR86-035-11,14.3,-0.786,0.214,2.5,2.0,,33.315,33.405,
2025-08-14T22:52:24.572Z,6,GR86-035-11,14.8,-0.798,0.215,2.49,2.0,,35.265,35.050000000000004,
2025-08-14T22:52:24.615Z,6,GR86-035-11,16.6,-0.896,0.215,2.5,2.0,,39.905,39.555,
2025-08-14T22:52:24.658Z,6,GR86-035-11,16.6,-0.933,0.248,18.16,2.0,5998.0,41.11,41.215,
2025-08-14T22:52:24.701Z,6,GR86-035-11,16.1,-0.902,0.264,62.9,2.0,,40.805,41.25,103.71
2025-08-14T22:52:24.744Z,6,GR86-035-11,14.6,-0.891,0.252,99.12,1.0,,38.595,39.46,
2025-08-14T22:52:24.787Z,6,GR86-035-11,14.6,-0.791,0.281,61.05,1.0,,32.655,33.97,
2025-08-14T22:52:24.830Z,6,GR86-035-11,13.6,-0.98,0.17,4.82,1.0,,27.68,28.55,
2025-08-14T22:52:24.873Z,6,GR86-035-11,10.8,-0.6920000000000001,0.322,3.09,1.0,5715.0,25.895,26.81,
2025-08-14T22:52:24.916Z,6,GR86-035-11,9.8,-0.51,0.183,2.62,1.0,,20.815,21.38,97.66
2025-08-14T22:52:24.960Z,6,GR86-035-11,9.8,-0.855,0.38,2.56,1.0,,19.64,19.99,
2025-08-14T22:52:25.003Z,6,GR86-035-11,9.8,-0.6980000000000001,0.34,2.49,1.0,,19.61,20.265,
2025-08-14T22:52:25.046Z,6,GR86-035-11,9.8,-0.626,0.192,2.46,1.0,,18.465,18.8,
2025-08-14T22:52:25.089Z,6,GR86-035-11,9.8,-0.5710000000000001,0.395,2.44,1.0,6607.0,17.580000000000002,17.81,
2025-08-14T22:52:25.132Z,6,GR86-035-11,11.1,-0.585,0.294,2.45,1.0,,18.615,18.77,93.25
2025-08-14T22:52:25.176Z,6,GR86-035-11,17.1,-0.532,0.316,2.43,1.0,,16.895,17.52,
2025-08-14T22:52:25.220Z,6,GR86-035-11,20.4,-0.518,0.325,2.46,1.0,,15.305,15.99,
2025-08-14T22:52:25.263Z,6,GR86-035-11,22.9,-0.46,0.303,2.44,1.0,,14.815,15.365,
2025-08-14T22:52:25.306Z,6,GR86-035-11,27.200000000000003,-0.53,0.309,2.45,1.0,6454.0,14.88,15.535,
2025-08-14T22:52:25.349Z,6,GR86-035-11,31.700000000000003,-0.475,0.369,2.44,1.0,,15.0,15.475,89.52
2025-08-14T22:52:25.392Z,6,GR86-035-11,33.9,-0.535,0.377,2.46,1.0,,15.81,16.405,
2025-08-14T22:52:25.435Z,6,GR86-035-11,34.0,-0.48,0.445,2.46,1.0,,14.815,15.475,
2025-08-14T22:52:25.478Z,6,GR86-035-11,34.1,-0.455,0.441,2.45,1.0,,12.895,13.735,
2025-08-14T22:52:25.521Z,6,GR86-035-11,35.1,-0.408,0.46,2.46,1.0,6243.0,12.65,12.985,
2025-08-14T22:52:25.564Z,6,GR86-035-11,37.0,-0.482,0.477,2.46,1.0,,12.65,13.245,86.67
2025-08-14T22:52:25.607Z,6,GR86-035-11,39.6,-0.413,0.545,2.47,1.0,,12.65,13.14,
2025-08-14T22:52:25.650Z,6,GR86-035-11,42.7,-0.479,0.534,2.47,1.0,,13.64,13.95,
2025-08-14T22:52:25.693Z,6,GR86-035-11,45.1,-0.445,0.641,2.47,1.0,,13.705,13.95,
2025-08-14T22:52:25.736Z,6,GR86-035-11,46.0,-0.478,0.601,2.46,1.0,6018.0,14.085,14.635,
2025-08-14T22:52:25.780Z,6,GR86-035-11,46.400000000000006,-0.428,0.6980000000000001,2.48,1.0,,14.055,14.33,84.64
2025-08-14T22:52:25.823Z,6,GR86-035-11,47.5,-0.475,0.646,2.46,1.0,,13.915,14.24,
2025-08-14T22:52:25.867Z,6,GR86-035-11,48.8,-0.421,0.705,2.47,1.0,,10.375,11.095,
2025-08-14T22:52:25.912Z,6,GR86-035-11,50.6,-0.342,0.744,2.47,1.0,,8.395,9.065,
2025-08-14T22:52:25.955Z,6,GR86-035-11,55.0,-0.355,0.784,2.47,1.0,5793.0,8.120000000000001,8.545,
2025-08-14T22:52:25.999Z,6,GR86-035-11,57.8,-0.382,0.77,2.46,1.0,,8.485,8.700000000000001,82.09
2025-08-14T22:52:26.042Z,6,GR86-035-11,58.5,-0.356,0.804,2.46,1.0,,8.455,8.85,
2025-08-14T22:52:26.085Z,6,GR86-035-11,58.5,-0.339,0.836,2.47,1.0,,9.065,9.31,
2025-08-14T22:52:26.128Z,6,GR86-035-11,58.5,-0.331,0.808,2.47,1.0,,7.235,7.735,
2025-08-14T22:52:26.171Z,6,GR86-035-11,58.8,-0.236,0.86,2.47,1.0,5630.0,2.915,3.465,
2025-08-14T22:52:26.214Z,6,GR86-035-11,58.900000000000006,-0.21,0.793,2.48,1.0,,1.83,2.215,79.54
2025-08-14T22:52:26.257Z,6,GR86-035-11,59.8,-0.211,0.892,2.48,1.0,,0.0,0.0,
2025-08-14T22:52:26.300Z,6,GR86-035-11,64.3,-0.171,0.845,2.48,1.0,,0.0,0.0,
2025-08-14T22:52:26.343Z,6,GR86-035-11,71.0,-0.149,0.897,2.47,1.0,,0.0,0.0,
2025-08-14T22:52:26.386Z,6,GR86-035-11,76.7,-0.174,0.914,2.47,1.0,5454.0,0.0,0.0,
2025-08-14T22:52:26.429Z,6,GR86-035-11,78.2,-0.19,0.923,2.46,1.0,,0.0,0.0,77.56
2025-08-14T22:52:26.472Z,6,GR86-035-11,78.0,-0.189,0.946,2.47,1.0,,0.0,0.0,
2025-08-14T22:52:26.515Z,6,GR86-035-11,73.4,-0.165,0.979,2.48,1.0,,0.0,0.0,
2025-08-14T22:52:26.558Z,6,GR86-035-11,70.5,-0.16,0.95,2.49,1.0,,0.0,0.0,
2025-08-14T22:52:26.601Z,6,GR86-035-11,68.8,-0.172,0.888,2.47,1.0,5365.0,0.0,0.0,
2025-08-14T22:52:26.644Z,6,GR86-035-11,68.60000000000001,-0.173,0.85,2.49,1.0,,0.0,0.0,76.41
2025-08-14T22:52:26.687Z,6,GR86-035-11,69.9,-0.165,0.861,2.49,1.0,,0.0,0.0,
2025-08-14T22:52:26.730Z,6,GR86-035-11,74.8,-0.164,0.911,2.49,1.0,,0.0,0.0,
2025-08-14T22:52:26.773Z,6,GR86-035-11,79.60000000000001,-0.162,0.959,2.49,1.0,,0.0,0.0,
2025-08-14T22:52:26.817Z,6,GR86-035-11,81.10000000000001,-0.165,0.978,2.49,1.0,5259.0,0.0,0.0,
2025-08-14T22:52:26.860Z,6,GR86-035-11,79.60000000000001,-0.177,0.936,2.51,1.0,,0.0,0.0,75.18
2025-08-14T22:52:26.903Z,6,GR86-035-11,76.4,-0.196,1.051,2.51,1.0,,0.0,0.0,
2025-08-14T22:52:26.946Z,6,GR86-035-11,72.2,-0.192,0.988,2.5,1.0,,0.0,0.0,
2025-08-14T22:52:26.989Z,6,GR86-035-11,68.2,-0.158,1.006,2.5,1.0,,0.0,0.0,
2025-08-14T22:52:27.032Z,6,GR86-035-11,66.5,-0.147,1.008,2.51,1.0,5122.0,0.0,0.0,
2025-08-14T22:52:27.077Z,6,GR86-035-11,64.4,-0.146,0.903,2.5,1.0,,0.0,0.0,72.41
2025-08-14T22:52:27.120Z,6,GR86-035-11,58.8,-0.145,0.904,2.5,1.0,,0.0,0.0,
2025-08-14T22:52:27.163Z,6,GR86-035-11,50.2,-0.16,0.893,2.49,1.0,,0.0,0.0,
2025-08-14T22:52:27.206Z,6,GR86-035-11,38.1,-0.111,0.875,2.5,1.0,,0.0,0.0,
2025-08-14T22:52:27.249Z,6,GR86-035-11,24.4,-0.134,1.0,2.5,1.0,5001.0,0.0,0.0,
2025-08-14T22:52:27.292Z,6,GR86-035-11,9.0,-0.125,0.935,2.52,1.0,,0.0,0.0,70.76
2025-08-14T22:52:27.335Z,6,GR86-035-11,-18.3,-0.081,0.895,2.51,1.0,,0.0,0.0,
2025-08-14T22:52:27.378Z,6,GR86-035-11,-37.2,-0.095,0.758,2.51,1.0,,0.0,0.0,
2025-08-14T22:52:27.421Z,6,GR86-035-11,-57.0,-0.098,0.888,2.49,1.0,,0.0,0.0,
2025-08-14T22:52:27.464Z,6,GR86-035-11,-74.7,-0.05,0.7000000000000001,2.51,1.0,4844.0,0.0,0.0,
2025-08-14T22:52:27.507Z,6,GR86-035-11,-89.5,-0.11,0.843,2.51,1.0,,0.0,0.0,69.60000000000001
2025-08-14T22:52:27.550Z,6,GR86-035-11,-97.2,-0.031,0.745,2.51,1.0,,0.0,0.0,
2025-08-14T22:52:27.593Z,6,GR86-035-11,-99.6,-0.087,0.799,2.5,1.0,,0.0,0.0,
2025-08-14T22:52:27.680Z,6,GR86-035-11,-121.8,-0.056,0.8310000000000001,2.52,1.0,4507.0,0.0,0.0,
2025-08-14T22:52:27.723Z,6,GR86-035-11,-154.20000000000002,-0.067,0.773,2.51,1.0,,0.0,0.0,68.22
2025-08-14T22:52:27.766Z,6,GR86-035-11,-168.8,-0.039,0.683,2.51,1.0,,0.0,0.0,
2025-08-14T22:52:27.809Z,6,GR86-035-11,-174.3,-0.06,0.645,2.51,1.0,,0.0,0.0,
2025-08-14T22:52:27.852Z,6,GR86-035-11,-156.0,-0.062,0.631,2.51,1.0,,0.0,0.0,
2025-08-14T22:52:27.895Z,6,GR86-035-11,-119.8,-0.021,0.8150000000000001,2.5,1.0,4353.0,0.0,0.0,
2025-08-14T22:52:27.938Z,6,GR86-035-11,-91.2,-0.046,0.931,2.52,1.0,,0.0,0.0,66.33
2025-08-14T22:52:27.981Z,6,GR86-035-11,-73.4,-0.047,0.989,2.52,1.0,,0.0,0.0,
2025-08-14T22:52:28.024Z,6,GR86-035-11,-61.6,-0.049,1.016,2.51,1.0,,0.0,0.0,
2025-08-14T22:52:28.067Z,6,GR86-035-11,-46.5,-0.071,1.01,19.58,1.0,,0.0,0.0,
2025-08-14T22:52:28.110Z,6,GR86-035-11,-33.1,-0.088,1.101,32.8,1.0,4237.0,0.0,0.0,
2025-08-14T22:52:28.153Z,6,GR86-035-11,-29.9,-0.096,1.066,32.59,1.0,,0.0,0.0,63.56
2025-08-14T22:52:28.196Z,6,GR86-035-11,-27.200000000000003,-0.066,1.082,31.14,1.0,,0.0,0.0,
2025-08-14T22:52:28.241Z,6,GR86-035-11,-26.0,-0.001,1.004,33.65,1.0,,0.0,0.0,
2025-08-14T22:52:28.284Z,6,GR86-035-11,-28.0,-0.038,0.933,34.5,1.0,,0.0,0.0,
2025-08-14T22:52:28.327Z,6,GR86-035-11,-26.9,0.261,0.906,34.64,1.0,4569.0,0.0,0.0,
2025-08-14T22:52:28.370Z,6,GR86-035-11,-15.4,0.331,0.797,36.65,1.0,,0.0,0.0,62.04
2025-08-14T22:52:28.413Z,6,GR86-035-11,2.4000000000000004,0.357,0.752,39.26,1.0,,0.0,0.0,
2025-08-14T22:52:28.456Z,6,GR86-035-11,29.9,0.424,0.8130000000000001,84.75,1.0,,0.0,0.0,
2025-08-14T22:52:28.500Z,6,GR86-035-11,44.1,0.39,0.8180000000000001,99.89,1.0,,0.0,0.0,
2025-08-14T22:52:28.543Z,6,GR86-035-11,49.400000000000006,0.384,0.8170000000000001,99.99,1.0,4970.0,0.0,0.0,
2025-08-14T22:52:28.586Z,6,GR86-035-11,49.400000000000006,0.365,0.774,99.98,1.0,,0.0,0.0,60.88
2025-08-14T22:52:28.629Z,6,GR86-035-11,49.400000000000006,0.335,0.714,100.0,1.0,,0.0,0.0,
2025-08-14T22:52:28.672Z,6,GR86-035-11,49.400000000000006,0.358,0.7000000000000001,99.98,1.0,,0.0,0.0,
2025-08-14T22:52:28.717Z,6,GR86-035-11,43.0,0.341,0.595,99.99,1.0,,0.0,0.0,
2025-08-14T22:52:28.761Z,6,GR86-035-11,43.0,0.363,0.519,100.0,1.0,4936.0,0.0,0.0,
2025-08-14T22:52:28.803Z,6,GR86-035-11,43.0,0.372,0.557,99.99,1.0,,0.0,0.0,62.07
2025-08-14T22:52:28.847Z,6,GR86-035-11,42.7,0.346,0.522,99.98,1.0,,0.0,0.0,
2025-08-14T22:52:28.890Z,6,GR86-035-11,42.7,0.33,0.544,100.0,1.0,,0.0,0.0,
2025-08-14T22:52:28.934Z,6,GR86-035-11,42.7,0.343,0.536,100.0,1.0,,0.0,0.0,
2025-08-14T22:52:28.977Z,6,GR86-035-11,42.7,0.344,0.51,99.99,1.0,5086.0,0.0,0.0,
2025-08-14T22:52:29.020Z,6,GR86-035-11,42.7,0.372,0.526,100.0,1.0,,0.0,0.0,65.32000000000001
2025-08-14T22:52:29.063Z,6,GR86-035-11,42.7,0.364,0.5,100.0,1.0,,0.0,0.0,
2025-08-14T22:52:29.106Z,6,GR86-035-11,42.6,0.335,0.512,99.99,1.0,,0.0,0.0,
2025-08-14T22:52:29.149Z,6,GR86-035-11,42.6,0.331,0.52,99.99,1.0,,0.0,0.0,
2025-08-14T22:52:29.192Z,6,GR86-035-11,42.6,0.329,0.492,100.0,1.0,5261.0,0.0,0.0,
2025-08-14T22:52:29.279Z,6,GR86-035-11,42.6,0.334,0.538,99.99,1.0,,0.0,0.0,67.82000000000001
2025-08-14T22:52:29.322Z,6,GR86-035-11,41.400000000000006,0.34,0.52,100.0,1.0,,0.0,0.0,
2025-08-14T22:52:29.365Z,6,GR86-035-11,39.1,0.362,0.527,100.0,1.0,,0.0,0.0,
2025-08-14T22:52:29.408Z,6,GR86-035-11,37.3,0.358,0.496,99.99,1.0,5449.0,0.0,0.0,
2025-08-14T22:52:29.451Z,6,GR86-035-11,35.0,0.345,0.522,99.99,1.0,,0.0,0.0,70.23
2025-08-14T22:52:29.494Z,6,GR86-035-11,33.5,0.333,0.495,99.99,1.0,,0.0,0.0,
2025-08-14T22:52:29.537Z,6,GR86-035-11,31.6,0.34,0.526,100.0,1.0,,0.0,0.0,
2025-08-14T22:52:29.580Z,6,GR86-035-11,30.6,0.357,0.465,100.0,1.0,,0.0,0.0,
2025-08-14T22:52:29.623Z,6,GR86-035-11,29.200000000000003,0.34,0.49,99.99,1.0,5637.0,0.0,0.0,
2025-08-14T22:52:29.666Z,6,GR86-035-11,28.4,0.329,0.478,99.99,1.0,,0.0,0.0,72.59
2025-08-14T22:52:29.709Z,6,GR86-035-11,27.9,0.366,0.356,100.0,1.0,,0.0,0.0,
2025-08-14T22:52:29.752Z,6,GR86-035-11,27.1,0.36,0.446,99.99,1.0,,0.0,0.0,
2025-08-14T22:52:29.795Z,6,GR86-035-11,26.0,0.288,0.377,100.01,1.0,,0.0,0.0,
2025-08-14T22:52:29.838Z,6,GR86-035-11,24.4,0.306,0.372,100.0,1.0,5829.0,0.0,0.0,
2025-08-14T22:52:29.881Z,6,GR86-035-11,23.5,0.405,0.333,99.99,1.0,,0.0,0.0,76.66
2025-08-14T22:52:29.924Z,6,GR86-035-11,22.1,0.395,0.346,100.0,1.0,,0.0,0.0,
2025-08-14T22:52:29.967Z,6,GR86-035-11,21.200000000000003,0.333,0.348,99.99,1.0,,0.0,0.0,
2025-08-14T22:52:30.010Z,6,GR86-035-11,19.8,0.378,0.3,100.0,1.0,,0.0,0.0,
2025-08-14T22:52:30.053Z,6,GR86-035-11,16.2,0.351,0.29,100.0,1.0,6056.0,0.0,0.0,
2025-08-14T22:52:30.096Z,6,GR86-035-11,11.1,0.384,0.312,99.99,1.0,,0.0,0.0,79.05
2025-08-14T22:52:30.140Z,6,GR86-035-11,7.1000000000000005,0.35,0.272,100.02,1.0,,0.0,0.0,
2025-08-14T22:52:30.183Z,6,GR86-035-11,5.2,0.369,0.251,100.0,1.0,,0.0,0.0,
2025-08-14T22:52:30.226Z,6,GR86-035-11,3.4000000000000004,0.36,0.2,100.01,1.0,,0.0,0.0,
2025-08-14T22:52:30.269Z,6,GR86-035-11,3.4000000000000004,0.439,0.179,100.0,1.0,6181.0,0.0,0.0,
2025-08-14T22:52:30.312Z,6,GR86-035-11,3.4000000000000004,0.293,0.178,100.03,1.0,,0.0,0.0,81.53
2025-08-14T22:52:30.355Z,6,GR86-035-11,3.4000000000000004,0.297,0.085,100.03,1.0,,0.0,0.0,
2025-08-14T22:52:30.398Z,6,GR86-035-11,3.4000000000000004,0.295,0.06,99.99,1.0,,0.0,0.0,
2025-08-14T22:52:30.441Z,6,GR86-035-11,3.4000000000000004,0.317,0.046,100.02,1.0,,0.0,0.0,
2025-08-14T22:52:30.484Z,6,GR86-035-11,3.4000000000000004,0.377,0.005,99.99,1.0,6526.0,0.0,0.0,
2025-08-14T22:52:30.527Z,6,GR86-035-11,3.4000000000000004,0.307,-0.037,100.02,1.0,,0.0,0.0,83.86
2025-08-14T22:52:30.570Z,6,GR86-035-11,3.4000000000000004,0.374,-0.014,100.02,1.0,,0.0,0.0,
2025-08-14T22:52:30.614Z,6,GR86-035-11,3.4000000000000004,0.365,0.011,100.02,1.0,,0.0,0.0,
2025-08-14T22:52:30.657Z,6,GR86-035-11,3.4000000000000004,0.306,-0.002,99.99,1.0,,0.0,0.0,
2025-08-14T22:52:30.700Z,6,GR86-035-11,3.4000000000000004,0.333,0.008,100.0,1.0,6670.0,0.0,0.0,
2025-08-14T22:52:30.743Z,6,GR86-035-11,3.4000000000000004,0.321,-0.02,100.02,1.0,,0.0,0.0,86.14
2025-08-14T22:52:30.786Z,6,GR86-035-11,3.3000000000000003,0.347,-0.002,100.02,1.0,,0.0,0.0,
2025-08-14T22:52:30.829Z,6,GR86-035-11,3.3000000000000003,0.303,-0.012,100.01,1.0,,0.0,0.0,
2025-08-14T22:52:30.872Z,6,GR86-035-11,3.3000000000000003,0.246,0.004,100.03,1.0,,0.0,0.0,
2025-08-14T22:52:30.915Z,6,GR86-035-11,3.3000000000000003,0.389,0.012,100.05,1.0,6900.0,0.0,0.0,
2025-08-14T22:52:30.958Z,6,GR86-035-11,3.3000000000000003,0.317,-0.005,100.05,1.0,,0.0,0.0,88.58
2025-08-14T22:52:31.001Z,6,GR86-035-11,3.5,0.166,-0.02,100.01,1.0,,0.0,0.0,
2025-08-14T22:52:31.044Z,6,GR86-035-11,3.7,-0.062,-0.011,100.04,2.0,,0.0,0.0,
2025-08-14T22:52:31.087Z,6,GR86-035-11,3.8,0.295,-0.026,100.03,2.0,,0.0,0.0,
2025-08-14T22:52:31.130Z,6,GR86-035-11,4.2,0.446,-0.066,100.03,2.0,6433.0,0.0,0.0,
2025-08-14T22:52:31.173Z,6,GR86-035-11,4.3,0.401,-0.09,100.03,2.0,,0.0,0.0,90.88
2025-08-14T22:52:31.217Z,6,GR86-035-11,4.3,0.509,-0.011,100.02,2.0,,0.0,0.0,
2025-08-14T22:52:31.260Z,6,GR86-035-11,5.0,0.386,-0.068,100.02,2.0,,0.0,0.0,
2025-08-14T22:52:31.303Z,6,GR86-035-11,5.4,0.265,0.008,100.04,2.0,,0.0,0.0,
2025-08-14T22:52:31.346Z,6,GR86-035-11,5.4,0.182,0.013,100.03,2.0,5637.0,0.0,0.0,
2025-08-14T22:52:31.389Z,6,GR86-035-11,5.5,0.197,0.028,100.03,2.0,,0.0,0.0,92.61
2025-08-14T22:52:31.432Z,6,GR86-035-11,5.5,0.24,0.071,100.04,2.0,,0.0,0.0,
2025-08-14T22:52:31.477Z,6,GR86-035-11,5.5,0.251,0.026,100.02,2.0,,0.0,0.0,
2025-08-14T22:52:31.520Z,6,GR86-035-11,5.4,0.239,0.052,100.03,2.0,,0.0,0.0,
2025-08-14T22:52:31.563Z,6,GR86-035-11,5.4,0.266,0.041,100.03,2.0,5615.0,0.0,0.0,
2025-08-14T22:52:31.606Z,6,GR86-035-11,5.5,0.281,0.056,100.03,2.0,,0.0,0.0,95.01
2025-08-14T22:52:31.649Z,6,GR86-035-11,5.5,0.297,0.044,100.03,2.0,,0.0,0.0,
2025-08-14T22:52:31.692Z,6,GR86-035-11,5.2,0.277,0.06,100.03,2.0,,0.0,0.0,
2025-08-14T22:52:31.735Z,6,GR86-035-11,4.6000000000000005,0.249,0.049,100.03,2.0,,0.0,0.0,
2025-08-14T22:52:31.778Z,6,GR86-035-11,4.5,0.257,0.037,100.03,2.0,5693.0,0.0,0.0,
2025-08-14T22:52:31.821Z,6,GR86-035-11,4.5,0.262,0.034,100.03,2.0,,0.0,0.0,96.79
2025-08-14T22:52:31.864Z,6,GR86-035-11,4.5,0.304,0.042,100.03,2.0,,0.0,0.0,
2025-08-14T22:52:31.907Z,6,GR86-035-11,4.4,0.258,-0.024,100.03,2.0,,0.0,0.0,
2025-08-14T22:52:31.950Z,6,GR86-035-11,3.4000000000000004,0.268,0.011,100.03,2.0,,0.0,0.0,
2025-08-14T22:52:31.993Z,6,GR86-035-11,2.3000000000000003,0.264,-0.022,100.03,2.0,5825.0,0.0,0.0,
2025-08-14T22:52:32.037Z,6,GR86-035-11,1.8,0.256,-0.028,100.02,2.0,,0.0,0.0,98.71
2025-08-14T22:52:32.080Z,6,GR86-035-11,1.8,0.281,-0.026,100.03,2.0,,0.0,0.0,
2025-08-14T22:52:32.123Z,6,GR86-035-11,1.8,0.26,-0.057,100.03,2.0,,0.0,0.0,
2025-08-14T22:52:32.167Z,6,GR86-035-11,1.8,0.269,-0.041,100.02,2.0,,0.0,0.0,
2025-08-14T22:52:32.212Z,6,GR86-035-11,1.8,0.262,-0.064,100.03,2.0,5936.0,0.0,0.0,
2025-08-14T22:52:32.255Z,6,GR86-035-11,1.8,0.272,-0.073,100.03,2.0,,0.0,0.0,100.28
2025-08-14T22:52:32.299Z,6,GR86-035-11,1.8,0.295,-0.094,100.03,2.0,,0.0,0.0,
2025-08-14T22:52:32.342Z,6,GR86-035-11,1.8,0.281,-0.108,100.03,2.0,,0.0,0.0,
2025-08-14T22:52:32.385Z,6,GR86-035-11,1.8,0.254,-0.104,100.03,2.0,,0.0,0.0,
2025-08-14T22:52:32.428Z,6,GR86-035-11,2.1,0.268,-0.1,100.03,2.0,6028.0,0.0,0.0,
2025-08-14T22:52:32.471Z,6,GR86-035-11,2.5,0.256,-0.092,100.01,2.0,,0.0,0.0,101.8
2025-08-14T22:52:32.514Z,6,GR86-035-11,3.6,0.281,-0.075,100.03,2.0,,0.0,0.0,
2025-08-14T22:52:32.557Z,6,GR86-035-11,4.800000000000001,0.315,-0.046,100.03,2.0,,0.0,0.0,
2025-08-14T22:52:32.600Z,6,GR86-035-11,5.1000000000000005,0.272,-0.033,100.03,2.0,,0.0,0.0,
2025-08-14T22:52:32.643Z,6,GR86-035-11,5.5,0.26,-0.002,100.03,2.0,6085.0,0.0,0.0,
2025-08-14T22:52:32.686Z,6,GR86-035-11,5.5,0.236,0.011,100.03,2.0,,0.0,0.0,104.97
2025-08-14T22:52:32.729Z,6,GR86-035-11,5.5,0.256,0.04,100.03,2.0,,0.0,0.0,
2025-08-14T22:52:32.772Z,6,GR86-035-11,5.5,0.297,0.047,100.01,2.0,,0.0,0.0,
2025-08-14T22:52:32.815Z,6,GR86-035-11,5.5,0.277,0.068,100.03,2.0,,0.0,0.0,
2025-08-14T22:52:32.858Z,6,GR86-035-11,4.1000000000000005,0.275,0.096,100.03,2.0,6149.0,0.0,0.0,
2025-08-14T22:52:32.901Z,6,GR86-035-11,3.2,0.273,0.084,100.03,2.0,,0.0,0.0,106.52
2025-08-14T22:52:32.944Z,6,GR86-035-11,3.2,0.258,0.089,100.03,2.0,,0.0,0.0,
2025-08-14T22:52:32.987Z,6,GR86-035-11,3.2,0.269,0.083,100.03,2.0,,0.0,0.0,
2025-08-14T22:52:33.030Z,6,GR86-035-11,3.2,0.269,0.08,100.03,2.0,,0.0,0.0,
2025-08-14T22:52:33.073Z,6,GR86-035-11,3.2,0.268,0.09,100.04,2.0,6242.0,0.0,0.0,
2025-08-14T22:52:33.117Z,6,GR86-035-11,3.1,0.278,0.088,100.04,2.0,,0.0,0.0,108.05
2025-08-14T22:52:33.160Z,6,GR86-035-11,3.1,0.279,0.071,100.0,2.0,,0.0,0.0,
2025-08-14T22:52:33.203Z,6,GR86-035-11,3.1,0.258,0.06,100.03,2.0,,0.0,0.0,
2025-08-14T22:52:33.246Z,6,GR86-035-11,3.2,0.253,0.071,100.02,2.0,,0.0,0.0,
2025-08-14T22:52:33.289Z,6,GR86-035-11,2.1,0.256,0.058,100.03,2.0,6397.0,0.0,0.0,
2025-08-14T22:52:33.332Z,6,GR86-035-11,0.4,0.268,0.064,100.03,2.0,,0.0,0.0,109.48
2025-08-14T22:52:33.377Z,6,GR86-035-11,-0.1,0.272,0.042,100.03,2.0,,0.0,0.0,
2025-08-14T22:52:33.420Z,6,GR86-035-11,-0.1,0.261,0.042,100.03,2.0,,0.0,0.0,
2025-08-14T22:52:33.463Z,6,GR86-035-11,-0.1,0.243,0.02,100.03,2.0,,0.0,0.0,
2025-08-14T22:52:33.506Z,6,GR86-035-11,-0.1,0.259,0.02,100.0,2.0,6481.0,0.0,0.0,
2025-08-14T22:52:33.549Z,6,GR86-035-11,-0.1,0.28,0.012,100.03,2.0,,0.0,0.0,110.76
2025-08-14T22:52:33.592Z,6,GR86-035-11,-0.1,0.274,0.009,100.02,2.0,,0.0,0.0,
2025-08-14T22:52:33.635Z,6,GR86-035-11,-0.1,0.256,0.0,100.04,2.0,,0.0,0.0,
2025-08-14T22:52:33.678Z,6,GR86-035-11,-0.5,0.243,-0.013,100.02,2.0,,0.0,0.0,
2025-08-14T22:52:33.721Z,6,GR86-035-11,-0.7000000000000001,0.256,-0.03,100.0,2.0,6543.0,0.0,0.0,
2025-08-14T22:52:33.764Z,6,GR86-035-11,-0.7000000000000001,0.268,-0.025,100.02,2.0,,0.0,0.0,112.0
2025-08-14T22:52:33.807Z,6,GR86-035-11,-0.7000000000000001,0.277,-0.027,100.03,2.0,,0.0,0.0,
2025-08-14T22:52:33.850Z,6,GR86-035-11,-0.7000000000000001,0.256,-0.042,100.03,2.0,,0.0,0.0,
2025-08-14T22:52:33.894Z,6,GR86-035-11,-0.7000000000000001,0.249,-0.041,100.03,2.0,,0.0,0.0,
2025-08-14T22:52:33.937Z,6,GR86-035-11,-0.7000000000000001,0.237,-0.044,100.02,2.0,6625.0,0.0,0.0,
2025-08-14T22:52:33.980Z,6,GR86-035-11,-0.7000000000000001,0.285,-0.05,100.01,2.0,,0.0,0.0,113.14
2025-08-14T22:52:34.023Z,6,GR86-035-11,-0.7000000000000001,0.266,-0.048,100.0,2.0,,0.0,0.0,
2025-08-14T22:52:34.066Z,6,GR86-035-11,-0.7000000000000001,0.257,-0.054,100.03,2.0,,0.0,0.0,
2025-08-14T22:52:34.109Z,6,GR86-035-11,-0.7000000000000001,0.271,-0.057,100.02,2.0,,0.0,0.0,
2025-08-14T22:52:34.152Z,6,GR86-035-11,-0.7000000000000001,0.249,-0.068,100.0,2.0,6702.0,0.0,0.0,
2025-08-14T22:52:34.195Z,6,GR86-035-11,-0.7000000000000001,0.257,-0.069,100.0,2.0,,0.0,0.0,114.35
2025-08-14T22:52:34.238Z,6,GR86-035-11,-0.7000000000000001,0.272,-0.072,99.97,2.0,,0.0,0.0,
2025-08-14T22:52:34.281Z,6,GR86-035-11,-0.7000000000000001,0.288,-0.061,99.99,2.0,,0.0,0.0,
2025-08-14T22:52:34.324Z,6,GR86-035-11,-0.7000000000000001,0.25,-0.064,100.02,2.0,,0.0,0.0,
2025-08-14T22:52:34.367Z,6,GR86-035-11,-0.8,0.255,-0.057,100.02,2.0,6782.0,0.0,0.0,
2025-08-14T22:52:34.410Z,6,GR86-035-11,-0.8,0.241,-0.068,100.01,2.0,,0.0,0.0,115.52
2025-08-14T22:52:34.453Z,6,GR86-035-11,-0.5,0.245,-0.059,99.99,2.0,,0.0,0.0,
2025-08-14T22:52:34.496Z,6,GR86-035-11,-0.5,0.279,-0.066,100.02,2.0,,0.0,0.0,
2025-08-14T22:52:34.541Z,6,GR86-035-11,0.1,0.28,-0.048,100.01,2.0,,0.0,0.0,
2025-08-14T22:52:34.584Z,6,GR86-035-11,0.6000000000000001,0.235,-0.063,99.99,2.0,6857.0,0.0,0.0,
2025-08-14T22:52:34.627Z,6,GR86-035-11,0.7000000000000001,-0.011,-0.029,100.0,2.0,,0.0,0.0,116.73
2025-08-14T22:52:34.670Z,6,GR86-035-11,0.7000000000000001,-0.054,-0.004,100.0,3.0,,0.0,0.0,
2025-08-14T22:52:34.713Z,6,GR86-035-11,1.6,0.549,-0.05,100.0,3.0,,0.0,0.0,
2025-08-14T22:52:34.756Z,6,GR86-035-11,2.1,0.342,-0.029,100.02,3.0,,0.0,0.0,
2025-08-14T22:52:34.799Z,6,GR86-035-11,2.1,0.316,0.035,99.98,3.0,6448.0,0.0,0.0,
2025-08-14T22:52:34.842Z,6,GR86-035-11,2.2,0.297,-0.033,99.99,3.0,,0.0,0.0,117.87
2025-08-14T22:52:34.885Z,6,GR86-035-11,2.3000000000000003,0.164,-0.002,99.99,3.0,,0.0,0.0,
2025-08-14T22:52:34.928Z,6,GR86-035-11,2.3000000000000003,0.176,0.061,100.0,3.0,,0.0,0.0,
2025-08-14T22:52:34.971Z,6,GR86-035-11,2.4000000000000004,0.22,0.005,100.0,3.0,,0.0,0.0,
2025-08-14T22:52:35.014Z,6,GR86-035-11,2.4000000000000004,0.226,0.028,100.0,3.0,5590.0,0.0,0.0,
2025-08-14T22:52:35.057Z,6,GR86-035-11,2.4000000000000004,0.218,0.022,100.0,3.0,,0.0,0.0,118.72
2025-08-14T22:52:35.100Z,6,GR86-035-11,2.4000000000000004,0.212,0.032,100.0,3.0,,0.0,0.0,
