timestamp,lap,vehicle_id,steering_angle,accx_can,accy_can,ath,gear,nmot,pbrake_f,pbrake_r,speed
2025-08-14T23:03:21.538Z,2,GR86-057-57,-2.4000000000000004,0.113,0.001,22.0,3.0,,0.0,0.0,74.99
2025-08-14T23:03:21.581Z,2,GR86-057-57,-2.4000000000000004,0.121,-0.011,21.98,3.0,,0.0,0.0,
2025-08-14T23:03:21.624Z,2,GR86-057-57,-2.4000000000000004,0.117,-0.016,21.95,3.0,,0.0,0.0,
2025-08-14T23:03:21.667Z,2,GR86-057-57,-2.4000000000000004,0.095,-0.001,21.94,3.0,,0.0,0.0,
2025-08-14T23:03:21.710Z,2,GR86-057-57,-2.4000000000000004,0.101,-0.015,22.02,3.0,3523.0,0.0,0.0,
2025-08-14T23:03:21.754Z,2,GR86-057-57,-2.4000000000000004,0.114,-0.038,22.41,3.0,,0.0,0.0,75.65
2025-08-14T23:03:21.796Z,2,GR86-057-57,-2.4000000000000004,0.122,-0.022,22.62,3.0,,0.0,0.0,
2025-08-14T23:03:21.839Z,2,GR86-057-57,-2.8000000000000003,0.124,-0.024,22.74,3.0,,0.0,0.0,
2025-08-14T23:03:21.883Z,2,GR86-057-57,-3.3000000000000003,0.098,-0.02,23.2,3.0,,0.0,0.0,
2025-08-14T23:03:21.925Z,2,GR86-057-57,-3.7,0.113,-0.022,23.62,3.0,3561.0,0.0,0.0,
2025-08-14T23:03:21.968Z,2,GR86-057-57,-4.5,0.111,-0.015,24.2,3.0,,0.0,0.0,76.3
2025-08-14T23:03:22.013Z,2,GR86-057-57,-5.6000000000000005,0.123,-0.03,25.38,3.0,,0.0,0.0,
2025-08-14T23:03:22.057Z,2,GR86-057-57,-7.300000000000001,0.127,-0.039,26.37,3.0,,0.0,0.0,
2025-08-14T23:03:22.100Z,2,GR86-057-57,-9.3,0.121,-0.065,26.74,3.0,,0.0,0.0,
2025-08-14T23:03:22.144Z,2,GR86-057-57,-12.4,0.129,-0.084,26.8,3.0,3592.0,0.0,0.0,
2025-08-14T23:03:22.186Z,2,GR86-057-57,-13.7,0.129,-0.122,26.83,3.0,,0.0,0.0,77.12
2025-08-14T23:03:22.229Z,2,GR86-057-57,-14.0,0.135,-0.137,26.84,3.0,,0.0,0.0,
2025-08-14T23:03:22.273Z,2,GR86-057-57,-14.0,0.131,-0.159,26.8,3.0,,0.0,0.0,
2025-08-14T23:03:22.316Z,2,GR86-057-57,-13.4,0.131,-0.163,26.78,3.0,,0.0,0.0,
2025-08-14T23:03:22.359Z,2,GR86-057-57,-12.5,0.122,-0.167,26.74,3.0,3640.0,0.0,0.0,
2025-08-14T23:03:22.404Z,2,GR86-057-57,-10.4,0.138,-0.155,26.69,3.0,,0.0,0.0,77.89
2025-08-14T23:03:22.447Z,2,GR86-057-57,-8.200000000000001,0.124,-0.153,26.59,3.0,,0.0,0.0,
2025-08-14T23:03:22.490Z,2,GR86-057-57,-5.7,0.127,-0.13,26.51,3.0,,0.0,0.0,
2025-08-14T23:03:22.534Z,2,GR86-057-57,-2.9000000000000004,0.124,-0.106,26.46,3.0,,0.0,0.0,
2025-08-14T23:03:22.577Z,2,GR86-057-57,0.5,0.142,-0.081,26.37,3.0,3676.0,0.0,0.0,
2025-08-14T23:03:22.620Z,2,GR86-057-57,4.4,0.141,-0.027,26.33,3.0,,0.0,0.0,78.68
2025-08-14T23:03:22.664Z,2,GR86-057-57,11.1,0.123,0.047,26.3,3.0,,0.0,0.0,
2025-08-14T23:03:22.707Z,2,GR86-057-57,15.7,0.116,0.119,26.33,3.0,,0.0,0.0,
2025-08-14T23:03:22.750Z,2,GR86-057-57,20.0,0.129,0.165,26.36,3.0,,0.0,0.0,
2025-08-14T23:03:22.794Z,2,GR86-057-57,23.9,0.127,0.246,26.53,3.0,3694.0,0.0,0.0,
2025-08-14T23:03:22.836Z,2,GR86-057-57,26.8,0.121,0.292,26.9,3.0,,0.0,0.0,79.59
2025-08-14T23:03:22.879Z,2,GR86-057-57,28.5,0.119,0.354,27.34,3.0,,0.0,0.0,
2025-08-14T23:03:22.923Z,2,GR86-057-57,28.1,0.121,0.402,27.6,3.0,,0.0,0.0,
2025-08-14T23:03:22.965Z,2,GR86-057-57,26.5,0.122,0.435,27.69,3.0,,0.0,0.0,
2025-08-14T23:03:23.009Z,2,GR86-057-57,23.9,0.126,0.417,27.84,3.0,3758.0,0.0,0.0,
2025-08-14T23:03:23.053Z,2,GR86-057-57,21.0,0.123,0.412,27.97,3.0,,0.0,0.0,80.53
2025-08-14T23:03:23.095Z,2,GR86-057-57,18.4,0.127,0.394,28.03,3.0,,0.0,0.0,
2025-08-14T23:03:23.138Z,2,GR86-057-57,15.5,0.124,0.368,28.1,3.0,,0.0,0.0,
2025-08-14T23:03:23.181Z,2,GR86-057-57,12.1,0.135,0.321,28.15,3.0,,0.0,0.0,
2025-08-14T23:03:23.224Z,2,GR86-057-57,5.300000000000001,0.138,0.266,28.14,3.0,3783.0,0.0,0.0,
2025-08-14T23:03:23.267Z,2,GR86-057-57,0.2,0.123,0.193,28.14,3.0,,0.0,0.0,81.4
2025-08-14T23:03:23.310Z,2,GR86-057-57,-5.0,0.128,0.129,28.14,3.0,,0.0,0.0,
2025-08-14T23:03:23.354Z,2,GR86-057-57,-10.0,0.134,0.046,28.14,3.0,,0.0,0.0,
2025-08-14T23:03:23.396Z,2,GR86-057-57,-14.7,0.126,-0.02,28.07,3.0,,0.0,0.0,
2025-08-14T23:03:23.439Z,2,GR86-057-57,-18.3,0.113,-0.098,28.0,3.0,3824.0,0.0,0.0,
2025-08-14T23:03:23.483Z,2,GR86-057-57,-22.1,0.114,-0.189,27.91,3.0,,0.0,0.0,82.27
2025-08-14T23:03:23.525Z,2,GR86-057-57,-23.9,0.115,-0.26,27.84,3.0,,0.0,0.0,
2025-08-14T23:03:23.569Z,2,GR86-057-57,-25.200000000000003,0.129,-0.288,27.79,3.0,,0.0,0.0,
2025-08-14T23:03:23.613Z,2,GR86-057-57,-25.700000000000003,0.11,-0.318,27.72,3.0,,0.0,0.0,
2025-08-14T23:03:23.655Z,2,GR86-057-57,-25.700000000000003,0.114,-0.345,27.65,3.0,3858.0,0.0,0.0,
2025-08-14T23:03:23.699Z,2,GR86-057-57,-25.0,0.101,-0.354,27.63,3.0,,0.0,0.0,83.11
2025-08-14T23:03:23.743Z,2,GR86-057-57,-22.8,0.118,-0.355,27.62,3.0,,0.0,0.0,
2025-08-14T23:03:23.785Z,2,GR86-057-57,-21.0,0.109,-0.357,27.63,3.0,,0.0,0.0,
2025-08-14T23:03:23.828Z,2,GR86-057-57,-18.6,0.121,-0.344,27.63,3.0,,0.0,0.0,
2025-08-14T23:03:23.871Z,2,GR86-057-57,-15.6,0.115,-0.31,27.63,3.0,3895.0,0.0,0.0,
2025-08-14T23:03:23.914Z,2,GR86-057-57,-12.3,0.108,-0.269,27.63,3.0,,0.0,0.0,84.82000000000001
2025-08-14T23:03:23.957Z,2,GR86-057-57,-8.8,0.107,-0.233,27.63,3.0,,0.0,0.0,
2025-08-14T23:03:24.000Z,2,GR86-057-57,-5.800000000000001,0.123,-0.185,27.64,3.0,,0.0,0.0,
2025-08-14T23:03:24.044Z,2,GR86-057-57,-2.1,0.125,-0.126,27.73,3.0,,0.0,0.0,
2025-08-14T23:03:24.086Z,2,GR86-057-57,0.3,0.113,-0.068,27.91,3.0,3946.0,0.0,0.0,
2025-08-14T23:03:24.130Z,2,GR86-057-57,3.3000000000000003,0.113,-0.046,28.04,3.0,,0.0,0.0,85.67
2025-08-14T23:03:24.174Z,2,GR86-057-57,6.800000000000001,0.124,0.013,28.14,3.0,,0.0,0.0,
2025-08-14T23:03:24.216Z,2,GR86-057-57,10.4,0.121,0.068,28.54,3.0,,0.0,0.0,
2025-08-14T23:03:24.259Z,2,GR86-057-57,13.4,0.118,0.135,29.28,3.0,,0.0,0.0,
2025-08-14T23:03:24.304Z,2,GR86-057-57,15.9,0.114,0.187,30.32,3.0,4028.0,0.0,0.0,
2025-08-14T23:03:24.347Z,2,GR86-057-57,16.5,0.122,0.235,30.77,3.0,,0.0,0.0,86.47
2025-08-14T23:03:24.390Z,2,GR86-057-57,16.5,0.133,0.237,30.81,3.0,,0.0,0.0,
2025-08-14T23:03:24.434Z,2,GR86-057-57,16.3,0.113,0.279,30.88,3.0,,0.0,0.0,
2025-08-14T23:03:24.476Z,2,GR86-057-57,15.6,0.107,0.279,31.13,3.0,,0.0,0.0,
2025-08-14T23:03:24.519Z,2,GR86-057-57,14.8,0.126,0.306,31.35,3.0,4048.0,0.0,0.0,
2025-08-14T23:03:24.563Z,2,GR86-057-57,11.9,0.132,0.286,31.42,3.0,,0.0,0.0,87.27
2025-08-14T23:03:24.607Z,2,GR86-057-57,9.4,0.134,0.267,31.17,3.0,,0.0,0.0,
2025-08-14T23:03:24.650Z,2,GR86-057-57,6.7,0.126,0.238,30.91,3.0,,0.0,0.0,
2025-08-14T23:03:24.694Z,2,GR86-057-57,4.2,0.127,0.206,30.75,3.0,,0.0,0.0,
2025-08-14T23:03:24.736Z,2,GR86-057-57,1.9,0.135,0.159,30.56,3.0,4105.0,0.0,0.0,
2025-08-14T23:03:24.779Z,2,GR86-057-57,-0.1,0.127,0.123,30.45,3.0,,0.0,0.0,88.15
2025-08-14T23:03:24.823Z,2,GR86-057-57,-2.3000000000000003,0.124,0.067,30.03,3.0,,0.0,0.0,
2025-08-14T23:03:24.866Z,2,GR86-057-57,-3.3000000000000003,0.125,0.028,29.91,3.0,,0.0,0.0,
2025-08-14T23:03:24.909Z,2,GR86-057-57,-3.7,0.133,0.008,29.66,3.0,,0.0,0.0,
2025-08-14T23:03:24.953Z,2,GR86-057-57,-4.1000000000000005,0.125,-0.019,29.36,3.0,4156.0,0.0,0.0,
2025-08-14T23:03:24.995Z,2,GR86-057-57,-4.5,0.132,-0.019,28.97,3.0,,0.0,0.0,89.03
2025-08-14T23:03:25.038Z,2,GR86-057-57,-5.0,0.12,-0.05,28.56,3.0,,0.0,0.0,
2025-08-14T23:03:25.081Z,2,GR86-057-57,-5.4,0.121,-0.04,28.09,3.0,,0.0,0.0,
2025-08-14T23:03:25.124Z,2,GR86-057-57,-5.9,0.107,-0.072,27.88,3.0,,0.0,0.0,
2025-08-14T23:03:25.167Z,2,GR86-057-57,-6.1000000000000005,0.117,-0.069,27.79,3.0,4198.0,0.0,0.0,
2025-08-14T23:03:25.210Z,2,GR86-057-57,-6.4,0.122,-0.085,27.69,3.0,,0.0,0.0,89.89
2025-08-14T23:03:25.254Z,2,GR86-057-57,-7.0,0.111,-0.068,27.59,3.0,,0.0,0.0,
2025-08-14T23:03:25.297Z,2,GR86-057-57,-7.5,0.108,-0.08,27.53,3.0,,0.0,0.0,
2025-08-14T23:03:25.340Z,2,GR86-057-57,-7.800000000000001,0.11,-0.079,27.49,3.0,,0.0,0.0,
2025-08-14T23:03:25.384Z,2,GR86-057-57,-7.9,0.117,-0.09,27.28,3.0,4234.0,0.0,0.0,
2025-08-14T23:03:25.427Z,2,GR86-057-57,-7.9,0.111,-0.11,27.12,3.0,,0.0,0.0,90.78
2025-08-14T23:03:25.470Z,2,GR86-057-57,-7.9,0.113,-0.1,26.96,3.0,,0.0,0.0,
2025-08-14T23:03:25.514Z,2,GR86-057-57,-7.9,0.108,-0.122,26.8,3.0,,0.0,0.0,
2025-08-14T23:03:25.557Z,2,GR86-057-57,-7.9,0.107,-0.106,26.62,3.0,,0.0,0.0,
2025-08-14T23:03:25.600Z,2,GR86-057-57,-7.9,0.1,-0.126,26.33,3.0,4244.0,0.0,0.0,
2025-08-14T23:03:25.644Z,2,GR86-057-57,-7.9,0.104,-0.108,25.73,3.0,,0.0,0.0,91.67
2025-08-14T23:03:25.687Z,2,GR86-057-57,-7.7,0.113,-0.107,25.44,3.0,,0.0,0.0,
2025-08-14T23:03:25.730Z,2,GR86-057-57,-7.2,0.095,-0.101,25.28,3.0,,0.0,0.0,
2025-08-14T23:03:25.774Z,2,GR86-057-57,-6.9,0.098,-0.115,25.22,3.0,,0.0,0.0,
2025-08-14T23:03:25.816Z,2,GR86-057-57,-6.800000000000001,0.095,-0.103,25.15,3.0,4285.0,0.0,0.0,
2025-08-14T23:03:25.859Z,2,GR86-057-57,-6.800000000000001,0.1,-0.099,24.9,3.0,,0.0,0.0,92.48
2025-08-14T23:03:25.904Z,2,GR86-057-57,-6.6000000000000005,0.108,-0.098,24.44,3.0,,0.0,0.0,
2025-08-14T23:03:25.947Z,2,GR86-057-57,-6.300000000000001,0.105,-0.082,24.29,3.0,,0.0,0.0,
2025-08-14T23:03:25.990Z,2,GR86-057-57,-6.2,0.092,-0.098,24.19,3.0,,0.0,0.0,
2025-08-14T23:03:26.034Z,2,GR86-057-57,-6.0,0.089,-0.076,23.53,3.0,4345.0,0.0,0.0,
2025-08-14T23:03:26.077Z,2,GR86-057-57,-5.7,0.102,-0.084,22.13,3.0,,0.0,0.0,93.29
2025-08-14T23:03:26.120Z,2,GR86-057-57,-5.1000000000000005,0.102,-0.073,21.87,3.0,,0.0,0.0,
2025-08-14T23:03:26.164Z,2,GR86-057-57,-4.2,0.085,-0.059,21.81,3.0,,0.0,0.0,
2025-08-14T23:03:26.207Z,2,GR86-057-57,-3.7,0.07,-0.069,21.82,3.0,,0.0,0.0,
2025-08-14T23:03:26.250Z,2,GR86-057-57,-3.3000000000000003,0.08,-0.043,21.83,3.0,4357.0,0.0,0.0,
2025-08-14T23:03:26.293Z,2,GR86-057-57,-3.0,0.094,-0.062,21.84,3.0,,0.0,0.0,94.05
2025-08-14T23:03:26.336Z,2,GR86-057-57,-2.6,0.093,-0.032,21.85,3.0,,0.0,0.0,
2025-08-14T23:03:26.379Z,2,GR86-057-57,-2.3000000000000003,0.066,-0.041,21.86,3.0,,0.0,0.0,
2025-08-14T23:03:26.423Z,2,GR86-057-57,-1.7000000000000002,0.071,-0.026,21.87,3.0,,0.0,0.0,
2025-08-14T23:03:26.465Z,2,GR86-057-57,-1.4,0.097,-0.009,21.88,3.0,4389.0,0.0,0.0,
2025-08-14T23:03:26.508Z,2,GR86-057-57,-1.2000000000000002,0.096,-0.017,21.87,3.0,,0.0,0.0,95.47
2025-08-14T23:03:26.551Z,2,GR86-057-57,-1.0,0.087,0.008,21.45,3.0,,0.0,0.0,
2025-08-14T23:03:26.594Z,2,GR86-057-57,-0.8,0.065,-0.014,21.28,3.0,,0.0,0.0,
2025-08-14T23:03:26.638Z,2,GR86-057-57,-0.8,0.074,0.022,21.11,3.0,,0.0,0.0,
2025-08-14T23:03:26.681Z,2,GR86-057-57,-0.8,0.088,0.004,20.69,3.0,4447.0,0.0,0.0,
2025-08-14T23:03:26.724Z,2,GR86-057-57,-0.8,0.071,0.016,20.25,3.0,,0.0,0.0,96.05
2025-08-14T23:03:26.767Z,2,GR86-057-57,-0.7000000000000001,0.068,0.022,19.85,3.0,,0.0,0.0,
2025-08-14T23:03:26.810Z,2,GR86-057-57,-0.6000000000000001,0.053,0.01,18.7,3.0,,0.0,0.0,
2025-08-14T23:03:26.854Z,2,GR86-057-57,-0.6000000000000001,0.073,0.028,18.08,3.0,,0.0,0.0,
2025-08-14T23:03:26.896Z,2,GR86-057-57,-0.6000000000000001,0.065,0.007,17.96,3.0,4470.0,0.0,0.0,
2025-08-14T23:03:26.939Z,2,GR86-057-57,-0.6000000000000001,0.061,0.026,16.57,3.0,,0.0,0.0,96.64
2025-08-14T23:03:26.983Z,2,GR86-057-57,-0.6000000000000001,0.032,0.018,13.78,3.0,,0.0,0.0,
2025-08-14T23:03:27.025Z,2,GR86-057-57,-0.6000000000000001,0.028,0.009,13.15,3.0,,0.0,0.0,
2025-08-14T23:03:27.068Z,2,GR86-057-57,-0.7000000000000001,0.022,0.02,13.15,3.0,,0.0,0.0,
2025-08-14T23:03:27.113Z,2,GR86-057-57,-0.9,0.0,0.0,13.02,3.0,4504.0,0.0,0.0,
2025-08-14T23:03:27.157Z,2,GR86-057-57,-1.0,-0.016,0.024,11.46,3.0,,0.0,0.0,97.24
2025-08-14T23:03:27.200Z,2,GR86-057-57,-1.1,-0.03,-0.003,8.44,3.0,,0.0,0.0,
2025-08-14T23:03:27.244Z,2,GR86-057-57,-1.1,-0.024,0.006,8.06,3.0,,0.0,0.0,
2025-08-14T23:03:27.286Z,2,GR86-057-57,-1.1,-0.034,0.012,8.07,3.0,,0.0,0.0,
2025-08-14T23:03:27.329Z,2,GR86-057-57,-1.2000000000000002,-0.054,0.0,8.07,3.0,4500.0,0.0,0.0,
2025-08-14T23:03:27.374Z,2,GR86-057-57,-1.2000000000000002,-0.047,0.014,8.13,3.0,,0.0,0.0,97.7
2025-08-14T23:03:27.416Z,2,GR86-057-57,-1.3,-0.052,0.003,8.14,3.0,,0.0,0.0,
2025-08-14T23:03:27.459Z,2,GR86-057-57,-1.3,-0.06,0.009,9.3,3.0,,0.0,0.0,
2025-08-14T23:03:27.504Z,2,GR86-057-57,-1.3,-0.194,0.007,11.76,3.0,,0.0,0.0,
2025-08-14T23:03:27.547Z,2,GR86-057-57,-1.3,-0.116,0.004,11.11,3.0,4484.0,0.0,0.0,
2025-08-14T23:03:27.590Z,2,GR86-057-57,-1.3,-0.053,0.0,11.07,3.0,,0.0,0.0,97.87
2025-08-14T23:03:27.634Z,2,GR86-057-57,-1.3,-0.072,-0.004,13.23,3.0,,0.0,0.0,
2025-08-14T23:03:27.677Z,2,GR86-057-57,-1.3,-0.053,-0.004,14.61,3.0,,0.0,0.0,
2025-08-14T23:03:27.764Z,2,GR86-057-57,-1.3,-0.055,-0.013,14.78,3.0,4369.0,0.0,0.0,
2025-08-14T23:03:27.807Z,2,GR86-057-57,-1.3,-0.057,-0.002,15.85,3.0,,0.0,0.0,97.69
2025-08-14T23:03:27.850Z,2,GR86-057-57,-1.3,-0.054,-0.016,15.85,3.0,,0.0,0.0,
2025-08-14T23:03:27.894Z,2,GR86-057-57,-1.3,-0.056,0.001,15.8,3.0,,0.0,0.0,
2025-08-14T23:03:27.936Z,2,GR86-057-57,-1.3,0.069,-0.011,13.78,3.0,,0.0,0.0,
2025-08-14T23:03:27.979Z,2,GR86-057-57,-1.3,0.099,0.006,13.89,3.0,4431.0,0.0,0.0,
2025-08-14T23:03:28.023Z,2,GR86-057-57,-1.3,-0.047,-0.007,15.28,3.0,,0.0,0.0,97.07
2025-08-14T23:03:28.065Z,2,GR86-057-57,-1.3,-0.044,0.002,15.3,3.0,,0.0,0.0,
2025-08-14T23:03:28.108Z,2,GR86-057-57,-1.3,-0.052,-0.001,15.35,3.0,,0.0,0.0,
2025-08-14T23:03:28.151Z,2,GR86-057-57,-1.3,0.005,0.006,14.22,3.0,,0.0,0.0,
2025-08-14T23:03:28.194Z,2,GR86-057-57,-1.3,0.059,0.0,14.1,3.0,4528.0,0.0,0.0,
2025-08-14T23:03:28.238Z,2,GR86-057-57,-1.3,0.011,-0.013,13.71,3.0,,0.0,0.0,96.69
2025-08-14T23:03:28.281Z,2,GR86-057-57,-1.3,-0.036,0.019,13.0,3.0,,0.0,0.0,
2025-08-14T23:03:28.324Z,2,GR86-057-57,-1.3,-0.032,-0.007,10.47,3.0,,0.0,0.0,
2025-08-14T23:03:28.367Z,2,GR86-057-57,-1.3,-0.004,0.012,9.34,3.0,,0.0,0.0,
2025-08-14T23:03:28.410Z,2,GR86-057-57,-1.3,-0.019,-0.013,9.39,3.0,4435.0,0.0,0.0,
2025-08-14T23:03:28.454Z,2,GR86-057-57,-1.3,-0.045,-0.004,9.19,3.0,,0.0,0.0,96.61
2025-08-14T23:03:28.496Z,2,GR86-057-57,-1.3,-0.045,-0.006,8.97,3.0,,0.0,0.0,
2025-08-14T23:03:28.539Z,2,GR86-057-57,-1.3,-0.052,-0.007,8.61,3.0,,0.0,0.0,
2025-08-14T23:03:28.583Z,2,GR86-057-57,-1.3,-0.044,0.007,8.67,3.0,,0.0,0.0,
2025-08-14T23:03:28.625Z,2,GR86-057-57,-1.3,-0.053,-0.016,8.67,3.0,4431.0,0.0,0.0,
2025-08-14T23:03:28.669Z,2,GR86-057-57,-1.1,-0.051,0.01,8.66,3.0,,0.0,0.0,96.62
2025-08-14T23:03:28.713Z,2,GR86-057-57,-0.9,-0.143,-0.018,10.04,3.0,,0.0,0.0,
2025-08-14T23:03:28.755Z,2,GR86-057-57,-0.8,-0.201,0.002,10.06,3.0,,0.0,0.0,
2025-08-14T23:03:28.799Z,2,GR86-057-57,-0.8,-0.108,0.001,9.67,3.0,,0.0,0.0,
2025-08-14T23:03:28.843Z,2,GR86-057-57,-0.7000000000000001,-0.059,-0.009,9.93,3.0,4421.0,0.0,0.0,
2025-08-14T23:03:28.885Z,2,GR86-057-57,-0.6000000000000001,-0.075,0.01,10.15,3.0,,0.0,0.0,96.61
2025-08-14T23:03:28.928Z,2,GR86-057-57,-0.6000000000000001,-0.135,-0.016,10.29,3.0,,0.0,0.0,
2025-08-14T23:03:28.971Z,2,GR86-057-57,-0.6000000000000001,-0.126,0.012,10.34,3.0,,0.0,0.0,
2025-08-14T23:03:29.014Z,2,GR86-057-57,-0.6000000000000001,-0.075,0.0,12.88,3.0,,0.0,0.0,
2025-08-14T23:03:29.057Z,2,GR86-057-57,-0.6000000000000001,-0.047,0.003,19.02,3.0,4247.0,0.0,0.0,
2025-08-14T23:03:29.100Z,2,GR86-057-57,-0.6000000000000001,-0.048,0.001,19.25,3.0,,0.0,0.0,96.38
2025-08-14T23:03:29.144Z,2,GR86-057-57,-0.6000000000000001,-0.05,-0.002,18.9,3.0,,0.0,0.0,
2025-08-14T23:03:29.186Z,2,GR86-057-57,-0.6000000000000001,-0.044,0.015,17.79,3.0,,0.0,0.0,
2025-08-14T23:03:29.230Z,2,GR86-057-57,-0.6000000000000001,0.098,0.006,15.41,3.0,,0.0,0.0,
2025-08-14T23:03:29.273Z,2,GR86-057-57,-0.6000000000000001,0.116,0.032,15.47,3.0,4331.0,0.0,0.0,
2025-08-14T23:03:29.316Z,2,GR86-057-57,-0.6000000000000001,0.017,-0.001,15.65,3.0,,0.0,0.0,95.22
2025-08-14T23:03:29.359Z,2,GR86-057-57,-0.6000000000000001,-0.049,0.03,15.51,3.0,,0.0,0.0,
2025-08-14T23:03:29.404Z,2,GR86-057-57,-0.6000000000000001,0.011,0.017,14.13,3.0,,0.0,0.0,
2025-08-14T23:03:29.447Z,2,GR86-057-57,-0.6000000000000001,0.051,0.022,14.25,3.0,,0.0,0.0,
2025-08-14T23:03:29.490Z,2,GR86-057-57,-0.6000000000000001,0.021,0.023,15.18,3.0,4426.0,0.0,0.0,
2025-08-14T23:03:29.534Z,2,GR86-057-57,-0.6000000000000001,-0.025,0.006,15.26,3.0,,0.0,0.0,94.88
2025-08-14T23:03:29.576Z,2,GR86-057-57,-0.6000000000000001,-0.028,0.018,12.56,3.0,,0.0,0.0,
2025-08-14T23:03:29.619Z,2,GR86-057-57,-0.6000000000000001,0.006,-0.001,10.88,3.0,,0.0,0.0,
2025-08-14T23:03:29.665Z,2,GR86-057-57,-0.6000000000000001,0.009,0.008,11.38,3.0,,0.0,0.0,
2025-08-14T23:03:29.707Z,2,GR86-057-57,-0.6000000000000001,-0.027,0.006,11.5,3.0,4364.0,0.0,0.0,
2025-08-14T23:03:29.750Z,2,GR86-057-57,-0.6000000000000001,-0.044,0.006,11.47,3.0,,0.0,0.0,95.16
2025-08-14T23:03:29.794Z,2,GR86-057-57,-0.6000000000000001,-0.042,0.016,11.51,3.0,,0.0,0.0,
2025-08-14T23:03:29.836Z,2,GR86-057-57,-0.6000000000000001,-0.035,0.006,11.6,3.0,,0.0,0.0,
2025-08-14T23:03:29.879Z,2,GR86-057-57,-0.6000000000000001,-0.036,0.013,12.02,3.0,,0.0,0.0,
2025-08-14T23:03:29.923Z,2,GR86-057-57,-0.6000000000000001,-0.052,-0.004,12.13,3.0,4364.0,0.0,0.0,
2025-08-14T23:03:29.966Z,2,GR86-057-57,-0.6000000000000001,-0.044,0.017,12.11,3.0,,0.0,0.0,95.32
2025-08-14T23:03:30.009Z,2,GR86-057-57,-0.6000000000000001,-0.046,0.001,12.2,3.0,,0.0,0.0,
2025-08-14T23:03:30.053Z,2,GR86-057-57,-0.6000000000000001,-0.042,0.013,12.29,3.0,,0.0,0.0,
2025-08-14T23:03:30.095Z,2,GR86-057-57,-0.6000000000000001,-0.03,0.004,12.5,3.0,,0.0,0.0,
2025-08-14T23:03:30.181Z,2,GR86-057-57,-0.6000000000000001,-0.026,0.01,12.58,3.0,4346.0,0.0,0.0,95.37
2025-08-14T23:03:30.224Z,2,GR86-057-57,-0.6000000000000001,-0.045,-0.007,12.82,3.0,,0.0,0.0,
2025-08-14T23:03:30.267Z,2,GR86-057-57,-0.7000000000000001,-0.033,0.022,12.84,3.0,,0.0,0.0,
2025-08-14T23:03:30.310Z,2,GR86-057-57,-0.8,-0.038,-0.008,12.96,3.0,,0.0,0.0,
2025-08-14T23:03:30.354Z,2,GR86-057-57,-1.1,-0.033,0.021,13.05,3.0,4381.0,0.0,0.0,
2025-08-14T23:03:30.397Z,2,GR86-057-57,-1.3,-0.038,-0.01,13.58,3.0,,0.0,0.0,95.22
2025-08-14T23:03:30.440Z,2,GR86-057-57,-1.3,-0.032,0.011,13.85,3.0,,0.0,0.0,
2025-08-14T23:03:30.484Z,2,GR86-057-57,-1.3,-0.032,-0.003,13.9,3.0,,0.0,0.0,
2025-08-14T23:03:30.527Z,2,GR86-057-57,-1.3,-0.029,-0.015,13.93,3.0,,0.0,0.0,
2025-08-14T23:03:30.570Z,2,GR86-057-57,-1.3,-0.028,0.001,13.92,3.0,4347.0,0.0,0.0,
2025-08-14T23:03:30.614Z,2,GR86-057-57,-1.3,-0.019,-0.019,13.94,3.0,,0.0,0.0,95.1
2025-08-14T23:03:30.656Z,2,GR86-057-57,-1.3,-0.026,0.007,13.98,3.0,,0.0,0.0,
2025-08-14T23:03:30.699Z,2,GR86-057-57,-1.3,-0.013,-0.005,14.37,3.0,,0.0,0.0,
2025-08-14T23:03:30.743Z,2,GR86-057-57,-1.3,-0.013,0.002,14.79,3.0,,0.0,0.0,
2025-08-14T23:03:30.785Z,2,GR86-057-57,-1.3,-0.015,0.006,14.87,3.0,4367.0,0.0,0.0,
2025-08-14T23:03:30.828Z,2,GR86-057-57,-1.4,-0.012,-0.006,15.01,3.0,,0.0,0.0,94.95
2025-08-14T23:03:30.871Z,2,GR86-057-57,-1.4,0.002,0.007,15.2,3.0,,0.0,0.0,
2025-08-14T23:03:30.914Z,2,GR86-057-57,-1.4,0.008,-0.023,15.23,3.0,,0.0,0.0,
2025-08-14T23:03:30.957Z,2,GR86-057-57,-1.5,0.005,0.006,15.44,3.0,,0.0,0.0,
2025-08-14T23:03:31.000Z,2,GR86-057-57,-1.5,-0.002,-0.017,15.5,3.0,4372.0,0.0,0.0,
2025-08-14T23:03:31.044Z,2,GR86-057-57,-1.6,0.004,-0.002,15.52,3.0,,0.0,0.0,94.87
2025-08-14T23:03:31.087Z,2,GR86-057-57,-1.7000000000000002,0.006,-0.014,15.5,3.0,,0.0,0.0,
2025-08-14T23:03:31.174Z,2,GR86-057-57,-1.9,0.013,-0.004,15.49,3.0,,0.0,0.0,
2025-08-14T23:03:31.216Z,2,GR86-057-57,-2.3000000000000003,0.001,-0.017,15.4,3.0,4353.0,0.0,0.0,
2025-08-14T23:03:31.259Z,2,GR86-057-57,-2.4000000000000004,0.002,-0.017,15.1,3.0,,0.0,0.0,94.87
2025-08-14T23:03:31.304Z,2,GR86-057-57,-2.4000000000000004,0.005,-0.034,14.45,3.0,,0.0,0.0,
2025-08-14T23:03:31.347Z,2,GR86-057-57,-2.4000000000000004,0.006,-0.016,14.23,3.0,,0.0,0.0,
2025-08-14T23:03:31.390Z,2,GR86-057-57,-2.4000000000000004,0.004,-0.037,14.16,3.0,,0.0,0.0,
2025-08-14T23:03:31.434Z,2,GR86-057-57,-2.5,-0.012,-0.007,14.13,3.0,4388.0,0.0,0.0,
2025-08-14T23:03:31.477Z,2,GR86-057-57,-2.5,-0.015,-0.033,13.83,3.0,,0.0,0.0,94.97
2025-08-14T23:03:31.520Z,2,GR86-057-57,-2.5,-0.002,-0.015,12.33,3.0,,0.0,0.0,
2025-08-14T23:03:31.564Z,2,GR86-057-57,-2.5,-0.005,-0.02,10.29,3.0,,0.0,0.0,
2025-08-14T23:03:31.607Z,2,GR86-057-57,-2.5,-0.019,-0.039,9.89,3.0,,0.0,0.0,
2025-08-14T23:03:31.650Z,2,GR86-057-57,-2.5,-0.031,-0.026,9.8,3.0,4368.0,0.0,0.0,
2025-08-14T23:03:31.694Z,2,GR86-057-57,-2.5,-0.042,-0.04,9.71,3.0,,0.0,0.0,95.15
2025-08-14T23:03:31.736Z,2,GR86-057-57,-2.5,-0.049,-0.022,9.73,3.0,,0.0,0.0,
2025-08-14T23:03:31.779Z,2,GR86-057-57,-2.5,-0.059,-0.042,9.76,3.0,,0.0,0.0,
2025-08-14T23:03:31.823Z,2,GR86-057-57,-2.5,-0.048,-0.041,9.71,3.0,,0.0,0.0,
2025-08-14T23:03:31.865Z,2,GR86-057-57,-2.5,-0.053,-0.026,9.72,3.0,4374.0,0.0,0.0,
2025-08-14T23:03:31.951Z,2,GR86-057-57,-2.5,-0.052,-0.021,9.75,3.0,,0.0,0.0,95.38
2025-08-14T23:03:31.994Z,2,GR86-057-57,-2.5,-0.054,-0.036,9.76,3.0,,0.0,0.0,
2025-08-14T23:03:32.038Z,2,GR86-057-57,-2.5,-0.058,-0.02,9.82,3.0,,0.0,0.0,
2025-08-14T23:03:32.081Z,2,GR86-057-57,-2.5,-0.056,-0.039,9.83,3.0,4371.0,0.0,0.0,
2025-08-14T23:03:32.124Z,2,GR86-057-57,-2.5,-0.05,-0.028,9.77,3.0,,0.0,0.0,95.33
2025-08-14T23:03:32.167Z,2,GR86-057-57,-2.4000000000000004,-0.056,-0.028,9.64,3.0,,0.0,0.0,
2025-08-14T23:03:32.210Z,2,GR86-057-57,-2.4000000000000004,-0.05,-0.037,7.88,3.0,,0.0,0.0,
2025-08-14T23:03:32.253Z,2,GR86-057-57,-2.4000000000000004,-0.055,-0.026,7.72,3.0,,0.0,0.0,
2025-08-14T23:03:32.296Z,2,GR86-057-57,-2.3000000000000003,-0.052,-0.037,7.69,3.0,4338.0,0.0,0.0,
2025-08-14T23:03:32.339Z,2,GR86-057-57,-2.3000000000000003,-0.054,-0.018,7.65,3.0,,0.0,0.0,95.08
2025-08-14T23:03:32.383Z,2,GR86-057-57,-2.3000000000000003,-0.141,-0.024,7.66,3.0,,0.0,0.0,
2025-08-14T23:03:32.425Z,2,GR86-057-57,-2.1,-0.14,-0.016,7.62,3.0,,0.0,0.0,
2025-08-14T23:03:32.468Z,2,GR86-057-57,-2.1,-0.097,-0.019,7.59,3.0,,0.0,0.0,
2025-08-14T23:03:32.511Z,2,GR86-057-57,-2.0,-0.059,-0.019,7.09,3.0,4300.0,0.0,0.0,
2025-08-14T23:03:32.554Z,2,GR86-057-57,-2.0,-0.073,-0.02,5.57,3.0,,0.0,0.0,94.83
2025-08-14T23:03:32.597Z,2,GR86-057-57,-1.8,-0.102,-0.02,5.48,3.0,,0.0,0.0,
2025-08-14T23:03:32.640Z,2,GR86-057-57,-1.7000000000000002,-0.102,-0.022,5.39,3.0,,0.0,0.0,
2025-08-14T23:03:32.684Z,2,GR86-057-57,-1.5,-0.08,-0.033,5.3100000000000005,3.0,,0.0,0.0,
2025-08-14T23:03:32.726Z,2,GR86-057-57,-1.4,-0.099,-0.006,5.25,3.0,4343.0,0.0,0.0,
2025-08-14T23:03:32.769Z,2,GR86-057-57,-1.2000000000000002,-0.115,-0.034,5.21,3.0,,0.0,0.0,94.5
2025-08-14T23:03:32.813Z,2,GR86-057-57,-1.2000000000000002,-0.111,-0.014,5.14,3.0,,0.0,0.0,
2025-08-14T23:03:32.857Z,2,GR86-057-57,-1.2000000000000002,-0.087,-0.028,5.11,3.0,,0.0,0.0,
2025-08-14T23:03:32.900Z,2,GR86-057-57,-1.2000000000000002,-0.082,-0.01,5.08,3.0,,0.0,0.0,
2025-08-14T23:03:32.944Z,2,GR86-057-57,-1.2000000000000002,-0.109,-0.01,5.05,3.0,4290.0,0.0,0.0,
2025-08-14T23:03:32.986Z,2,GR86-057-57,-1.2000000000000002,-0.117,-0.027,5.03,3.0,,0.0,0.0,93.89
2025-08-14T23:03:33.030Z,2,GR86-057-57,-1.2000000000000002,-0.103,-0.01,5.0200000000000005,3.0,,0.0,0.0,
2025-08-14T23:03:33.074Z,2,GR86-057-57,-1.2000000000000002,-0.079,-0.028,5.01,3.0,,0.0,0.0,
2025-08-14T23:03:33.116Z,2,GR86-057-57,-1.2000000000000002,-0.091,-0.018,5.0,3.0,,0.0,0.0,
2025-08-14T23:03:33.159Z,2,GR86-057-57,-1.2000000000000002,-0.099,-0.026,4.98,3.0,4233.0,0.0,0.0,
2025-08-14T23:03:33.204Z,2,GR86-057-57,-1.2000000000000002,-0.116,-0.002,4.99,3.0,,0.0,0.0,93.39
2025-08-14T23:03:33.247Z,2,GR86-057-57,-1.2000000000000002,-0.093,-0.018,4.99,3.0,,0.0,0.0,
2025-08-14T23:03:33.290Z,2,GR86-057-57,-1.2000000000000002,-0.086,0.002,4.98,3.0,,0.0,0.0,
2025-08-14T23:03:33.334Z,2,GR86-057-57,-1.2000000000000002,-0.098,-0.015,4.99,3.0,,0.0,0.0,
2025-08-14T23:03:33.377Z,2,GR86-057-57,-1.2000000000000002,-0.112,0.0,4.98,3.0,4212.0,0.0,0.0,
2025-08-14T23:03:33.420Z,2,GR86-057-57,-1.2000000000000002,-0.113,-0.021,4.97,3.0,,0.0,0.0,92.78
2025-08-14T23:03:33.464Z,2,GR86-057-57,-1.2000000000000002,-0.096,-0.024,4.99,3.0,,0.0,0.0,
2025-08-14T23:03:33.507Z,2,GR86-057-57,-1.2000000000000002,-0.098,-0.005,4.98,3.0,,0.0,0.0,
2025-08-14T23:03:33.550Z,2,GR86-057-57,-1.2000000000000002,-0.096,-0.029,4.98,3.0,,0.0,0.0,
2025-08-14T23:03:33.594Z,2,GR86-057-57,-1.2000000000000002,-0.103,-0.01,4.99,3.0,4184.0,0.0,0.0,
2025-08-14T23:03:33.636Z,2,GR86-057-57,-1.2000000000000002,-0.09,-0.018,5.0,3.0,,0.0,0.0,92.17
2025-08-14T23:03:33.679Z,2,GR86-057-57,-1.2000000000000002,-0.092,-0.001,4.99,3.0,,0.0,0.0,
2025-08-14T23:03:33.723Z,2,GR86-057-57,-1.1,-0.106,-0.02,4.99,3.0,,0.0,0.0,
2025-08-14T23:03:33.765Z,2,GR86-057-57,-1.0,-0.111,0.003,4.98,3.0,,0.0,0.0,
2025-08-14T23:03:33.808Z,2,GR86-057-57,-1.0,-0.096,-0.018,4.98,3.0,4154.0,0.0,0.0,
2025-08-14T23:03:33.851Z,2,GR86-057-57,-1.0,-0.085,-0.006,4.99,3.0,,0.0,0.0,91.57
2025-08-14T23:03:33.894Z,2,GR86-057-57,-1.0,-0.094,-0.015,4.98,3.0,,0.0,0.0,
2025-08-14T23:03:33.938Z,2,GR86-057-57,-0.9,-0.109,-0.002,4.98,3.0,,0.0,0.0,
2025-08-14T23:03:33.981Z,2,GR86-057-57,-0.8,-0.105,-0.019,4.99,3.0,,0.0,0.0,
2025-08-14T23:03:34.024Z,2,GR86-057-57,-0.3,-0.083,-0.016,4.98,3.0,4120.0,0.0,0.0,
2025-08-14T23:03:34.067Z,2,GR86-057-57,0.3,-0.084,-0.002,4.99,3.0,,0.0,0.0,90.95
2025-08-14T23:03:34.110Z,2,GR86-057-57,0.9,-0.09,-0.006,5.0,3.0,,0.0,0.0,
2025-08-14T23:03:34.154Z,2,GR86-057-57,1.1,-0.112,0.007,4.99,3.0,,0.0,0.0,
2025-08-14T23:03:34.196Z,2,GR86-057-57,1.1,-0.099,0.006,4.99,3.0,,0.0,0.0,
2025-08-14T23:03:34.239Z,2,GR86-057-57,1.1,-0.088,0.014,4.99,3.0,4083.0,0.0,0.0,
2025-08-14T23:03:34.283Z,2,GR86-057-57,1.1,-0.089,0.001,4.99,3.0,,0.0,0.0,90.36
2025-08-14T23:03:34.325Z,2,GR86-057-57,1.1,-0.104,0.031,4.99,3.0,,0.0,0.0,
2025-08-14T23:03:34.368Z,2,GR86-057-57,1.1,-0.099,0.012,4.98,3.0,,0.0,0.0,
2025-08-14T23:03:34.413Z,2,GR86-057-57,1.1,-0.085,0.033,4.99,3.0,,0.0,0.0,
2025-08-14T23:03:34.455Z,2,GR86-057-57,1.1,-0.081,0.02,4.98,3.0,4085.0,0.0,0.0,
2025-08-14T23:03:34.543Z,2,GR86-057-57,1.0,-0.097,0.034,4.99,3.0,,0.0,0.0,89.73
2025-08-14T23:03:34.586Z,2,GR86-057-57,1.0,-0.095,0.026,4.98,3.0,,0.0,0.0,
2025-08-14T23:03:34.630Z,2,GR86-057-57,0.9,-0.09,0.028,4.98,3.0,,0.0,0.0,
2025-08-14T23:03:34.674Z,2,GR86-057-57,0.8,-0.084,0.04,4.98,3.0,4036.0,0.0,0.0,
2025-08-14T23:03:34.716Z,2,GR86-057-57,0.7000000000000001,-0.101,0.018,4.99,3.0,,0.0,0.0,88.52
2025-08-14T23:03:34.759Z,2,GR86-057-57,0.7000000000000001,-0.104,0.034,4.99,3.0,,0.0,0.0,
2025-08-14T23:03:34.804Z,2,GR86-057-57,0.7000000000000001,-0.095,0.035,4.98,3.0,,0.0,0.0,
2025-08-14T23:03:34.847Z,2,GR86-057-57,0.7000000000000001,-0.077,0.012,4.99,3.0,,0.0,0.0,
2025-08-14T23:03:34.890Z,2,GR86-057-57,0.7000000000000001,-0.087,0.019,4.98,3.0,4027.0,0.0,0.0,
2025-08-14T23:03:34.976Z,2,GR86-057-57,0.7000000000000001,-0.087,0.023,4.99,3.0,,0.0,0.0,87.91
2025-08-14T23:03:35.019Z,2,GR86-057-57,0.7000000000000001,-0.099,0.021,4.99,3.0,,0.0,0.0,
2025-08-14T23:03:35.063Z,2,GR86-057-57,0.7000000000000001,-0.081,0.036,4.98,3.0,,0.0,0.0,
2025-08-14T23:03:35.107Z,2,GR86-057-57,0.7000000000000001,-0.069,0.018,4.99,3.0,3976.0,0.0,0.0,
2025-08-14T23:03:35.194Z,2,GR86-057-57,0.7000000000000001,-0.092,0.04,4.98,3.0,,0.0,0.0,87.33
2025-08-14T23:03:35.236Z,2,GR86-057-57,0.7000000000000001,-0.09,0.03,4.99,3.0,,0.0,0.0,
2025-08-14T23:03:35.279Z,2,GR86-057-57,0.7000000000000001,-0.071,0.026,5.0,3.0,,0.0,0.0,
2025-08-14T23:03:35.323Z,2,GR86-057-57,0.7000000000000001,-0.09,0.036,4.97,3.0,3962.0,0.0,0.0,
2025-08-14T23:03:35.366Z,2,GR86-057-57,0.7000000000000001,-0.095,0.01,4.99,3.0,,0.0,0.0,86.73
2025-08-14T23:03:35.409Z,2,GR86-057-57,0.6000000000000001,-0.102,0.028,4.99,3.0,,0.0,0.0,
2025-08-14T23:03:35.495Z,2,GR86-057-57,0.5,-0.087,0.017,4.99,3.0,,0.0,0.0,
2025-08-14T23:03:35.538Z,2,GR86-057-57,0.3,-0.073,0.02,5.0,3.0,3903.0,0.0,0.0,
2025-08-14T23:03:35.581Z,2,GR86-057-57,0.3,-0.097,0.018,4.98,3.0,,0.0,0.0,86.15
2025-08-14T23:03:35.624Z,2,GR86-057-57,0.3,-0.085,0.006,5.07,3.0,,0.0,0.0,
2025-08-14T23:03:35.667Z,2,GR86-057-57,0.3,-0.081,0.028,6.59,3.0,,0.0,0.0,
2025-08-14T23:03:35.710Z,2,GR86-057-57,0.3,-0.077,0.004,9.5,3.0,,0.0,0.0,
2025-08-14T23:03:35.754Z,2,GR86-057-57,0.3,-0.091,0.018,12.71,3.0,3891.0,0.0,0.0,
2025-08-14T23:03:35.797Z,2,GR86-057-57,0.3,-0.077,0.012,13.14,3.0,,0.0,0.0,85.58
2025-08-14T23:03:35.840Z,2,GR86-057-57,0.3,-0.07,0.028,14.47,3.0,,0.0,0.0,
2025-08-14T23:03:35.884Z,2,GR86-057-57,0.3,-0.099,0.018,17.900000000000002,3.0,,0.0,0.0,
2025-08-14T23:03:35.927Z,2,GR86-057-57,0.3,-0.076,0.028,19.32,3.0,,0.0,0.0,
2025-08-14T23:03:35.970Z,2,GR86-057-57,0.3,-0.042,0.011,21.05,3.0,3854.0,0.0,0.0,
2025-08-14T23:03:36.014Z,2,GR86-057-57,0.3,-0.054,0.029,21.96,3.0,,0.0,0.0,84.95
2025-08-14T23:03:36.056Z,2,GR86-057-57,0.3,0.094,0.017,22.03,3.0,,0.0,0.0,
2025-08-14T23:03:36.099Z,2,GR86-057-57,0.1,0.269,0.019,22.08,3.0,,0.0,0.0,
2025-08-14T23:03:36.143Z,2,GR86-057-57,-0.4,0.034,0.004,23.37,3.0,,0.0,0.0,
2025-08-14T23:03:36.185Z,2,GR86-057-57,-0.6000000000000001,-0.023,0.046,24.53,3.0,3839.0,0.0,0.0,
2025-08-14T23:03:36.228Z,2,GR86-057-57,-0.6000000000000001,0.084,0.01,24.56,3.0,,0.0,0.0,84.4
2025-08-14T23:03:36.271Z,2,GR86-057-57,-0.6000000000000001,0.186,0.017,24.29,3.0,,0.0,0.0,
2025-08-14T23:03:36.314Z,2,GR86-057-57,-0.7000000000000001,0.148,0.018,24.22,3.0,,0.0,0.0,
2025-08-14T23:03:36.357Z,2,GR86-057-57,-1.0,0.064,0.013,24.22,3.0,,0.0,0.0,
2025-08-14T23:03:36.400Z,2,GR86-057-57,-1.3,0.048,0.027,24.19,3.0,3889.0,0.0,0.0,
2025-08-14T23:03:36.444Z,2,GR86-057-57,-1.8,0.128,0.018,24.26,3.0,,0.0,0.0,84.01
2025-08-14T23:03:36.487Z,2,GR86-057-57,-1.8,0.137,0.0,24.52,3.0,,0.0,0.0,
2025-08-14T23:03:36.529Z,2,GR86-057-57,-1.8,0.095,0.011,24.65,3.0,,0.0,0.0,
2025-08-14T23:03:36.573Z,2,GR86-057-57,-2.2,0.082,-0.013,24.71,3.0,,0.0,0.0,
2025-08-14T23:03:36.615Z,2,GR86-057-57,-2.9000000000000004,0.111,0.001,24.84,3.0,3900.0,0.0,0.0,
2025-08-14T23:03:36.659Z,2,GR86-057-57,-3.4000000000000004,0.127,-0.014,26.05,3.0,,0.0,0.0,84.36
2025-08-14T23:03:36.704Z,2,GR86-057-57,-3.8,0.095,-0.013,31.63,3.0,,0.0,0.0,
2025-08-14T23:03:36.747Z,2,GR86-057-57,-3.8,0.103,-0.045,35.02,3.0,,0.0,0.0,
2025-08-14T23:03:36.790Z,2,GR86-057-57,-3.8,0.128,-0.024,36.3,3.0,,0.0,0.0,
2025-08-14T23:03:36.834Z,2,GR86-057-57,-3.7,0.164,-0.044,38.26,3.0,3932.0,0.0,0.0,
2025-08-14T23:03:36.877Z,2,GR86-057-57,-3.6,0.142,-0.022,42.54,3.0,,0.0,0.0,85.05
2025-08-14T23:03:36.920Z,2,GR86-057-57,-3.4000000000000004,0.139,-0.04,47.2,3.0,,0.0,0.0,
2025-08-14T23:03:36.964Z,2,GR86-057-57,-3.4000000000000004,0.158,-0.03,51.28,3.0,,0.0,0.0,
2025-08-14T23:03:37.007Z,2,GR86-057-57,-3.4000000000000004,0.177,-0.053,51.72,3.0,,0.0,0.0,
2025-08-14T23:03:37.050Z,2,GR86-057-57,-3.4000000000000004,0.165,-0.026,53.77,3.0,3986.0,0.0,0.0,
2025-08-14T23:03:37.094Z,2,GR86-057-57,-3.4000000000000004,0.167,-0.052,59.32,3.0,,0.0,0.0,85.81
2025-08-14T23:03:37.136Z,2,GR86-057-57,-3.3000000000000003,0.184,-0.031,70.29,3.0,,0.0,0.0,
2025-08-14T23:03:37.179Z,2,GR86-057-57,-3.3000000000000003,0.194,-0.039,83.19,3.0,,0.0,0.0,
2025-08-14T23:03:37.223Z,2,GR86-057-57,-3.3000000000000003,0.185,-0.031,100.01,3.0,,0.0,0.0,
2025-08-14T23:03:37.265Z,2,GR86-057-57,-3.3000000000000003,0.192,-0.036,99.9,3.0,4022.0,0.0,0.0,
2025-08-14T23:03:37.308Z,2,GR86-057-57,-3.3000000000000003,0.193,-0.017,99.52,3.0,,0.0,0.0,87.7
2025-08-14T23:03:37.351Z,2,GR86-057-57,-3.3000000000000003,0.18,-0.047,75.82000000000001,3.0,,0.0,0.0,
2025-08-14T23:03:37.394Z,2,GR86-057-57,-3.3000000000000003,0.194,-0.019,57.05,3.0,,0.0,0.0,
2025-08-14T23:03:37.438Z,2,GR86-057-57,-3.7,0.203,-0.032,49.1,3.0,,0.0,0.0,
2025-08-14T23:03:37.481Z,2,GR86-057-57,-3.8,0.201,-0.011,47.8,3.0,4119.0,0.0,0.0,
2025-08-14T23:03:37.524Z,2,GR86-057-57,-3.8,0.178,-0.012,47.65,3.0,,0.0,0.0,88.96000000000001
2025-08-14T23:03:37.567Z,2,GR86-057-57,-3.8,0.189,-0.032,47.62,3.0,,0.0,0.0,
2025-08-14T23:03:37.610Z,2,GR86-057-57,-3.8,0.185,-0.018,47.62,3.0,,0.0,0.0,
2025-08-14T23:03:37.654Z,2,GR86-057-57,-3.8,0.18,-0.043,47.53,3.0,,0.0,0.0,
2025-08-14T23:03:37.696Z,2,GR86-057-57,-3.8,0.168,-0.031,47.24,3.0,4181.0,0.0,0.0,
2025-08-14T23:03:37.739Z,2,GR86-057-57,-3.8,0.178,-0.04,44.16,3.0,,0.0,0.0,90.36
2025-08-14T23:03:37.783Z,2,GR86-057-57,-3.8,0.194,-0.026,39.13,3.0,,0.0,0.0,
2025-08-14T23:03:37.825Z,2,GR86-057-57,-3.8,0.173,-0.029,38.49,3.0,,0.0,0.0,
2025-08-14T23:03:37.868Z,2,GR86-057-57,-3.8,0.155,-0.031,37.52,3.0,,0.0,0.0,
2025-08-14T23:03:37.913Z,2,GR86-057-57,-3.8,0.158,-0.036,35.43,3.0,4306.0,0.0,0.0,
2025-08-14T23:03:37.957Z,2,GR86-057-57,-3.8,0.17,-0.026,31.51,3.0,,0.0,0.0,91.74
2025-08-14T23:03:38.000Z,2,GR86-057-57,-3.7,0.158,-0.028,29.11,3.0,,0.0,0.0,
2025-08-14T23:03:38.044Z,2,GR86-057-57,-3.3000000000000003,0.14,-0.041,28.52,3.0,,0.0,0.0,
2025-08-14T23:03:38.086Z,2,GR86-057-57,-3.0,0.122,-0.025,27.33,3.0,,0.0,0.0,
2025-08-14T23:03:38.130Z,2,GR86-057-57,-2.9000000000000004,0.116,-0.046,24.1,3.0,4336.0,0.0,0.0,
2025-08-14T23:03:38.174Z,2,GR86-057-57,-2.9000000000000004,0.119,-0.019,21.68,3.0,,0.0,0.0,93.09
2025-08-14T23:03:38.216Z,2,GR86-057-57,-2.9000000000000004,0.123,-0.038,21.67,3.0,,0.0,0.0,
2025-08-14T23:03:38.259Z,2,GR86-057-57,-2.9000000000000004,0.117,-0.012,20.99,3.0,,0.0,0.0,
2025-08-14T23:03:38.304Z,2,GR86-057-57,-2.8000000000000003,0.072,-0.017,4.16,3.0,,0.0,0.0,
2025-08-14T23:03:38.347Z,2,GR86-057-57,-2.6,0.013,-0.03,4.03,3.0,4396.0,0.0,0.0,
2025-08-14T23:03:38.390Z,2,GR86-057-57,-2.0,-0.074,0.004,3.8,3.0,,0.0,0.0,94.33
2025-08-14T23:03:38.434Z,2,GR86-057-57,-1.4,-0.157,-0.034,3.51,3.0,,0.0,0.0,
2025-08-14T23:03:38.477Z,2,GR86-057-57,-0.8,-0.31,-0.018,3.3000000000000003,3.0,,0.0,0.0,
2025-08-14T23:03:38.520Z,2,GR86-057-57,-0.4,-0.147,0.006,3.18,3.0,,0.0,0.0,
2025-08-14T23:03:38.564Z,2,GR86-057-57,-0.3,-0.047,-0.03,2.97,3.0,4419.0,0.0,0.0,
2025-08-14T23:03:38.607Z,2,GR86-057-57,-0.3,-0.059,0.019,2.91,3.0,,0.0,0.0,95.37
2025-08-14T23:03:38.650Z,2,GR86-057-57,-0.3,-0.086,-0.029,2.83,3.0,,0.0,0.0,
2025-08-14T23:03:38.694Z,2,GR86-057-57,-0.3,-0.194,-0.005,2.75,3.0,,0.0,0.0,
2025-08-14T23:03:38.736Z,2,GR86-057-57,-0.3,-0.156,0.009,2.66,3.0,,0.0,0.0,
2025-08-14T23:03:38.779Z,2,GR86-057-57,-0.3,-0.092,0.012,2.57,3.0,4428.0,0.0,0.0,
2025-08-14T23:03:38.823Z,2,GR86-057-57,-0.3,-0.089,0.01,2.44,3.0,,0.0,0.0,95.94
2025-08-14T23:03:38.866Z,2,GR86-057-57,-0.3,-0.124,0.006,2.37,3.0,,0.0,0.0,
2025-08-14T23:03:38.909Z,2,GR86-057-57,-0.3,-0.139,0.006,2.31,3.0,,0.0,0.0,
2025-08-14T23:03:38.995Z,2,GR86-057-57,-0.3,-0.105,0.008,2.3000000000000003,3.0,4297.0,0.0,0.0,
2025-08-14T23:03:39.038Z,2,GR86-057-57,-0.1,-0.097,-0.006,2.29,3.0,,0.0,0.0,95.18
2025-08-14T23:03:39.081Z,2,GR86-057-57,0.2,-0.127,0.009,2.29,3.0,,0.0,0.0,
2025-08-14T23:03:39.124Z,2,GR86-057-57,0.8,-0.114,-0.007,2.3000000000000003,3.0,,0.0,0.0,
2025-08-14T23:03:39.210Z,2,GR86-057-57,1.4,-0.105,0.02,2.31,3.0,4266.0,0.0,0.0,
2025-08-14T23:03:39.253Z,2,GR86-057-57,1.9,-0.123,0.022,2.31,3.0,,0.0,0.0,94.46
2025-08-14T23:03:39.296Z,2,GR86-057-57,2.1,-0.13,0.011,2.31,3.0,,0.0,0.0,
2025-08-14T23:03:39.339Z,2,GR86-057-57,2.1,-0.11,0.035,2.31,3.0,,0.0,0.0,
2025-08-14T23:03:39.383Z,2,GR86-057-57,1.9,-0.105,0.03,2.32,3.0,,0.0,0.0,
2025-08-14T23:03:39.425Z,2,GR86-057-57,1.2000000000000002,-0.107,0.022,2.34,3.0,4245.0,0.0,0.0,
2025-08-14T23:03:39.469Z,2,GR86-057-57,0.6000000000000001,-0.125,0.038,2.34,3.0,,0.0,0.0,93.74
2025-08-14T23:03:39.511Z,2,GR86-057-57,0.6000000000000001,-0.112,0.023,2.34,3.0,,0.0,0.0,
2025-08-14T23:03:39.554Z,2,GR86-057-57,0.6000000000000001,-0.109,0.03,2.34,3.0,,0.0,0.0,
2025-08-14T23:03:39.598Z,2,GR86-057-57,0.5,-0.103,0.012,18.56,3.0,,0.0,0.0,
2025-08-14T23:03:39.641Z,2,GR86-057-57,0.4,-0.114,0.028,22.07,3.0,4215.0,0.0,0.0,
2025-08-14T23:03:39.684Z,2,GR86-057-57,-0.3,-0.089,0.007,25.92,3.0,,0.0,0.0,93.01
2025-08-14T23:03:39.727Z,2,GR86-057-57,-0.7000000000000001,-0.044,0.012,26.22,3.0,,0.0,0.0,
2025-08-14T23:03:39.770Z,2,GR86-057-57,-1.3,-0.058,0.013,26.58,3.0,,0.0,0.0,
2025-08-14T23:03:39.814Z,2,GR86-057-57,-1.6,0.248,0.017,26.42,3.0,,0.0,0.0,
2025-08-14T23:03:39.856Z,2,GR86-057-57,-1.6,0.283,-0.003,26.49,3.0,4202.0,0.0,0.0,
2025-08-14T23:03:39.899Z,2,GR86-057-57,-1.6,0.067,0.011,27.69,3.0,,0.0,0.0,92.24
2025-08-14T23:03:39.943Z,2,GR86-057-57,-1.7000000000000002,-0.016,0.02,28.37,3.0,,0.0,0.0,
2025-08-14T23:03:39.985Z,2,GR86-057-57,-1.7000000000000002,0.13,-0.007,27.94,3.0,,0.0,0.0,
2025-08-14T23:03:40.028Z,2,GR86-057-57,-1.7000000000000002,0.209,0.011,27.57,3.0,,0.0,0.0,
2025-08-14T23:03:40.071Z,2,GR86-057-57,-1.7000000000000002,0.145,-0.016,27.27,3.0,4244.0,0.0,0.0,
2025-08-14T23:03:40.114Z,2,GR86-057-57,-1.7000000000000002,0.05,-0.002,27.12,3.0,,0.0,0.0,91.0
2025-08-14T23:03:40.157Z,2,GR86-057-57,-1.8,0.068,-0.015,26.4,3.0,,0.0,0.0,
2025-08-14T23:03:40.200Z,2,GR86-057-57,-2.0,0.138,0.012,24.14,3.0,,0.0,0.0,
2025-08-14T23:03:40.244Z,2,GR86-057-57,-2.0,0.131,-0.005,22.88,3.0,,0.0,0.0,
2025-08-14T23:03:40.286Z,2,GR86-057-57,-2.0,0.076,-0.003,21.8,3.0,4079.0,0.0,0.0,
2025-08-14T23:03:40.329Z,2,GR86-057-57,-2.0,0.065,-0.021,21.81,3.0,,0.0,0.0,91.71
2025-08-14T23:03:40.374Z,2,GR86-057-57,-2.0,0.087,-0.005,20.83,3.0,,0.0,0.0,
2025-08-14T23:03:40.416Z,2,GR86-057-57,-2.0,0.092,-0.009,21.01,3.0,,0.0,0.0,
2025-08-14T23:03:40.459Z,2,GR86-057-57,-2.1,0.078,-0.016,21.59,3.0,,0.0,0.0,
2025-08-14T23:03:40.504Z,2,GR86-057-57,-2.4000000000000004,0.056,-0.009,21.65,3.0,4249.0,0.0,0.0,
2025-08-14T23:03:40.547Z,2,GR86-057-57,-2.8000000000000003,0.079,-0.034,21.72,3.0,,0.0,0.0,92.51
2025-08-14T23:03:40.590Z,2,GR86-057-57,-3.1,0.08,-0.01,21.8,3.0,,0.0,0.0,
2025-08-14T23:03:40.634Z,2,GR86-057-57,-3.3000000000000003,0.085,-0.035,21.88,3.0,,0.0,0.0,
2025-08-14T23:03:40.676Z,2,GR86-057-57,-3.4000000000000004,0.07,-0.016,21.96,3.0,,0.0,0.0,
2025-08-14T23:03:40.719Z,2,GR86-057-57,-3.8,0.078,-0.036,22.01,3.0,4321.0,0.0,0.0,
2025-08-14T23:03:40.765Z,2,GR86-057-57,-4.4,0.088,-0.042,22.04,3.0,,0.0,0.0,93.26
2025-08-14T23:03:40.807Z,2,GR86-057-57,-4.6000000000000005,0.078,-0.04,21.03,3.0,,0.0,0.0,
2025-08-14T23:03:40.850Z,2,GR86-057-57,-4.6000000000000005,0.082,-0.061,18.53,3.0,,0.0,0.0,
2025-08-14T23:03:40.894Z,2,GR86-057-57,-4.6000000000000005,0.078,-0.049,17.46,3.0,,0.0,0.0,
2025-08-14T23:03:40.936Z,2,GR86-057-57,-4.6000000000000005,0.073,-0.069,18.33,3.0,4337.0,0.0,0.0,
2025-08-14T23:03:40.979Z,2,GR86-057-57,-4.6000000000000005,0.046,-0.056,19.46,3.0,,0.0,0.0,93.82
2025-08-14T23:03:41.023Z,2,GR86-057-57,-4.5,0.024,-0.07,20.78,3.0,,0.0,0.0,
2025-08-14T23:03:41.066Z,2,GR86-057-57,-4.4,0.043,-0.072,21.06,3.0,,0.0,0.0,
2025-08-14T23:03:41.109Z,2,GR86-057-57,-4.4,0.049,-0.062,21.08,3.0,,0.0,0.0,
2025-08-14T23:03:41.153Z,2,GR86-057-57,-4.4,0.079,-0.065,21.02,3.0,4390.0,0.0,0.0,
2025-08-14T23:03:41.195Z,2,GR86-057-57,-4.4,0.075,-0.059,20.85,3.0,,0.0,0.0,94.46
2025-08-14T23:03:41.238Z,2,GR86-057-57,-4.4,0.077,-0.077,20.27,3.0,,0.0,0.0,
2025-08-14T23:03:41.281Z,2,GR86-057-57,-4.4,0.065,-0.06,19.73,3.0,,0.0,0.0,
2025-08-14T23:03:41.324Z,2,GR86-057-57,-4.3,0.06,-0.068,19.54,3.0,,0.0,0.0,
2025-08-14T23:03:41.367Z,2,GR86-057-57,-4.1000000000000005,0.066,-0.045,19.39,3.0,4417.0,0.0,0.0,
2025-08-14T23:03:41.410Z,2,GR86-057-57,-4.0,0.052,-0.061,19.35,3.0,,0.0,0.0,95.09
2025-08-14T23:03:41.454Z,2,GR86-057-57,-3.9,0.054,-0.04,19.31,3.0,,0.0,0.0,
2025-08-14T23:03:41.497Z,2,GR86-057-57,-3.8,0.049,-0.051,19.31,3.0,,0.0,0.0,
2025-08-14T23:03:41.540Z,2,GR86-057-57,-3.8,0.066,-0.053,19.34,3.0,,0.0,0.0,
2025-08-14T23:03:41.584Z,2,GR86-057-57,-3.6,0.051,-0.043,20.0,3.0,4405.0,0.0,0.0,
2025-08-14T23:03:41.627Z,2,GR86-057-57,-3.4000000000000004,0.049,-0.049,21.03,3.0,,0.0,0.0,95.52
2025-08-14T23:03:41.670Z,2,GR86-057-57,-3.2,0.049,-0.047,21.62,3.0,,0.0,0.0,
2025-08-14T23:03:41.714Z,2,GR86-057-57,-3.0,0.063,-0.057,21.68,3.0,,0.0,0.0,
2025-08-14T23:03:41.757Z,2,GR86-057-57,-2.8000000000000003,0.071,-0.05,21.65,3.0,,0.0,0.0,
2025-08-14T23:03:41.800Z,2,GR86-057-57,-2.7,0.081,-0.051,21.38,3.0,4430.0,0.0,0.0,
2025-08-14T23:03:41.844Z,2,GR86-057-57,-2.5,0.076,-0.051,20.82,3.0,,0.0,0.0,96.03
2025-08-14T23:03:41.887Z,2,GR86-057-57,-2.0,0.079,-0.028,20.03,3.0,,0.0,0.0,
2025-08-14T23:03:41.930Z,2,GR86-057-57,-1.3,0.068,-0.044,19.42,3.0,,0.0,0.0,
2025-08-14T23:03:41.974Z,2,GR86-057-57,-0.5,0.07,-0.018,19.2,3.0,,0.0,0.0,
2025-08-14T23:03:42.016Z,2,GR86-057-57,-0.1,0.065,-0.026,18.85,3.0,4482.0,0.0,0.0,
2025-08-14T23:03:42.059Z,2,GR86-057-57,-0.1,0.053,-0.009,18.78,3.0,,0.0,0.0,96.46
2025-08-14T23:03:42.104Z,2,GR86-057-57,-0.1,0.041,0.0,18.71,3.0,,0.0,0.0,
2025-08-14T23:03:42.147Z,2,GR86-057-57,-0.1,0.044,-0.015,18.71,3.0,,0.0,0.0,
2025-08-14T23:03:42.190Z,2,GR86-057-57,-0.2,0.049,0.01,18.64,3.0,,0.0,0.0,
2025-08-14T23:03:42.234Z,2,GR86-057-57,-0.2,0.047,-0.004,17.14,3.0,4499.0,0.0,0.0,
2025-08-14T23:03:42.276Z,2,GR86-057-57,-0.2,0.041,0.008,7.72,3.0,,0.0,0.0,96.96
2025-08-14T23:03:42.319Z,2,GR86-057-57,-0.2,0.034,-0.004,6.44,3.0,,0.0,0.0,
2025-08-14T23:03:42.363Z,2,GR86-057-57,-0.2,-0.001,-0.007,3.86,3.0,,0.0,0.0,
2025-08-14T23:03:42.406Z,2,GR86-057-57,-0.2,-0.064,0.015,3.58,3.0,,0.0,0.0,
2025-08-14T23:03:42.449Z,2,GR86-057-57,-0.2,-0.06,0.004,3.3200000000000003,3.0,4513.0,0.0,0.0,
2025-08-14T23:03:42.493Z,2,GR86-057-57,-0.2,-0.217,0.001,3.34,3.0,,0.0,0.0,97.54
2025-08-14T23:03:42.535Z,2,GR86-057-57,-0.2,-0.275,-0.002,3.45,3.0,,0.0,0.0,
2025-08-14T23:03:42.578Z,2,GR86-057-57,-0.2,-0.11,0.016,3.54,3.0,,0.0,0.0,
2025-08-14T23:03:42.621Z,2,GR86-057-57,-0.3,-0.039,-0.02,3.93,3.0,,0.0,0.0,
2025-08-14T23:03:42.664Z,2,GR86-057-57,-0.4,-0.062,-0.001,4.67,3.0,4505.0,0.0,0.0,
2025-08-14T23:03:42.707Z,2,GR86-057-57,-0.4,-0.164,-0.009,4.7700000000000005,3.0,,0.0,0.0,98.29
2025-08-14T23:03:42.750Z,2,GR86-057-57,-0.4,-0.175,0.001,4.87,3.0,,0.0,0.0,
2025-08-14T23:03:42.794Z,2,GR86-057-57,-0.4,-0.112,0.021,4.8,3.0,,0.0,0.0,
2025-08-14T23:03:42.836Z,2,GR86-057-57,-0.4,-0.083,-0.017,4.39,3.0,,0.0,0.0,
2025-08-14T23:03:42.879Z,2,GR86-057-57,-0.4,-0.086,0.011,4.08,3.0,4319.0,0.0,0.0,
2025-08-14T23:03:42.923Z,2,GR86-057-57,-0.4,-0.138,-0.003,3.5500000000000003,3.0,,0.0,0.0,97.68
2025-08-14T23:03:42.965Z,2,GR86-057-57,-0.4,-0.13,-0.019,3.39,3.0,,0.0,0.0,
2025-08-14T23:03:43.008Z,2,GR86-057-57,-0.5,-0.116,0.003,3.42,3.0,,0.0,0.0,
2025-08-14T23:03:43.051Z,2,GR86-057-57,-0.6000000000000001,-0.104,-0.01,3.42,3.0,,0.0,0.0,
2025-08-14T23:03:43.094Z,2,GR86-057-57,-0.7000000000000001,-0.116,-0.003,3.42,3.0,4376.0,0.0,0.0,
2025-08-14T23:03:43.138Z,2,GR86-057-57,-0.7000000000000001,-0.118,-0.016,3.42,3.0,,0.0,0.0,96.96
2025-08-14T23:03:43.181Z,2,GR86-057-57,-0.8,-0.115,-0.007,3.4,3.0,,0.0,0.0,
2025-08-14T23:03:43.224Z,2,GR86-057-57,-1.2000000000000002,-0.119,-0.006,3.01,3.0,,0.0,0.0,
2025-08-14T23:03:43.267Z,2,GR86-057-57,-1.3,-0.119,-0.027,2.89,3.0,,0.0,0.0,
2025-08-14T23:03:43.310Z,2,GR86-057-57,-1.3,-0.124,-0.008,2.82,3.0,4353.0,0.0,0.0,
2025-08-14T23:03:43.354Z,2,GR86-057-57,-1.3,-0.119,-0.024,2.75,3.0,,0.0,0.0,96.28
2025-08-14T23:03:43.396Z,2,GR86-057-57,-1.4,-0.118,-0.01,2.66,3.0,,0.0,0.0,
2025-08-14T23:03:43.439Z,2,GR86-057-57,-1.6,-0.114,-0.02,2.5,3.0,,0.0,0.0,
2025-08-14T23:03:43.483Z,2,GR86-057-57,-1.9,-0.108,-0.021,2.36,3.0,,0.0,0.0,
2025-08-14T23:03:43.525Z,2,GR86-057-57,-2.4000000000000004,-0.12,0.001,2.31,3.0,4351.0,0.0,0.0,
2025-08-14T23:03:43.611Z,2,GR86-057-57,-3.0,-0.113,-0.026,2.28,3.0,,0.0,0.0,95.57
2025-08-14T23:03:43.654Z,2,GR86-057-57,-4.4,-0.105,-0.044,2.28,3.0,,0.0,0.0,
2025-08-14T23:03:43.697Z,2,GR86-057-57,-5.300000000000001,-0.123,-0.048,2.28,3.0,,0.0,0.0,
2025-08-14T23:03:43.740Z,2,GR86-057-57,-6.300000000000001,-0.116,-0.069,2.28,3.0,4295.0,0.0,0.0,
2025-08-14T23:03:43.826Z,2,GR86-057-57,-9.1,-0.125,-0.106,2.28,3.0,,2.105,2.075,94.9
2025-08-14T23:03:43.869Z,2,GR86-057-57,-9.6,-0.13,-0.121,2.29,3.0,,2.075,2.075,
2025-08-14T23:03:43.913Z,2,GR86-057-57,-9.7,-0.142,-0.141,2.31,3.0,,2.4250000000000003,2.4250000000000003,
2025-08-14T23:03:43.957Z,2,GR86-057-57,-9.7,-0.141,-0.145,2.31,3.0,4288.0,3.005,3.005,
2025-08-14T23:03:44.000Z,2,GR86-057-57,-9.6,-0.156,-0.142,2.31,3.0,,4.15,4.305,94.24
2025-08-14T23:03:44.044Z,2,GR86-057-57,-9.4,-0.168,-0.157,2.32,3.0,,6.575,6.485,
2025-08-14T23:03:44.086Z,2,GR86-057-57,-9.4,-0.208,-0.131,2.31,3.0,,8.67,8.575000000000001,
2025-08-14T23:03:44.129Z,2,GR86-057-57,-9.6,-0.217,-0.158,2.34,3.0,,10.21,10.025,
2025-08-14T23:03:44.173Z,2,GR86-057-57,-10.4,-0.251,-0.13,2.34,3.0,4256.0,11.55,11.52,
2025-08-14T23:03:44.259Z,2,GR86-057-57,-12.0,-0.257,-0.168,2.35,3.0,,12.65,12.5,93.53
2025-08-14T23:03:44.304Z,2,GR86-057-57,-16.1,-0.325,-0.224,2.38,3.0,,14.725,14.635,
2025-08-14T23:03:44.347Z,2,GR86-057-57,-16.900000000000002,-0.304,-0.224,2.4,3.0,,14.3,14.3,
2025-08-14T23:03:44.390Z,2,GR86-057-57,-17.5,-0.305,-0.244,2.41,3.0,4185.0,14.3,14.39,
2025-08-14T23:03:44.434Z,2,GR86-057-57,-18.1,-0.309,-0.247,2.44,3.0,,12.21,12.59,92.62
2025-08-14T23:03:44.477Z,2,GR86-057-57,-19.1,-0.255,-0.275,2.44,3.0,,6.655,7.37,
2025-08-14T23:03:44.520Z,2,GR86-057-57,-21.0,-0.164,-0.271,2.46,3.0,,2.075,2.67,
2025-08-14T23:03:44.564Z,2,GR86-057-57,-25.4,-0.141,-0.312,2.46,3.0,,0.0,0.0,
2025-08-14T23:03:44.607Z,2,GR86-057-57,-28.6,-0.131,-0.367,2.46,3.0,4138.0,0.0,0.0,
2025-08-14T23:03:44.650Z,2,GR86-057-57,-30.700000000000003,-0.117,-0.378,2.47,3.0,,0.0,0.0,91.14
2025-08-14T23:03:44.694Z,2,GR86-057-57,-32.0,-0.109,-0.436,2.48,3.0,,0.0,0.0,
2025-08-14T23:03:44.736Z,2,GR86-057-57,-33.1,-0.135,-0.437,2.5,3.0,,0.0,0.0,
2025-08-14T23:03:44.779Z,2,GR86-057-57,-34.0,-0.139,-0.48,2.5,3.0,,0.0,0.0,
2025-08-14T23:03:44.823Z,2,GR86-057-57,-34.4,-0.133,-0.504,2.5,3.0,4037.0,0.0,0.0,
2025-08-14T23:03:44.865Z,2,GR86-057-57,-34.4,-0.115,-0.54,2.5,3.0,,0.0,0.0,89.22
2025-08-14T23:03:44.908Z,2,GR86-057-57,-34.7,-0.114,-0.527,2.5,3.0,,0.0,0.0,
2025-08-14T23:03:44.951Z,2,GR86-057-57,-35.1,-0.128,-0.56,2.5,3.0,,0.0,0.0,
2025-08-14T23:03:44.994Z,2,GR86-057-57,-35.7,-0.132,-0.554,3.18,3.0,,0.0,0.0,
2025-08-14T23:03:45.038Z,2,GR86-057-57,-36.6,-0.132,-0.5710000000000001,4.74,3.0,3993.0,0.0,0.0,
2025-08-14T23:03:45.081Z,2,GR86-057-57,-37.4,-0.123,-0.552,6.48,3.0,,0.0,0.0,88.31
2025-08-14T23:03:45.124Z,2,GR86-057-57,-38.6,-0.119,-0.5760000000000001,12.05,3.0,,0.0,0.0,
2025-08-14T23:03:45.167Z,2,GR86-057-57,-39.7,-0.125,-0.5730000000000001,18.6,3.0,,0.0,0.0,
2025-08-14T23:03:45.210Z,2,GR86-057-57,-41.8,-0.109,-0.603,19.03,3.0,,0.0,0.0,
2025-08-14T23:03:45.253Z,2,GR86-057-57,-44.3,-0.06,-0.614,18.49,3.0,3972.0,0.0,0.0,
2025-08-14T23:03:45.296Z,2,GR86-057-57,-46.1,-0.078,-0.643,18.56,3.0,,0.0,0.0,87.65
2025-08-14T23:03:45.339Z,2,GR86-057-57,-45.8,-0.075,-0.644,19.06,3.0,,0.0,0.0,
2025-08-14T23:03:45.383Z,2,GR86-057-57,-42.400000000000006,0.018,-0.661,19.22,3.0,,0.0,0.0,
2025-08-14T23:03:45.425Z,2,GR86-057-57,-39.5,0.198,-0.636,19.55,3.0,,0.0,0.0,
2025-08-14T23:03:45.469Z,2,GR86-057-57,-36.7,0.067,-0.65,21.91,3.0,3963.0,0.0,0.0,
2025-08-14T23:03:45.513Z,2,GR86-057-57,-34.800000000000004,-0.035,-0.578,21.94,3.0,,0.0,0.0,86.28
2025-08-14T23:03:45.555Z,2,GR86-057-57,-34.5,-0.005,-0.5750000000000001,21.98,3.0,,0.0,0.0,
2025-08-14T23:03:45.599Z,2,GR86-057-57,-35.2,0.095,-0.5630000000000001,21.58,3.0,,0.0,0.0,
2025-08-14T23:03:45.643Z,2,GR86-057-57,-38.5,0.101,-0.533,20.88,3.0,,0.0,0.0,
2025-08-14T23:03:45.685Z,2,GR86-057-57,-41.2,0.057,-0.549,20.18,3.0,3964.0,0.0,0.0,
2025-08-14T23:03:45.728Z,2,GR86-057-57,-43.1,0.033,-0.537,14.55,3.0,,0.0,0.0,86.55
2025-08-14T23:03:45.771Z,2,GR86-057-57,-44.5,0.056,-0.552,7.66,3.0,,0.0,0.0,
2025-08-14T23:03:45.814Z,2,GR86-057-57,-45.2,0.058,-0.5680000000000001,6.74,3.0,,0.0,0.0,
2025-08-14T23:03:45.857Z,2,GR86-057-57,-45.2,0.003,-0.583,6.67,3.0,,0.0,0.0,
2025-08-14T23:03:45.900Z,2,GR86-057-57,-44.8,-0.061,-0.593,7.01,3.0,3877.0,0.0,0.0,
2025-08-14T23:03:45.944Z,2,GR86-057-57,-44.2,-0.064,-0.618,7.68,3.0,,0.0,0.0,86.43
2025-08-14T23:03:45.986Z,2,GR86-057-57,-43.6,-0.076,-0.623,15.39,3.0,,0.0,0.0,
2025-08-14T23:03:46.030Z,2,GR86-057-57,-42.5,-0.06,-0.653,19.22,3.0,,0.0,0.0,
2025-08-14T23:03:46.074Z,2,GR86-057-57,-41.1,-0.065,-0.637,21.09,3.0,,0.0,0.0,
2025-08-14T23:03:46.116Z,2,GR86-057-57,-39.6,-0.062,-0.652,21.49,3.0,3948.0,0.0,0.0,
2025-08-14T23:03:46.159Z,2,GR86-057-57,-38.6,-0.072,-0.625,21.62,3.0,,0.0,0.0,86.99
2025-08-14T23:03:46.204Z,2,GR86-057-57,-37.5,0.068,-0.638,21.75,3.0,,0.0,0.0,
2025-08-14T23:03:46.247Z,2,GR86-057-57,-37.0,0.142,-0.598,21.8,3.0,,0.0,0.0,
2025-08-14T23:03:46.290Z,2,GR86-057-57,-36.9,0.08,-0.632,21.88,3.0,,0.0,0.0,
2025-08-14T23:03:46.334Z,2,GR86-057-57,-37.5,0.015,-0.5730000000000001,21.93,3.0,3954.0,0.0,0.0,
2025-08-14T23:03:46.376Z,2,GR86-057-57,-39.0,0.045,-0.585,22.01,3.0,,0.0,0.0,87.72
2025-08-14T23:03:46.419Z,2,GR86-057-57,-40.7,0.078,-0.5700000000000001,22.04,3.0,,0.0,0.0,
2025-08-14T23:03:46.463Z,2,GR86-057-57,-42.0,0.076,-0.561,22.09,3.0,,0.0,0.0,
2025-08-14T23:03:46.507Z,2,GR86-057-57,-42.0,0.06,-0.55,22.09,3.0,,0.0,0.0,
2025-08-14T23:03:46.550Z,2,GR86-057-57,-41.2,0.064,-0.557,22.1,3.0,3999.0,0.0,0.0,
2025-08-14T23:03:46.594Z,2,GR86-057-57,-40.2,0.064,-0.55,22.09,3.0,,0.0,0.0,87.11
2025-08-14T23:03:46.636Z,2,GR86-057-57,-39.2,0.067,-0.562,22.09,3.0,,0.0,0.0,
2025-08-14T23:03:46.679Z,2,GR86-057-57,-38.400000000000006,0.064,-0.551,22.09,3.0,,0.0,0.0,
2025-08-14T23:03:46.723Z,2,GR86-057-57,-38.400000000000006,0.06,-0.543,22.08,3.0,,0.0,0.0,
2025-08-14T23:03:46.766Z,2,GR86-057-57,-39.0,0.072,-0.558,22.07,3.0,4033.0,0.0,0.0,
2025-08-14T23:03:46.809Z,2,GR86-057-57,-40.400000000000006,0.051,-0.5680000000000001,22.06,3.0,,0.0,0.0,87.3
2025-08-14T23:03:46.853Z,2,GR86-057-57,-42.900000000000006,0.071,-0.535,22.06,3.0,,0.0,0.0,
2025-08-14T23:03:46.895Z,2,GR86-057-57,-45.3,0.055,-0.6,21.99,3.0,,0.0,0.0,
2025-08-14T23:03:46.938Z,2,GR86-057-57,-46.6,0.063,-0.5680000000000001,20.15,3.0,,0.0,0.0,
2025-08-14T23:03:46.981Z,2,GR86-057-57,-46.0,0.071,-0.58,19.63,3.0,4075.0,0.0,0.0,
2025-08-14T23:03:47.024Z,2,GR86-057-57,-42.7,0.056,-0.616,21.64,3.0,,0.0,0.0,87.88
2025-08-14T23:03:47.067Z,2,GR86-057-57,-41.900000000000006,0.028,-0.614,21.74,3.0,,0.0,0.0,
2025-08-14T23:03:47.110Z,2,GR86-057-57,-42.5,0.063,-0.632,21.84,3.0,,0.0,0.0,
2025-08-14T23:03:47.154Z,2,GR86-057-57,-44.1,0.048,-0.613,21.91,3.0,,0.0,0.0,
2025-08-14T23:03:47.197Z,2,GR86-057-57,-45.8,0.075,-0.63,21.98,3.0,4128.0,0.0,0.0,
2025-08-14T23:03:47.240Z,2,GR86-057-57,-47.2,0.044,-0.617,22.02,3.0,,0.0,0.0,88.47
2025-08-14T23:03:47.284Z,2,GR86-057-57,-47.5,0.047,-0.656,22.06,3.0,,0.0,0.0,
2025-08-14T23:03:47.327Z,2,GR86-057-57,-47.5,0.065,-0.667,22.08,3.0,,0.0,0.0,
2025-08-14T23:03:47.370Z,2,GR86-057-57,-47.8,0.059,-0.665,22.09,3.0,,0.0,0.0,
2025-08-14T23:03:47.414Z,2,GR86-057-57,-49.2,0.058,-0.673,21.4,3.0,4157.0,0.0,0.0,
2025-08-14T23:03:47.456Z,2,GR86-057-57,-50.900000000000006,0.057,-0.657,17.39,3.0,,0.0,0.0,88.94
2025-08-14T23:03:47.499Z,2,GR86-057-57,-51.5,0.049,-0.683,9.7,3.0,,0.0,0.0,
2025-08-14T23:03:47.543Z,2,GR86-057-57,-51.3,0.012,-0.6990000000000001,19.21,3.0,,0.0,0.0,
2025-08-14T23:03:47.585Z,2,GR86-057-57,-51.0,-0.018,-0.713,21.74,3.0,,0.0,0.0,
2025-08-14T23:03:47.628Z,2,GR86-057-57,-50.900000000000006,-0.038,-0.719,21.87,3.0,4151.0,0.0,0.0,
2025-08-14T23:03:47.671Z,2,GR86-057-57,-50.7,0.011,-0.743,22.0,3.0,,0.0,0.0,89.4
2025-08-14T23:03:47.714Z,2,GR86-057-57,-50.0,0.03,-0.722,22.06,3.0,,0.0,0.0,
2025-08-14T23:03:47.757Z,2,GR86-057-57,-48.3,0.068,-0.743,22.11,3.0,,0.0,0.0,
2025-08-14T23:03:47.800Z,2,GR86-057-57,-46.900000000000006,0.052,-0.728,22.12,3.0,,0.0,0.0,
2025-08-14T23:03:47.844Z,2,GR86-057-57,-46.5,0.05,-0.719,22.26,3.0,4163.0,0.0,0.0,
2025-08-14T23:03:47.887Z,2,GR86-057-57,-46.5,0.057,-0.714,23.03,3.0,,0.0,0.0,89.95
2025-08-14T23:03:47.929Z,2,GR86-057-57,-46.6,0.063,-0.7000000000000001,23.78,3.0,,0.0,0.0,
2025-08-14T23:03:47.973Z,2,GR86-057-57,-47.0,0.063,-0.706,24.92,3.0,,0.0,0.0,
2025-08-14T23:03:48.015Z,2,GR86-057-57,-47.400000000000006,0.069,-0.682,25.36,3.0,,0.0,0.0,
2025-08-14T23:03:48.059Z,2,GR86-057-57,-47.400000000000006,0.063,-0.6980000000000001,25.45,3.0,4195.0,0.0,0.0,
2025-08-14T23:03:48.104Z,2,GR86-057-57,-47.400000000000006,0.057,-0.687,25.49,3.0,,0.0,0.0,91.5
2025-08-14T23:03:48.147Z,2,GR86-057-57,-47.400000000000006,0.083,-0.685,25.5,3.0,,0.0,0.0,
2025-08-14T23:03:48.190Z,2,GR86-057-57,-47.400000000000006,0.071,-0.667,25.48,3.0,,0.0,0.0,
2025-08-14T23:03:48.234Z,2,GR86-057-57,-47.400000000000006,0.079,-0.664,25.49,3.0,,0.0,0.0,
2025-08-14T23:03:48.276Z,2,GR86-057-57,-47.400000000000006,0.062,-0.655,25.49,3.0,4201.0,0.0,0.0,
2025-08-14T23:03:48.319Z,2,GR86-057-57,-46.6,0.073,-0.674,25.6,3.0,,0.0,0.0,91.02
2025-08-14T23:03:48.363Z,2,GR86-057-57,-44.400000000000006,0.077,-0.679,27.81,3.0,,0.0,0.0,
2025-08-14T23:03:48.406Z,2,GR86-057-57,-43.2,0.086,-0.638,29.25,3.0,,0.0,0.0,
2025-08-14T23:03:48.449Z,2,GR86-057-57,-42.3,0.091,-0.656,29.68,3.0,,0.0,0.0,
2025-08-14T23:03:48.493Z,2,GR86-057-57,-41.400000000000006,0.095,-0.608,30.86,3.0,4255.0,0.0,0.0,
2025-08-14T23:03:48.535Z,2,GR86-057-57,-40.900000000000006,0.114,-0.646,34.11,3.0,,0.0,0.0,91.55
2025-08-14T23:03:48.578Z,2,GR86-057-57,-40.8,0.099,-0.616,39.4,3.0,,0.0,0.0,
2025-08-14T23:03:48.621Z,2,GR86-057-57,-40.8,0.112,-0.665,43.36,3.0,,0.0,0.0,
2025-08-14T23:03:48.664Z,2,GR86-057-57,-40.8,0.14,-0.631,46.09,3.0,,0.0,0.0,
2025-08-14T23:03:48.707Z,2,GR86-057-57,-40.7,0.161,-0.622,47.38,3.0,4298.0,0.0,0.0,
2025-08-14T23:03:48.794Z,2,GR86-057-57,-38.7,0.158,-0.606,50.08,3.0,,0.0,0.0,92.09
2025-08-14T23:03:48.836Z,2,GR86-057-57,-37.4,0.163,-0.591,51.27,3.0,,0.0,0.0,
2025-08-14T23:03:48.879Z,2,GR86-057-57,-36.1,0.187,-0.5740000000000001,51.61,3.0,,0.0,0.0,
2025-08-14T23:03:48.923Z,2,GR86-057-57,-34.7,0.206,-0.556,51.63,3.0,4379.0,0.0,0.0,
2025-08-14T23:03:48.965Z,2,GR86-057-57,-34.300000000000004,0.181,-0.543,51.73,3.0,,0.0,0.0,92.81
2025-08-14T23:03:49.008Z,2,GR86-057-57,-34.300000000000004,0.174,-0.542,52.4,3.0,,0.0,0.0,
2025-08-14T23:03:49.051Z,2,GR86-057-57,-34.300000000000004,0.189,-0.527,52.91,3.0,,0.0,0.0,
2025-08-14T23:03:49.094Z,2,GR86-057-57,-34.300000000000004,0.212,-0.515,53.21,3.0,,0.0,0.0,
2025-08-14T23:03:49.138Z,2,GR86-057-57,-34.2,0.206,-0.509,53.85,3.0,4412.0,0.0,0.0,
2025-08-14T23:03:49.181Z,2,GR86-057-57,-33.800000000000004,0.187,-0.504,54.5,3.0,,0.0,0.0,93.81
2025-08-14T23:03:49.224Z,2,GR86-057-57,-32.6,0.186,-0.514,54.73,3.0,,0.0,0.0,
2025-08-14T23:03:49.267Z,2,GR86-057-57,-31.700000000000003,0.213,-0.499,54.57,3.0,,0.0,0.0,
2025-08-14T23:03:49.310Z,2,GR86-057-57,-30.700000000000003,0.225,-0.496,54.36,3.0,,0.0,0.0,
2025-08-14T23:03:49.354Z,2,GR86-057-57,-29.700000000000003,0.202,-0.476,54.32,3.0,4461.0,0.0,0.0,
2025-08-14T23:03:49.396Z,2,GR86-057-57,-29.0,0.19,-0.481,54.28,3.0,,0.0,0.0,95.05
2025-08-14T23:03:49.439Z,2,GR86-057-57,-28.5,0.2,-0.466,54.3,3.0,,0.0,0.0,
2025-08-14T23:03:49.483Z,2,GR86-057-57,-28.1,0.206,-0.452,54.23,3.0,,0.0,0.0,
2025-08-14T23:03:49.525Z,2,GR86-057-57,-27.700000000000003,0.212,-0.455,54.17,3.0,,0.0,0.0,
2025-08-14T23:03:49.568Z,2,GR86-057-57,-27.4,0.202,-0.436,54.120000000000005,3.0,4527.0,0.0,0.0,
2025-08-14T23:03:49.611Z,2,GR86-057-57,-27.200000000000003,0.204,-0.436,54.14,3.0,,0.0,0.0,96.38
2025-08-14T23:03:49.654Z,2,GR86-057-57,-27.0,0.203,-0.414,54.33,3.0,,0.0,0.0,
2025-08-14T23:03:49.697Z,2,GR86-057-57,-26.6,0.195,-0.431,55.0,3.0,,0.0,0.0,
2025-08-14T23:03:49.740Z,2,GR86-057-57,-26.0,0.215,-0.433,55.29,3.0,,0.0,0.0,
2025-08-14T23:03:49.784Z,2,GR86-057-57,-24.9,0.208,-0.434,55.74,3.0,4616.0,0.0,0.0,
2025-08-14T23:03:49.826Z,2,GR86-057-57,-24.200000000000003,0.206,-0.433,55.97,3.0,,0.0,0.0,97.78
2025-08-14T23:03:49.869Z,2,GR86-057-57,-23.6,0.206,-0.413,56.58,3.0,,0.0,0.0,
2025-08-14T23:03:49.913Z,2,GR86-057-57,-23.0,0.196,-0.408,58.03,3.0,,0.0,0.0,
2025-08-14T23:03:49.957Z,2,GR86-057-57,-22.3,0.209,-0.414,59.370000000000005,3.0,,0.0,0.0,
2025-08-14T23:03:50.000Z,2,GR86-057-57,-21.700000000000003,0.198,-0.398,63.31,3.0,4661.0,0.0,0.0,
2025-08-14T23:03:50.044Z,2,GR86-057-57,-21.0,0.207,-0.389,72.32000000000001,3.0,,0.0,0.0,99.22
2025-08-14T23:03:50.086Z,2,GR86-057-57,-20.8,0.22,-0.369,79.54,3.0,,0.0,0.0,
2025-08-14T23:03:50.129Z,2,GR86-057-57,-20.5,0.2,-0.356,95.29,3.0,,0.0,0.0,
2025-08-14T23:03:50.174Z,2,GR86-057-57,-20.4,0.197,-0.359,99.58,3.0,,0.0,0.0,
2025-08-14T23:03:50.216Z,2,GR86-057-57,-20.1,0.197,-0.337,99.86,3.0,4750.0,0.0,0.0,
2025-08-14T23:03:50.259Z,2,GR86-057-57,-19.6,0.209,-0.341,99.86,3.0,,0.0,0.0,100.75
2025-08-14T23:03:50.304Z,2,GR86-057-57,-18.2,0.215,-0.33,99.87,3.0,,0.0,0.0,
2025-08-14T23:03:50.347Z,2,GR86-057-57,-17.1,0.202,-0.307,99.86,3.0,,0.0,0.0,
2025-08-14T23:03:50.390Z,2,GR86-057-57,-16.0,0.193,-0.316,99.86,3.0,,0.0,0.0,
2025-08-14T23:03:50.434Z,2,GR86-057-57,-15.0,0.211,-0.282,99.86,3.0,4812.0,0.0,0.0,
2025-08-14T23:03:50.477Z,2,GR86-057-57,-14.2,0.206,-0.293,99.86,3.0,,0.0,0.0,102.19
2025-08-14T23:03:50.520Z,2,GR86-057-57,-13.9,0.217,-0.262,99.87,3.0,,0.0,0.0,
2025-08-14T23:03:50.564Z,2,GR86-057-57,-13.8,0.202,-0.254,99.87,3.0,,0.0,0.0,
2025-08-14T23:03:50.607Z,2,GR86-057-57,-13.8,0.187,-0.253,99.86,3.0,,0.0,0.0,
2025-08-14T23:03:50.650Z,2,GR86-057-57,-13.8,0.215,-0.241,99.86,3.0,4875.0,0.0,0.0,
2025-08-14T23:03:50.694Z,2,GR86-057-57,-13.7,0.209,-0.228,99.87,3.0,,0.0,0.0,103.59
2025-08-14T23:03:50.736Z,2,GR86-057-57,-13.4,0.208,-0.239,99.86,3.0,,0.0,0.0,
2025-08-14T23:03:50.823Z,2,GR86-057-57,-13.0,0.201,-0.221,99.87,3.0,,0.0,0.0,
2025-08-14T23:03:50.865Z,2,GR86-057-57,-12.0,0.212,-0.233,99.87,3.0,4909.0,0.0,0.0,
2025-08-14T23:03:50.909Z,2,GR86-057-57,-11.8,0.213,-0.205,99.9,3.0,,0.0,0.0,106.45
2025-08-14T23:03:50.953Z,2,GR86-057-57,-11.3,0.183,-0.227,99.89,3.0,,0.0,0.0,
2025-08-14T23:03:50.995Z,2,GR86-057-57,-10.7,0.206,-0.205,99.87,3.0,,0.0,0.0,
2025-08-14T23:03:51.038Z,2,GR86-057-57,-10.0,0.216,-0.191,99.87,3.0,,0.0,0.0,
2025-08-14T23:03:51.081Z,2,GR86-057-57,-9.3,0.209,-0.195,99.9,3.0,5007.0,0.0,0.0,
2025-08-14T23:03:51.124Z,2,GR86-057-57,-8.6,0.198,-0.178,99.89,3.0,,0.0,0.0,107.88
2025-08-14T23:03:51.167Z,2,GR86-057-57,-8.3,0.203,-0.156,99.88,3.0,,0.0,0.0,
2025-08-14T23:03:51.210Z,2,GR86-057-57,-8.0,0.209,-0.16,99.9,3.0,,0.0,0.0,
2025-08-14T23:03:51.253Z,2,GR86-057-57,-7.7,0.216,-0.135,99.87,3.0,,0.0,0.0,
2025-08-14T23:03:51.296Z,2,GR86-057-57,-7.6,0.205,-0.124,99.9,3.0,5067.0,0.0,0.0,
2025-08-14T23:03:51.339Z,2,GR86-057-57,-7.5,0.194,-0.139,99.9,3.0,,0.0,0.0,109.32
2025-08-14T23:03:51.383Z,2,GR86-057-57,-6.7,0.204,-0.12,99.9,3.0,,0.0,0.0,
2025-08-14T23:03:51.425Z,2,GR86-057-57,-6.5,0.208,-0.096,99.9,3.0,,0.0,0.0,
2025-08-14T23:03:51.468Z,2,GR86-057-57,-6.300000000000001,0.2,-0.108,99.9,3.0,,0.0,0.0,
2025-08-14T23:03:51.511Z,2,GR86-057-57,-6.300000000000001,0.213,-0.09,99.91,3.0,5204.0,0.0,0.0,
2025-08-14T23:03:51.554Z,2,GR86-057-57,-6.1000000000000005,0.196,-0.086,99.9,3.0,,0.0,0.0,110.78
2025-08-14T23:03:51.597Z,2,GR86-057-57,-5.9,0.186,-0.103,99.91,3.0,,0.0,0.0,
2025-08-14T23:03:51.640Z,2,GR86-057-57,-5.5,0.207,-0.075,99.9,3.0,,0.0,0.0,
2025-08-14T23:03:51.684Z,2,GR86-057-57,-4.9,0.218,-0.068,99.91,3.0,,0.0,0.0,
2025-08-14T23:03:51.727Z,2,GR86-057-57,-4.800000000000001,0.19,-0.074,99.9,3.0,5243.0,0.0,0.0,
2025-08-14T23:03:51.770Z,2,GR86-057-57,-4.7,0.196,-0.061,99.9,3.0,,0.0,0.0,112.31
2025-08-14T23:03:51.814Z,2,GR86-057-57,-4.6000000000000005,0.205,-0.043,99.9,3.0,,0.0,0.0,
2025-08-14T23:03:51.856Z,2,GR86-057-57,-4.4,0.196,-0.066,99.9,3.0,,0.0,0.0,
2025-08-14T23:03:51.899Z,2,GR86-057-57,-4.2,0.207,-0.054,99.9,3.0,,0.0,0.0,
2025-08-14T23:03:51.943Z,2,GR86-057-57,-4.1000000000000005,0.207,-0.045,99.91,3.0,5305.0,0.0,0.0,
2025-08-14T23:03:51.985Z,2,GR86-057-57,-4.1000000000000005,0.196,-0.056,99.91,3.0,,0.0,0.0,113.78
2025-08-14T23:03:52.028Z,2,GR86-057-57,-4.1000000000000005,0.187,-0.058,99.9,3.0,,0.0,0.0,
2025-08-14T23:03:52.071Z,2,GR86-057-57,-3.6,0.21,-0.028,99.9,3.0,,0.0,0.0,
2025-08-14T23:03:52.114Z,2,GR86-057-57,-2.7,0.207,-0.056,99.92,3.0,,0.0,0.0,
2025-08-14T23:03:52.157Z,2,GR86-057-57,-2.0,0.194,-0.047,99.89,3.0,5382.0,0.0,0.0,
2025-08-14T23:03:52.200Z,2,GR86-057-57,-1.7000000000000002,0.195,-0.027,99.9,3.0,,0.0,0.0,115.25
2025-08-14T23:03:52.244Z,2,GR86-057-57,-1.5,0.207,-0.016,99.92,3.0,,0.0,0.0,
2025-08-14T23:03:52.286Z,2,GR86-057-57,-1.0,0.199,-0.02,99.89,3.0,,0.0,0.0,
2025-08-14T23:03:52.329Z,2,GR86-057-57,-0.6000000000000001,0.207,-0.004,99.9,3.0,,0.0,0.0,
2025-08-14T23:03:52.373Z,2,GR86-057-57,0.1,0.2,0.035,99.91,3.0,5459.0,0.0,0.0,
2025-08-14T23:03:52.415Z,2,GR86-057-57,0.7000000000000001,0.192,0.015,99.9,3.0,,0.0,0.0,116.76
2025-08-14T23:03:52.458Z,2,GR86-057-57,0.9,0.204,0.042,99.91,3.0,,0.0,0.0,
2025-08-14T23:03:52.504Z,2,GR86-057-57,0.9,0.211,0.045,99.9,3.0,,0.0,0.0,
2025-08-14T23:03:52.547Z,2,GR86-057-57,0.8,0.192,0.056,99.91,3.0,,0.0,0.0,
2025-08-14T23:03:52.590Z,2,GR86-057-57,0.2,0.186,0.039,99.89,3.0,5559.0,0.0,0.0,
2025-08-14T23:03:52.634Z,2,GR86-057-57,-0.1,0.201,0.062,99.9,3.0,,0.0,0.0,118.29
2025-08-14T23:03:52.676Z,2,GR86-057-57,-0.1,0.207,0.079,99.91,3.0,,0.0,0.0,
2025-08-14T23:03:52.719Z,2,GR86-057-57,-0.1,0.194,0.052,99.91,3.0,,0.0,0.0,
2025-08-14T23:03:52.765Z,2,GR86-057-57,-0.1,0.185,0.047,99.93,3.0,,0.0,0.0,
2025-08-14T23:03:52.807Z,2,GR86-057-57,-0.4,0.192,0.06,99.9,3.0,5596.0,0.0,0.0,
2025-08-14T23:03:52.850Z,2,GR86-057-57,-0.6000000000000001,0.2,0.074,99.9,3.0,,0.0,0.0,119.84
2025-08-14T23:03:52.894Z,2,GR86-057-57,-0.8,0.208,0.044,99.92,3.0,,0.0,0.0,
2025-08-14T23:03:52.936Z,2,GR86-057-57,-1.0,0.204,0.045,99.91,3.0,,0.0,0.0,
2025-08-14T23:03:52.979Z,2,GR86-057-57,-1.0,0.192,0.051,99.9,3.0,,0.0,0.0,
2025-08-14T23:03:53.023Z,2,GR86-057-57,-0.7000000000000001,0.196,0.042,99.91,3.0,5669.0,0.0,0.0,
2025-08-14T23:03:53.066Z,2,GR86-057-57,-0.7000000000000001,0.186,0.037,99.91,3.0,,0.0,0.0,121.42
2025-08-14T23:03:53.109Z,2,GR86-057-57,-0.7000000000000001,0.192,0.022,99.9,3.0,,0.0,0.0,
2025-08-14T23:03:53.153Z,2,GR86-057-57,-0.8,0.206,0.038,99.9,3.0,,0.0,0.0,
2025-08-14T23:03:53.195Z,2,GR86-057-57,-1.0,0.197,0.015,99.9,3.0,,0.0,0.0,
2025-08-14T23:03:53.238Z,2,GR86-057-57,-1.2000000000000002,0.19,0.007,99.89,3.0,5747.0,0.0,0.0,
2025-08-14T23:03:53.281Z,2,GR86-057-57,-1.3,0.191,0.03,99.9,3.0,,0.0,0.0,122.99
2025-08-14T23:03:53.324Z,2,GR86-057-57,-1.5,0.024,0.026,99.91,4.0,,0.0,0.0,
2025-08-14T23:03:53.367Z,2,GR86-057-57,-1.9,-0.084,0.062,99.9,4.0,,0.0,0.0,
2025-08-14T23:03:53.410Z,2,GR86-057-57,-1.8,0.359,0.001,99.89,4.0,,0.0,0.0,
2025-08-14T23:03:53.454Z,2,GR86-057-57,-1.3,0.371,-0.056,99.93,4.0,5861.0,0.0,0.0,
2025-08-14T23:03:53.497Z,2,GR86-057-57,-1.8,0.067,0.039,99.9,4.0,,0.0,0.0,124.55
2025-08-14T23:03:53.540Z,2,GR86-057-57,-2.9000000000000004,0.032,0.019,99.9,4.0,,0.0,0.0,
2025-08-14T23:03:53.584Z,2,GR86-057-57,-3.0,0.249,-0.023,99.89,4.0,,0.0,0.0,
2025-08-14T23:03:53.627Z,2,GR86-057-57,-3.0,0.203,-0.004,99.89,4.0,,0.0,0.0,
2025-08-14T23:03:53.670Z,2,GR86-057-57,-3.0,0.11,-0.031,99.91,4.0,5889.0,0.0,0.0,
2025-08-14T23:03:53.714Z,2,GR86-057-57,-3.1,0.126,-0.017,99.91,4.0,,0.0,0.0,127.49
2025-08-14T23:03:53.757Z,2,GR86-057-57,-3.1,0.171,-0.027,99.9,4.0,,0.0,0.0,
2025-08-14T23:03:53.800Z,2,GR86-057-57,-3.0,0.18,-0.028,99.9,4.0,,0.0,0.0,
2025-08-14T23:03:53.844Z,2,GR86-057-57,-2.9000000000000004,0.141,-0.034,99.91,4.0,,0.0,0.0,
2025-08-14T23:03:53.887Z,2,GR86-057-57,-2.5,0.152,-0.028,99.9,4.0,4861.0,0.0,0.0,
2025-08-14T23:03:53.930Z,2,GR86-057-57,-2.3000000000000003,0.158,-0.026,99.89,4.0,,0.0,0.0,128.95
2025-08-14T23:03:53.974Z,2,GR86-057-57,-2.3000000000000003,0.155,-0.034,99.91,4.0,,0.0,0.0,
2025-08-14T23:03:54.016Z,2,GR86-057-57,-2.3000000000000003,0.151,-0.024,99.9,4.0,,0.0,0.0,
2025-08-14T23:03:54.059Z,2,GR86-057-57,-2.3000000000000003,0.149,-0.007,99.89,4.0,,0.0,0.0,
2025-08-14T23:03:54.104Z,2,GR86-057-57,-2.2,0.156,-0.001,99.9,4.0,5126.0,0.0,0.0,
2025-08-14T23:03:54.147Z,2,GR86-057-57,-2.1,0.147,-0.014,99.91,4.0,,0.0,0.0,130.46
2025-08-14T23:03:54.190Z,2,GR86-057-57,-2.6,0.144,-0.023,99.8,4.0,,0.0,0.0,
2025-08-14T23:03:54.234Z,2,GR86-057-57,-3.0,0.144,-0.003,97.04,4.0,,0.0,0.0,
2025-08-14T23:03:54.276Z,2,GR86-057-57,-3.2,0.147,0.001,96.87,4.0,,0.0,0.0,
2025-08-14T23:03:54.319Z,2,GR86-057-57,-3.2,0.133,-0.024,97.06,4.0,5178.0,0.0,0.0,
2025-08-14T23:03:54.363Z,2,GR86-057-57,-3.2,0.151,-0.029,97.05,4.0,,0.0,0.0,131.97
2025-08-14T23:03:54.406Z,2,GR86-057-57,-3.2,0.138,-0.047,95.91,4.0,,0.0,0.0,
2025-08-14T23:03:54.449Z,2,GR86-057-57,-3.2,0.146,-0.035,91.96,4.0,,0.0,0.0,
2025-08-14T23:03:54.493Z,2,GR86-057-57,-3.1,0.145,-0.017,91.08,4.0,,0.0,0.0,
2025-08-14T23:03:54.578Z,2,GR86-057-57,-2.7,0.15,-0.044,91.7,4.0,5271.0,0.0,0.0,133.49
2025-08-14T23:03:54.621Z,2,GR86-057-57,-2.7,0.153,-0.034,84.95,4.0,,0.0,0.0,
2025-08-14T23:03:54.664Z,2,GR86-057-57,-2.7,0.147,-0.038,66.47,4.0,,0.0,0.0,
2025-08-14T23:03:54.707Z,2,GR86-057-57,-2.7,0.147,-0.021,60.55,4.0,,0.0,0.0,
2025-08-14T23:03:54.750Z,2,GR86-057-57,-2.9000000000000004,0.156,-0.024,57.370000000000005,4.0,5333.0,0.0,0.0,
2025-08-14T23:03:54.794Z,2,GR86-057-57,-3.5,0.141,-0.037,53.34,4.0,,0.0,0.0,135.04
2025-08-14T23:03:54.836Z,2,GR86-057-57,-4.1000000000000005,0.137,-0.044,48.73,4.0,,0.0,0.0,
2025-08-14T23:03:54.879Z,2,GR86-057-57,-4.3,0.133,-0.02,43.97,4.0,,0.0,0.0,
2025-08-14T23:03:54.923Z,2,GR86-057-57,-4.6000000000000005,0.131,-0.049,42.85,4.0,,0.0,0.0,
2025-08-14T23:03:54.965Z,2,GR86-057-57,-4.800000000000001,0.136,-0.034,43.19,4.0,5349.0,0.0,0.0,
2025-08-14T23:03:55.008Z,2,GR86-057-57,-4.9,0.104,-0.05,43.48,4.0,,0.0,0.0,136.56
2025-08-14T23:03:55.051Z,2,GR86-057-57,-5.0,0.083,-0.087,43.4,4.0,,0.0,0.0,
2025-08-14T23:03:55.094Z,2,GR86-057-57,-5.6000000000000005,0.094,-0.079,41.34,4.0,,0.0,0.0,
2025-08-14T23:03:55.137Z,2,GR86-057-57,-6.1000000000000005,0.113,-0.069,38.65,4.0,,0.0,0.0,
2025-08-14T23:03:55.180Z,2,GR86-057-57,-6.9,0.11,-0.082,37.95,4.0,5409.0,0.0,0.0,
2025-08-14T23:03:55.224Z,2,GR86-057-57,-7.7,0.1,-0.081,37.8,4.0,,0.0,0.0,138.05
2025-08-14T23:03:55.267Z,2,GR86-057-57,-7.7,0.094,-0.119,36.51,4.0,,0.0,0.0,
2025-08-14T23:03:55.310Z,2,GR86-057-57,-7.800000000000001,0.088,-0.158,35.17,4.0,,0.0,0.0,
2025-08-14T23:03:55.354Z,2,GR86-057-57,-7.800000000000001,0.081,-0.177,34.730000000000004,4.0,,0.0,0.0,
2025-08-14T23:03:55.396Z,2,GR86-057-57,-7.9,0.085,-0.173,34.230000000000004,4.0,5493.0,0.0,0.0,
2025-08-14T23:03:55.439Z,2,GR86-057-57,-7.9,0.086,-0.161,34.12,4.0,,0.0,0.0,139.66
2025-08-14T23:03:55.483Z,2,GR86-057-57,-7.9,0.091,-0.164,34.13,4.0,,0.0,0.0,
2025-08-14T23:03:55.525Z,2,GR86-057-57,-7.800000000000001,0.084,-0.17,34.12,4.0,,0.0,0.0,
2025-08-14T23:03:55.568Z,2,GR86-057-57,-7.5,0.067,-0.193,34.26,4.0,,0.0,0.0,
2025-08-14T23:03:55.611Z,2,GR86-057-57,-7.1000000000000005,0.072,-0.198,34.43,4.0,5506.0,0.0,0.0,
2025-08-14T23:03:55.654Z,2,GR86-057-57,-6.9,0.09,-0.175,34.76,4.0,,0.0,0.0,140.84
2025-08-14T23:03:55.697Z,2,GR86-057-57,-6.800000000000001,0.097,-0.143,35.21,4.0,,0.0,0.0,
2025-08-14T23:03:55.740Z,2,GR86-057-57,-6.800000000000001,0.079,-0.15,35.33,4.0,,0.0,0.0,
2025-08-14T23:03:55.784Z,2,GR86-057-57,-6.9,0.097,-0.12,35.1,4.0,,0.0,0.0,
2025-08-14T23:03:55.826Z,2,GR86-057-57,-7.1000000000000005,0.093,-0.142,34.800000000000004,4.0,5568.0,0.0,0.0,
2025-08-14T23:03:55.869Z,2,GR86-057-57,-7.2,0.075,-0.138,34.81,4.0,,0.0,0.0,142.07
2025-08-14T23:03:55.913Z,2,GR86-057-57,-7.300000000000001,0.071,-0.137,34.800000000000004,4.0,,0.0,0.0,
2025-08-14T23:03:55.957Z,2,GR86-057-57,-7.7,0.082,-0.114,34.46,4.0,,0.0,0.0,
2025-08-14T23:03:56.000Z,2,GR86-057-57,-8.0,0.099,-0.127,33.71,4.0,,0.0,0.0,
2025-08-14T23:03:56.044Z,2,GR86-057-57,-8.1,0.082,-0.126,33.21,4.0,5573.0,0.0,0.0,
2025-08-14T23:03:56.086Z,2,GR86-057-57,-8.1,0.082,-0.13,33.31,4.0,,0.0,0.0,143.11
2025-08-14T23:03:56.130Z,2,GR86-057-57,-8.1,0.066,-0.161,33.4,4.0,,0.0,0.0,
2025-08-14T23:03:56.174Z,2,GR86-057-57,-8.1,0.055,-0.181,33.480000000000004,4.0,,0.0,0.0,
2025-08-14T23:03:56.216Z,2,GR86-057-57,-8.1,0.065,-0.168,33.18,4.0,,0.0,0.0,
2025-08-14T23:03:56.259Z,2,GR86-057-57,-8.1,0.087,-0.148,28.75,4.0,5612.0,0.0,0.0,
2025-08-14T23:03:56.304Z,2,GR86-057-57,-8.1,0.055,-0.164,5.0200000000000005,4.0,,0.0,0.0,145.17000000000002
2025-08-14T23:03:56.347Z,2,GR86-057-57,-8.1,0.05,-0.145,4.22,4.0,,0.0,0.0,
2025-08-14T23:03:56.390Z,2,GR86-057-57,-8.1,-0.108,-0.128,3.92,4.0,,0.0,0.0,
2025-08-14T23:03:56.434Z,2,GR86-057-57,-7.9,-0.18,-0.147,3.61,4.0,,0.0,0.0,
2025-08-14T23:03:56.477Z,2,GR86-057-57,-7.6,-0.363,-0.202,3.36,4.0,5682.0,0.0,0.0,
2025-08-14T23:03:56.520Z,2,GR86-057-57,-7.2,-0.155,-0.148,3.16,4.0,,0.0,0.0,146.11
2025-08-14T23:03:56.564Z,2,GR86-057-57,-7.0,-0.131,-0.206,2.95,4.0,,0.0,0.0,
2025-08-14T23:03:56.607Z,2,GR86-057-57,-6.9,-0.161,-0.166,2.91,4.0,,4.835,5.11,
2025-08-14T23:03:56.650Z,2,GR86-057-57,-6.800000000000001,-0.25,-0.161,2.85,4.0,,9.905,10.055,
2025-08-14T23:03:56.694Z,2,GR86-057-57,-6.800000000000001,-0.277,-0.136,2.82,4.0,5717.0,15.03,15.0,
2025-08-14T23:03:56.736Z,2,GR86-057-57,-6.800000000000001,-0.324,-0.132,2.76,4.0,,18.115,18.02,146.82
2025-08-14T23:03:56.779Z,2,GR86-057-57,-6.7,-0.376,-0.157,2.7,4.0,,20.145,20.145,
2025-08-14T23:03:56.823Z,2,GR86-057-57,-6.300000000000001,-0.487,-0.149,2.59,4.0,,24.555,24.31,
2025-08-14T23:03:56.865Z,2,GR86-057-57,-6.0,-0.513,-0.165,2.53,4.0,,27.775,27.5,
2025-08-14T23:03:56.908Z,2,GR86-057-57,-5.800000000000001,-0.522,-0.153,2.5,4.0,5630.0,30.365,29.985,
2025-08-14T23:03:56.951Z,2,GR86-057-57,-5.5,-0.557,-0.14,2.46,4.0,,32.335,32.045,146.28
2025-08-14T23:03:56.994Z,2,GR86-057-57,-5.1000000000000005,-0.594,-0.093,2.43,4.0,,34.0,33.68,
2025-08-14T23:03:57.038Z,2,GR86-057-57,-5.0,-0.651,-0.124,2.41,4.0,,35.525,35.145,
2025-08-14T23:03:57.081Z,2,GR86-057-57,-4.9,-0.681,-0.128,2.4,4.0,,37.175,36.67,
2025-08-14T23:03:57.124Z,2,GR86-057-57,-4.6000000000000005,-0.725,-0.118,2.37,4.0,5517.0,40.59,39.995,
2025-08-14T23:03:57.167Z,2,GR86-057-57,-4.6000000000000005,-0.754,-0.126,2.34,4.0,,42.65,42.055,144.05
2025-08-14T23:03:57.210Z,2,GR86-057-57,-4.6000000000000005,-0.799,-0.109,2.34,4.0,,44.16,43.55,
2025-08-14T23:03:57.253Z,2,GR86-057-57,-4.6000000000000005,-0.846,-0.12,2.34,4.0,,45.46,45.065,
2025-08-14T23:03:57.296Z,2,GR86-057-57,-4.6000000000000005,-0.848,-0.133,2.34,4.0,,46.115,45.66,
2025-08-14T23:03:57.339Z,2,GR86-057-57,-4.6000000000000005,-0.854,-0.139,2.34,4.0,5294.0,45.78,45.4,
2025-08-14T23:03:57.383Z,2,GR86-057-57,-3.9,-0.834,-0.129,2.35,4.0,,44.53,44.5,140.37
2025-08-14T23:03:57.425Z,2,GR86-057-57,-3.4000000000000004,-0.794,-0.117,2.35,4.0,,41.4,42.3,
2025-08-14T23:03:57.469Z,2,GR86-057-57,-3.2,-0.79,-0.115,2.37,4.0,,37.645,39.125,
2025-08-14T23:03:57.513Z,2,GR86-057-57,-3.2,-0.75,-0.138,2.37,4.0,,34.685,35.71,
2025-08-14T23:03:57.555Z,2,GR86-057-57,-3.2,-0.649,-0.143,2.37,4.0,5109.0,31.145,32.335,
2025-08-14T23:03:57.598Z,2,GR86-057-57,-2.6,-0.586,-0.124,2.37,4.0,,28.245,29.53,135.66
2025-08-14T23:03:57.641Z,2,GR86-057-57,-1.7000000000000002,-0.593,-0.11,2.37,4.0,,26.81,27.59,
2025-08-14T23:03:57.684Z,2,GR86-057-57,-0.1,-0.577,-0.078,2.37,4.0,,24.86,25.575,
2025-08-14T23:03:57.727Z,2,GR86-057-57,-0.1,-0.541,-0.078,2.37,4.0,,22.905,23.62,
2025-08-14T23:03:57.770Z,2,GR86-057-57,-0.1,-0.487,-0.05,2.39,4.0,4891.0,20.935,21.87,
2025-08-14T23:03:57.814Z,2,GR86-057-57,-0.4,-0.46,-0.044,2.38,4.0,,20.235,20.63,129.95
2025-08-14T23:03:57.856Z,2,GR86-057-57,-0.6000000000000001,-0.501,-0.046,2.4,4.0,,20.935,20.965,
2025-08-14T23:03:57.899Z,2,GR86-057-57,-0.8,-0.518,-0.017,2.4,4.0,,22.125,22.37,
2025-08-14T23:03:57.943Z,2,GR86-057-57,-1.0,-0.534,-0.001,2.41,4.0,,26.4,26.2,
2025-08-14T23:03:57.985Z,2,GR86-057-57,-1.7000000000000002,-0.591,0.013,2.41,4.0,4745.0,28.81,28.52,
2025-08-14T23:03:58.028Z,2,GR86-057-57,-2.1,-0.599,-0.001,2.43,4.0,,29.3,29.33,125.77
2025-08-14T23:03:58.071Z,2,GR86-057-57,-2.1,-0.614,0.005,2.43,4.0,,29.33,29.65,
2025-08-14T23:03:58.114Z,2,GR86-057-57,-2.1,-0.62,-0.017,2.44,4.0,,28.965,28.995,
2025-08-14T23:03:58.157Z,2,GR86-057-57,-2.1,-0.615,-0.024,2.44,4.0,,28.245,28.645,
2025-08-14T23:03:58.200Z,2,GR86-057-57,-2.1,-0.6,-0.024,2.44,4.0,4657.0,28.215,28.55,
2025-08-14T23:03:58.244Z,2,GR86-057-57,-2.1,-0.58,-0.023,2.47,4.0,,28.645,28.87,122.62
2025-08-14T23:03:58.286Z,2,GR86-057-57,-2.1,-0.607,-0.035,2.47,4.0,,28.645,28.645,
2025-08-14T23:03:58.330Z,2,GR86-057-57,-2.1,-0.628,-0.045,2.47,4.0,,28.995,29.33,
2025-08-14T23:03:58.373Z,2,GR86-057-57,-2.1,-0.622,-0.051,33.13,4.0,,28.34,28.615,
2025-08-14T23:03:58.415Z,2,GR86-057-57,-2.1,-0.5680000000000001,-0.054,78.43,4.0,4487.0,25.33,26.11,
2025-08-14T23:03:58.458Z,2,GR86-057-57,-2.1,-0.487,-0.051,99.95,4.0,,20.725,21.775,119.07
2025-08-14T23:03:58.501Z,2,GR86-057-57,-2.1,-0.378,-0.06,91.93,4.0,,15.625,16.59,
2025-08-14T23:03:58.544Z,2,GR86-057-57,-2.1,-0.24,-0.085,6.18,3.0,,11.43,11.87,
2025-08-14T23:03:58.587Z,2,GR86-057-57,-2.1,-0.4,-0.037,4.12,3.0,,11.4,11.87,
2025-08-14T23:03:58.631Z,2,GR86-057-57,-2.3000000000000003,-0.449,-0.027,3.83,3.0,4339.0,11.58,11.87,
2025-08-14T23:03:58.674Z,2,GR86-057-57,-2.3000000000000003,-0.318,-0.084,3.54,3.0,,11.87,12.3,115.38
2025-08-14T23:03:58.716Z,2,GR86-057-57,-2.4000000000000004,-0.265,-0.012,3.36,3.0,,12.055,12.21,
2025-08-14T23:03:58.759Z,2,GR86-057-57,-2.7,-0.294,-0.041,3.18,3.0,,12.145,12.33,
2025-08-14T23:03:58.804Z,2,GR86-057-57,-2.9000000000000004,-0.388,-0.043,2.95,3.0,,12.56,12.895,
2025-08-14T23:03:58.847Z,2,GR86-057-57,-3.2,-0.349,-0.035,2.88,3.0,4479.0,13.305,13.52,
2025-08-14T23:03:58.890Z,2,GR86-057-57,-4.3,-0.323,-0.053,2.78,3.0,,13.855,13.95,111.68
2025-08-14T23:03:58.934Z,2,GR86-057-57,-6.2,-0.34,-0.044,2.72,3.0,,14.605,14.85,
2025-08-14T23:03:58.976Z,2,GR86-057-57,-8.3,-0.39,-0.066,2.69,3.0,,16.22,16.28,
2025-08-14T23:03:59.063Z,2,GR86-057-57,-10.5,-0.459,-0.129,2.5,3.0,4996.0,21.685,21.655,
2025-08-14T23:03:59.107Z,2,GR86-057-57,-11.1,-0.451,-0.141,2.45,3.0,,21.99,21.99,107.64
2025-08-14T23:03:59.150Z,2,GR86-057-57,-12.0,-0.485,-0.171,2.4,3.0,,21.99,22.4,
2025-08-14T23:03:59.194Z,2,GR86-057-57,-12.7,-0.498,-0.179,2.37,3.0,,21.47,21.655,
2025-08-14T23:03:59.236Z,2,GR86-057-57,-12.8,-0.458,-0.21,2.35,3.0,,19.275,19.96,
2025-08-14T23:03:59.279Z,2,GR86-057-57,-12.8,-0.401,-0.218,2.34,3.0,4888.0,15.215,16.055,
2025-08-14T23:03:59.323Z,2,GR86-057-57,-12.8,-0.342,-0.242,2.34,3.0,,10.805,11.43,105.21
2025-08-14T23:03:59.366Z,2,GR86-057-57,-12.8,-0.286,-0.256,2.34,3.0,,9.34,9.935,
2025-08-14T23:03:59.409Z,2,GR86-057-57,-13.1,-0.262,-0.246,2.34,3.0,,8.09,8.425,
2025-08-14T23:03:59.453Z,2,GR86-057-57,-14.5,-0.243,-0.266,2.34,3.0,,7.325,7.8,
2025-08-14T23:03:59.495Z,2,GR86-057-57,-16.1,-0.253,-0.275,2.35,3.0,4753.0,6.835,7.205,
2025-08-14T23:03:59.538Z,2,GR86-057-57,-18.4,-0.243,-0.294,2.37,3.0,,6.655,7.0200000000000005,102.33
2025-08-14T23:03:59.581Z,2,GR86-057-57,-21.0,-0.239,-0.311,2.34,3.0,,6.805,7.205,
2025-08-14T23:03:59.624Z,2,GR86-057-57,-22.3,-0.233,-0.334,2.37,3.0,,6.655,6.96,
2025-08-14T23:03:59.667Z,2,GR86-057-57,-22.4,-0.24,-0.361,2.37,3.0,,6.99,7.205,
2025-08-14T23:03:59.710Z,2,GR86-057-57,-22.4,-0.239,-0.365,2.37,3.0,4534.0,6.625,6.96,
2025-08-14T23:03:59.754Z,2,GR86-057-57,-22.4,-0.234,-0.379,2.37,3.0,,6.715,7.05,100.49
2025-08-14T23:03:59.840Z,2,GR86-057-57,-22.4,-0.242,-0.397,2.37,3.0,,6.99,7.17,
2025-08-14T23:03:59.884Z,2,GR86-057-57,-23.8,-0.291,-0.43,2.37,3.0,,12.45,12.39,
2025-08-14T23:03:59.927Z,2,GR86-057-57,-26.6,-0.343,-0.423,2.4,3.0,4504.0,14.635,14.605,
2025-08-14T23:03:59.970Z,2,GR86-057-57,-28.4,-0.373,-0.468,2.4,3.0,,15.72,15.84,99.18
2025-08-14T23:04:00.014Z,2,GR86-057-57,-30.1,-0.363,-0.467,2.4,3.0,,15.72,15.78,
2025-08-14T23:04:00.056Z,2,GR86-057-57,-30.0,-0.375,-0.503,2.41,3.0,,15.75,16.405,
2025-08-14T23:04:00.099Z,2,GR86-057-57,-29.0,-0.377,-0.512,2.41,3.0,,15.275,15.72,
2025-08-14T23:04:00.143Z,2,GR86-057-57,-27.3,-0.372,-0.53,2.43,3.0,4442.0,13.43,13.765,
2025-08-14T23:04:00.228Z,2,GR86-057-57,-26.1,-0.323,-0.541,2.44,3.0,,11.995,12.835,97.87
2025-08-14T23:04:00.272Z,2,GR86-057-57,-26.4,-0.316,-0.533,2.47,3.0,,12.085,12.27,
2025-08-14T23:04:00.314Z,2,GR86-057-57,-27.6,-0.334,-0.499,2.47,3.0,,12.115,12.21,
2025-08-14T23:04:00.357Z,2,GR86-057-57,-29.4,-0.322,-0.523,2.48,3.0,4292.0,12.21,12.56,
2025-08-14T23:04:00.400Z,2,GR86-057-57,-30.0,-0.333,-0.521,2.47,3.0,,12.175,12.21,95.7
2025-08-14T23:04:00.444Z,2,GR86-057-57,-31.3,-0.342,-0.538,2.5,3.0,,11.52,12.175,
2025-08-14T23:04:00.487Z,2,GR86-057-57,-32.5,-0.318,-0.54,2.49,3.0,,10.21,10.835,
2025-08-14T23:04:00.530Z,2,GR86-057-57,-33.9,-0.285,-0.545,2.5,3.0,,8.425,9.125,
2025-08-14T23:04:00.574Z,2,GR86-057-57,-34.9,-0.228,-0.559,2.5,3.0,4221.0,6.3950000000000005,7.0200000000000005,
2025-08-14T23:04:00.616Z,2,GR86-057-57,-36.4,-0.22,-0.561,2.5,3.0,,5.9350000000000005,6.455,94.68
2025-08-14T23:04:00.659Z,2,GR86-057-57,-39.3,-0.236,-0.583,2.5,3.0,,5.9350000000000005,6.15,
2025-08-14T23:04:00.704Z,2,GR86-057-57,-42.8,-0.264,-0.603,2.5,3.0,,8.18,8.24,
2025-08-14T23:04:00.747Z,2,GR86-057-57,-44.5,-0.264,-0.63,2.5,3.0,,9.46,9.4,
2025-08-14T23:04:00.790Z,2,GR86-057-57,-45.5,-0.276,-0.642,2.51,3.0,4144.0,9.49,9.845,
2025-08-14T23:04:00.834Z,2,GR86-057-57,-45.7,-0.27,-0.664,2.5,3.0,,9.49,9.78,91.9
2025-08-14T23:04:00.877Z,2,GR86-057-57,-45.2,-0.303,-0.668,2.5,3.0,,9.46,9.81,
2025-08-14T23:04:00.920Z,2,GR86-057-57,-43.3,-0.285,-0.6950000000000001,2.5,3.0,,8.545,9.095,
2025-08-14T23:04:00.964Z,2,GR86-057-57,-41.8,-0.221,-0.6990000000000001,2.5,3.0,,3.1,3.465,
2025-08-14T23:04:01.007Z,2,GR86-057-57,-41.6,-0.172,-0.712,2.5,3.0,4082.0,0.0,0.0,
2025-08-14T23:04:01.050Z,2,GR86-057-57,-43.3,-0.164,-0.7000000000000001,2.5,3.0,,0.0,0.0,90.58
2025-08-14T23:04:01.094Z,2,GR86-057-57,-45.3,-0.15,-0.6980000000000001,2.5,3.0,,0.0,0.0,
2025-08-14T23:04:01.136Z,2,GR86-057-57,-47.7,-0.146,-0.6940000000000001,2.5,3.0,,0.0,0.0,
2025-08-14T23:04:01.179Z,2,GR86-057-57,-50.1,-0.144,-0.717,2.5,3.0,,0.0,0.0,
2025-08-14T23:04:01.223Z,2,GR86-057-57,-53.7,-0.159,-0.735,2.5,3.0,4015.0,0.0,0.0,
2025-08-14T23:04:01.265Z,2,GR86-057-57,-54.7,-0.161,-0.735,2.5,3.0,,0.0,0.0,89.63
2025-08-14T23:04:01.308Z,2,GR86-057-57,-54.8,-0.161,-0.772,2.5,3.0,,0.0,0.0,
2025-08-14T23:04:01.351Z,2,GR86-057-57,-54.6,-0.158,-0.763,2.5,3.0,,0.0,0.0,
2025-08-14T23:04:01.394Z,2,GR86-057-57,-54.0,-0.166,-0.778,2.5,3.0,,0.0,0.0,
2025-08-14T23:04:01.437Z,2,GR86-057-57,-53.2,-0.162,-0.78,2.5,3.0,3963.0,0.0,0.0,
2025-08-14T23:04:01.481Z,2,GR86-057-57,-51.900000000000006,-0.155,-0.786,2.5,3.0,,0.0,0.0,88.5
2025-08-14T23:04:01.524Z,2,GR86-057-57,-50.1,-0.136,-0.789,2.5,3.0,,0.0,0.0,
2025-08-14T23:04:01.567Z,2,GR86-057-57,-50.6,-0.156,-0.8200000000000001,5.13,3.0,,0.0,0.0,
2025-08-14T23:04:01.610Z,2,GR86-057-57,-53.2,-0.136,-0.784,7.8,3.0,,0.0,0.0,
2025-08-14T23:04:01.654Z,2,GR86-057-57,-56.7,-0.132,-0.809,6.93,3.0,3918.0,0.0,0.0,
2025-08-14T23:04:01.696Z,2,GR86-057-57,-59.5,-0.124,-0.809,6.83,3.0,,0.0,0.0,87.5
2025-08-14T23:04:01.739Z,2,GR86-057-57,-61.3,-0.132,-0.835,6.22,3.0,,0.0,0.0,
2025-08-14T23:04:01.783Z,2,GR86-057-57,-62.6,-0.12,-0.8300000000000001,5.34,3.0,,0.0,0.0,
2025-08-14T23:04:01.825Z,2,GR86-057-57,-63.3,-0.111,-0.834,5.28,3.0,,0.0,0.0,
2025-08-14T23:04:01.868Z,2,GR86-057-57,-63.400000000000006,-0.099,-0.842,5.21,3.0,3875.0,0.0,0.0,
2025-08-14T23:04:01.913Z,2,GR86-057-57,-63.400000000000006,-0.117,-0.859,5.15,3.0,,0.0,0.0,85.95
2025-08-14T23:04:01.957Z,2,GR86-057-57,-63.400000000000006,-0.129,-0.845,8.72,3.0,,0.0,0.0,
2025-08-14T23:04:02.044Z,2,GR86-057-57,-63.900000000000006,-0.111,-0.854,15.55,3.0,,0.0,0.0,
2025-08-14T23:04:02.086Z,2,GR86-057-57,-64.4,-0.118,-0.867,17.1,3.0,3835.0,0.0,0.0,
2025-08-14T23:04:02.129Z,2,GR86-057-57,-64.9,-0.121,-0.854,17.41,3.0,,0.0,0.0,85.06
2025-08-14T23:04:02.174Z,2,GR86-057-57,-65.4,-0.079,-0.88,17.67,3.0,,0.0,0.0,
2025-08-14T23:04:02.216Z,2,GR86-057-57,-65.8,-0.095,-0.854,18.04,3.0,,0.0,0.0,
2025-08-14T23:04:02.259Z,2,GR86-057-57,-66.0,-0.052,-0.894,18.52,3.0,,0.0,0.0,
2025-08-14T23:04:02.304Z,2,GR86-057-57,-66.0,0.117,-0.8320000000000001,22.2,3.0,3773.0,0.0,0.0,
2025-08-14T23:04:02.347Z,2,GR86-057-57,-66.0,0.012,-0.882,22.19,3.0,,0.0,0.0,84.35000000000001
2025-08-14T23:04:02.390Z,2,GR86-057-57,-66.0,-0.022,-0.8230000000000001,22.3,3.0,,0.0,0.0,
2025-08-14T23:04:02.434Z,2,GR86-057-57,-66.10000000000001,0.033,-0.852,22.25,3.0,,0.0,0.0,
2025-08-14T23:04:02.477Z,2,GR86-057-57,-66.7,0.079,-0.799,22.25,3.0,,0.0,0.0,
2025-08-14T23:04:02.520Z,2,GR86-057-57,-67.60000000000001,0.076,-0.8240000000000001,22.2,3.0,3900.0,0.0,0.0,
2025-08-14T23:04:02.564Z,2,GR86-057-57,-68.7,0.046,-0.797,22.16,3.0,,0.0,0.0,83.55
2025-08-14T23:04:02.607Z,2,GR86-057-57,-69.4,0.057,-0.8160000000000001,22.12,3.0,,0.0,0.0,
2025-08-14T23:04:02.650Z,2,GR86-057-57,-70.4,0.058,-0.791,22.1,3.0,,0.0,0.0,
2025-08-14T23:04:02.694Z,2,GR86-057-57,-71.8,0.067,-0.806,22.06,3.0,,0.0,0.0,
2025-08-14T23:04:02.736Z,2,GR86-057-57,-72.8,0.056,-0.8,22.05,3.0,3860.0,0.0,0.0,
2025-08-14T23:04:02.779Z,2,GR86-057-57,-73.2,0.038,-0.8,20.32,3.0,,0.0,0.0,83.28
2025-08-14T23:04:02.823Z,2,GR86-057-57,-73.2,0.041,-0.807,20.64,3.0,,0.0,0.0,
2025-08-14T23:04:02.865Z,2,GR86-057-57,-73.2,0.057,-0.838,21.31,3.0,,0.0,0.0,
2025-08-14T23:04:02.909Z,2,GR86-057-57,-72.8,0.047,-0.847,21.73,3.0,,0.0,0.0,
2025-08-14T23:04:02.953Z,2,GR86-057-57,-72.0,0.036,-0.833,21.78,3.0,3848.0,0.0,0.0,
2025-08-14T23:04:02.995Z,2,GR86-057-57,-71.4,0.038,-0.8230000000000001,21.86,3.0,,0.0,0.0,83.54
2025-08-14T23:04:03.038Z,2,GR86-057-57,-71.3,0.054,-0.796,21.92,3.0,,0.0,0.0,
2025-08-14T23:04:03.081Z,2,GR86-057-57,-71.3,0.058,-0.8180000000000001,22.0,3.0,,0.0,0.0,
2025-08-14T23:04:03.124Z,2,GR86-057-57,-71.2,0.056,-0.804,22.06,3.0,,0.0,0.0,
2025-08-14T23:04:03.167Z,2,GR86-057-57,-70.7,0.049,-0.79,22.32,3.0,3861.0,0.0,0.0,
2025-08-14T23:04:03.210Z,2,GR86-057-57,-70.0,0.051,-0.8320000000000001,22.54,3.0,,0.0,0.0,84.05
2025-08-14T23:04:03.253Z,2,GR86-057-57,-69.10000000000001,0.061,-0.834,22.62,3.0,,0.0,0.0,
2025-08-14T23:04:03.296Z,2,GR86-057-57,-68.2,0.042,-0.812,22.72,3.0,,0.0,0.0,
2025-08-14T23:04:03.339Z,2,GR86-057-57,-66.7,0.053,-0.847,23.33,3.0,,0.0,0.0,
2025-08-14T23:04:03.383Z,2,GR86-057-57,-64.0,0.076,-0.8290000000000001,25.95,3.0,3885.0,0.0,0.0,
2025-08-14T23:04:03.425Z,2,GR86-057-57,-62.7,0.066,-0.785,28.6,3.0,,0.0,0.0,84.49
2025-08-14T23:04:03.469Z,2,GR86-057-57,-61.7,0.067,-0.799,29.91,3.0,,0.0,0.0,
2025-08-14T23:04:03.513Z,2,GR86-057-57,-61.2,0.078,-0.791,33.52,3.0,,0.0,0.0,
2025-08-14T23:04:03.599Z,2,GR86-057-57,-61.1,0.113,-0.802,45.5,3.0,3904.0,0.0,0.0,
2025-08-14T23:04:03.643Z,2,GR86-057-57,-61.1,0.13,-0.8130000000000001,47.15,3.0,,0.0,0.0,84.76
2025-08-14T23:04:03.685Z,2,GR86-057-57,-60.400000000000006,0.121,-0.793,48.66,3.0,,0.0,0.0,
2025-08-14T23:04:03.728Z,2,GR86-057-57,-58.8,0.128,-0.847,49.51,3.0,,0.0,0.0,
2025-08-14T23:04:03.771Z,2,GR86-057-57,-56.1,0.134,-0.8150000000000001,50.79,3.0,,0.0,0.0,
2025-08-14T23:04:03.814Z,2,GR86-057-57,-53.2,0.131,-0.793,51.02,3.0,3965.0,0.0,0.0,
2025-08-14T23:04:03.857Z,2,GR86-057-57,-50.8,0.154,-0.743,51.03,3.0,,0.0,0.0,85.2
2025-08-14T23:04:03.900Z,2,GR86-057-57,-49.3,0.163,-0.71,50.97,3.0,,0.0,0.0,
2025-08-14T23:04:03.944Z,2,GR86-057-57,-48.0,0.128,-0.655,50.91,3.0,,0.0,0.0,
2025-08-14T23:04:03.986Z,2,GR86-057-57,-47.3,0.137,-0.668,50.93,3.0,,0.0,0.0,
2025-08-14T23:04:04.030Z,2,GR86-057-57,-46.900000000000006,0.154,-0.659,51.06,3.0,4012.0,0.0,0.0,
2025-08-14T23:04:04.074Z,2,GR86-057-57,-46.900000000000006,0.161,-0.663,53.64,3.0,,0.0,0.0,85.75
2025-08-14T23:04:04.116Z,2,GR86-057-57,-46.900000000000006,0.177,-0.655,56.8,3.0,,0.0,0.0,
2025-08-14T23:04:04.159Z,2,GR86-057-57,-46.900000000000006,0.153,-0.643,58.98,3.0,,0.0,0.0,
2025-08-14T23:04:04.204Z,2,GR86-057-57,-46.0,0.138,-0.631,67.04,3.0,,0.0,0.0,
2025-08-14T23:04:04.247Z,2,GR86-057-57,-44.1,0.169,-0.626,69.09,3.0,4023.0,0.0,0.0,
2025-08-14T23:04:04.290Z,2,GR86-057-57,-42.1,0.161,-0.622,72.57000000000001,3.0,,0.0,0.0,86.74
2025-08-14T23:04:04.334Z,2,GR86-057-57,-40.6,0.172,-0.613,78.23,3.0,,0.0,0.0,
2025-08-14T23:04:04.376Z,2,GR86-057-57,-39.5,0.172,-0.605,83.69,3.0,,0.0,0.0,
2025-08-14T23:04:04.419Z,2,GR86-057-57,-38.7,0.167,-0.587,84.38,3.0,,0.0,0.0,
2025-08-14T23:04:04.507Z,2,GR86-057-57,-37.7,0.168,-0.581,84.53,3.0,4098.0,0.0,0.0,87.75
2025-08-14T23:04:04.550Z,2,GR86-057-57,-36.6,0.172,-0.5640000000000001,84.93,3.0,,0.0,0.0,
2025-08-14T23:04:04.594Z,2,GR86-057-57,-36.1,0.2,-0.521,85.83,3.0,,0.0,0.0,
2025-08-14T23:04:04.636Z,2,GR86-057-57,-35.800000000000004,0.197,-0.521,85.97,3.0,,0.0,0.0,
2025-08-14T23:04:04.679Z,2,GR86-057-57,-35.5,0.186,-0.5,86.18,3.0,4155.0,0.0,0.0,
2025-08-14T23:04:04.724Z,2,GR86-057-57,-35.0,0.169,-0.499,86.5,3.0,,0.0,0.0,89.02
2025-08-14T23:04:04.766Z,2,GR86-057-57,-34.7,0.181,-0.505,87.23,3.0,,0.0,0.0,
2025-08-14T23:04:04.809Z,2,GR86-057-57,-34.5,0.196,-0.526,88.96000000000001,3.0,,0.0,0.0,
2025-08-14T23:04:04.853Z,2,GR86-057-57,-34.2,0.19,-0.509,89.35000000000001,3.0,,0.0,0.0,
2025-08-14T23:04:04.895Z,2,GR86-057-57,-33.800000000000004,0.183,-0.514,89.41,3.0,4205.0,0.0,0.0,
2025-08-14T23:04:04.938Z,2,GR86-057-57,-32.9,0.173,-0.498,89.3,3.0,,0.0,0.0,90.36
2025-08-14T23:04:04.981Z,2,GR86-057-57,-31.5,0.188,-0.508,89.03,3.0,,0.0,0.0,
2025-08-14T23:04:05.024Z,2,GR86-057-57,-28.4,0.206,-0.503,88.69,3.0,,0.0,0.0,
2025-08-14T23:04:05.067Z,2,GR86-057-57,-26.6,0.22,-0.469,88.58,3.0,,0.0,0.0,
2025-08-14T23:04:05.110Z,2,GR86-057-57,-25.4,0.206,-0.477,88.18,3.0,4297.0,0.0,0.0,
2025-08-14T23:04:05.154Z,2,GR86-057-57,-24.700000000000003,0.205,-0.438,88.13,3.0,,0.0,0.0,91.73
2025-08-14T23:04:05.197Z,2,GR86-057-57,-24.6,0.196,-0.435,88.09,3.0,,0.0,0.0,
2025-08-14T23:04:05.240Z,2,GR86-057-57,-24.6,0.2,-0.407,88.14,3.0,,0.0,0.0,
2025-08-14T23:04:05.284Z,2,GR86-057-57,-24.200000000000003,0.223,-0.391,88.33,3.0,,0.0,0.0,
2025-08-14T23:04:05.327Z,2,GR86-057-57,-24.0,0.221,-0.384,88.52,3.0,4395.0,0.0,0.0,
2025-08-14T23:04:05.370Z,2,GR86-057-57,-23.8,0.223,-0.359,88.46000000000001,3.0,,0.0,0.0,93.08
2025-08-14T23:04:05.414Z,2,GR86-057-57,-23.6,0.209,-0.365,88.43,3.0,,0.0,0.0,
2025-08-14T23:04:05.456Z,2,GR86-057-57,-23.0,0.215,-0.35,88.45,3.0,,0.0,0.0,
2025-08-14T23:04:05.499Z,2,GR86-057-57,-22.200000000000003,0.22,-0.354,87.99,3.0,,0.0,0.0,
2025-08-14T23:04:05.543Z,2,GR86-057-57,-21.200000000000003,0.229,-0.333,87.37,3.0,4438.0,0.0,0.0,
2025-08-14T23:04:05.587Z,2,GR86-057-57,-20.9,0.227,-0.325,87.26,3.0,,0.0,0.0,94.54
2025-08-14T23:04:05.630Z,2,GR86-057-57,-20.8,0.214,-0.331,87.35000000000001,3.0,,0.0,0.0,
2025-08-14T23:04:05.674Z,2,GR86-057-57,-20.700000000000003,0.21,-0.325,87.31,3.0,,0.0,0.0,
2025-08-14T23:04:05.716Z,2,GR86-057-57,-20.5,0.218,-0.339,87.25,3.0,,0.0,0.0,
2025-08-14T23:04:05.759Z,2,GR86-057-57,-20.0,0.231,-0.327,87.73,3.0,4512.0,0.0,0.0,
2025-08-14T23:04:05.804Z,2,GR86-057-57,-19.0,0.235,-0.322,94.76,3.0,,0.0,0.0,96.02
2025-08-14T23:04:05.847Z,2,GR86-057-57,-18.0,0.217,-0.31,99.9,3.0,,0.0,0.0,
2025-08-14T23:04:05.890Z,2,GR86-057-57,-17.0,0.208,-0.283,99.82,3.0,,0.0,0.0,
2025-08-14T23:04:05.934Z,2,GR86-057-57,-16.3,0.22,-0.288,99.8,3.0,,0.0,0.0,
2025-08-14T23:04:05.977Z,2,GR86-057-57,-15.8,0.212,-0.258,99.83,3.0,4616.0,0.0,0.0,
2025-08-14T23:04:06.020Z,2,GR86-057-57,-15.3,0.223,-0.27,99.82,3.0,,0.0,0.0,97.58
2025-08-14T23:04:06.064Z,2,GR86-057-57,-14.7,0.217,-0.246,99.83,3.0,,0.0,0.0,
2025-08-14T23:04:06.107Z,2,GR86-057-57,-14.4,0.208,-0.237,99.83,3.0,,0.0,0.0,
2025-08-14T23:04:06.150Z,2,GR86-057-57,-14.1,0.213,-0.232,99.84,3.0,,0.0,0.0,
2025-08-14T23:04:06.194Z,2,GR86-057-57,-13.7,0.203,-0.214,99.83,3.0,4650.0,0.0,0.0,
2025-08-14T23:04:06.236Z,2,GR86-057-57,-13.1,0.22,-0.22,99.83,3.0,,0.0,0.0,99.19
2025-08-14T23:04:06.279Z,2,GR86-057-57,-12.3,0.214,-0.206,99.83,3.0,,0.0,0.0,
2025-08-14T23:04:06.323Z,2,GR86-057-57,-11.2,0.209,-0.204,99.83,3.0,,0.0,0.0,
2025-08-14T23:04:06.365Z,2,GR86-057-57,-10.4,0.21,-0.201,99.83,3.0,,0.0,0.0,
2025-08-14T23:04:06.408Z,2,GR86-057-57,-9.7,0.208,-0.181,99.84,3.0,4747.0,0.0,0.0,
2025-08-14T23:04:06.451Z,2,GR86-057-57,-9.2,0.213,-0.177,99.83,3.0,,0.0,0.0,100.72
2025-08-14T23:04:06.494Z,2,GR86-057-57,-8.700000000000001,0.217,-0.145,99.83,3.0,,0.0,0.0,
2025-08-14T23:04:06.538Z,2,GR86-057-57,-8.3,0.201,-0.141,99.82,3.0,,0.0,0.0,
2025-08-14T23:04:06.581Z,2,GR86-057-57,-7.5,0.22,-0.131,99.82,3.0,,0.0,0.0,
2025-08-14T23:04:06.624Z,2,GR86-057-57,-6.9,0.215,-0.11,99.83,3.0,4820.0,0.0,0.0,
2025-08-14T23:04:06.667Z,2,GR86-057-57,-6.800000000000001,0.193,-0.119,99.85,3.0,,0.0,0.0,102.25
2025-08-14T23:04:06.710Z,2,GR86-057-57,-6.6000000000000005,0.218,-0.113,99.83,3.0,,0.0,0.0,
2025-08-14T23:04:06.754Z,2,GR86-057-57,-6.300000000000001,0.217,-0.099,99.84,3.0,,0.0,0.0,
2025-08-14T23:04:06.796Z,2,GR86-057-57,-6.300000000000001,0.22,-0.106,99.83,3.0,,0.0,0.0,
2025-08-14T23:04:06.839Z,2,GR86-057-57,-6.300000000000001,0.207,-0.073,99.85,3.0,4883.0,0.0,0.0,
2025-08-14T23:04:06.883Z,2,GR86-057-57,-6.300000000000001,0.207,-0.062,99.86,3.0,,0.0,0.0,103.8
2025-08-14T23:04:06.925Z,2,GR86-057-57,-6.2,0.21,-0.069,99.85,3.0,,0.0,0.0,
2025-08-14T23:04:06.968Z,2,GR86-057-57,-5.800000000000001,0.216,-0.053,99.86,3.0,,0.0,0.0,
2025-08-14T23:04:07.011Z,2,GR86-057-57,-5.7,0.205,-0.066,99.86,3.0,,0.0,0.0,
2025-08-14T23:04:07.054Z,2,GR86-057-57,-5.7,0.211,-0.068,99.85,3.0,4931.0,0.0,0.0,
2025-08-14T23:04:07.097Z,2,GR86-057-57,-5.6000000000000005,0.197,-0.069,99.86,3.0,,0.0,0.0,105.3
2025-08-14T23:04:07.140Z,2,GR86-057-57,-5.4,0.206,-0.095,99.86,3.0,,0.0,0.0,
2025-08-14T23:04:07.184Z,2,GR86-057-57,-5.2,0.209,-0.095,99.86,3.0,,0.0,0.0,
2025-08-14T23:04:07.226Z,2,GR86-057-57,-5.2,0.207,-0.082,99.86,3.0,,0.0,0.0,
2025-08-14T23:04:07.269Z,2,GR86-057-57,-5.1000000000000005,0.191,-0.084,99.87,3.0,5003.0,0.0,0.0,
2025-08-14T23:04:07.313Z,2,GR86-057-57,-5.0,0.212,-0.067,99.86,3.0,,0.0,0.0,108.34
2025-08-14T23:04:07.355Z,2,GR86-057-57,-4.7,0.196,-0.069,99.88,3.0,,0.0,0.0,
2025-08-14T23:04:07.398Z,2,GR86-057-57,-4.4,0.211,-0.07,99.88,3.0,,0.0,0.0,
2025-08-14T23:04:07.441Z,2,GR86-057-57,-4.2,0.21,-0.057,99.86,3.0,,0.0,0.0,
2025-08-14T23:04:07.484Z,2,GR86-057-57,-4.1000000000000005,0.203,-0.044,99.86,3.0,5099.0,0.0,0.0,
2025-08-14T23:04:07.527Z,2,GR86-057-57,-4.0,0.193,-0.055,99.86,3.0,,0.0,0.0,109.9
2025-08-14T23:04:07.570Z,2,GR86-057-57,-3.8,0.211,-0.046,99.86,3.0,,0.0,0.0,
2025-08-14T23:04:07.614Z,2,GR86-057-57,-3.7,0.208,-0.036,99.86,3.0,,0.0,0.0,
2025-08-14T23:04:07.657Z,2,GR86-057-57,-3.5,0.204,-0.053,99.86,3.0,,0.0,0.0,
2025-08-14T23:04:07.700Z,2,GR86-057-57,-3.1,0.207,-0.034,99.86,3.0,5134.0,0.0,0.0,
2025-08-14T23:04:07.744Z,2,GR86-057-57,-2.8000000000000003,0.208,-0.025,99.86,3.0,,0.0,0.0,111.34
2025-08-14T23:04:07.786Z,2,GR86-057-57,-2.8000000000000003,0.183,-0.035,99.86,3.0,,0.0,0.0,
2025-08-14T23:04:07.829Z,2,GR86-057-57,-2.8000000000000003,0.21,-0.022,99.87,3.0,,0.0,0.0,
2025-08-14T23:04:07.874Z,2,GR86-057-57,-2.7,0.205,-0.004,99.86,3.0,,0.0,0.0,
2025-08-14T23:04:07.916Z,2,GR86-057-57,-2.7,0.203,-0.035,99.87,3.0,5295.0,0.0,0.0,
2025-08-14T23:04:07.959Z,2,GR86-057-57,-2.7,0.215,-0.013,99.86,3.0,,0.0,0.0,112.76
2025-08-14T23:04:08.004Z,2,GR86-057-57,-2.7,0.208,-0.006,99.87,3.0,,0.0,0.0,
2025-08-14T23:04:08.047Z,2,GR86-057-57,-2.6,0.2,-0.021,99.89,3.0,,0.0,0.0,
2025-08-14T23:04:08.090Z,2,GR86-057-57,-2.7,0.2,-0.032,99.86,3.0,,0.0,0.0,
2025-08-14T23:04:08.134Z,2,GR86-057-57,-2.6,0.218,-0.018,99.87,3.0,5366.0,0.0,0.0,
2025-08-14T23:04:08.177Z,2,GR86-057-57,-2.5,0.201,-0.033,99.87,3.0,,0.0,0.0,114.21
2025-08-14T23:04:08.220Z,2,GR86-057-57,-2.1,0.203,-0.013,99.87,3.0,,0.0,0.0,
2025-08-14T23:04:08.264Z,2,GR86-057-57,-1.3,0.198,-0.006,99.87,3.0,,0.0,0.0,
2025-08-14T23:04:08.306Z,2,GR86-057-57,-0.9,0.205,0.006,99.86,3.0,,0.0,0.0,
2025-08-14T23:04:08.349Z,2,GR86-057-57,-0.6000000000000001,0.207,-0.013,99.88,3.0,5433.0,0.0,0.0,
2025-08-14T23:04:08.393Z,2,GR86-057-57,-0.4,0.219,0.007,99.87,3.0,,0.0,0.0,115.61
2025-08-14T23:04:08.435Z,2,GR86-057-57,-0.3,0.191,0.018,99.89,3.0,,0.0,0.0,
2025-08-14T23:04:08.478Z,2,GR86-057-57,-0.3,0.183,0.004,99.88,3.0,,0.0,0.0,
2025-08-14T23:04:08.521Z,2,GR86-057-57,-0.3,0.211,0.034,99.87,3.0,,0.0,0.0,
2025-08-14T23:04:08.564Z,2,GR86-057-57,-0.3,0.218,0.054,99.86,3.0,5505.0,0.0,0.0,
2025-08-14T23:04:08.607Z,2,GR86-057-57,-0.3,0.192,0.049,99.9,3.0,,0.0,0.0,117.02
2025-08-14T23:04:08.650Z,2,GR86-057-57,-0.3,0.187,0.036,99.87,3.0,,0.0,0.0,
2025-08-14T23:04:08.694Z,2,GR86-057-57,-0.3,0.212,0.057,99.91,3.0,,0.0,0.0,
2025-08-14T23:04:08.736Z,2,GR86-057-57,-0.3,0.203,0.049,99.87,3.0,,0.0,0.0,
2025-08-14T23:04:08.779Z,2,GR86-057-57,-0.8,0.197,0.023,99.86,3.0,5532.0,0.0,0.0,
2025-08-14T23:04:08.823Z,2,GR86-057-57,-2.2,0.188,0.016,99.88,3.0,,0.0,0.0,118.41
2025-08-14T23:04:08.865Z,2,GR86-057-57,-2.7,0.207,0.039,99.88,3.0,,0.0,0.0,
2025-08-14T23:04:08.909Z,2,GR86-057-57,-2.7,0.198,0.029,99.86,3.0,,0.0,0.0,
2025-08-14T23:04:08.953Z,2,GR86-057-57,-2.6,0.202,-0.004,99.88,3.0,,0.0,0.0,
2025-08-14T23:04:08.995Z,2,GR86-057-57,-2.2,0.216,0.026,99.89,3.0,5588.0,0.0,0.0,
2025-08-14T23:04:09.038Z,2,GR86-057-57,-2.2,0.193,0.011,99.87,3.0,,0.0,0.0,119.76
2025-08-14T23:04:09.081Z,2,GR86-057-57,-2.2,0.179,-0.015,99.87,3.0,,0.0,0.0,
2025-08-14T23:04:09.124Z,2,GR86-057-57,-2.2,0.198,-0.02,99.88,3.0,,0.0,0.0,
2025-08-14T23:04:09.167Z,2,GR86-057-57,-2.2,0.215,-0.002,99.87,3.0,,0.0,0.0,
2025-08-14T23:04:09.210Z,2,GR86-057-57,-2.2,0.21,-0.004,99.86,3.0,5695.0,0.0,0.0,
2025-08-14T23:04:09.253Z,2,GR86-057-57,-2.2,0.185,-0.02,99.9,3.0,,0.0,0.0,121.14
2025-08-14T23:04:09.296Z,2,GR86-057-57,-2.1,0.195,-0.011,99.88,3.0,,0.0,0.0,
2025-08-14T23:04:09.339Z,2,GR86-057-57,-2.0,0.204,0.01,99.9,3.0,,0.0,0.0,
2025-08-14T23:04:09.383Z,2,GR86-057-57,-2.0,0.21,0.01,99.91,3.0,,0.0,0.0,
2025-08-14T23:04:09.425Z,2,GR86-057-57,-1.9,0.198,-0.005,99.88,3.0,5753.0,0.0,0.0,
2025-08-14T23:04:09.468Z,2,GR86-057-57,-1.7000000000000002,0.203,0.006,99.86,3.0,,0.0,0.0,122.54
2025-08-14T23:04:09.511Z,2,GR86-057-57,-1.6,0.207,0.017,99.87,3.0,,0.0,0.0,
2025-08-14T23:04:09.554Z,2,GR86-057-57,-1.6,0.187,0.011,99.9,3.0,,0.0,0.0,
2025-08-14T23:04:09.597Z,2,GR86-057-57,-1.6,0.198,0.002,99.87,3.0,,0.0,0.0,
2025-08-14T23:04:09.640Z,2,GR86-057-57,-1.6,0.212,0.028,99.9,3.0,5776.0,0.0,0.0,
2025-08-14T23:04:09.684Z,2,GR86-057-57,-1.6,0.21,0.022,99.9,3.0,,0.0,0.0,123.94
2025-08-14T23:04:09.727Z,2,GR86-057-57,-1.6,0.193,0.017,99.86,3.0,,0.0,0.0,
2025-08-14T23:04:09.770Z,2,GR86-057-57,-1.6,0.184,-0.007,99.86,3.0,,0.0,0.0,
2025-08-14T23:04:09.814Z,2,GR86-057-57,-1.6,0.194,0.028,99.88,3.0,,0.0,0.0,
2025-08-14T23:04:09.856Z,2,GR86-057-57,-1.6,0.209,0.034,99.9,3.0,5869.0,0.0,0.0,
2025-08-14T23:04:09.899Z,2,GR86-057-57,-1.3,0.2,0.006,99.9,3.0,,0.0,0.0,125.28
2025-08-14T23:04:09.943Z,2,GR86-057-57,-1.3,0.193,0.009,99.86,3.0,,0.0,0.0,
2025-08-14T23:04:09.985Z,2,GR86-057-57,-1.4,0.197,0.007,99.87,3.0,,0.0,0.0,
2025-08-14T23:04:10.028Z,2,GR86-057-57,-1.8,0.203,0.033,99.89,3.0,,0.0,0.0,
2025-08-14T23:04:10.071Z,2,GR86-057-57,-1.8,0.197,0.029,99.89,3.0,5889.0,0.0,0.0,
2025-08-14T23:04:10.114Z,2,GR86-057-57,-1.8,0.198,0.003,99.86,3.0,,0.0,0.0,127.9
2025-08-14T23:04:10.157Z,2,GR86-057-57,-1.8,0.201,0.02,99.88,3.0,,0.0,0.0,
2025-08-14T23:04:10.200Z,2,GR86-057-57,-1.8,0.199,0.03,99.86,3.0,,0.0,0.0,
2025-08-14T23:04:10.244Z,2,GR86-057-57,-1.9,0.2,0.026,99.9,3.0,,0.0,0.0,
2025-08-14T23:04:10.286Z,2,GR86-057-57,-2.2,0.197,0.011,99.9,3.0,5952.0,0.0,0.0,
2025-08-14T23:04:10.330Z,2,GR86-057-57,-2.4000000000000004,0.188,-0.011,99.89,3.0,,0.0,0.0,129.19
2025-08-14T23:04:10.374Z,2,GR86-057-57,-2.5,0.202,0.007,99.89,3.0,,0.0,0.0,
2025-08-14T23:04:10.416Z,2,GR86-057-57,-2.5,0.194,0.009,99.9,3.0,,0.0,0.0,
2025-08-14T23:04:10.459Z,2,GR86-057-57,-2.5,0.193,-0.02,99.88,3.0,,0.0,0.0,
2025-08-14T23:04:10.504Z,2,GR86-057-57,-2.6,0.19,-0.016,99.87,3.0,6112.0,0.0,0.0,
2025-08-14T23:04:10.547Z,2,GR86-057-57,-2.7,0.194,-0.031,99.87,3.0,,0.0,0.0,130.5
2025-08-14T23:04:10.590Z,2,GR86-057-57,-2.4000000000000004,0.203,-0.019,99.9,3.0,,0.0,0.0,
2025-08-14T23:04:10.634Z,2,GR86-057-57,-2.1,-0.024,-0.007,99.86,4.0,,0.0,0.0,
2025-08-14T23:04:10.676Z,2,GR86-057-57,-2.1,0.059,0.009,99.88,4.0,,0.0,0.0,
2025-08-14T23:04:10.719Z,2,GR86-057-57,-2.1,0.477,-0.04,99.9,4.0,6138.0,0.0,0.0,
2025-08-14T23:04:10.763Z,2,GR86-057-57,-2.2,0.065,-0.032,99.87,4.0,,0.0,0.0,131.8
2025-08-14T23:04:10.807Z,2,GR86-057-57,-2.7,0.029,0.037,99.88,4.0,,0.0,0.0,
2025-08-14T23:04:10.850Z,2,GR86-057-57,-2.7,0.198,-0.058,99.91,4.0,,0.0,0.0,
2025-08-14T23:04:10.894Z,2,GR86-057-57,-2.3000000000000003,0.227,-0.008,99.91,4.0,,0.0,0.0,
2025-08-14T23:04:10.936Z,2,GR86-057-57,-2.3000000000000003,0.141,0.01,99.9,4.0,5465.0,0.0,0.0,
2025-08-14T23:04:10.979Z,2,GR86-057-57,-2.3000000000000003,0.11,-0.019,99.87,4.0,,0.0,0.0,133.03
2025-08-14T23:04:11.023Z,2,GR86-057-57,-2.4000000000000004,0.193,0.013,99.89,4.0,,0.0,0.0,
2025-08-14T23:04:11.066Z,2,GR86-057-57,-2.4000000000000004,0.163,-0.001,99.87,4.0,,0.0,0.0,
2025-08-14T23:04:11.109Z,2,GR86-057-57,-2.4000000000000004,0.139,-0.019,99.89,4.0,,0.0,0.0,
2025-08-14T23:04:11.153Z,2,GR86-057-57,-2.4000000000000004,0.149,-0.022,99.9,4.0,5270.0,0.0,0.0,
2025-08-14T23:04:11.195Z,2,GR86-057-57,-3.0,0.173,0.003,99.9,4.0,,0.0,0.0,134.12
2025-08-14T23:04:11.238Z,2,GR86-057-57,-3.7,0.156,0.017,99.88,4.0,,0.0,0.0,
2025-08-14T23:04:11.281Z,2,GR86-057-57,-4.1000000000000005,0.148,-0.018,99.86,4.0,,0.0,0.0,
2025-08-14T23:04:11.324Z,2,GR86-057-57,-4.1000000000000005,0.145,-0.018,99.88,4.0,,0.0,0.0,
2025-08-14T23:04:11.367Z,2,GR86-057-57,-4.0,0.153,-0.039,99.88,4.0,5269.0,0.0,0.0,
2025-08-14T23:04:11.410Z,2,GR86-057-57,-4.0,0.162,-0.03,99.87,4.0,,0.0,0.0,135.16
2025-08-14T23:04:11.454Z,2,GR86-057-57,-4.0,0.156,-0.026,99.88,4.0,,0.0,0.0,
2025-08-14T23:04:11.497Z,2,GR86-057-57,-4.0,0.147,-0.028,99.9,4.0,,0.0,0.0,
2025-08-14T23:04:11.540Z,2,GR86-057-57,-4.0,0.148,-0.056,99.89,4.0,,0.0,0.0,
2025-08-14T23:04:11.584Z,2,GR86-057-57,-3.8,0.148,-0.04,99.91,4.0,5321.0,0.0,0.0,
2025-08-14T23:04:11.627Z,2,GR86-057-57,-3.7,0.156,-0.067,99.86,4.0,,0.0,0.0,136.19
2025-08-14T23:04:11.670Z,2,GR86-057-57,-3.6,0.161,-0.035,99.87,4.0,,0.0,0.0,
2025-08-14T23:04:11.714Z,2,GR86-057-57,-3.5,0.155,-0.036,99.9,4.0,,0.0,0.0,
2025-08-14T23:04:11.757Z,2,GR86-057-57,-3.5,0.145,-0.039,99.9,4.0,,0.0,0.0,
2025-08-14T23:04:11.800Z,2,GR86-057-57,-3.5,0.149,-0.05,99.88,4.0,5364.0,0.0,0.0,
2025-08-14T23:04:11.844Z,2,GR86-057-57,-3.6,0.145,-0.04,99.88,4.0,,0.0,0.0,137.21
2025-08-14T23:04:11.887Z,2,GR86-057-57,-3.8,0.158,-0.045,99.87,4.0,,0.0,0.0,
2025-08-14T23:04:11.930Z,2,GR86-057-57,-4.0,0.154,-0.028,99.89,4.0,,0.0,0.0,
2025-08-14T23:04:11.974Z,2,GR86-057-57,-4.2,0.152,-0.023,99.86,4.0,,0.0,0.0,
2025-08-14T23:04:12.016Z,2,GR86-057-57,-4.5,0.147,-0.05,99.87,4.0,5403.0,0.0,0.0,
2025-08-14T23:04:12.059Z,2,GR86-057-57,-5.1000000000000005,0.145,-0.068,99.9,4.0,,0.0,0.0,138.26
2025-08-14T23:04:12.104Z,2,GR86-057-57,-5.9,0.136,-0.075,99.89,4.0,,0.0,0.0,
2025-08-14T23:04:12.147Z,2,GR86-057-57,-6.2,0.147,-0.092,99.86,4.0,,0.0,0.0,
2025-08-14T23:04:12.190Z,2,GR86-057-57,-6.2,0.165,-0.071,99.89,4.0,,0.0,0.0,
2025-08-14T23:04:12.234Z,2,GR86-057-57,-5.7,0.16,-0.075,99.87,4.0,5443.0,0.0,0.0,
2025-08-14T23:04:12.276Z,2,GR86-057-57,-5.0,0.131,-0.094,99.89,4.0,,0.0,0.0,139.26
2025-08-14T23:04:12.319Z,2,GR86-057-57,-4.7,0.134,-0.118,99.91,4.0,,0.0,0.0,
2025-08-14T23:04:12.363Z,2,GR86-057-57,-4.7,0.14,-0.096,99.87,4.0,,0.0,0.0,
2025-08-14T23:04:12.406Z,2,GR86-057-57,-5.0,0.147,-0.103,99.88,4.0,,0.0,0.0,
2025-08-14T23:04:12.449Z,2,GR86-057-57,-5.4,0.152,-0.077,99.9,4.0,5520.0,0.0,0.0,
2025-08-14T23:04:12.493Z,2,GR86-057-57,-5.5,0.156,-0.067,99.9,4.0,,0.0,0.0,140.3
2025-08-14T23:04:12.535Z,2,GR86-057-57,-5.5,0.145,-0.082,99.87,4.0,,0.0,0.0,
2025-08-14T23:04:12.578Z,2,GR86-057-57,-5.5,0.137,-0.104,99.9,4.0,,0.0,0.0,
2025-08-14T23:04:12.621Z,2,GR86-057-57,-5.5,0.141,-0.094,99.91,4.0,,0.0,0.0,
2025-08-14T23:04:12.664Z,2,GR86-057-57,-5.300000000000001,0.135,-0.102,99.88,4.0,5525.0,0.0,0.0,
2025-08-14T23:04:12.707Z,2,GR86-057-57,-5.300000000000001,0.158,-0.098,99.91,4.0,,0.0,0.0,142.28
2025-08-14T23:04:12.750Z,2,GR86-057-57,-5.4,0.162,-0.073,99.86,4.0,,0.0,0.0,
2025-08-14T23:04:12.794Z,2,GR86-057-57,-5.6000000000000005,0.155,-0.067,99.9,4.0,,0.0,0.0,
2025-08-14T23:04:12.836Z,2,GR86-057-57,-6.4,0.137,-0.088,99.88,4.0,,0.0,0.0,
2025-08-14T23:04:12.879Z,2,GR86-057-57,-6.9,0.133,-0.104,99.87,4.0,5597.0,0.0,0.0,
2025-08-14T23:04:12.923Z,2,GR86-057-57,-6.800000000000001,0.141,-0.112,99.9,4.0,,0.0,0.0,143.20000000000002
2025-08-14T23:04:12.965Z,2,GR86-057-57,-6.4,0.135,-0.135,99.91,4.0,,0.0,0.0,
2025-08-14T23:04:13.008Z,2,GR86-057-57,-6.300000000000001,0.143,-0.121,99.86,4.0,,0.0,0.0,
2025-08-14T23:04:13.051Z,2,GR86-057-57,-6.2,0.159,-0.097,99.89,4.0,,0.0,0.0,
2025-08-14T23:04:13.094Z,2,GR86-057-57,-6.1000000000000005,0.153,-0.101,99.88,4.0,5640.0,0.0,0.0,
2025-08-14T23:04:13.138Z,2,GR86-057-57,-5.800000000000001,0.141,-0.131,99.86,4.0,,0.0,0.0,144.14
2025-08-14T23:04:13.181Z,2,GR86-057-57,-5.300000000000001,0.13,-0.137,99.86,4.0,,0.0,0.0,
2025-08-14T23:04:13.224Z,2,GR86-057-57,-4.800000000000001,0.13,-0.127,99.83,4.0,,0.0,0.0,
2025-08-14T23:04:13.267Z,2,GR86-057-57,-4.7,0.125,-0.123,99.79,4.0,,0.0,0.0,
2025-08-14T23:04:13.310Z,2,GR86-057-57,-4.7,0.139,-0.098,99.56,4.0,5689.0,0.0,0.0,
2025-08-14T23:04:13.354Z,2,GR86-057-57,-4.6000000000000005,0.168,-0.074,98.01,4.0,,0.0,0.0,145.13
2025-08-14T23:04:13.396Z,2,GR86-057-57,-4.6000000000000005,0.165,-0.073,95.97,4.0,,0.0,0.0,
2025-08-14T23:04:13.439Z,2,GR86-057-57,-4.6000000000000005,0.143,-0.091,88.54,4.0,,0.0,0.0,
2025-08-14T23:04:13.483Z,2,GR86-057-57,-4.6000000000000005,0.163,-0.061,77.13,4.0,,0.0,0.0,
2025-08-14T23:04:13.525Z,2,GR86-057-57,-4.6000000000000005,0.141,-0.074,73.47,4.0,5755.0,0.0,0.0,
2025-08-14T23:04:13.568Z,2,GR86-057-57,-4.7,0.124,-0.085,68.76,4.0,,0.0,0.0,146.15
2025-08-14T23:04:13.611Z,2,GR86-057-57,-4.7,0.125,-0.071,59.7,4.0,,0.0,0.0,
2025-08-14T23:04:13.654Z,2,GR86-057-57,-4.7,0.15,-0.052,52.49,4.0,,0.0,0.0,
2025-08-14T23:04:13.697Z,2,GR86-057-57,-4.7,0.162,-0.043,45.73,4.0,,0.0,0.0,
2025-08-14T23:04:13.740Z,2,GR86-057-57,-5.0,0.133,-0.047,39.01,4.0,5794.0,0.0,0.0,
2025-08-14T23:04:13.784Z,2,GR86-057-57,-5.4,0.126,-0.041,36.33,4.0,,0.0,0.0,147.17000000000002
2025-08-14T23:04:13.826Z,2,GR86-057-57,-5.5,0.096,-0.06,35.74,4.0,,0.0,0.0,
2025-08-14T23:04:13.869Z,2,GR86-057-57,-5.7,0.067,-0.084,35.800000000000004,4.0,,0.0,0.0,
2025-08-14T23:04:13.913Z,2,GR86-057-57,-6.0,0.053,-0.087,36.22,4.0,,0.0,0.0,
2025-08-14T23:04:13.955Z,2,GR86-057-57,-6.300000000000001,0.074,-0.072,36.77,4.0,5791.0,0.0,0.0,
2025-08-14T23:04:13.998Z,2,GR86-057-57,-6.300000000000001,0.096,-0.074,37.2,4.0,,0.0,0.0,148.20000000000002
2025-08-14T23:04:14.041Z,2,GR86-057-57,-6.300000000000001,0.107,-0.077,37.38,4.0,,0.0,0.0,
2025-08-14T23:04:14.084Z,2,GR86-057-57,-7.1000000000000005,0.103,-0.086,37.62,4.0,,0.0,0.0,
2025-08-14T23:04:14.127Z,2,GR86-057-57,-7.6,0.113,-0.089,37.86,4.0,,0.0,0.0,
2025-08-14T23:04:14.170Z,2,GR86-057-57,-7.800000000000001,0.09,-0.114,38.11,4.0,5845.0,0.0,0.0,
2025-08-14T23:04:14.214Z,2,GR86-057-57,-7.9,0.073,-0.137,38.21,4.0,,0.0,0.0,149.20000000000002
2025-08-14T23:04:14.257Z,2,GR86-057-57,-7.9,0.051,-0.144,38.27,4.0,,0.0,0.0,
2025-08-14T23:04:14.300Z,2,GR86-057-57,-7.9,0.076,-0.15,38.24,4.0,,0.0,0.0,
2025-08-14T23:04:14.344Z,2,GR86-057-57,-7.9,0.053,-0.167,38.23,4.0,,0.0,0.0,
2025-08-14T23:04:14.387Z,2,GR86-057-57,-7.9,0.05,-0.163,38.31,4.0,5836.0,0.0,0.0,
2025-08-14T23:04:14.431Z,2,GR86-057-57,-7.9,0.091,-0.161,38.43,4.0,,0.0,0.0,149.92000000000002
2025-08-14T23:04:14.474Z,2,GR86-057-57,-7.9,0.115,-0.163,38.49,4.0,,0.0,0.0,
2025-08-14T23:04:14.516Z,2,GR86-057-57,-7.7,0.108,-0.183,38.49,4.0,,0.0,0.0,
2025-08-14T23:04:14.559Z,2,GR86-057-57,-7.6,0.073,-0.202,38.5,4.0,,0.0,0.0,
2025-08-14T23:04:14.604Z,2,GR86-057-57,-7.5,0.108,-0.161,38.65,4.0,5901.0,0.0,0.0,
2025-08-14T23:04:14.647Z,2,GR86-057-57,-7.300000000000001,0.091,-0.166,38.97,4.0,,0.0,0.0,150.54
2025-08-14T23:04:14.690Z,2,GR86-057-57,-6.9,0.059,-0.177,39.31,4.0,,0.0,0.0,
2025-08-14T23:04:14.734Z,2,GR86-057-57,-6.6000000000000005,0.046,-0.171,39.47,4.0,,0.0,0.0,
2025-08-14T23:04:14.777Z,2,GR86-057-57,-6.6000000000000005,0.062,-0.155,39.62,4.0,,0.0,0.0,
2025-08-14T23:04:14.820Z,2,GR86-057-57,-6.6000000000000005,0.094,-0.133,39.74,4.0,5885.0,0.0,0.0,
2025-08-14T23:04:14.864Z,2,GR86-057-57,-6.6000000000000005,0.054,-0.146,39.84,4.0,,0.0,0.0,151.22
2025-08-14T23:04:14.907Z,2,GR86-057-57,-6.6000000000000005,0.08,-0.113,39.85,4.0,,0.0,0.0,
2025-08-14T23:04:14.950Z,2,GR86-057-57,-6.300000000000001,0.104,-0.101,39.85,4.0,,0.0,0.0,
2025-08-14T23:04:14.994Z,2,GR86-057-57,-5.7,0.106,-0.093,39.89,4.0,,0.0,0.0,
2025-08-14T23:04:15.036Z,2,GR86-057-57,-5.5,0.079,-0.108,39.98,4.0,5915.0,0.0,0.0,
2025-08-14T23:04:15.079Z,2,GR86-057-57,-5.300000000000001,0.045,-0.099,40.01,4.0,,0.0,0.0,151.83
2025-08-14T23:04:15.123Z,2,GR86-057-57,-5.2,0.099,-0.083,40.11,4.0,,0.0,0.0,
2025-08-14T23:04:15.165Z,2,GR86-057-57,-5.2,0.075,-0.086,40.24,4.0,,0.0,0.0,
2025-08-14T23:04:15.208Z,2,GR86-057-57,-5.2,0.051,-0.09,40.4,4.0,,0.0,0.0,
2025-08-14T23:04:15.252Z,2,GR86-057-57,-5.2,0.057,-0.067,40.46,4.0,5937.0,0.0,0.0,
2025-08-14T23:04:15.294Z,2,GR86-057-57,-5.2,0.096,-0.05,40.49,4.0,,0.0,0.0,152.52
2025-08-14T23:04:15.338Z,2,GR86-057-57,-5.2,0.114,-0.048,40.58,4.0,,0.0,0.0,
2025-08-14T23:04:15.381Z,2,GR86-057-57,-5.300000000000001,0.118,-0.056,40.62,4.0,,0.0,0.0,
2025-08-14T23:04:15.424Z,2,GR86-057-57,-5.800000000000001,0.098,-0.066,40.65,4.0,,0.0,0.0,
2025-08-14T23:04:15.467Z,2,GR86-057-57,-6.1000000000000005,0.12,-0.07,40.6,4.0,5960.0,0.0,0.0,
2025-08-14T23:04:15.510Z,2,GR86-057-57,-6.4,0.113,-0.082,40.52,4.0,,0.0,0.0,153.88
2025-08-14T23:04:15.554Z,2,GR86-057-57,-6.6000000000000005,0.077,-0.106,40.48,4.0,,0.0,0.0,
2025-08-14T23:04:15.596Z,2,GR86-057-57,-6.6000000000000005,0.048,-0.129,40.48,4.0,,0.0,0.0,
2025-08-14T23:04:15.639Z,2,GR86-057-57,-6.5,0.055,-0.136,40.33,4.0,,0.0,0.0,
2025-08-14T23:04:15.683Z,2,GR86-057-57,-6.4,0.074,-0.14,40.12,4.0,5989.0,0.0,0.0,
2025-08-14T23:04:15.725Z,2,GR86-057-57,-6.4,0.049,-0.145,40.26,4.0,,0.0,0.0,154.5
2025-08-14T23:04:15.768Z,2,GR86-057-57,-6.4,0.062,-0.147,40.45,4.0,,0.0,0.0,
2025-08-14T23:04:15.813Z,2,GR86-057-57,-6.300000000000001,0.077,-0.141,40.68,4.0,,0.0,0.0,
2025-08-14T23:04:15.856Z,2,GR86-057-57,-6.2,0.109,-0.136,41.02,4.0,,0.0,0.0,
2025-08-14T23:04:15.899Z,2,GR86-057-57,-6.1000000000000005,0.114,-0.123,42.45,4.0,6014.0,0.0,0.0,
2025-08-14T23:04:15.943Z,2,GR86-057-57,-6.0,0.084,-0.126,47.79,4.0,,0.0,0.0,155.1
2025-08-14T23:04:15.985Z,2,GR86-057-57,-6.0,0.105,-0.101,51.24,4.0,,0.0,0.0,
2025-08-14T23:04:16.028Z,2,GR86-057-57,-6.0,0.131,-0.102,53.55,4.0,,0.0,0.0,
2025-08-14T23:04:16.071Z,2,GR86-057-57,-6.0,0.127,-0.126,55.84,4.0,,0.0,0.0,
2025-08-14T23:04:16.114Z,2,GR86-057-57,-5.800000000000001,0.122,-0.127,57.53,4.0,6107.0,0.0,0.0,
2025-08-14T23:04:16.157Z,2,GR86-057-57,-5.800000000000001,0.086,-0.128,58.79,4.0,,0.0,0.0,155.81
2025-08-14T23:04:16.200Z,2,GR86-057-57,-5.800000000000001,0.088,-0.108,59.06,4.0,,0.0,0.0,
2025-08-14T23:04:16.244Z,2,GR86-057-57,-5.9,0.123,-0.088,58.83,4.0,,0.0,0.0,
2025-08-14T23:04:16.286Z,2,GR86-057-57,-5.800000000000001,0.096,-0.091,58.23,4.0,,0.0,0.0,
2025-08-14T23:04:16.329Z,2,GR86-057-57,-5.9,0.088,-0.081,57.53,4.0,6120.0,0.0,0.0,
2025-08-14T23:04:16.374Z,2,GR86-057-57,-5.800000000000001,0.112,-0.068,56.93,4.0,,0.0,0.0,156.53
2025-08-14T23:04:16.416Z,2,GR86-057-57,-5.800000000000001,0.138,-0.074,56.41,4.0,,0.0,0.0,
2025-08-14T23:04:16.459Z,2,GR86-057-57,-5.800000000000001,0.151,-0.065,55.2,4.0,,0.0,0.0,
2025-08-14T23:04:16.504Z,2,GR86-057-57,-5.800000000000001,0.11,-0.089,54.79,4.0,,0.0,0.0,
2025-08-14T23:04:16.547Z,2,GR86-057-57,-5.7,0.123,-0.093,53.45,4.0,6181.0,0.0,0.0,
2025-08-14T23:04:16.590Z,2,GR86-057-57,-5.5,0.145,-0.083,45.36,4.0,,0.0,0.0,157.4
2025-08-14T23:04:16.634Z,2,GR86-057-57,-5.0,0.154,-0.086,32.980000000000004,4.0,,0.0,0.0,
2025-08-14T23:04:16.676Z,2,GR86-057-57,-4.3,0.115,-0.098,4.97,4.0,,0.0,0.0,
2025-08-14T23:04:16.719Z,2,GR86-057-57,-4.3,0.066,-0.109,3.83,4.0,,0.0,0.0,
2025-08-14T23:04:16.763Z,2,GR86-057-57,-4.3,-0.112,-0.079,3.5500000000000003,4.0,6217.0,0.0,0.0,
2025-08-14T23:04:16.807Z,2,GR86-057-57,-4.3,-0.23,-0.067,3.3200000000000003,4.0,,0.0,0.0,158.28
2025-08-14T23:04:16.850Z,2,GR86-057-57,-4.2,-0.325,-0.106,3.15,4.0,,0.0,0.0,
2025-08-14T23:04:16.894Z,2,GR86-057-57,-3.3000000000000003,-0.147,-0.066,3.01,4.0,,0.0,0.0,
2025-08-14T23:04:16.936Z,2,GR86-057-57,-1.6,-0.123,-0.115,2.93,4.0,,0.0,0.0,
2025-08-14T23:04:17.023Z,2,GR86-057-57,-0.9,-0.198,-0.086,2.85,4.0,6188.0,4.835,5.19,159.16
2025-08-14T23:04:17.066Z,2,GR86-057-57,-2.7,-0.36,-0.057,2.7,4.0,,17.215,17.06,
2025-08-14T23:04:17.109Z,2,GR86-057-57,-3.0,-0.387,-0.045,2.63,4.0,,19.58,19.58,
2025-08-14T23:04:17.153Z,2,GR86-057-57,-3.0,-0.471,-0.05,2.56,4.0,,21.775,21.745,
2025-08-14T23:04:17.195Z,2,GR86-057-57,-2.6,-0.499,-0.03,2.53,4.0,6221.0,24.02,23.835,
2025-08-14T23:04:17.238Z,2,GR86-057-57,-2.5,-0.488,-0.029,2.5,4.0,,25.455,25.485,159.70000000000002
2025-08-14T23:04:17.281Z,2,GR86-057-57,-2.5,-0.492,-0.027,2.47,4.0,,25.745,25.805,
2025-08-14T23:04:17.324Z,2,GR86-057-57,-1.9,-0.508,-0.035,2.44,4.0,,25.455,25.925,
2025-08-14T23:04:17.367Z,2,GR86-057-57,-1.2000000000000002,-0.523,-0.029,2.44,4.0,,25.455,25.805,
2025-08-14T23:04:17.410Z,2,GR86-057-57,-0.6000000000000001,-0.532,-0.034,2.43,4.0,6039.0,25.485,25.665,
2025-08-14T23:04:17.454Z,2,GR86-057-57,-0.4,-0.549,-0.052,2.42,4.0,,25.805,26.02,158.37
2025-08-14T23:04:17.497Z,2,GR86-057-57,-0.6000000000000001,-0.551,-0.062,2.4,4.0,,26.75,26.875,
2025-08-14T23:04:17.540Z,2,GR86-057-57,-1.1,-0.55,-0.047,2.41,4.0,,28.035,28.185,
2025-08-14T23:04:17.584Z,2,GR86-057-57,-1.2000000000000002,-0.582,-0.064,2.42,4.0,,29.3,29.3,
2025-08-14T23:04:17.627Z,2,GR86-057-57,-1.1,-0.5630000000000001,-0.039,2.41,4.0,5914.0,29.77,29.955,
2025-08-14T23:04:17.670Z,2,GR86-057-57,-0.9,-0.5720000000000001,-0.023,2.43,4.0,,30.335,30.335,155.32
2025-08-14T23:04:17.714Z,2,GR86-057-57,-0.8,-0.604,-0.008,2.44,4.0,,30.365,30.46,
2025-08-14T23:04:17.757Z,2,GR86-057-57,-0.8,-0.631,-0.041,2.43,4.0,,30.335,30.335,
2025-08-14T23:04:17.800Z,2,GR86-057-57,-0.8,-0.627,-0.058,2.44,4.0,,30.365,30.49,
2025-08-14T23:04:17.844Z,2,GR86-057-57,-0.8,-0.625,-0.03,2.44,4.0,5747.0,30.365,30.58,
2025-08-14T23:04:17.887Z,2,GR86-057-57,-0.8,-0.614,-0.058,2.43,4.0,,30.185,30.55,151.75
2025-08-14T23:04:17.930Z,2,GR86-057-57,-0.8,-0.585,-0.038,2.44,4.0,,29.895,30.52,
2025-08-14T23:04:17.974Z,2,GR86-057-57,-0.8,-0.612,-0.001,2.44,4.0,,28.34,29.115,
2025-08-14T23:04:18.016Z,2,GR86-057-57,-0.8,-0.561,0.001,2.44,4.0,,24.17,25.15,
2025-08-14T23:04:18.059Z,2,GR86-057-57,-0.8,-0.482,-0.042,2.44,4.0,5567.0,20.815,21.53,
2025-08-14T23:04:18.104Z,2,GR86-057-57,-0.9,-0.49,-0.018,2.44,4.0,,19.87,20.205,143.9
2025-08-14T23:04:18.147Z,2,GR86-057-57,-1.1,-0.473,-0.043,2.44,4.0,,20.05,20.48,
2025-08-14T23:04:18.190Z,2,GR86-057-57,-1.5,-0.435,-0.015,2.44,4.0,,19.87,20.555,
2025-08-14T23:04:18.234Z,2,GR86-057-57,-1.5,-0.462,0.016,2.44,4.0,,19.52,19.99,
2025-08-14T23:04:18.276Z,2,GR86-057-57,-1.5,-0.473,-0.008,2.44,4.0,5463.0,18.71,19.015,
2025-08-14T23:04:18.319Z,2,GR86-057-57,-1.5,-0.446,-0.045,2.44,4.0,,18.115,18.8,140.02
2025-08-14T23:04:18.363Z,2,GR86-057-57,-1.5,-0.452,-0.033,2.46,4.0,,17.78,18.205,
2025-08-14T23:04:18.406Z,2,GR86-057-57,-1.5,-0.422,-0.034,2.46,4.0,,17.78,18.405,
2025-08-14T23:04:18.449Z,2,GR86-057-57,-1.4,-0.429,0.005,2.47,4.0,,17.55,18.115,
2025-08-14T23:04:18.493Z,2,GR86-057-57,-1.4,-0.447,0.006,2.47,4.0,5325.0,17.245,17.52,
2025-08-14T23:04:18.535Z,2,GR86-057-57,-1.4,-0.437,-0.034,2.47,4.0,,17.09,17.81,136.89
2025-08-14T23:04:18.578Z,2,GR86-057-57,-1.4,-0.414,-0.013,2.47,4.0,,17.335,17.685,
2025-08-14T23:04:18.621Z,2,GR86-057-57,-1.4,-0.44,0.012,2.47,4.0,,18.02,18.205,
2025-08-14T23:04:18.664Z,2,GR86-057-57,-1.4,-0.466,0.001,2.49,4.0,,20.815,20.785,
2025-08-14T23:04:18.707Z,2,GR86-057-57,-1.5,-0.507,-0.017,2.49,4.0,5097.0,22.22,22.28,
2025-08-14T23:04:18.750Z,2,GR86-057-57,-1.7000000000000002,-0.508,-0.042,2.49,4.0,,23.24,23.395,133.93
2025-08-14T23:04:18.794Z,2,GR86-057-57,-1.8,-0.504,-0.02,2.49,4.0,,23.365,23.715,
2025-08-14T23:04:18.836Z,2,GR86-057-57,-1.8,-0.528,-0.017,2.5,4.0,,23.27,23.365,
2025-08-14T23:04:18.879Z,2,GR86-057-57,-1.8,-0.512,-0.038,2.5,4.0,,23.395,23.775,
2025-08-14T23:04:18.965Z,2,GR86-057-57,-1.9,-0.534,-0.047,2.5,4.0,4963.0,23.365,23.775,131.0
2025-08-14T23:04:19.008Z,2,GR86-057-57,-1.9,-0.538,-0.031,2.5,4.0,,23.06,23.395,
2025-08-14T23:04:19.051Z,2,GR86-057-57,-1.9,-0.527,-0.042,2.51,4.0,,22.525,23.21,
2025-08-14T23:04:19.094Z,2,GR86-057-57,-1.9,-0.466,-0.047,2.5,4.0,,20.235,21.15,
2025-08-14T23:04:19.138Z,2,GR86-057-57,-1.9,-0.454,-0.03,2.5,4.0,4837.0,17.305,17.87,
2025-08-14T23:04:19.181Z,2,GR86-057-57,-1.9,-0.404,-0.022,2.51,4.0,,15.685,16.555,127.51
2025-08-14T23:04:19.224Z,2,GR86-057-57,-1.9,-0.423,-0.025,2.5,4.0,,15.93,16.375,
2025-08-14T23:04:19.267Z,2,GR86-057-57,-1.9,-0.388,-0.04,2.5,4.0,,16.025,16.375,
2025-08-14T23:04:19.310Z,2,GR86-057-57,-1.9,-0.42,-0.018,2.5,4.0,,16.025,16.315,
2025-08-14T23:04:19.354Z,2,GR86-057-57,-1.9,-0.401,-0.018,2.5,4.0,4725.0,16.315,16.71,
2025-08-14T23:04:19.396Z,2,GR86-057-57,-1.9,-0.373,-0.025,2.5,4.0,,15.81,16.315,124.13
2025-08-14T23:04:19.439Z,2,GR86-057-57,-1.9,-0.412,0.003,2.5,4.0,,12.21,12.865,
2025-08-14T23:04:19.483Z,2,GR86-057-57,-2.0,-0.22,0.001,2.5,4.0,,2.52,2.885,
2025-08-14T23:04:19.525Z,2,GR86-057-57,-2.1,-0.134,-0.021,2.5,4.0,,0.0,0.0,
2025-08-14T23:04:19.569Z,2,GR86-057-57,-2.1,-0.118,-0.006,2.5,4.0,4610.0,0.0,0.0,
2025-08-14T23:04:19.613Z,2,GR86-057-57,-2.1,-0.151,-0.003,2.5,4.0,,0.0,0.0,121.29
2025-08-14T23:04:19.657Z,2,GR86-057-57,-2.1,-0.126,-0.014,2.5,4.0,,0.0,0.0,
2025-08-14T23:04:19.700Z,2,GR86-057-57,-2.1,-0.104,0.0,2.5,4.0,,0.0,0.0,
2025-08-14T23:04:19.744Z,2,GR86-057-57,-2.1,-0.123,-0.012,2.5,4.0,,0.0,0.0,
2025-08-14T23:04:19.786Z,2,GR86-057-57,-2.1,-0.148,-0.009,2.5,4.0,4543.0,0.0,0.0,
2025-08-14T23:04:19.830Z,2,GR86-057-57,-2.1,-0.122,-0.015,2.5,4.0,,0.0,0.0,118.63
2025-08-14T23:04:19.874Z,2,GR86-057-57,-2.1,-0.118,-0.001,2.5,4.0,,0.0,0.0,
2025-08-14T23:04:19.916Z,2,GR86-057-57,-2.1,-0.136,-0.016,2.5,4.0,,0.0,0.0,
2025-08-14T23:04:19.959Z,2,GR86-057-57,-2.1,-0.11,-0.011,2.5,4.0,,0.0,0.0,
2025-08-14T23:04:20.004Z,2,GR86-057-57,-2.6,-0.113,-0.013,2.5,4.0,4516.0,0.0,0.0,
2025-08-14T23:04:20.090Z,2,GR86-057-57,-2.7,-0.129,-0.013,2.5,4.0,,0.0,0.0,117.63
2025-08-14T23:04:20.134Z,2,GR86-057-57,-2.7,-0.111,-0.018,2.5,4.0,,0.0,0.0,
2025-08-14T23:04:20.177Z,2,GR86-057-57,-2.7,-0.136,-0.016,2.5,4.0,,0.0,0.0,
2025-08-14T23:04:20.220Z,2,GR86-057-57,-2.7,-0.115,-0.025,2.5,4.0,4489.0,0.0,0.0,
2025-08-14T23:04:20.264Z,2,GR86-057-57,-2.7,-0.107,-0.023,2.5,4.0,,0.0,0.0,116.85
2025-08-14T23:04:20.306Z,2,GR86-057-57,-2.7,-0.119,-0.026,2.49,4.0,,0.0,0.0,
2025-08-14T23:04:20.349Z,2,GR86-057-57,-2.7,-0.136,-0.039,2.5,4.0,,0.0,0.0,
2025-08-14T23:04:20.393Z,2,GR86-057-57,-2.7,-0.11,-0.038,2.5,4.0,,0.0,0.0,
2025-08-14T23:04:20.435Z,2,GR86-057-57,-2.7,-0.131,-0.044,2.5,4.0,4459.0,0.0,0.0,
2025-08-14T23:04:20.478Z,2,GR86-057-57,-2.7,-0.119,-0.035,2.5,4.0,,0.0,0.0,116.12
2025-08-14T23:04:20.521Z,2,GR86-057-57,-2.7,-0.111,-0.044,2.5,4.0,,0.0,0.0,
2025-08-14T23:04:20.564Z,2,GR86-057-57,-2.7,-0.112,-0.038,2.5,4.0,,0.0,0.0,
2025-08-14T23:04:20.607Z,2,GR86-057-57,-2.6,-0.135,-0.04,2.5,4.0,,3.585,4.03,
2025-08-14T23:04:20.650Z,2,GR86-057-57,-2.3000000000000003,-0.136,-0.042,2.5,4.0,4405.0,9.215,9.37,
2025-08-14T23:04:20.694Z,2,GR86-057-57,-2.1,-0.292,-0.04,2.5,4.0,,18.145,18.175,115.37
2025-08-14T23:04:20.736Z,2,GR86-057-57,-1.9,-0.459,-0.036,2.51,4.0,,27.18,26.995,
2025-08-14T23:04:20.779Z,2,GR86-057-57,-1.5,-0.61,-0.027,2.5,4.0,,34.395,34.0,
2025-08-14T23:04:20.823Z,2,GR86-057-57,-1.3,-0.708,-0.023,2.5,4.0,,39.4,38.96,
2025-08-14T23:04:20.865Z,2,GR86-057-57,-1.2000000000000002,-0.745,-0.02,2.5,4.0,4382.0,40.47,40.33,
2025-08-14T23:04:20.908Z,2,GR86-057-57,-0.7000000000000001,-0.756,-0.032,2.5,4.0,,40.685,40.5,113.94
2025-08-14T23:04:20.951Z,2,GR86-057-57,-0.1,-0.754,-0.036,2.5,4.0,,40.835,41.11,
2025-08-14T23:04:20.994Z,2,GR86-057-57,1.1,-0.739,-0.025,2.51,4.0,,40.5,40.5,
2025-08-14T23:04:21.038Z,2,GR86-057-57,1.8,-0.764,-0.028,2.5,4.0,,40.835,40.745,
2025-08-14T23:04:21.081Z,2,GR86-057-57,2.3000000000000003,-0.75,-0.009,2.5,4.0,4373.0,40.685,40.835,
2025-08-14T23:04:21.124Z,2,GR86-057-57,2.4000000000000004,-0.745,0.0,2.5,4.0,,40.21,40.365,110.44
2025-08-14T23:04:21.167Z,2,GR86-057-57,2.0,-0.752,-0.012,2.5,4.0,,36.455,37.525,
2025-08-14T23:04:21.210Z,2,GR86-057-57,1.5,-0.616,0.008,2.5,4.0,,28.87,30.015,
2025-08-14T23:04:21.253Z,2,GR86-057-57,1.4,-0.526,-0.013,2.5,4.0,,22.675,23.485,
2025-08-14T23:04:21.296Z,2,GR86-057-57,1.4,-0.443,0.02,2.51,4.0,4122.0,19.9,20.875,
2025-08-14T23:04:21.339Z,2,GR86-057-57,1.4,-0.455,0.007,2.5,4.0,,19.87,20.235,105.41
2025-08-14T23:04:21.383Z,2,GR86-057-57,1.4,-0.447,0.024,2.5,4.0,,20.42,20.905,
2025-08-14T23:04:21.425Z,2,GR86-057-57,1.1,-0.441,0.038,2.5,4.0,,20.6,20.905,
2025-08-14T23:04:21.469Z,2,GR86-057-57,0.8,-0.477,0.023,2.5,4.0,,20.355,21.09,
2025-08-14T23:04:21.513Z,2,GR86-057-57,0.4,-0.44,0.041,2.5,4.0,3803.0,19.61,20.175,
2025-08-14T23:04:21.555Z,2,GR86-057-57,0.3,-0.444,0.019,2.5,4.0,,17.55,18.265,100.75
2025-08-14T23:04:21.599Z,2,GR86-057-57,0.0,-0.364,0.035,2.51,4.0,,14.27,15.03,
2025-08-14T23:04:21.643Z,2,GR86-057-57,0.0,-0.289,0.023,2.5,4.0,,11.095,11.615,
2025-08-14T23:04:21.686Z,2,GR86-057-57,0.0,-0.291,0.03,2.5,4.0,,10.65,11.31,
2025-08-14T23:04:21.730Z,2,GR86-057-57,0.0,-0.267,0.018,2.5,4.0,3686.0,11.155,11.43,
2025-08-14T23:04:21.774Z,2,GR86-057-57,0.0,-0.286,0.019,2.5,4.0,,12.42,12.775,97.54
2025-08-14T23:04:21.816Z,2,GR86-057-57,0.0,-0.302,0.018,2.5,4.0,,13.885,14.145,
2025-08-14T23:04:21.859Z,2,GR86-057-57,0.0,-0.351,0.02,2.5,4.0,,14.91,15.335,
2025-08-14T23:04:21.904Z,2,GR86-057-57,-0.1,-0.339,0.033,2.5,4.0,,15.0,15.595,
2025-08-14T23:04:21.947Z,2,GR86-057-57,-0.3,-0.362,0.007,2.5,4.0,3607.0,15.275,15.625,
2025-08-14T23:04:21.990Z,2,GR86-057-57,-0.4,-0.344,0.031,2.5,4.0,,15.305,15.685,94.9
2025-08-14T23:04:22.034Z,2,GR86-057-57,-0.4,-0.375,0.003,2.5,4.0,,15.565,15.87,
2025-08-14T23:04:22.076Z,2,GR86-057-57,-0.4,-0.356,0.023,2.5,4.0,,15.685,16.025,
2025-08-14T23:04:22.119Z,2,GR86-057-57,-0.4,-0.373,-0.004,2.5,4.0,,15.93,16.19,
2025-08-14T23:04:22.163Z,2,GR86-057-57,-0.5,-0.35,0.009,59.78,4.0,3520.0,16.22,16.71,
2025-08-14T23:04:22.207Z,2,GR86-057-57,-0.6000000000000001,-0.356,0.006,98.47,4.0,,16.375,16.71,92.82
2025-08-14T23:04:22.250Z,2,GR86-057-57,-0.6000000000000001,-0.351,0.012,89.04,4.0,,16.495,17.09,
2025-08-14T23:04:22.293Z,2,GR86-057-57,-0.6000000000000001,-0.334,-0.012,46.11,3.0,,16.375,16.71,
2025-08-14T23:04:22.336Z,2,GR86-057-57,-0.6000000000000001,-0.329,-0.013,6.22,3.0,,16.025,16.71,
2025-08-14T23:04:22.379Z,2,GR86-057-57,-0.6000000000000001,-0.316,0.024,4.58,3.0,3452.0,14.815,15.275,
2025-08-14T23:04:22.423Z,2,GR86-057-57,-0.6000000000000001,-0.379,-0.036,3.9,3.0,,8.18,8.73,90.53
2025-08-14T23:04:22.466Z,2,GR86-057-57,-0.6000000000000001,-0.186,0.017,3.6,3.0,,2.76,3.16,
2025-08-14T23:04:22.509Z,2,GR86-057-57,-0.6000000000000001,-0.089,0.006,3.34,3.0,,0.0,0.0,
2025-08-14T23:04:22.553Z,2,GR86-057-57,-0.6000000000000001,-0.071,-0.012,3.17,3.0,,0.0,0.0,
2025-08-14T23:04:22.595Z,2,GR86-057-57,-0.6000000000000001,-0.122,0.02,3.04,3.0,3665.0,0.0,0.0,
2025-08-14T23:04:22.638Z,2,GR86-057-57,-0.6000000000000001,-0.125,-0.008,2.97,3.0,,0.0,0.0,88.14
2025-08-14T23:04:22.681Z,2,GR86-057-57,-0.6000000000000001,-0.119,0.011,2.88,3.0,,0.0,0.0,
2025-08-14T23:04:22.724Z,2,GR86-057-57,-0.6000000000000001,-0.086,0.027,2.78,3.0,,0.0,0.0,
2025-08-14T23:04:22.767Z,2,GR86-057-57,-0.6000000000000001,-0.114,0.008,2.72,3.0,,0.0,0.0,
2025-08-14T23:04:22.810Z,2,GR86-057-57,-0.6000000000000001,-0.112,0.019,2.64,3.0,3931.0,0.0,0.0,
2025-08-14T23:04:22.854Z,2,GR86-057-57,-0.6000000000000001,-0.123,0.008,2.53,3.0,,0.0,0.0,85.98
2025-08-14T23:04:22.897Z,2,GR86-057-57,-0.6000000000000001,-0.097,0.012,2.44,3.0,,0.0,0.0,
2025-08-14T23:04:22.941Z,2,GR86-057-57,-0.6000000000000001,-0.106,0.022,2.37,3.0,,0.0,0.0,
2025-08-14T23:04:22.984Z,2,GR86-057-57,-0.6000000000000001,-0.106,0.025,2.31,3.0,,0.0,0.0,
2025-08-14T23:04:23.027Z,2,GR86-057-57,-0.6000000000000001,-0.124,0.017,2.31,3.0,3866.0,0.0,0.0,
2025-08-14T23:04:23.070Z,2,GR86-057-57,-0.6000000000000001,-0.102,0.026,2.28,3.0,,0.0,0.0,85.14
2025-08-14T23:04:23.114Z,2,GR86-057-57,-0.6000000000000001,-0.112,0.016,2.29,3.0,,0.0,0.0,
2025-08-14T23:04:23.157Z,2,GR86-057-57,-0.6000000000000001,-0.102,0.017,2.29,3.0,,0.0,0.0,
2025-08-14T23:04:23.200Z,2,GR86-057-57,-0.6000000000000001,-0.115,0.017,2.31,3.0,,0.0,0.0,
2025-08-14T23:04:23.244Z,2,GR86-057-57,-0.6000000000000001,-0.105,0.021,2.31,3.0,3833.0,0.0,0.0,
2025-08-14T23:04:23.287Z,2,GR86-057-57,-0.6000000000000001,-0.118,0.008,4.21,3.0,,0.0,0.0,84.5
2025-08-14T23:04:23.330Z,2,GR86-057-57,-0.6000000000000001,-0.102,0.016,4.3,3.0,,0.0,0.0,
2025-08-14T23:04:23.374Z,2,GR86-057-57,-0.6000000000000001,-0.114,0.01,10.47,3.0,,0.0,0.0,
2025-08-14T23:04:23.416Z,2,GR86-057-57,-0.6000000000000001,-0.115,0.007,20.13,3.0,,0.0,0.0,
2025-08-14T23:04:23.459Z,2,GR86-057-57,-0.6000000000000001,-0.099,0.021,20.26,3.0,3824.0,0.0,0.0,
2025-08-14T23:04:23.504Z,2,GR86-057-57,-0.6000000000000001,-0.049,0.01,21.11,3.0,,0.0,0.0,83.22
2025-08-14T23:04:23.547Z,2,GR86-057-57,-0.6000000000000001,-0.059,0.013,21.39,3.0,,0.0,0.0,
2025-08-14T23:04:23.590Z,2,GR86-057-57,-0.6000000000000001,-0.013,0.007,21.42,3.0,,0.0,0.0,
2025-08-14T23:04:23.634Z,2,GR86-057-57,-0.6000000000000001,0.207,0.028,18.11,3.0,,0.0,0.0,
2025-08-14T23:04:23.677Z,2,GR86-057-57,-0.4,0.168,0.015,20.04,3.0,3791.0,0.0,0.0,
2025-08-14T23:04:23.720Z,2,GR86-057-57,-0.4,0.034,0.039,21.73,3.0,,0.0,0.0,82.63
2025-08-14T23:04:23.764Z,2,GR86-057-57,-0.5,0.023,0.037,21.33,3.0,,0.0,0.0,
2025-08-14T23:04:23.807Z,2,GR86-057-57,-0.5,0.12,0.034,20.07,3.0,,0.0,0.0,
