timestamp,lap,vehicle_id,steering_angle,accx_can,accy_can,ath,gear,nmot,pbrake_f,pbrake_r,speed
2025-08-14T22:46:26.571Z,2,GR86-016-55,-40.0,0.369,-0.428,48.9,2.0,,0.0,0.0,
2025-08-14T22:46:26.614Z,2,GR86-016-55,-40.3,0.415,-0.508,48.88,2.0,,0.0,0.0,
2025-08-14T22:46:26.657Z,2,GR86-016-55,-40.3,0.304,-0.532,53.09,2.0,5320.0,0.0,0.0,
2025-08-14T22:46:26.700Z,2,GR86-016-55,-40.3,0.147,-0.597,79.0,2.0,,0.0,0.0,88.53
2025-08-14T22:46:26.743Z,2,GR86-016-55,-40.7,0.16,-0.634,98.97,2.0,,0.0,0.0,
2025-08-14T22:46:26.787Z,2,GR86-016-55,-40.7,0.236,-0.675,99.96,2.0,,0.0,0.0,
2025-08-14T22:46:26.830Z,2,GR86-016-55,-40.6,0.284,-0.686,100.02,2.0,,0.0,0.0,
2025-08-14T22:46:26.873Z,2,GR86-016-55,-39.900000000000006,0.296,-0.6890000000000001,100.05,2.0,5343.0,0.0,0.0,
2025-08-14T22:46:26.916Z,2,GR86-016-55,-39.0,0.277,-0.663,100.04,2.0,,0.0,0.0,90.4
2025-08-14T22:46:26.962Z,2,GR86-016-55,-37.4,0.244,-0.659,100.04,2.0,,0.0,0.0,
2025-08-14T22:46:27.005Z,2,GR86-016-55,-36.5,0.238,-0.682,100.04,2.0,,0.0,0.0,
2025-08-14T22:46:27.048Z,2,GR86-016-55,-35.9,0.251,-0.641,100.03,2.0,,0.0,0.0,
2025-08-14T22:46:27.091Z,2,GR86-016-55,-35.5,0.26,-0.645,100.02,2.0,5372.0,0.0,0.0,
2025-08-14T22:46:27.134Z,2,GR86-016-55,-35.1,0.267,-0.609,100.03,2.0,,0.0,0.0,92.18
2025-08-14T22:46:27.177Z,2,GR86-016-55,-34.5,0.262,-0.619,100.04,2.0,,0.0,0.0,
2025-08-14T22:46:27.222Z,2,GR86-016-55,-32.300000000000004,0.26,-0.603,100.05,2.0,,0.0,0.0,
2025-08-14T22:46:27.265Z,2,GR86-016-55,-28.700000000000003,0.263,-0.587,100.03,2.0,,0.0,0.0,
2025-08-14T22:46:27.308Z,2,GR86-016-55,-22.6,0.265,-0.56,100.04,2.0,5472.0,0.0,0.0,
2025-08-14T22:46:27.351Z,2,GR86-016-55,-14.6,0.275,-0.499,100.03,2.0,,0.0,0.0,93.66
2025-08-14T22:46:27.394Z,2,GR86-016-55,-4.800000000000001,0.283,-0.432,100.02,2.0,,0.0,0.0,
2025-08-14T22:46:27.437Z,2,GR86-016-55,5.6000000000000005,0.292,-0.304,100.04,2.0,,0.0,0.0,
2025-08-14T22:46:27.480Z,2,GR86-016-55,19.9,0.287,-0.126,100.03,2.0,,0.0,0.0,
2025-08-14T22:46:27.523Z,2,GR86-016-55,28.200000000000003,0.296,0.024,100.05,2.0,5564.0,0.0,0.0,
2025-08-14T22:46:27.566Z,2,GR86-016-55,35.300000000000004,0.273,0.181,100.03,2.0,,0.0,0.0,94.49
2025-08-14T22:46:27.610Z,2,GR86-016-55,41.400000000000006,0.256,0.339,100.05,2.0,,0.0,0.0,
2025-08-14T22:46:27.653Z,2,GR86-016-55,45.7,0.253,0.478,100.02,2.0,,0.0,0.0,
2025-08-14T22:46:27.696Z,2,GR86-016-55,48.1,0.246,0.632,100.06,2.0,,0.0,0.0,
2025-08-14T22:46:27.739Z,2,GR86-016-55,48.400000000000006,0.247,0.748,100.06,2.0,5649.0,0.0,0.0,
2025-08-14T22:46:27.782Z,2,GR86-016-55,45.8,0.252,0.852,100.05,2.0,,0.0,0.0,96.36
2025-08-14T22:46:27.825Z,2,GR86-016-55,41.0,0.254,0.883,100.05,2.0,,0.0,0.0,
2025-08-14T22:46:27.868Z,2,GR86-016-55,33.7,0.269,0.878,100.06,2.0,,0.0,0.0,
2025-08-14T22:46:27.911Z,2,GR86-016-55,28.9,0.261,0.849,100.05,2.0,,0.0,0.0,
2025-08-14T22:46:27.954Z,2,GR86-016-55,28.1,0.278,0.878,100.06,2.0,5810.0,0.0,0.0,
2025-08-14T22:46:27.997Z,2,GR86-016-55,28.0,0.283,0.834,100.06,2.0,,0.0,0.0,98.19
2025-08-14T22:46:28.040Z,2,GR86-016-55,30.5,0.274,0.892,100.06,2.0,,0.0,0.0,
2025-08-14T22:46:28.084Z,2,GR86-016-55,32.0,0.274,0.895,100.05,2.0,,0.0,0.0,
2025-08-14T22:46:28.127Z,2,GR86-016-55,32.7,0.281,0.892,100.06,2.0,,0.0,0.0,
2025-08-14T22:46:28.170Z,2,GR86-016-55,32.7,0.282,0.902,100.04,2.0,5917.0,0.0,0.0,
2025-08-14T22:46:28.213Z,2,GR86-016-55,32.6,0.286,0.811,100.05,2.0,,0.0,0.0,100.94
2025-08-14T22:46:28.256Z,2,GR86-016-55,31.3,0.275,0.8270000000000001,87.52,2.0,,0.0,0.0,
2025-08-14T22:46:28.299Z,2,GR86-016-55,28.5,0.267,0.78,17.240000000000002,2.0,,5.86,5.965,
2025-08-14T22:46:28.342Z,2,GR86-016-55,17.0,0.107,0.6940000000000001,3.47,2.0,,11.37,11.43,
2025-08-14T22:46:28.385Z,2,GR86-016-55,9.7,-0.183,0.654,3.0500000000000003,2.0,5987.0,13.795,13.825,
2025-08-14T22:46:28.428Z,2,GR86-016-55,5.4,-0.344,0.562,2.93,2.0,,15.99,16.22,102.74
2025-08-14T22:46:28.471Z,2,GR86-016-55,3.8,-0.444,0.428,2.86,2.0,,17.96,17.87,
2025-08-14T22:46:28.514Z,2,GR86-016-55,3.7,-0.63,0.396,2.81,2.0,,20.05,20.115,
2025-08-14T22:46:28.557Z,2,GR86-016-55,3.6,-0.595,0.361,2.76,2.0,,22.465,22.37,
2025-08-14T22:46:28.601Z,2,GR86-016-55,3.6,-0.5670000000000001,0.266,2.72,2.0,5675.0,24.765,24.615,
2025-08-14T22:46:28.644Z,2,GR86-016-55,3.6,-0.553,0.267,2.7,2.0,,25.085,25.575,100.73
2025-08-14T22:46:28.687Z,2,GR86-016-55,3.6,-0.6,0.201,2.67,2.0,,25.485,25.605,
2025-08-14T22:46:28.730Z,2,GR86-016-55,3.6,-0.593,0.172,2.64,2.0,,25.745,26.17,
2025-08-14T22:46:28.775Z,2,GR86-016-55,3.5,-0.603,0.146,2.6,2.0,,25.835,25.955,
2025-08-14T22:46:28.818Z,2,GR86-016-55,3.4000000000000004,-0.598,0.099,2.58,2.0,5620.0,25.805,26.05,
2025-08-14T22:46:28.861Z,2,GR86-016-55,2.9000000000000004,-0.603,0.071,2.56,2.0,,25.27,25.955,96.7
2025-08-14T22:46:28.905Z,2,GR86-016-55,1.9,-0.604,0.027,2.53,2.0,,23.425,24.11,
2025-08-14T22:46:28.948Z,2,GR86-016-55,1.0,-0.506,0.031,2.51,2.0,,16.62,17.61,
2025-08-14T22:46:28.991Z,2,GR86-016-55,-0.4,-0.318,0.003,2.48,2.0,,7.325,8.09,
2025-08-14T22:46:29.034Z,2,GR86-016-55,-2.4000000000000004,-0.163,-0.017,2.47,2.0,5119.0,0.0,0.0,
2025-08-14T22:46:29.077Z,2,GR86-016-55,-4.6000000000000005,-0.174,-0.056,2.47,2.0,,0.0,0.0,92.6
2025-08-14T22:46:29.122Z,2,GR86-016-55,-7.1000000000000005,-0.126,-0.087,2.44,2.0,,0.0,0.0,
2025-08-14T22:46:29.165Z,2,GR86-016-55,-7.9,-0.122,-0.088,2.44,2.0,,0.0,0.0,
2025-08-14T22:46:29.208Z,2,GR86-016-55,-8.200000000000001,-0.108,-0.119,2.44,2.0,,0.0,0.0,
2025-08-14T22:46:29.251Z,2,GR86-016-55,-8.200000000000001,-0.13,-0.112,2.44,2.0,5124.0,0.0,0.0,
2025-08-14T22:46:29.294Z,2,GR86-016-55,-8.3,-0.134,-0.131,2.44,2.0,,0.0,0.0,91.34
2025-08-14T22:46:29.337Z,2,GR86-016-55,-8.5,-0.144,-0.108,2.44,2.0,,0.0,0.0,
2025-08-14T22:46:29.380Z,2,GR86-016-55,-8.700000000000001,-0.117,-0.14,2.44,2.0,,0.0,0.0,
2025-08-14T22:46:29.423Z,2,GR86-016-55,-8.8,-0.123,-0.128,4.22,2.0,,0.0,0.0,
2025-08-14T22:46:29.466Z,2,GR86-016-55,-9.1,-0.116,-0.143,19.1,2.0,5061.0,0.0,0.0,
2025-08-14T22:46:29.510Z,2,GR86-016-55,-9.8,-0.127,-0.143,20.31,2.0,,0.0,0.0,90.36
2025-08-14T22:46:29.555Z,2,GR86-016-55,-11.1,-0.114,-0.169,21.1,2.0,,0.0,0.0,
2025-08-14T22:46:29.598Z,2,GR86-016-55,-12.4,-0.057,-0.177,22.81,2.0,,0.0,0.0,
2025-08-14T22:46:29.641Z,2,GR86-016-55,-15.3,-0.065,-0.191,26.95,2.0,,0.0,0.0,
2025-08-14T22:46:29.684Z,2,GR86-016-55,-18.7,-0.037,-0.239,29.26,2.0,5081.0,0.0,0.0,
2025-08-14T22:46:29.727Z,2,GR86-016-55,-24.4,0.185,-0.251,29.72,2.0,,0.0,0.0,89.43
2025-08-14T22:46:29.771Z,2,GR86-016-55,-30.3,0.313,-0.333,29.77,2.0,,0.0,0.0,
2025-08-14T22:46:29.814Z,2,GR86-016-55,-35.5,0.238,-0.397,32.14,2.0,,0.0,0.0,
2025-08-14T22:46:29.857Z,2,GR86-016-55,-39.5,0.12,-0.418,36.65,2.0,,0.0,0.0,
2025-08-14T22:46:29.900Z,2,GR86-016-55,-42.1,0.096,-0.544,46.64,2.0,5165.0,0.0,0.0,
2025-08-14T22:46:29.943Z,2,GR86-016-55,-42.400000000000006,0.17,-0.585,50.99,2.0,,0.0,0.0,88.82000000000001
2025-08-14T22:46:29.987Z,2,GR86-016-55,-42.6,0.234,-0.626,57.01,2.0,,0.0,0.0,
2025-08-14T22:46:30.030Z,2,GR86-016-55,-42.6,0.255,-0.647,77.3,2.0,,0.0,0.0,
2025-08-14T22:46:30.073Z,2,GR86-016-55,-42.7,0.243,-0.63,98.83,2.0,,0.0,0.0,
2025-08-14T22:46:30.116Z,2,GR86-016-55,-42.7,0.233,-0.68,99.96,2.0,5307.0,0.0,0.0,
2025-08-14T22:46:30.159Z,2,GR86-016-55,-42.8,0.234,-0.686,100.04,2.0,,0.0,0.0,89.71000000000001
2025-08-14T22:46:30.202Z,2,GR86-016-55,-42.7,0.244,-0.713,100.05,2.0,,0.0,0.0,
2025-08-14T22:46:30.245Z,2,GR86-016-55,-42.400000000000006,0.26,-0.731,100.05,2.0,,0.0,0.0,
2025-08-14T22:46:30.288Z,2,GR86-016-55,-41.7,0.257,-0.711,100.06,2.0,,0.0,0.0,
2025-08-14T22:46:30.331Z,2,GR86-016-55,-38.2,0.246,-0.6900000000000001,100.05,2.0,5389.0,0.0,0.0,
2025-08-14T22:46:30.374Z,2,GR86-016-55,-34.300000000000004,0.242,-0.682,100.04,2.0,,0.0,0.0,91.92
2025-08-14T22:46:30.417Z,2,GR86-016-55,-31.6,0.246,-0.657,100.04,2.0,,0.0,0.0,
2025-08-14T22:46:30.461Z,2,GR86-016-55,-27.9,0.272,-0.62,100.05,2.0,,0.0,0.0,
2025-08-14T22:46:30.547Z,2,GR86-016-55,-22.0,0.271,-0.527,100.05,2.0,5470.0,0.0,0.0,
2025-08-14T22:46:30.590Z,2,GR86-016-55,-18.5,0.273,-0.497,100.06,2.0,,0.0,0.0,93.63
2025-08-14T22:46:30.633Z,2,GR86-016-55,-14.3,0.265,-0.434,100.04,2.0,,0.0,0.0,
2025-08-14T22:46:30.676Z,2,GR86-016-55,-10.2,0.272,-0.386,100.05,2.0,,0.0,0.0,
2025-08-14T22:46:30.719Z,2,GR86-016-55,-5.7,0.283,-0.323,100.05,2.0,,0.0,0.0,
2025-08-14T22:46:30.762Z,2,GR86-016-55,1.9,0.282,-0.194,100.04,2.0,5553.0,0.0,0.0,
2025-08-14T22:46:30.805Z,2,GR86-016-55,7.300000000000001,0.277,-0.117,100.06,2.0,,0.0,0.0,94.48
2025-08-14T22:46:30.848Z,2,GR86-016-55,12.7,0.273,-0.007,100.04,2.0,,0.0,0.0,
2025-08-14T22:46:30.891Z,2,GR86-016-55,18.0,0.276,0.085,100.06,2.0,,0.0,0.0,
2025-08-14T22:46:30.934Z,2,GR86-016-55,23.5,0.275,0.202,100.06,2.0,,0.0,0.0,
2025-08-14T22:46:30.977Z,2,GR86-016-55,28.5,0.273,0.298,100.04,2.0,5636.0,0.0,0.0,
2025-08-14T22:46:31.022Z,2,GR86-016-55,34.800000000000004,0.265,0.458,100.06,2.0,,0.0,0.0,98.07
2025-08-14T22:46:31.065Z,2,GR86-016-55,37.5,0.257,0.5680000000000001,100.07,2.0,,0.0,0.0,
2025-08-14T22:46:31.108Z,2,GR86-016-55,38.6,0.256,0.639,100.05,2.0,,0.0,0.0,
2025-08-14T22:46:31.151Z,2,GR86-016-55,38.7,0.245,0.729,100.06,2.0,,0.0,0.0,
2025-08-14T22:46:31.194Z,2,GR86-016-55,38.6,0.258,0.766,100.05,2.0,5757.0,0.0,0.0,
2025-08-14T22:46:31.237Z,2,GR86-016-55,38.1,0.255,0.809,100.05,2.0,,0.0,0.0,99.94
2025-08-14T22:46:31.280Z,2,GR86-016-55,34.1,0.255,0.8320000000000001,100.04,2.0,,0.0,0.0,
2025-08-14T22:46:31.325Z,2,GR86-016-55,28.3,0.277,0.8170000000000001,100.05,2.0,,0.0,0.0,
2025-08-14T22:46:31.368Z,2,GR86-016-55,24.3,0.262,0.803,100.05,2.0,,0.0,0.0,
2025-08-14T22:46:31.411Z,2,GR86-016-55,23.4,0.271,0.79,100.05,2.0,5905.0,0.0,0.0,
2025-08-14T22:46:31.454Z,2,GR86-016-55,23.3,0.274,0.756,100.03,2.0,,0.0,0.0,102.58
2025-08-14T22:46:31.497Z,2,GR86-016-55,25.3,0.264,0.798,100.04,2.0,,0.0,0.0,
2025-08-14T22:46:31.541Z,2,GR86-016-55,28.8,0.272,0.793,100.03,2.0,,0.0,0.0,
2025-08-14T22:46:31.584Z,2,GR86-016-55,30.0,0.269,0.799,100.07,2.0,,0.0,0.0,
2025-08-14T22:46:31.627Z,2,GR86-016-55,30.5,0.258,0.8220000000000001,100.06,2.0,6086.0,0.0,0.0,
2025-08-14T22:46:31.670Z,2,GR86-016-55,30.700000000000003,0.281,0.768,100.05,2.0,,0.0,0.0,103.2
2025-08-14T22:46:31.713Z,2,GR86-016-55,30.8,0.263,0.785,100.05,2.0,,0.0,0.0,
2025-08-14T22:46:31.756Z,2,GR86-016-55,30.8,0.265,0.769,100.04,2.0,,0.0,0.0,
2025-08-14T22:46:31.799Z,2,GR86-016-55,30.8,0.261,0.759,100.06,2.0,,0.0,0.0,
2025-08-14T22:46:31.842Z,2,GR86-016-55,30.0,0.251,0.782,100.07,2.0,6174.0,0.0,0.0,
2025-08-14T22:46:31.885Z,2,GR86-016-55,28.4,0.264,0.773,100.07,2.0,,0.0,0.0,104.88
2025-08-14T22:46:31.928Z,2,GR86-016-55,26.700000000000003,0.27,0.754,100.05,2.0,,0.0,0.0,
2025-08-14T22:46:31.971Z,2,GR86-016-55,25.1,0.255,0.768,100.05,2.0,,0.0,0.0,
2025-08-14T22:46:32.014Z,2,GR86-016-55,23.5,0.272,0.709,100.06,2.0,,0.0,0.0,
2025-08-14T22:46:32.057Z,2,GR86-016-55,21.200000000000003,0.27,0.722,100.06,2.0,6277.0,0.0,0.0,
2025-08-14T22:46:32.101Z,2,GR86-016-55,16.5,0.258,0.66,100.06,2.0,,0.0,0.0,106.52
2025-08-14T22:46:32.145Z,2,GR86-016-55,11.7,0.28,0.614,100.06,2.0,,0.0,0.0,
2025-08-14T22:46:32.188Z,2,GR86-016-55,5.4,0.264,0.537,100.05,2.0,,0.0,0.0,
2025-08-14T22:46:32.231Z,2,GR86-016-55,-1.9,0.288,0.457,100.06,2.0,,0.0,0.0,
2025-08-14T22:46:32.274Z,2,GR86-016-55,-8.5,0.282,0.343,100.05,2.0,6362.0,0.0,0.0,
2025-08-14T22:46:32.317Z,2,GR86-016-55,-14.4,0.266,0.245,100.05,2.0,,0.0,0.0,108.16
2025-08-14T22:46:32.362Z,2,GR86-016-55,-22.8,0.257,0.053,100.04,2.0,,0.0,0.0,
2025-08-14T22:46:32.405Z,2,GR86-016-55,-27.5,0.274,-0.055,100.05,2.0,,0.0,0.0,
2025-08-14T22:46:32.448Z,2,GR86-016-55,-30.8,0.254,-0.203,100.03,2.0,,0.0,0.0,
2025-08-14T22:46:32.491Z,2,GR86-016-55,-32.800000000000004,0.261,-0.35,100.05,2.0,6437.0,0.0,0.0,
2025-08-14T22:46:32.534Z,2,GR86-016-55,-33.4,0.238,-0.415,100.04,2.0,,0.0,0.0,109.97
2025-08-14T22:46:32.578Z,2,GR86-016-55,-33.5,0.219,-0.528,100.05,2.0,,0.0,0.0,
2025-08-14T22:46:32.622Z,2,GR86-016-55,-33.5,0.22,-0.621,100.03,2.0,,0.0,0.0,
2025-08-14T22:46:32.665Z,2,GR86-016-55,-33.300000000000004,0.23,-0.665,100.03,2.0,,0.0,0.0,
2025-08-14T22:46:32.708Z,2,GR86-016-55,-33.0,0.223,-0.6940000000000001,100.06,2.0,6553.0,0.0,0.0,
2025-08-14T22:46:32.751Z,2,GR86-016-55,-32.800000000000004,0.239,-0.749,100.03,2.0,,0.0,0.0,111.66
2025-08-14T22:46:32.837Z,2,GR86-016-55,-32.1,0.216,-0.753,100.04,2.0,,0.0,0.0,
2025-08-14T22:46:32.880Z,2,GR86-016-55,-31.200000000000003,0.213,-0.749,100.04,2.0,,0.0,0.0,
2025-08-14T22:46:32.923Z,2,GR86-016-55,-30.700000000000003,0.231,-0.76,100.0,2.0,6663.0,0.0,0.0,
2025-08-14T22:46:32.966Z,2,GR86-016-55,-29.9,0.23,-0.753,100.0,2.0,,0.0,0.0,113.18
2025-08-14T22:46:33.009Z,2,GR86-016-55,-28.6,0.228,-0.736,100.02,2.0,,0.0,0.0,
2025-08-14T22:46:33.052Z,2,GR86-016-55,-27.200000000000003,0.239,-0.715,100.03,2.0,,0.0,0.0,
2025-08-14T22:46:33.095Z,2,GR86-016-55,-25.8,0.235,-0.7000000000000001,100.01,2.0,,0.0,0.0,
2025-08-14T22:46:33.138Z,2,GR86-016-55,-24.4,0.218,-0.6890000000000001,100.0,2.0,6751.0,0.0,0.0,
2025-08-14T22:46:33.182Z,2,GR86-016-55,-22.6,0.227,-0.683,100.02,2.0,,0.0,0.0,115.58
2025-08-14T22:46:33.225Z,2,GR86-016-55,-21.8,0.247,-0.654,100.01,2.0,,0.0,0.0,
2025-08-14T22:46:33.268Z,2,GR86-016-55,-21.700000000000003,0.231,-0.614,99.98,2.0,,0.0,0.0,
2025-08-14T22:46:33.311Z,2,GR86-016-55,-21.6,0.236,-0.611,100.01,2.0,,0.0,0.0,
2025-08-14T22:46:33.354Z,2,GR86-016-55,-21.6,0.244,-0.5700000000000001,100.01,2.0,6839.0,0.0,0.0,
2025-08-14T22:46:33.397Z,2,GR86-016-55,-21.4,0.227,-0.557,100.0,2.0,,0.0,0.0,116.09
2025-08-14T22:46:33.440Z,2,GR86-016-55,-20.3,0.223,-0.537,100.03,2.0,,0.0,0.0,
2025-08-14T22:46:33.484Z,2,GR86-016-55,-18.2,0.235,-0.543,99.97,2.0,,0.0,0.0,
2025-08-14T22:46:33.527Z,2,GR86-016-55,-15.2,0.248,-0.488,99.98,2.0,,0.0,0.0,
2025-08-14T22:46:33.571Z,2,GR86-016-55,-11.7,0.24,-0.446,100.02,2.0,6913.0,0.0,0.0,
2025-08-14T22:46:33.614Z,2,GR86-016-55,-7.5,0.242,-0.41,99.97,2.0,,0.0,0.0,117.73
2025-08-14T22:46:33.657Z,2,GR86-016-55,-2.9000000000000004,0.233,-0.329,99.98,2.0,,0.0,0.0,
2025-08-14T22:46:33.700Z,2,GR86-016-55,3.0,0.243,-0.211,100.02,2.0,,0.0,0.0,
2025-08-14T22:46:33.744Z,2,GR86-016-55,5.1000000000000005,0.243,-0.156,100.0,2.0,,0.0,0.0,
2025-08-14T22:46:33.787Z,2,GR86-016-55,6.1000000000000005,0.258,-0.061,100.0,2.0,6987.0,0.0,0.0,
2025-08-14T22:46:33.832Z,2,GR86-016-55,6.4,0.247,0.007,99.98,2.0,,0.0,0.0,121.27
2025-08-14T22:46:33.875Z,2,GR86-016-55,6.5,0.232,0.068,99.97,2.0,,0.0,0.0,
2025-08-14T22:46:33.918Z,2,GR86-016-55,6.5,0.228,0.138,100.01,2.0,,0.0,0.0,
2025-08-14T22:46:33.961Z,2,GR86-016-55,6.7,0.232,0.206,99.97,2.0,,2.245,2.395,
2025-08-14T22:46:34.005Z,2,GR86-016-55,7.0,0.217,0.261,100.01,2.0,7072.0,7.92,7.95,
2025-08-14T22:46:34.048Z,2,GR86-016-55,7.300000000000001,0.069,0.293,100.01,2.0,,12.775,12.59,123.0
2025-08-14T22:46:34.091Z,2,GR86-016-55,7.6,-0.005,0.298,100.02,2.0,,16.435,16.495,
2025-08-14T22:46:34.134Z,2,GR86-016-55,7.800000000000001,-0.105,0.334,100.02,2.0,,17.490000000000002,17.685,
2025-08-14T22:46:34.177Z,2,GR86-016-55,7.800000000000001,-0.116,0.323,99.97,2.0,,18.145,18.235,
2025-08-14T22:46:34.222Z,2,GR86-016-55,7.300000000000001,-0.109,0.336,100.03,2.0,7181.0,17.93,18.055,
2025-08-14T22:46:34.265Z,2,GR86-016-55,7.2,-0.049,0.317,99.98,2.0,,17.150000000000002,17.745,123.0
2025-08-14T22:46:34.308Z,2,GR86-016-55,7.1000000000000005,-0.068,0.322,99.99,2.0,,15.93,16.435,
2025-08-14T22:46:34.351Z,2,GR86-016-55,7.0,-0.072,0.311,99.96,2.0,,16.055,16.22,
2025-08-14T22:46:34.394Z,2,GR86-016-55,6.7,-0.041,0.292,60.34,2.0,,17.305,17.61,
2025-08-14T22:46:34.437Z,2,GR86-016-55,6.4,-0.098,0.286,4.47,2.0,7155.0,19.825,19.93,
2025-08-14T22:46:34.480Z,2,GR86-016-55,6.0,-0.246,0.263,2.87,2.0,,22.675,23.025,122.37
2025-08-14T22:46:34.523Z,2,GR86-016-55,5.9,-0.594,0.275,2.74,2.0,,24.08,24.02,
2025-08-14T22:46:34.566Z,2,GR86-016-55,5.800000000000001,-0.501,0.231,2.67,2.0,,25.925,25.925,
2025-08-14T22:46:34.609Z,2,GR86-016-55,5.7,-0.781,0.187,2.63,2.0,,27.055,27.315,
2025-08-14T22:46:34.652Z,2,GR86-016-55,5.6000000000000005,-0.789,0.216,2.6,2.0,6518.0,28.305,28.305,
2025-08-14T22:46:34.695Z,2,GR86-016-55,5.5,-0.6940000000000001,0.165,2.58,2.0,,28.58,28.965,120.88
2025-08-14T22:46:34.739Z,2,GR86-016-55,5.4,-0.6940000000000001,0.158,2.5500000000000003,2.0,,28.37,28.58,
2025-08-14T22:46:34.782Z,2,GR86-016-55,5.4,-0.708,0.144,2.5500000000000003,2.0,,28.49,28.645,
2025-08-14T22:46:34.825Z,2,GR86-016-55,5.4,-0.6880000000000001,0.125,2.53,2.0,,28.69,28.81,
2025-08-14T22:46:34.868Z,2,GR86-016-55,5.300000000000001,-0.676,0.121,2.51,2.0,6472.0,28.37,28.9,
2025-08-14T22:46:34.912Z,2,GR86-016-55,5.2,-0.7010000000000001,0.119,2.51,2.0,,28.645,28.69,116.98
2025-08-14T22:46:34.955Z,2,GR86-016-55,5.2,-0.675,0.095,2.52,2.0,,28.69,28.995,
2025-08-14T22:46:34.998Z,2,GR86-016-55,5.2,-0.6960000000000001,0.113,2.5,2.0,,28.52,28.69,
2025-08-14T22:46:35.041Z,2,GR86-016-55,5.1000000000000005,-0.718,0.087,2.5,2.0,,28.84,28.87,
2025-08-14T22:46:35.085Z,2,GR86-016-55,5.1000000000000005,-0.677,0.074,2.5,2.0,6204.0,29.3,29.465,
2025-08-14T22:46:35.128Z,2,GR86-016-55,5.1000000000000005,-0.6890000000000001,0.063,2.5,2.0,,29.835,29.895,112.14
2025-08-14T22:46:35.171Z,2,GR86-016-55,5.1000000000000005,-0.738,0.046,2.5,2.0,,31.48,31.3,
2025-08-14T22:46:35.214Z,2,GR86-016-55,5.1000000000000005,-0.746,0.039,2.49,2.0,,32.505,32.685,
2025-08-14T22:46:35.257Z,2,GR86-016-55,5.1000000000000005,-0.772,0.042,2.49,2.0,,33.62,33.585,
2025-08-14T22:46:35.300Z,2,GR86-016-55,5.1000000000000005,-0.791,0.042,2.49,2.0,5943.0,35.645,35.34,
2025-08-14T22:46:35.343Z,2,GR86-016-55,5.1000000000000005,-0.8210000000000001,0.028,2.5,2.0,,36.275,36.335,107.57
2025-08-14T22:46:35.387Z,2,GR86-016-55,5.1000000000000005,-0.858,0.022,2.5,2.0,,37.355,37.02,
2025-08-14T22:46:35.430Z,2,GR86-016-55,5.0,-0.8260000000000001,0.018,2.5,2.0,,36.67,37.11,
2025-08-14T22:46:35.473Z,2,GR86-016-55,5.0,-0.8250000000000001,0.024,4.62,2.0,,31.985,33.1,
2025-08-14T22:46:35.516Z,2,GR86-016-55,5.0,-0.611,0.018,18.59,2.0,5620.0,20.845,22.065,
2025-08-14T22:46:35.559Z,2,GR86-016-55,5.0,-0.431,0.023,22.02,2.0,,8.91,9.6,102.36
2025-08-14T22:46:35.602Z,2,GR86-016-55,5.0,-0.154,0.037,25.27,2.0,,0.0,0.0,
2025-08-14T22:46:35.645Z,2,GR86-016-55,5.0,-0.052,0.05,28.81,2.0,,0.0,0.0,
2025-08-14T22:46:35.688Z,2,GR86-016-55,5.0,-0.081,0.059,33.14,2.0,,0.0,0.0,
2025-08-14T22:46:35.731Z,2,GR86-016-55,5.0,0.031,0.084,36.46,2.0,5488.0,0.0,0.0,
2025-08-14T22:46:35.774Z,2,GR86-016-55,4.9,0.298,0.123,36.44,2.0,,0.0,0.0,97.39
2025-08-14T22:46:35.817Z,2,GR86-016-55,4.9,0.369,0.103,36.22,2.0,,0.0,0.0,
2025-08-14T22:46:35.860Z,2,GR86-016-55,4.9,0.183,0.157,41.08,2.0,,0.0,0.0,
2025-08-14T22:46:35.904Z,2,GR86-016-55,4.9,0.108,0.134,48.55,2.0,,0.0,0.0,
2025-08-14T22:46:35.947Z,2,GR86-016-55,4.800000000000001,0.143,0.153,52.81,2.0,5736.0,0.0,0.0,
2025-08-14T22:46:35.990Z,2,GR86-016-55,4.800000000000001,0.211,0.16,56.64,2.0,,0.0,0.0,97.08
2025-08-14T22:46:36.033Z,2,GR86-016-55,4.800000000000001,0.248,0.15,69.18,2.0,,0.0,0.0,
2025-08-14T22:46:36.076Z,2,GR86-016-55,4.800000000000001,0.253,0.147,96.91,2.0,,0.0,0.0,
2025-08-14T22:46:36.119Z,2,GR86-016-55,4.800000000000001,0.27,0.136,99.85,2.0,,0.0,0.0,
2025-08-14T22:46:36.162Z,2,GR86-016-55,4.7,0.266,0.145,100.08,2.0,5763.0,0.0,0.0,
2025-08-14T22:46:36.205Z,2,GR86-016-55,4.7,0.259,0.144,100.06,2.0,,0.0,0.0,98.04
2025-08-14T22:46:36.248Z,2,GR86-016-55,4.7,0.269,0.15,100.05,2.0,,0.0,0.0,
2025-08-14T22:46:36.291Z,2,GR86-016-55,4.6000000000000005,0.267,0.157,100.06,2.0,,0.0,0.0,
2025-08-14T22:46:36.334Z,2,GR86-016-55,4.6000000000000005,0.277,0.161,100.05,2.0,,0.0,0.0,
2025-08-14T22:46:36.377Z,2,GR86-016-55,4.5,0.264,0.157,100.06,2.0,5831.0,0.0,0.0,
2025-08-14T22:46:36.422Z,2,GR86-016-55,4.3,0.266,0.159,100.07,2.0,,0.0,0.0,101.33
2025-08-14T22:46:36.465Z,2,GR86-016-55,4.0,0.264,0.156,100.05,2.0,,0.0,0.0,
2025-08-14T22:46:36.508Z,2,GR86-016-55,3.3000000000000003,0.254,0.162,100.05,2.0,,0.0,0.0,
2025-08-14T22:46:36.551Z,2,GR86-016-55,2.6,0.269,0.146,100.05,2.0,,0.0,0.0,
2025-08-14T22:46:36.594Z,2,GR86-016-55,2.2,0.266,0.155,100.06,2.0,5941.0,0.0,0.0,
2025-08-14T22:46:36.637Z,2,GR86-016-55,2.0,0.27,0.129,100.03,2.0,,0.0,0.0,103.23
2025-08-14T22:46:36.680Z,2,GR86-016-55,2.0,0.276,0.12,100.05,2.0,,0.0,0.0,
2025-08-14T22:46:36.725Z,2,GR86-016-55,2.0,0.269,0.116,100.05,2.0,,0.0,0.0,
2025-08-14T22:46:36.768Z,2,GR86-016-55,2.0,0.26,0.095,100.07,2.0,,0.0,0.0,
2025-08-14T22:46:36.811Z,2,GR86-016-55,2.0,0.255,0.104,100.05,2.0,6049.0,0.0,0.0,
2025-08-14T22:46:36.854Z,2,GR86-016-55,2.0,0.257,0.105,100.05,2.0,,0.0,0.0,105.06
2025-08-14T22:46:36.897Z,2,GR86-016-55,2.3000000000000003,0.28,0.114,100.06,2.0,,0.0,0.0,
2025-08-14T22:46:36.940Z,2,GR86-016-55,3.7,0.269,0.14,100.06,2.0,,0.0,0.0,
2025-08-14T22:46:36.984Z,2,GR86-016-55,4.5,0.248,0.135,100.06,2.0,,0.0,0.0,
2025-08-14T22:46:37.027Z,2,GR86-016-55,4.800000000000001,0.261,0.151,100.07,2.0,6254.0,0.0,0.0,
2025-08-14T22:46:37.070Z,2,GR86-016-55,4.800000000000001,0.256,0.168,100.06,2.0,,0.0,0.0,106.93
2025-08-14T22:46:37.113Z,2,GR86-016-55,4.7,0.257,0.18,100.07,2.0,,0.0,0.0,
2025-08-14T22:46:37.156Z,2,GR86-016-55,4.7,0.272,0.196,100.06,2.0,,0.0,0.0,
2025-08-14T22:46:37.199Z,2,GR86-016-55,4.6000000000000005,0.254,0.192,100.07,2.0,,0.0,0.0,
2025-08-14T22:46:37.242Z,2,GR86-016-55,4.4,0.25,0.197,100.05,2.0,6357.0,0.0,0.0,
2025-08-14T22:46:37.285Z,2,GR86-016-55,4.4,0.242,0.192,100.07,2.0,,0.0,0.0,108.83
2025-08-14T22:46:37.328Z,2,GR86-016-55,4.4,0.257,0.201,100.07,2.0,,0.0,0.0,
2025-08-14T22:46:37.414Z,2,GR86-016-55,4.4,0.271,0.191,100.05,2.0,,0.0,0.0,
2025-08-14T22:46:37.457Z,2,GR86-016-55,4.3,0.259,0.187,100.06,2.0,6474.0,0.0,0.0,
2025-08-14T22:46:37.500Z,2,GR86-016-55,4.4,0.248,0.198,100.07,2.0,,0.0,0.0,110.59
2025-08-14T22:46:37.544Z,2,GR86-016-55,4.4,0.246,0.211,100.06,2.0,,0.0,0.0,
2025-08-14T22:46:37.587Z,2,GR86-016-55,4.3,0.265,0.203,100.06,2.0,,0.0,0.0,
2025-08-14T22:46:37.630Z,2,GR86-016-55,4.3,0.264,0.189,100.04,2.0,,0.0,0.0,
2025-08-14T22:46:37.673Z,2,GR86-016-55,4.1000000000000005,0.245,0.193,100.08,2.0,6572.0,0.0,0.0,
2025-08-14T22:46:37.716Z,2,GR86-016-55,2.3000000000000003,0.244,0.187,100.07,2.0,,0.0,0.0,112.36
2025-08-14T22:46:37.762Z,2,GR86-016-55,-1.0,0.265,0.152,100.04,2.0,,0.0,0.0,
2025-08-14T22:46:37.805Z,2,GR86-016-55,-2.8000000000000003,0.262,0.118,100.06,2.0,,0.0,0.0,
2025-08-14T22:46:37.848Z,2,GR86-016-55,-4.4,0.252,0.104,100.04,2.0,,0.0,0.0,
2025-08-14T22:46:37.891Z,2,GR86-016-55,-6.4,0.243,0.055,100.06,2.0,6667.0,0.0,0.0,
2025-08-14T22:46:37.934Z,2,GR86-016-55,-8.200000000000001,0.241,0.01,100.04,2.0,,0.0,0.0,114.1
2025-08-14T22:46:37.977Z,2,GR86-016-55,-9.8,0.256,-0.017,100.05,2.0,,0.0,0.0,
2025-08-14T22:46:38.022Z,2,GR86-016-55,-10.8,0.254,-0.081,100.03,2.0,,0.0,0.0,
2025-08-14T22:46:38.065Z,2,GR86-016-55,-10.8,0.251,-0.116,100.07,2.0,,0.0,0.0,
2025-08-14T22:46:38.108Z,2,GR86-016-55,-10.8,0.224,-0.136,100.07,2.0,6764.0,0.0,0.0,
2025-08-14T22:46:38.151Z,2,GR86-016-55,-10.7,0.225,-0.156,100.06,2.0,,0.0,0.0,115.79
2025-08-14T22:46:38.194Z,2,GR86-016-55,-10.6,0.244,-0.18,100.06,2.0,,0.0,0.0,
2025-08-14T22:46:38.237Z,2,GR86-016-55,-10.5,0.244,-0.198,100.03,2.0,,0.0,0.0,
2025-08-14T22:46:38.280Z,2,GR86-016-55,-10.4,0.24,-0.202,100.04,2.0,,0.0,0.0,
2025-08-14T22:46:38.323Z,2,GR86-016-55,-10.2,0.251,-0.2,100.04,2.0,6868.0,0.0,0.0,
2025-08-14T22:46:38.366Z,2,GR86-016-55,-9.7,0.22,-0.209,100.0,2.0,,0.0,0.0,117.46
2025-08-14T22:46:38.410Z,2,GR86-016-55,-9.0,-0.066,-0.155,100.05,3.0,,0.0,0.0,
2025-08-14T22:46:38.453Z,2,GR86-016-55,-8.9,0.388,-0.103,100.05,3.0,,0.0,0.0,
2025-08-14T22:46:38.496Z,2,GR86-016-55,-8.0,0.603,-0.259,100.02,3.0,,0.0,0.0,
2025-08-14T22:46:38.539Z,2,GR86-016-55,-7.300000000000001,0.326,-0.168,100.03,3.0,6612.0,0.0,0.0,
2025-08-14T22:46:38.582Z,2,GR86-016-55,-7.300000000000001,0.04,-0.147,100.05,3.0,,0.0,0.0,119.18
2025-08-14T22:46:38.625Z,2,GR86-016-55,-8.1,0.132,-0.193,100.05,3.0,,0.0,0.0,
2025-08-14T22:46:38.668Z,2,GR86-016-55,-8.6,0.246,-0.12,100.02,3.0,,0.0,0.0,
2025-08-14T22:46:38.711Z,2,GR86-016-55,-8.6,0.249,-0.185,100.05,3.0,,0.0,0.0,
2025-08-14T22:46:38.754Z,2,GR86-016-55,-8.6,0.211,-0.165,100.04,3.0,5617.0,0.0,0.0,
2025-08-14T22:46:38.797Z,2,GR86-016-55,-8.5,0.18,-0.134,100.03,3.0,,0.0,0.0,120.77
2025-08-14T22:46:38.840Z,2,GR86-016-55,-8.6,0.197,-0.168,100.03,3.0,,0.0,0.0,
2025-08-14T22:46:38.884Z,2,GR86-016-55,-8.6,0.187,-0.142,100.03,3.0,,0.0,0.0,
2025-08-14T22:46:38.927Z,2,GR86-016-55,-8.6,0.21,-0.188,100.03,3.0,,0.0,0.0,
2025-08-14T22:46:38.970Z,2,GR86-016-55,-8.6,0.218,-0.182,100.02,3.0,5756.0,0.0,0.0,
2025-08-14T22:46:39.013Z,2,GR86-016-55,-8.8,0.191,-0.175,100.03,3.0,,0.0,0.0,122.35
2025-08-14T22:46:39.056Z,2,GR86-016-55,-9.4,0.183,-0.182,100.03,3.0,,0.0,0.0,
2025-08-14T22:46:39.099Z,2,GR86-016-55,-9.6,0.189,-0.177,100.04,3.0,,0.0,0.0,
2025-08-14T22:46:39.142Z,2,GR86-016-55,-9.9,0.199,-0.183,100.02,3.0,,0.0,0.0,
2025-08-14T22:46:39.185Z,2,GR86-016-55,-9.9,0.204,-0.195,100.03,3.0,5820.0,0.0,0.0,
2025-08-14T22:46:39.228Z,2,GR86-016-55,-9.6,0.199,-0.203,100.03,3.0,,0.0,0.0,124.91
2025-08-14T22:46:39.271Z,2,GR86-016-55,-9.5,0.204,-0.206,100.03,3.0,,0.0,0.0,
2025-08-14T22:46:39.314Z,2,GR86-016-55,-8.5,0.196,-0.19,100.02,3.0,,0.0,0.0,
2025-08-14T22:46:39.357Z,2,GR86-016-55,-6.800000000000001,0.181,-0.166,98.08,3.0,,8.33,8.425,
2025-08-14T22:46:39.400Z,2,GR86-016-55,-3.8,-0.145,-0.153,5.65,3.0,5914.0,21.06,20.815,
2025-08-14T22:46:39.443Z,2,GR86-016-55,-1.9,-0.293,-0.131,3.06,3.0,,25.805,25.485,126.3
2025-08-14T22:46:39.486Z,2,GR86-016-55,-0.5,-0.47,-0.093,2.86,3.0,,26.875,26.84,
2025-08-14T22:46:39.529Z,2,GR86-016-55,0.4,-0.668,-0.029,2.79,3.0,,27.085,27.47,
2025-08-14T22:46:39.572Z,2,GR86-016-55,1.3,-0.658,-0.052,2.73,3.0,,26.995,27.055,
2025-08-14T22:46:39.658Z,2,GR86-016-55,3.0,-0.7020000000000001,0.023,2.68,3.0,5962.0,27.18,27.59,123.56
2025-08-14T22:46:39.701Z,2,GR86-016-55,3.9,-0.674,-0.004,2.64,3.0,,27.15,27.56,
2025-08-14T22:46:39.744Z,2,GR86-016-55,4.0,-0.681,0.039,2.62,3.0,,27.345,27.085,
2025-08-14T22:46:39.787Z,2,GR86-016-55,4.0,-0.681,0.026,2.61,3.0,,26.965,27.345,
2025-08-14T22:46:39.830Z,2,GR86-016-55,4.0,-0.659,0.057,2.6,3.0,5397.0,27.255,27.68,
2025-08-14T22:46:39.875Z,2,GR86-016-55,3.9,-0.674,0.077,2.58,3.0,,27.59,27.345,119.53
2025-08-14T22:46:39.918Z,2,GR86-016-55,3.9,-0.67,0.068,2.57,3.0,,27.405,27.56,
2025-08-14T22:46:39.961Z,2,GR86-016-55,3.8,-0.68,0.11,2.5500000000000003,3.0,,27.5,27.775,
2025-08-14T22:46:40.004Z,2,GR86-016-55,3.8,-0.655,0.114,2.53,3.0,,27.62,27.68,
2025-08-14T22:46:40.047Z,2,GR86-016-55,3.7,-0.659,0.129,2.52,3.0,5182.0,27.5,27.375,
2025-08-14T22:46:40.090Z,2,GR86-016-55,3.7,-0.659,0.135,2.51,3.0,,27.62,28.035,115.12
2025-08-14T22:46:40.134Z,2,GR86-016-55,3.7,-0.661,0.13,2.49,3.0,,27.745,27.68,
2025-08-14T22:46:40.177Z,2,GR86-016-55,3.6,-0.683,0.142,2.48,3.0,,27.59,27.925,
2025-08-14T22:46:40.222Z,2,GR86-016-55,3.6,-0.678,0.135,2.48,3.0,,27.59,28.0,
2025-08-14T22:46:40.265Z,2,GR86-016-55,3.5,-0.641,0.138,2.48,3.0,4961.0,25.515,25.925,
2025-08-14T22:46:40.308Z,2,GR86-016-55,3.5,-0.5750000000000001,0.127,2.47,3.0,,17.93,18.555,110.47
2025-08-14T22:46:40.351Z,2,GR86-016-55,3.4000000000000004,-0.368,0.121,2.48,3.0,,7.735,8.3,
2025-08-14T22:46:40.394Z,2,GR86-016-55,3.3000000000000003,-0.161,0.124,2.47,3.0,,0.0,0.0,
2025-08-14T22:46:40.437Z,2,GR86-016-55,3.3000000000000003,-0.147,0.108,2.47,3.0,,0.0,0.0,
2025-08-14T22:46:40.480Z,2,GR86-016-55,3.2,-0.117,0.106,2.48,3.0,4833.0,0.0,0.0,
2025-08-14T22:46:40.523Z,2,GR86-016-55,3.2,-0.101,0.092,2.47,3.0,,0.0,0.0,106.4
2025-08-14T22:46:40.566Z,2,GR86-016-55,3.2,-0.126,0.103,2.47,3.0,,0.0,0.0,
2025-08-14T22:46:40.610Z,2,GR86-016-55,3.1,-0.12,0.089,2.47,3.0,,0.0,0.0,
2025-08-14T22:46:40.655Z,2,GR86-016-55,3.1,-0.122,0.085,2.47,3.0,,0.0,0.0,
2025-08-14T22:46:40.698Z,2,GR86-016-55,3.0,-0.128,0.084,2.48,3.0,4823.0,0.0,0.0,
2025-08-14T22:46:40.741Z,2,GR86-016-55,3.0,-0.119,0.073,2.47,3.0,,0.0,0.0,105.9
2025-08-14T22:46:40.784Z,2,GR86-016-55,2.9000000000000004,-0.124,0.079,2.47,3.0,,0.0,0.0,
2025-08-14T22:46:40.828Z,2,GR86-016-55,2.9000000000000004,-0.119,0.079,2.47,3.0,,0.0,0.0,
2025-08-14T22:46:40.871Z,2,GR86-016-55,2.9000000000000004,-0.112,0.078,2.47,3.0,,0.0,0.0,
2025-08-14T22:46:40.914Z,2,GR86-016-55,2.7,-0.124,0.078,2.47,3.0,4790.0,0.0,0.0,
2025-08-14T22:46:40.957Z,2,GR86-016-55,2.5,-0.117,0.077,2.47,3.0,,0.0,0.0,105.04
2025-08-14T22:46:41.000Z,2,GR86-016-55,1.8,-0.122,0.076,4.0,3.0,,0.0,0.0,
2025-08-14T22:46:41.043Z,2,GR86-016-55,1.3,-0.122,0.071,11.87,3.0,,0.0,0.0,
2025-08-14T22:46:41.086Z,2,GR86-016-55,1.1,-0.108,0.057,19.11,3.0,,0.0,0.0,
2025-08-14T22:46:41.129Z,2,GR86-016-55,0.9,-0.115,0.056,20.53,3.0,4745.0,0.0,0.0,
2025-08-14T22:46:41.172Z,2,GR86-016-55,0.8,-0.053,0.044,20.82,3.0,,0.0,0.0,104.16
2025-08-14T22:46:41.215Z,2,GR86-016-55,0.8,-0.075,0.051,21.16,3.0,,0.0,0.0,
2025-08-14T22:46:41.258Z,2,GR86-016-55,0.7000000000000001,-0.056,0.052,21.37,3.0,,0.0,0.0,
2025-08-14T22:46:41.301Z,2,GR86-016-55,0.7000000000000001,0.014,0.037,22.37,3.0,,0.0,0.0,
2025-08-14T22:46:41.345Z,2,GR86-016-55,0.7000000000000001,0.276,0.055,22.42,3.0,4745.0,0.0,0.0,
2025-08-14T22:46:41.388Z,2,GR86-016-55,0.7000000000000001,0.173,0.02,23.29,3.0,,0.0,0.0,103.34
2025-08-14T22:46:41.431Z,2,GR86-016-55,0.7000000000000001,0.023,0.053,25.7,3.0,,0.0,0.0,
2025-08-14T22:46:41.474Z,2,GR86-016-55,0.7000000000000001,-0.012,0.048,26.8,3.0,,0.0,0.0,
2025-08-14T22:46:41.517Z,2,GR86-016-55,0.7000000000000001,0.097,0.037,26.86,3.0,,0.0,0.0,
2025-08-14T22:46:41.562Z,2,GR86-016-55,0.2,0.175,0.043,26.53,3.0,4732.0,0.0,0.0,
2025-08-14T22:46:41.605Z,2,GR86-016-55,-0.3,0.117,0.032,26.4,3.0,,0.0,0.0,102.77
2025-08-14T22:46:41.648Z,2,GR86-016-55,-0.4,0.093,0.03,26.37,3.0,,0.0,0.0,
2025-08-14T22:46:41.691Z,2,GR86-016-55,-0.7000000000000001,0.094,0.029,26.36,3.0,,0.0,0.0,
2025-08-14T22:46:41.734Z,2,GR86-016-55,-0.8,0.134,0.026,26.34,3.0,,0.0,0.0,
2025-08-14T22:46:41.777Z,2,GR86-016-55,-0.8,0.123,0.023,26.35,3.0,4818.0,0.0,0.0,
2025-08-14T22:46:41.822Z,2,GR86-016-55,-0.8,0.104,0.02,26.35,3.0,,0.0,0.0,103.97
2025-08-14T22:46:41.865Z,2,GR86-016-55,-0.8,0.118,0.016,25.02,3.0,,0.0,0.0,
2025-08-14T22:46:41.908Z,2,GR86-016-55,-0.8,0.118,0.02,17.18,3.0,,0.0,0.0,
2025-08-14T22:46:41.951Z,2,GR86-016-55,-0.8,0.118,0.016,4.29,3.0,,0.0,0.0,
2025-08-14T22:46:41.994Z,2,GR86-016-55,-0.8,0.064,0.013,4.22,3.0,4866.0,0.0,0.0,
2025-08-14T22:46:42.037Z,2,GR86-016-55,-0.8,-0.104,0.034,3.89,3.0,,0.0,0.0,104.75
2025-08-14T22:46:42.080Z,2,GR86-016-55,-0.8,-0.201,-0.015,3.16,3.0,,0.0,0.0,
2025-08-14T22:46:42.125Z,2,GR86-016-55,-0.8,-0.268,0.025,3.0,3.0,,0.0,0.0,
2025-08-14T22:46:42.168Z,2,GR86-016-55,-0.8,-0.155,0.022,2.93,3.0,,0.0,0.0,
2025-08-14T22:46:42.211Z,2,GR86-016-55,-0.8,-0.042,-0.017,2.89,3.0,4777.0,0.0,0.0,
2025-08-14T22:46:42.254Z,2,GR86-016-55,-0.8,-0.082,0.018,2.86,3.0,,0.0,0.0,104.95
2025-08-14T22:46:42.297Z,2,GR86-016-55,-0.8,-0.107,-0.008,2.8000000000000003,3.0,,0.0,0.0,
2025-08-14T22:46:42.341Z,2,GR86-016-55,-0.8,-0.141,0.001,2.73,3.0,,0.0,0.0,
2025-08-14T22:46:42.428Z,2,GR86-016-55,-0.8,-0.093,-0.008,2.6,3.0,4754.0,0.0,0.0,
2025-08-14T22:46:42.471Z,2,GR86-016-55,-0.8,-0.112,-0.001,2.57,3.0,,0.0,0.0,104.05
2025-08-14T22:46:42.514Z,2,GR86-016-55,-0.8,-0.12,-0.004,2.5500000000000003,3.0,,0.0,0.0,
2025-08-14T22:46:42.557Z,2,GR86-016-55,-0.8,-0.123,-0.007,2.52,3.0,,0.0,0.0,
2025-08-14T22:46:42.600Z,2,GR86-016-55,-0.8,-0.108,0.007,2.48,3.0,,0.0,0.0,
2025-08-14T22:46:42.644Z,2,GR86-016-55,-0.8,-0.106,0.004,2.47,3.0,4711.0,0.0,1.925,
2025-08-14T22:46:42.687Z,2,GR86-016-55,-0.8,-0.145,0.007,2.47,3.0,,4.6850000000000005,4.625,103.25
2025-08-14T22:46:42.730Z,2,GR86-016-55,-0.8,-0.224,0.01,2.45,3.0,,7.05,6.9,
2025-08-14T22:46:42.773Z,2,GR86-016-55,-0.8,-0.261,0.006,2.45,3.0,,8.36,8.485,
2025-08-14T22:46:42.816Z,2,GR86-016-55,-0.8,-0.267,0.0,2.44,3.0,,8.700000000000001,8.73,
2025-08-14T22:46:42.859Z,2,GR86-016-55,-0.8,-0.253,0.003,2.45,3.0,4657.0,8.395,8.485,
2025-08-14T22:46:42.902Z,2,GR86-016-55,-0.7000000000000001,-0.288,0.007,2.43,3.0,,8.36,8.76,102.09
2025-08-14T22:46:42.945Z,2,GR86-016-55,-0.4,-0.28,-0.002,2.43,3.0,,8.36,8.455,
2025-08-14T22:46:42.988Z,2,GR86-016-55,-0.4,-0.265,0.008,2.43,3.0,,8.120000000000001,8.21,
2025-08-14T22:46:43.031Z,2,GR86-016-55,-0.4,-0.26,-0.004,2.43,3.0,,7.705,7.8,
2025-08-14T22:46:43.074Z,2,GR86-016-55,-0.4,-0.246,0.003,2.44,3.0,4562.0,5.995,6.24,
2025-08-14T22:46:43.117Z,2,GR86-016-55,-0.4,-0.211,-0.005,2.44,3.0,,2.075,2.335,100.05
2025-08-14T22:46:43.161Z,2,GR86-016-55,-0.4,-0.11,-0.003,2.43,3.0,,0.0,0.0,
2025-08-14T22:46:43.205Z,2,GR86-016-55,-0.4,-0.115,0.018,2.44,3.0,,0.0,0.0,
2025-08-14T22:46:43.248Z,2,GR86-016-55,-0.4,-0.108,0.021,2.43,3.0,,0.0,0.0,
2025-08-14T22:46:43.291Z,2,GR86-016-55,-0.4,-0.096,0.027,2.44,3.0,4506.0,0.0,0.0,
2025-08-14T22:46:43.334Z,2,GR86-016-55,-0.4,-0.113,0.041,2.45,3.0,,0.0,0.0,98.68
2025-08-14T22:46:43.377Z,2,GR86-016-55,-0.4,-0.101,0.04,2.44,3.0,,0.0,0.0,
2025-08-14T22:46:43.422Z,2,GR86-016-55,-0.3,-0.11,0.047,2.45,3.0,,0.0,0.0,
2025-08-14T22:46:43.465Z,2,GR86-016-55,-0.3,-0.107,0.053,2.44,3.0,,0.0,0.0,
2025-08-14T22:46:43.508Z,2,GR86-016-55,-0.4,-0.1,0.046,2.44,3.0,4464.0,0.0,0.0,
2025-08-14T22:46:43.551Z,2,GR86-016-55,-0.3,-0.117,0.058,2.44,3.0,,0.0,0.0,97.96
2025-08-14T22:46:43.594Z,2,GR86-016-55,-0.3,-0.106,0.044,2.44,3.0,,0.0,0.0,
2025-08-14T22:46:43.637Z,2,GR86-016-55,-0.3,-0.116,0.056,33.79,3.0,,0.0,0.0,
2025-08-14T22:46:43.680Z,2,GR86-016-55,-0.3,-0.108,0.045,97.82,3.0,,0.0,0.0,
2025-08-14T22:46:43.724Z,2,GR86-016-55,-0.3,-0.1,0.066,100.03,3.0,4429.0,0.0,0.0,
2025-08-14T22:46:43.767Z,2,GR86-016-55,-0.4,-0.04,0.037,80.74,2.0,,0.0,0.0,97.19
2025-08-14T22:46:43.810Z,2,GR86-016-55,-0.4,-0.078,0.02,9.88,2.0,,0.0,0.0,
2025-08-14T22:46:43.853Z,2,GR86-016-55,-0.4,-0.393,0.101,3.67,2.0,,0.0,0.0,
2025-08-14T22:46:43.896Z,2,GR86-016-55,-0.5,-0.259,0.058,2.99,2.0,,0.0,0.0,
2025-08-14T22:46:43.939Z,2,GR86-016-55,-0.5,-0.124,0.003,2.86,2.0,4990.0,0.0,0.0,
2025-08-14T22:46:43.982Z,2,GR86-016-55,-0.8,-0.062,0.053,2.79,2.0,,0.0,0.0,96.44
2025-08-14T22:46:44.025Z,2,GR86-016-55,-1.6,-0.116,-0.006,2.74,2.0,,0.0,0.0,
2025-08-14T22:46:44.068Z,2,GR86-016-55,-2.4000000000000004,-0.157,0.009,2.71,2.0,,0.0,0.0,
2025-08-14T22:46:44.111Z,2,GR86-016-55,-3.0,-0.153,-0.002,2.69,2.0,,0.0,0.0,
2025-08-14T22:46:44.154Z,2,GR86-016-55,-3.3000000000000003,-0.142,-0.035,2.66,2.0,5359.0,0.0,0.0,
2025-08-14T22:46:44.197Z,2,GR86-016-55,-3.4000000000000004,-0.132,-0.034,2.63,2.0,,0.0,0.0,95.5
2025-08-14T22:46:44.240Z,2,GR86-016-55,-3.5,-0.134,-0.053,2.6,2.0,,0.0,0.0,
2025-08-14T22:46:44.284Z,2,GR86-016-55,-3.5,-0.127,-0.054,2.57,2.0,,0.0,0.0,
2025-08-14T22:46:44.327Z,2,GR86-016-55,-3.5,-0.132,-0.058,2.5500000000000003,2.0,,0.0,0.0,
2025-08-14T22:46:44.370Z,2,GR86-016-55,-3.5,-0.127,-0.063,2.54,2.0,5291.0,0.0,0.0,
2025-08-14T22:46:44.413Z,2,GR86-016-55,-3.5,-0.134,-0.059,2.52,2.0,,0.0,0.0,94.48
2025-08-14T22:46:44.456Z,2,GR86-016-55,-3.5,-0.129,-0.067,2.5,2.0,,0.0,0.0,
2025-08-14T22:46:44.499Z,2,GR86-016-55,-3.5,-0.138,-0.064,2.49,2.0,,0.0,0.0,
2025-08-14T22:46:44.542Z,2,GR86-016-55,-3.5,-0.136,-0.062,2.47,2.0,,0.0,0.0,
2025-08-14T22:46:44.585Z,2,GR86-016-55,-3.5,-0.127,-0.055,2.47,2.0,5235.0,0.0,0.0,
2025-08-14T22:46:44.628Z,2,GR86-016-55,-3.5,-0.125,-0.055,2.46,2.0,,0.0,0.0,92.72
2025-08-14T22:46:44.671Z,2,GR86-016-55,-3.5,-0.133,-0.051,2.45,2.0,,0.0,0.0,
2025-08-14T22:46:44.714Z,2,GR86-016-55,-3.5,-0.136,-0.05,2.46,2.0,,0.0,0.0,
2025-08-14T22:46:44.757Z,2,GR86-016-55,-3.5,-0.133,-0.042,2.45,2.0,,0.0,0.0,
2025-08-14T22:46:44.800Z,2,GR86-016-55,-3.5,-0.128,-0.048,3.02,2.0,5189.0,0.0,0.0,
2025-08-14T22:46:44.844Z,2,GR86-016-55,-3.5,-0.123,-0.042,4.05,2.0,,0.0,0.0,91.86
2025-08-14T22:46:44.887Z,2,GR86-016-55,-3.5,-0.128,-0.044,4.5200000000000005,2.0,,0.0,0.0,
2025-08-14T22:46:44.930Z,2,GR86-016-55,-3.5,-0.132,-0.046,4.68,2.0,,0.0,0.0,
2025-08-14T22:46:44.974Z,2,GR86-016-55,-3.5,-0.138,-0.037,4.83,2.0,,0.0,0.0,
2025-08-14T22:46:45.017Z,2,GR86-016-55,-3.4000000000000004,-0.127,-0.037,7.65,2.0,5147.0,0.0,0.0,
2025-08-14T22:46:45.060Z,2,GR86-016-55,-3.4000000000000004,-0.113,-0.023,14.96,2.0,,0.0,0.0,90.98
2025-08-14T22:46:45.103Z,2,GR86-016-55,-3.4000000000000004,-0.088,-0.027,16.86,2.0,,0.0,0.0,
2025-08-14T22:46:45.147Z,2,GR86-016-55,-3.3000000000000003,-0.061,-0.012,17.89,2.0,,0.0,0.0,
2025-08-14T22:46:45.190Z,2,GR86-016-55,-3.3000000000000003,-0.092,-0.01,19.78,2.0,,0.0,0.0,
2025-08-14T22:46:45.234Z,2,GR86-016-55,-3.4000000000000004,-0.087,-0.018,20.75,2.0,5054.0,0.0,0.0,
2025-08-14T22:46:45.277Z,2,GR86-016-55,-3.4000000000000004,-0.057,-0.012,21.0,2.0,,0.0,0.0,90.17
2025-08-14T22:46:45.322Z,2,GR86-016-55,-3.3000000000000003,-0.042,-0.019,22.02,2.0,,0.0,0.0,
2025-08-14T22:46:45.365Z,2,GR86-016-55,-3.3000000000000003,0.087,-0.012,22.17,2.0,,0.0,0.0,
2025-08-14T22:46:45.408Z,2,GR86-016-55,-3.4000000000000004,0.272,-0.003,21.5,2.0,,0.0,0.0,
2025-08-14T22:46:45.451Z,2,GR86-016-55,-3.4000000000000004,0.213,-0.024,21.76,2.0,5324.0,0.0,0.0,
2025-08-14T22:46:45.494Z,2,GR86-016-55,-3.4000000000000004,0.086,0.009,22.07,2.0,,0.0,0.0,89.64
2025-08-14T22:46:45.537Z,2,GR86-016-55,-3.3000000000000003,0.003,-0.005,22.1,2.0,,0.0,0.0,
2025-08-14T22:46:45.582Z,2,GR86-016-55,-3.4000000000000004,0.075,0.006,22.1,2.0,,0.0,0.0,
2025-08-14T22:46:45.625Z,2,GR86-016-55,-3.4000000000000004,0.13,-0.002,22.14,2.0,,0.0,0.0,
2025-08-14T22:46:45.668Z,2,GR86-016-55,-3.4000000000000004,0.139,-0.011,22.12,2.0,5238.0,0.0,0.0,
2025-08-14T22:46:45.712Z,2,GR86-016-55,-3.4000000000000004,0.104,-0.007,22.1,2.0,,0.0,0.0,90.2
2025-08-14T22:46:45.755Z,2,GR86-016-55,-3.5,0.082,-0.021,22.1,2.0,,0.0,0.0,
2025-08-14T22:46:45.798Z,2,GR86-016-55,-4.2,0.078,-0.022,22.07,2.0,,0.0,0.0,
2025-08-14T22:46:45.841Z,2,GR86-016-55,-6.7,0.088,-0.051,22.04,2.0,,0.0,0.0,
2025-08-14T22:46:45.885Z,2,GR86-016-55,-8.700000000000001,0.102,-0.068,22.04,2.0,5236.0,0.0,0.0,
2025-08-14T22:46:45.928Z,2,GR86-016-55,-10.5,0.092,-0.08,22.02,2.0,,0.0,0.0,90.9
2025-08-14T22:46:45.971Z,2,GR86-016-55,-11.8,0.095,-0.107,21.97,2.0,,0.0,0.0,
2025-08-14T22:46:46.014Z,2,GR86-016-55,-12.2,0.091,-0.134,21.95,2.0,,0.0,0.0,
2025-08-14T22:46:46.057Z,2,GR86-016-55,-12.4,0.091,-0.148,21.95,2.0,,0.0,0.0,
2025-08-14T22:46:46.101Z,2,GR86-016-55,-13.5,0.088,-0.168,21.95,2.0,5269.0,0.0,0.0,
2025-08-14T22:46:46.145Z,2,GR86-016-55,-14.4,0.088,-0.166,21.96,2.0,,0.0,0.0,91.62
2025-08-14T22:46:46.188Z,2,GR86-016-55,-15.1,0.086,-0.184,21.98,2.0,,0.0,0.0,
2025-08-14T22:46:46.231Z,2,GR86-016-55,-15.5,0.086,-0.197,21.96,2.0,,0.0,0.0,
2025-08-14T22:46:46.274Z,2,GR86-016-55,-15.7,0.087,-0.216,21.96,2.0,,0.0,0.0,
2025-08-14T22:46:46.317Z,2,GR86-016-55,-15.9,0.08,-0.234,22.15,2.0,5312.0,0.0,0.0,
2025-08-14T22:46:46.360Z,2,GR86-016-55,-16.7,0.085,-0.261,22.4,2.0,,0.0,0.0,92.37
2025-08-14T22:46:46.403Z,2,GR86-016-55,-17.7,0.088,-0.273,22.48,2.0,,0.0,0.0,
2025-08-14T22:46:46.446Z,2,GR86-016-55,-19.0,0.091,-0.283,22.55,2.0,,0.0,0.0,
2025-08-14T22:46:46.489Z,2,GR86-016-55,-20.4,0.081,-0.293,22.6,2.0,,0.0,0.0,
2025-08-14T22:46:46.532Z,2,GR86-016-55,-21.8,0.078,-0.315,22.67,2.0,5367.0,0.0,0.0,
2025-08-14T22:46:46.575Z,2,GR86-016-55,-22.700000000000003,0.078,-0.329,22.68,2.0,,0.0,0.0,93.09
2025-08-14T22:46:46.618Z,2,GR86-016-55,-23.3,0.081,-0.348,22.72,2.0,,0.0,0.0,
2025-08-14T22:46:46.661Z,2,GR86-016-55,-24.6,0.087,-0.361,22.76,2.0,,0.0,0.0,
2025-08-14T22:46:46.704Z,2,GR86-016-55,-26.0,0.089,-0.38,22.8,2.0,,0.0,0.0,
2025-08-14T22:46:46.747Z,2,GR86-016-55,-27.700000000000003,0.078,-0.418,22.82,2.0,5407.0,0.0,0.0,
2025-08-14T22:46:46.790Z,2,GR86-016-55,-29.8,0.073,-0.432,22.82,2.0,,0.0,0.0,93.76
2025-08-14T22:46:46.833Z,2,GR86-016-55,-32.300000000000004,0.073,-0.48,22.81,2.0,,0.0,0.0,
2025-08-14T22:46:46.876Z,2,GR86-016-55,-34.800000000000004,0.083,-0.505,22.81,2.0,,0.0,0.0,
2025-08-14T22:46:46.919Z,2,GR86-016-55,-37.1,0.083,-0.542,22.8,2.0,,0.0,0.0,
2025-08-14T22:46:46.962Z,2,GR86-016-55,-39.0,0.063,-0.595,22.76,2.0,5449.0,0.0,0.0,
2025-08-14T22:46:47.005Z,2,GR86-016-55,-39.400000000000006,0.062,-0.619,22.73,2.0,,0.0,0.0,94.46
2025-08-14T22:46:47.048Z,2,GR86-016-55,-39.400000000000006,0.057,-0.623,22.76,2.0,,0.0,0.0,
2025-08-14T22:46:47.091Z,2,GR86-016-55,-39.400000000000006,0.067,-0.653,22.9,2.0,,0.0,0.0,
2025-08-14T22:46:47.135Z,2,GR86-016-55,-39.400000000000006,0.069,-0.653,22.95,2.0,,0.0,0.0,
2025-08-14T22:46:47.178Z,2,GR86-016-55,-39.400000000000006,0.065,-0.663,23.12,2.0,5494.0,0.0,0.0,
2025-08-14T22:46:47.222Z,2,GR86-016-55,-39.400000000000006,0.065,-0.674,23.48,2.0,,0.0,0.0,96.39
2025-08-14T22:46:47.265Z,2,GR86-016-55,-39.5,0.07,-0.683,23.58,2.0,,0.0,0.0,
2025-08-14T22:46:47.308Z,2,GR86-016-55,-39.6,0.078,-0.6910000000000001,23.57,2.0,,0.0,0.0,
2025-08-14T22:46:47.351Z,2,GR86-016-55,-39.7,0.072,-0.704,23.7,2.0,,0.0,0.0,
2025-08-14T22:46:47.394Z,2,GR86-016-55,-39.7,0.065,-0.7010000000000001,24.11,2.0,5524.0,0.0,0.0,
2025-08-14T22:46:47.437Z,2,GR86-016-55,-39.7,0.071,-0.707,24.26,2.0,,0.0,0.0,97.33
2025-08-14T22:46:47.480Z,2,GR86-016-55,-39.8,0.08,-0.675,24.47,2.0,,0.0,0.0,
2025-08-14T22:46:47.525Z,2,GR86-016-55,-39.900000000000006,0.082,-0.68,24.57,2.0,,0.0,0.0,
2025-08-14T22:46:47.568Z,2,GR86-016-55,-39.900000000000006,0.076,-0.6960000000000001,24.72,2.0,,0.0,0.0,
2025-08-14T22:46:47.611Z,2,GR86-016-55,-40.0,0.079,-0.7020000000000001,25.27,2.0,5567.0,0.0,0.0,
2025-08-14T22:46:47.654Z,2,GR86-016-55,-40.0,0.082,-0.706,26.38,2.0,,0.0,0.0,97.88
2025-08-14T22:46:47.697Z,2,GR86-016-55,-40.0,0.09,-0.6960000000000001,26.89,2.0,,0.0,0.0,
2025-08-14T22:46:47.740Z,2,GR86-016-55,-40.0,0.095,-0.677,27.36,2.0,,0.0,0.0,
2025-08-14T22:46:47.785Z,2,GR86-016-55,-40.0,0.1,-0.6990000000000001,27.75,2.0,,0.0,0.0,
2025-08-14T22:46:47.828Z,2,GR86-016-55,-40.0,0.107,-0.6920000000000001,28.1,2.0,5661.0,0.0,0.0,
2025-08-14T22:46:47.871Z,2,GR86-016-55,-40.0,0.107,-0.705,28.29,2.0,,0.0,0.0,98.54
2025-08-14T22:46:47.914Z,2,GR86-016-55,-40.0,0.111,-0.712,28.36,2.0,,0.0,0.0,
2025-08-14T22:46:47.957Z,2,GR86-016-55,-40.1,0.114,-0.729,28.43,2.0,,0.0,0.0,
2025-08-14T22:46:48.000Z,2,GR86-016-55,-40.3,0.115,-0.6990000000000001,28.62,2.0,,0.0,0.0,
2025-08-14T22:46:48.043Z,2,GR86-016-55,-40.6,0.115,-0.6900000000000001,28.72,2.0,5711.0,0.0,0.0,
2025-08-14T22:46:48.087Z,2,GR86-016-55,-40.900000000000006,0.111,-0.726,28.87,2.0,,0.0,0.0,99.3
2025-08-14T22:46:48.130Z,2,GR86-016-55,-41.0,0.105,-0.714,29.19,2.0,,0.0,0.0,
2025-08-14T22:46:48.173Z,2,GR86-016-55,-41.1,0.114,-0.751,29.45,2.0,,0.0,0.0,
2025-08-14T22:46:48.216Z,2,GR86-016-55,-41.2,0.125,-0.727,29.73,2.0,,0.0,0.0,
2025-08-14T22:46:48.259Z,2,GR86-016-55,-41.6,0.116,-0.746,29.91,2.0,5766.0,0.0,0.0,
2025-08-14T22:46:48.302Z,2,GR86-016-55,-42.0,0.117,-0.756,30.21,2.0,,0.0,0.0,100.1
2025-08-14T22:46:48.345Z,2,GR86-016-55,-42.1,0.129,-0.757,30.31,2.0,,0.0,0.0,
2025-08-14T22:46:48.388Z,2,GR86-016-55,-42.2,0.127,-0.764,30.4,2.0,,0.0,0.0,
2025-08-14T22:46:48.431Z,2,GR86-016-55,-42.400000000000006,0.123,-0.746,30.49,2.0,,0.0,0.0,
2025-08-14T22:46:48.474Z,2,GR86-016-55,-42.6,0.113,-0.759,30.73,2.0,5826.0,0.0,0.0,
2025-08-14T22:46:48.517Z,2,GR86-016-55,-42.7,0.119,-0.749,31.21,2.0,,0.0,0.0,100.93
2025-08-14T22:46:48.562Z,2,GR86-016-55,-42.7,0.115,-0.776,32.480000000000004,2.0,,0.0,0.0,
2025-08-14T22:46:48.605Z,2,GR86-016-55,-42.7,0.113,-0.8220000000000001,33.21,2.0,,0.0,0.0,
2025-08-14T22:46:48.648Z,2,GR86-016-55,-42.7,0.111,-0.754,34.29,2.0,,0.0,0.0,
2025-08-14T22:46:48.734Z,2,GR86-016-55,-42.6,0.11,-0.6960000000000001,35.99,2.0,5870.0,0.0,0.0,101.77
2025-08-14T22:46:48.777Z,2,GR86-016-55,-42.1,0.123,-0.803,36.25,2.0,,0.0,0.0,
2025-08-14T22:46:48.822Z,2,GR86-016-55,-40.8,0.126,-0.81,36.53,2.0,,0.0,0.0,
2025-08-14T22:46:48.865Z,2,GR86-016-55,-40.0,0.173,-0.806,36.73,2.0,,0.0,0.0,
2025-08-14T22:46:48.908Z,2,GR86-016-55,-39.900000000000006,0.163,-0.745,37.03,2.0,5948.0,0.0,0.0,
2025-08-14T22:46:48.951Z,2,GR86-016-55,-40.2,0.157,-0.768,37.21,2.0,,0.0,0.0,102.6
2025-08-14T22:46:48.994Z,2,GR86-016-55,-40.2,0.142,-0.734,37.64,2.0,,0.0,0.0,
2025-08-14T22:46:49.037Z,2,GR86-016-55,-39.5,0.132,-0.773,38.28,2.0,,0.0,0.0,
2025-08-14T22:46:49.080Z,2,GR86-016-55,-38.0,0.158,-0.776,38.85,2.0,,0.0,0.0,
2025-08-14T22:46:49.123Z,2,GR86-016-55,-36.6,0.167,-0.759,39.09,2.0,5990.0,0.0,0.0,
2025-08-14T22:46:49.167Z,2,GR86-016-55,-35.9,0.164,-0.706,39.15,2.0,,0.0,0.0,103.58
2025-08-14T22:46:49.210Z,2,GR86-016-55,-35.6,0.163,-0.731,39.17,2.0,,0.0,0.0,
2025-08-14T22:46:49.296Z,2,GR86-016-55,-35.9,0.15,-0.684,39.24,2.0,,0.0,0.0,
2025-08-14T22:46:49.339Z,2,GR86-016-55,-37.0,0.17,-0.7030000000000001,39.67,2.0,6051.0,0.0,0.0,
2025-08-14T22:46:49.382Z,2,GR86-016-55,-39.400000000000006,0.173,-0.7020000000000001,40.03,2.0,,0.0,0.0,104.57
2025-08-14T22:46:49.425Z,2,GR86-016-55,-41.1,0.175,-0.712,41.19,2.0,,0.0,0.0,
2025-08-14T22:46:49.511Z,2,GR86-016-55,-42.2,0.153,-0.7020000000000001,45.68,2.0,,0.0,0.0,
2025-08-14T22:46:49.554Z,2,GR86-016-55,-42.6,0.16,-0.747,69.24,2.0,6104.0,0.0,0.0,
2025-08-14T22:46:49.597Z,2,GR86-016-55,-42.2,0.18,-0.749,97.44,2.0,,0.0,0.0,104.63
2025-08-14T22:46:49.640Z,2,GR86-016-55,-42.2,0.209,-0.764,100.06,2.0,,0.0,0.0,
2025-08-14T22:46:49.683Z,2,GR86-016-55,-43.0,0.24,-0.8,100.06,2.0,,0.0,0.0,
2025-08-14T22:46:49.726Z,2,GR86-016-55,-43.900000000000006,0.245,-0.806,100.05,2.0,,0.0,0.0,
2025-08-14T22:46:49.769Z,2,GR86-016-55,-44.1,0.222,-0.849,100.05,2.0,6219.0,0.0,0.0,
2025-08-14T22:46:49.812Z,2,GR86-016-55,-43.5,0.232,-0.836,100.04,2.0,,0.0,0.0,106.58
2025-08-14T22:46:49.855Z,2,GR86-016-55,-41.400000000000006,0.213,-0.836,100.06,2.0,,0.0,0.0,
2025-08-14T22:46:49.898Z,2,GR86-016-55,-36.8,0.227,-0.861,100.06,2.0,,0.0,0.0,
2025-08-14T22:46:49.941Z,2,GR86-016-55,-30.3,0.241,-0.794,100.05,2.0,,0.0,0.0,
2025-08-14T22:46:49.985Z,2,GR86-016-55,-30.1,0.252,-0.75,100.06,2.0,6312.0,0.0,0.0,
2025-08-14T22:46:50.028Z,2,GR86-016-55,-34.9,0.235,-0.797,100.07,2.0,,0.0,0.0,109.51
2025-08-14T22:46:50.071Z,2,GR86-016-55,-41.400000000000006,0.227,-0.8150000000000001,100.07,2.0,,0.0,0.0,
2025-08-14T22:46:50.114Z,2,GR86-016-55,-45.3,0.205,-0.886,100.05,2.0,,0.0,0.0,
2025-08-14T22:46:50.157Z,2,GR86-016-55,-45.8,0.223,-0.907,100.06,2.0,,0.0,0.0,
2025-08-14T22:46:50.200Z,2,GR86-016-55,-39.3,0.252,-0.876,100.06,2.0,6410.0,0.0,0.0,
2025-08-14T22:46:50.243Z,2,GR86-016-55,-30.6,0.244,-0.789,100.06,2.0,,0.0,0.0,110.84
2025-08-14T22:46:50.286Z,2,GR86-016-55,-24.0,0.224,-0.801,100.07,2.0,,0.0,0.0,
2025-08-14T22:46:50.329Z,2,GR86-016-55,-21.700000000000003,0.238,-0.732,100.05,2.0,,0.0,0.0,
2025-08-14T22:46:50.372Z,2,GR86-016-55,-21.8,0.236,-0.743,100.04,2.0,,0.0,0.0,
2025-08-14T22:46:50.415Z,2,GR86-016-55,-24.200000000000003,0.249,-0.756,100.07,2.0,6491.0,0.0,0.0,
2025-08-14T22:46:50.458Z,2,GR86-016-55,-28.4,0.266,-0.715,100.05,2.0,,0.0,0.0,111.89
2025-08-14T22:46:50.501Z,2,GR86-016-55,-35.9,0.237,-0.733,100.06,2.0,,0.0,0.0,
2025-08-14T22:46:50.544Z,2,GR86-016-55,-40.900000000000006,0.212,-0.785,100.07,2.0,,0.0,0.0,
2025-08-14T22:46:50.587Z,2,GR86-016-55,-44.3,0.222,-0.787,100.05,2.0,,0.0,0.0,
2025-08-14T22:46:50.632Z,2,GR86-016-55,-44.900000000000006,0.224,-0.758,100.06,2.0,6626.0,0.0,0.0,
2025-08-14T22:46:50.675Z,2,GR86-016-55,-43.900000000000006,0.228,-0.75,100.06,2.0,,0.0,0.0,112.68
2025-08-14T22:46:50.718Z,2,GR86-016-55,-41.7,0.23,-0.747,100.04,2.0,,0.0,0.0,
2025-08-14T22:46:50.761Z,2,GR86-016-55,-37.0,0.213,-0.742,100.04,2.0,,0.0,0.0,
2025-08-14T22:46:50.805Z,2,GR86-016-55,-36.3,0.229,-0.765,100.06,2.0,,0.0,0.0,
2025-08-14T22:46:50.848Z,2,GR86-016-55,-37.0,0.23,-0.78,100.06,2.0,6728.0,0.0,0.0,
2025-08-14T22:46:50.891Z,2,GR86-016-55,-38.7,0.228,-0.78,100.06,2.0,,0.0,0.0,114.98
2025-08-14T22:46:50.934Z,2,GR86-016-55,-39.8,0.219,-0.808,100.06,2.0,,0.0,0.0,
2025-08-14T22:46:50.977Z,2,GR86-016-55,-40.0,0.232,-0.733,100.05,2.0,,0.0,0.0,
2025-08-14T22:46:51.022Z,2,GR86-016-55,-40.0,0.175,-0.68,100.06,2.0,,0.0,0.0,
2025-08-14T22:46:51.065Z,2,GR86-016-55,-40.0,0.136,-0.644,100.06,2.0,6817.0,0.0,0.0,
2025-08-14T22:46:51.108Z,2,GR86-016-55,-38.7,0.147,-0.59,100.04,2.0,,0.0,0.0,116.63
2025-08-14T22:46:51.151Z,2,GR86-016-55,-36.4,0.115,-0.49,100.03,2.0,,0.0,0.0,
2025-08-14T22:46:51.194Z,2,GR86-016-55,-30.6,0.147,-0.517,92.07,2.0,,0.0,0.0,
2025-08-14T22:46:51.237Z,2,GR86-016-55,-24.700000000000003,0.121,-0.498,90.61,2.0,,0.0,0.0,
2025-08-14T22:46:51.280Z,2,GR86-016-55,-13.7,0.325,-0.743,100.07,2.0,6979.0,0.0,0.0,
2025-08-14T22:46:51.323Z,2,GR86-016-55,-8.700000000000001,0.339,-0.764,100.05,2.0,,0.0,0.0,117.17
2025-08-14T22:46:51.366Z,2,GR86-016-55,-6.4,0.396,-0.795,100.05,2.0,,0.0,0.0,
2025-08-14T22:46:51.409Z,2,GR86-016-55,-5.4,0.362,-0.5630000000000001,100.04,2.0,,0.0,0.0,
2025-08-14T22:46:51.452Z,2,GR86-016-55,-4.4,0.305,-0.519,100.03,2.0,,0.0,0.0,
2025-08-14T22:46:51.495Z,2,GR86-016-55,-1.2000000000000002,0.329,-0.771,100.02,2.0,7047.0,0.0,0.0,
2025-08-14T22:46:51.539Z,2,GR86-016-55,0.9,0.276,-0.655,85.97,2.0,,0.0,0.0,118.46
2025-08-14T22:46:51.582Z,2,GR86-016-55,0.8,0.446,-0.807,99.92,2.0,,0.0,0.0,
2025-08-14T22:46:51.625Z,2,GR86-016-55,-5.0,0.391,-0.953,100.02,2.0,,0.0,0.0,
2025-08-14T22:46:51.668Z,2,GR86-016-55,-11.0,0.508,-0.785,100.06,2.0,,0.0,0.0,
2025-08-14T22:46:51.712Z,2,GR86-016-55,-14.1,0.399,-0.715,100.06,2.0,7187.0,0.0,0.0,
2025-08-14T22:46:51.755Z,2,GR86-016-55,-17.6,0.308,-0.5690000000000001,100.04,2.0,,0.0,0.0,119.54
2025-08-14T22:46:51.798Z,2,GR86-016-55,-22.3,0.22,-0.483,100.07,2.0,,0.0,0.0,
2025-08-14T22:46:51.841Z,2,GR86-016-55,-29.700000000000003,0.266,-0.541,100.05,2.0,,0.0,0.0,
2025-08-14T22:46:51.885Z,2,GR86-016-55,-32.1,0.348,-0.518,100.05,2.0,,0.0,0.0,
2025-08-14T22:46:51.928Z,2,GR86-016-55,-32.300000000000004,0.343,-0.503,100.02,2.0,7137.0,0.0,0.0,
2025-08-14T22:46:51.971Z,2,GR86-016-55,-31.3,0.293,-0.39,100.04,2.0,,0.0,0.0,120.9
2025-08-14T22:46:52.014Z,2,GR86-016-55,-29.0,0.273,-0.524,100.05,2.0,,0.0,0.0,
2025-08-14T22:46:52.057Z,2,GR86-016-55,-23.4,0.193,-0.514,100.03,2.0,,0.0,0.0,
2025-08-14T22:46:52.100Z,2,GR86-016-55,-15.2,0.315,-0.62,100.05,2.0,,0.0,0.0,
2025-08-14T22:46:52.143Z,2,GR86-016-55,-14.3,0.261,-0.63,100.04,2.0,7245.0,0.0,0.0,
2025-08-14T22:46:52.186Z,2,GR86-016-55,-15.6,0.193,-0.495,100.04,2.0,,0.0,0.0,122.19
2025-08-14T22:46:52.229Z,2,GR86-016-55,-18.4,-0.101,-0.476,100.05,3.0,,0.0,0.0,
2025-08-14T22:46:52.272Z,2,GR86-016-55,-19.0,0.347,-0.489,100.05,3.0,,0.0,0.0,
2025-08-14T22:46:52.315Z,2,GR86-016-55,-18.1,0.209,-0.42,100.04,3.0,,0.0,0.0,
2025-08-14T22:46:52.358Z,2,GR86-016-55,-16.5,0.266,-0.463,100.03,3.0,6964.0,0.0,0.0,
2025-08-14T22:46:52.401Z,2,GR86-016-55,-13.0,0.062,-0.257,100.03,3.0,,0.0,0.0,123.92
2025-08-14T22:46:52.444Z,2,GR86-016-55,-12.3,-0.023,-0.52,100.04,3.0,,0.0,0.0,
2025-08-14T22:46:52.487Z,2,GR86-016-55,-13.7,0.337,-0.464,100.04,3.0,,0.0,0.0,
2025-08-14T22:46:52.531Z,2,GR86-016-55,-19.1,0.389,-0.473,100.04,3.0,,0.0,0.0,
2025-08-14T22:46:52.574Z,2,GR86-016-55,-22.3,0.219,-0.533,100.04,3.0,6031.0,0.0,0.0,
2025-08-14T22:46:52.617Z,2,GR86-016-55,-22.9,0.168,-0.473,100.03,3.0,,0.0,0.0,124.8
2025-08-14T22:46:52.661Z,2,GR86-016-55,-19.5,0.283,-0.584,100.03,3.0,,0.0,0.0,
2025-08-14T22:46:52.705Z,2,GR86-016-55,-12.9,0.247,-0.375,100.02,3.0,,0.0,0.0,
2025-08-14T22:46:52.748Z,2,GR86-016-55,-8.6,0.128,-0.429,100.03,3.0,,0.0,0.0,
2025-08-14T22:46:52.791Z,2,GR86-016-55,-5.7,0.083,-0.428,100.04,3.0,6051.0,0.0,0.0,
2025-08-14T22:46:52.834Z,2,GR86-016-55,-4.1000000000000005,0.181,-0.422,100.04,3.0,,0.0,0.0,127.9
2025-08-14T22:46:52.877Z,2,GR86-016-55,-3.7,0.261,-0.461,100.04,3.0,,0.0,0.0,
2025-08-14T22:46:52.922Z,2,GR86-016-55,-3.8,0.213,-0.242,100.03,3.0,,0.0,0.0,
2025-08-14T22:46:52.965Z,2,GR86-016-55,-3.9,0.111,-0.329,100.04,3.0,,0.0,0.0,
2025-08-14T22:46:53.008Z,2,GR86-016-55,-4.0,0.138,-0.299,100.03,3.0,6141.0,0.0,0.0,
2025-08-14T22:46:53.051Z,2,GR86-016-55,-4.1000000000000005,0.239,-0.221,100.02,3.0,,0.0,0.0,129.29
2025-08-14T22:46:53.094Z,2,GR86-016-55,-4.2,0.26,-0.252,100.04,3.0,,0.0,0.0,
2025-08-14T22:46:53.137Z,2,GR86-016-55,-4.3,0.21,-0.236,100.04,3.0,,0.0,0.0,
2025-08-14T22:46:53.180Z,2,GR86-016-55,-4.2,0.166,-0.15,100.03,3.0,,0.0,0.0,
2025-08-14T22:46:53.225Z,2,GR86-016-55,-3.8,0.169,-0.254,100.04,3.0,6215.0,0.0,0.0,
2025-08-14T22:46:53.268Z,2,GR86-016-55,-1.8,0.239,-0.118,100.03,3.0,,0.0,0.0,131.08
2025-08-14T22:46:53.311Z,2,GR86-016-55,0.1,0.196,-0.11,100.04,3.0,,0.0,0.0,
2025-08-14T22:46:53.354Z,2,GR86-016-55,2.0,0.256,-0.016,100.05,3.0,,0.0,0.0,
2025-08-14T22:46:53.397Z,2,GR86-016-55,4.7,0.149,0.006,100.03,3.0,,0.0,0.0,
2025-08-14T22:46:53.442Z,2,GR86-016-55,9.8,0.107,0.092,100.04,3.0,6303.0,0.0,0.0,
2025-08-14T22:46:53.485Z,2,GR86-016-55,12.1,0.29,0.169,100.04,3.0,,0.0,0.0,132.44
2025-08-14T22:46:53.528Z,2,GR86-016-55,12.6,0.208,0.249,100.01,3.0,,0.0,0.0,
2025-08-14T22:46:53.571Z,2,GR86-016-55,12.1,0.085,0.312,100.03,3.0,,0.0,0.0,
2025-08-14T22:46:53.614Z,2,GR86-016-55,11.6,0.182,0.292,100.04,3.0,,0.0,0.0,
2025-08-14T22:46:53.701Z,2,GR86-016-55,11.2,0.195,0.305,100.03,3.0,6379.0,0.0,0.0,133.6
2025-08-14T22:46:53.744Z,2,GR86-016-55,10.3,0.164,0.449,100.03,3.0,,0.0,0.0,
2025-08-14T22:46:53.787Z,2,GR86-016-55,9.8,0.189,0.467,100.03,3.0,,0.0,0.0,
2025-08-14T22:46:53.830Z,2,GR86-016-55,9.0,0.235,0.463,100.02,3.0,,0.0,0.0,
2025-08-14T22:46:53.873Z,2,GR86-016-55,7.4,0.224,0.44,100.04,3.0,6452.0,0.0,0.0,
2025-08-14T22:46:53.916Z,2,GR86-016-55,6.300000000000001,0.181,0.459,100.03,3.0,,0.0,0.0,134.98
2025-08-14T22:46:53.959Z,2,GR86-016-55,5.4,0.181,0.405,100.03,3.0,,0.0,0.0,
2025-08-14T22:46:54.002Z,2,GR86-016-55,4.2,0.234,0.362,100.02,3.0,,0.0,0.0,
2025-08-14T22:46:54.045Z,2,GR86-016-55,3.6,0.207,0.305,100.02,3.0,,0.0,0.0,
2025-08-14T22:46:54.088Z,2,GR86-016-55,3.3000000000000003,0.182,0.277,100.01,3.0,6479.0,0.0,0.0,
2025-08-14T22:46:54.131Z,2,GR86-016-55,3.3000000000000003,0.194,0.253,100.04,3.0,,0.0,0.0,136.6
2025-08-14T22:46:54.174Z,2,GR86-016-55,3.3000000000000003,0.206,0.233,100.0,3.0,,0.0,0.0,
2025-08-14T22:46:54.217Z,2,GR86-016-55,3.3000000000000003,0.21,0.206,100.04,3.0,,0.0,0.0,
2025-08-14T22:46:54.261Z,2,GR86-016-55,3.2,0.197,0.165,100.0,3.0,,0.0,0.0,
2025-08-14T22:46:54.305Z,2,GR86-016-55,3.2,0.179,0.134,100.02,3.0,6533.0,0.0,0.0,
2025-08-14T22:46:54.348Z,2,GR86-016-55,3.0,0.187,0.112,100.03,3.0,,0.0,0.0,138.04
2025-08-14T22:46:54.391Z,2,GR86-016-55,2.8000000000000003,0.195,0.099,100.01,3.0,,0.0,0.0,
2025-08-14T22:46:54.434Z,2,GR86-016-55,2.5,0.201,0.102,100.03,3.0,,0.0,0.0,
2025-08-14T22:46:54.477Z,2,GR86-016-55,2.3000000000000003,0.185,0.087,100.0,3.0,,0.0,0.0,
2025-08-14T22:46:54.522Z,2,GR86-016-55,2.3000000000000003,0.196,0.079,100.01,3.0,6613.0,0.0,0.0,
2025-08-14T22:46:54.565Z,2,GR86-016-55,2.3000000000000003,0.196,0.065,100.0,3.0,,0.0,0.0,139.51
2025-08-14T22:46:54.608Z,2,GR86-016-55,2.3000000000000003,0.186,0.07,100.03,3.0,,0.0,0.0,
2025-08-14T22:46:54.651Z,2,GR86-016-55,2.3000000000000003,0.179,0.08,100.0,3.0,,0.0,0.0,
2025-08-14T22:46:54.694Z,2,GR86-016-55,2.3000000000000003,0.179,0.087,99.98,3.0,,0.0,0.0,
2025-08-14T22:46:54.737Z,2,GR86-016-55,2.3000000000000003,0.194,0.093,100.01,3.0,6669.0,0.0,0.0,
2025-08-14T22:46:54.780Z,2,GR86-016-55,2.3000000000000003,0.154,0.105,71.34,3.0,,20.115,19.87,141.04
2025-08-14T22:46:54.824Z,2,GR86-016-55,2.3000000000000003,-0.268,0.081,5.5200000000000005,3.0,,31.54,30.995,
2025-08-14T22:46:54.867Z,2,GR86-016-55,2.3000000000000003,-0.441,0.099,3.17,3.0,,37.525,36.775,
2025-08-14T22:46:54.910Z,2,GR86-016-55,2.3000000000000003,-0.704,0.102,2.84,3.0,,38.53,38.35,
2025-08-14T22:46:54.953Z,2,GR86-016-55,2.3000000000000003,-0.805,0.158,2.73,3.0,6744.0,38.745,38.685,
2025-08-14T22:46:54.996Z,2,GR86-016-55,2.4000000000000004,-0.913,0.101,2.68,3.0,,39.495,39.37,142.63
2025-08-14T22:46:55.039Z,2,GR86-016-55,2.6,-0.923,0.12,2.64,3.0,,40.99,40.62,
2025-08-14T22:46:55.082Z,2,GR86-016-55,2.6,-0.993,0.112,2.61,3.0,,43.08,42.68,
2025-08-14T22:46:55.125Z,2,GR86-016-55,2.5,-0.955,0.091,2.58,3.0,,42.925,42.895,
2025-08-14T22:46:55.168Z,2,GR86-016-55,2.4000000000000004,-0.922,0.083,2.57,3.0,6093.0,42.575,42.775,
2025-08-14T22:46:55.211Z,2,GR86-016-55,2.4000000000000004,-0.958,0.068,2.56,3.0,,42.955,43.02,138.73
2025-08-14T22:46:55.254Z,2,GR86-016-55,2.4000000000000004,-0.96,0.065,2.5500000000000003,3.0,,43.295,43.355,
2025-08-14T22:46:55.297Z,2,GR86-016-55,2.4000000000000004,-0.999,0.05,2.5500000000000003,3.0,,42.68,43.02,
2025-08-14T22:46:55.340Z,2,GR86-016-55,2.9000000000000004,-0.931,0.053,2.52,3.0,,40.15,40.865,
2025-08-14T22:46:55.383Z,2,GR86-016-55,3.7,-0.861,0.05,2.51,3.0,5918.0,35.83,37.385,
2025-08-14T22:46:55.426Z,2,GR86-016-55,4.1000000000000005,-0.847,0.044,2.51,3.0,,34.425000000000004,35.34,126.71
2025-08-14T22:46:55.469Z,2,GR86-016-55,4.2,-0.835,0.03,2.51,3.0,,34.09,34.655,
2025-08-14T22:46:55.512Z,2,GR86-016-55,4.2,-0.835,0.017,2.51,3.0,,34.03,34.655,
2025-08-14T22:46:55.598Z,2,GR86-016-55,4.3,-0.811,0.026,2.51,3.0,5652.0,33.910000000000004,34.565,
2025-08-14T22:46:55.685Z,2,GR86-016-55,4.3,-0.752,0.027,2.5,3.0,,29.62,30.61,122.21
2025-08-14T22:46:55.728Z,2,GR86-016-55,4.2,-0.724,0.01,2.5,3.0,,29.39,30.075,
2025-08-14T22:46:55.771Z,2,GR86-016-55,4.1000000000000005,-0.713,0.011,2.5,3.0,,28.75,29.5,
2025-08-14T22:46:55.814Z,2,GR86-016-55,4.1000000000000005,-0.6910000000000001,0.017,2.5,3.0,5508.0,27.255,28.125,
2025-08-14T22:46:55.857Z,2,GR86-016-55,4.1000000000000005,-0.647,0.028,2.5,3.0,,24.02,24.795,117.87
2025-08-14T22:46:55.900Z,2,GR86-016-55,4.0,-0.593,0.032,2.5,3.0,,19.275,19.93,
2025-08-14T22:46:55.943Z,2,GR86-016-55,3.9,-0.537,0.022,2.5,3.0,,16.94,17.745,
2025-08-14T22:46:55.986Z,2,GR86-016-55,3.8,-0.474,0.028,2.5,3.0,,13.765,14.575,
2025-08-14T22:46:56.029Z,2,GR86-016-55,3.7,-0.353,0.024,2.51,3.0,5233.0,8.15,8.91,
2025-08-14T22:46:56.072Z,2,GR86-016-55,3.2,-0.231,0.025,2.5,3.0,,2.335,2.7,114.42
2025-08-14T22:46:56.115Z,2,GR86-016-55,2.4000000000000004,-0.135,0.043,2.5,3.0,,0.0,0.0,
2025-08-14T22:46:56.158Z,2,GR86-016-55,1.2000000000000002,-0.157,0.024,2.5,3.0,,0.0,0.0,
2025-08-14T22:46:56.201Z,2,GR86-016-55,-0.9,-0.119,0.028,2.5,3.0,,0.0,0.0,
2025-08-14T22:46:56.244Z,2,GR86-016-55,-2.3000000000000003,-0.101,0.01,2.5,3.0,5220.0,0.0,0.0,
2025-08-14T22:46:56.288Z,2,GR86-016-55,-3.2,-0.117,0.008,2.48,3.0,,0.0,0.0,113.66
2025-08-14T22:46:56.332Z,2,GR86-016-55,-3.7,-0.142,-0.012,2.5,3.0,,0.0,0.0,
2025-08-14T22:46:56.375Z,2,GR86-016-55,-3.8,-0.125,-0.033,2.5,3.0,,0.0,0.0,
2025-08-14T22:46:56.418Z,2,GR86-016-55,-3.8,-0.143,-0.039,2.5,3.0,,0.0,0.0,
2025-08-14T22:46:56.461Z,2,GR86-016-55,-3.8,-0.135,-0.054,2.5,3.0,5174.0,0.0,0.0,
2025-08-14T22:46:56.504Z,2,GR86-016-55,-3.8,-0.122,-0.055,2.5,3.0,,0.0,0.0,113.28
2025-08-14T22:46:56.547Z,2,GR86-016-55,-3.8,-0.129,-0.06,2.5,3.0,,0.0,0.0,
2025-08-14T22:46:56.590Z,2,GR86-016-55,-3.8,-0.142,-0.057,2.5,3.0,,0.0,0.0,
2025-08-14T22:46:56.633Z,2,GR86-016-55,-3.8,-0.14,-0.066,2.5,3.0,,0.0,0.0,
2025-08-14T22:46:56.676Z,2,GR86-016-55,-3.8,-0.166,-0.062,2.5,3.0,5152.0,2.975,2.915,
2025-08-14T22:46:56.719Z,2,GR86-016-55,-3.8,-0.204,-0.06,2.49,3.0,,5.4350000000000005,5.465,112.88
2025-08-14T22:46:56.762Z,2,GR86-016-55,-3.8,-0.267,-0.08,2.49,3.0,,7.645,7.645,
2025-08-14T22:46:56.805Z,2,GR86-016-55,-3.7,-0.259,-0.069,2.5,3.0,,7.645,7.86,
2025-08-14T22:46:56.848Z,2,GR86-016-55,-3.6,-0.302,-0.069,2.5,3.0,,7.645,7.735,
2025-08-14T22:46:56.891Z,2,GR86-016-55,-3.4000000000000004,-0.265,-0.068,2.5,3.0,5106.0,7.705,8.040000000000001,
2025-08-14T22:46:56.934Z,2,GR86-016-55,-2.8000000000000003,-0.288,-0.045,2.49,3.0,,7.645,7.890000000000001,111.96
2025-08-14T22:46:56.977Z,2,GR86-016-55,-2.1,-0.278,-0.043,2.5,3.0,,7.98,8.24,
2025-08-14T22:46:57.022Z,2,GR86-016-55,-1.6,-0.27,-0.021,2.49,3.0,,8.605,8.425,
2025-08-14T22:46:57.065Z,2,GR86-016-55,-1.5,-0.286,-0.009,2.5,3.0,,8.33,8.635,
2025-08-14T22:46:57.151Z,2,GR86-016-55,-1.5,-0.285,-0.013,2.5,3.0,5039.0,9.215,9.34,110.37
2025-08-14T22:46:57.194Z,2,GR86-016-55,-1.6,-0.321,-0.004,2.49,3.0,,10.375,10.375,
2025-08-14T22:46:57.237Z,2,GR86-016-55,-1.8,-0.332,-0.012,2.5,3.0,,13.015,12.895,
2025-08-14T22:46:57.323Z,2,GR86-016-55,-2.5,-0.469,-0.03,2.5,3.0,4965.0,18.055,17.900000000000002,
2025-08-14T22:46:57.366Z,2,GR86-016-55,-2.6,-0.468,-0.041,2.49,3.0,,19.18,19.21,108.72
2025-08-14T22:46:57.409Z,2,GR86-016-55,-2.6,-0.52,-0.036,2.5,3.0,,19.93,20.235,
2025-08-14T22:46:57.452Z,2,GR86-016-55,-2.8000000000000003,-0.536,-0.047,2.49,3.0,,20.935,21.03,
2025-08-14T22:46:57.495Z,2,GR86-016-55,-2.9000000000000004,-0.528,-0.071,2.5,3.0,,20.965,21.38,
2025-08-14T22:46:57.539Z,2,GR86-016-55,-3.0,-0.539,-0.073,2.49,3.0,4812.0,21.27,21.56,
2025-08-14T22:46:57.582Z,2,GR86-016-55,-3.0,-0.536,-0.089,2.5,3.0,,21.15,21.41,106.47
2025-08-14T22:46:57.625Z,2,GR86-016-55,-3.0,-0.549,-0.094,2.5,3.0,,20.815,21.305,
2025-08-14T22:46:57.668Z,2,GR86-016-55,-3.0,-0.546,-0.087,2.5,3.0,,20.935,21.38,
2025-08-14T22:46:57.712Z,2,GR86-016-55,-3.0,-0.527,-0.106,2.51,3.0,,20.6,21.03,
2025-08-14T22:46:57.755Z,2,GR86-016-55,-3.0,-0.546,-0.09,4.15,3.0,4655.0,20.935,21.06,
2025-08-14T22:46:57.798Z,2,GR86-016-55,-2.9000000000000004,-0.508,-0.113,44.69,3.0,,20.6,21.03,103.26
2025-08-14T22:46:57.841Z,2,GR86-016-55,-2.9000000000000004,-0.547,-0.094,99.4,3.0,,20.325,21.03,
2025-08-14T22:46:57.885Z,2,GR86-016-55,-2.9000000000000004,-0.516,-0.085,100.04,3.0,,20.845,21.24,
2025-08-14T22:46:57.928Z,2,GR86-016-55,-2.8000000000000003,-0.505,-0.12,66.53,2.0,,20.295,21.03,
2025-08-14T22:46:57.971Z,2,GR86-016-55,-2.8000000000000003,-0.616,-0.09,5.54,2.0,4509.0,20.905,21.305,
2025-08-14T22:46:58.014Z,2,GR86-016-55,-2.8000000000000003,-0.729,-0.038,2.97,2.0,,20.6,21.15,99.81
2025-08-14T22:46:58.057Z,2,GR86-016-55,-2.8000000000000003,-0.599,-0.081,2.79,2.0,,20.935,21.35,
2025-08-14T22:46:58.100Z,2,GR86-016-55,-2.5,-0.461,-0.057,2.7,2.0,,20.935,21.03,
2025-08-14T22:46:58.144Z,2,GR86-016-55,-2.2,-0.505,-0.062,2.68,2.0,,20.51,20.785,
2025-08-14T22:46:58.187Z,2,GR86-016-55,-2.1,-0.516,-0.089,2.64,2.0,5174.0,20.785,21.03,
2025-08-14T22:46:58.230Z,2,GR86-016-55,-2.1,-0.56,-0.032,2.62,2.0,,20.785,20.755,93.01
2025-08-14T22:46:58.273Z,2,GR86-016-55,-2.1,-0.512,-0.063,2.61,2.0,,20.935,21.06,
2025-08-14T22:46:58.316Z,2,GR86-016-55,-2.0,-0.535,-0.034,2.58,2.0,,20.905,21.03,
2025-08-14T22:46:58.359Z,2,GR86-016-55,-2.0,-0.499,-0.048,2.56,2.0,,21.27,21.24,
2025-08-14T22:46:58.402Z,2,GR86-016-55,-1.9,-0.558,-0.037,2.51,2.0,5151.0,20.63,21.38,
2025-08-14T22:46:58.445Z,2,GR86-016-55,-1.9,-0.562,-0.01,2.5,2.0,,21.09,21.47,89.72
2025-08-14T22:46:58.488Z,2,GR86-016-55,-1.9,-0.5660000000000001,-0.029,2.49,2.0,,20.845,21.38,
2025-08-14T22:46:58.531Z,2,GR86-016-55,-1.9,-0.538,-0.016,2.49,2.0,,20.935,21.27,
2025-08-14T22:46:58.574Z,2,GR86-016-55,-1.9,-0.545,-0.016,2.47,2.0,,20.385,20.965,
2025-08-14T22:46:58.617Z,2,GR86-016-55,-1.9,-0.508,-0.01,2.47,2.0,4975.0,20.05,20.385,
2025-08-14T22:46:58.661Z,2,GR86-016-55,-1.9,-0.511,-0.026,2.47,2.0,,18.71,19.61,86.45
2025-08-14T22:46:58.704Z,2,GR86-016-55,-1.9,-0.508,0.006,2.45,2.0,,18.525,18.83,
2025-08-14T22:46:58.747Z,2,GR86-016-55,-1.9,-0.504,-0.015,2.47,2.0,,17.78,18.405,
2025-08-14T22:46:58.790Z,2,GR86-016-55,-1.9,-0.468,0.012,2.45,2.0,,17.745,17.87,
2025-08-14T22:46:58.833Z,2,GR86-016-55,-1.9,-0.469,-0.012,2.46,2.0,4629.0,16.94,17.245,
2025-08-14T22:46:58.876Z,2,GR86-016-55,-1.9,-0.412,0.012,2.46,2.0,,15.0,15.395,83.32000000000001
2025-08-14T22:46:58.919Z,2,GR86-016-55,-1.8,-0.373,-0.004,2.46,2.0,,12.145,12.865,
2025-08-14T22:46:58.962Z,2,GR86-016-55,-1.8,-0.322,0.024,2.46,2.0,,10.115,10.53,
2025-08-14T22:46:59.005Z,2,GR86-016-55,-1.7000000000000002,-0.318,-0.004,2.45,2.0,,9.75,9.845,
2025-08-14T22:46:59.048Z,2,GR86-016-55,-1.7000000000000002,-0.291,0.007,2.45,2.0,4503.0,9.875,10.055,
2025-08-14T22:46:59.091Z,2,GR86-016-55,-1.7000000000000002,-0.339,-0.012,2.47,2.0,,10.21,10.53,80.63
2025-08-14T22:46:59.134Z,2,GR86-016-55,-1.9,-0.324,-0.017,2.47,2.0,,10.115,10.53,
2025-08-14T22:46:59.177Z,2,GR86-016-55,-3.0,-0.347,-0.012,2.47,2.0,,10.715,10.865,
2025-08-14T22:46:59.222Z,2,GR86-016-55,-4.2,-0.293,-0.044,2.47,2.0,,10.62,10.865,
2025-08-14T22:46:59.265Z,2,GR86-016-55,-4.2,-0.357,-0.054,2.47,2.0,4406.0,11.155,11.245,
2025-08-14T22:46:59.308Z,2,GR86-016-55,-4.2,-0.35,-0.051,2.46,2.0,,10.805,11.245,78.73
2025-08-14T22:46:59.351Z,2,GR86-016-55,-4.0,-0.331,-0.029,2.47,2.0,,11.155,11.58,
2025-08-14T22:46:59.394Z,2,GR86-016-55,-2.3000000000000003,-0.336,-0.036,2.46,2.0,,10.985,11.245,
2025-08-14T22:46:59.437Z,2,GR86-016-55,-1.4,-0.302,-0.024,2.47,2.0,,11.275,11.275,
2025-08-14T22:46:59.480Z,2,GR86-016-55,0.6000000000000001,-0.357,-0.023,2.47,2.0,4285.0,11.035,11.245,
2025-08-14T22:46:59.525Z,2,GR86-016-55,1.3,-0.297,-0.004,2.48,2.0,,11.155,11.245,76.74
2025-08-14T22:46:59.568Z,2,GR86-016-55,1.7000000000000002,-0.338,-0.007,2.47,2.0,,10.895,11.4,
2025-08-14T22:46:59.611Z,2,GR86-016-55,1.9,-0.309,0.011,2.47,2.0,,10.44,10.865,
2025-08-14T22:46:59.654Z,2,GR86-016-55,2.1,-0.333,0.027,2.47,2.0,,9.81,10.27,
2025-08-14T22:46:59.697Z,2,GR86-016-55,2.1,-0.303,0.03,2.47,2.0,4175.0,8.33,9.035,
2025-08-14T22:46:59.741Z,2,GR86-016-55,2.1,-0.262,0.052,2.48,2.0,,5.4350000000000005,5.905,74.77
2025-08-14T22:46:59.785Z,2,GR86-016-55,2.1,-0.184,0.063,2.47,2.0,,2.395,2.76,
2025-08-14T22:46:59.828Z,2,GR86-016-55,2.0,-0.112,0.046,2.47,2.0,,0.0,0.0,
2025-08-14T22:46:59.871Z,2,GR86-016-55,2.0,-0.127,0.057,2.49,2.0,,0.0,0.0,
2025-08-14T22:46:59.914Z,2,GR86-016-55,1.4,-0.125,0.046,2.47,2.0,4089.0,0.0,0.0,
2025-08-14T22:46:59.957Z,2,GR86-016-55,0.0,-0.12,0.045,2.47,2.0,,0.0,0.0,72.97
2025-08-14T22:47:00.000Z,2,GR86-016-55,-0.6000000000000001,-0.1,0.03,2.47,2.0,,0.0,0.0,
2025-08-14T22:47:00.043Z,2,GR86-016-55,-0.6000000000000001,-0.111,0.048,2.48,2.0,,0.0,0.0,
2025-08-14T22:47:00.086Z,2,GR86-016-55,-0.6000000000000001,-0.125,0.032,2.47,2.0,,0.0,0.0,
2025-08-14T22:47:00.129Z,2,GR86-016-55,-0.6000000000000001,-0.117,0.039,2.48,2.0,4076.0,0.0,0.0,
2025-08-14T22:47:00.172Z,2,GR86-016-55,-0.6000000000000001,-0.124,0.035,2.48,2.0,,0.0,0.0,72.49
2025-08-14T22:47:00.215Z,2,GR86-016-55,-0.6000000000000001,-0.102,0.027,2.48,2.0,,0.0,0.0,
2025-08-14T22:47:00.258Z,2,GR86-016-55,-0.7000000000000001,-0.103,0.038,2.48,2.0,,0.0,0.0,
2025-08-14T22:47:00.301Z,2,GR86-016-55,-0.8,-0.115,0.021,2.48,2.0,,0.0,0.0,
2025-08-14T22:47:00.345Z,2,GR86-016-55,-0.9,-0.117,0.031,2.48,2.0,4044.0,0.0,0.0,
2025-08-14T22:47:00.388Z,2,GR86-016-55,-1.3,-0.116,0.012,2.48,2.0,,0.0,0.0,71.99
2025-08-14T22:47:00.431Z,2,GR86-016-55,-1.5,-0.099,0.016,2.48,2.0,,0.0,0.0,
2025-08-14T22:47:00.474Z,2,GR86-016-55,-1.6,-0.121,0.016,2.49,2.0,,0.0,0.0,
2025-08-14T22:47:00.517Z,2,GR86-016-55,-1.6,-0.117,0.013,2.5,2.0,,0.0,0.0,
2025-08-14T22:47:00.562Z,2,GR86-016-55,-1.6,-0.126,0.021,2.49,2.0,4018.0,0.0,0.0,
2025-08-14T22:47:00.605Z,2,GR86-016-55,-1.6,-0.116,0.002,2.49,2.0,,0.0,0.0,71.52
2025-08-14T22:47:00.648Z,2,GR86-016-55,-1.6,-0.103,0.018,2.48,2.0,,0.0,0.0,
2025-08-14T22:47:00.691Z,2,GR86-016-55,-1.6,-0.113,0.023,3.11,2.0,,0.0,0.0,
2025-08-14T22:47:00.735Z,2,GR86-016-55,-1.6,-0.105,0.007,4.87,2.0,,0.0,0.0,
2025-08-14T22:47:00.778Z,2,GR86-016-55,-1.6,-0.115,0.018,11.32,2.0,3991.0,0.0,0.0,
2025-08-14T22:47:00.822Z,2,GR86-016-55,-1.6,-0.108,0.006,19.23,2.0,,0.0,0.0,70.61
2025-08-14T22:47:00.865Z,2,GR86-016-55,-1.6,-0.092,0.022,21.11,2.0,,0.0,0.0,
2025-08-14T22:47:00.908Z,2,GR86-016-55,-1.7000000000000002,-0.027,-0.008,21.27,2.0,,0.0,0.0,
2025-08-14T22:47:00.951Z,2,GR86-016-55,-1.7000000000000002,-0.046,0.017,21.46,2.0,,0.0,0.0,
2025-08-14T22:47:00.994Z,2,GR86-016-55,-2.0,-0.044,0.006,21.62,2.0,3957.0,0.0,0.0,
2025-08-14T22:47:01.037Z,2,GR86-016-55,-2.2,-0.031,-0.015,21.91,2.0,,0.0,0.0,70.23
2025-08-14T22:47:01.080Z,2,GR86-016-55,-2.6,0.318,0.008,22.05,2.0,,0.0,0.0,
2025-08-14T22:47:01.123Z,2,GR86-016-55,-2.8000000000000003,0.285,-0.033,22.07,2.0,,0.0,0.0,
2025-08-14T22:47:01.166Z,2,GR86-016-55,-2.9000000000000004,0.137,0.006,22.07,2.0,,0.0,0.0,
2025-08-14T22:47:01.209Z,2,GR86-016-55,-2.9000000000000004,0.021,-0.019,22.08,2.0,4081.0,0.0,0.0,
2025-08-14T22:47:01.252Z,2,GR86-016-55,-2.9000000000000004,0.057,-0.034,22.08,2.0,,0.0,0.0,70.54
2025-08-14T22:47:01.295Z,2,GR86-016-55,-3.0,0.121,0.007,22.07,2.0,,0.0,0.0,
2025-08-14T22:47:01.338Z,2,GR86-016-55,-3.0,0.181,-0.026,22.08,2.0,,0.0,0.0,
2025-08-14T22:47:01.382Z,2,GR86-016-55,-3.1,0.145,-0.004,22.11,2.0,,0.0,0.0,
2025-08-14T22:47:01.425Z,2,GR86-016-55,-3.4000000000000004,0.11,-0.023,22.24,2.0,4131.0,0.0,0.0,
2025-08-14T22:47:01.468Z,2,GR86-016-55,-4.0,0.109,-0.01,22.37,2.0,,0.0,0.0,71.8
2025-08-14T22:47:01.511Z,2,GR86-016-55,-4.9,0.12,-0.02,22.51,2.0,,0.0,0.0,
2025-08-14T22:47:01.554Z,2,GR86-016-55,-6.0,0.138,-0.037,22.56,2.0,,0.0,0.0,
2025-08-14T22:47:01.597Z,2,GR86-016-55,-7.5,0.131,-0.022,22.66,2.0,,0.0,0.0,
2025-08-14T22:47:01.640Z,2,GR86-016-55,-8.6,0.13,-0.061,22.83,2.0,4233.0,0.0,0.0,
2025-08-14T22:47:01.684Z,2,GR86-016-55,-9.2,0.112,-0.059,23.06,2.0,,0.0,0.0,72.99
2025-08-14T22:47:01.727Z,2,GR86-016-55,-9.5,0.114,-0.088,23.83,2.0,,0.0,0.0,
2025-08-14T22:47:01.770Z,2,GR86-016-55,-9.5,0.137,-0.076,24.91,2.0,,0.0,0.0,
2025-08-14T22:47:01.813Z,2,GR86-016-55,-9.5,0.135,-0.091,26.13,2.0,,0.0,0.0,
2025-08-14T22:47:01.856Z,2,GR86-016-55,-9.5,0.151,-0.084,26.59,2.0,4303.0,0.0,0.0,
2025-08-14T22:47:01.899Z,2,GR86-016-55,-9.3,0.143,-0.068,27.5,2.0,,0.0,0.0,74.12
2025-08-14T22:47:01.942Z,2,GR86-016-55,-8.3,0.166,-0.061,29.48,2.0,,0.0,0.0,
2025-08-14T22:47:01.985Z,2,GR86-016-55,-7.9,0.146,-0.056,31.22,2.0,,0.0,0.0,
2025-08-14T22:47:02.028Z,2,GR86-016-55,-7.7,0.16,-0.057,33.19,2.0,,0.0,0.0,
2025-08-14T22:47:02.071Z,2,GR86-016-55,-7.6,0.185,-0.031,34.480000000000004,2.0,4384.0,0.0,0.0,
2025-08-14T22:47:02.114Z,2,GR86-016-55,-7.6,0.211,-0.053,35.0,2.0,,0.0,0.0,75.31
2025-08-14T22:47:02.157Z,2,GR86-016-55,-7.6,0.232,-0.038,35.09,2.0,,0.0,0.0,
2025-08-14T22:47:02.200Z,2,GR86-016-55,-7.6,0.228,-0.047,35.51,2.0,,0.0,0.0,
2025-08-14T22:47:02.243Z,2,GR86-016-55,-7.6,0.219,-0.023,36.18,2.0,,0.0,0.0,
2025-08-14T22:47:02.287Z,2,GR86-016-55,-7.5,0.215,-0.045,36.5,2.0,4496.0,0.0,0.0,
2025-08-14T22:47:02.330Z,2,GR86-016-55,-7.5,0.228,-0.023,36.67,2.0,,0.0,0.0,76.7
2025-08-14T22:47:02.373Z,2,GR86-016-55,-7.4,0.225,-0.036,36.77,2.0,,0.0,0.0,
2025-08-14T22:47:02.416Z,2,GR86-016-55,-7.4,0.241,-0.029,36.79,2.0,,0.0,0.0,
2025-08-14T22:47:02.460Z,2,GR86-016-55,-7.4,0.224,-0.039,36.86,2.0,,0.0,0.0,
2025-08-14T22:47:02.503Z,2,GR86-016-55,-7.4,0.23,-0.027,36.96,2.0,4609.0,0.0,0.0,
2025-08-14T22:47:02.546Z,2,GR86-016-55,-7.4,0.221,-0.034,37.02,2.0,,0.0,0.0,78.48
2025-08-14T22:47:02.590Z,2,GR86-016-55,-7.4,0.243,-0.029,37.08,2.0,,0.0,0.0,
2025-08-14T22:47:02.633Z,2,GR86-016-55,-7.4,0.229,-0.03,37.14,2.0,,0.0,0.0,
2025-08-14T22:47:02.676Z,2,GR86-016-55,-7.4,0.219,-0.032,37.15,2.0,,0.0,0.0,
2025-08-14T22:47:02.719Z,2,GR86-016-55,-7.6,0.22,-0.032,37.16,2.0,4714.0,0.0,0.0,
2025-08-14T22:47:02.762Z,2,GR86-016-55,-9.8,0.23,-0.054,37.2,2.0,,0.0,0.0,80.31
2025-08-14T22:47:02.805Z,2,GR86-016-55,-11.4,0.218,-0.073,37.22,2.0,,0.0,0.0,
2025-08-14T22:47:02.848Z,2,GR86-016-55,-12.8,0.221,-0.096,37.27,2.0,,0.0,0.0,
2025-08-14T22:47:02.891Z,2,GR86-016-55,-13.8,0.212,-0.119,37.28,2.0,,0.0,0.0,
2025-08-14T22:47:02.934Z,2,GR86-016-55,-14.4,0.216,-0.127,36.82,2.0,4816.0,0.0,0.0,
2025-08-14T22:47:02.977Z,2,GR86-016-55,-14.9,0.23,-0.149,24.42,2.0,,0.0,0.0,82.21000000000001
2025-08-14T22:47:03.022Z,2,GR86-016-55,-15.5,0.224,-0.171,4.48,2.0,,0.0,0.0,
2025-08-14T22:47:03.065Z,2,GR86-016-55,-16.1,0.14,-0.187,4.14,2.0,,0.0,0.0,
2025-08-14T22:47:03.108Z,2,GR86-016-55,-17.400000000000002,-0.08,-0.184,3.87,2.0,,0.0,0.0,
2025-08-14T22:47:03.151Z,2,GR86-016-55,-19.4,-0.046,-0.204,3.45,2.0,4927.0,0.0,0.0,
2025-08-14T22:47:03.194Z,2,GR86-016-55,-22.0,-0.313,-0.275,3.06,2.0,,0.0,0.0,84.07000000000001
2025-08-14T22:47:03.237Z,2,GR86-016-55,-25.200000000000003,-0.294,-0.252,2.94,2.0,,0.0,0.0,
2025-08-14T22:47:03.280Z,2,GR86-016-55,-28.0,-0.124,-0.365,2.86,2.0,,0.0,0.0,
2025-08-14T22:47:03.323Z,2,GR86-016-55,-28.3,-0.084,-0.377,2.83,2.0,,0.0,0.0,
2025-08-14T22:47:03.366Z,2,GR86-016-55,-28.3,-0.096,-0.406,2.77,2.0,4609.0,0.0,0.0,
2025-08-14T22:47:03.410Z,2,GR86-016-55,-28.5,-0.139,-0.443,2.71,2.0,,0.0,0.0,85.73
2025-08-14T22:47:03.455Z,2,GR86-016-55,-28.6,-0.168,-0.451,2.64,2.0,,0.0,0.0,
2025-08-14T22:47:03.498Z,2,GR86-016-55,-28.9,-0.161,-0.46,2.62,2.0,,0.0,0.0,
2025-08-14T22:47:03.541Z,2,GR86-016-55,-30.4,-0.127,-0.472,2.57,2.0,,0.0,0.0,
2025-08-14T22:47:03.584Z,2,GR86-016-55,-32.1,-0.129,-0.48,2.53,2.0,4756.0,0.0,0.0,
2025-08-14T22:47:03.627Z,2,GR86-016-55,-33.9,-0.136,-0.513,2.51,2.0,,0.0,0.0,84.7
2025-08-14T22:47:03.671Z,2,GR86-016-55,-35.1,-0.15,-0.532,2.5,2.0,,0.0,0.0,
2025-08-14T22:47:03.714Z,2,GR86-016-55,-35.4,-0.159,-0.5650000000000001,2.47,2.0,,0.0,0.0,
2025-08-14T22:47:03.757Z,2,GR86-016-55,-35.5,-0.158,-0.562,2.46,2.0,,0.0,0.0,
2025-08-14T22:47:03.800Z,2,GR86-016-55,-35.5,-0.141,-0.583,7.0200000000000005,2.0,4747.0,0.0,0.0,
2025-08-14T22:47:03.843Z,2,GR86-016-55,-35.5,-0.135,-0.589,49.24,2.0,,0.0,0.0,84.05
2025-08-14T22:47:03.886Z,2,GR86-016-55,-35.4,-0.131,-0.579,94.97,2.0,,0.0,0.0,
2025-08-14T22:47:03.930Z,2,GR86-016-55,-35.300000000000004,-0.147,-0.554,100.05,2.0,,0.0,0.0,
2025-08-14T22:47:03.973Z,2,GR86-016-55,-35.0,-0.042,-0.621,73.89,1.0,,0.0,0.0,
2025-08-14T22:47:04.016Z,2,GR86-016-55,-34.300000000000004,-0.108,-0.617,6.69,1.0,4719.0,0.0,0.0,
2025-08-14T22:47:04.060Z,2,GR86-016-55,-34.0,-0.502,-0.405,2.86,1.0,,0.0,0.0,84.14
2025-08-14T22:47:04.103Z,2,GR86-016-55,-34.0,-0.145,-0.668,2.77,1.0,,0.0,0.0,
2025-08-14T22:47:04.146Z,2,GR86-016-55,-34.0,-0.127,-0.674,2.67,1.0,,0.0,0.0,
2025-08-14T22:47:04.189Z,2,GR86-016-55,-34.300000000000004,-0.068,-0.587,2.61,1.0,,0.0,0.0,
2025-08-14T22:47:04.232Z,2,GR86-016-55,-35.6,-0.07,-0.71,2.58,1.0,6040.0,0.0,0.0,
2025-08-14T22:47:04.275Z,2,GR86-016-55,-37.6,-0.073,-0.661,2.54,1.0,,0.0,0.0,83.11
2025-08-14T22:47:04.318Z,2,GR86-016-55,-40.2,-0.166,-0.665,2.53,1.0,,0.0,0.0,
2025-08-14T22:47:04.361Z,2,GR86-016-55,-43.5,-0.253,-0.663,2.5,1.0,,0.0,0.0,
2025-08-14T22:47:04.404Z,2,GR86-016-55,-44.3,-0.235,-0.65,2.47,1.0,,0.0,0.0,
2025-08-14T22:47:04.447Z,2,GR86-016-55,-44.400000000000006,-0.205,-0.648,2.47,1.0,5834.0,0.0,0.0,
2025-08-14T22:47:04.490Z,2,GR86-016-55,-44.2,-0.175,-0.632,2.47,1.0,,0.0,0.0,82.16
2025-08-14T22:47:04.533Z,2,GR86-016-55,-44.1,-0.171,-0.632,2.47,1.0,,0.0,0.0,
2025-08-14T22:47:04.576Z,2,GR86-016-55,-44.1,-0.176,-0.654,2.45,1.0,,0.0,0.0,
2025-08-14T22:47:04.619Z,2,GR86-016-55,-44.1,-0.178,-0.671,2.45,1.0,,0.0,0.0,
2025-08-14T22:47:04.662Z,2,GR86-016-55,-44.2,-0.187,-0.669,2.47,1.0,5766.0,0.0,0.0,
2025-08-14T22:47:04.705Z,2,GR86-016-55,-44.3,-0.188,-0.657,2.47,1.0,,0.0,0.0,81.14
2025-08-14T22:47:04.748Z,2,GR86-016-55,-44.8,-0.186,-0.668,3.63,1.0,,0.0,0.0,
2025-08-14T22:47:04.791Z,2,GR86-016-55,-45.900000000000006,-0.182,-0.683,9.72,1.0,,0.0,0.0,
2025-08-14T22:47:04.834Z,2,GR86-016-55,-47.8,-0.183,-0.687,18.52,1.0,,0.0,0.0,
2025-08-14T22:47:04.877Z,2,GR86-016-55,-50.8,-0.186,-0.732,20.81,1.0,5686.0,0.0,0.0,
2025-08-14T22:47:04.922Z,2,GR86-016-55,-56.7,-0.112,-0.763,23.23,1.0,,0.0,0.0,80.12
2025-08-14T22:47:04.965Z,2,GR86-016-55,-60.6,-0.082,-0.79,24.76,1.0,,0.0,0.0,
2025-08-14T22:47:05.008Z,2,GR86-016-55,-63.7,-0.087,-0.796,27.08,1.0,,0.0,0.0,
2025-08-14T22:47:05.051Z,2,GR86-016-55,-65.5,-0.004,-0.841,28.02,1.0,,0.0,0.0,
2025-08-14T22:47:05.094Z,2,GR86-016-55,-65.8,0.198,-0.811,27.52,1.0,5879.0,0.0,0.0,
2025-08-14T22:47:05.137Z,2,GR86-016-55,-65.7,0.256,-0.859,26.64,1.0,,0.0,0.0,79.07000000000001
2025-08-14T22:47:05.180Z,2,GR86-016-55,-64.8,0.19,-0.786,26.33,1.0,,0.0,0.0,
2025-08-14T22:47:05.225Z,2,GR86-016-55,-64.4,0.124,-0.838,26.9,1.0,,0.0,0.0,
2025-08-14T22:47:05.268Z,2,GR86-016-55,-64.4,0.074,-0.8260000000000001,28.55,1.0,,0.0,0.0,
2025-08-14T22:47:05.311Z,2,GR86-016-55,-64.60000000000001,0.071,-0.858,30.18,1.0,5858.0,0.0,0.0,
2025-08-14T22:47:05.354Z,2,GR86-016-55,-64.60000000000001,0.089,-0.8160000000000001,30.94,1.0,,0.0,0.0,78.85000000000001
2025-08-14T22:47:05.397Z,2,GR86-016-55,-64.60000000000001,0.125,-0.803,31.08,1.0,,0.0,0.0,
2025-08-14T22:47:05.441Z,2,GR86-016-55,-64.0,0.183,-0.778,30.95,1.0,,0.0,0.0,
2025-08-14T22:47:05.484Z,2,GR86-016-55,-62.900000000000006,0.193,-0.8310000000000001,30.96,1.0,,0.0,0.0,
2025-08-14T22:47:05.527Z,2,GR86-016-55,-60.900000000000006,0.178,-0.789,31.01,1.0,6011.0,0.0,0.0,
2025-08-14T22:47:05.570Z,2,GR86-016-55,-59.0,0.166,-0.805,31.03,1.0,,0.0,0.0,79.79
2025-08-14T22:47:05.614Z,2,GR86-016-55,-57.7,0.163,-0.768,31.07,1.0,,0.0,0.0,
2025-08-14T22:47:05.657Z,2,GR86-016-55,-57.2,0.157,-0.797,31.14,1.0,,0.0,0.0,
2025-08-14T22:47:05.701Z,2,GR86-016-55,-56.6,0.167,-0.741,31.24,1.0,,0.0,0.0,
2025-08-14T22:47:05.744Z,2,GR86-016-55,-55.900000000000006,0.166,-0.772,31.5,1.0,6050.0,0.0,0.0,
2025-08-14T22:47:05.787Z,2,GR86-016-55,-55.2,0.175,-0.74,32.17,1.0,,0.0,0.0,80.63
2025-08-14T22:47:05.830Z,2,GR86-016-55,-54.2,0.169,-0.75,32.94,1.0,,0.0,0.0,
2025-08-14T22:47:05.873Z,2,GR86-016-55,-53.2,0.182,-0.725,33.980000000000004,1.0,,0.0,0.0,
2025-08-14T22:47:05.916Z,2,GR86-016-55,-52.1,0.161,-0.725,34.31,1.0,,0.0,0.0,
2025-08-14T22:47:05.961Z,2,GR86-016-55,-52.900000000000006,0.18,-0.707,34.52,1.0,6142.0,0.0,0.0,
2025-08-14T22:47:06.005Z,2,GR86-016-55,-56.900000000000006,0.189,-0.731,36.7,1.0,,0.0,0.0,81.7
2025-08-14T22:47:06.048Z,2,GR86-016-55,-64.4,0.19,-0.736,50.32,1.0,,0.0,0.0,
2025-08-14T22:47:06.091Z,2,GR86-016-55,-70.9,0.178,-0.76,85.38,1.0,,0.0,0.0,
2025-08-14T22:47:06.134Z,2,GR86-016-55,-73.0,0.196,-0.788,99.91,1.0,,0.0,0.0,
2025-08-14T22:47:06.178Z,2,GR86-016-55,-72.3,0.216,-0.805,100.04,1.0,6246.0,0.0,0.0,
2025-08-14T22:47:06.222Z,2,GR86-016-55,-69.4,0.289,-0.788,100.03,1.0,,0.0,0.0,83.99
2025-08-14T22:47:06.265Z,2,GR86-016-55,-68.9,0.322,-0.8310000000000001,100.02,1.0,,0.0,0.0,
2025-08-14T22:47:06.308Z,2,GR86-016-55,-68.9,0.335,-0.834,100.01,1.0,,0.0,0.0,
2025-08-14T22:47:06.351Z,2,GR86-016-55,-69.3,0.299,-0.853,100.02,1.0,,0.0,0.0,
2025-08-14T22:47:06.394Z,2,GR86-016-55,-68.9,0.283,-0.8270000000000001,100.04,1.0,6475.0,0.0,0.0,
2025-08-14T22:47:06.437Z,2,GR86-016-55,-67.3,0.273,-0.862,100.03,1.0,,0.0,0.0,85.99
2025-08-14T22:47:06.480Z,2,GR86-016-55,-57.6,0.269,-0.856,100.04,1.0,,0.0,0.0,
2025-08-14T22:47:06.523Z,2,GR86-016-55,-46.1,0.29,-0.787,100.04,1.0,,0.0,0.0,
2025-08-14T22:47:06.566Z,2,GR86-016-55,-34.1,0.287,-0.747,100.04,1.0,,0.0,0.0,
2025-08-14T22:47:06.609Z,2,GR86-016-55,-24.0,0.284,-0.753,100.03,1.0,6619.0,0.0,0.0,
2025-08-14T22:47:06.652Z,2,GR86-016-55,-17.6,0.319,-0.728,100.02,1.0,,0.0,0.0,87.85000000000001
2025-08-14T22:47:06.695Z,2,GR86-016-55,-15.6,0.295,-0.68,100.05,1.0,,0.0,0.0,
2025-08-14T22:47:06.739Z,2,GR86-016-55,-15.9,0.323,-0.794,100.04,1.0,,0.0,0.0,
2025-08-14T22:47:06.782Z,2,GR86-016-55,-26.4,0.334,-0.767,100.04,1.0,,0.0,0.0,
2025-08-14T22:47:06.825Z,2,GR86-016-55,-35.300000000000004,0.314,-0.8300000000000001,100.03,1.0,7009.0,0.0,0.0,
2025-08-14T22:47:06.868Z,2,GR86-016-55,-43.900000000000006,0.322,-0.835,100.04,1.0,,0.0,0.0,89.66
2025-08-14T22:47:06.911Z,2,GR86-016-55,-52.3,0.279,-0.864,100.04,1.0,,0.0,0.0,
2025-08-14T22:47:06.954Z,2,GR86-016-55,-58.7,0.281,-0.905,100.05,1.0,,0.0,0.0,
2025-08-14T22:47:06.997Z,2,GR86-016-55,-63.2,0.273,-0.929,100.03,1.0,,0.0,0.0,
2025-08-14T22:47:07.040Z,2,GR86-016-55,-65.4,0.264,-0.952,100.02,1.0,7093.0,0.0,0.0,
2025-08-14T22:47:07.084Z,2,GR86-016-55,-65.3,0.277,-0.989,100.03,1.0,,0.0,0.0,91.4
2025-08-14T22:47:07.127Z,2,GR86-016-55,-63.900000000000006,0.257,-1.015,100.06,1.0,,0.0,0.0,
2025-08-14T22:47:07.170Z,2,GR86-016-55,-58.7,0.282,-0.976,100.04,1.0,,0.0,0.0,
2025-08-14T22:47:07.213Z,2,GR86-016-55,-48.2,0.291,-0.924,100.02,1.0,,0.0,0.0,
2025-08-14T22:47:07.256Z,2,GR86-016-55,-34.6,0.3,-0.866,100.01,1.0,7208.0,0.0,0.0,
2025-08-14T22:47:07.299Z,2,GR86-016-55,-21.6,0.295,-0.805,100.03,1.0,,0.0,0.0,93.72
2025-08-14T22:47:07.342Z,2,GR86-016-55,-10.3,0.281,-0.736,100.06,1.0,,0.0,0.0,
2025-08-14T22:47:07.385Z,2,GR86-016-55,-9.8,0.29,-0.683,100.03,1.0,,0.0,0.0,
2025-08-14T22:47:07.428Z,2,GR86-016-55,-12.0,0.262,-0.7010000000000001,100.03,1.0,,0.0,0.0,
2025-08-14T22:47:07.471Z,2,GR86-016-55,-18.4,0.293,-0.628,100.04,1.0,7295.0,0.0,0.0,
2025-08-14T22:47:07.514Z,2,GR86-016-55,-24.0,0.258,-0.653,100.04,1.0,,0.0,0.0,95.46
2025-08-14T22:47:07.557Z,2,GR86-016-55,-28.5,0.053,-0.585,100.01,2.0,,0.0,0.0,
2025-08-14T22:47:07.600Z,2,GR86-016-55,-34.7,0.328,-0.5650000000000001,100.04,2.0,,0.0,0.0,
2025-08-14T22:47:07.644Z,2,GR86-016-55,-37.4,0.5630000000000001,-0.5700000000000001,100.03,2.0,,0.0,0.0,
2025-08-14T22:47:07.687Z,2,GR86-016-55,-40.5,0.406,-0.585,100.03,2.0,6692.0,0.0,0.0,
2025-08-14T22:47:07.730Z,2,GR86-016-55,-44.0,0.547,-0.5630000000000001,100.03,2.0,,0.0,0.0,96.1
2025-08-14T22:47:07.775Z,2,GR86-016-55,-45.5,0.288,-0.758,100.02,2.0,,0.0,0.0,
2025-08-14T22:47:07.818Z,2,GR86-016-55,-45.7,0.172,-0.718,100.03,2.0,,0.0,0.0,
2025-08-14T22:47:07.861Z,2,GR86-016-55,-45.900000000000006,0.136,-0.844,100.04,2.0,,0.0,0.0,
2025-08-14T22:47:07.904Z,2,GR86-016-55,-47.1,0.238,-0.801,100.04,2.0,5675.0,0.0,0.0,
2025-08-14T22:47:07.947Z,2,GR86-016-55,-49.2,0.272,-0.767,100.04,2.0,,0.0,0.0,97.94
2025-08-14T22:47:07.990Z,2,GR86-016-55,-51.7,0.248,-0.811,100.05,2.0,,0.0,0.0,
2025-08-14T22:47:08.033Z,2,GR86-016-55,-53.400000000000006,0.236,-0.847,100.04,2.0,,0.0,0.0,
2025-08-14T22:47:08.076Z,2,GR86-016-55,-53.6,0.201,-0.917,100.03,2.0,,0.0,0.0,
2025-08-14T22:47:08.119Z,2,GR86-016-55,-52.8,0.213,-0.905,100.03,2.0,5947.0,0.0,0.0,
2025-08-14T22:47:08.162Z,2,GR86-016-55,-50.2,0.23,-0.891,100.04,2.0,,0.0,0.0,101.2
2025-08-14T22:47:08.205Z,2,GR86-016-55,-47.3,0.223,-0.908,100.04,2.0,,0.0,0.0,
2025-08-14T22:47:08.248Z,2,GR86-016-55,-42.1,0.22,-0.891,100.03,2.0,,0.0,0.0,
2025-08-14T22:47:08.291Z,2,GR86-016-55,-34.7,0.235,-0.895,100.03,2.0,,0.0,0.0,
2025-08-14T22:47:08.334Z,2,GR86-016-55,-28.0,0.242,-0.87,100.03,2.0,6049.0,0.0,0.0,
2025-08-14T22:47:08.377Z,2,GR86-016-55,-22.5,0.261,-0.8300000000000001,100.02,2.0,,0.0,0.0,102.85
2025-08-14T22:47:08.422Z,2,GR86-016-55,-18.5,0.265,-0.799,100.04,2.0,,0.0,0.0,
2025-08-14T22:47:08.465Z,2,GR86-016-55,-18.0,0.258,-0.798,100.04,2.0,,0.0,0.0,
2025-08-14T22:47:08.508Z,2,GR86-016-55,-18.3,0.272,-0.755,100.02,2.0,,0.0,0.0,
2025-08-14T22:47:08.551Z,2,GR86-016-55,-21.0,0.251,-0.752,100.04,2.0,6134.0,0.0,0.0,
2025-08-14T22:47:08.594Z,2,GR86-016-55,-25.3,0.259,-0.686,100.04,2.0,,0.0,0.0,104.28
2025-08-14T22:47:08.637Z,2,GR86-016-55,-29.1,0.269,-0.676,100.04,2.0,,0.0,0.0,
2025-08-14T22:47:08.680Z,2,GR86-016-55,-32.2,0.24,-0.625,100.03,2.0,,0.0,0.0,
2025-08-14T22:47:08.723Z,2,GR86-016-55,-32.5,0.23,-0.61,100.03,2.0,,0.0,0.0,
2025-08-14T22:47:08.766Z,2,GR86-016-55,-32.2,0.246,-0.588,100.04,2.0,6174.0,0.0,0.0,
2025-08-14T22:47:08.809Z,2,GR86-016-55,-31.3,0.228,-0.603,100.03,2.0,,0.0,0.0,104.8
2025-08-14T22:47:08.852Z,2,GR86-016-55,-29.700000000000003,0.245,-0.584,100.04,2.0,,0.0,0.0,
2025-08-14T22:47:08.895Z,2,GR86-016-55,-27.0,0.252,-0.5760000000000001,100.02,2.0,,0.0,0.0,
2025-08-14T22:47:08.939Z,2,GR86-016-55,-21.4,0.254,-0.559,100.03,2.0,,0.0,0.0,
2025-08-14T22:47:08.982Z,2,GR86-016-55,-10.9,0.267,-0.475,38.82,2.0,6256.0,0.0,0.0,
2025-08-14T22:47:09.025Z,2,GR86-016-55,-4.4,0.259,-0.394,4.49,2.0,,0.0,0.0,107.99
2025-08-14T22:47:09.068Z,2,GR86-016-55,1.4,0.218,-0.344,3.51,2.0,,0.0,0.0,
2025-08-14T22:47:09.112Z,2,GR86-016-55,8.0,-0.049,-0.214,3.09,2.0,,0.0,0.0,
2025-08-14T22:47:09.155Z,2,GR86-016-55,16.6,-0.056,-0.072,2.96,2.0,,0.0,0.0,
2025-08-14T22:47:09.198Z,2,GR86-016-55,26.1,-0.355,0.006,2.95,2.0,6342.0,0.0,0.0,
2025-08-14T22:47:09.241Z,2,GR86-016-55,38.2,-0.278,0.325,33.17,2.0,,0.0,0.0,109.56
2025-08-14T22:47:09.284Z,2,GR86-016-55,42.5,-0.159,0.455,53.95,2.0,,0.0,0.0,
2025-08-14T22:47:09.327Z,2,GR86-016-55,43.400000000000006,-0.049,0.592,85.65,2.0,,0.0,0.0,
2025-08-14T22:47:09.371Z,2,GR86-016-55,43.2,-0.013,0.732,99.27,2.0,,0.0,0.0,
2025-08-14T22:47:09.414Z,2,GR86-016-55,40.8,0.329,0.766,99.62,2.0,5909.0,0.0,0.0,
2025-08-14T22:47:09.457Z,2,GR86-016-55,37.6,0.436,0.804,99.77,2.0,,0.0,0.0,109.01
2025-08-14T22:47:09.500Z,2,GR86-016-55,32.6,0.305,0.869,99.97,2.0,,0.0,0.0,
2025-08-14T22:47:09.543Z,2,GR86-016-55,31.1,0.194,0.851,99.95,2.0,,0.0,0.0,
2025-08-14T22:47:09.586Z,2,GR86-016-55,30.700000000000003,0.184,0.906,99.97,2.0,,0.0,0.0,
2025-08-14T22:47:09.629Z,2,GR86-016-55,30.5,0.252,0.908,99.96,2.0,6462.0,0.0,0.0,
2025-08-14T22:47:09.672Z,2,GR86-016-55,30.4,0.261,0.907,99.96,2.0,,0.0,0.0,110.44
2025-08-14T22:47:09.715Z,2,GR86-016-55,29.9,0.295,0.925,99.94,2.0,,0.0,0.0,
2025-08-14T22:47:09.758Z,2,GR86-016-55,28.9,0.282,0.881,99.98,2.0,,0.0,0.0,
2025-08-14T22:47:09.801Z,2,GR86-016-55,24.3,0.259,0.871,99.97,2.0,,0.0,0.0,
2025-08-14T22:47:09.844Z,2,GR86-016-55,17.8,0.251,0.8280000000000001,99.95,2.0,6537.0,0.0,0.0,
2025-08-14T22:47:09.887Z,2,GR86-016-55,11.0,0.294,0.776,98.82,2.0,,0.0,0.0,110.83
2025-08-14T22:47:09.930Z,2,GR86-016-55,6.0,0.274,0.6940000000000001,42.74,2.0,,0.0,0.0,
2025-08-14T22:47:09.973Z,2,GR86-016-55,3.4000000000000004,0.285,0.632,4.04,2.0,,0.0,0.0,
2025-08-14T22:47:10.016Z,2,GR86-016-55,1.5,0.26,0.559,2.5500000000000003,2.0,,0.0,0.0,
2025-08-14T22:47:10.060Z,2,GR86-016-55,-4.800000000000001,-0.112,0.438,2.38,2.0,6587.0,0.0,0.0,
2025-08-14T22:47:10.103Z,2,GR86-016-55,-12.2,-0.093,0.265,2.36,2.0,,0.0,0.0,112.35
2025-08-14T22:47:10.146Z,2,GR86-016-55,-21.200000000000003,-0.389,0.101,2.36,2.0,,0.0,0.0,
2025-08-14T22:47:10.190Z,2,GR86-016-55,-30.0,-0.285,-0.002,2.36,2.0,,0.0,0.0,
2025-08-14T22:47:10.233Z,2,GR86-016-55,-37.2,-0.168,-0.235,2.35,2.0,,0.0,0.0,
2025-08-14T22:47:10.276Z,2,GR86-016-55,-41.900000000000006,-0.135,-0.385,2.37,2.0,6329.0,0.0,0.0,
2025-08-14T22:47:10.319Z,2,GR86-016-55,-44.400000000000006,-0.155,-0.512,23.39,2.0,,0.0,0.0,113.55
2025-08-14T22:47:10.362Z,2,GR86-016-55,-45.7,-0.197,-0.717,40.28,2.0,,0.0,0.0,
2025-08-14T22:47:10.405Z,2,GR86-016-55,-45.8,-0.123,-0.795,67.58,2.0,,0.0,0.0,
2025-08-14T22:47:10.448Z,2,GR86-016-55,-45.8,-0.1,-0.852,97.23,2.0,,0.0,0.0,
2025-08-14T22:47:10.491Z,2,GR86-016-55,-45.7,0.052,-0.92,99.44,2.0,6360.0,0.0,0.0,
2025-08-14T22:47:10.534Z,2,GR86-016-55,-45.7,0.393,-0.869,99.62,2.0,,0.0,0.0,112.33
2025-08-14T22:47:10.577Z,2,GR86-016-55,-45.6,0.322,-0.88,99.77,2.0,,0.0,0.0,
2025-08-14T22:47:10.622Z,2,GR86-016-55,-44.900000000000006,0.254,-0.919,99.96,2.0,,0.0,0.0,
2025-08-14T22:47:10.665Z,2,GR86-016-55,-43.1,0.222,-0.924,99.93,2.0,,0.0,0.0,
2025-08-14T22:47:10.708Z,2,GR86-016-55,-41.400000000000006,0.194,-0.947,99.93,2.0,6649.0,0.0,0.0,
2025-08-14T22:47:10.751Z,2,GR86-016-55,-40.5,0.218,-0.99,99.95,2.0,,0.0,0.0,112.68
2025-08-14T22:47:10.794Z,2,GR86-016-55,-40.6,0.234,-0.98,99.96,2.0,,0.0,0.0,
2025-08-14T22:47:10.837Z,2,GR86-016-55,-41.1,0.233,-0.943,99.94,2.0,,0.0,0.0,
2025-08-14T22:47:10.880Z,2,GR86-016-55,-39.7,0.221,-0.953,99.91,2.0,,0.0,0.0,
2025-08-14T22:47:10.925Z,2,GR86-016-55,-37.0,0.214,-0.963,99.94,2.0,6698.0,0.0,0.0,
2025-08-14T22:47:10.968Z,2,GR86-016-55,-29.8,0.249,-0.921,99.96,2.0,,0.0,0.0,113.68
2025-08-14T22:47:11.011Z,2,GR86-016-55,-21.200000000000003,0.255,-0.906,57.84,2.0,,0.0,0.0,
2025-08-14T22:47:11.054Z,2,GR86-016-55,-12.3,0.268,-0.812,4.17,2.0,,0.0,0.0,
2025-08-14T22:47:11.097Z,2,GR86-016-55,-6.0,0.255,-0.763,2.89,2.0,,0.0,0.0,
2025-08-14T22:47:11.140Z,2,GR86-016-55,-1.5,-0.07,-0.636,2.67,2.0,6761.0,0.0,0.0,
2025-08-14T22:47:11.185Z,2,GR86-016-55,0.9,-0.054,-0.599,2.63,2.0,,0.0,0.0,114.88
2025-08-14T22:47:11.228Z,2,GR86-016-55,5.300000000000001,-0.36,-0.501,2.61,2.0,,0.0,0.0,
2025-08-14T22:47:11.271Z,2,GR86-016-55,11.6,-0.288,-0.27,2.58,2.0,,0.0,0.0,
2025-08-14T22:47:11.314Z,2,GR86-016-55,18.7,-0.181,-0.165,29.62,2.0,,0.0,0.0,
2025-08-14T22:47:11.357Z,2,GR86-016-55,25.6,-0.118,-0.019,44.98,2.0,6204.0,0.0,0.0,
2025-08-14T22:47:11.400Z,2,GR86-016-55,33.5,-0.04,0.253,95.7,2.0,,0.0,0.0,115.48
2025-08-14T22:47:11.444Z,2,GR86-016-55,36.6,-0.052,0.317,98.59,2.0,,0.0,0.0,
2025-08-14T22:47:11.487Z,2,GR86-016-55,38.400000000000006,0.276,0.5700000000000001,99.41,2.0,,0.0,0.0,
2025-08-14T22:47:11.530Z,2,GR86-016-55,38.7,0.498,0.665,99.55,2.0,,0.0,0.0,
2025-08-14T22:47:11.573Z,2,GR86-016-55,38.7,0.391,0.739,99.67,2.0,6531.0,0.0,0.0,
2025-08-14T22:47:11.616Z,2,GR86-016-55,38.7,0.26,0.84,99.75,2.0,,0.0,0.0,114.92
2025-08-14T22:47:11.661Z,2,GR86-016-55,37.5,0.153,0.893,99.9,2.0,,0.0,0.0,
2025-08-14T22:47:11.705Z,2,GR86-016-55,34.9,0.205,0.936,99.94,2.0,,0.0,0.0,
2025-08-14T22:47:11.748Z,2,GR86-016-55,31.8,0.241,0.956,99.95,2.0,,0.0,0.0,
2025-08-14T22:47:11.791Z,2,GR86-016-55,25.6,0.292,0.955,99.96,2.0,6630.0,0.0,0.0,
2025-08-14T22:47:11.834Z,2,GR86-016-55,19.700000000000003,0.291,0.868,99.97,2.0,,0.0,0.0,116.85
2025-08-14T22:47:11.878Z,2,GR86-016-55,15.3,0.244,0.861,99.97,2.0,,0.0,0.0,
2025-08-14T22:47:11.922Z,2,GR86-016-55,13.1,0.24,0.852,99.94,2.0,,0.0,0.0,
2025-08-14T22:47:11.965Z,2,GR86-016-55,13.0,0.268,0.891,99.95,2.0,,0.0,0.0,
2025-08-14T22:47:12.008Z,2,GR86-016-55,16.400000000000002,0.298,0.879,99.96,2.0,6896.0,0.0,0.0,
2025-08-14T22:47:12.051Z,2,GR86-016-55,21.200000000000003,0.266,0.89,99.96,2.0,,0.0,0.0,117.28
2025-08-14T22:47:12.094Z,2,GR86-016-55,22.9,0.288,0.887,99.96,2.0,,0.0,0.0,
2025-08-14T22:47:12.137Z,2,GR86-016-55,21.9,0.283,0.856,99.97,2.0,,0.0,0.0,
2025-08-14T22:47:12.180Z,2,GR86-016-55,16.2,0.28,0.782,99.94,2.0,,0.0,0.0,
2025-08-14T22:47:12.223Z,2,GR86-016-55,10.7,0.245,0.712,99.95,2.0,6973.0,0.0,0.0,
2025-08-14T22:47:12.266Z,2,GR86-016-55,6.1000000000000005,0.284,0.656,99.93,2.0,,0.0,0.0,118.59
2025-08-14T22:47:12.309Z,2,GR86-016-55,2.4000000000000004,0.293,0.5750000000000001,99.93,2.0,,0.0,0.0,
2025-08-14T22:47:12.352Z,2,GR86-016-55,-0.7000000000000001,0.267,0.486,99.96,2.0,,0.0,0.0,
2025-08-14T22:47:12.395Z,2,GR86-016-55,-3.1,0.284,0.412,99.93,2.0,,0.0,0.0,
2025-08-14T22:47:12.439Z,2,GR86-016-55,-5.300000000000001,0.273,0.322,99.96,2.0,7026.0,0.0,0.0,
2025-08-14T22:47:12.482Z,2,GR86-016-55,-7.5,0.257,0.202,99.95,2.0,,0.0,0.0,120.35
2025-08-14T22:47:12.525Z,2,GR86-016-55,-8.6,0.243,0.107,99.94,2.0,,0.0,0.0,
2025-08-14T22:47:12.568Z,2,GR86-016-55,-9.5,0.259,0.032,99.97,2.0,,0.0,0.0,
2025-08-14T22:47:12.611Z,2,GR86-016-55,-10.5,0.268,-0.037,99.93,2.0,,0.0,0.0,
2025-08-14T22:47:12.654Z,2,GR86-016-55,-11.7,0.252,-0.079,99.97,2.0,7117.0,0.0,0.0,
2025-08-14T22:47:12.697Z,2,GR86-016-55,-12.8,0.251,-0.177,99.99,2.0,,0.0,0.0,122.03
2025-08-14T22:47:12.740Z,2,GR86-016-55,-13.4,0.166,-0.254,99.94,2.0,,0.0,0.0,
2025-08-14T22:47:12.783Z,2,GR86-016-55,-13.7,-0.063,-0.215,99.97,3.0,,0.0,0.0,
2025-08-14T22:47:12.826Z,2,GR86-016-55,-15.0,0.608,-0.241,99.97,3.0,,0.0,0.0,
2025-08-14T22:47:12.869Z,2,GR86-016-55,-15.7,0.503,-0.443,99.96,3.0,6745.0,0.0,0.0,
2025-08-14T22:47:12.912Z,2,GR86-016-55,-17.2,0.242,-0.383,99.98,3.0,,0.0,0.0,123.63
2025-08-14T22:47:12.955Z,2,GR86-016-55,-20.1,0.134,-0.385,99.97,3.0,,0.0,0.0,
2025-08-14T22:47:12.998Z,2,GR86-016-55,-22.5,0.083,-0.5710000000000001,99.96,3.0,,0.0,0.0,
2025-08-14T22:47:13.041Z,2,GR86-016-55,-23.9,0.205,-0.504,99.96,3.0,,0.0,0.0,
2025-08-14T22:47:13.084Z,2,GR86-016-55,-23.9,0.221,-0.626,99.96,3.0,5943.0,0.0,0.0,
2025-08-14T22:47:13.127Z,2,GR86-016-55,-23.6,0.211,-0.5740000000000001,99.96,3.0,,0.0,0.0,124.99
2025-08-14T22:47:13.170Z,2,GR86-016-55,-23.5,0.184,-0.592,99.96,3.0,,0.0,0.0,
2025-08-14T22:47:13.213Z,2,GR86-016-55,-24.200000000000003,0.182,-0.664,99.97,3.0,,0.0,0.0,
2025-08-14T22:47:13.256Z,2,GR86-016-55,-25.3,0.205,-0.654,99.98,3.0,,0.0,0.0,
2025-08-14T22:47:13.299Z,2,GR86-016-55,-25.9,0.196,-0.646,99.97,3.0,5997.0,0.0,0.0,
2025-08-14T22:47:13.342Z,2,GR86-016-55,-25.9,0.194,-0.663,99.99,3.0,,0.0,0.0,126.44
2025-08-14T22:47:13.385Z,2,GR86-016-55,-25.9,0.172,-0.672,99.99,3.0,,0.0,0.0,
2025-08-14T22:47:13.471Z,2,GR86-016-55,-25.9,0.191,-0.667,100.0,3.0,,0.0,0.0,
2025-08-14T22:47:13.514Z,2,GR86-016-55,-25.700000000000003,0.181,-0.666,99.99,3.0,6045.0,0.0,0.0,
2025-08-14T22:47:13.558Z,2,GR86-016-55,-25.3,0.179,-0.667,99.99,3.0,,0.0,0.0,127.57
2025-08-14T22:47:13.601Z,2,GR86-016-55,-24.200000000000003,0.174,-0.671,99.99,3.0,,0.0,0.0,
2025-08-14T22:47:13.644Z,2,GR86-016-55,-23.5,0.18,-0.652,99.99,3.0,,0.0,0.0,
2025-08-14T22:47:13.688Z,2,GR86-016-55,-22.9,0.192,-0.643,100.01,3.0,,0.0,0.0,
2025-08-14T22:47:13.732Z,2,GR86-016-55,-22.1,0.191,-0.627,99.99,3.0,6104.0,0.0,0.0,
2025-08-14T22:47:13.775Z,2,GR86-016-55,-21.200000000000003,0.174,-0.628,100.0,3.0,,0.0,0.0,128.65
2025-08-14T22:47:13.818Z,2,GR86-016-55,-20.3,0.184,-0.61,99.99,3.0,,0.0,0.0,
2025-08-14T22:47:13.861Z,2,GR86-016-55,-17.7,0.188,-0.611,100.01,3.0,,0.0,0.0,
2025-08-14T22:47:13.905Z,2,GR86-016-55,-14.2,0.2,-0.581,99.99,3.0,,0.0,0.0,
2025-08-14T22:47:13.948Z,2,GR86-016-55,-10.6,0.201,-0.545,100.0,3.0,6154.0,0.0,0.0,
2025-08-14T22:47:13.991Z,2,GR86-016-55,-7.5,0.185,-0.488,99.99,3.0,,0.0,0.0,129.67000000000002
2025-08-14T22:47:14.034Z,2,GR86-016-55,-4.7,0.206,-0.429,100.01,3.0,,0.0,0.0,
2025-08-14T22:47:14.077Z,2,GR86-016-55,-2.5,0.209,-0.373,99.99,3.0,,0.0,0.0,
2025-08-14T22:47:14.122Z,2,GR86-016-55,-0.1,0.198,-0.258,100.0,3.0,,0.0,0.0,
2025-08-14T22:47:14.165Z,2,GR86-016-55,0.9,0.215,-0.206,100.0,3.0,6200.0,0.0,0.0,
2025-08-14T22:47:14.208Z,2,GR86-016-55,1.4,0.206,-0.143,99.99,3.0,,0.0,0.0,130.88
2025-08-14T22:47:14.251Z,2,GR86-016-55,1.7000000000000002,0.19,-0.089,100.0,3.0,,0.0,0.0,
2025-08-14T22:47:14.294Z,2,GR86-016-55,2.1,0.201,-0.038,100.0,3.0,,0.0,0.0,
2025-08-14T22:47:14.337Z,2,GR86-016-55,2.9000000000000004,0.21,0.031,100.0,3.0,,0.0,0.0,
2025-08-14T22:47:14.380Z,2,GR86-016-55,4.9,0.214,0.118,99.98,3.0,6250.0,0.0,0.0,
2025-08-14T22:47:14.423Z,2,GR86-016-55,6.7,0.209,0.175,100.01,3.0,,0.0,0.0,133.55
2025-08-14T22:47:14.466Z,2,GR86-016-55,7.7,0.187,0.229,100.01,3.0,,0.0,0.0,
2025-08-14T22:47:14.509Z,2,GR86-016-55,7.9,0.198,0.254,99.99,3.0,,0.0,0.0,
2025-08-14T22:47:14.552Z,2,GR86-016-55,7.800000000000001,0.211,0.289,100.01,3.0,,0.0,0.0,
2025-08-14T22:47:14.595Z,2,GR86-016-55,7.4,0.21,0.319,99.99,3.0,6307.0,0.0,0.0,
2025-08-14T22:47:14.639Z,2,GR86-016-55,6.9,0.193,0.359,100.0,3.0,,0.0,0.0,134.86
2025-08-14T22:47:14.682Z,2,GR86-016-55,6.6000000000000005,0.199,0.378,100.0,3.0,,0.0,0.0,
2025-08-14T22:47:14.725Z,2,GR86-016-55,6.2,0.19,0.385,99.99,3.0,,0.0,0.0,
2025-08-14T22:47:14.768Z,2,GR86-016-55,6.0,0.206,0.369,100.02,3.0,,0.0,0.0,
2025-08-14T22:47:14.812Z,2,GR86-016-55,5.800000000000001,0.221,0.367,99.96,3.0,6368.0,0.0,0.0,
2025-08-14T22:47:14.855Z,2,GR86-016-55,5.6000000000000005,0.197,0.348,100.01,3.0,,0.0,0.0,136.12
2025-08-14T22:47:14.898Z,2,GR86-016-55,5.2,0.184,0.328,99.99,3.0,,0.0,0.0,
2025-08-14T22:47:14.941Z,2,GR86-016-55,4.800000000000001,0.195,0.302,100.0,3.0,,0.0,0.0,
2025-08-14T22:47:14.984Z,2,GR86-016-55,4.1000000000000005,0.178,0.275,99.99,3.0,,0.0,0.0,
2025-08-14T22:47:15.028Z,2,GR86-016-55,3.5,0.201,0.262,100.02,3.0,6479.0,0.0,0.0,
2025-08-14T22:47:15.071Z,2,GR86-016-55,3.3000000000000003,0.212,0.238,99.99,3.0,,0.0,0.0,137.35
2025-08-14T22:47:15.114Z,2,GR86-016-55,3.2,0.19,0.229,99.99,3.0,,0.0,0.0,
2025-08-14T22:47:15.157Z,2,GR86-016-55,3.2,0.181,0.206,100.01,3.0,,0.0,0.0,
2025-08-14T22:47:15.200Z,2,GR86-016-55,3.2,0.188,0.176,99.99,3.0,,0.0,0.0,
2025-08-14T22:47:15.244Z,2,GR86-016-55,3.2,0.173,0.145,100.02,3.0,6527.0,0.0,0.0,
2025-08-14T22:47:15.287Z,2,GR86-016-55,3.2,0.193,0.14,99.97,3.0,,0.0,0.0,138.61
2025-08-14T22:47:15.330Z,2,GR86-016-55,3.2,0.211,0.151,100.0,3.0,,0.0,0.0,
2025-08-14T22:47:15.373Z,2,GR86-016-55,3.9,0.201,0.17,100.01,3.0,,0.0,0.0,
2025-08-14T22:47:15.416Z,2,GR86-016-55,4.800000000000001,0.168,0.175,99.98,3.0,,0.0,0.0,
2025-08-14T22:47:15.460Z,2,GR86-016-55,5.0,0.191,0.206,99.99,3.0,6582.0,0.0,0.0,
2025-08-14T22:47:15.503Z,2,GR86-016-55,4.800000000000001,0.181,0.206,100.01,3.0,,0.0,0.0,139.79
2025-08-14T22:47:15.546Z,2,GR86-016-55,3.8,0.192,0.19,100.0,3.0,,0.0,0.0,
2025-08-14T22:47:15.589Z,2,GR86-016-55,2.7,0.203,0.203,100.02,3.0,,0.0,0.0,
2025-08-14T22:47:15.632Z,2,GR86-016-55,2.4000000000000004,0.197,0.209,100.0,3.0,,0.0,0.0,
2025-08-14T22:47:15.675Z,2,GR86-016-55,2.4000000000000004,0.177,0.194,99.96,3.0,6641.0,4.44,4.745,
2025-08-14T22:47:15.718Z,2,GR86-016-55,2.4000000000000004,0.156,0.193,61.06,3.0,,14.45,14.635,141.11
2025-08-14T22:47:15.761Z,2,GR86-016-55,2.4000000000000004,-0.252,0.144,3.21,3.0,,27.59,27.47,
2025-08-14T22:47:15.847Z,2,GR86-016-55,2.4000000000000004,-0.468,0.152,2.78,3.0,,34.215,33.94,
2025-08-14T22:47:15.890Z,2,GR86-016-55,2.3000000000000003,-0.893,0.14,2.6,3.0,6605.0,42.835,42.455,
2025-08-14T22:47:15.976Z,2,GR86-016-55,2.2,-1.004,0.084,2.57,3.0,,45.43,45.4,141.55
2025-08-14T22:47:16.019Z,2,GR86-016-55,1.6,-1.027,0.077,2.56,3.0,,46.56,46.53,
2025-08-14T22:47:16.062Z,2,GR86-016-55,0.9,-1.013,0.066,2.53,3.0,,45.965,46.145,
2025-08-14T22:47:16.148Z,2,GR86-016-55,0.7000000000000001,-0.981,0.019,2.51,3.0,5967.0,45.03,45.55,135.46
2025-08-14T22:47:16.191Z,2,GR86-016-55,0.7000000000000001,-0.999,-0.024,2.5,3.0,,42.68,43.355,
2025-08-14T22:47:16.277Z,2,GR86-016-55,0.7000000000000001,-0.95,-0.082,2.51,3.0,,41.705,42.515,
2025-08-14T22:47:16.322Z,2,GR86-016-55,0.7000000000000001,-0.894,-0.085,2.51,3.0,5605.0,42.21,43.02,
2025-08-14T22:47:16.365Z,2,GR86-016-55,0.7000000000000001,-0.932,-0.128,2.5,3.0,,40.12,40.99,126.48
2025-08-14T22:47:16.408Z,2,GR86-016-55,0.7000000000000001,-0.952,-0.106,2.51,3.0,,40.18,41.14,
2025-08-14T22:47:16.451Z,2,GR86-016-55,1.7000000000000002,-0.918,-0.126,2.53,3.0,,37.98,39.065,
2025-08-14T22:47:16.494Z,2,GR86-016-55,4.0,-0.887,-0.154,4.45,3.0,,29.62,31.025,
2025-08-14T22:47:16.537Z,2,GR86-016-55,5.1000000000000005,-0.5640000000000001,-0.103,17.21,3.0,5404.0,16.59,17.685,
2025-08-14T22:47:16.582Z,2,GR86-016-55,7.1000000000000005,-0.24,-0.115,20.46,3.0,,2.075,2.58,121.85
2025-08-14T22:47:16.626Z,2,GR86-016-55,7.7,-0.131,-0.097,20.75,3.0,,0.0,0.0,
2025-08-14T22:47:16.669Z,2,GR86-016-55,7.800000000000001,-0.061,-0.044,22.97,3.0,,0.0,0.0,
2025-08-14T22:47:16.712Z,2,GR86-016-55,7.7,-0.088,-0.02,27.01,3.0,,0.0,0.0,
2025-08-14T22:47:16.755Z,2,GR86-016-55,7.2,-0.032,0.024,28.76,3.0,5308.0,0.0,0.0,
2025-08-14T22:47:16.798Z,2,GR86-016-55,3.6,0.17,0.108,28.01,3.0,,0.0,0.0,116.59
2025-08-14T22:47:16.841Z,2,GR86-016-55,0.9,0.149,0.116,29.06,3.0,,0.0,0.0,
2025-08-14T22:47:16.885Z,2,GR86-016-55,0.5,0.062,0.161,33.9,3.0,,0.0,0.0,
2025-08-14T22:47:16.928Z,2,GR86-016-55,0.5,0.058,0.154,39.53,3.0,,0.0,0.0,
2025-08-14T22:47:16.971Z,2,GR86-016-55,0.5,0.127,0.15,44.46,3.0,5597.0,0.0,0.0,
2025-08-14T22:47:17.014Z,2,GR86-016-55,0.4,0.162,0.162,53.75,3.0,,0.0,0.0,117.18
2025-08-14T22:47:17.057Z,2,GR86-016-55,0.3,0.193,0.137,78.79,3.0,,0.0,0.0,
2025-08-14T22:47:17.100Z,2,GR86-016-55,-0.5,0.182,0.106,99.97,3.0,,0.0,0.0,
2025-08-14T22:47:17.143Z,2,GR86-016-55,-1.7000000000000002,0.193,0.081,100.03,3.0,,0.0,0.0,
2025-08-14T22:47:17.187Z,2,GR86-016-55,-3.0,0.21,0.06,100.03,3.0,5554.0,0.0,0.0,
2025-08-14T22:47:17.230Z,2,GR86-016-55,-3.9,0.214,0.035,100.03,3.0,,0.0,0.0,118.25
2025-08-14T22:47:17.273Z,2,GR86-016-55,-4.3,0.207,0.011,100.04,3.0,,0.0,0.0,
2025-08-14T22:47:17.316Z,2,GR86-016-55,-4.4,0.194,-0.015,100.02,3.0,,0.0,0.0,
2025-08-14T22:47:17.359Z,2,GR86-016-55,-4.4,0.203,-0.013,100.04,3.0,,0.0,0.0,
2025-08-14T22:47:17.402Z,2,GR86-016-55,-4.4,0.213,-0.025,100.03,3.0,5602.0,0.0,0.0,
2025-08-14T22:47:17.445Z,2,GR86-016-55,-4.4,0.206,-0.032,100.04,3.0,,0.0,0.0,119.64
2025-08-14T22:47:17.488Z,2,GR86-016-55,-4.3,0.207,-0.043,100.03,3.0,,0.0,0.0,
2025-08-14T22:47:17.531Z,2,GR86-016-55,-4.3,0.199,-0.035,100.03,3.0,,0.0,0.0,
2025-08-14T22:47:17.575Z,2,GR86-016-55,-4.4,0.203,-0.047,100.02,3.0,,0.0,0.0,
2025-08-14T22:47:17.618Z,2,GR86-016-55,-5.0,0.204,-0.072,100.03,3.0,5657.0,0.0,0.0,
2025-08-14T22:47:17.662Z,2,GR86-016-55,-6.300000000000001,0.212,-0.083,100.03,3.0,,0.0,0.0,121.03
2025-08-14T22:47:17.705Z,2,GR86-016-55,-7.1000000000000005,0.206,-0.087,100.03,3.0,,0.0,0.0,
2025-08-14T22:47:17.748Z,2,GR86-016-55,-7.4,0.201,-0.086,100.03,3.0,,0.0,0.0,
2025-08-14T22:47:17.791Z,2,GR86-016-55,-7.4,0.197,-0.112,100.04,3.0,,0.0,0.0,
2025-08-14T22:47:17.834Z,2,GR86-016-55,-7.300000000000001,0.205,-0.102,100.03,3.0,5795.0,0.0,0.0,
2025-08-14T22:47:17.878Z,2,GR86-016-55,-6.9,0.205,-0.106,100.02,3.0,,0.0,0.0,122.45
2025-08-14T22:47:17.922Z,2,GR86-016-55,-6.800000000000001,0.209,-0.107,100.03,3.0,,0.0,0.0,
2025-08-14T22:47:17.965Z,2,GR86-016-55,-6.800000000000001,0.201,-0.126,100.03,3.0,,0.0,0.0,
2025-08-14T22:47:18.008Z,2,GR86-016-55,-7.1000000000000005,0.187,-0.129,100.02,3.0,,0.0,0.0,
2025-08-14T22:47:18.051Z,2,GR86-016-55,-7.800000000000001,0.206,-0.142,100.02,3.0,5864.0,0.0,0.0,
2025-08-14T22:47:18.094Z,2,GR86-016-55,-8.1,0.205,-0.154,100.02,3.0,,0.0,0.0,123.9
2025-08-14T22:47:18.137Z,2,GR86-016-55,-8.1,0.194,-0.161,100.0,3.0,,0.0,0.0,
2025-08-14T22:47:18.180Z,2,GR86-016-55,-7.9,0.198,-0.144,100.03,3.0,,0.0,0.0,
2025-08-14T22:47:18.223Z,2,GR86-016-55,-7.1000000000000005,0.2,-0.132,100.03,3.0,,0.0,0.0,
2025-08-14T22:47:18.266Z,2,GR86-016-55,-6.800000000000001,0.204,-0.123,100.02,3.0,5925.0,0.0,0.0,
2025-08-14T22:47:18.309Z,2,GR86-016-55,-6.800000000000001,0.19,-0.125,100.03,3.0,,0.0,0.0,125.38
2025-08-14T22:47:18.352Z,2,GR86-016-55,-6.9,0.187,-0.12,100.02,3.0,,0.0,0.0,
2025-08-14T22:47:18.395Z,2,GR86-016-55,-6.9,0.2,-0.113,100.03,3.0,,0.0,0.0,
2025-08-14T22:47:18.439Z,2,GR86-016-55,-6.800000000000001,0.195,-0.118,100.03,3.0,,0.0,0.0,
2025-08-14T22:47:18.482Z,2,GR86-016-55,-6.2,0.188,-0.102,100.02,3.0,5993.0,0.0,0.0,
2025-08-14T22:47:18.525Z,2,GR86-016-55,-5.5,0.187,-0.084,100.03,3.0,,0.0,0.0,126.83
2025-08-14T22:47:18.568Z,2,GR86-016-55,-4.9,0.189,-0.077,100.02,3.0,,0.0,0.0,
2025-08-14T22:47:18.611Z,2,GR86-016-55,-4.6000000000000005,0.192,-0.054,100.02,3.0,,0.0,0.0,
2025-08-14T22:47:18.654Z,2,GR86-016-55,-4.6000000000000005,0.196,-0.058,100.03,3.0,,0.0,0.0,
2025-08-14T22:47:18.697Z,2,GR86-016-55,-4.6000000000000005,0.19,-0.043,100.04,3.0,6048.0,0.0,0.0,
2025-08-14T22:47:18.740Z,2,GR86-016-55,-4.800000000000001,0.185,-0.029,100.04,3.0,,0.0,0.0,128.26
2025-08-14T22:47:18.784Z,2,GR86-016-55,-4.9,0.19,-0.018,100.02,3.0,,0.0,0.0,
2025-08-14T22:47:18.827Z,2,GR86-016-55,-5.0,0.195,-0.008,100.02,3.0,,0.0,0.0,
2025-08-14T22:47:18.870Z,2,GR86-016-55,-5.0,0.189,-0.014,100.03,3.0,,0.0,0.0,
2025-08-14T22:47:18.913Z,2,GR86-016-55,-5.1000000000000005,0.177,-0.014,100.03,3.0,6124.0,0.0,0.0,
2025-08-14T22:47:18.956Z,2,GR86-016-55,-5.1000000000000005,0.186,-0.014,100.04,3.0,,0.0,0.0,129.72
2025-08-14T22:47:18.999Z,2,GR86-016-55,-5.1000000000000005,0.193,-0.026,100.03,3.0,,0.0,0.0,
2025-08-14T22:47:19.085Z,2,GR86-016-55,-5.1000000000000005,0.192,-0.041,100.04,3.0,,0.0,0.0,
2025-08-14T22:47:19.128Z,2,GR86-016-55,-5.1000000000000005,0.183,-0.038,100.02,3.0,6178.0,0.0,0.0,
2025-08-14T22:47:19.171Z,2,GR86-016-55,-5.0,0.182,-0.048,100.01,3.0,,0.0,0.0,131.12
2025-08-14T22:47:19.214Z,2,GR86-016-55,-5.1000000000000005,0.196,-0.051,100.04,3.0,,0.0,0.0,
2025-08-14T22:47:19.257Z,2,GR86-016-55,-5.1000000000000005,0.182,-0.061,100.02,3.0,,0.0,0.0,
2025-08-14T22:47:19.300Z,2,GR86-016-55,-5.300000000000001,0.198,-0.056,100.04,3.0,,0.0,0.0,
2025-08-14T22:47:19.343Z,2,GR86-016-55,-5.300000000000001,0.175,-0.065,100.03,3.0,6246.0,0.0,0.0,
2025-08-14T22:47:19.386Z,2,GR86-016-55,-5.300000000000001,0.168,-0.076,100.04,3.0,,0.0,0.0,132.34
2025-08-14T22:47:19.429Z,2,GR86-016-55,-5.300000000000001,0.167,-0.09,100.04,3.0,,6.15,6.21,
2025-08-14T22:47:19.472Z,2,GR86-016-55,-5.2,0.02,-0.079,84.17,3.0,,12.925,12.65,
2025-08-14T22:47:19.515Z,2,GR86-016-55,-4.7,-0.155,-0.093,13.1,3.0,,19.93,19.76,
2025-08-14T22:47:19.558Z,2,GR86-016-55,-2.8000000000000003,-0.317,-0.079,3.81,3.0,6310.0,25.955,25.575,
2025-08-14T22:47:19.601Z,2,GR86-016-55,-0.3,-0.6880000000000001,-0.04,3.24,3.0,,31.925,31.51,133.59
2025-08-14T22:47:19.644Z,2,GR86-016-55,0.3,-0.774,-0.018,3.03,3.0,,34.655,34.335,
2025-08-14T22:47:19.732Z,2,GR86-016-55,0.9,-0.916,-0.045,2.93,3.0,,36.64,36.515,
2025-08-14T22:47:19.775Z,2,GR86-016-55,1.4,-0.911,-0.021,2.81,3.0,6013.0,37.385,37.325,
2025-08-14T22:47:19.818Z,2,GR86-016-55,1.5,-0.874,-0.072,2.77,3.0,,37.615,37.8,132.89
2025-08-14T22:47:19.861Z,2,GR86-016-55,1.7000000000000002,-0.872,-0.043,2.71,3.0,,37.355,37.83,
2025-08-14T22:47:19.904Z,2,GR86-016-55,2.1,-0.872,-0.072,2.67,3.0,,37.08,37.11,
2025-08-14T22:47:19.947Z,2,GR86-016-55,2.4000000000000004,-0.925,-0.042,2.64,3.0,,36.96,37.05,
2025-08-14T22:47:19.990Z,2,GR86-016-55,2.8000000000000003,-0.855,-0.035,2.62,3.0,5695.0,37.325,37.675,
2025-08-14T22:47:20.033Z,2,GR86-016-55,3.0,-0.866,-0.047,2.59,3.0,,36.96,37.05,121.68
2025-08-14T22:47:20.076Z,2,GR86-016-55,3.1,-0.898,-0.031,2.57,3.0,,37.175,37.295,
2025-08-14T22:47:20.119Z,2,GR86-016-55,3.1,-0.84,-0.038,2.5500000000000003,3.0,,37.325,37.77,
2025-08-14T22:47:20.162Z,2,GR86-016-55,3.1,-0.843,-0.019,2.53,3.0,,36.67,37.11,
2025-08-14T22:47:20.205Z,2,GR86-016-55,3.3000000000000003,-0.8190000000000001,-0.019,2.52,3.0,5453.0,33.22,34.09,
2025-08-14T22:47:20.248Z,2,GR86-016-55,3.4000000000000004,-0.6930000000000001,-0.017,2.56,3.0,,24.585,25.605,116.1
2025-08-14T22:47:20.291Z,2,GR86-016-55,3.4000000000000004,-0.452,0.003,4.41,3.0,,13.46,14.205,
2025-08-14T22:47:20.334Z,2,GR86-016-55,3.4000000000000004,-0.248,-0.009,17.55,3.0,,3.875,4.275,
2025-08-14T22:47:20.422Z,2,GR86-016-55,3.3000000000000003,-0.06,0.082,23.24,3.0,5208.0,0.0,0.0,
2025-08-14T22:47:20.465Z,2,GR86-016-55,3.3000000000000003,-0.073,0.095,27.22,3.0,,0.0,0.0,112.84
2025-08-14T22:47:20.508Z,2,GR86-016-55,3.4000000000000004,-0.042,0.129,33.12,3.0,,0.0,0.0,
2025-08-14T22:47:20.551Z,2,GR86-016-55,4.0,-0.038,0.145,40.6,3.0,,0.0,0.0,
2025-08-14T22:47:20.594Z,2,GR86-016-55,5.4,0.257,0.19,42.67,3.0,,0.0,0.0,
2025-08-14T22:47:20.637Z,2,GR86-016-55,7.1000000000000005,0.261,0.185,42.82,3.0,5420.0,0.0,0.0,
2025-08-14T22:47:20.680Z,2,GR86-016-55,9.1,0.137,0.248,51.67,3.0,,0.0,0.0,112.79
2025-08-14T22:47:20.723Z,2,GR86-016-55,9.9,0.125,0.251,56.89,3.0,,0.0,0.0,
2025-08-14T22:47:20.809Z,2,GR86-016-55,10.2,0.23,0.316,67.92,3.0,,0.0,0.0,
2025-08-14T22:47:20.852Z,2,GR86-016-55,10.2,0.215,0.31,90.44,3.0,5384.0,0.0,0.0,
2025-08-14T22:47:20.895Z,2,GR86-016-55,10.0,0.207,0.344,99.91,3.0,,0.0,0.0,113.31
2025-08-14T22:47:20.939Z,2,GR86-016-55,9.5,0.21,0.349,100.04,3.0,,0.0,0.0,
2025-08-14T22:47:20.982Z,2,GR86-016-55,8.5,0.222,0.348,100.04,3.0,,0.0,0.0,
2025-08-14T22:47:21.025Z,2,GR86-016-55,7.9,0.222,0.324,100.03,3.0,,0.0,0.0,
2025-08-14T22:47:21.068Z,2,GR86-016-55,7.4,0.215,0.327,100.03,3.0,5432.0,0.0,0.0,
2025-08-14T22:47:21.112Z,2,GR86-016-55,6.9,0.198,0.306,100.03,3.0,,0.0,0.0,114.71
2025-08-14T22:47:21.155Z,2,GR86-016-55,6.5,0.22,0.294,100.04,3.0,,0.0,0.0,
2025-08-14T22:47:21.198Z,2,GR86-016-55,6.1000000000000005,0.221,0.282,100.03,3.0,,0.0,0.0,
2025-08-14T22:47:21.284Z,2,GR86-016-55,2.6,0.209,0.239,100.03,3.0,5500.0,0.0,0.0,
2025-08-14T22:47:21.327Z,2,GR86-016-55,-0.1,0.214,0.218,100.03,3.0,,0.0,0.0,116.09
2025-08-14T22:47:21.371Z,2,GR86-016-55,-3.4000000000000004,0.221,0.178,100.03,3.0,,0.0,0.0,
2025-08-14T22:47:21.414Z,2,GR86-016-55,-7.300000000000001,0.207,0.127,100.04,3.0,,0.0,0.0,
2025-08-14T22:47:21.457Z,2,GR86-016-55,-11.3,0.204,0.07,100.03,3.0,,0.0,0.0,
2025-08-14T22:47:21.500Z,2,GR86-016-55,-16.3,0.208,-0.039,100.03,3.0,5565.0,0.0,0.0,
2025-08-14T22:47:21.543Z,2,GR86-016-55,-18.3,0.214,-0.109,100.03,3.0,,0.0,0.0,117.61
2025-08-14T22:47:21.586Z,2,GR86-016-55,-19.200000000000003,0.197,-0.191,100.03,3.0,,0.0,0.0,
2025-08-14T22:47:21.630Z,2,GR86-016-55,-19.4,0.196,-0.218,100.03,3.0,,0.0,0.0,
2025-08-14T22:47:21.673Z,2,GR86-016-55,-19.3,0.195,-0.278,100.05,3.0,,0.0,0.0,
2025-08-14T22:47:21.716Z,2,GR86-016-55,-19.1,0.191,-0.323,100.02,3.0,5624.0,0.0,0.0,
2025-08-14T22:47:21.760Z,2,GR86-016-55,-18.2,0.192,-0.37,100.04,3.0,,0.0,0.0,119.1
2025-08-14T22:47:21.803Z,2,GR86-016-55,-17.1,0.208,-0.384,100.0,3.0,,0.0,0.0,
2025-08-14T22:47:21.846Z,2,GR86-016-55,-15.0,0.199,-0.408,100.03,3.0,,3.875,4.03,
2025-08-14T22:47:21.889Z,2,GR86-016-55,-12.3,0.115,-0.412,86.52,3.0,,11.965,11.84,
2025-08-14T22:47:21.932Z,2,GR86-016-55,-8.700000000000001,-0.166,-0.382,17.8,3.0,5709.0,19.73,19.52,
2025-08-14T22:47:21.975Z,2,GR86-016-55,-5.300000000000001,-0.291,-0.338,3.71,3.0,,26.43,26.23,120.49
2025-08-14T22:47:22.018Z,2,GR86-016-55,-2.6,-0.48,-0.319,3.59,3.0,,30.93,30.58,
2025-08-14T22:47:22.061Z,2,GR86-016-55,-1.1,-0.711,-0.209,3.2,3.0,,33.19,33.055,
2025-08-14T22:47:22.104Z,2,GR86-016-55,-0.9,-0.8310000000000001,-0.243,3.06,3.0,,33.435,33.495,
2025-08-14T22:47:22.147Z,2,GR86-016-55,-0.7000000000000001,-0.912,-0.198,2.96,3.0,5622.0,33.525,33.94,
2025-08-14T22:47:22.191Z,2,GR86-016-55,-0.6000000000000001,-0.855,-0.203,2.9,3.0,,33.495,33.585,120.33
2025-08-14T22:47:22.234Z,2,GR86-016-55,-0.3,-0.8210000000000001,-0.237,2.85,3.0,,33.375,33.62,
2025-08-14T22:47:22.277Z,2,GR86-016-55,-0.1,-0.795,-0.22,2.77,3.0,,33.25,33.555,
2025-08-14T22:47:22.322Z,2,GR86-016-55,0.3,-0.779,-0.216,2.68,3.0,,33.405,33.25,
2025-08-14T22:47:22.365Z,2,GR86-016-55,0.5,-0.8220000000000001,-0.174,2.64,3.0,5196.0,33.19,33.345,
2025-08-14T22:47:22.408Z,2,GR86-016-55,0.7000000000000001,-0.789,-0.155,2.61,3.0,,33.19,33.525,116.55
2025-08-14T22:47:22.451Z,2,GR86-016-55,0.8,-0.806,-0.146,2.59,3.0,,33.19,33.25,
2025-08-14T22:47:22.494Z,2,GR86-016-55,0.9,-0.8150000000000001,-0.124,2.58,3.0,,33.525,33.94,
2025-08-14T22:47:22.582Z,2,GR86-016-55,0.7000000000000001,-0.627,-0.083,2.54,3.0,4982.0,22.28,23.21,
2025-08-14T22:47:22.625Z,2,GR86-016-55,0.5,-0.396,-0.087,2.57,3.0,,10.805,11.55,105.77
2025-08-14T22:47:22.668Z,2,GR86-016-55,0.0,-0.21,-0.103,10.82,3.0,,2.245,2.64,
2025-08-14T22:47:22.711Z,2,GR86-016-55,-0.7000000000000001,-0.156,-0.054,19.6,3.0,,0.0,0.0,
2025-08-14T22:47:22.754Z,2,GR86-016-55,-1.5,-0.108,-0.074,20.14,3.0,,0.0,0.0,
2025-08-14T22:47:22.797Z,2,GR86-016-55,-2.2,-0.03,-0.055,21.46,3.0,4752.0,0.0,0.0,
2025-08-14T22:47:22.840Z,2,GR86-016-55,-3.3000000000000003,-0.045,-0.022,25.01,3.0,,0.0,0.0,104.31
2025-08-14T22:47:22.884Z,2,GR86-016-55,-5.0,0.021,-0.04,26.45,3.0,,0.0,0.0,
2025-08-14T22:47:22.927Z,2,GR86-016-55,-7.6,0.232,-0.042,26.82,3.0,,0.0,0.0,
2025-08-14T22:47:22.970Z,2,GR86-016-55,-11.1,0.152,-0.062,28.69,3.0,,0.0,0.0,
2025-08-14T22:47:23.013Z,2,GR86-016-55,-15.0,0.073,-0.11,32.36,3.0,4866.0,0.0,0.0,
2025-08-14T22:47:23.056Z,2,GR86-016-55,-18.6,0.069,-0.137,35.78,3.0,,0.0,0.0,103.79
2025-08-14T22:47:23.099Z,2,GR86-016-55,-21.5,0.129,-0.219,37.45,3.0,,0.0,0.0,
2025-08-14T22:47:23.142Z,2,GR86-016-55,-23.9,0.181,-0.281,39.66,3.0,,0.0,0.0,
2025-08-14T22:47:23.185Z,2,GR86-016-55,-24.4,0.151,-0.333,43.73,3.0,,0.0,0.0,
2025-08-14T22:47:23.228Z,2,GR86-016-55,-24.4,0.147,-0.361,47.56,3.0,4913.0,0.0,0.0,
2025-08-14T22:47:23.314Z,2,GR86-016-55,-24.0,0.176,-0.428,48.82,3.0,,0.0,0.0,104.43
2025-08-14T22:47:23.357Z,2,GR86-016-55,-23.700000000000003,0.191,-0.449,50.35,3.0,,0.0,0.0,
2025-08-14T22:47:23.400Z,2,GR86-016-55,-22.9,0.197,-0.477,52.14,3.0,,0.0,0.0,
2025-08-14T22:47:23.443Z,2,GR86-016-55,-22.0,0.202,-0.469,52.33,3.0,5006.0,0.0,0.0,
2025-08-14T22:47:23.486Z,2,GR86-016-55,-21.1,0.196,-0.471,52.84,3.0,,0.0,0.0,105.48
2025-08-14T22:47:23.529Z,2,GR86-016-55,-20.3,0.184,-0.451,54.04,3.0,,0.0,0.0,
2025-08-14T22:47:23.572Z,2,GR86-016-55,-19.4,0.191,-0.471,55.33,3.0,,0.0,0.0,
2025-08-14T22:47:23.615Z,2,GR86-016-55,-18.5,0.199,-0.455,58.81,3.0,,0.0,0.0,
2025-08-14T22:47:23.658Z,2,GR86-016-55,-17.6,0.202,-0.453,64.16,3.0,5072.0,0.0,0.0,
2025-08-14T22:47:23.701Z,2,GR86-016-55,-16.2,0.205,-0.418,71.62,3.0,,0.0,0.0,106.8
2025-08-14T22:47:23.744Z,2,GR86-016-55,-15.2,0.212,-0.386,75.04,3.0,,0.0,0.0,
2025-08-14T22:47:23.788Z,2,GR86-016-55,-13.6,0.21,-0.366,76.65,3.0,,0.0,0.0,
2025-08-14T22:47:23.831Z,2,GR86-016-55,-10.9,0.208,-0.336,77.44,3.0,,0.0,0.0,
2025-08-14T22:47:23.874Z,2,GR86-016-55,-7.1000000000000005,0.213,-0.29,77.58,3.0,5134.0,0.0,0.0,
2025-08-14T22:47:23.917Z,2,GR86-016-55,-3.3000000000000003,0.22,-0.229,77.54,3.0,,0.0,0.0,108.24
2025-08-14T22:47:23.961Z,2,GR86-016-55,1.2000000000000002,0.221,-0.145,77.48,3.0,,0.0,0.0,
2025-08-14T22:47:24.005Z,2,GR86-016-55,3.1,0.212,-0.051,77.63,3.0,,0.0,0.0,
2025-08-14T22:47:24.048Z,2,GR86-016-55,4.5,0.213,-0.02,77.7,3.0,,0.0,0.0,
2025-08-14T22:47:24.091Z,2,GR86-016-55,6.0,0.22,0.046,77.84,3.0,5198.0,0.0,0.0,
2025-08-14T22:47:24.134Z,2,GR86-016-55,7.6,0.213,0.102,77.99,3.0,,0.0,0.0,109.83
2025-08-14T22:47:24.177Z,2,GR86-016-55,9.1,0.221,0.147,78.08,3.0,,0.0,0.0,
2025-08-14T22:47:24.222Z,2,GR86-016-55,11.2,0.21,0.243,78.09,3.0,,0.0,0.0,
2025-08-14T22:47:24.265Z,2,GR86-016-55,12.5,0.207,0.308,78.0,3.0,,0.0,0.0,
2025-08-14T22:47:24.308Z,2,GR86-016-55,13.4,0.218,0.356,77.87,3.0,5270.0,0.0,0.0,
2025-08-14T22:47:24.351Z,2,GR86-016-55,13.8,0.212,0.39,77.8,3.0,,0.0,0.0,111.39
2025-08-14T22:47:24.394Z,2,GR86-016-55,14.0,0.206,0.426,77.69,3.0,,0.0,0.0,
2025-08-14T22:47:24.437Z,2,GR86-016-55,13.9,0.215,0.43,77.47,3.0,,0.0,0.0,
2025-08-14T22:47:24.480Z,2,GR86-016-55,13.6,0.218,0.437,77.41,3.0,,0.0,0.0,
2025-08-14T22:47:24.523Z,2,GR86-016-55,13.4,0.206,0.475,77.35000000000001,3.0,5345.0,0.0,0.0,
2025-08-14T22:47:24.566Z,2,GR86-016-55,13.2,0.209,0.472,77.25,3.0,,0.0,0.0,112.76
2025-08-14T22:47:24.609Z,2,GR86-016-55,12.9,0.223,0.471,77.28,3.0,,0.0,0.0,
2025-08-14T22:47:24.652Z,2,GR86-016-55,12.8,0.205,0.474,77.32000000000001,3.0,,0.0,0.0,
2025-08-14T22:47:24.695Z,2,GR86-016-55,12.6,0.224,0.466,77.44,3.0,,0.0,0.0,
2025-08-14T22:47:24.738Z,2,GR86-016-55,12.4,0.223,0.444,77.4,3.0,5413.0,0.0,0.0,
2025-08-14T22:47:24.781Z,2,GR86-016-55,11.7,0.229,0.433,77.33,3.0,,0.0,0.0,114.3
2025-08-14T22:47:24.825Z,2,GR86-016-55,11.3,0.203,0.426,77.31,3.0,,0.0,0.0,
2025-08-14T22:47:24.868Z,2,GR86-016-55,11.0,0.218,0.406,77.28,3.0,,0.0,0.0,
2025-08-14T22:47:24.911Z,2,GR86-016-55,10.7,0.215,0.39,77.26,3.0,,0.0,0.0,
2025-08-14T22:47:24.954Z,2,GR86-016-55,10.6,0.209,0.383,77.26,3.0,5480.0,0.0,0.0,
2025-08-14T22:47:24.997Z,2,GR86-016-55,10.5,0.218,0.369,77.27,3.0,,0.0,0.0,115.79
2025-08-14T22:47:25.040Z,2,GR86-016-55,10.2,0.217,0.366,77.38,3.0,,0.0,0.0,
2025-08-14T22:47:25.083Z,2,GR86-016-55,9.9,0.206,0.363,77.43,3.0,,0.0,0.0,
2025-08-14T22:47:25.126Z,2,GR86-016-55,9.7,0.216,0.36,77.5,3.0,,0.0,0.0,
2025-08-14T22:47:25.169Z,2,GR86-016-55,9.6,0.21,0.35,77.76,3.0,5554.0,0.0,0.0,
2025-08-14T22:47:25.212Z,2,GR86-016-55,9.5,0.209,0.357,80.16,3.0,,0.0,0.0,117.2
2025-08-14T22:47:25.255Z,2,GR86-016-55,9.5,0.209,0.343,89.7,3.0,,0.0,0.0,
2025-08-14T22:47:25.298Z,2,GR86-016-55,9.5,0.219,0.353,98.51,3.0,,0.0,0.0,
2025-08-14T22:47:25.341Z,2,GR86-016-55,9.5,0.212,0.347,99.99,3.0,,0.0,0.0,
2025-08-14T22:47:25.385Z,2,GR86-016-55,11.2,0.201,0.345,100.0,3.0,5615.0,0.0,0.0,
2025-08-14T22:47:25.428Z,2,GR86-016-55,13.1,0.204,0.364,100.02,3.0,,0.0,0.0,120.26
2025-08-14T22:47:25.471Z,2,GR86-016-55,14.1,0.207,0.396,100.04,3.0,,0.0,0.0,
2025-08-14T22:47:25.514Z,2,GR86-016-55,14.1,0.196,0.406,100.0,3.0,,0.0,0.0,
2025-08-14T22:47:25.558Z,2,GR86-016-55,13.2,0.213,0.423,100.02,3.0,,0.0,0.0,
2025-08-14T22:47:25.601Z,2,GR86-016-55,12.2,0.207,0.42,100.04,3.0,5682.0,0.0,0.0,
2025-08-14T22:47:25.644Z,2,GR86-016-55,9.9,0.21,0.423,100.02,3.0,,0.0,0.0,121.68
2025-08-14T22:47:25.687Z,2,GR86-016-55,6.5,0.214,0.4,100.02,3.0,,0.0,0.0,
2025-08-14T22:47:25.730Z,2,GR86-016-55,3.1,0.209,0.356,100.04,3.0,,0.0,0.0,
2025-08-14T22:47:25.775Z,2,GR86-016-55,0.0,0.216,0.329,100.02,3.0,,0.0,0.0,
2025-08-14T22:47:25.818Z,2,GR86-016-55,-3.1,0.21,0.282,100.03,3.0,5747.0,0.0,0.0,
2025-08-14T22:47:25.861Z,2,GR86-016-55,-8.0,0.21,0.198,100.03,3.0,,0.0,0.0,123.2
2025-08-14T22:47:25.904Z,2,GR86-016-55,-11.4,0.198,0.102,100.04,3.0,,0.0,0.0,
2025-08-14T22:47:25.947Z,2,GR86-016-55,-15.0,0.2,0.028,100.03,3.0,,0.0,0.0,
2025-08-14T22:47:25.990Z,2,GR86-016-55,-18.2,0.201,-0.043,100.03,3.0,,0.0,0.0,
2025-08-14T22:47:26.033Z,2,GR86-016-55,-21.4,0.2,-0.139,100.03,3.0,5890.0,0.0,0.0,
2025-08-14T22:47:26.076Z,2,GR86-016-55,-23.6,0.198,-0.234,100.02,3.0,,0.0,0.0,124.56
2025-08-14T22:47:26.119Z,2,GR86-016-55,-24.5,0.198,-0.309,100.0,3.0,,0.0,0.0,
2025-08-14T22:47:26.162Z,2,GR86-016-55,-24.5,0.194,-0.427,100.02,3.0,,0.0,0.0,
2025-08-14T22:47:26.205Z,2,GR86-016-55,-24.1,0.183,-0.482,100.0,3.0,,0.0,0.0,
2025-08-14T22:47:26.248Z,2,GR86-016-55,-24.0,0.182,-0.555,100.02,3.0,5957.0,0.0,0.0,
2025-08-14T22:47:26.291Z,2,GR86-016-55,-24.200000000000003,0.198,-0.5700000000000001,100.02,3.0,,0.0,0.0,125.82
2025-08-14T22:47:26.334Z,2,GR86-016-55,-24.5,0.189,-0.6,100.02,3.0,,0.0,0.0,
2025-08-14T22:47:26.377Z,2,GR86-016-55,-24.4,0.168,-0.619,99.99,3.0,,0.0,0.0,
2025-08-14T22:47:26.422Z,2,GR86-016-55,-22.5,0.176,-0.656,99.99,3.0,,0.0,0.0,
2025-08-14T22:47:26.465Z,2,GR86-016-55,-19.8,0.187,-0.635,100.0,3.0,6033.0,0.0,0.0,
2025-08-14T22:47:26.508Z,2,GR86-016-55,-17.8,0.2,-0.626,100.04,3.0,,0.0,0.0,127.11
2025-08-14T22:47:26.551Z,2,GR86-016-55,-17.2,0.191,-0.581,100.03,3.0,,0.0,0.0,
2025-08-14T22:47:26.594Z,2,GR86-016-55,-17.1,0.187,-0.593,100.04,3.0,,0.0,0.0,
2025-08-14T22:47:26.637Z,2,GR86-016-55,-17.2,0.19,-0.5670000000000001,100.05,3.0,,0.0,0.0,
2025-08-14T22:47:26.680Z,2,GR86-016-55,-17.2,0.185,-0.525,100.04,3.0,6082.0,0.0,0.0,
2025-08-14T22:47:26.723Z,2,GR86-016-55,-16.900000000000002,0.187,-0.505,100.02,3.0,,0.0,0.0,128.47
2025-08-14T22:47:26.766Z,2,GR86-016-55,-16.400000000000002,0.182,-0.481,100.04,3.0,,0.0,0.0,
2025-08-14T22:47:26.809Z,2,GR86-016-55,-15.9,0.188,-0.488,100.02,3.0,,0.0,0.0,
2025-08-14T22:47:26.852Z,2,GR86-016-55,-15.3,0.19,-0.468,100.03,3.0,,0.0,0.0,
2025-08-14T22:47:26.895Z,2,GR86-016-55,-14.5,0.187,-0.446,100.02,3.0,6149.0,0.0,0.0,
2025-08-14T22:47:26.938Z,2,GR86-016-55,-11.5,0.188,-0.42,100.03,3.0,,4.305,4.625,129.73
2025-08-14T22:47:26.982Z,2,GR86-016-55,-5.4,0.018,-0.382,91.86,3.0,,14.88,14.815,
2025-08-14T22:47:27.025Z,2,GR86-016-55,-1.2000000000000002,-0.155,-0.307,26.38,3.0,,21.745,21.44,
2025-08-14T22:47:27.068Z,2,GR86-016-55,2.5,-0.351,-0.237,3.39,3.0,,26.4,26.14,
2025-08-14T22:47:27.112Z,2,GR86-016-55,4.800000000000001,-0.462,-0.183,3.17,3.0,6189.0,28.69,28.72,
2025-08-14T22:47:27.155Z,2,GR86-016-55,5.7,-0.666,-0.109,3.08,3.0,,29.33,29.62,131.06
2025-08-14T22:47:27.198Z,2,GR86-016-55,6.0,-0.672,-0.05,3.0,3.0,,28.52,28.72,
2025-08-14T22:47:27.241Z,2,GR86-016-55,6.0,-0.8210000000000001,-0.026,2.91,3.0,,28.615,28.75,
2025-08-14T22:47:27.284Z,2,GR86-016-55,5.9,-0.801,0.002,2.86,3.0,,29.055,29.39,
2025-08-14T22:47:27.327Z,2,GR86-016-55,5.800000000000001,-0.733,-0.029,2.84,3.0,5612.0,29.21,29.74,
2025-08-14T22:47:27.371Z,2,GR86-016-55,5.800000000000001,-0.757,0.035,2.78,3.0,,28.305,28.645,127.48
2025-08-14T22:47:27.414Z,2,GR86-016-55,5.800000000000001,-0.766,0.022,2.74,3.0,,28.78,29.115,
2025-08-14T22:47:27.457Z,2,GR86-016-55,5.800000000000001,-0.709,0.027,2.7,3.0,,28.995,29.71,
2025-08-14T22:47:27.500Z,2,GR86-016-55,5.6000000000000005,-0.6900000000000001,0.065,2.65,3.0,,29.175,29.68,
2025-08-14T22:47:27.544Z,2,GR86-016-55,5.6000000000000005,-0.767,0.045,2.62,3.0,5588.0,28.935,29.27,
2025-08-14T22:47:27.587Z,2,GR86-016-55,5.4,-0.782,0.066,2.58,3.0,,29.025,29.435,123.76
2025-08-14T22:47:27.631Z,2,GR86-016-55,5.4,-0.6900000000000001,0.082,2.5500000000000003,3.0,,29.145,29.465,
2025-08-14T22:47:27.674Z,2,GR86-016-55,5.300000000000001,-0.755,0.084,2.5500000000000003,3.0,,28.55,28.9,
2025-08-14T22:47:27.717Z,2,GR86-016-55,5.300000000000001,-0.723,0.083,2.51,3.0,,28.965,29.465,
2025-08-14T22:47:27.760Z,2,GR86-016-55,5.2,-0.708,0.079,2.49,3.0,5371.0,28.52,29.24,
2025-08-14T22:47:27.803Z,2,GR86-016-55,5.0,-0.6970000000000001,0.1,2.47,3.0,,24.555,25.575,118.93
2025-08-14T22:47:27.846Z,2,GR86-016-55,4.6000000000000005,-0.5740000000000001,0.078,2.47,3.0,,16.555,17.335,
2025-08-14T22:47:27.889Z,2,GR86-016-55,4.0,-0.325,0.074,2.45,3.0,,6.835,7.525,
2025-08-14T22:47:27.932Z,2,GR86-016-55,3.5,-0.18,0.081,2.45,3.0,,0.0,0.0,
2025-08-14T22:47:27.975Z,2,GR86-016-55,3.1,-0.153,0.056,2.44,3.0,5130.0,0.0,0.0,
2025-08-14T22:47:28.018Z,2,GR86-016-55,2.8000000000000003,-0.123,0.077,2.44,3.0,,0.0,0.0,114.17
2025-08-14T22:47:28.061Z,2,GR86-016-55,2.4000000000000004,-0.122,0.072,2.44,3.0,,0.0,0.0,
2025-08-14T22:47:28.104Z,2,GR86-016-55,2.2,-0.129,0.081,2.44,3.0,,0.0,0.0,
2025-08-14T22:47:28.147Z,2,GR86-016-55,2.1,-0.113,0.068,2.44,3.0,,0.0,0.0,
2025-08-14T22:47:28.190Z,2,GR86-016-55,2.1,-0.131,0.08,2.44,3.0,5116.0,0.0,0.0,
2025-08-14T22:47:28.233Z,2,GR86-016-55,2.0,-0.121,0.062,2.44,3.0,,0.0,0.0,111.01
2025-08-14T22:47:28.276Z,2,GR86-016-55,2.0,-0.124,0.08,2.5500000000000003,3.0,,0.0,0.0,
2025-08-14T22:47:28.319Z,2,GR86-016-55,1.9,-0.131,0.063,3.9,3.0,,0.0,0.0,
2025-08-14T22:47:28.362Z,2,GR86-016-55,1.8,-0.132,0.069,5.7,3.0,,0.0,0.0,
2025-08-14T22:47:28.405Z,2,GR86-016-55,1.6,-0.12,0.062,10.44,3.0,5056.0,0.0,0.0,
2025-08-14T22:47:28.448Z,2,GR86-016-55,1.4,-0.126,0.07,17.17,3.0,,0.0,0.0,110.18
2025-08-14T22:47:28.491Z,2,GR86-016-55,1.2000000000000002,-0.096,0.073,18.77,3.0,,0.0,0.0,
2025-08-14T22:47:28.534Z,2,GR86-016-55,1.2000000000000002,-0.078,0.062,20.33,3.0,,0.0,0.0,
2025-08-14T22:47:28.577Z,2,GR86-016-55,1.2000000000000002,-0.086,0.076,21.46,3.0,,0.0,0.0,
2025-08-14T22:47:28.665Z,2,GR86-016-55,1.2000000000000002,-0.051,0.049,21.67,3.0,5005.0,0.0,0.0,109.39
2025-08-14T22:47:28.708Z,2,GR86-016-55,1.1,0.079,0.066,23.16,3.0,,0.0,0.0,
2025-08-14T22:47:28.751Z,2,GR86-016-55,1.0,0.258,0.059,23.19,3.0,,0.0,0.0,
