timestamp,lap,vehicle_id,steering_angle,accx_can,accy_can,ath,gear,nmot,pbrake_f,pbrake_r,speed
2025-08-14T22:02:54.867Z,1,GR86-015-31,15.0,0.024,0.101,11.57,1.0,,0.0,0.0,
2025-08-14T22:02:54.910Z,1,GR86-015-31,16.5,0.022,0.106,11.58,1.0,,0.0,0.0,
2025-08-14T22:02:54.953Z,1,GR86-015-31,16.7,0.041,0.103,11.61,1.0,,0.0,0.0,
2025-08-14T22:02:54.998Z,1,GR86-015-31,16.7,0.038,0.107,11.64,1.0,2460.0,0.0,0.0,
2025-08-14T22:02:55.041Z,1,GR86-015-31,16.7,0.033,0.07,11.62,1.0,,0.0,0.0,33.57
2025-08-14T22:02:55.088Z,1,GR86-015-31,15.2,0.06,0.045,11.53,1.0,,0.0,0.0,
2025-08-14T22:02:55.131Z,1,GR86-015-31,12.1,0.082,0.04,11.37,1.0,,0.0,0.0,
2025-08-14T22:02:55.174Z,1,GR86-015-31,9.4,0.113,0.022,11.35,1.0,,0.0,0.0,
2025-08-14T22:02:55.217Z,1,GR86-015-31,6.0,0.116,0.007,11.34,1.0,2483.0,0.0,0.0,
2025-08-14T22:02:55.260Z,1,GR86-015-31,2.9000000000000004,0.089,-0.026,11.35,1.0,,0.0,0.0,33.54
2025-08-14T22:02:55.303Z,1,GR86-015-31,-2.0,0.062,-0.044,11.35,1.0,,0.0,0.0,
2025-08-14T22:02:55.348Z,1,GR86-015-31,-11.6,0.051,-0.066,11.27,1.0,,0.0,0.0,
2025-08-14T22:02:55.391Z,1,GR86-015-31,-15.4,0.082,-0.082,11.21,1.0,,0.0,0.0,
2025-08-14T22:02:55.434Z,1,GR86-015-31,-20.8,0.098,-0.105,10.8,1.0,2468.0,0.0,0.0,
2025-08-14T22:02:55.477Z,1,GR86-015-31,-24.0,0.097,-0.146,10.15,1.0,,0.0,0.0,33.63
2025-08-14T22:02:55.520Z,1,GR86-015-31,-26.3,0.091,-0.148,9.69,1.0,,0.0,0.0,
2025-08-14T22:02:55.563Z,1,GR86-015-31,-27.1,0.069,-0.133,9.63,1.0,,0.0,0.0,
2025-08-14T22:02:55.608Z,1,GR86-015-31,-27.1,0.054,-0.132,9.68,1.0,,0.0,0.0,
2025-08-14T22:02:55.651Z,1,GR86-015-31,-26.1,0.032,-0.113,9.83,1.0,2527.0,0.0,0.0,
2025-08-14T22:02:55.694Z,1,GR86-015-31,-21.200000000000003,0.037,-0.114,9.86,1.0,,0.0,0.0,34.27
2025-08-14T22:02:55.737Z,1,GR86-015-31,-15.6,0.05,-0.066,9.82,1.0,,0.0,0.0,
2025-08-14T22:02:55.780Z,1,GR86-015-31,-9.2,0.054,-0.022,9.95,1.0,,0.0,0.0,
2025-08-14T22:02:55.823Z,1,GR86-015-31,-1.8,0.06,0.015,10.4,1.0,,0.0,0.0,
2025-08-14T22:02:55.867Z,1,GR86-015-31,10.2,0.04,0.067,10.96,1.0,2530.0,0.0,0.0,
2025-08-14T22:02:55.910Z,1,GR86-015-31,18.4,0.019,0.091,11.34,1.0,,0.0,0.0,34.44
2025-08-14T22:02:55.953Z,1,GR86-015-31,25.200000000000003,0.011,0.149,11.41,1.0,,0.0,0.0,
2025-08-14T22:02:55.999Z,1,GR86-015-31,28.8,-0.002,0.179,11.4,1.0,,0.0,0.0,
2025-08-14T22:02:56.041Z,1,GR86-015-31,30.1,0.008,0.199,11.37,1.0,,0.0,0.0,
2025-08-14T22:02:56.088Z,1,GR86-015-31,28.3,0.039,0.165,10.29,1.0,2558.0,0.0,0.0,
2025-08-14T22:02:56.130Z,1,GR86-015-31,20.3,0.069,0.098,9.89,1.0,,0.0,0.0,34.49
2025-08-14T22:02:56.173Z,1,GR86-015-31,8.3,0.079,0.069,9.89,1.0,,0.0,0.0,
2025-08-14T22:02:56.217Z,1,GR86-015-31,-1.7000000000000002,0.077,-0.02,9.92,1.0,,0.0,0.0,
2025-08-14T22:02:56.259Z,1,GR86-015-31,-11.6,0.065,-0.082,9.91,1.0,,0.0,0.0,
2025-08-14T22:02:56.302Z,1,GR86-015-31,-19.5,0.045,-0.15,9.89,1.0,2528.0,0.0,0.0,
2025-08-14T22:02:56.347Z,1,GR86-015-31,-35.7,0.021,-0.247,9.89,1.0,,0.0,0.0,34.72
2025-08-14T22:02:56.390Z,1,GR86-015-31,-41.6,0.021,-0.243,9.75,1.0,,0.0,0.0,
2025-08-14T22:02:56.433Z,1,GR86-015-31,-43.6,0.026,-0.27,9.7,1.0,,0.0,0.0,
2025-08-14T22:02:56.477Z,1,GR86-015-31,-43.6,0.038,-0.242,9.73,1.0,,0.0,0.0,
2025-08-14T22:02:56.520Z,1,GR86-015-31,-42.6,0.047,-0.224,9.71,1.0,2553.0,0.0,0.0,
2025-08-14T22:02:56.563Z,1,GR86-015-31,-37.0,0.047,-0.203,9.73,1.0,,0.0,0.0,34.59
2025-08-14T22:02:56.607Z,1,GR86-015-31,-26.8,0.048,-0.104,9.87,1.0,,0.0,0.0,
2025-08-14T22:02:56.650Z,1,GR86-015-31,-19.4,0.034,-0.059,10.73,1.0,,0.0,0.0,
2025-08-14T22:02:56.693Z,1,GR86-015-31,-11.2,0.024,-0.003,12.29,1.0,,0.0,0.0,
2025-08-14T22:02:56.737Z,1,GR86-015-31,-2.4000000000000004,0.023,0.026,12.6,1.0,2537.0,0.0,0.0,
2025-08-14T22:02:56.780Z,1,GR86-015-31,6.800000000000001,0.024,0.05,13.3,1.0,,0.0,0.0,35.04
2025-08-14T22:02:56.823Z,1,GR86-015-31,16.1,0.02,0.126,14.32,1.0,,0.0,0.0,
2025-08-14T22:02:56.867Z,1,GR86-015-31,27.5,0.017,0.164,14.77,1.0,,0.0,0.0,
2025-08-14T22:02:56.910Z,1,GR86-015-31,31.8,0.04,0.203,14.46,1.0,,0.0,0.0,
2025-08-14T22:02:56.953Z,1,GR86-015-31,32.800000000000004,0.105,0.197,12.5,1.0,2540.0,0.0,0.0,
2025-08-14T22:02:56.999Z,1,GR86-015-31,32.800000000000004,0.154,0.187,11.84,1.0,,0.0,0.0,34.660000000000004
2025-08-14T22:02:57.041Z,1,GR86-015-31,31.1,0.159,0.184,11.68,1.0,,0.0,0.0,
2025-08-14T22:02:57.088Z,1,GR86-015-31,23.200000000000003,0.099,0.107,11.6,1.0,,0.0,0.0,
2025-08-14T22:02:57.130Z,1,GR86-015-31,17.400000000000002,0.05,0.071,11.08,1.0,,0.0,0.0,
2025-08-14T22:02:57.173Z,1,GR86-015-31,11.0,0.032,0.005,9.72,1.0,2554.0,0.0,0.0,
2025-08-14T22:02:57.217Z,1,GR86-015-31,3.6,0.062,-0.011,8.67,1.0,,0.0,0.0,34.71
2025-08-14T22:02:57.259Z,1,GR86-015-31,-4.5,0.096,-0.049,8.25,1.0,,0.0,0.0,
2025-08-14T22:02:57.302Z,1,GR86-015-31,-12.8,0.117,-0.086,8.28,1.0,,0.0,0.0,
2025-08-14T22:02:57.347Z,1,GR86-015-31,-22.9,0.067,-0.153,8.25,1.0,,0.0,0.0,
2025-08-14T22:02:57.390Z,1,GR86-015-31,-26.1,0.023,-0.198,8.24,1.0,2643.0,0.0,0.0,
2025-08-14T22:02:57.433Z,1,GR86-015-31,-26.200000000000003,0.004,-0.179,8.24,1.0,,0.0,0.0,35.39
2025-08-14T22:02:57.477Z,1,GR86-015-31,-23.9,-0.002,-0.176,8.25,1.0,,0.0,0.0,
2025-08-14T22:02:57.520Z,1,GR86-015-31,-15.3,0.023,-0.12,8.290000000000001,1.0,,0.0,0.0,
2025-08-14T22:02:57.563Z,1,GR86-015-31,-5.4,0.033,-0.064,8.31,1.0,,0.0,0.0,
2025-08-14T22:02:57.607Z,1,GR86-015-31,8.5,0.052,0.044,9.03,1.0,2601.0,0.0,0.0,
2025-08-14T22:02:57.650Z,1,GR86-015-31,15.4,0.037,0.123,10.76,1.0,,0.0,0.0,35.51
2025-08-14T22:02:57.693Z,1,GR86-015-31,19.200000000000003,0.013,0.157,12.85,1.0,,0.0,0.0,
2025-08-14T22:02:57.737Z,1,GR86-015-31,19.9,-0.003,0.179,13.3,1.0,,0.0,0.0,
2025-08-14T22:02:57.780Z,1,GR86-015-31,19.9,-0.004,0.14,13.3,1.0,,0.0,0.0,
2025-08-14T22:02:57.867Z,1,GR86-015-31,18.1,0.022,0.116,12.72,1.0,2593.0,0.0,0.0,35.53
2025-08-14T22:02:57.910Z,1,GR86-015-31,4.9,0.071,0.01,11.19,1.0,,0.0,0.0,
2025-08-14T22:02:57.953Z,1,GR86-015-31,-1.6,0.086,-0.038,10.23,1.0,,0.0,0.0,
2025-08-14T22:02:57.998Z,1,GR86-015-31,-8.3,0.098,-0.095,9.56,1.0,,0.0,0.0,
2025-08-14T22:02:58.041Z,1,GR86-015-31,-15.0,0.098,-0.107,9.37,1.0,2628.0,0.0,0.0,
2025-08-14T22:02:58.088Z,1,GR86-015-31,-22.0,0.063,-0.158,9.45,1.0,,0.0,0.0,35.52
2025-08-14T22:02:58.131Z,1,GR86-015-31,-23.4,0.039,-0.161,9.48,1.0,,0.0,0.0,
2025-08-14T22:02:58.174Z,1,GR86-015-31,-23.4,0.022,-0.168,9.49,1.0,,0.0,0.0,
2025-08-14T22:02:58.217Z,1,GR86-015-31,-22.5,0.032,-0.161,9.5,1.0,,0.0,0.0,
2025-08-14T22:02:58.260Z,1,GR86-015-31,-17.5,0.044,-0.092,9.51,1.0,2615.0,0.0,0.0,
2025-08-14T22:02:58.303Z,1,GR86-015-31,-11.7,0.042,-0.07,9.56,1.0,,0.0,0.0,35.79
2025-08-14T22:02:58.348Z,1,GR86-015-31,-2.7,0.033,0.005,10.04,1.0,,0.0,0.0,
2025-08-14T22:02:58.391Z,1,GR86-015-31,2.8000000000000003,0.031,0.034,10.34,1.0,,0.0,0.0,
2025-08-14T22:02:58.434Z,1,GR86-015-31,7.4,0.026,0.074,10.72,1.0,,0.0,0.0,
2025-08-14T22:02:58.477Z,1,GR86-015-31,10.4,0.037,0.107,11.03,1.0,2644.0,0.0,0.0,
2025-08-14T22:02:58.520Z,1,GR86-015-31,11.4,0.042,0.1,11.31,1.0,,0.0,0.0,35.85
2025-08-14T22:02:58.563Z,1,GR86-015-31,11.4,0.037,0.093,11.39,1.0,,0.0,0.0,
2025-08-14T22:02:58.608Z,1,GR86-015-31,9.7,0.023,0.04,11.27,1.0,,0.0,0.0,
2025-08-14T22:02:58.651Z,1,GR86-015-31,5.1000000000000005,0.031,0.043,11.13,1.0,,0.0,0.0,
2025-08-14T22:02:58.694Z,1,GR86-015-31,-0.4,0.043,-0.001,11.04,1.0,2646.0,0.0,0.0,
2025-08-14T22:02:58.737Z,1,GR86-015-31,-6.4,0.056,-0.036,10.92,1.0,,0.0,0.0,35.88
2025-08-14T22:02:58.780Z,1,GR86-015-31,-12.3,0.051,-0.079,10.79,1.0,,0.0,0.0,
2025-08-14T22:02:58.823Z,1,GR86-015-31,-17.5,0.039,-0.137,10.36,1.0,,0.0,0.0,
2025-08-14T22:02:58.867Z,1,GR86-015-31,-22.200000000000003,0.05,-0.135,9.45,1.0,,0.0,0.0,
2025-08-14T22:02:58.910Z,1,GR86-015-31,-22.6,0.063,-0.159,9.23,1.0,2652.0,0.0,0.0,
2025-08-14T22:02:58.999Z,1,GR86-015-31,-19.9,0.058,-0.121,9.21,1.0,,0.0,0.0,35.910000000000004
2025-08-14T22:02:59.041Z,1,GR86-015-31,-15.0,0.047,-0.095,9.24,1.0,,0.0,0.0,
2025-08-14T22:02:59.088Z,1,GR86-015-31,-6.800000000000001,0.025,-0.031,9.41,1.0,,0.0,0.0,
2025-08-14T22:02:59.130Z,1,GR86-015-31,-1.1,0.021,0.017,9.58,1.0,2641.0,0.0,0.0,
2025-08-14T22:02:59.173Z,1,GR86-015-31,4.4,0.02,0.059,9.95,1.0,,0.0,0.0,36.03
2025-08-14T22:02:59.217Z,1,GR86-015-31,9.3,0.03,0.069,10.03,1.0,,0.0,0.0,
2025-08-14T22:02:59.259Z,1,GR86-015-31,12.6,0.048,0.102,10.22,1.0,,0.0,0.0,
2025-08-14T22:02:59.302Z,1,GR86-015-31,13.7,0.045,0.118,10.52,1.0,,0.0,0.0,
2025-08-14T22:02:59.347Z,1,GR86-015-31,13.8,0.033,0.108,10.56,1.0,2670.0,0.0,0.0,
2025-08-14T22:02:59.390Z,1,GR86-015-31,12.7,0.022,0.078,10.57,1.0,,0.0,0.0,36.1
2025-08-14T22:02:59.433Z,1,GR86-015-31,10.5,0.025,0.034,10.5,1.0,,0.0,0.0,
2025-08-14T22:02:59.477Z,1,GR86-015-31,9.7,0.031,0.043,9.96,1.0,,0.0,0.0,
2025-08-14T22:02:59.520Z,1,GR86-015-31,9.6,0.037,0.003,9.71,1.0,,0.0,0.0,
2025-08-14T22:02:59.563Z,1,GR86-015-31,9.5,0.035,0.023,9.71,1.0,2666.0,0.0,0.0,
2025-08-14T22:02:59.607Z,1,GR86-015-31,8.5,0.031,0.007,9.67,1.0,,0.0,0.0,36.13
2025-08-14T22:02:59.650Z,1,GR86-015-31,7.300000000000001,0.037,0.024,9.6,1.0,,0.0,0.0,
2025-08-14T22:02:59.693Z,1,GR86-015-31,5.800000000000001,0.031,0.018,9.49,1.0,,0.0,0.0,
2025-08-14T22:02:59.737Z,1,GR86-015-31,4.0,0.036,0.015,9.45,1.0,,0.0,0.0,
2025-08-14T22:02:59.780Z,1,GR86-015-31,2.1,0.03,0.013,9.39,1.0,2660.0,0.0,0.0,
2025-08-14T22:02:59.823Z,1,GR86-015-31,0.5,0.027,-0.012,9.27,1.0,,0.0,0.0,36.15
2025-08-14T22:02:59.867Z,1,GR86-015-31,-1.0,0.036,-0.007,9.0,1.0,,0.0,0.0,
2025-08-14T22:02:59.910Z,1,GR86-015-31,-1.4,0.035,-0.034,8.86,1.0,,0.0,0.0,
2025-08-14T22:02:59.953Z,1,GR86-015-31,-1.5,0.043,-0.027,8.790000000000001,1.0,,0.0,0.0,
2025-08-14T22:02:59.998Z,1,GR86-015-31,-1.8,0.029,-0.036,8.74,1.0,2668.0,0.0,0.0,
2025-08-14T22:03:00.041Z,1,GR86-015-31,-2.3000000000000003,0.025,-0.044,8.620000000000001,1.0,,0.0,0.0,36.19
2025-08-14T22:03:00.088Z,1,GR86-015-31,-2.8000000000000003,0.023,-0.004,8.620000000000001,1.0,,0.0,0.0,
2025-08-14T22:03:00.130Z,1,GR86-015-31,-2.9000000000000004,0.026,-0.008,8.64,1.0,,0.0,0.0,
2025-08-14T22:03:00.173Z,1,GR86-015-31,-2.9000000000000004,0.023,-0.011,8.63,1.0,,0.0,0.0,
2025-08-14T22:03:00.217Z,1,GR86-015-31,-2.9000000000000004,0.022,-0.032,8.620000000000001,1.0,2664.0,0.0,0.0,
2025-08-14T22:03:00.259Z,1,GR86-015-31,-2.9000000000000004,0.019,-0.025,8.63,1.0,,0.0,0.0,36.24
2025-08-14T22:03:00.302Z,1,GR86-015-31,-3.1,0.011,-0.01,8.63,1.0,,0.0,0.0,
2025-08-14T22:03:00.347Z,1,GR86-015-31,-3.1,0.023,-0.003,8.67,1.0,,0.0,0.0,
2025-08-14T22:03:00.390Z,1,GR86-015-31,-3.1,0.022,-0.017,8.64,1.0,,0.0,0.0,
2025-08-14T22:03:00.433Z,1,GR86-015-31,-3.2,0.026,-0.037,8.64,1.0,2659.0,0.0,0.0,
2025-08-14T22:03:00.477Z,1,GR86-015-31,-3.5,0.02,-0.018,8.64,1.0,,0.0,0.0,36.25
2025-08-14T22:03:00.520Z,1,GR86-015-31,-4.2,0.018,-0.038,8.64,1.0,,0.0,0.0,
2025-08-14T22:03:00.563Z,1,GR86-015-31,-5.2,0.019,-0.014,8.64,1.0,,0.0,0.0,
2025-08-14T22:03:00.607Z,1,GR86-015-31,-6.2,0.012,-0.035,8.64,1.0,,0.0,0.0,
2025-08-14T22:03:00.650Z,1,GR86-015-31,-6.300000000000001,0.016,-0.04,8.65,1.0,2662.0,0.0,0.0,
2025-08-14T22:03:00.693Z,1,GR86-015-31,-6.300000000000001,0.018,-0.036,8.64,1.0,,0.0,0.0,36.16
2025-08-14T22:03:00.737Z,1,GR86-015-31,-6.4,0.02,-0.052,8.620000000000001,1.0,,0.0,0.0,
2025-08-14T22:03:00.780Z,1,GR86-015-31,-6.7,0.023,-0.041,8.63,1.0,,0.0,0.0,
2025-08-14T22:03:00.823Z,1,GR86-015-31,-7.0,0.016,-0.05,8.64,1.0,,0.0,0.0,
2025-08-14T22:03:00.867Z,1,GR86-015-31,-7.6,0.014,-0.026,8.63,1.0,2661.0,0.0,0.0,
2025-08-14T22:03:00.910Z,1,GR86-015-31,-7.800000000000001,0.007,-0.035,8.64,1.0,,0.0,0.0,36.09
2025-08-14T22:03:00.953Z,1,GR86-015-31,-7.800000000000001,0.023,-0.032,8.64,1.0,,0.0,0.0,
2025-08-14T22:03:00.998Z,1,GR86-015-31,-7.800000000000001,0.014,-0.041,8.64,1.0,,0.0,0.0,
2025-08-14T22:03:01.041Z,1,GR86-015-31,-7.800000000000001,0.023,-0.064,8.64,1.0,,0.0,0.0,
2025-08-14T22:03:01.088Z,1,GR86-015-31,-7.800000000000001,0.017,-0.036,8.63,1.0,2647.0,0.0,0.0,
2025-08-14T22:03:01.131Z,1,GR86-015-31,-7.800000000000001,0.017,-0.051,8.67,1.0,,0.0,0.0,36.03
2025-08-14T22:03:01.174Z,1,GR86-015-31,-7.800000000000001,0.017,-0.025,8.73,1.0,,0.0,0.0,
2025-08-14T22:03:01.217Z,1,GR86-015-31,-7.800000000000001,0.015,-0.046,8.74,1.0,,0.0,0.0,
2025-08-14T22:03:01.260Z,1,GR86-015-31,-7.800000000000001,0.015,-0.05,8.74,1.0,,0.0,0.0,
2025-08-14T22:03:01.303Z,1,GR86-015-31,-7.800000000000001,0.015,-0.024,8.75,1.0,2640.0,0.0,0.0,
2025-08-14T22:03:01.348Z,1,GR86-015-31,-7.800000000000001,0.028,-0.021,8.91,1.0,,0.0,0.0,35.980000000000004
2025-08-14T22:03:01.391Z,1,GR86-015-31,-7.800000000000001,0.023,-0.033,9.09,1.0,,0.0,0.0,
2025-08-14T22:03:01.434Z,1,GR86-015-31,-7.800000000000001,0.022,-0.05,9.1,1.0,,0.0,0.0,
2025-08-14T22:03:01.477Z,1,GR86-015-31,-7.800000000000001,0.021,-0.039,9.1,1.0,,0.0,0.0,
2025-08-14T22:03:01.520Z,1,GR86-015-31,-7.800000000000001,0.012,-0.038,9.1,1.0,2630.0,0.0,0.0,
2025-08-14T22:03:01.563Z,1,GR86-015-31,-7.800000000000001,0.025,-0.026,9.12,1.0,,0.0,0.0,35.89
2025-08-14T22:03:01.608Z,1,GR86-015-31,-7.800000000000001,0.028,-0.029,9.36,1.0,,0.0,0.0,
2025-08-14T22:03:01.651Z,1,GR86-015-31,-7.800000000000001,0.036,-0.049,9.36,1.0,,0.0,0.0,
2025-08-14T22:03:01.694Z,1,GR86-015-31,-7.800000000000001,0.026,-0.018,9.37,1.0,,0.0,0.0,
2025-08-14T22:03:01.737Z,1,GR86-015-31,-7.800000000000001,0.03,-0.033,9.41,1.0,2635.0,0.0,0.0,
2025-08-14T22:03:01.780Z,1,GR86-015-31,-7.7,0.037,-0.018,9.44,1.0,,0.0,0.0,35.82
2025-08-14T22:03:01.823Z,1,GR86-015-31,-7.6,0.031,-0.031,9.45,1.0,,0.0,0.0,
2025-08-14T22:03:01.867Z,1,GR86-015-31,-7.5,0.028,-0.023,9.44,1.0,,0.0,0.0,
2025-08-14T22:03:01.910Z,1,GR86-015-31,-7.4,0.03,-0.007,9.42,1.0,,0.0,0.0,
2025-08-14T22:03:01.953Z,1,GR86-015-31,-7.4,0.04,-0.012,9.45,1.0,2631.0,0.0,0.0,
2025-08-14T22:03:01.998Z,1,GR86-015-31,-7.0,0.035,-0.014,9.45,1.0,,0.0,0.0,35.78
2025-08-14T22:03:02.041Z,1,GR86-015-31,-6.800000000000001,0.031,-0.029,9.41,1.0,,0.0,0.0,
2025-08-14T22:03:02.088Z,1,GR86-015-31,-5.6000000000000005,0.023,-0.01,9.15,1.0,,0.0,0.0,
2025-08-14T22:03:02.130Z,1,GR86-015-31,-4.3,0.025,-0.003,9.12,1.0,,0.0,0.0,
2025-08-14T22:03:02.173Z,1,GR86-015-31,-3.1,0.036,0.013,9.14,1.0,2628.0,0.0,0.0,
2025-08-14T22:03:02.217Z,1,GR86-015-31,-2.5,0.037,0.025,9.16,1.0,,0.0,0.0,35.76
2025-08-14T22:03:02.259Z,1,GR86-015-31,-2.5,0.036,0.002,9.18,1.0,,0.0,0.0,
2025-08-14T22:03:02.302Z,1,GR86-015-31,-2.5,0.032,0.008,9.15,1.0,,0.0,0.0,
2025-08-14T22:03:02.347Z,1,GR86-015-31,-2.5,0.026,-0.01,9.12,1.0,,0.0,0.0,
2025-08-14T22:03:02.390Z,1,GR86-015-31,-2.5,0.032,0.012,9.1,1.0,2632.0,0.0,0.0,
2025-08-14T22:03:02.433Z,1,GR86-015-31,-2.5,0.035,-0.012,8.88,1.0,,0.0,0.0,35.800000000000004
2025-08-14T22:03:02.477Z,1,GR86-015-31,-2.5,0.036,-0.02,8.790000000000001,1.0,,0.0,0.0,
2025-08-14T22:03:02.520Z,1,GR86-015-31,-2.5,0.031,0.018,8.790000000000001,1.0,,0.0,0.0,
2025-08-14T22:03:02.563Z,1,GR86-015-31,-2.5,0.024,-0.011,8.78,1.0,,0.0,0.0,
2025-08-14T22:03:02.607Z,1,GR86-015-31,-2.5,0.017,0.002,8.700000000000001,1.0,2644.0,0.0,0.0,
2025-08-14T22:03:02.650Z,1,GR86-015-31,-2.5,0.017,-0.015,8.25,1.0,,0.0,0.0,35.84
2025-08-14T22:03:02.694Z,1,GR86-015-31,-2.5,0.027,-0.004,8.23,1.0,,0.0,0.0,
2025-08-14T22:03:02.737Z,1,GR86-015-31,-2.5,0.026,-0.006,8.22,1.0,,0.0,0.0,
2025-08-14T22:03:02.780Z,1,GR86-015-31,-2.5,0.029,-0.004,8.22,1.0,,0.0,0.0,
2025-08-14T22:03:02.823Z,1,GR86-015-31,-2.5,0.018,0.002,8.21,1.0,2643.0,0.0,0.0,
2025-08-14T22:03:02.867Z,1,GR86-015-31,-2.5,0.015,-0.018,8.21,1.0,,0.0,0.0,35.9
2025-08-14T22:03:02.910Z,1,GR86-015-31,-2.5,0.007,-0.003,8.2,1.0,,0.0,0.0,
2025-08-14T22:03:02.953Z,1,GR86-015-31,-2.5,0.009,-0.019,8.21,1.0,,0.0,0.0,
2025-08-14T22:03:02.999Z,1,GR86-015-31,-2.5,0.011,0.0,8.21,1.0,,0.0,0.0,
2025-08-14T22:03:03.041Z,1,GR86-015-31,-2.5,0.004,-0.003,8.21,1.0,2634.0,0.0,0.0,
2025-08-14T22:03:03.088Z,1,GR86-015-31,-2.5,0.008,-0.018,8.21,1.0,,0.0,0.0,35.87
2025-08-14T22:03:03.131Z,1,GR86-015-31,-2.5,0.01,0.004,8.2,1.0,,0.0,0.0,
2025-08-14T22:03:03.174Z,1,GR86-015-31,-2.5,0.005,-0.019,8.21,1.0,,0.0,0.0,
2025-08-14T22:03:03.217Z,1,GR86-015-31,-2.5,0.006,-0.009,8.2,1.0,,0.0,0.0,
2025-08-14T22:03:03.260Z,1,GR86-015-31,-2.5,0.001,-0.016,8.18,1.0,2635.0,0.0,0.0,
2025-08-14T22:03:03.303Z,1,GR86-015-31,-2.5,-0.005,-0.013,8.19,1.0,,0.0,0.0,35.77
2025-08-14T22:03:03.347Z,1,GR86-015-31,-2.5,0.002,-0.024,8.44,1.0,,0.0,0.0,
2025-08-14T22:03:03.390Z,1,GR86-015-31,-2.5,0.011,-0.006,8.44,1.0,,0.0,0.0,
2025-08-14T22:03:03.433Z,1,GR86-015-31,-2.5,0.006,-0.021,8.31,1.0,,0.0,0.0,
2025-08-14T22:03:03.477Z,1,GR86-015-31,-2.5,0.007,-0.041,8.21,1.0,2620.0,0.0,0.0,
2025-08-14T22:03:03.519Z,1,GR86-015-31,-2.5,0.005,-0.006,8.21,1.0,,0.0,0.0,35.660000000000004
2025-08-14T22:03:03.562Z,1,GR86-015-31,-2.5,0.003,-0.007,8.24,1.0,,0.0,0.0,
2025-08-14T22:03:03.607Z,1,GR86-015-31,-2.5,0.013,-0.012,8.290000000000001,1.0,,0.0,0.0,
2025-08-14T22:03:03.650Z,1,GR86-015-31,-2.5,-0.001,-0.025,8.34,1.0,,0.0,0.0,
2025-08-14T22:03:03.693Z,1,GR86-015-31,-2.5,0.013,-0.033,8.41,1.0,2608.0,0.0,0.0,
2025-08-14T22:03:03.737Z,1,GR86-015-31,-2.5,0.011,-0.008,8.45,1.0,,0.0,0.0,35.5
2025-08-14T22:03:03.780Z,1,GR86-015-31,-2.5,0.016,-0.015,8.47,1.0,,0.0,0.0,
2025-08-14T22:03:03.823Z,1,GR86-015-31,-2.5,0.018,-0.002,8.61,1.0,,0.0,0.0,
2025-08-14T22:03:03.867Z,1,GR86-015-31,-2.5,0.008,-0.024,8.75,1.0,,0.0,0.0,
2025-08-14T22:03:03.910Z,1,GR86-015-31,-2.5,0.004,-0.029,8.86,1.0,2592.0,0.0,0.0,
2025-08-14T22:03:03.953Z,1,GR86-015-31,-2.5,0.011,-0.009,8.97,1.0,,0.0,0.0,35.4
2025-08-14T22:03:03.998Z,1,GR86-015-31,-2.5,0.01,-0.021,9.04,1.0,,0.0,0.0,
2025-08-14T22:03:04.041Z,1,GR86-015-31,-2.5,0.024,-0.002,9.18,1.0,,0.0,0.0,
2025-08-14T22:03:04.084Z,1,GR86-015-31,-2.5,0.022,-0.023,9.19,1.0,,0.0,0.0,
2025-08-14T22:03:04.131Z,1,GR86-015-31,-2.5,0.029,-0.011,9.22,1.0,2597.0,0.0,0.0,
2025-08-14T22:03:04.174Z,1,GR86-015-31,-2.5,0.03,-0.021,9.48,1.0,,0.0,0.0,35.28
2025-08-14T22:03:04.217Z,1,GR86-015-31,-2.5,0.029,-0.009,10.5,1.0,,0.0,0.0,
2025-08-14T22:03:04.260Z,1,GR86-015-31,-2.5,0.032,-0.012,10.64,1.0,,0.0,0.0,
2025-08-14T22:03:04.303Z,1,GR86-015-31,-2.5,0.028,-0.013,10.7,1.0,,0.0,0.0,
2025-08-14T22:03:04.348Z,1,GR86-015-31,-2.5,0.028,0.002,10.73,1.0,2588.0,0.0,0.0,
2025-08-14T22:03:04.391Z,1,GR86-015-31,-2.5,0.037,-0.025,10.73,1.0,,0.0,0.0,35.230000000000004
2025-08-14T22:03:04.434Z,1,GR86-015-31,-2.5,0.044,-0.013,10.72,1.0,,0.0,0.0,
2025-08-14T22:03:04.477Z,1,GR86-015-31,-2.5,0.025,-0.016,10.73,1.0,,0.0,0.0,
2025-08-14T22:03:04.520Z,1,GR86-015-31,-2.5,0.018,-0.039,10.75,1.0,,0.0,0.0,
2025-08-14T22:03:04.563Z,1,GR86-015-31,-2.5,0.034,0.002,10.75,1.0,2586.0,0.0,0.0,
2025-08-14T22:03:04.608Z,1,GR86-015-31,-2.7,0.042,-0.003,10.74,1.0,,0.0,0.0,35.24
2025-08-14T22:03:04.651Z,1,GR86-015-31,-2.7,0.052,0.002,10.73,1.0,,0.0,0.0,
2025-08-14T22:03:04.694Z,1,GR86-015-31,-2.7,0.05,-0.009,10.75,1.0,,0.0,0.0,
2025-08-14T22:03:04.737Z,1,GR86-015-31,-2.7,0.046,-0.033,10.75,1.0,,0.0,0.0,
2025-08-14T22:03:04.780Z,1,GR86-015-31,-2.7,0.034,-0.021,10.73,1.0,2609.0,0.0,0.0,
2025-08-14T22:03:04.823Z,1,GR86-015-31,-2.7,0.041,-0.026,10.64,1.0,,0.0,0.0,35.29
2025-08-14T22:03:04.867Z,1,GR86-015-31,-2.7,0.037,0.015,10.61,1.0,,0.0,0.0,
2025-08-14T22:03:04.910Z,1,GR86-015-31,-2.7,0.04,-0.022,10.25,1.0,,0.0,0.0,
2025-08-14T22:03:04.953Z,1,GR86-015-31,-2.7,0.042,-0.007,10.15,1.0,,0.0,0.0,
2025-08-14T22:03:04.999Z,1,GR86-015-31,-2.7,0.043,-0.001,10.24,1.0,2606.0,0.0,0.0,
2025-08-14T22:03:05.041Z,1,GR86-015-31,-2.8000000000000003,0.047,-0.02,10.15,1.0,,0.0,0.0,35.4
2025-08-14T22:03:05.088Z,1,GR86-015-31,-2.8000000000000003,0.036,-0.039,9.38,1.0,,0.0,0.0,
2025-08-14T22:03:05.130Z,1,GR86-015-31,-2.9000000000000004,0.033,-0.039,8.73,1.0,,0.0,0.0,
2025-08-14T22:03:05.173Z,1,GR86-015-31,-3.3000000000000003,0.035,-0.007,8.6,1.0,,0.0,0.0,
2025-08-14T22:03:05.217Z,1,GR86-015-31,-3.8,0.045,-0.021,8.41,1.0,2610.0,0.0,0.0,
2025-08-14T22:03:05.259Z,1,GR86-015-31,-4.2,0.053,0.005,8.52,1.0,,0.0,0.0,35.5
2025-08-14T22:03:05.302Z,1,GR86-015-31,-4.3,0.043,-0.013,8.63,1.0,,0.0,0.0,
2025-08-14T22:03:05.347Z,1,GR86-015-31,-4.3,0.024,-0.054,8.61,1.0,,0.0,0.0,
2025-08-14T22:03:05.390Z,1,GR86-015-31,-4.3,0.013,-0.031,8.290000000000001,1.0,,0.0,0.0,
2025-08-14T22:03:05.433Z,1,GR86-015-31,-4.3,0.016,-0.03,8.27,1.0,2623.0,0.0,0.0,
2025-08-14T22:03:05.477Z,1,GR86-015-31,-4.3,0.03,-0.009,8.25,1.0,,0.0,0.0,35.59
2025-08-14T22:03:05.520Z,1,GR86-015-31,-4.3,0.033,-0.023,8.290000000000001,1.0,,0.0,0.0,
2025-08-14T22:03:05.563Z,1,GR86-015-31,-4.3,0.036,-0.031,8.4,1.0,,0.0,0.0,
2025-08-14T22:03:05.607Z,1,GR86-015-31,-4.3,0.012,-0.017,8.78,1.0,,0.0,0.0,
2025-08-14T22:03:05.650Z,1,GR86-015-31,-4.3,0.017,-0.016,8.82,1.0,2633.0,0.0,0.0,
2025-08-14T22:03:05.694Z,1,GR86-015-31,-4.3,0.012,-0.015,8.85,1.0,,0.0,0.0,35.68
2025-08-14T22:03:05.737Z,1,GR86-015-31,-4.3,0.021,-0.036,8.85,1.0,,0.0,0.0,
2025-08-14T22:03:05.780Z,1,GR86-015-31,-4.3,0.03,-0.022,8.89,1.0,,0.0,0.0,
2025-08-14T22:03:05.823Z,1,GR86-015-31,-4.3,0.025,-0.011,9.18,1.0,,0.0,0.0,
2025-08-14T22:03:05.867Z,1,GR86-015-31,-4.3,0.023,-0.02,9.26,1.0,2615.0,0.0,0.0,
2025-08-14T22:03:05.910Z,1,GR86-015-31,-4.3,0.014,-0.027,9.25,1.0,,0.0,0.0,35.59
2025-08-14T22:03:05.953Z,1,GR86-015-31,-4.3,0.011,-0.025,9.24,1.0,,0.0,0.0,
2025-08-14T22:03:05.999Z,1,GR86-015-31,-4.3,0.022,0.003,9.25,1.0,,0.0,0.0,
2025-08-14T22:03:06.042Z,1,GR86-015-31,-4.3,0.033,-0.027,9.29,1.0,,0.0,0.0,
2025-08-14T22:03:06.088Z,1,GR86-015-31,-4.3,0.041,-0.017,9.66,1.0,2624.0,0.0,0.0,
2025-08-14T22:03:06.131Z,1,GR86-015-31,-4.3,0.028,-0.038,9.7,1.0,,0.0,0.0,35.56
2025-08-14T22:03:06.174Z,1,GR86-015-31,-4.3,0.034,-0.028,9.68,1.0,,0.0,0.0,
2025-08-14T22:03:06.217Z,1,GR86-015-31,-4.3,0.028,0.0,9.73,1.0,,0.0,0.0,
2025-08-14T22:03:06.260Z,1,GR86-015-31,-4.3,0.025,-0.015,9.83,1.0,,0.0,0.0,
2025-08-14T22:03:06.303Z,1,GR86-015-31,-4.3,0.029,-0.012,10.08,1.0,2613.0,0.0,0.0,
2025-08-14T22:03:06.347Z,1,GR86-015-31,-4.3,0.035,-0.036,10.09,1.0,,0.0,0.0,35.58
2025-08-14T22:03:06.390Z,1,GR86-015-31,-4.3,0.047,-0.019,10.08,1.0,,0.0,0.0,
2025-08-14T22:03:06.433Z,1,GR86-015-31,-4.3,0.035,-0.012,10.11,1.0,,0.0,0.0,
2025-08-14T22:03:06.477Z,1,GR86-015-31,-4.3,0.04,-0.011,10.1,1.0,,0.0,0.0,
2025-08-14T22:03:06.519Z,1,GR86-015-31,-4.3,0.028,-0.016,10.12,1.0,2611.0,0.0,0.0,
2025-08-14T22:03:06.562Z,1,GR86-015-31,-4.3,0.027,-0.025,10.14,1.0,,0.0,0.0,35.62
2025-08-14T22:03:06.607Z,1,GR86-015-31,-4.3,0.033,-0.005,10.15,1.0,,0.0,0.0,
2025-08-14T22:03:06.650Z,1,GR86-015-31,-4.3,0.042,-0.018,10.16,1.0,,0.0,0.0,
2025-08-14T22:03:06.693Z,1,GR86-015-31,-4.3,0.048,-0.001,10.33,1.0,,0.0,0.0,
2025-08-14T22:03:06.737Z,1,GR86-015-31,-4.3,0.04,-0.014,10.48,1.0,2635.0,0.0,0.0,
2025-08-14T22:03:06.780Z,1,GR86-015-31,-4.3,0.033,-0.034,10.48,1.0,,0.0,0.0,35.68
2025-08-14T22:03:06.823Z,1,GR86-015-31,-4.3,0.033,-0.008,10.48,1.0,,0.0,0.0,
2025-08-14T22:03:06.867Z,1,GR86-015-31,-4.3,0.032,-0.011,10.47,1.0,,0.0,0.0,
2025-08-14T22:03:06.910Z,1,GR86-015-31,-4.2,0.03,0.003,10.48,1.0,,0.0,0.0,
2025-08-14T22:03:06.953Z,1,GR86-015-31,-4.2,0.034,-0.013,10.45,1.0,2631.0,0.0,0.0,
2025-08-14T22:03:06.998Z,1,GR86-015-31,-4.2,0.045,-0.021,10.4,1.0,,0.0,0.0,35.72
2025-08-14T22:03:07.041Z,1,GR86-015-31,-4.1000000000000005,0.039,0.004,10.4,1.0,,0.0,0.0,
2025-08-14T22:03:07.088Z,1,GR86-015-31,-3.4000000000000004,0.042,0.011,10.43,1.0,,0.0,0.0,
2025-08-14T22:03:07.131Z,1,GR86-015-31,-2.7,0.039,0.006,10.22,1.0,,0.0,0.0,
2025-08-14T22:03:07.174Z,1,GR86-015-31,-1.8,0.031,-0.017,9.96,1.0,2638.0,0.0,0.0,
2025-08-14T22:03:07.217Z,1,GR86-015-31,-0.9,0.031,-0.011,9.76,1.0,,0.0,0.0,35.84
2025-08-14T22:03:07.260Z,1,GR86-015-31,0.0,0.024,-0.009,9.73,1.0,,0.0,0.0,
2025-08-14T22:03:07.303Z,1,GR86-015-31,0.7000000000000001,0.033,0.028,9.66,1.0,,0.0,0.0,
2025-08-14T22:03:07.348Z,1,GR86-015-31,1.0,0.038,0.033,8.51,1.0,,0.0,0.0,
2025-08-14T22:03:07.391Z,1,GR86-015-31,1.0,0.054,0.019,8.21,1.0,2640.0,0.0,0.0,
2025-08-14T22:03:07.434Z,1,GR86-015-31,1.0,0.049,0.026,7.94,1.0,,0.0,0.0,35.94
2025-08-14T22:03:07.477Z,1,GR86-015-31,1.0,0.037,-0.01,7.930000000000001,1.0,,0.0,0.0,
2025-08-14T22:03:07.520Z,1,GR86-015-31,1.0,0.03,0.015,7.83,1.0,,0.0,0.0,
2025-08-14T22:03:07.563Z,1,GR86-015-31,1.0,0.016,0.005,3.91,1.0,,0.0,0.0,
2025-08-14T22:03:07.608Z,1,GR86-015-31,1.0,0.015,0.02,2.8000000000000003,1.0,2648.0,0.0,0.0,
2025-08-14T22:03:07.651Z,1,GR86-015-31,1.0,-0.008,0.028,2.8000000000000003,1.0,,0.0,0.0,36.0
2025-08-14T22:03:07.694Z,1,GR86-015-31,1.0,-0.004,0.033,2.8000000000000003,1.0,,0.0,0.0,
2025-08-14T22:03:07.737Z,1,GR86-015-31,1.0,-0.01,0.016,2.8000000000000003,1.0,,0.0,0.0,
2025-08-14T22:03:07.780Z,1,GR86-015-31,1.0,-0.016,0.013,2.8000000000000003,1.0,,0.0,0.0,
2025-08-14T22:03:07.823Z,1,GR86-015-31,1.0,-0.127,0.003,2.79,1.0,2605.0,0.0,0.0,
2025-08-14T22:03:07.867Z,1,GR86-015-31,1.1,-0.234,0.018,2.77,1.0,,0.0,0.0,36.12
2025-08-14T22:03:07.910Z,1,GR86-015-31,1.1,-0.176,0.014,2.73,1.0,,0.0,0.0,
2025-08-14T22:03:07.953Z,1,GR86-015-31,1.1,-0.083,0.013,2.71,1.0,,0.0,0.0,
2025-08-14T22:03:07.999Z,1,GR86-015-31,1.1,-0.01,0.006,2.7,1.0,,0.0,0.0,
2025-08-14T22:03:08.041Z,1,GR86-015-31,1.1,-0.016,0.012,2.69,1.0,2500.0,0.0,0.0,
2025-08-14T22:03:08.088Z,1,GR86-015-31,1.1,-0.051,0.01,2.67,1.0,,0.0,0.0,35.07
2025-08-14T22:03:08.130Z,1,GR86-015-31,1.1,-0.122,0.006,2.64,1.0,,0.0,0.0,
2025-08-14T22:03:08.173Z,1,GR86-015-31,1.1,-0.17,0.008,2.61,1.0,,0.0,0.0,
2025-08-14T22:03:08.217Z,1,GR86-015-31,1.1,-0.172,-0.004,2.6,1.0,,1.925,1.925,
2025-08-14T22:03:08.259Z,1,GR86-015-31,1.1,-0.129,0.032,2.58,1.0,2509.0,0.0,1.8,
2025-08-14T22:03:08.302Z,1,GR86-015-31,1.1,-0.081,-0.001,2.57,1.0,,0.0,1.8,34.4
2025-08-14T22:03:08.347Z,1,GR86-015-31,1.1,-0.06,0.0,2.5500000000000003,1.0,,0.0,0.0,
2025-08-14T22:03:08.390Z,1,GR86-015-31,1.1,-0.089,0.004,2.5500000000000003,1.0,,1.955,1.985,
2025-08-14T22:03:08.433Z,1,GR86-015-31,1.1,-0.12,-0.003,2.5500000000000003,1.0,,1.925,2.335,
2025-08-14T22:03:08.477Z,1,GR86-015-31,1.1,-0.151,0.012,2.53,1.0,2519.0,1.955,2.335,
2025-08-14T22:03:08.520Z,1,GR86-015-31,1.1,-0.152,0.004,2.51,1.0,,1.985,2.075,33.44
2025-08-14T22:03:08.563Z,1,GR86-015-31,1.1,-0.128,0.025,2.52,1.0,,0.0,1.8,
2025-08-14T22:03:08.607Z,1,GR86-015-31,1.1,-0.094,-0.003,2.51,1.0,,0.0,0.0,
2025-08-14T22:03:08.650Z,1,GR86-015-31,1.1,-0.081,-0.015,2.5,1.0,,0.0,0.0,
2025-08-14T22:03:08.693Z,1,GR86-015-31,1.1,-0.073,0.018,2.5,1.0,2342.0,0.0,0.0,
2025-08-14T22:03:08.737Z,1,GR86-015-31,1.1,-0.092,-0.008,2.5,1.0,,0.0,0.0,32.51
2025-08-14T22:03:08.780Z,1,GR86-015-31,1.1,-0.104,0.002,2.49,1.0,,0.0,0.0,
2025-08-14T22:03:08.823Z,1,GR86-015-31,1.1,-0.117,0.007,2.5,1.0,,0.0,0.0,
2025-08-14T22:03:08.867Z,1,GR86-015-31,0.8,-0.1,-0.006,2.48,1.0,,0.0,0.0,
2025-08-14T22:03:08.910Z,1,GR86-015-31,0.8,-0.082,-0.004,2.49,1.0,2291.0,0.0,0.0,
2025-08-14T22:03:08.953Z,1,GR86-015-31,0.8,-0.081,-0.011,2.48,1.0,,0.0,0.0,31.69
2025-08-14T22:03:08.999Z,1,GR86-015-31,0.8,-0.078,0.0,2.47,1.0,,0.0,0.0,
2025-08-14T22:03:09.042Z,1,GR86-015-31,0.5,-0.091,0.001,2.48,1.0,,0.0,0.0,
2025-08-14T22:03:09.088Z,1,GR86-015-31,0.3,-0.114,-0.02,2.49,1.0,,0.0,0.0,
2025-08-14T22:03:09.131Z,1,GR86-015-31,0.3,-0.103,-0.007,2.48,1.0,2207.0,0.0,0.0,
2025-08-14T22:03:09.174Z,1,GR86-015-31,0.2,-0.095,0.006,2.47,1.0,,0.0,0.0,30.88
2025-08-14T22:03:09.217Z,1,GR86-015-31,-0.1,-0.079,-0.016,2.48,1.0,,0.0,0.0,
2025-08-14T22:03:09.260Z,1,GR86-015-31,-0.4,-0.076,-0.001,2.48,1.0,,0.0,0.0,
2025-08-14T22:03:09.303Z,1,GR86-015-31,-0.7000000000000001,-0.094,-0.002,2.48,1.0,,0.0,0.0,
2025-08-14T22:03:09.347Z,1,GR86-015-31,-0.7000000000000001,-0.11,-0.026,2.48,1.0,2163.0,0.0,0.0,
2025-08-14T22:03:09.390Z,1,GR86-015-31,-0.7000000000000001,-0.095,-0.011,2.48,1.0,,0.0,0.0,30.07
2025-08-14T22:03:09.433Z,1,GR86-015-31,-0.8,-0.091,-0.007,2.47,1.0,,0.0,0.0,
2025-08-14T22:03:09.477Z,1,GR86-015-31,-0.8,-0.085,-0.01,2.51,1.0,,0.0,0.0,
2025-08-14T22:03:09.520Z,1,GR86-015-31,-0.9,-0.092,-0.003,2.52,1.0,,0.0,0.0,
2025-08-14T22:03:09.563Z,1,GR86-015-31,-1.0,-0.099,-0.001,4.07,1.0,2112.0,0.0,0.0,
2025-08-14T22:03:09.607Z,1,GR86-015-31,-1.0,-0.1,-0.017,5.75,1.0,,0.0,0.0,29.3
2025-08-14T22:03:09.650Z,1,GR86-015-31,-1.0,-0.082,0.0,5.76,1.0,,0.0,0.0,
2025-08-14T22:03:09.693Z,1,GR86-015-31,-1.0,-0.078,-0.004,5.76,1.0,,0.0,0.0,
2025-08-14T22:03:09.737Z,1,GR86-015-31,-1.1,-0.061,-0.013,5.75,1.0,,0.0,0.0,
2025-08-14T22:03:09.780Z,1,GR86-015-31,-1.2000000000000002,-0.036,-0.011,5.76,1.0,2056.0,0.0,0.0,
2025-08-14T22:03:09.867Z,1,GR86-015-31,-1.2000000000000002,-0.049,-0.017,5.7700000000000005,1.0,,0.0,0.0,28.51
2025-08-14T22:03:09.910Z,1,GR86-015-31,-1.2000000000000002,-0.083,-0.005,6.1000000000000005,1.0,,0.0,0.0,
2025-08-14T22:03:09.953Z,1,GR86-015-31,-1.3,-0.125,0.001,6.7700000000000005,1.0,,0.0,0.0,
2025-08-14T22:03:09.998Z,1,GR86-015-31,-1.3,-0.13,-0.006,7.58,1.0,1991.0,0.0,0.0,
2025-08-14T22:03:10.041Z,1,GR86-015-31,-1.5,-0.109,0.005,8.09,1.0,,0.0,0.0,27.79
2025-08-14T22:03:10.088Z,1,GR86-015-31,-1.7000000000000002,-0.057,-0.017,8.08,1.0,,0.0,0.0,
2025-08-14T22:03:10.131Z,1,GR86-015-31,-1.6,-0.04,-0.027,8.22,1.0,,0.0,0.0,
2025-08-14T22:03:10.174Z,1,GR86-015-31,-1.8,-0.047,0.001,11.64,1.0,,0.0,0.0,
2025-08-14T22:03:10.217Z,1,GR86-015-31,-2.1,-0.042,0.008,14.65,1.0,1995.0,0.0,0.0,
2025-08-14T22:03:10.260Z,1,GR86-015-31,-2.5,-0.006,-0.024,15.14,1.0,,0.0,0.0,27.23
2025-08-14T22:03:10.303Z,1,GR86-015-31,-2.7,-0.012,-0.003,16.55,1.0,,0.0,0.0,
2025-08-14T22:03:10.348Z,1,GR86-015-31,-2.9000000000000004,-0.009,0.0,16.88,1.0,,0.0,0.0,
2025-08-14T22:03:10.391Z,1,GR86-015-31,-2.9000000000000004,-0.01,-0.028,16.64,1.0,,0.0,0.0,
2025-08-14T22:03:10.434Z,1,GR86-015-31,-2.9000000000000004,0.019,-0.033,15.99,1.0,1981.0,0.0,0.0,
2025-08-14T22:03:10.477Z,1,GR86-015-31,-3.1,0.23,0.021,13.63,1.0,,0.0,0.0,26.47
2025-08-14T22:03:10.520Z,1,GR86-015-31,-3.5,0.403,-0.017,13.17,1.0,,0.0,0.0,
2025-08-14T22:03:10.563Z,1,GR86-015-31,-3.8,0.384,-0.019,13.3,1.0,,0.0,0.0,
2025-08-14T22:03:10.608Z,1,GR86-015-31,-3.8,0.116,-0.019,14.23,1.0,,0.0,0.0,
2025-08-14T22:03:10.651Z,1,GR86-015-31,-3.8,-0.017,-0.02,13.43,1.0,2202.0,0.0,0.0,
2025-08-14T22:03:10.694Z,1,GR86-015-31,-3.8,0.003,-0.023,12.71,1.0,,0.0,0.0,26.95
2025-08-14T22:03:10.737Z,1,GR86-015-31,-3.8,0.106,-0.006,12.06,1.0,,0.0,0.0,
2025-08-14T22:03:10.780Z,1,GR86-015-31,-3.8,0.25,0.011,11.18,1.0,,0.0,0.0,
2025-08-14T22:03:10.823Z,1,GR86-015-31,-3.8,0.291,-0.018,11.45,1.0,,0.0,0.0,
2025-08-14T22:03:10.867Z,1,GR86-015-31,-3.8,0.164,-0.003,16.490000000000002,1.0,1951.0,0.0,0.0,
2025-08-14T22:03:10.910Z,1,GR86-015-31,-3.8,0.048,-0.006,17.72,1.0,,0.0,0.0,27.79
2025-08-14T22:03:10.953Z,1,GR86-015-31,-3.7,0.002,-0.016,18.37,1.0,,0.0,0.0,
2025-08-14T22:03:10.998Z,1,GR86-015-31,-3.2,0.061,0.008,18.63,1.0,,0.0,0.0,
2025-08-14T22:03:11.041Z,1,GR86-015-31,-2.5,0.171,0.015,18.64,1.0,,0.0,0.0,
2025-08-14T22:03:11.085Z,1,GR86-015-31,-1.4,0.297,0.002,18.65,1.0,2013.0,0.0,0.0,
2025-08-14T22:03:11.130Z,1,GR86-015-31,-0.5,0.287,0.017,18.68,1.0,,0.0,0.0,28.69
2025-08-14T22:03:11.173Z,1,GR86-015-31,-0.5,0.193,0.017,18.71,1.0,,0.0,0.0,
2025-08-14T22:03:11.217Z,1,GR86-015-31,-0.5,0.131,0.003,18.71,1.0,,0.0,0.0,
2025-08-14T22:03:11.259Z,1,GR86-015-31,-0.5,0.119,0.025,18.71,1.0,,0.0,0.0,
2025-08-14T22:03:11.302Z,1,GR86-015-31,-0.5,0.165,0.01,18.69,1.0,2272.0,0.0,0.0,
2025-08-14T22:03:11.347Z,1,GR86-015-31,-0.5,0.25,0.018,18.57,1.0,,0.0,0.0,29.78
2025-08-14T22:03:11.390Z,1,GR86-015-31,-0.5,0.259,-0.004,16.7,1.0,,0.0,0.0,
2025-08-14T22:03:11.433Z,1,GR86-015-31,-0.5,0.237,0.0,16.04,1.0,,0.0,0.0,
2025-08-14T22:03:11.477Z,1,GR86-015-31,-0.5,0.194,0.016,15.88,1.0,,0.0,0.0,
2025-08-14T22:03:11.520Z,1,GR86-015-31,-0.5,0.16,0.008,15.73,1.0,2317.0,0.0,0.0,
2025-08-14T22:03:11.563Z,1,GR86-015-31,-0.5,0.135,0.012,15.75,1.0,,0.0,0.0,30.98
2025-08-14T22:03:11.607Z,1,GR86-015-31,-0.5,0.159,0.009,15.84,1.0,,0.0,0.0,
2025-08-14T22:03:11.650Z,1,GR86-015-31,-0.5,0.181,0.0,15.5,1.0,,0.0,0.0,
2025-08-14T22:03:11.693Z,1,GR86-015-31,-0.5,0.205,0.008,14.22,1.0,,0.0,0.0,
2025-08-14T22:03:11.737Z,1,GR86-015-31,-0.5,0.186,0.016,13.55,1.0,2467.0,0.0,0.0,
2025-08-14T22:03:11.780Z,1,GR86-015-31,-0.5,0.162,0.015,13.14,1.0,,0.0,0.0,32.24
2025-08-14T22:03:11.823Z,1,GR86-015-31,-0.5,0.138,0.019,12.42,1.0,,0.0,0.0,
2025-08-14T22:03:11.867Z,1,GR86-015-31,-0.5,0.115,-0.006,10.37,1.0,,0.0,0.0,
2025-08-14T22:03:11.910Z,1,GR86-015-31,-0.5,0.12,0.007,10.34,1.0,,0.0,0.0,
2025-08-14T22:03:11.953Z,1,GR86-015-31,-0.5,0.127,0.0,10.28,1.0,2503.0,0.0,0.0,
2025-08-14T22:03:11.999Z,1,GR86-015-31,-0.5,0.106,0.018,10.5,1.0,,0.0,0.0,33.31
2025-08-14T22:03:12.042Z,1,GR86-015-31,-0.5,0.059,0.015,11.09,1.0,,0.0,0.0,
2025-08-14T22:03:12.088Z,1,GR86-015-31,-0.5,0.052,-0.004,11.17,1.0,,0.0,0.0,
2025-08-14T22:03:12.130Z,1,GR86-015-31,-0.5,0.061,0.013,11.19,1.0,,0.0,0.0,
2025-08-14T22:03:12.173Z,1,GR86-015-31,-0.5,0.087,0.002,11.27,1.0,2517.0,0.0,0.0,
2025-08-14T22:03:12.217Z,1,GR86-015-31,-0.5,0.107,0.019,12.43,1.0,,0.0,0.0,34.15
2025-08-14T22:03:12.259Z,1,GR86-015-31,-0.5,0.082,0.016,12.78,1.0,,0.0,0.0,
2025-08-14T22:03:12.302Z,1,GR86-015-31,-0.5,0.06,0.005,12.78,1.0,,0.0,0.0,
2025-08-14T22:03:12.347Z,1,GR86-015-31,-0.5,0.052,0.017,12.75,1.0,,0.0,0.0,
2025-08-14T22:03:12.390Z,1,GR86-015-31,-0.5,0.066,-0.007,12.08,1.0,2556.0,0.0,0.0,
2025-08-14T22:03:12.433Z,1,GR86-015-31,-0.5,0.098,0.022,11.62,1.0,,0.0,0.0,34.62
2025-08-14T22:03:12.477Z,1,GR86-015-31,-0.5,0.118,0.003,11.29,1.0,,0.0,0.0,
2025-08-14T22:03:12.520Z,1,GR86-015-31,-0.5,0.118,-0.002,11.13,1.0,,0.0,0.0,
2025-08-14T22:03:12.563Z,1,GR86-015-31,-0.5,0.096,0.022,11.12,1.0,,0.0,0.0,
2025-08-14T22:03:12.607Z,1,GR86-015-31,-0.5,0.07,0.008,11.01,1.0,2622.0,0.0,0.0,
2025-08-14T22:03:12.650Z,1,GR86-015-31,-0.5,0.061,0.016,10.12,1.0,,0.0,0.0,34.980000000000004
2025-08-14T22:03:12.693Z,1,GR86-015-31,-0.8,0.06,-0.007,8.21,1.0,,0.0,0.0,
2025-08-14T22:03:12.737Z,1,GR86-015-31,-0.9,0.076,-0.01,7.98,1.0,,0.0,0.0,
2025-08-14T22:03:12.780Z,1,GR86-015-31,-1.1,0.074,0.011,7.94,1.0,,0.0,0.0,
2025-08-14T22:03:12.823Z,1,GR86-015-31,-1.5,0.07,-0.004,7.9,1.0,2630.0,0.0,0.0,
2025-08-14T22:03:12.867Z,1,GR86-015-31,-2.2,0.042,-0.004,7.1000000000000005,1.0,,0.0,0.0,35.46
2025-08-14T22:03:12.910Z,1,GR86-015-31,-2.4000000000000004,0.019,-0.022,5.64,1.0,,0.0,0.0,
2025-08-14T22:03:12.953Z,1,GR86-015-31,-2.5,0.008,-0.002,5.41,1.0,,0.0,0.0,
2025-08-14T22:03:12.998Z,1,GR86-015-31,-2.5,0.01,0.0,5.29,1.0,,0.0,0.0,
2025-08-14T22:03:13.041Z,1,GR86-015-31,-2.5,0.017,0.004,5.23,1.0,2626.0,0.0,0.0,
2025-08-14T22:03:13.088Z,1,GR86-015-31,-2.5,-0.02,-0.001,5.16,1.0,,0.0,0.0,36.04
2025-08-14T22:03:13.131Z,1,GR86-015-31,-2.5,-0.015,-0.014,5.14,1.0,,0.0,0.0,
2025-08-14T22:03:13.174Z,1,GR86-015-31,-2.5,-0.008,0.003,5.11,1.0,,0.0,0.0,
2025-08-14T22:03:13.217Z,1,GR86-015-31,-2.5,-0.092,-0.007,5.07,1.0,,0.0,0.0,
2025-08-14T22:03:13.260Z,1,GR86-015-31,-2.5,-0.197,-0.001,5.05,1.0,2620.0,0.0,0.0,
2025-08-14T22:03:13.303Z,1,GR86-015-31,-2.5,-0.2,0.003,5.03,1.0,,0.0,0.0,35.92
2025-08-14T22:03:13.348Z,1,GR86-015-31,-2.6,-0.059,0.004,5.01,1.0,,0.0,0.0,
2025-08-14T22:03:13.391Z,1,GR86-015-31,-2.6,-0.008,0.015,5.01,1.0,,0.0,0.0,
2025-08-14T22:03:13.434Z,1,GR86-015-31,-2.6,-0.008,-0.004,5.0,1.0,,0.0,0.0,
2025-08-14T22:03:13.477Z,1,GR86-015-31,-2.7,-0.011,-0.008,4.99,1.0,2497.0,0.0,0.0,
2025-08-14T22:03:13.520Z,1,GR86-015-31,-2.7,-0.018,-0.019,4.99,1.0,,0.0,0.0,35.050000000000004
2025-08-14T22:03:13.563Z,1,GR86-015-31,-2.7,-0.026,-0.014,4.99,1.0,,0.0,0.0,
2025-08-14T22:03:13.608Z,1,GR86-015-31,-2.7,-0.16,-0.002,4.99,1.0,,0.0,0.0,
2025-08-14T22:03:13.651Z,1,GR86-015-31,-2.8000000000000003,-0.156,0.012,4.98,1.0,,0.0,0.0,
2025-08-14T22:03:13.694Z,1,GR86-015-31,-2.8000000000000003,-0.124,0.003,4.98,1.0,2506.0,0.0,0.0,
2025-08-14T22:03:13.737Z,1,GR86-015-31,-2.8000000000000003,-0.054,-0.01,4.97,1.0,,0.0,0.0,34.550000000000004
2025-08-14T22:03:13.780Z,1,GR86-015-31,-3.0,-0.013,-0.005,4.98,1.0,,0.0,0.0,
2025-08-14T22:03:13.823Z,1,GR86-015-31,-3.2,-0.013,0.011,4.97,1.0,,0.0,0.0,
2025-08-14T22:03:13.867Z,1,GR86-015-31,-3.5,-0.049,0.0,5.08,1.0,,0.0,0.0,
2025-08-14T22:03:13.910Z,1,GR86-015-31,-3.7,-0.118,-0.009,5.65,1.0,2409.0,0.0,0.0,
2025-08-14T22:03:13.953Z,1,GR86-015-31,-3.9,-0.138,-0.015,5.89,1.0,,0.0,0.0,33.76
2025-08-14T22:03:13.998Z,1,GR86-015-31,-4.1000000000000005,-0.114,-0.011,5.92,1.0,,0.0,0.0,
2025-08-14T22:03:14.041Z,1,GR86-015-31,-4.1000000000000005,-0.08,0.005,5.92,1.0,,0.0,0.0,
2025-08-14T22:03:14.088Z,1,GR86-015-31,-4.1000000000000005,-0.025,0.004,6.01,1.0,,0.0,0.0,
2025-08-14T22:03:14.130Z,1,GR86-015-31,-4.1000000000000005,-0.039,-0.008,6.17,1.0,2429.0,0.0,0.0,
2025-08-14T22:03:14.173Z,1,GR86-015-31,-4.1000000000000005,-0.052,-0.016,6.3,1.0,,0.0,0.0,33.15
2025-08-14T22:03:14.217Z,1,GR86-015-31,-4.1000000000000005,-0.076,-0.006,6.47,1.0,,0.0,0.0,
2025-08-14T22:03:14.259Z,1,GR86-015-31,-4.1000000000000005,-0.102,0.006,6.5200000000000005,1.0,,0.0,0.0,
2025-08-14T22:03:14.302Z,1,GR86-015-31,-4.1000000000000005,-0.101,-0.02,6.53,1.0,,0.0,0.0,
2025-08-14T22:03:14.347Z,1,GR86-015-31,-4.1000000000000005,-0.057,0.0,6.53,1.0,2334.0,0.0,0.0,
2025-08-14T22:03:14.390Z,1,GR86-015-31,-4.1000000000000005,-0.054,-0.013,6.53,1.0,,0.0,0.0,32.5
2025-08-14T22:03:14.433Z,1,GR86-015-31,-4.1000000000000005,-0.05,-0.016,6.53,1.0,,0.0,0.0,
2025-08-14T22:03:14.477Z,1,GR86-015-31,-4.1000000000000005,-0.069,-0.009,6.54,1.0,,0.0,0.0,
2025-08-14T22:03:14.520Z,1,GR86-015-31,-4.1000000000000005,-0.078,0.0,6.53,1.0,,0.0,0.0,
2025-08-14T22:03:14.563Z,1,GR86-015-31,-4.1000000000000005,-0.083,0.007,6.53,1.0,2290.0,0.0,0.0,
2025-08-14T22:03:14.607Z,1,GR86-015-31,-4.1000000000000005,-0.071,-0.01,6.5,1.0,,0.0,0.0,31.85
2025-08-14T22:03:14.650Z,1,GR86-015-31,-4.1000000000000005,-0.062,-0.018,6.46,1.0,,0.0,0.0,
2025-08-14T22:03:14.693Z,1,GR86-015-31,-4.1000000000000005,-0.056,0.007,6.46,1.0,,0.0,0.0,
2025-08-14T22:03:14.737Z,1,GR86-015-31,-4.1000000000000005,-0.053,0.0,6.45,1.0,,0.0,0.0,
2025-08-14T22:03:14.780Z,1,GR86-015-31,-4.0,-0.059,-0.01,6.46,1.0,2272.0,0.0,0.0,
2025-08-14T22:03:14.823Z,1,GR86-015-31,-3.8,-0.08,-0.004,6.46,1.0,,0.0,0.0,31.26
2025-08-14T22:03:14.867Z,1,GR86-015-31,-3.7,-0.091,-0.005,6.4,1.0,,0.0,0.0,
2025-08-14T22:03:14.910Z,1,GR86-015-31,-3.7,-0.078,-0.014,6.29,1.0,,0.0,0.0,
2025-08-14T22:03:14.953Z,1,GR86-015-31,-3.7,-0.066,0.009,6.26,1.0,,0.0,0.0,
2025-08-14T22:03:14.999Z,1,GR86-015-31,-3.6,-0.06,-0.004,6.2700000000000005,1.0,2215.0,0.0,0.0,
2025-08-14T22:03:15.041Z,1,GR86-015-31,-3.6,-0.055,0.005,6.2700000000000005,1.0,,0.0,0.0,30.7
2025-08-14T22:03:15.087Z,1,GR86-015-31,-3.4000000000000004,-0.061,0.001,6.12,1.0,,0.0,0.0,
2025-08-14T22:03:15.130Z,1,GR86-015-31,-3.4000000000000004,-0.074,-0.007,5.95,1.0,,0.0,0.0,
2025-08-14T22:03:15.173Z,1,GR86-015-31,-3.4000000000000004,-0.079,-0.004,5.92,1.0,,0.0,0.0,
2025-08-14T22:03:15.217Z,1,GR86-015-31,-3.4000000000000004,-0.071,0.009,5.92,1.0,2180.0,0.0,0.0,
2025-08-14T22:03:15.259Z,1,GR86-015-31,-3.4000000000000004,-0.068,-0.008,5.92,1.0,,0.0,0.0,30.1
2025-08-14T22:03:15.302Z,1,GR86-015-31,-3.4000000000000004,-0.073,0.004,5.92,1.0,,0.0,0.0,
2025-08-14T22:03:15.347Z,1,GR86-015-31,-3.4000000000000004,-0.067,-0.01,5.17,1.0,,0.0,0.0,
2025-08-14T22:03:15.390Z,1,GR86-015-31,-3.4000000000000004,-0.06,-0.016,5.0600000000000005,1.0,,0.0,0.0,
2025-08-14T22:03:15.433Z,1,GR86-015-31,-3.4000000000000004,-0.065,0.006,5.04,1.0,2141.0,0.0,0.0,
2025-08-14T22:03:15.477Z,1,GR86-015-31,-3.3000000000000003,-0.077,0.008,5.07,1.0,,0.0,0.0,29.55
2025-08-14T22:03:15.520Z,1,GR86-015-31,-3.3000000000000003,-0.071,0.003,5.11,1.0,,0.0,0.0,
2025-08-14T22:03:15.563Z,1,GR86-015-31,-3.3000000000000003,-0.077,-0.002,5.15,1.0,,0.0,0.0,
2025-08-14T22:03:15.607Z,1,GR86-015-31,-3.2,-0.077,-0.018,5.26,1.0,,0.0,0.0,
2025-08-14T22:03:15.693Z,1,GR86-015-31,-2.7,-0.06,0.007,5.49,1.0,2086.0,0.0,0.0,28.36
2025-08-14T22:03:15.737Z,1,GR86-015-31,-2.2,-0.07,0.007,5.76,1.0,,0.0,0.0,
2025-08-14T22:03:15.780Z,1,GR86-015-31,-1.7000000000000002,-0.08,0.001,5.92,1.0,,0.0,0.0,
2025-08-14T22:03:15.823Z,1,GR86-015-31,-1.3,-0.093,0.012,6.25,1.0,,0.0,0.0,
2025-08-14T22:03:15.867Z,1,GR86-015-31,-1.0,-0.096,-0.006,6.23,1.0,2054.0,0.0,0.0,
2025-08-14T22:03:15.910Z,1,GR86-015-31,-1.0,-0.081,-0.009,6.23,1.0,,0.0,0.0,27.76
2025-08-14T22:03:15.953Z,1,GR86-015-31,-1.0,-0.058,0.009,6.23,1.0,,0.0,0.0,
2025-08-14T22:03:15.998Z,1,GR86-015-31,-1.0,-0.064,0.012,6.23,1.0,,0.0,0.0,
2025-08-14T22:03:16.041Z,1,GR86-015-31,-1.0,-0.062,-0.007,6.23,1.0,,0.0,0.0,
2025-08-14T22:03:16.088Z,1,GR86-015-31,-0.9,-0.08,0.004,6.2700000000000005,1.0,1947.0,0.0,0.0,
2025-08-14T22:03:16.131Z,1,GR86-015-31,-0.9,-0.08,0.001,6.25,1.0,,0.0,0.0,27.07
2025-08-14T22:03:16.174Z,1,GR86-015-31,-0.9,-0.085,-0.009,6.26,1.0,,0.0,0.0,
2025-08-14T22:03:16.217Z,1,GR86-015-31,-0.8,-0.062,-0.006,6.29,1.0,,0.0,0.0,
2025-08-14T22:03:16.260Z,1,GR86-015-31,-0.8,-0.066,0.021,6.54,1.0,,0.0,0.0,
2025-08-14T22:03:16.303Z,1,GR86-015-31,-0.8,-0.069,-0.014,6.62,1.0,1915.0,0.0,0.0,
2025-08-14T22:03:16.348Z,1,GR86-015-31,-0.7000000000000001,-0.086,-0.006,6.87,1.0,,0.0,0.0,26.45
2025-08-14T22:03:16.391Z,1,GR86-015-31,-0.6000000000000001,-0.083,0.009,6.94,1.0,,0.0,0.0,
2025-08-14T22:03:16.434Z,1,GR86-015-31,-0.5,-0.075,-0.011,7.0,1.0,,0.0,0.0,
2025-08-14T22:03:16.477Z,1,GR86-015-31,-0.5,-0.056,-0.004,7.5,1.0,,0.0,0.0,
2025-08-14T22:03:16.520Z,1,GR86-015-31,-0.5,-0.039,0.022,8.96,1.0,1880.0,0.0,0.0,
2025-08-14T22:03:16.563Z,1,GR86-015-31,-0.5,-0.012,0.001,11.7,1.0,,0.0,0.0,25.85
2025-08-14T22:03:16.608Z,1,GR86-015-31,-0.5,-0.008,-0.003,13.85,1.0,,0.0,0.0,
2025-08-14T22:03:16.651Z,1,GR86-015-31,-0.5,-0.009,0.002,14.19,1.0,,0.0,0.0,
2025-08-14T22:03:16.694Z,1,GR86-015-31,-0.5,-0.006,0.007,14.17,1.0,,0.0,0.0,
2025-08-14T22:03:16.737Z,1,GR86-015-31,-0.5,-0.013,-0.021,14.19,1.0,1909.0,0.0,0.0,
2025-08-14T22:03:16.780Z,1,GR86-015-31,-0.5,-0.007,-0.007,14.35,1.0,,0.0,0.0,25.35
2025-08-14T22:03:16.823Z,1,GR86-015-31,-0.5,0.038,0.016,13.42,1.0,,0.0,0.0,
2025-08-14T22:03:16.867Z,1,GR86-015-31,-0.5,0.254,-0.004,9.1,1.0,,0.0,0.0,
2025-08-14T22:03:16.910Z,1,GR86-015-31,-0.5,0.291,0.01,9.23,1.0,,0.0,0.0,
2025-08-14T22:03:16.953Z,1,GR86-015-31,-0.5,0.199,0.008,9.53,1.0,2041.0,0.0,0.0,
2025-08-14T22:03:16.998Z,1,GR86-015-31,-0.5,0.061,-0.02,9.64,1.0,,0.0,0.0,25.14
2025-08-14T22:03:17.041Z,1,GR86-015-31,-0.5,-0.022,-0.023,9.65,1.0,,0.0,0.0,
2025-08-14T22:03:17.087Z,1,GR86-015-31,-0.5,-0.005,0.008,10.19,1.0,,0.0,0.0,
2025-08-14T22:03:17.130Z,1,GR86-015-31,-0.5,0.076,0.001,8.99,1.0,,0.0,0.0,
2025-08-14T22:03:17.173Z,1,GR86-015-31,-0.5,0.176,0.003,8.35,1.0,1902.0,0.0,0.0,
2025-08-14T22:03:17.217Z,1,GR86-015-31,-0.5,0.19,0.009,8.370000000000001,1.0,,0.0,0.0,25.91
2025-08-14T22:03:17.260Z,1,GR86-015-31,-0.5,0.135,0.011,8.42,1.0,,0.0,0.0,
2025-08-14T22:03:17.303Z,1,GR86-015-31,-0.5,0.054,-0.03,8.93,1.0,,0.0,0.0,
2025-08-14T22:03:17.347Z,1,GR86-015-31,-0.5,-0.001,-0.003,10.23,1.0,,0.0,0.0,
2025-08-14T22:03:17.390Z,1,GR86-015-31,-0.5,0.006,0.003,10.21,1.0,1912.0,0.0,0.0,
2025-08-14T22:03:17.433Z,1,GR86-015-31,-0.5,0.057,-0.009,10.1,1.0,,0.0,0.0,26.41
2025-08-14T22:03:17.477Z,1,GR86-015-31,-0.5,0.095,0.001,9.93,1.0,,0.0,0.0,
2025-08-14T22:03:17.520Z,1,GR86-015-31,-0.5,0.108,-0.001,8.76,1.0,,0.0,0.0,
2025-08-14T22:03:17.563Z,1,GR86-015-31,-0.5,0.082,-0.009,8.81,1.0,,0.0,0.0,
2025-08-14T22:03:17.607Z,1,GR86-015-31,-0.5,0.039,-0.009,9.29,1.0,2053.0,0.0,0.0,
2025-08-14T22:03:17.650Z,1,GR86-015-31,-0.5,0.023,-0.003,9.28,1.0,,0.0,0.0,26.98
2025-08-14T22:03:17.693Z,1,GR86-015-31,-0.5,0.03,-0.017,9.28,1.0,,0.0,0.0,
2025-08-14T22:03:17.737Z,1,GR86-015-31,-0.5,0.058,0.004,9.2,1.0,,0.0,0.0,
2025-08-14T22:03:17.780Z,1,GR86-015-31,-0.5,0.094,0.002,8.700000000000001,1.0,,0.0,0.0,
2025-08-14T22:03:17.823Z,1,GR86-015-31,-0.5,0.095,-0.017,8.63,1.0,2019.0,0.0,0.0,
2025-08-14T22:03:17.867Z,1,GR86-015-31,-0.5,0.069,-0.01,8.69,1.0,,0.0,0.0,27.3
2025-08-14T22:03:17.910Z,1,GR86-015-31,-0.5,0.03,0.005,8.76,1.0,,0.0,0.0,
2025-08-14T22:03:17.953Z,1,GR86-015-31,-0.5,0.018,-0.014,8.8,1.0,,0.0,0.0,
2025-08-14T22:03:17.999Z,1,GR86-015-31,-0.5,0.024,0.003,8.82,1.0,,0.0,0.0,
2025-08-14T22:03:18.042Z,1,GR86-015-31,-0.5,0.045,0.0,8.82,1.0,2023.0,0.0,0.0,
2025-08-14T22:03:18.088Z,1,GR86-015-31,-0.5,0.068,-0.022,8.21,1.0,,0.0,0.0,27.95
2025-08-14T22:03:18.130Z,1,GR86-015-31,-0.5,0.054,-0.011,5.01,1.0,,0.0,0.0,
2025-08-14T22:03:18.173Z,1,GR86-015-31,-0.5,0.028,0.008,4.12,1.0,,0.0,0.0,
2025-08-14T22:03:18.217Z,1,GR86-015-31,-0.6000000000000001,0.014,-0.022,4.1,1.0,,0.0,0.0,
2025-08-14T22:03:18.260Z,1,GR86-015-31,-0.7000000000000001,0.002,-0.005,3.95,1.0,2091.0,0.0,0.0,
2025-08-14T22:03:18.303Z,1,GR86-015-31,-0.7000000000000001,-0.009,0.007,3.47,1.0,,0.0,0.0,28.14
2025-08-14T22:03:18.347Z,1,GR86-015-31,-0.7000000000000001,-0.007,-0.019,3.11,1.0,,0.0,0.0,
2025-08-14T22:03:18.390Z,1,GR86-015-31,-0.7000000000000001,-0.005,-0.009,2.98,1.0,,0.0,0.0,
2025-08-14T22:03:18.433Z,1,GR86-015-31,-0.7000000000000001,-0.021,-0.001,2.87,1.0,,0.0,0.0,
2025-08-14T22:03:18.477Z,1,GR86-015-31,-0.7000000000000001,-0.015,-0.013,2.84,1.0,2053.0,2.975,2.855,
2025-08-14T22:03:18.520Z,1,GR86-015-31,-0.7000000000000001,-0.052,-0.017,2.78,1.0,,3.695,3.645,28.13
2025-08-14T22:03:18.563Z,1,GR86-015-31,-0.7000000000000001,-0.231,-0.014,2.73,1.0,,4.745,4.6850000000000005,
2025-08-14T22:03:18.607Z,1,GR86-015-31,-0.8,-0.271,-0.014,2.7,1.0,,6.545,6.715,
2025-08-14T22:03:18.650Z,1,GR86-015-31,-0.8,-0.185,-0.002,2.66,1.0,,6.9,7.37,
2025-08-14T22:03:18.693Z,1,GR86-015-31,-1.0,-0.112,0.027,2.64,1.0,2055.0,6.805,7.4,
2025-08-14T22:03:18.737Z,1,GR86-015-31,-1.3,-0.083,-0.006,2.61,1.0,,6.805,7.08,27.63
2025-08-14T22:03:18.780Z,1,GR86-015-31,-1.5,-0.091,-0.004,2.59,1.0,,6.6850000000000005,6.715,
2025-08-14T22:03:18.823Z,1,GR86-015-31,-1.7000000000000002,-0.097,-0.017,2.58,1.0,,6.6850000000000005,6.715,
2025-08-14T22:03:18.867Z,1,GR86-015-31,-2.3000000000000003,-0.09,-0.022,2.58,1.0,,7.645,7.615,
2025-08-14T22:03:18.910Z,1,GR86-015-31,-3.0,-0.106,-0.021,2.57,1.0,1785.0,9.4,9.34,
2025-08-14T22:03:18.953Z,1,GR86-015-31,-3.5,-0.137,0.007,2.57,1.0,,11.065,10.895,26.39
2025-08-14T22:03:18.998Z,1,GR86-015-31,-4.2,-0.149,-0.012,2.58,1.0,,12.21,12.115,
2025-08-14T22:03:19.041Z,1,GR86-015-31,-4.800000000000001,-0.158,-0.019,2.58,1.0,,13.045,12.925,
2025-08-14T22:03:19.088Z,1,GR86-015-31,-4.9,-0.175,0.003,2.58,1.0,,13.49,13.335,
2025-08-14T22:03:19.131Z,1,GR86-015-31,-4.9,-0.169,-0.026,2.58,1.0,1440.0,13.305,13.335,
2025-08-14T22:03:19.174Z,1,GR86-015-31,-4.9,-0.177,-0.035,2.59,1.0,,13.11,13.335,25.48
2025-08-14T22:03:19.217Z,1,GR86-015-31,-5.0,-0.168,-0.023,2.63,1.0,,13.11,13.735,
2025-08-14T22:03:19.260Z,1,GR86-015-31,-5.0,-0.17,-0.001,2.64,1.0,,12.955,13.825,
2025-08-14T22:03:19.303Z,1,GR86-015-31,-5.1000000000000005,-0.178,-0.015,2.67,1.0,,12.925,13.705,
2025-08-14T22:03:19.348Z,1,GR86-015-31,-6.300000000000001,-0.179,-0.009,2.84,1.0,1087.0,12.74,12.985,
2025-08-14T22:03:19.391Z,1,GR86-015-31,-7.0,-0.181,0.011,3.12,1.0,,12.42,12.59,24.27
2025-08-14T22:03:19.434Z,1,GR86-015-31,-8.5,-0.168,-0.016,3.41,1.0,,12.42,12.33,
2025-08-14T22:03:19.477Z,1,GR86-015-31,-9.8,-0.173,-0.047,3.66,1.0,,12.39,12.65,
2025-08-14T22:03:19.520Z,1,GR86-015-31,-10.9,-0.168,-0.044,3.88,1.0,,12.42,12.985,
2025-08-14T22:03:19.563Z,1,GR86-015-31,-11.5,-0.165,-0.02,4.14,1.0,859.0,12.74,13.335,
2025-08-14T22:03:19.608Z,1,GR86-015-31,-12.5,-0.176,-0.041,4.8500000000000005,1.0,,12.5,13.335,22.98
2025-08-14T22:03:19.651Z,1,GR86-015-31,-12.7,-0.177,-0.055,5.17,1.0,,11.58,12.39,
2025-08-14T22:03:19.694Z,1,GR86-015-31,-12.7,-0.166,-0.019,5.4,1.0,,10.315,11.275,
2025-08-14T22:03:19.737Z,1,GR86-015-31,-12.7,-0.162,-0.013,5.7,1.0,,9.935,10.375,
2025-08-14T22:03:19.780Z,1,GR86-015-31,-12.7,-0.153,-0.029,5.92,1.0,758.0,9.63,10.21,
2025-08-14T22:03:19.823Z,1,GR86-015-31,-12.7,-0.154,-0.042,5.92,1.0,,9.63,10.375,21.68
2025-08-14T22:03:19.867Z,1,GR86-015-31,-12.7,-0.152,-0.009,5.92,1.0,,9.63,10.56,
2025-08-14T22:03:19.910Z,1,GR86-015-31,-12.7,-0.147,-0.013,5.92,1.0,,9.63,10.5,
2025-08-14T22:03:19.953Z,1,GR86-015-31,-12.7,-0.144,-0.035,5.9,1.0,,9.28,10.21,
2025-08-14T22:03:19.999Z,1,GR86-015-31,-12.7,-0.151,-0.04,5.91,1.0,701.0,8.67,9.49,
2025-08-14T22:03:20.041Z,1,GR86-015-31,-12.7,-0.141,-0.019,5.88,1.0,,7.95,8.73,20.42
2025-08-14T22:03:20.088Z,1,GR86-015-31,-12.5,-0.133,-0.008,5.88,1.0,,7.17,7.675,
2025-08-14T22:03:20.131Z,1,GR86-015-31,-12.3,-0.119,-0.033,5.8500000000000005,1.0,,6.805,7.205,
2025-08-14T22:03:20.174Z,1,GR86-015-31,-11.9,-0.12,-0.032,5.84,1.0,,6.515000000000001,7.4,
2025-08-14T22:03:20.217Z,1,GR86-015-31,-11.5,-0.116,-0.02,5.83,1.0,806.0,6.545,7.4,
2025-08-14T22:03:20.260Z,1,GR86-015-31,-11.1,-0.12,-0.017,5.72,1.0,,6.805,7.675,19.28
2025-08-14T22:03:20.303Z,1,GR86-015-31,-10.9,-0.113,-0.023,5.53,1.0,,7.17,7.890000000000001,
2025-08-14T22:03:20.347Z,1,GR86-015-31,-10.4,-0.117,-0.032,5.4,1.0,,7.265000000000001,8.120000000000001,
2025-08-14T22:03:20.390Z,1,GR86-015-31,-10.2,-0.126,-0.019,5.3500000000000005,1.0,,7.525,8.01,
2025-08-14T22:03:20.433Z,1,GR86-015-31,-9.9,-0.124,-0.01,5.2700000000000005,1.0,978.0,7.525,7.86,
2025-08-14T22:03:20.477Z,1,GR86-015-31,-9.5,-0.124,-0.013,5.25,1.0,,7.295,7.46,18.26
2025-08-14T22:03:20.520Z,1,GR86-015-31,-9.2,-0.121,-0.016,5.22,1.0,,7.17,7.11,
2025-08-14T22:03:20.563Z,1,GR86-015-31,-8.8,-0.118,-0.034,5.17,1.0,,6.865,7.05,
2025-08-14T22:03:20.607Z,1,GR86-015-31,-8.5,-0.113,-0.021,5.16,1.0,,6.805,7.08,
2025-08-14T22:03:20.650Z,1,GR86-015-31,-8.200000000000001,-0.113,-0.018,5.13,1.0,1126.0,6.805,7.4,
2025-08-14T22:03:20.693Z,1,GR86-015-31,-8.0,-0.112,-0.023,5.12,1.0,,6.96,7.525,16.46
2025-08-14T22:03:20.737Z,1,GR86-015-31,-7.6,-0.115,-0.006,5.1000000000000005,1.0,,7.17,7.765000000000001,
2025-08-14T22:03:20.780Z,1,GR86-015-31,-7.2,-0.116,-0.021,5.09,1.0,,7.235,8.120000000000001,
2025-08-14T22:03:20.823Z,1,GR86-015-31,-6.9,-0.117,-0.015,5.08,1.0,,7.265000000000001,8.040000000000001,
2025-08-14T22:03:20.867Z,1,GR86-015-31,-6.300000000000001,-0.118,-0.032,5.05,1.0,1132.0,7.4,7.765000000000001,
2025-08-14T22:03:20.910Z,1,GR86-015-31,-5.800000000000001,-0.122,-0.012,5.01,1.0,,7.17,7.645,15.59
2025-08-14T22:03:20.953Z,1,GR86-015-31,-5.4,-0.117,0.0,4.98,1.0,,7.17,7.37,
2025-08-14T22:03:20.998Z,1,GR86-015-31,-5.0,-0.117,-0.015,4.98,1.0,,7.17,7.05,
2025-08-14T22:03:21.041Z,1,GR86-015-31,-4.9,-0.119,-0.023,4.96,1.0,,7.05,7.05,
2025-08-14T22:03:21.087Z,1,GR86-015-31,-4.9,-0.113,-0.023,4.95,1.0,1119.0,6.99,7.05,
2025-08-14T22:03:21.130Z,1,GR86-015-31,-4.9,-0.112,-0.017,4.93,1.0,,7.05,7.4,14.69
2025-08-14T22:03:21.173Z,1,GR86-015-31,-4.6000000000000005,-0.116,-0.024,4.93,1.0,,7.17,7.43,
2025-08-14T22:03:21.217Z,1,GR86-015-31,-4.2,-0.112,-0.018,4.94,1.0,,7.17,7.765000000000001,
2025-08-14T22:03:21.259Z,1,GR86-015-31,-4.0,-0.114,-0.02,4.91,1.0,,7.525,8.120000000000001,
2025-08-14T22:03:21.302Z,1,GR86-015-31,-4.0,-0.113,-0.022,4.92,1.0,1081.0,7.555,8.21,
2025-08-14T22:03:21.347Z,1,GR86-015-31,-4.0,-0.123,-0.028,4.92,1.0,,7.86,8.425,13.79
2025-08-14T22:03:21.390Z,1,GR86-015-31,-3.8,-0.124,-0.013,4.92,1.0,,7.95,8.455,
2025-08-14T22:03:21.433Z,1,GR86-015-31,-3.3000000000000003,-0.13,-0.012,4.91,1.0,,8.27,8.455,
2025-08-14T22:03:21.477Z,1,GR86-015-31,-2.8000000000000003,-0.128,-0.002,4.91,1.0,,8.85,8.545,
2025-08-14T22:03:21.520Z,1,GR86-015-31,-2.6,-0.123,-0.017,4.91,1.0,1062.0,8.91,8.805,
2025-08-14T22:03:21.563Z,1,GR86-015-31,-2.6,-0.129,-0.028,4.9,1.0,,8.91,8.805,12.89
2025-08-14T22:03:21.607Z,1,GR86-015-31,-2.6,-0.129,-0.017,4.9,1.0,,8.76,8.85,
2025-08-14T22:03:21.650Z,1,GR86-015-31,-2.6,-0.129,-0.019,4.9,1.0,,8.545,8.700000000000001,
2025-08-14T22:03:21.693Z,1,GR86-015-31,-2.6,-0.122,-0.021,4.89,1.0,,8.545,8.805,
2025-08-14T22:03:21.737Z,1,GR86-015-31,-2.5,-0.132,-0.012,4.9,1.0,1047.0,8.545,8.85,
2025-08-14T22:03:21.780Z,1,GR86-015-31,-2.5,-0.124,-0.018,4.88,1.0,,8.545,9.095,11.96
2025-08-14T22:03:21.823Z,1,GR86-015-31,-2.5,-0.12,-0.008,4.88,1.0,,8.575000000000001,9.155,
2025-08-14T22:03:21.867Z,1,GR86-015-31,-2.5,-0.123,-0.027,4.87,1.0,,8.635,9.37,
2025-08-14T22:03:21.910Z,1,GR86-015-31,-2.4000000000000004,-0.122,-0.023,4.87,1.0,,8.575000000000001,9.43,
2025-08-14T22:03:21.953Z,1,GR86-015-31,-2.4000000000000004,-0.125,-0.014,4.87,1.0,1044.0,8.91,9.49,
2025-08-14T22:03:21.998Z,1,GR86-015-31,-2.2,-0.131,-0.03,4.8500000000000005,1.0,,8.91,9.6,11.01
2025-08-14T22:03:22.041Z,1,GR86-015-31,-2.1,-0.134,-0.009,4.86,1.0,,8.94,9.52,
2025-08-14T22:03:22.088Z,1,GR86-015-31,-2.1,-0.131,-0.013,4.86,1.0,,9.005,9.49,
2025-08-14T22:03:22.131Z,1,GR86-015-31,-2.1,-0.132,-0.012,4.86,1.0,,8.94,9.215,
2025-08-14T22:03:22.174Z,1,GR86-015-31,-2.1,-0.129,-0.01,4.86,1.0,1053.0,8.91,9.035,
2025-08-14T22:03:22.217Z,1,GR86-015-31,-2.0,-0.125,-0.03,4.8500000000000005,1.0,,8.85,8.88,10.04
2025-08-14T22:03:22.260Z,1,GR86-015-31,-2.0,-0.129,-0.029,4.84,1.0,,8.545,8.73,
2025-08-14T22:03:22.303Z,1,GR86-015-31,-1.9,-0.128,-0.031,4.83,1.0,,8.545,8.455,
2025-08-14T22:03:22.348Z,1,GR86-015-31,-1.8,-0.126,-0.014,4.83,1.0,,8.425,8.455,
2025-08-14T22:03:22.391Z,1,GR86-015-31,-1.8,-0.127,-0.006,4.83,1.0,1045.0,8.3,8.455,
2025-08-14T22:03:22.434Z,1,GR86-015-31,-1.8,-0.124,-0.008,4.82,1.0,,8.36,8.455,9.05
2025-08-14T22:03:22.477Z,1,GR86-015-31,-1.7000000000000002,-0.122,-0.008,4.78,1.0,,8.21,8.455,
2025-08-14T22:03:22.520Z,1,GR86-015-31,-1.7000000000000002,-0.124,-0.01,4.78,1.0,,8.21,8.455,
2025-08-14T22:03:22.563Z,1,GR86-015-31,-1.6,-0.124,-0.02,4.7700000000000005,1.0,,8.33,8.455,
2025-08-14T22:03:22.608Z,1,GR86-015-31,-1.5,-0.12,-0.031,4.7700000000000005,1.0,1055.0,8.21,8.76,
2025-08-14T22:03:22.651Z,1,GR86-015-31,-1.4,-0.123,-0.03,4.74,1.0,,8.21,8.76,8.07
2025-08-14T22:03:22.694Z,1,GR86-015-31,-1.2000000000000002,-0.116,-0.032,4.76,1.0,,7.555,8.36,
2025-08-14T22:03:22.737Z,1,GR86-015-31,-1.1,-0.113,-0.013,4.75,1.0,,6.24,7.0200000000000005,
2025-08-14T22:03:22.780Z,1,GR86-015-31,-1.0,-0.101,-0.014,4.75,1.0,,5.25,6.03,
2025-08-14T22:03:22.823Z,1,GR86-015-31,-0.7000000000000001,-0.094,-0.007,4.74,1.0,1054.0,5.05,5.8,
2025-08-14T22:03:22.867Z,1,GR86-015-31,0.2,-0.097,-0.012,4.75,1.0,,4.9,5.6450000000000005,7.12
2025-08-14T22:03:22.910Z,1,GR86-015-31,1.2000000000000002,-0.09,-0.014,4.75,1.0,,4.87,5.465,
2025-08-14T22:03:22.953Z,1,GR86-015-31,2.7,-0.096,-0.017,4.74,1.0,,4.47,5.28,
2025-08-14T22:03:22.999Z,1,GR86-015-31,4.9,-0.089,-0.014,4.76,1.0,,4.03,4.655,
2025-08-14T22:03:23.041Z,1,GR86-015-31,7.5,-0.082,-0.017,4.75,1.0,1056.0,3.695,3.97,
2025-08-14T22:03:23.088Z,1,GR86-015-31,11.6,-0.072,-0.011,4.75,1.0,,2.5500000000000003,2.975,5.43
2025-08-14T22:03:23.130Z,1,GR86-015-31,14.5,-0.055,-0.01,4.74,1.0,,1.83,2.305,
2025-08-14T22:03:23.173Z,1,GR86-015-31,17.5,-0.042,-0.006,4.74,1.0,,0.0,0.0,
2025-08-14T22:03:23.217Z,1,GR86-015-31,20.3,-0.032,-0.005,4.74,1.0,,0.0,0.0,
2025-08-14T22:03:23.260Z,1,GR86-015-31,23.0,-0.024,-0.01,4.74,1.0,1047.0,0.0,0.0,
2025-08-14T22:03:23.303Z,1,GR86-015-31,25.4,-0.016,-0.002,4.73,1.0,,0.0,0.0,4.8100000000000005
2025-08-14T22:03:23.347Z,1,GR86-015-31,28.3,-0.009,-0.016,4.73,1.0,,0.0,0.0,
2025-08-14T22:03:23.390Z,1,GR86-015-31,30.0,-0.009,-0.016,4.72,1.0,,0.0,0.0,
2025-08-14T22:03:23.433Z,1,GR86-015-31,32.1,-0.008,-0.016,4.73,1.0,,0.0,0.0,
2025-08-14T22:03:23.477Z,1,GR86-015-31,35.5,-0.007,-0.023,4.71,1.0,1040.0,0.0,0.0,
2025-08-14T22:03:23.520Z,1,GR86-015-31,40.5,-0.009,-0.009,4.72,1.0,,0.0,0.0,4.47
2025-08-14T22:03:23.563Z,1,GR86-015-31,46.3,-0.006,-0.008,4.71,1.0,,0.0,0.0,
2025-08-14T22:03:23.607Z,1,GR86-015-31,55.0,-0.006,0.002,4.7,1.0,,0.0,0.0,
2025-08-14T22:03:23.650Z,1,GR86-015-31,58.5,-0.005,0.008,4.68,1.0,,0.0,0.0,
2025-08-14T22:03:23.694Z,1,GR86-015-31,59.5,0.002,0.005,4.68,1.0,1048.0,0.0,0.0,
2025-08-14T22:03:23.737Z,1,GR86-015-31,59.5,-0.001,0.001,4.67,1.0,,0.0,0.0,4.3100000000000005
2025-08-14T22:03:23.780Z,1,GR86-015-31,59.2,0.001,-0.011,4.66,1.0,,0.0,0.0,
2025-08-14T22:03:23.823Z,1,GR86-015-31,55.900000000000006,0.004,-0.025,4.65,1.0,,0.0,0.0,
2025-08-14T22:03:23.867Z,1,GR86-015-31,48.400000000000006,0.001,-0.028,4.66,1.0,,0.0,0.0,
2025-08-14T22:03:23.910Z,1,GR86-015-31,42.1,-0.001,-0.027,4.64,1.0,1053.0,0.0,0.0,
2025-08-14T22:03:23.953Z,1,GR86-015-31,35.1,-0.005,-0.032,4.65,1.0,,0.0,0.0,4.28
2025-08-14T22:03:23.999Z,1,GR86-015-31,27.1,-0.001,-0.018,4.65,1.0,,1.925,1.925,
2025-08-14T22:03:24.042Z,1,GR86-015-31,18.8,-0.02,-0.031,4.64,1.0,,3.37,3.465,
2025-08-14T22:03:24.088Z,1,GR86-015-31,6.9,-0.049,-0.029,4.62,1.0,,4.0600000000000005,4.03,
2025-08-14T22:03:24.130Z,1,GR86-015-31,-0.1,-0.053,-0.035,4.63,1.0,1044.0,4.09,4.275,
2025-08-14T22:03:24.173Z,1,GR86-015-31,-4.800000000000001,-0.054,-0.039,4.62,1.0,,4.0600000000000005,4.275,4.2
2025-08-14T22:03:24.217Z,1,GR86-015-31,-7.0,-0.054,-0.03,4.62,1.0,,4.0600000000000005,4.275,
2025-08-14T22:03:24.259Z,1,GR86-015-31,-7.300000000000001,-0.051,-0.029,4.62,1.0,,4.0600000000000005,4.275,
2025-08-14T22:03:24.302Z,1,GR86-015-31,-7.2,-0.052,-0.017,4.62,1.0,,3.97,4.275,
2025-08-14T22:03:24.347Z,1,GR86-015-31,-6.5,-0.052,-0.011,4.62,1.0,1052.0,4.0600000000000005,4.305,
2025-08-14T22:03:24.390Z,1,GR86-015-31,-6.300000000000001,-0.048,-0.012,4.61,1.0,,4.09,4.595,3.87
2025-08-14T22:03:24.433Z,1,GR86-015-31,-5.800000000000001,-0.058,-0.011,4.62,1.0,,5.05,5.22,
2025-08-14T22:03:24.477Z,1,GR86-015-31,-5.4,-0.07,-0.016,4.62,1.0,,6.18,6.21,
2025-08-14T22:03:24.520Z,1,GR86-015-31,-4.9,-0.081,-0.023,4.6000000000000005,1.0,,6.625,6.715,
2025-08-14T22:03:24.563Z,1,GR86-015-31,-3.7,-0.084,-0.018,4.59,1.0,1039.0,6.655,6.715,
2025-08-14T22:03:24.607Z,1,GR86-015-31,-0.4,-0.083,-0.017,4.61,1.0,,6.485,6.805,3.41
2025-08-14T22:03:24.650Z,1,GR86-015-31,2.8000000000000003,-0.08,-0.018,4.59,1.0,,6.485,6.715,
2025-08-14T22:03:24.693Z,1,GR86-015-31,5.1000000000000005,-0.078,-0.013,4.58,1.0,,6.24,6.715,
2025-08-14T22:03:24.737Z,1,GR86-015-31,5.7,-0.08,-0.017,4.5600000000000005,1.0,,6.2700000000000005,6.715,
2025-08-14T22:03:24.780Z,1,GR86-015-31,5.800000000000001,-0.082,-0.012,4.55,1.0,1054.0,6.18,6.625,
2025-08-14T22:03:24.823Z,1,GR86-015-31,5.800000000000001,-0.081,-0.008,4.54,1.0,,6.15,6.6850000000000005,2.9
2025-08-14T22:03:24.867Z,1,GR86-015-31,5.800000000000001,-0.081,-0.023,4.53,1.0,,4.87,5.4350000000000005,
2025-08-14T22:03:24.910Z,1,GR86-015-31,5.800000000000001,-0.065,-0.015,4.53,1.0,,3.935,4.44,
2025-08-14T22:03:24.953Z,1,GR86-015-31,5.800000000000001,-0.061,-0.026,4.54,1.0,,3.875,4.18,
2025-08-14T22:03:24.998Z,1,GR86-015-31,5.800000000000001,-0.062,-0.018,4.5200000000000005,1.0,1040.0,3.725,4.275,
2025-08-14T22:03:25.041Z,1,GR86-015-31,5.800000000000001,-0.061,-0.02,4.53,1.0,,3.725,4.18,2.3000000000000003
2025-08-14T22:03:25.088Z,1,GR86-015-31,5.800000000000001,-0.065,-0.014,4.5200000000000005,1.0,,3.785,4.275,
2025-08-14T22:03:25.131Z,1,GR86-015-31,5.800000000000001,-0.065,-0.013,4.5200000000000005,1.0,,3.725,4.275,
2025-08-14T22:03:25.174Z,1,GR86-015-31,5.800000000000001,-0.061,-0.016,4.53,1.0,,3.785,4.275,
2025-08-14T22:03:25.217Z,1,GR86-015-31,5.800000000000001,-0.068,-0.02,4.53,1.0,1041.0,3.935,4.44,
2025-08-14T22:03:25.260Z,1,GR86-015-31,5.800000000000001,-0.062,-0.018,4.5200000000000005,1.0,,3.845,4.305,1.72
2025-08-14T22:03:25.303Z,1,GR86-015-31,5.800000000000001,-0.065,-0.02,4.54,1.0,,3.845,4.305,
2025-08-14T22:03:25.348Z,1,GR86-015-31,5.800000000000001,-0.066,-0.02,4.5200000000000005,1.0,,4.0600000000000005,4.275,
2025-08-14T22:03:25.391Z,1,GR86-015-31,5.800000000000001,-0.064,-0.014,4.5200000000000005,1.0,,4.0600000000000005,4.305,
2025-08-14T22:03:25.434Z,1,GR86-015-31,5.800000000000001,-0.062,-0.019,4.53,1.0,1042.0,4.0600000000000005,4.305,
2025-08-14T22:03:25.477Z,1,GR86-015-31,5.800000000000001,-0.065,-0.011,4.5200000000000005,1.0,,4.0600000000000005,4.44,1.23
2025-08-14T22:03:25.520Z,1,GR86-015-31,5.800000000000001,-0.062,-0.017,4.53,1.0,,4.12,4.53,
2025-08-14T22:03:25.563Z,1,GR86-015-31,5.800000000000001,-0.021,-0.02,4.5200000000000005,1.0,,4.805,4.9,
2025-08-14T22:03:25.608Z,1,GR86-015-31,5.800000000000001,0.017,-0.019,4.53,1.0,,8.21,8.120000000000001,
2025-08-14T22:03:25.651Z,1,GR86-015-31,5.9,0.019,-0.019,4.5200000000000005,1.0,1053.0,10.47,10.375,
2025-08-14T22:03:25.694Z,1,GR86-015-31,5.9,0.037,-0.019,4.5200000000000005,1.0,,11.965,11.84,0.02
2025-08-14T22:03:25.737Z,1,GR86-015-31,6.0,0.061,-0.012,4.5200000000000005,0.0,,12.805,12.68,
2025-08-14T22:03:25.780Z,1,GR86-015-31,6.0,0.039,-0.019,4.49,0.0,,13.55,13.37,
2025-08-14T22:03:25.823Z,1,GR86-015-31,6.0,0.015,-0.017,4.5,0.0,,14.175,14.055,
2025-08-14T22:03:25.867Z,1,GR86-015-31,6.0,0.01,-0.018,4.45,0.0,1052.0,14.42,14.3,
2025-08-14T22:03:25.910Z,1,GR86-015-31,6.0,0.008,-0.017,4.44,-1.0,,14.51,14.39,0.0
2025-08-14T22:03:25.953Z,1,GR86-015-31,6.0,0.005,-0.011,4.43,-1.0,,14.39,14.39,
2025-08-14T22:03:25.998Z,1,GR86-015-31,6.0,-0.014,-0.02,4.42,0.0,,14.27,14.39,
2025-08-14T22:03:26.041Z,1,GR86-015-31,6.0,-0.004,-0.016,4.42,0.0,,14.42,14.33,
2025-08-14T22:03:26.087Z,1,GR86-015-31,6.0,0.008,-0.018,4.4,0.0,1050.0,14.51,14.39,
2025-08-14T22:03:26.130Z,1,GR86-015-31,6.0,0.015,-0.019,4.41,0.0,,14.51,14.39,0.0
2025-08-14T22:03:26.173Z,1,GR86-015-31,6.0,0.017,-0.015,4.41,0.0,,14.91,14.755,
2025-08-14T22:03:26.217Z,1,GR86-015-31,6.0,0.015,-0.026,4.41,0.0,,14.91,14.755,
2025-08-14T22:03:26.259Z,1,GR86-015-31,6.0,0.014,-0.013,4.41,0.0,,14.91,14.755,
2025-08-14T22:03:26.302Z,1,GR86-015-31,6.0,0.018,-0.013,4.4,0.0,1052.0,14.91,14.755,
2025-08-14T22:03:26.347Z,1,GR86-015-31,6.0,0.015,-0.015,4.41,0.0,,14.85,14.755,0.0
2025-08-14T22:03:26.390Z,1,GR86-015-31,6.0,0.016,-0.017,4.4,0.0,,14.97,14.755,
2025-08-14T22:03:26.433Z,1,GR86-015-31,6.0,0.013,-0.017,4.42,0.0,,14.91,14.785,
2025-08-14T22:03:26.477Z,1,GR86-015-31,6.0,0.015,-0.021,4.4,0.0,,14.91,14.755,
2025-08-14T22:03:26.519Z,1,GR86-015-31,6.0,0.013,-0.013,4.4,0.0,1053.0,14.94,14.755,
2025-08-14T22:03:26.562Z,1,GR86-015-31,6.0,0.014,-0.018,4.4,0.0,,14.91,14.755,0.0
2025-08-14T22:03:26.607Z,1,GR86-015-31,6.0,0.014,-0.015,4.4,0.0,,14.97,14.815,
2025-08-14T22:03:26.650Z,1,GR86-015-31,6.0,0.014,-0.016,4.4,0.0,,15.155,15.09,
2025-08-14T22:03:26.693Z,1,GR86-015-31,6.0,0.01,-0.02,4.41,0.0,,15.245,15.09,
2025-08-14T22:03:26.737Z,1,GR86-015-31,6.0,0.0,-0.016,4.39,0.0,1044.0,15.93,15.81,
2025-08-14T22:03:26.780Z,1,GR86-015-31,6.0,0.004,-0.018,4.39,0.0,,16.740000000000002,16.495,0.0
2025-08-14T22:03:26.823Z,1,GR86-015-31,6.0,0.01,-0.023,4.4,0.0,,17.365000000000002,17.150000000000002,
2025-08-14T22:03:26.867Z,1,GR86-015-31,6.0,0.012,-0.014,4.39,0.0,,18.085,17.81,
2025-08-14T22:03:26.910Z,1,GR86-015-31,6.0,0.014,-0.017,4.38,0.0,,18.36,18.205,
2025-08-14T22:03:26.953Z,1,GR86-015-31,6.0,0.015,-0.017,4.38,0.0,1040.0,18.405,18.235,
2025-08-14T22:03:26.999Z,1,GR86-015-31,6.0,0.013,-0.013,4.39,0.0,,18.74,18.405,0.0
2025-08-14T22:03:27.041Z,1,GR86-015-31,6.0,0.018,-0.022,4.36,0.0,,18.74,18.585,
2025-08-14T22:03:27.087Z,1,GR86-015-31,6.0,0.014,-0.011,4.3500000000000005,0.0,,18.74,18.585,
2025-08-14T22:03:27.130Z,1,GR86-015-31,6.0,0.014,-0.022,4.3500000000000005,0.0,,18.74,18.615,
2025-08-14T22:03:27.173Z,1,GR86-015-31,6.0,0.013,-0.013,4.34,0.0,1041.0,18.74,18.585,
2025-08-14T22:03:27.217Z,1,GR86-015-31,6.0,0.012,-0.017,4.33,0.0,,18.74,18.585,0.0
2025-08-14T22:03:27.259Z,1,GR86-015-31,6.0,0.012,-0.017,4.3500000000000005,0.0,,18.77,18.68,
2025-08-14T22:03:27.302Z,1,GR86-015-31,6.0,0.008,-0.019,4.34,0.0,,18.74,18.68,
2025-08-14T22:03:27.347Z,1,GR86-015-31,6.0,0.008,-0.015,4.33,0.0,,19.075,18.8,
2025-08-14T22:03:27.390Z,1,GR86-015-31,6.0,0.01,-0.023,4.3500000000000005,0.0,1034.0,19.075,18.92,
2025-08-14T22:03:27.433Z,1,GR86-015-31,6.0,0.009,-0.011,4.34,0.0,,19.075,18.92,0.0
2025-08-14T22:03:27.477Z,1,GR86-015-31,6.0,0.014,-0.018,4.33,0.0,,19.245,18.92,
2025-08-14T22:03:27.519Z,1,GR86-015-31,6.0,0.017,-0.019,4.33,0.0,,19.12,18.92,
2025-08-14T22:03:27.562Z,1,GR86-015-31,6.0,0.017,-0.014,4.34,0.0,,19.15,18.92,
2025-08-14T22:03:27.607Z,1,GR86-015-31,6.0,0.015,-0.019,4.34,0.0,1047.0,19.245,18.985,
2025-08-14T22:03:27.650Z,1,GR86-015-31,6.0,0.009,-0.012,4.3500000000000005,0.0,,19.075,19.015,0.0
2025-08-14T22:03:27.693Z,1,GR86-015-31,6.0,0.01,-0.016,4.33,0.0,,19.075,18.92,
2025-08-14T22:03:27.737Z,1,GR86-015-31,6.0,0.012,-0.016,4.34,0.0,,19.21,19.15,
2025-08-14T22:03:27.780Z,1,GR86-015-31,6.0,0.008,-0.02,4.33,0.0,,19.075,18.92,
2025-08-14T22:03:27.823Z,1,GR86-015-31,6.0,0.009,-0.014,4.34,0.0,1011.0,19.075,18.92,
2025-08-14T22:03:27.867Z,1,GR86-015-31,6.0,0.013,-0.021,4.34,0.0,,19.075,18.92,0.0
2025-08-14T22:03:27.910Z,1,GR86-015-31,6.0,0.016,-0.012,4.34,0.0,,19.075,18.92,
2025-08-14T22:03:27.953Z,1,GR86-015-31,6.0,0.017,-0.019,4.33,0.0,,19.15,18.92,
2025-08-14T22:03:27.998Z,1,GR86-015-31,6.0,0.013,-0.014,4.33,0.0,,19.015,18.955,
2025-08-14T22:03:28.041Z,1,GR86-015-31,6.0,0.013,-0.014,4.34,0.0,1022.0,19.075,18.92,
2025-08-14T22:03:28.088Z,1,GR86-015-31,6.0,0.012,-0.02,4.33,0.0,,19.12,19.045,0.0
2025-08-14T22:03:28.131Z,1,GR86-015-31,6.0,0.011,-0.017,4.33,0.0,,19.075,18.955,
2025-08-14T22:03:28.174Z,1,GR86-015-31,6.0,0.007,-0.017,4.34,0.0,,19.075,18.92,
2025-08-14T22:03:28.217Z,1,GR86-015-31,6.0,0.012,-0.022,4.33,0.0,,19.18,19.075,
2025-08-14T22:03:28.260Z,1,GR86-015-31,6.0,0.009,-0.012,4.34,0.0,1026.0,19.245,18.955,
2025-08-14T22:03:28.303Z,1,GR86-015-31,6.0,0.012,-0.017,4.34,0.0,,19.245,19.075,0.0
2025-08-14T22:03:28.348Z,1,GR86-015-31,6.0,0.013,-0.015,4.34,0.0,,19.425,19.12,
2025-08-14T22:03:28.390Z,1,GR86-015-31,6.0,0.014,-0.018,4.34,0.0,,19.245,19.12,
2025-08-14T22:03:28.433Z,1,GR86-015-31,6.0,0.016,-0.019,4.34,0.0,,19.425,19.075,
2025-08-14T22:03:28.477Z,1,GR86-015-31,6.0,0.01,-0.021,4.34,0.0,1028.0,19.21,19.305,
2025-08-14T22:03:28.520Z,1,GR86-015-31,6.0,0.014,-0.015,4.3500000000000005,0.0,,19.275,19.075,0.0
2025-08-14T22:03:28.563Z,1,GR86-015-31,6.0,0.013,-0.015,4.33,0.0,,19.425,19.21,
2025-08-14T22:03:28.608Z,1,GR86-015-31,6.0,0.012,-0.014,4.33,0.0,,19.55,19.305,
2025-08-14T22:03:28.650Z,1,GR86-015-31,6.0,0.008,-0.017,4.34,0.0,,19.7,19.455,
2025-08-14T22:03:28.693Z,1,GR86-015-31,6.0,0.007,-0.022,4.34,0.0,1025.0,19.76,19.55,
2025-08-14T22:03:28.737Z,1,GR86-015-31,6.1000000000000005,0.013,-0.015,4.34,0.0,,19.55,19.485,0.0
2025-08-14T22:03:28.780Z,1,GR86-015-31,6.1000000000000005,0.013,-0.02,4.33,0.0,,19.67,19.365,
2025-08-14T22:03:28.823Z,1,GR86-015-31,6.1000000000000005,0.014,-0.02,4.3500000000000005,0.0,,19.76,19.64,
2025-08-14T22:03:28.867Z,1,GR86-015-31,6.1000000000000005,0.015,-0.018,4.34,0.0,,19.73,19.55,
2025-08-14T22:03:28.910Z,1,GR86-015-31,6.1000000000000005,0.012,-0.017,4.33,0.0,1031.0,19.76,19.58,
2025-08-14T22:03:28.953Z,1,GR86-015-31,6.1000000000000005,0.01,-0.011,4.3500000000000005,0.0,,19.76,19.64,0.0
2025-08-14T22:03:28.998Z,1,GR86-015-31,6.2,0.007,-0.022,4.34,0.0,,19.76,19.58,
2025-08-14T22:03:29.041Z,1,GR86-015-31,6.2,0.012,-0.017,4.3500000000000005,0.0,,19.79,19.64,
2025-08-14T22:03:29.087Z,1,GR86-015-31,6.2,0.013,-0.022,4.3500000000000005,0.0,,19.76,19.64,
2025-08-14T22:03:29.130Z,1,GR86-015-31,6.2,0.01,-0.016,4.34,0.0,1032.0,19.73,19.64,
2025-08-14T22:03:29.173Z,1,GR86-015-31,6.2,0.013,-0.021,4.3500000000000005,0.0,,19.76,19.64,0.0
2025-08-14T22:03:29.217Z,1,GR86-015-31,6.2,0.012,-0.012,4.34,0.0,,19.76,19.64,
2025-08-14T22:03:29.259Z,1,GR86-015-31,6.2,0.015,-0.016,4.36,0.0,,19.76,19.64,
2025-08-14T22:03:29.302Z,1,GR86-015-31,6.2,0.011,-0.012,4.34,0.0,,19.76,19.64,
2025-08-14T22:03:29.347Z,1,GR86-015-31,6.2,0.009,-0.016,4.36,0.0,1030.0,20.115,19.96,
2025-08-14T22:03:29.390Z,1,GR86-015-31,6.2,0.012,-0.023,4.34,0.0,,20.355,19.99,0.0
2025-08-14T22:03:29.433Z,1,GR86-015-31,6.2,0.011,-0.012,4.36,0.0,,20.48,20.295,
2025-08-14T22:03:29.477Z,1,GR86-015-31,6.2,0.011,-0.021,4.3500000000000005,0.0,,20.845,20.555,
2025-08-14T22:03:29.519Z,1,GR86-015-31,6.2,0.012,-0.015,4.3500000000000005,0.0,,21.47,20.935,
2025-08-14T22:03:29.562Z,1,GR86-015-31,6.2,0.015,-0.012,4.36,0.0,1034.0,21.835,21.44,
2025-08-14T22:03:29.606Z,1,GR86-015-31,6.2,0.013,-0.015,4.3500000000000005,0.0,,22.22,21.745,0.0
2025-08-14T22:03:29.650Z,1,GR86-015-31,6.2,0.008,-0.018,4.34,0.0,,22.585,22.19,
2025-08-14T22:03:29.694Z,1,GR86-015-31,6.2,0.009,-0.017,4.36,0.0,,22.935,22.525,
2025-08-14T22:03:29.737Z,1,GR86-015-31,6.2,0.01,-0.023,4.3500000000000005,0.0,,23.12,22.815,
2025-08-14T22:03:29.780Z,1,GR86-015-31,6.2,0.015,-0.015,4.36,0.0,1027.0,23.27,23.09,
2025-08-14T22:03:29.823Z,1,GR86-015-31,6.2,0.01,-0.022,4.3500000000000005,0.0,,23.62,23.18,0.0
2025-08-14T22:03:29.867Z,1,GR86-015-31,6.2,0.014,-0.014,4.36,0.0,,24.34,23.835,
2025-08-14T22:03:29.910Z,1,GR86-015-31,6.2,0.014,-0.014,4.36,0.0,,25.025,24.525,
2025-08-14T22:03:29.953Z,1,GR86-015-31,6.2,0.012,-0.022,4.36,0.0,,25.7,25.24,
2025-08-14T22:03:29.999Z,1,GR86-015-31,6.300000000000001,0.013,-0.014,4.36,0.0,1030.0,26.05,25.575,
2025-08-14T22:03:30.041Z,1,GR86-015-31,6.300000000000001,0.01,-0.02,4.3500000000000005,0.0,,26.14,25.925,0.0
2025-08-14T22:03:30.087Z,1,GR86-015-31,6.300000000000001,0.013,-0.017,4.36,0.0,,26.43,25.955,
2025-08-14T22:03:30.130Z,1,GR86-015-31,6.300000000000001,0.011,-0.018,4.36,0.0,,26.43,26.2,
2025-08-14T22:03:30.173Z,1,GR86-015-31,6.2,0.012,-0.015,4.3500000000000005,0.0,,26.325,26.05,
2025-08-14T22:03:30.217Z,1,GR86-015-31,6.2,0.01,-0.02,4.36,0.0,1020.0,26.43,25.99,
2025-08-14T22:03:30.259Z,1,GR86-015-31,6.2,0.011,-0.011,4.36,0.0,,26.355,26.17,0.0
2025-08-14T22:03:30.302Z,1,GR86-015-31,6.300000000000001,0.012,-0.023,4.36,0.0,,26.23,25.925,
2025-08-14T22:03:30.347Z,1,GR86-015-31,6.300000000000001,0.009,-0.015,4.36,0.0,,26.295,25.955,
2025-08-14T22:03:30.390Z,1,GR86-015-31,6.300000000000001,0.013,-0.019,4.36,0.0,,26.14,25.955,
2025-08-14T22:03:30.433Z,1,GR86-015-31,6.2,0.012,-0.02,4.38,0.0,1029.0,26.11,25.99,
2025-08-14T22:03:30.477Z,1,GR86-015-31,6.300000000000001,0.01,-0.012,4.36,0.0,,26.295,25.955,0.0
2025-08-14T22:03:30.519Z,1,GR86-015-31,6.300000000000001,0.013,-0.02,4.36,0.0,,26.14,25.99,
2025-08-14T22:03:30.562Z,1,GR86-015-31,6.300000000000001,0.009,-0.017,4.37,0.0,,26.17,25.955,
2025-08-14T22:03:30.607Z,1,GR86-015-31,6.300000000000001,0.007,-0.016,4.36,0.0,,26.17,26.08,
2025-08-14T22:03:30.650Z,1,GR86-015-31,6.300000000000001,0.013,-0.019,4.36,0.0,1027.0,26.08,25.955,
2025-08-14T22:03:30.693Z,1,GR86-015-31,6.300000000000001,0.012,-0.017,4.36,0.0,,26.05,25.955,0.0
2025-08-14T22:03:30.737Z,1,GR86-015-31,6.300000000000001,0.015,-0.016,4.36,0.0,,26.08,26.02,
2025-08-14T22:03:30.780Z,1,GR86-015-31,6.300000000000001,0.016,-0.022,4.37,0.0,,26.08,25.925,
2025-08-14T22:03:30.823Z,1,GR86-015-31,6.300000000000001,0.013,-0.016,4.37,0.0,,26.05,25.925,
2025-08-14T22:03:30.867Z,1,GR86-015-31,6.300000000000001,0.012,-0.018,4.37,0.0,1022.0,26.05,25.925,
2025-08-14T22:03:30.910Z,1,GR86-015-31,6.300000000000001,0.011,-0.016,4.36,0.0,,26.05,25.925,0.0
2025-08-14T22:03:30.953Z,1,GR86-015-31,6.300000000000001,0.011,-0.013,4.37,0.0,,26.23,25.925,
2025-08-14T22:03:30.998Z,1,GR86-015-31,6.300000000000001,0.011,-0.021,4.37,0.0,,26.05,25.925,
2025-08-14T22:03:31.041Z,1,GR86-015-31,6.2,0.012,-0.016,4.38,0.0,,26.05,25.925,
2025-08-14T22:03:31.088Z,1,GR86-015-31,6.300000000000001,0.012,-0.02,4.37,0.0,1025.0,26.05,25.955,
2025-08-14T22:03:31.131Z,1,GR86-015-31,6.300000000000001,0.011,-0.016,4.37,0.0,,26.05,25.955,0.0
2025-08-14T22:03:31.174Z,1,GR86-015-31,6.300000000000001,0.012,-0.016,4.37,0.0,,26.05,25.925,
2025-08-14T22:03:31.217Z,1,GR86-015-31,6.300000000000001,0.01,-0.017,4.37,0.0,,26.05,25.925,
2025-08-14T22:03:31.260Z,1,GR86-015-31,6.300000000000001,0.012,-0.019,4.37,0.0,,26.05,25.925,
2025-08-14T22:03:31.303Z,1,GR86-015-31,6.300000000000001,0.013,-0.021,4.36,0.0,1032.0,26.05,25.925,
2025-08-14T22:03:31.348Z,1,GR86-015-31,6.300000000000001,0.011,-0.016,4.36,0.0,,26.05,25.925,0.0
2025-08-14T22:03:31.390Z,1,GR86-015-31,6.300000000000001,0.013,-0.02,4.37,0.0,,26.05,25.925,
2025-08-14T22:03:31.433Z,1,GR86-015-31,6.300000000000001,0.012,-0.011,4.38,0.0,,26.17,25.925,
2025-08-14T22:03:31.477Z,1,GR86-015-31,6.300000000000001,0.014,-0.018,4.37,0.0,,26.23,26.08,
2025-08-14T22:03:31.519Z,1,GR86-015-31,6.300000000000001,0.01,-0.016,4.37,0.0,1025.0,26.57,26.26,
2025-08-14T22:03:31.562Z,1,GR86-015-31,6.2,0.011,-0.018,4.37,0.0,,27.5,26.995,0.0
2025-08-14T22:03:31.608Z,1,GR86-015-31,6.300000000000001,0.011,-0.018,4.37,0.0,,28.52,28.035,
2025-08-14T22:03:31.650Z,1,GR86-015-31,6.300000000000001,0.014,-0.015,4.38,0.0,,29.21,28.69,
2025-08-14T22:03:31.693Z,1,GR86-015-31,6.2,0.013,-0.015,4.38,0.0,,29.56,29.085,
2025-08-14T22:03:31.737Z,1,GR86-015-31,6.300000000000001,0.009,-0.022,4.38,0.0,1029.0,29.62,29.145,
2025-08-14T22:03:31.780Z,1,GR86-015-31,6.300000000000001,0.014,-0.009,4.38,0.0,,29.56,29.24,0.0
2025-08-14T22:03:31.823Z,1,GR86-015-31,6.300000000000001,0.011,-0.023,4.39,0.0,,29.62,29.435,
2025-08-14T22:03:31.867Z,1,GR86-015-31,6.300000000000001,0.011,-0.01,4.38,0.0,,29.56,29.27,
2025-08-14T22:03:31.910Z,1,GR86-015-31,6.300000000000001,0.012,-0.02,4.38,0.0,,29.56,29.145,
2025-08-14T22:03:31.953Z,1,GR86-015-31,6.2,0.014,-0.016,4.37,0.0,1030.0,29.56,29.175,
2025-08-14T22:03:31.998Z,1,GR86-015-31,6.2,0.011,-0.015,4.37,0.0,,29.53,29.115,0.0
2025-08-14T22:03:32.041Z,1,GR86-015-31,6.2,0.014,-0.018,4.37,0.0,,29.56,29.085,
2025-08-14T22:03:32.087Z,1,GR86-015-31,6.300000000000001,0.012,-0.014,4.37,0.0,,29.5,29.085,
2025-08-14T22:03:32.130Z,1,GR86-015-31,6.300000000000001,0.01,-0.02,4.37,0.0,,29.36,29.085,
2025-08-14T22:03:32.173Z,1,GR86-015-31,6.300000000000001,0.015,-0.02,4.38,0.0,1029.0,29.435,29.145,
2025-08-14T22:03:32.217Z,1,GR86-015-31,6.300000000000001,0.011,-0.018,4.37,0.0,,29.56,29.085,0.0
2025-08-14T22:03:32.259Z,1,GR86-015-31,6.2,0.01,-0.014,4.38,0.0,,29.56,29.145,
2025-08-14T22:03:32.302Z,1,GR86-015-31,6.300000000000001,0.012,-0.02,4.37,0.0,,29.56,29.27,
2025-08-14T22:03:32.347Z,1,GR86-015-31,6.2,0.018,-0.012,4.38,0.0,,29.56,29.085,
2025-08-14T22:03:32.390Z,1,GR86-015-31,6.300000000000001,0.011,-0.02,4.39,0.0,1030.0,29.56,29.085,
2025-08-14T22:03:32.433Z,1,GR86-015-31,6.300000000000001,0.012,-0.02,4.38,0.0,,29.53,29.115,0.0
2025-08-14T22:03:32.477Z,1,GR86-015-31,6.300000000000001,0.013,-0.017,4.37,0.0,,29.53,29.145,
2025-08-14T22:03:32.519Z,1,GR86-015-31,6.300000000000001,0.009,-0.021,4.37,0.0,,29.56,29.085,
2025-08-14T22:03:32.562Z,1,GR86-015-31,6.2,0.013,-0.013,4.38,0.0,,29.465,29.175,
2025-08-14T22:03:32.607Z,1,GR86-015-31,6.300000000000001,0.01,-0.015,4.38,0.0,1024.0,29.3,29.085,
2025-08-14T22:03:32.650Z,1,GR86-015-31,6.2,0.015,-0.017,4.38,0.0,,29.435,29.21,0.0
2025-08-14T22:03:32.694Z,1,GR86-015-31,6.300000000000001,0.01,-0.015,4.4,0.0,,29.3,29.115,
2025-08-14T22:03:32.737Z,1,GR86-015-31,6.300000000000001,0.012,-0.019,4.39,0.0,,29.21,29.115,
2025-08-14T22:03:32.780Z,1,GR86-015-31,6.300000000000001,0.011,-0.022,4.39,0.0,,29.21,29.175,
2025-08-14T22:03:32.823Z,1,GR86-015-31,6.300000000000001,0.013,-0.013,4.39,0.0,1026.0,29.21,29.085,
2025-08-14T22:03:32.867Z,1,GR86-015-31,6.300000000000001,0.013,-0.017,4.38,0.0,,29.21,29.085,0.0
2025-08-14T22:03:32.910Z,1,GR86-015-31,6.300000000000001,0.012,-0.014,4.39,0.0,,28.995,29.085,
2025-08-14T22:03:32.953Z,1,GR86-015-31,6.300000000000001,0.012,-0.013,4.38,0.0,,28.995,29.085,
2025-08-14T22:03:32.998Z,1,GR86-015-31,6.2,0.014,-0.017,4.39,0.0,,29.21,29.085,
2025-08-14T22:03:33.041Z,1,GR86-015-31,6.300000000000001,0.009,-0.018,4.39,0.0,1024.0,29.055,29.085,
2025-08-14T22:03:33.087Z,1,GR86-015-31,6.2,0.013,-0.02,4.39,0.0,,28.87,29.085,0.0
2025-08-14T22:03:33.130Z,1,GR86-015-31,6.300000000000001,0.013,-0.017,4.4,0.0,,29.025,29.115,
2025-08-14T22:03:33.173Z,1,GR86-015-31,6.300000000000001,0.013,-0.014,4.39,0.0,,28.9,29.085,
2025-08-14T22:03:33.217Z,1,GR86-015-31,6.300000000000001,0.011,-0.02,4.39,0.0,,28.9,29.085,
2025-08-14T22:03:33.259Z,1,GR86-015-31,6.300000000000001,0.008,-0.016,4.39,0.0,1018.0,28.935,29.085,
2025-08-14T22:03:33.302Z,1,GR86-015-31,6.300000000000001,0.013,-0.017,4.39,0.0,,28.87,29.085,0.0
2025-08-14T22:03:33.347Z,1,GR86-015-31,6.300000000000001,0.012,-0.015,4.4,0.0,,28.935,29.085,
2025-08-14T22:03:33.390Z,1,GR86-015-31,6.300000000000001,0.01,-0.015,4.39,0.0,,28.87,29.085,
2025-08-14T22:03:33.433Z,1,GR86-015-31,6.300000000000001,0.012,-0.017,4.39,0.0,,28.87,29.085,
2025-08-14T22:03:33.477Z,1,GR86-015-31,6.300000000000001,0.011,-0.022,4.4,0.0,1030.0,28.935,29.085,
2025-08-14T22:03:33.519Z,1,GR86-015-31,6.2,0.012,-0.012,4.39,0.0,,28.87,29.085,0.0
2025-08-14T22:03:33.562Z,1,GR86-015-31,6.300000000000001,0.013,-0.017,4.39,0.0,,28.87,29.085,
2025-08-14T22:03:33.607Z,1,GR86-015-31,6.300000000000001,0.01,-0.014,4.39,0.0,,28.87,29.085,
2025-08-14T22:03:33.650Z,1,GR86-015-31,6.300000000000001,0.012,-0.016,4.39,0.0,,28.87,29.025,
2025-08-14T22:03:33.693Z,1,GR86-015-31,6.300000000000001,0.012,-0.018,4.4,0.0,1030.0,28.87,29.085,
2025-08-14T22:03:33.737Z,1,GR86-015-31,6.300000000000001,0.013,-0.016,4.39,0.0,,28.87,29.085,0.0
2025-08-14T22:03:33.780Z,1,GR86-015-31,6.300000000000001,0.013,-0.017,4.39,0.0,,28.87,29.025,
2025-08-14T22:03:33.823Z,1,GR86-015-31,6.300000000000001,0.014,-0.019,4.4,0.0,,28.87,28.995,
2025-08-14T22:03:33.910Z,1,GR86-015-31,6.300000000000001,0.012,-0.011,4.39,0.0,1032.0,28.87,29.085,
2025-08-14T22:03:33.953Z,1,GR86-015-31,6.300000000000001,0.007,-0.017,4.39,0.0,,28.87,28.935,0.0
2025-08-14T22:03:33.998Z,1,GR86-015-31,6.300000000000001,0.014,-0.013,4.4,0.0,,28.75,28.995,
2025-08-14T22:03:34.041Z,1,GR86-015-31,6.300000000000001,0.011,-0.019,4.39,0.0,,28.84,28.84,
2025-08-14T22:03:34.088Z,1,GR86-015-31,6.300000000000001,0.011,-0.013,4.4,0.0,,28.84,29.025,
2025-08-14T22:03:34.131Z,1,GR86-015-31,6.300000000000001,0.013,-0.016,4.39,0.0,1034.0,28.87,28.81,
2025-08-14T22:03:34.174Z,1,GR86-015-31,6.300000000000001,0.011,-0.015,4.39,0.0,,28.645,28.81,0.0
2025-08-14T22:03:34.217Z,1,GR86-015-31,6.300000000000001,0.012,-0.014,4.4,0.0,,28.75,29.025,
2025-08-14T22:03:34.260Z,1,GR86-015-31,6.300000000000001,0.012,-0.015,4.4,0.0,,28.72,28.84,
2025-08-14T22:03:34.303Z,1,GR86-015-31,6.300000000000001,0.013,-0.018,4.4,0.0,,28.52,28.75,
2025-08-14T22:03:34.348Z,1,GR86-015-31,6.300000000000001,0.011,-0.012,4.4,0.0,1035.0,28.52,28.75,
2025-08-14T22:03:34.390Z,1,GR86-015-31,6.300000000000001,0.014,-0.017,4.4,0.0,,28.52,28.72,0.0
2025-08-14T22:03:34.433Z,1,GR86-015-31,6.300000000000001,0.012,-0.017,4.39,0.0,,28.58,28.72,
2025-08-14T22:03:34.477Z,1,GR86-015-31,6.300000000000001,0.013,-0.016,4.4,0.0,,28.52,28.75,
2025-08-14T22:03:34.520Z,1,GR86-015-31,6.300000000000001,0.012,-0.019,4.39,0.0,,28.52,28.72,
2025-08-14T22:03:34.563Z,1,GR86-015-31,6.300000000000001,0.011,-0.014,4.39,0.0,1035.0,28.55,28.72,
2025-08-14T22:03:34.608Z,1,GR86-015-31,6.300000000000001,0.01,-0.012,4.39,0.0,,28.52,28.72,0.0
2025-08-14T22:03:34.650Z,1,GR86-015-31,6.300000000000001,0.012,-0.02,4.39,0.0,,28.52,28.72,
2025-08-14T22:03:34.693Z,1,GR86-015-31,6.300000000000001,0.012,-0.008,4.4,0.0,,28.52,28.75,
2025-08-14T22:03:34.737Z,1,GR86-015-31,6.2,0.012,-0.022,4.4,0.0,,28.52,28.72,
2025-08-14T22:03:34.780Z,1,GR86-015-31,6.300000000000001,0.011,-0.015,4.4,0.0,1030.0,28.52,28.72,
2025-08-14T22:03:34.823Z,1,GR86-015-31,6.300000000000001,0.015,-0.016,4.39,0.0,,28.52,28.72,0.0
2025-08-14T22:03:34.867Z,1,GR86-015-31,6.300000000000001,0.011,-0.014,4.4,0.0,,28.52,28.72,
2025-08-14T22:03:34.910Z,1,GR86-015-31,6.300000000000001,0.013,-0.012,4.39,0.0,,28.55,28.72,
2025-08-14T22:03:34.953Z,1,GR86-015-31,6.300000000000001,0.012,-0.015,4.4,0.0,,28.52,28.72,
2025-08-14T22:03:34.998Z,1,GR86-015-31,6.300000000000001,0.012,-0.018,4.39,0.0,1027.0,28.52,28.72,
2025-08-14T22:03:35.041Z,1,GR86-015-31,6.300000000000001,0.016,-0.015,4.38,0.0,,28.52,28.72,0.0
2025-08-14T22:03:35.087Z,1,GR86-015-31,6.300000000000001,0.013,-0.018,4.39,0.0,,28.52,28.72,
2025-08-14T22:03:35.130Z,1,GR86-015-31,6.300000000000001,0.01,-0.016,4.39,0.0,,28.52,28.72,
2025-08-14T22:03:35.173Z,1,GR86-015-31,6.300000000000001,0.01,-0.013,4.39,0.0,,28.52,28.72,
2025-08-14T22:03:35.217Z,1,GR86-015-31,6.300000000000001,0.01,-0.02,4.39,0.0,1029.0,28.46,28.72,
2025-08-14T22:03:35.259Z,1,GR86-015-31,6.300000000000001,0.012,-0.007,4.4,0.0,,28.46,28.72,0.0
2025-08-14T22:03:35.302Z,1,GR86-015-31,6.300000000000001,0.015,-0.018,4.39,0.0,,28.52,28.72,
2025-08-14T22:03:35.347Z,1,GR86-015-31,6.300000000000001,0.014,-0.011,4.7700000000000005,0.0,,28.46,28.72,
2025-08-14T22:03:35.390Z,1,GR86-015-31,6.300000000000001,0.012,-0.018,6.03,0.0,,28.52,28.72,
2025-08-14T22:03:35.433Z,1,GR86-015-31,6.300000000000001,0.012,-0.014,7.33,0.0,1035.0,28.52,28.72,
2025-08-14T22:03:35.477Z,1,GR86-015-31,6.300000000000001,0.012,-0.01,8.08,0.0,,28.43,28.72,0.0
2025-08-14T22:03:35.519Z,1,GR86-015-31,6.300000000000001,0.014,-0.019,8.08,0.0,,28.46,28.645,
2025-08-14T22:03:35.562Z,1,GR86-015-31,6.300000000000001,0.013,-0.011,8.09,0.0,,28.34,28.72,
2025-08-14T22:03:35.606Z,1,GR86-015-31,6.300000000000001,0.012,-0.025,8.09,0.0,,28.185,28.69,
2025-08-14T22:03:35.650Z,1,GR86-015-31,6.300000000000001,0.01,-0.007,8.09,0.0,972.0,28.34,28.72,
2025-08-14T22:03:35.694Z,1,GR86-015-31,6.300000000000001,0.013,-0.018,8.08,0.0,,28.245,28.69,0.0
2025-08-14T22:03:35.737Z,1,GR86-015-31,6.300000000000001,0.016,-0.015,8.09,0.0,,28.37,28.69,
2025-08-14T22:03:35.780Z,1,GR86-015-31,6.300000000000001,0.008,-0.015,8.09,0.0,,28.185,28.69,
2025-08-14T22:03:35.823Z,1,GR86-015-31,6.300000000000001,0.015,-0.019,8.08,0.0,,28.155,28.645,
2025-08-14T22:03:35.867Z,1,GR86-015-31,6.300000000000001,0.019,-0.023,8.08,0.0,641.0,28.34,28.615,
2025-08-14T22:03:35.910Z,1,GR86-015-31,6.300000000000001,0.006,-0.003,8.06,0.0,,28.155,28.645,0.0
2025-08-14T22:03:35.953Z,1,GR86-015-31,6.300000000000001,0.018,-0.036,8.08,0.0,,28.155,28.69,
2025-08-14T22:03:35.999Z,1,GR86-015-31,6.300000000000001,0.0,0.021,8.08,0.0,,28.185,28.58,
2025-08-14T22:03:36.041Z,1,GR86-015-31,6.300000000000001,0.023,-0.068,8.05,0.0,,28.155,28.69,
2025-08-14T22:03:36.087Z,1,GR86-015-31,6.300000000000001,0.012,0.064,8.02,0.0,318.0,28.155,28.52,
2025-08-14T22:03:36.130Z,1,GR86-015-31,6.300000000000001,0.017,-0.081,8.05,0.0,,28.185,28.72,0.0
2025-08-14T22:03:36.173Z,1,GR86-015-31,6.300000000000001,0.009,0.001,8.040000000000001,0.0,,28.155,28.58,
2025-08-14T22:03:36.217Z,1,GR86-015-31,6.300000000000001,0.019,-0.014,8.02,0.0,,28.155,28.55,
2025-08-14T22:03:36.259Z,1,GR86-015-31,6.300000000000001,0.007,-0.045,8.01,0.0,,28.155,28.645,
2025-08-14T22:03:36.347Z,1,GR86-015-31,6.300000000000001,0.019,0.019,7.99,0.0,318.0,28.155,28.46,0.0
2025-08-14T22:03:36.390Z,1,GR86-015-31,6.300000000000001,0.015,-0.008,7.99,0.0,,28.155,28.46,
2025-08-14T22:03:36.433Z,1,GR86-015-31,6.300000000000001,0.011,-0.022,7.98,0.0,,28.155,28.52,
2025-08-14T22:03:36.477Z,1,GR86-015-31,6.300000000000001,0.015,-0.026,7.99,0.0,,28.155,28.49,
2025-08-14T22:03:36.519Z,1,GR86-015-31,6.300000000000001,0.01,-0.025,7.99,0.0,318.0,28.125,28.58,
2025-08-14T22:03:36.562Z,1,GR86-015-31,6.300000000000001,0.015,-0.012,7.99,0.0,,28.155,28.46,0.0
2025-08-14T22:03:36.606Z,1,GR86-015-31,6.300000000000001,0.011,-0.001,7.99,0.0,,28.155,28.69,
2025-08-14T22:03:36.649Z,1,GR86-015-31,6.300000000000001,0.013,-0.006,7.99,0.0,,28.155,28.49,
2025-08-14T22:03:36.692Z,1,GR86-015-31,6.300000000000001,0.012,-0.012,7.99,0.0,,28.155,28.46,
2025-08-14T22:03:36.736Z,1,GR86-015-31,6.300000000000001,0.011,-0.018,7.99,0.0,0.0,28.155,28.615,
2025-08-14T22:03:36.779Z,1,GR86-015-31,6.300000000000001,0.014,-0.02,7.99,0.0,,28.155,28.4,0.0
2025-08-14T22:03:36.822Z,1,GR86-015-31,6.300000000000001,0.012,-0.026,7.99,0.0,,28.155,28.49,
2025-08-14T22:03:36.866Z,1,GR86-015-31,6.300000000000001,0.015,-0.014,7.99,0.0,,28.155,28.49,
2025-08-14T22:03:36.909Z,1,GR86-015-31,6.300000000000001,0.011,-0.009,8.0,0.0,,28.095,28.49,
2025-08-14T22:03:36.952Z,1,GR86-015-31,6.300000000000001,0.011,-0.007,7.99,0.0,0.0,28.155,28.4,
2025-08-14T22:03:36.995Z,1,GR86-015-31,6.300000000000001,0.013,-0.013,7.99,0.0,,28.125,28.46,0.0
2025-08-14T22:03:37.038Z,1,GR86-015-31,6.300000000000001,0.01,-0.015,7.99,0.0,,28.065,28.37,
2025-08-14T22:03:37.081Z,1,GR86-015-31,6.2,0.01,-0.021,7.99,0.0,,28.155,28.37,
2025-08-14T22:03:37.126Z,1,GR86-015-31,6.300000000000001,0.012,-0.023,7.99,0.0,,27.97,28.43,
2025-08-14T22:03:37.168Z,1,GR86-015-31,6.300000000000001,0.014,-0.014,7.99,0.0,0.0,27.805,28.37,
2025-08-14T22:03:37.211Z,1,GR86-015-31,6.300000000000001,0.011,-0.011,7.99,0.0,,27.085,27.835,0.0
2025-08-14T22:03:37.254Z,1,GR86-015-31,6.300000000000001,0.01,-0.009,7.99,0.0,,24.89,26.295,
2025-08-14T22:03:37.298Z,1,GR86-015-31,6.300000000000001,0.011,-0.014,7.99,0.0,,21.655,23.21,
2025-08-14T22:03:37.341Z,1,GR86-015-31,6.300000000000001,0.012,-0.013,7.99,0.0,,16.495,17.84,
2025-08-14T22:03:37.384Z,1,GR86-015-31,6.2,0.013,-0.022,7.99,0.0,0.0,5.965,6.575,
2025-08-14T22:03:37.430Z,1,GR86-015-31,6.300000000000001,0.013,-0.015,7.99,0.0,,0.0,0.0,0.0
2025-08-14T22:03:37.473Z,1,GR86-015-31,6.300000000000001,0.012,-0.017,7.98,0.0,,0.0,0.0,
2025-08-14T22:03:37.517Z,1,GR86-015-31,6.300000000000001,0.011,-0.011,7.99,0.0,,0.0,0.0,
2025-08-14T22:03:37.559Z,1,GR86-015-31,6.300000000000001,0.01,-0.012,7.99,0.0,,0.0,0.0,
2025-08-14T22:03:37.602Z,1,GR86-015-31,6.300000000000001,0.012,-0.011,7.99,0.0,0.0,0.0,0.0,
2025-08-14T22:03:37.647Z,1,GR86-015-31,6.2,0.013,-0.016,7.99,0.0,,0.0,0.0,0.0
2025-08-14T22:03:37.690Z,1,GR86-015-31,6.300000000000001,0.016,-0.02,8.0,0.0,,0.0,0.0,
2025-08-14T22:03:37.733Z,1,GR86-015-31,6.300000000000001,0.01,-0.019,8.0,0.0,,0.0,0.0,
2025-08-14T22:03:37.777Z,1,GR86-015-31,6.300000000000001,0.011,-0.02,7.99,0.0,,0.0,0.0,
2025-08-14T22:03:37.819Z,1,GR86-015-31,6.300000000000001,0.012,-0.014,8.0,0.0,0.0,0.0,0.0,
2025-08-14T22:03:37.862Z,1,GR86-015-31,6.300000000000001,0.012,-0.011,7.99,0.0,,0.0,0.0,0.0
2025-08-14T22:03:37.907Z,1,GR86-015-31,6.300000000000001,0.011,-0.01,7.99,0.0,,0.0,0.0,
2025-08-14T22:03:37.950Z,1,GR86-015-31,6.300000000000001,0.018,-0.017,7.99,0.0,,0.0,0.0,
2025-08-14T22:03:37.993Z,1,GR86-015-31,6.300000000000001,0.011,-0.017,7.99,0.0,,0.0,0.0,
2025-08-14T22:03:38.037Z,1,GR86-015-31,6.300000000000001,0.012,-0.021,7.99,0.0,0.0,0.0,0.0,
2025-08-14T22:03:38.079Z,1,GR86-015-31,6.300000000000001,0.014,-0.021,8.0,0.0,,0.0,0.0,0.0
2025-08-14T22:03:38.122Z,1,GR86-015-31,6.300000000000001,0.008,-0.011,7.99,0.0,,0.0,0.0,
2025-08-14T22:03:38.166Z,1,GR86-015-31,6.300000000000001,0.015,-0.011,8.0,0.0,,0.0,0.0,
2025-08-14T22:03:38.208Z,1,GR86-015-31,6.300000000000001,0.006,-0.012,7.99,0.0,,0.0,0.0,
2025-08-14T22:03:38.251Z,1,GR86-015-31,6.300000000000001,0.007,-0.021,7.99,0.0,0.0,0.0,0.0,
2025-08-14T22:03:38.294Z,1,GR86-015-31,6.300000000000001,0.013,-0.02,7.99,1.0,,0.0,0.0,0.0
2025-08-14T22:03:38.337Z,1,GR86-015-31,6.300000000000001,0.0,-0.016,7.99,1.0,,0.0,0.0,
2025-08-14T22:03:38.380Z,1,GR86-015-31,6.300000000000001,0.016,-0.014,7.99,1.0,,0.0,0.0,
2025-08-14T22:03:38.423Z,1,GR86-015-31,6.300000000000001,0.011,-0.019,7.99,1.0,,0.0,0.0,
2025-08-14T22:03:38.467Z,1,GR86-015-31,6.300000000000001,0.012,-0.01,8.0,1.0,0.0,0.0,0.0,
2025-08-14T22:03:38.510Z,1,GR86-015-31,6.300000000000001,0.012,-0.012,7.99,1.0,,0.0,0.0,0.0
2025-08-14T22:03:38.553Z,1,GR86-015-31,6.300000000000001,0.011,-0.016,7.99,1.0,,0.0,0.0,
2025-08-14T22:03:38.598Z,1,GR86-015-31,6.300000000000001,0.015,-0.017,8.0,1.0,,0.0,0.0,
2025-08-14T22:03:38.641Z,1,GR86-015-31,6.300000000000001,0.009,-0.012,7.99,1.0,,0.0,0.0,
2025-08-14T22:03:38.687Z,1,GR86-015-31,6.300000000000001,0.011,-0.019,8.0,1.0,0.0,0.0,0.0,
2025-08-14T22:03:38.730Z,1,GR86-015-31,6.300000000000001,0.008,-0.009,7.99,1.0,,0.0,0.0,0.0
2025-08-14T22:03:38.773Z,1,GR86-015-31,6.300000000000001,0.014,-0.014,7.99,1.0,,0.0,0.0,
2025-08-14T22:03:38.817Z,1,GR86-015-31,6.300000000000001,0.017,-0.016,7.99,1.0,,0.0,0.0,
2025-08-14T22:03:38.859Z,1,GR86-015-31,6.300000000000001,0.012,-0.017,8.0,1.0,,0.0,0.0,
2025-08-14T22:03:38.902Z,1,GR86-015-31,6.300000000000001,0.013,-0.017,7.99,1.0,0.0,0.0,0.0,
2025-08-14T22:03:38.946Z,1,GR86-015-31,6.300000000000001,0.017,-0.015,7.99,1.0,,0.0,0.0,0.0
2025-08-14T22:03:38.990Z,1,GR86-015-31,6.300000000000001,0.014,-0.011,8.0,1.0,,0.0,0.0,
2025-08-14T22:03:39.033Z,1,GR86-015-31,6.300000000000001,0.011,-0.012,8.0,1.0,,0.0,0.0,
2025-08-14T22:03:39.077Z,1,GR86-015-31,6.300000000000001,0.01,-0.017,8.0,1.0,,0.0,0.0,
2025-08-14T22:03:39.119Z,1,GR86-015-31,6.300000000000001,0.009,-0.018,8.0,1.0,0.0,0.0,0.0,
2025-08-14T22:03:39.162Z,1,GR86-015-31,6.300000000000001,0.008,-0.015,7.99,1.0,,0.0,0.0,0.0
2025-08-14T22:03:39.206Z,1,GR86-015-31,6.300000000000001,0.011,-0.017,7.99,1.0,,0.0,0.0,
2025-08-14T22:03:39.250Z,1,GR86-015-31,6.300000000000001,0.012,-0.017,7.99,1.0,,0.0,0.0,
2025-08-14T22:03:39.293Z,1,GR86-015-31,6.300000000000001,0.016,-0.014,8.01,1.0,,0.0,0.0,
2025-08-14T22:03:39.337Z,1,GR86-015-31,6.300000000000001,0.014,-0.015,8.0,1.0,0.0,0.0,0.0,
2025-08-14T22:03:39.379Z,1,GR86-015-31,6.300000000000001,0.012,-0.013,8.0,1.0,,0.0,0.0,0.0
2025-08-14T22:03:39.422Z,1,GR86-015-31,6.300000000000001,0.012,-0.013,7.99,1.0,,0.0,0.0,
2025-08-14T22:03:39.466Z,1,GR86-015-31,6.300000000000001,0.008,-0.02,8.0,1.0,,0.0,0.0,
2025-08-14T22:03:39.510Z,1,GR86-015-31,6.300000000000001,0.01,-0.013,8.0,1.0,,0.0,0.0,
2025-08-14T22:03:39.553Z,1,GR86-015-31,6.300000000000001,0.009,-0.019,7.99,1.0,0.0,0.0,0.0,
2025-08-14T22:03:39.598Z,1,GR86-015-31,6.300000000000001,0.012,-0.013,7.99,1.0,,0.0,0.0,0.0
2025-08-14T22:03:39.641Z,1,GR86-015-31,6.300000000000001,0.011,-0.017,7.99,1.0,,0.0,0.0,
2025-08-14T22:03:39.687Z,1,GR86-015-31,6.300000000000001,0.015,-0.015,8.0,1.0,,0.0,0.0,
2025-08-14T22:03:39.730Z,1,GR86-015-31,6.300000000000001,0.014,-0.015,7.99,1.0,,0.0,0.0,
2025-08-14T22:03:39.773Z,1,GR86-015-31,6.300000000000001,0.011,-0.012,8.0,1.0,0.0,0.0,0.0,
2025-08-14T22:03:39.817Z,1,GR86-015-31,6.2,0.011,-0.014,8.0,1.0,,0.0,0.0,0.0
2025-08-14T22:03:39.859Z,1,GR86-015-31,6.2,0.014,-0.02,8.0,1.0,,0.0,0.0,
2025-08-14T22:03:39.902Z,1,GR86-015-31,6.300000000000001,0.01,-0.016,7.99,1.0,,0.0,0.0,
2025-08-14T22:03:39.947Z,1,GR86-015-31,6.300000000000001,0.012,-0.016,8.0,1.0,,0.0,0.0,
2025-08-14T22:03:39.990Z,1,GR86-015-31,6.300000000000001,0.012,-0.014,7.99,1.0,0.0,0.0,0.0,
2025-08-14T22:03:40.033Z,1,GR86-015-31,6.300000000000001,0.014,-0.014,7.99,1.0,,0.0,0.0,0.0
2025-08-14T22:03:40.077Z,1,GR86-015-31,6.300000000000001,0.011,-0.013,7.99,1.0,,0.0,0.0,
2025-08-14T22:03:40.119Z,1,GR86-015-31,6.300000000000001,0.013,-0.016,8.0,1.0,,0.0,0.0,
2025-08-14T22:03:40.162Z,1,GR86-015-31,6.300000000000001,0.011,-0.015,8.0,1.0,,0.0,0.0,
2025-08-14T22:03:40.206Z,1,GR86-015-31,6.300000000000001,0.01,-0.015,7.99,1.0,0.0,0.0,0.0,
2025-08-14T22:03:40.250Z,1,GR86-015-31,6.300000000000001,0.009,-0.017,8.01,1.0,,0.0,0.0,0.0
2025-08-14T22:03:40.293Z,1,GR86-015-31,6.300000000000001,0.012,-0.014,7.99,1.0,,0.0,0.0,
2025-08-14T22:03:40.337Z,1,GR86-015-31,6.300000000000001,0.014,-0.017,8.0,1.0,,0.0,0.0,
2025-08-14T22:03:40.379Z,1,GR86-015-31,6.300000000000001,0.013,-0.015,8.0,1.0,,0.0,0.0,
2025-08-14T22:03:40.422Z,1,GR86-015-31,6.300000000000001,0.013,-0.015,8.0,1.0,0.0,0.0,0.0,
2025-08-14T22:03:40.467Z,1,GR86-015-31,6.300000000000001,0.01,-0.013,8.0,1.0,,0.0,0.0,0.0
2025-08-14T22:03:40.510Z,1,GR86-015-31,6.300000000000001,0.01,-0.018,7.99,1.0,,0.0,0.0,
2025-08-14T22:03:40.553Z,1,GR86-015-31,6.300000000000001,0.011,-0.015,7.99,1.0,,0.0,0.0,
2025-08-14T22:03:40.598Z,1,GR86-015-31,6.300000000000001,0.012,-0.016,7.99,1.0,,0.0,0.0,
2025-08-14T22:03:40.641Z,1,GR86-015-31,6.300000000000001,0.012,-0.015,7.99,1.0,0.0,0.0,0.0,
2025-08-14T22:03:40.687Z,1,GR86-015-31,6.300000000000001,0.013,-0.015,8.0,1.0,,0.0,0.0,0.0
2025-08-14T22:03:40.730Z,1,GR86-015-31,6.300000000000001,0.012,-0.016,8.0,1.0,,0.0,0.0,
2025-08-14T22:03:40.773Z,1,GR86-015-31,6.300000000000001,0.011,-0.015,8.0,1.0,,0.0,0.0,
2025-08-14T22:03:40.817Z,1,GR86-015-31,6.300000000000001,0.012,-0.019,8.0,1.0,,0.0,0.0,
2025-08-14T22:03:40.859Z,1,GR86-015-31,6.300000000000001,0.012,-0.015,8.0,1.0,0.0,0.0,0.0,
2025-08-14T22:03:40.902Z,1,GR86-015-31,6.300000000000001,0.012,-0.016,7.99,1.0,,0.0,0.0,0.0
2025-08-14T22:03:40.947Z,1,GR86-015-31,6.300000000000001,0.014,-0.014,8.0,1.0,,0.0,0.0,
2025-08-14T22:03:40.990Z,1,GR86-015-31,6.300000000000001,0.013,-0.016,7.99,1.0,,0.0,0.0,
2025-08-14T22:03:41.033Z,1,GR86-015-31,6.2,0.011,-0.015,7.99,1.0,,0.0,0.0,
2025-08-14T22:03:41.077Z,1,GR86-015-31,6.300000000000001,0.012,-0.017,8.0,1.0,0.0,0.0,0.0,
2025-08-14T22:03:41.119Z,1,GR86-015-31,6.300000000000001,0.012,-0.018,8.0,1.0,,0.0,0.0,0.0
2025-08-14T22:03:41.162Z,1,GR86-015-31,6.300000000000001,0.012,-0.017,7.99,1.0,,0.0,0.0,
2025-08-14T22:03:41.207Z,1,GR86-015-31,6.300000000000001,0.013,-0.013,7.99,1.0,,0.0,0.0,
2025-08-14T22:03:41.250Z,1,GR86-015-31,6.300000000000001,0.014,-0.017,7.99,1.0,,0.0,0.0,
2025-08-14T22:03:41.293Z,1,GR86-015-31,6.300000000000001,0.01,-0.014,7.99,1.0,0.0,0.0,0.0,
2025-08-14T22:03:41.337Z,1,GR86-015-31,6.300000000000001,0.01,-0.016,8.0,1.0,,0.0,0.0,0.0
2025-08-14T22:03:41.379Z,1,GR86-015-31,6.300000000000001,0.011,-0.018,8.0,1.0,,0.0,0.0,
2025-08-14T22:03:41.422Z,1,GR86-015-31,6.300000000000001,0.011,-0.016,8.0,1.0,,0.0,0.0,
2025-08-14T22:03:41.466Z,1,GR86-015-31,6.300000000000001,0.014,-0.016,7.99,1.0,,0.0,0.0,
2025-08-14T22:03:41.510Z,1,GR86-015-31,6.300000000000001,0.014,-0.017,7.99,1.0,0.0,0.0,0.0,
2025-08-14T22:03:41.553Z,1,GR86-015-31,6.300000000000001,0.011,-0.013,7.99,1.0,,0.0,0.0,0.0
2025-08-14T22:03:41.598Z,1,GR86-015-31,6.300000000000001,0.012,-0.015,8.0,1.0,,0.0,0.0,
2025-08-14T22:03:41.641Z,1,GR86-015-31,6.300000000000001,0.012,-0.016,7.99,1.0,,0.0,0.0,
2025-08-14T22:03:41.687Z,1,GR86-015-31,6.300000000000001,0.011,-0.016,7.99,1.0,,0.0,0.0,
2025-08-14T22:03:41.730Z,1,GR86-015-31,6.300000000000001,0.011,-0.016,7.99,1.0,0.0,0.0,0.0,
2025-08-14T22:03:41.773Z,1,GR86-015-31,6.300000000000001,0.01,-0.014,8.0,1.0,,0.0,0.0,0.0
2025-08-14T22:03:41.817Z,1,GR86-015-31,6.300000000000001,0.014,-0.012,7.99,1.0,,0.0,0.0,
2025-08-14T22:03:41.859Z,1,GR86-015-31,6.300000000000001,0.013,-0.017,8.01,1.0,,0.0,0.0,
2025-08-14T22:03:41.902Z,1,GR86-015-31,6.300000000000001,0.012,-0.016,8.0,1.0,,0.0,0.0,
2025-08-14T22:03:41.946Z,1,GR86-015-31,6.300000000000001,0.013,-0.016,8.0,1.0,0.0,0.0,0.0,
2025-08-14T22:03:41.990Z,1,GR86-015-31,6.300000000000001,0.011,-0.019,7.99,1.0,,0.0,0.0,0.0
2025-08-14T22:03:42.033Z,1,GR86-015-31,6.300000000000001,0.013,-0.018,8.0,1.0,,0.0,0.0,
2025-08-14T22:03:42.077Z,1,GR86-015-31,6.2,0.011,-0.017,8.0,1.0,,0.0,0.0,
2025-08-14T22:03:42.119Z,1,GR86-015-31,6.300000000000001,0.013,-0.014,8.0,1.0,,0.0,0.0,
2025-08-14T22:03:42.162Z,1,GR86-015-31,6.300000000000001,0.011,-0.016,7.99,1.0,0.0,0.0,0.0,
2025-08-14T22:03:42.206Z,1,GR86-015-31,6.300000000000001,0.011,-0.017,8.0,1.0,,0.0,0.0,0.0
2025-08-14T22:03:42.250Z,1,GR86-015-31,6.300000000000001,0.013,-0.017,8.0,1.0,,0.0,0.0,
2025-08-14T22:03:42.294Z,1,GR86-015-31,6.300000000000001,0.01,-0.013,8.0,1.0,,0.0,0.0,
2025-08-14T22:03:42.337Z,1,GR86-015-31,6.300000000000001,0.014,-0.017,8.0,1.0,,0.0,0.0,
2025-08-14T22:03:42.380Z,1,GR86-015-31,6.300000000000001,0.01,-0.014,8.0,1.0,0.0,0.0,0.0,
2025-08-14T22:03:42.423Z,1,GR86-015-31,6.300000000000001,0.013,-0.014,8.0,1.0,,0.0,0.0,0.0
2025-08-14T22:03:42.467Z,1,GR86-015-31,6.300000000000001,0.011,-0.016,8.0,1.0,,0.0,0.0,
2025-08-14T22:03:42.510Z,1,GR86-015-31,6.300000000000001,0.011,-0.017,8.0,1.0,,0.0,0.0,
2025-08-14T22:03:42.553Z,1,GR86-015-31,6.300000000000001,0.012,-0.017,8.0,1.0,,0.0,0.0,
2025-08-14T22:03:42.598Z,1,GR86-015-31,6.300000000000001,0.01,-0.015,7.99,1.0,0.0,0.0,0.0,
2025-08-14T22:03:42.641Z,1,GR86-015-31,6.300000000000001,0.014,-0.016,8.0,1.0,,0.0,0.0,0.0
2025-08-14T22:03:42.687Z,1,GR86-015-31,6.300000000000001,0.012,-0.013,7.99,1.0,,0.0,0.0,
2025-08-14T22:03:42.730Z,1,GR86-015-31,6.300000000000001,0.012,-0.014,7.99,1.0,,0.0,0.0,
2025-08-14T22:03:42.773Z,1,GR86-015-31,6.300000000000001,0.011,-0.014,8.0,1.0,,0.0,0.0,
2025-08-14T22:03:42.817Z,1,GR86-015-31,6.300000000000001,0.01,-0.016,7.99,1.0,0.0,0.0,0.0,
2025-08-14T22:03:42.859Z,1,GR86-015-31,6.300000000000001,0.011,-0.015,8.0,1.0,,0.0,0.0,0.0
2025-08-14T22:03:42.902Z,1,GR86-015-31,6.300000000000001,0.012,-0.016,7.99,1.0,,0.0,0.0,
2025-08-14T22:03:42.947Z,1,GR86-015-31,6.300000000000001,0.014,-0.015,7.99,1.0,,0.0,0.0,
2025-08-14T22:03:42.990Z,1,GR86-015-31,6.300000000000001,0.011,-0.014,7.99,1.0,,0.0,0.0,
2025-08-14T22:03:43.033Z,1,GR86-015-31,6.300000000000001,0.012,-0.016,8.0,1.0,0.0,0.0,0.0,
2025-08-14T22:03:43.077Z,1,GR86-015-31,6.300000000000001,0.013,-0.012,7.99,1.0,,0.0,0.0,0.0
2025-08-14T22:03:43.119Z,1,GR86-015-31,6.300000000000001,0.012,-0.018,7.99,1.0,,0.0,0.0,
2025-08-14T22:03:43.162Z,1,GR86-015-31,6.300000000000001,0.012,-0.016,8.0,1.0,,0.0,0.0,
2025-08-14T22:03:43.207Z,1,GR86-015-31,6.300000000000001,0.01,-0.018,7.99,1.0,,0.0,0.0,
2025-08-14T22:03:43.250Z,1,GR86-015-31,6.300000000000001,0.01,-0.013,7.99,1.0,0.0,0.0,0.0,
2025-08-14T22:03:43.293Z,1,GR86-015-31,6.300000000000001,0.012,-0.016,7.99,1.0,,0.0,0.0,0.0
2025-08-14T22:03:43.337Z,1,GR86-015-31,6.300000000000001,0.01,-0.014,8.0,1.0,,0.0,0.0,
2025-08-14T22:03:43.379Z,1,GR86-015-31,6.300000000000001,0.013,-0.013,8.0,1.0,,0.0,0.0,
2025-08-14T22:03:43.422Z,1,GR86-015-31,6.300000000000001,0.013,-0.016,8.01,1.0,,0.0,0.0,
2025-08-14T22:03:43.467Z,1,GR86-015-31,6.300000000000001,0.013,-0.016,8.0,1.0,0.0,0.0,0.0,
2025-08-14T22:03:43.510Z,1,GR86-015-31,6.300000000000001,0.015,-0.014,7.99,1.0,,0.0,0.0,0.0
2025-08-14T22:03:43.553Z,1,GR86-015-31,6.300000000000001,0.015,-0.014,7.99,1.0,,0.0,0.0,
2025-08-14T22:03:43.598Z,1,GR86-015-31,6.300000000000001,0.009,-0.015,7.99,1.0,,0.0,0.0,
2025-08-14T22:03:43.641Z,1,GR86-015-31,6.300000000000001,0.01,-0.015,7.99,1.0,,0.0,0.0,
2025-08-14T22:03:43.687Z,1,GR86-015-31,6.300000000000001,0.009,-0.015,8.0,1.0,0.0,0.0,0.0,
2025-08-14T22:03:43.730Z,1,GR86-015-31,6.300000000000001,0.012,-0.014,8.0,1.0,,0.0,0.0,0.0
2025-08-14T22:03:43.773Z,1,GR86-015-31,6.300000000000001,0.014,-0.016,7.99,1.0,,0.0,0.0,
2025-08-14T22:03:43.817Z,1,GR86-015-31,6.300000000000001,0.009,-0.015,7.99,1.0,,0.0,0.0,
2025-08-14T22:03:43.859Z,1,GR86-015-31,6.300000000000001,0.015,-0.018,8.0,1.0,,0.0,0.0,
2025-08-14T22:03:43.902Z,1,GR86-015-31,6.300000000000001,0.017,-0.016,8.01,1.0,0.0,0.0,0.0,
2025-08-14T22:03:43.947Z,1,GR86-015-31,6.300000000000001,0.009,-0.015,8.0,1.0,,0.0,0.0,0.0
2025-08-14T22:03:43.990Z,1,GR86-015-31,6.300000000000001,0.009,-0.014,7.99,1.0,,0.0,0.0,
2025-08-14T22:03:44.033Z,1,GR86-015-31,6.300000000000001,0.009,-0.013,7.99,1.0,,0.0,0.0,
2025-08-14T22:03:44.077Z,1,GR86-015-31,6.300000000000001,0.01,-0.016,8.0,1.0,,0.0,0.0,
2025-08-14T22:03:44.119Z,1,GR86-015-31,6.300000000000001,0.011,-0.015,8.0,1.0,0.0,0.0,0.0,
2025-08-14T22:03:44.162Z,1,GR86-015-31,6.300000000000001,0.013,-0.012,7.99,1.0,,0.0,0.0,0.0
2025-08-14T22:03:44.206Z,1,GR86-015-31,6.300000000000001,0.012,-0.017,7.99,1.0,,0.0,0.0,
2025-08-14T22:03:44.250Z,1,GR86-015-31,6.300000000000001,0.01,-0.016,8.0,1.0,,0.0,0.0,
2025-08-14T22:03:44.293Z,1,GR86-015-31,6.300000000000001,0.01,-0.016,8.0,1.0,,0.0,0.0,
2025-08-14T22:03:44.337Z,1,GR86-015-31,6.300000000000001,0.01,-0.013,8.0,1.0,0.0,0.0,0.0,
2025-08-14T22:03:44.379Z,1,GR86-015-31,6.300000000000001,0.011,-0.017,8.0,1.0,,0.0,0.0,0.0
2025-08-14T22:03:44.422Z,1,GR86-015-31,6.300000000000001,0.013,-0.015,8.0,1.0,,0.0,0.0,
2025-08-14T22:03:44.466Z,1,GR86-015-31,6.2,0.014,-0.017,7.99,1.0,,0.0,0.0,
2025-08-14T22:03:44.509Z,1,GR86-015-31,6.300000000000001,0.016,-0.015,8.0,1.0,,0.0,0.0,
2025-08-14T22:03:44.552Z,1,GR86-015-31,6.300000000000001,0.016,-0.017,8.0,1.0,0.0,0.0,0.0,
2025-08-14T22:03:44.596Z,1,GR86-015-31,6.300000000000001,0.013,-0.016,7.99,1.0,,0.0,0.0,0.0
2025-08-14T22:03:44.641Z,1,GR86-015-31,6.300000000000001,0.006,-0.013,7.99,1.0,,0.0,0.0,
2025-08-14T22:03:44.687Z,1,GR86-015-31,6.300000000000001,0.011,-0.015,8.0,1.0,,0.0,0.0,
2025-08-14T22:03:44.730Z,1,GR86-015-31,6.300000000000001,0.005,-0.013,8.0,1.0,,0.0,0.0,
2025-08-14T22:03:44.773Z,1,GR86-015-31,6.300000000000001,0.008,-0.017,8.01,1.0,0.0,0.0,0.0,
2025-08-14T22:03:44.817Z,1,GR86-015-31,6.300000000000001,0.011,-0.015,8.0,1.0,,0.0,0.0,0.0
2025-08-14T22:03:44.859Z,1,GR86-015-31,6.300000000000001,0.015,-0.015,7.99,1.0,,0.0,0.0,
2025-08-14T22:03:44.902Z,1,GR86-015-31,6.300000000000001,0.017,-0.012,8.0,1.0,,0.0,0.0,
2025-08-14T22:03:44.946Z,1,GR86-015-31,6.300000000000001,0.014,-0.018,8.0,1.0,,0.0,0.0,
2025-08-14T22:03:44.990Z,1,GR86-015-31,6.300000000000001,0.009,-0.012,7.99,1.0,0.0,0.0,0.0,
2025-08-14T22:03:45.033Z,1,GR86-015-31,6.300000000000001,0.01,-0.017,8.0,1.0,,6.715,6.9,0.0
2025-08-14T22:03:45.077Z,1,GR86-015-31,6.300000000000001,0.01,-0.018,8.0,1.0,,9.57,9.72,
2025-08-14T22:03:45.119Z,1,GR86-015-31,6.300000000000001,0.008,-0.017,8.0,1.0,,11.43,11.275,
2025-08-14T22:03:45.162Z,1,GR86-015-31,6.300000000000001,0.009,-0.016,7.99,1.0,,12.085,11.995,
2025-08-14T22:03:45.206Z,1,GR86-015-31,6.300000000000001,0.013,-0.015,7.99,1.0,0.0,12.085,12.3,
2025-08-14T22:03:45.250Z,1,GR86-015-31,6.300000000000001,0.014,-0.013,7.99,1.0,,12.085,12.3,0.0
2025-08-14T22:03:45.293Z,1,GR86-015-31,6.300000000000001,0.015,-0.013,8.0,1.0,,11.935,12.115,
2025-08-14T22:03:45.337Z,1,GR86-015-31,6.300000000000001,0.013,-0.016,8.0,1.0,,11.78,12.025,
2025-08-14T22:03:45.379Z,1,GR86-015-31,6.300000000000001,0.013,-0.014,8.01,1.0,,11.735,12.21,
2025-08-14T22:03:45.422Z,1,GR86-015-31,6.300000000000001,0.009,-0.016,8.0,1.0,0.0,11.675,11.965,
2025-08-14T22:03:45.467Z,1,GR86-015-31,6.300000000000001,0.008,-0.015,8.0,1.0,,10.315,10.865,0.0
2025-08-14T22:03:45.510Z,1,GR86-015-31,6.300000000000001,0.009,-0.015,8.0,1.0,,7.265000000000001,7.8,
2025-08-14T22:03:45.553Z,1,GR86-015-31,6.300000000000001,0.012,-0.01,8.0,1.0,,4.0,4.5,
2025-08-14T22:03:45.598Z,1,GR86-015-31,6.2,0.014,-0.015,8.0,1.0,,2.485,2.855,
2025-08-14T22:03:45.641Z,1,GR86-015-31,6.300000000000001,0.015,-0.014,7.99,1.0,0.0,0.0,1.86,
2025-08-14T22:03:45.687Z,1,GR86-015-31,6.300000000000001,0.011,-0.017,8.0,1.0,,0.0,0.0,0.0
2025-08-14T22:03:45.730Z,1,GR86-015-31,6.300000000000001,0.009,-0.017,7.99,1.0,,0.0,0.0,
2025-08-14T22:03:45.773Z,1,GR86-015-31,6.300000000000001,0.013,-0.016,8.01,1.0,,0.0,0.0,
2025-08-14T22:03:45.817Z,1,GR86-015-31,6.300000000000001,0.012,-0.014,7.99,1.0,,0.0,0.0,
2025-08-14T22:03:45.859Z,1,GR86-015-31,6.300000000000001,0.007,-0.011,7.99,1.0,0.0,0.0,0.0,
2025-08-14T22:03:45.902Z,1,GR86-015-31,6.300000000000001,0.009,-0.015,7.99,1.0,,0.0,0.0,0.0
2025-08-14T22:03:45.947Z,1,GR86-015-31,6.300000000000001,0.01,-0.017,8.0,1.0,,0.0,0.0,
2025-08-14T22:03:45.990Z,1,GR86-015-31,6.300000000000001,0.012,-0.019,8.0,1.0,,0.0,0.0,
2025-08-14T22:03:46.033Z,1,GR86-015-31,6.300000000000001,0.013,-0.016,7.99,1.0,,0.0,0.0,
2025-08-14T22:03:46.077Z,1,GR86-015-31,6.300000000000001,0.015,-0.017,7.99,1.0,0.0,0.0,0.0,
2025-08-14T22:03:46.119Z,1,GR86-015-31,6.300000000000001,0.012,-0.017,8.0,1.0,,0.0,0.0,0.0
2025-08-14T22:03:46.162Z,1,GR86-015-31,6.300000000000001,0.011,-0.012,8.0,1.0,,0.0,0.0,
2025-08-14T22:03:46.206Z,1,GR86-015-31,6.300000000000001,0.011,-0.014,8.0,1.0,,0.0,0.0,
2025-08-14T22:03:46.250Z,1,GR86-015-31,6.2,0.01,-0.018,8.0,1.0,,0.0,0.0,
2025-08-14T22:03:46.293Z,1,GR86-015-31,6.300000000000001,0.011,-0.016,8.0,1.0,0.0,0.0,0.0,
2025-08-14T22:03:46.337Z,1,GR86-015-31,6.300000000000001,0.013,-0.016,8.0,1.0,,0.0,0.0,0.0
2025-08-14T22:03:46.379Z,1,GR86-015-31,6.300000000000001,0.013,-0.015,8.0,1.0,,0.0,0.0,
2025-08-14T22:03:46.422Z,1,GR86-015-31,6.300000000000001,0.017,-0.014,8.0,1.0,,0.0,0.0,
2025-08-14T22:03:46.467Z,1,GR86-015-31,6.2,0.012,-0.013,8.0,1.0,,0.0,0.0,
2025-08-14T22:03:46.510Z,1,GR86-015-31,6.300000000000001,0.011,-0.014,8.0,1.0,0.0,0.0,0.0,
2025-08-14T22:03:46.553Z,1,GR86-015-31,6.300000000000001,0.014,-0.02,7.99,1.0,,0.0,0.0,0.0
2025-08-14T22:03:46.598Z,1,GR86-015-31,6.300000000000001,0.011,-0.015,8.0,1.0,,0.0,0.0,
2025-08-14T22:03:46.641Z,1,GR86-015-31,6.300000000000001,0.014,-0.016,8.0,1.0,,0.0,0.0,
2025-08-14T22:03:46.687Z,1,GR86-015-31,6.300000000000001,0.013,-0.014,8.0,1.0,,0.0,0.0,
2025-08-14T22:03:46.730Z,1,GR86-015-31,6.300000000000001,0.013,-0.015,8.0,1.0,0.0,0.0,0.0,
2025-08-14T22:03:46.773Z,1,GR86-015-31,6.300000000000001,0.011,-0.014,7.99,1.0,,0.0,0.0,0.0
2025-08-14T22:03:46.817Z,1,GR86-015-31,6.300000000000001,0.012,-0.016,8.01,1.0,,0.0,0.0,
2025-08-14T22:03:46.859Z,1,GR86-015-31,6.300000000000001,0.012,-0.016,7.99,1.0,,0.0,0.0,
2025-08-14T22:03:46.902Z,1,GR86-015-31,6.300000000000001,0.011,-0.017,8.0,1.0,,0.0,0.0,
2025-08-14T22:03:46.947Z,1,GR86-015-31,6.300000000000001,0.012,-0.017,8.0,1.0,0.0,0.0,0.0,
2025-08-14T22:03:46.990Z,1,GR86-015-31,6.300000000000001,0.012,-0.014,8.0,1.0,,0.0,0.0,0.0
2025-08-14T22:03:47.033Z,1,GR86-015-31,6.300000000000001,0.011,-0.015,8.0,1.0,,0.0,0.0,
2025-08-14T22:03:47.077Z,1,GR86-015-31,6.300000000000001,0.015,-0.014,8.0,1.0,,0.0,0.0,
2025-08-14T22:03:47.119Z,1,GR86-015-31,6.300000000000001,0.011,-0.016,7.99,1.0,,0.0,0.0,
2025-08-14T22:03:47.162Z,1,GR86-015-31,6.300000000000001,0.012,-0.016,7.99,1.0,0.0,0.0,0.0,
2025-08-14T22:03:47.207Z,1,GR86-015-31,6.300000000000001,0.011,-0.019,8.0,1.0,,0.0,0.0,0.0
2025-08-14T22:03:47.250Z,1,GR86-015-31,6.300000000000001,0.01,-0.015,8.0,1.0,,0.0,0.0,
2025-08-14T22:03:47.293Z,1,GR86-015-31,6.300000000000001,0.014,-0.016,7.99,1.0,,0.0,0.0,
2025-08-14T22:03:47.337Z,1,GR86-015-31,6.300000000000001,0.012,-0.014,7.99,1.0,,0.0,0.0,
2025-08-14T22:03:47.379Z,1,GR86-015-31,6.300000000000001,0.011,-0.015,8.0,1.0,0.0,0.0,0.0,
2025-08-14T22:03:47.422Z,1,GR86-015-31,6.300000000000001,0.011,-0.016,8.0,1.0,,0.0,0.0,0.0
2025-08-14T22:03:47.466Z,1,GR86-015-31,6.300000000000001,0.013,-0.017,7.99,1.0,,0.0,0.0,
2025-08-14T22:03:47.508Z,1,GR86-015-31,6.300000000000001,0.012,-0.015,7.99,1.0,,0.0,0.0,
2025-08-14T22:03:47.551Z,1,GR86-015-31,6.300000000000001,0.012,-0.018,8.01,1.0,,0.0,0.0,
2025-08-14T22:03:47.594Z,1,GR86-015-31,6.300000000000001,0.01,-0.015,8.0,1.0,0.0,0.0,0.0,
2025-08-14T22:03:47.637Z,1,GR86-015-31,6.300000000000001,0.011,-0.016,8.0,1.0,,0.0,0.0,0.0
2025-08-14T22:03:47.680Z,1,GR86-015-31,6.300000000000001,0.014,-0.016,8.0,1.0,,0.0,0.0,
2025-08-14T22:03:47.723Z,1,GR86-015-31,6.300000000000001,0.011,-0.015,8.01,1.0,,0.0,0.0,
2025-08-14T22:03:47.767Z,1,GR86-015-31,6.300000000000001,0.012,-0.017,8.0,1.0,,0.0,0.0,
2025-08-14T22:03:47.810Z,1,GR86-015-31,6.300000000000001,0.013,-0.017,7.99,1.0,0.0,0.0,0.0,
2025-08-14T22:03:47.853Z,1,GR86-015-31,6.300000000000001,0.01,-0.016,8.01,1.0,,0.0,0.0,0.0
2025-08-14T22:03:47.898Z,1,GR86-015-31,6.300000000000001,0.01,-0.017,8.0,1.0,,0.0,0.0,
2025-08-14T22:03:47.941Z,1,GR86-015-31,6.300000000000001,0.012,-0.012,7.99,1.0,,0.0,0.0,
2025-08-14T22:03:47.987Z,1,GR86-015-31,6.300000000000001,0.012,-0.014,8.0,1.0,,0.0,0.0,
2025-08-14T22:03:48.030Z,1,GR86-015-31,6.300000000000001,0.011,-0.016,7.99,1.0,0.0,0.0,0.0,
2025-08-14T22:03:48.073Z,1,GR86-015-31,6.300000000000001,0.012,-0.015,8.0,1.0,,0.0,0.0,0.0
2025-08-14T22:03:48.117Z,1,GR86-015-31,6.300000000000001,0.012,-0.016,7.99,1.0,,0.0,0.0,
2025-08-14T22:03:48.159Z,1,GR86-015-31,6.300000000000001,0.01,-0.018,8.0,1.0,,0.0,0.0,
2025-08-14T22:03:48.202Z,1,GR86-015-31,6.300000000000001,0.015,-0.019,8.0,1.0,,0.0,0.0,
2025-08-14T22:03:48.246Z,1,GR86-015-31,6.300000000000001,0.012,-0.014,7.99,1.0,0.0,0.0,0.0,
2025-08-14T22:03:48.289Z,1,GR86-015-31,6.300000000000001,0.012,-0.013,7.99,1.0,,0.0,0.0,0.0
2025-08-14T22:03:48.332Z,1,GR86-015-31,6.300000000000001,0.012,-0.014,7.99,1.0,,0.0,0.0,
2025-08-14T22:03:48.376Z,1,GR86-015-31,6.300000000000001,0.009,-0.011,8.0,1.0,,0.0,0.0,
2025-08-14T22:03:48.418Z,1,GR86-015-31,6.300000000000001,0.01,-0.015,8.01,1.0,,0.0,0.0,
2025-08-14T22:03:48.461Z,1,GR86-015-31,6.300000000000001,0.015,-0.018,7.99,1.0,0.0,0.0,0.0,
2025-08-14T22:03:48.505Z,1,GR86-015-31,6.300000000000001,0.013,-0.014,7.99,1.0,,0.0,0.0,0.0
2025-08-14T22:03:48.550Z,1,GR86-015-31,6.300000000000001,0.009,-0.017,8.0,1.0,,0.0,0.0,
2025-08-14T22:03:48.594Z,1,GR86-015-31,6.300000000000001,0.011,-0.014,8.0,1.0,,0.0,0.0,
2025-08-14T22:03:48.637Z,1,GR86-015-31,6.300000000000001,0.011,-0.016,8.0,1.0,,0.0,0.0,
2025-08-14T22:03:48.680Z,1,GR86-015-31,6.300000000000001,0.01,-0.014,8.0,1.0,0.0,0.0,0.0,
2025-08-14T22:03:48.723Z,1,GR86-015-31,6.300000000000001,0.012,-0.014,8.0,1.0,,0.0,0.0,0.0
2025-08-14T22:03:48.767Z,1,GR86-015-31,6.300000000000001,0.013,-0.018,8.0,1.0,,0.0,0.0,
2025-08-14T22:03:48.810Z,1,GR86-015-31,6.300000000000001,0.012,-0.016,7.99,1.0,,0.0,0.0,
2025-08-14T22:03:48.853Z,1,GR86-015-31,6.300000000000001,0.014,-0.017,7.99,1.0,,0.0,0.0,
2025-08-14T22:03:48.898Z,1,GR86-015-31,6.300000000000001,0.01,-0.012,7.99,1.0,0.0,0.0,0.0,
2025-08-14T22:03:48.941Z,1,GR86-015-31,6.300000000000001,0.011,-0.015,8.0,1.0,,0.0,0.0,0.0
2025-08-14T22:03:48.987Z,1,GR86-015-31,6.300000000000001,0.009,-0.016,8.0,1.0,,0.0,0.0,
2025-08-14T22:03:49.030Z,1,GR86-015-31,6.2,0.013,-0.016,7.99,1.0,,0.0,0.0,
2025-08-14T22:03:49.073Z,1,GR86-015-31,6.300000000000001,0.011,-0.017,8.0,1.0,,0.0,0.0,
2025-08-14T22:03:49.117Z,1,GR86-015-31,6.300000000000001,0.013,-0.014,8.01,1.0,0.0,0.0,0.0,
2025-08-14T22:03:49.159Z,1,GR86-015-31,6.300000000000001,0.013,-0.016,7.99,1.0,,0.0,0.0,0.0
2025-08-14T22:03:49.202Z,1,GR86-015-31,6.300000000000001,0.009,-0.014,8.0,1.0,,0.0,0.0,
2025-08-14T22:03:49.247Z,1,GR86-015-31,6.300000000000001,0.011,-0.013,7.99,1.0,,0.0,0.0,
2025-08-14T22:03:49.290Z,1,GR86-015-31,6.300000000000001,0.011,-0.016,7.99,1.0,,0.0,0.0,
2025-08-14T22:03:49.333Z,1,GR86-015-31,6.300000000000001,0.012,-0.016,8.0,1.0,0.0,0.0,0.0,
2025-08-14T22:03:49.377Z,1,GR86-015-31,6.300000000000001,0.013,-0.016,8.0,1.0,,0.0,0.0,0.0
2025-08-14T22:03:49.419Z,1,GR86-015-31,6.300000000000001,0.013,-0.017,7.99,1.0,,0.0,0.0,
2025-08-14T22:03:49.462Z,1,GR86-015-31,6.300000000000001,0.013,-0.014,8.0,1.0,,0.0,0.0,
2025-08-14T22:03:49.507Z,1,GR86-015-31,6.300000000000001,0.014,-0.014,8.0,1.0,,0.0,0.0,
2025-08-14T22:03:49.550Z,1,GR86-015-31,6.300000000000001,0.011,-0.014,7.99,1.0,0.0,0.0,0.0,
2025-08-14T22:03:49.593Z,1,GR86-015-31,6.300000000000001,0.011,-0.016,8.0,1.0,,0.0,0.0,0.0
2025-08-14T22:03:49.637Z,1,GR86-015-31,6.300000000000001,0.012,-0.016,8.0,1.0,,0.0,0.0,
2025-08-14T22:03:49.679Z,1,GR86-015-31,6.300000000000001,0.011,-0.016,8.01,1.0,,0.0,0.0,
2025-08-14T22:03:49.722Z,1,GR86-015-31,6.300000000000001,0.014,-0.017,8.01,1.0,,0.0,0.0,
2025-08-14T22:03:49.766Z,1,GR86-015-31,6.300000000000001,0.01,-0.017,7.99,1.0,0.0,0.0,0.0,
2025-08-14T22:03:49.808Z,1,GR86-015-31,6.300000000000001,0.013,-0.015,8.0,1.0,,0.0,0.0,0.0
2025-08-14T22:03:49.851Z,1,GR86-015-31,6.300000000000001,0.011,-0.015,8.0,1.0,,0.0,0.0,
2025-08-14T22:03:49.894Z,1,GR86-015-31,6.300000000000001,0.013,-0.015,8.0,1.0,,0.0,0.0,
2025-08-14T22:03:49.937Z,1,GR86-015-31,6.300000000000001,0.011,-0.016,8.0,1.0,,0.0,0.0,
2025-08-14T22:03:49.980Z,1,GR86-015-31,6.300000000000001,0.011,-0.015,8.0,1.0,0.0,0.0,0.0,
2025-08-14T22:03:50.023Z,1,GR86-015-31,6.300000000000001,0.012,-0.016,8.0,1.0,,0.0,0.0,0.0
2025-08-14T22:03:50.067Z,1,GR86-015-31,6.300000000000001,0.014,-0.015,8.0,1.0,,0.0,0.0,
2025-08-14T22:03:50.110Z,1,GR86-015-31,6.300000000000001,0.013,-0.014,7.99,1.0,,0.0,0.0,
2025-08-14T22:03:50.153Z,1,GR86-015-31,6.300000000000001,0.013,-0.013,8.0,1.0,,0.0,0.0,
2025-08-14T22:03:50.198Z,1,GR86-015-31,6.300000000000001,0.012,-0.015,8.0,1.0,0.0,0.0,0.0,
2025-08-14T22:03:50.241Z,1,GR86-015-31,6.300000000000001,0.011,-0.016,8.01,1.0,,0.0,0.0,0.0
2025-08-14T22:03:50.287Z,1,GR86-015-31,6.300000000000001,0.012,-0.016,8.01,1.0,,0.0,0.0,
2025-08-14T22:03:50.330Z,1,GR86-015-31,6.300000000000001,0.014,-0.014,8.0,1.0,,0.0,0.0,
2025-08-14T22:03:50.373Z,1,GR86-015-31,6.300000000000001,0.009,-0.015,8.01,1.0,,0.0,0.0,
2025-08-14T22:03:50.417Z,1,GR86-015-31,6.300000000000001,0.012,-0.014,8.0,1.0,0.0,0.0,0.0,
2025-08-14T22:03:50.459Z,1,GR86-015-31,6.300000000000001,0.012,-0.015,8.01,1.0,,0.0,0.0,0.0
2025-08-14T22:03:50.502Z,1,GR86-015-31,6.300000000000001,0.013,-0.015,8.0,1.0,,0.0,0.0,
2025-08-14T22:03:50.547Z,1,GR86-015-31,6.300000000000001,0.012,-0.017,8.0,1.0,,0.0,0.0,
2025-08-14T22:03:50.590Z,1,GR86-015-31,6.300000000000001,0.011,-0.014,8.01,1.0,,0.0,0.0,
2025-08-14T22:03:50.633Z,1,GR86-015-31,6.300000000000001,0.013,-0.016,8.0,1.0,0.0,0.0,0.0,
2025-08-14T22:03:50.677Z,1,GR86-015-31,6.300000000000001,0.014,-0.013,8.0,1.0,,0.0,0.0,0.0
2025-08-14T22:03:50.719Z,1,GR86-015-31,6.300000000000001,0.014,-0.018,7.99,1.0,,0.0,0.0,
2025-08-14T22:03:50.762Z,1,GR86-015-31,6.300000000000001,0.008,-0.014,8.0,1.0,,0.0,0.0,
2025-08-14T22:03:50.807Z,1,GR86-015-31,6.300000000000001,0.013,-0.016,8.0,1.0,,0.0,0.0,
2025-08-14T22:03:50.850Z,1,GR86-015-31,6.300000000000001,0.011,-0.014,8.0,1.0,0.0,0.0,0.0,
2025-08-14T22:03:50.893Z,1,GR86-015-31,6.300000000000001,0.012,-0.014,7.99,1.0,,0.0,0.0,0.0
2025-08-14T22:03:50.937Z,1,GR86-015-31,6.300000000000001,0.01,-0.013,8.01,1.0,,0.0,0.0,
2025-08-14T22:03:50.979Z,1,GR86-015-31,6.300000000000001,0.012,-0.015,7.99,1.0,,0.0,0.0,
2025-08-14T22:03:51.022Z,1,GR86-015-31,6.300000000000001,0.013,-0.014,8.01,1.0,,0.0,0.0,
2025-08-14T22:03:51.066Z,1,GR86-015-31,6.300000000000001,0.01,-0.015,8.0,1.0,0.0,0.0,0.0,
2025-08-14T22:03:51.109Z,1,GR86-015-31,6.2,0.012,-0.015,8.01,1.0,,0.0,0.0,0.0
2025-08-14T22:03:51.152Z,1,GR86-015-31,6.300000000000001,0.008,-0.016,7.99,1.0,,0.0,0.0,
2025-08-14T22:03:51.196Z,1,GR86-015-31,6.300000000000001,0.011,-0.014,8.0,1.0,,0.0,0.0,
2025-08-14T22:03:51.241Z,1,GR86-015-31,6.300000000000001,0.011,-0.016,8.02,1.0,,0.0,0.0,
2025-08-14T22:03:51.287Z,1,GR86-015-31,6.300000000000001,0.014,-0.016,8.0,1.0,0.0,0.0,0.0,
2025-08-14T22:03:51.330Z,1,GR86-015-31,6.300000000000001,0.015,-0.015,8.0,1.0,,0.0,0.0,0.0
2025-08-14T22:03:51.373Z,1,GR86-015-31,6.300000000000001,0.014,-0.015,8.0,1.0,,0.0,0.0,
2025-08-14T22:03:51.417Z,1,GR86-015-31,6.300000000000001,0.012,-0.015,8.01,1.0,,0.0,0.0,
2025-08-14T22:03:51.459Z,1,GR86-015-31,6.300000000000001,0.012,-0.017,8.0,1.0,,0.0,0.0,
2025-08-14T22:03:51.502Z,1,GR86-015-31,6.300000000000001,0.012,-0.016,8.0,1.0,0.0,0.0,0.0,
2025-08-14T22:03:51.547Z,1,GR86-015-31,6.300000000000001,0.013,-0.012,8.01,1.0,,0.0,0.0,0.0
2025-08-14T22:03:51.590Z,1,GR86-015-31,6.300000000000001,0.013,-0.014,8.01,1.0,,0.0,0.0,
2025-08-14T22:03:51.633Z,1,GR86-015-31,6.300000000000001,0.011,-0.017,8.0,1.0,,0.0,0.0,
2025-08-14T22:03:51.677Z,1,GR86-015-31,6.300000000000001,0.014,-0.015,8.0,1.0,,0.0,0.0,
2025-08-14T22:03:51.719Z,1,GR86-015-31,6.300000000000001,0.013,-0.016,8.01,1.0,0.0,0.0,0.0,
2025-08-14T22:03:51.762Z,1,GR86-015-31,6.300000000000001,0.011,-0.015,8.0,1.0,,0.0,0.0,0.0
2025-08-14T22:03:51.806Z,1,GR86-015-31,6.300000000000001,0.011,-0.016,8.0,1.0,,0.0,0.0,
2025-08-14T22:03:51.850Z,1,GR86-015-31,6.300000000000001,0.01,-0.017,8.0,1.0,,0.0,0.0,
2025-08-14T22:03:51.894Z,1,GR86-015-31,6.300000000000001,0.011,-0.014,7.99,1.0,,0.0,0.0,
2025-08-14T22:03:51.937Z,1,GR86-015-31,6.300000000000001,0.015,-0.017,8.0,1.0,0.0,0.0,0.0,
2025-08-14T22:03:51.979Z,1,GR86-015-31,6.300000000000001,0.012,-0.015,7.99,1.0,,0.0,0.0,0.0
2025-08-14T22:03:52.022Z,1,GR86-015-31,6.300000000000001,0.012,-0.017,8.0,1.0,,0.0,0.0,
2025-08-14T22:03:52.066Z,1,GR86-015-31,6.300000000000001,0.01,-0.015,7.99,1.0,,0.0,0.0,
2025-08-14T22:03:52.108Z,1,GR86-015-31,6.300000000000001,0.012,-0.015,7.99,1.0,,0.0,0.0,
2025-08-14T22:03:52.151Z,1,GR86-015-31,6.300000000000001,0.012,-0.013,8.0,1.0,0.0,0.0,0.0,
2025-08-14T22:03:52.194Z,1,GR86-015-31,6.300000000000001,0.01,-0.013,8.01,1.0,,0.0,0.0,0.0
2025-08-14T22:03:52.237Z,1,GR86-015-31,6.300000000000001,0.012,-0.015,7.99,1.0,,0.0,0.0,
2025-08-14T22:03:52.280Z,1,GR86-015-31,6.300000000000001,0.014,-0.014,8.01,1.0,,0.0,0.0,
2025-08-14T22:03:52.323Z,1,GR86-015-31,6.300000000000001,0.009,-0.014,7.99,1.0,,0.0,0.0,
2025-08-14T22:03:52.367Z,1,GR86-015-31,6.300000000000001,0.012,-0.015,8.01,1.0,0.0,0.0,0.0,
2025-08-14T22:03:52.410Z,1,GR86-015-31,6.300000000000001,0.012,-0.015,8.0,1.0,,0.0,0.0,0.0
2025-08-14T22:03:52.453Z,1,GR86-015-31,6.300000000000001,0.011,-0.012,8.0,1.0,,0.0,0.0,
2025-08-14T22:03:52.498Z,1,GR86-015-31,6.300000000000001,0.011,-0.015,8.0,1.0,,0.0,0.0,
2025-08-14T22:03:52.541Z,1,GR86-015-31,6.300000000000001,0.012,-0.015,8.0,1.0,,0.0,0.0,
2025-08-14T22:03:52.587Z,1,GR86-015-31,6.300000000000001,0.013,-0.016,8.01,1.0,0.0,0.0,0.0,
2025-08-14T22:03:52.630Z,1,GR86-015-31,6.300000000000001,0.014,-0.016,8.0,1.0,,0.0,0.0,0.0
2025-08-14T22:03:52.673Z,1,GR86-015-31,6.300000000000001,0.012,-0.015,7.99,1.0,,0.0,0.0,
2025-08-14T22:03:52.717Z,1,GR86-015-31,6.300000000000001,0.011,-0.016,7.99,1.0,,0.0,0.0,
2025-08-14T22:03:52.759Z,1,GR86-015-31,6.300000000000001,0.011,-0.011,8.0,1.0,,0.0,0.0,
2025-08-14T22:03:52.802Z,1,GR86-015-31,6.300000000000001,0.015,-0.015,8.0,1.0,0.0,0.0,0.0,
2025-08-14T22:03:52.847Z,1,GR86-015-31,6.300000000000001,0.013,-0.017,8.0,1.0,,0.0,0.0,0.0
2025-08-14T22:03:52.890Z,1,GR86-015-31,6.300000000000001,0.013,-0.015,8.0,1.0,,0.0,0.0,
2025-08-14T22:03:52.933Z,1,GR86-015-31,6.300000000000001,0.014,-0.015,8.0,1.0,,0.0,0.0,
2025-08-14T22:03:52.977Z,1,GR86-015-31,6.300000000000001,0.012,-0.014,7.99,1.0,,0.0,0.0,
2025-08-14T22:03:53.019Z,1,GR86-015-31,6.300000000000001,0.013,-0.013,7.99,1.0,0.0,0.0,0.0,
2025-08-14T22:03:53.062Z,1,GR86-015-31,6.300000000000001,0.012,-0.013,7.99,1.0,,0.0,0.0,0.0
2025-08-14T22:03:53.107Z,1,GR86-015-31,6.300000000000001,0.012,-0.019,8.01,1.0,,0.0,0.0,
2025-08-14T22:03:53.150Z,1,GR86-015-31,6.300000000000001,0.014,-0.017,8.0,1.0,,0.0,0.0,
2025-08-14T22:03:53.193Z,1,GR86-015-31,6.300000000000001,0.012,-0.016,8.0,1.0,,0.0,0.0,
2025-08-14T22:03:53.237Z,1,GR86-015-31,6.300000000000001,0.011,-0.017,8.0,1.0,0.0,0.0,0.0,
2025-08-14T22:03:53.279Z,1,GR86-015-31,6.300000000000001,0.01,-0.013,8.01,1.0,,0.0,0.0,0.0
2025-08-14T22:03:53.322Z,1,GR86-015-31,6.300000000000001,0.014,-0.013,8.0,1.0,,0.0,0.0,
2025-08-14T22:03:53.366Z,1,GR86-015-31,6.300000000000001,0.01,-0.015,7.99,1.0,,0.0,0.0,
2025-08-14T22:03:53.409Z,1,GR86-015-31,6.300000000000001,0.013,-0.015,8.01,1.0,,0.0,0.0,
2025-08-14T22:03:53.452Z,1,GR86-015-31,6.300000000000001,0.012,-0.017,8.0,1.0,0.0,0.0,0.0,
2025-08-14T22:03:53.495Z,1,GR86-015-31,6.300000000000001,0.01,-0.016,8.0,1.0,,0.0,0.0,0.0
2025-08-14T22:03:53.538Z,1,GR86-015-31,6.300000000000001,0.01,-0.013,7.99,1.0,,0.0,0.0,
2025-08-14T22:03:53.581Z,1,GR86-015-31,6.300000000000001,0.011,-0.013,8.0,1.0,,0.0,0.0,
2025-08-14T22:03:53.624Z,1,GR86-015-31,6.300000000000001,0.014,-0.014,8.0,1.0,,0.0,0.0,
2025-08-14T22:03:53.668Z,1,GR86-015-31,6.300000000000001,0.011,-0.016,8.0,1.0,0.0,0.0,0.0,
2025-08-14T22:03:53.711Z,1,GR86-015-31,6.300000000000001,0.012,-0.015,8.0,1.0,,0.0,0.0,0.0
2025-08-14T22:03:53.754Z,1,GR86-015-31,6.300000000000001,0.01,-0.017,7.99,1.0,,0.0,0.0,
2025-08-14T22:03:53.798Z,1,GR86-015-31,6.300000000000001,0.01,-0.017,8.0,1.0,,0.0,0.0,
2025-08-14T22:03:53.841Z,1,GR86-015-31,6.300000000000001,0.012,-0.013,8.0,1.0,,0.0,0.0,
2025-08-14T22:03:53.887Z,1,GR86-015-31,6.300000000000001,0.013,-0.014,8.0,1.0,0.0,0.0,0.0,
2025-08-14T22:03:53.930Z,1,GR86-015-31,6.300000000000001,0.012,-0.015,8.0,1.0,,0.0,0.0,0.0
2025-08-14T22:03:53.973Z,1,GR86-015-31,6.300000000000001,0.011,-0.015,8.0,1.0,,0.0,0.0,
2025-08-14T22:03:54.017Z,1,GR86-015-31,6.300000000000001,0.014,-0.016,8.0,1.0,,0.0,0.0,
2025-08-14T22:03:54.059Z,1,GR86-015-31,6.300000000000001,0.011,-0.016,8.0,1.0,,0.0,0.0,
2025-08-14T22:03:54.102Z,1,GR86-015-31,6.300000000000001,0.012,-0.014,8.0,1.0,0.0,0.0,0.0,
2025-08-14T22:03:54.147Z,1,GR86-015-31,6.300000000000001,0.011,-0.014,8.0,1.0,,0.0,0.0,0.0
2025-08-14T22:03:54.190Z,1,GR86-015-31,6.300000000000001,0.012,-0.013,8.0,1.0,,0.0,0.0,
2025-08-14T22:03:54.233Z,1,GR86-015-31,6.2,0.011,-0.011,8.0,1.0,,0.0,0.0,
2025-08-14T22:03:54.277Z,1,GR86-015-31,6.300000000000001,0.012,-0.015,7.99,1.0,,0.0,0.0,
2025-08-14T22:03:54.319Z,1,GR86-015-31,6.300000000000001,0.013,-0.013,8.01,1.0,0.0,0.0,0.0,
2025-08-14T22:03:54.362Z,1,GR86-015-31,6.300000000000001,0.013,-0.017,8.0,1.0,,0.0,0.0,0.0
2025-08-14T22:03:54.407Z,1,GR86-015-31,6.300000000000001,0.012,-0.017,8.0,1.0,,0.0,0.0,
2025-08-14T22:03:54.450Z,1,GR86-015-31,6.300000000000001,0.011,-0.017,7.99,1.0,,0.0,0.0,
2025-08-14T22:03:54.493Z,1,GR86-015-31,6.300000000000001,0.011,-0.014,8.01,1.0,,0.0,0.0,
2025-08-14T22:03:54.537Z,1,GR86-015-31,6.300000000000001,0.012,-0.013,8.01,1.0,0.0,0.0,0.0,
2025-08-14T22:03:54.579Z,1,GR86-015-31,6.300000000000001,0.012,-0.01,8.01,1.0,,0.0,0.0,0.0
2025-08-14T22:03:54.622Z,1,GR86-015-31,6.300000000000001,0.014,-0.015,8.01,1.0,,1.955,2.075,
2025-08-14T22:03:54.666Z,1,GR86-015-31,6.300000000000001,0.01,-0.017,8.0,1.0,,2.305,2.165,
2025-08-14T22:03:54.709Z,1,GR86-015-31,6.300000000000001,0.013,-0.015,8.0,1.0,,2.365,2.165,
2025-08-14T22:03:54.752Z,1,GR86-015-31,6.300000000000001,0.011,-0.016,8.0,1.0,0.0,2.305,2.365,
2025-08-14T22:03:54.796Z,1,GR86-015-31,6.300000000000001,0.011,-0.016,8.0,1.0,,2.305,2.365,0.0
2025-08-14T22:03:54.838Z,1,GR86-015-31,6.300000000000001,0.01,-0.015,8.01,1.0,,2.395,2.4250000000000003,
2025-08-14T22:03:54.881Z,1,GR86-015-31,6.300000000000001,0.011,-0.013,8.0,1.0,,2.395,2.52,
2025-08-14T22:03:54.926Z,1,GR86-015-31,6.300000000000001,0.012,-0.011,8.01,1.0,,2.335,2.52,
2025-08-14T22:03:54.968Z,1,GR86-015-31,6.300000000000001,0.011,-0.017,8.0,1.0,0.0,2.61,2.58,
2025-08-14T22:03:55.011Z,1,GR86-015-31,6.300000000000001,0.013,-0.016,8.0,1.0,,2.61,2.52,0.0
2025-08-14T22:03:55.054Z,1,GR86-015-31,6.300000000000001,0.013,-0.016,8.0,1.0,,2.64,2.52,
