timestamp,lap,vehicle_id,steering_angle,accx_can,accy_can,ath,gear,nmot,pbrake_f,pbrake_r,speed
2025-08-15T00:14:42.654Z,4,GR86-022-13,-0.2,0.115,0.037,100.01,4.0,,0.0,0.0,
2025-08-15T00:14:42.698Z,4,GR86-022-13,-0.8,0.144,0.044,100.0,4.0,,0.0,0.0,
2025-08-15T00:14:42.741Z,4,GR86-022-13,-0.9,0.138,0.058,100.0,4.0,,0.0,0.0,
2025-08-15T00:14:42.784Z,4,GR86-022-13,-0.7000000000000001,0.147,0.073,100.01,4.0,6887.0,0.0,0.0,
2025-08-15T00:14:42.828Z,4,GR86-022-13,1.0,0.141,0.046,100.01,4.0,,0.0,0.0,174.98
2025-08-15T00:14:42.871Z,4,GR86-022-13,1.6,0.146,0.046,100.01,4.0,,0.0,0.0,
2025-08-15T00:14:42.914Z,4,GR86-022-13,1.7000000000000002,0.136,0.061,100.02,4.0,,0.0,0.0,
2025-08-15T00:14:42.958Z,4,GR86-022-13,1.7000000000000002,0.144,0.063,99.99,4.0,,0.0,0.0,
2025-08-15T00:14:43.000Z,4,GR86-022-13,1.7000000000000002,0.152,0.076,100.0,4.0,6926.0,0.0,0.0,
2025-08-15T00:14:43.043Z,4,GR86-022-13,1.7000000000000002,0.142,0.077,100.0,4.0,,0.0,0.0,175.95000000000002
2025-08-15T00:14:43.087Z,4,GR86-022-13,1.7000000000000002,0.129,0.089,99.99,4.0,,0.0,0.0,
2025-08-15T00:14:43.131Z,4,GR86-022-13,1.7000000000000002,0.135,0.124,100.03,4.0,,0.0,0.0,
2025-08-15T00:14:43.174Z,4,GR86-022-13,2.1,0.153,0.094,100.0,4.0,,0.0,0.0,
2025-08-15T00:14:43.217Z,4,GR86-022-13,2.7,0.137,0.132,100.01,4.0,6942.0,0.0,0.0,
2025-08-15T00:14:43.260Z,4,GR86-022-13,2.8000000000000003,0.15,0.119,100.03,4.0,,0.0,0.0,176.59
2025-08-15T00:14:43.303Z,4,GR86-022-13,2.8000000000000003,0.143,0.115,99.99,4.0,,0.0,0.0,
2025-08-15T00:14:43.348Z,4,GR86-022-13,2.3000000000000003,0.126,0.128,99.99,4.0,,0.0,0.0,
2025-08-15T00:14:43.391Z,4,GR86-022-13,1.2000000000000002,0.115,0.145,100.0,4.0,,0.0,0.0,
2025-08-15T00:14:43.434Z,4,GR86-022-13,-0.1,0.125,0.129,99.99,4.0,7005.0,0.0,0.0,
2025-08-15T00:14:43.478Z,4,GR86-022-13,-1.3,0.13,0.146,99.99,4.0,,0.0,0.0,177.32
2025-08-15T00:14:43.520Z,4,GR86-022-13,-1.4,0.125,0.142,100.0,4.0,,0.0,0.0,
2025-08-15T00:14:43.563Z,4,GR86-022-13,-1.4,0.131,0.142,99.99,4.0,,0.0,0.0,
2025-08-15T00:14:43.608Z,4,GR86-022-13,-2.0,0.131,0.108,100.0,4.0,,0.0,0.0,
2025-08-15T00:14:43.651Z,4,GR86-022-13,-2.7,0.166,0.063,100.0,4.0,7035.0,0.0,0.0,
2025-08-15T00:14:43.694Z,4,GR86-022-13,-3.0,0.133,0.033,99.99,4.0,,0.0,0.0,178.08
2025-08-15T00:14:43.738Z,4,GR86-022-13,-3.0,0.146,0.011,100.01,4.0,,0.0,0.0,
2025-08-15T00:14:43.780Z,4,GR86-022-13,-1.9,0.134,-0.012,99.98,4.0,,0.0,0.0,
2025-08-15T00:14:43.823Z,4,GR86-022-13,-1.0,0.156,-0.013,100.0,4.0,,0.0,0.0,
2025-08-15T00:14:43.909Z,4,GR86-022-13,-0.8,0.135,-0.007,99.99,4.0,7060.0,0.0,0.0,178.81
2025-08-15T00:14:43.952Z,4,GR86-022-13,-0.8,0.131,-0.011,99.99,4.0,,0.0,0.0,
2025-08-15T00:14:43.995Z,4,GR86-022-13,-0.8,0.146,-0.034,100.0,4.0,,0.0,0.0,
2025-08-15T00:14:44.038Z,4,GR86-022-13,-0.8,0.151,-0.017,100.0,4.0,,0.0,0.0,
2025-08-15T00:14:44.081Z,4,GR86-022-13,-0.8,0.131,-0.028,99.99,4.0,7095.0,0.0,0.0,
2025-08-15T00:14:44.124Z,4,GR86-022-13,-0.8,0.136,-0.016,99.99,4.0,,0.0,0.0,179.57
2025-08-15T00:14:44.168Z,4,GR86-022-13,-0.8,0.132,-0.009,99.98,4.0,,0.0,0.0,
2025-08-15T00:14:44.210Z,4,GR86-022-13,-0.8,0.14,0.002,100.0,4.0,,0.0,0.0,
2025-08-15T00:14:44.253Z,4,GR86-022-13,-0.8,0.141,-0.015,100.01,4.0,,0.0,0.0,
2025-08-15T00:14:44.297Z,4,GR86-022-13,-0.8,0.121,-0.049,100.03,4.0,7121.0,0.0,0.0,
2025-08-15T00:14:44.340Z,4,GR86-022-13,-0.8,0.122,-0.037,100.0,4.0,,0.0,0.0,180.39
2025-08-15T00:14:44.383Z,4,GR86-022-13,-0.8,0.11,-0.014,100.01,4.0,,0.0,0.0,
2025-08-15T00:14:44.428Z,4,GR86-022-13,-0.8,0.133,0.012,100.0,4.0,,0.0,0.0,
2025-08-15T00:14:44.471Z,4,GR86-022-13,-0.8,0.128,-0.004,99.99,4.0,,0.0,0.0,
2025-08-15T00:14:44.514Z,4,GR86-022-13,-0.6000000000000001,0.129,-0.018,100.0,4.0,7156.0,0.0,0.0,
2025-08-15T00:14:44.558Z,4,GR86-022-13,0.2,0.111,0.006,99.99,4.0,,0.0,0.0,181.14
2025-08-15T00:14:44.643Z,4,GR86-022-13,2.2,0.108,0.043,99.99,4.0,,0.0,0.0,
2025-08-15T00:14:44.688Z,4,GR86-022-13,1.4,0.117,0.014,100.0,4.0,,0.0,0.0,
2025-08-15T00:14:44.731Z,4,GR86-022-13,1.2000000000000002,0.113,0.026,100.0,4.0,7187.0,0.0,0.0,
2025-08-15T00:14:44.774Z,4,GR86-022-13,0.4,0.113,0.019,99.99,4.0,,0.0,0.0,181.88
2025-08-15T00:14:44.818Z,4,GR86-022-13,0.3,0.128,0.022,99.98,4.0,,0.0,0.0,
2025-08-15T00:14:44.860Z,4,GR86-022-13,0.3,0.119,0.022,99.98,4.0,,0.0,0.0,
2025-08-15T00:14:44.903Z,4,GR86-022-13,0.8,0.122,0.037,99.99,4.0,,0.0,0.0,
2025-08-15T00:14:44.949Z,4,GR86-022-13,1.9,0.108,0.043,100.01,4.0,7214.0,0.0,0.0,
2025-08-15T00:14:44.991Z,4,GR86-022-13,1.9,0.103,0.035,99.99,4.0,,0.0,0.0,182.65
2025-08-15T00:14:45.034Z,4,GR86-022-13,0.9,-0.137,0.064,100.01,5.0,,0.0,0.0,
2025-08-15T00:14:45.078Z,4,GR86-022-13,0.0,0.058,0.129,100.0,5.0,,0.0,0.0,
2025-08-15T00:14:45.120Z,4,GR86-022-13,0.0,0.407,0.031,100.0,5.0,,0.0,0.0,
2025-08-15T00:14:45.163Z,4,GR86-022-13,0.1,0.043,0.066,99.98,5.0,7239.0,0.0,0.0,
2025-08-15T00:14:45.208Z,4,GR86-022-13,0.9,0.065,0.086,99.99,5.0,,0.0,0.0,183.33
2025-08-15T00:14:45.250Z,4,GR86-022-13,1.0,0.152,0.031,99.97,5.0,,0.0,0.0,
2025-08-15T00:14:45.293Z,4,GR86-022-13,1.0,0.105,0.089,100.0,5.0,,0.0,0.0,
2025-08-15T00:14:45.337Z,4,GR86-022-13,1.4,0.092,0.1,100.0,5.0,,0.0,0.0,
2025-08-15T00:14:45.510Z,4,GR86-022-13,1.8,0.101,0.074,99.97,5.0,,0.0,0.0,
2025-08-15T00:14:45.554Z,4,GR86-022-13,1.3,0.102,0.088,100.0,5.0,,0.0,0.0,
2025-08-15T00:14:45.814Z,4,GR86-022-13,-1.7000000000000002,0.132,0.086,99.99,5.0,6379.0,0.0,0.0,185.1
2025-08-15T00:14:45.858Z,4,GR86-022-13,-2.9000000000000004,0.113,0.043,99.99,5.0,,0.0,0.0,185.75
2025-08-15T00:14:45.900Z,4,GR86-022-13,-4.2,0.107,0.033,100.0,5.0,,0.0,0.0,
2025-08-15T00:14:45.943Z,4,GR86-022-13,-5.2,0.121,0.024,100.0,5.0,,0.0,0.0,
2025-08-15T00:14:45.988Z,4,GR86-022-13,-6.0,0.112,-0.028,100.01,5.0,,0.0,0.0,
2025-08-15T00:14:46.031Z,4,GR86-022-13,-6.6000000000000005,0.118,-0.039,100.0,5.0,6371.0,0.0,0.0,
2025-08-15T00:14:46.074Z,4,GR86-022-13,-7.0,0.1,-0.057,100.01,5.0,,0.0,0.0,186.28
2025-08-15T00:14:46.118Z,4,GR86-022-13,-7.1000000000000005,0.112,-0.136,99.99,5.0,,0.0,0.0,
2025-08-15T00:14:46.160Z,4,GR86-022-13,-7.1000000000000005,0.119,-0.134,99.99,5.0,,0.0,0.0,
2025-08-15T00:14:46.203Z,4,GR86-022-13,-6.7,0.108,-0.167,100.01,5.0,,0.0,0.0,
2025-08-15T00:14:46.248Z,4,GR86-022-13,-6.6000000000000005,0.109,-0.171,99.99,5.0,6390.0,0.0,0.0,
2025-08-15T00:14:46.291Z,4,GR86-022-13,-6.9,0.108,-0.18,100.01,5.0,,0.0,0.0,186.98
2025-08-15T00:14:46.334Z,4,GR86-022-13,-7.0,0.111,-0.197,100.0,5.0,,0.0,0.0,
2025-08-15T00:14:46.378Z,4,GR86-022-13,-7.0,0.088,-0.214,99.99,5.0,,0.0,0.0,
2025-08-15T00:14:46.420Z,4,GR86-022-13,-7.0,0.086,-0.222,100.01,5.0,,0.0,0.0,
2025-08-15T00:14:46.463Z,4,GR86-022-13,-7.0,0.098,-0.249,100.0,5.0,6418.0,0.0,0.0,
2025-08-15T00:14:46.508Z,4,GR86-022-13,-7.0,0.113,-0.222,99.99,5.0,,0.0,0.0,187.44
2025-08-15T00:14:46.551Z,4,GR86-022-13,-7.0,0.112,-0.246,100.01,5.0,,0.0,0.0,
2025-08-15T00:14:46.594Z,4,GR86-022-13,-7.0,0.121,-0.267,99.99,5.0,,0.0,0.0,
2025-08-15T00:14:46.638Z,4,GR86-022-13,-6.800000000000001,0.119,-0.27,100.0,5.0,,0.0,0.0,
2025-08-15T00:14:46.680Z,4,GR86-022-13,-6.4,0.098,-0.253,100.01,5.0,6441.0,0.0,0.0,
2025-08-15T00:14:46.723Z,4,GR86-022-13,-5.5,0.118,-0.247,100.0,5.0,,0.0,0.0,187.92
2025-08-15T00:14:46.767Z,4,GR86-022-13,-4.3,0.121,-0.237,99.99,5.0,,0.0,0.0,
2025-08-15T00:14:46.809Z,4,GR86-022-13,-4.6000000000000005,0.119,-0.203,100.01,5.0,,0.0,0.0,
2025-08-15T00:14:46.852Z,4,GR86-022-13,-5.5,0.117,-0.19,99.99,5.0,,0.0,0.0,
2025-08-15T00:14:46.895Z,4,GR86-022-13,-5.5,0.129,-0.174,100.01,5.0,6453.0,0.0,0.0,
2025-08-15T00:14:46.938Z,4,GR86-022-13,-5.300000000000001,0.124,-0.185,100.0,5.0,,0.0,0.0,188.67
2025-08-15T00:14:46.981Z,4,GR86-022-13,-4.4,0.129,-0.168,100.0,5.0,,0.0,0.0,
2025-08-15T00:14:47.024Z,4,GR86-022-13,-4.0,0.112,-0.164,100.0,5.0,,0.0,0.0,
2025-08-15T00:14:47.068Z,4,GR86-022-13,-4.0,0.107,-0.153,100.01,5.0,,0.0,0.0,
2025-08-15T00:14:47.110Z,4,GR86-022-13,-4.0,0.116,-0.147,100.0,5.0,6481.0,0.0,0.0,
2025-08-15T00:14:47.154Z,4,GR86-022-13,-4.0,0.115,-0.142,100.0,5.0,,0.0,0.0,189.36
2025-08-15T00:14:47.198Z,4,GR86-022-13,-4.2,0.102,-0.085,99.99,5.0,,0.0,0.0,
2025-08-15T00:14:47.241Z,4,GR86-022-13,-4.2,0.111,-0.073,100.0,5.0,,0.0,0.0,
2025-08-15T00:14:47.284Z,4,GR86-022-13,-4.3,0.117,-0.094,99.99,5.0,,0.0,0.0,
2025-08-15T00:14:47.328Z,4,GR86-022-13,-4.3,0.087,-0.088,99.99,5.0,6508.0,0.0,0.0,
2025-08-15T00:14:47.371Z,4,GR86-022-13,-4.2,0.09,-0.092,100.0,5.0,,0.0,0.0,190.14
2025-08-15T00:14:47.414Z,4,GR86-022-13,-4.2,0.104,-0.1,99.99,5.0,,0.0,0.0,
2025-08-15T00:14:47.458Z,4,GR86-022-13,-4.3,0.093,-0.087,99.99,5.0,,0.0,0.0,
2025-08-15T00:14:47.500Z,4,GR86-022-13,-4.2,0.11,-0.101,100.0,5.0,,0.0,0.0,
2025-08-15T00:14:47.543Z,4,GR86-022-13,-4.3,0.088,-0.072,99.99,5.0,6532.0,0.0,0.0,
2025-08-15T00:14:47.587Z,4,GR86-022-13,-4.1000000000000005,0.081,-0.08,100.0,5.0,,0.0,0.0,190.79
2025-08-15T00:14:47.631Z,4,GR86-022-13,-3.8,0.095,-0.068,100.01,5.0,,0.0,0.0,
2025-08-15T00:14:47.674Z,4,GR86-022-13,-3.8,0.081,-0.069,99.98,5.0,,0.0,0.0,
2025-08-15T00:14:47.718Z,4,GR86-022-13,-3.8,0.081,-0.065,100.0,5.0,,0.0,0.0,
2025-08-15T00:14:47.760Z,4,GR86-022-13,-3.8,0.074,-0.08,100.02,5.0,6542.0,0.0,0.0,
2025-08-15T00:14:47.803Z,4,GR86-022-13,-3.9,0.101,-0.087,100.01,5.0,,0.0,0.0,191.57
2025-08-15T00:14:47.848Z,4,GR86-022-13,-4.6000000000000005,0.106,-0.06,100.02,5.0,,0.0,0.0,
2025-08-15T00:14:47.891Z,4,GR86-022-13,-4.800000000000001,0.078,-0.079,99.99,5.0,,0.0,0.0,
2025-08-15T00:14:47.934Z,4,GR86-022-13,-4.9,0.085,-0.083,99.99,5.0,,0.0,0.0,
2025-08-15T00:14:47.978Z,4,GR86-022-13,-5.0,0.088,-0.098,99.99,5.0,6568.0,0.0,0.0,
2025-08-15T00:14:48.020Z,4,GR86-022-13,-5.0,0.079,-0.094,100.0,5.0,,0.0,0.0,192.19
2025-08-15T00:14:48.063Z,4,GR86-022-13,-5.0,0.089,-0.105,100.02,5.0,,0.0,0.0,
2025-08-15T00:14:48.108Z,4,GR86-022-13,-3.7,0.101,-0.081,100.01,5.0,,0.0,0.0,
2025-08-15T00:14:48.151Z,4,GR86-022-13,-3.3000000000000003,0.081,-0.074,100.0,5.0,,0.0,0.0,
2025-08-15T00:14:48.194Z,4,GR86-022-13,-3.3000000000000003,0.081,-0.103,100.0,5.0,6583.0,0.0,0.0,
2025-08-15T00:14:48.238Z,4,GR86-022-13,-3.3000000000000003,0.088,-0.11,100.0,5.0,,0.0,0.0,193.36
2025-08-15T00:14:48.280Z,4,GR86-022-13,-3.0,0.095,-0.106,99.97,5.0,,0.0,0.0,
2025-08-15T00:14:48.323Z,4,GR86-022-13,-2.4000000000000004,0.081,-0.095,100.01,5.0,,0.0,0.0,
2025-08-15T00:14:48.367Z,4,GR86-022-13,-1.6,0.095,-0.062,99.99,5.0,,0.0,0.0,
2025-08-15T00:14:48.409Z,4,GR86-022-13,-0.4,0.097,-0.063,100.01,5.0,6607.0,0.0,0.0,
2025-08-15T00:14:48.452Z,4,GR86-022-13,0.8,0.105,-0.046,100.0,5.0,,11.78,11.995,193.94
2025-08-15T00:14:48.495Z,4,GR86-022-13,1.0,0.03,-0.023,99.99,5.0,,14.575,15.0,
2025-08-15T00:14:48.538Z,4,GR86-022-13,1.0,-0.097,-0.012,100.0,5.0,,12.39,12.895,
2025-08-15T00:14:48.581Z,4,GR86-022-13,1.0,-0.081,-0.022,100.0,5.0,,6.805,7.37,
2025-08-15T00:14:48.624Z,4,GR86-022-13,2.1,0.012,0.017,100.0,5.0,6624.0,11.245,11.675,
2025-08-15T00:14:48.668Z,4,GR86-022-13,4.2,-0.108,0.071,100.01,5.0,,12.3,12.805,194.43
2025-08-15T00:14:48.710Z,4,GR86-022-13,5.1000000000000005,-0.078,0.098,99.99,5.0,,6.365,6.575,
2025-08-15T00:14:48.753Z,4,GR86-022-13,5.4,0.02,0.11,99.99,5.0,,0.0,0.0,
2025-08-15T00:14:48.798Z,4,GR86-022-13,5.4,0.057,0.139,99.99,5.0,,0.0,0.0,
2025-08-15T00:14:48.840Z,4,GR86-022-13,5.4,0.084,0.162,99.99,5.0,6636.0,0.0,0.0,
2025-08-15T00:14:48.883Z,4,GR86-022-13,5.4,0.09,0.206,100.0,5.0,,0.0,0.0,194.24
2025-08-15T00:14:48.928Z,4,GR86-022-13,4.0,0.102,0.229,99.99,5.0,,0.0,0.0,
2025-08-15T00:14:48.971Z,4,GR86-022-13,2.6,0.1,0.236,100.0,5.0,,0.0,0.0,
2025-08-15T00:14:49.014Z,4,GR86-022-13,2.2,0.101,0.225,100.0,5.0,,0.0,0.0,
2025-08-15T00:14:49.058Z,4,GR86-022-13,2.2,0.083,0.203,99.99,5.0,6631.0,0.0,0.0,
2025-08-15T00:14:49.100Z,4,GR86-022-13,2.2,0.084,0.216,100.0,5.0,,0.0,0.0,193.66
2025-08-15T00:14:49.143Z,4,GR86-022-13,1.8,0.088,0.212,100.0,5.0,,0.0,0.0,
2025-08-15T00:14:49.188Z,4,GR86-022-13,1.6,0.093,0.202,100.01,5.0,,0.0,0.0,
2025-08-15T00:14:49.231Z,4,GR86-022-13,1.6,0.097,0.2,100.0,5.0,,0.0,0.0,
2025-08-15T00:14:49.274Z,4,GR86-022-13,1.6,0.094,0.169,100.0,5.0,6637.0,0.0,0.0,
2025-08-15T00:14:49.318Z,4,GR86-022-13,1.4,0.103,0.169,100.0,5.0,,0.0,0.0,194.46
2025-08-15T00:14:49.360Z,4,GR86-022-13,0.9,0.082,0.135,100.0,5.0,,0.0,0.0,
2025-08-15T00:14:49.403Z,4,GR86-022-13,0.8,0.083,0.109,99.99,5.0,,0.0,0.0,
2025-08-15T00:14:49.449Z,4,GR86-022-13,0.8,0.085,0.079,99.99,5.0,,0.0,0.0,
2025-08-15T00:14:49.491Z,4,GR86-022-13,0.9,0.099,0.076,100.0,5.0,6657.0,0.0,0.0,
2025-08-15T00:14:49.534Z,4,GR86-022-13,1.9,0.098,0.068,100.0,5.0,,0.0,0.0,194.87
2025-08-15T00:14:49.578Z,4,GR86-022-13,3.0,0.099,0.101,99.99,5.0,,0.0,0.0,
2025-08-15T00:14:49.620Z,4,GR86-022-13,3.4000000000000004,0.096,0.096,100.0,5.0,,0.0,0.0,
2025-08-15T00:14:49.663Z,4,GR86-022-13,3.4000000000000004,0.089,0.102,99.99,5.0,,0.0,0.0,
2025-08-15T00:14:49.708Z,4,GR86-022-13,3.4000000000000004,0.096,0.098,100.01,5.0,6675.0,0.0,0.0,
2025-08-15T00:14:49.751Z,4,GR86-022-13,2.5,0.093,0.1,99.99,5.0,,0.0,0.0,195.32
2025-08-15T00:14:49.794Z,4,GR86-022-13,0.6000000000000001,0.102,0.125,100.0,5.0,,0.0,0.0,
2025-08-15T00:14:49.881Z,4,GR86-022-13,-1.2000000000000002,0.072,0.131,100.0,5.0,,0.0,0.0,
2025-08-15T00:14:49.924Z,4,GR86-022-13,-0.7000000000000001,0.077,0.111,99.99,5.0,6678.0,0.0,0.0,
2025-08-15T00:14:49.968Z,4,GR86-022-13,-0.4,0.084,0.105,100.0,5.0,,0.0,0.0,195.65
2025-08-15T00:14:50.010Z,4,GR86-022-13,-0.8,0.085,0.085,100.01,5.0,,0.0,0.0,
2025-08-15T00:14:50.054Z,4,GR86-022-13,-0.8,0.083,0.081,100.0,5.0,,0.0,0.0,
2025-08-15T00:14:50.098Z,4,GR86-022-13,-0.8,0.087,0.072,100.0,5.0,,0.0,0.0,
2025-08-15T00:14:50.183Z,4,GR86-022-13,-1.0,0.081,0.049,100.02,5.0,6698.0,0.0,0.0,196.04
2025-08-15T00:14:50.228Z,4,GR86-022-13,-2.5,0.079,0.017,100.0,5.0,,0.0,0.0,
2025-08-15T00:14:50.271Z,4,GR86-022-13,-2.2,0.071,0.023,100.02,5.0,,0.0,0.0,
2025-08-15T00:14:50.314Z,4,GR86-022-13,0.0,0.076,0.012,100.0,5.0,,0.0,0.0,
2025-08-15T00:14:50.358Z,4,GR86-022-13,2.4000000000000004,0.062,-0.005,99.99,5.0,6715.0,0.0,0.0,
2025-08-15T00:14:50.400Z,4,GR86-022-13,3.3000000000000003,0.076,0.025,100.0,5.0,,0.0,0.0,196.42
2025-08-15T00:14:50.443Z,4,GR86-022-13,3.0,0.06,0.044,99.99,5.0,,0.0,0.0,
2025-08-15T00:14:50.488Z,4,GR86-022-13,0.3,0.085,0.066,100.0,5.0,,0.0,0.0,
2025-08-15T00:14:50.531Z,4,GR86-022-13,-2.1,0.087,0.04,99.99,5.0,,0.0,0.0,
2025-08-15T00:14:50.574Z,4,GR86-022-13,-4.5,0.082,0.052,99.99,5.0,6719.0,0.0,0.0,
2025-08-15T00:14:50.618Z,4,GR86-022-13,-5.800000000000001,0.07,0.04,99.99,5.0,,0.0,0.0,196.84
2025-08-15T00:14:50.660Z,4,GR86-022-13,-6.0,0.069,0.022,100.01,5.0,,0.0,0.0,
2025-08-15T00:14:50.703Z,4,GR86-022-13,-6.0,0.079,0.012,99.99,5.0,,5.0200000000000005,5.08,
2025-08-15T00:14:50.748Z,4,GR86-022-13,-6.0,-0.006,-0.028,100.0,5.0,,16.895,16.8,
2025-08-15T00:14:50.791Z,4,GR86-022-13,-6.0,-0.171,-0.072,99.24,5.0,6740.0,34.18,34.09,
2025-08-15T00:14:50.834Z,4,GR86-022-13,-6.0,-0.486,-0.09,44.78,5.0,,44.405,43.95,197.62
2025-08-15T00:14:50.878Z,4,GR86-022-13,-5.7,-0.622,-0.124,2.42,5.0,,46.74,46.465,
2025-08-15T00:14:50.920Z,4,GR86-022-13,-3.3000000000000003,-0.611,-0.108,2.9,5.0,,49.67,49.105,
2025-08-15T00:14:50.963Z,4,GR86-022-13,-1.0,-0.901,-0.121,2.86,5.0,,57.53,56.845,
2025-08-15T00:14:51.008Z,4,GR86-022-13,-2.2,-1.034,-0.109,2.81,5.0,6746.0,57.27,57.805,
2025-08-15T00:14:51.051Z,4,GR86-022-13,-3.0,-0.964,-0.147,2.75,5.0,,40.09,41.05,197.48
2025-08-15T00:14:51.094Z,4,GR86-022-13,0.9,-0.619,-0.15,2.7,5.0,,24.645,25.33,
2025-08-15T00:14:51.138Z,4,GR86-022-13,6.7,-0.592,-0.166,2.66,5.0,,13.825,14.205,
2025-08-15T00:14:51.180Z,4,GR86-022-13,8.6,-0.352,-0.117,2.63,5.0,,8.805,9.185,
2025-08-15T00:14:51.223Z,4,GR86-022-13,7.1000000000000005,-0.266,-0.073,2.6,5.0,6710.0,5.9350000000000005,6.0600000000000005,
2025-08-15T00:14:51.267Z,4,GR86-022-13,2.3000000000000003,-0.21,-0.01,2.57,5.0,,0.0,0.0,191.44
2025-08-15T00:14:51.309Z,4,GR86-022-13,-1.9,-0.17,0.031,2.54,5.0,,0.0,0.0,
2025-08-15T00:14:51.352Z,4,GR86-022-13,-3.8,-0.159,0.03,2.54,5.0,,0.0,0.0,
2025-08-15T00:14:51.395Z,4,GR86-022-13,-3.4000000000000004,-0.159,0.036,2.52,5.0,,0.0,0.0,
2025-08-15T00:14:51.438Z,4,GR86-022-13,-1.9,-0.162,0.054,2.52,5.0,6328.0,0.0,0.0,
2025-08-15T00:14:51.481Z,4,GR86-022-13,-1.2000000000000002,-0.167,0.073,2.51,5.0,,4.565,4.53,188.32
2025-08-15T00:14:51.524Z,4,GR86-022-13,-1.2000000000000002,-0.209,0.093,2.51,5.0,,9.935,9.995,
2025-08-15T00:14:51.568Z,4,GR86-022-13,-0.1,-0.361,0.089,2.51,5.0,,22.4,22.37,
2025-08-15T00:14:51.610Z,4,GR86-022-13,0.8,-0.496,0.083,2.51,5.0,,31.77,31.48,
2025-08-15T00:14:51.653Z,4,GR86-022-13,1.4,-0.628,0.067,8.32,5.0,6284.0,33.875,33.97,
2025-08-15T00:14:51.698Z,4,GR86-022-13,0.9,-0.599,0.066,53.61,5.0,,27.255,28.155,187.45
2025-08-15T00:14:51.741Z,4,GR86-022-13,0.6000000000000001,-0.476,0.044,96.4,4.0,,25.895,26.2,
2025-08-15T00:14:51.784Z,4,GR86-022-13,2.9000000000000004,-0.513,0.038,48.68,4.0,,27.745,27.62,
2025-08-15T00:14:51.828Z,4,GR86-022-13,4.5,-0.6930000000000001,0.074,3.09,4.0,,29.56,30.4,
2025-08-15T00:14:51.871Z,4,GR86-022-13,2.2,-0.5,0.056,2.62,4.0,6166.0,31.205,31.235,
2025-08-15T00:14:51.914Z,4,GR86-022-13,-1.4,-0.792,0.041,2.52,4.0,,35.86,35.615,185.65
2025-08-15T00:14:51.958Z,4,GR86-022-13,-4.0,-0.723,0.083,2.48,4.0,,39.935,39.46,
2025-08-15T00:14:52.000Z,4,GR86-022-13,-2.5,-0.723,-0.009,2.48,4.0,,37.77,38.255,
2025-08-15T00:14:52.043Z,4,GR86-022-13,2.9000000000000004,-0.66,0.022,2.47,4.0,,34.03,35.02,
2025-08-15T00:14:52.087Z,4,GR86-022-13,9.8,-0.727,0.109,2.47,4.0,6659.0,44.65,44.255,
2025-08-15T00:14:52.131Z,4,GR86-022-13,9.3,-0.879,0.119,2.45,4.0,,51.245000000000005,50.555,180.58
2025-08-15T00:14:52.174Z,4,GR86-022-13,4.6000000000000005,-0.867,0.147,2.45,4.0,,51.535,51.425,
2025-08-15T00:14:52.217Z,4,GR86-022-13,-0.2,-0.849,0.109,2.46,4.0,,48.83,49.64,
2025-08-15T00:14:52.260Z,4,GR86-022-13,-1.8,-0.839,0.097,2.48,4.0,,52.115,51.9,
2025-08-15T00:14:52.303Z,4,GR86-022-13,-1.8,-0.916,0.088,2.47,4.0,6673.0,62.595,61.85,
2025-08-15T00:14:52.348Z,4,GR86-022-13,-1.4,-1.047,0.093,2.48,4.0,,70.15,69.58500000000001,175.75
2025-08-15T00:14:52.391Z,4,GR86-022-13,-0.2,-1.079,0.091,2.48,4.0,,63.74,64.75,
2025-08-15T00:14:52.434Z,4,GR86-022-13,-0.2,-1.006,0.113,2.48,4.0,,52.115,53.24,
2025-08-15T00:14:52.478Z,4,GR86-022-13,0.8,-0.809,0.103,2.47,4.0,,37.145,38.32,
2025-08-15T00:14:52.520Z,4,GR86-022-13,1.6,-0.551,0.151,2.48,4.0,6434.0,32.78,33.19,
2025-08-15T00:14:52.563Z,4,GR86-022-13,1.4,-0.798,0.144,39.9,4.0,,36.18,36.12,170.61
2025-08-15T00:14:52.608Z,4,GR86-022-13,-4.4,-0.67,0.157,97.22,3.0,,38.255,38.745,
2025-08-15T00:14:52.651Z,4,GR86-022-13,-5.800000000000001,-0.6950000000000001,0.125,41.96,3.0,,37.235,37.555,
2025-08-15T00:14:52.694Z,4,GR86-022-13,-5.2,-0.729,0.051,4.42,3.0,,35.555,36.365,
2025-08-15T00:14:52.738Z,4,GR86-022-13,-1.7000000000000002,-0.708,0.129,2.82,3.0,6024.0,33.465,34.06,
2025-08-15T00:14:52.781Z,4,GR86-022-13,3.1,-0.532,0.041,2.6,3.0,,32.075,32.335,162.0
2025-08-15T00:14:52.824Z,4,GR86-022-13,4.3,-0.964,0.124,2.5500000000000003,3.0,,31.33,31.74,
2025-08-15T00:14:52.868Z,4,GR86-022-13,1.9,-0.533,0.112,2.51,3.0,,31.8,31.895,
2025-08-15T00:14:52.910Z,4,GR86-022-13,-0.6000000000000001,-0.72,0.064,2.51,3.0,,33.465,33.465,
2025-08-15T00:14:52.953Z,4,GR86-022-13,-1.8,-0.672,0.166,2.5,3.0,6023.0,40.3,40.3,
2025-08-15T00:14:52.997Z,4,GR86-022-13,-1.8,-0.733,0.033,2.51,3.0,,47.185,46.925,157.4
2025-08-15T00:14:53.040Z,4,GR86-022-13,-1.8,-0.81,0.026,2.5,3.0,,49.49,49.49,
2025-08-15T00:14:53.083Z,4,GR86-022-13,-1.9,-0.865,0.055,2.5,3.0,,50.465,50.71,
2025-08-15T00:14:53.128Z,4,GR86-022-13,-2.4000000000000004,-0.89,0.047,2.49,3.0,,54.74,54.525,
2025-08-15T00:14:53.171Z,4,GR86-022-13,-3.7,-0.961,0.033,2.49,3.0,6833.0,61.97,61.42,
2025-08-15T00:14:53.214Z,4,GR86-022-13,-4.2,-1.011,0.01,2.49,3.0,,66.99,66.64,153.21
2025-08-15T00:14:53.258Z,4,GR86-022-13,-4.5,-0.811,0.019,2.51,3.0,,68.44,68.09,
2025-08-15T00:14:53.300Z,4,GR86-022-13,-7.6,-0.944,0.006,2.5,3.0,,69.8,69.435,
2025-08-15T00:14:53.343Z,4,GR86-022-13,-14.8,-0.891,0.013,2.5,3.0,,64.0,64.96000000000001,
2025-08-15T00:14:53.388Z,4,GR86-022-13,-21.5,-0.684,-0.034,2.5,3.0,6656.0,52.615,53.21,
2025-08-15T00:14:53.431Z,4,GR86-022-13,-23.5,-0.971,-0.05,2.5,3.0,,54.89,55.67,141.47
2025-08-15T00:14:53.474Z,4,GR86-022-13,-25.5,-0.834,-0.051,2.51,3.0,,62.75,63.055,
2025-08-15T00:14:53.517Z,4,GR86-022-13,-26.700000000000003,-1.033,-0.143,2.51,3.0,,67.905,67.845,
2025-08-15T00:14:53.560Z,4,GR86-022-13,-28.4,-1.009,-0.089,2.51,3.0,,71.205,70.805,
2025-08-15T00:14:53.603Z,4,GR86-022-13,-28.5,-0.925,-0.09,2.51,3.0,6248.0,72.76,73.46000000000001,
2025-08-15T00:14:53.649Z,4,GR86-022-13,-23.0,-0.881,-0.254,2.51,3.0,,53.870000000000005,55.15,131.63
2025-08-15T00:14:53.691Z,4,GR86-022-13,-14.3,-0.742,-0.311,2.48,3.0,,44.16,44.775,
2025-08-15T00:14:53.734Z,4,GR86-022-13,-8.5,-0.8280000000000001,-0.261,2.5,3.0,,40.96,41.46,
2025-08-15T00:14:53.778Z,4,GR86-022-13,-8.0,-0.74,-0.337,2.5,3.0,,41.11,41.995,
2025-08-15T00:14:53.820Z,4,GR86-022-13,-7.9,-0.731,-0.356,2.48,3.0,5775.0,40.925,41.31,
2025-08-15T00:14:53.863Z,4,GR86-022-13,-3.6,-0.8170000000000001,-0.385,14.33,3.0,,36.67,36.96,124.73
2025-08-15T00:14:53.908Z,4,GR86-022-13,4.2,-0.5670000000000001,-0.35,85.0,2.0,,20.175,20.6,
2025-08-15T00:14:53.950Z,4,GR86-022-13,2.6,-0.406,-0.346,47.42,2.0,,8.575000000000001,8.85,
2025-08-15T00:14:53.993Z,4,GR86-022-13,-4.9,-0.513,-0.265,5.3,2.0,,6.2700000000000005,6.745,
2025-08-15T00:14:54.037Z,4,GR86-022-13,-10.7,-0.382,-0.29,3.3000000000000003,2.0,5466.0,13.885,14.27,
2025-08-15T00:14:54.080Z,4,GR86-022-13,-8.700000000000001,-0.348,-0.54,3.01,2.0,,13.46,13.52,121.65
2025-08-15T00:14:54.123Z,4,GR86-022-13,-5.5,-0.66,-0.43,2.89,2.0,,12.39,12.5,
2025-08-15T00:14:54.167Z,4,GR86-022-13,-5.5,-0.318,-0.358,2.73,2.0,,13.885,13.915,
2025-08-15T00:14:54.209Z,4,GR86-022-13,-7.0,-0.368,-0.558,2.66,2.0,,13.43,13.49,
2025-08-15T00:14:54.252Z,4,GR86-022-13,-14.6,-0.431,-0.382,2.61,2.0,6021.0,9.4,9.72,
2025-08-15T00:14:54.295Z,4,GR86-022-13,-21.8,-0.342,-0.436,2.58,2.0,,8.3,8.575000000000001,121.18
2025-08-15T00:14:54.338Z,4,GR86-022-13,-26.3,-0.338,-0.583,2.54,2.0,,7.46,7.86,
2025-08-15T00:14:54.381Z,4,GR86-022-13,-27.200000000000003,-0.326,-0.512,2.53,2.0,,5.86,6.18,
2025-08-15T00:14:54.424Z,4,GR86-022-13,-23.200000000000003,-0.276,-0.526,2.51,2.0,,5.525,5.615,
2025-08-15T00:14:54.468Z,4,GR86-022-13,-21.5,-0.259,-0.502,2.51,2.0,6400.0,2.365,2.4250000000000003,
2025-08-15T00:14:54.510Z,4,GR86-022-13,-25.1,-0.164,-0.471,2.5,2.0,,2.015,2.075,118.16
2025-08-15T00:14:54.554Z,4,GR86-022-13,-30.4,-0.209,-0.521,2.5,2.0,,2.015,2.075,
2025-08-15T00:14:54.598Z,4,GR86-022-13,-34.2,-0.206,-0.523,2.5,2.0,,2.365,2.4250000000000003,
2025-08-15T00:14:54.640Z,4,GR86-022-13,-37.4,-0.213,-0.5690000000000001,2.49,2.0,,2.395,2.58,
2025-08-15T00:14:54.683Z,4,GR86-022-13,-40.2,-0.225,-0.6,2.5,2.0,6432.0,2.075,2.245,
2025-08-15T00:14:54.728Z,4,GR86-022-13,-44.0,-0.193,-0.667,2.48,2.0,,0.0,0.0,114.74
2025-08-15T00:14:54.771Z,4,GR86-022-13,-46.400000000000006,-0.191,-0.6910000000000001,2.49,2.0,,0.0,0.0,
2025-08-15T00:14:54.814Z,4,GR86-022-13,-48.1,-0.195,-0.739,2.49,2.0,,0.0,0.0,
2025-08-15T00:14:54.858Z,4,GR86-022-13,-48.3,-0.201,-0.779,2.5,2.0,,0.0,0.0,
2025-08-15T00:14:54.900Z,4,GR86-022-13,-46.7,-0.2,-0.8130000000000001,2.5,2.0,6360.0,0.0,0.0,
2025-08-15T00:14:54.943Z,4,GR86-022-13,-41.400000000000006,-0.173,-0.849,2.49,2.0,,0.0,0.0,113.29
2025-08-15T00:14:54.988Z,4,GR86-022-13,-34.7,-0.158,-0.86,2.5,2.0,,0.0,0.0,
2025-08-15T00:14:55.031Z,4,GR86-022-13,-31.4,-0.182,-0.882,2.49,2.0,,0.0,0.0,
2025-08-15T00:14:55.074Z,4,GR86-022-13,-31.3,-0.157,-0.848,2.5,2.0,,0.0,0.0,
2025-08-15T00:14:55.117Z,4,GR86-022-13,-36.2,-0.145,-0.84,2.49,2.0,6257.0,0.0,0.0,
2025-08-15T00:14:55.160Z,4,GR86-022-13,-44.7,-0.163,-0.911,4.5,2.0,,0.0,0.0,111.97
2025-08-15T00:14:55.203Z,4,GR86-022-13,-53.2,-0.154,-0.901,4.58,2.0,,0.0,0.0,
2025-08-15T00:14:55.248Z,4,GR86-022-13,-57.0,-0.168,-0.94,9.8,2.0,,0.0,0.0,
2025-08-15T00:14:55.291Z,4,GR86-022-13,-56.400000000000006,-0.193,-0.968,20.69,2.0,,0.0,0.0,
2025-08-15T00:14:55.334Z,4,GR86-022-13,-53.8,-0.166,-0.955,27.2,2.0,6173.0,0.0,0.0,
2025-08-15T00:14:55.378Z,4,GR86-022-13,-50.400000000000006,-0.134,-0.973,31.42,2.0,,0.0,0.0,112.0
2025-08-15T00:14:55.420Z,4,GR86-022-13,-49.5,-0.107,-0.984,32.55,2.0,,0.0,0.0,
2025-08-15T00:14:55.463Z,4,GR86-022-13,-49.3,-0.067,-0.987,33.59,2.0,,0.0,0.0,
2025-08-15T00:14:55.508Z,4,GR86-022-13,-48.7,0.071,-0.981,35.980000000000004,2.0,,0.0,0.0,
2025-08-15T00:14:55.550Z,4,GR86-022-13,-48.400000000000006,0.282,-0.894,35.97,2.0,6086.0,0.0,0.0,
2025-08-15T00:14:55.593Z,4,GR86-022-13,-46.3,0.226,-0.925,36.17,2.0,,0.0,0.0,110.63
2025-08-15T00:14:55.637Z,4,GR86-022-13,-45.5,0.153,-0.907,35.92,2.0,,0.0,0.0,
2025-08-15T00:14:55.679Z,4,GR86-022-13,-45.7,0.172,-0.927,34.83,2.0,,0.0,0.0,
2025-08-15T00:14:55.722Z,4,GR86-022-13,-46.2,0.15,-0.974,33.21,2.0,,0.0,0.0,
2025-08-15T00:14:55.765Z,4,GR86-022-13,-46.400000000000006,0.146,-0.978,31.56,2.0,6115.0,0.0,0.0,
2025-08-15T00:14:55.808Z,4,GR86-022-13,-47.6,0.153,-0.966,31.21,2.0,,0.0,0.0,109.16
2025-08-15T00:14:55.851Z,4,GR86-022-13,-49.5,0.142,-0.963,31.29,2.0,,0.0,0.0,
2025-08-15T00:14:55.894Z,4,GR86-022-13,-51.0,0.09,-0.921,31.68,2.0,,0.0,0.0,
2025-08-15T00:14:55.938Z,4,GR86-022-13,-52.400000000000006,0.122,-0.955,32.1,2.0,,0.0,0.0,
2025-08-15T00:14:55.980Z,4,GR86-022-13,-52.1,0.112,-0.947,32.31,2.0,6339.0,0.0,0.0,
2025-08-15T00:14:56.023Z,4,GR86-022-13,-47.0,0.13,-0.963,32.980000000000004,2.0,,0.0,0.0,108.62
2025-08-15T00:14:56.067Z,4,GR86-022-13,-34.9,0.164,-0.873,33.71,2.0,,0.0,0.0,
2025-08-15T00:14:56.109Z,4,GR86-022-13,-31.8,0.122,-0.944,34.88,2.0,,0.0,0.0,
2025-08-15T00:14:56.152Z,4,GR86-022-13,-35.5,0.119,-0.857,35.550000000000004,2.0,,0.0,0.0,
2025-08-15T00:14:56.195Z,4,GR86-022-13,-41.8,0.135,-0.967,36.59,2.0,6351.0,0.0,0.0,
2025-08-15T00:14:56.238Z,4,GR86-022-13,-50.3,0.128,-0.936,39.46,2.0,,0.0,0.0,108.97
2025-08-15T00:14:56.281Z,4,GR86-022-13,-58.3,0.169,-0.952,46.45,2.0,,0.0,0.0,
2025-08-15T00:14:56.324Z,4,GR86-022-13,-60.3,0.148,-0.934,52.74,2.0,,0.0,0.0,
2025-08-15T00:14:56.368Z,4,GR86-022-13,-52.6,0.175,-0.916,52.65,2.0,,0.0,0.0,
2025-08-15T00:14:56.410Z,4,GR86-022-13,-47.0,0.179,-0.901,52.47,2.0,6377.0,0.0,0.0,
2025-08-15T00:14:56.454Z,4,GR86-022-13,-41.7,0.199,-0.927,52.39,2.0,,0.0,0.0,109.38
2025-08-15T00:14:56.498Z,4,GR86-022-13,-39.900000000000006,0.223,-0.946,50.19,2.0,,0.0,0.0,
2025-08-15T00:14:56.541Z,4,GR86-022-13,-41.3,0.227,-0.996,43.69,2.0,,0.0,0.0,
2025-08-15T00:14:56.585Z,4,GR86-022-13,-43.5,0.217,-0.93,40.68,2.0,,0.0,0.0,
2025-08-15T00:14:56.628Z,4,GR86-022-13,-45.0,0.188,-0.999,39.63,2.0,6537.0,0.0,0.0,
2025-08-15T00:14:56.671Z,4,GR86-022-13,-44.5,0.178,-0.984,40.95,2.0,,0.0,0.0,109.66
2025-08-15T00:14:56.714Z,4,GR86-022-13,-44.5,0.166,-0.987,40.88,2.0,,0.0,0.0,
2025-08-15T00:14:56.758Z,4,GR86-022-13,-45.5,0.154,-1.012,40.91,2.0,,0.0,0.0,
2025-08-15T00:14:56.800Z,4,GR86-022-13,-48.900000000000006,0.149,-1.019,41.16,2.0,,0.0,0.0,
2025-08-15T00:14:56.843Z,4,GR86-022-13,-51.5,0.169,-0.991,40.38,2.0,6553.0,0.0,0.0,
2025-08-15T00:14:56.887Z,4,GR86-022-13,-49.5,0.151,-1.02,41.3,2.0,,0.0,0.0,110.58
2025-08-15T00:14:56.931Z,4,GR86-022-13,-48.2,0.161,-0.972,39.78,2.0,,0.0,0.0,
2025-08-15T00:14:56.974Z,4,GR86-022-13,-49.0,0.178,-1.116,39.61,2.0,,0.0,0.0,
2025-08-15T00:14:57.017Z,4,GR86-022-13,-49.7,0.251,-1.291,39.56,2.0,,0.0,0.0,
2025-08-15T00:14:57.060Z,4,GR86-022-13,-49.7,0.198,-1.138,40.83,2.0,6594.0,0.0,0.0,
2025-08-15T00:14:57.103Z,4,GR86-022-13,-50.5,0.135,-1.022,55.88,2.0,,0.0,0.0,111.36
2025-08-15T00:14:57.148Z,4,GR86-022-13,-56.900000000000006,0.19,-1.014,56.51,2.0,,0.0,0.0,
2025-08-15T00:14:57.191Z,4,GR86-022-13,-59.2,0.23,-0.971,54.35,2.0,,0.0,0.0,
2025-08-15T00:14:57.234Z,4,GR86-022-13,-57.8,0.225,-0.946,59.57,2.0,,0.0,0.0,
2025-08-15T00:14:57.278Z,4,GR86-022-13,-56.6,0.221,-0.942,95.0,2.0,6614.0,0.0,0.0,
2025-08-15T00:14:57.320Z,4,GR86-022-13,-57.1,0.213,-0.917,100.1,2.0,,0.0,0.0,111.69
2025-08-15T00:14:57.363Z,4,GR86-022-13,-55.400000000000006,0.204,-0.927,100.14,2.0,,0.0,0.0,
2025-08-15T00:14:57.408Z,4,GR86-022-13,-51.6,0.198,-0.909,100.14,2.0,,0.0,0.0,
2025-08-15T00:14:57.451Z,4,GR86-022-13,-46.8,0.213,-0.937,100.11,2.0,,0.0,0.0,
2025-08-15T00:14:57.494Z,4,GR86-022-13,-42.900000000000006,0.214,-0.967,100.13,2.0,6674.0,0.0,0.0,
2025-08-15T00:14:57.538Z,4,GR86-022-13,-38.5,0.223,-1.011,100.12,2.0,,0.0,0.0,112.18
2025-08-15T00:14:57.580Z,4,GR86-022-13,-29.5,0.257,-0.999,100.13,2.0,,0.0,0.0,
2025-08-15T00:14:57.623Z,4,GR86-022-13,-17.900000000000002,0.232,-0.948,100.12,2.0,,0.0,0.0,
2025-08-15T00:14:57.667Z,4,GR86-022-13,-6.800000000000001,0.217,-0.909,100.13,2.0,,0.0,0.0,
2025-08-15T00:14:57.709Z,4,GR86-022-13,-10.8,0.233,-0.912,100.13,2.0,6722.0,0.0,0.0,
2025-08-15T00:14:57.752Z,4,GR86-022-13,-19.200000000000003,0.263,-0.933,100.12,2.0,,0.0,0.0,113.17
2025-08-15T00:14:57.795Z,4,GR86-022-13,-22.6,0.228,-0.958,100.12,2.0,,0.0,0.0,
2025-08-15T00:14:57.838Z,4,GR86-022-13,-14.4,0.203,-0.99,100.11,2.0,,0.0,0.0,
2025-08-15T00:14:57.881Z,4,GR86-022-13,1.3,0.203,-0.963,100.09,2.0,,0.0,0.0,
2025-08-15T00:14:57.925Z,4,GR86-022-13,16.0,0.222,-0.909,100.09,2.0,6840.0,0.0,0.0,
2025-08-15T00:14:57.968Z,4,GR86-022-13,21.5,0.273,-0.833,100.12,2.0,,0.0,0.0,114.69
2025-08-15T00:14:58.011Z,4,GR86-022-13,8.8,0.311,-0.8280000000000001,100.15,2.0,,0.0,0.0,
2025-08-15T00:14:58.054Z,4,GR86-022-13,-10.2,0.298,-0.893,100.11,2.0,,0.0,0.0,
2025-08-15T00:14:58.098Z,4,GR86-022-13,-22.200000000000003,0.257,-0.907,100.08,2.0,,0.0,0.0,
2025-08-15T00:14:58.140Z,4,GR86-022-13,-17.8,0.205,-0.906,100.1,2.0,6978.0,0.0,0.0,
2025-08-15T00:14:58.183Z,4,GR86-022-13,1.9,0.181,-0.916,100.09,2.0,,0.0,0.0,115.65
2025-08-15T00:14:58.228Z,4,GR86-022-13,9.5,0.251,-0.803,100.11,2.0,,0.0,0.0,
2025-08-15T00:14:58.271Z,4,GR86-022-13,-4.2,0.33,-0.809,100.11,2.0,,0.0,0.0,
2025-08-15T00:14:58.314Z,4,GR86-022-13,-17.7,0.35,-0.806,100.11,2.0,,0.0,0.0,
2025-08-15T00:14:58.358Z,4,GR86-022-13,-35.0,0.305,-0.8170000000000001,100.08,2.0,7111.0,0.0,0.0,
2025-08-15T00:14:58.400Z,4,GR86-022-13,-37.9,0.247,-0.865,100.07,2.0,,0.0,0.0,116.44
2025-08-15T00:14:58.443Z,4,GR86-022-13,-36.9,0.204,-0.926,100.07,2.0,,0.0,0.0,
2025-08-15T00:14:58.488Z,4,GR86-022-13,-37.4,0.272,-0.896,100.06,2.0,,0.0,0.0,
2025-08-15T00:14:58.531Z,4,GR86-022-13,-38.1,0.307,-0.928,100.06,2.0,,0.0,0.0,
2025-08-15T00:14:58.574Z,4,GR86-022-13,-37.5,0.307,-0.866,100.07,2.0,7220.0,0.0,0.0,
2025-08-15T00:14:58.618Z,4,GR86-022-13,-37.3,0.274,-0.807,100.07,2.0,,0.0,0.0,117.26
2025-08-15T00:14:58.660Z,4,GR86-022-13,-36.6,0.284,-0.8290000000000001,100.05,2.0,,0.0,0.0,
2025-08-15T00:14:58.703Z,4,GR86-022-13,-33.9,0.275,-0.744,100.07,2.0,,0.0,0.0,
2025-08-15T00:14:58.749Z,4,GR86-022-13,-24.200000000000003,0.142,-0.621,100.05,2.0,,0.0,0.0,
2025-08-15T00:14:58.791Z,4,GR86-022-13,-13.6,0.16,-0.717,100.06,2.0,7081.0,0.0,0.0,
2025-08-15T00:14:58.834Z,4,GR86-022-13,-2.5,0.2,-0.707,100.03,2.0,,0.0,0.0,118.71
2025-08-15T00:14:58.878Z,4,GR86-022-13,7.7,0.245,-0.719,100.07,2.0,,0.0,0.0,
2025-08-15T00:14:58.920Z,4,GR86-022-13,11.5,0.38,-0.668,100.05,2.0,,0.0,0.0,
2025-08-15T00:14:58.963Z,4,GR86-022-13,12.4,0.361,-0.756,100.03,2.0,,0.0,0.0,
2025-08-15T00:14:59.008Z,4,GR86-022-13,4.1000000000000005,0.157,-0.481,100.05,2.0,7059.0,0.0,0.0,
2025-08-15T00:14:59.051Z,4,GR86-022-13,-6.800000000000001,0.164,-0.479,100.03,2.0,,0.0,0.0,119.8
2025-08-15T00:14:59.094Z,4,GR86-022-13,-24.6,-0.129,-0.502,100.03,3.0,,0.0,0.0,
2025-08-15T00:14:59.138Z,4,GR86-022-13,-37.3,0.238,-0.51,100.04,3.0,,0.0,0.0,
2025-08-15T00:14:59.181Z,4,GR86-022-13,-39.2,0.506,-0.5710000000000001,100.04,3.0,,0.0,0.0,
2025-08-15T00:14:59.225Z,4,GR86-022-13,-35.1,0.139,-0.582,100.03,3.0,7190.0,0.0,0.0,
2025-08-15T00:14:59.268Z,4,GR86-022-13,-23.4,0.18,-0.378,100.03,3.0,,0.0,0.0,121.51
2025-08-15T00:14:59.311Z,4,GR86-022-13,-11.6,0.107,-0.583,100.02,3.0,,0.0,0.0,
2025-08-15T00:14:59.354Z,4,GR86-022-13,-6.7,0.146,-0.501,100.04,3.0,,0.0,0.0,
2025-08-15T00:14:59.398Z,4,GR86-022-13,-1.4,0.344,-0.604,100.01,3.0,,0.0,0.0,
2025-08-15T00:14:59.440Z,4,GR86-022-13,1.8,0.454,-0.547,100.0,3.0,6217.0,0.0,0.0,
2025-08-15T00:14:59.483Z,4,GR86-022-13,5.7,0.332,-0.55,100.02,3.0,,0.0,0.0,122.56
2025-08-15T00:14:59.528Z,4,GR86-022-13,13.5,0.345,-0.587,99.99,3.0,,0.0,0.0,
2025-08-15T00:14:59.571Z,4,GR86-022-13,20.5,0.233,-0.532,100.0,3.0,,0.0,0.0,
2025-08-15T00:14:59.614Z,4,GR86-022-13,32.800000000000004,0.148,-0.353,100.0,3.0,,0.0,0.0,
2025-08-15T00:14:59.658Z,4,GR86-022-13,37.0,0.133,-0.502,100.0,3.0,6310.0,0.0,0.0,
2025-08-15T00:14:59.700Z,4,GR86-022-13,33.300000000000004,0.332,-0.433,100.0,3.0,,0.0,0.0,123.59
2025-08-15T00:14:59.743Z,4,GR86-022-13,26.4,0.341,-0.636,99.97,3.0,,0.0,0.0,
2025-08-15T00:14:59.788Z,4,GR86-022-13,30.8,0.174,-0.548,99.97,3.0,,0.0,0.0,
2025-08-15T00:14:59.831Z,4,GR86-022-13,34.2,0.244,-0.662,99.99,3.0,,0.0,0.0,
2025-08-15T00:14:59.874Z,4,GR86-022-13,21.0,0.226,-0.532,99.98,3.0,6284.0,0.0,0.0,
2025-08-15T00:14:59.918Z,4,GR86-022-13,0.5,0.264,-0.551,100.01,3.0,,0.0,0.0,124.73
2025-08-15T00:14:59.960Z,4,GR86-022-13,-13.9,0.273,-0.523,100.0,3.0,,0.0,0.0,
2025-08-15T00:15:00.048Z,4,GR86-022-13,0.6000000000000001,0.235,-0.241,99.98,3.0,,0.0,0.0,
2025-08-15T00:15:00.091Z,4,GR86-022-13,7.2,0.289,-0.178,99.97,3.0,6097.0,0.0,0.0,
2025-08-15T00:15:00.134Z,4,GR86-022-13,8.9,0.245,0.017,99.97,3.0,,0.0,0.0,126.06
2025-08-15T00:15:00.178Z,4,GR86-022-13,7.9,0.259,0.061,99.99,3.0,,0.0,0.0,
2025-08-15T00:15:00.220Z,4,GR86-022-13,5.2,0.255,0.122,100.0,3.0,,0.0,0.0,
2025-08-15T00:15:00.263Z,4,GR86-022-13,3.4000000000000004,0.239,0.167,99.98,3.0,,0.0,0.0,
2025-08-15T00:15:00.308Z,4,GR86-022-13,3.2,0.205,0.176,100.0,3.0,6089.0,0.0,0.0,
2025-08-15T00:15:00.351Z,4,GR86-022-13,2.5,0.212,0.196,99.98,3.0,,0.0,0.0,127.28
2025-08-15T00:15:00.394Z,4,GR86-022-13,1.1,0.218,0.201,100.02,3.0,,0.0,0.0,
2025-08-15T00:15:00.438Z,4,GR86-022-13,0.8,0.223,0.198,99.99,3.0,,0.0,0.0,
2025-08-15T00:15:00.480Z,4,GR86-022-13,0.8,0.223,0.2,100.0,3.0,,0.0,0.0,
2025-08-15T00:15:00.523Z,4,GR86-022-13,0.8,0.217,0.211,100.0,3.0,6105.0,0.0,0.0,
2025-08-15T00:15:00.567Z,4,GR86-022-13,0.8,0.221,0.172,100.0,3.0,,0.0,0.0,128.86
2025-08-15T00:15:00.609Z,4,GR86-022-13,0.9,0.205,0.166,100.0,3.0,,0.0,0.0,
2025-08-15T00:15:00.652Z,4,GR86-022-13,1.0,0.219,0.143,100.01,3.0,,0.0,0.0,
2025-08-15T00:15:00.695Z,4,GR86-022-13,1.1,0.213,0.138,99.99,3.0,,0.0,0.0,
2025-08-15T00:15:00.738Z,4,GR86-022-13,1.6,0.223,0.137,99.99,3.0,6184.0,0.0,0.0,
2025-08-15T00:15:00.781Z,4,GR86-022-13,2.9000000000000004,0.212,0.127,100.0,3.0,,0.0,0.0,130.27
2025-08-15T00:15:00.824Z,4,GR86-022-13,4.800000000000001,0.227,0.121,99.98,3.0,,0.0,0.0,
2025-08-15T00:15:00.868Z,4,GR86-022-13,6.2,0.221,0.122,100.01,3.0,,0.0,0.0,
2025-08-15T00:15:00.953Z,4,GR86-022-13,6.2,0.209,0.126,99.99,3.0,6245.0,0.0,0.0,
2025-08-15T00:15:00.998Z,4,GR86-022-13,6.9,0.208,0.177,100.0,3.0,,0.0,0.0,131.77
2025-08-15T00:15:01.041Z,4,GR86-022-13,7.1000000000000005,0.224,0.194,100.02,3.0,,0.0,0.0,
2025-08-15T00:15:01.084Z,4,GR86-022-13,6.2,0.226,0.196,100.0,3.0,,0.0,0.0,
2025-08-15T00:15:01.128Z,4,GR86-022-13,2.4000000000000004,0.216,0.199,100.0,3.0,,0.0,0.0,
2025-08-15T00:15:01.171Z,4,GR86-022-13,0.8,0.192,0.176,100.0,3.0,6315.0,0.0,0.0,
2025-08-15T00:15:01.214Z,4,GR86-022-13,0.6000000000000001,0.204,0.188,100.0,3.0,,0.0,0.0,133.21
2025-08-15T00:15:01.257Z,4,GR86-022-13,1.5,0.212,0.19,99.99,3.0,,0.0,0.0,
2025-08-15T00:15:01.300Z,4,GR86-022-13,1.9,0.227,0.182,100.02,3.0,,0.0,0.0,
2025-08-15T00:15:01.343Z,4,GR86-022-13,1.8,0.22,0.174,100.01,3.0,,0.0,0.0,
2025-08-15T00:15:01.387Z,4,GR86-022-13,0.5,0.205,0.189,100.01,3.0,6390.0,0.0,0.0,
2025-08-15T00:15:01.431Z,4,GR86-022-13,0.3,0.195,0.173,100.0,3.0,,0.0,0.0,136.22
2025-08-15T00:15:01.474Z,4,GR86-022-13,0.4,0.214,0.166,99.99,3.0,,0.0,0.0,
2025-08-15T00:15:01.518Z,4,GR86-022-13,0.5,0.217,0.152,100.0,3.0,,0.0,0.0,
2025-08-15T00:15:01.560Z,4,GR86-022-13,0.5,0.22,0.131,100.0,3.0,,0.0,0.0,
2025-08-15T00:15:01.603Z,4,GR86-022-13,0.5,0.202,0.118,100.0,3.0,6463.0,0.0,0.0,
2025-08-15T00:15:01.648Z,4,GR86-022-13,0.6000000000000001,0.2,0.119,100.0,3.0,,0.0,0.0,137.77
2025-08-15T00:15:01.691Z,4,GR86-022-13,1.0,0.198,0.107,100.0,3.0,,0.0,0.0,
2025-08-15T00:15:01.734Z,4,GR86-022-13,1.8,0.193,0.132,100.0,3.0,,0.0,0.0,
2025-08-15T00:15:01.778Z,4,GR86-022-13,2.2,0.215,0.131,100.0,3.0,,0.0,0.0,
2025-08-15T00:15:01.820Z,4,GR86-022-13,2.2,0.21,0.134,99.99,3.0,6532.0,0.0,0.0,
2025-08-15T00:15:01.863Z,4,GR86-022-13,2.2,0.204,0.119,99.97,3.0,,0.0,0.0,139.33
2025-08-15T00:15:01.908Z,4,GR86-022-13,2.2,0.199,0.13,100.0,3.0,,0.0,0.0,
2025-08-15T00:15:01.950Z,4,GR86-022-13,2.2,0.186,0.142,100.02,3.0,,0.0,0.0,
2025-08-15T00:15:02.036Z,4,GR86-022-13,3.3000000000000003,0.225,0.164,99.99,3.0,6678.0,0.0,0.0,
2025-08-15T00:15:02.079Z,4,GR86-022-13,3.4000000000000004,0.215,0.143,100.0,3.0,,0.0,0.0,140.8
2025-08-15T00:15:02.122Z,4,GR86-022-13,3.4000000000000004,0.19,0.165,100.0,3.0,,0.0,0.0,
2025-08-15T00:15:02.165Z,4,GR86-022-13,3.4000000000000004,0.188,0.159,100.0,3.0,,0.0,0.0,
2025-08-15T00:15:02.209Z,4,GR86-022-13,4.1000000000000005,0.202,0.168,99.99,3.0,,0.0,0.0,
2025-08-15T00:15:02.252Z,4,GR86-022-13,5.0,0.178,0.178,100.01,3.0,6770.0,0.0,0.0,
2025-08-15T00:15:02.295Z,4,GR86-022-13,5.2,0.186,0.179,100.0,3.0,,0.0,0.0,142.3
2025-08-15T00:15:02.338Z,4,GR86-022-13,4.800000000000001,0.218,0.214,99.99,3.0,,0.0,0.0,
2025-08-15T00:15:02.381Z,4,GR86-022-13,3.6,0.221,0.209,99.99,3.0,,0.0,0.0,
2025-08-15T00:15:02.424Z,4,GR86-022-13,2.4000000000000004,0.204,0.208,100.0,3.0,,0.0,0.0,
2025-08-15T00:15:02.468Z,4,GR86-022-13,1.6,0.212,0.206,100.01,3.0,6822.0,0.0,0.0,
2025-08-15T00:15:02.510Z,4,GR86-022-13,1.6,0.195,0.187,100.02,3.0,,0.0,0.0,143.94
2025-08-15T00:15:02.554Z,4,GR86-022-13,1.6,0.18,0.177,100.0,3.0,,0.0,0.0,
2025-08-15T00:15:02.598Z,4,GR86-022-13,1.5,0.178,0.182,99.99,3.0,,0.0,0.0,
2025-08-15T00:15:02.640Z,4,GR86-022-13,1.1,0.209,0.182,100.01,3.0,,0.0,0.0,
2025-08-15T00:15:02.683Z,4,GR86-022-13,0.3,0.223,0.184,100.01,3.0,6887.0,0.0,0.0,
2025-08-15T00:15:02.728Z,4,GR86-022-13,-1.5,0.197,0.157,100.0,3.0,,0.0,0.0,145.72
2025-08-15T00:15:02.771Z,4,GR86-022-13,-2.2,0.209,0.142,100.0,3.0,,0.0,0.0,
2025-08-15T00:15:02.814Z,4,GR86-022-13,-2.3000000000000003,0.202,0.117,100.0,3.0,,0.0,0.0,
2025-08-15T00:15:02.857Z,4,GR86-022-13,-2.3000000000000003,0.179,0.1,99.99,3.0,,0.0,0.0,
2025-08-15T00:15:02.900Z,4,GR86-022-13,-2.3000000000000003,0.175,0.097,100.01,3.0,6980.0,0.0,0.0,
2025-08-15T00:15:02.943Z,4,GR86-022-13,-2.3000000000000003,0.195,0.086,99.98,3.0,,0.0,0.0,147.33
2025-08-15T00:15:02.988Z,4,GR86-022-13,-2.9000000000000004,0.193,0.057,100.0,3.0,,0.0,0.0,
2025-08-15T00:15:03.031Z,4,GR86-022-13,-3.9,0.142,0.048,100.02,3.0,,0.0,0.0,
2025-08-15T00:15:03.074Z,4,GR86-022-13,-4.4,0.181,0.028,100.0,3.0,,0.0,0.0,
2025-08-15T00:15:03.117Z,4,GR86-022-13,-4.4,0.192,0.031,100.0,3.0,7051.0,0.0,0.0,
2025-08-15T00:15:03.160Z,4,GR86-022-13,-4.4,0.221,-0.008,100.0,3.0,,0.0,0.0,149.1
2025-08-15T00:15:03.203Z,4,GR86-022-13,-4.4,0.182,-0.043,100.0,3.0,,0.0,0.0,
2025-08-15T00:15:03.249Z,4,GR86-022-13,-4.5,0.183,-0.041,100.0,3.0,,0.0,0.0,
2025-08-15T00:15:03.291Z,4,GR86-022-13,-4.7,0.19,-0.068,100.0,3.0,,0.0,0.0,
2025-08-15T00:15:03.334Z,4,GR86-022-13,-5.4,0.178,-0.055,100.01,3.0,7112.0,0.0,0.0,
2025-08-15T00:15:03.378Z,4,GR86-022-13,-6.6000000000000005,0.168,-0.072,100.01,3.0,,0.0,0.0,150.71
2025-08-15T00:15:03.420Z,4,GR86-022-13,-7.5,0.174,-0.096,99.98,3.0,,0.0,0.0,
2025-08-15T00:15:03.463Z,4,GR86-022-13,-8.0,0.178,-0.102,99.99,3.0,,0.0,0.0,
2025-08-15T00:15:03.508Z,4,GR86-022-13,-8.0,0.167,-0.134,100.0,3.0,,0.0,0.0,
2025-08-15T00:15:03.551Z,4,GR86-022-13,-8.0,0.104,-0.155,99.97,4.0,7183.0,0.0,0.0,
2025-08-15T00:15:03.594Z,4,GR86-022-13,-8.0,-0.119,-0.113,100.0,4.0,,0.0,0.0,152.42000000000002
2025-08-15T00:15:03.638Z,4,GR86-022-13,-7.9,0.531,-0.108,99.99,4.0,,0.0,0.0,
2025-08-15T00:15:03.681Z,4,GR86-022-13,-7.9,0.292,-0.249,100.0,4.0,,0.0,0.0,
2025-08-15T00:15:03.724Z,4,GR86-022-13,-8.5,0.114,-0.185,99.98,4.0,,0.0,0.0,
2025-08-15T00:15:03.768Z,4,GR86-022-13,-9.5,0.107,-0.238,100.0,4.0,7268.0,0.0,0.0,
2025-08-15T00:15:03.810Z,4,GR86-022-13,-10.0,0.214,-0.259,99.99,4.0,,0.0,0.0,153.99
2025-08-15T00:15:03.853Z,4,GR86-022-13,-10.5,0.186,-0.184,99.98,4.0,,3.405,3.725,
2025-08-15T00:15:03.898Z,4,GR86-022-13,-10.6,0.12,-0.279,99.99,4.0,,8.395,8.635,
2025-08-15T00:15:03.940Z,4,GR86-022-13,-10.6,0.034,-0.275,100.01,4.0,,6.3,6.625,
2025-08-15T00:15:03.983Z,4,GR86-022-13,-10.6,0.1,-0.214,99.99,4.0,6663.0,3.19,3.755,
2025-08-15T00:15:04.028Z,4,GR86-022-13,-10.6,0.074,-0.276,99.99,4.0,,9.43,9.52,157.1
2025-08-15T00:15:04.071Z,4,GR86-022-13,-10.6,-0.037,-0.26,100.0,4.0,,9.34,9.63,
2025-08-15T00:15:04.114Z,4,GR86-022-13,-10.3,0.02,-0.261,100.0,4.0,,6.3950000000000005,6.99,
2025-08-15T00:15:04.157Z,4,GR86-022-13,-9.8,0.083,-0.275,100.01,4.0,,5.465,5.83,
2025-08-15T00:15:04.200Z,4,GR86-022-13,-9.7,0.093,-0.271,99.98,4.0,6262.0,2.61,2.855,
2025-08-15T00:15:04.243Z,4,GR86-022-13,-9.7,0.114,-0.281,100.01,4.0,,0.0,0.0,158.16
2025-08-15T00:15:04.288Z,4,GR86-022-13,-10.0,0.15,-0.294,100.0,4.0,,2.245,2.275,
2025-08-15T00:15:04.331Z,4,GR86-022-13,-10.0,0.132,-0.265,100.01,4.0,,0.0,0.0,
2025-08-15T00:15:04.374Z,4,GR86-022-13,-10.0,0.153,-0.278,100.0,4.0,,0.0,0.0,
2025-08-15T00:15:04.418Z,4,GR86-022-13,-10.0,0.163,-0.282,100.0,4.0,6261.0,0.0,0.0,
2025-08-15T00:15:04.460Z,4,GR86-022-13,-9.7,0.152,-0.281,100.0,4.0,,0.0,0.0,158.28
2025-08-15T00:15:04.503Z,4,GR86-022-13,-9.7,0.145,-0.313,100.01,4.0,,0.0,0.0,
2025-08-15T00:15:04.548Z,4,GR86-022-13,-9.4,0.159,-0.283,100.0,4.0,,0.0,0.0,
2025-08-15T00:15:04.591Z,4,GR86-022-13,-8.3,0.158,-0.303,100.0,4.0,,0.0,0.0,
2025-08-15T00:15:04.634Z,4,GR86-022-13,-6.7,0.147,-0.293,100.01,4.0,6344.0,0.0,0.0,
2025-08-15T00:15:04.678Z,4,GR86-022-13,-5.9,0.145,-0.266,100.0,4.0,,0.0,0.0,159.62
2025-08-15T00:15:04.720Z,4,GR86-022-13,-5.800000000000001,0.135,-0.244,100.01,4.0,,0.0,0.0,
2025-08-15T00:15:04.763Z,4,GR86-022-13,-5.800000000000001,0.138,-0.24,100.0,4.0,,0.0,0.0,
2025-08-15T00:15:04.808Z,4,GR86-022-13,-5.800000000000001,0.147,-0.222,100.0,4.0,,0.0,0.0,
2025-08-15T00:15:04.851Z,4,GR86-022-13,-5.800000000000001,0.168,-0.22,100.0,4.0,6390.0,0.0,0.0,
2025-08-15T00:15:04.894Z,4,GR86-022-13,-5.800000000000001,0.143,-0.195,99.98,4.0,,0.0,0.0,161.1
2025-08-15T00:15:04.938Z,4,GR86-022-13,-5.800000000000001,0.135,-0.175,100.01,4.0,,0.0,0.0,
2025-08-15T00:15:04.980Z,4,GR86-022-13,-5.800000000000001,0.13,-0.164,100.0,4.0,,0.0,0.0,
2025-08-15T00:15:05.023Z,4,GR86-022-13,-5.800000000000001,0.136,-0.145,99.99,4.0,,0.0,0.0,
2025-08-15T00:15:05.067Z,4,GR86-022-13,-5.800000000000001,0.142,-0.139,99.98,4.0,6441.0,0.0,0.0,
2025-08-15T00:15:05.109Z,4,GR86-022-13,-5.800000000000001,0.143,-0.136,99.99,4.0,,0.0,0.0,162.33
2025-08-15T00:15:05.152Z,4,GR86-022-13,-5.800000000000001,0.143,-0.127,99.99,4.0,,0.0,0.0,
2025-08-15T00:15:05.198Z,4,GR86-022-13,-6.2,0.13,-0.122,99.98,4.0,,2.015,2.075,
2025-08-15T00:15:05.241Z,4,GR86-022-13,-7.4,0.12,-0.097,100.01,4.0,,2.335,2.4250000000000003,
2025-08-15T00:15:05.284Z,4,GR86-022-13,-8.4,0.131,-0.11,82.65,4.0,6486.0,3.065,3.13,
2025-08-15T00:15:05.328Z,4,GR86-022-13,-8.8,0.073,-0.143,2.09,4.0,,4.24,4.305,163.69
2025-08-15T00:15:05.371Z,4,GR86-022-13,-8.3,0.051,-0.149,2.86,4.0,,4.99,5.19,
2025-08-15T00:15:05.414Z,4,GR86-022-13,-6.5,-0.119,-0.153,2.84,4.0,,7.83,8.040000000000001,
2025-08-15T00:15:05.457Z,4,GR86-022-13,-4.0,-0.188,-0.141,2.81,4.0,,13.64,13.52,
2025-08-15T00:15:05.500Z,4,GR86-022-13,-3.5,-0.5720000000000001,-0.158,2.79,4.0,6525.0,16.465,16.345,
2025-08-15T00:15:05.543Z,4,GR86-022-13,-3.9,-0.393,-0.124,2.75,4.0,,17.12,17.275000000000002,164.92000000000002
2025-08-15T00:15:05.587Z,4,GR86-022-13,-5.0,-0.369,-0.12,2.67,4.0,,20.385,20.42,
2025-08-15T00:15:05.631Z,4,GR86-022-13,-2.7,-0.476,-0.139,2.66,4.0,,37.295,37.02,
2025-08-15T00:15:05.674Z,4,GR86-022-13,1.3,-0.769,-0.084,2.63,4.0,,60.26,59.620000000000005,
2025-08-15T00:15:05.718Z,4,GR86-022-13,2.6,-0.99,-0.085,2.6,4.0,6234.0,78.33,77.37,
2025-08-15T00:15:05.760Z,4,GR86-022-13,0.0,-1.109,-0.012,2.61,4.0,,92.46,91.715,165.59
2025-08-15T00:15:05.803Z,4,GR86-022-13,-3.6,-1.075,-0.034,2.6,4.0,,104.15,105.22,
2025-08-15T00:15:05.848Z,4,GR86-022-13,-1.9,-1.026,-0.029,2.56,4.0,,106.485,106.575,
2025-08-15T00:15:05.891Z,4,GR86-022-13,2.6,-1.193,-0.068,2.54,4.0,,111.095,112.525,
2025-08-15T00:15:05.934Z,4,GR86-022-13,2.6,-1.139,-0.084,4.32,4.0,6257.0,113.045,113.395,
2025-08-15T00:15:05.978Z,4,GR86-022-13,-0.8,-1.141,-0.053,46.97,4.0,,112.115,112.59,163.93
2025-08-15T00:15:06.020Z,4,GR86-022-13,-4.2,-1.081,-0.029,61.85,3.0,,114.785,115.335,
2025-08-15T00:15:06.063Z,4,GR86-022-13,-4.7,-1.094,-0.057,6.4,3.0,,119.575,120.785,
2025-08-15T00:15:06.108Z,4,GR86-022-13,-4.1000000000000005,-1.094,-0.075,3.61,3.0,,117.03,117.96,
2025-08-15T00:15:06.151Z,4,GR86-022-13,-3.8,-1.101,-0.144,3.31,3.0,5608.0,112.175,112.085,
2025-08-15T00:15:06.194Z,4,GR86-022-13,-1.7000000000000002,-1.133,-0.074,3.14,3.0,,113.885,115.06,155.89
2025-08-15T00:15:06.238Z,4,GR86-022-13,1.0,-1.136,-0.058,3.04,3.0,,113.2,114.145,
2025-08-15T00:15:06.280Z,4,GR86-022-13,1.8,-1.037,-0.251,2.95,3.0,,111.81,112.025,
2025-08-15T00:15:06.323Z,4,GR86-022-13,-1.3,-1.111,-0.065,2.85,3.0,,114.33,115.245,
2025-08-15T00:15:06.367Z,4,GR86-022-13,4.5,-0.951,-0.26,2.71,3.0,5604.0,113.825,115.0,
2025-08-15T00:15:06.409Z,4,GR86-022-13,10.9,-0.961,-0.155,2.66,3.0,,115.275,116.145,146.70000000000002
2025-08-15T00:15:06.452Z,4,GR86-022-13,10.2,-0.951,-0.068,2.61,3.0,,115.655,115.745,
2025-08-15T00:15:06.495Z,4,GR86-022-13,7.6,-0.986,-0.151,2.6,3.0,,112.62,113.075,
2025-08-15T00:15:06.538Z,4,GR86-022-13,6.300000000000001,-1.014,-0.087,2.54,3.0,,108.15,107.765,
2025-08-15T00:15:06.581Z,4,GR86-022-13,3.9,-0.905,-0.013,2.54,3.0,5995.0,99.74,99.71,
2025-08-15T00:15:06.624Z,4,GR86-022-13,-3.9,-0.986,-0.112,23.36,3.0,,79.69,80.68,139.64
2025-08-15T00:15:06.668Z,4,GR86-022-13,-13.7,-0.936,-0.116,34.79,2.0,,56.005,56.34,
2025-08-15T00:15:06.710Z,4,GR86-022-13,-12.2,-0.92,-0.171,5.04,2.0,,48.985,49.64,
2025-08-15T00:15:06.753Z,4,GR86-022-13,-5.4,-0.928,-0.088,3.85,2.0,,50.435,51.06,
2025-08-15T00:15:06.797Z,4,GR86-022-13,1.7000000000000002,-1.001,-0.151,3.49,2.0,5672.0,50.28,50.375,
2025-08-15T00:15:06.840Z,4,GR86-022-13,3.3000000000000003,-0.912,0.045,3.27,2.0,,49.045,49.55,122.62
2025-08-15T00:15:06.883Z,4,GR86-022-13,1.8,-0.897,0.077,3.13,2.0,,46.68,47.09,
2025-08-15T00:15:06.971Z,4,GR86-022-13,-1.5,-1.007,-0.05,2.95,2.0,,45.0,45.335,
2025-08-15T00:15:07.014Z,4,GR86-022-13,-5.800000000000001,-0.8220000000000001,-0.238,2.77,2.0,5583.0,46.24,46.835,
2025-08-15T00:15:07.058Z,4,GR86-022-13,-7.7,-1.052,-0.152,2.69,2.0,,46.925,47.43,120.68
2025-08-15T00:15:07.100Z,4,GR86-022-13,-12.8,-0.956,0.065,2.62,2.0,,48.33,48.985,
2025-08-15T00:15:07.143Z,4,GR86-022-13,-20.4,-0.804,-0.269,2.6,2.0,,48.895,49.365,
2025-08-15T00:15:07.188Z,4,GR86-022-13,-35.9,-0.988,-0.165,2.53,2.0,,54.265,54.11,
2025-08-15T00:15:07.231Z,4,GR86-022-13,-42.6,-0.96,-0.264,2.51,2.0,5778.0,54.325,54.295,
2025-08-15T00:15:07.274Z,4,GR86-022-13,-44.6,-0.854,-0.417,2.51,2.0,,53.745000000000005,53.805,115.92
2025-08-15T00:15:07.318Z,4,GR86-022-13,-44.8,-0.89,-0.376,2.5,2.0,,54.08,53.96,
2025-08-15T00:15:07.360Z,4,GR86-022-13,-44.900000000000006,-0.784,-0.491,2.51,2.0,,53.24,53.835,
2025-08-15T00:15:07.403Z,4,GR86-022-13,-44.900000000000006,-0.8290000000000001,-0.553,2.5,2.0,,51.81,52.25,
2025-08-15T00:15:07.449Z,4,GR86-022-13,-45.2,-0.891,-0.52,2.49,2.0,6138.0,50.1,51.120000000000005,
2025-08-15T00:15:07.534Z,4,GR86-022-13,-45.900000000000006,-0.71,-0.666,2.5,2.0,,39.965,40.33,110.04
2025-08-15T00:15:07.578Z,4,GR86-022-13,-44.2,-0.772,-0.579,2.5,2.0,,38.775,39.125,
2025-08-15T00:15:07.620Z,4,GR86-022-13,-37.1,-0.666,-0.63,2.49,2.0,,40.12,40.775,
2025-08-15T00:15:07.663Z,4,GR86-022-13,-28.1,-0.731,-0.753,2.48,2.0,5597.0,37.325,38.015,
2025-08-15T00:15:07.708Z,4,GR86-022-13,-17.2,-0.709,-0.6890000000000001,2.5,2.0,,30.855,30.995,105.65
2025-08-15T00:15:07.750Z,4,GR86-022-13,-13.7,-0.635,-0.623,2.48,2.0,,30.335,30.675,
2025-08-15T00:15:07.793Z,4,GR86-022-13,-14.0,-0.592,-0.717,2.5,2.0,,29.24,29.77,
2025-08-15T00:15:07.837Z,4,GR86-022-13,-22.0,-0.536,-0.672,2.51,2.0,,23.805,24.37,
2025-08-15T00:15:07.881Z,4,GR86-022-13,-37.2,-0.593,-0.719,2.51,2.0,5359.0,19.93,20.355,
2025-08-15T00:15:07.925Z,4,GR86-022-13,-53.400000000000006,-0.505,-0.797,2.51,2.0,,18.8,19.18,101.14
2025-08-15T00:15:07.968Z,4,GR86-022-13,-67.0,-0.524,-0.851,2.49,2.0,,16.25,16.555,
2025-08-15T00:15:08.011Z,4,GR86-022-13,-68.10000000000001,-0.459,-0.891,2.5,2.0,,14.85,15.365,
2025-08-15T00:15:08.054Z,4,GR86-022-13,-68.10000000000001,-0.492,-0.861,2.49,2.0,,12.65,13.2,
2025-08-15T00:15:08.098Z,4,GR86-022-13,-67.9,-0.424,-0.932,2.48,2.0,5167.0,10.15,10.65,
2025-08-15T00:15:08.140Z,4,GR86-022-13,-67.9,-0.404,-0.903,2.48,2.0,,7.325,7.735,96.33
2025-08-15T00:15:08.183Z,4,GR86-022-13,-67.9,-0.318,-0.939,2.48,2.0,,3.1,3.37,
2025-08-15T00:15:08.228Z,4,GR86-022-13,-67.9,-0.193,-0.96,2.48,2.0,,0.0,0.0,
2025-08-15T00:15:08.271Z,4,GR86-022-13,-67.9,-0.167,-0.967,2.49,2.0,,0.0,0.0,
2025-08-15T00:15:08.314Z,4,GR86-022-13,-67.9,-0.15,-0.978,2.49,2.0,5057.0,0.0,0.0,
2025-08-15T00:15:08.357Z,4,GR86-022-13,-67.9,-0.143,-0.941,2.48,2.0,,0.0,0.0,93.02
2025-08-15T00:15:08.400Z,4,GR86-022-13,-67.9,-0.149,-0.975,2.49,2.0,,0.0,0.0,
2025-08-15T00:15:08.443Z,4,GR86-022-13,-67.9,-0.145,-0.941,2.48,2.0,,0.0,0.0,
2025-08-15T00:15:08.488Z,4,GR86-022-13,-67.9,-0.149,-0.998,2.5,2.0,,0.0,0.0,
2025-08-15T00:15:08.531Z,4,GR86-022-13,-68.0,-0.145,-0.954,2.48,2.0,4944.0,0.0,0.0,
2025-08-15T00:15:08.574Z,4,GR86-022-13,-67.8,-0.141,-0.976,2.49,2.0,,0.0,0.0,90.54
2025-08-15T00:15:08.618Z,4,GR86-022-13,-65.9,-0.164,-1.009,2.48,2.0,,0.0,0.0,
2025-08-15T00:15:08.660Z,4,GR86-022-13,-60.5,-0.145,-0.998,2.48,2.0,,0.0,0.0,
2025-08-15T00:15:08.703Z,4,GR86-022-13,-51.8,-0.148,-1.031,2.5,2.0,,0.0,0.0,
2025-08-15T00:15:08.748Z,4,GR86-022-13,-35.800000000000004,-0.128,-0.98,2.48,2.0,4895.0,0.0,0.0,
2025-08-15T00:15:08.791Z,4,GR86-022-13,-30.200000000000003,-0.13,-0.964,2.48,2.0,,0.0,0.0,89.19
2025-08-15T00:15:08.834Z,4,GR86-022-13,-31.6,-0.121,-0.936,2.54,2.0,,0.0,0.0,
2025-08-15T00:15:08.878Z,4,GR86-022-13,-38.2,-0.114,-0.949,4.2700000000000005,2.0,,0.0,0.0,
2025-08-15T00:15:08.920Z,4,GR86-022-13,-46.0,-0.123,-0.968,6.65,2.0,,0.0,0.0,
2025-08-15T00:15:08.963Z,4,GR86-022-13,-54.7,-0.129,-0.957,19.56,2.0,4806.0,0.0,0.0,
2025-08-15T00:15:09.008Z,4,GR86-022-13,-63.8,-0.125,-0.975,24.48,2.0,,0.0,0.0,87.73
2025-08-15T00:15:09.050Z,4,GR86-022-13,-66.10000000000001,-0.096,-0.977,27.04,2.0,,0.0,0.0,
2025-08-15T00:15:09.093Z,4,GR86-022-13,-66.10000000000001,-0.102,-0.985,29.65,2.0,,0.0,0.0,
2025-08-15T00:15:09.137Z,4,GR86-022-13,-65.60000000000001,-0.083,-0.942,35.65,2.0,,0.0,0.0,
2025-08-15T00:15:09.179Z,4,GR86-022-13,-65.5,-0.059,-0.966,39.84,2.0,4726.0,0.0,0.0,
2025-08-15T00:15:09.222Z,4,GR86-022-13,-65.4,0.25,-0.922,42.1,2.0,,0.0,0.0,86.47
2025-08-15T00:15:09.265Z,4,GR86-022-13,-64.4,0.282,-0.881,51.81,2.0,,0.0,0.0,
2025-08-15T00:15:09.308Z,4,GR86-022-13,-63.0,0.259,-0.913,58.94,2.0,,0.0,0.0,
2025-08-15T00:15:09.351Z,4,GR86-022-13,-62.3,0.261,-0.859,68.76,2.0,,0.0,0.0,
2025-08-15T00:15:09.394Z,4,GR86-022-13,-61.3,0.235,-0.909,69.56,2.0,4682.0,0.0,0.0,
2025-08-15T00:15:09.438Z,4,GR86-022-13,-60.7,0.239,-0.889,66.32000000000001,2.0,,0.0,0.0,83.69
2025-08-15T00:15:09.480Z,4,GR86-022-13,-60.1,0.239,-0.883,64.63,2.0,,0.0,0.0,
2025-08-15T00:15:09.523Z,4,GR86-022-13,-59.1,0.248,-0.883,62.79,2.0,,0.0,0.0,
2025-08-15T00:15:09.567Z,4,GR86-022-13,-54.7,0.292,-0.88,63.58,2.0,,0.0,0.0,
2025-08-15T00:15:09.609Z,4,GR86-022-13,-48.1,0.28,-0.884,63.04,2.0,5113.0,0.0,0.0,
2025-08-15T00:15:09.652Z,4,GR86-022-13,-41.8,0.272,-0.855,62.23,2.0,,0.0,0.0,83.94
2025-08-15T00:15:09.695Z,4,GR86-022-13,-35.6,0.271,-0.863,59.5,2.0,,0.0,0.0,
2025-08-15T00:15:09.738Z,4,GR86-022-13,-29.0,0.27,-0.862,61.17,2.0,,0.0,0.0,
2025-08-15T00:15:09.781Z,4,GR86-022-13,-23.8,0.286,-0.8210000000000001,62.18,2.0,,0.0,0.0,
2025-08-15T00:15:09.824Z,4,GR86-022-13,-22.700000000000003,0.299,-0.8320000000000001,62.99,2.0,5007.0,0.0,0.0,
2025-08-15T00:15:09.868Z,4,GR86-022-13,-26.0,0.286,-0.812,64.92,2.0,,0.0,0.0,85.32000000000001
2025-08-15T00:15:09.910Z,4,GR86-022-13,-32.7,0.274,-0.8160000000000001,75.23,2.0,,0.0,0.0,
2025-08-15T00:15:09.953Z,4,GR86-022-13,-42.5,0.264,-0.837,98.34,2.0,,0.0,0.0,
2025-08-15T00:15:09.998Z,4,GR86-022-13,-51.6,0.258,-0.867,100.07,2.0,,0.0,0.0,
2025-08-15T00:15:10.041Z,4,GR86-022-13,-55.6,0.267,-0.893,100.07,2.0,5201.0,0.0,0.0,
2025-08-15T00:15:10.084Z,4,GR86-022-13,-55.7,0.264,-0.928,100.07,2.0,,0.0,0.0,86.81
2025-08-15T00:15:10.128Z,4,GR86-022-13,-54.6,0.266,-0.889,100.09,2.0,,0.0,0.0,
2025-08-15T00:15:10.171Z,4,GR86-022-13,-54.5,0.27,-0.85,100.09,2.0,,0.0,0.0,
2025-08-15T00:15:10.214Z,4,GR86-022-13,-54.400000000000006,0.258,-0.858,100.07,2.0,,0.0,0.0,
2025-08-15T00:15:10.258Z,4,GR86-022-13,-53.400000000000006,0.256,-0.842,100.08,2.0,5275.0,0.0,0.0,
2025-08-15T00:15:10.300Z,4,GR86-022-13,-52.3,0.254,-0.8170000000000001,100.06,2.0,,0.0,0.0,88.10000000000001
2025-08-15T00:15:10.343Z,4,GR86-022-13,-49.2,0.266,-0.8230000000000001,100.07,2.0,,0.0,0.0,
2025-08-15T00:15:10.387Z,4,GR86-022-13,-38.0,0.269,-0.85,100.06,2.0,,0.0,0.0,
2025-08-15T00:15:10.431Z,4,GR86-022-13,-28.1,0.265,-0.8170000000000001,100.07,2.0,,0.0,0.0,
2025-08-15T00:15:10.474Z,4,GR86-022-13,-19.700000000000003,0.282,-0.8260000000000001,100.06,2.0,5334.0,0.0,0.0,
2025-08-15T00:15:10.518Z,4,GR86-022-13,-17.900000000000002,0.302,-0.748,100.08,2.0,,0.0,0.0,89.65
2025-08-15T00:15:10.560Z,4,GR86-022-13,-23.8,0.31,-0.752,100.09,2.0,,0.0,0.0,
2025-08-15T00:15:10.603Z,4,GR86-022-13,-33.2,0.303,-0.759,100.09,2.0,,0.0,0.0,
2025-08-15T00:15:10.648Z,4,GR86-022-13,-43.1,0.255,-0.805,100.06,2.0,,0.0,0.0,
2025-08-15T00:15:10.691Z,4,GR86-022-13,-45.1,0.262,-0.834,100.07,2.0,5444.0,0.0,0.0,
2025-08-15T00:15:10.734Z,4,GR86-022-13,-45.1,0.27,-0.877,100.07,2.0,,0.0,0.0,91.14
2025-08-15T00:15:10.778Z,4,GR86-022-13,-45.1,0.279,-0.885,100.07,2.0,,0.0,0.0,
2025-08-15T00:15:10.820Z,4,GR86-022-13,-42.900000000000006,0.284,-0.92,100.05,2.0,,0.0,0.0,
2025-08-15T00:15:10.863Z,4,GR86-022-13,-38.0,0.259,-0.92,100.06,2.0,,0.0,0.0,
2025-08-15T00:15:10.908Z,4,GR86-022-13,-26.200000000000003,0.271,-0.892,100.05,2.0,5542.0,0.0,0.0,
2025-08-15T00:15:10.951Z,4,GR86-022-13,-18.1,0.29,-0.846,100.08,2.0,,0.0,0.0,92.66
2025-08-15T00:15:10.994Z,4,GR86-022-13,-12.5,0.294,-0.759,100.05,2.0,,0.0,0.0,
2025-08-15T00:15:11.038Z,4,GR86-022-13,-11.4,0.292,-0.737,100.06,2.0,,0.0,0.0,
2025-08-15T00:15:11.080Z,4,GR86-022-13,-16.1,0.281,-0.716,100.07,2.0,,0.0,0.0,
2025-08-15T00:15:11.123Z,4,GR86-022-13,-26.9,0.277,-0.7020000000000001,100.07,2.0,5613.0,0.0,0.0,
2025-08-15T00:15:11.167Z,4,GR86-022-13,-43.8,0.295,-0.795,100.06,2.0,,0.0,0.0,94.11
2025-08-15T00:15:11.209Z,4,GR86-022-13,-46.0,0.299,-0.788,100.05,2.0,,0.0,0.0,
2025-08-15T00:15:11.252Z,4,GR86-022-13,-43.3,0.277,-0.788,100.04,2.0,,0.0,0.0,
2025-08-15T00:15:11.295Z,4,GR86-022-13,-39.400000000000006,0.265,-0.799,100.04,2.0,,0.0,0.0,
2025-08-15T00:15:11.338Z,4,GR86-022-13,-35.800000000000004,0.244,-0.783,100.05,2.0,5689.0,0.0,0.0,
2025-08-15T00:15:11.381Z,4,GR86-022-13,-32.6,0.248,-0.756,100.05,2.0,,0.0,0.0,95.89
2025-08-15T00:15:11.424Z,4,GR86-022-13,-29.4,0.272,-0.716,100.04,2.0,,0.0,0.0,
2025-08-15T00:15:11.468Z,4,GR86-022-13,-27.4,0.278,-0.7000000000000001,100.04,2.0,,0.0,0.0,
2025-08-15T00:15:11.510Z,4,GR86-022-13,-27.4,0.268,-0.6980000000000001,100.05,2.0,,0.0,0.0,
2025-08-15T00:15:11.553Z,4,GR86-022-13,-28.3,0.26,-0.713,100.05,2.0,5755.0,0.0,0.0,
2025-08-15T00:15:11.598Z,4,GR86-022-13,-29.0,0.268,-0.706,100.04,2.0,,0.0,0.0,96.27
2025-08-15T00:15:11.640Z,4,GR86-022-13,-29.700000000000003,0.285,-0.6880000000000001,100.04,2.0,,0.0,0.0,
2025-08-15T00:15:11.683Z,4,GR86-022-13,-30.8,0.275,-0.713,100.05,2.0,,0.0,0.0,
2025-08-15T00:15:11.728Z,4,GR86-022-13,-31.200000000000003,0.259,-0.6930000000000001,100.04,2.0,,0.0,0.0,
2025-08-15T00:15:11.771Z,4,GR86-022-13,-31.4,0.27,-0.721,100.03,2.0,5856.0,0.0,0.0,
2025-08-15T00:15:11.814Z,4,GR86-022-13,-32.2,0.273,-0.733,100.06,2.0,,0.0,0.0,98.31
2025-08-15T00:15:11.858Z,4,GR86-022-13,-33.0,0.286,-0.716,100.05,2.0,,0.0,0.0,
2025-08-15T00:15:11.900Z,4,GR86-022-13,-33.800000000000004,0.274,-0.719,100.04,2.0,,0.0,0.0,
2025-08-15T00:15:11.943Z,4,GR86-022-13,-33.9,0.281,-0.721,100.04,2.0,,0.0,0.0,
2025-08-15T00:15:11.988Z,4,GR86-022-13,-33.4,0.246,-0.708,100.03,2.0,5935.0,0.0,0.0,
2025-08-15T00:15:12.031Z,4,GR86-022-13,-33.0,0.256,-0.723,100.02,2.0,,0.0,0.0,101.02
2025-08-15T00:15:12.074Z,4,GR86-022-13,-32.4,0.283,-0.732,100.03,2.0,,0.0,0.0,
2025-08-15T00:15:12.118Z,4,GR86-022-13,-30.3,0.27,-0.705,100.04,2.0,,0.0,0.0,
2025-08-15T00:15:12.160Z,4,GR86-022-13,-26.4,0.275,-0.731,100.03,2.0,,0.0,0.0,
2025-08-15T00:15:12.203Z,4,GR86-022-13,-22.6,0.26,-0.706,100.01,2.0,6025.0,0.0,0.0,
2025-08-15T00:15:12.249Z,4,GR86-022-13,-20.4,0.281,-0.648,100.03,2.0,,0.0,0.0,102.61
2025-08-15T00:15:12.291Z,4,GR86-022-13,-20.5,0.292,-0.632,100.03,2.0,,0.0,0.0,
2025-08-15T00:15:12.334Z,4,GR86-022-13,-20.5,0.262,-0.607,100.0,2.0,,0.0,0.0,
2025-08-15T00:15:12.378Z,4,GR86-022-13,-20.1,0.273,-0.589,100.02,2.0,,0.0,0.0,
2025-08-15T00:15:12.420Z,4,GR86-022-13,-20.1,0.275,-0.5650000000000001,100.03,2.0,6120.0,0.0,0.0,
2025-08-15T00:15:12.463Z,4,GR86-022-13,-20.0,0.275,-0.549,100.03,2.0,,0.0,0.0,104.27
2025-08-15T00:15:12.508Z,4,GR86-022-13,-18.5,0.272,-0.512,100.03,2.0,,0.0,0.0,
2025-08-15T00:15:12.550Z,4,GR86-022-13,-16.1,0.277,-0.503,100.03,2.0,,0.0,0.0,
2025-08-15T00:15:12.593Z,4,GR86-022-13,-12.6,0.256,-0.472,100.03,2.0,,0.0,0.0,
2025-08-15T00:15:12.637Z,4,GR86-022-13,-10.2,0.282,-0.443,100.01,2.0,6276.0,0.0,0.0,
2025-08-15T00:15:12.680Z,4,GR86-022-13,-8.9,0.275,-0.415,100.03,2.0,,0.0,0.0,105.9
2025-08-15T00:15:12.723Z,4,GR86-022-13,-8.4,0.3,-0.369,100.03,2.0,,0.0,0.0,
2025-08-15T00:15:12.767Z,4,GR86-022-13,-8.4,0.276,-0.301,100.02,2.0,,0.0,0.0,
2025-08-15T00:15:12.809Z,4,GR86-022-13,-8.4,0.265,-0.265,100.02,2.0,,0.0,0.0,
2025-08-15T00:15:12.852Z,4,GR86-022-13,-8.4,0.253,-0.22,100.02,2.0,6363.0,0.0,0.0,
2025-08-15T00:15:12.895Z,4,GR86-022-13,-8.4,0.272,-0.21,100.0,2.0,,0.0,0.0,107.57
2025-08-15T00:15:12.938Z,4,GR86-022-13,-8.4,0.264,-0.185,100.03,2.0,,0.0,0.0,
2025-08-15T00:15:12.981Z,4,GR86-022-13,-8.4,0.286,-0.176,100.02,2.0,,0.0,0.0,
2025-08-15T00:15:13.024Z,4,GR86-022-13,-8.4,0.277,-0.163,100.01,2.0,,0.0,0.0,
2025-08-15T00:15:13.068Z,4,GR86-022-13,-8.4,0.263,-0.14,100.01,2.0,6434.0,0.0,0.0,
2025-08-15T00:15:13.110Z,4,GR86-022-13,-8.4,0.253,-0.139,99.99,2.0,,0.0,0.0,109.32
2025-08-15T00:15:13.154Z,4,GR86-022-13,-8.4,0.288,-0.154,100.03,2.0,,0.0,0.0,
2025-08-15T00:15:13.197Z,4,GR86-022-13,-8.4,0.274,-0.156,100.01,2.0,,0.0,0.0,
2025-08-15T00:15:13.240Z,4,GR86-022-13,-7.800000000000001,0.276,-0.156,100.03,2.0,,0.0,0.0,
2025-08-15T00:15:13.283Z,4,GR86-022-13,-7.300000000000001,0.283,-0.156,100.01,2.0,6529.0,0.0,0.0,
2025-08-15T00:15:13.328Z,4,GR86-022-13,-7.1000000000000005,0.265,-0.122,100.01,2.0,,0.0,0.0,111.0
2025-08-15T00:15:13.371Z,4,GR86-022-13,-6.9,0.242,-0.128,100.0,2.0,,0.0,0.0,
2025-08-15T00:15:13.414Z,4,GR86-022-13,-6.0,0.278,-0.126,100.01,2.0,,0.0,0.0,
2025-08-15T00:15:13.458Z,4,GR86-022-13,-4.7,0.277,-0.125,100.02,2.0,,0.0,0.0,
2025-08-15T00:15:13.500Z,4,GR86-022-13,-3.6,0.283,-0.136,100.02,2.0,6630.0,0.0,0.0,
2025-08-15T00:15:13.543Z,4,GR86-022-13,-3.3000000000000003,0.3,-0.126,100.01,2.0,,0.0,0.0,112.84
2025-08-15T00:15:13.588Z,4,GR86-022-13,-3.3000000000000003,0.284,-0.103,100.01,2.0,,0.0,0.0,
2025-08-15T00:15:13.631Z,4,GR86-022-13,-3.3000000000000003,0.244,-0.084,100.01,2.0,,0.0,0.0,
2025-08-15T00:15:13.674Z,4,GR86-022-13,-3.3000000000000003,0.257,-0.065,99.99,2.0,,0.0,0.0,
2025-08-15T00:15:13.718Z,4,GR86-022-13,-3.3000000000000003,0.272,-0.055,100.0,2.0,6746.0,0.0,0.0,
2025-08-15T00:15:13.760Z,4,GR86-022-13,-3.3000000000000003,0.266,-0.05,100.0,2.0,,0.0,0.0,114.52
2025-08-15T00:15:13.803Z,4,GR86-022-13,-3.3000000000000003,0.274,-0.046,100.0,2.0,,0.0,0.0,
2025-08-15T00:15:13.848Z,4,GR86-022-13,-3.1,0.274,-0.054,100.0,2.0,,0.0,0.0,
2025-08-15T00:15:13.891Z,4,GR86-022-13,-2.6,0.287,-0.062,100.0,2.0,,0.0,0.0,
2025-08-15T00:15:13.934Z,4,GR86-022-13,-2.0,0.264,-0.06,100.0,2.0,6825.0,0.0,0.0,
2025-08-15T00:15:13.978Z,4,GR86-022-13,-1.5,0.275,-0.053,100.02,2.0,,0.0,0.0,116.39
2025-08-15T00:15:14.020Z,4,GR86-022-13,-1.3,0.277,-0.051,99.99,2.0,,0.0,0.0,
2025-08-15T00:15:14.063Z,4,GR86-022-13,-1.3,0.26,-0.035,100.01,2.0,,0.0,0.0,
2025-08-15T00:15:14.108Z,4,GR86-022-13,-1.3,0.255,-0.027,99.99,2.0,,0.0,0.0,
2025-08-15T00:15:14.150Z,4,GR86-022-13,-1.3,0.266,-0.006,99.99,2.0,6936.0,0.0,0.0,
2025-08-15T00:15:14.193Z,4,GR86-022-13,-1.3,0.271,0.001,100.01,2.0,,0.0,0.0,118.06
2025-08-15T00:15:14.237Z,4,GR86-022-13,-1.3,0.262,0.004,99.98,2.0,,0.0,0.0,
2025-08-15T00:15:14.279Z,4,GR86-022-13,-1.4,0.266,0.012,100.02,2.0,,0.0,0.0,
2025-08-15T00:15:14.322Z,4,GR86-022-13,-1.6,0.264,0.015,99.99,2.0,,0.0,0.0,
2025-08-15T00:15:14.365Z,4,GR86-022-13,-1.6,0.254,0.006,99.99,2.0,7025.0,0.0,0.0,
2025-08-15T00:15:14.408Z,4,GR86-022-13,-1.6,0.267,0.015,99.99,2.0,,0.0,0.0,120.01
2025-08-15T00:15:14.451Z,4,GR86-022-13,-1.6,0.267,0.021,100.0,2.0,,0.0,0.0,
2025-08-15T00:15:14.494Z,4,GR86-022-13,-1.6,0.246,0.025,100.0,2.0,,0.0,0.0,
2025-08-15T00:15:14.538Z,4,GR86-022-13,-1.7000000000000002,0.244,0.031,99.98,2.0,,0.0,0.0,
2025-08-15T00:15:14.580Z,4,GR86-022-13,-1.7000000000000002,0.24,0.018,100.0,2.0,7123.0,0.0,0.0,
2025-08-15T00:15:14.623Z,4,GR86-022-13,-1.8,0.255,0.026,99.98,2.0,,0.0,0.0,121.63
2025-08-15T00:15:14.667Z,4,GR86-022-13,-2.4000000000000004,0.001,0.02,100.0,3.0,,0.0,0.0,
2025-08-15T00:15:14.709Z,4,GR86-022-13,-2.9000000000000004,0.084,0.028,99.98,3.0,,0.0,0.0,
2025-08-15T00:15:14.752Z,4,GR86-022-13,-2.8000000000000003,0.685,-0.041,99.97,3.0,,0.0,0.0,
2025-08-15T00:15:14.795Z,4,GR86-022-13,-2.8000000000000003,0.373,-0.04,99.98,3.0,7209.0,0.0,0.0,
2025-08-15T00:15:14.838Z,4,GR86-022-13,-2.8000000000000003,0.216,0.015,99.97,3.0,,0.0,0.0,124.95
2025-08-15T00:15:14.881Z,4,GR86-022-13,-2.8000000000000003,0.074,-0.035,99.98,3.0,,0.0,0.0,
2025-08-15T00:15:14.924Z,4,GR86-022-13,-2.8000000000000003,0.19,-0.066,100.0,3.0,,0.0,0.0,
2025-08-15T00:15:14.968Z,4,GR86-022-13,-2.8000000000000003,0.284,0.009,100.0,3.0,,0.0,0.0,
2025-08-15T00:15:15.010Z,4,GR86-022-13,-2.6,0.243,-0.067,100.0,3.0,7292.0,0.0,0.0,
2025-08-15T00:15:15.054Z,4,GR86-022-13,-2.5,0.204,-0.029,99.99,3.0,,0.0,0.0,126.37
2025-08-15T00:15:15.098Z,4,GR86-022-13,-2.5,0.221,-0.023,99.98,3.0,,0.0,0.0,
2025-08-15T00:15:15.141Z,4,GR86-022-13,-2.5,0.219,-0.047,99.99,3.0,,0.0,0.0,
2025-08-15T00:15:15.184Z,4,GR86-022-13,-2.5,0.23,-0.017,99.99,3.0,,0.0,0.0,
2025-08-15T00:15:15.228Z,4,GR86-022-13,-2.5,0.217,-0.046,99.99,3.0,6035.0,0.0,0.0,
2025-08-15T00:15:15.271Z,4,GR86-022-13,-2.4000000000000004,0.213,-0.037,100.01,3.0,,0.0,0.0,128.0
2025-08-15T00:15:15.314Z,4,GR86-022-13,-2.3000000000000003,0.23,-0.017,100.01,3.0,,0.0,0.0,
2025-08-15T00:15:15.358Z,4,GR86-022-13,-2.1,0.228,-0.025,99.97,3.0,,0.0,0.0,
2025-08-15T00:15:15.400Z,4,GR86-022-13,-1.9,0.222,-0.027,99.99,3.0,,0.0,0.0,
2025-08-15T00:15:15.443Z,4,GR86-022-13,-1.9,0.213,-0.025,100.01,3.0,6127.0,0.0,0.0,
2025-08-15T00:15:15.488Z,4,GR86-022-13,-1.9,0.199,-0.027,100.0,3.0,,0.0,0.0,129.31
2025-08-15T00:15:15.531Z,4,GR86-022-13,-1.9,0.221,-0.015,100.01,3.0,,0.0,0.0,
2025-08-15T00:15:15.574Z,4,GR86-022-13,-1.9,0.234,-0.017,100.0,3.0,,0.0,0.0,
2025-08-15T00:15:15.618Z,4,GR86-022-13,-1.9,0.228,-0.022,100.0,3.0,,0.0,0.0,
2025-08-15T00:15:15.660Z,4,GR86-022-13,-1.9,0.209,-0.025,100.01,3.0,6180.0,0.0,0.0,
2025-08-15T00:15:15.703Z,4,GR86-022-13,-1.9,0.222,-0.02,100.01,3.0,,0.0,0.0,130.75
2025-08-15T00:15:15.748Z,4,GR86-022-13,-1.9,0.22,-0.02,100.0,3.0,,0.0,0.0,
2025-08-15T00:15:15.791Z,4,GR86-022-13,-1.9,0.237,-0.01,100.01,3.0,,0.0,0.0,
2025-08-15T00:15:15.834Z,4,GR86-022-13,-1.9,0.215,0.001,100.0,3.0,,0.0,0.0,
2025-08-15T00:15:15.878Z,4,GR86-022-13,-1.9,0.211,-0.011,100.01,3.0,6243.0,0.0,0.0,
2025-08-15T00:15:15.920Z,4,GR86-022-13,-1.9,0.219,0.007,100.0,3.0,,0.0,0.0,132.08
2025-08-15T00:15:15.963Z,4,GR86-022-13,-1.9,0.22,0.003,100.0,3.0,,0.0,0.0,
2025-08-15T00:15:16.008Z,4,GR86-022-13,-1.9,0.227,0.001,100.0,3.0,,0.0,0.0,
2025-08-15T00:15:16.051Z,4,GR86-022-13,-1.9,0.228,0.012,100.0,3.0,,0.0,0.0,
2025-08-15T00:15:16.094Z,4,GR86-022-13,-1.9,0.203,0.004,100.0,3.0,6308.0,0.0,0.0,
2025-08-15T00:15:16.138Z,4,GR86-022-13,-1.9,0.204,0.007,100.01,3.0,,0.0,0.0,133.44
2025-08-15T00:15:16.180Z,4,GR86-022-13,-1.9,0.222,0.007,100.01,3.0,,0.0,0.0,
2025-08-15T00:15:16.223Z,4,GR86-022-13,-1.7000000000000002,0.22,-0.01,100.01,3.0,,0.0,0.0,
2025-08-15T00:15:16.267Z,4,GR86-022-13,-1.7000000000000002,0.236,-0.003,99.99,3.0,,0.0,0.0,
2025-08-15T00:15:16.309Z,4,GR86-022-13,-1.6,0.215,-0.008,100.01,3.0,6370.0,0.0,0.0,
2025-08-15T00:15:16.352Z,4,GR86-022-13,-1.6,0.197,-0.001,99.99,3.0,,0.0,0.0,134.67000000000002
2025-08-15T00:15:16.395Z,4,GR86-022-13,-1.6,0.2,0.007,100.0,3.0,,0.0,0.0,
2025-08-15T00:15:16.438Z,4,GR86-022-13,-1.6,0.233,0.008,100.0,3.0,,0.0,0.0,
2025-08-15T00:15:16.481Z,4,GR86-022-13,-1.5,0.221,0.004,100.01,3.0,,0.0,0.0,
2025-08-15T00:15:16.524Z,4,GR86-022-13,-1.5,0.202,0.0,100.0,3.0,6426.0,0.0,0.0,
2025-08-15T00:15:16.568Z,4,GR86-022-13,-1.5,0.212,-0.019,99.99,3.0,,0.0,0.0,135.95
2025-08-15T00:15:16.611Z,4,GR86-022-13,-1.5,0.196,-0.014,99.99,3.0,,0.0,0.0,
2025-08-15T00:15:16.654Z,4,GR86-022-13,-1.5,0.204,-0.002,100.0,3.0,,0.0,0.0,
2025-08-15T00:15:16.698Z,4,GR86-022-13,-1.5,0.234,-0.007,100.0,3.0,,0.0,0.0,
2025-08-15T00:15:16.740Z,4,GR86-022-13,-1.6,0.217,0.0,99.99,3.0,6494.0,0.0,0.0,
2025-08-15T00:15:16.783Z,4,GR86-022-13,-1.8,0.197,0.006,100.0,3.0,,0.0,0.0,137.13
2025-08-15T00:15:16.828Z,4,GR86-022-13,-2.1,0.204,-0.001,100.0,3.0,,0.0,0.0,
2025-08-15T00:15:16.871Z,4,GR86-022-13,-3.0,0.193,0.015,99.99,3.0,,0.0,0.0,
2025-08-15T00:15:16.914Z,4,GR86-022-13,-3.5,0.205,-0.002,100.01,3.0,,0.0,0.0,
2025-08-15T00:15:16.958Z,4,GR86-022-13,-3.9,0.224,0.003,100.02,3.0,6534.0,0.0,0.0,
2025-08-15T00:15:17.000Z,4,GR86-022-13,-4.0,0.216,-0.015,99.99,3.0,,0.0,0.0,138.42000000000002
2025-08-15T00:15:17.043Z,4,GR86-022-13,-4.0,0.184,-0.026,99.99,3.0,,0.0,0.0,
2025-08-15T00:15:17.088Z,4,GR86-022-13,-4.0,0.21,-0.022,100.01,3.0,,0.0,0.0,
2025-08-15T00:15:17.131Z,4,GR86-022-13,-4.0,0.192,-0.026,100.01,3.0,,0.0,0.0,
2025-08-15T00:15:17.174Z,4,GR86-022-13,-4.0,0.201,-0.023,99.99,3.0,6594.0,0.0,0.0,
2025-08-15T00:15:17.217Z,4,GR86-022-13,-4.0,0.213,-0.034,100.0,3.0,,0.0,0.0,139.66
2025-08-15T00:15:17.260Z,4,GR86-022-13,-4.0,0.213,-0.047,99.99,3.0,,0.0,0.0,
2025-08-15T00:15:17.303Z,4,GR86-022-13,-4.0,0.209,-0.058,100.02,3.0,,0.0,0.0,
2025-08-15T00:15:17.349Z,4,GR86-022-13,-4.1000000000000005,0.204,-0.072,100.01,3.0,,0.0,0.0,
2025-08-15T00:15:17.391Z,4,GR86-022-13,-4.3,0.199,-0.08,100.0,3.0,6643.0,0.0,0.0,
2025-08-15T00:15:17.434Z,4,GR86-022-13,-4.4,0.194,-0.086,100.0,3.0,,0.0,0.0,141.93
2025-08-15T00:15:17.478Z,4,GR86-022-13,-4.4,0.199,-0.074,99.99,3.0,,0.0,0.0,
2025-08-15T00:15:17.520Z,4,GR86-022-13,-4.4,0.215,-0.067,99.99,3.0,,0.0,0.0,
2025-08-15T00:15:17.563Z,4,GR86-022-13,-4.4,0.21,-0.08,100.0,3.0,,0.0,0.0,
2025-08-15T00:15:17.608Z,4,GR86-022-13,-4.4,0.203,-0.092,100.02,3.0,6714.0,0.0,0.0,
2025-08-15T00:15:17.651Z,4,GR86-022-13,-4.5,0.2,-0.102,100.0,3.0,,0.0,0.0,143.19
2025-08-15T00:15:17.694Z,4,GR86-022-13,-4.5,0.202,-0.091,99.99,3.0,,0.0,0.0,
2025-08-15T00:15:17.738Z,4,GR86-022-13,-4.5,0.195,-0.095,99.99,3.0,,0.0,0.0,
2025-08-15T00:15:17.781Z,4,GR86-022-13,-4.5,0.207,-0.09,100.0,3.0,,0.0,0.0,
2025-08-15T00:15:17.824Z,4,GR86-022-13,-4.3,0.198,-0.094,99.99,3.0,6764.0,0.0,0.0,
2025-08-15T00:15:17.868Z,4,GR86-022-13,-3.7,0.211,-0.088,100.0,3.0,,0.0,0.0,144.35
2025-08-15T00:15:17.910Z,4,GR86-022-13,-3.7,0.211,-0.088,100.01,3.0,,0.0,0.0,
2025-08-15T00:15:17.954Z,4,GR86-022-13,-3.7,0.194,-0.087,99.98,3.0,,0.0,0.0,
2025-08-15T00:15:17.998Z,4,GR86-022-13,-3.7,0.182,-0.085,100.01,3.0,,0.0,0.0,
2025-08-15T00:15:18.040Z,4,GR86-022-13,-3.5,0.191,-0.085,100.01,3.0,6881.0,0.0,0.0,
2025-08-15T00:15:18.083Z,4,GR86-022-13,-3.1,0.218,-0.087,100.0,3.0,,0.0,0.0,145.52
2025-08-15T00:15:18.128Z,4,GR86-022-13,-2.5,0.2,-0.089,100.0,3.0,,0.0,0.0,
2025-08-15T00:15:18.171Z,4,GR86-022-13,-2.5,0.209,-0.085,100.02,3.0,,0.0,0.0,
2025-08-15T00:15:18.214Z,4,GR86-022-13,-2.5,0.2,-0.085,99.98,3.0,,0.0,0.0,
2025-08-15T00:15:18.258Z,4,GR86-022-13,-2.5,0.188,-0.078,100.01,3.0,6935.0,0.0,0.0,
2025-08-15T00:15:18.300Z,4,GR86-022-13,-2.5,0.175,-0.066,100.01,3.0,,0.0,0.0,146.63
2025-08-15T00:15:18.343Z,4,GR86-022-13,-2.5,0.197,-0.059,99.99,3.0,,0.0,0.0,
2025-08-15T00:15:18.388Z,4,GR86-022-13,-2.5,0.188,-0.05,100.0,3.0,,0.0,0.0,
2025-08-15T00:15:18.431Z,4,GR86-022-13,-2.5,0.188,-0.051,100.01,3.0,,0.0,0.0,
2025-08-15T00:15:18.474Z,4,GR86-022-13,-2.5,0.197,-0.05,99.99,3.0,6984.0,0.0,0.0,
2025-08-15T00:15:18.518Z,4,GR86-022-13,-2.5,0.206,-0.058,100.0,3.0,,0.0,0.0,147.96
2025-08-15T00:15:18.560Z,4,GR86-022-13,-2.7,0.195,-0.048,99.98,3.0,,0.0,0.0,
2025-08-15T00:15:18.603Z,4,GR86-022-13,-3.4000000000000004,0.184,-0.05,99.99,3.0,,0.0,0.0,
2025-08-15T00:15:18.648Z,4,GR86-022-13,-4.7,0.197,-0.039,100.0,3.0,,0.0,0.0,
2025-08-15T00:15:18.691Z,4,GR86-022-13,-4.800000000000001,0.203,-0.044,100.0,3.0,7028.0,0.0,0.0,
2025-08-15T00:15:18.734Z,4,GR86-022-13,-4.800000000000001,0.178,-0.044,100.01,3.0,,0.0,0.0,149.09
2025-08-15T00:15:18.778Z,4,GR86-022-13,-4.800000000000001,0.186,-0.045,99.99,3.0,,0.0,0.0,
2025-08-15T00:15:18.820Z,4,GR86-022-13,-4.800000000000001,0.181,-0.051,100.02,3.0,,0.0,0.0,
2025-08-15T00:15:18.863Z,4,GR86-022-13,-5.300000000000001,0.194,-0.049,99.99,3.0,,0.0,0.0,
2025-08-15T00:15:18.908Z,4,GR86-022-13,-6.300000000000001,0.167,-0.069,99.99,3.0,7084.0,0.0,0.0,
2025-08-15T00:15:18.951Z,4,GR86-022-13,-6.9,0.203,-0.076,100.0,3.0,,0.0,0.0,150.33
2025-08-15T00:15:18.994Z,4,GR86-022-13,-7.2,0.196,-0.088,99.99,3.0,,0.0,0.0,
2025-08-15T00:15:19.038Z,4,GR86-022-13,-7.300000000000001,0.201,-0.111,100.0,3.0,,0.0,0.0,
2025-08-15T00:15:19.080Z,4,GR86-022-13,-7.300000000000001,0.177,-0.113,100.0,3.0,,0.0,0.0,
2025-08-15T00:15:19.123Z,4,GR86-022-13,-7.300000000000001,0.17,-0.138,99.99,3.0,7128.0,0.0,0.0,
2025-08-15T00:15:19.167Z,4,GR86-022-13,-7.300000000000001,0.19,-0.158,99.99,3.0,,0.0,0.0,151.35
2025-08-15T00:15:19.209Z,4,GR86-022-13,-7.300000000000001,0.175,-0.192,100.02,3.0,,0.0,0.0,
2025-08-15T00:15:19.252Z,4,GR86-022-13,-7.300000000000001,0.162,-0.185,99.99,3.0,,0.0,0.0,
2025-08-15T00:15:19.295Z,4,GR86-022-13,-7.300000000000001,0.176,-0.181,100.0,3.0,,0.0,0.0,
2025-08-15T00:15:19.338Z,4,GR86-022-13,-6.7,0.178,-0.183,99.99,3.0,7184.0,0.0,0.0,
2025-08-15T00:15:19.381Z,4,GR86-022-13,-5.7,0.186,-0.204,99.99,3.0,,0.0,0.0,152.4
2025-08-15T00:15:19.424Z,4,GR86-022-13,-5.7,-0.104,-0.187,99.97,4.0,,0.0,0.0,
2025-08-15T00:15:19.468Z,4,GR86-022-13,-5.6000000000000005,0.41,-0.165,99.99,4.0,,0.0,0.0,
2025-08-15T00:15:19.510Z,4,GR86-022-13,-5.6000000000000005,0.158,-0.269,99.98,4.0,,0.0,0.0,
2025-08-15T00:15:19.553Z,4,GR86-022-13,-6.1000000000000005,0.087,-0.164,99.98,4.0,7243.0,0.0,0.0,
2025-08-15T00:15:19.598Z,4,GR86-022-13,-6.2,0.135,-0.163,99.98,4.0,,0.0,0.0,153.43
2025-08-15T00:15:19.641Z,4,GR86-022-13,-6.2,0.207,-0.229,99.99,4.0,,0.0,0.0,
2025-08-15T00:15:19.684Z,4,GR86-022-13,-6.300000000000001,0.142,-0.127,100.01,4.0,,0.0,0.0,
2025-08-15T00:15:19.728Z,4,GR86-022-13,-6.6000000000000005,0.143,-0.196,99.97,4.0,,0.0,0.0,
2025-08-15T00:15:19.771Z,4,GR86-022-13,-6.9,0.177,-0.187,100.0,4.0,6861.0,0.0,0.0,
2025-08-15T00:15:19.814Z,4,GR86-022-13,-7.0,0.159,-0.144,100.01,4.0,,0.0,0.0,154.45000000000002
2025-08-15T00:15:19.858Z,4,GR86-022-13,-7.0,0.147,-0.203,99.99,4.0,,0.0,0.0,
2025-08-15T00:15:19.900Z,4,GR86-022-13,-7.0,0.158,-0.163,99.97,4.0,,0.0,0.0,
2025-08-15T00:15:19.943Z,4,GR86-022-13,-7.0,0.171,-0.156,99.99,4.0,,0.0,0.0,
2025-08-15T00:15:19.987Z,4,GR86-022-13,-7.0,0.146,-0.132,99.99,4.0,6203.0,0.0,0.0,
2025-08-15T00:15:20.031Z,4,GR86-022-13,-7.0,0.135,-0.137,99.99,4.0,,0.0,0.0,156.41
2025-08-15T00:15:20.074Z,4,GR86-022-13,-7.0,0.166,-0.132,100.0,4.0,,0.0,0.0,
2025-08-15T00:15:20.118Z,4,GR86-022-13,-7.0,0.176,-0.147,100.0,4.0,,0.0,0.0,
2025-08-15T00:15:20.160Z,4,GR86-022-13,-7.0,0.158,-0.165,100.01,4.0,,0.0,0.0,
2025-08-15T00:15:20.203Z,4,GR86-022-13,-7.0,0.156,-0.156,100.0,4.0,6205.0,0.0,0.0,
2025-08-15T00:15:20.248Z,4,GR86-022-13,-7.0,0.161,-0.159,100.0,4.0,,0.0,0.0,157.35
2025-08-15T00:15:20.291Z,4,GR86-022-13,-7.1000000000000005,0.147,-0.154,100.0,4.0,,0.0,0.0,
2025-08-15T00:15:20.334Z,4,GR86-022-13,-7.6,0.152,-0.172,99.97,4.0,,0.0,0.0,
2025-08-15T00:15:20.378Z,4,GR86-022-13,-8.200000000000001,0.138,-0.177,100.01,4.0,,0.0,0.0,
2025-08-15T00:15:20.420Z,4,GR86-022-13,-8.4,0.153,-0.153,100.0,4.0,6246.0,0.0,0.0,
2025-08-15T00:15:20.463Z,4,GR86-022-13,-8.4,0.161,-0.16,100.01,4.0,,0.0,0.0,158.34
2025-08-15T00:15:20.508Z,4,GR86-022-13,-8.4,0.151,-0.179,100.02,4.0,,0.0,0.0,
2025-08-15T00:15:20.551Z,4,GR86-022-13,-8.4,0.154,-0.196,100.03,4.0,,0.0,0.0,
2025-08-15T00:15:20.594Z,4,GR86-022-13,-8.4,0.153,-0.201,99.99,4.0,,0.0,0.0,
2025-08-15T00:15:20.638Z,4,GR86-022-13,-8.4,0.158,-0.189,100.0,4.0,6321.0,0.0,0.0,
2025-08-15T00:15:20.680Z,4,GR86-022-13,-8.4,0.165,-0.205,99.99,4.0,,0.0,0.0,159.32
2025-08-15T00:15:20.723Z,4,GR86-022-13,-8.4,0.165,-0.207,100.01,4.0,,0.0,0.0,
2025-08-15T00:15:20.767Z,4,GR86-022-13,-8.4,0.157,-0.196,100.0,4.0,,0.0,0.0,
2025-08-15T00:15:20.809Z,4,GR86-022-13,-8.4,0.168,-0.206,100.0,4.0,,0.0,0.0,
2025-08-15T00:15:20.852Z,4,GR86-022-13,-8.4,0.168,-0.201,100.0,4.0,6347.0,0.0,0.0,
2025-08-15T00:15:20.895Z,4,GR86-022-13,-8.9,0.167,-0.212,100.0,4.0,,0.0,0.0,160.41
2025-08-15T00:15:20.938Z,4,GR86-022-13,-8.9,0.16,-0.216,99.99,4.0,,0.0,0.0,
2025-08-15T00:15:20.981Z,4,GR86-022-13,-8.9,0.145,-0.2,99.97,4.0,,0.0,0.0,
2025-08-15T00:15:21.024Z,4,GR86-022-13,-8.9,0.134,-0.214,100.01,4.0,,0.0,0.0,
2025-08-15T00:15:21.068Z,4,GR86-022-13,-8.9,0.17,-0.251,100.0,4.0,6396.0,0.0,0.0,
2025-08-15T00:15:21.110Z,4,GR86-022-13,-8.9,0.18,-0.255,100.0,4.0,,0.0,0.0,161.35
2025-08-15T00:15:21.153Z,4,GR86-022-13,-8.9,0.158,-0.279,100.01,4.0,,0.0,0.0,
2025-08-15T00:15:21.197Z,4,GR86-022-13,-8.9,0.143,-0.282,100.02,4.0,,0.0,0.0,
2025-08-15T00:15:21.240Z,4,GR86-022-13,-8.9,0.136,-0.288,99.98,4.0,,0.0,0.0,
2025-08-15T00:15:21.283Z,4,GR86-022-13,-8.9,0.129,-0.291,100.01,4.0,6436.0,0.0,0.0,
2025-08-15T00:15:21.328Z,4,GR86-022-13,-8.9,0.159,-0.263,100.0,4.0,,0.0,0.0,162.22
2025-08-15T00:15:21.371Z,4,GR86-022-13,-8.9,0.158,-0.269,100.0,4.0,,0.0,0.0,
2025-08-15T00:15:21.414Z,4,GR86-022-13,-8.9,0.137,-0.28,99.99,4.0,,0.0,0.0,
2025-08-15T00:15:21.458Z,4,GR86-022-13,-8.9,0.14,-0.251,100.0,4.0,,0.0,0.0,
2025-08-15T00:15:21.500Z,4,GR86-022-13,-8.9,0.131,-0.255,100.0,4.0,6467.0,0.0,0.0,
2025-08-15T00:15:21.543Z,4,GR86-022-13,-8.9,0.144,-0.252,99.99,4.0,,0.0,0.0,163.38
2025-08-15T00:15:21.588Z,4,GR86-022-13,-8.9,0.163,-0.241,100.01,4.0,,0.0,0.0,
2025-08-15T00:15:21.631Z,4,GR86-022-13,-8.9,0.139,-0.256,100.0,4.0,,0.0,0.0,
2025-08-15T00:15:21.674Z,4,GR86-022-13,-8.9,0.127,-0.25,99.98,4.0,,0.0,0.0,
2025-08-15T00:15:21.718Z,4,GR86-022-13,-8.0,0.123,-0.241,100.01,4.0,6503.0,0.0,0.0,
2025-08-15T00:15:21.760Z,4,GR86-022-13,-5.6000000000000005,0.151,-0.267,99.99,4.0,,0.0,0.0,164.33
2025-08-15T00:15:21.803Z,4,GR86-022-13,-3.4000000000000004,0.136,-0.228,100.01,4.0,,0.0,0.0,
2025-08-15T00:15:21.849Z,4,GR86-022-13,-3.1,0.147,-0.257,100.0,4.0,,0.0,0.0,
2025-08-15T00:15:21.891Z,4,GR86-022-13,-4.4,0.122,-0.216,99.97,4.0,,0.0,0.0,
2025-08-15T00:15:21.934Z,4,GR86-022-13,-5.2,0.121,-0.2,100.0,4.0,6541.0,0.0,0.0,
2025-08-15T00:15:21.978Z,4,GR86-022-13,-5.300000000000001,0.132,-0.178,100.0,4.0,,0.0,0.0,165.21
2025-08-15T00:15:22.020Z,4,GR86-022-13,-5.300000000000001,0.118,-0.156,100.03,4.0,,0.0,0.0,
2025-08-15T00:15:22.063Z,4,GR86-022-13,-5.300000000000001,0.149,-0.155,100.01,4.0,,0.0,0.0,
2025-08-15T00:15:22.108Z,4,GR86-022-13,-5.300000000000001,0.147,-0.134,100.01,4.0,,0.0,0.0,
2025-08-15T00:15:22.151Z,4,GR86-022-13,-5.300000000000001,0.133,-0.147,100.0,4.0,6578.0,0.0,0.0,
2025-08-15T00:15:22.194Z,4,GR86-022-13,-4.800000000000001,0.157,-0.125,100.02,4.0,,0.0,0.0,166.08
2025-08-15T00:15:22.238Z,4,GR86-022-13,-3.9,0.124,-0.126,100.01,4.0,,0.0,0.0,
2025-08-15T00:15:22.281Z,4,GR86-022-13,-3.3000000000000003,0.144,-0.127,99.99,4.0,,0.0,0.0,
2025-08-15T00:15:22.324Z,4,GR86-022-13,-3.3000000000000003,0.142,-0.116,99.99,4.0,,0.0,0.0,
2025-08-15T00:15:22.368Z,4,GR86-022-13,-3.3000000000000003,0.147,-0.101,100.02,4.0,6624.0,0.0,0.0,
2025-08-15T00:15:22.410Z,4,GR86-022-13,-3.3000000000000003,0.143,-0.097,100.0,4.0,,0.0,0.0,166.91
2025-08-15T00:15:22.454Z,4,GR86-022-13,-3.3000000000000003,0.145,-0.067,100.01,4.0,,0.0,0.0,
2025-08-15T00:15:22.497Z,4,GR86-022-13,-3.3000000000000003,0.151,-0.095,100.0,4.0,,0.0,0.0,
2025-08-15T00:15:22.540Z,4,GR86-022-13,-3.3000000000000003,0.16,-0.07,100.01,4.0,,0.0,0.0,
2025-08-15T00:15:22.583Z,4,GR86-022-13,-3.3000000000000003,0.161,-0.068,99.98,4.0,6643.0,0.0,0.0,
2025-08-15T00:15:22.628Z,4,GR86-022-13,-3.3000000000000003,0.159,-0.081,100.0,4.0,,0.0,0.0,168.94
2025-08-15T00:15:22.671Z,4,GR86-022-13,-3.3000000000000003,0.146,-0.077,99.99,4.0,,0.0,0.0,
2025-08-15T00:15:22.714Z,4,GR86-022-13,-3.3000000000000003,0.143,-0.086,100.01,4.0,,0.0,0.0,
2025-08-15T00:15:22.758Z,4,GR86-022-13,-3.3000000000000003,0.151,-0.092,100.01,4.0,,0.0,0.0,
2025-08-15T00:15:22.800Z,4,GR86-022-13,-3.3000000000000003,0.159,-0.081,100.01,4.0,6687.0,0.0,0.0,
2025-08-15T00:15:22.843Z,4,GR86-022-13,-3.3000000000000003,0.151,-0.086,100.0,4.0,,0.0,0.0,169.86
2025-08-15T00:15:22.888Z,4,GR86-022-13,-3.3000000000000003,0.138,-0.064,100.0,4.0,,0.0,0.0,
2025-08-15T00:15:22.931Z,4,GR86-022-13,-3.3000000000000003,0.145,-0.065,100.0,4.0,,0.0,0.0,
2025-08-15T00:15:22.974Z,4,GR86-022-13,-3.3000000000000003,0.15,-0.063,100.0,4.0,,0.0,0.0,
2025-08-15T00:15:23.018Z,4,GR86-022-13,-3.3000000000000003,0.15,-0.068,100.01,4.0,6727.0,0.0,0.0,
2025-08-15T00:15:23.060Z,4,GR86-022-13,-3.3000000000000003,0.142,-0.07,100.0,4.0,,0.0,0.0,170.91
2025-08-15T00:15:23.103Z,4,GR86-022-13,-4.2,0.134,-0.079,99.99,4.0,,0.0,0.0,
2025-08-15T00:15:23.148Z,4,GR86-022-13,-5.9,0.134,-0.051,100.01,4.0,,0.0,0.0,
2025-08-15T00:15:23.191Z,4,GR86-022-13,-6.0,0.136,-0.091,99.99,4.0,,0.0,0.0,
2025-08-15T00:15:23.234Z,4,GR86-022-13,-5.800000000000001,0.139,-0.08,100.0,4.0,6803.0,0.0,0.0,
2025-08-15T00:15:23.278Z,4,GR86-022-13,-5.2,0.121,-0.103,99.99,4.0,,0.0,0.0,171.91
2025-08-15T00:15:23.320Z,4,GR86-022-13,-4.800000000000001,0.131,-0.113,99.98,4.0,,0.0,0.0,
2025-08-15T00:15:23.363Z,4,GR86-022-13,-4.7,0.113,-0.1,100.0,4.0,,0.0,0.0,
2025-08-15T00:15:23.408Z,4,GR86-022-13,-4.7,0.147,-0.098,100.0,4.0,,0.0,0.0,
2025-08-15T00:15:23.451Z,4,GR86-022-13,-4.7,0.156,-0.093,99.99,4.0,6852.0,0.0,0.0,
2025-08-15T00:15:23.494Z,4,GR86-022-13,-4.7,0.165,-0.079,99.98,4.0,,0.0,0.0,172.75
2025-08-15T00:15:23.538Z,4,GR86-022-13,-4.4,0.169,-0.097,99.98,4.0,,0.0,0.0,
2025-08-15T00:15:23.580Z,4,GR86-022-13,-4.3,0.161,-0.114,100.0,4.0,,0.0,0.0,
2025-08-15T00:15:23.623Z,4,GR86-022-13,-4.3,0.13,-0.114,100.0,4.0,,0.0,0.0,
2025-08-15T00:15:23.667Z,4,GR86-022-13,-4.3,0.125,-0.101,99.97,4.0,6871.0,0.0,0.0,
2025-08-15T00:15:23.709Z,4,GR86-022-13,-4.3,0.145,-0.101,99.98,4.0,,0.0,0.0,173.73
2025-08-15T00:15:23.752Z,4,GR86-022-13,-4.3,0.153,-0.093,99.98,4.0,,0.0,0.0,
2025-08-15T00:15:23.795Z,4,GR86-022-13,-4.3,0.15,-0.121,99.99,4.0,,0.0,0.0,
2025-08-15T00:15:23.838Z,4,GR86-022-13,-4.3,0.144,-0.107,100.01,4.0,,0.0,0.0,
2025-08-15T00:15:23.881Z,4,GR86-022-13,-4.3,0.155,-0.107,99.98,4.0,6898.0,0.0,0.0,
2025-08-15T00:15:23.924Z,4,GR86-022-13,-4.3,0.151,-0.099,100.0,4.0,,0.0,0.0,174.64
2025-08-15T00:15:23.968Z,4,GR86-022-13,-4.3,0.109,-0.095,99.99,4.0,,0.0,0.0,
2025-08-15T00:15:24.010Z,4,GR86-022-13,-4.3,0.125,-0.085,100.0,4.0,,0.0,0.0,
2025-08-15T00:15:24.053Z,4,GR86-022-13,-4.3,0.114,-0.102,99.99,4.0,,0.0,0.0,
2025-08-15T00:15:24.098Z,4,GR86-022-13,-4.3,0.104,-0.091,100.0,4.0,6939.0,0.0,0.0,
2025-08-15T00:15:24.184Z,4,GR86-022-13,-4.3,0.125,-0.107,99.99,4.0,,0.0,0.0,175.54
2025-08-15T00:15:24.228Z,4,GR86-022-13,-4.3,0.142,-0.108,99.99,4.0,,0.0,0.0,
2025-08-15T00:15:24.271Z,4,GR86-022-13,-4.3,0.151,-0.102,100.0,4.0,,0.0,0.0,
2025-08-15T00:15:24.314Z,4,GR86-022-13,-4.3,0.142,-0.087,100.02,4.0,6985.0,0.0,0.0,
2025-08-15T00:15:24.357Z,4,GR86-022-13,-4.3,0.154,-0.106,99.99,4.0,,0.0,0.0,176.41
2025-08-15T00:15:24.400Z,4,GR86-022-13,-4.3,0.138,-0.114,99.99,4.0,,0.0,0.0,
2025-08-15T00:15:24.443Z,4,GR86-022-13,-4.3,0.14,-0.089,100.0,4.0,,0.0,0.0,
2025-08-15T00:15:24.488Z,4,GR86-022-13,-4.3,0.117,-0.071,99.99,4.0,,0.0,0.0,
2025-08-15T00:15:24.531Z,4,GR86-022-13,-4.3,0.121,-0.062,100.01,4.0,7004.0,0.0,0.0,
2025-08-15T00:15:24.574Z,4,GR86-022-13,-4.3,0.119,-0.083,100.0,4.0,,0.0,0.0,177.33
2025-08-15T00:15:24.618Z,4,GR86-022-13,-4.3,0.136,-0.068,100.01,4.0,,0.0,0.0,
2025-08-15T00:15:24.660Z,4,GR86-022-13,-4.3,0.128,-0.082,100.01,4.0,,0.0,0.0,
2025-08-15T00:15:24.703Z,4,GR86-022-13,-4.3,0.13,-0.072,99.99,4.0,,0.0,0.0,
2025-08-15T00:15:24.748Z,4,GR86-022-13,-4.3,0.139,-0.094,100.01,4.0,7035.0,0.0,0.0,
2025-08-15T00:15:24.791Z,4,GR86-022-13,-4.3,0.104,-0.092,99.99,4.0,,0.0,0.0,178.09
2025-08-15T00:15:24.834Z,4,GR86-022-13,-4.1000000000000005,0.13,-0.08,100.0,4.0,,0.0,0.0,
2025-08-15T00:15:24.878Z,4,GR86-022-13,-3.6,0.132,-0.097,100.01,4.0,,0.0,0.0,
2025-08-15T00:15:24.920Z,4,GR86-022-13,-3.1,0.128,-0.074,100.0,4.0,,0.0,0.0,
2025-08-15T00:15:24.963Z,4,GR86-022-13,-2.9000000000000004,0.122,-0.074,99.99,4.0,7090.0,0.0,0.0,
2025-08-15T00:15:25.008Z,4,GR86-022-13,-2.9000000000000004,0.134,-0.045,99.99,4.0,,0.0,0.0,178.82
2025-08-15T00:15:25.051Z,4,GR86-022-13,-2.9000000000000004,0.108,-0.032,100.01,4.0,,0.0,0.0,
2025-08-15T00:15:25.094Z,4,GR86-022-13,-2.6,0.133,-0.036,100.0,4.0,,0.0,0.0,
2025-08-15T00:15:25.138Z,4,GR86-022-13,-2.3000000000000003,0.132,-0.034,100.02,4.0,,0.0,0.0,
2025-08-15T00:15:25.180Z,4,GR86-022-13,-2.1,0.145,-0.038,100.0,4.0,7109.0,0.0,0.0,
2025-08-15T00:15:25.223Z,4,GR86-022-13,-2.1,0.122,-0.038,100.01,4.0,,0.0,0.0,179.74
2025-08-15T00:15:25.267Z,4,GR86-022-13,-2.1,0.114,-0.048,99.97,4.0,,0.0,0.0,
2025-08-15T00:15:25.309Z,4,GR86-022-13,-2.1,0.11,-0.019,99.99,4.0,,0.0,0.0,
2025-08-15T00:15:25.352Z,4,GR86-022-13,-2.1,0.132,-0.039,99.99,4.0,,0.0,0.0,
2025-08-15T00:15:25.395Z,4,GR86-022-13,-1.9,0.117,-0.026,100.01,4.0,7130.0,0.0,0.0,
2025-08-15T00:15:25.438Z,4,GR86-022-13,-1.2000000000000002,0.123,-0.012,99.99,4.0,,0.0,0.0,181.28
2025-08-15T00:15:25.481Z,4,GR86-022-13,-0.5,0.12,0.006,99.99,4.0,,0.0,0.0,
2025-08-15T00:15:25.524Z,4,GR86-022-13,-0.2,0.117,-0.016,99.99,4.0,,0.0,0.0,
2025-08-15T00:15:25.568Z,4,GR86-022-13,-0.2,0.136,0.02,99.98,4.0,,0.0,0.0,
2025-08-15T00:15:25.610Z,4,GR86-022-13,-0.2,0.131,0.038,100.0,4.0,7159.0,0.0,0.0,
2025-08-15T00:15:25.654Z,4,GR86-022-13,-0.2,0.124,0.053,99.99,4.0,,0.0,0.0,182.12
2025-08-15T00:15:25.698Z,4,GR86-022-13,-0.2,0.134,0.028,99.99,4.0,,0.0,0.0,
2025-08-15T00:15:25.740Z,4,GR86-022-13,-0.2,0.131,0.03,100.0,4.0,,0.0,0.0,
2025-08-15T00:15:25.783Z,4,GR86-022-13,-0.2,0.127,0.062,100.01,4.0,,0.0,0.0,
2025-08-15T00:15:25.828Z,4,GR86-022-13,-0.2,0.113,0.093,100.0,4.0,7224.0,0.0,0.0,
2025-08-15T00:15:25.871Z,4,GR86-022-13,-0.2,0.104,0.069,100.02,4.0,,0.0,0.0,182.82
2025-08-15T00:15:25.914Z,4,GR86-022-13,-0.2,0.104,0.082,99.99,4.0,,0.0,0.0,
2025-08-15T00:15:25.958Z,4,GR86-022-13,-0.2,0.113,0.074,99.99,4.0,,0.0,0.0,
2025-08-15T00:15:26.000Z,4,GR86-022-13,-0.2,0.123,0.081,99.99,4.0,,0.0,0.0,
2025-08-15T00:15:26.043Z,4,GR86-022-13,-0.2,0.112,0.089,99.99,4.0,7253.0,0.0,0.0,
2025-08-15T00:15:26.088Z,4,GR86-022-13,-0.6000000000000001,-0.024,0.079,100.0,5.0,,0.0,0.0,183.75
2025-08-15T00:15:26.131Z,4,GR86-022-13,-1.5,-0.07,0.113,99.98,5.0,,0.0,0.0,
2025-08-15T00:15:26.174Z,4,GR86-022-13,-1.5,0.465,0.084,99.98,5.0,,0.0,0.0,
2025-08-15T00:15:26.217Z,4,GR86-022-13,-1.7000000000000002,0.162,0.042,100.0,5.0,,0.0,0.0,
2025-08-15T00:15:26.260Z,4,GR86-022-13,-2.3000000000000003,0.044,0.102,100.0,5.0,7287.0,0.0,0.0,
2025-08-15T00:15:26.303Z,4,GR86-022-13,-2.4000000000000004,0.078,0.072,100.0,5.0,,0.0,0.0,184.56
2025-08-15T00:15:26.349Z,4,GR86-022-13,-2.4000000000000004,0.146,0.043,99.99,5.0,,0.0,0.0,
2025-08-15T00:15:26.391Z,4,GR86-022-13,-2.4000000000000004,0.094,0.079,99.99,5.0,,0.0,0.0,
2025-08-15T00:15:26.434Z,4,GR86-022-13,-2.4000000000000004,0.079,-0.01,100.01,5.0,,0.0,0.0,
2025-08-15T00:15:26.478Z,4,GR86-022-13,-2.5,0.127,-0.003,99.98,5.0,6219.0,0.0,0.0,
2025-08-15T00:15:26.520Z,4,GR86-022-13,-2.7,0.123,0.022,100.01,5.0,,0.0,0.0,185.02
2025-08-15T00:15:26.563Z,4,GR86-022-13,-2.7,0.116,-0.024,100.0,5.0,,0.0,0.0,
2025-08-15T00:15:26.608Z,4,GR86-022-13,-2.7,0.111,0.019,100.0,5.0,,0.0,0.0,
2025-08-15T00:15:26.651Z,4,GR86-022-13,-2.7,0.103,-0.002,100.0,5.0,,0.0,0.0,
2025-08-15T00:15:26.694Z,4,GR86-022-13,-2.7,0.093,-0.034,100.01,5.0,6351.0,0.0,0.0,
2025-08-15T00:15:26.738Z,4,GR86-022-13,-2.7,0.089,-0.022,100.0,5.0,,0.0,0.0,185.81
2025-08-15T00:15:26.781Z,4,GR86-022-13,-2.7,0.092,-0.033,100.0,5.0,,0.0,0.0,
2025-08-15T00:15:26.824Z,4,GR86-022-13,-2.7,0.11,-0.025,100.0,5.0,,0.0,0.0,
2025-08-15T00:15:26.868Z,4,GR86-022-13,-2.7,0.126,-0.023,99.98,5.0,,0.0,0.0,
2025-08-15T00:15:26.910Z,4,GR86-022-13,-2.7,0.133,-0.03,100.0,5.0,6389.0,0.0,0.0,
2025-08-15T00:15:26.954Z,4,GR86-022-13,-2.7,0.103,-0.027,100.01,5.0,,0.0,0.0,186.55
2025-08-15T00:15:26.998Z,4,GR86-022-13,-2.7,0.115,-0.031,99.99,5.0,,0.0,0.0,
2025-08-15T00:15:27.040Z,4,GR86-022-13,-2.7,0.123,-0.06,99.99,5.0,,0.0,0.0,
2025-08-15T00:15:27.083Z,4,GR86-022-13,-2.7,0.105,-0.066,99.98,5.0,,0.0,0.0,
2025-08-15T00:15:27.128Z,4,GR86-022-13,-2.7,0.122,-0.073,99.99,5.0,6413.0,0.0,0.0,
2025-08-15T00:15:27.171Z,4,GR86-022-13,-2.7,0.11,-0.062,100.01,5.0,,0.0,0.0,187.16
2025-08-15T00:15:27.214Z,4,GR86-022-13,-2.7,0.118,-0.075,100.0,5.0,,0.0,0.0,
2025-08-15T00:15:27.258Z,4,GR86-022-13,-2.6,0.128,-0.075,100.0,5.0,,0.0,0.0,
2025-08-15T00:15:27.300Z,4,GR86-022-13,-2.6,0.109,-0.071,100.01,5.0,,0.0,0.0,
2025-08-15T00:15:27.343Z,4,GR86-022-13,-2.7,0.132,-0.079,99.99,5.0,6443.0,0.0,0.0,
2025-08-15T00:15:27.388Z,4,GR86-022-13,-2.3000000000000003,0.102,-0.077,99.99,5.0,,0.0,0.0,187.82
2025-08-15T00:15:27.431Z,4,GR86-022-13,-1.9,0.106,-0.097,100.0,5.0,,0.0,0.0,
2025-08-15T00:15:27.474Z,4,GR86-022-13,-1.5,0.101,-0.078,100.0,5.0,,0.0,0.0,
2025-08-15T00:15:27.518Z,4,GR86-022-13,-1.4,0.106,-0.097,99.98,5.0,,0.0,0.0,
2025-08-15T00:15:27.560Z,4,GR86-022-13,-1.4,0.106,-0.065,100.0,5.0,6453.0,0.0,0.0,
2025-08-15T00:15:27.603Z,4,GR86-022-13,-1.4,0.106,-0.062,99.98,5.0,,0.0,0.0,188.69
2025-08-15T00:15:27.648Z,4,GR86-022-13,-1.4,0.1,-0.027,99.99,5.0,,0.0,0.0,
2025-08-15T00:15:27.691Z,4,GR86-022-13,-1.5,0.109,-0.022,100.0,5.0,,0.0,0.0,
2025-08-15T00:15:27.734Z,4,GR86-022-13,-1.6,0.097,-0.033,100.0,5.0,,0.0,0.0,
2025-08-15T00:15:27.778Z,4,GR86-022-13,-1.8,0.103,-0.029,100.01,5.0,6470.0,0.0,0.0,
2025-08-15T00:15:27.820Z,4,GR86-022-13,-2.1,0.106,-0.008,99.99,5.0,,0.0,0.0,189.33
2025-08-15T00:15:27.863Z,4,GR86-022-13,-2.1,0.094,-0.013,100.0,5.0,,0.0,0.0,
2025-08-15T00:15:27.908Z,4,GR86-022-13,-2.3000000000000003,0.107,0.008,99.98,5.0,,0.0,0.0,
2025-08-15T00:15:27.951Z,4,GR86-022-13,-2.3000000000000003,0.104,-0.009,100.01,5.0,,0.0,0.0,
2025-08-15T00:15:27.994Z,4,GR86-022-13,-2.4000000000000004,0.099,-0.008,100.01,5.0,6494.0,0.0,0.0,
2025-08-15T00:15:28.038Z,4,GR86-022-13,-2.5,0.097,-0.013,99.98,5.0,,0.0,0.0,190.57
2025-08-15T00:15:28.080Z,4,GR86-022-13,-2.8000000000000003,0.11,-0.031,100.02,5.0,,0.0,0.0,
2025-08-15T00:15:28.123Z,4,GR86-022-13,-3.2,0.106,-0.041,100.01,5.0,,0.0,0.0,
2025-08-15T00:15:28.167Z,4,GR86-022-13,-3.6,0.098,-0.061,99.99,5.0,,0.0,0.0,
2025-08-15T00:15:28.209Z,4,GR86-022-13,-3.7,0.13,-0.068,100.01,5.0,6519.0,0.0,0.0,
2025-08-15T00:15:28.252Z,4,GR86-022-13,-3.7,0.112,-0.069,99.99,5.0,,0.0,0.0,191.27
2025-08-15T00:15:28.295Z,4,GR86-022-13,-3.7,0.114,-0.08,100.01,5.0,,0.0,0.0,
2025-08-15T00:15:28.338Z,4,GR86-022-13,-3.7,0.103,-0.082,99.99,5.0,,0.0,0.0,
2025-08-15T00:15:28.381Z,4,GR86-022-13,-3.7,0.105,-0.069,100.01,5.0,,0.0,0.0,
2025-08-15T00:15:28.424Z,4,GR86-022-13,-3.5,0.113,-0.065,100.01,5.0,6544.0,0.0,0.0,
2025-08-15T00:15:28.468Z,4,GR86-022-13,-3.4000000000000004,0.093,-0.067,99.99,5.0,,0.0,0.0,191.83
2025-08-15T00:15:28.510Z,4,GR86-022-13,-3.3000000000000003,0.101,-0.077,99.99,5.0,,0.0,0.0,
2025-08-15T00:15:28.554Z,4,GR86-022-13,-3.3000000000000003,0.111,-0.088,100.0,5.0,,0.0,0.0,
2025-08-15T00:15:28.598Z,4,GR86-022-13,-3.3000000000000003,0.104,-0.077,99.99,5.0,,0.0,0.0,
2025-08-15T00:15:28.641Z,4,GR86-022-13,-3.3000000000000003,0.118,-0.078,100.0,5.0,6594.0,0.0,0.0,
2025-08-15T00:15:28.684Z,4,GR86-022-13,-3.3000000000000003,0.108,-0.092,100.0,5.0,,0.0,0.0,192.38
2025-08-15T00:15:28.728Z,4,GR86-022-13,-3.7,0.081,-0.088,100.0,5.0,,0.0,0.0,
2025-08-15T00:15:28.771Z,4,GR86-022-13,-3.7,0.1,-0.091,100.0,5.0,,0.0,0.0,
2025-08-15T00:15:28.814Z,4,GR86-022-13,-3.7,0.098,-0.09,100.02,5.0,,0.0,0.0,
2025-08-15T00:15:28.858Z,4,GR86-022-13,-3.3000000000000003,0.1,-0.087,100.0,5.0,6607.0,0.0,0.0,
2025-08-15T00:15:28.900Z,4,GR86-022-13,-3.2,0.118,-0.088,99.98,5.0,,0.0,0.0,192.95
2025-08-15T00:15:28.943Z,4,GR86-022-13,-3.1,0.104,-0.077,100.0,5.0,,0.0,0.0,
2025-08-15T00:15:28.987Z,4,GR86-022-13,-2.9000000000000004,0.085,-0.075,100.0,5.0,,0.0,0.0,
2025-08-15T00:15:29.031Z,4,GR86-022-13,-2.0,0.085,-0.097,100.0,5.0,,0.0,0.0,
2025-08-15T00:15:29.074Z,4,GR86-022-13,-0.7000000000000001,0.089,-0.085,100.0,5.0,6626.0,0.0,0.0,
2025-08-15T00:15:29.117Z,4,GR86-022-13,0.6000000000000001,0.085,-0.083,100.0,5.0,,0.0,0.0,193.71
2025-08-15T00:15:29.160Z,4,GR86-022-13,1.1,0.119,-0.06,100.0,5.0,,0.0,0.0,
2025-08-15T00:15:29.203Z,4,GR86-022-13,1.1,0.108,-0.029,100.0,5.0,,0.0,0.0,
2025-08-15T00:15:29.248Z,4,GR86-022-13,1.1,0.078,-0.02,100.0,5.0,,0.0,0.0,
2025-08-15T00:15:29.291Z,4,GR86-022-13,1.1,0.098,-0.012,99.99,5.0,6656.0,0.0,0.0,
2025-08-15T00:15:29.334Z,4,GR86-022-13,1.1,0.083,-0.008,99.99,5.0,,0.0,0.0,194.2
2025-08-15T00:15:29.378Z,4,GR86-022-13,1.1,0.12,0.02,100.0,5.0,,0.0,0.0,
2025-08-15T00:15:29.420Z,4,GR86-022-13,1.1,0.108,0.034,99.99,5.0,,0.0,0.0,
2025-08-15T00:15:29.508Z,4,GR86-022-13,2.9000000000000004,0.073,0.093,99.99,5.0,6673.0,0.0,0.0,
2025-08-15T00:15:29.551Z,4,GR86-022-13,3.6,0.078,0.116,99.99,5.0,,0.0,0.0,195.01
2025-08-15T00:15:29.594Z,4,GR86-022-13,3.7,0.108,0.146,100.0,5.0,,0.0,0.0,
2025-08-15T00:15:29.638Z,4,GR86-022-13,3.7,0.11,0.142,99.99,5.0,,0.0,0.0,
2025-08-15T00:15:29.680Z,4,GR86-022-13,3.8,0.104,0.169,99.98,5.0,,0.0,0.0,
2025-08-15T00:15:29.723Z,4,GR86-022-13,4.5,0.12,0.165,100.0,5.0,6696.0,0.0,0.0,
2025-08-15T00:15:29.767Z,4,GR86-022-13,6.6000000000000005,0.079,0.197,100.0,5.0,,0.0,0.0,195.75
2025-08-15T00:15:29.809Z,4,GR86-022-13,8.0,0.081,0.238,100.02,5.0,,0.0,0.0,
2025-08-15T00:15:29.852Z,4,GR86-022-13,8.4,0.094,0.216,100.0,5.0,,0.0,0.0,
2025-08-15T00:15:29.895Z,4,GR86-022-13,8.200000000000001,0.111,0.244,99.99,5.0,,0.0,0.0,
2025-08-15T00:15:29.938Z,4,GR86-022-13,7.1000000000000005,0.112,0.226,99.99,5.0,6714.0,0.0,0.0,
2025-08-15T00:15:29.981Z,4,GR86-022-13,6.300000000000001,0.106,0.249,100.0,5.0,,0.0,0.0,196.25
2025-08-15T00:15:30.024Z,4,GR86-022-13,6.2,0.113,0.242,100.01,5.0,,0.0,0.0,
2025-08-15T00:15:30.068Z,4,GR86-022-13,8.200000000000001,0.087,0.28,99.99,5.0,,0.0,0.0,
2025-08-15T00:15:30.110Z,4,GR86-022-13,9.5,0.109,0.293,100.0,5.0,,0.0,0.0,
2025-08-15T00:15:30.153Z,4,GR86-022-13,9.8,0.101,0.315,99.99,5.0,6740.0,0.0,0.0,
2025-08-15T00:15:30.198Z,4,GR86-022-13,8.700000000000001,0.11,0.327,99.99,5.0,,0.0,0.0,197.14
2025-08-15T00:15:30.241Z,4,GR86-022-13,7.0,0.104,0.347,100.01,5.0,,3.37,3.37,
2025-08-15T00:15:30.284Z,4,GR86-022-13,5.9,0.078,0.324,100.0,5.0,,0.0,0.0,
2025-08-15T00:15:30.328Z,4,GR86-022-13,5.6000000000000005,0.107,0.293,100.0,5.0,,0.0,0.0,
2025-08-15T00:15:30.371Z,4,GR86-022-13,5.7,0.1,0.298,100.0,5.0,6753.0,4.715,4.93,
2025-08-15T00:15:30.414Z,4,GR86-022-13,6.300000000000001,0.103,0.291,100.0,5.0,,3.815,4.0600000000000005,197.62
2025-08-15T00:15:30.458Z,4,GR86-022-13,7.300000000000001,0.052,0.312,99.99,5.0,,0.0,0.0,
2025-08-15T00:15:30.500Z,4,GR86-022-13,8.5,0.077,0.304,100.0,5.0,,0.0,0.0,
2025-08-15T00:15:30.543Z,4,GR86-022-13,9.4,0.084,0.28,99.99,5.0,,0.0,0.0,
2025-08-15T00:15:30.588Z,4,GR86-022-13,9.6,0.107,0.279,99.98,5.0,6783.0,0.0,0.0,
2025-08-15T00:15:30.631Z,4,GR86-022-13,9.3,0.093,0.273,100.01,5.0,,0.0,0.0,198.61
2025-08-15T00:15:30.674Z,4,GR86-022-13,9.1,0.076,0.306,100.0,5.0,,0.0,0.0,
2025-08-15T00:15:30.718Z,4,GR86-022-13,8.5,0.089,0.307,99.99,5.0,,0.0,0.0,
2025-08-15T00:15:30.760Z,4,GR86-022-13,7.9,0.077,0.336,99.98,5.0,,0.0,0.0,
2025-08-15T00:15:30.803Z,4,GR86-022-13,7.4,0.074,0.35,99.99,5.0,6791.0,0.0,0.0,
2025-08-15T00:15:30.849Z,4,GR86-022-13,7.2,0.093,0.364,100.0,5.0,,0.0,0.0,198.95
2025-08-15T00:15:30.891Z,4,GR86-022-13,7.2,0.074,0.396,99.98,5.0,,0.0,0.0,
2025-08-15T00:15:30.934Z,4,GR86-022-13,7.2,0.085,0.378,99.99,5.0,,0.0,0.0,
2025-08-15T00:15:30.978Z,4,GR86-022-13,7.2,0.096,0.373,100.0,5.0,,0.0,0.0,
2025-08-15T00:15:31.020Z,4,GR86-022-13,7.2,0.092,0.367,99.99,5.0,6806.0,0.0,0.0,
2025-08-15T00:15:31.063Z,4,GR86-022-13,7.2,0.094,0.319,100.01,5.0,,0.0,0.0,199.48
2025-08-15T00:15:31.108Z,4,GR86-022-13,7.0,0.082,0.318,99.99,5.0,,0.0,0.0,
2025-08-15T00:15:31.151Z,4,GR86-022-13,7.0,0.107,0.285,100.01,5.0,,0.0,0.0,
2025-08-15T00:15:31.194Z,4,GR86-022-13,7.0,0.076,0.271,100.01,5.0,,0.0,0.0,
2025-08-15T00:15:31.238Z,4,GR86-022-13,7.0,0.1,0.249,99.98,5.0,6853.0,0.0,0.0,
2025-08-15T00:15:31.281Z,4,GR86-022-13,7.0,0.068,0.275,99.98,5.0,,0.0,0.0,200.2
2025-08-15T00:15:31.324Z,4,GR86-022-13,7.0,0.108,0.283,100.0,5.0,,0.0,0.0,
2025-08-15T00:15:31.368Z,4,GR86-022-13,7.0,0.081,0.298,100.0,5.0,,0.0,0.0,
2025-08-15T00:15:31.410Z,4,GR86-022-13,7.0,0.082,0.266,100.0,5.0,,0.0,0.0,
2025-08-15T00:15:31.453Z,4,GR86-022-13,7.0,0.072,0.264,99.99,5.0,6880.0,0.0,0.0,
2025-08-15T00:15:31.497Z,4,GR86-022-13,7.0,0.062,0.239,100.0,5.0,,0.0,0.0,200.84
2025-08-15T00:15:31.539Z,4,GR86-022-13,6.800000000000001,0.074,0.275,99.98,5.0,,0.0,0.0,
2025-08-15T00:15:31.582Z,4,GR86-022-13,6.0,0.082,0.288,100.0,5.0,,0.0,0.0,
2025-08-15T00:15:31.625Z,4,GR86-022-13,4.9,0.095,0.302,100.0,5.0,,0.0,0.0,
2025-08-15T00:15:31.668Z,4,GR86-022-13,3.7,0.066,0.296,100.0,5.0,6892.0,0.0,0.0,
2025-08-15T00:15:31.711Z,4,GR86-022-13,3.6,0.068,0.29,100.0,5.0,,0.0,0.0,201.33
2025-08-15T00:15:31.754Z,4,GR86-022-13,4.800000000000001,0.064,0.272,100.01,5.0,,0.0,0.0,
2025-08-15T00:15:31.798Z,4,GR86-022-13,7.0,0.1,0.289,100.0,5.0,,0.0,0.0,
2025-08-15T00:15:31.840Z,4,GR86-022-13,8.8,0.088,0.268,100.0,5.0,,0.0,0.0,
2025-08-15T00:15:31.883Z,4,GR86-022-13,9.2,0.09,0.263,100.0,5.0,6918.0,0.0,0.0,
2025-08-15T00:15:31.928Z,4,GR86-022-13,8.0,0.063,0.277,100.0,5.0,,13.2,13.52,201.68
2025-08-15T00:15:31.971Z,4,GR86-022-13,7.9,-0.025,0.31,100.0,5.0,,33.555,33.585,
2025-08-15T00:15:32.014Z,4,GR86-022-13,8.5,-0.365,0.314,66.41,5.0,,55.805,55.24,
2025-08-15T00:15:32.057Z,4,GR86-022-13,8.1,-0.714,0.271,18.69,5.0,,65.955,65.495,
2025-08-15T00:15:32.100Z,4,GR86-022-13,3.8,-0.771,0.238,2.37,5.0,6925.0,55.605,56.72,
2025-08-15T00:15:32.143Z,4,GR86-022-13,-2.0,-0.594,0.277,2.85,5.0,,35.31,36.06,202.51
2025-08-15T00:15:32.188Z,4,GR86-022-13,-2.7,-0.443,0.243,2.82,5.0,,26.2,26.69,
2025-08-15T00:15:32.231Z,4,GR86-022-13,2.6,-0.754,0.203,2.78,5.0,,27.835,28.095,
2025-08-15T00:15:32.274Z,4,GR86-022-13,7.2,-0.532,0.248,2.75,5.0,,30.675,30.825,
2025-08-15T00:15:32.318Z,4,GR86-022-13,8.1,-0.625,0.296,2.72,5.0,6902.0,38.775,38.93,
2025-08-15T00:15:32.360Z,4,GR86-022-13,6.2,-0.777,0.282,2.68,5.0,,56.185,56.28,202.8
2025-08-15T00:15:32.403Z,4,GR86-022-13,-1.2000000000000002,-1.04,0.287,2.65,5.0,,67.875,67.785,
2025-08-15T00:15:32.448Z,4,GR86-022-13,-14.7,-1.051,0.179,2.64,5.0,,53.715,54.615,
2025-08-15T00:15:32.491Z,4,GR86-022-13,-17.2,-0.725,0.163,2.61,5.0,,34.9,35.375,
2025-08-15T00:15:32.534Z,4,GR86-022-13,-14.4,-0.648,0.094,2.59,5.0,6487.0,21.745,22.25,
2025-08-15T00:15:32.578Z,4,GR86-022-13,-8.4,-0.605,0.067,2.5500000000000003,5.0,,19.55,19.9,197.5
2025-08-15T00:15:32.620Z,4,GR86-022-13,0.7000000000000001,-0.386,0.08,2.54,5.0,,19.52,19.9,
2025-08-15T00:15:32.663Z,4,GR86-022-13,4.3,-0.415,0.08,2.53,5.0,,19.365,19.76,
2025-08-15T00:15:32.708Z,4,GR86-022-13,3.2,-0.507,0.059,2.51,5.0,,20.785,20.935,
2025-08-15T00:15:32.751Z,4,GR86-022-13,1.5,-0.506,0.0,2.51,5.0,6293.0,24.615,24.705,
2025-08-15T00:15:32.794Z,4,GR86-022-13,4.800000000000001,-0.5660000000000001,-0.028,2.5,5.0,,31.925,32.045,193.49
2025-08-15T00:15:32.838Z,4,GR86-022-13,12.3,-0.6950000000000001,-0.017,2.5,5.0,,41.4,41.34,
2025-08-15T00:15:32.880Z,4,GR86-022-13,17.400000000000002,-0.804,0.028,2.49,5.0,,45.935,46.025,
2025-08-15T00:15:32.923Z,4,GR86-022-13,12.4,-0.844,0.102,2.5,5.0,,43.43,44.025,
2025-08-15T00:15:32.967Z,4,GR86-022-13,0.1,-0.7010000000000001,0.107,2.5,5.0,6357.0,31.145,31.77,
2025-08-15T00:15:33.009Z,4,GR86-022-13,-4.800000000000001,-0.5710000000000001,0.074,2.5,5.0,,29.925,30.4,188.41
2025-08-15T00:15:33.052Z,4,GR86-022-13,-7.7,-0.744,0.032,2.51,5.0,,34.09,34.245,
2025-08-15T00:15:33.095Z,4,GR86-022-13,-7.5,-0.645,0.049,2.49,5.0,,37.525,37.705,
2025-08-15T00:15:33.138Z,4,GR86-022-13,-7.1000000000000005,-0.6980000000000001,0.048,2.51,5.0,,43.355,43.4,
2025-08-15T00:15:33.181Z,4,GR86-022-13,-6.800000000000001,-0.809,0.062,2.5,5.0,6122.0,51.425,51.425,
2025-08-15T00:15:33.224Z,4,GR86-022-13,-2.3000000000000003,-0.897,0.053,2.48,5.0,,65.08500000000001,64.87,184.87
2025-08-15T00:15:33.268Z,4,GR86-022-13,8.1,-1.099,0.091,34.25,5.0,,82.77,82.83,
2025-08-15T00:15:33.310Z,4,GR86-022-13,7.9,-1.049,0.102,81.0,5.0,,93.62,94.4,
2025-08-15T00:15:33.353Z,4,GR86-022-13,0.8,-1.029,0.059,100.15,5.0,,94.675,95.175,
2025-08-15T00:15:33.398Z,4,GR86-022-13,-7.9,-0.984,0.037,66.75,4.0,5801.0,88.11,88.95,
2025-08-15T00:15:33.441Z,4,GR86-022-13,-11.8,-0.982,-0.054,5.05,4.0,,64.215,65.025,175.21
2025-08-15T00:15:33.484Z,4,GR86-022-13,-6.800000000000001,-0.867,0.009,2.93,4.0,,42.65,43.26,
2025-08-15T00:15:33.528Z,4,GR86-022-13,9.7,-0.799,-0.068,2.64,4.0,,31.51,32.230000000000004,
2025-08-15T00:15:33.571Z,4,GR86-022-13,14.3,-0.909,0.076,2.5500000000000003,4.0,,30.795,31.235,
2025-08-15T00:15:33.614Z,4,GR86-022-13,13.3,-0.5640000000000001,0.075,2.53,4.0,5744.0,31.65,32.105000000000004,
2025-08-15T00:15:33.658Z,4,GR86-022-13,9.9,-0.834,0.046,2.5,4.0,,31.71,32.105000000000004,164.35
2025-08-15T00:15:33.700Z,4,GR86-022-13,5.9,-0.641,0.108,2.48,4.0,,33.405,33.65,
2025-08-15T00:15:33.743Z,4,GR86-022-13,1.4,-0.653,0.05,2.48,4.0,,34.12,34.595,
2025-08-15T00:15:33.787Z,4,GR86-022-13,-2.7,-0.713,0.034,2.49,4.0,,34.99,35.235,
2025-08-15T00:15:33.831Z,4,GR86-022-13,-2.1,-0.727,0.057,2.48,4.0,6198.0,44.16,44.225,
2025-08-15T00:15:33.874Z,4,GR86-022-13,-1.7000000000000002,-0.876,0.071,2.48,4.0,,50.585,50.68,161.70000000000002
2025-08-15T00:15:33.918Z,4,GR86-022-13,-0.8,-0.909,0.092,2.48,4.0,,58.245000000000005,58.095,
2025-08-15T00:15:33.960Z,4,GR86-022-13,2.8000000000000003,-1.01,0.091,2.49,4.0,,68.775,68.33500000000001,
2025-08-15T00:15:34.003Z,4,GR86-022-13,6.800000000000001,-1.103,0.119,8.28,4.0,,79.045,78.545,
2025-08-15T00:15:34.048Z,4,GR86-022-13,1.1,-1.088,0.129,52.55,3.0,6034.0,94.765,95.39,
2025-08-15T00:15:34.091Z,4,GR86-022-13,-5.9,-1.077,0.084,6.9,3.0,,95.48,96.81,158.95000000000002
2025-08-15T00:15:34.134Z,4,GR86-022-13,-8.700000000000001,-0.892,0.055,4.3500000000000005,3.0,,94.155,95.36,
2025-08-15T00:15:34.177Z,4,GR86-022-13,-2.8000000000000003,-1.089,-0.025,3.81,3.0,,95.42,95.62,
2025-08-15T00:15:34.220Z,4,GR86-022-13,4.0,-1.051,0.07,3.46,3.0,,96.26,96.93,
2025-08-15T00:15:34.263Z,4,GR86-022-13,5.9,-0.847,0.091,3.25,3.0,5624.0,98.365,99.495,
2025-08-15T00:15:34.308Z,4,GR86-022-13,-5.4,-0.93,0.001,3.02,3.0,,95.68,95.71,151.97
2025-08-15T00:15:34.351Z,4,GR86-022-13,-12.6,-0.881,0.088,2.91,3.0,,99.86,100.93,
2025-08-15T00:15:34.394Z,4,GR86-022-13,-8.6,-0.852,0.1,2.82,3.0,,100.99,101.265,
2025-08-15T00:15:34.438Z,4,GR86-022-13,-5.800000000000001,-0.6,-0.093,2.73,3.0,,97.285,97.435,
2025-08-15T00:15:34.480Z,4,GR86-022-13,-10.7,-0.992,0.07,2.66,3.0,6015.0,103.555,104.44,
2025-08-15T00:15:34.523Z,4,GR86-022-13,-10.2,-0.71,-0.026,2.6,3.0,,101.325,102.395,139.3
2025-08-15T00:15:34.567Z,4,GR86-022-13,6.300000000000001,-0.893,-0.035,2.57,3.0,,102.975,102.975,
2025-08-15T00:15:34.609Z,4,GR86-022-13,12.0,-0.74,0.039,2.54,3.0,,106.055,106.835,
2025-08-15T00:15:34.652Z,4,GR86-022-13,9.0,-0.849,0.043,2.52,3.0,,105.995,106.025,
2025-08-15T00:15:34.695Z,4,GR86-022-13,-0.5,-0.879,-0.078,2.51,3.0,5812.0,104.18,104.685,
2025-08-15T00:15:34.738Z,4,GR86-022-13,-4.2,-0.892,0.032,2.5,3.0,,103.25,103.69,130.18
2025-08-15T00:15:34.781Z,4,GR86-022-13,-0.9,-0.918,-0.065,37.41,3.0,,106.545,106.515,
2025-08-15T00:15:34.824Z,4,GR86-022-13,-0.7000000000000001,-1.027,-0.127,46.99,2.0,,109.095,109.275,
2025-08-15T00:15:34.868Z,4,GR86-022-13,-0.2,-0.909,-0.078,4.45,2.0,,107.55,108.68,
2025-08-15T00:15:34.910Z,4,GR86-022-13,0.0,-1.061,-0.047,3.82,2.0,5956.0,111.43,112.175,
2025-08-15T00:15:34.954Z,4,GR86-022-13,0.4,-1.036,-0.159,3.43,2.0,,109.75,110.465,123.91
2025-08-15T00:15:34.998Z,4,GR86-022-13,2.2,-0.738,-0.025,3.23,2.0,,107.585,108.85,
2025-08-15T00:15:35.040Z,4,GR86-022-13,3.9,-0.996,-0.079,3.11,2.0,,109.84,110.68,
2025-08-15T00:15:35.083Z,4,GR86-022-13,10.4,-1.093,-0.252,2.98,2.0,,111.095,111.46,
2025-08-15T00:15:35.128Z,4,GR86-022-13,11.6,-0.941,0.108,2.83,2.0,5686.0,110.895,112.055,
2025-08-15T00:15:35.171Z,4,GR86-022-13,16.1,-0.791,-0.269,2.73,2.0,,110.835,111.87,123.65
2025-08-15T00:15:35.214Z,4,GR86-022-13,20.3,-1.191,0.004,2.63,2.0,,114.525,115.245,
2025-08-15T00:15:35.258Z,4,GR86-022-13,20.0,-1.022,0.159,2.6,2.0,,114.205,115.365,
2025-08-15T00:15:35.300Z,4,GR86-022-13,15.0,-0.8290000000000001,-0.056,2.5500000000000003,2.0,,109.49,109.4,
2025-08-15T00:15:35.343Z,4,GR86-022-13,4.3,-1.06,0.094,2.52,2.0,5968.0,109.78,109.52,
2025-08-15T00:15:35.388Z,4,GR86-022-13,-11.2,-0.863,0.009,2.51,2.0,,108.97,108.56,119.77
2025-08-15T00:15:35.431Z,4,GR86-022-13,-10.2,-0.934,-0.034,2.49,2.0,,109.565,109.035,
2025-08-15T00:15:35.474Z,4,GR86-022-13,-5.2,-0.8260000000000001,-0.018,2.49,2.0,,108.39,107.765,
2025-08-15T00:15:35.518Z,4,GR86-022-13,-2.7,-1.019,0.073,2.51,2.0,,110.24,109.215,
2025-08-15T00:15:35.560Z,4,GR86-022-13,6.300000000000001,-0.934,-0.036,2.49,2.0,6090.0,109.275,108.68,
2025-08-15T00:15:35.603Z,4,GR86-022-13,20.5,-0.924,0.053,2.5,2.0,,109.75,109.595,112.57
2025-08-15T00:15:35.649Z,4,GR86-022-13,36.1,-1.059,0.069,2.51,2.0,,112.985,113.305,
2025-08-15T00:15:35.691Z,4,GR86-022-13,36.6,-0.981,0.163,2.51,2.0,,111.365,112.525,
2025-08-15T00:15:35.734Z,4,GR86-022-13,37.2,-0.993,0.258,2.5,2.0,,108.5,108.56,
2025-08-15T00:15:35.778Z,4,GR86-022-13,32.5,-0.931,0.11,2.49,2.0,6099.0,109.4,109.995,
2025-08-15T00:15:35.820Z,4,GR86-022-13,22.1,-1.008,0.102,18.55,2.0,,107.08,108.18,106.9
2025-08-15T00:15:35.863Z,4,GR86-022-13,19.1,-0.901,0.27,59.41,1.0,,105.22,105.765,
2025-08-15T00:15:35.908Z,4,GR86-022-13,31.0,-1.037,0.198,6.03,1.0,,110.345,111.4,
2025-08-15T00:15:35.951Z,4,GR86-022-13,38.6,-0.87,0.277,4.19,1.0,,107.89,108.91,
2025-08-15T00:15:35.994Z,4,GR86-022-13,42.900000000000006,-1.045,0.259,3.74,1.0,5386.0,103.995,104.12,
2025-08-15T00:15:36.038Z,4,GR86-022-13,43.1,-0.8250000000000001,0.446,3.45,1.0,,102.93,103.965,92.14
2025-08-15T00:15:36.081Z,4,GR86-022-13,43.3,-0.801,0.52,3.23,1.0,,99.345,99.955,
2025-08-15T00:15:36.124Z,4,GR86-022-13,45.900000000000006,-1.018,0.157,3.06,1.0,,96.335,96.49,
2025-08-15T00:15:36.168Z,4,GR86-022-13,47.7,-0.683,0.873,2.95,1.0,,95.45,96.14,
2025-08-15T00:15:36.211Z,4,GR86-022-13,53.0,-0.749,0.389,2.85,1.0,4750.0,88.34,88.05,
2025-08-15T00:15:36.254Z,4,GR86-022-13,59.8,-0.942,0.367,2.73,1.0,,84.645,85.06,87.39
2025-08-15T00:15:36.298Z,4,GR86-022-13,64.3,-0.6880000000000001,0.745,2.64,1.0,,71.37,72.33,
2025-08-15T00:15:36.340Z,4,GR86-022-13,66.2,-0.488,0.581,2.6,1.0,,54.705,55.075,
2025-08-15T00:15:36.383Z,4,GR86-022-13,65.5,-0.937,0.51,2.5500000000000003,1.0,,46.465,46.835,
2025-08-15T00:15:36.428Z,4,GR86-022-13,59.8,-0.664,0.6920000000000001,2.54,1.0,4818.0,43.585,44.225,
2025-08-15T00:15:36.471Z,4,GR86-022-13,49.6,-0.5760000000000001,0.47,2.53,1.0,,44.74,44.97,80.9
2025-08-15T00:15:36.514Z,4,GR86-022-13,33.6,-0.712,0.773,2.51,1.0,,45.125,45.81,
2025-08-15T00:15:36.558Z,4,GR86-022-13,12.4,-0.857,0.437,2.5,1.0,,47.52,48.205,
2025-08-15T00:15:36.600Z,4,GR86-022-13,-10.3,-0.683,0.359,2.48,1.0,,46.435,46.53,
2025-08-15T00:15:36.643Z,4,GR86-022-13,-30.200000000000003,-0.609,0.811,2.49,1.0,4820.0,40.895,41.49,
2025-08-15T00:15:36.688Z,4,GR86-022-13,-16.900000000000002,-0.601,0.531,2.5,1.0,,41.995,42.12,73.11
2025-08-15T00:15:36.731Z,4,GR86-022-13,18.4,-0.716,0.583,2.5,1.0,,39.995,40.365,
2025-08-15T00:15:36.774Z,4,GR86-022-13,54.1,-0.6890000000000001,0.662,2.48,1.0,,32.410000000000004,32.78,
2025-08-15T00:15:36.818Z,4,GR86-022-13,74.9,-0.5670000000000001,0.73,2.48,1.0,,23.425,23.62,
2025-08-15T00:15:36.860Z,4,GR86-022-13,83.4,-0.485,0.943,2.48,1.0,4745.0,19.93,20.145,
2025-08-15T00:15:36.903Z,4,GR86-022-13,87.4,-0.478,0.787,2.48,1.0,,21.0,21.35,67.52
2025-08-15T00:15:36.948Z,4,GR86-022-13,90.9,-0.457,0.8140000000000001,2.48,1.0,,14.97,15.335,
2025-08-15T00:15:36.991Z,4,GR86-022-13,96.6,-0.502,0.8250000000000001,2.48,1.0,,9.095,9.46,
2025-08-15T00:15:37.034Z,4,GR86-022-13,103.3,-0.392,0.861,2.48,1.0,,4.835,5.22,
2025-08-15T00:15:37.078Z,4,GR86-022-13,109.1,-0.277,0.86,2.48,1.0,4732.0,0.0,0.0,
2025-08-15T00:15:37.120Z,4,GR86-022-13,112.4,-0.205,0.883,2.48,1.0,,0.0,0.0,68.53
2025-08-15T00:15:37.163Z,4,GR86-022-13,112.8,-0.176,0.889,2.48,1.0,,0.0,0.0,
2025-08-15T00:15:37.208Z,4,GR86-022-13,112.8,-0.183,0.8310000000000001,2.47,1.0,,0.0,0.0,
2025-08-15T00:15:37.250Z,4,GR86-022-13,112.8,-0.175,0.849,2.47,1.0,,0.0,0.0,
2025-08-15T00:15:37.293Z,4,GR86-022-13,112.8,-0.163,0.862,2.48,1.0,4701.0,0.0,0.0,
2025-08-15T00:15:37.337Z,4,GR86-022-13,112.8,-0.172,0.878,2.48,1.0,,0.0,0.0,64.98
2025-08-15T00:15:37.379Z,4,GR86-022-13,112.8,-0.152,0.898,2.48,1.0,,0.0,0.0,
2025-08-15T00:15:37.422Z,4,GR86-022-13,112.8,-0.168,0.931,2.48,1.0,,0.0,0.0,
2025-08-15T00:15:37.465Z,4,GR86-022-13,112.8,-0.18,0.927,2.48,1.0,,0.0,0.0,
2025-08-15T00:15:37.508Z,4,GR86-022-13,112.8,-0.169,0.922,2.47,1.0,4653.0,0.0,0.0,
2025-08-15T00:15:37.551Z,4,GR86-022-13,111.7,-0.176,0.936,2.48,1.0,,0.0,0.0,65.15
2025-08-15T00:15:37.594Z,4,GR86-022-13,109.0,-0.165,0.959,2.5500000000000003,1.0,,0.0,0.0,
2025-08-15T00:15:37.638Z,4,GR86-022-13,105.1,-0.158,0.987,3.86,1.0,,0.0,0.0,
2025-08-15T00:15:37.680Z,4,GR86-022-13,101.2,-0.148,0.942,10.91,1.0,,0.0,0.0,
2025-08-15T00:15:37.723Z,4,GR86-022-13,98.9,-0.154,0.93,20.15,1.0,4554.0,0.0,0.0,
2025-08-15T00:15:37.767Z,4,GR86-022-13,92.9,-0.16,0.952,21.24,1.0,,0.0,0.0,64.72
2025-08-15T00:15:37.809Z,4,GR86-022-13,90.2,-0.105,0.932,23.34,1.0,,0.0,0.0,
2025-08-15T00:15:37.852Z,4,GR86-022-13,89.7,-0.08,0.966,24.34,1.0,,0.0,0.0,
2025-08-15T00:15:37.895Z,4,GR86-022-13,89.4,-0.092,0.997,26.48,1.0,,0.0,0.0,
2025-08-15T00:15:37.938Z,4,GR86-022-13,87.30000000000001,-0.04,0.928,26.9,1.0,4457.0,0.0,0.0,
2025-08-15T00:15:37.981Z,4,GR86-022-13,83.9,0.221,0.902,26.95,1.0,,0.0,0.0,63.870000000000005
2025-08-15T00:15:38.024Z,4,GR86-022-13,79.5,0.281,0.912,27.0,1.0,,0.0,0.0,
2025-08-15T00:15:38.068Z,4,GR86-022-13,72.5,0.303,0.885,29.4,1.0,,0.0,0.0,
2025-08-15T00:15:38.111Z,4,GR86-022-13,70.7,0.259,0.892,32.52,1.0,,0.0,0.0,
2025-08-15T00:15:38.154Z,4,GR86-022-13,73.2,0.195,0.8300000000000001,39.02,1.0,4449.0,0.0,0.0,
2025-08-15T00:15:38.198Z,4,GR86-022-13,80.60000000000001,0.188,0.862,41.67,1.0,,0.0,0.0,62.690000000000005
2025-08-15T00:15:38.241Z,4,GR86-022-13,89.7,0.226,0.886,42.23,1.0,,0.0,0.0,
2025-08-15T00:15:38.284Z,4,GR86-022-13,97.9,0.248,0.888,45.31,1.0,,0.0,0.0,
2025-08-15T00:15:38.328Z,4,GR86-022-13,103.3,0.295,0.881,46.53,1.0,,0.0,0.0,
2025-08-15T00:15:38.371Z,4,GR86-022-13,103.4,0.295,0.883,53.96,1.0,4836.0,0.0,0.0,
2025-08-15T00:15:38.414Z,4,GR86-022-13,102.6,0.277,0.892,54.93,1.0,,0.0,0.0,61.65
2025-08-15T00:15:38.458Z,4,GR86-022-13,102.3,0.258,0.918,54.85,1.0,,0.0,0.0,
2025-08-15T00:15:38.500Z,4,GR86-022-13,102.3,0.245,0.912,52.99,1.0,,0.0,0.0,
2025-08-15T00:15:38.543Z,4,GR86-022-13,101.6,0.28,0.887,50.98,1.0,,0.0,0.0,
2025-08-15T00:15:38.588Z,4,GR86-022-13,99.7,0.32,0.889,50.69,1.0,4787.0,0.0,0.0,
2025-08-15T00:15:38.631Z,4,GR86-022-13,98.2,0.316,0.884,49.43,1.0,,0.0,0.0,63.620000000000005
2025-08-15T00:15:38.674Z,4,GR86-022-13,96.9,0.283,0.923,49.57,1.0,,0.0,0.0,
2025-08-15T00:15:38.718Z,4,GR86-022-13,94.3,0.267,0.945,49.9,1.0,,0.0,0.0,
2025-08-15T00:15:38.760Z,4,GR86-022-13,92.0,0.282,0.918,50.0,1.0,,0.0,0.0,
2025-08-15T00:15:38.803Z,4,GR86-022-13,88.0,0.277,0.915,50.07,1.0,4895.0,0.0,0.0,
2025-08-15T00:15:38.848Z,4,GR86-022-13,77.5,0.308,0.917,50.24,1.0,,0.0,0.0,65.74
2025-08-15T00:15:38.891Z,4,GR86-022-13,68.7,0.299,0.918,50.34,1.0,,0.0,0.0,
2025-08-15T00:15:38.934Z,4,GR86-022-13,61.3,0.293,0.903,50.41,1.0,,0.0,0.0,
2025-08-15T00:15:38.978Z,4,GR86-022-13,56.7,0.292,0.868,50.5,1.0,,0.0,0.0,
2025-08-15T00:15:39.020Z,4,GR86-022-13,56.5,0.321,0.869,50.4,1.0,5093.0,0.0,0.0,
2025-08-15T00:15:39.063Z,4,GR86-022-13,60.5,0.347,0.833,50.53,1.0,,0.0,0.0,67.66
2025-08-15T00:15:39.108Z,4,GR86-022-13,65.4,0.332,0.856,52.06,1.0,,0.0,0.0,
2025-08-15T00:15:39.151Z,4,GR86-022-13,65.8,0.308,0.858,54.96,1.0,,0.0,0.0,
2025-08-15T00:15:39.194Z,4,GR86-022-13,65.9,0.286,0.865,57.72,1.0,,0.0,0.0,
2025-08-15T00:15:39.238Z,4,GR86-022-13,66.4,0.288,0.88,62.76,1.0,5415.0,0.0,0.0,
2025-08-15T00:15:39.280Z,4,GR86-022-13,67.5,0.322,0.875,77.76,1.0,,0.0,0.0,69.39
2025-08-15T00:15:39.323Z,4,GR86-022-13,68.0,0.354,0.871,82.06,1.0,,0.0,0.0,
2025-08-15T00:15:39.367Z,4,GR86-022-13,63.0,0.348,0.8230000000000001,98.73,1.0,,0.0,0.0,
2025-08-15T00:15:39.409Z,4,GR86-022-13,53.1,0.338,0.869,100.04,1.0,,0.0,0.0,
2025-08-15T00:15:39.452Z,4,GR86-022-13,42.1,0.317,0.8210000000000001,100.1,1.0,5538.0,0.0,0.0,
2025-08-15T00:15:39.495Z,4,GR86-022-13,35.2,0.322,0.812,100.11,1.0,,0.0,0.0,70.9
2025-08-15T00:15:39.538Z,4,GR86-022-13,34.7,0.367,0.786,100.12,1.0,,0.0,0.0,
2025-08-15T00:15:39.581Z,4,GR86-022-13,38.1,0.388,0.762,100.13,1.0,,0.0,0.0,
2025-08-15T00:15:39.624Z,4,GR86-022-13,40.6,0.394,0.8150000000000001,100.1,1.0,,0.0,0.0,
2025-08-15T00:15:39.668Z,4,GR86-022-13,36.6,0.389,0.799,100.1,1.0,5701.0,0.0,0.0,
2025-08-15T00:15:39.710Z,4,GR86-022-13,28.5,0.383,0.804,100.1,1.0,,0.0,0.0,72.85000000000001
2025-08-15T00:15:39.753Z,4,GR86-022-13,22.1,0.383,0.6970000000000001,100.11,1.0,,0.0,0.0,
2025-08-15T00:15:39.798Z,4,GR86-022-13,22.3,0.372,0.668,100.11,1.0,,0.0,0.0,
2025-08-15T00:15:39.840Z,4,GR86-022-13,29.5,0.373,0.578,100.12,1.0,,0.0,0.0,
2025-08-15T00:15:39.883Z,4,GR86-022-13,38.6,0.367,0.633,100.12,1.0,5858.0,0.0,0.0,
2025-08-15T00:15:39.928Z,4,GR86-022-13,47.3,0.385,0.528,100.12,1.0,,0.0,0.0,74.93
2025-08-15T00:15:39.971Z,4,GR86-022-13,47.3,0.329,0.675,100.12,1.0,,0.0,0.0,
2025-08-15T00:15:40.014Z,4,GR86-022-13,43.400000000000006,0.342,0.627,100.1,1.0,,0.0,0.0,
2025-08-15T00:15:40.058Z,4,GR86-022-13,38.400000000000006,0.312,0.505,100.09,1.0,,0.0,0.0,
2025-08-15T00:15:40.100Z,4,GR86-022-13,34.7,0.217,0.51,100.11,1.0,5953.0,0.0,0.0,
2025-08-15T00:15:40.143Z,4,GR86-022-13,32.2,0.32,0.5760000000000001,100.1,1.0,,0.0,0.0,76.91
2025-08-15T00:15:40.188Z,4,GR86-022-13,28.3,0.311,0.464,100.09,1.0,,0.0,0.0,
2025-08-15T00:15:40.231Z,4,GR86-022-13,19.4,0.44,0.549,100.09,1.0,,0.0,0.0,
2025-08-15T00:15:40.274Z,4,GR86-022-13,6.300000000000001,0.351,0.385,100.09,1.0,,0.0,0.0,
2025-08-15T00:15:40.318Z,4,GR86-022-13,-6.0,0.244,0.339,100.09,1.0,6113.0,0.0,0.0,
2025-08-15T00:15:40.360Z,4,GR86-022-13,-9.2,0.433,0.3,100.08,1.0,,0.0,0.0,78.24
2025-08-15T00:15:40.403Z,4,GR86-022-13,0.5,0.478,0.293,100.12,1.0,,0.0,0.0,
2025-08-15T00:15:40.449Z,4,GR86-022-13,25.9,0.478,0.398,100.09,1.0,,0.0,0.0,
2025-08-15T00:15:40.491Z,4,GR86-022-13,38.6,0.33,0.391,100.09,1.0,,0.0,0.0,
2025-08-15T00:15:40.534Z,4,GR86-022-13,42.7,0.293,0.393,100.09,1.0,6359.0,0.0,0.0,
2025-08-15T00:15:40.578Z,4,GR86-022-13,40.8,0.343,0.352,100.09,1.0,,0.0,0.0,81.28
2025-08-15T00:15:40.620Z,4,GR86-022-13,34.6,0.466,0.529,100.09,1.0,,0.0,0.0,
2025-08-15T00:15:40.663Z,4,GR86-022-13,27.0,0.473,0.5720000000000001,100.07,1.0,,0.0,0.0,
2025-08-15T00:15:40.708Z,4,GR86-022-13,17.400000000000002,0.452,0.496,100.09,1.0,,0.0,0.0,
2025-08-15T00:15:40.751Z,4,GR86-022-13,12.3,0.309,0.5,100.05,1.0,6535.0,0.0,0.0,
2025-08-15T00:15:40.794Z,4,GR86-022-13,5.800000000000001,0.316,0.521,100.05,1.0,,0.0,0.0,82.9
2025-08-15T00:15:40.838Z,4,GR86-022-13,-3.7,0.262,0.264,100.08,1.0,,0.0,0.0,
2025-08-15T00:15:40.881Z,4,GR86-022-13,-14.6,0.23,0.68,100.08,1.0,,0.0,0.0,
2025-08-15T00:15:40.924Z,4,GR86-022-13,-24.1,0.709,0.516,100.05,1.0,,0.0,0.0,
2025-08-15T00:15:40.968Z,4,GR86-022-13,-21.8,0.396,0.327,100.07,1.0,6727.0,0.0,0.0,
2025-08-15T00:15:41.010Z,4,GR86-022-13,-9.5,0.561,0.392,100.06,1.0,,0.0,0.0,84.94
2025-08-15T00:15:41.053Z,4,GR86-022-13,6.6000000000000005,0.43,0.499,100.08,1.0,,0.0,0.0,
2025-08-15T00:15:41.097Z,4,GR86-022-13,17.1,0.024,0.351,100.06,1.0,,0.0,0.0,
2025-08-15T00:15:41.140Z,4,GR86-022-13,15.6,0.009,0.391,100.04,1.0,,0.0,0.0,
2025-08-15T00:15:41.228Z,4,GR86-022-13,-15.6,0.293,0.47,100.04,1.0,7007.0,0.0,0.0,89.66
2025-08-15T00:15:41.271Z,4,GR86-022-13,-25.3,0.261,0.334,100.05,1.0,,0.0,0.0,
2025-08-15T00:15:41.314Z,4,GR86-022-13,-27.200000000000003,0.309,0.376,100.04,1.0,,0.0,0.0,
2025-08-15T00:15:41.358Z,4,GR86-022-13,-18.3,0.516,0.35,100.06,1.0,,0.0,0.0,
2025-08-15T00:15:41.400Z,4,GR86-022-13,-2.2,0.556,0.117,100.03,1.0,7095.0,0.0,0.0,
2025-08-15T00:15:41.443Z,4,GR86-022-13,12.6,0.409,0.29,100.03,1.0,,0.0,0.0,91.04
2025-08-15T00:15:41.488Z,4,GR86-022-13,17.8,0.491,0.279,100.04,1.0,,0.0,0.0,
2025-08-15T00:15:41.531Z,4,GR86-022-13,14.4,0.463,0.313,100.04,1.0,,0.0,0.0,
2025-08-15T00:15:41.574Z,4,GR86-022-13,9.8,0.362,0.201,100.02,1.0,,0.0,0.0,
2025-08-15T00:15:41.618Z,4,GR86-022-13,4.4,0.226,0.073,100.02,1.0,7276.0,0.0,0.0,
2025-08-15T00:15:41.660Z,4,GR86-022-13,-0.5,0.152,0.08,100.03,1.0,,0.0,0.0,93.14
2025-08-15T00:15:41.703Z,4,GR86-022-13,-4.0,0.236,0.004,100.01,1.0,,0.0,0.0,
2025-08-15T00:15:41.748Z,4,GR86-022-13,-5.4,-0.034,-0.012,100.03,2.0,,0.0,0.0,
2025-08-15T00:15:41.791Z,4,GR86-022-13,-3.4000000000000004,0.141,-0.016,99.99,2.0,,0.0,0.0,
2025-08-15T00:15:41.834Z,4,GR86-022-13,-1.7000000000000002,0.637,-0.069,99.98,2.0,7284.0,0.0,0.0,
2025-08-15T00:15:41.878Z,4,GR86-022-13,-2.3000000000000003,0.58,-0.111,99.98,2.0,,0.0,0.0,95.15
2025-08-15T00:15:41.920Z,4,GR86-022-13,-2.9000000000000004,0.746,0.015,99.97,2.0,,0.0,0.0,
2025-08-15T00:15:41.963Z,4,GR86-022-13,-3.0,0.454,-0.18,99.98,2.0,,0.0,0.0,
2025-08-15T00:15:42.008Z,4,GR86-022-13,-3.6,0.182,-0.043,99.98,2.0,,0.0,0.0,
2025-08-15T00:15:42.051Z,4,GR86-022-13,-3.8,0.2,-0.166,99.97,2.0,6452.0,0.0,0.0,
2025-08-15T00:15:42.094Z,4,GR86-022-13,-3.9,0.277,-0.199,99.97,2.0,,0.0,0.0,96.99
2025-08-15T00:15:42.138Z,4,GR86-022-13,-4.0,0.362,-0.138,99.99,2.0,,0.0,0.0,
2025-08-15T00:15:42.180Z,4,GR86-022-13,-4.4,0.359,-0.24,99.99,2.0,,0.0,0.0,
2025-08-15T00:15:42.223Z,4,GR86-022-13,-5.4,0.318,-0.202,99.99,2.0,,0.0,0.0,
2025-08-15T00:15:42.267Z,4,GR86-022-13,-5.800000000000001,0.288,-0.195,99.98,2.0,5797.0,0.0,0.0,
2025-08-15T00:15:42.309Z,4,GR86-022-13,-5.9,0.272,-0.185,99.98,2.0,,0.0,0.0,99.1
2025-08-15T00:15:42.352Z,4,GR86-022-13,-5.9,0.289,-0.161,100.0,2.0,,0.0,0.0,
2025-08-15T00:15:42.395Z,4,GR86-022-13,-5.9,0.286,-0.174,100.0,2.0,,0.0,0.0,
2025-08-15T00:15:42.438Z,4,GR86-022-13,-5.9,0.305,-0.147,99.99,2.0,,0.0,0.0,
2025-08-15T00:15:42.481Z,4,GR86-022-13,-5.9,0.323,-0.149,99.99,2.0,5909.0,0.0,0.0,
2025-08-15T00:15:42.524Z,4,GR86-022-13,-5.9,0.308,-0.127,99.99,2.0,,0.0,0.0,100.91
2025-08-15T00:15:42.568Z,4,GR86-022-13,-5.800000000000001,0.291,-0.127,100.0,2.0,,0.0,0.0,
2025-08-15T00:15:42.610Z,4,GR86-022-13,-5.800000000000001,0.299,-0.12,100.01,2.0,,0.0,0.0,
2025-08-15T00:15:42.654Z,4,GR86-022-13,-5.800000000000001,0.289,-0.105,100.02,2.0,,0.0,0.0,
2025-08-15T00:15:42.698Z,4,GR86-022-13,-5.800000000000001,0.312,-0.114,100.0,2.0,6037.0,0.0,0.0,
2025-08-15T00:15:42.741Z,4,GR86-022-13,-5.800000000000001,0.284,-0.12,99.99,2.0,,0.0,0.0,102.64
2025-08-15T00:15:42.784Z,4,GR86-022-13,-5.800000000000001,0.308,-0.124,100.0,2.0,,0.0,0.0,
2025-08-15T00:15:42.828Z,4,GR86-022-13,-5.800000000000001,0.296,-0.115,100.01,2.0,,0.0,0.0,
2025-08-15T00:15:42.871Z,4,GR86-022-13,-5.800000000000001,0.286,-0.123,100.0,2.0,,0.0,0.0,
2025-08-15T00:15:42.914Z,4,GR86-022-13,-5.800000000000001,0.308,-0.111,100.0,2.0,6121.0,0.0,0.0,
2025-08-15T00:15:42.957Z,4,GR86-022-13,-5.800000000000001,0.299,-0.109,100.01,2.0,,0.0,0.0,104.3
2025-08-15T00:15:43.000Z,4,GR86-022-13,-5.800000000000001,0.277,-0.113,99.99,2.0,,0.0,0.0,
2025-08-15T00:15:43.043Z,4,GR86-022-13,-5.800000000000001,0.288,-0.114,100.01,2.0,,0.0,0.0,
2025-08-15T00:15:43.088Z,4,GR86-022-13,-5.800000000000001,0.299,-0.122,100.0,2.0,,0.0,0.0,
2025-08-15T00:15:43.131Z,4,GR86-022-13,-5.800000000000001,0.294,-0.128,100.01,2.0,6206.0,0.0,0.0,
2025-08-15T00:15:43.174Z,4,GR86-022-13,-5.800000000000001,0.313,-0.13,99.99,2.0,,0.0,0.0,105.85
2025-08-15T00:15:43.217Z,4,GR86-022-13,-5.800000000000001,0.276,-0.132,100.01,2.0,,0.0,0.0,
2025-08-15T00:15:43.260Z,4,GR86-022-13,-5.800000000000001,0.279,-0.126,100.0,2.0,,0.0,0.0,
2025-08-15T00:15:43.303Z,4,GR86-022-13,-5.800000000000001,0.287,-0.128,100.01,2.0,,0.0,0.0,
2025-08-15T00:15:43.348Z,4,GR86-022-13,-5.1000000000000005,0.278,-0.131,100.02,2.0,6290.0,0.0,0.0,
2025-08-15T00:15:43.391Z,4,GR86-022-13,-4.5,0.282,-0.131,100.01,2.0,,0.0,0.0,107.37
2025-08-15T00:15:43.434Z,4,GR86-022-13,-4.1000000000000005,0.301,-0.11,99.99,2.0,,0.0,0.0,
2025-08-15T00:15:43.478Z,4,GR86-022-13,-3.7,0.282,-0.115,100.0,2.0,,0.0,0.0,
2025-08-15T00:15:43.520Z,4,GR86-022-13,-3.6,0.284,-0.098,100.01,2.0,,0.0,0.0,
2025-08-15T00:15:43.563Z,4,GR86-022-13,-3.6,0.294,-0.094,100.01,2.0,6368.0,0.0,0.0,
2025-08-15T00:15:43.608Z,4,GR86-022-13,-3.3000000000000003,0.284,-0.089,100.02,2.0,,0.0,0.0,108.86
2025-08-15T00:15:43.651Z,4,GR86-022-13,-2.9000000000000004,0.291,-0.072,100.02,2.0,,0.0,0.0,
2025-08-15T00:15:43.694Z,4,GR86-022-13,-2.5,0.306,-0.071,100.01,2.0,,0.0,0.0,
2025-08-15T00:15:43.738Z,4,GR86-022-13,-2.3000000000000003,0.276,-0.067,99.99,2.0,,0.0,0.0,
2025-08-15T00:15:43.780Z,4,GR86-022-13,-1.8,0.282,-0.062,99.99,2.0,6447.0,0.0,0.0,
2025-08-15T00:15:43.823Z,4,GR86-022-13,-1.2000000000000002,0.303,-0.042,99.99,2.0,,0.0,0.0,110.27
2025-08-15T00:15:43.867Z,4,GR86-022-13,0.1,0.289,-0.035,99.99,2.0,,0.0,0.0,
2025-08-15T00:15:43.909Z,4,GR86-022-13,0.8,0.277,-0.01,99.99,2.0,,0.0,0.0,
2025-08-15T00:15:43.952Z,4,GR86-022-13,1.1,0.283,0.005,100.0,2.0,,0.0,0.0,
2025-08-15T00:15:43.995Z,4,GR86-022-13,1.1,0.277,0.0,100.01,2.0,6526.0,0.0,0.0,
2025-08-15T00:15:44.038Z,4,GR86-022-13,1.1,0.302,0.01,100.01,2.0,,0.0,0.0,112.99
2025-08-15T00:15:44.081Z,4,GR86-022-13,1.1,0.312,0.018,100.0,2.0,,0.0,0.0,
2025-08-15T00:15:44.124Z,4,GR86-022-13,1.1,0.278,0.012,100.0,2.0,,0.0,0.0,
2025-08-15T00:15:44.168Z,4,GR86-022-13,1.1,0.255,0.016,100.01,2.0,,0.0,0.0,
2025-08-15T00:15:44.210Z,4,GR86-022-13,1.2000000000000002,0.277,0.026,99.99,2.0,6596.0,0.0,0.0,
2025-08-15T00:15:44.254Z,4,GR86-022-13,1.8,0.294,0.026,99.98,2.0,,0.0,0.0,114.14
2025-08-15T00:15:44.298Z,4,GR86-022-13,2.6,0.281,0.045,100.0,2.0,,0.0,0.0,
2025-08-15T00:15:44.340Z,4,GR86-022-13,3.1,0.296,0.049,100.0,2.0,,0.0,0.0,
2025-08-15T00:15:44.383Z,4,GR86-022-13,3.2,0.289,0.043,99.99,2.0,,0.0,0.0,
2025-08-15T00:15:44.428Z,4,GR86-022-13,3.2,0.281,0.046,100.01,2.0,6750.0,0.0,0.0,
2025-08-15T00:15:44.471Z,4,GR86-022-13,3.2,0.284,0.063,100.0,2.0,,0.0,0.0,115.27
2025-08-15T00:15:44.514Z,4,GR86-022-13,3.2,0.283,0.066,100.0,2.0,,0.0,0.0,
2025-08-15T00:15:44.558Z,4,GR86-022-13,3.2,0.271,0.074,99.99,2.0,,0.0,0.0,
2025-08-15T00:15:44.600Z,4,GR86-022-13,3.2,0.288,0.08,100.0,2.0,,0.0,0.0,
2025-08-15T00:15:44.643Z,4,GR86-022-13,2.9000000000000004,0.288,0.07,100.03,2.0,6813.0,0.0,0.0,
2025-08-15T00:15:44.688Z,4,GR86-022-13,1.8,0.273,0.092,100.0,2.0,,0.0,0.0,116.43
2025-08-15T00:15:44.731Z,4,GR86-022-13,1.2000000000000002,0.27,0.079,100.0,2.0,,0.0,0.0,
2025-08-15T00:15:44.774Z,4,GR86-022-13,1.2000000000000002,0.28,0.09,100.0,2.0,,0.0,0.0,
2025-08-15T00:15:44.817Z,4,GR86-022-13,1.2000000000000002,0.282,0.083,99.98,2.0,,0.0,0.0,
2025-08-15T00:15:44.860Z,4,GR86-022-13,1.2000000000000002,0.287,0.067,99.99,2.0,6873.0,0.0,0.0,
2025-08-15T00:15:44.903Z,4,GR86-022-13,0.9,0.278,0.064,100.01,2.0,,6.715,7.140000000000001,117.59
2025-08-15T00:15:44.949Z,4,GR86-022-13,-0.7000000000000001,0.194,0.056,100.01,2.0,,9.31,9.63,
2025-08-15T00:15:44.991Z,4,GR86-022-13,-1.9,0.153,0.054,99.99,2.0,,4.805,5.16,
