timestamp,lap,vehicle_id,steering_angle,accx_can,accy_can,ath,gear,nmot,pbrake_f,pbrake_r,speed
2025-08-14T22:41:26.712Z,6,GR86-004-78,3.0,0.131,0.088,99.97,4.0,,0.0,0.0,176.1
2025-08-14T22:41:26.755Z,6,GR86-004-78,3.0,0.13,0.097,99.98,4.0,,0.0,0.0,
2025-08-14T22:41:26.798Z,6,GR86-004-78,3.0,0.129,0.092,99.97,4.0,,0.0,0.0,
2025-08-14T22:41:26.843Z,6,GR86-004-78,3.0,0.101,0.103,100.01,4.0,7011.0,0.0,0.0,
2025-08-14T22:41:26.886Z,6,GR86-004-78,3.0,0.091,0.099,100.01,4.0,,0.0,0.0,176.8
2025-08-14T22:41:26.929Z,6,GR86-004-78,3.0,0.087,0.098,100.01,4.0,,0.0,0.0,
2025-08-14T22:41:26.972Z,6,GR86-004-78,3.0,0.084,0.089,100.02,4.0,,0.0,0.0,
2025-08-14T22:41:27.015Z,6,GR86-004-78,2.9000000000000004,0.102,0.101,100.0,4.0,,0.0,0.0,
2025-08-14T22:41:27.058Z,6,GR86-004-78,2.8000000000000003,0.095,0.107,100.0,4.0,7028.0,0.0,0.0,
2025-08-14T22:41:27.102Z,6,GR86-004-78,2.7,0.145,0.081,100.0,4.0,,0.0,0.0,177.61
2025-08-14T22:41:27.145Z,6,GR86-004-78,2.6,0.126,0.074,100.0,4.0,,0.0,0.0,
2025-08-14T22:41:27.188Z,6,GR86-004-78,2.5,0.145,0.085,100.02,4.0,,0.0,0.0,
2025-08-14T22:41:27.233Z,6,GR86-004-78,2.5,0.124,0.081,100.02,4.0,,0.0,0.0,
2025-08-14T22:41:27.276Z,6,GR86-004-78,2.6,0.118,0.066,100.01,4.0,7053.0,0.0,0.0,
2025-08-14T22:41:27.319Z,6,GR86-004-78,2.5,0.135,0.05,100.03,4.0,,0.0,0.0,178.41
2025-08-14T22:41:27.362Z,6,GR86-004-78,2.0,0.12,0.038,100.0,4.0,,0.0,0.0,
2025-08-14T22:41:27.405Z,6,GR86-004-78,1.7000000000000002,0.102,0.036,100.0,4.0,,0.0,0.0,
2025-08-14T22:41:27.448Z,6,GR86-004-78,1.7000000000000002,0.114,0.017,100.02,4.0,,0.0,0.0,
2025-08-14T22:41:27.492Z,6,GR86-004-78,1.7000000000000002,0.109,-0.022,100.02,4.0,7085.0,0.0,0.0,
2025-08-14T22:41:27.535Z,6,GR86-004-78,1.6,0.108,-0.026,100.04,4.0,,0.0,0.0,179.08
2025-08-14T22:41:27.578Z,6,GR86-004-78,1.5,0.101,-0.045,100.02,4.0,,0.0,0.0,
2025-08-14T22:41:27.622Z,6,GR86-004-78,1.5,0.116,-0.022,100.01,4.0,,0.0,0.0,
2025-08-14T22:41:27.665Z,6,GR86-004-78,1.5,0.125,-0.032,100.03,4.0,,0.0,0.0,
2025-08-14T22:41:27.708Z,6,GR86-004-78,1.5,0.12,-0.041,100.0,4.0,7115.0,0.0,0.0,
2025-08-14T22:41:27.752Z,6,GR86-004-78,1.5,0.124,-0.043,100.01,4.0,,0.0,0.0,179.84
2025-08-14T22:41:27.795Z,6,GR86-004-78,1.5,0.123,-0.051,99.99,4.0,,0.0,0.0,
2025-08-14T22:41:27.838Z,6,GR86-004-78,1.5,0.119,-0.034,100.01,4.0,,0.0,0.0,
2025-08-14T22:41:27.882Z,6,GR86-004-78,1.5,0.101,-0.041,100.01,4.0,,0.0,0.0,
2025-08-14T22:41:27.925Z,6,GR86-004-78,1.5,0.109,-0.03,100.0,4.0,7139.0,0.0,0.0,
2025-08-14T22:41:27.968Z,6,GR86-004-78,1.5,0.116,-0.059,99.99,4.0,,0.0,0.0,180.66
2025-08-14T22:41:28.011Z,6,GR86-004-78,1.5,0.116,-0.056,100.01,4.0,,0.0,0.0,
2025-08-14T22:41:28.054Z,6,GR86-004-78,1.5,0.128,-0.062,100.02,4.0,,0.0,0.0,
2025-08-14T22:41:28.097Z,6,GR86-004-78,1.5,0.117,-0.027,100.03,4.0,,0.0,0.0,
2025-08-14T22:41:28.143Z,6,GR86-004-78,1.5,0.11,-0.027,100.02,4.0,7183.0,0.0,0.0,
2025-08-14T22:41:28.186Z,6,GR86-004-78,1.5,0.106,-0.032,100.03,4.0,,0.0,0.0,181.38
2025-08-14T22:41:28.229Z,6,GR86-004-78,1.5,0.112,-0.026,100.0,4.0,,0.0,0.0,
2025-08-14T22:41:28.272Z,6,GR86-004-78,1.6,0.109,-0.029,99.99,4.0,,0.0,0.0,
2025-08-14T22:41:28.315Z,6,GR86-004-78,1.6,0.113,-0.015,100.0,4.0,,0.0,0.0,
2025-08-14T22:41:28.358Z,6,GR86-004-78,1.6,0.099,-0.006,100.01,4.0,7207.0,0.0,0.0,
2025-08-14T22:41:28.402Z,6,GR86-004-78,1.6,0.099,0.017,99.99,4.0,,0.0,0.0,182.18
2025-08-14T22:41:28.445Z,6,GR86-004-78,1.7000000000000002,0.121,-0.003,100.03,4.0,,0.0,0.0,
2025-08-14T22:41:28.488Z,6,GR86-004-78,1.8,0.135,0.015,99.99,4.0,,0.0,0.0,
2025-08-14T22:41:28.533Z,6,GR86-004-78,1.9,0.125,0.016,100.0,4.0,,0.0,0.0,
2025-08-14T22:41:28.576Z,6,GR86-004-78,1.9,0.128,0.024,100.0,4.0,7226.0,0.0,0.0,
2025-08-14T22:41:28.619Z,6,GR86-004-78,1.9,0.114,0.056,100.01,4.0,,0.0,0.0,183.04
2025-08-14T22:41:28.662Z,6,GR86-004-78,1.9,0.097,0.054,100.03,4.0,,0.0,0.0,
2025-08-14T22:41:28.705Z,6,GR86-004-78,1.9,0.092,0.064,100.01,4.0,,0.0,0.0,
2025-08-14T22:41:28.748Z,6,GR86-004-78,1.9,0.102,0.059,99.98,4.0,,0.0,0.0,
2025-08-14T22:41:28.792Z,6,GR86-004-78,1.9,-0.046,0.079,99.99,5.0,7262.0,0.0,0.0,
2025-08-14T22:41:28.836Z,6,GR86-004-78,1.9,-0.096,0.096,100.01,5.0,,0.0,0.0,184.41
2025-08-14T22:41:28.879Z,6,GR86-004-78,1.9,0.321,0.064,100.01,5.0,,0.0,0.0,
2025-08-14T22:41:28.922Z,6,GR86-004-78,1.9,0.188,0.045,100.0,5.0,,0.0,0.0,
2025-08-14T22:41:28.965Z,6,GR86-004-78,1.9,0.052,0.093,99.99,5.0,,0.0,0.0,
2025-08-14T22:41:29.008Z,6,GR86-004-78,1.9,0.074,-0.018,100.0,5.0,7027.0,0.0,0.0,
2025-08-14T22:41:29.052Z,6,GR86-004-78,1.9,0.115,0.043,100.0,5.0,,0.0,0.0,184.97
2025-08-14T22:41:29.095Z,6,GR86-004-78,1.9,0.107,0.059,99.99,5.0,,0.0,0.0,
2025-08-14T22:41:29.138Z,6,GR86-004-78,1.9,0.099,0.0,100.0,5.0,,0.0,0.0,
2025-08-14T22:41:29.182Z,6,GR86-004-78,1.9,0.097,0.059,100.0,5.0,,0.0,0.0,
2025-08-14T22:41:29.225Z,6,GR86-004-78,1.9,0.088,0.005,100.02,5.0,6350.0,0.0,0.0,
2025-08-14T22:41:29.268Z,6,GR86-004-78,1.9,0.111,0.026,100.0,5.0,,0.0,0.0,185.79
2025-08-14T22:41:29.312Z,6,GR86-004-78,1.9,0.102,0.022,99.99,5.0,,0.0,0.0,
2025-08-14T22:41:29.398Z,6,GR86-004-78,2.0,0.112,0.006,99.98,5.0,,0.0,0.0,
2025-08-14T22:41:29.485Z,6,GR86-004-78,1.9,0.078,0.018,99.99,5.0,,0.0,0.0,186.46
2025-08-14T22:41:29.528Z,6,GR86-004-78,1.9,0.057,0.024,100.02,5.0,6375.0,0.0,0.0,
2025-08-14T22:41:29.572Z,6,GR86-004-78,1.9,0.081,0.01,100.0,5.0,,0.0,0.0,
2025-08-14T22:41:29.615Z,6,GR86-004-78,1.9,0.086,0.008,99.98,5.0,,0.0,0.0,
2025-08-14T22:41:29.658Z,6,GR86-004-78,1.6,0.069,0.017,99.99,5.0,6409.0,0.0,0.0,
2025-08-14T22:41:29.702Z,6,GR86-004-78,1.2000000000000002,0.084,-0.03,99.98,5.0,,0.0,0.0,187.01
2025-08-14T22:41:29.745Z,6,GR86-004-78,1.0,0.115,-0.034,100.0,5.0,,0.0,0.0,
2025-08-14T22:41:29.788Z,6,GR86-004-78,0.9,0.096,-0.011,99.99,5.0,,0.0,0.0,
2025-08-14T22:41:29.833Z,6,GR86-004-78,0.8,0.078,-0.017,100.03,5.0,,0.0,0.0,
2025-08-14T22:41:29.876Z,6,GR86-004-78,0.7000000000000001,0.088,-0.042,100.0,5.0,6410.0,0.0,0.0,
2025-08-14T22:41:29.922Z,6,GR86-004-78,0.7000000000000001,0.101,-0.062,99.99,5.0,,0.0,0.0,187.76
2025-08-14T22:41:29.965Z,6,GR86-004-78,0.7000000000000001,0.114,-0.063,100.0,5.0,,0.0,0.0,
2025-08-14T22:41:30.008Z,6,GR86-004-78,0.7000000000000001,0.09,-0.067,100.01,5.0,,0.0,0.0,
2025-08-14T22:41:30.052Z,6,GR86-004-78,0.7000000000000001,0.115,-0.064,99.99,5.0,,0.0,0.0,
2025-08-14T22:41:30.095Z,6,GR86-004-78,0.6000000000000001,0.105,-0.082,100.03,5.0,6444.0,0.0,0.0,
2025-08-14T22:41:30.138Z,6,GR86-004-78,0.6000000000000001,0.103,-0.078,100.01,5.0,,0.0,0.0,188.31
2025-08-14T22:41:30.182Z,6,GR86-004-78,0.6000000000000001,0.089,-0.123,100.0,5.0,,0.0,0.0,
2025-08-14T22:41:30.225Z,6,GR86-004-78,0.6000000000000001,0.092,-0.116,100.0,5.0,,0.0,0.0,
2025-08-14T22:41:30.268Z,6,GR86-004-78,0.6000000000000001,0.093,-0.119,100.01,5.0,,0.0,0.0,
2025-08-14T22:41:30.311Z,6,GR86-004-78,0.6000000000000001,0.08,-0.107,99.98,5.0,6480.0,0.0,0.0,
2025-08-14T22:41:30.355Z,6,GR86-004-78,0.6000000000000001,0.09,-0.12,100.01,5.0,,0.0,0.0,188.84
2025-08-14T22:41:30.398Z,6,GR86-004-78,0.6000000000000001,0.098,-0.146,100.0,5.0,,0.0,0.0,
2025-08-14T22:41:30.443Z,6,GR86-004-78,0.6000000000000001,0.079,-0.156,99.99,5.0,,0.0,0.0,
2025-08-14T22:41:30.486Z,6,GR86-004-78,0.6000000000000001,0.079,-0.153,99.99,5.0,,0.0,0.0,
2025-08-14T22:41:30.529Z,6,GR86-004-78,0.6000000000000001,0.086,-0.142,99.99,5.0,6497.0,0.0,0.0,
2025-08-14T22:41:30.572Z,6,GR86-004-78,0.6000000000000001,0.057,-0.137,99.99,5.0,,0.0,0.0,189.53
2025-08-14T22:41:30.615Z,6,GR86-004-78,0.6000000000000001,0.092,-0.124,100.0,5.0,,0.0,0.0,
2025-08-14T22:41:30.658Z,6,GR86-004-78,0.6000000000000001,0.093,-0.101,99.98,5.0,,0.0,0.0,
2025-08-14T22:41:30.702Z,6,GR86-004-78,0.6000000000000001,0.099,-0.092,99.99,5.0,,0.0,0.0,
2025-08-14T22:41:30.745Z,6,GR86-004-78,0.7000000000000001,0.089,-0.098,100.0,5.0,6514.0,0.0,0.0,
2025-08-14T22:41:30.788Z,6,GR86-004-78,0.7000000000000001,0.092,-0.092,99.99,5.0,,0.0,0.0,190.37
2025-08-14T22:41:30.833Z,6,GR86-004-78,0.7000000000000001,0.094,-0.095,100.01,5.0,,0.0,0.0,
2025-08-14T22:41:30.876Z,6,GR86-004-78,0.7000000000000001,0.09,-0.087,100.0,5.0,,0.0,0.0,
2025-08-14T22:41:30.922Z,6,GR86-004-78,0.7000000000000001,0.08,-0.077,99.99,5.0,,0.0,0.0,
2025-08-14T22:41:30.965Z,6,GR86-004-78,0.7000000000000001,0.081,-0.05,100.01,5.0,6527.0,0.0,0.0,
2025-08-14T22:41:31.008Z,6,GR86-004-78,0.7000000000000001,0.084,-0.055,100.0,5.0,,0.0,0.0,191.06
2025-08-14T22:41:31.052Z,6,GR86-004-78,0.7000000000000001,0.08,-0.023,100.01,5.0,,0.0,0.0,
2025-08-14T22:41:31.095Z,6,GR86-004-78,0.7000000000000001,0.114,-0.029,99.98,5.0,,0.0,0.0,
2025-08-14T22:41:31.138Z,6,GR86-004-78,0.7000000000000001,0.094,-0.042,100.0,5.0,,0.0,0.0,
2025-08-14T22:41:31.182Z,6,GR86-004-78,0.7000000000000001,0.068,-0.054,100.0,5.0,6565.0,0.0,0.0,
2025-08-14T22:41:31.225Z,6,GR86-004-78,0.7000000000000001,0.074,-0.058,100.02,5.0,,0.0,0.0,192.48
2025-08-14T22:41:31.268Z,6,GR86-004-78,0.7000000000000001,0.091,-0.044,100.01,5.0,,0.0,0.0,
2025-08-14T22:41:31.311Z,6,GR86-004-78,0.7000000000000001,0.054,-0.032,100.0,5.0,,0.0,0.0,
2025-08-14T22:41:31.354Z,6,GR86-004-78,0.7000000000000001,0.088,-0.031,99.98,5.0,,0.0,0.0,
2025-08-14T22:41:31.397Z,6,GR86-004-78,0.8,0.083,-0.024,100.0,5.0,6577.0,0.0,0.0,
2025-08-14T22:41:31.443Z,6,GR86-004-78,0.8,0.06,-0.022,100.0,5.0,,0.0,0.0,193.18
2025-08-14T22:41:31.486Z,6,GR86-004-78,0.8,0.06,-0.012,99.99,5.0,,0.0,0.0,
2025-08-14T22:41:31.529Z,6,GR86-004-78,0.8,0.066,-0.028,99.99,5.0,,0.0,0.0,
2025-08-14T22:41:31.572Z,6,GR86-004-78,0.8,0.07,-0.004,100.01,5.0,,0.0,0.0,
2025-08-14T22:41:31.658Z,6,GR86-004-78,0.8,0.078,-0.028,100.0,5.0,6611.0,0.0,0.0,193.89
2025-08-14T22:41:31.702Z,6,GR86-004-78,0.8,0.054,-0.027,100.01,5.0,,0.0,0.0,
2025-08-14T22:41:31.745Z,6,GR86-004-78,0.8,0.07,-0.021,100.0,5.0,,0.0,0.0,
2025-08-14T22:41:31.788Z,6,GR86-004-78,0.8,0.051,-0.039,99.99,5.0,,0.0,0.0,
2025-08-14T22:41:31.833Z,6,GR86-004-78,0.8,0.057,-0.015,100.02,5.0,6646.0,0.0,0.0,
2025-08-14T22:41:31.876Z,6,GR86-004-78,0.8,0.07,-0.031,99.98,5.0,,0.0,0.0,194.54
2025-08-14T22:41:31.919Z,6,GR86-004-78,0.9,0.09,-0.002,99.99,5.0,,0.0,0.0,
2025-08-14T22:41:31.962Z,6,GR86-004-78,0.9,0.071,-0.049,99.98,5.0,,0.0,0.0,
2025-08-14T22:41:32.005Z,6,GR86-004-78,0.9,0.052,-0.051,100.0,5.0,,0.0,0.0,
2025-08-14T22:41:32.048Z,6,GR86-004-78,0.9,0.052,-0.058,99.98,5.0,6658.0,0.0,0.0,
2025-08-14T22:41:32.092Z,6,GR86-004-78,0.9,0.049,-0.052,100.0,5.0,,0.0,0.0,195.14
2025-08-14T22:41:32.135Z,6,GR86-004-78,0.9,0.08,-0.044,100.03,5.0,,0.0,0.0,
2025-08-14T22:41:32.178Z,6,GR86-004-78,0.9,0.081,-0.045,100.01,5.0,,0.0,0.0,
2025-08-14T22:41:32.222Z,6,GR86-004-78,0.9,0.069,-0.046,99.98,5.0,,0.0,0.0,
2025-08-14T22:41:32.265Z,6,GR86-004-78,0.9,0.045,-0.043,99.99,5.0,6688.0,0.0,0.0,
2025-08-14T22:41:32.308Z,6,GR86-004-78,0.9,0.047,-0.05,100.0,5.0,,0.0,0.0,195.76
2025-08-14T22:41:32.352Z,6,GR86-004-78,0.9,0.07,-0.049,100.0,5.0,,0.0,0.0,
2025-08-14T22:41:32.395Z,6,GR86-004-78,0.9,0.053,-0.047,99.99,5.0,,0.0,0.0,
2025-08-14T22:41:32.438Z,6,GR86-004-78,0.9,0.075,-0.075,100.0,5.0,,0.0,0.0,
2025-08-14T22:41:32.482Z,6,GR86-004-78,0.9,0.065,-0.052,99.98,5.0,6704.0,0.0,0.0,
2025-08-14T22:41:32.525Z,6,GR86-004-78,0.9,0.055,-0.043,100.01,5.0,,0.0,0.0,196.32
2025-08-14T22:41:32.568Z,6,GR86-004-78,0.9,0.063,-0.016,99.98,5.0,,0.0,0.0,
2025-08-14T22:41:32.611Z,6,GR86-004-78,0.9,0.061,-0.017,99.99,5.0,,0.0,0.0,
2025-08-14T22:41:32.655Z,6,GR86-004-78,0.9,0.072,-0.011,99.99,5.0,,0.0,0.0,
2025-08-14T22:41:32.698Z,6,GR86-004-78,0.9,0.098,-0.018,100.02,5.0,6723.0,0.0,0.0,
2025-08-14T22:41:32.742Z,6,GR86-004-78,0.9,0.068,-0.004,100.02,5.0,,0.0,0.0,197.02
2025-08-14T22:41:32.785Z,6,GR86-004-78,0.9,0.051,-0.006,100.01,5.0,,0.0,0.0,
2025-08-14T22:41:32.828Z,6,GR86-004-78,0.9,0.08,0.006,100.01,5.0,,0.0,0.0,
2025-08-14T22:41:32.872Z,6,GR86-004-78,0.9,0.055,-0.034,100.0,5.0,,0.0,0.0,
2025-08-14T22:41:32.915Z,6,GR86-004-78,0.9,0.095,-0.012,100.02,5.0,6737.0,0.0,0.0,
2025-08-14T22:41:32.958Z,6,GR86-004-78,0.9,0.109,-0.028,100.01,5.0,,0.0,0.0,197.54
2025-08-14T22:41:33.002Z,6,GR86-004-78,0.9,0.068,-0.022,100.02,5.0,,0.0,0.0,
2025-08-14T22:41:33.045Z,6,GR86-004-78,0.9,0.057,-0.045,99.98,5.0,,0.0,0.0,
2025-08-14T22:41:33.088Z,6,GR86-004-78,0.9,0.067,0.0,99.98,5.0,,0.0,0.0,
2025-08-14T22:41:33.133Z,6,GR86-004-78,0.9,0.091,-0.036,99.99,5.0,6757.0,0.0,0.0,
2025-08-14T22:41:33.176Z,6,GR86-004-78,0.9,0.082,-0.034,100.01,5.0,,0.0,0.0,198.03
2025-08-14T22:41:33.222Z,6,GR86-004-78,1.0,0.063,-0.055,100.0,5.0,,0.0,0.0,
2025-08-14T22:41:33.265Z,6,GR86-004-78,1.0,0.061,-0.069,100.01,5.0,,0.0,0.0,
2025-08-14T22:41:33.308Z,6,GR86-004-78,1.0,0.067,-0.063,100.0,5.0,,0.0,0.0,
2025-08-14T22:41:33.352Z,6,GR86-004-78,1.0,0.08,-0.059,99.98,5.0,6788.0,0.0,0.0,
2025-08-14T22:41:33.395Z,6,GR86-004-78,1.0,0.052,-0.073,99.99,5.0,,0.0,0.0,198.42
2025-08-14T22:41:33.438Z,6,GR86-004-78,1.0,0.111,-0.056,99.99,5.0,,0.0,0.0,
2025-08-14T22:41:33.482Z,6,GR86-004-78,1.0,0.095,-0.051,99.99,5.0,,0.0,0.0,
2025-08-14T22:41:33.525Z,6,GR86-004-78,1.0,0.079,-0.019,100.0,5.0,,0.0,0.0,
2025-08-14T22:41:33.568Z,6,GR86-004-78,1.0,0.059,-0.025,100.01,5.0,6802.0,0.0,0.0,
2025-08-14T22:41:33.612Z,6,GR86-004-78,1.0,0.073,-0.027,99.99,5.0,,0.0,0.0,199.0
2025-08-14T22:41:33.655Z,6,GR86-004-78,1.0,0.078,-0.006,99.99,5.0,,0.0,0.0,
2025-08-14T22:41:33.698Z,6,GR86-004-78,1.1,0.075,-0.017,99.99,5.0,,0.0,0.0,
2025-08-14T22:41:33.743Z,6,GR86-004-78,1.1,0.081,-0.001,100.01,5.0,,0.0,0.0,
2025-08-14T22:41:33.786Z,6,GR86-004-78,1.1,0.083,0.014,99.98,5.0,6811.0,0.0,0.0,
2025-08-14T22:41:33.829Z,6,GR86-004-78,1.1,0.062,-0.009,99.97,5.0,,0.0,0.0,199.97
2025-08-14T22:41:33.872Z,6,GR86-004-78,1.1,0.07,-0.003,99.99,5.0,,0.0,0.0,
2025-08-14T22:41:33.915Z,6,GR86-004-78,1.1,0.078,0.008,100.01,5.0,,0.0,0.0,
2025-08-14T22:41:33.958Z,6,GR86-004-78,1.1,0.088,0.012,100.02,5.0,,0.0,0.0,
2025-08-14T22:41:34.002Z,6,GR86-004-78,1.1,0.072,0.045,100.0,5.0,6835.0,0.0,0.0,
2025-08-14T22:41:34.045Z,6,GR86-004-78,1.1,0.075,0.005,100.0,5.0,,0.0,0.0,200.54
2025-08-14T22:41:34.088Z,6,GR86-004-78,1.1,0.063,0.017,100.0,5.0,,0.0,0.0,
2025-08-14T22:41:34.133Z,6,GR86-004-78,1.1,0.094,0.012,100.0,5.0,,0.0,0.0,
2025-08-14T22:41:34.176Z,6,GR86-004-78,1.1,0.081,0.009,100.01,5.0,,0.0,0.0,
2025-08-14T22:41:34.222Z,6,GR86-004-78,1.1,0.066,0.006,100.02,5.0,6876.0,0.0,0.0,
2025-08-14T22:41:34.265Z,6,GR86-004-78,1.1,0.092,-0.009,89.35000000000001,5.0,,0.0,0.0,200.9
2025-08-14T22:41:34.308Z,6,GR86-004-78,1.1,0.083,0.002,34.71,5.0,,0.0,0.0,
2025-08-14T22:41:34.352Z,6,GR86-004-78,1.1,0.084,-0.024,5.26,5.0,,6.99,7.37,
2025-08-14T22:41:34.395Z,6,GR86-004-78,1.1,-0.003,-0.016,4.86,5.0,,11.905,12.115,
2025-08-14T22:41:34.438Z,6,GR86-004-78,1.1,-0.312,0.0,4.51,5.0,6805.0,15.84,15.72,
2025-08-14T22:41:34.482Z,6,GR86-004-78,1.6,-0.461,-0.005,3.75,5.0,,17.490000000000002,17.745,201.62
2025-08-14T22:41:34.525Z,6,GR86-004-78,2.1,-0.489,-0.003,3.45,5.0,,19.045,19.18,
2025-08-14T22:41:34.568Z,6,GR86-004-78,2.2,-0.456,0.036,3.27,5.0,,22.555,22.615,
2025-08-14T22:41:34.611Z,6,GR86-004-78,2.2,-0.519,-0.003,3.15,5.0,,24.4,24.585,
2025-08-14T22:41:34.654Z,6,GR86-004-78,2.2,-0.555,0.001,3.0,5.0,6580.0,24.235,24.735,
2025-08-14T22:41:34.697Z,6,GR86-004-78,2.2,-0.558,0.029,2.81,5.0,,23.18,24.05,199.35
2025-08-14T22:41:34.743Z,6,GR86-004-78,2.5,-0.526,0.034,2.69,5.0,,21.06,22.125,
2025-08-14T22:41:34.786Z,6,GR86-004-78,2.5,-0.514,0.051,2.57,5.0,,20.42,21.305,
2025-08-14T22:41:34.829Z,6,GR86-004-78,2.8000000000000003,-0.504,0.021,2.49,5.0,,19.96,21.0,
2025-08-14T22:41:34.872Z,6,GR86-004-78,3.5,-0.488,0.035,2.44,5.0,6460.0,19.9,20.815,
2025-08-14T22:41:34.915Z,6,GR86-004-78,3.9,-0.498,0.049,2.41,5.0,,19.9,20.63,195.27
2025-08-14T22:41:34.958Z,6,GR86-004-78,4.1000000000000005,-0.488,0.046,2.41,5.0,,19.99,20.905,
2025-08-14T22:41:35.002Z,6,GR86-004-78,4.1000000000000005,-0.527,0.077,2.43,5.0,,20.235,20.905,
2025-08-14T22:41:35.045Z,6,GR86-004-78,4.1000000000000005,-0.515,0.076,2.42,5.0,,22.25,22.43,
2025-08-14T22:41:35.088Z,6,GR86-004-78,4.1000000000000005,-0.5750000000000001,0.084,2.42,5.0,6356.0,27.405,27.315,
2025-08-14T22:41:35.133Z,6,GR86-004-78,4.1000000000000005,-0.651,0.092,2.43,5.0,,33.405,33.160000000000004,191.92
2025-08-14T22:41:35.176Z,6,GR86-004-78,4.1000000000000005,-0.705,0.096,2.44,5.0,,38.865,38.595,
2025-08-14T22:41:35.222Z,6,GR86-004-78,4.1000000000000005,-0.854,0.096,2.44,5.0,,46.405,45.995,
2025-08-14T22:41:35.265Z,6,GR86-004-78,4.1000000000000005,-0.913,0.08,23.08,5.0,,49.870000000000005,49.49,
2025-08-14T22:41:35.308Z,6,GR86-004-78,3.7,-0.924,0.073,52.85,4.0,6161.0,51.0,50.97,
2025-08-14T22:41:35.352Z,6,GR86-004-78,2.5,-0.954,0.05,6.13,4.0,,49.46,49.49,187.63
2025-08-14T22:41:35.395Z,6,GR86-004-78,1.9,-0.835,0.067,4.83,4.0,,46.465,47.93,
2025-08-14T22:41:35.438Z,6,GR86-004-78,1.9,-1.001,0.057,4.15,4.0,,44.68,46.085,
2025-08-14T22:41:35.482Z,6,GR86-004-78,1.9,-0.873,0.051,3.56,4.0,,42.055,43.14,
2025-08-14T22:41:35.525Z,6,GR86-004-78,1.9,-0.806,0.079,3.33,4.0,6198.0,41.83,43.02,
2025-08-14T22:41:35.568Z,6,GR86-004-78,0.4,-0.756,0.018,3.2,4.0,,38.21,38.745,180.0
2025-08-14T22:41:35.612Z,6,GR86-004-78,0.1,-0.911,0.067,3.09,4.0,,36.87,37.92,
2025-08-14T22:41:35.655Z,6,GR86-004-78,0.1,-0.782,0.074,2.92,4.0,,36.06,37.295,
2025-08-14T22:41:35.698Z,6,GR86-004-78,2.0,-0.851,0.018,2.75,4.0,,33.71,34.625,
2025-08-14T22:41:35.742Z,6,GR86-004-78,2.2,-0.744,0.093,2.59,4.0,6366.0,32.84,33.875,
2025-08-14T22:41:35.785Z,6,GR86-004-78,0.7000000000000001,-0.774,-0.01,2.51,4.0,,32.655,33.845,173.19
2025-08-14T22:41:35.828Z,6,GR86-004-78,-0.8,-0.8130000000000001,-0.004,2.43,4.0,,33.345,34.15,
2025-08-14T22:41:35.872Z,6,GR86-004-78,-0.8,-0.775,-0.021,2.41,4.0,,35.31,35.375,
2025-08-14T22:41:35.915Z,6,GR86-004-78,-0.8,-0.783,-0.066,2.41,4.0,,37.525,37.495,
2025-08-14T22:41:35.958Z,6,GR86-004-78,-0.8,-0.77,-0.032,23.5,4.0,6395.0,39.995,39.905,
2025-08-14T22:41:36.002Z,6,GR86-004-78,-0.6000000000000001,-0.847,-0.077,45.08,3.0,,43.825,43.55,169.48
2025-08-14T22:41:36.088Z,6,GR86-004-78,2.9000000000000004,-0.908,-0.066,5.7700000000000005,3.0,,47.335,48.3,
2025-08-14T22:41:36.133Z,6,GR86-004-78,7.9,-0.985,-0.133,3.87,3.0,,55.545,56.28,
2025-08-14T22:41:36.176Z,6,GR86-004-78,8.9,-0.975,-0.065,3.5,3.0,6157.0,55.915,56.63,
2025-08-14T22:41:36.222Z,6,GR86-004-78,9.5,-1.026,-0.15,3.25,3.0,,57.41,58.125,155.27
2025-08-14T22:41:36.265Z,6,GR86-004-78,9.5,-0.768,-0.14,3.13,3.0,,49.7,50.28,
2025-08-14T22:41:36.308Z,6,GR86-004-78,9.5,-0.908,-0.059,2.94,3.0,,47.64,48.68,
2025-08-14T22:41:36.395Z,6,GR86-004-78,10.4,-0.76,-0.092,2.78,3.0,6671.0,46.3,46.835,
2025-08-14T22:41:36.482Z,6,GR86-004-78,2.9000000000000004,-0.833,-0.097,2.43,3.0,,42.65,43.08,147.72
2025-08-14T22:41:36.525Z,6,GR86-004-78,2.9000000000000004,-0.889,0.012,2.41,3.0,,42.925,42.925,
2025-08-14T22:41:36.568Z,6,GR86-004-78,2.9000000000000004,-0.878,0.009,2.39,3.0,,42.775,42.745,
2025-08-14T22:41:36.612Z,6,GR86-004-78,2.8000000000000003,-0.89,-0.001,2.4,3.0,6710.0,42.605,42.865,
2025-08-14T22:41:36.655Z,6,GR86-004-78,1.5,-0.918,0.063,2.4,3.0,,42.605,42.895,145.02
2025-08-14T22:41:36.698Z,6,GR86-004-78,0.7000000000000001,-0.884,0.037,2.4,3.0,,42.15,42.33,
2025-08-14T22:41:36.743Z,6,GR86-004-78,0.7000000000000001,-0.867,0.058,2.4,3.0,,36.395,37.89,
2025-08-14T22:41:36.786Z,6,GR86-004-78,0.7000000000000001,-0.764,0.073,2.41,3.0,,30.49,32.045,
2025-08-14T22:41:36.829Z,6,GR86-004-78,0.7000000000000001,-0.7000000000000001,0.073,2.41,3.0,6208.0,26.46,27.71,
2025-08-14T22:41:36.872Z,6,GR86-004-78,0.7000000000000001,-0.7000000000000001,0.04,2.41,3.0,,24.705,26.02,139.3
2025-08-14T22:41:36.915Z,6,GR86-004-78,0.6000000000000001,-0.669,0.044,2.43,3.0,,24.43,25.455,
2025-08-14T22:41:36.958Z,6,GR86-004-78,0.0,-0.646,0.049,2.45,3.0,,25.18,25.805,
2025-08-14T22:41:37.002Z,6,GR86-004-78,-0.5,-0.664,0.035,2.46,3.0,,26.46,26.75,
2025-08-14T22:41:37.045Z,6,GR86-004-78,-0.6000000000000001,-0.644,-0.004,4.05,3.0,6157.0,27.255,27.315,
2025-08-14T22:41:37.088Z,6,GR86-004-78,-0.9,-0.635,-0.042,42.82,3.0,,27.59,27.895,136.1
2025-08-14T22:41:37.133Z,6,GR86-004-78,-1.1,-0.655,-0.055,88.11,2.0,,27.59,27.97,
2025-08-14T22:41:37.176Z,6,GR86-004-78,-1.1,-0.638,-0.055,68.44,2.0,,27.255,27.865,
2025-08-14T22:41:37.219Z,6,GR86-004-78,-1.0,-0.788,-0.074,4.89,2.0,,25.895,27.025,
2025-08-14T22:41:37.265Z,6,GR86-004-78,-2.4000000000000004,-0.715,-0.128,2.89,2.0,6209.0,22.875,23.715,
2025-08-14T22:41:37.308Z,6,GR86-004-78,-4.9,-0.843,-0.238,2.69,2.0,,20.51,20.905,131.6
2025-08-14T22:41:37.351Z,6,GR86-004-78,-6.5,-0.661,-0.085,2.53,2.0,,19.87,20.755,
2025-08-14T22:41:37.394Z,6,GR86-004-78,-6.5,-0.5670000000000001,-0.345,2.46,2.0,,17.275000000000002,17.655,
2025-08-14T22:41:37.437Z,6,GR86-004-78,-6.4,-0.614,-0.317,2.42,2.0,,14.055,14.755,
2025-08-14T22:41:37.480Z,6,GR86-004-78,-5.9,-0.466,-0.351,2.39,2.0,6814.0,10.985,11.87,
2025-08-14T22:41:37.525Z,6,GR86-004-78,-4.5,-0.438,-0.42,2.41,2.0,,10.21,10.955,127.54
2025-08-14T22:41:37.568Z,6,GR86-004-78,-3.2,-0.39,-0.262,2.4,2.0,,10.15,11.065,
2025-08-14T22:41:37.611Z,6,GR86-004-78,-3.1,-0.405,-0.401,2.4,2.0,,10.055,10.775,
2025-08-14T22:41:37.654Z,6,GR86-004-78,-3.2,-0.385,-0.421,2.41,2.0,,10.27,10.805,
2025-08-14T22:41:37.697Z,6,GR86-004-78,-3.6,-0.383,-0.386,2.42,2.0,6879.0,10.805,11.49,
2025-08-14T22:41:37.743Z,6,GR86-004-78,-1.2000000000000002,-0.403,-0.398,2.42,2.0,,10.805,11.43,124.13
2025-08-14T22:41:37.786Z,6,GR86-004-78,5.6000000000000005,-0.378,-0.367,2.42,2.0,,8.88,9.57,
2025-08-14T22:41:37.829Z,6,GR86-004-78,8.8,-0.337,-0.392,2.45,2.0,,3.585,4.21,
2025-08-14T22:41:37.872Z,6,GR86-004-78,8.700000000000001,-0.188,-0.442,2.44,2.0,,0.0,0.0,
2025-08-14T22:41:37.915Z,6,GR86-004-78,-3.5,-0.233,-0.53,2.44,2.0,6713.0,0.0,0.0,
2025-08-14T22:41:37.958Z,6,GR86-004-78,-20.9,-0.246,-0.626,2.46,2.0,,0.0,0.0,121.01
2025-08-14T22:41:38.002Z,6,GR86-004-78,-40.7,-0.226,-0.755,2.47,2.0,,0.0,0.0,
2025-08-14T22:41:38.045Z,6,GR86-004-78,-44.2,-0.164,-0.769,2.48,2.0,,0.0,0.0,
2025-08-14T22:41:38.088Z,6,GR86-004-78,-42.6,-0.18,-0.771,2.47,2.0,,0.0,0.0,
2025-08-14T22:41:38.133Z,6,GR86-004-78,-40.1,-0.19,-0.805,2.46,2.0,6717.0,0.0,0.0,
2025-08-14T22:41:38.176Z,6,GR86-004-78,-38.900000000000006,-0.173,-0.754,2.49,2.0,,0.0,0.0,120.95
2025-08-14T22:41:38.219Z,6,GR86-004-78,-38.8,-0.204,-0.778,2.47,2.0,,0.0,0.0,
2025-08-14T22:41:38.262Z,6,GR86-004-78,-36.9,-0.205,-0.845,2.49,2.0,,0.0,0.0,
2025-08-14T22:41:38.305Z,6,GR86-004-78,-32.7,-0.206,-0.895,2.49,2.0,,0.0,0.0,
2025-08-14T22:41:38.348Z,6,GR86-004-78,-26.3,-0.175,-0.869,2.48,2.0,6626.0,0.0,0.0,
2025-08-14T22:41:38.392Z,6,GR86-004-78,-23.3,-0.192,-0.892,2.49,2.0,,0.0,0.0,119.81
2025-08-14T22:41:38.435Z,6,GR86-004-78,-28.0,-0.192,-0.903,2.51,2.0,,0.0,0.0,
2025-08-14T22:41:38.478Z,6,GR86-004-78,-34.9,-0.172,-0.918,3.24,2.0,,0.0,0.0,
2025-08-14T22:41:38.522Z,6,GR86-004-78,-35.7,-0.171,-0.927,5.05,2.0,,0.0,0.0,
2025-08-14T22:41:38.565Z,6,GR86-004-78,-33.0,-0.185,-0.958,8.1,2.0,6545.0,0.0,0.0,
2025-08-14T22:41:38.608Z,6,GR86-004-78,-33.4,-0.165,-0.94,15.75,2.0,,0.0,0.0,119.25
2025-08-14T22:41:38.652Z,6,GR86-004-78,-36.4,-0.186,-0.948,18.85,2.0,,0.0,0.0,
2025-08-14T22:41:38.695Z,6,GR86-004-78,-38.400000000000006,-0.175,-0.964,19.57,2.0,,0.0,0.0,
2025-08-14T22:41:38.738Z,6,GR86-004-78,-37.6,-0.144,-0.954,20.11,2.0,,0.0,0.0,
2025-08-14T22:41:38.782Z,6,GR86-004-78,-34.4,-0.071,-0.948,20.96,2.0,6439.0,0.0,0.0,
2025-08-14T22:41:38.825Z,6,GR86-004-78,-34.800000000000004,-0.09,-0.956,21.34,2.0,,0.0,0.0,116.66
2025-08-14T22:41:38.868Z,6,GR86-004-78,-37.4,-0.092,-0.948,21.69,2.0,,0.0,0.0,
2025-08-14T22:41:38.911Z,6,GR86-004-78,-40.6,-0.017,-0.981,21.85,2.0,,0.0,0.0,
2025-08-14T22:41:39.042Z,6,GR86-004-78,-47.400000000000006,0.008,-0.983,21.85,2.0,6531.0,0.0,0.0,115.27
2025-08-14T22:41:39.085Z,6,GR86-004-78,-55.1,0.007,-0.971,16.54,2.0,,0.0,0.0,
2025-08-14T22:41:39.128Z,6,GR86-004-78,-56.900000000000006,-0.014,-0.937,17.330000000000002,2.0,,0.0,0.0,
2025-08-14T22:41:39.172Z,6,GR86-004-78,-58.2,-0.03,-1.005,17.06,2.0,,0.0,0.0,
2025-08-14T22:41:39.215Z,6,GR86-004-78,-59.8,-0.058,-0.986,13.77,2.0,6620.0,0.0,0.0,
2025-08-14T22:41:39.258Z,6,GR86-004-78,-61.900000000000006,-0.084,-0.993,7.05,2.0,,0.0,0.0,113.73
2025-08-14T22:41:39.302Z,6,GR86-004-78,-65.3,-0.088,-0.943,3.94,2.0,,0.0,0.0,
2025-08-14T22:41:39.345Z,6,GR86-004-78,-66.8,-0.086,-0.918,3.74,2.0,,0.0,0.0,
2025-08-14T22:41:39.388Z,6,GR86-004-78,-67.2,-0.128,-0.953,5.64,2.0,,0.0,0.0,
2025-08-14T22:41:39.433Z,6,GR86-004-78,-67.2,-0.185,-0.995,20.28,2.0,6212.0,0.0,0.0,
2025-08-14T22:41:39.476Z,6,GR86-004-78,-67.10000000000001,-0.281,-0.973,27.38,2.0,,0.0,0.0,112.7
2025-08-14T22:41:39.522Z,6,GR86-004-78,-66.9,-0.132,-0.97,31.81,2.0,,0.0,0.0,
2025-08-14T22:41:39.565Z,6,GR86-004-78,-66.3,-0.123,-0.99,34.01,2.0,,0.0,0.0,
2025-08-14T22:41:39.608Z,6,GR86-004-78,-65.0,-0.052,-0.936,37.66,2.0,,0.0,0.0,
2025-08-14T22:41:39.652Z,6,GR86-004-78,-62.1,0.13,-0.919,43.7,2.0,6545.0,0.0,0.0,
2025-08-14T22:41:39.695Z,6,GR86-004-78,-55.3,0.167,-0.935,56.03,2.0,,0.0,0.0,112.29
2025-08-14T22:41:39.738Z,6,GR86-004-78,-45.3,0.178,-0.903,75.35000000000001,2.0,,0.0,0.0,
2025-08-14T22:41:39.782Z,6,GR86-004-78,-24.4,0.235,-0.904,99.83,2.0,,0.0,0.0,
2025-08-14T22:41:39.825Z,6,GR86-004-78,-15.9,0.196,-0.913,99.95,2.0,,0.0,0.0,
2025-08-14T22:41:39.868Z,6,GR86-004-78,-15.5,0.281,-0.8,99.98,2.0,6682.0,0.0,0.0,
2025-08-14T22:41:39.912Z,6,GR86-004-78,-25.6,0.236,-0.907,99.99,2.0,,0.0,0.0,112.01
2025-08-14T22:41:39.955Z,6,GR86-004-78,-35.800000000000004,0.172,-0.871,99.97,2.0,,0.0,0.0,
2025-08-14T22:41:40.043Z,6,GR86-004-78,-39.7,0.264,-0.934,99.97,2.0,,0.0,0.0,
2025-08-14T22:41:40.086Z,6,GR86-004-78,-36.5,0.238,-0.897,99.96,2.0,6786.0,0.0,0.0,
2025-08-14T22:41:40.172Z,6,GR86-004-78,-24.0,0.222,-0.895,99.99,2.0,,0.0,0.0,113.04
2025-08-14T22:41:40.215Z,6,GR86-004-78,-18.2,0.21,-0.929,99.99,2.0,,0.0,0.0,
2025-08-14T22:41:40.258Z,6,GR86-004-78,-16.3,0.24,-0.935,99.98,2.0,,0.0,0.0,
2025-08-14T22:41:40.345Z,6,GR86-004-78,-19.200000000000003,0.244,-0.928,100.0,2.0,6832.0,0.0,0.0,114.08
2025-08-14T22:41:40.388Z,6,GR86-004-78,-28.700000000000003,0.219,-0.92,99.99,2.0,,0.0,0.0,
2025-08-14T22:41:40.433Z,6,GR86-004-78,-34.4,0.209,-0.966,99.97,2.0,,0.0,0.0,
2025-08-14T22:41:40.476Z,6,GR86-004-78,-38.900000000000006,0.219,-0.98,99.99,2.0,,0.0,0.0,
2025-08-14T22:41:40.519Z,6,GR86-004-78,-40.6,0.205,-0.964,99.97,2.0,6882.0,0.0,0.0,
2025-08-14T22:41:40.562Z,6,GR86-004-78,-37.4,0.224,-0.942,100.0,2.0,,0.0,0.0,115.5
2025-08-14T22:41:40.605Z,6,GR86-004-78,-31.1,0.204,-0.949,99.99,2.0,,0.0,0.0,
2025-08-14T22:41:40.648Z,6,GR86-004-78,-23.200000000000003,0.229,-0.936,100.0,2.0,,0.0,0.0,
2025-08-14T22:41:40.692Z,6,GR86-004-78,-17.400000000000002,0.219,-0.948,99.99,2.0,,0.0,0.0,
2025-08-14T22:41:40.735Z,6,GR86-004-78,-15.2,0.203,-0.955,100.0,2.0,6967.0,0.0,0.0,
2025-08-14T22:41:40.778Z,6,GR86-004-78,-15.6,0.238,-0.97,100.0,2.0,,0.0,0.0,116.44
2025-08-14T22:41:40.822Z,6,GR86-004-78,-15.0,0.246,-1.003,100.0,2.0,,0.0,0.0,
2025-08-14T22:41:40.865Z,6,GR86-004-78,-10.9,0.231,-0.96,100.0,2.0,,0.0,0.0,
2025-08-14T22:41:40.908Z,6,GR86-004-78,-1.8,0.213,-0.964,100.01,2.0,,0.0,0.0,
2025-08-14T22:41:40.952Z,6,GR86-004-78,11.1,0.252,-0.935,100.0,2.0,7062.0,0.0,0.0,
2025-08-14T22:41:40.995Z,6,GR86-004-78,21.8,0.242,-0.871,100.01,2.0,,0.0,0.0,117.61
2025-08-14T22:41:41.038Z,6,GR86-004-78,25.4,0.219,-0.84,99.97,2.0,,0.0,0.0,
2025-08-14T22:41:41.082Z,6,GR86-004-78,20.5,0.217,-0.8230000000000001,100.01,2.0,,0.0,0.0,
2025-08-14T22:41:41.125Z,6,GR86-004-78,9.4,0.249,-0.894,99.97,2.0,,0.0,0.0,
2025-08-14T22:41:41.168Z,6,GR86-004-78,3.5,0.253,-0.979,99.99,2.0,7132.0,0.0,0.0,
2025-08-14T22:41:41.212Z,6,GR86-004-78,3.9,0.236,-1.014,99.98,2.0,,0.0,0.0,118.82
2025-08-14T22:41:41.255Z,6,GR86-004-78,9.3,0.267,-0.948,99.98,2.0,,0.0,0.0,
2025-08-14T22:41:41.298Z,6,GR86-004-78,19.5,0.272,-0.905,100.01,2.0,,0.0,0.0,
2025-08-14T22:41:41.342Z,6,GR86-004-78,20.0,0.278,-0.835,99.98,2.0,,0.0,0.0,
2025-08-14T22:41:41.385Z,6,GR86-004-78,2.2,0.263,-0.89,100.01,2.0,7212.0,0.0,0.0,
2025-08-14T22:41:41.428Z,6,GR86-004-78,-15.6,0.251,-0.924,99.96,2.0,,0.0,0.0,119.66
2025-08-14T22:41:41.472Z,6,GR86-004-78,-26.5,0.239,-0.923,99.99,2.0,,0.0,0.0,
2025-08-14T22:41:41.515Z,6,GR86-004-78,-27.4,0.232,-0.956,99.99,2.0,,0.0,0.0,
2025-08-14T22:41:41.558Z,6,GR86-004-78,-21.9,0.221,-0.957,99.98,2.0,,0.0,0.0,
2025-08-14T22:41:41.602Z,6,GR86-004-78,-16.8,0.239,-0.889,100.01,2.0,7213.0,0.0,0.0,
2025-08-14T22:41:41.645Z,6,GR86-004-78,-20.0,0.236,-0.835,99.99,2.0,,0.0,0.0,120.67
2025-08-14T22:41:41.688Z,6,GR86-004-78,-24.5,0.237,-0.8270000000000001,99.97,2.0,,0.0,0.0,
2025-08-14T22:41:41.733Z,6,GR86-004-78,-26.1,0.212,-0.812,99.96,2.0,,0.0,0.0,
2025-08-14T22:41:41.776Z,6,GR86-004-78,-26.0,0.207,-0.8250000000000001,99.98,2.0,,0.0,0.0,
2025-08-14T22:41:41.822Z,6,GR86-004-78,-26.700000000000003,0.221,-0.837,99.97,2.0,7255.0,0.0,0.0,
2025-08-14T22:41:41.865Z,6,GR86-004-78,-25.6,0.157,-0.8280000000000001,99.96,2.0,,0.0,0.0,121.86
2025-08-14T22:41:41.908Z,6,GR86-004-78,-22.4,-0.082,-0.763,99.99,3.0,,0.0,0.0,
2025-08-14T22:41:41.952Z,6,GR86-004-78,-20.0,0.372,-0.667,99.98,3.0,,0.0,0.0,
2025-08-14T22:41:41.995Z,6,GR86-004-78,-16.900000000000002,0.339,-0.78,99.98,3.0,,0.0,0.0,
2025-08-14T22:41:42.038Z,6,GR86-004-78,-15.2,0.399,-0.616,99.99,3.0,6339.0,0.0,0.0,
2025-08-14T22:41:42.082Z,6,GR86-004-78,-11.6,0.136,-0.525,99.98,3.0,,0.0,0.0,122.93
2025-08-14T22:41:42.125Z,6,GR86-004-78,-8.1,0.096,-0.5660000000000001,100.0,3.0,,0.0,0.0,
2025-08-14T22:41:42.168Z,6,GR86-004-78,-6.800000000000001,0.164,-0.71,100.0,3.0,,0.0,0.0,
2025-08-14T22:41:42.211Z,6,GR86-004-78,-8.9,0.356,-0.748,100.0,3.0,,0.0,0.0,
2025-08-14T22:41:42.254Z,6,GR86-004-78,-14.5,0.327,-0.784,99.99,3.0,6032.0,0.0,0.0,
2025-08-14T22:41:42.297Z,6,GR86-004-78,-21.0,0.383,-0.71,99.99,3.0,,0.0,0.0,124.38
2025-08-14T22:41:42.342Z,6,GR86-004-78,-17.7,-0.01,-0.888,99.96,3.0,,0.0,0.0,
2025-08-14T22:41:42.385Z,6,GR86-004-78,-10.0,0.12,-0.933,99.97,3.0,,0.0,0.0,
2025-08-14T22:41:42.428Z,6,GR86-004-78,2.8000000000000003,0.278,-0.869,100.0,3.0,,0.0,0.0,
2025-08-14T22:41:42.473Z,6,GR86-004-78,5.6000000000000005,0.343,-0.924,100.0,3.0,6133.0,0.0,0.0,
2025-08-14T22:41:42.516Z,6,GR86-004-78,3.1,0.28,-0.853,99.99,3.0,,0.0,0.0,125.32
2025-08-14T22:41:42.559Z,6,GR86-004-78,-5.300000000000001,0.17,-0.922,99.98,3.0,,0.0,0.0,
2025-08-14T22:41:42.603Z,6,GR86-004-78,-24.8,0.305,-0.888,99.99,3.0,,0.0,0.0,
2025-08-14T22:41:42.646Z,6,GR86-004-78,-27.4,0.335,-0.881,99.96,3.0,,0.0,0.0,
2025-08-14T22:41:42.689Z,6,GR86-004-78,-25.8,0.189,-0.8140000000000001,99.99,3.0,6081.0,0.0,0.0,
2025-08-14T22:41:42.733Z,6,GR86-004-78,-18.4,0.171,-0.8200000000000001,99.99,3.0,,0.0,0.0,127.13
2025-08-14T22:41:42.776Z,6,GR86-004-78,-13.9,0.182,-0.761,100.0,3.0,,0.0,0.0,
2025-08-14T22:41:42.822Z,6,GR86-004-78,-13.8,0.22,-0.772,99.99,3.0,,0.0,0.0,
2025-08-14T22:41:42.865Z,6,GR86-004-78,-15.3,0.211,-0.783,99.97,3.0,,0.0,0.0,
2025-08-14T22:41:42.908Z,6,GR86-004-78,-16.400000000000002,0.182,-0.779,99.97,3.0,6167.0,0.0,0.0,
2025-08-14T22:41:42.952Z,6,GR86-004-78,-14.5,0.162,-0.96,99.95,3.0,,0.0,0.0,126.91
2025-08-14T22:41:42.995Z,6,GR86-004-78,-12.7,0.224,-0.936,99.97,3.0,,0.0,0.0,
2025-08-14T22:41:43.038Z,6,GR86-004-78,-11.9,0.224,-0.9,99.95,3.0,,0.0,0.0,
2025-08-14T22:41:43.082Z,6,GR86-004-78,-12.3,0.2,-0.775,99.99,3.0,,0.0,0.0,
2025-08-14T22:41:43.125Z,6,GR86-004-78,-12.0,0.184,-0.76,99.97,3.0,6177.0,0.0,0.0,
2025-08-14T22:41:43.168Z,6,GR86-004-78,-11.5,0.167,-0.716,99.95,3.0,,0.0,0.0,128.22
2025-08-14T22:41:43.212Z,6,GR86-004-78,-11.4,0.18,-0.649,99.97,3.0,,0.0,0.0,
2025-08-14T22:41:43.255Z,6,GR86-004-78,-11.9,0.18,-0.636,99.97,3.0,,0.0,0.0,
2025-08-14T22:41:43.298Z,6,GR86-004-78,-12.0,0.183,-0.671,99.97,3.0,,0.0,0.0,
2025-08-14T22:41:43.343Z,6,GR86-004-78,-11.0,0.237,-0.625,99.95,3.0,6198.0,0.0,0.0,
2025-08-14T22:41:43.386Z,6,GR86-004-78,-10.5,0.215,-0.5760000000000001,100.0,3.0,,0.0,0.0,129.26
2025-08-14T22:41:43.429Z,6,GR86-004-78,-9.8,0.151,-0.603,100.0,3.0,,0.0,0.0,
2025-08-14T22:41:43.472Z,6,GR86-004-78,-8.8,0.19,-0.611,99.97,3.0,,0.0,0.0,
2025-08-14T22:41:43.515Z,6,GR86-004-78,-8.3,0.204,-0.634,99.97,3.0,,0.0,0.0,
2025-08-14T22:41:43.558Z,6,GR86-004-78,-7.7,0.193,-0.5660000000000001,99.95,3.0,6224.0,0.0,0.0,
2025-08-14T22:41:43.602Z,6,GR86-004-78,-7.0,0.214,-0.438,99.97,3.0,,0.0,0.0,130.45
2025-08-14T22:41:43.645Z,6,GR86-004-78,-6.5,0.153,-0.52,99.96,3.0,,0.0,0.0,
2025-08-14T22:41:43.688Z,6,GR86-004-78,-5.800000000000001,0.098,-0.475,99.96,3.0,,0.0,0.0,
2025-08-14T22:41:43.733Z,6,GR86-004-78,-3.4000000000000004,0.17,-0.488,99.98,3.0,,0.0,0.0,
2025-08-14T22:41:43.776Z,6,GR86-004-78,-2.2,0.319,-0.333,99.96,3.0,6260.0,0.0,0.0,
2025-08-14T22:41:43.822Z,6,GR86-004-78,-1.9,0.227,-0.203,99.99,3.0,,0.0,0.0,132.7
2025-08-14T22:41:43.865Z,6,GR86-004-78,-1.9,0.083,-0.21,99.98,3.0,,0.0,0.0,
2025-08-14T22:41:43.908Z,6,GR86-004-78,-1.5,0.112,-0.297,99.96,3.0,,0.0,0.0,
2025-08-14T22:41:43.952Z,6,GR86-004-78,1.2000000000000002,0.195,-0.342,99.95,3.0,,0.0,0.0,
2025-08-14T22:41:43.995Z,6,GR86-004-78,3.0,0.256,-0.433,99.97,3.0,6352.0,0.0,0.0,
2025-08-14T22:41:44.038Z,6,GR86-004-78,3.9,0.276,-0.417,99.95,3.0,,0.0,0.0,133.59
2025-08-14T22:41:44.082Z,6,GR86-004-78,4.3,0.137,-0.423,99.99,3.0,,0.0,0.0,
2025-08-14T22:41:44.125Z,6,GR86-004-78,7.2,0.127,-0.447,99.97,3.0,,0.0,0.0,
2025-08-14T22:41:44.168Z,6,GR86-004-78,10.1,0.161,-0.284,99.96,3.0,,0.0,0.0,
2025-08-14T22:41:44.211Z,6,GR86-004-78,11.3,0.177,-0.088,99.97,3.0,6526.0,0.0,0.0,
2025-08-14T22:41:44.255Z,6,GR86-004-78,11.3,0.14,-0.107,99.97,3.0,,0.0,0.0,135.88
2025-08-14T22:41:44.298Z,6,GR86-004-78,11.3,0.157,-0.03,99.98,3.0,,0.0,0.0,
2025-08-14T22:41:44.342Z,6,GR86-004-78,11.1,0.096,0.039,99.98,3.0,,0.0,0.0,
2025-08-14T22:41:44.385Z,6,GR86-004-78,11.1,0.187,0.088,99.97,3.0,,0.0,0.0,
2025-08-14T22:41:44.428Z,6,GR86-004-78,11.0,0.327,0.135,99.96,3.0,6633.0,0.0,0.0,
2025-08-14T22:41:44.472Z,6,GR86-004-78,10.9,0.265,0.23,99.99,3.0,,0.0,0.0,136.49
2025-08-14T22:41:44.515Z,6,GR86-004-78,10.5,0.287,0.23,100.0,3.0,,0.0,0.0,
2025-08-14T22:41:44.558Z,6,GR86-004-78,10.5,0.226,0.256,99.99,3.0,,0.0,0.0,
2025-08-14T22:41:44.602Z,6,GR86-004-78,10.5,0.166,0.368,99.99,3.0,,0.0,0.0,
2025-08-14T22:41:44.645Z,6,GR86-004-78,10.5,0.176,0.405,99.97,3.0,6541.0,0.0,0.0,
2025-08-14T22:41:44.688Z,6,GR86-004-78,10.4,0.23,0.398,99.97,3.0,,0.0,0.0,137.9
2025-08-14T22:41:44.733Z,6,GR86-004-78,10.2,0.206,0.39,100.0,3.0,,0.0,0.0,
2025-08-14T22:41:44.776Z,6,GR86-004-78,10.2,0.177,0.372,99.96,3.0,,0.0,0.0,
2025-08-14T22:41:44.820Z,6,GR86-004-78,10.2,0.176,0.376,99.98,3.0,,0.0,0.0,
2025-08-14T22:41:44.865Z,6,GR86-004-78,10.1,0.198,0.371,99.98,3.0,6631.0,0.0,0.0,
2025-08-14T22:41:44.908Z,6,GR86-004-78,9.8,0.19,0.355,99.99,3.0,,0.0,0.0,139.54
2025-08-14T22:41:44.952Z,6,GR86-004-78,9.2,0.201,0.373,99.96,3.0,,0.0,0.0,
2025-08-14T22:41:44.995Z,6,GR86-004-78,8.700000000000001,0.197,0.379,99.97,3.0,,0.0,0.0,
2025-08-14T22:41:45.038Z,6,GR86-004-78,7.300000000000001,0.197,0.331,99.97,3.0,,0.0,0.0,
2025-08-14T22:41:45.082Z,6,GR86-004-78,6.1000000000000005,0.208,0.317,99.99,3.0,6707.0,0.0,0.0,
2025-08-14T22:41:45.125Z,6,GR86-004-78,5.4,0.195,0.27,99.97,3.0,,0.0,0.0,140.93
2025-08-14T22:41:45.168Z,6,GR86-004-78,5.2,0.183,0.253,99.97,3.0,,0.0,0.0,
2025-08-14T22:41:45.212Z,6,GR86-004-78,5.2,0.189,0.253,99.98,3.0,,0.0,0.0,
2025-08-14T22:41:45.255Z,6,GR86-004-78,5.2,0.188,0.248,99.98,3.0,,0.0,0.0,
2025-08-14T22:41:45.298Z,6,GR86-004-78,5.2,0.195,0.22,99.98,3.0,6774.0,0.0,0.0,
2025-08-14T22:41:45.342Z,6,GR86-004-78,5.2,0.199,0.202,99.96,3.0,,0.0,0.0,142.45000000000002
2025-08-14T22:41:45.385Z,6,GR86-004-78,5.2,0.199,0.186,99.99,3.0,,0.0,0.0,
2025-08-14T22:41:45.428Z,6,GR86-004-78,5.2,0.199,0.157,99.98,3.0,,0.0,0.0,
2025-08-14T22:41:45.472Z,6,GR86-004-78,5.2,0.182,0.164,99.99,3.0,,0.0,0.0,
2025-08-14T22:41:45.515Z,6,GR86-004-78,5.2,0.183,0.166,99.97,3.0,6868.0,0.0,0.0,
2025-08-14T22:41:45.558Z,6,GR86-004-78,5.2,0.179,0.171,99.98,3.0,,0.0,0.0,143.95000000000002
2025-08-14T22:41:45.602Z,6,GR86-004-78,5.2,0.206,0.171,99.96,3.0,,0.0,0.0,
2025-08-14T22:41:45.645Z,6,GR86-004-78,5.2,0.204,0.184,99.99,3.0,,0.0,0.0,
2025-08-14T22:41:45.688Z,6,GR86-004-78,5.2,0.171,0.179,99.97,3.0,,0.0,0.0,
2025-08-14T22:41:45.733Z,6,GR86-004-78,5.300000000000001,0.171,0.168,99.96,3.0,6955.0,0.0,0.0,
2025-08-14T22:41:45.776Z,6,GR86-004-78,5.300000000000001,0.173,0.187,100.0,3.0,,0.0,0.0,145.59
2025-08-14T22:41:45.822Z,6,GR86-004-78,6.0,0.182,0.204,99.98,3.0,,0.0,0.0,
2025-08-14T22:41:45.865Z,6,GR86-004-78,7.0,0.206,0.222,99.98,3.0,,0.0,0.0,
2025-08-14T22:41:45.908Z,6,GR86-004-78,7.6,0.2,0.251,99.98,3.0,,0.0,0.0,
2025-08-14T22:41:45.952Z,6,GR86-004-78,7.800000000000001,0.178,0.276,99.97,3.0,7020.0,0.0,0.0,
2025-08-14T22:41:46.038Z,6,GR86-004-78,7.9,0.156,0.283,99.98,3.0,,0.0,0.0,147.41
2025-08-14T22:41:46.082Z,6,GR86-004-78,7.7,0.172,0.288,99.98,3.0,,0.0,0.0,
2025-08-14T22:41:46.125Z,6,GR86-004-78,6.1000000000000005,0.169,0.289,99.98,3.0,,0.0,0.0,
2025-08-14T22:41:46.168Z,6,GR86-004-78,4.9,0.162,0.283,99.98,3.0,7069.0,0.0,0.0,
2025-08-14T22:41:46.212Z,6,GR86-004-78,4.2,0.184,0.283,99.99,3.0,,0.0,0.0,149.31
2025-08-14T22:41:46.255Z,6,GR86-004-78,4.1000000000000005,0.191,0.282,99.96,3.0,,0.0,0.0,
2025-08-14T22:41:46.298Z,6,GR86-004-78,4.1000000000000005,0.182,0.278,99.97,3.0,,0.0,0.0,
2025-08-14T22:41:46.343Z,6,GR86-004-78,3.9,0.17,0.236,99.95,3.0,,0.0,0.0,
2025-08-14T22:41:46.386Z,6,GR86-004-78,3.5,0.162,0.235,99.97,3.0,7156.0,0.0,0.0,
2025-08-14T22:41:46.429Z,6,GR86-004-78,2.9000000000000004,0.17,0.22,99.98,3.0,,0.0,0.0,152.55
2025-08-14T22:41:46.472Z,6,GR86-004-78,2.8000000000000003,0.159,0.186,99.97,3.0,,0.0,0.0,
2025-08-14T22:41:46.515Z,6,GR86-004-78,2.8000000000000003,0.16,0.151,99.97,3.0,,0.0,0.0,
2025-08-14T22:41:46.558Z,6,GR86-004-78,2.0,0.142,0.129,99.96,3.0,,0.0,0.0,
2025-08-14T22:41:46.602Z,6,GR86-004-78,1.1,0.143,0.115,99.96,3.0,7231.0,0.0,0.0,
2025-08-14T22:41:46.645Z,6,GR86-004-78,1.0,0.144,0.084,99.98,3.0,,0.0,0.0,154.1
2025-08-14T22:41:46.688Z,6,GR86-004-78,0.7000000000000001,0.125,0.046,100.0,3.0,,0.0,0.0,
2025-08-14T22:41:46.733Z,6,GR86-004-78,0.6000000000000001,0.098,0.023,99.98,3.0,,0.0,0.0,
2025-08-14T22:41:46.776Z,6,GR86-004-78,0.6000000000000001,-0.122,0.036,99.99,4.0,,0.0,0.0,
2025-08-14T22:41:46.822Z,6,GR86-004-78,0.7000000000000001,0.292,-0.03,99.99,4.0,6822.0,0.0,0.0,
2025-08-14T22:41:46.865Z,6,GR86-004-78,0.7000000000000001,0.289,-0.069,99.98,4.0,,0.0,0.0,155.83
2025-08-14T22:41:46.908Z,6,GR86-004-78,0.6000000000000001,0.234,0.029,100.0,4.0,,0.0,0.0,
2025-08-14T22:41:46.952Z,6,GR86-004-78,0.3,0.077,-0.061,99.97,4.0,,0.0,0.0,
2025-08-14T22:41:46.995Z,6,GR86-004-78,-0.3,0.084,-0.099,99.97,4.0,,0.0,0.0,
2025-08-14T22:41:47.038Z,6,GR86-004-78,-0.5,0.151,-0.043,99.99,4.0,6252.0,0.0,0.0,
2025-08-14T22:41:47.082Z,6,GR86-004-78,-0.5,0.148,-0.105,99.96,4.0,,0.0,0.0,157.11
2025-08-14T22:41:47.125Z,6,GR86-004-78,-0.4,0.121,-0.056,99.98,4.0,,0.0,0.0,
2025-08-14T22:41:47.168Z,6,GR86-004-78,-0.4,0.132,-0.089,99.98,4.0,,0.0,0.0,
2025-08-14T22:41:47.211Z,6,GR86-004-78,-0.4,0.119,-0.116,99.98,4.0,,0.0,0.0,
2025-08-14T22:41:47.297Z,6,GR86-004-78,-0.4,0.141,-0.121,100.0,4.0,6299.0,0.0,0.0,158.8
2025-08-14T22:41:47.343Z,6,GR86-004-78,-1.0,0.108,-0.143,99.96,4.0,,0.0,0.0,
2025-08-14T22:41:47.386Z,6,GR86-004-78,-3.0,0.122,-0.129,99.98,4.0,,0.0,0.0,
2025-08-14T22:41:47.429Z,6,GR86-004-78,-5.5,0.134,-0.144,99.98,4.0,,0.0,0.0,
2025-08-14T22:41:47.472Z,6,GR86-004-78,-6.9,0.137,-0.167,99.97,4.0,6344.0,0.0,0.0,
2025-08-14T22:41:47.515Z,6,GR86-004-78,-7.5,0.158,-0.176,99.99,4.0,,0.0,0.0,160.33
2025-08-14T22:41:47.558Z,6,GR86-004-78,-8.4,0.137,-0.191,99.79,4.0,,0.0,0.0,
2025-08-14T22:41:47.602Z,6,GR86-004-78,-10.3,0.134,-0.25,96.64,4.0,,0.0,0.0,
2025-08-14T22:41:47.645Z,6,GR86-004-78,-10.9,0.145,-0.311,96.74,4.0,,0.0,0.0,
2025-08-14T22:41:47.688Z,6,GR86-004-78,-10.9,0.151,-0.341,95.81,4.0,6406.0,0.0,0.0,
2025-08-14T22:41:47.733Z,6,GR86-004-78,-10.8,0.146,-0.353,95.63,4.0,,0.0,0.0,161.59
2025-08-14T22:41:47.776Z,6,GR86-004-78,-12.3,0.135,-0.364,94.79,4.0,,0.0,0.0,
2025-08-14T22:41:47.819Z,6,GR86-004-78,-13.6,0.127,-0.378,77.73,4.0,,0.0,0.0,
2025-08-14T22:41:47.862Z,6,GR86-004-78,-11.9,0.132,-0.458,71.08,4.0,,0.0,0.0,
2025-08-14T22:41:47.905Z,6,GR86-004-78,-7.7,0.148,-0.46,72.31,4.0,6459.0,0.0,0.0,
2025-08-14T22:41:47.948Z,6,GR86-004-78,-7.1000000000000005,0.153,-0.493,74.01,4.0,,0.0,0.0,162.81
2025-08-14T22:41:47.992Z,6,GR86-004-78,-7.7,0.136,-0.509,71.64,4.0,,0.0,0.0,
2025-08-14T22:41:48.035Z,6,GR86-004-78,-10.9,0.12,-0.548,66.43,4.0,,0.0,0.0,
2025-08-14T22:41:48.078Z,6,GR86-004-78,-11.1,0.113,-0.58,55.26,4.0,,0.0,0.0,
2025-08-14T22:41:48.122Z,6,GR86-004-78,-9.0,0.135,-0.5700000000000001,31.66,4.0,6512.0,3.065,3.465,
2025-08-14T22:41:48.165Z,6,GR86-004-78,-5.1000000000000005,0.113,-0.545,3.29,4.0,,7.890000000000001,8.24,163.92000000000002
2025-08-14T22:41:48.208Z,6,GR86-004-78,0.6000000000000001,-0.02,-0.488,3.56,4.0,,12.53,12.74,
2025-08-14T22:41:48.252Z,6,GR86-004-78,7.800000000000001,-0.31,-0.416,3.44,4.0,,18.175,18.265,
2025-08-14T22:41:48.295Z,6,GR86-004-78,12.7,-0.422,-0.334,3.33,4.0,,24.08,24.11,
2025-08-14T22:41:48.338Z,6,GR86-004-78,13.0,-0.668,-0.306,3.23,4.0,6508.0,29.71,29.68,
2025-08-14T22:41:48.382Z,6,GR86-004-78,9.8,-0.726,-0.201,3.0700000000000003,4.0,,35.435,35.34,165.20000000000002
2025-08-14T22:41:48.425Z,6,GR86-004-78,8.9,-0.735,-0.234,2.92,4.0,,36.12,36.305,
2025-08-14T22:41:48.468Z,6,GR86-004-78,9.0,-0.746,-0.178,2.78,4.0,,36.03,36.305,
2025-08-14T22:41:48.511Z,6,GR86-004-78,9.7,-0.757,-0.094,2.71,4.0,,35.800000000000004,36.245,
2025-08-14T22:41:48.554Z,6,GR86-004-78,9.7,-0.747,-0.085,2.64,4.0,6170.0,35.34,35.92,
2025-08-14T22:41:48.597Z,6,GR86-004-78,5.300000000000001,-0.728,-0.059,2.54,4.0,,34.18,34.93,163.17000000000002
2025-08-14T22:41:48.642Z,6,GR86-004-78,1.3,-0.686,-0.084,2.46,4.0,,28.58,30.015,
2025-08-14T22:41:48.685Z,6,GR86-004-78,1.9,-0.635,-0.048,2.42,4.0,,26.43,27.835,
2025-08-14T22:41:48.728Z,6,GR86-004-78,7.300000000000001,-0.592,-0.008,2.41,4.0,,25.485,26.875,
2025-08-14T22:41:48.772Z,6,GR86-004-78,7.9,-0.605,0.073,2.41,4.0,5941.0,25.485,26.57,
2025-08-14T22:41:48.815Z,6,GR86-004-78,4.7,-0.648,0.073,2.42,4.0,,26.26,27.025,157.71
2025-08-14T22:41:48.858Z,6,GR86-004-78,0.8,-0.655,0.044,2.41,4.0,,29.925,30.075,
2025-08-14T22:41:48.902Z,6,GR86-004-78,0.9,-0.767,0.036,2.41,4.0,,39.785,39.46,
2025-08-14T22:41:48.945Z,6,GR86-004-78,2.4000000000000004,-0.8270000000000001,0.049,2.66,4.0,,44.68,44.285,
2025-08-14T22:41:49.033Z,6,GR86-004-78,2.5,-0.885,0.075,38.76,3.0,5844.0,45.78,45.75,148.44
2025-08-14T22:41:49.076Z,6,GR86-004-78,1.8,-0.921,0.03,5.66,3.0,,38.56,39.75,
2025-08-14T22:41:49.122Z,6,GR86-004-78,1.9,-0.8160000000000001,0.03,4.4,3.0,,33.495,34.305,
2025-08-14T22:41:49.165Z,6,GR86-004-78,1.9,-0.965,0.018,3.72,3.0,,30.795,31.51,
2025-08-14T22:41:49.208Z,6,GR86-004-78,1.8,-0.792,0.113,3.4,3.0,5586.0,30.4,31.77,
2025-08-14T22:41:49.252Z,6,GR86-004-78,1.7000000000000002,-0.666,-0.008,3.24,3.0,,30.11,30.55,143.3
2025-08-14T22:41:49.295Z,6,GR86-004-78,1.8,-0.845,0.03,3.14,3.0,,32.015,32.99,
2025-08-14T22:41:49.338Z,6,GR86-004-78,1.9,-0.6940000000000001,0.097,3.0,3.0,,35.71,36.84,
2025-08-14T22:41:49.382Z,6,GR86-004-78,1.2000000000000002,-0.768,-0.028,2.78,3.0,,39.25,40.33,
2025-08-14T22:41:49.468Z,6,GR86-004-78,-1.9,-0.769,-0.057,2.56,3.0,6232.0,35.74,35.800000000000004,137.86
2025-08-14T22:41:49.512Z,6,GR86-004-78,-0.1,-0.679,-0.036,2.46,3.0,,33.875,33.94,
2025-08-14T22:41:49.555Z,6,GR86-004-78,2.7,-0.724,0.023,2.42,3.0,,33.19,33.555,
2025-08-14T22:41:49.598Z,6,GR86-004-78,2.8000000000000003,-0.785,-0.045,2.41,3.0,,33.19,33.555,
2025-08-14T22:41:49.686Z,6,GR86-004-78,-2.7,-0.799,-0.07,2.42,3.0,5983.0,33.525,33.845,133.74
2025-08-14T22:41:49.729Z,6,GR86-004-78,-3.8,-0.715,-0.159,2.41,3.0,,28.215,29.435,
2025-08-14T22:41:49.772Z,6,GR86-004-78,0.6000000000000001,-0.643,-0.159,2.41,3.0,,21.96,23.27,
2025-08-14T22:41:49.815Z,6,GR86-004-78,5.0,-0.559,-0.125,2.42,3.0,,17.715,18.86,
2025-08-14T22:41:49.902Z,6,GR86-004-78,5.4,-0.493,-0.132,2.42,3.0,5818.0,16.405,17.425,128.64
2025-08-14T22:41:49.945Z,6,GR86-004-78,3.1,-0.489,-0.15,2.42,3.0,,17.81,18.435,
2025-08-14T22:41:49.988Z,6,GR86-004-78,3.3000000000000003,-0.501,-0.144,2.42,3.0,,18.145,18.555,
2025-08-14T22:41:50.033Z,6,GR86-004-78,3.1,-0.473,-0.116,2.44,3.0,,18.435,18.8,
2025-08-14T22:41:50.122Z,6,GR86-004-78,-3.7,-0.492,-0.156,76.87,3.0,5725.0,17.455000000000002,18.435,125.96
2025-08-14T22:41:50.165Z,6,GR86-004-78,-3.7,-0.496,-0.154,99.45,2.0,,18.145,18.77,
2025-08-14T22:41:50.208Z,6,GR86-004-78,-3.7,-0.529,-0.18,49.84,2.0,,18.71,19.075,
2025-08-14T22:41:50.252Z,6,GR86-004-78,-6.4,-0.67,-0.151,4.37,2.0,,19.395,20.355,
2025-08-14T22:41:50.295Z,6,GR86-004-78,-10.4,-0.605,-0.164,2.93,2.0,5676.0,21.715,22.77,
2025-08-14T22:41:50.338Z,6,GR86-004-78,-11.2,-0.64,-0.343,2.69,2.0,,22.705,23.025,122.75
2025-08-14T22:41:50.382Z,6,GR86-004-78,-7.5,-0.584,-0.172,2.5,2.0,,21.47,21.835,
2025-08-14T22:41:50.425Z,6,GR86-004-78,-0.4,-0.554,-0.359,2.49,2.0,,19.12,20.145,
2025-08-14T22:41:50.468Z,6,GR86-004-78,3.0,-0.528,-0.298,2.43,2.0,,16.25,17.09,
2025-08-14T22:41:50.511Z,6,GR86-004-78,3.1,-0.509,-0.239,2.4,2.0,6532.0,15.365,16.25,
2025-08-14T22:41:50.554Z,6,GR86-004-78,-0.2,-0.52,-0.408,2.41,2.0,,15.365,16.025,119.12
2025-08-14T22:41:50.597Z,6,GR86-004-78,-10.9,-0.46,-0.377,2.41,2.0,,15.72,16.22,
2025-08-14T22:41:50.643Z,6,GR86-004-78,-23.1,-0.464,-0.5730000000000001,2.4,2.0,,16.055,16.59,
2025-08-14T22:41:50.686Z,6,GR86-004-78,-23.5,-0.46,-0.526,2.4,2.0,,15.75,16.375,
2025-08-14T22:41:50.729Z,6,GR86-004-78,-20.200000000000003,-0.455,-0.5700000000000001,2.42,2.0,6436.0,15.72,16.375,
2025-08-14T22:41:50.772Z,6,GR86-004-78,-15.4,-0.478,-0.583,2.43,2.0,,15.03,15.9,115.74
2025-08-14T22:41:50.815Z,6,GR86-004-78,-13.3,-0.447,-0.534,2.42,2.0,,14.175,14.97,
2025-08-14T22:41:50.858Z,6,GR86-004-78,-14.8,-0.417,-0.597,2.44,2.0,,13.855,14.605,
2025-08-14T22:41:50.902Z,6,GR86-004-78,-25.6,-0.432,-0.626,2.44,2.0,,14.3,14.91,
2025-08-14T22:41:50.945Z,6,GR86-004-78,-30.3,-0.451,-0.6880000000000001,2.44,2.0,6268.0,14.635,14.97,
2025-08-14T22:41:51.033Z,6,GR86-004-78,-24.3,-0.457,-0.758,2.44,2.0,,15.125,15.43,
2025-08-14T22:41:51.076Z,6,GR86-004-78,-29.3,-0.415,-0.7030000000000001,2.44,2.0,,15.09,15.335,113.84
2025-08-14T22:41:51.122Z,6,GR86-004-78,-14.5,-0.417,-0.755,2.47,2.0,,14.635,15.395,
2025-08-14T22:41:51.165Z,6,GR86-004-78,-15.2,-0.424,-0.748,2.47,2.0,6092.0,14.33,15.09,
2025-08-14T22:41:51.208Z,6,GR86-004-78,-17.1,-0.428,-0.744,2.47,2.0,,13.43,14.3,111.38
2025-08-14T22:41:51.252Z,6,GR86-004-78,-16.8,-0.401,-0.806,2.47,2.0,,12.175,13.17,
2025-08-14T22:41:51.295Z,6,GR86-004-78,-15.4,-0.396,-0.861,2.47,2.0,,11.615,12.45,
2025-08-14T22:41:51.338Z,6,GR86-004-78,-15.0,-0.404,-0.89,2.48,2.0,,11.37,12.175,
2025-08-14T22:41:51.382Z,6,GR86-004-78,-15.0,-0.388,-0.872,2.46,2.0,5895.0,10.56,11.37,
2025-08-14T22:41:51.425Z,6,GR86-004-78,-15.0,-0.368,-0.891,2.47,2.0,,9.28,10.085,106.24
2025-08-14T22:41:51.468Z,6,GR86-004-78,-15.2,-0.354,-0.889,2.48,2.0,,9.095,9.69,
2025-08-14T22:41:51.511Z,6,GR86-004-78,-16.5,-0.354,-0.948,2.48,2.0,,9.69,10.085,
2025-08-14T22:41:51.554Z,6,GR86-004-78,-19.8,-0.349,-0.906,2.47,2.0,,10.115,10.44,
2025-08-14T22:41:51.597Z,6,GR86-004-78,-23.700000000000003,-0.345,-0.962,2.47,2.0,5733.0,10.47,10.775,
2025-08-14T22:41:51.685Z,6,GR86-004-78,-20.6,-0.361,-0.937,2.47,2.0,,9.69,10.405,103.57
2025-08-14T22:41:51.728Z,6,GR86-004-78,-5.5,-0.323,-0.958,2.47,2.0,,7.675,8.36,
2025-08-14T22:41:51.772Z,6,GR86-004-78,-4.800000000000001,-0.326,-0.969,2.47,2.0,,8.01,8.36,
2025-08-14T22:41:51.815Z,6,GR86-004-78,-9.9,-0.306,-0.927,2.46,2.0,5579.0,8.88,9.28,
2025-08-14T22:41:51.858Z,6,GR86-004-78,-17.2,-0.334,-0.943,2.48,2.0,,10.24,10.56,101.01
2025-08-14T22:41:51.902Z,6,GR86-004-78,-20.1,-0.365,-0.954,2.49,2.0,,11.52,11.78,
2025-08-14T22:41:51.945Z,6,GR86-004-78,-16.2,-0.356,-0.962,2.49,2.0,,11.705,12.055,
2025-08-14T22:41:51.988Z,6,GR86-004-78,-10.5,-0.364,-0.943,2.5,2.0,,12.21,12.53,
2025-08-14T22:41:52.033Z,6,GR86-004-78,-7.6,-0.358,-0.932,2.51,2.0,5263.0,12.24,12.805,
2025-08-14T22:41:52.076Z,6,GR86-004-78,-9.5,-0.373,-0.953,2.51,2.0,,12.055,12.53,97.96
2025-08-14T22:41:52.119Z,6,GR86-004-78,-19.8,-0.349,-0.94,2.52,2.0,,9.81,10.715,
2025-08-14T22:41:52.162Z,6,GR86-004-78,-24.9,-0.29,-0.983,2.51,2.0,,4.565,5.11,
2025-08-14T22:41:52.205Z,6,GR86-004-78,-17.400000000000002,-0.248,-0.984,2.51,2.0,,3.905,4.5,
2025-08-14T22:41:52.248Z,6,GR86-004-78,0.2,-0.236,-1.014,2.51,2.0,5078.0,3.845,4.365,
2025-08-14T22:41:52.292Z,6,GR86-004-78,16.3,-0.22,-0.966,2.5,2.0,,3.495,4.03,95.15
2025-08-14T22:41:52.335Z,6,GR86-004-78,21.1,-0.185,-0.939,2.52,2.0,,0.0,0.0,
2025-08-14T22:41:52.378Z,6,GR86-004-78,21.0,-0.15,-0.917,2.51,2.0,,0.0,0.0,
2025-08-14T22:41:52.422Z,6,GR86-004-78,14.5,-0.136,-0.935,2.51,2.0,,0.0,0.0,
2025-08-14T22:41:52.465Z,6,GR86-004-78,11.8,-0.119,-0.924,2.5,2.0,5021.0,0.0,0.0,
2025-08-14T22:41:52.508Z,6,GR86-004-78,3.8,-0.128,-0.929,2.51,2.0,,0.0,0.0,93.71
2025-08-14T22:41:52.552Z,6,GR86-004-78,-17.3,-0.131,-0.958,2.52,2.0,,0.0,0.0,
2025-08-14T22:41:52.595Z,6,GR86-004-78,-48.900000000000006,-0.159,-0.976,2.51,2.0,,0.0,0.0,
2025-08-14T22:41:52.638Z,6,GR86-004-78,-77.9,-0.178,-0.98,2.51,2.0,,0.0,0.0,
2025-08-14T22:41:52.682Z,6,GR86-004-78,-92.0,-0.193,-0.985,2.51,2.0,4992.0,0.0,0.0,
2025-08-14T22:41:52.725Z,6,GR86-004-78,-91.9,-0.19,-0.992,4.79,2.0,,0.0,0.0,91.45
2025-08-14T22:41:52.768Z,6,GR86-004-78,-89.60000000000001,-0.204,-0.963,13.57,2.0,,0.0,0.0,
2025-08-14T22:41:52.812Z,6,GR86-004-78,-89.60000000000001,-0.203,-0.963,13.49,2.0,,0.0,0.0,
2025-08-14T22:41:52.855Z,6,GR86-004-78,-90.7,-0.192,-0.937,13.64,2.0,,0.0,0.0,
2025-08-14T22:41:52.898Z,6,GR86-004-78,-91.3,-0.129,-0.932,15.29,2.0,4939.0,0.0,0.0,
2025-08-14T22:41:52.986Z,6,GR86-004-78,-91.3,-0.123,-0.949,17.71,2.0,,0.0,0.0,89.52
2025-08-14T22:41:53.029Z,6,GR86-004-78,-91.3,-0.11,-0.935,18.45,2.0,,0.0,0.0,
2025-08-14T22:41:53.072Z,6,GR86-004-78,-91.3,-0.117,-0.95,18.9,2.0,,0.0,0.0,
2025-08-14T22:41:53.115Z,6,GR86-004-78,-91.3,-0.064,-0.947,22.4,2.0,4986.0,0.0,0.0,
2025-08-14T22:41:53.158Z,6,GR86-004-78,-90.1,0.032,-0.94,25.04,2.0,,0.0,0.0,88.67
2025-08-14T22:41:53.202Z,6,GR86-004-78,-80.4,0.036,-0.953,47.78,2.0,,0.0,0.0,
2025-08-14T22:41:53.245Z,6,GR86-004-78,-69.2,0.059,-0.941,67.69,2.0,,0.0,0.0,
2025-08-14T22:41:53.288Z,6,GR86-004-78,-59.0,0.128,-0.963,89.53,2.0,,0.0,0.0,
2025-08-14T22:41:53.333Z,6,GR86-004-78,-49.1,0.197,-0.937,99.96,2.0,5080.0,0.0,0.0,
2025-08-14T22:41:53.376Z,6,GR86-004-78,-39.400000000000006,0.252,-0.892,99.93,2.0,,0.0,0.0,87.87
2025-08-14T22:41:53.422Z,6,GR86-004-78,-32.6,0.26,-0.906,99.92,2.0,,0.0,0.0,
2025-08-14T22:41:53.465Z,6,GR86-004-78,-32.6,0.267,-0.901,99.92,2.0,,0.0,0.0,
2025-08-14T22:41:53.552Z,6,GR86-004-78,-26.5,0.255,-0.941,99.93,2.0,5302.0,0.0,0.0,
2025-08-14T22:41:53.595Z,6,GR86-004-78,-10.7,0.263,-0.919,99.91,2.0,,0.0,0.0,87.71000000000001
2025-08-14T22:41:53.638Z,6,GR86-004-78,7.1000000000000005,0.274,-0.852,99.92,2.0,,0.0,0.0,
2025-08-14T22:41:53.682Z,6,GR86-004-78,16.1,0.296,-0.768,99.93,2.0,,0.0,0.0,
2025-08-14T22:41:53.725Z,6,GR86-004-78,6.6000000000000005,0.291,-0.739,99.92,2.0,,0.0,0.0,
2025-08-14T22:41:53.768Z,6,GR86-004-78,-15.2,0.272,-0.806,99.92,2.0,5353.0,0.0,0.0,
2025-08-14T22:41:53.812Z,6,GR86-004-78,-39.5,0.272,-0.849,99.92,2.0,,0.0,0.0,88.69
2025-08-14T22:41:53.855Z,6,GR86-004-78,-59.0,0.245,-0.888,99.93,2.0,,0.0,0.0,
2025-08-14T22:41:53.898Z,6,GR86-004-78,-68.7,0.236,-0.917,99.92,2.0,,0.0,0.0,
2025-08-14T22:41:53.985Z,6,GR86-004-78,-70.5,0.242,-0.935,99.92,2.0,5405.0,0.0,0.0,
2025-08-14T22:41:54.028Z,6,GR86-004-78,-73.0,0.239,-0.887,99.93,2.0,,0.0,0.0,90.54
2025-08-14T22:41:54.072Z,6,GR86-004-78,-73.4,0.231,-0.893,99.94,2.0,,0.0,0.0,
2025-08-14T22:41:54.115Z,6,GR86-004-78,-71.7,0.212,-0.902,99.91,2.0,,0.0,0.0,
2025-08-14T22:41:54.158Z,6,GR86-004-78,-63.5,0.202,-0.925,99.92,2.0,,0.0,0.0,
2025-08-14T22:41:54.202Z,6,GR86-004-78,-49.5,0.238,-0.929,99.92,2.0,5461.0,0.0,0.0,
2025-08-14T22:41:54.245Z,6,GR86-004-78,-43.1,0.241,-0.929,99.91,2.0,,0.0,0.0,92.35
2025-08-14T22:41:54.288Z,6,GR86-004-78,-38.3,0.249,-0.86,99.92,2.0,,0.0,0.0,
2025-08-14T22:41:54.334Z,6,GR86-004-78,-31.9,0.238,-0.874,99.93,2.0,,0.0,0.0,
2025-08-14T22:41:54.377Z,6,GR86-004-78,-23.700000000000003,0.257,-0.89,99.93,2.0,,0.0,0.0,
2025-08-14T22:41:54.422Z,6,GR86-004-78,-18.4,0.255,-0.874,99.93,2.0,5636.0,0.0,0.0,
2025-08-14T22:41:54.465Z,6,GR86-004-78,-18.5,0.27,-0.887,99.92,2.0,,0.0,0.0,94.09
2025-08-14T22:41:54.508Z,6,GR86-004-78,-15.2,0.27,-0.835,99.93,2.0,,0.0,0.0,
2025-08-14T22:41:54.552Z,6,GR86-004-78,-8.6,0.26,-0.796,99.93,2.0,,0.0,0.0,
2025-08-14T22:41:54.595Z,6,GR86-004-78,-4.2,0.261,-0.781,99.92,2.0,,0.0,0.0,
2025-08-14T22:41:54.638Z,6,GR86-004-78,-5.2,0.258,-0.775,99.92,2.0,5716.0,0.0,0.0,
2025-08-14T22:41:54.682Z,6,GR86-004-78,-27.3,0.26,-0.845,99.93,2.0,,0.0,0.0,95.38
2025-08-14T22:41:54.725Z,6,GR86-004-78,-43.3,0.26,-0.851,99.93,2.0,,0.0,0.0,
2025-08-14T22:41:54.768Z,6,GR86-004-78,-53.8,0.239,-0.868,99.94,2.0,,0.0,0.0,
2025-08-14T22:41:54.812Z,6,GR86-004-78,-56.6,0.222,-0.884,99.92,2.0,,0.0,0.0,
2025-08-14T22:41:54.855Z,6,GR86-004-78,-56.5,0.228,-0.903,99.93,2.0,5792.0,0.0,0.0,
2025-08-14T22:41:54.898Z,6,GR86-004-78,-55.3,0.222,-0.933,99.92,2.0,,0.0,0.0,95.69
2025-08-14T22:41:54.942Z,6,GR86-004-78,-50.900000000000006,0.233,-0.972,99.91,2.0,,0.0,0.0,
2025-08-14T22:41:54.985Z,6,GR86-004-78,-43.7,0.233,-0.902,99.93,2.0,,0.0,0.0,
2025-08-14T22:41:55.072Z,6,GR86-004-78,-23.200000000000003,0.243,-0.857,99.93,2.0,5879.0,0.0,0.0,
2025-08-14T22:41:55.158Z,6,GR86-004-78,-33.6,0.238,-0.912,99.93,2.0,,0.0,0.0,97.8
2025-08-14T22:41:55.202Z,6,GR86-004-78,3.7,0.275,-0.845,99.92,2.0,,0.0,0.0,
2025-08-14T22:41:55.245Z,6,GR86-004-78,7.300000000000001,0.277,-0.862,99.93,2.0,,0.0,0.0,
2025-08-14T22:41:55.288Z,6,GR86-004-78,11.2,0.287,-0.8220000000000001,99.94,2.0,6016.0,0.0,0.0,
2025-08-14T22:41:55.333Z,6,GR86-004-78,15.0,0.283,-0.859,99.93,2.0,,0.0,0.0,99.44
2025-08-14T22:41:55.376Z,6,GR86-004-78,16.2,0.282,-0.8270000000000001,99.93,2.0,,0.0,0.0,
2025-08-14T22:41:55.422Z,6,GR86-004-78,7.2,0.291,-0.8160000000000001,99.91,2.0,,0.0,0.0,
2025-08-14T22:41:55.465Z,6,GR86-004-78,-4.9,0.281,-0.834,99.92,2.0,,0.0,0.0,
2025-08-14T22:41:55.508Z,6,GR86-004-78,-11.2,0.259,-0.863,99.92,2.0,6064.0,0.0,0.0,
2025-08-14T22:41:55.552Z,6,GR86-004-78,-10.3,0.263,-0.869,99.93,2.0,,0.0,0.0,100.75
2025-08-14T22:41:55.595Z,6,GR86-004-78,-3.5,0.269,-0.861,99.93,2.0,,0.0,0.0,
2025-08-14T22:41:55.638Z,6,GR86-004-78,7.9,0.289,-0.8220000000000001,99.93,2.0,,0.0,0.0,
2025-08-14T22:41:55.682Z,6,GR86-004-78,18.9,0.282,-0.647,99.93,2.0,,0.0,0.0,
2025-08-14T22:41:55.725Z,6,GR86-004-78,19.700000000000003,0.279,-0.593,99.93,2.0,6113.0,0.0,0.0,
2025-08-14T22:41:55.768Z,6,GR86-004-78,15.6,0.292,-0.552,99.92,2.0,,0.0,0.0,100.97
2025-08-14T22:41:55.812Z,6,GR86-004-78,4.7,0.29,-0.535,99.94,2.0,,0.0,0.0,
2025-08-14T22:41:55.855Z,6,GR86-004-78,-6.0,0.28,-0.541,99.93,2.0,,0.0,0.0,
2025-08-14T22:41:55.898Z,6,GR86-004-78,-12.9,0.266,-0.503,99.94,2.0,,0.0,0.0,
2025-08-14T22:41:55.943Z,6,GR86-004-78,-13.8,0.254,-0.459,99.92,2.0,6122.0,0.0,0.0,
2025-08-14T22:41:55.986Z,6,GR86-004-78,-11.8,0.245,-0.391,99.92,2.0,,0.0,0.0,102.66
2025-08-14T22:41:56.029Z,6,GR86-004-78,-10.2,0.254,-0.326,99.92,2.0,,0.0,0.0,
2025-08-14T22:41:56.072Z,6,GR86-004-78,-8.8,0.244,-0.292,99.93,2.0,,0.0,0.0,
2025-08-14T22:41:56.115Z,6,GR86-004-78,-8.4,0.245,-0.288,99.92,2.0,,0.0,0.0,
2025-08-14T22:41:56.158Z,6,GR86-004-78,-8.3,0.254,-0.269,99.93,2.0,6170.0,0.0,0.0,
2025-08-14T22:41:56.202Z,6,GR86-004-78,-8.200000000000001,0.253,-0.286,99.92,2.0,,0.0,0.0,104.49
2025-08-14T22:41:56.245Z,6,GR86-004-78,-7.7,0.261,-0.286,99.93,2.0,,0.0,0.0,
2025-08-14T22:41:56.288Z,6,GR86-004-78,-7.1000000000000005,0.276,-0.268,99.96,2.0,,0.0,0.0,
2025-08-14T22:41:56.334Z,6,GR86-004-78,-6.7,0.242,-0.234,99.93,2.0,,0.0,0.0,
2025-08-14T22:41:56.377Z,6,GR86-004-78,-6.4,0.244,-0.237,99.93,2.0,6273.0,0.0,0.0,
2025-08-14T22:41:56.422Z,6,GR86-004-78,-6.0,0.249,-0.209,99.93,2.0,,0.0,0.0,108.0
2025-08-14T22:41:56.465Z,6,GR86-004-78,-5.2,0.252,-0.216,99.92,2.0,,0.0,0.0,
2025-08-14T22:41:56.508Z,6,GR86-004-78,-4.4,0.252,-0.199,99.94,2.0,,0.0,0.0,
2025-08-14T22:41:56.552Z,6,GR86-004-78,-3.8,0.268,-0.181,99.94,2.0,,0.0,0.0,
2025-08-14T22:41:56.595Z,6,GR86-004-78,-3.4000000000000004,0.241,-0.187,99.94,2.0,6359.0,0.0,0.0,
2025-08-14T22:41:56.638Z,6,GR86-004-78,-3.0,0.248,-0.167,99.95,2.0,,0.0,0.0,109.66
2025-08-14T22:41:56.682Z,6,GR86-004-78,-2.2,0.26,-0.157,99.94,2.0,,0.0,0.0,
2025-08-14T22:41:56.725Z,6,GR86-004-78,-1.5,0.257,-0.166,99.95,2.0,,0.0,0.0,
2025-08-14T22:41:56.768Z,6,GR86-004-78,-0.8,0.27,-0.162,99.92,2.0,,0.0,0.0,
2025-08-14T22:41:56.812Z,6,GR86-004-78,-0.4,0.276,-0.144,99.94,2.0,6466.0,0.0,0.0,
2025-08-14T22:41:56.855Z,6,GR86-004-78,-0.3,0.243,-0.137,99.93,2.0,,0.0,0.0,111.47
2025-08-14T22:41:56.898Z,6,GR86-004-78,-0.3,0.261,-0.12,99.94,2.0,,0.0,0.0,
2025-08-14T22:41:56.943Z,6,GR86-004-78,-0.3,0.238,-0.083,99.95,2.0,,0.0,0.0,
2025-08-14T22:41:56.986Z,6,GR86-004-78,0.0,0.236,-0.079,99.95,2.0,,0.0,0.0,
2025-08-14T22:41:57.029Z,6,GR86-004-78,1.0,0.244,-0.07,99.93,2.0,6679.0,0.0,0.0,
2025-08-14T22:41:57.072Z,6,GR86-004-78,2.2,0.269,-0.06,99.95,2.0,,0.0,0.0,113.2
2025-08-14T22:41:57.115Z,6,GR86-004-78,3.5,0.259,-0.059,99.95,2.0,,0.0,0.0,
2025-08-14T22:41:57.158Z,6,GR86-004-78,4.4,0.255,-0.025,99.95,2.0,,0.0,0.0,
2025-08-14T22:41:57.202Z,6,GR86-004-78,4.800000000000001,0.243,-0.004,99.95,2.0,,0.0,0.0,
2025-08-14T22:41:57.245Z,6,GR86-004-78,4.800000000000001,0.24,0.013,99.95,2.0,6749.0,0.0,0.0,
2025-08-14T22:41:57.288Z,6,GR86-004-78,4.800000000000001,0.234,0.04,99.94,2.0,,0.0,0.0,115.09
2025-08-14T22:41:57.334Z,6,GR86-004-78,4.9,0.253,0.062,99.94,2.0,,0.0,0.0,
2025-08-14T22:41:57.377Z,6,GR86-004-78,4.9,0.264,0.079,99.94,2.0,,0.0,0.0,
2025-08-14T22:41:57.422Z,6,GR86-004-78,4.9,0.257,0.087,99.94,2.0,,0.0,0.0,
2025-08-14T22:41:57.465Z,6,GR86-004-78,4.9,0.248,0.083,99.93,2.0,6877.0,0.0,0.0,
2025-08-14T22:41:57.508Z,6,GR86-004-78,4.9,0.255,0.083,99.92,2.0,,0.0,0.0,116.74
2025-08-14T22:41:57.552Z,6,GR86-004-78,4.9,0.245,0.089,99.93,2.0,,0.0,0.0,
2025-08-14T22:41:57.595Z,6,GR86-004-78,3.7,0.246,0.089,99.97,2.0,,0.0,0.0,
2025-08-14T22:41:57.638Z,6,GR86-004-78,2.2,0.246,0.087,99.94,2.0,,0.0,0.0,
2025-08-14T22:41:57.682Z,6,GR86-004-78,2.1,0.239,0.084,99.94,2.0,6955.0,0.0,0.0,
2025-08-14T22:41:57.725Z,6,GR86-004-78,1.5,0.237,0.067,99.94,2.0,,0.0,0.0,118.66
2025-08-14T22:41:57.768Z,6,GR86-004-78,-0.3,0.237,0.056,99.96,2.0,,0.0,0.0,
2025-08-14T22:41:57.811Z,6,GR86-004-78,-1.4,0.239,0.041,99.96,2.0,,0.0,0.0,
2025-08-14T22:41:57.855Z,6,GR86-004-78,-1.5,0.23,0.019,99.96,2.0,,0.0,0.0,
2025-08-14T22:41:57.942Z,6,GR86-004-78,-1.4,0.243,-0.022,99.94,2.0,7063.0,0.0,0.0,120.33
2025-08-14T22:41:57.985Z,6,GR86-004-78,-1.5,0.235,-0.028,99.97,2.0,,0.0,0.0,
2025-08-14T22:41:58.028Z,6,GR86-004-78,-1.7000000000000002,0.237,-0.052,99.97,2.0,,0.0,0.0,
2025-08-14T22:41:58.072Z,6,GR86-004-78,-1.9,0.239,-0.062,99.95,2.0,,0.0,0.0,
2025-08-14T22:41:58.115Z,6,GR86-004-78,-1.9,0.225,-0.06,99.96,2.0,7152.0,0.0,0.0,
2025-08-14T22:41:58.158Z,6,GR86-004-78,-1.9,0.223,-0.085,99.94,2.0,,0.0,0.0,121.95
2025-08-14T22:41:58.202Z,6,GR86-004-78,-1.9,0.223,-0.091,99.95,2.0,,0.0,0.0,
2025-08-14T22:41:58.245Z,6,GR86-004-78,-1.9,0.243,-0.104,99.96,2.0,,0.0,0.0,
2025-08-14T22:41:58.288Z,6,GR86-004-78,-1.9,0.237,-0.111,99.96,2.0,,0.0,0.0,
2025-08-14T22:41:58.333Z,6,GR86-004-78,-1.8,0.212,-0.12,99.96,2.0,7242.0,0.0,0.0,
2025-08-14T22:41:58.377Z,6,GR86-004-78,-1.6,0.222,-0.14,99.96,2.0,,0.0,0.0,123.6
2025-08-14T22:41:58.422Z,6,GR86-004-78,-1.1,0.163,-0.131,99.93,2.0,,0.0,0.0,
2025-08-14T22:41:58.465Z,6,GR86-004-78,-1.1,0.187,-0.124,99.99,2.0,,0.0,0.0,
2025-08-14T22:41:58.508Z,6,GR86-004-78,-0.9,0.113,-0.12,99.98,2.0,,0.0,0.0,
2025-08-14T22:41:58.552Z,6,GR86-004-78,-0.2,-0.093,-0.08,99.95,3.0,7255.0,0.0,0.0,
2025-08-14T22:41:58.595Z,6,GR86-004-78,0.5,0.365,-0.064,99.95,3.0,,0.0,0.0,125.17
2025-08-14T22:41:58.638Z,6,GR86-004-78,1.0,0.34,-0.124,99.96,3.0,,0.0,0.0,
2025-08-14T22:41:58.682Z,6,GR86-004-78,1.0,0.389,-0.026,99.97,3.0,,0.0,0.0,
2025-08-14T22:41:58.725Z,6,GR86-004-78,1.0,0.226,-0.068,99.96,3.0,,0.0,0.0,
2025-08-14T22:41:58.768Z,6,GR86-004-78,1.1,0.154,-0.124,99.97,3.0,6670.0,0.0,0.0,
2025-08-14T22:41:58.812Z,6,GR86-004-78,1.1,0.172,-0.017,99.96,3.0,,0.0,0.0,126.49
2025-08-14T22:41:58.855Z,6,GR86-004-78,1.1,0.173,-0.06,99.95,3.0,,0.0,0.0,
2025-08-14T22:41:58.898Z,6,GR86-004-78,1.1,0.2,-0.064,99.95,3.0,,0.0,0.0,
2025-08-14T22:41:58.943Z,6,GR86-004-78,1.1,0.187,-0.027,99.96,3.0,,0.0,0.0,
2025-08-14T22:41:58.986Z,6,GR86-004-78,1.3,0.216,-0.04,99.96,3.0,6056.0,0.0,0.0,
2025-08-14T22:41:59.072Z,6,GR86-004-78,1.7000000000000002,0.164,-0.022,99.97,3.0,,0.0,0.0,129.52
2025-08-14T22:41:59.115Z,6,GR86-004-78,1.9,0.18,-0.011,99.97,3.0,,0.0,0.0,
2025-08-14T22:41:59.158Z,6,GR86-004-78,2.1,0.214,-0.004,99.97,3.0,,0.0,0.0,
2025-08-14T22:41:59.245Z,6,GR86-004-78,2.3000000000000003,0.222,0.02,99.95,3.0,6131.0,0.0,0.0,130.91
2025-08-14T22:41:59.288Z,6,GR86-004-78,2.3000000000000003,0.171,0.034,99.96,3.0,,0.0,0.0,
2025-08-14T22:41:59.333Z,6,GR86-004-78,2.3000000000000003,0.17,0.03,99.97,3.0,,0.0,0.0,
2025-08-14T22:41:59.376Z,6,GR86-004-78,2.3000000000000003,0.227,0.037,99.96,3.0,,0.0,0.0,
2025-08-14T22:41:59.419Z,6,GR86-004-78,2.3000000000000003,0.208,0.053,99.97,3.0,6211.0,0.0,0.0,
2025-08-14T22:41:59.462Z,6,GR86-004-78,2.3000000000000003,0.216,0.05,99.95,3.0,,0.0,0.0,132.22
2025-08-14T22:41:59.505Z,6,GR86-004-78,2.3000000000000003,0.176,0.069,99.96,3.0,,0.0,0.0,
2025-08-14T22:41:59.548Z,6,GR86-004-78,2.3000000000000003,0.176,0.065,99.98,3.0,,0.0,0.0,
2025-08-14T22:41:59.592Z,6,GR86-004-78,2.3000000000000003,0.208,0.069,99.96,3.0,,0.0,0.0,
2025-08-14T22:41:59.635Z,6,GR86-004-78,2.3000000000000003,0.208,0.062,99.97,3.0,6328.0,0.0,0.0,
2025-08-14T22:41:59.678Z,6,GR86-004-78,2.3000000000000003,0.185,0.06,99.95,3.0,,0.0,0.0,133.59
2025-08-14T22:41:59.722Z,6,GR86-004-78,2.3000000000000003,0.189,0.051,99.96,3.0,,0.0,0.0,
2025-08-14T22:41:59.765Z,6,GR86-004-78,2.3000000000000003,0.18,0.068,99.96,3.0,,0.0,0.0,
2025-08-14T22:41:59.808Z,6,GR86-004-78,2.3000000000000003,0.192,0.062,99.95,3.0,,0.0,0.0,
2025-08-14T22:41:59.852Z,6,GR86-004-78,2.3000000000000003,0.211,0.058,99.96,3.0,6372.0,0.0,0.0,
2025-08-14T22:41:59.895Z,6,GR86-004-78,2.3000000000000003,0.197,0.05,99.97,3.0,,0.0,0.0,134.86
2025-08-14T22:41:59.938Z,6,GR86-004-78,2.2,0.166,0.04,99.97,3.0,,0.0,0.0,
2025-08-14T22:41:59.982Z,6,GR86-004-78,2.0,0.175,0.035,99.96,3.0,,0.0,0.0,
2025-08-14T22:42:00.025Z,6,GR86-004-78,1.9,0.194,0.027,99.96,3.0,,0.0,0.0,
2025-08-14T22:42:00.111Z,6,GR86-004-78,1.9,0.199,0.026,99.96,3.0,6442.0,0.0,0.0,136.06
2025-08-14T22:42:00.154Z,6,GR86-004-78,1.9,0.17,0.003,99.97,3.0,,0.0,0.0,
2025-08-14T22:42:00.197Z,6,GR86-004-78,1.9,0.188,0.008,99.97,3.0,,0.0,0.0,
2025-08-14T22:42:00.242Z,6,GR86-004-78,2.0,0.172,0.012,99.97,3.0,,0.0,0.0,
2025-08-14T22:42:00.286Z,6,GR86-004-78,2.0,0.195,0.007,99.97,3.0,6494.0,0.0,0.0,
2025-08-14T22:42:00.329Z,6,GR86-004-78,2.0,0.199,0.009,99.95,3.0,,0.0,0.0,137.27
2025-08-14T22:42:00.372Z,6,GR86-004-78,2.0,0.174,-0.013,99.98,3.0,,0.0,0.0,
2025-08-14T22:42:00.415Z,6,GR86-004-78,1.9,0.178,-0.018,99.97,3.0,,0.0,0.0,
2025-08-14T22:42:00.502Z,6,GR86-004-78,1.4,0.194,-0.014,99.97,3.0,6539.0,0.0,0.0,
2025-08-14T22:42:00.545Z,6,GR86-004-78,1.2000000000000002,0.213,-0.017,99.95,3.0,,0.0,0.0,138.48
2025-08-14T22:42:00.588Z,6,GR86-004-78,1.2000000000000002,0.18,-0.015,99.96,3.0,,0.0,0.0,
2025-08-14T22:42:00.633Z,6,GR86-004-78,1.2000000000000002,0.159,-0.017,99.97,3.0,,0.0,0.0,
2025-08-14T22:42:00.676Z,6,GR86-004-78,1.2000000000000002,0.184,-0.023,99.97,3.0,,0.0,0.0,
2025-08-14T22:42:00.722Z,6,GR86-004-78,1.2000000000000002,0.16,-0.033,99.96,3.0,6598.0,0.0,0.0,
2025-08-14T22:42:00.765Z,6,GR86-004-78,1.2000000000000002,0.192,-0.039,99.97,3.0,,0.0,0.0,139.65
2025-08-14T22:42:00.808Z,6,GR86-004-78,1.2000000000000002,0.21,-0.031,99.97,3.0,,0.0,0.0,
2025-08-14T22:42:00.852Z,6,GR86-004-78,1.2000000000000002,0.182,-0.036,99.96,3.0,,0.0,0.0,
2025-08-14T22:42:00.895Z,6,GR86-004-78,1.2000000000000002,0.154,-0.044,99.97,3.0,,0.0,0.0,
2025-08-14T22:42:00.938Z,6,GR86-004-78,1.2000000000000002,0.176,-0.053,99.96,3.0,6661.0,0.0,0.0,
2025-08-14T22:42:00.982Z,6,GR86-004-78,1.1,0.147,-0.037,99.96,3.0,,0.0,0.0,140.8
2025-08-14T22:42:01.025Z,6,GR86-004-78,1.1,0.185,-0.039,99.96,3.0,,0.0,0.0,
2025-08-14T22:42:01.068Z,6,GR86-004-78,1.2000000000000002,0.221,-0.03,99.98,3.0,,0.0,0.0,
2025-08-14T22:42:01.111Z,6,GR86-004-78,1.3,0.197,-0.047,99.97,3.0,,0.0,0.0,
2025-08-14T22:42:01.154Z,6,GR86-004-78,1.3,0.16,-0.047,99.96,3.0,6713.0,0.0,0.0,
2025-08-14T22:42:01.197Z,6,GR86-004-78,1.3,0.161,-0.056,99.96,3.0,,0.0,0.0,142.02
2025-08-14T22:42:01.242Z,6,GR86-004-78,1.3,0.136,-0.041,99.97,3.0,,0.0,0.0,
2025-08-14T22:42:01.285Z,6,GR86-004-78,1.3,0.151,-0.045,99.97,3.0,,0.0,0.0,
2025-08-14T22:42:01.328Z,6,GR86-004-78,1.3,0.204,-0.033,99.96,3.0,,0.0,0.0,
2025-08-14T22:42:01.372Z,6,GR86-004-78,1.3,0.228,-0.032,99.97,3.0,6771.0,0.0,0.0,
2025-08-14T22:42:01.415Z,6,GR86-004-78,1.3,0.192,-0.02,99.97,3.0,,0.0,0.0,143.19
2025-08-14T22:42:01.458Z,6,GR86-004-78,1.3,0.146,-0.046,99.94,3.0,,0.0,0.0,
2025-08-14T22:42:01.502Z,6,GR86-004-78,1.3,0.181,-0.03,99.96,3.0,,0.0,0.0,
2025-08-14T22:42:01.545Z,6,GR86-004-78,1.3,0.19,-0.032,99.96,3.0,,0.0,0.0,
2025-08-14T22:42:01.588Z,6,GR86-004-78,1.3,0.159,-0.032,99.94,3.0,6818.0,0.0,0.0,
2025-08-14T22:42:01.633Z,6,GR86-004-78,1.3,0.2,-0.017,99.96,3.0,,0.0,0.0,145.51
2025-08-14T22:42:01.676Z,6,GR86-004-78,1.3,0.218,-0.017,99.96,3.0,,0.0,0.0,
2025-08-14T22:42:01.762Z,6,GR86-004-78,1.3,0.199,-0.03,99.95,3.0,,0.0,0.0,
2025-08-14T22:42:01.805Z,6,GR86-004-78,-0.2,0.187,-0.047,99.97,3.0,6883.0,0.0,0.0,
2025-08-14T22:42:01.848Z,6,GR86-004-78,-0.2,0.197,-0.059,99.95,3.0,,0.0,0.0,146.77
2025-08-14T22:42:01.892Z,6,GR86-004-78,-0.2,0.153,-0.064,99.97,3.0,,0.0,0.0,
2025-08-14T22:42:01.935Z,6,GR86-004-78,-0.2,0.183,-0.053,99.97,3.0,,0.0,0.0,
2025-08-14T22:42:01.978Z,6,GR86-004-78,-0.2,0.205,-0.064,99.95,3.0,,0.0,0.0,
2025-08-14T22:42:02.022Z,6,GR86-004-78,-0.2,0.176,-0.079,99.95,3.0,6997.0,0.0,0.0,
2025-08-14T22:42:02.065Z,6,GR86-004-78,-0.2,0.206,-0.076,99.97,3.0,,0.0,0.0,147.95000000000002
2025-08-14T22:42:02.108Z,6,GR86-004-78,-0.1,0.188,-0.082,99.97,3.0,,0.0,0.0,
2025-08-14T22:42:02.152Z,6,GR86-004-78,-0.1,0.17,-0.093,99.95,3.0,,0.0,0.0,
2025-08-14T22:42:02.238Z,6,GR86-004-78,-0.1,0.163,-0.116,99.97,3.0,7040.0,0.0,0.0,
2025-08-14T22:42:02.282Z,6,GR86-004-78,-0.1,0.156,-0.105,99.96,3.0,,0.0,0.0,149.19
2025-08-14T22:42:02.325Z,6,GR86-004-78,-0.1,0.151,-0.097,99.97,3.0,,0.0,0.0,
2025-08-14T22:42:02.368Z,6,GR86-004-78,-0.1,0.183,-0.078,99.96,3.0,,0.0,0.0,
2025-08-14T22:42:02.412Z,6,GR86-004-78,-0.1,0.207,-0.065,99.97,3.0,,0.0,0.0,
2025-08-14T22:42:02.455Z,6,GR86-004-78,-0.1,0.187,-0.052,99.95,3.0,7098.0,0.0,0.0,
2025-08-14T22:42:02.498Z,6,GR86-004-78,-0.1,0.162,-0.057,99.95,3.0,,0.0,0.0,150.32
2025-08-14T22:42:02.543Z,6,GR86-004-78,-0.1,0.186,-0.053,99.97,3.0,,0.0,0.0,
2025-08-14T22:42:02.586Z,6,GR86-004-78,-0.1,0.17,-0.056,99.95,3.0,,0.0,0.0,
2025-08-14T22:42:02.629Z,6,GR86-004-78,-0.1,0.168,-0.047,99.95,3.0,,0.0,0.0,
2025-08-14T22:42:02.672Z,6,GR86-004-78,-0.1,0.155,-0.062,99.97,3.0,7146.0,0.0,0.0,
2025-08-14T22:42:02.715Z,6,GR86-004-78,-0.1,0.177,-0.052,99.96,3.0,,0.0,0.0,151.34
2025-08-14T22:42:02.758Z,6,GR86-004-78,-0.1,0.181,-0.049,99.98,3.0,,0.0,0.0,
2025-08-14T22:42:02.802Z,6,GR86-004-78,-0.1,0.153,-0.054,99.96,3.0,,0.0,0.0,
2025-08-14T22:42:02.845Z,6,GR86-004-78,-0.1,0.177,-0.041,99.98,3.0,,0.0,0.0,
2025-08-14T22:42:02.888Z,6,GR86-004-78,-0.1,0.193,-0.034,99.96,3.0,7201.0,0.0,0.0,
2025-08-14T22:42:02.933Z,6,GR86-004-78,-0.1,0.185,-0.044,99.96,3.0,,0.0,0.0,152.37
2025-08-14T22:42:02.976Z,6,GR86-004-78,-0.1,0.153,-0.049,99.96,3.0,,0.0,0.0,
2025-08-14T22:42:03.022Z,6,GR86-004-78,-0.1,0.174,-0.069,99.95,3.0,,0.0,0.0,
2025-08-14T22:42:03.065Z,6,GR86-004-78,-0.1,0.071,-0.06,99.95,4.0,,0.0,0.0,
2025-08-14T22:42:03.108Z,6,GR86-004-78,-0.1,-0.111,-0.043,99.96,4.0,7255.0,0.0,0.0,
2025-08-14T22:42:03.152Z,6,GR86-004-78,-0.1,0.433,-0.035,99.96,4.0,,0.0,0.0,153.46
2025-08-14T22:42:03.195Z,6,GR86-004-78,-0.1,0.268,-0.104,99.97,4.0,,0.0,0.0,
2025-08-14T22:42:03.238Z,6,GR86-004-78,-0.1,0.283,-0.021,99.97,4.0,,0.0,0.0,
2025-08-14T22:42:03.282Z,6,GR86-004-78,0.0,0.064,-0.103,99.95,4.0,,0.0,0.0,
2025-08-14T22:42:03.325Z,6,GR86-004-78,0.1,0.111,-0.084,99.97,4.0,6301.0,0.0,0.0,
2025-08-14T22:42:03.368Z,6,GR86-004-78,0.1,0.189,-0.025,99.97,4.0,,0.0,0.0,154.5
2025-08-14T22:42:03.412Z,6,GR86-004-78,0.1,0.184,-0.081,99.95,4.0,,0.0,0.0,
2025-08-14T22:42:03.455Z,6,GR86-004-78,0.1,0.159,-0.024,99.96,4.0,,0.0,0.0,
2025-08-14T22:42:03.498Z,6,GR86-004-78,0.1,0.14,-0.049,99.96,4.0,,0.0,0.0,
2025-08-14T22:42:03.542Z,6,GR86-004-78,0.1,0.177,-0.038,99.96,4.0,6194.0,0.0,0.0,
2025-08-14T22:42:03.585Z,6,GR86-004-78,0.1,0.177,-0.033,99.96,4.0,,0.0,0.0,155.69
2025-08-14T22:42:03.628Z,6,GR86-004-78,0.0,0.137,-0.034,99.97,4.0,,0.0,0.0,
2025-08-14T22:42:03.672Z,6,GR86-004-78,0.0,0.119,-0.033,99.96,4.0,,0.0,0.0,
2025-08-14T22:42:03.715Z,6,GR86-004-78,-0.2,0.114,-0.058,99.96,4.0,,0.0,0.0,
2025-08-14T22:42:03.758Z,6,GR86-004-78,-0.4,0.123,-0.059,99.97,4.0,6223.0,0.0,0.0,
2025-08-14T22:42:03.802Z,6,GR86-004-78,-0.6000000000000001,0.129,-0.083,99.96,4.0,,0.0,0.0,156.75
2025-08-14T22:42:03.845Z,6,GR86-004-78,-1.7000000000000002,0.118,-0.075,99.97,4.0,,0.0,0.0,
2025-08-14T22:42:03.888Z,6,GR86-004-78,-2.0,0.112,-0.094,99.96,4.0,,0.0,0.0,
2025-08-14T22:42:03.933Z,6,GR86-004-78,-2.0,0.138,-0.089,99.95,4.0,,0.0,0.0,
2025-08-14T22:42:03.976Z,6,GR86-004-78,-2.0,0.148,-0.091,99.97,4.0,6265.0,0.0,0.0,
2025-08-14T22:42:04.019Z,6,GR86-004-78,-1.9,0.153,-0.095,99.96,4.0,,0.0,0.0,157.84
2025-08-14T22:42:04.062Z,6,GR86-004-78,-1.9,0.119,-0.13,99.96,4.0,,0.0,0.0,
2025-08-14T22:42:04.105Z,6,GR86-004-78,-1.8,0.151,-0.127,99.96,4.0,,0.0,0.0,
2025-08-14T22:42:04.148Z,6,GR86-004-78,-1.8,0.166,-0.141,99.97,4.0,,0.0,0.0,
2025-08-14T22:42:04.192Z,6,GR86-004-78,-1.8,0.163,-0.143,99.97,4.0,6302.0,0.0,0.0,
2025-08-14T22:42:04.235Z,6,GR86-004-78,-1.9,0.156,-0.165,99.98,4.0,,0.0,0.0,159.94
2025-08-14T22:42:04.278Z,6,GR86-004-78,-1.9,0.132,-0.176,99.96,4.0,,0.0,0.0,
2025-08-14T22:42:04.322Z,6,GR86-004-78,-1.8,0.159,-0.178,99.97,4.0,,0.0,0.0,
2025-08-14T22:42:04.365Z,6,GR86-004-78,-1.7000000000000002,0.164,-0.183,99.96,4.0,,0.0,0.0,
2025-08-14T22:42:04.408Z,6,GR86-004-78,-1.7000000000000002,0.155,-0.188,99.97,4.0,6343.0,0.0,0.0,
2025-08-14T22:42:04.452Z,6,GR86-004-78,-1.7000000000000002,0.129,-0.182,99.97,4.0,,0.0,0.0,160.97
2025-08-14T22:42:04.495Z,6,GR86-004-78,-1.7000000000000002,0.116,-0.187,99.98,4.0,,0.0,0.0,
2025-08-14T22:42:04.538Z,6,GR86-004-78,-1.7000000000000002,0.112,-0.181,99.97,4.0,,0.0,0.0,
2025-08-14T22:42:04.582Z,6,GR86-004-78,-1.7000000000000002,0.153,-0.166,99.96,4.0,,0.0,0.0,
2025-08-14T22:42:04.625Z,6,GR86-004-78,-1.7000000000000002,0.133,-0.177,99.97,4.0,6418.0,0.0,0.0,
2025-08-14T22:42:04.668Z,6,GR86-004-78,-1.7000000000000002,0.126,-0.172,99.96,4.0,,0.0,0.0,161.92000000000002
2025-08-14T22:42:04.711Z,6,GR86-004-78,-1.7000000000000002,0.102,-0.168,99.95,4.0,,0.0,0.0,
2025-08-14T22:42:04.754Z,6,GR86-004-78,-1.7000000000000002,0.117,-0.163,99.98,4.0,,0.0,0.0,
2025-08-14T22:42:04.797Z,6,GR86-004-78,-1.7000000000000002,0.123,-0.165,99.97,4.0,,0.0,0.0,
2025-08-14T22:42:04.842Z,6,GR86-004-78,-1.7000000000000002,0.123,-0.148,99.95,4.0,6459.0,0.0,0.0,
2025-08-14T22:42:04.885Z,6,GR86-004-78,-1.7000000000000002,0.117,-0.158,99.97,4.0,,0.0,0.0,162.9
2025-08-14T22:42:04.928Z,6,GR86-004-78,-1.7000000000000002,0.12,-0.135,99.97,4.0,,0.0,0.0,
2025-08-14T22:42:04.972Z,6,GR86-004-78,-1.7000000000000002,0.133,-0.137,99.96,4.0,,0.0,0.0,
2025-08-14T22:42:05.015Z,6,GR86-004-78,-1.7000000000000002,0.13,-0.129,99.99,4.0,,0.0,0.0,
2025-08-14T22:42:05.058Z,6,GR86-004-78,-1.7000000000000002,0.145,-0.106,99.98,4.0,6490.0,0.0,0.0,
2025-08-14T22:42:05.102Z,6,GR86-004-78,-1.7000000000000002,0.124,-0.112,99.97,4.0,,0.0,0.0,163.98
2025-08-14T22:42:05.145Z,6,GR86-004-78,-1.7000000000000002,0.12,-0.109,99.96,4.0,,0.0,0.0,
2025-08-14T22:42:05.188Z,6,GR86-004-78,-1.7000000000000002,0.132,-0.114,99.97,4.0,,0.0,0.0,
2025-08-14T22:42:05.233Z,6,GR86-004-78,-1.7000000000000002,0.142,-0.096,99.97,4.0,,0.0,0.0,
2025-08-14T22:42:05.276Z,6,GR86-004-78,-1.7000000000000002,0.144,-0.1,99.96,4.0,6530.0,0.0,0.0,
2025-08-14T22:42:05.319Z,6,GR86-004-78,-1.7000000000000002,0.139,-0.089,99.96,4.0,,0.0,0.0,164.97
2025-08-14T22:42:05.362Z,6,GR86-004-78,-1.7000000000000002,0.131,-0.114,99.96,4.0,,0.0,0.0,
2025-08-14T22:42:05.405Z,6,GR86-004-78,-1.7000000000000002,0.131,-0.123,99.96,4.0,,0.0,0.0,
2025-08-14T22:42:05.448Z,6,GR86-004-78,-1.7000000000000002,0.134,-0.129,99.97,4.0,,0.0,0.0,
2025-08-14T22:42:05.492Z,6,GR86-004-78,-1.9,0.147,-0.134,99.97,4.0,6571.0,0.0,0.0,
2025-08-14T22:42:05.535Z,6,GR86-004-78,-1.9,0.143,-0.147,99.97,4.0,,0.0,0.0,165.83
2025-08-14T22:42:05.578Z,6,GR86-004-78,-1.9,0.146,-0.131,99.95,4.0,,0.0,0.0,
2025-08-14T22:42:05.622Z,6,GR86-004-78,-1.8,0.125,-0.166,99.97,4.0,,0.0,0.0,
2025-08-14T22:42:05.665Z,6,GR86-004-78,-1.8,0.134,-0.169,99.96,4.0,,0.0,0.0,
2025-08-14T22:42:05.708Z,6,GR86-004-78,-1.8,0.151,-0.187,99.96,4.0,6606.0,0.0,0.0,
2025-08-14T22:42:05.752Z,6,GR86-004-78,-1.7000000000000002,0.152,-0.187,99.96,4.0,,0.0,0.0,166.72
2025-08-14T22:42:05.795Z,6,GR86-004-78,-1.7000000000000002,0.148,-0.178,99.97,4.0,,0.0,0.0,
2025-08-14T22:42:05.838Z,6,GR86-004-78,-1.7000000000000002,0.15,-0.181,99.98,4.0,,0.0,0.0,
2025-08-14T22:42:05.882Z,6,GR86-004-78,-1.7000000000000002,0.126,-0.184,99.96,4.0,,0.0,0.0,
2025-08-14T22:42:05.925Z,6,GR86-004-78,-1.7000000000000002,0.142,-0.18,99.96,4.0,6642.0,0.0,0.0,
2025-08-14T22:42:05.968Z,6,GR86-004-78,-1.7000000000000002,0.147,-0.179,99.96,4.0,,0.0,0.0,167.82
2025-08-14T22:42:06.012Z,6,GR86-004-78,-1.7000000000000002,0.168,-0.164,99.97,4.0,,0.0,0.0,
2025-08-14T22:42:06.055Z,6,GR86-004-78,-1.6,0.154,-0.156,99.96,4.0,,0.0,0.0,
2025-08-14T22:42:06.098Z,6,GR86-004-78,-1.4,0.152,-0.142,99.96,4.0,,0.0,0.0,
2025-08-14T22:42:06.143Z,6,GR86-004-78,-1.3,0.118,-0.148,99.95,4.0,6687.0,0.0,0.0,
2025-08-14T22:42:06.186Z,6,GR86-004-78,-1.3,0.126,-0.151,99.96,4.0,,0.0,0.0,168.77
2025-08-14T22:42:06.229Z,6,GR86-004-78,-1.3,0.145,-0.157,99.96,4.0,,0.0,0.0,
2025-08-14T22:42:06.272Z,6,GR86-004-78,-1.3,0.161,-0.141,99.95,4.0,,0.0,0.0,
2025-08-14T22:42:06.315Z,6,GR86-004-78,-1.3,0.145,-0.13,99.97,4.0,,0.0,0.0,
2025-08-14T22:42:06.358Z,6,GR86-004-78,-1.3,0.151,-0.102,99.95,4.0,6730.0,0.0,0.0,
2025-08-14T22:42:06.402Z,6,GR86-004-78,-1.3,0.099,-0.137,99.97,4.0,,0.0,0.0,169.67000000000002
2025-08-14T22:42:06.445Z,6,GR86-004-78,-1.3,0.107,-0.137,99.97,4.0,,0.0,0.0,
2025-08-14T22:42:06.488Z,6,GR86-004-78,-1.3,0.115,-0.128,99.97,4.0,,0.0,0.0,
2025-08-14T22:42:06.533Z,6,GR86-004-78,-1.3,0.108,-0.107,99.96,4.0,,0.0,0.0,
2025-08-14T22:42:06.576Z,6,GR86-004-78,-1.2000000000000002,0.137,-0.113,99.97,4.0,6767.0,0.0,0.0,
2025-08-14T22:42:06.619Z,6,GR86-004-78,-1.2000000000000002,0.151,-0.109,99.97,4.0,,0.0,0.0,170.58
2025-08-14T22:42:06.662Z,6,GR86-004-78,-1.2000000000000002,0.103,-0.124,99.96,4.0,,0.0,0.0,
2025-08-14T22:42:06.705Z,6,GR86-004-78,-1.2000000000000002,0.083,-0.097,99.97,4.0,,0.0,0.0,
2025-08-14T22:42:06.748Z,6,GR86-004-78,-1.2000000000000002,0.079,-0.076,99.97,4.0,,0.0,0.0,
2025-08-14T22:42:06.792Z,6,GR86-004-78,-1.2000000000000002,0.102,-0.08,99.97,4.0,6793.0,0.0,0.0,
2025-08-14T22:42:06.835Z,6,GR86-004-78,-1.3,0.118,-0.077,99.95,4.0,,0.0,0.0,172.42000000000002
2025-08-14T22:42:06.878Z,6,GR86-004-78,-1.3,0.13,-0.081,99.96,4.0,,0.0,0.0,
2025-08-14T22:42:06.922Z,6,GR86-004-78,-1.2000000000000002,0.12,-0.097,99.97,4.0,,0.0,0.0,
2025-08-14T22:42:06.965Z,6,GR86-004-78,-1.3,0.104,-0.095,99.95,4.0,,0.0,0.0,
2025-08-14T22:42:07.008Z,6,GR86-004-78,-1.3,0.091,-0.093,99.95,4.0,6841.0,0.0,0.0,
2025-08-14T22:42:07.052Z,6,GR86-004-78,-1.3,0.092,-0.1,99.96,4.0,,0.0,0.0,173.46
2025-08-14T22:42:07.095Z,6,GR86-004-78,-1.2000000000000002,0.095,-0.095,99.97,4.0,,0.0,0.0,
2025-08-14T22:42:07.138Z,6,GR86-004-78,-1.2000000000000002,0.116,-0.092,99.97,4.0,,0.0,0.0,
2025-08-14T22:42:07.182Z,6,GR86-004-78,-1.1,0.141,-0.071,99.96,4.0,,0.0,0.0,
2025-08-14T22:42:07.225Z,6,GR86-004-78,-1.1,0.099,-0.069,99.97,4.0,6891.0,0.0,0.0,
2025-08-14T22:42:07.268Z,6,GR86-004-78,-1.1,0.106,-0.087,99.97,4.0,,0.0,0.0,174.39
2025-08-14T22:42:07.311Z,6,GR86-004-78,-1.1,0.113,-0.082,99.95,4.0,,0.0,0.0,
2025-08-14T22:42:07.354Z,6,GR86-004-78,-1.1,0.122,-0.105,99.97,4.0,,0.0,0.0,
2025-08-14T22:42:07.397Z,6,GR86-004-78,-1.1,0.116,-0.108,99.96,4.0,,0.0,0.0,
2025-08-14T22:42:07.443Z,6,GR86-004-78,-1.0,0.134,-0.087,99.96,4.0,6929.0,0.0,0.0,
2025-08-14T22:42:07.486Z,6,GR86-004-78,-1.0,0.121,-0.074,99.97,4.0,,0.0,0.0,175.17000000000002
2025-08-14T22:42:07.529Z,6,GR86-004-78,-1.0,0.117,-0.074,99.95,4.0,,0.0,0.0,
2025-08-14T22:42:07.572Z,6,GR86-004-78,-1.0,0.116,-0.052,99.96,4.0,,0.0,0.0,
2025-08-14T22:42:07.615Z,6,GR86-004-78,-1.0,0.128,-0.047,99.97,4.0,,0.0,0.0,
2025-08-14T22:42:07.658Z,6,GR86-004-78,-1.0,0.122,-0.044,99.96,4.0,6964.0,0.0,0.0,
2025-08-14T22:42:07.702Z,6,GR86-004-78,-1.0,0.111,-0.05,99.97,4.0,,0.0,0.0,176.08
2025-08-14T22:42:07.745Z,6,GR86-004-78,-1.0,0.095,-0.026,99.94,4.0,,0.0,0.0,
2025-08-14T22:42:07.788Z,6,GR86-004-78,-1.0,0.122,-0.039,99.97,4.0,,0.0,0.0,
2025-08-14T22:42:07.833Z,6,GR86-004-78,-1.0,0.109,-0.033,99.98,4.0,,0.0,0.0,
2025-08-14T22:42:07.919Z,6,GR86-004-78,-1.0,0.129,-0.01,99.95,4.0,6994.0,0.0,0.0,176.92000000000002
2025-08-14T22:42:07.962Z,6,GR86-004-78,-1.0,0.094,-0.006,99.98,4.0,,0.0,0.0,
2025-08-14T22:42:08.005Z,6,GR86-004-78,-1.0,0.103,-0.043,99.96,4.0,,0.0,0.0,
2025-08-14T22:42:08.048Z,6,GR86-004-78,-1.0,0.104,-0.031,99.96,4.0,,0.0,0.0,
2025-08-14T22:42:08.092Z,6,GR86-004-78,-1.0,0.107,-0.067,99.96,4.0,7031.0,0.0,0.0,
2025-08-14T22:42:08.135Z,6,GR86-004-78,-1.3,0.09,-0.035,99.95,4.0,,0.0,0.0,177.70000000000002
2025-08-14T22:42:08.178Z,6,GR86-004-78,-1.6,0.092,-0.071,99.97,4.0,,0.0,0.0,
2025-08-14T22:42:08.222Z,6,GR86-004-78,-1.6,0.133,-0.071,99.96,4.0,,0.0,0.0,
2025-08-14T22:42:08.265Z,6,GR86-004-78,-1.5,0.143,-0.097,99.97,4.0,,0.0,0.0,
2025-08-14T22:42:08.308Z,6,GR86-004-78,-1.5,0.134,-0.102,99.97,4.0,7074.0,0.0,0.0,
2025-08-14T22:42:08.351Z,6,GR86-004-78,-1.5,0.142,-0.104,99.95,4.0,,0.0,0.0,178.46
2025-08-14T22:42:08.395Z,6,GR86-004-78,-1.5,0.133,-0.132,99.95,4.0,,0.0,0.0,
2025-08-14T22:42:08.438Z,6,GR86-004-78,-1.5,0.13,-0.133,99.95,4.0,,0.0,0.0,
2025-08-14T22:42:08.482Z,6,GR86-004-78,-1.4,0.105,-0.159,99.94,4.0,,0.0,0.0,
2025-08-14T22:42:08.525Z,6,GR86-004-78,-1.2000000000000002,0.082,-0.139,99.97,4.0,7095.0,0.0,0.0,
2025-08-14T22:42:08.568Z,6,GR86-004-78,-1.0,0.097,-0.126,99.94,4.0,,0.0,0.0,179.43
2025-08-14T22:42:08.611Z,6,GR86-004-78,-1.0,0.107,-0.113,99.97,4.0,,0.0,0.0,
2025-08-14T22:42:08.654Z,6,GR86-004-78,-1.0,0.091,-0.095,99.94,4.0,,0.0,0.0,
2025-08-14T22:42:08.697Z,6,GR86-004-78,-1.0,0.1,-0.08,99.96,4.0,,0.0,0.0,
2025-08-14T22:42:08.742Z,6,GR86-004-78,-1.0,0.124,-0.06,99.95,4.0,7122.0,0.0,0.0,
2025-08-14T22:42:08.785Z,6,GR86-004-78,-1.0,0.129,-0.083,99.96,4.0,,0.0,0.0,180.45
2025-08-14T22:42:08.828Z,6,GR86-004-78,-0.9,0.124,-0.063,99.99,4.0,,0.0,0.0,
2025-08-14T22:42:08.872Z,6,GR86-004-78,-0.9,0.148,-0.09,99.97,4.0,,0.0,0.0,
2025-08-14T22:42:08.915Z,6,GR86-004-78,-0.9,0.118,-0.025,99.96,4.0,,0.0,0.0,
2025-08-14T22:42:08.958Z,6,GR86-004-78,-0.9,0.13,-0.04,99.94,4.0,7176.0,0.0,0.0,
2025-08-14T22:42:09.002Z,6,GR86-004-78,-0.9,0.096,-0.029,99.95,4.0,,0.0,0.0,180.99
2025-08-14T22:42:09.045Z,6,GR86-004-78,-0.9,0.092,-0.056,99.95,4.0,,0.0,0.0,
2025-08-14T22:42:09.133Z,6,GR86-004-78,-0.9,0.092,-0.03,99.97,4.0,,0.0,0.0,
2025-08-14T22:42:09.176Z,6,GR86-004-78,-0.9,0.088,-0.024,99.99,4.0,7194.0,0.0,0.0,
2025-08-14T22:42:09.222Z,6,GR86-004-78,-0.9,0.133,-0.03,99.97,4.0,,0.0,0.0,182.72
2025-08-14T22:42:09.265Z,6,GR86-004-78,-0.9,0.127,-0.006,99.96,4.0,,0.0,0.0,
2025-08-14T22:42:09.308Z,6,GR86-004-78,-0.9,0.139,-0.027,99.96,4.0,,0.0,0.0,
2025-08-14T22:42:09.352Z,6,GR86-004-78,-0.9,0.126,-0.008,99.96,4.0,,0.0,0.0,
2025-08-14T22:42:09.395Z,6,GR86-004-78,-0.9,0.107,-0.035,99.97,4.0,7244.0,0.0,0.0,
2025-08-14T22:42:09.438Z,6,GR86-004-78,-0.9,-0.114,-0.011,99.96,5.0,,0.0,0.0,183.78
2025-08-14T22:42:09.482Z,6,GR86-004-78,-0.9,0.301,0.004,99.97,5.0,,0.0,0.0,
2025-08-14T22:42:09.525Z,6,GR86-004-78,-0.9,0.202,-0.086,99.96,5.0,,0.0,0.0,
2025-08-14T22:42:09.568Z,6,GR86-004-78,-0.9,0.081,0.002,99.95,5.0,,0.0,0.0,
2025-08-14T22:42:09.612Z,6,GR86-004-78,-0.9,0.034,-0.041,99.97,5.0,7060.0,0.0,0.0,
2025-08-14T22:42:09.655Z,6,GR86-004-78,-0.9,0.11,-0.117,99.96,5.0,,0.0,0.0,184.46
2025-08-14T22:42:09.698Z,6,GR86-004-78,-0.9,0.095,-0.03,99.97,5.0,,0.0,0.0,
2025-08-14T22:42:09.743Z,6,GR86-004-78,-0.9,0.093,-0.086,99.96,5.0,,0.0,0.0,
2025-08-14T22:42:09.786Z,6,GR86-004-78,-0.9,0.103,-0.033,99.98,5.0,,0.0,0.0,
2025-08-14T22:42:09.829Z,6,GR86-004-78,-0.9,0.116,-0.052,99.96,5.0,6347.0,0.0,0.0,
2025-08-14T22:42:09.872Z,6,GR86-004-78,-0.9,0.1,-0.053,99.97,5.0,,0.0,0.0,185.21
2025-08-14T22:42:09.915Z,6,GR86-004-78,-0.9,0.102,-0.053,99.95,5.0,,0.0,0.0,
2025-08-14T22:42:09.958Z,6,GR86-004-78,-0.9,0.096,-0.062,99.96,5.0,,0.0,0.0,
2025-08-14T22:42:10.002Z,6,GR86-004-78,-0.9,0.092,-0.062,99.97,5.0,,0.0,0.0,
2025-08-14T22:42:10.045Z,6,GR86-004-78,-0.9,0.095,-0.055,99.96,5.0,6361.0,0.0,0.0,
2025-08-14T22:42:10.088Z,6,GR86-004-78,-0.8,0.104,-0.062,99.96,5.0,,0.0,0.0,185.97
2025-08-14T22:42:10.133Z,6,GR86-004-78,-0.8,0.096,-0.067,99.97,5.0,,0.0,0.0,
2025-08-14T22:42:10.176Z,6,GR86-004-78,-0.5,0.103,-0.051,99.97,5.0,,0.0,0.0,
2025-08-14T22:42:10.222Z,6,GR86-004-78,-0.5,0.102,-0.043,99.96,5.0,,0.0,0.0,
2025-08-14T22:42:10.265Z,6,GR86-004-78,-0.5,0.107,-0.056,99.97,5.0,6388.0,0.0,0.0,
2025-08-14T22:42:10.308Z,6,GR86-004-78,-0.5,0.096,-0.046,99.96,5.0,,0.0,0.0,186.72
2025-08-14T22:42:10.352Z,6,GR86-004-78,-0.4,0.11,-0.044,99.96,5.0,,0.0,0.0,
2025-08-14T22:42:10.395Z,6,GR86-004-78,-0.4,0.102,-0.026,99.97,5.0,,0.0,0.0,
2025-08-14T22:42:10.438Z,6,GR86-004-78,-0.4,0.099,-0.052,99.97,5.0,,0.0,0.0,
2025-08-14T22:42:10.482Z,6,GR86-004-78,-0.4,0.102,0.0,99.96,5.0,6420.0,0.0,0.0,
2025-08-14T22:42:10.525Z,6,GR86-004-78,-0.4,0.107,-0.01,99.97,5.0,,0.0,0.0,187.39
2025-08-14T22:42:10.568Z,6,GR86-004-78,-0.4,0.097,0.007,99.94,5.0,,0.0,0.0,
2025-08-14T22:42:10.611Z,6,GR86-004-78,-0.4,0.096,-0.022,99.97,5.0,,0.0,0.0,
2025-08-14T22:42:10.655Z,6,GR86-004-78,-0.4,0.082,-0.015,99.95,5.0,,0.0,0.0,
2025-08-14T22:42:10.698Z,6,GR86-004-78,-0.3,0.107,-0.019,100.0,5.0,6445.0,0.0,0.0,
2025-08-14T22:42:10.742Z,6,GR86-004-78,-0.3,0.087,-0.012,99.96,5.0,,0.0,0.0,188.22
2025-08-14T22:42:10.785Z,6,GR86-004-78,-0.3,0.077,-0.016,99.95,5.0,,0.0,0.0,
2025-08-14T22:42:10.828Z,6,GR86-004-78,-0.3,0.079,-0.011,99.95,5.0,,0.0,0.0,
2025-08-14T22:42:10.872Z,6,GR86-004-78,-0.3,0.081,-0.026,99.97,5.0,,0.0,0.0,
2025-08-14T22:42:10.915Z,6,GR86-004-78,-0.3,0.092,-0.004,99.96,5.0,6464.0,0.0,0.0,
2025-08-14T22:42:10.958Z,6,GR86-004-78,-0.2,0.096,-0.015,99.97,5.0,,0.0,0.0,189.01
2025-08-14T22:42:11.002Z,6,GR86-004-78,-0.2,0.08,-0.014,99.96,5.0,,0.0,0.0,
2025-08-14T22:42:11.045Z,6,GR86-004-78,-0.2,0.086,-0.028,99.96,5.0,,0.0,0.0,
2025-08-14T22:42:11.088Z,6,GR86-004-78,-0.1,0.078,-0.005,99.96,5.0,,0.0,0.0,
2025-08-14T22:42:11.133Z,6,GR86-004-78,-0.1,0.087,-0.016,99.96,5.0,6491.0,0.0,0.0,
2025-08-14T22:42:11.176Z,6,GR86-004-78,-0.1,0.082,-0.021,99.97,5.0,,0.0,0.0,189.81
2025-08-14T22:42:11.222Z,6,GR86-004-78,-0.1,0.108,-0.024,99.97,5.0,,0.0,0.0,
2025-08-14T22:42:11.265Z,6,GR86-004-78,-0.1,0.098,-0.02,99.97,5.0,,0.0,0.0,
2025-08-14T22:42:11.308Z,6,GR86-004-78,-0.1,0.096,-0.014,99.95,5.0,,0.0,0.0,
2025-08-14T22:42:11.352Z,6,GR86-004-78,-0.1,0.092,-0.033,99.96,5.0,6514.0,0.0,0.0,
2025-08-14T22:42:11.395Z,6,GR86-004-78,0.0,0.09,-0.02,99.97,5.0,,0.0,0.0,190.49
2025-08-14T22:42:11.438Z,6,GR86-004-78,0.0,0.087,-0.015,99.97,5.0,,0.0,0.0,
2025-08-14T22:42:11.482Z,6,GR86-004-78,0.0,0.093,0.001,99.96,5.0,,0.0,0.0,
2025-08-14T22:42:11.525Z,6,GR86-004-78,0.0,0.097,0.016,99.95,5.0,,0.0,0.0,
2025-08-14T22:42:11.568Z,6,GR86-004-78,0.1,0.107,-0.008,99.96,5.0,6531.0,0.0,0.0,
2025-08-14T22:42:11.612Z,6,GR86-004-78,0.1,0.116,-0.004,99.97,5.0,,0.0,0.0,191.19
2025-08-14T22:42:11.655Z,6,GR86-004-78,0.2,0.102,0.003,99.97,5.0,,0.0,0.0,
2025-08-14T22:42:11.698Z,6,GR86-004-78,0.2,0.085,-0.013,99.95,5.0,,0.0,0.0,
2025-08-14T22:42:11.742Z,6,GR86-004-78,0.4,0.082,0.04,99.95,5.0,,0.0,0.0,
2025-08-14T22:42:11.785Z,6,GR86-004-78,0.5,0.087,0.028,99.96,5.0,6561.0,0.0,0.0,
2025-08-14T22:42:11.828Z,6,GR86-004-78,0.6000000000000001,0.102,0.043,99.97,5.0,,0.0,0.0,192.47
2025-08-14T22:42:11.872Z,6,GR86-004-78,0.6000000000000001,0.103,0.013,99.97,5.0,,0.0,0.0,
2025-08-14T22:42:11.915Z,6,GR86-004-78,0.6000000000000001,0.096,0.041,99.96,5.0,,0.0,0.0,
2025-08-14T22:42:11.958Z,6,GR86-004-78,0.6000000000000001,0.085,0.057,99.96,5.0,,0.0,0.0,
2025-08-14T22:42:12.002Z,6,GR86-004-78,0.6000000000000001,0.08,0.032,99.97,5.0,6584.0,0.0,0.0,
2025-08-14T22:42:12.045Z,6,GR86-004-78,0.6000000000000001,0.079,0.034,99.97,5.0,,0.0,0.0,193.15
2025-08-14T22:42:12.088Z,6,GR86-004-78,0.6000000000000001,0.093,0.041,99.95,5.0,,0.0,0.0,
2025-08-14T22:42:12.133Z,6,GR86-004-78,0.6000000000000001,0.099,0.03,99.96,5.0,,0.0,0.0,
2025-08-14T22:42:12.176Z,6,GR86-004-78,0.6000000000000001,0.089,0.048,99.96,5.0,,0.0,0.0,
2025-08-14T22:42:12.223Z,6,GR86-004-78,0.6000000000000001,0.078,0.031,99.96,5.0,6627.0,0.0,0.0,
2025-08-14T22:42:12.266Z,6,GR86-004-78,0.6000000000000001,0.081,0.036,99.96,5.0,,0.0,0.0,193.73
2025-08-14T22:42:12.309Z,6,GR86-004-78,0.6000000000000001,0.071,0.04,99.97,5.0,,0.0,0.0,
2025-08-14T22:42:12.352Z,6,GR86-004-78,0.6000000000000001,0.089,0.034,99.97,5.0,,0.0,0.0,
2025-08-14T22:42:12.395Z,6,GR86-004-78,0.6000000000000001,0.073,0.037,99.96,5.0,,0.0,0.0,
2025-08-14T22:42:12.438Z,6,GR86-004-78,0.8,0.085,0.023,99.97,5.0,6653.0,0.0,0.0,
2025-08-14T22:42:12.482Z,6,GR86-004-78,0.8,0.075,0.028,99.97,5.0,,0.0,0.0,194.36
2025-08-14T22:42:12.525Z,6,GR86-004-78,0.8,0.08,0.034,99.97,5.0,,0.0,0.0,
2025-08-14T22:42:12.568Z,6,GR86-004-78,0.8,0.069,0.039,99.96,5.0,,0.0,0.0,
2025-08-14T22:42:12.612Z,6,GR86-004-78,0.9,0.088,0.03,99.96,5.0,,0.0,0.0,
2025-08-14T22:42:12.655Z,6,GR86-004-78,1.7000000000000002,0.089,0.062,99.96,5.0,6678.0,0.0,0.0,
2025-08-14T22:42:12.698Z,6,GR86-004-78,2.0,0.062,0.037,99.94,5.0,,0.0,0.0,194.92
2025-08-14T22:42:12.743Z,6,GR86-004-78,2.1,0.07,0.076,99.96,5.0,,0.0,0.0,
2025-08-14T22:42:12.786Z,6,GR86-004-78,2.2,0.075,0.046,99.96,5.0,,0.0,0.0,
2025-08-14T22:42:12.829Z,6,GR86-004-78,2.9000000000000004,0.07,0.1,99.96,5.0,,0.0,0.0,
2025-08-14T22:42:12.872Z,6,GR86-004-78,3.4000000000000004,0.069,0.077,99.96,5.0,6696.0,0.0,0.0,
2025-08-14T22:42:12.915Z,6,GR86-004-78,3.4000000000000004,0.08,0.114,99.96,5.0,,0.0,0.0,195.48
2025-08-14T22:42:12.958Z,6,GR86-004-78,3.4000000000000004,0.054,0.102,99.96,5.0,,0.0,0.0,
2025-08-14T22:42:13.002Z,6,GR86-004-78,3.6,0.075,0.147,99.97,5.0,,0.0,0.0,
2025-08-14T22:42:13.045Z,6,GR86-004-78,3.7,0.082,0.133,99.97,5.0,,0.0,0.0,
2025-08-14T22:42:13.088Z,6,GR86-004-78,3.6,0.06,0.185,99.96,5.0,6715.0,0.0,0.0,
2025-08-14T22:42:13.133Z,6,GR86-004-78,3.7,0.074,0.142,99.97,5.0,,0.0,0.0,196.26
2025-08-14T22:42:13.176Z,6,GR86-004-78,3.7,0.072,0.19,99.96,5.0,,0.0,0.0,
2025-08-14T22:42:13.222Z,6,GR86-004-78,3.9,0.078,0.19,99.96,5.0,,0.0,0.0,
2025-08-14T22:42:13.265Z,6,GR86-004-78,4.4,0.089,0.199,99.95,5.0,,0.0,0.0,
2025-08-14T22:42:13.308Z,6,GR86-004-78,4.7,0.079,0.196,99.96,5.0,6732.0,0.0,0.0,
2025-08-14T22:42:13.351Z,6,GR86-004-78,4.7,0.083,0.209,99.96,5.0,,0.0,0.0,196.91
2025-08-14T22:42:13.394Z,6,GR86-004-78,4.7,0.058,0.184,99.96,5.0,,0.0,0.0,
2025-08-14T22:42:13.437Z,6,GR86-004-78,4.7,0.062,0.208,99.97,5.0,,0.0,0.0,
2025-08-14T22:42:13.482Z,6,GR86-004-78,4.7,0.081,0.211,99.96,5.0,,0.0,0.0,
2025-08-14T22:42:13.525Z,6,GR86-004-78,4.7,0.084,0.241,99.96,5.0,6752.0,0.0,0.0,
2025-08-14T22:42:13.568Z,6,GR86-004-78,4.800000000000001,0.059,0.252,99.96,5.0,,0.0,0.0,197.61
2025-08-14T22:42:13.612Z,6,GR86-004-78,5.4,0.047,0.239,99.97,5.0,,0.0,0.0,
2025-08-14T22:42:13.655Z,6,GR86-004-78,5.9,0.052,0.269,99.97,5.0,,0.0,0.0,
2025-08-14T22:42:13.698Z,6,GR86-004-78,6.0,0.065,0.279,99.97,5.0,,0.0,0.0,
2025-08-14T22:42:13.743Z,6,GR86-004-78,6.0,0.091,0.284,99.96,5.0,6765.0,0.0,0.0,
2025-08-14T22:42:13.786Z,6,GR86-004-78,6.0,0.066,0.256,99.95,5.0,,0.0,0.0,198.12
2025-08-14T22:42:13.829Z,6,GR86-004-78,6.0,0.056,0.291,99.96,5.0,,0.0,0.0,
2025-08-14T22:42:13.872Z,6,GR86-004-78,6.0,0.053,0.307,99.97,5.0,,0.0,0.0,
2025-08-14T22:42:13.915Z,6,GR86-004-78,6.0,0.053,0.333,99.96,5.0,,0.0,0.0,
2025-08-14T22:42:13.958Z,6,GR86-004-78,6.0,0.05,0.321,99.96,5.0,6789.0,0.0,0.0,
2025-08-14T22:42:14.002Z,6,GR86-004-78,6.0,0.053,0.31,99.96,5.0,,0.0,0.0,198.71
2025-08-14T22:42:14.045Z,6,GR86-004-78,6.0,0.052,0.302,99.96,5.0,,0.0,0.0,
2025-08-14T22:42:14.088Z,6,GR86-004-78,6.0,0.055,0.291,99.96,5.0,,0.0,0.0,
2025-08-14T22:42:14.133Z,6,GR86-004-78,6.0,0.07,0.298,99.97,5.0,,0.0,0.0,
2025-08-14T22:42:14.176Z,6,GR86-004-78,6.0,0.068,0.308,99.97,5.0,6808.0,0.0,0.0,
2025-08-14T22:42:14.219Z,6,GR86-004-78,6.0,0.058,0.296,99.97,5.0,,0.0,0.0,199.19
2025-08-14T22:42:14.262Z,6,GR86-004-78,6.0,0.033,0.29,99.95,5.0,,0.0,0.0,
2025-08-14T22:42:14.305Z,6,GR86-004-78,6.0,0.063,0.295,99.95,5.0,,0.0,0.0,
2025-08-14T22:42:14.348Z,6,GR86-004-78,6.0,0.06,0.317,99.97,5.0,,0.0,0.0,
2025-08-14T22:42:14.392Z,6,GR86-004-78,6.0,0.087,0.358,99.96,5.0,6827.0,0.0,0.0,
2025-08-14T22:42:14.435Z,6,GR86-004-78,6.0,0.071,0.353,99.96,5.0,,0.0,0.0,199.95
2025-08-14T22:42:14.478Z,6,GR86-004-78,6.0,0.074,0.358,99.96,5.0,,0.0,0.0,
2025-08-14T22:42:14.522Z,6,GR86-004-78,6.0,0.067,0.351,99.97,5.0,,0.0,0.0,
2025-08-14T22:42:14.565Z,6,GR86-004-78,6.0,0.057,0.341,99.96,5.0,,0.0,0.0,
2025-08-14T22:42:14.608Z,6,GR86-004-78,6.0,0.052,0.379,99.96,5.0,6845.0,0.0,0.0,
2025-08-14T22:42:14.651Z,6,GR86-004-78,6.0,0.08,0.353,99.93,5.0,,0.0,0.0,200.63
2025-08-14T22:42:14.694Z,6,GR86-004-78,6.0,0.074,0.324,99.95,5.0,,0.0,0.0,
2025-08-14T22:42:14.737Z,6,GR86-004-78,6.0,0.058,0.287,99.96,5.0,,0.0,0.0,
2025-08-14T22:42:14.782Z,6,GR86-004-78,6.0,0.054,0.272,99.95,5.0,,0.0,0.0,
2025-08-14T22:42:14.825Z,6,GR86-004-78,6.0,0.074,0.308,99.96,5.0,6898.0,0.0,0.0,
2025-08-14T22:42:14.868Z,6,GR86-004-78,4.9,0.082,0.305,99.95,5.0,,0.0,0.0,201.04
2025-08-14T22:42:14.911Z,6,GR86-004-78,4.7,0.062,0.267,99.95,5.0,,0.0,0.0,
2025-08-14T22:42:14.997Z,6,GR86-004-78,4.800000000000001,0.061,0.233,99.94,5.0,,0.0,0.0,
2025-08-14T22:42:15.042Z,6,GR86-004-78,4.800000000000001,0.058,0.232,63.16,5.0,6896.0,0.0,0.0,
2025-08-14T22:42:15.085Z,6,GR86-004-78,4.800000000000001,0.047,0.212,50.35,5.0,,0.0,0.0,201.81
2025-08-14T22:42:15.128Z,6,GR86-004-78,4.800000000000001,0.062,0.215,39.56,5.0,,0.0,0.0,
2025-08-14T22:42:15.172Z,6,GR86-004-78,4.9,0.055,0.211,36.25,5.0,,0.0,0.0,
2025-08-14T22:42:15.215Z,6,GR86-004-78,4.9,0.004,0.235,32.56,5.0,,0.0,0.0,
2025-08-14T22:42:15.258Z,6,GR86-004-78,4.9,-0.002,0.19,14.11,5.0,6889.0,0.0,0.0,
2025-08-14T22:42:15.302Z,6,GR86-004-78,4.9,-0.022,0.171,4.17,5.0,,3.28,3.755,202.04
2025-08-14T22:42:15.345Z,6,GR86-004-78,4.9,-0.153,0.195,3.98,5.0,,9.095,9.28,
2025-08-14T22:42:15.388Z,6,GR86-004-78,4.9,-0.261,0.253,3.72,5.0,,13.735,13.95,
2025-08-14T22:42:15.433Z,6,GR86-004-78,4.9,-0.492,0.191,3.47,5.0,,17.305,17.425,
2025-08-14T22:42:15.522Z,6,GR86-004-78,4.9,-0.458,0.229,3.27,5.0,6568.0,18.145,18.465,202.37
2025-08-14T22:42:15.565Z,6,GR86-004-78,4.9,-0.527,0.263,2.92,5.0,,18.495,18.8,
2025-08-14T22:42:15.608Z,6,GR86-004-78,4.9,-0.506,0.254,2.79,5.0,,18.86,19.245,
2025-08-14T22:42:15.651Z,6,GR86-004-78,5.5,-0.479,0.223,2.69,5.0,,19.455,19.67,
2025-08-14T22:42:15.694Z,6,GR86-004-78,7.800000000000001,-0.456,0.211,2.61,5.0,6609.0,21.775,21.87,
2025-08-14T22:42:15.737Z,6,GR86-004-78,7.9,-0.523,0.215,2.53,5.0,,26.02,26.02,199.33
2025-08-14T22:42:15.782Z,6,GR86-004-78,5.2,-0.677,0.241,2.48,5.0,,33.71,33.525,
2025-08-14T22:42:15.825Z,6,GR86-004-78,2.5,-0.766,0.202,2.45,5.0,,39.155,38.775,
2025-08-14T22:42:15.868Z,6,GR86-004-78,2.4000000000000004,-0.841,0.159,2.44,5.0,,43.855,43.52,
2025-08-14T22:42:15.912Z,6,GR86-004-78,2.4000000000000004,-0.893,0.182,2.43,5.0,6365.0,47.96,47.43,
2025-08-14T22:42:15.955Z,6,GR86-004-78,2.6,-0.951,0.216,2.45,5.0,,50.94,50.405,194.55
2025-08-14T22:42:15.998Z,6,GR86-004-78,2.6,-0.953,0.225,2.44,5.0,,52.370000000000005,52.02,
2025-08-14T22:42:16.043Z,6,GR86-004-78,1.1,-0.951,0.206,2.44,5.0,,52.05,52.28,
2025-08-14T22:42:16.086Z,6,GR86-004-78,1.1,-0.953,0.231,2.45,5.0,,51.99,52.05,
2025-08-14T22:42:16.129Z,6,GR86-004-78,1.1,-0.955,0.24,2.44,5.0,6024.0,51.745000000000005,52.05,
2025-08-14T22:42:16.172Z,6,GR86-004-78,-1.0,-0.948,0.236,2.43,5.0,,51.715,52.05,187.94
2025-08-14T22:42:16.215Z,6,GR86-004-78,-3.8,-0.807,0.197,2.44,5.0,,51.565,51.96,
2025-08-14T22:42:16.258Z,6,GR86-004-78,-3.9,-0.8180000000000001,0.168,2.45,5.0,,53.61,54.77,
2025-08-14T22:42:16.302Z,6,GR86-004-78,2.2,-0.928,0.226,2.44,5.0,,57.620000000000005,58.185,
2025-08-14T22:42:16.345Z,6,GR86-004-78,4.0,-0.839,0.176,23.13,5.0,5759.0,54.83,55.515,
2025-08-14T22:42:16.388Z,6,GR86-004-78,2.3000000000000003,-0.715,0.18,66.64,5.0,,53.03,54.02,183.69
2025-08-14T22:42:16.433Z,6,GR86-004-78,-1.5,-0.793,0.142,96.4,4.0,,52.525,53.715,
2025-08-14T22:42:16.476Z,6,GR86-004-78,-1.5,-0.8160000000000001,0.115,39.29,4.0,,52.83,53.455,
2025-08-14T22:42:16.522Z,6,GR86-004-78,3.6,-1.023,0.14,3.0500000000000003,4.0,,56.63,58.095,
2025-08-14T22:42:16.565Z,6,GR86-004-78,5.4,-0.928,0.145,2.87,4.0,5645.0,59.835,60.2,
2025-08-14T22:42:16.608Z,6,GR86-004-78,8.3,-1.061,0.115,2.72,4.0,,60.885,61.33,172.52
2025-08-14T22:42:16.651Z,6,GR86-004-78,9.3,-0.866,0.241,2.58,4.0,,63.115,64.67,
2025-08-14T22:42:16.694Z,6,GR86-004-78,9.4,-0.756,0.02,2.48,4.0,,63.620000000000005,64.06,
2025-08-14T22:42:16.737Z,6,GR86-004-78,12.0,-0.952,0.128,2.43,4.0,,65.055,65.895,
2025-08-14T22:42:16.782Z,6,GR86-004-78,15.5,-0.8220000000000001,0.049,2.4,4.0,6060.0,63.025,64.43,
2025-08-14T22:42:16.825Z,6,GR86-004-78,15.6,-1.1,0.142,2.62,4.0,,61.515,62.245000000000005,161.13
2025-08-14T22:42:16.868Z,6,GR86-004-78,10.9,-0.957,0.164,2.62,4.0,,61.91,61.82,
2025-08-14T22:42:16.911Z,6,GR86-004-78,10.6,-0.837,0.089,2.54,4.0,,60.05,60.4,
2025-08-14T22:42:16.954Z,6,GR86-004-78,12.3,-0.884,0.121,2.52,4.0,,56.66,57.27,
2025-08-14T22:42:16.997Z,6,GR86-004-78,14.0,-0.85,0.121,2.5,4.0,6050.0,55.805,56.125,
2025-08-14T22:42:17.043Z,6,GR86-004-78,14.0,-0.87,0.13,2.5,4.0,,51.365,51.9,157.17000000000002
2025-08-14T22:42:17.086Z,6,GR86-004-78,10.4,-0.762,0.184,2.5,4.0,,42.895,44.405,
2025-08-14T22:42:17.129Z,6,GR86-004-78,6.300000000000001,-0.811,0.045,2.52,4.0,,40.53,41.795,
2025-08-14T22:42:17.172Z,6,GR86-004-78,5.2,-0.895,0.133,2.5,4.0,,40.775,41.52,
2025-08-14T22:42:17.215Z,6,GR86-004-78,5.300000000000001,-0.895,0.125,2.51,4.0,5912.0,41.52,41.86,
2025-08-14T22:42:17.258Z,6,GR86-004-78,5.300000000000001,-0.914,0.147,2.51,4.0,,41.965,42.24,151.72
2025-08-14T22:42:17.302Z,6,GR86-004-78,-0.8,-0.88,0.18,49.73,4.0,,41.215,41.86,
2025-08-14T22:42:17.345Z,6,GR86-004-78,-3.3000000000000003,-0.881,0.149,94.72,4.0,,39.095,40.59,
2025-08-14T22:42:17.388Z,6,GR86-004-78,-3.3000000000000003,-0.873,0.175,99.94,3.0,,37.02,38.53,
2025-08-14T22:42:17.433Z,6,GR86-004-78,-0.4,-0.775,0.167,64.23,3.0,5722.0,35.465,37.11,
2025-08-14T22:42:17.476Z,6,GR86-004-78,1.0,-0.923,0.124,4.29,3.0,,34.625,36.06,149.88
2025-08-14T22:42:17.519Z,6,GR86-004-78,0.6000000000000001,-0.728,0.259,3.15,3.0,,35.235,36.275,
2025-08-14T22:42:17.562Z,6,GR86-004-78,-5.4,-0.843,0.041,2.8000000000000003,3.0,,33.875,34.745,
2025-08-14T22:42:17.605Z,6,GR86-004-78,-6.0,-0.771,0.119,2.72,3.0,,33.77,34.99,
2025-08-14T22:42:17.648Z,6,GR86-004-78,-5.2,-0.766,0.057,2.62,3.0,6445.0,32.565,34.03,
2025-08-14T22:42:17.693Z,6,GR86-004-78,1.1,-0.762,-0.033,2.5,3.0,,31.115,32.535000000000004,144.25
2025-08-14T22:42:17.736Z,6,GR86-004-78,3.4000000000000004,-0.745,0.157,2.48,3.0,,30.43,31.62,
2025-08-14T22:42:17.779Z,6,GR86-004-78,3.4000000000000004,-0.747,0.057,2.44,3.0,,30.46,31.42,
2025-08-14T22:42:17.822Z,6,GR86-004-78,2.1,-0.7030000000000001,0.038,2.43,3.0,,30.55,31.39,
2025-08-14T22:42:17.865Z,6,GR86-004-78,4.1000000000000005,-0.739,-0.026,2.42,3.0,6235.0,30.43,31.42,
2025-08-14T22:42:17.908Z,6,GR86-004-78,8.6,-0.764,-0.033,2.41,3.0,,31.055,31.74,138.23
2025-08-14T22:42:17.951Z,6,GR86-004-78,8.9,-0.734,0.042,2.43,3.0,,31.77,32.38,
2025-08-14T22:42:17.994Z,6,GR86-004-78,6.7,-0.734,-0.004,2.44,3.0,,33.055,33.19,
2025-08-14T22:42:18.037Z,6,GR86-004-78,4.5,-0.781,-0.013,2.43,3.0,,34.84,34.87,
2025-08-14T22:42:18.082Z,6,GR86-004-78,5.800000000000001,-0.799,-0.052,2.44,3.0,6056.0,36.93,36.99,
2025-08-14T22:42:18.125Z,6,GR86-004-78,10.7,-0.8140000000000001,0.005,2.44,3.0,,37.355,37.675,134.12
2025-08-14T22:42:18.168Z,6,GR86-004-78,11.6,-0.783,0.022,2.45,3.0,,37.355,37.555,
2025-08-14T22:42:18.211Z,6,GR86-004-78,10.4,-0.79,0.045,2.44,3.0,,37.385,37.675,
2025-08-14T22:42:18.254Z,6,GR86-004-78,6.2,-0.8300000000000001,0.061,2.43,3.0,,38.15,38.35,
2025-08-14T22:42:18.297Z,6,GR86-004-78,5.1000000000000005,-0.8250000000000001,0.036,27.81,3.0,5786.0,38.56,38.715,
2025-08-14T22:42:18.342Z,6,GR86-004-78,4.4,-0.841,0.047,94.74,2.0,,38.745,38.775,129.18
2025-08-14T22:42:18.385Z,6,GR86-004-78,1.7000000000000002,-0.804,0.036,65.72,2.0,,38.44,38.835,
2025-08-14T22:42:18.428Z,6,GR86-004-78,0.0,-1.015,-0.012,4.01,2.0,,38.775,39.555,
2025-08-14T22:42:18.473Z,6,GR86-004-78,0.0,-0.863,0.08,2.95,2.0,,39.4,40.62,
2025-08-14T22:42:18.516Z,6,GR86-004-78,2.9000000000000004,-0.722,0.017,2.73,2.0,5582.0,39.095,39.525,
2025-08-14T22:42:18.562Z,6,GR86-004-78,9.3,-0.887,0.184,2.59,2.0,,37.355,38.41,123.34
2025-08-14T22:42:18.605Z,6,GR86-004-78,9.5,-0.806,0.17,2.46,2.0,,36.61,37.145,
2025-08-14T22:42:18.648Z,6,GR86-004-78,7.800000000000001,-0.857,0.091,2.45,2.0,,35.86,36.73,
2025-08-14T22:42:18.692Z,6,GR86-004-78,3.7,-0.848,0.236,2.42,2.0,,37.02,38.18,
2025-08-14T22:42:18.735Z,6,GR86-004-78,3.5,-0.8210000000000001,0.074,2.42,2.0,6309.0,37.385,38.285,
2025-08-14T22:42:18.778Z,6,GR86-004-78,6.4,-0.795,0.091,2.41,2.0,,36.18,36.395,117.98
2025-08-14T22:42:18.822Z,6,GR86-004-78,11.4,-0.73,0.195,2.44,2.0,,34.455,35.115,
2025-08-14T22:42:18.865Z,6,GR86-004-78,9.9,-0.763,0.176,2.4,2.0,,32.595,33.875,
2025-08-14T22:42:18.908Z,6,GR86-004-78,3.4000000000000004,-0.721,0.235,2.42,2.0,,31.8,33.055,
2025-08-14T22:42:18.952Z,6,GR86-004-78,1.9,-0.845,0.162,2.42,2.0,6316.0,32.410000000000004,33.055,
2025-08-14T22:42:18.995Z,6,GR86-004-78,2.9000000000000004,-0.749,0.14,2.42,2.0,,33.525,33.845,113.89
2025-08-14T22:42:19.038Z,6,GR86-004-78,9.5,-0.786,0.194,2.42,2.0,,34.93,34.99,
2025-08-14T22:42:19.082Z,6,GR86-004-78,12.4,-0.803,0.246,2.43,2.0,,35.985,36.305,
2025-08-14T22:42:19.125Z,6,GR86-004-78,10.1,-0.741,0.261,2.42,2.0,,35.89,36.365,
2025-08-14T22:42:19.168Z,6,GR86-004-78,4.7,-0.8200000000000001,0.221,21.05,2.0,6009.0,36.15,36.515,
2025-08-14T22:42:19.212Z,6,GR86-004-78,1.8,-0.6990000000000001,0.194,64.93,2.0,,36.73,37.05,109.29
2025-08-14T22:42:19.255Z,6,GR86-004-78,-0.7000000000000001,-0.772,0.194,99.21,2.0,,36.365,37.295,
2025-08-14T22:42:19.298Z,6,GR86-004-78,-1.7000000000000002,-0.833,0.138,98.9,1.0,,36.84,37.145,
2025-08-14T22:42:19.343Z,6,GR86-004-78,-1.0,-0.726,0.044,7.43,1.0,,36.99,37.675,
2025-08-14T22:42:19.386Z,6,GR86-004-78,2.4000000000000004,-0.942,0.154,3.17,1.0,5703.0,37.355,38.53,
2025-08-14T22:42:19.429Z,6,GR86-004-78,5.300000000000001,-0.902,0.048,3.03,1.0,,39.645,40.745,99.02
2025-08-14T22:42:19.472Z,6,GR86-004-78,7.1000000000000005,-0.764,0.047,2.86,1.0,,39.34,39.995,
2025-08-14T22:42:19.515Z,6,GR86-004-78,7.2,-1.009,0.148,2.72,1.0,,39.125,39.785,
2025-08-14T22:42:19.558Z,6,GR86-004-78,7.2,-0.897,0.125,2.57,1.0,,39.46,40.715,
2025-08-14T22:42:19.602Z,6,GR86-004-78,7.2,-0.884,0.047,2.38,1.0,6348.0,38.805,39.095,
2025-08-14T22:42:19.645Z,6,GR86-004-78,8.9,-0.84,0.146,2.34,1.0,,38.775,39.095,92.77
2025-08-14T22:42:19.688Z,6,GR86-004-78,15.2,-0.893,0.007,2.35,1.0,,38.685,38.745,
2025-08-14T22:42:19.733Z,6,GR86-004-78,22.5,-0.8300000000000001,0.164,2.35,1.0,,37.89,38.41,
2025-08-14T22:42:19.776Z,6,GR86-004-78,26.8,-0.84,0.19,2.34,1.0,,36.55,37.355,
2025-08-14T22:42:19.819Z,6,GR86-004-78,26.8,-0.8280000000000001,0.214,2.36,1.0,6576.0,35.405,36.7,
2025-08-14T22:42:19.862Z,6,GR86-004-78,19.5,-0.787,0.224,2.38,1.0,,34.595,35.585,87.71000000000001
2025-08-14T22:42:19.905Z,6,GR86-004-78,19.1,-0.744,0.22,2.38,1.0,,33.875,35.265,
2025-08-14T22:42:19.948Z,6,GR86-004-78,20.700000000000003,-0.793,0.248,2.4,1.0,,32.505,33.97,
2025-08-14T22:42:19.992Z,6,GR86-004-78,24.4,-0.763,0.286,2.41,1.0,,29.085,30.49,
2025-08-14T22:42:20.035Z,6,GR86-004-78,26.700000000000003,-0.666,0.37,2.41,1.0,5882.0,24.02,25.21,
2025-08-14T22:42:20.078Z,6,GR86-004-78,29.1,-0.5740000000000001,0.414,2.42,1.0,,19.18,20.42,83.11
2025-08-14T22:42:20.122Z,6,GR86-004-78,34.1,-0.557,0.481,2.42,1.0,,16.71,17.52,
2025-08-14T22:42:20.165Z,6,GR86-004-78,38.400000000000006,-0.52,0.509,2.41,1.0,,16.59,17.425,
2025-08-14T22:42:20.208Z,6,GR86-004-78,44.0,-0.513,0.5670000000000001,2.42,1.0,,17.12,17.78,
2025-08-14T22:42:20.252Z,6,GR86-004-78,50.2,-0.506,0.618,2.44,1.0,5654.0,17.455000000000002,18.085,
2025-08-14T22:42:20.295Z,6,GR86-004-78,55.8,-0.488,0.673,2.44,1.0,,18.145,18.495,80.14
2025-08-14T22:42:20.338Z,6,GR86-004-78,58.8,-0.475,0.672,2.44,1.0,,18.085,18.265,
2025-08-14T22:42:20.425Z,6,GR86-004-78,59.1,-0.488,0.777,2.47,1.0,,18.435,18.77,
2025-08-14T22:42:20.511Z,6,GR86-004-78,59.3,-0.505,0.772,2.48,1.0,5400.0,17.12,17.900000000000002,77.16
2025-08-14T22:42:20.555Z,6,GR86-004-78,59.3,-0.466,0.768,2.49,1.0,,16.97,17.78,
2025-08-14T22:42:20.598Z,6,GR86-004-78,55.6,-0.47,0.81,2.5,1.0,,17.96,18.325,
2025-08-14T22:42:20.643Z,6,GR86-004-78,44.900000000000006,-0.474,0.757,2.51,1.0,,19.93,20.145,
2025-08-14T22:42:20.686Z,6,GR86-004-78,38.8,-0.484,0.724,2.5,1.0,5133.0,20.965,21.27,
2025-08-14T22:42:20.729Z,6,GR86-004-78,34.4,-0.485,0.723,2.51,1.0,,21.305,21.625,74.19
2025-08-14T22:42:20.772Z,6,GR86-004-78,31.9,-0.473,0.71,2.5,1.0,,21.47,21.805,
2025-08-14T22:42:20.815Z,6,GR86-004-78,31.5,-0.511,0.674,2.51,1.0,,21.655,21.96,
2025-08-14T22:42:20.858Z,6,GR86-004-78,33.0,-0.5,0.6930000000000001,2.5,1.0,,21.27,21.745,
2025-08-14T22:42:20.902Z,6,GR86-004-78,50.0,-0.496,0.7020000000000001,2.51,1.0,4853.0,18.115,19.18,
2025-08-14T22:42:20.945Z,6,GR86-004-78,62.2,-0.463,0.735,2.51,1.0,,15.0,15.96,70.79
2025-08-14T22:42:20.988Z,6,GR86-004-78,71.5,-0.424,0.786,2.52,1.0,,12.45,13.37,
2025-08-14T22:42:21.076Z,6,GR86-004-78,82.80000000000001,-0.343,0.8320000000000001,2.5,1.0,,6.24,7.0200000000000005,
2025-08-14T22:42:21.122Z,6,GR86-004-78,87.80000000000001,-0.254,0.914,4.9,1.0,4612.0,0.0,0.0,
2025-08-14T22:42:21.165Z,6,GR86-004-78,90.8,-0.21,0.8190000000000001,5.3,1.0,,0.0,0.0,67.04
2025-08-14T22:42:21.208Z,6,GR86-004-78,94.2,-0.19,0.853,12.96,1.0,,0.0,0.0,
2025-08-14T22:42:21.251Z,6,GR86-004-78,98.7,-0.195,0.867,13.82,1.0,,0.0,0.0,
2025-08-14T22:42:21.294Z,6,GR86-004-78,103.9,-0.183,0.862,17.36,1.0,,0.0,0.0,
2025-08-14T22:42:21.337Z,6,GR86-004-78,107.4,-0.128,0.927,21.38,1.0,4524.0,0.0,0.0,
2025-08-14T22:42:21.382Z,6,GR86-004-78,107.9,-0.114,0.915,21.46,1.0,,0.0,0.0,64.9
2025-08-14T22:42:21.425Z,6,GR86-004-78,108.0,-0.106,0.933,21.56,1.0,,0.0,0.0,
2025-08-14T22:42:21.468Z,6,GR86-004-78,108.0,-0.097,0.911,21.72,1.0,,0.0,0.0,
2025-08-14T22:42:21.511Z,6,GR86-004-78,108.0,-0.016,0.893,21.82,1.0,,0.0,0.0,
2025-08-14T22:42:21.554Z,6,GR86-004-78,108.0,0.179,0.914,21.91,1.0,4561.0,0.0,0.0,
2025-08-14T22:42:21.597Z,6,GR86-004-78,108.0,0.201,0.933,21.98,1.0,,0.0,0.0,63.78
2025-08-14T22:42:21.642Z,6,GR86-004-78,108.0,0.139,0.899,22.03,1.0,,0.0,0.0,
2025-08-14T22:42:21.685Z,6,GR86-004-78,108.0,0.103,0.946,22.06,1.0,,0.0,0.0,
2025-08-14T22:42:21.728Z,6,GR86-004-78,108.0,0.08,0.952,22.07,1.0,,0.0,0.0,
2025-08-14T22:42:21.815Z,6,GR86-004-78,108.0,0.096,0.969,22.1,1.0,4846.0,0.0,0.0,63.18
2025-08-14T22:42:21.858Z,6,GR86-004-78,108.0,0.109,0.967,22.09,1.0,,0.0,0.0,
2025-08-14T22:42:21.945Z,6,GR86-004-78,108.0,0.131,0.968,22.08,1.0,,0.0,0.0,
2025-08-14T22:42:21.988Z,6,GR86-004-78,108.0,0.104,0.971,22.08,1.0,4856.0,0.0,0.0,
2025-08-14T22:42:22.033Z,6,GR86-004-78,108.0,0.112,0.996,25.25,1.0,,0.0,0.0,64.32000000000001
2025-08-14T22:42:22.076Z,6,GR86-004-78,107.8,0.088,0.977,28.69,1.0,,0.0,0.0,
2025-08-14T22:42:22.122Z,6,GR86-004-78,104.4,0.119,0.97,28.97,1.0,,0.0,0.0,
2025-08-14T22:42:22.165Z,6,GR86-004-78,100.5,0.146,0.959,28.65,1.0,,0.0,0.0,
2025-08-14T22:42:22.208Z,6,GR86-004-78,94.6,0.186,0.94,28.4,1.0,4899.0,0.0,0.0,
2025-08-14T22:42:22.251Z,6,GR86-004-78,86.60000000000001,0.197,0.956,28.27,1.0,,0.0,0.0,64.94
2025-08-14T22:42:22.294Z,6,GR86-004-78,76.9,0.184,0.94,28.18,1.0,,0.0,0.0,
2025-08-14T22:42:22.337Z,6,GR86-004-78,63.8,0.189,0.998,28.42,1.0,,0.0,0.0,
2025-08-14T22:42:22.382Z,6,GR86-004-78,45.5,0.187,0.918,48.66,1.0,,0.0,0.0,
2025-08-14T22:42:22.425Z,6,GR86-004-78,43.6,0.204,0.907,70.72,1.0,5098.0,0.0,0.0,
2025-08-14T22:42:22.468Z,6,GR86-004-78,43.6,0.227,0.906,96.57,1.0,,0.0,0.0,66.03
2025-08-14T22:42:22.511Z,6,GR86-004-78,45.400000000000006,0.25,0.864,99.78,1.0,,0.0,0.0,
2025-08-14T22:42:22.555Z,6,GR86-004-78,45.7,0.305,0.908,99.92,1.0,,0.0,0.0,
2025-08-14T22:42:22.598Z,6,GR86-004-78,44.6,0.326,0.901,99.92,1.0,,0.0,0.0,
2025-08-14T22:42:22.643Z,6,GR86-004-78,31.1,0.342,0.885,99.91,1.0,5305.0,0.0,0.0,
2025-08-14T22:42:22.686Z,6,GR86-004-78,22.3,0.353,0.806,99.93,1.0,,0.0,0.0,67.15
2025-08-14T22:42:22.729Z,6,GR86-004-78,19.8,0.354,0.753,99.92,1.0,,0.0,0.0,
2025-08-14T22:42:22.815Z,6,GR86-004-78,30.4,0.361,0.747,99.93,1.0,,0.0,0.0,
2025-08-14T22:42:22.858Z,6,GR86-004-78,40.6,0.359,0.797,99.91,1.0,5403.0,0.0,0.0,
2025-08-14T22:42:22.902Z,6,GR86-004-78,49.6,0.346,0.797,99.92,1.0,,0.0,0.0,68.75
2025-08-14T22:42:22.945Z,6,GR86-004-78,50.400000000000006,0.351,0.763,99.92,1.0,,0.0,0.0,
2025-08-14T22:42:23.033Z,6,GR86-004-78,50.3,0.317,0.751,99.94,1.0,,0.0,0.0,
2025-08-14T22:42:23.076Z,6,GR86-004-78,50.3,0.327,0.727,99.93,1.0,5488.0,0.0,0.0,
2025-08-14T22:42:23.119Z,6,GR86-004-78,50.3,0.311,0.72,99.91,1.0,,0.0,0.0,70.68
2025-08-14T22:42:23.162Z,6,GR86-004-78,52.0,0.341,0.712,99.94,1.0,,0.0,0.0,
2025-08-14T22:42:23.205Z,6,GR86-004-78,52.0,0.341,0.731,99.92,1.0,,0.0,0.0,
2025-08-14T22:42:23.248Z,6,GR86-004-78,51.2,0.329,0.711,99.94,1.0,,0.0,0.0,
2025-08-14T22:42:23.292Z,6,GR86-004-78,44.900000000000006,0.323,0.73,99.94,1.0,5680.0,0.0,0.0,
2025-08-14T22:42:23.335Z,6,GR86-004-78,40.0,0.32,0.7000000000000001,99.95,1.0,,0.0,0.0,72.96000000000001
2025-08-14T22:42:23.378Z,6,GR86-004-78,39.1,0.319,0.666,99.94,1.0,,0.0,0.0,
2025-08-14T22:42:23.422Z,6,GR86-004-78,39.1,0.334,0.6990000000000001,99.95,1.0,,0.0,0.0,
2025-08-14T22:42:23.465Z,6,GR86-004-78,38.6,0.343,0.6900000000000001,99.93,1.0,,0.0,0.0,
2025-08-14T22:42:23.508Z,6,GR86-004-78,36.5,0.334,0.75,99.93,1.0,5885.0,0.0,0.0,
2025-08-14T22:42:23.551Z,6,GR86-004-78,34.0,0.332,0.712,99.94,1.0,,0.0,0.0,75.23
2025-08-14T22:42:23.594Z,6,GR86-004-78,33.0,0.362,0.744,99.94,1.0,,0.0,0.0,
2025-08-14T22:42:23.637Z,6,GR86-004-78,33.0,0.366,0.709,99.95,1.0,,0.0,0.0,
2025-08-14T22:42:23.682Z,6,GR86-004-78,33.0,0.358,0.736,99.96,1.0,,0.0,0.0,
2025-08-14T22:42:23.768Z,6,GR86-004-78,32.4,0.342,0.6900000000000001,99.96,1.0,6059.0,0.0,0.0,77.4
2025-08-14T22:42:23.812Z,6,GR86-004-78,28.200000000000003,0.345,0.677,99.94,1.0,,0.0,0.0,
2025-08-14T22:42:23.855Z,6,GR86-004-78,27.0,0.358,0.662,99.97,1.0,,0.0,0.0,
2025-08-14T22:42:23.898Z,6,GR86-004-78,26.6,0.354,0.643,99.96,1.0,,0.0,0.0,
2025-08-14T22:42:23.943Z,6,GR86-004-78,26.4,0.355,0.636,99.96,1.0,6196.0,0.0,0.0,
2025-08-14T22:42:23.986Z,6,GR86-004-78,25.9,0.343,0.616,99.96,1.0,,0.0,0.0,79.52
2025-08-14T22:42:24.029Z,6,GR86-004-78,25.1,0.348,0.604,99.97,1.0,,0.0,0.0,
2025-08-14T22:42:24.072Z,6,GR86-004-78,23.8,0.334,0.599,99.94,1.0,,0.0,0.0,
2025-08-14T22:42:24.115Z,6,GR86-004-78,22.5,0.353,0.55,99.96,1.0,,0.0,0.0,
2025-08-14T22:42:24.158Z,6,GR86-004-78,21.1,0.347,0.536,99.94,1.0,6326.0,0.0,0.0,
2025-08-14T22:42:24.202Z,6,GR86-004-78,17.900000000000002,0.35,0.497,99.94,1.0,,0.0,0.0,81.67
2025-08-14T22:42:24.245Z,6,GR86-004-78,15.4,0.331,0.464,99.96,1.0,,0.0,0.0,
2025-08-14T22:42:24.288Z,6,GR86-004-78,12.7,0.342,0.436,99.96,1.0,,0.0,0.0,
2025-08-14T22:42:24.333Z,6,GR86-004-78,10.5,0.339,0.414,99.96,1.0,,0.0,0.0,
2025-08-14T22:42:24.376Z,6,GR86-004-78,9.7,0.361,0.379,99.95,1.0,6474.0,0.0,0.0,
2025-08-14T22:42:24.422Z,6,GR86-004-78,9.6,0.36,0.332,99.97,1.0,,0.0,0.0,85.47
2025-08-14T22:42:24.465Z,6,GR86-004-78,8.9,0.365,0.314,99.97,1.0,,0.0,0.0,
2025-08-14T22:42:24.508Z,6,GR86-004-78,7.6,0.348,0.282,99.95,1.0,,0.0,0.0,
2025-08-14T22:42:24.551Z,6,GR86-004-78,6.5,0.348,0.248,99.97,1.0,,0.0,0.0,
2025-08-14T22:42:24.594Z,6,GR86-004-78,6.0,0.329,0.22,99.97,1.0,6640.0,0.0,0.0,
2025-08-14T22:42:24.637Z,6,GR86-004-78,6.0,0.339,0.208,99.96,1.0,,0.0,0.0,87.81
2025-08-14T22:42:24.682Z,6,GR86-004-78,6.0,0.352,0.177,99.96,1.0,,0.0,0.0,
2025-08-14T22:42:24.725Z,6,GR86-004-78,5.800000000000001,0.348,0.173,99.96,1.0,,0.0,0.0,
2025-08-14T22:42:24.768Z,6,GR86-004-78,5.7,0.346,0.149,99.96,1.0,,0.0,0.0,
2025-08-14T22:42:24.812Z,6,GR86-004-78,5.4,0.332,0.153,99.97,1.0,6801.0,0.0,0.0,
2025-08-14T22:42:24.855Z,6,GR86-004-78,5.300000000000001,0.324,0.128,99.96,1.0,,0.0,0.0,90.16
2025-08-14T22:42:24.898Z,6,GR86-004-78,4.9,0.331,0.129,99.97,1.0,,0.0,0.0,
2025-08-14T22:42:24.942Z,6,GR86-004-78,4.7,0.342,0.119,99.96,1.0,,0.0,0.0,
2025-08-14T22:42:24.985Z,6,GR86-004-78,4.7,0.355,0.123,99.96,1.0,,0.0,0.0,
2025-08-14T22:42:25.028Z,6,GR86-004-78,4.7,0.34,0.097,99.97,1.0,7127.0,0.0,0.0,
2025-08-14T22:42:25.072Z,6,GR86-004-78,4.6000000000000005,0.345,0.089,99.97,1.0,,0.0,0.0,92.55
2025-08-14T22:42:25.115Z,6,GR86-004-78,4.7,0.253,0.075,99.96,1.0,,0.0,0.0,
2025-08-14T22:42:25.158Z,6,GR86-004-78,4.6000000000000005,-0.033,0.104,99.97,2.0,,0.0,0.0,
2025-08-14T22:42:25.202Z,6,GR86-004-78,4.5,0.536,0.078,99.99,2.0,,0.0,0.0,
2025-08-14T22:42:25.245Z,6,GR86-004-78,4.6000000000000005,0.441,-0.005,99.99,2.0,6509.0,0.0,0.0,
2025-08-14T22:42:25.288Z,6,GR86-004-78,4.4,0.464,0.094,99.97,2.0,,0.0,0.0,94.63
2025-08-14T22:42:25.333Z,6,GR86-004-78,4.3,0.514,0.075,99.97,2.0,,0.0,0.0,
2025-08-14T22:42:25.376Z,6,GR86-004-78,4.4,0.394,0.004,99.97,2.0,,0.0,0.0,
2025-08-14T22:42:25.419Z,6,GR86-004-78,4.4,0.241,0.102,99.97,2.0,,0.0,0.0,
2025-08-14T22:42:25.462Z,6,GR86-004-78,4.4,0.2,0.032,99.98,2.0,5615.0,0.0,0.0,
2025-08-14T22:42:25.505Z,6,GR86-004-78,4.3,0.262,0.081,99.98,2.0,,0.0,0.0,96.61
2025-08-14T22:42:25.548Z,6,GR86-004-78,4.4,0.306,0.073,99.97,2.0,,0.0,0.0,
2025-08-14T22:42:25.592Z,6,GR86-004-78,4.3,0.326,0.064,99.98,2.0,,0.0,0.0,
2025-08-14T22:42:25.635Z,6,GR86-004-78,4.2,0.298,0.067,100.0,2.0,,0.0,0.0,
2025-08-14T22:42:25.678Z,6,GR86-004-78,3.9,0.276,0.068,99.97,2.0,5836.0,0.0,0.0,
2025-08-14T22:42:25.765Z,6,GR86-004-78,1.5,0.264,0.051,99.96,2.0,,0.0,0.0,98.98
2025-08-14T22:42:25.808Z,6,GR86-004-78,1.3,0.296,0.05,99.97,2.0,,0.0,0.0,
2025-08-14T22:42:25.851Z,6,GR86-004-78,1.3,0.3,0.032,99.97,2.0,,0.0,0.0,
2025-08-14T22:42:25.895Z,6,GR86-004-78,0.4,0.291,0.042,99.98,2.0,5962.0,0.0,0.0,
2025-08-14T22:42:25.938Z,6,GR86-004-78,-0.9,0.285,0.033,99.98,2.0,,0.0,0.0,100.65
2025-08-14T22:42:25.982Z,6,GR86-004-78,-1.5,0.273,0.013,99.97,2.0,,0.0,0.0,
2025-08-14T22:42:26.025Z,6,GR86-004-78,-1.5,0.274,0.0,99.97,2.0,,0.0,0.0,
2025-08-14T22:42:26.068Z,6,GR86-004-78,-1.5,0.283,-0.004,99.98,2.0,,0.0,0.0,
2025-08-14T22:42:26.112Z,6,GR86-004-78,-1.6,0.291,-0.02,100.0,2.0,6032.0,0.0,0.0,
2025-08-14T22:42:26.155Z,6,GR86-004-78,-1.6,0.271,-0.025,100.0,2.0,,0.0,0.0,102.44
2025-08-14T22:42:26.198Z,6,GR86-004-78,-1.5,0.271,-0.048,99.99,2.0,,0.0,0.0,
2025-08-14T22:42:26.243Z,6,GR86-004-78,-1.3,0.277,-0.052,100.0,2.0,,0.0,0.0,
2025-08-14T22:42:26.286Z,6,GR86-004-78,-1.2000000000000002,0.277,-0.054,99.99,2.0,,0.0,0.0,
2025-08-14T22:42:26.329Z,6,GR86-004-78,-1.2000000000000002,0.287,-0.046,99.98,2.0,6121.0,0.0,0.0,
2025-08-14T22:42:26.372Z,6,GR86-004-78,-1.2000000000000002,0.274,-0.058,99.97,2.0,,0.0,0.0,104.12
2025-08-14T22:42:26.415Z,6,GR86-004-78,-1.2000000000000002,0.261,-0.056,99.96,2.0,,0.0,0.0,
2025-08-14T22:42:26.458Z,6,GR86-004-78,-1.1,0.268,-0.049,99.99,2.0,,0.0,0.0,
2025-08-14T22:42:26.502Z,6,GR86-004-78,-1.1,0.277,-0.051,99.96,2.0,,0.0,0.0,
2025-08-14T22:42:26.545Z,6,GR86-004-78,-1.1,0.276,-0.052,100.0,2.0,6206.0,0.0,0.0,
2025-08-14T22:42:26.588Z,6,GR86-004-78,-1.1,0.279,-0.044,99.97,2.0,,0.0,0.0,105.84
2025-08-14T22:42:26.633Z,6,GR86-004-78,-1.0,0.26,-0.035,99.97,2.0,,0.0,0.0,
2025-08-14T22:42:26.676Z,6,GR86-004-78,-1.0,0.272,-0.04,100.0,2.0,,0.0,0.0,
2025-08-14T22:42:26.719Z,6,GR86-004-78,-1.0,0.264,-0.037,99.99,2.0,,0.0,0.0,
2025-08-14T22:42:26.762Z,6,GR86-004-78,-1.0,0.251,-0.04,99.98,2.0,6295.0,0.0,0.0,
2025-08-14T22:42:26.805Z,6,GR86-004-78,-0.9,0.257,-0.039,100.0,2.0,,0.0,0.0,107.4
2025-08-14T22:42:26.848Z,6,GR86-004-78,-0.9,0.277,-0.041,99.96,2.0,,0.0,0.0,
2025-08-14T22:42:26.892Z,6,GR86-004-78,-0.9,0.252,-0.036,100.0,2.0,,0.0,0.0,
2025-08-14T22:42:26.935Z,6,GR86-004-78,-0.8,0.276,-0.044,100.0,2.0,,0.0,0.0,
2025-08-14T22:42:26.978Z,6,GR86-004-78,-0.8,0.264,-0.037,100.0,2.0,6389.0,0.0,0.0,
2025-08-14T22:42:27.022Z,6,GR86-004-78,-0.7000000000000001,0.249,-0.036,99.99,2.0,,0.0,0.0,110.33
2025-08-14T22:42:27.065Z,6,GR86-004-78,-0.6000000000000001,0.254,-0.03,99.99,2.0,,0.0,0.0,
2025-08-14T22:42:27.108Z,6,GR86-004-78,-0.6000000000000001,0.267,-0.029,99.98,2.0,,0.0,0.0,
2025-08-14T22:42:27.151Z,6,GR86-004-78,-0.5,0.245,-0.032,99.98,2.0,,0.0,0.0,
2025-08-14T22:42:27.194Z,6,GR86-004-78,-0.5,0.262,-0.017,100.01,2.0,6456.0,0.0,0.0,
2025-08-14T22:42:27.237Z,6,GR86-004-78,-0.5,0.255,-0.011,100.0,2.0,,0.0,0.0,111.7
2025-08-14T22:42:27.282Z,6,GR86-004-78,-0.4,0.255,0.005,99.99,2.0,,0.0,0.0,
2025-08-14T22:42:27.325Z,6,GR86-004-78,-0.4,0.255,0.008,99.97,2.0,,0.0,0.0,
2025-08-14T22:42:27.368Z,6,GR86-004-78,-0.3,0.258,0.021,99.98,2.0,,0.0,0.0,
2025-08-14T22:42:27.411Z,6,GR86-004-78,-0.3,0.243,0.016,99.99,2.0,6529.0,0.0,0.0,
2025-08-14T22:42:27.454Z,6,GR86-004-78,-0.2,0.264,0.026,99.97,2.0,,0.0,0.0,113.05
2025-08-14T22:42:27.497Z,6,GR86-004-78,-0.2,0.262,0.024,99.99,2.0,,0.0,0.0,
2025-08-14T22:42:27.543Z,6,GR86-004-78,-0.2,0.26,0.027,99.98,2.0,,0.0,0.0,
2025-08-14T22:42:27.586Z,6,GR86-004-78,-0.2,0.26,0.026,99.99,2.0,,0.0,0.0,
2025-08-14T22:42:27.629Z,6,GR86-004-78,-0.2,0.271,0.033,99.97,2.0,6674.0,0.0,0.0,
2025-08-14T22:42:27.672Z,6,GR86-004-78,-0.2,0.248,0.023,100.0,2.0,,0.0,0.0,114.29
2025-08-14T22:42:27.715Z,6,GR86-004-78,-0.2,0.243,0.026,99.99,2.0,,0.0,0.0,
2025-08-14T22:42:27.758Z,6,GR86-004-78,-0.2,0.255,0.023,100.0,2.0,,0.0,0.0,
2025-08-14T22:42:27.802Z,6,GR86-004-78,-0.3,0.269,0.019,99.97,2.0,,0.0,0.0,
2025-08-14T22:42:27.845Z,6,GR86-004-78,-0.8,0.26,0.018,99.97,2.0,6757.0,0.0,0.0,
2025-08-14T22:42:27.888Z,6,GR86-004-78,-1.0,0.261,0.008,99.99,2.0,,0.0,0.0,115.37
2025-08-14T22:42:27.933Z,6,GR86-004-78,-1.3,0.244,-0.008,99.99,2.0,,0.0,0.0,
2025-08-14T22:42:27.976Z,6,GR86-004-78,-1.3,0.234,-0.015,99.98,2.0,,0.0,0.0,
2025-08-14T22:42:28.019Z,6,GR86-004-78,-1.4,0.257,-0.023,100.0,2.0,,0.0,0.0,
2025-08-14T22:42:28.062Z,6,GR86-004-78,-1.7000000000000002,0.257,-0.03,99.99,2.0,6829.0,0.0,0.0,
2025-08-14T22:42:28.105Z,6,GR86-004-78,-1.7000000000000002,0.253,-0.053,99.99,2.0,,0.0,0.0,116.46
2025-08-14T22:42:28.148Z,6,GR86-004-78,-1.7000000000000002,0.243,-0.066,100.0,2.0,,0.0,0.0,
2025-08-14T22:42:28.192Z,6,GR86-004-78,-1.7000000000000002,0.261,-0.066,99.99,2.0,,0.0,0.0,
2025-08-14T22:42:28.235Z,6,GR86-004-78,-1.6,0.255,-0.072,99.96,2.0,,0.0,0.0,
2025-08-14T22:42:28.278Z,6,GR86-004-78,-1.6,0.251,-0.076,99.96,2.0,6887.0,0.0,0.0,
2025-08-14T22:42:28.322Z,6,GR86-004-78,-1.5,0.25,-0.08,99.99,2.0,,0.0,0.0,117.53
2025-08-14T22:42:28.365Z,6,GR86-004-78,-1.3,0.251,-0.084,99.98,2.0,,0.0,0.0,
2025-08-14T22:42:28.408Z,6,GR86-004-78,-1.0,0.252,-0.083,100.0,2.0,,0.0,0.0,
2025-08-14T22:42:28.451Z,6,GR86-004-78,-0.5,0.246,-0.068,99.98,2.0,,0.0,0.0,
2025-08-14T22:42:28.494Z,6,GR86-004-78,-0.2,0.243,-0.068,99.96,2.0,6945.0,0.0,0.0,
2025-08-14T22:42:28.537Z,6,GR86-004-78,-0.2,0.253,-0.063,99.99,2.0,,0.0,0.0,118.62
2025-08-14T22:42:28.582Z,6,GR86-004-78,-0.2,0.248,-0.05,100.0,2.0,,0.0,0.0,
2025-08-14T22:42:28.625Z,6,GR86-004-78,-0.1,0.247,-0.032,99.99,2.0,,0.0,0.0,
2025-08-14T22:42:28.668Z,6,GR86-004-78,0.1,0.239,-0.037,99.96,2.0,,0.0,0.0,
2025-08-14T22:42:28.711Z,6,GR86-004-78,0.3,0.253,-0.023,99.99,2.0,6995.0,0.0,0.0,
2025-08-14T22:42:28.754Z,6,GR86-004-78,0.4,0.264,-0.008,99.96,2.0,,0.0,0.0,119.68
2025-08-14T22:42:28.797Z,6,GR86-004-78,0.4,0.237,0.001,99.97,2.0,,0.0,0.0,
2025-08-14T22:42:28.842Z,6,GR86-004-78,0.4,0.222,0.012,100.0,2.0,,0.0,0.0,
2025-08-14T22:42:28.885Z,6,GR86-004-78,0.4,0.235,0.023,100.0,2.0,,0.0,0.0,
2025-08-14T22:42:28.928Z,6,GR86-004-78,0.4,0.265,0.028,100.0,2.0,7049.0,0.0,0.0,
2025-08-14T22:42:28.972Z,6,GR86-004-78,0.4,0.259,0.041,99.97,2.0,,0.0,0.0,120.73
2025-08-14T22:42:29.015Z,6,GR86-004-78,0.4,0.257,0.034,99.96,2.0,,0.0,0.0,
2025-08-14T22:42:29.058Z,6,GR86-004-78,0.4,0.259,0.037,99.96,2.0,,0.0,0.0,
2025-08-14T22:42:29.102Z,6,GR86-004-78,-0.3,0.24,0.025,99.97,2.0,,0.0,0.0,
2025-08-14T22:42:29.145Z,6,GR86-004-78,-0.3,0.228,0.013,99.97,2.0,7112.0,0.0,0.0,
2025-08-14T22:42:29.188Z,6,GR86-004-78,-0.3,0.241,0.004,99.99,2.0,,0.0,0.0,121.72
2025-08-14T22:42:29.233Z,6,GR86-004-78,-0.2,0.266,0.014,99.99,2.0,,0.0,0.0,
2025-08-14T22:42:29.276Z,6,GR86-004-78,-0.2,0.244,0.007,100.0,2.0,,0.0,0.0,
2025-08-14T22:42:29.319Z,6,GR86-004-78,-0.2,0.234,-0.008,99.97,2.0,,0.0,0.0,
2025-08-14T22:42:29.362Z,6,GR86-004-78,-0.6000000000000001,0.226,-0.025,99.98,2.0,7197.0,0.0,0.0,
2025-08-14T22:42:29.448Z,6,GR86-004-78,-0.6000000000000001,0.262,-0.022,99.97,2.0,,0.0,0.0,122.65
2025-08-14T22:42:29.492Z,6,GR86-004-78,-0.4,0.214,-0.034,99.74,2.0,,0.0,0.0,
2025-08-14T22:42:29.535Z,6,GR86-004-78,-0.3,0.241,-0.019,51.2,2.0,,0.0,0.0,
2025-08-14T22:42:29.578Z,6,GR86-004-78,0.2,0.244,-0.022,26.77,2.0,7250.0,1.86,2.245,
2025-08-14T22:42:29.622Z,6,GR86-004-78,1.3,0.163,-0.013,5.47,2.0,,12.985,13.14,124.62
2025-08-14T22:42:29.665Z,6,GR86-004-78,1.5,-0.137,-0.007,5.18,2.0,,21.595,21.625,
2025-08-14T22:42:29.708Z,6,GR86-004-78,1.5,-0.48,0.038,4.79,2.0,,30.015,29.985,
2025-08-14T22:42:29.752Z,6,GR86-004-78,1.8,-0.5710000000000001,-0.006,4.22,2.0,,34.87,34.655,
2025-08-14T22:42:29.795Z,6,GR86-004-78,3.3000000000000003,-0.7020000000000001,-0.011,3.69,2.0,7280.0,36.395,36.58,
2025-08-14T22:42:29.838Z,6,GR86-004-78,5.2,-0.766,0.07,3.38,2.0,,37.89,37.83,122.49
2025-08-14T22:42:29.882Z,6,GR86-004-78,6.300000000000001,-0.761,0.048,3.17,2.0,,41.11,40.99,
2025-08-14T22:42:29.925Z,6,GR86-004-78,6.300000000000001,-0.765,0.077,3.08,2.0,,42.925,42.745,
2025-08-14T22:42:29.968Z,6,GR86-004-78,6.300000000000001,-0.735,0.06,2.9,2.0,,43.52,43.55,
2025-08-14T22:42:30.012Z,6,GR86-004-78,6.300000000000001,-0.6970000000000001,0.051,2.76,2.0,6595.0,45.215,45.095,
2025-08-14T22:42:30.055Z,6,GR86-004-78,10.6,-0.8210000000000001,0.097,2.66,2.0,,45.965,45.995,115.4
2025-08-14T22:42:30.098Z,6,GR86-004-78,15.6,-0.6920000000000001,0.049,2.59,2.0,,43.17,44.13,
2025-08-14T22:42:30.143Z,6,GR86-004-78,21.200000000000003,-0.712,0.082,2.49,2.0,,43.52,43.95,
2025-08-14T22:42:30.186Z,6,GR86-004-78,24.700000000000003,-0.629,0.172,2.48,2.0,,42.545,43.615,
2025-08-14T22:42:30.229Z,6,GR86-004-78,27.3,-0.606,0.128,2.47,2.0,5871.0,40.06,41.34,
2025-08-14T22:42:30.272Z,6,GR86-004-78,27.6,-0.716,0.154,2.45,2.0,,39.845,41.14,106.98
2025-08-14T22:42:30.315Z,6,GR86-004-78,23.4,-0.655,0.223,2.44,2.0,,37.175,38.835,
2025-08-14T22:42:30.358Z,6,GR86-004-78,16.1,-0.653,0.175,2.44,2.0,,34.305,35.68,
2025-08-14T22:42:30.402Z,6,GR86-004-78,11.9,-0.726,0.226,2.46,2.0,,30.705,32.17,
2025-08-14T22:42:30.445Z,6,GR86-004-78,11.9,-0.727,0.186,2.45,2.0,5594.0,29.39,30.58,
2025-08-14T22:42:30.488Z,6,GR86-004-78,11.8,-0.669,0.206,2.45,2.0,,25.455,26.72,103.44
2025-08-14T22:42:30.533Z,6,GR86-004-78,7.0,-0.625,0.298,2.44,2.0,,20.725,21.96,
2025-08-14T22:42:30.576Z,6,GR86-004-78,-2.2,-0.554,0.292,2.45,2.0,,17.215,18.205,
2025-08-14T22:42:30.622Z,6,GR86-004-78,-9.2,-0.51,0.223,2.46,2.0,,16.025,16.71,
2025-08-14T22:42:30.665Z,6,GR86-004-78,-8.9,-0.489,0.216,2.45,2.0,5549.0,16.055,16.71,
2025-08-14T22:42:30.708Z,6,GR86-004-78,0.3,-0.456,0.217,2.44,2.0,,15.78,16.495,101.74
2025-08-14T22:42:30.751Z,6,GR86-004-78,10.0,-0.454,0.246,2.45,2.0,,14.3,15.155,
2025-08-14T22:42:30.795Z,6,GR86-004-78,18.9,-0.396,0.315,2.46,2.0,,12.21,12.985,
2025-08-14T22:42:30.838Z,6,GR86-004-78,28.4,-0.392,0.313,2.45,2.0,,11.46,12.175,
2025-08-14T22:42:30.882Z,6,GR86-004-78,40.7,-0.372,0.412,2.45,2.0,5455.0,12.21,12.53,
