timestamp,lap,vehicle_id,steering_angle,accx_can,accy_can,ath,gear,nmot,pbrake_f,pbrake_r,speed
2025-08-14T22:45:17.845Z,3,GR86-010-16,-16.8,0.036,-0.396,20.74,3.0,5404.0,0.0,0.0,
2025-08-14T22:45:17.888Z,3,GR86-010-16,-16.8,0.046,-0.425,20.93,3.0,,0.0,0.0,116.37
2025-08-14T22:45:17.931Z,3,GR86-010-16,-16.8,0.022,-0.421,21.96,3.0,,0.0,0.0,
2025-08-14T22:45:17.974Z,3,GR86-010-16,-16.8,0.034,-0.459,22.12,3.0,,0.0,0.0,
2025-08-14T22:45:18.017Z,3,GR86-010-16,-16.8,0.041,-0.447,22.21,3.0,,0.0,0.0,
2025-08-14T22:45:18.061Z,3,GR86-010-16,-16.8,0.058,-0.437,22.21,3.0,5413.0,0.0,0.0,
2025-08-14T22:45:18.104Z,3,GR86-010-16,-16.8,0.039,-0.404,22.21,3.0,,0.0,0.0,116.47
2025-08-14T22:45:18.147Z,3,GR86-010-16,-16.8,0.062,-0.434,22.21,3.0,,0.0,0.0,
2025-08-14T22:45:18.190Z,3,GR86-010-16,-16.8,0.052,-0.42,22.2,3.0,,0.0,0.0,
2025-08-14T22:45:18.233Z,3,GR86-010-16,-16.8,0.034,-0.399,22.19,3.0,,0.0,0.0,
2025-08-14T22:45:18.276Z,3,GR86-010-16,-16.1,0.063,-0.377,22.17,3.0,5416.0,0.0,0.0,
2025-08-14T22:45:18.319Z,3,GR86-010-16,-14.9,0.068,-0.341,22.15,3.0,,0.0,0.0,116.5
2025-08-14T22:45:18.362Z,3,GR86-010-16,-12.2,0.059,-0.306,22.1,3.0,,0.0,0.0,
2025-08-14T22:45:18.405Z,3,GR86-010-16,-9.9,0.053,-0.277,22.09,3.0,,0.0,0.0,
2025-08-14T22:45:18.448Z,3,GR86-010-16,-7.5,0.054,-0.262,22.07,3.0,,0.0,0.0,
2025-08-14T22:45:18.491Z,3,GR86-010-16,-5.4,0.048,-0.227,22.05,3.0,5434.0,0.0,0.0,
2025-08-14T22:45:18.534Z,3,GR86-010-16,-3.5,0.06,-0.191,22.05,3.0,,0.0,0.0,117.05
2025-08-14T22:45:18.577Z,3,GR86-010-16,-1.9,0.063,-0.153,22.03,3.0,,0.0,0.0,
2025-08-14T22:45:18.708Z,3,GR86-010-16,0.8,0.06,-0.089,22.01,3.0,5412.0,0.0,0.0,
2025-08-14T22:45:18.751Z,3,GR86-010-16,7.0,0.054,0.061,21.99,3.0,,0.0,0.0,117.24
2025-08-14T22:45:18.794Z,3,GR86-010-16,8.200000000000001,0.045,0.114,21.98,3.0,,0.0,0.0,
2025-08-14T22:45:18.837Z,3,GR86-010-16,8.9,0.069,0.147,21.99,3.0,,0.0,0.0,
2025-08-14T22:45:18.881Z,3,GR86-010-16,9.5,0.075,0.197,21.99,3.0,,0.0,0.0,
2025-08-14T22:45:18.924Z,3,GR86-010-16,9.9,0.063,0.234,21.98,3.0,5432.0,0.0,0.0,
2025-08-14T22:45:18.967Z,3,GR86-010-16,10.3,0.052,0.266,21.98,3.0,,0.0,0.0,117.62
2025-08-14T22:45:19.010Z,3,GR86-010-16,10.5,0.072,0.27,21.97,3.0,,0.0,0.0,
2025-08-14T22:45:19.053Z,3,GR86-010-16,10.6,0.056,0.282,21.99,3.0,,0.0,0.0,
2025-08-14T22:45:19.096Z,3,GR86-010-16,10.6,0.057,0.315,21.99,3.0,,0.0,0.0,
2025-08-14T22:45:19.139Z,3,GR86-010-16,10.6,0.068,0.316,21.99,3.0,5489.0,0.0,0.0,
2025-08-14T22:45:19.182Z,3,GR86-010-16,10.6,0.064,0.32,21.98,3.0,,0.0,0.0,117.99
2025-08-14T22:45:19.225Z,3,GR86-010-16,10.6,0.055,0.339,22.01,3.0,,0.0,0.0,
2025-08-14T22:45:19.268Z,3,GR86-010-16,10.6,0.061,0.346,22.02,3.0,,0.0,0.0,
2025-08-14T22:45:19.311Z,3,GR86-010-16,10.6,0.067,0.335,22.02,3.0,,0.0,0.0,
2025-08-14T22:45:19.354Z,3,GR86-010-16,10.6,0.065,0.336,22.07,3.0,5469.0,0.0,0.0,
2025-08-14T22:45:19.397Z,3,GR86-010-16,10.6,0.07,0.325,22.09,3.0,,0.0,0.0,118.29
2025-08-14T22:45:19.441Z,3,GR86-010-16,10.6,0.073,0.304,22.19,3.0,,0.0,0.0,
2025-08-14T22:45:19.484Z,3,GR86-010-16,10.6,0.068,0.301,22.24,3.0,,0.0,0.0,
2025-08-14T22:45:19.527Z,3,GR86-010-16,10.6,0.058,0.309,22.21,3.0,,0.0,0.0,
2025-08-14T22:45:19.570Z,3,GR86-010-16,10.6,0.073,0.319,22.26,3.0,5483.0,0.0,0.0,
2025-08-14T22:45:19.613Z,3,GR86-010-16,10.6,0.059,0.302,22.58,3.0,,0.0,0.0,118.7
2025-08-14T22:45:19.657Z,3,GR86-010-16,10.6,0.052,0.305,22.59,3.0,,0.0,0.0,
2025-08-14T22:45:19.700Z,3,GR86-010-16,10.6,0.056,0.292,22.72,3.0,,0.0,0.0,
2025-08-14T22:45:19.743Z,3,GR86-010-16,10.6,0.075,0.28,22.74,3.0,,0.0,0.0,
2025-08-14T22:45:19.786Z,3,GR86-010-16,10.6,0.061,0.266,22.98,3.0,5539.0,0.0,0.0,
2025-08-14T22:45:19.831Z,3,GR86-010-16,10.6,0.059,0.269,22.99,3.0,,0.0,0.0,119.05
2025-08-14T22:45:19.875Z,3,GR86-010-16,10.6,0.084,0.234,23.11,3.0,,0.0,0.0,
2025-08-14T22:45:19.918Z,3,GR86-010-16,10.6,0.069,0.23,23.12,3.0,,0.0,0.0,
2025-08-14T22:45:19.962Z,3,GR86-010-16,10.6,0.06,0.218,23.06,3.0,,0.0,0.0,
2025-08-14T22:45:20.005Z,3,GR86-010-16,10.3,0.067,0.227,23.24,3.0,5517.0,0.0,0.0,
2025-08-14T22:45:20.048Z,3,GR86-010-16,9.4,0.081,0.215,23.52,3.0,,0.0,0.0,119.44
2025-08-14T22:45:20.091Z,3,GR86-010-16,8.5,0.066,0.199,23.4,3.0,,0.0,0.0,
2025-08-14T22:45:20.134Z,3,GR86-010-16,7.9,0.067,0.201,23.69,3.0,,0.0,0.0,
2025-08-14T22:45:20.177Z,3,GR86-010-16,7.6,0.087,0.168,24.11,3.0,,0.0,0.0,
2025-08-14T22:45:20.222Z,3,GR86-010-16,7.0,0.086,0.153,24.29,3.0,5573.0,0.0,0.0,
2025-08-14T22:45:20.265Z,3,GR86-010-16,5.800000000000001,0.072,0.153,24.24,3.0,,0.0,0.0,119.82
2025-08-14T22:45:20.308Z,3,GR86-010-16,4.800000000000001,0.069,0.137,24.41,3.0,,0.0,0.0,
2025-08-14T22:45:20.352Z,3,GR86-010-16,4.0,0.084,0.121,24.68,3.0,,0.0,0.0,
2025-08-14T22:45:20.395Z,3,GR86-010-16,3.5,0.07,0.113,24.79,3.0,,0.0,0.0,
2025-08-14T22:45:20.438Z,3,GR86-010-16,3.1,0.078,0.094,24.92,3.0,5560.0,0.0,0.0,
2025-08-14T22:45:20.482Z,3,GR86-010-16,2.7,0.079,0.069,25.17,3.0,,0.0,0.0,120.2
2025-08-14T22:45:20.525Z,3,GR86-010-16,2.7,0.088,0.045,25.07,3.0,,0.0,0.0,
2025-08-14T22:45:20.568Z,3,GR86-010-16,2.7,0.075,0.033,25.22,3.0,,0.0,0.0,
2025-08-14T22:45:20.611Z,3,GR86-010-16,2.7,0.075,0.028,25.32,3.0,,0.0,0.0,
2025-08-14T22:45:20.697Z,3,GR86-010-16,2.7,0.091,0.011,25.53,3.0,5577.0,0.0,0.0,120.6
2025-08-14T22:45:20.741Z,3,GR86-010-16,2.6,0.073,0.004,25.87,3.0,,0.0,0.0,
2025-08-14T22:45:20.783Z,3,GR86-010-16,2.5,0.084,0.009,25.97,3.0,,0.0,0.0,
2025-08-14T22:45:20.827Z,3,GR86-010-16,2.3000000000000003,0.101,0.004,26.24,3.0,,0.0,0.0,
2025-08-14T22:45:20.870Z,3,GR86-010-16,1.8,0.078,0.001,26.26,3.0,5637.0,0.0,0.0,
2025-08-14T22:45:20.913Z,3,GR86-010-16,0.8,0.083,0.009,26.27,3.0,,0.0,0.0,121.09
2025-08-14T22:45:20.956Z,3,GR86-010-16,-0.5,0.091,0.002,26.33,3.0,,0.0,0.0,
2025-08-14T22:45:21.042Z,3,GR86-010-16,-3.8,0.08,-0.041,26.48,3.0,,0.0,0.0,
2025-08-14T22:45:21.085Z,3,GR86-010-16,-5.0,0.091,-0.049,26.53,3.0,5664.0,0.0,0.0,
2025-08-14T22:45:21.128Z,3,GR86-010-16,-6.4,0.096,-0.08,26.44,3.0,,0.0,0.0,122.08
2025-08-14T22:45:21.171Z,3,GR86-010-16,-7.7,0.079,-0.109,26.7,3.0,,0.0,0.0,
2025-08-14T22:45:21.257Z,3,GR86-010-16,-10.4,0.085,-0.161,27.43,3.0,,0.0,0.0,
2025-08-14T22:45:21.300Z,3,GR86-010-16,-11.8,0.097,-0.206,27.56,3.0,5692.0,0.0,0.0,
2025-08-14T22:45:21.343Z,3,GR86-010-16,-12.0,0.084,-0.23,27.68,3.0,,0.0,0.0,122.64
2025-08-14T22:45:21.386Z,3,GR86-010-16,-12.0,0.09,-0.259,27.74,3.0,,0.0,0.0,
2025-08-14T22:45:21.473Z,3,GR86-010-16,-12.0,0.086,-0.277,27.93,3.0,,0.0,0.0,
2025-08-14T22:45:21.516Z,3,GR86-010-16,-12.0,0.091,-0.298,28.32,3.0,5720.0,0.0,0.0,
2025-08-14T22:45:21.559Z,3,GR86-010-16,-12.0,0.1,-0.318,28.37,3.0,,0.0,0.0,123.22
2025-08-14T22:45:21.602Z,3,GR86-010-16,-12.0,0.094,-0.327,28.4,3.0,,0.0,0.0,
2025-08-14T22:45:21.688Z,3,GR86-010-16,-12.0,0.096,-0.322,28.45,3.0,,0.0,0.0,
2025-08-14T22:45:21.731Z,3,GR86-010-16,-12.0,0.096,-0.337,29.12,3.0,5784.0,0.0,0.0,
2025-08-14T22:45:21.774Z,3,GR86-010-16,-12.0,0.096,-0.327,29.38,3.0,,0.0,0.0,123.75
2025-08-14T22:45:21.817Z,3,GR86-010-16,-12.0,0.087,-0.325,29.8,3.0,,0.0,0.0,
2025-08-14T22:45:21.861Z,3,GR86-010-16,-12.0,0.092,-0.323,30.8,3.0,,0.0,0.0,
2025-08-14T22:45:21.904Z,3,GR86-010-16,-12.0,0.107,-0.327,32.410000000000004,3.0,,0.0,0.0,
2025-08-14T22:45:21.947Z,3,GR86-010-16,-12.0,0.113,-0.321,37.06,3.0,5776.0,0.0,0.0,
2025-08-14T22:45:21.990Z,3,GR86-010-16,-12.0,0.107,-0.31,48.03,3.0,,0.0,0.0,124.37
2025-08-14T22:45:22.033Z,3,GR86-010-16,-11.7,0.12,-0.282,59.28,3.0,,0.0,0.0,
2025-08-14T22:45:22.076Z,3,GR86-010-16,-10.7,0.151,-0.282,75.35000000000001,3.0,,0.0,0.0,
2025-08-14T22:45:22.122Z,3,GR86-010-16,-9.1,0.209,-0.235,99.95,3.0,,0.0,0.0,
2025-08-14T22:45:22.165Z,3,GR86-010-16,-8.200000000000001,0.216,-0.218,99.94,3.0,5857.0,0.0,0.0,
2025-08-14T22:45:22.208Z,3,GR86-010-16,-7.300000000000001,0.198,-0.191,99.94,3.0,,0.0,0.0,125.07
2025-08-14T22:45:22.251Z,3,GR86-010-16,-6.5,0.204,-0.171,99.93,3.0,,0.0,0.0,
2025-08-14T22:45:22.294Z,3,GR86-010-16,-5.7,0.19,-0.156,99.94,3.0,,0.0,0.0,
2025-08-14T22:45:22.337Z,3,GR86-010-16,-4.800000000000001,0.196,-0.126,99.94,3.0,,0.0,0.0,
2025-08-14T22:45:22.382Z,3,GR86-010-16,-2.8000000000000003,0.206,-0.096,99.95,3.0,5909.0,0.0,0.0,
2025-08-14T22:45:22.425Z,3,GR86-010-16,-1.3,0.211,-0.072,99.94,3.0,,0.0,0.0,125.81
2025-08-14T22:45:22.468Z,3,GR86-010-16,0.3,0.208,-0.067,99.95,3.0,,0.0,0.0,
2025-08-14T22:45:22.511Z,3,GR86-010-16,1.8,0.202,-0.018,99.95,3.0,,0.0,0.0,
2025-08-14T22:45:22.554Z,3,GR86-010-16,3.3000000000000003,0.197,0.019,99.95,3.0,,0.0,0.0,
2025-08-14T22:45:22.597Z,3,GR86-010-16,4.6000000000000005,0.221,0.048,99.94,3.0,5954.0,0.0,0.0,
2025-08-14T22:45:22.641Z,3,GR86-010-16,6.1000000000000005,0.217,0.097,99.95,3.0,,0.0,0.0,126.91
2025-08-14T22:45:22.684Z,3,GR86-010-16,6.9,0.205,0.131,99.94,3.0,,0.0,0.0,
2025-08-14T22:45:22.727Z,3,GR86-010-16,7.300000000000001,0.196,0.175,99.94,3.0,,0.0,0.0,
2025-08-14T22:45:22.770Z,3,GR86-010-16,7.4,0.206,0.207,99.95,3.0,,0.0,0.0,
2025-08-14T22:45:22.856Z,3,GR86-010-16,7.4,0.215,0.213,99.95,3.0,6016.0,0.0,0.0,128.38
2025-08-14T22:45:22.899Z,3,GR86-010-16,7.4,0.197,0.273,99.94,3.0,,0.0,0.0,
2025-08-14T22:45:22.942Z,3,GR86-010-16,7.4,0.205,0.285,99.96,3.0,,0.0,0.0,
2025-08-14T22:45:22.985Z,3,GR86-010-16,7.4,0.209,0.283,99.94,3.0,,0.0,0.0,
2025-08-14T22:45:23.028Z,3,GR86-010-16,7.4,0.212,0.276,99.94,3.0,6118.0,0.0,0.0,
2025-08-14T22:45:23.071Z,3,GR86-010-16,7.4,0.191,0.285,99.95,3.0,,0.0,0.0,129.81
2025-08-14T22:45:23.114Z,3,GR86-010-16,7.4,0.189,0.308,99.94,3.0,,0.0,0.0,
2025-08-14T22:45:23.157Z,3,GR86-010-16,7.4,0.222,0.298,99.94,3.0,,0.0,0.0,
2025-08-14T22:45:23.201Z,3,GR86-010-16,7.4,0.217,0.303,99.95,3.0,,0.0,0.0,
2025-08-14T22:45:23.245Z,3,GR86-010-16,7.4,0.21,0.281,99.94,3.0,6154.0,0.0,0.0,
2025-08-14T22:45:23.288Z,3,GR86-010-16,7.4,0.192,0.274,99.95,3.0,,0.0,0.0,131.18
2025-08-14T22:45:23.331Z,3,GR86-010-16,7.4,0.184,0.27,99.94,3.0,,0.0,0.0,
2025-08-14T22:45:23.374Z,3,GR86-010-16,7.4,0.218,0.265,99.95,3.0,,0.0,0.0,
2025-08-14T22:45:23.417Z,3,GR86-010-16,7.4,0.222,0.251,99.94,3.0,,0.0,0.0,
2025-08-14T22:45:23.461Z,3,GR86-010-16,7.4,0.213,0.235,99.94,3.0,6261.0,0.0,0.0,
2025-08-14T22:45:23.503Z,3,GR86-010-16,7.0,0.199,0.205,99.94,3.0,,0.0,0.0,132.52
2025-08-14T22:45:23.546Z,3,GR86-010-16,6.1000000000000005,0.174,0.193,99.96,3.0,,0.0,0.0,
2025-08-14T22:45:23.589Z,3,GR86-010-16,5.1000000000000005,0.193,0.19,99.94,3.0,,0.0,0.0,
2025-08-14T22:45:23.632Z,3,GR86-010-16,4.0,0.215,0.157,99.94,3.0,,0.0,0.0,
2025-08-14T22:45:23.675Z,3,GR86-010-16,3.2,0.198,0.133,99.95,3.0,6326.0,0.0,0.0,
2025-08-14T22:45:23.718Z,3,GR86-010-16,2.7,0.174,0.113,99.94,3.0,,0.0,0.0,133.92000000000002
2025-08-14T22:45:23.762Z,3,GR86-010-16,2.1,0.188,0.074,99.94,3.0,,0.0,0.0,
2025-08-14T22:45:23.805Z,3,GR86-010-16,1.2000000000000002,0.164,0.057,99.95,3.0,,0.0,0.0,
2025-08-14T22:45:23.848Z,3,GR86-010-16,0.1,0.203,0.037,99.95,3.0,,0.0,0.0,
2025-08-14T22:45:23.892Z,3,GR86-010-16,-1.1,0.207,-0.008,99.94,3.0,6380.0,0.0,0.0,
2025-08-14T22:45:23.934Z,3,GR86-010-16,-2.6,0.186,-0.031,99.96,3.0,,0.0,0.0,136.81
2025-08-14T22:45:23.977Z,3,GR86-010-16,-4.3,0.166,-0.047,99.95,3.0,,0.0,0.0,
2025-08-14T22:45:24.022Z,3,GR86-010-16,-6.7,0.177,-0.094,99.95,3.0,,0.0,0.0,
2025-08-14T22:45:24.065Z,3,GR86-010-16,-7.6,0.17,-0.132,99.95,3.0,,0.0,0.0,
2025-08-14T22:45:24.108Z,3,GR86-010-16,-7.800000000000001,0.191,-0.165,99.95,3.0,6401.0,0.0,0.0,
2025-08-14T22:45:24.151Z,3,GR86-010-16,-7.800000000000001,0.21,-0.194,99.95,3.0,,0.0,0.0,138.15
2025-08-14T22:45:24.194Z,3,GR86-010-16,-7.800000000000001,0.176,-0.232,99.96,3.0,,0.0,0.0,
2025-08-14T22:45:24.237Z,3,GR86-010-16,-7.800000000000001,0.16,-0.252,99.94,3.0,,0.0,0.0,
2025-08-14T22:45:24.281Z,3,GR86-010-16,-7.800000000000001,0.179,-0.286,99.96,3.0,,0.0,0.0,
2025-08-14T22:45:24.324Z,3,GR86-010-16,-7.800000000000001,0.164,-0.268,99.96,3.0,6577.0,0.0,0.0,
2025-08-14T22:45:24.367Z,3,GR86-010-16,-7.800000000000001,0.173,-0.264,99.95,3.0,,0.0,0.0,139.54
2025-08-14T22:45:24.410Z,3,GR86-010-16,-7.800000000000001,0.205,-0.242,99.94,3.0,,0.0,0.0,
2025-08-14T22:45:24.453Z,3,GR86-010-16,-7.800000000000001,0.171,-0.246,99.95,3.0,,0.0,0.0,
2025-08-14T22:45:24.496Z,3,GR86-010-16,-7.800000000000001,0.167,-0.244,99.94,3.0,,0.0,0.0,
2025-08-14T22:45:24.539Z,3,GR86-010-16,-7.800000000000001,0.172,-0.244,99.94,3.0,6640.0,0.0,0.0,
2025-08-14T22:45:24.582Z,3,GR86-010-16,-7.7,0.153,-0.213,99.95,3.0,,0.0,0.0,140.95000000000002
2025-08-14T22:45:24.625Z,3,GR86-010-16,-6.9,0.166,-0.209,99.96,3.0,,0.0,0.0,
2025-08-14T22:45:24.668Z,3,GR86-010-16,-5.9,0.201,-0.184,99.96,3.0,,0.0,0.0,
2025-08-14T22:45:24.711Z,3,GR86-010-16,-4.6000000000000005,0.207,-0.18,99.95,3.0,,0.0,0.0,
2025-08-14T22:45:24.754Z,3,GR86-010-16,-3.9,0.178,-0.152,99.96,3.0,6712.0,0.0,0.0,
2025-08-14T22:45:24.797Z,3,GR86-010-16,-3.8,0.162,-0.133,99.94,3.0,,0.0,0.0,142.20000000000002
2025-08-14T22:45:24.841Z,3,GR86-010-16,-3.8,0.174,-0.09,99.94,3.0,,0.0,0.0,
2025-08-14T22:45:24.884Z,3,GR86-010-16,-3.4000000000000004,0.168,-0.063,99.94,3.0,,0.0,0.0,
2025-08-14T22:45:24.927Z,3,GR86-010-16,-2.6,0.179,-0.027,99.95,3.0,,0.0,0.0,
2025-08-14T22:45:24.970Z,3,GR86-010-16,-1.4,0.191,-0.021,99.95,3.0,6718.0,0.0,0.0,
2025-08-14T22:45:25.013Z,3,GR86-010-16,-0.8,0.199,0.005,99.95,3.0,,0.0,0.0,143.63
2025-08-14T22:45:25.057Z,3,GR86-010-16,-0.4,0.175,0.017,99.95,3.0,,0.0,0.0,
2025-08-14T22:45:25.100Z,3,GR86-010-16,-0.2,0.187,0.025,99.96,3.0,,0.0,0.0,
2025-08-14T22:45:25.143Z,3,GR86-010-16,-0.2,0.167,0.046,99.95,3.0,,0.0,0.0,
2025-08-14T22:45:25.186Z,3,GR86-010-16,-0.2,0.161,0.073,99.96,3.0,6817.0,0.0,0.0,
2025-08-14T22:45:25.231Z,3,GR86-010-16,0.1,0.177,0.077,99.94,3.0,,0.0,0.0,144.99
2025-08-14T22:45:25.275Z,3,GR86-010-16,0.3,0.201,0.067,99.97,3.0,,0.0,0.0,
2025-08-14T22:45:25.318Z,3,GR86-010-16,0.3,0.202,0.067,99.96,3.0,,0.0,0.0,
2025-08-14T22:45:25.362Z,3,GR86-010-16,0.3,0.196,0.096,99.97,3.0,,0.0,0.0,
2025-08-14T22:45:25.405Z,3,GR86-010-16,0.3,0.183,0.091,99.94,3.0,6886.0,0.0,0.0,
2025-08-14T22:45:25.448Z,3,GR86-010-16,0.3,0.169,0.095,99.94,3.0,,0.0,0.0,146.4
2025-08-14T22:45:25.491Z,3,GR86-010-16,0.3,0.169,0.11,99.97,3.0,,0.0,0.0,
2025-08-14T22:45:25.534Z,3,GR86-010-16,0.3,0.183,0.113,99.95,3.0,,0.0,0.0,
2025-08-14T22:45:25.577Z,3,GR86-010-16,0.3,0.184,0.107,99.96,3.0,,0.0,0.0,
2025-08-14T22:45:25.622Z,3,GR86-010-16,0.3,0.164,0.107,99.94,3.0,6941.0,0.0,0.0,
2025-08-14T22:45:25.665Z,3,GR86-010-16,0.3,0.189,0.092,99.97,3.0,,0.0,0.0,147.75
2025-08-14T22:45:25.708Z,3,GR86-010-16,0.3,0.198,0.078,99.95,3.0,,0.0,0.0,
2025-08-14T22:45:25.752Z,3,GR86-010-16,0.3,0.169,0.048,77.84,3.0,,4.565,4.96,
2025-08-14T22:45:25.795Z,3,GR86-010-16,0.3,0.132,0.053,10.3,3.0,,11.035,11.185,
2025-08-14T22:45:25.838Z,3,GR86-010-16,0.3,-0.105,0.063,5.22,3.0,7007.0,15.275,15.305,
2025-08-14T22:45:25.882Z,3,GR86-010-16,0.3,-0.291,0.066,4.5200000000000005,4.0,,25.025,24.95,148.98
2025-08-14T22:45:25.925Z,3,GR86-010-16,0.3,0.041,0.02,4.25,4.0,,25.15,25.485,
2025-08-14T22:45:25.968Z,3,GR86-010-16,0.3,-0.445,0.034,3.89,4.0,,19.73,20.965,
2025-08-14T22:45:26.011Z,3,GR86-010-16,0.3,-0.34,0.039,3.39,4.0,,13.855,15.06,
2025-08-14T22:45:26.054Z,3,GR86-010-16,0.3,-0.552,-0.031,3.1,4.0,7009.0,10.715,11.84,
2025-08-14T22:45:26.097Z,3,GR86-010-16,0.3,-0.263,0.004,2.89,4.0,,10.5,11.245,150.25
2025-08-14T22:45:26.141Z,3,GR86-010-16,0.3,-0.246,-0.034,2.73,4.0,,10.15,10.805,
2025-08-14T22:45:26.183Z,3,GR86-010-16,0.3,-0.31,-0.017,2.69,4.0,,9.78,10.5,
2025-08-14T22:45:26.226Z,3,GR86-010-16,0.3,-0.347,-0.007,2.66,4.0,,10.18,10.835,
2025-08-14T22:45:26.269Z,3,GR86-010-16,0.3,-0.32,-0.012,2.64,4.0,6145.0,11.215,11.46,
2025-08-14T22:45:26.312Z,3,GR86-010-16,0.3,-0.288,-0.002,2.62,4.0,,11.615,11.81,150.94
2025-08-14T22:45:26.355Z,3,GR86-010-16,0.3,-0.28,-0.022,2.59,4.0,,11.615,12.145,
2025-08-14T22:45:26.398Z,3,GR86-010-16,0.3,-0.306,-0.006,2.59,4.0,,12.085,12.42,
2025-08-14T22:45:26.442Z,3,GR86-010-16,0.3,-0.294,-0.016,2.56,4.0,,13.765,14.025,
2025-08-14T22:45:26.485Z,3,GR86-010-16,0.3,-0.316,0.005,2.56,4.0,5747.0,14.24,14.545,
2025-08-14T22:45:26.528Z,3,GR86-010-16,0.3,-0.361,0.008,2.56,4.0,,14.91,15.03,147.43
2025-08-14T22:45:26.571Z,3,GR86-010-16,0.3,-0.366,0.04,2.5500000000000003,4.0,,16.22,16.345,
2025-08-14T22:45:26.614Z,3,GR86-010-16,0.3,-0.346,0.023,2.5500000000000003,4.0,,17.335,17.395,
2025-08-14T22:45:26.657Z,3,GR86-010-16,0.3,-0.357,0.005,2.56,4.0,,17.990000000000002,18.115,
2025-08-14T22:45:26.700Z,3,GR86-010-16,0.3,-0.362,-0.004,2.53,4.0,5620.0,18.83,19.045,
2025-08-14T22:45:26.743Z,3,GR86-010-16,0.3,-0.38,-0.01,2.53,4.0,,19.73,19.87,145.35
2025-08-14T22:45:26.786Z,3,GR86-010-16,0.3,-0.431,0.016,2.53,4.0,,20.51,20.51,
2025-08-14T22:45:26.829Z,3,GR86-010-16,0.3,-0.436,0.025,2.53,4.0,,20.66,20.815,
2025-08-14T22:45:26.872Z,3,GR86-010-16,0.3,-0.392,0.024,2.53,4.0,,20.66,20.875,
2025-08-14T22:45:26.915Z,3,GR86-010-16,0.3,-0.387,-0.007,2.53,4.0,5567.0,20.725,20.875,
2025-08-14T22:45:27.001Z,3,GR86-010-16,0.3,-0.433,-0.011,2.52,4.0,,20.6,20.845,142.75
2025-08-14T22:45:27.044Z,3,GR86-010-16,0.3,-0.419,-0.008,2.51,4.0,,14.33,15.535,
2025-08-14T22:45:27.087Z,3,GR86-010-16,0.3,-0.337,0.002,2.5,4.0,,11.935,12.955,
2025-08-14T22:45:27.130Z,3,GR86-010-16,0.3,-0.285,-0.032,2.52,4.0,5299.0,11.55,12.5,
2025-08-14T22:45:27.173Z,3,GR86-010-16,0.3,-0.297,-0.014,2.5,4.0,,11.58,12.45,139.94
2025-08-14T22:45:27.216Z,3,GR86-010-16,0.3,-0.315,0.007,2.5,4.0,,11.87,12.5,
2025-08-14T22:45:27.259Z,3,GR86-010-16,0.3,-0.304,0.029,2.5,4.0,,11.905,12.53,
2025-08-14T22:45:27.302Z,3,GR86-010-16,0.3,-0.333,0.025,2.49,4.0,,11.58,12.5,
2025-08-14T22:45:27.345Z,3,GR86-010-16,0.3,-0.272,0.015,2.49,4.0,5266.0,11.43,12.36,
2025-08-14T22:45:27.388Z,3,GR86-010-16,0.3,-0.281,-0.011,2.49,4.0,,11.37,12.145,137.24
2025-08-14T22:45:27.431Z,3,GR86-010-16,0.3,-0.314,0.007,2.5,4.0,,10.775,11.81,
2025-08-14T22:45:27.474Z,3,GR86-010-16,0.3,-0.296,0.028,2.52,4.0,,9.49,10.59,
2025-08-14T22:45:27.517Z,3,GR86-010-16,0.3,-0.239,-0.001,2.53,4.0,,7.495,8.36,
2025-08-14T22:45:27.561Z,3,GR86-010-16,0.3,-0.206,-0.009,2.5500000000000003,4.0,5139.0,6.865,7.495,
2025-08-14T22:45:27.603Z,3,GR86-010-16,0.3,-0.219,-0.022,2.5500000000000003,4.0,,7.0200000000000005,7.525,134.95
2025-08-14T22:45:27.646Z,3,GR86-010-16,0.3,-0.251,-0.003,2.6,4.0,,7.37,7.8,
2025-08-14T22:45:27.689Z,3,GR86-010-16,0.3,-0.228,0.006,2.63,4.0,,7.705,7.95,
2025-08-14T22:45:27.732Z,3,GR86-010-16,0.3,-0.214,-0.024,2.63,4.0,,7.705,7.98,
2025-08-14T22:45:27.775Z,3,GR86-010-16,0.3,-0.235,-0.022,2.65,4.0,5067.0,7.705,8.120000000000001,
2025-08-14T22:45:27.818Z,3,GR86-010-16,0.3,-0.241,-0.004,2.73,4.0,,7.765000000000001,8.24,132.94
2025-08-14T22:45:27.861Z,3,GR86-010-16,0.3,-0.265,-0.01,3.42,4.0,,7.765000000000001,8.09,
2025-08-14T22:45:27.904Z,3,GR86-010-16,0.3,-0.225,-0.017,3.54,4.0,,7.37,7.95,
2025-08-14T22:45:27.947Z,3,GR86-010-16,0.3,-0.19,-0.033,3.54,4.0,,5.11,5.8,
2025-08-14T22:45:27.990Z,3,GR86-010-16,0.3,-0.185,-0.006,3.3200000000000003,4.0,5049.0,2.4250000000000003,2.975,
2025-08-14T22:45:28.033Z,3,GR86-010-16,0.3,-0.15,-0.022,3.23,4.0,,0.0,0.0,131.32
2025-08-14T22:45:28.076Z,3,GR86-010-16,0.3,-0.122,-0.04,3.1,4.0,,0.0,0.0,
2025-08-14T22:45:28.122Z,3,GR86-010-16,0.3,-0.123,-0.051,10.21,4.0,,0.0,0.0,
2025-08-14T22:45:28.165Z,3,GR86-010-16,0.3,-0.121,-0.038,22.09,4.0,,0.0,0.0,
2025-08-14T22:45:28.208Z,3,GR86-010-16,-0.1,-0.122,-0.039,29.95,4.0,5001.0,0.0,0.0,
2025-08-14T22:45:28.251Z,3,GR86-010-16,-0.7000000000000001,-0.06,-0.041,33.33,4.0,,0.0,0.0,129.78
2025-08-14T22:45:28.294Z,3,GR86-010-16,-1.1,-0.068,-0.045,34.96,4.0,,0.0,0.0,
2025-08-14T22:45:28.337Z,3,GR86-010-16,-1.1,-0.006,-0.061,34.800000000000004,4.0,,0.0,0.0,
2025-08-14T22:45:28.382Z,3,GR86-010-16,-1.2000000000000002,0.315,-0.078,28.76,4.0,,0.0,0.0,
2025-08-14T22:45:28.425Z,3,GR86-010-16,-1.2000000000000002,0.092,-0.07,30.69,4.0,4905.0,0.0,0.0,
2025-08-14T22:45:28.468Z,3,GR86-010-16,-1.2000000000000002,-0.006,-0.077,37.5,4.0,,0.0,0.0,128.32
2025-08-14T22:45:28.511Z,3,GR86-010-16,-1.2000000000000002,0.085,-0.082,39.16,4.0,,0.0,0.0,
2025-08-14T22:45:28.554Z,3,GR86-010-16,-1.2000000000000002,0.17,-0.078,39.29,4.0,,0.0,0.0,
2025-08-14T22:45:28.597Z,3,GR86-010-16,-1.2000000000000002,0.165,-0.085,41.68,4.0,,0.0,0.0,
2025-08-14T22:45:28.641Z,3,GR86-010-16,-1.2000000000000002,0.098,-0.081,48.88,4.0,5151.0,0.0,0.0,
2025-08-14T22:45:28.684Z,3,GR86-010-16,-1.2000000000000002,0.132,-0.093,49.120000000000005,4.0,,0.0,0.0,127.61
2025-08-14T22:45:28.727Z,3,GR86-010-16,-1.2000000000000002,0.167,-0.068,48.36,4.0,,0.0,0.0,
2025-08-14T22:45:28.770Z,3,GR86-010-16,-1.2000000000000002,0.14,-0.074,48.21,4.0,,0.0,0.0,
2025-08-14T22:45:28.813Z,3,GR86-010-16,-1.2000000000000002,0.145,-0.068,46.89,4.0,,0.0,0.0,
2025-08-14T22:45:28.856Z,3,GR86-010-16,-1.2000000000000002,0.141,-0.077,44.78,4.0,5096.0,0.0,0.0,
2025-08-14T22:45:28.901Z,3,GR86-010-16,-1.2000000000000002,0.157,-0.071,45.16,4.0,,0.0,0.0,127.65
2025-08-14T22:45:28.945Z,3,GR86-010-16,-1.3,0.148,-0.078,45.4,4.0,,0.0,0.0,
2025-08-14T22:45:28.988Z,3,GR86-010-16,-1.5,0.124,-0.085,45.99,4.0,,0.0,0.0,
2025-08-14T22:45:29.031Z,3,GR86-010-16,-1.5,0.139,-0.104,47.0,4.0,,0.0,0.0,
2025-08-14T22:45:29.074Z,3,GR86-010-16,-1.5,0.141,-0.095,47.41,4.0,5058.0,0.0,0.0,
2025-08-14T22:45:29.117Z,3,GR86-010-16,-1.5,0.136,-0.076,47.42,4.0,,0.0,0.0,128.41
2025-08-14T22:45:29.161Z,3,GR86-010-16,-1.5,0.137,-0.074,46.75,4.0,,0.0,0.0,
2025-08-14T22:45:29.204Z,3,GR86-010-16,-1.5,0.146,-0.073,46.02,4.0,,0.0,0.0,
2025-08-14T22:45:29.247Z,3,GR86-010-16,-1.5,0.147,-0.071,46.68,4.0,,0.0,0.0,
2025-08-14T22:45:29.292Z,3,GR86-010-16,-1.5,0.147,-0.065,49.25,4.0,5085.0,0.0,0.0,
2025-08-14T22:45:29.335Z,3,GR86-010-16,-1.5,0.128,-0.057,52.32,4.0,,0.0,0.0,130.37
2025-08-14T22:45:29.379Z,3,GR86-010-16,-1.5,0.151,-0.064,54.02,4.0,,0.0,0.0,
2025-08-14T22:45:29.422Z,3,GR86-010-16,-1.5,0.157,-0.044,57.06,4.0,,0.0,0.0,
2025-08-14T22:45:29.465Z,3,GR86-010-16,-1.5,0.164,-0.042,71.17,4.0,,0.0,0.0,
2025-08-14T22:45:29.508Z,3,GR86-010-16,-1.5,0.161,-0.039,97.67,4.0,5149.0,0.0,0.0,
2025-08-14T22:45:29.551Z,3,GR86-010-16,-1.5,0.153,-0.036,99.93,4.0,,0.0,0.0,131.36
2025-08-14T22:45:29.594Z,3,GR86-010-16,-1.5,0.176,-0.047,99.94,4.0,,0.0,0.0,
2025-08-14T22:45:29.637Z,3,GR86-010-16,-1.5,0.159,-0.034,99.93,4.0,,0.0,0.0,
2025-08-14T22:45:29.681Z,3,GR86-010-16,-1.5,0.171,-0.035,99.94,4.0,,0.0,0.0,
2025-08-14T22:45:29.725Z,3,GR86-010-16,-1.5,0.165,-0.032,99.92,4.0,5203.0,0.0,0.0,
2025-08-14T22:45:29.768Z,3,GR86-010-16,-1.5,0.151,-0.022,99.94,4.0,,0.0,0.0,132.3
2025-08-14T22:45:29.811Z,3,GR86-010-16,-1.5,0.166,-0.024,99.93,4.0,,0.0,0.0,
2025-08-14T22:45:29.854Z,3,GR86-010-16,-1.5,0.166,-0.02,99.94,4.0,,0.0,0.0,
2025-08-14T22:45:29.897Z,3,GR86-010-16,-1.5,0.151,-0.016,82.72,4.0,,0.0,0.0,
2025-08-14T22:45:29.941Z,3,GR86-010-16,-1.5,0.161,-0.021,64.24,4.0,5285.0,0.0,0.0,
2025-08-14T22:45:29.984Z,3,GR86-010-16,-1.5,0.153,-0.012,58.31,4.0,,0.0,0.0,133.39
2025-08-14T22:45:30.027Z,3,GR86-010-16,-1.5,0.166,-0.015,62.07,4.0,,0.0,0.0,
2025-08-14T22:45:30.070Z,3,GR86-010-16,-1.5,0.167,-0.017,69.54,4.0,,0.0,0.0,
2025-08-14T22:45:30.113Z,3,GR86-010-16,-1.5,0.152,-0.014,74.21000000000001,4.0,,0.0,0.0,
2025-08-14T22:45:30.156Z,3,GR86-010-16,-1.5,0.145,-0.004,79.22,4.0,5290.0,0.0,0.0,
2025-08-14T22:45:30.199Z,3,GR86-010-16,-1.5,0.169,-0.006,80.25,4.0,,0.0,0.0,134.55
2025-08-14T22:45:30.242Z,3,GR86-010-16,-1.5,0.147,-0.018,68.60000000000001,4.0,,0.0,0.0,
2025-08-14T22:45:30.285Z,3,GR86-010-16,-1.5,0.163,-0.014,52.14,4.0,,0.0,0.0,
2025-08-14T22:45:30.328Z,3,GR86-010-16,-1.5,0.184,-0.03,33.84,4.0,,0.0,0.0,
2025-08-14T22:45:30.372Z,3,GR86-010-16,-1.5,0.145,-0.023,20.89,4.0,5333.0,0.0,0.0,
2025-08-14T22:45:30.415Z,3,GR86-010-16,-1.5,0.101,0.003,4.63,4.0,,0.0,1.83,135.74
2025-08-14T22:45:30.458Z,3,GR86-010-16,-1.5,0.068,-0.012,3.95,4.0,,0.0,2.015,
2025-08-14T22:45:30.501Z,3,GR86-010-16,-1.5,-0.119,0.014,3.4,4.0,,5.74,5.8,
2025-08-14T22:45:30.544Z,3,GR86-010-16,-1.5,-0.181,-0.007,3.13,4.0,,9.31,9.4,
2025-08-14T22:45:30.587Z,3,GR86-010-16,-1.5,-0.418,-0.027,2.93,4.0,5382.0,13.045,13.11,
2025-08-14T22:45:30.631Z,3,GR86-010-16,-1.5,-0.329,0.016,2.81,4.0,,15.99,15.84,136.78
2025-08-14T22:45:30.675Z,3,GR86-010-16,-1.5,-0.249,-0.021,2.75,4.0,,16.435,16.68,
2025-08-14T22:45:30.718Z,3,GR86-010-16,-1.5,-0.285,-0.033,2.71,4.0,,16.085,16.68,
2025-08-14T22:45:30.762Z,3,GR86-010-16,-1.5,-0.345,-0.024,2.65,4.0,,15.75,16.22,
2025-08-14T22:45:30.805Z,3,GR86-010-16,-1.5,-0.348,-0.028,2.62,4.0,5158.0,15.75,16.055,
2025-08-14T22:45:30.848Z,3,GR86-010-16,-1.2000000000000002,-0.357,0.008,2.59,4.0,,15.72,15.99,137.67000000000002
2025-08-14T22:45:30.891Z,3,GR86-010-16,-1.1,-0.332,0.003,2.57,4.0,,15.75,15.99,
2025-08-14T22:45:30.934Z,3,GR86-010-16,-1.1,-0.33,-0.017,2.56,4.0,,15.565,15.99,
2025-08-14T22:45:31.022Z,3,GR86-010-16,-1.1,-0.334,0.003,2.52,4.0,5168.0,15.395,15.96,
2025-08-14T22:45:31.065Z,3,GR86-010-16,-1.1,-0.365,0.029,2.5,4.0,,15.395,15.655,136.68
2025-08-14T22:45:31.108Z,3,GR86-010-16,-1.1,-0.359,0.025,2.49,4.0,,15.215,15.655,
2025-08-14T22:45:31.152Z,3,GR86-010-16,-1.1,-0.307,0.007,2.48,4.0,,14.51,15.185,
2025-08-14T22:45:31.195Z,3,GR86-010-16,-1.1,-0.326,0.026,2.47,4.0,,13.245,14.27,
2025-08-14T22:45:31.238Z,3,GR86-010-16,-1.1,-0.302,0.031,2.48,4.0,5102.0,12.59,13.46,
2025-08-14T22:45:31.282Z,3,GR86-010-16,-1.1,-0.324,0.023,2.47,4.0,,12.115,12.895,134.24
2025-08-14T22:45:31.324Z,3,GR86-010-16,-1.1,-0.278,-0.007,2.47,4.0,,10.53,11.46,
2025-08-14T22:45:31.367Z,3,GR86-010-16,-1.1,-0.259,-0.007,2.47,4.0,,6.3,7.17,
2025-08-14T22:45:31.410Z,3,GR86-010-16,-1.1,-0.186,0.017,2.53,4.0,,2.015,2.64,
2025-08-14T22:45:31.453Z,3,GR86-010-16,-1.1,-0.135,0.007,2.63,4.0,5015.0,0.0,0.0,
2025-08-14T22:45:31.496Z,3,GR86-010-16,-1.1,-0.109,-0.009,4.38,4.0,,0.0,0.0,131.77
2025-08-14T22:45:31.539Z,3,GR86-010-16,-1.1,-0.121,0.001,12.6,4.0,,0.0,0.0,
2025-08-14T22:45:31.582Z,3,GR86-010-16,-1.1,-0.127,0.003,16.57,4.0,,0.0,0.0,
2025-08-14T22:45:31.625Z,3,GR86-010-16,-1.1,-0.108,0.011,16.77,4.0,,0.0,0.0,
2025-08-14T22:45:31.668Z,3,GR86-010-16,-1.1,-0.049,0.006,16.88,4.0,4944.0,0.0,0.0,
2025-08-14T22:45:31.711Z,3,GR86-010-16,-1.1,-0.074,0.01,17.09,4.0,,0.0,0.0,129.71
2025-08-14T22:45:31.754Z,3,GR86-010-16,-1.1,-0.068,0.011,17.12,4.0,,0.0,0.0,
2025-08-14T22:45:31.797Z,3,GR86-010-16,-1.1,-0.006,0.013,12.23,4.0,,0.0,0.0,
2025-08-14T22:45:31.841Z,3,GR86-010-16,-1.1,0.054,0.016,7.73,4.0,,0.0,0.0,
2025-08-14T22:45:31.883Z,3,GR86-010-16,-1.1,-0.05,0.003,7.930000000000001,4.0,4936.0,0.0,0.0,
2025-08-14T22:45:31.926Z,3,GR86-010-16,-1.1,-0.075,0.01,6.28,4.0,,0.0,0.0,127.46
2025-08-14T22:45:31.969Z,3,GR86-010-16,-1.1,-0.061,0.013,3.8,4.0,,3.19,3.31,
2025-08-14T22:45:32.012Z,3,GR86-010-16,-1.1,-0.092,0.016,3.67,4.0,,4.335,4.5,
2025-08-14T22:45:32.055Z,3,GR86-010-16,-1.1,-0.251,0.016,3.45,4.0,,5.8,6.03,
2025-08-14T22:45:32.098Z,3,GR86-010-16,-1.1,-0.253,0.003,3.22,4.0,4952.0,8.76,8.975,
2025-08-14T22:45:32.142Z,3,GR86-010-16,-1.1,-0.234,0.005,2.97,4.0,,13.11,13.14,126.99
2025-08-14T22:45:32.185Z,3,GR86-010-16,-1.1,-0.252,-0.022,2.88,4.0,,14.055,14.24,
2025-08-14T22:45:32.228Z,3,GR86-010-16,-1.1,-0.321,-0.024,25.2,4.0,,14.115,14.51,
2025-08-14T22:45:32.271Z,3,GR86-010-16,-1.1,-0.332,-0.002,70.78,4.0,,14.085,14.33,
2025-08-14T22:45:32.314Z,3,GR86-010-16,-1.1,-0.269,-0.023,99.58,4.0,4867.0,14.635,14.635,
2025-08-14T22:45:32.357Z,3,GR86-010-16,-1.1,-0.261,-0.046,96.28,4.0,,14.635,14.94,126.6
2025-08-14T22:45:32.400Z,3,GR86-010-16,-1.1,0.226,-0.089,19.06,4.0,,14.36,14.605,
2025-08-14T22:45:32.443Z,3,GR86-010-16,-1.1,-0.08,-0.01,3.8,4.0,,14.36,14.725,
2025-08-14T22:45:32.486Z,3,GR86-010-16,-1.1,-0.346,-0.023,3.2,4.0,,14.88,14.97,
2025-08-14T22:45:32.529Z,3,GR86-010-16,-1.1,-0.516,-0.071,3.01,4.0,4790.0,18.205,18.205,
2025-08-14T22:45:32.572Z,3,GR86-010-16,-1.1,-0.48,-0.011,2.91,4.0,,22.995,22.815,124.72
2025-08-14T22:45:32.615Z,3,GR86-010-16,-1.1,-0.353,-0.015,2.82,4.0,,23.805,24.02,
2025-08-14T22:45:32.658Z,3,GR86-010-16,-1.1,-0.404,-0.069,2.75,4.0,,21.06,21.96,
2025-08-14T22:45:32.701Z,3,GR86-010-16,-1.1,-0.309,-0.045,2.67,4.0,,10.895,11.965,
2025-08-14T22:45:32.744Z,3,GR86-010-16,-1.1,-0.323,-0.056,2.65,4.0,4470.0,9.49,9.905,
2025-08-14T22:45:32.787Z,3,GR86-010-16,-1.1,-0.252,-0.043,2.63,4.0,,9.37,9.72,123.02
2025-08-14T22:45:32.830Z,3,GR86-010-16,-1.1,-0.23,-0.052,2.61,4.0,,9.155,9.46,
2025-08-14T22:45:32.873Z,3,GR86-010-16,-1.1,-0.239,-0.023,2.58,4.0,,8.15,8.91,
2025-08-14T22:45:32.916Z,3,GR86-010-16,-1.1,-0.224,-0.03,18.45,4.0,,8.455,8.975,
2025-08-14T22:45:32.959Z,3,GR86-010-16,-1.1,-0.261,-0.05,64.11,4.0,4520.0,9.065,9.31,
2025-08-14T22:45:33.002Z,3,GR86-010-16,-1.1,-0.259,-0.032,99.84,4.0,,11.55,11.675,120.82
2025-08-14T22:45:33.045Z,3,GR86-010-16,-1.1,-0.219,-0.023,72.79,4.0,,14.115,14.115,
2025-08-14T22:45:33.088Z,3,GR86-010-16,-1.1,-0.238,-0.089,7.74,4.0,,15.155,15.305,
2025-08-14T22:45:33.131Z,3,GR86-010-16,-1.4,-0.302,-0.027,4.87,3.0,,15.75,15.81,
2025-08-14T22:45:33.174Z,3,GR86-010-16,-1.5,-0.27,-0.023,4.43,3.0,4547.0,16.145,16.315,
2025-08-14T22:45:33.218Z,3,GR86-010-16,-1.5,-0.481,-0.119,4.08,3.0,,16.405,16.65,118.95
2025-08-14T22:45:33.261Z,3,GR86-010-16,-2.0,-0.373,-0.067,3.3200000000000003,3.0,,17.215,17.335,
2025-08-14T22:45:33.304Z,3,GR86-010-16,-2.1,-0.324,-0.12,3.1,3.0,,17.52,17.745,
2025-08-14T22:45:33.347Z,3,GR86-010-16,-2.8000000000000003,-0.307,-0.14,2.93,3.0,,17.185,17.52,
2025-08-14T22:45:33.390Z,3,GR86-010-16,-4.7,-0.367,-0.123,2.81,3.0,5205.0,16.495,16.94,
2025-08-14T22:45:33.476Z,3,GR86-010-16,-7.300000000000001,-0.363,-0.175,2.74,3.0,,14.025,15.06,117.32
2025-08-14T22:45:33.562Z,3,GR86-010-16,-11.6,-0.321,-0.206,2.63,3.0,,12.59,13.245,
2025-08-14T22:45:33.605Z,3,GR86-010-16,-13.1,-0.266,-0.283,59.47,3.0,5261.0,10.18,11.095,
2025-08-14T22:45:33.648Z,3,GR86-010-16,-13.6,-0.302,-0.256,98.31,3.0,,10.27,11.035,115.29
2025-08-14T22:45:33.691Z,3,GR86-010-16,-14.1,-0.266,-0.285,99.92,3.0,,10.27,11.095,
2025-08-14T22:45:33.734Z,3,GR86-010-16,-14.3,-0.233,-0.361,86.11,2.0,,10.18,10.745,
2025-08-14T22:45:33.777Z,3,GR86-010-16,-14.3,-0.269,-0.38,13.83,2.0,,10.18,10.805,
2025-08-14T22:45:33.822Z,3,GR86-010-16,-14.3,-0.5730000000000001,-0.327,2.85,2.0,5081.0,10.315,10.745,
2025-08-14T22:45:33.865Z,3,GR86-010-16,-14.9,-0.342,-0.44,2.63,2.0,,10.21,10.745,112.72
2025-08-14T22:45:33.908Z,3,GR86-010-16,-17.8,-0.27,-0.426,2.59,2.0,,9.34,10.21,
2025-08-14T22:45:33.951Z,3,GR86-010-16,-22.0,-0.246,-0.425,2.57,2.0,,7.05,7.98,
2025-08-14T22:45:33.994Z,3,GR86-010-16,-25.6,-0.225,-0.502,2.56,2.0,,3.555,4.15,
2025-08-14T22:45:34.037Z,3,GR86-010-16,-27.6,-0.214,-0.502,2.54,2.0,5353.0,0.0,0.0,
2025-08-14T22:45:34.082Z,3,GR86-010-16,-28.9,-0.198,-0.55,2.53,2.0,,0.0,0.0,110.62
2025-08-14T22:45:34.125Z,3,GR86-010-16,-29.0,-0.172,-0.58,2.53,2.0,,0.0,0.0,
2025-08-14T22:45:34.168Z,3,GR86-010-16,-28.9,-0.161,-0.5740000000000001,2.53,2.0,,0.0,0.0,
2025-08-14T22:45:34.211Z,3,GR86-010-16,-29.0,-0.154,-0.618,2.52,2.0,,0.0,0.0,
2025-08-14T22:45:34.254Z,3,GR86-010-16,-29.0,-0.172,-0.643,2.52,2.0,6121.0,0.0,0.0,
2025-08-14T22:45:34.297Z,3,GR86-010-16,-29.200000000000003,-0.173,-0.638,2.51,2.0,,0.0,0.0,108.94
2025-08-14T22:45:34.341Z,3,GR86-010-16,-29.5,-0.167,-0.676,2.54,2.0,,0.0,0.0,
2025-08-14T22:45:34.384Z,3,GR86-010-16,-29.5,-0.168,-0.679,2.52,2.0,,0.0,0.0,
2025-08-14T22:45:34.427Z,3,GR86-010-16,-29.5,-0.174,-0.657,2.52,2.0,,0.0,0.0,
2025-08-14T22:45:34.470Z,3,GR86-010-16,-30.200000000000003,-0.158,-0.671,2.54,2.0,5993.0,0.0,0.0,
2025-08-14T22:45:34.513Z,3,GR86-010-16,-32.800000000000004,-0.16,-0.651,2.7,2.0,,0.0,0.0,107.06
2025-08-14T22:45:34.556Z,3,GR86-010-16,-35.300000000000004,-0.152,-0.678,3.18,2.0,,0.0,0.0,
2025-08-14T22:45:34.599Z,3,GR86-010-16,-36.7,-0.164,-0.686,4.55,2.0,,0.0,0.0,
2025-08-14T22:45:34.642Z,3,GR86-010-16,-36.7,-0.177,-0.707,18.13,2.0,,0.0,0.0,
2025-08-14T22:45:34.685Z,3,GR86-010-16,-35.6,-0.172,-0.726,22.22,2.0,5933.0,0.0,0.0,
2025-08-14T22:45:34.728Z,3,GR86-010-16,-35.1,-0.131,-0.73,23.98,2.0,,0.0,0.0,105.23
2025-08-14T22:45:34.771Z,3,GR86-010-16,-35.4,-0.093,-0.726,25.13,2.0,,0.0,0.0,
2025-08-14T22:45:34.814Z,3,GR86-010-16,-37.4,-0.071,-0.716,26.39,2.0,,0.0,0.0,
2025-08-14T22:45:34.857Z,3,GR86-010-16,-40.6,-0.077,-0.737,27.97,2.0,,0.0,0.0,
2025-08-14T22:45:34.901Z,3,GR86-010-16,-46.2,0.22,-0.737,26.81,2.0,5838.0,0.0,0.0,
2025-08-14T22:45:34.945Z,3,GR86-010-16,-49.1,0.227,-0.806,26.45,2.0,,0.0,0.0,104.18
2025-08-14T22:45:34.988Z,3,GR86-010-16,-49.8,0.134,-0.788,29.09,2.0,,0.0,0.0,
2025-08-14T22:45:35.031Z,3,GR86-010-16,-49.0,0.037,-0.794,31.39,2.0,,0.0,0.0,
2025-08-14T22:45:35.074Z,3,GR86-010-16,-47.6,0.033,-0.8170000000000001,32.57,2.0,,0.0,0.0,
2025-08-14T22:45:35.117Z,3,GR86-010-16,-46.400000000000006,0.076,-0.8230000000000001,32.62,2.0,5862.0,0.0,0.0,
2025-08-14T22:45:35.161Z,3,GR86-010-16,-42.900000000000006,0.136,-0.8210000000000001,32.68,2.0,,0.0,0.0,103.22
2025-08-14T22:45:35.204Z,3,GR86-010-16,-41.5,0.175,-0.784,32.68,2.0,,0.0,0.0,
2025-08-14T22:45:35.247Z,3,GR86-010-16,-41.6,0.159,-0.808,32.69,2.0,,0.0,0.0,
2025-08-14T22:45:35.290Z,3,GR86-010-16,-43.0,0.141,-0.801,32.68,2.0,,0.0,0.0,
2025-08-14T22:45:35.333Z,3,GR86-010-16,-44.3,0.116,-0.8160000000000001,32.64,2.0,6049.0,0.0,0.0,
2025-08-14T22:45:35.376Z,3,GR86-010-16,-44.7,0.116,-0.8210000000000001,32.47,2.0,,0.0,0.0,104.32
2025-08-14T22:45:35.422Z,3,GR86-010-16,-43.3,0.142,-0.8220000000000001,31.84,2.0,,0.0,0.0,
2025-08-14T22:45:35.465Z,3,GR86-010-16,-41.3,0.121,-0.8160000000000001,26.2,2.0,,0.0,0.0,
2025-08-14T22:45:35.508Z,3,GR86-010-16,-38.6,0.125,-0.81,16.2,2.0,,0.0,0.0,
2025-08-14T22:45:35.551Z,3,GR86-010-16,-36.9,0.124,-0.793,6.3,2.0,6071.0,0.0,0.0,
2025-08-14T22:45:35.594Z,3,GR86-010-16,-36.8,0.094,-0.775,5.76,2.0,,0.0,0.0,105.37
2025-08-14T22:45:35.637Z,3,GR86-010-16,-36.9,-0.009,-0.786,4.88,2.0,,0.0,0.0,
2025-08-14T22:45:35.681Z,3,GR86-010-16,-37.5,-0.083,-0.762,4.65,2.0,,0.0,0.0,
2025-08-14T22:45:35.725Z,3,GR86-010-16,-38.1,-0.075,-0.791,4.4,2.0,,0.0,0.0,
2025-08-14T22:45:35.768Z,3,GR86-010-16,-38.5,-0.301,-0.774,4.68,2.0,6093.0,0.0,0.0,
2025-08-14T22:45:35.811Z,3,GR86-010-16,-38.6,-0.283,-0.764,4.71,2.0,,0.0,0.0,106.31
2025-08-14T22:45:35.854Z,3,GR86-010-16,-39.0,-0.201,-0.777,4.49,2.0,,0.0,0.0,
2025-08-14T22:45:35.897Z,3,GR86-010-16,-39.8,-0.166,-0.837,4.4,2.0,,0.0,0.0,
2025-08-14T22:45:35.941Z,3,GR86-010-16,-41.1,-0.184,-0.8,4.43,2.0,,2.855,3.065,
2025-08-14T22:45:35.983Z,3,GR86-010-16,-41.400000000000006,-0.152,-0.787,4.33,2.0,5758.0,6.12,6.2700000000000005,
2025-08-14T22:45:36.027Z,3,GR86-010-16,-41.400000000000006,-0.27,-0.784,4.4,2.0,,8.73,8.700000000000001,106.36
2025-08-14T22:45:36.070Z,3,GR86-010-16,-40.6,-0.225,-0.834,4.4,2.0,,9.965,10.055,
2025-08-14T22:45:36.113Z,3,GR86-010-16,-38.400000000000006,-0.279,-0.85,4.4,2.0,,10.53,10.715,
2025-08-14T22:45:36.157Z,3,GR86-010-16,-35.9,-0.291,-0.868,4.46,2.0,,11.125,11.065,
2025-08-14T22:45:36.200Z,3,GR86-010-16,-34.800000000000004,-0.291,-0.812,4.59,2.0,5891.0,11.275,11.675,
2025-08-14T22:45:36.243Z,3,GR86-010-16,-35.0,-0.291,-0.8,4.6000000000000005,2.0,,10.68,11.065,105.57
2025-08-14T22:45:36.286Z,3,GR86-010-16,-35.7,-0.276,-0.849,4.65,2.0,,5.995,6.715,
2025-08-14T22:45:36.329Z,3,GR86-010-16,-36.4,-0.215,-0.874,4.75,2.0,,0.0,1.925,
2025-08-14T22:45:36.372Z,3,GR86-010-16,-37.0,-0.194,-0.87,4.8100000000000005,2.0,,0.0,0.0,
2025-08-14T22:45:36.415Z,3,GR86-010-16,-37.2,-0.197,-0.88,4.88,2.0,5720.0,0.0,0.0,
2025-08-14T22:45:36.458Z,3,GR86-010-16,-37.2,-0.157,-0.8270000000000001,4.9,2.0,,0.0,0.0,104.94
2025-08-14T22:45:36.501Z,3,GR86-010-16,-37.5,-0.143,-0.852,4.97,2.0,,0.0,0.0,
2025-08-14T22:45:36.544Z,3,GR86-010-16,-37.8,-0.154,-0.8190000000000001,5.0,2.0,,0.0,0.0,
2025-08-14T22:45:36.587Z,3,GR86-010-16,-38.1,-0.152,-0.812,5.0,2.0,,0.0,0.0,
2025-08-14T22:45:36.631Z,3,GR86-010-16,-39.0,-0.165,-0.797,5.03,2.0,5594.0,0.0,0.0,
2025-08-14T22:45:36.675Z,3,GR86-010-16,-40.6,-0.156,-0.792,5.03,2.0,,0.0,0.0,103.22
2025-08-14T22:45:36.718Z,3,GR86-010-16,-42.0,-0.165,-0.788,5.04,2.0,,0.0,0.0,
2025-08-14T22:45:36.762Z,3,GR86-010-16,-42.1,-0.159,-0.785,4.98,2.0,,0.0,0.0,
2025-08-14T22:45:36.805Z,3,GR86-010-16,-41.0,-0.153,-0.786,5.0,2.0,,0.0,0.0,
2025-08-14T22:45:36.848Z,3,GR86-010-16,-39.7,-0.161,-0.787,5.0,2.0,5609.0,0.0,0.0,
2025-08-14T22:45:36.891Z,3,GR86-010-16,-38.0,-0.155,-0.762,5.0,2.0,,0.0,0.0,101.62
2025-08-14T22:45:36.934Z,3,GR86-010-16,-36.6,-0.155,-0.753,5.0,2.0,,0.0,0.0,
2025-08-14T22:45:36.977Z,3,GR86-010-16,-36.2,-0.147,-0.743,5.0,2.0,,0.0,0.0,
2025-08-14T22:45:37.022Z,3,GR86-010-16,-36.4,-0.144,-0.758,5.0,2.0,,0.0,0.0,
2025-08-14T22:45:37.065Z,3,GR86-010-16,-37.0,-0.143,-0.756,5.0,2.0,5511.0,0.0,0.0,
2025-08-14T22:45:37.108Z,3,GR86-010-16,-37.5,-0.143,-0.747,5.0,2.0,,0.0,0.0,99.65
2025-08-14T22:45:37.152Z,3,GR86-010-16,-37.9,-0.148,-0.733,5.0,2.0,,0.0,0.0,
2025-08-14T22:45:37.195Z,3,GR86-010-16,-37.9,-0.147,-0.733,5.0,2.0,,0.0,0.0,
2025-08-14T22:45:37.238Z,3,GR86-010-16,-37.9,-0.155,-0.734,5.01,2.0,,0.0,0.0,
2025-08-14T22:45:37.282Z,3,GR86-010-16,-37.9,-0.15,-0.738,5.0,2.0,5484.0,0.0,0.0,
2025-08-14T22:45:37.325Z,3,GR86-010-16,-37.9,-0.135,-0.71,5.0,2.0,,0.0,0.0,97.46
2025-08-14T22:45:37.368Z,3,GR86-010-16,-37.9,-0.14,-0.6990000000000001,5.0,2.0,,0.0,0.0,
2025-08-14T22:45:37.411Z,3,GR86-010-16,-37.9,-0.138,-0.6990000000000001,5.0,2.0,,0.0,0.0,
2025-08-14T22:45:37.454Z,3,GR86-010-16,-37.9,-0.14,-0.722,5.01,2.0,,0.0,0.0,
2025-08-14T22:45:37.497Z,3,GR86-010-16,-37.9,-0.137,-0.711,5.0,2.0,5421.0,0.0,0.0,
2025-08-14T22:45:37.540Z,3,GR86-010-16,-37.9,-0.149,-0.726,5.0,2.0,,0.0,0.0,96.35
2025-08-14T22:45:37.583Z,3,GR86-010-16,-37.9,-0.147,-0.712,5.25,2.0,,0.0,0.0,
2025-08-14T22:45:37.626Z,3,GR86-010-16,-37.9,-0.132,-0.707,5.7,2.0,,0.0,0.0,
2025-08-14T22:45:37.669Z,3,GR86-010-16,-37.9,-0.137,-0.704,6.09,2.0,,0.0,0.0,
2025-08-14T22:45:37.712Z,3,GR86-010-16,-37.9,-0.13,-0.708,6.95,2.0,5367.0,0.0,0.0,
2025-08-14T22:45:37.755Z,3,GR86-010-16,-37.9,-0.133,-0.712,7.73,2.0,,0.0,0.0,95.25
2025-08-14T22:45:37.799Z,3,GR86-010-16,-37.9,-0.134,-0.704,8.17,2.0,,0.0,0.0,
2025-08-14T22:45:37.842Z,3,GR86-010-16,-37.9,-0.136,-0.6920000000000001,8.98,2.0,,0.0,0.0,
2025-08-14T22:45:37.885Z,3,GR86-010-16,-37.9,-0.12,-0.704,9.32,2.0,,0.0,0.0,
2025-08-14T22:45:37.928Z,3,GR86-010-16,-37.9,-0.1,-0.6910000000000001,9.46,2.0,5221.0,0.0,0.0,
2025-08-14T22:45:37.971Z,3,GR86-010-16,-37.9,-0.093,-0.705,9.61,2.0,,0.0,0.0,94.29
2025-08-14T22:45:38.014Z,3,GR86-010-16,-37.9,-0.1,-0.6960000000000001,10.17,2.0,,0.0,0.0,
2025-08-14T22:45:38.057Z,3,GR86-010-16,-37.9,-0.109,-0.704,10.45,2.0,,0.0,0.0,
2025-08-14T22:45:38.100Z,3,GR86-010-16,-37.9,-0.115,-0.674,16.03,2.0,,0.0,0.0,
2025-08-14T22:45:38.143Z,3,GR86-010-16,-37.9,-0.118,-0.6890000000000001,18.43,2.0,5238.0,0.0,0.0,
2025-08-14T22:45:38.186Z,3,GR86-010-16,-37.9,-0.12,-0.655,20.95,2.0,,0.0,0.0,93.39
2025-08-14T22:45:38.229Z,3,GR86-010-16,-37.9,-0.096,-0.683,22.23,2.0,,0.0,0.0,
2025-08-14T22:45:38.272Z,3,GR86-010-16,-37.9,-0.062,-0.664,22.33,2.0,,0.0,0.0,
2025-08-14T22:45:38.315Z,3,GR86-010-16,-37.9,-0.058,-0.678,22.35,2.0,,0.0,0.0,
2025-08-14T22:45:38.358Z,3,GR86-010-16,-37.9,0.058,-0.652,22.24,2.0,5128.0,0.0,0.0,
2025-08-14T22:45:38.401Z,3,GR86-010-16,-37.9,0.225,-0.663,21.91,2.0,,0.0,0.0,92.16
2025-08-14T22:45:38.444Z,3,GR86-010-16,-37.9,0.129,-0.665,22.08,2.0,,0.0,0.0,
2025-08-14T22:45:38.487Z,3,GR86-010-16,-37.9,0.045,-0.639,22.08,2.0,,0.0,0.0,
2025-08-14T22:45:38.530Z,3,GR86-010-16,-37.8,0.034,-0.652,22.09,2.0,,0.0,0.0,
2025-08-14T22:45:38.573Z,3,GR86-010-16,-37.8,0.067,-0.624,22.08,2.0,5335.0,0.0,0.0,
2025-08-14T22:45:38.616Z,3,GR86-010-16,-37.7,0.103,-0.614,22.08,2.0,,0.0,0.0,91.25
2025-08-14T22:45:38.659Z,3,GR86-010-16,-37.7,0.108,-0.606,22.08,2.0,,0.0,0.0,
2025-08-14T22:45:38.702Z,3,GR86-010-16,-37.3,0.086,-0.61,22.08,2.0,,0.0,0.0,
2025-08-14T22:45:38.745Z,3,GR86-010-16,-37.2,0.076,-0.605,22.07,2.0,,0.0,0.0,
2025-08-14T22:45:38.788Z,3,GR86-010-16,-36.7,0.07,-0.634,22.08,2.0,5189.0,0.0,0.0,
2025-08-14T22:45:38.831Z,3,GR86-010-16,-35.800000000000004,0.083,-0.614,22.08,2.0,,0.0,0.0,90.99
2025-08-14T22:45:38.874Z,3,GR86-010-16,-35.1,0.088,-0.61,22.07,2.0,,0.0,0.0,
2025-08-14T22:45:38.917Z,3,GR86-010-16,-34.4,0.089,-0.598,22.04,2.0,,0.0,0.0,
2025-08-14T22:45:38.961Z,3,GR86-010-16,-33.9,0.093,-0.5750000000000001,22.04,2.0,,0.0,0.0,
2025-08-14T22:45:39.003Z,3,GR86-010-16,-33.5,0.093,-0.5720000000000001,22.02,2.0,5290.0,0.0,0.0,
2025-08-14T22:45:39.046Z,3,GR86-010-16,-32.800000000000004,0.096,-0.559,22.0,2.0,,0.0,0.0,91.56
2025-08-14T22:45:39.091Z,3,GR86-010-16,-32.0,0.093,-0.553,21.65,2.0,,0.0,0.0,
2025-08-14T22:45:39.134Z,3,GR86-010-16,-31.3,0.096,-0.546,20.25,2.0,,0.0,0.0,
2025-08-14T22:45:39.177Z,3,GR86-010-16,-30.5,0.089,-0.518,19.42,2.0,,0.0,0.0,
2025-08-14T22:45:39.222Z,3,GR86-010-16,-29.8,0.08,-0.515,19.93,2.0,5289.0,0.0,0.0,
2025-08-14T22:45:39.265Z,3,GR86-010-16,-29.4,0.072,-0.519,20.53,2.0,,0.0,0.0,92.21
2025-08-14T22:45:39.308Z,3,GR86-010-16,-28.6,0.048,-0.505,20.73,2.0,,0.0,0.0,
2025-08-14T22:45:39.351Z,3,GR86-010-16,-27.5,0.062,-0.491,20.66,2.0,,0.0,0.0,
2025-08-14T22:45:39.394Z,3,GR86-010-16,-25.9,0.067,-0.483,20.26,2.0,,0.0,0.0,
2025-08-14T22:45:39.482Z,3,GR86-010-16,-19.700000000000003,0.068,-0.435,19.8,2.0,5323.0,0.0,0.0,92.79
2025-08-14T22:45:39.525Z,3,GR86-010-16,-16.3,0.064,-0.393,20.29,2.0,,0.0,0.0,
2025-08-14T22:45:39.568Z,3,GR86-010-16,-13.5,0.058,-0.346,20.32,2.0,,0.0,0.0,
2025-08-14T22:45:39.611Z,3,GR86-010-16,-11.1,0.059,-0.302,20.27,2.0,,0.0,0.0,
2025-08-14T22:45:39.654Z,3,GR86-010-16,-8.5,0.071,-0.264,20.2,2.0,5325.0,0.0,0.0,
2025-08-14T22:45:39.697Z,3,GR86-010-16,-6.0,0.077,-0.219,20.09,2.0,,0.0,0.0,93.38
2025-08-14T22:45:39.741Z,3,GR86-010-16,-2.2,0.08,-0.157,20.09,2.0,,0.0,0.0,
2025-08-14T22:45:39.784Z,3,GR86-010-16,-0.1,0.078,-0.097,20.13,2.0,,0.0,0.0,
2025-08-14T22:45:39.827Z,3,GR86-010-16,1.2000000000000002,0.071,-0.062,19.91,2.0,,0.0,0.0,
2025-08-14T22:45:39.870Z,3,GR86-010-16,2.7,0.072,-0.005,19.57,2.0,5387.0,0.0,0.0,
2025-08-14T22:45:39.913Z,3,GR86-010-16,3.9,0.063,0.024,19.33,2.0,,0.0,0.0,93.85
2025-08-14T22:45:39.956Z,3,GR86-010-16,5.0,0.06,0.065,18.68,2.0,,0.0,0.0,
2025-08-14T22:45:39.999Z,3,GR86-010-16,5.6000000000000005,0.053,0.083,14.92,2.0,,0.0,0.0,
2025-08-14T22:45:40.042Z,3,GR86-010-16,5.9,0.07,0.109,12.25,2.0,,0.0,0.0,
2025-08-14T22:45:40.085Z,3,GR86-010-16,5.9,0.044,0.132,12.41,2.0,5417.0,0.0,0.0,
2025-08-14T22:45:40.128Z,3,GR86-010-16,5.9,0.012,0.138,13.72,2.0,,0.0,0.0,94.81
2025-08-14T22:45:40.171Z,3,GR86-010-16,5.9,-0.022,0.151,14.23,2.0,,0.0,0.0,
2025-08-14T22:45:40.214Z,3,GR86-010-16,5.9,-0.038,0.153,14.46,2.0,,0.0,0.0,
2025-08-14T22:45:40.257Z,3,GR86-010-16,5.9,-0.033,0.165,14.58,2.0,,0.0,0.0,
2025-08-14T22:45:40.301Z,3,GR86-010-16,5.9,-0.035,0.171,14.86,2.0,5393.0,0.0,0.0,
2025-08-14T22:45:40.345Z,3,GR86-010-16,5.9,-0.01,0.16,15.23,2.0,,0.0,0.0,95.25
2025-08-14T22:45:40.388Z,3,GR86-010-16,5.9,0.023,0.165,16.11,2.0,,0.0,0.0,
2025-08-14T22:45:40.431Z,3,GR86-010-16,5.9,0.024,0.148,17.91,2.0,,0.0,0.0,
2025-08-14T22:45:40.474Z,3,GR86-010-16,5.9,0.015,0.145,18.73,2.0,,0.0,0.0,
2025-08-14T22:45:40.517Z,3,GR86-010-16,5.9,-0.004,0.136,19.52,2.0,5368.0,0.0,0.0,
2025-08-14T22:45:40.561Z,3,GR86-010-16,5.9,0.008,0.132,20.37,2.0,,0.0,0.0,95.44
2025-08-14T22:45:40.604Z,3,GR86-010-16,5.9,0.064,0.127,20.71,2.0,,0.0,0.0,
2025-08-14T22:45:40.648Z,3,GR86-010-16,5.9,0.093,0.132,21.22,2.0,,0.0,0.0,
2025-08-14T22:45:40.691Z,3,GR86-010-16,5.9,0.097,0.126,21.86,2.0,,0.0,0.0,
2025-08-14T22:45:40.734Z,3,GR86-010-16,5.9,0.085,0.121,22.17,2.0,5365.0,0.0,0.0,
2025-08-14T22:45:40.777Z,3,GR86-010-16,5.9,0.079,0.119,22.26,2.0,,0.0,0.0,95.24
2025-08-14T22:45:40.822Z,3,GR86-010-16,5.9,0.078,0.115,22.28,2.0,,0.0,0.0,
2025-08-14T22:45:40.865Z,3,GR86-010-16,5.9,0.101,0.104,22.28,2.0,,0.0,0.0,
2025-08-14T22:45:40.908Z,3,GR86-010-16,5.9,0.103,0.095,22.25,2.0,,0.0,0.0,
2025-08-14T22:45:40.951Z,3,GR86-010-16,5.9,0.103,0.084,22.21,2.0,5416.0,0.0,0.0,
2025-08-14T22:45:40.994Z,3,GR86-010-16,5.6000000000000005,0.099,0.079,22.18,2.0,,0.0,0.0,95.31
2025-08-14T22:45:41.037Z,3,GR86-010-16,5.5,0.107,0.074,22.17,2.0,,0.0,0.0,
2025-08-14T22:45:41.081Z,3,GR86-010-16,5.5,0.089,0.068,22.13,2.0,,0.0,0.0,
2025-08-14T22:45:41.124Z,3,GR86-010-16,5.4,0.084,0.062,22.1,2.0,,0.0,0.0,
2025-08-14T22:45:41.167Z,3,GR86-010-16,5.2,0.096,0.05,22.06,2.0,5507.0,0.0,0.0,
2025-08-14T22:45:41.210Z,3,GR86-010-16,4.7,0.094,0.05,21.96,2.0,,0.0,0.0,95.77
2025-08-14T22:45:41.253Z,3,GR86-010-16,4.7,0.099,0.051,21.89,2.0,,0.0,0.0,
2025-08-14T22:45:41.296Z,3,GR86-010-16,4.7,0.09,0.052,21.86,2.0,,0.0,0.0,
2025-08-14T22:45:41.339Z,3,GR86-010-16,4.6000000000000005,0.1,0.041,21.8,2.0,,0.0,0.0,
2025-08-14T22:45:41.382Z,3,GR86-010-16,4.5,0.085,0.039,21.73,2.0,5512.0,0.0,0.0,
2025-08-14T22:45:41.425Z,3,GR86-010-16,4.5,0.082,0.038,21.68,2.0,,0.0,0.0,96.45
2025-08-14T22:45:41.468Z,3,GR86-010-16,4.4,0.086,0.032,21.66,2.0,,0.0,0.0,
2025-08-14T22:45:41.511Z,3,GR86-010-16,4.4,0.085,0.039,21.62,2.0,,0.0,0.0,
2025-08-14T22:45:41.554Z,3,GR86-010-16,4.4,0.097,0.039,21.67,2.0,,0.0,0.0,
2025-08-14T22:45:41.597Z,3,GR86-010-16,4.4,0.089,0.048,21.68,2.0,5587.0,0.0,0.0,
2025-08-14T22:45:41.640Z,3,GR86-010-16,4.3,0.068,0.039,21.7,2.0,,0.0,0.0,97.18
2025-08-14T22:45:41.683Z,3,GR86-010-16,4.3,0.084,0.035,21.78,2.0,,0.0,0.0,
2025-08-14T22:45:41.727Z,3,GR86-010-16,4.2,0.074,0.039,22.28,2.0,,0.0,0.0,
2025-08-14T22:45:41.770Z,3,GR86-010-16,4.0,0.096,0.034,22.97,2.0,,0.0,0.0,
2025-08-14T22:45:41.813Z,3,GR86-010-16,3.8,0.085,0.041,23.97,2.0,5589.0,0.0,0.0,
2025-08-14T22:45:41.856Z,3,GR86-010-16,3.8,0.1,0.033,30.45,2.0,,0.0,0.0,97.97
2025-08-14T22:45:41.899Z,3,GR86-010-16,3.8,0.095,0.047,60.25,2.0,,0.0,0.0,
2025-08-14T22:45:41.942Z,3,GR86-010-16,3.8,0.129,0.047,99.91,2.0,,0.0,0.0,
2025-08-14T22:45:41.985Z,3,GR86-010-16,3.8,0.231,0.037,99.92,2.0,,0.0,0.0,
2025-08-14T22:45:42.072Z,3,GR86-010-16,3.8,0.317,0.038,99.91,2.0,5629.0,0.0,0.0,98.67
2025-08-14T22:45:42.115Z,3,GR86-010-16,3.7,0.304,0.044,99.91,2.0,,0.0,0.0,
2025-08-14T22:45:42.201Z,3,GR86-010-16,3.7,0.262,0.029,99.91,2.0,,0.0,0.0,
2025-08-14T22:45:42.244Z,3,GR86-010-16,3.7,0.276,0.043,99.93,2.0,5694.0,0.0,0.0,
2025-08-14T22:45:42.287Z,3,GR86-010-16,3.7,0.276,0.039,99.91,2.0,,0.0,0.0,99.35
2025-08-14T22:45:42.331Z,3,GR86-010-16,3.7,0.287,0.039,99.91,2.0,,0.0,0.0,
2025-08-14T22:45:42.375Z,3,GR86-010-16,3.6,0.275,0.037,99.92,2.0,,0.0,0.0,
2025-08-14T22:45:42.418Z,3,GR86-010-16,3.6,0.292,0.041,99.91,2.0,,0.0,0.0,
2025-08-14T22:45:42.462Z,3,GR86-010-16,2.8000000000000003,0.282,0.04,99.91,2.0,5853.0,0.0,0.0,
2025-08-14T22:45:42.505Z,3,GR86-010-16,0.0,0.275,0.016,99.92,2.0,,0.0,0.0,100.31
2025-08-14T22:45:42.548Z,3,GR86-010-16,-1.4,0.293,0.009,99.93,2.0,,0.0,0.0,
2025-08-14T22:45:42.591Z,3,GR86-010-16,-1.6,0.262,-0.009,99.91,2.0,,0.0,0.0,
2025-08-14T22:45:42.634Z,3,GR86-010-16,-1.6,0.27,-0.013,99.91,2.0,,0.0,0.0,
2025-08-14T22:45:42.677Z,3,GR86-010-16,-1.6,0.275,-0.018,99.91,2.0,5971.0,0.0,0.0,
2025-08-14T22:45:42.722Z,3,GR86-010-16,-1.6,0.262,-0.033,99.91,2.0,,0.0,0.0,104.46
2025-08-14T22:45:42.765Z,3,GR86-010-16,-1.6,0.255,-0.045,99.91,2.0,,0.0,0.0,
2025-08-14T22:45:42.808Z,3,GR86-010-16,-1.6,0.273,-0.052,99.93,2.0,,0.0,0.0,
2025-08-14T22:45:42.852Z,3,GR86-010-16,-1.6,0.263,-0.062,99.91,2.0,,0.0,0.0,
2025-08-14T22:45:42.895Z,3,GR86-010-16,-1.6,0.277,-0.059,99.92,2.0,6128.0,0.0,0.0,
2025-08-14T22:45:42.938Z,3,GR86-010-16,-1.6,0.263,-0.053,99.93,2.0,,0.0,0.0,106.58
2025-08-14T22:45:42.982Z,3,GR86-010-16,-1.6,0.243,-0.039,99.91,2.0,,0.0,0.0,
2025-08-14T22:45:43.025Z,3,GR86-010-16,-1.6,0.259,-0.037,99.93,2.0,,0.0,0.0,
2025-08-14T22:45:43.068Z,3,GR86-010-16,-1.6,0.276,-0.029,99.92,2.0,,0.0,0.0,
2025-08-14T22:45:43.111Z,3,GR86-010-16,-1.6,0.275,-0.026,99.92,2.0,6206.0,0.0,0.0,
2025-08-14T22:45:43.154Z,3,GR86-010-16,-1.6,0.275,-0.005,99.95,2.0,,0.0,0.0,108.69
2025-08-14T22:45:43.197Z,3,GR86-010-16,-1.6,0.247,-0.007,99.94,2.0,,0.0,0.0,
2025-08-14T22:45:43.240Z,3,GR86-010-16,-1.6,0.257,-0.006,99.94,2.0,,0.0,0.0,
2025-08-14T22:45:43.283Z,3,GR86-010-16,-1.4,0.266,0.015,99.94,2.0,,0.0,0.0,
2025-08-14T22:45:43.327Z,3,GR86-010-16,-1.4,0.268,0.015,99.92,2.0,6498.0,0.0,0.0,
2025-08-14T22:45:43.370Z,3,GR86-010-16,-1.3,0.241,0.022,99.94,2.0,,0.0,0.0,110.76
2025-08-14T22:45:43.413Z,3,GR86-010-16,-0.8,0.278,0.04,99.91,2.0,,0.0,0.0,
2025-08-14T22:45:43.456Z,3,GR86-010-16,-0.5,0.285,0.032,99.92,2.0,,0.0,0.0,
2025-08-14T22:45:43.499Z,3,GR86-010-16,-0.5,0.263,0.037,99.91,2.0,,0.0,0.0,
2025-08-14T22:45:43.542Z,3,GR86-010-16,-0.4,0.264,0.047,99.93,2.0,6571.0,0.0,0.0,
2025-08-14T22:45:43.585Z,3,GR86-010-16,-0.1,0.272,0.059,99.95,2.0,,0.0,0.0,112.86
2025-08-14T22:45:43.628Z,3,GR86-010-16,0.0,0.262,0.045,99.94,2.0,,0.0,0.0,
2025-08-14T22:45:43.671Z,3,GR86-010-16,0.0,0.271,0.067,99.94,2.0,,0.0,0.0,
2025-08-14T22:45:43.714Z,3,GR86-010-16,0.0,0.261,0.07,99.91,2.0,,0.0,0.0,
2025-08-14T22:45:43.757Z,3,GR86-010-16,0.0,0.246,0.058,99.92,2.0,6734.0,0.0,0.0,
2025-08-14T22:45:43.800Z,3,GR86-010-16,0.0,0.25,0.051,99.94,2.0,,0.0,0.0,115.03
2025-08-14T22:45:43.843Z,3,GR86-010-16,0.0,0.28,0.04,99.93,2.0,,0.0,0.0,
2025-08-14T22:45:43.886Z,3,GR86-010-16,0.0,0.262,0.036,99.94,2.0,,0.0,0.0,
2025-08-14T22:45:43.929Z,3,GR86-010-16,0.0,0.243,0.017,99.95,2.0,,0.0,0.0,
2025-08-14T22:45:43.972Z,3,GR86-010-16,-0.2,-0.02,0.041,99.95,3.0,6830.0,0.0,0.0,
2025-08-14T22:45:44.015Z,3,GR86-010-16,-0.6000000000000001,-0.038,0.034,99.95,3.0,,0.0,0.0,117.24
2025-08-14T22:45:44.058Z,3,GR86-010-16,-0.6000000000000001,0.5740000000000001,-0.038,99.94,3.0,,0.0,0.0,
2025-08-14T22:45:44.101Z,3,GR86-010-16,-0.6000000000000001,0.39,-0.055,99.94,3.0,,0.0,0.0,
2025-08-14T22:45:44.144Z,3,GR86-010-16,-0.7000000000000001,0.302,0.001,99.94,3.0,,0.0,0.0,
2025-08-14T22:45:44.187Z,3,GR86-010-16,-0.9,0.147,-0.069,99.95,3.0,6988.0,0.0,0.0,
2025-08-14T22:45:44.230Z,3,GR86-010-16,-0.8,0.129,-0.081,99.95,3.0,,0.0,0.0,119.56
2025-08-14T22:45:44.273Z,3,GR86-010-16,-0.8,0.219,-0.02,99.94,3.0,,0.0,0.0,
2025-08-14T22:45:44.316Z,3,GR86-010-16,-0.8,0.27,-0.086,99.94,3.0,,0.0,0.0,
2025-08-14T22:45:44.359Z,3,GR86-010-16,-0.8,0.238,-0.063,99.93,3.0,,0.0,0.0,
2025-08-14T22:45:44.402Z,3,GR86-010-16,-0.9,0.19,-0.08,99.95,3.0,5842.0,0.0,0.0,
2025-08-14T22:45:44.445Z,3,GR86-010-16,-0.8,0.197,-0.058,99.95,3.0,,0.0,0.0,121.37
2025-08-14T22:45:44.488Z,3,GR86-010-16,-0.9,0.22,-0.037,99.94,3.0,,0.0,0.0,
2025-08-14T22:45:44.531Z,3,GR86-010-16,-0.9,0.224,-0.054,99.95,3.0,,0.0,0.0,
2025-08-14T22:45:44.661Z,3,GR86-010-16,-0.9,0.189,-0.005,99.94,3.0,5835.0,0.0,0.0,123.59
2025-08-14T22:45:44.704Z,3,GR86-010-16,-0.9,0.205,-0.021,99.96,3.0,,0.0,0.0,
2025-08-14T22:45:44.747Z,3,GR86-010-16,-0.9,0.206,-0.019,99.95,3.0,,0.0,0.0,
2025-08-14T22:45:44.791Z,3,GR86-010-16,-0.9,0.223,-0.005,99.96,3.0,,0.0,0.0,
2025-08-14T22:45:44.834Z,3,GR86-010-16,-0.9,0.223,-0.008,99.96,3.0,5951.0,0.0,0.0,
2025-08-14T22:45:44.877Z,3,GR86-010-16,-0.9,0.192,-0.01,99.94,3.0,,0.0,0.0,125.52
2025-08-14T22:45:44.922Z,3,GR86-010-16,-0.9,0.199,0.004,99.94,3.0,,0.0,0.0,
2025-08-14T22:45:44.965Z,3,GR86-010-16,-0.9,0.209,0.0,99.94,3.0,,0.0,0.0,
2025-08-14T22:45:45.008Z,3,GR86-010-16,-0.9,0.205,0.017,99.95,3.0,,0.0,0.0,
2025-08-14T22:45:45.051Z,3,GR86-010-16,-0.9,0.201,0.011,99.95,3.0,6040.0,0.0,0.0,
2025-08-14T22:45:45.094Z,3,GR86-010-16,-0.9,0.179,0.007,98.99,3.0,,0.0,0.0,127.34
2025-08-14T22:45:45.137Z,3,GR86-010-16,-0.9,0.198,0.009,44.21,3.0,,6.18,6.365,
2025-08-14T22:45:45.182Z,3,GR86-010-16,-0.9,0.115,-0.003,4.49,3.0,,13.58,13.675,
2025-08-14T22:45:45.225Z,3,GR86-010-16,-0.9,0.009,0.001,5.07,3.0,,18.83,18.77,
2025-08-14T22:45:45.268Z,3,GR86-010-16,-0.9,-0.305,-0.006,4.78,3.0,6111.0,24.46,24.34,
2025-08-14T22:45:45.311Z,3,GR86-010-16,-0.9,-0.454,-0.009,4.46,3.0,,29.835,29.65,129.43
2025-08-14T22:45:45.354Z,3,GR86-010-16,-0.9,-0.677,-0.038,4.14,3.0,,32.9,32.595,
2025-08-14T22:45:45.397Z,3,GR86-010-16,-0.9,-0.641,-0.023,3.63,3.0,,33.160000000000004,33.13,
2025-08-14T22:45:45.441Z,3,GR86-010-16,-0.9,-0.525,-0.047,3.09,3.0,,32.84,33.1,
2025-08-14T22:45:45.484Z,3,GR86-010-16,-0.9,-0.617,-0.087,2.91,3.0,6164.0,32.17,32.595,
2025-08-14T22:45:45.527Z,3,GR86-010-16,-0.9,-0.638,-0.068,2.78,3.0,,31.8,32.17,132.3
2025-08-14T22:45:45.570Z,3,GR86-010-16,-0.9,-0.59,-0.118,2.72,3.0,,31.45,31.955,
2025-08-14T22:45:45.613Z,3,GR86-010-16,-0.9,-0.601,-0.1,2.69,3.0,,31.54,32.015,
2025-08-14T22:45:45.656Z,3,GR86-010-16,-0.9,-0.625,-0.098,2.65,3.0,,31.8,32.045,
2025-08-14T22:45:45.701Z,3,GR86-010-16,-0.9,-0.625,-0.091,2.62,3.0,5784.0,31.115,31.51,
2025-08-14T22:45:45.745Z,3,GR86-010-16,-0.9,-0.581,-0.088,2.6,3.0,,30.64,31.055,129.66
2025-08-14T22:45:45.788Z,3,GR86-010-16,-1.0,-0.596,-0.085,2.59,3.0,,29.955,30.675,
2025-08-14T22:45:45.831Z,3,GR86-010-16,-1.0,-0.603,-0.079,2.58,3.0,,28.305,29.5,
2025-08-14T22:45:45.874Z,3,GR86-010-16,-1.0,-0.533,-0.077,2.56,3.0,,26.965,28.215,
2025-08-14T22:45:45.917Z,3,GR86-010-16,-1.0,-0.559,-0.076,2.56,3.0,5773.0,26.355,27.835,
2025-08-14T22:45:45.961Z,3,GR86-010-16,-1.0,-0.557,-0.067,2.56,3.0,,26.535,27.56,125.93
2025-08-14T22:45:46.004Z,3,GR86-010-16,-1.0,-0.578,-0.065,2.56,3.0,,26.6,27.805,
2025-08-14T22:45:46.047Z,3,GR86-010-16,-1.0,-0.524,-0.067,2.5500000000000003,3.0,,25.895,27.345,
2025-08-14T22:45:46.090Z,3,GR86-010-16,-1.0,-0.543,-0.069,2.54,3.0,,24.37,25.925,
2025-08-14T22:45:46.133Z,3,GR86-010-16,-1.0,-0.54,-0.056,2.54,3.0,5499.0,23.715,25.085,
2025-08-14T22:45:46.219Z,3,GR86-010-16,-1.0,-0.483,-0.069,2.53,3.0,,22.905,24.37,122.13
2025-08-14T22:45:46.262Z,3,GR86-010-16,-1.0,-0.493,-0.051,2.52,3.0,,20.265,21.775,
2025-08-14T22:45:46.305Z,3,GR86-010-16,-1.0,-0.458,-0.046,2.52,3.0,,19.58,20.875,
2025-08-14T22:45:46.348Z,3,GR86-010-16,-1.0,-0.447,-0.033,2.5,3.0,5310.0,19.15,20.385,
2025-08-14T22:45:46.392Z,3,GR86-010-16,-1.0,-0.468,-0.04,2.5,3.0,,19.12,20.385,118.65
2025-08-14T22:45:46.434Z,3,GR86-010-16,-1.0,-0.411,-0.037,2.5,3.0,,18.89,20.175,
2025-08-14T22:45:46.522Z,3,GR86-010-16,-1.0,-0.466,-0.023,2.5,3.0,,18.89,19.87,
2025-08-14T22:45:46.565Z,3,GR86-010-16,-1.0,-0.416,-0.036,2.49,3.0,5215.0,18.465,19.485,
2025-08-14T22:45:46.608Z,3,GR86-010-16,-1.0,-0.428,-0.039,2.48,3.0,,18.175,19.425,115.43
2025-08-14T22:45:46.651Z,3,GR86-010-16,-1.0,-0.468,-0.025,2.47,3.0,,18.465,19.485,
2025-08-14T22:45:46.737Z,3,GR86-010-16,-1.0,-0.417,-0.04,2.48,3.0,,18.175,19.485,
2025-08-14T22:45:46.781Z,3,GR86-010-16,-1.0,-0.469,-0.033,2.47,3.0,5106.0,18.465,19.485,
2025-08-14T22:45:46.824Z,3,GR86-010-16,-1.0,-0.4,-0.039,2.49,3.0,,18.36,19.425,112.61
2025-08-14T22:45:46.867Z,3,GR86-010-16,-1.0,-0.457,-0.038,2.48,3.0,,18.295,19.425,
2025-08-14T22:45:46.953Z,3,GR86-010-16,-1.0,-0.428,-0.05,2.48,3.0,,18.235,19.425,
2025-08-14T22:45:46.996Z,3,GR86-010-16,-1.1,-0.47,-0.047,4.23,3.0,4992.0,18.115,19.15,
2025-08-14T22:45:47.039Z,3,GR86-010-16,-1.1,-0.413,-0.044,45.22,3.0,,17.61,18.89,110.08
2025-08-14T22:45:47.082Z,3,GR86-010-16,-1.1,-0.407,-0.032,99.3,3.0,,17.395,18.74,
2025-08-14T22:45:47.125Z,3,GR86-010-16,-1.1,-0.413,-0.03,99.89,3.0,,17.490000000000002,18.585,
2025-08-14T22:45:47.168Z,3,GR86-010-16,-1.1,-0.346,-0.053,73.29,2.0,,16.86,18.115,
2025-08-14T22:45:47.211Z,3,GR86-010-16,-1.1,-0.441,-0.047,6.28,2.0,4859.0,16.8,18.085,
2025-08-14T22:45:47.254Z,3,GR86-010-16,-1.1,-0.667,0.018,3.08,2.0,,16.59,17.745,107.32
2025-08-14T22:45:47.297Z,3,GR86-010-16,-1.1,-0.537,-0.032,2.72,2.0,,16.65,17.745,
2025-08-14T22:45:47.341Z,3,GR86-010-16,-1.1,-0.404,-0.021,2.61,2.0,,16.085,17.395,
2025-08-14T22:45:47.383Z,3,GR86-010-16,-1.1,-0.349,-0.009,2.61,2.0,,15.75,16.8,
2025-08-14T22:45:47.427Z,3,GR86-010-16,-1.1,-0.445,-0.037,2.58,2.0,4762.0,15.84,16.94,
2025-08-14T22:45:47.470Z,3,GR86-010-16,-1.1,-0.417,-0.008,2.58,2.0,,15.75,16.77,104.81
2025-08-14T22:45:47.513Z,3,GR86-010-16,-1.1,-0.44,-0.017,2.56,2.0,,15.75,16.8,
2025-08-14T22:45:47.557Z,3,GR86-010-16,-1.1,-0.393,-0.039,2.56,2.0,,15.535,16.65,
2025-08-14T22:45:47.600Z,3,GR86-010-16,-1.1,-0.385,-0.009,2.56,2.0,,14.815,15.99,
2025-08-14T22:45:47.643Z,3,GR86-010-16,-1.1,-0.418,-0.02,2.56,2.0,5739.0,14.605,15.78,
2025-08-14T22:45:47.686Z,3,GR86-010-16,-1.1,-0.378,-0.01,2.56,2.0,,14.025,15.305,102.25
2025-08-14T22:45:47.729Z,3,GR86-010-16,-1.1,-0.404,-0.008,2.5500000000000003,2.0,,13.61,14.94,
2025-08-14T22:45:47.772Z,3,GR86-010-16,-1.1,-0.35,-0.026,2.5500000000000003,2.0,,12.805,13.95,
2025-08-14T22:45:47.815Z,3,GR86-010-16,-1.1,-0.405,-0.012,2.5500000000000003,2.0,,12.24,13.55,
2025-08-14T22:45:47.858Z,3,GR86-010-16,-1.1,-0.346,-0.036,2.5500000000000003,2.0,5535.0,11.31,12.5,
2025-08-14T22:45:47.901Z,3,GR86-010-16,-1.3,-0.295,-0.026,2.54,2.0,,8.27,9.28,99.41
2025-08-14T22:45:47.944Z,3,GR86-010-16,-1.8,-0.254,-0.034,2.54,2.0,,5.705,6.715,
2025-08-14T22:45:47.987Z,3,GR86-010-16,-2.2,-0.214,-0.028,2.53,2.0,,4.93,5.705,
2025-08-14T22:45:48.031Z,3,GR86-010-16,-2.5,-0.237,-0.045,2.52,2.0,,4.15,4.6850000000000005,
2025-08-14T22:45:48.075Z,3,GR86-010-16,-2.5,-0.18,-0.05,2.53,2.0,5398.0,2.075,2.76,
2025-08-14T22:45:48.118Z,3,GR86-010-16,-2.5,-0.164,-0.049,2.52,2.0,,0.0,0.0,96.89
2025-08-14T22:45:48.162Z,3,GR86-010-16,-2.5,-0.146,-0.057,2.53,2.0,,0.0,0.0,
2025-08-14T22:45:48.205Z,3,GR86-010-16,-2.6,-0.144,-0.057,2.54,2.0,,0.0,0.0,
2025-08-14T22:45:48.248Z,3,GR86-010-16,-2.6,-0.135,-0.07,3.0500000000000003,2.0,,0.0,0.0,
2025-08-14T22:45:48.291Z,3,GR86-010-16,-2.6,-0.135,-0.063,4.28,2.0,5289.0,0.0,0.0,
2025-08-14T22:45:48.334Z,3,GR86-010-16,-2.6,-0.141,-0.066,4.54,2.0,,0.0,0.0,93.36
2025-08-14T22:45:48.377Z,3,GR86-010-16,-2.6,-0.14,-0.062,4.65,2.0,,0.0,0.0,
2025-08-14T22:45:48.422Z,3,GR86-010-16,-2.6,-0.126,-0.061,4.8100000000000005,2.0,,0.0,0.0,
2025-08-14T22:45:48.465Z,3,GR86-010-16,-2.6,-0.123,-0.066,4.91,2.0,,0.0,0.0,
2025-08-14T22:45:48.508Z,3,GR86-010-16,-2.6,-0.116,-0.057,7.0600000000000005,2.0,5193.0,0.0,0.0,
2025-08-14T22:45:48.552Z,3,GR86-010-16,-2.6,-0.122,-0.062,19.61,2.0,,0.0,0.0,92.6
2025-08-14T22:45:48.595Z,3,GR86-010-16,-2.6,-0.121,-0.054,20.78,2.0,,0.0,0.0,
2025-08-14T22:45:48.638Z,3,GR86-010-16,-2.6,-0.09,-0.058,21.02,2.0,,0.0,0.0,
2025-08-14T22:45:48.682Z,3,GR86-010-16,-2.6,-0.053,-0.059,21.67,2.0,,0.0,0.0,
2025-08-14T22:45:48.725Z,3,GR86-010-16,-2.6,-0.057,-0.072,21.7,2.0,5167.0,0.0,0.0,
2025-08-14T22:45:48.768Z,3,GR86-010-16,-2.6,0.015,-0.071,21.75,2.0,,0.0,0.0,92.02
2025-08-14T22:45:48.811Z,3,GR86-010-16,-2.6,0.263,-0.046,9.1,2.0,,0.0,0.0,
2025-08-14T22:45:48.854Z,3,GR86-010-16,-2.6,0.256,-0.078,6.3500000000000005,2.0,,0.0,0.0,
2025-08-14T22:45:48.897Z,3,GR86-010-16,-2.6,0.085,-0.053,6.33,2.0,,0.0,0.0,
2025-08-14T22:45:48.940Z,3,GR86-010-16,-2.6,-0.045,-0.047,6.3,2.0,5281.0,0.0,0.0,
2025-08-14T22:45:48.983Z,3,GR86-010-16,-2.6,-0.032,-0.054,6.42,2.0,,0.0,0.0,91.5
2025-08-14T22:45:49.027Z,3,GR86-010-16,-2.6,-0.155,-0.018,19.77,2.0,,0.0,0.0,
2025-08-14T22:45:49.070Z,3,GR86-010-16,-2.6,-0.201,-0.027,20.6,2.0,,0.0,0.0,
2025-08-14T22:45:49.113Z,3,GR86-010-16,-2.6,-0.134,-0.04,25.4,2.0,,0.0,0.0,
2025-08-14T22:45:49.156Z,3,GR86-010-16,-2.6,-0.068,-0.034,33.62,2.0,5072.0,0.0,0.0,
2025-08-14T22:45:49.199Z,3,GR86-010-16,-2.6,-0.033,-0.03,49.94,2.0,,0.0,0.0,91.65
2025-08-14T22:45:49.242Z,3,GR86-010-16,-2.6,0.17,-0.029,83.39,2.0,,0.0,0.0,
2025-08-14T22:45:49.285Z,3,GR86-010-16,-2.6,0.523,-0.026,83.58,2.0,,0.0,0.0,
2025-08-14T22:45:49.328Z,3,GR86-010-16,-2.6,0.465,-0.042,84.38,2.0,,0.0,0.0,
2025-08-14T22:45:49.371Z,3,GR86-010-16,-2.6,0.294,-0.027,98.41,2.0,5231.0,0.0,0.0,
2025-08-14T22:45:49.414Z,3,GR86-010-16,-2.6,0.162,-0.018,99.9,2.0,,0.0,0.0,92.36
2025-08-14T22:45:49.457Z,3,GR86-010-16,-2.6,0.189,-0.039,99.9,2.0,,0.0,0.0,
2025-08-14T22:45:49.500Z,3,GR86-010-16,-2.6,0.314,-0.01,99.91,2.0,,0.0,0.0,
2025-08-14T22:45:49.543Z,3,GR86-010-16,-2.6,0.341,-0.026,99.91,2.0,,0.0,0.0,
2025-08-14T22:45:49.586Z,3,GR86-010-16,-2.6,0.302,-0.026,99.91,2.0,5471.0,0.0,0.0,
2025-08-14T22:45:49.629Z,3,GR86-010-16,-2.6,0.267,-0.031,99.9,2.0,,0.0,0.0,92.04
2025-08-14T22:45:49.672Z,3,GR86-010-16,-2.6,0.25,-0.03,99.91,2.0,,0.0,0.0,
2025-08-14T22:45:49.715Z,3,GR86-010-16,-2.6,0.269,-0.029,99.9,2.0,,0.0,0.0,
2025-08-14T22:45:49.758Z,3,GR86-010-16,-2.6,0.298,-0.037,99.91,2.0,,0.0,0.0,
2025-08-14T22:45:49.801Z,3,GR86-010-16,-2.7,0.288,-0.05,99.89,2.0,5538.0,0.0,0.0,
2025-08-14T22:45:49.844Z,3,GR86-010-16,-4.4,0.28,-0.053,99.91,2.0,,0.0,0.0,93.88
2025-08-14T22:45:49.887Z,3,GR86-010-16,-5.800000000000001,0.273,-0.078,99.91,2.0,,0.0,0.0,
2025-08-14T22:45:49.930Z,3,GR86-010-16,-6.800000000000001,0.275,-0.096,99.91,2.0,,0.0,0.0,
2025-08-14T22:45:49.973Z,3,GR86-010-16,-8.200000000000001,0.282,-0.118,99.92,2.0,,0.0,0.0,
2025-08-14T22:45:50.016Z,3,GR86-010-16,-9.5,0.279,-0.141,99.92,2.0,5661.0,0.0,0.0,
2025-08-14T22:45:50.059Z,3,GR86-010-16,-11.4,0.285,-0.166,99.91,2.0,,0.0,0.0,96.03
2025-08-14T22:45:50.102Z,3,GR86-010-16,-15.1,0.284,-0.202,99.9,2.0,,0.0,0.0,
2025-08-14T22:45:50.145Z,3,GR86-010-16,-18.4,0.265,-0.229,99.91,2.0,,0.0,0.0,
2025-08-14T22:45:50.188Z,3,GR86-010-16,-22.8,0.251,-0.291,99.91,2.0,,0.0,0.0,
2025-08-14T22:45:50.231Z,3,GR86-010-16,-27.3,0.262,-0.341,99.91,2.0,5774.0,0.0,0.0,
2025-08-14T22:45:50.274Z,3,GR86-010-16,-31.700000000000003,0.258,-0.41,99.91,2.0,,0.0,0.0,98.21
2025-08-14T22:45:50.317Z,3,GR86-010-16,-34.7,0.262,-0.469,99.91,2.0,,0.0,0.0,
2025-08-14T22:45:50.361Z,3,GR86-010-16,-35.5,0.241,-0.529,99.91,2.0,,0.0,0.0,
2025-08-14T22:45:50.403Z,3,GR86-010-16,-34.7,0.231,-0.585,99.92,2.0,,0.0,0.0,
2025-08-14T22:45:50.446Z,3,GR86-010-16,-33.9,0.25,-0.618,99.93,2.0,5857.0,0.0,0.0,
2025-08-14T22:45:50.489Z,3,GR86-010-16,-33.7,0.244,-0.612,99.91,2.0,,0.0,0.0,100.46
2025-08-14T22:45:50.532Z,3,GR86-010-16,-33.9,0.257,-0.661,99.91,2.0,,0.0,0.0,
2025-08-14T22:45:50.575Z,3,GR86-010-16,-35.4,0.243,-0.6900000000000001,99.91,2.0,,0.0,0.0,
2025-08-14T22:45:50.618Z,3,GR86-010-16,-37.1,0.226,-0.6950000000000001,99.91,2.0,,0.0,0.0,
2025-08-14T22:45:50.661Z,3,GR86-010-16,-38.1,0.224,-0.724,35.63,2.0,6028.0,11.935,11.935,
2025-08-14T22:45:50.704Z,3,GR86-010-16,-36.5,0.132,-0.721,5.68,2.0,,17.96,18.02,102.65
2025-08-14T22:45:50.747Z,3,GR86-010-16,-32.800000000000004,-0.018,-0.6940000000000001,4.62,2.0,,23.09,22.965,
2025-08-14T22:45:50.790Z,3,GR86-010-16,-28.1,-0.265,-0.649,4.32,2.0,,25.515,25.395,
2025-08-14T22:45:50.833Z,3,GR86-010-16,-22.5,-0.491,-0.594,3.89,2.0,,26.81,26.84,
2025-08-14T22:45:50.876Z,3,GR86-010-16,-18.3,-0.47,-0.612,3.42,2.0,6139.0,27.225,27.18,
2025-08-14T22:45:50.919Z,3,GR86-010-16,-16.3,-0.633,-0.582,3.13,2.0,,27.925,27.925,104.74
2025-08-14T22:45:50.962Z,3,GR86-010-16,-16.8,-0.5710000000000001,-0.599,2.89,2.0,,29.025,28.995,
2025-08-14T22:45:51.005Z,3,GR86-010-16,-23.0,-0.58,-0.666,2.78,2.0,,29.27,29.27,
2025-08-14T22:45:51.048Z,3,GR86-010-16,-26.200000000000003,-0.541,-0.667,2.72,2.0,,29.36,29.56,
2025-08-14T22:45:51.091Z,3,GR86-010-16,-26.200000000000003,-0.531,-0.715,2.69,2.0,6238.0,29.085,29.3,
2025-08-14T22:45:51.134Z,3,GR86-010-16,-26.200000000000003,-0.534,-0.778,2.66,2.0,,29.025,29.27,107.59
2025-08-14T22:45:51.177Z,3,GR86-010-16,-27.4,-0.599,-0.726,2.64,2.0,,28.69,29.115,
2025-08-14T22:45:51.265Z,3,GR86-010-16,-31.0,-0.608,-0.784,2.63,2.0,,27.835,28.52,
2025-08-14T22:45:51.308Z,3,GR86-010-16,-27.9,-0.538,-0.809,2.6,2.0,5724.0,22.675,24.08,
2025-08-14T22:45:51.351Z,3,GR86-010-16,-22.3,-0.473,-0.833,2.58,2.0,,20.205,21.655,104.59
2025-08-14T22:45:51.394Z,3,GR86-010-16,-16.3,-0.498,-0.807,2.56,2.0,,16.145,17.455000000000002,
2025-08-14T22:45:51.437Z,3,GR86-010-16,-11.9,-0.4,-0.853,2.5500000000000003,2.0,,12.65,13.915,
2025-08-14T22:45:51.482Z,3,GR86-010-16,-8.700000000000001,-0.382,-0.873,2.53,2.0,,12.24,12.895,
2025-08-14T22:45:51.525Z,3,GR86-010-16,-7.4,-0.382,-0.8180000000000001,2.52,2.0,5344.0,11.55,12.68,
2025-08-14T22:45:51.568Z,3,GR86-010-16,-10.4,-0.34,-0.86,2.52,2.0,,11.155,11.81,100.84
2025-08-14T22:45:51.611Z,3,GR86-010-16,-27.0,-0.357,-0.861,2.51,2.0,,11.43,12.145,
2025-08-14T22:45:51.654Z,3,GR86-010-16,-43.5,-0.344,-0.919,2.5,2.0,,11.215,11.84,
2025-08-14T22:45:51.697Z,3,GR86-010-16,-52.8,-0.358,-0.939,2.5,2.0,,8.76,9.75,
2025-08-14T22:45:51.741Z,3,GR86-010-16,-54.8,-0.246,-0.974,2.5,2.0,5222.0,0.0,2.275,
2025-08-14T22:45:51.784Z,3,GR86-010-16,-55.7,-0.221,-0.964,2.48,2.0,,0.0,0.0,97.75
2025-08-14T22:45:51.827Z,3,GR86-010-16,-57.400000000000006,-0.199,-0.93,2.48,2.0,,0.0,0.0,
2025-08-14T22:45:51.870Z,3,GR86-010-16,-57.900000000000006,-0.199,-0.94,2.47,2.0,,0.0,0.0,
2025-08-14T22:45:51.913Z,3,GR86-010-16,-57.900000000000006,-0.174,-0.953,2.47,2.0,,0.0,0.0,
2025-08-14T22:45:51.956Z,3,GR86-010-16,-57.900000000000006,-0.181,-0.945,2.53,2.0,5161.0,0.0,0.0,
2025-08-14T22:45:51.999Z,3,GR86-010-16,-59.6,-0.168,-0.929,2.65,2.0,,0.0,0.0,94.86
2025-08-14T22:45:52.042Z,3,GR86-010-16,-62.8,-0.173,-0.935,2.89,2.0,,0.0,0.0,
2025-08-14T22:45:52.085Z,3,GR86-010-16,-62.900000000000006,-0.188,-0.957,4.49,2.0,,0.0,0.0,
2025-08-14T22:45:52.128Z,3,GR86-010-16,-62.8,-0.163,-0.969,9.44,2.0,,0.0,0.0,
2025-08-14T22:45:52.171Z,3,GR86-010-16,-62.8,-0.183,-0.958,17.13,2.0,5141.0,0.0,0.0,
2025-08-14T22:45:52.214Z,3,GR86-010-16,-63.5,-0.166,-0.973,20.54,2.0,,0.0,0.0,93.21
2025-08-14T22:45:52.257Z,3,GR86-010-16,-64.9,-0.143,-0.971,21.06,2.0,,0.0,0.0,
2025-08-14T22:45:52.345Z,3,GR86-010-16,-66.0,-0.104,-0.979,21.37,2.0,,0.0,0.0,
2025-08-14T22:45:52.388Z,3,GR86-010-16,-62.900000000000006,-0.093,-1.009,21.79,2.0,5074.0,0.0,0.0,
2025-08-14T22:45:52.431Z,3,GR86-010-16,-60.0,0.108,-0.947,21.9,2.0,,0.0,0.0,92.2
2025-08-14T22:45:52.474Z,3,GR86-010-16,-58.5,0.178,-0.97,21.99,2.0,,0.0,0.0,
2025-08-14T22:45:52.517Z,3,GR86-010-16,-59.0,0.099,-0.943,23.42,2.0,,0.0,0.0,
2025-08-14T22:45:52.561Z,3,GR86-010-16,-61.8,0.042,-0.927,25.02,2.0,,0.0,0.0,
2025-08-14T22:45:52.604Z,3,GR86-010-16,-64.0,0.046,-0.949,25.08,2.0,5088.0,0.0,0.0,
2025-08-14T22:45:52.648Z,3,GR86-010-16,-65.4,0.07,-0.927,25.05,2.0,,0.0,0.0,91.21
2025-08-14T22:45:52.691Z,3,GR86-010-16,-65.7,0.087,-0.951,25.02,2.0,,0.0,0.0,
2025-08-14T22:45:52.734Z,3,GR86-010-16,-65.4,0.123,-0.915,25.05,2.0,,0.0,0.0,
2025-08-14T22:45:52.777Z,3,GR86-010-16,-65.4,0.104,-0.912,25.14,2.0,,0.0,0.0,
2025-08-14T22:45:52.822Z,3,GR86-010-16,-67.60000000000001,0.085,-0.871,26.36,2.0,5120.0,0.0,0.0,
2025-08-14T22:45:52.865Z,3,GR86-010-16,-70.0,0.102,-0.891,26.47,2.0,,0.0,0.0,90.35
2025-08-14T22:45:52.908Z,3,GR86-010-16,-71.7,0.087,-0.886,26.37,2.0,,0.0,0.0,
2025-08-14T22:45:52.951Z,3,GR86-010-16,-71.8,0.113,-0.884,25.77,2.0,,0.0,0.0,
2025-08-14T22:45:52.994Z,3,GR86-010-16,-71.2,0.111,-0.853,25.12,2.0,,0.0,0.0,
2025-08-14T22:45:53.037Z,3,GR86-010-16,-71.0,0.11,-0.868,25.04,2.0,5205.0,0.0,0.0,
2025-08-14T22:45:53.081Z,3,GR86-010-16,-70.9,0.078,-0.877,25.27,2.0,,0.0,0.0,90.3
2025-08-14T22:45:53.124Z,3,GR86-010-16,-69.7,0.077,-0.897,26.51,2.0,,0.0,0.0,
2025-08-14T22:45:53.167Z,3,GR86-010-16,-67.9,0.076,-0.874,28.81,2.0,,0.0,0.0,
2025-08-14T22:45:53.210Z,3,GR86-010-16,-65.5,0.09,-0.887,33.95,2.0,,0.0,0.0,
2025-08-14T22:45:53.253Z,3,GR86-010-16,-61.8,0.097,-0.903,39.17,2.0,5248.0,0.0,0.0,
2025-08-14T22:45:53.296Z,3,GR86-010-16,-57.0,0.123,-0.904,42.26,2.0,,0.0,0.0,90.73
2025-08-14T22:45:53.339Z,3,GR86-010-16,-52.5,0.156,-0.894,48.22,2.0,,0.0,0.0,
2025-08-14T22:45:53.382Z,3,GR86-010-16,-49.1,0.211,-0.897,57.99,2.0,,0.0,0.0,
2025-08-14T22:45:53.425Z,3,GR86-010-16,-49.1,0.224,-0.862,59.98,2.0,,0.0,0.0,
2025-08-14T22:45:53.468Z,3,GR86-010-16,-48.6,0.227,-0.869,68.81,2.0,5241.0,0.0,0.0,
2025-08-14T22:45:53.511Z,3,GR86-010-16,-47.3,0.235,-0.856,73.77,2.0,,0.0,0.0,91.35
2025-08-14T22:45:53.554Z,3,GR86-010-16,-46.900000000000006,0.243,-0.863,71.78,2.0,,0.0,0.0,
2025-08-14T22:45:53.597Z,3,GR86-010-16,-47.900000000000006,0.237,-0.8260000000000001,72.55,2.0,,0.0,0.0,
2025-08-14T22:45:53.641Z,3,GR86-010-16,-50.2,0.263,-0.8300000000000001,98.83,2.0,,0.0,0.0,
2025-08-14T22:45:53.683Z,3,GR86-010-16,-50.1,0.251,-0.866,99.87,2.0,5356.0,0.0,0.0,
2025-08-14T22:45:53.727Z,3,GR86-010-16,-47.8,0.243,-0.847,99.89,2.0,,0.0,0.0,93.06
2025-08-14T22:45:53.770Z,3,GR86-010-16,-44.1,0.244,-0.886,99.87,2.0,,0.0,0.0,
2025-08-14T22:45:53.813Z,3,GR86-010-16,-41.400000000000006,0.252,-0.858,99.87,2.0,,0.0,0.0,
2025-08-14T22:45:53.857Z,3,GR86-010-16,-39.3,0.27,-0.833,99.88,2.0,,0.0,0.0,
2025-08-14T22:45:53.900Z,3,GR86-010-16,-38.400000000000006,0.262,-0.811,99.87,2.0,5440.0,0.0,0.0,
2025-08-14T22:45:53.943Z,3,GR86-010-16,-38.900000000000006,0.258,-0.808,99.88,2.0,,0.0,0.0,94.32
2025-08-14T22:45:53.986Z,3,GR86-010-16,-39.6,0.248,-0.841,99.88,2.0,,0.0,0.0,
2025-08-14T22:45:54.029Z,3,GR86-010-16,-40.7,0.25,-0.858,96.91,2.0,,0.0,0.0,
2025-08-14T22:45:54.115Z,3,GR86-010-16,-45.0,0.255,-0.874,32.730000000000004,2.0,5571.0,0.0,0.0,
2025-08-14T22:45:54.158Z,3,GR86-010-16,-46.5,0.238,-0.905,25.68,2.0,,0.0,0.0,96.08
2025-08-14T22:45:54.201Z,3,GR86-010-16,-45.7,0.169,-0.874,4.3100000000000005,2.0,,0.0,0.0,
2025-08-14T22:45:54.244Z,3,GR86-010-16,-43.400000000000006,0.121,-0.85,4.01,2.0,,2.73,3.065,
2025-08-14T22:45:54.287Z,3,GR86-010-16,-41.2,-0.051,-0.76,3.9,2.0,,6.3950000000000005,6.575,
2025-08-14T22:45:54.331Z,3,GR86-010-16,-39.3,-0.157,-0.746,3.68,2.0,5707.0,8.575000000000001,8.700000000000001,
2025-08-14T22:45:54.375Z,3,GR86-010-16,-36.3,-0.248,-0.769,3.39,2.0,,9.46,9.72,97.69
2025-08-14T22:45:54.418Z,3,GR86-010-16,-33.9,-0.41,-0.732,3.82,2.0,,9.46,9.63,
2025-08-14T22:45:54.462Z,3,GR86-010-16,-32.7,-0.299,-0.731,4.57,2.0,,5.3100000000000005,5.965,
2025-08-14T22:45:54.505Z,3,GR86-010-16,-33.800000000000004,-0.222,-0.762,4.5,2.0,,0.0,0.0,
2025-08-14T22:45:54.548Z,3,GR86-010-16,-37.7,-0.178,-0.713,4.5,2.0,5345.0,0.0,0.0,
2025-08-14T22:45:54.591Z,3,GR86-010-16,-41.6,-0.157,-0.772,4.44,2.0,,0.0,0.0,99.34
2025-08-14T22:45:54.634Z,3,GR86-010-16,-43.5,-0.145,-0.8160000000000001,3.99,2.0,,0.0,0.0,
2025-08-14T22:45:54.677Z,3,GR86-010-16,-43.5,-0.15,-0.846,3.76,2.0,,0.0,0.0,
2025-08-14T22:45:54.722Z,3,GR86-010-16,-42.7,-0.165,-0.834,3.73,2.0,,0.0,0.0,
2025-08-14T22:45:54.765Z,3,GR86-010-16,-42.6,-0.161,-0.8290000000000001,3.7,2.0,5391.0,0.0,0.0,
2025-08-14T22:45:54.808Z,3,GR86-010-16,-42.3,-0.154,-0.833,3.67,2.0,,0.0,0.0,98.6
2025-08-14T22:45:54.852Z,3,GR86-010-16,-42.0,-0.138,-0.8270000000000001,3.61,2.0,,0.0,0.0,
2025-08-14T22:45:54.895Z,3,GR86-010-16,-42.0,-0.152,-0.836,3.48,2.0,,0.0,0.0,
2025-08-14T22:45:54.938Z,3,GR86-010-16,-42.0,-0.166,-0.8240000000000001,3.51,2.0,,0.0,0.0,
2025-08-14T22:45:54.982Z,3,GR86-010-16,-42.3,-0.169,-0.862,3.5500000000000003,2.0,5348.0,0.0,0.0,
2025-08-14T22:45:55.024Z,3,GR86-010-16,-42.6,-0.16,-0.8200000000000001,3.79,2.0,,0.0,0.0,97.22
2025-08-14T22:45:55.067Z,3,GR86-010-16,-42.8,-0.161,-0.865,4.4,2.0,,0.0,0.0,
2025-08-14T22:45:55.110Z,3,GR86-010-16,-42.8,-0.16,-0.842,4.62,2.0,,0.0,0.0,
2025-08-14T22:45:55.153Z,3,GR86-010-16,-42.8,-0.152,-0.854,4.73,2.0,,0.0,0.0,
2025-08-14T22:45:55.196Z,3,GR86-010-16,-41.8,-0.159,-0.811,4.8100000000000005,2.0,5276.0,0.0,0.0,
2025-08-14T22:45:55.239Z,3,GR86-010-16,-40.8,-0.153,-0.807,4.88,2.0,,0.0,0.0,96.08
2025-08-14T22:45:55.282Z,3,GR86-010-16,-38.8,-0.143,-0.801,4.94,2.0,,0.0,0.0,
2025-08-14T22:45:55.325Z,3,GR86-010-16,-38.1,-0.137,-0.798,5.24,2.0,,0.0,0.0,
2025-08-14T22:45:55.368Z,3,GR86-010-16,-38.1,-0.144,-0.781,6.01,2.0,,0.0,0.0,
2025-08-14T22:45:55.411Z,3,GR86-010-16,-38.1,-0.151,-0.744,7.09,2.0,5198.0,0.0,0.0,
2025-08-14T22:45:55.454Z,3,GR86-010-16,-38.1,-0.136,-0.748,7.29,2.0,,0.0,0.0,95.01
2025-08-14T22:45:55.497Z,3,GR86-010-16,-37.6,-0.13,-0.75,7.36,2.0,,0.0,0.0,
2025-08-14T22:45:55.541Z,3,GR86-010-16,-35.6,-0.124,-0.764,7.79,2.0,,0.0,0.0,
2025-08-14T22:45:55.584Z,3,GR86-010-16,-33.9,-0.111,-0.72,8.42,2.0,,0.0,0.0,
2025-08-14T22:45:55.627Z,3,GR86-010-16,-32.9,-0.093,-0.67,9.15,2.0,5143.0,0.0,0.0,
2025-08-14T22:45:55.670Z,3,GR86-010-16,-31.700000000000003,-0.078,-0.633,16.51,2.0,,0.0,0.0,93.78
2025-08-14T22:45:55.713Z,3,GR86-010-16,-30.4,-0.093,-0.644,17.77,2.0,,0.0,0.0,
2025-08-14T22:45:55.756Z,3,GR86-010-16,-29.1,-0.138,-0.654,18.94,2.0,,0.0,0.0,
2025-08-14T22:45:55.799Z,3,GR86-010-16,-27.700000000000003,-0.097,-0.588,20.11,2.0,,0.0,0.0,
2025-08-14T22:45:55.842Z,3,GR86-010-16,-25.8,-0.057,-0.581,20.37,2.0,5133.0,0.0,0.0,
2025-08-14T22:45:55.885Z,3,GR86-010-16,-25.200000000000003,-0.02,-0.474,20.33,2.0,,0.0,0.0,92.62
2025-08-14T22:45:55.928Z,3,GR86-010-16,-25.200000000000003,0.104,-0.439,19.5,2.0,,0.0,0.0,
2025-08-14T22:45:55.971Z,3,GR86-010-16,-25.1,0.159,-0.508,20.29,2.0,,0.0,0.0,
2025-08-14T22:45:56.014Z,3,GR86-010-16,-24.6,0.095,-0.5720000000000001,21.87,2.0,,0.0,0.0,
2025-08-14T22:45:56.057Z,3,GR86-010-16,-24.1,0.056,-0.549,21.96,2.0,5104.0,0.0,0.0,
2025-08-14T22:45:56.100Z,3,GR86-010-16,-22.9,0.013,-0.586,22.03,2.0,,0.0,0.0,91.35
2025-08-14T22:45:56.143Z,3,GR86-010-16,-21.3,0.119,-0.501,22.05,2.0,,0.0,0.0,
2025-08-14T22:45:56.186Z,3,GR86-010-16,-19.1,0.123,-0.395,22.06,2.0,,0.0,0.0,
2025-08-14T22:45:56.229Z,3,GR86-010-16,-17.1,0.097,-0.443,22.08,2.0,,0.0,0.0,
2025-08-14T22:45:56.272Z,3,GR86-010-16,-15.3,0.128,-0.404,22.07,2.0,5375.0,0.0,0.0,
2025-08-14T22:45:56.315Z,3,GR86-010-16,-13.2,0.104,-0.374,22.08,2.0,,0.0,0.0,90.22
2025-08-14T22:45:56.358Z,3,GR86-010-16,-11.2,0.123,-0.328,22.08,2.0,,0.0,0.0,
2025-08-14T22:45:56.401Z,3,GR86-010-16,-7.2,0.102,-0.271,22.07,2.0,,0.0,0.0,
2025-08-14T22:45:56.444Z,3,GR86-010-16,-3.7,0.092,-0.202,22.07,2.0,,0.0,0.0,
2025-08-14T22:45:56.487Z,3,GR86-010-16,-0.9,0.104,-0.15,22.05,2.0,5181.0,0.0,0.0,
2025-08-14T22:45:56.530Z,3,GR86-010-16,1.6,0.1,-0.094,22.06,2.0,,0.0,0.0,90.56
2025-08-14T22:45:56.573Z,3,GR86-010-16,4.1000000000000005,0.104,-0.048,22.05,2.0,,0.0,0.0,
2025-08-14T22:45:56.616Z,3,GR86-010-16,6.800000000000001,0.103,0.02,22.04,2.0,,0.0,0.0,
2025-08-14T22:45:56.659Z,3,GR86-010-16,9.4,0.106,0.048,22.04,2.0,,0.0,0.0,
2025-08-14T22:45:56.702Z,3,GR86-010-16,13.1,0.119,0.13,22.05,2.0,5233.0,0.0,0.0,
2025-08-14T22:45:56.745Z,3,GR86-010-16,14.9,0.114,0.182,22.05,2.0,,0.0,0.0,91.18
2025-08-14T22:45:56.788Z,3,GR86-010-16,15.6,0.116,0.207,22.04,2.0,,0.0,0.0,
2025-08-14T22:45:56.831Z,3,GR86-010-16,15.6,0.11,0.244,22.03,2.0,,0.0,0.0,
2025-08-14T22:45:56.874Z,3,GR86-010-16,15.6,0.112,0.263,22.02,2.0,,0.0,0.0,
2025-08-14T22:45:56.917Z,3,GR86-010-16,15.6,0.103,0.284,22.01,2.0,5227.0,0.0,0.0,
2025-08-14T22:45:56.961Z,3,GR86-010-16,15.6,0.103,0.286,22.02,2.0,,0.0,0.0,91.95
2025-08-14T22:45:57.003Z,3,GR86-010-16,15.6,0.112,0.295,22.01,2.0,,0.0,0.0,
2025-08-14T22:45:57.046Z,3,GR86-010-16,15.6,0.098,0.282,22.01,2.0,,0.0,0.0,
2025-08-14T22:45:57.089Z,3,GR86-010-16,15.6,0.109,0.288,22.02,2.0,,0.0,0.0,
2025-08-14T22:45:57.132Z,3,GR86-010-16,15.6,0.111,0.289,22.01,2.0,5305.0,0.0,0.0,
2025-08-14T22:45:57.175Z,3,GR86-010-16,15.6,0.116,0.281,22.01,2.0,,0.0,0.0,92.78
2025-08-14T22:45:57.218Z,3,GR86-010-16,15.6,0.114,0.269,22.01,2.0,,0.0,0.0,
2025-08-14T22:45:57.261Z,3,GR86-010-16,15.6,0.107,0.244,21.98,2.0,,0.0,0.0,
2025-08-14T22:45:57.304Z,3,GR86-010-16,15.6,0.092,0.266,21.98,2.0,,0.0,0.0,
2025-08-14T22:45:57.348Z,3,GR86-010-16,15.6,0.092,0.253,21.98,2.0,5345.0,0.0,0.0,
2025-08-14T22:45:57.434Z,3,GR86-010-16,15.6,0.092,0.261,21.98,2.0,,0.0,0.0,93.41
2025-08-14T22:45:57.522Z,3,GR86-010-16,14.5,0.094,0.25,21.98,2.0,,0.0,0.0,
2025-08-14T22:45:57.565Z,3,GR86-010-16,12.7,0.097,0.224,21.98,2.0,5376.0,0.0,0.0,
2025-08-14T22:45:57.608Z,3,GR86-010-16,9.7,0.089,0.219,21.98,2.0,,0.0,0.0,94.16
2025-08-14T22:45:57.651Z,3,GR86-010-16,6.300000000000001,0.097,0.175,22.0,2.0,,0.0,0.0,
2025-08-14T22:45:57.694Z,3,GR86-010-16,3.5,0.096,0.153,21.99,2.0,,0.0,0.0,
2025-08-14T22:45:57.737Z,3,GR86-010-16,1.2000000000000002,0.096,0.101,21.98,2.0,,0.0,0.0,
2025-08-14T22:45:57.782Z,3,GR86-010-16,-2.6,0.101,0.048,22.0,2.0,5416.0,0.0,0.0,
2025-08-14T22:45:57.825Z,3,GR86-010-16,-5.0,0.096,0.013,22.02,2.0,,0.0,0.0,94.86
2025-08-14T22:45:57.868Z,3,GR86-010-16,-7.2,0.091,-0.032,22.02,2.0,,0.0,0.0,
2025-08-14T22:45:57.911Z,3,GR86-010-16,-9.3,0.082,-0.074,22.08,2.0,,0.0,0.0,
2025-08-14T22:45:57.954Z,3,GR86-010-16,-11.6,0.09,-0.119,22.17,2.0,,0.0,0.0,
2025-08-14T22:45:57.997Z,3,GR86-010-16,-13.8,0.087,-0.153,22.2,2.0,5492.0,0.0,0.0,
2025-08-14T22:45:58.041Z,3,GR86-010-16,-16.7,0.093,-0.207,22.4,2.0,,0.0,0.0,95.56
2025-08-14T22:45:58.084Z,3,GR86-010-16,-18.5,0.093,-0.244,22.48,2.0,,0.0,0.0,
2025-08-14T22:45:58.127Z,3,GR86-010-16,-20.200000000000003,0.077,-0.272,22.49,2.0,,0.0,0.0,
2025-08-14T22:45:58.170Z,3,GR86-010-16,-21.3,0.088,-0.317,22.74,2.0,,0.0,0.0,
2025-08-14T22:45:58.213Z,3,GR86-010-16,-21.5,0.078,-0.34,22.78,2.0,5493.0,0.0,0.0,
2025-08-14T22:45:58.256Z,3,GR86-010-16,-21.5,0.091,-0.365,22.79,2.0,,0.0,0.0,96.21
2025-08-14T22:45:58.299Z,3,GR86-010-16,-21.5,0.091,-0.372,22.99,2.0,,0.0,0.0,
2025-08-14T22:45:58.342Z,3,GR86-010-16,-21.5,0.095,-0.38,23.31,2.0,,0.0,0.0,
2025-08-14T22:45:58.385Z,3,GR86-010-16,-21.5,0.101,-0.384,23.4,2.0,,0.0,0.0,
2025-08-14T22:45:58.428Z,3,GR86-010-16,-21.5,0.082,-0.385,23.58,2.0,5563.0,0.0,0.0,
2025-08-14T22:45:58.471Z,3,GR86-010-16,-21.5,0.095,-0.395,24.24,2.0,,0.0,0.0,96.79
2025-08-14T22:45:58.514Z,3,GR86-010-16,-21.6,0.095,-0.391,25.76,2.0,,0.0,0.0,
2025-08-14T22:45:58.557Z,3,GR86-010-16,-20.700000000000003,0.109,-0.394,29.19,2.0,,0.0,0.0,
2025-08-14T22:45:58.601Z,3,GR86-010-16,-19.0,0.12,-0.359,33.660000000000004,2.0,,0.0,0.0,
2025-08-14T22:45:58.645Z,3,GR86-010-16,-17.6,0.133,-0.34,35.69,2.0,5575.0,0.0,0.0,
2025-08-14T22:45:58.688Z,3,GR86-010-16,-16.0,0.178,-0.333,36.49,2.0,,0.0,0.0,97.41
2025-08-14T22:45:58.731Z,3,GR86-010-16,-14.0,0.202,-0.335,36.72,2.0,,0.0,0.0,
2025-08-14T22:45:58.774Z,3,GR86-010-16,-11.5,0.224,-0.303,37.51,2.0,,0.0,0.0,
2025-08-14T22:45:58.817Z,3,GR86-010-16,-9.9,0.218,-0.266,39.95,2.0,,0.0,0.0,
2025-08-14T22:45:58.861Z,3,GR86-010-16,-8.8,0.195,-0.221,49.2,2.0,5658.0,0.0,0.0,
2025-08-14T22:45:58.903Z,3,GR86-010-16,-7.300000000000001,0.206,-0.19,56.620000000000005,2.0,,0.0,0.0,98.02
2025-08-14T22:45:58.946Z,3,GR86-010-16,-5.4,0.225,-0.165,74.54,2.0,,0.0,0.0,
2025-08-14T22:45:58.989Z,3,GR86-010-16,-2.8000000000000003,0.243,-0.134,98.38,2.0,,0.0,0.0,
2025-08-14T22:45:59.032Z,3,GR86-010-16,0.0,0.286,-0.109,99.91,2.0,,0.0,0.0,
2025-08-14T22:45:59.075Z,3,GR86-010-16,2.2,0.322,-0.069,99.88,2.0,5757.0,0.0,0.0,
2025-08-14T22:45:59.118Z,3,GR86-010-16,4.7,0.31,-0.023,99.89,2.0,,0.0,0.0,98.7
2025-08-14T22:45:59.161Z,3,GR86-010-16,7.5,0.276,0.041,99.88,2.0,,0.0,0.0,
2025-08-14T22:45:59.204Z,3,GR86-010-16,8.9,0.275,0.08,99.88,2.0,,0.0,0.0,
2025-08-14T22:45:59.247Z,3,GR86-010-16,10.4,0.276,0.121,99.89,2.0,,0.0,0.0,
2025-08-14T22:45:59.291Z,3,GR86-010-16,11.8,0.285,0.149,99.89,2.0,5779.0,0.0,0.0,
2025-08-14T22:45:59.334Z,3,GR86-010-16,13.2,0.287,0.19,99.88,2.0,,0.0,0.0,101.29
2025-08-14T22:45:59.377Z,3,GR86-010-16,14.1,0.283,0.22,99.88,2.0,,0.0,0.0,
2025-08-14T22:45:59.422Z,3,GR86-010-16,14.6,0.268,0.278,99.87,2.0,,0.0,0.0,
2025-08-14T22:45:59.465Z,3,GR86-010-16,14.6,0.284,0.315,99.87,2.0,,0.0,0.0,
2025-08-14T22:45:59.508Z,3,GR86-010-16,14.6,0.298,0.333,99.89,2.0,5918.0,0.0,0.0,
2025-08-14T22:45:59.551Z,3,GR86-010-16,14.6,0.287,0.338,99.9,2.0,,0.0,0.0,103.13
2025-08-14T22:45:59.594Z,3,GR86-010-16,14.6,0.276,0.334,99.91,2.0,,0.0,0.0,
2025-08-14T22:45:59.637Z,3,GR86-010-16,14.6,0.27,0.345,99.9,2.0,,0.0,0.0,
2025-08-14T22:45:59.681Z,3,GR86-010-16,14.6,0.276,0.349,99.89,2.0,,0.0,0.0,
2025-08-14T22:45:59.725Z,3,GR86-010-16,14.5,0.275,0.359,99.88,2.0,6119.0,0.0,0.0,
2025-08-14T22:45:59.768Z,3,GR86-010-16,14.3,0.294,0.33,99.91,2.0,,0.0,0.0,105.01
2025-08-14T22:45:59.811Z,3,GR86-010-16,14.0,0.291,0.326,99.89,2.0,,0.0,0.0,
2025-08-14T22:45:59.897Z,3,GR86-010-16,12.6,0.284,0.298,99.91,2.0,,0.0,0.0,
2025-08-14T22:45:59.941Z,3,GR86-010-16,9.9,0.273,0.262,99.93,2.0,6275.0,0.0,0.0,
2025-08-14T22:45:59.983Z,3,GR86-010-16,9.6,0.28,0.248,99.91,2.0,,0.0,0.0,106.87
2025-08-14T22:46:00.027Z,3,GR86-010-16,9.5,0.283,0.222,99.9,2.0,,0.0,0.0,
2025-08-14T22:46:00.070Z,3,GR86-010-16,9.5,0.282,0.23,99.91,2.0,,0.0,0.0,
2025-08-14T22:46:00.113Z,3,GR86-010-16,9.0,0.285,0.199,99.9,2.0,,0.0,0.0,
2025-08-14T22:46:00.156Z,3,GR86-010-16,8.0,0.267,0.199,99.92,2.0,6368.0,0.0,0.0,
2025-08-14T22:46:00.199Z,3,GR86-010-16,6.7,0.274,0.187,99.91,2.0,,0.0,0.0,108.73
2025-08-14T22:46:00.242Z,3,GR86-010-16,5.4,0.277,0.144,99.92,2.0,,0.0,0.0,
2025-08-14T22:46:00.285Z,3,GR86-010-16,4.7,0.282,0.112,99.91,2.0,,0.0,0.0,
2025-08-14T22:46:00.328Z,3,GR86-010-16,3.7,0.27,0.114,99.91,2.0,,0.0,0.0,
2025-08-14T22:46:00.372Z,3,GR86-010-16,1.8,0.276,0.081,99.91,2.0,6422.0,0.0,0.0,
2025-08-14T22:46:00.415Z,3,GR86-010-16,-0.7000000000000001,0.262,0.067,99.92,2.0,,0.0,0.0,110.62
2025-08-14T22:46:00.458Z,3,GR86-010-16,-3.1,0.272,0.036,99.91,2.0,,0.0,0.0,
2025-08-14T22:46:00.501Z,3,GR86-010-16,-6.300000000000001,0.057,-0.022,99.91,2.0,,0.0,0.0,
2025-08-14T22:46:00.544Z,3,GR86-010-16,-8.0,-0.074,-0.036,99.91,3.0,,0.0,0.0,
2025-08-14T22:46:00.587Z,3,GR86-010-16,-9.0,0.081,-0.106,99.91,3.0,6567.0,0.0,0.0,
2025-08-14T22:46:00.631Z,3,GR86-010-16,-9.2,0.554,-0.194,99.92,3.0,,0.0,0.0,112.39
2025-08-14T22:46:00.675Z,3,GR86-010-16,-10.3,0.401,-0.202,99.91,3.0,,0.0,0.0,
2025-08-14T22:46:00.718Z,3,GR86-010-16,-12.1,0.365,-0.192,99.9,3.0,,0.0,0.0,
2025-08-14T22:46:00.762Z,3,GR86-010-16,-15.1,0.119,-0.291,99.9,3.0,,0.0,0.0,
2025-08-14T22:46:00.805Z,3,GR86-010-16,-16.6,0.128,-0.292,99.91,3.0,6273.0,0.0,0.0,
2025-08-14T22:46:00.848Z,3,GR86-010-16,-16.8,0.22,-0.353,99.91,3.0,,0.0,0.0,114.17
2025-08-14T22:46:00.891Z,3,GR86-010-16,-16.8,0.262,-0.383,99.91,3.0,,0.0,0.0,
2025-08-14T22:46:00.934Z,3,GR86-010-16,-17.0,0.248,-0.372,99.91,3.0,,0.0,0.0,
2025-08-14T22:46:00.977Z,3,GR86-010-16,-17.6,0.198,-0.417,99.91,3.0,,0.0,0.0,
2025-08-14T22:46:01.022Z,3,GR86-010-16,-18.1,0.192,-0.429,99.9,3.0,5412.0,0.0,0.0,
2025-08-14T22:46:01.065Z,3,GR86-010-16,-18.1,0.207,-0.466,99.92,3.0,,0.0,0.0,115.35
2025-08-14T22:46:01.108Z,3,GR86-010-16,-18.1,0.224,-0.464,99.9,3.0,,0.0,0.0,
2025-08-14T22:46:01.152Z,3,GR86-010-16,-18.1,0.209,-0.457,99.91,3.0,,0.0,0.0,
2025-08-14T22:46:01.195Z,3,GR86-010-16,-18.1,0.205,-0.452,99.91,3.0,,0.0,0.0,
2025-08-14T22:46:01.238Z,3,GR86-010-16,-18.1,0.207,-0.457,99.92,3.0,5549.0,0.0,0.0,
2025-08-14T22:46:01.282Z,3,GR86-010-16,-18.1,0.213,-0.468,99.91,3.0,,0.0,0.0,117.1
2025-08-14T22:46:01.324Z,3,GR86-010-16,-18.1,0.206,-0.432,99.91,3.0,,0.0,0.0,
2025-08-14T22:46:01.367Z,3,GR86-010-16,-18.1,0.211,-0.438,85.7,3.0,,0.0,0.0,
2025-08-14T22:46:01.410Z,3,GR86-010-16,-18.0,0.214,-0.421,74.75,3.0,,0.0,0.0,
2025-08-14T22:46:01.453Z,3,GR86-010-16,-16.7,0.204,-0.402,75.9,3.0,5576.0,0.0,0.0,
2025-08-14T22:46:01.496Z,3,GR86-010-16,-14.9,0.207,-0.403,76.57000000000001,3.0,,0.0,0.0,118.52
2025-08-14T22:46:01.539Z,3,GR86-010-16,-11.9,0.213,-0.373,76.28,3.0,,0.0,0.0,
2025-08-14T22:46:01.582Z,3,GR86-010-16,-7.6,0.216,-0.318,75.92,3.0,,0.0,0.0,
2025-08-14T22:46:01.625Z,3,GR86-010-16,-4.7,0.214,-0.267,74.49,3.0,,0.0,0.0,
2025-08-14T22:46:01.668Z,3,GR86-010-16,-2.7,0.21,-0.242,72.24,3.0,5641.0,0.0,0.0,
2025-08-14T22:46:01.711Z,3,GR86-010-16,0.5,0.21,-0.184,70.97,3.0,,0.0,0.0,119.87
2025-08-14T22:46:01.754Z,3,GR86-010-16,2.0,0.211,-0.132,68.04,3.0,,0.0,0.0,
2025-08-14T22:46:01.797Z,3,GR86-010-16,4.7,0.219,-0.087,62.1,3.0,,0.0,0.0,
2025-08-14T22:46:01.841Z,3,GR86-010-16,9.3,0.21,-0.003,59.7,3.0,,0.0,0.0,
2025-08-14T22:46:01.884Z,3,GR86-010-16,11.7,0.206,0.068,59.03,3.0,5697.0,0.0,0.0,
2025-08-14T22:46:01.927Z,3,GR86-010-16,13.2,0.189,0.151,58.81,3.0,,0.0,0.0,122.48
2025-08-14T22:46:01.970Z,3,GR86-010-16,14.1,0.198,0.221,58.96,3.0,,0.0,0.0,
2025-08-14T22:46:02.013Z,3,GR86-010-16,14.4,0.214,0.27,58.88,3.0,,0.0,0.0,
2025-08-14T22:46:02.056Z,3,GR86-010-16,14.5,0.194,0.335,57.86,3.0,,0.0,0.0,
2025-08-14T22:46:02.099Z,3,GR86-010-16,14.5,0.2,0.385,57.04,3.0,5754.0,0.0,0.0,
2025-08-14T22:46:02.142Z,3,GR86-010-16,14.5,0.194,0.438,55.74,3.0,,0.0,0.0,123.94
2025-08-14T22:46:02.185Z,3,GR86-010-16,14.5,0.207,0.451,54.8,3.0,,0.0,0.0,
2025-08-14T22:46:02.228Z,3,GR86-010-16,14.5,0.198,0.471,54.72,3.0,,0.0,0.0,
2025-08-14T22:46:02.271Z,3,GR86-010-16,14.5,0.192,0.494,54.71,3.0,,0.0,0.0,
2025-08-14T22:46:02.314Z,3,GR86-010-16,14.5,0.208,0.49,54.72,3.0,5845.0,0.0,0.0,
2025-08-14T22:46:02.357Z,3,GR86-010-16,14.5,0.203,0.479,54.76,3.0,,0.0,0.0,125.29
2025-08-14T22:46:02.400Z,3,GR86-010-16,14.5,0.208,0.475,54.83,3.0,,0.0,0.0,
2025-08-14T22:46:02.443Z,3,GR86-010-16,14.5,0.191,0.469,54.88,3.0,,0.0,0.0,
2025-08-14T22:46:02.486Z,3,GR86-010-16,14.5,0.197,0.458,54.96,3.0,,0.0,0.0,
2025-08-14T22:46:02.529Z,3,GR86-010-16,14.5,0.202,0.44,55.07,3.0,5931.0,0.0,0.0,
2025-08-14T22:46:02.572Z,3,GR86-010-16,14.5,0.205,0.436,55.09,3.0,,0.0,0.0,126.53
2025-08-14T22:46:02.615Z,3,GR86-010-16,14.5,0.193,0.439,55.14,3.0,,0.0,0.0,
2025-08-14T22:46:02.658Z,3,GR86-010-16,14.2,0.21,0.417,55.18,3.0,,0.0,0.0,
2025-08-14T22:46:02.701Z,3,GR86-010-16,11.9,0.214,0.389,55.11,3.0,,0.0,0.0,
2025-08-14T22:46:02.744Z,3,GR86-010-16,9.9,0.21,0.352,55.07,3.0,5988.0,0.0,0.0,
2025-08-14T22:46:02.787Z,3,GR86-010-16,7.2,0.198,0.33,55.03,3.0,,0.0,0.0,127.74
2025-08-14T22:46:02.830Z,3,GR86-010-16,3.7,0.204,0.291,55.01,3.0,,0.0,0.0,
2025-08-14T22:46:02.873Z,3,GR86-010-16,1.6,0.217,0.243,54.97,3.0,,0.0,0.0,
2025-08-14T22:46:02.916Z,3,GR86-010-16,-2.1,0.204,0.187,54.96,3.0,,0.0,0.0,
2025-08-14T22:46:02.959Z,3,GR86-010-16,-5.0,0.18,0.143,55.2,3.0,6041.0,0.0,0.0,
2025-08-14T22:46:03.002Z,3,GR86-010-16,-9.3,0.181,0.041,55.78,3.0,,0.0,0.0,128.98
2025-08-14T22:46:03.045Z,3,GR86-010-16,-11.2,0.201,-0.04,56.120000000000005,3.0,,0.0,0.0,
2025-08-14T22:46:03.088Z,3,GR86-010-16,-13.3,0.207,-0.122,56.14,3.0,,0.0,0.0,
2025-08-14T22:46:03.131Z,3,GR86-010-16,-15.1,0.184,-0.181,55.96,3.0,,0.0,0.0,
2025-08-14T22:46:03.174Z,3,GR86-010-16,-15.8,0.182,-0.254,55.89,3.0,6135.0,0.0,0.0,
2025-08-14T22:46:03.218Z,3,GR86-010-16,-17.2,0.186,-0.326,55.96,3.0,,0.0,0.0,130.22
2025-08-14T22:46:03.262Z,3,GR86-010-16,-18.8,0.179,-0.416,55.85,3.0,,0.0,0.0,
2025-08-14T22:46:03.304Z,3,GR86-010-16,-20.0,0.192,-0.468,55.8,3.0,,0.0,0.0,
2025-08-14T22:46:03.348Z,3,GR86-010-16,-20.200000000000003,0.177,-0.48,55.75,3.0,,0.0,0.0,
2025-08-14T22:46:03.391Z,3,GR86-010-16,-20.3,0.161,-0.511,55.68,3.0,6158.0,0.0,0.0,
2025-08-14T22:46:03.434Z,3,GR86-010-16,-20.3,0.19,-0.529,55.75,3.0,,0.0,0.0,131.48
2025-08-14T22:46:03.477Z,3,GR86-010-16,-20.3,0.192,-0.544,55.77,3.0,,0.0,0.0,
2025-08-14T22:46:03.522Z,3,GR86-010-16,-20.3,0.2,-0.5640000000000001,55.72,3.0,,0.0,0.0,
2025-08-14T22:46:03.565Z,3,GR86-010-16,-20.3,0.177,-0.5690000000000001,55.74,3.0,,0.0,0.0,
2025-08-14T22:46:03.608Z,3,GR86-010-16,-20.3,0.151,-0.5650000000000001,55.82,3.0,6259.0,0.0,0.0,
2025-08-14T22:46:03.651Z,3,GR86-010-16,-20.3,0.178,-0.562,55.78,3.0,,0.0,0.0,132.77
2025-08-14T22:46:03.694Z,3,GR86-010-16,-20.3,0.207,-0.5740000000000001,55.78,3.0,,0.0,0.0,
2025-08-14T22:46:03.737Z,3,GR86-010-16,-20.3,0.185,-0.558,55.71,3.0,,0.0,0.0,
2025-08-14T22:46:03.782Z,3,GR86-010-16,-20.3,0.198,-0.582,55.7,3.0,,0.0,0.0,
2025-08-14T22:46:03.825Z,3,GR86-010-16,-20.3,0.165,-0.5710000000000001,55.72,3.0,6321.0,0.0,0.0,
2025-08-14T22:46:03.868Z,3,GR86-010-16,-20.3,0.174,-0.5630000000000001,55.74,3.0,,0.0,0.0,133.92000000000002
2025-08-14T22:46:03.911Z,3,GR86-010-16,-20.3,0.194,-0.544,55.75,3.0,,0.0,0.0,
2025-08-14T22:46:03.954Z,3,GR86-010-16,-20.3,0.192,-0.533,55.7,3.0,,0.0,0.0,
2025-08-14T22:46:03.997Z,3,GR86-010-16,-19.700000000000003,0.16,-0.514,55.77,3.0,,0.0,0.0,
2025-08-14T22:46:04.041Z,3,GR86-010-16,-17.8,0.186,-0.517,55.78,3.0,6379.0,0.0,0.0,
2025-08-14T22:46:04.084Z,3,GR86-010-16,-16.0,0.157,-0.492,55.81,3.0,,0.0,0.0,134.99
2025-08-14T22:46:04.127Z,3,GR86-010-16,-14.9,0.188,-0.478,55.75,3.0,,0.0,0.0,
2025-08-14T22:46:04.170Z,3,GR86-010-16,-13.5,0.203,-0.467,55.61,3.0,,0.0,0.0,
2025-08-14T22:46:04.213Z,3,GR86-010-16,-11.8,0.182,-0.423,54.98,3.0,,0.0,0.0,
2025-08-14T22:46:04.256Z,3,GR86-010-16,-10.3,0.162,-0.405,54.58,3.0,6386.0,0.0,0.0,
2025-08-14T22:46:04.299Z,3,GR86-010-16,-6.800000000000001,0.179,-0.403,54.58,3.0,,0.0,0.0,136.12
2025-08-14T22:46:04.342Z,3,GR86-010-16,-2.7,0.167,-0.304,54.35,3.0,,0.0,0.0,
2025-08-14T22:46:04.385Z,3,GR86-010-16,0.6000000000000001,0.19,-0.269,54.25,3.0,,0.0,0.0,
2025-08-14T22:46:04.428Z,3,GR86-010-16,3.3000000000000003,0.194,-0.202,54.17,3.0,,0.0,0.0,
2025-08-14T22:46:04.471Z,3,GR86-010-16,5.4,0.177,-0.115,53.84,3.0,6482.0,0.0,0.0,
2025-08-14T22:46:04.514Z,3,GR86-010-16,7.0,0.172,-0.043,52.41,3.0,,0.0,0.0,137.20000000000002
2025-08-14T22:46:04.557Z,3,GR86-010-16,7.7,0.179,0.006,50.48,3.0,,0.0,0.0,
2025-08-14T22:46:04.645Z,3,GR86-010-16,9.3,0.174,0.149,46.04,3.0,,0.0,0.0,
2025-08-14T22:46:04.688Z,3,GR86-010-16,9.7,0.162,0.217,45.59,3.0,6532.0,0.0,0.0,
2025-08-14T22:46:04.731Z,3,GR86-010-16,9.9,0.141,0.297,44.67,3.0,,0.0,0.0,139.69
2025-08-14T22:46:04.774Z,3,GR86-010-16,10.0,0.149,0.345,44.11,3.0,,0.0,0.0,
2025-08-14T22:46:04.817Z,3,GR86-010-16,10.1,0.167,0.369,43.47,3.0,,0.0,0.0,
2025-08-14T22:46:04.861Z,3,GR86-010-16,10.2,0.138,0.413,42.03,3.0,,0.0,0.0,
2025-08-14T22:46:04.904Z,3,GR86-010-16,10.2,0.161,0.417,41.58,3.0,6544.0,0.0,0.0,
2025-08-14T22:46:04.947Z,3,GR86-010-16,10.2,0.152,0.426,41.4,3.0,,0.0,0.0,140.96
2025-08-14T22:46:04.991Z,3,GR86-010-16,10.2,0.132,0.445,41.11,3.0,,0.0,0.0,
2025-08-14T22:46:05.034Z,3,GR86-010-16,10.2,0.124,0.451,40.33,3.0,,0.0,0.0,
2025-08-14T22:46:05.077Z,3,GR86-010-16,10.2,0.14,0.45,39.75,3.0,,0.0,0.0,
2025-08-14T22:46:05.122Z,3,GR86-010-16,10.2,0.118,0.447,39.62,3.0,6676.0,0.0,0.0,
2025-08-14T22:46:05.165Z,3,GR86-010-16,10.2,0.141,0.44,39.67,3.0,,0.0,0.0,142.08
2025-08-14T22:46:05.208Z,3,GR86-010-16,10.2,0.158,0.407,39.72,3.0,,0.0,0.0,
2025-08-14T22:46:05.251Z,3,GR86-010-16,10.2,0.145,0.384,39.74,3.0,,0.0,0.0,
2025-08-14T22:46:05.294Z,3,GR86-010-16,10.2,0.122,0.378,39.77,3.0,,0.0,0.0,
2025-08-14T22:46:05.337Z,3,GR86-010-16,10.2,0.126,0.37,39.75,3.0,6713.0,0.0,0.0,
2025-08-14T22:46:05.381Z,3,GR86-010-16,10.2,0.116,0.354,39.77,3.0,,0.0,0.0,143.08
2025-08-14T22:46:05.424Z,3,GR86-010-16,9.2,0.122,0.347,39.78,3.0,,0.0,0.0,
2025-08-14T22:46:05.467Z,3,GR86-010-16,7.5,0.143,0.328,39.79,3.0,,0.0,0.0,
2025-08-14T22:46:05.510Z,3,GR86-010-16,5.9,0.155,0.269,39.81,3.0,,0.0,0.0,
2025-08-14T22:46:05.553Z,3,GR86-010-16,4.2,0.128,0.239,39.89,3.0,6711.0,0.0,0.0,
2025-08-14T22:46:05.596Z,3,GR86-010-16,2.7,0.117,0.219,40.15,3.0,,0.0,0.0,144.0
2025-08-14T22:46:05.639Z,3,GR86-010-16,1.6,0.128,0.19,40.46,3.0,,0.0,0.0,
2025-08-14T22:46:05.682Z,3,GR86-010-16,-0.3,0.122,0.123,40.87,3.0,,0.0,0.0,
2025-08-14T22:46:05.725Z,3,GR86-010-16,-2.1,0.129,0.098,41.18,3.0,,0.0,0.0,
2025-08-14T22:46:05.768Z,3,GR86-010-16,-4.4,0.155,0.037,41.09,3.0,6794.0,0.0,0.0,
2025-08-14T22:46:05.811Z,3,GR86-010-16,-6.7,0.168,-0.02,40.69,3.0,,0.0,0.0,144.91
2025-08-14T22:46:05.854Z,3,GR86-010-16,-8.700000000000001,0.139,-0.073,40.39,3.0,,0.0,0.0,
2025-08-14T22:46:05.897Z,3,GR86-010-16,-10.1,-0.035,-0.118,41.44,3.0,,0.0,0.0,
2025-08-14T22:46:05.941Z,3,GR86-010-16,-11.0,-0.027,-0.153,42.2,4.0,,0.0,0.0,
2025-08-14T22:46:05.984Z,3,GR86-010-16,-11.1,0.438,-0.26,39.59,4.0,6833.0,0.0,0.0,
2025-08-14T22:46:06.027Z,3,GR86-010-16,-11.6,0.226,-0.277,38.77,4.0,,0.0,0.0,145.85
2025-08-14T22:46:06.070Z,3,GR86-010-16,-12.6,0.184,-0.289,40.95,4.0,,0.0,0.0,
2025-08-14T22:46:06.113Z,3,GR86-010-16,-13.2,-0.003,-0.369,44.69,4.0,,0.0,0.0,
2025-08-14T22:46:06.156Z,3,GR86-010-16,-13.2,0.054,-0.425,42.08,4.0,,0.0,0.0,
2025-08-14T22:46:06.199Z,3,GR86-010-16,-13.2,0.141,-0.404,40.87,4.0,6493.0,0.0,0.0,
2025-08-14T22:46:06.242Z,3,GR86-010-16,-13.4,0.12,-0.475,41.88,4.0,,0.0,0.0,146.8
2025-08-14T22:46:06.285Z,3,GR86-010-16,-14.0,0.062,-0.445,41.24,4.0,,0.0,0.0,
2025-08-14T22:46:06.328Z,3,GR86-010-16,-14.4,0.073,-0.476,38.45,4.0,,0.0,0.0,
2025-08-14T22:46:06.372Z,3,GR86-010-16,-14.4,0.092,-0.507,35.1,4.0,,0.0,0.0,
2025-08-14T22:46:06.415Z,3,GR86-010-16,-14.4,0.112,-0.484,33.03,4.0,5717.0,0.0,0.0,
2025-08-14T22:46:06.458Z,3,GR86-010-16,-14.7,0.096,-0.474,31.98,4.0,,0.0,0.0,147.57
2025-08-14T22:46:06.501Z,3,GR86-010-16,-16.3,0.086,-0.451,29.55,4.0,,0.0,0.0,
2025-08-14T22:46:06.544Z,3,GR86-010-16,-16.900000000000002,0.088,-0.501,26.05,4.0,,0.0,0.0,
2025-08-14T22:46:06.587Z,3,GR86-010-16,-16.900000000000002,0.071,-0.52,23.66,4.0,,0.0,0.0,
2025-08-14T22:46:06.631Z,3,GR86-010-16,-16.900000000000002,0.03,-0.505,22.71,4.0,5862.0,0.0,0.0,
2025-08-14T22:46:06.675Z,3,GR86-010-16,-16.900000000000002,0.013,-0.462,20.57,4.0,,0.0,0.0,148.63
2025-08-14T22:46:06.718Z,3,GR86-010-16,-16.900000000000002,0.003,-0.463,14.8,4.0,,0.0,0.0,
2025-08-14T22:46:06.762Z,3,GR86-010-16,-16.900000000000002,-0.021,-0.466,10.0,4.0,,0.0,0.0,
2025-08-14T22:46:06.805Z,3,GR86-010-16,-16.900000000000002,-0.06,-0.49,12.65,4.0,,0.0,0.0,
2025-08-14T22:46:06.848Z,3,GR86-010-16,-16.900000000000002,-0.074,-0.5,12.85,4.0,5836.0,0.0,0.0,
2025-08-14T22:46:06.891Z,3,GR86-010-16,-16.900000000000002,-0.061,-0.512,12.7,4.0,,0.0,0.0,149.39
2025-08-14T22:46:06.934Z,3,GR86-010-16,-16.900000000000002,-0.069,-0.542,11.96,4.0,,0.0,0.0,
2025-08-14T22:46:06.977Z,3,GR86-010-16,-16.900000000000002,-0.085,-0.523,11.9,4.0,,0.0,0.0,
2025-08-14T22:46:07.022Z,3,GR86-010-16,-16.900000000000002,-0.071,-0.519,13.71,4.0,,0.0,0.0,
2025-08-14T22:46:07.065Z,3,GR86-010-16,-16.900000000000002,-0.083,-0.515,13.69,4.0,5860.0,0.0,0.0,
2025-08-14T22:46:07.108Z,3,GR86-010-16,-16.900000000000002,-0.102,-0.495,13.82,4.0,,0.0,0.0,149.87
2025-08-14T22:46:07.152Z,3,GR86-010-16,-16.900000000000002,-0.113,-0.511,14.08,4.0,,0.0,0.0,
2025-08-14T22:46:07.195Z,3,GR86-010-16,-15.7,-0.101,-0.521,13.26,4.0,,0.0,0.0,
2025-08-14T22:46:07.238Z,3,GR86-010-16,-14.3,-0.077,-0.526,11.83,4.0,,0.0,0.0,
2025-08-14T22:46:07.282Z,3,GR86-010-16,-10.9,-0.092,-0.489,7.42,4.0,5751.0,0.0,0.0,
2025-08-14T22:46:07.325Z,3,GR86-010-16,-8.200000000000001,-0.062,-0.463,5.39,4.0,,0.0,0.0,149.5
2025-08-14T22:46:07.368Z,3,GR86-010-16,-5.7,-0.073,-0.396,4.12,4.0,,0.0,0.0,
2025-08-14T22:46:07.411Z,3,GR86-010-16,-3.4000000000000004,-0.087,-0.313,3.67,4.0,,0.0,0.0,
2025-08-14T22:46:07.454Z,3,GR86-010-16,-1.1,-0.208,-0.241,3.27,4.0,,0.0,0.0,
2025-08-14T22:46:07.497Z,3,GR86-010-16,0.5,-0.197,-0.213,3.04,4.0,5716.0,2.795,3.005,
2025-08-14T22:46:07.541Z,3,GR86-010-16,1.8,-0.161,-0.075,2.81,4.0,,2.58,3.005,149.12
2025-08-14T22:46:07.583Z,3,GR86-010-16,3.1,-0.151,-0.035,2.73,4.0,,2.61,3.065,
2025-08-14T22:46:07.626Z,3,GR86-010-16,4.800000000000001,-0.156,0.017,2.67,4.0,,2.795,3.1,
2025-08-14T22:46:07.669Z,3,GR86-010-16,6.5,-0.167,0.072,2.63,4.0,,3.31,3.615,
2025-08-14T22:46:07.712Z,3,GR86-010-16,7.4,-0.174,0.153,2.62,4.0,5794.0,4.03,4.12,
2025-08-14T22:46:07.755Z,3,GR86-010-16,7.5,-0.188,0.209,2.6,4.0,,4.21,4.47,148.55
2025-08-14T22:46:07.798Z,3,GR86-010-16,7.6,-0.206,0.241,2.56,4.0,,4.565,4.805,
2025-08-14T22:46:07.842Z,3,GR86-010-16,7.7,-0.207,0.311,2.56,4.0,,5.28,5.465,
2025-08-14T22:46:07.885Z,3,GR86-010-16,7.7,-0.199,0.313,2.54,4.0,,5.585,5.86,
2025-08-14T22:46:07.928Z,3,GR86-010-16,7.7,-0.185,0.325,2.53,4.0,5676.0,5.905,6.0600000000000005,
2025-08-14T22:46:07.971Z,3,GR86-010-16,7.7,-0.213,0.34,2.52,4.0,,6.3,6.425,147.4
2025-08-14T22:46:08.014Z,3,GR86-010-16,7.7,-0.22,0.362,2.52,4.0,,6.655,6.865,
2025-08-14T22:46:08.057Z,3,GR86-010-16,7.7,-0.234,0.397,2.51,4.0,,6.655,6.9,
2025-08-14T22:46:08.101Z,3,GR86-010-16,7.7,-0.239,0.399,2.51,4.0,,6.655,6.9,
2025-08-14T22:46:08.143Z,3,GR86-010-16,7.7,-0.245,0.378,2.52,4.0,5606.0,6.455,6.9,
2025-08-14T22:46:08.186Z,3,GR86-010-16,7.7,-0.222,0.365,2.53,4.0,,6.24,6.545,146.06
2025-08-14T22:46:08.229Z,3,GR86-010-16,7.7,-0.192,0.349,2.54,4.0,,4.305,5.11,
2025-08-14T22:46:08.272Z,3,GR86-010-16,7.7,-0.181,0.36,2.5500000000000003,4.0,,2.4250000000000003,3.13,
2025-08-14T22:46:08.315Z,3,GR86-010-16,7.7,-0.175,0.348,2.56,4.0,,0.0,2.275,
2025-08-14T22:46:08.358Z,3,GR86-010-16,7.7,-0.152,0.328,2.58,4.0,5511.0,0.0,2.045,
2025-08-14T22:46:08.401Z,3,GR86-010-16,7.7,-0.16,0.311,2.6,4.0,,0.0,2.015,144.51
2025-08-14T22:46:08.444Z,3,GR86-010-16,7.7,-0.157,0.301,2.62,4.0,,0.0,2.075,
2025-08-14T22:46:08.530Z,3,GR86-010-16,7.7,-0.14,0.282,2.66,4.0,,0.0,2.015,
2025-08-14T22:46:08.573Z,3,GR86-010-16,7.7,-0.164,0.278,2.69,4.0,5516.0,0.0,0.0,
2025-08-14T22:46:08.616Z,3,GR86-010-16,7.6,-0.151,0.268,2.7,4.0,,0.0,0.0,143.19
2025-08-14T22:46:08.659Z,3,GR86-010-16,6.5,-0.123,0.238,2.73,4.0,,0.0,0.0,
2025-08-14T22:46:08.702Z,3,GR86-010-16,3.7,-0.142,0.222,2.72,4.0,,0.0,0.0,
2025-08-14T22:46:08.745Z,3,GR86-010-16,1.8,-0.107,0.169,2.7,4.0,,0.0,0.0,
2025-08-14T22:46:08.788Z,3,GR86-010-16,0.2,-0.117,0.131,2.7,4.0,5463.0,0.0,0.0,
2025-08-14T22:46:08.831Z,3,GR86-010-16,-1.3,-0.147,0.095,2.7,4.0,,0.0,0.0,142.05
2025-08-14T22:46:08.874Z,3,GR86-010-16,-3.0,-0.155,0.071,2.69,4.0,,0.0,0.0,
2025-08-14T22:46:08.917Z,3,GR86-010-16,-5.0,-0.128,0.023,2.69,4.0,,0.0,0.0,
2025-08-14T22:46:08.961Z,3,GR86-010-16,-8.4,-0.144,-0.041,2.69,4.0,,0.0,0.0,
2025-08-14T22:46:09.003Z,3,GR86-010-16,-10.7,-0.111,-0.116,2.66,4.0,5434.0,0.0,0.0,
2025-08-14T22:46:09.046Z,3,GR86-010-16,-12.6,-0.123,-0.173,2.67,4.0,,0.0,0.0,141.20000000000002
2025-08-14T22:46:09.089Z,3,GR86-010-16,-14.1,-0.152,-0.2,2.66,4.0,,0.0,0.0,
2025-08-14T22:46:09.132Z,3,GR86-010-16,-15.0,-0.151,-0.253,2.68,4.0,,0.0,0.0,
2025-08-14T22:46:09.175Z,3,GR86-010-16,-15.7,-0.122,-0.308,2.7,4.0,,0.0,0.0,
2025-08-14T22:46:09.218Z,3,GR86-010-16,-16.2,-0.123,-0.361,2.84,4.0,5361.0,0.0,0.0,
2025-08-14T22:46:09.262Z,3,GR86-010-16,-16.900000000000002,-0.129,-0.435,4.24,4.0,,0.0,0.0,140.32
2025-08-14T22:46:09.305Z,3,GR86-010-16,-17.400000000000002,-0.133,-0.464,4.78,4.0,,0.0,0.0,
2025-08-14T22:46:09.348Z,3,GR86-010-16,-18.1,-0.152,-0.474,4.87,4.0,,0.0,0.0,
2025-08-14T22:46:09.391Z,3,GR86-010-16,-18.7,-0.142,-0.491,4.94,4.0,,0.0,0.0,
2025-08-14T22:46:09.434Z,3,GR86-010-16,-19.0,-0.133,-0.52,5.0,4.0,5361.0,0.0,0.0,
2025-08-14T22:46:09.477Z,3,GR86-010-16,-19.0,-0.121,-0.534,5.0200000000000005,4.0,,0.0,0.0,139.43
2025-08-14T22:46:09.522Z,3,GR86-010-16,-19.0,-0.122,-0.556,5.03,4.0,,0.0,0.0,
2025-08-14T22:46:09.565Z,3,GR86-010-16,-19.0,-0.145,-0.557,5.04,4.0,,0.0,0.0,
2025-08-14T22:46:09.608Z,3,GR86-010-16,-19.0,-0.144,-0.549,5.1000000000000005,4.0,,0.0,0.0,
2025-08-14T22:46:09.651Z,3,GR86-010-16,-19.0,-0.128,-0.5710000000000001,6.18,4.0,5338.0,0.0,0.0,
2025-08-14T22:46:09.694Z,3,GR86-010-16,-19.0,-0.13,-0.588,11.12,4.0,,0.0,0.0,138.61
2025-08-14T22:46:09.737Z,3,GR86-010-16,-19.0,-0.14,-0.5690000000000001,16.85,4.0,,0.0,0.0,
2025-08-14T22:46:09.782Z,3,GR86-010-16,-18.9,-0.093,-0.561,17.72,4.0,,0.0,0.0,
2025-08-14T22:46:09.825Z,3,GR86-010-16,-18.5,-0.099,-0.508,18.1,4.0,,0.0,0.0,
2025-08-14T22:46:09.868Z,3,GR86-010-16,-17.7,-0.068,-0.501,18.8,4.0,5264.0,0.0,0.0,
2025-08-14T22:46:09.911Z,3,GR86-010-16,-16.3,-0.072,-0.484,20.74,4.0,,0.0,0.0,137.73
2025-08-14T22:46:09.954Z,3,GR86-010-16,-14.0,-0.051,-0.462,21.63,4.0,,0.0,0.0,
2025-08-14T22:46:09.997Z,3,GR86-010-16,-10.7,0.1,-0.417,21.65,4.0,,0.0,0.0,
2025-08-14T22:46:10.041Z,3,GR86-010-16,-6.4,-0.001,-0.349,22.08,4.0,,0.0,0.0,
2025-08-14T22:46:10.084Z,3,GR86-010-16,-4.6000000000000005,-0.029,-0.296,22.14,4.0,5232.0,0.0,0.0,
2025-08-14T22:46:10.127Z,3,GR86-010-16,-3.3000000000000003,0.042,-0.269,22.17,4.0,,0.0,0.0,135.98
2025-08-14T22:46:10.170Z,3,GR86-010-16,-2.3000000000000003,0.072,-0.212,22.17,4.0,,0.0,0.0,
2025-08-14T22:46:10.213Z,3,GR86-010-16,-1.1,0.037,-0.127,22.18,4.0,,0.0,0.0,
2025-08-14T22:46:10.256Z,3,GR86-010-16,0.4,0.03,-0.079,22.16,4.0,,0.0,0.0,
2025-08-14T22:46:10.299Z,3,GR86-010-16,1.5,0.046,-0.041,22.13,4.0,5366.0,0.0,0.0,
2025-08-14T22:46:10.342Z,3,GR86-010-16,3.9,0.051,0.037,22.15,4.0,,0.0,0.0,135.62
2025-08-14T22:46:10.385Z,3,GR86-010-16,5.4,0.047,0.078,22.13,4.0,,0.0,0.0,
2025-08-14T22:46:10.428Z,3,GR86-010-16,6.7,0.038,0.139,22.08,4.0,,0.0,0.0,
2025-08-14T22:46:10.471Z,3,GR86-010-16,7.5,0.029,0.204,21.93,4.0,,0.0,0.0,
2025-08-14T22:46:10.514Z,3,GR86-010-16,7.9,0.048,0.221,21.73,4.0,5286.0,0.0,0.0,
2025-08-14T22:46:10.557Z,3,GR86-010-16,7.9,0.048,0.231,21.55,4.0,,0.0,0.0,135.7
2025-08-14T22:46:10.601Z,3,GR86-010-16,7.9,0.046,0.276,21.47,4.0,,0.0,0.0,
2025-08-14T22:46:10.645Z,3,GR86-010-16,7.9,0.036,0.288,21.42,4.0,,0.0,0.0,
2025-08-14T22:46:10.688Z,3,GR86-010-16,7.9,0.026,0.315,21.41,4.0,,0.0,0.0,
2025-08-14T22:46:10.731Z,3,GR86-010-16,7.9,0.034,0.339,21.4,4.0,5327.0,0.0,0.0,
2025-08-14T22:46:10.774Z,3,GR86-010-16,8.0,0.04,0.317,21.41,4.0,,0.0,0.0,136.02
2025-08-14T22:46:10.817Z,3,GR86-010-16,8.3,0.042,0.307,21.41,4.0,,0.0,0.0,
2025-08-14T22:46:10.904Z,3,GR86-010-16,8.3,0.027,0.32,21.41,4.0,,0.0,0.0,
2025-08-14T22:46:10.948Z,3,GR86-010-16,8.3,0.018,0.334,21.47,4.0,5338.0,0.0,0.0,
2025-08-14T22:46:10.991Z,3,GR86-010-16,8.3,0.044,0.322,21.55,4.0,,0.0,0.0,136.5
2025-08-14T22:46:11.034Z,3,GR86-010-16,8.3,0.051,0.3,21.63,4.0,,0.0,0.0,
2025-08-14T22:46:11.294Z,3,GR86-010-16,8.4,0.036,0.333,21.77,4.0,5308.0,0.0,0.0,136.65
2025-08-14T22:46:11.337Z,3,GR86-010-16,8.3,0.028,0.301,21.74,4.0,,0.0,0.0,
2025-08-14T22:46:11.381Z,3,GR86-010-16,8.4,0.036,0.277,21.6,4.0,5323.0,0.0,0.0,
2025-08-14T22:46:11.425Z,3,GR86-010-16,8.1,0.023,0.277,21.19,4.0,,0.0,0.0,136.84
2025-08-14T22:46:11.468Z,3,GR86-010-16,6.7,0.037,0.253,20.92,4.0,,0.0,0.0,
2025-08-14T22:46:11.511Z,3,GR86-010-16,4.6000000000000005,0.043,0.206,20.9,4.0,,0.0,0.0,
2025-08-14T22:46:11.554Z,3,GR86-010-16,2.6,0.026,0.183,20.91,4.0,,0.0,0.0,
2025-08-14T22:46:11.597Z,3,GR86-010-16,0.9,0.007,0.151,20.93,4.0,5331.0,0.0,0.0,
2025-08-14T22:46:11.641Z,3,GR86-010-16,-1.2000000000000002,0.022,0.097,21.11,4.0,,0.0,0.0,137.15
2025-08-14T22:46:11.683Z,3,GR86-010-16,-2.3000000000000003,0.012,0.072,21.24,4.0,,0.0,0.0,
2025-08-14T22:46:11.726Z,3,GR86-010-16,-3.2,0.041,0.02,21.39,4.0,,0.0,0.0,
2025-08-14T22:46:11.769Z,3,GR86-010-16,-3.8,0.036,-0.025,21.59,4.0,,0.0,0.0,
2025-08-14T22:46:11.812Z,3,GR86-010-16,-4.3,0.023,-0.053,21.79,4.0,5338.0,0.0,0.0,
2025-08-14T22:46:11.855Z,3,GR86-010-16,-5.0,0.012,-0.095,21.92,4.0,,0.0,0.0,137.41
2025-08-14T22:46:11.898Z,3,GR86-010-16,-5.800000000000001,0.038,-0.147,22.02,4.0,,0.0,0.0,
2025-08-14T22:46:11.941Z,3,GR86-010-16,-7.4,0.027,-0.157,22.1,4.0,,0.0,0.0,
2025-08-14T22:46:11.984Z,3,GR86-010-16,-8.4,0.039,-0.198,22.14,4.0,,0.0,0.0,
2025-08-14T22:46:12.027Z,3,GR86-010-16,-8.8,0.034,-0.208,22.15,4.0,5383.0,0.0,0.0,
2025-08-14T22:46:12.070Z,3,GR86-010-16,-8.8,0.007,-0.214,22.14,4.0,,0.0,0.0,137.72
2025-08-14T22:46:12.113Z,3,GR86-010-16,-8.8,0.012,-0.241,22.15,4.0,,0.0,0.0,
2025-08-14T22:46:12.157Z,3,GR86-010-16,-8.8,0.04,-0.259,22.14,4.0,,0.0,0.0,
2025-08-14T22:46:12.200Z,3,GR86-010-16,-8.8,0.028,-0.26,22.11,4.0,,0.0,0.0,
2025-08-14T22:46:12.243Z,3,GR86-010-16,-8.8,0.052,-0.268,22.11,4.0,5395.0,0.0,0.0,
2025-08-14T22:46:12.286Z,3,GR86-010-16,-8.8,0.033,-0.244,22.11,4.0,,0.0,0.0,137.99
2025-08-14T22:46:12.329Z,3,GR86-010-16,-8.8,0.015,-0.217,22.11,4.0,,0.0,0.0,
2025-08-14T22:46:12.372Z,3,GR86-010-16,-8.8,0.025,-0.222,22.08,4.0,,0.0,0.0,
2025-08-14T22:46:12.415Z,3,GR86-010-16,-8.8,0.048,-0.216,22.07,4.0,,0.0,0.0,
2025-08-14T22:46:12.458Z,3,GR86-010-16,-8.200000000000001,0.035,-0.204,22.05,4.0,5404.0,0.0,0.0,
2025-08-14T22:46:12.501Z,3,GR86-010-16,-7.6,0.046,-0.185,21.99,4.0,,0.0,0.0,138.20000000000002
2025-08-14T22:46:12.544Z,3,GR86-010-16,-7.4,0.027,-0.162,21.95,4.0,,0.0,0.0,
2025-08-14T22:46:12.588Z,3,GR86-010-16,-7.300000000000001,0.018,-0.137,21.93,4.0,,0.0,0.0,
2025-08-14T22:46:12.631Z,3,GR86-010-16,-7.2,0.034,-0.126,21.85,4.0,,0.0,0.0,
2025-08-14T22:46:12.675Z,3,GR86-010-16,-7.2,0.042,-0.121,21.82,4.0,5415.0,0.0,0.0,
2025-08-14T22:46:12.718Z,3,GR86-010-16,-7.1000000000000005,0.028,-0.095,21.77,4.0,,0.0,0.0,138.47
2025-08-14T22:46:12.762Z,3,GR86-010-16,-6.5,0.048,-0.086,21.35,4.0,,0.0,0.0,
2025-08-14T22:46:12.805Z,3,GR86-010-16,-6.2,0.027,-0.062,21.1,4.0,,0.0,0.0,
2025-08-14T22:46:12.848Z,3,GR86-010-16,-5.9,0.015,-0.058,21.02,4.0,,0.0,0.0,
2025-08-14T22:46:12.891Z,3,GR86-010-16,-5.800000000000001,0.033,-0.07,20.91,4.0,5427.0,0.0,0.0,
2025-08-14T22:46:12.934Z,3,GR86-010-16,-5.7,0.043,-0.063,20.1,4.0,,0.0,0.0,139.0
2025-08-14T22:46:12.977Z,3,GR86-010-16,-5.7,0.019,-0.036,19.62,4.0,,0.0,0.0,
2025-08-14T22:46:13.022Z,3,GR86-010-16,-5.7,0.029,-0.034,14.2,4.0,,0.0,0.0,
2025-08-14T22:46:13.065Z,3,GR86-010-16,-5.7,-0.001,-0.024,6.5,4.0,,0.0,0.0,
2025-08-14T22:46:13.108Z,3,GR86-010-16,-5.7,-0.014,-0.031,5.15,4.0,5405.0,0.0,0.0,
2025-08-14T22:46:13.152Z,3,GR86-010-16,-5.7,-0.031,-0.04,3.92,4.0,,0.0,0.0,139.28
2025-08-14T22:46:13.195Z,3,GR86-010-16,-5.7,-0.057,-0.04,3.41,4.0,,0.0,0.0,
2025-08-14T22:46:13.238Z,3,GR86-010-16,-5.300000000000001,-0.078,-0.035,3.23,4.0,,0.0,0.0,
2025-08-14T22:46:13.282Z,3,GR86-010-16,-4.7,-0.231,-0.032,3.3200000000000003,4.0,,0.0,0.0,
2025-08-14T22:46:13.325Z,3,GR86-010-16,-4.2,-0.128,-0.002,3.29,4.0,5383.0,0.0,0.0,
2025-08-14T22:46:13.368Z,3,GR86-010-16,-3.9,-0.078,-0.017,3.29,4.0,,0.0,0.0,139.53
2025-08-14T22:46:13.411Z,3,GR86-010-16,-3.9,-0.104,-0.009,3.3200000000000003,4.0,,0.0,0.0,
2025-08-14T22:46:13.454Z,3,GR86-010-16,-3.9,-0.144,-0.012,3.35,4.0,,0.0,0.0,
2025-08-14T22:46:13.497Z,3,GR86-010-16,-3.9,-0.152,-0.014,3.35,4.0,,0.0,0.0,
2025-08-14T22:46:13.541Z,3,GR86-010-16,-3.8,-0.125,-0.004,3.43,4.0,5400.0,0.0,0.0,
2025-08-14T22:46:13.583Z,3,GR86-010-16,-3.6,-0.164,0.005,3.64,4.0,,0.0,0.0,139.53
2025-08-14T22:46:13.627Z,3,GR86-010-16,-3.5,-0.14,0.007,3.82,4.0,,0.0,0.0,
2025-08-14T22:46:13.669Z,3,GR86-010-16,-3.4000000000000004,-0.112,-0.009,3.92,4.0,,0.0,0.0,
2025-08-14T22:46:13.712Z,3,GR86-010-16,-3.0,-0.13,-0.009,4.0,4.0,,0.0,0.0,
2025-08-14T22:46:13.755Z,3,GR86-010-16,-2.2,-0.14,0.026,4.08,4.0,5345.0,0.0,0.0,
2025-08-14T22:46:13.798Z,3,GR86-010-16,-1.5,-0.129,0.023,4.12,4.0,,0.0,0.0,138.67000000000002
2025-08-14T22:46:13.842Z,3,GR86-010-16,-1.1,-0.146,0.058,4.15,4.0,,0.0,0.0,
2025-08-14T22:46:13.885Z,3,GR86-010-16,-0.6000000000000001,-0.113,0.049,4.18,4.0,,0.0,0.0,
2025-08-14T22:46:13.928Z,3,GR86-010-16,-0.5,-0.116,0.052,4.18,4.0,,0.0,0.0,
2025-08-14T22:46:13.971Z,3,GR86-010-16,-0.5,-0.138,0.063,4.18,4.0,5310.0,0.0,0.0,
2025-08-14T22:46:14.014Z,3,GR86-010-16,-0.5,-0.14,0.084,4.18,4.0,,0.0,0.0,137.89
2025-08-14T22:46:14.057Z,3,GR86-010-16,-0.5,-0.116,0.061,4.18,4.0,,0.0,0.0,
2025-08-14T22:46:14.100Z,3,GR86-010-16,-0.5,-0.127,0.084,3.96,4.0,,0.0,0.0,
2025-08-14T22:46:14.143Z,3,GR86-010-16,-0.5,-0.106,0.064,3.19,4.0,,2.165,2.4250000000000003,
2025-08-14T22:46:14.186Z,3,GR86-010-16,-0.5,-0.14,0.064,2.99,4.0,5242.0,4.0600000000000005,4.0,
2025-08-14T22:46:14.229Z,3,GR86-010-16,-0.5,-0.175,0.058,2.85,4.0,,5.6450000000000005,5.8,137.09
2025-08-14T22:46:14.272Z,3,GR86-010-16,-0.5,-0.186,0.04,2.75,4.0,,5.965,6.21,
2025-08-14T22:46:14.315Z,3,GR86-010-16,-0.5,-0.172,0.016,2.68,4.0,,5.905,6.03,
2025-08-14T22:46:14.358Z,3,GR86-010-16,-0.5,-0.2,0.02,2.65,4.0,,5.22,5.705,
2025-08-14T22:46:14.401Z,3,GR86-010-16,-0.5,-0.155,-0.006,2.61,4.0,5247.0,1.8,2.455,
2025-08-14T22:46:14.444Z,3,GR86-010-16,-0.5,-0.145,-0.002,2.58,4.0,,0.0,0.0,136.25
2025-08-14T22:46:14.487Z,3,GR86-010-16,-0.5,-0.118,-0.021,2.56,4.0,,0.0,0.0,
2025-08-14T22:46:14.530Z,3,GR86-010-16,-0.5,-0.113,-0.029,2.54,4.0,,0.0,0.0,
2025-08-14T22:46:14.573Z,3,GR86-010-16,-0.5,-0.127,-0.026,2.53,4.0,,0.0,0.0,
2025-08-14T22:46:14.616Z,3,GR86-010-16,-0.5,-0.132,0.001,2.5,4.0,5157.0,0.0,0.0,
2025-08-14T22:46:14.659Z,3,GR86-010-16,-0.5,-0.111,-0.019,2.5,4.0,,0.0,0.0,135.2
2025-08-14T22:46:14.702Z,3,GR86-010-16,-0.5,-0.125,-0.007,2.5,4.0,,1.8,2.045,
2025-08-14T22:46:14.745Z,3,GR86-010-16,-0.5,-0.115,-0.015,2.48,4.0,,2.455,2.5500000000000003,
2025-08-14T22:46:14.788Z,3,GR86-010-16,-0.5,-0.145,-0.003,2.48,4.0,,2.52,2.7,
2025-08-14T22:46:14.831Z,3,GR86-010-16,-0.5,-0.164,0.021,2.48,4.0,5124.0,2.485,2.7,
2025-08-14T22:46:14.874Z,3,GR86-010-16,-0.5,-0.14,0.011,2.46,4.0,,2.485,2.7,133.97
2025-08-14T22:46:14.917Z,3,GR86-010-16,-0.5,-0.138,0.015,2.48,4.0,,2.305,2.395,
2025-08-14T22:46:14.961Z,3,GR86-010-16,-0.5,-0.127,0.03,2.48,4.0,,0.0,0.0,
2025-08-14T22:46:15.004Z,3,GR86-010-16,-0.5,-0.124,0.044,2.48,4.0,,0.0,0.0,
2025-08-14T22:46:15.047Z,3,GR86-010-16,-0.5,-0.128,0.059,2.51,4.0,5128.0,0.0,0.0,
2025-08-14T22:46:15.090Z,3,GR86-010-16,-0.5,-0.111,0.063,2.56,4.0,,0.0,0.0,133.25
2025-08-14T22:46:15.133Z,3,GR86-010-16,-0.5,-0.118,0.051,2.63,4.0,,0.0,0.0,
2025-08-14T22:46:15.176Z,3,GR86-010-16,-0.5,-0.132,0.067,2.69,4.0,,0.0,0.0,
2025-08-14T22:46:15.219Z,3,GR86-010-16,-0.5,-0.124,0.072,2.94,4.0,,0.0,0.0,
2025-08-14T22:46:15.262Z,3,GR86-010-16,-0.5,-0.117,0.081,3.35,4.0,5094.0,0.0,0.0,
2025-08-14T22:46:15.305Z,3,GR86-010-16,-0.5,-0.111,0.056,3.51,4.0,,0.0,0.0,132.29
2025-08-14T22:46:15.348Z,3,GR86-010-16,-0.5,-0.122,0.045,3.64,4.0,,0.0,0.0,
2025-08-14T22:46:15.392Z,3,GR86-010-16,-0.6000000000000001,-0.132,0.041,3.86,4.0,,0.0,0.0,
2025-08-14T22:46:15.435Z,3,GR86-010-16,-1.4,-0.107,0.012,4.05,4.0,,0.0,0.0,
2025-08-14T22:46:15.478Z,3,GR86-010-16,-2.1,-0.111,-0.012,4.24,4.0,5022.0,0.0,0.0,
2025-08-14T22:46:15.522Z,3,GR86-010-16,-2.1,-0.113,-0.037,4.94,4.0,,0.0,0.0,130.67000000000002
2025-08-14T22:46:15.565Z,3,GR86-010-16,-2.1,-0.132,-0.049,5.0600000000000005,4.0,,0.0,0.0,
2025-08-14T22:46:15.608Z,3,GR86-010-16,-2.1,-0.126,-0.054,6.6000000000000005,4.0,,0.0,0.0,
2025-08-14T22:46:15.651Z,3,GR86-010-16,-2.1,-0.104,-0.064,7.41,4.0,,0.0,0.0,
2025-08-14T22:46:15.694Z,3,GR86-010-16,-2.1,-0.104,-0.09,7.74,4.0,4996.0,0.0,0.0,
2025-08-14T22:46:15.737Z,3,GR86-010-16,-2.1,-0.103,-0.066,7.74,4.0,,0.0,0.0,129.86
2025-08-14T22:46:15.782Z,3,GR86-010-16,-2.1,-0.083,-0.08,7.88,4.0,,0.0,0.0,
2025-08-14T22:46:15.825Z,3,GR86-010-16,-2.1,-0.078,-0.073,8.91,4.0,,0.0,0.0,
2025-08-14T22:46:15.868Z,3,GR86-010-16,-2.1,-0.089,-0.095,10.89,4.0,,0.0,0.0,
2025-08-14T22:46:15.911Z,3,GR86-010-16,-2.1,-0.096,-0.073,12.25,4.0,4992.0,0.0,0.0,
2025-08-14T22:46:15.954Z,3,GR86-010-16,-2.1,-0.086,-0.067,13.2,4.0,,0.0,0.0,129.06
2025-08-14T22:46:15.997Z,3,GR86-010-16,-2.1,-0.099,-0.056,14.46,4.0,,0.0,0.0,
2025-08-14T22:46:16.041Z,3,GR86-010-16,-2.1,-0.098,-0.037,17.25,4.0,,0.0,0.0,
2025-08-14T22:46:16.084Z,3,GR86-010-16,-2.1,-0.052,-0.047,18.17,4.0,,0.0,0.0,
2025-08-14T22:46:16.127Z,3,GR86-010-16,-2.1,-0.073,-0.033,18.92,4.0,4925.0,0.0,0.0,
2025-08-14T22:46:16.170Z,3,GR86-010-16,-2.1,-0.044,-0.023,20.5,4.0,,0.0,0.0,128.4
2025-08-14T22:46:16.213Z,3,GR86-010-16,-2.1,0.1,-0.033,20.66,4.0,,0.0,0.0,
2025-08-14T22:46:16.256Z,3,GR86-010-16,-2.1,0.073,-0.006,20.72,4.0,,0.0,0.0,
2025-08-14T22:46:16.301Z,3,GR86-010-16,-2.1,-0.023,-0.009,21.27,4.0,,0.0,0.0,
2025-08-14T22:46:16.345Z,3,GR86-010-16,-2.1,0.022,0.009,21.29,4.0,5022.0,0.0,0.0,
2025-08-14T22:46:16.388Z,3,GR86-010-16,-2.1,0.072,0.0,21.29,4.0,,0.0,0.0,127.82
2025-08-14T22:46:16.431Z,3,GR86-010-16,-2.1,0.062,0.02,21.29,4.0,,0.0,0.0,
2025-08-14T22:46:16.474Z,3,GR86-010-16,-2.1,0.029,0.038,21.26,4.0,,0.0,0.0,
2025-08-14T22:46:16.517Z,3,GR86-010-16,-2.1,0.041,0.031,21.23,4.0,,0.0,0.0,
2025-08-14T22:46:16.561Z,3,GR86-010-16,-2.1,0.061,0.035,21.22,4.0,4933.0,0.0,0.0,
2025-08-14T22:46:16.604Z,3,GR86-010-16,-2.0,0.047,0.042,21.24,4.0,,0.0,0.0,127.56
2025-08-14T22:46:16.647Z,3,GR86-010-16,-1.8,0.034,0.04,21.23,4.0,,0.0,0.0,
2025-08-14T22:46:16.690Z,3,GR86-010-16,-1.7000000000000002,0.037,0.059,21.23,4.0,,0.0,0.0,
2025-08-14T22:46:16.733Z,3,GR86-010-16,-1.6,0.044,0.032,21.22,4.0,,0.0,0.0,
2025-08-14T22:46:16.776Z,3,GR86-010-16,-1.7000000000000002,0.06,0.045,21.22,4.0,4982.0,0.0,0.0,
2025-08-14T22:46:16.819Z,3,GR86-010-16,-1.7000000000000002,0.041,0.061,21.22,4.0,,0.0,0.0,127.79
2025-08-14T22:46:16.862Z,3,GR86-010-16,-1.6,0.033,0.072,21.45,4.0,,0.0,0.0,
2025-08-14T22:46:16.905Z,3,GR86-010-16,-1.6,0.048,0.062,21.83,4.0,,0.0,0.0,
2025-08-14T22:46:16.948Z,3,GR86-010-16,-1.4,0.05,0.055,21.89,4.0,,0.0,0.0,
2025-08-14T22:46:16.992Z,3,GR86-010-16,-1.0,0.044,0.061,21.96,4.0,5023.0,0.0,0.0,
2025-08-14T22:46:17.034Z,3,GR86-010-16,-0.2,0.042,0.069,22.01,4.0,,0.0,0.0,128.2
2025-08-14T22:46:17.077Z,3,GR86-010-16,0.1,0.052,0.057,22.08,4.0,,0.0,0.0,
2025-08-14T22:46:17.122Z,3,GR86-010-16,0.1,0.047,0.083,22.1,4.0,,0.0,0.0,
2025-08-14T22:46:17.165Z,3,GR86-010-16,0.1,0.056,0.074,22.1,4.0,,0.0,0.0,
2025-08-14T22:46:17.208Z,3,GR86-010-16,0.1,0.044,0.09,22.09,4.0,5004.0,0.0,0.0,
2025-08-14T22:46:17.251Z,3,GR86-010-16,0.1,0.052,0.093,22.09,4.0,,0.0,0.0,128.62
2025-08-14T22:46:17.294Z,3,GR86-010-16,0.1,0.044,0.081,22.14,4.0,,0.0,0.0,
2025-08-14T22:46:17.337Z,3,GR86-010-16,0.2,0.047,0.104,22.82,4.0,,0.0,0.0,
2025-08-14T22:46:17.381Z,3,GR86-010-16,0.6000000000000001,0.055,0.102,25.2,4.0,,0.0,0.0,
2025-08-14T22:46:17.425Z,3,GR86-010-16,0.8,0.049,0.115,26.79,4.0,5015.0,0.0,0.0,
2025-08-14T22:46:17.468Z,3,GR86-010-16,0.9,0.062,0.118,28.36,4.0,,0.0,0.0,129.06
2025-08-14T22:46:17.511Z,3,GR86-010-16,0.9,0.088,0.113,30.41,4.0,,0.0,0.0,
2025-08-14T22:46:17.554Z,3,GR86-010-16,0.9,0.084,0.116,32.87,4.0,,0.0,0.0,
2025-08-14T22:46:17.597Z,3,GR86-010-16,0.9,0.105,0.12,34.36,4.0,,0.0,0.0,
2025-08-14T22:46:17.641Z,3,GR86-010-16,0.9,0.112,0.119,34.96,4.0,5038.0,0.0,0.0,
2025-08-14T22:46:17.683Z,3,GR86-010-16,0.9,0.137,0.113,36.35,4.0,,0.0,0.0,129.45
2025-08-14T22:46:17.727Z,3,GR86-010-16,0.9,0.136,0.113,38.98,4.0,,0.0,0.0,
2025-08-14T22:46:17.770Z,3,GR86-010-16,0.9,0.105,0.127,48.04,4.0,,0.0,0.0,
2025-08-14T22:46:17.813Z,3,GR86-010-16,0.9,0.134,0.116,60.41,4.0,,0.0,0.0,
2025-08-14T22:46:17.857Z,3,GR86-010-16,0.9,0.152,0.102,79.86,4.0,5079.0,0.0,0.0,
2025-08-14T22:46:17.900Z,3,GR86-010-16,0.9,0.181,0.107,99.74,4.0,,0.0,0.0,129.92000000000002
2025-08-14T22:46:17.943Z,3,GR86-010-16,0.9,0.186,0.101,99.89,4.0,,0.0,0.0,
2025-08-14T22:46:17.986Z,3,GR86-010-16,0.9,0.165,0.127,99.88,4.0,,0.0,0.0,
2025-08-14T22:46:18.029Z,3,GR86-010-16,0.9,0.169,0.106,99.89,4.0,,0.0,0.0,
2025-08-14T22:46:18.072Z,3,GR86-010-16,0.9,0.18,0.093,99.88,4.0,5107.0,0.0,0.0,
2025-08-14T22:46:18.115Z,3,GR86-010-16,0.9,0.177,0.104,99.89,4.0,,0.0,0.0,130.49
2025-08-14T22:46:18.158Z,3,GR86-010-16,0.9,0.171,0.125,99.89,4.0,,0.0,0.0,
2025-08-14T22:46:18.244Z,3,GR86-010-16,1.6,0.176,0.111,99.89,4.0,,0.0,0.0,
2025-08-14T22:46:18.287Z,3,GR86-010-16,1.8,0.183,0.108,99.89,4.0,5174.0,0.0,0.0,
2025-08-14T22:46:18.331Z,3,GR86-010-16,1.8,0.171,0.118,99.89,4.0,,0.0,0.0,132.45
2025-08-14T22:46:18.373Z,3,GR86-010-16,1.8,0.155,0.131,99.88,4.0,,0.0,0.0,
2025-08-14T22:46:18.416Z,3,GR86-010-16,1.8,0.178,0.123,99.89,4.0,,0.0,0.0,
2025-08-14T22:46:18.459Z,3,GR86-010-16,1.8,0.187,0.126,99.91,4.0,,0.0,0.0,
2025-08-14T22:46:18.502Z,3,GR86-010-16,1.8,0.185,0.12,99.91,4.0,5253.0,0.0,0.0,
2025-08-14T22:46:18.545Z,3,GR86-010-16,1.9,0.167,0.131,99.92,4.0,,0.0,0.0,133.73
2025-08-14T22:46:18.588Z,3,GR86-010-16,1.8,0.155,0.132,99.89,4.0,,0.0,0.0,
2025-08-14T22:46:18.632Z,3,GR86-010-16,1.9,0.173,0.14,99.9,4.0,,0.0,0.0,
2025-08-14T22:46:18.675Z,3,GR86-010-16,1.8,0.192,0.115,99.88,4.0,,0.0,0.0,
2025-08-14T22:46:18.718Z,3,GR86-010-16,1.9,0.165,0.113,99.9,4.0,5263.0,0.0,0.0,
2025-08-14T22:46:18.762Z,3,GR86-010-16,1.8,0.184,0.1,99.91,4.0,,0.0,0.0,135.02
2025-08-14T22:46:18.805Z,3,GR86-010-16,1.9,0.155,0.112,94.48,4.0,,0.0,0.0,
2025-08-14T22:46:18.848Z,3,GR86-010-16,1.9,0.155,0.131,98.81,4.0,,0.0,0.0,
2025-08-14T22:46:18.891Z,3,GR86-010-16,1.9,0.181,0.111,99.72,4.0,,0.0,0.0,
2025-08-14T22:46:18.934Z,3,GR86-010-16,1.9,0.183,0.099,99.56,4.0,5388.0,0.0,0.0,
2025-08-14T22:46:18.977Z,3,GR86-010-16,2.4000000000000004,0.148,0.126,94.71,4.0,,0.0,0.0,136.25
2025-08-14T22:46:19.022Z,3,GR86-010-16,3.1,0.176,0.125,70.14,4.0,,0.0,0.0,
2025-08-14T22:46:19.065Z,3,GR86-010-16,3.3000000000000003,0.145,0.154,45.59,4.0,,0.0,0.0,
2025-08-14T22:46:19.108Z,3,GR86-010-16,3.4000000000000004,0.162,0.164,24.2,4.0,,0.0,0.0,
2025-08-14T22:46:19.152Z,3,GR86-010-16,3.4000000000000004,0.16,0.154,10.78,4.0,5409.0,4.47,4.6850000000000005,
2025-08-14T22:46:19.195Z,3,GR86-010-16,3.4000000000000004,0.063,0.149,3.89,4.0,,7.645,7.8,137.4
2025-08-14T22:46:19.238Z,3,GR86-010-16,3.4000000000000004,-0.133,0.174,3.64,4.0,,10.315,10.27,
2025-08-14T22:46:19.282Z,3,GR86-010-16,3.4000000000000004,-0.218,0.176,3.23,4.0,,14.24,14.115,
2025-08-14T22:46:19.325Z,3,GR86-010-16,3.4000000000000004,-0.519,0.161,3.03,4.0,,16.97,16.94,
2025-08-14T22:46:19.368Z,3,GR86-010-16,3.4000000000000004,-0.403,0.169,2.89,4.0,5455.0,18.325,18.405,
2025-08-14T22:46:19.411Z,3,GR86-010-16,3.4000000000000004,-0.314,0.145,2.82,4.0,,18.615,18.74,138.57
2025-08-14T22:46:19.454Z,3,GR86-010-16,3.4000000000000004,-0.365,0.14,2.75,4.0,,18.495,18.68,
2025-08-14T22:46:19.497Z,3,GR86-010-16,3.4000000000000004,-0.395,0.176,2.7,4.0,,17.84,18.295,
2025-08-14T22:46:19.541Z,3,GR86-010-16,3.4000000000000004,-0.346,0.126,2.64,4.0,,12.45,13.46,
2025-08-14T22:46:19.583Z,3,GR86-010-16,3.4000000000000004,-0.273,0.152,2.62,4.0,5171.0,7.890000000000001,8.635,
2025-08-14T22:46:19.626Z,3,GR86-010-16,3.4000000000000004,-0.224,0.095,2.6,4.0,,6.9,7.585,139.22
2025-08-14T22:46:19.669Z,3,GR86-010-16,3.4000000000000004,-0.219,0.108,2.72,4.0,,6.865,7.295,
2025-08-14T22:46:19.712Z,3,GR86-010-16,3.4000000000000004,-0.221,0.132,2.74,4.0,,7.08,7.4,
2025-08-14T22:46:19.798Z,3,GR86-010-16,3.4000000000000004,-0.219,0.11,2.88,4.0,5247.0,7.08,7.525,
2025-08-14T22:46:19.842Z,3,GR86-010-16,3.4000000000000004,-0.23,0.12,2.97,4.0,,6.9,7.495,137.27
2025-08-14T22:46:19.885Z,3,GR86-010-16,3.4000000000000004,-0.208,0.113,3.02,4.0,,6.365,6.96,
2025-08-14T22:46:19.928Z,3,GR86-010-16,3.4000000000000004,-0.219,0.139,3.1,4.0,,6.335,6.93,
2025-08-14T22:46:19.971Z,3,GR86-010-16,3.4000000000000004,-0.228,0.148,3.2,4.0,,6.365,7.0200000000000005,
2025-08-14T22:46:20.014Z,3,GR86-010-16,3.4000000000000004,-0.208,0.139,3.3200000000000003,4.0,5168.0,5.34,6.03,
2025-08-14T22:46:20.057Z,3,GR86-010-16,3.4000000000000004,-0.18,0.141,3.45,4.0,,0.0,2.165,135.31
2025-08-14T22:46:20.100Z,3,GR86-010-16,3.4000000000000004,-0.125,0.157,3.79,4.0,,0.0,0.0,
2025-08-14T22:46:20.143Z,3,GR86-010-16,3.4000000000000004,-0.139,0.155,3.99,4.0,,0.0,0.0,
2025-08-14T22:46:20.186Z,3,GR86-010-16,3.4000000000000004,-0.128,0.17,4.05,4.0,,0.0,0.0,
2025-08-14T22:46:20.230Z,3,GR86-010-16,3.4000000000000004,-0.107,0.161,4.16,4.0,5116.0,0.0,0.0,
2025-08-14T22:46:20.273Z,3,GR86-010-16,3.4000000000000004,-0.117,0.174,4.91,4.0,,0.0,0.0,133.96
2025-08-14T22:46:20.316Z,3,GR86-010-16,3.4000000000000004,-0.14,0.189,5.5600000000000005,4.0,,0.0,0.0,
2025-08-14T22:46:20.361Z,3,GR86-010-16,3.4000000000000004,-0.135,0.179,20.92,4.0,,0.0,0.0,
2025-08-14T22:46:20.403Z,3,GR86-010-16,3.4000000000000004,-0.119,0.178,20.95,4.0,,0.0,0.0,
2025-08-14T22:46:20.446Z,3,GR86-010-16,3.4000000000000004,-0.049,0.162,21.09,4.0,5067.0,0.0,0.0,
2025-08-14T22:46:20.489Z,3,GR86-010-16,3.4000000000000004,-0.068,0.149,21.28,4.0,,0.0,0.0,132.56
2025-08-14T22:46:20.532Z,3,GR86-010-16,3.4000000000000004,-0.073,0.151,21.47,4.0,,0.0,0.0,
2025-08-14T22:46:20.575Z,3,GR86-010-16,3.4000000000000004,0.121,0.152,21.68,4.0,,0.0,0.0,
2025-08-14T22:46:20.618Z,3,GR86-010-16,3.4000000000000004,0.152,0.138,13.4,4.0,,0.0,0.0,
2025-08-14T22:46:20.661Z,3,GR86-010-16,3.4000000000000004,-0.016,0.119,14.46,4.0,5039.0,0.0,0.0,
2025-08-14T22:46:20.704Z,3,GR86-010-16,3.4000000000000004,-0.041,0.12,14.81,4.0,,0.0,0.0,131.88
2025-08-14T22:46:20.747Z,3,GR86-010-16,3.4000000000000004,-0.015,0.116,17.25,4.0,,0.0,0.0,
2025-08-14T22:46:20.790Z,3,GR86-010-16,3.4000000000000004,-0.003,0.12,18.28,4.0,,0.0,0.0,
2025-08-14T22:46:20.833Z,3,GR86-010-16,3.4000000000000004,-0.042,0.107,18.6,4.0,,0.0,0.0,
2025-08-14T22:46:20.876Z,3,GR86-010-16,3.4000000000000004,-0.053,0.107,18.73,4.0,5177.0,0.0,0.0,
2025-08-14T22:46:20.919Z,3,GR86-010-16,3.4000000000000004,-0.015,0.109,18.95,4.0,,0.0,0.0,131.17000000000002
2025-08-14T22:46:20.962Z,3,GR86-010-16,3.4000000000000004,0.014,0.103,21.57,4.0,,0.0,0.0,
2025-08-14T22:46:21.005Z,3,GR86-010-16,3.4000000000000004,0.007,0.095,22.27,4.0,,0.0,0.0,
2025-08-14T22:46:21.048Z,3,GR86-010-16,3.4000000000000004,0.018,0.091,22.33,4.0,,0.0,0.0,
2025-08-14T22:46:21.091Z,3,GR86-010-16,3.4000000000000004,0.035,0.102,22.34,4.0,5090.0,0.0,0.0,
2025-08-14T22:46:21.134Z,3,GR86-010-16,3.4000000000000004,0.055,0.096,22.33,4.0,,0.0,0.0,131.46
2025-08-14T22:46:21.177Z,3,GR86-010-16,3.4000000000000004,0.06,0.082,22.33,4.0,,0.0,0.0,
2025-08-14T22:46:21.222Z,3,GR86-010-16,3.4000000000000004,0.053,0.079,22.29,4.0,,0.0,0.0,
2025-08-14T22:46:21.265Z,3,GR86-010-16,3.4000000000000004,0.064,0.085,22.26,4.0,,0.0,0.0,
2025-08-14T22:46:21.308Z,3,GR86-010-16,3.4000000000000004,0.049,0.094,18.11,4.0,5159.0,0.0,0.0,
2025-08-14T22:46:21.351Z,3,GR86-010-16,3.4000000000000004,0.044,0.102,5.73,4.0,,0.0,0.0,131.57
2025-08-14T22:46:21.394Z,3,GR86-010-16,3.4000000000000004,0.064,0.075,4.11,4.0,,0.0,0.0,
2025-08-14T22:46:21.437Z,3,GR86-010-16,3.4000000000000004,-0.074,0.087,4.05,4.0,,0.0,0.0,
2025-08-14T22:46:21.482Z,3,GR86-010-16,3.4000000000000004,-0.104,0.08,3.73,4.0,,4.335,4.47,
2025-08-14T22:46:21.525Z,3,GR86-010-16,3.4000000000000004,-0.346,0.081,3.29,4.0,5171.0,7.645,7.83,
2025-08-14T22:46:21.568Z,3,GR86-010-16,3.4000000000000004,-0.234,0.109,3.1,4.0,,9.875,9.875,131.86
2025-08-14T22:46:21.611Z,3,GR86-010-16,3.4000000000000004,-0.159,0.061,2.94,4.0,,9.845,10.085,
2025-08-14T22:46:21.654Z,3,GR86-010-16,3.4000000000000004,-0.207,0.089,2.78,4.0,,8.88,9.4,
2025-08-14T22:46:21.697Z,3,GR86-010-16,3.4000000000000004,-0.269,0.109,2.7,4.0,,7.295,8.15,
2025-08-14T22:46:21.741Z,3,GR86-010-16,3.4000000000000004,-0.22,0.077,2.65,4.0,4993.0,5.4,6.09,
2025-08-14T22:46:21.784Z,3,GR86-010-16,3.4000000000000004,-0.153,0.088,2.63,4.0,,4.655,5.4350000000000005,132.39
2025-08-14T22:46:21.827Z,3,GR86-010-16,3.4000000000000004,-0.157,0.073,2.59,4.0,,4.24,4.9,
