timestamp,lap,vehicle_id,steering_angle,accx_can,accy_can,ath,gear,nmot,pbrake_f,pbrake_r,speed
2025-08-14T22:59:26.852Z,6,GR86-016-55,-2.6,0.136,0.044,100.02,4.0,,0.0,0.0,176.31
2025-08-14T22:59:26.895Z,6,GR86-016-55,-2.7,0.133,0.028,100.02,4.0,,0.0,0.0,
2025-08-14T22:59:26.939Z,6,GR86-016-55,-2.7,0.122,0.01,100.0,4.0,,0.0,0.0,
2025-08-14T22:59:26.982Z,6,GR86-016-55,-2.7,0.12,-0.017,99.99,4.0,,0.0,0.0,
2025-08-14T22:59:27.025Z,6,GR86-016-55,-2.7,0.139,-0.034,100.0,4.0,7016.0,0.0,0.0,
2025-08-14T22:59:27.068Z,6,GR86-016-55,-2.7,0.123,-0.01,100.0,4.0,,0.0,0.0,177.0
2025-08-14T22:59:27.112Z,6,GR86-016-55,-2.7,0.114,-0.026,100.0,4.0,,0.0,0.0,
2025-08-14T22:59:27.155Z,6,GR86-016-55,-2.7,0.113,-0.035,100.0,4.0,,0.0,0.0,
2025-08-14T22:59:27.198Z,6,GR86-016-55,-2.6,0.128,-0.036,100.01,4.0,,0.0,0.0,
2025-08-14T22:59:27.242Z,6,GR86-016-55,-2.6,0.133,-0.017,99.96,4.0,7056.0,0.0,0.0,
2025-08-14T22:59:27.285Z,6,GR86-016-55,-2.6,0.133,-0.018,100.0,4.0,,0.0,0.0,177.78
2025-08-14T22:59:27.328Z,6,GR86-016-55,-2.6,0.116,-0.017,99.98,4.0,,0.0,0.0,
2025-08-14T22:59:27.371Z,6,GR86-016-55,-2.6,0.121,-0.004,99.99,4.0,,0.0,0.0,
2025-08-14T22:59:27.414Z,6,GR86-016-55,-2.6,0.127,0.016,100.0,4.0,,0.0,0.0,
2025-08-14T22:59:27.457Z,6,GR86-016-55,-2.5,0.121,0.018,100.0,4.0,7072.0,0.0,0.0,
2025-08-14T22:59:27.500Z,6,GR86-016-55,-2.5,0.132,0.011,99.99,4.0,,0.0,0.0,178.6
2025-08-14T22:59:27.543Z,6,GR86-016-55,-2.4000000000000004,0.113,0.001,99.97,4.0,,0.0,0.0,
2025-08-14T22:59:27.586Z,6,GR86-016-55,-2.5,0.125,0.037,99.99,4.0,,0.0,0.0,
2025-08-14T22:59:27.629Z,6,GR86-016-55,-2.5,0.114,0.034,100.02,4.0,,0.0,0.0,
2025-08-14T22:59:27.672Z,6,GR86-016-55,-2.4000000000000004,0.117,0.015,100.02,4.0,7110.0,0.0,0.0,
2025-08-14T22:59:27.715Z,6,GR86-016-55,-2.5,0.126,0.007,100.01,4.0,,0.0,0.0,179.33
2025-08-14T22:59:27.758Z,6,GR86-016-55,-2.5,0.106,0.006,100.02,4.0,,0.0,0.0,
2025-08-14T22:59:27.801Z,6,GR86-016-55,-2.6,0.12,0.026,100.01,4.0,,0.0,0.0,
2025-08-14T22:59:27.844Z,6,GR86-016-55,-2.6,0.147,0.027,100.04,4.0,,0.0,0.0,
2025-08-14T22:59:27.887Z,6,GR86-016-55,-2.5,0.128,0.026,100.0,4.0,7151.0,0.0,0.0,
2025-08-14T22:59:27.930Z,6,GR86-016-55,-2.6,0.128,0.047,99.97,4.0,,0.0,0.0,180.07
2025-08-14T22:59:27.973Z,6,GR86-016-55,-2.6,0.138,0.025,99.96,4.0,,0.0,0.0,
2025-08-14T22:59:28.016Z,6,GR86-016-55,-2.6,0.129,0.016,99.99,4.0,,0.0,0.0,
2025-08-14T22:59:28.059Z,6,GR86-016-55,-2.6,0.133,0.017,100.02,4.0,,0.0,0.0,
2025-08-14T22:59:28.102Z,6,GR86-016-55,-2.6,0.108,0.014,99.98,4.0,7174.0,0.0,0.0,
2025-08-14T22:59:28.145Z,6,GR86-016-55,-2.6,0.109,0.019,100.02,4.0,,0.0,0.0,181.0
2025-08-14T22:59:28.188Z,6,GR86-016-55,-2.6,0.112,0.0,100.02,4.0,,0.0,0.0,
2025-08-14T22:59:28.231Z,6,GR86-016-55,-2.6,0.108,0.007,99.99,4.0,,0.0,0.0,
2025-08-14T22:59:28.274Z,6,GR86-016-55,-2.6,0.111,0.021,99.96,4.0,,0.0,0.0,
2025-08-14T22:59:28.317Z,6,GR86-016-55,-2.6,0.108,0.008,99.99,4.0,7203.0,0.0,0.0,
2025-08-14T22:59:28.361Z,6,GR86-016-55,-2.6,0.113,0.017,99.96,4.0,,0.0,0.0,181.71
2025-08-14T22:59:28.404Z,6,GR86-016-55,-2.6,0.138,0.007,99.99,4.0,,0.0,0.0,
2025-08-14T22:59:28.447Z,6,GR86-016-55,-2.5,0.12,0.034,100.01,4.0,,0.0,0.0,
2025-08-14T22:59:28.490Z,6,GR86-016-55,-2.5,0.134,0.035,100.02,4.0,,0.0,0.0,
2025-08-14T22:59:28.533Z,6,GR86-016-55,-2.3000000000000003,0.127,0.025,99.99,4.0,7225.0,0.0,0.0,
2025-08-14T22:59:28.576Z,6,GR86-016-55,-2.2,0.117,0.028,99.98,4.0,,0.0,0.0,182.54
2025-08-14T22:59:28.619Z,6,GR86-016-55,-2.1,0.13,0.054,100.01,4.0,,0.0,0.0,
2025-08-14T22:59:28.662Z,6,GR86-016-55,-2.0,0.135,0.074,100.0,4.0,,0.0,0.0,
2025-08-14T22:59:28.705Z,6,GR86-016-55,-1.9,0.113,0.059,100.01,4.0,,0.0,0.0,
2025-08-14T22:59:28.748Z,6,GR86-016-55,-1.8,0.111,0.049,99.99,4.0,7266.0,0.0,0.0,
2025-08-14T22:59:28.791Z,6,GR86-016-55,-1.8,0.097,0.036,99.98,4.0,,0.0,0.0,183.31
2025-08-14T22:59:28.834Z,6,GR86-016-55,-1.8,0.103,0.039,100.01,4.0,,0.0,0.0,
2025-08-14T22:59:28.877Z,6,GR86-016-55,-1.9,-0.023,0.05,99.98,5.0,,0.0,0.0,
2025-08-14T22:59:28.922Z,6,GR86-016-55,-1.9,0.469,0.091,100.01,5.0,,0.0,0.0,
2025-08-14T22:59:28.965Z,6,GR86-016-55,-1.9,0.206,-0.018,99.99,5.0,7286.0,0.0,0.0,
2025-08-14T22:59:29.008Z,6,GR86-016-55,-1.9,-0.001,0.043,99.99,5.0,,0.0,0.0,184.07
2025-08-14T22:59:29.051Z,6,GR86-016-55,-2.0,0.062,0.071,100.02,5.0,,0.0,0.0,
2025-08-14T22:59:29.094Z,6,GR86-016-55,-2.0,0.079,-0.023,100.01,5.0,,0.0,0.0,
2025-08-14T22:59:29.137Z,6,GR86-016-55,-1.9,0.09,0.05,99.99,5.0,,0.0,0.0,
2025-08-14T22:59:29.180Z,6,GR86-016-55,-1.9,0.121,0.022,99.99,5.0,6220.0,0.0,0.0,
2025-08-14T22:59:29.225Z,6,GR86-016-55,-1.9,0.129,0.021,99.99,5.0,,0.0,0.0,185.38
2025-08-14T22:59:29.268Z,6,GR86-016-55,-1.9,0.105,0.061,100.0,5.0,,0.0,0.0,
2025-08-14T22:59:29.311Z,6,GR86-016-55,-1.9,0.115,0.03,100.0,5.0,,0.0,0.0,
2025-08-14T22:59:29.354Z,6,GR86-016-55,-1.8,0.101,0.042,99.99,5.0,,0.0,0.0,
2025-08-14T22:59:29.397Z,6,GR86-016-55,-1.7000000000000002,0.123,0.031,100.03,5.0,6370.0,0.0,0.0,
2025-08-14T22:59:29.440Z,6,GR86-016-55,-1.7000000000000002,0.116,0.05,99.99,5.0,,0.0,0.0,186.03
2025-08-14T22:59:29.485Z,6,GR86-016-55,-1.8,0.104,0.055,99.98,5.0,,0.0,0.0,
2025-08-14T22:59:29.528Z,6,GR86-016-55,-1.8,0.1,0.064,100.01,5.0,,0.0,0.0,
2025-08-14T22:59:29.571Z,6,GR86-016-55,-1.8,0.098,0.051,99.99,5.0,,0.0,0.0,
2025-08-14T22:59:29.614Z,6,GR86-016-55,-1.7000000000000002,0.097,0.054,100.01,5.0,6379.0,0.0,0.0,
2025-08-14T22:59:29.657Z,6,GR86-016-55,-1.8,0.111,0.056,99.98,5.0,,0.0,0.0,186.77
2025-08-14T22:59:29.700Z,6,GR86-016-55,-1.9,0.096,0.056,100.02,5.0,,0.0,0.0,
2025-08-14T22:59:29.743Z,6,GR86-016-55,-1.9,0.107,0.047,100.0,5.0,,0.0,0.0,
2025-08-14T22:59:29.786Z,6,GR86-016-55,-1.9,0.096,0.05,99.98,5.0,,0.0,0.0,
2025-08-14T22:59:29.872Z,6,GR86-016-55,-1.8,0.098,0.028,99.99,5.0,6441.0,0.0,0.0,187.48
2025-08-14T22:59:29.915Z,6,GR86-016-55,-1.7000000000000002,0.107,0.048,99.98,5.0,,0.0,0.0,
2025-08-14T22:59:29.958Z,6,GR86-016-55,-1.7000000000000002,0.1,0.065,100.01,5.0,,0.0,0.0,
2025-08-14T22:59:30.045Z,6,GR86-016-55,-1.2000000000000002,0.102,0.044,99.99,5.0,6440.0,0.0,0.0,
2025-08-14T22:59:30.088Z,6,GR86-016-55,-0.6000000000000001,0.102,0.062,99.99,5.0,,0.0,0.0,188.3
2025-08-14T22:59:30.131Z,6,GR86-016-55,-0.4,0.103,0.076,100.01,5.0,,0.0,0.0,
2025-08-14T22:59:30.174Z,6,GR86-016-55,-0.2,0.114,0.081,99.99,5.0,,0.0,0.0,
2025-08-14T22:59:30.218Z,6,GR86-016-55,-0.2,0.126,0.084,100.03,5.0,,0.0,0.0,
2025-08-14T22:59:30.262Z,6,GR86-016-55,-0.2,0.081,0.094,100.0,5.0,6483.0,0.0,0.0,
2025-08-14T22:59:30.305Z,6,GR86-016-55,-0.1,0.1,0.094,99.99,5.0,,0.0,0.0,188.71
2025-08-14T22:59:30.348Z,6,GR86-016-55,-0.1,0.105,0.106,99.98,5.0,,0.0,0.0,
2025-08-14T22:59:30.391Z,6,GR86-016-55,-0.1,0.102,0.107,100.0,5.0,,0.0,0.0,
2025-08-14T22:59:30.434Z,6,GR86-016-55,-0.1,0.087,0.111,99.99,5.0,,0.0,0.0,
2025-08-14T22:59:30.477Z,6,GR86-016-55,-0.1,0.114,0.127,100.02,5.0,6497.0,0.0,0.0,
2025-08-14T22:59:30.522Z,6,GR86-016-55,0.1,0.1,0.162,99.99,5.0,,0.0,0.0,189.32
2025-08-14T22:59:30.565Z,6,GR86-016-55,0.1,0.092,0.15,99.99,5.0,,0.0,0.0,
2025-08-14T22:59:30.608Z,6,GR86-016-55,0.1,0.085,0.169,100.0,5.0,,0.0,0.0,
2025-08-14T22:59:30.651Z,6,GR86-016-55,0.2,0.08,0.146,99.99,5.0,,0.0,0.0,
2025-08-14T22:59:30.694Z,6,GR86-016-55,0.3,0.083,0.167,100.02,5.0,6517.0,0.0,0.0,
2025-08-14T22:59:30.737Z,6,GR86-016-55,0.7000000000000001,0.082,0.163,99.99,5.0,,0.0,0.0,190.18
2025-08-14T22:59:30.780Z,6,GR86-016-55,1.5,0.101,0.17,99.99,5.0,,0.0,0.0,
2025-08-14T22:59:30.823Z,6,GR86-016-55,2.1,0.101,0.167,100.01,5.0,,0.0,0.0,
2025-08-14T22:59:30.866Z,6,GR86-016-55,2.6,0.097,0.184,99.99,5.0,,0.0,0.0,
2025-08-14T22:59:30.909Z,6,GR86-016-55,2.9000000000000004,0.091,0.2,100.01,5.0,6554.0,0.0,0.0,
2025-08-14T22:59:30.952Z,6,GR86-016-55,3.1,0.079,0.207,99.99,5.0,,0.0,0.0,190.93
2025-08-14T22:59:30.995Z,6,GR86-016-55,3.3000000000000003,0.103,0.214,100.0,5.0,,0.0,0.0,
2025-08-14T22:59:31.039Z,6,GR86-016-55,3.4000000000000004,0.079,0.196,99.99,5.0,,0.0,0.0,
2025-08-14T22:59:31.082Z,6,GR86-016-55,3.3000000000000003,0.096,0.21,99.98,5.0,,0.0,0.0,
2025-08-14T22:59:31.125Z,6,GR86-016-55,3.2,0.109,0.237,100.02,5.0,6575.0,0.0,0.0,
2025-08-14T22:59:31.168Z,6,GR86-016-55,3.2,0.102,0.249,99.98,5.0,,0.0,0.0,191.6
2025-08-14T22:59:31.211Z,6,GR86-016-55,3.3000000000000003,0.076,0.281,99.99,5.0,,0.0,0.0,
2025-08-14T22:59:31.254Z,6,GR86-016-55,3.4000000000000004,0.087,0.268,100.0,5.0,,0.0,0.0,
2025-08-14T22:59:31.297Z,6,GR86-016-55,3.4000000000000004,0.068,0.276,99.98,5.0,,0.0,0.0,
2025-08-14T22:59:31.340Z,6,GR86-016-55,3.6,0.107,0.266,99.99,5.0,6596.0,0.0,0.0,
2025-08-14T22:59:31.384Z,6,GR86-016-55,3.7,0.099,0.275,100.01,5.0,,0.0,0.0,192.24
2025-08-14T22:59:31.427Z,6,GR86-016-55,3.7,0.102,0.28,100.0,5.0,,0.0,0.0,
2025-08-14T22:59:31.470Z,6,GR86-016-55,3.5,0.095,0.269,99.98,5.0,,0.0,0.0,
2025-08-14T22:59:31.513Z,6,GR86-016-55,3.3000000000000003,0.092,0.292,100.01,5.0,,0.0,0.0,
2025-08-14T22:59:31.556Z,6,GR86-016-55,3.0,0.084,0.284,99.98,5.0,6628.0,0.0,0.0,
2025-08-14T22:59:31.599Z,6,GR86-016-55,2.9000000000000004,0.084,0.273,100.0,5.0,,0.0,0.0,192.94
2025-08-14T22:59:31.642Z,6,GR86-016-55,2.6,0.098,0.251,99.98,5.0,,0.0,0.0,
2025-08-14T22:59:31.685Z,6,GR86-016-55,2.4000000000000004,0.091,0.227,100.02,5.0,,0.0,0.0,
2025-08-14T22:59:31.728Z,6,GR86-016-55,2.1,0.097,0.218,99.98,5.0,,0.0,0.0,
2025-08-14T22:59:31.771Z,6,GR86-016-55,1.2000000000000002,0.076,0.203,99.99,5.0,6643.0,0.0,0.0,
2025-08-14T22:59:31.814Z,6,GR86-016-55,0.2,0.086,0.172,100.0,5.0,,0.0,0.0,193.81
2025-08-14T22:59:31.857Z,6,GR86-016-55,-0.8,0.083,0.169,99.99,5.0,,0.0,0.0,
2025-08-14T22:59:31.901Z,6,GR86-016-55,-1.5,0.116,0.118,99.99,5.0,,0.0,0.0,
2025-08-14T22:59:31.945Z,6,GR86-016-55,-2.2,0.089,0.096,100.0,5.0,,0.0,0.0,
2025-08-14T22:59:31.988Z,6,GR86-016-55,-4.2,0.109,0.068,100.01,5.0,6658.0,0.0,0.0,
2025-08-14T22:59:32.032Z,6,GR86-016-55,-6.300000000000001,0.067,0.007,99.99,5.0,,0.0,0.0,195.04
2025-08-14T22:59:32.075Z,6,GR86-016-55,-7.7,0.084,-0.019,100.0,5.0,,0.0,0.0,
2025-08-14T22:59:32.118Z,6,GR86-016-55,-8.200000000000001,0.062,-0.054,99.99,5.0,,0.0,0.0,
2025-08-14T22:59:32.161Z,6,GR86-016-55,-8.3,0.077,-0.114,99.99,5.0,,0.0,0.0,
2025-08-14T22:59:32.204Z,6,GR86-016-55,-8.700000000000001,0.092,-0.153,100.0,5.0,6671.0,0.0,0.0,
2025-08-14T22:59:32.247Z,6,GR86-016-55,-8.700000000000001,0.077,-0.204,99.99,5.0,,0.0,0.0,195.65
2025-08-14T22:59:32.290Z,6,GR86-016-55,-8.700000000000001,0.056,-0.234,100.0,5.0,,0.0,0.0,
2025-08-14T22:59:32.333Z,6,GR86-016-55,-8.6,0.061,-0.242,100.02,5.0,,0.0,0.0,
2025-08-14T22:59:32.376Z,6,GR86-016-55,-8.6,0.067,-0.258,99.99,5.0,,0.0,0.0,
2025-08-14T22:59:32.419Z,6,GR86-016-55,-8.6,0.055,-0.278,100.01,5.0,6707.0,0.0,0.0,
2025-08-14T22:59:32.462Z,6,GR86-016-55,-9.7,0.057,-0.327,99.98,5.0,,0.0,0.0,196.14
2025-08-14T22:59:32.505Z,6,GR86-016-55,-10.4,0.071,-0.335,99.99,5.0,,0.0,0.0,
2025-08-14T22:59:32.548Z,6,GR86-016-55,-10.6,0.058,-0.366,100.02,5.0,,0.0,0.0,
2025-08-14T22:59:32.591Z,6,GR86-016-55,-10.6,0.059,-0.384,99.99,5.0,,0.0,0.0,
2025-08-14T22:59:32.634Z,6,GR86-016-55,-10.6,0.067,-0.391,99.99,5.0,6724.0,0.0,0.0,
2025-08-14T22:59:32.677Z,6,GR86-016-55,-10.6,0.077,-0.399,99.99,5.0,,0.0,0.0,196.6
2025-08-14T22:59:32.722Z,6,GR86-016-55,-10.6,0.058,-0.398,100.01,5.0,,0.0,0.0,
2025-08-14T22:59:32.765Z,6,GR86-016-55,-10.5,0.061,-0.374,100.0,5.0,,0.0,0.0,
2025-08-14T22:59:32.808Z,6,GR86-016-55,-10.5,0.058,-0.368,100.0,5.0,,0.0,0.0,
2025-08-14T22:59:32.851Z,6,GR86-016-55,-10.5,0.075,-0.376,99.99,5.0,6759.0,0.0,0.0,
2025-08-14T22:59:32.894Z,6,GR86-016-55,-10.4,0.077,-0.399,100.02,5.0,,0.0,0.0,197.06
2025-08-14T22:59:32.937Z,6,GR86-016-55,-10.3,0.088,-0.392,99.99,5.0,,0.0,0.0,
2025-08-14T22:59:32.980Z,6,GR86-016-55,-10.3,0.089,-0.376,100.0,5.0,,0.0,0.0,
2025-08-14T22:59:33.023Z,6,GR86-016-55,-10.2,0.064,-0.372,100.01,5.0,,0.0,0.0,
2025-08-14T22:59:33.066Z,6,GR86-016-55,-10.1,0.085,-0.379,99.98,5.0,6757.0,0.0,0.0,
2025-08-14T22:59:33.109Z,6,GR86-016-55,-9.9,0.068,-0.381,99.98,5.0,,0.0,0.0,197.53
2025-08-14T22:59:33.152Z,6,GR86-016-55,-9.5,0.081,-0.371,100.0,5.0,,0.0,0.0,
2025-08-14T22:59:33.195Z,6,GR86-016-55,-9.3,0.064,-0.337,100.01,5.0,,0.0,0.0,
2025-08-14T22:59:33.239Z,6,GR86-016-55,-9.3,0.08,-0.298,99.97,5.0,,0.0,0.0,
2025-08-14T22:59:33.282Z,6,GR86-016-55,-9.0,0.099,-0.298,100.0,5.0,6782.0,0.0,0.0,
2025-08-14T22:59:33.325Z,6,GR86-016-55,-8.3,0.066,-0.313,100.02,5.0,,0.0,0.0,197.92
2025-08-14T22:59:33.368Z,6,GR86-016-55,-7.300000000000001,0.088,-0.273,99.99,5.0,,0.0,0.0,
2025-08-14T22:59:33.412Z,6,GR86-016-55,-6.6000000000000005,0.088,-0.248,99.99,5.0,,0.0,0.0,
2025-08-14T22:59:33.455Z,6,GR86-016-55,-5.4,0.053,-0.205,99.99,5.0,,0.0,0.0,
2025-08-14T22:59:33.498Z,6,GR86-016-55,-3.4000000000000004,0.075,-0.195,100.02,5.0,6805.0,0.0,0.0,
2025-08-14T22:59:33.541Z,6,GR86-016-55,-0.2,0.068,-0.139,100.01,5.0,,0.0,0.0,198.31
2025-08-14T22:59:33.585Z,6,GR86-016-55,1.7000000000000002,0.08,-0.074,100.0,5.0,,0.0,0.0,
2025-08-14T22:59:33.628Z,6,GR86-016-55,3.3000000000000003,0.059,-0.024,100.02,5.0,,0.0,0.0,
2025-08-14T22:59:33.671Z,6,GR86-016-55,4.2,0.062,0.007,99.98,5.0,,0.0,0.0,
2025-08-14T22:59:33.714Z,6,GR86-016-55,4.2,0.066,0.045,99.99,5.0,6822.0,0.0,0.0,
2025-08-14T22:59:33.758Z,6,GR86-016-55,4.0,0.057,0.105,99.99,5.0,,0.0,0.0,198.67
2025-08-14T22:59:33.801Z,6,GR86-016-55,3.6,0.061,0.162,99.99,5.0,,0.0,0.0,
2025-08-14T22:59:33.844Z,6,GR86-016-55,3.5,0.065,0.194,99.99,5.0,,0.0,0.0,
2025-08-14T22:59:33.887Z,6,GR86-016-55,3.4000000000000004,0.078,0.238,100.0,5.0,,0.0,0.0,
2025-08-14T22:59:33.930Z,6,GR86-016-55,3.4000000000000004,0.069,0.277,100.01,5.0,6835.0,5.3100000000000005,5.555,
2025-08-14T22:59:33.973Z,6,GR86-016-55,3.4000000000000004,0.054,0.317,99.99,5.0,,6.835,6.99,199.42
2025-08-14T22:59:34.016Z,6,GR86-016-55,3.4000000000000004,-0.021,0.31,100.01,5.0,,5.555,5.905,
2025-08-14T22:59:34.059Z,6,GR86-016-55,3.3000000000000003,-0.02,0.345,100.0,5.0,,0.0,1.89,
2025-08-14T22:59:34.102Z,6,GR86-016-55,3.2,0.062,0.333,100.0,5.0,,0.0,0.0,
2025-08-14T22:59:34.145Z,6,GR86-016-55,3.0,0.081,0.337,100.0,5.0,6842.0,0.0,0.0,
2025-08-14T22:59:34.188Z,6,GR86-016-55,2.9000000000000004,0.086,0.344,99.98,5.0,,0.0,0.0,199.84
2025-08-14T22:59:34.231Z,6,GR86-016-55,2.9000000000000004,0.071,0.349,100.0,5.0,,0.0,0.0,
2025-08-14T22:59:34.274Z,6,GR86-016-55,2.9000000000000004,0.065,0.304,99.99,5.0,,0.0,0.0,
2025-08-14T22:59:34.317Z,6,GR86-016-55,2.7,0.066,0.3,99.99,5.0,,0.0,0.0,
2025-08-14T22:59:34.361Z,6,GR86-016-55,2.1,0.078,0.288,99.98,5.0,6848.0,0.0,0.0,
2025-08-14T22:59:34.404Z,6,GR86-016-55,1.3,0.067,0.25,99.98,5.0,,0.0,0.0,199.95
2025-08-14T22:59:34.447Z,6,GR86-016-55,1.0,0.094,0.232,100.0,5.0,,0.0,0.0,
2025-08-14T22:59:34.490Z,6,GR86-016-55,0.9,0.074,0.227,100.01,5.0,,0.0,0.0,
2025-08-14T22:59:34.533Z,6,GR86-016-55,0.7000000000000001,0.073,0.201,100.0,5.0,,0.0,0.0,
2025-08-14T22:59:34.576Z,6,GR86-016-55,0.7000000000000001,0.085,0.186,99.73,5.0,6873.0,1.985,2.305,
2025-08-14T22:59:34.619Z,6,GR86-016-55,0.7000000000000001,0.058,0.138,51.51,5.0,,7.325,7.37,200.39
2025-08-14T22:59:34.662Z,6,GR86-016-55,0.7000000000000001,-0.035,0.137,3.5500000000000003,5.0,,4.87,5.22,
2025-08-14T22:59:34.705Z,6,GR86-016-55,0.9,-0.097,0.142,2.98,5.0,,0.0,0.0,
2025-08-14T22:59:34.748Z,6,GR86-016-55,1.5,-0.112,0.147,2.82,5.0,,0.0,0.0,
2025-08-14T22:59:34.791Z,6,GR86-016-55,2.0,-0.347,0.124,2.73,5.0,6870.0,0.0,0.0,
2025-08-14T22:59:34.834Z,6,GR86-016-55,1.9,-0.173,0.107,2.69,5.0,,0.0,0.0,200.81
2025-08-14T22:59:34.877Z,6,GR86-016-55,1.6,-0.147,0.142,2.67,5.0,,0.0,0.0,
2025-08-14T22:59:34.922Z,6,GR86-016-55,0.5,-0.183,0.078,2.63,5.0,,5.3100000000000005,5.555,
2025-08-14T22:59:34.965Z,6,GR86-016-55,0.4,-0.237,0.108,2.63,5.0,,8.01,8.040000000000001,
2025-08-14T22:59:35.008Z,6,GR86-016-55,0.4,-0.312,0.061,2.59,5.0,6631.0,8.36,8.425,
2025-08-14T22:59:35.051Z,6,GR86-016-55,0.6000000000000001,-0.302,0.08,2.57,5.0,,5.965,6.455,200.25
2025-08-14T22:59:35.094Z,6,GR86-016-55,0.9,-0.259,0.085,2.56,5.0,,7.675,7.8,
2025-08-14T22:59:35.137Z,6,GR86-016-55,1.0,-0.341,0.067,2.53,5.0,,14.68,14.635,
2025-08-14T22:59:35.180Z,6,GR86-016-55,0.8,-0.5650000000000001,0.049,2.53,5.0,,28.55,28.245,
2025-08-14T22:59:35.225Z,6,GR86-016-55,-0.1,-0.712,0.042,2.53,5.0,6543.0,35.235,34.9,
2025-08-14T22:59:35.268Z,6,GR86-016-55,-0.3,-0.782,0.0,2.52,5.0,,37.86,37.705,197.35
2025-08-14T22:59:35.311Z,6,GR86-016-55,-0.4,-0.801,-0.006,2.52,5.0,,35.83,36.485,
2025-08-14T22:59:35.354Z,6,GR86-016-55,-0.3,-0.717,-0.044,2.52,5.0,,26.78,27.925,
2025-08-14T22:59:35.397Z,6,GR86-016-55,1.2000000000000002,-0.514,-0.033,2.51,5.0,,15.685,16.65,
2025-08-14T22:59:35.440Z,6,GR86-016-55,3.3000000000000003,-0.348,-0.006,2.51,5.0,6238.0,4.09,4.44,
2025-08-14T22:59:35.485Z,6,GR86-016-55,3.2,-0.215,-0.016,2.52,5.0,,0.0,0.0,190.15
2025-08-14T22:59:35.528Z,6,GR86-016-55,3.0,-0.158,-0.036,2.5,5.0,,4.21,4.47,
2025-08-14T22:59:35.571Z,6,GR86-016-55,2.3000000000000003,-0.232,-0.012,2.5,5.0,,13.795,13.64,
2025-08-14T22:59:35.614Z,6,GR86-016-55,1.0,-0.471,-0.036,2.5,5.0,,24.555,24.2,
2025-08-14T22:59:35.657Z,6,GR86-016-55,0.1,-0.644,-0.009,2.5,5.0,6341.0,32.17,31.68,
2025-08-14T22:59:35.700Z,6,GR86-016-55,0.1,-0.767,-0.017,2.5,5.0,,35.31,35.31,190.13
2025-08-14T22:59:35.743Z,6,GR86-016-55,5.1000000000000005,-0.765,0.007,2.5,5.0,,35.435,35.525,
2025-08-14T22:59:35.787Z,6,GR86-016-55,8.8,-0.8220000000000001,0.072,2.5,5.0,,35.555,35.71,
2025-08-14T22:59:35.830Z,6,GR86-016-55,9.6,-0.856,0.075,2.5,5.0,,35.77,36.03,
2025-08-14T22:59:35.873Z,6,GR86-016-55,9.4,-0.8210000000000001,0.094,2.5,5.0,5932.0,35.83,36.12,
2025-08-14T22:59:35.916Z,6,GR86-016-55,7.800000000000001,-0.8200000000000001,0.075,2.5,5.0,,36.03,36.365,183.28
2025-08-14T22:59:35.959Z,6,GR86-016-55,4.0,-0.8190000000000001,0.06,2.5,5.0,,36.64,36.87,
2025-08-14T22:59:36.002Z,6,GR86-016-55,-0.6000000000000001,-0.803,0.076,2.5,5.0,,37.585,37.8,
2025-08-14T22:59:36.045Z,6,GR86-016-55,-2.1,-0.782,0.064,2.5,5.0,,38.18,38.38,
2025-08-14T22:59:36.088Z,6,GR86-016-55,-2.4000000000000004,-0.8210000000000001,0.054,2.5,5.0,5896.0,38.44,38.56,
2025-08-14T22:59:36.131Z,6,GR86-016-55,-2.4000000000000004,-0.853,0.049,17.45,5.0,,38.47,38.805,177.76
2025-08-14T22:59:36.174Z,6,GR86-016-55,-2.5,-0.846,0.058,61.2,5.0,,38.865,39.155,
2025-08-14T22:59:36.217Z,6,GR86-016-55,-2.5,-0.861,0.029,98.74,5.0,,38.93,39.4,
2025-08-14T22:59:36.261Z,6,GR86-016-55,-2.5,-0.8220000000000001,0.017,78.14,4.0,,37.555,38.35,
2025-08-14T22:59:36.305Z,6,GR86-016-55,-2.7,-0.808,-0.041,7.81,4.0,5597.0,33.62,34.93,
2025-08-14T22:59:36.348Z,6,GR86-016-55,-3.5,-0.885,-0.015,4.3100000000000005,4.0,,32.655,33.345,171.15
2025-08-14T22:59:36.391Z,6,GR86-016-55,-4.0,-0.788,-0.068,3.88,4.0,,33.71,34.09,
2025-08-14T22:59:36.434Z,6,GR86-016-55,-4.0,-0.796,-0.177,3.41,4.0,,34.87,35.085,
2025-08-14T22:59:36.477Z,6,GR86-016-55,-0.7000000000000001,-0.795,-0.112,3.0500000000000003,4.0,,34.0,34.455,
2025-08-14T22:59:36.521Z,6,GR86-016-55,4.2,-0.764,-0.186,2.88,4.0,6269.0,27.53,28.55,
2025-08-14T22:59:36.565Z,6,GR86-016-55,6.7,-0.6930000000000001,-0.168,2.8000000000000003,4.0,,27.225,27.805,165.22
2025-08-14T22:59:36.608Z,6,GR86-016-55,8.0,-0.738,-0.205,2.73,4.0,,28.185,28.305,
2025-08-14T22:59:36.651Z,6,GR86-016-55,8.1,-0.7030000000000001,-0.218,2.69,4.0,,29.3,29.3,
2025-08-14T22:59:36.694Z,6,GR86-016-55,8.0,-0.7000000000000001,-0.231,2.66,4.0,,30.55,30.58,
2025-08-14T22:59:36.737Z,6,GR86-016-55,8.1,-0.72,-0.208,2.63,4.0,6088.0,32.96,32.715,
2025-08-14T22:59:36.780Z,6,GR86-016-55,9.8,-0.803,-0.196,2.6,4.0,,37.11,36.805,160.83
2025-08-14T22:59:36.823Z,6,GR86-016-55,10.1,-0.853,-0.18,2.58,4.0,,39.675,39.34,
2025-08-14T22:59:36.866Z,6,GR86-016-55,10.1,-0.876,-0.158,2.57,4.0,,41.615,41.215,
2025-08-14T22:59:36.909Z,6,GR86-016-55,10.1,-0.902,-0.155,2.57,4.0,,42.955,42.605,
2025-08-14T22:59:36.952Z,6,GR86-016-55,9.7,-0.902,-0.151,2.57,4.0,5919.0,43.11,42.985,
2025-08-14T22:59:36.995Z,6,GR86-016-55,9.7,-0.941,-0.171,15.54,4.0,,42.605,42.805,156.54
2025-08-14T22:59:37.038Z,6,GR86-016-55,10.6,-0.918,-0.158,59.31,4.0,,41.86,42.18,
2025-08-14T22:59:37.081Z,6,GR86-016-55,12.3,-0.847,-0.119,99.88,3.0,,34.395,35.955,
2025-08-14T22:59:37.125Z,6,GR86-016-55,12.8,-0.713,-0.125,60.27,3.0,,28.095,29.465,
2025-08-14T22:59:37.168Z,6,GR86-016-55,13.2,-0.882,-0.081,4.43,3.0,5578.0,25.835,26.935,
2025-08-14T22:59:37.211Z,6,GR86-016-55,12.9,-0.671,0.009,3.04,3.0,,27.375,28.245,149.35
2025-08-14T22:59:37.254Z,6,GR86-016-55,8.8,-0.72,-0.173,2.79,3.0,,28.49,28.49,
2025-08-14T22:59:37.297Z,6,GR86-016-55,3.8,-0.783,-0.175,2.69,3.0,,31.83,31.68,
2025-08-14T22:59:37.340Z,6,GR86-016-55,-5.4,-0.791,-0.179,2.65,3.0,,34.78,34.745,
2025-08-14T22:59:37.383Z,6,GR86-016-55,-11.6,-0.8230000000000001,-0.276,2.63,3.0,6270.0,35.86,35.68,
2025-08-14T22:59:37.426Z,6,GR86-016-55,-16.400000000000002,-0.8180000000000001,-0.214,2.6,3.0,,37.05,37.02,139.70000000000002
2025-08-14T22:59:37.469Z,6,GR86-016-55,-18.1,-0.8170000000000001,-0.303,2.58,3.0,,37.175,37.42,
2025-08-14T22:59:37.512Z,6,GR86-016-55,-19.4,-0.8190000000000001,-0.303,2.57,3.0,,36.99,37.235,
2025-08-14T22:59:37.555Z,6,GR86-016-55,-20.6,-0.783,-0.289,2.56,3.0,,37.585,37.42,
2025-08-14T22:59:37.598Z,6,GR86-016-55,-20.4,-0.8160000000000001,-0.404,2.53,3.0,6270.0,36.96,37.645,
2025-08-14T22:59:37.642Z,6,GR86-016-55,-6.9,-0.706,-0.42,2.53,3.0,,28.615,29.465,134.71
2025-08-14T22:59:37.685Z,6,GR86-016-55,1.1,-0.6880000000000001,-0.374,2.52,3.0,,25.665,26.6,
2025-08-14T22:59:37.728Z,6,GR86-016-55,2.2,-0.6970000000000001,-0.391,2.51,3.0,,26.63,26.875,
2025-08-14T22:59:37.771Z,6,GR86-016-55,-1.0,-0.6930000000000001,-0.444,2.51,3.0,,27.255,27.53,
2025-08-14T22:59:37.814Z,6,GR86-016-55,-2.0,-0.678,-0.495,2.52,3.0,5957.0,26.75,27.47,
2025-08-14T22:59:37.857Z,6,GR86-016-55,2.7,-0.668,-0.558,2.51,3.0,,27.47,27.56,130.65
2025-08-14T22:59:37.901Z,6,GR86-016-55,10.9,-0.666,-0.518,2.52,3.0,,27.925,28.095,
2025-08-14T22:59:37.945Z,6,GR86-016-55,13.1,-0.665,-0.476,2.51,3.0,,28.645,29.025,
2025-08-14T22:59:37.988Z,6,GR86-016-55,12.7,-0.645,-0.497,2.51,3.0,,28.935,29.39,
2025-08-14T22:59:38.075Z,6,GR86-016-55,0.8,-0.644,-0.5690000000000001,2.51,3.0,5570.0,25.575,26.26,126.8
2025-08-14T22:59:38.118Z,6,GR86-016-55,-14.1,-0.641,-0.581,2.5,3.0,,26.02,26.46,
2025-08-14T22:59:38.161Z,6,GR86-016-55,-33.7,-0.614,-0.755,2.5,3.0,,26.57,26.935,
2025-08-14T22:59:38.204Z,6,GR86-016-55,-39.8,-0.632,-0.756,2.51,3.0,,25.775,26.17,
2025-08-14T22:59:38.247Z,6,GR86-016-55,-40.2,-0.581,-0.726,2.5,3.0,5376.0,26.66,26.935,
2025-08-14T22:59:38.290Z,6,GR86-016-55,-38.2,-0.676,-0.774,2.51,3.0,,27.5,27.745,122.22
2025-08-14T22:59:38.333Z,6,GR86-016-55,-34.6,-0.646,-0.781,2.5,3.0,,27.62,28.095,
2025-08-14T22:59:38.376Z,6,GR86-016-55,-32.7,-0.579,-0.792,2.5,3.0,,26.08,26.72,
2025-08-14T22:59:38.419Z,6,GR86-016-55,-28.700000000000003,-0.578,-0.747,2.5,3.0,,25.425,25.835,
2025-08-14T22:59:38.505Z,6,GR86-016-55,-18.6,-0.523,-0.784,2.5,3.0,5228.0,21.595,22.675,118.85
2025-08-14T22:59:38.548Z,6,GR86-016-55,-21.200000000000003,-0.486,-0.778,2.5,3.0,,17.96,18.83,
2025-08-14T22:59:38.591Z,6,GR86-016-55,-30.4,-0.508,-0.8220000000000001,2.5,3.0,,16.345,17.150000000000002,
2025-08-14T22:59:38.634Z,6,GR86-016-55,-34.7,-0.449,-0.887,2.5,3.0,,14.24,14.97,
2025-08-14T22:59:38.677Z,6,GR86-016-55,-32.800000000000004,-0.405,-0.889,2.5,3.0,5085.0,9.995,10.68,
2025-08-14T22:59:38.722Z,6,GR86-016-55,-18.6,-0.327,-0.809,2.5,3.0,,7.325,7.8,115.0
2025-08-14T22:59:38.765Z,6,GR86-016-55,-18.9,-0.324,-0.866,2.5,3.0,,7.325,7.705,
2025-08-14T22:59:38.808Z,6,GR86-016-55,-27.9,-0.295,-0.874,2.5,3.0,,7.675,8.01,
2025-08-14T22:59:38.851Z,6,GR86-016-55,-34.0,-0.331,-0.868,2.49,3.0,,8.24,8.455,
2025-08-14T22:59:38.894Z,6,GR86-016-55,-36.2,-0.315,-0.905,2.49,3.0,5037.0,8.805,9.065,
2025-08-14T22:59:38.937Z,6,GR86-016-55,-37.1,-0.344,-0.912,2.5,3.0,,9.43,9.81,112.64
2025-08-14T22:59:38.980Z,6,GR86-016-55,-38.3,-0.38,-0.901,2.5,3.0,,10.47,10.835,
2025-08-14T22:59:39.023Z,6,GR86-016-55,-38.5,-0.354,-0.912,2.5,3.0,,10.18,10.47,
2025-08-14T22:59:39.066Z,6,GR86-016-55,-38.5,-0.364,-0.903,2.5,3.0,,7.765000000000001,8.36,
2025-08-14T22:59:39.109Z,6,GR86-016-55,-37.8,-0.282,-0.954,2.5,3.0,4897.0,1.955,2.245,
2025-08-14T22:59:39.152Z,6,GR86-016-55,-36.5,-0.19,-0.962,2.5,3.0,,0.0,0.0,110.36
2025-08-14T22:59:39.195Z,6,GR86-016-55,-31.6,-0.176,-0.916,13.13,3.0,,0.0,0.0,
2025-08-14T22:59:39.238Z,6,GR86-016-55,-26.700000000000003,-0.138,-0.942,19.57,3.0,,0.0,0.0,
2025-08-14T22:59:39.281Z,6,GR86-016-55,-21.1,-0.128,-0.942,28.6,3.0,,0.0,0.0,
2025-08-14T22:59:39.325Z,6,GR86-016-55,-20.5,-0.102,-0.975,39.75,3.0,4811.0,0.0,0.0,
2025-08-14T22:59:39.368Z,6,GR86-016-55,-21.4,-0.082,-0.941,46.34,3.0,,0.0,0.0,107.9
2025-08-14T22:59:39.412Z,6,GR86-016-55,-25.4,-0.092,-0.941,51.82,3.0,,0.0,0.0,
2025-08-14T22:59:39.455Z,6,GR86-016-55,-28.0,0.13,-0.932,52.120000000000005,3.0,,0.0,0.0,
2025-08-14T22:59:39.498Z,6,GR86-016-55,-28.3,0.191,-0.894,51.1,3.0,,0.0,0.0,
2025-08-14T22:59:39.541Z,6,GR86-016-55,-32.1,0.175,-0.93,46.97,3.0,5001.0,0.0,0.0,
2025-08-14T22:59:39.585Z,6,GR86-016-55,-39.1,0.191,-0.886,31.04,3.0,,0.0,0.0,106.87
2025-08-14T22:59:39.628Z,6,GR86-016-55,-45.3,0.172,-0.919,20.8,3.0,,0.0,0.0,
2025-08-14T22:59:39.671Z,6,GR86-016-55,-48.8,0.136,-0.898,4.68,3.0,,0.0,0.0,
2025-08-14T22:59:39.714Z,6,GR86-016-55,-50.0,0.107,-0.952,20.19,3.0,,0.0,0.0,
2025-08-14T22:59:39.757Z,6,GR86-016-55,-51.0,0.04,-0.942,21.29,3.0,5186.0,0.0,0.0,
2025-08-14T22:59:39.800Z,6,GR86-016-55,-53.6,-0.03,-0.789,36.48,3.0,,0.0,0.0,106.55
2025-08-14T22:59:39.843Z,6,GR86-016-55,-55.6,-0.025,-1.005,39.4,3.0,,0.0,0.0,
2025-08-14T22:59:39.886Z,6,GR86-016-55,-56.8,-0.004,-0.874,45.31,3.0,,0.0,0.0,
2025-08-14T22:59:39.930Z,6,GR86-016-55,-58.2,0.113,-0.933,49.51,3.0,,0.0,0.0,
2025-08-14T22:59:39.973Z,6,GR86-016-55,-59.1,0.178,-0.878,44.55,3.0,4946.0,0.0,0.0,
2025-08-14T22:59:40.016Z,6,GR86-016-55,-60.3,0.171,-0.785,38.89,3.0,,0.0,0.0,105.9
2025-08-14T22:59:40.059Z,6,GR86-016-55,-61.8,0.159,-0.8290000000000001,29.61,3.0,,0.0,0.0,
2025-08-14T22:59:40.102Z,6,GR86-016-55,-64.60000000000001,0.108,-0.851,30.73,3.0,,0.0,0.0,
2025-08-14T22:59:40.145Z,6,GR86-016-55,-66.0,0.087,-0.837,34.26,3.0,,0.0,0.0,
2025-08-14T22:59:40.188Z,6,GR86-016-55,-66.9,0.071,-0.88,27.41,3.0,5103.0,0.0,0.0,
2025-08-14T22:59:40.231Z,6,GR86-016-55,-67.7,0.102,-0.8140000000000001,15.96,3.0,,0.0,0.0,105.34
2025-08-14T22:59:40.274Z,6,GR86-016-55,-68.2,0.094,-0.8200000000000001,4.86,3.0,,0.0,0.0,
2025-08-14T22:59:40.317Z,6,GR86-016-55,-68.4,0.017,-0.843,20.94,3.0,,0.0,0.0,
2025-08-14T22:59:40.361Z,6,GR86-016-55,-68.5,-0.12,-0.847,28.75,3.0,,0.0,0.0,
2025-08-14T22:59:40.404Z,6,GR86-016-55,-68.60000000000001,-0.141,-0.866,21.7,3.0,5059.0,0.0,0.0,
2025-08-14T22:59:40.447Z,6,GR86-016-55,-68.5,-0.106,-0.898,26.09,3.0,,0.0,0.0,106.56
2025-08-14T22:59:40.490Z,6,GR86-016-55,-68.5,-0.035,-0.841,37.69,3.0,,0.0,0.0,
2025-08-14T22:59:40.533Z,6,GR86-016-55,-68.10000000000001,0.222,-0.8310000000000001,34.81,3.0,,0.0,0.0,
2025-08-14T22:59:40.576Z,6,GR86-016-55,-67.7,0.132,-0.862,29.84,3.0,,0.0,0.0,
2025-08-14T22:59:40.619Z,6,GR86-016-55,-67.0,0.101,-0.792,53.15,3.0,4803.0,0.0,0.0,
2025-08-14T22:59:40.662Z,6,GR86-016-55,-66.8,0.082,-0.89,82.9,3.0,,0.0,0.0,107.19
2025-08-14T22:59:40.705Z,6,GR86-016-55,-66.5,0.117,-0.901,100.06,3.0,,0.0,0.0,
2025-08-14T22:59:40.791Z,6,GR86-016-55,-66.10000000000001,0.142,-0.912,99.99,3.0,,0.0,0.0,
2025-08-14T22:59:40.834Z,6,GR86-016-55,-59.0,0.188,-0.891,99.98,3.0,5184.0,0.0,0.0,
2025-08-14T22:59:40.877Z,6,GR86-016-55,-51.1,0.183,-0.854,99.98,3.0,,0.0,0.0,107.32
2025-08-14T22:59:40.922Z,6,GR86-016-55,-42.8,0.17,-0.887,99.99,3.0,,0.0,0.0,
2025-08-14T22:59:40.965Z,6,GR86-016-55,-41.0,0.182,-0.882,99.98,3.0,,0.0,0.0,
2025-08-14T22:59:41.008Z,6,GR86-016-55,-40.5,0.188,-0.866,99.98,3.0,,0.0,0.0,
2025-08-14T22:59:41.051Z,6,GR86-016-55,-40.3,0.187,-0.8270000000000001,99.97,3.0,5203.0,0.0,0.0,
2025-08-14T22:59:41.094Z,6,GR86-016-55,-40.2,0.201,-0.8180000000000001,99.98,3.0,,0.0,0.0,108.25
2025-08-14T22:59:41.137Z,6,GR86-016-55,-40.0,0.181,-0.782,99.99,3.0,,0.0,0.0,
2025-08-14T22:59:41.181Z,6,GR86-016-55,-41.3,0.188,-0.879,99.98,3.0,,0.0,0.0,
2025-08-14T22:59:41.225Z,6,GR86-016-55,-41.8,0.18,-0.882,99.96,3.0,,0.0,0.0,
2025-08-14T22:59:41.268Z,6,GR86-016-55,-41.8,0.201,-0.865,99.96,3.0,5257.0,0.0,0.0,
2025-08-14T22:59:41.311Z,6,GR86-016-55,-41.3,0.194,-0.8220000000000001,99.96,3.0,,0.0,0.0,109.17
2025-08-14T22:59:41.354Z,6,GR86-016-55,-40.3,0.19,-0.8230000000000001,99.99,3.0,,0.0,0.0,
2025-08-14T22:59:41.397Z,6,GR86-016-55,-38.900000000000006,0.175,-0.812,99.97,3.0,,0.0,0.0,
2025-08-14T22:59:41.440Z,6,GR86-016-55,-37.0,0.184,-0.8260000000000001,99.97,3.0,,0.0,0.0,
2025-08-14T22:59:41.485Z,6,GR86-016-55,-36.6,0.191,-0.8140000000000001,99.98,3.0,5274.0,0.0,0.0,
2025-08-14T22:59:41.528Z,6,GR86-016-55,-36.4,0.203,-0.789,99.99,3.0,,0.0,0.0,110.4
2025-08-14T22:59:41.571Z,6,GR86-016-55,-36.0,0.188,-0.764,99.96,3.0,,0.0,0.0,
2025-08-14T22:59:41.614Z,6,GR86-016-55,-35.6,0.198,-0.767,99.96,3.0,,0.0,0.0,
2025-08-14T22:59:41.657Z,6,GR86-016-55,-35.4,0.191,-0.744,99.95,3.0,,0.0,0.0,
2025-08-14T22:59:41.701Z,6,GR86-016-55,-37.7,0.177,-0.739,99.97,3.0,5317.0,0.0,0.0,
2025-08-14T22:59:41.744Z,6,GR86-016-55,-40.6,0.191,-0.769,99.97,3.0,,0.0,0.0,110.49
2025-08-14T22:59:41.787Z,6,GR86-016-55,-42.7,0.193,-0.745,99.96,3.0,,0.0,0.0,
2025-08-14T22:59:41.830Z,6,GR86-016-55,-43.1,0.186,-0.754,99.98,3.0,,0.0,0.0,
2025-08-14T22:59:41.873Z,6,GR86-016-55,-42.6,0.192,-0.748,99.98,3.0,,0.0,0.0,
2025-08-14T22:59:41.916Z,6,GR86-016-55,-41.6,0.176,-0.722,99.98,3.0,5376.0,0.0,0.0,
2025-08-14T22:59:41.959Z,6,GR86-016-55,-42.1,0.169,-0.75,99.98,3.0,,0.0,0.0,111.43
2025-08-14T22:59:42.002Z,6,GR86-016-55,-44.3,0.178,-0.772,99.96,3.0,,0.0,0.0,
2025-08-14T22:59:42.045Z,6,GR86-016-55,-43.6,0.184,-0.782,99.96,3.0,,0.0,0.0,
2025-08-14T22:59:42.088Z,6,GR86-016-55,-39.900000000000006,0.166,-0.81,99.99,3.0,,0.0,0.0,
2025-08-14T22:59:42.131Z,6,GR86-016-55,-32.6,0.172,-0.802,99.98,3.0,5445.0,0.0,0.0,
2025-08-14T22:59:42.174Z,6,GR86-016-55,-26.6,0.198,-0.801,99.95,3.0,,0.0,0.0,113.42
2025-08-14T22:59:42.217Z,6,GR86-016-55,-23.8,0.212,-0.762,99.98,3.0,,0.0,0.0,
2025-08-14T22:59:42.262Z,6,GR86-016-55,-21.3,0.193,-0.768,99.98,3.0,,0.0,0.0,
2025-08-14T22:59:42.305Z,6,GR86-016-55,-19.1,0.19,-0.778,99.95,3.0,,0.0,0.0,
2025-08-14T22:59:42.348Z,6,GR86-016-55,-17.1,0.204,-0.737,99.97,3.0,5510.0,0.0,0.0,
2025-08-14T22:59:42.391Z,6,GR86-016-55,-16.7,0.183,-0.66,99.98,3.0,,0.0,0.0,114.78
2025-08-14T22:59:42.434Z,6,GR86-016-55,-16.7,0.157,-0.662,99.96,3.0,,0.0,0.0,
2025-08-14T22:59:42.477Z,6,GR86-016-55,-19.0,0.199,-0.615,100.0,3.0,,0.0,0.0,
2025-08-14T22:59:42.522Z,6,GR86-016-55,-25.8,0.21,-0.587,99.98,3.0,,0.0,0.0,
2025-08-14T22:59:42.565Z,6,GR86-016-55,-29.200000000000003,0.165,-0.547,99.96,3.0,5536.0,0.0,0.0,
2025-08-14T22:59:42.608Z,6,GR86-016-55,-30.0,0.189,-0.743,99.97,3.0,,0.0,0.0,115.8
2025-08-14T22:59:42.651Z,6,GR86-016-55,-28.9,0.231,-0.611,99.97,3.0,,0.0,0.0,
2025-08-14T22:59:42.694Z,6,GR86-016-55,-27.4,0.231,-0.75,99.99,3.0,,0.0,0.0,
2025-08-14T22:59:42.737Z,6,GR86-016-55,-24.200000000000003,0.216,-0.602,99.96,3.0,,0.0,0.0,
2025-08-14T22:59:42.780Z,6,GR86-016-55,-21.3,0.158,-0.418,99.99,3.0,5604.0,0.0,0.0,
2025-08-14T22:59:42.823Z,6,GR86-016-55,-19.700000000000003,0.124,-0.479,99.97,3.0,,0.0,0.0,117.15
2025-08-14T22:59:42.866Z,6,GR86-016-55,-17.400000000000002,0.151,-0.418,100.0,3.0,,0.0,0.0,
2025-08-14T22:59:42.909Z,6,GR86-016-55,-14.9,0.18,-0.484,99.98,3.0,,0.0,0.0,
2025-08-14T22:59:42.952Z,6,GR86-016-55,-12.5,0.247,-0.485,99.97,3.0,,0.0,0.0,
2025-08-14T22:59:42.995Z,6,GR86-016-55,-11.3,0.243,-0.457,99.97,3.0,5635.0,0.0,0.0,
2025-08-14T22:59:43.038Z,6,GR86-016-55,-11.0,0.254,-0.419,99.98,3.0,,0.0,0.0,118.36
2025-08-14T22:59:43.081Z,6,GR86-016-55,-10.7,0.196,-0.486,99.99,3.0,,0.0,0.0,
2025-08-14T22:59:43.125Z,6,GR86-016-55,-10.9,0.197,-0.536,99.98,3.0,,0.0,0.0,
2025-08-14T22:59:43.168Z,6,GR86-016-55,-10.6,0.216,-0.423,99.97,3.0,,0.0,0.0,
2025-08-14T22:59:43.211Z,6,GR86-016-55,-9.6,0.199,-0.37,99.99,3.0,5714.0,0.0,0.0,
2025-08-14T22:59:43.254Z,6,GR86-016-55,-7.0,0.233,-0.39,99.99,3.0,,0.0,0.0,119.84
2025-08-14T22:59:43.297Z,6,GR86-016-55,-4.7,0.285,-0.159,99.96,3.0,,0.0,0.0,
2025-08-14T22:59:43.340Z,6,GR86-016-55,-4.7,0.15,-0.227,99.98,3.0,,0.0,0.0,
2025-08-14T22:59:43.383Z,6,GR86-016-55,-5.1000000000000005,0.128,-0.149,99.99,3.0,,0.0,0.0,
2025-08-14T22:59:43.426Z,6,GR86-016-55,-6.300000000000001,0.267,-0.199,99.98,3.0,5865.0,0.0,0.0,
2025-08-14T22:59:43.469Z,6,GR86-016-55,-8.0,0.305,-0.156,99.97,3.0,,0.0,0.0,120.97
2025-08-14T22:59:43.512Z,6,GR86-016-55,-9.2,0.255,-0.19,99.98,3.0,,0.0,0.0,
2025-08-14T22:59:43.555Z,6,GR86-016-55,-10.6,0.189,-0.109,99.99,3.0,,0.0,0.0,
2025-08-14T22:59:43.598Z,6,GR86-016-55,-11.5,0.214,-0.212,99.97,3.0,,0.0,0.0,
2025-08-14T22:59:43.642Z,6,GR86-016-55,-11.9,0.253,-0.093,99.97,3.0,5870.0,0.0,0.0,
2025-08-14T22:59:43.685Z,6,GR86-016-55,-12.2,0.22,-0.117,99.98,3.0,,0.0,0.0,122.56
2025-08-14T22:59:43.728Z,6,GR86-016-55,-12.9,0.156,-0.117,99.98,3.0,,0.0,0.0,
2025-08-14T22:59:43.771Z,6,GR86-016-55,-13.1,0.161,-0.134,99.98,3.0,,0.0,0.0,
2025-08-14T22:59:43.814Z,6,GR86-016-55,-12.9,0.192,-0.146,99.98,3.0,,0.0,0.0,
2025-08-14T22:59:43.857Z,6,GR86-016-55,-10.4,0.21,-0.114,99.97,3.0,5949.0,0.0,0.0,
2025-08-14T22:59:43.900Z,6,GR86-016-55,-5.7,0.16,-0.084,99.98,3.0,,0.0,0.0,123.8
2025-08-14T22:59:43.943Z,6,GR86-016-55,-2.6,0.149,-0.092,99.98,3.0,,0.0,0.0,
2025-08-14T22:59:43.986Z,6,GR86-016-55,-0.1,0.212,-0.108,99.99,3.0,,0.0,0.0,
2025-08-14T22:59:44.029Z,6,GR86-016-55,1.3,0.248,-0.082,99.98,3.0,,0.0,0.0,
2025-08-14T22:59:44.072Z,6,GR86-016-55,1.3,0.252,-0.021,99.98,3.0,6019.0,0.0,0.0,
2025-08-14T22:59:44.115Z,6,GR86-016-55,1.2000000000000002,0.222,-0.033,99.98,3.0,,0.0,0.0,125.18
2025-08-14T22:59:44.158Z,6,GR86-016-55,1.1,0.214,0.016,99.97,3.0,,0.0,0.0,
2025-08-14T22:59:44.201Z,6,GR86-016-55,1.0,0.223,0.03,99.98,3.0,,0.0,0.0,
2025-08-14T22:59:44.244Z,6,GR86-016-55,1.0,0.239,0.079,99.99,3.0,,0.0,0.0,
2025-08-14T22:59:44.287Z,6,GR86-016-55,1.0,0.211,0.116,100.0,3.0,6091.0,0.0,0.0,
2025-08-14T22:59:44.332Z,6,GR86-016-55,1.0,0.199,0.125,99.99,3.0,,0.0,0.0,126.72
2025-08-14T22:59:44.375Z,6,GR86-016-55,1.0,0.198,0.149,99.98,3.0,,0.0,0.0,
2025-08-14T22:59:44.418Z,6,GR86-016-55,0.9,0.214,0.148,99.98,3.0,,0.0,0.0,
2025-08-14T22:59:44.461Z,6,GR86-016-55,0.7000000000000001,0.216,0.143,99.98,3.0,,0.0,0.0,
2025-08-14T22:59:44.504Z,6,GR86-016-55,0.5,0.187,0.145,99.99,3.0,6112.0,0.0,0.0,
2025-08-14T22:59:44.547Z,6,GR86-016-55,0.4,0.182,0.138,99.98,3.0,,0.0,0.0,128.18
2025-08-14T22:59:44.590Z,6,GR86-016-55,0.4,0.208,0.154,99.98,3.0,,0.0,0.0,
2025-08-14T22:59:44.633Z,6,GR86-016-55,0.4,0.224,0.146,99.97,3.0,,0.0,0.0,
2025-08-14T22:59:44.676Z,6,GR86-016-55,0.4,0.227,0.142,99.97,3.0,,0.0,0.0,
2025-08-14T22:59:44.719Z,6,GR86-016-55,0.2,0.211,0.126,99.99,3.0,6197.0,0.0,0.0,
2025-08-14T22:59:44.762Z,6,GR86-016-55,-0.3,0.189,0.114,99.98,3.0,,0.0,0.0,129.6
2025-08-14T22:59:44.805Z,6,GR86-016-55,-0.6000000000000001,0.187,0.115,99.99,3.0,,0.0,0.0,
2025-08-14T22:59:44.848Z,6,GR86-016-55,-0.6000000000000001,0.203,0.105,100.0,3.0,,0.0,0.0,
2025-08-14T22:59:44.891Z,6,GR86-016-55,-0.6000000000000001,0.199,0.09,99.98,3.0,,0.0,0.0,
2025-08-14T22:59:44.934Z,6,GR86-016-55,-0.8,0.217,0.087,99.97,3.0,6242.0,0.0,0.0,
2025-08-14T22:59:44.977Z,6,GR86-016-55,-0.9,0.213,0.087,99.98,3.0,,0.0,0.0,131.15
2025-08-14T22:59:45.022Z,6,GR86-016-55,-1.1,0.186,0.07,99.99,3.0,,0.0,0.0,
2025-08-14T22:59:45.065Z,6,GR86-016-55,-1.1,0.199,0.058,99.99,3.0,,0.0,0.0,
2025-08-14T22:59:45.108Z,6,GR86-016-55,-1.3,0.205,0.036,99.99,3.0,,0.0,0.0,
2025-08-14T22:59:45.151Z,6,GR86-016-55,-1.3,0.197,0.039,99.98,3.0,6311.0,0.0,0.0,
2025-08-14T22:59:45.194Z,6,GR86-016-55,-1.3,0.198,0.033,99.99,3.0,,0.0,0.0,132.73
2025-08-14T22:59:45.237Z,6,GR86-016-55,-1.3,0.195,0.036,99.99,3.0,,0.0,0.0,
2025-08-14T22:59:45.280Z,6,GR86-016-55,-1.4,0.206,0.014,99.99,3.0,,0.0,0.0,
2025-08-14T22:59:45.323Z,6,GR86-016-55,-1.3,0.21,0.014,99.99,3.0,,0.0,0.0,
2025-08-14T22:59:45.366Z,6,GR86-016-55,-1.4,0.195,0.015,99.99,3.0,6390.0,0.0,0.0,
2025-08-14T22:59:45.409Z,6,GR86-016-55,-1.4,0.183,0.015,99.98,3.0,,0.0,0.0,134.23
2025-08-14T22:59:45.452Z,6,GR86-016-55,-1.4,0.185,0.015,100.0,3.0,,0.0,0.0,
2025-08-14T22:59:45.495Z,6,GR86-016-55,-1.4,0.203,-0.002,99.99,3.0,,0.0,0.0,
2025-08-14T22:59:45.539Z,6,GR86-016-55,-1.4,0.197,-0.007,99.97,3.0,,0.0,0.0,
2025-08-14T22:59:45.582Z,6,GR86-016-55,-1.4,0.179,-0.013,99.99,3.0,6451.0,0.0,0.0,
2025-08-14T22:59:45.625Z,6,GR86-016-55,-1.4,0.192,-0.008,99.98,3.0,,0.0,0.0,137.20000000000002
2025-08-14T22:59:45.668Z,6,GR86-016-55,-1.4,0.207,-0.007,99.98,3.0,,0.0,0.0,
2025-08-14T22:59:45.712Z,6,GR86-016-55,-1.4,0.2,-0.01,99.99,3.0,,0.0,0.0,
2025-08-14T22:59:45.755Z,6,GR86-016-55,-1.4,0.177,-0.01,99.99,3.0,,0.0,0.0,
2025-08-14T22:59:45.798Z,6,GR86-016-55,-1.4,0.176,-0.01,99.99,3.0,6542.0,0.0,0.0,
2025-08-14T22:59:45.842Z,6,GR86-016-55,-1.4,0.204,-0.01,100.01,3.0,,0.0,0.0,138.75
2025-08-14T22:59:45.885Z,6,GR86-016-55,-1.4,0.199,-0.005,99.99,3.0,,0.0,0.0,
2025-08-14T22:59:45.928Z,6,GR86-016-55,-1.4,0.193,-0.003,100.02,3.0,,0.0,0.0,
2025-08-14T22:59:45.971Z,6,GR86-016-55,-1.4,0.181,0.005,100.0,3.0,,0.0,0.0,
2025-08-14T22:59:46.014Z,6,GR86-016-55,-1.3,0.183,0.005,100.0,3.0,6632.0,0.0,0.0,
2025-08-14T22:59:46.057Z,6,GR86-016-55,-0.9,0.167,0.006,100.0,3.0,,0.0,0.0,140.49
2025-08-14T22:59:46.100Z,6,GR86-016-55,0.3,0.197,0.027,99.99,3.0,,0.0,0.0,
2025-08-14T22:59:46.143Z,6,GR86-016-55,0.4,0.199,0.039,100.0,3.0,,0.0,0.0,
2025-08-14T22:59:46.186Z,6,GR86-016-55,0.4,0.198,0.059,100.03,3.0,,0.0,0.0,
2025-08-14T22:59:46.229Z,6,GR86-016-55,0.4,0.181,0.068,99.99,3.0,6752.0,0.0,0.0,
2025-08-14T22:59:46.272Z,6,GR86-016-55,0.4,0.168,0.069,99.98,3.0,,0.0,0.0,142.3
2025-08-14T22:59:46.315Z,6,GR86-016-55,0.4,0.175,0.073,99.98,3.0,,0.0,0.0,
2025-08-14T22:59:46.358Z,6,GR86-016-55,0.4,0.206,0.099,100.01,3.0,,0.0,0.0,
2025-08-14T22:59:46.401Z,6,GR86-016-55,0.2,0.192,0.092,99.99,3.0,,0.0,0.0,
2025-08-14T22:59:46.444Z,6,GR86-016-55,0.0,0.182,0.107,99.99,3.0,6850.0,0.0,0.0,
2025-08-14T22:59:46.487Z,6,GR86-016-55,-0.2,0.177,0.114,100.02,3.0,,0.0,0.0,143.99
2025-08-14T22:59:46.530Z,6,GR86-016-55,-0.2,0.185,0.107,100.02,3.0,,0.0,0.0,
2025-08-14T22:59:46.573Z,6,GR86-016-55,-0.2,0.194,0.103,99.99,3.0,,0.0,0.0,
2025-08-14T22:59:46.616Z,6,GR86-016-55,-0.4,0.176,0.106,100.01,3.0,,0.0,0.0,
2025-08-14T22:59:46.659Z,6,GR86-016-55,-0.4,0.18,0.099,100.0,3.0,6916.0,0.0,0.0,
2025-08-14T22:59:46.702Z,6,GR86-016-55,-0.6000000000000001,0.172,0.087,99.99,3.0,,0.0,0.0,145.73
2025-08-14T22:59:46.745Z,6,GR86-016-55,-0.8,0.204,0.085,100.0,3.0,,0.0,0.0,
2025-08-14T22:59:46.788Z,6,GR86-016-55,-1.5,0.196,0.066,100.02,3.0,,0.0,0.0,
2025-08-14T22:59:46.831Z,6,GR86-016-55,-2.9000000000000004,0.167,0.057,99.99,3.0,,0.0,0.0,
2025-08-14T22:59:46.874Z,6,GR86-016-55,-4.800000000000001,0.147,0.026,100.02,3.0,6994.0,0.0,0.0,
2025-08-14T22:59:46.918Z,6,GR86-016-55,-6.7,0.178,-0.001,99.99,3.0,,0.0,0.0,147.42000000000002
2025-08-14T22:59:46.961Z,6,GR86-016-55,-8.3,0.202,-0.026,100.01,3.0,,0.0,0.0,
2025-08-14T22:59:47.005Z,6,GR86-016-55,-8.5,0.161,-0.054,100.02,3.0,,0.0,0.0,
2025-08-14T22:59:47.048Z,6,GR86-016-55,-8.6,0.158,-0.062,100.0,3.0,,0.0,0.0,
2025-08-14T22:59:47.091Z,6,GR86-016-55,-8.6,0.18,-0.098,100.0,3.0,7056.0,0.0,0.0,
2025-08-14T22:59:47.134Z,6,GR86-016-55,-8.6,0.175,-0.125,100.0,3.0,,0.0,0.0,149.15
2025-08-14T22:59:47.177Z,6,GR86-016-55,-8.5,0.166,-0.12,99.99,3.0,,0.0,0.0,
2025-08-14T22:59:47.222Z,6,GR86-016-55,-8.4,0.166,-0.16,100.02,3.0,,0.0,0.0,
2025-08-14T22:59:47.265Z,6,GR86-016-55,-8.200000000000001,0.175,-0.172,99.99,3.0,,0.0,0.0,
2025-08-14T22:59:47.308Z,6,GR86-016-55,-7.6,0.175,-0.192,99.98,3.0,7156.0,0.0,0.0,
2025-08-14T22:59:47.351Z,6,GR86-016-55,-7.2,0.162,-0.197,100.0,3.0,,0.0,0.0,150.89
2025-08-14T22:59:47.394Z,6,GR86-016-55,-6.800000000000001,0.153,-0.191,100.03,3.0,,0.0,0.0,
2025-08-14T22:59:47.437Z,6,GR86-016-55,-6.300000000000001,0.148,-0.189,100.0,3.0,,0.0,0.0,
2025-08-14T22:59:47.480Z,6,GR86-016-55,-5.9,0.155,-0.164,100.02,3.0,,0.0,0.0,
2025-08-14T22:59:47.525Z,6,GR86-016-55,-5.7,0.151,-0.144,99.99,3.0,7217.0,0.0,0.0,
2025-08-14T22:59:47.568Z,6,GR86-016-55,-5.5,0.156,-0.143,100.01,3.0,,0.0,0.0,152.52
2025-08-14T22:59:47.611Z,6,GR86-016-55,-4.7,0.163,-0.124,100.04,3.0,,0.0,0.0,
2025-08-14T22:59:47.654Z,6,GR86-016-55,-3.3000000000000003,0.091,-0.123,100.02,3.0,,0.0,0.0,
2025-08-14T22:59:47.697Z,6,GR86-016-55,-2.8000000000000003,-0.099,-0.058,100.02,4.0,,0.0,0.0,
2025-08-14T22:59:47.741Z,6,GR86-016-55,-2.8000000000000003,0.465,-0.076,100.02,4.0,7279.0,0.0,0.0,
2025-08-14T22:59:47.827Z,6,GR86-016-55,-2.9000000000000004,0.183,-0.057,100.03,4.0,,0.0,0.0,154.05
2025-08-14T22:59:47.870Z,6,GR86-016-55,-3.3000000000000003,0.093,-0.027,100.01,4.0,,0.0,0.0,
2025-08-14T22:59:47.913Z,6,GR86-016-55,-3.4000000000000004,0.172,-0.026,100.02,4.0,,0.0,0.0,
2025-08-14T22:59:47.956Z,6,GR86-016-55,-3.9,0.157,0.04,100.03,4.0,6059.0,0.0,0.0,
2025-08-14T22:59:47.999Z,6,GR86-016-55,-4.9,0.131,-0.026,100.02,4.0,,0.0,0.0,155.57
2025-08-14T22:59:48.042Z,6,GR86-016-55,-6.7,0.152,-0.002,100.03,4.0,,0.0,0.0,
2025-08-14T22:59:48.085Z,6,GR86-016-55,-8.0,0.146,-0.037,100.02,4.0,,0.0,0.0,
2025-08-14T22:59:48.128Z,6,GR86-016-55,-8.9,0.133,-0.059,100.01,4.0,,0.0,0.0,
2025-08-14T22:59:48.171Z,6,GR86-016-55,-9.9,0.126,-0.061,100.04,4.0,6228.0,0.0,0.0,
2025-08-14T22:59:48.214Z,6,GR86-016-55,-10.7,0.117,-0.092,100.02,4.0,,0.0,0.0,157.14
2025-08-14T22:59:48.258Z,6,GR86-016-55,-11.2,0.134,-0.134,100.03,4.0,,0.0,0.0,
2025-08-14T22:59:48.301Z,6,GR86-016-55,-11.2,0.141,-0.174,100.0,4.0,,0.0,0.0,
2025-08-14T22:59:48.344Z,6,GR86-016-55,-11.4,0.129,-0.206,100.02,4.0,,0.0,0.0,
2025-08-14T22:59:48.387Z,6,GR86-016-55,-12.4,0.116,-0.235,99.99,4.0,6304.0,0.0,0.0,
2025-08-14T22:59:48.430Z,6,GR86-016-55,-13.9,0.124,-0.27,100.03,4.0,,0.0,0.0,159.69
2025-08-14T22:59:48.473Z,6,GR86-016-55,-15.0,0.121,-0.3,100.0,4.0,,0.0,0.0,
2025-08-14T22:59:48.516Z,6,GR86-016-55,-15.3,0.133,-0.313,100.02,4.0,,0.0,0.0,
2025-08-14T22:59:48.559Z,6,GR86-016-55,-15.3,0.122,-0.318,100.02,4.0,,0.0,0.0,
2025-08-14T22:59:48.602Z,6,GR86-016-55,-14.6,0.113,-0.378,100.0,4.0,6343.0,0.0,0.0,
2025-08-14T22:59:48.645Z,6,GR86-016-55,-12.6,0.129,-0.37,100.02,4.0,,0.0,0.0,160.93
2025-08-14T22:59:48.688Z,6,GR86-016-55,-11.2,0.131,-0.377,99.99,4.0,,0.0,0.0,
2025-08-14T22:59:48.731Z,6,GR86-016-55,-10.2,0.132,-0.349,100.01,4.0,,0.0,0.0,
2025-08-14T22:59:48.774Z,6,GR86-016-55,-9.3,0.13,-0.343,100.02,4.0,,6.21,6.18,
2025-08-14T22:59:48.817Z,6,GR86-016-55,-7.7,0.078,-0.342,61.7,4.0,6411.0,16.28,16.145,
2025-08-14T22:59:48.862Z,6,GR86-016-55,-4.1000000000000005,-0.268,-0.259,4.24,4.0,,21.12,21.41,162.24
2025-08-14T22:59:48.905Z,6,GR86-016-55,-2.8000000000000003,-0.332,-0.262,4.16,4.0,,16.895,17.745,
2025-08-14T22:59:48.948Z,6,GR86-016-55,-2.6,-0.363,-0.203,3.79,4.0,,13.885,14.175,
2025-08-14T22:59:48.991Z,6,GR86-016-55,-2.7,-0.426,-0.251,3.28,4.0,,22.615,22.34,
2025-08-14T22:59:49.034Z,6,GR86-016-55,-2.7,-0.796,-0.256,3.02,4.0,5988.0,29.465,29.025,
2025-08-14T22:59:49.077Z,6,GR86-016-55,-2.7,-0.679,-0.171,2.92,4.0,,30.965,31.175,160.46
2025-08-14T22:59:49.122Z,6,GR86-016-55,-2.8000000000000003,-0.706,-0.231,2.79,4.0,,35.585,35.31,
2025-08-14T22:59:49.165Z,6,GR86-016-55,-2.7,-0.783,-0.202,2.73,4.0,,37.92,37.92,
2025-08-14T22:59:49.208Z,6,GR86-016-55,-0.7000000000000001,-0.8270000000000001,-0.195,2.69,4.0,,38.255,38.775,
2025-08-14T22:59:49.251Z,6,GR86-016-55,1.7000000000000002,-0.792,-0.19,2.66,4.0,5893.0,38.41,39.005,
2025-08-14T22:59:49.294Z,6,GR86-016-55,2.8000000000000003,-0.8260000000000001,-0.147,2.63,4.0,,38.775,39.155,156.29
2025-08-14T22:59:49.337Z,6,GR86-016-55,4.0,-0.781,-0.151,2.63,4.0,,38.865,39.125,
2025-08-14T22:59:49.380Z,6,GR86-016-55,7.4,-0.804,-0.147,2.6,4.0,,37.705,38.35,
2025-08-14T22:59:49.423Z,6,GR86-016-55,9.9,-0.806,-0.143,2.6,4.0,,31.83,33.160000000000004,
2025-08-14T22:59:49.466Z,6,GR86-016-55,12.6,-0.615,-0.121,2.57,4.0,5653.0,23.365,24.14,
2025-08-14T22:59:49.509Z,6,GR86-016-55,15.3,-0.553,-0.147,2.57,4.0,,16.525,17.52,149.36
2025-08-14T22:59:49.552Z,6,GR86-016-55,16.5,-0.499,-0.074,2.57,4.0,,14.3,15.06,
2025-08-14T22:59:49.595Z,6,GR86-016-55,15.9,-0.459,-0.031,2.56,4.0,,15.305,15.595,
2025-08-14T22:59:49.638Z,6,GR86-016-55,9.7,-0.426,-0.038,2.53,4.0,,15.96,16.145,
2025-08-14T22:59:49.725Z,6,GR86-016-55,-0.7000000000000001,-0.462,-0.019,2.5,4.0,5682.0,12.71,13.305,146.5
2025-08-14T22:59:49.768Z,6,GR86-016-55,-5.9,-0.306,-0.039,15.4,4.0,,10.21,10.345,
2025-08-14T22:59:49.811Z,6,GR86-016-55,-5.6000000000000005,-0.434,0.012,58.99,4.0,,18.405,18.235,
2025-08-14T22:59:49.854Z,6,GR86-016-55,-0.4,-0.598,0.072,98.38,4.0,,26.75,26.57,
2025-08-14T22:59:49.897Z,6,GR86-016-55,5.0,-0.683,0.141,74.59,3.0,5602.0,31.115,30.93,
2025-08-14T22:59:49.940Z,6,GR86-016-55,12.3,-0.944,0.152,3.75,3.0,,30.55,31.68,145.04
2025-08-14T22:59:49.983Z,6,GR86-016-55,13.1,-0.603,0.225,2.76,3.0,,23.56,24.31,
2025-08-14T22:59:50.026Z,6,GR86-016-55,10.9,-0.542,0.087,2.66,3.0,,16.025,16.65,
2025-08-14T22:59:50.069Z,6,GR86-016-55,3.0,-0.487,0.113,2.63,3.0,,13.11,13.765,
2025-08-14T22:59:50.112Z,6,GR86-016-55,-4.4,-0.484,0.116,2.62,3.0,6204.0,12.33,12.805,
2025-08-14T22:59:50.155Z,6,GR86-016-55,-9.2,-0.359,-0.035,2.6,3.0,,14.68,14.94,140.45000000000002
2025-08-14T22:59:50.198Z,6,GR86-016-55,-10.8,-0.471,-0.005,2.57,3.0,,23.365,23.09,
2025-08-14T22:59:50.242Z,6,GR86-016-55,-10.7,-0.74,-0.07,2.57,3.0,,36.18,35.555,
2025-08-14T22:59:50.285Z,6,GR86-016-55,-7.1000000000000005,-0.8320000000000001,-0.068,2.5500000000000003,3.0,,38.745,39.28,
2025-08-14T22:59:50.328Z,6,GR86-016-55,-2.1,-0.8240000000000001,-0.026,2.54,3.0,6280.0,39.585,39.875,
2025-08-14T22:59:50.371Z,6,GR86-016-55,2.6,-0.851,-0.063,2.53,3.0,,40.15,40.21,137.9
2025-08-14T22:59:50.414Z,6,GR86-016-55,6.7,-0.8240000000000001,-0.045,2.51,3.0,,39.845,40.56,
2025-08-14T22:59:50.457Z,6,GR86-016-55,7.9,-0.852,-0.033,2.53,3.0,,40.15,40.56,
2025-08-14T22:59:50.500Z,6,GR86-016-55,7.0,-0.929,-0.07,9.59,3.0,,40.47,40.925,
2025-08-14T22:59:50.543Z,6,GR86-016-55,2.7,-0.912,-0.183,52.66,2.0,5871.0,41.555,41.585,
2025-08-14T22:59:50.586Z,6,GR86-016-55,-1.3,-0.907,-0.201,31.3,2.0,,42.955,43.355,132.56
2025-08-14T22:59:50.629Z,6,GR86-016-55,-3.2,-0.976,-0.153,5.01,2.0,,44.68,45.995,
2025-08-14T22:59:50.672Z,6,GR86-016-55,-3.2,-0.885,-0.132,4.26,2.0,,45.9,46.955,
2025-08-14T22:59:50.715Z,6,GR86-016-55,1.2000000000000002,-0.852,-0.288,3.82,2.0,,43.17,43.355,
2025-08-14T22:59:50.758Z,6,GR86-016-55,5.800000000000001,-0.833,-0.155,3.3000000000000003,2.0,5508.0,38.35,39.615,
2025-08-14T22:59:50.801Z,6,GR86-016-55,12.8,-0.649,-0.357,2.95,2.0,,31.74,32.305,124.63
2025-08-14T22:59:50.844Z,6,GR86-016-55,12.7,-0.945,-0.302,2.85,2.0,,33.62,34.78,
2025-08-14T22:59:50.887Z,6,GR86-016-55,6.0,-0.631,-0.088,2.79,2.0,,36.64,37.705,
2025-08-14T22:59:50.930Z,6,GR86-016-55,-4.1000000000000005,-0.8220000000000001,-0.582,2.72,2.0,,38.715,39.25,
2025-08-14T22:59:50.975Z,6,GR86-016-55,-13.3,-0.943,-0.46,2.66,2.0,5828.0,41.49,42.39,
2025-08-14T22:59:51.018Z,6,GR86-016-55,-21.3,-0.869,-0.458,2.63,2.0,,45.065,45.72,114.95
2025-08-14T22:59:51.061Z,6,GR86-016-55,-25.1,-0.764,-0.614,2.6,2.0,,40.59,40.365,
2025-08-14T22:59:51.105Z,6,GR86-016-55,-24.5,-0.761,-0.456,2.59,2.0,,38.18,37.74,
2025-08-14T22:59:51.148Z,6,GR86-016-55,-21.6,-0.777,-0.541,2.57,2.0,,38.745,38.5,
2025-08-14T22:59:51.191Z,6,GR86-016-55,-20.6,-0.705,-0.5680000000000001,2.54,2.0,6115.0,36.7,37.265,
2025-08-14T22:59:51.234Z,6,GR86-016-55,-20.0,-0.75,-0.595,2.56,2.0,,35.585,36.365,109.3
2025-08-14T22:59:51.277Z,6,GR86-016-55,-14.3,-0.784,-0.547,2.53,2.0,,35.985,36.365,
2025-08-14T22:59:51.322Z,6,GR86-016-55,-5.6000000000000005,-0.677,-0.583,2.51,2.0,,32.87,33.71,
2025-08-14T22:59:51.365Z,6,GR86-016-55,-3.5,-0.6880000000000001,-0.577,2.51,2.0,,30.045,31.115,
2025-08-14T22:59:51.408Z,6,GR86-016-55,-3.5,-0.7030000000000001,-0.494,2.52,2.0,5938.0,30.795,30.965,
2025-08-14T22:59:51.451Z,6,GR86-016-55,-7.4,-0.672,-0.561,2.51,2.0,,32.075,32.335,105.75
2025-08-14T22:59:51.494Z,6,GR86-016-55,-15.9,-0.6890000000000001,-0.588,2.51,2.0,,30.43,30.61,
2025-08-14T22:59:51.537Z,6,GR86-016-55,-23.1,-0.709,-0.658,2.51,2.0,,31.3,31.51,
2025-08-14T22:59:51.582Z,6,GR86-016-55,-28.9,-0.655,-0.7010000000000001,2.5,2.0,,32.625,32.685,
2025-08-14T22:59:51.625Z,6,GR86-016-55,-29.5,-0.724,-0.67,35.08,2.0,5471.0,30.61,31.235,
2025-08-14T22:59:51.668Z,6,GR86-016-55,-29.1,-0.683,-0.679,79.92,2.0,,27.805,28.81,102.68
2025-08-14T22:59:51.712Z,6,GR86-016-55,-24.200000000000003,-0.726,-0.666,99.97,2.0,,25.805,26.505,
2025-08-14T22:59:51.755Z,6,GR86-016-55,-18.1,-0.526,-0.719,77.15,1.0,,22.675,23.59,
2025-08-14T22:59:51.798Z,6,GR86-016-55,-10.9,-0.669,-0.66,6.72,1.0,,20.145,21.12,
2025-08-14T22:59:51.842Z,6,GR86-016-55,-9.7,-0.623,-0.545,2.95,1.0,5877.0,21.15,22.02,
2025-08-14T22:59:51.885Z,6,GR86-016-55,-20.5,-0.627,-0.842,2.82,1.0,,20.325,20.355,98.66
2025-08-14T22:59:51.928Z,6,GR86-016-55,-30.4,-0.716,-0.71,2.72,1.0,,18.65,18.585,
2025-08-14T22:59:52.014Z,6,GR86-016-55,-34.4,-0.457,-0.706,2.66,1.0,,16.085,16.525,
2025-08-14T22:59:52.058Z,6,GR86-016-55,-22.200000000000003,-0.504,-0.8230000000000001,2.6,1.0,6547.0,12.775,13.17,
2025-08-14T22:59:52.101Z,6,GR86-016-55,-9.4,-0.456,-0.89,2.57,1.0,,11.185,11.58,94.49
2025-08-14T22:59:52.144Z,6,GR86-016-55,-9.4,-0.397,-0.922,2.5500000000000003,1.0,,7.86,8.485,
2025-08-14T22:59:52.187Z,6,GR86-016-55,-14.0,-0.28,-0.87,2.53,1.0,,0.0,2.135,
2025-08-14T22:59:52.230Z,6,GR86-016-55,-14.9,-0.197,-0.926,2.53,1.0,,0.0,0.0,
2025-08-14T22:59:52.273Z,6,GR86-016-55,-9.8,-0.199,-0.881,2.51,1.0,6321.0,0.0,0.0,
2025-08-14T22:59:52.316Z,6,GR86-016-55,-4.0,-0.182,-0.914,2.5,1.0,,0.0,0.0,91.63
2025-08-14T22:59:52.359Z,6,GR86-016-55,-2.7,-0.17,-0.92,2.5,1.0,,0.0,0.0,
2025-08-14T22:59:52.402Z,6,GR86-016-55,-7.6,-0.166,-0.959,2.5,1.0,,0.0,0.0,
2025-08-14T22:59:52.445Z,6,GR86-016-55,-15.3,-0.177,-0.958,2.5,1.0,,0.0,0.0,
2025-08-14T22:59:52.488Z,6,GR86-016-55,-24.700000000000003,-0.189,-0.951,2.48,1.0,6227.0,0.0,0.0,
2025-08-14T22:59:52.531Z,6,GR86-016-55,-34.7,-0.194,-0.988,2.5,1.0,,0.0,0.0,90.54
2025-08-14T22:59:52.574Z,6,GR86-016-55,-43.0,-0.179,-0.978,2.49,1.0,,0.0,0.0,
2025-08-14T22:59:52.618Z,6,GR86-016-55,-49.6,-0.197,-1.006,2.48,1.0,,0.0,0.0,
2025-08-14T22:59:52.661Z,6,GR86-016-55,-55.0,-0.209,-0.996,2.5,1.0,,0.0,0.0,
2025-08-14T22:59:52.704Z,6,GR86-016-55,-56.7,-0.197,-1.002,2.5,1.0,6086.0,0.0,0.0,
2025-08-14T22:59:52.747Z,6,GR86-016-55,-57.5,-0.196,-0.975,2.5,1.0,,0.0,0.0,88.51
2025-08-14T22:59:52.790Z,6,GR86-016-55,-58.5,-0.19,-0.978,2.48,1.0,,0.0,0.0,
2025-08-14T22:59:52.876Z,6,GR86-016-55,-61.2,-0.208,-0.967,4.69,1.0,,0.0,0.0,
2025-08-14T22:59:52.919Z,6,GR86-016-55,-63.1,-0.202,-0.956,21.67,1.0,5955.0,0.0,0.0,
2025-08-14T22:59:52.962Z,6,GR86-016-55,-66.3,-0.197,-0.991,27.83,1.0,,0.0,0.0,86.29
2025-08-14T22:59:53.005Z,6,GR86-016-55,-68.4,-0.163,-0.975,30.9,1.0,,0.0,0.0,
2025-08-14T22:59:53.048Z,6,GR86-016-55,-70.10000000000001,-0.111,-0.98,32.37,1.0,,0.0,0.0,
2025-08-14T22:59:53.091Z,6,GR86-016-55,-71.60000000000001,-0.123,-0.964,33.28,1.0,,0.0,0.0,
2025-08-14T22:59:53.134Z,6,GR86-016-55,-72.5,-0.015,-0.963,34.09,1.0,5908.0,0.0,0.0,
2025-08-14T22:59:53.177Z,6,GR86-016-55,-72.9,0.15,-0.941,34.230000000000004,1.0,,0.0,0.0,84.26
2025-08-14T22:59:53.222Z,6,GR86-016-55,-73.10000000000001,0.161,-0.924,36.76,1.0,,0.0,0.0,
2025-08-14T22:59:53.265Z,6,GR86-016-55,-73.3,0.186,-0.892,39.26,1.0,,0.0,0.0,
2025-08-14T22:59:53.308Z,6,GR86-016-55,-73.4,0.191,-0.904,43.78,1.0,,0.0,0.0,
2025-08-14T22:59:53.351Z,6,GR86-016-55,-73.9,0.194,-0.865,44.28,1.0,6518.0,0.0,0.0,
2025-08-14T22:59:53.394Z,6,GR86-016-55,-74.3,0.212,-0.85,44.28,1.0,,0.0,0.0,82.72
2025-08-14T22:59:53.437Z,6,GR86-016-55,-74.5,0.239,-0.872,45.02,1.0,,0.0,0.0,
2025-08-14T22:59:53.480Z,6,GR86-016-55,-74.7,0.237,-0.834,47.98,1.0,,0.0,0.0,
2025-08-14T22:59:53.525Z,6,GR86-016-55,-74.7,0.24,-0.86,50.58,1.0,,0.0,0.0,
2025-08-14T22:59:53.568Z,6,GR86-016-55,-74.7,0.256,-0.8300000000000001,53.71,1.0,6607.0,0.0,0.0,
2025-08-14T22:59:53.611Z,6,GR86-016-55,-74.7,0.257,-0.857,60.45,1.0,,0.0,0.0,82.5
2025-08-14T22:59:53.654Z,6,GR86-016-55,-74.5,0.268,-0.834,69.18,1.0,,0.0,0.0,
2025-08-14T22:59:53.697Z,6,GR86-016-55,-73.9,0.286,-0.8310000000000001,78.51,1.0,,0.0,0.0,
2025-08-14T22:59:53.740Z,6,GR86-016-55,-70.3,0.288,-0.8190000000000001,79.56,1.0,,0.0,0.0,
2025-08-14T22:59:53.784Z,6,GR86-016-55,-65.8,0.271,-0.856,79.39,1.0,6698.0,0.0,0.0,
2025-08-14T22:59:53.827Z,6,GR86-016-55,-59.7,0.267,-0.851,78.61,1.0,,0.0,0.0,85.11
2025-08-14T22:59:53.870Z,6,GR86-016-55,-52.1,0.257,-0.891,81.53,1.0,,0.0,0.0,
2025-08-14T22:59:53.913Z,6,GR86-016-55,-42.3,0.284,-0.881,81.23,1.0,,0.0,0.0,
2025-08-14T22:59:53.956Z,6,GR86-016-55,-30.9,0.29,-0.874,78.9,1.0,,0.0,0.0,
2025-08-14T22:59:53.999Z,6,GR86-016-55,-19.4,0.293,-0.804,74.02,1.0,6772.0,0.0,0.0,
2025-08-14T22:59:54.042Z,6,GR86-016-55,-8.1,0.282,-0.758,70.55,1.0,,0.0,0.0,87.26
2025-08-14T22:59:54.085Z,6,GR86-016-55,-3.3000000000000003,0.291,-0.761,77.02,1.0,,0.0,0.0,
2025-08-14T22:59:54.128Z,6,GR86-016-55,1.3,0.292,-0.715,98.2,1.0,,0.0,0.0,
2025-08-14T22:59:54.171Z,6,GR86-016-55,3.0,0.28,-0.718,99.96,1.0,,0.0,0.0,
2025-08-14T22:59:54.214Z,6,GR86-016-55,2.2,0.305,-0.712,99.92,1.0,6908.0,0.0,0.0,
2025-08-14T22:59:54.257Z,6,GR86-016-55,-4.800000000000001,0.317,-0.774,99.94,1.0,,0.0,0.0,88.89
2025-08-14T22:59:54.300Z,6,GR86-016-55,-9.8,0.308,-0.757,99.96,1.0,,0.0,0.0,
2025-08-14T22:59:54.343Z,6,GR86-016-55,-13.0,0.333,-0.785,99.94,1.0,,0.0,0.0,
2025-08-14T22:59:54.386Z,6,GR86-016-55,-17.6,0.356,-0.736,99.92,1.0,,0.0,0.0,
2025-08-14T22:59:54.429Z,6,GR86-016-55,-19.9,0.341,-0.733,99.95,1.0,7181.0,0.0,0.0,
2025-08-14T22:59:54.472Z,6,GR86-016-55,-19.6,0.342,-0.735,99.97,1.0,,0.0,0.0,90.4
2025-08-14T22:59:54.515Z,6,GR86-016-55,-18.2,0.321,-0.7000000000000001,99.96,1.0,,0.0,0.0,
2025-08-14T22:59:54.558Z,6,GR86-016-55,-18.4,0.305,-0.734,99.94,1.0,,0.0,0.0,
2025-08-14T22:59:54.601Z,6,GR86-016-55,-27.5,0.329,-0.712,99.97,1.0,,0.0,0.0,
2025-08-14T22:59:54.644Z,6,GR86-016-55,-36.6,0.326,-0.6990000000000001,99.95,1.0,7226.0,0.0,0.0,
2025-08-14T22:59:54.688Z,6,GR86-016-55,-44.1,0.251,-0.769,99.95,1.0,,0.0,0.0,92.23
2025-08-14T22:59:54.731Z,6,GR86-016-55,-46.0,-0.023,-0.746,99.96,2.0,,0.0,0.0,
2025-08-14T22:59:54.774Z,6,GR86-016-55,-43.900000000000006,0.114,-0.6880000000000001,99.96,2.0,,0.0,0.0,
2025-08-14T22:59:54.818Z,6,GR86-016-55,-35.300000000000004,0.621,-0.631,99.96,2.0,,0.0,0.0,
2025-08-14T22:59:54.862Z,6,GR86-016-55,-29.5,0.422,-0.548,99.98,2.0,6341.0,0.0,0.0,
2025-08-14T22:59:54.905Z,6,GR86-016-55,-30.4,0.483,-0.5710000000000001,99.95,2.0,,0.0,0.0,93.44
2025-08-14T22:59:54.948Z,6,GR86-016-55,-35.5,0.269,-0.656,99.96,2.0,,0.0,0.0,
2025-08-14T22:59:54.991Z,6,GR86-016-55,-40.400000000000006,0.208,-0.626,99.96,2.0,,0.0,0.0,
2025-08-14T22:59:55.034Z,6,GR86-016-55,-43.0,0.18,-0.711,99.97,2.0,,0.0,0.0,
2025-08-14T22:59:55.078Z,6,GR86-016-55,-43.400000000000006,0.227,-0.77,99.96,2.0,5691.0,0.0,0.0,
2025-08-14T22:59:55.122Z,6,GR86-016-55,-43.900000000000006,0.27,-0.683,99.96,2.0,,0.0,0.0,96.33
2025-08-14T22:59:55.165Z,6,GR86-016-55,-45.1,0.267,-0.706,99.96,2.0,,0.0,0.0,
2025-08-14T22:59:55.208Z,6,GR86-016-55,-45.0,0.237,-0.708,99.95,2.0,,0.0,0.0,
2025-08-14T22:59:55.251Z,6,GR86-016-55,-43.2,0.223,-0.748,99.96,2.0,,0.0,0.0,
2025-08-14T22:59:55.294Z,6,GR86-016-55,-40.3,0.236,-0.765,99.95,2.0,5864.0,0.0,0.0,
2025-08-14T22:59:55.337Z,6,GR86-016-55,-37.5,0.265,-0.749,99.94,2.0,,0.0,0.0,98.4
2025-08-14T22:59:55.380Z,6,GR86-016-55,-35.7,0.254,-0.723,99.96,2.0,,0.0,0.0,
2025-08-14T22:59:55.466Z,6,GR86-016-55,-37.8,0.227,-0.75,99.95,2.0,,0.0,0.0,
2025-08-14T22:59:55.509Z,6,GR86-016-55,-44.3,0.254,-0.799,99.95,2.0,5971.0,0.0,0.0,
2025-08-14T22:59:55.552Z,6,GR86-016-55,-44.6,0.243,-0.85,99.95,2.0,,0.0,0.0,100.12
2025-08-14T22:59:55.595Z,6,GR86-016-55,-42.1,0.26,-0.8140000000000001,99.96,2.0,,0.0,0.0,
2025-08-14T22:59:55.638Z,6,GR86-016-55,-38.1,0.23,-0.845,99.97,2.0,,0.0,0.0,
2025-08-14T22:59:55.681Z,6,GR86-016-55,-32.7,0.225,-0.833,99.97,2.0,,0.0,0.0,
2025-08-14T22:59:55.725Z,6,GR86-016-55,-31.0,0.25,-0.803,99.96,2.0,6075.0,0.0,0.0,
2025-08-14T22:59:55.768Z,6,GR86-016-55,-30.9,0.233,-0.8240000000000001,99.96,2.0,,0.0,0.0,101.68
2025-08-14T22:59:55.811Z,6,GR86-016-55,-31.9,0.254,-0.8320000000000001,99.96,2.0,,0.0,0.0,
2025-08-14T22:59:55.854Z,6,GR86-016-55,-32.1,0.239,-0.8170000000000001,99.96,2.0,,0.0,0.0,
2025-08-14T22:59:55.897Z,6,GR86-016-55,-32.300000000000004,0.233,-0.8270000000000001,99.95,2.0,,0.0,0.0,
2025-08-14T22:59:55.940Z,6,GR86-016-55,-33.9,0.261,-0.808,99.96,2.0,6156.0,0.0,0.0,
2025-08-14T22:59:55.983Z,6,GR86-016-55,-35.6,0.244,-0.806,99.98,2.0,,0.0,0.0,103.24
2025-08-14T22:59:56.026Z,6,GR86-016-55,-36.3,0.219,-0.856,99.95,2.0,,0.0,0.0,
2025-08-14T22:59:56.069Z,6,GR86-016-55,-35.7,0.245,-0.869,99.96,2.0,,0.0,0.0,
2025-08-14T22:59:56.112Z,6,GR86-016-55,-33.9,0.251,-0.847,99.98,2.0,,0.0,0.0,
2025-08-14T22:59:56.155Z,6,GR86-016-55,-31.5,0.261,-0.807,99.96,2.0,6228.0,0.0,0.0,
2025-08-14T22:59:56.198Z,6,GR86-016-55,-29.0,0.24,-0.671,99.99,2.0,,0.0,0.0,104.59
2025-08-14T22:59:56.242Z,6,GR86-016-55,-25.9,0.219,-0.654,99.98,2.0,,0.0,0.0,
2025-08-14T22:59:56.285Z,6,GR86-016-55,-23.0,0.263,-0.7030000000000001,99.96,2.0,,0.0,0.0,
2025-08-14T22:59:56.328Z,6,GR86-016-55,-20.5,0.272,-0.542,99.96,2.0,,0.0,0.0,
2025-08-14T22:59:56.371Z,6,GR86-016-55,-18.4,0.216,-0.546,99.96,2.0,6288.0,0.0,0.0,
2025-08-14T22:59:56.414Z,6,GR86-016-55,-15.9,0.226,-0.529,99.97,2.0,,0.0,0.0,106.12
2025-08-14T22:59:56.457Z,6,GR86-016-55,-13.4,0.248,-0.44,99.96,2.0,,0.0,0.0,
2025-08-14T22:59:56.501Z,6,GR86-016-55,-10.6,0.265,-0.515,99.98,2.0,,0.0,0.0,
2025-08-14T22:59:56.545Z,6,GR86-016-55,-9.5,0.288,-0.532,99.96,2.0,,0.0,0.0,
2025-08-14T22:59:56.588Z,6,GR86-016-55,-8.9,0.379,-0.439,99.96,2.0,6462.0,0.0,0.0,
2025-08-14T22:59:56.632Z,6,GR86-016-55,-8.1,0.327,-0.488,99.96,2.0,,0.0,0.0,108.03
2025-08-14T22:59:56.675Z,6,GR86-016-55,-7.1000000000000005,0.324,-0.502,99.99,2.0,,0.0,0.0,
2025-08-14T22:59:56.718Z,6,GR86-016-55,-6.300000000000001,0.333,-0.368,99.98,2.0,,0.0,0.0,
2025-08-14T22:59:56.761Z,6,GR86-016-55,-6.300000000000001,0.225,-0.345,99.98,2.0,,0.0,0.0,
2025-08-14T22:59:56.805Z,6,GR86-016-55,-7.1000000000000005,0.222,-0.315,99.98,2.0,6579.0,0.0,0.0,
2025-08-14T22:59:56.848Z,6,GR86-016-55,-11.6,0.301,-0.273,99.96,2.0,,0.0,0.0,109.6
2025-08-14T22:59:56.891Z,6,GR86-016-55,-15.7,0.282,-0.325,99.98,2.0,,0.0,0.0,
2025-08-14T22:59:56.934Z,6,GR86-016-55,-16.1,0.249,-0.331,99.96,2.0,,0.0,0.0,
2025-08-14T22:59:56.977Z,6,GR86-016-55,-14.7,0.343,-0.281,99.96,2.0,,0.0,0.0,
2025-08-14T22:59:57.022Z,6,GR86-016-55,-10.5,0.26,-0.301,100.0,2.0,6753.0,0.0,0.0,
2025-08-14T22:59:57.065Z,6,GR86-016-55,-10.3,0.269,-0.248,99.96,2.0,,0.0,0.0,111.29
2025-08-14T22:59:57.108Z,6,GR86-016-55,-10.5,0.318,-0.269,99.99,2.0,,0.0,0.0,
2025-08-14T22:59:57.151Z,6,GR86-016-55,-10.5,0.261,-0.22,100.0,2.0,,0.0,0.0,
2025-08-14T22:59:57.194Z,6,GR86-016-55,-10.3,0.21,-0.176,99.99,2.0,,0.0,0.0,
2025-08-14T22:59:57.237Z,6,GR86-016-55,-10.2,0.257,-0.162,99.98,2.0,6726.0,0.0,0.0,
2025-08-14T22:59:57.280Z,6,GR86-016-55,-9.7,0.259,-0.142,99.95,2.0,,0.0,0.0,113.36
2025-08-14T22:59:57.323Z,6,GR86-016-55,-8.8,0.271,-0.113,99.96,2.0,,0.0,0.0,
2025-08-14T22:59:57.366Z,6,GR86-016-55,-7.2,0.258,-0.126,99.99,2.0,,0.0,0.0,
2025-08-14T22:59:57.409Z,6,GR86-016-55,-5.5,0.278,-0.099,99.98,2.0,,0.0,0.0,
2025-08-14T22:59:57.452Z,6,GR86-016-55,-3.8,0.28,-0.074,99.97,2.0,6805.0,0.0,0.0,
2025-08-14T22:59:57.495Z,6,GR86-016-55,-1.9,0.24,-0.07,99.99,2.0,,0.0,0.0,115.21
2025-08-14T22:59:57.539Z,6,GR86-016-55,-0.5,0.235,-0.018,99.96,2.0,,0.0,0.0,
2025-08-14T22:59:57.582Z,6,GR86-016-55,0.0,0.244,0.008,99.99,2.0,,0.0,0.0,
2025-08-14T22:59:57.625Z,6,GR86-016-55,-0.2,0.263,0.025,99.99,2.0,,0.0,0.0,
2025-08-14T22:59:57.668Z,6,GR86-016-55,-0.7000000000000001,0.251,0.026,99.97,2.0,6920.0,0.0,0.0,
2025-08-14T22:59:57.712Z,6,GR86-016-55,-2.7,0.257,0.016,99.98,2.0,,0.0,0.0,116.98
2025-08-14T22:59:57.755Z,6,GR86-016-55,-4.1000000000000005,0.269,0.012,99.96,2.0,,0.0,0.0,
2025-08-14T22:59:57.798Z,6,GR86-016-55,-5.1000000000000005,0.254,-0.009,99.96,2.0,,0.0,0.0,
2025-08-14T22:59:57.842Z,6,GR86-016-55,-5.300000000000001,0.236,-0.006,99.96,2.0,,0.0,0.0,
2025-08-14T22:59:57.885Z,6,GR86-016-55,-5.300000000000001,0.243,-0.007,99.98,2.0,6983.0,0.0,0.0,
2025-08-14T22:59:57.928Z,6,GR86-016-55,-4.4,0.25,0.004,99.96,2.0,,0.0,0.0,118.88
2025-08-14T22:59:57.971Z,6,GR86-016-55,-2.1,0.239,0.012,99.96,2.0,,0.0,0.0,
2025-08-14T22:59:58.057Z,6,GR86-016-55,-1.0,0.239,0.017,99.95,2.0,,0.0,0.0,
2025-08-14T22:59:58.100Z,6,GR86-016-55,-1.3,0.26,0.026,99.97,2.0,7093.0,0.0,0.0,
2025-08-14T22:59:58.186Z,6,GR86-016-55,-1.1,0.23,0.042,99.99,2.0,,0.0,0.0,120.64
2025-08-14T22:59:58.229Z,6,GR86-016-55,-1.0,0.246,0.045,100.0,2.0,,0.0,0.0,
2025-08-14T22:59:58.272Z,6,GR86-016-55,-0.8,0.248,0.072,99.97,2.0,,0.0,0.0,
2025-08-14T22:59:58.315Z,6,GR86-016-55,-0.6000000000000001,0.236,0.068,99.97,2.0,7195.0,0.0,0.0,
2025-08-14T22:59:58.358Z,6,GR86-016-55,-0.5,0.248,0.063,99.97,2.0,,0.0,0.0,122.22
2025-08-14T22:59:58.401Z,6,GR86-016-55,-0.5,0.22,0.068,99.97,2.0,,0.0,0.0,
2025-08-14T22:59:58.444Z,6,GR86-016-55,-0.1,-0.005,0.101,99.97,3.0,,0.0,0.0,
2025-08-14T22:59:58.487Z,6,GR86-016-55,0.1,0.484,0.163,99.98,3.0,,0.0,0.0,
2025-08-14T22:59:58.530Z,6,GR86-016-55,0.3,0.595,-0.017,99.98,3.0,7274.0,0.0,0.0,
2025-08-14T22:59:58.573Z,6,GR86-016-55,0.5,0.315,0.084,99.98,3.0,,0.0,0.0,123.91
2025-08-14T22:59:58.616Z,6,GR86-016-55,0.5,0.177,0.166,99.99,3.0,,0.0,0.0,
2025-08-14T22:59:58.659Z,6,GR86-016-55,0.5,0.065,0.06,99.99,3.0,,0.0,0.0,
2025-08-14T22:59:58.702Z,6,GR86-016-55,0.4,0.215,0.145,99.99,3.0,,0.0,0.0,
2025-08-14T22:59:58.745Z,6,GR86-016-55,0.3,0.232,0.111,99.98,3.0,5831.0,0.0,0.0,
2025-08-14T22:59:58.788Z,6,GR86-016-55,0.3,0.224,0.113,99.97,3.0,,0.0,0.0,125.52
2025-08-14T22:59:58.831Z,6,GR86-016-55,0.2,0.2,0.148,99.99,3.0,,0.0,0.0,
2025-08-14T22:59:58.874Z,6,GR86-016-55,0.0,0.184,0.099,99.98,3.0,,0.0,0.0,
2025-08-14T22:59:59.005Z,6,GR86-016-55,-2.3000000000000003,0.21,0.104,99.99,3.0,6028.0,0.0,0.0,127.39
2025-08-14T22:59:59.048Z,6,GR86-016-55,-3.7,0.209,0.072,99.99,3.0,,0.0,0.0,
2025-08-14T22:59:59.091Z,6,GR86-016-55,-3.8,0.184,0.062,99.99,3.0,,0.0,0.0,
2025-08-14T22:59:59.134Z,6,GR86-016-55,-3.8,0.203,0.046,99.99,3.0,,0.0,0.0,
2025-08-14T22:59:59.177Z,6,GR86-016-55,-3.8,0.225,0.043,99.99,3.0,6119.0,0.0,0.0,
2025-08-14T22:59:59.222Z,6,GR86-016-55,-3.8,0.23,0.013,99.99,3.0,,0.0,0.0,130.02
2025-08-14T22:59:59.265Z,6,GR86-016-55,-3.8,0.212,0.0,99.99,3.0,,0.0,0.0,
2025-08-14T22:59:59.308Z,6,GR86-016-55,-3.7,0.183,-0.001,100.0,3.0,,0.0,0.0,
2025-08-14T22:59:59.351Z,6,GR86-016-55,-3.7,0.192,-0.02,99.98,3.0,,0.0,0.0,
2025-08-14T22:59:59.394Z,6,GR86-016-55,-3.7,0.205,-0.014,99.99,3.0,6192.0,0.0,0.0,
2025-08-14T22:59:59.437Z,6,GR86-016-55,-3.8,0.211,-0.04,99.99,3.0,,0.0,0.0,131.38
2025-08-14T22:59:59.480Z,6,GR86-016-55,-3.6,0.213,-0.019,99.98,3.0,,0.0,0.0,
2025-08-14T22:59:59.525Z,6,GR86-016-55,-3.5,0.194,-0.032,99.99,3.0,,0.0,0.0,
2025-08-14T22:59:59.568Z,6,GR86-016-55,-3.3000000000000003,0.19,-0.014,99.98,3.0,,0.0,0.0,
2025-08-14T22:59:59.611Z,6,GR86-016-55,-2.7,0.212,-0.013,99.98,3.0,6253.0,0.0,0.0,
2025-08-14T22:59:59.654Z,6,GR86-016-55,-2.6,0.215,-0.005,100.0,3.0,,0.0,0.0,132.75
2025-08-14T22:59:59.697Z,6,GR86-016-55,-2.5,0.197,-0.003,99.99,3.0,,0.0,0.0,
2025-08-14T22:59:59.740Z,6,GR86-016-55,-2.2,0.195,0.012,99.99,3.0,,0.0,0.0,
2025-08-14T22:59:59.784Z,6,GR86-016-55,-1.3,0.2,0.026,99.99,3.0,,0.0,0.0,
2025-08-14T22:59:59.827Z,6,GR86-016-55,-0.2,0.201,0.049,100.0,3.0,6359.0,0.0,0.0,
2025-08-14T22:59:59.870Z,6,GR86-016-55,0.7000000000000001,0.204,0.067,99.99,3.0,,0.0,0.0,134.14
2025-08-14T22:59:59.913Z,6,GR86-016-55,1.0,0.201,0.08,99.99,3.0,,0.0,0.0,
2025-08-14T22:59:59.956Z,6,GR86-016-55,1.1,0.2,0.111,99.99,3.0,,0.0,0.0,
2025-08-14T22:59:59.999Z,6,GR86-016-55,1.0,0.202,0.121,99.99,3.0,,0.0,0.0,
2025-08-14T23:00:00.042Z,6,GR86-016-55,0.8,0.187,0.127,99.99,3.0,6407.0,0.0,0.0,
2025-08-14T23:00:00.085Z,6,GR86-016-55,0.7000000000000001,0.199,0.125,99.99,3.0,,0.0,0.0,135.39
2025-08-14T23:00:00.128Z,6,GR86-016-55,0.4,0.213,0.132,99.98,3.0,,0.0,0.0,
2025-08-14T23:00:00.171Z,6,GR86-016-55,0.2,0.19,0.135,99.99,3.0,,0.0,0.0,
2025-08-14T23:00:00.214Z,6,GR86-016-55,0.2,0.179,0.131,99.98,3.0,,0.0,0.0,
2025-08-14T23:00:00.258Z,6,GR86-016-55,0.2,0.196,0.129,99.99,3.0,6476.0,0.0,0.0,
2025-08-14T23:00:00.301Z,6,GR86-016-55,-0.4,0.191,0.125,99.99,3.0,,0.0,0.0,136.63
2025-08-14T23:00:00.344Z,6,GR86-016-55,-1.5,0.186,0.125,99.99,3.0,,0.0,0.0,
2025-08-14T23:00:00.387Z,6,GR86-016-55,-2.8000000000000003,0.194,0.113,99.99,3.0,,0.0,0.0,
2025-08-14T23:00:00.430Z,6,GR86-016-55,-4.2,0.196,0.098,99.99,3.0,,0.0,0.0,
2025-08-14T23:00:00.473Z,6,GR86-016-55,-5.1000000000000005,0.183,0.07,99.99,3.0,6528.0,0.0,0.0,
2025-08-14T23:00:00.516Z,6,GR86-016-55,-5.300000000000001,0.192,0.053,99.98,3.0,,0.0,0.0,137.8
2025-08-14T23:00:00.559Z,6,GR86-016-55,-5.300000000000001,0.204,0.042,99.99,3.0,,0.0,0.0,
2025-08-14T23:00:00.602Z,6,GR86-016-55,-5.300000000000001,0.182,0.019,99.99,3.0,,0.0,0.0,
2025-08-14T23:00:00.645Z,6,GR86-016-55,-5.300000000000001,0.197,-0.008,100.0,3.0,,0.0,0.0,
2025-08-14T23:00:00.688Z,6,GR86-016-55,-5.2,0.198,-0.018,99.99,3.0,6572.0,0.0,0.0,
2025-08-14T23:00:00.731Z,6,GR86-016-55,-4.800000000000001,0.185,-0.039,99.99,3.0,,0.0,0.0,139.02
2025-08-14T23:00:00.774Z,6,GR86-016-55,-2.9000000000000004,0.175,-0.037,99.98,3.0,,0.0,0.0,
2025-08-14T23:00:00.817Z,6,GR86-016-55,-1.8,0.18,-0.039,99.99,3.0,,0.0,0.0,
2025-08-14T23:00:00.862Z,6,GR86-016-55,-1.5,0.172,-0.026,99.99,3.0,,0.0,0.0,
2025-08-14T23:00:00.905Z,6,GR86-016-55,-1.6,0.183,-0.024,99.99,3.0,6631.0,0.0,0.0,
2025-08-14T23:00:00.948Z,6,GR86-016-55,-1.3,0.201,0.017,99.98,3.0,,0.0,0.0,140.15
2025-08-14T23:00:00.991Z,6,GR86-016-55,-0.6000000000000001,0.185,0.017,99.97,3.0,,0.0,0.0,
2025-08-14T23:00:01.034Z,6,GR86-016-55,-0.2,0.176,0.023,99.98,3.0,,0.0,0.0,
2025-08-14T23:00:01.078Z,6,GR86-016-55,-0.2,0.181,0.029,99.99,3.0,,0.0,0.0,
2025-08-14T23:00:01.122Z,6,GR86-016-55,-0.4,0.171,0.06,99.99,3.0,6700.0,0.0,0.0,
2025-08-14T23:00:01.165Z,6,GR86-016-55,-0.5,0.177,0.085,99.98,3.0,,0.0,0.0,141.28
2025-08-14T23:00:01.208Z,6,GR86-016-55,-0.5,0.187,0.096,99.99,3.0,,0.0,0.0,
2025-08-14T23:00:01.251Z,6,GR86-016-55,-0.5,0.194,0.117,100.0,3.0,,0.0,0.0,
2025-08-14T23:00:01.294Z,6,GR86-016-55,-0.5,0.18,0.106,99.99,3.0,,0.0,0.0,
2025-08-14T23:00:01.337Z,6,GR86-016-55,-0.5,0.163,0.104,99.99,3.0,6743.0,0.0,0.0,
2025-08-14T23:00:01.380Z,6,GR86-016-55,-0.7000000000000001,0.178,0.105,99.98,3.0,,0.0,0.0,142.49
2025-08-14T23:00:01.423Z,6,GR86-016-55,-0.8,0.17,0.107,99.99,3.0,,0.0,0.0,
2025-08-14T23:00:01.466Z,6,GR86-016-55,-1.4,0.172,0.106,99.99,3.0,,0.0,0.0,
2025-08-14T23:00:01.509Z,6,GR86-016-55,-1.7000000000000002,0.188,0.101,99.99,3.0,,0.0,0.0,
2025-08-14T23:00:01.552Z,6,GR86-016-55,-1.8,0.187,0.108,99.99,3.0,6808.0,0.0,0.0,
2025-08-14T23:00:01.595Z,6,GR86-016-55,-2.2,0.181,0.087,99.98,3.0,,0.0,0.0,143.62
2025-08-14T23:00:01.638Z,6,GR86-016-55,-2.7,0.163,0.073,99.99,3.0,,0.0,0.0,
2025-08-14T23:00:01.681Z,6,GR86-016-55,-3.7,0.184,0.059,99.99,3.0,,0.0,0.0,
2025-08-14T23:00:01.725Z,6,GR86-016-55,-4.2,0.169,0.036,99.98,3.0,,0.0,0.0,
2025-08-14T23:00:01.768Z,6,GR86-016-55,-4.6000000000000005,0.157,0.021,99.99,3.0,6848.0,0.0,0.0,
2025-08-14T23:00:01.811Z,6,GR86-016-55,-4.9,0.173,0.0,99.99,3.0,,0.0,0.0,144.75
2025-08-14T23:00:01.854Z,6,GR86-016-55,-5.1000000000000005,0.187,-0.005,99.99,3.0,,0.0,0.0,
2025-08-14T23:00:01.897Z,6,GR86-016-55,-5.300000000000001,0.184,-0.023,99.99,3.0,,0.0,0.0,
2025-08-14T23:00:01.940Z,6,GR86-016-55,-5.4,0.166,-0.047,99.99,3.0,,0.0,0.0,
2025-08-14T23:00:01.983Z,6,GR86-016-55,-5.4,0.17,-0.053,99.98,3.0,6903.0,0.0,0.0,
2025-08-14T23:00:02.026Z,6,GR86-016-55,-5.1000000000000005,0.169,-0.059,100.0,3.0,,0.0,0.0,146.99
2025-08-14T23:00:02.069Z,6,GR86-016-55,-4.5,0.172,-0.062,99.99,3.0,,0.0,0.0,
2025-08-14T23:00:02.112Z,6,GR86-016-55,-4.5,0.163,-0.059,99.98,3.0,,0.0,0.0,
2025-08-14T23:00:02.155Z,6,GR86-016-55,-4.5,0.153,-0.062,99.99,3.0,,0.0,0.0,
2025-08-14T23:00:02.198Z,6,GR86-016-55,-4.2,0.162,-0.06,99.99,3.0,6955.0,0.0,0.0,
2025-08-14T23:00:02.242Z,6,GR86-016-55,-3.3000000000000003,0.16,-0.047,100.0,3.0,,0.0,0.0,148.06
2025-08-14T23:00:02.285Z,6,GR86-016-55,-3.0,0.161,-0.049,99.98,3.0,,0.0,0.0,
2025-08-14T23:00:02.328Z,6,GR86-016-55,-2.9000000000000004,0.17,-0.047,99.99,3.0,,0.0,0.0,
2025-08-14T23:00:02.371Z,6,GR86-016-55,-2.8000000000000003,0.159,-0.031,99.99,3.0,,0.0,0.0,
2025-08-14T23:00:02.414Z,6,GR86-016-55,-2.9000000000000004,0.162,-0.024,100.0,3.0,7017.0,0.0,0.0,
2025-08-14T23:00:02.458Z,6,GR86-016-55,-3.0,0.152,-0.018,99.98,3.0,,0.0,0.0,149.12
2025-08-14T23:00:02.501Z,6,GR86-016-55,-3.0,0.171,-0.001,99.98,3.0,,0.0,0.0,
2025-08-14T23:00:02.544Z,6,GR86-016-55,-3.0,0.17,0.007,100.0,3.0,,0.0,0.0,
2025-08-14T23:00:02.588Z,6,GR86-016-55,-3.0,0.149,0.011,99.98,3.0,,0.0,0.0,
2025-08-14T23:00:02.632Z,6,GR86-016-55,-3.0,0.147,0.004,100.0,3.0,7101.0,0.0,0.0,
2025-08-14T23:00:02.675Z,6,GR86-016-55,-3.1,0.156,0.015,99.99,3.0,,0.0,0.0,150.20000000000002
2025-08-14T23:00:02.718Z,6,GR86-016-55,-3.1,0.164,0.027,99.99,3.0,,0.0,0.0,
2025-08-14T23:00:02.761Z,6,GR86-016-55,-3.2,0.146,0.024,99.99,3.0,,0.0,0.0,
2025-08-14T23:00:02.804Z,6,GR86-016-55,-3.2,0.15,0.009,100.0,3.0,,0.0,0.0,
2025-08-14T23:00:02.847Z,6,GR86-016-55,-3.2,0.165,0.011,100.0,3.0,7153.0,0.0,0.0,
2025-08-14T23:00:02.890Z,6,GR86-016-55,-3.2,0.174,0.022,99.97,3.0,,0.0,0.0,151.21
2025-08-14T23:00:02.933Z,6,GR86-016-55,-3.2,0.165,0.029,99.97,3.0,,0.0,0.0,
2025-08-14T23:00:02.976Z,6,GR86-016-55,-3.2,0.139,0.017,99.99,3.0,,0.0,0.0,
2025-08-14T23:00:03.019Z,6,GR86-016-55,-3.3000000000000003,0.132,0.012,99.99,3.0,,0.0,0.0,
2025-08-14T23:00:03.062Z,6,GR86-016-55,-3.3000000000000003,0.145,0.017,99.99,3.0,7181.0,0.0,0.0,
2025-08-14T23:00:03.105Z,6,GR86-016-55,-3.3000000000000003,0.132,-0.001,99.99,3.0,,0.0,0.0,152.14
2025-08-14T23:00:03.148Z,6,GR86-016-55,-3.3000000000000003,0.141,-0.006,99.99,3.0,,0.0,0.0,
2025-08-14T23:00:03.191Z,6,GR86-016-55,-3.4000000000000004,0.144,-0.024,99.99,3.0,,0.0,0.0,
2025-08-14T23:00:03.234Z,6,GR86-016-55,-3.8,0.16,-0.022,99.99,3.0,,0.0,0.0,
2025-08-14T23:00:03.277Z,6,GR86-016-55,-4.2,0.168,-0.015,99.99,3.0,7258.0,0.0,0.0,
2025-08-14T23:00:03.322Z,6,GR86-016-55,-4.6000000000000005,0.145,-0.05,100.0,3.0,,0.0,0.0,152.96
2025-08-14T23:00:03.365Z,6,GR86-016-55,-4.6000000000000005,0.162,-0.054,99.98,3.0,,0.0,0.0,
2025-08-14T23:00:03.408Z,6,GR86-016-55,-4.6000000000000005,0.165,-0.046,99.98,3.0,,0.0,0.0,
2025-08-14T23:00:03.451Z,6,GR86-016-55,-4.6000000000000005,0.151,-0.046,99.98,3.0,,0.0,0.0,
2025-08-14T23:00:03.494Z,6,GR86-016-55,-4.6000000000000005,0.141,-0.06,99.99,3.0,7290.0,0.0,0.0,
2025-08-14T23:00:03.537Z,6,GR86-016-55,-4.5,-0.062,-0.076,99.98,4.0,,0.0,0.0,153.98
2025-08-14T23:00:03.582Z,6,GR86-016-55,-4.2,0.537,-0.013,99.99,4.0,,0.0,0.0,
2025-08-14T23:00:03.625Z,6,GR86-016-55,-4.1000000000000005,0.326,-0.146,99.99,4.0,,0.0,0.0,
2025-08-14T23:00:03.668Z,6,GR86-016-55,-4.1000000000000005,0.057,-0.044,99.99,4.0,,0.0,0.0,
2025-08-14T23:00:03.712Z,6,GR86-016-55,-4.1000000000000005,0.06,-0.031,99.99,4.0,6560.0,0.0,0.0,
2025-08-14T23:00:03.755Z,6,GR86-016-55,-4.2,0.102,-0.12,99.98,4.0,,0.0,0.0,154.89
2025-08-14T23:00:03.798Z,6,GR86-016-55,-4.1000000000000005,0.15,-0.036,99.99,4.0,,0.0,0.0,
2025-08-14T23:00:03.842Z,6,GR86-016-55,-4.1000000000000005,0.109,-0.075,99.99,4.0,,0.0,0.0,
2025-08-14T23:00:03.885Z,6,GR86-016-55,-4.2,0.117,-0.051,99.99,4.0,,0.0,0.0,
2025-08-14T23:00:03.928Z,6,GR86-016-55,-4.2,0.127,-0.013,99.99,4.0,6216.0,0.0,0.0,
2025-08-14T23:00:03.971Z,6,GR86-016-55,-4.1000000000000005,0.124,-0.046,99.99,4.0,,0.0,0.0,156.0
2025-08-14T23:00:04.014Z,6,GR86-016-55,-4.1000000000000005,0.135,-0.021,99.98,4.0,,0.0,0.0,
2025-08-14T23:00:04.058Z,6,GR86-016-55,-4.2,0.142,-0.027,99.99,4.0,,0.0,0.0,
2025-08-14T23:00:04.101Z,6,GR86-016-55,-4.3,0.126,-0.02,99.98,4.0,,0.0,0.0,
2025-08-14T23:00:04.144Z,6,GR86-016-55,-4.3,0.124,-0.014,99.99,4.0,6248.0,0.0,0.0,
2025-08-14T23:00:04.187Z,6,GR86-016-55,-4.3,0.135,-0.008,99.99,4.0,,0.0,0.0,156.91
2025-08-14T23:00:04.230Z,6,GR86-016-55,-4.3,0.115,-0.008,99.98,4.0,,0.0,0.0,
2025-08-14T23:00:04.273Z,6,GR86-016-55,-4.3,0.131,-0.011,99.99,4.0,,0.0,0.0,
2025-08-14T23:00:04.316Z,6,GR86-016-55,-4.3,0.128,-0.004,99.99,4.0,,0.0,0.0,
2025-08-14T23:00:04.359Z,6,GR86-016-55,-4.3,0.129,-0.008,99.99,4.0,6270.0,0.0,0.0,
2025-08-14T23:00:04.402Z,6,GR86-016-55,-4.4,0.128,-0.016,99.98,4.0,,0.0,0.0,157.98
2025-08-14T23:00:04.445Z,6,GR86-016-55,-5.2,0.129,-0.032,99.99,4.0,,0.0,0.0,
2025-08-14T23:00:04.488Z,6,GR86-016-55,-6.2,0.133,-0.051,99.98,4.0,,0.0,0.0,
2025-08-14T23:00:04.531Z,6,GR86-016-55,-6.6000000000000005,0.117,-0.07,99.98,4.0,,0.0,0.0,
2025-08-14T23:00:04.574Z,6,GR86-016-55,-6.6000000000000005,0.116,-0.094,99.99,4.0,6303.0,0.0,0.0,
2025-08-14T23:00:04.618Z,6,GR86-016-55,-6.6000000000000005,0.106,-0.088,99.99,4.0,,0.0,0.0,158.81
2025-08-14T23:00:04.661Z,6,GR86-016-55,-6.6000000000000005,0.125,-0.114,99.99,4.0,,0.0,0.0,
2025-08-14T23:00:04.704Z,6,GR86-016-55,-6.6000000000000005,0.117,-0.117,99.99,4.0,,0.0,0.0,
2025-08-14T23:00:04.747Z,6,GR86-016-55,-6.5,0.113,-0.118,99.99,4.0,,0.0,0.0,
2025-08-14T23:00:04.790Z,6,GR86-016-55,-6.5,0.103,-0.123,99.99,4.0,6345.0,0.0,0.0,
2025-08-14T23:00:04.833Z,6,GR86-016-55,-6.4,0.105,-0.132,99.98,4.0,,0.0,0.0,160.56
2025-08-14T23:00:04.876Z,6,GR86-016-55,-6.4,0.112,-0.133,99.98,4.0,,0.0,0.0,
2025-08-14T23:00:04.919Z,6,GR86-016-55,-6.4,0.125,-0.135,99.99,4.0,,0.0,0.0,
2025-08-14T23:00:05.005Z,6,GR86-016-55,-6.4,0.107,-0.135,99.99,4.0,6378.0,0.0,0.0,
2025-08-14T23:00:05.048Z,6,GR86-016-55,-6.300000000000001,0.107,-0.141,99.98,4.0,,0.0,0.0,161.42000000000002
2025-08-14T23:00:05.091Z,6,GR86-016-55,-6.2,0.122,-0.12,99.99,4.0,,0.0,0.0,
2025-08-14T23:00:05.134Z,6,GR86-016-55,-5.5,0.125,-0.108,99.99,4.0,,0.0,0.0,
2025-08-14T23:00:05.177Z,6,GR86-016-55,-4.0,0.141,-0.093,99.99,4.0,,0.0,0.0,
2025-08-14T23:00:05.265Z,6,GR86-016-55,-2.5,0.113,-0.076,99.99,4.0,6445.0,0.0,0.0,162.42000000000002
2025-08-14T23:00:05.308Z,6,GR86-016-55,-2.2,0.126,-0.026,99.98,4.0,,0.0,0.0,
2025-08-14T23:00:05.351Z,6,GR86-016-55,-2.2,0.128,-0.008,99.99,4.0,,0.0,0.0,
2025-08-14T23:00:05.394Z,6,GR86-016-55,-2.3000000000000003,0.145,0.014,99.98,4.0,,0.0,0.0,
2025-08-14T23:00:05.480Z,6,GR86-016-55,-2.4000000000000004,0.138,0.03,99.98,4.0,6475.0,0.0,0.0,163.38
2025-08-14T23:00:05.525Z,6,GR86-016-55,-5.2,0.122,0.007,100.0,4.0,,0.0,0.0,
2025-08-14T23:00:05.568Z,6,GR86-016-55,-6.1000000000000005,0.124,0.013,99.99,4.0,,0.0,0.0,
2025-08-14T23:00:05.611Z,6,GR86-016-55,-6.300000000000001,0.141,0.003,99.99,4.0,,0.0,0.0,
2025-08-14T23:00:05.654Z,6,GR86-016-55,-6.4,0.135,-0.009,100.0,4.0,6530.0,0.0,0.0,
2025-08-14T23:00:05.697Z,6,GR86-016-55,-6.4,0.128,-0.021,99.99,4.0,,0.0,0.0,164.15
2025-08-14T23:00:05.740Z,6,GR86-016-55,-6.300000000000001,0.117,-0.062,99.99,4.0,,0.0,0.0,
2025-08-14T23:00:05.784Z,6,GR86-016-55,-6.300000000000001,0.135,-0.064,99.97,4.0,,0.0,0.0,
2025-08-14T23:00:05.827Z,6,GR86-016-55,-6.300000000000001,0.133,-0.077,99.99,4.0,,0.0,0.0,
2025-08-14T23:00:05.870Z,6,GR86-016-55,-6.4,0.124,-0.077,99.99,4.0,6567.0,0.0,0.0,
2025-08-14T23:00:05.913Z,6,GR86-016-55,-7.300000000000001,0.134,-0.105,99.98,4.0,,0.0,0.0,164.95000000000002
2025-08-14T23:00:05.956Z,6,GR86-016-55,-8.200000000000001,0.131,-0.129,99.99,4.0,,0.0,0.0,
2025-08-14T23:00:05.999Z,6,GR86-016-55,-8.5,0.126,-0.158,99.98,4.0,,0.0,0.0,
2025-08-14T23:00:06.042Z,6,GR86-016-55,-8.4,0.115,-0.182,99.98,4.0,,0.0,0.0,
2025-08-14T23:00:06.085Z,6,GR86-016-55,-8.3,0.128,-0.169,99.98,4.0,6591.0,0.0,0.0,
2025-08-14T23:00:06.128Z,6,GR86-016-55,-8.1,0.122,-0.151,100.0,4.0,,0.0,0.0,165.96
2025-08-14T23:00:06.171Z,6,GR86-016-55,-7.9,0.135,-0.145,99.99,4.0,,0.0,0.0,
2025-08-14T23:00:06.214Z,6,GR86-016-55,-7.6,0.139,-0.159,99.99,4.0,,0.0,0.0,
2025-08-14T23:00:06.257Z,6,GR86-016-55,-7.300000000000001,0.139,-0.153,99.99,4.0,,0.0,0.0,
2025-08-14T23:00:06.300Z,6,GR86-016-55,-7.300000000000001,0.118,-0.127,100.0,4.0,6635.0,0.0,0.0,
2025-08-14T23:00:06.343Z,6,GR86-016-55,-7.9,0.113,-0.131,99.99,4.0,,0.0,0.0,166.86
2025-08-14T23:00:06.386Z,6,GR86-016-55,-8.9,0.119,-0.157,99.99,4.0,,0.0,0.0,
2025-08-14T23:00:06.429Z,6,GR86-016-55,-9.2,0.12,-0.172,99.99,4.0,,0.0,0.0,
2025-08-14T23:00:06.472Z,6,GR86-016-55,-9.1,0.134,-0.171,99.99,4.0,,0.0,0.0,
2025-08-14T23:00:06.515Z,6,GR86-016-55,-9.1,0.131,-0.151,99.99,4.0,6665.0,0.0,0.0,
2025-08-14T23:00:06.558Z,6,GR86-016-55,-8.700000000000001,0.126,-0.171,99.98,4.0,,0.0,0.0,167.78
2025-08-14T23:00:06.601Z,6,GR86-016-55,-8.200000000000001,0.112,-0.16,99.99,4.0,,0.0,0.0,
2025-08-14T23:00:06.644Z,6,GR86-016-55,-8.1,0.129,-0.185,99.99,4.0,,0.0,0.0,
2025-08-14T23:00:06.687Z,6,GR86-016-55,-8.1,0.115,-0.177,100.0,4.0,,0.0,0.0,
2025-08-14T23:00:06.731Z,6,GR86-016-55,-8.1,0.112,-0.169,99.98,4.0,6704.0,0.0,0.0,
2025-08-14T23:00:06.774Z,6,GR86-016-55,-8.1,0.118,-0.178,99.98,4.0,,0.0,0.0,168.67000000000002
2025-08-14T23:00:06.818Z,6,GR86-016-55,-8.1,0.127,-0.191,99.99,4.0,,0.0,0.0,
2025-08-14T23:00:06.862Z,6,GR86-016-55,-8.0,0.095,-0.175,99.99,4.0,,0.0,0.0,
2025-08-14T23:00:06.905Z,6,GR86-016-55,-7.9,0.113,-0.177,99.99,4.0,,0.0,0.0,
2025-08-14T23:00:06.948Z,6,GR86-016-55,-7.9,0.116,-0.151,99.99,4.0,6728.0,0.0,0.0,
2025-08-14T23:00:06.991Z,6,GR86-016-55,-7.800000000000001,0.096,-0.139,99.99,4.0,,0.0,0.0,169.61
2025-08-14T23:00:07.034Z,6,GR86-016-55,-7.800000000000001,0.11,-0.145,99.98,4.0,,0.0,0.0,
2025-08-14T23:00:07.078Z,6,GR86-016-55,-7.800000000000001,0.102,-0.162,99.98,4.0,,0.0,0.0,
2025-08-14T23:00:07.122Z,6,GR86-016-55,-7.800000000000001,0.137,-0.174,99.99,4.0,,0.0,0.0,
2025-08-14T23:00:07.165Z,6,GR86-016-55,-7.9,0.143,-0.188,99.99,4.0,6776.0,0.0,0.0,
2025-08-14T23:00:07.208Z,6,GR86-016-55,-7.9,0.142,-0.155,99.99,4.0,,0.0,0.0,170.52
2025-08-14T23:00:07.251Z,6,GR86-016-55,-7.9,0.125,-0.151,99.99,4.0,,0.0,0.0,
2025-08-14T23:00:07.294Z,6,GR86-016-55,-7.800000000000001,0.108,-0.148,99.99,4.0,,0.0,0.0,
2025-08-14T23:00:07.337Z,6,GR86-016-55,-7.7,0.106,-0.12,99.98,4.0,,0.0,0.0,
2025-08-14T23:00:07.380Z,6,GR86-016-55,-7.6,0.148,-0.125,100.0,4.0,6803.0,0.0,0.0,
2025-08-14T23:00:07.423Z,6,GR86-016-55,-7.6,0.149,-0.132,100.0,4.0,,0.0,0.0,172.27
2025-08-14T23:00:07.466Z,6,GR86-016-55,-7.6,0.159,-0.15,99.99,4.0,,0.0,0.0,
2025-08-14T23:00:07.509Z,6,GR86-016-55,-7.6,0.136,-0.143,99.98,4.0,,0.0,0.0,
2025-08-14T23:00:07.552Z,6,GR86-016-55,-7.4,0.147,-0.114,99.99,4.0,,0.0,0.0,
2025-08-14T23:00:07.595Z,6,GR86-016-55,-7.4,0.148,-0.108,99.99,4.0,6841.0,0.0,0.0,
2025-08-14T23:00:07.639Z,6,GR86-016-55,-7.4,0.119,-0.142,99.99,4.0,,0.0,0.0,173.20000000000002
2025-08-14T23:00:07.682Z,6,GR86-016-55,-7.4,0.099,-0.151,99.99,4.0,,0.0,0.0,
2025-08-14T23:00:07.725Z,6,GR86-016-55,-7.4,0.12,-0.152,99.99,4.0,,0.0,0.0,
2025-08-14T23:00:07.768Z,6,GR86-016-55,-7.4,0.107,-0.092,99.99,4.0,,0.0,0.0,
2025-08-14T23:00:07.811Z,6,GR86-016-55,-7.300000000000001,0.118,-0.11,99.99,4.0,6873.0,0.0,0.0,
2025-08-14T23:00:07.854Z,6,GR86-016-55,-7.1000000000000005,0.134,-0.125,99.99,4.0,,0.0,0.0,174.24
2025-08-14T23:00:07.897Z,6,GR86-016-55,-7.0,0.119,-0.13,100.0,4.0,,0.0,0.0,
2025-08-14T23:00:07.940Z,6,GR86-016-55,-7.0,0.096,-0.107,99.99,4.0,,0.0,0.0,
2025-08-14T23:00:07.984Z,6,GR86-016-55,-7.1000000000000005,0.095,-0.127,99.99,4.0,,0.0,0.0,
2025-08-14T23:00:08.027Z,6,GR86-016-55,-7.1000000000000005,0.117,-0.138,99.99,4.0,6939.0,0.0,0.0,
2025-08-14T23:00:08.070Z,6,GR86-016-55,-7.1000000000000005,0.096,-0.17,99.99,4.0,,0.0,0.0,175.06
2025-08-14T23:00:08.113Z,6,GR86-016-55,-7.0,0.076,-0.136,99.99,4.0,,0.0,0.0,
2025-08-14T23:00:08.156Z,6,GR86-016-55,-7.0,0.103,-0.153,99.99,4.0,,0.0,0.0,
2025-08-14T23:00:08.199Z,6,GR86-016-55,-7.0,0.091,-0.142,99.98,4.0,,0.0,0.0,
2025-08-14T23:00:08.242Z,6,GR86-016-55,-6.9,0.128,-0.149,99.98,4.0,6971.0,0.0,0.0,
2025-08-14T23:00:08.285Z,6,GR86-016-55,-6.9,0.137,-0.137,99.99,4.0,,0.0,0.0,175.92000000000002
2025-08-14T23:00:08.328Z,6,GR86-016-55,-6.9,0.132,-0.138,99.99,4.0,,0.0,0.0,
2025-08-14T23:00:08.371Z,6,GR86-016-55,-6.9,0.119,-0.12,99.97,4.0,,0.0,0.0,
2025-08-14T23:00:08.414Z,6,GR86-016-55,-6.9,0.122,-0.124,99.99,4.0,,0.0,0.0,
2025-08-14T23:00:08.458Z,6,GR86-016-55,-6.9,0.115,-0.12,99.99,4.0,7011.0,0.0,0.0,
2025-08-14T23:00:08.501Z,6,GR86-016-55,-6.9,0.119,-0.13,99.99,4.0,,0.0,0.0,176.71
2025-08-14T23:00:08.544Z,6,GR86-016-55,-6.9,0.11,-0.131,99.98,4.0,,0.0,0.0,
2025-08-14T23:00:08.588Z,6,GR86-016-55,-6.9,0.139,-0.149,99.98,4.0,,0.0,0.0,
2025-08-14T23:00:08.632Z,6,GR86-016-55,-6.9,0.123,-0.151,99.99,4.0,,0.0,0.0,
2025-08-14T23:00:08.675Z,6,GR86-016-55,-6.9,0.09,-0.148,99.99,4.0,7039.0,0.0,0.0,
2025-08-14T23:00:08.718Z,6,GR86-016-55,-6.9,0.124,-0.13,99.99,4.0,,0.0,0.0,177.48
2025-08-14T23:00:08.761Z,6,GR86-016-55,-6.9,0.112,-0.147,99.99,4.0,,0.0,0.0,
2025-08-14T23:00:08.804Z,6,GR86-016-55,-6.9,0.133,-0.115,99.99,4.0,,0.0,0.0,
2025-08-14T23:00:08.847Z,6,GR86-016-55,-6.800000000000001,0.114,-0.143,100.0,4.0,,0.0,0.0,
2025-08-14T23:00:08.890Z,6,GR86-016-55,-6.800000000000001,0.11,-0.123,99.97,4.0,7073.0,0.0,0.0,
2025-08-14T23:00:08.933Z,6,GR86-016-55,-6.800000000000001,0.112,-0.115,99.99,4.0,,0.0,0.0,178.5
2025-08-14T23:00:08.976Z,6,GR86-016-55,-6.800000000000001,0.105,-0.1,99.99,4.0,,0.0,0.0,
2025-08-14T23:00:09.019Z,6,GR86-016-55,-6.800000000000001,0.132,-0.118,99.99,4.0,,0.0,0.0,
2025-08-14T23:00:09.062Z,6,GR86-016-55,-6.7,0.114,-0.119,99.99,4.0,,0.0,0.0,
2025-08-14T23:00:09.105Z,6,GR86-016-55,-6.7,0.097,-0.123,99.99,4.0,7109.0,0.0,0.0,
2025-08-14T23:00:09.148Z,6,GR86-016-55,-6.5,0.093,-0.098,99.98,4.0,,0.0,0.0,179.11
2025-08-14T23:00:09.191Z,6,GR86-016-55,-6.2,0.091,-0.103,99.99,4.0,,0.0,0.0,
2025-08-14T23:00:09.234Z,6,GR86-016-55,-5.5,0.096,-0.11,99.99,4.0,,0.0,0.0,
2025-08-14T23:00:09.277Z,6,GR86-016-55,-4.7,0.105,-0.094,99.99,4.0,,0.0,0.0,
2025-08-14T23:00:09.322Z,6,GR86-016-55,-4.5,0.128,-0.093,99.99,4.0,7137.0,0.0,0.0,
2025-08-14T23:00:09.365Z,6,GR86-016-55,-4.6000000000000005,0.127,-0.071,99.98,4.0,,0.0,0.0,179.96
2025-08-14T23:00:09.408Z,6,GR86-016-55,-4.6000000000000005,0.125,-0.074,99.98,4.0,,0.0,0.0,
2025-08-14T23:00:09.451Z,6,GR86-016-55,-4.6000000000000005,0.141,-0.071,100.0,4.0,,0.0,0.0,
2025-08-14T23:00:09.494Z,6,GR86-016-55,-4.6000000000000005,0.132,-0.08,99.98,4.0,,0.0,0.0,
2025-08-14T23:00:09.537Z,6,GR86-016-55,-4.3,0.137,-0.06,100.0,4.0,7175.0,0.0,0.0,
2025-08-14T23:00:09.582Z,6,GR86-016-55,-3.8,0.098,-0.025,99.98,4.0,,0.0,0.0,180.83
2025-08-14T23:00:09.625Z,6,GR86-016-55,-3.8,0.093,-0.01,100.0,4.0,,0.0,0.0,
2025-08-14T23:00:09.668Z,6,GR86-016-55,-3.9,0.089,-0.001,99.99,4.0,,0.0,0.0,
2025-08-14T23:00:09.712Z,6,GR86-016-55,-4.0,0.091,0.003,99.99,4.0,,0.0,0.0,
2025-08-14T23:00:09.755Z,6,GR86-016-55,-4.1000000000000005,0.099,0.009,100.0,4.0,7201.0,0.0,0.0,
2025-08-14T23:00:09.798Z,6,GR86-016-55,-4.1000000000000005,0.083,0.012,99.96,4.0,,0.0,0.0,181.75
2025-08-14T23:00:09.842Z,6,GR86-016-55,-4.1000000000000005,0.122,-0.021,99.98,4.0,,0.0,0.0,
2025-08-14T23:00:09.885Z,6,GR86-016-55,-4.1000000000000005,0.129,-0.013,99.98,4.0,,0.0,0.0,
2025-08-14T23:00:09.928Z,6,GR86-016-55,-4.1000000000000005,0.117,0.012,99.99,4.0,,0.0,0.0,
2025-08-14T23:00:09.971Z,6,GR86-016-55,-4.1000000000000005,0.099,-0.002,100.01,4.0,7236.0,0.0,0.0,
2025-08-14T23:00:10.014Z,6,GR86-016-55,-4.1000000000000005,0.115,-0.015,99.99,4.0,,0.0,0.0,182.53
2025-08-14T23:00:10.057Z,6,GR86-016-55,-4.1000000000000005,0.097,-0.018,99.97,4.0,,0.0,0.0,
2025-08-14T23:00:10.100Z,6,GR86-016-55,-4.1000000000000005,0.123,-0.014,99.99,4.0,,0.0,0.0,
2025-08-14T23:00:10.143Z,6,GR86-016-55,-3.6,-0.053,-0.004,99.97,5.0,,0.0,0.0,
2025-08-14T23:00:10.186Z,6,GR86-016-55,-3.3000000000000003,-0.002,0.035,99.99,5.0,7263.0,0.0,0.0,
2025-08-14T23:00:10.229Z,6,GR86-016-55,-3.2,0.444,-0.029,99.98,5.0,,0.0,0.0,184.12
2025-08-14T23:00:10.272Z,6,GR86-016-55,-3.0,0.077,-0.031,99.98,5.0,,0.0,0.0,
2025-08-14T23:00:10.358Z,6,GR86-016-55,-3.2,0.102,-0.006,99.99,5.0,,0.0,0.0,
2025-08-14T23:00:10.401Z,6,GR86-016-55,-3.2,0.094,-0.004,100.0,5.0,6769.0,0.0,0.0,
2025-08-14T23:00:10.444Z,6,GR86-016-55,-3.3000000000000003,0.073,0.02,100.0,5.0,,0.0,0.0,184.84
2025-08-14T23:00:10.487Z,6,GR86-016-55,-3.5,0.06,-0.046,99.99,5.0,,0.0,0.0,
2025-08-14T23:00:10.530Z,6,GR86-016-55,-3.8,0.074,0.01,99.99,5.0,,0.0,0.0,
2025-08-14T23:00:10.573Z,6,GR86-016-55,-4.0,0.077,-0.005,100.0,5.0,,0.0,0.0,
2025-08-14T23:00:10.616Z,6,GR86-016-55,-4.0,0.049,-0.019,99.98,5.0,6350.0,0.0,0.0,
2025-08-14T23:00:10.659Z,6,GR86-016-55,-4.0,0.078,-0.016,99.98,5.0,,0.0,0.0,185.6
2025-08-14T23:00:10.702Z,6,GR86-016-55,-3.9,0.116,-0.007,99.99,5.0,,0.0,0.0,
2025-08-14T23:00:10.745Z,6,GR86-016-55,-3.9,0.112,-0.014,99.99,5.0,,0.0,0.0,
2025-08-14T23:00:10.788Z,6,GR86-016-55,-3.9,0.103,-0.015,99.99,5.0,,0.0,0.0,
2025-08-14T23:00:10.831Z,6,GR86-016-55,-3.9,0.091,-0.011,99.99,5.0,6385.0,0.0,0.0,
2025-08-14T23:00:10.874Z,6,GR86-016-55,-3.8,0.101,-0.009,99.99,5.0,,0.0,0.0,186.42
2025-08-14T23:00:10.918Z,6,GR86-016-55,-3.6,0.089,-0.015,99.99,5.0,,0.0,0.0,
2025-08-14T23:00:10.961Z,6,GR86-016-55,-2.3000000000000003,0.115,-0.013,99.98,5.0,,0.0,0.0,
2025-08-14T23:00:11.004Z,6,GR86-016-55,-2.3000000000000003,0.114,0.0,99.99,5.0,,0.0,0.0,
2025-08-14T23:00:11.047Z,6,GR86-016-55,-3.4000000000000004,0.088,0.01,99.99,5.0,6414.0,0.0,0.0,
2025-08-14T23:00:11.090Z,6,GR86-016-55,-6.7,0.102,-0.013,99.99,5.0,,0.0,0.0,186.89
2025-08-14T23:00:11.133Z,6,GR86-016-55,-7.4,0.1,-0.036,99.98,5.0,,0.0,0.0,
2025-08-14T23:00:11.176Z,6,GR86-016-55,-7.800000000000001,0.081,-0.048,99.99,5.0,,0.0,0.0,
2025-08-14T23:00:11.219Z,6,GR86-016-55,-8.3,0.098,-0.073,99.99,5.0,,0.0,0.0,
2025-08-14T23:00:11.262Z,6,GR86-016-55,-8.4,0.11,-0.117,99.99,5.0,6428.0,0.0,0.0,
2025-08-14T23:00:11.305Z,6,GR86-016-55,-8.4,0.086,-0.116,99.99,5.0,,0.0,0.0,187.69
2025-08-14T23:00:11.348Z,6,GR86-016-55,-8.3,0.09,-0.162,99.99,5.0,,0.0,0.0,
2025-08-14T23:00:11.391Z,6,GR86-016-55,-8.200000000000001,0.094,-0.164,99.98,5.0,,0.0,0.0,
2025-08-14T23:00:11.434Z,6,GR86-016-55,-8.200000000000001,0.087,-0.199,99.99,5.0,,0.0,0.0,
2025-08-14T23:00:11.477Z,6,GR86-016-55,-8.200000000000001,0.084,-0.211,99.98,5.0,6466.0,0.0,0.0,
2025-08-14T23:00:11.522Z,6,GR86-016-55,-8.1,0.09,-0.207,99.98,5.0,,0.0,0.0,188.33
2025-08-14T23:00:11.565Z,6,GR86-016-55,-8.1,0.089,-0.212,99.99,5.0,,0.0,0.0,
2025-08-14T23:00:11.608Z,6,GR86-016-55,-7.800000000000001,0.085,-0.211,100.0,5.0,,0.0,0.0,
2025-08-14T23:00:11.651Z,6,GR86-016-55,-6.2,0.107,-0.219,99.99,5.0,,0.0,0.0,
2025-08-14T23:00:11.694Z,6,GR86-016-55,-3.8,0.125,-0.186,99.99,5.0,6483.0,0.0,0.0,
2025-08-14T23:00:11.737Z,6,GR86-016-55,-3.1,0.101,-0.171,99.99,5.0,,0.0,0.0,188.87
2025-08-14T23:00:11.780Z,6,GR86-016-55,-2.5,0.071,-0.112,100.0,5.0,,0.0,0.0,
2025-08-14T23:00:11.825Z,6,GR86-016-55,-1.7000000000000002,0.091,-0.099,100.0,5.0,,0.0,0.0,
2025-08-14T23:00:11.868Z,6,GR86-016-55,-0.2,0.099,-0.062,99.98,5.0,,0.0,0.0,
2025-08-14T23:00:11.911Z,6,GR86-016-55,1.1,0.106,-0.03,99.99,5.0,6502.0,0.0,0.0,
2025-08-14T23:00:11.954Z,6,GR86-016-55,1.9,0.103,0.021,99.99,5.0,,0.0,0.0,189.5
2025-08-14T23:00:11.997Z,6,GR86-016-55,2.0,0.107,0.063,99.98,5.0,,0.0,0.0,
2025-08-14T23:00:12.040Z,6,GR86-016-55,1.8,0.054,0.14,100.0,5.0,,0.0,0.0,
2025-08-14T23:00:12.085Z,6,GR86-016-55,1.7000000000000002,0.064,0.146,99.98,5.0,,0.0,0.0,
2025-08-14T23:00:12.128Z,6,GR86-016-55,1.6,0.07,0.187,99.98,5.0,6521.0,0.0,0.0,
2025-08-14T23:00:12.171Z,6,GR86-016-55,1.4,0.064,0.197,99.99,5.0,,0.0,0.0,190.28
2025-08-14T23:00:12.214Z,6,GR86-016-55,1.3,0.093,0.208,99.98,5.0,,0.0,0.0,
2025-08-14T23:00:12.257Z,6,GR86-016-55,1.3,0.079,0.214,100.0,5.0,,0.0,0.0,
2025-08-14T23:00:12.300Z,6,GR86-016-55,1.3,0.053,0.187,99.99,5.0,,0.0,0.0,
2025-08-14T23:00:12.343Z,6,GR86-016-55,1.3,0.07,0.216,99.99,5.0,6542.0,0.0,0.0,
2025-08-14T23:00:12.386Z,6,GR86-016-55,1.1,0.041,0.211,99.99,5.0,,0.0,0.0,190.98
2025-08-14T23:00:12.429Z,6,GR86-016-55,1.0,0.054,0.231,99.99,5.0,,0.0,0.0,
2025-08-14T23:00:12.472Z,6,GR86-016-55,1.0,0.062,0.242,99.98,5.0,,0.0,0.0,
2025-08-14T23:00:12.515Z,6,GR86-016-55,1.0,0.082,0.217,99.99,5.0,,0.0,0.0,
2025-08-14T23:00:12.558Z,6,GR86-016-55,1.0,0.076,0.232,99.99,5.0,6570.0,0.0,0.0,
2025-08-14T23:00:12.601Z,6,GR86-016-55,0.9,0.067,0.195,100.0,5.0,,0.0,0.0,191.41
2025-08-14T23:00:12.645Z,6,GR86-016-55,0.9,0.053,0.197,99.99,5.0,,0.0,0.0,
2025-08-14T23:00:12.688Z,6,GR86-016-55,0.9,0.042,0.181,99.99,5.0,,0.0,0.0,
2025-08-14T23:00:12.731Z,6,GR86-016-55,1.0,0.051,0.174,99.98,5.0,,0.0,0.0,
2025-08-14T23:00:12.774Z,6,GR86-016-55,1.0,0.054,0.191,99.98,5.0,6583.0,0.0,0.0,
2025-08-14T23:00:12.817Z,6,GR86-016-55,1.0,0.062,0.17,99.99,5.0,,0.0,0.0,192.09
2025-08-14T23:00:12.862Z,6,GR86-016-55,0.9,0.066,0.179,99.98,5.0,,0.0,0.0,
2025-08-14T23:00:12.905Z,6,GR86-016-55,1.0,0.069,0.174,99.98,5.0,,0.0,0.0,
2025-08-14T23:00:12.948Z,6,GR86-016-55,1.0,0.04,0.181,99.98,5.0,,0.0,0.0,
2025-08-14T23:00:12.991Z,6,GR86-016-55,1.2000000000000002,0.039,0.186,99.99,5.0,6601.0,0.0,0.0,
2025-08-14T23:00:13.034Z,6,GR86-016-55,1.2000000000000002,0.048,0.192,99.98,5.0,,0.0,0.0,193.14
2025-08-14T23:00:13.077Z,6,GR86-016-55,1.3,0.047,0.176,99.99,5.0,,0.0,0.0,
2025-08-14T23:00:13.122Z,6,GR86-016-55,1.5,0.076,0.194,99.98,5.0,,0.0,0.0,
2025-08-14T23:00:13.165Z,6,GR86-016-55,1.9,0.063,0.188,99.98,5.0,,0.0,0.0,
2025-08-14T23:00:13.208Z,6,GR86-016-55,2.1,0.042,0.207,99.98,5.0,6622.0,0.0,0.0,
2025-08-14T23:00:13.251Z,6,GR86-016-55,2.3000000000000003,0.047,0.217,99.99,5.0,,0.0,0.0,193.77
2025-08-14T23:00:13.294Z,6,GR86-016-55,2.4000000000000004,0.044,0.228,99.99,5.0,,0.0,0.0,
2025-08-14T23:00:13.337Z,6,GR86-016-55,2.5,0.059,0.228,99.99,5.0,,0.0,0.0,
2025-08-14T23:00:13.380Z,6,GR86-016-55,2.5,0.064,0.228,99.99,5.0,,0.0,0.0,
2025-08-14T23:00:13.423Z,6,GR86-016-55,2.5,0.063,0.237,99.98,5.0,6656.0,0.0,0.0,
2025-08-14T23:00:13.466Z,6,GR86-016-55,2.6,0.051,0.262,99.98,5.0,,0.0,0.0,194.32
2025-08-14T23:00:13.509Z,6,GR86-016-55,3.3000000000000003,0.065,0.261,100.0,5.0,,0.0,0.0,
2025-08-14T23:00:13.552Z,6,GR86-016-55,4.5,0.065,0.269,99.99,5.0,,0.0,0.0,
2025-08-14T23:00:13.595Z,6,GR86-016-55,5.6000000000000005,0.068,0.268,99.99,5.0,,0.0,0.0,
2025-08-14T23:00:13.639Z,6,GR86-016-55,6.0,0.069,0.286,99.99,5.0,6667.0,0.0,0.0,
2025-08-14T23:00:13.682Z,6,GR86-016-55,6.0,0.065,0.32,99.99,5.0,,0.0,0.0,194.91
2025-08-14T23:00:13.725Z,6,GR86-016-55,5.9,0.063,0.318,100.0,5.0,,0.0,0.0,
2025-08-14T23:00:13.768Z,6,GR86-016-55,5.9,0.071,0.342,99.99,5.0,,0.0,0.0,
2025-08-14T23:00:13.811Z,6,GR86-016-55,5.9,0.091,0.347,100.01,5.0,,0.0,0.0,
2025-08-14T23:00:13.854Z,6,GR86-016-55,5.800000000000001,0.094,0.378,99.99,5.0,6693.0,0.0,0.0,
2025-08-14T23:00:13.897Z,6,GR86-016-55,5.7,0.086,0.366,99.99,5.0,,0.0,0.0,195.32
2025-08-14T23:00:13.940Z,6,GR86-016-55,5.7,0.071,0.403,100.01,5.0,,0.0,0.0,
2025-08-14T23:00:13.984Z,6,GR86-016-55,5.5,0.077,0.418,99.98,5.0,,0.0,0.0,
2025-08-14T23:00:14.027Z,6,GR86-016-55,5.2,0.093,0.422,100.0,5.0,,0.0,0.0,
2025-08-14T23:00:14.070Z,6,GR86-016-55,4.9,0.083,0.381,99.99,5.0,6715.0,0.0,0.0,
2025-08-14T23:00:14.113Z,6,GR86-016-55,4.6000000000000005,0.095,0.389,100.0,5.0,,0.0,0.0,195.86
2025-08-14T23:00:14.156Z,6,GR86-016-55,4.6000000000000005,0.08,0.387,99.99,5.0,,0.0,0.0,
2025-08-14T23:00:14.199Z,6,GR86-016-55,4.6000000000000005,0.095,0.375,99.98,5.0,,0.0,0.0,
2025-08-14T23:00:14.242Z,6,GR86-016-55,4.5,0.102,0.361,99.98,5.0,,0.0,0.0,
2025-08-14T23:00:14.328Z,6,GR86-016-55,4.4,0.043,0.337,99.97,5.0,6737.0,9.215,9.28,196.44
2025-08-14T23:00:14.371Z,6,GR86-016-55,4.3,-0.028,0.274,99.98,5.0,,8.01,8.425,
2025-08-14T23:00:14.414Z,6,GR86-016-55,4.2,-0.038,0.298,99.99,5.0,,2.7,3.16,
2025-08-14T23:00:14.458Z,6,GR86-016-55,4.1000000000000005,0.059,0.243,99.99,5.0,,0.0,0.0,
2025-08-14T23:00:14.501Z,6,GR86-016-55,4.1000000000000005,0.108,0.259,99.99,5.0,6715.0,0.0,0.0,
2025-08-14T23:00:14.544Z,6,GR86-016-55,4.2,0.123,0.237,99.99,5.0,,0.0,0.0,196.68
2025-08-14T23:00:14.587Z,6,GR86-016-55,4.3,0.09,0.239,99.99,5.0,,0.0,0.0,
2025-08-14T23:00:14.630Z,6,GR86-016-55,4.5,0.079,0.265,100.0,5.0,,0.0,0.0,
2025-08-14T23:00:14.675Z,6,GR86-016-55,4.7,0.1,0.294,99.99,5.0,,0.0,0.0,
2025-08-14T23:00:14.718Z,6,GR86-016-55,4.7,0.076,0.31,100.0,5.0,6768.0,0.0,0.0,
2025-08-14T23:00:14.761Z,6,GR86-016-55,4.800000000000001,0.113,0.336,100.0,5.0,,0.0,0.0,196.7
2025-08-14T23:00:14.804Z,6,GR86-016-55,4.800000000000001,0.102,0.31,99.98,5.0,,0.0,0.0,
2025-08-14T23:00:14.847Z,6,GR86-016-55,4.800000000000001,0.091,0.321,99.98,5.0,,0.0,0.0,
2025-08-14T23:00:14.890Z,6,GR86-016-55,4.6000000000000005,0.073,0.333,99.99,5.0,,0.0,0.0,
2025-08-14T23:00:14.934Z,6,GR86-016-55,4.5,0.058,0.33,99.99,5.0,6775.0,0.0,0.0,
2025-08-14T23:00:14.977Z,6,GR86-016-55,4.3,0.062,0.342,99.98,5.0,,0.0,0.0,197.61
2025-08-14T23:00:15.022Z,6,GR86-016-55,4.1000000000000005,0.092,0.305,99.98,5.0,,0.0,0.0,
2025-08-14T23:00:15.065Z,6,GR86-016-55,4.1000000000000005,0.086,0.293,78.95,5.0,,0.0,0.0,
2025-08-14T23:00:15.108Z,6,GR86-016-55,4.1000000000000005,0.066,0.3,8.59,5.0,,3.34,3.555,
2025-08-14T23:00:15.151Z,6,GR86-016-55,4.2,0.03,0.338,4.59,5.0,6811.0,6.09,6.09,
2025-08-14T23:00:15.194Z,6,GR86-016-55,4.1000000000000005,-0.219,0.328,4.3,5.0,,9.005,9.005,198.27
2025-08-14T23:00:15.237Z,6,GR86-016-55,3.9,-0.292,0.321,3.89,5.0,,10.115,10.15,
2025-08-14T23:00:15.280Z,6,GR86-016-55,3.8,-0.458,0.248,3.37,5.0,,15.505,15.475,
2025-08-14T23:00:15.323Z,6,GR86-016-55,3.7,-0.429,0.265,3.02,5.0,,23.24,23.06,
2025-08-14T23:00:15.366Z,6,GR86-016-55,3.7,-0.5760000000000001,0.227,2.88,5.0,6545.0,26.43,26.535,
2025-08-14T23:00:15.409Z,6,GR86-016-55,3.7,-0.609,0.187,2.81,5.0,,24.705,25.3,198.8
2025-08-14T23:00:15.452Z,6,GR86-016-55,3.6,-0.585,0.236,2.73,5.0,,16.495,17.52,
2025-08-14T23:00:15.495Z,6,GR86-016-55,3.5,-0.398,0.221,2.67,5.0,,6.99,7.735,
2025-08-14T23:00:15.539Z,6,GR86-016-55,3.5,-0.292,0.254,2.65,5.0,,4.12,4.47,
2025-08-14T23:00:15.582Z,6,GR86-016-55,3.4000000000000004,-0.301,0.246,2.6,5.0,6425.0,17.900000000000002,17.84,
2025-08-14T23:00:15.625Z,6,GR86-016-55,3.5,-0.531,0.242,2.58,5.0,,27.315,27.115,192.63
2025-08-14T23:00:15.668Z,6,GR86-016-55,4.0,-0.669,0.25,2.57,5.0,,32.9,32.78,
2025-08-14T23:00:15.712Z,6,GR86-016-55,4.3,-0.73,0.21,2.5500000000000003,5.0,,35.205,35.175000000000004,
2025-08-14T23:00:15.755Z,6,GR86-016-55,4.1000000000000005,-0.776,0.215,2.54,5.0,,34.93,35.31,
2025-08-14T23:00:15.798Z,6,GR86-016-55,4.0,-0.76,0.2,2.53,5.0,6484.0,31.175,32.445,
2025-08-14T23:00:15.842Z,6,GR86-016-55,3.8,-0.649,0.262,2.53,5.0,,23.3,24.11,187.25
2025-08-14T23:00:15.885Z,6,GR86-016-55,3.6,-0.617,0.266,2.51,5.0,,21.96,22.37,
2025-08-14T23:00:15.928Z,6,GR86-016-55,3.5,-0.592,0.244,2.51,5.0,,22.495,22.735,
2025-08-14T23:00:15.971Z,6,GR86-016-55,3.4000000000000004,-0.557,0.229,2.51,5.0,,22.965,23.27,
2025-08-14T23:00:16.014Z,6,GR86-016-55,3.4000000000000004,-0.548,0.194,2.51,5.0,6114.0,24.02,24.2,
2025-08-14T23:00:16.057Z,6,GR86-016-55,4.5,-0.602,0.2,2.51,5.0,,26.325,26.2,183.95
2025-08-14T23:00:16.100Z,6,GR86-016-55,9.1,-0.71,0.206,2.5,5.0,,32.625,32.410000000000004,
2025-08-14T23:00:16.143Z,6,GR86-016-55,9.9,-0.787,0.225,2.5,5.0,,36.335,36.18,
2025-08-14T23:00:16.187Z,6,GR86-016-55,9.6,-0.8130000000000001,0.231,2.5,5.0,,36.73,37.05,
2025-08-14T23:00:16.230Z,6,GR86-016-55,7.300000000000001,-0.796,0.213,2.5,5.0,5892.0,36.335,36.9,
2025-08-14T23:00:16.273Z,6,GR86-016-55,5.1000000000000005,-0.799,0.207,2.5,5.0,,36.73,37.11,178.86
2025-08-14T23:00:16.316Z,6,GR86-016-55,3.8,-0.8170000000000001,0.184,2.5,5.0,,37.295,37.525,
2025-08-14T23:00:16.359Z,6,GR86-016-55,2.5,-0.806,0.182,2.51,5.0,,37.11,37.385,
2025-08-14T23:00:16.402Z,6,GR86-016-55,0.9,-0.809,0.199,2.5,5.0,,33.25,34.49,
2025-08-14T23:00:16.445Z,6,GR86-016-55,0.4,-0.746,0.206,2.5,5.0,5688.0,28.065,29.435,
2025-08-14T23:00:16.488Z,6,GR86-016-55,0.4,-0.654,0.183,2.5,5.0,,25.33,26.17,172.69
2025-08-14T23:00:16.531Z,6,GR86-016-55,5.800000000000001,-0.619,0.205,2.5,5.0,,25.485,26.11,
2025-08-14T23:00:16.574Z,6,GR86-016-55,10.8,-0.618,0.232,2.5,5.0,,26.57,26.75,
2025-08-14T23:00:16.617Z,6,GR86-016-55,12.2,-0.622,0.269,30.14,5.0,,26.63,26.935,
2025-08-14T23:00:16.660Z,6,GR86-016-55,10.3,-0.657,0.272,95.83,4.0,5642.0,23.715,24.615,
2025-08-14T23:00:16.704Z,6,GR86-016-55,5.9,-0.5660000000000001,0.218,58.8,4.0,,22.525,23.21,169.11
2025-08-14T23:00:16.747Z,6,GR86-016-55,1.9,-0.802,0.163,3.97,4.0,,24.675,25.515,
2025-08-14T23:00:16.790Z,6,GR86-016-55,-1.3,-0.604,0.215,2.88,4.0,,27.71,27.97,
2025-08-14T23:00:16.833Z,6,GR86-016-55,-2.1,-0.594,0.113,2.69,4.0,,26.78,26.6,
2025-08-14T23:00:16.876Z,6,GR86-016-55,-2.1,-0.6880000000000001,0.162,2.63,4.0,6250.0,25.775,26.17,
2025-08-14T23:00:16.919Z,6,GR86-016-55,-2.1,-0.591,0.212,2.61,4.0,,22.25,22.965,165.02
2025-08-14T23:00:16.962Z,6,GR86-016-55,2.2,-0.522,0.207,2.58,4.0,,18.295,18.615,
2025-08-14T23:00:17.005Z,6,GR86-016-55,5.2,-0.538,0.263,2.56,4.0,,20.265,20.265,
2025-08-14T23:00:17.048Z,6,GR86-016-55,6.800000000000001,-0.5730000000000001,0.204,2.56,4.0,,24.08,23.865,
2025-08-14T23:00:17.091Z,6,GR86-016-55,6.6000000000000005,-0.654,0.238,2.56,4.0,6147.0,27.025,26.78,
2025-08-14T23:00:17.134Z,6,GR86-016-55,5.4,-0.6960000000000001,0.216,2.53,4.0,,28.305,28.37,160.18
2025-08-14T23:00:17.177Z,6,GR86-016-55,2.8000000000000003,-0.71,0.19,2.53,4.0,,28.75,29.025,
2025-08-14T23:00:17.222Z,6,GR86-016-55,1.0,-0.726,0.161,2.51,4.0,,28.645,28.995,
2025-08-14T23:00:17.265Z,6,GR86-016-55,1.0,-0.709,0.168,2.5,4.0,,28.4,28.84,
2025-08-14T23:00:17.308Z,6,GR86-016-55,1.0,-0.686,0.173,2.5,4.0,5953.0,28.4,28.69,
2025-08-14T23:00:17.351Z,6,GR86-016-55,1.6,-0.68,0.185,2.5,4.0,,28.965,29.025,157.29
2025-08-14T23:00:17.394Z,6,GR86-016-55,1.7000000000000002,-0.686,0.141,2.5,4.0,,29.68,29.68,
2025-08-14T23:00:17.437Z,6,GR86-016-55,1.6,-0.6990000000000001,0.113,32.52,4.0,,30.245,30.275,
2025-08-14T23:00:17.480Z,6,GR86-016-55,-0.2,-0.738,0.112,97.09,4.0,,33.28,33.055,
2025-08-14T23:00:17.525Z,6,GR86-016-55,-1.4,-0.793,0.054,99.94,4.0,5808.0,34.365,34.15,
2025-08-14T23:00:17.568Z,6,GR86-016-55,-2.0,-0.771,0.016,68.16,3.0,,34.655,34.78,152.61
2025-08-14T23:00:17.611Z,6,GR86-016-55,-2.8000000000000003,-0.973,0.015,4.58,3.0,,35.205,35.205,
2025-08-14T23:00:17.654Z,6,GR86-016-55,-3.4000000000000004,-0.869,0.056,3.0500000000000003,3.0,,37.175,38.255,
2025-08-14T23:00:17.697Z,6,GR86-016-55,-3.3000000000000003,-0.732,-0.048,2.8000000000000003,3.0,,36.96,37.175,
2025-08-14T23:00:17.740Z,6,GR86-016-55,1.3,-0.778,0.018,2.69,3.0,6280.0,31.025,31.575,
2025-08-14T23:00:17.784Z,6,GR86-016-55,2.6,-0.644,-0.05,2.66,3.0,,23.775,24.645,147.77
2025-08-14T23:00:17.827Z,6,GR86-016-55,5.0,-0.521,-0.143,2.63,3.0,,17.81,18.65,
2025-08-14T23:00:17.870Z,6,GR86-016-55,8.1,-0.537,-0.005,2.61,3.0,,15.125,15.78,
2025-08-14T23:00:17.913Z,6,GR86-016-55,9.9,-0.477,-0.013,2.58,3.0,,15.72,15.78,
2025-08-14T23:00:17.956Z,6,GR86-016-55,10.1,-0.433,-0.038,2.57,3.0,6460.0,17.0,17.275000000000002,
2025-08-14T23:00:17.999Z,6,GR86-016-55,9.7,-0.46,0.014,2.56,3.0,,17.685,17.87,142.08
2025-08-14T23:00:18.042Z,6,GR86-016-55,9.4,-0.464,-0.007,2.51,3.0,,16.525,16.8,
2025-08-14T23:00:18.085Z,6,GR86-016-55,9.4,-0.462,0.039,2.51,3.0,,12.65,13.4,
2025-08-14T23:00:18.128Z,6,GR86-016-55,9.5,-0.428,0.104,2.51,3.0,,9.935,10.56,
2025-08-14T23:00:18.171Z,6,GR86-016-55,9.5,-0.341,0.136,2.5,3.0,6390.0,9.845,10.15,
2025-08-14T23:00:18.214Z,6,GR86-016-55,9.2,-0.344,0.122,2.5,3.0,,10.15,10.375,140.20000000000002
2025-08-14T23:00:18.257Z,6,GR86-016-55,7.300000000000001,-0.373,0.165,2.49,3.0,,10.47,10.835,
2025-08-14T23:00:18.301Z,6,GR86-016-55,3.6,-0.352,0.141,2.5,3.0,,11.705,11.935,
2025-08-14T23:00:18.344Z,6,GR86-016-55,3.0,-0.426,0.185,2.49,3.0,,15.335,15.365,
2025-08-14T23:00:18.388Z,6,GR86-016-55,2.8000000000000003,-0.514,0.2,2.49,3.0,6306.0,20.845,20.63,
2025-08-14T23:00:18.431Z,6,GR86-016-55,2.8000000000000003,-0.5660000000000001,0.178,2.48,3.0,,26.295,26.11,136.27
2025-08-14T23:00:18.474Z,6,GR86-016-55,2.6,-0.663,0.164,2.49,3.0,,30.185,29.925,
2025-08-14T23:00:18.517Z,6,GR86-016-55,2.6,-0.728,0.153,2.49,3.0,,32.505,32.410000000000004,
2025-08-14T23:00:18.562Z,6,GR86-016-55,2.3000000000000003,-0.759,0.149,4.16,3.0,,32.84,33.345,
2025-08-14T23:00:18.606Z,6,GR86-016-55,1.3,-0.727,0.126,43.61,3.0,6213.0,32.505,33.055,
2025-08-14T23:00:18.649Z,6,GR86-016-55,0.3,-0.733,0.108,89.42,3.0,,28.43,29.115,132.07
2025-08-14T23:00:18.692Z,6,GR86-016-55,-0.3,-0.652,0.073,99.84,3.0,,21.655,22.735,
2025-08-14T23:00:18.735Z,6,GR86-016-55,-0.8,-0.45,0.042,78.23,2.0,,14.815,15.81,
2025-08-14T23:00:18.778Z,6,GR86-016-55,-1.5,-0.669,-0.004,7.66,2.0,,10.47,10.865,
2025-08-14T23:00:18.822Z,6,GR86-016-55,-1.8,-0.384,0.065,2.89,2.0,6694.0,13.46,13.855,
2025-08-14T23:00:18.865Z,6,GR86-016-55,0.9,-0.602,-0.106,2.69,2.0,,16.86,16.895,127.28
2025-08-14T23:00:18.908Z,6,GR86-016-55,8.8,-0.662,0.086,2.64,2.0,,22.4,22.28,
2025-08-14T23:00:18.951Z,6,GR86-016-55,14.7,-0.619,0.106,2.63,2.0,,24.995,24.92,
2025-08-14T23:00:18.994Z,6,GR86-016-55,18.6,-0.5670000000000001,0.025,2.63,2.0,,24.645,25.27,
2025-08-14T23:00:19.037Z,6,GR86-016-55,19.8,-0.636,0.211,2.63,2.0,6919.0,25.24,25.895,
2025-08-14T23:00:19.080Z,6,GR86-016-55,19.0,-0.7020000000000001,0.127,2.6,2.0,,27.18,27.62,124.26
2025-08-14T23:00:19.123Z,6,GR86-016-55,16.0,-0.6950000000000001,0.196,2.6,2.0,,27.925,28.065,
2025-08-14T23:00:19.166Z,6,GR86-016-55,12.2,-0.677,0.183,2.57,2.0,,26.43,27.285,
2025-08-14T23:00:19.209Z,6,GR86-016-55,9.0,-0.666,0.171,2.57,2.0,,26.355,26.995,
2025-08-14T23:00:19.252Z,6,GR86-016-55,6.7,-0.644,0.228,2.53,2.0,6661.0,27.085,27.375,
2025-08-14T23:00:19.295Z,6,GR86-016-55,5.6000000000000005,-0.687,0.221,2.52,2.0,,27.315,28.0,119.87
2025-08-14T23:00:19.339Z,6,GR86-016-55,5.5,-0.6970000000000001,0.241,2.52,2.0,,29.24,29.5,
2025-08-14T23:00:19.382Z,6,GR86-016-55,9.9,-0.724,0.28,2.51,2.0,,31.77,31.8,
2025-08-14T23:00:19.425Z,6,GR86-016-55,13.9,-0.752,0.322,2.5,2.0,,33.8,33.94,
2025-08-14T23:00:19.468Z,6,GR86-016-55,14.5,-0.807,0.357,2.5,2.0,6418.0,37.08,37.11,
2025-08-14T23:00:19.511Z,6,GR86-016-55,13.6,-0.833,0.361,2.51,2.0,,39.675,39.34,115.55
2025-08-14T23:00:19.554Z,6,GR86-016-55,12.1,-0.881,0.33,2.5,2.0,,39.495,40.21,
2025-08-14T23:00:19.597Z,6,GR86-016-55,11.2,-0.848,0.366,2.5,2.0,,41.935,41.765,
2025-08-14T23:00:19.640Z,6,GR86-016-55,11.1,-0.839,0.37,2.5,2.0,,40.47,40.685,
2025-08-14T23:00:19.685Z,6,GR86-016-55,10.9,-0.891,0.315,2.5,2.0,6046.0,40.865,41.555,
2025-08-14T23:00:19.728Z,6,GR86-016-55,10.8,-0.759,0.363,2.51,2.0,,40.715,40.96,111.48
2025-08-14T23:00:19.771Z,6,GR86-016-55,10.9,-0.859,0.346,2.5,2.0,,39.495,40.62,
2025-08-14T23:00:19.814Z,6,GR86-016-55,12.3,-0.837,0.312,2.5,2.0,,41.46,41.585,
2025-08-14T23:00:19.858Z,6,GR86-016-55,15.6,-0.858,0.296,2.5,2.0,,40.24,40.925,
2025-08-14T23:00:19.901Z,6,GR86-016-55,20.5,-0.899,0.326,5.42,2.0,5717.0,39.965,40.895,
2025-08-14T23:00:19.945Z,6,GR86-016-55,21.4,-0.899,0.389,46.12,2.0,,41.215,40.895,105.79
2025-08-14T23:00:19.988Z,6,GR86-016-55,20.9,-0.91,0.388,40.48,1.0,,40.835,41.645,
2025-08-14T23:00:20.032Z,6,GR86-016-55,19.6,-0.95,0.35,5.5200000000000005,1.0,,41.765,41.83,
2025-08-14T23:00:20.075Z,6,GR86-016-55,17.3,-0.927,0.366,4.36,1.0,,39.585,40.685,
2025-08-14T23:00:20.118Z,6,GR86-016-55,13.4,-0.909,0.377,4.03,1.0,5381.0,32.87,33.97,
2025-08-14T23:00:20.161Z,6,GR86-016-55,9.9,-0.908,0.35,3.21,1.0,,25.99,26.66,100.43
2025-08-14T23:00:20.204Z,6,GR86-016-55,9.0,-0.745,0.454,2.94,1.0,,25.775,26.72,
2025-08-14T23:00:20.247Z,6,GR86-016-55,10.2,-0.582,0.397,2.85,1.0,,25.545,25.865,
2025-08-14T23:00:20.290Z,6,GR86-016-55,18.0,-0.924,0.5690000000000001,2.74,1.0,,25.27,25.605,
2025-08-14T23:00:20.333Z,6,GR86-016-55,20.5,-0.631,0.687,2.66,1.0,6160.0,25.805,26.46,
2025-08-14T23:00:20.376Z,6,GR86-016-55,21.3,-0.716,0.5,2.63,1.0,,22.4,22.77,93.88
2025-08-14T23:00:20.419Z,6,GR86-016-55,23.9,-0.588,0.728,2.6,1.0,,19.55,19.7,
2025-08-14T23:00:20.462Z,6,GR86-016-55,27.3,-0.578,0.662,2.58,1.0,,19.015,19.335,
2025-08-14T23:00:20.505Z,6,GR86-016-55,29.4,-0.558,0.685,2.57,1.0,,19.55,20.175,
2025-08-14T23:00:20.548Z,6,GR86-016-55,34.800000000000004,-0.5660000000000001,0.736,2.56,1.0,6218.0,19.55,19.61,
2025-08-14T23:00:20.591Z,6,GR86-016-55,41.3,-0.529,0.715,2.54,1.0,,20.02,20.42,90.05
2025-08-14T23:00:20.634Z,6,GR86-016-55,46.5,-0.553,0.731,2.53,1.0,,19.075,19.52,
2025-08-14T23:00:20.677Z,6,GR86-016-55,50.2,-0.473,0.803,2.53,1.0,,18.86,19.12,
2025-08-14T23:00:20.722Z,6,GR86-016-55,52.5,-0.516,0.766,2.51,1.0,,18.71,18.985,
2025-08-14T23:00:20.765Z,6,GR86-016-55,52.5,-0.499,0.791,2.5,1.0,6070.0,18.89,19.425,
2025-08-14T23:00:20.808Z,6,GR86-016-55,51.3,-0.551,0.739,2.51,1.0,,18.585,19.015,86.12
2025-08-14T23:00:20.851Z,6,GR86-016-55,48.8,-0.508,0.778,2.5,1.0,,18.115,18.555,
2025-08-14T23:00:20.894Z,6,GR86-016-55,47.0,-0.534,0.789,2.5,1.0,,18.525,19.245,
2025-08-14T23:00:20.937Z,6,GR86-016-55,46.7,-0.46,0.8,2.5,1.0,,17.490000000000002,18.02,
2025-08-14T23:00:20.980Z,6,GR86-016-55,46.7,-0.508,0.78,2.5,1.0,5772.0,16.62,17.365000000000002,
2025-08-14T23:00:21.023Z,6,GR86-016-55,46.7,-0.479,0.839,2.5,1.0,,15.72,16.085,79.2
2025-08-14T23:00:21.066Z,6,GR86-016-55,47.2,-0.462,0.865,2.5,1.0,,15.655,16.055,
2025-08-14T23:00:21.109Z,6,GR86-016-55,49.400000000000006,-0.41,0.885,2.5,1.0,,14.115,14.785,
2025-08-14T23:00:21.152Z,6,GR86-016-55,52.7,-0.401,0.884,2.5,1.0,,13.275,13.995,
2025-08-14T23:00:21.195Z,6,GR86-016-55,56.5,-0.428,0.873,2.5,1.0,5491.0,11.58,12.27,
2025-08-14T23:00:21.238Z,6,GR86-016-55,59.3,-0.369,0.926,2.5,1.0,,8.76,9.31,75.89
2025-08-14T23:00:21.281Z,6,GR86-016-55,62.1,-0.282,0.971,2.49,1.0,,6.18,6.515000000000001,
2025-08-14T23:00:21.325Z,6,GR86-016-55,63.1,-0.245,0.959,2.5,1.0,,2.67,3.1,
2025-08-14T23:00:21.368Z,6,GR86-016-55,64.10000000000001,-0.203,0.905,2.49,1.0,,0.0,0.0,
2025-08-14T23:00:21.412Z,6,GR86-016-55,65.4,-0.177,0.886,2.5,1.0,5241.0,0.0,0.0,
2025-08-14T23:00:21.455Z,6,GR86-016-55,67.0,-0.168,0.896,2.5,1.0,,0.0,0.0,73.32000000000001
2025-08-14T23:00:21.498Z,6,GR86-016-55,68.3,-0.155,0.901,2.48,1.0,,0.0,0.0,
2025-08-14T23:00:21.541Z,6,GR86-016-55,70.3,-0.159,1.004,2.5,1.0,,0.0,0.0,
2025-08-14T23:00:21.584Z,6,GR86-016-55,72.10000000000001,-0.145,0.962,2.5,1.0,,0.0,0.0,
2025-08-14T23:00:21.628Z,6,GR86-016-55,74.5,-0.156,0.941,2.49,1.0,5017.0,0.0,0.0,
2025-08-14T23:00:21.671Z,6,GR86-016-55,77.0,-0.168,0.906,2.5,1.0,,0.0,0.0,71.84
2025-08-14T23:00:21.714Z,6,GR86-016-55,78.4,-0.165,0.932,2.49,1.0,,0.0,0.0,
2025-08-14T23:00:21.757Z,6,GR86-016-55,78.5,-0.158,0.953,2.5,1.0,,0.0,0.0,
2025-08-14T23:00:21.800Z,6,GR86-016-55,78.10000000000001,-0.14,0.987,2.5,1.0,,0.0,0.0,
2025-08-14T23:00:21.843Z,6,GR86-016-55,78.0,-0.135,0.922,2.49,1.0,4930.0,0.0,0.0,
2025-08-14T23:00:21.886Z,6,GR86-016-55,78.0,-0.146,0.932,2.5,1.0,,0.0,0.0,70.5
2025-08-14T23:00:21.930Z,6,GR86-016-55,77.80000000000001,-0.156,0.936,2.5,1.0,,0.0,0.0,
2025-08-14T23:00:21.973Z,6,GR86-016-55,77.7,-0.149,0.925,2.49,1.0,,0.0,0.0,
2025-08-14T23:00:22.016Z,6,GR86-016-55,77.60000000000001,-0.142,0.948,2.49,1.0,,0.0,0.0,
2025-08-14T23:00:22.059Z,6,GR86-016-55,77.2,-0.146,0.978,2.5,1.0,4795.0,0.0,0.0,
2025-08-14T23:00:22.102Z,6,GR86-016-55,75.9,-0.157,1.014,4.4,1.0,,0.0,0.0,68.91
2025-08-14T23:00:22.145Z,6,GR86-016-55,74.5,-0.128,0.981,16.76,1.0,,0.0,0.0,
2025-08-14T23:00:22.188Z,6,GR86-016-55,72.5,-0.146,0.993,19.87,1.0,,0.0,0.0,
2025-08-14T23:00:22.231Z,6,GR86-016-55,70.8,-0.137,1.043,20.4,1.0,,0.0,0.0,
2025-08-14T23:00:22.274Z,6,GR86-016-55,69.3,-0.107,1.052,21.41,1.0,4665.0,0.0,0.0,
2025-08-14T23:00:22.318Z,6,GR86-016-55,67.7,-0.093,1.081,23.21,1.0,,0.0,0.0,67.38
2025-08-14T23:00:22.361Z,6,GR86-016-55,61.8,-0.086,1.092,28.32,1.0,,0.0,0.0,
2025-08-14T23:00:22.404Z,6,GR86-016-55,56.3,-0.019,1.137,30.6,1.0,,0.0,0.0,
2025-08-14T23:00:22.447Z,6,GR86-016-55,51.8,0.184,1.078,34.58,1.0,,0.0,0.0,
2025-08-14T23:00:22.490Z,6,GR86-016-55,49.5,0.233,1.009,38.68,1.0,5053.0,0.0,0.0,
2025-08-14T23:00:22.533Z,6,GR86-016-55,49.2,0.27,1.003,41.63,1.0,,0.0,0.0,66.15
2025-08-14T23:00:22.576Z,6,GR86-016-55,49.2,0.293,0.99,45.38,1.0,,0.0,0.0,
2025-08-14T23:00:22.619Z,6,GR86-016-55,49.2,0.345,0.998,51.18,1.0,,0.0,0.0,
2025-08-14T23:00:22.662Z,6,GR86-016-55,49.400000000000006,0.311,0.99,60.36,1.0,,0.0,0.0,
2025-08-14T23:00:22.705Z,6,GR86-016-55,51.2,0.284,0.977,78.46000000000001,1.0,5252.0,0.0,0.0,
2025-08-14T23:00:22.748Z,6,GR86-016-55,56.8,0.274,1.011,95.65,1.0,,0.0,0.0,65.7
2025-08-14T23:00:22.791Z,6,GR86-016-55,63.3,0.316,0.972,100.03,1.0,,0.0,0.0,
2025-08-14T23:00:22.877Z,6,GR86-016-55,67.2,0.346,0.971,99.97,1.0,,0.0,0.0,
2025-08-14T23:00:22.922Z,6,GR86-016-55,59.2,0.324,1.008,99.97,1.0,5442.0,0.0,0.0,
2025-08-14T23:00:22.965Z,6,GR86-016-55,46.0,0.349,0.944,99.95,1.0,,0.0,0.0,66.64
2025-08-14T23:00:23.008Z,6,GR86-016-55,29.9,0.362,0.857,99.98,1.0,,0.0,0.0,
2025-08-14T23:00:23.051Z,6,GR86-016-55,14.0,0.389,0.838,99.95,1.0,,0.0,0.0,
2025-08-14T23:00:23.094Z,6,GR86-016-55,0.8,0.388,0.777,95.63,1.0,,0.0,0.0,
2025-08-14T23:00:23.137Z,6,GR86-016-55,-8.9,0.384,0.753,33.11,1.0,5632.0,0.0,0.0,
2025-08-14T23:00:23.180Z,6,GR86-016-55,-12.1,0.385,0.709,13.3,1.0,,0.0,0.0,68.4
2025-08-14T23:00:23.225Z,6,GR86-016-55,-11.7,0.358,0.755,23.76,1.0,,0.0,0.0,
2025-08-14T23:00:23.268Z,6,GR86-016-55,-1.2000000000000002,0.292,0.804,47.870000000000005,1.0,,0.0,0.0,
2025-08-14T23:00:23.311Z,6,GR86-016-55,14.8,0.164,0.889,92.34,1.0,,0.0,0.0,
2025-08-14T23:00:23.354Z,6,GR86-016-55,31.3,0.096,0.986,99.98,1.0,5742.0,0.0,0.0,
2025-08-14T23:00:23.397Z,6,GR86-016-55,39.1,0.16,1.021,99.94,1.0,,0.0,0.0,70.45
2025-08-14T23:00:23.442Z,6,GR86-016-55,34.0,0.285,0.941,99.96,1.0,,0.0,0.0,
2025-08-14T23:00:23.485Z,6,GR86-016-55,22.4,0.328,0.841,99.97,1.0,,0.0,0.0,
2025-08-14T23:00:23.528Z,6,GR86-016-55,16.0,0.402,0.776,99.96,1.0,,0.0,0.0,
2025-08-14T23:00:23.571Z,6,GR86-016-55,15.1,0.463,0.736,99.96,1.0,5640.0,0.0,0.0,
2025-08-14T23:00:23.614Z,6,GR86-016-55,21.8,0.425,0.792,99.98,1.0,,0.0,0.0,71.81
2025-08-14T23:00:23.657Z,6,GR86-016-55,32.6,0.425,0.79,99.96,1.0,,0.0,0.0,
2025-08-14T23:00:23.701Z,6,GR86-016-55,44.8,0.386,0.882,99.97,1.0,,0.0,0.0,
2025-08-14T23:00:23.744Z,6,GR86-016-55,46.1,0.382,0.879,99.96,1.0,,0.0,0.0,
2025-08-14T23:00:23.787Z,6,GR86-016-55,44.7,0.367,0.88,99.98,1.0,5895.0,0.0,0.0,
2025-08-14T23:00:23.831Z,6,GR86-016-55,41.1,0.377,0.838,99.98,1.0,,0.0,0.0,75.11
2025-08-14T23:00:23.874Z,6,GR86-016-55,38.0,0.361,0.783,99.98,1.0,,0.0,0.0,
2025-08-14T23:00:23.917Z,6,GR86-016-55,34.300000000000004,0.355,0.767,99.96,1.0,,0.0,0.0,
2025-08-14T23:00:23.962Z,6,GR86-016-55,26.8,0.35,0.6940000000000001,99.97,1.0,,0.0,0.0,
2025-08-14T23:00:24.005Z,6,GR86-016-55,22.1,0.352,0.672,99.96,1.0,5933.0,0.0,0.0,
2025-08-14T23:00:24.048Z,6,GR86-016-55,19.200000000000003,0.351,0.643,99.96,1.0,,0.0,0.0,77.46000000000001
2025-08-14T23:00:24.091Z,6,GR86-016-55,17.3,0.354,0.594,99.97,1.0,,0.0,0.0,
2025-08-14T23:00:24.134Z,6,GR86-016-55,15.9,0.36,0.671,99.98,1.0,,0.0,0.0,
2025-08-14T23:00:24.177Z,6,GR86-016-55,14.6,0.382,0.5640000000000001,99.96,1.0,,0.0,0.0,
2025-08-14T23:00:24.222Z,6,GR86-016-55,14.4,0.342,0.522,99.98,1.0,6267.0,0.0,0.0,
2025-08-14T23:00:24.265Z,6,GR86-016-55,15.5,0.39,0.54,99.99,1.0,,0.0,0.0,79.58
2025-08-14T23:00:24.308Z,6,GR86-016-55,16.0,0.401,0.448,99.99,1.0,,0.0,0.0,
2025-08-14T23:00:24.351Z,6,GR86-016-55,15.4,0.256,0.387,99.99,1.0,,0.0,0.0,
2025-08-14T23:00:24.394Z,6,GR86-016-55,14.8,0.237,0.507,99.98,1.0,,0.0,0.0,
2025-08-14T23:00:24.437Z,6,GR86-016-55,14.8,0.459,0.418,99.99,1.0,6501.0,0.0,0.0,
2025-08-14T23:00:24.480Z,6,GR86-016-55,20.8,0.397,0.481,100.0,1.0,,0.0,0.0,80.96000000000001
2025-08-14T23:00:24.523Z,6,GR86-016-55,25.8,0.485,0.495,100.02,1.0,,0.0,0.0,
2025-08-14T23:00:24.566Z,6,GR86-016-55,26.5,0.398,0.475,100.0,1.0,,0.0,0.0,
2025-08-14T23:00:24.609Z,6,GR86-016-55,24.0,0.327,0.421,99.99,1.0,,0.0,0.0,
2025-08-14T23:00:24.652Z,6,GR86-016-55,20.200000000000003,0.267,0.401,99.99,1.0,6586.0,0.0,0.0,
2025-08-14T23:00:24.695Z,6,GR86-016-55,12.9,0.382,0.437,99.99,1.0,,0.0,0.0,83.3
2025-08-14T23:00:24.739Z,6,GR86-016-55,6.7,0.42,0.436,100.02,1.0,,0.0,0.0,
2025-08-14T23:00:24.782Z,6,GR86-016-55,3.6,0.48,0.397,99.99,1.0,,0.0,0.0,
2025-08-14T23:00:24.825Z,6,GR86-016-55,4.9,0.463,0.427,99.99,1.0,,0.0,0.0,
2025-08-14T23:00:24.868Z,6,GR86-016-55,10.1,0.306,0.357,100.02,1.0,6793.0,0.0,0.0,
2025-08-14T23:00:24.911Z,6,GR86-016-55,10.9,0.278,0.39,99.99,1.0,,0.0,0.0,85.76
2025-08-14T23:00:24.954Z,6,GR86-016-55,9.9,0.37,0.29,99.97,1.0,,0.0,0.0,
2025-08-14T23:00:24.997Z,6,GR86-016-55,6.800000000000001,0.391,0.247,99.99,1.0,,0.0,0.0,
2025-08-14T23:00:25.040Z,6,GR86-016-55,3.4000000000000004,0.324,0.221,100.0,1.0,,0.0,0.0,
2025-08-14T23:00:25.085Z,6,GR86-016-55,3.3000000000000003,0.427,0.21,100.0,1.0,6885.0,0.0,0.0,
2025-08-14T23:00:25.128Z,6,GR86-016-55,3.5,0.397,0.216,100.02,1.0,,0.0,0.0,88.02
2025-08-14T23:00:25.171Z,6,GR86-016-55,5.7,0.352,0.143,100.01,1.0,,0.0,0.0,
2025-08-14T23:00:25.214Z,6,GR86-016-55,7.300000000000001,0.276,0.214,100.0,1.0,,0.0,0.0,
2025-08-14T23:00:25.258Z,6,GR86-016-55,7.800000000000001,0.391,0.234,99.99,1.0,,0.0,0.0,
2025-08-14T23:00:25.301Z,6,GR86-016-55,7.2,0.332,0.188,99.99,1.0,7096.0,0.0,0.0,
2025-08-14T23:00:25.344Z,6,GR86-016-55,5.9,0.27,0.187,100.02,1.0,,0.0,0.0,90.34
2025-08-14T23:00:25.387Z,6,GR86-016-55,1.9,0.261,0.167,100.0,1.0,,0.0,0.0,
2025-08-14T23:00:25.430Z,6,GR86-016-55,-1.5,0.311,0.125,99.98,1.0,,0.0,0.0,
2025-08-14T23:00:25.475Z,6,GR86-016-55,-3.1,0.1,0.167,100.01,2.0,,0.0,0.0,
2025-08-14T23:00:25.518Z,6,GR86-016-55,-3.8,0.065,0.159,100.0,2.0,7186.0,0.0,0.0,
2025-08-14T23:00:25.562Z,6,GR86-016-55,-3.9,0.6900000000000001,-0.059,99.99,2.0,,0.0,0.0,92.61
2025-08-14T23:00:25.605Z,6,GR86-016-55,-3.8,0.51,0.072,100.02,2.0,,0.0,0.0,
2025-08-14T23:00:25.648Z,6,GR86-016-55,-3.8,0.496,-0.023,99.99,2.0,,0.0,0.0,
2025-08-14T23:00:25.691Z,6,GR86-016-55,-4.1000000000000005,0.267,-0.074,100.0,2.0,,0.0,0.0,
2025-08-14T23:00:25.734Z,6,GR86-016-55,-4.3,0.283,-0.021,99.99,2.0,6088.0,0.0,0.0,
2025-08-14T23:00:25.777Z,6,GR86-016-55,-4.3,0.259,-0.099,99.99,2.0,,0.0,0.0,94.51
2025-08-14T23:00:25.822Z,6,GR86-016-55,-4.3,0.288,-0.067,100.0,2.0,,0.0,0.0,
2025-08-14T23:00:25.865Z,6,GR86-016-55,-4.3,0.288,-0.096,99.99,2.0,,0.0,0.0,
2025-08-14T23:00:25.908Z,6,GR86-016-55,-4.3,0.28,-0.104,99.99,2.0,,0.0,0.0,
2025-08-14T23:00:25.951Z,6,GR86-016-55,-4.3,0.266,-0.067,99.98,2.0,5751.0,0.0,0.0,
2025-08-14T23:00:25.994Z,6,GR86-016-55,-4.3,0.287,-0.086,100.01,2.0,,0.0,0.0,97.0
2025-08-14T23:00:26.037Z,6,GR86-016-55,-4.3,0.301,-0.063,99.99,2.0,,0.0,0.0,
2025-08-14T23:00:26.080Z,6,GR86-016-55,-4.3,0.289,-0.059,99.98,2.0,,0.0,0.0,
2025-08-14T23:00:26.123Z,6,GR86-016-55,-4.3,0.288,-0.032,99.99,2.0,,0.0,0.0,
2025-08-14T23:00:26.166Z,6,GR86-016-55,-4.3,0.277,-0.041,99.98,2.0,5858.0,0.0,0.0,
2025-08-14T23:00:26.209Z,6,GR86-016-55,-4.3,0.273,-0.026,99.98,2.0,,0.0,0.0,98.87
2025-08-14T23:00:26.252Z,6,GR86-016-55,-4.3,0.289,-0.032,99.98,2.0,,0.0,0.0,
2025-08-14T23:00:26.295Z,6,GR86-016-55,-4.3,0.291,-0.026,99.99,2.0,,0.0,0.0,
2025-08-14T23:00:26.338Z,6,GR86-016-55,-4.3,0.287,-0.02,99.99,2.0,,0.0,0.0,
2025-08-14T23:00:26.381Z,6,GR86-016-55,-4.9,0.277,-0.028,99.99,2.0,5938.0,0.0,0.0,
2025-08-14T23:00:26.468Z,6,GR86-016-55,-6.2,0.297,-0.039,99.99,2.0,,0.0,0.0,102.41
2025-08-14T23:00:26.512Z,6,GR86-016-55,-6.9,0.286,-0.036,100.0,2.0,,0.0,0.0,
2025-08-14T23:00:26.555Z,6,GR86-016-55,-7.2,0.268,-0.05,99.99,2.0,,0.0,0.0,
2025-08-14T23:00:26.598Z,6,GR86-016-55,-7.6,0.272,-0.054,99.98,2.0,6044.0,0.0,0.0,
2025-08-14T23:00:26.642Z,6,GR86-016-55,-7.9,0.279,-0.069,99.99,2.0,,0.0,0.0,104.1
2025-08-14T23:00:26.685Z,6,GR86-016-55,-7.9,0.284,-0.073,99.99,2.0,,0.0,0.0,
2025-08-14T23:00:26.728Z,6,GR86-016-55,-7.9,0.288,-0.082,100.0,2.0,,0.0,0.0,
2025-08-14T23:00:26.771Z,6,GR86-016-55,-7.9,0.269,-0.074,99.99,2.0,,0.0,0.0,
2025-08-14T23:00:26.814Z,6,GR86-016-55,-7.800000000000001,0.285,-0.091,100.0,2.0,6124.0,0.0,0.0,
2025-08-14T23:00:26.857Z,6,GR86-016-55,-7.800000000000001,0.287,-0.086,100.03,2.0,,0.0,0.0,105.7
2025-08-14T23:00:26.901Z,6,GR86-016-55,-7.6,0.278,-0.1,100.0,2.0,,0.0,0.0,
2025-08-14T23:00:26.944Z,6,GR86-016-55,-7.5,0.283,-0.092,100.0,2.0,,0.0,0.0,
2025-08-14T23:00:26.987Z,6,GR86-016-55,-7.4,0.273,-0.093,99.98,2.0,,0.0,0.0,
2025-08-14T23:00:27.030Z,6,GR86-016-55,-7.4,0.264,-0.094,100.0,2.0,6314.0,0.0,0.0,
2025-08-14T23:00:27.073Z,6,GR86-016-55,-7.1000000000000005,0.277,-0.089,99.99,2.0,,0.0,0.0,107.23
2025-08-14T23:00:27.116Z,6,GR86-016-55,-6.300000000000001,0.288,-0.091,100.0,2.0,,0.0,0.0,
2025-08-14T23:00:27.159Z,6,GR86-016-55,-5.2,0.289,-0.074,100.0,2.0,,0.0,0.0,
2025-08-14T23:00:27.202Z,6,GR86-016-55,-4.4,0.287,-0.06,100.03,2.0,,0.0,0.0,
2025-08-14T23:00:27.245Z,6,GR86-016-55,-4.3,0.276,-0.044,100.01,2.0,6389.0,0.0,0.0,
2025-08-14T23:00:27.288Z,6,GR86-016-55,-4.3,0.264,-0.029,99.99,2.0,,0.0,0.0,108.78
2025-08-14T23:00:27.331Z,6,GR86-016-55,-4.3,0.282,-0.027,100.0,2.0,,0.0,0.0,
2025-08-14T23:00:27.374Z,6,GR86-016-55,-4.3,0.284,-0.014,99.99,2.0,,0.0,0.0,
2025-08-14T23:00:27.417Z,6,GR86-016-55,-4.3,0.289,-0.004,99.99,2.0,,0.0,0.0,
2025-08-14T23:00:27.460Z,6,GR86-016-55,-4.4,0.289,-0.001,100.0,2.0,6477.0,0.0,0.0,
2025-08-14T23:00:27.503Z,6,GR86-016-55,-4.800000000000001,0.285,0.004,99.99,2.0,,0.0,0.0,110.28
2025-08-14T23:00:27.546Z,6,GR86-016-55,-5.300000000000001,0.263,0.0,100.0,2.0,,0.0,0.0,
2025-08-14T23:00:27.589Z,6,GR86-016-55,-5.4,0.298,-0.004,99.99,2.0,,0.0,0.0,
2025-08-14T23:00:27.632Z,6,GR86-016-55,-5.4,0.293,0.002,99.98,2.0,,0.0,0.0,
2025-08-14T23:00:27.675Z,6,GR86-016-55,-5.4,0.277,-0.004,100.02,2.0,6563.0,0.0,0.0,
2025-08-14T23:00:27.718Z,6,GR86-016-55,-5.4,0.282,-0.014,99.99,2.0,,0.0,0.0,111.76
2025-08-14T23:00:27.761Z,6,GR86-016-55,-5.4,0.295,-0.02,99.99,2.0,,0.0,0.0,
2025-08-14T23:00:27.804Z,6,GR86-016-55,-5.4,0.283,-0.029,100.0,2.0,,0.0,0.0,
2025-08-14T23:00:27.847Z,6,GR86-016-55,-5.4,0.29,-0.025,100.01,2.0,,0.0,0.0,
2025-08-14T23:00:27.890Z,6,GR86-016-55,-5.4,0.274,-0.024,99.99,2.0,6635.0,0.0,0.0,
2025-08-14T23:00:27.933Z,6,GR86-016-55,-5.4,0.256,-0.032,100.0,2.0,,0.0,0.0,113.17
2025-08-14T23:00:27.976Z,6,GR86-016-55,-5.300000000000001,0.277,-0.036,100.01,2.0,,0.0,0.0,
2025-08-14T23:00:28.019Z,6,GR86-016-55,-5.300000000000001,0.296,-0.035,100.0,2.0,,0.0,0.0,
2025-08-14T23:00:28.062Z,6,GR86-016-55,-5.300000000000001,0.293,-0.027,99.98,2.0,,0.0,0.0,
2025-08-14T23:00:28.105Z,6,GR86-016-55,-5.300000000000001,0.263,-0.037,99.99,2.0,6730.0,0.0,0.0,
2025-08-14T23:00:28.148Z,6,GR86-016-55,-5.2,0.262,-0.034,100.0,2.0,,0.0,0.0,114.4
2025-08-14T23:00:28.191Z,6,GR86-016-55,-5.2,0.274,-0.033,100.0,2.0,,0.0,0.0,
2025-08-14T23:00:28.234Z,6,GR86-016-55,-4.800000000000001,0.291,-0.036,99.99,2.0,,0.0,0.0,
2025-08-14T23:00:28.277Z,6,GR86-016-55,-4.1000000000000005,0.296,-0.016,99.99,2.0,,0.0,0.0,
2025-08-14T23:00:28.322Z,6,GR86-016-55,-3.5,0.275,-0.014,100.01,2.0,6811.0,0.0,0.0,
2025-08-14T23:00:28.365Z,6,GR86-016-55,-3.0,0.283,-0.015,99.99,2.0,,0.0,0.0,115.64
2025-08-14T23:00:28.408Z,6,GR86-016-55,-1.6,0.278,-0.002,100.0,2.0,,0.0,0.0,
2025-08-14T23:00:28.451Z,6,GR86-016-55,0.6000000000000001,0.281,0.025,100.0,2.0,,0.0,0.0,
2025-08-14T23:00:28.494Z,6,GR86-016-55,2.2,0.27,0.049,99.99,2.0,,0.0,0.0,
2025-08-14T23:00:28.537Z,6,GR86-016-55,2.3000000000000003,0.262,0.057,99.99,2.0,6879.0,0.0,0.0,
2025-08-14T23:00:28.582Z,6,GR86-016-55,1.4,0.268,0.067,100.01,2.0,,0.0,0.0,116.88
2025-08-14T23:00:28.626Z,6,GR86-016-55,0.7000000000000001,0.275,0.077,99.97,2.0,,0.0,0.0,
2025-08-14T23:00:28.669Z,6,GR86-016-55,0.7000000000000001,0.274,0.084,99.99,2.0,,0.0,0.0,
2025-08-14T23:00:28.755Z,6,GR86-016-55,0.8,0.288,0.123,99.98,2.0,6944.0,0.0,0.0,
2025-08-14T23:00:28.842Z,6,GR86-016-55,1.0,0.275,0.118,100.0,2.0,,0.0,0.0,118.15
2025-08-14T23:00:28.885Z,6,GR86-016-55,0.4,0.264,0.124,100.0,2.0,,0.0,0.0,
2025-08-14T23:00:28.928Z,6,GR86-016-55,0.0,0.29,0.133,99.99,2.0,,0.0,0.0,
2025-08-14T23:00:28.971Z,6,GR86-016-55,-0.6000000000000001,0.286,0.111,99.99,2.0,6997.0,0.0,0.0,
2025-08-14T23:00:29.014Z,6,GR86-016-55,-0.9,0.255,0.103,99.99,2.0,,0.0,0.0,119.36
2025-08-14T23:00:29.057Z,6,GR86-016-55,-1.3,0.26,0.112,100.02,2.0,,0.0,0.0,
2025-08-14T23:00:29.101Z,6,GR86-016-55,-1.4,0.273,0.115,100.02,2.0,,0.0,0.0,
2025-08-14T23:00:29.144Z,6,GR86-016-55,-1.4,0.302,0.1,99.98,2.0,,0.0,0.0,
2025-08-14T23:00:29.187Z,6,GR86-016-55,-1.3,0.175,0.075,100.01,2.0,7073.0,0.0,0.0,
2025-08-14T23:00:29.231Z,6,GR86-016-55,-1.3,-0.042,0.134,99.99,3.0,,0.0,0.0,121.65
2025-08-14T23:00:29.274Z,6,GR86-016-55,-1.3,0.645,0.124,99.98,3.0,,0.0,0.0,
2025-08-14T23:00:29.362Z,6,GR86-016-55,-0.8,0.524,-0.037,99.98,3.0,,0.0,0.0,
2025-08-14T23:00:29.405Z,6,GR86-016-55,0.2,0.099,0.049,99.99,3.0,6849.0,0.0,0.0,
2025-08-14T23:00:29.448Z,6,GR86-016-55,-0.2,0.228,0.062,100.01,3.0,,0.0,0.0,122.63
2025-08-14T23:00:29.491Z,6,GR86-016-55,-1.8,0.233,0.107,99.99,3.0,,0.0,0.0,
2025-08-14T23:00:29.534Z,6,GR86-016-55,-2.3000000000000003,0.238,0.025,100.02,3.0,,0.0,0.0,
