timestamp,lap,vehicle_id,steering_angle,accx_can,accy_can,ath,gear,nmot,pbrake_f,pbrake_r,speed
2025-08-15T00:07:39.653Z,1,GR86-065-5,-6.5,-0.057,0.002,4.87,1.0,2180.0,0.0,0.0,
2025-08-15T00:07:39.697Z,1,GR86-065-5,-7.6,-0.086,-0.02,4.93,1.0,,0.0,0.0,30.19
2025-08-15T00:07:39.741Z,1,GR86-065-5,-8.700000000000001,-0.124,-0.009,4.97,1.0,,0.0,0.0,
2025-08-15T00:07:39.783Z,1,GR86-065-5,-9.2,-0.129,-0.008,4.99,1.0,,0.0,0.0,
2025-08-15T00:07:39.827Z,1,GR86-065-5,-9.5,-0.134,0.004,5.0,1.0,,0.0,0.0,
2025-08-15T00:07:39.870Z,1,GR86-065-5,-9.6,-0.119,-0.006,5.0,1.0,2117.0,0.0,0.0,
2025-08-15T00:07:39.913Z,1,GR86-065-5,-9.6,-0.102,-0.02,5.0,1.0,,0.0,0.0,29.4
2025-08-15T00:07:39.957Z,1,GR86-065-5,-9.6,-0.087,-0.016,5.03,1.0,,0.0,0.0,
2025-08-15T00:07:40.001Z,1,GR86-065-5,-9.6,-0.088,-0.01,5.03,1.0,,0.0,0.0,
2025-08-15T00:07:40.043Z,1,GR86-065-5,-9.6,-0.092,0.011,5.03,1.0,,0.0,0.0,
2025-08-15T00:07:40.087Z,1,GR86-065-5,-9.6,-0.106,0.018,5.03,1.0,2020.0,0.0,0.0,
2025-08-15T00:07:40.129Z,1,GR86-065-5,-9.6,-0.128,0.002,5.03,1.0,,0.0,0.0,27.86
2025-08-15T00:07:40.172Z,1,GR86-065-5,-9.6,-0.118,-0.007,5.03,1.0,,0.0,0.0,
2025-08-15T00:07:40.217Z,1,GR86-065-5,-8.5,-0.098,0.004,5.03,1.0,,0.0,0.0,
2025-08-15T00:07:40.261Z,1,GR86-065-5,-6.7,-0.079,0.004,5.03,1.0,,0.0,0.0,
2025-08-15T00:07:40.304Z,1,GR86-065-5,-5.0,-0.08,0.034,5.04,1.0,2020.0,0.0,0.0,
2025-08-15T00:07:40.348Z,1,GR86-065-5,-3.4000000000000004,-0.091,0.049,5.03,1.0,,0.0,0.0,27.06
2025-08-15T00:07:40.390Z,1,GR86-065-5,-2.0,-0.113,0.049,5.26,1.0,,0.0,0.0,
2025-08-15T00:07:40.433Z,1,GR86-065-5,-0.7000000000000001,-0.109,0.027,5.28,1.0,,0.0,0.0,
2025-08-15T00:07:40.478Z,1,GR86-065-5,0.8,-0.097,0.032,5.32,1.0,,0.0,0.0,
2025-08-15T00:07:40.521Z,1,GR86-065-5,1.1,-0.089,0.03,5.3500000000000005,1.0,1884.0,0.0,0.0,
2025-08-15T00:07:40.564Z,1,GR86-065-5,1.1,-0.099,0.027,5.3500000000000005,1.0,,0.0,0.0,26.3
2025-08-15T00:07:40.607Z,1,GR86-065-5,1.1,-0.091,0.027,5.41,1.0,,0.0,0.0,
2025-08-15T00:07:40.651Z,1,GR86-065-5,1.1,-0.091,0.044,5.54,1.0,,0.0,0.0,
2025-08-15T00:07:40.694Z,1,GR86-065-5,1.1,-0.097,0.03,5.8,1.0,,0.0,0.0,
2025-08-15T00:07:40.737Z,1,GR86-065-5,1.1,-0.096,0.008,5.92,1.0,1842.0,0.0,0.0,
2025-08-15T00:07:40.780Z,1,GR86-065-5,1.1,-0.102,0.014,6.21,1.0,,0.0,0.0,25.6
2025-08-15T00:07:40.823Z,1,GR86-065-5,1.1,-0.118,0.015,6.78,1.0,,0.0,0.0,
2025-08-15T00:07:40.867Z,1,GR86-065-5,1.1,-0.107,0.012,7.17,1.0,,0.0,0.0,
2025-08-15T00:07:40.910Z,1,GR86-065-5,1.1,-0.093,0.025,7.67,1.0,,0.0,0.0,
2025-08-15T00:07:40.953Z,1,GR86-065-5,1.1,-0.086,0.041,8.620000000000001,1.0,1784.0,0.0,0.0,
2025-08-15T00:07:40.997Z,1,GR86-065-5,0.7000000000000001,-0.064,0.004,8.45,1.0,,0.0,0.0,24.88
2025-08-15T00:07:41.039Z,1,GR86-065-5,0.2,-0.037,-0.004,8.46,1.0,,0.0,0.0,
2025-08-15T00:07:41.082Z,1,GR86-065-5,-0.1,-0.037,0.01,8.47,1.0,,0.0,0.0,
2025-08-15T00:07:41.126Z,1,GR86-065-5,-0.1,-0.042,0.001,8.49,1.0,,0.0,0.0,
2025-08-15T00:07:41.211Z,1,GR86-065-5,-0.2,-0.037,-0.002,8.52,1.0,1743.0,0.0,0.0,24.18
2025-08-15T00:07:41.254Z,1,GR86-065-5,-0.2,0.087,0.034,8.52,1.0,,0.0,0.0,
2025-08-15T00:07:41.298Z,1,GR86-065-5,-0.2,0.025,0.015,8.58,1.0,,0.0,0.0,
2025-08-15T00:07:41.340Z,1,GR86-065-5,-0.2,-0.031,-0.001,8.75,1.0,,0.0,0.0,
2025-08-15T00:07:41.383Z,1,GR86-065-5,-0.2,-0.036,0.013,8.92,1.0,1818.0,0.0,0.0,
2025-08-15T00:07:41.427Z,1,GR86-065-5,-0.2,-0.042,0.01,9.08,1.0,,0.0,0.0,23.52
2025-08-15T00:07:41.469Z,1,GR86-065-5,-0.2,-0.038,0.007,9.19,1.0,,0.0,0.0,
2025-08-15T00:07:41.513Z,1,GR86-065-5,-0.4,0.032,0.014,9.14,1.0,,0.0,0.0,
2025-08-15T00:07:41.557Z,1,GR86-065-5,-0.8,0.099,0.025,9.13,1.0,,0.0,0.0,
2025-08-15T00:07:41.600Z,1,GR86-065-5,-1.5,0.076,0.021,9.13,1.0,1641.0,0.0,0.0,
2025-08-15T00:07:41.643Z,1,GR86-065-5,-2.0,0.037,-0.003,9.12,1.0,,0.0,0.0,23.22
2025-08-15T00:07:41.687Z,1,GR86-065-5,-2.1,0.003,0.002,9.15,1.0,,0.0,0.0,
2025-08-15T00:07:41.730Z,1,GR86-065-5,-2.1,-0.003,-0.009,9.12,1.0,,0.0,0.0,
2025-08-15T00:07:41.773Z,1,GR86-065-5,-2.1,0.015,-0.013,9.12,1.0,,0.0,0.0,
2025-08-15T00:07:41.817Z,1,GR86-065-5,-2.2,0.067,0.017,9.09,1.0,1794.0,0.0,0.0,
2025-08-15T00:07:41.861Z,1,GR86-065-5,-2.3000000000000003,0.075,0.03,9.11,1.0,,0.0,0.0,23.28
2025-08-15T00:07:41.904Z,1,GR86-065-5,-2.4000000000000004,0.057,0.022,9.17,1.0,,0.0,0.0,
2025-08-15T00:07:41.948Z,1,GR86-065-5,-2.4000000000000004,0.035,0.004,9.32,1.0,,0.0,0.0,
2025-08-15T00:07:41.991Z,1,GR86-065-5,-2.4000000000000004,0.015,0.006,9.38,1.0,,0.0,0.0,
2025-08-15T00:07:42.034Z,1,GR86-065-5,-2.4000000000000004,0.018,0.006,9.59,1.0,1711.0,0.0,0.0,
2025-08-15T00:07:42.077Z,1,GR86-065-5,-2.4000000000000004,0.039,-0.012,9.67,1.0,,0.0,0.0,23.4
2025-08-15T00:07:42.122Z,1,GR86-065-5,-2.4000000000000004,0.057,-0.002,9.61,1.0,,0.0,0.0,
2025-08-15T00:07:42.164Z,1,GR86-065-5,-2.4000000000000004,0.075,0.025,9.6,1.0,,0.0,0.0,
2025-08-15T00:07:42.207Z,1,GR86-065-5,-2.4000000000000004,0.077,0.032,9.67,1.0,,0.0,0.0,
2025-08-15T00:07:42.251Z,1,GR86-065-5,-2.4000000000000004,0.07,0.004,9.64,1.0,1730.0,0.0,0.0,
2025-08-15T00:07:42.293Z,1,GR86-065-5,-2.4000000000000004,0.049,0.005,9.67,1.0,,0.0,0.0,23.61
2025-08-15T00:07:42.337Z,1,GR86-065-5,-2.4000000000000004,0.036,0.008,9.57,1.0,,0.0,0.0,
2025-08-15T00:07:42.381Z,1,GR86-065-5,-2.4000000000000004,0.04,-0.007,9.51,1.0,,0.0,0.0,
2025-08-15T00:07:42.424Z,1,GR86-065-5,-2.4000000000000004,0.062,0.008,9.39,1.0,,0.0,0.0,
2025-08-15T00:07:42.468Z,1,GR86-065-5,-2.4000000000000004,0.065,0.02,9.36,1.0,1793.0,0.0,0.0,
2025-08-15T00:07:42.510Z,1,GR86-065-5,-2.4000000000000004,0.073,0.025,9.35,1.0,,0.0,0.0,23.91
2025-08-15T00:07:42.553Z,1,GR86-065-5,-2.4000000000000004,0.058,0.012,9.36,1.0,,0.0,0.0,
2025-08-15T00:07:42.597Z,1,GR86-065-5,-2.7,0.044,0.008,9.38,1.0,,0.0,0.0,
2025-08-15T00:07:42.640Z,1,GR86-065-5,-3.3000000000000003,0.042,-0.005,9.35,1.0,,0.0,0.0,
2025-08-15T00:07:42.683Z,1,GR86-065-5,-4.1000000000000005,0.05,-0.009,9.32,1.0,1782.0,0.0,0.0,
2025-08-15T00:07:42.728Z,1,GR86-065-5,-4.9,0.053,0.001,9.25,1.0,,0.0,0.0,24.6
2025-08-15T00:07:42.770Z,1,GR86-065-5,-5.7,0.064,0.012,8.53,1.0,,0.0,0.0,
2025-08-15T00:07:42.813Z,1,GR86-065-5,-6.2,0.056,0.006,8.11,1.0,,0.0,0.0,
2025-08-15T00:07:42.857Z,1,GR86-065-5,-6.300000000000001,0.05,-0.009,7.87,1.0,,0.0,0.0,
2025-08-15T00:07:42.901Z,1,GR86-065-5,-6.300000000000001,0.036,-0.005,7.8,1.0,1825.0,0.0,0.0,
2025-08-15T00:07:42.943Z,1,GR86-065-5,-6.300000000000001,0.033,-0.01,7.62,1.0,,0.0,0.0,25.03
2025-08-15T00:07:42.987Z,1,GR86-065-5,-6.300000000000001,0.026,-0.014,7.27,1.0,,0.0,0.0,
2025-08-15T00:07:43.029Z,1,GR86-065-5,-6.300000000000001,0.024,0.001,7.08,1.0,,0.0,0.0,
2025-08-15T00:07:43.072Z,1,GR86-065-5,-6.300000000000001,0.024,0.027,6.96,1.0,,0.0,0.0,
2025-08-15T00:07:43.118Z,1,GR86-065-5,-6.300000000000001,0.009,0.001,6.45,1.0,1873.0,0.0,0.0,
2025-08-15T00:07:43.161Z,1,GR86-065-5,-6.300000000000001,-0.004,-0.009,6.390000000000001,1.0,,0.0,0.0,25.41
2025-08-15T00:07:43.203Z,1,GR86-065-5,-6.300000000000001,-0.015,-0.002,6.36,1.0,,0.0,0.0,
2025-08-15T00:07:43.247Z,1,GR86-065-5,-6.300000000000001,-0.025,-0.005,6.3100000000000005,1.0,,0.0,0.0,
2025-08-15T00:07:43.333Z,1,GR86-065-5,-6.300000000000001,-0.029,-0.006,6.28,1.0,1883.0,0.0,0.0,
2025-08-15T00:07:43.376Z,1,GR86-065-5,-6.300000000000001,-0.033,-0.001,6.140000000000001,1.0,,0.0,0.0,25.72
2025-08-15T00:07:43.419Z,1,GR86-065-5,-6.300000000000001,-0.026,0.001,6.0600000000000005,1.0,,0.0,0.0,
2025-08-15T00:07:43.461Z,1,GR86-065-5,-6.300000000000001,-0.019,-0.006,6.01,1.0,,0.0,0.0,
2025-08-15T00:07:43.504Z,1,GR86-065-5,-6.300000000000001,-0.013,-0.002,5.98,1.0,,0.0,0.0,
2025-08-15T00:07:43.548Z,1,GR86-065-5,-6.300000000000001,-0.025,-0.008,5.96,1.0,1874.0,0.0,0.0,
2025-08-15T00:07:43.590Z,1,GR86-065-5,-6.300000000000001,-0.033,0.0,5.97,1.0,,0.0,0.0,25.81
2025-08-15T00:07:43.634Z,1,GR86-065-5,-6.300000000000001,-0.041,0.02,5.98,1.0,,0.0,0.0,
2025-08-15T00:07:43.677Z,1,GR86-065-5,-6.300000000000001,-0.042,0.001,6.01,1.0,,0.0,0.0,
2025-08-15T00:07:43.721Z,1,GR86-065-5,-6.300000000000001,-0.035,-0.013,6.03,1.0,,0.0,0.0,
2025-08-15T00:07:43.763Z,1,GR86-065-5,-6.300000000000001,-0.039,-0.002,6.3,1.0,1876.0,0.0,0.0,
2025-08-15T00:07:43.807Z,1,GR86-065-5,-6.300000000000001,-0.047,-0.005,6.7700000000000005,1.0,,0.0,0.0,25.66
2025-08-15T00:07:43.850Z,1,GR86-065-5,-6.300000000000001,-0.041,-0.002,7.28,1.0,,0.0,0.0,
2025-08-15T00:07:43.893Z,1,GR86-065-5,-6.300000000000001,-0.046,0.01,7.9,1.0,,0.0,0.0,
2025-08-15T00:07:43.937Z,1,GR86-065-5,-6.300000000000001,-0.04,0.017,7.85,1.0,,0.0,0.0,
2025-08-15T00:07:43.980Z,1,GR86-065-5,-6.300000000000001,-0.038,0.001,7.87,1.0,1829.0,0.0,0.0,
2025-08-15T00:07:44.023Z,1,GR86-065-5,-6.300000000000001,-0.043,0.009,7.87,1.0,,0.0,0.0,25.49
2025-08-15T00:07:44.067Z,1,GR86-065-5,-6.2,-0.044,0.001,7.86,1.0,,0.0,0.0,
2025-08-15T00:07:44.110Z,1,GR86-065-5,-6.0,-0.042,0.003,7.85,1.0,,0.0,0.0,
2025-08-15T00:07:44.153Z,1,GR86-065-5,-5.800000000000001,-0.04,0.006,7.85,1.0,,0.0,0.0,
2025-08-15T00:07:44.197Z,1,GR86-065-5,-5.4,-0.044,0.023,7.890000000000001,1.0,1799.0,0.0,0.0,
2025-08-15T00:07:44.241Z,1,GR86-065-5,-5.300000000000001,-0.035,0.011,7.890000000000001,1.0,,0.0,0.0,25.2
2025-08-15T00:07:44.284Z,1,GR86-065-5,-5.300000000000001,0.041,0.005,7.85,1.0,,0.0,0.0,
2025-08-15T00:07:44.327Z,1,GR86-065-5,-5.300000000000001,0.048,0.005,7.86,1.0,,0.0,0.0,
2025-08-15T00:07:44.369Z,1,GR86-065-5,-5.300000000000001,0.011,0.011,7.890000000000001,1.0,,0.0,0.0,
2025-08-15T00:07:44.413Z,1,GR86-065-5,-5.300000000000001,-0.051,0.001,7.99,1.0,1840.0,0.0,0.0,
2025-08-15T00:07:44.457Z,1,GR86-065-5,-5.300000000000001,-0.049,0.004,8.0,1.0,,0.0,0.0,24.91
2025-08-15T00:07:44.499Z,1,GR86-065-5,-5.300000000000001,-0.046,0.024,8.09,1.0,,0.0,0.0,
2025-08-15T00:07:44.543Z,1,GR86-065-5,-5.300000000000001,-0.049,0.008,8.09,1.0,,0.0,0.0,
2025-08-15T00:07:44.587Z,1,GR86-065-5,-5.300000000000001,-0.035,-0.002,8.08,1.0,,0.0,0.0,
2025-08-15T00:07:44.630Z,1,GR86-065-5,-5.300000000000001,-0.043,0.018,8.16,1.0,1859.0,0.0,0.0,
2025-08-15T00:07:44.673Z,1,GR86-065-5,-5.300000000000001,-0.042,0.01,8.19,1.0,,0.0,0.0,24.64
2025-08-15T00:07:44.717Z,1,GR86-065-5,-5.300000000000001,0.028,-0.005,8.18,1.0,,0.0,0.0,
2025-08-15T00:07:44.761Z,1,GR86-065-5,-5.300000000000001,0.122,0.012,8.18,1.0,,0.0,0.0,
2025-08-15T00:07:44.804Z,1,GR86-065-5,-5.300000000000001,0.13,0.023,8.17,1.0,,0.0,0.0,
2025-08-15T00:07:44.848Z,1,GR86-065-5,-5.300000000000001,0.058,0.004,8.2,1.0,1737.0,0.0,0.0,
2025-08-15T00:07:44.890Z,1,GR86-065-5,-5.300000000000001,-0.013,0.002,8.24,1.0,,0.0,0.0,24.59
2025-08-15T00:07:44.933Z,1,GR86-065-5,-5.300000000000001,-0.043,0.005,8.3,1.0,,0.0,0.0,
2025-08-15T00:07:44.978Z,1,GR86-065-5,-5.300000000000001,-0.038,-0.003,8.43,1.0,,0.0,0.0,
2025-08-15T00:07:45.021Z,1,GR86-065-5,-5.300000000000001,-0.041,0.006,8.72,1.0,,0.0,0.0,
2025-08-15T00:07:45.063Z,1,GR86-065-5,-5.300000000000001,-0.036,0.01,8.8,1.0,1908.0,0.0,0.0,
2025-08-15T00:07:45.107Z,1,GR86-065-5,-5.300000000000001,0.036,0.02,8.72,1.0,,0.0,0.0,24.36
2025-08-15T00:07:45.151Z,1,GR86-065-5,-5.300000000000001,0.109,0.017,8.700000000000001,1.0,,0.0,0.0,
2025-08-15T00:07:45.194Z,1,GR86-065-5,-5.300000000000001,0.128,-0.001,8.72,1.0,,0.0,0.0,
2025-08-15T00:07:45.237Z,1,GR86-065-5,-5.300000000000001,0.034,0.0,8.75,1.0,,0.0,0.0,
2025-08-15T00:07:45.280Z,1,GR86-065-5,-4.9,-0.026,0.002,8.76,1.0,1703.0,0.0,0.0,
2025-08-15T00:07:45.323Z,1,GR86-065-5,-4.2,-0.04,0.003,8.74,1.0,,0.0,0.0,24.54
2025-08-15T00:07:45.367Z,1,GR86-065-5,-3.8,-0.018,0.02,8.75,1.0,,0.0,0.0,
2025-08-15T00:07:45.409Z,1,GR86-065-5,-3.7,0.036,0.043,8.76,1.0,,0.0,0.0,
2025-08-15T00:07:45.452Z,1,GR86-065-5,-3.7,0.07,0.031,8.75,1.0,,0.0,0.0,
2025-08-15T00:07:45.496Z,1,GR86-065-5,-3.8,0.079,0.012,8.73,1.0,1917.0,0.0,0.0,
2025-08-15T00:07:45.538Z,1,GR86-065-5,-3.7,0.044,0.011,8.73,1.0,,0.0,0.0,24.7
2025-08-15T00:07:45.582Z,1,GR86-065-5,-3.7,0.008,-0.007,8.78,1.0,,0.0,0.0,
2025-08-15T00:07:45.624Z,1,GR86-065-5,-3.7,-0.011,0.005,8.78,1.0,,0.0,0.0,
2025-08-15T00:07:45.668Z,1,GR86-065-5,-3.7,-0.017,0.017,8.84,1.0,,0.0,0.0,
2025-08-15T00:07:45.710Z,1,GR86-065-5,-3.7,0.015,0.034,8.94,1.0,1773.0,0.0,0.0,
2025-08-15T00:07:45.753Z,1,GR86-065-5,-3.7,0.047,0.015,8.93,1.0,,0.0,0.0,24.85
2025-08-15T00:07:45.797Z,1,GR86-065-5,-3.7,0.078,0.009,8.93,1.0,,0.0,0.0,
2025-08-15T00:07:45.839Z,1,GR86-065-5,-3.7,0.058,0.005,8.950000000000001,1.0,,0.0,0.0,
2025-08-15T00:07:45.882Z,1,GR86-065-5,-3.7,0.033,-0.003,8.98,1.0,,0.0,0.0,
2025-08-15T00:07:45.926Z,1,GR86-065-5,-3.7,0.002,-0.005,9.02,1.0,1885.0,0.0,0.0,
2025-08-15T00:07:45.968Z,1,GR86-065-5,-3.7,0.001,0.011,9.1,1.0,,0.0,0.0,25.09
2025-08-15T00:07:46.011Z,1,GR86-065-5,-3.7,0.018,0.024,9.12,1.0,,0.0,0.0,
2025-08-15T00:07:46.054Z,1,GR86-065-5,-3.7,0.041,0.019,9.12,1.0,,0.0,0.0,
2025-08-15T00:07:46.097Z,1,GR86-065-5,-3.7,0.07,-0.005,9.1,1.0,,0.0,0.0,
2025-08-15T00:07:46.140Z,1,GR86-065-5,-3.7,0.057,0.002,9.11,1.0,1835.0,0.0,0.0,
2025-08-15T00:07:46.183Z,1,GR86-065-5,-3.8,0.024,-0.001,9.11,1.0,,0.0,0.0,25.28
2025-08-15T00:07:46.227Z,1,GR86-065-5,-3.8,0.011,0.01,9.14,1.0,,0.0,0.0,
2025-08-15T00:07:46.270Z,1,GR86-065-5,-3.8,0.001,0.027,9.19,1.0,,0.0,0.0,
2025-08-15T00:07:46.313Z,1,GR86-065-5,-3.8,0.016,0.017,9.22,1.0,,0.0,0.0,
2025-08-15T00:07:46.357Z,1,GR86-065-5,-3.8,0.046,0.015,9.22,1.0,1901.0,0.0,0.0,
2025-08-15T00:07:46.401Z,1,GR86-065-5,-3.8,0.052,0.002,9.21,1.0,,0.0,0.0,25.54
2025-08-15T00:07:46.443Z,1,GR86-065-5,-3.8,0.049,-0.007,9.21,1.0,,0.0,0.0,
2025-08-15T00:07:46.487Z,1,GR86-065-5,-3.8,0.032,-0.002,9.22,1.0,,0.0,0.0,
2025-08-15T00:07:46.530Z,1,GR86-065-5,-3.8,0.02,0.02,9.68,1.0,,0.0,0.0,
2025-08-15T00:07:46.573Z,1,GR86-065-5,-3.8,0.02,0.028,10.12,1.0,1921.0,0.0,0.0,
2025-08-15T00:07:46.617Z,1,GR86-065-5,-3.8,0.031,0.008,10.12,1.0,,0.0,0.0,25.84
2025-08-15T00:07:46.661Z,1,GR86-065-5,-3.8,0.043,0.002,10.12,1.0,,0.0,0.0,
2025-08-15T00:07:46.703Z,1,GR86-065-5,-3.8,0.057,0.008,10.11,1.0,,0.0,0.0,
2025-08-15T00:07:46.747Z,1,GR86-065-5,-3.8,0.045,-0.003,10.12,1.0,,0.0,0.0,
2025-08-15T00:07:46.789Z,1,GR86-065-5,-3.8,0.04,0.0,10.15,1.0,1908.0,0.0,0.0,
2025-08-15T00:07:46.832Z,1,GR86-065-5,-3.8,0.041,0.029,11.18,1.0,,0.0,0.0,26.05
2025-08-15T00:07:46.876Z,1,GR86-065-5,-3.8,0.041,0.013,12.5,1.0,,0.0,0.0,
2025-08-15T00:07:46.921Z,1,GR86-065-5,-3.8,0.053,-0.003,12.52,1.0,,0.0,0.0,
2025-08-15T00:07:46.964Z,1,GR86-065-5,-3.8,0.064,0.006,12.62,1.0,,0.0,0.0,
2025-08-15T00:07:47.007Z,1,GR86-065-5,-3.8,0.069,0.004,12.74,1.0,1950.0,0.0,0.0,
2025-08-15T00:07:47.050Z,1,GR86-065-5,-3.8,0.09,0.01,12.81,1.0,,0.0,0.0,26.33
2025-08-15T00:07:47.093Z,1,GR86-065-5,-3.8,0.094,0.012,13.19,1.0,,0.0,0.0,
2025-08-15T00:07:47.137Z,1,GR86-065-5,-3.8,0.085,0.014,13.36,1.0,,0.0,0.0,
2025-08-15T00:07:47.309Z,1,GR86-065-5,-3.8,0.094,-0.003,13.29,1.0,1983.0,0.0,0.0,26.65
2025-08-15T00:07:47.352Z,1,GR86-065-5,-3.9,0.121,0.024,13.19,1.0,,0.0,0.0,
2025-08-15T00:07:47.396Z,1,GR86-065-5,-3.9,0.106,0.014,13.12,1.0,,0.0,0.0,
2025-08-15T00:07:47.481Z,1,GR86-065-5,-3.9,0.097,-0.01,13.06,1.0,2017.0,0.0,0.0,27.01
2025-08-15T00:07:47.524Z,1,GR86-065-5,-4.0,0.095,-0.01,13.0,1.0,,0.0,0.0,
2025-08-15T00:07:47.568Z,1,GR86-065-5,-4.1000000000000005,0.099,-0.006,12.9,1.0,,0.0,0.0,
2025-08-15T00:07:47.611Z,1,GR86-065-5,-4.1000000000000005,0.112,0.011,12.87,1.0,,0.0,0.0,
2025-08-15T00:07:47.653Z,1,GR86-065-5,-4.1000000000000005,0.111,0.019,12.86,1.0,2087.0,0.0,0.0,
2025-08-15T00:07:47.697Z,1,GR86-065-5,-4.1000000000000005,0.095,0.009,12.84,1.0,,0.0,0.0,27.65
2025-08-15T00:07:47.739Z,1,GR86-065-5,-4.1000000000000005,0.08,-0.005,12.87,1.0,,0.0,0.0,
2025-08-15T00:07:47.782Z,1,GR86-065-5,-4.1000000000000005,0.081,-0.008,12.8,1.0,,0.0,0.0,
2025-08-15T00:07:47.826Z,1,GR86-065-5,-4.1000000000000005,0.096,0.002,12.74,1.0,,0.0,0.0,
2025-08-15T00:07:47.870Z,1,GR86-065-5,-4.2,0.116,0.014,12.76,1.0,2134.0,0.0,0.0,
2025-08-15T00:07:47.913Z,1,GR86-065-5,-4.2,0.111,0.005,12.77,1.0,,0.0,0.0,28.48
2025-08-15T00:07:47.957Z,1,GR86-065-5,-4.2,0.089,-0.006,12.78,1.0,,0.0,0.0,
2025-08-15T00:07:48.000Z,1,GR86-065-5,-4.2,0.071,-0.001,12.78,1.0,,0.0,0.0,
2025-08-15T00:07:48.043Z,1,GR86-065-5,-4.2,0.074,-0.001,12.78,1.0,,0.0,0.0,
2025-08-15T00:07:48.087Z,1,GR86-065-5,-4.2,0.097,0.009,12.8,1.0,2173.0,0.0,0.0,
2025-08-15T00:07:48.129Z,1,GR86-065-5,-4.3,0.096,0.014,12.87,1.0,,0.0,0.0,29.98
2025-08-15T00:07:48.172Z,1,GR86-065-5,-4.3,0.092,0.008,12.94,1.0,,0.0,0.0,
2025-08-15T00:07:48.217Z,1,GR86-065-5,-4.4,0.08,-0.016,12.93,1.0,,0.0,0.0,
2025-08-15T00:07:48.262Z,1,GR86-065-5,-4.4,0.082,-0.012,12.9,1.0,,0.0,0.0,
2025-08-15T00:07:48.304Z,1,GR86-065-5,-4.4,0.077,-0.001,12.9,1.0,2238.0,0.0,0.0,
2025-08-15T00:07:48.348Z,1,GR86-065-5,-4.4,0.073,0.018,12.93,1.0,,0.0,0.0,30.7
2025-08-15T00:07:48.391Z,1,GR86-065-5,-4.4,0.079,0.002,12.26,1.0,,0.0,0.0,
2025-08-15T00:07:48.434Z,1,GR86-065-5,-4.4,0.076,0.003,11.48,1.0,,0.0,0.0,
2025-08-15T00:07:48.477Z,1,GR86-065-5,-4.4,0.09,-0.009,11.0,1.0,,0.0,0.0,
2025-08-15T00:07:48.522Z,1,GR86-065-5,-4.4,0.083,-0.006,10.06,1.0,2333.0,0.0,0.0,
2025-08-15T00:07:48.564Z,1,GR86-065-5,-4.4,0.066,0.013,10.05,1.0,,0.0,0.0,31.38
2025-08-15T00:07:48.607Z,1,GR86-065-5,-4.4,0.062,0.013,9.59,1.0,,0.0,0.0,
2025-08-15T00:07:48.650Z,1,GR86-065-5,-4.4,0.05,0.002,8.120000000000001,1.0,,0.0,0.0,
2025-08-15T00:07:48.694Z,1,GR86-065-5,-4.4,0.04,-0.012,8.08,1.0,,0.0,0.0,
2025-08-15T00:07:48.737Z,1,GR86-065-5,-4.4,0.036,-0.002,8.05,1.0,2385.0,0.0,0.0,
2025-08-15T00:07:48.780Z,1,GR86-065-5,-4.4,0.026,0.019,7.98,1.0,,0.0,0.0,32.02
2025-08-15T00:07:48.823Z,1,GR86-065-5,-4.4,0.012,0.016,7.98,1.0,,0.0,0.0,
2025-08-15T00:07:48.867Z,1,GR86-065-5,-4.4,-0.008,0.002,7.930000000000001,1.0,,0.0,0.0,
2025-08-15T00:07:48.910Z,1,GR86-065-5,-4.4,-0.023,-0.001,7.890000000000001,1.0,,0.0,0.0,
2025-08-15T00:07:48.953Z,1,GR86-065-5,-4.4,-0.029,0.001,7.78,1.0,2408.0,0.0,0.0,
2025-08-15T00:07:48.997Z,1,GR86-065-5,-4.4,-0.012,0.019,7.58,1.0,,0.0,0.0,32.6
2025-08-15T00:07:49.040Z,1,GR86-065-5,-4.4,0.006,0.009,7.33,1.0,,0.0,0.0,
2025-08-15T00:07:49.082Z,1,GR86-065-5,-4.4,0.012,0.01,7.13,1.0,,0.0,0.0,
2025-08-15T00:07:49.126Z,1,GR86-065-5,-4.4,0.003,0.009,7.08,1.0,,0.0,0.0,
2025-08-15T00:07:49.170Z,1,GR86-065-5,-4.4,-0.016,0.019,7.01,1.0,2395.0,0.0,0.0,
2025-08-15T00:07:49.213Z,1,GR86-065-5,-4.4,-0.023,0.024,7.0,1.0,,0.0,0.0,32.96
2025-08-15T00:07:49.257Z,1,GR86-065-5,-4.4,-0.042,0.022,7.0,1.0,,0.0,0.0,
2025-08-15T00:07:49.300Z,1,GR86-065-5,-4.4,-0.039,0.008,7.0,1.0,,0.0,0.0,
2025-08-15T00:07:49.342Z,1,GR86-065-5,-4.4,-0.04,0.01,7.03,1.0,,0.0,0.0,
2025-08-15T00:07:49.386Z,1,GR86-065-5,-4.4,-0.033,0.028,7.05,1.0,2409.0,0.0,0.0,
2025-08-15T00:07:49.428Z,1,GR86-065-5,-4.4,-0.041,0.037,7.16,1.0,,0.0,0.0,32.95
2025-08-15T00:07:49.471Z,1,GR86-065-5,-4.4,-0.038,0.045,7.51,1.0,,0.0,0.0,
2025-08-15T00:07:49.514Z,1,GR86-065-5,-4.4,-0.04,0.032,7.57,1.0,,0.0,0.0,
2025-08-15T00:07:49.557Z,1,GR86-065-5,-4.4,-0.045,0.004,7.61,1.0,,0.0,0.0,
2025-08-15T00:07:49.601Z,1,GR86-065-5,-4.4,-0.039,0.009,7.61,1.0,2394.0,0.0,0.0,
2025-08-15T00:07:49.643Z,1,GR86-065-5,-4.4,-0.04,0.028,7.640000000000001,1.0,,0.0,0.0,32.92
2025-08-15T00:07:49.687Z,1,GR86-065-5,-4.4,-0.045,0.035,7.8,1.0,,0.0,0.0,
2025-08-15T00:07:49.730Z,1,GR86-065-5,-4.4,-0.04,0.021,7.82,1.0,,0.0,0.0,
2025-08-15T00:07:49.773Z,1,GR86-065-5,-4.4,-0.046,0.014,7.9,1.0,,0.0,0.0,
2025-08-15T00:07:49.817Z,1,GR86-065-5,-4.4,-0.047,0.023,8.02,1.0,2358.0,0.0,0.0,
2025-08-15T00:07:49.861Z,1,GR86-065-5,-4.4,-0.05,0.022,8.02,1.0,,0.0,0.0,32.71
2025-08-15T00:07:49.904Z,1,GR86-065-5,-4.4,-0.042,0.035,8.2,1.0,,0.0,0.0,
2025-08-15T00:07:49.948Z,1,GR86-065-5,-4.4,-0.044,0.025,8.44,1.0,,0.0,0.0,
2025-08-15T00:07:49.990Z,1,GR86-065-5,-4.4,-0.045,0.012,8.8,1.0,,0.0,0.0,
2025-08-15T00:07:50.033Z,1,GR86-065-5,-4.4,-0.045,-0.004,10.08,1.0,2312.0,0.0,0.0,
2025-08-15T00:07:50.078Z,1,GR86-065-5,-4.4,-0.045,0.017,10.31,1.0,,0.0,0.0,32.480000000000004
2025-08-15T00:07:50.121Z,1,GR86-065-5,-4.4,-0.011,0.036,10.34,1.0,,0.0,0.0,
2025-08-15T00:07:50.164Z,1,GR86-065-5,-4.4,0.079,0.031,10.34,1.0,,0.0,0.0,
2025-08-15T00:07:50.207Z,1,GR86-065-5,-4.4,0.083,0.01,10.4,1.0,,0.0,0.0,
2025-08-15T00:07:50.251Z,1,GR86-065-5,-4.4,0.021,0.008,10.78,1.0,2364.0,0.0,0.0,
2025-08-15T00:07:50.294Z,1,GR86-065-5,-4.4,-0.044,0.012,11.0,1.0,,0.0,0.0,32.24
2025-08-15T00:07:50.337Z,1,GR86-065-5,-4.4,-0.05,0.034,11.03,1.0,,0.0,0.0,
2025-08-15T00:07:50.380Z,1,GR86-065-5,-4.4,-0.049,0.022,11.0,1.0,,0.0,0.0,
2025-08-15T00:07:50.423Z,1,GR86-065-5,-4.4,-0.04,0.009,11.0,1.0,,0.0,0.0,
2025-08-15T00:07:50.467Z,1,GR86-065-5,-4.4,-0.042,-0.001,10.96,1.0,2449.0,0.0,0.0,
2025-08-15T00:07:50.510Z,1,GR86-065-5,-4.4,0.053,0.008,9.44,1.0,,0.0,0.0,31.98
2025-08-15T00:07:50.553Z,1,GR86-065-5,-4.4,0.147,0.016,9.13,1.0,,0.0,0.0,
2025-08-15T00:07:50.597Z,1,GR86-065-5,-4.4,0.144,0.027,9.58,1.0,,0.0,0.0,
2025-08-15T00:07:50.639Z,1,GR86-065-5,-4.4,0.049,0.018,10.05,1.0,,0.0,0.0,
2025-08-15T00:07:50.682Z,1,GR86-065-5,-4.4,-0.04,0.0,10.57,1.0,2265.0,0.0,0.0,
2025-08-15T00:07:50.726Z,1,GR86-065-5,-4.4,-0.036,-0.011,10.59,1.0,,0.0,0.0,31.96
2025-08-15T00:07:50.768Z,1,GR86-065-5,-4.4,-0.05,0.002,10.59,1.0,,0.0,0.0,
2025-08-15T00:07:50.811Z,1,GR86-065-5,-4.4,-0.041,0.028,10.65,1.0,,0.0,0.0,
2025-08-15T00:07:50.854Z,1,GR86-065-5,-4.4,-0.008,0.029,10.47,1.0,,0.0,0.0,
2025-08-15T00:07:50.897Z,1,GR86-065-5,-4.4,0.109,0.001,9.86,1.0,2492.0,0.0,0.0,
2025-08-15T00:07:50.940Z,1,GR86-065-5,-4.4,0.116,-0.001,9.83,1.0,,0.0,0.0,32.25
2025-08-15T00:07:50.983Z,1,GR86-065-5,-4.4,0.054,0.002,9.87,1.0,,0.0,0.0,
2025-08-15T00:07:51.027Z,1,GR86-065-5,-4.4,0.003,0.018,9.95,1.0,,0.0,0.0,
2025-08-15T00:07:51.070Z,1,GR86-065-5,-4.4,-0.043,0.023,10.24,1.0,,0.0,0.0,
2025-08-15T00:07:51.113Z,1,GR86-065-5,-4.4,-0.034,0.01,10.28,1.0,2298.0,0.0,0.0,
2025-08-15T00:07:51.157Z,1,GR86-065-5,-4.4,0.02,-0.005,10.3,1.0,,0.0,0.0,32.45
2025-08-15T00:07:51.201Z,1,GR86-065-5,-4.4,0.048,0.008,10.24,1.0,,0.0,0.0,
2025-08-15T00:07:51.244Z,1,GR86-065-5,-4.4,0.067,0.016,10.08,1.0,,0.0,0.0,
2025-08-15T00:07:51.287Z,1,GR86-065-5,-4.4,0.048,0.014,10.12,1.0,,0.0,0.0,
2025-08-15T00:07:51.330Z,1,GR86-065-5,-4.4,0.013,0.005,10.21,1.0,2412.0,0.0,0.0,
2025-08-15T00:07:51.373Z,1,GR86-065-5,-4.4,-0.017,0.002,10.56,1.0,,0.0,0.0,32.77
2025-08-15T00:07:51.417Z,1,GR86-065-5,-4.4,-0.007,-0.001,10.69,1.0,,0.0,0.0,
2025-08-15T00:07:51.461Z,1,GR86-065-5,-4.4,0.028,0.02,10.69,1.0,,0.0,0.0,
2025-08-15T00:07:51.504Z,1,GR86-065-5,-4.4,0.048,0.02,10.69,1.0,,0.0,0.0,
2025-08-15T00:07:51.548Z,1,GR86-065-5,-4.4,0.059,0.009,10.68,1.0,2383.0,0.0,0.0,
2025-08-15T00:07:51.591Z,1,GR86-065-5,-4.4,0.039,-0.011,10.69,1.0,,0.0,0.0,32.9
2025-08-15T00:07:51.634Z,1,GR86-065-5,-4.4,0.017,0.0,10.72,1.0,,0.0,0.0,
2025-08-15T00:07:51.677Z,1,GR86-065-5,-4.4,0.002,0.01,10.78,1.0,,0.0,0.0,
2025-08-15T00:07:51.721Z,1,GR86-065-5,-4.4,0.015,0.023,10.85,1.0,,0.0,0.0,
2025-08-15T00:07:51.764Z,1,GR86-065-5,-4.4,0.046,0.023,10.84,1.0,2463.0,0.0,0.0,
2025-08-15T00:07:51.807Z,1,GR86-065-5,-4.4,0.056,0.006,10.81,1.0,,0.0,0.0,33.1
2025-08-15T00:07:51.850Z,1,GR86-065-5,-4.4,0.05,-0.013,10.81,1.0,,0.0,0.0,
2025-08-15T00:07:51.893Z,1,GR86-065-5,-4.4,0.042,-0.005,10.78,1.0,,0.0,0.0,
2025-08-15T00:07:51.937Z,1,GR86-065-5,-4.4,0.02,0.007,10.88,1.0,,0.0,0.0,
2025-08-15T00:07:51.980Z,1,GR86-065-5,-4.4,0.015,0.012,10.93,1.0,2468.0,0.0,0.0,
2025-08-15T00:07:52.023Z,1,GR86-065-5,-4.4,0.029,0.012,10.97,1.0,,0.0,0.0,33.32
2025-08-15T00:07:52.067Z,1,GR86-065-5,-4.4,0.039,0.011,10.94,1.0,,0.0,0.0,
2025-08-15T00:07:52.109Z,1,GR86-065-5,-4.4,0.05,0.018,10.91,1.0,,0.0,0.0,
2025-08-15T00:07:52.152Z,1,GR86-065-5,-4.4,0.051,0.021,10.96,1.0,,0.0,0.0,
2025-08-15T00:07:52.196Z,1,GR86-065-5,-4.4,0.033,0.009,11.0,1.0,2465.0,0.0,0.0,
2025-08-15T00:07:52.238Z,1,GR86-065-5,-4.4,0.022,-0.017,11.01,1.0,,0.0,0.0,33.54
2025-08-15T00:07:52.282Z,1,GR86-065-5,-4.4,0.016,-0.011,10.93,1.0,,0.0,0.0,
2025-08-15T00:07:52.324Z,1,GR86-065-5,-4.4,0.035,0.024,10.69,1.0,,0.0,0.0,
2025-08-15T00:07:52.368Z,1,GR86-065-5,-4.4,0.031,0.036,10.7,1.0,,0.0,0.0,
2025-08-15T00:07:52.410Z,1,GR86-065-5,-4.4,0.049,0.011,10.68,1.0,2504.0,0.0,0.0,
2025-08-15T00:07:52.453Z,1,GR86-065-5,-4.4,0.045,0.002,10.69,1.0,,0.0,0.0,33.85
2025-08-15T00:07:52.497Z,1,GR86-065-5,-4.4,0.018,0.007,10.69,1.0,,0.0,0.0,
2025-08-15T00:07:52.539Z,1,GR86-065-5,-4.4,0.021,0.003,10.69,1.0,,0.0,0.0,
2025-08-15T00:07:52.582Z,1,GR86-065-5,-4.4,0.017,-0.005,10.69,1.0,,0.0,0.0,
2025-08-15T00:07:52.626Z,1,GR86-065-5,-4.4,0.027,-0.01,10.62,1.0,2531.0,0.0,0.0,
2025-08-15T00:07:52.670Z,1,GR86-065-5,-4.4,0.027,-0.017,10.31,1.0,,0.0,0.0,34.19
2025-08-15T00:07:52.713Z,1,GR86-065-5,-4.4,0.026,-0.002,10.02,1.0,,0.0,0.0,
2025-08-15T00:07:52.757Z,1,GR86-065-5,-4.4,0.025,0.045,10.18,1.0,,0.0,0.0,
2025-08-15T00:07:52.800Z,1,GR86-065-5,-4.4,0.02,0.027,10.5,1.0,,0.0,0.0,
2025-08-15T00:07:52.844Z,1,GR86-065-5,-4.4,0.002,-0.002,10.53,1.0,2527.0,0.0,0.0,
2025-08-15T00:07:52.887Z,1,GR86-065-5,-4.4,-0.013,-0.027,10.52,1.0,,0.0,0.0,34.42
2025-08-15T00:07:52.930Z,1,GR86-065-5,-4.4,-0.014,-0.012,10.4,1.0,,0.0,0.0,
2025-08-15T00:07:52.973Z,1,GR86-065-5,-4.4,-0.002,0.009,10.18,1.0,,0.0,0.0,
2025-08-15T00:07:53.017Z,1,GR86-065-5,-4.4,-0.005,0.023,10.24,1.0,,0.0,0.0,
2025-08-15T00:07:53.061Z,1,GR86-065-5,-4.4,0.012,0.006,10.38,1.0,2553.0,0.0,0.0,
2025-08-15T00:07:53.103Z,1,GR86-065-5,-4.4,0.02,0.012,10.43,1.0,,0.0,0.0,34.68
2025-08-15T00:07:53.147Z,1,GR86-065-5,-4.4,0.021,0.005,10.43,1.0,,0.0,0.0,
2025-08-15T00:07:53.189Z,1,GR86-065-5,-4.4,0.015,0.017,10.43,1.0,,0.0,0.0,
2025-08-15T00:07:53.232Z,1,GR86-065-5,-4.4,0.014,0.01,10.41,1.0,,0.0,0.0,
2025-08-15T00:07:53.276Z,1,GR86-065-5,-4.4,-0.003,-0.005,10.43,1.0,2544.0,0.0,0.0,
2025-08-15T00:07:53.319Z,1,GR86-065-5,-4.4,-0.008,0.007,10.53,1.0,,0.0,0.0,34.9
2025-08-15T00:07:53.361Z,1,GR86-065-5,-4.4,-0.003,0.001,10.5,1.0,,0.0,0.0,
2025-08-15T00:07:53.404Z,1,GR86-065-5,-4.4,-0.003,0.015,8.96,1.0,,0.0,0.0,
2025-08-15T00:07:53.448Z,1,GR86-065-5,-4.4,0.001,0.016,8.07,1.0,,0.0,0.0,
2025-08-15T00:07:53.491Z,1,GR86-065-5,-4.4,0.005,0.009,7.05,1.0,2576.0,0.0,0.0,
2025-08-15T00:07:53.534Z,1,GR86-065-5,-4.4,0.01,-0.005,6.7700000000000005,1.0,,0.0,0.0,34.97
2025-08-15T00:07:53.577Z,1,GR86-065-5,-4.4,0.006,0.016,3.99,1.0,,0.0,0.0,
2025-08-15T00:07:53.621Z,1,GR86-065-5,-4.4,0.0,0.009,3.64,1.0,,0.0,0.0,
2025-08-15T00:07:53.664Z,1,GR86-065-5,-4.4,-0.021,0.007,3.16,1.0,,0.0,0.0,
2025-08-15T00:07:53.707Z,1,GR86-065-5,-4.4,-0.032,0.003,2.97,1.0,2563.0,0.0,0.0,
2025-08-15T00:07:53.750Z,1,GR86-065-5,-4.4,-0.048,0.017,2.91,1.0,,0.0,0.0,35.04
2025-08-15T00:07:53.793Z,1,GR86-065-5,-4.4,-0.042,0.006,2.81,1.0,,0.0,0.0,
2025-08-15T00:07:53.837Z,1,GR86-065-5,-4.4,-0.112,0.017,2.72,1.0,,0.0,0.0,
2025-08-15T00:07:53.880Z,1,GR86-065-5,-4.4,-0.242,-0.007,2.67,1.0,,0.0,0.0,
2025-08-15T00:07:53.923Z,1,GR86-065-5,-4.4,-0.261,0.004,2.64,1.0,2490.0,0.0,0.0,
2025-08-15T00:07:53.967Z,1,GR86-065-5,-4.4,-0.192,0.001,2.61,1.0,,0.0,0.0,35.1
2025-08-15T00:07:54.010Z,1,GR86-065-5,-4.4,-0.096,0.018,2.6,1.0,,0.0,0.0,
2025-08-15T00:07:54.053Z,1,GR86-065-5,-4.4,-0.033,0.016,2.59,1.0,,0.0,0.0,
2025-08-15T00:07:54.097Z,1,GR86-065-5,-4.4,-0.042,0.001,2.58,1.0,,0.0,0.0,
2025-08-15T00:07:54.140Z,1,GR86-065-5,-4.4,-0.06,0.001,2.5500000000000003,1.0,2431.0,0.0,0.0,
2025-08-15T00:07:54.182Z,1,GR86-065-5,-4.4,-0.126,0.01,2.5500000000000003,1.0,,0.0,0.0,34.95
2025-08-15T00:07:54.226Z,1,GR86-065-5,-4.4,-0.182,0.031,2.53,1.0,,0.0,0.0,
2025-08-15T00:07:54.268Z,1,GR86-065-5,-4.4,-0.191,0.025,2.53,1.0,,0.0,0.0,
2025-08-15T00:07:54.311Z,1,GR86-065-5,-4.4,-0.155,0.01,2.52,1.0,,0.0,0.0,
2025-08-15T00:07:54.354Z,1,GR86-065-5,-4.4,-0.112,0.008,2.51,1.0,2427.0,0.0,0.0,
2025-08-15T00:07:54.397Z,1,GR86-065-5,-4.4,-0.079,0.003,2.53,1.0,,0.0,0.0,33.980000000000004
2025-08-15T00:07:54.441Z,1,GR86-065-5,-4.4,-0.077,0.027,2.52,1.0,,0.0,0.0,
2025-08-15T00:07:54.483Z,1,GR86-065-5,-4.4,-0.107,0.023,2.5,1.0,,0.0,0.0,
2025-08-15T00:07:54.527Z,1,GR86-065-5,-4.4,-0.135,0.017,2.5,1.0,,0.0,0.0,
2025-08-15T00:07:54.570Z,1,GR86-065-5,-4.4,-0.152,0.0,2.49,1.0,2414.0,0.0,0.0,
2025-08-15T00:07:54.613Z,1,GR86-065-5,-4.4,-0.147,0.01,2.49,1.0,,0.0,0.0,33.31
2025-08-15T00:07:54.657Z,1,GR86-065-5,-4.4,-0.117,0.023,2.49,1.0,,0.0,0.0,
2025-08-15T00:07:54.700Z,1,GR86-065-5,-4.4,-0.093,0.031,2.48,1.0,,0.0,0.0,
2025-08-15T00:07:54.744Z,1,GR86-065-5,-4.4,-0.088,0.02,2.49,1.0,,0.0,0.0,
2025-08-15T00:07:54.787Z,1,GR86-065-5,-4.4,-0.105,-0.005,2.48,1.0,2296.0,0.0,0.0,
2025-08-15T00:07:54.830Z,1,GR86-065-5,-4.4,-0.13,-0.019,2.49,1.0,,0.0,0.0,32.45
2025-08-15T00:07:54.874Z,1,GR86-065-5,-4.4,-0.141,0.003,2.48,1.0,,0.0,0.0,
2025-08-15T00:07:54.917Z,1,GR86-065-5,-4.4,-0.13,0.038,2.47,1.0,,0.0,0.0,
2025-08-15T00:07:54.961Z,1,GR86-065-5,-4.4,-0.108,0.04,2.47,1.0,,0.0,0.0,
2025-08-15T00:07:55.004Z,1,GR86-065-5,-4.4,-0.098,0.033,2.47,1.0,2295.0,0.0,0.0,
2025-08-15T00:07:55.048Z,1,GR86-065-5,-4.4,-0.102,0.015,2.47,1.0,,0.0,0.0,31.7
2025-08-15T00:07:55.090Z,1,GR86-065-5,-4.4,-0.118,0.002,2.47,1.0,,0.0,0.0,
2025-08-15T00:07:55.133Z,1,GR86-065-5,-4.4,-0.125,0.007,2.48,1.0,,0.0,0.0,
2025-08-15T00:07:55.178Z,1,GR86-065-5,-4.4,-0.115,0.032,2.47,1.0,,0.0,0.0,
2025-08-15T00:07:55.221Z,1,GR86-065-5,-4.4,-0.113,0.022,2.46,1.0,2220.0,0.0,0.0,
2025-08-15T00:07:55.264Z,1,GR86-065-5,-4.4,-0.117,0.021,2.46,1.0,,0.0,0.0,30.96
2025-08-15T00:07:55.307Z,1,GR86-065-5,-4.4,-0.11,0.012,2.47,1.0,,0.0,0.0,
2025-08-15T00:07:55.351Z,1,GR86-065-5,-4.4,-0.116,0.027,2.47,1.0,,0.0,0.0,
2025-08-15T00:07:55.394Z,1,GR86-065-5,-4.4,-0.119,0.019,2.46,1.0,,0.0,0.0,
2025-08-15T00:07:55.437Z,1,GR86-065-5,-4.4,-0.111,0.029,2.47,1.0,2152.0,0.0,0.0,
2025-08-15T00:07:55.480Z,1,GR86-065-5,-4.4,-0.112,0.023,2.47,1.0,,0.0,0.0,30.17
2025-08-15T00:07:55.523Z,1,GR86-065-5,-4.4,-0.114,0.017,2.47,1.0,,0.0,0.0,
2025-08-15T00:07:55.567Z,1,GR86-065-5,-4.4,-0.116,0.012,2.47,1.0,,0.0,0.0,
2025-08-15T00:07:55.610Z,1,GR86-065-5,-4.4,-0.12,0.018,2.47,1.0,,0.0,0.0,
2025-08-15T00:07:55.653Z,1,GR86-065-5,-4.4,-0.107,0.026,2.47,1.0,2104.0,0.0,0.0,
2025-08-15T00:07:55.697Z,1,GR86-065-5,-4.4,-0.104,0.028,2.47,1.0,,0.0,0.0,29.4
2025-08-15T00:07:55.740Z,1,GR86-065-5,-4.4,-0.109,0.024,2.47,1.0,,0.0,0.0,
2025-08-15T00:07:55.782Z,1,GR86-065-5,-4.4,-0.122,0.019,2.47,1.0,,0.0,0.0,
2025-08-15T00:07:55.826Z,1,GR86-065-5,-4.4,-0.118,0.011,2.48,1.0,,0.0,0.0,
2025-08-15T00:07:55.868Z,1,GR86-065-5,-4.4,-0.113,0.011,2.47,1.0,2049.0,0.0,0.0,
2025-08-15T00:07:55.911Z,1,GR86-065-5,-4.4,-0.111,0.018,2.47,1.0,,0.0,0.0,28.65
2025-08-15T00:07:55.954Z,1,GR86-065-5,-4.4,-0.106,0.026,2.46,1.0,,0.0,0.0,
2025-08-15T00:07:55.997Z,1,GR86-065-5,-4.4,-0.109,0.022,2.47,1.0,,0.0,0.0,
2025-08-15T00:07:56.040Z,1,GR86-065-5,-4.4,-0.11,0.019,2.47,1.0,,0.0,0.0,
2025-08-15T00:07:56.083Z,1,GR86-065-5,-4.4,-0.107,0.025,2.46,1.0,1997.0,0.0,0.0,
2025-08-15T00:07:56.127Z,1,GR86-065-5,-4.4,-0.106,0.017,2.48,1.0,,0.0,0.0,27.23
2025-08-15T00:07:56.169Z,1,GR86-065-5,-4.4,-0.114,0.005,2.48,1.0,,0.0,0.0,
2025-08-15T00:07:56.212Z,1,GR86-065-5,-4.4,-0.11,0.002,2.47,1.0,,0.0,0.0,
2025-08-15T00:07:56.256Z,1,GR86-065-5,-4.4,-0.105,0.032,2.46,1.0,,0.0,0.0,
2025-08-15T00:07:56.299Z,1,GR86-065-5,-4.4,-0.106,0.018,2.46,1.0,1954.0,0.0,0.0,
2025-08-15T00:07:56.343Z,1,GR86-065-5,-4.4,-0.105,0.009,2.46,1.0,,0.0,0.0,26.54
2025-08-15T00:07:56.386Z,1,GR86-065-5,-4.4,-0.109,0.008,2.47,1.0,,0.0,0.0,
2025-08-15T00:07:56.428Z,1,GR86-065-5,-4.4,-0.119,0.018,2.46,1.0,,0.0,0.0,
2025-08-15T00:07:56.471Z,1,GR86-065-5,-4.4,-0.121,0.028,2.46,1.0,,0.0,0.0,
2025-08-15T00:07:56.514Z,1,GR86-065-5,-4.4,-0.116,0.018,2.47,1.0,1903.0,0.0,0.0,
2025-08-15T00:07:56.557Z,1,GR86-065-5,-4.4,-0.108,0.015,2.47,1.0,,0.0,0.0,25.86
2025-08-15T00:07:56.600Z,1,GR86-065-5,-4.4,-0.112,0.012,2.47,1.0,,0.0,0.0,
2025-08-15T00:07:56.643Z,1,GR86-065-5,-4.4,-0.109,0.024,2.47,1.0,,0.0,0.0,
2025-08-15T00:07:56.687Z,1,GR86-065-5,-4.4,-0.108,0.008,2.47,1.0,,0.0,0.0,
2025-08-15T00:07:56.730Z,1,GR86-065-5,-4.4,-0.11,0.003,2.48,1.0,1804.0,0.0,0.0,
2025-08-15T00:07:56.773Z,1,GR86-065-5,-4.4,-0.113,0.013,2.47,1.0,,0.0,0.0,25.18
2025-08-15T00:07:56.817Z,1,GR86-065-5,-4.4,-0.116,0.031,2.47,1.0,,0.0,0.0,
2025-08-15T00:07:56.861Z,1,GR86-065-5,-4.4,-0.111,0.032,2.47,1.0,,0.0,0.0,
2025-08-15T00:07:56.903Z,1,GR86-065-5,-4.4,-0.109,0.013,2.48,1.0,,0.0,0.0,
2025-08-15T00:07:56.947Z,1,GR86-065-5,-4.4,-0.105,0.012,2.46,1.0,1752.0,0.0,0.0,
2025-08-15T00:07:56.989Z,1,GR86-065-5,-4.4,-0.096,0.011,2.47,1.0,,0.0,0.0,24.49
2025-08-15T00:07:57.032Z,1,GR86-065-5,-4.4,-0.107,0.007,2.47,1.0,,0.0,0.0,
2025-08-15T00:07:57.077Z,1,GR86-065-5,-4.4,-0.11,0.02,2.48,1.0,,0.0,0.0,
2025-08-15T00:07:57.122Z,1,GR86-065-5,-4.4,-0.111,0.022,2.48,1.0,,0.0,0.0,
2025-08-15T00:07:57.164Z,1,GR86-065-5,-4.4,-0.117,0.024,2.48,1.0,1708.0,0.0,0.0,
2025-08-15T00:07:57.207Z,1,GR86-065-5,-4.4,-0.112,0.02,2.48,1.0,,0.0,0.0,23.83
2025-08-15T00:07:57.251Z,1,GR86-065-5,-4.4,-0.11,0.02,2.48,1.0,,0.0,0.0,
2025-08-15T00:07:57.293Z,1,GR86-065-5,-4.4,-0.106,0.019,2.49,1.0,,0.0,0.0,
2025-08-15T00:07:57.337Z,1,GR86-065-5,-4.4,-0.104,0.006,2.48,1.0,,0.0,0.0,
2025-08-15T00:07:57.380Z,1,GR86-065-5,-4.4,-0.105,0.011,2.48,1.0,1653.0,0.0,0.0,
2025-08-15T00:07:57.423Z,1,GR86-065-5,-4.4,-0.1,0.037,2.49,1.0,,0.0,0.0,23.15
2025-08-15T00:07:57.467Z,1,GR86-065-5,-4.4,-0.103,0.025,2.5,1.0,,0.0,0.0,
2025-08-15T00:07:57.509Z,1,GR86-065-5,-4.4,-0.099,0.022,2.5,1.0,,0.0,0.0,
2025-08-15T00:07:57.552Z,1,GR86-065-5,-4.4,-0.098,0.008,2.51,1.0,,0.0,0.0,
2025-08-15T00:07:57.596Z,1,GR86-065-5,-4.4,-0.099,0.017,2.52,1.0,1613.0,0.0,0.0,
2025-08-15T00:07:57.638Z,1,GR86-065-5,-4.4,-0.102,0.01,2.52,1.0,,0.0,0.0,22.48
2025-08-15T00:07:57.681Z,1,GR86-065-5,-4.4,-0.105,0.002,2.52,1.0,,0.0,0.0,
2025-08-15T00:07:57.724Z,1,GR86-065-5,-4.4,-0.107,0.018,2.56,1.0,,0.0,0.0,
2025-08-15T00:07:57.768Z,1,GR86-065-5,-4.4,-0.095,0.023,2.5500000000000003,1.0,,0.0,0.0,
2025-08-15T00:07:57.810Z,1,GR86-065-5,-4.4,-0.093,0.023,2.58,1.0,1565.0,0.0,0.0,
2025-08-15T00:07:57.853Z,1,GR86-065-5,-4.4,-0.087,0.029,2.6,1.0,,0.0,0.0,21.83
2025-08-15T00:07:57.897Z,1,GR86-065-5,-4.4,-0.091,0.026,2.65,1.0,,0.0,0.0,
2025-08-15T00:07:57.939Z,1,GR86-065-5,-4.4,-0.106,0.012,2.68,1.0,,0.0,0.0,
2025-08-15T00:07:57.982Z,1,GR86-065-5,-4.4,-0.097,0.014,2.69,1.0,,0.0,0.0,
2025-08-15T00:07:58.026Z,1,GR86-065-5,-4.4,-0.093,0.006,2.73,1.0,1516.0,0.0,0.0,
2025-08-15T00:07:58.070Z,1,GR86-065-5,-4.4,-0.096,0.01,2.74,1.0,,0.0,0.0,21.2
2025-08-15T00:07:58.113Z,1,GR86-065-5,-4.4,-0.095,0.009,2.78,1.0,,0.0,0.0,
2025-08-15T00:07:58.157Z,1,GR86-065-5,-4.4,-0.092,0.019,2.81,1.0,,0.0,0.0,
2025-08-15T00:07:58.201Z,1,GR86-065-5,-4.4,-0.091,0.029,2.83,1.0,,0.0,0.0,
2025-08-15T00:07:58.243Z,1,GR86-065-5,-4.4,-0.092,0.017,2.84,1.0,1470.0,0.0,0.0,
2025-08-15T00:07:58.287Z,1,GR86-065-5,-4.4,-0.098,0.02,3.3200000000000003,1.0,,0.0,0.0,20.58
2025-08-15T00:07:58.329Z,1,GR86-065-5,-4.4,-0.107,0.024,3.86,1.0,,0.0,0.0,
2025-08-15T00:07:58.373Z,1,GR86-065-5,-4.4,-0.103,0.007,4.24,1.0,,0.0,0.0,
2025-08-15T00:07:58.417Z,1,GR86-065-5,-4.4,-0.096,0.008,4.2700000000000005,1.0,,0.0,0.0,
2025-08-15T00:07:58.461Z,1,GR86-065-5,-4.4,-0.089,0.03,4.4,1.0,1434.0,0.0,0.0,
2025-08-15T00:07:58.504Z,1,GR86-065-5,-4.4,-0.087,0.037,4.5200000000000005,1.0,,0.0,0.0,19.98
2025-08-15T00:07:58.548Z,1,GR86-065-5,-4.4,-0.095,0.006,4.59,1.0,,0.0,0.0,
2025-08-15T00:07:58.591Z,1,GR86-065-5,-4.4,-0.093,0.008,4.62,1.0,,0.0,0.0,
2025-08-15T00:07:58.633Z,1,GR86-065-5,-4.4,-0.112,0.016,4.68,1.0,,0.0,0.0,
2025-08-15T00:07:58.677Z,1,GR86-065-5,-4.4,-0.112,0.023,4.8100000000000005,1.0,1385.0,0.0,0.0,
2025-08-15T00:07:58.721Z,1,GR86-065-5,-4.4,-0.089,0.013,4.93,1.0,,0.0,0.0,18.81
2025-08-15T00:07:58.764Z,1,GR86-065-5,-4.4,-0.083,0.022,5.0600000000000005,1.0,,0.0,0.0,
2025-08-15T00:07:58.807Z,1,GR86-065-5,-4.4,-0.089,0.017,5.09,1.0,,0.0,0.0,
2025-08-15T00:07:58.850Z,1,GR86-065-5,-4.4,-0.094,0.018,5.09,1.0,,0.0,0.0,
2025-08-15T00:07:58.893Z,1,GR86-065-5,-4.4,-0.085,0.009,5.09,1.0,1353.0,0.0,0.0,
2025-08-15T00:07:58.937Z,1,GR86-065-5,-4.4,-0.033,0.021,5.09,1.0,,0.0,0.0,18.25
2025-08-15T00:07:58.980Z,1,GR86-065-5,-4.4,-0.049,0.024,5.09,1.0,,0.0,0.0,
2025-08-15T00:07:59.023Z,1,GR86-065-5,-4.4,-0.034,0.025,5.09,1.0,,0.0,0.0,
2025-08-15T00:07:59.067Z,1,GR86-065-5,-4.4,-0.041,0.02,5.09,1.0,,0.0,0.0,
2025-08-15T00:07:59.110Z,1,GR86-065-5,-4.4,-0.038,0.012,5.09,1.0,1311.0,0.0,0.0,
2025-08-15T00:07:59.153Z,1,GR86-065-5,-4.4,-0.035,0.024,5.09,1.0,,0.0,0.0,17.64
2025-08-15T00:07:59.197Z,1,GR86-065-5,-4.4,0.031,0.023,5.09,1.0,,0.0,0.0,
2025-08-15T00:07:59.240Z,1,GR86-065-5,-4.4,0.056,0.001,5.09,1.0,,0.0,0.0,
2025-08-15T00:07:59.282Z,1,GR86-065-5,-4.4,0.012,0.026,5.08,1.0,,0.0,0.0,
2025-08-15T00:07:59.326Z,1,GR86-065-5,-4.4,-0.03,0.024,5.09,1.0,1339.0,0.0,0.0,
2025-08-15T00:07:59.370Z,1,GR86-065-5,-4.4,-0.033,0.024,5.09,1.0,,0.0,0.0,17.23
2025-08-15T00:07:59.413Z,1,GR86-065-5,-4.4,-0.043,0.027,5.09,1.0,,0.0,0.0,
2025-08-15T00:07:59.457Z,1,GR86-065-5,-4.4,-0.043,0.018,5.09,1.0,,0.0,0.0,
2025-08-15T00:07:59.500Z,1,GR86-065-5,-4.4,-0.035,0.014,5.09,1.0,,0.0,0.0,
2025-08-15T00:07:59.543Z,1,GR86-065-5,-4.4,-0.038,0.012,5.09,1.0,1211.0,0.0,0.0,
2025-08-15T00:07:59.587Z,1,GR86-065-5,-4.4,-0.037,0.028,5.08,1.0,,0.0,0.0,17.09
2025-08-15T00:07:59.630Z,1,GR86-065-5,-4.4,-0.035,0.022,5.07,1.0,,0.0,0.0,
2025-08-15T00:07:59.673Z,1,GR86-065-5,-4.4,-0.012,0.01,5.07,1.0,,0.0,0.0,
2025-08-15T00:07:59.717Z,1,GR86-065-5,-4.4,0.036,0.021,5.08,1.0,,0.0,0.0,
2025-08-15T00:07:59.761Z,1,GR86-065-5,-4.4,0.02,0.026,5.07,1.0,1243.0,0.0,0.0,
2025-08-15T00:07:59.804Z,1,GR86-065-5,-4.4,-0.003,0.022,5.0600000000000005,1.0,,0.0,0.0,17.14
2025-08-15T00:07:59.848Z,1,GR86-065-5,-4.4,-0.032,0.015,5.07,1.0,,0.0,0.0,
2025-08-15T00:07:59.890Z,1,GR86-065-5,-4.4,-0.038,0.028,5.07,1.0,,0.0,0.0,
2025-08-15T00:07:59.933Z,1,GR86-065-5,-4.4,-0.031,0.017,5.0600000000000005,1.0,,0.0,0.0,
2025-08-15T00:07:59.978Z,1,GR86-065-5,-4.4,-0.031,0.03,5.0600000000000005,1.0,1290.0,0.0,0.0,
2025-08-15T00:08:00.021Z,1,GR86-065-5,-4.4,-0.002,0.019,5.07,1.0,,0.0,0.0,16.94
2025-08-15T00:08:00.063Z,1,GR86-065-5,-4.4,0.017,0.025,5.0600000000000005,1.0,,0.0,0.0,
2025-08-15T00:08:00.107Z,1,GR86-065-5,-4.4,0.013,0.012,5.0600000000000005,1.0,,0.0,0.0,
2025-08-15T00:08:00.151Z,1,GR86-065-5,-4.4,-0.017,0.018,5.0600000000000005,1.0,,0.0,0.0,
2025-08-15T00:08:00.194Z,1,GR86-065-5,-4.4,-0.029,0.026,5.0600000000000005,1.0,1227.0,0.0,0.0,
2025-08-15T00:08:00.237Z,1,GR86-065-5,-4.4,-0.032,0.023,5.0600000000000005,1.0,,0.0,0.0,16.98
2025-08-15T00:08:00.280Z,1,GR86-065-5,-4.4,-0.027,0.025,5.05,1.0,,0.0,0.0,
2025-08-15T00:08:00.323Z,1,GR86-065-5,-4.4,-0.018,0.025,5.0600000000000005,1.0,,0.0,0.0,
2025-08-15T00:08:00.367Z,1,GR86-065-5,-4.4,0.003,0.03,5.05,1.0,,0.0,0.0,
2025-08-15T00:08:00.409Z,1,GR86-065-5,-4.4,0.005,0.005,5.0600000000000005,1.0,1244.0,0.0,0.0,
2025-08-15T00:08:00.452Z,1,GR86-065-5,-4.4,0.006,0.023,5.04,1.0,,0.0,0.0,16.89
2025-08-15T00:08:00.496Z,1,GR86-065-5,-4.4,-0.011,0.019,5.04,1.0,,0.0,0.0,
2025-08-15T00:08:00.538Z,1,GR86-065-5,-4.4,-0.027,0.025,5.03,1.0,,0.0,0.0,
2025-08-15T00:08:00.582Z,1,GR86-065-5,-4.4,-0.033,0.02,5.04,1.0,,0.0,0.0,
2025-08-15T00:08:00.624Z,1,GR86-065-5,-4.4,-0.028,0.026,5.03,1.0,1253.0,0.0,0.0,
2025-08-15T00:08:00.668Z,1,GR86-065-5,-4.4,-0.01,0.024,5.04,1.0,,0.0,0.0,16.9
2025-08-15T00:08:00.710Z,1,GR86-065-5,-4.4,-0.001,0.013,5.03,1.0,,0.0,0.0,
2025-08-15T00:08:00.753Z,1,GR86-065-5,-4.4,0.0,0.028,5.04,1.0,,0.0,0.0,
2025-08-15T00:08:00.797Z,1,GR86-065-5,-4.4,-0.016,0.017,5.04,1.0,,0.0,0.0,
2025-08-15T00:08:00.839Z,1,GR86-065-5,-4.4,-0.022,0.026,5.03,1.0,1222.0,0.0,0.0,
2025-08-15T00:08:00.882Z,1,GR86-065-5,-4.4,-0.014,0.025,5.03,1.0,,0.0,0.0,16.86
2025-08-15T00:08:00.926Z,1,GR86-065-5,-4.4,-0.012,0.019,5.03,1.0,,0.0,0.0,
2025-08-15T00:08:00.968Z,1,GR86-065-5,-4.4,-0.004,0.012,5.03,1.0,,0.0,0.0,
2025-08-15T00:08:01.011Z,1,GR86-065-5,-4.4,-0.004,0.017,5.04,1.0,,0.0,0.0,
2025-08-15T00:08:01.054Z,1,GR86-065-5,-4.4,-0.007,0.035,5.03,1.0,1249.0,0.0,0.0,
2025-08-15T00:08:01.097Z,1,GR86-065-5,-4.4,-0.014,0.014,5.03,1.0,,0.0,0.0,16.85
2025-08-15T00:08:01.140Z,1,GR86-065-5,-4.4,-0.021,0.02,5.03,1.0,,0.0,0.0,
2025-08-15T00:08:01.183Z,1,GR86-065-5,-4.4,-0.023,0.017,5.04,1.0,,0.0,0.0,
2025-08-15T00:08:01.227Z,1,GR86-065-5,-4.4,-0.015,0.027,5.03,1.0,,0.0,0.0,
2025-08-15T00:08:01.270Z,1,GR86-065-5,-4.4,-0.008,0.018,5.03,1.0,1239.0,0.0,0.0,
2025-08-15T00:08:01.313Z,1,GR86-065-5,-4.4,-0.004,0.023,5.03,1.0,,0.0,0.0,16.82
2025-08-15T00:08:01.357Z,1,GR86-065-5,-4.4,-0.008,0.018,5.03,1.0,,0.0,0.0,
2025-08-15T00:08:01.401Z,1,GR86-065-5,-4.4,-0.017,0.013,5.03,1.0,,0.0,0.0,
2025-08-15T00:08:01.443Z,1,GR86-065-5,-4.4,-0.021,0.024,5.03,1.0,,0.0,0.0,
2025-08-15T00:08:01.487Z,1,GR86-065-5,-4.4,-0.019,0.024,5.03,1.0,1223.0,0.0,0.0,
2025-08-15T00:08:01.530Z,1,GR86-065-5,-4.4,-0.013,0.03,5.03,1.0,,0.0,0.0,16.8
2025-08-15T00:08:01.574Z,1,GR86-065-5,-4.4,-0.007,0.015,5.03,1.0,,0.0,0.0,
2025-08-15T00:08:01.617Z,1,GR86-065-5,-4.4,-0.011,0.03,5.0200000000000005,1.0,,0.0,0.0,
2025-08-15T00:08:01.661Z,1,GR86-065-5,-4.4,-0.014,0.02,5.0200000000000005,1.0,,0.0,0.0,
2025-08-15T00:08:01.704Z,1,GR86-065-5,-4.4,-0.025,0.015,5.03,1.0,1227.0,0.0,0.0,
2025-08-15T00:08:01.748Z,1,GR86-065-5,-4.4,-0.018,0.021,5.01,1.0,,0.0,0.0,16.79
2025-08-15T00:08:01.791Z,1,GR86-065-5,-4.4,-0.016,0.016,5.0,1.0,,0.0,0.0,
2025-08-15T00:08:01.834Z,1,GR86-065-5,-4.4,-0.004,0.029,5.0,1.0,,0.0,0.0,
2025-08-15T00:08:01.877Z,1,GR86-065-5,-4.4,-0.003,0.022,5.0,1.0,,0.0,0.0,
2025-08-15T00:08:01.921Z,1,GR86-065-5,-4.4,-0.007,0.033,5.0,1.0,1222.0,0.0,0.0,
2025-08-15T00:08:01.964Z,1,GR86-065-5,-4.4,-0.015,0.015,5.01,1.0,,0.0,0.0,16.78
2025-08-15T00:08:02.007Z,1,GR86-065-5,-4.4,-0.016,0.023,5.0,1.0,,0.0,0.0,
2025-08-15T00:08:02.050Z,1,GR86-065-5,-4.4,-0.019,0.013,5.01,1.0,,0.0,0.0,
2025-08-15T00:08:02.093Z,1,GR86-065-5,-4.4,-0.024,0.026,5.01,1.0,,0.0,0.0,
2025-08-15T00:08:02.137Z,1,GR86-065-5,-4.4,-0.017,0.015,5.0,1.0,1227.0,0.0,0.0,
2025-08-15T00:08:02.180Z,1,GR86-065-5,-4.4,-0.008,0.025,5.0200000000000005,1.0,,0.0,0.0,16.740000000000002
2025-08-15T00:08:02.223Z,1,GR86-065-5,-4.4,-0.013,0.029,5.03,1.0,,0.0,0.0,
2025-08-15T00:08:02.267Z,1,GR86-065-5,-4.4,-0.01,0.006,5.03,1.0,,0.0,0.0,
2025-08-15T00:08:02.309Z,1,GR86-065-5,-4.4,-0.015,0.023,5.04,1.0,,0.0,0.0,
2025-08-15T00:08:02.353Z,1,GR86-065-5,-4.4,-0.018,0.023,5.0600000000000005,1.0,1222.0,0.0,0.0,
2025-08-15T00:08:02.397Z,1,GR86-065-5,-4.4,-0.004,0.03,5.07,1.0,,0.0,0.0,16.75
2025-08-15T00:08:02.439Z,1,GR86-065-5,-4.4,0.0,0.022,5.11,1.0,,0.0,0.0,
2025-08-15T00:08:02.482Z,1,GR86-065-5,-4.4,-0.008,0.027,5.23,1.0,,0.0,0.0,
2025-08-15T00:08:02.526Z,1,GR86-065-5,-4.4,-0.016,0.033,5.38,1.0,,0.0,0.0,
2025-08-15T00:08:02.571Z,1,GR86-065-5,-4.4,-0.024,0.007,5.41,1.0,1223.0,0.0,0.0,
2025-08-15T00:08:02.613Z,1,GR86-065-5,-4.4,-0.023,0.022,5.44,1.0,,0.0,0.0,16.7
2025-08-15T00:08:02.657Z,1,GR86-065-5,-4.4,-0.008,0.021,5.49,1.0,,0.0,0.0,
2025-08-15T00:08:02.702Z,1,GR86-065-5,-4.4,0.0,0.019,5.5200000000000005,1.0,,0.0,0.0,
2025-08-15T00:08:02.745Z,1,GR86-065-5,-4.4,-0.009,0.015,5.5200000000000005,1.0,,0.0,0.0,
2025-08-15T00:08:02.787Z,1,GR86-065-5,-4.4,-0.01,0.027,5.54,1.0,1212.0,0.0,0.0,
2025-08-15T00:08:02.830Z,1,GR86-065-5,-4.4,-0.01,0.029,5.54,1.0,,0.0,0.0,16.69
2025-08-15T00:08:02.873Z,1,GR86-065-5,-4.4,-0.009,0.019,5.55,1.0,,0.0,0.0,
2025-08-15T00:08:02.917Z,1,GR86-065-5,-4.4,-0.008,0.021,5.57,1.0,,0.0,0.0,
2025-08-15T00:08:02.961Z,1,GR86-065-5,-4.4,-0.004,0.027,5.57,1.0,,0.0,0.0,
2025-08-15T00:08:03.003Z,1,GR86-065-5,-4.4,-0.015,0.025,5.54,1.0,1230.0,0.0,0.0,
2025-08-15T00:08:03.047Z,1,GR86-065-5,-4.4,-0.011,0.024,5.55,1.0,,0.0,0.0,16.66
2025-08-15T00:08:03.089Z,1,GR86-065-5,-4.4,-0.007,0.03,5.53,1.0,,0.0,0.0,
2025-08-15T00:08:03.133Z,1,GR86-065-5,-4.4,0.0,0.022,5.47,1.0,,0.0,0.0,
2025-08-15T00:08:03.176Z,1,GR86-065-5,-4.4,-0.004,0.02,4.21,1.0,,0.0,0.0,
2025-08-15T00:08:03.219Z,1,GR86-065-5,-4.4,-0.004,0.025,4.01,1.0,1227.0,0.0,0.0,
2025-08-15T00:08:03.261Z,1,GR86-065-5,-4.4,-0.028,0.031,3.6,1.0,,0.0,0.0,16.67
2025-08-15T00:08:03.304Z,1,GR86-065-5,-4.4,-0.036,0.028,3.25,1.0,,0.0,0.0,
2025-08-15T00:08:03.348Z,1,GR86-065-5,-4.4,-0.037,0.012,3.2,1.0,,0.0,0.0,
2025-08-15T00:08:03.391Z,1,GR86-065-5,-4.4,-0.048,0.038,3.16,1.0,,0.0,0.0,
2025-08-15T00:08:03.434Z,1,GR86-065-5,-4.4,-0.035,0.023,3.16,1.0,1231.0,0.0,0.0,
2025-08-15T00:08:03.477Z,1,GR86-065-5,-4.4,-0.095,0.03,3.14,1.0,,0.0,0.0,16.7
2025-08-15T00:08:03.521Z,1,GR86-065-5,-4.4,-0.132,0.028,3.06,1.0,,0.0,0.0,
2025-08-15T00:08:03.564Z,1,GR86-065-5,-4.4,-0.125,0.022,3.0,1.0,,0.0,0.0,
2025-08-15T00:08:03.607Z,1,GR86-065-5,-4.4,-0.099,0.02,2.97,1.0,,0.0,0.0,
2025-08-15T00:08:03.650Z,1,GR86-065-5,-4.4,-0.063,0.024,2.94,1.0,1155.0,0.0,0.0,
2025-08-15T00:08:03.693Z,1,GR86-065-5,-4.4,-0.052,0.029,2.96,1.0,,0.0,0.0,16.73
2025-08-15T00:08:03.737Z,1,GR86-065-5,-4.4,-0.058,0.016,2.94,1.0,,0.0,0.0,
2025-08-15T00:08:03.780Z,1,GR86-065-5,-4.4,-0.067,0.018,2.94,1.0,,0.0,0.0,
2025-08-15T00:08:03.823Z,1,GR86-065-5,-4.4,-0.095,0.038,2.94,1.0,,0.0,0.0,
2025-08-15T00:08:03.867Z,1,GR86-065-5,-4.4,-0.102,0.02,2.93,1.0,1123.0,0.0,0.0,
2025-08-15T00:08:03.910Z,1,GR86-065-5,-4.4,-0.098,0.027,2.93,1.0,,0.0,0.0,16.63
2025-08-15T00:08:03.953Z,1,GR86-065-5,-4.4,-0.082,0.036,2.9,1.0,,0.0,0.0,
2025-08-15T00:08:03.997Z,1,GR86-065-5,-4.4,-0.067,0.034,2.9,1.0,,0.0,0.0,
2025-08-15T00:08:04.040Z,1,GR86-065-5,-4.4,-0.069,0.007,2.91,1.0,,0.0,0.0,
2025-08-15T00:08:04.082Z,1,GR86-065-5,-4.4,-0.077,0.018,2.89,1.0,1161.0,0.0,0.0,
2025-08-15T00:08:04.126Z,1,GR86-065-5,-4.4,-0.095,0.039,2.87,1.0,,1.8,0.0,15.68
2025-08-15T00:08:04.168Z,1,GR86-065-5,-4.4,-0.105,0.03,2.86,1.0,,2.455,2.305,
2025-08-15T00:08:04.211Z,1,GR86-065-5,-4.4,-0.097,0.022,2.88,1.0,,2.795,2.485,
2025-08-15T00:08:04.254Z,1,GR86-065-5,-4.4,-0.101,0.031,2.87,1.0,,3.16,2.915,
2025-08-15T00:08:04.298Z,1,GR86-065-5,-4.4,-0.104,0.028,2.85,1.0,1125.0,3.525,3.34,
2025-08-15T00:08:04.341Z,1,GR86-065-5,-4.4,-0.08,0.028,2.85,1.0,,3.875,3.585,15.16
2025-08-15T00:08:04.383Z,1,GR86-065-5,-4.4,-0.092,0.013,2.86,1.0,,4.18,3.725,
2025-08-15T00:08:04.427Z,1,GR86-065-5,-4.4,-0.087,0.037,2.85,1.0,,4.0,3.845,
2025-08-15T00:08:04.470Z,1,GR86-065-5,-4.4,-0.096,0.033,2.86,1.0,,3.97,3.725,
2025-08-15T00:08:04.513Z,1,GR86-065-5,-4.4,-0.096,0.026,2.85,1.0,1082.0,4.21,3.755,
2025-08-15T00:08:04.557Z,1,GR86-065-5,-4.4,-0.093,0.023,2.88,1.0,,4.03,3.875,14.62
2025-08-15T00:08:04.601Z,1,GR86-065-5,-4.4,-0.101,0.035,2.89,1.0,,4.21,4.0,
2025-08-15T00:08:04.644Z,1,GR86-065-5,-4.4,-0.099,0.025,2.91,1.0,,4.21,4.12,
2025-08-15T00:08:04.687Z,1,GR86-065-5,-4.4,-0.103,0.02,2.92,1.0,,4.24,4.18,
2025-08-15T00:08:04.730Z,1,GR86-065-5,-4.4,-0.103,0.025,3.01,1.0,950.0,4.565,4.3950000000000005,
2025-08-15T00:08:04.773Z,1,GR86-065-5,-4.4,-0.106,0.028,3.17,1.0,,4.9,4.775,13.99
2025-08-15T00:08:04.817Z,1,GR86-065-5,-4.4,-0.114,0.032,3.47,1.0,,5.34,5.19,
2025-08-15T00:08:04.861Z,1,GR86-065-5,-4.4,-0.117,0.038,3.71,1.0,,5.8,5.615,
2025-08-15T00:08:04.904Z,1,GR86-065-5,-4.4,-0.116,0.033,3.99,1.0,,5.965,5.905,
2025-08-15T00:08:04.948Z,1,GR86-065-5,-4.4,-0.122,0.033,4.28,1.0,880.0,6.18,6.15,
2025-08-15T00:08:04.990Z,1,GR86-065-5,-4.4,-0.126,0.042,4.53,1.0,,6.425,6.15,13.41
2025-08-15T00:08:05.034Z,1,GR86-065-5,-4.4,-0.127,0.036,4.8100000000000005,1.0,,6.655,6.485,
2025-08-15T00:08:05.078Z,1,GR86-065-5,-4.3,-0.132,0.019,5.18,1.0,,6.99,6.835,
2025-08-15T00:08:05.122Z,1,GR86-065-5,-3.9,-0.14,0.027,5.38,1.0,,7.11,7.17,
2025-08-15T00:08:05.164Z,1,GR86-065-5,-3.5,-0.142,0.037,5.41,1.0,821.0,7.37,7.265000000000001,
2025-08-15T00:08:05.207Z,1,GR86-065-5,-3.4000000000000004,-0.143,0.033,5.43,1.0,,7.705,7.555,12.78
2025-08-15T00:08:05.251Z,1,GR86-065-5,-3.4000000000000004,-0.151,0.039,5.44,1.0,,7.92,7.890000000000001,
2025-08-15T00:08:05.294Z,1,GR86-065-5,-3.4000000000000004,-0.151,0.041,5.44,1.0,,8.040000000000001,7.890000000000001,
2025-08-15T00:08:05.337Z,1,GR86-065-5,-3.4000000000000004,-0.144,0.025,5.44,1.0,,8.120000000000001,7.890000000000001,
2025-08-15T00:08:05.380Z,1,GR86-065-5,-3.4000000000000004,-0.148,0.022,5.44,1.0,805.0,8.36,7.95,
2025-08-15T00:08:05.423Z,1,GR86-065-5,-3.4000000000000004,-0.151,0.029,5.44,1.0,,8.395,7.92,12.01
2025-08-15T00:08:05.467Z,1,GR86-065-5,-3.4000000000000004,-0.154,0.043,5.44,1.0,,8.635,8.120000000000001,
2025-08-15T00:08:05.510Z,1,GR86-065-5,-3.4000000000000004,-0.157,0.032,5.44,1.0,,8.485,8.24,
2025-08-15T00:08:05.553Z,1,GR86-065-5,-3.4000000000000004,-0.158,0.027,5.44,1.0,,8.545,8.24,
2025-08-15T00:08:05.597Z,1,GR86-065-5,-3.4000000000000004,-0.152,0.037,5.44,1.0,867.0,8.395,8.21,
2025-08-15T00:08:05.639Z,1,GR86-065-5,-3.4000000000000004,-0.153,0.027,5.44,1.0,,8.120000000000001,7.890000000000001,11.13
2025-08-15T00:08:05.682Z,1,GR86-065-5,-3.4000000000000004,-0.153,0.036,5.44,1.0,,8.09,7.890000000000001,
2025-08-15T00:08:05.726Z,1,GR86-065-5,-3.4000000000000004,-0.153,0.025,5.44,1.0,,8.09,7.890000000000001,
2025-08-15T00:08:05.768Z,1,GR86-065-5,-3.4000000000000004,-0.148,0.026,5.42,1.0,,8.040000000000001,7.615,
2025-08-15T00:08:05.811Z,1,GR86-065-5,-3.4000000000000004,-0.154,0.031,5.41,1.0,993.0,8.040000000000001,7.555,
2025-08-15T00:08:05.854Z,1,GR86-065-5,-3.4000000000000004,-0.147,0.025,5.41,1.0,,8.040000000000001,7.555,10.18
2025-08-15T00:08:05.897Z,1,GR86-065-5,-3.4000000000000004,-0.15,0.032,5.41,1.0,,7.765000000000001,7.495,
2025-08-15T00:08:05.940Z,1,GR86-065-5,-3.4000000000000004,-0.147,0.034,5.38,1.0,,7.890000000000001,7.555,
2025-08-15T00:08:05.983Z,1,GR86-065-5,-3.4000000000000004,-0.148,0.031,5.38,1.0,,7.8,7.555,
2025-08-15T00:08:06.027Z,1,GR86-065-5,-3.4000000000000004,-0.148,0.03,5.38,1.0,1075.0,7.735,7.555,
2025-08-15T00:08:06.070Z,1,GR86-065-5,-3.4000000000000004,-0.146,0.028,5.3500000000000005,1.0,,7.86,7.555,9.17
2025-08-15T00:08:06.113Z,1,GR86-065-5,-3.4000000000000004,-0.15,0.032,5.3100000000000005,1.0,,7.765000000000001,7.555,
2025-08-15T00:08:06.157Z,1,GR86-065-5,-3.7,-0.147,0.015,5.22,1.0,,7.705,7.555,
2025-08-15T00:08:06.201Z,1,GR86-065-5,-3.9,-0.148,0.022,5.17,1.0,,7.705,7.585,
2025-08-15T00:08:06.244Z,1,GR86-065-5,-4.1000000000000005,-0.145,0.022,5.14,1.0,1125.0,7.705,7.555,
2025-08-15T00:08:06.287Z,1,GR86-065-5,-4.1000000000000005,-0.144,0.026,5.12,1.0,,7.705,7.555,8.19
2025-08-15T00:08:06.330Z,1,GR86-065-5,-4.1000000000000005,-0.146,0.04,5.09,1.0,,7.92,7.555,
2025-08-15T00:08:06.373Z,1,GR86-065-5,-4.1000000000000005,-0.147,0.034,5.05,1.0,,8.01,7.555,
2025-08-15T00:08:06.417Z,1,GR86-065-5,-4.1000000000000005,-0.148,0.036,5.0,1.0,,8.33,7.615,
2025-08-15T00:08:06.461Z,1,GR86-065-5,-4.1000000000000005,-0.153,0.029,4.99,1.0,1149.0,8.33,7.890000000000001,
2025-08-15T00:08:06.504Z,1,GR86-065-5,-4.1000000000000005,-0.152,0.022,4.96,1.0,,8.27,7.83,7.22
2025-08-15T00:08:06.548Z,1,GR86-065-5,-4.1000000000000005,-0.152,0.028,4.97,1.0,,8.395,7.705,
2025-08-15T00:08:06.591Z,1,GR86-065-5,-4.1000000000000005,-0.153,0.019,4.96,1.0,,8.3,7.735,
2025-08-15T00:08:06.634Z,1,GR86-065-5,-4.1000000000000005,-0.149,0.023,4.93,1.0,,8.18,7.555,
2025-08-15T00:08:06.677Z,1,GR86-065-5,-4.1000000000000005,-0.145,0.032,4.93,1.0,1142.0,8.040000000000001,7.555,
2025-08-15T00:08:06.721Z,1,GR86-065-5,-4.1000000000000005,-0.142,0.032,4.9,1.0,,7.705,7.140000000000001,5.37
2025-08-15T00:08:06.764Z,1,GR86-065-5,-4.1000000000000005,-0.138,0.047,4.89,1.0,,7.555,6.835,
2025-08-15T00:08:06.807Z,1,GR86-065-5,-4.1000000000000005,-0.138,0.037,4.87,1.0,,7.37,6.575,
2025-08-15T00:08:06.850Z,1,GR86-065-5,-4.1000000000000005,-0.133,0.023,4.86,1.0,,6.99,6.18,
2025-08-15T00:08:06.893Z,1,GR86-065-5,-4.1000000000000005,-0.134,0.033,4.84,1.0,1110.0,6.835,6.12,
2025-08-15T00:08:06.937Z,1,GR86-065-5,-4.1000000000000005,-0.127,0.017,4.84,1.0,,6.455,5.705,4.41
2025-08-15T00:08:06.980Z,1,GR86-065-5,-4.1000000000000005,-0.124,0.028,4.8100000000000005,1.0,,6.335,5.4350000000000005,
2025-08-15T00:08:07.023Z,1,GR86-065-5,-4.1000000000000005,-0.123,0.021,4.8100000000000005,1.0,,6.3,5.08,
2025-08-15T00:08:07.067Z,1,GR86-065-5,-4.1000000000000005,-0.124,0.035,4.8100000000000005,1.0,,5.905,5.05,
2025-08-15T00:08:07.110Z,1,GR86-065-5,-4.1000000000000005,-0.117,0.039,4.8,1.0,1089.0,5.615,4.745,
2025-08-15T00:08:07.153Z,1,GR86-065-5,-4.1000000000000005,-0.12,0.028,4.78,1.0,,5.615,4.47,3.52
2025-08-15T00:08:07.197Z,1,GR86-065-5,-4.1000000000000005,-0.112,0.031,4.78,1.0,,4.96,4.09,
2025-08-15T00:08:07.239Z,1,GR86-065-5,-4.1000000000000005,-0.105,0.023,4.78,1.0,,4.565,3.725,
2025-08-15T00:08:07.282Z,1,GR86-065-5,-4.1000000000000005,-0.1,0.021,4.7700000000000005,1.0,,4.18,3.37,
2025-08-15T00:08:07.326Z,1,GR86-065-5,-4.1000000000000005,-0.093,0.029,4.74,1.0,1081.0,3.755,2.915,
2025-08-15T00:08:07.371Z,1,GR86-065-5,-4.1000000000000005,-0.086,0.023,4.74,1.0,,3.525,2.64,2.71
2025-08-15T00:08:07.414Z,1,GR86-065-5,-4.1000000000000005,-0.087,0.029,4.71,1.0,,3.28,2.64,
2025-08-15T00:08:07.457Z,1,GR86-065-5,-4.1000000000000005,-0.085,0.03,4.68,1.0,,3.1,2.305,
2025-08-15T00:08:07.501Z,1,GR86-065-5,-4.1000000000000005,-0.079,0.03,4.68,1.0,,2.885,2.275,
2025-08-15T00:08:07.545Z,1,GR86-065-5,-4.1000000000000005,-0.08,0.03,4.68,1.0,1079.0,2.795,2.135,
2025-08-15T00:08:07.587Z,1,GR86-065-5,-4.1000000000000005,-0.073,0.02,4.65,1.0,,2.73,1.955,2.0
2025-08-15T00:08:07.630Z,1,GR86-065-5,-4.1000000000000005,-0.073,0.029,4.65,1.0,,2.73,1.955,
2025-08-15T00:08:07.673Z,1,GR86-065-5,-4.1000000000000005,-0.073,0.025,4.65,1.0,,2.52,1.955,
2025-08-15T00:08:07.717Z,1,GR86-065-5,-4.1000000000000005,-0.071,0.026,4.62,1.0,,2.455,0.0,
2025-08-15T00:08:07.761Z,1,GR86-065-5,-4.1000000000000005,-0.069,0.032,4.62,1.0,1087.0,2.455,1.8,
2025-08-15T00:08:07.803Z,1,GR86-065-5,-4.1000000000000005,-0.067,0.027,4.59,1.0,,2.455,0.0,1.41
2025-08-15T00:08:07.847Z,1,GR86-065-5,-4.1000000000000005,-0.07,0.031,4.59,1.0,,2.335,0.0,
2025-08-15T00:08:07.889Z,1,GR86-065-5,-4.1000000000000005,-0.065,0.029,4.59,1.0,,2.4250000000000003,0.0,
2025-08-15T00:08:07.933Z,1,GR86-065-5,-4.1000000000000005,-0.068,0.021,4.5600000000000005,1.0,,2.305,0.0,
2025-08-15T00:08:07.976Z,1,GR86-065-5,-4.1000000000000005,-0.035,0.025,4.55,1.0,1082.0,2.4250000000000003,0.0,
2025-08-15T00:08:08.019Z,1,GR86-065-5,-4.1000000000000005,-0.015,0.024,4.5200000000000005,1.0,,2.275,0.0,0.98
2025-08-15T00:08:08.061Z,1,GR86-065-5,-4.1000000000000005,-0.01,0.031,4.5200000000000005,1.0,,2.135,0.0,
2025-08-15T00:08:08.104Z,1,GR86-065-5,-4.1000000000000005,-0.006,0.024,4.5200000000000005,1.0,,2.4250000000000003,0.0,
2025-08-15T00:08:08.148Z,1,GR86-065-5,-4.1000000000000005,0.012,0.03,4.5200000000000005,1.0,,2.305,0.0,
2025-08-15T00:08:08.191Z,1,GR86-065-5,-4.1000000000000005,0.016,0.028,4.51,1.0,1081.0,2.305,0.0,
2025-08-15T00:08:08.233Z,1,GR86-065-5,-4.1000000000000005,0.002,0.027,4.49,1.0,,2.395,0.0,0.14
2025-08-15T00:08:08.277Z,1,GR86-065-5,-4.1000000000000005,-0.018,0.029,4.46,1.0,,2.105,0.0,
2025-08-15T00:08:08.319Z,1,GR86-065-5,-4.1000000000000005,-0.015,0.024,4.46,1.0,,2.135,0.0,
2025-08-15T00:08:08.362Z,1,GR86-065-5,-4.1000000000000005,-0.019,0.029,4.46,1.0,,2.135,0.0,
2025-08-15T00:08:08.406Z,1,GR86-065-5,-4.1000000000000005,-0.019,0.028,4.46,1.0,1077.0,2.105,0.0,
2025-08-15T00:08:08.448Z,1,GR86-065-5,-4.1000000000000005,-0.024,0.031,4.43,1.0,,2.105,0.0,0.0
2025-08-15T00:08:08.491Z,1,GR86-065-5,-4.1000000000000005,-0.017,0.023,4.43,1.0,,2.135,0.0,
2025-08-15T00:08:08.534Z,1,GR86-065-5,-4.1000000000000005,-0.017,0.026,4.43,1.0,,2.105,0.0,
2025-08-15T00:08:08.577Z,1,GR86-065-5,-4.1000000000000005,-0.017,0.025,4.41,1.0,,2.165,0.0,
2025-08-15T00:08:08.621Z,1,GR86-065-5,-4.1000000000000005,-0.014,0.03,4.4,1.0,1074.0,2.165,0.0,
2025-08-15T00:08:08.663Z,1,GR86-065-5,-4.1000000000000005,-0.012,0.03,4.39,1.0,,2.105,0.0,0.0
2025-08-15T00:08:08.707Z,1,GR86-065-5,-4.1000000000000005,-0.013,0.025,4.39,1.0,,2.275,0.0,
2025-08-15T00:08:08.750Z,1,GR86-065-5,-4.1000000000000005,-0.013,0.031,4.39,1.0,,2.135,0.0,
2025-08-15T00:08:08.793Z,1,GR86-065-5,-4.1000000000000005,-0.013,0.032,4.36,1.0,,2.165,0.0,
2025-08-15T00:08:08.837Z,1,GR86-065-5,-4.1000000000000005,-0.014,0.029,4.36,1.0,1072.0,2.215,0.0,
2025-08-15T00:08:08.880Z,1,GR86-065-5,-4.1000000000000005,-0.013,0.032,4.33,1.0,,2.165,0.0,0.0
2025-08-15T00:08:08.923Z,1,GR86-065-5,-4.1000000000000005,-0.014,0.023,4.3,1.0,,2.105,0.0,
2025-08-15T00:08:08.967Z,1,GR86-065-5,-4.1000000000000005,-0.014,0.034,4.29,1.0,,2.215,0.0,
2025-08-15T00:08:09.010Z,1,GR86-065-5,-4.1000000000000005,-0.011,0.022,4.2700000000000005,1.0,,2.135,0.0,
2025-08-15T00:08:09.052Z,1,GR86-065-5,-4.1000000000000005,-0.012,0.029,4.25,1.0,1073.0,2.105,0.0,
2025-08-15T00:08:09.096Z,1,GR86-065-5,-4.1000000000000005,-0.017,0.027,4.24,1.0,,2.135,0.0,0.0
2025-08-15T00:08:09.138Z,1,GR86-065-5,-4.1000000000000005,-0.014,0.029,4.21,1.0,,2.135,0.0,
2025-08-15T00:08:09.181Z,1,GR86-065-5,-4.1000000000000005,-0.018,0.031,4.2,1.0,,2.335,0.0,
2025-08-15T00:08:09.224Z,1,GR86-065-5,-4.1000000000000005,-0.013,0.03,4.2,1.0,,2.215,0.0,
2025-08-15T00:08:09.268Z,1,GR86-065-5,-4.1000000000000005,-0.014,0.022,4.18,1.0,1068.0,2.165,0.0,
2025-08-15T00:08:09.311Z,1,GR86-065-5,-4.1000000000000005,-0.016,0.036,4.17,1.0,,2.4250000000000003,0.0,0.0
2025-08-15T00:08:09.353Z,1,GR86-065-5,-4.1000000000000005,-0.014,0.024,4.17,1.0,,2.165,0.0,
2025-08-15T00:08:09.397Z,1,GR86-065-5,-4.1000000000000005,-0.012,0.032,4.17,1.0,,2.165,0.0,
2025-08-15T00:08:09.440Z,1,GR86-065-5,-4.1000000000000005,-0.015,0.028,4.14,1.0,,2.215,0.0,
2025-08-15T00:08:09.482Z,1,GR86-065-5,-4.1000000000000005,-0.012,0.029,4.15,1.0,1078.0,2.215,0.0,
2025-08-15T00:08:09.526Z,1,GR86-065-5,-4.1000000000000005,-0.016,0.028,4.14,1.0,,2.165,0.0,0.0
2025-08-15T00:08:09.569Z,1,GR86-065-5,-4.1000000000000005,-0.014,0.026,4.14,1.0,,2.245,0.0,
2025-08-15T00:08:09.612Z,1,GR86-065-5,-4.1000000000000005,-0.015,0.029,4.13,1.0,,2.165,0.0,
2025-08-15T00:08:09.656Z,1,GR86-065-5,-4.1000000000000005,-0.01,0.028,4.13,1.0,,2.335,0.0,
2025-08-15T00:08:09.698Z,1,GR86-065-5,-4.1000000000000005,-0.016,0.027,4.13,1.0,1073.0,2.245,0.0,
2025-08-15T00:08:09.742Z,1,GR86-065-5,-4.1000000000000005,-0.017,0.03,4.11,1.0,,2.165,0.0,0.0
2025-08-15T00:08:09.786Z,1,GR86-065-5,-4.1000000000000005,-0.014,0.029,4.11,1.0,,2.455,0.0,
2025-08-15T00:08:09.828Z,1,GR86-065-5,-4.1000000000000005,-0.016,0.026,4.11,1.0,,2.105,0.0,
2025-08-15T00:08:09.871Z,1,GR86-065-5,-4.1000000000000005,-0.016,0.034,4.09,1.0,,2.105,0.0,
2025-08-15T00:08:09.914Z,1,GR86-065-5,-4.1000000000000005,-0.015,0.023,4.08,1.0,1067.0,2.455,0.0,
2025-08-15T00:08:09.957Z,1,GR86-065-5,-4.1000000000000005,-0.009,0.028,4.05,1.0,,2.215,0.0,0.0
2025-08-15T00:08:10.001Z,1,GR86-065-5,-4.1000000000000005,-0.011,0.027,4.0200000000000005,1.0,,2.165,0.0,
2025-08-15T00:08:10.043Z,1,GR86-065-5,-4.1000000000000005,-0.014,0.029,4.0200000000000005,1.0,,2.135,0.0,
2025-08-15T00:08:10.087Z,1,GR86-065-5,-4.1000000000000005,-0.017,0.03,3.98,1.0,,2.245,0.0,
2025-08-15T00:08:10.129Z,1,GR86-065-5,-4.1000000000000005,-0.016,0.032,3.95,1.0,1071.0,2.135,0.0,
2025-08-15T00:08:10.173Z,1,GR86-065-5,-4.1000000000000005,-0.017,0.023,3.94,1.0,,2.245,0.0,0.0
2025-08-15T00:08:10.217Z,1,GR86-065-5,-4.1000000000000005,-0.015,0.026,3.92,1.0,,2.165,0.0,
2025-08-15T00:08:10.262Z,1,GR86-065-5,-4.1000000000000005,-0.013,0.024,3.9,1.0,,2.335,0.0,
2025-08-15T00:08:10.304Z,1,GR86-065-5,-4.1000000000000005,-0.012,0.03,3.92,1.0,,2.105,0.0,
2025-08-15T00:08:10.348Z,1,GR86-065-5,-4.1000000000000005,-0.015,0.027,3.92,1.0,1080.0,2.135,0.0,
2025-08-15T00:08:10.390Z,1,GR86-065-5,-4.1000000000000005,-0.01,0.025,3.91,1.0,,2.135,0.0,0.0
2025-08-15T00:08:10.433Z,1,GR86-065-5,-4.1000000000000005,-0.016,0.033,3.92,1.0,,2.105,0.0,
2025-08-15T00:08:10.477Z,1,GR86-065-5,-4.1000000000000005,-0.014,0.025,3.89,1.0,,0.0,0.0,
2025-08-15T00:08:10.522Z,1,GR86-065-5,-4.1000000000000005,-0.015,0.025,3.89,1.0,,0.0,0.0,
2025-08-15T00:08:10.564Z,1,GR86-065-5,-4.1000000000000005,-0.014,0.024,3.89,1.0,1068.0,0.0,0.0,
2025-08-15T00:08:10.607Z,1,GR86-065-5,-4.1000000000000005,-0.015,0.023,3.89,1.0,,0.0,0.0,0.0
2025-08-15T00:08:10.651Z,1,GR86-065-5,-4.1000000000000005,-0.014,0.029,3.9,1.0,,0.0,0.0,
2025-08-15T00:08:10.694Z,1,GR86-065-5,-4.1000000000000005,-0.016,0.027,3.89,1.0,,0.0,0.0,
2025-08-15T00:08:10.737Z,1,GR86-065-5,-4.1000000000000005,-0.014,0.033,3.88,1.0,,0.0,0.0,
2025-08-15T00:08:10.780Z,1,GR86-065-5,-4.1000000000000005,-0.012,0.026,3.89,1.0,1063.0,0.0,0.0,
2025-08-15T00:08:10.823Z,1,GR86-065-5,-4.1000000000000005,-0.015,0.028,3.89,1.0,,0.0,0.0,0.0
2025-08-15T00:08:10.867Z,1,GR86-065-5,-4.1000000000000005,-0.014,0.029,3.88,1.0,,0.0,0.0,
2025-08-15T00:08:10.910Z,1,GR86-065-5,-4.1000000000000005,-0.014,0.028,3.89,1.0,,0.0,0.0,
2025-08-15T00:08:10.953Z,1,GR86-065-5,-4.1000000000000005,-0.015,0.024,3.88,1.0,,0.0,0.0,
2025-08-15T00:08:10.997Z,1,GR86-065-5,-4.1000000000000005,-0.014,0.035,3.9,1.0,1048.0,0.0,0.0,
2025-08-15T00:08:11.039Z,1,GR86-065-5,-4.1000000000000005,-0.015,0.022,3.88,1.0,,0.0,0.0,0.0
2025-08-15T00:08:11.082Z,1,GR86-065-5,-4.1000000000000005,-0.014,0.028,3.89,1.0,,0.0,0.0,
2025-08-15T00:08:11.126Z,1,GR86-065-5,-4.1000000000000005,-0.014,0.036,3.88,1.0,,0.0,0.0,
2025-08-15T00:08:11.168Z,1,GR86-065-5,-4.1000000000000005,-0.014,0.019,3.89,1.0,,0.0,0.0,
2025-08-15T00:08:11.211Z,1,GR86-065-5,-4.1000000000000005,-0.014,0.031,3.89,1.0,1045.0,0.0,0.0,
2025-08-15T00:08:11.254Z,1,GR86-065-5,-4.1000000000000005,-0.013,0.024,3.88,1.0,,0.0,0.0,0.0
2025-08-15T00:08:11.298Z,1,GR86-065-5,-4.1000000000000005,-0.014,0.031,3.88,1.0,,0.0,0.0,
2025-08-15T00:08:11.340Z,1,GR86-065-5,-4.1000000000000005,-0.017,0.026,3.89,1.0,,0.0,0.0,
2025-08-15T00:08:11.383Z,1,GR86-065-5,-4.1000000000000005,-0.013,0.027,3.88,1.0,,0.0,0.0,
2025-08-15T00:08:11.427Z,1,GR86-065-5,-4.1000000000000005,-0.015,0.027,3.89,1.0,1037.0,0.0,0.0,
2025-08-15T00:08:11.469Z,1,GR86-065-5,-4.1000000000000005,-0.013,0.028,3.89,1.0,,0.0,0.0,0.0
2025-08-15T00:08:11.512Z,1,GR86-065-5,-4.1000000000000005,-0.013,0.023,3.88,1.0,,0.0,0.0,
2025-08-15T00:08:11.556Z,1,GR86-065-5,-4.1000000000000005,-0.012,0.034,3.88,1.0,,0.0,0.0,
2025-08-15T00:08:11.598Z,1,GR86-065-5,-4.1000000000000005,-0.012,0.023,3.89,1.0,,0.0,0.0,
2025-08-15T00:08:11.641Z,1,GR86-065-5,-4.1000000000000005,-0.016,0.032,3.88,1.0,1037.0,0.0,0.0,
2025-08-15T00:08:11.684Z,1,GR86-065-5,-4.1000000000000005,-0.014,0.025,3.89,1.0,,0.0,0.0,0.0
2025-08-15T00:08:11.728Z,1,GR86-065-5,-4.1000000000000005,-0.015,0.032,3.88,1.0,,0.0,0.0,
2025-08-15T00:08:11.770Z,1,GR86-065-5,-4.1000000000000005,-0.013,0.024,3.88,1.0,,0.0,0.0,
2025-08-15T00:08:11.813Z,1,GR86-065-5,-4.1000000000000005,-0.015,0.032,3.88,1.0,,0.0,0.0,
2025-08-15T00:08:11.857Z,1,GR86-065-5,-4.1000000000000005,-0.016,0.024,3.88,1.0,1043.0,0.0,0.0,
2025-08-15T00:08:11.900Z,1,GR86-065-5,-4.1000000000000005,-0.014,0.032,3.88,1.0,,0.0,0.0,0.0
2025-08-15T00:08:11.942Z,1,GR86-065-5,-4.1000000000000005,-0.014,0.025,3.88,1.0,,0.0,0.0,
2025-08-15T00:08:11.986Z,1,GR86-065-5,-4.1000000000000005,-0.016,0.028,3.88,1.0,,0.0,0.0,
2025-08-15T00:08:12.030Z,1,GR86-065-5,-4.1000000000000005,-0.014,0.029,3.88,1.0,,0.0,0.0,
2025-08-15T00:08:12.073Z,1,GR86-065-5,-4.1000000000000005,-0.013,0.028,3.85,1.0,1045.0,0.0,0.0,
2025-08-15T00:08:12.117Z,1,GR86-065-5,-4.1000000000000005,-0.014,0.028,3.82,1.0,,0.0,0.0,0.0
2025-08-15T00:08:12.161Z,1,GR86-065-5,-4.1000000000000005,-0.014,0.026,3.81,1.0,,0.0,0.0,
2025-08-15T00:08:12.203Z,1,GR86-065-5,-4.1000000000000005,-0.015,0.024,3.79,1.0,,0.0,0.0,
2025-08-15T00:08:12.247Z,1,GR86-065-5,-4.1000000000000005,-0.016,0.03,3.76,1.0,,0.0,0.0,
2025-08-15T00:08:12.289Z,1,GR86-065-5,-4.1000000000000005,-0.013,0.03,3.74,1.0,1046.0,0.0,0.0,
2025-08-15T00:08:12.333Z,1,GR86-065-5,-4.1000000000000005,-0.014,0.022,3.74,1.0,,0.0,0.0,0.0
2025-08-15T00:08:12.376Z,1,GR86-065-5,-4.1000000000000005,-0.014,0.031,3.72,1.0,,0.0,0.0,
2025-08-15T00:08:12.421Z,1,GR86-065-5,-4.1000000000000005,-0.014,0.023,3.73,1.0,,0.0,0.0,
2025-08-15T00:08:12.463Z,1,GR86-065-5,-4.1000000000000005,-0.013,0.029,3.73,1.0,,0.0,0.0,
2025-08-15T00:08:12.507Z,1,GR86-065-5,-4.1000000000000005,-0.015,0.027,3.72,1.0,1048.0,0.0,0.0,
2025-08-15T00:08:12.550Z,1,GR86-065-5,-4.1000000000000005,-0.014,0.027,3.72,1.0,,0.0,0.0,0.0
2025-08-15T00:08:12.593Z,1,GR86-065-5,-4.1000000000000005,-0.013,0.024,3.72,1.0,,0.0,0.0,
2025-08-15T00:08:12.637Z,1,GR86-065-5,-4.1000000000000005,-0.013,0.028,3.71,1.0,,0.0,0.0,
2025-08-15T00:08:12.680Z,1,GR86-065-5,-4.1000000000000005,-0.014,0.03,3.7,1.0,,0.0,0.0,
2025-08-15T00:08:12.722Z,1,GR86-065-5,-4.1000000000000005,-0.013,0.026,3.7,1.0,1038.0,0.0,0.0,
2025-08-15T00:08:12.766Z,1,GR86-065-5,-4.1000000000000005,-0.014,0.031,3.72,1.0,,0.0,0.0,0.0
2025-08-15T00:08:12.808Z,1,GR86-065-5,-4.1000000000000005,-0.012,0.02,3.72,1.0,,0.0,0.0,
2025-08-15T00:08:12.851Z,1,GR86-065-5,-4.1000000000000005,-0.016,0.032,3.7,1.0,,0.0,0.0,
2025-08-15T00:08:12.894Z,1,GR86-065-5,-4.1000000000000005,-0.012,0.029,3.7,1.0,,0.0,0.0,
2025-08-15T00:08:12.937Z,1,GR86-065-5,-4.1000000000000005,-0.014,0.034,3.71,1.0,1027.0,0.0,0.0,
2025-08-15T00:08:12.980Z,1,GR86-065-5,-4.1000000000000005,-0.015,0.028,3.71,1.0,,0.0,0.0,0.0
2025-08-15T00:08:13.024Z,1,GR86-065-5,-4.1000000000000005,-0.014,0.024,3.71,1.0,,0.0,0.0,
2025-08-15T00:08:13.068Z,1,GR86-065-5,-4.1000000000000005,-0.014,0.028,3.72,1.0,,0.0,0.0,
2025-08-15T00:08:13.110Z,1,GR86-065-5,-4.1000000000000005,-0.013,0.026,3.71,1.0,,0.0,0.0,
2025-08-15T00:08:13.153Z,1,GR86-065-5,-4.1000000000000005,-0.01,0.026,3.7,1.0,1018.0,0.0,0.0,
2025-08-15T00:08:13.197Z,1,GR86-065-5,-4.1000000000000005,-0.014,0.028,3.7,1.0,,0.0,0.0,0.0
2025-08-15T00:08:13.239Z,1,GR86-065-5,-4.1000000000000005,-0.013,0.024,3.72,1.0,,0.0,0.0,
2025-08-15T00:08:13.282Z,1,GR86-065-5,-4.1000000000000005,-0.014,0.031,3.73,1.0,,0.0,0.0,
2025-08-15T00:08:13.326Z,1,GR86-065-5,-4.1000000000000005,-0.013,0.027,3.71,1.0,,0.0,0.0,
2025-08-15T00:08:13.370Z,1,GR86-065-5,-4.1000000000000005,-0.015,0.025,3.73,1.0,1017.0,0.0,0.0,
2025-08-15T00:08:13.413Z,1,GR86-065-5,-4.1000000000000005,-0.014,0.027,3.72,1.0,,0.0,0.0,0.0
2025-08-15T00:08:13.457Z,1,GR86-065-5,-4.1000000000000005,-0.016,0.026,3.72,1.0,,0.0,0.0,
2025-08-15T00:08:13.500Z,1,GR86-065-5,-4.1000000000000005,-0.015,0.027,3.73,1.0,,0.0,0.0,
2025-08-15T00:08:13.545Z,1,GR86-065-5,-4.1000000000000005,-0.013,0.031,3.72,1.0,,0.0,0.0,
2025-08-15T00:08:13.587Z,1,GR86-065-5,-4.1000000000000005,-0.016,0.025,3.73,1.0,1013.0,0.0,0.0,
2025-08-15T00:08:13.630Z,1,GR86-065-5,-4.1000000000000005,-0.016,0.026,3.72,1.0,,0.0,0.0,0.0
2025-08-15T00:08:13.673Z,1,GR86-065-5,-4.1000000000000005,-0.013,0.032,3.72,1.0,,0.0,0.0,
2025-08-15T00:08:13.717Z,1,GR86-065-5,-4.1000000000000005,-0.014,0.02,3.73,1.0,,0.0,0.0,
2025-08-15T00:08:13.761Z,1,GR86-065-5,-4.1000000000000005,-0.015,0.032,3.72,1.0,,0.0,0.0,
2025-08-15T00:08:13.803Z,1,GR86-065-5,-4.1000000000000005,-0.012,0.024,3.72,1.0,1021.0,0.0,0.0,
2025-08-15T00:08:13.847Z,1,GR86-065-5,-4.1000000000000005,-0.014,0.026,3.72,1.0,,0.0,0.0,0.0
2025-08-15T00:08:13.889Z,1,GR86-065-5,-4.1000000000000005,-0.016,0.028,3.72,1.0,,0.0,0.0,
2025-08-15T00:08:13.933Z,1,GR86-065-5,-4.1000000000000005,-0.012,0.031,3.73,1.0,,0.0,0.0,
2025-08-15T00:08:13.976Z,1,GR86-065-5,-4.1000000000000005,-0.016,0.026,3.73,1.0,,0.0,0.0,
2025-08-15T00:08:14.019Z,1,GR86-065-5,-4.1000000000000005,-0.01,0.033,3.74,1.0,1003.0,0.0,0.0,
2025-08-15T00:08:14.061Z,1,GR86-065-5,-4.1000000000000005,-0.016,0.026,3.74,1.0,,0.0,0.0,0.0
2025-08-15T00:08:14.104Z,1,GR86-065-5,-4.1000000000000005,-0.012,0.024,3.74,1.0,,0.0,0.0,
2025-08-15T00:08:14.148Z,1,GR86-065-5,-4.1000000000000005,-0.014,0.03,3.75,1.0,,0.0,0.0,
2025-08-15T00:08:14.191Z,1,GR86-065-5,-4.1000000000000005,-0.013,0.026,3.76,1.0,,0.0,0.0,
2025-08-15T00:08:14.233Z,1,GR86-065-5,-4.1000000000000005,-0.014,0.025,3.76,1.0,1014.0,0.0,0.0,
2025-08-15T00:08:14.277Z,1,GR86-065-5,-4.1000000000000005,-0.014,0.029,3.75,1.0,,0.0,0.0,0.0
2025-08-15T00:08:14.319Z,1,GR86-065-5,-4.1000000000000005,-0.013,0.024,3.76,1.0,,0.0,0.0,
2025-08-15T00:08:14.362Z,1,GR86-065-5,-4.1000000000000005,-0.016,0.031,3.76,1.0,,0.0,0.0,
2025-08-15T00:08:14.406Z,1,GR86-065-5,-4.1000000000000005,-0.012,0.027,3.76,1.0,,0.0,0.0,
2025-08-15T00:08:14.448Z,1,GR86-065-5,-4.1000000000000005,-0.015,0.024,3.75,1.0,1007.0,0.0,0.0,
2025-08-15T00:08:14.491Z,1,GR86-065-5,-4.1000000000000005,-0.011,0.03,3.76,1.0,,0.0,0.0,0.0
2025-08-15T00:08:14.534Z,1,GR86-065-5,-4.1000000000000005,-0.016,0.026,3.76,1.0,,0.0,0.0,
2025-08-15T00:08:14.577Z,1,GR86-065-5,-4.1000000000000005,-0.013,0.025,3.78,1.0,,0.0,0.0,
2025-08-15T00:08:14.621Z,1,GR86-065-5,-4.1000000000000005,-0.013,0.031,3.78,1.0,,0.0,0.0,
2025-08-15T00:08:14.663Z,1,GR86-065-5,-4.1000000000000005,-0.017,0.024,3.79,1.0,1002.0,0.0,0.0,
2025-08-15T00:08:14.707Z,1,GR86-065-5,-4.1000000000000005,-0.014,0.027,3.78,1.0,,0.0,0.0,0.0
2025-08-15T00:08:14.750Z,1,GR86-065-5,-4.1000000000000005,-0.016,0.03,3.8,1.0,,0.0,0.0,
2025-08-15T00:08:14.793Z,1,GR86-065-5,-4.1000000000000005,-0.012,0.026,3.8,1.0,,0.0,0.0,
2025-08-15T00:08:14.837Z,1,GR86-065-5,-4.1000000000000005,-0.017,0.028,3.82,1.0,,0.0,0.0,
2025-08-15T00:08:14.880Z,1,GR86-065-5,-4.1000000000000005,-0.013,0.032,3.81,1.0,1013.0,0.0,0.0,
2025-08-15T00:08:14.923Z,1,GR86-065-5,-4.1000000000000005,-0.015,0.019,3.82,1.0,,0.0,0.0,0.0
2025-08-15T00:08:14.967Z,1,GR86-065-5,-4.1000000000000005,-0.015,0.033,3.84,1.0,,0.0,0.0,
2025-08-15T00:08:15.010Z,1,GR86-065-5,-4.1000000000000005,-0.015,0.024,3.86,1.0,,0.0,0.0,
2025-08-15T00:08:15.053Z,1,GR86-065-5,-4.1000000000000005,-0.014,0.028,3.86,1.0,,0.0,0.0,
2025-08-15T00:08:15.097Z,1,GR86-065-5,-4.1000000000000005,-0.013,0.031,3.88,1.0,1008.0,0.0,0.0,
2025-08-15T00:08:15.140Z,1,GR86-065-5,-4.1000000000000005,-0.013,0.026,3.88,1.0,,0.0,0.0,0.0
2025-08-15T00:08:15.182Z,1,GR86-065-5,-4.1000000000000005,-0.015,0.032,3.88,1.0,,0.0,0.0,
2025-08-15T00:08:15.226Z,1,GR86-065-5,-4.1000000000000005,-0.013,0.028,3.88,1.0,,0.0,0.0,
2025-08-15T00:08:15.270Z,1,GR86-065-5,-4.1000000000000005,-0.012,0.03,3.89,1.0,,0.0,0.0,
2025-08-15T00:08:15.313Z,1,GR86-065-5,-4.1000000000000005,-0.013,0.021,3.92,1.0,1005.0,0.0,0.0,
2025-08-15T00:08:15.357Z,1,GR86-065-5,-4.1000000000000005,-0.011,0.031,3.92,1.0,,0.0,0.0,0.0
2025-08-15T00:08:15.400Z,1,GR86-065-5,-4.1000000000000005,-0.014,0.025,3.91,1.0,,0.0,0.0,
2025-08-15T00:08:15.444Z,1,GR86-065-5,-4.1000000000000005,-0.011,0.03,3.92,1.0,,0.0,0.0,
2025-08-15T00:08:15.487Z,1,GR86-065-5,-4.1000000000000005,-0.015,0.028,3.91,1.0,,0.0,0.0,
2025-08-15T00:08:15.530Z,1,GR86-065-5,-4.1000000000000005,-0.011,0.027,3.91,1.0,1011.0,0.0,0.0,
2025-08-15T00:08:15.573Z,1,GR86-065-5,-4.1000000000000005,-0.015,0.034,3.91,1.0,,0.0,0.0,0.0
2025-08-15T00:08:15.617Z,1,GR86-065-5,-4.1000000000000005,-0.015,0.022,3.95,1.0,,0.0,0.0,
2025-08-15T00:08:15.661Z,1,GR86-065-5,-4.1000000000000005,-0.012,0.032,3.94,1.0,,0.0,0.0,
2025-08-15T00:08:15.704Z,1,GR86-065-5,-4.1000000000000005,-0.015,0.026,3.95,1.0,,0.0,0.0,
2025-08-15T00:08:15.748Z,1,GR86-065-5,-4.1000000000000005,-0.011,0.027,3.95,1.0,1011.0,0.0,0.0,
2025-08-15T00:08:15.790Z,1,GR86-065-5,-4.1000000000000005,-0.016,0.028,3.95,1.0,,0.0,0.0,0.0
2025-08-15T00:08:15.833Z,1,GR86-065-5,-4.1000000000000005,-0.012,0.032,3.94,1.0,,0.0,0.0,
2025-08-15T00:08:15.877Z,1,GR86-065-5,-4.1000000000000005,-0.014,0.029,3.94,1.0,,0.0,0.0,
2025-08-15T00:08:15.921Z,1,GR86-065-5,-4.1000000000000005,-0.015,0.026,3.95,1.0,,0.0,0.0,
2025-08-15T00:08:15.963Z,1,GR86-065-5,-4.1000000000000005,-0.015,0.027,3.94,1.0,1015.0,0.0,0.0,
2025-08-15T00:08:16.007Z,1,GR86-065-5,-4.1000000000000005,-0.014,0.023,3.94,1.0,,0.0,0.0,0.0
2025-08-15T00:08:16.051Z,1,GR86-065-5,-4.1000000000000005,-0.014,0.028,3.94,1.0,,0.0,0.0,
2025-08-15T00:08:16.093Z,1,GR86-065-5,-4.1000000000000005,-0.016,0.026,3.94,1.0,,0.0,0.0,
2025-08-15T00:08:16.137Z,1,GR86-065-5,-4.1000000000000005,-0.014,0.031,3.95,1.0,,0.0,0.0,
2025-08-15T00:08:16.180Z,1,GR86-065-5,-4.1000000000000005,-0.015,0.031,3.93,1.0,1018.0,0.0,0.0,
2025-08-15T00:08:16.223Z,1,GR86-065-5,-4.1000000000000005,-0.015,0.023,3.95,1.0,,0.0,0.0,0.0
2025-08-15T00:08:16.267Z,1,GR86-065-5,-4.1000000000000005,-0.015,0.035,3.95,1.0,,0.0,0.0,
2025-08-15T00:08:16.311Z,1,GR86-065-5,-4.1000000000000005,-0.014,0.026,3.95,1.0,,0.0,0.0,
2025-08-15T00:08:16.353Z,1,GR86-065-5,-4.1000000000000005,-0.015,0.026,3.94,1.0,,0.0,0.0,
2025-08-15T00:08:16.397Z,1,GR86-065-5,-4.1000000000000005,-0.013,0.028,3.95,1.0,1022.0,0.0,0.0,
2025-08-15T00:08:16.439Z,1,GR86-065-5,-4.1000000000000005,-0.013,0.024,3.95,1.0,,0.0,0.0,0.0
2025-08-15T00:08:16.482Z,1,GR86-065-5,-4.1000000000000005,-0.013,0.029,3.95,1.0,,0.0,0.0,
2025-08-15T00:08:16.526Z,1,GR86-065-5,-4.1000000000000005,-0.014,0.031,3.95,1.0,,0.0,0.0,
2025-08-15T00:08:16.568Z,1,GR86-065-5,-4.1000000000000005,-0.016,0.022,3.95,1.0,,0.0,0.0,
2025-08-15T00:08:16.611Z,1,GR86-065-5,-4.1000000000000005,-0.014,0.031,3.94,1.0,1022.0,0.0,0.0,
2025-08-15T00:08:16.654Z,1,GR86-065-5,-4.1000000000000005,-0.012,0.026,3.95,1.0,,0.0,0.0,0.0
2025-08-15T00:08:16.697Z,1,GR86-065-5,-4.1000000000000005,-0.014,0.03,3.95,1.0,,0.0,0.0,
2025-08-15T00:08:16.740Z,1,GR86-065-5,-4.1000000000000005,-0.014,0.027,3.94,1.0,,0.0,0.0,
2025-08-15T00:08:16.783Z,1,GR86-065-5,-4.1000000000000005,-0.016,0.027,3.94,1.0,,0.0,0.0,
2025-08-15T00:08:16.827Z,1,GR86-065-5,-4.1000000000000005,-0.013,0.025,3.94,1.0,1021.0,0.0,0.0,
2025-08-15T00:08:16.870Z,1,GR86-065-5,-4.1000000000000005,-0.014,0.032,3.92,1.0,,0.0,0.0,0.0
2025-08-15T00:08:16.913Z,1,GR86-065-5,-4.1000000000000005,-0.016,0.024,3.94,1.0,,0.0,0.0,
2025-08-15T00:08:16.957Z,1,GR86-065-5,-4.1000000000000005,-0.015,0.03,3.91,1.0,,0.0,0.0,
2025-08-15T00:08:17.001Z,1,GR86-065-5,-4.1000000000000005,-0.013,0.026,3.93,1.0,,0.0,0.0,
2025-08-15T00:08:17.044Z,1,GR86-065-5,-4.1000000000000005,-0.013,0.028,3.92,1.0,1032.0,0.0,0.0,
2025-08-15T00:08:17.087Z,1,GR86-065-5,-4.1000000000000005,-0.014,0.027,3.91,1.0,,0.0,0.0,0.0
2025-08-15T00:08:17.130Z,1,GR86-065-5,-4.1000000000000005,-0.014,0.033,3.91,1.0,,0.0,0.0,
2025-08-15T00:08:17.173Z,1,GR86-065-5,-4.1000000000000005,-0.016,0.024,3.91,1.0,,0.0,0.0,
2025-08-15T00:08:17.217Z,1,GR86-065-5,-4.1000000000000005,-0.013,0.03,3.92,1.0,,0.0,0.0,
2025-08-15T00:08:17.261Z,1,GR86-065-5,-4.1000000000000005,-0.014,0.026,3.91,1.0,1026.0,0.0,0.0,
2025-08-15T00:08:17.303Z,1,GR86-065-5,-4.1000000000000005,-0.014,0.025,3.92,1.0,,0.0,0.0,0.0
2025-08-15T00:08:17.347Z,1,GR86-065-5,-4.1000000000000005,-0.012,0.031,3.91,1.0,,0.0,0.0,
2025-08-15T00:08:17.389Z,1,GR86-065-5,-4.1000000000000005,-0.015,0.023,3.92,1.0,,0.0,0.0,
2025-08-15T00:08:17.432Z,1,GR86-065-5,-4.1000000000000005,-0.014,0.029,3.92,1.0,,0.0,0.0,
2025-08-15T00:08:17.476Z,1,GR86-065-5,-4.1000000000000005,-0.012,0.026,3.91,1.0,1022.0,0.0,0.0,
2025-08-15T00:08:17.520Z,1,GR86-065-5,-4.1000000000000005,-0.013,0.024,3.9,1.0,,0.0,0.0,0.0
2025-08-15T00:08:17.563Z,1,GR86-065-5,-4.1000000000000005,-0.016,0.031,3.91,1.0,,0.0,0.0,
2025-08-15T00:08:17.607Z,1,GR86-065-5,-4.1000000000000005,-0.016,0.025,3.89,1.0,,0.0,0.0,
2025-08-15T00:08:17.650Z,1,GR86-065-5,-4.1000000000000005,-0.01,0.026,3.9,1.0,,0.0,0.0,
2025-08-15T00:08:17.693Z,1,GR86-065-5,-4.1000000000000005,-0.013,0.033,3.9,1.0,1037.0,0.0,0.0,
2025-08-15T00:08:17.737Z,1,GR86-065-5,-4.1000000000000005,-0.015,0.025,3.89,1.0,,0.0,0.0,0.0
2025-08-15T00:08:17.780Z,1,GR86-065-5,-4.1000000000000005,-0.011,0.03,3.88,1.0,,0.0,0.0,
2025-08-15T00:08:17.822Z,1,GR86-065-5,-4.1000000000000005,-0.015,0.023,3.87,1.0,,0.0,0.0,
2025-08-15T00:08:17.866Z,1,GR86-065-5,-4.1000000000000005,-0.017,0.032,3.88,1.0,,0.0,0.0,
2025-08-15T00:08:17.908Z,1,GR86-065-5,-4.1000000000000005,-0.015,0.026,3.88,1.0,1027.0,0.0,0.0,
2025-08-15T00:08:17.951Z,1,GR86-065-5,-4.1000000000000005,-0.017,0.029,3.89,1.0,,0.0,0.0,0.0
2025-08-15T00:08:17.994Z,1,GR86-065-5,-4.1000000000000005,-0.012,0.025,3.88,1.0,,0.0,0.0,
2025-08-15T00:08:18.037Z,1,GR86-065-5,-4.1000000000000005,-0.01,0.03,3.88,1.0,,0.0,0.0,
2025-08-15T00:08:18.080Z,1,GR86-065-5,-4.1000000000000005,-0.015,0.023,3.88,1.0,,0.0,0.0,
2025-08-15T00:08:18.124Z,1,GR86-065-5,-4.1000000000000005,-0.015,0.028,3.88,1.0,1007.0,0.0,0.0,
2025-08-15T00:08:18.168Z,1,GR86-065-5,-4.1000000000000005,-0.012,0.029,3.88,1.0,,0.0,0.0,0.0
2025-08-15T00:08:18.211Z,1,GR86-065-5,-4.1000000000000005,-0.014,0.023,3.88,1.0,,0.0,0.0,
2025-08-15T00:08:18.254Z,1,GR86-065-5,-4.1000000000000005,-0.016,0.033,3.88,1.0,,0.0,0.0,
2025-08-15T00:08:18.298Z,1,GR86-065-5,-4.1000000000000005,-0.013,0.026,3.87,1.0,,0.0,0.0,
2025-08-15T00:08:18.340Z,1,GR86-065-5,-4.1000000000000005,-0.012,0.028,3.86,1.0,1013.0,0.0,0.0,
2025-08-15T00:08:18.383Z,1,GR86-065-5,-4.1000000000000005,-0.004,0.028,3.86,1.0,,0.0,0.0,0.0
2025-08-15T00:08:18.428Z,1,GR86-065-5,-4.1000000000000005,0.0,0.027,3.86,1.0,,0.0,0.0,
2025-08-15T00:08:18.471Z,1,GR86-065-5,-4.1000000000000005,-0.009,0.023,3.85,1.0,,0.0,0.0,
2025-08-15T00:08:18.513Z,1,GR86-065-5,-4.1000000000000005,-0.005,0.034,3.85,1.0,,0.0,0.0,
2025-08-15T00:08:18.557Z,1,GR86-065-5,-4.1000000000000005,-0.01,0.029,3.84,1.0,1030.0,0.0,0.0,
2025-08-15T00:08:18.601Z,1,GR86-065-5,-4.1000000000000005,-0.002,0.031,3.85,1.0,,0.0,0.0,0.0
2025-08-15T00:08:18.644Z,1,GR86-065-5,-4.1000000000000005,0.009,0.023,3.84,1.0,,0.0,0.0,
2025-08-15T00:08:18.687Z,1,GR86-065-5,-4.1000000000000005,0.001,0.031,3.85,1.0,,0.0,0.0,
2025-08-15T00:08:18.730Z,1,GR86-065-5,-4.1000000000000005,0.01,0.026,3.85,1.0,,0.0,0.0,
2025-08-15T00:08:18.773Z,1,GR86-065-5,-4.1000000000000005,0.013,0.028,3.85,1.0,1010.0,0.0,0.0,
2025-08-15T00:08:18.817Z,1,GR86-065-5,-4.1000000000000005,0.008,0.025,3.86,1.0,,0.0,0.0,0.0
2025-08-15T00:08:18.861Z,1,GR86-065-5,-4.1000000000000005,0.004,0.025,3.88,1.0,,0.0,0.0,
2025-08-15T00:08:18.904Z,1,GR86-065-5,-4.1000000000000005,0.018,0.029,3.9,1.0,,0.0,0.0,
2025-08-15T00:08:18.948Z,1,GR86-065-5,-4.1000000000000005,0.005,0.026,3.95,1.0,,0.0,0.0,
2025-08-15T00:08:18.991Z,1,GR86-065-5,-4.1000000000000005,0.015,0.03,4.0200000000000005,1.0,954.0,0.0,0.0,
2025-08-15T00:08:19.033Z,1,GR86-065-5,-4.1000000000000005,0.007,0.034,4.2,1.0,,0.0,0.0,0.0
2025-08-15T00:08:19.077Z,1,GR86-065-5,-4.1000000000000005,-0.002,0.023,4.66,1.0,,0.0,0.0,
2025-08-15T00:08:19.121Z,1,GR86-065-5,-4.1000000000000005,0.023,0.026,5.0600000000000005,1.0,,0.0,0.0,
2025-08-15T00:08:19.164Z,1,GR86-065-5,-4.1000000000000005,0.0,0.025,5.3500000000000005,1.0,,0.0,0.0,
2025-08-15T00:08:19.207Z,1,GR86-065-5,-4.1000000000000005,0.017,0.027,5.42,1.0,866.0,0.0,0.0,
2025-08-15T00:08:19.250Z,1,GR86-065-5,-4.1000000000000005,0.011,0.026,5.54,1.0,,0.0,0.0,0.0
2025-08-15T00:08:19.293Z,1,GR86-065-5,-4.1000000000000005,0.007,0.03,5.58,1.0,,0.0,0.0,
2025-08-15T00:08:19.337Z,1,GR86-065-5,-4.1000000000000005,0.028,0.028,5.69,1.0,,0.0,0.0,
2025-08-15T00:08:19.380Z,1,GR86-065-5,-4.1000000000000005,-0.002,0.032,5.72,1.0,,0.0,0.0,
2025-08-15T00:08:19.423Z,1,GR86-065-5,-4.1000000000000005,0.023,0.032,5.78,1.0,790.0,0.0,0.0,
2025-08-15T00:08:19.467Z,1,GR86-065-5,-4.1000000000000005,0.004,0.031,5.79,1.0,,0.0,0.0,0.0
2025-08-15T00:08:19.510Z,1,GR86-065-5,-4.1000000000000005,0.022,0.035,5.79,1.0,,0.0,0.0,
2025-08-15T00:08:19.553Z,1,GR86-065-5,-4.1000000000000005,0.006,0.036,5.79,1.0,,0.0,0.0,
2025-08-15T00:08:19.597Z,1,GR86-065-5,-4.1000000000000005,0.016,0.022,5.79,1.0,,0.0,0.0,
2025-08-15T00:08:19.641Z,1,GR86-065-5,-4.1000000000000005,0.007,0.017,5.79,1.0,744.0,0.0,0.0,
2025-08-15T00:08:19.683Z,1,GR86-065-5,-4.1000000000000005,0.021,0.023,5.79,1.0,,0.0,0.0,0.0
2025-08-15T00:08:19.727Z,1,GR86-065-5,-4.1000000000000005,0.01,0.021,5.7700000000000005,1.0,,0.0,0.0,
2025-08-15T00:08:19.770Z,1,GR86-065-5,-4.1000000000000005,0.028,0.026,5.76,1.0,,0.0,0.0,
2025-08-15T00:08:19.813Z,1,GR86-065-5,-4.1000000000000005,0.015,0.026,5.76,1.0,,0.0,0.0,
2025-08-15T00:08:19.857Z,1,GR86-065-5,-4.1000000000000005,0.007,0.025,5.72,1.0,725.0,0.0,0.0,
2025-08-15T00:08:19.900Z,1,GR86-065-5,-4.1000000000000005,0.043,0.028,5.7,1.0,,0.0,0.0,0.0
2025-08-15T00:08:19.943Z,1,GR86-065-5,-4.1000000000000005,0.032,0.026,5.66,1.0,,0.0,0.0,
2025-08-15T00:08:19.987Z,1,GR86-065-5,-4.1000000000000005,0.031,0.029,5.63,1.0,,0.0,0.0,
2025-08-15T00:08:20.029Z,1,GR86-065-5,-4.1000000000000005,0.04,0.03,5.57,1.0,,0.0,0.0,
2025-08-15T00:08:20.073Z,1,GR86-065-5,-4.1000000000000005,0.028,0.026,5.47,1.0,848.0,0.0,0.0,
2025-08-15T00:08:20.118Z,1,GR86-065-5,-4.1000000000000005,0.038,0.026,5.41,1.0,,0.0,0.0,0.93
2025-08-15T00:08:20.161Z,1,GR86-065-5,-4.1000000000000005,0.044,0.025,5.38,1.0,,0.0,0.0,
2025-08-15T00:08:20.204Z,1,GR86-065-5,-4.1000000000000005,0.025,0.028,5.34,1.0,,0.0,0.0,
2025-08-15T00:08:20.248Z,1,GR86-065-5,-4.1000000000000005,0.041,0.029,5.3100000000000005,1.0,,0.0,0.0,
2025-08-15T00:08:20.291Z,1,GR86-065-5,-4.1000000000000005,0.045,0.026,5.28,1.0,1046.0,0.0,0.0,
2025-08-15T00:08:20.334Z,1,GR86-065-5,-4.1000000000000005,0.034,0.028,5.25,1.0,,0.0,0.0,1.22
2025-08-15T00:08:20.378Z,1,GR86-065-5,-4.1000000000000005,0.04,0.03,5.22,1.0,,0.0,0.0,
2025-08-15T00:08:20.421Z,1,GR86-065-5,-4.1000000000000005,0.041,0.024,5.22,1.0,,0.0,0.0,
2025-08-15T00:08:20.464Z,1,GR86-065-5,-4.1000000000000005,0.044,0.029,5.22,1.0,,0.0,0.0,
2025-08-15T00:08:20.507Z,1,GR86-065-5,-4.1000000000000005,0.049,0.03,5.22,1.0,1067.0,0.0,0.0,
2025-08-15T00:08:20.551Z,1,GR86-065-5,-4.1000000000000005,0.037,0.027,5.22,1.0,,0.0,0.0,1.59
2025-08-15T00:08:20.594Z,1,GR86-065-5,-4.1000000000000005,0.047,0.028,5.19,1.0,,0.0,0.0,
2025-08-15T00:08:20.637Z,1,GR86-065-5,-4.1000000000000005,0.052,0.026,5.19,1.0,,0.0,0.0,
2025-08-15T00:08:20.680Z,1,GR86-065-5,-4.1000000000000005,0.05,0.024,5.19,1.0,,0.0,0.0,
2025-08-15T00:08:20.723Z,1,GR86-065-5,-4.1000000000000005,0.032,0.026,5.19,1.0,1018.0,0.0,0.0,
2025-08-15T00:08:20.767Z,1,GR86-065-5,-4.1000000000000005,0.058,0.024,5.2,1.0,,0.0,0.0,1.98
2025-08-15T00:08:20.809Z,1,GR86-065-5,-4.1000000000000005,0.046,0.027,5.2,1.0,,0.0,0.0,
2025-08-15T00:08:20.853Z,1,GR86-065-5,-4.1000000000000005,0.048,0.028,5.19,1.0,,0.0,0.0,
2025-08-15T00:08:20.897Z,1,GR86-065-5,-4.1000000000000005,0.044,0.03,5.22,1.0,,0.0,0.0,
2025-08-15T00:08:20.939Z,1,GR86-065-5,-4.1000000000000005,0.062,0.026,5.22,1.0,1001.0,0.0,0.0,
2025-08-15T00:08:20.982Z,1,GR86-065-5,-4.1000000000000005,0.052,0.027,5.22,1.0,,0.0,0.0,2.4
2025-08-15T00:08:21.026Z,1,GR86-065-5,-4.1000000000000005,0.047,0.023,5.22,1.0,,0.0,0.0,
2025-08-15T00:08:21.068Z,1,GR86-065-5,-4.1000000000000005,0.067,0.028,5.22,1.0,,0.0,0.0,
2025-08-15T00:08:21.111Z,1,GR86-065-5,-4.1000000000000005,0.051,0.03,5.22,1.0,,0.0,0.0,
2025-08-15T00:08:21.154Z,1,GR86-065-5,-4.1000000000000005,0.05,0.024,5.22,1.0,979.0,0.0,0.0,
2025-08-15T00:08:21.197Z,1,GR86-065-5,-4.1000000000000005,0.055,0.028,5.25,1.0,,0.0,0.0,2.84
2025-08-15T00:08:21.240Z,1,GR86-065-5,-4.1000000000000005,0.07,0.023,5.24,1.0,,0.0,0.0,
2025-08-15T00:08:21.284Z,1,GR86-065-5,-4.1000000000000005,0.044,0.027,5.25,1.0,,0.0,0.0,
2025-08-15T00:08:21.327Z,1,GR86-065-5,-4.1000000000000005,0.068,0.022,5.25,1.0,,0.0,0.0,
2025-08-15T00:08:21.370Z,1,GR86-065-5,-4.1000000000000005,0.055,0.026,5.25,1.0,945.0,0.0,0.0,
2025-08-15T00:08:21.413Z,1,GR86-065-5,-4.1000000000000005,0.049,0.026,5.25,1.0,,0.0,0.0,3.31
2025-08-15T00:08:21.457Z,1,GR86-065-5,-4.1000000000000005,0.059,0.028,5.25,1.0,,0.0,0.0,
2025-08-15T00:08:21.500Z,1,GR86-065-5,-4.1000000000000005,0.073,0.025,5.28,1.0,,0.0,0.0,
2025-08-15T00:08:21.543Z,1,GR86-065-5,-4.1000000000000005,0.036,0.024,5.28,1.0,,0.0,0.0,
2025-08-15T00:08:21.587Z,1,GR86-065-5,-4.1000000000000005,0.067,0.031,5.28,1.0,916.0,0.0,0.0,
2025-08-15T00:08:21.673Z,1,GR86-065-5,-4.1000000000000005,-0.03,0.029,5.3100000000000005,1.0,,0.0,0.0,3.81
2025-08-15T00:08:21.717Z,1,GR86-065-5,-4.1000000000000005,-0.043,0.019,5.3100000000000005,1.0,,0.0,0.0,
2025-08-15T00:08:21.761Z,1,GR86-065-5,-4.1000000000000005,-0.034,0.028,5.3,1.0,,0.0,0.0,
2025-08-15T00:08:21.803Z,1,GR86-065-5,-4.1000000000000005,-0.032,0.019,5.3100000000000005,1.0,886.0,0.0,0.0,
2025-08-15T00:08:21.847Z,1,GR86-065-5,-4.1000000000000005,-0.051,0.028,5.29,1.0,,0.0,0.0,4.33
2025-08-15T00:08:21.889Z,1,GR86-065-5,-4.1000000000000005,-0.035,0.035,5.28,1.0,,0.0,0.0,
2025-08-15T00:08:21.933Z,1,GR86-065-5,-4.1000000000000005,-0.034,0.024,5.28,1.0,,0.0,0.0,
2025-08-15T00:08:21.976Z,1,GR86-065-5,-4.1000000000000005,-0.038,0.029,5.26,1.0,,0.0,0.0,
2025-08-15T00:08:22.021Z,1,GR86-065-5,-4.1000000000000005,-0.038,0.017,5.25,1.0,992.0,0.0,0.0,
2025-08-15T00:08:22.064Z,1,GR86-065-5,-4.1000000000000005,-0.047,0.033,5.25,1.0,,0.0,0.0,4.83
2025-08-15T00:08:22.107Z,1,GR86-065-5,-4.1000000000000005,-0.028,0.016,5.22,1.0,,0.0,0.0,
2025-08-15T00:08:22.150Z,1,GR86-065-5,-4.1000000000000005,-0.034,0.028,5.19,1.0,,0.0,0.0,
2025-08-15T00:08:22.193Z,1,GR86-065-5,-4.1000000000000005,-0.033,0.03,5.15,1.0,,0.0,0.0,
2025-08-15T00:08:22.237Z,1,GR86-065-5,-4.1000000000000005,-0.041,0.029,5.0600000000000005,1.0,1187.0,0.0,0.0,
2025-08-15T00:08:22.280Z,1,GR86-065-5,-4.1000000000000005,-0.035,0.031,5.0,1.0,,0.0,0.0,4.89
2025-08-15T00:08:22.323Z,1,GR86-065-5,-4.1000000000000005,-0.036,0.023,4.96,1.0,,0.0,0.0,
2025-08-15T00:08:22.367Z,1,GR86-065-5,-4.1000000000000005,-0.038,0.037,4.93,1.0,,0.0,0.0,
2025-08-15T00:08:22.410Z,1,GR86-065-5,-4.1000000000000005,-0.036,0.023,4.91,1.0,,0.0,0.0,
2025-08-15T00:08:22.453Z,1,GR86-065-5,-4.1000000000000005,-0.034,0.028,4.9,1.0,1202.0,0.0,0.0,
2025-08-15T00:08:22.497Z,1,GR86-065-5,-4.1000000000000005,-0.035,0.021,4.87,1.0,,0.0,0.0,4.74
2025-08-15T00:08:22.539Z,1,GR86-065-5,-4.1000000000000005,-0.035,0.026,4.84,1.0,,0.0,0.0,
2025-08-15T00:08:22.582Z,1,GR86-065-5,-4.1000000000000005,-0.038,0.03,4.8100000000000005,1.0,,0.0,0.0,
2025-08-15T00:08:22.626Z,1,GR86-065-5,-4.1000000000000005,-0.032,0.025,4.8100000000000005,1.0,,0.0,0.0,
2025-08-15T00:08:22.670Z,1,GR86-065-5,-4.1000000000000005,-0.038,0.032,4.8100000000000005,1.0,1198.0,0.0,0.0,
2025-08-15T00:08:22.713Z,1,GR86-065-5,-4.1000000000000005,-0.038,0.03,4.8,1.0,,0.0,0.0,4.59
2025-08-15T00:08:22.757Z,1,GR86-065-5,-4.1000000000000005,-0.034,0.028,4.7700000000000005,1.0,,0.0,0.0,
2025-08-15T00:08:22.801Z,1,GR86-065-5,-4.1000000000000005,-0.034,0.031,4.78,1.0,,0.0,0.0,
2025-08-15T00:08:22.844Z,1,GR86-065-5,-4.0,-0.035,0.019,4.75,1.0,,0.0,0.0,
2025-08-15T00:08:22.887Z,1,GR86-065-5,-4.1000000000000005,-0.036,0.029,4.74,1.0,1138.0,0.0,0.0,
2025-08-15T00:08:22.930Z,1,GR86-065-5,-4.1000000000000005,-0.037,0.021,4.74,1.0,,0.0,0.0,4.3
2025-08-15T00:08:22.973Z,1,GR86-065-5,-4.1000000000000005,-0.034,0.02,4.74,1.0,,0.0,0.0,
2025-08-15T00:08:23.017Z,1,GR86-065-5,-4.1000000000000005,-0.036,0.033,4.71,1.0,,0.0,0.0,
2025-08-15T00:08:23.061Z,1,GR86-065-5,-4.1000000000000005,-0.033,0.022,4.68,1.0,,0.0,0.0,
2025-08-15T00:08:23.103Z,1,GR86-065-5,-4.1000000000000005,-0.037,0.03,4.68,1.0,1088.0,0.0,0.0,
2025-08-15T00:08:23.147Z,1,GR86-065-5,-4.1000000000000005,-0.034,0.024,4.67,1.0,,0.0,0.0,4.16
2025-08-15T00:08:23.189Z,1,GR86-065-5,-4.1000000000000005,-0.033,0.025,4.65,1.0,,0.0,0.0,
2025-08-15T00:08:23.232Z,1,GR86-065-5,-4.1000000000000005,-0.034,0.035,4.65,1.0,,0.0,0.0,
2025-08-15T00:08:23.276Z,1,GR86-065-5,-4.1000000000000005,-0.031,0.02,4.62,1.0,,0.0,0.0,
2025-08-15T00:08:23.319Z,1,GR86-065-5,-4.1000000000000005,-0.032,0.032,4.62,1.0,1076.0,0.0,0.0,
2025-08-15T00:08:23.361Z,1,GR86-065-5,-4.1000000000000005,-0.034,0.022,4.59,1.0,,0.0,0.0,4.01
2025-08-15T00:08:23.404Z,1,GR86-065-5,-4.1000000000000005,-0.033,0.025,4.58,1.0,,0.0,0.0,
2025-08-15T00:08:23.448Z,1,GR86-065-5,-4.1000000000000005,-0.032,0.027,4.5600000000000005,1.0,,0.0,0.0,
2025-08-15T00:08:23.491Z,1,GR86-065-5,-4.1000000000000005,-0.035,0.02,4.55,1.0,,0.0,0.0,
2025-08-15T00:08:23.534Z,1,GR86-065-5,-4.1000000000000005,-0.034,0.03,4.5200000000000005,1.0,1082.0,0.0,0.0,
2025-08-15T00:08:23.577Z,1,GR86-065-5,-4.1000000000000005,-0.031,0.029,4.5200000000000005,1.0,,0.0,0.0,3.87
2025-08-15T00:08:23.621Z,1,GR86-065-5,-4.1000000000000005,-0.031,0.029,4.49,1.0,,0.0,0.0,
2025-08-15T00:08:23.663Z,1,GR86-065-5,-4.1000000000000005,-0.036,0.028,4.49,1.0,,0.0,0.0,
2025-08-15T00:08:23.707Z,1,GR86-065-5,-4.1000000000000005,-0.036,0.026,4.47,1.0,,0.0,0.0,
2025-08-15T00:08:23.750Z,1,GR86-065-5,-4.1000000000000005,-0.035,0.021,4.45,1.0,1076.0,0.0,0.0,
2025-08-15T00:08:23.793Z,1,GR86-065-5,-4.1000000000000005,-0.033,0.025,4.45,1.0,,0.0,0.0,3.74
2025-08-15T00:08:23.837Z,1,GR86-065-5,-4.1000000000000005,-0.036,0.027,4.43,1.0,,0.0,0.0,
2025-08-15T00:08:23.880Z,1,GR86-065-5,-4.1000000000000005,-0.034,0.029,4.43,1.0,,0.0,0.0,
2025-08-15T00:08:23.923Z,1,GR86-065-5,-4.1000000000000005,-0.037,0.032,4.43,1.0,,0.0,0.0,
2025-08-15T00:08:23.967Z,1,GR86-065-5,-4.1000000000000005,-0.039,0.023,4.43,1.0,1084.0,0.0,0.0,
2025-08-15T00:08:24.010Z,1,GR86-065-5,-4.1000000000000005,-0.045,0.034,4.39,1.0,,0.0,0.0,3.62
2025-08-15T00:08:24.053Z,1,GR86-065-5,-4.1000000000000005,-0.043,0.02,4.39,1.0,,0.0,0.0,
2025-08-15T00:08:24.097Z,1,GR86-065-5,-4.1000000000000005,-0.046,0.03,4.38,1.0,,0.0,0.0,
2025-08-15T00:08:24.140Z,1,GR86-065-5,-4.1000000000000005,-0.048,0.021,4.37,1.0,,0.0,0.0,
2025-08-15T00:08:24.182Z,1,GR86-065-5,-4.1000000000000005,-0.046,0.028,4.37,1.0,1079.0,0.0,0.0,
2025-08-15T00:08:24.226Z,1,GR86-065-5,-4.1000000000000005,-0.053,0.031,4.33,1.0,,0.0,0.0,3.48
2025-08-15T00:08:24.268Z,1,GR86-065-5,-4.1000000000000005,-0.052,0.031,4.3,1.0,,0.0,0.0,
2025-08-15T00:08:24.311Z,1,GR86-065-5,-4.1000000000000005,-0.052,0.024,4.2700000000000005,1.0,,0.0,0.0,
2025-08-15T00:08:24.354Z,1,GR86-065-5,-4.1000000000000005,-0.05,0.03,4.23,1.0,,0.0,0.0,
2025-08-15T00:08:24.441Z,1,GR86-065-5,-4.1000000000000005,-0.05,0.023,4.2,1.0,1082.0,0.0,0.0,3.3200000000000003
2025-08-15T00:08:24.483Z,1,GR86-065-5,-4.1000000000000005,-0.052,0.02,4.18,1.0,,0.0,0.0,
2025-08-15T00:08:24.527Z,1,GR86-065-5,-4.1000000000000005,-0.051,0.025,4.17,1.0,,0.0,0.0,
2025-08-15T00:08:24.569Z,1,GR86-065-5,-4.1000000000000005,-0.053,0.026,4.17,1.0,,0.0,0.0,
2025-08-15T00:08:24.612Z,1,GR86-065-5,-4.1000000000000005,-0.05,0.028,4.17,1.0,1082.0,0.0,0.0,
2025-08-15T00:08:24.656Z,1,GR86-065-5,-4.1000000000000005,-0.055,0.03,4.14,1.0,,0.0,0.0,3.13
2025-08-15T00:08:24.698Z,1,GR86-065-5,-4.1000000000000005,-0.054,0.026,4.14,1.0,,0.0,0.0,
2025-08-15T00:08:24.741Z,1,GR86-065-5,-4.1000000000000005,-0.052,0.02,4.14,1.0,,0.0,0.0,
2025-08-15T00:08:24.786Z,1,GR86-065-5,-4.1000000000000005,-0.055,0.028,4.11,1.0,,0.0,0.0,
2025-08-15T00:08:24.828Z,1,GR86-065-5,-4.1000000000000005,-0.055,0.022,4.11,1.0,1070.0,0.0,0.0,
2025-08-15T00:08:24.871Z,1,GR86-065-5,-4.1000000000000005,-0.054,0.026,4.11,1.0,,0.0,0.0,2.89
2025-08-15T00:08:24.914Z,1,GR86-065-5,-4.1000000000000005,-0.058,0.026,4.09,1.0,,0.0,0.0,
2025-08-15T00:08:24.957Z,1,GR86-065-5,-4.1000000000000005,-0.05,0.023,4.08,1.0,,0.0,0.0,
2025-08-15T00:08:25.001Z,1,GR86-065-5,-4.1000000000000005,-0.054,0.03,4.07,1.0,,0.0,0.0,
2025-08-15T00:08:25.043Z,1,GR86-065-5,-4.1000000000000005,-0.052,0.025,4.07,1.0,1066.0,0.0,0.0,
2025-08-15T00:08:25.087Z,1,GR86-065-5,-4.1000000000000005,-0.05,0.02,4.05,1.0,,0.0,0.0,2.63
2025-08-15T00:08:25.130Z,1,GR86-065-5,-4.1000000000000005,-0.047,0.035,4.05,1.0,,0.0,0.0,
2025-08-15T00:08:25.173Z,1,GR86-065-5,-4.1000000000000005,-0.052,0.023,4.0200000000000005,1.0,,0.0,0.0,
2025-08-15T00:08:25.217Z,1,GR86-065-5,-4.1000000000000005,-0.051,0.027,4.01,1.0,,0.0,0.0,
2025-08-15T00:08:25.261Z,1,GR86-065-5,-4.1000000000000005,-0.051,0.025,4.01,1.0,1059.0,1.86,0.0,
2025-08-15T00:08:25.304Z,1,GR86-065-5,-4.1000000000000005,-0.055,0.023,4.01,1.0,,1.83,0.0,2.37
2025-08-15T00:08:25.348Z,1,GR86-065-5,-4.1000000000000005,-0.053,0.033,3.99,1.0,,0.0,0.0,
2025-08-15T00:08:25.390Z,1,GR86-065-5,-4.1000000000000005,-0.055,0.022,3.99,1.0,,1.955,0.0,
2025-08-15T00:08:25.434Z,1,GR86-065-5,-4.1000000000000005,-0.054,0.028,3.98,1.0,,0.0,0.0,
2025-08-15T00:08:25.478Z,1,GR86-065-5,-4.1000000000000005,-0.055,0.02,3.98,1.0,1064.0,0.0,0.0,
2025-08-15T00:08:25.521Z,1,GR86-065-5,-4.1000000000000005,-0.057,0.025,3.96,1.0,,0.0,0.0,1.86
2025-08-15T00:08:25.564Z,1,GR86-065-5,-4.1000000000000005,-0.054,0.028,3.95,1.0,,0.0,0.0,
2025-08-15T00:08:25.607Z,1,GR86-065-5,-4.1000000000000005,-0.055,0.023,3.95,1.0,,0.0,0.0,
2025-08-15T00:08:25.651Z,1,GR86-065-5,-4.1000000000000005,-0.055,0.022,3.94,1.0,,0.0,0.0,
2025-08-15T00:08:25.694Z,1,GR86-065-5,-4.1000000000000005,-0.055,0.029,3.95,1.0,1054.0,0.0,0.0,
2025-08-15T00:08:25.737Z,1,GR86-065-5,-4.1000000000000005,-0.053,0.025,3.92,1.0,,0.0,0.0,1.62
2025-08-15T00:08:25.780Z,1,GR86-065-5,-4.1000000000000005,-0.055,0.019,3.91,1.0,,0.0,0.0,
2025-08-15T00:08:25.823Z,1,GR86-065-5,-4.1000000000000005,-0.053,0.026,3.9,1.0,,0.0,0.0,
2025-08-15T00:08:25.867Z,1,GR86-065-5,-4.1000000000000005,-0.053,0.026,3.89,1.0,,1.955,0.0,
2025-08-15T00:08:25.910Z,1,GR86-065-5,-4.1000000000000005,-0.058,0.029,3.88,1.0,1059.0,0.0,0.0,
2025-08-15T00:08:25.953Z,1,GR86-065-5,-4.1000000000000005,-0.054,0.028,3.88,1.0,,0.0,0.0,1.37
2025-08-15T00:08:25.997Z,1,GR86-065-5,-4.1000000000000005,-0.054,0.022,3.88,1.0,,1.83,0.0,
2025-08-15T00:08:26.039Z,1,GR86-065-5,-4.1000000000000005,-0.053,0.029,3.87,1.0,,1.8,0.0,
2025-08-15T00:08:26.082Z,1,GR86-065-5,-4.1000000000000005,-0.051,0.019,3.86,1.0,,0.0,0.0,
2025-08-15T00:08:26.126Z,1,GR86-065-5,-4.1000000000000005,-0.052,0.031,3.85,1.0,1051.0,1.86,0.0,
2025-08-15T00:08:26.168Z,1,GR86-065-5,-4.1000000000000005,-0.051,0.026,3.85,1.0,,0.0,0.0,1.14
2025-08-15T00:08:26.211Z,1,GR86-065-5,-4.1000000000000005,-0.05,0.024,3.85,1.0,,0.0,0.0,
2025-08-15T00:08:26.254Z,1,GR86-065-5,-4.1000000000000005,-0.048,0.029,3.85,1.0,,1.83,0.0,
2025-08-15T00:08:26.298Z,1,GR86-065-5,-4.1000000000000005,-0.052,0.024,3.85,1.0,,0.0,0.0,
2025-08-15T00:08:26.340Z,1,GR86-065-5,-4.1000000000000005,-0.05,0.025,3.85,1.0,1044.0,1.955,0.0,
2025-08-15T00:08:26.383Z,1,GR86-065-5,-4.1000000000000005,-0.05,0.03,3.82,1.0,,0.0,0.0,0.9
2025-08-15T00:08:26.427Z,1,GR86-065-5,-4.1000000000000005,-0.048,0.019,3.83,1.0,,1.8,0.0,
2025-08-15T00:08:26.471Z,1,GR86-065-5,-4.1000000000000005,-0.051,0.029,3.82,1.0,,2.105,0.0,
2025-08-15T00:08:26.513Z,1,GR86-065-5,-4.1000000000000005,-0.049,0.023,3.82,1.0,,1.89,0.0,
2025-08-15T00:08:26.557Z,1,GR86-065-5,-4.1000000000000005,-0.048,0.027,3.82,1.0,1052.0,0.0,0.0,
2025-08-15T00:08:26.600Z,1,GR86-065-5,-4.1000000000000005,-0.05,0.023,3.82,1.0,,1.8,0.0,0.16
2025-08-15T00:08:26.643Z,1,GR86-065-5,-4.1000000000000005,-0.033,0.026,3.79,1.0,,0.0,0.0,
2025-08-15T00:08:26.687Z,1,GR86-065-5,-4.1000000000000005,-0.016,0.021,3.78,1.0,,0.0,0.0,
2025-08-15T00:08:26.730Z,1,GR86-065-5,-4.1000000000000005,-0.012,0.03,3.78,1.0,,0.0,0.0,
2025-08-15T00:08:26.773Z,1,GR86-065-5,-4.1000000000000005,-0.012,0.018,3.76,1.0,1046.0,0.0,0.0,
2025-08-15T00:08:26.817Z,1,GR86-065-5,-4.1000000000000005,-0.009,0.03,3.75,1.0,,0.0,0.0,0.0
2025-08-15T00:08:26.861Z,1,GR86-065-5,-4.1000000000000005,-0.011,0.021,3.76,1.0,,0.0,0.0,
2025-08-15T00:08:26.903Z,1,GR86-065-5,-4.1000000000000005,-0.009,0.025,3.76,1.0,,0.0,0.0,
2025-08-15T00:08:26.947Z,1,GR86-065-5,-4.1000000000000005,-0.013,0.024,3.76,1.0,,0.0,0.0,
2025-08-15T00:08:26.989Z,1,GR86-065-5,-4.1000000000000005,-0.013,0.027,3.75,1.0,1045.0,0.0,0.0,
2025-08-15T00:08:27.032Z,1,GR86-065-5,-4.1000000000000005,-0.017,0.024,3.74,1.0,,0.0,0.0,0.0
2025-08-15T00:08:27.076Z,1,GR86-065-5,-4.1000000000000005,-0.017,0.03,3.75,1.0,,0.0,0.0,
2025-08-15T00:08:27.120Z,1,GR86-065-5,-4.1000000000000005,-0.017,0.024,3.76,1.0,,0.0,0.0,
2025-08-15T00:08:27.163Z,1,GR86-065-5,-4.1000000000000005,-0.021,0.024,3.75,1.0,,0.0,0.0,
2025-08-15T00:08:27.207Z,1,GR86-065-5,-4.1000000000000005,-0.016,0.028,3.75,1.0,1033.0,0.0,0.0,
2025-08-15T00:08:27.251Z,1,GR86-065-5,-4.1000000000000005,-0.023,0.018,3.75,1.0,,0.0,0.0,0.0
2025-08-15T00:08:27.293Z,1,GR86-065-5,-4.1000000000000005,-0.021,0.032,3.76,1.0,,0.0,0.0,
2025-08-15T00:08:27.337Z,1,GR86-065-5,-4.1000000000000005,-0.019,0.02,3.76,1.0,,0.0,0.0,
2025-08-15T00:08:27.380Z,1,GR86-065-5,-4.1000000000000005,-0.014,0.026,3.76,1.0,,0.0,0.0,
2025-08-15T00:08:27.423Z,1,GR86-065-5,-4.1000000000000005,-0.018,0.028,3.76,1.0,1020.0,0.0,0.0,
2025-08-15T00:08:27.467Z,1,GR86-065-5,-4.1000000000000005,-0.015,0.022,3.76,1.0,,0.0,0.0,0.0
2025-08-15T00:08:27.510Z,1,GR86-065-5,-4.1000000000000005,-0.013,0.027,3.75,1.0,,0.0,0.0,
2025-08-15T00:08:27.553Z,1,GR86-065-5,-4.1000000000000005,-0.016,0.025,3.75,1.0,,0.0,0.0,
2025-08-15T00:08:27.597Z,1,GR86-065-5,-4.1000000000000005,-0.019,0.02,3.76,1.0,,0.0,0.0,
2025-08-15T00:08:27.682Z,1,GR86-065-5,-4.1000000000000005,-0.017,0.026,3.76,1.0,1005.0,0.0,0.0,0.0
2025-08-15T00:08:27.726Z,1,GR86-065-5,-4.1000000000000005,-0.017,0.026,3.76,1.0,,0.0,0.0,
2025-08-15T00:08:27.769Z,1,GR86-065-5,-4.1000000000000005,-0.017,0.027,3.76,1.0,,0.0,0.0,
2025-08-15T00:08:27.812Z,1,GR86-065-5,-4.1000000000000005,-0.014,0.026,3.76,1.0,,0.0,0.0,
2025-08-15T00:08:27.856Z,1,GR86-065-5,-4.1000000000000005,-0.017,0.018,5.08,1.0,1013.0,0.0,0.0,
2025-08-15T00:08:27.898Z,1,GR86-065-5,-4.1000000000000005,-0.019,0.028,6.7,1.0,,0.0,0.0,0.0
2025-08-15T00:08:27.942Z,1,GR86-065-5,-4.1000000000000005,-0.017,0.024,7.87,1.0,,0.0,0.0,
2025-08-15T00:08:27.986Z,1,GR86-065-5,-4.1000000000000005,-0.016,0.032,7.88,1.0,,0.0,0.0,
2025-08-15T00:08:28.028Z,1,GR86-065-5,-4.1000000000000005,-0.02,0.018,7.88,1.0,,0.0,0.0,
2025-08-15T00:08:28.071Z,1,GR86-065-5,-4.1000000000000005,-0.017,0.031,7.87,1.0,1012.0,0.0,0.0,
2025-08-15T00:08:28.114Z,1,GR86-065-5,-4.1000000000000005,-0.019,0.02,7.88,1.0,,0.0,0.0,0.0
2025-08-15T00:08:28.157Z,1,GR86-065-5,-4.1000000000000005,-0.016,0.03,7.87,1.0,,0.0,0.0,
2025-08-15T00:08:28.201Z,1,GR86-065-5,-4.1000000000000005,-0.013,0.018,7.88,1.0,,0.0,0.0,
2025-08-15T00:08:28.243Z,1,GR86-065-5,-4.1000000000000005,-0.017,0.026,7.87,1.0,,0.0,0.0,
2025-08-15T00:08:28.287Z,1,GR86-065-5,-4.1000000000000005,-0.015,0.026,7.87,1.0,1011.0,0.0,0.0,
2025-08-15T00:08:28.329Z,1,GR86-065-5,-4.1000000000000005,-0.015,0.028,7.88,1.0,,0.0,0.0,0.0
2025-08-15T00:08:28.373Z,1,GR86-065-5,-4.1000000000000005,-0.023,0.022,7.87,1.0,,0.0,0.0,
2025-08-15T00:08:28.417Z,1,GR86-065-5,-4.1000000000000005,-0.019,0.027,7.88,1.0,,0.0,0.0,
2025-08-15T00:08:28.459Z,1,GR86-065-5,-4.1000000000000005,-0.015,0.023,7.85,1.0,,0.0,0.0,
2025-08-15T00:08:28.503Z,1,GR86-065-5,-4.1000000000000005,-0.017,0.031,7.85,1.0,770.0,1.83,0.0,
2025-08-15T00:08:28.547Z,1,GR86-065-5,-4.1000000000000005,-0.014,0.001,7.84,1.0,,0.0,0.0,0.0
2025-08-15T00:08:28.589Z,1,GR86-065-5,-4.1000000000000005,-0.019,0.063,7.84,1.0,,0.0,0.0,
2025-08-15T00:08:28.632Z,1,GR86-065-5,-4.1000000000000005,-0.015,-0.022,7.84,1.0,,0.0,0.0,
2025-08-15T00:08:28.676Z,1,GR86-065-5,-4.1000000000000005,-0.01,0.105,7.84,1.0,,0.0,0.0,
2025-08-15T00:08:28.719Z,1,GR86-065-5,-4.1000000000000005,-0.024,-0.022,7.82,1.0,387.0,0.0,0.0,
2025-08-15T00:08:28.761Z,1,GR86-065-5,-4.1000000000000005,-0.017,0.026,7.85,1.0,,0.0,0.0,0.0
2025-08-15T00:08:28.804Z,1,GR86-065-5,-4.1000000000000005,-0.012,0.024,7.84,1.0,,0.0,0.0,
2025-08-15T00:08:28.848Z,1,GR86-065-5,-4.1000000000000005,-0.016,0.01,7.84,1.0,,0.0,0.0,
2025-08-15T00:08:28.891Z,1,GR86-065-5,-4.1000000000000005,-0.011,0.043,7.82,1.0,,0.0,0.0,
2025-08-15T00:08:28.933Z,1,GR86-065-5,-4.1000000000000005,-0.02,0.032,7.81,1.0,282.0,0.0,0.0,
2025-08-15T00:08:28.977Z,1,GR86-065-5,-4.1000000000000005,-0.022,0.019,7.82,1.0,,0.0,0.0,0.0
2025-08-15T00:08:29.019Z,1,GR86-065-5,-4.1000000000000005,-0.018,0.03,7.81,1.0,,0.0,0.0,
2025-08-15T00:08:29.062Z,1,GR86-065-5,-4.1000000000000005,-0.018,0.0,7.81,1.0,,0.0,0.0,
2025-08-15T00:08:29.106Z,1,GR86-065-5,-4.1000000000000005,-0.017,0.028,7.82,1.0,,0.0,0.0,
2025-08-15T00:08:29.148Z,1,GR86-065-5,-4.1000000000000005,-0.015,0.026,7.81,1.0,282.0,0.0,0.0,
2025-08-15T00:08:29.191Z,1,GR86-065-5,-4.1000000000000005,-0.019,0.025,7.81,1.0,,0.0,0.0,0.0
2025-08-15T00:08:29.234Z,1,GR86-065-5,-4.1000000000000005,-0.014,0.045,7.82,1.0,,0.0,0.0,
2025-08-15T00:08:29.277Z,1,GR86-065-5,-4.1000000000000005,-0.013,0.025,7.81,1.0,,0.0,0.0,
2025-08-15T00:08:29.321Z,1,GR86-065-5,-4.1000000000000005,-0.019,0.024,7.81,1.0,,0.0,0.0,
2025-08-15T00:08:29.363Z,1,GR86-065-5,-4.1000000000000005,-0.018,0.014,7.82,1.0,282.0,0.0,0.0,
2025-08-15T00:08:29.407Z,1,GR86-065-5,-4.1000000000000005,-0.018,0.021,7.81,1.0,,0.0,0.0,0.0
2025-08-15T00:08:29.450Z,1,GR86-065-5,-4.1000000000000005,-0.018,0.025,7.81,1.0,,0.0,0.0,
2025-08-15T00:08:29.493Z,1,GR86-065-5,-4.1000000000000005,-0.015,0.026,7.81,1.0,,0.0,0.0,
2025-08-15T00:08:29.537Z,1,GR86-065-5,-4.1000000000000005,-0.016,0.033,7.81,1.0,,0.0,0.0,
2025-08-15T00:08:29.581Z,1,GR86-065-5,-4.1000000000000005,-0.014,0.025,7.81,1.0,0.0,0.0,0.0,
2025-08-15T00:08:29.624Z,1,GR86-065-5,-4.1000000000000005,-0.016,0.025,7.81,1.0,,0.0,0.0,0.0
2025-08-15T00:08:29.668Z,1,GR86-065-5,-4.1000000000000005,-0.017,0.02,7.81,1.0,,0.0,0.0,
2025-08-15T00:08:29.711Z,1,GR86-065-5,-4.1000000000000005,-0.018,0.022,7.81,1.0,,0.0,0.0,
2025-08-15T00:08:29.753Z,1,GR86-065-5,-4.1000000000000005,-0.013,0.023,7.81,1.0,,0.0,0.0,
2025-08-15T00:08:29.797Z,1,GR86-065-5,-4.1000000000000005,-0.017,0.033,7.81,1.0,0.0,0.0,0.0,
2025-08-15T00:08:29.839Z,1,GR86-065-5,-4.1000000000000005,-0.015,0.026,7.81,1.0,,0.0,0.0,0.0
2025-08-15T00:08:29.882Z,1,GR86-065-5,-4.1000000000000005,-0.017,0.025,7.81,1.0,,0.0,0.0,
2025-08-15T00:08:29.926Z,1,GR86-065-5,-4.1000000000000005,-0.018,0.024,7.82,1.0,,0.0,0.0,
2025-08-15T00:08:29.968Z,1,GR86-065-5,-4.1000000000000005,-0.017,0.023,7.81,1.0,,0.0,0.0,
2025-08-15T00:08:30.011Z,1,GR86-065-5,-4.1000000000000005,-0.017,0.025,7.81,1.0,0.0,0.0,0.0,
2025-08-15T00:08:30.054Z,1,GR86-065-5,-4.1000000000000005,-0.019,0.024,7.81,1.0,,0.0,0.0,0.0
2025-08-15T00:08:30.097Z,1,GR86-065-5,-4.1000000000000005,-0.016,0.03,7.81,1.0,,0.0,0.0,
2025-08-15T00:08:30.141Z,1,GR86-065-5,-4.1000000000000005,-0.017,0.028,7.81,1.0,,0.0,0.0,
2025-08-15T00:08:30.183Z,1,GR86-065-5,-4.1000000000000005,-0.017,0.028,7.82,1.0,,0.0,0.0,
2025-08-15T00:08:30.227Z,1,GR86-065-5,-4.1000000000000005,-0.017,0.024,7.82,1.0,0.0,0.0,0.0,
2025-08-15T00:08:30.270Z,1,GR86-065-5,-4.1000000000000005,-0.016,0.022,7.81,1.0,,0.0,0.0,0.0
2025-08-15T00:08:30.313Z,1,GR86-065-5,-4.1000000000000005,-0.018,0.022,7.81,1.0,,0.0,0.0,
2025-08-15T00:08:30.357Z,1,GR86-065-5,-4.1000000000000005,-0.018,0.026,7.82,1.0,,0.0,0.0,
2025-08-15T00:08:30.401Z,1,GR86-065-5,-4.1000000000000005,-0.017,0.028,7.81,1.0,,0.0,0.0,
2025-08-15T00:08:30.443Z,1,GR86-065-5,-4.1000000000000005,-0.017,0.025,7.81,1.0,0.0,0.0,0.0,
2025-08-15T00:08:30.487Z,1,GR86-065-5,-4.1000000000000005,-0.017,0.027,7.81,1.0,,0.0,0.0,0.0
2025-08-15T00:08:30.530Z,1,GR86-065-5,-4.1000000000000005,-0.017,0.025,7.81,1.0,,0.0,0.0,
2025-08-15T00:08:30.573Z,1,GR86-065-5,-4.1000000000000005,-0.017,0.025,7.81,1.0,,0.0,0.0,
2025-08-15T00:08:30.617Z,1,GR86-065-5,-4.1000000000000005,-0.016,0.023,7.82,1.0,,0.0,0.0,
2025-08-15T00:08:30.660Z,1,GR86-065-5,-4.1000000000000005,-0.016,0.025,7.82,1.0,0.0,0.0,0.0,
2025-08-15T00:08:30.703Z,1,GR86-065-5,-4.1000000000000005,-0.018,0.028,7.81,1.0,,0.0,0.0,0.0
2025-08-15T00:08:30.747Z,1,GR86-065-5,-4.1000000000000005,-0.018,0.027,7.82,1.0,,0.0,0.0,
2025-08-15T00:08:30.789Z,1,GR86-065-5,-4.1000000000000005,-0.017,0.025,7.82,1.0,,0.0,0.0,
2025-08-15T00:08:30.832Z,1,GR86-065-5,-4.1000000000000005,-0.019,0.025,7.81,1.0,,0.0,0.0,
2025-08-15T00:08:30.876Z,1,GR86-065-5,-4.1000000000000005,-0.019,0.024,7.82,1.0,0.0,0.0,0.0,
2025-08-15T00:08:30.920Z,1,GR86-065-5,-4.1000000000000005,-0.016,0.025,7.81,1.0,,0.0,0.0,0.0
2025-08-15T00:08:30.963Z,1,GR86-065-5,-4.1000000000000005,-0.017,0.026,7.81,1.0,,0.0,0.0,
2025-08-15T00:08:31.007Z,1,GR86-065-5,-4.1000000000000005,-0.017,0.023,7.81,1.0,,0.0,0.0,
2025-08-15T00:08:31.051Z,1,GR86-065-5,-4.1000000000000005,-0.016,0.026,7.81,1.0,,0.0,0.0,
2025-08-15T00:08:31.094Z,1,GR86-065-5,-4.1000000000000005,-0.018,0.025,7.81,1.0,0.0,0.0,0.0,
2025-08-15T00:08:31.137Z,1,GR86-065-5,-4.1000000000000005,-0.018,0.024,7.81,1.0,,0.0,0.0,0.0
2025-08-15T00:08:31.180Z,1,GR86-065-5,-4.1000000000000005,-0.017,0.024,7.82,1.0,,0.0,0.0,
2025-08-15T00:08:31.223Z,1,GR86-065-5,-4.1000000000000005,-0.016,0.024,7.82,1.0,,0.0,0.0,
2025-08-15T00:08:31.267Z,1,GR86-065-5,-4.1000000000000005,-0.016,0.026,7.82,1.0,,0.0,0.0,
2025-08-15T00:08:31.311Z,1,GR86-065-5,-4.1000000000000005,-0.018,0.026,7.81,1.0,0.0,0.0,0.0,
2025-08-15T00:08:31.353Z,1,GR86-065-5,-4.1000000000000005,-0.017,0.024,7.82,1.0,,0.0,0.0,0.0
2025-08-15T00:08:31.397Z,1,GR86-065-5,-4.1000000000000005,-0.017,0.025,7.81,1.0,,0.0,0.0,
2025-08-15T00:08:31.439Z,1,GR86-065-5,-4.1000000000000005,-0.016,0.025,7.81,1.0,,0.0,0.0,
2025-08-15T00:08:31.482Z,1,GR86-065-5,-4.1000000000000005,-0.017,0.023,7.82,1.0,,0.0,0.0,
2025-08-15T00:08:31.526Z,1,GR86-065-5,-4.1000000000000005,-0.019,0.024,7.82,1.0,0.0,0.0,0.0,
2025-08-15T00:08:31.568Z,1,GR86-065-5,-4.1000000000000005,-0.014,0.027,7.82,1.0,,0.0,0.0,0.0
2025-08-15T00:08:31.611Z,1,GR86-065-5,-4.1000000000000005,-0.017,0.025,7.82,1.0,,0.0,0.0,
2025-08-15T00:08:31.654Z,1,GR86-065-5,-4.1000000000000005,-0.017,0.026,7.81,1.0,,0.0,0.0,
2025-08-15T00:08:31.697Z,1,GR86-065-5,-4.1000000000000005,-0.017,0.025,7.82,1.0,,0.0,0.0,
2025-08-15T00:08:31.740Z,1,GR86-065-5,-4.1000000000000005,-0.018,0.024,7.81,1.0,0.0,0.0,0.0,
2025-08-15T00:08:31.783Z,1,GR86-065-5,-4.1000000000000005,-0.017,0.025,7.82,1.0,,0.0,0.0,0.0
2025-08-15T00:08:31.827Z,1,GR86-065-5,-4.1000000000000005,-0.019,0.025,7.82,1.0,,0.0,0.0,
2025-08-15T00:08:31.870Z,1,GR86-065-5,-4.1000000000000005,-0.019,0.024,7.81,1.0,,0.0,0.0,
2025-08-15T00:08:31.913Z,1,GR86-065-5,-4.1000000000000005,-0.015,0.025,7.82,1.0,,0.0,0.0,
2025-08-15T00:08:31.957Z,1,GR86-065-5,-4.1000000000000005,-0.018,0.028,7.81,1.0,0.0,0.0,0.0,
2025-08-15T00:08:32.001Z,1,GR86-065-5,-4.1000000000000005,-0.017,0.025,7.82,1.0,,0.0,0.0,0.0
2025-08-15T00:08:32.043Z,1,GR86-065-5,-4.1000000000000005,-0.018,0.025,7.81,1.0,,0.0,0.0,
2025-08-15T00:08:32.087Z,1,GR86-065-5,-4.1000000000000005,-0.015,0.023,7.82,1.0,,0.0,0.0,
2025-08-15T00:08:32.130Z,1,GR86-065-5,-4.1000000000000005,-0.016,0.025,7.81,1.0,,0.0,0.0,
2025-08-15T00:08:32.173Z,1,GR86-065-5,-4.1000000000000005,-0.018,0.024,7.81,1.0,0.0,0.0,0.0,
2025-08-15T00:08:32.217Z,1,GR86-065-5,-4.1000000000000005,-0.016,0.026,7.81,1.0,,0.0,0.0,0.0
2025-08-15T00:08:32.259Z,1,GR86-065-5,-4.1000000000000005,-0.017,0.025,7.82,1.0,,0.0,0.0,
2025-08-15T00:08:32.303Z,1,GR86-065-5,-4.1000000000000005,-0.016,0.025,7.82,1.0,,0.0,0.0,
2025-08-15T00:08:32.347Z,1,GR86-065-5,-4.1000000000000005,-0.016,0.024,7.82,1.0,,0.0,0.0,
2025-08-15T00:08:32.389Z,1,GR86-065-5,-4.1000000000000005,-0.017,0.025,7.82,1.0,0.0,0.0,0.0,
2025-08-15T00:08:32.432Z,1,GR86-065-5,-4.1000000000000005,-0.017,0.026,7.82,1.0,,0.0,0.0,0.0
2025-08-15T00:08:32.476Z,1,GR86-065-5,-4.1000000000000005,-0.016,0.025,7.81,1.0,,0.0,0.0,
2025-08-15T00:08:32.519Z,1,GR86-065-5,-4.1000000000000005,-0.015,0.028,7.81,1.0,,0.0,0.0,
2025-08-15T00:08:32.562Z,1,GR86-065-5,-4.1000000000000005,-0.018,0.026,7.81,1.0,,0.0,0.0,
2025-08-15T00:08:32.606Z,1,GR86-065-5,-4.1000000000000005,-0.015,0.023,7.81,1.0,0.0,0.0,0.0,
2025-08-15T00:08:32.648Z,1,GR86-065-5,-4.1000000000000005,-0.016,0.026,7.82,1.0,,0.0,0.0,0.0
2025-08-15T00:08:32.691Z,1,GR86-065-5,-4.1000000000000005,-0.019,0.023,7.82,1.0,,0.0,0.0,
2025-08-15T00:08:32.734Z,1,GR86-065-5,-4.1000000000000005,-0.013,0.024,7.81,1.0,,0.0,0.0,
2025-08-15T00:08:32.777Z,1,GR86-065-5,-4.1000000000000005,-0.019,0.026,7.82,1.0,,0.0,0.0,
2025-08-15T00:08:32.820Z,1,GR86-065-5,-4.1000000000000005,-0.015,0.024,7.81,1.0,0.0,0.0,0.0,
2025-08-15T00:08:32.863Z,1,GR86-065-5,-4.1000000000000005,-0.019,0.029,7.81,1.0,,0.0,0.0,0.0
2025-08-15T00:08:32.907Z,1,GR86-065-5,-4.1000000000000005,-0.016,0.024,7.82,1.0,,0.0,0.0,
2025-08-15T00:08:32.950Z,1,GR86-065-5,-4.1000000000000005,-0.015,0.023,7.82,1.0,,0.0,0.0,
2025-08-15T00:08:32.993Z,1,GR86-065-5,-4.1000000000000005,-0.017,0.023,7.82,1.0,,0.0,0.0,
2025-08-15T00:08:33.037Z,1,GR86-065-5,-4.1000000000000005,-0.017,0.025,7.81,1.0,0.0,0.0,0.0,
2025-08-15T00:08:33.081Z,1,GR86-065-5,-4.1000000000000005,-0.018,0.026,7.82,1.0,,0.0,0.0,0.0
2025-08-15T00:08:33.124Z,1,GR86-065-5,-4.1000000000000005,-0.017,0.025,7.82,1.0,,0.0,0.0,
2025-08-15T00:08:33.168Z,1,GR86-065-5,-4.1000000000000005,-0.017,0.024,7.81,1.0,,0.0,0.0,
2025-08-15T00:08:33.211Z,1,GR86-065-5,-4.1000000000000005,-0.017,0.026,7.82,1.0,,0.0,0.0,
2025-08-15T00:08:33.254Z,1,GR86-065-5,-4.1000000000000005,-0.019,0.026,7.81,1.0,0.0,0.0,0.0,
2025-08-15T00:08:33.298Z,1,GR86-065-5,-4.1000000000000005,-0.016,0.027,7.81,1.0,,0.0,0.0,0.0
2025-08-15T00:08:33.340Z,1,GR86-065-5,-4.1000000000000005,-0.016,0.025,7.81,1.0,,0.0,0.0,
2025-08-15T00:08:33.383Z,1,GR86-065-5,-4.1000000000000005,-0.015,0.025,7.82,1.0,,0.0,0.0,
2025-08-15T00:08:33.427Z,1,GR86-065-5,-4.1000000000000005,-0.015,0.027,7.82,1.0,,0.0,0.0,
2025-08-15T00:08:33.470Z,1,GR86-065-5,-4.1000000000000005,-0.018,0.026,7.83,1.0,0.0,0.0,0.0,
2025-08-15T00:08:33.513Z,1,GR86-065-5,-4.1000000000000005,-0.017,0.025,7.82,1.0,,0.0,0.0,0.0
2025-08-15T00:08:33.557Z,1,GR86-065-5,-4.1000000000000005,-0.018,0.025,7.81,1.0,,0.0,0.0,
2025-08-15T00:08:33.601Z,1,GR86-065-5,-4.1000000000000005,-0.019,0.026,7.82,1.0,,0.0,0.0,
2025-08-15T00:08:33.643Z,1,GR86-065-5,-4.1000000000000005,-0.014,0.024,7.81,1.0,,0.0,0.0,
2025-08-15T00:08:33.687Z,1,GR86-065-5,-4.1000000000000005,-0.018,0.025,7.82,1.0,0.0,0.0,0.0,
2025-08-15T00:08:33.730Z,1,GR86-065-5,-4.1000000000000005,-0.017,0.024,7.83,1.0,,0.0,0.0,0.0
2025-08-15T00:08:33.773Z,1,GR86-065-5,-4.1000000000000005,-0.017,0.024,7.81,1.0,,0.0,0.0,
2025-08-15T00:08:33.817Z,1,GR86-065-5,-4.1000000000000005,-0.018,0.026,7.81,1.0,,0.0,0.0,
2025-08-15T00:08:33.859Z,1,GR86-065-5,-4.1000000000000005,-0.017,0.026,7.82,1.0,,0.0,0.0,
2025-08-15T00:08:33.903Z,1,GR86-065-5,-4.1000000000000005,-0.017,0.026,7.81,1.0,0.0,0.0,0.0,
2025-08-15T00:08:33.947Z,1,GR86-065-5,-4.1000000000000005,-0.016,0.027,7.82,1.0,,0.0,0.0,0.0
2025-08-15T00:08:33.989Z,1,GR86-065-5,-4.1000000000000005,-0.016,0.024,7.82,1.0,,0.0,0.0,
2025-08-15T00:08:34.032Z,1,GR86-065-5,-4.1000000000000005,-0.016,0.026,7.82,1.0,,0.0,0.0,
2025-08-15T00:08:34.076Z,1,GR86-065-5,-4.1000000000000005,-0.016,0.026,7.82,1.0,,0.0,0.0,
2025-08-15T00:08:34.119Z,1,GR86-065-5,-4.1000000000000005,-0.015,0.024,7.82,1.0,0.0,0.0,0.0,
2025-08-15T00:08:34.161Z,1,GR86-065-5,-4.1000000000000005,-0.016,0.025,7.81,1.0,,0.0,0.0,0.0
2025-08-15T00:08:34.204Z,1,GR86-065-5,-4.1000000000000005,-0.018,0.023,7.82,1.0,,0.0,0.0,
2025-08-15T00:08:34.248Z,1,GR86-065-5,-4.1000000000000005,-0.016,0.028,7.82,1.0,,0.0,0.0,
2025-08-15T00:08:34.291Z,1,GR86-065-5,-4.1000000000000005,-0.018,0.024,7.81,1.0,,0.0,0.0,
2025-08-15T00:08:34.333Z,1,GR86-065-5,-4.1000000000000005,-0.017,0.026,7.82,1.0,0.0,0.0,0.0,
2025-08-15T00:08:34.377Z,1,GR86-065-5,-4.1000000000000005,-0.017,0.026,7.82,1.0,,0.0,0.0,0.0
2025-08-15T00:08:34.419Z,1,GR86-065-5,-4.1000000000000005,-0.015,0.025,7.83,1.0,,0.0,0.0,
2025-08-15T00:08:34.462Z,1,GR86-065-5,-4.1000000000000005,-0.018,0.023,7.81,1.0,,0.0,0.0,
2025-08-15T00:08:34.506Z,1,GR86-065-5,-4.1000000000000005,-0.016,0.025,7.82,1.0,,0.0,0.0,
2025-08-15T00:08:34.548Z,1,GR86-065-5,-4.1000000000000005,-0.016,0.027,7.82,1.0,0.0,0.0,0.0,
2025-08-15T00:08:34.591Z,1,GR86-065-5,-4.1000000000000005,-0.018,0.023,7.82,1.0,,0.0,0.0,0.0
2025-08-15T00:08:34.634Z,1,GR86-065-5,-4.1000000000000005,-0.018,0.024,7.82,1.0,,0.0,0.0,
2025-08-15T00:08:34.677Z,1,GR86-065-5,-4.1000000000000005,-0.019,0.026,7.82,1.0,,0.0,0.0,
2025-08-15T00:08:34.720Z,1,GR86-065-5,-4.1000000000000005,-0.015,0.025,7.81,1.0,,0.0,0.0,
2025-08-15T00:08:34.763Z,1,GR86-065-5,-4.1000000000000005,-0.02,0.025,7.81,1.0,0.0,0.0,0.0,
2025-08-15T00:08:34.807Z,1,GR86-065-5,-4.1000000000000005,-0.013,0.023,7.82,1.0,,0.0,0.0,0.0
2025-08-15T00:08:34.851Z,1,GR86-065-5,-4.1000000000000005,-0.017,0.027,7.81,1.0,,0.0,0.0,
2025-08-15T00:08:34.893Z,1,GR86-065-5,-4.1000000000000005,-0.017,0.023,7.84,1.0,,0.0,0.0,
2025-08-15T00:08:34.937Z,1,GR86-065-5,-4.1000000000000005,-0.016,0.023,7.82,1.0,,0.0,0.0,
2025-08-15T00:08:34.981Z,1,GR86-065-5,-4.1000000000000005,-0.016,0.025,7.81,1.0,0.0,0.0,0.0,
2025-08-15T00:08:35.024Z,1,GR86-065-5,-4.1000000000000005,-0.017,0.025,7.81,1.0,,0.0,0.0,0.0
2025-08-15T00:08:35.068Z,1,GR86-065-5,-4.1000000000000005,-0.016,0.024,7.81,1.0,,0.0,0.0,
2025-08-15T00:08:35.111Z,1,GR86-065-5,-4.1000000000000005,-0.018,0.027,7.81,1.0,,0.0,0.0,
2025-08-15T00:08:35.153Z,1,GR86-065-5,-4.1000000000000005,-0.018,0.026,7.82,1.0,,0.0,0.0,
2025-08-15T00:08:35.197Z,1,GR86-065-5,-4.1000000000000005,-0.019,0.026,7.81,1.0,0.0,0.0,0.0,
2025-08-15T00:08:35.239Z,1,GR86-065-5,-4.1000000000000005,-0.017,0.025,7.82,1.0,,0.0,0.0,0.0
2025-08-15T00:08:35.282Z,1,GR86-065-5,-4.1000000000000005,-0.017,0.025,7.81,1.0,,0.0,0.0,
2025-08-15T00:08:35.326Z,1,GR86-065-5,-4.1000000000000005,-0.02,0.024,7.82,1.0,,0.0,0.0,
2025-08-15T00:08:35.368Z,1,GR86-065-5,-4.1000000000000005,-0.02,0.029,7.82,1.0,,0.0,0.0,
2025-08-15T00:08:35.411Z,1,GR86-065-5,-4.1000000000000005,-0.018,0.026,7.82,1.0,0.0,0.0,0.0,
2025-08-15T00:08:35.454Z,1,GR86-065-5,-4.1000000000000005,-0.018,0.025,7.82,1.0,,0.0,0.0,0.0
2025-08-15T00:08:35.497Z,1,GR86-065-5,-4.1000000000000005,-0.018,0.026,7.82,1.0,,0.0,0.0,
2025-08-15T00:08:35.541Z,1,GR86-065-5,-4.1000000000000005,-0.017,0.025,7.82,1.0,,0.0,0.0,
2025-08-15T00:08:35.583Z,1,GR86-065-5,-4.1000000000000005,-0.018,0.024,7.81,1.0,,0.0,0.0,
2025-08-15T00:08:35.627Z,1,GR86-065-5,-4.1000000000000005,-0.017,0.026,7.81,1.0,0.0,0.0,0.0,
2025-08-15T00:08:35.670Z,1,GR86-065-5,-4.1000000000000005,-0.015,0.026,7.81,1.0,,0.0,0.0,0.0
2025-08-15T00:08:35.713Z,1,GR86-065-5,-4.1000000000000005,-0.018,0.023,7.82,1.0,,0.0,0.0,
2025-08-15T00:08:35.757Z,1,GR86-065-5,-4.1000000000000005,-0.017,0.023,7.82,1.0,,0.0,0.0,
2025-08-15T00:08:35.801Z,1,GR86-065-5,-4.1000000000000005,-0.017,0.026,7.81,1.0,,0.0,0.0,
2025-08-15T00:08:35.843Z,1,GR86-065-5,-4.1000000000000005,-0.016,0.024,7.82,1.0,0.0,0.0,0.0,
2025-08-15T00:08:35.887Z,1,GR86-065-5,-4.1000000000000005,-0.015,0.024,7.81,1.0,,0.0,0.0,0.0
2025-08-15T00:08:35.930Z,1,GR86-065-5,-4.1000000000000005,-0.019,0.025,7.82,1.0,,0.0,0.0,
2025-08-15T00:08:35.973Z,1,GR86-065-5,-4.1000000000000005,-0.014,0.026,7.82,1.0,,0.0,0.0,
2025-08-15T00:08:36.017Z,1,GR86-065-5,-4.1000000000000005,-0.015,0.025,7.81,1.0,,0.0,0.0,
2025-08-15T00:08:36.059Z,1,GR86-065-5,-4.1000000000000005,-0.017,0.025,7.81,1.0,0.0,0.0,0.0,
2025-08-15T00:08:36.102Z,1,GR86-065-5,-4.1000000000000005,-0.017,0.026,7.81,1.0,,0.0,0.0,0.0
2025-08-15T00:08:36.146Z,1,GR86-065-5,-4.1000000000000005,-0.016,0.025,7.82,1.0,,0.0,0.0,
2025-08-15T00:08:36.189Z,1,GR86-065-5,-4.1000000000000005,-0.017,0.023,7.81,1.0,,0.0,0.0,
2025-08-15T00:08:36.231Z,1,GR86-065-5,-4.1000000000000005,-0.018,0.025,7.82,1.0,,0.0,0.0,
2025-08-15T00:08:36.274Z,1,GR86-065-5,-4.1000000000000005,-0.017,0.026,7.81,1.0,0.0,0.0,0.0,
2025-08-15T00:08:36.317Z,1,GR86-065-5,-4.1000000000000005,-0.015,0.025,7.82,1.0,,0.0,0.0,0.0
2025-08-15T00:08:36.360Z,1,GR86-065-5,-4.1000000000000005,-0.017,0.023,7.82,1.0,,0.0,0.0,
2025-08-15T00:08:36.403Z,1,GR86-065-5,-4.1000000000000005,-0.017,0.025,7.82,1.0,,0.0,0.0,
2025-08-15T00:08:36.447Z,1,GR86-065-5,-4.1000000000000005,-0.017,0.025,7.84,1.0,,0.0,0.0,
2025-08-15T00:08:36.489Z,1,GR86-065-5,-4.1000000000000005,-0.017,0.025,7.82,1.0,0.0,0.0,0.0,
2025-08-15T00:08:36.533Z,1,GR86-065-5,-4.1000000000000005,-0.016,0.026,7.82,1.0,,0.0,0.0,0.0
2025-08-15T00:08:36.577Z,1,GR86-065-5,-4.1000000000000005,-0.016,0.025,7.81,1.0,,0.0,0.0,
2025-08-15T00:08:36.620Z,1,GR86-065-5,-4.1000000000000005,-0.017,0.026,7.82,1.0,,0.0,0.0,
2025-08-15T00:08:36.663Z,1,GR86-065-5,-4.1000000000000005,-0.017,0.024,7.81,1.0,,0.0,0.0,
2025-08-15T00:08:36.707Z,1,GR86-065-5,-4.1000000000000005,-0.017,0.025,7.81,1.0,0.0,0.0,0.0,
2025-08-15T00:08:36.751Z,1,GR86-065-5,-4.1000000000000005,-0.016,0.026,7.82,1.0,,0.0,0.0,0.0
2025-08-15T00:08:36.794Z,1,GR86-065-5,-4.1000000000000005,-0.018,0.026,7.81,1.0,,0.0,0.0,
2025-08-15T00:08:36.837Z,1,GR86-065-5,-4.1000000000000005,-0.017,0.025,7.82,1.0,,0.0,0.0,
2025-08-15T00:08:36.880Z,1,GR86-065-5,-4.1000000000000005,-0.017,0.025,7.83,1.0,,0.0,0.0,
2025-08-15T00:08:36.923Z,1,GR86-065-5,-4.1000000000000005,-0.017,0.025,7.82,1.0,0.0,0.0,0.0,
2025-08-15T00:08:36.967Z,1,GR86-065-5,-4.1000000000000005,-0.016,0.024,7.81,1.0,,0.0,0.0,0.0
2025-08-15T00:08:37.011Z,1,GR86-065-5,-4.1000000000000005,-0.017,0.028,7.81,1.0,,0.0,0.0,
2025-08-15T00:08:37.053Z,1,GR86-065-5,-4.1000000000000005,-0.02,0.027,7.82,1.0,,0.0,0.0,
2025-08-15T00:08:37.097Z,1,GR86-065-5,-4.1000000000000005,-0.018,0.024,7.82,1.0,,0.0,0.0,
2025-08-15T00:08:37.139Z,1,GR86-065-5,-4.1000000000000005,-0.016,0.025,7.82,1.0,0.0,0.0,0.0,
2025-08-15T00:08:37.182Z,1,GR86-065-5,-4.1000000000000005,-0.017,0.027,7.81,1.0,,0.0,0.0,0.0
2025-08-15T00:08:37.226Z,1,GR86-065-5,-4.1000000000000005,-0.017,0.025,7.81,1.0,,0.0,0.0,
2025-08-15T00:08:37.268Z,1,GR86-065-5,-4.1000000000000005,-0.019,0.026,7.82,1.0,,0.0,0.0,
2025-08-15T00:08:37.311Z,1,GR86-065-5,-4.1000000000000005,-0.017,0.025,7.81,1.0,,0.0,0.0,
2025-08-15T00:08:37.354Z,1,GR86-065-5,-4.1000000000000005,-0.017,0.025,7.81,1.0,0.0,0.0,0.0,
2025-08-15T00:08:37.397Z,1,GR86-065-5,-4.1000000000000005,-0.018,0.026,7.82,1.0,,0.0,0.0,0.0
2025-08-15T00:08:37.440Z,1,GR86-065-5,-4.1000000000000005,-0.017,0.025,7.81,1.0,,0.0,0.0,
2025-08-15T00:08:37.483Z,1,GR86-065-5,-4.1000000000000005,-0.017,0.027,7.81,1.0,,0.0,0.0,
2025-08-15T00:08:37.527Z,1,GR86-065-5,-4.1000000000000005,-0.017,0.023,7.81,1.0,,0.0,0.0,
2025-08-15T00:08:37.570Z,1,GR86-065-5,-4.1000000000000005,-0.019,0.028,7.82,1.0,0.0,0.0,0.0,
2025-08-15T00:08:37.613Z,1,GR86-065-5,-4.1000000000000005,-0.017,0.023,7.82,1.0,,0.0,0.0,0.0
2025-08-15T00:08:37.657Z,1,GR86-065-5,-4.1000000000000005,-0.015,0.024,7.82,1.0,,0.0,0.0,
2025-08-15T00:08:37.701Z,1,GR86-065-5,-4.1000000000000005,-0.018,0.026,7.82,1.0,,0.0,0.0,
2025-08-15T00:08:37.743Z,1,GR86-065-5,-4.1000000000000005,-0.016,0.024,7.83,1.0,,0.0,0.0,
2025-08-15T00:08:37.787Z,1,GR86-065-5,-4.1000000000000005,-0.019,0.027,7.83,1.0,0.0,0.0,0.0,
2025-08-15T00:08:37.831Z,1,GR86-065-5,-4.1000000000000005,-0.02,0.024,7.82,1.0,,0.0,0.0,0.0
2025-08-15T00:08:37.873Z,1,GR86-065-5,-4.1000000000000005,-0.016,0.024,7.83,1.0,,0.0,0.0,
2025-08-15T00:08:37.917Z,1,GR86-065-5,-4.1000000000000005,-0.014,0.028,7.82,1.0,,0.0,0.0,
2025-08-15T00:08:37.960Z,1,GR86-065-5,-4.1000000000000005,-0.016,0.024,7.83,1.0,,0.0,0.0,
2025-08-15T00:08:38.003Z,1,GR86-065-5,-4.1000000000000005,-0.017,0.025,7.82,1.0,0.0,0.0,0.0,
2025-08-15T00:08:38.047Z,1,GR86-065-5,-4.1000000000000005,-0.017,0.023,7.81,1.0,,0.0,0.0,0.0
2025-08-15T00:08:38.089Z,1,GR86-065-5,-4.1000000000000005,-0.017,0.026,7.82,1.0,,0.0,0.0,
2025-08-15T00:08:38.132Z,1,GR86-065-5,-4.1000000000000005,-0.018,0.023,7.82,1.0,,0.0,0.0,
2025-08-15T00:08:38.176Z,1,GR86-065-5,-4.1000000000000005,-0.016,0.024,7.81,1.0,,0.0,0.0,
2025-08-15T00:08:38.219Z,1,GR86-065-5,-4.1000000000000005,-0.014,0.025,7.83,1.0,0.0,0.0,0.0,
2025-08-15T00:08:38.262Z,1,GR86-065-5,-4.1000000000000005,-0.018,0.024,7.82,1.0,,0.0,0.0,0.0
2025-08-15T00:08:38.306Z,1,GR86-065-5,-4.1000000000000005,-0.018,0.026,7.82,1.0,,0.0,0.0,
2025-08-15T00:08:38.349Z,1,GR86-065-5,-4.1000000000000005,-0.015,0.025,7.82,1.0,,0.0,0.0,
2025-08-15T00:08:38.391Z,1,GR86-065-5,-4.1000000000000005,-0.016,0.025,7.81,1.0,,0.0,0.0,
2025-08-15T00:08:38.434Z,1,GR86-065-5,-4.1000000000000005,-0.016,0.025,7.82,1.0,0.0,0.0,0.0,
2025-08-15T00:08:38.477Z,1,GR86-065-5,-4.1000000000000005,-0.016,0.025,7.81,1.0,,0.0,0.0,0.0
2025-08-15T00:08:38.521Z,1,GR86-065-5,-4.1000000000000005,-0.017,0.025,7.83,1.0,,0.0,0.0,
2025-08-15T00:08:38.564Z,1,GR86-065-5,-4.1000000000000005,-0.015,0.024,7.82,1.0,,0.0,0.0,
2025-08-15T00:08:38.607Z,1,GR86-065-5,-4.1000000000000005,-0.019,0.026,7.83,1.0,,0.0,0.0,
2025-08-15T00:08:38.651Z,1,GR86-065-5,-4.1000000000000005,-0.017,0.027,7.81,1.0,0.0,0.0,0.0,
2025-08-15T00:08:38.693Z,1,GR86-065-5,-4.1000000000000005,-0.019,0.025,7.81,1.0,,0.0,0.0,0.0
2025-08-15T00:08:38.737Z,1,GR86-065-5,-4.1000000000000005,-0.017,0.024,7.82,1.0,,0.0,0.0,
2025-08-15T00:08:38.781Z,1,GR86-065-5,-4.1000000000000005,-0.014,0.024,7.83,1.0,,0.0,0.0,
2025-08-15T00:08:38.824Z,1,GR86-065-5,-4.1000000000000005,-0.016,0.025,7.82,1.0,,0.0,0.0,
2025-08-15T00:08:38.868Z,1,GR86-065-5,-4.1000000000000005,-0.016,0.024,7.82,1.0,0.0,0.0,0.0,
2025-08-15T00:08:38.911Z,1,GR86-065-5,-4.1000000000000005,-0.02,0.025,7.81,1.0,,0.0,0.0,0.0
2025-08-15T00:08:38.953Z,1,GR86-065-5,-4.1000000000000005,-0.017,0.028,7.82,1.0,,0.0,0.0,
2025-08-15T00:08:38.997Z,1,GR86-065-5,-4.1000000000000005,-0.016,0.024,7.81,1.0,,0.0,0.0,
2025-08-15T00:08:39.039Z,1,GR86-065-5,-4.1000000000000005,-0.017,0.028,7.82,1.0,,0.0,0.0,
2025-08-15T00:08:39.082Z,1,GR86-065-5,-4.1000000000000005,-0.02,0.024,7.82,1.0,0.0,0.0,0.0,
2025-08-15T00:08:39.126Z,1,GR86-065-5,-4.1000000000000005,-0.018,0.027,7.82,1.0,,0.0,0.0,0.0
2025-08-15T00:08:39.170Z,1,GR86-065-5,-4.1000000000000005,-0.016,0.024,7.82,1.0,,0.0,0.0,
2025-08-15T00:08:39.213Z,1,GR86-065-5,-4.1000000000000005,-0.017,0.024,7.82,1.0,,0.0,0.0,
2025-08-15T00:08:39.257Z,1,GR86-065-5,-4.1000000000000005,-0.017,0.026,7.81,1.0,,0.0,0.0,
2025-08-15T00:08:39.301Z,1,GR86-065-5,-4.1000000000000005,-0.018,0.025,7.82,1.0,0.0,0.0,0.0,
