timestamp,lap,vehicle_id,steering_angle,accx_can,accy_can,ath,gear,nmot,pbrake_f,pbrake_r,speed
2025-08-15T04:38:36.179Z,17,GR86-037-03,2.8000000000000003,0.077,-0.095,99.92,5.0,,0.0,0.0,185.44
2025-08-15T04:38:36.223Z,17,GR86-037-03,2.8000000000000003,0.118,-0.082,99.92,5.0,,0.0,0.0,
2025-08-15T04:38:36.265Z,17,GR86-037-03,2.8000000000000003,0.118,-0.056,99.92,5.0,,0.0,0.0,
2025-08-15T04:38:36.308Z,17,GR86-037-03,2.8000000000000003,0.121,-0.043,99.91,5.0,,0.0,0.0,
2025-08-15T04:38:36.351Z,17,GR86-037-03,2.8000000000000003,0.109,0.009,99.91,5.0,6303.0,0.0,0.0,
2025-08-15T04:38:36.394Z,17,GR86-037-03,2.8000000000000003,0.121,0.012,99.91,5.0,,0.0,0.0,185.44
2025-08-15T04:38:36.437Z,17,GR86-037-03,2.8000000000000003,0.121,-0.007,99.91,5.0,,0.0,0.0,
2025-08-15T04:38:36.480Z,17,GR86-037-03,3.0,0.114,0.02,99.92,5.0,,0.0,0.0,
2025-08-15T04:38:36.524Z,17,GR86-037-03,3.7,0.083,0.03,99.92,5.0,,0.0,0.0,
2025-08-15T04:38:36.566Z,17,GR86-037-03,3.7,0.1,0.029,99.9,5.0,6330.0,0.0,0.0,
2025-08-15T04:38:36.609Z,17,GR86-037-03,3.7,0.084,0.027,99.91,5.0,,0.0,0.0,186.12
2025-08-15T04:38:36.652Z,17,GR86-037-03,3.7,0.102,0.035,99.9,5.0,,0.0,0.0,
2025-08-15T04:38:36.695Z,17,GR86-037-03,3.8,0.092,0.063,99.91,5.0,,0.0,0.0,
2025-08-15T04:38:36.738Z,17,GR86-037-03,3.8,0.117,0.069,99.91,5.0,,0.0,0.0,
2025-08-15T04:38:36.781Z,17,GR86-037-03,3.8,0.118,0.069,99.91,5.0,6349.0,0.0,0.0,
2025-08-15T04:38:36.824Z,17,GR86-037-03,3.8,0.084,0.073,99.9,5.0,,0.0,0.0,186.79
2025-08-15T04:38:36.867Z,17,GR86-037-03,3.8,0.079,0.05,99.91,5.0,,0.0,0.0,
2025-08-15T04:38:36.910Z,17,GR86-037-03,3.8,0.076,0.033,99.91,5.0,,0.0,0.0,
2025-08-15T04:38:36.953Z,17,GR86-037-03,3.8,0.067,0.026,99.92,5.0,,0.0,0.0,
2025-08-15T04:38:36.996Z,17,GR86-037-03,3.8,0.076,0.054,99.9,5.0,6377.0,0.0,0.0,
2025-08-15T04:38:37.041Z,17,GR86-037-03,4.5,0.077,0.057,99.92,5.0,,0.0,0.0,187.35
2025-08-15T04:38:37.084Z,17,GR86-037-03,6.4,0.132,0.05,99.91,5.0,,0.0,0.0,
2025-08-15T04:38:37.127Z,17,GR86-037-03,7.2,0.103,0.068,99.91,5.0,,0.0,0.0,
2025-08-15T04:38:37.170Z,17,GR86-037-03,7.300000000000001,0.112,0.087,99.9,5.0,,0.0,0.0,
2025-08-15T04:38:37.213Z,17,GR86-037-03,7.5,0.102,0.117,99.91,5.0,6400.0,0.0,0.0,
2025-08-15T04:38:37.256Z,17,GR86-037-03,8.700000000000001,0.096,0.137,99.9,5.0,,0.0,0.0,188.06
2025-08-15T04:38:37.299Z,17,GR86-037-03,10.0,0.091,0.172,99.91,5.0,,0.0,0.0,
2025-08-15T04:38:37.344Z,17,GR86-037-03,10.3,0.13,0.22,99.92,5.0,,0.0,0.0,
2025-08-15T04:38:37.387Z,17,GR86-037-03,10.3,0.13,0.244,99.91,5.0,,0.0,0.0,
2025-08-15T04:38:37.430Z,17,GR86-037-03,10.3,0.144,0.275,99.91,5.0,6418.0,0.0,0.0,
2025-08-15T04:38:37.473Z,17,GR86-037-03,10.3,0.117,0.286,99.91,5.0,,0.0,0.0,188.8
2025-08-15T04:38:37.516Z,17,GR86-037-03,10.2,0.14,0.315,99.9,5.0,,0.0,0.0,
2025-08-15T04:38:37.559Z,17,GR86-037-03,9.1,0.107,0.339,99.91,5.0,,0.0,0.0,
2025-08-15T04:38:37.603Z,17,GR86-037-03,6.7,0.087,0.326,99.92,5.0,,0.0,0.0,
2025-08-15T04:38:37.646Z,17,GR86-037-03,6.1000000000000005,0.109,0.315,99.92,5.0,6444.0,0.0,0.0,
2025-08-15T04:38:37.689Z,17,GR86-037-03,6.0,0.109,0.291,99.91,5.0,,0.0,0.0,189.48
2025-08-15T04:38:37.732Z,17,GR86-037-03,6.0,0.113,0.268,99.92,5.0,,0.0,0.0,
2025-08-15T04:38:37.775Z,17,GR86-037-03,6.0,0.137,0.241,99.9,5.0,,0.0,0.0,
2025-08-15T04:38:37.819Z,17,GR86-037-03,6.0,0.128,0.221,99.91,5.0,,0.0,0.0,
2025-08-15T04:38:37.863Z,17,GR86-037-03,6.0,0.043,0.185,99.93,5.0,6467.0,0.0,0.0,
2025-08-15T04:38:37.905Z,17,GR86-037-03,6.0,0.088,0.136,99.92,5.0,,0.0,0.0,190.17
2025-08-15T04:38:37.948Z,17,GR86-037-03,6.0,0.057,0.092,99.91,5.0,,0.0,0.0,
2025-08-15T04:38:37.991Z,17,GR86-037-03,6.0,0.086,0.073,99.9,5.0,,0.0,0.0,
2025-08-15T04:38:38.034Z,17,GR86-037-03,6.0,0.093,0.093,99.91,5.0,,0.0,0.0,
2025-08-15T04:38:38.077Z,17,GR86-037-03,6.0,0.118,0.096,99.91,5.0,6496.0,0.0,0.0,
2025-08-15T04:38:38.120Z,17,GR86-037-03,6.0,0.115,0.098,99.91,5.0,,0.0,0.0,190.91
2025-08-15T04:38:38.164Z,17,GR86-037-03,5.2,0.054,0.093,99.91,5.0,,0.0,0.0,
2025-08-15T04:38:38.206Z,17,GR86-037-03,4.0,0.052,0.115,99.92,5.0,,0.0,0.0,
2025-08-15T04:38:38.249Z,17,GR86-037-03,3.7,0.064,0.099,99.91,5.0,,0.0,0.0,
2025-08-15T04:38:38.293Z,17,GR86-037-03,3.7,0.079,0.086,99.91,5.0,6515.0,0.0,0.0,
2025-08-15T04:38:38.335Z,17,GR86-037-03,3.7,0.084,0.1,99.91,5.0,,0.0,0.0,191.58
2025-08-15T04:38:38.379Z,17,GR86-037-03,3.6,0.097,0.074,99.91,5.0,,0.0,0.0,
2025-08-15T04:38:38.423Z,17,GR86-037-03,3.6,0.057,0.057,99.9,5.0,,0.0,0.0,
2025-08-15T04:38:38.465Z,17,GR86-037-03,3.7,0.061,0.031,99.92,5.0,,0.0,0.0,
2025-08-15T04:38:38.508Z,17,GR86-037-03,3.7,0.042,0.034,99.92,5.0,6530.0,0.0,0.0,
2025-08-15T04:38:38.551Z,17,GR86-037-03,3.7,0.07,0.015,99.92,5.0,,0.0,0.0,192.73
2025-08-15T04:38:38.594Z,17,GR86-037-03,3.6,0.07,0.013,99.91,5.0,,0.0,0.0,
2025-08-15T04:38:38.637Z,17,GR86-037-03,3.6,0.077,0.007,99.92,5.0,,0.0,0.0,
2025-08-15T04:38:38.680Z,17,GR86-037-03,3.6,0.11,-0.004,99.92,5.0,,0.0,0.0,
2025-08-15T04:38:38.724Z,17,GR86-037-03,3.6,0.055,-0.01,99.92,5.0,6553.0,0.0,0.0,
2025-08-15T04:38:38.766Z,17,GR86-037-03,3.6,0.064,0.006,99.92,5.0,,0.0,0.0,193.37
2025-08-15T04:38:38.809Z,17,GR86-037-03,3.6,0.057,0.033,99.92,5.0,,0.0,0.0,
2025-08-15T04:38:38.853Z,17,GR86-037-03,3.6,0.064,0.04,99.91,5.0,,0.0,0.0,
2025-08-15T04:38:38.897Z,17,GR86-037-03,3.6,0.088,0.012,99.91,5.0,,0.0,0.0,
2025-08-15T04:38:38.940Z,17,GR86-037-03,3.6,0.082,0.009,99.92,5.0,6572.0,0.0,0.0,
2025-08-15T04:38:38.984Z,17,GR86-037-03,3.6,0.065,0.054,99.91,5.0,,0.0,0.0,194.05
2025-08-15T04:38:39.026Z,17,GR86-037-03,3.6,0.06,0.055,99.9,5.0,,0.0,0.0,
2025-08-15T04:38:39.069Z,17,GR86-037-03,3.6,0.059,0.039,99.9,5.0,,0.0,0.0,
2025-08-15T04:38:39.113Z,17,GR86-037-03,3.6,0.076,0.025,99.91,5.0,,0.0,0.0,
2025-08-15T04:38:39.156Z,17,GR86-037-03,3.6,0.076,0.05,99.92,5.0,6617.0,0.0,0.0,
2025-08-15T04:38:39.199Z,17,GR86-037-03,3.6,0.096,0.039,99.91,5.0,,0.0,0.0,194.72
2025-08-15T04:38:39.244Z,17,GR86-037-03,3.6,0.052,0.016,99.91,5.0,,0.0,0.0,
2025-08-15T04:38:39.287Z,17,GR86-037-03,3.6,0.061,0.018,99.92,5.0,,0.0,0.0,
2025-08-15T04:38:39.330Z,17,GR86-037-03,3.6,0.054,0.043,99.92,5.0,,0.0,0.0,
2025-08-15T04:38:39.373Z,17,GR86-037-03,3.6,0.058,0.016,99.91,5.0,6640.0,0.0,0.0,
2025-08-15T04:38:39.416Z,17,GR86-037-03,3.6,0.064,0.014,99.91,5.0,,0.0,0.0,195.44
2025-08-15T04:38:39.459Z,17,GR86-037-03,3.6,0.079,0.005,99.9,5.0,,0.0,0.0,
2025-08-15T04:38:39.502Z,17,GR86-037-03,3.6,0.054,0.023,99.91,5.0,,0.0,0.0,
2025-08-15T04:38:39.545Z,17,GR86-037-03,3.6,0.038,0.009,99.91,5.0,,0.0,0.0,
2025-08-15T04:38:39.588Z,17,GR86-037-03,3.6,0.047,0.01,99.91,5.0,6669.0,0.0,0.0,
2025-08-15T04:38:39.631Z,17,GR86-037-03,3.6,0.054,0.018,99.92,5.0,,0.0,0.0,196.01
2025-08-15T04:38:39.674Z,17,GR86-037-03,3.6,0.068,0.008,99.91,5.0,,0.0,0.0,
2025-08-15T04:38:39.717Z,17,GR86-037-03,3.6,0.085,0.02,99.91,5.0,,0.0,0.0,
2025-08-15T04:38:39.760Z,17,GR86-037-03,3.6,0.097,0.027,99.89,5.0,,0.0,0.0,
2025-08-15T04:38:39.804Z,17,GR86-037-03,3.6,0.052,0.001,99.92,5.0,6695.0,0.0,0.0,
2025-08-15T04:38:39.847Z,17,GR86-037-03,2.9000000000000004,0.063,0.022,99.91,5.0,,0.0,0.0,196.63
2025-08-15T04:38:39.890Z,17,GR86-037-03,2.5,0.072,0.023,99.92,5.0,,0.0,0.0,
2025-08-15T04:38:39.934Z,17,GR86-037-03,2.5,0.088,0.017,99.92,5.0,,0.0,0.0,
2025-08-15T04:38:39.977Z,17,GR86-037-03,2.4000000000000004,0.096,0.006,99.91,5.0,,0.0,0.0,
2025-08-15T04:38:40.020Z,17,GR86-037-03,2.4000000000000004,0.095,0.009,99.92,5.0,6710.0,0.0,0.0,
2025-08-15T04:38:40.064Z,17,GR86-037-03,2.3000000000000003,0.056,0.009,99.91,5.0,,0.0,0.0,197.28
2025-08-15T04:38:40.106Z,17,GR86-037-03,2.3000000000000003,0.069,-0.015,99.9,5.0,,0.0,0.0,
2025-08-15T04:38:40.149Z,17,GR86-037-03,2.3000000000000003,0.076,-0.012,99.92,5.0,,0.0,0.0,
2025-08-15T04:38:40.192Z,17,GR86-037-03,2.3000000000000003,0.079,-0.018,99.89,5.0,,0.0,0.0,
2025-08-15T04:38:40.235Z,17,GR86-037-03,2.3000000000000003,0.079,-0.024,99.9,5.0,6729.0,0.0,0.0,
2025-08-15T04:38:40.279Z,17,GR86-037-03,2.3000000000000003,0.067,-0.017,99.91,5.0,,0.0,0.0,197.87
2025-08-15T04:38:40.323Z,17,GR86-037-03,2.3000000000000003,0.076,-0.02,99.91,5.0,,0.0,0.0,
2025-08-15T04:38:40.366Z,17,GR86-037-03,2.3000000000000003,0.083,-0.023,99.92,5.0,,0.0,0.0,
2025-08-15T04:38:40.409Z,17,GR86-037-03,2.3000000000000003,0.09,-0.033,99.9,5.0,,0.0,0.0,
2025-08-15T04:38:40.452Z,17,GR86-037-03,2.3000000000000003,0.08,-0.022,99.92,5.0,6744.0,0.0,0.0,
2025-08-15T04:38:40.495Z,17,GR86-037-03,2.3000000000000003,0.071,-0.043,99.9,5.0,,0.0,0.0,198.49
2025-08-15T04:38:40.538Z,17,GR86-037-03,2.3000000000000003,0.045,-0.045,99.92,5.0,,0.0,0.0,
2025-08-15T04:38:40.581Z,17,GR86-037-03,2.3000000000000003,0.055,-0.035,99.89,5.0,,0.0,0.0,
2025-08-15T04:38:40.624Z,17,GR86-037-03,2.3000000000000003,0.102,-0.042,99.91,5.0,,0.0,0.0,
2025-08-15T04:38:40.667Z,17,GR86-037-03,2.3000000000000003,0.066,-0.019,99.91,5.0,6762.0,0.0,0.0,
2025-08-15T04:38:40.710Z,17,GR86-037-03,2.3000000000000003,0.055,-0.021,99.9,5.0,,0.0,0.0,198.97
2025-08-15T04:38:40.753Z,17,GR86-037-03,2.3000000000000003,0.055,-0.028,99.92,5.0,,0.0,0.0,
2025-08-15T04:38:40.796Z,17,GR86-037-03,2.3000000000000003,0.06,-0.033,99.91,5.0,,0.0,0.0,
2025-08-15T04:38:40.839Z,17,GR86-037-03,2.3000000000000003,0.057,-0.041,99.9,5.0,,0.0,0.0,
2025-08-15T04:38:40.883Z,17,GR86-037-03,2.3000000000000003,0.058,-0.042,99.91,5.0,6790.0,0.0,0.0,
2025-08-15T04:38:40.925Z,17,GR86-037-03,2.3000000000000003,0.054,-0.062,99.9,5.0,,0.0,0.0,199.59
2025-08-15T04:38:40.968Z,17,GR86-037-03,2.3000000000000003,0.054,-0.056,99.91,5.0,,0.0,0.0,
2025-08-15T04:38:41.011Z,17,GR86-037-03,2.3000000000000003,0.064,-0.048,99.92,5.0,,0.0,0.0,
2025-08-15T04:38:41.097Z,17,GR86-037-03,2.3000000000000003,0.087,-0.038,99.89,5.0,6804.0,0.0,0.0,
2025-08-15T04:38:41.140Z,17,GR86-037-03,2.3000000000000003,0.086,-0.019,99.9,5.0,,0.0,0.0,200.22
2025-08-15T04:38:41.184Z,17,GR86-037-03,2.3000000000000003,0.049,-0.02,99.91,5.0,,0.0,0.0,
2025-08-15T04:38:41.227Z,17,GR86-037-03,2.3000000000000003,0.089,-0.027,99.89,5.0,,0.0,0.0,
2025-08-15T04:38:41.270Z,17,GR86-037-03,2.3000000000000003,0.08,-0.015,99.89,5.0,,0.0,0.0,
2025-08-15T04:38:41.313Z,17,GR86-037-03,2.3000000000000003,0.091,-0.021,99.9,5.0,6822.0,0.0,0.0,
2025-08-15T04:38:41.356Z,17,GR86-037-03,2.3000000000000003,0.078,-0.027,99.91,5.0,,0.0,0.0,201.42
2025-08-15T04:38:41.399Z,17,GR86-037-03,2.3000000000000003,0.068,-0.042,99.91,5.0,,0.0,0.0,
2025-08-15T04:38:41.444Z,17,GR86-037-03,2.3000000000000003,0.095,-0.033,99.9,5.0,,0.0,0.0,
2025-08-15T04:38:41.487Z,17,GR86-037-03,2.3000000000000003,0.089,-0.007,99.92,5.0,,0.0,0.0,
2025-08-15T04:38:41.530Z,17,GR86-037-03,2.3000000000000003,0.077,-0.021,99.92,5.0,6853.0,0.0,0.0,
2025-08-15T04:38:41.573Z,17,GR86-037-03,2.3000000000000003,0.055,-0.026,99.9,5.0,,0.0,0.0,202.02
2025-08-15T04:38:41.616Z,17,GR86-037-03,2.3000000000000003,0.052,-0.014,99.91,5.0,,0.0,0.0,
2025-08-15T04:38:41.659Z,17,GR86-037-03,2.3000000000000003,0.044,-0.034,99.9,5.0,,0.0,0.0,
2025-08-15T04:38:41.703Z,17,GR86-037-03,2.3000000000000003,0.064,-0.017,99.91,5.0,,0.0,0.0,
2025-08-15T04:38:41.747Z,17,GR86-037-03,2.3000000000000003,0.056,-0.048,99.9,5.0,6897.0,0.0,0.0,
2025-08-15T04:38:41.790Z,17,GR86-037-03,2.3000000000000003,0.049,-0.047,99.91,5.0,,0.0,0.0,202.57
2025-08-15T04:38:41.833Z,17,GR86-037-03,2.3000000000000003,0.057,-0.051,99.9,5.0,,0.0,0.0,
2025-08-15T04:38:41.876Z,17,GR86-037-03,2.3000000000000003,0.048,-0.022,99.92,5.0,,0.0,0.0,
2025-08-15T04:38:41.919Z,17,GR86-037-03,2.3000000000000003,0.064,-0.018,99.88,5.0,,0.0,0.0,
2025-08-15T04:38:41.963Z,17,GR86-037-03,2.3000000000000003,0.034,-0.032,99.91,5.0,6904.0,0.0,0.0,
2025-08-15T04:38:42.006Z,17,GR86-037-03,2.3000000000000003,0.063,-0.036,99.91,5.0,,0.0,0.0,203.19
2025-08-15T04:38:42.049Z,17,GR86-037-03,2.0,0.063,-0.044,99.91,5.0,,0.0,0.0,
2025-08-15T04:38:42.093Z,17,GR86-037-03,1.3,0.075,-0.045,99.9,5.0,,0.0,0.0,
2025-08-15T04:38:42.136Z,17,GR86-037-03,0.0,0.085,-0.046,99.92,5.0,,0.0,0.0,
2025-08-15T04:38:42.179Z,17,GR86-037-03,-0.5,0.059,-0.07,99.88,5.0,6930.0,0.0,0.0,
2025-08-15T04:38:42.223Z,17,GR86-037-03,-0.2,0.071,-0.095,99.91,5.0,,0.0,0.0,203.66
2025-08-15T04:38:42.266Z,17,GR86-037-03,0.2,0.078,-0.097,99.91,5.0,,0.0,0.0,
2025-08-15T04:38:42.309Z,17,GR86-037-03,0.2,0.078,-0.085,99.91,5.0,,0.0,0.0,
2025-08-15T04:38:42.352Z,17,GR86-037-03,0.2,0.054,-0.089,99.92,5.0,,0.0,0.0,
2025-08-15T04:38:42.395Z,17,GR86-037-03,1.3,0.039,-0.116,99.9,5.0,6941.0,0.0,0.0,
2025-08-15T04:38:42.438Z,17,GR86-037-03,1.5,0.05,-0.119,99.91,5.0,,0.0,0.0,204.17
2025-08-15T04:38:42.481Z,17,GR86-037-03,1.5,0.043,-0.117,99.9,5.0,,0.0,0.0,
2025-08-15T04:38:42.524Z,17,GR86-037-03,1.5,0.041,-0.115,99.91,5.0,,0.0,0.0,
2025-08-15T04:38:42.567Z,17,GR86-037-03,1.9,0.031,-0.11,99.91,5.0,,0.0,0.0,
2025-08-15T04:38:42.610Z,17,GR86-037-03,2.3000000000000003,0.033,-0.107,99.9,5.0,6962.0,0.0,0.0,
2025-08-15T04:38:42.653Z,17,GR86-037-03,2.4000000000000004,0.056,-0.065,99.91,5.0,,0.0,0.0,204.61
2025-08-15T04:38:42.696Z,17,GR86-037-03,2.4000000000000004,0.051,-0.044,99.9,5.0,,0.0,0.0,
2025-08-15T04:38:42.739Z,17,GR86-037-03,2.4000000000000004,0.106,-0.02,99.9,5.0,,0.0,0.0,
2025-08-15T04:38:42.784Z,17,GR86-037-03,2.4000000000000004,0.055,-0.018,99.89,5.0,,0.0,0.0,
2025-08-15T04:38:42.827Z,17,GR86-037-03,2.4000000000000004,0.087,-0.026,99.89,5.0,6969.0,0.0,0.0,
2025-08-15T04:38:42.870Z,17,GR86-037-03,2.4000000000000004,0.075,-0.015,99.91,5.0,,0.0,0.0,205.05
2025-08-15T04:38:42.913Z,17,GR86-037-03,2.4000000000000004,0.077,-0.013,99.9,5.0,,0.0,0.0,
2025-08-15T04:38:42.956Z,17,GR86-037-03,2.0,0.069,0.004,99.89,5.0,,0.0,0.0,
2025-08-15T04:38:42.999Z,17,GR86-037-03,1.4,0.043,0.005,99.91,5.0,,0.0,0.0,
2025-08-15T04:38:43.044Z,17,GR86-037-03,1.3,0.078,-0.027,99.91,5.0,6976.0,0.0,0.0,
2025-08-15T04:38:43.087Z,17,GR86-037-03,1.3,0.056,-0.04,99.9,5.0,,0.0,0.0,205.54
2025-08-15T04:38:43.130Z,17,GR86-037-03,1.3,0.034,-0.045,99.91,5.0,,0.0,0.0,
2025-08-15T04:38:43.173Z,17,GR86-037-03,1.1,0.017,-0.052,99.91,5.0,,0.0,0.0,
2025-08-15T04:38:43.216Z,17,GR86-037-03,0.9,0.059,-0.053,99.88,5.0,,0.0,0.0,
2025-08-15T04:38:43.259Z,17,GR86-037-03,0.9,0.05,-0.057,99.91,5.0,7007.0,0.0,0.0,
2025-08-15T04:38:43.303Z,17,GR86-037-03,0.9,0.03,-0.061,99.9,5.0,,0.0,0.0,205.87
2025-08-15T04:38:43.345Z,17,GR86-037-03,1.6,0.051,-0.069,99.91,5.0,,0.0,0.0,
2025-08-15T04:38:43.388Z,17,GR86-037-03,2.7,0.05,-0.068,99.9,5.0,,0.0,0.0,
2025-08-15T04:38:43.431Z,17,GR86-037-03,2.8000000000000003,0.1,-0.071,99.9,5.0,,0.0,0.0,
2025-08-15T04:38:43.474Z,17,GR86-037-03,2.7,0.074,-0.071,99.91,5.0,7009.0,0.0,0.0,
2025-08-15T04:38:43.517Z,17,GR86-037-03,1.9,0.064,-0.057,99.9,5.0,,0.0,0.0,206.36
2025-08-15T04:38:43.560Z,17,GR86-037-03,1.7000000000000002,0.059,-0.059,99.89,5.0,,0.0,0.0,
2025-08-15T04:38:43.604Z,17,GR86-037-03,1.6,0.097,-0.026,99.88,5.0,,0.0,0.0,
2025-08-15T04:38:43.647Z,17,GR86-037-03,2.0,0.058,-0.018,99.89,5.0,,0.0,0.0,
2025-08-15T04:38:43.690Z,17,GR86-037-03,2.4000000000000004,0.044,-0.017,99.9,5.0,7030.0,0.0,0.0,
2025-08-15T04:38:43.733Z,17,GR86-037-03,2.4000000000000004,0.036,0.005,99.89,5.0,,0.0,0.0,206.76
2025-08-15T04:38:43.776Z,17,GR86-037-03,2.4000000000000004,0.035,0.001,99.91,5.0,,0.0,0.0,
2025-08-15T04:38:43.819Z,17,GR86-037-03,2.4000000000000004,0.062,0.002,99.91,5.0,,0.0,0.0,
2025-08-15T04:38:43.863Z,17,GR86-037-03,2.4000000000000004,0.027,0.016,99.89,5.0,,0.0,0.0,
2025-08-15T04:38:43.905Z,17,GR86-037-03,2.4000000000000004,0.036,0.003,99.91,5.0,7044.0,0.0,0.0,
2025-08-15T04:38:43.948Z,17,GR86-037-03,2.4000000000000004,0.071,0.006,99.9,5.0,,0.0,0.0,207.67
2025-08-15T04:38:43.991Z,17,GR86-037-03,2.4000000000000004,0.086,0.008,99.89,5.0,,0.0,0.0,
2025-08-15T04:38:44.034Z,17,GR86-037-03,2.4000000000000004,0.075,-0.006,99.9,5.0,,0.0,0.0,
2025-08-15T04:38:44.077Z,17,GR86-037-03,2.4000000000000004,0.062,-0.028,99.89,5.0,,0.0,0.0,
2025-08-15T04:38:44.120Z,17,GR86-037-03,3.0,0.023,-0.023,99.9,5.0,7053.0,0.0,0.0,
2025-08-15T04:38:44.164Z,17,GR86-037-03,3.6,0.057,-0.02,99.89,5.0,,0.0,0.0,208.13
2025-08-15T04:38:44.206Z,17,GR86-037-03,3.6,0.053,-0.04,99.89,5.0,,0.0,0.0,
2025-08-15T04:38:44.249Z,17,GR86-037-03,3.6,0.017,-0.041,99.9,5.0,,0.0,0.0,
2025-08-15T04:38:44.292Z,17,GR86-037-03,3.6,0.03,-0.013,99.9,5.0,,0.0,0.0,
2025-08-15T04:38:44.335Z,17,GR86-037-03,3.6,0.046,-0.022,99.9,5.0,7073.0,0.0,0.0,
2025-08-15T04:38:44.378Z,17,GR86-037-03,3.6,0.057,-0.002,99.91,5.0,,0.0,0.0,208.65
2025-08-15T04:38:44.421Z,17,GR86-037-03,3.6,0.086,-0.004,99.92,5.0,,0.0,0.0,
2025-08-15T04:38:44.464Z,17,GR86-037-03,3.6,0.059,-0.022,99.9,5.0,,0.0,0.0,
2025-08-15T04:38:44.507Z,17,GR86-037-03,3.6,0.083,-0.009,99.89,5.0,,0.0,0.0,
2025-08-15T04:38:44.550Z,17,GR86-037-03,3.6,0.076,0.007,99.88,5.0,7096.0,0.0,0.0,
2025-08-15T04:38:44.593Z,17,GR86-037-03,3.6,0.062,0.027,97.19,5.0,,0.0,0.0,209.03
2025-08-15T04:38:44.636Z,17,GR86-037-03,3.6,0.052,0.011,37.08,5.0,,0.0,0.0,
2025-08-15T04:38:44.679Z,17,GR86-037-03,3.6,0.018,0.023,4.98,5.0,,0.0,0.0,
2025-08-15T04:38:44.723Z,17,GR86-037-03,3.6,-0.142,0.022,4.38,5.0,,0.0,0.0,
2025-08-15T04:38:44.765Z,17,GR86-037-03,3.6,-0.181,0.07,4.16,5.0,7117.0,4.595,5.11,
2025-08-15T04:38:44.808Z,17,GR86-037-03,3.6,-0.492,0.015,3.84,5.0,,30.075,30.795,209.36
2025-08-15T04:38:44.851Z,17,GR86-037-03,3.6,-0.539,0.0,3.47,5.0,,50.845,50.97,
2025-08-15T04:38:44.894Z,17,GR86-037-03,3.3000000000000003,-1.04,0.079,3.09,5.0,,69.34,68.87,
2025-08-15T04:38:44.937Z,17,GR86-037-03,2.1,-1.338,0.029,2.86,5.0,,79.96000000000001,79.565,
2025-08-15T04:38:44.980Z,17,GR86-037-03,-0.1,-1.386,0.076,2.74,5.0,6849.0,79.365,80.285,
2025-08-15T04:38:45.024Z,17,GR86-037-03,-1.9,-1.307,0.022,2.67,5.0,,75.84,77.245,209.67
2025-08-15T04:38:45.066Z,17,GR86-037-03,-1.9,-1.32,0.058,2.61,5.0,,81.09,83.52,
2025-08-15T04:38:45.109Z,17,GR86-037-03,-2.7,-1.29,0.086,2.57,5.0,,86.435,86.875,
2025-08-15T04:38:45.153Z,17,GR86-037-03,-5.9,-1.355,0.065,2.57,5.0,,91.53,92.31,
2025-08-15T04:38:45.197Z,17,GR86-037-03,-6.9,-1.405,0.161,2.54,5.0,6829.0,95.24,97.1,
2025-08-15T04:38:45.240Z,17,GR86-037-03,-6.300000000000001,-1.317,-0.004,2.54,5.0,,89.515,90.05,207.74
2025-08-15T04:38:45.284Z,17,GR86-037-03,-8.3,-1.314,0.06,2.52,5.0,,89.15,91.5,
2025-08-15T04:38:45.326Z,17,GR86-037-03,-8.700000000000001,-1.221,-0.086,2.51,5.0,,89.24,90.355,
2025-08-15T04:38:45.369Z,17,GR86-037-03,-8.1,-1.329,-0.116,2.52,5.0,,85.625,85.96000000000001,
2025-08-15T04:38:45.413Z,17,GR86-037-03,-6.0,-1.219,-0.108,2.51,5.0,6209.0,85.32000000000001,87.425,
2025-08-15T04:38:45.456Z,17,GR86-037-03,2.6,-1.316,-0.309,32.99,5.0,,86.22,87.24,195.9
2025-08-15T04:38:45.499Z,17,GR86-037-03,11.3,-1.257,-0.145,62.620000000000005,4.0,,86.28,86.875,
2025-08-15T04:38:45.544Z,17,GR86-037-03,12.8,-1.268,-0.056,4.6000000000000005,4.0,,84.39,86.74,
2025-08-15T04:38:45.587Z,17,GR86-037-03,12.8,-1.365,-0.122,4.16,4.0,,78.895,81.12,
2025-08-15T04:38:45.630Z,17,GR86-037-03,12.8,-1.246,-0.158,4.0,4.0,5839.0,72.76,73.935,
2025-08-15T04:38:45.673Z,17,GR86-037-03,14.4,-1.208,-0.177,3.78,4.0,,68.96000000000001,70.485,184.98
2025-08-15T04:38:45.716Z,17,GR86-037-03,15.5,-1.161,-0.172,3.5,4.0,,70.365,71.95,
2025-08-15T04:38:45.759Z,17,GR86-037-03,15.5,-1.122,-0.275,3.21,4.0,,70.745,71.735,
2025-08-15T04:38:45.802Z,17,GR86-037-03,13.8,-1.2,-0.155,2.86,4.0,,70.99,72.485,
2025-08-15T04:38:45.845Z,17,GR86-037-03,12.2,-1.221,-0.237,2.74,4.0,5857.0,68.21000000000001,69.13,
2025-08-15T04:38:45.888Z,17,GR86-037-03,12.1,-1.045,-0.205,2.66,4.0,,61.115,62.0,176.35
2025-08-15T04:38:45.931Z,17,GR86-037-03,12.6,-1.113,-0.162,2.78,4.0,,53.9,54.92,
2025-08-15T04:38:45.974Z,17,GR86-037-03,12.6,-0.997,-0.132,37.47,4.0,,49.075,49.7,
2025-08-15T04:38:46.017Z,17,GR86-037-03,11.2,-0.987,-0.078,60.53,3.0,,46.74,47.015,
2025-08-15T04:38:46.060Z,17,GR86-037-03,5.1000000000000005,-1.111,-0.019,5.95,3.0,6154.0,45.78,46.56,
2025-08-15T04:38:46.103Z,17,GR86-037-03,-9.6,-1.149,-0.063,4.17,3.0,,46.985,48.45,169.1
2025-08-15T04:38:46.146Z,17,GR86-037-03,-15.6,-1.221,-0.225,4.01,3.0,,46.955,47.58,
2025-08-15T04:38:46.189Z,17,GR86-037-03,-17.0,-1.108,-0.188,3.74,3.0,,48.45,49.825,
2025-08-15T04:38:46.233Z,17,GR86-037-03,-17.1,-0.965,-0.266,3.43,3.0,,50.13,51.120000000000005,
2025-08-15T04:38:46.277Z,17,GR86-037-03,-17.7,-1.055,-0.347,3.11,3.0,6053.0,50.435,51.0,
2025-08-15T04:38:46.364Z,17,GR86-037-03,-22.1,-1.019,-0.51,2.7,3.0,,50.465,51.0,162.53
2025-08-15T04:38:46.406Z,17,GR86-037-03,-22.200000000000003,-0.948,-0.534,2.61,3.0,,50.465,50.94,
2025-08-15T04:38:46.449Z,17,GR86-037-03,-21.9,-0.914,-0.553,2.57,3.0,,50.94,51.335,
2025-08-15T04:38:46.492Z,17,GR86-037-03,-20.0,-0.945,-0.6950000000000001,2.54,3.0,6348.0,52.22,52.71,
2025-08-15T04:38:46.535Z,17,GR86-037-03,-15.3,-0.893,-0.624,2.51,3.0,,50.345,51.425,155.77
2025-08-15T04:38:46.578Z,17,GR86-037-03,-9.2,-0.8210000000000001,-0.664,2.51,3.0,,44.025,45.43,
2025-08-15T04:38:46.621Z,17,GR86-037-03,-5.1000000000000005,-0.799,-0.682,2.51,3.0,,37.205,38.595,
2025-08-15T04:38:46.664Z,17,GR86-037-03,-2.6,-0.657,-0.778,2.5,3.0,,22.065,23.12,
2025-08-15T04:38:46.707Z,17,GR86-037-03,-2.5,-0.607,-0.842,2.5,3.0,6646.0,13.2,14.085,
2025-08-15T04:38:46.750Z,17,GR86-037-03,-4.9,-0.407,-0.885,2.48,3.0,,6.425,7.11,142.86
2025-08-15T04:38:46.793Z,17,GR86-037-03,-12.1,-0.281,-0.911,2.49,3.0,,2.64,3.435,
2025-08-15T04:38:46.836Z,17,GR86-037-03,-23.700000000000003,-0.223,-1.019,2.49,3.0,,1.925,2.4250000000000003,
2025-08-15T04:38:46.879Z,17,GR86-037-03,-35.4,-0.209,-1.034,2.48,3.0,,0.0,1.83,
2025-08-15T04:38:46.923Z,17,GR86-037-03,-44.8,-0.195,-1.092,2.48,3.0,6210.0,0.0,0.0,
2025-08-15T04:38:46.966Z,17,GR86-037-03,-45.900000000000006,-0.206,-1.087,2.48,3.0,,0.0,0.0,137.79
2025-08-15T04:38:47.009Z,17,GR86-037-03,-45.900000000000006,-0.219,-1.112,2.48,3.0,,0.0,0.0,
2025-08-15T04:38:47.052Z,17,GR86-037-03,-45.900000000000006,-0.206,-1.081,2.48,3.0,,0.0,0.0,
2025-08-15T04:38:47.095Z,17,GR86-037-03,-44.1,-0.208,-1.133,2.48,3.0,,0.0,0.0,
2025-08-15T04:38:47.138Z,17,GR86-037-03,-36.7,-0.214,-1.164,2.49,3.0,6093.0,0.0,0.0,
2025-08-15T04:38:47.181Z,17,GR86-037-03,-25.700000000000003,-0.193,-1.086,2.48,3.0,,0.0,0.0,134.82
2025-08-15T04:38:47.224Z,17,GR86-037-03,-22.200000000000003,-0.181,-1.045,2.49,3.0,,0.0,0.0,
2025-08-15T04:38:47.267Z,17,GR86-037-03,-30.5,-0.155,-1.063,2.67,3.0,,0.0,0.0,
2025-08-15T04:38:47.310Z,17,GR86-037-03,-42.8,-0.194,-1.117,27.07,3.0,,0.0,0.0,
2025-08-15T04:38:47.353Z,17,GR86-037-03,-54.3,-0.202,-1.19,29.3,3.0,6068.0,0.0,0.0,
2025-08-15T04:38:47.396Z,17,GR86-037-03,-59.8,-0.168,-1.242,30.58,3.0,,0.0,0.0,133.8
2025-08-15T04:38:47.439Z,17,GR86-037-03,-60.0,-0.136,-1.269,32.410000000000004,3.0,,0.0,0.0,
2025-08-15T04:38:47.483Z,17,GR86-037-03,-52.2,0.019,-1.227,34.51,3.0,,0.0,0.0,
2025-08-15T04:38:47.526Z,17,GR86-037-03,-40.3,0.178,-1.23,35.47,3.0,,0.0,0.0,
2025-08-15T04:38:47.570Z,17,GR86-037-03,-26.9,0.103,-1.234,38.93,3.0,5997.0,0.0,0.0,
2025-08-15T04:38:47.613Z,17,GR86-037-03,-19.9,0.075,-1.18,44.68,3.0,,0.0,0.0,132.59
2025-08-15T04:38:47.656Z,17,GR86-037-03,-23.5,0.104,-1.175,45.67,3.0,,0.0,0.0,
2025-08-15T04:38:47.699Z,17,GR86-037-03,-34.0,0.111,-1.215,45.74,3.0,,0.0,0.0,
2025-08-15T04:38:47.744Z,17,GR86-037-03,-52.3,0.129,-1.208,47.07,3.0,,0.0,0.0,
2025-08-15T04:38:47.787Z,17,GR86-037-03,-58.400000000000006,0.094,-1.308,48.43,3.0,6237.0,0.0,0.0,
2025-08-15T04:38:47.830Z,17,GR86-037-03,-58.5,0.092,-1.268,48.66,3.0,,0.0,0.0,130.62
2025-08-15T04:38:47.873Z,17,GR86-037-03,-55.2,0.115,-1.281,48.77,3.0,,0.0,0.0,
2025-08-15T04:38:47.959Z,17,GR86-037-03,-50.5,0.126,-1.249,48.72,3.0,,0.0,0.0,
2025-08-15T04:38:48.003Z,17,GR86-037-03,-29.8,0.12,-1.178,47.11,3.0,6205.0,0.0,0.0,
2025-08-15T04:38:48.047Z,17,GR86-037-03,-19.700000000000003,0.117,-1.119,46.18,3.0,,0.0,0.0,130.56
2025-08-15T04:38:48.090Z,17,GR86-037-03,-16.2,0.11,-1.176,46.16,3.0,,0.0,0.0,
2025-08-15T04:38:48.133Z,17,GR86-037-03,-22.700000000000003,0.129,-0.958,46.41,3.0,,0.0,0.0,
2025-08-15T04:38:48.176Z,17,GR86-037-03,-35.9,0.063,-1.135,45.76,3.0,,0.0,0.0,
2025-08-15T04:38:48.219Z,17,GR86-037-03,-50.3,0.181,-1.087,42.98,3.0,6228.0,0.0,0.0,
2025-08-15T04:38:48.263Z,17,GR86-037-03,-60.2,-0.045,-1.016,43.84,3.0,,0.0,0.0,130.66
2025-08-15T04:38:48.306Z,17,GR86-037-03,-59.6,-0.079,-0.955,43.67,3.0,,0.0,0.0,
2025-08-15T04:38:48.349Z,17,GR86-037-03,-56.7,-0.021,-1.016,42.59,3.0,,0.0,0.0,
2025-08-15T04:38:48.393Z,17,GR86-037-03,-54.5,0.042,-0.95,38.71,3.0,,0.0,0.0,
2025-08-15T04:38:48.435Z,17,GR86-037-03,-52.5,0.135,-1.229,37.62,3.0,6254.0,0.0,0.0,
2025-08-15T04:38:48.479Z,17,GR86-037-03,-49.400000000000006,0.286,-1.224,36.61,3.0,,0.0,0.0,132.06
2025-08-15T04:38:48.523Z,17,GR86-037-03,-40.900000000000006,0.084,-1.375,36.95,3.0,,0.0,0.0,
2025-08-15T04:38:48.565Z,17,GR86-037-03,-34.0,0.136,-1.198,38.24,3.0,,0.0,0.0,
2025-08-15T04:38:48.608Z,17,GR86-037-03,-27.4,0.145,-1.272,38.36,3.0,,0.0,0.0,
2025-08-15T04:38:48.651Z,17,GR86-037-03,-20.9,0.114,-1.003,38.36,3.0,6378.0,0.0,0.0,
2025-08-15T04:38:48.694Z,17,GR86-037-03,-15.9,-0.003,-1.01,38.45,3.0,,0.0,0.0,131.83
2025-08-15T04:38:48.737Z,17,GR86-037-03,-12.0,0.055,-1.056,38.08,3.0,,0.0,0.0,
2025-08-15T04:38:48.780Z,17,GR86-037-03,-8.4,0.099,-1.312,37.85,3.0,,0.0,0.0,
2025-08-15T04:38:48.824Z,17,GR86-037-03,-2.9000000000000004,0.045,-1.168,47.66,3.0,,0.0,0.0,
2025-08-15T04:38:48.866Z,17,GR86-037-03,-1.9,-0.085,-1.175,81.56,3.0,6275.0,0.0,0.0,
2025-08-15T04:38:48.909Z,17,GR86-037-03,-3.8,-0.061,-1.238,99.75,3.0,,0.0,0.0,132.81
2025-08-15T04:38:48.952Z,17,GR86-037-03,-4.4,0.085,-1.198,99.88,3.0,,0.0,0.0,
2025-08-15T04:38:48.995Z,17,GR86-037-03,-2.7,0.254,-1.267,99.87,3.0,,0.0,0.0,
2025-08-15T04:38:49.038Z,17,GR86-037-03,7.0,0.27,-1.401,99.89,3.0,,0.0,0.0,
2025-08-15T04:38:49.081Z,17,GR86-037-03,23.5,0.187,-1.268,99.85,3.0,6615.0,0.0,0.0,
2025-08-15T04:38:49.124Z,17,GR86-037-03,36.3,0.197,-1.086,99.89,3.0,,0.0,0.0,133.31
2025-08-15T04:38:49.167Z,17,GR86-037-03,25.1,0.216,-1.132,99.91,3.0,,0.0,0.0,
2025-08-15T04:38:49.210Z,17,GR86-037-03,3.2,0.243,-1.154,99.89,3.0,,0.0,0.0,
2025-08-15T04:38:49.253Z,17,GR86-037-03,-22.9,0.225,-1.277,99.88,3.0,,0.0,0.0,
2025-08-15T04:38:49.296Z,17,GR86-037-03,-46.7,0.175,-1.221,99.88,3.0,6490.0,0.0,0.0,
2025-08-15T04:38:49.339Z,17,GR86-037-03,-62.6,0.133,-1.164,99.89,3.0,,0.0,0.0,134.49
2025-08-15T04:38:49.384Z,17,GR86-037-03,-69.3,0.165,-1.21,99.88,3.0,,0.0,0.0,
2025-08-15T04:38:49.427Z,17,GR86-037-03,-69.3,0.181,-1.162,99.88,3.0,,0.0,0.0,
2025-08-15T04:38:49.470Z,17,GR86-037-03,-69.3,0.135,-1.199,99.89,3.0,,0.0,0.0,
2025-08-15T04:38:49.513Z,17,GR86-037-03,-69.3,0.109,-1.186,99.89,3.0,6490.0,0.0,0.0,
2025-08-15T04:38:49.556Z,17,GR86-037-03,-69.3,0.107,-1.182,99.87,3.0,,0.0,0.0,134.64
2025-08-15T04:38:49.599Z,17,GR86-037-03,-69.3,0.146,-1.17,99.89,3.0,,0.0,0.0,
2025-08-15T04:38:49.644Z,17,GR86-037-03,-69.3,0.136,-1.197,99.89,3.0,,0.0,0.0,
2025-08-15T04:38:49.687Z,17,GR86-037-03,-69.3,0.132,-1.222,99.88,3.0,,0.0,0.0,
2025-08-15T04:38:49.730Z,17,GR86-037-03,-69.3,0.115,-1.204,99.9,3.0,6437.0,0.0,0.0,
2025-08-15T04:38:49.773Z,17,GR86-037-03,-66.9,0.107,-1.207,99.89,3.0,,0.0,0.0,134.4
2025-08-15T04:38:49.816Z,17,GR86-037-03,-59.6,0.136,-1.197,99.88,3.0,,0.0,0.0,
2025-08-15T04:38:49.859Z,17,GR86-037-03,-46.400000000000006,0.142,-1.234,99.88,3.0,,0.0,0.0,
2025-08-15T04:38:49.903Z,17,GR86-037-03,-21.0,0.166,-1.247,99.88,3.0,,0.0,0.0,
2025-08-15T04:38:49.946Z,17,GR86-037-03,-7.2,0.182,-1.191,99.88,3.0,6480.0,0.0,0.0,
2025-08-15T04:38:49.989Z,17,GR86-037-03,-2.3000000000000003,0.165,-1.093,99.88,3.0,,0.0,0.0,135.66
2025-08-15T04:38:50.032Z,17,GR86-037-03,-4.5,0.162,-1.101,99.89,3.0,,0.0,0.0,
2025-08-15T04:38:50.075Z,17,GR86-037-03,-9.1,0.192,-1.164,99.89,3.0,,0.0,0.0,
2025-08-15T04:38:50.119Z,17,GR86-037-03,-11.8,0.19,-1.166,99.88,3.0,,0.0,0.0,
2025-08-15T04:38:50.163Z,17,GR86-037-03,-8.6,0.178,-1.041,99.9,3.0,6571.0,0.0,0.0,
2025-08-15T04:38:50.205Z,17,GR86-037-03,0.2,0.117,-0.952,99.88,3.0,,0.0,0.0,137.29
2025-08-15T04:38:50.248Z,17,GR86-037-03,10.4,0.113,-0.621,99.89,3.0,,0.0,0.0,
2025-08-15T04:38:50.291Z,17,GR86-037-03,11.7,0.207,-0.913,99.89,3.0,,0.0,0.0,
2025-08-15T04:38:50.334Z,17,GR86-037-03,5.9,0.298,-0.919,99.88,3.0,,0.0,0.0,
2025-08-15T04:38:50.377Z,17,GR86-037-03,-1.5,0.251,-0.7030000000000001,99.88,3.0,6631.0,0.0,0.0,
2025-08-15T04:38:50.420Z,17,GR86-037-03,-11.7,0.055,-0.713,99.88,3.0,,0.0,0.0,138.22
2025-08-15T04:38:50.464Z,17,GR86-037-03,-13.3,0.306,-0.8310000000000001,99.89,3.0,,0.0,0.0,
2025-08-15T04:38:50.506Z,17,GR86-037-03,-4.0,0.123,-0.868,99.89,3.0,,0.0,0.0,
2025-08-15T04:38:50.549Z,17,GR86-037-03,5.300000000000001,-0.003,-1.134,99.89,3.0,,0.0,0.0,
2025-08-15T04:38:50.593Z,17,GR86-037-03,10.2,0.082,-1.223,99.88,3.0,6710.0,0.0,0.0,
2025-08-15T04:38:50.635Z,17,GR86-037-03,10.5,0.204,-1.215,99.89,3.0,,0.0,0.0,137.94
2025-08-15T04:38:50.679Z,17,GR86-037-03,8.3,0.341,-1.179,99.89,3.0,,0.0,0.0,
2025-08-15T04:38:50.723Z,17,GR86-037-03,0.5,0.299,-1.255,99.88,3.0,,0.0,0.0,
2025-08-15T04:38:50.765Z,17,GR86-037-03,-4.800000000000001,0.198,-1.321,99.88,3.0,,0.0,0.0,
2025-08-15T04:38:50.808Z,17,GR86-037-03,-15.9,0.219,-1.159,99.89,3.0,6788.0,0.0,0.0,
2025-08-15T04:38:50.853Z,17,GR86-037-03,-25.1,0.174,-1.038,99.88,3.0,,0.0,0.0,139.0
2025-08-15T04:38:50.897Z,17,GR86-037-03,-30.3,0.146,-0.97,99.88,3.0,,0.0,0.0,
2025-08-15T04:38:50.940Z,17,GR86-037-03,-30.0,0.153,-0.922,99.88,3.0,,0.0,0.0,
2025-08-15T04:38:50.984Z,17,GR86-037-03,-27.0,0.204,-0.939,99.89,3.0,,0.0,0.0,
2025-08-15T04:38:51.026Z,17,GR86-037-03,-26.9,0.211,-0.993,99.89,3.0,6716.0,0.0,0.0,
2025-08-15T04:38:51.069Z,17,GR86-037-03,-27.4,0.152,-1.0,99.89,3.0,,0.0,0.0,139.67000000000002
2025-08-15T04:38:51.113Z,17,GR86-037-03,-28.3,0.124,-1.124,99.89,3.0,,0.0,0.0,
2025-08-15T04:38:51.156Z,17,GR86-037-03,-28.3,0.21,-1.084,99.89,3.0,,0.0,0.0,
2025-08-15T04:38:51.199Z,17,GR86-037-03,-27.9,0.203,-1.025,99.88,3.0,,0.0,0.0,
2025-08-15T04:38:51.244Z,17,GR86-037-03,-24.700000000000003,0.161,-0.965,99.89,3.0,6765.0,0.0,0.0,
2025-08-15T04:38:51.287Z,17,GR86-037-03,-23.9,0.176,-0.845,99.89,3.0,,0.0,0.0,140.5
2025-08-15T04:38:51.330Z,17,GR86-037-03,-23.9,0.176,-0.866,99.88,3.0,,0.0,0.0,
2025-08-15T04:38:51.373Z,17,GR86-037-03,-23.9,0.207,-0.74,99.88,3.0,,0.0,0.0,
2025-08-15T04:38:51.416Z,17,GR86-037-03,-23.9,0.133,-0.744,99.87,3.0,,0.0,0.0,
2025-08-15T04:38:51.459Z,17,GR86-037-03,-24.0,0.183,-0.6970000000000001,99.89,3.0,6754.0,0.0,0.0,
2025-08-15T04:38:51.502Z,17,GR86-037-03,-22.0,0.192,-0.6960000000000001,99.88,3.0,,0.0,0.0,141.49
2025-08-15T04:38:51.545Z,17,GR86-037-03,-15.4,0.168,-0.782,99.89,3.0,,0.0,0.0,
2025-08-15T04:38:51.588Z,17,GR86-037-03,-7.9,0.197,-0.6880000000000001,99.89,3.0,,0.0,0.0,
2025-08-15T04:38:51.631Z,17,GR86-037-03,-4.3,0.22,-0.769,99.86,3.0,,0.0,0.0,
2025-08-15T04:38:51.674Z,17,GR86-037-03,-4.4,0.231,-0.6910000000000001,99.87,3.0,6762.0,0.0,0.0,
2025-08-15T04:38:51.717Z,17,GR86-037-03,-8.200000000000001,0.186,-0.5630000000000001,99.88,3.0,,0.0,0.0,142.95000000000002
2025-08-15T04:38:51.760Z,17,GR86-037-03,-10.0,0.162,-0.652,99.9,3.0,,0.0,0.0,
2025-08-15T04:38:51.804Z,17,GR86-037-03,-10.0,0.202,-0.463,99.89,3.0,,0.0,0.0,
2025-08-15T04:38:51.847Z,17,GR86-037-03,-10.0,0.194,-0.345,99.89,3.0,,0.0,0.0,
2025-08-15T04:38:51.890Z,17,GR86-037-03,-10.0,0.225,-0.224,99.88,3.0,6805.0,0.0,0.0,
2025-08-15T04:38:51.934Z,17,GR86-037-03,-10.0,0.086,-0.196,99.86,3.0,,0.0,0.0,144.32
2025-08-15T04:38:51.977Z,17,GR86-037-03,-9.8,0.092,-0.211,99.89,3.0,,0.0,0.0,
2025-08-15T04:38:52.020Z,17,GR86-037-03,-7.4,0.187,-0.245,99.85,3.0,,0.0,0.0,
2025-08-15T04:38:52.064Z,17,GR86-037-03,0.7000000000000001,0.273,-0.355,99.88,3.0,,0.0,0.0,
2025-08-15T04:38:52.106Z,17,GR86-037-03,6.0,0.187,-0.338,99.89,3.0,6865.0,0.0,0.0,
2025-08-15T04:38:52.149Z,17,GR86-037-03,8.5,0.149,-0.411,99.89,3.0,,0.0,0.0,146.84
2025-08-15T04:38:52.192Z,17,GR86-037-03,9.6,0.135,-0.032,99.86,3.0,,0.0,0.0,
2025-08-15T04:38:52.235Z,17,GR86-037-03,10.9,0.039,-0.314,99.89,3.0,,0.0,0.0,
2025-08-15T04:38:52.278Z,17,GR86-037-03,11.3,0.235,-0.025,99.88,3.0,,0.0,0.0,
2025-08-15T04:38:52.321Z,17,GR86-037-03,11.3,0.157,-0.203,99.89,3.0,6936.0,0.0,0.0,
2025-08-15T04:38:52.364Z,17,GR86-037-03,10.1,0.12,-0.04,99.89,3.0,,0.0,0.0,148.31
2025-08-15T04:38:52.407Z,17,GR86-037-03,9.4,-0.009,0.116,99.87,3.0,,0.0,0.0,
2025-08-15T04:38:52.450Z,17,GR86-037-03,9.4,0.171,0.112,99.86,3.0,,0.0,0.0,
2025-08-15T04:38:52.493Z,17,GR86-037-03,9.3,0.202,0.256,99.88,3.0,,0.0,0.0,
2025-08-15T04:38:52.536Z,17,GR86-037-03,9.3,0.178,0.324,99.89,3.0,6955.0,0.0,0.0,
2025-08-15T04:38:52.579Z,17,GR86-037-03,9.3,0.076,0.25,99.9,3.0,,0.0,0.0,150.33
2025-08-15T04:38:52.623Z,17,GR86-037-03,9.3,0.024,0.341,99.87,4.0,,0.0,0.0,
2025-08-15T04:38:52.666Z,17,GR86-037-03,9.3,0.471,0.508,99.9,4.0,,0.0,0.0,
2025-08-15T04:38:52.709Z,17,GR86-037-03,9.6,0.391,0.347,99.89,4.0,,0.0,0.0,
2025-08-15T04:38:52.752Z,17,GR86-037-03,10.1,0.3,0.453,99.89,4.0,7180.0,0.0,0.0,
2025-08-15T04:38:52.795Z,17,GR86-037-03,10.1,0.27,0.468,99.88,4.0,,0.0,0.0,151.04
2025-08-15T04:38:52.838Z,17,GR86-037-03,10.1,0.063,0.347,99.89,4.0,,0.0,0.0,
2025-08-15T04:38:52.881Z,17,GR86-037-03,10.1,0.115,0.368,99.89,4.0,,0.0,0.0,
2025-08-15T04:38:52.924Z,17,GR86-037-03,10.1,0.165,0.313,99.9,4.0,,0.0,0.0,
2025-08-15T04:38:52.967Z,17,GR86-037-03,10.1,0.17,0.305,99.89,4.0,6256.0,0.0,0.0,
2025-08-15T04:38:53.010Z,17,GR86-037-03,10.1,0.139,0.272,99.88,4.0,,0.0,0.0,152.32
2025-08-15T04:38:53.053Z,17,GR86-037-03,10.1,0.16,0.25,99.87,4.0,,0.0,0.0,
2025-08-15T04:38:53.096Z,17,GR86-037-03,10.1,0.172,0.227,99.88,4.0,,0.0,0.0,
2025-08-15T04:38:53.139Z,17,GR86-037-03,10.1,0.15,0.222,99.88,4.0,,0.0,0.0,
2025-08-15T04:38:53.183Z,17,GR86-037-03,10.1,0.159,0.21,99.89,4.0,6089.0,0.0,0.0,
2025-08-15T04:38:53.225Z,17,GR86-037-03,10.1,0.154,0.222,99.88,4.0,,0.0,0.0,154.26
2025-08-15T04:38:53.268Z,17,GR86-037-03,10.1,0.141,0.221,99.89,4.0,,0.0,0.0,
2025-08-15T04:38:53.311Z,17,GR86-037-03,10.1,0.158,0.227,99.89,4.0,,0.0,0.0,
2025-08-15T04:38:53.354Z,17,GR86-037-03,10.1,0.168,0.223,99.88,4.0,,0.0,0.0,
2025-08-15T04:38:53.397Z,17,GR86-037-03,10.1,0.161,0.233,99.88,4.0,6137.0,0.0,0.0,
2025-08-15T04:38:53.440Z,17,GR86-037-03,10.1,0.17,0.232,99.88,4.0,,0.0,0.0,155.5
2025-08-15T04:38:53.484Z,17,GR86-037-03,10.1,0.147,0.245,99.89,4.0,,0.0,0.0,
2025-08-15T04:38:53.526Z,17,GR86-037-03,10.1,0.167,0.246,99.89,4.0,,0.0,0.0,
2025-08-15T04:38:53.570Z,17,GR86-037-03,10.1,0.172,0.26,99.9,4.0,,0.0,0.0,
2025-08-15T04:38:53.613Z,17,GR86-037-03,10.1,0.155,0.255,99.88,4.0,6203.0,0.0,0.0,
2025-08-15T04:38:53.656Z,17,GR86-037-03,10.1,0.152,0.25,99.89,4.0,,0.0,0.0,156.81
2025-08-15T04:38:53.699Z,17,GR86-037-03,10.1,0.133,0.257,99.9,4.0,,0.0,0.0,
2025-08-15T04:38:53.744Z,17,GR86-037-03,8.9,0.159,0.269,99.89,4.0,,0.0,0.0,
2025-08-15T04:38:53.787Z,17,GR86-037-03,8.4,0.163,0.264,99.88,4.0,,0.0,0.0,
2025-08-15T04:38:53.830Z,17,GR86-037-03,8.3,0.147,0.24,99.88,4.0,6255.0,0.0,0.0,
2025-08-15T04:38:53.873Z,17,GR86-037-03,8.3,0.153,0.22,99.9,4.0,,0.0,0.0,158.20000000000002
2025-08-15T04:38:53.916Z,17,GR86-037-03,8.1,0.146,0.202,99.89,4.0,,0.0,0.0,
2025-08-15T04:38:53.959Z,17,GR86-037-03,7.300000000000001,0.143,0.188,99.89,4.0,,0.0,0.0,
2025-08-15T04:38:54.003Z,17,GR86-037-03,6.2,0.151,0.161,99.88,4.0,,0.0,0.0,
2025-08-15T04:38:54.047Z,17,GR86-037-03,6.0,0.156,0.149,99.89,4.0,6312.0,0.0,0.0,
2025-08-15T04:38:54.090Z,17,GR86-037-03,6.0,0.134,0.134,99.89,4.0,,0.0,0.0,159.69
2025-08-15T04:38:54.133Z,17,GR86-037-03,5.9,0.145,0.115,99.88,4.0,,0.0,0.0,
2025-08-15T04:38:54.176Z,17,GR86-037-03,5.800000000000001,0.147,0.108,99.9,4.0,,0.0,0.0,
2025-08-15T04:38:54.219Z,17,GR86-037-03,5.4,0.145,0.092,99.89,4.0,,0.0,0.0,
2025-08-15T04:38:54.264Z,17,GR86-037-03,5.2,0.141,0.069,99.88,4.0,6365.0,0.0,0.0,
2025-08-15T04:38:54.306Z,17,GR86-037-03,4.7,0.163,0.063,99.88,4.0,,0.0,0.0,161.26
2025-08-15T04:38:54.349Z,17,GR86-037-03,4.4,0.129,0.047,99.88,4.0,,0.0,0.0,
2025-08-15T04:38:54.393Z,17,GR86-037-03,4.4,0.122,0.039,99.89,4.0,,0.0,0.0,
2025-08-15T04:38:54.435Z,17,GR86-037-03,4.4,0.131,0.034,99.9,4.0,,0.0,0.0,
2025-08-15T04:38:54.479Z,17,GR86-037-03,4.0,0.145,0.044,99.89,4.0,6425.0,0.0,0.0,
2025-08-15T04:38:54.521Z,17,GR86-037-03,3.4000000000000004,0.154,0.045,99.88,4.0,,0.0,0.0,162.8
2025-08-15T04:38:54.564Z,17,GR86-037-03,2.7,0.147,0.004,99.89,4.0,,0.0,0.0,
2025-08-15T04:38:54.607Z,17,GR86-037-03,2.1,0.131,0.007,99.88,4.0,,0.0,0.0,
2025-08-15T04:38:54.650Z,17,GR86-037-03,1.2000000000000002,0.142,-0.019,99.89,4.0,,0.0,0.0,
2025-08-15T04:38:54.693Z,17,GR86-037-03,0.2,0.137,-0.017,99.88,4.0,6472.0,0.0,0.0,
2025-08-15T04:38:54.736Z,17,GR86-037-03,-0.5,0.142,-0.036,99.89,4.0,,0.0,0.0,164.34
2025-08-15T04:38:54.779Z,17,GR86-037-03,-0.6000000000000001,0.151,-0.068,99.89,4.0,,0.0,0.0,
2025-08-15T04:38:54.823Z,17,GR86-037-03,-0.6000000000000001,0.14,-0.128,99.89,4.0,,0.0,0.0,
2025-08-15T04:38:54.865Z,17,GR86-037-03,-0.6000000000000001,0.142,-0.137,99.89,4.0,,0.0,0.0,
2025-08-15T04:38:54.908Z,17,GR86-037-03,-0.6000000000000001,0.126,-0.145,99.88,4.0,6538.0,0.0,0.0,
2025-08-15T04:38:54.951Z,17,GR86-037-03,-0.6000000000000001,0.125,-0.152,99.88,4.0,,0.0,0.0,167.55
2025-08-15T04:38:54.994Z,17,GR86-037-03,-0.6000000000000001,0.134,-0.161,99.88,4.0,,0.0,0.0,
2025-08-15T04:38:55.037Z,17,GR86-037-03,-0.6000000000000001,0.131,-0.177,99.89,4.0,,0.0,0.0,
2025-08-15T04:38:55.080Z,17,GR86-037-03,-0.6000000000000001,0.138,-0.176,99.89,4.0,,0.0,0.0,
2025-08-15T04:38:55.123Z,17,GR86-037-03,-0.6000000000000001,0.145,-0.182,99.89,4.0,6600.0,0.0,0.0,
2025-08-15T04:38:55.166Z,17,GR86-037-03,-0.6000000000000001,0.129,-0.163,99.89,4.0,,0.0,0.0,169.08
2025-08-15T04:38:55.209Z,17,GR86-037-03,-1.1,0.127,-0.16,99.89,4.0,,0.0,0.0,
2025-08-15T04:38:55.252Z,17,GR86-037-03,-2.2,0.126,-0.164,99.88,4.0,,0.0,0.0,
2025-08-15T04:38:55.295Z,17,GR86-037-03,-3.0,0.132,-0.185,99.89,4.0,,0.0,0.0,
2025-08-15T04:38:55.338Z,17,GR86-037-03,-3.1,0.132,-0.194,99.89,4.0,6657.0,0.0,0.0,
2025-08-15T04:38:55.381Z,17,GR86-037-03,-3.1,0.114,-0.192,99.9,4.0,,0.0,0.0,170.57
2025-08-15T04:38:55.424Z,17,GR86-037-03,-3.1,0.146,-0.229,99.88,4.0,,0.0,0.0,
2025-08-15T04:38:55.467Z,17,GR86-037-03,-3.2,0.142,-0.243,99.88,4.0,,0.0,0.0,
2025-08-15T04:38:55.510Z,17,GR86-037-03,-3.3000000000000003,0.134,-0.257,99.89,4.0,,0.0,0.0,
2025-08-15T04:38:55.553Z,17,GR86-037-03,-3.5,0.14,-0.257,99.89,4.0,6772.0,0.0,0.0,
2025-08-15T04:38:55.596Z,17,GR86-037-03,-3.6,0.127,-0.251,99.89,4.0,,0.0,0.0,172.04
2025-08-15T04:38:55.639Z,17,GR86-037-03,-3.7,0.136,-0.253,99.89,4.0,,0.0,0.0,
2025-08-15T04:38:55.684Z,17,GR86-037-03,-3.7,0.147,-0.267,99.89,4.0,,0.0,0.0,
2025-08-15T04:38:55.727Z,17,GR86-037-03,-3.7,0.132,-0.28,99.89,4.0,,0.0,0.0,
2025-08-15T04:38:55.770Z,17,GR86-037-03,-3.7,0.146,-0.301,99.89,4.0,6823.0,0.0,0.0,
2025-08-15T04:38:55.813Z,17,GR86-037-03,-3.7,0.135,-0.306,99.88,4.0,,0.0,0.0,173.41
2025-08-15T04:38:55.856Z,17,GR86-037-03,-3.7,0.142,-0.32,99.85,4.0,,0.0,0.0,
2025-08-15T04:38:55.899Z,17,GR86-037-03,-3.7,0.133,-0.323,99.88,4.0,,0.0,0.0,
2025-08-15T04:38:55.944Z,17,GR86-037-03,-3.7,0.12,-0.294,99.88,4.0,,0.0,0.0,
2025-08-15T04:38:55.987Z,17,GR86-037-03,-3.7,0.133,-0.295,99.89,4.0,6886.0,0.0,0.0,
2025-08-15T04:38:56.030Z,17,GR86-037-03,-3.7,0.109,-0.292,99.89,4.0,,0.0,0.0,174.66
2025-08-15T04:38:56.073Z,17,GR86-037-03,-3.7,0.133,-0.291,99.89,4.0,,0.0,0.0,
2025-08-15T04:38:56.116Z,17,GR86-037-03,-3.7,0.112,-0.273,99.89,4.0,,0.0,0.0,
2025-08-15T04:38:56.159Z,17,GR86-037-03,-4.0,0.132,-0.271,99.89,4.0,,0.0,0.0,
2025-08-15T04:38:56.203Z,17,GR86-037-03,-5.300000000000001,0.12,-0.284,99.89,4.0,6929.0,0.0,0.0,
2025-08-15T04:38:56.246Z,17,GR86-037-03,-5.5,0.123,-0.306,99.86,4.0,,0.0,0.0,176.14
2025-08-15T04:38:56.289Z,17,GR86-037-03,-5.5,0.121,-0.334,99.88,4.0,,0.0,0.0,
2025-08-15T04:38:56.332Z,17,GR86-037-03,-5.5,0.125,-0.345,99.87,4.0,,0.0,0.0,
2025-08-15T04:38:56.375Z,17,GR86-037-03,-5.5,0.112,-0.362,99.88,4.0,,0.0,0.0,
2025-08-15T04:38:56.419Z,17,GR86-037-03,-5.5,0.133,-0.361,99.89,4.0,6980.0,0.0,0.0,
2025-08-15T04:38:56.463Z,17,GR86-037-03,-5.5,0.128,-0.382,99.88,4.0,,0.0,0.0,177.42000000000002
2025-08-15T04:38:56.506Z,17,GR86-037-03,-4.4,0.108,-0.379,99.89,4.0,,0.0,0.0,
2025-08-15T04:38:56.549Z,17,GR86-037-03,-2.3000000000000003,0.122,-0.349,99.88,4.0,,0.0,0.0,
2025-08-15T04:38:56.592Z,17,GR86-037-03,-0.5,0.11,-0.303,99.87,4.0,,0.0,0.0,
2025-08-15T04:38:56.635Z,17,GR86-037-03,-0.4,0.123,-0.282,99.88,4.0,7042.0,0.0,0.0,
2025-08-15T04:38:56.678Z,17,GR86-037-03,-0.4,0.133,-0.251,63.72,4.0,,0.0,0.0,178.71
2025-08-15T04:38:56.721Z,17,GR86-037-03,-0.4,0.105,-0.21,2.96,4.0,,0.0,0.0,
2025-08-15T04:38:56.764Z,17,GR86-037-03,-0.4,0.017,-0.179,4.3,4.0,,0.0,0.0,
2025-08-15T04:38:56.807Z,17,GR86-037-03,-0.4,-0.161,-0.125,4.13,4.0,,0.0,0.0,
2025-08-15T04:38:56.850Z,17,GR86-037-03,-0.4,-0.376,-0.126,3.88,4.0,7074.0,19.52,19.96,
2025-08-15T04:38:56.893Z,17,GR86-037-03,-0.4,-0.432,-0.143,3.37,4.0,,36.09,36.15,180.06
2025-08-15T04:38:56.936Z,17,GR86-037-03,-0.6000000000000001,-0.68,-0.071,3.01,4.0,,50.005,49.58,
2025-08-15T04:38:56.979Z,17,GR86-037-03,-2.6,-1.038,-0.075,2.79,4.0,,62.9,62.245000000000005,
2025-08-15T04:38:57.023Z,17,GR86-037-03,-6.2,-1.286,-0.09,2.68,4.0,,75.78,74.925,
2025-08-15T04:38:57.108Z,17,GR86-037-03,-8.9,-1.475,-0.191,2.61,4.0,7115.0,87.775,88.46000000000001,181.08
2025-08-15T04:38:57.151Z,17,GR86-037-03,-8.9,-1.54,-0.161,2.57,4.0,,93.435,94.675,
2025-08-15T04:38:57.194Z,17,GR86-037-03,-8.9,-1.538,-0.202,2.5500000000000003,4.0,,97.495,97.16,
2025-08-15T04:38:57.237Z,17,GR86-037-03,-8.9,-1.577,-0.201,2.54,4.0,,101.985,103.935,
2025-08-15T04:38:57.280Z,17,GR86-037-03,-10.4,-1.494,-0.212,2.54,4.0,7014.0,103.22,104.3,
2025-08-15T04:38:57.324Z,17,GR86-037-03,-16.8,-1.378,-0.216,2.54,4.0,,105.46,106.395,181.59
2025-08-15T04:38:57.367Z,17,GR86-037-03,-21.1,-1.424,-0.314,2.54,4.0,,106.805,108.085,
2025-08-15T04:38:57.410Z,17,GR86-037-03,-19.4,-1.29,-0.372,2.52,4.0,,100.55,100.52,
2025-08-15T04:38:57.454Z,17,GR86-037-03,-7.800000000000001,-1.253,-0.442,2.54,4.0,,95.865,96.78,
2025-08-15T04:38:57.497Z,17,GR86-037-03,4.5,-1.289,-0.249,35.01,4.0,6209.0,96.075,98.655,
2025-08-15T04:38:57.540Z,17,GR86-037-03,5.800000000000001,-1.291,-0.315,77.18,4.0,,90.46,92.125,173.02
2025-08-15T04:38:57.584Z,17,GR86-037-03,5.800000000000001,-1.194,-0.259,99.84,4.0,,74.62,76.65,
2025-08-15T04:38:57.626Z,17,GR86-037-03,4.0,-1.187,-0.191,85.37,4.0,,71.675,72.865,
2025-08-15T04:38:57.670Z,17,GR86-037-03,-4.9,-1.182,-0.249,12.01,3.0,,70.03,70.99,
2025-08-15T04:38:57.713Z,17,GR86-037-03,-16.1,-1.128,-0.218,2.83,3.0,6035.0,65.3,67.205,
2025-08-15T04:38:57.756Z,17,GR86-037-03,-25.700000000000003,-1.236,-0.38,2.8000000000000003,3.0,,64.96000000000001,66.795,150.38
2025-08-15T04:38:57.799Z,17,GR86-037-03,-33.1,-1.197,-0.45,2.76,3.0,,67.295,68.5,
2025-08-15T04:38:57.844Z,17,GR86-037-03,-38.8,-1.121,-0.581,2.73,3.0,,70.9,71.83,
2025-08-15T04:38:57.887Z,17,GR86-037-03,-36.7,-1.044,-0.618,2.74,3.0,,71.08,71.4,
2025-08-15T04:38:57.930Z,17,GR86-037-03,-30.700000000000003,-1.061,-0.64,2.73,3.0,5551.0,74.65,76.115,
2025-08-15T04:38:57.973Z,17,GR86-037-03,-22.6,-1.194,-0.67,2.7,3.0,,80.055,81.215,143.55
2025-08-15T04:38:58.016Z,17,GR86-037-03,-14.0,-1.082,-0.685,2.7,3.0,,80.68,81.275,
2025-08-15T04:38:58.059Z,17,GR86-037-03,-5.5,-1.09,-0.655,2.7,3.0,,80.19,80.16,
2025-08-15T04:38:58.102Z,17,GR86-037-03,-1.9,-1.162,-0.602,2.67,3.0,,85.625,87.06,
2025-08-15T04:38:58.145Z,17,GR86-037-03,-6.5,-1.051,-0.645,20.44,3.0,6018.0,85.93,86.645,
2025-08-15T04:38:58.188Z,17,GR86-037-03,-13.8,-1.144,-0.747,52.91,2.0,,83.58,83.73,136.86
2025-08-15T04:38:58.231Z,17,GR86-037-03,-21.4,-1.129,-0.505,5.83,2.0,,77.995,79.045,
2025-08-15T04:38:58.274Z,17,GR86-037-03,-26.200000000000003,-1.078,-0.644,4.41,2.0,,62.155,63.8,
2025-08-15T04:38:58.317Z,17,GR86-037-03,-24.6,-0.874,-1.009,4.26,2.0,,46.56,47.705,
2025-08-15T04:38:58.360Z,17,GR86-037-03,-17.7,-0.936,-0.745,4.03,2.0,5648.0,36.09,37.205,
2025-08-15T04:38:58.404Z,17,GR86-037-03,-5.5,-0.715,-0.947,3.64,2.0,,37.325,37.83,130.58
2025-08-15T04:38:58.447Z,17,GR86-037-03,0.4,-0.956,-0.973,3.24,2.0,,38.18,39.19,
2025-08-15T04:38:58.490Z,17,GR86-037-03,5.6000000000000005,-0.796,-0.878,2.92,2.0,,37.74,38.655,
2025-08-15T04:38:58.534Z,17,GR86-037-03,16.5,-0.769,-0.859,2.72,2.0,,40.395,41.4,
2025-08-15T04:38:58.577Z,17,GR86-037-03,28.9,-0.756,-1.003,2.61,2.0,5841.0,45.125,45.87,
2025-08-15T04:38:58.620Z,17,GR86-037-03,31.700000000000003,-0.787,-0.8140000000000001,2.57,2.0,,47.43,47.705,123.19
2025-08-15T04:38:58.664Z,17,GR86-037-03,21.8,-0.705,-1.07,2.51,2.0,,35.71,36.425,
2025-08-15T04:38:58.706Z,17,GR86-037-03,13.1,-0.54,-0.946,2.51,2.0,,21.305,22.22,
2025-08-15T04:38:58.749Z,17,GR86-037-03,8.5,-0.403,-1.061,2.5,2.0,,10.59,11.49,
2025-08-15T04:38:58.792Z,17,GR86-037-03,8.4,-0.375,-1.2,2.49,2.0,6331.0,5.34,6.09,
2025-08-15T04:38:58.835Z,17,GR86-037-03,2.5,-0.328,-1.14,2.49,2.0,,2.76,3.31,119.51
2025-08-15T04:38:58.878Z,17,GR86-037-03,-11.6,-0.246,-1.185,2.49,2.0,,0.0,2.215,
2025-08-15T04:38:58.921Z,17,GR86-037-03,-28.4,-0.241,-1.273,2.49,2.0,,0.0,0.0,
2025-08-15T04:38:58.964Z,17,GR86-037-03,-46.7,-0.232,-1.266,2.51,2.0,,0.0,0.0,
2025-08-15T04:38:59.007Z,17,GR86-037-03,-52.2,-0.211,-1.3,2.49,2.0,6067.0,0.0,0.0,
2025-08-15T04:38:59.050Z,17,GR86-037-03,-56.2,-0.212,-1.267,2.49,2.0,,0.0,0.0,113.75
2025-08-15T04:38:59.093Z,17,GR86-037-03,-59.400000000000006,-0.227,-1.304,2.48,2.0,,0.0,0.0,
2025-08-15T04:38:59.136Z,17,GR86-037-03,-62.2,-0.225,-1.288,2.5,2.0,,0.0,0.0,
2025-08-15T04:38:59.179Z,17,GR86-037-03,-63.8,-0.225,-1.272,2.5,2.0,,0.0,0.0,
2025-08-15T04:38:59.223Z,17,GR86-037-03,-62.900000000000006,-0.222,-1.225,2.5,2.0,6086.0,0.0,0.0,
2025-08-15T04:38:59.265Z,17,GR86-037-03,-58.8,-0.219,-1.238,2.49,2.0,,0.0,0.0,111.52
2025-08-15T04:38:59.308Z,17,GR86-037-03,-55.2,-0.219,-1.29,2.49,2.0,,0.0,0.0,
2025-08-15T04:38:59.351Z,17,GR86-037-03,-55.8,-0.202,-1.253,2.49,2.0,,0.0,0.0,
2025-08-15T04:38:59.394Z,17,GR86-037-03,-61.5,-0.211,-1.257,7.42,2.0,,0.0,0.0,
2025-08-15T04:38:59.437Z,17,GR86-037-03,-68.7,-0.23,-1.323,24.85,2.0,6042.0,0.0,0.0,
2025-08-15T04:38:59.480Z,17,GR86-037-03,-72.10000000000001,-0.223,-1.32,29.65,2.0,,0.0,0.0,108.74
2025-08-15T04:38:59.524Z,17,GR86-037-03,-67.0,-0.143,-1.362,34.09,2.0,,0.0,0.0,
2025-08-15T04:38:59.567Z,17,GR86-037-03,-56.7,-0.147,-1.379,36.98,2.0,,0.0,0.0,
2025-08-15T04:38:59.610Z,17,GR86-037-03,-46.900000000000006,-0.07,-1.305,38.25,2.0,,0.0,0.0,
2025-08-15T04:38:59.653Z,17,GR86-037-03,-43.2,0.216,-1.237,38.34,2.0,5986.0,0.0,0.0,
2025-08-15T04:38:59.696Z,17,GR86-037-03,-45.0,0.233,-1.239,38.54,2.0,,0.0,0.0,107.8
2025-08-15T04:38:59.739Z,17,GR86-037-03,-49.3,0.217,-1.228,38.84,2.0,,0.0,0.0,
2025-08-15T04:38:59.783Z,17,GR86-037-03,-61.1,0.098,-1.157,39.59,2.0,,0.0,0.0,
2025-08-15T04:38:59.825Z,17,GR86-037-03,-70.9,0.074,-1.23,40.45,2.0,,0.0,0.0,
2025-08-15T04:38:59.911Z,17,GR86-037-03,-75.5,0.046,-1.3,40.59,2.0,6014.0,0.0,0.0,106.92
2025-08-15T04:38:59.954Z,17,GR86-037-03,-68.4,0.216,-1.317,40.96,2.0,,0.0,0.0,
2025-08-15T04:38:59.997Z,17,GR86-037-03,-58.3,0.43,-1.254,40.31,2.0,,0.0,0.0,
2025-08-15T04:39:00.040Z,17,GR86-037-03,-47.8,0.326,-1.066,40.29,2.0,,0.0,0.0,
2025-08-15T04:39:00.083Z,17,GR86-037-03,-40.400000000000006,0.183,-1.149,43.42,2.0,6156.0,0.0,0.0,
2025-08-15T04:39:00.126Z,17,GR86-037-03,-41.6,0.339,-1.107,43.04,2.0,,0.0,0.0,106.1
2025-08-15T04:39:00.170Z,17,GR86-037-03,-45.3,0.351,-1.129,42.85,2.0,,0.0,0.0,
2025-08-15T04:39:00.213Z,17,GR86-037-03,-46.900000000000006,0.308,-1.086,42.42,2.0,,0.0,0.0,
2025-08-15T04:39:00.256Z,17,GR86-037-03,-43.8,0.011,-1.133,41.99,2.0,,0.0,0.0,
2025-08-15T04:39:00.299Z,17,GR86-037-03,-34.300000000000004,-0.101,-1.081,42.12,2.0,6248.0,0.0,0.0,
2025-08-15T04:39:00.344Z,17,GR86-037-03,-18.7,0.493,-1.23,44.66,2.0,,0.0,0.0,106.61
2025-08-15T04:39:00.387Z,17,GR86-037-03,-19.5,0.379,-1.161,59.26,2.0,,0.0,0.0,
2025-08-15T04:39:00.430Z,17,GR86-037-03,-26.8,0.115,-1.109,94.93,2.0,,0.0,0.0,
2025-08-15T04:39:00.473Z,17,GR86-037-03,-30.3,-0.102,-1.251,99.84,2.0,,0.0,0.0,
2025-08-15T04:39:00.516Z,17,GR86-037-03,-26.4,-0.08,-1.179,99.83,2.0,6342.0,0.0,0.0,
2025-08-15T04:39:00.559Z,17,GR86-037-03,-18.0,-0.092,-1.194,99.84,2.0,,0.0,0.0,106.65
2025-08-15T04:39:00.603Z,17,GR86-037-03,-11.8,0.121,-1.078,99.85,2.0,,0.0,0.0,
2025-08-15T04:39:00.647Z,17,GR86-037-03,-7.7,0.002,-1.003,99.85,2.0,,0.0,0.0,
2025-08-15T04:39:00.690Z,17,GR86-037-03,-3.3000000000000003,0.088,-0.914,99.86,2.0,,0.0,0.0,
2025-08-15T04:39:00.733Z,17,GR86-037-03,-3.4000000000000004,0.021,-0.759,99.85,2.0,6403.0,0.0,0.0,
2025-08-15T04:39:00.776Z,17,GR86-037-03,-7.1000000000000005,0.214,-0.767,99.87,2.0,,0.0,0.0,108.39
2025-08-15T04:39:00.819Z,17,GR86-037-03,-13.2,0.457,-1.271,99.87,2.0,,0.0,0.0,
2025-08-15T04:39:00.863Z,17,GR86-037-03,-25.200000000000003,0.36,-1.251,99.85,2.0,,0.0,0.0,
2025-08-15T04:39:00.906Z,17,GR86-037-03,-25.5,0.232,-1.192,99.86,2.0,,0.0,0.0,
2025-08-15T04:39:00.949Z,17,GR86-037-03,-20.5,0.039,-1.18,99.86,2.0,6707.0,0.0,0.0,
2025-08-15T04:39:00.992Z,17,GR86-037-03,-20.700000000000003,0.183,-1.083,99.86,2.0,,0.0,0.0,109.44
2025-08-15T04:39:01.035Z,17,GR86-037-03,-31.3,0.362,-0.98,99.86,2.0,,0.0,0.0,
2025-08-15T04:39:01.079Z,17,GR86-037-03,-48.2,0.33,-0.984,99.86,2.0,,0.0,0.0,
2025-08-15T04:39:01.123Z,17,GR86-037-03,-68.4,0.254,-1.208,99.85,2.0,,0.0,0.0,
2025-08-15T04:39:01.165Z,17,GR86-037-03,-70.7,0.157,-1.25,99.86,2.0,6556.0,0.0,0.0,
2025-08-15T04:39:01.208Z,17,GR86-037-03,-67.5,0.178,-1.236,99.86,2.0,,0.0,0.0,109.43
2025-08-15T04:39:01.251Z,17,GR86-037-03,-60.2,0.178,-1.291,99.86,2.0,,0.0,0.0,
2025-08-15T04:39:01.294Z,17,GR86-037-03,-49.1,0.232,-1.243,99.86,2.0,,0.0,0.0,
2025-08-15T04:39:01.337Z,17,GR86-037-03,-35.7,0.276,-1.163,99.85,2.0,,0.0,0.0,
2025-08-15T04:39:01.380Z,17,GR86-037-03,-24.6,0.225,-1.123,99.85,2.0,6628.0,0.0,0.0,
2025-08-15T04:39:01.424Z,17,GR86-037-03,-23.1,0.202,-0.978,99.86,2.0,,0.0,0.0,111.34
2025-08-15T04:39:01.466Z,17,GR86-037-03,-29.200000000000003,0.243,-0.995,99.86,2.0,,0.0,0.0,
2025-08-15T04:39:01.509Z,17,GR86-037-03,-37.7,0.237,-1.008,99.86,2.0,,0.0,0.0,
2025-08-15T04:39:01.552Z,17,GR86-037-03,-46.6,0.225,-1.014,99.85,2.0,,0.0,0.0,
2025-08-15T04:39:01.595Z,17,GR86-037-03,-51.900000000000006,0.235,-1.053,99.88,2.0,6685.0,0.0,0.0,
2025-08-15T04:39:01.638Z,17,GR86-037-03,-51.8,0.22,-1.085,99.86,2.0,,0.0,0.0,112.84
2025-08-15T04:39:01.681Z,17,GR86-037-03,-47.3,0.21,-1.079,99.85,2.0,,0.0,0.0,
2025-08-15T04:39:01.724Z,17,GR86-037-03,-37.3,0.213,-1.033,99.85,2.0,,0.0,0.0,
2025-08-15T04:39:01.767Z,17,GR86-037-03,-32.1,0.223,-1.048,99.85,2.0,,0.0,0.0,
2025-08-15T04:39:01.810Z,17,GR86-037-03,-30.3,0.218,-0.987,99.85,2.0,6767.0,0.0,0.0,
2025-08-15T04:39:01.853Z,17,GR86-037-03,-30.200000000000003,0.226,-1.035,99.86,2.0,,0.0,0.0,113.82
2025-08-15T04:39:01.896Z,17,GR86-037-03,-29.700000000000003,0.232,-1.049,99.86,2.0,,0.0,0.0,
2025-08-15T04:39:01.939Z,17,GR86-037-03,-27.6,0.233,-1.044,99.86,2.0,,0.0,0.0,
2025-08-15T04:39:01.984Z,17,GR86-037-03,-23.6,0.245,-1.072,99.86,2.0,,0.0,0.0,
2025-08-15T04:39:02.027Z,17,GR86-037-03,-22.9,0.229,-1.098,99.85,2.0,6837.0,0.0,0.0,
2025-08-15T04:39:02.070Z,17,GR86-037-03,-23.4,0.237,-1.106,99.85,2.0,,0.0,0.0,115.05
2025-08-15T04:39:02.113Z,17,GR86-037-03,-27.6,0.253,-1.058,99.86,2.0,,0.0,0.0,
2025-08-15T04:39:02.156Z,17,GR86-037-03,-33.5,0.226,-1.092,99.85,2.0,,0.0,0.0,
2025-08-15T04:39:02.199Z,17,GR86-037-03,-38.3,0.222,-1.075,99.85,2.0,,0.0,0.0,
2025-08-15T04:39:02.244Z,17,GR86-037-03,-38.3,0.222,-1.112,99.87,2.0,6955.0,0.0,0.0,
2025-08-15T04:39:02.287Z,17,GR86-037-03,-37.7,0.23,-1.103,99.86,2.0,,0.0,0.0,116.56
2025-08-15T04:39:02.330Z,17,GR86-037-03,-37.5,0.217,-1.048,99.85,2.0,,0.0,0.0,
2025-08-15T04:39:02.373Z,17,GR86-037-03,-37.5,0.281,-0.923,99.86,2.0,,0.0,0.0,
2025-08-15T04:39:02.416Z,17,GR86-037-03,-37.1,0.283,-0.88,99.86,2.0,,0.0,0.0,
2025-08-15T04:39:02.459Z,17,GR86-037-03,-37.7,0.242,-0.6,99.86,2.0,7003.0,0.0,0.0,
2025-08-15T04:39:02.503Z,17,GR86-037-03,-36.7,0.181,-0.89,99.87,2.0,,0.0,0.0,118.0
2025-08-15T04:39:02.546Z,17,GR86-037-03,-35.5,0.198,-0.774,99.85,2.0,,0.0,0.0,
2025-08-15T04:39:02.589Z,17,GR86-037-03,-33.300000000000004,0.207,-0.923,99.84,2.0,,0.0,0.0,
2025-08-15T04:39:02.632Z,17,GR86-037-03,-31.5,0.191,-0.954,99.86,2.0,,0.0,0.0,
2025-08-15T04:39:02.675Z,17,GR86-037-03,-30.0,0.227,-0.952,99.88,2.0,7073.0,0.0,0.0,
2025-08-15T04:39:02.718Z,17,GR86-037-03,-27.700000000000003,0.251,-1.081,99.88,2.0,,0.0,0.0,119.4
2025-08-15T04:39:02.761Z,17,GR86-037-03,-24.4,0.23,-0.8290000000000001,99.86,2.0,,0.0,0.0,
2025-08-15T04:39:02.804Z,17,GR86-037-03,-14.9,0.161,-0.927,99.85,3.0,,0.0,0.0,
2025-08-15T04:39:02.847Z,17,GR86-037-03,-12.1,0.056,-0.6940000000000001,99.88,3.0,,0.0,0.0,
2025-08-15T04:39:02.890Z,17,GR86-037-03,-10.6,0.455,-0.8130000000000001,99.84,3.0,7140.0,0.0,0.0,
2025-08-15T04:39:02.933Z,17,GR86-037-03,-10.6,0.276,-0.757,99.86,3.0,,0.0,0.0,120.78
2025-08-15T04:39:02.976Z,17,GR86-037-03,-11.1,0.21,-0.5730000000000001,99.85,3.0,,0.0,0.0,
2025-08-15T04:39:03.019Z,17,GR86-037-03,-11.8,0.037,-0.75,99.85,3.0,,0.0,0.0,
2025-08-15T04:39:03.063Z,17,GR86-037-03,-11.9,0.277,-0.546,99.86,3.0,,0.0,0.0,
2025-08-15T04:39:03.105Z,17,GR86-037-03,-11.9,0.236,-0.662,99.86,3.0,7212.0,0.0,0.0,
2025-08-15T04:39:03.148Z,17,GR86-037-03,-11.9,0.155,-0.61,99.85,3.0,,0.0,0.0,123.89
2025-08-15T04:39:03.191Z,17,GR86-037-03,-10.9,0.111,-0.513,99.85,3.0,,0.0,0.0,
2025-08-15T04:39:03.234Z,17,GR86-037-03,-10.0,0.126,-0.615,99.85,3.0,,0.0,0.0,
2025-08-15T04:39:03.277Z,17,GR86-037-03,-10.0,0.227,-0.482,99.85,3.0,,0.0,0.0,
2025-08-15T04:39:03.320Z,17,GR86-037-03,-10.0,0.167,-0.529,99.85,3.0,6202.0,0.0,0.0,
2025-08-15T04:39:03.364Z,17,GR86-037-03,-8.3,0.034,-0.375,99.85,3.0,,0.0,0.0,125.4
2025-08-15T04:39:03.407Z,17,GR86-037-03,-5.7,0.208,-0.311,99.86,3.0,,0.0,0.0,
2025-08-15T04:39:03.450Z,17,GR86-037-03,-3.8,0.201,-0.322,99.85,3.0,,0.0,0.0,
2025-08-15T04:39:03.493Z,17,GR86-037-03,-1.0,0.27,-0.186,99.84,3.0,,0.0,0.0,
2025-08-15T04:39:03.536Z,17,GR86-037-03,0.3,0.157,-0.08,99.86,3.0,5998.0,0.0,0.0,
2025-08-15T04:39:03.579Z,17,GR86-037-03,2.0,0.185,-0.116,99.86,3.0,,0.0,0.0,127.44
2025-08-15T04:39:03.623Z,17,GR86-037-03,7.800000000000001,0.241,-0.052,99.87,3.0,,0.0,0.0,
2025-08-15T04:39:03.665Z,17,GR86-037-03,9.6,0.129,-0.075,99.87,3.0,,0.0,0.0,
2025-08-15T04:39:03.708Z,17,GR86-037-03,10.1,0.018,0.083,99.86,3.0,,0.0,0.0,
2025-08-15T04:39:03.751Z,17,GR86-037-03,10.1,0.02,0.046,99.87,3.0,6080.0,0.0,0.0,
2025-08-15T04:39:03.794Z,17,GR86-037-03,10.1,0.347,0.013,99.88,3.0,,0.0,0.0,128.29
2025-08-15T04:39:03.837Z,17,GR86-037-03,10.1,0.37,-0.014,99.86,3.0,,0.0,0.0,
2025-08-15T04:39:03.880Z,17,GR86-037-03,10.1,0.244,0.203,99.88,3.0,,0.0,0.0,
2025-08-15T04:39:03.924Z,17,GR86-037-03,9.2,0.079,0.264,99.85,3.0,,0.0,0.0,
2025-08-15T04:39:03.966Z,17,GR86-037-03,8.200000000000001,0.178,0.283,99.86,3.0,6191.0,0.0,0.0,
2025-08-15T04:39:04.009Z,17,GR86-037-03,6.6000000000000005,0.222,0.316,99.86,3.0,,0.0,0.0,130.22
2025-08-15T04:39:04.053Z,17,GR86-037-03,5.0,0.262,0.271,99.86,3.0,,0.0,0.0,
2025-08-15T04:39:04.097Z,17,GR86-037-03,3.8,0.226,0.269,99.85,3.0,,0.0,0.0,
2025-08-15T04:39:04.140Z,17,GR86-037-03,3.3000000000000003,0.188,0.2,99.86,3.0,,0.0,0.0,
2025-08-15T04:39:04.184Z,17,GR86-037-03,3.3000000000000003,0.221,0.139,99.87,3.0,6161.0,0.0,0.0,
2025-08-15T04:39:04.228Z,17,GR86-037-03,3.3000000000000003,0.224,0.118,99.88,3.0,,0.0,0.0,131.41
2025-08-15T04:39:04.272Z,17,GR86-037-03,3.3000000000000003,0.223,0.082,99.87,3.0,,0.0,0.0,
2025-08-15T04:39:04.315Z,17,GR86-037-03,3.3000000000000003,0.212,0.052,99.88,3.0,,0.0,0.0,
2025-08-15T04:39:04.359Z,17,GR86-037-03,3.3000000000000003,0.191,0.03,99.86,3.0,,0.0,0.0,
2025-08-15T04:39:04.403Z,17,GR86-037-03,3.5,0.216,0.028,99.85,3.0,6232.0,0.0,0.0,
2025-08-15T04:39:04.445Z,17,GR86-037-03,3.6,0.217,-0.009,99.86,3.0,,0.0,0.0,132.87
2025-08-15T04:39:04.488Z,17,GR86-037-03,3.7,0.194,0.0,99.85,3.0,,0.0,0.0,
2025-08-15T04:39:04.533Z,17,GR86-037-03,3.7,0.2,0.007,99.86,3.0,,0.0,0.0,
2025-08-15T04:39:04.575Z,17,GR86-037-03,3.7,0.219,0.009,99.86,3.0,,0.0,0.0,
2025-08-15T04:39:04.618Z,17,GR86-037-03,3.7,0.214,-0.003,99.86,3.0,6299.0,0.0,0.0,
2025-08-15T04:39:04.661Z,17,GR86-037-03,3.7,0.197,0.001,99.85,3.0,,0.0,0.0,134.3
2025-08-15T04:39:04.704Z,17,GR86-037-03,3.7,0.206,-0.008,99.86,3.0,,0.0,0.0,
2025-08-15T04:39:04.747Z,17,GR86-037-03,3.7,0.2,0.008,99.88,3.0,,0.0,0.0,
2025-08-15T04:39:04.790Z,17,GR86-037-03,3.7,0.209,0.02,99.86,3.0,,0.0,0.0,
2025-08-15T04:39:04.834Z,17,GR86-037-03,3.7,0.203,0.0,99.88,3.0,6375.0,0.0,0.0,
2025-08-15T04:39:04.877Z,17,GR86-037-03,3.7,0.198,-0.015,99.87,3.0,,0.0,0.0,135.81
2025-08-15T04:39:04.920Z,17,GR86-037-03,3.7,0.203,-0.01,99.86,3.0,,0.0,0.0,
2025-08-15T04:39:04.964Z,17,GR86-037-03,3.7,0.203,-0.025,99.87,3.0,,0.0,0.0,
2025-08-15T04:39:05.006Z,17,GR86-037-03,3.7,0.203,-0.003,99.87,3.0,,0.0,0.0,
2025-08-15T04:39:05.049Z,17,GR86-037-03,3.7,0.205,0.004,99.86,3.0,6448.0,0.0,0.0,
2025-08-15T04:39:05.092Z,17,GR86-037-03,3.7,0.22,-0.002,99.87,3.0,,0.0,0.0,137.35
2025-08-15T04:39:05.135Z,17,GR86-037-03,3.7,0.204,-0.026,99.88,3.0,,0.0,0.0,
2025-08-15T04:39:05.178Z,17,GR86-037-03,3.7,0.194,-0.012,99.87,3.0,,0.0,0.0,
2025-08-15T04:39:05.221Z,17,GR86-037-03,3.7,0.209,0.001,99.85,3.0,,0.0,0.0,
2025-08-15T04:39:05.264Z,17,GR86-037-03,3.7,0.203,0.015,99.88,3.0,6512.0,0.0,0.0,
2025-08-15T04:39:05.307Z,17,GR86-037-03,3.7,0.214,0.028,99.87,3.0,,0.0,0.0,138.8
2025-08-15T04:39:05.350Z,17,GR86-037-03,3.7,0.201,-0.013,99.85,3.0,,0.0,0.0,
2025-08-15T04:39:05.393Z,17,GR86-037-03,3.7,0.207,-0.014,99.85,3.0,,0.0,0.0,
2025-08-15T04:39:05.436Z,17,GR86-037-03,3.7,0.199,-0.018,99.87,3.0,,0.0,0.0,
2025-08-15T04:39:05.479Z,17,GR86-037-03,3.7,0.204,0.009,99.88,3.0,6573.0,0.0,0.0,
2025-08-15T04:39:05.523Z,17,GR86-037-03,3.7,0.192,-0.011,99.85,3.0,,0.0,0.0,140.18
2025-08-15T04:39:05.565Z,17,GR86-037-03,3.7,0.193,-0.002,99.87,3.0,,0.0,0.0,
2025-08-15T04:39:05.608Z,17,GR86-037-03,3.7,0.21,0.007,99.85,3.0,,0.0,0.0,
2025-08-15T04:39:05.651Z,17,GR86-037-03,3.7,0.21,-0.036,99.87,3.0,,0.0,0.0,
2025-08-15T04:39:05.694Z,17,GR86-037-03,3.7,0.197,0.001,99.85,3.0,6636.0,0.0,0.0,
2025-08-15T04:39:05.737Z,17,GR86-037-03,3.7,0.199,-0.004,99.86,3.0,,0.0,0.0,141.64
2025-08-15T04:39:05.780Z,17,GR86-037-03,3.7,0.205,0.03,99.87,3.0,,0.0,0.0,
2025-08-15T04:39:05.824Z,17,GR86-037-03,3.7,0.2,0.015,99.85,3.0,,0.0,0.0,
2025-08-15T04:39:05.866Z,17,GR86-037-03,3.7,0.193,0.021,99.85,3.0,,0.0,0.0,
2025-08-15T04:39:05.909Z,17,GR86-037-03,3.7,0.203,0.016,99.86,3.0,6706.0,0.0,0.0,
2025-08-15T04:39:05.952Z,17,GR86-037-03,3.7,0.209,0.016,99.87,3.0,,0.0,0.0,144.46
2025-08-15T04:39:05.995Z,17,GR86-037-03,3.7,0.206,-0.004,99.87,3.0,,0.0,0.0,
2025-08-15T04:39:06.038Z,17,GR86-037-03,3.7,0.193,0.035,99.86,3.0,,0.0,0.0,
2025-08-15T04:39:06.081Z,17,GR86-037-03,3.7,0.199,0.031,99.87,3.0,,0.0,0.0,
2025-08-15T04:39:06.124Z,17,GR86-037-03,3.7,0.205,0.023,99.88,3.0,6769.0,0.0,0.0,
2025-08-15T04:39:06.168Z,17,GR86-037-03,3.7,0.195,0.033,99.88,3.0,,0.0,0.0,145.8
2025-08-15T04:39:06.211Z,17,GR86-037-03,3.7,0.179,0.034,99.87,3.0,,0.0,0.0,
2025-08-15T04:39:06.254Z,17,GR86-037-03,3.7,0.201,0.023,99.85,3.0,,0.0,0.0,
2025-08-15T04:39:06.297Z,17,GR86-037-03,3.7,0.203,0.013,99.86,3.0,,0.0,0.0,
2025-08-15T04:39:06.340Z,17,GR86-037-03,3.7,0.205,0.003,99.87,3.0,6837.0,0.0,0.0,
2025-08-15T04:39:06.384Z,17,GR86-037-03,3.7,0.208,-0.017,99.87,3.0,,0.0,0.0,147.18
2025-08-15T04:39:06.427Z,17,GR86-037-03,3.7,0.212,-0.015,99.86,3.0,,0.0,0.0,
2025-08-15T04:39:06.470Z,17,GR86-037-03,3.7,0.203,0.001,99.88,3.0,,0.0,0.0,
2025-08-15T04:39:06.513Z,17,GR86-037-03,3.7,0.187,-0.004,99.88,3.0,,0.0,0.0,
2025-08-15T04:39:06.556Z,17,GR86-037-03,3.7,0.181,-0.007,99.85,3.0,6957.0,0.0,0.0,
2025-08-15T04:39:06.599Z,17,GR86-037-03,3.7,0.19,-0.012,99.86,3.0,,0.0,0.0,148.48
2025-08-15T04:39:06.644Z,17,GR86-037-03,3.7,0.185,0.02,99.86,3.0,,0.0,0.0,
2025-08-15T04:39:06.687Z,17,GR86-037-03,3.7,0.177,0.0,99.85,3.0,,0.0,0.0,
2025-08-15T04:39:06.730Z,17,GR86-037-03,3.5,0.198,-0.016,99.88,3.0,,0.0,0.0,
2025-08-15T04:39:06.773Z,17,GR86-037-03,2.9000000000000004,0.198,-0.025,99.87,3.0,7017.0,0.0,0.0,
2025-08-15T04:39:06.816Z,17,GR86-037-03,2.0,0.198,-0.007,99.88,3.0,,0.0,0.0,149.82
2025-08-15T04:39:06.859Z,17,GR86-037-03,1.0,0.184,-0.002,99.88,3.0,,0.0,0.0,
2025-08-15T04:39:06.903Z,17,GR86-037-03,0.7000000000000001,0.199,-0.035,99.88,3.0,,0.0,0.0,
2025-08-15T04:39:06.947Z,17,GR86-037-03,0.7000000000000001,0.176,-0.032,99.89,3.0,,0.0,0.0,
2025-08-15T04:39:06.990Z,17,GR86-037-03,0.6000000000000001,0.175,-0.036,99.84,3.0,7086.0,0.0,0.0,
2025-08-15T04:39:07.033Z,17,GR86-037-03,0.7000000000000001,0.167,-0.054,99.86,3.0,,0.0,0.0,151.09
2025-08-15T04:39:07.076Z,17,GR86-037-03,0.6000000000000001,0.181,-0.074,99.86,3.0,,0.0,0.0,
2025-08-15T04:39:07.119Z,17,GR86-037-03,0.6000000000000001,0.192,-0.1,99.86,3.0,,0.0,0.0,
2025-08-15T04:39:07.164Z,17,GR86-037-03,0.6000000000000001,0.156,-0.092,99.86,3.0,,0.0,0.0,
2025-08-15T04:39:07.206Z,17,GR86-037-03,0.5,0.168,-0.103,99.86,3.0,7127.0,0.0,0.0,
2025-08-15T04:39:07.249Z,17,GR86-037-03,0.4,0.178,-0.091,99.88,3.0,,0.0,0.0,152.31
2025-08-15T04:39:07.292Z,17,GR86-037-03,0.3,0.187,-0.088,99.85,3.0,,0.0,0.0,
2025-08-15T04:39:07.335Z,17,GR86-037-03,-0.1,0.187,-0.079,99.86,3.0,,0.0,0.0,
2025-08-15T04:39:07.379Z,17,GR86-037-03,-0.6000000000000001,0.169,-0.118,99.85,3.0,,0.0,0.0,
2025-08-15T04:39:07.423Z,17,GR86-037-03,-0.7000000000000001,-0.121,-0.111,99.88,4.0,7179.0,0.0,0.0,
2025-08-15T04:39:07.465Z,17,GR86-037-03,-0.7000000000000001,0.445,-0.099,99.87,4.0,,0.0,0.0,153.57
2025-08-15T04:39:07.508Z,17,GR86-037-03,-0.7000000000000001,0.288,-0.22,99.86,4.0,,0.0,0.0,
2025-08-15T04:39:07.551Z,17,GR86-037-03,-0.6000000000000001,0.222,-0.092,99.85,4.0,,0.0,0.0,
2025-08-15T04:39:07.594Z,17,GR86-037-03,-0.7000000000000001,0.107,-0.149,99.85,4.0,,0.0,0.0,
2025-08-15T04:39:07.637Z,17,GR86-037-03,-0.7000000000000001,0.038,-0.206,99.85,4.0,7240.0,0.0,0.0,
2025-08-15T04:39:07.681Z,17,GR86-037-03,-0.7000000000000001,0.163,-0.11,99.85,4.0,,0.0,0.0,154.77
2025-08-15T04:39:07.724Z,17,GR86-037-03,-0.7000000000000001,0.164,-0.175,99.87,4.0,,0.0,0.0,
2025-08-15T04:39:07.767Z,17,GR86-037-03,-0.7000000000000001,0.118,-0.14,99.86,4.0,,0.0,0.0,
2025-08-15T04:39:07.810Z,17,GR86-037-03,-0.7000000000000001,0.142,-0.161,99.86,4.0,,0.0,0.0,
2025-08-15T04:39:07.853Z,17,GR86-037-03,-0.7000000000000001,0.168,-0.145,99.86,4.0,6232.0,0.0,0.0,
2025-08-15T04:39:07.896Z,17,GR86-037-03,-0.7000000000000001,0.17,-0.15,99.86,4.0,,0.0,0.0,155.75
2025-08-15T04:39:07.939Z,17,GR86-037-03,-0.7000000000000001,0.149,-0.136,99.86,4.0,,0.0,0.0,
2025-08-15T04:39:07.984Z,17,GR86-037-03,-0.7000000000000001,0.142,-0.158,99.87,4.0,,0.0,0.0,
2025-08-15T04:39:08.070Z,17,GR86-037-03,0.2,0.164,-0.106,99.86,4.0,6168.0,0.0,0.0,
2025-08-15T04:39:08.113Z,17,GR86-037-03,1.4,0.166,-0.12,99.87,4.0,,0.0,0.0,156.9
2025-08-15T04:39:08.156Z,17,GR86-037-03,2.8000000000000003,0.137,-0.11,99.85,4.0,,0.0,0.0,
2025-08-15T04:39:08.199Z,17,GR86-037-03,3.0,0.134,-0.124,99.85,4.0,,0.0,0.0,
2025-08-15T04:39:08.244Z,17,GR86-037-03,3.0,0.17,-0.06,99.87,4.0,,0.0,0.0,
2025-08-15T04:39:08.287Z,17,GR86-037-03,3.0,0.15,-0.047,99.85,4.0,6202.0,0.0,0.0,
2025-08-15T04:39:08.330Z,17,GR86-037-03,3.0,0.146,-0.039,99.87,4.0,,0.0,0.0,158.0
2025-08-15T04:39:08.373Z,17,GR86-037-03,3.0,0.123,-0.032,99.85,4.0,,0.0,0.0,
2025-08-15T04:39:08.416Z,17,GR86-037-03,2.3000000000000003,0.134,-0.026,99.85,4.0,,0.0,0.0,
2025-08-15T04:39:08.459Z,17,GR86-037-03,1.3,0.143,-0.016,99.86,4.0,,0.0,0.0,
2025-08-15T04:39:08.503Z,17,GR86-037-03,0.3,0.13,-0.016,99.86,4.0,6252.0,0.0,0.0,
2025-08-15T04:39:08.545Z,17,GR86-037-03,0.2,0.133,-0.037,99.86,4.0,,0.0,0.0,160.05
2025-08-15T04:39:08.588Z,17,GR86-037-03,0.2,0.136,-0.047,99.85,4.0,,0.0,0.0,
2025-08-15T04:39:08.631Z,17,GR86-037-03,0.2,0.144,-0.056,99.86,4.0,,0.0,0.0,
2025-08-15T04:39:08.674Z,17,GR86-037-03,0.2,0.13,-0.078,99.86,4.0,,0.0,0.0,
2025-08-15T04:39:08.717Z,17,GR86-037-03,0.2,0.153,-0.081,99.86,4.0,6287.0,0.0,0.0,
2025-08-15T04:39:08.760Z,17,GR86-037-03,0.1,0.148,-0.084,99.86,4.0,,0.0,0.0,160.99
2025-08-15T04:39:08.804Z,17,GR86-037-03,0.1,0.127,-0.106,99.86,4.0,,0.0,0.0,
2025-08-15T04:39:08.847Z,17,GR86-037-03,0.1,0.152,-0.106,99.86,4.0,,0.0,0.0,
2025-08-15T04:39:08.890Z,17,GR86-037-03,0.1,0.153,-0.119,99.84,4.0,,0.0,0.0,
2025-08-15T04:39:08.933Z,17,GR86-037-03,0.2,0.146,-0.123,99.87,4.0,6334.0,0.0,0.0,
2025-08-15T04:39:08.976Z,17,GR86-037-03,0.1,0.153,-0.117,99.86,4.0,,0.0,0.0,161.95000000000002
2025-08-15T04:39:09.019Z,17,GR86-037-03,0.1,0.134,-0.12,99.86,4.0,,0.0,0.0,
2025-08-15T04:39:09.063Z,17,GR86-037-03,0.2,0.142,-0.114,99.9,4.0,,0.0,0.0,
2025-08-15T04:39:09.105Z,17,GR86-037-03,0.2,0.155,-0.105,99.88,4.0,,0.0,0.0,
2025-08-15T04:39:09.148Z,17,GR86-037-03,0.0,0.154,-0.123,99.85,4.0,6409.0,0.0,0.0,
2025-08-15T04:39:09.191Z,17,GR86-037-03,-1.1,0.143,-0.12,99.87,4.0,,0.0,0.0,162.86
2025-08-15T04:39:09.234Z,17,GR86-037-03,-2.5,0.143,-0.14,99.85,4.0,,0.0,0.0,
2025-08-15T04:39:09.277Z,17,GR86-037-03,-3.0,0.154,-0.155,99.87,4.0,,0.0,0.0,
2025-08-15T04:39:09.320Z,17,GR86-037-03,-3.0,0.135,-0.168,99.86,4.0,,0.0,0.0,
2025-08-15T04:39:09.364Z,17,GR86-037-03,-3.0,0.143,-0.183,99.88,4.0,6449.0,0.0,0.0,
2025-08-15T04:39:09.406Z,17,GR86-037-03,-2.6,0.158,-0.194,99.86,4.0,,0.0,0.0,163.87
2025-08-15T04:39:09.449Z,17,GR86-037-03,-1.9,0.156,-0.201,99.86,4.0,,0.0,0.0,
2025-08-15T04:39:09.492Z,17,GR86-037-03,-1.2000000000000002,0.125,-0.213,99.86,4.0,,0.0,0.0,
2025-08-15T04:39:09.535Z,17,GR86-037-03,-1.2000000000000002,0.154,-0.23,99.87,4.0,,0.0,0.0,
2025-08-15T04:39:09.579Z,17,GR86-037-03,-1.2000000000000002,0.148,-0.213,99.88,4.0,6485.0,0.0,0.0,
2025-08-15T04:39:09.623Z,17,GR86-037-03,-1.1,0.136,-0.184,99.85,4.0,,0.0,0.0,164.89
2025-08-15T04:39:09.665Z,17,GR86-037-03,-1.2000000000000002,0.133,-0.17,99.85,4.0,,0.0,0.0,
2025-08-15T04:39:09.708Z,17,GR86-037-03,-1.2000000000000002,0.145,-0.163,99.87,4.0,,0.0,0.0,
2025-08-15T04:39:09.751Z,17,GR86-037-03,-1.2000000000000002,0.158,-0.166,99.86,4.0,,0.0,0.0,
2025-08-15T04:39:09.794Z,17,GR86-037-03,-1.2000000000000002,0.144,-0.171,99.86,4.0,6530.0,0.0,0.0,
2025-08-15T04:39:09.837Z,17,GR86-037-03,-1.2000000000000002,0.153,-0.174,99.85,4.0,,0.0,0.0,165.9
2025-08-15T04:39:09.880Z,17,GR86-037-03,-1.1,0.132,-0.156,99.85,4.0,,0.0,0.0,
2025-08-15T04:39:09.924Z,17,GR86-037-03,-1.1,0.134,-0.142,99.86,4.0,,0.0,0.0,
2025-08-15T04:39:09.967Z,17,GR86-037-03,-1.1,0.147,-0.147,99.87,4.0,,0.0,0.0,
2025-08-15T04:39:10.010Z,17,GR86-037-03,-1.1,0.141,-0.14,99.86,4.0,6574.0,0.0,0.0,
2025-08-15T04:39:10.054Z,17,GR86-037-03,-1.2000000000000002,0.152,-0.14,99.86,4.0,,0.0,0.0,166.84
2025-08-15T04:39:10.097Z,17,GR86-037-03,-1.2000000000000002,0.155,-0.142,99.87,4.0,,0.0,0.0,
2025-08-15T04:39:10.140Z,17,GR86-037-03,-1.2000000000000002,0.136,-0.154,99.85,4.0,,0.0,0.0,
2025-08-15T04:39:10.184Z,17,GR86-037-03,-1.1,0.14,-0.149,99.88,4.0,,0.0,0.0,
2025-08-15T04:39:10.226Z,17,GR86-037-03,-1.1,0.125,-0.163,99.85,4.0,6604.0,0.0,0.0,
2025-08-15T04:39:10.270Z,17,GR86-037-03,-1.2000000000000002,0.15,-0.157,99.86,4.0,,0.0,0.0,167.97
2025-08-15T04:39:10.313Z,17,GR86-037-03,-1.2000000000000002,0.15,-0.177,99.85,4.0,,0.0,0.0,
2025-08-15T04:39:10.356Z,17,GR86-037-03,-1.2000000000000002,0.164,-0.174,99.86,4.0,,0.0,0.0,
2025-08-15T04:39:10.444Z,17,GR86-037-03,-1.2000000000000002,0.14,-0.157,99.85,4.0,6651.0,0.0,0.0,
2025-08-15T04:39:10.530Z,17,GR86-037-03,-1.2000000000000002,0.124,-0.154,99.86,4.0,,0.0,0.0,168.95000000000002
2025-08-15T04:39:10.573Z,17,GR86-037-03,-1.2000000000000002,0.136,-0.146,99.86,4.0,,0.0,0.0,
2025-08-15T04:39:10.616Z,17,GR86-037-03,-1.2000000000000002,0.148,-0.163,99.87,4.0,,0.0,0.0,
2025-08-15T04:39:10.659Z,17,GR86-037-03,-1.2000000000000002,0.147,-0.17,99.87,4.0,6686.0,0.0,0.0,
2025-08-15T04:39:10.702Z,17,GR86-037-03,-1.2000000000000002,0.101,-0.169,99.86,4.0,,0.0,0.0,170.06
2025-08-15T04:39:10.745Z,17,GR86-037-03,-1.3,0.121,-0.188,99.85,4.0,,0.0,0.0,
2025-08-15T04:39:10.788Z,17,GR86-037-03,-1.4,0.097,-0.193,99.85,4.0,,0.0,0.0,
2025-08-15T04:39:10.833Z,17,GR86-037-03,-1.4,0.109,-0.198,99.87,4.0,,0.0,0.0,
2025-08-15T04:39:10.877Z,17,GR86-037-03,-1.4,0.125,-0.175,99.85,4.0,6727.0,0.0,0.0,
2025-08-15T04:39:10.920Z,17,GR86-037-03,-1.4,0.126,-0.192,99.85,4.0,,0.0,0.0,171.03
2025-08-15T04:39:10.964Z,17,GR86-037-03,-1.4,0.123,-0.186,99.88,4.0,,0.0,0.0,
2025-08-15T04:39:11.007Z,17,GR86-037-03,-1.4,0.133,-0.178,99.86,4.0,,0.0,0.0,
2025-08-15T04:39:11.050Z,17,GR86-037-03,-1.4,0.101,-0.158,99.85,4.0,,0.0,0.0,
2025-08-15T04:39:11.093Z,17,GR86-037-03,-1.4,0.126,-0.155,99.85,4.0,6772.0,0.0,0.0,
2025-08-15T04:39:11.136Z,17,GR86-037-03,-1.4,0.107,-0.155,99.87,4.0,,0.0,0.0,172.13
2025-08-15T04:39:11.179Z,17,GR86-037-03,-1.4,0.122,-0.14,99.86,4.0,,0.0,0.0,
2025-08-15T04:39:11.223Z,17,GR86-037-03,-1.4,0.162,-0.164,99.85,4.0,,0.0,0.0,
2025-08-15T04:39:11.265Z,17,GR86-037-03,-1.4,0.14,-0.147,99.87,4.0,,0.0,0.0,
2025-08-15T04:39:11.308Z,17,GR86-037-03,-1.4,0.162,-0.178,99.86,4.0,6803.0,0.0,0.0,
2025-08-15T04:39:11.351Z,17,GR86-037-03,-1.4,0.141,-0.185,99.86,4.0,,0.0,0.0,174.15
2025-08-15T04:39:11.394Z,17,GR86-037-03,-1.4,0.155,-0.224,99.89,4.0,,0.0,0.0,
2025-08-15T04:39:11.437Z,17,GR86-037-03,-1.4,0.129,-0.218,99.87,4.0,,0.0,0.0,
2025-08-15T04:39:11.480Z,17,GR86-037-03,-1.4,0.12,-0.195,99.86,4.0,,0.0,0.0,
2025-08-15T04:39:11.524Z,17,GR86-037-03,-1.4,0.141,-0.158,99.88,4.0,6844.0,0.0,0.0,
2025-08-15T04:39:11.566Z,17,GR86-037-03,-1.4,0.125,-0.173,99.87,4.0,,0.0,0.0,175.14
2025-08-15T04:39:11.609Z,17,GR86-037-03,-1.4,0.137,-0.181,99.86,4.0,,0.0,0.0,
2025-08-15T04:39:11.652Z,17,GR86-037-03,-1.4,0.146,-0.177,99.87,4.0,,0.0,0.0,
2025-08-15T04:39:11.695Z,17,GR86-037-03,-1.4,0.133,-0.191,99.85,4.0,,0.0,0.0,
2025-08-15T04:39:11.738Z,17,GR86-037-03,-1.4,0.161,-0.178,99.86,4.0,6896.0,0.0,0.0,
2025-08-15T04:39:11.781Z,17,GR86-037-03,-1.4,0.112,-0.192,99.88,4.0,,0.0,0.0,176.16
2025-08-15T04:39:11.824Z,17,GR86-037-03,-1.4,0.094,-0.163,99.86,4.0,,0.0,0.0,
2025-08-15T04:39:11.867Z,17,GR86-037-03,-1.4,0.104,-0.174,99.86,4.0,,0.0,0.0,
2025-08-15T04:39:11.910Z,17,GR86-037-03,-1.4,0.094,-0.179,99.86,4.0,,0.0,0.0,
2025-08-15T04:39:11.953Z,17,GR86-037-03,-1.4,0.114,-0.153,99.86,4.0,6961.0,0.0,0.0,
2025-08-15T04:39:11.996Z,17,GR86-037-03,-1.4,0.083,-0.163,99.85,4.0,,0.0,0.0,177.20000000000002
2025-08-15T04:39:12.039Z,17,GR86-037-03,-1.4,0.114,-0.16,99.87,4.0,,0.0,0.0,
2025-08-15T04:39:12.083Z,17,GR86-037-03,-1.4,0.151,-0.171,99.86,4.0,,0.0,0.0,
2025-08-15T04:39:12.125Z,17,GR86-037-03,-1.4,0.154,-0.181,99.87,4.0,,0.0,0.0,
2025-08-15T04:39:12.168Z,17,GR86-037-03,-1.4,0.133,-0.188,99.86,4.0,7000.0,0.0,0.0,
2025-08-15T04:39:12.211Z,17,GR86-037-03,-1.4,0.145,-0.213,99.86,4.0,,0.0,0.0,178.27
2025-08-15T04:39:12.254Z,17,GR86-037-03,-1.4,0.142,-0.202,99.87,4.0,,0.0,0.0,
2025-08-15T04:39:12.297Z,17,GR86-037-03,-1.4,0.145,-0.187,99.88,4.0,,0.0,0.0,
2025-08-15T04:39:12.340Z,17,GR86-037-03,-1.4,0.143,-0.196,99.86,4.0,,0.0,0.0,
2025-08-15T04:39:12.384Z,17,GR86-037-03,-1.4,0.109,-0.201,99.88,4.0,7041.0,0.0,0.0,
2025-08-15T04:39:12.426Z,17,GR86-037-03,-1.4,0.126,-0.175,99.86,4.0,,0.0,0.0,179.13
2025-08-15T04:39:12.469Z,17,GR86-037-03,-1.0,0.095,-0.162,99.88,4.0,,0.0,0.0,
2025-08-15T04:39:12.512Z,17,GR86-037-03,0.3,0.109,-0.151,99.9,4.0,,0.0,0.0,
2025-08-15T04:39:12.555Z,17,GR86-037-03,0.6000000000000001,0.099,-0.154,99.85,4.0,,0.0,0.0,
2025-08-15T04:39:12.598Z,17,GR86-037-03,0.6000000000000001,0.108,-0.161,99.84,4.0,7074.0,0.0,0.0,
2025-08-15T04:39:12.641Z,17,GR86-037-03,0.6000000000000001,0.108,-0.156,99.86,4.0,,0.0,0.0,180.12
2025-08-15T04:39:12.684Z,17,GR86-037-03,0.6000000000000001,0.136,-0.145,99.87,4.0,,0.0,0.0,
2025-08-15T04:39:12.727Z,17,GR86-037-03,0.3,0.139,-0.133,99.86,4.0,,0.0,0.0,
2025-08-15T04:39:12.770Z,17,GR86-037-03,-0.4,0.135,-0.116,99.86,4.0,,0.0,0.0,
2025-08-15T04:39:12.813Z,17,GR86-037-03,-0.6000000000000001,0.143,-0.1,99.85,4.0,7114.0,0.0,0.0,
2025-08-15T04:39:12.856Z,17,GR86-037-03,-0.6000000000000001,0.141,-0.085,99.86,4.0,,0.0,0.0,181.06
2025-08-15T04:39:12.899Z,17,GR86-037-03,-0.6000000000000001,0.134,-0.082,99.87,4.0,,0.0,0.0,
2025-08-15T04:39:12.944Z,17,GR86-037-03,-0.6000000000000001,0.089,-0.085,99.85,4.0,,0.0,0.0,
2025-08-15T04:39:12.987Z,17,GR86-037-03,-0.6000000000000001,0.093,-0.105,99.87,4.0,,0.0,0.0,
2025-08-15T04:39:13.030Z,17,GR86-037-03,-0.6000000000000001,0.104,-0.105,99.86,4.0,7156.0,0.0,0.0,
2025-08-15T04:39:13.073Z,17,GR86-037-03,-0.6000000000000001,0.096,-0.122,99.86,4.0,,0.0,0.0,182.04
2025-08-15T04:39:13.116Z,17,GR86-037-03,-0.6000000000000001,0.095,-0.124,99.85,4.0,,0.0,0.0,
2025-08-15T04:39:13.159Z,17,GR86-037-03,-0.6000000000000001,0.087,-0.136,99.85,4.0,,0.0,0.0,
2025-08-15T04:39:13.203Z,17,GR86-037-03,-0.6000000000000001,0.118,-0.144,99.87,4.0,,0.0,0.0,
2025-08-15T04:39:13.247Z,17,GR86-037-03,-0.6000000000000001,0.061,-0.144,99.86,5.0,7198.0,0.0,0.0,
2025-08-15T04:39:13.290Z,17,GR86-037-03,-0.6000000000000001,-0.128,-0.119,99.85,5.0,,0.0,0.0,182.91
2025-08-15T04:39:13.333Z,17,GR86-037-03,-0.6000000000000001,0.305,-0.118,99.88,5.0,,0.0,0.0,
2025-08-15T04:39:13.376Z,17,GR86-037-03,-0.6000000000000001,0.222,-0.218,99.88,5.0,,0.0,0.0,
2025-08-15T04:39:13.419Z,17,GR86-037-03,-0.6000000000000001,0.129,-0.084,99.87,5.0,,0.0,0.0,
2025-08-15T04:39:13.463Z,17,GR86-037-03,-0.6000000000000001,-0.007,-0.19,99.86,5.0,7224.0,0.0,0.0,
2025-08-15T04:39:13.506Z,17,GR86-037-03,-0.6000000000000001,0.109,-0.133,99.86,5.0,,0.0,0.0,183.96
2025-08-15T04:39:13.549Z,17,GR86-037-03,-0.6000000000000001,0.135,-0.106,99.86,5.0,,0.0,0.0,
2025-08-15T04:39:13.592Z,17,GR86-037-03,-0.6000000000000001,0.093,-0.17,99.87,5.0,,0.0,0.0,
2025-08-15T04:39:13.635Z,17,GR86-037-03,-0.6000000000000001,0.057,-0.132,99.85,5.0,,0.0,0.0,
2025-08-15T04:39:13.678Z,17,GR86-037-03,-0.6000000000000001,0.124,-0.156,99.89,5.0,6632.0,0.0,0.0,
2025-08-15T04:39:13.723Z,17,GR86-037-03,-0.6000000000000001,0.08,-0.136,99.87,5.0,,0.0,0.0,184.82
2025-08-15T04:39:13.766Z,17,GR86-037-03,-0.6000000000000001,0.076,-0.136,99.86,5.0,,0.0,0.0,
2025-08-15T04:39:13.809Z,17,GR86-037-03,-0.6000000000000001,0.081,-0.125,99.85,5.0,,0.0,0.0,
2025-08-15T04:39:13.852Z,17,GR86-037-03,-0.6000000000000001,0.082,-0.137,99.87,5.0,,0.0,0.0,
2025-08-15T04:39:13.895Z,17,GR86-037-03,-0.6000000000000001,0.08,-0.141,99.85,5.0,6344.0,0.0,0.0,
2025-08-15T04:39:13.938Z,17,GR86-037-03,-0.6000000000000001,0.08,-0.117,99.86,5.0,,0.0,0.0,185.61
2025-08-15T04:39:13.981Z,17,GR86-037-03,-0.6000000000000001,0.09,-0.131,99.87,5.0,,0.0,0.0,
2025-08-15T04:39:14.024Z,17,GR86-037-03,-0.6000000000000001,0.105,-0.137,99.86,5.0,,0.0,0.0,
2025-08-15T04:39:14.067Z,17,GR86-037-03,-0.6000000000000001,0.098,-0.164,99.86,5.0,,0.0,0.0,
2025-08-15T04:39:14.110Z,17,GR86-037-03,-0.6000000000000001,0.094,-0.161,99.86,5.0,6332.0,0.0,0.0,
2025-08-15T04:39:14.153Z,17,GR86-037-03,-0.6000000000000001,0.078,-0.153,99.88,5.0,,0.0,0.0,187.12
2025-08-15T04:39:14.196Z,17,GR86-037-03,-0.6000000000000001,0.104,-0.155,99.85,5.0,,0.0,0.0,
2025-08-15T04:39:14.239Z,17,GR86-037-03,-0.6000000000000001,0.076,-0.146,99.87,5.0,,0.0,0.0,
2025-08-15T04:39:14.284Z,17,GR86-037-03,-0.6000000000000001,0.083,-0.136,99.87,5.0,,0.0,0.0,
2025-08-15T04:39:14.327Z,17,GR86-037-03,-0.6000000000000001,0.108,-0.152,99.88,5.0,6362.0,0.0,0.0,
2025-08-15T04:39:14.370Z,17,GR86-037-03,-0.6000000000000001,0.094,-0.135,99.87,5.0,,0.0,0.0,187.81
2025-08-15T04:39:14.413Z,17,GR86-037-03,-0.6000000000000001,0.114,-0.141,99.85,5.0,,0.0,0.0,
2025-08-15T04:39:14.456Z,17,GR86-037-03,-0.6000000000000001,0.095,-0.145,99.88,5.0,,0.0,0.0,
2025-08-15T04:39:14.499Z,17,GR86-037-03,-0.6000000000000001,0.083,-0.143,99.85,5.0,,0.0,0.0,
2025-08-15T04:39:14.544Z,17,GR86-037-03,-0.6000000000000001,0.09,-0.148,99.85,5.0,6418.0,0.0,0.0,
2025-08-15T04:39:14.587Z,17,GR86-037-03,-0.6000000000000001,0.118,-0.133,99.87,5.0,,0.0,0.0,188.66
2025-08-15T04:39:14.630Z,17,GR86-037-03,-0.6000000000000001,0.088,-0.154,99.88,5.0,,0.0,0.0,
2025-08-15T04:39:14.673Z,17,GR86-037-03,-0.6000000000000001,0.105,-0.144,99.86,5.0,,0.0,0.0,
2025-08-15T04:39:14.716Z,17,GR86-037-03,-0.6000000000000001,0.091,-0.139,99.87,5.0,,0.0,0.0,
2025-08-15T04:39:14.759Z,17,GR86-037-03,-0.6000000000000001,0.106,-0.132,99.85,5.0,6441.0,0.0,0.0,
2025-08-15T04:39:14.803Z,17,GR86-037-03,-0.6000000000000001,0.084,-0.136,99.87,5.0,,0.0,0.0,189.35
2025-08-15T04:39:14.846Z,17,GR86-037-03,0.1,0.062,-0.145,99.87,5.0,,0.0,0.0,
2025-08-15T04:39:14.889Z,17,GR86-037-03,0.5,0.095,-0.138,99.87,5.0,,0.0,0.0,
2025-08-15T04:39:14.932Z,17,GR86-037-03,0.5,0.098,-0.147,99.85,5.0,,0.0,0.0,
2025-08-15T04:39:14.975Z,17,GR86-037-03,0.5,0.108,-0.141,99.87,5.0,6469.0,0.0,0.0,
2025-08-15T04:39:15.019Z,17,GR86-037-03,0.5,0.09,-0.131,99.88,5.0,,0.0,0.0,190.1
2025-08-15T04:39:15.063Z,17,GR86-037-03,0.5,0.065,-0.104,99.88,5.0,,0.0,0.0,
2025-08-15T04:39:15.105Z,17,GR86-037-03,0.5,0.103,-0.105,99.88,5.0,,0.0,0.0,
2025-08-15T04:39:15.148Z,17,GR86-037-03,0.5,0.075,-0.102,99.84,5.0,,0.0,0.0,
2025-08-15T04:39:15.191Z,17,GR86-037-03,0.5,0.108,-0.102,99.87,5.0,6495.0,0.0,0.0,
2025-08-15T04:39:15.234Z,17,GR86-037-03,0.5,0.097,-0.086,99.86,5.0,,0.0,0.0,190.87
2025-08-15T04:39:15.277Z,17,GR86-037-03,0.5,0.115,-0.097,99.85,5.0,,0.0,0.0,
2025-08-15T04:39:15.320Z,17,GR86-037-03,0.5,0.1,-0.094,99.87,5.0,,0.0,0.0,
2025-08-15T04:39:15.364Z,17,GR86-037-03,0.5,0.082,-0.079,99.86,5.0,,0.0,0.0,
2025-08-15T04:39:15.407Z,17,GR86-037-03,0.5,0.078,-0.08,99.88,5.0,6509.0,0.0,0.0,
2025-08-15T04:39:15.450Z,17,GR86-037-03,0.5,0.085,-0.066,99.86,5.0,,0.0,0.0,191.64
2025-08-15T04:39:15.493Z,17,GR86-037-03,0.5,0.102,-0.09,99.85,5.0,,0.0,0.0,
2025-08-15T04:39:15.536Z,17,GR86-037-03,0.5,0.102,-0.088,99.87,5.0,,0.0,0.0,
2025-08-15T04:39:15.579Z,17,GR86-037-03,0.5,0.11,-0.108,99.88,5.0,,0.0,0.0,
2025-08-15T04:39:15.623Z,17,GR86-037-03,0.5,0.092,-0.088,99.85,5.0,6545.0,0.0,0.0,
2025-08-15T04:39:15.665Z,17,GR86-037-03,0.5,0.072,-0.063,99.87,5.0,,0.0,0.0,192.4
2025-08-15T04:39:15.708Z,17,GR86-037-03,0.5,0.084,-0.082,99.86,5.0,,0.0,0.0,
2025-08-15T04:39:15.751Z,17,GR86-037-03,0.5,0.091,-0.087,99.86,5.0,,0.0,0.0,
2025-08-15T04:39:15.794Z,17,GR86-037-03,0.5,0.094,-0.094,99.85,5.0,,0.0,0.0,
2025-08-15T04:39:15.837Z,17,GR86-037-03,0.5,0.104,-0.09,99.85,5.0,6567.0,0.0,0.0,
2025-08-15T04:39:15.880Z,17,GR86-037-03,0.5,0.106,-0.093,99.87,5.0,,0.0,0.0,193.15
2025-08-15T04:39:15.924Z,17,GR86-037-03,0.5,0.064,-0.078,99.86,5.0,,0.0,0.0,
2025-08-15T04:39:15.967Z,17,GR86-037-03,0.5,0.083,-0.08,99.86,5.0,,0.0,0.0,
2025-08-15T04:39:16.010Z,17,GR86-037-03,0.5,0.066,-0.087,99.87,5.0,,0.0,0.0,
2025-08-15T04:39:16.054Z,17,GR86-037-03,0.5,0.101,-0.084,99.86,5.0,6599.0,0.0,0.0,
2025-08-15T04:39:16.097Z,17,GR86-037-03,0.5,0.09,-0.088,99.87,5.0,,0.0,0.0,193.92
2025-08-15T04:39:16.140Z,17,GR86-037-03,0.6000000000000001,0.112,-0.069,99.88,5.0,,0.0,0.0,
2025-08-15T04:39:16.184Z,17,GR86-037-03,0.9,0.065,-0.102,99.87,5.0,,0.0,0.0,
2025-08-15T04:39:16.226Z,17,GR86-037-03,1.3,0.074,-0.098,99.86,5.0,,0.0,0.0,
2025-08-15T04:39:16.270Z,17,GR86-037-03,1.5,0.075,-0.112,99.87,5.0,6620.0,0.0,0.0,
2025-08-15T04:39:16.313Z,17,GR86-037-03,1.5,0.083,-0.089,99.87,5.0,,0.0,0.0,194.74
2025-08-15T04:39:16.356Z,17,GR86-037-03,1.5,0.106,-0.085,99.85,5.0,,0.0,0.0,
2025-08-15T04:39:16.399Z,17,GR86-037-03,1.5,0.12,-0.098,99.86,5.0,,0.0,0.0,
2025-08-15T04:39:16.444Z,17,GR86-037-03,1.5,0.069,-0.079,99.86,5.0,,0.0,0.0,
2025-08-15T04:39:16.487Z,17,GR86-037-03,1.5,0.069,-0.071,99.88,5.0,6650.0,0.0,0.0,
2025-08-15T04:39:16.530Z,17,GR86-037-03,1.8,0.092,-0.071,99.85,5.0,,0.0,0.0,195.44
2025-08-15T04:39:16.573Z,17,GR86-037-03,2.0,0.085,-0.075,99.85,5.0,,0.0,0.0,
2025-08-15T04:39:16.616Z,17,GR86-037-03,2.1,0.132,-0.079,99.86,5.0,,0.0,0.0,
2025-08-15T04:39:16.702Z,17,GR86-037-03,2.1,0.051,-0.051,99.86,5.0,6672.0,0.0,0.0,
2025-08-15T04:39:16.745Z,17,GR86-037-03,2.1,0.085,-0.065,99.86,5.0,,0.0,0.0,196.96
2025-08-15T04:39:16.788Z,17,GR86-037-03,2.1,0.097,-0.059,99.86,5.0,,0.0,0.0,
2025-08-15T04:39:16.831Z,17,GR86-037-03,2.1,0.122,-0.057,99.86,5.0,,0.0,0.0,
2025-08-15T04:39:16.874Z,17,GR86-037-03,2.1,0.12,-0.038,99.85,5.0,,0.0,0.0,
2025-08-15T04:39:16.917Z,17,GR86-037-03,2.1,0.119,-0.019,99.87,5.0,6700.0,0.0,0.0,
2025-08-15T04:39:16.960Z,17,GR86-037-03,2.1,0.088,-0.006,99.86,5.0,,0.0,0.0,197.76
2025-08-15T04:39:17.004Z,17,GR86-037-03,2.1,0.102,-0.011,99.85,5.0,,0.0,0.0,
2025-08-15T04:39:17.047Z,17,GR86-037-03,2.3000000000000003,0.112,-0.033,99.86,5.0,,0.0,0.0,
2025-08-15T04:39:17.090Z,17,GR86-037-03,2.4000000000000004,0.119,-0.002,99.86,5.0,,0.0,0.0,
2025-08-15T04:39:17.134Z,17,GR86-037-03,2.6,0.097,0.006,99.87,5.0,6723.0,0.0,0.0,
2025-08-15T04:39:17.177Z,17,GR86-037-03,2.7,0.103,0.005,99.86,5.0,,0.0,0.0,198.5
2025-08-15T04:39:17.220Z,17,GR86-037-03,2.7,0.083,0.011,99.85,5.0,,0.0,0.0,
2025-08-15T04:39:17.264Z,17,GR86-037-03,2.7,0.119,0.001,99.85,5.0,,0.0,0.0,
2025-08-15T04:39:17.306Z,17,GR86-037-03,2.7,0.111,0.016,99.86,5.0,,0.0,0.0,
2025-08-15T04:39:17.349Z,17,GR86-037-03,2.7,0.097,0.007,99.87,5.0,6775.0,0.0,0.0,
2025-08-15T04:39:17.393Z,17,GR86-037-03,2.7,0.086,-0.004,99.85,5.0,,0.0,0.0,199.23
2025-08-15T04:39:17.435Z,17,GR86-037-03,2.7,0.078,-0.016,99.85,5.0,,0.0,0.0,
2025-08-15T04:39:17.521Z,17,GR86-037-03,2.7,0.052,-0.007,99.85,5.0,,0.0,0.0,
2025-08-15T04:39:17.564Z,17,GR86-037-03,2.7,0.087,0.004,99.86,5.0,6798.0,0.0,0.0,
2025-08-15T04:39:17.607Z,17,GR86-037-03,2.7,0.065,-0.021,99.85,5.0,,0.0,0.0,200.03
2025-08-15T04:39:17.650Z,17,GR86-037-03,2.7,0.062,-0.021,99.87,5.0,,0.0,0.0,
2025-08-15T04:39:17.693Z,17,GR86-037-03,2.7,0.066,-0.013,99.85,5.0,,0.0,0.0,
2025-08-15T04:39:17.736Z,17,GR86-037-03,3.0,0.073,0.007,99.86,5.0,,0.0,0.0,
2025-08-15T04:39:17.779Z,17,GR86-037-03,3.2,0.092,0.008,99.85,5.0,6821.0,0.0,0.0,
2025-08-15T04:39:17.823Z,17,GR86-037-03,3.5,0.05,-0.017,99.85,5.0,,0.0,0.0,200.76
2025-08-15T04:39:17.866Z,17,GR86-037-03,3.5,0.068,0.002,99.86,5.0,,0.0,0.0,
2025-08-15T04:39:17.909Z,17,GR86-037-03,3.6,0.068,0.031,99.85,5.0,,0.0,0.0,
2025-08-15T04:39:17.952Z,17,GR86-037-03,3.7,0.098,0.034,99.87,5.0,,0.0,0.0,
2025-08-15T04:39:18.038Z,17,GR86-037-03,4.0,0.104,0.02,99.86,5.0,6846.0,0.0,0.0,201.36
2025-08-15T04:39:18.081Z,17,GR86-037-03,4.0,0.099,0.033,99.86,5.0,,0.0,0.0,
2025-08-15T04:39:18.124Z,17,GR86-037-03,4.1000000000000005,0.111,0.045,99.88,5.0,,0.0,0.0,
2025-08-15T04:39:18.168Z,17,GR86-037-03,4.0,0.101,0.041,99.85,5.0,,0.0,0.0,
2025-08-15T04:39:18.211Z,17,GR86-037-03,4.1000000000000005,0.114,0.043,99.86,5.0,6874.0,0.0,0.0,
2025-08-15T04:39:18.254Z,17,GR86-037-03,4.1000000000000005,0.1,0.063,99.86,5.0,,0.0,0.0,201.94
2025-08-15T04:39:18.297Z,17,GR86-037-03,4.1000000000000005,0.076,0.065,99.86,5.0,,0.0,0.0,
2025-08-15T04:39:18.340Z,17,GR86-037-03,4.3,0.055,0.055,99.85,5.0,,0.0,0.0,
2025-08-15T04:39:18.384Z,17,GR86-037-03,5.9,0.082,0.048,99.86,5.0,,0.0,0.0,
2025-08-15T04:39:18.427Z,17,GR86-037-03,7.0,0.09,0.068,99.86,5.0,6893.0,0.0,0.0,
2025-08-15T04:39:18.470Z,17,GR86-037-03,7.1000000000000005,0.059,0.103,99.85,5.0,,0.0,0.0,202.68
2025-08-15T04:39:18.513Z,17,GR86-037-03,7.1000000000000005,0.057,0.105,99.86,5.0,,0.0,0.0,
2025-08-15T04:39:18.556Z,17,GR86-037-03,7.1000000000000005,0.061,0.111,99.86,5.0,,0.0,0.0,
2025-08-15T04:39:18.599Z,17,GR86-037-03,7.1000000000000005,0.066,0.122,99.85,5.0,,0.0,0.0,
2025-08-15T04:39:18.644Z,17,GR86-037-03,7.1000000000000005,0.081,0.129,99.86,5.0,6929.0,0.0,0.0,
2025-08-15T04:39:18.687Z,17,GR86-037-03,7.1000000000000005,0.044,0.167,99.85,5.0,,0.0,0.0,203.29
2025-08-15T04:39:18.730Z,17,GR86-037-03,7.1000000000000005,0.081,0.174,99.86,5.0,,0.0,0.0,
2025-08-15T04:39:18.773Z,17,GR86-037-03,7.1000000000000005,0.104,0.172,99.88,5.0,,0.0,0.0,
2025-08-15T04:39:18.816Z,17,GR86-037-03,7.1000000000000005,0.078,0.181,99.85,5.0,,0.0,0.0,
2025-08-15T04:39:18.859Z,17,GR86-037-03,7.1000000000000005,0.111,0.18,99.85,5.0,6938.0,0.0,0.0,
2025-08-15T04:39:18.903Z,17,GR86-037-03,7.1000000000000005,0.085,0.211,99.86,5.0,,0.0,0.0,204.11
2025-08-15T04:39:18.947Z,17,GR86-037-03,7.1000000000000005,0.084,0.199,99.86,5.0,,0.0,0.0,
2025-08-15T04:39:18.990Z,17,GR86-037-03,7.1000000000000005,0.118,0.175,99.87,5.0,,0.0,0.0,
2025-08-15T04:39:19.033Z,17,GR86-037-03,7.1000000000000005,0.061,0.178,99.86,5.0,,0.0,0.0,
2025-08-15T04:39:19.076Z,17,GR86-037-03,7.1000000000000005,0.086,0.177,99.86,5.0,6960.0,0.0,0.0,
2025-08-15T04:39:19.119Z,17,GR86-037-03,7.1000000000000005,0.047,0.163,99.86,5.0,,0.0,0.0,204.81
2025-08-15T04:39:19.164Z,17,GR86-037-03,7.1000000000000005,0.052,0.143,99.86,5.0,,0.0,0.0,
2025-08-15T04:39:19.206Z,17,GR86-037-03,7.1000000000000005,0.057,0.141,99.86,5.0,,0.0,0.0,
2025-08-15T04:39:19.249Z,17,GR86-037-03,7.1000000000000005,0.048,0.12,99.86,5.0,,2.165,2.4250000000000003,
2025-08-15T04:39:19.293Z,17,GR86-037-03,7.1000000000000005,0.037,0.144,99.85,5.0,6985.0,0.0,0.0,
2025-08-15T04:39:19.335Z,17,GR86-037-03,7.1000000000000005,0.043,0.171,99.87,5.0,,0.0,0.0,205.44
2025-08-15T04:39:19.378Z,17,GR86-037-03,7.1000000000000005,0.081,0.143,99.88,5.0,,0.0,0.0,
2025-08-15T04:39:19.421Z,17,GR86-037-03,7.1000000000000005,0.064,0.127,99.85,5.0,,0.0,0.0,
2025-08-15T04:39:19.507Z,17,GR86-037-03,7.1000000000000005,0.068,0.181,99.86,5.0,7009.0,0.0,0.0,
2025-08-15T04:39:19.550Z,17,GR86-037-03,7.1000000000000005,0.09,0.162,99.86,5.0,,0.0,0.0,206.74
2025-08-15T04:39:19.593Z,17,GR86-037-03,7.1000000000000005,0.04,0.156,99.84,5.0,,0.0,0.0,
2025-08-15T04:39:19.636Z,17,GR86-037-03,7.1000000000000005,0.065,0.142,99.85,5.0,,0.0,0.0,
2025-08-15T04:39:19.679Z,17,GR86-037-03,7.1000000000000005,0.032,0.159,99.85,5.0,,0.0,0.0,
2025-08-15T04:39:19.723Z,17,GR86-037-03,7.1000000000000005,0.038,0.129,99.86,5.0,7020.0,0.0,0.0,
2025-08-15T04:39:19.765Z,17,GR86-037-03,7.1000000000000005,0.046,0.138,99.88,5.0,,0.0,0.0,207.33
2025-08-15T04:39:19.808Z,17,GR86-037-03,7.1000000000000005,0.042,0.138,99.85,5.0,,0.0,0.0,
2025-08-15T04:39:19.851Z,17,GR86-037-03,7.1000000000000005,0.061,0.15,99.86,5.0,,0.0,0.0,
2025-08-15T04:39:19.894Z,17,GR86-037-03,7.1000000000000005,0.065,0.149,99.86,5.0,,0.0,0.0,
2025-08-15T04:39:19.937Z,17,GR86-037-03,7.1000000000000005,0.061,0.148,99.86,5.0,7041.0,0.0,0.0,
2025-08-15T04:39:19.980Z,17,GR86-037-03,7.1000000000000005,0.073,0.18,99.86,5.0,,0.0,0.0,207.81
2025-08-15T04:39:20.024Z,17,GR86-037-03,7.1000000000000005,0.072,0.201,99.86,5.0,,0.0,0.0,
2025-08-15T04:39:20.066Z,17,GR86-037-03,7.1000000000000005,0.05,0.205,99.85,5.0,,0.0,0.0,
2025-08-15T04:39:20.109Z,17,GR86-037-03,7.1000000000000005,0.068,0.21,99.86,5.0,,0.0,0.0,
2025-08-15T04:39:20.152Z,17,GR86-037-03,7.1000000000000005,0.065,0.209,99.85,5.0,7090.0,0.0,0.0,
2025-08-15T04:39:20.195Z,17,GR86-037-03,7.1000000000000005,0.033,0.203,99.85,5.0,,0.0,0.0,208.17
2025-08-15T04:39:20.238Z,17,GR86-037-03,7.1000000000000005,0.054,0.185,99.87,5.0,,0.0,0.0,
2025-08-15T04:39:20.281Z,17,GR86-037-03,7.1000000000000005,0.057,0.158,99.86,5.0,,0.0,0.0,
2025-08-15T04:39:20.324Z,17,GR86-037-03,7.1000000000000005,0.038,0.153,99.85,5.0,,0.0,0.0,
2025-08-15T04:39:20.367Z,17,GR86-037-03,7.1000000000000005,0.097,0.142,99.87,5.0,7100.0,0.0,0.0,
2025-08-15T04:39:20.410Z,17,GR86-037-03,7.1000000000000005,0.02,0.148,99.86,5.0,,0.0,0.0,208.83
2025-08-15T04:39:20.453Z,17,GR86-037-03,7.300000000000001,0.089,0.149,99.85,5.0,,0.0,0.0,
2025-08-15T04:39:20.496Z,17,GR86-037-03,7.6,0.059,0.164,99.85,5.0,,0.0,0.0,
2025-08-15T04:39:20.539Z,17,GR86-037-03,7.9,0.069,0.167,99.86,5.0,,0.0,0.0,
2025-08-15T04:39:20.584Z,17,GR86-037-03,7.9,0.099,0.157,99.87,5.0,7122.0,0.0,0.0,
2025-08-15T04:39:20.627Z,17,GR86-037-03,7.9,0.067,0.163,99.87,5.0,,0.0,0.0,209.4
2025-08-15T04:39:20.670Z,17,GR86-037-03,7.9,0.057,0.148,99.85,5.0,,0.0,0.0,
2025-08-15T04:39:20.713Z,17,GR86-037-03,8.3,0.049,0.159,99.85,5.0,,0.0,0.0,
2025-08-15T04:39:20.756Z,17,GR86-037-03,9.2,0.058,0.199,99.85,5.0,,0.0,0.0,
2025-08-15T04:39:20.799Z,17,GR86-037-03,10.6,0.072,0.236,99.86,5.0,7140.0,0.0,0.0,
2025-08-15T04:39:20.844Z,17,GR86-037-03,11.6,0.05,0.282,99.86,5.0,,0.0,0.0,209.98
2025-08-15T04:39:20.887Z,17,GR86-037-03,11.7,0.068,0.303,99.86,5.0,,0.0,0.0,
2025-08-15T04:39:20.930Z,17,GR86-037-03,11.7,0.073,0.343,99.85,5.0,,0.0,0.0,
2025-08-15T04:39:20.973Z,17,GR86-037-03,11.7,0.08,0.34,99.86,5.0,,0.0,0.0,
2025-08-15T04:39:21.016Z,17,GR86-037-03,11.7,0.063,0.381,99.86,5.0,7164.0,0.0,0.0,
2025-08-15T04:39:21.059Z,17,GR86-037-03,11.7,0.025,0.401,99.87,5.0,,0.0,0.0,210.59
2025-08-15T04:39:21.103Z,17,GR86-037-03,11.7,0.064,0.467,99.89,5.0,,0.0,0.0,
2025-08-15T04:39:21.145Z,17,GR86-037-03,11.7,0.038,0.494,99.84,5.0,,0.0,0.0,
2025-08-15T04:39:21.188Z,17,GR86-037-03,11.0,0.052,0.492,99.86,5.0,,0.0,0.0,
2025-08-15T04:39:21.232Z,17,GR86-037-03,10.3,0.058,0.485,99.86,5.0,7181.0,0.0,0.0,
2025-08-15T04:39:21.275Z,17,GR86-037-03,9.8,0.06,0.457,99.85,5.0,,0.0,0.0,211.24
2025-08-15T04:39:21.319Z,17,GR86-037-03,9.6,0.09,0.431,99.86,5.0,,0.0,0.0,
2025-08-15T04:39:21.361Z,17,GR86-037-03,8.3,0.036,0.434,99.85,5.0,,0.0,0.0,
2025-08-15T04:39:21.404Z,17,GR86-037-03,5.5,0.061,0.385,99.86,5.0,,0.0,0.0,
2025-08-15T04:39:21.447Z,17,GR86-037-03,5.2,0.068,0.351,99.85,5.0,7211.0,0.0,0.0,
2025-08-15T04:39:21.490Z,17,GR86-037-03,5.5,0.047,0.311,99.85,5.0,,0.0,0.0,211.95
2025-08-15T04:39:21.533Z,17,GR86-037-03,6.6000000000000005,0.055,0.258,99.87,5.0,,0.0,0.0,
2025-08-15T04:39:21.576Z,17,GR86-037-03,7.300000000000001,0.056,0.223,99.86,5.0,,0.0,0.0,
2025-08-15T04:39:21.619Z,17,GR86-037-03,7.300000000000001,0.058,0.213,99.85,5.0,,0.0,0.0,
2025-08-15T04:39:21.663Z,17,GR86-037-03,7.300000000000001,0.034,0.194,99.85,5.0,7234.0,0.0,0.0,
2025-08-15T04:39:21.705Z,17,GR86-037-03,7.300000000000001,0.064,0.128,99.85,5.0,,0.0,0.0,212.53
2025-08-15T04:39:21.748Z,17,GR86-037-03,7.300000000000001,0.043,0.126,99.85,5.0,,0.0,0.0,
2025-08-15T04:39:21.791Z,17,GR86-037-03,7.300000000000001,0.047,0.127,67.04,5.0,,0.0,0.0,
2025-08-15T04:39:21.834Z,17,GR86-037-03,7.300000000000001,0.03,0.138,2.85,5.0,,0.0,0.0,
2025-08-15T04:39:21.877Z,17,GR86-037-03,7.300000000000001,0.01,0.102,4.38,5.0,7254.0,0.0,0.0,
2025-08-15T04:39:21.920Z,17,GR86-037-03,7.300000000000001,-0.204,0.088,4.26,5.0,,7.05,7.8,213.12
2025-08-15T04:39:21.964Z,17,GR86-037-03,7.300000000000001,-0.59,0.146,3.88,5.0,,28.065,28.4,
2025-08-15T04:39:22.006Z,17,GR86-037-03,7.300000000000001,-0.629,0.11,3.52,5.0,,44.56,44.62,
2025-08-15T04:39:22.049Z,17,GR86-037-03,7.300000000000001,-0.916,0.207,3.14,5.0,,71.05,70.805,
2025-08-15T04:39:22.093Z,17,GR86-037-03,7.300000000000001,-1.342,0.175,2.92,5.0,7264.0,93.68,93.145,
2025-08-15T04:39:22.135Z,17,GR86-037-03,7.300000000000001,-1.337,0.177,2.74,5.0,,111.46,111.965,213.75
2025-08-15T04:39:22.178Z,17,GR86-037-03,7.300000000000001,-1.338,0.279,2.7,5.0,,122.965,124.795,
2025-08-15T04:39:22.221Z,17,GR86-037-03,7.4,-1.335,0.298,2.63,5.0,,121.715,124.4,
2025-08-15T04:39:22.264Z,17,GR86-037-03,7.0,-1.447,0.395,2.5500000000000003,5.0,,120.995,122.215,
2025-08-15T04:39:22.307Z,17,GR86-037-03,3.5,-1.469,0.342,2.54,5.0,6940.0,121.805,123.805,
2025-08-15T04:39:22.350Z,17,GR86-037-03,-1.7000000000000002,-1.309,0.298,2.52,5.0,,117.485,119.075,209.58
2025-08-15T04:39:22.393Z,17,GR86-037-03,-7.5,-1.33,0.358,2.51,5.0,,114.875,115.93,
2025-08-15T04:39:22.436Z,17,GR86-037-03,-8.700000000000001,-1.28,0.24,2.51,5.0,,111.78,113.365,
2025-08-15T04:39:22.479Z,17,GR86-037-03,-8.8,-1.274,0.155,2.51,5.0,,105.22,107.46,
2025-08-15T04:39:22.523Z,17,GR86-037-03,-11.3,-1.27,0.193,2.51,5.0,6647.0,74.375,75.52,
2025-08-15T04:39:22.565Z,17,GR86-037-03,-11.9,-1.195,0.155,2.51,5.0,,60.55,61.97,199.74
2025-08-15T04:39:22.608Z,17,GR86-037-03,-11.2,-1.068,0.128,2.49,5.0,,59.68,60.765,
2025-08-15T04:39:22.651Z,17,GR86-037-03,-8.5,-1.175,0.121,2.51,5.0,,61.65,62.625,
2025-08-15T04:39:22.694Z,17,GR86-037-03,-3.4000000000000004,-1.212,0.029,2.51,5.0,,65.115,65.65,
2025-08-15T04:39:22.737Z,17,GR86-037-03,5.6000000000000005,-1.232,-0.018,2.5,5.0,6274.0,68.33500000000001,68.775,
2025-08-15T04:39:22.781Z,17,GR86-037-03,15.6,-1.238,0.009,2.49,5.0,,69.58500000000001,70.03,187.29
2025-08-15T04:39:22.824Z,17,GR86-037-03,21.700000000000003,-1.255,0.104,5.14,5.0,,68.47,69.525,
2025-08-15T04:39:22.867Z,17,GR86-037-03,21.700000000000003,-1.189,0.138,44.19,5.0,,65.65,67.465,
2025-08-15T04:39:22.910Z,17,GR86-037-03,21.700000000000003,-1.127,0.135,71.89,4.0,,61.65,63.74,
2025-08-15T04:39:22.954Z,17,GR86-037-03,20.3,-1.129,0.147,14.36,4.0,6014.0,60.26,62.0,
2025-08-15T04:39:22.997Z,17,GR86-037-03,14.5,-1.109,0.179,4.03,4.0,,61.42,62.93,184.02
2025-08-15T04:39:23.040Z,17,GR86-037-03,6.800000000000001,-1.274,0.14,3.94,4.0,,62.93,64.06,
2025-08-15T04:39:23.083Z,17,GR86-037-03,-2.2,-1.134,0.129,3.65,4.0,,61.71,62.870000000000005,
2025-08-15T04:39:23.126Z,17,GR86-037-03,-3.7,-1.139,0.173,3.42,4.0,,62.565000000000005,63.77,
2025-08-15T04:39:23.170Z,17,GR86-037-03,-3.7,-1.109,0.171,3.12,4.0,5452.0,62.095,63.115,
2025-08-15T04:39:23.213Z,17,GR86-037-03,-3.7,-1.223,0.265,2.9,4.0,,61.24,62.245000000000005,175.29
2025-08-15T04:39:23.255Z,17,GR86-037-03,-1.0,-1.218,0.219,7.92,4.0,,59.39,60.735,
2025-08-15T04:39:23.298Z,17,GR86-037-03,9.2,-1.18,0.227,48.25,4.0,,57.38,57.99,
2025-08-15T04:39:23.341Z,17,GR86-037-03,22.3,-1.102,0.362,91.74,4.0,,58.05,58.49,
2025-08-15T04:39:23.384Z,17,GR86-037-03,24.0,-1.152,0.388,57.04,3.0,6220.0,63.620000000000005,64.06,
2025-08-15T04:39:23.428Z,17,GR86-037-03,17.900000000000002,-1.177,0.352,2.19,3.0,,71.555,72.96000000000001,168.21
2025-08-15T04:39:23.471Z,17,GR86-037-03,12.4,-1.129,0.485,2.68,3.0,,79.93,81.03,
2025-08-15T04:39:23.514Z,17,GR86-037-03,10.7,-1.039,0.29,2.64,3.0,,83.15,83.84,
2025-08-15T04:39:23.557Z,17,GR86-037-03,9.8,-1.261,0.449,2.63,3.0,,85.09,85.9,
2025-08-15T04:39:23.600Z,17,GR86-037-03,7.1000000000000005,-1.229,0.472,2.61,3.0,6101.0,90.795,92.55,
2025-08-15T04:39:23.644Z,17,GR86-037-03,-0.1,-1.229,0.38,2.6,3.0,,92.275,93.5,161.01
2025-08-15T04:39:23.687Z,17,GR86-037-03,-5.7,-1.256,0.5,2.61,3.0,,94.61,95.8,
2025-08-15T04:39:23.730Z,17,GR86-037-03,-6.2,-1.233,0.256,2.57,3.0,,97.345,98.99,
2025-08-15T04:39:23.773Z,17,GR86-037-03,-3.5,-1.135,0.189,2.57,3.0,,97.62,99.175,
2025-08-15T04:39:23.816Z,17,GR86-037-03,-3.2,-1.224,0.321,2.57,3.0,6490.0,98.0,99.31,
2025-08-15T04:39:23.859Z,17,GR86-037-03,-1.0,-1.191,0.135,2.57,3.0,,97.19,98.685,153.94
2025-08-15T04:39:23.902Z,17,GR86-037-03,12.7,-1.325,0.198,2.57,3.0,,98.03,98.715,
2025-08-15T04:39:23.945Z,17,GR86-037-03,22.6,-1.407,0.276,26.73,3.0,,98.03,98.625,
2025-08-15T04:39:23.988Z,17,GR86-037-03,25.4,-1.284,0.287,69.38,3.0,,98.335,98.78,
2025-08-15T04:39:24.031Z,17,GR86-037-03,23.6,-1.43,0.398,99.8,3.0,6501.0,98.685,98.9,
2025-08-15T04:39:24.074Z,17,GR86-037-03,16.900000000000002,-1.203,0.336,75.87,2.0,,99.65,101.08,146.41
2025-08-15T04:39:24.117Z,17,GR86-037-03,11.7,-1.463,0.248,5.15,2.0,,102.87,104.895,
2025-08-15T04:39:24.160Z,17,GR86-037-03,8.700000000000001,-1.348,0.354,2.89,2.0,,102.455,104.655,
2025-08-15T04:39:24.204Z,17,GR86-037-03,2.0,-1.471,0.294,2.83,2.0,,94.795,95.74,
2025-08-15T04:39:24.247Z,17,GR86-037-03,-3.9,-1.235,0.322,2.79,2.0,6021.0,96.96,98.535,
2025-08-15T04:39:24.290Z,17,GR86-037-03,-2.5,-1.16,0.22,2.76,2.0,,95.895,96.93,136.81
2025-08-15T04:39:24.334Z,17,GR86-037-03,2.2,-1.116,0.212,2.74,2.0,,95.175,96.58,
2025-08-15T04:39:24.377Z,17,GR86-037-03,7.4,-1.174,0.24,2.7,2.0,,95.955,96.84,
2025-08-15T04:39:24.420Z,17,GR86-037-03,12.6,-1.174,0.203,2.7,2.0,,94.61,95.71,
2025-08-15T04:39:24.464Z,17,GR86-037-03,18.3,-1.268,0.212,2.67,2.0,6513.0,87.09,88.765,
2025-08-15T04:39:24.506Z,17,GR86-037-03,23.9,-1.318,0.14,2.63,2.0,,84.265,85.9,129.04
2025-08-15T04:39:24.549Z,17,GR86-037-03,29.700000000000003,-1.315,0.143,2.61,2.0,,83.96000000000001,84.8,
2025-08-15T04:39:24.592Z,17,GR86-037-03,32.4,-1.27,0.321,2.61,2.0,,82.465,82.985,
2025-08-15T04:39:24.635Z,17,GR86-037-03,32.9,-1.255,0.312,35.35,2.0,,75.995,77.17,
2025-08-15T04:39:24.678Z,17,GR86-037-03,33.0,-1.122,0.365,40.89,1.0,6526.0,65.115,67.05,
2025-08-15T04:39:24.721Z,17,GR86-037-03,33.0,-1.269,0.394,4.8100000000000005,1.0,,58.125,59.895,120.72
2025-08-15T04:39:24.764Z,17,GR86-037-03,33.0,-1.16,0.5730000000000001,4.39,1.0,,50.71,52.31,
2025-08-15T04:39:24.807Z,17,GR86-037-03,33.0,-0.979,0.601,4.19,1.0,,41.645,42.835,
2025-08-15T04:39:24.850Z,17,GR86-037-03,33.0,-0.989,0.726,4.0,1.0,,38.255,39.495,
2025-08-15T04:39:24.893Z,17,GR86-037-03,33.300000000000004,-0.869,0.914,3.67,1.0,6113.0,39.31,40.62,
2025-08-15T04:39:24.936Z,17,GR86-037-03,33.300000000000004,-0.89,0.674,3.12,1.0,,37.45,38.105,112.36
2025-08-15T04:39:24.979Z,17,GR86-037-03,33.7,-0.8270000000000001,1.034,2.74,1.0,,34.9,35.89,
2025-08-15T04:39:25.023Z,17,GR86-037-03,37.3,-0.611,0.986,2.54,1.0,,25.865,27.115,
2025-08-15T04:39:25.066Z,17,GR86-037-03,42.400000000000006,-0.495,1.04,2.48,1.0,,25.085,25.99,
2025-08-15T04:39:25.109Z,17,GR86-037-03,45.5,-0.675,1.182,2.45,1.0,6051.0,26.4,26.905,
2025-08-15T04:39:25.152Z,17,GR86-037-03,45.900000000000006,-0.615,1.083,2.45,1.0,,25.21,25.925,98.76
2025-08-15T04:39:25.195Z,17,GR86-037-03,45.900000000000006,-0.498,1.119,2.45,1.0,,21.27,22.28,
2025-08-15T04:39:25.238Z,17,GR86-037-03,45.900000000000006,-0.432,1.238,2.45,1.0,,18.74,19.73,
2025-08-15T04:39:25.281Z,17,GR86-037-03,47.5,-0.529,1.077,2.45,1.0,,17.12,17.715,
2025-08-15T04:39:25.367Z,17,GR86-037-03,58.2,-0.442,1.127,2.45,1.0,6644.0,12.59,13.46,93.12
2025-08-15T04:39:25.410Z,17,GR86-037-03,59.0,-0.356,1.144,2.45,1.0,,8.700000000000001,9.6,
2025-08-15T04:39:25.453Z,17,GR86-037-03,55.8,-0.363,1.113,2.45,1.0,,8.975,9.69,
2025-08-15T04:39:25.496Z,17,GR86-037-03,49.2,-0.365,1.044,2.45,1.0,,9.75,10.47,
2025-08-15T04:39:25.539Z,17,GR86-037-03,42.6,-0.387,1.089,2.45,1.0,6412.0,10.47,10.925,
2025-08-15T04:39:25.583Z,17,GR86-037-03,37.3,-0.35,1.025,2.45,1.0,,11.035,11.52,89.01
2025-08-15T04:39:25.625Z,17,GR86-037-03,37.3,-0.34,1.083,2.45,1.0,,10.955,11.645,
2025-08-15T04:39:25.668Z,17,GR86-037-03,40.5,-0.348,1.071,2.45,1.0,,8.975,9.935,
2025-08-15T04:39:25.711Z,17,GR86-037-03,46.400000000000006,-0.333,1.078,2.44,1.0,,6.3,6.99,
2025-08-15T04:39:25.754Z,17,GR86-037-03,51.8,-0.296,1.185,2.45,1.0,5933.0,4.715,5.615,
2025-08-15T04:39:25.797Z,17,GR86-037-03,52.6,-0.263,1.205,2.45,1.0,,3.37,4.18,85.82000000000001
2025-08-15T04:39:25.840Z,17,GR86-037-03,52.6,-0.229,1.215,2.45,1.0,,2.52,2.975,
2025-08-15T04:39:25.884Z,17,GR86-037-03,55.900000000000006,-0.203,1.205,2.45,1.0,,0.0,0.0,
2025-08-15T04:39:25.926Z,17,GR86-037-03,61.3,-0.205,1.146,2.45,1.0,,0.0,0.0,
2025-08-15T04:39:25.970Z,17,GR86-037-03,67.0,-0.198,1.181,2.47,1.0,5728.0,0.0,0.0,
2025-08-15T04:39:26.013Z,17,GR86-037-03,70.3,-0.193,1.264,15.68,1.0,,0.0,0.0,83.28
2025-08-15T04:39:26.056Z,17,GR86-037-03,70.8,-0.182,1.319,20.92,1.0,,0.0,0.0,
2025-08-15T04:39:26.099Z,17,GR86-037-03,68.9,-0.156,1.28,22.16,1.0,,0.0,0.0,
2025-08-15T04:39:26.144Z,17,GR86-037-03,56.2,-0.119,1.236,25.15,1.0,,0.0,0.0,
2025-08-15T04:39:26.187Z,17,GR86-037-03,44.3,-0.096,1.285,27.98,1.0,5603.0,0.0,0.0,
2025-08-15T04:39:26.230Z,17,GR86-037-03,34.2,-0.091,1.298,31.09,1.0,,0.0,0.0,81.22
2025-08-15T04:39:26.273Z,17,GR86-037-03,28.4,-0.04,1.328,31.73,1.0,,0.0,0.0,
2025-08-15T04:39:26.316Z,17,GR86-037-03,25.200000000000003,0.183,1.123,31.79,1.0,,0.0,0.0,
2025-08-15T04:39:26.359Z,17,GR86-037-03,21.6,0.159,1.266,31.89,1.0,,0.0,0.0,
2025-08-15T04:39:26.403Z,17,GR86-037-03,17.6,0.239,1.073,32.38,1.0,5557.0,0.0,0.0,
2025-08-15T04:39:26.447Z,17,GR86-037-03,18.1,0.245,1.118,32.730000000000004,1.0,,0.0,0.0,79.32000000000001
2025-08-15T04:39:26.490Z,17,GR86-037-03,18.6,0.16,1.043,33.22,1.0,,0.0,0.0,
2025-08-15T04:39:26.533Z,17,GR86-037-03,16.2,0.142,1.096,33.62,1.0,,0.0,0.0,
2025-08-15T04:39:26.576Z,17,GR86-037-03,9.8,0.242,1.055,33.61,1.0,,0.0,0.0,
2025-08-15T04:39:26.619Z,17,GR86-037-03,-0.5,0.056,1.009,33.78,1.0,6093.0,0.0,0.0,
2025-08-15T04:39:26.663Z,17,GR86-037-03,-13.3,0.148,1.038,33.95,1.0,,0.0,0.0,78.31
2025-08-15T04:39:26.706Z,17,GR86-037-03,-11.7,0.231,1.013,34.77,1.0,,0.0,0.0,
2025-08-15T04:39:26.749Z,17,GR86-037-03,-3.3000000000000003,0.372,0.876,37.04,1.0,,0.0,0.0,
2025-08-15T04:39:26.793Z,17,GR86-037-03,7.4,0.11,1.069,41.5,1.0,,0.0,0.0,
2025-08-15T04:39:26.835Z,17,GR86-037-03,19.700000000000003,0.216,1.084,49.63,1.0,6188.0,0.0,0.0,
2025-08-15T04:39:26.878Z,17,GR86-037-03,30.200000000000003,0.295,1.119,59.56,1.0,,0.0,0.0,78.2
2025-08-15T04:39:26.923Z,17,GR86-037-03,32.2,0.407,1.098,84.48,1.0,,0.0,0.0,
2025-08-15T04:39:26.965Z,17,GR86-037-03,24.6,0.251,1.092,99.99,1.0,,0.0,0.0,
2025-08-15T04:39:27.008Z,17,GR86-037-03,21.6,0.295,1.002,99.87,1.0,,0.0,0.0,
2025-08-15T04:39:27.051Z,17,GR86-037-03,23.0,0.361,0.945,99.85,1.0,6392.0,0.0,0.0,
2025-08-15T04:39:27.094Z,17,GR86-037-03,27.9,0.137,0.793,99.85,1.0,,0.0,0.0,78.67
2025-08-15T04:39:27.137Z,17,GR86-037-03,32.6,0.218,1.039,99.89,1.0,,0.0,0.0,
2025-08-15T04:39:27.180Z,17,GR86-037-03,33.800000000000004,0.686,1.364,99.89,1.0,,0.0,0.0,
2025-08-15T04:39:27.224Z,17,GR86-037-03,24.0,0.577,1.083,99.87,1.0,,0.0,0.0,
2025-08-15T04:39:27.266Z,17,GR86-037-03,13.9,0.548,1.37,99.88,1.0,6375.0,0.0,0.0,
2025-08-15T04:39:27.309Z,17,GR86-037-03,4.3,0.431,1.191,99.89,1.0,,0.0,0.0,79.05
2025-08-15T04:39:27.352Z,17,GR86-037-03,-10.2,0.526,1.122,99.89,1.0,,0.0,0.0,
2025-08-15T04:39:27.395Z,17,GR86-037-03,-28.8,0.394,1.097,99.88,1.0,,0.0,0.0,
2025-08-15T04:39:27.438Z,17,GR86-037-03,-45.5,0.377,0.98,99.89,1.0,,0.0,0.0,
2025-08-15T04:39:27.481Z,17,GR86-037-03,-52.8,0.304,0.8190000000000001,99.88,1.0,7076.0,0.0,0.0,
2025-08-15T04:39:27.524Z,17,GR86-037-03,-50.400000000000006,0.357,0.803,99.88,1.0,,0.0,0.0,80.91
2025-08-15T04:39:27.567Z,17,GR86-037-03,-49.8,0.363,0.852,99.85,1.0,,0.0,0.0,
2025-08-15T04:39:27.610Z,17,GR86-037-03,-52.400000000000006,0.387,0.8290000000000001,99.89,1.0,,0.0,0.0,
2025-08-15T04:39:27.653Z,17,GR86-037-03,-53.2,0.418,0.87,99.89,1.0,,0.0,0.0,
2025-08-15T04:39:27.696Z,17,GR86-037-03,-52.2,0.409,0.8230000000000001,99.89,1.0,6766.0,0.0,0.0,
2025-08-15T04:39:27.739Z,17,GR86-037-03,-46.6,0.376,0.8250000000000001,99.88,1.0,,0.0,0.0,83.25
2025-08-15T04:39:27.784Z,17,GR86-037-03,-18.8,0.413,0.903,99.88,1.0,,0.0,0.0,
2025-08-15T04:39:27.827Z,17,GR86-037-03,10.4,0.475,0.984,99.88,1.0,,0.0,0.0,
2025-08-15T04:39:27.870Z,17,GR86-037-03,33.5,0.425,1.118,99.91,1.0,,0.0,0.0,
2025-08-15T04:39:27.913Z,17,GR86-037-03,35.1,0.386,1.127,99.9,1.0,6964.0,0.0,0.0,
2025-08-15T04:39:27.956Z,17,GR86-037-03,24.1,0.353,1.136,99.87,1.0,,0.0,0.0,86.58
2025-08-15T04:39:27.999Z,17,GR86-037-03,12.2,0.343,1.078,99.87,1.0,,0.0,0.0,
2025-08-15T04:39:28.044Z,17,GR86-037-03,-1.2000000000000002,0.376,1.018,99.87,1.0,,0.0,0.0,
2025-08-15T04:39:28.087Z,17,GR86-037-03,-5.2,0.384,0.983,99.88,1.0,,0.0,0.0,
2025-08-15T04:39:28.130Z,17,GR86-037-03,-5.6000000000000005,0.404,0.97,99.9,1.0,7101.0,0.0,0.0,
2025-08-15T04:39:28.173Z,17,GR86-037-03,-5.800000000000001,0.386,0.968,99.9,1.0,,0.0,0.0,87.77
2025-08-15T04:39:28.216Z,17,GR86-037-03,-8.9,0.368,0.928,99.9,1.0,,0.0,0.0,
2025-08-15T04:39:28.259Z,17,GR86-037-03,-14.4,0.35,0.955,99.89,1.0,,0.0,0.0,
2025-08-15T04:39:28.303Z,17,GR86-037-03,-19.6,0.357,0.881,99.9,1.0,,0.0,0.0,
2025-08-15T04:39:28.345Z,17,GR86-037-03,-19.6,0.221,0.916,99.89,1.0,7247.0,0.0,0.0,
2025-08-15T04:39:28.388Z,17,GR86-037-03,-19.6,-0.012,0.874,99.89,2.0,,0.0,0.0,90.77
2025-08-15T04:39:28.431Z,17,GR86-037-03,-19.4,0.509,0.741,99.9,2.0,,0.0,0.0,
2025-08-15T04:39:28.474Z,17,GR86-037-03,-14.2,0.48,0.439,99.9,2.0,,0.0,0.0,
2025-08-15T04:39:28.517Z,17,GR86-037-03,-0.5,0.5750000000000001,0.529,99.91,2.0,,0.0,0.0,
2025-08-15T04:39:28.560Z,17,GR86-037-03,19.6,0.477,0.48,99.88,2.0,6901.0,0.0,0.0,
2025-08-15T04:39:28.604Z,17,GR86-037-03,41.400000000000006,0.395,0.401,99.89,2.0,,0.0,0.0,92.94
2025-08-15T04:39:28.647Z,17,GR86-037-03,42.0,0.262,0.473,99.9,2.0,,0.0,0.0,
2025-08-15T04:39:28.690Z,17,GR86-037-03,37.3,0.212,0.511,99.88,2.0,,0.0,0.0,
2025-08-15T04:39:28.733Z,17,GR86-037-03,32.5,0.209,0.523,99.88,2.0,,0.0,0.0,
2025-08-15T04:39:28.776Z,17,GR86-037-03,27.1,0.294,0.53,99.9,2.0,5896.0,0.0,0.0,
2025-08-15T04:39:28.819Z,17,GR86-037-03,20.200000000000003,0.341,0.521,99.9,2.0,,0.0,0.0,93.74
2025-08-15T04:39:28.863Z,17,GR86-037-03,11.0,0.33,0.526,99.9,2.0,,0.0,0.0,
2025-08-15T04:39:28.905Z,17,GR86-037-03,8.4,0.304,0.506,99.89,2.0,,0.0,0.0,
2025-08-15T04:39:28.948Z,17,GR86-037-03,8.4,0.275,0.303,99.88,2.0,,0.0,0.0,
2025-08-15T04:39:28.991Z,17,GR86-037-03,8.4,0.28,0.397,99.9,2.0,5717.0,0.0,0.0,
2025-08-15T04:39:29.034Z,17,GR86-037-03,8.4,0.161,0.134,99.89,2.0,,0.0,0.0,96.61
2025-08-15T04:39:29.077Z,17,GR86-037-03,8.4,0.132,0.233,99.91,2.0,,0.0,0.0,
2025-08-15T04:39:29.120Z,17,GR86-037-03,8.4,0.261,0.254,99.92,2.0,,0.0,0.0,
2025-08-15T04:39:29.164Z,17,GR86-037-03,8.5,0.328,0.191,99.9,2.0,,0.0,0.0,
2025-08-15T04:39:29.207Z,17,GR86-037-03,9.1,0.288,0.204,99.89,2.0,5776.0,0.0,0.0,
2025-08-15T04:39:29.250Z,17,GR86-037-03,9.8,0.284,0.153,99.89,2.0,,0.0,0.0,98.71
2025-08-15T04:39:29.293Z,17,GR86-037-03,9.8,0.236,0.122,99.88,2.0,,0.0,0.0,
2025-08-15T04:39:29.336Z,17,GR86-037-03,9.8,0.164,0.125,99.89,2.0,,0.0,0.0,
2025-08-15T04:39:29.379Z,17,GR86-037-03,9.8,0.217,0.137,99.89,2.0,,0.0,0.0,
2025-08-15T04:39:29.423Z,17,GR86-037-03,9.8,0.36,0.134,99.9,2.0,5908.0,0.0,0.0,
2025-08-15T04:39:29.466Z,17,GR86-037-03,9.8,0.334,0.151,99.89,2.0,,0.0,0.0,100.55
2025-08-15T04:39:29.509Z,17,GR86-037-03,8.8,0.243,0.08,99.9,2.0,,0.0,0.0,
2025-08-15T04:39:29.553Z,17,GR86-037-03,6.5,0.193,0.075,99.89,2.0,,0.0,0.0,
2025-08-15T04:39:29.595Z,17,GR86-037-03,4.3,0.21,0.039,99.89,2.0,,0.0,0.0,
2025-08-15T04:39:29.638Z,17,GR86-037-03,3.1,0.204,0.018,99.88,2.0,6013.0,0.0,0.0,
2025-08-15T04:39:29.681Z,17,GR86-037-03,2.6,0.18,0.004,99.9,2.0,,0.0,0.0,102.52
2025-08-15T04:39:29.724Z,17,GR86-037-03,2.0,0.365,-0.036,99.89,2.0,,0.0,0.0,
2025-08-15T04:39:29.767Z,17,GR86-037-03,1.6,0.34,-0.016,99.89,2.0,,0.0,0.0,
2025-08-15T04:39:29.810Z,17,GR86-037-03,1.5,0.322,-0.019,99.9,2.0,,0.0,0.0,
2025-08-15T04:39:29.854Z,17,GR86-037-03,1.6,0.282,-0.011,99.89,2.0,6086.0,0.0,0.0,
2025-08-15T04:39:29.897Z,17,GR86-037-03,1.6,0.265,-0.062,99.89,2.0,,0.0,0.0,104.47
2025-08-15T04:39:29.940Z,17,GR86-037-03,1.6,0.27,-0.051,99.89,2.0,,0.0,0.0,
2025-08-15T04:39:29.984Z,17,GR86-037-03,2.0,0.297,-0.074,99.89,2.0,,0.0,0.0,
2025-08-15T04:39:30.026Z,17,GR86-037-03,2.7,0.331,-0.071,99.88,2.0,,0.0,0.0,
2025-08-15T04:39:30.069Z,17,GR86-037-03,3.3000000000000003,0.32,-0.06,99.89,2.0,6222.0,0.0,0.0,
2025-08-15T04:39:30.113Z,17,GR86-037-03,3.7,0.314,-0.073,99.9,2.0,,0.0,0.0,106.23
2025-08-15T04:39:30.156Z,17,GR86-037-03,3.8,0.298,-0.027,99.9,2.0,,0.0,0.0,
2025-08-15T04:39:30.199Z,17,GR86-037-03,3.8,0.313,-0.006,99.88,2.0,,0.0,0.0,
2025-08-15T04:39:30.244Z,17,GR86-037-03,3.8,0.291,0.056,99.89,2.0,,0.0,0.0,
2025-08-15T04:39:30.287Z,17,GR86-037-03,3.8,0.278,-0.022,99.89,2.0,6309.0,0.0,0.0,
2025-08-15T04:39:30.330Z,17,GR86-037-03,3.8,0.266,0.008,99.89,2.0,,0.0,0.0,108.05
2025-08-15T04:39:30.373Z,17,GR86-037-03,3.8,0.253,-0.004,99.9,2.0,,0.0,0.0,
2025-08-15T04:39:30.416Z,17,GR86-037-03,3.8,0.261,-0.01,99.89,2.0,,0.0,0.0,
2025-08-15T04:39:30.459Z,17,GR86-037-03,3.8,0.269,0.026,99.9,2.0,,0.0,0.0,
2025-08-15T04:39:30.502Z,17,GR86-037-03,3.8,0.285,0.035,99.9,2.0,6388.0,0.0,0.0,
2025-08-15T04:39:30.545Z,17,GR86-037-03,3.8,0.277,0.09,99.9,2.0,,0.0,0.0,111.54
2025-08-15T04:39:30.588Z,17,GR86-037-03,3.8,0.306,0.082,99.89,2.0,,0.0,0.0,
2025-08-15T04:39:30.631Z,17,GR86-037-03,3.8,0.302,0.107,99.89,2.0,,0.0,0.0,
2025-08-15T04:39:30.674Z,17,GR86-037-03,3.8,0.285,0.08,99.89,2.0,,0.0,0.0,
2025-08-15T04:39:30.717Z,17,GR86-037-03,3.8,0.288,0.064,99.89,2.0,6470.0,0.0,0.0,
2025-08-15T04:39:30.760Z,17,GR86-037-03,2.5,0.273,0.038,99.92,2.0,,0.0,0.0,113.46
2025-08-15T04:39:30.804Z,17,GR86-037-03,0.9,0.281,0.025,99.89,2.0,,0.0,0.0,
2025-08-15T04:39:30.847Z,17,GR86-037-03,0.8,0.282,0.029,99.89,2.0,,0.0,0.0,
2025-08-15T04:39:30.890Z,17,GR86-037-03,0.8,0.288,0.042,99.88,2.0,,0.0,0.0,
2025-08-15T04:39:30.934Z,17,GR86-037-03,0.8,0.284,0.03,99.9,2.0,6601.0,0.0,0.0,
2025-08-15T04:39:30.977Z,17,GR86-037-03,0.8,0.281,0.021,99.88,2.0,,0.0,0.0,115.03
2025-08-15T04:39:31.020Z,17,GR86-037-03,0.8,0.275,0.024,99.89,2.0,,0.0,0.0,
2025-08-15T04:39:31.064Z,17,GR86-037-03,0.8,0.275,0.014,99.9,2.0,,0.0,0.0,
2025-08-15T04:39:31.107Z,17,GR86-037-03,0.8,0.278,0.004,99.89,2.0,,0.0,0.0,
2025-08-15T04:39:31.150Z,17,GR86-037-03,0.8,0.29,0.021,99.89,2.0,6746.0,0.0,0.0,
2025-08-15T04:39:31.193Z,17,GR86-037-03,0.8,0.281,0.028,99.89,2.0,,0.0,0.0,116.53
2025-08-15T04:39:31.236Z,17,GR86-037-03,0.8,0.269,0.023,99.9,2.0,,0.0,0.0,
2025-08-15T04:39:31.279Z,17,GR86-037-03,0.8,0.282,0.015,99.9,2.0,,0.0,0.0,
2025-08-15T04:39:31.323Z,17,GR86-037-03,-0.1,0.284,0.035,99.91,2.0,,0.0,0.0,
2025-08-15T04:39:31.365Z,17,GR86-037-03,-1.3,0.277,0.033,99.89,2.0,6848.0,0.0,0.0,
2025-08-15T04:39:31.408Z,17,GR86-037-03,-1.8,0.277,0.024,99.89,2.0,,0.0,0.0,118.11
2025-08-15T04:39:31.451Z,17,GR86-037-03,-1.8,0.275,0.002,99.89,2.0,,0.0,0.0,
2025-08-15T04:39:31.494Z,17,GR86-037-03,-1.8,0.274,-0.006,99.88,2.0,,0.0,0.0,
2025-08-15T04:39:31.537Z,17,GR86-037-03,-1.9,0.26,-0.036,99.89,2.0,,0.0,0.0,
2025-08-15T04:39:31.581Z,17,GR86-037-03,-1.8,0.274,-0.023,99.9,2.0,6929.0,0.0,0.0,
2025-08-15T04:39:31.624Z,17,GR86-037-03,-1.8,0.275,-0.024,99.91,2.0,,0.0,0.0,119.65
2025-08-15T04:39:31.667Z,17,GR86-037-03,-1.8,0.275,-0.018,99.89,2.0,,0.0,0.0,
2025-08-15T04:39:31.710Z,17,GR86-037-03,-1.8,0.249,-0.029,99.91,2.0,,0.0,0.0,
2025-08-15T04:39:31.753Z,17,GR86-037-03,-1.8,0.26,-0.028,99.91,2.0,,0.0,0.0,
2025-08-15T04:39:31.796Z,17,GR86-037-03,-1.7000000000000002,0.273,-0.02,99.89,2.0,7009.0,0.0,0.0,
2025-08-15T04:39:31.839Z,17,GR86-037-03,-1.3,0.258,-0.017,99.89,2.0,,0.0,0.0,121.09
2025-08-15T04:39:31.883Z,17,GR86-037-03,-1.2000000000000002,0.256,-0.031,99.91,2.0,,0.0,0.0,
2025-08-15T04:39:31.925Z,17,GR86-037-03,-1.2000000000000002,0.256,-0.036,99.92,2.0,,0.0,0.0,
2025-08-15T04:39:31.968Z,17,GR86-037-03,-1.2000000000000002,0.26,-0.021,99.9,2.0,,0.0,0.0,
2025-08-15T04:39:32.011Z,17,GR86-037-03,-1.2000000000000002,0.264,-0.015,99.9,2.0,7070.0,0.0,0.0,
2025-08-15T04:39:32.054Z,17,GR86-037-03,-1.2000000000000002,0.254,-0.039,99.89,2.0,,0.0,0.0,122.37
2025-08-15T04:39:32.097Z,17,GR86-037-03,-1.2000000000000002,0.261,-0.038,99.88,2.0,,0.0,0.0,
2025-08-15T04:39:32.140Z,17,GR86-037-03,-1.2000000000000002,0.258,-0.037,99.92,2.0,,0.0,0.0,
2025-08-15T04:39:32.184Z,17,GR86-037-03,-1.2000000000000002,0.253,-0.02,99.89,2.0,,0.0,0.0,
2025-08-15T04:39:32.226Z,17,GR86-037-03,-1.2000000000000002,0.246,-0.032,99.92,2.0,7144.0,0.0,0.0,
2025-08-15T04:39:32.270Z,17,GR86-037-03,-1.2000000000000002,0.257,-0.029,99.88,2.0,,0.0,0.0,123.55
2025-08-15T04:39:32.313Z,17,GR86-037-03,-1.2000000000000002,0.255,-0.042,99.88,2.0,,0.0,0.0,
2025-08-15T04:39:32.356Z,17,GR86-037-03,-1.2000000000000002,-0.001,-0.049,99.91,3.0,,0.0,0.0,
2025-08-15T04:39:32.399Z,17,GR86-037-03,-1.2000000000000002,0.333,-0.01,99.88,3.0,,0.0,0.0,
2025-08-15T04:39:32.444Z,17,GR86-037-03,-1.2000000000000002,0.404,-0.154,99.91,3.0,7208.0,0.0,0.0,
2025-08-15T04:39:32.487Z,17,GR86-037-03,-1.2000000000000002,0.379,0.046,99.9,3.0,,0.0,0.0,124.7
2025-08-15T04:39:32.530Z,17,GR86-037-03,-1.2000000000000002,0.321,-0.069,99.89,3.0,,0.0,0.0,
2025-08-15T04:39:32.573Z,17,GR86-037-03,-1.2000000000000002,0.156,-0.099,99.88,3.0,,0.0,0.0,
2025-08-15T04:39:32.616Z,17,GR86-037-03,-1.2000000000000002,0.135,-0.035,99.89,3.0,,0.0,0.0,
2025-08-15T04:39:32.659Z,17,GR86-037-03,-1.2000000000000002,0.227,-0.068,99.9,3.0,6958.0,0.0,0.0,
2025-08-15T04:39:32.703Z,17,GR86-037-03,-1.2000000000000002,0.284,-0.043,99.88,3.0,,0.0,0.0,125.85
2025-08-15T04:39:32.747Z,17,GR86-037-03,-1.2000000000000002,0.206,-0.032,99.88,3.0,,0.0,0.0,
2025-08-15T04:39:32.790Z,17,GR86-037-03,-1.2000000000000002,0.174,-0.05,99.88,3.0,,0.0,0.0,
2025-08-15T04:39:32.833Z,17,GR86-037-03,-0.4,0.227,-0.031,99.88,3.0,,0.0,0.0,
2025-08-15T04:39:32.876Z,17,GR86-037-03,0.6000000000000001,0.24,-0.018,99.91,3.0,5856.0,0.0,0.0,
2025-08-15T04:39:32.919Z,17,GR86-037-03,1.3,0.23,-0.029,99.9,3.0,,0.0,0.0,126.89
2025-08-15T04:39:32.963Z,17,GR86-037-03,1.3,0.207,0.005,99.91,3.0,,0.0,0.0,
2025-08-15T04:39:33.006Z,17,GR86-037-03,1.3,0.206,0.011,99.92,3.0,,0.0,0.0,
2025-08-15T04:39:33.049Z,17,GR86-037-03,1.3,0.239,0.025,99.9,3.0,,0.0,0.0,
2025-08-15T04:39:33.093Z,17,GR86-037-03,1.3,0.217,0.026,99.91,3.0,5962.0,0.0,0.0,
2025-08-15T04:39:33.135Z,17,GR86-037-03,1.3,0.207,0.025,99.9,3.0,,0.0,0.0,128.13
2025-08-15T04:39:33.178Z,17,GR86-037-03,1.3,0.225,0.031,99.89,3.0,,0.0,0.0,
2025-08-15T04:39:33.223Z,17,GR86-037-03,1.3,0.231,0.031,99.88,3.0,,0.0,0.0,
2025-08-15T04:39:33.265Z,17,GR86-037-03,1.3,0.235,0.026,99.89,3.0,,0.0,0.0,
2025-08-15T04:39:33.308Z,17,GR86-037-03,1.3,0.216,0.031,99.88,3.0,6021.0,0.0,0.0,
2025-08-15T04:39:33.351Z,17,GR86-037-03,1.3,0.202,0.016,99.91,3.0,,0.0,0.0,129.85
2025-08-15T04:39:33.394Z,17,GR86-037-03,1.3,0.231,0.048,99.89,3.0,,0.0,0.0,
2025-08-15T04:39:33.437Z,17,GR86-037-03,1.3,0.227,0.034,99.9,3.0,,0.0,0.0,
2025-08-15T04:39:33.481Z,17,GR86-037-03,1.3,0.218,0.031,99.89,3.0,,0.0,0.0,
2025-08-15T04:39:33.524Z,17,GR86-037-03,1.3,0.202,0.041,99.9,3.0,6081.0,0.0,0.0,
2025-08-15T04:39:33.567Z,17,GR86-037-03,1.3,0.212,0.039,99.9,3.0,,0.0,0.0,130.72
2025-08-15T04:39:33.610Z,17,GR86-037-03,1.3,0.238,0.046,99.9,3.0,,0.0,0.0,
2025-08-15T04:39:33.653Z,17,GR86-037-03,1.3,0.235,0.047,99.91,3.0,,0.0,0.0,
2025-08-15T04:39:33.696Z,17,GR86-037-03,1.3,0.195,0.045,95.87,3.0,,0.0,0.0,
2025-08-15T04:39:33.739Z,17,GR86-037-03,1.3,0.217,0.052,32.42,3.0,6121.0,0.0,0.0,
2025-08-15T04:39:33.784Z,17,GR86-037-03,2.2,0.21,0.044,4.36,3.0,,0.0,0.0,131.61
2025-08-15T04:39:33.827Z,17,GR86-037-03,3.5,0.09,0.042,4.28,3.0,,0.0,0.0,
2025-08-15T04:39:33.870Z,17,GR86-037-03,3.6,-0.107,0.088,4.1,3.0,,28.645,29.33,
2025-08-15T04:39:33.913Z,17,GR86-037-03,3.6,-0.435,0.07,3.83,3.0,,43.14,43.295,
2025-08-15T04:39:33.956Z,17,GR86-037-03,3.6,-0.771,0.063,3.49,3.0,6221.0,52.89,52.645,
2025-08-15T04:39:33.999Z,17,GR86-037-03,3.6,-0.778,0.11,3.11,3.0,,56.72,56.69,132.52
2025-08-15T04:39:34.044Z,17,GR86-037-03,3.6,-0.839,0.07,2.83,3.0,,57.27,57.5,
2025-08-15T04:39:34.087Z,17,GR86-037-03,3.6,-0.907,0.121,2.75,3.0,,52.05,53.715,
2025-08-15T04:39:34.130Z,17,GR86-037-03,2.2,-0.851,0.103,28.96,3.0,,45.49,47.52,
2025-08-15T04:39:34.173Z,17,GR86-037-03,1.5,-0.844,0.122,71.63,2.0,5932.0,42.33,44.195,
2025-08-15T04:39:34.216Z,17,GR86-037-03,1.8,-0.887,0.135,40.64,2.0,,41.705,43.08,133.14
2025-08-15T04:39:34.259Z,17,GR86-037-03,3.0,-0.991,0.12,4.49,2.0,,43.705,45.46,
2025-08-15T04:39:34.303Z,17,GR86-037-03,3.6,-1.006,0.223,3.81,2.0,,44.88,46.3,
2025-08-15T04:39:34.345Z,17,GR86-037-03,5.0,-1.167,0.127,3.65,2.0,,42.425,43.615,
2025-08-15T04:39:34.388Z,17,GR86-037-03,10.8,-0.934,0.379,3.41,2.0,5305.0,43.615,44.94,
2025-08-15T04:39:34.431Z,17,GR86-037-03,21.700000000000003,-0.934,0.367,3.11,2.0,,48.235,49.52,125.57
2025-08-15T04:39:34.474Z,17,GR86-037-03,30.700000000000003,-1.049,0.523,2.85,2.0,,54.585,55.915,
2025-08-15T04:39:34.517Z,17,GR86-037-03,32.300000000000004,-0.848,0.722,2.73,2.0,,58.46,59.65,
2025-08-15T04:39:34.560Z,17,GR86-037-03,32.7,-0.9,0.501,2.64,2.0,,61.24,62.595,
2025-08-15T04:39:34.604Z,17,GR86-037-03,34.0,-0.79,0.834,2.57,2.0,5496.0,51.06,51.595,
2025-08-15T04:39:34.647Z,17,GR86-037-03,34.0,-0.681,0.6990000000000001,2.54,2.0,,39.43,39.495,120.12
2025-08-15T04:39:34.690Z,17,GR86-037-03,34.300000000000004,-0.643,0.654,2.52,2.0,,33.77,33.94,
2025-08-15T04:39:34.733Z,17,GR86-037-03,34.300000000000004,-0.594,0.85,2.51,2.0,,33.77,34.245,
2025-08-15T04:39:34.776Z,17,GR86-037-03,34.300000000000004,-0.638,0.8200000000000001,2.51,2.0,,34.18,34.99,
2025-08-15T04:39:34.819Z,17,GR86-037-03,34.6,-0.645,0.779,2.51,2.0,6115.0,36.03,37.11,
2025-08-15T04:39:34.863Z,17,GR86-037-03,39.3,-0.633,0.95,2.51,2.0,,37.175,38.32,114.16
2025-08-15T04:39:34.905Z,17,GR86-037-03,43.1,-0.687,0.868,2.51,2.0,,35.465,35.92,
2025-08-15T04:39:34.948Z,17,GR86-037-03,43.400000000000006,-0.661,0.881,2.51,2.0,,35.645,36.73,
2025-08-15T04:39:34.991Z,17,GR86-037-03,38.8,-0.687,0.972,2.51,2.0,,32.505,33.77,
2025-08-15T04:39:35.034Z,17,GR86-037-03,31.4,-0.584,0.955,2.51,2.0,5863.0,24.675,25.835,
2025-08-15T04:39:35.077Z,17,GR86-037-03,24.200000000000003,-0.552,0.951,2.51,2.0,,18.555,19.045,109.03
2025-08-15T04:39:35.120Z,17,GR86-037-03,20.200000000000003,-0.464,0.916,2.51,2.0,,16.555,17.150000000000002,
2025-08-15T04:39:35.164Z,17,GR86-037-03,19.700000000000003,-0.449,0.905,2.51,2.0,,17.655,18.495,
2025-08-15T04:39:35.206Z,17,GR86-037-03,19.700000000000003,-0.479,0.961,2.5,2.0,,18.235,18.83,
2025-08-15T04:39:35.249Z,17,GR86-037-03,18.4,-0.488,0.961,2.51,2.0,5532.0,18.325,18.83,
2025-08-15T04:39:35.292Z,17,GR86-037-03,15.2,-0.434,0.96,2.51,2.0,,18.71,19.12,104.42
2025-08-15T04:39:35.335Z,17,GR86-037-03,13.6,-0.437,0.894,2.51,2.0,,18.71,19.275,
2025-08-15T04:39:35.378Z,17,GR86-037-03,16.6,-0.431,0.968,2.51,2.0,,12.36,13.08,
2025-08-15T04:39:35.421Z,17,GR86-037-03,26.6,-0.383,0.988,2.51,2.0,,3.585,4.15,
2025-08-15T04:39:35.464Z,17,GR86-037-03,46.5,-0.206,1.085,2.51,2.0,5332.0,0.0,0.0,
2025-08-15T04:39:35.507Z,17,GR86-037-03,55.2,-0.187,1.174,2.51,2.0,,0.0,0.0,99.32
2025-08-15T04:39:35.550Z,17,GR86-037-03,59.3,-0.179,1.169,2.76,2.0,,0.0,0.0,
2025-08-15T04:39:35.593Z,17,GR86-037-03,62.7,-0.173,1.196,9.64,2.0,,0.0,0.0,
2025-08-15T04:39:35.636Z,17,GR86-037-03,66.9,-0.146,1.171,17.48,2.0,,0.0,0.0,
2025-08-15T04:39:35.679Z,17,GR86-037-03,70.7,-0.172,1.201,19.72,2.0,5109.0,0.0,0.0,
2025-08-15T04:39:35.723Z,17,GR86-037-03,73.10000000000001,-0.108,1.197,21.87,2.0,,0.0,0.0,95.62
2025-08-15T04:39:35.765Z,17,GR86-037-03,73.10000000000001,-0.109,1.229,25.33,2.0,,0.0,0.0,
2025-08-15T04:39:35.808Z,17,GR86-037-03,73.5,-0.087,1.167,26.74,2.0,,0.0,0.0,
2025-08-15T04:39:35.851Z,17,GR86-037-03,75.7,-0.097,1.257,26.96,2.0,,0.0,0.0,
2025-08-15T04:39:35.894Z,17,GR86-037-03,78.9,0.132,1.151,27.02,2.0,5065.0,0.0,0.0,
2025-08-15T04:39:35.937Z,17,GR86-037-03,80.80000000000001,0.142,1.162,27.05,2.0,,0.0,0.0,93.16
2025-08-15T04:39:35.981Z,17,GR86-037-03,80.80000000000001,0.178,1.181,27.24,2.0,,0.0,0.0,
2025-08-15T04:39:36.024Z,17,GR86-037-03,70.4,0.12,1.136,35.49,2.0,,0.0,0.0,
2025-08-15T04:39:36.067Z,17,GR86-037-03,58.400000000000006,0.115,1.192,52.68,2.0,,0.0,0.0,
2025-08-15T04:39:36.110Z,17,GR86-037-03,45.0,0.119,1.157,87.72,2.0,5085.0,0.0,0.0,
2025-08-15T04:39:36.154Z,17,GR86-037-03,33.4,0.151,1.131,99.53,2.0,,0.0,0.0,90.11
2025-08-15T04:39:36.197Z,17,GR86-037-03,28.700000000000003,0.227,1.097,99.85,2.0,,0.0,0.0,
2025-08-15T04:39:36.240Z,17,GR86-037-03,28.9,0.273,1.105,99.85,2.0,,0.0,0.0,
2025-08-15T04:39:36.284Z,17,GR86-037-03,32.7,0.312,1.096,99.88,2.0,,0.0,0.0,
2025-08-15T04:39:36.326Z,17,GR86-037-03,36.1,0.272,1.07,99.89,2.0,5333.0,0.0,0.0,
2025-08-15T04:39:36.369Z,17,GR86-037-03,39.8,0.234,1.291,99.88,2.0,,0.0,0.0,90.04
2025-08-15T04:39:36.413Z,17,GR86-037-03,45.0,0.327,1.226,99.86,2.0,,0.0,0.0,
2025-08-15T04:39:36.455Z,17,GR86-037-03,51.1,0.303,1.091,99.88,2.0,,0.0,0.0,
2025-08-15T04:39:36.498Z,17,GR86-037-03,55.8,0.031,1.089,99.87,2.0,,0.0,0.0,
2025-08-15T04:39:36.544Z,17,GR86-037-03,56.2,0.092,1.044,99.87,2.0,5438.0,0.0,0.0,
2025-08-15T04:39:36.587Z,17,GR86-037-03,52.8,0.055,1.153,99.88,2.0,,0.0,0.0,91.28
2025-08-15T04:39:36.630Z,17,GR86-037-03,46.3,0.335,1.135,99.88,2.0,,0.0,0.0,
2025-08-15T04:39:36.673Z,17,GR86-037-03,36.9,0.421,0.943,99.89,2.0,,0.0,0.0,
2025-08-15T04:39:36.716Z,17,GR86-037-03,27.200000000000003,0.11,0.996,99.86,2.0,,0.0,0.0,
2025-08-15T04:39:36.759Z,17,GR86-037-03,21.0,0.044,1.008,99.86,2.0,5586.0,0.0,0.0,
2025-08-15T04:39:36.802Z,17,GR86-037-03,19.0,0.136,0.945,99.89,2.0,,0.0,0.0,92.74
2025-08-15T04:39:36.845Z,17,GR86-037-03,18.8,0.003,0.995,99.89,2.0,,0.0,0.0,
2025-08-15T04:39:36.888Z,17,GR86-037-03,18.9,0.196,0.971,99.88,2.0,,0.0,0.0,
2025-08-15T04:39:36.931Z,17,GR86-037-03,22.0,0.418,0.917,99.87,2.0,,0.0,0.0,
2025-08-15T04:39:36.974Z,17,GR86-037-03,29.700000000000003,0.386,1.212,99.89,2.0,5748.0,0.0,0.0,
2025-08-15T04:39:37.017Z,17,GR86-037-03,39.8,0.3,1.176,99.89,2.0,,0.0,0.0,93.93
2025-08-15T04:39:37.060Z,17,GR86-037-03,47.3,0.345,1.17,99.89,2.0,,0.0,0.0,
2025-08-15T04:39:37.103Z,17,GR86-037-03,48.5,0.302,1.136,99.9,2.0,,0.0,0.0,
2025-08-15T04:39:37.146Z,17,GR86-037-03,48.5,0.303,1.029,99.88,2.0,,0.0,0.0,
2025-08-15T04:39:37.189Z,17,GR86-037-03,48.5,0.262,1.03,99.88,2.0,5765.0,0.0,0.0,
2025-08-15T04:39:37.233Z,17,GR86-037-03,48.5,0.256,0.963,99.89,2.0,,0.0,0.0,95.7
2025-08-15T04:39:37.277Z,17,GR86-037-03,48.5,0.255,0.967,99.89,2.0,,0.0,0.0,
2025-08-15T04:39:37.320Z,17,GR86-037-03,49.6,0.255,0.954,99.89,2.0,,0.0,0.0,
2025-08-15T04:39:37.364Z,17,GR86-037-03,51.400000000000006,0.293,0.92,99.88,2.0,,0.0,0.0,
2025-08-15T04:39:37.406Z,17,GR86-037-03,51.400000000000006,0.274,0.965,99.88,2.0,5722.0,0.0,0.0,
2025-08-15T04:39:37.449Z,17,GR86-037-03,51.400000000000006,0.253,0.97,99.88,2.0,,0.0,0.0,96.84
2025-08-15T04:39:37.493Z,17,GR86-037-03,51.400000000000006,0.222,0.999,99.89,2.0,,0.0,0.0,
2025-08-15T04:39:37.535Z,17,GR86-037-03,51.400000000000006,0.235,1.001,99.89,2.0,,0.0,0.0,
2025-08-15T04:39:37.578Z,17,GR86-037-03,48.0,0.231,1.018,99.89,2.0,,0.0,0.0,
2025-08-15T04:39:37.621Z,17,GR86-037-03,40.2,0.244,1.004,99.89,2.0,5842.0,0.0,0.0,
