timestamp,lap,vehicle_id,steering_angle,accx_can,accy_can,ath,gear,nmot,pbrake_f,pbrake_r,speed
2025-08-15T01:12:11.917Z,9,GR86-062-012,2.1,0.143,-0.03,99.98,4.0,7089.0,0.0,0.0,
2025-08-15T01:12:11.960Z,9,GR86-062-012,2.0,0.127,-0.044,99.94,4.0,,0.0,0.0,180.6
2025-08-15T01:12:12.004Z,9,GR86-062-012,2.0,0.137,-0.05,99.94,4.0,,0.0,0.0,
2025-08-15T01:12:12.046Z,9,GR86-062-012,1.9,0.127,-0.053,99.91,4.0,,0.0,0.0,
2025-08-15T01:12:12.089Z,9,GR86-062-012,1.9,0.124,-0.084,99.96,4.0,,0.0,0.0,
2025-08-15T01:12:12.134Z,9,GR86-062-012,1.9,0.142,-0.107,99.94,4.0,7119.0,0.0,0.0,
2025-08-15T01:12:12.177Z,9,GR86-062-012,2.0,0.142,-0.088,99.94,4.0,,0.0,0.0,181.28
2025-08-15T01:12:12.220Z,9,GR86-062-012,2.0,0.145,-0.07,99.96,4.0,,0.0,0.0,
2025-08-15T01:12:12.264Z,9,GR86-062-012,2.0,0.133,-0.064,99.96,4.0,,0.0,0.0,
2025-08-15T01:12:12.306Z,9,GR86-062-012,2.0,0.13,-0.071,99.94,4.0,,0.0,0.0,
2025-08-15T01:12:12.349Z,9,GR86-062-012,2.0,0.132,-0.063,99.95,4.0,7150.0,0.0,0.0,
2025-08-15T01:12:12.393Z,9,GR86-062-012,2.1,0.122,-0.051,99.93,4.0,,0.0,0.0,181.99
2025-08-15T01:12:12.435Z,9,GR86-062-012,2.4000000000000004,0.137,-0.061,99.94,4.0,,0.0,0.0,
2025-08-15T01:12:12.478Z,9,GR86-062-012,2.7,0.135,-0.049,99.93,4.0,,0.0,0.0,
2025-08-15T01:12:12.521Z,9,GR86-062-012,2.8000000000000003,0.12,-0.039,99.95,4.0,,0.0,0.0,
2025-08-15T01:12:12.566Z,9,GR86-062-012,2.9000000000000004,0.145,-0.039,99.96,4.0,7183.0,0.0,0.0,
2025-08-15T01:12:12.608Z,9,GR86-062-012,2.9000000000000004,0.135,-0.012,99.93,4.0,,0.0,0.0,182.85
2025-08-15T01:12:12.651Z,9,GR86-062-012,2.9000000000000004,0.128,-0.014,99.92,4.0,,0.0,0.0,
2025-08-15T01:12:12.694Z,9,GR86-062-012,2.9000000000000004,0.131,0.003,99.94,4.0,,0.0,0.0,
2025-08-15T01:12:12.737Z,9,GR86-062-012,2.9000000000000004,0.133,0.005,99.94,4.0,,0.0,0.0,
2025-08-15T01:12:12.780Z,9,GR86-062-012,2.9000000000000004,0.135,0.001,99.95,4.0,7215.0,0.0,0.0,
2025-08-15T01:12:12.824Z,9,GR86-062-012,2.8000000000000003,0.131,-0.008,99.95,4.0,,0.0,0.0,183.51
2025-08-15T01:12:12.867Z,9,GR86-062-012,2.8000000000000003,0.135,-0.022,99.93,4.0,,0.0,0.0,
2025-08-15T01:12:12.910Z,9,GR86-062-012,3.0,0.123,0.007,99.95,4.0,,0.0,0.0,
2025-08-15T01:12:12.954Z,9,GR86-062-012,3.3000000000000003,0.125,-0.005,99.93,4.0,,0.0,0.0,
2025-08-15T01:12:12.997Z,9,GR86-062-012,3.4000000000000004,0.13,0.0,99.96,4.0,7241.0,0.0,0.0,
2025-08-15T01:12:13.040Z,9,GR86-062-012,3.5,0.109,0.002,99.94,4.0,,0.0,0.0,185.07
2025-08-15T01:12:13.085Z,9,GR86-062-012,3.5,0.1,-0.004,99.93,4.0,,0.0,0.0,
2025-08-15T01:12:13.128Z,9,GR86-062-012,3.5,0.086,0.017,99.95,4.0,,0.0,0.0,
2025-08-15T01:12:13.171Z,9,GR86-062-012,3.5,0.075,0.022,99.94,4.0,,0.0,0.0,
2025-08-15T01:12:13.215Z,9,GR86-062-012,3.7,0.013,0.042,99.96,4.0,7266.0,0.0,0.0,
2025-08-15T01:12:13.258Z,9,GR86-062-012,4.0,-0.101,0.034,99.95,5.0,,0.0,0.0,185.88
2025-08-15T01:12:13.301Z,9,GR86-062-012,4.3,0.425,0.042,99.95,5.0,,0.0,0.0,
2025-08-15T01:12:13.345Z,9,GR86-062-012,4.2,0.252,-0.018,99.96,5.0,,0.0,0.0,
2025-08-15T01:12:13.388Z,9,GR86-062-012,2.4000000000000004,0.187,0.013,99.96,5.0,,0.0,0.0,
2025-08-15T01:12:13.431Z,9,GR86-062-012,1.8,0.05,0.076,99.95,5.0,7284.0,0.0,0.0,
2025-08-15T01:12:13.476Z,9,GR86-062-012,1.8,0.155,-0.028,99.95,5.0,,0.0,0.0,186.53
2025-08-15T01:12:13.519Z,9,GR86-062-012,1.8,0.174,0.047,99.94,5.0,,0.0,0.0,
2025-08-15T01:12:13.563Z,9,GR86-062-012,1.8,0.125,-0.041,99.96,5.0,,0.0,0.0,
2025-08-15T01:12:13.606Z,9,GR86-062-012,1.8,0.096,-0.003,99.94,5.0,,0.0,0.0,
2025-08-15T01:12:13.649Z,9,GR86-062-012,1.8,0.134,-0.037,99.96,5.0,6321.0,0.0,0.0,
2025-08-15T01:12:13.693Z,9,GR86-062-012,2.1,0.113,-0.074,99.96,5.0,,0.0,0.0,186.99
2025-08-15T01:12:13.735Z,9,GR86-062-012,2.1,0.094,-0.074,99.94,5.0,,0.0,0.0,
2025-08-15T01:12:13.778Z,9,GR86-062-012,2.1,0.123,-0.065,99.95,5.0,,0.0,0.0,
2025-08-15T01:12:13.821Z,9,GR86-062-012,2.1,0.11,-0.049,99.95,5.0,,0.0,0.0,
2025-08-15T01:12:13.865Z,9,GR86-062-012,2.1,0.117,-0.06,99.96,5.0,6399.0,0.0,0.0,
2025-08-15T01:12:13.908Z,9,GR86-062-012,2.1,0.128,-0.059,99.96,5.0,,0.0,0.0,187.67
2025-08-15T01:12:13.951Z,9,GR86-062-012,2.1,0.136,-0.079,99.96,5.0,,0.0,0.0,
2025-08-15T01:12:14.037Z,9,GR86-062-012,2.1,0.095,-0.045,99.96,5.0,,0.0,0.0,
2025-08-15T01:12:14.080Z,9,GR86-062-012,2.1,0.101,-0.049,99.95,5.0,6402.0,0.0,0.0,
2025-08-15T01:12:14.124Z,9,GR86-062-012,2.1,0.093,-0.055,99.96,5.0,,0.0,0.0,188.41
2025-08-15T01:12:14.166Z,9,GR86-062-012,2.1,0.1,-0.06,99.95,5.0,,0.0,0.0,
2025-08-15T01:12:14.209Z,9,GR86-062-012,2.1,0.102,-0.045,99.96,5.0,,0.0,0.0,
2025-08-15T01:12:14.253Z,9,GR86-062-012,2.1,0.108,-0.014,99.96,5.0,,0.0,0.0,
2025-08-15T01:12:14.295Z,9,GR86-062-012,2.1,0.099,-0.016,99.94,5.0,6436.0,0.0,0.0,
2025-08-15T01:12:14.338Z,9,GR86-062-012,2.1,0.107,-0.046,99.95,5.0,,0.0,0.0,188.99
2025-08-15T01:12:14.381Z,9,GR86-062-012,2.1,0.094,-0.042,99.95,5.0,,0.0,0.0,
2025-08-15T01:12:14.424Z,9,GR86-062-012,2.1,0.075,-0.032,99.95,5.0,,0.0,0.0,
2025-08-15T01:12:14.467Z,9,GR86-062-012,2.1,0.08,-0.03,99.96,5.0,,0.0,0.0,
2025-08-15T01:12:14.510Z,9,GR86-062-012,2.1,0.093,-0.032,99.96,5.0,6452.0,0.0,0.0,
2025-08-15T01:12:14.554Z,9,GR86-062-012,1.6,0.123,-0.06,99.95,5.0,,0.0,0.0,189.61
2025-08-15T01:12:14.597Z,9,GR86-062-012,1.4,0.105,-0.062,99.93,5.0,,0.0,0.0,
2025-08-15T01:12:14.640Z,9,GR86-062-012,1.2000000000000002,0.124,-0.058,99.96,5.0,,0.0,0.0,
2025-08-15T01:12:14.684Z,9,GR86-062-012,1.2000000000000002,0.09,-0.051,99.94,5.0,,0.0,0.0,
2025-08-15T01:12:14.727Z,9,GR86-062-012,1.2000000000000002,0.1,-0.051,99.95,5.0,6468.0,0.0,0.0,
2025-08-15T01:12:14.770Z,9,GR86-062-012,1.2000000000000002,0.082,-0.063,99.96,5.0,,0.0,0.0,190.28
2025-08-15T01:12:14.814Z,9,GR86-062-012,1.2000000000000002,0.119,-0.1,99.96,5.0,,0.0,0.0,
2025-08-15T01:12:14.858Z,9,GR86-062-012,1.4,0.121,-0.095,99.95,5.0,,0.0,0.0,
2025-08-15T01:12:14.900Z,9,GR86-062-012,1.7000000000000002,0.127,-0.095,99.94,5.0,,0.0,0.0,
2025-08-15T01:12:14.945Z,9,GR86-062-012,2.1,0.121,-0.099,99.96,5.0,6493.0,0.0,0.0,
2025-08-15T01:12:14.988Z,9,GR86-062-012,2.2,0.105,-0.089,99.97,5.0,,0.0,0.0,190.99
2025-08-15T01:12:15.031Z,9,GR86-062-012,2.4000000000000004,0.115,-0.085,99.94,5.0,,0.0,0.0,
2025-08-15T01:12:15.074Z,9,GR86-062-012,2.5,0.111,-0.064,99.93,5.0,,0.0,0.0,
2025-08-15T01:12:15.117Z,9,GR86-062-012,2.6,0.107,-0.071,99.95,5.0,,0.0,0.0,
2025-08-15T01:12:15.160Z,9,GR86-062-012,2.6,0.144,-0.068,99.96,5.0,6521.0,0.0,0.0,
2025-08-15T01:12:15.204Z,9,GR86-062-012,2.7,0.111,-0.039,99.96,5.0,,0.0,0.0,191.49
2025-08-15T01:12:15.246Z,9,GR86-062-012,2.7,0.122,-0.019,99.93,5.0,,0.0,0.0,
2025-08-15T01:12:15.289Z,9,GR86-062-012,2.7,0.115,-0.007,99.94,5.0,,0.0,0.0,
2025-08-15T01:12:15.334Z,9,GR86-062-012,2.7,0.099,0.009,99.95,5.0,,0.0,0.0,
2025-08-15T01:12:15.377Z,9,GR86-062-012,2.7,0.113,0.001,99.95,5.0,6535.0,0.0,0.0,
2025-08-15T01:12:15.420Z,9,GR86-062-012,2.6,0.122,-0.011,99.95,5.0,,0.0,0.0,192.18
2025-08-15T01:12:15.464Z,9,GR86-062-012,2.4000000000000004,0.114,-0.015,99.96,5.0,,0.0,0.0,
2025-08-15T01:12:15.508Z,9,GR86-062-012,2.4000000000000004,0.106,-0.018,99.93,5.0,,0.0,0.0,
2025-08-15T01:12:15.551Z,9,GR86-062-012,2.4000000000000004,0.111,-0.028,99.94,5.0,,0.0,0.0,
2025-08-15T01:12:15.594Z,9,GR86-062-012,2.4000000000000004,0.084,-0.028,99.95,5.0,6561.0,0.0,0.0,
2025-08-15T01:12:15.637Z,9,GR86-062-012,2.4000000000000004,0.095,-0.042,99.94,5.0,,0.0,0.0,193.31
2025-08-15T01:12:15.680Z,9,GR86-062-012,2.4000000000000004,0.101,-0.051,99.95,5.0,,0.0,0.0,
2025-08-15T01:12:15.726Z,9,GR86-062-012,2.5,0.116,-0.055,99.95,5.0,,0.0,0.0,
2025-08-15T01:12:15.770Z,9,GR86-062-012,2.5,0.113,-0.064,99.96,5.0,,0.0,0.0,
2025-08-15T01:12:15.813Z,9,GR86-062-012,2.6,0.079,-0.053,99.94,5.0,6581.0,0.0,0.0,
2025-08-15T01:12:15.856Z,9,GR86-062-012,2.6,0.093,-0.027,99.95,5.0,,0.0,0.0,193.97
2025-08-15T01:12:15.899Z,9,GR86-062-012,2.6,0.081,-0.008,99.96,5.0,,0.0,0.0,
2025-08-15T01:12:15.943Z,9,GR86-062-012,2.6,0.115,-0.015,99.95,5.0,,0.0,0.0,
2025-08-15T01:12:15.985Z,9,GR86-062-012,2.8000000000000003,0.099,-0.026,99.95,5.0,,0.0,0.0,
2025-08-15T01:12:16.028Z,9,GR86-062-012,2.9000000000000004,0.116,-0.046,99.94,5.0,6608.0,0.0,0.0,
2025-08-15T01:12:16.071Z,9,GR86-062-012,2.9000000000000004,0.12,-0.035,99.95,5.0,,0.0,0.0,194.8
2025-08-15T01:12:16.114Z,9,GR86-062-012,3.0,0.094,-0.014,99.94,5.0,,0.0,0.0,
2025-08-15T01:12:16.157Z,9,GR86-062-012,3.0,0.093,-0.021,99.95,5.0,,0.0,0.0,
2025-08-15T01:12:16.201Z,9,GR86-062-012,3.1,0.099,-0.028,99.94,5.0,,0.0,0.0,
2025-08-15T01:12:16.244Z,9,GR86-062-012,3.2,0.106,-0.015,99.96,5.0,6656.0,0.0,0.0,
2025-08-15T01:12:16.287Z,9,GR86-062-012,3.2,0.119,-0.015,99.95,5.0,,0.0,0.0,195.4
2025-08-15T01:12:16.330Z,9,GR86-062-012,3.2,0.096,0.0,99.95,5.0,,0.0,0.0,
2025-08-15T01:12:16.374Z,9,GR86-062-012,3.3000000000000003,0.08,0.027,99.94,5.0,,0.0,0.0,
2025-08-15T01:12:16.417Z,9,GR86-062-012,3.3000000000000003,0.124,-0.002,99.93,5.0,,0.0,0.0,
2025-08-15T01:12:16.460Z,9,GR86-062-012,3.3000000000000003,0.127,-0.009,99.94,5.0,6676.0,0.0,0.0,
2025-08-15T01:12:16.504Z,9,GR86-062-012,3.3000000000000003,0.101,-0.027,99.94,5.0,,0.0,0.0,196.14
2025-08-15T01:12:16.546Z,9,GR86-062-012,3.3000000000000003,0.124,-0.028,99.91,5.0,,0.0,0.0,
2025-08-15T01:12:16.589Z,9,GR86-062-012,3.3000000000000003,0.113,-0.027,99.93,5.0,,0.0,0.0,
2025-08-15T01:12:16.634Z,9,GR86-062-012,3.2,0.067,0.039,99.95,5.0,,0.0,0.0,
2025-08-15T01:12:16.677Z,9,GR86-062-012,3.0,0.102,0.016,99.95,5.0,6697.0,0.0,0.0,
2025-08-15T01:12:16.720Z,9,GR86-062-012,3.0,0.102,0.0,99.94,5.0,,0.0,0.0,196.78
2025-08-15T01:12:16.764Z,9,GR86-062-012,3.0,0.087,-0.027,99.93,5.0,,0.0,0.0,
2025-08-15T01:12:16.806Z,9,GR86-062-012,3.0,0.111,-0.014,99.93,5.0,,0.0,0.0,
2025-08-15T01:12:16.849Z,9,GR86-062-012,3.0,0.099,-0.019,99.94,5.0,,0.0,0.0,
2025-08-15T01:12:16.893Z,9,GR86-062-012,3.0,0.074,-0.041,99.94,5.0,6717.0,0.0,0.0,
2025-08-15T01:12:16.935Z,9,GR86-062-012,3.0,0.097,-0.052,99.95,5.0,,0.0,0.0,197.46
2025-08-15T01:12:16.978Z,9,GR86-062-012,3.0,0.105,-0.032,99.95,5.0,,0.0,0.0,
2025-08-15T01:12:17.021Z,9,GR86-062-012,3.0,0.106,-0.013,99.94,5.0,,0.0,0.0,
2025-08-15T01:12:17.064Z,9,GR86-062-012,3.0,0.096,-0.007,99.95,5.0,,0.0,0.0,
2025-08-15T01:12:17.107Z,9,GR86-062-012,3.1,0.103,0.007,99.95,5.0,6735.0,0.0,0.0,
2025-08-15T01:12:17.150Z,9,GR86-062-012,3.1,0.105,0.005,99.95,5.0,,0.0,0.0,198.12
2025-08-15T01:12:17.194Z,9,GR86-062-012,3.1,0.102,-0.003,99.93,5.0,,0.0,0.0,
2025-08-15T01:12:17.237Z,9,GR86-062-012,3.2,0.106,-0.004,99.93,5.0,,0.0,0.0,
2025-08-15T01:12:17.280Z,9,GR86-062-012,3.2,0.105,0.006,99.94,5.0,,0.0,0.0,
2025-08-15T01:12:17.324Z,9,GR86-062-012,3.2,0.1,-0.008,99.96,5.0,6752.0,0.0,0.0,
2025-08-15T01:12:17.366Z,9,GR86-062-012,3.2,0.091,-0.012,99.95,5.0,,0.0,0.0,198.69
2025-08-15T01:12:17.409Z,9,GR86-062-012,3.3000000000000003,0.09,-0.016,99.94,5.0,,0.0,0.0,
2025-08-15T01:12:17.453Z,9,GR86-062-012,3.4000000000000004,0.101,0.011,99.95,5.0,,0.0,0.0,
2025-08-15T01:12:17.495Z,9,GR86-062-012,3.6,0.099,0.0,99.92,5.0,,0.0,0.0,
2025-08-15T01:12:17.538Z,9,GR86-062-012,4.2,0.099,0.005,99.94,5.0,6780.0,0.0,0.0,
2025-08-15T01:12:17.581Z,9,GR86-062-012,4.6000000000000005,0.102,0.004,99.95,5.0,,0.0,0.0,199.28
2025-08-15T01:12:17.625Z,9,GR86-062-012,4.7,0.089,0.027,99.96,5.0,,0.0,0.0,
2025-08-15T01:12:17.668Z,9,GR86-062-012,4.800000000000001,0.105,0.032,99.96,5.0,,0.0,0.0,
2025-08-15T01:12:17.711Z,9,GR86-062-012,4.7,0.093,0.043,99.95,5.0,,0.0,0.0,
2025-08-15T01:12:17.754Z,9,GR86-062-012,4.6000000000000005,0.091,0.033,99.94,5.0,6799.0,0.0,0.0,
2025-08-15T01:12:17.797Z,9,GR86-062-012,4.6000000000000005,0.089,0.034,99.93,5.0,,0.0,0.0,199.9
2025-08-15T01:12:17.840Z,9,GR86-062-012,4.6000000000000005,0.1,0.053,99.95,5.0,,0.0,0.0,
2025-08-15T01:12:17.884Z,9,GR86-062-012,4.5,0.088,0.079,99.94,5.0,,0.0,0.0,
2025-08-15T01:12:17.927Z,9,GR86-062-012,4.5,0.102,0.065,99.93,5.0,,0.0,0.0,
2025-08-15T01:12:17.970Z,9,GR86-062-012,4.5,0.105,0.047,99.93,5.0,6814.0,0.0,0.0,
2025-08-15T01:12:18.017Z,9,GR86-062-012,4.5,0.107,0.048,99.94,5.0,,0.0,0.0,200.49
2025-08-15T01:12:18.060Z,9,GR86-062-012,4.5,0.11,0.07,99.92,5.0,,0.0,0.0,
2025-08-15T01:12:18.104Z,9,GR86-062-012,4.4,0.097,0.056,99.92,5.0,,0.0,0.0,
2025-08-15T01:12:18.189Z,9,GR86-062-012,3.7,0.095,0.032,99.94,5.0,6833.0,0.0,0.0,
2025-08-15T01:12:18.234Z,9,GR86-062-012,3.6,0.097,0.041,99.92,5.0,,0.0,0.0,201.69
2025-08-15T01:12:18.277Z,9,GR86-062-012,3.5,0.108,0.045,99.92,5.0,,0.0,0.0,
2025-08-15T01:12:18.320Z,9,GR86-062-012,3.4000000000000004,0.094,0.06,99.95,5.0,,0.0,0.0,
2025-08-15T01:12:18.364Z,9,GR86-062-012,3.4000000000000004,0.106,0.057,99.95,5.0,,0.0,0.0,
2025-08-15T01:12:18.406Z,9,GR86-062-012,3.4000000000000004,0.094,0.025,99.95,5.0,6850.0,0.0,0.0,
2025-08-15T01:12:18.449Z,9,GR86-062-012,3.4000000000000004,0.115,0.023,99.95,5.0,,0.0,0.0,202.25
2025-08-15T01:12:18.493Z,9,GR86-062-012,3.4000000000000004,0.098,0.001,99.95,5.0,,0.0,0.0,
2025-08-15T01:12:18.535Z,9,GR86-062-012,3.3000000000000003,0.094,-0.003,99.95,5.0,,0.0,0.0,
2025-08-15T01:12:18.578Z,9,GR86-062-012,3.3000000000000003,0.109,-0.012,99.94,5.0,,0.0,0.0,
2025-08-15T01:12:18.621Z,9,GR86-062-012,3.3000000000000003,0.083,-0.017,99.95,5.0,6879.0,0.0,0.0,
2025-08-15T01:12:18.664Z,9,GR86-062-012,3.3000000000000003,0.131,0.007,99.96,5.0,,0.0,0.0,202.76
2025-08-15T01:12:18.707Z,9,GR86-062-012,3.3000000000000003,0.087,0.036,99.94,5.0,,0.0,0.0,
2025-08-15T01:12:18.750Z,9,GR86-062-012,3.3000000000000003,0.114,0.036,99.92,5.0,,0.0,0.0,
2025-08-15T01:12:18.794Z,9,GR86-062-012,3.3000000000000003,0.086,0.018,99.95,5.0,,0.0,0.0,
2025-08-15T01:12:18.837Z,9,GR86-062-012,2.9000000000000004,0.097,0.016,99.94,5.0,6917.0,0.0,0.0,
2025-08-15T01:12:18.880Z,9,GR86-062-012,2.1,0.103,0.011,99.95,5.0,,0.0,0.0,203.32
2025-08-15T01:12:18.924Z,9,GR86-062-012,1.9,0.093,0.006,99.93,5.0,,0.0,0.0,
2025-08-15T01:12:18.966Z,9,GR86-062-012,1.8,0.088,0.02,99.93,5.0,,0.0,0.0,
2025-08-15T01:12:19.009Z,9,GR86-062-012,1.8,0.107,-0.009,99.94,5.0,,0.0,0.0,
2025-08-15T01:12:19.053Z,9,GR86-062-012,1.8,0.075,-0.025,99.92,5.0,6933.0,0.0,0.0,
2025-08-15T01:12:19.095Z,9,GR86-062-012,1.6,0.09,-0.047,99.95,5.0,,0.0,0.0,204.01
2025-08-15T01:12:19.138Z,9,GR86-062-012,1.5,0.08,-0.041,99.94,5.0,,0.0,0.0,
2025-08-15T01:12:19.181Z,9,GR86-062-012,1.4,0.069,-0.066,99.94,5.0,,0.0,0.0,
2025-08-15T01:12:19.225Z,9,GR86-062-012,1.3,0.094,-0.08,99.96,5.0,,0.0,0.0,
2025-08-15T01:12:19.267Z,9,GR86-062-012,1.2000000000000002,0.082,-0.083,99.95,5.0,6957.0,0.0,0.0,
2025-08-15T01:12:19.310Z,9,GR86-062-012,1.2000000000000002,0.11,-0.076,99.94,5.0,,0.0,0.0,204.42
2025-08-15T01:12:19.354Z,9,GR86-062-012,1.2000000000000002,0.1,-0.077,99.95,5.0,,0.0,0.0,
2025-08-15T01:12:19.397Z,9,GR86-062-012,1.3,0.083,-0.097,99.92,5.0,,0.0,0.0,
2025-08-15T01:12:19.440Z,9,GR86-062-012,1.3,0.106,-0.117,99.93,5.0,,0.0,0.0,
2025-08-15T01:12:19.484Z,9,GR86-062-012,1.4,0.09,-0.103,99.92,5.0,6961.0,0.0,0.0,
2025-08-15T01:12:19.527Z,9,GR86-062-012,1.4,0.077,-0.11,99.92,5.0,,0.0,0.0,204.99
2025-08-15T01:12:19.570Z,9,GR86-062-012,1.4,0.08,-0.103,99.93,5.0,,0.0,0.0,
2025-08-15T01:12:19.614Z,9,GR86-062-012,1.4,0.093,-0.081,99.95,5.0,,0.0,0.0,
2025-08-15T01:12:19.658Z,9,GR86-062-012,1.3,0.089,-0.071,99.95,5.0,,0.0,0.0,
2025-08-15T01:12:19.701Z,9,GR86-062-012,1.3,0.061,-0.078,99.96,5.0,6983.0,0.0,0.0,
2025-08-15T01:12:19.744Z,9,GR86-062-012,1.6,0.081,-0.085,99.96,5.0,,0.0,0.0,205.45
2025-08-15T01:12:19.787Z,9,GR86-062-012,2.0,0.056,-0.091,99.95,5.0,,0.0,0.0,
2025-08-15T01:12:19.830Z,9,GR86-062-012,2.1,0.088,-0.074,99.94,5.0,,0.0,0.0,
2025-08-15T01:12:19.874Z,9,GR86-062-012,2.4000000000000004,0.078,-0.048,99.94,5.0,,0.0,0.0,
2025-08-15T01:12:19.917Z,9,GR86-062-012,3.0,0.076,-0.054,99.93,5.0,7010.0,0.0,0.0,
2025-08-15T01:12:19.960Z,9,GR86-062-012,4.2,0.098,-0.047,99.93,5.0,,0.0,0.0,206.08
2025-08-15T01:12:20.004Z,9,GR86-062-012,4.800000000000001,0.098,-0.023,99.94,5.0,,0.0,0.0,
2025-08-15T01:12:20.046Z,9,GR86-062-012,5.0,0.097,-0.009,99.93,5.0,,0.0,0.0,
2025-08-15T01:12:20.089Z,9,GR86-062-012,5.1000000000000005,0.109,0.016,99.93,5.0,,0.0,0.0,
2025-08-15T01:12:20.134Z,9,GR86-062-012,5.1000000000000005,0.106,0.05,99.93,5.0,7016.0,0.0,0.0,
2025-08-15T01:12:20.177Z,9,GR86-062-012,4.800000000000001,0.089,0.054,99.94,5.0,,0.0,0.0,206.54
2025-08-15T01:12:20.220Z,9,GR86-062-012,4.4,0.08,0.05,99.93,5.0,,0.0,0.0,
2025-08-15T01:12:20.264Z,9,GR86-062-012,3.8,0.081,0.048,98.69,5.0,,0.0,0.0,
2025-08-15T01:12:20.307Z,9,GR86-062-012,3.4000000000000004,0.076,0.039,43.6,5.0,,0.0,0.0,
2025-08-15T01:12:20.350Z,9,GR86-062-012,3.3000000000000003,0.092,0.034,5.75,5.0,7042.0,0.0,0.0,
2025-08-15T01:12:20.394Z,9,GR86-062-012,3.2,-0.114,0.034,5.22,5.0,,0.0,0.0,207.09
2025-08-15T01:12:20.437Z,9,GR86-062-012,3.2,-0.147,0.035,4.7700000000000005,5.0,,0.0,0.0,
2025-08-15T01:12:20.480Z,9,GR86-062-012,3.2,-0.444,-0.016,4.14,5.0,,0.0,0.0,
2025-08-15T01:12:20.526Z,9,GR86-062-012,3.2,-0.2,-0.04,3.84,5.0,,0.0,0.0,
2025-08-15T01:12:20.569Z,9,GR86-062-012,3.2,-0.084,-0.014,3.63,5.0,7057.0,0.0,0.0,
2025-08-15T01:12:20.613Z,9,GR86-062-012,3.2,-0.217,-0.086,3.34,5.0,,0.0,0.0,207.6
2025-08-15T01:12:20.658Z,9,GR86-062-012,3.3000000000000003,-0.217,-0.061,3.06,5.0,,6.335,6.6850000000000005,
2025-08-15T01:12:20.701Z,9,GR86-062-012,3.3000000000000003,-0.206,-0.065,2.77,5.0,,9.34,9.46,
2025-08-15T01:12:20.744Z,9,GR86-062-012,3.3000000000000003,-0.255,-0.041,2.6,5.0,,9.63,9.81,
2025-08-15T01:12:20.788Z,9,GR86-062-012,4.5,-0.344,-0.014,2.48,5.0,6761.0,10.56,10.805,
2025-08-15T01:12:20.831Z,9,GR86-062-012,5.2,-0.38,0.004,2.4,5.0,,16.25,16.405,207.99
2025-08-15T01:12:20.874Z,9,GR86-062-012,5.300000000000001,-0.492,0.007,2.4,5.0,,27.745,27.68,
2025-08-15T01:12:20.917Z,9,GR86-062-012,4.800000000000001,-0.611,0.024,2.38,5.0,,36.365,36.18,
2025-08-15T01:12:20.960Z,9,GR86-062-012,4.2,-0.753,0.035,2.38,5.0,,44.5,44.225,
2025-08-15T01:12:21.004Z,9,GR86-062-012,3.3000000000000003,-0.863,0.048,2.39,5.0,6860.0,50.97,50.585,
2025-08-15T01:12:21.046Z,9,GR86-062-012,2.5,-0.938,0.061,2.39,5.0,,55.575,55.15,205.48
2025-08-15T01:12:21.089Z,9,GR86-062-012,1.7000000000000002,-0.99,0.045,2.39,5.0,,59.36,58.875,
2025-08-15T01:12:21.135Z,9,GR86-062-012,1.2000000000000002,-1.047,0.016,2.4,5.0,,64.395,63.925,
2025-08-15T01:12:21.178Z,9,GR86-062-012,1.2000000000000002,-1.094,0.008,2.41,5.0,,68.21000000000001,67.525,
2025-08-15T01:12:21.221Z,9,GR86-062-012,1.6,-1.161,0.017,2.44,5.0,6852.0,72.425,71.645,
2025-08-15T01:12:21.264Z,9,GR86-062-012,1.7000000000000002,-1.222,0.025,2.44,5.0,,76.83500000000001,75.995,201.6
2025-08-15T01:12:21.307Z,9,GR86-062-012,1.7000000000000002,-1.294,0.017,2.43,5.0,,81.365,80.495,
2025-08-15T01:12:21.350Z,9,GR86-062-012,1.5,-1.281,-0.023,27.26,5.0,,84.48,83.61,
2025-08-15T01:12:21.394Z,9,GR86-062-012,1.8,-1.265,-0.062,93.23,4.0,,85.32000000000001,84.89,
2025-08-15T01:12:21.437Z,9,GR86-062-012,3.6,-1.269,-0.04,66.56,4.0,6139.0,85.96000000000001,87.805,
2025-08-15T01:12:21.480Z,9,GR86-062-012,3.8,-1.285,-0.031,3.51,4.0,,86.465,88.765,193.76
2025-08-15T01:12:21.524Z,9,GR86-062-012,3.8,-1.399,0.0,3.1,4.0,,87.425,89.99,
2025-08-15T01:12:21.567Z,9,GR86-062-012,4.3,-1.395,-0.118,2.8000000000000003,4.0,,87.745,89.865,
2025-08-15T01:12:21.610Z,9,GR86-062-012,5.1000000000000005,-1.317,-0.057,2.61,4.0,,83.61,84.83,
2025-08-15T01:12:21.654Z,9,GR86-062-012,6.300000000000001,-1.145,-0.12,2.52,4.0,5582.0,67.265,68.21000000000001,
2025-08-15T01:12:21.697Z,9,GR86-062-012,6.300000000000001,-1.076,-0.07,2.47,3.0,,59.745000000000005,61.27,184.55
2025-08-15T01:12:21.740Z,9,GR86-062-012,6.4,-1.12,-0.087,2.44,3.0,,55.425,57.025,
2025-08-15T01:12:21.784Z,9,GR86-062-012,6.5,-1.193,-0.093,2.44,3.0,,56.4,57.65,
2025-08-15T01:12:21.827Z,9,GR86-062-012,7.300000000000001,-1.253,-0.172,2.44,3.0,,53.64,54.235,
2025-08-15T01:12:21.914Z,9,GR86-062-012,7.5,-0.889,-0.21,2.44,3.0,,49.075,50.005,175.04
2025-08-15T01:12:21.957Z,9,GR86-062-012,7.4,-1.023,-0.051,2.44,3.0,6462.0,49.135,50.25,
2025-08-15T01:12:22.000Z,9,GR86-062-012,2.6,-1.047,-0.055,2.44,3.0,,51.715,52.22,
2025-08-15T01:12:22.044Z,9,GR86-062-012,1.2000000000000002,-1.029,-0.103,2.44,3.0,,55.075,55.365,
2025-08-15T01:12:22.086Z,9,GR86-062-012,0.7000000000000001,-1.079,-0.041,2.44,3.0,7034.0,57.24,57.685,
2025-08-15T01:12:22.129Z,9,GR86-062-012,0.5,-1.103,-0.051,2.45,3.0,,57.15,57.99,167.39
2025-08-15T01:12:22.175Z,9,GR86-062-012,-3.9,-1.083,-0.009,2.44,3.0,,55.805,56.875,
2025-08-15T01:12:22.261Z,9,GR86-062-012,-6.6000000000000005,-1.1,-0.072,2.45,3.0,,52.83,54.235,
2025-08-15T01:12:22.304Z,9,GR86-062-012,-7.800000000000001,-1.011,-0.185,2.47,3.0,7085.0,47.870000000000005,48.925,
2025-08-15T01:12:22.347Z,9,GR86-062-012,-8.200000000000001,-0.998,-0.217,2.47,3.0,,47.015,48.145,160.46
2025-08-15T01:12:22.390Z,9,GR86-062-012,-8.9,-0.964,-0.248,2.47,3.0,,45.03,46.205,
2025-08-15T01:12:22.434Z,9,GR86-062-012,-11.7,-0.886,-0.325,2.46,3.0,,43.02,44.085,
2025-08-15T01:12:22.477Z,9,GR86-062-012,-12.9,-0.903,-0.405,2.47,3.0,,42.18,43.325,
2025-08-15T01:12:22.520Z,9,GR86-062-012,-13.1,-0.892,-0.494,2.48,3.0,6760.0,40.025,41.215,
2025-08-15T01:12:22.564Z,9,GR86-062-012,-13.0,-0.854,-0.525,2.48,3.0,,36.275,37.355,153.58
2025-08-15T01:12:22.606Z,9,GR86-062-012,-12.8,-0.775,-0.5670000000000001,2.48,3.0,,33.435,34.365,
2025-08-15T01:12:22.649Z,9,GR86-062-012,-12.8,-0.712,-0.623,2.48,3.0,,30.46,31.42,
2025-08-15T01:12:22.693Z,9,GR86-062-012,-12.6,-0.681,-0.782,2.49,3.0,,27.405,28.34,
2025-08-15T01:12:22.735Z,9,GR86-062-012,-13.9,-0.764,-0.785,2.48,3.0,6522.0,27.53,28.215,
2025-08-15T01:12:22.778Z,9,GR86-062-012,-16.5,-0.705,-0.8200000000000001,2.48,3.0,,28.155,28.72,146.39
2025-08-15T01:12:22.821Z,9,GR86-062-012,-19.0,-0.687,-0.892,2.49,3.0,,28.84,29.5,
2025-08-15T01:12:22.864Z,9,GR86-062-012,-21.1,-0.654,-0.922,2.5,3.0,,29.175,29.71,
2025-08-15T01:12:22.950Z,9,GR86-062-012,-23.6,-0.613,-0.97,2.49,3.0,6175.0,20.875,21.715,
2025-08-15T01:12:22.994Z,9,GR86-062-012,-23.6,-0.452,-1.133,2.49,3.0,,5.555,6.09,140.85
2025-08-15T01:12:23.036Z,9,GR86-062-012,-23.700000000000003,-0.308,-1.106,2.49,3.0,,0.0,0.0,
2025-08-15T01:12:23.079Z,9,GR86-062-012,-24.0,-0.184,-1.146,2.48,3.0,,0.0,0.0,
2025-08-15T01:12:23.124Z,9,GR86-062-012,-24.0,-0.185,-1.198,16.63,3.0,,0.0,0.0,
2025-08-15T01:12:23.166Z,9,GR86-062-012,-24.9,-0.208,-1.245,31.75,3.0,5984.0,0.0,0.0,
2025-08-15T01:12:23.209Z,9,GR86-062-012,-28.5,-0.163,-1.251,36.42,3.0,,0.0,0.0,136.9
2025-08-15T01:12:23.253Z,9,GR86-062-012,-31.700000000000003,-0.088,-1.273,39.9,3.0,,0.0,0.0,
2025-08-15T01:12:23.295Z,9,GR86-062-012,-31.3,-0.091,-1.257,74.63,3.0,,0.0,0.0,
2025-08-15T01:12:23.338Z,9,GR86-062-012,-29.5,0.16,-1.227,77.97,3.0,,0.0,0.0,
2025-08-15T01:12:23.381Z,9,GR86-062-012,-27.5,0.223,-1.226,76.45,3.0,5657.0,0.0,0.0,
2025-08-15T01:12:23.425Z,9,GR86-062-012,-25.4,0.206,-1.273,94.87,3.0,,0.0,0.0,132.41
2025-08-15T01:12:23.468Z,9,GR86-062-012,-24.0,0.202,-1.242,99.8,3.0,,0.0,0.0,
2025-08-15T01:12:23.511Z,9,GR86-062-012,-23.9,0.199,-1.227,99.85,3.0,,0.0,0.0,
2025-08-15T01:12:23.554Z,9,GR86-062-012,-26.6,0.183,-1.194,99.89,3.0,,0.0,0.0,
2025-08-15T01:12:23.597Z,9,GR86-062-012,-29.1,0.19,-1.225,99.88,3.0,5898.0,0.0,0.0,
2025-08-15T01:12:23.640Z,9,GR86-062-012,-33.1,0.186,-1.18,99.88,3.0,,0.0,0.0,128.78
2025-08-15T01:12:23.684Z,9,GR86-062-012,-37.7,0.166,-1.181,74.52,3.0,,0.0,0.0,
2025-08-15T01:12:23.727Z,9,GR86-062-012,-40.5,0.176,-1.186,56.06,3.0,,0.0,0.0,
2025-08-15T01:12:23.770Z,9,GR86-062-012,-40.6,0.184,-1.14,52.77,3.0,,0.0,0.0,
2025-08-15T01:12:23.814Z,9,GR86-062-012,-40.8,0.166,-1.144,37.53,3.0,6144.0,0.0,0.0,
2025-08-15T01:12:23.858Z,9,GR86-062-012,-41.2,0.134,-1.148,35.28,3.0,,0.0,0.0,129.27
2025-08-15T01:12:23.900Z,9,GR86-062-012,-41.5,0.103,-1.082,34.910000000000004,3.0,,0.0,0.0,
2025-08-15T01:12:23.945Z,9,GR86-062-012,-41.900000000000006,0.083,-1.106,35.0,3.0,,0.0,0.0,
2025-08-15T01:12:23.988Z,9,GR86-062-012,-42.6,0.088,-1.055,35.13,3.0,,0.0,0.0,
2025-08-15T01:12:24.031Z,9,GR86-062-012,-42.8,0.067,-1.094,34.83,3.0,6109.0,0.0,0.0,
2025-08-15T01:12:24.074Z,9,GR86-062-012,-42.900000000000006,0.082,-1.117,34.730000000000004,3.0,,0.0,0.0,129.36
2025-08-15T01:12:24.117Z,9,GR86-062-012,-42.900000000000006,0.085,-1.106,34.83,3.0,,0.0,0.0,
2025-08-15T01:12:24.160Z,9,GR86-062-012,-42.900000000000006,0.083,-1.168,34.74,3.0,,0.0,0.0,
2025-08-15T01:12:24.204Z,9,GR86-062-012,-42.900000000000006,0.069,-1.179,34.59,3.0,,0.0,0.0,
2025-08-15T01:12:24.246Z,9,GR86-062-012,-43.0,0.079,-1.157,34.74,3.0,6152.0,0.0,0.0,
2025-08-15T01:12:24.289Z,9,GR86-062-012,-43.0,0.094,-1.189,34.93,3.0,,0.0,0.0,130.25
2025-08-15T01:12:24.334Z,9,GR86-062-012,-43.2,0.07,-1.26,34.980000000000004,3.0,,0.0,0.0,
2025-08-15T01:12:24.377Z,9,GR86-062-012,-43.2,0.037,-1.061,36.75,3.0,,0.0,0.0,
2025-08-15T01:12:24.420Z,9,GR86-062-012,-43.2,0.059,-1.196,36.74,3.0,,0.0,0.0,
2025-08-15T01:12:24.464Z,9,GR86-062-012,-43.0,0.057,-1.236,36.18,3.0,6176.0,0.0,0.0,
2025-08-15T01:12:24.507Z,9,GR86-062-012,-42.3,0.122,-1.289,36.35,3.0,,0.0,0.0,131.91
2025-08-15T01:12:24.550Z,9,GR86-062-012,-41.8,0.23,-1.309,37.22,3.0,,0.0,0.0,
2025-08-15T01:12:24.594Z,9,GR86-062-012,-41.3,-0.109,-1.127,36.72,3.0,,0.0,0.0,
2025-08-15T01:12:24.637Z,9,GR86-062-012,-41.3,-0.026,-1.074,36.41,3.0,,0.0,0.0,
2025-08-15T01:12:24.680Z,9,GR86-062-012,-42.0,0.134,-1.149,35.230000000000004,3.0,6234.0,0.0,0.0,
2025-08-15T01:12:24.726Z,9,GR86-062-012,-42.3,0.201,-1.29,33.35,3.0,,0.0,0.0,132.54
2025-08-15T01:12:24.770Z,9,GR86-062-012,-42.7,0.197,-1.314,33.31,3.0,,0.0,0.0,
2025-08-15T01:12:24.813Z,9,GR86-062-012,-42.5,0.044,-1.258,34.410000000000004,3.0,,0.0,0.0,
2025-08-15T01:12:24.855Z,9,GR86-062-012,-40.5,0.01,-1.486,35.01,3.0,,0.0,0.0,
2025-08-15T01:12:24.898Z,9,GR86-062-012,-37.5,0.123,-1.305,43.57,3.0,6302.0,0.0,0.0,
2025-08-15T01:12:24.941Z,9,GR86-062-012,-36.6,0.074,-1.338,61.42,3.0,,0.0,0.0,132.57
2025-08-15T01:12:24.984Z,9,GR86-062-012,-36.6,0.101,-1.231,84.35000000000001,3.0,,0.0,0.0,
2025-08-15T01:12:25.070Z,9,GR86-062-012,-38.7,0.148,-1.189,99.96,3.0,,0.0,0.0,
2025-08-15T01:12:25.114Z,9,GR86-062-012,-46.400000000000006,0.177,-1.153,99.92,3.0,6207.0,0.0,0.0,
2025-08-15T01:12:25.157Z,9,GR86-062-012,-48.2,0.15,-1.198,99.92,3.0,,0.0,0.0,132.33
2025-08-15T01:12:25.200Z,9,GR86-062-012,-48.3,0.142,-1.264,99.92,3.0,,0.0,0.0,
2025-08-15T01:12:25.244Z,9,GR86-062-012,-48.3,0.16,-1.296,99.91,3.0,,0.0,0.0,
2025-08-15T01:12:25.286Z,9,GR86-062-012,-48.3,0.179,-1.219,99.9,3.0,,0.0,0.0,
2025-08-15T01:12:25.329Z,9,GR86-062-012,-48.3,0.158,-1.233,99.91,3.0,6287.0,0.0,0.0,
2025-08-15T01:12:25.373Z,9,GR86-062-012,-48.3,0.157,-1.211,94.72,3.0,,0.0,0.0,132.74
2025-08-15T01:12:25.415Z,9,GR86-062-012,-48.3,0.16,-1.177,83.58,3.0,,0.0,0.0,
2025-08-15T01:12:25.458Z,9,GR86-062-012,-48.400000000000006,0.143,-1.199,80.85000000000001,3.0,,0.0,0.0,
2025-08-15T01:12:25.501Z,9,GR86-062-012,-48.400000000000006,0.168,-1.131,54.27,3.0,,0.0,0.0,
2025-08-15T01:12:25.545Z,9,GR86-062-012,-48.400000000000006,0.133,-1.214,46.95,3.0,6291.0,0.0,0.0,
2025-08-15T01:12:25.588Z,9,GR86-062-012,-48.400000000000006,0.135,-1.218,45.63,3.0,,0.0,0.0,131.73
2025-08-15T01:12:25.631Z,9,GR86-062-012,-48.400000000000006,0.123,-1.27,38.73,3.0,,0.0,0.0,
2025-08-15T01:12:25.674Z,9,GR86-062-012,-47.400000000000006,0.107,-1.28,37.8,3.0,,0.0,0.0,
2025-08-15T01:12:25.717Z,9,GR86-062-012,-45.900000000000006,0.08,-1.27,41.87,3.0,,0.0,0.0,
2025-08-15T01:12:25.760Z,9,GR86-062-012,-42.7,0.086,-1.278,40.66,3.0,6320.0,0.0,0.0,
2025-08-15T01:12:25.804Z,9,GR86-062-012,-38.6,0.088,-1.244,41.45,3.0,,0.0,0.0,133.81
2025-08-15T01:12:25.846Z,9,GR86-062-012,-34.300000000000004,0.108,-1.224,53.86,3.0,,0.0,0.0,
2025-08-15T01:12:25.889Z,9,GR86-062-012,-33.9,0.1,-1.206,53.65,3.0,,0.0,0.0,
2025-08-15T01:12:25.934Z,9,GR86-062-012,-35.5,0.132,-1.229,49.5,3.0,,0.0,0.0,
2025-08-15T01:12:25.977Z,9,GR86-062-012,-37.2,0.147,-1.229,49.46,3.0,6343.0,0.0,0.0,
2025-08-15T01:12:26.020Z,9,GR86-062-012,-38.3,0.174,-1.257,45.93,3.0,,0.0,0.0,134.75
2025-08-15T01:12:26.064Z,9,GR86-062-012,-38.400000000000006,0.169,-1.179,38.81,3.0,,0.0,0.0,
2025-08-15T01:12:26.106Z,9,GR86-062-012,-38.400000000000006,0.12,-1.161,39.02,3.0,,0.0,0.0,
2025-08-15T01:12:26.149Z,9,GR86-062-012,-37.4,0.116,-1.146,39.17,3.0,,0.0,0.0,
2025-08-15T01:12:26.193Z,9,GR86-062-012,-34.1,0.091,-1.159,38.53,3.0,6372.0,0.0,0.0,
2025-08-15T01:12:26.235Z,9,GR86-062-012,-31.3,0.12,-1.117,41.08,3.0,,0.0,0.0,135.85
2025-08-15T01:12:26.278Z,9,GR86-062-012,-30.1,0.126,-1.066,42.15,3.0,,0.0,0.0,
2025-08-15T01:12:26.321Z,9,GR86-062-012,-28.9,0.082,-1.031,40.07,3.0,,0.0,0.0,
2025-08-15T01:12:26.364Z,9,GR86-062-012,-27.9,0.139,-0.967,47.14,3.0,,0.0,0.0,
2025-08-15T01:12:26.407Z,9,GR86-062-012,-27.4,0.171,-1.019,55.51,3.0,6410.0,0.0,0.0,
2025-08-15T01:12:26.450Z,9,GR86-062-012,-28.200000000000003,0.163,-0.719,58.42,3.0,,0.0,0.0,136.15
2025-08-15T01:12:26.494Z,9,GR86-062-012,-28.700000000000003,0.159,-0.893,97.0,3.0,,0.0,0.0,
2025-08-15T01:12:26.537Z,9,GR86-062-012,-28.5,0.215,-0.635,99.89,3.0,,0.0,0.0,
2025-08-15T01:12:26.580Z,9,GR86-062-012,-28.200000000000003,0.188,-0.793,99.9,3.0,,0.0,0.0,
2025-08-15T01:12:26.624Z,9,GR86-062-012,-28.8,0.216,-0.73,99.9,3.0,6388.0,0.0,0.0,
2025-08-15T01:12:26.709Z,9,GR86-062-012,-34.300000000000004,0.202,-0.8,99.91,3.0,,0.0,0.0,135.92000000000002
2025-08-15T01:12:26.753Z,9,GR86-062-012,-32.5,-0.016,-1.201,99.9,3.0,,0.0,0.0,
2025-08-15T01:12:26.795Z,9,GR86-062-012,-29.4,0.276,-1.228,99.9,3.0,,0.0,0.0,
2025-08-15T01:12:26.838Z,9,GR86-062-012,-23.5,0.246,-1.296,99.9,3.0,6484.0,0.0,0.0,
2025-08-15T01:12:26.881Z,9,GR86-062-012,-18.6,0.168,-1.111,99.88,3.0,,0.0,0.0,136.52
2025-08-15T01:12:26.924Z,9,GR86-062-012,-13.0,0.107,-1.115,99.91,3.0,,0.0,0.0,
2025-08-15T01:12:26.967Z,9,GR86-062-012,-11.2,0.162,-0.993,99.91,3.0,,0.0,0.0,
2025-08-15T01:12:27.010Z,9,GR86-062-012,-13.4,0.283,-0.857,99.9,3.0,,0.0,0.0,
2025-08-15T01:12:27.054Z,9,GR86-062-012,-20.3,0.119,-0.965,99.89,3.0,6598.0,0.0,0.0,
2025-08-15T01:12:27.098Z,9,GR86-062-012,-21.3,0.307,-0.984,99.91,3.0,,0.0,0.0,137.19
2025-08-15T01:12:27.140Z,9,GR86-062-012,-20.8,0.223,-0.971,99.92,3.0,,0.0,0.0,
2025-08-15T01:12:27.185Z,9,GR86-062-012,-17.900000000000002,0.158,-1.07,99.9,3.0,,0.0,0.0,
2025-08-15T01:12:27.228Z,9,GR86-062-012,-13.1,0.221,-1.15,99.91,3.0,,0.0,0.0,
2025-08-15T01:12:27.271Z,9,GR86-062-012,-8.0,0.337,-0.988,99.9,3.0,6607.0,0.0,0.0,
2025-08-15T01:12:27.314Z,9,GR86-062-012,-4.800000000000001,0.237,-0.996,99.92,3.0,,0.0,0.0,139.3
2025-08-15T01:12:27.357Z,9,GR86-062-012,-4.800000000000001,0.306,-0.7020000000000001,99.92,3.0,,0.0,0.0,
2025-08-15T01:12:27.400Z,9,GR86-062-012,-6.1000000000000005,0.119,-0.656,99.91,3.0,,0.0,0.0,
2025-08-15T01:12:27.444Z,9,GR86-062-012,-8.700000000000001,0.116,-0.598,99.89,3.0,,0.0,0.0,
2025-08-15T01:12:27.486Z,9,GR86-062-012,-9.9,0.237,-0.598,99.89,3.0,6671.0,0.0,0.0,
2025-08-15T01:12:27.529Z,9,GR86-062-012,-10.6,0.293,-0.541,99.91,3.0,,0.0,0.0,139.02
2025-08-15T01:12:27.575Z,9,GR86-062-012,-11.1,0.248,-0.471,99.92,3.0,,0.0,0.0,
2025-08-15T01:12:27.618Z,9,GR86-062-012,-10.6,0.168,-0.472,99.92,3.0,,0.0,0.0,
2025-08-15T01:12:27.661Z,9,GR86-062-012,-8.4,0.162,-0.54,99.89,3.0,,0.0,0.0,
2025-08-15T01:12:27.704Z,9,GR86-062-012,-4.9,0.255,-0.467,99.9,3.0,6657.0,0.0,0.0,
2025-08-15T01:12:27.747Z,9,GR86-062-012,-1.1,0.207,-0.399,99.92,3.0,,0.0,0.0,140.21
2025-08-15T01:12:27.790Z,9,GR86-062-012,2.1,0.175,-0.411,99.89,3.0,,0.0,0.0,
2025-08-15T01:12:27.834Z,9,GR86-062-012,4.2,0.103,-0.274,99.92,3.0,,0.0,0.0,
2025-08-15T01:12:27.877Z,9,GR86-062-012,4.3,0.161,-0.219,99.91,3.0,,0.0,0.0,
2025-08-15T01:12:27.920Z,9,GR86-062-012,4.7,0.169,-0.2,99.89,3.0,6678.0,0.0,0.0,
2025-08-15T01:12:27.964Z,9,GR86-062-012,5.2,0.204,-0.118,99.91,3.0,,0.0,0.0,141.48
2025-08-15T01:12:28.006Z,9,GR86-062-012,6.2,0.322,-0.15,99.9,3.0,,0.0,0.0,
2025-08-15T01:12:28.049Z,9,GR86-062-012,6.800000000000001,0.298,0.015,99.91,3.0,,0.0,0.0,
2025-08-15T01:12:28.093Z,9,GR86-062-012,7.9,0.236,0.007,99.9,3.0,,0.0,0.0,
2025-08-15T01:12:28.135Z,9,GR86-062-012,8.4,0.297,-0.019,99.91,3.0,6731.0,0.0,0.0,
2025-08-15T01:12:28.178Z,9,GR86-062-012,9.0,0.318,-0.004,99.91,3.0,,0.0,0.0,142.87
2025-08-15T01:12:28.221Z,9,GR86-062-012,9.3,0.278,0.078,99.92,3.0,,0.0,0.0,
2025-08-15T01:12:28.264Z,9,GR86-062-012,10.0,0.205,0.129,99.92,3.0,,0.0,0.0,
2025-08-15T01:12:28.307Z,9,GR86-062-012,11.5,0.142,0.208,99.91,3.0,,0.0,0.0,
2025-08-15T01:12:28.350Z,9,GR86-062-012,12.3,0.204,0.301,99.91,3.0,6791.0,0.0,0.0,
2025-08-15T01:12:28.394Z,9,GR86-062-012,12.0,0.204,0.38,99.9,3.0,,0.0,0.0,144.02
2025-08-15T01:12:28.437Z,9,GR86-062-012,8.8,0.265,0.406,99.92,3.0,,0.0,0.0,
2025-08-15T01:12:28.480Z,9,GR86-062-012,6.300000000000001,0.221,0.32,99.93,3.0,,0.0,0.0,
2025-08-15T01:12:28.524Z,9,GR86-062-012,3.8,0.134,0.48,99.92,3.0,,0.0,0.0,
2025-08-15T01:12:28.566Z,9,GR86-062-012,-0.1,0.265,0.351,99.92,3.0,6876.0,0.0,0.0,
2025-08-15T01:12:28.609Z,9,GR86-062-012,-1.5,0.201,0.486,99.93,3.0,,0.0,0.0,145.32
2025-08-15T01:12:28.653Z,9,GR86-062-012,-2.3000000000000003,0.192,0.317,99.92,3.0,,0.0,0.0,
2025-08-15T01:12:28.695Z,9,GR86-062-012,-1.0,0.192,0.303,99.92,3.0,,0.0,0.0,
2025-08-15T01:12:28.738Z,9,GR86-062-012,0.9,0.197,0.276,99.92,3.0,,0.0,0.0,
2025-08-15T01:12:28.781Z,9,GR86-062-012,2.8000000000000003,0.207,0.177,99.92,3.0,6906.0,0.0,0.0,
2025-08-15T01:12:28.825Z,9,GR86-062-012,4.2,0.222,0.134,99.91,3.0,,0.0,0.0,147.01
2025-08-15T01:12:28.868Z,9,GR86-062-012,5.800000000000001,0.225,0.098,99.93,3.0,,0.0,0.0,
2025-08-15T01:12:28.911Z,9,GR86-062-012,6.300000000000001,0.183,0.082,99.92,3.0,,0.0,0.0,
2025-08-15T01:12:28.954Z,9,GR86-062-012,6.4,0.208,0.101,99.91,3.0,,0.0,0.0,
2025-08-15T01:12:28.997Z,9,GR86-062-012,6.300000000000001,0.202,0.106,99.91,3.0,7003.0,0.0,0.0,
2025-08-15T01:12:29.040Z,9,GR86-062-012,6.0,0.175,0.152,99.92,3.0,,0.0,0.0,149.56
2025-08-15T01:12:29.084Z,9,GR86-062-012,6.0,0.194,0.181,99.92,3.0,,0.0,0.0,
2025-08-15T01:12:29.127Z,9,GR86-062-012,5.9,0.223,0.195,99.93,3.0,,0.0,0.0,
2025-08-15T01:12:29.170Z,9,GR86-062-012,5.800000000000001,0.232,0.194,99.94,3.0,,0.0,0.0,
2025-08-15T01:12:29.214Z,9,GR86-062-012,5.2,0.196,0.201,99.92,3.0,7040.0,0.0,0.0,
2025-08-15T01:12:29.258Z,9,GR86-062-012,4.5,0.208,0.18,99.92,3.0,,0.0,0.0,151.20000000000002
2025-08-15T01:12:29.300Z,9,GR86-062-012,3.4000000000000004,0.216,0.156,99.93,3.0,,0.0,0.0,
2025-08-15T01:12:29.345Z,9,GR86-062-012,2.7,0.195,0.134,99.93,3.0,,0.0,0.0,
2025-08-15T01:12:29.388Z,9,GR86-062-012,2.3000000000000003,0.166,0.12,99.91,3.0,,0.0,0.0,
2025-08-15T01:12:29.431Z,9,GR86-062-012,2.0,0.174,0.118,99.92,3.0,7095.0,0.0,0.0,
2025-08-15T01:12:29.474Z,9,GR86-062-012,1.6,0.209,0.07,99.92,3.0,,0.0,0.0,152.71
2025-08-15T01:12:29.517Z,9,GR86-062-012,1.4,0.176,0.056,99.95,3.0,,0.0,0.0,
2025-08-15T01:12:29.560Z,9,GR86-062-012,0.9,0.155,0.06,99.93,3.0,,0.0,0.0,
2025-08-15T01:12:29.604Z,9,GR86-062-012,0.5,0.161,0.046,99.92,3.0,,0.0,0.0,
2025-08-15T01:12:29.646Z,9,GR86-062-012,0.0,0.14,0.022,99.92,3.0,7249.0,0.0,0.0,
2025-08-15T01:12:29.689Z,9,GR86-062-012,-0.1,0.135,0.001,99.92,3.0,,0.0,0.0,154.12
2025-08-15T01:12:29.734Z,9,GR86-062-012,-0.1,0.076,-0.038,99.92,3.0,,0.0,0.0,
2025-08-15T01:12:29.777Z,9,GR86-062-012,-0.1,0.078,-0.05,99.91,3.0,,0.0,0.0,
2025-08-15T01:12:29.820Z,9,GR86-062-012,-0.2,0.074,-0.068,99.92,3.0,,0.0,0.0,
2025-08-15T01:12:29.865Z,9,GR86-062-012,-0.3,0.097,-0.082,99.92,3.0,7289.0,0.0,0.0,
2025-08-15T01:12:29.908Z,9,GR86-062-012,-0.3,0.016,-0.071,99.93,3.0,,0.0,0.0,155.6
2025-08-15T01:12:29.951Z,9,GR86-062-012,0.4,0.011,-0.082,99.89,3.0,,0.0,0.0,
2025-08-15T01:12:29.994Z,9,GR86-062-012,1.4,-0.061,-0.077,99.93,4.0,,0.0,0.0,
2025-08-15T01:12:30.037Z,9,GR86-062-012,1.5,0.49,-0.037,99.92,4.0,,0.0,0.0,
2025-08-15T01:12:30.080Z,9,GR86-062-012,1.5,0.335,-0.123,99.92,4.0,7257.0,0.0,0.0,
2025-08-15T01:12:30.126Z,9,GR86-062-012,1.5,0.293,-0.016,99.92,4.0,,0.0,0.0,157.03
2025-08-15T01:12:30.170Z,9,GR86-062-012,1.1,0.202,0.012,99.93,4.0,,0.0,0.0,
2025-08-15T01:12:30.213Z,9,GR86-062-012,0.6000000000000001,0.082,-0.038,99.91,4.0,,0.0,0.0,
2025-08-15T01:12:30.258Z,9,GR86-062-012,-0.5,0.172,0.024,99.93,4.0,,0.0,0.0,
2025-08-15T01:12:30.300Z,9,GR86-062-012,-1.1,0.203,-0.078,99.92,4.0,6945.0,0.0,0.0,
2025-08-15T01:12:30.344Z,9,GR86-062-012,-1.2000000000000002,0.147,-0.042,99.92,4.0,,0.0,0.0,157.96
2025-08-15T01:12:30.387Z,9,GR86-062-012,-1.1,0.114,-0.069,99.92,4.0,,0.0,0.0,
2025-08-15T01:12:30.430Z,9,GR86-062-012,-0.6000000000000001,0.15,-0.099,99.92,4.0,,0.0,0.0,
2025-08-15T01:12:30.474Z,9,GR86-062-012,-0.6000000000000001,0.152,-0.078,99.92,4.0,,0.0,0.0,
2025-08-15T01:12:30.517Z,9,GR86-062-012,-0.9,0.134,-0.077,99.93,4.0,6273.0,0.0,0.0,
2025-08-15T01:12:30.560Z,9,GR86-062-012,-0.9,0.131,-0.073,99.92,4.0,,0.0,0.0,159.29
2025-08-15T01:12:30.604Z,9,GR86-062-012,-0.6000000000000001,0.164,-0.11,99.93,4.0,,0.0,0.0,
2025-08-15T01:12:30.646Z,9,GR86-062-012,0.1,0.186,-0.101,99.92,4.0,,0.0,0.0,
2025-08-15T01:12:30.689Z,9,GR86-062-012,0.1,0.157,-0.095,99.92,4.0,,0.0,0.0,
2025-08-15T01:12:30.734Z,9,GR86-062-012,0.2,0.136,-0.07,99.93,4.0,6364.0,0.0,0.0,
2025-08-15T01:12:30.777Z,9,GR86-062-012,0.3,0.151,-0.086,99.92,4.0,,0.0,0.0,160.93
2025-08-15T01:12:30.820Z,9,GR86-062-012,0.7000000000000001,0.163,-0.059,99.91,4.0,,0.0,0.0,
2025-08-15T01:12:30.864Z,9,GR86-062-012,0.9,0.154,-0.044,99.92,4.0,,0.0,0.0,
2025-08-15T01:12:30.906Z,9,GR86-062-012,1.0,0.16,-0.024,99.93,4.0,,0.0,0.0,
2025-08-15T01:12:30.949Z,9,GR86-062-012,1.0,0.149,-0.024,99.92,4.0,6412.0,0.0,0.0,
2025-08-15T01:12:30.993Z,9,GR86-062-012,1.1,0.159,-0.012,99.91,4.0,,0.0,0.0,162.27
2025-08-15T01:12:31.035Z,9,GR86-062-012,1.1,0.159,-0.02,99.91,4.0,,0.0,0.0,
2025-08-15T01:12:31.078Z,9,GR86-062-012,1.1,0.147,-0.029,99.92,4.0,,0.0,0.0,
2025-08-15T01:12:31.121Z,9,GR86-062-012,1.1,0.157,-0.023,99.93,4.0,,0.0,0.0,
2025-08-15T01:12:31.165Z,9,GR86-062-012,1.1,0.156,-0.007,99.93,4.0,6450.0,0.0,0.0,
2025-08-15T01:12:31.208Z,9,GR86-062-012,1.1,0.148,0.001,99.92,4.0,,0.0,0.0,163.92000000000002
2025-08-15T01:12:31.251Z,9,GR86-062-012,1.0,0.142,0.005,99.91,4.0,,0.0,0.0,
2025-08-15T01:12:31.294Z,9,GR86-062-012,0.3,0.157,-0.013,99.91,4.0,,0.0,0.0,
2025-08-15T01:12:31.337Z,9,GR86-062-012,-0.6000000000000001,0.15,-0.004,99.92,4.0,,0.0,0.0,
2025-08-15T01:12:31.380Z,9,GR86-062-012,-2.0,0.142,-0.026,99.91,4.0,6510.0,0.0,0.0,
2025-08-15T01:12:31.424Z,9,GR86-062-012,-3.6,0.148,-0.056,99.92,4.0,,0.0,0.0,165.3
2025-08-15T01:12:31.466Z,9,GR86-062-012,-5.2,0.14,-0.094,99.93,4.0,,0.0,0.0,
2025-08-15T01:12:31.509Z,9,GR86-062-012,-6.2,0.136,-0.149,99.92,4.0,,0.0,0.0,
2025-08-15T01:12:31.553Z,9,GR86-062-012,-6.800000000000001,0.138,-0.221,99.91,4.0,,0.0,0.0,
2025-08-15T01:12:31.595Z,9,GR86-062-012,-7.300000000000001,0.147,-0.259,99.93,4.0,6561.0,0.0,0.0,
2025-08-15T01:12:31.638Z,9,GR86-062-012,-8.0,0.15,-0.286,99.93,4.0,,0.0,0.0,168.13
2025-08-15T01:12:31.681Z,9,GR86-062-012,-8.9,0.128,-0.313,99.92,4.0,,0.0,0.0,
2025-08-15T01:12:31.725Z,9,GR86-062-012,-9.9,0.126,-0.34,99.92,4.0,,0.0,0.0,
2025-08-15T01:12:31.768Z,9,GR86-062-012,-10.5,0.122,-0.379,99.92,4.0,,0.0,0.0,
2025-08-15T01:12:31.811Z,9,GR86-062-012,-10.6,0.127,-0.405,99.91,4.0,6615.0,0.0,0.0,
2025-08-15T01:12:31.854Z,9,GR86-062-012,-10.6,0.14,-0.456,99.92,4.0,,0.0,0.0,169.39
2025-08-15T01:12:31.897Z,9,GR86-062-012,-10.6,0.139,-0.487,99.91,4.0,,0.0,0.0,
2025-08-15T01:12:31.940Z,9,GR86-062-012,-10.6,0.131,-0.508,99.93,4.0,,0.0,0.0,
2025-08-15T01:12:31.984Z,9,GR86-062-012,-10.9,0.13,-0.53,99.92,4.0,,0.0,0.0,
2025-08-15T01:12:32.027Z,9,GR86-062-012,-12.1,0.136,-0.5660000000000001,99.92,4.0,6671.0,0.0,0.0,
2025-08-15T01:12:32.070Z,9,GR86-062-012,-13.3,0.139,-0.58,99.91,4.0,,0.0,0.0,170.55
2025-08-15T01:12:32.114Z,9,GR86-062-012,-14.0,0.145,-0.5640000000000001,99.92,4.0,,0.0,0.0,
2025-08-15T01:12:32.158Z,9,GR86-062-012,-14.1,0.135,-0.586,99.93,4.0,,0.0,0.0,
2025-08-15T01:12:32.201Z,9,GR86-062-012,-14.1,0.135,-0.603,99.91,4.0,,0.0,0.0,
2025-08-15T01:12:32.244Z,9,GR86-062-012,-14.1,0.163,-0.606,99.92,4.0,6771.0,0.0,0.0,
2025-08-15T01:12:32.287Z,9,GR86-062-012,-13.9,0.136,-0.598,99.91,4.0,,0.0,0.0,171.84
2025-08-15T01:12:32.330Z,9,GR86-062-012,-13.2,0.139,-0.599,99.91,4.0,,0.0,0.0,
2025-08-15T01:12:32.375Z,9,GR86-062-012,-10.6,0.14,-0.592,99.92,4.0,,0.0,0.0,
2025-08-15T01:12:32.418Z,9,GR86-062-012,-6.9,0.148,-0.5720000000000001,99.91,4.0,,0.0,0.0,
2025-08-15T01:12:32.461Z,9,GR86-062-012,-3.0,0.143,-0.552,99.92,4.0,6826.0,0.0,0.0,
2025-08-15T01:12:32.504Z,9,GR86-062-012,-0.6000000000000001,0.161,-0.503,99.91,4.0,,0.0,0.0,173.11
2025-08-15T01:12:32.547Z,9,GR86-062-012,0.3,0.152,-0.449,99.92,4.0,,0.0,0.0,
2025-08-15T01:12:32.590Z,9,GR86-062-012,0.4,0.167,-0.363,99.92,4.0,,0.0,0.0,
2025-08-15T01:12:32.634Z,9,GR86-062-012,-0.3,0.134,-0.244,99.56,4.0,,0.0,0.0,
2025-08-15T01:12:32.677Z,9,GR86-062-012,-0.6000000000000001,0.128,-0.175,50.2,4.0,6870.0,0.0,0.0,
2025-08-15T01:12:32.720Z,9,GR86-062-012,-0.7000000000000001,0.134,-0.101,5.47,4.0,,0.0,0.0,174.26
2025-08-15T01:12:32.764Z,9,GR86-062-012,-0.6000000000000001,0.088,-0.075,5.14,4.0,,0.0,0.0,
2025-08-15T01:12:32.806Z,9,GR86-062-012,-0.6000000000000001,-0.163,-0.015,4.84,4.0,,0.0,0.0,
2025-08-15T01:12:32.849Z,9,GR86-062-012,-0.9,-0.264,-0.019,4.21,4.0,,0.0,0.0,
2025-08-15T01:12:32.893Z,9,GR86-062-012,-1.3,-0.195,-0.047,3.73,4.0,6907.0,4.15,4.53,
2025-08-15T01:12:32.935Z,9,GR86-062-012,-1.3,-0.08,-0.025,3.5700000000000003,4.0,,4.715,4.87,175.68
2025-08-15T01:12:32.978Z,9,GR86-062-012,-0.9,-0.172,-0.095,3.38,4.0,,4.99,4.9,
2025-08-15T01:12:33.021Z,9,GR86-062-012,-0.6000000000000001,-0.301,-0.057,3.11,4.0,,11.035,11.095,
2025-08-15T01:12:33.065Z,9,GR86-062-012,-0.1,-0.461,-0.067,2.84,4.0,,19.245,19.15,
2025-08-15T01:12:33.108Z,9,GR86-062-012,0.6000000000000001,-0.546,-0.062,2.63,4.0,6564.0,27.745,27.375,
2025-08-15T01:12:33.151Z,9,GR86-062-012,0.8,-0.674,-0.024,2.49,4.0,,36.485,36.275,176.84
2025-08-15T01:12:33.194Z,9,GR86-062-012,0.6000000000000001,-0.883,-0.024,2.39,4.0,,49.96,49.55,
2025-08-15T01:12:33.237Z,9,GR86-062-012,0.3,-0.996,-0.018,2.37,4.0,,56.66,56.25,
2025-08-15T01:12:33.280Z,9,GR86-062-012,0.2,-1.055,-0.013,2.36,4.0,,60.855,60.52,
2025-08-15T01:12:33.324Z,9,GR86-062-012,0.0,-1.139,-0.002,2.36,4.0,6738.0,64.64,64.275,
2025-08-15T01:12:33.366Z,9,GR86-062-012,-0.4,-1.2,-0.017,8.81,4.0,,67.785,67.36,176.37
2025-08-15T01:12:33.409Z,9,GR86-062-012,-1.1,-1.207,-0.02,51.0,4.0,,69.615,69.22,
2025-08-15T01:12:33.453Z,9,GR86-062-012,-1.5,-1.294,-0.016,50.23,3.0,,71.77,71.615,
2025-08-15T01:12:33.495Z,9,GR86-062-012,-1.6,-1.3,-0.029,4.75,3.0,,73.875,74.68,
2025-08-15T01:12:33.538Z,9,GR86-062-012,-1.8,-1.391,-0.057,3.83,3.0,6546.0,77.11,79.14,
2025-08-15T01:12:33.581Z,9,GR86-062-012,-1.9,-1.306,-0.123,3.64,3.0,,78.42,78.74,173.03
2025-08-15T01:12:33.626Z,9,GR86-062-012,-2.1,-1.305,-0.062,3.42,3.0,,77.825,79.245,
2025-08-15T01:12:33.668Z,9,GR86-062-012,-1.9,-1.265,-0.175,3.26,3.0,,79.075,80.91,
2025-08-15T01:12:33.711Z,9,GR86-062-012,-1.6,-1.19,-0.193,3.06,3.0,,74.44,75.125,
2025-08-15T01:12:33.754Z,9,GR86-062-012,-0.6000000000000001,-1.258,-0.164,2.69,3.0,6185.0,73.72,75.58500000000001,
2025-08-15T01:12:33.797Z,9,GR86-062-012,0.2,-1.199,-0.273,2.53,3.0,,72.12,72.805,166.31
2025-08-15T01:12:33.840Z,9,GR86-062-012,0.6000000000000001,-1.211,-0.205,25.12,3.0,,67.175,67.785,
2025-08-15T01:12:33.884Z,9,GR86-062-012,0.7000000000000001,-1.14,-0.229,68.42,2.0,,62.595,64.215,
2025-08-15T01:12:33.927Z,9,GR86-062-012,0.9,-1.138,-0.254,44.38,2.0,,59.455,61.3,
2025-08-15T01:12:33.970Z,9,GR86-062-012,1.1,-1.16,-0.182,4.93,2.0,6805.0,56.43,58.370000000000005,
2025-08-15T01:12:34.015Z,9,GR86-062-012,1.1,-1.159,-0.423,3.78,2.0,,53.61,54.74,157.19
2025-08-15T01:12:34.058Z,9,GR86-062-012,1.0,-1.213,-0.322,3.5700000000000003,2.0,,49.7,50.465,
2025-08-15T01:12:34.101Z,9,GR86-062-012,1.1,-0.947,-0.286,3.37,2.0,,47.67,48.985,
2025-08-15T01:12:34.144Z,9,GR86-062-012,1.1,-0.881,-0.722,3.14,2.0,,45.81,46.59,
2025-08-15T01:12:34.188Z,9,GR86-062-012,-0.5,-1.058,-0.462,2.88,2.0,6427.0,45.595,46.145,
2025-08-15T01:12:34.231Z,9,GR86-062-012,-1.7000000000000002,-0.986,-0.507,2.67,2.0,,46.895,48.175,148.05
2025-08-15T01:12:34.274Z,9,GR86-062-012,-0.7000000000000001,-1.007,-0.741,2.51,2.0,,46.62,47.365,
2025-08-15T01:12:34.317Z,9,GR86-062-012,-0.9,-1.075,-0.5660000000000001,2.44,2.0,,45.72,45.995,
2025-08-15T01:12:34.360Z,9,GR86-062-012,-3.4000000000000004,-0.888,-0.638,2.4,2.0,,44.13,45.125,
2025-08-15T01:12:34.404Z,9,GR86-062-012,-6.0,-0.913,-0.661,2.4,2.0,6618.0,38.595,39.815,
2025-08-15T01:12:34.446Z,9,GR86-062-012,-7.1000000000000005,-0.877,-0.6920000000000001,2.39,2.0,,35.525,36.12,134.96
2025-08-15T01:12:34.489Z,9,GR86-062-012,-7.2,-0.947,-0.628,2.41,2.0,,34.745,35.265,
2025-08-15T01:12:34.534Z,9,GR86-062-012,-8.1,-0.8320000000000001,-0.597,2.4,2.0,,31.71,32.655,
2025-08-15T01:12:34.577Z,9,GR86-062-012,-11.9,-0.796,-0.624,2.4,2.0,,28.78,29.805,
2025-08-15T01:12:34.620Z,9,GR86-062-012,-16.2,-0.8140000000000001,-0.617,2.41,2.0,7021.0,27.56,28.615,
2025-08-15T01:12:34.665Z,9,GR86-062-012,-19.4,-0.775,-0.615,2.42,2.0,,26.08,27.025,128.66
2025-08-15T01:12:34.708Z,9,GR86-062-012,-21.3,-0.6910000000000001,-0.617,2.44,2.0,,24.525,25.605,
2025-08-15T01:12:34.751Z,9,GR86-062-012,-22.9,-0.714,-0.632,2.45,2.0,,23.24,24.2,
2025-08-15T01:12:34.794Z,9,GR86-062-012,-26.6,-0.655,-0.609,2.44,2.0,,21.18,22.065,
2025-08-15T01:12:34.837Z,9,GR86-062-012,-29.200000000000003,-0.596,-0.685,2.44,2.0,6614.0,19.93,20.66,
2025-08-15T01:12:34.880Z,9,GR86-062-012,-31.4,-0.597,-0.727,2.47,2.0,,19.015,19.9,122.68
2025-08-15T01:12:34.926Z,9,GR86-062-012,-34.300000000000004,-0.589,-0.755,2.47,2.0,,17.425,18.235,
2025-08-15T01:12:34.970Z,9,GR86-062-012,-38.3,-0.511,-0.79,2.47,2.0,,13.52,14.3,
2025-08-15T01:12:35.014Z,9,GR86-062-012,-42.6,-0.252,-0.961,2.48,2.0,,3.065,3.435,
2025-08-15T01:12:35.058Z,9,GR86-062-012,-43.900000000000006,-0.227,-0.964,2.47,2.0,6471.0,0.0,0.0,
2025-08-15T01:12:35.100Z,9,GR86-062-012,-44.400000000000006,-0.2,-1.002,2.47,2.0,,0.0,0.0,117.64
2025-08-15T01:12:35.145Z,9,GR86-062-012,-44.7,-0.182,-1.038,2.48,2.0,,0.0,0.0,
2025-08-15T01:12:35.188Z,9,GR86-062-012,-45.900000000000006,-0.167,-1.063,2.47,2.0,,0.0,0.0,
2025-08-15T01:12:35.231Z,9,GR86-062-012,-47.6,-0.156,-1.113,2.47,2.0,,0.0,0.0,
2025-08-15T01:12:35.274Z,9,GR86-062-012,-51.5,-0.168,-1.106,3.33,2.0,6287.0,0.0,0.0,
2025-08-15T01:12:35.317Z,9,GR86-062-012,-55.1,-0.205,-1.157,3.37,2.0,,0.0,0.0,114.05
2025-08-15T01:12:35.360Z,9,GR86-062-012,-57.900000000000006,-0.201,-1.171,3.09,2.0,,0.0,0.0,
2025-08-15T01:12:35.404Z,9,GR86-062-012,-59.0,-0.217,-1.211,2.98,2.0,,0.0,0.0,
2025-08-15T01:12:35.446Z,9,GR86-062-012,-59.0,-0.197,-1.235,2.88,2.0,,0.0,0.0,
2025-08-15T01:12:35.489Z,9,GR86-062-012,-58.900000000000006,-0.176,-1.27,2.78,2.0,6256.0,0.0,0.0,
2025-08-15T01:12:35.534Z,9,GR86-062-012,-58.900000000000006,-0.203,-1.312,2.69,2.0,,0.0,0.0,112.64
2025-08-15T01:12:35.577Z,9,GR86-062-012,-58.900000000000006,-0.197,-1.307,2.62,2.0,,0.0,0.0,
2025-08-15T01:12:35.620Z,9,GR86-062-012,-57.900000000000006,-0.191,-1.376,2.91,2.0,,0.0,0.0,
2025-08-15T01:12:35.664Z,9,GR86-062-012,-56.1,-0.232,-1.321,4.25,2.0,,0.0,0.0,
2025-08-15T01:12:35.706Z,9,GR86-062-012,-54.7,-0.208,-1.374,4.44,2.0,6173.0,0.0,0.0,
2025-08-15T01:12:35.749Z,9,GR86-062-012,-54.5,-0.199,-1.325,4.84,2.0,,0.0,0.0,111.5
2025-08-15T01:12:35.793Z,9,GR86-062-012,-56.400000000000006,-0.222,-1.351,5.5,2.0,,0.0,0.0,
2025-08-15T01:12:35.835Z,9,GR86-062-012,-58.900000000000006,-0.207,-1.322,5.36,2.0,,0.0,0.0,
2025-08-15T01:12:35.878Z,9,GR86-062-012,-62.900000000000006,-0.198,-1.33,4.59,2.0,,0.0,0.0,
2025-08-15T01:12:35.921Z,9,GR86-062-012,-66.9,-0.192,-1.326,4.37,2.0,6063.0,0.0,0.0,
2025-08-15T01:12:35.964Z,9,GR86-062-012,-69.10000000000001,-0.188,-1.313,4.72,2.0,,0.0,0.0,110.28
2025-08-15T01:12:36.007Z,9,GR86-062-012,-69.9,-0.181,-1.34,4.74,2.0,,0.0,0.0,
2025-08-15T01:12:36.050Z,9,GR86-062-012,-70.10000000000001,-0.188,-1.344,4.78,2.0,,0.0,0.0,
2025-08-15T01:12:36.094Z,9,GR86-062-012,-70.2,-0.181,-1.269,4.82,2.0,,0.0,0.0,
2025-08-15T01:12:36.137Z,9,GR86-062-012,-70.60000000000001,-0.18,-1.309,20.79,2.0,5962.0,0.0,0.0,
2025-08-15T01:12:36.180Z,9,GR86-062-012,-71.2,-0.189,-1.276,22.16,2.0,,0.0,0.0,108.8
2025-08-15T01:12:36.224Z,9,GR86-062-012,-72.0,-0.147,-1.276,22.76,2.0,,0.0,0.0,
2025-08-15T01:12:36.266Z,9,GR86-062-012,-72.2,-0.155,-1.307,31.01,2.0,,0.0,0.0,
2025-08-15T01:12:36.309Z,9,GR86-062-012,-72.2,-0.144,-1.249,46.28,2.0,,0.0,0.0,
2025-08-15T01:12:36.353Z,9,GR86-062-012,-72.2,0.056,-1.262,53.07,2.0,5851.0,0.0,0.0,
2025-08-15T01:12:36.395Z,9,GR86-062-012,-71.8,0.168,-1.2,52.99,2.0,,0.0,0.0,106.66
2025-08-15T01:12:36.438Z,9,GR86-062-012,-70.9,0.209,-1.234,55.97,2.0,,0.0,0.0,
2025-08-15T01:12:36.481Z,9,GR86-062-012,-69.9,0.243,-1.149,58.05,2.0,,0.0,0.0,
2025-08-15T01:12:36.525Z,9,GR86-062-012,-69.3,0.226,-1.2,57.6,2.0,,0.0,0.0,
2025-08-15T01:12:36.568Z,9,GR86-062-012,-68.9,0.208,-1.172,72.45,2.0,5790.0,0.0,0.0,
2025-08-15T01:12:36.611Z,9,GR86-062-012,-67.9,0.18,-1.179,98.91,2.0,,0.0,0.0,104.58
2025-08-15T01:12:36.654Z,9,GR86-062-012,-63.6,0.221,-1.216,99.85,2.0,,0.0,0.0,
2025-08-15T01:12:36.697Z,9,GR86-062-012,-60.2,0.227,-1.224,99.87,2.0,,0.0,0.0,
2025-08-15T01:12:36.740Z,9,GR86-062-012,-58.7,0.209,-1.197,99.86,2.0,,0.0,0.0,
2025-08-15T01:12:36.785Z,9,GR86-062-012,-58.6,0.215,-1.279,99.88,2.0,6191.0,0.0,0.0,
2025-08-15T01:12:36.828Z,9,GR86-062-012,-58.6,0.224,-1.249,99.88,2.0,,0.0,0.0,102.85
2025-08-15T01:12:36.871Z,9,GR86-062-012,-58.6,0.203,-1.256,99.89,2.0,,0.0,0.0,
2025-08-15T01:12:36.914Z,9,GR86-062-012,-58.6,0.231,-1.23,99.86,2.0,,0.0,0.0,
2025-08-15T01:12:37.001Z,9,GR86-062-012,-58.400000000000006,0.231,-1.169,99.86,2.0,6163.0,0.0,0.0,
2025-08-15T01:12:37.045Z,9,GR86-062-012,-58.2,0.213,-1.139,99.86,2.0,,0.0,0.0,103.26
2025-08-15T01:12:37.088Z,9,GR86-062-012,-58.2,0.233,-1.199,99.87,2.0,,0.0,0.0,
2025-08-15T01:12:37.131Z,9,GR86-062-012,-58.2,0.212,-1.152,99.89,2.0,,0.0,0.0,
2025-08-15T01:12:37.175Z,9,GR86-062-012,-58.2,0.209,-1.216,99.89,2.0,,0.0,0.0,
2025-08-15T01:12:37.218Z,9,GR86-062-012,-58.1,0.235,-1.18,99.89,2.0,6216.0,0.0,0.0,
2025-08-15T01:12:37.261Z,9,GR86-062-012,-58.0,0.236,-1.179,99.89,2.0,,0.0,0.0,104.31
2025-08-15T01:12:37.304Z,9,GR86-062-012,-57.7,0.235,-1.163,99.89,2.0,,0.0,0.0,
2025-08-15T01:12:37.347Z,9,GR86-062-012,-56.8,0.224,-1.184,99.88,2.0,,0.0,0.0,
2025-08-15T01:12:37.390Z,9,GR86-062-012,-56.0,0.203,-1.219,99.89,2.0,,0.0,0.0,
2025-08-15T01:12:37.434Z,9,GR86-062-012,-55.1,0.233,-1.298,99.89,2.0,6316.0,0.0,0.0,
2025-08-15T01:12:37.477Z,9,GR86-062-012,-54.7,0.252,-1.307,99.89,2.0,,0.0,0.0,105.32
2025-08-15T01:12:37.520Z,9,GR86-062-012,-53.900000000000006,0.205,-1.327,99.89,2.0,,0.0,0.0,
2025-08-15T01:12:37.564Z,9,GR86-062-012,-52.400000000000006,0.238,-1.305,99.89,2.0,,0.0,0.0,
2025-08-15T01:12:37.606Z,9,GR86-062-012,-50.8,0.227,-1.239,99.89,2.0,,0.0,0.0,
2025-08-15T01:12:37.649Z,9,GR86-062-012,-49.2,0.225,-1.144,99.89,2.0,6354.0,0.0,0.0,
2025-08-15T01:12:37.693Z,9,GR86-062-012,-44.0,0.224,-1.094,99.89,2.0,,0.0,0.0,106.47
2025-08-15T01:12:37.735Z,9,GR86-062-012,-40.1,0.196,-1.086,99.87,2.0,,0.0,0.0,
2025-08-15T01:12:37.778Z,9,GR86-062-012,-37.4,0.217,-1.145,99.89,2.0,,0.0,0.0,
2025-08-15T01:12:37.821Z,9,GR86-062-012,-36.0,0.263,-1.132,99.89,2.0,,0.0,0.0,
2025-08-15T01:12:37.865Z,9,GR86-062-012,-35.2,0.246,-1.134,99.89,2.0,6373.0,0.0,0.0,
2025-08-15T01:12:37.908Z,9,GR86-062-012,-33.800000000000004,0.26,-1.112,99.89,2.0,,0.0,0.0,107.98
2025-08-15T01:12:37.951Z,9,GR86-062-012,-31.200000000000003,0.235,-1.087,99.88,2.0,,0.0,0.0,
2025-08-15T01:12:37.994Z,9,GR86-062-012,-28.5,0.242,-1.08,99.89,2.0,,0.0,0.0,
2025-08-15T01:12:38.037Z,9,GR86-062-012,-27.700000000000003,0.259,-1.054,99.89,2.0,,0.0,0.0,
2025-08-15T01:12:38.080Z,9,GR86-062-012,-27.4,0.259,-1.015,99.89,2.0,6450.0,0.0,0.0,
2025-08-15T01:12:38.124Z,9,GR86-062-012,-27.3,0.258,-1.009,99.89,2.0,,0.0,0.0,109.03
2025-08-15T01:12:38.166Z,9,GR86-062-012,-26.8,0.262,-1.002,99.89,2.0,,0.0,0.0,
2025-08-15T01:12:38.209Z,9,GR86-062-012,-25.5,0.27,-0.96,99.89,2.0,,0.0,0.0,
2025-08-15T01:12:38.253Z,9,GR86-062-012,-23.9,0.271,-0.896,99.9,2.0,,0.0,0.0,
2025-08-15T01:12:38.295Z,9,GR86-062-012,-23.4,0.264,-0.833,99.91,2.0,6496.0,0.0,0.0,
2025-08-15T01:12:38.338Z,9,GR86-062-012,-23.1,0.24,-0.842,99.89,2.0,,0.0,0.0,110.61
2025-08-15T01:12:38.381Z,9,GR86-062-012,-23.0,0.258,-0.776,99.88,2.0,,0.0,0.0,
2025-08-15T01:12:38.425Z,9,GR86-062-012,-23.0,0.263,-0.749,99.89,2.0,,0.0,0.0,
2025-08-15T01:12:38.468Z,9,GR86-062-012,-22.700000000000003,0.262,-0.704,99.9,2.0,,0.0,0.0,
2025-08-15T01:12:38.511Z,9,GR86-062-012,-21.5,0.262,-0.66,99.89,2.0,6540.0,0.0,0.0,
2025-08-15T01:12:38.554Z,9,GR86-062-012,-19.5,0.266,-0.605,99.89,2.0,,0.0,0.0,111.2
2025-08-15T01:12:38.597Z,9,GR86-062-012,-18.9,0.253,-0.588,99.89,2.0,,0.0,0.0,
2025-08-15T01:12:38.640Z,9,GR86-062-012,-18.7,0.265,-0.559,99.9,2.0,,0.0,0.0,
2025-08-15T01:12:38.684Z,9,GR86-062-012,-18.7,0.278,-0.5630000000000001,99.9,2.0,,0.0,0.0,
2025-08-15T01:12:38.727Z,9,GR86-062-012,-18.7,0.248,-0.552,99.9,2.0,6606.0,0.0,0.0,
2025-08-15T01:12:38.770Z,9,GR86-062-012,-19.5,0.263,-0.523,99.89,2.0,,0.0,0.0,112.85
2025-08-15T01:12:38.814Z,9,GR86-062-012,-20.4,0.258,-0.512,99.89,2.0,,0.0,0.0,
2025-08-15T01:12:38.858Z,9,GR86-062-012,-20.4,0.267,-0.533,99.9,2.0,,0.0,0.0,
2025-08-15T01:12:38.901Z,9,GR86-062-012,-20.4,0.244,-0.529,99.89,2.0,,0.0,0.0,
2025-08-15T01:12:38.944Z,9,GR86-062-012,-20.4,0.259,-0.523,99.9,2.0,6689.0,0.0,0.0,
2025-08-15T01:12:38.988Z,9,GR86-062-012,-20.4,0.265,-0.531,99.89,2.0,,0.0,0.0,114.69
2025-08-15T01:12:39.031Z,9,GR86-062-012,-20.4,0.25,-0.555,99.88,2.0,,0.0,0.0,
2025-08-15T01:12:39.074Z,9,GR86-062-012,-20.4,0.25,-0.577,99.89,2.0,,0.0,0.0,
2025-08-15T01:12:39.117Z,9,GR86-062-012,-19.5,0.251,-0.589,99.9,2.0,,0.0,0.0,
2025-08-15T01:12:39.160Z,9,GR86-062-012,-18.1,0.262,-0.5700000000000001,99.89,2.0,6779.0,0.0,0.0,
2025-08-15T01:12:39.204Z,9,GR86-062-012,-17.0,0.253,-0.52,99.89,2.0,,0.0,0.0,116.56
2025-08-15T01:12:39.246Z,9,GR86-062-012,-16.400000000000002,0.239,-0.486,99.89,2.0,,0.0,0.0,
2025-08-15T01:12:39.289Z,9,GR86-062-012,-16.3,0.222,-0.417,99.89,2.0,,0.0,0.0,
2025-08-15T01:12:39.335Z,9,GR86-062-012,-17.3,0.268,-0.454,99.9,2.0,,0.0,0.0,
2025-08-15T01:12:39.378Z,9,GR86-062-012,-18.2,0.287,-0.373,99.91,2.0,6887.0,0.0,0.0,
2025-08-15T01:12:39.421Z,9,GR86-062-012,-18.5,0.296,-0.352,99.89,2.0,,0.0,0.0,118.23
2025-08-15T01:12:39.465Z,9,GR86-062-012,-18.4,0.252,-0.408,99.9,2.0,,0.0,0.0,
2025-08-15T01:12:39.508Z,9,GR86-062-012,-18.0,0.229,-0.39,99.9,2.0,,0.0,0.0,
2025-08-15T01:12:39.551Z,9,GR86-062-012,-17.400000000000002,0.225,-0.34,99.91,2.0,,0.0,0.0,
2025-08-15T01:12:39.594Z,9,GR86-062-012,-16.400000000000002,0.304,-0.513,99.9,2.0,6966.0,0.0,0.0,
2025-08-15T01:12:39.637Z,9,GR86-062-012,-16.2,0.294,-0.442,99.92,2.0,,0.0,0.0,121.5
2025-08-15T01:12:39.680Z,9,GR86-062-012,-16.0,0.3,-0.545,99.93,2.0,,0.0,0.0,
2025-08-15T01:12:39.726Z,9,GR86-062-012,-15.0,0.26,-0.413,99.9,2.0,,0.0,0.0,
2025-08-15T01:12:39.813Z,9,GR86-062-012,-9.4,0.259,-0.462,99.89,2.0,7092.0,0.0,0.0,
2025-08-15T01:12:39.858Z,9,GR86-062-012,-7.5,0.202,-0.266,99.91,2.0,,0.0,0.0,123.1
2025-08-15T01:12:39.900Z,9,GR86-062-012,-6.300000000000001,0.217,-0.281,99.91,2.0,,0.0,0.0,
2025-08-15T01:12:39.944Z,9,GR86-062-012,-4.800000000000001,0.222,-0.34,99.89,2.0,,0.0,0.0,
2025-08-15T01:12:39.987Z,9,GR86-062-012,-3.0,0.215,-0.209,99.89,2.0,,0.0,0.0,
2025-08-15T01:12:40.030Z,9,GR86-062-012,-2.7,0.175,-0.182,99.93,2.0,7194.0,0.0,0.0,
2025-08-15T01:12:40.074Z,9,GR86-062-012,-2.6,0.148,-0.101,99.93,2.0,,0.0,0.0,124.85
2025-08-15T01:12:40.117Z,9,GR86-062-012,-2.7,0.127,-0.081,99.91,2.0,,0.0,0.0,
2025-08-15T01:12:40.160Z,9,GR86-062-012,-2.7,0.114,-0.132,99.9,2.0,,0.0,0.0,
2025-08-15T01:12:40.204Z,9,GR86-062-012,-2.7,0.071,-0.09,99.92,2.0,,0.0,0.0,
2025-08-15T01:12:40.246Z,9,GR86-062-012,-2.7,0.073,-0.097,99.93,2.0,7227.0,0.0,0.0,
2025-08-15T01:12:40.289Z,9,GR86-062-012,-2.7,0.107,-0.09,99.91,2.0,,0.0,0.0,126.41
2025-08-15T01:12:40.334Z,9,GR86-062-012,-2.7,0.085,-0.116,99.9,2.0,,0.0,0.0,
2025-08-15T01:12:40.377Z,9,GR86-062-012,-2.2,0.069,-0.095,99.91,2.0,,0.0,0.0,
2025-08-15T01:12:40.420Z,9,GR86-062-012,-0.2,0.062,-0.106,99.93,2.0,,0.0,0.0,
2025-08-15T01:12:40.464Z,9,GR86-062-012,1.6,-0.049,-0.073,99.92,3.0,7296.0,0.0,0.0,
2025-08-15T01:12:40.506Z,9,GR86-062-012,1.9,0.638,-0.026,99.92,3.0,,0.0,0.0,127.62
2025-08-15T01:12:40.549Z,9,GR86-062-012,1.9,0.332,-0.104,99.91,3.0,,0.0,0.0,
2025-08-15T01:12:40.593Z,9,GR86-062-012,1.3,0.378,0.041,99.92,3.0,,0.0,0.0,
2025-08-15T01:12:40.635Z,9,GR86-062-012,1.2000000000000002,0.322,-0.028,99.92,3.0,,0.0,0.0,
2025-08-15T01:12:40.678Z,9,GR86-062-012,1.2000000000000002,0.199,-0.04,99.92,3.0,7299.0,0.0,0.0,
2025-08-15T01:12:40.721Z,9,GR86-062-012,1.2000000000000002,0.122,0.034,99.92,3.0,,0.0,0.0,128.36
2025-08-15T01:12:40.766Z,9,GR86-062-012,1.2000000000000002,0.199,-0.024,99.92,3.0,,0.0,0.0,
2025-08-15T01:12:40.808Z,9,GR86-062-012,1.2000000000000002,0.274,0.027,99.92,3.0,,0.0,0.0,
2025-08-15T01:12:40.851Z,9,GR86-062-012,1.2000000000000002,0.27,0.019,99.92,3.0,,0.0,0.0,
2025-08-15T01:12:40.894Z,9,GR86-062-012,1.2000000000000002,0.205,0.02,99.92,3.0,6125.0,0.0,0.0,
2025-08-15T01:12:40.937Z,9,GR86-062-012,1.2000000000000002,0.198,0.005,99.91,3.0,,0.0,0.0,128.96
2025-08-15T01:12:40.980Z,9,GR86-062-012,1.2000000000000002,0.24,0.023,99.9,3.0,,0.0,0.0,
2025-08-15T01:12:41.024Z,9,GR86-062-012,1.2000000000000002,0.242,0.021,99.91,3.0,,0.0,0.0,
2025-08-15T01:12:41.066Z,9,GR86-062-012,1.2000000000000002,0.218,-0.014,99.92,3.0,,0.0,0.0,
2025-08-15T01:12:41.109Z,9,GR86-062-012,1.2000000000000002,0.209,0.007,99.91,3.0,6155.0,0.0,0.0,
2025-08-15T01:12:41.153Z,9,GR86-062-012,1.3,0.217,-0.008,99.92,3.0,,0.0,0.0,130.85
2025-08-15T01:12:41.195Z,9,GR86-062-012,1.3,0.222,0.034,99.91,3.0,,0.0,0.0,
2025-08-15T01:12:41.238Z,9,GR86-062-012,1.3,0.219,0.012,99.9,3.0,,0.0,0.0,
2025-08-15T01:12:41.281Z,9,GR86-062-012,1.3,0.223,0.002,99.92,3.0,,0.0,0.0,
2025-08-15T01:12:41.325Z,9,GR86-062-012,1.3,0.213,-0.001,99.92,3.0,6202.0,0.0,0.0,
2025-08-15T01:12:41.368Z,9,GR86-062-012,1.3,0.212,0.025,99.93,3.0,,0.0,0.0,132.31
2025-08-15T01:12:41.411Z,9,GR86-062-012,1.3,0.226,0.013,99.89,3.0,,0.0,0.0,
2025-08-15T01:12:41.454Z,9,GR86-062-012,1.3,0.221,0.034,99.92,3.0,,0.0,0.0,
2025-08-15T01:12:41.497Z,9,GR86-062-012,1.3,0.238,0.001,99.91,3.0,,0.0,0.0,
2025-08-15T01:12:41.540Z,9,GR86-062-012,1.3,0.21,-0.002,99.93,3.0,6260.0,0.0,0.0,
2025-08-15T01:12:41.584Z,9,GR86-062-012,1.3,0.213,0.016,99.91,3.0,,0.0,0.0,133.73
2025-08-15T01:12:41.627Z,9,GR86-062-012,1.3,0.216,0.01,99.92,3.0,,0.0,0.0,
2025-08-15T01:12:41.670Z,9,GR86-062-012,1.3,0.226,-0.01,99.92,3.0,,0.0,0.0,
2025-08-15T01:12:41.714Z,9,GR86-062-012,1.4,0.238,0.012,99.9,3.0,,0.0,0.0,
2025-08-15T01:12:41.757Z,9,GR86-062-012,1.4,0.205,0.002,99.92,3.0,6339.0,0.0,0.0,
2025-08-15T01:12:41.801Z,9,GR86-062-012,1.4,0.204,0.006,99.91,3.0,,0.0,0.0,135.03
2025-08-15T01:12:41.845Z,9,GR86-062-012,1.4,0.203,0.015,99.91,3.0,,0.0,0.0,
2025-08-15T01:12:41.887Z,9,GR86-062-012,1.4,0.227,-0.015,99.93,3.0,,0.0,0.0,
2025-08-15T01:12:41.930Z,9,GR86-062-012,1.4,0.229,-0.032,99.92,3.0,,0.0,0.0,
2025-08-15T01:12:41.974Z,9,GR86-062-012,1.4,0.224,-0.019,99.91,3.0,6399.0,0.0,0.0,
2025-08-15T01:12:42.017Z,9,GR86-062-012,1.4,0.198,-0.028,99.9,3.0,,0.0,0.0,136.36
2025-08-15T01:12:42.060Z,9,GR86-062-012,1.4,0.199,-0.017,99.92,3.0,,0.0,0.0,
2025-08-15T01:12:42.104Z,9,GR86-062-012,1.4,0.219,0.004,99.92,3.0,,0.0,0.0,
2025-08-15T01:12:42.146Z,9,GR86-062-012,1.4,0.221,-0.001,99.92,3.0,,0.0,0.0,
2025-08-15T01:12:42.189Z,9,GR86-062-012,1.4,0.223,-0.007,99.91,3.0,6456.0,0.0,0.0,
2025-08-15T01:12:42.234Z,9,GR86-062-012,1.4,0.224,0.012,99.91,3.0,,0.0,0.0,139.09
2025-08-15T01:12:42.277Z,9,GR86-062-012,1.4,0.207,0.001,99.92,3.0,,0.0,0.0,
2025-08-15T01:12:42.320Z,9,GR86-062-012,1.4,0.185,0.021,99.92,3.0,,0.0,0.0,
2025-08-15T01:12:42.364Z,9,GR86-062-012,1.4,0.207,0.022,99.92,3.0,,0.0,0.0,
2025-08-15T01:12:42.406Z,9,GR86-062-012,1.4,0.23,0.017,99.92,3.0,6516.0,0.0,0.0,
2025-08-15T01:12:42.449Z,9,GR86-062-012,1.4,0.219,0.009,99.9,3.0,,0.0,0.0,140.4
2025-08-15T01:12:42.493Z,9,GR86-062-012,1.4,0.239,0.02,99.91,3.0,,0.0,0.0,
2025-08-15T01:12:42.535Z,9,GR86-062-012,1.4,0.22,0.005,99.92,3.0,,0.0,0.0,
2025-08-15T01:12:42.578Z,9,GR86-062-012,1.4,0.192,0.011,99.92,3.0,,0.0,0.0,
2025-08-15T01:12:42.621Z,9,GR86-062-012,1.4,0.192,0.016,99.91,3.0,6578.0,0.0,0.0,
2025-08-15T01:12:42.665Z,9,GR86-062-012,1.4,0.216,0.028,99.91,3.0,,0.0,0.0,141.67000000000002
2025-08-15T01:12:42.708Z,9,GR86-062-012,1.4,0.231,0.0,99.91,3.0,,0.0,0.0,
2025-08-15T01:12:42.751Z,9,GR86-062-012,1.4,0.205,-0.011,99.91,3.0,,0.0,0.0,
2025-08-15T01:12:42.794Z,9,GR86-062-012,1.4,0.224,-0.006,99.92,3.0,,0.0,0.0,
2025-08-15T01:12:42.837Z,9,GR86-062-012,1.4,0.206,-0.016,99.92,3.0,6692.0,0.0,0.0,
2025-08-15T01:12:42.880Z,9,GR86-062-012,1.4,0.176,-0.012,99.9,3.0,,0.0,0.0,142.91
2025-08-15T01:12:42.924Z,9,GR86-062-012,1.4,0.199,-0.002,99.92,3.0,,0.0,0.0,
2025-08-15T01:12:42.966Z,9,GR86-062-012,1.4,0.221,-0.002,99.92,3.0,,0.0,0.0,
2025-08-15T01:12:43.009Z,9,GR86-062-012,1.4,0.226,-0.002,99.91,3.0,,0.0,0.0,
2025-08-15T01:12:43.053Z,9,GR86-062-012,1.4,0.219,0.007,99.92,3.0,6750.0,0.0,0.0,
2025-08-15T01:12:43.095Z,9,GR86-062-012,1.4,0.216,-0.005,99.92,3.0,,0.0,0.0,144.13
2025-08-15T01:12:43.138Z,9,GR86-062-012,1.4,0.192,-0.003,99.9,3.0,,0.0,0.0,
2025-08-15T01:12:43.181Z,9,GR86-062-012,1.2000000000000002,0.178,0.013,99.89,3.0,,0.0,0.0,
2025-08-15T01:12:43.226Z,9,GR86-062-012,0.2,0.19,0.028,99.91,3.0,,0.0,0.0,
2025-08-15T01:12:43.268Z,9,GR86-062-012,-0.9,0.216,0.008,99.91,3.0,6800.0,0.0,0.0,
2025-08-15T01:12:43.354Z,9,GR86-062-012,-2.0,0.219,-0.02,99.93,3.0,,0.0,0.0,145.36
2025-08-15T01:12:43.397Z,9,GR86-062-012,-2.5,0.219,-0.055,99.91,3.0,,0.0,0.0,
2025-08-15T01:12:43.440Z,9,GR86-062-012,-2.8000000000000003,0.192,-0.089,99.9,3.0,,0.0,0.0,
2025-08-15T01:12:43.484Z,9,GR86-062-012,-3.4000000000000004,0.177,-0.11,99.91,3.0,6855.0,0.0,0.0,
2025-08-15T01:12:43.527Z,9,GR86-062-012,-3.7,0.176,-0.138,99.89,3.0,,0.0,0.0,146.58
2025-08-15T01:12:43.570Z,9,GR86-062-012,-3.9,0.204,-0.164,99.92,3.0,,0.0,0.0,
2025-08-15T01:12:43.614Z,9,GR86-062-012,-4.1000000000000005,0.168,-0.19,99.92,3.0,,0.0,0.0,
2025-08-15T01:12:43.658Z,9,GR86-062-012,-4.1000000000000005,0.179,-0.203,99.91,3.0,,0.0,0.0,
2025-08-15T01:12:43.744Z,9,GR86-062-012,-2.8000000000000003,0.22,-0.216,99.91,3.0,6912.0,0.0,0.0,147.68
2025-08-15T01:12:43.787Z,9,GR86-062-012,-2.2,0.201,-0.214,99.9,3.0,,0.0,0.0,
2025-08-15T01:12:43.830Z,9,GR86-062-012,-1.8,0.169,-0.183,99.9,3.0,,0.0,0.0,
2025-08-15T01:12:43.874Z,9,GR86-062-012,-1.7000000000000002,0.206,-0.182,99.9,3.0,,0.0,0.0,
2025-08-15T01:12:43.917Z,9,GR86-062-012,-1.7000000000000002,0.183,-0.168,99.91,3.0,6965.0,0.0,0.0,
2025-08-15T01:12:43.960Z,9,GR86-062-012,-1.7000000000000002,0.175,-0.137,99.9,3.0,,0.0,0.0,148.89
2025-08-15T01:12:44.004Z,9,GR86-062-012,-1.7000000000000002,0.19,-0.115,99.9,3.0,,0.0,0.0,
2025-08-15T01:12:44.046Z,9,GR86-062-012,-1.7000000000000002,0.198,-0.118,99.89,3.0,,0.0,0.0,
2025-08-15T01:12:44.089Z,9,GR86-062-012,-1.7000000000000002,0.206,-0.135,99.91,3.0,,0.0,0.0,
2025-08-15T01:12:44.134Z,9,GR86-062-012,-1.7000000000000002,0.189,-0.119,99.92,3.0,7016.0,0.0,0.0,
2025-08-15T01:12:44.177Z,9,GR86-062-012,-1.7000000000000002,0.209,-0.119,99.89,3.0,,0.0,0.0,150.03
2025-08-15T01:12:44.220Z,9,GR86-062-012,-1.7000000000000002,0.204,-0.14,99.91,3.0,,0.0,0.0,
2025-08-15T01:12:44.264Z,9,GR86-062-012,-1.7000000000000002,0.189,-0.142,99.91,3.0,,0.0,0.0,
2025-08-15T01:12:44.307Z,9,GR86-062-012,-1.7000000000000002,0.169,-0.145,99.92,3.0,,0.0,0.0,
2025-08-15T01:12:44.350Z,9,GR86-062-012,-1.7000000000000002,0.165,-0.14,99.92,3.0,7075.0,0.0,0.0,
2025-08-15T01:12:44.394Z,9,GR86-062-012,-1.8,0.173,-0.152,99.91,3.0,,0.0,0.0,151.19
2025-08-15T01:12:44.437Z,9,GR86-062-012,-1.8,0.166,-0.138,99.93,3.0,,0.0,0.0,
2025-08-15T01:12:44.480Z,9,GR86-062-012,-1.8,0.177,-0.129,99.92,3.0,,0.0,0.0,
2025-08-15T01:12:44.526Z,9,GR86-062-012,-1.8,0.188,-0.132,99.89,3.0,,0.0,0.0,
2025-08-15T01:12:44.570Z,9,GR86-062-012,-1.8,0.196,-0.14,99.89,3.0,7135.0,0.0,0.0,
2025-08-15T01:12:44.613Z,9,GR86-062-012,-1.8,0.179,-0.136,99.92,3.0,,0.0,0.0,152.36
2025-08-15T01:12:44.658Z,9,GR86-062-012,-1.7000000000000002,0.189,-0.128,99.9,3.0,,0.0,0.0,
2025-08-15T01:12:44.700Z,9,GR86-062-012,-1.6,0.205,-0.135,99.9,3.0,,0.0,0.0,
2025-08-15T01:12:44.744Z,9,GR86-062-012,-1.2000000000000002,0.198,-0.144,99.9,3.0,,0.0,0.0,
2025-08-15T01:12:44.787Z,9,GR86-062-012,-0.9,0.002,-0.131,99.91,3.0,7190.0,0.0,0.0,
2025-08-15T01:12:44.830Z,9,GR86-062-012,-0.8,-0.043,-0.065,99.91,4.0,,0.0,0.0,153.58
2025-08-15T01:12:44.874Z,9,GR86-062-012,-0.3,0.233,-0.166,99.92,4.0,,0.0,0.0,
2025-08-15T01:12:44.917Z,9,GR86-062-012,-0.2,0.306,-0.079,99.92,4.0,,0.0,0.0,
2025-08-15T01:12:44.960Z,9,GR86-062-012,-0.1,0.193,-0.016,99.92,4.0,,0.0,0.0,
2025-08-15T01:12:45.004Z,9,GR86-062-012,0.2,0.031,-0.093,99.9,4.0,7241.0,0.0,0.0,
2025-08-15T01:12:45.046Z,9,GR86-062-012,0.2,0.114,-0.011,99.91,4.0,,0.0,0.0,155.83
2025-08-15T01:12:45.089Z,9,GR86-062-012,0.3,0.218,-0.022,99.91,4.0,,0.0,0.0,
2025-08-15T01:12:45.135Z,9,GR86-062-012,0.6000000000000001,0.141,-0.033,99.9,4.0,,0.0,0.0,
2025-08-15T01:12:45.178Z,9,GR86-062-012,0.9,0.111,0.022,99.89,4.0,,0.0,0.0,
2025-08-15T01:12:45.221Z,9,GR86-062-012,0.9,0.165,-0.001,99.9,4.0,6855.0,0.0,0.0,
2025-08-15T01:12:45.264Z,9,GR86-062-012,0.8,0.193,0.026,99.91,4.0,,0.0,0.0,156.8
2025-08-15T01:12:45.307Z,9,GR86-062-012,0.9,0.166,0.001,99.89,4.0,,0.0,0.0,
2025-08-15T01:12:45.350Z,9,GR86-062-012,0.9,0.144,0.0,99.9,4.0,,0.0,0.0,
2025-08-15T01:12:45.394Z,9,GR86-062-012,0.6000000000000001,0.159,0.002,99.89,4.0,,0.0,0.0,
2025-08-15T01:12:45.437Z,9,GR86-062-012,0.6000000000000001,0.172,-0.001,99.9,4.0,6227.0,0.0,0.0,
2025-08-15T01:12:45.480Z,9,GR86-062-012,0.6000000000000001,0.158,-0.014,99.91,4.0,,0.0,0.0,157.79
2025-08-15T01:12:45.524Z,9,GR86-062-012,-0.2,0.143,-0.011,99.91,4.0,,0.0,0.0,
2025-08-15T01:12:45.566Z,9,GR86-062-012,-1.3,0.144,-0.015,99.9,4.0,,0.0,0.0,
2025-08-15T01:12:45.609Z,9,GR86-062-012,-1.9,0.131,-0.032,99.91,4.0,,0.0,0.0,
2025-08-15T01:12:45.653Z,9,GR86-062-012,-1.9,0.151,-0.083,99.89,4.0,6243.0,0.0,0.0,
2025-08-15T01:12:45.695Z,9,GR86-062-012,-1.8,0.146,-0.078,99.9,4.0,,0.0,0.0,158.57
2025-08-15T01:12:45.738Z,9,GR86-062-012,-1.7000000000000002,0.136,-0.062,99.89,4.0,,0.0,0.0,
2025-08-15T01:12:45.825Z,9,GR86-062-012,-1.7000000000000002,0.135,-0.064,99.91,4.0,,0.0,0.0,
2025-08-15T01:12:45.868Z,9,GR86-062-012,-1.7000000000000002,0.158,-0.113,99.91,4.0,6276.0,0.0,0.0,
2025-08-15T01:12:45.954Z,9,GR86-062-012,-2.0,0.133,-0.086,99.92,4.0,,0.0,0.0,159.43
2025-08-15T01:12:45.997Z,9,GR86-062-012,-2.2,0.152,-0.097,99.89,4.0,,0.0,0.0,
2025-08-15T01:12:46.040Z,9,GR86-062-012,-2.1,0.163,-0.1,99.89,4.0,,0.0,0.0,
2025-08-15T01:12:46.085Z,9,GR86-062-012,-2.0,0.162,-0.099,99.9,4.0,6314.0,0.0,0.0,
2025-08-15T01:12:46.128Z,9,GR86-062-012,-2.0,0.164,-0.115,99.89,4.0,,0.0,0.0,160.34
2025-08-15T01:12:46.171Z,9,GR86-062-012,-1.9,0.154,-0.113,99.91,4.0,,0.0,0.0,
2025-08-15T01:12:46.214Z,9,GR86-062-012,-2.1,0.154,-0.115,99.91,4.0,,0.0,0.0,
2025-08-15T01:12:46.258Z,9,GR86-062-012,-2.1,0.161,-0.121,99.91,4.0,,0.0,0.0,
2025-08-15T01:12:46.300Z,9,GR86-062-012,-2.1,0.159,-0.137,99.92,4.0,6353.0,0.0,0.0,
2025-08-15T01:12:46.344Z,9,GR86-062-012,-2.0,0.162,-0.134,99.9,4.0,,0.0,0.0,161.27
2025-08-15T01:12:46.387Z,9,GR86-062-012,-1.9,0.145,-0.133,99.89,4.0,,0.0,0.0,
2025-08-15T01:12:46.430Z,9,GR86-062-012,-1.9,0.134,-0.127,99.9,4.0,,0.0,0.0,
2025-08-15T01:12:46.475Z,9,GR86-062-012,-1.9,0.164,-0.113,99.9,4.0,,0.0,0.0,
2025-08-15T01:12:46.518Z,9,GR86-062-012,-1.9,0.164,-0.11,99.93,4.0,6379.0,0.0,0.0,
2025-08-15T01:12:46.561Z,9,GR86-062-012,-2.0,0.155,-0.108,99.92,4.0,,0.0,0.0,162.25
2025-08-15T01:12:46.604Z,9,GR86-062-012,-2.2,0.135,-0.113,99.89,4.0,,0.0,0.0,
2025-08-15T01:12:46.647Z,9,GR86-062-012,-2.3000000000000003,0.145,-0.117,99.9,4.0,,0.0,0.0,
2025-08-15T01:12:46.690Z,9,GR86-062-012,-2.3000000000000003,0.129,-0.129,99.89,4.0,,0.0,0.0,
2025-08-15T01:12:46.734Z,9,GR86-062-012,-2.5,0.146,-0.153,99.89,4.0,6414.0,0.0,0.0,
2025-08-15T01:12:46.777Z,9,GR86-062-012,-2.6,0.145,-0.149,99.93,4.0,,0.0,0.0,163.27
2025-08-15T01:12:46.820Z,9,GR86-062-012,-2.6,0.143,-0.177,99.92,4.0,,0.0,0.0,
2025-08-15T01:12:46.864Z,9,GR86-062-012,-2.7,0.132,-0.165,99.89,4.0,,0.0,0.0,
2025-08-15T01:12:46.906Z,9,GR86-062-012,-3.1,0.13,-0.185,99.9,4.0,,0.0,0.0,
2025-08-15T01:12:46.949Z,9,GR86-062-012,-3.4000000000000004,0.135,-0.187,99.92,4.0,6466.0,0.0,0.0,
2025-08-15T01:12:46.993Z,9,GR86-062-012,-3.4000000000000004,0.136,-0.212,99.92,4.0,,0.0,0.0,164.17000000000002
2025-08-15T01:12:47.035Z,9,GR86-062-012,-3.4000000000000004,0.138,-0.201,99.92,4.0,,0.0,0.0,
2025-08-15T01:12:47.078Z,9,GR86-062-012,-3.4000000000000004,0.129,-0.194,99.89,4.0,,0.0,0.0,
2025-08-15T01:12:47.121Z,9,GR86-062-012,-3.3000000000000003,0.128,-0.185,99.89,4.0,,0.0,0.0,
2025-08-15T01:12:47.165Z,9,GR86-062-012,-3.1,0.121,-0.174,99.91,4.0,6497.0,0.0,0.0,
2025-08-15T01:12:47.251Z,9,GR86-062-012,-3.0,0.126,-0.151,99.9,4.0,,0.0,0.0,165.17000000000002
2025-08-15T01:12:47.294Z,9,GR86-062-012,-2.5,0.134,-0.139,99.89,4.0,,0.0,0.0,
2025-08-15T01:12:47.337Z,9,GR86-062-012,-2.4000000000000004,0.124,-0.145,99.89,4.0,,0.0,0.0,
2025-08-15T01:12:47.380Z,9,GR86-062-012,-2.4000000000000004,0.121,-0.112,99.9,4.0,6534.0,0.0,0.0,
2025-08-15T01:12:47.424Z,9,GR86-062-012,-2.4000000000000004,0.121,-0.106,99.92,4.0,,0.0,0.0,166.14
2025-08-15T01:12:47.466Z,9,GR86-062-012,-2.3000000000000003,0.13,-0.097,99.91,4.0,,0.0,0.0,
2025-08-15T01:12:47.509Z,9,GR86-062-012,-2.3000000000000003,0.138,-0.08,99.9,4.0,,0.0,0.0,
2025-08-15T01:12:47.553Z,9,GR86-062-012,-2.3000000000000003,0.148,-0.087,99.9,4.0,,0.0,0.0,
2025-08-15T01:12:47.595Z,9,GR86-062-012,-2.2,0.115,-0.072,99.9,4.0,6576.0,0.0,0.0,
2025-08-15T01:12:47.638Z,9,GR86-062-012,-2.2,0.11,-0.064,99.9,4.0,,0.0,0.0,168.14
2025-08-15T01:12:47.681Z,9,GR86-062-012,-2.1,0.131,-0.067,99.9,4.0,,0.0,0.0,
2025-08-15T01:12:47.726Z,9,GR86-062-012,-2.1,0.118,-0.067,99.89,4.0,,0.0,0.0,
2025-08-15T01:12:47.768Z,9,GR86-062-012,-2.1,0.121,-0.078,99.89,4.0,,0.0,0.0,
2025-08-15T01:12:47.811Z,9,GR86-062-012,-2.1,0.135,-0.079,99.9,4.0,6609.0,0.0,0.0,
2025-08-15T01:12:47.854Z,9,GR86-062-012,-2.1,0.135,-0.101,99.9,4.0,,0.0,0.0,169.15
2025-08-15T01:12:47.897Z,9,GR86-062-012,-2.2,0.128,-0.108,99.9,4.0,,0.0,0.0,
2025-08-15T01:12:47.940Z,9,GR86-062-012,-2.3000000000000003,0.116,-0.118,99.89,4.0,,0.0,0.0,
2025-08-15T01:12:47.984Z,9,GR86-062-012,-2.3000000000000003,0.119,-0.143,99.89,4.0,,0.0,0.0,
2025-08-15T01:12:48.027Z,9,GR86-062-012,-2.4000000000000004,0.119,-0.149,99.89,4.0,6643.0,0.0,0.0,
2025-08-15T01:12:48.070Z,9,GR86-062-012,-2.4000000000000004,0.126,-0.159,99.9,4.0,,0.0,0.0,169.96
2025-08-15T01:12:48.114Z,9,GR86-062-012,-2.3000000000000003,0.15,-0.17,99.9,4.0,,0.0,0.0,
2025-08-15T01:12:48.158Z,9,GR86-062-012,-1.9,0.14,-0.149,99.9,4.0,,0.0,0.0,
2025-08-15T01:12:48.201Z,9,GR86-062-012,-1.6,0.139,-0.126,99.91,4.0,,0.0,0.0,
2025-08-15T01:12:48.244Z,9,GR86-062-012,-1.5,0.131,-0.115,99.91,4.0,6727.0,0.0,0.0,
2025-08-15T01:12:48.287Z,9,GR86-062-012,-1.5,0.131,-0.111,99.9,4.0,,0.0,0.0,170.79
2025-08-15T01:12:48.330Z,9,GR86-062-012,-1.7000000000000002,0.124,-0.119,99.89,4.0,,0.0,0.0,
2025-08-15T01:12:48.374Z,9,GR86-062-012,-2.0,0.152,-0.122,99.9,4.0,,0.0,0.0,
2025-08-15T01:12:48.417Z,9,GR86-062-012,-2.1,0.163,-0.111,99.9,4.0,,0.0,0.0,
2025-08-15T01:12:48.460Z,9,GR86-062-012,-2.1,0.152,-0.127,99.92,4.0,6756.0,0.0,0.0,
2025-08-15T01:12:48.504Z,9,GR86-062-012,-2.1,0.17,-0.109,99.9,4.0,,0.0,0.0,171.88
2025-08-15T01:12:48.546Z,9,GR86-062-012,-2.1,0.134,-0.1,99.91,4.0,,0.0,0.0,
2025-08-15T01:12:48.589Z,9,GR86-062-012,-2.1,0.153,-0.096,99.89,4.0,,0.0,0.0,
2025-08-15T01:12:48.634Z,9,GR86-062-012,-2.1,0.158,-0.112,99.89,4.0,,0.0,0.0,
2025-08-15T01:12:48.678Z,9,GR86-062-012,-2.0,0.143,-0.116,99.91,4.0,6792.0,0.0,0.0,
2025-08-15T01:12:48.721Z,9,GR86-062-012,-2.1,0.158,-0.124,99.91,4.0,,0.0,0.0,172.8
2025-08-15T01:12:48.764Z,9,GR86-062-012,-2.1,0.155,-0.118,99.89,4.0,,0.0,0.0,
2025-08-15T01:12:48.807Z,9,GR86-062-012,-2.1,0.159,-0.105,99.89,4.0,,0.0,0.0,
2025-08-15T01:12:48.850Z,9,GR86-062-012,-2.0,0.148,-0.117,99.89,4.0,,0.0,0.0,
2025-08-15T01:12:48.894Z,9,GR86-062-012,-1.9,0.12,-0.11,99.88,4.0,6832.0,0.0,0.0,
2025-08-15T01:12:48.937Z,9,GR86-062-012,-1.9,0.137,-0.114,99.89,4.0,,0.0,0.0,173.83
2025-08-15T01:12:48.980Z,9,GR86-062-012,-1.9,0.125,-0.108,99.89,4.0,,0.0,0.0,
2025-08-15T01:12:49.027Z,9,GR86-062-012,-1.9,0.134,-0.129,99.92,4.0,,0.0,0.0,
2025-08-15T01:12:49.070Z,9,GR86-062-012,-1.9,0.139,-0.12,99.91,4.0,,0.0,0.0,
2025-08-15T01:12:49.113Z,9,GR86-062-012,-1.9,0.126,-0.107,99.89,4.0,6865.0,0.0,0.0,
2025-08-15T01:12:49.156Z,9,GR86-062-012,-1.9,0.127,-0.09,99.9,4.0,,0.0,0.0,174.65
2025-08-15T01:12:49.199Z,9,GR86-062-012,-1.9,0.127,-0.087,99.88,4.0,,0.0,0.0,
2025-08-15T01:12:49.243Z,9,GR86-062-012,-1.9,0.117,-0.08,99.89,4.0,,0.0,0.0,
2025-08-15T01:12:49.285Z,9,GR86-062-012,-1.9,0.121,-0.08,99.89,4.0,,0.0,0.0,
2025-08-15T01:12:49.328Z,9,GR86-062-012,-1.9,0.116,-0.09,99.9,4.0,6904.0,0.0,0.0,
2025-08-15T01:12:49.371Z,9,GR86-062-012,-1.9,0.14,-0.085,99.89,4.0,,0.0,0.0,175.6
2025-08-15T01:12:49.414Z,9,GR86-062-012,-1.8,0.133,-0.09,99.89,4.0,,0.0,0.0,
2025-08-15T01:12:49.458Z,9,GR86-062-012,-1.7000000000000002,0.127,-0.092,99.9,4.0,,0.0,0.0,
2025-08-15T01:12:49.500Z,9,GR86-062-012,-1.7000000000000002,0.138,-0.086,99.89,4.0,,0.0,0.0,
2025-08-15T01:12:49.545Z,9,GR86-062-012,-1.6,0.133,-0.083,99.88,4.0,6930.0,0.0,0.0,
2025-08-15T01:12:49.588Z,9,GR86-062-012,-1.5,0.122,-0.063,99.9,4.0,,0.0,0.0,176.58
2025-08-15T01:12:49.631Z,9,GR86-062-012,-1.5,0.121,-0.066,99.89,4.0,,0.0,0.0,
2025-08-15T01:12:49.674Z,9,GR86-062-012,-1.5,0.127,-0.051,99.9,4.0,,0.0,0.0,
2025-08-15T01:12:49.717Z,9,GR86-062-012,-1.5,0.125,-0.039,99.89,4.0,,0.0,0.0,
2025-08-15T01:12:49.760Z,9,GR86-062-012,-1.4,0.133,-0.043,99.91,4.0,6964.0,0.0,0.0,
2025-08-15T01:12:49.804Z,9,GR86-062-012,-1.4,0.13,-0.066,99.89,4.0,,0.0,0.0,177.43
2025-08-15T01:12:49.846Z,9,GR86-062-012,-1.4,0.135,-0.085,99.87,4.0,,0.0,0.0,
2025-08-15T01:12:49.889Z,9,GR86-062-012,-1.4,0.126,-0.07,99.89,4.0,,0.0,0.0,
2025-08-15T01:12:49.934Z,9,GR86-062-012,-1.4,0.117,-0.059,99.89,4.0,,0.0,0.0,
2025-08-15T01:12:49.977Z,9,GR86-062-012,-1.3,0.115,-0.062,99.89,4.0,7005.0,0.0,0.0,
2025-08-15T01:12:50.020Z,9,GR86-062-012,-1.3,0.132,-0.058,99.89,4.0,,0.0,0.0,178.33
2025-08-15T01:12:50.064Z,9,GR86-062-012,-1.3,0.104,-0.044,99.89,4.0,,0.0,0.0,
2025-08-15T01:12:50.107Z,9,GR86-062-012,-1.3,0.131,-0.05,99.89,4.0,,0.0,0.0,
2025-08-15T01:12:50.150Z,9,GR86-062-012,-1.2000000000000002,0.116,-0.052,99.89,4.0,,0.0,0.0,
2025-08-15T01:12:50.194Z,9,GR86-062-012,-1.2000000000000002,0.124,-0.043,99.9,4.0,7037.0,0.0,0.0,
2025-08-15T01:12:50.237Z,9,GR86-062-012,-1.2000000000000002,0.145,-0.042,99.89,4.0,,0.0,0.0,180.03
2025-08-15T01:12:50.280Z,9,GR86-062-012,-1.1,0.128,-0.046,99.89,4.0,,0.0,0.0,
2025-08-15T01:12:50.324Z,9,GR86-062-012,-1.1,0.143,-0.048,99.91,4.0,,0.0,0.0,
2025-08-15T01:12:50.366Z,9,GR86-062-012,-1.1,0.129,-0.052,99.89,4.0,,0.0,0.0,
2025-08-15T01:12:50.409Z,9,GR86-062-012,-1.2000000000000002,0.123,-0.06,99.9,4.0,7077.0,0.0,0.0,
2025-08-15T01:12:50.453Z,9,GR86-062-012,-1.1,0.103,-0.061,99.89,4.0,,0.0,0.0,180.83
2025-08-15T01:12:50.495Z,9,GR86-062-012,-1.0,0.12,-0.061,99.89,4.0,,0.0,0.0,
2025-08-15T01:12:50.538Z,9,GR86-062-012,-1.0,0.112,-0.057,99.89,4.0,,0.0,0.0,
2025-08-15T01:12:50.581Z,9,GR86-062-012,-1.0,0.095,-0.061,99.89,4.0,,0.0,0.0,
2025-08-15T01:12:50.625Z,9,GR86-062-012,-1.1,0.118,-0.065,99.91,4.0,7098.0,0.0,0.0,
2025-08-15T01:12:50.667Z,9,GR86-062-012,-1.4,0.096,-0.085,99.91,4.0,,0.0,0.0,181.63
2025-08-15T01:12:50.710Z,9,GR86-062-012,-1.5,0.102,-0.091,99.89,4.0,,0.0,0.0,
2025-08-15T01:12:50.754Z,9,GR86-062-012,-1.6,0.141,-0.094,99.89,4.0,,0.0,0.0,
2025-08-15T01:12:50.797Z,9,GR86-062-012,-1.6,0.149,-0.098,99.88,4.0,,0.0,0.0,
2025-08-15T01:12:50.840Z,9,GR86-062-012,-1.6,0.115,-0.097,99.89,4.0,7167.0,0.0,0.0,
2025-08-15T01:12:50.884Z,9,GR86-062-012,-1.5,0.135,-0.113,99.89,4.0,,0.0,0.0,182.39
2025-08-15T01:12:50.927Z,9,GR86-062-012,-1.4,0.135,-0.097,99.91,4.0,,0.0,0.0,
2025-08-15T01:12:50.970Z,9,GR86-062-012,-1.2000000000000002,0.138,-0.105,99.89,4.0,,0.0,0.0,
2025-08-15T01:12:51.017Z,9,GR86-062-012,-1.2000000000000002,0.127,-0.073,99.9,4.0,,0.0,0.0,
2025-08-15T01:12:51.060Z,9,GR86-062-012,-1.2000000000000002,0.101,-0.059,99.9,4.0,7198.0,0.0,0.0,
2025-08-15T01:12:51.104Z,9,GR86-062-012,-1.3,0.106,-0.028,99.89,4.0,,0.0,0.0,183.22
2025-08-15T01:12:51.146Z,9,GR86-062-012,-1.3,0.101,-0.023,99.88,4.0,,0.0,0.0,
2025-08-15T01:12:51.189Z,9,GR86-062-012,-1.3,0.108,-0.053,99.89,4.0,,0.0,0.0,
2025-08-15T01:12:51.234Z,9,GR86-062-012,-1.9,0.115,-0.064,99.89,4.0,,0.0,0.0,
2025-08-15T01:12:51.277Z,9,GR86-062-012,-2.1,0.136,-0.079,99.89,4.0,7231.0,0.0,0.0,
2025-08-15T01:12:51.320Z,9,GR86-062-012,-2.1,0.123,-0.098,99.89,4.0,,0.0,0.0,184.12
2025-08-15T01:12:51.364Z,9,GR86-062-012,-1.9,0.129,-0.1,99.9,4.0,,0.0,0.0,
2025-08-15T01:12:51.406Z,9,GR86-062-012,-1.6,0.124,-0.1,99.9,4.0,,0.0,0.0,
2025-08-15T01:12:51.449Z,9,GR86-062-012,-1.5,0.112,-0.109,99.9,4.0,,0.0,0.0,
2025-08-15T01:12:51.493Z,9,GR86-062-012,-1.5,0.115,-0.111,99.92,4.0,7265.0,0.0,0.0,
2025-08-15T01:12:51.535Z,9,GR86-062-012,-1.4,0.093,-0.111,99.89,4.0,,0.0,0.0,184.75
2025-08-15T01:12:51.578Z,9,GR86-062-012,-1.4,0.09,-0.113,99.89,4.0,,0.0,0.0,
2025-08-15T01:12:51.621Z,9,GR86-062-012,-1.4,0.052,-0.114,99.88,4.0,,0.0,0.0,
2025-08-15T01:12:51.665Z,9,GR86-062-012,-1.4,-0.141,-0.095,99.9,5.0,,0.0,0.0,
2025-08-15T01:12:51.708Z,9,GR86-062-012,-1.4,0.424,-0.081,99.9,5.0,7282.0,0.0,0.0,
2025-08-15T01:12:51.751Z,9,GR86-062-012,-1.2000000000000002,0.245,-0.177,99.91,5.0,,0.0,0.0,185.56
2025-08-15T01:12:51.794Z,9,GR86-062-012,-1.0,0.046,-0.009,99.89,5.0,,0.0,0.0,
2025-08-15T01:12:51.837Z,9,GR86-062-012,-1.5,-0.024,-0.099,99.88,5.0,,0.0,0.0,
2025-08-15T01:12:51.880Z,9,GR86-062-012,-2.0,0.119,-0.1,99.89,5.0,,0.0,0.0,
2025-08-15T01:12:51.924Z,9,GR86-062-012,-2.1,0.147,-0.067,99.89,5.0,7210.0,0.0,0.0,
2025-08-15T01:12:51.966Z,9,GR86-062-012,-2.1,0.061,-0.14,99.9,5.0,,0.0,0.0,186.21
2025-08-15T01:12:52.009Z,9,GR86-062-012,-2.1,0.062,-0.095,99.88,5.0,,0.0,0.0,
2025-08-15T01:12:52.053Z,9,GR86-062-012,-2.0,0.127,-0.121,99.89,5.0,,0.0,0.0,
2025-08-15T01:12:52.095Z,9,GR86-062-012,-1.7000000000000002,0.108,-0.125,99.9,5.0,,0.0,0.0,
2025-08-15T01:12:52.138Z,9,GR86-062-012,-1.3,0.077,-0.117,99.89,5.0,6305.0,0.0,0.0,
2025-08-15T01:12:52.181Z,9,GR86-062-012,-0.9,0.1,-0.128,99.89,5.0,,0.0,0.0,186.9
2025-08-15T01:12:52.225Z,9,GR86-062-012,-0.5,0.107,-0.098,99.89,5.0,,0.0,0.0,
2025-08-15T01:12:52.268Z,9,GR86-062-012,0.2,0.083,-0.074,99.89,5.0,,0.0,0.0,
2025-08-15T01:12:52.311Z,9,GR86-062-012,0.5,0.094,-0.05,99.88,5.0,,0.0,0.0,
2025-08-15T01:12:52.354Z,9,GR86-062-012,0.7000000000000001,0.129,-0.016,99.91,5.0,6410.0,0.0,0.0,
2025-08-15T01:12:52.397Z,9,GR86-062-012,0.7000000000000001,0.115,-0.005,99.91,5.0,,0.0,0.0,187.75
2025-08-15T01:12:52.440Z,9,GR86-062-012,0.5,0.115,0.001,99.89,5.0,,0.0,0.0,
2025-08-15T01:12:52.484Z,9,GR86-062-012,0.5,0.114,0.026,99.89,5.0,,0.0,0.0,
2025-08-15T01:12:52.527Z,9,GR86-062-012,0.5,0.123,0.016,99.89,5.0,,0.0,0.0,
2025-08-15T01:12:52.570Z,9,GR86-062-012,0.5,0.107,0.033,99.89,5.0,6405.0,0.0,0.0,
2025-08-15T01:12:52.614Z,9,GR86-062-012,0.4,0.11,0.022,99.91,5.0,,0.0,0.0,188.34
2025-08-15T01:12:52.658Z,9,GR86-062-012,0.3,0.112,-0.003,99.9,5.0,,0.0,0.0,
2025-08-15T01:12:52.701Z,9,GR86-062-012,0.2,0.114,-0.015,99.88,5.0,,0.0,0.0,
2025-08-15T01:12:52.745Z,9,GR86-062-012,0.2,0.118,-0.025,99.89,5.0,,0.0,0.0,
2025-08-15T01:12:52.788Z,9,GR86-062-012,0.1,0.125,-0.036,99.89,5.0,6435.0,0.0,0.0,
2025-08-15T01:12:52.831Z,9,GR86-062-012,0.0,0.115,-0.037,99.9,5.0,,0.0,0.0,189.07
2025-08-15T01:12:52.874Z,9,GR86-062-012,-0.1,0.089,-0.055,99.9,5.0,,0.0,0.0,
2025-08-15T01:12:52.960Z,9,GR86-062-012,-0.1,0.082,-0.056,99.9,5.0,,0.0,0.0,
2025-08-15T01:12:53.004Z,9,GR86-062-012,-0.1,0.098,-0.051,99.89,5.0,6456.0,0.0,0.0,
2025-08-15T01:12:53.046Z,9,GR86-062-012,-0.1,0.093,-0.052,99.9,5.0,,0.0,0.0,190.37
2025-08-15T01:12:53.089Z,9,GR86-062-012,0.0,0.096,-0.052,99.89,5.0,,0.0,0.0,
2025-08-15T01:12:53.134Z,9,GR86-062-012,0.2,0.097,-0.049,99.89,5.0,,0.0,0.0,
2025-08-15T01:12:53.177Z,9,GR86-062-012,0.2,0.09,-0.047,99.88,5.0,,0.0,0.0,
2025-08-15T01:12:53.220Z,9,GR86-062-012,0.2,0.095,-0.054,99.9,5.0,6482.0,0.0,0.0,
2025-08-15T01:12:53.265Z,9,GR86-062-012,0.2,0.081,-0.042,99.9,5.0,,0.0,0.0,191.14
2025-08-15T01:12:53.308Z,9,GR86-062-012,0.3,0.092,-0.028,99.89,5.0,,0.0,0.0,
2025-08-15T01:12:53.351Z,9,GR86-062-012,0.3,0.099,-0.019,99.89,5.0,,0.0,0.0,
2025-08-15T01:12:53.394Z,9,GR86-062-012,0.3,0.105,0.0,99.89,5.0,,0.0,0.0,
2025-08-15T01:12:53.437Z,9,GR86-062-012,0.3,0.099,0.003,99.89,5.0,6528.0,0.0,0.0,
2025-08-15T01:12:53.480Z,9,GR86-062-012,0.3,0.101,-0.009,99.9,5.0,,0.0,0.0,191.75
2025-08-15T01:12:53.526Z,9,GR86-062-012,0.3,0.105,-0.008,99.89,5.0,,0.0,0.0,
2025-08-15T01:12:53.570Z,9,GR86-062-012,0.3,0.101,-0.026,99.9,5.0,,0.0,0.0,
2025-08-15T01:12:53.613Z,9,GR86-062-012,0.3,0.115,-0.029,99.89,5.0,,0.0,0.0,
2025-08-15T01:12:53.658Z,9,GR86-062-012,0.3,0.115,-0.043,99.89,5.0,6546.0,0.0,0.0,
2025-08-15T01:12:53.700Z,9,GR86-062-012,0.2,0.082,-0.037,99.9,5.0,,0.0,0.0,192.55
2025-08-15T01:12:53.745Z,9,GR86-062-012,0.2,0.106,-0.021,99.89,5.0,,0.0,0.0,
2025-08-15T01:12:53.788Z,9,GR86-062-012,0.2,0.098,-0.03,99.89,5.0,,0.0,0.0,
2025-08-15T01:12:53.831Z,9,GR86-062-012,0.2,0.084,-0.043,99.89,5.0,,0.0,0.0,
2025-08-15T01:12:53.874Z,9,GR86-062-012,0.2,0.106,-0.038,99.89,5.0,6571.0,0.0,0.0,
2025-08-15T01:12:53.917Z,9,GR86-062-012,0.2,0.104,-0.034,99.89,5.0,,0.0,0.0,193.15
2025-08-15T01:12:53.960Z,9,GR86-062-012,0.2,0.083,-0.045,99.89,5.0,,0.0,0.0,
2025-08-15T01:12:54.004Z,9,GR86-062-012,0.2,0.103,-0.043,99.9,5.0,,0.0,0.0,
2025-08-15T01:12:54.046Z,9,GR86-062-012,0.2,0.107,-0.024,99.89,5.0,,0.0,0.0,
2025-08-15T01:12:54.089Z,9,GR86-062-012,0.2,0.099,-0.026,99.89,5.0,6594.0,0.0,0.0,
2025-08-15T01:12:54.134Z,9,GR86-062-012,0.2,0.099,-0.007,99.89,5.0,,0.0,0.0,193.83
2025-08-15T01:12:54.177Z,9,GR86-062-012,0.2,0.108,-0.004,99.9,5.0,,0.0,0.0,
2025-08-15T01:12:54.220Z,9,GR86-062-012,0.3,0.099,0.003,99.89,5.0,,0.0,0.0,
2025-08-15T01:12:54.264Z,9,GR86-062-012,0.4,0.105,-0.006,99.89,5.0,,0.0,0.0,
2025-08-15T01:12:54.306Z,9,GR86-062-012,0.5,0.105,0.004,99.89,5.0,6623.0,0.0,0.0,
2025-08-15T01:12:54.349Z,9,GR86-062-012,0.9,0.107,0.01,99.9,5.0,,0.0,0.0,194.43
2025-08-15T01:12:54.393Z,9,GR86-062-012,1.1,0.103,0.024,99.89,5.0,,0.0,0.0,
2025-08-15T01:12:54.435Z,9,GR86-062-012,1.2000000000000002,0.101,0.013,99.89,5.0,,0.0,0.0,
2025-08-15T01:12:54.478Z,9,GR86-062-012,1.2000000000000002,0.095,0.012,99.89,5.0,,0.0,0.0,
2025-08-15T01:12:54.521Z,9,GR86-062-012,1.3,0.113,0.021,99.9,5.0,6632.0,0.0,0.0,
2025-08-15T01:12:54.565Z,9,GR86-062-012,1.4,0.097,0.035,99.89,5.0,,0.0,0.0,195.08
2025-08-15T01:12:54.608Z,9,GR86-062-012,1.5,0.099,0.052,99.89,5.0,,0.0,0.0,
2025-08-15T01:12:54.651Z,9,GR86-062-012,1.7000000000000002,0.112,0.062,99.9,5.0,,0.0,0.0,
2025-08-15T01:12:54.694Z,9,GR86-062-012,1.8,0.099,0.054,99.9,5.0,,0.0,0.0,
2025-08-15T01:12:54.737Z,9,GR86-062-012,1.8,0.101,0.059,99.89,5.0,6658.0,0.0,0.0,
2025-08-15T01:12:54.780Z,9,GR86-062-012,1.8,0.1,0.062,99.89,5.0,,0.0,0.0,195.69
2025-08-15T01:12:54.824Z,9,GR86-062-012,1.8,0.096,0.067,99.89,5.0,,0.0,0.0,
2025-08-15T01:12:54.866Z,9,GR86-062-012,1.9,0.114,0.077,99.89,5.0,,0.0,0.0,
2025-08-15T01:12:54.909Z,9,GR86-062-012,1.9,0.104,0.075,99.9,5.0,,0.0,0.0,
2025-08-15T01:12:54.953Z,9,GR86-062-012,2.1,0.083,0.06,99.89,5.0,6683.0,0.0,0.0,
2025-08-15T01:12:54.995Z,9,GR86-062-012,2.1,0.106,0.066,99.89,5.0,,0.0,0.0,196.27
2025-08-15T01:12:55.038Z,9,GR86-062-012,2.1,0.102,0.086,99.89,5.0,,0.0,0.0,
2025-08-15T01:12:55.081Z,9,GR86-062-012,2.1,0.115,0.114,99.89,5.0,,0.0,0.0,
2025-08-15T01:12:55.124Z,9,GR86-062-012,2.1,0.11,0.097,99.89,5.0,,0.0,0.0,
2025-08-15T01:12:55.167Z,9,GR86-062-012,2.1,0.094,0.097,99.89,5.0,6699.0,0.0,0.0,
2025-08-15T01:12:55.210Z,9,GR86-062-012,2.2,0.104,0.081,99.89,5.0,,0.0,0.0,196.94
2025-08-15T01:12:55.254Z,9,GR86-062-012,2.3000000000000003,0.105,0.073,99.89,5.0,,0.0,0.0,
2025-08-15T01:12:55.297Z,9,GR86-062-012,2.3000000000000003,0.106,0.076,99.9,5.0,,0.0,0.0,
2025-08-15T01:12:55.340Z,9,GR86-062-012,2.3000000000000003,0.107,0.075,99.89,5.0,,0.0,0.0,
2025-08-15T01:12:55.385Z,9,GR86-062-012,2.5,0.089,0.093,99.89,5.0,6722.0,0.0,0.0,
2025-08-15T01:12:55.428Z,9,GR86-062-012,3.2,0.101,0.101,99.9,5.0,,0.0,0.0,197.56
2025-08-15T01:12:55.471Z,9,GR86-062-012,3.4000000000000004,0.092,0.097,99.91,5.0,,0.0,0.0,
2025-08-15T01:12:55.514Z,9,GR86-062-012,3.6,0.116,0.101,99.89,5.0,,0.0,0.0,
2025-08-15T01:12:55.557Z,9,GR86-062-012,3.6,0.104,0.111,99.88,5.0,,0.0,0.0,
2025-08-15T01:12:55.600Z,9,GR86-062-012,3.7,0.1,0.146,99.89,5.0,6745.0,0.0,0.0,
2025-08-15T01:12:55.644Z,9,GR86-062-012,3.7,0.105,0.157,99.88,5.0,,0.0,0.0,198.92
2025-08-15T01:12:55.686Z,9,GR86-062-012,3.7,0.083,0.16,99.89,5.0,,0.0,0.0,
2025-08-15T01:12:55.729Z,9,GR86-062-012,3.7,0.098,0.152,99.89,5.0,,0.0,0.0,
2025-08-15T01:12:55.775Z,9,GR86-062-012,3.9,0.119,0.161,99.89,5.0,,0.0,0.0,
2025-08-15T01:12:55.818Z,9,GR86-062-012,4.4,0.096,0.162,99.89,5.0,6776.0,0.0,0.0,
2025-08-15T01:12:55.861Z,9,GR86-062-012,4.6000000000000005,0.104,0.171,99.89,5.0,,0.0,0.0,199.61
2025-08-15T01:12:55.904Z,9,GR86-062-012,4.7,0.088,0.169,99.88,5.0,,0.0,0.0,
2025-08-15T01:12:55.947Z,9,GR86-062-012,4.7,0.083,0.171,99.89,5.0,,0.0,0.0,
2025-08-15T01:12:55.990Z,9,GR86-062-012,4.7,0.104,0.177,99.89,5.0,,0.0,0.0,
2025-08-15T01:12:56.034Z,9,GR86-062-012,4.7,0.088,0.199,99.88,5.0,6817.0,0.0,0.0,
2025-08-15T01:12:56.077Z,9,GR86-062-012,5.0,0.078,0.203,99.89,5.0,,0.0,0.0,200.36
2025-08-15T01:12:56.120Z,9,GR86-062-012,5.5,0.08,0.229,99.89,5.0,,0.0,0.0,
2025-08-15T01:12:56.164Z,9,GR86-062-012,5.7,0.089,0.23,99.89,5.0,,0.0,0.0,
2025-08-15T01:12:56.249Z,9,GR86-062-012,5.9,0.1,0.242,99.9,5.0,6838.0,0.0,0.0,
2025-08-15T01:12:56.293Z,9,GR86-062-012,6.6000000000000005,0.087,0.268,99.89,5.0,,0.0,0.0,201.0
2025-08-15T01:12:56.335Z,9,GR86-062-012,6.7,0.102,0.289,99.89,5.0,,0.0,0.0,
2025-08-15T01:12:56.378Z,9,GR86-062-012,6.800000000000001,0.091,0.289,99.89,5.0,,0.0,0.0,
2025-08-15T01:12:56.421Z,9,GR86-062-012,6.800000000000001,0.103,0.31,99.88,5.0,,0.0,0.0,
2025-08-15T01:12:56.464Z,9,GR86-062-012,6.800000000000001,0.11,0.314,99.89,5.0,6853.0,0.0,0.0,
2025-08-15T01:12:56.507Z,9,GR86-062-012,6.800000000000001,0.105,0.314,99.89,5.0,,0.0,0.0,201.63
2025-08-15T01:12:56.550Z,9,GR86-062-012,6.800000000000001,0.094,0.317,99.89,5.0,,0.0,0.0,
2025-08-15T01:12:56.594Z,9,GR86-062-012,6.800000000000001,0.099,0.313,99.89,5.0,,0.0,0.0,
2025-08-15T01:12:56.637Z,9,GR86-062-012,6.800000000000001,0.109,0.32,99.89,5.0,,0.0,0.0,
2025-08-15T01:12:56.680Z,9,GR86-062-012,6.7,0.102,0.313,99.88,5.0,6875.0,0.0,0.0,
2025-08-15T01:12:56.724Z,9,GR86-062-012,6.300000000000001,0.084,0.318,99.89,5.0,,0.0,0.0,202.23
2025-08-15T01:12:56.766Z,9,GR86-062-012,5.2,0.092,0.3,99.88,5.0,,0.0,0.0,
2025-08-15T01:12:56.809Z,9,GR86-062-012,3.4000000000000004,0.079,0.29,99.9,5.0,,0.0,0.0,
2025-08-15T01:12:56.853Z,9,GR86-062-012,2.4000000000000004,0.096,0.218,99.89,5.0,,0.0,0.0,
2025-08-15T01:12:56.895Z,9,GR86-062-012,2.4000000000000004,0.078,0.19,99.89,5.0,6900.0,0.0,0.0,
2025-08-15T01:12:56.938Z,9,GR86-062-012,3.4000000000000004,0.084,0.178,99.88,5.0,,0.0,0.0,202.76
2025-08-15T01:12:56.981Z,9,GR86-062-012,4.7,0.076,0.165,99.87,5.0,,0.0,0.0,
2025-08-15T01:12:57.024Z,9,GR86-062-012,5.7,0.073,0.141,99.87,5.0,,0.0,0.0,
2025-08-15T01:12:57.069Z,9,GR86-062-012,6.4,0.097,0.13,99.89,5.0,,0.0,0.0,
2025-08-15T01:12:57.113Z,9,GR86-062-012,6.800000000000001,0.08,0.182,99.88,5.0,6917.0,0.0,0.0,
2025-08-15T01:12:57.155Z,9,GR86-062-012,6.800000000000001,0.083,0.21,99.89,5.0,,0.0,0.0,203.21
2025-08-15T01:12:57.198Z,9,GR86-062-012,6.9,0.093,0.224,99.87,5.0,,0.0,0.0,
2025-08-15T01:12:57.241Z,9,GR86-062-012,6.9,0.111,0.256,99.88,5.0,,0.0,0.0,
2025-08-15T01:12:57.284Z,9,GR86-062-012,6.9,0.111,0.282,99.89,5.0,,0.0,0.0,
2025-08-15T01:12:57.327Z,9,GR86-062-012,6.9,0.103,0.31,99.88,5.0,6937.0,0.0,0.0,
2025-08-15T01:12:57.370Z,9,GR86-062-012,6.9,0.102,0.321,99.88,5.0,,0.0,0.0,203.93
2025-08-15T01:12:57.414Z,9,GR86-062-012,6.4,0.11,0.342,99.89,5.0,,0.0,0.0,
2025-08-15T01:12:57.458Z,9,GR86-062-012,5.800000000000001,0.101,0.333,99.89,5.0,,0.0,0.0,
2025-08-15T01:12:57.500Z,9,GR86-062-012,5.6000000000000005,0.095,0.316,99.89,5.0,,0.0,0.0,
2025-08-15T01:12:57.545Z,9,GR86-062-012,5.6000000000000005,0.072,0.319,99.89,5.0,6969.0,0.0,0.0,
2025-08-15T01:12:57.631Z,9,GR86-062-012,5.6000000000000005,0.084,0.321,99.88,5.0,,0.0,0.0,204.45
2025-08-15T01:12:57.674Z,9,GR86-062-012,5.6000000000000005,0.08,0.256,99.89,5.0,,0.0,0.0,
2025-08-15T01:12:57.717Z,9,GR86-062-012,5.9,0.068,0.251,99.87,5.0,,0.0,0.0,
2025-08-15T01:12:57.760Z,9,GR86-062-012,6.300000000000001,0.076,0.253,99.89,5.0,6981.0,0.0,0.0,
2025-08-15T01:12:57.804Z,9,GR86-062-012,6.6000000000000005,0.076,0.272,99.87,5.0,,0.0,0.0,205.2
2025-08-15T01:12:57.846Z,9,GR86-062-012,7.0,0.09,0.283,99.87,5.0,,0.0,0.0,
2025-08-15T01:12:57.889Z,9,GR86-062-012,7.4,0.086,0.323,99.9,5.0,,0.0,0.0,
2025-08-15T01:12:57.934Z,9,GR86-062-012,7.6,0.071,0.367,99.9,5.0,,0.0,0.0,
2025-08-15T01:12:57.977Z,9,GR86-062-012,7.7,0.087,0.404,99.87,5.0,7006.0,0.0,0.0,
2025-08-15T01:12:58.020Z,9,GR86-062-012,7.7,0.11,0.389,99.89,5.0,,0.0,0.0,205.71
2025-08-15T01:12:58.066Z,9,GR86-062-012,7.7,0.097,0.402,99.88,5.0,,0.0,0.0,
2025-08-15T01:12:58.108Z,9,GR86-062-012,7.800000000000001,0.086,0.363,96.04,5.0,,0.0,0.0,
2025-08-15T01:12:58.151Z,9,GR86-062-012,8.0,0.058,0.339,82.41,5.0,,0.0,0.0,
2025-08-15T01:12:58.194Z,9,GR86-062-012,8.1,0.085,0.33,77.51,5.0,7038.0,0.0,0.0,
2025-08-15T01:12:58.237Z,9,GR86-062-012,8.1,0.091,0.346,74.5,5.0,,0.0,0.0,207.2
2025-08-15T01:12:58.280Z,9,GR86-062-012,8.200000000000001,0.067,0.367,67.46000000000001,5.0,,0.0,0.0,
2025-08-15T01:12:58.326Z,9,GR86-062-012,8.200000000000001,0.056,0.391,60.77,5.0,,0.0,0.0,
2025-08-15T01:12:58.370Z,9,GR86-062-012,8.200000000000001,0.045,0.418,53.82,5.0,,0.0,0.0,
2025-08-15T01:12:58.413Z,9,GR86-062-012,8.200000000000001,0.047,0.407,33.49,5.0,7047.0,0.0,0.0,
2025-08-15T01:12:58.457Z,9,GR86-062-012,8.200000000000001,0.029,0.43,5.46,5.0,,0.0,0.0,207.62
2025-08-15T01:12:58.501Z,9,GR86-062-012,8.200000000000001,0.003,0.422,4.0,5.0,,0.0,0.0,
2025-08-15T01:12:58.544Z,9,GR86-062-012,8.200000000000001,-0.132,0.398,3.87,5.0,,0.0,0.0,
2025-08-15T01:12:58.587Z,9,GR86-062-012,8.200000000000001,-0.181,0.38,3.7,5.0,,0.0,0.0,
2025-08-15T01:12:58.630Z,9,GR86-062-012,8.1,-0.326,0.3,3.5500000000000003,5.0,7082.0,0.0,0.0,
2025-08-15T01:12:58.674Z,9,GR86-062-012,7.0,-0.092,0.309,3.22,5.0,,0.0,0.0,208.33
2025-08-15T01:12:58.717Z,9,GR86-062-012,5.9,-0.147,0.243,2.97,5.0,,0.0,0.0,
2025-08-15T01:12:58.760Z,9,GR86-062-012,4.800000000000001,-0.217,0.232,2.66,5.0,,0.0,0.0,
2025-08-15T01:12:58.804Z,9,GR86-062-012,4.2,-0.184,0.216,2.47,5.0,,0.0,0.0,
2025-08-15T01:12:58.846Z,9,GR86-062-012,3.8,-0.178,0.174,2.39,5.0,6971.0,0.0,0.0,
2025-08-15T01:12:58.889Z,9,GR86-062-012,3.8,-0.215,0.172,2.36,5.0,,9.37,9.75,208.8
2025-08-15T01:12:58.934Z,9,GR86-062-012,3.8,-0.428,0.136,2.36,5.0,,29.025,29.36,
2025-08-15T01:12:58.977Z,9,GR86-062-012,3.8,-0.74,0.117,2.36,5.0,,44.225,44.16,
2025-08-15T01:12:59.020Z,9,GR86-062-012,3.8,-0.921,0.1,2.37,5.0,,52.71,52.465,
2025-08-15T01:12:59.064Z,9,GR86-062-012,3.8,-0.979,0.095,2.37,5.0,6962.0,55.67,55.575,
2025-08-15T01:12:59.106Z,9,GR86-062-012,4.6000000000000005,-1.037,0.103,2.38,5.0,,60.55,60.17,207.69
2025-08-15T01:12:59.149Z,9,GR86-062-012,5.4,-1.118,0.129,2.39,5.0,,65.495,64.99,
2025-08-15T01:12:59.193Z,9,GR86-062-012,5.800000000000001,-1.198,0.171,2.4,5.0,,68.03,67.725,
2025-08-15T01:12:59.235Z,9,GR86-062-012,5.300000000000001,-1.193,0.195,2.43,5.0,,71.43,70.96000000000001,
2025-08-15T01:12:59.278Z,9,GR86-062-012,4.1000000000000005,-1.214,0.199,2.44,5.0,6753.0,73.815,73.4,
2025-08-15T01:12:59.321Z,9,GR86-062-012,3.6,-1.147,0.196,2.44,5.0,,75.81,75.34,205.64
2025-08-15T01:12:59.364Z,9,GR86-062-012,1.8,-1.269,0.228,2.44,5.0,,80.025,79.4,
2025-08-15T01:12:59.407Z,9,GR86-062-012,-1.0,-1.302,0.244,2.44,5.0,,82.77,82.235,
2025-08-15T01:12:59.450Z,9,GR86-062-012,-4.3,-1.281,0.225,20.24,5.0,,85.275,85.44,
2025-08-15T01:12:59.494Z,9,GR86-062-012,-6.2,-1.453,0.272,42.06,4.0,6339.0,92.615,94.795,
2025-08-15T01:12:59.537Z,9,GR86-062-012,-6.5,-1.433,0.244,5.63,4.0,,96.64,99.175,198.56
2025-08-15T01:12:59.580Z,9,GR86-062-012,-7.2,-1.494,0.367,4.8100000000000005,4.0,,99.145,101.675,
2025-08-15T01:12:59.624Z,9,GR86-062-012,-9.8,-1.365,0.423,4.17,4.0,,100.245,102.58,
2025-08-15T01:12:59.666Z,9,GR86-062-012,-17.6,-1.214,0.457,3.87,4.0,,89.605,91.835,
2025-08-15T01:12:59.709Z,9,GR86-062-012,-26.5,-0.974,0.453,3.67,4.0,5652.0,67.725,68.99,
2025-08-15T01:12:59.753Z,9,GR86-062-012,-31.4,-0.924,0.371,3.41,4.0,,54.525,55.915,189.16
2025-08-15T01:12:59.795Z,9,GR86-062-012,-31.200000000000003,-0.944,0.434,3.18,4.0,,51.93,52.525,
2025-08-15T01:12:59.838Z,9,GR86-062-012,-27.200000000000003,-1.031,0.366,2.91,4.0,,53.775,54.555,
2025-08-15T01:12:59.881Z,9,GR86-062-012,-20.5,-1.04,0.358,2.69,4.0,,60.58,61.68,
2025-08-15T01:12:59.925Z,9,GR86-062-012,-14.8,-1.014,0.251,2.51,4.0,6041.0,64.06,64.72,
2025-08-15T01:12:59.968Z,9,GR86-062-012,-11.2,-1.215,0.07,2.4,4.0,,70.685,70.99,182.41
2025-08-15T01:13:00.011Z,9,GR86-062-012,-5.1000000000000005,-1.273,-0.102,2.37,4.0,,78.925,79.11,
2025-08-15T01:13:00.054Z,9,GR86-062-012,10.5,-1.23,-0.166,2.34,4.0,,87.09,88.08,
2025-08-15T01:13:00.097Z,9,GR86-062-012,20.3,-1.254,-0.237,6.3500000000000005,4.0,,90.585,92.155,
2025-08-15T01:13:00.140Z,9,GR86-062-012,25.3,-1.347,-0.18,46.42,4.0,6471.0,89.775,90.415,
2025-08-15T01:13:00.185Z,9,GR86-062-012,25.8,-1.383,-0.051,91.05,4.0,,88.675,89.33,174.64
2025-08-15T01:13:00.228Z,9,GR86-062-012,22.1,-1.285,-0.014,99.89,4.0,,91.225,92.905,
2025-08-15T01:13:00.271Z,9,GR86-062-012,17.8,-1.322,-0.204,92.01,3.0,,89.96000000000001,90.555,
2025-08-15T01:13:00.314Z,9,GR86-062-012,15.1,-1.383,-0.012,3.87,3.0,,88.25,89.455,
2025-08-15T01:13:00.357Z,9,GR86-062-012,13.4,-1.273,0.019,3.52,3.0,6239.0,90.265,91.835,
2025-08-15T01:13:00.400Z,9,GR86-062-012,12.6,-1.212,0.005,3.31,3.0,,89.455,90.2,166.62
2025-08-15T01:13:00.444Z,9,GR86-062-012,10.5,-1.338,0.24,3.09,3.0,,89.635,90.645,
2025-08-15T01:13:00.486Z,9,GR86-062-012,5.1000000000000005,-1.374,0.234,2.85,3.0,,93.21,95.055,
2025-08-15T01:13:00.529Z,9,GR86-062-012,-0.6000000000000001,-1.375,0.303,2.69,3.0,,94.61,95.51,
2025-08-15T01:13:00.576Z,9,GR86-062-012,-6.300000000000001,-1.319,0.28,6.62,3.0,5899.0,96.395,97.91,
2025-08-15T01:13:00.663Z,9,GR86-062-012,-10.2,-1.202,0.381,57.45,2.0,,94.245,95.68,158.89
2025-08-15T01:13:00.706Z,9,GR86-062-012,-9.8,-1.223,0.225,4.87,2.0,,95.055,96.61,
2025-08-15T01:13:00.749Z,9,GR86-062-012,-5.1000000000000005,-1.207,0.314,4.16,2.0,,84.86,86.58500000000001,
2025-08-15T01:13:00.793Z,9,GR86-062-012,-3.0,-1.226,0.351,3.73,2.0,6129.0,77.015,77.61,
2025-08-15T01:13:00.835Z,9,GR86-062-012,-5.2,-1.21,0.378,3.56,2.0,,77.46000000000001,78.955,140.71
2025-08-15T01:13:00.878Z,9,GR86-062-012,-6.1000000000000005,-1.385,0.293,3.38,2.0,,76.68,78.025,
2025-08-15T01:13:00.921Z,9,GR86-062-012,-6.2,-1.324,0.314,3.17,2.0,,73.78,74.315,
2025-08-15T01:13:00.964Z,9,GR86-062-012,-6.300000000000001,-1.228,0.286,2.92,2.0,,76.145,77.4,
2025-08-15T01:13:01.007Z,9,GR86-062-012,-6.300000000000001,-1.323,0.22,2.69,2.0,6000.0,75.245,76.24,
2025-08-15T01:13:01.050Z,9,GR86-062-012,-7.7,-1.154,0.353,2.51,2.0,,66.015,67.525,132.36
2025-08-15T01:13:01.094Z,9,GR86-062-012,-12.0,-1.293,0.168,2.36,2.0,,61.68,62.870000000000005,
2025-08-15T01:13:01.137Z,9,GR86-062-012,-12.3,-1.141,0.121,2.35,2.0,,56.005,57.055,
2025-08-15T01:13:01.180Z,9,GR86-062-012,-11.4,-1.047,0.107,12.44,2.0,,47.215,48.3,
2025-08-15T01:13:01.224Z,9,GR86-062-012,-7.800000000000001,-0.991,-0.015,55.24,2.0,6321.0,45.0,45.965,
2025-08-15T01:13:01.266Z,9,GR86-062-012,-2.0,-0.954,-0.011,97.12,2.0,,43.705,44.805,124.54
2025-08-15T01:13:01.309Z,9,GR86-062-012,5.6000000000000005,-0.915,-0.017,82.9,1.0,,40.775,42.025,
2025-08-15T01:13:01.353Z,9,GR86-062-012,12.2,-1.173,0.041,3.78,1.0,,42.715,43.52,
2025-08-15T01:13:01.395Z,9,GR86-062-012,14.2,-1.063,0.207,3.18,1.0,,44.835,45.965,
2025-08-15T01:13:01.438Z,9,GR86-062-012,18.1,-1.047,-0.132,2.9,1.0,6300.0,48.8,49.73,
2025-08-15T01:13:01.481Z,9,GR86-062-012,21.5,-1.33,0.194,2.65,1.0,,51.305,51.9,116.16
2025-08-15T01:13:01.524Z,9,GR86-062-012,25.0,-1.119,0.203,2.5,1.0,,53.18,54.555,
2025-08-15T01:13:01.567Z,9,GR86-062-012,28.5,-0.944,0.197,2.41,1.0,,52.86,53.61,
2025-08-15T01:13:01.654Z,9,GR86-062-012,29.1,-1.182,0.434,2.39,1.0,6910.0,51.15,52.08,
2025-08-15T01:13:01.697Z,9,GR86-062-012,29.8,-0.974,0.581,2.41,1.0,,43.11,44.025,109.25
2025-08-15T01:13:01.740Z,9,GR86-062-012,32.4,-0.852,0.663,2.4,1.0,,31.74,32.685,
2025-08-15T01:13:01.784Z,9,GR86-062-012,33.300000000000004,-0.625,0.6910000000000001,2.41,1.0,,16.525,17.275000000000002,
2025-08-15T01:13:01.827Z,9,GR86-062-012,34.5,-0.315,0.772,2.41,1.0,,5.34,5.965,
2025-08-15T01:13:01.870Z,9,GR86-062-012,35.4,-0.224,0.794,2.42,1.0,7081.0,0.0,0.0,
2025-08-15T01:13:01.914Z,9,GR86-062-012,36.8,-0.199,0.786,17.900000000000002,1.0,,0.0,0.0,101.92
2025-08-15T01:13:01.958Z,9,GR86-062-012,38.8,-0.153,0.793,11.85,1.0,,0.0,0.0,
2025-08-15T01:13:02.001Z,9,GR86-062-012,43.5,-0.112,0.779,6.73,1.0,,0.0,0.0,
2025-08-15T01:13:02.045Z,9,GR86-062-012,49.6,-0.102,0.791,7.85,1.0,,0.0,0.0,
2025-08-15T01:13:02.087Z,9,GR86-062-012,54.8,-0.094,0.874,7.44,1.0,6769.0,0.0,0.0,
2025-08-15T01:13:02.130Z,9,GR86-062-012,57.6,-0.095,0.865,5.74,1.0,,0.0,0.0,96.81
2025-08-15T01:13:02.174Z,9,GR86-062-012,58.900000000000006,-0.141,0.973,3.16,1.0,,0.0,0.0,
2025-08-15T01:13:02.217Z,9,GR86-062-012,59.1,-0.174,0.967,2.91,1.0,,0.0,0.0,
2025-08-15T01:13:02.260Z,9,GR86-062-012,61.7,-0.181,0.983,2.66,1.0,,0.0,0.0,
2025-08-15T01:13:02.304Z,9,GR86-062-012,65.0,-0.173,1.089,2.5,1.0,6798.0,0.0,0.0,
2025-08-15T01:13:02.389Z,9,GR86-062-012,66.8,-0.163,1.122,2.37,1.0,,0.0,0.0,93.64
2025-08-15T01:13:02.434Z,9,GR86-062-012,66.2,-0.173,1.144,2.36,1.0,,0.0,0.0,
2025-08-15T01:13:02.477Z,9,GR86-062-012,65.9,-0.17,1.171,2.37,1.0,,0.0,0.0,
2025-08-15T01:13:02.520Z,9,GR86-062-012,65.9,-0.174,1.195,2.37,1.0,6652.0,0.0,0.0,
2025-08-15T01:13:02.565Z,9,GR86-062-012,67.10000000000001,-0.162,1.216,2.37,1.0,,0.0,0.0,92.29
2025-08-15T01:13:02.608Z,9,GR86-062-012,69.0,-0.174,1.187,2.39,1.0,,0.0,0.0,
2025-08-15T01:13:02.651Z,9,GR86-062-012,71.2,-0.185,1.237,2.41,1.0,,0.0,0.0,
2025-08-15T01:13:02.694Z,9,GR86-062-012,72.9,-0.147,1.281,2.53,1.0,,0.0,0.0,
2025-08-15T01:13:02.737Z,9,GR86-062-012,73.3,-0.164,1.255,2.6,1.0,6548.0,0.0,0.0,
2025-08-15T01:13:02.780Z,9,GR86-062-012,73.3,-0.168,1.255,2.81,1.0,,0.0,0.0,92.22
2025-08-15T01:13:02.826Z,9,GR86-062-012,73.3,-0.194,1.205,3.45,1.0,,0.0,0.0,
2025-08-15T01:13:02.870Z,9,GR86-062-012,73.3,-0.184,1.237,4.39,1.0,,0.0,0.0,
2025-08-15T01:13:02.913Z,9,GR86-062-012,72.4,-0.141,1.286,4.86,1.0,,0.0,0.0,
2025-08-15T01:13:02.956Z,9,GR86-062-012,72.4,-0.105,1.266,4.7700000000000005,1.0,6422.0,0.0,0.0,
2025-08-15T01:13:02.999Z,9,GR86-062-012,72.4,-0.198,1.126,3.65,1.0,,0.0,0.0,91.07
2025-08-15T01:13:03.043Z,9,GR86-062-012,72.4,-0.259,1.442,4.21,1.0,,0.0,0.0,
2025-08-15T01:13:03.086Z,9,GR86-062-012,73.5,-0.067,1.191,3.85,1.0,,0.0,0.0,
2025-08-15T01:13:03.129Z,9,GR86-062-012,74.3,-0.129,1.175,3.49,1.0,,0.0,0.0,
2025-08-15T01:13:03.174Z,9,GR86-062-012,77.7,-0.148,1.066,3.12,1.0,6300.0,0.0,0.0,
2025-08-15T01:13:03.217Z,9,GR86-062-012,81.10000000000001,-0.195,1.223,3.43,1.0,,0.0,0.0,89.64
2025-08-15T01:13:03.260Z,9,GR86-062-012,81.7,-0.197,1.287,3.44,1.0,,0.0,0.0,
2025-08-15T01:13:03.304Z,9,GR86-062-012,83.60000000000001,-0.046,1.207,2.76,1.0,,0.0,0.0,
2025-08-15T01:13:03.346Z,9,GR86-062-012,84.7,-0.288,1.338,3.02,1.0,,0.0,0.0,
2025-08-15T01:13:03.389Z,9,GR86-062-012,82.10000000000001,-0.217,1.112,2.73,1.0,6147.0,0.0,0.0,
2025-08-15T01:13:03.434Z,9,GR86-062-012,77.10000000000001,-0.089,1.047,3.23,1.0,,0.0,0.0,86.38
2025-08-15T01:13:03.477Z,9,GR86-062-012,76.60000000000001,-0.084,1.003,3.4,1.0,,0.0,0.0,
2025-08-15T01:13:03.520Z,9,GR86-062-012,76.80000000000001,-0.08,0.993,3.83,1.0,,0.0,0.0,
2025-08-15T01:13:03.564Z,9,GR86-062-012,81.2,-0.116,0.935,4.75,1.0,,0.0,0.0,
2025-08-15T01:13:03.606Z,9,GR86-062-012,87.0,-0.269,1.293,14.71,1.0,6037.0,0.0,0.0,
2025-08-15T01:13:03.649Z,9,GR86-062-012,91.6,-0.311,1.372,18.95,1.0,,0.0,0.0,84.91
2025-08-15T01:13:03.693Z,9,GR86-062-012,93.0,-0.167,1.224,23.28,1.0,,0.0,0.0,
2025-08-15T01:13:03.735Z,9,GR86-062-012,92.8,-0.159,1.524,25.04,1.0,,0.0,0.0,
2025-08-15T01:13:03.778Z,9,GR86-062-012,90.9,-0.071,1.274,30.05,1.0,,0.0,0.0,
2025-08-15T01:13:03.821Z,9,GR86-062-012,85.7,-0.104,1.168,31.0,1.0,5919.0,0.0,0.0,
2025-08-15T01:13:03.864Z,9,GR86-062-012,81.0,0.217,1.375,31.26,1.0,,0.0,0.0,83.22
2025-08-15T01:13:03.907Z,9,GR86-062-012,77.30000000000001,0.196,1.383,32.480000000000004,1.0,,0.0,0.0,
2025-08-15T01:13:03.950Z,9,GR86-062-012,76.60000000000001,0.273,1.341,32.76,1.0,,0.0,0.0,
2025-08-15T01:13:03.994Z,9,GR86-062-012,73.7,0.272,1.261,32.97,1.0,,0.0,0.0,
2025-08-15T01:13:04.036Z,9,GR86-062-012,63.5,0.231,1.198,32.63,1.0,6159.0,0.0,0.0,
2025-08-15T01:13:04.079Z,9,GR86-062-012,56.3,0.265,1.148,31.49,1.0,,0.0,0.0,81.87
2025-08-15T01:13:04.124Z,9,GR86-062-012,59.3,0.209,1.159,31.53,1.0,,0.0,0.0,
2025-08-15T01:13:04.209Z,9,GR86-062-012,71.9,0.23,1.15,32.11,1.0,,0.0,0.0,
2025-08-15T01:13:04.253Z,9,GR86-062-012,89.2,0.188,1.2,33.09,1.0,6163.0,0.0,0.0,
2025-08-15T01:13:04.295Z,9,GR86-062-012,89.30000000000001,0.184,1.176,33.22,1.0,,0.0,0.0,80.77
2025-08-15T01:13:04.338Z,9,GR86-062-012,89.30000000000001,0.188,1.168,33.160000000000004,1.0,,0.0,0.0,
2025-08-15T01:13:04.381Z,9,GR86-062-012,88.5,0.188,1.207,33.230000000000004,1.0,,0.0,0.0,
2025-08-15T01:13:04.425Z,9,GR86-062-012,86.10000000000001,0.211,1.178,33.3,1.0,,0.0,0.0,
2025-08-15T01:13:04.468Z,9,GR86-062-012,82.0,0.208,1.173,33.34,1.0,6191.0,0.0,0.0,
2025-08-15T01:13:04.511Z,9,GR86-062-012,77.7,0.215,1.185,33.62,1.0,,0.0,0.0,81.25
2025-08-15T01:13:04.554Z,9,GR86-062-012,68.7,0.226,1.217,34.35,1.0,,0.0,0.0,
2025-08-15T01:13:04.597Z,9,GR86-062-012,62.2,0.22,1.205,34.96,1.0,,0.0,0.0,
2025-08-15T01:13:04.640Z,9,GR86-062-012,56.0,0.22,1.241,40.53,1.0,,0.0,0.0,
2025-08-15T01:13:04.684Z,9,GR86-062-012,51.400000000000006,0.24,1.189,53.44,1.0,6303.0,0.0,0.0,
2025-08-15T01:13:04.727Z,9,GR86-062-012,48.400000000000006,0.268,1.195,67.51,1.0,,0.0,0.0,81.95
2025-08-15T01:13:04.770Z,9,GR86-062-012,46.7,0.305,1.17,98.82,1.0,,0.0,0.0,
2025-08-15T01:13:04.815Z,9,GR86-062-012,43.2,0.348,1.099,99.89,1.0,,0.0,0.0,
2025-08-15T01:13:04.858Z,9,GR86-062-012,37.8,0.348,1.013,99.9,1.0,,0.0,0.0,
2025-08-15T01:13:04.901Z,9,GR86-062-012,30.1,0.395,1.059,99.89,1.0,6359.0,0.0,0.0,
2025-08-15T01:13:04.944Z,9,GR86-062-012,21.8,0.325,0.896,99.89,1.0,,0.0,0.0,83.25
2025-08-15T01:13:04.987Z,9,GR86-062-012,15.4,0.352,0.78,99.89,1.0,,0.0,0.0,
2025-08-15T01:13:05.030Z,9,GR86-062-012,10.9,0.356,0.639,99.92,1.0,,0.0,0.0,
2025-08-15T01:13:05.076Z,9,GR86-062-012,7.9,0.342,0.591,99.9,1.0,,0.0,0.0,
2025-08-15T01:13:05.119Z,9,GR86-062-012,7.300000000000001,0.369,0.645,99.91,1.0,6563.0,0.0,0.0,
2025-08-15T01:13:05.163Z,9,GR86-062-012,9.1,0.488,0.593,99.93,1.0,,0.0,0.0,84.53
2025-08-15T01:13:05.206Z,9,GR86-062-012,17.2,0.367,0.536,99.93,1.0,,0.0,0.0,
2025-08-15T01:13:05.249Z,9,GR86-062-012,27.3,0.268,0.485,99.92,1.0,,0.0,0.0,
2025-08-15T01:13:05.293Z,9,GR86-062-012,34.300000000000004,0.293,0.598,99.92,1.0,,0.0,0.0,
2025-08-15T01:13:05.335Z,9,GR86-062-012,33.5,0.298,0.516,99.9,1.0,6712.0,0.0,0.0,
2025-08-15T01:13:05.378Z,9,GR86-062-012,29.8,0.311,0.388,99.91,1.0,,0.0,0.0,85.83
2025-08-15T01:13:05.421Z,9,GR86-062-012,28.0,0.438,0.591,99.92,1.0,,0.0,0.0,
2025-08-15T01:13:05.464Z,9,GR86-062-012,27.9,0.5740000000000001,0.5700000000000001,99.93,1.0,,0.0,0.0,
2025-08-15T01:13:05.508Z,9,GR86-062-012,27.700000000000003,0.358,0.463,99.93,1.0,,0.0,0.0,
2025-08-15T01:13:05.551Z,9,GR86-062-012,27.0,0.197,0.427,99.92,1.0,6871.0,0.0,0.0,
2025-08-15T01:13:05.594Z,9,GR86-062-012,20.3,0.317,0.52,99.92,1.0,,0.0,0.0,87.21000000000001
2025-08-15T01:13:05.637Z,9,GR86-062-012,17.900000000000002,0.043,0.462,99.92,1.0,,0.0,0.0,
2025-08-15T01:13:05.680Z,9,GR86-062-012,17.0,0.417,0.5740000000000001,99.94,1.0,,0.0,0.0,
2025-08-15T01:13:05.724Z,9,GR86-062-012,18.9,0.263,0.525,99.91,1.0,,0.0,0.0,
2025-08-15T01:13:05.766Z,9,GR86-062-012,20.9,0.265,0.717,99.92,1.0,7046.0,0.0,0.0,
2025-08-15T01:13:05.809Z,9,GR86-062-012,21.1,0.715,0.647,99.93,1.0,,0.0,0.0,89.37
2025-08-15T01:13:05.853Z,9,GR86-062-012,14.7,0.178,0.351,99.9,1.0,,0.0,0.0,
2025-08-15T01:13:05.895Z,9,GR86-062-012,12.2,0.431,0.343,99.92,1.0,,0.0,0.0,
2025-08-15T01:13:05.938Z,9,GR86-062-012,11.6,0.519,0.334,99.95,1.0,,0.0,0.0,
2025-08-15T01:13:05.981Z,9,GR86-062-012,9.4,0.245,0.143,99.89,1.0,7231.0,0.0,0.0,
2025-08-15T01:13:06.024Z,9,GR86-062-012,7.6,0.029,0.401,99.92,1.0,,0.0,0.0,91.42
2025-08-15T01:13:06.067Z,9,GR86-062-012,7.0,-0.102,0.128,99.91,2.0,,0.0,0.0,
2025-08-15T01:13:06.110Z,9,GR86-062-012,6.300000000000001,0.012,0.277,99.96,2.0,,0.0,0.0,
2025-08-15T01:13:06.154Z,9,GR86-062-012,10.5,0.346,0.097,99.96,2.0,,0.0,0.0,
2025-08-15T01:13:06.197Z,9,GR86-062-012,12.5,0.423,0.302,99.94,2.0,7243.0,0.0,0.0,
2025-08-15T01:13:06.240Z,9,GR86-062-012,12.3,0.388,0.095,99.94,2.0,,0.0,0.0,95.67
2025-08-15T01:13:06.284Z,9,GR86-062-012,11.7,0.205,0.192,99.95,2.0,,0.0,0.0,
2025-08-15T01:13:06.327Z,9,GR86-062-012,11.7,0.397,0.19,99.93,2.0,,0.0,0.0,
2025-08-15T01:13:06.370Z,9,GR86-062-012,12.1,0.402,0.133,99.92,2.0,,0.0,0.0,
2025-08-15T01:13:06.414Z,9,GR86-062-012,12.1,0.048,0.144,99.94,2.0,7112.0,0.0,0.0,
2025-08-15T01:13:06.458Z,9,GR86-062-012,11.7,0.137,0.059,99.94,2.0,,0.0,0.0,97.01
2025-08-15T01:13:06.501Z,9,GR86-062-012,11.7,0.211,0.096,99.93,2.0,,0.0,0.0,
2025-08-15T01:13:06.544Z,9,GR86-062-012,11.6,0.366,-0.019,99.93,2.0,,0.0,0.0,
2025-08-15T01:13:06.587Z,9,GR86-062-012,10.5,0.49,0.004,99.93,2.0,,0.0,0.0,
2025-08-15T01:13:06.630Z,9,GR86-062-012,9.3,0.509,-0.043,99.93,2.0,6185.0,0.0,0.0,
2025-08-15T01:13:06.674Z,9,GR86-062-012,7.9,0.23,-0.003,99.93,2.0,,0.0,0.0,99.68
2025-08-15T01:13:06.717Z,9,GR86-062-012,7.7,0.28,-0.075,99.93,2.0,,0.0,0.0,
2025-08-15T01:13:06.760Z,9,GR86-062-012,7.800000000000001,0.377,-0.006,99.93,2.0,,0.0,0.0,
2025-08-15T01:13:06.804Z,9,GR86-062-012,8.200000000000001,0.388,-0.044,99.93,2.0,,0.0,0.0,
2025-08-15T01:13:06.846Z,9,GR86-062-012,8.9,0.373,-0.119,99.93,2.0,6029.0,0.0,0.0,
2025-08-15T01:13:06.934Z,9,GR86-062-012,9.6,0.468,-0.086,99.91,2.0,,0.0,0.0,101.42
2025-08-15T01:13:06.977Z,9,GR86-062-012,10.1,0.207,-0.089,99.94,2.0,,0.0,0.0,
2025-08-15T01:13:07.020Z,9,GR86-062-012,10.1,0.165,-0.064,99.93,2.0,,0.0,0.0,
2025-08-15T01:13:07.065Z,9,GR86-062-012,10.2,0.28,-0.093,99.92,2.0,6053.0,0.0,0.0,
2025-08-15T01:13:07.108Z,9,GR86-062-012,10.3,0.362,-0.049,99.93,2.0,,0.0,0.0,103.49
2025-08-15T01:13:07.151Z,9,GR86-062-012,10.6,0.335,-0.076,99.95,2.0,,0.0,0.0,
2025-08-15T01:13:07.194Z,9,GR86-062-012,11.9,0.209,0.009,99.94,2.0,,0.0,0.0,
2025-08-15T01:13:07.237Z,9,GR86-062-012,13.9,0.242,0.017,99.95,2.0,,0.0,0.0,
2025-08-15T01:13:07.280Z,9,GR86-062-012,14.8,0.236,0.024,99.94,2.0,6166.0,0.0,0.0,
2025-08-15T01:13:07.326Z,9,GR86-062-012,14.9,0.222,0.033,99.92,2.0,,0.0,0.0,105.05
2025-08-15T01:13:07.369Z,9,GR86-062-012,14.5,0.192,0.054,99.93,2.0,,0.0,0.0,
2025-08-15T01:13:07.413Z,9,GR86-062-012,13.5,0.36,0.017,99.95,2.0,,0.0,0.0,
2025-08-15T01:13:07.458Z,9,GR86-062-012,13.3,0.334,0.028,99.94,2.0,,0.0,0.0,
2025-08-15T01:13:07.500Z,9,GR86-062-012,13.2,0.385,0.11,99.95,2.0,6234.0,0.0,0.0,
2025-08-15T01:13:07.545Z,9,GR86-062-012,13.1,0.307,0.061,99.95,2.0,,0.0,0.0,106.9
2025-08-15T01:13:07.588Z,9,GR86-062-012,13.1,0.291,0.12,99.93,2.0,,0.0,0.0,
2025-08-15T01:13:07.631Z,9,GR86-062-012,13.1,0.33,0.133,99.95,2.0,,0.0,0.0,
2025-08-15T01:13:07.674Z,9,GR86-062-012,13.1,0.342,0.106,99.94,2.0,,0.0,0.0,
2025-08-15T01:13:07.717Z,9,GR86-062-012,12.3,0.311,0.097,99.93,2.0,6353.0,0.0,0.0,
2025-08-15T01:13:07.760Z,9,GR86-062-012,10.6,0.287,0.084,99.96,2.0,,0.0,0.0,108.54
2025-08-15T01:13:07.804Z,9,GR86-062-012,9.4,0.246,0.079,99.94,2.0,,0.0,0.0,
2025-08-15T01:13:07.846Z,9,GR86-062-012,9.1,0.289,0.091,99.93,2.0,,0.0,0.0,
2025-08-15T01:13:07.889Z,9,GR86-062-012,9.0,0.335,0.126,99.93,2.0,,0.0,0.0,
2025-08-15T01:13:07.934Z,9,GR86-062-012,7.7,0.317,0.13,99.94,2.0,6422.0,0.0,0.0,
2025-08-15T01:13:07.977Z,9,GR86-062-012,6.5,0.281,0.115,99.95,2.0,,0.0,0.0,110.07
2025-08-15T01:13:08.020Z,9,GR86-062-012,5.800000000000001,0.275,0.087,99.94,2.0,,0.0,0.0,
2025-08-15T01:13:08.064Z,9,GR86-062-012,5.2,0.271,0.056,99.94,2.0,,0.0,0.0,
2025-08-15T01:13:08.107Z,9,GR86-062-012,5.1000000000000005,0.31,0.032,99.93,2.0,,0.0,0.0,
2025-08-15T01:13:08.150Z,9,GR86-062-012,4.9,0.315,0.025,99.96,2.0,6488.0,0.0,0.0,
2025-08-15T01:13:08.194Z,9,GR86-062-012,4.2,0.304,0.013,99.95,2.0,,0.0,0.0,111.48
2025-08-15T01:13:08.237Z,9,GR86-062-012,3.5,0.282,-0.015,99.95,2.0,,0.0,0.0,
2025-08-15T01:13:08.280Z,9,GR86-062-012,2.8000000000000003,0.294,-0.015,99.95,2.0,,0.0,0.0,
2025-08-15T01:13:08.324Z,9,GR86-062-012,2.1,0.291,-0.048,99.96,2.0,,0.0,0.0,
2025-08-15T01:13:08.366Z,9,GR86-062-012,1.4,0.29,-0.05,99.96,2.0,6553.0,0.0,0.0,
2025-08-15T01:13:08.453Z,9,GR86-062-012,0.9,0.297,-0.061,99.95,2.0,,0.0,0.0,113.14
2025-08-15T01:13:08.495Z,9,GR86-062-012,0.9,0.288,-0.101,99.92,2.0,,0.0,0.0,
2025-08-15T01:13:08.538Z,9,GR86-062-012,0.9,0.29,-0.094,99.94,2.0,,0.0,0.0,
2025-08-15T01:13:08.581Z,9,GR86-062-012,0.9,0.297,-0.111,99.95,2.0,6634.0,0.0,0.0,
2025-08-15T01:13:08.625Z,9,GR86-062-012,0.9,0.281,-0.103,99.93,2.0,,0.0,0.0,114.6
2025-08-15T01:13:08.668Z,9,GR86-062-012,0.9,0.287,-0.097,99.92,2.0,,0.0,0.0,
2025-08-15T01:13:08.711Z,9,GR86-062-012,0.8,0.299,-0.098,99.93,2.0,,0.0,0.0,
2025-08-15T01:13:08.754Z,9,GR86-062-012,1.6,0.286,-0.103,99.93,2.0,,0.0,0.0,
2025-08-15T01:13:08.797Z,9,GR86-062-012,2.0,0.278,-0.085,99.93,2.0,6710.0,0.0,0.0,
2025-08-15T01:13:08.840Z,9,GR86-062-012,2.0,0.279,-0.064,99.93,2.0,,0.0,0.0,117.43
2025-08-15T01:13:08.885Z,9,GR86-062-012,2.0,0.293,-0.072,99.95,2.0,,0.0,0.0,
2025-08-15T01:13:08.928Z,9,GR86-062-012,2.0,0.279,-0.066,99.95,2.0,,0.0,0.0,
2025-08-15T01:13:08.971Z,9,GR86-062-012,2.0,0.282,-0.062,99.95,2.0,,0.0,0.0,
2025-08-15T01:13:09.017Z,9,GR86-062-012,1.8,0.281,-0.063,99.94,2.0,6796.0,0.0,0.0,
2025-08-15T01:13:09.060Z,9,GR86-062-012,1.7000000000000002,0.288,-0.07,99.94,2.0,,0.0,0.0,118.63
2025-08-15T01:13:09.104Z,9,GR86-062-012,1.5,0.277,-0.079,99.93,2.0,,0.0,0.0,
2025-08-15T01:13:09.146Z,9,GR86-062-012,1.4,0.274,-0.092,99.95,2.0,,0.0,0.0,
2025-08-15T01:13:09.277Z,9,GR86-062-012,1.0,0.285,-0.117,99.93,2.0,6933.0,0.0,0.0,119.79
2025-08-15T01:13:09.320Z,9,GR86-062-012,1.0,0.267,-0.121,99.95,2.0,,0.0,0.0,
2025-08-15T01:13:09.364Z,9,GR86-062-012,1.0,0.277,-0.143,99.94,2.0,,0.0,0.0,
2025-08-15T01:13:09.406Z,9,GR86-062-012,1.1,0.277,-0.139,99.95,2.0,,0.0,0.0,
2025-08-15T01:13:09.449Z,9,GR86-062-012,1.2000000000000002,0.268,-0.126,99.94,2.0,6999.0,0.0,0.0,
2025-08-15T01:13:09.493Z,9,GR86-062-012,1.2000000000000002,0.276,-0.138,99.92,2.0,,0.0,0.0,120.99
2025-08-15T01:13:09.535Z,9,GR86-062-012,1.2000000000000002,0.291,-0.134,99.95,2.0,,0.0,0.0,
2025-08-15T01:13:09.578Z,9,GR86-062-012,1.2000000000000002,0.277,-0.138,99.94,2.0,,0.0,0.0,
2025-08-15T01:13:09.621Z,9,GR86-062-012,1.3,0.272,-0.117,99.95,2.0,,0.0,0.0,
2025-08-15T01:13:09.664Z,9,GR86-062-012,2.4000000000000004,0.274,-0.152,99.93,2.0,7068.0,0.0,0.0,
2025-08-15T01:13:09.707Z,9,GR86-062-012,3.9,0.101,-0.122,99.94,3.0,,0.0,0.0,122.12
2025-08-15T01:13:09.750Z,9,GR86-062-012,4.4,-0.074,-0.053,99.96,3.0,,0.0,0.0,
2025-08-15T01:13:09.794Z,9,GR86-062-012,5.5,0.357,-0.13,99.92,3.0,,0.0,0.0,
2025-08-15T01:13:09.837Z,9,GR86-062-012,5.9,0.455,-0.055,99.95,3.0,,0.0,0.0,
2025-08-15T01:13:09.880Z,9,GR86-062-012,6.800000000000001,0.393,0.04,99.95,3.0,7129.0,0.0,0.0,
2025-08-15T01:13:09.924Z,9,GR86-062-012,7.5,0.236,-0.035,99.93,3.0,,0.0,0.0,123.23
2025-08-15T01:13:09.966Z,9,GR86-062-012,7.5,0.143,0.061,99.94,3.0,,0.0,0.0,
2025-08-15T01:13:10.009Z,9,GR86-062-012,7.2,0.212,0.039,99.94,3.0,,0.0,0.0,
2025-08-15T01:13:10.053Z,9,GR86-062-012,7.2,0.31,0.062,99.96,3.0,,0.0,0.0,
2025-08-15T01:13:10.095Z,9,GR86-062-012,6.4,0.263,0.088,99.95,3.0,6145.0,0.0,0.0,
2025-08-15T01:13:10.138Z,9,GR86-062-012,5.4,0.204,0.059,99.94,3.0,,0.0,0.0,124.08
2025-08-15T01:13:10.181Z,9,GR86-062-012,5.300000000000001,0.212,0.045,99.93,3.0,,0.0,0.0,
2025-08-15T01:13:10.225Z,9,GR86-062-012,5.6000000000000005,0.25,0.041,99.93,3.0,,0.0,0.0,
2025-08-15T01:13:10.268Z,9,GR86-062-012,6.1000000000000005,0.249,0.058,99.94,3.0,,0.0,0.0,
2025-08-15T01:13:10.311Z,9,GR86-062-012,6.1000000000000005,0.248,0.032,99.94,3.0,5939.0,0.0,0.0,
2025-08-15T01:13:10.354Z,9,GR86-062-012,6.2,0.229,0.033,99.93,3.0,,0.0,0.0,125.36
2025-08-15T01:13:10.397Z,9,GR86-062-012,6.4,0.23,0.027,99.93,3.0,,0.0,0.0,
2025-08-15T01:13:10.440Z,9,GR86-062-012,6.6000000000000005,0.24,0.053,99.94,3.0,,0.0,0.0,
2025-08-15T01:13:10.484Z,9,GR86-062-012,6.6000000000000005,0.231,0.054,99.95,3.0,,0.0,0.0,
2025-08-15T01:13:10.527Z,9,GR86-062-012,6.6000000000000005,0.23,0.048,99.95,3.0,5934.0,0.0,0.0,
2025-08-15T01:13:10.570Z,9,GR86-062-012,6.6000000000000005,0.245,0.071,99.93,3.0,,0.0,0.0,126.2
2025-08-15T01:13:10.614Z,9,GR86-062-012,6.5,0.238,0.064,99.94,3.0,,0.0,0.0,
2025-08-15T01:13:10.658Z,9,GR86-062-012,6.4,0.231,0.067,99.94,3.0,,0.0,0.0,
2025-08-15T01:13:10.701Z,9,GR86-062-012,6.2,0.235,0.044,99.93,3.0,,0.0,0.0,
2025-08-15T01:13:10.744Z,9,GR86-062-012,6.2,0.239,0.054,99.94,3.0,5952.0,0.0,0.0,
2025-08-15T01:13:10.787Z,9,GR86-062-012,6.2,0.245,0.051,82.83,3.0,,0.0,0.0,127.03
2025-08-15T01:13:10.830Z,9,GR86-062-012,6.2,0.233,0.065,11.01,3.0,,0.0,0.0,
2025-08-15T01:13:10.874Z,9,GR86-062-012,6.2,0.222,0.038,4.8,3.0,,0.0,0.0,
2025-08-15T01:13:10.917Z,9,GR86-062-012,6.300000000000001,-0.042,0.057,4.17,3.0,,0.0,0.0,
2025-08-15T01:13:10.960Z,9,GR86-062-012,6.300000000000001,-0.053,0.078,3.88,3.0,5990.0,0.0,0.0,
2025-08-15T01:13:11.004Z,9,GR86-062-012,6.300000000000001,-0.35,0.029,3.68,3.0,,6.9,7.205,127.87
2025-08-15T01:13:11.046Z,9,GR86-062-012,6.2,-0.255,0.045,3.48,3.0,,19.395,19.825,
2025-08-15T01:13:11.089Z,9,GR86-062-012,6.2,-0.311,0.058,3.26,3.0,,29.39,29.5,
2025-08-15T01:13:11.134Z,9,GR86-062-012,9.8,-0.626,0.037,2.9,3.0,,41.52,41.31,
2025-08-15T01:13:11.177Z,9,GR86-062-012,13.4,-0.6890000000000001,0.102,27.17,3.0,6032.0,45.52,45.49,
2025-08-15T01:13:11.220Z,9,GR86-062-012,15.4,-0.739,0.084,53.370000000000005,2.0,,47.185,47.215,128.74
2025-08-15T01:13:11.264Z,9,GR86-062-012,15.6,-0.835,0.131,5.58,2.0,,47.58,47.55,
2025-08-15T01:13:11.307Z,9,GR86-062-012,13.7,-0.803,0.183,4.36,2.0,,46.65,48.115,
2025-08-15T01:13:11.350Z,9,GR86-062-012,12.1,-0.897,0.146,3.94,2.0,,44.085,45.55,
2025-08-15T01:13:11.394Z,9,GR86-062-012,11.5,-0.96,0.154,3.65,2.0,5886.0,38.21,39.46,
2025-08-15T01:13:11.437Z,9,GR86-062-012,12.1,-0.778,0.232,3.5,2.0,,31.27,32.685,125.37
2025-08-15T01:13:11.480Z,9,GR86-062-012,15.7,-0.5760000000000001,0.18,3.28,2.0,,26.535,27.62,
2025-08-15T01:13:11.525Z,9,GR86-062-012,18.0,-0.909,0.407,3.01,2.0,,27.71,28.84,
2025-08-15T01:13:11.569Z,9,GR86-062-012,21.9,-0.668,0.435,2.72,2.0,,28.78,29.71,
2025-08-15T01:13:11.614Z,9,GR86-062-012,28.200000000000003,-0.678,0.534,2.42,2.0,5554.0,32.2,33.160000000000004,
2025-08-15T01:13:11.658Z,9,GR86-062-012,28.9,-0.583,0.663,2.36,2.0,,32.93,33.375,119.63
2025-08-15T01:13:11.700Z,9,GR86-062-012,28.9,-0.612,0.545,2.34,2.0,,31.45,31.71,
2025-08-15T01:13:11.745Z,9,GR86-062-012,29.1,-0.629,0.638,2.34,2.0,,30.52,30.765,
2025-08-15T01:13:11.788Z,9,GR86-062-012,30.9,-0.593,0.665,2.35,2.0,,29.71,30.43,
2025-08-15T01:13:11.831Z,9,GR86-062-012,33.0,-0.617,0.653,2.34,2.0,5974.0,28.615,29.62,
2025-08-15T01:13:11.874Z,9,GR86-062-012,34.9,-0.5680000000000001,0.781,2.34,2.0,,23.99,25.24,114.36
2025-08-15T01:13:11.917Z,9,GR86-062-012,36.4,-0.438,0.846,2.35,2.0,,13.795,14.785,
2025-08-15T01:13:11.960Z,9,GR86-062-012,37.5,-0.363,0.844,2.36,2.0,,4.99,5.585,
2025-08-15T01:13:12.004Z,9,GR86-062-012,38.1,-0.218,0.937,2.36,2.0,,0.0,0.0,
2025-08-15T01:13:12.046Z,9,GR86-062-012,40.0,-0.168,0.905,2.39,2.0,5959.0,0.0,0.0,
2025-08-15T01:13:12.089Z,9,GR86-062-012,40.6,-0.141,0.966,2.4,2.0,,0.0,0.0,110.18
2025-08-15T01:13:12.134Z,9,GR86-062-012,39.400000000000006,-0.127,1.016,2.4,2.0,,0.0,0.0,
2025-08-15T01:13:12.177Z,9,GR86-062-012,38.5,-0.14,0.947,3.03,2.0,,0.0,0.0,
2025-08-15T01:13:12.220Z,9,GR86-062-012,40.8,-0.12,0.966,4.74,2.0,,0.0,0.0,
2025-08-15T01:13:12.264Z,9,GR86-062-012,48.2,-0.123,0.971,3.72,2.0,5789.0,0.0,0.0,
2025-08-15T01:13:12.306Z,9,GR86-062-012,56.3,-0.128,0.972,3.42,2.0,,0.0,0.0,106.61
2025-08-15T01:13:12.349Z,9,GR86-062-012,59.7,-0.132,1.03,3.19,2.0,,0.0,0.0,
2025-08-15T01:13:12.393Z,9,GR86-062-012,63.8,-0.131,1.035,2.74,2.0,,0.0,0.0,
2025-08-15T01:13:12.435Z,9,GR86-062-012,64.2,-0.122,1.062,2.5,2.0,,0.0,0.0,
2025-08-15T01:13:12.478Z,9,GR86-062-012,64.10000000000001,-0.14,1.151,2.39,2.0,5763.0,0.0,0.0,
2025-08-15T01:13:12.521Z,9,GR86-062-012,62.900000000000006,-0.154,1.135,2.63,2.0,,0.0,0.0,104.65
2025-08-15T01:13:12.564Z,9,GR86-062-012,61.400000000000006,-0.121,1.171,4.19,2.0,,0.0,0.0,
2025-08-15T01:13:12.607Z,9,GR86-062-012,60.3,-0.141,1.178,15.85,2.0,,0.0,0.0,
2025-08-15T01:13:12.650Z,9,GR86-062-012,60.2,-0.127,1.202,15.68,2.0,,0.0,0.0,
2025-08-15T01:13:12.694Z,9,GR86-062-012,63.6,-0.092,1.225,15.89,2.0,5686.0,0.0,0.0,
2025-08-15T01:13:12.737Z,9,GR86-062-012,67.4,-0.077,1.214,12.03,2.0,,0.0,0.0,102.86
2025-08-15T01:13:12.780Z,9,GR86-062-012,70.9,-0.064,1.267,11.5,2.0,,0.0,0.0,
2025-08-15T01:13:12.824Z,9,GR86-062-012,74.0,-0.073,1.262,10.09,2.0,,0.0,0.0,
2025-08-15T01:13:12.866Z,9,GR86-062-012,75.4,-0.081,1.298,9.77,2.0,,0.0,0.0,
2025-08-15T01:13:12.909Z,9,GR86-062-012,75.4,-0.084,1.293,9.28,2.0,5603.0,0.0,0.0,
2025-08-15T01:13:12.953Z,9,GR86-062-012,74.10000000000001,-0.051,1.249,9.82,2.0,,0.0,0.0,102.1
2025-08-15T01:13:12.995Z,9,GR86-062-012,73.60000000000001,-0.059,1.339,10.25,2.0,,0.0,0.0,
2025-08-15T01:13:13.038Z,9,GR86-062-012,73.5,-0.067,1.264,10.04,2.0,,0.0,0.0,
2025-08-15T01:13:13.081Z,9,GR86-062-012,73.5,-0.068,1.279,8.01,2.0,,0.0,0.0,
2025-08-15T01:13:13.124Z,9,GR86-062-012,73.5,-0.067,1.171,7.75,2.0,5671.0,0.0,0.0,
2025-08-15T01:13:13.167Z,9,GR86-062-012,73.2,-0.156,1.386,7.09,2.0,,0.0,0.0,100.91
2025-08-15T01:13:13.210Z,9,GR86-062-012,72.4,-0.096,1.21,6.390000000000001,2.0,,0.0,0.0,
2025-08-15T01:13:13.254Z,9,GR86-062-012,70.3,-0.07,1.364,3.74,2.0,,0.0,0.0,
2025-08-15T01:13:13.297Z,9,GR86-062-012,67.7,-0.001,1.229,3.74,2.0,,0.0,0.0,
2025-08-15T01:13:13.340Z,9,GR86-062-012,63.2,-0.136,1.148,3.51,2.0,5484.0,0.0,0.0,
2025-08-15T01:13:13.384Z,9,GR86-062-012,58.2,-0.233,1.373,3.3200000000000003,2.0,,0.0,0.0,100.01
2025-08-15T01:13:13.427Z,9,GR86-062-012,53.6,-0.229,1.636,2.88,2.0,,0.0,0.0,
2025-08-15T01:13:13.470Z,9,GR86-062-012,49.8,-0.041,1.36,4.21,2.0,,0.0,0.0,
2025-08-15T01:13:13.514Z,9,GR86-062-012,47.1,-0.148,1.619,4.53,2.0,,0.0,0.0,
2025-08-15T01:13:13.558Z,9,GR86-062-012,45.3,-0.026,1.208,5.04,2.0,5397.0,0.0,0.0,
2025-08-15T01:13:13.600Z,9,GR86-062-012,41.8,-0.051,1.134,5.26,2.0,,0.0,0.0,98.31
2025-08-15T01:13:13.644Z,9,GR86-062-012,37.4,-0.192,1.181,15.97,2.0,,0.0,0.0,
2025-08-15T01:13:13.686Z,9,GR86-062-012,30.200000000000003,-0.09,1.288,17.89,2.0,,0.0,0.0,
2025-08-15T01:13:13.729Z,9,GR86-062-012,16.5,-0.007,1.147,20.84,2.0,,0.0,0.0,
2025-08-15T01:13:13.775Z,9,GR86-062-012,-11.0,0.001,1.369,20.94,2.0,5235.0,0.0,0.0,
2025-08-15T01:13:13.817Z,9,GR86-062-012,-27.5,0.057,1.011,21.35,2.0,,0.0,0.0,96.73
2025-08-15T01:13:13.860Z,9,GR86-062-012,-34.5,-0.036,1.083,21.43,2.0,,0.0,0.0,
2025-08-15T01:13:13.904Z,9,GR86-062-012,-34.5,0.114,1.194,19.7,2.0,,0.0,0.0,
2025-08-15T01:13:13.946Z,9,GR86-062-012,-31.3,0.205,1.21,18.68,2.0,,0.0,0.0,
2025-08-15T01:13:13.989Z,9,GR86-062-012,-26.8,0.179,1.224,15.38,2.0,5129.0,0.0,0.0,
2025-08-15T01:13:14.077Z,9,GR86-062-012,-26.9,0.131,1.157,17.7,2.0,,0.0,0.0,93.23
2025-08-15T01:13:14.120Z,9,GR86-062-012,-10.3,0.109,1.162,22.01,2.0,,0.0,0.0,
2025-08-15T01:13:14.164Z,9,GR86-062-012,17.900000000000002,0.131,1.174,26.92,2.0,,0.0,0.0,
2025-08-15T01:13:14.206Z,9,GR86-062-012,48.5,0.082,1.178,38.6,2.0,5244.0,0.0,0.0,
2025-08-15T01:13:14.249Z,9,GR86-062-012,72.3,0.104,1.17,75.07000000000001,2.0,,0.0,0.0,92.36
2025-08-15T01:13:14.293Z,9,GR86-062-012,75.4,0.148,1.236,99.91,2.0,,0.0,0.0,
2025-08-15T01:13:14.335Z,9,GR86-062-012,61.6,0.253,1.165,99.91,2.0,,0.0,0.0,
2025-08-15T01:13:14.378Z,9,GR86-062-012,49.900000000000006,0.352,1.182,99.92,2.0,,0.0,0.0,
2025-08-15T01:13:14.421Z,9,GR86-062-012,42.900000000000006,0.366,1.055,99.91,2.0,5307.0,0.0,0.0,
2025-08-15T01:13:14.464Z,9,GR86-062-012,40.400000000000006,0.349,1.028,99.93,2.0,,0.0,0.0,91.02
