timestamp,lap,vehicle_id,steering_angle,accx_can,accy_can,ath,gear,nmot,pbrake_f,pbrake_r,speed
2025-08-15T03:56:39.617Z,2,GR86-037-03,0.9,0.244,0.028,100.01,2.0,,0.0,0.0,
2025-08-15T03:56:39.660Z,2,GR86-037-03,0.9,0.238,0.037,100.02,2.0,6837.0,0.0,0.0,
2025-08-15T03:56:39.704Z,2,GR86-037-03,0.9,0.223,0.018,100.0,2.0,,0.0,0.0,118.65
2025-08-15T03:56:39.747Z,2,GR86-037-03,0.9,0.223,0.017,99.98,2.0,,0.0,0.0,
2025-08-15T03:56:39.790Z,2,GR86-037-03,0.9,0.239,-0.002,100.0,2.0,,0.0,0.0,
2025-08-15T03:56:39.833Z,2,GR86-037-03,0.9,0.228,-0.007,100.0,2.0,,0.0,0.0,
2025-08-15T03:56:39.876Z,2,GR86-037-03,0.9,0.232,-0.016,100.01,2.0,6934.0,0.0,0.0,
2025-08-15T03:56:39.920Z,2,GR86-037-03,0.9,0.239,-0.002,99.99,2.0,,0.0,0.0,120.24
2025-08-15T03:56:39.964Z,2,GR86-037-03,0.9,0.235,0.008,99.98,2.0,,0.0,0.0,
2025-08-15T03:56:40.007Z,2,GR86-037-03,0.9,0.23,0.019,100.01,2.0,,0.0,0.0,
2025-08-15T03:56:40.050Z,2,GR86-037-03,0.9,0.231,0.007,100.01,2.0,,0.0,0.0,
2025-08-15T03:56:40.093Z,2,GR86-037-03,0.9,0.244,0.017,99.98,2.0,7021.0,0.0,0.0,
2025-08-15T03:56:40.136Z,2,GR86-037-03,0.9,0.232,0.02,99.99,2.0,,0.0,0.0,121.84
2025-08-15T03:56:40.179Z,2,GR86-037-03,0.9,0.221,0.017,99.98,2.0,,0.0,0.0,
2025-08-15T03:56:40.223Z,2,GR86-037-03,0.9,0.211,0.015,100.0,2.0,,0.0,0.0,
2025-08-15T03:56:40.265Z,2,GR86-037-03,0.9,0.223,0.009,99.99,2.0,,0.0,0.0,
2025-08-15T03:56:40.308Z,2,GR86-037-03,0.9,0.229,0.006,100.02,2.0,7112.0,0.0,0.0,
2025-08-15T03:56:40.351Z,2,GR86-037-03,0.9,0.196,-0.005,100.0,3.0,,0.0,0.0,125.01
2025-08-15T03:56:40.394Z,2,GR86-037-03,0.9,-0.089,0.024,99.98,3.0,,0.0,0.0,
2025-08-15T03:56:40.437Z,2,GR86-037-03,0.9,0.593,0.033,99.99,3.0,,0.0,0.0,
2025-08-15T03:56:40.480Z,2,GR86-037-03,0.9,0.304,-0.077,99.96,3.0,,0.0,0.0,
2025-08-15T03:56:40.524Z,2,GR86-037-03,0.9,0.346,0.087,99.96,3.0,7197.0,0.0,0.0,
2025-08-15T03:56:40.566Z,2,GR86-037-03,0.9,0.226,-0.019,99.96,3.0,,0.0,0.0,126.57
2025-08-15T03:56:40.609Z,2,GR86-037-03,0.9,0.095,-0.039,99.96,3.0,,0.0,0.0,
2025-08-15T03:56:40.653Z,2,GR86-037-03,0.9,0.136,0.052,99.98,3.0,,0.0,0.0,
2025-08-15T03:56:40.697Z,2,GR86-037-03,1.0,0.207,-0.016,99.98,3.0,,0.0,0.0,
2025-08-15T03:56:40.740Z,2,GR86-037-03,1.0,0.262,0.037,99.98,3.0,7271.0,0.0,0.0,
2025-08-15T03:56:40.784Z,2,GR86-037-03,1.0,0.149,0.025,99.98,3.0,,0.0,0.0,127.98
2025-08-15T03:56:40.826Z,2,GR86-037-03,1.0,0.147,0.008,100.0,3.0,,0.0,0.0,
2025-08-15T03:56:40.870Z,2,GR86-037-03,1.0,0.195,0.016,100.0,3.0,,0.0,0.0,
2025-08-15T03:56:40.913Z,2,GR86-037-03,1.1,0.216,0.014,100.01,3.0,,0.0,0.0,
2025-08-15T03:56:40.956Z,2,GR86-037-03,1.1,0.2,0.008,99.99,3.0,6051.0,0.0,0.0,
2025-08-15T03:56:40.999Z,2,GR86-037-03,1.1,0.172,0.015,99.98,3.0,,0.0,0.0,129.79
2025-08-15T03:56:41.044Z,2,GR86-037-03,1.1,0.197,0.012,99.99,3.0,,0.0,0.0,
2025-08-15T03:56:41.087Z,2,GR86-037-03,1.1,0.216,0.017,99.99,3.0,,0.0,0.0,
2025-08-15T03:56:41.130Z,2,GR86-037-03,1.1,0.196,0.027,100.0,3.0,,0.0,0.0,
2025-08-15T03:56:41.173Z,2,GR86-037-03,1.1,0.176,0.01,99.99,3.0,6112.0,0.0,0.0,
2025-08-15T03:56:41.216Z,2,GR86-037-03,1.1,0.185,0.01,99.99,3.0,,0.0,0.0,131.18
2025-08-15T03:56:41.259Z,2,GR86-037-03,1.1,0.201,0.006,99.98,3.0,,0.0,0.0,
2025-08-15T03:56:41.302Z,2,GR86-037-03,1.1,0.216,0.016,100.02,3.0,,0.0,0.0,
2025-08-15T03:56:41.345Z,2,GR86-037-03,1.1,0.166,0.025,100.0,3.0,,0.0,0.0,
2025-08-15T03:56:41.388Z,2,GR86-037-03,1.0,0.171,0.017,100.0,3.0,6173.0,0.0,0.0,
2025-08-15T03:56:41.433Z,2,GR86-037-03,1.0,0.203,0.033,100.03,3.0,,0.0,0.0,132.48
2025-08-15T03:56:41.475Z,2,GR86-037-03,1.1,0.205,0.031,100.0,3.0,,0.0,0.0,
2025-08-15T03:56:41.518Z,2,GR86-037-03,1.1,0.181,0.022,100.01,3.0,,0.0,0.0,
2025-08-15T03:56:41.563Z,2,GR86-037-03,1.1,0.166,0.018,100.01,3.0,,0.0,0.0,
2025-08-15T03:56:41.605Z,2,GR86-037-03,1.1,0.169,0.005,100.0,3.0,6232.0,0.0,0.0,
2025-08-15T03:56:41.648Z,2,GR86-037-03,1.1,0.184,0.012,99.98,3.0,,0.0,0.0,133.81
2025-08-15T03:56:41.691Z,2,GR86-037-03,1.1,0.193,0.02,100.01,3.0,,0.0,0.0,
2025-08-15T03:56:41.734Z,2,GR86-037-03,1.1,0.176,0.031,99.99,3.0,,0.0,0.0,
2025-08-15T03:56:41.777Z,2,GR86-037-03,1.1,0.168,0.025,100.02,3.0,,0.0,0.0,
2025-08-15T03:56:41.820Z,2,GR86-037-03,1.1,0.178,0.024,99.99,3.0,6299.0,0.0,0.0,
2025-08-15T03:56:41.864Z,2,GR86-037-03,0.9,0.177,-0.006,100.02,3.0,,0.0,0.0,135.16
2025-08-15T03:56:41.906Z,2,GR86-037-03,0.4,0.191,0.014,100.0,3.0,,0.0,0.0,
2025-08-15T03:56:41.949Z,2,GR86-037-03,0.3,0.189,0.018,99.99,3.0,,0.0,0.0,
2025-08-15T03:56:41.992Z,2,GR86-037-03,0.5,0.175,0.017,100.01,3.0,,0.0,0.0,
2025-08-15T03:56:42.035Z,2,GR86-037-03,1.7000000000000002,0.176,0.0,99.99,3.0,6365.0,0.0,0.0,
2025-08-15T03:56:42.078Z,2,GR86-037-03,1.8,0.194,0.014,100.0,3.0,,0.0,0.0,136.42000000000002
2025-08-15T03:56:42.121Z,2,GR86-037-03,1.8,0.198,0.012,100.0,3.0,,0.0,0.0,
2025-08-15T03:56:42.164Z,2,GR86-037-03,0.5,0.19,0.03,100.0,3.0,,0.0,0.0,
2025-08-15T03:56:42.207Z,2,GR86-037-03,-0.5,0.192,0.018,99.98,3.0,,0.0,0.0,
2025-08-15T03:56:42.250Z,2,GR86-037-03,-0.5,0.166,0.01,100.01,3.0,6421.0,0.0,0.0,
2025-08-15T03:56:42.293Z,2,GR86-037-03,-0.5,0.176,-0.002,100.02,3.0,,0.0,0.0,137.71
2025-08-15T03:56:42.336Z,2,GR86-037-03,0.1,0.191,-0.018,100.0,3.0,,0.0,0.0,
2025-08-15T03:56:42.379Z,2,GR86-037-03,0.4,0.181,-0.017,100.01,3.0,,0.0,0.0,
2025-08-15T03:56:42.423Z,2,GR86-037-03,0.4,0.181,-0.014,99.99,3.0,,0.0,0.0,
2025-08-15T03:56:42.467Z,2,GR86-037-03,0.7000000000000001,0.19,-0.009,100.01,3.0,6481.0,0.0,0.0,
2025-08-15T03:56:42.510Z,2,GR86-037-03,1.2000000000000002,0.176,-0.024,99.99,3.0,,0.0,0.0,138.98
2025-08-15T03:56:42.553Z,2,GR86-037-03,1.3,0.17,-0.022,100.0,3.0,,0.0,0.0,
2025-08-15T03:56:42.596Z,2,GR86-037-03,1.3,0.179,0.003,100.01,3.0,,0.0,0.0,
2025-08-15T03:56:42.639Z,2,GR86-037-03,1.3,0.201,0.005,100.0,3.0,,0.0,0.0,
2025-08-15T03:56:42.683Z,2,GR86-037-03,1.3,0.183,0.008,100.02,3.0,6540.0,0.0,0.0,
2025-08-15T03:56:42.726Z,2,GR86-037-03,1.3,0.183,0.024,100.01,3.0,,0.0,0.0,140.18
2025-08-15T03:56:42.769Z,2,GR86-037-03,1.3,0.167,0.029,100.01,3.0,,0.0,0.0,
2025-08-15T03:56:42.813Z,2,GR86-037-03,1.3,0.158,0.033,99.99,3.0,,0.0,0.0,
2025-08-15T03:56:42.856Z,2,GR86-037-03,1.3,0.179,0.032,99.98,3.0,,0.0,0.0,
2025-08-15T03:56:42.899Z,2,GR86-037-03,1.3,0.192,0.036,100.0,3.0,6597.0,0.0,0.0,
2025-08-15T03:56:42.944Z,2,GR86-037-03,1.3,0.185,0.027,100.0,3.0,,0.0,0.0,142.69
2025-08-15T03:56:42.987Z,2,GR86-037-03,1.3,0.198,0.016,100.02,3.0,,0.0,0.0,
2025-08-15T03:56:43.030Z,2,GR86-037-03,1.3,0.178,0.021,100.01,3.0,,0.0,0.0,
2025-08-15T03:56:43.073Z,2,GR86-037-03,1.3,0.152,0.015,100.0,3.0,,0.0,0.0,
2025-08-15T03:56:43.116Z,2,GR86-037-03,1.3,0.148,0.024,100.0,3.0,6658.0,0.0,0.0,
2025-08-15T03:56:43.159Z,2,GR86-037-03,1.3,0.175,0.02,100.02,3.0,,0.0,0.0,143.96
2025-08-15T03:56:43.203Z,2,GR86-037-03,1.3,0.174,0.013,99.99,3.0,,0.0,0.0,
2025-08-15T03:56:43.247Z,2,GR86-037-03,1.2000000000000002,0.186,0.003,100.02,3.0,,0.0,0.0,
2025-08-15T03:56:43.290Z,2,GR86-037-03,1.2000000000000002,0.184,0.005,100.01,3.0,,0.0,0.0,
2025-08-15T03:56:43.333Z,2,GR86-037-03,1.2000000000000002,0.17,-0.002,100.01,3.0,6719.0,0.0,0.0,
2025-08-15T03:56:43.376Z,2,GR86-037-03,1.2000000000000002,0.153,0.009,100.01,3.0,,0.0,0.0,145.22
2025-08-15T03:56:43.419Z,2,GR86-037-03,1.2000000000000002,0.171,0.022,100.0,3.0,,0.0,0.0,
2025-08-15T03:56:43.463Z,2,GR86-037-03,1.1,0.159,0.015,100.0,3.0,,0.0,0.0,
2025-08-15T03:56:43.506Z,2,GR86-037-03,1.2000000000000002,0.157,0.0,100.0,3.0,,0.0,0.0,
2025-08-15T03:56:43.549Z,2,GR86-037-03,1.0,0.167,-0.002,100.0,3.0,6828.0,0.0,0.0,
2025-08-15T03:56:43.593Z,2,GR86-037-03,0.4,0.186,-0.001,99.99,3.0,,0.0,0.0,146.48
2025-08-15T03:56:43.635Z,2,GR86-037-03,0.4,0.175,0.013,99.99,3.0,,0.0,0.0,
2025-08-15T03:56:43.678Z,2,GR86-037-03,0.4,0.161,0.015,100.0,3.0,,0.0,0.0,
2025-08-15T03:56:43.723Z,2,GR86-037-03,0.4,0.176,0.013,100.01,3.0,,0.0,0.0,
2025-08-15T03:56:43.765Z,2,GR86-037-03,0.4,0.167,-0.001,100.01,3.0,6888.0,0.0,0.0,
2025-08-15T03:56:43.808Z,2,GR86-037-03,-0.8,0.161,0.005,99.98,3.0,,0.0,0.0,147.69
2025-08-15T03:56:43.851Z,2,GR86-037-03,-2.9000000000000004,0.165,0.012,99.99,3.0,,0.0,0.0,
2025-08-15T03:56:43.894Z,2,GR86-037-03,-3.2,0.181,-0.018,100.0,3.0,,0.0,0.0,
2025-08-15T03:56:43.937Z,2,GR86-037-03,-2.1,0.179,-0.033,99.99,3.0,,0.0,0.0,
2025-08-15T03:56:43.980Z,2,GR86-037-03,-0.9,0.174,-0.077,99.99,3.0,6947.0,0.0,0.0,
2025-08-15T03:56:44.024Z,2,GR86-037-03,-0.9,0.184,-0.082,100.01,3.0,,0.0,0.0,148.94
2025-08-15T03:56:44.066Z,2,GR86-037-03,-0.9,0.166,-0.077,100.0,3.0,,0.0,0.0,
2025-08-15T03:56:44.109Z,2,GR86-037-03,-0.6000000000000001,0.151,-0.078,100.01,3.0,,0.0,0.0,
2025-08-15T03:56:44.152Z,2,GR86-037-03,0.7000000000000001,0.152,-0.084,100.0,3.0,,0.0,0.0,
2025-08-15T03:56:44.195Z,2,GR86-037-03,1.5,0.159,-0.079,99.98,3.0,6999.0,0.0,0.0,
2025-08-15T03:56:44.238Z,2,GR86-037-03,1.5,0.172,-0.03,100.0,3.0,,0.0,0.0,150.15
2025-08-15T03:56:44.281Z,2,GR86-037-03,1.5,0.171,-0.009,99.98,3.0,,0.0,0.0,
2025-08-15T03:56:44.324Z,2,GR86-037-03,1.5,0.171,-0.002,99.99,3.0,,0.0,0.0,
2025-08-15T03:56:44.367Z,2,GR86-037-03,1.5,0.18,-0.002,100.0,3.0,,0.0,0.0,
2025-08-15T03:56:44.410Z,2,GR86-037-03,1.5,0.174,0.035,99.99,3.0,7058.0,0.0,0.0,
2025-08-15T03:56:44.453Z,2,GR86-037-03,1.5,0.155,0.051,99.98,3.0,,0.0,0.0,151.31
2025-08-15T03:56:44.496Z,2,GR86-037-03,1.5,0.149,0.059,100.01,3.0,,0.0,0.0,
2025-08-15T03:56:44.539Z,2,GR86-037-03,1.5,0.139,0.044,100.01,3.0,,0.0,0.0,
2025-08-15T03:56:44.584Z,2,GR86-037-03,1.5,0.147,0.039,100.01,3.0,,0.0,0.0,
2025-08-15T03:56:44.627Z,2,GR86-037-03,1.5,0.135,0.038,100.01,3.0,7110.0,0.0,0.0,
2025-08-15T03:56:44.670Z,2,GR86-037-03,1.5,0.145,0.048,100.02,3.0,,0.0,0.0,152.52
2025-08-15T03:56:44.713Z,2,GR86-037-03,1.5,0.161,0.036,99.98,3.0,,0.0,0.0,
2025-08-15T03:56:44.756Z,2,GR86-037-03,1.5,0.16,0.041,99.99,3.0,,0.0,0.0,
2025-08-15T03:56:44.799Z,2,GR86-037-03,1.5,0.179,0.058,100.01,3.0,,0.0,0.0,
2025-08-15T03:56:44.844Z,2,GR86-037-03,1.5,0.142,0.056,99.99,3.0,7164.0,0.0,0.0,
2025-08-15T03:56:44.887Z,2,GR86-037-03,1.5,0.169,0.029,99.98,3.0,,0.0,0.0,153.74
2025-08-15T03:56:44.930Z,2,GR86-037-03,1.3,-0.075,0.032,99.99,4.0,,0.0,0.0,
2025-08-15T03:56:44.974Z,2,GR86-037-03,1.1,0.05,0.073,99.98,4.0,,0.0,0.0,
2025-08-15T03:56:45.017Z,2,GR86-037-03,1.1,0.25,-0.005,99.99,4.0,,0.0,0.0,
2025-08-15T03:56:45.060Z,2,GR86-037-03,1.1,0.251,-0.013,99.98,4.0,7219.0,0.0,0.0,
2025-08-15T03:56:45.104Z,2,GR86-037-03,1.1,0.188,0.07,99.98,4.0,,0.0,0.0,154.97
2025-08-15T03:56:45.146Z,2,GR86-037-03,1.1,0.028,-0.04,99.99,4.0,,0.0,0.0,
2025-08-15T03:56:45.189Z,2,GR86-037-03,1.1,0.047,0.041,99.98,4.0,,0.0,0.0,
2025-08-15T03:56:45.232Z,2,GR86-037-03,1.1,0.163,0.037,99.98,4.0,,0.0,0.0,
2025-08-15T03:56:45.275Z,2,GR86-037-03,1.1,0.176,-0.015,99.97,4.0,6904.0,0.0,0.0,
2025-08-15T03:56:45.318Z,2,GR86-037-03,1.1,0.114,0.064,99.98,4.0,,0.0,0.0,156.16
2025-08-15T03:56:45.363Z,2,GR86-037-03,1.1,0.112,0.031,99.99,4.0,,0.0,0.0,
2025-08-15T03:56:45.405Z,2,GR86-037-03,1.1,0.163,0.041,99.98,4.0,,0.0,0.0,
2025-08-15T03:56:45.448Z,2,GR86-037-03,1.1,0.15,0.047,100.01,4.0,,0.0,0.0,
2025-08-15T03:56:45.491Z,2,GR86-037-03,1.1,0.124,0.018,99.99,4.0,6076.0,0.0,0.0,
2025-08-15T03:56:45.534Z,2,GR86-037-03,1.1,0.154,0.01,99.98,4.0,,0.0,0.0,157.15
2025-08-15T03:56:45.577Z,2,GR86-037-03,1.1,0.157,0.005,100.0,4.0,,0.0,0.0,
2025-08-15T03:56:45.620Z,2,GR86-037-03,1.1,0.116,-0.001,99.99,4.0,,0.0,0.0,
2025-08-15T03:56:45.706Z,2,GR86-037-03,1.1,0.149,0.003,100.02,4.0,6210.0,0.0,0.0,
2025-08-15T03:56:45.749Z,2,GR86-037-03,1.1,0.137,0.02,100.0,4.0,,0.0,0.0,159.34
2025-08-15T03:56:45.792Z,2,GR86-037-03,1.1,0.107,0.016,100.02,4.0,,0.0,0.0,
2025-08-15T03:56:45.835Z,2,GR86-037-03,1.1,0.115,-0.005,99.98,4.0,,0.0,0.0,
2025-08-15T03:56:45.878Z,2,GR86-037-03,0.8,0.121,0.002,100.01,4.0,,0.0,0.0,
2025-08-15T03:56:45.921Z,2,GR86-037-03,0.1,0.121,0.014,100.01,4.0,6262.0,0.0,0.0,
2025-08-15T03:56:45.964Z,2,GR86-037-03,0.0,0.106,0.011,100.01,4.0,,0.0,0.0,160.35
2025-08-15T03:56:46.007Z,2,GR86-037-03,0.0,0.112,-0.007,99.98,4.0,,0.0,0.0,
2025-08-15T03:56:46.050Z,2,GR86-037-03,0.6000000000000001,0.111,-0.021,100.0,4.0,,0.0,0.0,
2025-08-15T03:56:46.093Z,2,GR86-037-03,0.6000000000000001,0.125,-0.023,99.98,4.0,,0.0,0.0,
2025-08-15T03:56:46.136Z,2,GR86-037-03,0.6000000000000001,0.133,-0.011,100.01,4.0,6287.0,0.0,0.0,
2025-08-15T03:56:46.179Z,2,GR86-037-03,0.6000000000000001,0.149,-0.026,99.98,4.0,,0.0,0.0,161.41
2025-08-15T03:56:46.223Z,2,GR86-037-03,0.6000000000000001,0.108,-0.019,100.01,4.0,,0.0,0.0,
2025-08-15T03:56:46.265Z,2,GR86-037-03,0.6000000000000001,0.106,-0.024,100.01,4.0,,0.0,0.0,
2025-08-15T03:56:46.308Z,2,GR86-037-03,0.6000000000000001,0.119,-0.026,100.01,4.0,,0.0,0.0,
2025-08-15T03:56:46.351Z,2,GR86-037-03,0.6000000000000001,0.143,-0.031,100.0,4.0,6366.0,0.0,0.0,
2025-08-15T03:56:46.394Z,2,GR86-037-03,0.6000000000000001,0.153,-0.019,99.99,4.0,,0.0,0.0,162.46
2025-08-15T03:56:46.437Z,2,GR86-037-03,0.4,0.152,-0.008,100.02,4.0,,0.0,0.0,
2025-08-15T03:56:46.480Z,2,GR86-037-03,0.4,0.142,-0.012,99.98,4.0,,0.0,0.0,
2025-08-15T03:56:46.524Z,2,GR86-037-03,0.4,0.145,-0.011,99.99,4.0,,0.0,0.0,
2025-08-15T03:56:46.567Z,2,GR86-037-03,0.4,0.142,-0.022,100.0,4.0,6408.0,0.0,0.0,
2025-08-15T03:56:46.610Z,2,GR86-037-03,0.4,0.156,-0.037,100.0,4.0,,0.0,0.0,163.47
2025-08-15T03:56:46.654Z,2,GR86-037-03,0.6000000000000001,0.158,-0.019,99.99,4.0,,0.0,0.0,
2025-08-15T03:56:46.697Z,2,GR86-037-03,1.3,0.143,-0.017,100.01,4.0,,0.0,0.0,
2025-08-15T03:56:46.740Z,2,GR86-037-03,1.3,0.124,-0.019,99.98,4.0,,0.0,0.0,
2025-08-15T03:56:46.784Z,2,GR86-037-03,1.3,0.16,-0.003,99.99,4.0,6443.0,0.0,0.0,
2025-08-15T03:56:46.826Z,2,GR86-037-03,0.7000000000000001,0.168,0.0,100.0,4.0,,0.0,0.0,164.4
2025-08-15T03:56:46.870Z,2,GR86-037-03,0.3,0.157,0.017,100.01,4.0,,0.0,0.0,
2025-08-15T03:56:46.913Z,2,GR86-037-03,0.3,0.143,0.012,100.0,4.0,,0.0,0.0,
2025-08-15T03:56:46.956Z,2,GR86-037-03,0.3,0.137,-0.006,100.01,4.0,,0.0,0.0,
2025-08-15T03:56:46.999Z,2,GR86-037-03,0.7000000000000001,0.129,-0.004,100.02,4.0,6476.0,0.0,0.0,
2025-08-15T03:56:47.044Z,2,GR86-037-03,1.0,0.165,-0.002,100.01,4.0,,0.0,0.0,165.34
2025-08-15T03:56:47.087Z,2,GR86-037-03,1.0,0.163,-0.021,100.0,4.0,,0.0,0.0,
2025-08-15T03:56:47.130Z,2,GR86-037-03,1.0,0.154,-0.038,99.99,4.0,,0.0,0.0,
2025-08-15T03:56:47.173Z,2,GR86-037-03,0.9,0.154,-0.04,100.01,4.0,,0.0,0.0,
2025-08-15T03:56:47.216Z,2,GR86-037-03,0.1,0.132,-0.048,100.02,4.0,6520.0,0.0,0.0,
2025-08-15T03:56:47.259Z,2,GR86-037-03,-0.6000000000000001,0.121,-0.049,100.01,4.0,,0.0,0.0,166.33
2025-08-15T03:56:47.302Z,2,GR86-037-03,-0.7000000000000001,0.154,-0.048,100.0,4.0,,0.0,0.0,
2025-08-15T03:56:47.345Z,2,GR86-037-03,0.3,0.158,-0.038,100.01,4.0,,0.0,0.0,
2025-08-15T03:56:47.388Z,2,GR86-037-03,2.4000000000000004,0.146,-0.041,99.98,4.0,,0.0,0.0,
2025-08-15T03:56:47.431Z,2,GR86-037-03,2.9000000000000004,0.141,-0.034,99.98,4.0,6563.0,0.0,0.0,
2025-08-15T03:56:47.474Z,2,GR86-037-03,2.9000000000000004,0.118,-0.032,100.01,4.0,,0.0,0.0,167.37
2025-08-15T03:56:47.517Z,2,GR86-037-03,2.9000000000000004,0.116,-0.021,99.99,4.0,,0.0,0.0,
2025-08-15T03:56:47.560Z,2,GR86-037-03,2.3000000000000003,0.11,0.006,100.02,4.0,,0.0,0.0,
2025-08-15T03:56:47.604Z,2,GR86-037-03,1.7000000000000002,0.167,0.011,100.02,4.0,,0.0,0.0,
2025-08-15T03:56:47.647Z,2,GR86-037-03,1.7000000000000002,0.147,0.032,100.01,4.0,6601.0,0.0,0.0,
2025-08-15T03:56:47.690Z,2,GR86-037-03,1.7000000000000002,0.154,0.012,100.01,4.0,,0.0,0.0,168.31
2025-08-15T03:56:47.734Z,2,GR86-037-03,1.7000000000000002,0.147,0.02,100.02,4.0,,0.0,0.0,
2025-08-15T03:56:47.777Z,2,GR86-037-03,1.7000000000000002,0.128,0.02,100.0,4.0,,0.0,0.0,
2025-08-15T03:56:47.820Z,2,GR86-037-03,1.7000000000000002,0.13,0.027,99.99,4.0,,0.0,0.0,
2025-08-15T03:56:47.864Z,2,GR86-037-03,1.7000000000000002,0.153,0.036,100.0,4.0,6631.0,0.0,0.0,
2025-08-15T03:56:47.906Z,2,GR86-037-03,0.8,0.168,0.036,100.01,4.0,,0.0,0.0,169.22
2025-08-15T03:56:47.949Z,2,GR86-037-03,-0.6000000000000001,0.165,0.007,100.01,4.0,,0.0,0.0,
2025-08-15T03:56:47.992Z,2,GR86-037-03,-0.7000000000000001,0.166,-0.006,100.01,4.0,,0.0,0.0,
2025-08-15T03:56:48.035Z,2,GR86-037-03,-0.7000000000000001,0.152,-0.018,100.0,4.0,,0.0,0.0,
2025-08-15T03:56:48.078Z,2,GR86-037-03,-0.7000000000000001,0.153,-0.033,100.01,4.0,6665.0,0.0,0.0,
2025-08-15T03:56:48.121Z,2,GR86-037-03,0.1,0.136,-0.045,100.0,4.0,,0.0,0.0,170.12
2025-08-15T03:56:48.164Z,2,GR86-037-03,0.3,0.147,-0.011,99.99,4.0,,0.0,0.0,
2025-08-15T03:56:48.207Z,2,GR86-037-03,1.7000000000000002,0.156,-0.031,99.99,4.0,,0.0,0.0,
2025-08-15T03:56:48.250Z,2,GR86-037-03,2.4000000000000004,0.154,-0.027,99.99,4.0,,0.0,0.0,
2025-08-15T03:56:48.293Z,2,GR86-037-03,2.4000000000000004,0.162,-0.056,100.0,4.0,6696.0,0.0,0.0,
2025-08-15T03:56:48.336Z,2,GR86-037-03,2.4000000000000004,0.162,-0.057,100.01,4.0,,0.0,0.0,171.05
2025-08-15T03:56:48.379Z,2,GR86-037-03,0.7000000000000001,0.175,-0.036,99.98,4.0,,0.0,0.0,
2025-08-15T03:56:48.423Z,2,GR86-037-03,0.0,0.112,0.007,100.02,4.0,,0.0,0.0,
2025-08-15T03:56:48.465Z,2,GR86-037-03,0.8,0.125,0.022,100.0,4.0,,0.0,0.0,
2025-08-15T03:56:48.508Z,2,GR86-037-03,2.3000000000000003,0.127,0.015,100.01,4.0,6733.0,0.0,0.0,
2025-08-15T03:56:48.551Z,2,GR86-037-03,2.4000000000000004,0.128,0.01,99.98,4.0,,0.0,0.0,173.02
2025-08-15T03:56:48.594Z,2,GR86-037-03,2.4000000000000004,0.149,-0.006,100.0,4.0,,0.0,0.0,
2025-08-15T03:56:48.637Z,2,GR86-037-03,2.4000000000000004,0.135,-0.011,100.01,4.0,,0.0,0.0,
2025-08-15T03:56:48.680Z,2,GR86-037-03,2.4000000000000004,0.158,-0.023,99.99,4.0,,0.0,0.0,
2025-08-15T03:56:48.724Z,2,GR86-037-03,2.4000000000000004,0.105,0.001,99.99,4.0,6777.0,0.0,0.0,
2025-08-15T03:56:48.767Z,2,GR86-037-03,2.4000000000000004,0.097,0.01,100.01,4.0,,0.0,0.0,173.78
2025-08-15T03:56:48.810Z,2,GR86-037-03,2.4000000000000004,0.108,0.02,100.0,4.0,,0.0,0.0,
2025-08-15T03:56:48.853Z,2,GR86-037-03,2.4000000000000004,0.109,0.006,100.0,4.0,,0.0,0.0,
2025-08-15T03:56:48.896Z,2,GR86-037-03,2.4000000000000004,0.115,0.023,100.0,4.0,,0.0,0.0,
2025-08-15T03:56:48.939Z,2,GR86-037-03,2.7,0.107,0.023,100.0,4.0,6817.0,0.0,0.0,
2025-08-15T03:56:48.983Z,2,GR86-037-03,2.8000000000000003,0.148,0.044,100.01,4.0,,0.0,0.0,174.8
2025-08-15T03:56:49.025Z,2,GR86-037-03,2.8000000000000003,0.144,0.046,100.01,4.0,,0.0,0.0,
2025-08-15T03:56:49.068Z,2,GR86-037-03,2.8000000000000003,0.139,0.052,100.0,4.0,,0.0,0.0,
2025-08-15T03:56:49.111Z,2,GR86-037-03,2.8000000000000003,0.119,0.045,99.98,4.0,,0.0,0.0,
2025-08-15T03:56:49.154Z,2,GR86-037-03,2.8000000000000003,0.12,0.057,99.98,4.0,6884.0,0.0,0.0,
2025-08-15T03:56:49.197Z,2,GR86-037-03,2.8000000000000003,0.127,0.042,100.01,4.0,,0.0,0.0,175.75
2025-08-15T03:56:49.240Z,2,GR86-037-03,2.8000000000000003,0.118,0.037,99.99,4.0,,0.0,0.0,
2025-08-15T03:56:49.326Z,2,GR86-037-03,2.8000000000000003,0.149,0.026,99.99,4.0,,0.0,0.0,
2025-08-15T03:56:49.369Z,2,GR86-037-03,1.7000000000000002,0.142,0.044,99.99,4.0,6917.0,0.0,0.0,
2025-08-15T03:56:49.413Z,2,GR86-037-03,1.7000000000000002,0.158,0.058,99.98,4.0,,0.0,0.0,176.65
2025-08-15T03:56:49.456Z,2,GR86-037-03,1.7000000000000002,0.152,0.042,99.99,4.0,,0.0,0.0,
2025-08-15T03:56:49.499Z,2,GR86-037-03,1.7000000000000002,0.158,0.027,99.99,4.0,,0.0,0.0,
2025-08-15T03:56:49.544Z,2,GR86-037-03,1.7000000000000002,0.115,0.023,100.0,4.0,,0.0,0.0,
2025-08-15T03:56:49.587Z,2,GR86-037-03,1.7000000000000002,0.113,0.029,100.01,4.0,6954.0,0.0,0.0,
2025-08-15T03:56:49.630Z,2,GR86-037-03,1.7000000000000002,0.105,0.023,100.02,4.0,,0.0,0.0,177.63
2025-08-15T03:56:49.673Z,2,GR86-037-03,1.7000000000000002,0.109,0.027,100.01,4.0,,0.0,0.0,
2025-08-15T03:56:49.716Z,2,GR86-037-03,1.7000000000000002,0.115,0.012,100.0,4.0,,0.0,0.0,
2025-08-15T03:56:49.759Z,2,GR86-037-03,1.8,0.103,0.016,100.01,4.0,,0.0,0.0,
2025-08-15T03:56:49.803Z,2,GR86-037-03,1.8,0.14,0.015,99.99,4.0,6992.0,0.0,0.0,
2025-08-15T03:56:49.847Z,2,GR86-037-03,1.8,0.137,0.019,100.0,4.0,,0.0,0.0,178.55
2025-08-15T03:56:49.890Z,2,GR86-037-03,1.8,0.139,0.001,100.02,4.0,,0.0,0.0,
2025-08-15T03:56:49.933Z,2,GR86-037-03,1.8,0.135,-0.002,100.02,4.0,,0.0,0.0,
2025-08-15T03:56:49.976Z,2,GR86-037-03,1.8,0.13,0.001,99.99,4.0,,0.0,0.0,
2025-08-15T03:56:50.019Z,2,GR86-037-03,1.8,0.141,-0.016,100.01,4.0,7027.0,0.0,0.0,
2025-08-15T03:56:50.063Z,2,GR86-037-03,1.8,0.111,-0.016,100.01,4.0,,0.0,0.0,179.48
2025-08-15T03:56:50.106Z,2,GR86-037-03,1.8,0.108,-0.018,99.99,4.0,,0.0,0.0,
2025-08-15T03:56:50.149Z,2,GR86-037-03,1.8,0.102,0.004,100.03,4.0,,0.0,0.0,
2025-08-15T03:56:50.192Z,2,GR86-037-03,2.2,0.097,0.006,100.01,4.0,,0.0,0.0,
2025-08-15T03:56:50.235Z,2,GR86-037-03,2.8000000000000003,0.112,0.018,100.01,4.0,7065.0,0.0,0.0,
2025-08-15T03:56:50.278Z,2,GR86-037-03,2.9000000000000004,0.114,0.014,99.99,4.0,,0.0,0.0,180.43
2025-08-15T03:56:50.323Z,2,GR86-037-03,2.9000000000000004,0.12,0.045,100.01,4.0,,0.0,0.0,
2025-08-15T03:56:50.365Z,2,GR86-037-03,2.9000000000000004,0.126,0.058,100.0,4.0,,0.0,0.0,
2025-08-15T03:56:50.408Z,2,GR86-037-03,2.9000000000000004,0.126,0.075,100.0,4.0,,0.0,0.0,
2025-08-15T03:56:50.451Z,2,GR86-037-03,2.9000000000000004,0.12,0.05,100.01,4.0,7093.0,0.0,0.0,
2025-08-15T03:56:50.494Z,2,GR86-037-03,2.9000000000000004,0.129,0.039,100.0,4.0,,0.0,0.0,181.25
2025-08-15T03:56:50.537Z,2,GR86-037-03,2.9000000000000004,0.12,0.028,100.0,4.0,,0.0,0.0,
2025-08-15T03:56:50.580Z,2,GR86-037-03,2.9000000000000004,0.115,0.046,100.02,4.0,,0.0,0.0,
2025-08-15T03:56:50.624Z,2,GR86-037-03,2.9000000000000004,0.115,0.087,99.99,4.0,,0.0,0.0,
2025-08-15T03:56:50.666Z,2,GR86-037-03,2.9000000000000004,0.115,0.064,100.02,4.0,7129.0,0.0,0.0,
2025-08-15T03:56:50.709Z,2,GR86-037-03,3.4000000000000004,0.123,0.058,100.01,4.0,,0.0,0.0,182.08
2025-08-15T03:56:50.752Z,2,GR86-037-03,3.8,0.107,0.05,100.01,4.0,,0.0,0.0,
2025-08-15T03:56:50.795Z,2,GR86-037-03,3.8,0.118,0.056,100.01,4.0,,0.0,0.0,
2025-08-15T03:56:50.838Z,2,GR86-037-03,3.3000000000000003,0.102,0.052,99.99,4.0,,0.0,0.0,
2025-08-15T03:56:50.881Z,2,GR86-037-03,2.6,0.109,0.064,100.01,4.0,7164.0,0.0,0.0,
2025-08-15T03:56:50.924Z,2,GR86-037-03,2.6,0.128,0.061,99.99,4.0,,0.0,0.0,182.87
2025-08-15T03:56:50.967Z,2,GR86-037-03,2.6,0.131,0.054,100.02,4.0,,0.0,0.0,
2025-08-15T03:56:51.010Z,2,GR86-037-03,2.6,0.113,0.062,100.01,4.0,,0.0,0.0,
2025-08-15T03:56:51.053Z,2,GR86-037-03,1.8,0.129,0.049,100.01,4.0,,0.0,0.0,
2025-08-15T03:56:51.096Z,2,GR86-037-03,1.2000000000000002,0.126,0.053,86.04,4.0,7197.0,0.0,0.0,
2025-08-15T03:56:51.139Z,2,GR86-037-03,1.1,0.118,0.032,15.71,4.0,,0.0,0.0,183.73
2025-08-15T03:56:51.184Z,2,GR86-037-03,1.1,0.093,-0.002,2.34,4.0,,0.0,0.0,
2025-08-15T03:56:51.227Z,2,GR86-037-03,1.1,-0.149,-0.001,2.2,4.0,,0.0,0.0,
2025-08-15T03:56:51.270Z,2,GR86-037-03,0.6000000000000001,-0.178,0.028,2.17,4.0,,2.045,2.4250000000000003,
2025-08-15T03:56:51.313Z,2,GR86-037-03,-0.6000000000000001,-0.472,-0.055,2.2,4.0,7229.0,2.395,2.795,
2025-08-15T03:56:51.356Z,2,GR86-037-03,-1.1,-0.213,-0.036,2.23,4.0,,3.28,3.935,185.41
2025-08-15T03:56:51.399Z,2,GR86-037-03,-2.0,-0.159,-0.08,2.23,4.0,,10.745,11.065,
2025-08-15T03:56:51.444Z,2,GR86-037-03,-5.6000000000000005,-0.37,-0.126,2.27,4.0,,16.97,17.03,
2025-08-15T03:56:51.487Z,2,GR86-037-03,-7.300000000000001,-0.584,-0.149,2.29,4.0,,24.675,24.765,
2025-08-15T03:56:51.530Z,2,GR86-037-03,-7.4,-0.756,-0.188,2.29,4.0,7263.0,34.96,34.87,
2025-08-15T03:56:51.574Z,2,GR86-037-03,-4.3,-0.845,-0.15,2.32,4.0,,44.225,43.795,186.02
2025-08-15T03:56:51.617Z,2,GR86-037-03,1.0,-0.937,-0.166,2.32,4.0,,48.620000000000005,48.42,
2025-08-15T03:56:51.660Z,2,GR86-037-03,4.6000000000000005,-0.965,-0.101,2.35,4.0,,51.09,50.875,
2025-08-15T03:56:51.704Z,2,GR86-037-03,4.2,-1.129,-0.066,2.36,4.0,,65.205,64.49,
2025-08-15T03:56:51.747Z,2,GR86-037-03,2.5,-1.226,-0.017,2.39,4.0,7052.0,70.365,69.875,
2025-08-15T03:56:51.790Z,2,GR86-037-03,2.1,-1.201,-0.021,2.39,4.0,,60.735,62.095,183.82
2025-08-15T03:56:51.833Z,2,GR86-037-03,0.6000000000000001,-1.024,-0.032,2.39,4.0,,49.275,51.245000000000005,
2025-08-15T03:56:51.876Z,2,GR86-037-03,-2.8000000000000003,-0.931,-0.048,2.42,4.0,,45.81,46.62,
2025-08-15T03:56:51.919Z,2,GR86-037-03,-7.0,-1.114,-0.059,2.42,4.0,,44.225,44.835,
2025-08-15T03:56:51.963Z,2,GR86-037-03,-10.2,-0.8240000000000001,-0.122,2.44,4.0,6582.0,43.795,44.71,
2025-08-15T03:56:52.006Z,2,GR86-037-03,-9.5,-0.95,-0.16,2.45,4.0,,43.11,43.355,177.87
2025-08-15T03:56:52.049Z,2,GR86-037-03,-6.1000000000000005,-0.952,-0.156,2.45,4.0,,43.02,43.295,
2025-08-15T03:56:52.092Z,2,GR86-037-03,-1.8,-0.909,-0.159,2.45,4.0,,43.825,44.025,
2025-08-15T03:56:52.135Z,2,GR86-037-03,0.5,-0.951,-0.159,2.45,4.0,,46.925,46.925,
2025-08-15T03:56:52.179Z,2,GR86-037-03,0.6000000000000001,-1.03,-0.104,2.45,4.0,6415.0,50.585,50.525,
2025-08-15T03:56:52.223Z,2,GR86-037-03,-1.6,-1.037,-0.145,2.45,4.0,,51.535,51.99,170.38
2025-08-15T03:56:52.265Z,2,GR86-037-03,-5.1000000000000005,-1.025,-0.157,2.47,4.0,,52.175,52.405,
2025-08-15T03:56:52.308Z,2,GR86-037-03,-11.2,-1.055,-0.175,32.43,4.0,,54.14,54.175,
2025-08-15T03:56:52.351Z,2,GR86-037-03,-17.3,-1.058,-0.233,78.98,4.0,,57.745000000000005,57.44,
2025-08-15T03:56:52.394Z,2,GR86-037-03,-19.1,-1.118,-0.3,94.9,3.0,6138.0,61.91,61.515,
2025-08-15T03:56:52.437Z,2,GR86-037-03,-20.3,-1.167,-0.349,31.86,3.0,,66.825,67.36,164.05
2025-08-15T03:56:52.480Z,2,GR86-037-03,-21.6,-1.232,-0.373,3.45,3.0,,73.875,75.75,
2025-08-15T03:56:52.524Z,2,GR86-037-03,-21.9,-0.966,-0.435,2.57,3.0,,80.375,80.94,
2025-08-15T03:56:52.566Z,2,GR86-037-03,-19.200000000000003,-1.165,-0.429,2.46,3.0,,83.18,83.275,
2025-08-15T03:56:52.609Z,2,GR86-037-03,-16.0,-1.152,-0.434,2.45,3.0,5846.0,88.615,90.295,
2025-08-15T03:56:52.653Z,2,GR86-037-03,-12.1,-0.967,-0.761,2.45,3.0,,83.015,83.275,157.23
2025-08-15T03:56:52.697Z,2,GR86-037-03,-4.3,-1.015,-0.6990000000000001,2.45,3.0,,68.44,69.675,
2025-08-15T03:56:52.740Z,2,GR86-037-03,4.6000000000000005,-0.929,-0.438,2.45,3.0,,54.325,56.34,
2025-08-15T03:56:52.784Z,2,GR86-037-03,3.5,-0.921,-0.594,2.45,3.0,,38.9,39.995,
2025-08-15T03:56:52.826Z,2,GR86-037-03,-14.4,-0.916,-0.513,2.45,3.0,6121.0,30.995,31.8,
2025-08-15T03:56:52.869Z,2,GR86-037-03,-24.5,-0.6880000000000001,-0.556,2.45,3.0,,29.27,29.805,147.76
2025-08-15T03:56:52.913Z,2,GR86-037-03,-34.5,-0.7020000000000001,-0.662,2.45,3.0,,30.855,31.235,
2025-08-15T03:56:52.956Z,2,GR86-037-03,-38.5,-0.73,-0.662,2.45,3.0,,29.5,30.215,
2025-08-15T03:56:52.999Z,2,GR86-037-03,-40.8,-0.68,-0.755,2.45,3.0,,20.295,21.12,
2025-08-15T03:56:53.044Z,2,GR86-037-03,-44.5,-0.458,-0.85,2.45,3.0,6169.0,14.51,15.0,
2025-08-15T03:56:53.087Z,2,GR86-037-03,-46.7,-0.467,-0.876,2.45,3.0,,15.75,16.025,138.6
2025-08-15T03:56:53.130Z,2,GR86-037-03,-45.900000000000006,-0.473,-0.926,2.45,3.0,,16.830000000000002,17.06,
2025-08-15T03:56:53.173Z,2,GR86-037-03,-42.1,-0.489,-0.993,2.45,3.0,,17.245,17.52,
2025-08-15T03:56:53.216Z,2,GR86-037-03,-33.2,-0.482,-1.042,2.45,3.0,,15.93,16.555,
2025-08-15T03:56:53.259Z,2,GR86-037-03,-27.9,-0.498,-1.018,2.45,3.0,6098.0,11.245,11.705,
2025-08-15T03:56:53.302Z,2,GR86-037-03,-36.5,-0.295,-1.091,2.45,3.0,,6.6850000000000005,7.11,136.38
2025-08-15T03:56:53.345Z,2,GR86-037-03,-40.3,-0.35,-1.106,2.45,3.0,,10.345,10.47,
2025-08-15T03:56:53.388Z,2,GR86-037-03,-42.900000000000006,-0.368,-1.153,2.45,3.0,,12.59,12.805,
2025-08-15T03:56:53.431Z,2,GR86-037-03,-42.900000000000006,-0.369,-1.159,2.45,3.0,,13.4,13.61,
2025-08-15T03:56:53.474Z,2,GR86-037-03,-43.5,-0.42,-1.147,2.45,3.0,5987.0,11.215,11.735,
2025-08-15T03:56:53.517Z,2,GR86-037-03,-47.8,-0.424,-1.224,2.45,3.0,,3.34,3.785,133.03
2025-08-15T03:56:53.560Z,2,GR86-037-03,-56.7,-0.274,-1.337,2.46,3.0,,0.0,0.0,
2025-08-15T03:56:53.604Z,2,GR86-037-03,-62.6,-0.185,-1.263,2.45,3.0,,0.0,0.0,
2025-08-15T03:56:53.647Z,2,GR86-037-03,-63.8,-0.181,-1.257,2.45,3.0,,0.0,0.0,
2025-08-15T03:56:53.690Z,2,GR86-037-03,-65.10000000000001,-0.191,-1.223,2.45,3.0,5797.0,0.0,0.0,
2025-08-15T03:56:53.734Z,2,GR86-037-03,-65.9,-0.208,-1.372,7.5,3.0,,0.0,0.0,130.28
2025-08-15T03:56:53.777Z,2,GR86-037-03,-65.60000000000001,-0.213,-1.399,26.74,3.0,,0.0,0.0,
2025-08-15T03:56:53.820Z,2,GR86-037-03,-62.5,-0.197,-1.354,48.31,3.0,,0.0,0.0,
2025-08-15T03:56:53.864Z,2,GR86-037-03,-54.0,-0.131,-1.309,96.36,3.0,,0.0,0.0,
2025-08-15T03:56:53.906Z,2,GR86-037-03,-41.6,-0.124,-1.319,99.61,3.0,5628.0,0.0,0.0,
2025-08-15T03:56:53.949Z,2,GR86-037-03,-34.800000000000004,0.026,-1.341,99.73,3.0,,0.0,0.0,125.1
2025-08-15T03:56:53.992Z,2,GR86-037-03,-30.6,0.256,-1.273,99.84,3.0,,0.0,0.0,
2025-08-15T03:56:54.035Z,2,GR86-037-03,-31.9,0.178,-1.271,99.97,3.0,,0.0,0.0,
2025-08-15T03:56:54.078Z,2,GR86-037-03,-32.5,0.166,-1.26,100.02,3.0,,0.0,0.0,
2025-08-15T03:56:54.123Z,2,GR86-037-03,-24.9,0.163,-1.31,95.35,3.0,5588.0,0.0,0.0,
2025-08-15T03:56:54.166Z,2,GR86-037-03,-14.4,0.173,-1.312,96.04,3.0,,0.0,0.0,123.5
2025-08-15T03:56:54.209Z,2,GR86-037-03,-2.2,0.186,-1.325,99.66,3.0,,0.0,0.0,
2025-08-15T03:56:54.252Z,2,GR86-037-03,5.2,0.205,-1.286,100.04,3.0,,0.0,0.0,
2025-08-15T03:56:54.295Z,2,GR86-037-03,7.300000000000001,0.213,-1.234,100.04,3.0,,0.0,0.0,
2025-08-15T03:56:54.338Z,2,GR86-037-03,-0.7000000000000001,0.184,-1.304,100.04,3.0,5985.0,0.0,0.0,
2025-08-15T03:56:54.381Z,2,GR86-037-03,-4.2,0.174,-1.312,100.05,3.0,,0.0,0.0,122.68
2025-08-15T03:56:54.424Z,2,GR86-037-03,3.7,0.165,-1.218,100.05,3.0,,0.0,0.0,
2025-08-15T03:56:54.467Z,2,GR86-037-03,15.5,0.215,-1.306,100.03,3.0,,0.0,0.0,
2025-08-15T03:56:54.510Z,2,GR86-037-03,25.8,0.183,-1.253,100.03,3.0,,0.0,0.0,
2025-08-15T03:56:54.553Z,2,GR86-037-03,26.8,0.218,-1.257,100.03,3.0,6008.0,0.0,0.0,
2025-08-15T03:56:54.596Z,2,GR86-037-03,27.0,0.277,-1.24,100.03,3.0,,0.0,0.0,123.23
2025-08-15T03:56:54.639Z,2,GR86-037-03,33.1,0.227,-1.184,100.03,3.0,,0.0,0.0,
2025-08-15T03:56:54.683Z,2,GR86-037-03,32.7,0.247,-1.164,100.03,3.0,,0.0,0.0,
2025-08-15T03:56:54.725Z,2,GR86-037-03,20.8,0.263,-1.123,100.04,3.0,,0.0,0.0,
2025-08-15T03:56:54.768Z,2,GR86-037-03,-12.2,0.255,-1.22,100.04,3.0,6110.0,0.0,0.0,
2025-08-15T03:56:54.811Z,2,GR86-037-03,-42.1,0.237,-1.242,100.04,3.0,,0.0,0.0,123.84
2025-08-15T03:56:54.854Z,2,GR86-037-03,-62.900000000000006,0.149,-1.223,100.02,3.0,,0.0,0.0,
2025-08-15T03:56:54.897Z,2,GR86-037-03,-67.9,0.113,-1.199,100.02,3.0,,0.0,0.0,
2025-08-15T03:56:54.940Z,2,GR86-037-03,-66.3,0.163,-1.222,100.02,3.0,,0.0,0.0,
2025-08-15T03:56:54.984Z,2,GR86-037-03,-62.900000000000006,0.233,-1.262,100.02,3.0,6018.0,0.0,0.0,
2025-08-15T03:56:55.026Z,2,GR86-037-03,-62.6,0.211,-1.244,100.02,3.0,,0.0,0.0,124.73
2025-08-15T03:56:55.070Z,2,GR86-037-03,-62.6,0.126,-1.162,100.02,3.0,,0.0,0.0,
2025-08-15T03:56:55.113Z,2,GR86-037-03,-64.5,0.109,-1.089,100.04,3.0,,0.0,0.0,
2025-08-15T03:56:55.156Z,2,GR86-037-03,-66.5,0.142,-1.123,100.03,3.0,,0.0,0.0,
2025-08-15T03:56:55.199Z,2,GR86-037-03,-66.8,0.157,-1.121,100.04,3.0,6028.0,0.0,0.0,
2025-08-15T03:56:55.244Z,2,GR86-037-03,-63.900000000000006,0.127,-1.167,100.03,3.0,,0.0,0.0,124.46
2025-08-15T03:56:55.287Z,2,GR86-037-03,-57.2,0.119,-1.203,100.04,3.0,,0.0,0.0,
2025-08-15T03:56:55.330Z,2,GR86-037-03,-48.2,0.135,-1.275,100.02,3.0,,0.0,0.0,
2025-08-15T03:56:55.373Z,2,GR86-037-03,-40.8,0.152,-1.267,100.04,3.0,,0.0,0.0,
2025-08-15T03:56:55.416Z,2,GR86-037-03,-35.6,0.159,-1.243,100.03,3.0,5928.0,0.0,0.0,
2025-08-15T03:56:55.459Z,2,GR86-037-03,-31.1,0.156,-1.249,100.03,3.0,,0.0,0.0,124.9
2025-08-15T03:56:55.503Z,2,GR86-037-03,-22.5,0.176,-1.187,100.0,3.0,,0.0,0.0,
2025-08-15T03:56:55.547Z,2,GR86-037-03,-14.6,0.172,-1.189,100.01,3.0,,0.0,0.0,
2025-08-15T03:56:55.590Z,2,GR86-037-03,-6.800000000000001,0.179,-1.154,100.01,3.0,,0.0,0.0,
2025-08-15T03:56:55.633Z,2,GR86-037-03,-4.7,0.193,-1.11,100.01,3.0,6023.0,0.0,0.0,
2025-08-15T03:56:55.676Z,2,GR86-037-03,-10.7,0.197,-1.106,100.02,3.0,,0.0,0.0,126.57
2025-08-15T03:56:55.719Z,2,GR86-037-03,-22.4,0.22,-1.064,100.02,3.0,,0.0,0.0,
2025-08-15T03:56:55.764Z,2,GR86-037-03,-43.0,0.206,-1.092,100.03,3.0,,0.0,0.0,
2025-08-15T03:56:55.807Z,2,GR86-037-03,-51.900000000000006,0.181,-1.104,100.02,3.0,,0.0,0.0,
2025-08-15T03:56:55.850Z,2,GR86-037-03,-54.400000000000006,0.141,-1.126,100.01,3.0,6071.0,0.0,0.0,
2025-08-15T03:56:55.894Z,2,GR86-037-03,-54.3,0.14,-1.126,100.01,3.0,,0.0,0.0,128.87
2025-08-15T03:56:55.937Z,2,GR86-037-03,-53.400000000000006,0.159,-1.089,100.01,3.0,,0.0,0.0,
2025-08-15T03:56:55.980Z,2,GR86-037-03,-52.1,0.147,-1.049,100.01,3.0,,0.0,0.0,
2025-08-15T03:56:56.024Z,2,GR86-037-03,-45.8,0.157,-1.087,100.02,3.0,,0.0,0.0,
2025-08-15T03:56:56.066Z,2,GR86-037-03,-40.400000000000006,0.142,-1.088,100.02,3.0,6075.0,0.0,0.0,
2025-08-15T03:56:56.109Z,2,GR86-037-03,-37.4,0.168,-1.064,100.01,3.0,,0.0,0.0,128.87
2025-08-15T03:56:56.152Z,2,GR86-037-03,-37.0,0.195,-1.089,100.01,3.0,,0.0,0.0,
2025-08-15T03:56:56.195Z,2,GR86-037-03,-37.0,0.178,-1.068,100.02,3.0,,0.0,0.0,
2025-08-15T03:56:56.238Z,2,GR86-037-03,-37.3,0.181,-0.985,100.01,3.0,,0.0,0.0,
2025-08-15T03:56:56.281Z,2,GR86-037-03,-39.2,0.228,-0.7000000000000001,100.0,3.0,6083.0,0.0,0.0,
2025-08-15T03:56:56.324Z,2,GR86-037-03,-39.5,0.037,-0.512,100.02,3.0,,0.0,0.0,129.46
2025-08-15T03:56:56.367Z,2,GR86-037-03,-39.400000000000006,0.078,-0.525,99.99,3.0,,0.0,0.0,
2025-08-15T03:56:56.410Z,2,GR86-037-03,-38.1,0.143,-0.597,100.02,3.0,,0.0,0.0,
2025-08-15T03:56:56.453Z,2,GR86-037-03,-34.6,0.226,-0.849,99.99,3.0,,0.0,0.0,
2025-08-15T03:56:56.496Z,2,GR86-037-03,-25.4,0.343,-0.6880000000000001,99.99,3.0,6196.0,0.0,0.0,
2025-08-15T03:56:56.539Z,2,GR86-037-03,-11.9,0.243,-0.602,100.01,3.0,,0.0,0.0,130.68
2025-08-15T03:56:56.584Z,2,GR86-037-03,8.200000000000001,0.228,-0.943,99.99,3.0,,0.0,0.0,
2025-08-15T03:56:56.627Z,2,GR86-037-03,9.5,0.359,-0.789,100.01,3.0,,0.0,0.0,
2025-08-15T03:56:56.670Z,2,GR86-037-03,5.6000000000000005,0.2,-0.905,100.01,3.0,,0.0,0.0,
2025-08-15T03:56:56.713Z,2,GR86-037-03,7.9,0.173,-0.839,99.99,3.0,6220.0,0.0,0.0,
2025-08-15T03:56:56.756Z,2,GR86-037-03,13.2,0.177,-0.995,100.02,3.0,,0.0,0.0,132.48
2025-08-15T03:56:56.799Z,2,GR86-037-03,11.2,0.256,-0.5730000000000001,100.01,3.0,,0.0,0.0,
2025-08-15T03:56:56.844Z,2,GR86-037-03,-16.900000000000002,0.198,-0.378,100.0,3.0,,0.0,0.0,
2025-08-15T03:56:56.887Z,2,GR86-037-03,-43.5,0.211,-0.579,99.99,3.0,,0.0,0.0,
2025-08-15T03:56:56.930Z,2,GR86-037-03,-61.3,0.16,-0.706,100.01,3.0,6329.0,0.0,0.0,
2025-08-15T03:56:56.974Z,2,GR86-037-03,-62.2,0.156,-0.676,100.0,3.0,,0.0,0.0,133.81
2025-08-15T03:56:57.017Z,2,GR86-037-03,-53.0,0.11,-0.662,100.0,3.0,,0.0,0.0,
2025-08-15T03:56:57.060Z,2,GR86-037-03,-43.0,0.107,-0.791,99.98,3.0,,0.0,0.0,
2025-08-15T03:56:57.103Z,2,GR86-037-03,-30.3,0.154,-0.864,99.98,3.0,,0.0,0.0,
2025-08-15T03:56:57.146Z,2,GR86-037-03,-21.4,0.12,-0.93,99.99,3.0,6334.0,0.0,0.0,
2025-08-15T03:56:57.189Z,2,GR86-037-03,-12.6,0.118,-0.892,99.99,3.0,,0.0,0.0,134.95
2025-08-15T03:56:57.232Z,2,GR86-037-03,-8.8,0.147,-0.941,100.02,3.0,,0.0,0.0,
2025-08-15T03:56:57.275Z,2,GR86-037-03,-8.6,0.186,-0.98,99.99,3.0,,0.0,0.0,
2025-08-15T03:56:57.318Z,2,GR86-037-03,-2.1,0.162,-1.059,99.99,3.0,,0.0,0.0,
2025-08-15T03:56:57.363Z,2,GR86-037-03,15.1,0.201,-1.135,100.0,3.0,6492.0,0.0,0.0,
2025-08-15T03:56:57.406Z,2,GR86-037-03,16.900000000000002,0.27,-1.016,100.01,3.0,,0.0,0.0,136.49
2025-08-15T03:56:57.449Z,2,GR86-037-03,3.0,0.255,-0.946,99.99,3.0,,0.0,0.0,
2025-08-15T03:56:57.492Z,2,GR86-037-03,-19.1,0.226,-0.985,100.01,3.0,,0.0,0.0,
2025-08-15T03:56:57.535Z,2,GR86-037-03,-39.400000000000006,0.174,-0.975,99.99,3.0,,0.0,0.0,
2025-08-15T03:56:57.579Z,2,GR86-037-03,-49.400000000000006,0.127,-0.948,100.0,3.0,6648.0,0.0,0.0,
2025-08-15T03:56:57.623Z,2,GR86-037-03,-46.0,0.153,-0.792,99.98,3.0,,0.0,0.0,138.11
2025-08-15T03:56:57.665Z,2,GR86-037-03,-39.7,0.13,-0.85,100.01,3.0,,0.0,0.0,
2025-08-15T03:56:57.708Z,2,GR86-037-03,-33.1,0.156,-0.764,100.02,3.0,,0.0,0.0,
2025-08-15T03:56:57.751Z,2,GR86-037-03,-25.5,0.165,-0.658,99.99,3.0,,0.0,0.0,
2025-08-15T03:56:57.794Z,2,GR86-037-03,-15.9,0.13,-0.79,100.01,3.0,6491.0,0.0,0.0,
2025-08-15T03:56:57.837Z,2,GR86-037-03,-7.2,0.119,-0.794,99.98,3.0,,0.0,0.0,138.58
2025-08-15T03:56:57.880Z,2,GR86-037-03,-4.3,0.199,-0.732,100.01,3.0,,0.0,0.0,
2025-08-15T03:56:57.924Z,2,GR86-037-03,-9.1,0.226,-0.769,99.98,3.0,,0.0,0.0,
2025-08-15T03:56:57.966Z,2,GR86-037-03,-14.9,0.207,-0.665,100.0,3.0,,0.0,0.0,
2025-08-15T03:56:58.009Z,2,GR86-037-03,-16.2,0.202,-0.712,100.01,3.0,6554.0,0.0,0.0,
2025-08-15T03:56:58.053Z,2,GR86-037-03,-10.4,0.155,-0.6940000000000001,100.01,3.0,,0.0,0.0,139.41
2025-08-15T03:56:58.095Z,2,GR86-037-03,-1.3,0.176,-0.47,100.01,3.0,,0.0,0.0,
2025-08-15T03:56:58.138Z,2,GR86-037-03,3.7,0.229,-0.212,100.01,3.0,,0.0,0.0,
2025-08-15T03:56:58.181Z,2,GR86-037-03,3.5,0.198,-0.193,99.99,3.0,,0.0,0.0,
2025-08-15T03:56:58.224Z,2,GR86-037-03,2.2,0.113,-0.045,100.0,3.0,6595.0,0.0,0.0,
2025-08-15T03:56:58.267Z,2,GR86-037-03,3.6,0.038,-0.13,100.01,3.0,,0.0,0.0,140.83
2025-08-15T03:56:58.310Z,2,GR86-037-03,5.4,0.173,-0.164,100.01,3.0,,0.0,0.0,
2025-08-15T03:56:58.354Z,2,GR86-037-03,6.4,0.32,-0.23,99.99,3.0,,0.0,0.0,
2025-08-15T03:56:58.397Z,2,GR86-037-03,8.200000000000001,0.191,-0.148,99.98,3.0,,0.0,0.0,
2025-08-15T03:56:58.440Z,2,GR86-037-03,10.1,0.106,-0.161,99.99,3.0,6657.0,0.0,0.0,
2025-08-15T03:56:58.484Z,2,GR86-037-03,13.5,0.156,-0.106,100.0,3.0,,0.0,0.0,141.98
2025-08-15T03:56:58.527Z,2,GR86-037-03,14.7,0.264,0.083,100.0,3.0,,0.0,0.0,
2025-08-15T03:56:58.571Z,2,GR86-037-03,14.8,0.218,0.15,99.98,3.0,,0.0,0.0,
2025-08-15T03:56:58.614Z,2,GR86-037-03,14.8,0.106,0.218,100.0,3.0,,0.0,0.0,
2025-08-15T03:56:58.657Z,2,GR86-037-03,14.8,0.11,0.329,100.01,3.0,6883.0,0.0,0.0,
2025-08-15T03:56:58.700Z,2,GR86-037-03,14.8,0.25,0.298,100.01,3.0,,0.0,0.0,142.89
2025-08-15T03:56:58.744Z,2,GR86-037-03,15.3,0.272,0.44,100.0,3.0,,0.0,0.0,
2025-08-15T03:56:58.787Z,2,GR86-037-03,14.9,0.254,0.497,100.0,3.0,,0.0,0.0,
2025-08-15T03:56:58.830Z,2,GR86-037-03,12.4,0.314,0.479,100.0,3.0,,0.0,0.0,
2025-08-15T03:56:58.873Z,2,GR86-037-03,10.5,0.209,0.444,100.01,3.0,6842.0,0.0,0.0,
2025-08-15T03:56:58.916Z,2,GR86-037-03,10.1,0.058,0.484,100.01,3.0,,0.0,0.0,145.27
2025-08-15T03:56:58.959Z,2,GR86-037-03,10.1,0.126,0.552,100.01,3.0,,0.0,0.0,
2025-08-15T03:56:59.002Z,2,GR86-037-03,9.8,0.239,0.442,100.0,3.0,,0.0,0.0,
2025-08-15T03:56:59.045Z,2,GR86-037-03,8.1,0.212,0.386,100.0,3.0,,0.0,0.0,
2025-08-15T03:56:59.088Z,2,GR86-037-03,6.0,0.176,0.308,99.99,3.0,6944.0,0.0,0.0,
2025-08-15T03:56:59.131Z,2,GR86-037-03,4.2,0.178,0.226,100.0,3.0,,0.0,0.0,145.92000000000002
2025-08-15T03:56:59.174Z,2,GR86-037-03,4.1000000000000005,0.218,0.159,99.99,3.0,,0.0,0.0,
2025-08-15T03:56:59.217Z,2,GR86-037-03,4.1000000000000005,0.222,0.124,100.01,3.0,,0.0,0.0,
2025-08-15T03:56:59.260Z,2,GR86-037-03,4.1000000000000005,0.178,0.084,100.0,3.0,,0.0,0.0,
2025-08-15T03:56:59.304Z,2,GR86-037-03,4.3,0.198,0.025,100.0,3.0,6965.0,0.0,0.0,
2025-08-15T03:56:59.347Z,2,GR86-037-03,4.4,0.188,0.009,100.01,3.0,,0.0,0.0,149.22
2025-08-15T03:56:59.390Z,2,GR86-037-03,4.6000000000000005,0.19,0.013,100.01,3.0,,0.0,0.0,
2025-08-15T03:56:59.434Z,2,GR86-037-03,5.7,0.183,0.006,100.01,3.0,,0.0,0.0,
2025-08-15T03:56:59.477Z,2,GR86-037-03,6.9,0.18,0.004,100.01,3.0,,0.0,0.0,
2025-08-15T03:56:59.520Z,2,GR86-037-03,7.300000000000001,0.208,0.018,99.98,3.0,6983.0,0.0,0.0,
2025-08-15T03:56:59.564Z,2,GR86-037-03,7.300000000000001,0.185,0.051,100.02,3.0,,0.0,0.0,150.75
2025-08-15T03:56:59.606Z,2,GR86-037-03,7.300000000000001,0.195,0.063,99.98,3.0,,0.0,0.0,
2025-08-15T03:56:59.649Z,2,GR86-037-03,7.9,0.19,0.087,100.01,3.0,,0.0,0.0,
2025-08-15T03:56:59.692Z,2,GR86-037-03,9.0,0.185,0.092,99.99,3.0,,0.0,0.0,
2025-08-15T03:56:59.735Z,2,GR86-037-03,9.4,0.165,0.127,100.02,3.0,7061.0,0.0,0.0,
2025-08-15T03:56:59.778Z,2,GR86-037-03,9.5,0.148,0.153,100.02,3.0,,0.0,0.0,152.31
2025-08-15T03:56:59.821Z,2,GR86-037-03,9.5,0.162,0.182,99.98,3.0,,0.0,0.0,
2025-08-15T03:56:59.864Z,2,GR86-037-03,9.4,0.164,0.196,100.02,3.0,,0.0,0.0,
2025-08-15T03:56:59.907Z,2,GR86-037-03,9.4,0.167,0.21,99.98,3.0,,0.0,0.0,
2025-08-15T03:56:59.950Z,2,GR86-037-03,9.4,0.14,0.197,99.99,3.0,7198.0,0.0,0.0,
2025-08-15T03:56:59.993Z,2,GR86-037-03,7.9,-0.128,0.226,99.99,4.0,,0.0,0.0,153.87
2025-08-15T03:57:00.036Z,2,GR86-037-03,7.800000000000001,0.438,0.23,99.98,4.0,,0.0,0.0,
2025-08-15T03:57:00.079Z,2,GR86-037-03,7.800000000000001,0.286,0.121,99.99,4.0,,0.0,0.0,
2025-08-15T03:57:00.123Z,2,GR86-037-03,7.800000000000001,0.251,0.247,99.99,4.0,,0.0,0.0,
2025-08-15T03:57:00.165Z,2,GR86-037-03,7.800000000000001,0.115,0.17,99.99,4.0,7250.0,0.0,0.0,
2025-08-15T03:57:00.208Z,2,GR86-037-03,7.800000000000001,0.094,0.153,99.99,4.0,,0.0,0.0,155.5
2025-08-15T03:57:00.251Z,2,GR86-037-03,7.800000000000001,0.182,0.216,99.99,4.0,,0.0,0.0,
2025-08-15T03:57:00.294Z,2,GR86-037-03,7.800000000000001,0.2,0.128,99.98,4.0,,0.0,0.0,
2025-08-15T03:57:00.337Z,2,GR86-037-03,7.800000000000001,0.13,0.136,100.0,4.0,,0.0,0.0,
2025-08-15T03:57:00.380Z,2,GR86-037-03,7.800000000000001,0.115,0.158,100.0,4.0,6125.0,0.0,0.0,
2025-08-15T03:57:00.424Z,2,GR86-037-03,7.800000000000001,0.166,0.134,99.99,4.0,,0.0,0.0,157.08
2025-08-15T03:57:00.467Z,2,GR86-037-03,7.800000000000001,0.161,0.153,99.99,4.0,,0.0,0.0,
2025-08-15T03:57:00.510Z,2,GR86-037-03,7.800000000000001,0.139,0.152,99.98,4.0,,0.0,0.0,
2025-08-15T03:57:00.553Z,2,GR86-037-03,7.800000000000001,0.118,0.165,100.02,4.0,,0.0,0.0,
2025-08-15T03:57:00.596Z,2,GR86-037-03,7.800000000000001,0.14,0.168,99.99,4.0,6209.0,0.0,0.0,
2025-08-15T03:57:00.639Z,2,GR86-037-03,7.800000000000001,0.173,0.175,100.0,4.0,,0.0,0.0,158.89
2025-08-15T03:57:00.683Z,2,GR86-037-03,7.800000000000001,0.136,0.177,99.99,4.0,,0.0,0.0,
2025-08-15T03:57:00.725Z,2,GR86-037-03,7.800000000000001,0.139,0.197,100.0,4.0,,0.0,0.0,
2025-08-15T03:57:00.768Z,2,GR86-037-03,7.800000000000001,0.141,0.191,100.0,4.0,,0.0,0.0,
2025-08-15T03:57:00.811Z,2,GR86-037-03,7.800000000000001,0.184,0.173,99.99,4.0,6305.0,0.0,0.0,
2025-08-15T03:57:00.854Z,2,GR86-037-03,7.2,0.172,0.173,100.0,4.0,,0.0,0.0,160.48
2025-08-15T03:57:00.897Z,2,GR86-037-03,6.6000000000000005,0.18,0.136,100.01,4.0,,0.0,0.0,
2025-08-15T03:57:00.940Z,2,GR86-037-03,5.800000000000001,0.173,0.132,99.99,4.0,,0.0,0.0,
2025-08-15T03:57:00.984Z,2,GR86-037-03,5.2,0.15,0.123,100.01,4.0,,0.0,0.0,
2025-08-15T03:57:01.026Z,2,GR86-037-03,5.2,0.172,0.119,100.01,4.0,6366.0,0.0,0.0,
2025-08-15T03:57:01.069Z,2,GR86-037-03,5.2,0.176,0.098,100.0,4.0,,0.0,0.0,161.91
2025-08-15T03:57:01.113Z,2,GR86-037-03,5.0,0.176,0.08,99.98,4.0,,0.0,0.0,
2025-08-15T03:57:01.156Z,2,GR86-037-03,3.9,0.174,0.071,100.02,4.0,,0.0,0.0,
2025-08-15T03:57:01.199Z,2,GR86-037-03,2.4000000000000004,0.168,0.059,100.0,4.0,,0.0,0.0,
2025-08-15T03:57:01.244Z,2,GR86-037-03,1.7000000000000002,0.158,0.033,99.99,4.0,6426.0,0.0,0.0,
2025-08-15T03:57:01.287Z,2,GR86-037-03,1.7000000000000002,0.165,0.021,99.99,4.0,,0.0,0.0,163.49
2025-08-15T03:57:01.330Z,2,GR86-037-03,1.6,0.186,0.009,99.99,4.0,,0.0,0.0,
2025-08-15T03:57:01.373Z,2,GR86-037-03,0.9,0.176,-0.013,100.02,4.0,,0.0,0.0,
2025-08-15T03:57:01.416Z,2,GR86-037-03,0.2,0.152,-0.038,100.01,4.0,,1.86,2.075,
2025-08-15T03:57:01.459Z,2,GR86-037-03,-0.4,0.139,-0.051,99.99,4.0,6492.0,0.0,0.0,
2025-08-15T03:57:01.503Z,2,GR86-037-03,-2.1,0.153,-0.078,100.0,4.0,,0.0,0.0,165.04
2025-08-15T03:57:01.547Z,2,GR86-037-03,-3.2,0.167,-0.119,100.0,4.0,,0.0,2.015,
2025-08-15T03:57:01.590Z,2,GR86-037-03,-3.3000000000000003,0.158,-0.154,99.98,4.0,,3.31,3.695,
2025-08-15T03:57:01.633Z,2,GR86-037-03,-3.3000000000000003,0.114,-0.151,100.01,4.0,,0.0,0.0,
2025-08-15T03:57:01.676Z,2,GR86-037-03,-3.3000000000000003,0.149,-0.159,100.0,4.0,6551.0,0.0,0.0,
2025-08-15T03:57:01.719Z,2,GR86-037-03,-3.3000000000000003,0.163,-0.182,100.0,4.0,,0.0,0.0,166.72
2025-08-15T03:57:01.764Z,2,GR86-037-03,-5.5,0.149,-0.203,99.99,4.0,,2.365,2.455,
2025-08-15T03:57:01.807Z,2,GR86-037-03,-9.1,0.123,-0.242,99.99,4.0,,0.0,0.0,
2025-08-15T03:57:01.850Z,2,GR86-037-03,-12.2,0.157,-0.296,100.0,4.0,,0.0,0.0,
2025-08-15T03:57:01.894Z,2,GR86-037-03,-12.6,0.158,-0.339,99.99,4.0,6612.0,0.0,0.0,
2025-08-15T03:57:01.937Z,2,GR86-037-03,-11.0,0.147,-0.39,100.01,4.0,,0.0,0.0,168.23
2025-08-15T03:57:01.980Z,2,GR86-037-03,-9.0,0.15,-0.411,100.0,4.0,,0.0,0.0,
2025-08-15T03:57:02.024Z,2,GR86-037-03,-6.5,0.114,-0.424,100.0,4.0,,0.0,0.0,
2025-08-15T03:57:02.066Z,2,GR86-037-03,-5.9,0.127,-0.423,100.01,4.0,,0.0,0.0,
2025-08-15T03:57:02.109Z,2,GR86-037-03,-5.9,0.144,-0.42,99.98,4.0,6661.0,0.0,0.0,
2025-08-15T03:57:02.152Z,2,GR86-037-03,-4.1000000000000005,0.154,-0.408,99.99,4.0,,0.0,0.0,171.0
2025-08-15T03:57:02.195Z,2,GR86-037-03,-0.7000000000000001,0.153,-0.36,100.0,4.0,,0.0,0.0,
2025-08-15T03:57:02.238Z,2,GR86-037-03,2.0,0.154,-0.302,100.01,4.0,,0.0,0.0,
2025-08-15T03:57:02.281Z,2,GR86-037-03,3.5,0.163,-0.253,100.01,4.0,,0.0,0.0,
2025-08-15T03:57:02.324Z,2,GR86-037-03,4.1000000000000005,0.123,-0.128,100.02,4.0,6723.0,0.0,0.0,
2025-08-15T03:57:02.367Z,2,GR86-037-03,4.1000000000000005,0.122,-0.065,100.0,4.0,,0.0,0.0,172.38
2025-08-15T03:57:02.410Z,2,GR86-037-03,2.1,0.13,-0.002,100.0,4.0,,0.0,0.0,
2025-08-15T03:57:02.453Z,2,GR86-037-03,-0.3,0.121,0.026,100.01,4.0,,0.0,0.0,
2025-08-15T03:57:02.496Z,2,GR86-037-03,-0.9,0.135,0.01,100.01,4.0,,0.0,0.0,
2025-08-15T03:57:02.539Z,2,GR86-037-03,-0.1,0.133,0.026,99.99,4.0,6775.0,0.0,0.0,
2025-08-15T03:57:02.584Z,2,GR86-037-03,2.4000000000000004,0.133,-0.003,28.86,4.0,,0.0,0.0,173.86
2025-08-15T03:57:02.627Z,2,GR86-037-03,2.4000000000000004,0.12,-0.032,3.84,4.0,,0.0,0.0,
2025-08-15T03:57:02.670Z,2,GR86-037-03,2.3000000000000003,0.095,-0.042,2.52,4.0,,0.0,0.0,
2025-08-15T03:57:02.713Z,2,GR86-037-03,-0.2,-0.079,-0.038,2.51,4.0,,0.0,0.0,
2025-08-15T03:57:02.756Z,2,GR86-037-03,-2.7,-0.093,-0.03,2.49,4.0,6879.0,0.0,0.0,
2025-08-15T03:57:02.799Z,2,GR86-037-03,-3.7,-0.443,-0.107,2.49,4.0,,0.0,0.0,175.22
2025-08-15T03:57:02.844Z,2,GR86-037-03,-3.8,-0.081,-0.097,2.49,4.0,,7.140000000000001,7.495,
2025-08-15T03:57:02.887Z,2,GR86-037-03,-3.8,-0.195,-0.151,2.49,4.0,,8.36,8.85,
2025-08-15T03:57:02.930Z,2,GR86-037-03,-3.8,-0.227,-0.185,2.49,4.0,,6.93,7.495,
2025-08-15T03:57:02.974Z,2,GR86-037-03,-4.0,-0.246,-0.2,2.5,4.0,6596.0,9.37,9.965,
2025-08-15T03:57:03.017Z,2,GR86-037-03,-5.800000000000001,-0.488,-0.246,2.48,4.0,,28.995,29.36,176.61
2025-08-15T03:57:03.060Z,2,GR86-037-03,-7.9,-0.8270000000000001,-0.235,2.5,4.0,,50.94,50.755,
2025-08-15T03:57:03.103Z,2,GR86-037-03,-8.3,-1.122,-0.235,2.49,4.0,,53.61,54.8,
2025-08-15T03:57:03.146Z,2,GR86-037-03,-6.1000000000000005,-0.8130000000000001,-0.238,2.49,4.0,,33.875,35.145,
2025-08-15T03:57:03.189Z,2,GR86-037-03,-4.0,-0.547,-0.267,2.48,4.0,6732.0,20.66,21.715,
2025-08-15T03:57:03.232Z,2,GR86-037-03,-3.8,-0.603,-0.289,2.49,4.0,,16.59,17.425,176.54
2025-08-15T03:57:03.275Z,2,GR86-037-03,-7.6,-0.671,-0.275,2.48,4.0,,15.43,15.99,
2025-08-15T03:57:03.318Z,2,GR86-037-03,-12.8,-0.428,-0.34,2.49,4.0,,17.93,18.325,
2025-08-15T03:57:03.364Z,2,GR86-037-03,-14.8,-0.5630000000000001,-0.409,2.5,4.0,,22.875,23.18,
2025-08-15T03:57:03.407Z,2,GR86-037-03,-12.2,-0.589,-0.389,2.48,4.0,6525.0,24.43,24.83,
2025-08-15T03:57:03.450Z,2,GR86-037-03,-8.6,-0.623,-0.394,2.49,4.0,,29.865,30.045,172.78
2025-08-15T03:57:03.493Z,2,GR86-037-03,-4.3,-0.855,-0.351,2.49,4.0,,39.645,39.645,
2025-08-15T03:57:03.536Z,2,GR86-037-03,-0.3,-0.933,-0.3,2.51,4.0,,48.77,48.48,
2025-08-15T03:57:03.579Z,2,GR86-037-03,1.2000000000000002,-0.988,-0.263,2.51,4.0,,53.93,53.545,
2025-08-15T03:57:03.623Z,2,GR86-037-03,1.2000000000000002,-1.026,-0.195,2.5,4.0,6536.0,47.705,49.17,
2025-08-15T03:57:03.665Z,2,GR86-037-03,-0.5,-0.853,-0.189,2.5,4.0,,38.5,39.75,168.66
2025-08-15T03:57:03.708Z,2,GR86-037-03,-4.7,-0.764,-0.196,2.5,4.0,,37.08,37.95,
2025-08-15T03:57:03.751Z,2,GR86-037-03,-9.5,-0.942,-0.19,2.51,4.0,,38.285,38.685,
2025-08-15T03:57:03.794Z,2,GR86-037-03,-12.6,-0.898,-0.222,2.49,4.0,,37.585,38.38,
2025-08-15T03:57:03.837Z,2,GR86-037-03,-13.1,-0.798,-0.261,2.51,4.0,6290.0,38.9,39.31,
2025-08-15T03:57:03.880Z,2,GR86-037-03,-12.8,-0.884,-0.269,2.48,4.0,,48.895,48.71,164.79
2025-08-15T03:57:03.924Z,2,GR86-037-03,-14.1,-1.146,-0.269,2.73,4.0,,67.875,67.145,
2025-08-15T03:57:03.966Z,2,GR86-037-03,-18.3,-1.171,-0.316,40.28,4.0,,78.48,78.055,
2025-08-15T03:57:04.009Z,2,GR86-037-03,-21.8,-1.234,-0.379,86.66,4.0,,87.9,88.89,
2025-08-15T03:57:04.053Z,2,GR86-037-03,-20.4,-1.208,-0.447,100.01,4.0,5891.0,90.2,90.965,
2025-08-15T03:57:04.095Z,2,GR86-037-03,-13.6,-1.172,-0.452,96.55,3.0,,86.905,88.11,158.47
2025-08-15T03:57:04.138Z,2,GR86-037-03,-2.2,-1.102,-0.427,32.62,3.0,,82.33,84.45,
2025-08-15T03:57:04.181Z,2,GR86-037-03,3.0,-1.211,-0.338,3.63,3.0,,62.215,63.8,
2025-08-15T03:57:04.224Z,2,GR86-037-03,3.0,-0.994,-0.389,2.61,3.0,,38.805,39.72,
2025-08-15T03:57:04.267Z,2,GR86-037-03,1.8,-0.954,-0.335,2.48,3.0,5702.0,37.555,38.18,
2025-08-15T03:57:04.310Z,2,GR86-037-03,0.6000000000000001,-0.756,-0.287,2.45,3.0,,38.15,38.715,152.8
2025-08-15T03:57:04.354Z,2,GR86-037-03,-0.8,-0.836,-0.433,2.45,3.0,,34.78,35.645,
2025-08-15T03:57:04.397Z,2,GR86-037-03,-5.2,-0.716,-0.354,2.44,3.0,,28.645,29.5,
2025-08-15T03:57:04.440Z,2,GR86-037-03,-12.1,-0.726,-0.273,2.45,3.0,,29.115,29.59,
2025-08-15T03:57:04.484Z,2,GR86-037-03,-19.8,-0.797,-0.325,2.45,3.0,5858.0,37.8,37.92,
2025-08-15T03:57:04.528Z,2,GR86-037-03,-22.8,-0.841,-0.317,2.45,3.0,,44.375,44.56,143.86
2025-08-15T03:57:04.571Z,2,GR86-037-03,-24.200000000000003,-0.982,-0.383,2.45,3.0,,49.64,49.825,
2025-08-15T03:57:04.614Z,2,GR86-037-03,-23.0,-1.023,-0.418,4.36,3.0,,52.615,52.86,
2025-08-15T03:57:04.657Z,2,GR86-037-03,-18.4,-1.029,-0.476,46.83,3.0,,53.515,53.870000000000005,
2025-08-15T03:57:04.700Z,2,GR86-037-03,-13.9,-1.039,-0.463,93.89,3.0,6179.0,54.615,54.86,
2025-08-15T03:57:04.744Z,2,GR86-037-03,-11.8,-1.077,-0.476,97.84,2.0,,55.27,55.605,133.09
2025-08-15T03:57:04.787Z,2,GR86-037-03,-11.8,-1.116,-0.52,36.09,2.0,,54.325,55.105,
2025-08-15T03:57:04.830Z,2,GR86-037-03,-10.2,-1.185,-0.441,3.91,2.0,,53.99,55.24,
2025-08-15T03:57:04.873Z,2,GR86-037-03,-7.4,-0.925,-0.531,2.8000000000000003,2.0,,56.065,56.965,
2025-08-15T03:57:04.916Z,2,GR86-037-03,-7.4,-1.056,-0.586,2.54,2.0,5991.0,57.38,58.370000000000005,
2025-08-15T03:57:04.959Z,2,GR86-037-03,-9.1,-1.078,-0.505,2.48,2.0,,55.425,56.28,127.71
2025-08-15T03:57:05.002Z,2,GR86-037-03,-7.6,-0.891,-0.654,2.45,2.0,,36.55,37.11,
2025-08-15T03:57:05.045Z,2,GR86-037-03,-4.9,-0.766,-0.619,2.45,2.0,,29.71,30.305,
2025-08-15T03:57:05.088Z,2,GR86-037-03,-5.6000000000000005,-0.674,-0.46,2.46,2.0,,28.37,28.935,
2025-08-15T03:57:05.131Z,2,GR86-037-03,-11.9,-0.684,-0.484,2.45,2.0,5631.0,29.21,29.56,
2025-08-15T03:57:05.174Z,2,GR86-037-03,-22.200000000000003,-0.757,-0.473,2.45,2.0,,30.46,30.825,121.11
2025-08-15T03:57:05.217Z,2,GR86-037-03,-32.300000000000004,-0.763,-0.448,2.45,2.0,,31.48,31.865,
2025-08-15T03:57:05.260Z,2,GR86-037-03,-39.3,-0.776,-0.55,2.45,2.0,,29.3,29.985,
2025-08-15T03:57:05.304Z,2,GR86-037-03,-45.8,-0.584,-0.608,2.45,2.0,,18.86,19.76,
2025-08-15T03:57:05.347Z,2,GR86-037-03,-49.900000000000006,-0.504,-0.74,2.46,2.0,6267.0,14.39,15.155,
2025-08-15T03:57:05.390Z,2,GR86-037-03,-55.900000000000006,-0.459,-0.768,2.45,2.0,,10.15,10.865,114.79
2025-08-15T03:57:05.434Z,2,GR86-037-03,-63.1,-0.41,-0.925,2.45,2.0,,11.995,12.36,
2025-08-15T03:57:05.477Z,2,GR86-037-03,-67.7,-0.49,-1.001,2.46,2.0,,18.205,18.435,
2025-08-15T03:57:05.520Z,2,GR86-037-03,-68.3,-0.587,-1.06,2.46,2.0,,23.395,23.62,
2025-08-15T03:57:05.564Z,2,GR86-037-03,-66.4,-0.657,-1.143,2.46,2.0,6035.0,27.15,27.285,
2025-08-15T03:57:05.606Z,2,GR86-037-03,-64.10000000000001,-0.683,-1.186,2.46,2.0,,28.37,28.34,109.1
2025-08-15T03:57:05.649Z,2,GR86-037-03,-57.2,-0.679,-1.238,2.47,2.0,,27.285,27.835,
2025-08-15T03:57:05.692Z,2,GR86-037-03,-49.400000000000006,-0.5730000000000001,-1.205,2.45,2.0,,19.015,19.73,
2025-08-15T03:57:05.735Z,2,GR86-037-03,-45.900000000000006,-0.46,-1.245,2.45,2.0,,11.275,11.965,
2025-08-15T03:57:05.778Z,2,GR86-037-03,-46.6,-0.415,-1.269,2.48,2.0,5852.0,10.715,11.095,
2025-08-15T03:57:05.821Z,2,GR86-037-03,-48.7,-0.432,-1.32,2.45,2.0,,10.59,11.065,107.05
2025-08-15T03:57:05.864Z,2,GR86-037-03,-49.400000000000006,-0.338,-1.333,2.48,2.0,,2.5500000000000003,2.885,
2025-08-15T03:57:05.907Z,2,GR86-037-03,-53.1,-0.233,-1.42,2.45,2.0,,0.0,0.0,
2025-08-15T03:57:05.950Z,2,GR86-037-03,-60.8,-0.216,-1.38,2.46,2.0,,0.0,0.0,
2025-08-15T03:57:05.993Z,2,GR86-037-03,-68.0,-0.198,-1.462,4.36,2.0,5461.0,0.0,0.0,
2025-08-15T03:57:06.036Z,2,GR86-037-03,-69.60000000000001,-0.219,-1.39,11.27,2.0,,0.0,0.0,103.63
2025-08-15T03:57:06.079Z,2,GR86-037-03,-66.3,-0.217,-1.459,20.46,2.0,,0.0,0.0,
2025-08-15T03:57:06.123Z,2,GR86-037-03,-51.8,-0.186,-1.448,20.74,2.0,,0.0,0.0,
2025-08-15T03:57:06.165Z,2,GR86-037-03,-43.3,-0.134,-1.315,21.09,2.0,,0.0,0.0,
2025-08-15T03:57:06.208Z,2,GR86-037-03,-40.0,-0.113,-1.343,27.53,2.0,5394.0,0.0,0.0,
2025-08-15T03:57:06.251Z,2,GR86-037-03,-40.8,-0.103,-1.303,43.81,2.0,,0.0,0.0,100.24
2025-08-15T03:57:06.294Z,2,GR86-037-03,-41.2,-0.036,-1.207,56.1,2.0,,0.0,0.0,
2025-08-15T03:57:06.337Z,2,GR86-037-03,-36.6,0.104,-1.276,60.61,2.0,,0.0,0.0,
2025-08-15T03:57:06.380Z,2,GR86-037-03,-31.1,0.131,-1.329,65.6,2.0,,0.0,0.0,
2025-08-15T03:57:06.424Z,2,GR86-037-03,-27.5,0.206,-1.185,59.44,2.0,5381.0,0.0,0.0,
2025-08-15T03:57:06.467Z,2,GR86-037-03,-26.3,0.134,-1.234,56.13,2.0,,0.0,0.0,97.81
2025-08-15T03:57:06.510Z,2,GR86-037-03,-27.3,0.192,-1.235,56.2,2.0,,0.0,0.0,
2025-08-15T03:57:06.553Z,2,GR86-037-03,-29.0,0.168,-0.945,55.69,2.0,,0.0,0.0,
2025-08-15T03:57:06.596Z,2,GR86-037-03,-26.4,0.134,-1.159,55.47,2.0,,0.0,0.0,
2025-08-15T03:57:06.639Z,2,GR86-037-03,-22.200000000000003,0.273,-1.224,56.01,2.0,5652.0,0.0,0.0,
2025-08-15T03:57:06.683Z,2,GR86-037-03,-26.8,-0.003,-1.135,57.17,2.0,,0.0,0.0,96.31
2025-08-15T03:57:06.725Z,2,GR86-037-03,-34.9,0.128,-1.147,56.24,2.0,,0.0,0.0,
2025-08-15T03:57:06.768Z,2,GR86-037-03,-44.1,0.375,-1.079,54.58,2.0,,0.0,0.0,
2025-08-15T03:57:06.811Z,2,GR86-037-03,-48.8,0.271,-1.097,54.71,2.0,,0.0,0.0,
2025-08-15T03:57:06.854Z,2,GR86-037-03,-45.400000000000006,0.065,-1.127,55.08,2.0,5838.0,0.0,0.0,
2025-08-15T03:57:06.897Z,2,GR86-037-03,-33.2,-0.048,-1.241,54.97,2.0,,0.0,0.0,95.63
2025-08-15T03:57:06.940Z,2,GR86-037-03,-18.9,0.148,-1.265,55.42,2.0,,0.0,0.0,
2025-08-15T03:57:06.984Z,2,GR86-037-03,-9.9,0.141,-1.159,54.84,2.0,,0.0,0.0,
2025-08-15T03:57:07.027Z,2,GR86-037-03,-7.2,0.35,-1.139,54.06,2.0,,0.0,0.0,
2025-08-15T03:57:07.070Z,2,GR86-037-03,-1.0,0.205,-1.041,55.63,2.0,6018.0,0.0,0.0,
2025-08-15T03:57:07.113Z,2,GR86-037-03,9.0,0.288,-1.157,57.05,2.0,,0.0,0.0,96.15
2025-08-15T03:57:07.156Z,2,GR86-037-03,18.3,0.191,-1.003,60.2,2.0,,0.0,0.0,
2025-08-15T03:57:07.199Z,2,GR86-037-03,14.2,0.165,-1.05,80.44,2.0,,0.0,0.0,
2025-08-15T03:57:07.244Z,2,GR86-037-03,-12.0,0.245,-0.914,100.03,2.0,,0.0,0.0,
2025-08-15T03:57:07.287Z,2,GR86-037-03,-37.9,-0.022,-1.208,100.08,2.0,6115.0,0.0,0.0,
2025-08-15T03:57:07.373Z,2,GR86-037-03,-60.8,0.024,-1.02,100.09,2.0,,0.0,0.0,96.84
2025-08-15T03:57:07.416Z,2,GR86-037-03,-69.7,0.272,-1.338,100.08,2.0,,0.0,0.0,
2025-08-15T03:57:07.459Z,2,GR86-037-03,-62.7,0.271,-1.139,100.09,2.0,,0.0,0.0,
2025-08-15T03:57:07.503Z,2,GR86-037-03,-49.400000000000006,0.668,-1.328,100.08,2.0,6150.0,0.0,0.0,
2025-08-15T03:57:07.547Z,2,GR86-037-03,-40.5,0.48,-1.08,100.07,2.0,,0.0,0.0,99.12
2025-08-15T03:57:07.590Z,2,GR86-037-03,-33.6,0.079,-1.142,100.09,2.0,,0.0,0.0,
2025-08-15T03:57:07.633Z,2,GR86-037-03,-28.9,0.009,-0.973,100.08,2.0,,0.0,0.0,
2025-08-15T03:57:07.676Z,2,GR86-037-03,-21.9,0.133,-0.888,100.07,2.0,,0.0,0.0,
2025-08-15T03:57:07.719Z,2,GR86-037-03,-13.6,0.208,-0.777,100.06,2.0,6015.0,0.0,0.0,
2025-08-15T03:57:07.764Z,2,GR86-037-03,-11.2,0.097,-0.799,100.09,2.0,,0.0,0.0,99.16
2025-08-15T03:57:07.807Z,2,GR86-037-03,-14.6,0.268,-0.928,100.08,2.0,,0.0,0.0,
2025-08-15T03:57:07.850Z,2,GR86-037-03,-17.0,0.077,-0.872,100.08,2.0,,0.0,0.0,
2025-08-15T03:57:07.894Z,2,GR86-037-03,-21.4,0.334,-1.36,100.09,2.0,,0.0,0.0,
2025-08-15T03:57:07.937Z,2,GR86-037-03,-32.300000000000004,0.437,-0.924,100.07,2.0,6114.0,0.0,0.0,
2025-08-15T03:57:07.980Z,2,GR86-037-03,-46.400000000000006,0.429,-1.195,100.07,2.0,,0.0,0.0,101.58
2025-08-15T03:57:08.024Z,2,GR86-037-03,-55.7,0.379,-1.169,100.07,2.0,,0.0,0.0,
2025-08-15T03:57:08.066Z,2,GR86-037-03,-51.2,0.166,-1.042,100.07,2.0,,0.0,0.0,
2025-08-15T03:57:08.109Z,2,GR86-037-03,-43.400000000000006,0.049,-1.011,100.07,2.0,,0.0,0.0,
2025-08-15T03:57:08.152Z,2,GR86-037-03,-37.7,0.104,-0.912,100.08,2.0,6400.0,0.0,0.0,
2025-08-15T03:57:08.195Z,2,GR86-037-03,-38.8,0.211,-0.704,100.08,2.0,,0.0,0.0,103.11
2025-08-15T03:57:08.238Z,2,GR86-037-03,-45.3,0.264,-0.7010000000000001,100.08,2.0,,0.0,0.0,
2025-08-15T03:57:08.281Z,2,GR86-037-03,-51.7,0.261,-0.731,100.07,2.0,,0.0,0.0,
2025-08-15T03:57:08.324Z,2,GR86-037-03,-53.0,0.153,-0.892,100.07,2.0,,0.0,0.0,
2025-08-15T03:57:08.367Z,2,GR86-037-03,-51.0,0.123,-0.937,100.05,2.0,6052.0,0.0,0.0,
2025-08-15T03:57:08.410Z,2,GR86-037-03,-50.1,0.16,-0.973,100.05,2.0,,0.0,0.0,104.64
2025-08-15T03:57:08.453Z,2,GR86-037-03,-49.0,0.187,-1.076,100.06,2.0,,0.0,0.0,
2025-08-15T03:57:08.496Z,2,GR86-037-03,-40.7,0.219,-1.054,100.04,2.0,,0.0,0.0,
2025-08-15T03:57:08.539Z,2,GR86-037-03,-23.1,0.232,-0.995,100.06,2.0,,0.0,0.0,
2025-08-15T03:57:08.584Z,2,GR86-037-03,-3.9,0.233,-0.773,100.05,2.0,6121.0,0.0,0.0,
2025-08-15T03:57:08.627Z,2,GR86-037-03,-7.9,0.227,-0.679,100.05,2.0,,0.0,0.0,105.68
2025-08-15T03:57:08.670Z,2,GR86-037-03,-20.3,0.246,-0.616,100.04,2.0,,0.0,0.0,
2025-08-15T03:57:08.713Z,2,GR86-037-03,-32.5,0.217,-0.64,100.05,2.0,,0.0,0.0,
2025-08-15T03:57:08.756Z,2,GR86-037-03,-40.6,0.205,-0.638,100.04,2.0,,0.0,0.0,
2025-08-15T03:57:08.799Z,2,GR86-037-03,-44.0,0.188,-0.653,100.04,2.0,6243.0,0.0,0.0,
2025-08-15T03:57:08.844Z,2,GR86-037-03,-43.7,0.163,-0.704,100.04,2.0,,0.0,0.0,108.03
2025-08-15T03:57:08.887Z,2,GR86-037-03,-40.5,0.164,-0.742,100.04,2.0,,0.0,0.0,
2025-08-15T03:57:08.930Z,2,GR86-037-03,-33.800000000000004,0.182,-0.806,100.05,2.0,,0.0,0.0,
2025-08-15T03:57:08.974Z,2,GR86-037-03,-25.8,0.172,-0.794,100.04,2.0,,0.0,0.0,
2025-08-15T03:57:09.017Z,2,GR86-037-03,-23.6,0.218,-0.784,100.04,2.0,6272.0,0.0,0.0,
2025-08-15T03:57:09.060Z,2,GR86-037-03,-26.0,0.243,-0.797,100.03,2.0,,0.0,0.0,108.68
2025-08-15T03:57:09.103Z,2,GR86-037-03,-26.3,0.24,-0.807,100.05,2.0,,0.0,0.0,
2025-08-15T03:57:09.146Z,2,GR86-037-03,-21.4,0.224,-0.781,100.04,2.0,,0.0,0.0,
2025-08-15T03:57:09.189Z,2,GR86-037-03,-16.900000000000002,0.234,-0.728,100.05,2.0,,0.0,0.0,
2025-08-15T03:57:09.232Z,2,GR86-037-03,-15.1,0.217,-0.627,100.02,2.0,6404.0,0.0,0.0,
2025-08-15T03:57:09.275Z,2,GR86-037-03,-14.9,0.238,-0.579,100.04,2.0,,0.0,0.0,110.2
2025-08-15T03:57:09.318Z,2,GR86-037-03,-14.9,0.248,-0.513,100.04,2.0,,0.0,0.0,
2025-08-15T03:57:09.364Z,2,GR86-037-03,-14.9,0.232,-0.452,100.01,2.0,,0.0,0.0,
2025-08-15T03:57:09.406Z,2,GR86-037-03,-14.6,0.228,-0.426,100.04,2.0,,0.0,0.0,
2025-08-15T03:57:09.449Z,2,GR86-037-03,-12.7,0.255,-0.43,100.02,2.0,6475.0,0.0,0.0,
2025-08-15T03:57:09.493Z,2,GR86-037-03,-10.0,0.235,-0.39,100.03,2.0,,0.0,0.0,111.55
2025-08-15T03:57:09.535Z,2,GR86-037-03,-8.200000000000001,0.245,-0.373,100.02,2.0,,0.0,0.0,
2025-08-15T03:57:09.579Z,2,GR86-037-03,-6.7,0.254,-0.331,100.04,2.0,,0.0,0.0,
2025-08-15T03:57:09.623Z,2,GR86-037-03,-5.6000000000000005,0.261,-0.29,100.03,2.0,,0.0,0.0,
2025-08-15T03:57:09.666Z,2,GR86-037-03,-5.6000000000000005,0.24,-0.259,100.01,2.0,6549.0,0.0,0.0,
2025-08-15T03:57:09.709Z,2,GR86-037-03,-5.6000000000000005,0.258,-0.241,100.01,2.0,,0.0,0.0,113.2
2025-08-15T03:57:09.753Z,2,GR86-037-03,-5.6000000000000005,0.255,-0.208,100.02,2.0,,0.0,0.0,
2025-08-15T03:57:09.797Z,2,GR86-037-03,-5.6000000000000005,0.241,-0.191,100.03,2.0,,0.0,0.0,
2025-08-15T03:57:09.840Z,2,GR86-037-03,-5.6000000000000005,0.251,-0.179,100.01,2.0,,0.0,0.0,
2025-08-15T03:57:09.884Z,2,GR86-037-03,-5.6000000000000005,0.259,-0.191,100.02,2.0,6649.0,0.0,0.0,
2025-08-15T03:57:09.926Z,2,GR86-037-03,-5.6000000000000005,0.262,-0.18,100.02,2.0,,0.0,0.0,114.9
2025-08-15T03:57:09.970Z,2,GR86-037-03,-5.6000000000000005,0.239,-0.186,100.01,2.0,,0.0,0.0,
2025-08-15T03:57:10.013Z,2,GR86-037-03,-5.6000000000000005,0.256,-0.212,100.03,2.0,,0.0,0.0,
2025-08-15T03:57:10.056Z,2,GR86-037-03,-5.9,0.24,-0.207,100.01,2.0,,0.0,0.0,
2025-08-15T03:57:10.099Z,2,GR86-037-03,-5.9,0.242,-0.223,100.01,2.0,6744.0,0.0,0.0,
2025-08-15T03:57:10.144Z,2,GR86-037-03,-5.9,0.253,-0.21,100.02,2.0,,0.0,0.0,118.41
2025-08-15T03:57:10.187Z,2,GR86-037-03,-5.9,0.257,-0.204,100.02,2.0,,0.0,0.0,
2025-08-15T03:57:10.230Z,2,GR86-037-03,-5.9,0.247,-0.213,100.02,2.0,,0.0,0.0,
2025-08-15T03:57:10.273Z,2,GR86-037-03,-5.9,0.228,-0.221,100.02,2.0,,0.0,0.0,
2025-08-15T03:57:10.316Z,2,GR86-037-03,-5.9,0.234,-0.231,100.02,2.0,6843.0,0.0,0.0,
2025-08-15T03:57:10.359Z,2,GR86-037-03,-5.9,0.231,-0.236,100.02,2.0,,0.0,0.0,120.23
2025-08-15T03:57:10.402Z,2,GR86-037-03,-6.300000000000001,0.23,-0.237,100.01,2.0,,0.0,0.0,
2025-08-15T03:57:10.445Z,2,GR86-037-03,-7.1000000000000005,0.207,-0.239,100.0,2.0,,0.0,0.0,
2025-08-15T03:57:10.488Z,2,GR86-037-03,-7.800000000000001,-0.003,-0.248,100.03,3.0,,0.0,0.0,
2025-08-15T03:57:10.531Z,2,GR86-037-03,-7.800000000000001,0.277,-0.205,100.01,3.0,6949.0,0.0,0.0,
2025-08-15T03:57:10.574Z,2,GR86-037-03,-7.800000000000001,0.335,-0.273,100.02,3.0,,0.0,0.0,121.99
2025-08-15T03:57:10.617Z,2,GR86-037-03,-7.2,0.415,-0.313,100.01,3.0,,0.0,0.0,
2025-08-15T03:57:10.660Z,2,GR86-037-03,-4.9,0.346,-0.222,100.01,3.0,,0.0,0.0,
2025-08-15T03:57:10.704Z,2,GR86-037-03,-0.4,0.104,-0.347,100.03,3.0,,0.0,0.0,
2025-08-15T03:57:10.747Z,2,GR86-037-03,1.3,0.113,-0.204,100.02,3.0,6516.0,0.0,0.0,
2025-08-15T03:57:10.790Z,2,GR86-037-03,3.4000000000000004,0.219,-0.207,100.02,3.0,,0.0,0.0,123.68
2025-08-15T03:57:10.834Z,2,GR86-037-03,6.2,0.281,-0.165,99.99,3.0,,0.0,0.0,
2025-08-15T03:57:10.877Z,2,GR86-037-03,7.5,0.217,-0.041,99.99,3.0,,0.0,0.0,
2025-08-15T03:57:10.920Z,2,GR86-037-03,8.3,0.13,-0.021,100.01,3.0,,0.0,0.0,
2025-08-15T03:57:10.964Z,2,GR86-037-03,8.3,0.175,0.088,100.01,3.0,5882.0,0.0,0.0,
2025-08-15T03:57:11.006Z,2,GR86-037-03,8.3,0.211,0.114,100.01,3.0,,0.0,0.0,125.42
2025-08-15T03:57:11.049Z,2,GR86-037-03,8.3,0.214,0.159,100.0,3.0,,0.0,0.0,
2025-08-15T03:57:11.093Z,2,GR86-037-03,8.3,0.175,0.167,100.0,3.0,,0.0,0.0,
2025-08-15T03:57:11.135Z,2,GR86-037-03,8.3,0.16,0.191,100.01,3.0,,0.0,0.0,
2025-08-15T03:57:11.178Z,2,GR86-037-03,8.3,0.184,0.168,100.01,3.0,5938.0,0.0,0.0,
2025-08-15T03:57:11.221Z,2,GR86-037-03,8.3,0.183,0.172,100.0,3.0,,0.0,0.0,127.06
2025-08-15T03:57:11.264Z,2,GR86-037-03,8.3,0.185,0.163,100.01,3.0,,0.0,0.0,
2025-08-15T03:57:11.307Z,2,GR86-037-03,8.1,0.17,0.149,100.0,3.0,,0.0,0.0,
2025-08-15T03:57:11.350Z,2,GR86-037-03,6.0,0.185,0.165,99.99,3.0,,0.0,0.0,
2025-08-15T03:57:11.393Z,2,GR86-037-03,3.4000000000000004,0.2,0.138,99.99,3.0,5992.0,0.0,0.0,
2025-08-15T03:57:11.436Z,2,GR86-037-03,2.7,0.18,0.106,99.99,3.0,,0.0,0.0,128.43
2025-08-15T03:57:11.479Z,2,GR86-037-03,2.7,0.153,0.079,100.02,3.0,,0.0,0.0,
2025-08-15T03:57:11.523Z,2,GR86-037-03,2.9000000000000004,0.157,0.031,100.02,3.0,,0.0,0.0,
2025-08-15T03:57:11.565Z,2,GR86-037-03,3.3000000000000003,0.165,0.021,100.02,3.0,,0.0,0.0,
2025-08-15T03:57:11.608Z,2,GR86-037-03,3.4000000000000004,0.191,-0.003,100.01,3.0,6059.0,0.0,0.0,
2025-08-15T03:57:11.651Z,2,GR86-037-03,3.4000000000000004,0.172,0.004,100.02,3.0,,0.0,0.0,129.75
2025-08-15T03:57:11.694Z,2,GR86-037-03,2.6,0.15,-0.002,100.02,3.0,,0.0,0.0,
2025-08-15T03:57:11.737Z,2,GR86-037-03,1.8,0.182,-0.016,100.02,3.0,,0.0,0.0,
2025-08-15T03:57:11.780Z,2,GR86-037-03,1.8,0.217,-0.026,100.02,3.0,,0.0,0.0,
2025-08-15T03:57:11.824Z,2,GR86-037-03,2.0,0.205,-0.018,100.02,3.0,6108.0,0.0,0.0,
2025-08-15T03:57:11.867Z,2,GR86-037-03,4.6000000000000005,0.191,-0.031,100.03,3.0,,0.0,0.0,130.99
2025-08-15T03:57:11.910Z,2,GR86-037-03,5.800000000000001,0.182,-0.014,99.99,3.0,,0.0,0.0,
2025-08-15T03:57:11.953Z,2,GR86-037-03,5.800000000000001,0.204,0.012,100.01,3.0,,0.0,0.0,
2025-08-15T03:57:11.996Z,2,GR86-037-03,5.800000000000001,0.211,0.031,100.03,3.0,,0.0,0.0,
2025-08-15T03:57:12.039Z,2,GR86-037-03,5.800000000000001,0.197,0.056,99.99,3.0,6179.0,0.0,0.0,
2025-08-15T03:57:12.083Z,2,GR86-037-03,6.300000000000001,0.193,0.062,100.01,3.0,,0.0,0.0,132.17000000000002
2025-08-15T03:57:12.125Z,2,GR86-037-03,7.0,0.187,0.065,100.02,3.0,,0.0,0.0,
2025-08-15T03:57:12.168Z,2,GR86-037-03,7.7,0.195,0.085,100.03,3.0,,0.0,0.0,
2025-08-15T03:57:12.211Z,2,GR86-037-03,8.8,0.209,0.106,100.03,3.0,,0.0,0.0,
2025-08-15T03:57:12.254Z,2,GR86-037-03,9.0,0.209,0.135,100.02,3.0,6230.0,0.0,0.0,
2025-08-15T03:57:12.297Z,2,GR86-037-03,9.0,0.17,0.165,100.01,3.0,,0.0,0.0,133.4
2025-08-15T03:57:12.340Z,2,GR86-037-03,9.2,0.19,0.166,100.0,3.0,,0.0,0.0,
2025-08-15T03:57:12.384Z,2,GR86-037-03,9.4,0.192,0.202,100.01,3.0,,0.0,0.0,
2025-08-15T03:57:12.426Z,2,GR86-037-03,9.4,0.201,0.207,100.02,3.0,,0.0,0.0,
2025-08-15T03:57:12.469Z,2,GR86-037-03,9.4,0.197,0.216,100.0,3.0,6294.0,0.0,0.0,
2025-08-15T03:57:12.513Z,2,GR86-037-03,9.4,0.188,0.219,100.01,3.0,,0.0,0.0,134.71
2025-08-15T03:57:12.556Z,2,GR86-037-03,9.4,0.184,0.219,100.01,3.0,,0.0,0.0,
2025-08-15T03:57:12.599Z,2,GR86-037-03,7.2,0.206,0.227,100.0,3.0,,0.0,0.0,
2025-08-15T03:57:12.644Z,2,GR86-037-03,4.6000000000000005,0.182,0.189,100.02,3.0,,0.0,0.0,
2025-08-15T03:57:12.687Z,2,GR86-037-03,3.4000000000000004,0.199,0.175,100.0,3.0,6367.0,0.0,0.0,
2025-08-15T03:57:12.730Z,2,GR86-037-03,3.3000000000000003,0.213,0.126,99.98,3.0,,0.0,0.0,136.08
2025-08-15T03:57:12.773Z,2,GR86-037-03,3.3000000000000003,0.198,0.118,100.0,3.0,,0.0,0.0,
2025-08-15T03:57:12.816Z,2,GR86-037-03,2.5,0.187,0.077,100.02,3.0,,0.0,0.0,
2025-08-15T03:57:12.859Z,2,GR86-037-03,1.0,0.195,0.044,100.0,3.0,,0.0,0.0,
2025-08-15T03:57:12.903Z,2,GR86-037-03,-2.1,0.185,-0.02,100.0,3.0,6422.0,0.0,0.0,
2025-08-15T03:57:12.947Z,2,GR86-037-03,-2.3000000000000003,0.207,-0.051,100.01,3.0,,0.0,0.0,138.78
2025-08-15T03:57:12.990Z,2,GR86-037-03,-2.4000000000000004,0.206,-0.089,100.02,3.0,,0.0,0.0,
2025-08-15T03:57:13.033Z,2,GR86-037-03,-2.4000000000000004,0.187,-0.116,100.01,3.0,,0.0,0.0,
2025-08-15T03:57:13.076Z,2,GR86-037-03,-2.9000000000000004,0.186,-0.149,99.98,3.0,,0.0,0.0,
2025-08-15T03:57:13.119Z,2,GR86-037-03,-3.2,0.201,-0.161,100.02,3.0,6484.0,0.0,0.0,
2025-08-15T03:57:13.164Z,2,GR86-037-03,-3.2,0.173,-0.194,99.98,3.0,,0.0,0.0,140.07
2025-08-15T03:57:13.207Z,2,GR86-037-03,-3.2,0.207,-0.201,100.0,3.0,,0.0,0.0,
2025-08-15T03:57:13.250Z,2,GR86-037-03,-3.2,0.208,-0.223,100.01,3.0,,0.0,0.0,
2025-08-15T03:57:13.294Z,2,GR86-037-03,-3.2,0.195,-0.236,100.01,3.0,,0.0,0.0,
2025-08-15T03:57:13.337Z,2,GR86-037-03,-3.2,0.171,-0.232,100.02,3.0,6539.0,0.0,0.0,
2025-08-15T03:57:13.380Z,2,GR86-037-03,-3.2,0.185,-0.249,99.99,3.0,,0.0,0.0,141.36
2025-08-15T03:57:13.424Z,2,GR86-037-03,-3.2,0.173,-0.237,100.01,3.0,,0.0,0.0,
2025-08-15T03:57:13.467Z,2,GR86-037-03,-1.6,0.187,-0.235,100.02,3.0,,0.0,0.0,
2025-08-15T03:57:13.510Z,2,GR86-037-03,0.6000000000000001,0.207,-0.222,100.02,3.0,,0.0,0.0,
2025-08-15T03:57:13.553Z,2,GR86-037-03,1.3,0.197,-0.189,100.0,3.0,6656.0,0.0,0.0,
2025-08-15T03:57:13.596Z,2,GR86-037-03,1.3,0.186,-0.162,100.0,3.0,,0.0,0.0,142.6
2025-08-15T03:57:13.639Z,2,GR86-037-03,1.3,0.17,-0.136,100.03,3.0,,0.0,0.0,
2025-08-15T03:57:13.684Z,2,GR86-037-03,1.3,0.178,-0.101,100.0,3.0,,0.0,0.0,
2025-08-15T03:57:13.727Z,2,GR86-037-03,1.3,0.181,-0.094,100.0,3.0,,0.0,0.0,
2025-08-15T03:57:13.770Z,2,GR86-037-03,1.3,0.187,-0.073,100.0,3.0,6719.0,0.0,0.0,
2025-08-15T03:57:13.813Z,2,GR86-037-03,1.3,0.188,-0.067,99.99,3.0,,0.0,0.0,143.88
2025-08-15T03:57:13.856Z,2,GR86-037-03,0.7000000000000001,0.179,-0.051,100.01,3.0,,0.0,0.0,
2025-08-15T03:57:13.899Z,2,GR86-037-03,-1.0,0.185,-0.048,100.02,3.0,,0.0,0.0,
2025-08-15T03:57:13.944Z,2,GR86-037-03,-1.5,0.193,-0.076,99.98,3.0,,0.0,0.0,
2025-08-15T03:57:13.987Z,2,GR86-037-03,-1.6,0.173,-0.083,100.01,3.0,6770.0,0.0,0.0,
2025-08-15T03:57:14.030Z,2,GR86-037-03,-0.8,0.179,-0.111,100.01,3.0,,0.0,0.0,145.13
2025-08-15T03:57:14.074Z,2,GR86-037-03,-0.5,0.193,-0.121,100.0,3.0,,0.0,0.0,
2025-08-15T03:57:14.116Z,2,GR86-037-03,-0.5,0.2,-0.122,100.01,3.0,,0.0,0.0,
2025-08-15T03:57:14.159Z,2,GR86-037-03,-0.5,0.18,-0.141,100.01,3.0,,0.0,0.0,
2025-08-15T03:57:14.203Z,2,GR86-037-03,-1.8,0.185,-0.158,99.99,3.0,6835.0,0.0,0.0,
2025-08-15T03:57:14.246Z,2,GR86-037-03,-2.0,0.182,-0.166,100.0,3.0,,0.0,0.0,146.31
2025-08-15T03:57:14.289Z,2,GR86-037-03,-2.0,0.173,-0.15,100.0,3.0,,0.0,0.0,
2025-08-15T03:57:14.332Z,2,GR86-037-03,-2.0,0.173,-0.153,100.0,3.0,,0.0,0.0,
2025-08-15T03:57:14.375Z,2,GR86-037-03,0.1,0.184,-0.165,100.01,3.0,,0.0,0.0,
2025-08-15T03:57:14.418Z,2,GR86-037-03,1.4,0.19,-0.153,100.02,3.0,6884.0,0.0,0.0,
2025-08-15T03:57:14.461Z,2,GR86-037-03,1.4,0.188,-0.134,100.02,3.0,,0.0,0.0,147.58
2025-08-15T03:57:14.504Z,2,GR86-037-03,1.1,0.192,-0.124,99.98,3.0,,0.0,0.0,
2025-08-15T03:57:14.547Z,2,GR86-037-03,-0.1,0.183,-0.102,99.99,3.0,,0.0,0.0,
2025-08-15T03:57:14.590Z,2,GR86-037-03,-0.2,0.185,-0.097,99.98,3.0,,0.0,0.0,
2025-08-15T03:57:14.633Z,2,GR86-037-03,-0.2,0.17,-0.087,100.0,3.0,6947.0,0.0,0.0,
2025-08-15T03:57:14.676Z,2,GR86-037-03,0.3,0.171,-0.088,99.98,3.0,,0.0,0.0,148.79
2025-08-15T03:57:14.719Z,2,GR86-037-03,1.2000000000000002,0.178,-0.093,99.99,3.0,,0.0,0.0,
2025-08-15T03:57:14.763Z,2,GR86-037-03,1.4,0.171,-0.083,100.0,3.0,,0.0,0.0,
2025-08-15T03:57:14.807Z,2,GR86-037-03,1.7000000000000002,0.173,-0.097,99.98,3.0,,0.0,0.0,
2025-08-15T03:57:14.850Z,2,GR86-037-03,1.7000000000000002,0.189,-0.099,100.01,3.0,6999.0,0.0,0.0,
2025-08-15T03:57:14.893Z,2,GR86-037-03,1.7000000000000002,0.187,-0.092,99.98,3.0,,0.0,0.0,150.0
2025-08-15T03:57:14.936Z,2,GR86-037-03,1.7000000000000002,0.182,-0.075,99.99,3.0,,0.0,0.0,
2025-08-15T03:57:14.979Z,2,GR86-037-03,2.2,0.168,-0.06,99.99,3.0,,0.0,0.0,
2025-08-15T03:57:15.023Z,2,GR86-037-03,3.0,0.188,-0.061,100.0,3.0,,0.0,0.0,
2025-08-15T03:57:15.065Z,2,GR86-037-03,3.1,0.173,-0.061,100.0,3.0,7056.0,0.0,0.0,
2025-08-15T03:57:15.108Z,2,GR86-037-03,3.1,0.157,-0.063,99.99,3.0,,0.0,0.0,151.18
2025-08-15T03:57:15.151Z,2,GR86-037-03,3.1,0.169,-0.055,100.0,3.0,,0.0,0.0,
2025-08-15T03:57:15.194Z,2,GR86-037-03,3.1,0.174,-0.045,100.02,3.0,,0.0,0.0,
2025-08-15T03:57:15.237Z,2,GR86-037-03,3.1,0.194,-0.05,99.97,3.0,,0.0,0.0,
2025-08-15T03:57:15.280Z,2,GR86-037-03,3.1,0.186,-0.042,100.0,3.0,7110.0,0.0,0.0,
2025-08-15T03:57:15.324Z,2,GR86-037-03,3.1,0.18,-0.032,99.99,3.0,,0.0,0.0,152.44
2025-08-15T03:57:15.366Z,2,GR86-037-03,3.1,0.184,-0.029,100.01,3.0,,0.0,0.0,
2025-08-15T03:57:15.409Z,2,GR86-037-03,3.5,0.197,-0.024,100.02,3.0,,0.0,0.0,
2025-08-15T03:57:15.453Z,2,GR86-037-03,3.8,0.176,-0.008,100.01,3.0,,0.0,0.0,
2025-08-15T03:57:15.495Z,2,GR86-037-03,4.2,0.164,-0.024,100.01,3.0,7170.0,0.0,0.0,
2025-08-15T03:57:15.538Z,2,GR86-037-03,4.5,0.153,-0.018,99.99,3.0,,0.0,0.0,153.64
2025-08-15T03:57:15.581Z,2,GR86-037-03,4.5,-0.059,-0.002,99.98,4.0,,0.0,0.0,
2025-08-15T03:57:15.624Z,2,GR86-037-03,4.5,0.498,0.031,100.0,4.0,,0.0,0.0,
2025-08-15T03:57:15.667Z,2,GR86-037-03,4.5,0.251,-0.066,100.01,4.0,,0.0,0.0,
2025-08-15T03:57:15.710Z,2,GR86-037-03,4.5,0.262,0.025,99.99,4.0,7223.0,0.0,0.0,
2025-08-15T03:57:15.754Z,2,GR86-037-03,4.2,0.151,0.055,99.98,4.0,,0.0,0.0,156.07
2025-08-15T03:57:15.797Z,2,GR86-037-03,3.8,0.075,-0.053,99.98,4.0,,0.0,0.0,
2025-08-15T03:57:15.840Z,2,GR86-037-03,3.6,0.145,0.032,99.99,4.0,,0.0,0.0,
2025-08-15T03:57:15.884Z,2,GR86-037-03,3.5,0.198,-0.016,99.99,4.0,,0.0,0.0,
2025-08-15T03:57:15.926Z,2,GR86-037-03,3.2,0.152,0.02,99.99,4.0,7215.0,0.0,0.0,
2025-08-15T03:57:15.970Z,2,GR86-037-03,3.0,0.147,0.015,100.01,4.0,,0.0,0.0,157.07
2025-08-15T03:57:16.013Z,2,GR86-037-03,3.0,0.172,-0.028,99.99,4.0,,0.0,0.0,
2025-08-15T03:57:16.056Z,2,GR86-037-03,2.8000000000000003,0.173,-0.016,100.0,4.0,,0.0,0.0,
2025-08-15T03:57:16.099Z,2,GR86-037-03,1.7000000000000002,0.127,-0.033,100.0,4.0,,0.0,0.0,
2025-08-15T03:57:16.144Z,2,GR86-037-03,0.5,0.169,-0.055,100.0,4.0,6178.0,0.0,0.0,
2025-08-15T03:57:16.187Z,2,GR86-037-03,0.4,0.166,-0.058,99.99,4.0,,0.0,0.0,158.29
2025-08-15T03:57:16.230Z,2,GR86-037-03,0.0,0.138,-0.073,99.98,4.0,,0.0,0.0,
2025-08-15T03:57:16.273Z,2,GR86-037-03,-0.4,0.13,-0.116,100.0,4.0,,0.0,0.0,
2025-08-15T03:57:16.316Z,2,GR86-037-03,-0.4,0.109,-0.123,100.0,4.0,,0.0,0.0,
2025-08-15T03:57:16.359Z,2,GR86-037-03,-0.4,0.146,-0.126,100.0,4.0,6258.0,0.0,0.0,
2025-08-15T03:57:16.402Z,2,GR86-037-03,-0.4,0.146,-0.155,100.01,4.0,,0.0,0.0,159.35
2025-08-15T03:57:16.445Z,2,GR86-037-03,-0.4,0.121,-0.181,99.99,4.0,,0.0,0.0,
2025-08-15T03:57:16.488Z,2,GR86-037-03,-1.0,0.136,-0.183,100.0,4.0,,0.0,0.0,
2025-08-15T03:57:16.531Z,2,GR86-037-03,-2.9000000000000004,0.136,-0.173,99.98,4.0,,0.0,0.0,
2025-08-15T03:57:16.574Z,2,GR86-037-03,-5.0,0.152,-0.175,100.01,4.0,6298.0,0.0,0.0,
2025-08-15T03:57:16.617Z,2,GR86-037-03,-5.300000000000001,0.172,-0.208,100.0,4.0,,0.0,0.0,160.39
2025-08-15T03:57:16.660Z,2,GR86-037-03,-5.300000000000001,0.171,-0.225,100.0,4.0,,0.0,0.0,
2025-08-15T03:57:16.704Z,2,GR86-037-03,-5.300000000000001,0.13,-0.272,99.99,4.0,,0.0,0.0,
2025-08-15T03:57:16.747Z,2,GR86-037-03,-4.7,0.162,-0.27,100.01,4.0,,0.0,0.0,
2025-08-15T03:57:16.790Z,2,GR86-037-03,-4.5,0.161,-0.267,99.98,4.0,6332.0,0.0,0.0,
2025-08-15T03:57:16.834Z,2,GR86-037-03,-4.5,0.173,-0.298,100.01,4.0,,0.0,0.0,161.39
2025-08-15T03:57:16.877Z,2,GR86-037-03,-4.4,0.174,-0.311,99.99,4.0,,0.0,0.0,
2025-08-15T03:57:16.920Z,2,GR86-037-03,-4.4,0.158,-0.313,100.0,4.0,,0.0,0.0,
2025-08-15T03:57:16.964Z,2,GR86-037-03,-2.7,0.152,-0.292,100.01,4.0,,0.0,0.0,
2025-08-15T03:57:17.006Z,2,GR86-037-03,0.6000000000000001,0.172,-0.293,99.99,4.0,6376.0,0.0,0.0,
2025-08-15T03:57:17.049Z,2,GR86-037-03,1.7000000000000002,0.172,-0.245,100.0,4.0,,0.0,0.0,162.46
2025-08-15T03:57:17.092Z,2,GR86-037-03,1.1,0.184,-0.216,100.0,4.0,,0.0,0.0,
2025-08-15T03:57:17.135Z,2,GR86-037-03,0.3,0.163,-0.188,100.0,4.0,,0.0,0.0,
2025-08-15T03:57:17.178Z,2,GR86-037-03,0.3,0.132,-0.152,99.99,4.0,,0.0,0.0,
2025-08-15T03:57:17.221Z,2,GR86-037-03,0.3,0.122,-0.142,100.01,4.0,6427.0,0.0,0.0,
2025-08-15T03:57:17.264Z,2,GR86-037-03,0.3,0.187,-0.111,99.98,4.0,,0.0,0.0,163.63
2025-08-15T03:57:17.307Z,2,GR86-037-03,1.0,0.171,-0.101,99.98,4.0,,0.0,0.0,
2025-08-15T03:57:17.350Z,2,GR86-037-03,1.1,0.152,-0.09,100.0,4.0,,0.0,0.0,
2025-08-15T03:57:17.393Z,2,GR86-037-03,0.3,0.135,-0.092,100.0,4.0,,0.0,0.0,
2025-08-15T03:57:17.436Z,2,GR86-037-03,-1.6,0.143,-0.097,100.0,4.0,6457.0,0.0,0.0,
2025-08-15T03:57:17.479Z,2,GR86-037-03,-2.7,0.114,-0.1,99.99,4.0,,0.0,0.0,164.69
2025-08-15T03:57:17.523Z,2,GR86-037-03,-2.9000000000000004,0.179,-0.136,100.0,4.0,,0.0,0.0,
2025-08-15T03:57:17.565Z,2,GR86-037-03,-3.1,0.163,-0.153,99.99,4.0,,0.0,0.0,
2025-08-15T03:57:17.608Z,2,GR86-037-03,-3.2,0.16,-0.189,99.99,4.0,,0.0,0.0,
2025-08-15T03:57:17.651Z,2,GR86-037-03,-3.2,0.142,-0.19,99.99,4.0,6500.0,0.0,0.0,
2025-08-15T03:57:17.694Z,2,GR86-037-03,-1.4,0.149,-0.214,100.0,4.0,,0.0,0.0,165.9
2025-08-15T03:57:17.737Z,2,GR86-037-03,0.0,0.113,-0.21,99.99,4.0,,0.0,0.0,
2025-08-15T03:57:17.780Z,2,GR86-037-03,0.3,0.117,-0.2,99.99,4.0,,0.0,0.0,
2025-08-15T03:57:17.824Z,2,GR86-037-03,0.3,0.174,-0.217,99.99,4.0,,0.0,0.0,
2025-08-15T03:57:17.867Z,2,GR86-037-03,-1.0,0.165,-0.197,100.0,4.0,6550.0,0.0,0.0,
2025-08-15T03:57:17.910Z,2,GR86-037-03,-4.5,0.149,-0.181,100.03,4.0,,0.0,0.0,167.02
2025-08-15T03:57:17.953Z,2,GR86-037-03,-8.3,0.138,-0.207,100.0,4.0,,0.0,0.0,
2025-08-15T03:57:17.996Z,2,GR86-037-03,-9.4,0.105,-0.247,100.0,4.0,,0.0,0.0,
2025-08-15T03:57:18.039Z,2,GR86-037-03,-9.2,0.095,-0.281,100.0,4.0,,0.0,0.0,
2025-08-15T03:57:18.083Z,2,GR86-037-03,-7.300000000000001,0.17,-0.356,100.01,4.0,6596.0,0.0,0.0,
2025-08-15T03:57:18.125Z,2,GR86-037-03,-5.1000000000000005,0.149,-0.395,99.99,4.0,,0.0,0.0,168.14
2025-08-15T03:57:18.168Z,2,GR86-037-03,-2.5,0.16,-0.385,99.99,4.0,,0.0,0.0,
2025-08-15T03:57:18.211Z,2,GR86-037-03,-1.1,0.145,-0.358,100.01,4.0,,0.0,0.0,
2025-08-15T03:57:18.254Z,2,GR86-037-03,-1.1,0.13,-0.314,99.98,4.0,,0.0,0.0,
2025-08-15T03:57:18.297Z,2,GR86-037-03,-1.1,0.119,-0.292,100.01,4.0,6636.0,0.0,0.0,
2025-08-15T03:57:18.340Z,2,GR86-037-03,-1.1,0.128,-0.254,99.99,4.0,,0.0,0.0,169.34
2025-08-15T03:57:18.384Z,2,GR86-037-03,-1.1,0.158,-0.193,100.0,4.0,,0.0,0.0,
2025-08-15T03:57:18.426Z,2,GR86-037-03,-2.2,0.169,-0.161,100.0,4.0,,0.0,0.0,
2025-08-15T03:57:18.469Z,2,GR86-037-03,-3.2,0.173,-0.175,100.01,4.0,,0.0,0.0,
2025-08-15T03:57:18.513Z,2,GR86-037-03,-3.5,0.168,-0.18,99.98,4.0,6687.0,0.0,0.0,
2025-08-15T03:57:18.556Z,2,GR86-037-03,-3.5,0.157,-0.188,100.01,4.0,,0.0,0.0,171.47
2025-08-15T03:57:18.599Z,2,GR86-037-03,-3.5,0.142,-0.213,100.01,4.0,,0.0,0.0,
2025-08-15T03:57:18.644Z,2,GR86-037-03,-3.5,0.132,-0.215,100.01,4.0,,0.0,0.0,
2025-08-15T03:57:18.687Z,2,GR86-037-03,-3.5,0.166,-0.219,100.03,4.0,,0.0,0.0,
2025-08-15T03:57:18.730Z,2,GR86-037-03,-3.5,0.173,-0.231,100.0,4.0,6721.0,0.0,0.0,
2025-08-15T03:57:18.773Z,2,GR86-037-03,-2.5,0.163,-0.249,100.0,4.0,,0.0,0.0,172.54
2025-08-15T03:57:18.816Z,2,GR86-037-03,-0.5,0.158,-0.257,99.99,4.0,,0.0,0.0,
2025-08-15T03:57:18.859Z,2,GR86-037-03,-0.2,0.156,-0.223,99.99,4.0,,0.0,0.0,
2025-08-15T03:57:18.903Z,2,GR86-037-03,-0.2,0.119,-0.237,100.02,4.0,,0.0,0.0,
2025-08-15T03:57:18.947Z,2,GR86-037-03,-0.2,0.113,-0.217,100.02,4.0,6806.0,0.0,0.0,
2025-08-15T03:57:18.990Z,2,GR86-037-03,-0.2,0.12,-0.17,99.99,4.0,,0.0,0.0,173.55
2025-08-15T03:57:19.033Z,2,GR86-037-03,-0.2,0.121,-0.124,99.98,4.0,,0.0,0.0,
2025-08-15T03:57:19.076Z,2,GR86-037-03,-0.2,0.136,-0.097,100.01,4.0,,0.0,0.0,
2025-08-15T03:57:19.119Z,2,GR86-037-03,0.1,0.132,-0.108,100.01,4.0,,0.0,0.0,
2025-08-15T03:57:19.164Z,2,GR86-037-03,1.0,0.122,-0.134,100.0,4.0,6847.0,0.0,0.0,
2025-08-15T03:57:19.207Z,2,GR86-037-03,1.8,0.119,-0.107,100.01,4.0,,0.0,0.0,174.8
2025-08-15T03:57:19.250Z,2,GR86-037-03,2.0,0.128,-0.1,100.03,4.0,,0.0,0.0,
2025-08-15T03:57:19.294Z,2,GR86-037-03,2.0,0.117,-0.069,100.0,4.0,,0.0,0.0,
2025-08-15T03:57:19.337Z,2,GR86-037-03,2.0,0.123,-0.093,100.0,4.0,,0.0,0.0,
2025-08-15T03:57:19.380Z,2,GR86-037-03,2.0,0.12,-0.089,100.01,4.0,6892.0,0.0,0.0,
2025-08-15T03:57:19.424Z,2,GR86-037-03,2.0,0.169,-0.078,99.98,4.0,,0.0,0.0,175.81
2025-08-15T03:57:19.466Z,2,GR86-037-03,2.0,0.152,-0.081,99.99,4.0,,0.0,0.0,
2025-08-15T03:57:19.509Z,2,GR86-037-03,2.0,0.154,-0.069,100.0,4.0,,0.0,0.0,
2025-08-15T03:57:19.552Z,2,GR86-037-03,2.0,0.163,-0.049,100.01,4.0,,0.0,0.0,
2025-08-15T03:57:19.595Z,2,GR86-037-03,2.0,0.146,-0.025,99.99,4.0,6929.0,0.0,0.0,
2025-08-15T03:57:19.638Z,2,GR86-037-03,1.0,0.156,-0.004,100.0,4.0,,0.0,0.0,176.86
2025-08-15T03:57:19.681Z,2,GR86-037-03,-0.2,0.153,-0.064,100.0,4.0,,0.0,0.0,
2025-08-15T03:57:19.724Z,2,GR86-037-03,-1.7000000000000002,0.097,-0.079,99.98,4.0,,0.0,0.0,
2025-08-15T03:57:19.767Z,2,GR86-037-03,-1.7000000000000002,0.117,-0.096,99.99,4.0,,0.0,0.0,
2025-08-15T03:57:19.810Z,2,GR86-037-03,-1.8,0.112,-0.093,100.0,4.0,6971.0,0.0,0.0,
2025-08-15T03:57:19.853Z,2,GR86-037-03,-1.0,0.108,-0.117,100.0,4.0,,0.0,0.0,177.87
2025-08-15T03:57:19.896Z,2,GR86-037-03,0.6000000000000001,0.113,-0.143,100.01,4.0,,0.0,0.0,
2025-08-15T03:57:19.939Z,2,GR86-037-03,1.2000000000000002,0.126,-0.167,100.01,4.0,,0.0,0.0,
2025-08-15T03:57:19.984Z,2,GR86-037-03,1.5,0.143,-0.144,100.01,4.0,,0.0,0.0,
2025-08-15T03:57:20.027Z,2,GR86-037-03,1.6,0.146,-0.11,100.01,4.0,7005.0,0.0,0.0,
2025-08-15T03:57:20.070Z,2,GR86-037-03,1.8,0.132,-0.09,100.0,4.0,,0.0,0.0,178.92000000000002
2025-08-15T03:57:20.113Z,2,GR86-037-03,2.2,0.134,-0.066,100.0,4.0,,0.0,0.0,
2025-08-15T03:57:20.156Z,2,GR86-037-03,2.3000000000000003,0.126,-0.068,99.99,4.0,,0.0,0.0,
2025-08-15T03:57:20.199Z,2,GR86-037-03,2.3000000000000003,0.132,-0.062,100.01,4.0,,0.0,0.0,
2025-08-15T03:57:20.244Z,2,GR86-037-03,2.3000000000000003,0.105,-0.028,100.0,4.0,7049.0,0.0,0.0,
2025-08-15T03:57:20.287Z,2,GR86-037-03,2.3000000000000003,0.113,-0.016,99.98,4.0,,0.0,0.0,179.93
2025-08-15T03:57:20.330Z,2,GR86-037-03,2.3000000000000003,0.113,-0.012,100.01,4.0,,0.0,0.0,
2025-08-15T03:57:20.374Z,2,GR86-037-03,2.3000000000000003,0.115,-0.02,100.02,4.0,,0.0,0.0,
2025-08-15T03:57:20.417Z,2,GR86-037-03,2.3000000000000003,0.123,-0.009,100.0,4.0,,0.0,0.0,
2025-08-15T03:57:20.460Z,2,GR86-037-03,2.3000000000000003,0.113,-0.022,99.99,4.0,7087.0,0.0,0.0,
2025-08-15T03:57:20.504Z,2,GR86-037-03,2.3000000000000003,0.113,-0.017,100.02,4.0,,0.0,0.0,180.9
2025-08-15T03:57:20.547Z,2,GR86-037-03,2.3000000000000003,0.13,-0.026,100.01,4.0,,0.0,0.0,
2025-08-15T03:57:20.590Z,2,GR86-037-03,2.3000000000000003,0.124,-0.012,99.99,4.0,,0.0,0.0,
2025-08-15T03:57:20.633Z,2,GR86-037-03,2.3000000000000003,0.122,-0.017,99.99,4.0,,0.0,0.0,
2025-08-15T03:57:20.676Z,2,GR86-037-03,2.3000000000000003,0.121,0.003,100.0,4.0,7123.0,0.0,0.0,
2025-08-15T03:57:20.719Z,2,GR86-037-03,2.3000000000000003,0.123,0.015,99.99,4.0,,0.0,0.0,181.87
2025-08-15T03:57:20.764Z,2,GR86-037-03,2.6,0.089,-0.007,99.99,4.0,,0.0,0.0,
2025-08-15T03:57:20.807Z,2,GR86-037-03,2.7,0.09,0.0,100.0,4.0,,0.0,0.0,
2025-08-15T03:57:20.850Z,2,GR86-037-03,2.7,0.112,0.005,99.99,4.0,,0.0,0.0,
2025-08-15T03:57:20.893Z,2,GR86-037-03,2.7,0.09,0.007,99.99,4.0,7155.0,0.0,0.0,
2025-08-15T03:57:20.936Z,2,GR86-037-03,2.5,0.114,0.012,100.0,4.0,,0.0,0.0,182.89
2025-08-15T03:57:20.979Z,2,GR86-037-03,2.4000000000000004,0.104,-0.002,99.99,4.0,,0.0,0.0,
2025-08-15T03:57:21.023Z,2,GR86-037-03,0.1,0.072,0.003,100.01,5.0,,0.0,0.0,
2025-08-15T03:57:21.065Z,2,GR86-037-03,-0.9,-0.088,-0.019,99.99,5.0,,0.0,0.0,
2025-08-15T03:57:21.108Z,2,GR86-037-03,-1.0,0.272,-0.011,99.99,5.0,7194.0,0.0,0.0,
2025-08-15T03:57:21.151Z,2,GR86-037-03,-1.0,0.228,-0.123,100.0,5.0,,0.0,0.0,184.63
2025-08-15T03:57:21.194Z,2,GR86-037-03,-1.0,0.105,-0.043,99.99,5.0,,0.0,0.0,
2025-08-15T03:57:21.237Z,2,GR86-037-03,-1.0,0.013,-0.077,99.99,5.0,,0.0,0.0,
2025-08-15T03:57:21.280Z,2,GR86-037-03,-1.0,0.093,-0.171,99.99,5.0,,0.0,0.0,
2025-08-15T03:57:21.324Z,2,GR86-037-03,-1.0,0.119,-0.118,100.01,5.0,7231.0,0.0,0.0,
2025-08-15T03:57:21.366Z,2,GR86-037-03,-1.0,0.059,-0.193,100.0,5.0,,0.0,0.0,185.39
2025-08-15T03:57:21.409Z,2,GR86-037-03,-1.0,0.081,-0.128,100.02,5.0,,0.0,0.0,
2025-08-15T03:57:21.453Z,2,GR86-037-03,0.8,0.116,-0.135,99.99,5.0,,0.0,0.0,
2025-08-15T03:57:21.495Z,2,GR86-037-03,2.2,0.102,-0.129,99.99,5.0,,0.0,0.0,
2025-08-15T03:57:21.538Z,2,GR86-037-03,2.2,0.089,-0.086,100.0,5.0,6405.0,0.0,0.0,
2025-08-15T03:57:21.581Z,2,GR86-037-03,2.0,0.1,-0.089,100.01,5.0,,0.0,0.0,186.28
2025-08-15T03:57:21.624Z,2,GR86-037-03,0.1,0.092,-0.023,99.98,5.0,,0.0,0.0,
2025-08-15T03:57:21.667Z,2,GR86-037-03,-0.5,0.093,-0.038,100.02,5.0,,0.0,0.0,
2025-08-15T03:57:21.710Z,2,GR86-037-03,-0.5,0.087,-0.04,100.0,5.0,,0.0,0.0,
2025-08-15T03:57:21.754Z,2,GR86-037-03,-0.5,0.109,-0.055,100.01,5.0,6341.0,0.0,0.0,
2025-08-15T03:57:21.797Z,2,GR86-037-03,-0.6000000000000001,0.094,-0.053,99.98,5.0,,0.0,0.0,187.14
2025-08-15T03:57:21.840Z,2,GR86-037-03,-0.9,0.093,-0.059,99.99,5.0,,0.0,0.0,
2025-08-15T03:57:21.884Z,2,GR86-037-03,-1.1,0.094,-0.083,100.0,5.0,,0.0,0.0,
2025-08-15T03:57:21.926Z,2,GR86-037-03,-1.1,0.099,-0.105,100.0,5.0,,0.0,0.0,
2025-08-15T03:57:21.970Z,2,GR86-037-03,-1.1,0.1,-0.127,100.01,5.0,6375.0,0.0,0.0,
2025-08-15T03:57:22.013Z,2,GR86-037-03,-1.1,0.097,-0.133,100.0,5.0,,0.0,0.0,187.8
2025-08-15T03:57:22.056Z,2,GR86-037-03,-1.2000000000000002,0.098,-0.14,100.02,5.0,,0.0,0.0,
2025-08-15T03:57:22.099Z,2,GR86-037-03,-1.2000000000000002,0.101,-0.135,99.99,5.0,,0.0,0.0,
2025-08-15T03:57:22.144Z,2,GR86-037-03,-1.2000000000000002,0.107,-0.147,100.0,5.0,,0.0,0.0,
2025-08-15T03:57:22.187Z,2,GR86-037-03,0.1,0.099,-0.16,99.99,5.0,6404.0,0.0,0.0,
2025-08-15T03:57:22.230Z,2,GR86-037-03,0.4,0.115,-0.15,99.98,5.0,,0.0,0.0,188.58
2025-08-15T03:57:22.273Z,2,GR86-037-03,0.4,0.11,-0.137,100.01,5.0,,0.0,0.0,
2025-08-15T03:57:22.316Z,2,GR86-037-03,-0.9,0.124,-0.138,99.99,5.0,,0.0,0.0,
2025-08-15T03:57:22.359Z,2,GR86-037-03,-1.4,0.11,-0.132,99.99,5.0,,0.0,0.0,
2025-08-15T03:57:22.402Z,2,GR86-037-03,-1.4,0.109,-0.096,99.99,5.0,6423.0,0.0,0.0,
2025-08-15T03:57:22.445Z,2,GR86-037-03,-1.4,0.118,-0.095,100.0,5.0,,0.0,0.0,189.34
2025-08-15T03:57:22.488Z,2,GR86-037-03,-0.9,0.107,-0.129,99.99,5.0,,0.0,0.0,
2025-08-15T03:57:22.531Z,2,GR86-037-03,-0.8,0.112,-0.152,100.02,5.0,,0.0,0.0,
2025-08-15T03:57:22.574Z,2,GR86-037-03,-0.8,0.106,-0.141,100.0,5.0,,0.0,0.0,
2025-08-15T03:57:22.617Z,2,GR86-037-03,-0.8,0.119,-0.122,99.99,5.0,6448.0,0.0,0.0,
2025-08-15T03:57:22.660Z,2,GR86-037-03,-0.1,0.093,-0.112,100.02,5.0,,0.0,0.0,190.25
2025-08-15T03:57:22.704Z,2,GR86-037-03,1.0,0.115,-0.111,99.98,5.0,,0.0,0.0,
2025-08-15T03:57:22.747Z,2,GR86-037-03,1.0,0.114,-0.099,100.01,5.0,,0.0,0.0,
2025-08-15T03:57:22.790Z,2,GR86-037-03,1.0,0.124,-0.102,99.99,5.0,,0.0,0.0,
2025-08-15T03:57:22.834Z,2,GR86-037-03,1.0,0.123,-0.104,100.0,5.0,6483.0,0.0,0.0,
2025-08-15T03:57:22.877Z,2,GR86-037-03,1.0,0.124,-0.101,100.0,5.0,,0.0,0.0,191.1
2025-08-15T03:57:22.920Z,2,GR86-037-03,1.0,0.118,-0.061,100.0,5.0,,0.0,0.0,
2025-08-15T03:57:22.964Z,2,GR86-037-03,1.0,0.114,-0.076,100.0,5.0,,0.0,0.0,
2025-08-15T03:57:23.006Z,2,GR86-037-03,1.0,0.12,-0.077,99.99,5.0,,0.0,0.0,
2025-08-15T03:57:23.049Z,2,GR86-037-03,1.2000000000000002,0.129,-0.079,100.0,5.0,6517.0,0.0,0.0,
2025-08-15T03:57:23.093Z,2,GR86-037-03,1.7000000000000002,0.114,-0.047,100.01,5.0,,0.0,0.0,191.87
2025-08-15T03:57:23.136Z,2,GR86-037-03,2.4000000000000004,0.132,-0.036,99.99,5.0,,0.0,0.0,
2025-08-15T03:57:23.179Z,2,GR86-037-03,3.5,0.115,-0.022,99.99,5.0,,0.0,0.0,
2025-08-15T03:57:23.223Z,2,GR86-037-03,4.2,0.113,-0.058,99.99,5.0,,0.0,0.0,
2025-08-15T03:57:23.267Z,2,GR86-037-03,4.2,0.129,-0.038,99.99,5.0,6540.0,0.0,0.0,
2025-08-15T03:57:23.310Z,2,GR86-037-03,4.2,0.123,0.019,99.99,5.0,,0.0,0.0,192.73
2025-08-15T03:57:23.353Z,2,GR86-037-03,4.2,0.123,0.046,100.01,5.0,,0.0,0.0,
2025-08-15T03:57:23.396Z,2,GR86-037-03,4.2,0.127,0.065,100.02,5.0,,0.0,0.0,
2025-08-15T03:57:23.439Z,2,GR86-037-03,4.9,0.142,0.066,100.0,5.0,,0.0,0.0,
2025-08-15T03:57:23.483Z,2,GR86-037-03,5.6000000000000005,0.123,0.081,100.02,5.0,6568.0,0.0,0.0,
2025-08-15T03:57:23.525Z,2,GR86-037-03,5.5,0.116,0.083,100.0,5.0,,0.0,0.0,193.64
2025-08-15T03:57:23.568Z,2,GR86-037-03,3.6,0.125,0.079,100.01,5.0,,0.0,0.0,
2025-08-15T03:57:23.611Z,2,GR86-037-03,2.3000000000000003,0.121,0.083,99.99,5.0,,0.0,0.0,
2025-08-15T03:57:23.654Z,2,GR86-037-03,2.3000000000000003,0.14,0.086,100.0,5.0,,0.0,0.0,
2025-08-15T03:57:23.697Z,2,GR86-037-03,2.3000000000000003,0.124,0.073,100.0,5.0,6595.0,0.0,0.0,
2025-08-15T03:57:23.740Z,2,GR86-037-03,2.3000000000000003,0.123,0.045,100.0,5.0,,0.0,0.0,194.51
2025-08-15T03:57:23.784Z,2,GR86-037-03,2.3000000000000003,0.129,0.027,99.99,5.0,,0.0,0.0,
2025-08-15T03:57:23.826Z,2,GR86-037-03,2.3000000000000003,0.132,0.002,100.0,5.0,,0.0,0.0,
2025-08-15T03:57:23.869Z,2,GR86-037-03,2.3000000000000003,0.115,-0.023,99.99,5.0,,0.0,0.0,
2025-08-15T03:57:23.913Z,2,GR86-037-03,2.3000000000000003,0.136,-0.034,100.01,5.0,6629.0,0.0,0.0,
2025-08-15T03:57:23.956Z,2,GR86-037-03,2.3000000000000003,0.114,-0.027,100.01,5.0,,0.0,0.0,196.4
2025-08-15T03:57:23.999Z,2,GR86-037-03,2.3000000000000003,0.109,-0.029,100.01,5.0,,0.0,0.0,
2025-08-15T03:57:24.044Z,2,GR86-037-03,2.3000000000000003,0.118,-0.046,100.0,5.0,,0.0,0.0,
2025-08-15T03:57:24.087Z,2,GR86-037-03,2.3000000000000003,0.126,-0.022,100.0,5.0,,0.0,0.0,
2025-08-15T03:57:24.130Z,2,GR86-037-03,2.3000000000000003,0.124,-0.02,99.99,5.0,6665.0,0.0,0.0,
2025-08-15T03:57:24.173Z,2,GR86-037-03,3.2,0.121,-0.006,100.01,5.0,,0.0,0.0,197.28
2025-08-15T03:57:24.216Z,2,GR86-037-03,4.0,0.106,-0.024,99.98,5.0,,0.0,0.0,
2025-08-15T03:57:24.259Z,2,GR86-037-03,4.0,0.116,0.014,99.98,5.0,,0.0,0.0,
2025-08-15T03:57:24.303Z,2,GR86-037-03,4.0,0.113,0.044,100.02,5.0,,0.0,0.0,
2025-08-15T03:57:24.347Z,2,GR86-037-03,2.2,0.124,0.054,100.01,5.0,6718.0,0.0,0.0,
2025-08-15T03:57:24.390Z,2,GR86-037-03,-0.6000000000000001,0.108,0.043,100.01,5.0,,0.0,0.0,198.13
2025-08-15T03:57:24.433Z,2,GR86-037-03,-1.9,0.106,0.021,100.02,5.0,,0.0,0.0,
2025-08-15T03:57:24.476Z,2,GR86-037-03,-1.9,0.094,-0.021,100.02,5.0,,0.0,0.0,
2025-08-15T03:57:24.519Z,2,GR86-037-03,-1.5,0.074,-0.039,100.0,5.0,,0.0,0.0,
2025-08-15T03:57:24.564Z,2,GR86-037-03,-0.2,0.095,-0.096,100.0,5.0,6756.0,0.0,0.0,
2025-08-15T03:57:24.607Z,2,GR86-037-03,-0.2,0.092,-0.128,100.0,5.0,,0.0,0.0,198.97
2025-08-15T03:57:24.650Z,2,GR86-037-03,-0.2,0.08,-0.126,100.01,5.0,,0.0,0.0,
2025-08-15T03:57:24.694Z,2,GR86-037-03,-0.2,0.08,-0.151,99.99,5.0,,0.0,0.0,
2025-08-15T03:57:24.737Z,2,GR86-037-03,-0.2,0.084,-0.135,100.02,5.0,,0.0,0.0,
2025-08-15T03:57:24.780Z,2,GR86-037-03,-0.2,0.066,-0.163,100.0,5.0,6771.0,0.0,0.0,
2025-08-15T03:57:24.824Z,2,GR86-037-03,-0.2,0.072,-0.148,100.0,5.0,,0.0,0.0,199.84
2025-08-15T03:57:24.866Z,2,GR86-037-03,-0.2,0.068,-0.123,100.0,5.0,,0.0,0.0,
2025-08-15T03:57:24.909Z,2,GR86-037-03,-0.2,0.083,-0.107,99.99,5.0,,0.0,0.0,
2025-08-15T03:57:24.952Z,2,GR86-037-03,-0.2,0.098,-0.078,100.0,5.0,,0.0,0.0,
2025-08-15T03:57:24.995Z,2,GR86-037-03,-0.2,0.086,-0.113,99.98,5.0,6809.0,0.0,0.0,
2025-08-15T03:57:25.038Z,2,GR86-037-03,-0.2,0.098,-0.108,100.0,5.0,,0.0,0.0,200.61
2025-08-15T03:57:25.081Z,2,GR86-037-03,-0.2,0.112,-0.106,100.0,5.0,,0.0,0.0,
2025-08-15T03:57:25.124Z,2,GR86-037-03,-0.2,0.076,-0.093,100.0,5.0,,0.0,0.0,
2025-08-15T03:57:25.167Z,2,GR86-037-03,-0.2,0.095,-0.095,100.01,5.0,,0.0,0.0,
2025-08-15T03:57:25.210Z,2,GR86-037-03,-0.2,0.112,-0.119,99.98,5.0,6822.0,0.0,0.0,
2025-08-15T03:57:25.253Z,2,GR86-037-03,-0.2,0.11,-0.13,99.98,5.0,,0.0,0.0,201.26
2025-08-15T03:57:25.296Z,2,GR86-037-03,0.2,0.116,-0.129,99.99,5.0,,0.0,0.0,
2025-08-15T03:57:25.339Z,2,GR86-037-03,1.4,0.107,-0.107,99.99,5.0,,0.0,0.0,
2025-08-15T03:57:25.384Z,2,GR86-037-03,2.1,0.122,-0.095,100.0,5.0,,0.0,0.0,
2025-08-15T03:57:25.427Z,2,GR86-037-03,2.3000000000000003,0.121,-0.074,100.01,5.0,6847.0,0.0,0.0,
2025-08-15T03:57:25.470Z,2,GR86-037-03,2.5,0.121,-0.069,100.0,5.0,,0.0,0.0,201.99
2025-08-15T03:57:25.513Z,2,GR86-037-03,2.8000000000000003,0.102,-0.02,99.99,5.0,,0.0,0.0,
2025-08-15T03:57:25.556Z,2,GR86-037-03,3.0,0.075,-0.018,99.99,5.0,,0.0,0.0,
2025-08-15T03:57:25.599Z,2,GR86-037-03,3.0,0.089,-0.016,99.99,5.0,,0.0,0.0,
2025-08-15T03:57:25.644Z,2,GR86-037-03,3.0,0.124,-0.026,99.99,5.0,6876.0,0.0,0.0,
2025-08-15T03:57:25.687Z,2,GR86-037-03,3.0,0.091,-0.016,100.0,5.0,,0.0,0.0,202.7
2025-08-15T03:57:25.730Z,2,GR86-037-03,3.0,0.093,-0.005,100.0,5.0,,0.0,0.0,
2025-08-15T03:57:25.774Z,2,GR86-037-03,3.0,0.085,-0.006,99.99,5.0,,0.0,0.0,
2025-08-15T03:57:25.817Z,2,GR86-037-03,3.0,0.107,-0.008,99.98,5.0,,0.0,0.0,
2025-08-15T03:57:25.860Z,2,GR86-037-03,3.3000000000000003,0.096,-0.023,99.99,5.0,6908.0,0.0,0.0,
2025-08-15T03:57:25.904Z,2,GR86-037-03,3.9,0.095,0.021,100.01,5.0,,0.0,0.0,203.42
2025-08-15T03:57:25.947Z,2,GR86-037-03,4.1000000000000005,0.092,0.044,100.01,5.0,,0.0,0.0,
2025-08-15T03:57:25.990Z,2,GR86-037-03,4.1000000000000005,0.099,0.013,100.01,5.0,,0.0,0.0,
2025-08-15T03:57:26.033Z,2,GR86-037-03,4.1000000000000005,0.118,0.024,100.0,5.0,,0.0,0.0,
2025-08-15T03:57:26.076Z,2,GR86-037-03,4.1000000000000005,0.129,0.034,100.01,5.0,6930.0,0.0,0.0,
2025-08-15T03:57:26.119Z,2,GR86-037-03,4.1000000000000005,0.105,0.052,100.01,5.0,,0.0,0.0,204.36
2025-08-15T03:57:26.164Z,2,GR86-037-03,4.1000000000000005,0.123,0.042,100.0,5.0,,0.0,0.0,
2025-08-15T03:57:26.207Z,2,GR86-037-03,4.9,0.127,0.036,99.98,5.0,,0.0,0.0,
2025-08-15T03:57:26.250Z,2,GR86-037-03,6.7,0.115,0.057,100.01,5.0,,0.0,0.0,
2025-08-15T03:57:26.293Z,2,GR86-037-03,8.1,0.114,0.064,100.0,5.0,6954.0,0.0,0.0,
2025-08-15T03:57:26.336Z,2,GR86-037-03,8.5,0.064,0.101,99.99,5.0,,0.0,0.0,205.2
2025-08-15T03:57:26.379Z,2,GR86-037-03,8.5,0.076,0.116,100.01,5.0,,0.0,0.0,
2025-08-15T03:57:26.423Z,2,GR86-037-03,9.0,0.095,0.156,100.0,5.0,,0.0,0.0,
2025-08-15T03:57:26.465Z,2,GR86-037-03,9.8,0.084,0.172,100.01,5.0,,0.0,0.0,
2025-08-15T03:57:26.508Z,2,GR86-037-03,10.4,0.061,0.232,100.01,5.0,6996.0,0.0,0.0,
2025-08-15T03:57:26.551Z,2,GR86-037-03,10.7,0.095,0.255,100.0,5.0,,0.0,0.0,206.88
2025-08-15T03:57:26.594Z,2,GR86-037-03,11.2,0.089,0.272,100.01,5.0,,0.0,0.0,
2025-08-15T03:57:26.637Z,2,GR86-037-03,11.5,0.119,0.302,99.99,5.0,,0.0,0.0,
2025-08-15T03:57:26.680Z,2,GR86-037-03,11.5,0.11,0.319,99.98,5.0,,0.0,0.0,
2025-08-15T03:57:26.724Z,2,GR86-037-03,11.5,0.112,0.334,100.01,5.0,7021.0,0.0,0.0,
2025-08-15T03:57:26.766Z,2,GR86-037-03,11.5,0.103,0.345,100.01,5.0,,0.0,0.0,207.69
2025-08-15T03:57:26.809Z,2,GR86-037-03,11.7,0.11,0.36,100.01,5.0,,0.0,0.0,
2025-08-15T03:57:26.853Z,2,GR86-037-03,13.5,0.092,0.371,100.01,5.0,,0.0,0.0,
2025-08-15T03:57:26.897Z,2,GR86-037-03,15.3,0.073,0.374,100.0,5.0,,0.0,0.0,
2025-08-15T03:57:26.940Z,2,GR86-037-03,15.5,0.05,0.422,100.02,5.0,7045.0,0.0,0.0,
2025-08-15T03:57:26.984Z,2,GR86-037-03,14.8,0.071,0.431,100.01,5.0,,0.0,0.0,208.53
2025-08-15T03:57:27.028Z,2,GR86-037-03,14.8,0.078,0.423,100.01,5.0,,0.0,0.0,
2025-08-15T03:57:27.071Z,2,GR86-037-03,14.8,0.056,0.473,100.0,5.0,,0.0,0.0,
2025-08-15T03:57:27.114Z,2,GR86-037-03,14.8,0.098,0.493,99.99,5.0,,0.0,0.0,
2025-08-15T03:57:27.157Z,2,GR86-037-03,14.8,0.118,0.534,100.0,5.0,7101.0,0.0,0.0,
2025-08-15T03:57:27.200Z,2,GR86-037-03,14.7,0.104,0.549,99.99,5.0,,0.0,0.0,209.22
2025-08-15T03:57:27.244Z,2,GR86-037-03,14.8,0.103,0.559,100.02,5.0,,0.0,0.0,
2025-08-15T03:57:27.287Z,2,GR86-037-03,14.8,0.105,0.541,99.98,5.0,,0.0,0.0,
2025-08-15T03:57:27.330Z,2,GR86-037-03,14.8,0.104,0.546,99.99,5.0,,0.0,0.0,
2025-08-15T03:57:27.373Z,2,GR86-037-03,14.7,0.082,0.522,100.0,5.0,7132.0,0.0,0.0,
2025-08-15T03:57:27.416Z,2,GR86-037-03,13.4,0.078,0.519,100.01,5.0,,0.0,0.0,209.74
2025-08-15T03:57:27.459Z,2,GR86-037-03,11.3,0.087,0.497,100.01,5.0,,0.0,0.0,
2025-08-15T03:57:27.502Z,2,GR86-037-03,10.1,0.089,0.425,100.03,5.0,,0.0,0.0,
2025-08-15T03:57:27.545Z,2,GR86-037-03,10.1,0.092,0.41,100.01,5.0,,0.0,0.0,
2025-08-15T03:57:27.588Z,2,GR86-037-03,10.1,0.095,0.36,99.99,5.0,7151.0,0.0,0.0,
2025-08-15T03:57:27.631Z,2,GR86-037-03,10.1,0.094,0.345,99.99,5.0,,0.0,0.0,210.66
2025-08-15T03:57:27.674Z,2,GR86-037-03,10.1,0.113,0.341,99.98,5.0,,0.0,0.0,
2025-08-15T03:57:27.717Z,2,GR86-037-03,10.1,0.104,0.318,100.02,5.0,,0.0,0.0,
2025-08-15T03:57:27.760Z,2,GR86-037-03,10.1,0.091,0.28,100.01,5.0,,0.0,0.0,
2025-08-15T03:57:27.804Z,2,GR86-037-03,10.1,0.12,0.268,100.03,5.0,7178.0,0.0,0.0,
2025-08-15T03:57:27.847Z,2,GR86-037-03,10.1,0.079,0.311,100.01,5.0,,0.0,0.0,211.25
2025-08-15T03:57:27.890Z,2,GR86-037-03,10.1,0.054,0.333,99.99,5.0,,0.0,0.0,
2025-08-15T03:57:27.934Z,2,GR86-037-03,10.3,0.091,0.317,99.67,5.0,,0.0,0.0,
2025-08-15T03:57:27.977Z,2,GR86-037-03,10.9,0.093,0.284,49.03,5.0,,0.0,0.0,
2025-08-15T03:57:28.020Z,2,GR86-037-03,10.9,0.089,0.298,4.39,5.0,7199.0,0.0,0.0,
2025-08-15T03:57:28.064Z,2,GR86-037-03,10.9,-0.022,0.315,2.49,5.0,,0.0,0.0,212.0
2025-08-15T03:57:28.106Z,2,GR86-037-03,9.0,-0.123,0.357,2.39,5.0,,0.0,0.0,
2025-08-15T03:57:28.149Z,2,GR86-037-03,8.1,-0.392,0.281,2.39,5.0,,0.0,0.0,
2025-08-15T03:57:28.192Z,2,GR86-037-03,8.1,-0.162,0.268,2.39,5.0,,0.0,0.0,
2025-08-15T03:57:28.235Z,2,GR86-037-03,8.1,-0.085,0.344,2.39,5.0,7231.0,0.0,0.0,
2025-08-15T03:57:28.278Z,2,GR86-037-03,8.1,-0.164,0.305,2.38,5.0,,0.0,0.0,212.57
2025-08-15T03:57:28.323Z,2,GR86-037-03,6.5,-0.227,0.31,2.41,5.0,,0.0,0.0,
2025-08-15T03:57:28.365Z,2,GR86-037-03,4.2,-0.148,0.232,2.42,5.0,,0.0,0.0,
2025-08-15T03:57:28.408Z,2,GR86-037-03,3.8,-0.141,0.169,2.42,5.0,,0.0,0.0,
2025-08-15T03:57:28.451Z,2,GR86-037-03,3.8,-0.152,0.126,2.42,5.0,7004.0,0.0,0.0,
2025-08-15T03:57:28.494Z,2,GR86-037-03,4.1000000000000005,-0.144,0.071,2.43,5.0,,0.0,0.0,213.34
2025-08-15T03:57:28.537Z,2,GR86-037-03,7.7,-0.157,0.056,2.45,5.0,,0.0,0.0,
2025-08-15T03:57:28.580Z,2,GR86-037-03,10.4,-0.17,0.065,2.46,5.0,,0.0,0.0,
2025-08-15T03:57:28.624Z,2,GR86-037-03,14.1,-0.14,0.132,2.46,5.0,,0.0,0.0,
2025-08-15T03:57:28.710Z,2,GR86-037-03,14.1,-0.148,0.172,2.46,5.0,7156.0,0.0,0.0,213.0
2025-08-15T03:57:28.753Z,2,GR86-037-03,9.0,-0.282,0.298,2.47,5.0,,18.465,18.92,
2025-08-15T03:57:28.796Z,2,GR86-037-03,4.3,-0.542,0.31,2.48,5.0,,29.435,29.59,
2025-08-15T03:57:28.839Z,2,GR86-037-03,-0.2,-0.753,0.274,2.47,5.0,,34.06,34.215,
2025-08-15T03:57:28.883Z,2,GR86-037-03,-2.7,-0.678,0.209,2.48,5.0,7081.0,23.655,24.705,
2025-08-15T03:57:28.926Z,2,GR86-037-03,-2.7,-0.529,0.135,2.48,5.0,,20.695,21.44,211.94
2025-08-15T03:57:28.969Z,2,GR86-037-03,-0.6000000000000001,-0.605,0.07,2.48,5.0,,32.625,32.93,
2025-08-15T03:57:29.013Z,2,GR86-037-03,3.0,-0.812,0.011,2.48,5.0,,51.09,50.71,
2025-08-15T03:57:29.056Z,2,GR86-037-03,7.800000000000001,-1.029,-0.009,2.48,5.0,,61.79,61.39,
2025-08-15T03:57:29.099Z,2,GR86-037-03,12.5,-1.055,-0.007,2.48,5.0,7068.0,54.705,55.835,
2025-08-15T03:57:29.144Z,2,GR86-037-03,13.0,-0.6890000000000001,0.105,2.48,5.0,,25.15,26.4,207.51
2025-08-15T03:57:29.187Z,2,GR86-037-03,13.0,-0.744,-0.047,2.48,5.0,,25.805,26.535,
2025-08-15T03:57:29.230Z,2,GR86-037-03,13.0,-0.746,0.088,2.48,5.0,,41.49,41.705,
2025-08-15T03:57:29.273Z,2,GR86-037-03,12.9,-0.997,0.148,2.48,5.0,,59.56,59.24,
2025-08-15T03:57:29.316Z,2,GR86-037-03,12.4,-1.187,0.205,2.48,5.0,6850.0,73.14,72.605,
2025-08-15T03:57:29.359Z,2,GR86-037-03,9.7,-1.222,0.298,2.48,5.0,,81.55,82.375,200.81
2025-08-15T03:57:29.403Z,2,GR86-037-03,-1.3,-1.35,0.249,2.48,5.0,,89.715,90.46,
2025-08-15T03:57:29.447Z,2,GR86-037-03,-10.2,-1.287,0.248,2.49,5.0,,94.46,96.17,
2025-08-15T03:57:29.490Z,2,GR86-037-03,-13.2,-1.311,0.284,2.49,5.0,,97.435,98.245,
2025-08-15T03:57:29.533Z,2,GR86-037-03,-10.4,-1.34,0.222,2.49,5.0,6238.0,98.99,98.9,
2025-08-15T03:57:29.576Z,2,GR86-037-03,-6.1000000000000005,-1.258,0.149,2.49,5.0,,97.375,98.565,195.94
2025-08-15T03:57:29.619Z,2,GR86-037-03,-5.800000000000001,-1.169,0.24,2.48,5.0,,95.115,95.59,
2025-08-15T03:57:29.663Z,2,GR86-037-03,0.4,-1.204,0.133,2.48,5.0,,96.105,96.84,
2025-08-15T03:57:29.706Z,2,GR86-037-03,7.6,-1.173,0.08,2.48,5.0,,94.46,95.985,
2025-08-15T03:57:29.749Z,2,GR86-037-03,11.3,-1.328,0.187,2.48,5.0,5978.0,92.155,94.965,
2025-08-15T03:57:29.792Z,2,GR86-037-03,15.4,-1.296,0.261,2.49,5.0,,87.27,87.83500000000001,188.65
2025-08-15T03:57:29.835Z,2,GR86-037-03,19.3,-1.425,0.285,2.49,5.0,,78.895,80.285,
2025-08-15T03:57:29.879Z,2,GR86-037-03,19.4,-1.209,0.387,2.48,5.0,,73.265,75.005,
2025-08-15T03:57:29.921Z,2,GR86-037-03,15.3,-1.06,0.352,8.49,5.0,,71.675,71.92,
2025-08-15T03:57:29.964Z,2,GR86-037-03,-2.0,-1.272,0.386,76.43,5.0,5611.0,76.925,78.36,
2025-08-15T03:57:30.007Z,2,GR86-037-03,-9.2,-1.216,0.263,100.12,5.0,,81.245,82.89,175.74
2025-08-15T03:57:30.050Z,2,GR86-037-03,-9.3,-1.294,0.16,69.34,4.0,,84.68,85.5,
2025-08-15T03:57:30.094Z,2,GR86-037-03,-1.0,-1.234,0.0,5.66,4.0,,83.215,85.06,
2025-08-15T03:57:30.136Z,2,GR86-037-03,3.6,-1.376,0.175,3.04,4.0,,74.5,76.33,
2025-08-15T03:57:30.179Z,2,GR86-037-03,11.4,-1.151,0.179,2.67,4.0,5527.0,62.565000000000005,63.525,
2025-08-15T03:57:30.223Z,2,GR86-037-03,13.9,-1.086,0.272,2.48,4.0,,59.895,60.370000000000005,169.87
2025-08-15T03:57:30.265Z,2,GR86-037-03,13.9,-1.093,0.295,2.45,4.0,,61.71,61.91,
2025-08-15T03:57:30.308Z,2,GR86-037-03,12.6,-1.175,0.201,2.46,4.0,,63.465,63.77,
2025-08-15T03:57:30.351Z,2,GR86-037-03,7.6,-1.236,0.315,2.45,4.0,,64.365,64.78,
2025-08-15T03:57:30.394Z,2,GR86-037-03,2.0,-1.228,0.229,2.45,4.0,5901.0,61.74,62.995000000000005,
2025-08-15T03:57:30.437Z,2,GR86-037-03,-0.7000000000000001,-1.179,0.183,2.45,4.0,,55.075,56.66,162.8
2025-08-15T03:57:30.480Z,2,GR86-037-03,-1.6,-1.075,0.185,2.45,4.0,,48.955,50.65,
2025-08-15T03:57:30.524Z,2,GR86-037-03,-1.6,-0.98,0.138,53.72,4.0,,42.68,43.92,
2025-08-15T03:57:30.566Z,2,GR86-037-03,0.9,-0.944,0.113,97.19,4.0,,42.15,43.08,
2025-08-15T03:57:30.609Z,2,GR86-037-03,5.0,-0.954,0.084,98.91,3.0,5739.0,43.295,44.025,
2025-08-15T03:57:30.652Z,2,GR86-037-03,10.8,-0.971,0.042,40.7,3.0,,45.185,45.69,155.02
2025-08-15T03:57:30.695Z,2,GR86-037-03,12.1,-1.21,0.083,4.24,3.0,,46.985,47.995000000000005,
2025-08-15T03:57:30.738Z,2,GR86-037-03,9.3,-0.993,0.179,2.77,3.0,,47.58,48.36,
2025-08-15T03:57:30.781Z,2,GR86-037-03,6.2,-0.938,0.006,2.52,3.0,,43.295,44.025,
2025-08-15T03:57:30.824Z,2,GR86-037-03,6.7,-0.84,0.107,2.45,3.0,5588.0,37.295,38.32,
2025-08-15T03:57:30.867Z,2,GR86-037-03,9.6,-0.876,0.079,2.45,3.0,,35.86,36.87,148.56
2025-08-15T03:57:30.910Z,2,GR86-037-03,10.6,-0.888,0.112,2.45,3.0,,33.910000000000004,35.02,
2025-08-15T03:57:30.953Z,2,GR86-037-03,10.6,-0.838,0.289,2.45,3.0,,32.625,33.555,
2025-08-15T03:57:30.996Z,2,GR86-037-03,9.4,-0.8150000000000001,0.207,2.44,3.0,,33.315,34.0,
2025-08-15T03:57:31.039Z,2,GR86-037-03,3.5,-0.8210000000000001,0.219,2.45,3.0,6318.0,35.92,36.335,
2025-08-15T03:57:31.084Z,2,GR86-037-03,-0.5,-0.92,0.144,2.45,3.0,,41.615,42.025,142.0
2025-08-15T03:57:31.127Z,2,GR86-037-03,1.4,-0.958,0.114,2.45,3.0,,45.9,46.24,
2025-08-15T03:57:31.170Z,2,GR86-037-03,8.8,-1.015,0.132,2.45,3.0,,50.22,50.405,
2025-08-15T03:57:31.213Z,2,GR86-037-03,12.9,-1.081,0.139,2.45,3.0,,53.58,53.93,
2025-08-15T03:57:31.256Z,2,GR86-037-03,14.6,-1.105,0.25,2.45,3.0,6108.0,55.835,56.185,
2025-08-15T03:57:31.299Z,2,GR86-037-03,14.6,-1.101,0.232,30.55,3.0,,55.945,56.555,135.9
2025-08-15T03:57:31.344Z,2,GR86-037-03,11.6,-1.055,0.266,95.22,2.0,,49.2,50.65,
2025-08-15T03:57:31.474Z,2,GR86-037-03,1.2000000000000002,-1.117,0.162,4.6000000000000005,2.0,5836.0,38.105,39.46,
2025-08-15T03:57:31.517Z,2,GR86-037-03,-5.0,-1.201,0.104,2.51,2.0,,38.96,39.72,130.49
2025-08-15T03:57:31.560Z,2,GR86-037-03,-4.5,-1.018,0.199,2.45,2.0,,38.105,38.93,
2025-08-15T03:57:31.604Z,2,GR86-037-03,1.8,-0.731,0.102,2.42,2.0,,25.575,26.57,
2025-08-15T03:57:31.647Z,2,GR86-037-03,4.7,-0.536,0.123,2.42,2.0,,22.465,23.06,
2025-08-15T03:57:31.690Z,2,GR86-037-03,5.9,-0.673,0.239,2.42,2.0,5421.0,25.7,26.14,
2025-08-15T03:57:31.733Z,2,GR86-037-03,7.5,-0.8180000000000001,0.033,2.42,2.0,,33.1,33.375,123.37
2025-08-15T03:57:31.776Z,2,GR86-037-03,9.9,-0.892,0.121,2.42,2.0,,40.21,40.33,
2025-08-15T03:57:31.819Z,2,GR86-037-03,13.2,-0.92,0.105,2.42,2.0,,46.74,46.835,
2025-08-15T03:57:31.863Z,2,GR86-037-03,15.3,-1.054,0.16,2.42,2.0,,53.805,53.870000000000005,
2025-08-15T03:57:31.905Z,2,GR86-037-03,15.3,-1.07,0.146,2.43,2.0,6370.0,56.815,56.935,
2025-08-15T03:57:31.948Z,2,GR86-037-03,15.2,-1.124,0.16,2.44,2.0,,56.845,57.24,111.02
2025-08-15T03:57:31.991Z,2,GR86-037-03,15.2,-1.047,0.174,2.43,2.0,,47.09,48.36,
2025-08-15T03:57:32.034Z,2,GR86-037-03,15.9,-0.791,0.215,10.47,2.0,,33.94,35.205,
2025-08-15T03:57:32.077Z,2,GR86-037-03,17.2,-0.669,0.256,56.2,1.0,,25.99,27.025,
2025-08-15T03:57:32.120Z,2,GR86-037-03,16.8,-0.55,0.274,21.24,1.0,6149.0,21.24,22.16,
2025-08-15T03:57:32.164Z,2,GR86-037-03,12.6,-0.992,0.223,4.61,1.0,,21.93,22.875,105.21
2025-08-15T03:57:32.207Z,2,GR86-037-03,12.6,-0.876,0.286,4.3100000000000005,1.0,,23.455,24.46,
2025-08-15T03:57:32.250Z,2,GR86-037-03,12.8,-1.071,0.153,3.93,1.0,,21.835,22.125,
2025-08-15T03:57:32.293Z,2,GR86-037-03,16.2,-0.733,0.402,3.52,1.0,,15.365,16.025,
2025-08-15T03:57:32.336Z,2,GR86-037-03,21.5,-0.466,0.366,3.0700000000000003,1.0,5763.0,7.735,8.455,
2025-08-15T03:57:32.379Z,2,GR86-037-03,23.1,-0.252,0.405,2.76,1.0,,3.16,3.695,98.71
2025-08-15T03:57:32.423Z,2,GR86-037-03,23.200000000000003,-0.203,0.549,2.54,1.0,,2.58,3.13,
2025-08-15T03:57:32.465Z,2,GR86-037-03,23.8,-0.251,0.409,2.48,1.0,,6.6850000000000005,7.0200000000000005,
2025-08-15T03:57:32.508Z,2,GR86-037-03,24.4,-0.37,0.5720000000000001,2.48,1.0,,15.72,15.96,
2025-08-15T03:57:32.551Z,2,GR86-037-03,24.4,-0.539,0.475,2.45,1.0,6675.0,22.735,22.875,
2025-08-15T03:57:32.594Z,2,GR86-037-03,24.4,-0.632,0.436,2.45,1.0,,30.765,30.675,93.83
2025-08-15T03:57:32.637Z,2,GR86-037-03,24.4,-0.719,0.5,2.45,1.0,,39.845,39.72,
2025-08-15T03:57:32.680Z,2,GR86-037-03,25.1,-0.889,0.422,2.46,1.0,,48.265,47.995000000000005,
2025-08-15T03:57:32.724Z,2,GR86-037-03,31.0,-1.022,0.494,2.45,1.0,,57.27,56.72,
2025-08-15T03:57:32.766Z,2,GR86-037-03,35.1,-1.095,0.446,2.47,1.0,6554.0,60.98,60.615,
2025-08-15T03:57:32.809Z,2,GR86-037-03,35.5,-0.958,0.539,2.45,1.0,,64.305,63.65,90.81
2025-08-15T03:57:32.853Z,2,GR86-037-03,33.800000000000004,-0.999,0.592,2.45,1.0,,69.435,68.685,
2025-08-15T03:57:32.897Z,2,GR86-037-03,35.300000000000004,-0.963,0.545,2.45,1.0,,65.235,66.455,
2025-08-15T03:57:32.940Z,2,GR86-037-03,43.900000000000006,-0.912,0.553,2.46,1.0,,44.68,46.375,
2025-08-15T03:57:32.984Z,2,GR86-037-03,60.7,-0.433,0.7030000000000001,2.46,1.0,6155.0,13.14,13.825,
2025-08-15T03:57:33.028Z,2,GR86-037-03,67.0,-0.3,0.788,2.46,1.0,,3.935,4.53,87.3
2025-08-15T03:57:33.071Z,2,GR86-037-03,67.7,-0.374,0.766,2.45,1.0,,1.83,2.275,
2025-08-15T03:57:33.114Z,2,GR86-037-03,68.3,-0.351,0.846,2.47,1.0,,0.0,0.0,
2025-08-15T03:57:33.157Z,2,GR86-037-03,71.7,-0.244,0.878,2.47,1.0,,0.0,0.0,
2025-08-15T03:57:33.200Z,2,GR86-037-03,78.10000000000001,-0.137,0.934,2.46,1.0,5430.0,0.0,0.0,
2025-08-15T03:57:33.244Z,2,GR86-037-03,82.4,-0.1,1.027,2.47,1.0,,0.0,0.0,81.07000000000001
2025-08-15T03:57:33.287Z,2,GR86-037-03,80.7,-0.129,1.027,2.46,1.0,,0.0,0.0,
2025-08-15T03:57:33.330Z,2,GR86-037-03,75.4,-0.165,1.058,2.48,1.0,,0.0,0.0,
2025-08-15T03:57:33.373Z,2,GR86-037-03,70.9,-0.2,1.051,2.89,1.0,,0.0,0.0,
2025-08-15T03:57:33.416Z,2,GR86-037-03,70.3,-0.191,1.038,16.3,1.0,5472.0,0.0,0.0,
2025-08-15T03:57:33.459Z,2,GR86-037-03,73.5,-0.164,1.026,16.68,1.0,,0.0,0.0,76.95
2025-08-15T03:57:33.502Z,2,GR86-037-03,79.7,-0.166,1.084,5.78,1.0,,0.0,0.0,
2025-08-15T03:57:33.545Z,2,GR86-037-03,82.60000000000001,-0.097,1.063,5.8100000000000005,1.0,,0.0,0.0,
2025-08-15T03:57:33.588Z,2,GR86-037-03,86.5,-0.099,1.151,5.78,1.0,,0.0,0.0,
2025-08-15T03:57:33.631Z,2,GR86-037-03,91.0,-0.099,1.159,6.13,1.0,5296.0,0.0,0.0,
2025-08-15T03:57:33.674Z,2,GR86-037-03,95.1,-0.115,1.181,19.8,1.0,,0.0,0.0,75.35000000000001
2025-08-15T03:57:33.717Z,2,GR86-037-03,98.7,-0.108,1.185,20.45,1.0,,0.0,0.0,
2025-08-15T03:57:33.760Z,2,GR86-037-03,101.6,-0.124,1.2,20.59,1.0,,0.0,0.0,
2025-08-15T03:57:33.804Z,2,GR86-037-03,101.9,-0.169,1.253,21.06,1.0,,0.0,0.0,
2025-08-15T03:57:33.847Z,2,GR86-037-03,101.7,-0.106,1.232,21.37,1.0,5332.0,0.0,0.0,
2025-08-15T03:57:33.890Z,2,GR86-037-03,101.7,-0.112,1.249,21.97,1.0,,0.0,0.0,74.4
2025-08-15T03:57:33.934Z,2,GR86-037-03,101.7,0.068,1.224,22.81,1.0,,0.0,0.0,
2025-08-15T03:57:33.977Z,2,GR86-037-03,99.2,0.137,1.227,23.21,1.0,,0.0,0.0,
2025-08-15T03:57:34.020Z,2,GR86-037-03,92.6,0.118,1.228,23.01,1.0,,0.0,0.0,
2025-08-15T03:57:34.064Z,2,GR86-037-03,89.10000000000001,0.073,1.257,24.44,1.0,5194.0,0.0,0.0,
2025-08-15T03:57:34.106Z,2,GR86-037-03,93.7,0.052,1.226,24.41,1.0,,0.0,0.0,73.45
2025-08-15T03:57:34.149Z,2,GR86-037-03,101.6,0.074,1.243,26.09,1.0,,0.0,0.0,
2025-08-15T03:57:34.192Z,2,GR86-037-03,105.5,0.073,1.244,34.54,1.0,,0.0,0.0,
2025-08-15T03:57:34.235Z,2,GR86-037-03,103.4,0.089,1.295,35.58,1.0,,0.0,0.0,
2025-08-15T03:57:34.279Z,2,GR86-037-03,90.3,0.084,1.283,35.800000000000004,1.0,5554.0,0.0,0.0,
2025-08-15T03:57:34.321Z,2,GR86-037-03,70.8,0.133,1.192,39.77,1.0,,0.0,0.0,72.84
2025-08-15T03:57:34.364Z,2,GR86-037-03,48.3,0.254,1.137,61.03,1.0,,0.0,0.0,
2025-08-15T03:57:34.407Z,2,GR86-037-03,46.5,0.291,1.004,96.93,1.0,,0.0,0.0,
2025-08-15T03:57:34.450Z,2,GR86-037-03,49.7,0.335,1.051,100.12,1.0,,0.0,0.0,
2025-08-15T03:57:34.493Z,2,GR86-037-03,50.0,0.354,1.076,100.12,1.0,5433.0,0.0,0.0,
2025-08-15T03:57:34.536Z,2,GR86-037-03,39.0,0.37,1.041,100.11,1.0,,0.0,0.0,72.96000000000001
2025-08-15T03:57:34.579Z,2,GR86-037-03,24.9,0.387,0.94,100.1,1.0,,0.0,0.0,
2025-08-15T03:57:34.623Z,2,GR86-037-03,32.300000000000004,0.41,0.712,100.11,1.0,,0.0,0.0,
2025-08-15T03:57:34.665Z,2,GR86-037-03,54.0,0.406,0.716,100.13,1.0,,0.0,0.0,
2025-08-15T03:57:34.708Z,2,GR86-037-03,77.10000000000001,0.374,0.757,100.13,1.0,5641.0,0.0,0.0,
2025-08-15T03:57:34.751Z,2,GR86-037-03,93.4,0.317,0.8290000000000001,100.1,1.0,,0.0,0.0,74.57000000000001
2025-08-15T03:57:34.794Z,2,GR86-037-03,99.7,0.26,0.934,100.1,1.0,,0.0,0.0,
2025-08-15T03:57:34.837Z,2,GR86-037-03,99.8,0.228,0.974,100.11,1.0,,0.0,0.0,
2025-08-15T03:57:34.880Z,2,GR86-037-03,99.7,0.204,1.058,100.12,1.0,,0.0,0.0,
2025-08-15T03:57:34.924Z,2,GR86-037-03,99.0,0.199,1.186,100.11,1.0,5690.0,0.0,0.0,
2025-08-15T03:57:35.010Z,2,GR86-037-03,86.10000000000001,0.241,1.285,100.13,1.0,,0.0,0.0,75.94
2025-08-15T03:57:35.053Z,2,GR86-037-03,71.2,0.237,1.252,100.12,1.0,,0.0,0.0,
2025-08-15T03:57:35.096Z,2,GR86-037-03,55.900000000000006,0.284,1.206,100.12,1.0,,0.0,0.0,
2025-08-15T03:57:35.139Z,2,GR86-037-03,43.2,0.288,1.186,100.11,1.0,5719.0,0.0,0.0,
2025-08-15T03:57:35.183Z,2,GR86-037-03,25.3,0.313,1.091,100.1,1.0,,0.0,0.0,78.93
2025-08-15T03:57:35.225Z,2,GR86-037-03,14.4,0.328,1.11,100.12,1.0,,0.0,0.0,
2025-08-15T03:57:35.268Z,2,GR86-037-03,2.7,0.363,1.077,100.12,1.0,,0.0,0.0,
2025-08-15T03:57:35.311Z,2,GR86-037-03,-8.9,0.399,0.951,100.13,1.0,,0.0,0.0,
2025-08-15T03:57:35.354Z,2,GR86-037-03,-11.0,0.385,0.948,100.11,1.0,6390.0,0.0,0.0,
2025-08-15T03:57:35.397Z,2,GR86-037-03,2.3000000000000003,0.412,0.949,100.14,1.0,,0.0,0.0,81.48
2025-08-15T03:57:35.440Z,2,GR86-037-03,26.700000000000003,0.382,1.054,100.12,1.0,,0.0,0.0,
2025-08-15T03:57:35.484Z,2,GR86-037-03,59.900000000000006,0.354,1.275,100.13,1.0,,0.0,0.0,
2025-08-15T03:57:35.526Z,2,GR86-037-03,67.3,0.304,1.28,100.11,1.0,,0.0,0.0,
2025-08-15T03:57:35.570Z,2,GR86-037-03,65.10000000000001,0.258,1.292,100.1,1.0,6535.0,0.0,0.0,
2025-08-15T03:57:35.613Z,2,GR86-037-03,54.1,0.24,1.259,100.09,1.0,,0.0,0.0,83.05
2025-08-15T03:57:35.656Z,2,GR86-037-03,38.6,0.293,1.19,100.1,1.0,,0.0,0.0,
2025-08-15T03:57:35.699Z,2,GR86-037-03,23.0,0.403,1.115,100.12,1.0,,0.0,0.0,
2025-08-15T03:57:35.744Z,2,GR86-037-03,11.5,0.461,0.916,100.11,1.0,,0.0,0.0,
2025-08-15T03:57:35.787Z,2,GR86-037-03,14.6,0.433,0.84,100.1,1.0,6567.0,0.0,0.0,
2025-08-15T03:57:35.830Z,2,GR86-037-03,21.8,0.382,0.855,100.09,1.0,,0.0,0.0,84.19
2025-08-15T03:57:35.873Z,2,GR86-037-03,23.700000000000003,0.359,0.847,100.1,1.0,,0.0,0.0,
2025-08-15T03:57:35.916Z,2,GR86-037-03,21.9,0.31,0.741,100.09,1.0,,0.0,0.0,
2025-08-15T03:57:35.959Z,2,GR86-037-03,21.4,0.304,0.684,100.09,1.0,,0.0,0.0,
2025-08-15T03:57:36.003Z,2,GR86-037-03,22.9,0.359,0.523,100.09,1.0,6721.0,0.0,0.0,
2025-08-15T03:57:36.047Z,2,GR86-037-03,22.9,0.338,0.531,100.09,1.0,,0.0,0.0,85.86
2025-08-15T03:57:36.090Z,2,GR86-037-03,22.9,0.324,0.442,100.09,1.0,,0.0,0.0,
2025-08-15T03:57:36.133Z,2,GR86-037-03,22.9,0.386,0.423,100.08,1.0,,0.0,0.0,
2025-08-15T03:57:36.176Z,2,GR86-037-03,22.9,0.384,0.395,100.08,1.0,,0.0,0.0,
2025-08-15T03:57:36.219Z,2,GR86-037-03,24.0,0.352,0.318,100.08,1.0,6707.0,0.0,0.0,
2025-08-15T03:57:36.263Z,2,GR86-037-03,26.8,0.376,0.317,100.05,1.0,,0.0,0.0,87.49
2025-08-15T03:57:36.306Z,2,GR86-037-03,26.8,0.281,0.407,100.06,1.0,,0.0,0.0,
2025-08-15T03:57:36.349Z,2,GR86-037-03,27.200000000000003,0.278,0.307,100.05,1.0,,0.0,0.0,
2025-08-15T03:57:36.393Z,2,GR86-037-03,29.6,0.268,0.459,100.08,1.0,,0.0,0.0,
2025-08-15T03:57:36.435Z,2,GR86-037-03,34.2,0.33,0.477,100.05,1.0,6838.0,0.0,0.0,
2025-08-15T03:57:36.478Z,2,GR86-037-03,37.9,0.339,0.526,100.06,1.0,,0.0,0.0,89.61
2025-08-15T03:57:36.523Z,2,GR86-037-03,36.2,0.182,0.611,100.05,1.0,,0.0,0.0,
2025-08-15T03:57:36.565Z,2,GR86-037-03,27.700000000000003,0.194,0.626,100.05,1.0,,0.0,0.0,
2025-08-15T03:57:36.608Z,2,GR86-037-03,17.1,0.251,0.73,100.05,1.0,,0.0,0.0,
2025-08-15T03:57:36.651Z,2,GR86-037-03,7.300000000000001,0.257,0.62,100.04,1.0,7055.0,0.0,0.0,
2025-08-15T03:57:36.694Z,2,GR86-037-03,3.5,0.378,0.602,100.05,1.0,,0.0,0.0,92.01
2025-08-15T03:57:36.737Z,2,GR86-037-03,5.6000000000000005,0.171,0.326,100.05,1.0,,0.0,0.0,
2025-08-15T03:57:36.780Z,2,GR86-037-03,8.200000000000001,-0.152,0.33,100.06,2.0,,0.0,0.0,
2025-08-15T03:57:36.824Z,2,GR86-037-03,8.0,0.532,0.004,100.03,2.0,,0.0,0.0,
2025-08-15T03:57:36.866Z,2,GR86-037-03,7.0,0.457,0.083,100.03,2.0,7181.0,0.0,0.0,
2025-08-15T03:57:36.909Z,2,GR86-037-03,8.1,0.319,0.125,100.04,2.0,,0.0,0.0,94.18
2025-08-15T03:57:36.952Z,2,GR86-037-03,14.6,0.216,0.004,100.04,2.0,,0.0,0.0,
2025-08-15T03:57:36.995Z,2,GR86-037-03,25.4,0.304,0.153,100.04,2.0,,0.0,0.0,
2025-08-15T03:57:37.038Z,2,GR86-037-03,33.2,0.148,0.298,100.04,2.0,,0.0,0.0,
2025-08-15T03:57:37.081Z,2,GR86-037-03,34.0,0.07,0.385,100.04,2.0,6845.0,0.0,0.0,
2025-08-15T03:57:37.124Z,2,GR86-037-03,34.0,0.172,0.527,100.03,2.0,,0.0,0.0,96.14
2025-08-15T03:57:37.167Z,2,GR86-037-03,32.6,0.258,0.595,100.05,2.0,,0.0,0.0,
2025-08-15T03:57:37.210Z,2,GR86-037-03,25.1,0.209,0.616,100.04,2.0,,0.0,0.0,
2025-08-15T03:57:37.253Z,2,GR86-037-03,15.2,0.231,0.582,100.05,2.0,,0.0,0.0,
2025-08-15T03:57:37.296Z,2,GR86-037-03,6.800000000000001,0.264,0.644,100.04,2.0,5874.0,0.0,0.0,
2025-08-15T03:57:37.339Z,2,GR86-037-03,2.7,0.328,0.5760000000000001,100.04,2.0,,0.0,0.0,96.77
2025-08-15T03:57:37.384Z,2,GR86-037-03,2.1,0.262,0.415,100.04,2.0,,0.0,0.0,
2025-08-15T03:57:37.427Z,2,GR86-037-03,0.6000000000000001,0.242,0.325,100.04,2.0,,0.0,0.0,
2025-08-15T03:57:37.470Z,2,GR86-037-03,-3.2,0.243,0.215,100.03,2.0,,0.0,0.0,
2025-08-15T03:57:37.513Z,2,GR86-037-03,-6.6000000000000005,0.265,0.059,100.02,2.0,5823.0,0.0,0.0,
2025-08-15T03:57:37.556Z,2,GR86-037-03,-9.4,0.249,-0.042,100.03,2.0,,0.0,0.0,101.01
2025-08-15T03:57:37.599Z,2,GR86-037-03,-13.0,0.302,-0.197,100.03,2.0,,0.0,0.0,
2025-08-15T03:57:37.644Z,2,GR86-037-03,-21.8,0.272,-0.911,100.02,2.0,,0.0,0.0,
2025-08-15T03:57:37.687Z,2,GR86-037-03,-24.5,0.239,-0.51,100.03,2.0,,0.0,0.0,
2025-08-15T03:57:37.730Z,2,GR86-037-03,-16.1,0.214,-0.8310000000000001,100.02,2.0,5909.0,0.0,0.0,
2025-08-15T03:57:37.774Z,2,GR86-037-03,-0.8,0.113,-0.597,100.01,2.0,,0.0,0.0,102.55
2025-08-15T03:57:37.817Z,2,GR86-037-03,9.9,0.215,-0.395,100.01,2.0,,0.0,0.0,
2025-08-15T03:57:37.860Z,2,GR86-037-03,5.7,0.215,-0.5690000000000001,100.01,2.0,,0.0,0.0,
2025-08-15T03:57:37.904Z,2,GR86-037-03,-14.1,0.263,-0.389,100.0,2.0,,0.0,0.0,
2025-08-15T03:57:37.947Z,2,GR86-037-03,-17.3,0.24,-0.319,100.0,2.0,6042.0,0.0,0.0,
2025-08-15T03:57:37.990Z,2,GR86-037-03,-9.7,0.237,-0.33,99.99,2.0,,0.0,0.0,103.61
2025-08-15T03:57:38.033Z,2,GR86-037-03,-0.7000000000000001,0.254,-0.171,99.99,2.0,,0.0,0.0,
2025-08-15T03:57:38.076Z,2,GR86-037-03,4.6000000000000005,0.276,-0.158,100.0,2.0,,0.0,0.0,
2025-08-15T03:57:38.119Z,2,GR86-037-03,8.0,0.268,-0.122,99.99,2.0,,0.0,0.0,
2025-08-15T03:57:38.164Z,2,GR86-037-03,6.9,0.268,0.048,100.02,2.0,6089.0,0.0,0.0,
2025-08-15T03:57:38.207Z,2,GR86-037-03,3.9,0.261,0.039,99.99,2.0,,0.0,0.0,104.81
2025-08-15T03:57:38.250Z,2,GR86-037-03,2.8000000000000003,0.257,0.074,99.99,2.0,,0.0,0.0,
2025-08-15T03:57:38.293Z,2,GR86-037-03,1.2000000000000002,0.268,0.13,100.01,2.0,,0.0,0.0,
2025-08-15T03:57:38.336Z,2,GR86-037-03,-1.0,0.27,0.101,100.02,2.0,,0.0,0.0,
2025-08-15T03:57:38.379Z,2,GR86-037-03,-3.5,0.267,0.091,100.0,2.0,6187.0,0.0,0.0,
2025-08-15T03:57:38.423Z,2,GR86-037-03,-4.2,0.265,0.021,100.0,2.0,,0.0,0.0,106.9
2025-08-15T03:57:38.465Z,2,GR86-037-03,-4.2,0.261,-0.048,99.98,2.0,,0.0,0.0,
2025-08-15T03:57:38.508Z,2,GR86-037-03,-4.800000000000001,0.252,-0.081,100.01,2.0,,0.0,0.0,
2025-08-15T03:57:38.551Z,2,GR86-037-03,-6.4,0.261,-0.101,99.99,2.0,,0.0,0.0,
2025-08-15T03:57:38.594Z,2,GR86-037-03,-7.300000000000001,0.266,-0.142,100.0,2.0,6280.0,0.0,0.0,
2025-08-15T03:57:38.637Z,2,GR86-037-03,-7.300000000000001,0.256,-0.143,100.02,2.0,,0.0,0.0,108.65
2025-08-15T03:57:38.680Z,2,GR86-037-03,-7.300000000000001,0.26,-0.179,100.0,2.0,,0.0,0.0,
2025-08-15T03:57:38.724Z,2,GR86-037-03,-3.2,0.256,-0.184,100.0,2.0,,0.0,0.0,
2025-08-15T03:57:38.766Z,2,GR86-037-03,0.4,0.251,-0.153,100.01,2.0,,0.0,0.0,
2025-08-15T03:57:38.809Z,2,GR86-037-03,2.1,0.25,-0.107,99.99,2.0,6366.0,0.0,0.0,
2025-08-15T03:57:38.853Z,2,GR86-037-03,2.1,0.253,-0.084,99.99,2.0,,0.0,0.0,110.17
2025-08-15T03:57:38.897Z,2,GR86-037-03,2.3000000000000003,0.256,-0.04,100.01,2.0,,0.0,0.0,
2025-08-15T03:57:38.940Z,2,GR86-037-03,2.3000000000000003,0.261,-0.009,99.98,2.0,,0.0,0.0,
2025-08-15T03:57:38.984Z,2,GR86-037-03,2.3000000000000003,0.255,0.027,100.0,2.0,,0.0,0.0,
2025-08-15T03:57:39.026Z,2,GR86-037-03,-0.5,0.254,0.044,99.99,2.0,6442.0,0.0,0.0,
2025-08-15T03:57:39.069Z,2,GR86-037-03,-3.0,0.248,0.034,100.0,2.0,,0.0,0.0,111.67
2025-08-15T03:57:39.113Z,2,GR86-037-03,-3.4000000000000004,0.266,-0.015,100.01,2.0,,0.0,0.0,
2025-08-15T03:57:39.156Z,2,GR86-037-03,-3.4000000000000004,0.257,-0.02,100.01,2.0,,0.0,0.0,
2025-08-15T03:57:39.199Z,2,GR86-037-03,-3.4000000000000004,0.254,-0.05,99.99,2.0,,0.0,0.0,
2025-08-15T03:57:39.244Z,2,GR86-037-03,-3.4000000000000004,0.267,-0.075,100.0,2.0,6521.0,0.0,0.0,
2025-08-15T03:57:39.287Z,2,GR86-037-03,-3.4000000000000004,0.263,-0.1,100.02,2.0,,0.0,0.0,113.09
2025-08-15T03:57:39.330Z,2,GR86-037-03,-2.4000000000000004,0.256,-0.088,100.01,2.0,,0.0,0.0,
2025-08-15T03:57:39.373Z,2,GR86-037-03,0.4,0.26,-0.082,100.0,2.0,,0.0,0.0,
2025-08-15T03:57:39.416Z,2,GR86-037-03,2.1,0.269,-0.068,100.0,2.0,,0.0,0.0,
2025-08-15T03:57:39.459Z,2,GR86-037-03,2.1,0.249,-0.032,100.01,2.0,6602.0,0.0,0.0,
2025-08-15T03:57:39.502Z,2,GR86-037-03,1.8,0.256,0.0,100.01,2.0,,0.0,0.0,114.47
2025-08-15T03:57:39.545Z,2,GR86-037-03,1.0,0.269,0.02,99.99,2.0,,0.0,0.0,
2025-08-15T03:57:39.588Z,2,GR86-037-03,0.9,0.271,0.028,100.0,2.0,,0.0,0.0,
2025-08-15T03:57:39.631Z,2,GR86-037-03,-0.5,0.256,0.042,100.01,2.0,,0.0,0.0,
2025-08-15T03:57:39.674Z,2,GR86-037-03,-3.5,0.258,0.031,99.99,2.0,6672.0,0.0,0.0,
2025-08-15T03:57:39.717Z,2,GR86-037-03,-5.0,0.246,0.007,99.99,2.0,,0.0,0.0,115.84
2025-08-15T03:57:39.760Z,2,GR86-037-03,-5.0,0.263,-0.033,99.98,2.0,,0.0,0.0,
2025-08-15T03:57:39.804Z,2,GR86-037-03,-2.7,0.267,-0.07,100.0,2.0,,0.0,0.0,
2025-08-15T03:57:39.847Z,2,GR86-037-03,-2.7,0.266,-0.08,100.0,2.0,,0.0,0.0,
2025-08-15T03:57:39.890Z,2,GR86-037-03,-3.3000000000000003,0.256,-0.099,99.98,2.0,6750.0,0.0,0.0,
2025-08-15T03:57:39.934Z,2,GR86-037-03,-3.7,0.251,-0.101,99.98,2.0,,0.0,0.0,117.15
2025-08-15T03:57:39.977Z,2,GR86-037-03,-3.8,0.261,-0.119,99.99,2.0,,0.0,0.0,
2025-08-15T03:57:40.020Z,2,GR86-037-03,-2.2,0.264,-0.108,99.99,2.0,,0.0,0.0,
2025-08-15T03:57:40.064Z,2,GR86-037-03,2.2,0.258,-0.09,100.0,2.0,,0.0,0.0,
2025-08-15T03:57:40.106Z,2,GR86-037-03,2.5,0.252,-0.05,100.0,2.0,6818.0,0.0,0.0,
2025-08-15T03:57:40.149Z,2,GR86-037-03,1.8,0.266,-0.041,99.98,2.0,,0.0,0.0,119.48
2025-08-15T03:57:40.192Z,2,GR86-037-03,0.3,0.256,-0.006,100.0,2.0,,0.0,0.0,
2025-08-15T03:57:40.235Z,2,GR86-037-03,0.1,0.257,-0.004,100.0,2.0,,0.0,0.0,
2025-08-15T03:57:40.278Z,2,GR86-037-03,0.1,0.266,-0.006,99.99,2.0,,0.0,0.0,
2025-08-15T03:57:40.321Z,2,GR86-037-03,0.0,0.255,0.002,99.99,2.0,6880.0,0.0,0.0,
2025-08-15T03:57:40.364Z,2,GR86-037-03,-0.9,0.255,0.005,100.0,2.0,,0.0,0.0,120.62
2025-08-15T03:57:40.407Z,2,GR86-037-03,-1.8,0.249,-0.014,99.99,2.0,,0.0,0.0,
2025-08-15T03:57:40.450Z,2,GR86-037-03,-2.0,0.257,-0.033,100.0,2.0,,0.0,0.0,
2025-08-15T03:57:40.493Z,2,GR86-037-03,-2.0,0.26,-0.034,99.98,2.0,,0.0,0.0,
2025-08-15T03:57:40.536Z,2,GR86-037-03,-2.0,0.25,-0.054,99.98,2.0,6946.0,0.0,0.0,
2025-08-15T03:57:40.579Z,2,GR86-037-03,-2.0,0.252,-0.083,99.99,2.0,,0.0,0.0,121.8
2025-08-15T03:57:40.623Z,2,GR86-037-03,-2.0,0.254,-0.092,99.99,2.0,,0.0,0.0,
2025-08-15T03:57:40.667Z,2,GR86-037-03,-2.0,0.257,-0.089,99.98,2.0,,0.0,0.0,
2025-08-15T03:57:40.710Z,2,GR86-037-03,-2.0,0.244,-0.082,100.0,2.0,,0.0,0.0,
2025-08-15T03:57:40.753Z,2,GR86-037-03,-1.1,0.249,-0.081,99.98,2.0,7078.0,0.0,0.0,
2025-08-15T03:57:40.796Z,2,GR86-037-03,0.7000000000000001,0.146,-0.087,99.98,3.0,,0.0,0.0,122.91
2025-08-15T03:57:40.839Z,2,GR86-037-03,1.4,-0.094,-0.022,99.98,3.0,,0.0,0.0,
2025-08-15T03:57:40.883Z,2,GR86-037-03,3.5,0.43,-0.075,99.98,3.0,,0.0,0.0,
2025-08-15T03:57:40.925Z,2,GR86-037-03,3.6,0.418,-0.029,99.98,3.0,,0.0,0.0,
2025-08-15T03:57:40.968Z,2,GR86-037-03,3.6,0.367,0.096,99.98,3.0,7136.0,0.0,0.0,
2025-08-15T03:57:41.011Z,2,GR86-037-03,3.6,0.24,0.0,99.98,3.0,,0.0,0.0,124.02
2025-08-15T03:57:41.054Z,2,GR86-037-03,3.6,0.116,0.046,99.99,3.0,,0.0,0.0,
2025-08-15T03:57:41.097Z,2,GR86-037-03,3.6,0.156,0.115,99.99,3.0,,0.0,0.0,
2025-08-15T03:57:41.140Z,2,GR86-037-03,3.6,0.266,0.045,99.98,3.0,,0.0,0.0,
2025-08-15T03:57:41.184Z,2,GR86-037-03,3.1,0.265,0.124,99.98,3.0,6060.0,0.0,0.0,
2025-08-15T03:57:41.226Z,2,GR86-037-03,0.4,0.187,0.087,99.99,3.0,,0.0,0.0,124.85
2025-08-15T03:57:41.270Z,2,GR86-037-03,-1.1,0.176,0.067,99.99,3.0,,0.0,0.0,
2025-08-15T03:57:41.313Z,2,GR86-037-03,-1.1,0.232,0.041,100.01,3.0,,0.0,0.0,
2025-08-15T03:57:41.356Z,2,GR86-037-03,-0.5,0.251,0.025,100.01,3.0,,0.0,0.0,
2025-08-15T03:57:41.399Z,2,GR86-037-03,0.2,0.217,-0.011,99.99,3.0,5952.0,0.0,0.0,
2025-08-15T03:57:41.444Z,2,GR86-037-03,0.4,0.19,0.001,99.99,3.0,,0.0,0.0,126.09
2025-08-15T03:57:41.487Z,2,GR86-037-03,1.2000000000000002,0.219,-0.023,99.99,3.0,,0.0,0.0,
2025-08-15T03:57:41.530Z,2,GR86-037-03,2.5,0.242,-0.018,100.0,3.0,,0.0,0.0,
2025-08-15T03:57:41.573Z,2,GR86-037-03,3.5,0.215,-0.002,99.68,3.0,,0.0,0.0,
2025-08-15T03:57:41.616Z,2,GR86-037-03,3.7,0.217,0.007,48.54,3.0,5948.0,0.0,0.0,
2025-08-15T03:57:41.659Z,2,GR86-037-03,3.7,0.221,0.032,4.33,3.0,,0.0,0.0,126.96
2025-08-15T03:57:41.703Z,2,GR86-037-03,3.7,0.132,0.048,2.23,3.0,,0.0,0.0,
2025-08-15T03:57:41.747Z,2,GR86-037-03,3.7,-0.104,0.114,2.16,3.0,,0.0,0.0,
2025-08-15T03:57:41.790Z,2,GR86-037-03,3.7,-0.248,0.103,2.16,3.0,,0.0,0.0,
