timestamp,lap,vehicle_id,steering_angle,accx_can,accy_can,ath,gear,nmot,pbrake_f,pbrake_r,speed
2025-08-15T01:20:40.154Z,17,GR86-004-78,7.6,0.102,-0.005,99.67,4.0,,0.0,0.0,
2025-08-15T01:20:40.197Z,17,GR86-004-78,7.6,0.14,-0.001,99.68,4.0,,0.0,0.0,
2025-08-15T01:20:40.240Z,17,GR86-004-78,7.6,0.116,0.005,99.67,4.0,7013.0,0.0,0.0,
2025-08-15T01:20:40.283Z,17,GR86-004-78,7.6,0.124,0.007,99.68,4.0,,0.0,0.0,179.33
2025-08-15T01:20:40.326Z,17,GR86-004-78,7.6,-0.168,-0.006,99.67,5.0,,0.0,0.0,
2025-08-15T01:20:40.370Z,17,GR86-004-78,7.6,0.181,0.023,99.7,5.0,,0.0,0.0,
2025-08-15T01:20:40.413Z,17,GR86-004-78,7.6,0.21,-0.058,99.69,5.0,,0.0,0.0,
2025-08-15T01:20:40.456Z,17,GR86-004-78,7.6,0.161,-0.028,99.67,5.0,7043.0,0.0,0.0,
2025-08-15T01:20:40.500Z,17,GR86-004-78,7.6,0.002,0.045,99.66,5.0,,0.0,0.0,180.14
2025-08-15T01:20:40.543Z,17,GR86-004-78,7.6,0.047,-0.032,99.65,5.0,,0.0,0.0,
2025-08-15T01:20:40.586Z,17,GR86-004-78,7.6,0.146,0.061,99.68,5.0,,0.0,0.0,
2025-08-15T01:20:40.629Z,17,GR86-004-78,7.6,0.086,0.013,99.66,5.0,,0.0,0.0,
2025-08-15T01:20:40.715Z,17,GR86-004-78,7.6,0.09,0.008,99.65,5.0,6051.0,0.0,0.0,180.68
2025-08-15T01:20:40.758Z,17,GR86-004-78,7.6,0.109,0.011,99.67,5.0,,0.0,0.0,
2025-08-15T01:20:40.802Z,17,GR86-004-78,7.6,0.098,0.038,99.68,5.0,,0.0,0.0,
2025-08-15T01:20:40.845Z,17,GR86-004-78,7.6,0.1,0.034,99.67,5.0,,0.0,0.0,
2025-08-15T01:20:40.888Z,17,GR86-004-78,7.6,0.091,0.024,99.67,5.0,6168.0,0.0,0.0,
2025-08-15T01:20:40.931Z,17,GR86-004-78,7.6,0.08,0.018,99.69,5.0,,0.0,0.0,181.43
2025-08-15T01:20:40.974Z,17,GR86-004-78,7.7,0.093,0.025,99.67,5.0,,0.0,0.0,
2025-08-15T01:20:41.017Z,17,GR86-004-78,7.7,0.074,0.022,99.67,5.0,,0.0,0.0,
2025-08-15T01:20:41.060Z,17,GR86-004-78,7.6,0.103,-0.005,99.68,5.0,,0.0,0.0,
2025-08-15T01:20:41.103Z,17,GR86-004-78,7.6,0.074,-0.002,99.65,5.0,6191.0,0.0,0.0,
2025-08-15T01:20:41.146Z,17,GR86-004-78,7.6,0.086,0.007,99.68,5.0,,0.0,0.0,182.1
2025-08-15T01:20:41.191Z,17,GR86-004-78,7.6,0.103,0.01,99.69,5.0,,0.0,0.0,
2025-08-15T01:20:41.234Z,17,GR86-004-78,7.6,0.094,0.007,99.67,5.0,,0.0,0.0,
2025-08-15T01:20:41.278Z,17,GR86-004-78,7.6,0.088,0.009,99.65,5.0,,0.0,0.0,
2025-08-15T01:20:41.321Z,17,GR86-004-78,7.6,0.084,0.022,99.69,5.0,6216.0,0.0,0.0,
2025-08-15T01:20:41.364Z,17,GR86-004-78,7.6,0.084,0.033,99.69,5.0,,0.0,0.0,182.75
2025-08-15T01:20:41.407Z,17,GR86-004-78,7.6,0.093,0.012,99.66,5.0,,0.0,0.0,
2025-08-15T01:20:41.450Z,17,GR86-004-78,7.6,0.106,0.019,99.7,5.0,,0.0,0.0,
2025-08-15T01:20:41.493Z,17,GR86-004-78,7.6,0.098,0.028,99.67,5.0,,0.0,0.0,
2025-08-15T01:20:41.536Z,17,GR86-004-78,7.6,0.095,0.019,99.67,5.0,6228.0,0.0,0.0,
2025-08-15T01:20:41.580Z,17,GR86-004-78,7.6,0.099,0.017,99.67,5.0,,0.0,0.0,183.4
2025-08-15T01:20:41.623Z,17,GR86-004-78,7.6,0.093,0.003,99.65,5.0,,0.0,0.0,
2025-08-15T01:20:41.668Z,17,GR86-004-78,7.6,0.07,0.016,99.67,5.0,,0.0,0.0,
2025-08-15T01:20:41.711Z,17,GR86-004-78,7.6,0.071,0.005,99.65,5.0,,0.0,0.0,
2025-08-15T01:20:41.754Z,17,GR86-004-78,7.6,0.073,0.002,99.66,5.0,6257.0,0.0,0.0,
2025-08-15T01:20:41.797Z,17,GR86-004-78,7.6,0.074,0.01,99.69,5.0,,0.0,0.0,184.08
2025-08-15T01:20:41.840Z,17,GR86-004-78,7.6,0.069,0.017,99.69,5.0,,0.0,0.0,
2025-08-15T01:20:41.883Z,17,GR86-004-78,7.6,0.068,0.012,99.71,5.0,,0.0,0.0,
2025-08-15T01:20:41.926Z,17,GR86-004-78,7.6,0.099,0.022,99.69,5.0,,0.0,0.0,
2025-08-15T01:20:41.970Z,17,GR86-004-78,7.6,0.099,0.038,99.66,5.0,6279.0,0.0,0.0,
2025-08-15T01:20:42.013Z,17,GR86-004-78,7.6,0.093,0.05,99.68,5.0,,0.0,0.0,184.66
2025-08-15T01:20:42.056Z,17,GR86-004-78,7.7,0.096,0.07,99.68,5.0,,0.0,0.0,
2025-08-15T01:20:42.099Z,17,GR86-004-78,7.7,0.096,0.064,99.65,5.0,,0.0,0.0,
2025-08-15T01:20:42.142Z,17,GR86-004-78,7.7,0.08,0.079,99.66,5.0,,0.0,0.0,
2025-08-15T01:20:42.185Z,17,GR86-004-78,7.7,0.082,0.065,99.68,5.0,6303.0,0.0,0.0,
2025-08-15T01:20:42.228Z,17,GR86-004-78,7.7,0.088,0.025,99.69,5.0,,0.0,0.0,185.33
2025-08-15T01:20:42.271Z,17,GR86-004-78,7.800000000000001,0.089,0.028,99.7,5.0,,0.0,0.0,
2025-08-15T01:20:42.314Z,17,GR86-004-78,7.800000000000001,0.106,0.031,99.66,5.0,,0.0,0.0,
2025-08-15T01:20:42.357Z,17,GR86-004-78,7.800000000000001,0.073,0.039,99.65,5.0,,0.0,0.0,
2025-08-15T01:20:42.400Z,17,GR86-004-78,7.800000000000001,0.097,0.046,99.67,5.0,6318.0,0.0,0.0,
2025-08-15T01:20:42.443Z,17,GR86-004-78,7.7,0.098,0.043,99.66,5.0,,0.0,0.0,185.98
2025-08-15T01:20:42.486Z,17,GR86-004-78,7.800000000000001,0.055,0.029,99.67,5.0,,0.0,0.0,
2025-08-15T01:20:42.529Z,17,GR86-004-78,7.800000000000001,0.071,0.026,99.66,5.0,,0.0,0.0,
2025-08-15T01:20:42.573Z,17,GR86-004-78,7.800000000000001,0.064,0.019,99.71,5.0,,0.0,0.0,
2025-08-15T01:20:42.616Z,17,GR86-004-78,7.800000000000001,0.069,0.018,99.68,5.0,6357.0,0.0,0.0,
2025-08-15T01:20:42.659Z,17,GR86-004-78,7.800000000000001,0.073,0.007,99.69,5.0,,0.0,0.0,186.47
2025-08-15T01:20:42.702Z,17,GR86-004-78,7.800000000000001,0.061,0.028,99.65,5.0,,0.0,0.0,
2025-08-15T01:20:42.788Z,17,GR86-004-78,7.800000000000001,0.086,0.018,99.67,5.0,,0.0,0.0,
2025-08-15T01:20:42.831Z,17,GR86-004-78,7.800000000000001,0.052,0.02,99.68,5.0,6362.0,0.0,0.0,
2025-08-15T01:20:42.874Z,17,GR86-004-78,7.800000000000001,0.076,0.009,99.67,5.0,,0.0,0.0,187.72
2025-08-15T01:20:42.917Z,17,GR86-004-78,7.800000000000001,0.066,0.002,99.69,5.0,,0.0,0.0,
2025-08-15T01:20:42.960Z,17,GR86-004-78,7.800000000000001,0.056,0.02,99.7,5.0,,0.0,0.0,
2025-08-15T01:20:43.003Z,17,GR86-004-78,7.800000000000001,0.056,0.027,99.65,5.0,,0.0,0.0,
2025-08-15T01:20:43.046Z,17,GR86-004-78,7.800000000000001,0.085,0.024,99.65,5.0,6380.0,0.0,0.0,
2025-08-15T01:20:43.089Z,17,GR86-004-78,7.800000000000001,0.092,0.035,99.68,5.0,,0.0,0.0,188.32
2025-08-15T01:20:43.132Z,17,GR86-004-78,7.800000000000001,0.079,0.036,99.69,5.0,,0.0,0.0,
2025-08-15T01:20:43.175Z,17,GR86-004-78,7.800000000000001,0.077,0.041,99.7,5.0,,0.0,0.0,
2025-08-15T01:20:43.218Z,17,GR86-004-78,7.800000000000001,0.08,0.042,99.69,5.0,,0.0,0.0,
2025-08-15T01:20:43.261Z,17,GR86-004-78,7.800000000000001,0.086,0.034,99.65,5.0,6400.0,0.0,0.0,
2025-08-15T01:20:43.304Z,17,GR86-004-78,7.800000000000001,0.073,0.037,99.69,5.0,,0.0,0.0,188.95
2025-08-15T01:20:43.347Z,17,GR86-004-78,7.800000000000001,0.074,0.039,99.68,5.0,,0.0,0.0,
2025-08-15T01:20:43.390Z,17,GR86-004-78,7.800000000000001,0.091,0.04,99.68,5.0,,0.0,0.0,
2025-08-15T01:20:43.433Z,17,GR86-004-78,7.800000000000001,0.082,0.036,99.71,5.0,,0.0,0.0,
2025-08-15T01:20:43.476Z,17,GR86-004-78,7.800000000000001,0.089,0.026,99.67,5.0,6440.0,0.0,0.0,
2025-08-15T01:20:43.519Z,17,GR86-004-78,7.800000000000001,0.085,0.034,99.66,5.0,,0.0,0.0,189.5
2025-08-15T01:20:43.562Z,17,GR86-004-78,7.800000000000001,0.079,0.038,99.68,5.0,,0.0,0.0,
2025-08-15T01:20:43.605Z,17,GR86-004-78,7.800000000000001,0.069,0.057,99.65,5.0,,0.0,0.0,
2025-08-15T01:20:43.648Z,17,GR86-004-78,7.800000000000001,0.07,0.049,99.67,5.0,,0.0,0.0,
2025-08-15T01:20:43.691Z,17,GR86-004-78,7.800000000000001,0.081,0.04,99.7,5.0,6459.0,0.0,0.0,
2025-08-15T01:20:43.734Z,17,GR86-004-78,7.800000000000001,0.087,0.047,99.67,5.0,,0.0,0.0,190.14
2025-08-15T01:20:43.777Z,17,GR86-004-78,7.800000000000001,0.08,0.039,99.65,5.0,,0.0,0.0,
2025-08-15T01:20:43.820Z,17,GR86-004-78,7.800000000000001,0.076,0.038,99.66,5.0,,0.0,0.0,
2025-08-15T01:20:43.863Z,17,GR86-004-78,7.800000000000001,0.076,0.029,99.68,5.0,,0.0,0.0,
2025-08-15T01:20:43.906Z,17,GR86-004-78,7.800000000000001,0.07,0.032,99.67,5.0,6474.0,0.0,0.0,
2025-08-15T01:20:43.950Z,17,GR86-004-78,7.800000000000001,0.057,0.049,99.67,5.0,,0.0,0.0,190.62
2025-08-15T01:20:43.993Z,17,GR86-004-78,7.800000000000001,0.061,0.056,99.65,5.0,,0.0,0.0,
2025-08-15T01:20:44.036Z,17,GR86-004-78,7.800000000000001,0.074,0.042,99.69,5.0,,0.0,0.0,
2025-08-15T01:20:44.079Z,17,GR86-004-78,7.800000000000001,0.082,0.046,99.65,5.0,,0.0,0.0,
2025-08-15T01:20:44.122Z,17,GR86-004-78,7.800000000000001,0.08,0.045,99.68,5.0,6511.0,0.0,0.0,
2025-08-15T01:20:44.165Z,17,GR86-004-78,7.9,0.075,0.045,99.67,5.0,,0.0,0.0,191.12
2025-08-15T01:20:44.208Z,17,GR86-004-78,7.9,0.048,0.051,99.67,5.0,,0.0,0.0,
2025-08-15T01:20:44.251Z,17,GR86-004-78,7.9,0.054,0.05,99.65,5.0,,0.0,0.0,
2025-08-15T01:20:44.294Z,17,GR86-004-78,7.9,0.062,0.045,99.65,5.0,,0.0,0.0,
2025-08-15T01:20:44.337Z,17,GR86-004-78,7.9,0.066,0.056,99.68,5.0,6520.0,0.0,0.0,
2025-08-15T01:20:44.380Z,17,GR86-004-78,7.9,0.073,0.057,99.69,5.0,,0.0,0.0,191.83
2025-08-15T01:20:44.423Z,17,GR86-004-78,7.9,0.087,0.052,99.69,5.0,,0.0,0.0,
2025-08-15T01:20:44.468Z,17,GR86-004-78,7.9,0.057,0.04,99.69,5.0,,0.0,0.0,
2025-08-15T01:20:44.511Z,17,GR86-004-78,7.9,0.057,0.032,99.65,5.0,,0.0,0.0,
2025-08-15T01:20:44.554Z,17,GR86-004-78,7.9,0.07,0.04,99.68,5.0,6538.0,0.0,0.0,
2025-08-15T01:20:44.598Z,17,GR86-004-78,7.9,0.064,0.028,99.7,5.0,,0.0,0.0,192.42
2025-08-15T01:20:44.641Z,17,GR86-004-78,7.9,0.072,0.032,99.67,5.0,,0.0,0.0,
2025-08-15T01:20:44.684Z,17,GR86-004-78,7.9,0.08,0.042,99.67,5.0,,0.0,0.0,
2025-08-15T01:20:44.728Z,17,GR86-004-78,7.9,0.054,0.056,99.67,5.0,,0.0,0.0,
2025-08-15T01:20:44.771Z,17,GR86-004-78,7.9,0.062,0.048,99.68,5.0,6558.0,0.0,0.0,
2025-08-15T01:20:44.814Z,17,GR86-004-78,7.9,0.063,0.044,99.68,5.0,,0.0,0.0,193.0
2025-08-15T01:20:44.857Z,17,GR86-004-78,7.9,0.07,0.04,99.66,5.0,,0.0,0.0,
2025-08-15T01:20:44.900Z,17,GR86-004-78,7.9,0.064,0.04,99.69,5.0,,0.0,0.0,
2025-08-15T01:20:44.943Z,17,GR86-004-78,7.9,0.068,0.03,99.69,5.0,,0.0,0.0,
2025-08-15T01:20:44.986Z,17,GR86-004-78,7.9,0.039,0.038,99.68,5.0,6581.0,0.0,0.0,
2025-08-15T01:20:45.030Z,17,GR86-004-78,7.9,0.061,0.034,99.7,5.0,,0.0,0.0,193.65
2025-08-15T01:20:45.073Z,17,GR86-004-78,7.9,0.043,0.046,99.65,5.0,,0.0,0.0,
2025-08-15T01:20:45.116Z,17,GR86-004-78,7.9,0.069,0.034,99.65,5.0,,0.0,0.0,
2025-08-15T01:20:45.159Z,17,GR86-004-78,7.9,0.061,0.042,99.67,5.0,,0.0,0.0,
2025-08-15T01:20:45.203Z,17,GR86-004-78,7.9,0.076,0.035,99.7,5.0,6608.0,0.0,0.0,
2025-08-15T01:20:45.246Z,17,GR86-004-78,7.9,0.052,0.039,99.65,5.0,,0.0,0.0,194.19
2025-08-15T01:20:45.289Z,17,GR86-004-78,7.9,0.053,0.042,99.65,5.0,,0.0,0.0,
2025-08-15T01:20:45.332Z,17,GR86-004-78,7.9,0.051,0.059,99.69,5.0,,0.0,0.0,
2025-08-15T01:20:45.375Z,17,GR86-004-78,7.9,0.059,0.044,99.67,5.0,,0.0,0.0,
2025-08-15T01:20:45.418Z,17,GR86-004-78,7.9,0.058,0.033,99.69,5.0,6624.0,0.0,0.0,
2025-08-15T01:20:45.461Z,17,GR86-004-78,7.9,0.078,0.033,99.68,5.0,,0.0,0.0,194.89
2025-08-15T01:20:45.504Z,17,GR86-004-78,7.9,0.08,0.028,99.67,5.0,,0.0,0.0,
2025-08-15T01:20:45.547Z,17,GR86-004-78,7.9,0.049,0.042,99.7,5.0,,0.0,0.0,
2025-08-15T01:20:45.590Z,17,GR86-004-78,7.9,0.061,0.04,99.66,5.0,,0.0,0.0,
2025-08-15T01:20:45.633Z,17,GR86-004-78,7.9,0.063,0.031,99.69,5.0,6645.0,0.0,0.0,
2025-08-15T01:20:45.676Z,17,GR86-004-78,7.9,0.083,0.018,99.67,5.0,,0.0,0.0,196.1
2025-08-15T01:20:45.719Z,17,GR86-004-78,7.9,0.076,0.041,99.67,5.0,,0.0,0.0,
2025-08-15T01:20:45.762Z,17,GR86-004-78,7.9,0.083,0.042,99.68,5.0,,0.0,0.0,
2025-08-15T01:20:45.805Z,17,GR86-004-78,7.9,0.085,0.04,99.66,5.0,,0.0,0.0,
2025-08-15T01:20:45.848Z,17,GR86-004-78,7.9,0.068,0.027,99.68,5.0,6661.0,0.0,0.0,
2025-08-15T01:20:45.891Z,17,GR86-004-78,7.9,0.069,0.025,99.7,5.0,,0.0,0.0,196.64
2025-08-15T01:20:45.934Z,17,GR86-004-78,7.9,0.086,0.041,99.69,5.0,,0.0,0.0,
2025-08-15T01:20:45.977Z,17,GR86-004-78,7.9,0.075,0.023,99.66,5.0,,0.0,0.0,
2025-08-15T01:20:46.020Z,17,GR86-004-78,7.9,0.094,0.028,99.66,5.0,,0.0,0.0,
2025-08-15T01:20:46.063Z,17,GR86-004-78,7.9,0.071,0.03,99.67,5.0,6678.0,0.0,0.0,
2025-08-15T01:20:46.106Z,17,GR86-004-78,7.9,0.059,0.023,99.65,5.0,,0.0,0.0,197.21
2025-08-15T01:20:46.149Z,17,GR86-004-78,7.9,0.085,0.01,99.66,5.0,,0.0,0.0,
2025-08-15T01:20:46.192Z,17,GR86-004-78,7.9,0.086,0.017,99.69,5.0,,0.0,0.0,
2025-08-15T01:20:46.235Z,17,GR86-004-78,7.9,0.079,0.034,99.69,5.0,,0.0,0.0,
2025-08-15T01:20:46.278Z,17,GR86-004-78,7.9,0.064,0.03,99.66,5.0,6720.0,0.0,0.0,
2025-08-15T01:20:46.321Z,17,GR86-004-78,7.9,0.069,0.022,99.68,5.0,,0.0,0.0,197.85
2025-08-15T01:20:46.364Z,17,GR86-004-78,7.9,0.053,0.01,99.67,5.0,,0.0,0.0,
2025-08-15T01:20:46.407Z,17,GR86-004-78,7.9,0.081,0.02,99.68,5.0,,0.0,0.0,
2025-08-15T01:20:46.450Z,17,GR86-004-78,7.800000000000001,0.076,0.016,99.65,5.0,,0.0,0.0,
2025-08-15T01:20:46.493Z,17,GR86-004-78,7.800000000000001,0.062,0.017,99.64,5.0,6737.0,0.0,0.0,
2025-08-15T01:20:46.536Z,17,GR86-004-78,7.9,0.077,0.004,99.66,5.0,,0.0,0.0,198.37
2025-08-15T01:20:46.579Z,17,GR86-004-78,7.800000000000001,0.068,0.017,99.66,5.0,,0.0,0.0,
2025-08-15T01:20:46.622Z,17,GR86-004-78,7.800000000000001,0.038,-0.007,99.65,5.0,,0.0,0.0,
2025-08-15T01:20:46.665Z,17,GR86-004-78,7.9,0.068,0.002,99.65,5.0,,0.0,0.0,
2025-08-15T01:20:46.708Z,17,GR86-004-78,7.9,0.074,0.029,99.65,5.0,6756.0,0.0,0.0,
2025-08-15T01:20:46.751Z,17,GR86-004-78,7.9,0.051,0.02,99.65,5.0,,0.0,0.0,198.9
2025-08-15T01:20:46.794Z,17,GR86-004-78,7.800000000000001,0.041,0.019,99.65,5.0,,0.0,0.0,
2025-08-15T01:20:46.837Z,17,GR86-004-78,7.9,0.054,0.007,99.68,5.0,,0.0,0.0,
2025-08-15T01:20:46.880Z,17,GR86-004-78,7.9,0.041,0.012,99.68,5.0,,0.0,0.0,
2025-08-15T01:20:46.923Z,17,GR86-004-78,7.9,0.056,0.027,99.65,5.0,6774.0,0.0,0.0,
2025-08-15T01:20:46.967Z,17,GR86-004-78,7.9,0.052,0.04,99.68,5.0,,0.0,0.0,199.39
2025-08-15T01:20:47.011Z,17,GR86-004-78,7.9,0.029,0.028,99.67,5.0,,0.0,0.0,
2025-08-15T01:20:47.054Z,17,GR86-004-78,7.9,0.051,0.007,99.65,5.0,,0.0,0.0,
2025-08-15T01:20:47.097Z,17,GR86-004-78,7.9,0.068,-0.003,99.66,5.0,,0.0,0.0,
2025-08-15T01:20:47.140Z,17,GR86-004-78,7.800000000000001,0.052,-0.021,99.65,5.0,6795.0,0.0,0.0,
2025-08-15T01:20:47.183Z,17,GR86-004-78,7.800000000000001,0.079,0.006,99.68,5.0,,0.0,0.0,199.87
2025-08-15T01:20:47.226Z,17,GR86-004-78,7.800000000000001,0.046,-0.012,99.66,5.0,,0.0,0.0,
2025-08-15T01:20:47.270Z,17,GR86-004-78,7.800000000000001,0.062,-0.012,99.67,5.0,,0.0,0.0,
2025-08-15T01:20:47.313Z,17,GR86-004-78,7.800000000000001,0.063,-0.027,99.68,5.0,,0.0,0.0,
2025-08-15T01:20:47.356Z,17,GR86-004-78,7.800000000000001,0.081,-0.032,99.65,5.0,6808.0,0.0,0.0,
2025-08-15T01:20:47.399Z,17,GR86-004-78,7.800000000000001,0.077,-0.035,99.65,5.0,,0.0,0.0,200.37
2025-08-15T01:20:47.442Z,17,GR86-004-78,7.7,0.07,-0.034,99.65,5.0,,0.0,0.0,
2025-08-15T01:20:47.485Z,17,GR86-004-78,7.5,0.07,-0.037,99.66,5.0,,0.0,0.0,
2025-08-15T01:20:47.528Z,17,GR86-004-78,7.2,0.085,-0.054,99.65,5.0,,0.0,0.0,
2025-08-15T01:20:47.571Z,17,GR86-004-78,7.2,0.07,-0.064,99.65,5.0,6830.0,0.0,0.0,
2025-08-15T01:20:47.614Z,17,GR86-004-78,7.2,0.076,-0.064,99.65,5.0,,0.0,0.0,200.75
2025-08-15T01:20:47.657Z,17,GR86-004-78,7.300000000000001,0.052,-0.052,99.67,5.0,,0.0,0.0,
2025-08-15T01:20:47.700Z,17,GR86-004-78,7.300000000000001,0.044,-0.047,99.66,5.0,,0.0,0.0,
2025-08-15T01:20:47.743Z,17,GR86-004-78,7.300000000000001,0.047,-0.041,99.66,5.0,,0.0,0.0,
2025-08-15T01:20:47.786Z,17,GR86-004-78,7.300000000000001,0.052,-0.046,99.66,5.0,6834.0,0.0,0.0,
2025-08-15T01:20:47.829Z,17,GR86-004-78,7.300000000000001,0.069,-0.048,99.66,5.0,,0.0,0.0,201.26
2025-08-15T01:20:47.872Z,17,GR86-004-78,7.300000000000001,0.038,-0.042,99.67,5.0,,0.0,0.0,
2025-08-15T01:20:47.915Z,17,GR86-004-78,7.300000000000001,0.017,-0.039,99.65,5.0,,0.0,0.0,
2025-08-15T01:20:47.958Z,17,GR86-004-78,7.300000000000001,0.048,-0.055,99.64,5.0,,0.0,0.0,
2025-08-15T01:20:48.002Z,17,GR86-004-78,7.300000000000001,0.048,-0.029,99.65,5.0,6859.0,0.0,0.0,
2025-08-15T01:20:48.045Z,17,GR86-004-78,7.2,0.06,-0.029,99.66,5.0,,0.0,0.0,201.76
2025-08-15T01:20:48.088Z,17,GR86-004-78,7.2,0.04,-0.03,99.65,5.0,,0.0,0.0,
2025-08-15T01:20:48.131Z,17,GR86-004-78,7.2,0.047,-0.04,99.66,5.0,,0.0,0.0,
2025-08-15T01:20:48.174Z,17,GR86-004-78,7.1000000000000005,0.046,-0.051,99.66,5.0,,0.0,0.0,
2025-08-15T01:20:48.217Z,17,GR86-004-78,7.1000000000000005,0.057,-0.047,99.65,5.0,6869.0,0.0,0.0,
2025-08-15T01:20:48.260Z,17,GR86-004-78,7.1000000000000005,0.041,-0.062,99.65,5.0,,0.0,0.0,202.19
2025-08-15T01:20:48.303Z,17,GR86-004-78,7.1000000000000005,0.065,-0.068,99.65,5.0,,0.0,0.0,
2025-08-15T01:20:48.348Z,17,GR86-004-78,7.1000000000000005,0.053,-0.078,99.65,5.0,,0.0,0.0,
2025-08-15T01:20:48.391Z,17,GR86-004-78,7.1000000000000005,0.063,-0.076,99.66,5.0,,0.0,0.0,
2025-08-15T01:20:48.434Z,17,GR86-004-78,7.1000000000000005,0.061,-0.075,99.66,5.0,6878.0,0.0,0.0,
2025-08-15T01:20:48.478Z,17,GR86-004-78,7.1000000000000005,0.063,-0.078,99.66,5.0,,0.0,0.0,203.08
2025-08-15T01:20:48.522Z,17,GR86-004-78,7.1000000000000005,0.052,-0.085,99.67,5.0,,0.0,0.0,
2025-08-15T01:20:48.565Z,17,GR86-004-78,7.0,0.044,-0.088,99.67,5.0,,0.0,0.0,
2025-08-15T01:20:48.608Z,17,GR86-004-78,7.0,0.069,-0.078,99.65,5.0,,0.0,0.0,
2025-08-15T01:20:48.651Z,17,GR86-004-78,7.0,0.055,-0.092,99.65,5.0,6901.0,0.0,0.0,
2025-08-15T01:20:48.694Z,17,GR86-004-78,7.0,0.04,-0.098,99.69,5.0,,0.0,0.0,203.58
2025-08-15T01:20:48.737Z,17,GR86-004-78,7.0,0.045,-0.106,99.66,5.0,,0.0,0.0,
2025-08-15T01:20:48.780Z,17,GR86-004-78,7.0,0.024,-0.086,99.65,5.0,,0.0,0.0,
2025-08-15T01:20:48.823Z,17,GR86-004-78,7.0,0.043,-0.099,99.66,5.0,,0.0,0.0,
2025-08-15T01:20:48.868Z,17,GR86-004-78,7.0,0.029,-0.112,99.66,5.0,6932.0,0.0,0.0,
2025-08-15T01:20:48.911Z,17,GR86-004-78,7.1000000000000005,0.046,-0.105,99.65,5.0,,0.0,0.0,203.94
2025-08-15T01:20:48.954Z,17,GR86-004-78,7.1000000000000005,0.029,-0.091,99.66,5.0,,0.0,0.0,
2025-08-15T01:20:48.997Z,17,GR86-004-78,7.2,0.048,-0.075,99.66,5.0,,0.0,0.0,
2025-08-15T01:20:49.040Z,17,GR86-004-78,7.5,0.061,-0.062,99.66,5.0,,0.0,0.0,
2025-08-15T01:20:49.083Z,17,GR86-004-78,7.6,0.067,-0.043,99.68,5.0,6951.0,0.0,0.0,
2025-08-15T01:20:49.126Z,17,GR86-004-78,7.6,0.051,-0.007,99.66,5.0,,0.0,0.0,204.31
2025-08-15T01:20:49.169Z,17,GR86-004-78,7.6,0.052,0.014,96.24,5.0,,0.0,0.0,
2025-08-15T01:20:49.212Z,17,GR86-004-78,7.7,0.065,0.033,37.96,5.0,,0.0,0.0,
2025-08-15T01:20:49.255Z,17,GR86-004-78,7.7,0.052,0.05,17.07,5.0,,8.15,8.575000000000001,
2025-08-15T01:20:49.298Z,17,GR86-004-78,7.7,-0.015,0.049,5.29,5.0,6958.0,16.86,17.06,
2025-08-15T01:20:49.341Z,17,GR86-004-78,7.800000000000001,-0.248,0.039,5.22,5.0,,29.925,30.185,204.65
2025-08-15T01:20:49.384Z,17,GR86-004-78,7.7,-0.672,0.069,4.98,5.0,,45.155,44.94,
2025-08-15T01:20:49.427Z,17,GR86-004-78,7.7,-1.113,0.018,4.2700000000000005,5.0,,62.72,62.870000000000005,
2025-08-15T01:20:49.471Z,17,GR86-004-78,7.800000000000001,-1.091,0.017,3.72,5.0,,67.845,69.34,
2025-08-15T01:20:49.514Z,17,GR86-004-78,8.8,-1.187,0.001,3.48,5.0,6965.0,70.12,71.83,
2025-08-15T01:20:49.557Z,17,GR86-004-78,11.0,-1.167,-0.029,3.29,5.0,,70.425,71.43,205.02
2025-08-15T01:20:49.600Z,17,GR86-004-78,12.1,-1.176,0.011,3.16,5.0,,70.96000000000001,71.92,
2025-08-15T01:20:49.643Z,17,GR86-004-78,12.6,-1.262,-0.01,2.99,5.0,,71.205,72.01,
2025-08-15T01:20:49.686Z,17,GR86-004-78,13.0,-1.205,-0.033,2.76,5.0,,73.08,74.375,
2025-08-15T01:20:49.772Z,17,GR86-004-78,13.4,-1.272,-0.048,6.21,5.0,6571.0,74.345,74.865,202.89
2025-08-15T01:20:49.816Z,17,GR86-004-78,14.5,-1.235,-0.047,32.07,4.0,,77.795,78.925,
2025-08-15T01:20:49.859Z,17,GR86-004-78,14.5,-1.386,-0.045,4.84,4.0,,79.9,81.84,
2025-08-15T01:20:49.902Z,17,GR86-004-78,14.5,-1.283,-0.027,4.24,4.0,,81.685,83.395,
2025-08-15T01:20:49.945Z,17,GR86-004-78,14.5,-1.355,-0.067,3.84,4.0,6235.0,80.62,81.81,
2025-08-15T01:20:49.988Z,17,GR86-004-78,14.5,-1.167,-0.036,3.48,4.0,,79.595,80.91,194.39
2025-08-15T01:20:50.031Z,17,GR86-004-78,13.6,-1.221,-0.097,3.33,4.0,,79.4,80.25,
2025-08-15T01:20:50.074Z,17,GR86-004-78,12.2,-1.143,-0.106,3.2,4.0,,78.83500000000001,79.96000000000001,
2025-08-15T01:20:50.117Z,17,GR86-004-78,12.0,-1.291,-0.067,3.03,4.0,,78.985,80.285,
2025-08-15T01:20:50.160Z,17,GR86-004-78,12.0,-1.224,-0.091,2.83,4.0,6368.0,78.83500000000001,79.47500000000001,
2025-08-15T01:20:50.203Z,17,GR86-004-78,11.3,-1.232,-0.081,2.74,4.0,,77.795,78.24,185.0
2025-08-15T01:20:50.246Z,17,GR86-004-78,5.4,-1.221,-0.078,2.49,4.0,,75.31,75.675,
2025-08-15T01:20:50.289Z,17,GR86-004-78,2.2,-1.228,-0.162,2.4,4.0,,74.15,74.24,
2025-08-15T01:20:50.332Z,17,GR86-004-78,0.7000000000000001,-1.279,-0.209,2.38,4.0,,72.96000000000001,72.99,
2025-08-15T01:20:50.375Z,17,GR86-004-78,0.5,-1.186,-0.275,15.78,4.0,6503.0,71.05,70.96000000000001,
2025-08-15T01:20:50.418Z,17,GR86-004-78,0.5,-1.149,-0.305,57.64,3.0,,68.245,69.4,176.6
2025-08-15T01:20:50.461Z,17,GR86-004-78,0.8,-1.128,-0.346,23.79,3.0,,65.555,66.395,
2025-08-15T01:20:50.504Z,17,GR86-004-78,6.9,-1.234,-0.309,4.59,3.0,,63.620000000000005,64.96000000000001,
2025-08-15T01:20:50.547Z,17,GR86-004-78,19.5,-1.24,-0.378,3.98,3.0,,57.895,59.085,
2025-08-15T01:20:50.590Z,17,GR86-004-78,25.9,-1.224,-0.36,3.64,3.0,6180.0,49.135,50.28,
2025-08-15T01:20:50.633Z,17,GR86-004-78,29.6,-0.981,-0.22,3.46,3.0,,42.15,43.2,167.8
2025-08-15T01:20:50.676Z,17,GR86-004-78,30.3,-0.756,-0.453,3.3000000000000003,3.0,,35.68,36.425,
2025-08-15T01:20:50.720Z,17,GR86-004-78,30.3,-0.856,-0.374,3.16,3.0,,31.62,32.410000000000004,
2025-08-15T01:20:50.763Z,17,GR86-004-78,22.9,-0.6980000000000001,-0.346,3.0,3.0,,27.68,28.49,
2025-08-15T01:20:50.806Z,17,GR86-004-78,7.0,-0.643,-0.446,2.76,3.0,5913.0,23.805,24.705,
2025-08-15T01:20:50.850Z,17,GR86-004-78,-7.6,-0.669,-0.353,2.6,3.0,,23.655,24.31,159.46
2025-08-15T01:20:50.893Z,17,GR86-004-78,-20.1,-0.667,-0.473,2.43,3.0,,24.11,24.735,
2025-08-15T01:20:50.936Z,17,GR86-004-78,-26.8,-0.662,-0.546,2.37,3.0,,24.86,25.395,
2025-08-15T01:20:51.022Z,17,GR86-004-78,-27.6,-0.652,-0.484,2.35,3.0,6596.0,25.955,26.23,
2025-08-15T01:20:51.065Z,17,GR86-004-78,-20.9,-0.676,-0.661,2.35,3.0,,26.78,27.255,152.77
2025-08-15T01:20:51.108Z,17,GR86-004-78,-10.1,-0.714,-0.733,2.36,3.0,,23.99,24.995,
2025-08-15T01:20:51.151Z,17,GR86-004-78,-7.300000000000001,-0.6960000000000001,-0.793,2.37,3.0,,18.325,19.275,
2025-08-15T01:20:51.194Z,17,GR86-004-78,-7.300000000000001,-0.516,-0.836,2.39,3.0,,13.46,14.24,
2025-08-15T01:20:51.237Z,17,GR86-004-78,-8.0,-0.392,-0.897,2.38,3.0,6649.0,10.985,11.87,
2025-08-15T01:20:51.280Z,17,GR86-004-78,-9.5,-0.374,-0.949,2.4,3.0,,10.025,10.805,143.37
2025-08-15T01:20:51.323Z,17,GR86-004-78,-10.6,-0.39,-1.031,2.4,3.0,,9.81,10.47,
2025-08-15T01:20:51.367Z,17,GR86-004-78,-13.7,-0.412,-1.066,2.42,3.0,,9.935,10.5,
2025-08-15T01:20:51.411Z,17,GR86-004-78,-14.6,-0.398,-1.123,2.42,3.0,,9.6,10.315,
2025-08-15T01:20:51.498Z,17,GR86-004-78,-14.7,-0.38,-1.136,2.43,3.0,6393.0,7.675,8.18,140.96
2025-08-15T01:20:51.541Z,17,GR86-004-78,-13.6,-0.265,-1.234,2.44,3.0,,0.0,0.0,
2025-08-15T01:20:51.584Z,17,GR86-004-78,-13.9,-0.211,-1.239,2.44,3.0,,0.0,0.0,
2025-08-15T01:20:51.628Z,17,GR86-004-78,-16.6,-0.179,-1.221,2.45,3.0,,0.0,0.0,
2025-08-15T01:20:51.671Z,17,GR86-004-78,-15.9,-0.169,-1.219,2.45,3.0,6115.0,0.0,0.0,
2025-08-15T01:20:51.714Z,17,GR86-004-78,-15.3,-0.175,-1.213,2.47,3.0,,0.0,0.0,137.84
2025-08-15T01:20:51.757Z,17,GR86-004-78,-15.6,-0.186,-1.268,2.47,3.0,,0.0,0.0,
2025-08-15T01:20:51.800Z,17,GR86-004-78,-19.6,-0.175,-1.297,2.49,3.0,,0.0,0.0,
2025-08-15T01:20:51.843Z,17,GR86-004-78,-20.3,-0.205,-1.335,2.71,3.0,,0.0,0.0,
2025-08-15T01:20:51.886Z,17,GR86-004-78,-20.700000000000003,-0.184,-1.3,4.9,3.0,6091.0,0.0,0.0,
2025-08-15T01:20:51.930Z,17,GR86-004-78,-24.4,-0.179,-1.269,9.36,3.0,,0.0,0.0,135.95
2025-08-15T01:20:51.973Z,17,GR86-004-78,-27.8,-0.175,-1.309,19.67,3.0,,0.0,0.0,
2025-08-15T01:20:52.016Z,17,GR86-004-78,-27.5,-0.182,-1.335,28.61,3.0,,0.0,0.0,
2025-08-15T01:20:52.059Z,17,GR86-004-78,-23.5,-0.165,-1.332,32.89,3.0,,0.0,0.0,
2025-08-15T01:20:52.102Z,17,GR86-004-78,-13.7,-0.145,-1.346,46.85,3.0,6004.0,0.0,0.0,
2025-08-15T01:20:52.145Z,17,GR86-004-78,-4.800000000000001,-0.084,-1.301,80.24,3.0,,0.0,0.0,132.95
2025-08-15T01:20:52.188Z,17,GR86-004-78,-0.3,0.059,-1.33,99.47,3.0,,0.0,0.0,
2025-08-15T01:20:52.231Z,17,GR86-004-78,-0.3,0.248,-1.286,99.62,3.0,,0.0,0.0,
2025-08-15T01:20:52.274Z,17,GR86-004-78,-1.4,0.225,-1.271,99.63,3.0,,0.0,0.0,
2025-08-15T01:20:52.317Z,17,GR86-004-78,-1.3,0.229,-1.262,99.64,3.0,5948.0,0.0,0.0,
2025-08-15T01:20:52.360Z,17,GR86-004-78,0.2,0.189,-1.185,99.62,3.0,,0.0,0.0,131.24
2025-08-15T01:20:52.403Z,17,GR86-004-78,5.0,0.16,-1.295,99.63,3.0,,0.0,0.0,
2025-08-15T01:20:52.446Z,17,GR86-004-78,7.800000000000001,0.204,-1.246,99.62,3.0,,0.0,0.0,
2025-08-15T01:20:52.532Z,17,GR86-004-78,-17.2,0.165,-1.326,99.63,3.0,6283.0,0.0,0.0,
2025-08-15T01:20:52.575Z,17,GR86-004-78,-37.4,0.147,-1.346,99.64,3.0,,0.0,0.0,130.61
2025-08-15T01:20:52.618Z,17,GR86-004-78,-42.400000000000006,0.102,-1.452,99.66,3.0,,0.0,0.0,
2025-08-15T01:20:52.661Z,17,GR86-004-78,-41.2,0.101,-1.244,99.64,3.0,,0.0,0.0,
2025-08-15T01:20:52.704Z,17,GR86-004-78,-34.0,0.18,-1.298,99.66,3.0,,0.0,0.0,
2025-08-15T01:20:52.747Z,17,GR86-004-78,-19.6,0.177,-1.149,99.65,3.0,6272.0,0.0,0.0,
2025-08-15T01:20:52.790Z,17,GR86-004-78,-9.7,0.175,-1.131,99.64,3.0,,0.0,0.0,130.51
2025-08-15T01:20:52.833Z,17,GR86-004-78,-0.9,0.239,-1.275,99.65,3.0,,0.0,0.0,
2025-08-15T01:20:52.876Z,17,GR86-004-78,5.2,0.325,-1.208,99.65,3.0,,0.0,0.0,
2025-08-15T01:20:52.919Z,17,GR86-004-78,6.800000000000001,0.336,-1.121,99.64,3.0,,0.0,0.0,
2025-08-15T01:20:52.962Z,17,GR86-004-78,5.7,0.199,-1.066,99.64,3.0,6333.0,0.0,0.0,
2025-08-15T01:20:53.005Z,17,GR86-004-78,2.1,0.15,-0.948,99.64,3.0,,0.0,0.0,129.87
2025-08-15T01:20:53.048Z,17,GR86-004-78,-5.4,0.279,-0.898,99.3,3.0,,0.0,0.0,
2025-08-15T01:20:53.091Z,17,GR86-004-78,-12.2,0.225,-0.981,84.95,3.0,,0.0,0.0,
2025-08-15T01:20:53.134Z,17,GR86-004-78,-18.4,0.213,-1.068,80.49,3.0,,0.0,0.0,
2025-08-15T01:20:53.177Z,17,GR86-004-78,-24.200000000000003,-0.015,-1.3,93.31,3.0,6359.0,0.0,0.0,
2025-08-15T01:20:53.220Z,17,GR86-004-78,-24.6,-0.064,-1.319,99.36,3.0,,0.0,0.0,130.89
2025-08-15T01:20:53.263Z,17,GR86-004-78,-21.8,0.003,-1.245,99.64,3.0,,0.0,0.0,
2025-08-15T01:20:53.306Z,17,GR86-004-78,-15.0,0.112,-1.144,99.63,3.0,,0.0,0.0,
2025-08-15T01:20:53.350Z,17,GR86-004-78,-12.5,0.118,-1.091,99.66,3.0,,0.0,0.0,
2025-08-15T01:20:53.393Z,17,GR86-004-78,-11.7,0.153,-1.199,99.65,3.0,6427.0,0.0,0.0,
2025-08-15T01:20:53.437Z,17,GR86-004-78,-11.1,0.092,-1.444,99.63,3.0,,0.0,0.0,131.89
2025-08-15T01:20:53.480Z,17,GR86-004-78,-10.6,0.208,-1.265,99.65,3.0,,0.0,0.0,
2025-08-15T01:20:53.523Z,17,GR86-004-78,-10.5,0.094,-1.219,99.62,3.0,,0.0,0.0,
2025-08-15T01:20:53.567Z,17,GR86-004-78,-11.9,0.168,-1.269,99.64,3.0,,0.0,0.0,
2025-08-15T01:20:53.611Z,17,GR86-004-78,-14.4,0.254,-1.319,99.64,3.0,6364.0,0.0,0.0,
2025-08-15T01:20:53.654Z,17,GR86-004-78,-15.3,0.201,-1.322,99.66,3.0,,0.0,0.0,132.1
2025-08-15T01:20:53.697Z,17,GR86-004-78,-15.4,0.177,-1.248,99.65,3.0,,0.0,0.0,
2025-08-15T01:20:53.740Z,17,GR86-004-78,-16.6,0.151,-1.201,99.64,3.0,,0.0,0.0,
2025-08-15T01:20:53.783Z,17,GR86-004-78,-20.4,0.183,-1.12,99.64,3.0,,0.0,0.0,
2025-08-15T01:20:53.826Z,17,GR86-004-78,-26.5,0.192,-1.191,99.66,3.0,6356.0,0.0,0.0,
2025-08-15T01:20:53.870Z,17,GR86-004-78,-27.4,0.169,-1.202,99.63,3.0,,0.0,0.0,133.21
2025-08-15T01:20:53.913Z,17,GR86-004-78,-26.3,0.164,-1.252,99.64,3.0,,0.0,0.0,
2025-08-15T01:20:53.956Z,17,GR86-004-78,-23.8,0.155,-1.274,99.65,3.0,,0.0,0.0,
2025-08-15T01:20:53.999Z,17,GR86-004-78,-22.4,0.183,-1.275,99.64,3.0,,0.0,0.0,
2025-08-15T01:20:54.042Z,17,GR86-004-78,-22.3,0.181,-1.229,99.63,3.0,6380.0,0.0,0.0,
2025-08-15T01:20:54.085Z,17,GR86-004-78,-22.4,0.17,-1.153,99.63,3.0,,0.0,0.0,133.56
2025-08-15T01:20:54.128Z,17,GR86-004-78,-23.3,0.178,-1.127,99.65,3.0,,0.0,0.0,
2025-08-15T01:20:54.171Z,17,GR86-004-78,-23.4,0.16,-1.146,99.62,3.0,,0.0,0.0,
2025-08-15T01:20:54.214Z,17,GR86-004-78,-23.3,0.168,-1.144,99.66,3.0,,0.0,0.0,
2025-08-15T01:20:54.257Z,17,GR86-004-78,-23.3,0.174,-1.113,99.64,3.0,6412.0,0.0,0.0,
2025-08-15T01:20:54.300Z,17,GR86-004-78,-23.5,0.187,-1.071,99.62,3.0,,0.0,0.0,134.58
2025-08-15T01:20:54.343Z,17,GR86-004-78,-23.8,0.17,-1.075,99.63,3.0,,0.0,0.0,
2025-08-15T01:20:54.386Z,17,GR86-004-78,-23.9,0.195,-1.063,99.64,3.0,,0.0,0.0,
2025-08-15T01:20:54.429Z,17,GR86-004-78,-23.9,0.18,-1.071,99.63,3.0,,0.0,0.0,
2025-08-15T01:20:54.472Z,17,GR86-004-78,-24.0,0.148,-1.024,99.66,3.0,6441.0,0.0,0.0,
2025-08-15T01:20:54.515Z,17,GR86-004-78,-23.9,0.153,-1.041,99.63,3.0,,0.0,0.0,135.59
2025-08-15T01:20:54.558Z,17,GR86-004-78,-23.4,0.198,-1.032,99.62,3.0,,0.0,0.0,
2025-08-15T01:20:54.601Z,17,GR86-004-78,-22.5,0.174,-1.078,99.63,3.0,,0.0,0.0,
2025-08-15T01:20:54.645Z,17,GR86-004-78,-21.5,0.142,-1.046,99.62,3.0,,0.0,0.0,
2025-08-15T01:20:54.688Z,17,GR86-004-78,-18.9,0.149,-1.008,99.65,3.0,6475.0,0.0,0.0,
2025-08-15T01:20:54.731Z,17,GR86-004-78,-16.5,0.145,-1.094,99.64,3.0,,0.0,0.0,136.47
2025-08-15T01:20:54.774Z,17,GR86-004-78,-14.1,0.265,-0.894,99.62,3.0,,0.0,0.0,
2025-08-15T01:20:54.817Z,17,GR86-004-78,-11.9,0.206,-0.8310000000000001,99.62,3.0,,0.0,0.0,
2025-08-15T01:20:54.860Z,17,GR86-004-78,-10.0,0.083,-0.757,99.64,3.0,,0.0,0.0,
2025-08-15T01:20:54.903Z,17,GR86-004-78,-9.1,0.076,-0.739,99.65,3.0,6543.0,0.0,0.0,
2025-08-15T01:20:54.946Z,17,GR86-004-78,-10.0,0.061,-0.7010000000000001,99.62,3.0,,0.0,0.0,137.20000000000002
2025-08-15T01:20:54.991Z,17,GR86-004-78,-12.9,0.031,-0.635,99.62,3.0,,0.0,0.0,
2025-08-15T01:20:55.034Z,17,GR86-004-78,-14.8,0.264,-0.766,99.64,3.0,,0.0,0.0,
2025-08-15T01:20:55.078Z,17,GR86-004-78,-14.3,0.255,-0.972,99.65,3.0,,0.0,0.0,
2025-08-15T01:20:55.165Z,17,GR86-004-78,-13.3,0.168,-0.951,99.65,3.0,6607.0,0.0,0.0,138.3
2025-08-15T01:20:55.208Z,17,GR86-004-78,-17.3,0.132,-1.049,99.65,3.0,,0.0,0.0,
2025-08-15T01:20:55.251Z,17,GR86-004-78,-19.0,0.147,-1.061,99.66,3.0,,0.0,0.0,
2025-08-15T01:20:55.294Z,17,GR86-004-78,-19.0,0.201,-0.966,99.64,3.0,,0.0,0.0,
2025-08-15T01:20:55.337Z,17,GR86-004-78,-18.6,0.24,-0.8140000000000001,99.63,3.0,6668.0,0.0,0.0,
2025-08-15T01:20:55.380Z,17,GR86-004-78,-18.4,0.169,-0.72,99.64,3.0,,0.0,0.0,139.28
2025-08-15T01:20:55.423Z,17,GR86-004-78,-18.2,0.118,-0.897,99.63,3.0,,0.0,0.0,
2025-08-15T01:20:55.468Z,17,GR86-004-78,-15.9,0.168,-1.028,99.61,3.0,,0.0,0.0,
2025-08-15T01:20:55.511Z,17,GR86-004-78,-12.0,0.183,-1.216,99.62,3.0,,0.0,0.0,
2025-08-15T01:20:55.554Z,17,GR86-004-78,-8.1,0.271,-1.098,99.64,3.0,6678.0,0.0,0.0,
2025-08-15T01:20:55.597Z,17,GR86-004-78,-6.1000000000000005,0.124,-1.182,99.63,3.0,,0.0,0.0,140.36
2025-08-15T01:20:55.640Z,17,GR86-004-78,-5.9,0.21,-1.077,99.62,3.0,,0.0,0.0,
2025-08-15T01:20:55.726Z,17,GR86-004-78,-5.9,0.219,-0.899,99.62,3.0,,0.0,0.0,
2025-08-15T01:20:55.769Z,17,GR86-004-78,-5.7,0.175,-0.795,99.65,3.0,6765.0,0.0,0.0,
2025-08-15T01:20:55.812Z,17,GR86-004-78,-5.7,0.251,-0.6940000000000001,99.62,3.0,,0.0,0.0,140.43
2025-08-15T01:20:55.855Z,17,GR86-004-78,-5.6000000000000005,0.209,-0.723,99.65,3.0,,0.0,0.0,
2025-08-15T01:20:55.898Z,17,GR86-004-78,-5.6000000000000005,0.221,-0.663,99.64,3.0,,0.0,0.0,
2025-08-15T01:20:55.941Z,17,GR86-004-78,-5.2,0.135,-0.612,99.63,3.0,,0.0,0.0,
2025-08-15T01:20:55.984Z,17,GR86-004-78,-4.4,0.132,-0.519,99.64,3.0,6725.0,0.0,0.0,
2025-08-15T01:20:56.027Z,17,GR86-004-78,-3.1,0.176,-0.512,99.62,3.0,,0.0,0.0,142.15
2025-08-15T01:20:56.071Z,17,GR86-004-78,-2.7,0.239,-0.483,99.64,3.0,,0.0,0.0,
2025-08-15T01:20:56.114Z,17,GR86-004-78,-2.5,0.249,-0.305,99.63,3.0,,0.0,0.0,
2025-08-15T01:20:56.157Z,17,GR86-004-78,-2.3000000000000003,0.139,-0.347,99.64,3.0,,0.0,0.0,
2025-08-15T01:20:56.200Z,17,GR86-004-78,-0.8,0.093,-0.398,99.63,3.0,6765.0,0.0,0.0,
2025-08-15T01:20:56.243Z,17,GR86-004-78,0.1,0.184,-0.318,99.61,3.0,,0.0,0.0,142.77
2025-08-15T01:20:56.286Z,17,GR86-004-78,0.8,0.262,-0.308,99.64,3.0,,0.0,0.0,
2025-08-15T01:20:56.329Z,17,GR86-004-78,1.8,0.072,-0.156,99.62,3.0,,0.0,0.0,
2025-08-15T01:20:56.372Z,17,GR86-004-78,4.5,0.039,-0.216,99.64,3.0,,0.0,0.0,
2025-08-15T01:20:56.415Z,17,GR86-004-78,7.0,0.198,-0.148,99.63,3.0,6807.0,0.0,0.0,
2025-08-15T01:20:56.458Z,17,GR86-004-78,8.200000000000001,0.24,-0.268,99.62,3.0,,0.0,0.0,144.44
2025-08-15T01:20:56.502Z,17,GR86-004-78,8.4,0.322,-0.23,99.62,3.0,,0.0,0.0,
2025-08-15T01:20:56.545Z,17,GR86-004-78,8.6,0.115,-0.144,99.63,3.0,,0.0,0.0,
2025-08-15T01:20:56.631Z,17,GR86-004-78,8.4,0.133,-0.095,99.62,3.0,6955.0,0.0,0.0,
2025-08-15T01:20:56.674Z,17,GR86-004-78,8.4,0.149,0.042,99.63,3.0,,0.0,0.0,146.73
2025-08-15T01:20:56.717Z,17,GR86-004-78,8.5,0.205,0.086,99.63,3.0,,0.0,0.0,
2025-08-15T01:20:56.760Z,17,GR86-004-78,8.5,0.182,0.063,99.63,3.0,,0.0,0.0,
2025-08-15T01:20:56.803Z,17,GR86-004-78,8.700000000000001,0.15,0.156,99.63,3.0,,0.0,0.0,
2025-08-15T01:20:56.846Z,17,GR86-004-78,10.1,0.155,0.192,99.66,3.0,7007.0,0.0,0.0,
2025-08-15T01:20:56.889Z,17,GR86-004-78,11.3,0.214,0.237,99.62,3.0,,0.0,0.0,148.69
2025-08-15T01:20:56.932Z,17,GR86-004-78,12.7,0.234,0.224,99.65,3.0,,0.0,0.0,
2025-08-15T01:20:56.975Z,17,GR86-004-78,13.0,0.251,0.206,99.65,3.0,,0.0,0.0,
2025-08-15T01:20:57.018Z,17,GR86-004-78,13.0,-0.07,0.249,99.65,4.0,,0.0,0.0,
2025-08-15T01:20:57.061Z,17,GR86-004-78,12.9,0.235,0.332,99.65,4.0,7019.0,0.0,0.0,
2025-08-15T01:20:57.104Z,17,GR86-004-78,12.9,0.205,0.34,99.64,4.0,,0.0,0.0,149.70000000000002
2025-08-15T01:20:57.147Z,17,GR86-004-78,12.8,0.17,0.41,99.61,4.0,,0.0,0.0,
2025-08-15T01:20:57.190Z,17,GR86-004-78,12.8,0.179,0.475,99.62,4.0,,0.0,0.0,
2025-08-15T01:20:57.233Z,17,GR86-004-78,12.7,0.133,0.311,99.62,4.0,,0.0,0.0,
2025-08-15T01:20:57.276Z,17,GR86-004-78,12.8,0.118,0.422,99.62,4.0,6462.0,0.0,0.0,
2025-08-15T01:20:57.319Z,17,GR86-004-78,12.8,0.157,0.337,99.62,4.0,,0.0,0.0,150.96
2025-08-15T01:20:57.362Z,17,GR86-004-78,12.7,0.135,0.329,99.62,4.0,,0.0,0.0,
2025-08-15T01:20:57.405Z,17,GR86-004-78,12.7,0.117,0.336,99.63,4.0,,0.0,0.0,
2025-08-15T01:20:57.448Z,17,GR86-004-78,12.7,0.158,0.225,99.64,4.0,,0.0,0.0,
2025-08-15T01:20:57.491Z,17,GR86-004-78,12.7,0.158,0.225,99.65,4.0,6046.0,0.0,0.0,
2025-08-15T01:20:57.534Z,17,GR86-004-78,12.6,0.125,0.207,99.65,4.0,,0.0,0.0,152.33
2025-08-15T01:20:57.577Z,17,GR86-004-78,12.1,0.134,0.192,99.64,4.0,,0.0,0.0,
2025-08-15T01:20:57.620Z,17,GR86-004-78,11.9,0.161,0.149,99.65,4.0,,0.0,0.0,
2025-08-15T01:20:57.663Z,17,GR86-004-78,11.9,0.164,0.132,99.63,4.0,,0.0,0.0,
2025-08-15T01:20:57.706Z,17,GR86-004-78,11.9,0.142,0.125,99.64,4.0,6085.0,0.0,0.0,
2025-08-15T01:20:57.749Z,17,GR86-004-78,11.9,0.146,0.111,99.62,4.0,,0.0,0.0,153.75
2025-08-15T01:20:57.792Z,17,GR86-004-78,11.9,0.162,0.098,99.63,4.0,,0.0,0.0,
2025-08-15T01:20:57.835Z,17,GR86-004-78,11.9,0.132,0.094,99.62,4.0,,0.0,0.0,
2025-08-15T01:20:57.878Z,17,GR86-004-78,11.4,0.117,0.112,99.63,4.0,,0.0,0.0,
2025-08-15T01:20:57.922Z,17,GR86-004-78,11.3,0.124,0.1,99.62,4.0,6120.0,0.0,0.0,
2025-08-15T01:20:57.965Z,17,GR86-004-78,11.3,0.155,0.101,99.62,4.0,,0.0,0.0,154.94
2025-08-15T01:20:58.008Z,17,GR86-004-78,11.2,0.134,0.085,99.63,4.0,,0.0,0.0,
2025-08-15T01:20:58.051Z,17,GR86-004-78,11.1,0.127,0.092,99.64,4.0,,0.0,0.0,
2025-08-15T01:20:58.094Z,17,GR86-004-78,11.0,0.129,0.097,99.62,4.0,,0.0,0.0,
2025-08-15T01:20:58.137Z,17,GR86-004-78,11.0,0.139,0.095,99.63,4.0,6175.0,0.0,0.0,
2025-08-15T01:20:58.180Z,17,GR86-004-78,10.9,0.14,0.082,99.65,4.0,,0.0,0.0,156.21
2025-08-15T01:20:58.223Z,17,GR86-004-78,10.8,0.139,0.073,99.64,4.0,,0.0,0.0,
2025-08-15T01:20:58.268Z,17,GR86-004-78,10.8,0.128,0.07,99.65,4.0,,0.0,0.0,
2025-08-15T01:20:58.311Z,17,GR86-004-78,10.6,0.127,0.057,99.61,4.0,,0.0,0.0,
2025-08-15T01:20:58.354Z,17,GR86-004-78,10.4,0.143,0.053,99.64,4.0,6218.0,0.0,0.0,
2025-08-15T01:20:58.397Z,17,GR86-004-78,10.3,0.143,0.044,99.64,4.0,,0.0,0.0,157.6
2025-08-15T01:20:58.441Z,17,GR86-004-78,10.3,0.12,0.026,99.63,4.0,,0.0,0.0,
2025-08-15T01:20:58.484Z,17,GR86-004-78,10.2,0.118,0.037,99.64,4.0,,0.0,0.0,
2025-08-15T01:20:58.528Z,17,GR86-004-78,9.6,0.138,0.043,99.62,4.0,,0.0,0.0,
2025-08-15T01:20:58.571Z,17,GR86-004-78,9.0,0.137,0.027,99.65,4.0,6261.0,0.0,0.0,
2025-08-15T01:20:58.614Z,17,GR86-004-78,8.5,0.12,0.002,99.63,4.0,,0.0,0.0,159.05
2025-08-15T01:20:58.657Z,17,GR86-004-78,8.3,0.127,-0.001,99.62,4.0,,0.0,0.0,
2025-08-15T01:20:58.700Z,17,GR86-004-78,8.1,0.108,-0.009,99.65,4.0,,0.0,0.0,
2025-08-15T01:20:58.743Z,17,GR86-004-78,8.0,0.145,0.002,99.62,4.0,,0.0,0.0,
2025-08-15T01:20:58.786Z,17,GR86-004-78,7.9,0.134,-0.031,99.64,4.0,6315.0,0.0,0.0,
2025-08-15T01:20:58.830Z,17,GR86-004-78,7.800000000000001,0.105,-0.035,99.65,4.0,,0.0,0.0,160.49
2025-08-15T01:20:58.873Z,17,GR86-004-78,7.800000000000001,0.108,-0.061,99.65,4.0,,0.0,0.0,
2025-08-15T01:20:58.916Z,17,GR86-004-78,7.6,0.132,-0.068,99.64,4.0,,0.0,0.0,
2025-08-15T01:20:58.959Z,17,GR86-004-78,7.1000000000000005,0.14,-0.066,99.62,4.0,,0.0,0.0,
2025-08-15T01:20:59.004Z,17,GR86-004-78,6.6000000000000005,0.142,-0.072,99.62,4.0,6377.0,0.0,0.0,
2025-08-15T01:20:59.047Z,17,GR86-004-78,6.2,0.1,-0.11,99.64,4.0,,0.0,0.0,161.93
2025-08-15T01:20:59.091Z,17,GR86-004-78,6.0,0.124,-0.107,99.63,4.0,,0.0,0.0,
2025-08-15T01:20:59.134Z,17,GR86-004-78,5.9,0.117,-0.096,99.63,4.0,,0.0,0.0,
2025-08-15T01:20:59.177Z,17,GR86-004-78,5.7,0.119,-0.113,99.62,4.0,,0.0,0.0,
2025-08-15T01:20:59.220Z,17,GR86-004-78,5.5,0.139,-0.118,99.63,4.0,6451.0,0.0,0.0,
2025-08-15T01:20:59.263Z,17,GR86-004-78,5.2,0.152,-0.135,99.65,4.0,,0.0,0.0,163.27
2025-08-15T01:20:59.306Z,17,GR86-004-78,4.800000000000001,0.103,-0.166,99.64,4.0,,0.0,0.0,
2025-08-15T01:20:59.349Z,17,GR86-004-78,4.6000000000000005,0.111,-0.182,99.64,4.0,,0.0,0.0,
2025-08-15T01:20:59.392Z,17,GR86-004-78,4.6000000000000005,0.132,-0.179,99.61,4.0,,0.0,0.0,
2025-08-15T01:20:59.478Z,17,GR86-004-78,4.5,0.137,-0.18,99.62,4.0,6499.0,0.0,0.0,166.17000000000002
2025-08-15T01:20:59.522Z,17,GR86-004-78,4.5,0.156,-0.182,99.63,4.0,,0.0,0.0,
2025-08-15T01:20:59.565Z,17,GR86-004-78,4.4,0.152,-0.185,99.64,4.0,,0.0,0.0,
2025-08-15T01:20:59.608Z,17,GR86-004-78,4.0,0.113,-0.188,99.63,4.0,,0.0,0.0,
2025-08-15T01:20:59.651Z,17,GR86-004-78,3.8,0.13,-0.184,99.64,4.0,6547.0,0.0,0.0,
2025-08-15T01:20:59.694Z,17,GR86-004-78,3.7,0.132,-0.196,99.64,4.0,,0.0,0.0,167.58
2025-08-15T01:20:59.737Z,17,GR86-004-78,3.7,0.135,-0.196,99.64,4.0,,0.0,0.0,
2025-08-15T01:20:59.780Z,17,GR86-004-78,3.4000000000000004,0.151,-0.203,99.62,4.0,,0.0,0.0,
2025-08-15T01:20:59.823Z,17,GR86-004-78,3.2,0.151,-0.211,99.62,4.0,,0.0,0.0,
2025-08-15T01:20:59.868Z,17,GR86-004-78,3.1,0.097,-0.239,99.62,4.0,6650.0,0.0,0.0,
2025-08-15T01:20:59.911Z,17,GR86-004-78,3.1,0.107,-0.234,99.64,4.0,,0.0,0.0,169.04
2025-08-15T01:20:59.954Z,17,GR86-004-78,3.1,0.112,-0.237,99.65,4.0,,0.0,0.0,
2025-08-15T01:20:59.997Z,17,GR86-004-78,3.2,0.125,-0.214,99.65,4.0,,0.0,0.0,
2025-08-15T01:21:00.040Z,17,GR86-004-78,3.1,0.121,-0.211,99.64,4.0,,0.0,0.0,
2025-08-15T01:21:00.083Z,17,GR86-004-78,3.1,0.13,-0.196,99.64,4.0,6704.0,0.0,0.0,
2025-08-15T01:21:00.126Z,17,GR86-004-78,3.1,0.099,-0.216,99.62,4.0,,0.0,0.0,170.37
2025-08-15T01:21:00.170Z,17,GR86-004-78,3.1,0.091,-0.229,99.62,4.0,,0.0,0.0,
2025-08-15T01:21:00.256Z,17,GR86-004-78,3.1,0.083,-0.239,99.62,4.0,,0.0,0.0,
2025-08-15T01:21:00.299Z,17,GR86-004-78,3.1,0.098,-0.246,99.63,4.0,6755.0,0.0,0.0,
2025-08-15T01:21:00.342Z,17,GR86-004-78,3.1,0.098,-0.237,99.63,4.0,,0.0,0.0,171.64
2025-08-15T01:21:00.385Z,17,GR86-004-78,3.0,0.104,-0.227,99.64,4.0,,0.0,0.0,
2025-08-15T01:21:00.428Z,17,GR86-004-78,2.9000000000000004,0.105,-0.242,99.62,4.0,,0.0,0.0,
2025-08-15T01:21:00.514Z,17,GR86-004-78,2.9000000000000004,0.122,-0.249,99.64,4.0,6804.0,0.0,0.0,
2025-08-15T01:21:00.600Z,17,GR86-004-78,2.9000000000000004,0.106,-0.228,99.64,4.0,,0.0,0.0,172.9
2025-08-15T01:21:00.643Z,17,GR86-004-78,2.9000000000000004,0.085,-0.22,99.63,4.0,,0.0,0.0,
2025-08-15T01:21:00.686Z,17,GR86-004-78,2.9000000000000004,0.147,-0.211,99.63,4.0,,0.0,0.0,
2025-08-15T01:21:00.729Z,17,GR86-004-78,2.5,0.142,-0.23,99.62,4.0,6853.0,0.0,0.0,
2025-08-15T01:21:00.772Z,17,GR86-004-78,1.6,0.144,-0.248,99.64,4.0,,0.0,0.0,174.17000000000002
2025-08-15T01:21:00.815Z,17,GR86-004-78,1.2000000000000002,0.137,-0.267,99.63,4.0,,0.0,0.0,
2025-08-15T01:21:00.859Z,17,GR86-004-78,1.2000000000000002,0.144,-0.272,99.64,4.0,,0.0,0.0,
2025-08-15T01:21:00.945Z,17,GR86-004-78,1.2000000000000002,0.126,-0.282,99.64,4.0,6904.0,0.0,0.0,
2025-08-15T01:21:00.988Z,17,GR86-004-78,1.1,0.106,-0.301,99.62,4.0,,0.0,0.0,175.34
2025-08-15T01:21:01.031Z,17,GR86-004-78,0.9,0.106,-0.307,99.63,4.0,,0.0,0.0,
2025-08-15T01:21:01.074Z,17,GR86-004-78,0.9,0.113,-0.305,99.62,4.0,,0.0,0.0,
2025-08-15T01:21:01.117Z,17,GR86-004-78,0.9,0.099,-0.306,99.63,4.0,,0.0,0.0,
2025-08-15T01:21:01.160Z,17,GR86-004-78,1.0,0.118,-0.291,99.62,4.0,6942.0,0.0,0.0,
2025-08-15T01:21:01.203Z,17,GR86-004-78,1.0,0.115,-0.285,62.54,4.0,,0.0,0.0,176.67000000000002
2025-08-15T01:21:01.246Z,17,GR86-004-78,4.2,0.102,-0.271,4.14,4.0,,17.185,17.455000000000002,
2025-08-15T01:21:01.291Z,17,GR86-004-78,5.1000000000000005,-0.073,-0.251,5.19,4.0,,29.27,29.115,
2025-08-15T01:21:01.334Z,17,GR86-004-78,5.1000000000000005,-0.545,-0.198,5.01,4.0,,42.805,42.485,
2025-08-15T01:21:01.378Z,17,GR86-004-78,5.1000000000000005,-0.844,-0.158,4.65,4.0,6995.0,55.3,54.86,
2025-08-15T01:21:01.421Z,17,GR86-004-78,5.800000000000001,-1.152,-0.154,3.99,4.0,,63.375,62.9,177.84
2025-08-15T01:21:01.464Z,17,GR86-004-78,8.3,-1.233,-0.131,3.5700000000000003,4.0,,67.69500000000001,69.08,
2025-08-15T01:21:01.507Z,17,GR86-004-78,8.8,-1.276,-0.086,3.28,4.0,,70.33500000000001,71.295,
2025-08-15T01:21:01.550Z,17,GR86-004-78,8.8,-1.299,-0.075,3.15,4.0,,70.96000000000001,71.92,
2025-08-15T01:21:01.594Z,17,GR86-004-78,5.300000000000001,-1.194,-0.122,3.02,4.0,7041.0,70.595,70.865,
2025-08-15T01:21:01.637Z,17,GR86-004-78,2.8000000000000003,-1.252,-0.219,2.83,4.0,,69.19,68.96000000000001,178.73
2025-08-15T01:21:01.680Z,17,GR86-004-78,2.7,-1.267,-0.245,24.03,4.0,,68.41,68.12,
2025-08-15T01:21:01.723Z,17,GR86-004-78,5.4,-1.333,-0.286,50.46,3.0,,69.19,70.545,
2025-08-15T01:21:01.767Z,17,GR86-004-78,12.3,-1.414,-0.135,4.8,3.0,,69.875,71.58500000000001,
2025-08-15T01:21:01.811Z,17,GR86-004-78,12.9,-1.305,-0.101,4.36,3.0,6405.0,71.37,73.31,
2025-08-15T01:21:01.854Z,17,GR86-004-78,13.1,-1.351,-0.253,3.87,3.0,,69.74,70.06,175.52
2025-08-15T01:21:01.897Z,17,GR86-004-78,14.5,-1.249,-0.134,3.5700000000000003,3.0,,68.41,69.77,
2025-08-15T01:21:01.940Z,17,GR86-004-78,14.7,-1.183,-0.151,3.41,3.0,,67.69500000000001,68.93,
2025-08-15T01:21:02.026Z,17,GR86-004-78,14.7,-1.203,-0.192,3.06,3.0,6220.0,60.92,62.505,
2025-08-15T01:21:02.069Z,17,GR86-004-78,14.9,-1.021,-0.294,2.86,3.0,,57.025,57.56,159.43
2025-08-15T01:21:02.112Z,17,GR86-004-78,15.0,-1.08,-0.261,2.74,3.0,,53.335,54.43,
2025-08-15T01:21:02.155Z,17,GR86-004-78,9.1,-1.048,-0.175,2.54,3.0,,52.585,53.775,
2025-08-15T01:21:02.198Z,17,GR86-004-78,-3.0,-1.016,-0.268,2.43,3.0,,53.06,54.14,
2025-08-15T01:21:02.241Z,17,GR86-004-78,-13.6,-1.084,-0.376,2.39,3.0,6493.0,53.58,54.205,
2025-08-15T01:21:02.284Z,17,GR86-004-78,-17.0,-1.076,-0.507,2.37,3.0,,54.235,54.645,150.23
2025-08-15T01:21:02.327Z,17,GR86-004-78,-14.8,-1.053,-0.586,3.78,3.0,,56.995000000000005,58.245000000000005,
2025-08-15T01:21:02.371Z,17,GR86-004-78,-9.4,-1.031,-0.5680000000000001,41.29,3.0,,58.155,58.46,
2025-08-15T01:21:02.414Z,17,GR86-004-78,-1.7000000000000002,-1.14,-0.5650000000000001,84.85000000000001,3.0,,57.53,57.53,
2025-08-15T01:21:02.457Z,17,GR86-004-78,6.1000000000000005,-1.144,-0.491,97.09,2.0,6594.0,56.845,56.905,
2025-08-15T01:21:02.500Z,17,GR86-004-78,11.6,-1.154,-0.527,35.19,2.0,,56.66,56.935,143.46
2025-08-15T01:21:02.543Z,17,GR86-004-78,12.8,-1.139,-0.378,3.38,2.0,,55.915,57.33,
2025-08-15T01:21:02.586Z,17,GR86-004-78,8.1,-1.05,-0.788,2.96,2.0,,53.305,53.99,
2025-08-15T01:21:02.629Z,17,GR86-004-78,4.5,-1.117,-0.803,2.86,2.0,,50.875,51.84,
2025-08-15T01:21:02.672Z,17,GR86-004-78,4.5,-0.802,-0.705,2.8000000000000003,2.0,6048.0,49.765,51.06,
2025-08-15T01:21:02.715Z,17,GR86-004-78,10.8,-0.762,-1.023,2.74,2.0,,46.985,47.84,137.59
2025-08-15T01:21:02.758Z,17,GR86-004-78,18.1,-0.789,-0.984,2.59,2.0,,43.795,44.805,
2025-08-15T01:21:02.801Z,17,GR86-004-78,19.1,-0.8180000000000001,-0.862,2.49,2.0,,39.615,40.33,
2025-08-15T01:21:02.844Z,17,GR86-004-78,18.7,-0.744,-0.977,2.43,2.0,,35.435,36.455,
2025-08-15T01:21:02.887Z,17,GR86-004-78,18.0,-0.6920000000000001,-1.025,2.4,2.0,6793.0,30.43,31.33,
2025-08-15T01:21:02.931Z,17,GR86-004-78,18.1,-0.673,-1.079,2.4,2.0,,26.2,27.085,130.86
2025-08-15T01:21:02.974Z,17,GR86-004-78,18.1,-0.603,-1.066,2.42,2.0,,21.5,21.9,
2025-08-15T01:21:03.017Z,17,GR86-004-78,14.2,-0.537,-1.064,2.41,2.0,,18.205,18.89,
2025-08-15T01:21:03.060Z,17,GR86-004-78,11.5,-0.487,-1.132,2.41,2.0,,16.115000000000002,16.94,
2025-08-15T01:21:03.103Z,17,GR86-004-78,12.0,-0.436,-1.195,2.41,2.0,6543.0,14.725,15.395,
2025-08-15T01:21:03.146Z,17,GR86-004-78,30.1,-0.444,-1.226,2.43,2.0,,12.5,13.275,124.7
2025-08-15T01:21:03.189Z,17,GR86-004-78,40.2,-0.404,-1.093,2.42,2.0,,11.78,12.53,
2025-08-15T01:21:03.275Z,17,GR86-004-78,48.3,-0.398,-1.113,2.42,2.0,,11.78,12.27,
2025-08-15T01:21:03.318Z,17,GR86-004-78,51.0,-0.407,-1.095,2.42,2.0,6376.0,11.935,12.53,
2025-08-15T01:21:03.361Z,17,GR86-004-78,56.6,-0.392,-1.143,2.44,2.0,,12.59,13.14,120.56
2025-08-15T01:21:03.404Z,17,GR86-004-78,66.4,-0.351,-1.08,2.43,2.0,,12.805,13.37,
2025-08-15T01:21:03.447Z,17,GR86-004-78,91.9,-0.421,-1.048,2.44,2.0,,13.08,13.58,
2025-08-15T01:21:03.490Z,17,GR86-004-78,112.8,-0.414,-0.857,2.46,2.0,,12.5,13.2,
2025-08-15T01:21:03.533Z,17,GR86-004-78,119.3,-0.394,-0.6920000000000001,2.46,2.0,6148.0,11.035,11.81,
2025-08-15T01:21:03.576Z,17,GR86-004-78,113.9,-0.403,-0.5740000000000001,2.46,2.0,,9.43,9.875,117.19
2025-08-15T01:21:03.619Z,17,GR86-004-78,92.7,-0.363,-0.668,2.45,2.0,,6.575,7.295,
2025-08-15T01:21:03.662Z,17,GR86-004-78,58.5,-0.343,-0.8130000000000001,2.48,2.0,,3.035,3.585,
2025-08-15T01:21:03.705Z,17,GR86-004-78,23.1,-0.245,-1.023,2.49,2.0,,0.0,0.0,
2025-08-15T01:21:03.748Z,17,GR86-004-78,-28.5,-0.204,-1.125,2.49,2.0,5965.0,0.0,0.0,
2025-08-15T01:21:03.791Z,17,GR86-004-78,-54.5,-0.245,-1.105,2.48,2.0,,0.0,0.0,113.99
2025-08-15T01:21:03.834Z,17,GR86-004-78,-73.8,-0.243,-1.005,2.48,2.0,,0.0,0.0,
2025-08-15T01:21:03.877Z,17,GR86-004-78,-81.80000000000001,-0.258,-0.97,2.48,2.0,,0.0,0.0,
2025-08-15T01:21:03.922Z,17,GR86-004-78,-81.7,-0.269,-0.98,2.48,2.0,,0.0,0.0,
2025-08-15T01:21:03.965Z,17,GR86-004-78,-79.60000000000001,-0.254,-1.052,2.48,2.0,5886.0,0.0,0.0,
2025-08-15T01:21:04.008Z,17,GR86-004-78,-75.7,-0.238,-1.146,2.48,2.0,,0.0,0.0,109.94
2025-08-15T01:21:04.051Z,17,GR86-004-78,-65.4,-0.217,-1.231,2.49,2.0,,0.0,0.0,
2025-08-15T01:21:04.094Z,17,GR86-004-78,-51.900000000000006,-0.208,-1.26,2.48,2.0,,0.0,0.0,
2025-08-15T01:21:04.137Z,17,GR86-004-78,-38.400000000000006,-0.19,-1.287,2.48,2.0,,0.0,0.0,
2025-08-15T01:21:04.180Z,17,GR86-004-78,-25.8,-0.153,-1.261,2.48,2.0,6009.0,0.0,0.0,
2025-08-15T01:21:04.223Z,17,GR86-004-78,-20.3,-0.147,-1.213,2.48,2.0,,0.0,0.0,107.6
2025-08-15T01:21:04.268Z,17,GR86-004-78,-12.2,-0.157,-1.266,2.5,2.0,,0.0,0.0,
2025-08-15T01:21:04.311Z,17,GR86-004-78,-2.7,-0.145,-1.247,2.48,2.0,,0.0,0.0,
2025-08-15T01:21:04.398Z,17,GR86-004-78,14.3,-0.126,-1.243,2.48,2.0,5929.0,0.0,0.0,
2025-08-15T01:21:04.441Z,17,GR86-004-78,30.700000000000003,-0.113,-1.109,2.49,2.0,,0.0,0.0,106.5
2025-08-15T01:21:04.484Z,17,GR86-004-78,20.3,-0.105,-1.09,2.51,2.0,,0.0,0.0,
2025-08-15T01:21:04.528Z,17,GR86-004-78,-13.3,-0.139,-1.267,5.0,2.0,,0.0,0.0,
2025-08-15T01:21:04.571Z,17,GR86-004-78,-27.1,-0.138,-1.269,20.06,2.0,,0.0,0.0,
2025-08-15T01:21:04.614Z,17,GR86-004-78,-25.200000000000003,-0.127,-1.284,20.7,2.0,5769.0,0.0,0.0,
2025-08-15T01:21:04.657Z,17,GR86-004-78,-14.6,-0.133,-1.247,21.58,2.0,,0.0,0.0,106.16
2025-08-15T01:21:04.700Z,17,GR86-004-78,-5.6000000000000005,-0.088,-1.202,24.4,2.0,,0.0,0.0,
2025-08-15T01:21:04.743Z,17,GR86-004-78,-10.4,-0.097,-1.235,28.21,2.0,,0.0,0.0,
2025-08-15T01:21:04.786Z,17,GR86-004-78,-37.5,-0.079,-1.275,40.9,2.0,,0.0,0.0,
2025-08-15T01:21:04.830Z,17,GR86-004-78,-45.7,-0.003,-1.266,63.9,2.0,5627.0,0.0,0.0,
2025-08-15T01:21:04.873Z,17,GR86-004-78,-45.1,0.113,-1.204,97.62,2.0,,0.0,0.0,101.72
2025-08-15T01:21:04.916Z,17,GR86-004-78,-39.2,0.152,-1.226,99.6,2.0,,0.0,0.0,
2025-08-15T01:21:04.959Z,17,GR86-004-78,-35.1,0.224,-1.143,99.58,2.0,,0.0,0.0,
2025-08-15T01:21:05.047Z,17,GR86-004-78,-19.700000000000003,0.239,-1.183,99.59,2.0,5573.0,0.0,0.0,
2025-08-15T01:21:05.090Z,17,GR86-004-78,-3.4000000000000004,0.22,-1.284,99.58,2.0,,0.0,0.0,99.95
2025-08-15T01:21:05.133Z,17,GR86-004-78,13.6,0.256,-1.197,99.58,2.0,,0.0,0.0,
2025-08-15T01:21:05.176Z,17,GR86-004-78,30.8,0.269,-1.181,99.58,2.0,,0.0,0.0,
2025-08-15T01:21:05.262Z,17,GR86-004-78,46.1,0.286,-1.054,99.59,2.0,5953.0,0.0,0.0,
2025-08-15T01:21:05.305Z,17,GR86-004-78,53.0,0.268,-1.054,99.59,2.0,,0.0,0.0,98.78
2025-08-15T01:21:05.348Z,17,GR86-004-78,61.7,0.285,-1.008,99.58,2.0,,0.0,0.0,
2025-08-15T01:21:05.391Z,17,GR86-004-78,67.10000000000001,0.298,-1.032,99.6,2.0,,0.0,0.0,
2025-08-15T01:21:05.521Z,17,GR86-004-78,79.9,0.339,-1.029,99.58,2.0,6152.0,0.0,0.0,100.23
2025-08-15T01:21:05.564Z,17,GR86-004-78,85.30000000000001,0.321,-0.947,99.6,2.0,,0.0,0.0,
2025-08-15T01:21:05.607Z,17,GR86-004-78,84.80000000000001,0.299,-0.857,99.6,2.0,,0.0,0.0,
2025-08-15T01:21:05.650Z,17,GR86-004-78,67.9,0.309,-0.888,99.6,2.0,,0.0,0.0,
2025-08-15T01:21:05.693Z,17,GR86-004-78,38.3,0.337,-1.008,99.58,2.0,6258.0,0.0,0.0,
2025-08-15T01:21:05.736Z,17,GR86-004-78,7.0,0.341,-1.138,99.59,2.0,,0.0,0.0,101.62
2025-08-15T01:21:05.779Z,17,GR86-004-78,-29.700000000000003,0.296,-1.218,99.61,2.0,,0.0,0.0,
2025-08-15T01:21:05.822Z,17,GR86-004-78,-42.400000000000006,0.243,-1.265,99.58,2.0,,0.0,0.0,
2025-08-15T01:21:05.865Z,17,GR86-004-78,-44.8,0.211,-1.221,99.59,2.0,,0.0,0.0,
2025-08-15T01:21:05.908Z,17,GR86-004-78,-36.2,0.29,-1.199,99.6,2.0,6282.0,0.0,0.0,
2025-08-15T01:21:05.951Z,17,GR86-004-78,-28.700000000000003,0.306,-1.161,99.59,2.0,,0.0,0.0,101.93
2025-08-15T01:21:05.994Z,17,GR86-004-78,-24.5,0.302,-1.084,99.58,2.0,,0.0,0.0,
2025-08-15T01:21:06.037Z,17,GR86-004-78,-24.1,0.243,-1.049,99.58,2.0,,0.0,0.0,
2025-08-15T01:21:06.080Z,17,GR86-004-78,-25.8,0.23,-1.021,99.6,2.0,,0.0,0.0,
2025-08-15T01:21:06.123Z,17,GR86-004-78,-27.4,0.239,-1.035,99.6,2.0,6249.0,0.0,0.0,
2025-08-15T01:21:06.168Z,17,GR86-004-78,-30.6,0.258,-1.012,99.61,2.0,,0.0,0.0,102.62
2025-08-15T01:21:06.211Z,17,GR86-004-78,-32.6,0.243,-0.999,99.61,2.0,,0.0,0.0,
2025-08-15T01:21:06.254Z,17,GR86-004-78,-33.4,0.244,-1.004,99.59,2.0,,0.0,0.0,
2025-08-15T01:21:06.297Z,17,GR86-004-78,-33.2,0.205,-1.017,99.59,2.0,,0.0,0.0,
2025-08-15T01:21:06.340Z,17,GR86-004-78,-31.6,0.234,-1.035,99.6,2.0,6149.0,0.0,0.0,
2025-08-15T01:21:06.383Z,17,GR86-004-78,-28.700000000000003,0.23,-1.002,99.59,2.0,,0.0,0.0,103.44
2025-08-15T01:21:06.426Z,17,GR86-004-78,-27.0,0.234,-1.027,99.61,2.0,,0.0,0.0,
2025-08-15T01:21:06.470Z,17,GR86-004-78,-25.9,0.24,-0.978,99.58,2.0,,0.0,0.0,
2025-08-15T01:21:06.513Z,17,GR86-004-78,-23.9,0.212,-0.973,99.62,2.0,,0.0,0.0,
2025-08-15T01:21:06.556Z,17,GR86-004-78,-21.6,0.213,-1.015,99.61,2.0,6229.0,0.0,0.0,
2025-08-15T01:21:06.599Z,17,GR86-004-78,-20.1,0.257,-1.026,99.58,2.0,,0.0,0.0,105.57
2025-08-15T01:21:06.642Z,17,GR86-004-78,-19.6,0.265,-1.02,99.6,2.0,,0.0,0.0,
2025-08-15T01:21:06.685Z,17,GR86-004-78,-19.6,0.268,-1.017,99.6,2.0,,0.0,0.0,
2025-08-15T01:21:06.728Z,17,GR86-004-78,-19.6,0.25,-0.966,99.63,2.0,,0.0,0.0,
2025-08-15T01:21:06.771Z,17,GR86-004-78,-19.6,0.243,-0.899,99.62,2.0,6321.0,0.0,0.0,
2025-08-15T01:21:06.814Z,17,GR86-004-78,-19.6,0.235,-0.879,99.62,2.0,,0.0,0.0,108.29
2025-08-15T01:21:06.857Z,17,GR86-004-78,-19.6,0.243,-0.835,99.61,2.0,,0.0,0.0,
2025-08-15T01:21:06.900Z,17,GR86-004-78,-19.6,0.254,-0.8290000000000001,99.61,2.0,,0.0,0.0,
2025-08-15T01:21:06.943Z,17,GR86-004-78,-19.5,0.264,-0.8290000000000001,99.59,2.0,,0.0,0.0,
2025-08-15T01:21:06.986Z,17,GR86-004-78,-19.200000000000003,0.22,-0.782,99.61,2.0,6414.0,0.0,0.0,
2025-08-15T01:21:07.029Z,17,GR86-004-78,-19.0,0.214,-0.728,99.63,2.0,,0.0,0.0,109.94
2025-08-15T01:21:07.072Z,17,GR86-004-78,-19.0,0.203,-0.668,99.63,2.0,,0.0,0.0,
2025-08-15T01:21:07.115Z,17,GR86-004-78,-19.1,0.197,-0.6950000000000001,99.62,2.0,,0.0,0.0,
2025-08-15T01:21:07.158Z,17,GR86-004-78,-19.1,0.293,-0.6890000000000001,99.6,2.0,,0.0,0.0,
2025-08-15T01:21:07.201Z,17,GR86-004-78,-19.3,0.316,-0.501,99.59,2.0,6489.0,0.0,0.0,
2025-08-15T01:21:07.245Z,17,GR86-004-78,-19.5,0.329,-0.488,99.64,2.0,,0.0,0.0,110.44
2025-08-15T01:21:07.288Z,17,GR86-004-78,-19.4,0.133,-0.349,99.61,2.0,,0.0,0.0,
2025-08-15T01:21:07.331Z,17,GR86-004-78,-19.1,0.117,-0.41,99.62,2.0,,0.0,0.0,
2025-08-15T01:21:07.374Z,17,GR86-004-78,-18.6,0.161,-0.5650000000000001,99.62,2.0,,0.0,0.0,
2025-08-15T01:21:07.417Z,17,GR86-004-78,-17.6,0.23,-0.581,99.63,2.0,6562.0,0.0,0.0,
2025-08-15T01:21:07.460Z,17,GR86-004-78,-15.7,0.229,-0.781,99.62,2.0,,0.0,0.0,112.19
2025-08-15T01:21:07.503Z,17,GR86-004-78,-13.4,0.257,-0.728,99.64,2.0,,0.0,0.0,
2025-08-15T01:21:07.546Z,17,GR86-004-78,-7.1000000000000005,0.248,-0.811,99.62,2.0,,0.0,0.0,
2025-08-15T01:21:07.591Z,17,GR86-004-78,-3.2,0.236,-0.719,99.61,2.0,,0.0,0.0,
2025-08-15T01:21:07.634Z,17,GR86-004-78,-1.8,0.256,-0.709,99.62,2.0,6650.0,0.0,0.0,
2025-08-15T01:21:07.678Z,17,GR86-004-78,-1.6,0.265,-0.584,99.63,2.0,,0.0,0.0,115.34
2025-08-15T01:21:07.721Z,17,GR86-004-78,-1.5,0.252,-0.522,99.6,2.0,,0.0,0.0,
2025-08-15T01:21:07.764Z,17,GR86-004-78,-1.5,0.209,-0.423,99.6,2.0,,0.0,0.0,
2025-08-15T01:21:07.807Z,17,GR86-004-78,-1.5,0.286,-0.371,99.62,2.0,,0.0,0.0,
2025-08-15T01:21:07.850Z,17,GR86-004-78,-1.4,0.276,-0.26,99.58,2.0,6799.0,0.0,0.0,
2025-08-15T01:21:07.893Z,17,GR86-004-78,-1.3,0.276,-0.321,99.59,2.0,,0.0,0.0,117.03
2025-08-15T01:21:07.936Z,17,GR86-004-78,-0.9,0.262,-0.176,99.6,2.0,,0.0,0.0,
2025-08-15T01:21:07.980Z,17,GR86-004-78,-0.7000000000000001,0.289,-0.188,99.59,2.0,,0.0,0.0,
2025-08-15T01:21:08.023Z,17,GR86-004-78,-0.5,0.345,-0.211,99.6,2.0,,0.0,0.0,
2025-08-15T01:21:08.068Z,17,GR86-004-78,-0.5,0.184,-0.067,99.63,2.0,6938.0,0.0,0.0,
2025-08-15T01:21:08.111Z,17,GR86-004-78,-0.2,0.11,0.015,99.63,2.0,,0.0,0.0,118.83
2025-08-15T01:21:08.154Z,17,GR86-004-78,0.8,0.085,-0.017,99.61,2.0,,0.0,0.0,
2025-08-15T01:21:08.197Z,17,GR86-004-78,1.5,0.178,-0.034,99.62,2.0,,0.0,0.0,
2025-08-15T01:21:08.240Z,17,GR86-004-78,1.9,0.222,-0.065,99.61,2.0,,0.0,0.0,
2025-08-15T01:21:08.283Z,17,GR86-004-78,2.0,0.156,-0.026,99.62,2.0,7023.0,0.0,0.0,
2025-08-15T01:21:08.326Z,17,GR86-004-78,2.1,0.287,-0.037,99.64,2.0,,0.0,0.0,120.48
2025-08-15T01:21:08.369Z,17,GR86-004-78,2.1,0.036,-0.123,99.64,3.0,,0.0,0.0,
2025-08-15T01:21:08.412Z,17,GR86-004-78,2.2,-0.017,0.023,99.62,3.0,,0.0,0.0,
2025-08-15T01:21:08.455Z,17,GR86-004-78,2.2,0.521,-0.065,99.63,3.0,,0.0,0.0,
2025-08-15T01:21:08.498Z,17,GR86-004-78,2.2,0.211,-0.11,99.63,3.0,7095.0,0.0,0.0,
2025-08-15T01:21:08.541Z,17,GR86-004-78,2.2,0.403,0.025,99.62,3.0,,0.0,0.0,122.13
2025-08-15T01:21:08.584Z,17,GR86-004-78,2.2,0.246,-0.059,99.62,3.0,,0.0,0.0,
2025-08-15T01:21:08.627Z,17,GR86-004-78,2.2,0.121,-0.065,99.62,3.0,,0.0,0.0,
2025-08-15T01:21:08.670Z,17,GR86-004-78,2.2,0.153,-0.068,99.63,3.0,,0.0,0.0,
2025-08-15T01:21:08.713Z,17,GR86-004-78,2.3000000000000003,0.231,-0.103,99.63,3.0,6295.0,0.0,0.0,
2025-08-15T01:21:08.756Z,17,GR86-004-78,2.6,0.248,-0.055,99.62,3.0,,0.0,0.0,123.77
2025-08-15T01:21:08.799Z,17,GR86-004-78,2.9000000000000004,0.203,-0.081,99.62,3.0,,0.0,0.0,
2025-08-15T01:21:08.842Z,17,GR86-004-78,2.9000000000000004,0.169,-0.106,99.62,3.0,,0.0,0.0,
2025-08-15T01:21:08.886Z,17,GR86-004-78,2.9000000000000004,0.198,-0.066,99.62,3.0,,0.0,0.0,
2025-08-15T01:21:08.929Z,17,GR86-004-78,2.9000000000000004,0.218,-0.046,99.62,3.0,5926.0,0.0,0.0,
2025-08-15T01:21:08.972Z,17,GR86-004-78,2.9000000000000004,0.207,-0.026,99.62,3.0,,0.0,0.0,125.39
2025-08-15T01:21:09.015Z,17,GR86-004-78,3.1,0.192,-0.056,99.61,3.0,,0.0,0.0,
2025-08-15T01:21:09.058Z,17,GR86-004-78,3.3000000000000003,0.2,-0.04,99.62,3.0,,0.0,0.0,
2025-08-15T01:21:09.101Z,17,GR86-004-78,3.5,0.198,-0.03,99.63,3.0,,0.0,0.0,
2025-08-15T01:21:09.145Z,17,GR86-004-78,3.7,0.21,-0.048,99.63,3.0,5972.0,0.0,0.0,
2025-08-15T01:21:09.188Z,17,GR86-004-78,3.8,0.21,-0.032,99.63,3.0,,0.0,0.0,127.12
2025-08-15T01:21:09.231Z,17,GR86-004-78,3.9,0.183,-0.029,99.61,3.0,,0.0,0.0,
2025-08-15T01:21:09.274Z,17,GR86-004-78,4.1000000000000005,0.198,-0.001,99.62,3.0,,0.0,0.0,
2025-08-15T01:21:09.317Z,17,GR86-004-78,4.2,0.198,0.012,99.61,3.0,,0.0,0.0,
2025-08-15T01:21:09.360Z,17,GR86-004-78,4.5,0.196,-0.012,99.62,3.0,6038.0,0.0,0.0,
2025-08-15T01:21:09.403Z,17,GR86-004-78,4.6000000000000005,0.2,-0.013,99.62,3.0,,0.0,0.0,128.44
2025-08-15T01:21:09.446Z,17,GR86-004-78,4.7,0.19,0.0,99.63,3.0,,0.0,0.0,
2025-08-15T01:21:09.489Z,17,GR86-004-78,4.7,0.179,0.008,99.63,3.0,,0.0,0.0,
2025-08-15T01:21:09.532Z,17,GR86-004-78,4.9,0.204,0.009,99.62,3.0,,0.0,0.0,
2025-08-15T01:21:09.575Z,17,GR86-004-78,4.9,0.189,-0.013,99.64,3.0,6091.0,0.0,0.0,
2025-08-15T01:21:09.618Z,17,GR86-004-78,4.9,0.2,-0.004,99.62,3.0,,0.0,0.0,129.88
2025-08-15T01:21:09.661Z,17,GR86-004-78,4.9,0.191,0.021,99.61,3.0,,0.0,0.0,
2025-08-15T01:21:09.704Z,17,GR86-004-78,5.0,0.199,0.015,99.62,3.0,,0.0,0.0,
2025-08-15T01:21:09.747Z,17,GR86-004-78,5.0,0.209,0.006,99.62,3.0,,0.0,0.0,
2025-08-15T01:21:09.790Z,17,GR86-004-78,5.0,0.206,-0.002,99.62,3.0,6151.0,0.0,0.0,
2025-08-15T01:21:09.833Z,17,GR86-004-78,5.0,0.183,-0.019,99.62,3.0,,0.0,0.0,131.3
2025-08-15T01:21:09.876Z,17,GR86-004-78,5.0,0.19,0.008,99.62,3.0,,0.0,0.0,
2025-08-15T01:21:09.920Z,17,GR86-004-78,5.0,0.206,-0.013,99.62,3.0,,0.0,0.0,
2025-08-15T01:21:09.963Z,17,GR86-004-78,5.0,0.194,-0.031,99.64,3.0,,0.0,0.0,
2025-08-15T01:21:10.006Z,17,GR86-004-78,5.0,0.201,-0.022,99.64,3.0,6214.0,0.0,0.0,
2025-08-15T01:21:10.049Z,17,GR86-004-78,5.0,0.167,-0.028,99.61,3.0,,0.0,0.0,132.68
2025-08-15T01:21:10.092Z,17,GR86-004-78,5.0,0.177,-0.015,99.62,3.0,,0.0,0.0,
2025-08-15T01:21:10.135Z,17,GR86-004-78,5.0,0.215,0.004,99.61,3.0,,0.0,0.0,
2025-08-15T01:21:10.178Z,17,GR86-004-78,5.0,0.213,-0.005,99.63,3.0,,0.0,0.0,
2025-08-15T01:21:10.221Z,17,GR86-004-78,5.0,0.152,-0.036,99.61,3.0,6275.0,0.0,0.0,
2025-08-15T01:21:10.264Z,17,GR86-004-78,5.1000000000000005,0.171,-0.012,99.63,3.0,,0.0,0.0,133.98
2025-08-15T01:21:10.307Z,17,GR86-004-78,5.2,0.181,-0.034,99.63,3.0,,0.0,0.0,
2025-08-15T01:21:10.350Z,17,GR86-004-78,5.2,0.205,-0.013,99.61,3.0,,0.0,0.0,
2025-08-15T01:21:10.393Z,17,GR86-004-78,5.2,0.214,-0.018,99.63,3.0,,0.0,0.0,
2025-08-15T01:21:10.436Z,17,GR86-004-78,5.2,0.181,-0.041,99.62,3.0,6350.0,0.0,0.0,
2025-08-15T01:21:10.479Z,17,GR86-004-78,5.2,0.15,-0.053,99.63,3.0,,0.0,0.0,136.62
2025-08-15T01:21:10.522Z,17,GR86-004-78,5.2,0.183,-0.034,99.63,3.0,,0.0,0.0,
2025-08-15T01:21:10.565Z,17,GR86-004-78,5.2,0.218,-0.026,99.63,3.0,,0.0,0.0,
2025-08-15T01:21:10.608Z,17,GR86-004-78,5.2,0.203,-0.036,99.62,3.0,,0.0,0.0,
2025-08-15T01:21:10.651Z,17,GR86-004-78,5.2,0.209,-0.027,99.62,3.0,6415.0,0.0,0.0,
2025-08-15T01:21:10.694Z,17,GR86-004-78,5.2,0.169,-0.05,99.63,3.0,,0.0,0.0,137.94
2025-08-15T01:21:10.737Z,17,GR86-004-78,5.2,0.157,-0.051,99.63,3.0,,0.0,0.0,
2025-08-15T01:21:10.780Z,17,GR86-004-78,5.2,0.2,-0.033,99.62,3.0,,0.0,0.0,
2025-08-15T01:21:10.823Z,17,GR86-004-78,5.2,0.218,-0.039,99.62,3.0,,0.0,0.0,
2025-08-15T01:21:10.868Z,17,GR86-004-78,5.300000000000001,0.187,-0.033,99.61,3.0,6519.0,0.0,0.0,
2025-08-15T01:21:10.911Z,17,GR86-004-78,5.300000000000001,0.208,-0.022,99.62,3.0,,0.0,0.0,139.34
2025-08-15T01:21:10.954Z,17,GR86-004-78,5.300000000000001,0.182,-0.033,99.63,3.0,,0.0,0.0,
2025-08-15T01:21:10.998Z,17,GR86-004-78,5.300000000000001,0.169,-0.036,99.63,3.0,,0.0,0.0,
2025-08-15T01:21:11.041Z,17,GR86-004-78,5.300000000000001,0.177,-0.023,99.63,3.0,,0.0,0.0,
2025-08-15T01:21:11.084Z,17,GR86-004-78,5.300000000000001,0.197,-0.007,99.62,3.0,6578.0,0.0,0.0,
2025-08-15T01:21:11.128Z,17,GR86-004-78,5.300000000000001,0.184,-0.013,99.64,3.0,,0.0,0.0,140.6
2025-08-15T01:21:11.171Z,17,GR86-004-78,5.300000000000001,0.211,-0.005,99.63,3.0,,0.0,0.0,
2025-08-15T01:21:11.214Z,17,GR86-004-78,5.300000000000001,0.191,-0.022,99.63,3.0,,0.0,0.0,
2025-08-15T01:21:11.257Z,17,GR86-004-78,5.300000000000001,0.158,-0.034,99.63,3.0,,0.0,0.0,
2025-08-15T01:21:11.300Z,17,GR86-004-78,5.300000000000001,0.156,-0.018,99.62,3.0,6639.0,0.0,0.0,
2025-08-15T01:21:11.343Z,17,GR86-004-78,5.300000000000001,0.185,0.009,99.62,3.0,,0.0,0.0,141.83
2025-08-15T01:21:11.386Z,17,GR86-004-78,5.300000000000001,0.172,-0.021,99.62,3.0,,0.0,0.0,
2025-08-15T01:21:11.430Z,17,GR86-004-78,5.300000000000001,0.187,0.002,99.64,3.0,,0.0,0.0,
2025-08-15T01:21:11.473Z,17,GR86-004-78,5.300000000000001,0.199,0.002,99.63,3.0,,0.0,0.0,
2025-08-15T01:21:11.516Z,17,GR86-004-78,5.300000000000001,0.176,-0.005,99.62,3.0,6697.0,0.0,0.0,
2025-08-15T01:21:11.559Z,17,GR86-004-78,5.300000000000001,0.148,-0.011,99.62,3.0,,0.0,0.0,143.05
2025-08-15T01:21:11.602Z,17,GR86-004-78,5.300000000000001,0.166,0.0,99.64,3.0,,0.0,0.0,
2025-08-15T01:21:11.645Z,17,GR86-004-78,5.300000000000001,0.181,0.003,99.62,3.0,,0.0,0.0,
2025-08-15T01:21:11.688Z,17,GR86-004-78,5.300000000000001,0.165,-0.004,99.63,3.0,,0.0,0.0,
2025-08-15T01:21:11.731Z,17,GR86-004-78,5.300000000000001,0.176,0.012,99.62,3.0,6751.0,0.0,0.0,
2025-08-15T01:21:11.774Z,17,GR86-004-78,5.4,0.192,0.015,99.64,3.0,,0.0,0.0,144.23
2025-08-15T01:21:11.817Z,17,GR86-004-78,5.4,0.181,-0.006,99.62,3.0,,0.0,0.0,
2025-08-15T01:21:11.860Z,17,GR86-004-78,5.4,0.158,-0.004,99.61,3.0,,0.0,0.0,
2025-08-15T01:21:11.903Z,17,GR86-004-78,5.4,0.168,0.012,99.62,3.0,,0.0,0.0,
2025-08-15T01:21:11.947Z,17,GR86-004-78,5.4,0.162,0.003,99.61,3.0,6802.0,0.0,0.0,
2025-08-15T01:21:11.990Z,17,GR86-004-78,5.4,0.156,0.022,99.63,3.0,,0.0,0.0,145.39
2025-08-15T01:21:12.033Z,17,GR86-004-78,5.4,0.18,0.041,99.62,3.0,,0.0,0.0,
2025-08-15T01:21:12.076Z,17,GR86-004-78,5.4,0.18,0.036,99.62,3.0,,0.0,0.0,
2025-08-15T01:21:12.120Z,17,GR86-004-78,5.5,0.168,0.023,99.63,3.0,,0.0,0.0,
2025-08-15T01:21:12.163Z,17,GR86-004-78,5.5,0.167,0.01,99.62,3.0,6854.0,0.0,0.0,
2025-08-15T01:21:12.206Z,17,GR86-004-78,5.5,0.185,0.014,99.62,3.0,,0.0,0.0,146.48
2025-08-15T01:21:12.249Z,17,GR86-004-78,5.5,0.159,0.004,99.62,3.0,,0.0,0.0,
2025-08-15T01:21:12.335Z,17,GR86-004-78,5.5,0.162,0.017,99.61,3.0,,0.0,0.0,
2025-08-15T01:21:12.378Z,17,GR86-004-78,5.5,0.172,0.02,99.62,3.0,6909.0,0.0,0.0,
2025-08-15T01:21:12.422Z,17,GR86-004-78,5.5,0.181,0.009,99.63,3.0,,0.0,0.0,147.6
2025-08-15T01:21:12.465Z,17,GR86-004-78,5.5,0.17,0.003,99.61,3.0,,0.0,0.0,
2025-08-15T01:21:12.551Z,17,GR86-004-78,5.5,0.176,0.022,99.62,3.0,,0.0,0.0,
2025-08-15T01:21:12.594Z,17,GR86-004-78,5.5,0.151,0.013,99.61,3.0,6965.0,0.0,0.0,
2025-08-15T01:21:12.637Z,17,GR86-004-78,5.5,0.164,0.019,99.62,3.0,,0.0,0.0,148.73
2025-08-15T01:21:12.680Z,17,GR86-004-78,5.6000000000000005,0.171,0.026,99.62,3.0,,0.0,0.0,
2025-08-15T01:21:12.723Z,17,GR86-004-78,5.6000000000000005,0.172,0.023,99.61,3.0,,0.0,0.0,
2025-08-15T01:21:12.767Z,17,GR86-004-78,5.6000000000000005,0.159,0.033,99.63,3.0,,0.0,0.0,
2025-08-15T01:21:12.811Z,17,GR86-004-78,5.6000000000000005,0.175,0.039,99.62,3.0,7014.0,0.0,0.0,
2025-08-15T01:21:12.854Z,17,GR86-004-78,5.6000000000000005,0.164,0.03,99.62,3.0,,0.0,0.0,149.87
2025-08-15T01:21:12.897Z,17,GR86-004-78,5.7,0.163,0.019,99.62,3.0,,0.0,0.0,
2025-08-15T01:21:12.940Z,17,GR86-004-78,5.7,0.165,0.012,99.63,3.0,,0.0,0.0,
2025-08-15T01:21:12.983Z,17,GR86-004-78,5.7,0.155,0.036,99.64,3.0,,0.0,0.0,
2025-08-15T01:21:13.026Z,17,GR86-004-78,5.7,0.161,0.021,99.61,3.0,7072.0,0.0,0.0,
2025-08-15T01:21:13.070Z,17,GR86-004-78,5.7,0.154,0.025,99.63,3.0,,0.0,0.0,152.16
2025-08-15T01:21:13.113Z,17,GR86-004-78,5.7,0.15,0.033,99.63,3.0,,0.0,0.0,
2025-08-15T01:21:13.156Z,17,GR86-004-78,5.7,0.164,0.03,99.63,3.0,,0.0,0.0,
2025-08-15T01:21:13.199Z,17,GR86-004-78,5.7,0.162,0.037,99.62,3.0,,0.0,0.0,
2025-08-15T01:21:13.242Z,17,GR86-004-78,5.7,0.17,0.016,99.62,3.0,7120.0,0.0,0.0,
2025-08-15T01:21:13.285Z,17,GR86-004-78,5.7,0.158,0.003,99.63,3.0,,0.0,0.0,153.26
2025-08-15T01:21:13.328Z,17,GR86-004-78,5.7,0.159,0.023,99.61,3.0,,0.0,0.0,
2025-08-15T01:21:13.371Z,17,GR86-004-78,5.7,0.162,0.011,99.63,3.0,,0.0,0.0,
2025-08-15T01:21:13.414Z,17,GR86-004-78,5.7,0.157,0.009,99.65,3.0,,0.0,0.0,
2025-08-15T01:21:13.457Z,17,GR86-004-78,5.7,0.151,0.0,99.62,3.0,7171.0,0.0,0.0,
2025-08-15T01:21:13.500Z,17,GR86-004-78,5.7,0.117,0.0,99.62,4.0,,0.0,0.0,154.37
2025-08-15T01:21:13.543Z,17,GR86-004-78,5.7,-0.162,0.037,99.63,4.0,,0.0,0.0,
2025-08-15T01:21:13.586Z,17,GR86-004-78,5.7,0.334,-0.022,99.63,4.0,,0.0,0.0,
2025-08-15T01:21:13.629Z,17,GR86-004-78,5.7,0.293,-0.046,99.63,4.0,,0.0,0.0,
2025-08-15T01:21:13.672Z,17,GR86-004-78,5.7,0.24,0.077,99.62,4.0,7268.0,0.0,0.0,
2025-08-15T01:21:13.715Z,17,GR86-004-78,5.7,0.06,-0.023,99.61,4.0,,0.0,0.0,155.52
2025-08-15T01:21:13.758Z,17,GR86-004-78,5.7,0.09,-0.002,99.61,4.0,,0.0,0.0,
2025-08-15T01:21:13.801Z,17,GR86-004-78,5.7,0.154,0.06,99.62,4.0,,0.0,0.0,
2025-08-15T01:21:13.844Z,17,GR86-004-78,5.7,0.171,-0.034,99.63,4.0,,0.0,0.0,
2025-08-15T01:21:13.887Z,17,GR86-004-78,5.7,0.128,0.046,99.62,4.0,6117.0,0.0,0.0,
2025-08-15T01:21:13.930Z,17,GR86-004-78,5.7,0.123,-0.018,99.63,4.0,,0.0,0.0,156.33
2025-08-15T01:21:13.973Z,17,GR86-004-78,5.7,0.15,-0.031,99.62,4.0,,0.0,0.0,
2025-08-15T01:21:14.016Z,17,GR86-004-78,5.7,0.136,-0.028,99.61,4.0,,0.0,0.0,
2025-08-15T01:21:14.059Z,17,GR86-004-78,5.7,0.118,-0.049,99.62,4.0,,0.0,0.0,
2025-08-15T01:21:14.102Z,17,GR86-004-78,5.7,0.123,-0.042,99.62,4.0,6175.0,0.0,0.0,
2025-08-15T01:21:14.145Z,17,GR86-004-78,5.7,0.137,-0.04,99.62,4.0,,0.0,0.0,157.51
2025-08-15T01:21:14.188Z,17,GR86-004-78,5.7,0.128,-0.063,99.63,4.0,,0.0,0.0,
2025-08-15T01:21:14.231Z,17,GR86-004-78,5.7,0.121,-0.056,99.62,4.0,,0.0,0.0,
2025-08-15T01:21:14.274Z,17,GR86-004-78,5.7,0.12,-0.034,99.62,4.0,,0.0,0.0,
2025-08-15T01:21:14.317Z,17,GR86-004-78,5.7,0.144,-0.042,99.63,4.0,6235.0,0.0,0.0,
2025-08-15T01:21:14.360Z,17,GR86-004-78,5.2,0.145,-0.044,99.62,4.0,,0.0,0.0,158.36
2025-08-15T01:21:14.403Z,17,GR86-004-78,5.0,0.153,-0.046,99.62,4.0,,0.0,0.0,
2025-08-15T01:21:14.446Z,17,GR86-004-78,5.0,0.129,-0.064,99.61,4.0,,0.0,0.0,
2025-08-15T01:21:14.491Z,17,GR86-004-78,5.0,0.139,-0.054,99.63,4.0,,0.0,0.0,
2025-08-15T01:21:14.534Z,17,GR86-004-78,5.0,0.15,-0.052,99.62,4.0,6269.0,0.0,0.0,
2025-08-15T01:21:14.578Z,17,GR86-004-78,5.0,0.14,-0.067,99.63,4.0,,0.0,0.0,159.38
2025-08-15T01:21:14.622Z,17,GR86-004-78,5.0,0.138,-0.085,99.62,4.0,,0.0,0.0,
2025-08-15T01:21:14.665Z,17,GR86-004-78,4.9,0.124,-0.102,99.62,4.0,,0.0,0.0,
2025-08-15T01:21:14.708Z,17,GR86-004-78,4.9,0.146,-0.079,99.63,4.0,,0.0,0.0,
2025-08-15T01:21:14.751Z,17,GR86-004-78,4.9,0.145,-0.086,99.63,4.0,6311.0,0.0,0.0,
2025-08-15T01:21:14.794Z,17,GR86-004-78,4.9,0.141,-0.103,99.62,4.0,,0.0,0.0,160.33
2025-08-15T01:21:14.837Z,17,GR86-004-78,4.9,0.132,-0.121,99.62,4.0,,0.0,0.0,
2025-08-15T01:21:14.880Z,17,GR86-004-78,4.9,0.112,-0.117,99.62,4.0,,0.0,0.0,
2025-08-15T01:21:14.923Z,17,GR86-004-78,4.9,0.116,-0.106,99.63,4.0,,0.0,0.0,
2025-08-15T01:21:14.967Z,17,GR86-004-78,4.9,0.146,-0.064,99.62,4.0,6345.0,0.0,0.0,
2025-08-15T01:21:15.011Z,17,GR86-004-78,4.3,0.114,-0.097,99.64,4.0,,0.0,0.0,161.29
2025-08-15T01:21:15.054Z,17,GR86-004-78,3.8,0.12,-0.097,99.63,4.0,,0.0,0.0,
2025-08-15T01:21:15.097Z,17,GR86-004-78,3.6,0.118,-0.112,99.62,4.0,,0.0,0.0,
2025-08-15T01:21:15.140Z,17,GR86-004-78,3.5,0.116,-0.118,99.63,4.0,,0.0,0.0,
2025-08-15T01:21:15.183Z,17,GR86-004-78,3.3000000000000003,0.112,-0.123,99.62,4.0,6383.0,0.0,0.0,
2025-08-15T01:21:15.226Z,17,GR86-004-78,3.1,0.119,-0.158,99.61,4.0,,0.0,0.0,162.29
2025-08-15T01:21:15.269Z,17,GR86-004-78,2.9000000000000004,0.111,-0.185,99.64,4.0,,0.0,0.0,
2025-08-15T01:21:15.312Z,17,GR86-004-78,2.9000000000000004,0.113,-0.204,99.63,4.0,,0.0,0.0,
2025-08-15T01:21:15.355Z,17,GR86-004-78,2.9000000000000004,0.107,-0.208,99.62,4.0,,0.0,0.0,
2025-08-15T01:21:15.398Z,17,GR86-004-78,2.9000000000000004,0.112,-0.212,99.62,4.0,6426.0,0.0,0.0,
2025-08-15T01:21:15.441Z,17,GR86-004-78,2.9000000000000004,0.123,-0.2,99.63,4.0,,0.0,0.0,163.24
2025-08-15T01:21:15.484Z,17,GR86-004-78,2.9000000000000004,0.127,-0.203,99.62,4.0,,0.0,0.0,
2025-08-15T01:21:15.527Z,17,GR86-004-78,2.9000000000000004,0.11,-0.213,99.64,4.0,,0.0,0.0,
2025-08-15T01:21:15.571Z,17,GR86-004-78,2.9000000000000004,0.105,-0.207,99.62,4.0,,0.0,0.0,
2025-08-15T01:21:15.614Z,17,GR86-004-78,2.9000000000000004,0.105,-0.191,99.62,4.0,6462.0,0.0,0.0,
2025-08-15T01:21:15.657Z,17,GR86-004-78,2.9000000000000004,0.115,-0.184,99.62,4.0,,0.0,0.0,164.21
2025-08-15T01:21:15.700Z,17,GR86-004-78,2.9000000000000004,0.121,-0.175,99.62,4.0,,0.0,0.0,
2025-08-15T01:21:15.743Z,17,GR86-004-78,2.9000000000000004,0.134,-0.169,99.63,4.0,,0.0,0.0,
2025-08-15T01:21:15.786Z,17,GR86-004-78,2.9000000000000004,0.106,-0.201,99.62,4.0,,0.0,0.0,
2025-08-15T01:21:15.829Z,17,GR86-004-78,2.9000000000000004,0.1,-0.19,99.62,4.0,6501.0,0.0,0.0,
2025-08-15T01:21:15.872Z,17,GR86-004-78,2.9000000000000004,0.109,-0.178,99.61,4.0,,0.0,0.0,166.13
2025-08-15T01:21:15.915Z,17,GR86-004-78,2.8000000000000003,0.103,-0.17,99.62,4.0,,0.0,0.0,
2025-08-15T01:21:15.958Z,17,GR86-004-78,2.7,0.115,-0.159,99.62,4.0,,0.0,0.0,
2025-08-15T01:21:16.002Z,17,GR86-004-78,2.7,0.133,-0.17,99.63,4.0,,0.0,0.0,
2025-08-15T01:21:16.045Z,17,GR86-004-78,2.7,0.129,-0.161,99.63,4.0,6536.0,0.0,0.0,
2025-08-15T01:21:16.088Z,17,GR86-004-78,2.7,0.099,-0.173,99.64,4.0,,0.0,0.0,167.09
2025-08-15T01:21:16.131Z,17,GR86-004-78,2.7,0.098,-0.17,99.62,4.0,,0.0,0.0,
2025-08-15T01:21:16.174Z,17,GR86-004-78,2.7,0.118,-0.154,99.62,4.0,,0.0,0.0,
2025-08-15T01:21:16.217Z,17,GR86-004-78,2.7,0.133,-0.166,99.61,4.0,,0.0,0.0,
2025-08-15T01:21:16.260Z,17,GR86-004-78,2.7,0.12,-0.177,99.62,4.0,6566.0,0.0,0.0,
2025-08-15T01:21:16.303Z,17,GR86-004-78,2.7,0.14,-0.179,99.62,4.0,,0.0,0.0,168.05
2025-08-15T01:21:16.346Z,17,GR86-004-78,2.7,0.112,-0.19,99.62,4.0,,0.0,0.0,
2025-08-15T01:21:16.389Z,17,GR86-004-78,2.7,0.103,-0.195,99.61,4.0,,0.0,0.0,
2025-08-15T01:21:16.432Z,17,GR86-004-78,2.7,0.115,-0.182,99.63,4.0,,0.0,0.0,
2025-08-15T01:21:16.477Z,17,GR86-004-78,2.7,0.118,-0.182,99.62,4.0,6638.0,0.0,0.0,
2025-08-15T01:21:16.520Z,17,GR86-004-78,2.7,0.119,-0.182,99.64,4.0,,0.0,0.0,168.89
2025-08-15T01:21:16.563Z,17,GR86-004-78,2.7,0.124,-0.182,99.62,4.0,,0.0,0.0,
2025-08-15T01:21:16.606Z,17,GR86-004-78,2.7,0.108,-0.184,99.62,4.0,,0.0,0.0,
2025-08-15T01:21:16.736Z,17,GR86-004-78,2.7,0.092,-0.151,99.61,4.0,6679.0,0.0,0.0,169.68
2025-08-15T01:21:16.779Z,17,GR86-004-78,2.7,0.112,-0.143,99.62,4.0,,0.0,0.0,
2025-08-15T01:21:16.822Z,17,GR86-004-78,2.7,0.12,-0.145,99.63,4.0,,0.0,0.0,
2025-08-15T01:21:16.865Z,17,GR86-004-78,2.7,0.109,-0.134,99.63,4.0,,0.0,0.0,
2025-08-15T01:21:16.908Z,17,GR86-004-78,2.7,0.111,-0.153,99.62,4.0,6706.0,0.0,0.0,
2025-08-15T01:21:16.951Z,17,GR86-004-78,2.7,0.101,-0.141,99.63,4.0,,0.0,0.0,170.67000000000002
2025-08-15T01:21:16.994Z,17,GR86-004-78,2.7,0.102,-0.124,99.62,4.0,,0.0,0.0,
2025-08-15T01:21:17.037Z,17,GR86-004-78,2.7,0.102,-0.086,99.64,4.0,,0.0,0.0,
2025-08-15T01:21:17.123Z,17,GR86-004-78,2.8000000000000003,0.106,-0.075,99.64,4.0,6743.0,0.0,0.0,
2025-08-15T01:21:17.168Z,17,GR86-004-78,2.9000000000000004,0.115,-0.078,99.62,4.0,,0.0,0.0,171.63
2025-08-15T01:21:17.211Z,17,GR86-004-78,2.9000000000000004,0.111,-0.062,99.62,4.0,,0.0,0.0,
2025-08-15T01:21:17.254Z,17,GR86-004-78,2.9000000000000004,0.114,-0.073,99.61,4.0,,0.0,0.0,
2025-08-15T01:21:17.298Z,17,GR86-004-78,2.9000000000000004,0.097,-0.086,99.63,4.0,,0.0,0.0,
2025-08-15T01:21:17.384Z,17,GR86-004-78,2.9000000000000004,0.102,-0.091,99.63,4.0,6776.0,0.0,0.0,172.53
2025-08-15T01:21:17.428Z,17,GR86-004-78,2.9000000000000004,0.115,-0.113,99.63,4.0,,0.0,0.0,
2025-08-15T01:21:17.471Z,17,GR86-004-78,2.9000000000000004,0.104,-0.122,99.63,4.0,,0.0,0.0,
2025-08-15T01:21:17.514Z,17,GR86-004-78,2.9000000000000004,0.098,-0.133,99.62,4.0,,0.0,0.0,
2025-08-15T01:21:17.557Z,17,GR86-004-78,2.9000000000000004,0.112,-0.133,99.62,4.0,6814.0,0.0,0.0,
2025-08-15T01:21:17.643Z,17,GR86-004-78,2.9000000000000004,0.09,-0.13,99.63,4.0,,0.0,0.0,173.32
2025-08-15T01:21:17.686Z,17,GR86-004-78,2.9000000000000004,0.101,-0.1,99.63,4.0,,0.0,0.0,
2025-08-15T01:21:17.730Z,17,GR86-004-78,2.9000000000000004,0.094,-0.11,99.61,4.0,,0.0,0.0,
2025-08-15T01:21:17.773Z,17,GR86-004-78,2.9000000000000004,0.116,-0.113,99.62,4.0,6848.0,0.0,0.0,
2025-08-15T01:21:17.816Z,17,GR86-004-78,2.9000000000000004,0.107,-0.116,99.63,4.0,,0.0,0.0,174.17000000000002
2025-08-15T01:21:17.860Z,17,GR86-004-78,2.9000000000000004,0.101,-0.139,99.63,4.0,,0.0,0.0,
2025-08-15T01:21:17.903Z,17,GR86-004-78,2.9000000000000004,0.101,-0.154,99.59,4.0,,0.0,0.0,
2025-08-15T01:21:17.946Z,17,GR86-004-78,2.9000000000000004,0.097,-0.156,99.62,4.0,,0.0,0.0,
2025-08-15T01:21:17.989Z,17,GR86-004-78,2.9000000000000004,0.102,-0.15,99.62,4.0,6876.0,0.0,0.0,
2025-08-15T01:21:18.033Z,17,GR86-004-78,2.9000000000000004,0.108,-0.138,99.62,4.0,,0.0,0.0,175.13
2025-08-15T01:21:18.076Z,17,GR86-004-78,2.9000000000000004,0.094,-0.143,99.63,4.0,,0.0,0.0,
2025-08-15T01:21:18.120Z,17,GR86-004-78,2.9000000000000004,0.11,-0.146,99.62,4.0,,0.0,0.0,
2025-08-15T01:21:18.163Z,17,GR86-004-78,2.9000000000000004,0.108,-0.14,99.61,4.0,,0.0,0.0,
2025-08-15T01:21:18.206Z,17,GR86-004-78,2.8000000000000003,0.096,-0.156,99.62,4.0,6906.0,0.0,0.0,
2025-08-15T01:21:18.250Z,17,GR86-004-78,2.9000000000000004,0.1,-0.186,99.62,4.0,,0.0,0.0,175.86
2025-08-15T01:21:18.293Z,17,GR86-004-78,2.9000000000000004,0.093,-0.197,99.63,4.0,,0.0,0.0,
2025-08-15T01:21:18.336Z,17,GR86-004-78,2.9000000000000004,0.108,-0.185,99.63,4.0,,0.0,0.0,
2025-08-15T01:21:18.379Z,17,GR86-004-78,2.9000000000000004,0.095,-0.176,99.62,4.0,,0.0,0.0,
2025-08-15T01:21:18.422Z,17,GR86-004-78,2.9000000000000004,0.095,-0.183,99.63,4.0,6945.0,0.0,0.0,
2025-08-15T01:21:18.468Z,17,GR86-004-78,2.9000000000000004,0.107,-0.16,99.62,4.0,,0.0,0.0,177.47
2025-08-15T01:21:18.511Z,17,GR86-004-78,2.9000000000000004,0.114,-0.15,99.6,4.0,,0.0,0.0,
2025-08-15T01:21:18.554Z,17,GR86-004-78,2.9000000000000004,0.097,-0.15,99.6,4.0,,0.0,0.0,
2025-08-15T01:21:18.597Z,17,GR86-004-78,2.9000000000000004,0.109,-0.139,99.62,4.0,,0.0,0.0,
2025-08-15T01:21:18.640Z,17,GR86-004-78,2.9000000000000004,0.102,-0.129,99.59,4.0,6981.0,0.0,0.0,
2025-08-15T01:21:18.683Z,17,GR86-004-78,2.9000000000000004,0.105,-0.122,99.61,4.0,,0.0,0.0,178.38
2025-08-15T01:21:18.726Z,17,GR86-004-78,2.9000000000000004,0.096,-0.118,99.63,4.0,,0.0,0.0,
2025-08-15T01:21:18.770Z,17,GR86-004-78,2.9000000000000004,0.092,-0.103,99.62,4.0,,0.0,0.0,
2025-08-15T01:21:18.813Z,17,GR86-004-78,2.9000000000000004,0.098,-0.088,99.62,4.0,,0.0,0.0,
2025-08-15T01:21:18.856Z,17,GR86-004-78,2.9000000000000004,0.091,-0.081,99.62,4.0,7004.0,0.0,0.0,
2025-08-15T01:21:18.942Z,17,GR86-004-78,2.9000000000000004,0.088,-0.085,99.61,4.0,,0.0,0.0,179.14
2025-08-15T01:21:18.985Z,17,GR86-004-78,2.9000000000000004,0.092,-0.079,99.61,4.0,,0.0,0.0,
2025-08-15T01:21:19.028Z,17,GR86-004-78,2.9000000000000004,0.078,-0.1,99.63,4.0,,0.0,0.0,
2025-08-15T01:21:19.071Z,17,GR86-004-78,2.9000000000000004,-0.175,-0.091,99.64,5.0,7066.0,0.0,0.0,
2025-08-15T01:21:19.114Z,17,GR86-004-78,2.9000000000000004,0.085,-0.042,99.62,5.0,,0.0,0.0,179.96
2025-08-15T01:21:19.157Z,17,GR86-004-78,3.0,0.209,-0.135,99.64,5.0,,0.0,0.0,
2025-08-15T01:21:19.200Z,17,GR86-004-78,3.0,0.194,-0.122,99.63,5.0,,0.0,0.0,
2025-08-15T01:21:19.243Z,17,GR86-004-78,3.0,0.026,-0.06,99.62,5.0,,0.0,0.0,
2025-08-15T01:21:19.286Z,17,GR86-004-78,3.1,0.068,-0.139,99.62,5.0,6784.0,0.0,0.0,
2025-08-15T01:21:19.329Z,17,GR86-004-78,3.1,0.115,-0.051,99.62,5.0,,0.0,0.0,180.69
2025-08-15T01:21:19.372Z,17,GR86-004-78,3.1,0.088,-0.098,99.63,5.0,,0.0,0.0,
2025-08-15T01:21:19.415Z,17,GR86-004-78,3.3000000000000003,0.047,-0.085,99.61,5.0,,0.0,0.0,
2025-08-15T01:21:19.458Z,17,GR86-004-78,3.4000000000000004,0.078,-0.037,99.62,5.0,,0.0,0.0,
2025-08-15T01:21:19.501Z,17,GR86-004-78,3.5,0.09,-0.072,99.63,5.0,6172.0,0.0,0.0,
2025-08-15T01:21:19.545Z,17,GR86-004-78,3.5,0.083,-0.026,99.63,5.0,,0.0,0.0,181.2
2025-08-15T01:21:19.588Z,17,GR86-004-78,3.7,0.088,-0.001,99.61,5.0,,0.0,0.0,
2025-08-15T01:21:19.631Z,17,GR86-004-78,4.0,0.073,0.021,99.63,5.0,,0.0,0.0,
2025-08-15T01:21:19.674Z,17,GR86-004-78,4.0,0.091,0.021,99.63,5.0,,0.0,0.0,
2025-08-15T01:21:19.717Z,17,GR86-004-78,4.1000000000000005,0.074,0.017,99.62,5.0,6201.0,0.0,0.0,
2025-08-15T01:21:19.760Z,17,GR86-004-78,4.1000000000000005,0.08,0.006,99.63,5.0,,0.0,0.0,182.1
2025-08-15T01:21:19.803Z,17,GR86-004-78,4.1000000000000005,0.086,0.02,99.63,5.0,,0.0,0.0,
2025-08-15T01:21:19.846Z,17,GR86-004-78,4.1000000000000005,0.081,0.026,99.61,5.0,,0.0,0.0,
2025-08-15T01:21:19.891Z,17,GR86-004-78,4.2,0.069,0.038,99.62,5.0,,0.0,0.0,
2025-08-15T01:21:19.934Z,17,GR86-004-78,4.1000000000000005,0.072,0.038,99.63,5.0,6216.0,0.0,0.0,
2025-08-15T01:21:20.021Z,17,GR86-004-78,4.2,0.074,0.042,99.62,5.0,,0.0,0.0,182.72
2025-08-15T01:21:20.064Z,17,GR86-004-78,4.2,0.065,0.032,99.62,5.0,,0.0,0.0,
2025-08-15T01:21:20.107Z,17,GR86-004-78,4.2,0.086,0.012,99.62,5.0,,0.0,0.0,
2025-08-15T01:21:20.150Z,17,GR86-004-78,4.2,0.09,0.007,99.64,5.0,6234.0,0.0,0.0,
2025-08-15T01:21:20.193Z,17,GR86-004-78,4.2,0.086,-0.013,99.62,5.0,,0.0,0.0,183.32
2025-08-15T01:21:20.237Z,17,GR86-004-78,4.2,0.08,-0.023,99.62,5.0,,0.0,0.0,
2025-08-15T01:21:20.280Z,17,GR86-004-78,4.2,0.086,-0.021,99.62,5.0,,0.0,0.0,
2025-08-15T01:21:20.323Z,17,GR86-004-78,4.2,0.081,-0.014,99.61,5.0,,0.0,0.0,
2025-08-15T01:21:20.367Z,17,GR86-004-78,4.2,0.068,-0.025,99.62,5.0,6258.0,0.0,0.0,
2025-08-15T01:21:20.411Z,17,GR86-004-78,4.2,0.071,-0.029,99.62,5.0,,0.0,0.0,184.02
2025-08-15T01:21:20.454Z,17,GR86-004-78,4.2,0.068,-0.03,99.63,5.0,,0.0,0.0,
2025-08-15T01:21:20.497Z,17,GR86-004-78,4.2,0.058,-0.017,99.62,5.0,,0.0,0.0,
2025-08-15T01:21:20.540Z,17,GR86-004-78,4.2,0.075,-0.031,99.62,5.0,,0.0,0.0,
2025-08-15T01:21:20.583Z,17,GR86-004-78,4.2,0.074,-0.039,99.63,5.0,6285.0,0.0,0.0,
2025-08-15T01:21:20.626Z,17,GR86-004-78,4.2,0.083,-0.041,99.63,5.0,,0.0,0.0,184.71
2025-08-15T01:21:20.669Z,17,GR86-004-78,4.2,0.084,-0.04,99.62,5.0,,0.0,0.0,
2025-08-15T01:21:20.712Z,17,GR86-004-78,4.2,0.079,-0.065,99.61,5.0,,0.0,0.0,
2025-08-15T01:21:20.755Z,17,GR86-004-78,4.2,0.086,-0.064,99.62,5.0,,0.0,0.0,
2025-08-15T01:21:20.798Z,17,GR86-004-78,4.3,0.082,-0.062,99.62,5.0,6299.0,0.0,0.0,
2025-08-15T01:21:20.841Z,17,GR86-004-78,4.3,0.077,-0.059,99.62,5.0,,0.0,0.0,185.45
2025-08-15T01:21:20.884Z,17,GR86-004-78,4.3,0.077,-0.049,99.62,5.0,,0.0,0.0,
2025-08-15T01:21:20.927Z,17,GR86-004-78,4.3,0.078,-0.06,99.63,5.0,,0.0,0.0,
2025-08-15T01:21:20.970Z,17,GR86-004-78,4.3,0.089,-0.053,99.62,5.0,,0.0,0.0,
2025-08-15T01:21:21.013Z,17,GR86-004-78,4.3,0.083,-0.043,99.62,5.0,6329.0,0.0,0.0,
2025-08-15T01:21:21.056Z,17,GR86-004-78,4.3,0.088,-0.04,99.62,5.0,,0.0,0.0,186.05
2025-08-15T01:21:21.099Z,17,GR86-004-78,4.3,0.084,-0.038,99.62,5.0,,0.0,0.0,
2025-08-15T01:21:21.142Z,17,GR86-004-78,4.3,0.096,-0.027,99.63,5.0,,0.0,0.0,
2025-08-15T01:21:21.185Z,17,GR86-004-78,4.3,0.079,-0.022,99.62,5.0,,0.0,0.0,
2025-08-15T01:21:21.228Z,17,GR86-004-78,4.3,0.074,-0.023,99.63,5.0,6343.0,0.0,0.0,
2025-08-15T01:21:21.271Z,17,GR86-004-78,4.4,0.073,-0.036,99.63,5.0,,0.0,0.0,187.34
2025-08-15T01:21:21.314Z,17,GR86-004-78,4.4,0.077,-0.043,99.61,5.0,,0.0,0.0,
2025-08-15T01:21:21.357Z,17,GR86-004-78,4.4,0.068,-0.041,99.62,5.0,,0.0,0.0,
2025-08-15T01:21:21.400Z,17,GR86-004-78,4.4,0.082,-0.036,99.64,5.0,,0.0,0.0,
2025-08-15T01:21:21.443Z,17,GR86-004-78,4.4,0.073,-0.027,99.63,5.0,6367.0,0.0,0.0,
2025-08-15T01:21:21.486Z,17,GR86-004-78,4.4,0.068,-0.009,99.62,5.0,,0.0,0.0,187.97
2025-08-15T01:21:21.530Z,17,GR86-004-78,4.4,0.071,-0.012,99.63,5.0,,0.0,0.0,
2025-08-15T01:21:21.573Z,17,GR86-004-78,4.4,0.07,-0.016,99.63,5.0,,0.0,0.0,
2025-08-15T01:21:21.616Z,17,GR86-004-78,4.4,0.059,-0.024,99.62,5.0,,0.0,0.0,
2025-08-15T01:21:21.659Z,17,GR86-004-78,4.5,0.074,-0.027,99.63,5.0,6394.0,0.0,0.0,
2025-08-15T01:21:21.702Z,17,GR86-004-78,4.5,0.068,-0.038,99.61,5.0,,0.0,0.0,188.7
2025-08-15T01:21:21.745Z,17,GR86-004-78,4.5,0.074,-0.047,99.62,5.0,,0.0,0.0,
2025-08-15T01:21:21.788Z,17,GR86-004-78,4.5,0.069,-0.033,99.62,5.0,,0.0,0.0,
2025-08-15T01:21:21.831Z,17,GR86-004-78,4.5,0.078,-0.033,99.62,5.0,,0.0,0.0,
2025-08-15T01:21:21.874Z,17,GR86-004-78,4.5,0.08,-0.03,99.62,5.0,6445.0,0.0,0.0,
2025-08-15T01:21:21.917Z,17,GR86-004-78,4.5,0.074,-0.02,99.63,5.0,,0.0,0.0,189.19
2025-08-15T01:21:21.960Z,17,GR86-004-78,4.5,0.055,-0.003,99.61,5.0,,0.0,0.0,
2025-08-15T01:21:22.003Z,17,GR86-004-78,4.5,0.069,-0.009,99.63,5.0,,0.0,0.0,
2025-08-15T01:21:22.046Z,17,GR86-004-78,4.5,0.085,-0.014,99.64,5.0,,0.0,0.0,
2025-08-15T01:21:22.089Z,17,GR86-004-78,4.5,0.075,-0.026,99.63,5.0,6456.0,0.0,0.0,
2025-08-15T01:21:22.132Z,17,GR86-004-78,4.5,0.078,-0.031,99.62,5.0,,0.0,0.0,190.03
2025-08-15T01:21:22.175Z,17,GR86-004-78,4.5,0.074,-0.035,99.62,5.0,,0.0,0.0,
2025-08-15T01:21:22.218Z,17,GR86-004-78,4.5,0.077,-0.028,99.63,5.0,,0.0,0.0,
2025-08-15T01:21:22.261Z,17,GR86-004-78,4.5,0.078,-0.031,99.61,5.0,,0.0,0.0,
2025-08-15T01:21:22.304Z,17,GR86-004-78,4.5,0.061,-0.02,99.63,5.0,6481.0,0.0,0.0,
2025-08-15T01:21:22.347Z,17,GR86-004-78,4.6000000000000005,0.078,-0.028,99.63,5.0,,0.0,0.0,190.62
2025-08-15T01:21:22.390Z,17,GR86-004-78,4.6000000000000005,0.081,-0.011,99.62,5.0,,0.0,0.0,
2025-08-15T01:21:22.433Z,17,GR86-004-78,4.6000000000000005,0.064,-0.001,99.61,5.0,,0.0,0.0,
2025-08-15T01:21:22.477Z,17,GR86-004-78,4.6000000000000005,0.082,-0.019,99.62,5.0,,0.0,0.0,
2025-08-15T01:21:22.522Z,17,GR86-004-78,4.6000000000000005,0.073,-0.02,99.64,5.0,6499.0,0.0,0.0,
2025-08-15T01:21:22.565Z,17,GR86-004-78,4.6000000000000005,0.072,-0.005,99.62,5.0,,0.0,0.0,191.18
2025-08-15T01:21:22.608Z,17,GR86-004-78,4.6000000000000005,0.066,-0.005,99.62,5.0,,0.0,0.0,
2025-08-15T01:21:22.651Z,17,GR86-004-78,4.6000000000000005,0.069,-0.001,99.62,5.0,,0.0,0.0,
2025-08-15T01:21:22.694Z,17,GR86-004-78,4.6000000000000005,0.075,0.002,99.62,5.0,,0.0,0.0,
2025-08-15T01:21:22.737Z,17,GR86-004-78,4.6000000000000005,0.07,0.012,99.62,5.0,6518.0,0.0,0.0,
2025-08-15T01:21:22.780Z,17,GR86-004-78,4.6000000000000005,0.058,-0.001,99.62,5.0,,0.0,0.0,191.84
2025-08-15T01:21:22.823Z,17,GR86-004-78,4.6000000000000005,0.081,-0.012,99.62,5.0,,0.0,0.0,
2025-08-15T01:21:22.868Z,17,GR86-004-78,4.6000000000000005,0.075,-0.004,99.62,5.0,,0.0,0.0,
2025-08-15T01:21:22.911Z,17,GR86-004-78,4.6000000000000005,0.057,-0.003,99.62,5.0,,0.0,0.0,
2025-08-15T01:21:22.954Z,17,GR86-004-78,4.6000000000000005,0.059,0.006,99.62,5.0,6539.0,0.0,0.0,
2025-08-15T01:21:22.997Z,17,GR86-004-78,4.6000000000000005,0.064,-0.01,99.62,5.0,,2.67,2.825,192.47
2025-08-15T01:21:23.041Z,17,GR86-004-78,4.6000000000000005,0.047,-0.017,99.61,5.0,,0.0,0.0,
2025-08-15T01:21:23.084Z,17,GR86-004-78,4.6000000000000005,0.075,-0.01,99.63,5.0,,0.0,0.0,
2025-08-15T01:21:23.128Z,17,GR86-004-78,4.6000000000000005,0.075,0.005,99.62,5.0,,0.0,0.0,
2025-08-15T01:21:23.171Z,17,GR86-004-78,4.800000000000001,0.058,0.023,99.64,5.0,6560.0,0.0,0.0,
2025-08-15T01:21:23.214Z,17,GR86-004-78,4.9,0.068,0.012,99.63,5.0,,0.0,0.0,192.95
2025-08-15T01:21:23.257Z,17,GR86-004-78,4.9,0.061,0.02,99.62,5.0,,0.0,0.0,
2025-08-15T01:21:23.300Z,17,GR86-004-78,5.0,0.064,0.017,99.62,5.0,,0.0,0.0,
2025-08-15T01:21:23.343Z,17,GR86-004-78,5.0,0.068,0.032,99.62,5.0,,0.0,0.0,
2025-08-15T01:21:23.386Z,17,GR86-004-78,5.4,0.061,0.045,99.63,5.0,6581.0,0.0,0.0,
2025-08-15T01:21:23.430Z,17,GR86-004-78,5.5,0.066,0.051,99.62,5.0,,0.0,0.0,193.44
2025-08-15T01:21:23.473Z,17,GR86-004-78,5.5,0.075,0.038,99.62,5.0,,0.0,0.0,
2025-08-15T01:21:23.516Z,17,GR86-004-78,5.5,0.073,0.042,99.62,5.0,,0.0,0.0,
2025-08-15T01:21:23.559Z,17,GR86-004-78,5.6000000000000005,0.062,0.056,99.62,5.0,,0.0,0.0,
2025-08-15T01:21:23.602Z,17,GR86-004-78,6.0,0.065,0.059,99.62,5.0,6595.0,0.0,0.0,
2025-08-15T01:21:23.688Z,17,GR86-004-78,6.9,0.07,0.103,99.62,5.0,,0.0,0.0,194.01
2025-08-15T01:21:23.731Z,17,GR86-004-78,7.0,0.062,0.104,99.62,5.0,,0.0,0.0,
2025-08-15T01:21:23.774Z,17,GR86-004-78,7.0,0.063,0.107,99.61,5.0,,0.0,0.0,
2025-08-15T01:21:23.817Z,17,GR86-004-78,7.0,0.067,0.116,99.62,5.0,6622.0,0.0,0.0,
2025-08-15T01:21:23.860Z,17,GR86-004-78,7.0,0.055,0.115,99.62,5.0,,0.0,0.0,194.56
2025-08-15T01:21:23.903Z,17,GR86-004-78,7.0,0.062,0.119,99.62,5.0,,0.0,0.0,
2025-08-15T01:21:23.947Z,17,GR86-004-78,7.0,0.067,0.131,99.62,5.0,,0.0,0.0,
2025-08-15T01:21:23.990Z,17,GR86-004-78,7.1000000000000005,0.068,0.139,99.6,5.0,,0.0,0.0,
2025-08-15T01:21:24.033Z,17,GR86-004-78,7.1000000000000005,0.071,0.129,99.61,5.0,6636.0,0.0,0.0,
2025-08-15T01:21:24.076Z,17,GR86-004-78,7.1000000000000005,0.057,0.122,99.63,5.0,,0.0,0.0,195.75
2025-08-15T01:21:24.120Z,17,GR86-004-78,7.2,0.06,0.113,99.63,5.0,,0.0,0.0,
2025-08-15T01:21:24.163Z,17,GR86-004-78,7.300000000000001,0.059,0.131,99.63,5.0,,0.0,0.0,
2025-08-15T01:21:24.206Z,17,GR86-004-78,7.5,0.067,0.134,99.62,5.0,,0.0,0.0,
2025-08-15T01:21:24.249Z,17,GR86-004-78,7.800000000000001,0.06,0.14,99.61,5.0,6658.0,0.0,0.0,
2025-08-15T01:21:24.292Z,17,GR86-004-78,8.1,0.06,0.123,99.63,5.0,,0.0,0.0,196.41
2025-08-15T01:21:24.335Z,17,GR86-004-78,8.200000000000001,0.054,0.128,99.62,5.0,,0.0,0.0,
2025-08-15T01:21:24.378Z,17,GR86-004-78,8.3,0.05,0.137,99.63,5.0,,0.0,0.0,
2025-08-15T01:21:24.421Z,17,GR86-004-78,8.4,0.063,0.141,99.63,5.0,,0.0,0.0,
2025-08-15T01:21:24.464Z,17,GR86-004-78,8.6,0.053,0.146,99.63,5.0,6676.0,0.0,0.0,
2025-08-15T01:21:24.507Z,17,GR86-004-78,8.9,0.054,0.174,99.62,5.0,,0.0,0.0,197.05
2025-08-15T01:21:24.550Z,17,GR86-004-78,9.1,0.065,0.183,99.61,5.0,,0.0,0.0,
2025-08-15T01:21:24.594Z,17,GR86-004-78,9.6,0.044,0.191,99.61,5.0,,0.0,0.0,
2025-08-15T01:21:24.637Z,17,GR86-004-78,9.9,0.045,0.205,99.61,5.0,,0.0,0.0,
2025-08-15T01:21:24.680Z,17,GR86-004-78,10.0,0.048,0.219,99.61,5.0,6718.0,0.0,0.0,
2025-08-15T01:21:24.723Z,17,GR86-004-78,10.0,0.051,0.219,99.62,5.0,,0.0,0.0,197.57
2025-08-15T01:21:24.767Z,17,GR86-004-78,10.3,0.053,0.219,99.62,5.0,,0.0,0.0,
2025-08-15T01:21:24.811Z,17,GR86-004-78,10.7,0.039,0.237,99.63,5.0,,0.0,0.0,
2025-08-15T01:21:24.854Z,17,GR86-004-78,11.2,0.046,0.239,99.62,5.0,,0.0,0.0,
2025-08-15T01:21:24.897Z,17,GR86-004-78,11.6,0.054,0.266,99.63,5.0,6733.0,0.0,0.0,
2025-08-15T01:21:24.940Z,17,GR86-004-78,11.8,0.051,0.278,99.62,5.0,,0.0,0.0,198.15
2025-08-15T01:21:24.983Z,17,GR86-004-78,11.8,0.035,0.288,99.63,5.0,,0.0,0.0,
2025-08-15T01:21:25.026Z,17,GR86-004-78,11.9,0.041,0.294,99.61,5.0,,0.0,0.0,
2025-08-15T01:21:25.070Z,17,GR86-004-78,11.9,0.049,0.3,99.62,5.0,,0.0,0.0,
2025-08-15T01:21:25.113Z,17,GR86-004-78,11.9,0.043,0.313,99.62,5.0,6759.0,0.0,0.0,
2025-08-15T01:21:25.156Z,17,GR86-004-78,11.9,0.048,0.332,99.61,5.0,,0.0,0.0,198.69
2025-08-15T01:21:25.199Z,17,GR86-004-78,12.1,0.065,0.339,99.62,5.0,,0.0,0.0,
2025-08-15T01:21:25.242Z,17,GR86-004-78,12.4,0.049,0.347,99.61,5.0,,0.0,0.0,
2025-08-15T01:21:25.328Z,17,GR86-004-78,12.6,0.056,0.372,99.61,5.0,6769.0,0.0,0.0,
2025-08-15T01:21:25.371Z,17,GR86-004-78,12.6,0.051,0.402,99.62,5.0,,0.0,0.0,199.21
2025-08-15T01:21:25.414Z,17,GR86-004-78,12.6,0.066,0.406,99.62,5.0,,0.0,0.0,
2025-08-15T01:21:25.500Z,17,GR86-004-78,12.6,0.048,0.412,99.62,5.0,,0.0,0.0,
2025-08-15T01:21:25.543Z,17,GR86-004-78,12.6,0.054,0.412,99.62,5.0,6793.0,0.0,0.0,
2025-08-15T01:21:25.586Z,17,GR86-004-78,12.6,0.057,0.419,99.61,5.0,,0.0,0.0,199.59
2025-08-15T01:21:25.629Z,17,GR86-004-78,12.6,0.05,0.397,99.6,5.0,,0.0,0.0,
2025-08-15T01:21:25.672Z,17,GR86-004-78,12.6,0.054,0.4,99.62,5.0,,0.0,0.0,
2025-08-15T01:21:25.715Z,17,GR86-004-78,12.6,0.059,0.371,99.61,5.0,,0.0,0.0,
2025-08-15T01:21:25.758Z,17,GR86-004-78,12.6,0.046,0.359,99.61,5.0,6807.0,0.0,0.0,
2025-08-15T01:21:25.802Z,17,GR86-004-78,12.6,0.05,0.354,99.63,5.0,,0.0,0.0,200.07
2025-08-15T01:21:25.845Z,17,GR86-004-78,12.6,0.047,0.346,99.63,5.0,,0.0,0.0,
2025-08-15T01:21:25.888Z,17,GR86-004-78,12.6,0.06,0.332,99.62,5.0,,0.0,0.0,
2025-08-15T01:21:25.974Z,17,GR86-004-78,12.6,0.05,0.317,99.62,5.0,6819.0,5.74,6.21,
2025-08-15T01:21:26.060Z,17,GR86-004-78,12.6,-0.034,0.312,99.63,5.0,,4.47,4.805,200.64
2025-08-15T01:21:26.103Z,17,GR86-004-78,12.6,0.025,0.298,99.62,5.0,,0.0,0.0,
2025-08-15T01:21:26.191Z,17,GR86-004-78,12.6,0.06,0.29,99.62,5.0,6844.0,0.0,0.0,
2025-08-15T01:21:26.234Z,17,GR86-004-78,12.6,0.029,0.275,99.62,5.0,,0.0,0.0,201.02
2025-08-15T01:21:26.278Z,17,GR86-004-78,12.5,0.047,0.264,99.61,5.0,,0.0,0.0,
2025-08-15T01:21:26.322Z,17,GR86-004-78,12.5,0.043,0.253,99.61,5.0,,0.0,0.0,
2025-08-15T01:21:26.365Z,17,GR86-004-78,12.5,0.058,0.265,99.63,5.0,,0.0,0.0,
2025-08-15T01:21:26.408Z,17,GR86-004-78,12.5,0.048,0.271,99.62,5.0,6844.0,0.0,0.0,
2025-08-15T01:21:26.451Z,17,GR86-004-78,12.5,0.042,0.28,99.63,5.0,,0.0,0.0,201.5
2025-08-15T01:21:26.494Z,17,GR86-004-78,12.5,0.047,0.295,99.64,5.0,,0.0,0.0,
2025-08-15T01:21:26.537Z,17,GR86-004-78,12.5,0.044,0.303,99.63,5.0,,0.0,0.0,
2025-08-15T01:21:26.580Z,17,GR86-004-78,12.4,0.05,0.297,99.61,5.0,,0.0,0.0,
2025-08-15T01:21:26.623Z,17,GR86-004-78,12.4,0.045,0.278,99.59,5.0,6874.0,0.0,0.0,
2025-08-15T01:21:26.668Z,17,GR86-004-78,12.4,0.044,0.27,99.62,5.0,,0.0,0.0,202.4
2025-08-15T01:21:26.711Z,17,GR86-004-78,12.4,0.061,0.237,99.61,5.0,,0.0,0.0,
2025-08-15T01:21:26.754Z,17,GR86-004-78,12.3,0.039,0.213,99.62,5.0,,0.0,0.0,
2025-08-15T01:21:26.797Z,17,GR86-004-78,12.0,0.059,0.193,99.63,5.0,,0.0,0.0,
2025-08-15T01:21:26.840Z,17,GR86-004-78,11.2,0.056,0.207,99.61,5.0,6889.0,0.0,0.0,
2025-08-15T01:21:26.883Z,17,GR86-004-78,10.5,0.038,0.187,99.59,5.0,,0.0,0.0,203.26
2025-08-15T01:21:26.926Z,17,GR86-004-78,10.5,0.051,0.175,99.62,5.0,,0.0,0.0,
2025-08-15T01:21:26.969Z,17,GR86-004-78,10.5,0.045,0.167,99.62,5.0,,0.0,0.0,
2025-08-15T01:21:27.012Z,17,GR86-004-78,10.5,0.044,0.142,99.63,5.0,,0.0,0.0,
2025-08-15T01:21:27.055Z,17,GR86-004-78,10.5,0.04,0.141,99.62,5.0,6907.0,0.0,0.0,
2025-08-15T01:21:27.098Z,17,GR86-004-78,10.5,0.051,0.129,99.62,5.0,,0.0,0.0,203.6
2025-08-15T01:21:27.141Z,17,GR86-004-78,10.5,0.041,0.129,99.61,5.0,,0.0,0.0,
2025-08-15T01:21:27.184Z,17,GR86-004-78,10.5,0.049,0.126,99.62,5.0,,0.0,0.0,
2025-08-15T01:21:27.227Z,17,GR86-004-78,10.5,0.043,0.138,99.62,5.0,,0.0,0.0,
2025-08-15T01:21:27.271Z,17,GR86-004-78,10.5,0.029,0.129,99.61,5.0,6953.0,0.0,0.0,
2025-08-15T01:21:27.314Z,17,GR86-004-78,10.5,0.045,0.127,99.61,5.0,,0.0,0.0,204.36
2025-08-15T01:21:27.357Z,17,GR86-004-78,10.5,0.04,0.113,99.62,5.0,,0.0,0.0,
2025-08-15T01:21:27.400Z,17,GR86-004-78,10.5,0.042,0.116,95.02,5.0,,0.0,0.0,
2025-08-15T01:21:27.443Z,17,GR86-004-78,10.5,0.032,0.123,35.59,5.0,,0.0,1.89,
2025-08-15T01:21:27.486Z,17,GR86-004-78,10.5,0.011,0.134,5.7,5.0,6979.0,21.655,21.99,
2025-08-15T01:21:27.530Z,17,GR86-004-78,10.6,-0.257,0.129,5.29,5.0,,38.9,38.835,204.97
2025-08-15T01:21:27.573Z,17,GR86-004-78,10.7,-0.87,0.146,5.0600000000000005,5.0,,55.805,55.335,
2025-08-15T01:21:27.616Z,17,GR86-004-78,10.7,-1.024,0.171,4.64,5.0,,67.08500000000001,66.76,
2025-08-15T01:21:27.659Z,17,GR86-004-78,10.0,-1.144,0.097,3.95,5.0,,71.465,72.865,
2025-08-15T01:21:27.702Z,17,GR86-004-78,9.5,-1.229,0.117,3.58,5.0,6994.0,74.315,76.18,
2025-08-15T01:21:27.745Z,17,GR86-004-78,9.5,-1.251,0.099,3.36,5.0,,73.935,74.18,205.45
2025-08-15T01:21:27.788Z,17,GR86-004-78,10.5,-1.22,0.118,3.16,5.0,,75.935,77.58,
2025-08-15T01:21:27.831Z,17,GR86-004-78,10.6,-1.175,0.142,3.0,5.0,,75.065,75.4,
2025-08-15T01:21:27.874Z,17,GR86-004-78,10.6,-1.208,0.135,2.82,5.0,,75.52,76.025,
2025-08-15T01:21:27.917Z,17,GR86-004-78,10.6,-1.262,0.118,4.0200000000000005,5.0,6431.0,78.055,79.9,
2025-08-15T01:21:27.960Z,17,GR86-004-78,12.3,-1.195,0.062,40.84,5.0,,79.995,81.06,202.61
2025-08-15T01:21:28.003Z,17,GR86-004-78,14.9,-1.224,0.09,32.18,4.0,,78.955,79.305,
2025-08-15T01:21:28.046Z,17,GR86-004-78,15.0,-1.251,0.122,4.5600000000000005,4.0,,80.525,82.65,
2025-08-15T01:21:28.089Z,17,GR86-004-78,12.5,-1.468,0.148,4.15,4.0,,81.03,82.555,
2025-08-15T01:21:28.132Z,17,GR86-004-78,8.200000000000001,-1.364,0.132,3.74,4.0,6285.0,79.47500000000001,80.68,
2025-08-15T01:21:28.175Z,17,GR86-004-78,7.7,-1.299,0.077,3.47,4.0,,76.3,76.865,194.96
2025-08-15T01:21:28.218Z,17,GR86-004-78,7.9,-1.099,0.069,3.3200000000000003,4.0,,71.615,72.27,
2025-08-15T01:21:28.261Z,17,GR86-004-78,10.3,-1.136,0.119,3.2,4.0,,68.655,69.02,
2025-08-15T01:21:28.304Z,17,GR86-004-78,10.6,-1.098,0.177,3.09,4.0,,68.03,69.08,
2025-08-15T01:21:28.347Z,17,GR86-004-78,11.0,-1.172,0.101,2.81,4.0,6346.0,67.755,69.22,
2025-08-15T01:21:28.390Z,17,GR86-004-78,12.5,-1.149,0.136,2.7,4.0,,67.58500000000001,68.805,184.39
2025-08-15T01:21:28.433Z,17,GR86-004-78,13.1,-1.183,0.095,2.51,4.0,,66.64,67.05,
2025-08-15T01:21:28.477Z,17,GR86-004-78,13.1,-1.222,0.102,2.42,4.0,,66.275,67.39,
2025-08-15T01:21:28.521Z,17,GR86-004-78,13.1,-1.138,0.107,12.03,4.0,,65.895,66.425,
2025-08-15T01:21:28.564Z,17,GR86-004-78,13.1,-1.158,0.075,53.73,4.0,6760.0,64.43,65.115,
2025-08-15T01:21:28.607Z,17,GR86-004-78,13.1,-1.161,0.082,76.49,3.0,,64.64,65.36,178.59
2025-08-15T01:21:28.650Z,17,GR86-004-78,13.0,-1.215,0.035,7.930000000000001,3.0,,65.33,66.99,
2025-08-15T01:21:28.693Z,17,GR86-004-78,12.8,-1.13,0.07,3.16,3.0,,66.61,68.47,
2025-08-15T01:21:28.737Z,17,GR86-004-78,12.8,-1.246,0.052,3.0700000000000003,3.0,,66.64,67.02,
2025-08-15T01:21:28.780Z,17,GR86-004-78,13.3,-1.439,0.04,2.95,3.0,6205.0,65.555,66.045,
2025-08-15T01:21:28.823Z,17,GR86-004-78,14.1,-1.225,0.175,2.9,3.0,,66.185,67.175,170.3
2025-08-15T01:21:28.868Z,17,GR86-004-78,15.0,-1.084,0.07,2.79,3.0,,65.205,66.075,
2025-08-15T01:21:28.911Z,17,GR86-004-78,15.0,-1.165,0.213,2.71,3.0,,65.74,66.67,
2025-08-15T01:21:28.954Z,17,GR86-004-78,15.0,-1.105,0.157,2.58,3.0,,65.925,66.7,
2025-08-15T01:21:28.997Z,17,GR86-004-78,15.0,-1.098,0.135,2.49,3.0,6606.0,65.895,66.33500000000001,
2025-08-15T01:21:29.041Z,17,GR86-004-78,15.0,-1.128,0.219,2.43,3.0,,65.86,66.135,163.39
2025-08-15T01:21:29.084Z,17,GR86-004-78,14.9,-1.14,0.172,2.42,3.0,,65.58500000000001,65.65,
2025-08-15T01:21:29.128Z,17,GR86-004-78,14.8,-1.126,0.221,2.4,3.0,,65.465,65.3,
2025-08-15T01:21:29.214Z,17,GR86-004-78,14.8,-1.221,0.182,2.42,3.0,6913.0,65.145,65.025,
2025-08-15T01:21:29.257Z,17,GR86-004-78,14.7,-1.151,0.191,52.64,2.0,,63.835,63.68,156.01
2025-08-15T01:21:29.300Z,17,GR86-004-78,12.0,-1.22,0.193,5.97,2.0,,63.495000000000005,64.245,
2025-08-15T01:21:29.343Z,17,GR86-004-78,7.6,-1.229,0.122,4.65,2.0,,63.865,65.495,
2025-08-15T01:21:29.386Z,17,GR86-004-78,6.800000000000001,-1.251,0.067,3.98,2.0,,63.925,64.67,
2025-08-15T01:21:29.430Z,17,GR86-004-78,8.200000000000001,-1.228,0.093,3.59,2.0,6507.0,62.625,63.895,
2025-08-15T01:21:29.473Z,17,GR86-004-78,9.5,-1.093,0.203,3.42,2.0,,62.4,64.215,140.57
2025-08-15T01:21:29.516Z,17,GR86-004-78,9.7,-0.917,0.169,3.27,2.0,,58.935,59.115,
2025-08-15T01:21:29.559Z,17,GR86-004-78,9.4,-1.337,0.265,3.11,2.0,,56.095,57.055,
2025-08-15T01:21:29.602Z,17,GR86-004-78,5.2,-1.056,0.154,2.94,2.0,,55.335,56.28,
2025-08-15T01:21:29.645Z,17,GR86-004-78,5.0,-1.083,0.038,2.81,2.0,6175.0,55.105,55.715,
2025-08-15T01:21:29.688Z,17,GR86-004-78,11.9,-1.196,0.135,2.59,2.0,,55.485,55.715,133.13
2025-08-15T01:21:29.731Z,17,GR86-004-78,15.9,-1.119,0.054,2.46,2.0,,55.335,55.715,
2025-08-15T01:21:29.774Z,17,GR86-004-78,16.400000000000002,-1.103,0.133,2.38,2.0,,54.08,55.045,
2025-08-15T01:21:29.817Z,17,GR86-004-78,16.3,-1.089,0.142,2.38,2.0,,51.06,52.615,
2025-08-15T01:21:29.860Z,17,GR86-004-78,16.400000000000002,-1.026,0.066,2.38,2.0,6836.0,47.765,49.49,
2025-08-15T01:21:29.903Z,17,GR86-004-78,20.0,-1.051,0.092,2.36,2.0,,46.65,47.9,125.44
2025-08-15T01:21:29.946Z,17,GR86-004-78,25.8,-1.024,0.17,30.33,2.0,,47.06,47.84,
2025-08-15T01:21:29.989Z,17,GR86-004-78,27.1,-1.01,0.229,45.16,1.0,,47.58,48.39,
2025-08-15T01:21:30.033Z,17,GR86-004-78,27.200000000000003,-1.109,0.251,4.23,1.0,,48.205,49.335,
2025-08-15T01:21:30.076Z,17,GR86-004-78,27.200000000000003,-1.093,0.322,4.65,1.0,6363.0,50.345,51.84,
2025-08-15T01:21:30.120Z,17,GR86-004-78,27.200000000000003,-1.242,0.292,4.3,1.0,,51.81,52.8,118.75
2025-08-15T01:21:30.163Z,17,GR86-004-78,27.200000000000003,-1.183,0.372,3.77,1.0,,50.905,52.02,
2025-08-15T01:21:30.206Z,17,GR86-004-78,27.200000000000003,-1.061,0.543,3.34,1.0,,51.745000000000005,53.06,
2025-08-15T01:21:30.250Z,17,GR86-004-78,27.200000000000003,-0.93,0.528,3.18,1.0,,50.435,51.120000000000005,
2025-08-15T01:21:30.293Z,17,GR86-004-78,27.200000000000003,-1.23,0.732,2.98,1.0,6442.0,48.42,49.17,
2025-08-15T01:21:30.336Z,17,GR86-004-78,27.200000000000003,-1.029,0.711,2.84,1.0,,47.46,48.74,111.68
2025-08-15T01:21:30.379Z,17,GR86-004-78,27.200000000000003,-0.996,0.671,2.71,1.0,,44.225,45.46,
2025-08-15T01:21:30.422Z,17,GR86-004-78,27.200000000000003,-0.872,0.904,2.53,1.0,,39.34,39.72,
2025-08-15T01:21:30.468Z,17,GR86-004-78,32.800000000000004,-0.886,0.783,2.4,1.0,,32.565,33.555,
2025-08-15T01:21:30.511Z,17,GR86-004-78,39.900000000000006,-0.714,0.873,2.39,1.0,6812.0,28.245,29.3,
2025-08-15T01:21:30.554Z,17,GR86-004-78,48.2,-0.7030000000000001,0.969,2.39,1.0,,24.235,25.055,105.48
2025-08-15T01:21:30.597Z,17,GR86-004-78,53.8,-0.674,1.001,2.38,1.0,,20.875,21.53,
2025-08-15T01:21:30.640Z,17,GR86-004-78,54.5,-0.616,0.98,2.39,1.0,,19.18,20.05,
2025-08-15T01:21:30.683Z,17,GR86-004-78,54.5,-0.5690000000000001,0.973,2.38,1.0,,18.205,19.12,
2025-08-15T01:21:30.726Z,17,GR86-004-78,54.8,-0.56,0.98,2.41,1.0,6747.0,16.495,17.245,
2025-08-15T01:21:30.770Z,17,GR86-004-78,60.6,-0.514,0.915,2.42,1.0,,15.03,15.9,99.03
2025-08-15T01:21:30.813Z,17,GR86-004-78,64.7,-0.505,1.056,2.42,1.0,,14.94,15.365,
2025-08-15T01:21:30.856Z,17,GR86-004-78,64.8,-0.505,1.029,2.42,1.0,,14.94,15.625,
2025-08-15T01:21:30.899Z,17,GR86-004-78,62.3,-0.513,1.049,2.43,1.0,,15.155,15.685,
2025-08-15T01:21:30.942Z,17,GR86-004-78,55.1,-0.479,1.016,2.44,1.0,6520.0,15.275,15.78,
2025-08-15T01:21:30.986Z,17,GR86-004-78,53.3,-0.464,0.995,2.44,1.0,,12.775,13.58,93.63
2025-08-15T01:21:31.029Z,17,GR86-004-78,55.0,-0.43,0.989,2.44,1.0,,8.67,9.37,
2025-08-15T01:21:31.072Z,17,GR86-004-78,58.2,-0.374,1.041,2.45,1.0,,4.595,5.25,
2025-08-15T01:21:31.115Z,17,GR86-004-78,58.400000000000006,-0.285,1.125,2.45,1.0,,0.0,2.215,
2025-08-15T01:21:31.201Z,17,GR86-004-78,58.900000000000006,-0.203,1.132,2.46,1.0,6243.0,0.0,0.0,89.79
2025-08-15T01:21:31.245Z,17,GR86-004-78,65.8,-0.23,1.131,2.47,1.0,,0.0,0.0,
2025-08-15T01:21:31.288Z,17,GR86-004-78,76.4,-0.211,1.159,3.82,1.0,,0.0,0.0,
2025-08-15T01:21:31.331Z,17,GR86-004-78,76.60000000000001,-0.192,1.241,7.91,1.0,,0.0,0.0,
2025-08-15T01:21:31.374Z,17,GR86-004-78,72.0,-0.183,1.207,16.85,1.0,5968.0,0.0,0.0,
2025-08-15T01:21:31.417Z,17,GR86-004-78,69.5,-0.201,1.221,18.56,1.0,,0.0,0.0,86.51
2025-08-15T01:21:31.460Z,17,GR86-004-78,69.7,-0.216,1.205,20.89,1.0,,0.0,0.0,
2025-08-15T01:21:31.503Z,17,GR86-004-78,75.60000000000001,-0.194,1.133,21.8,1.0,,0.0,0.0,
2025-08-15T01:21:31.546Z,17,GR86-004-78,79.10000000000001,-0.122,1.218,24.09,1.0,,0.0,0.0,
2025-08-15T01:21:31.591Z,17,GR86-004-78,79.10000000000001,-0.119,1.252,28.34,1.0,5896.0,0.0,0.0,
2025-08-15T01:21:31.634Z,17,GR86-004-78,80.10000000000001,-0.084,1.265,30.26,1.0,,0.0,0.0,84.33
2025-08-15T01:21:31.678Z,17,GR86-004-78,83.30000000000001,0.049,1.233,30.48,1.0,,0.0,0.0,
2025-08-15T01:21:31.721Z,17,GR86-004-78,85.80000000000001,0.096,1.275,31.34,1.0,,0.0,0.0,
2025-08-15T01:21:31.764Z,17,GR86-004-78,85.80000000000001,0.179,1.263,32.25,1.0,,0.0,0.0,
2025-08-15T01:21:31.807Z,17,GR86-004-78,83.7,0.165,1.302,32.82,1.0,5848.0,0.0,0.0,
2025-08-15T01:21:31.850Z,17,GR86-004-78,82.7,0.132,1.246,32.86,1.0,,0.0,0.0,82.69
2025-08-15T01:21:31.893Z,17,GR86-004-78,81.5,0.138,1.189,32.83,1.0,,0.0,0.0,
2025-08-15T01:21:31.936Z,17,GR86-004-78,72.0,0.144,1.196,32.82,1.0,,0.0,0.0,
2025-08-15T01:21:31.980Z,17,GR86-004-78,59.900000000000006,0.155,1.317,32.87,1.0,,0.0,0.0,
2025-08-15T01:21:32.023Z,17,GR86-004-78,42.900000000000006,0.164,1.263,32.77,1.0,6208.0,0.0,0.0,
2025-08-15T01:21:32.068Z,17,GR86-004-78,30.200000000000003,0.021,1.102,32.51,1.0,,0.0,0.0,81.17
2025-08-15T01:21:32.111Z,17,GR86-004-78,29.200000000000003,0.114,1.112,32.45,1.0,,0.0,0.0,
2025-08-15T01:21:32.154Z,17,GR86-004-78,25.5,0.133,1.04,32.27,1.0,,0.0,0.0,
2025-08-15T01:21:32.197Z,17,GR86-004-78,21.700000000000003,0.042,1.126,32.38,1.0,,0.0,0.0,
2025-08-15T01:21:32.240Z,17,GR86-004-78,18.7,0.214,1.141,32.8,1.0,6222.0,0.0,0.0,
2025-08-15T01:21:32.283Z,17,GR86-004-78,16.7,0.19,1.072,33.27,1.0,,0.0,0.0,81.84
2025-08-15T01:21:32.326Z,17,GR86-004-78,28.700000000000003,0.312,1.083,33.82,1.0,,0.0,0.0,
2025-08-15T01:21:32.369Z,17,GR86-004-78,51.3,0.328,1.247,34.42,1.0,,0.0,0.0,
2025-08-15T01:21:32.412Z,17,GR86-004-78,66.2,0.401,1.487,38.01,1.0,,0.0,0.0,
2025-08-15T01:21:32.498Z,17,GR86-004-78,63.8,0.384,1.111,38.91,1.0,6356.0,0.0,0.0,82.58
2025-08-15T01:21:32.541Z,17,GR86-004-78,40.2,0.159,1.141,39.43,1.0,,0.0,0.0,
2025-08-15T01:21:32.584Z,17,GR86-004-78,39.0,0.231,0.925,39.14,1.0,,0.0,0.0,
2025-08-15T01:21:32.627Z,17,GR86-004-78,60.1,0.343,1.08,42.51,1.0,,0.0,0.0,
2025-08-15T01:21:32.671Z,17,GR86-004-78,69.3,0.195,1.439,55.29,1.0,6395.0,0.0,0.0,
2025-08-15T01:21:32.714Z,17,GR86-004-78,70.2,0.355,1.366,56.42,1.0,,0.0,0.0,83.14
2025-08-15T01:21:32.757Z,17,GR86-004-78,65.8,0.298,1.333,56.21,1.0,,0.0,0.0,
2025-08-15T01:21:32.800Z,17,GR86-004-78,55.400000000000006,0.288,1.253,54.83,1.0,,0.0,0.0,
2025-08-15T01:21:32.843Z,17,GR86-004-78,38.900000000000006,0.284,1.145,52.99,1.0,,0.0,0.0,
2025-08-15T01:21:32.886Z,17,GR86-004-78,25.9,0.245,1.044,52.69,1.0,6695.0,0.0,0.0,
2025-08-15T01:21:32.929Z,17,GR86-004-78,25.8,0.289,1.058,53.32,1.0,,0.0,0.0,83.84
2025-08-15T01:21:32.973Z,17,GR86-004-78,25.700000000000003,0.276,1.059,55.22,1.0,,0.0,0.0,
2025-08-15T01:21:33.016Z,17,GR86-004-78,20.9,0.28,1.05,57.01,1.0,,0.0,0.0,
2025-08-15T01:21:33.059Z,17,GR86-004-78,3.5,0.311,1.041,56.76,1.0,,0.0,0.0,
2025-08-15T01:21:33.102Z,17,GR86-004-78,-6.2,0.344,0.981,53.9,1.0,6690.0,0.0,0.0,
2025-08-15T01:21:33.146Z,17,GR86-004-78,-11.9,0.319,0.812,43.46,1.0,,0.0,0.0,85.66
2025-08-15T01:21:33.189Z,17,GR86-004-78,0.4,0.303,0.8260000000000001,42.52,1.0,,0.0,0.0,
2025-08-15T01:21:33.232Z,17,GR86-004-78,24.0,0.306,0.879,44.83,1.0,,0.0,0.0,
2025-08-15T01:21:33.277Z,17,GR86-004-78,50.6,0.277,0.998,48.92,1.0,,0.0,0.0,
2025-08-15T01:21:33.320Z,17,GR86-004-78,69.8,0.267,1.113,54.89,1.0,6884.0,0.0,0.0,
2025-08-15T01:21:33.363Z,17,GR86-004-78,74.10000000000001,0.281,1.157,58.68,1.0,,0.0,0.0,87.15
2025-08-15T01:21:33.406Z,17,GR86-004-78,67.5,0.288,1.163,71.05,1.0,,0.0,0.0,
2025-08-15T01:21:33.449Z,17,GR86-004-78,55.900000000000006,0.275,1.142,82.64,1.0,,0.0,0.0,
2025-08-15T01:21:33.492Z,17,GR86-004-78,47.900000000000006,0.297,1.127,98.66,1.0,,0.0,0.0,
2025-08-15T01:21:33.535Z,17,GR86-004-78,43.2,0.308,1.062,99.6,1.0,6932.0,0.0,0.0,
2025-08-15T01:21:33.578Z,17,GR86-004-78,40.5,0.277,1.021,99.63,1.0,,0.0,0.0,88.51
2025-08-15T01:21:33.622Z,17,GR86-004-78,37.2,0.296,0.978,99.64,1.0,,0.0,0.0,
2025-08-15T01:21:33.665Z,17,GR86-004-78,31.9,0.305,0.953,99.68,1.0,,0.0,0.0,
2025-08-15T01:21:33.708Z,17,GR86-004-78,20.200000000000003,0.302,0.962,99.64,1.0,,0.0,0.0,
2025-08-15T01:21:33.751Z,17,GR86-004-78,14.7,0.339,0.8310000000000001,99.65,1.0,7006.0,0.0,0.0,
2025-08-15T01:21:33.794Z,17,GR86-004-78,13.5,0.361,0.795,99.62,1.0,,0.0,0.0,89.71000000000001
2025-08-15T01:21:33.837Z,17,GR86-004-78,13.5,0.347,0.8190000000000001,99.64,1.0,,0.0,0.0,
2025-08-15T01:21:33.880Z,17,GR86-004-78,18.5,0.454,0.679,99.67,1.0,,0.0,0.0,
2025-08-15T01:21:33.923Z,17,GR86-004-78,26.1,0.367,0.553,99.67,1.0,,0.0,0.0,
2025-08-15T01:21:33.967Z,17,GR86-004-78,32.800000000000004,0.152,0.8210000000000001,99.65,2.0,7182.0,0.0,0.0,
2025-08-15T01:21:34.011Z,17,GR86-004-78,32.800000000000004,-0.126,0.744,99.65,2.0,,0.0,0.0,92.17
2025-08-15T01:21:34.054Z,17,GR86-004-78,29.200000000000003,0.546,0.715,99.64,2.0,,0.0,0.0,
2025-08-15T01:21:34.097Z,17,GR86-004-78,20.8,0.381,0.394,99.64,2.0,,0.0,0.0,
2025-08-15T01:21:34.141Z,17,GR86-004-78,11.2,0.275,0.5740000000000001,99.65,2.0,,0.0,0.0,
2025-08-15T01:21:34.184Z,17,GR86-004-78,2.6,0.169,0.578,99.65,2.0,7248.0,0.0,0.0,
2025-08-15T01:21:34.228Z,17,GR86-004-78,-1.5,0.235,0.534,99.65,2.0,,0.0,0.0,94.11
2025-08-15T01:21:34.271Z,17,GR86-004-78,-1.1,0.242,0.686,99.65,2.0,,0.0,0.0,
2025-08-15T01:21:34.314Z,17,GR86-004-78,2.2,0.134,0.393,99.65,2.0,,0.0,0.0,
2025-08-15T01:21:34.357Z,17,GR86-004-78,5.1000000000000005,0.027,0.499,99.65,2.0,,0.0,0.0,
2025-08-15T01:21:34.400Z,17,GR86-004-78,9.6,0.076,0.712,99.65,2.0,6467.0,0.0,0.0,
2025-08-15T01:21:34.443Z,17,GR86-004-78,16.7,0.369,0.528,99.64,2.0,,0.0,0.0,95.18
2025-08-15T01:21:34.486Z,17,GR86-004-78,21.8,0.003,0.557,99.66,2.0,,0.0,0.0,
2025-08-15T01:21:34.530Z,17,GR86-004-78,20.4,-0.057,0.385,99.65,2.0,,0.0,0.0,
2025-08-15T01:21:34.573Z,17,GR86-004-78,14.9,0.176,0.522,99.65,2.0,,0.0,0.0,
2025-08-15T01:21:34.616Z,17,GR86-004-78,10.0,0.371,0.642,99.65,2.0,5868.0,0.0,0.0,
2025-08-15T01:21:34.659Z,17,GR86-004-78,8.3,0.514,0.552,99.65,2.0,,0.0,0.0,97.16
2025-08-15T01:21:34.702Z,17,GR86-004-78,7.800000000000001,0.518,0.561,99.65,2.0,,0.0,0.0,
2025-08-15T01:21:34.745Z,17,GR86-004-78,7.5,0.415,0.416,99.65,2.0,,0.0,0.0,
2025-08-15T01:21:34.788Z,17,GR86-004-78,7.6,0.125,0.31,99.65,2.0,,0.0,0.0,
2025-08-15T01:21:34.831Z,17,GR86-004-78,7.7,0.183,0.396,99.65,2.0,5924.0,0.0,0.0,
2025-08-15T01:21:34.917Z,17,GR86-004-78,7.7,0.325,0.288,99.64,2.0,,0.0,0.0,100.95
2025-08-15T01:21:34.960Z,17,GR86-004-78,7.800000000000001,0.443,0.168,99.65,2.0,,0.0,0.0,
2025-08-15T01:21:35.003Z,17,GR86-004-78,8.0,0.38,0.107,99.65,2.0,,0.0,0.0,
2025-08-15T01:21:35.047Z,17,GR86-004-78,8.200000000000001,0.139,0.072,99.65,2.0,6028.0,0.0,0.0,
2025-08-15T01:21:35.090Z,17,GR86-004-78,8.1,0.199,-0.026,99.65,2.0,,0.0,0.0,103.03
2025-08-15T01:21:35.133Z,17,GR86-004-78,8.0,0.266,-0.053,99.65,2.0,,0.0,0.0,
2025-08-15T01:21:35.176Z,17,GR86-004-78,7.6,0.317,-0.125,99.66,2.0,,0.0,0.0,
2025-08-15T01:21:35.219Z,17,GR86-004-78,7.5,0.44,-0.129,99.65,2.0,,0.0,0.0,
2025-08-15T01:21:35.262Z,17,GR86-004-78,7.5,0.418,-0.165,99.65,2.0,6108.0,0.0,0.0,
2025-08-15T01:21:35.305Z,17,GR86-004-78,7.6,0.389,-0.126,99.66,2.0,,0.0,0.0,104.79
2025-08-15T01:21:35.348Z,17,GR86-004-78,7.7,0.152,-0.124,99.66,2.0,,0.0,0.0,
2025-08-15T01:21:35.391Z,17,GR86-004-78,7.800000000000001,0.196,-0.033,99.65,2.0,,0.0,0.0,
2025-08-15T01:21:35.434Z,17,GR86-004-78,7.800000000000001,0.183,-0.103,99.65,2.0,,0.0,0.0,
2025-08-15T01:21:35.477Z,17,GR86-004-78,7.800000000000001,0.194,-0.084,99.66,2.0,6247.0,0.0,0.0,
2025-08-15T01:21:35.520Z,17,GR86-004-78,7.800000000000001,0.237,-0.07,99.64,2.0,,0.0,0.0,106.45
2025-08-15T01:21:35.563Z,17,GR86-004-78,7.800000000000001,0.209,-0.103,99.66,2.0,,0.0,0.0,
2025-08-15T01:21:35.606Z,17,GR86-004-78,7.800000000000001,0.33,-0.077,99.65,2.0,,0.0,0.0,
2025-08-15T01:21:35.649Z,17,GR86-004-78,7.800000000000001,0.31,-0.103,99.66,2.0,,0.0,0.0,
2025-08-15T01:21:35.692Z,17,GR86-004-78,7.800000000000001,0.311,-0.046,99.66,2.0,6339.0,0.0,0.0,
2025-08-15T01:21:35.735Z,17,GR86-004-78,7.9,0.282,-0.054,99.65,2.0,,0.0,0.0,108.23
2025-08-15T01:21:35.778Z,17,GR86-004-78,7.9,0.309,-0.012,99.65,2.0,,0.0,0.0,
2025-08-15T01:21:35.822Z,17,GR86-004-78,8.0,0.288,-0.055,99.66,2.0,,0.0,0.0,
2025-08-15T01:21:35.865Z,17,GR86-004-78,8.0,0.306,-0.02,99.65,2.0,,0.0,0.0,
2025-08-15T01:21:35.908Z,17,GR86-004-78,8.0,0.26,-0.04,99.66,2.0,6396.0,0.0,0.0,
2025-08-15T01:21:35.951Z,17,GR86-004-78,8.0,0.26,-0.015,99.65,2.0,,0.0,0.0,109.92
2025-08-15T01:21:35.994Z,17,GR86-004-78,7.9,0.288,0.01,99.65,2.0,,0.0,0.0,
2025-08-15T01:21:36.037Z,17,GR86-004-78,7.9,0.277,0.007,99.64,2.0,,0.0,0.0,
2025-08-15T01:21:36.080Z,17,GR86-004-78,8.0,0.277,0.028,99.65,2.0,,0.0,0.0,
2025-08-15T01:21:36.123Z,17,GR86-004-78,7.9,0.275,0.051,99.66,2.0,6471.0,0.0,0.0,
2025-08-15T01:21:36.168Z,17,GR86-004-78,7.9,0.274,0.038,99.65,2.0,,0.0,0.0,111.49
2025-08-15T01:21:36.211Z,17,GR86-004-78,7.800000000000001,0.271,0.012,99.64,2.0,,0.0,0.0,
2025-08-15T01:21:36.254Z,17,GR86-004-78,7.5,0.272,0.026,99.66,2.0,,0.0,0.0,
2025-08-15T01:21:36.297Z,17,GR86-004-78,7.300000000000001,0.268,0.006,99.65,2.0,,0.0,0.0,
2025-08-15T01:21:36.340Z,17,GR86-004-78,7.0,0.249,-0.019,99.66,2.0,6553.0,0.0,0.0,
2025-08-15T01:21:36.383Z,17,GR86-004-78,6.5,0.265,0.0,99.65,2.0,,0.0,0.0,113.21
2025-08-15T01:21:36.426Z,17,GR86-004-78,5.0,0.289,-0.015,99.65,2.0,,0.0,0.0,
2025-08-15T01:21:36.470Z,17,GR86-004-78,4.3,0.272,-0.051,99.66,2.0,,0.0,0.0,
2025-08-15T01:21:36.513Z,17,GR86-004-78,4.0,0.25,-0.062,99.63,2.0,,0.0,0.0,
2025-08-15T01:21:36.556Z,17,GR86-004-78,4.0,0.272,-0.077,99.63,2.0,6638.0,0.0,0.0,
2025-08-15T01:21:36.599Z,17,GR86-004-78,4.0,0.247,-0.095,99.65,2.0,,0.0,0.0,114.76
2025-08-15T01:21:36.642Z,17,GR86-004-78,4.0,0.263,-0.099,99.65,2.0,,0.0,0.0,
2025-08-15T01:21:36.686Z,17,GR86-004-78,4.0,0.266,-0.095,99.65,2.0,,0.0,0.0,
2025-08-15T01:21:36.729Z,17,GR86-004-78,4.0,0.289,-0.092,99.65,2.0,,0.0,0.0,
2025-08-15T01:21:36.772Z,17,GR86-004-78,4.0,0.254,-0.106,99.65,2.0,6722.0,0.0,0.0,
2025-08-15T01:21:36.815Z,17,GR86-004-78,4.1000000000000005,0.258,-0.083,99.65,2.0,,0.0,0.0,116.23
2025-08-15T01:21:36.859Z,17,GR86-004-78,4.0,0.289,-0.069,99.65,2.0,,0.0,0.0,
2025-08-15T01:21:36.902Z,17,GR86-004-78,4.0,0.247,-0.086,99.65,2.0,,0.0,0.0,
2025-08-15T01:21:36.946Z,17,GR86-004-78,4.0,0.246,-0.069,99.66,2.0,,0.0,0.0,
2025-08-15T01:21:36.991Z,17,GR86-004-78,4.0,0.257,-0.059,99.65,2.0,6811.0,0.0,0.0,
2025-08-15T01:21:37.078Z,17,GR86-004-78,4.0,0.282,-0.058,99.65,2.0,,0.0,0.0,117.68
2025-08-15T01:21:37.121Z,17,GR86-004-78,4.0,0.261,-0.036,99.65,2.0,,0.0,0.0,
2025-08-15T01:21:37.164Z,17,GR86-004-78,4.0,0.287,-0.038,99.65,2.0,,0.0,0.0,
2025-08-15T01:21:37.207Z,17,GR86-004-78,4.0,0.271,-0.021,99.62,2.0,6890.0,0.0,0.0,
2025-08-15T01:21:37.250Z,17,GR86-004-78,4.0,0.242,-0.044,99.63,2.0,,0.0,0.0,119.13
2025-08-15T01:21:37.293Z,17,GR86-004-78,4.0,0.26,-0.01,99.64,2.0,,0.0,0.0,
2025-08-15T01:21:37.337Z,17,GR86-004-78,4.0,0.282,-0.017,99.62,2.0,,0.0,0.0,
2025-08-15T01:21:37.380Z,17,GR86-004-78,4.0,0.247,-0.044,99.65,2.0,,0.0,0.0,
2025-08-15T01:21:37.423Z,17,GR86-004-78,4.0,0.238,-0.023,99.62,2.0,6969.0,0.0,0.0,
2025-08-15T01:21:37.468Z,17,GR86-004-78,4.0,0.237,-0.022,99.64,2.0,,0.0,0.0,121.71
2025-08-15T01:21:37.511Z,17,GR86-004-78,4.3,0.284,-0.024,99.65,2.0,,0.0,0.0,
2025-08-15T01:21:37.554Z,17,GR86-004-78,5.0,0.251,-0.028,99.63,2.0,,0.0,0.0,
2025-08-15T01:21:37.640Z,17,GR86-004-78,5.4,0.248,-0.002,99.65,2.0,7045.0,0.0,0.0,
2025-08-15T01:21:37.683Z,17,GR86-004-78,5.7,0.237,-0.001,99.66,2.0,,0.0,0.0,122.84
2025-08-15T01:21:37.726Z,17,GR86-004-78,5.7,0.254,0.011,99.65,2.0,,0.0,0.0,
2025-08-15T01:21:37.769Z,17,GR86-004-78,5.7,0.223,0.023,99.64,2.0,,0.0,0.0,
2025-08-15T01:21:37.812Z,17,GR86-004-78,5.7,-0.054,0.049,99.62,3.0,,0.0,0.0,
2025-08-15T01:21:37.856Z,17,GR86-004-78,5.7,0.068,0.035,99.67,3.0,7111.0,0.0,0.0,
2025-08-15T01:21:37.899Z,17,GR86-004-78,5.7,0.516,-0.005,99.66,3.0,,0.0,0.0,123.96
2025-08-15T01:21:37.942Z,17,GR86-004-78,5.7,0.412,0.014,99.65,3.0,,0.0,0.0,
2025-08-15T01:21:37.986Z,17,GR86-004-78,5.7,0.319,0.057,99.66,3.0,,0.0,0.0,
2025-08-15T01:21:38.030Z,17,GR86-004-78,5.7,0.162,-0.037,99.65,3.0,,0.0,0.0,
2025-08-15T01:21:38.073Z,17,GR86-004-78,5.7,0.099,0.034,99.65,3.0,6542.0,0.0,0.0,
2025-08-15T01:21:38.116Z,17,GR86-004-78,5.7,0.177,-0.007,99.65,3.0,,0.0,0.0,125.01
2025-08-15T01:21:38.159Z,17,GR86-004-78,5.7,0.3,-0.026,99.64,3.0,,0.0,0.0,
2025-08-15T01:21:38.202Z,17,GR86-004-78,5.7,0.26,-0.006,99.65,3.0,,0.0,0.0,
2025-08-15T01:21:38.245Z,17,GR86-004-78,5.7,0.168,-0.03,99.65,3.0,,0.0,0.0,
2025-08-15T01:21:38.288Z,17,GR86-004-78,5.7,0.16,-0.008,99.65,3.0,5876.0,0.0,0.0,
2025-08-15T01:21:38.374Z,17,GR86-004-78,5.7,0.219,-0.013,99.65,3.0,,0.0,0.0,125.92
2025-08-15T01:21:38.417Z,17,GR86-004-78,5.800000000000001,0.218,-0.015,99.66,3.0,,0.0,0.0,
2025-08-15T01:21:38.460Z,17,GR86-004-78,5.9,0.179,0.014,99.66,3.0,,0.0,0.0,
2025-08-15T01:21:38.503Z,17,GR86-004-78,5.9,0.233,0.029,99.66,3.0,5922.0,0.0,0.0,
2025-08-15T01:21:38.546Z,17,GR86-004-78,5.9,0.234,0.024,99.65,3.0,,0.0,0.0,126.89
2025-08-15T01:21:38.589Z,17,GR86-004-78,5.9,0.223,0.005,99.66,3.0,,0.0,0.0,
2025-08-15T01:21:38.632Z,17,GR86-004-78,5.9,0.198,0.007,99.66,3.0,,0.0,0.0,
2025-08-15T01:21:38.675Z,17,GR86-004-78,5.9,0.219,0.017,99.65,3.0,,0.0,0.0,
2025-08-15T01:21:38.718Z,17,GR86-004-78,5.9,0.218,-0.019,99.65,3.0,5962.0,0.0,0.0,
2025-08-15T01:21:38.761Z,17,GR86-004-78,5.9,0.2,-0.022,99.65,3.0,,0.0,0.0,127.71
2025-08-15T01:21:38.804Z,17,GR86-004-78,5.9,0.192,-0.014,99.65,3.0,,0.0,0.0,
2025-08-15T01:21:38.847Z,17,GR86-004-78,5.9,0.195,-0.025,99.65,3.0,,0.0,0.0,
2025-08-15T01:21:38.890Z,17,GR86-004-78,5.9,0.216,-0.042,99.65,3.0,,0.0,0.0,
2025-08-15T01:21:38.933Z,17,GR86-004-78,6.1000000000000005,0.211,-0.037,99.65,3.0,6012.0,0.0,0.0,
2025-08-15T01:21:38.976Z,17,GR86-004-78,6.2,0.194,-0.016,99.65,3.0,,0.0,0.0,128.45
2025-08-15T01:21:39.019Z,17,GR86-004-78,6.2,0.214,0.01,99.64,3.0,,0.0,0.0,
2025-08-15T01:21:39.062Z,17,GR86-004-78,6.2,0.217,-0.004,99.66,3.0,,0.0,0.0,
2025-08-15T01:21:39.106Z,17,GR86-004-78,5.4,0.229,-0.025,99.67,3.0,,0.0,0.0,
2025-08-15T01:21:39.149Z,17,GR86-004-78,5.4,0.202,-0.028,99.65,3.0,6047.0,0.0,0.0,
2025-08-15T01:21:39.192Z,17,GR86-004-78,5.4,0.196,-0.015,99.65,3.0,,0.0,0.0,129.23
2025-08-15T01:21:39.235Z,17,GR86-004-78,6.1000000000000005,0.202,0.002,97.37,3.0,,0.0,0.0,
2025-08-15T01:21:39.278Z,17,GR86-004-78,6.1000000000000005,0.211,-0.003,40.13,3.0,,0.0,0.0,
2025-08-15T01:21:39.321Z,17,GR86-004-78,6.1000000000000005,0.189,-0.006,14.48,3.0,,7.17,7.525,
2025-08-15T01:21:39.365Z,17,GR86-004-78,3.0,0.158,0.005,5.29,3.0,6095.0,15.93,16.25,
2025-08-15T01:21:39.408Z,17,GR86-004-78,2.5,-0.271,-0.068,5.11,3.0,,29.085,29.085,130.03
2025-08-15T01:21:39.451Z,17,GR86-004-78,9.9,-0.536,-0.045,4.7700000000000005,3.0,,37.615,37.235,
2025-08-15T01:21:39.494Z,17,GR86-004-78,16.7,-0.743,-0.024,4.18,3.0,,44.055,43.735,
2025-08-15T01:21:39.537Z,17,GR86-004-78,17.1,-0.84,0.08,3.66,3.0,,48.59,49.2,
2025-08-15T01:21:39.580Z,17,GR86-004-78,17.0,-0.8200000000000001,0.113,3.41,3.0,6136.0,51.0,52.525,
2025-08-15T01:21:39.668Z,17,GR86-004-78,17.400000000000002,-0.873,0.084,4.48,3.0,,50.68,52.08,130.86
2025-08-15T01:21:39.711Z,17,GR86-004-78,17.400000000000002,-0.86,0.095,41.62,3.0,,50.525,50.94,
2025-08-15T01:21:39.754Z,17,GR86-004-78,17.400000000000002,-0.903,0.085,66.17,2.0,,49.275,49.73,
2025-08-15T01:21:39.797Z,17,GR86-004-78,17.400000000000002,-0.862,0.134,8.22,2.0,5691.0,48.68,49.305,
2025-08-15T01:21:39.841Z,17,GR86-004-78,17.400000000000002,-1.007,0.108,4.24,2.0,,48.3,49.93,130.96
2025-08-15T01:21:39.884Z,17,GR86-004-78,19.9,-1.053,0.196,3.95,2.0,,47.705,48.925,
2025-08-15T01:21:39.928Z,17,GR86-004-78,24.200000000000003,-1.245,0.189,3.54,2.0,,43.23,44.085,
2025-08-15T01:21:39.971Z,17,GR86-004-78,24.3,-0.923,0.404,3.35,2.0,,39.125,40.53,
2025-08-15T01:21:40.014Z,17,GR86-004-78,24.1,-0.778,0.31,3.23,2.0,5509.0,33.525,34.49,
2025-08-15T01:21:40.057Z,17,GR86-004-78,24.3,-0.936,0.395,3.06,2.0,,31.74,32.81,125.0
2025-08-15T01:21:40.100Z,17,GR86-004-78,30.6,-0.783,0.502,2.87,2.0,,31.77,32.335,
2025-08-15T01:21:40.143Z,17,GR86-004-78,37.7,-0.684,0.443,2.76,2.0,,30.705,31.055,
2025-08-15T01:21:40.186Z,17,GR86-004-78,40.400000000000006,-0.647,0.747,2.54,2.0,,30.995,31.3,
2025-08-15T01:21:40.273Z,17,GR86-004-78,40.3,-0.643,0.7030000000000001,2.45,2.0,5565.0,31.33,32.14,112.75
2025-08-15T01:21:40.316Z,17,GR86-004-78,39.1,-0.68,0.8130000000000001,2.42,2.0,,30.305,30.52,
2025-08-15T01:21:40.359Z,17,GR86-004-78,36.9,-0.578,0.902,2.38,2.0,,27.285,28.34,
2025-08-15T01:21:40.403Z,17,GR86-004-78,33.1,-0.544,0.799,2.4,2.0,,22.815,23.835,
2025-08-15T01:21:40.447Z,17,GR86-004-78,27.1,-0.548,0.864,2.4,2.0,6032.0,21.9,22.645,
2025-08-15T01:21:40.490Z,17,GR86-004-78,27.0,-0.557,0.852,2.4,2.0,,22.25,23.15,108.16
2025-08-15T01:21:40.533Z,17,GR86-004-78,32.9,-0.5740000000000001,0.896,2.4,2.0,,21.44,22.25,
2025-08-15T01:21:40.576Z,17,GR86-004-78,38.6,-0.549,0.97,2.42,2.0,,19.9,20.845,
2025-08-15T01:21:40.619Z,17,GR86-004-78,42.7,-0.506,0.999,2.42,2.0,,13.52,14.33,
2025-08-15T01:21:40.662Z,17,GR86-004-78,48.5,-0.376,1.087,2.41,2.0,5807.0,5.705,6.21,
2025-08-15T01:21:40.705Z,17,GR86-004-78,57.1,-0.242,1.145,2.42,2.0,,0.0,0.0,104.16
2025-08-15T01:21:40.748Z,17,GR86-004-78,64.7,-0.22,1.159,2.41,2.0,,0.0,0.0,
2025-08-15T01:21:40.791Z,17,GR86-004-78,64.8,-0.205,1.141,2.42,2.0,,0.0,0.0,
2025-08-15T01:21:40.834Z,17,GR86-004-78,66.7,-0.182,1.135,2.58,2.0,,0.0,0.0,
2025-08-15T01:21:40.877Z,17,GR86-004-78,71.8,-0.184,1.146,3.75,2.0,5373.0,0.0,0.0,
2025-08-15T01:21:40.920Z,17,GR86-004-78,74.4,-0.186,1.157,5.0,2.0,,0.0,0.0,100.07
2025-08-15T01:21:40.963Z,17,GR86-004-78,74.4,-0.207,1.224,16.98,2.0,,0.0,0.0,
2025-08-15T01:21:41.006Z,17,GR86-004-78,74.4,-0.186,1.212,17.85,2.0,,0.0,0.0,
2025-08-15T01:21:41.049Z,17,GR86-004-78,73.10000000000001,-0.17,1.192,20.13,2.0,,0.0,0.0,
2025-08-15T01:21:41.092Z,17,GR86-004-78,62.8,-0.147,1.233,21.17,2.0,5325.0,0.0,0.0,
2025-08-15T01:21:41.135Z,17,GR86-004-78,53.8,-0.127,1.177,21.33,2.0,,0.0,0.0,97.94
2025-08-15T01:21:41.178Z,17,GR86-004-78,53.400000000000006,-0.103,1.177,21.77,2.0,,0.0,0.0,
2025-08-15T01:21:41.221Z,17,GR86-004-78,61.1,-0.116,1.207,22.64,2.0,,0.0,0.0,
2025-08-15T01:21:41.264Z,17,GR86-004-78,67.9,0.046,1.219,22.63,2.0,,0.0,0.0,
2025-08-15T01:21:41.307Z,17,GR86-004-78,68.5,0.046,1.231,23.8,2.0,5281.0,0.0,0.0,
2025-08-15T01:21:41.350Z,17,GR86-004-78,68.5,0.051,1.189,25.54,2.0,,0.0,0.0,96.2
2025-08-15T01:21:41.393Z,17,GR86-004-78,68.5,0.09,1.227,25.92,2.0,,0.0,0.0,
2025-08-15T01:21:41.437Z,17,GR86-004-78,68.5,0.063,1.186,26.27,2.0,,0.0,0.0,
2025-08-15T01:21:41.480Z,17,GR86-004-78,68.4,0.073,1.235,26.71,2.0,,0.0,0.0,
2025-08-15T01:21:41.523Z,17,GR86-004-78,63.8,0.043,1.223,27.03,2.0,5550.0,0.0,0.0,
2025-08-15T01:21:41.567Z,17,GR86-004-78,35.5,0.078,1.231,27.1,2.0,,0.0,0.0,95.15
2025-08-15T01:21:41.611Z,17,GR86-004-78,12.3,0.14,1.194,27.08,2.0,,0.0,0.0,
2025-08-15T01:21:41.654Z,17,GR86-004-78,-1.5,0.142,1.131,27.04,2.0,,0.0,0.0,
2025-08-15T01:21:42.774Z,17,GR86-004-78,14.3,0.31,0.924,99.62,2.0,,0.0,0.0,
2025-08-15T01:21:42.817Z,17,GR86-004-78,46.5,0.332,1.052,99.61,2.0,5795.0,0.0,0.0,
2025-08-15T01:21:42.903Z,17,GR86-004-78,75.5,0.276,1.049,82.59,2.0,,0.0,0.0,
2025-08-15T01:21:43.034Z,17,GR86-004-78,69.60000000000001,0.242,1.026,52.75,2.0,5880.0,0.0,0.0,96.33
2025-08-15T01:21:43.078Z,17,GR86-004-78,69.60000000000001,0.198,0.96,55.39,2.0,,0.0,0.0,97.61
2025-08-15T01:21:43.165Z,17,GR86-004-78,63.900000000000006,0.161,0.999,57.65,2.0,,0.0,0.0,
2025-08-15T01:21:43.208Z,17,GR86-004-78,46.8,0.191,1.016,67.05,2.0,,0.0,0.0,
2025-08-15T01:21:43.294Z,17,GR86-004-78,22.1,0.249,0.962,96.27,2.0,5864.0,0.0,0.0,98.86
2025-08-15T01:21:43.337Z,17,GR86-004-78,18.7,0.281,0.905,99.47,2.0,,0.0,0.0,
2025-08-15T01:21:43.380Z,17,GR86-004-78,18.6,0.269,0.862,99.63,2.0,,0.0,0.0,
2025-08-15T01:21:43.423Z,17,GR86-004-78,21.0,0.268,0.873,99.65,2.0,,0.0,0.0,
2025-08-15T01:21:43.468Z,17,GR86-004-78,36.1,0.287,0.912,99.63,2.0,6045.0,0.0,0.0,
2025-08-15T01:21:43.511Z,17,GR86-004-78,48.400000000000006,0.284,0.931,99.62,2.0,,0.0,0.0,102.03
2025-08-15T01:21:43.554Z,17,GR86-004-78,55.900000000000006,0.258,0.998,99.63,2.0,,0.0,0.0,
2025-08-15T01:21:43.597Z,17,GR86-004-78,57.2,0.247,0.924,99.63,2.0,,0.0,0.0,
2025-08-15T01:21:43.640Z,17,GR86-004-78,57.400000000000006,0.145,1.041,99.64,2.0,,0.0,0.0,
2025-08-15T01:21:43.683Z,17,GR86-004-78,57.1,0.267,1.012,99.63,2.0,6121.0,0.0,0.0,
2025-08-15T01:21:43.726Z,17,GR86-004-78,57.400000000000006,0.161,0.845,99.62,2.0,,0.0,0.0,103.66
2025-08-15T01:21:43.769Z,17,GR86-004-78,57.3,0.213,0.707,98.04,2.0,,0.0,0.0,
2025-08-15T01:21:43.812Z,17,GR86-004-78,57.1,0.258,0.779,97.07,2.0,,0.0,0.0,
2025-08-15T01:21:43.855Z,17,GR86-004-78,48.2,0.205,0.79,96.55,2.0,,0.0,0.0,
2025-08-15T01:21:43.898Z,17,GR86-004-78,39.900000000000006,0.169,1.009,88.39,2.0,6176.0,0.0,0.0,
2025-08-15T01:21:43.941Z,17,GR86-004-78,28.5,0.293,0.966,73.4,2.0,,0.0,0.0,104.56
2025-08-15T01:21:43.984Z,17,GR86-004-78,18.7,0.265,1.007,74.95,2.0,,0.0,0.0,
2025-08-15T01:21:44.027Z,17,GR86-004-78,12.4,0.28,1.104,94.96,2.0,,0.0,0.0,
2025-08-15T01:21:44.071Z,17,GR86-004-78,12.4,0.399,0.919,99.28,2.0,,0.0,0.0,
2025-08-15T01:21:44.114Z,17,GR86-004-78,19.200000000000003,0.441,0.6910000000000001,99.59,2.0,6360.0,0.0,0.0,
2025-08-15T01:21:44.157Z,17,GR86-004-78,32.4,0.329,0.743,99.66,2.0,,0.0,0.0,106.46
2025-08-15T01:21:44.200Z,17,GR86-004-78,39.400000000000006,0.189,0.7000000000000001,99.66,2.0,,0.0,0.0,
2025-08-15T01:21:44.243Z,17,GR86-004-78,46.5,0.069,0.902,99.64,2.0,,0.0,0.0,
2025-08-15T01:21:44.286Z,17,GR86-004-78,52.0,0.424,0.935,99.65,2.0,,0.0,0.0,
2025-08-15T01:21:44.330Z,17,GR86-004-78,53.0,0.438,0.94,99.29,2.0,6381.0,0.0,0.0,
2025-08-15T01:21:44.373Z,17,GR86-004-78,53.2,0.443,0.919,99.51,2.0,,0.0,0.0,109.63
2025-08-15T01:21:44.416Z,17,GR86-004-78,51.8,0.414,0.874,99.64,2.0,,0.0,0.0,
2025-08-15T01:21:44.459Z,17,GR86-004-78,40.8,0.305,1.146,99.64,2.0,,0.0,0.0,
2025-08-15T01:21:44.502Z,17,GR86-004-78,26.9,0.342,0.838,99.63,2.0,,0.0,0.0,
2025-08-15T01:21:44.545Z,17,GR86-004-78,14.8,0.277,0.869,99.63,2.0,6588.0,0.0,0.0,
2025-08-15T01:21:44.588Z,17,GR86-004-78,10.3,0.29,0.743,99.64,2.0,,0.0,0.0,109.77
2025-08-15T01:21:44.631Z,17,GR86-004-78,10.7,0.465,0.737,99.66,2.0,,0.0,0.0,
2025-08-15T01:21:44.674Z,17,GR86-004-78,15.8,0.48,0.706,99.65,2.0,,0.0,0.0,
2025-08-15T01:21:44.717Z,17,GR86-004-78,18.4,0.411,0.634,99.65,2.0,,0.0,0.0,
