timestamp,lap,vehicle_id,steering_angle,accx_can,accy_can,ath,gear,nmot,pbrake_f,pbrake_r,speed
2025-08-15T01:00:09.649Z,9,GR86-004-78,1.0,0.123,-0.096,99.86,4.0,,0.0,0.0,
2025-08-15T01:00:09.692Z,9,GR86-004-78,1.0,0.138,-0.075,99.84,4.0,,0.0,0.0,
2025-08-15T01:00:09.735Z,9,GR86-004-78,1.0,0.116,-0.06,99.84,4.0,,0.0,0.0,
2025-08-15T01:00:09.778Z,9,GR86-004-78,1.1,0.136,-0.077,99.83,4.0,7216.0,0.0,0.0,
2025-08-15T01:00:09.821Z,9,GR86-004-78,1.1,0.128,-0.089,99.84,4.0,,0.0,0.0,183.32
2025-08-15T01:00:09.864Z,9,GR86-004-78,1.1,0.142,-0.079,99.84,4.0,,0.0,0.0,
2025-08-15T01:00:09.950Z,9,GR86-004-78,1.2000000000000002,0.109,-0.047,99.84,4.0,,0.0,0.0,
2025-08-15T01:00:09.993Z,9,GR86-004-78,1.2000000000000002,0.109,-0.04,99.84,4.0,7227.0,0.0,0.0,
2025-08-15T01:00:10.037Z,9,GR86-004-78,1.2000000000000002,0.111,-0.019,99.86,4.0,,0.0,0.0,184.15
2025-08-15T01:00:10.080Z,9,GR86-004-78,1.4,-0.08,-0.014,99.85,4.0,,0.0,0.0,
2025-08-15T01:00:10.123Z,9,GR86-004-78,1.4,-0.062,0.031,99.86,5.0,,0.0,0.0,
2025-08-15T01:00:10.168Z,9,GR86-004-78,1.5,0.225,-0.041,99.85,5.0,,0.0,0.0,
2025-08-15T01:00:10.211Z,9,GR86-004-78,1.5,0.221,0.02,99.85,5.0,7266.0,0.0,0.0,
2025-08-15T01:00:10.254Z,9,GR86-004-78,1.5,0.036,0.072,99.85,5.0,,0.0,0.0,184.93
2025-08-15T01:00:10.297Z,9,GR86-004-78,1.5,0.049,0.014,99.87,5.0,,0.0,0.0,
2025-08-15T01:00:10.340Z,9,GR86-004-78,1.6,0.158,0.073,99.84,5.0,,0.0,0.0,
2025-08-15T01:00:10.383Z,9,GR86-004-78,1.6,0.139,0.078,99.84,5.0,,0.0,0.0,
2025-08-15T01:00:10.426Z,9,GR86-004-78,1.6,0.094,0.064,99.83,5.0,7134.0,0.0,0.0,
2025-08-15T01:00:10.469Z,9,GR86-004-78,1.6,0.124,0.077,99.84,5.0,,0.0,0.0,186.41
2025-08-15T01:00:10.512Z,9,GR86-004-78,1.6,0.145,0.068,99.83,5.0,,0.0,0.0,
2025-08-15T01:00:10.598Z,9,GR86-004-78,1.6,0.123,0.036,99.84,5.0,,0.0,0.0,
2025-08-15T01:00:10.641Z,9,GR86-004-78,1.6,0.125,0.016,99.84,5.0,6265.0,0.0,0.0,
2025-08-15T01:00:10.684Z,9,GR86-004-78,1.6,0.129,-0.001,99.83,5.0,,0.0,0.0,187.2
2025-08-15T01:00:10.727Z,9,GR86-004-78,1.6,0.08,-0.009,99.84,5.0,,0.0,0.0,
2025-08-15T01:00:10.771Z,9,GR86-004-78,1.6,0.098,-0.009,99.84,5.0,,0.0,0.0,
2025-08-15T01:00:10.814Z,9,GR86-004-78,1.6,0.086,0.006,99.84,5.0,,0.0,0.0,
2025-08-15T01:00:10.857Z,9,GR86-004-78,1.6,0.088,-0.018,99.88,5.0,6379.0,0.0,0.0,
2025-08-15T01:00:10.900Z,9,GR86-004-78,1.6,0.111,-0.057,99.84,5.0,,0.0,0.0,187.94
2025-08-15T01:00:10.943Z,9,GR86-004-78,1.6,0.108,-0.032,99.84,5.0,,0.0,0.0,
2025-08-15T01:00:10.986Z,9,GR86-004-78,1.6,0.079,-0.033,99.85,5.0,,0.0,0.0,
2025-08-15T01:00:11.029Z,9,GR86-004-78,1.6,0.074,-0.046,99.84,5.0,,0.0,0.0,
2025-08-15T01:00:11.072Z,9,GR86-004-78,1.6,0.082,-0.062,99.85,5.0,6418.0,0.0,0.0,
2025-08-15T01:00:11.115Z,9,GR86-004-78,1.7000000000000002,0.092,-0.037,99.86,5.0,,0.0,0.0,188.76
2025-08-15T01:00:11.158Z,9,GR86-004-78,1.8,0.074,-0.034,99.86,5.0,,0.0,0.0,
2025-08-15T01:00:11.202Z,9,GR86-004-78,1.8,0.096,-0.027,99.86,5.0,,0.0,0.0,
2025-08-15T01:00:11.245Z,9,GR86-004-78,1.8,0.09,-0.045,99.86,5.0,,0.0,0.0,
2025-08-15T01:00:11.288Z,9,GR86-004-78,1.9,0.1,0.012,99.84,5.0,6443.0,0.0,0.0,
2025-08-15T01:00:11.331Z,9,GR86-004-78,1.9,0.092,0.017,99.86,5.0,,0.0,0.0,189.42
2025-08-15T01:00:11.374Z,9,GR86-004-78,1.9,0.082,0.041,99.87,5.0,,0.0,0.0,
2025-08-15T01:00:11.417Z,9,GR86-004-78,2.0,0.08,0.047,99.85,5.0,,0.0,0.0,
2025-08-15T01:00:11.460Z,9,GR86-004-78,2.1,0.086,0.081,99.83,5.0,,0.0,0.0,
2025-08-15T01:00:11.546Z,9,GR86-004-78,2.2,0.107,0.093,99.84,5.0,6460.0,0.0,0.0,190.11
2025-08-15T01:00:11.589Z,9,GR86-004-78,2.2,0.127,0.092,99.86,5.0,,0.0,0.0,
2025-08-15T01:00:11.632Z,9,GR86-004-78,2.2,0.094,0.092,99.88,5.0,,0.0,0.0,
2025-08-15T01:00:11.675Z,9,GR86-004-78,2.2,0.116,0.088,99.87,5.0,,0.0,0.0,
2025-08-15T01:00:11.718Z,9,GR86-004-78,2.2,0.102,0.092,99.83,5.0,6489.0,0.0,0.0,
2025-08-15T01:00:11.761Z,9,GR86-004-78,2.2,0.108,0.125,99.85,5.0,,0.0,0.0,190.81
2025-08-15T01:00:11.804Z,9,GR86-004-78,2.2,0.079,0.102,99.87,5.0,,0.0,0.0,
2025-08-15T01:00:11.847Z,9,GR86-004-78,2.3000000000000003,0.112,0.123,99.87,5.0,,0.0,0.0,
2025-08-15T01:00:11.890Z,9,GR86-004-78,2.3000000000000003,0.102,0.133,99.85,5.0,,0.0,0.0,
2025-08-15T01:00:11.933Z,9,GR86-004-78,2.3000000000000003,0.09,0.113,99.84,5.0,6510.0,0.0,0.0,
2025-08-15T01:00:11.976Z,9,GR86-004-78,2.3000000000000003,0.101,0.126,99.85,5.0,,0.0,0.0,191.49
2025-08-15T01:00:12.019Z,9,GR86-004-78,2.3000000000000003,0.09,0.118,99.86,5.0,,0.0,0.0,
2025-08-15T01:00:12.062Z,9,GR86-004-78,2.3000000000000003,0.094,0.112,99.85,5.0,,0.0,0.0,
2025-08-15T01:00:12.105Z,9,GR86-004-78,2.3000000000000003,0.074,0.147,99.85,5.0,,0.0,0.0,
2025-08-15T01:00:12.148Z,9,GR86-004-78,2.3000000000000003,0.113,0.119,99.84,5.0,6530.0,0.0,0.0,
2025-08-15T01:00:12.191Z,9,GR86-004-78,2.3000000000000003,0.103,0.097,99.85,5.0,,0.0,0.0,192.14
2025-08-15T01:00:12.234Z,9,GR86-004-78,2.3000000000000003,0.106,0.089,99.85,5.0,,0.0,0.0,
2025-08-15T01:00:12.277Z,9,GR86-004-78,2.3000000000000003,0.109,0.065,99.87,5.0,,0.0,0.0,
2025-08-15T01:00:12.320Z,9,GR86-004-78,2.3000000000000003,0.09,0.052,99.84,5.0,,0.0,0.0,
2025-08-15T01:00:12.363Z,9,GR86-004-78,2.3000000000000003,0.082,0.067,99.83,5.0,6549.0,0.0,0.0,
2025-08-15T01:00:12.406Z,9,GR86-004-78,2.3000000000000003,0.11,0.048,99.84,5.0,,0.0,0.0,192.88
2025-08-15T01:00:12.449Z,9,GR86-004-78,2.3000000000000003,0.111,0.053,99.84,5.0,,0.0,0.0,
2025-08-15T01:00:12.492Z,9,GR86-004-78,2.3000000000000003,0.11,0.026,99.88,5.0,,0.0,0.0,
2025-08-15T01:00:12.535Z,9,GR86-004-78,2.3000000000000003,0.102,0.043,99.85,5.0,,0.0,0.0,
2025-08-15T01:00:12.578Z,9,GR86-004-78,2.3000000000000003,0.091,0.02,99.87,5.0,6579.0,0.0,0.0,
2025-08-15T01:00:12.621Z,9,GR86-004-78,2.3000000000000003,0.086,0.05,99.85,5.0,,0.0,0.0,193.57
2025-08-15T01:00:12.664Z,9,GR86-004-78,2.3000000000000003,0.08,0.031,99.84,5.0,,0.0,0.0,
2025-08-15T01:00:12.707Z,9,GR86-004-78,2.3000000000000003,0.102,0.033,99.84,5.0,,0.0,0.0,
2025-08-15T01:00:12.750Z,9,GR86-004-78,2.3000000000000003,0.107,0.026,99.85,5.0,,0.0,0.0,
2025-08-15T01:00:12.793Z,9,GR86-004-78,2.3000000000000003,0.097,0.042,99.84,5.0,6602.0,0.0,0.0,
2025-08-15T01:00:12.880Z,9,GR86-004-78,2.3000000000000003,0.093,0.038,99.85,5.0,,0.0,0.0,194.3
2025-08-15T01:00:12.923Z,9,GR86-004-78,2.3000000000000003,0.094,0.02,99.83,5.0,,0.0,0.0,
2025-08-15T01:00:12.968Z,9,GR86-004-78,2.5,0.113,0.046,99.83,5.0,,0.0,0.0,
2025-08-15T01:00:13.011Z,9,GR86-004-78,2.5,0.109,0.08,99.84,5.0,6627.0,0.0,0.0,
2025-08-15T01:00:13.054Z,9,GR86-004-78,2.5,0.097,0.057,99.86,5.0,,0.0,0.0,194.97
2025-08-15T01:00:13.098Z,9,GR86-004-78,2.5,0.091,0.049,99.83,5.0,,0.0,0.0,
2025-08-15T01:00:13.141Z,9,GR86-004-78,2.5,0.102,0.036,99.84,5.0,,0.0,0.0,
2025-08-15T01:00:13.184Z,9,GR86-004-78,2.5,0.091,0.082,99.85,5.0,,0.0,0.0,
2025-08-15T01:00:13.228Z,9,GR86-004-78,2.5,0.099,0.066,99.84,5.0,6648.0,0.0,0.0,
2025-08-15T01:00:13.271Z,9,GR86-004-78,2.5,0.094,0.077,99.82,5.0,,0.0,0.0,196.35
2025-08-15T01:00:13.314Z,9,GR86-004-78,2.5,0.086,0.059,99.83,5.0,,0.0,0.0,
2025-08-15T01:00:13.357Z,9,GR86-004-78,2.5,0.084,0.068,99.85,5.0,,0.0,0.0,
2025-08-15T01:00:13.400Z,9,GR86-004-78,2.5,0.094,0.079,99.85,5.0,,0.0,0.0,
2025-08-15T01:00:13.443Z,9,GR86-004-78,2.5,0.085,0.085,99.83,5.0,6668.0,0.0,0.0,
2025-08-15T01:00:13.486Z,9,GR86-004-78,2.5,0.091,0.065,99.84,5.0,,0.0,0.0,196.99
2025-08-15T01:00:13.530Z,9,GR86-004-78,2.5,0.087,0.057,99.85,5.0,,0.0,0.0,
2025-08-15T01:00:13.573Z,9,GR86-004-78,2.5,0.086,0.073,99.84,5.0,,0.0,0.0,
2025-08-15T01:00:13.616Z,9,GR86-004-78,2.5,0.076,0.061,99.84,5.0,,0.0,0.0,
2025-08-15T01:00:13.659Z,9,GR86-004-78,2.5,0.08,0.058,99.84,5.0,6710.0,0.0,0.0,
2025-08-15T01:00:13.702Z,9,GR86-004-78,2.5,0.107,0.044,99.85,5.0,,0.0,0.0,197.93
2025-08-15T01:00:13.745Z,9,GR86-004-78,2.5,0.09,0.041,99.84,5.0,,0.0,0.0,
2025-08-15T01:00:13.788Z,9,GR86-004-78,2.5,0.084,0.045,99.84,5.0,,0.0,0.0,
2025-08-15T01:00:13.831Z,9,GR86-004-78,2.5,0.077,0.013,99.86,5.0,,0.0,0.0,
2025-08-15T01:00:13.874Z,9,GR86-004-78,2.5,0.087,0.028,99.86,5.0,6752.0,0.0,0.0,
2025-08-15T01:00:13.917Z,9,GR86-004-78,2.5,0.09,0.007,99.83,5.0,,0.0,0.0,198.69
2025-08-15T01:00:13.960Z,9,GR86-004-78,2.5,0.102,0.014,99.83,5.0,,0.0,0.0,
2025-08-15T01:00:14.003Z,9,GR86-004-78,2.5,0.126,-0.018,99.85,5.0,,0.0,0.0,
2025-08-15T01:00:14.046Z,9,GR86-004-78,2.5,0.096,0.007,99.84,5.0,,0.0,0.0,
2025-08-15T01:00:14.089Z,9,GR86-004-78,2.5,0.075,0.041,99.84,5.0,6777.0,0.0,0.0,
2025-08-15T01:00:14.132Z,9,GR86-004-78,2.5,0.115,0.039,99.84,5.0,,0.0,0.0,199.4
2025-08-15T01:00:14.175Z,9,GR86-004-78,2.5,0.106,0.014,99.83,5.0,,0.0,0.0,
2025-08-15T01:00:14.218Z,9,GR86-004-78,2.5,0.107,-0.003,99.83,5.0,,0.0,0.0,
2025-08-15T01:00:14.261Z,9,GR86-004-78,2.5,0.091,0.001,99.84,5.0,,0.0,0.0,
2025-08-15T01:00:14.305Z,9,GR86-004-78,2.5,0.086,-0.006,99.84,5.0,6804.0,0.0,0.0,
2025-08-15T01:00:14.348Z,9,GR86-004-78,2.2,0.092,-0.003,99.83,5.0,,0.0,0.0,200.23
2025-08-15T01:00:14.391Z,9,GR86-004-78,2.2,0.121,-0.008,99.84,5.0,,0.0,0.0,
2025-08-15T01:00:14.434Z,9,GR86-004-78,2.2,0.081,-0.015,99.84,5.0,,0.0,0.0,
2025-08-15T01:00:14.477Z,9,GR86-004-78,1.7000000000000002,0.107,-0.043,99.84,5.0,,0.0,0.0,
2025-08-15T01:00:14.564Z,9,GR86-004-78,1.3,0.083,-0.036,99.84,5.0,6831.0,0.0,0.0,200.93
2025-08-15T01:00:14.607Z,9,GR86-004-78,1.4,0.101,-0.041,99.84,5.0,,0.0,0.0,
2025-08-15T01:00:14.693Z,9,GR86-004-78,1.4,0.078,-0.026,99.84,5.0,,0.0,0.0,
2025-08-15T01:00:14.737Z,9,GR86-004-78,1.9,0.086,-0.025,99.86,5.0,6858.0,0.0,0.0,
2025-08-15T01:00:14.780Z,9,GR86-004-78,1.9,0.103,-0.002,99.83,5.0,,0.0,0.0,201.75
2025-08-15T01:00:14.823Z,9,GR86-004-78,1.9,0.104,0.019,99.85,5.0,,0.0,0.0,
2025-08-15T01:00:14.912Z,9,GR86-004-78,1.5,0.068,0.015,99.85,5.0,,0.0,0.0,
2025-08-15T01:00:14.998Z,9,GR86-004-78,1.5,0.115,0.004,99.85,5.0,6882.0,0.0,0.0,202.5
2025-08-15T01:00:15.041Z,9,GR86-004-78,1.5,0.107,0.002,99.83,5.0,,0.0,0.0,
2025-08-15T01:00:15.084Z,9,GR86-004-78,1.5,0.1,-0.001,99.84,5.0,,0.0,0.0,
2025-08-15T01:00:15.127Z,9,GR86-004-78,1.5,0.082,-0.011,99.84,5.0,,0.0,0.0,
2025-08-15T01:00:15.170Z,9,GR86-004-78,1.5,0.103,-0.011,99.86,5.0,6901.0,0.0,0.0,
2025-08-15T01:00:15.213Z,9,GR86-004-78,1.5,0.113,-0.023,99.86,5.0,,0.0,0.0,203.35
2025-08-15T01:00:15.256Z,9,GR86-004-78,1.5,0.097,-0.041,99.85,5.0,,0.0,0.0,
2025-08-15T01:00:15.299Z,9,GR86-004-78,1.5,0.064,-0.047,99.84,5.0,,0.0,0.0,
2025-08-15T01:00:15.342Z,9,GR86-004-78,1.5,0.098,-0.033,99.86,5.0,,0.0,0.0,
2025-08-15T01:00:15.386Z,9,GR86-004-78,1.6,0.104,-0.01,99.84,5.0,6930.0,0.0,0.0,
2025-08-15T01:00:15.429Z,9,GR86-004-78,1.6,0.071,-0.024,99.84,5.0,,0.0,0.0,204.06
2025-08-15T01:00:15.472Z,9,GR86-004-78,1.6,0.09,-0.027,99.83,5.0,,0.0,0.0,
2025-08-15T01:00:15.516Z,9,GR86-004-78,1.6,0.071,-0.019,99.86,5.0,,0.0,0.0,
2025-08-15T01:00:15.559Z,9,GR86-004-78,1.6,0.084,0.001,99.83,5.0,,0.0,0.0,
2025-08-15T01:00:15.602Z,9,GR86-004-78,1.6,0.094,0.002,99.84,5.0,6957.0,0.0,0.0,
2025-08-15T01:00:15.645Z,9,GR86-004-78,1.6,0.096,-0.013,99.84,5.0,,0.0,0.0,204.76
2025-08-15T01:00:15.688Z,9,GR86-004-78,1.6,0.079,-0.009,99.85,5.0,,0.0,0.0,
2025-08-15T01:00:15.731Z,9,GR86-004-78,1.6,0.082,-0.023,99.85,5.0,,0.0,0.0,
2025-08-15T01:00:15.774Z,9,GR86-004-78,1.6,0.099,-0.001,99.84,5.0,,0.0,0.0,
2025-08-15T01:00:15.817Z,9,GR86-004-78,1.6,0.085,-0.026,99.84,5.0,6980.0,0.0,0.0,
2025-08-15T01:00:15.860Z,9,GR86-004-78,1.6,0.076,-0.015,99.83,5.0,,0.0,0.0,205.53
2025-08-15T01:00:15.903Z,9,GR86-004-78,1.7000000000000002,0.057,-0.037,99.84,5.0,,0.0,0.0,
2025-08-15T01:00:15.946Z,9,GR86-004-78,1.8,0.076,0.005,99.84,5.0,,0.0,0.0,
2025-08-15T01:00:15.991Z,9,GR86-004-78,1.9,0.065,-0.001,99.83,5.0,,0.0,0.0,
2025-08-15T01:00:16.034Z,9,GR86-004-78,1.9,0.047,0.0,99.84,5.0,6996.0,0.0,0.0,
2025-08-15T01:00:16.078Z,9,GR86-004-78,1.8,0.068,-0.024,99.84,5.0,,0.0,0.0,206.73
2025-08-15T01:00:16.121Z,9,GR86-004-78,1.8,0.051,0.001,99.83,5.0,,0.0,0.0,
2025-08-15T01:00:16.164Z,9,GR86-004-78,1.8,0.071,-0.01,99.84,5.0,,0.0,0.0,
2025-08-15T01:00:16.207Z,9,GR86-004-78,1.8,0.057,0.033,99.86,5.0,,0.0,0.0,
2025-08-15T01:00:16.250Z,9,GR86-004-78,1.8,0.062,0.022,99.84,5.0,7019.0,0.0,0.0,
2025-08-15T01:00:16.293Z,9,GR86-004-78,1.8,0.072,0.039,99.83,5.0,,0.0,0.0,207.37
2025-08-15T01:00:16.336Z,9,GR86-004-78,1.8,0.076,0.006,99.83,5.0,,0.0,0.0,
2025-08-15T01:00:16.379Z,9,GR86-004-78,1.8,0.089,-0.012,99.84,5.0,,0.0,0.0,
2025-08-15T01:00:16.422Z,9,GR86-004-78,1.8,0.066,-0.003,99.84,5.0,,0.0,0.0,
2025-08-15T01:00:16.465Z,9,GR86-004-78,1.9,0.058,0.01,99.83,5.0,7033.0,0.0,0.0,
2025-08-15T01:00:16.508Z,9,GR86-004-78,1.9,0.088,0.024,99.84,5.0,,0.0,0.0,207.78
2025-08-15T01:00:16.551Z,9,GR86-004-78,1.9,0.063,0.011,99.84,5.0,,0.0,0.0,
2025-08-15T01:00:16.594Z,9,GR86-004-78,1.9,0.057,-0.008,99.84,5.0,,0.0,0.0,
2025-08-15T01:00:16.637Z,9,GR86-004-78,1.9,0.051,0.015,99.84,5.0,,0.0,0.0,
2025-08-15T01:00:16.680Z,9,GR86-004-78,1.9,0.071,0.016,99.83,5.0,7071.0,0.0,0.0,
2025-08-15T01:00:16.723Z,9,GR86-004-78,1.9,0.072,0.03,99.84,5.0,,0.0,0.0,208.31
2025-08-15T01:00:16.768Z,9,GR86-004-78,1.9,0.035,0.02,99.85,5.0,,0.0,0.0,
2025-08-15T01:00:16.812Z,9,GR86-004-78,1.9,0.089,0.015,99.84,5.0,,0.0,0.0,
2025-08-15T01:00:16.855Z,9,GR86-004-78,1.9,0.087,0.03,99.84,5.0,,0.0,0.0,
2025-08-15T01:00:16.898Z,9,GR86-004-78,1.9,0.079,0.052,99.83,5.0,7090.0,0.0,0.0,
2025-08-15T01:00:16.941Z,9,GR86-004-78,1.9,0.068,0.027,99.85,5.0,,0.0,0.0,208.71
2025-08-15T01:00:16.984Z,9,GR86-004-78,1.9,0.054,0.012,99.84,5.0,,0.0,0.0,
2025-08-15T01:00:17.027Z,9,GR86-004-78,1.9,0.066,0.045,99.83,5.0,,0.0,0.0,
2025-08-15T01:00:17.071Z,9,GR86-004-78,2.0,0.063,0.059,99.84,5.0,,0.0,0.0,
2025-08-15T01:00:17.114Z,9,GR86-004-78,2.1,0.057,0.067,99.83,5.0,7109.0,0.0,0.0,
2025-08-15T01:00:17.157Z,9,GR86-004-78,2.1,0.061,0.033,99.85,5.0,,0.0,0.0,209.24
2025-08-15T01:00:17.200Z,9,GR86-004-78,2.1,0.076,0.057,99.84,5.0,,0.0,0.0,
2025-08-15T01:00:17.243Z,9,GR86-004-78,2.1,0.081,0.06,99.86,5.0,,0.0,0.0,
2025-08-15T01:00:17.286Z,9,GR86-004-78,2.1,0.061,0.073,99.84,5.0,,0.0,0.0,
2025-08-15T01:00:17.329Z,9,GR86-004-78,2.1,0.076,0.075,99.85,5.0,7128.0,0.0,0.0,
2025-08-15T01:00:17.373Z,9,GR86-004-78,2.1,0.084,0.052,99.84,5.0,,0.0,0.0,209.81
2025-08-15T01:00:17.416Z,9,GR86-004-78,2.1,0.064,0.068,99.83,5.0,,0.0,0.0,
2025-08-15T01:00:17.459Z,9,GR86-004-78,2.1,0.058,0.052,99.84,5.0,,0.0,0.0,
2025-08-15T01:00:17.502Z,9,GR86-004-78,2.1,0.062,0.05,99.85,5.0,,0.0,0.0,
2025-08-15T01:00:17.545Z,9,GR86-004-78,2.1,0.053,0.051,99.85,5.0,7143.0,0.0,0.0,
2025-08-15T01:00:17.588Z,9,GR86-004-78,2.1,0.032,0.048,99.84,5.0,,0.0,0.0,210.33
2025-08-15T01:00:17.631Z,9,GR86-004-78,2.1,0.051,0.046,99.83,5.0,,0.0,0.0,
2025-08-15T01:00:17.674Z,9,GR86-004-78,2.1,0.051,0.055,99.84,5.0,,0.0,0.0,
2025-08-15T01:00:17.717Z,9,GR86-004-78,2.1,0.058,0.036,99.86,5.0,,0.0,0.0,
2025-08-15T01:00:17.760Z,9,GR86-004-78,2.1,0.074,0.05,99.84,5.0,7168.0,0.0,0.0,
2025-08-15T01:00:17.803Z,9,GR86-004-78,2.1,0.057,0.056,99.84,5.0,,0.0,0.0,210.84
2025-08-15T01:00:17.846Z,9,GR86-004-78,2.1,0.054,0.058,99.85,5.0,,0.0,0.0,
2025-08-15T01:00:17.889Z,9,GR86-004-78,2.1,0.05,0.05,99.84,5.0,,0.0,0.0,
2025-08-15T01:00:17.932Z,9,GR86-004-78,2.1,0.046,0.036,99.83,5.0,,0.0,0.0,
2025-08-15T01:00:17.976Z,9,GR86-004-78,2.1,0.029,0.024,99.84,5.0,7184.0,0.0,0.0,
2025-08-15T01:00:18.019Z,9,GR86-004-78,2.1,0.042,0.027,99.87,5.0,,0.0,0.0,211.42
2025-08-15T01:00:18.062Z,9,GR86-004-78,2.0,0.043,0.043,99.85,5.0,,0.0,0.0,
2025-08-15T01:00:18.105Z,9,GR86-004-78,2.0,0.068,0.036,99.84,5.0,,0.0,0.0,
2025-08-15T01:00:18.148Z,9,GR86-004-78,2.1,0.071,0.012,99.85,5.0,,0.0,0.0,
2025-08-15T01:00:18.191Z,9,GR86-004-78,2.1,0.043,0.024,99.83,5.0,7189.0,0.0,0.0,
2025-08-15T01:00:18.234Z,9,GR86-004-78,2.1,0.066,0.045,58.16,5.0,,0.0,0.0,211.83
2025-08-15T01:00:18.277Z,9,GR86-004-78,2.2,0.029,0.058,2.51,5.0,,9.875,10.24,
2025-08-15T01:00:18.320Z,9,GR86-004-78,2.2,-0.136,0.052,4.96,5.0,,19.64,19.76,
2025-08-15T01:00:18.363Z,9,GR86-004-78,2.2,-0.618,0.063,4.8,5.0,,32.685,32.595,
2025-08-15T01:00:18.406Z,9,GR86-004-78,2.5,-1.135,0.044,4.0600000000000005,5.0,7209.0,50.31,49.825,
2025-08-15T01:00:18.449Z,9,GR86-004-78,2.7,-1.077,0.039,3.5700000000000003,5.0,,54.14,53.99,212.26
2025-08-15T01:00:18.492Z,9,GR86-004-78,2.7,-1.095,0.078,3.35,5.0,,54.495000000000005,54.615,
2025-08-15T01:00:18.535Z,9,GR86-004-78,2.7,-1.116,0.01,3.23,5.0,,54.465,54.43,
2025-08-15T01:00:18.578Z,9,GR86-004-78,2.9000000000000004,-1.198,0.03,3.1,5.0,,54.11,54.43,
2025-08-15T01:00:18.621Z,9,GR86-004-78,4.1000000000000005,-1.113,0.021,2.91,5.0,7228.0,54.08,54.14,
2025-08-15T01:00:18.664Z,9,GR86-004-78,4.7,-1.025,0.006,2.81,5.0,,53.775,54.14,212.52
2025-08-15T01:00:18.707Z,9,GR86-004-78,4.5,-1.074,0.004,2.7,5.0,,55.105,54.95,
2025-08-15T01:00:18.750Z,9,GR86-004-78,4.1000000000000005,-1.129,-0.021,2.62,5.0,,58.245000000000005,57.745000000000005,
2025-08-15T01:00:18.794Z,9,GR86-004-78,5.0,-1.174,0.005,2.53,5.0,,62.870000000000005,62.125,
2025-08-15T01:00:18.837Z,9,GR86-004-78,8.200000000000001,-1.212,0.043,2.47,5.0,6882.0,67.97,67.175,
2025-08-15T01:00:18.880Z,9,GR86-004-78,8.4,-1.293,0.099,9.17,5.0,,72.93,72.06,203.61
2025-08-15T01:00:18.923Z,9,GR86-004-78,4.6000000000000005,-1.282,0.087,52.06,5.0,,78.115,79.625,
2025-08-15T01:00:18.968Z,9,GR86-004-78,-4.6000000000000005,-1.192,0.032,99.85,5.0,,81.46000000000001,81.96000000000001,
2025-08-15T01:00:19.012Z,9,GR86-004-78,-4.9,-1.162,-0.012,99.55,5.0,,77.765,78.145,
2025-08-15T01:00:19.055Z,9,GR86-004-78,-3.2,-1.084,-0.061,54.51,5.0,6660.0,70.9,72.515,
2025-08-15T01:00:19.098Z,9,GR86-004-78,0.0,-0.794,0.085,4.3500000000000005,5.0,,62.965,63.65,194.74
2025-08-15T01:00:19.141Z,9,GR86-004-78,0.0,-1.099,0.071,3.28,5.0,,59.055,60.14,
2025-08-15T01:00:19.184Z,9,GR86-004-78,-0.2,-1.172,0.001,3.13,5.0,,63.025,64.03,
2025-08-15T01:00:19.228Z,9,GR86-004-78,0.0,-1.241,-0.05,2.88,5.0,,75.185,75.965,
2025-08-15T01:00:19.271Z,9,GR86-004-78,0.0,-1.218,-0.132,2.78,5.0,6461.0,80.865,81.685,
2025-08-15T01:00:19.314Z,9,GR86-004-78,0.4,-1.224,-0.145,2.68,5.0,,83.045,83.61,185.12
2025-08-15T01:00:19.357Z,9,GR86-004-78,1.3,-1.236,-0.151,2.6,5.0,,84.02,84.555,
2025-08-15T01:00:19.400Z,9,GR86-004-78,2.8000000000000003,-1.243,-0.183,2.53,5.0,,84.83,85.745,
2025-08-15T01:00:19.443Z,9,GR86-004-78,4.9,-1.251,-0.201,2.48,5.0,,84.39,85.35000000000001,
2025-08-15T01:00:19.486Z,9,GR86-004-78,7.2,-1.272,-0.209,2.46,5.0,5746.0,79.87,80.83,
2025-08-15T01:00:19.573Z,9,GR86-004-78,7.7,-1.129,-0.198,21.33,5.0,,70.12,71.495,178.52
2025-08-15T01:00:19.616Z,9,GR86-004-78,7.7,-1.193,-0.205,59.0,4.0,,68.84,70.06,
2025-08-15T01:00:19.659Z,9,GR86-004-78,6.5,-1.276,-0.203,9.0,4.0,,68.47,69.555,
2025-08-15T01:00:19.702Z,9,GR86-004-78,-0.3,-1.22,-0.205,4.67,4.0,5404.0,69.935,71.86,
2025-08-15T01:00:19.745Z,9,GR86-004-78,-6.9,-1.286,-0.444,3.97,4.0,,71.05,72.21000000000001,169.14
2025-08-15T01:00:19.788Z,9,GR86-004-78,-8.4,-1.257,-0.424,3.43,4.0,,70.805,72.15,
2025-08-15T01:00:19.831Z,9,GR86-004-78,-3.6,-0.907,-0.481,3.26,4.0,,66.93,67.265,
2025-08-15T01:00:19.874Z,9,GR86-004-78,1.5,-0.977,-0.491,3.14,4.0,,57.18,57.895,
2025-08-15T01:00:19.917Z,9,GR86-004-78,5.800000000000001,-0.8310000000000001,-0.382,3.0,4.0,5237.0,49.67,51.245000000000005,
2025-08-15T01:00:19.960Z,9,GR86-004-78,6.5,-0.874,-0.399,2.88,4.0,,43.23,44.74,161.55
2025-08-15T01:00:20.003Z,9,GR86-004-78,2.4000000000000004,-0.941,-0.414,32.77,4.0,,41.89,42.895,
2025-08-15T01:00:20.047Z,9,GR86-004-78,-13.0,-0.907,-0.53,92.06,3.0,,43.92,44.16,
2025-08-15T01:00:20.090Z,9,GR86-004-78,-13.4,-1.044,-0.597,37.65,3.0,,46.77,46.77,
2025-08-15T01:00:20.133Z,9,GR86-004-78,-8.4,-1.046,-0.492,3.8,3.0,5772.0,50.94,52.115,
2025-08-15T01:00:20.176Z,9,GR86-004-78,-2.7,-0.962,-0.551,3.13,3.0,,53.09,54.355,154.3
2025-08-15T01:00:20.219Z,9,GR86-004-78,-1.1,-0.969,-0.528,2.98,3.0,,52.74,53.335,
2025-08-15T01:00:20.262Z,9,GR86-004-78,-1.3,-1.153,-0.428,2.81,3.0,,50.785,51.775,
2025-08-15T01:00:20.306Z,9,GR86-004-78,-1.3,-0.849,-0.646,2.66,3.0,,46.925,47.995000000000005,
2025-08-15T01:00:20.349Z,9,GR86-004-78,-2.3000000000000003,-0.839,-0.656,2.56,3.0,5546.0,43.645,44.5,
2025-08-15T01:00:20.392Z,9,GR86-004-78,-8.6,-0.891,-0.629,2.47,3.0,,41.765,42.12,148.14
2025-08-15T01:00:20.435Z,9,GR86-004-78,-14.6,-0.77,-0.754,2.43,3.0,,41.43,41.49,
2025-08-15T01:00:20.478Z,9,GR86-004-78,-15.6,-0.725,-0.808,7.77,3.0,,38.775,39.43,
2025-08-15T01:00:20.521Z,9,GR86-004-78,-14.4,-0.733,-0.772,50.58,3.0,,34.52,35.800000000000004,
2025-08-15T01:00:20.564Z,9,GR86-004-78,-16.7,-0.737,-0.756,61.21,2.0,6192.0,32.475,33.525,
2025-08-15T01:00:20.607Z,9,GR86-004-78,-23.700000000000003,-0.952,-0.656,4.71,2.0,,30.52,31.925,141.9
2025-08-15T01:00:20.651Z,9,GR86-004-78,-25.0,-0.812,-0.89,3.86,2.0,,28.995,29.985,
2025-08-15T01:00:20.694Z,9,GR86-004-78,-22.1,-0.858,-0.973,3.48,2.0,,24.37,25.18,
2025-08-15T01:00:20.737Z,9,GR86-004-78,-16.2,-0.625,-0.887,3.29,2.0,,19.64,20.555,
2025-08-15T01:00:20.780Z,9,GR86-004-78,-11.3,-0.485,-0.891,3.19,2.0,6040.0,14.68,15.475,
2025-08-15T01:00:20.823Z,9,GR86-004-78,-6.4,-0.535,-1.063,3.0700000000000003,2.0,,8.18,8.76,136.1
2025-08-15T01:00:20.868Z,9,GR86-004-78,-0.2,-0.343,-0.924,2.81,2.0,,0.0,0.0,
2025-08-15T01:00:20.912Z,9,GR86-004-78,3.1,-0.228,-0.987,2.71,2.0,,0.0,0.0,
2025-08-15T01:00:20.955Z,9,GR86-004-78,5.4,-0.182,-0.946,8.3,2.0,,0.0,0.0,
2025-08-15T01:00:20.998Z,9,GR86-004-78,4.0,-0.212,-0.883,21.08,2.0,6354.0,0.0,0.0,
2025-08-15T01:00:21.041Z,9,GR86-004-78,-11.2,-0.22,-0.961,27.39,2.0,,0.0,0.0,131.11
2025-08-15T01:00:21.084Z,9,GR86-004-78,-31.0,-0.133,-0.973,29.47,2.0,,0.0,0.0,
2025-08-15T01:00:21.127Z,9,GR86-004-78,-59.400000000000006,-0.113,-1.021,30.81,2.0,,0.0,0.0,
2025-08-15T01:00:21.171Z,9,GR86-004-78,-64.9,-0.108,-1.027,32.01,2.0,,0.0,0.0,
2025-08-15T01:00:21.214Z,9,GR86-004-78,-63.3,0.13,-1.084,32.52,2.0,6687.0,0.0,0.0,
2025-08-15T01:00:21.257Z,9,GR86-004-78,-56.5,0.23,-1.069,32.7,2.0,,0.0,0.0,127.03
2025-08-15T01:00:21.300Z,9,GR86-004-78,-52.2,0.138,-1.133,35.09,2.0,,0.0,0.0,
2025-08-15T01:00:21.343Z,9,GR86-004-78,-50.1,0.03,-1.118,40.21,2.0,,0.0,0.0,
2025-08-15T01:00:21.386Z,9,GR86-004-78,-45.900000000000006,0.017,-1.127,58.14,2.0,,0.0,0.0,
2025-08-15T01:00:21.429Z,9,GR86-004-78,-42.5,0.108,-1.307,74.12,2.0,6939.0,0.0,0.0,
2025-08-15T01:00:21.472Z,9,GR86-004-78,-40.8,0.181,-1.116,83.86,2.0,,0.0,0.0,121.98
2025-08-15T01:00:21.515Z,9,GR86-004-78,-37.1,0.185,-1.294,90.18,2.0,,0.0,0.0,
2025-08-15T01:00:21.558Z,9,GR86-004-78,-35.7,0.232,-1.247,85.85000000000001,2.0,,0.0,0.0,
2025-08-15T01:00:21.602Z,9,GR86-004-78,-38.5,0.192,-1.176,83.04,2.0,,0.0,0.0,
2025-08-15T01:00:21.645Z,9,GR86-004-78,-41.2,0.174,-1.207,84.99,2.0,7108.0,0.0,0.0,
2025-08-15T01:00:21.688Z,9,GR86-004-78,-37.6,0.238,-1.218,99.84,2.0,,0.0,0.0,123.44
2025-08-15T01:00:21.731Z,9,GR86-004-78,-33.4,0.206,-1.224,99.79,2.0,,0.0,0.0,
2025-08-15T01:00:21.774Z,9,GR86-004-78,-26.0,0.259,-1.263,99.81,2.0,,0.0,0.0,
2025-08-15T01:00:21.817Z,9,GR86-004-78,-17.900000000000002,0.234,-1.139,99.84,2.0,,0.0,0.0,
2025-08-15T01:00:21.860Z,9,GR86-004-78,-8.0,0.042,-1.275,99.82,3.0,7231.0,0.0,0.0,
2025-08-15T01:00:21.903Z,9,GR86-004-78,-0.3,0.437,-0.931,83.36,3.0,,0.0,0.0,124.17
2025-08-15T01:00:21.946Z,9,GR86-004-78,-3.2,0.061,-1.045,78.55,3.0,,0.0,0.0,
2025-08-15T01:00:22.034Z,9,GR86-004-78,-18.9,0.02,-0.8320000000000001,96.4,3.0,,0.0,0.0,
2025-08-15T01:00:22.078Z,9,GR86-004-78,-40.8,0.255,-1.132,92.55,3.0,6982.0,0.0,0.0,
2025-08-15T01:00:22.121Z,9,GR86-004-78,-36.3,0.283,-1.47,97.99,3.0,,0.0,0.0,124.55
2025-08-15T01:00:22.164Z,9,GR86-004-78,-25.200000000000003,0.455,-1.492,93.95,3.0,,0.0,0.0,
2025-08-15T01:00:22.207Z,9,GR86-004-78,-14.8,-0.05,-1.344,87.88,3.0,,0.0,0.0,
2025-08-15T01:00:22.250Z,9,GR86-004-78,-14.6,-0.032,-1.106,99.17,3.0,,0.0,0.0,
2025-08-15T01:00:22.293Z,9,GR86-004-78,-10.4,-0.025,-1.034,99.76,3.0,6444.0,0.0,0.0,
2025-08-15T01:00:22.380Z,9,GR86-004-78,9.0,0.182,-0.972,96.89,3.0,,0.0,0.0,125.12
2025-08-15T01:00:22.423Z,9,GR86-004-78,10.8,0.399,-1.16,98.99,3.0,,0.0,0.0,
2025-08-15T01:00:22.468Z,9,GR86-004-78,-6.0,0.039,-1.062,99.81,3.0,,0.0,0.0,
2025-08-15T01:00:22.512Z,9,GR86-004-78,-21.0,-0.073,-1.34,99.8,3.0,6118.0,0.0,0.0,
2025-08-15T01:00:22.555Z,9,GR86-004-78,-24.4,0.021,-1.222,99.79,3.0,,0.0,0.0,126.19
2025-08-15T01:00:22.598Z,9,GR86-004-78,-20.8,0.121,-1.353,99.8,3.0,,0.0,0.0,
2025-08-15T01:00:22.641Z,9,GR86-004-78,-18.0,0.223,-1.367,99.8,3.0,,0.0,0.0,
2025-08-15T01:00:22.684Z,9,GR86-004-78,-21.700000000000003,0.217,-1.204,99.81,3.0,,0.0,0.0,
2025-08-15T01:00:22.727Z,9,GR86-004-78,-29.200000000000003,0.151,-1.237,99.81,3.0,6299.0,0.0,0.0,
2025-08-15T01:00:22.771Z,9,GR86-004-78,-27.5,0.161,-1.146,99.8,3.0,,0.0,0.0,126.57
2025-08-15T01:00:22.814Z,9,GR86-004-78,-23.700000000000003,0.185,-1.222,99.8,3.0,,0.0,0.0,
2025-08-15T01:00:22.857Z,9,GR86-004-78,-23.9,0.191,-1.212,99.81,3.0,,0.0,0.0,
2025-08-15T01:00:22.900Z,9,GR86-004-78,-28.5,0.172,-1.342,99.81,3.0,,0.0,0.0,
2025-08-15T01:00:22.943Z,9,GR86-004-78,-33.9,0.202,-1.307,99.8,3.0,6134.0,0.0,0.0,
2025-08-15T01:00:22.986Z,9,GR86-004-78,-36.7,0.174,-1.236,99.79,3.0,,0.0,0.0,127.41
2025-08-15T01:00:23.029Z,9,GR86-004-78,-35.1,0.169,-1.239,99.8,3.0,,0.0,0.0,
2025-08-15T01:00:23.072Z,9,GR86-004-78,-32.4,0.175,-1.225,99.8,3.0,,0.0,0.0,
2025-08-15T01:00:23.115Z,9,GR86-004-78,-29.200000000000003,0.186,-1.236,99.81,3.0,,0.0,0.0,
2025-08-15T01:00:23.158Z,9,GR86-004-78,-26.9,0.196,-1.231,99.8,3.0,6155.0,0.0,0.0,
2025-08-15T01:00:23.202Z,9,GR86-004-78,-26.700000000000003,0.191,-1.156,99.8,3.0,,0.0,0.0,126.88
2025-08-15T01:00:23.245Z,9,GR86-004-78,-28.5,0.153,-1.215,99.81,3.0,,0.0,0.0,
2025-08-15T01:00:23.288Z,9,GR86-004-78,-34.1,0.173,-1.256,99.81,3.0,,0.0,0.0,
2025-08-15T01:00:23.331Z,9,GR86-004-78,-37.2,0.192,-1.239,99.8,3.0,,0.0,0.0,
2025-08-15T01:00:23.374Z,9,GR86-004-78,-37.9,0.18,-1.242,99.8,3.0,6148.0,0.0,0.0,
2025-08-15T01:00:23.417Z,9,GR86-004-78,-36.4,0.149,-1.242,99.79,3.0,,0.0,0.0,127.36
2025-08-15T01:00:23.460Z,9,GR86-004-78,-32.7,0.165,-1.205,99.8,3.0,,0.0,0.0,
2025-08-15T01:00:23.503Z,9,GR86-004-78,-29.9,0.184,-1.196,99.82,3.0,,0.0,0.0,
2025-08-15T01:00:23.546Z,9,GR86-004-78,-25.4,0.188,-1.158,99.8,3.0,,0.0,0.0,
2025-08-15T01:00:23.589Z,9,GR86-004-78,-24.3,0.18,-1.142,99.8,3.0,6164.0,0.0,0.0,
2025-08-15T01:00:23.632Z,9,GR86-004-78,-23.8,0.178,-1.132,99.81,3.0,,0.0,0.0,128.07
2025-08-15T01:00:23.675Z,9,GR86-004-78,-23.1,0.184,-1.122,99.79,3.0,,0.0,0.0,
2025-08-15T01:00:23.718Z,9,GR86-004-78,-21.700000000000003,0.182,-1.148,99.8,3.0,,0.0,0.0,
2025-08-15T01:00:23.761Z,9,GR86-004-78,-19.200000000000003,0.192,-1.113,99.8,3.0,,0.0,0.0,
2025-08-15T01:00:23.804Z,9,GR86-004-78,-18.1,0.198,-1.061,99.8,3.0,6179.0,0.0,0.0,
2025-08-15T01:00:23.890Z,9,GR86-004-78,-17.6,0.181,-1.024,99.8,3.0,,0.0,0.0,129.05
2025-08-15T01:00:23.933Z,9,GR86-004-78,-16.8,0.209,-1.033,99.8,3.0,,0.0,0.0,
2025-08-15T01:00:23.976Z,9,GR86-004-78,-15.7,0.193,-0.993,99.8,3.0,,0.0,0.0,
2025-08-15T01:00:24.019Z,9,GR86-004-78,-14.0,0.179,-0.93,99.82,3.0,6206.0,0.0,0.0,
2025-08-15T01:00:24.062Z,9,GR86-004-78,-11.5,0.202,-0.89,99.81,3.0,,0.0,0.0,130.06
2025-08-15T01:00:24.105Z,9,GR86-004-78,-10.4,0.188,-0.863,99.8,3.0,,0.0,0.0,
2025-08-15T01:00:24.148Z,9,GR86-004-78,-9.5,0.226,-0.705,99.79,3.0,,0.0,0.0,
2025-08-15T01:00:24.191Z,9,GR86-004-78,-10.4,0.122,-0.665,99.8,3.0,,0.0,0.0,
2025-08-15T01:00:24.234Z,9,GR86-004-78,-11.6,0.107,-0.54,99.8,3.0,6234.0,0.0,0.0,
2025-08-15T01:00:24.277Z,9,GR86-004-78,-12.7,0.161,-0.55,99.81,3.0,,0.0,0.0,132.12
2025-08-15T01:00:24.320Z,9,GR86-004-78,-13.7,0.21,-0.541,99.81,3.0,,0.0,0.0,
2025-08-15T01:00:24.363Z,9,GR86-004-78,-15.5,0.293,-0.507,99.8,3.0,,0.0,0.0,
2025-08-15T01:00:24.406Z,9,GR86-004-78,-18.9,0.128,-0.506,99.81,3.0,,0.0,0.0,
2025-08-15T01:00:24.449Z,9,GR86-004-78,-19.1,0.26,-0.624,99.82,3.0,6273.0,0.0,0.0,
2025-08-15T01:00:24.492Z,9,GR86-004-78,-18.8,0.232,-0.531,99.8,3.0,,0.0,0.0,133.62
2025-08-15T01:00:24.535Z,9,GR86-004-78,-19.200000000000003,0.116,-0.675,99.8,3.0,,0.0,0.0,
2025-08-15T01:00:24.578Z,9,GR86-004-78,-19.8,0.17,-0.872,99.8,3.0,,0.0,0.0,
2025-08-15T01:00:24.621Z,9,GR86-004-78,-19.6,0.165,-0.972,99.8,3.0,,0.0,0.0,
2025-08-15T01:00:24.664Z,9,GR86-004-78,-18.7,0.233,-0.897,99.83,3.0,6326.0,0.0,0.0,
2025-08-15T01:00:24.707Z,9,GR86-004-78,-16.400000000000002,0.099,-0.89,99.81,3.0,,0.0,0.0,134.74
2025-08-15T01:00:24.750Z,9,GR86-004-78,-15.2,0.219,-0.788,99.8,3.0,,0.0,0.0,
2025-08-15T01:00:24.837Z,9,GR86-004-78,-15.0,0.171,-0.8240000000000001,99.81,3.0,,0.0,0.0,
2025-08-15T01:00:24.880Z,9,GR86-004-78,-15.0,0.149,-0.964,99.8,3.0,6431.0,0.0,0.0,
2025-08-15T01:00:24.923Z,9,GR86-004-78,-14.0,0.185,-1.029,99.81,3.0,,0.0,0.0,136.1
2025-08-15T01:00:24.968Z,9,GR86-004-78,-11.0,0.143,-1.045,99.8,3.0,,0.0,0.0,
2025-08-15T01:00:25.012Z,9,GR86-004-78,-10.3,0.243,-1.015,99.81,3.0,,0.0,0.0,
2025-08-15T01:00:25.055Z,9,GR86-004-78,-10.1,0.245,-0.841,99.82,3.0,,0.0,0.0,
2025-08-15T01:00:25.141Z,9,GR86-004-78,-12.1,0.124,-0.8320000000000001,99.82,3.0,6543.0,0.0,0.0,136.81
2025-08-15T01:00:25.184Z,9,GR86-004-78,-14.0,0.163,-0.8210000000000001,99.8,3.0,,0.0,0.0,
2025-08-15T01:00:25.228Z,9,GR86-004-78,-13.2,0.202,-0.888,99.8,3.0,,0.0,0.0,
2025-08-15T01:00:25.271Z,9,GR86-004-78,-10.0,0.252,-0.584,99.81,3.0,,0.0,0.0,
2025-08-15T01:00:25.314Z,9,GR86-004-78,-8.700000000000001,0.208,-0.709,99.8,3.0,6546.0,0.0,0.0,
2025-08-15T01:00:25.357Z,9,GR86-004-78,-8.1,0.169,-0.612,99.8,3.0,,0.0,0.0,137.99
2025-08-15T01:00:25.400Z,9,GR86-004-78,-7.7,0.102,-0.727,99.8,3.0,,0.0,0.0,
2025-08-15T01:00:25.443Z,9,GR86-004-78,-5.9,0.291,-0.524,99.8,3.0,,0.0,0.0,
2025-08-15T01:00:25.486Z,9,GR86-004-78,-1.3,0.245,-0.548,99.8,3.0,,0.0,0.0,
2025-08-15T01:00:25.530Z,9,GR86-004-78,0.5,0.214,-0.342,99.81,3.0,6569.0,0.0,0.0,
2025-08-15T01:00:25.573Z,9,GR86-004-78,0.9,0.14,-0.394,99.8,3.0,,0.0,0.0,138.83
2025-08-15T01:00:25.616Z,9,GR86-004-78,1.0,0.129,-0.36,99.8,3.0,,0.0,0.0,
2025-08-15T01:00:25.659Z,9,GR86-004-78,1.0,0.211,-0.333,99.81,3.0,,0.0,0.0,
2025-08-15T01:00:25.704Z,9,GR86-004-78,1.0,0.234,-0.282,99.81,3.0,,0.0,0.0,
2025-08-15T01:00:25.747Z,9,GR86-004-78,1.0,0.125,-0.076,99.8,3.0,6627.0,0.0,0.0,
2025-08-15T01:00:25.790Z,9,GR86-004-78,1.1,0.076,-0.159,99.81,3.0,,0.0,0.0,140.43
2025-08-15T01:00:25.833Z,9,GR86-004-78,1.8,0.178,-0.09,99.81,3.0,,0.0,0.0,
2025-08-15T01:00:25.876Z,9,GR86-004-78,2.5,0.262,-0.183,99.8,3.0,,0.0,0.0,
2025-08-15T01:00:25.919Z,9,GR86-004-78,2.5,0.28,-0.131,99.81,3.0,,0.0,0.0,
2025-08-15T01:00:25.963Z,9,GR86-004-78,2.3000000000000003,0.134,-0.127,99.81,3.0,6777.0,0.0,0.0,
2025-08-15T01:00:26.006Z,9,GR86-004-78,2.1,0.181,-0.153,99.81,3.0,,0.0,0.0,141.62
2025-08-15T01:00:26.049Z,9,GR86-004-78,2.1,0.26,-0.08,99.82,3.0,,0.0,0.0,
2025-08-15T01:00:26.092Z,9,GR86-004-78,2.5,0.206,-0.026,99.8,3.0,,0.0,0.0,
2025-08-15T01:00:26.135Z,9,GR86-004-78,3.0,0.109,0.041,99.82,3.0,,0.0,0.0,
2025-08-15T01:00:26.178Z,9,GR86-004-78,3.4000000000000004,0.226,0.076,99.8,3.0,6878.0,0.0,0.0,
2025-08-15T01:00:26.221Z,9,GR86-004-78,3.6,0.24,0.123,99.8,3.0,,0.0,0.0,142.89
2025-08-15T01:00:26.264Z,9,GR86-004-78,3.7,0.174,0.151,99.81,3.0,,0.0,0.0,
2025-08-15T01:00:26.307Z,9,GR86-004-78,3.8,0.213,0.21,99.81,3.0,,0.0,0.0,
2025-08-15T01:00:26.350Z,9,GR86-004-78,3.8,0.248,0.2,99.81,3.0,,0.0,0.0,
2025-08-15T01:00:26.393Z,9,GR86-004-78,3.8,0.177,0.167,99.81,3.0,6856.0,0.0,0.0,
2025-08-15T01:00:26.437Z,9,GR86-004-78,3.6,0.106,0.288,99.8,3.0,,0.0,0.0,144.92000000000002
2025-08-15T01:00:26.480Z,9,GR86-004-78,3.1,0.17,0.254,99.81,3.0,,0.0,0.0,
2025-08-15T01:00:26.568Z,9,GR86-004-78,3.2,0.076,0.344,99.82,3.0,,0.0,0.0,
2025-08-15T01:00:26.612Z,9,GR86-004-78,3.6,0.224,0.389,99.81,3.0,6938.0,0.0,0.0,
2025-08-15T01:00:26.655Z,9,GR86-004-78,4.1000000000000005,0.217,0.373,99.83,3.0,,0.0,0.0,146.06
2025-08-15T01:00:26.698Z,9,GR86-004-78,4.3,0.179,0.357,99.8,3.0,,0.0,0.0,
2025-08-15T01:00:26.741Z,9,GR86-004-78,4.4,0.173,0.39,99.8,3.0,,0.0,0.0,
2025-08-15T01:00:26.784Z,9,GR86-004-78,4.4,0.255,0.289,99.81,3.0,,0.0,0.0,
2025-08-15T01:00:26.870Z,9,GR86-004-78,2.9000000000000004,0.225,0.24,99.83,3.0,6948.0,0.0,0.0,148.8
2025-08-15T01:00:26.913Z,9,GR86-004-78,2.8000000000000003,0.196,0.191,99.82,3.0,,0.0,0.0,
2025-08-15T01:00:26.956Z,9,GR86-004-78,2.8000000000000003,0.185,0.144,99.8,3.0,,0.0,0.0,
2025-08-15T01:00:26.999Z,9,GR86-004-78,2.8000000000000003,0.184,0.132,99.8,3.0,,0.0,0.0,
2025-08-15T01:00:27.042Z,9,GR86-004-78,2.5,0.185,0.095,99.8,3.0,7006.0,0.0,0.0,
2025-08-15T01:00:27.086Z,9,GR86-004-78,2.5,0.176,0.041,99.81,3.0,,0.0,0.0,150.82
2025-08-15T01:00:27.129Z,9,GR86-004-78,2.5,0.177,0.027,99.8,3.0,,0.0,0.0,
2025-08-15T01:00:27.172Z,9,GR86-004-78,2.5,0.192,0.03,99.82,3.0,,0.0,0.0,
2025-08-15T01:00:27.215Z,9,GR86-004-78,2.5,0.188,0.027,99.84,3.0,,0.0,0.0,
2025-08-15T01:00:27.258Z,9,GR86-004-78,2.5,0.196,0.022,99.82,3.0,7076.0,0.0,0.0,
2025-08-15T01:00:27.302Z,9,GR86-004-78,2.5,0.174,0.024,99.82,3.0,,0.0,0.0,152.26
2025-08-15T01:00:27.345Z,9,GR86-004-78,2.5,0.155,0.018,99.8,3.0,,0.0,0.0,
2025-08-15T01:00:27.388Z,9,GR86-004-78,2.5,0.188,0.023,99.8,3.0,,0.0,0.0,
2025-08-15T01:00:27.431Z,9,GR86-004-78,2.5,0.172,0.007,99.82,3.0,,0.0,0.0,
2025-08-15T01:00:27.474Z,9,GR86-004-78,2.5,0.171,0.0,99.84,3.0,7216.0,0.0,0.0,
2025-08-15T01:00:27.517Z,9,GR86-004-78,2.5,-0.06,-0.003,99.83,4.0,,0.0,0.0,153.85
2025-08-15T01:00:27.560Z,9,GR86-004-78,2.5,0.1,0.058,99.83,4.0,,0.0,0.0,
2025-08-15T01:00:27.603Z,9,GR86-004-78,2.5,0.302,0.01,99.84,4.0,,0.0,0.0,
2025-08-15T01:00:27.646Z,9,GR86-004-78,2.5,0.29,0.045,99.82,4.0,,0.0,0.0,
2025-08-15T01:00:27.691Z,9,GR86-004-78,2.5,0.133,0.043,99.83,4.0,7287.0,0.0,0.0,
2025-08-15T01:00:27.734Z,9,GR86-004-78,2.5,0.039,-0.054,99.85,4.0,,0.0,0.0,155.44
2025-08-15T01:00:27.778Z,9,GR86-004-78,2.5,0.121,0.046,99.84,4.0,,0.0,0.0,
2025-08-15T01:00:27.821Z,9,GR86-004-78,2.5,0.196,0.045,99.82,4.0,,0.0,0.0,
2025-08-15T01:00:27.864Z,9,GR86-004-78,2.5,0.167,0.016,99.81,4.0,,0.0,0.0,
2025-08-15T01:00:27.907Z,9,GR86-004-78,2.5,0.11,0.046,99.82,4.0,6202.0,0.0,0.0,
2025-08-15T01:00:27.993Z,9,GR86-004-78,2.5,0.122,0.018,99.8,4.0,,0.0,0.0,156.89
2025-08-15T01:00:28.037Z,9,GR86-004-78,2.4000000000000004,0.148,0.03,99.82,4.0,,0.0,0.0,
2025-08-15T01:00:28.080Z,9,GR86-004-78,2.5,0.139,0.012,99.82,4.0,,0.0,0.0,
2025-08-15T01:00:28.123Z,9,GR86-004-78,2.5,0.147,0.001,99.83,4.0,6238.0,0.0,0.0,
2025-08-15T01:00:28.168Z,9,GR86-004-78,2.5,0.142,0.018,99.83,4.0,,0.0,0.0,158.69
2025-08-15T01:00:28.212Z,9,GR86-004-78,2.5,0.14,0.012,99.81,4.0,,0.0,0.0,
2025-08-15T01:00:28.255Z,9,GR86-004-78,2.5,0.154,0.019,99.83,4.0,,0.0,0.0,
2025-08-15T01:00:28.298Z,9,GR86-004-78,2.5,0.137,0.017,99.82,4.0,,0.0,0.0,
2025-08-15T01:00:28.341Z,9,GR86-004-78,2.5,0.138,0.022,99.82,4.0,6307.0,0.0,0.0,
2025-08-15T01:00:28.384Z,9,GR86-004-78,2.5,0.154,0.0,99.83,4.0,,0.0,0.0,160.25
2025-08-15T01:00:28.427Z,9,GR86-004-78,2.5,0.128,0.024,99.85,4.0,,0.0,0.0,
2025-08-15T01:00:28.470Z,9,GR86-004-78,2.5,0.153,0.015,99.83,4.0,,0.0,0.0,
2025-08-15T01:00:28.513Z,9,GR86-004-78,2.5,0.15,0.032,99.81,4.0,,0.0,0.0,
2025-08-15T01:00:28.556Z,9,GR86-004-78,2.5,0.159,0.015,99.84,4.0,6365.0,0.0,0.0,
2025-08-15T01:00:28.599Z,9,GR86-004-78,2.5,0.137,0.019,99.81,4.0,,0.0,0.0,161.73
2025-08-15T01:00:28.642Z,9,GR86-004-78,2.5,0.118,-0.001,99.83,4.0,,0.0,0.0,
2025-08-15T01:00:28.685Z,9,GR86-004-78,2.4000000000000004,0.123,0.004,99.83,4.0,,0.0,0.0,
2025-08-15T01:00:28.728Z,9,GR86-004-78,0.4,0.153,-0.006,99.84,4.0,,0.0,0.0,
2025-08-15T01:00:28.771Z,9,GR86-004-78,-0.6000000000000001,0.147,-0.033,99.8,4.0,6410.0,0.0,0.0,
2025-08-15T01:00:28.814Z,9,GR86-004-78,-0.8,0.144,-0.054,99.8,4.0,,0.0,0.0,163.20000000000002
2025-08-15T01:00:28.857Z,9,GR86-004-78,-0.8,0.131,-0.077,99.84,4.0,,0.0,0.0,
2025-08-15T01:00:28.900Z,9,GR86-004-78,-0.8,0.122,-0.09,99.82,4.0,,0.0,0.0,
2025-08-15T01:00:28.986Z,9,GR86-004-78,-1.0,0.125,-0.111,99.84,4.0,6486.0,0.0,0.0,
2025-08-15T01:00:29.029Z,9,GR86-004-78,-1.3,0.145,-0.162,99.8,4.0,,0.0,0.0,164.66
2025-08-15T01:00:29.072Z,9,GR86-004-78,-1.4,0.14,-0.165,99.83,4.0,,0.0,0.0,
2025-08-15T01:00:29.116Z,9,GR86-004-78,-1.6,0.141,-0.172,99.85,4.0,,0.0,0.0,
2025-08-15T01:00:29.159Z,9,GR86-004-78,-1.6,0.127,-0.189,99.84,4.0,,0.0,0.0,
2025-08-15T01:00:29.202Z,9,GR86-004-78,-1.7000000000000002,0.125,-0.194,99.82,4.0,6536.0,0.0,0.0,
2025-08-15T01:00:29.245Z,9,GR86-004-78,-1.9,0.125,-0.198,99.8,4.0,,0.0,0.0,166.18
2025-08-15T01:00:29.288Z,9,GR86-004-78,-2.7,0.146,-0.225,99.83,4.0,,0.0,0.0,
2025-08-15T01:00:29.331Z,9,GR86-004-78,-3.3000000000000003,0.137,-0.238,99.84,4.0,,0.0,0.0,
2025-08-15T01:00:29.374Z,9,GR86-004-78,-3.7,0.142,-0.258,99.82,4.0,,0.0,0.0,
2025-08-15T01:00:29.417Z,9,GR86-004-78,-4.0,0.135,-0.268,99.8,4.0,6593.0,0.0,0.0,
2025-08-15T01:00:29.460Z,9,GR86-004-78,-4.1000000000000005,0.142,-0.27,99.82,4.0,,0.0,0.0,167.64
2025-08-15T01:00:29.503Z,9,GR86-004-78,-4.2,0.114,-0.28,99.83,4.0,,0.0,0.0,
2025-08-15T01:00:29.546Z,9,GR86-004-78,-4.3,0.132,-0.293,99.83,4.0,,0.0,0.0,
2025-08-15T01:00:29.589Z,9,GR86-004-78,-4.3,0.142,-0.313,99.84,4.0,,0.0,0.0,
2025-08-15T01:00:29.632Z,9,GR86-004-78,-4.2,0.152,-0.33,99.83,4.0,6649.0,0.0,0.0,
2025-08-15T01:00:29.675Z,9,GR86-004-78,-3.9,0.148,-0.354,99.82,4.0,,0.0,0.0,170.45000000000002
2025-08-15T01:00:29.718Z,9,GR86-004-78,-3.8,0.143,-0.346,99.81,4.0,,0.0,0.0,
2025-08-15T01:00:29.761Z,9,GR86-004-78,-3.7,0.144,-0.336,99.83,4.0,,0.0,0.0,
2025-08-15T01:00:29.804Z,9,GR86-004-78,-3.8,0.131,-0.338,99.84,4.0,,0.0,0.0,
2025-08-15T01:00:29.847Z,9,GR86-004-78,-3.8,0.136,-0.291,99.82,4.0,6700.0,0.0,0.0,
2025-08-15T01:00:29.890Z,9,GR86-004-78,-3.8,0.127,-0.284,99.82,4.0,,0.0,0.0,171.66
2025-08-15T01:00:29.933Z,9,GR86-004-78,-3.7,0.151,-0.267,99.84,4.0,,0.0,0.0,
2025-08-15T01:00:29.976Z,9,GR86-004-78,-3.7,0.143,-0.259,99.8,4.0,,0.0,0.0,
2025-08-15T01:00:30.019Z,9,GR86-004-78,-3.8,0.142,-0.246,99.81,4.0,,0.0,0.0,
2025-08-15T01:00:30.062Z,9,GR86-004-78,-3.9,0.135,-0.232,99.83,4.0,6758.0,0.0,0.0,
2025-08-15T01:00:30.105Z,9,GR86-004-78,-4.1000000000000005,0.141,-0.241,99.83,4.0,,0.0,0.0,173.11
2025-08-15T01:00:30.148Z,9,GR86-004-78,-4.4,0.131,-0.249,99.8,4.0,,0.0,0.0,
2025-08-15T01:00:30.191Z,9,GR86-004-78,-4.4,0.123,-0.276,99.82,4.0,,0.0,0.0,
2025-08-15T01:00:30.234Z,9,GR86-004-78,-4.4,0.116,-0.301,99.84,4.0,,0.0,0.0,
2025-08-15T01:00:30.277Z,9,GR86-004-78,-4.3,0.12,-0.315,99.83,4.0,6854.0,0.0,0.0,
2025-08-15T01:00:30.320Z,9,GR86-004-78,-4.3,0.132,-0.331,99.82,4.0,,0.0,0.0,174.42000000000002
2025-08-15T01:00:30.363Z,9,GR86-004-78,-4.1000000000000005,0.122,-0.32,99.83,4.0,,0.0,0.0,
2025-08-15T01:00:30.406Z,9,GR86-004-78,-3.7,0.128,-0.326,99.8,4.0,,0.0,0.0,
2025-08-15T01:00:30.449Z,9,GR86-004-78,-3.0,0.129,-0.288,99.8,4.0,,0.0,0.0,
2025-08-15T01:00:30.535Z,9,GR86-004-78,-2.3000000000000003,0.128,-0.248,99.84,4.0,6908.0,0.0,0.0,175.73
2025-08-15T01:00:30.578Z,9,GR86-004-78,-2.1,0.122,-0.189,99.81,4.0,,0.0,0.0,
2025-08-15T01:00:30.621Z,9,GR86-004-78,-2.1,0.138,-0.159,98.68,4.0,,0.0,0.0,
2025-08-15T01:00:30.664Z,9,GR86-004-78,-2.1,0.101,-0.115,43.61,4.0,,0.0,0.0,
2025-08-15T01:00:30.707Z,9,GR86-004-78,-3.7,0.088,-0.119,5.58,4.0,6963.0,12.45,12.74,
2025-08-15T01:00:30.751Z,9,GR86-004-78,-4.5,-0.195,-0.14,5.12,4.0,,28.52,28.645,177.1
2025-08-15T01:00:30.794Z,9,GR86-004-78,-3.6,-0.782,-0.117,4.8,4.0,,50.13,49.765,
2025-08-15T01:00:30.837Z,9,GR86-004-78,0.1,-1.119,-0.098,4.2700000000000005,4.0,,70.15,69.615,
2025-08-15T01:00:30.880Z,9,GR86-004-78,1.5,-1.274,-0.067,3.67,4.0,,84.02,83.99,
2025-08-15T01:00:30.923Z,9,GR86-004-78,1.5,-1.41,-0.053,3.35,4.0,7018.0,92.69,94.4,
2025-08-15T01:00:30.968Z,9,GR86-004-78,1.6,-1.484,-0.18,3.17,4.0,,95.71,96.075,178.20000000000002
2025-08-15T01:00:31.012Z,9,GR86-004-78,2.5,-1.41,-0.134,3.04,4.0,,98.685,100.67,
2025-08-15T01:00:31.055Z,9,GR86-004-78,3.9,-1.339,-0.199,2.88,4.0,,99.68,100.52,
2025-08-15T01:00:31.098Z,9,GR86-004-78,3.8,-1.252,-0.191,2.75,4.0,,98.395,98.745,
2025-08-15T01:00:31.141Z,9,GR86-004-78,-4.4,-1.394,-0.217,2.67,4.0,6535.0,98.78,98.685,
2025-08-15T01:00:31.184Z,9,GR86-004-78,-14.0,-1.423,-0.355,10.99,4.0,,102.105,103.19,177.20000000000002
2025-08-15T01:00:31.228Z,9,GR86-004-78,-11.9,-1.359,-0.446,58.75,3.0,,100.61,101.86,
2025-08-15T01:00:31.314Z,9,GR86-004-78,12.3,-1.301,-0.177,4.61,3.0,,103.965,105.8,
2025-08-15T01:00:31.357Z,9,GR86-004-78,12.9,-1.321,-0.192,3.91,3.0,6249.0,103.22,105.22,
2025-08-15T01:00:31.443Z,9,GR86-004-78,13.0,-1.253,-0.039,3.35,3.0,,88.58500000000001,90.765,167.5
2025-08-15T01:00:31.486Z,9,GR86-004-78,12.3,-1.205,-0.25,3.13,3.0,,84.355,84.68,
2025-08-15T01:00:31.530Z,9,GR86-004-78,5.800000000000001,-1.34,-0.139,2.98,3.0,,84.02,84.115,
2025-08-15T01:00:31.573Z,9,GR86-004-78,2.4000000000000004,-1.194,-0.225,2.82,3.0,5921.0,85.93,87.365,
2025-08-15T01:00:31.616Z,9,GR86-004-78,2.2,-1.14,-0.366,2.72,3.0,,84.235,85.38,158.76
2025-08-15T01:00:31.659Z,9,GR86-004-78,2.5,-1.123,-0.27,23.16,3.0,,79.365,80.16,
2025-08-15T01:00:31.703Z,9,GR86-004-78,2.5,-1.172,-0.269,67.13,3.0,,70.775,72.76,
2025-08-15T01:00:31.747Z,9,GR86-004-78,1.7000000000000002,-1.276,-0.221,25.19,2.0,,58.4,59.515,
2025-08-15T01:00:31.833Z,9,GR86-004-78,-10.3,-1.237,-0.379,3.58,2.0,6405.0,58.905,60.14,149.5
2025-08-15T01:00:31.876Z,9,GR86-004-78,-14.9,-1.187,-0.456,3.3200000000000003,2.0,,58.845,60.02,
2025-08-15T01:00:31.919Z,9,GR86-004-78,-13.8,-0.958,-0.496,3.19,2.0,,53.775,54.86,
2025-08-15T01:00:31.962Z,9,GR86-004-78,-9.0,-0.977,-0.728,3.0700000000000003,2.0,,44.775,45.52,
2025-08-15T01:00:32.048Z,9,GR86-004-78,-4.7,-0.899,-0.597,2.88,2.0,6111.0,36.245,36.7,140.98
2025-08-15T01:00:32.091Z,9,GR86-004-78,-4.3,-0.643,-0.779,2.62,2.0,,24.31,25.21,
2025-08-15T01:00:32.134Z,9,GR86-004-78,-10.7,-0.66,-0.779,2.5,2.0,,23.685,24.34,
2025-08-15T01:00:32.177Z,9,GR86-004-78,-13.3,-0.617,-0.901,2.43,2.0,,23.775,24.37,
2025-08-15T01:00:32.220Z,9,GR86-004-78,-13.8,-0.612,-0.836,2.41,2.0,6708.0,23.485,24.17,
2025-08-15T01:00:32.263Z,9,GR86-004-78,-13.4,-0.664,-0.862,2.4,2.0,,21.38,22.25,134.66
2025-08-15T01:00:32.306Z,9,GR86-004-78,-8.700000000000001,-0.56,-0.807,2.41,2.0,,17.185,18.055,
2025-08-15T01:00:32.349Z,9,GR86-004-78,-7.9,-0.511,-0.791,2.4,2.0,,15.565,16.28,
2025-08-15T01:00:32.392Z,9,GR86-004-78,-12.9,-0.542,-0.8220000000000001,2.41,2.0,,14.94,15.595,
2025-08-15T01:00:32.435Z,9,GR86-004-78,-20.5,-0.531,-0.846,2.41,2.0,7046.0,14.48,15.09,
2025-08-15T01:00:32.478Z,9,GR86-004-78,-24.8,-0.472,-0.938,2.43,2.0,,13.675,14.27,125.35
2025-08-15T01:00:32.521Z,9,GR86-004-78,-24.9,-0.469,-0.904,2.43,2.0,,12.33,13.015,
2025-08-15T01:00:32.564Z,9,GR86-004-78,-25.1,-0.43,-0.896,2.43,2.0,,11.49,12.175,
2025-08-15T01:00:32.607Z,9,GR86-004-78,-31.1,-0.409,-0.952,2.43,2.0,,10.68,11.34,
2025-08-15T01:00:32.650Z,9,GR86-004-78,-35.2,-0.431,-1.013,2.43,2.0,6791.0,10.53,11.095,
2025-08-15T01:00:32.693Z,9,GR86-004-78,-35.9,-0.48,-1.042,2.44,2.0,,11.155,11.705,121.49
2025-08-15T01:00:32.736Z,9,GR86-004-78,-33.5,-0.436,-1.071,2.45,2.0,,11.615,12.145,
2025-08-15T01:00:32.779Z,9,GR86-004-78,-30.8,-0.445,-1.046,2.47,2.0,,11.84,12.24,
2025-08-15T01:00:32.822Z,9,GR86-004-78,-31.0,-0.422,-1.093,2.46,2.0,,11.935,12.45,
2025-08-15T01:00:32.868Z,9,GR86-004-78,-36.2,-0.43,-1.143,2.47,2.0,6493.0,11.78,12.24,
2025-08-15T01:00:32.911Z,9,GR86-004-78,-36.7,-0.423,-1.143,2.47,2.0,,11.49,12.145,118.44
2025-08-15T01:00:32.954Z,9,GR86-004-78,-33.9,-0.413,-1.13,2.47,2.0,,11.275,11.705,
2025-08-15T01:00:32.997Z,9,GR86-004-78,-31.3,-0.397,-1.198,2.47,2.0,,7.95,8.67,
2025-08-15T01:00:33.040Z,9,GR86-004-78,-30.700000000000003,-0.304,-1.227,2.48,2.0,,2.52,2.915,
2025-08-15T01:00:33.083Z,9,GR86-004-78,-31.200000000000003,-0.217,-1.311,2.47,2.0,6327.0,0.0,0.0,
2025-08-15T01:00:33.126Z,9,GR86-004-78,-32.5,-0.202,-1.29,2.49,2.0,,0.0,0.0,115.79
2025-08-15T01:00:33.169Z,9,GR86-004-78,-31.4,-0.176,-1.279,2.49,2.0,,0.0,0.0,
2025-08-15T01:00:33.212Z,9,GR86-004-78,-31.5,-0.175,-1.267,2.49,2.0,,0.0,0.0,
2025-08-15T01:00:33.255Z,9,GR86-004-78,-37.8,-0.178,-1.298,2.53,2.0,,0.0,0.0,
2025-08-15T01:00:33.298Z,9,GR86-004-78,-49.0,-0.213,-1.35,2.53,2.0,6147.0,0.0,0.0,
2025-08-15T01:00:33.341Z,9,GR86-004-78,-59.400000000000006,-0.21,-1.383,2.53,2.0,,0.0,0.0,112.96
2025-08-15T01:00:33.384Z,9,GR86-004-78,-63.7,-0.214,-1.426,2.53,2.0,,0.0,0.0,
2025-08-15T01:00:33.427Z,9,GR86-004-78,-62.1,-0.228,-1.39,2.53,2.0,,0.0,0.0,
2025-08-15T01:00:33.471Z,9,GR86-004-78,-58.5,-0.219,-1.468,2.53,2.0,,0.0,0.0,
2025-08-15T01:00:33.557Z,9,GR86-004-78,-49.900000000000006,-0.194,-1.448,29.19,2.0,6107.0,0.0,0.0,111.4
2025-08-15T01:00:33.600Z,9,GR86-004-78,-41.0,-0.186,-1.373,34.34,2.0,,0.0,0.0,
2025-08-15T01:00:33.686Z,9,GR86-004-78,-18.7,-0.073,-1.319,85.42,2.0,,0.0,0.0,
2025-08-15T01:00:33.729Z,9,GR86-004-78,-20.8,0.203,-1.232,99.58,2.0,6012.0,0.0,0.0,
2025-08-15T01:00:33.772Z,9,GR86-004-78,-34.2,0.3,-1.172,99.75,2.0,,0.0,0.0,109.44
2025-08-15T01:00:33.816Z,9,GR86-004-78,-49.1,0.288,-1.31,99.76,2.0,,0.0,0.0,
2025-08-15T01:00:33.902Z,9,GR86-004-78,-61.1,0.28,-1.232,99.76,2.0,,0.0,0.0,
2025-08-15T01:00:33.945Z,9,GR86-004-78,-64.9,0.021,-1.193,99.77,2.0,6101.0,0.0,0.0,
2025-08-15T01:00:33.988Z,9,GR86-004-78,-55.900000000000006,0.16,-1.061,99.79,2.0,,0.0,0.0,107.76
2025-08-15T01:00:34.031Z,9,GR86-004-78,-44.1,0.136,-1.12,99.77,2.0,,0.0,0.0,
2025-08-15T01:00:34.074Z,9,GR86-004-78,-28.0,0.012,-1.037,99.78,2.0,,0.0,0.0,
2025-08-15T01:00:34.117Z,9,GR86-004-78,-10.6,-0.003,-1.062,99.78,2.0,,0.0,0.0,
2025-08-15T01:00:34.160Z,9,GR86-004-78,1.7000000000000002,0.208,-1.017,88.76,2.0,6371.0,0.0,0.0,
2025-08-15T01:00:34.203Z,9,GR86-004-78,2.9000000000000004,0.495,-1.049,91.32,2.0,,0.0,0.0,106.8
2025-08-15T01:00:34.248Z,9,GR86-004-78,-14.2,-0.075,-0.985,92.57,2.0,,0.0,0.0,
2025-08-15T01:00:34.334Z,9,GR86-004-78,-23.700000000000003,0.176,-1.269,97.53,2.0,,0.0,0.0,
2025-08-15T01:00:34.378Z,9,GR86-004-78,-20.4,0.359,-1.242,99.54,2.0,6543.0,0.0,0.0,
2025-08-15T01:00:34.421Z,9,GR86-004-78,-9.7,0.498,-1.296,99.75,2.0,,0.0,0.0,106.89
2025-08-15T01:00:34.464Z,9,GR86-004-78,7.2,0.316,-1.115,98.49,2.0,,0.0,0.0,
2025-08-15T01:00:34.507Z,9,GR86-004-78,20.700000000000003,0.052,-1.032,99.65,2.0,,0.0,0.0,
2025-08-15T01:00:34.550Z,9,GR86-004-78,14.0,0.477,-1.035,99.72,2.0,,0.0,0.0,
2025-08-15T01:00:34.594Z,9,GR86-004-78,-10.7,0.598,-1.019,99.77,2.0,6603.0,0.0,0.0,
2025-08-15T01:00:34.637Z,9,GR86-004-78,-37.7,0.529,-1.1,99.77,2.0,,0.0,0.0,108.33
2025-08-15T01:00:34.680Z,9,GR86-004-78,-52.8,0.378,-1.141,99.74,2.0,,0.0,0.0,
2025-08-15T01:00:34.723Z,9,GR86-004-78,-52.2,0.163,-1.474,99.76,2.0,,0.0,0.0,
2025-08-15T01:00:34.768Z,9,GR86-004-78,-39.900000000000006,0.167,-1.296,99.77,2.0,,0.0,0.0,
2025-08-15T01:00:34.811Z,9,GR86-004-78,-37.4,0.18,-1.177,99.78,2.0,6563.0,0.0,0.0,
2025-08-15T01:00:34.897Z,9,GR86-004-78,-32.7,0.227,-1.138,99.76,2.0,,0.0,0.0,109.47
2025-08-15T01:00:34.940Z,9,GR86-004-78,-22.0,0.302,-1.102,99.8,2.0,,0.0,0.0,
2025-08-15T01:00:34.983Z,9,GR86-004-78,-10.1,0.274,-1.107,99.77,2.0,,0.0,0.0,
2025-08-15T01:00:35.026Z,9,GR86-004-78,-5.9,0.234,-1.092,99.8,2.0,6664.0,0.0,0.0,
2025-08-15T01:00:35.069Z,9,GR86-004-78,-12.2,0.227,-1.182,99.79,2.0,,0.0,0.0,110.87
2025-08-15T01:00:35.112Z,9,GR86-004-78,-21.200000000000003,0.247,-1.226,99.78,2.0,,0.0,0.0,
2025-08-15T01:00:35.155Z,9,GR86-004-78,-23.1,0.215,-1.325,99.78,2.0,,0.0,0.0,
2025-08-15T01:00:35.198Z,9,GR86-004-78,-15.7,0.218,-1.327,99.8,2.0,,0.0,0.0,
2025-08-15T01:00:35.241Z,9,GR86-004-78,-3.7,0.265,-1.295,99.8,2.0,6728.0,0.0,0.0,
2025-08-15T01:00:35.284Z,9,GR86-004-78,7.5,0.272,-1.208,99.78,2.0,,0.0,0.0,112.29
2025-08-15T01:00:35.327Z,9,GR86-004-78,19.6,0.261,-1.126,99.8,2.0,,0.0,0.0,
2025-08-15T01:00:35.370Z,9,GR86-004-78,22.700000000000003,0.244,-0.993,99.8,2.0,,0.0,0.0,
2025-08-15T01:00:35.413Z,9,GR86-004-78,24.3,0.244,-0.997,99.77,2.0,,0.0,0.0,
2025-08-15T01:00:35.456Z,9,GR86-004-78,25.5,0.257,-1.023,99.77,2.0,6753.0,0.0,0.0,
2025-08-15T01:00:35.499Z,9,GR86-004-78,25.6,0.308,-0.991,99.77,2.0,,0.0,0.0,113.73
2025-08-15T01:00:35.542Z,9,GR86-004-78,18.1,0.316,-0.974,99.77,2.0,,0.0,0.0,
2025-08-15T01:00:35.585Z,9,GR86-004-78,0.9,0.274,-1.069,99.81,2.0,,0.0,0.0,
2025-08-15T01:00:35.628Z,9,GR86-004-78,-22.6,0.236,-1.119,99.77,2.0,,0.0,0.0,
2025-08-15T01:00:35.671Z,9,GR86-004-78,-26.200000000000003,0.245,-1.103,99.78,2.0,6901.0,0.0,0.0,
2025-08-15T01:00:35.714Z,9,GR86-004-78,-22.4,0.254,-1.132,99.77,2.0,,0.0,0.0,114.82
2025-08-15T01:00:35.757Z,9,GR86-004-78,-19.700000000000003,0.226,-1.026,99.77,2.0,,0.0,0.0,
2025-08-15T01:00:35.800Z,9,GR86-004-78,-22.1,0.252,-1.057,99.77,2.0,,0.0,0.0,
2025-08-15T01:00:35.843Z,9,GR86-004-78,-27.700000000000003,0.286,-1.097,99.8,2.0,,0.0,0.0,
2025-08-15T01:00:35.886Z,9,GR86-004-78,-30.5,0.266,-1.096,99.77,2.0,6887.0,0.0,0.0,
2025-08-15T01:00:35.930Z,9,GR86-004-78,-29.1,0.24,-1.082,99.78,2.0,,0.0,0.0,115.05
2025-08-15T01:00:35.973Z,9,GR86-004-78,-28.8,0.23,-1.124,99.77,2.0,,0.0,0.0,
2025-08-15T01:00:36.016Z,9,GR86-004-78,-28.6,0.229,-1.099,99.77,2.0,,0.0,0.0,
2025-08-15T01:00:36.059Z,9,GR86-004-78,-26.700000000000003,0.237,-1.106,99.77,2.0,,0.0,0.0,
2025-08-15T01:00:36.102Z,9,GR86-004-78,-26.4,0.237,-1.095,99.82,2.0,6925.0,0.0,0.0,
2025-08-15T01:00:36.145Z,9,GR86-004-78,-28.6,0.233,-1.048,99.8,2.0,,0.0,0.0,116.1
2025-08-15T01:00:36.188Z,9,GR86-004-78,-30.4,0.231,-1.066,99.8,2.0,,0.0,0.0,
2025-08-15T01:00:36.231Z,9,GR86-004-78,-27.5,0.211,-1.078,99.78,2.0,,0.0,0.0,
2025-08-15T01:00:36.274Z,9,GR86-004-78,-22.3,0.186,-1.084,99.79,2.0,,0.0,0.0,
2025-08-15T01:00:36.317Z,9,GR86-004-78,-15.5,0.225,-0.952,99.79,2.0,6960.0,0.0,0.0,
2025-08-15T01:00:36.360Z,9,GR86-004-78,-12.0,0.177,-0.97,99.81,2.0,,0.0,0.0,117.64
2025-08-15T01:00:36.403Z,9,GR86-004-78,-12.4,0.167,-0.871,99.8,2.0,,0.0,0.0,
2025-08-15T01:00:36.446Z,9,GR86-004-78,-22.700000000000003,0.274,-0.664,99.79,2.0,,0.0,0.0,
2025-08-15T01:00:36.489Z,9,GR86-004-78,-30.4,0.295,-0.715,99.81,2.0,,0.0,0.0,
2025-08-15T01:00:36.532Z,9,GR86-004-78,-33.6,0.237,-0.748,99.81,2.0,7035.0,0.0,0.0,
2025-08-15T01:00:36.575Z,9,GR86-004-78,-32.300000000000004,0.019,-0.845,99.77,2.0,,0.0,0.0,119.17
2025-08-15T01:00:36.618Z,9,GR86-004-78,-26.3,-0.075,-0.922,99.81,3.0,,0.0,0.0,
2025-08-15T01:00:36.662Z,9,GR86-004-78,-20.6,0.432,-0.872,99.8,3.0,,0.0,0.0,
2025-08-15T01:00:36.705Z,9,GR86-004-78,-16.0,0.456,-0.994,99.81,3.0,,0.0,0.0,
2025-08-15T01:00:36.748Z,9,GR86-004-78,-9.5,0.296,-0.895,99.8,3.0,7089.0,0.0,0.0,
2025-08-15T01:00:36.791Z,9,GR86-004-78,-7.1000000000000005,0.173,-0.768,99.81,3.0,,0.0,0.0,121.1
2025-08-15T01:00:36.834Z,9,GR86-004-78,-6.9,0.154,-0.919,99.8,3.0,,0.0,0.0,
2025-08-15T01:00:36.877Z,9,GR86-004-78,-6.300000000000001,0.164,-0.889,99.79,3.0,,0.0,0.0,
2025-08-15T01:00:36.920Z,9,GR86-004-78,-4.3,0.236,-0.803,99.8,3.0,,0.0,0.0,
2025-08-15T01:00:36.964Z,9,GR86-004-78,-3.5,0.333,-0.711,99.79,3.0,6393.0,0.0,0.0,
2025-08-15T01:00:37.007Z,9,GR86-004-78,-3.6,0.122,-0.61,99.8,3.0,,0.0,0.0,122.02
2025-08-15T01:00:37.050Z,9,GR86-004-78,-7.800000000000001,0.157,-0.582,99.8,3.0,,0.0,0.0,
2025-08-15T01:00:37.094Z,9,GR86-004-78,-9.8,0.221,-0.653,99.81,3.0,,0.0,0.0,
2025-08-15T01:00:37.137Z,9,GR86-004-78,-10.4,0.236,-0.588,99.81,3.0,,0.0,0.0,
2025-08-15T01:00:37.180Z,9,GR86-004-78,-10.2,0.246,-0.709,99.82,3.0,5892.0,0.0,0.0,
2025-08-15T01:00:37.223Z,9,GR86-004-78,-9.7,0.273,-0.507,99.82,3.0,,0.0,0.0,123.6
2025-08-15T01:00:37.268Z,9,GR86-004-78,-11.3,0.121,-0.626,99.8,3.0,,0.0,0.0,
2025-08-15T01:00:37.311Z,9,GR86-004-78,-10.8,0.261,-0.295,99.82,3.0,,0.0,0.0,
2025-08-15T01:00:37.354Z,9,GR86-004-78,-7.5,0.183,-0.364,99.81,3.0,,0.0,0.0,
2025-08-15T01:00:37.397Z,9,GR86-004-78,-4.7,0.342,-0.336,99.82,3.0,5956.0,0.0,0.0,
2025-08-15T01:00:37.441Z,9,GR86-004-78,-3.0,0.271,-0.276,99.81,3.0,,0.0,0.0,124.97
2025-08-15T01:00:37.484Z,9,GR86-004-78,-1.2000000000000002,0.19,-0.122,99.81,3.0,,0.0,0.0,
2025-08-15T01:00:37.528Z,9,GR86-004-78,3.6,0.145,-0.059,99.8,3.0,,0.0,0.0,
2025-08-15T01:00:37.571Z,9,GR86-004-78,5.9,0.264,-0.067,99.79,3.0,,0.0,0.0,
2025-08-15T01:00:37.614Z,9,GR86-004-78,5.9,0.244,-0.039,99.8,3.0,5955.0,0.0,0.0,
2025-08-15T01:00:37.657Z,9,GR86-004-78,3.4000000000000004,0.224,-0.124,99.8,3.0,,0.0,0.0,126.61
2025-08-15T01:00:37.700Z,9,GR86-004-78,2.4000000000000004,0.127,0.021,99.81,3.0,,0.0,0.0,
2025-08-15T01:00:37.743Z,9,GR86-004-78,2.5,0.205,0.079,99.81,3.0,,0.0,0.0,
2025-08-15T01:00:37.786Z,9,GR86-004-78,2.6,0.266,0.15,99.79,3.0,,0.0,0.0,
2025-08-15T01:00:37.830Z,9,GR86-004-78,2.6,0.222,0.187,99.8,3.0,5979.0,0.0,0.0,
2025-08-15T01:00:37.873Z,9,GR86-004-78,2.5,0.243,0.201,99.8,3.0,,0.0,0.0,129.29
2025-08-15T01:00:37.916Z,9,GR86-004-78,2.4000000000000004,0.181,0.168,99.81,3.0,,0.0,0.0,
2025-08-15T01:00:37.959Z,9,GR86-004-78,2.4000000000000004,0.181,0.175,99.81,3.0,,0.0,0.0,
2025-08-15T01:00:38.002Z,9,GR86-004-78,2.4000000000000004,0.193,0.146,99.8,3.0,,0.0,0.0,
2025-08-15T01:00:38.045Z,9,GR86-004-78,2.3000000000000003,0.237,0.082,99.8,3.0,6026.0,0.0,0.0,
2025-08-15T01:00:38.088Z,9,GR86-004-78,2.1,0.204,0.055,99.81,3.0,,0.0,0.0,130.47
2025-08-15T01:00:38.131Z,9,GR86-004-78,2.1,0.195,0.028,99.81,3.0,,0.0,0.0,
2025-08-15T01:00:38.174Z,9,GR86-004-78,2.1,0.198,0.011,99.81,3.0,,0.0,0.0,
2025-08-15T01:00:38.217Z,9,GR86-004-78,2.1,0.201,0.003,99.81,3.0,,0.0,0.0,
2025-08-15T01:00:38.260Z,9,GR86-004-78,2.1,0.226,-0.019,99.79,3.0,6129.0,0.0,0.0,
2025-08-15T01:00:38.303Z,9,GR86-004-78,2.1,0.202,-0.046,99.8,3.0,,0.0,0.0,132.22
2025-08-15T01:00:38.347Z,9,GR86-004-78,2.1,0.213,-0.039,99.81,3.0,,0.0,0.0,
2025-08-15T01:00:38.390Z,9,GR86-004-78,2.1,0.201,-0.027,99.81,3.0,,0.0,0.0,
2025-08-15T01:00:38.433Z,9,GR86-004-78,2.1,0.189,-0.008,99.81,3.0,,0.0,0.0,
2025-08-15T01:00:38.476Z,9,GR86-004-78,2.1,0.203,0.0,99.8,3.0,6260.0,0.0,0.0,
2025-08-15T01:00:38.519Z,9,GR86-004-78,2.1,0.21,-0.032,99.81,3.0,,0.0,0.0,133.49
2025-08-15T01:00:38.563Z,9,GR86-004-78,2.1,0.201,-0.02,99.8,3.0,,0.0,0.0,
2025-08-15T01:00:38.606Z,9,GR86-004-78,2.1,0.196,-0.019,99.8,3.0,,0.0,0.0,
2025-08-15T01:00:38.649Z,9,GR86-004-78,2.1,0.185,0.003,99.8,3.0,,0.0,0.0,
2025-08-15T01:00:38.692Z,9,GR86-004-78,2.1,0.191,0.023,99.8,3.0,6327.0,0.0,0.0,
2025-08-15T01:00:38.735Z,9,GR86-004-78,2.1,0.224,0.004,99.82,3.0,,0.0,0.0,134.94
2025-08-15T01:00:38.778Z,9,GR86-004-78,2.1,0.197,0.009,99.8,3.0,,0.0,0.0,
2025-08-15T01:00:38.821Z,9,GR86-004-78,2.1,0.176,0.007,99.83,3.0,,0.0,0.0,
2025-08-15T01:00:38.864Z,9,GR86-004-78,2.1,0.17,0.022,99.81,3.0,,0.0,0.0,
2025-08-15T01:00:38.907Z,9,GR86-004-78,2.1,0.184,0.01,99.81,3.0,6388.0,0.0,0.0,
2025-08-15T01:00:38.950Z,9,GR86-004-78,2.1,0.221,0.038,99.8,3.0,,0.0,0.0,136.38
2025-08-15T01:00:38.993Z,9,GR86-004-78,2.1,0.211,0.03,99.82,3.0,,0.0,0.0,
2025-08-15T01:00:39.036Z,9,GR86-004-78,2.1,0.167,0.017,99.81,3.0,,0.0,0.0,
2025-08-15T01:00:39.079Z,9,GR86-004-78,2.1,0.178,0.027,99.82,3.0,,0.0,0.0,
2025-08-15T01:00:39.122Z,9,GR86-004-78,2.1,0.202,0.029,99.8,3.0,6450.0,0.0,0.0,
2025-08-15T01:00:39.165Z,9,GR86-004-78,2.1,0.214,0.023,99.8,3.0,,0.0,0.0,137.75
2025-08-15T01:00:39.208Z,9,GR86-004-78,2.1,0.2,0.03,99.81,3.0,,0.0,0.0,
2025-08-15T01:00:39.251Z,9,GR86-004-78,2.1,0.217,0.03,99.81,3.0,,0.0,0.0,
2025-08-15T01:00:39.294Z,9,GR86-004-78,2.1,0.193,0.017,99.81,3.0,,0.0,0.0,
2025-08-15T01:00:39.337Z,9,GR86-004-78,2.1,0.167,0.017,99.81,3.0,6509.0,0.0,0.0,
2025-08-15T01:00:39.380Z,9,GR86-004-78,2.1,0.177,0.04,99.81,3.0,,0.0,0.0,139.04
2025-08-15T01:00:39.423Z,9,GR86-004-78,2.1,0.227,0.025,99.81,3.0,,0.0,0.0,
2025-08-15T01:00:39.468Z,9,GR86-004-78,2.1,0.221,0.035,99.8,3.0,,0.0,0.0,
2025-08-15T01:00:39.512Z,9,GR86-004-78,2.1,0.217,0.018,99.8,3.0,,0.0,0.0,
2025-08-15T01:00:39.555Z,9,GR86-004-78,2.1,0.181,0.016,99.8,3.0,6580.0,0.0,0.0,
2025-08-15T01:00:39.598Z,9,GR86-004-78,2.1,0.167,0.013,99.81,3.0,,0.0,0.0,140.38
2025-08-15T01:00:39.641Z,9,GR86-004-78,2.1,0.19,0.014,99.82,3.0,,0.0,0.0,
2025-08-15T01:00:39.684Z,9,GR86-004-78,2.1,0.217,0.037,99.81,3.0,,0.0,0.0,
2025-08-15T01:00:39.727Z,9,GR86-004-78,2.1,0.193,0.028,99.81,3.0,,0.0,0.0,
2025-08-15T01:00:39.771Z,9,GR86-004-78,2.1,0.205,0.034,99.82,3.0,6647.0,0.0,0.0,
2025-08-15T01:00:39.814Z,9,GR86-004-78,2.1,0.196,0.018,99.81,3.0,,0.0,0.0,141.70000000000002
2025-08-15T01:00:39.857Z,9,GR86-004-78,2.1,0.179,0.007,99.8,3.0,,0.0,0.0,
2025-08-15T01:00:39.900Z,9,GR86-004-78,2.1,0.166,0.016,99.8,3.0,,0.0,0.0,
2025-08-15T01:00:39.943Z,9,GR86-004-78,2.1,0.188,0.014,99.8,3.0,,0.0,0.0,
2025-08-15T01:00:39.986Z,9,GR86-004-78,2.2,0.161,0.005,99.8,3.0,6703.0,0.0,0.0,
2025-08-15T01:00:40.029Z,9,GR86-004-78,2.1,0.19,0.011,99.8,3.0,,0.0,0.0,143.08
2025-08-15T01:00:40.072Z,9,GR86-004-78,2.2,0.224,0.01,99.82,3.0,,0.0,0.0,
2025-08-15T01:00:40.116Z,9,GR86-004-78,2.1,0.198,0.002,99.81,3.0,,0.0,0.0,
2025-08-15T01:00:40.159Z,9,GR86-004-78,2.1,0.162,-0.008,99.79,3.0,,0.0,0.0,
2025-08-15T01:00:40.202Z,9,GR86-004-78,2.1,0.16,0.003,99.8,3.0,6762.0,0.0,0.0,
2025-08-15T01:00:40.245Z,9,GR86-004-78,2.1,0.196,-0.005,99.8,3.0,,0.0,0.0,144.36
2025-08-15T01:00:40.288Z,9,GR86-004-78,2.1,0.165,-0.009,99.8,3.0,,0.0,0.0,
2025-08-15T01:00:40.331Z,9,GR86-004-78,2.1,0.179,-0.008,99.81,3.0,,0.0,0.0,
2025-08-15T01:00:40.374Z,9,GR86-004-78,1.9,0.195,-0.023,99.81,3.0,,0.0,0.0,
2025-08-15T01:00:40.417Z,9,GR86-004-78,0.6000000000000001,0.2,-0.056,99.78,3.0,6821.0,0.0,0.0,
2025-08-15T01:00:40.460Z,9,GR86-004-78,0.2,0.18,-0.091,99.79,3.0,,0.0,0.0,145.65
2025-08-15T01:00:40.503Z,9,GR86-004-78,0.2,0.158,-0.078,99.8,3.0,,0.0,0.0,
2025-08-15T01:00:40.546Z,9,GR86-004-78,0.3,0.181,-0.088,99.8,3.0,,0.0,0.0,
2025-08-15T01:00:40.591Z,9,GR86-004-78,0.3,0.15,-0.105,99.82,3.0,,0.0,0.0,
2025-08-15T01:00:40.634Z,9,GR86-004-78,0.3,0.154,-0.129,99.81,3.0,6876.0,0.0,0.0,
2025-08-15T01:00:40.721Z,9,GR86-004-78,0.3,0.216,-0.132,99.81,3.0,,0.0,0.0,148.09
2025-08-15T01:00:40.764Z,9,GR86-004-78,0.3,0.198,-0.119,99.81,3.0,,0.0,0.0,
2025-08-15T01:00:40.807Z,9,GR86-004-78,0.4,0.196,-0.114,99.8,3.0,,0.0,0.0,
2025-08-15T01:00:40.850Z,9,GR86-004-78,0.4,0.209,-0.106,99.82,3.0,6939.0,0.0,0.0,
2025-08-15T01:00:40.894Z,9,GR86-004-78,0.4,0.192,-0.112,99.8,3.0,,0.0,0.0,149.32
2025-08-15T01:00:40.937Z,9,GR86-004-78,0.5,0.154,-0.093,99.8,3.0,,0.0,0.0,
2025-08-15T01:00:40.980Z,9,GR86-004-78,0.5,0.145,-0.086,99.82,3.0,,0.0,0.0,
2025-08-15T01:00:41.023Z,9,GR86-004-78,0.5,0.181,-0.082,99.8,3.0,,0.0,0.0,
2025-08-15T01:00:41.068Z,9,GR86-004-78,0.5,0.151,-0.098,99.8,3.0,7049.0,0.0,0.0,
2025-08-15T01:00:41.111Z,9,GR86-004-78,0.5,0.149,-0.086,99.8,3.0,,0.0,0.0,150.47
2025-08-15T01:00:41.154Z,9,GR86-004-78,0.5,0.177,-0.068,99.8,3.0,,0.0,0.0,
2025-08-15T01:00:41.197Z,9,GR86-004-78,0.5,0.203,-0.058,99.8,3.0,,0.0,0.0,
2025-08-15T01:00:41.240Z,9,GR86-004-78,0.6000000000000001,0.195,-0.053,99.81,3.0,,0.0,0.0,
2025-08-15T01:00:41.283Z,9,GR86-004-78,0.7000000000000001,0.179,-0.068,99.81,3.0,7096.0,0.0,0.0,
2025-08-15T01:00:41.326Z,9,GR86-004-78,0.8,0.19,-0.066,99.81,3.0,,0.0,0.0,151.67000000000002
2025-08-15T01:00:41.369Z,9,GR86-004-78,0.8,0.175,-0.073,99.8,3.0,,0.0,0.0,
2025-08-15T01:00:41.412Z,9,GR86-004-78,0.7000000000000001,0.148,-0.073,99.83,3.0,,0.0,0.0,
2025-08-15T01:00:41.455Z,9,GR86-004-78,0.5,0.154,-0.067,99.8,3.0,,0.0,0.0,
2025-08-15T01:00:41.498Z,9,GR86-004-78,0.5,0.16,-0.063,99.81,3.0,7160.0,0.0,0.0,
2025-08-15T01:00:41.541Z,9,GR86-004-78,0.6000000000000001,0.154,-0.066,99.8,3.0,,0.0,0.0,152.89
2025-08-15T01:00:41.584Z,9,GR86-004-78,0.7000000000000001,0.172,-0.079,99.81,3.0,,0.0,0.0,
2025-08-15T01:00:41.627Z,9,GR86-004-78,0.8,0.145,-0.071,99.81,3.0,,0.0,0.0,
2025-08-15T01:00:41.671Z,9,GR86-004-78,0.8,0.17,-0.06,99.8,3.0,,0.0,0.0,
2025-08-15T01:00:41.714Z,9,GR86-004-78,0.8,0.193,-0.059,99.79,3.0,7217.0,0.0,0.0,
2025-08-15T01:00:41.800Z,9,GR86-004-78,0.9,0.042,-0.09,99.81,4.0,,0.0,0.0,154.03
2025-08-15T01:00:41.843Z,9,GR86-004-78,0.9,-0.048,-0.037,99.82,4.0,,0.0,0.0,
2025-08-15T01:00:41.886Z,9,GR86-004-78,0.9,0.253,-0.1,99.81,4.0,,0.0,0.0,
2025-08-15T01:00:41.930Z,9,GR86-004-78,0.8,0.303,-0.038,99.82,4.0,7268.0,0.0,0.0,
2025-08-15T01:00:41.973Z,9,GR86-004-78,0.9,0.155,-0.001,99.8,4.0,,0.0,0.0,155.15
2025-08-15T01:00:42.016Z,9,GR86-004-78,1.0,0.027,-0.108,99.8,4.0,,0.0,0.0,
2025-08-15T01:00:42.059Z,9,GR86-004-78,1.0,0.089,-0.031,99.81,4.0,,0.0,0.0,
2025-08-15T01:00:42.102Z,9,GR86-004-78,1.0,0.199,-0.016,99.82,4.0,,0.0,0.0,
2025-08-15T01:00:42.145Z,9,GR86-004-78,1.0,0.181,-0.078,99.81,4.0,6711.0,0.0,0.0,
2025-08-15T01:00:42.188Z,9,GR86-004-78,1.0,0.1,-0.045,99.81,4.0,,0.0,0.0,156.28
2025-08-15T01:00:42.231Z,9,GR86-004-78,0.9,0.122,-0.084,99.81,4.0,,0.0,0.0,
2025-08-15T01:00:42.274Z,9,GR86-004-78,1.0,0.162,-0.059,99.81,4.0,,0.0,0.0,
2025-08-15T01:00:42.317Z,9,GR86-004-78,1.0,0.164,-0.071,99.8,4.0,,0.0,0.0,
2025-08-15T01:00:42.360Z,9,GR86-004-78,0.9,0.143,-0.06,99.81,4.0,6245.0,0.0,0.0,
2025-08-15T01:00:42.403Z,9,GR86-004-78,1.0,0.156,-0.071,99.79,4.0,,0.0,0.0,157.4
2025-08-15T01:00:42.446Z,9,GR86-004-78,1.0,0.158,-0.045,99.81,4.0,,0.0,0.0,
2025-08-15T01:00:42.489Z,9,GR86-004-78,1.0,0.149,-0.063,99.81,4.0,,0.0,0.0,
2025-08-15T01:00:42.532Z,9,GR86-004-78,1.0,0.143,-0.079,99.8,4.0,,0.0,0.0,
2025-08-15T01:00:42.576Z,9,GR86-004-78,1.0,0.138,-0.068,99.81,4.0,6247.0,0.0,0.0,
2025-08-15T01:00:42.619Z,9,GR86-004-78,1.0,0.142,-0.043,99.8,4.0,,0.0,0.0,158.49
2025-08-15T01:00:42.662Z,9,GR86-004-78,1.0,0.141,-0.02,99.8,4.0,,0.0,0.0,
2025-08-15T01:00:42.706Z,9,GR86-004-78,1.0,0.142,-0.033,99.81,4.0,,0.0,0.0,
2025-08-15T01:00:42.749Z,9,GR86-004-78,1.0,0.142,-0.056,99.83,4.0,,0.0,0.0,
2025-08-15T01:00:42.792Z,9,GR86-004-78,1.0,0.121,-0.03,99.8,4.0,6267.0,0.0,0.0,
2025-08-15T01:00:42.835Z,9,GR86-004-78,1.0,0.12,-0.023,99.81,4.0,,0.0,0.0,159.41
2025-08-15T01:00:42.878Z,9,GR86-004-78,1.0,0.125,-0.016,99.8,4.0,,0.0,0.0,
2025-08-15T01:00:42.921Z,9,GR86-004-78,1.0,0.151,-0.015,99.81,4.0,,0.0,0.0,
2025-08-15T01:00:42.964Z,9,GR86-004-78,1.0,0.149,-0.024,99.8,4.0,,0.0,0.0,
2025-08-15T01:00:43.007Z,9,GR86-004-78,1.0,0.12,-0.031,99.81,4.0,6296.0,0.0,0.0,
2025-08-15T01:00:43.050Z,9,GR86-004-78,1.0,0.121,-0.02,99.81,4.0,,0.0,0.0,160.29
2025-08-15T01:00:43.094Z,9,GR86-004-78,1.0,0.136,-0.034,99.82,4.0,,0.0,0.0,
2025-08-15T01:00:43.137Z,9,GR86-004-78,1.0,0.149,-0.04,99.8,4.0,,0.0,0.0,
2025-08-15T01:00:43.180Z,9,GR86-004-78,1.0,0.141,-0.048,99.81,4.0,,0.0,0.0,
2025-08-15T01:00:43.223Z,9,GR86-004-78,1.0,0.132,-0.076,99.8,4.0,6342.0,0.0,0.0,
2025-08-15T01:00:43.268Z,9,GR86-004-78,1.0,0.127,-0.041,99.8,4.0,,0.0,0.0,162.02
2025-08-15T01:00:43.312Z,9,GR86-004-78,0.9,0.132,-0.057,99.81,4.0,,0.0,0.0,
2025-08-15T01:00:43.355Z,9,GR86-004-78,0.9,0.149,-0.069,99.81,4.0,,0.0,0.0,
2025-08-15T01:00:43.398Z,9,GR86-004-78,0.9,0.132,-0.068,99.81,4.0,,0.0,0.0,
2025-08-15T01:00:43.441Z,9,GR86-004-78,0.9,0.135,-0.099,99.8,4.0,6377.0,0.0,0.0,
2025-08-15T01:00:43.484Z,9,GR86-004-78,0.9,0.125,-0.097,99.8,4.0,,0.0,0.0,163.0
2025-08-15T01:00:43.528Z,9,GR86-004-78,0.9,0.137,-0.087,99.8,4.0,,0.0,0.0,
2025-08-15T01:00:43.571Z,9,GR86-004-78,0.8,0.14,-0.086,99.81,4.0,,0.0,0.0,
2025-08-15T01:00:43.614Z,9,GR86-004-78,0.8,0.137,-0.094,99.81,4.0,,0.0,0.0,
2025-08-15T01:00:43.657Z,9,GR86-004-78,0.7000000000000001,0.117,-0.11,99.8,4.0,6404.0,0.0,0.0,
2025-08-15T01:00:43.700Z,9,GR86-004-78,0.6000000000000001,0.12,-0.109,99.81,4.0,,0.0,0.0,163.93
2025-08-15T01:00:43.743Z,9,GR86-004-78,0.7000000000000001,0.121,-0.124,99.8,4.0,,0.0,0.0,
2025-08-15T01:00:43.786Z,9,GR86-004-78,0.6000000000000001,0.142,-0.127,99.8,4.0,,0.0,0.0,
2025-08-15T01:00:43.830Z,9,GR86-004-78,0.6000000000000001,0.123,-0.132,99.81,4.0,,0.0,0.0,
2025-08-15T01:00:43.873Z,9,GR86-004-78,0.6000000000000001,0.119,-0.14,99.81,4.0,6488.0,0.0,0.0,
2025-08-15T01:00:43.916Z,9,GR86-004-78,0.6000000000000001,0.122,-0.128,99.8,4.0,,0.0,0.0,164.91
2025-08-15T01:00:43.959Z,9,GR86-004-78,0.7000000000000001,0.119,-0.109,99.8,4.0,,0.0,0.0,
2025-08-15T01:00:44.002Z,9,GR86-004-78,0.6000000000000001,0.114,-0.103,99.81,4.0,,0.0,0.0,
2025-08-15T01:00:44.045Z,9,GR86-004-78,0.6000000000000001,0.134,-0.093,99.81,4.0,,0.0,0.0,
2025-08-15T01:00:44.088Z,9,GR86-004-78,0.6000000000000001,0.138,-0.105,99.81,4.0,6522.0,0.0,0.0,
2025-08-15T01:00:44.131Z,9,GR86-004-78,0.6000000000000001,0.118,-0.12,99.8,4.0,,0.0,0.0,165.91
2025-08-15T01:00:44.174Z,9,GR86-004-78,0.6000000000000001,0.115,-0.111,99.8,4.0,,0.0,0.0,
2025-08-15T01:00:44.217Z,9,GR86-004-78,0.3,0.123,-0.125,99.8,4.0,,0.0,0.0,
2025-08-15T01:00:44.260Z,9,GR86-004-78,0.0,0.115,-0.114,99.81,4.0,,0.0,0.0,
2025-08-15T01:00:44.303Z,9,GR86-004-78,0.0,0.137,-0.123,99.81,4.0,6561.0,0.0,0.0,
2025-08-15T01:00:44.347Z,9,GR86-004-78,0.0,0.12,-0.144,99.8,4.0,,0.0,0.0,166.86
2025-08-15T01:00:44.390Z,9,GR86-004-78,0.0,0.118,-0.149,99.81,4.0,,0.0,0.0,
2025-08-15T01:00:44.433Z,9,GR86-004-78,0.0,0.118,-0.138,99.8,4.0,,0.0,0.0,
2025-08-15T01:00:44.476Z,9,GR86-004-78,0.0,0.104,-0.136,99.81,4.0,,0.0,0.0,
2025-08-15T01:00:44.519Z,9,GR86-004-78,0.0,0.122,-0.165,99.8,4.0,6598.0,0.0,0.0,
2025-08-15T01:00:44.562Z,9,GR86-004-78,0.0,0.119,-0.148,99.79,4.0,,0.0,0.0,167.86
2025-08-15T01:00:44.605Z,9,GR86-004-78,0.0,0.128,-0.122,99.81,4.0,,0.0,0.0,
2025-08-15T01:00:44.648Z,9,GR86-004-78,0.0,0.129,-0.114,99.81,4.0,,0.0,0.0,
2025-08-15T01:00:44.691Z,9,GR86-004-78,0.0,0.093,-0.109,99.8,4.0,,0.0,0.0,
2025-08-15T01:00:44.734Z,9,GR86-004-78,0.0,0.094,-0.126,99.77,4.0,6642.0,0.0,0.0,
2025-08-15T01:00:44.777Z,9,GR86-004-78,0.0,0.113,-0.124,99.81,4.0,,0.0,0.0,168.86
2025-08-15T01:00:44.820Z,9,GR86-004-78,-0.6000000000000001,0.106,-0.122,99.8,4.0,,0.0,0.0,
2025-08-15T01:00:44.863Z,9,GR86-004-78,-1.0,0.114,-0.134,99.8,4.0,,0.0,0.0,
2025-08-15T01:00:44.906Z,9,GR86-004-78,-0.9,0.124,-0.141,99.8,4.0,,0.0,0.0,
2025-08-15T01:00:44.949Z,9,GR86-004-78,-0.8,0.119,-0.128,99.81,4.0,6678.0,0.0,0.0,
2025-08-15T01:00:44.992Z,9,GR86-004-78,-0.8,0.112,-0.118,99.81,4.0,,0.0,0.0,169.9
2025-08-15T01:00:45.035Z,9,GR86-004-78,-0.8,0.093,-0.12,99.82,4.0,,0.0,0.0,
2025-08-15T01:00:45.078Z,9,GR86-004-78,-0.8,0.093,-0.113,99.81,4.0,,0.0,0.0,
2025-08-15T01:00:45.121Z,9,GR86-004-78,-0.8,0.106,-0.123,99.81,4.0,,0.0,0.0,
2025-08-15T01:00:45.164Z,9,GR86-004-78,-0.8,0.092,-0.124,99.81,4.0,6708.0,0.0,0.0,
2025-08-15T01:00:45.207Z,9,GR86-004-78,-0.8,0.124,-0.13,99.78,4.0,,0.0,0.0,170.91
2025-08-15T01:00:45.250Z,9,GR86-004-78,-0.8,0.144,-0.116,99.8,4.0,,0.0,0.0,
2025-08-15T01:00:45.294Z,9,GR86-004-78,-0.8,0.113,-0.114,99.81,4.0,,0.0,0.0,
2025-08-15T01:00:45.337Z,9,GR86-004-78,-0.8,0.124,-0.103,99.8,4.0,,0.0,0.0,
2025-08-15T01:00:45.380Z,9,GR86-004-78,-0.8,0.121,-0.128,99.81,4.0,6748.0,0.0,0.0,
2025-08-15T01:00:45.423Z,9,GR86-004-78,-0.8,0.093,-0.137,99.81,4.0,,0.0,0.0,171.9
2025-08-15T01:00:45.468Z,9,GR86-004-78,-0.8,0.148,-0.156,99.8,4.0,,0.0,0.0,
2025-08-15T01:00:45.511Z,9,GR86-004-78,-0.8,0.152,-0.14,99.77,4.0,,0.0,0.0,
2025-08-15T01:00:45.555Z,9,GR86-004-78,-0.7000000000000001,0.153,-0.134,99.81,4.0,,0.0,0.0,
2025-08-15T01:00:45.598Z,9,GR86-004-78,-0.7000000000000001,0.129,-0.116,99.82,4.0,6784.0,0.0,0.0,
2025-08-15T01:00:45.641Z,9,GR86-004-78,-0.7000000000000001,0.148,-0.119,99.81,4.0,,0.0,0.0,172.74
2025-08-15T01:00:45.684Z,9,GR86-004-78,-0.7000000000000001,0.13,-0.127,99.8,4.0,,0.0,0.0,
2025-08-15T01:00:45.727Z,9,GR86-004-78,-0.7000000000000001,0.101,-0.129,99.81,4.0,,0.0,0.0,
2025-08-15T01:00:45.771Z,9,GR86-004-78,-0.8,0.119,-0.119,99.81,4.0,,0.0,0.0,
2025-08-15T01:00:45.814Z,9,GR86-004-78,-0.9,0.114,-0.129,99.8,4.0,6829.0,0.0,0.0,
2025-08-15T01:00:45.857Z,9,GR86-004-78,-0.9,0.138,-0.143,99.81,4.0,,0.0,0.0,173.58
2025-08-15T01:00:45.900Z,9,GR86-004-78,-0.9,0.121,-0.134,99.8,4.0,,0.0,0.0,
2025-08-15T01:00:45.986Z,9,GR86-004-78,-0.8,0.136,-0.134,99.81,4.0,,0.0,0.0,
2025-08-15T01:00:46.029Z,9,GR86-004-78,-0.8,0.093,-0.126,99.81,4.0,6864.0,0.0,0.0,
2025-08-15T01:00:46.072Z,9,GR86-004-78,-0.7000000000000001,0.108,-0.129,99.81,4.0,,0.0,0.0,175.64
2025-08-15T01:00:46.115Z,9,GR86-004-78,-0.7000000000000001,0.102,-0.144,99.8,4.0,,0.0,0.0,
2025-08-15T01:00:46.158Z,9,GR86-004-78,-0.7000000000000001,0.098,-0.135,99.81,4.0,,0.0,0.0,
2025-08-15T01:00:46.201Z,9,GR86-004-78,-0.7000000000000001,0.113,-0.147,99.81,4.0,,0.0,0.0,
2025-08-15T01:00:46.244Z,9,GR86-004-78,-0.7000000000000001,0.098,-0.157,99.8,4.0,6897.0,0.0,0.0,
2025-08-15T01:00:46.287Z,9,GR86-004-78,-0.7000000000000001,0.128,-0.117,99.78,4.0,,0.0,0.0,176.61
2025-08-15T01:00:46.330Z,9,GR86-004-78,-0.7000000000000001,0.146,-0.129,99.81,4.0,,0.0,0.0,
2025-08-15T01:00:46.373Z,9,GR86-004-78,-0.7000000000000001,0.137,-0.127,99.8,4.0,,0.0,0.0,
2025-08-15T01:00:46.416Z,9,GR86-004-78,-0.7000000000000001,0.134,-0.128,99.8,4.0,,0.0,0.0,
2025-08-15T01:00:46.502Z,9,GR86-004-78,-0.7000000000000001,0.126,-0.129,99.79,4.0,6932.0,0.0,0.0,177.43
2025-08-15T01:00:46.546Z,9,GR86-004-78,-0.9,0.129,-0.099,99.8,4.0,,0.0,0.0,
2025-08-15T01:00:46.591Z,9,GR86-004-78,-1.0,0.102,-0.104,99.8,4.0,,0.0,0.0,
2025-08-15T01:00:46.634Z,9,GR86-004-78,-1.0,0.11,-0.092,99.8,4.0,,0.0,0.0,
2025-08-15T01:00:46.678Z,9,GR86-004-78,-0.8,0.115,-0.117,99.8,4.0,7015.0,0.0,0.0,
2025-08-15T01:00:46.721Z,9,GR86-004-78,-0.8,0.122,-0.106,99.81,4.0,,0.0,0.0,178.43
2025-08-15T01:00:46.764Z,9,GR86-004-78,-0.7000000000000001,0.122,-0.099,99.8,4.0,,0.0,0.0,
2025-08-15T01:00:46.807Z,9,GR86-004-78,-0.7000000000000001,0.11,-0.112,99.79,4.0,,0.0,0.0,
2025-08-15T01:00:46.850Z,9,GR86-004-78,-0.7000000000000001,0.117,-0.116,99.8,4.0,,0.0,0.0,
2025-08-15T01:00:46.894Z,9,GR86-004-78,-0.8,0.114,-0.113,99.8,4.0,7060.0,0.0,0.0,
2025-08-15T01:00:46.937Z,9,GR86-004-78,-0.8,0.113,-0.124,99.82,4.0,,0.0,0.0,179.43
2025-08-15T01:00:46.980Z,9,GR86-004-78,-0.8,0.117,-0.112,99.81,4.0,,0.0,0.0,
2025-08-15T01:00:47.023Z,9,GR86-004-78,-0.8,0.12,-0.117,99.78,4.0,,0.0,0.0,
2025-08-15T01:00:47.068Z,9,GR86-004-78,-0.8,0.115,-0.118,99.8,4.0,,0.0,0.0,
2025-08-15T01:00:47.111Z,9,GR86-004-78,-1.0,0.119,-0.099,99.8,4.0,7093.0,0.0,0.0,
2025-08-15T01:00:47.155Z,9,GR86-004-78,-1.1,0.113,-0.123,99.8,4.0,,0.0,0.0,180.39
2025-08-15T01:00:47.198Z,9,GR86-004-78,-1.1,0.118,-0.148,99.77,4.0,,0.0,0.0,
2025-08-15T01:00:47.241Z,9,GR86-004-78,-1.0,0.121,-0.146,99.81,4.0,,0.0,0.0,
2025-08-15T01:00:47.284Z,9,GR86-004-78,-0.9,0.119,-0.146,99.78,4.0,,0.0,0.0,
2025-08-15T01:00:47.327Z,9,GR86-004-78,-1.0,0.125,-0.179,99.8,4.0,7119.0,0.0,0.0,
2025-08-15T01:00:47.371Z,9,GR86-004-78,-1.0,0.125,-0.171,99.78,4.0,,0.0,0.0,181.34
2025-08-15T01:00:47.414Z,9,GR86-004-78,-1.1,0.116,-0.171,99.8,4.0,,0.0,0.0,
2025-08-15T01:00:47.457Z,9,GR86-004-78,-1.2000000000000002,0.104,-0.165,99.81,4.0,,0.0,0.0,
2025-08-15T01:00:47.500Z,9,GR86-004-78,-1.1,0.125,-0.167,99.8,4.0,,0.0,0.0,
2025-08-15T01:00:47.543Z,9,GR86-004-78,-1.0,0.113,-0.165,99.8,4.0,7161.0,0.0,0.0,
2025-08-15T01:00:47.586Z,9,GR86-004-78,-0.8,0.107,-0.136,99.79,4.0,,0.0,0.0,182.21
2025-08-15T01:00:47.629Z,9,GR86-004-78,-0.7000000000000001,0.113,-0.151,99.81,4.0,,0.0,0.0,
2025-08-15T01:00:47.672Z,9,GR86-004-78,-0.7000000000000001,0.105,-0.139,99.78,4.0,,0.0,0.0,
2025-08-15T01:00:47.715Z,9,GR86-004-78,-0.7000000000000001,0.104,-0.107,99.8,4.0,,0.0,0.0,
2025-08-15T01:00:47.758Z,9,GR86-004-78,-0.6000000000000001,0.117,-0.114,99.81,4.0,7194.0,0.0,0.0,
2025-08-15T01:00:47.802Z,9,GR86-004-78,-0.6000000000000001,0.105,-0.076,99.8,4.0,,0.0,0.0,183.2
2025-08-15T01:00:47.845Z,9,GR86-004-78,-0.6000000000000001,-0.125,-0.072,99.8,5.0,,0.0,0.0,
2025-08-15T01:00:47.888Z,9,GR86-004-78,-0.6000000000000001,0.306,-0.037,99.81,5.0,,0.0,0.0,
2025-08-15T01:00:47.931Z,9,GR86-004-78,-0.5,0.196,-0.154,99.81,5.0,,0.0,0.0,
2025-08-15T01:00:47.974Z,9,GR86-004-78,-0.5,0.161,-0.052,99.8,5.0,7225.0,0.0,0.0,
2025-08-15T01:00:48.017Z,9,GR86-004-78,-0.5,0.017,-0.049,99.8,5.0,,0.0,0.0,184.13
2025-08-15T01:00:48.060Z,9,GR86-004-78,-0.5,0.063,-0.104,99.79,5.0,,0.0,0.0,
2025-08-15T01:00:48.103Z,9,GR86-004-78,-0.5,0.148,-0.047,99.82,5.0,,0.0,0.0,
2025-08-15T01:00:48.146Z,9,GR86-004-78,-0.4,0.091,-0.109,99.8,5.0,,0.0,0.0,
2025-08-15T01:00:48.189Z,9,GR86-004-78,-0.3,0.089,-0.087,99.81,5.0,6903.0,0.0,0.0,
2025-08-15T01:00:48.232Z,9,GR86-004-78,-0.3,0.098,-0.072,99.81,5.0,,0.0,0.0,184.99
2025-08-15T01:00:48.275Z,9,GR86-004-78,-0.3,0.112,-0.087,99.82,5.0,,0.0,0.0,
2025-08-15T01:00:48.362Z,9,GR86-004-78,-0.3,0.095,-0.092,99.8,5.0,,0.0,0.0,
2025-08-15T01:00:48.448Z,9,GR86-004-78,-0.2,0.1,-0.008,99.8,5.0,6363.0,0.0,0.0,185.65
2025-08-15T01:00:48.491Z,9,GR86-004-78,-0.1,0.108,0.022,99.8,5.0,,0.0,0.0,
2025-08-15T01:00:48.534Z,9,GR86-004-78,-0.1,0.105,0.011,99.82,5.0,,0.0,0.0,
2025-08-15T01:00:48.577Z,9,GR86-004-78,-0.1,0.104,-0.006,99.81,5.0,,0.0,0.0,
2025-08-15T01:00:48.620Z,9,GR86-004-78,-0.1,0.104,-0.024,99.8,5.0,6350.0,0.0,0.0,
2025-08-15T01:00:48.663Z,9,GR86-004-78,-0.1,0.101,-0.029,99.81,5.0,,0.0,0.0,186.54
2025-08-15T01:00:48.706Z,9,GR86-004-78,-0.1,0.102,-0.04,99.8,5.0,,0.0,0.0,
2025-08-15T01:00:48.749Z,9,GR86-004-78,0.0,0.097,-0.035,99.8,5.0,,0.0,0.0,
2025-08-15T01:00:48.792Z,9,GR86-004-78,0.0,0.099,-0.032,99.8,5.0,,0.0,0.0,
2025-08-15T01:00:48.835Z,9,GR86-004-78,0.0,0.102,-0.064,99.81,5.0,6368.0,0.0,0.0,
2025-08-15T01:00:48.879Z,9,GR86-004-78,0.0,0.113,-0.042,99.8,5.0,,0.0,0.0,188.09
2025-08-15T01:00:48.922Z,9,GR86-004-78,0.0,0.088,-0.069,99.79,5.0,,0.0,0.0,
2025-08-15T01:00:48.965Z,9,GR86-004-78,0.0,0.091,-0.067,99.81,5.0,,0.0,0.0,
2025-08-15T01:00:49.008Z,9,GR86-004-78,0.0,0.101,-0.089,99.82,5.0,,0.0,0.0,
2025-08-15T01:00:49.051Z,9,GR86-004-78,0.0,0.095,-0.069,99.8,5.0,6404.0,0.0,0.0,
2025-08-15T01:00:49.094Z,9,GR86-004-78,0.0,0.088,-0.082,99.81,5.0,,0.0,0.0,189.01
2025-08-15T01:00:49.137Z,9,GR86-004-78,0.1,0.104,-0.077,99.81,5.0,,0.0,0.0,
2025-08-15T01:00:49.180Z,9,GR86-004-78,0.1,0.101,-0.085,99.8,5.0,,0.0,0.0,
2025-08-15T01:00:49.223Z,9,GR86-004-78,0.1,0.084,-0.084,99.81,5.0,,0.0,0.0,
2025-08-15T01:00:49.268Z,9,GR86-004-78,0.1,0.103,-0.076,99.82,5.0,6452.0,0.0,0.0,
2025-08-15T01:00:49.311Z,9,GR86-004-78,0.1,0.101,-0.057,99.81,5.0,,0.0,0.0,189.75
2025-08-15T01:00:49.354Z,9,GR86-004-78,0.1,0.094,-0.049,99.82,5.0,,0.0,0.0,
2025-08-15T01:00:49.397Z,9,GR86-004-78,0.1,0.091,-0.065,99.81,5.0,,0.0,0.0,
2025-08-15T01:00:49.441Z,9,GR86-004-78,0.1,0.095,-0.092,99.81,5.0,,0.0,0.0,
2025-08-15T01:00:49.484Z,9,GR86-004-78,0.1,0.102,-0.102,99.79,5.0,6488.0,0.0,0.0,
2025-08-15T01:00:49.571Z,9,GR86-004-78,0.1,0.112,-0.095,99.81,5.0,,0.0,0.0,190.69
2025-08-15T01:00:49.614Z,9,GR86-004-78,0.2,0.115,-0.083,99.82,5.0,,0.0,0.0,
2025-08-15T01:00:49.657Z,9,GR86-004-78,0.2,0.108,-0.077,99.8,5.0,,0.0,0.0,
2025-08-15T01:00:49.700Z,9,GR86-004-78,0.3,0.094,-0.09,99.8,5.0,6516.0,0.0,0.0,
2025-08-15T01:00:49.743Z,9,GR86-004-78,0.5,0.09,-0.07,99.81,5.0,,0.0,0.0,191.49
2025-08-15T01:00:49.786Z,9,GR86-004-78,0.6000000000000001,0.104,-0.058,99.82,5.0,,0.0,0.0,
2025-08-15T01:00:49.830Z,9,GR86-004-78,0.7000000000000001,0.116,-0.024,99.81,5.0,,0.0,0.0,
2025-08-15T01:00:49.873Z,9,GR86-004-78,0.7000000000000001,0.107,-0.001,99.81,5.0,,0.0,0.0,
2025-08-15T01:00:49.916Z,9,GR86-004-78,0.8,0.097,0.017,99.8,5.0,6544.0,0.0,0.0,
2025-08-15T01:00:49.959Z,9,GR86-004-78,0.8,0.098,0.023,99.8,5.0,,0.0,0.0,192.25
2025-08-15T01:00:50.002Z,9,GR86-004-78,0.8,0.092,0.02,99.82,5.0,,0.0,0.0,
2025-08-15T01:00:50.045Z,9,GR86-004-78,0.8,0.09,0.003,99.82,5.0,,0.0,0.0,
2025-08-15T01:00:50.088Z,9,GR86-004-78,0.8,0.094,0.033,99.81,5.0,,0.0,0.0,
2025-08-15T01:00:50.131Z,9,GR86-004-78,0.8,0.106,0.05,99.81,5.0,6575.0,0.0,0.0,
2025-08-15T01:00:50.174Z,9,GR86-004-78,0.8,0.088,0.035,99.8,5.0,,0.0,0.0,193.05
2025-08-15T01:00:50.217Z,9,GR86-004-78,0.9,0.103,0.023,99.81,5.0,,0.0,0.0,
2025-08-15T01:00:50.260Z,9,GR86-004-78,0.9,0.081,0.017,99.8,5.0,,0.0,0.0,
2025-08-15T01:00:50.303Z,9,GR86-004-78,1.0,0.091,0.003,99.81,5.0,,0.0,0.0,
2025-08-15T01:00:50.347Z,9,GR86-004-78,1.3,0.082,-0.001,99.8,5.0,6596.0,0.0,0.0,
2025-08-15T01:00:50.390Z,9,GR86-004-78,1.4,0.088,0.025,99.82,5.0,,0.0,0.0,193.83
2025-08-15T01:00:50.433Z,9,GR86-004-78,1.5,0.085,0.029,99.81,5.0,,0.0,0.0,
2025-08-15T01:00:50.476Z,9,GR86-004-78,1.6,0.084,0.009,99.82,5.0,,0.0,0.0,
2025-08-15T01:00:50.519Z,9,GR86-004-78,1.7000000000000002,0.085,-0.004,99.81,5.0,,0.0,0.0,
2025-08-15T01:00:50.562Z,9,GR86-004-78,1.7000000000000002,0.066,-0.001,99.81,5.0,6622.0,0.0,0.0,
2025-08-15T01:00:50.605Z,9,GR86-004-78,1.7000000000000002,0.056,0.016,99.8,5.0,,0.0,0.0,194.61
2025-08-15T01:00:50.648Z,9,GR86-004-78,1.7000000000000002,0.096,0.034,99.8,5.0,,0.0,0.0,
2025-08-15T01:00:50.691Z,9,GR86-004-78,1.8,0.099,0.045,99.81,5.0,,0.0,0.0,
2025-08-15T01:00:50.734Z,9,GR86-004-78,1.9,0.084,0.062,99.8,5.0,,0.0,0.0,
2025-08-15T01:00:50.777Z,9,GR86-004-78,2.1,0.073,0.052,99.8,5.0,6653.0,0.0,0.0,
2025-08-15T01:00:50.820Z,9,GR86-004-78,2.1,0.064,0.052,99.8,5.0,,0.0,0.0,195.29
2025-08-15T01:00:50.863Z,9,GR86-004-78,2.1,0.07,0.039,99.8,5.0,,0.0,0.0,
2025-08-15T01:00:50.906Z,9,GR86-004-78,2.1,0.088,0.04,99.81,5.0,,0.0,0.0,
2025-08-15T01:00:50.949Z,9,GR86-004-78,2.1,0.082,0.039,99.8,5.0,,0.0,0.0,
2025-08-15T01:00:50.992Z,9,GR86-004-78,2.1,0.079,0.05,99.81,5.0,6667.0,0.0,0.0,
2025-08-15T01:00:51.035Z,9,GR86-004-78,2.1,0.065,0.008,99.77,5.0,,0.0,0.0,196.08
2025-08-15T01:00:51.078Z,9,GR86-004-78,2.1,0.073,0.017,99.8,5.0,,0.0,0.0,
2025-08-15T01:00:51.121Z,9,GR86-004-78,2.1,0.06,0.0,99.8,5.0,,0.0,0.0,
2025-08-15T01:00:51.164Z,9,GR86-004-78,2.1,0.057,0.018,99.8,5.0,,0.0,0.0,
2025-08-15T01:00:51.207Z,9,GR86-004-78,2.2,0.072,0.043,99.8,5.0,6685.0,0.0,0.0,
2025-08-15T01:00:51.250Z,9,GR86-004-78,2.3000000000000003,0.055,0.04,99.81,5.0,,0.0,0.0,196.7
2025-08-15T01:00:51.293Z,9,GR86-004-78,2.4000000000000004,0.053,0.035,99.82,5.0,,0.0,0.0,
2025-08-15T01:00:51.336Z,9,GR86-004-78,2.4000000000000004,0.059,0.008,99.81,5.0,,0.0,0.0,
2025-08-15T01:00:51.379Z,9,GR86-004-78,2.4000000000000004,0.045,0.025,99.8,5.0,,0.0,0.0,
2025-08-15T01:00:51.422Z,9,GR86-004-78,2.4000000000000004,0.048,0.025,99.81,5.0,6709.0,0.0,0.0,
2025-08-15T01:00:51.465Z,9,GR86-004-78,2.4000000000000004,0.06,0.018,99.81,5.0,,0.0,0.0,197.29
2025-08-15T01:00:51.508Z,9,GR86-004-78,2.4000000000000004,0.063,0.04,99.77,5.0,,0.0,0.0,
2025-08-15T01:00:51.551Z,9,GR86-004-78,2.2,0.048,0.04,99.81,5.0,,0.0,0.0,
2025-08-15T01:00:51.594Z,9,GR86-004-78,1.8,0.062,-0.002,99.81,5.0,,0.0,0.0,
2025-08-15T01:00:51.637Z,9,GR86-004-78,1.8,0.05,-0.017,99.8,5.0,6725.0,0.0,0.0,
2025-08-15T01:00:51.680Z,9,GR86-004-78,1.8,0.063,-0.046,99.77,5.0,,0.0,0.0,198.47
2025-08-15T01:00:51.723Z,9,GR86-004-78,1.8,0.065,-0.049,99.81,5.0,,0.0,0.0,
2025-08-15T01:00:51.767Z,9,GR86-004-78,1.7000000000000002,0.052,-0.057,99.82,5.0,,0.0,0.0,
2025-08-15T01:00:51.812Z,9,GR86-004-78,1.8,0.039,-0.057,99.81,5.0,,0.0,0.0,
2025-08-15T01:00:51.855Z,9,GR86-004-78,1.9,0.086,-0.073,99.81,5.0,6738.0,0.0,0.0,
2025-08-15T01:00:51.898Z,9,GR86-004-78,1.9,0.066,-0.061,99.81,5.0,,0.0,0.0,198.9
2025-08-15T01:00:51.941Z,9,GR86-004-78,1.9,0.066,-0.049,99.81,5.0,,0.0,0.0,
2025-08-15T01:00:51.984Z,9,GR86-004-78,1.9,0.083,-0.056,99.81,5.0,,0.0,0.0,
2025-08-15T01:00:52.027Z,9,GR86-004-78,1.9,0.053,-0.045,99.8,5.0,,0.0,0.0,
2025-08-15T01:00:52.071Z,9,GR86-004-78,1.9,0.063,-0.011,99.8,5.0,6778.0,0.0,0.0,
2025-08-15T01:00:52.114Z,9,GR86-004-78,1.9,0.076,-0.017,99.8,5.0,,0.0,0.0,199.39
2025-08-15T01:00:52.157Z,9,GR86-004-78,1.9,0.071,0.009,99.81,5.0,,0.0,0.0,
2025-08-15T01:00:52.200Z,9,GR86-004-78,1.9,0.081,0.028,99.81,5.0,,0.0,0.0,
2025-08-15T01:00:52.243Z,9,GR86-004-78,2.0,0.08,0.012,99.81,5.0,,0.0,0.0,
2025-08-15T01:00:52.286Z,9,GR86-004-78,2.0,0.075,0.022,99.78,5.0,6793.0,0.0,0.0,
2025-08-15T01:00:52.329Z,9,GR86-004-78,1.9,0.077,0.028,99.81,5.0,,0.0,0.0,199.91
2025-08-15T01:00:52.372Z,9,GR86-004-78,2.0,0.078,0.065,99.81,5.0,,0.0,0.0,
2025-08-15T01:00:52.415Z,9,GR86-004-78,2.0,0.079,0.058,99.81,5.0,,0.0,0.0,
2025-08-15T01:00:52.458Z,9,GR86-004-78,2.0,0.057,0.045,99.81,5.0,,0.0,0.0,
2025-08-15T01:00:52.501Z,9,GR86-004-78,2.0,0.052,0.05,99.81,5.0,6812.0,0.0,0.0,
2025-08-15T01:00:52.544Z,9,GR86-004-78,2.0,0.058,0.047,99.78,5.0,,0.0,0.0,200.44
2025-08-15T01:00:52.587Z,9,GR86-004-78,2.1,0.08,0.039,99.81,5.0,,0.0,0.0,
2025-08-15T01:00:52.630Z,9,GR86-004-78,2.1,0.074,0.039,99.82,5.0,,0.0,0.0,
2025-08-15T01:00:52.673Z,9,GR86-004-78,2.1,0.055,0.046,99.79,5.0,,0.0,0.0,
2025-08-15T01:00:52.716Z,9,GR86-004-78,2.3000000000000003,0.047,0.084,99.77,5.0,6833.0,0.0,0.0,
2025-08-15T01:00:52.759Z,9,GR86-004-78,3.1,0.048,0.075,99.79,5.0,,0.0,0.0,200.95
2025-08-15T01:00:52.802Z,9,GR86-004-78,3.6,0.073,0.056,99.82,5.0,,0.0,0.0,
2025-08-15T01:00:52.845Z,9,GR86-004-78,3.7,0.054,0.07,99.81,5.0,,0.0,0.0,
2025-08-15T01:00:52.931Z,9,GR86-004-78,4.0,0.052,0.157,99.81,5.0,6846.0,0.0,0.0,
2025-08-15T01:00:52.974Z,9,GR86-004-78,4.5,0.049,0.187,99.81,5.0,,0.0,0.0,201.6
2025-08-15T01:00:53.017Z,9,GR86-004-78,4.9,0.076,0.19,99.8,5.0,,0.0,0.0,
2025-08-15T01:00:53.060Z,9,GR86-004-78,5.1000000000000005,0.048,0.201,99.81,5.0,,0.0,0.0,
2025-08-15T01:00:53.103Z,9,GR86-004-78,5.1000000000000005,0.083,0.205,99.81,5.0,,0.0,0.0,
2025-08-15T01:00:53.146Z,9,GR86-004-78,5.2,0.059,0.215,99.8,5.0,6878.0,0.0,0.0,
2025-08-15T01:00:53.191Z,9,GR86-004-78,5.2,0.035,0.248,99.81,5.0,,0.0,0.0,202.32
2025-08-15T01:00:53.234Z,9,GR86-004-78,5.2,0.083,0.263,99.81,5.0,,0.0,0.0,
2025-08-15T01:00:53.278Z,9,GR86-004-78,5.2,0.076,0.274,99.81,5.0,,0.0,0.0,
2025-08-15T01:00:53.321Z,9,GR86-004-78,5.2,0.058,0.284,99.8,5.0,,0.0,0.0,
2025-08-15T01:00:53.364Z,9,GR86-004-78,5.300000000000001,0.041,0.282,99.78,5.0,6894.0,0.0,0.0,
2025-08-15T01:00:53.407Z,9,GR86-004-78,5.4,0.081,0.274,99.79,5.0,,0.0,0.0,202.95
2025-08-15T01:00:53.450Z,9,GR86-004-78,5.5,0.071,0.282,99.81,5.0,,0.0,0.0,
2025-08-15T01:00:53.493Z,9,GR86-004-78,5.5,0.082,0.273,99.8,5.0,,0.0,0.0,
2025-08-15T01:00:53.536Z,9,GR86-004-78,5.6000000000000005,0.05,0.273,99.81,5.0,,0.0,0.0,
2025-08-15T01:00:53.623Z,9,GR86-004-78,5.800000000000001,0.052,0.273,99.81,5.0,6921.0,0.0,0.0,203.43
2025-08-15T01:00:53.668Z,9,GR86-004-78,5.9,0.055,0.294,99.79,5.0,,0.0,0.0,
2025-08-15T01:00:53.711Z,9,GR86-004-78,6.6000000000000005,0.038,0.303,99.81,5.0,,6.775,6.93,
2025-08-15T01:00:53.755Z,9,GR86-004-78,7.300000000000001,-0.012,0.3,99.81,5.0,,5.555,5.905,
2025-08-15T01:00:53.841Z,9,GR86-004-78,7.4,-0.013,0.31,99.79,5.0,6932.0,0.0,2.105,203.92
2025-08-15T01:00:53.884Z,9,GR86-004-78,7.4,0.054,0.317,99.81,5.0,,0.0,0.0,
2025-08-15T01:00:53.970Z,9,GR86-004-78,7.4,0.06,0.333,99.81,5.0,,0.0,0.0,
2025-08-15T01:00:54.013Z,9,GR86-004-78,7.4,0.051,0.327,99.8,5.0,6942.0,0.0,0.0,
2025-08-15T01:00:54.056Z,9,GR86-004-78,7.4,0.063,0.344,99.8,5.0,,0.0,0.0,204.46
2025-08-15T01:00:54.099Z,9,GR86-004-78,7.4,0.076,0.375,99.81,5.0,,0.0,0.0,
2025-08-15T01:00:54.142Z,9,GR86-004-78,7.4,0.044,0.395,99.81,5.0,,0.0,0.0,
2025-08-15T01:00:54.185Z,9,GR86-004-78,7.4,0.055,0.366,99.8,5.0,,0.0,0.0,
2025-08-15T01:00:54.228Z,9,GR86-004-78,7.4,0.058,0.323,99.8,5.0,6958.0,0.0,0.0,
2025-08-15T01:00:54.271Z,9,GR86-004-78,7.4,0.049,0.361,99.82,5.0,,0.0,0.0,204.98
2025-08-15T01:00:54.314Z,9,GR86-004-78,7.4,0.077,0.345,99.81,5.0,,0.0,0.0,
2025-08-15T01:00:54.357Z,9,GR86-004-78,7.4,0.051,0.314,99.8,5.0,,0.0,0.0,
2025-08-15T01:00:54.400Z,9,GR86-004-78,7.4,0.062,0.309,99.81,5.0,,0.0,0.0,
2025-08-15T01:00:54.443Z,9,GR86-004-78,7.4,0.059,0.276,99.8,5.0,6986.0,0.0,0.0,
2025-08-15T01:00:54.486Z,9,GR86-004-78,7.4,0.058,0.276,99.81,5.0,,0.0,0.0,205.67
2025-08-15T01:00:54.530Z,9,GR86-004-78,7.4,0.06,0.244,99.78,5.0,,0.0,0.0,
2025-08-15T01:00:54.573Z,9,GR86-004-78,7.4,0.046,0.219,99.81,5.0,,0.0,0.0,
2025-08-15T01:00:54.616Z,9,GR86-004-78,7.4,0.071,0.212,99.8,5.0,,0.0,0.0,
2025-08-15T01:00:54.659Z,9,GR86-004-78,7.4,0.042,0.198,99.78,5.0,6998.0,0.0,0.0,
2025-08-15T01:00:54.702Z,9,GR86-004-78,7.4,0.037,0.224,99.8,5.0,,0.0,0.0,206.19
2025-08-15T01:00:54.745Z,9,GR86-004-78,7.4,0.065,0.226,99.78,5.0,,0.0,0.0,
2025-08-15T01:00:54.788Z,9,GR86-004-78,7.4,0.055,0.216,99.8,5.0,,0.0,0.0,
2025-08-15T01:00:54.831Z,9,GR86-004-78,7.4,0.067,0.208,99.81,5.0,,0.0,0.0,
2025-08-15T01:00:54.874Z,9,GR86-004-78,7.4,0.041,0.215,99.8,5.0,7021.0,0.0,0.0,
2025-08-15T01:00:54.917Z,9,GR86-004-78,7.4,0.047,0.24,99.81,5.0,,0.0,0.0,206.73
2025-08-15T01:00:54.960Z,9,GR86-004-78,7.4,0.055,0.224,99.81,5.0,,0.0,0.0,
2025-08-15T01:00:55.003Z,9,GR86-004-78,7.4,0.045,0.201,99.8,5.0,,0.0,0.0,
2025-08-15T01:00:55.046Z,9,GR86-004-78,7.4,0.05,0.213,99.79,5.0,,0.0,0.0,
2025-08-15T01:00:55.089Z,9,GR86-004-78,7.4,0.061,0.228,99.8,5.0,7048.0,0.0,0.0,
2025-08-15T01:00:55.132Z,9,GR86-004-78,7.4,0.063,0.233,99.81,5.0,,0.0,0.0,207.18
2025-08-15T01:00:55.175Z,9,GR86-004-78,7.4,0.057,0.225,99.8,5.0,,0.0,0.0,
2025-08-15T01:00:55.218Z,9,GR86-004-78,7.4,0.059,0.246,99.8,5.0,,0.0,0.0,
2025-08-15T01:00:55.261Z,9,GR86-004-78,7.4,0.047,0.254,99.82,5.0,,0.0,0.0,
2025-08-15T01:00:55.304Z,9,GR86-004-78,7.4,0.051,0.302,99.81,5.0,7069.0,0.0,0.0,
2025-08-15T01:00:55.347Z,9,GR86-004-78,7.4,0.071,0.274,99.8,5.0,,0.0,0.0,207.67
2025-08-15T01:00:55.390Z,9,GR86-004-78,7.4,0.055,0.24,99.81,5.0,,0.0,0.0,
2025-08-15T01:00:55.433Z,9,GR86-004-78,7.300000000000001,0.049,0.237,99.8,5.0,,0.0,0.0,
2025-08-15T01:00:55.476Z,9,GR86-004-78,7.300000000000001,0.067,0.254,99.8,5.0,,0.0,0.0,
2025-08-15T01:00:55.519Z,9,GR86-004-78,7.300000000000001,0.057,0.26,99.79,5.0,7089.0,0.0,0.0,
2025-08-15T01:00:55.562Z,9,GR86-004-78,7.300000000000001,0.08,0.235,99.8,5.0,,0.0,0.0,208.36
2025-08-15T01:00:55.605Z,9,GR86-004-78,7.300000000000001,0.058,0.244,99.77,5.0,,0.0,0.0,
2025-08-15T01:00:55.648Z,9,GR86-004-78,7.300000000000001,0.05,0.254,99.79,5.0,,0.0,0.0,
2025-08-15T01:00:55.691Z,9,GR86-004-78,7.300000000000001,0.089,0.255,99.81,5.0,,0.0,0.0,
2025-08-15T01:00:55.734Z,9,GR86-004-78,7.300000000000001,0.057,0.241,99.79,5.0,7117.0,0.0,0.0,
2025-08-15T01:00:55.777Z,9,GR86-004-78,7.300000000000001,0.054,0.259,99.78,5.0,,0.0,0.0,209.07
2025-08-15T01:00:55.820Z,9,GR86-004-78,7.300000000000001,0.052,0.228,77.06,5.0,,0.0,0.0,
2025-08-15T01:00:55.863Z,9,GR86-004-78,7.4,0.048,0.268,35.730000000000004,5.0,,0.0,0.0,
2025-08-15T01:00:55.906Z,9,GR86-004-78,7.4,0.045,0.265,5.38,5.0,,2.5500000000000003,2.855,
2025-08-15T01:00:55.949Z,9,GR86-004-78,7.4,-0.034,0.269,5.41,5.0,7136.0,11.065,11.4,
2025-08-15T01:00:55.992Z,9,GR86-004-78,7.4,-0.334,0.27,5.18,5.0,,28.305,28.34,209.7
2025-08-15T01:00:56.035Z,9,GR86-004-78,7.2,-0.616,0.223,4.82,5.0,,49.825,49.55,
2025-08-15T01:00:56.078Z,9,GR86-004-78,7.2,-1.035,0.138,4.22,5.0,,69.965,69.675,
2025-08-15T01:00:56.121Z,9,GR86-004-78,7.1000000000000005,-1.186,0.212,3.69,5.0,,85.44,86.37,
2025-08-15T01:00:56.164Z,9,GR86-004-78,6.4,-1.303,0.213,3.4,5.0,7153.0,94.37,95.42,
2025-08-15T01:00:56.207Z,9,GR86-004-78,4.1000000000000005,-1.457,0.163,3.19,5.0,,97.65,98.625,210.48
2025-08-15T01:00:56.250Z,9,GR86-004-78,4.1000000000000005,-1.379,0.146,3.0500000000000003,5.0,,98.685,100.275,
2025-08-15T01:00:56.293Z,9,GR86-004-78,4.1000000000000005,-1.258,0.17,2.88,5.0,,97.91,99.115,
2025-08-15T01:00:56.337Z,9,GR86-004-78,4.3,-1.283,0.221,2.75,5.0,,90.995,92.31,
2025-08-15T01:00:56.380Z,9,GR86-004-78,5.2,-1.33,0.26,2.69,5.0,6849.0,83.395,84.45,
2025-08-15T01:00:56.423Z,9,GR86-004-78,7.0,-1.285,0.217,2.56,5.0,,80.62,81.78,210.35
2025-08-15T01:00:56.468Z,9,GR86-004-78,7.7,-1.233,0.252,2.43,5.0,,72.895,74.745,
2025-08-15T01:00:56.555Z,9,GR86-004-78,4.3,-1.127,0.262,2.43,5.0,,66.395,68.47,
2025-08-15T01:00:56.598Z,9,GR86-004-78,0.3,-1.179,0.125,2.41,5.0,6431.0,62.535,63.255,
2025-08-15T01:00:56.641Z,9,GR86-004-78,1.6,-1.059,0.081,2.4,5.0,,62.81,63.77,199.87
2025-08-15T01:00:56.684Z,9,GR86-004-78,2.9000000000000004,-1.102,0.098,2.44,5.0,,64.395,65.71000000000001,
2025-08-15T01:00:56.728Z,9,GR86-004-78,2.9000000000000004,-1.111,0.17,58.65,5.0,,64.305,64.99,
2025-08-15T01:00:56.771Z,9,GR86-004-78,3.5,-1.215,0.142,98.23,5.0,,63.895,64.06,
2025-08-15T01:00:56.814Z,9,GR86-004-78,6.2,-1.149,0.151,85.33,4.0,6239.0,63.435,63.435,
2025-08-15T01:00:56.857Z,9,GR86-004-78,8.4,-1.199,0.101,12.5,4.0,,61.97,61.940000000000005,193.43
2025-08-15T01:00:56.900Z,9,GR86-004-78,8.5,-1.219,0.211,3.29,4.0,,61.025,62.505,
2025-08-15T01:00:56.943Z,9,GR86-004-78,5.9,-0.984,0.243,3.1,4.0,,59.59,59.925,
2025-08-15T01:00:56.986Z,9,GR86-004-78,3.1,-1.09,0.123,2.84,4.0,,58.735,59.71,
2025-08-15T01:00:57.030Z,9,GR86-004-78,3.4000000000000004,-1.025,0.117,2.75,4.0,5926.0,58.675,59.36,
2025-08-15T01:00:57.073Z,9,GR86-004-78,6.4,-1.072,0.065,2.69,4.0,,59.36,59.68,178.39
2025-08-15T01:00:57.116Z,9,GR86-004-78,6.6000000000000005,-1.066,0.184,2.59,4.0,,60.825,60.795,
2025-08-15T01:00:57.159Z,9,GR86-004-78,5.1000000000000005,-1.102,0.159,2.5,4.0,,62.625,62.46,
2025-08-15T01:00:57.202Z,9,GR86-004-78,3.6,-1.126,0.093,2.44,4.0,,63.315000000000005,63.285,
2025-08-15T01:00:57.245Z,9,GR86-004-78,3.6,-1.173,0.085,2.43,4.0,6333.0,63.925,64.06,
2025-08-15T01:00:57.331Z,9,GR86-004-78,1.9,-1.109,0.039,38.65,4.0,,65.71000000000001,66.075,170.98
2025-08-15T01:00:57.374Z,9,GR86-004-78,2.9000000000000004,-1.158,0.045,82.08,3.0,,68.12,68.09,
2025-08-15T01:00:57.417Z,9,GR86-004-78,7.4,-1.229,0.007,10.97,3.0,,68.625,69.555,
2025-08-15T01:00:57.460Z,9,GR86-004-78,9.3,-1.155,0.093,2.97,3.0,6430.0,69.16,71.05,
2025-08-15T01:00:57.503Z,9,GR86-004-78,9.3,-1.13,0.078,2.78,3.0,,68.775,69.71000000000001,163.98
2025-08-15T01:00:57.546Z,9,GR86-004-78,4.5,-1.225,0.081,2.59,3.0,,68.745,69.905,
2025-08-15T01:00:57.589Z,9,GR86-004-78,4.0,-0.99,0.045,2.5,3.0,,69.8,70.455,
2025-08-15T01:00:57.632Z,9,GR86-004-78,4.3,-1.041,-0.051,2.47,3.0,,70.09,70.515,
2025-08-15T01:00:57.718Z,9,GR86-004-78,6.300000000000001,-1.142,0.086,2.43,3.0,6429.0,72.455,73.66,157.12
2025-08-15T01:00:57.761Z,9,GR86-004-78,4.7,-1.171,0.052,2.43,3.0,,72.865,73.72,
2025-08-15T01:00:57.804Z,9,GR86-004-78,4.3,-1.173,0.051,23.2,3.0,,73.69,74.025,
2025-08-15T01:00:57.847Z,9,GR86-004-78,8.0,-1.255,0.023,91.2,3.0,,74.025,74.08500000000001,
2025-08-15T01:00:57.890Z,9,GR86-004-78,10.6,-1.183,0.102,99.06,2.0,6603.0,73.815,73.75,
2025-08-15T01:00:57.933Z,9,GR86-004-78,10.8,-1.123,0.093,45.84,2.0,,72.96000000000001,73.05,149.1
2025-08-15T01:00:57.976Z,9,GR86-004-78,10.8,-1.249,0.113,4.14,2.0,,70.9,72.455,
2025-08-15T01:00:58.019Z,9,GR86-004-78,10.8,-1.232,0.129,3.0700000000000003,2.0,,70.03,71.705,
2025-08-15T01:00:58.062Z,9,GR86-004-78,13.5,-1.324,0.039,2.81,2.0,,67.555,67.665,
2025-08-15T01:00:58.105Z,9,GR86-004-78,15.2,-1.137,0.227,2.72,2.0,6230.0,64.365,65.955,
2025-08-15T01:00:58.148Z,9,GR86-004-78,14.5,-0.879,0.196,2.66,2.0,,48.925,49.93,141.94
2025-08-15T01:00:58.191Z,9,GR86-004-78,9.7,-0.862,0.269,2.56,2.0,,39.675,41.28,
2025-08-15T01:00:58.234Z,9,GR86-004-78,9.3,-0.839,0.276,2.5,2.0,,36.99,37.92,
2025-08-15T01:00:58.277Z,9,GR86-004-78,11.9,-0.847,0.192,2.43,2.0,,37.235,37.645,
2025-08-15T01:00:58.320Z,9,GR86-004-78,14.1,-0.834,0.337,2.42,2.0,7170.0,38.93,39.125,
2025-08-15T01:00:58.363Z,9,GR86-004-78,14.3,-0.854,0.371,2.42,2.0,,42.36,42.39,134.61
2025-08-15T01:00:58.406Z,9,GR86-004-78,15.3,-0.956,0.355,2.4,2.0,,48.59,48.620000000000005,
2025-08-15T01:00:58.449Z,9,GR86-004-78,17.3,-1.025,0.361,2.42,2.0,,51.06,51.09,
2025-08-15T01:00:58.492Z,9,GR86-004-78,17.400000000000002,-1.024,0.372,2.42,2.0,,52.05,52.25,
2025-08-15T01:00:58.535Z,9,GR86-004-78,17.0,-0.998,0.433,2.43,2.0,7048.0,52.71,53.06,
2025-08-15T01:00:58.621Z,9,GR86-004-78,14.8,-1.034,0.413,2.43,2.0,,53.06,53.305,127.81
2025-08-15T01:00:58.664Z,9,GR86-004-78,13.9,-1.01,0.423,21.13,2.0,,53.120000000000005,53.685,
2025-08-15T01:00:58.707Z,9,GR86-004-78,13.8,-1.028,0.44,32.82,1.0,,54.705,54.645,
2025-08-15T01:00:58.750Z,9,GR86-004-78,13.4,-1.177,0.302,5.28,1.0,6685.0,57.41,58.31,
2025-08-15T01:00:58.793Z,9,GR86-004-78,11.9,-1.043,0.388,4.7,1.0,,59.71,61.115,122.22
2025-08-15T01:00:58.836Z,9,GR86-004-78,11.7,-1.104,0.387,4.18,1.0,,58.905,60.08,
2025-08-15T01:00:58.879Z,9,GR86-004-78,11.7,-1.176,0.371,3.61,1.0,,50.22,51.215,
2025-08-15T01:00:58.922Z,9,GR86-004-78,10.3,-1.033,0.505,3.35,1.0,,40.12,41.705,
2025-08-15T01:00:58.965Z,9,GR86-004-78,10.2,-0.746,0.513,3.19,1.0,6193.0,34.06,34.93,
2025-08-15T01:00:59.008Z,9,GR86-004-78,12.9,-1.042,0.733,2.88,1.0,,30.825,31.74,116.41
2025-08-15T01:00:59.051Z,9,GR86-004-78,18.0,-0.791,0.678,2.74,1.0,,29.955,30.55,
2025-08-15T01:00:59.094Z,9,GR86-004-78,26.4,-0.6880000000000001,0.669,2.61,1.0,,26.81,27.835,
2025-08-15T01:00:59.137Z,9,GR86-004-78,33.800000000000004,-0.72,0.975,2.47,1.0,,24.37,25.055,
2025-08-15T01:00:59.180Z,9,GR86-004-78,37.1,-0.681,0.853,2.43,1.0,6441.0,21.775,22.495,
2025-08-15T01:00:59.223Z,9,GR86-004-78,37.5,-0.615,0.793,2.4,1.0,,21.27,21.9,109.01
2025-08-15T01:00:59.268Z,9,GR86-004-78,38.0,-0.612,0.903,2.41,1.0,,24.28,24.615,
2025-08-15T01:00:59.312Z,9,GR86-004-78,40.8,-0.647,0.853,2.42,1.0,,26.69,27.025,
2025-08-15T01:00:59.355Z,9,GR86-004-78,44.7,-0.672,0.8210000000000001,2.4,1.0,,27.895,28.305,
2025-08-15T01:00:59.398Z,9,GR86-004-78,45.3,-0.663,0.869,2.43,1.0,7033.0,26.995,27.745,
2025-08-15T01:00:59.441Z,9,GR86-004-78,45.3,-0.635,0.904,2.43,1.0,,23.24,24.11,102.99
2025-08-15T01:00:59.484Z,9,GR86-004-78,45.2,-0.538,0.873,2.43,1.0,,20.42,21.305,
2025-08-15T01:00:59.527Z,9,GR86-004-78,45.1,-0.591,0.952,2.43,1.0,,20.965,21.44,
2025-08-15T01:00:59.614Z,9,GR86-004-78,44.3,-0.594,0.92,2.45,1.0,6871.0,21.625,22.25,
2025-08-15T01:00:59.657Z,9,GR86-004-78,42.1,-0.543,0.931,2.44,1.0,,21.625,22.31,97.78
2025-08-15T01:00:59.700Z,9,GR86-004-78,38.900000000000006,-0.5700000000000001,0.919,2.47,1.0,,21.96,22.645,
2025-08-15T01:00:59.743Z,9,GR86-004-78,38.0,-0.541,0.925,2.47,1.0,,22.31,23.025,
2025-08-15T01:00:59.786Z,9,GR86-004-78,38.7,-0.595,0.844,2.47,1.0,,22.555,23.09,
2025-08-15T01:00:59.829Z,9,GR86-004-78,40.7,-0.633,0.888,2.47,1.0,6518.0,22.28,22.935,
2025-08-15T01:00:59.872Z,9,GR86-004-78,40.8,-0.58,0.94,2.47,1.0,,20.235,21.21,89.72
2025-08-15T01:00:59.916Z,9,GR86-004-78,40.8,-0.48,0.952,2.47,1.0,,16.115000000000002,17.06,
2025-08-15T01:00:59.959Z,9,GR86-004-78,44.3,-0.413,0.945,2.47,1.0,,10.745,11.4,
2025-08-15T01:01:00.002Z,9,GR86-004-78,55.2,-0.344,1.001,2.47,1.0,,5.8,6.425,
2025-08-15T01:01:00.046Z,9,GR86-004-78,76.2,-0.321,1.084,2.46,1.0,6223.0,2.485,3.1,
2025-08-15T01:01:00.091Z,9,GR86-004-78,83.10000000000001,-0.252,1.134,2.46,1.0,,2.215,2.73,85.52
2025-08-15T01:01:00.134Z,9,GR86-004-78,83.30000000000001,-0.225,1.156,2.47,1.0,,0.0,0.0,
2025-08-15T01:01:00.178Z,9,GR86-004-78,79.7,-0.184,1.168,2.94,1.0,,0.0,0.0,
2025-08-15T01:01:00.221Z,9,GR86-004-78,75.2,-0.197,1.083,16.39,1.0,,0.0,0.0,
2025-08-15T01:01:00.264Z,9,GR86-004-78,75.2,-0.194,1.118,20.06,1.0,5918.0,0.0,0.0,
2025-08-15T01:01:00.307Z,9,GR86-004-78,75.3,-0.182,1.145,21.61,1.0,,0.0,0.0,82.17
2025-08-15T01:01:00.350Z,9,GR86-004-78,75.3,-0.083,1.176,24.76,1.0,,0.0,0.0,
2025-08-15T01:01:00.394Z,9,GR86-004-78,75.3,-0.096,1.138,29.96,1.0,,0.0,0.0,
2025-08-15T01:01:00.437Z,9,GR86-004-78,78.10000000000001,-0.086,1.24,32.51,1.0,,0.0,0.0,
2025-08-15T01:01:00.480Z,9,GR86-004-78,80.4,0.046,1.219,34.24,1.0,5670.0,0.0,0.0,
2025-08-15T01:01:00.568Z,9,GR86-004-78,80.4,0.146,1.161,34.74,1.0,,0.0,0.0,80.44
2025-08-15T01:01:00.611Z,9,GR86-004-78,86.10000000000001,0.269,1.157,34.69,1.0,,0.0,0.0,
2025-08-15T01:01:00.655Z,9,GR86-004-78,91.9,0.262,1.069,34.6,1.0,,0.0,0.0,
2025-08-15T01:01:00.698Z,9,GR86-004-78,93.5,0.187,1.159,34.69,1.0,6061.0,0.0,0.0,
2025-08-15T01:01:00.741Z,9,GR86-004-78,93.5,0.147,1.359,36.91,1.0,,0.0,0.0,79.46000000000001
2025-08-15T01:01:00.784Z,9,GR86-004-78,93.2,0.116,1.058,38.04,1.0,,0.0,0.0,
2025-08-15T01:01:00.827Z,9,GR86-004-78,93.3,0.092,1.079,38.92,1.0,,0.0,0.0,
2025-08-15T01:01:00.870Z,9,GR86-004-78,93.3,0.062,1.074,38.47,1.0,,0.0,0.0,
2025-08-15T01:01:00.913Z,9,GR86-004-78,92.3,0.268,1.27,37.85,1.0,6025.0,0.0,0.0,
2025-08-15T01:01:00.956Z,9,GR86-004-78,88.9,0.286,1.248,37.92,1.0,,0.0,0.0,79.22
2025-08-15T01:01:00.999Z,9,GR86-004-78,86.10000000000001,0.026,1.292,38.91,1.0,,0.0,0.0,
2025-08-15T01:01:01.042Z,9,GR86-004-78,85.2,-0.029,1.525,39.0,1.0,,0.0,0.0,
2025-08-15T01:01:01.086Z,9,GR86-004-78,81.4,0.155,1.593,38.96,1.0,,0.0,0.0,
2025-08-15T01:01:01.129Z,9,GR86-004-78,71.7,0.24,1.121,38.94,1.0,6289.0,0.0,0.0,
2025-08-15T01:01:01.172Z,9,GR86-004-78,58.0,0.172,1.243,40.07,1.0,,0.0,0.0,80.2
2025-08-15T01:01:01.215Z,9,GR86-004-78,46.2,0.277,1.177,50.22,1.0,,0.0,0.0,
2025-08-15T01:01:01.302Z,9,GR86-004-78,37.7,0.138,0.974,79.68,1.0,,0.0,0.0,
2025-08-15T01:01:01.345Z,9,GR86-004-78,36.2,0.138,1.309,99.74,1.0,6361.0,0.0,0.0,
2025-08-15T01:01:01.388Z,9,GR86-004-78,34.0,0.269,1.322,99.79,1.0,,0.0,0.0,81.3
2025-08-15T01:01:01.431Z,9,GR86-004-78,27.5,0.306,1.342,99.81,1.0,,0.0,0.0,
2025-08-15T01:01:01.474Z,9,GR86-004-78,16.400000000000002,0.342,1.163,99.76,1.0,,0.0,0.0,
2025-08-15T01:01:01.517Z,9,GR86-004-78,13.1,0.352,1.088,99.8,1.0,,0.0,0.0,
2025-08-15T01:01:01.560Z,9,GR86-004-78,20.8,0.362,1.04,99.8,1.0,6365.0,0.0,0.0,
2025-08-15T01:01:01.603Z,9,GR86-004-78,39.0,0.323,1.091,99.8,1.0,,0.0,0.0,82.42
2025-08-15T01:01:01.646Z,9,GR86-004-78,51.400000000000006,0.304,1.128,99.81,1.0,,0.0,0.0,
2025-08-15T01:01:01.689Z,9,GR86-004-78,51.0,0.29,1.21,99.81,1.0,,0.0,0.0,
2025-08-15T01:01:01.732Z,9,GR86-004-78,43.900000000000006,0.312,1.14,99.79,1.0,,0.0,0.0,
2025-08-15T01:01:01.775Z,9,GR86-004-78,38.2,0.323,1.129,99.8,1.0,6561.0,0.0,0.0,
2025-08-15T01:01:01.818Z,9,GR86-004-78,36.8,0.34,1.109,99.81,1.0,,0.0,0.0,83.46000000000001
2025-08-15T01:01:01.861Z,9,GR86-004-78,36.8,0.339,1.079,99.8,1.0,,0.0,0.0,
2025-08-15T01:01:01.904Z,9,GR86-004-78,36.4,0.313,1.02,99.78,1.0,,0.0,0.0,
2025-08-15T01:01:01.947Z,9,GR86-004-78,32.4,0.292,1.1,99.8,1.0,,0.0,0.0,
2025-08-15T01:01:01.990Z,9,GR86-004-78,30.1,0.293,1.073,99.8,1.0,6615.0,0.0,0.0,
2025-08-15T01:01:02.033Z,9,GR86-004-78,29.5,0.304,1.107,99.81,1.0,,0.0,0.0,84.72
2025-08-15T01:01:02.076Z,9,GR86-004-78,29.3,0.313,1.111,99.81,1.0,,0.0,0.0,
2025-08-15T01:01:02.119Z,9,GR86-004-78,26.9,0.343,1.127,99.8,1.0,,0.0,0.0,
2025-08-15T01:01:02.162Z,9,GR86-004-78,19.6,0.343,1.083,99.82,1.0,,0.0,0.0,
2025-08-15T01:01:02.206Z,9,GR86-004-78,6.5,0.31,1.012,99.81,1.0,6761.0,0.0,0.0,
2025-08-15T01:01:02.249Z,9,GR86-004-78,3.3000000000000003,0.301,0.993,99.82,1.0,,0.0,0.0,86.35000000000001
2025-08-15T01:01:02.292Z,9,GR86-004-78,3.2,0.335,1.015,99.8,1.0,,0.0,0.0,
2025-08-15T01:01:02.335Z,9,GR86-004-78,3.4000000000000004,0.322,0.968,99.81,1.0,,0.0,0.0,
2025-08-15T01:01:02.378Z,9,GR86-004-78,6.2,0.34,0.986,99.81,1.0,,0.0,0.0,
2025-08-15T01:01:02.421Z,9,GR86-004-78,8.3,0.342,0.966,99.81,1.0,6941.0,0.0,0.0,
2025-08-15T01:01:02.464Z,9,GR86-004-78,8.6,0.342,0.997,99.84,1.0,,0.0,0.0,88.25
2025-08-15T01:01:02.507Z,9,GR86-004-78,8.3,0.373,0.975,99.82,1.0,,0.0,0.0,
2025-08-15T01:01:02.550Z,9,GR86-004-78,7.0,0.371,0.925,99.83,1.0,,0.0,0.0,
2025-08-15T01:01:02.594Z,9,GR86-004-78,7.0,0.311,0.892,99.81,1.0,,0.0,0.0,
2025-08-15T01:01:02.680Z,9,GR86-004-78,7.1000000000000005,0.075,0.8130000000000001,99.84,2.0,7077.0,0.0,0.0,91.75
2025-08-15T01:01:02.723Z,9,GR86-004-78,7.6,0.661,0.486,99.86,2.0,,0.0,0.0,
2025-08-15T01:01:02.768Z,9,GR86-004-78,14.1,0.5670000000000001,0.542,99.84,2.0,,0.0,0.0,
2025-08-15T01:01:02.812Z,9,GR86-004-78,20.6,0.546,0.625,99.82,2.0,,0.0,0.0,
2025-08-15T01:01:02.855Z,9,GR86-004-78,23.0,0.553,0.325,99.83,2.0,7171.0,0.0,0.0,
2025-08-15T01:01:02.898Z,9,GR86-004-78,23.0,0.301,0.454,99.83,2.0,,0.0,0.0,93.16
2025-08-15T01:01:02.941Z,9,GR86-004-78,20.4,0.142,0.45,99.84,2.0,,0.0,0.0,
2025-08-15T01:01:02.984Z,9,GR86-004-78,15.1,0.133,0.399,99.84,2.0,,0.0,0.0,
2025-08-15T01:01:03.071Z,9,GR86-004-78,12.5,0.276,0.401,99.83,2.0,5645.0,0.0,0.0,
2025-08-15T01:01:03.114Z,9,GR86-004-78,12.7,0.222,0.387,99.82,2.0,,0.0,0.0,94.76
2025-08-15T01:01:03.157Z,9,GR86-004-78,12.7,0.221,0.401,99.84,2.0,,0.0,0.0,
2025-08-15T01:01:03.200Z,9,GR86-004-78,13.0,0.269,0.307,99.84,2.0,,0.0,0.0,
2025-08-15T01:01:03.243Z,9,GR86-004-78,13.1,0.287,0.245,99.83,2.0,,0.0,0.0,
2025-08-15T01:01:03.286Z,9,GR86-004-78,13.1,0.145,0.184,99.84,2.0,5769.0,0.0,0.0,
2025-08-15T01:01:03.330Z,9,GR86-004-78,13.0,0.189,0.199,99.84,2.0,,0.0,0.0,97.48
2025-08-15T01:01:03.373Z,9,GR86-004-78,13.0,0.32,0.221,99.84,2.0,,0.0,0.0,
2025-08-15T01:01:03.416Z,9,GR86-004-78,13.0,0.332,0.257,99.84,2.0,,0.0,0.0,
2025-08-15T01:01:03.459Z,9,GR86-004-78,13.2,0.347,0.244,99.85,2.0,,0.0,0.0,
2025-08-15T01:01:03.503Z,9,GR86-004-78,14.4,0.276,0.289,99.85,2.0,5831.0,0.0,0.0,
2025-08-15T01:01:03.547Z,9,GR86-004-78,15.8,0.198,0.255,99.86,2.0,,0.0,0.0,99.38
2025-08-15T01:01:03.590Z,9,GR86-004-78,15.8,0.221,0.294,99.85,2.0,,0.0,0.0,
2025-08-15T01:01:03.633Z,9,GR86-004-78,14.5,0.249,0.288,99.85,2.0,,0.0,0.0,
2025-08-15T01:01:03.676Z,9,GR86-004-78,9.7,0.328,0.275,99.84,2.0,,0.0,0.0,
2025-08-15T01:01:03.719Z,9,GR86-004-78,8.9,0.263,0.239,99.83,2.0,5893.0,0.0,0.0,
2025-08-15T01:01:03.762Z,9,GR86-004-78,8.9,0.344,0.185,99.84,2.0,,0.0,0.0,101.2
2025-08-15T01:01:03.805Z,9,GR86-004-78,8.9,0.281,0.113,99.83,2.0,,0.0,0.0,
2025-08-15T01:01:03.848Z,9,GR86-004-78,8.6,0.188,0.086,99.84,2.0,,0.0,0.0,
2025-08-15T01:01:03.891Z,9,GR86-004-78,8.0,0.235,0.076,99.84,2.0,,0.0,0.0,
2025-08-15T01:01:03.934Z,9,GR86-004-78,7.5,0.274,0.024,99.85,2.0,6074.0,0.0,0.0,
2025-08-15T01:01:03.977Z,9,GR86-004-78,7.1000000000000005,0.323,0.033,99.84,2.0,,0.0,0.0,103.07
2025-08-15T01:01:04.021Z,9,GR86-004-78,7.1000000000000005,0.324,-0.028,99.84,2.0,,0.0,0.0,
2025-08-15T01:01:04.064Z,9,GR86-004-78,7.1000000000000005,0.335,0.017,99.84,2.0,,0.0,0.0,
2025-08-15T01:01:04.107Z,9,GR86-004-78,7.2,0.22,-0.003,99.84,2.0,,0.0,0.0,
2025-08-15T01:01:04.151Z,9,GR86-004-78,7.300000000000001,0.199,-0.008,99.84,2.0,6155.0,0.0,0.0,
2025-08-15T01:01:04.194Z,9,GR86-004-78,7.300000000000001,0.258,0.0,99.84,2.0,,0.0,0.0,104.9
2025-08-15T01:01:04.237Z,9,GR86-004-78,7.300000000000001,0.225,-0.019,99.84,2.0,,0.0,0.0,
2025-08-15T01:01:04.280Z,9,GR86-004-78,7.300000000000001,0.272,0.028,99.84,2.0,,0.0,0.0,
2025-08-15T01:01:04.323Z,9,GR86-004-78,7.0,0.239,0.021,99.83,2.0,,0.0,0.0,
2025-08-15T01:01:04.367Z,9,GR86-004-78,6.300000000000001,0.268,0.097,99.84,2.0,6209.0,0.0,0.0,
2025-08-15T01:01:04.411Z,9,GR86-004-78,6.0,0.265,0.051,99.84,2.0,,0.0,0.0,106.54
2025-08-15T01:01:04.454Z,9,GR86-004-78,5.800000000000001,0.28,0.073,99.83,2.0,,0.0,0.0,
2025-08-15T01:01:04.497Z,9,GR86-004-78,5.6000000000000005,0.298,0.071,99.83,2.0,,0.0,0.0,
2025-08-15T01:01:04.540Z,9,GR86-004-78,5.0,0.286,0.044,99.82,2.0,,0.0,0.0,
2025-08-15T01:01:04.583Z,9,GR86-004-78,4.2,0.27,0.054,99.84,2.0,6312.0,0.0,0.0,
2025-08-15T01:01:04.626Z,9,GR86-004-78,3.5,0.285,0.069,99.85,2.0,,0.0,0.0,108.27
2025-08-15T01:01:04.669Z,9,GR86-004-78,3.0,0.255,0.051,99.84,2.0,,0.0,0.0,
2025-08-15T01:01:04.712Z,9,GR86-004-78,2.7,0.269,0.062,99.83,2.0,,0.0,0.0,
2025-08-15T01:01:04.755Z,9,GR86-004-78,2.7,0.284,0.051,99.84,2.0,,0.0,0.0,
2025-08-15T01:01:04.798Z,9,GR86-004-78,2.7,0.267,0.029,99.85,2.0,6407.0,0.0,0.0,
2025-08-15T01:01:04.841Z,9,GR86-004-78,2.7,0.268,0.047,99.84,2.0,,0.0,0.0,110.21
2025-08-15T01:01:04.884Z,9,GR86-004-78,2.7,0.273,0.051,99.83,2.0,,0.0,0.0,
2025-08-15T01:01:04.927Z,9,GR86-004-78,2.5,0.256,0.032,99.84,2.0,,0.0,0.0,
2025-08-15T01:01:04.971Z,9,GR86-004-78,2.2,0.291,0.037,99.82,2.0,,0.0,0.0,
2025-08-15T01:01:05.014Z,9,GR86-004-78,1.7000000000000002,0.274,0.032,99.84,2.0,6473.0,0.0,0.0,
2025-08-15T01:01:05.057Z,9,GR86-004-78,1.2000000000000002,0.248,0.009,99.84,2.0,,0.0,0.0,111.8
2025-08-15T01:01:05.100Z,9,GR86-004-78,0.8,0.265,-0.008,99.82,2.0,,0.0,0.0,
2025-08-15T01:01:05.143Z,9,GR86-004-78,0.5,0.275,0.004,99.84,2.0,,0.0,0.0,
2025-08-15T01:01:05.186Z,9,GR86-004-78,0.1,0.285,-0.022,99.84,2.0,,0.0,0.0,
2025-08-15T01:01:05.229Z,9,GR86-004-78,-0.5,0.273,-0.043,99.83,2.0,6573.0,0.0,0.0,
2025-08-15T01:01:05.272Z,9,GR86-004-78,-2.2,0.262,-0.051,99.84,2.0,,0.0,0.0,114.98
2025-08-15T01:01:05.316Z,9,GR86-004-78,-4.3,0.254,-0.093,99.8,2.0,,0.0,0.0,
2025-08-15T01:01:05.359Z,9,GR86-004-78,-5.800000000000001,0.266,-0.115,99.84,2.0,,0.0,0.0,
2025-08-15T01:01:05.402Z,9,GR86-004-78,-6.1000000000000005,0.277,-0.138,99.84,2.0,,0.0,0.0,
2025-08-15T01:01:05.446Z,9,GR86-004-78,-5.2,0.278,-0.16,99.82,2.0,6654.0,0.0,0.0,
2025-08-15T01:01:05.491Z,9,GR86-004-78,-4.7,0.252,-0.19,99.84,2.0,,0.0,0.0,116.5
2025-08-15T01:01:05.534Z,9,GR86-004-78,-4.2,0.263,-0.197,99.84,2.0,,0.0,0.0,
2025-08-15T01:01:05.578Z,9,GR86-004-78,-3.8,0.282,-0.186,99.84,2.0,,0.0,0.0,
2025-08-15T01:01:05.621Z,9,GR86-004-78,-3.5,0.252,-0.194,99.84,2.0,,0.0,0.0,
2025-08-15T01:01:05.664Z,9,GR86-004-78,-3.3000000000000003,0.264,-0.179,99.84,2.0,6735.0,0.0,0.0,
2025-08-15T01:01:05.707Z,9,GR86-004-78,-3.2,0.263,-0.156,99.85,2.0,,0.0,0.0,117.96
2025-08-15T01:01:05.751Z,9,GR86-004-78,-3.3000000000000003,0.277,-0.145,99.84,2.0,,0.0,0.0,
2025-08-15T01:01:05.794Z,9,GR86-004-78,-3.3000000000000003,0.249,-0.158,99.84,2.0,,0.0,0.0,
2025-08-15T01:01:05.837Z,9,GR86-004-78,-3.4000000000000004,0.259,-0.129,99.84,2.0,,0.0,0.0,
2025-08-15T01:01:05.880Z,9,GR86-004-78,-3.8,0.284,-0.116,99.83,2.0,6902.0,0.0,0.0,
2025-08-15T01:01:05.923Z,9,GR86-004-78,-4.4,0.251,-0.139,99.84,2.0,,0.0,0.0,119.4
2025-08-15T01:01:05.967Z,9,GR86-004-78,-3.9,0.249,-0.148,99.8,2.0,,0.0,0.0,
2025-08-15T01:01:06.012Z,9,GR86-004-78,-3.1,0.255,-0.158,99.84,2.0,,0.0,0.0,
2025-08-15T01:01:06.055Z,9,GR86-004-78,-2.4000000000000004,0.294,-0.136,99.81,2.0,,0.0,0.0,
2025-08-15T01:01:06.098Z,9,GR86-004-78,-2.2,0.257,-0.136,99.82,2.0,6974.0,0.0,0.0,
2025-08-15T01:01:06.141Z,9,GR86-004-78,-2.0,0.253,-0.126,99.84,2.0,,0.0,0.0,120.74
2025-08-15T01:01:06.184Z,9,GR86-004-78,-1.6,0.275,-0.106,99.82,2.0,,0.0,0.0,
2025-08-15T01:01:06.227Z,9,GR86-004-78,-1.2000000000000002,0.289,-0.093,99.84,2.0,,0.0,0.0,
2025-08-15T01:01:06.271Z,9,GR86-004-78,-1.0,0.266,-0.094,99.81,2.0,,0.0,0.0,
2025-08-15T01:01:06.314Z,9,GR86-004-78,-1.0,0.255,-0.074,99.83,2.0,7048.0,0.0,0.0,
2025-08-15T01:01:06.357Z,9,GR86-004-78,-1.0,0.276,-0.052,99.83,2.0,,0.0,0.0,121.91
2025-08-15T01:01:06.400Z,9,GR86-004-78,-0.7000000000000001,0.258,-0.061,99.84,2.0,,0.0,0.0,
2025-08-15T01:01:06.443Z,9,GR86-004-78,-0.5,0.246,-0.043,99.83,2.0,,0.0,0.0,
2025-08-15T01:01:06.486Z,9,GR86-004-78,-0.3,0.241,-0.02,99.84,2.0,,0.0,0.0,
2025-08-15T01:01:06.529Z,9,GR86-004-78,-0.2,0.263,0.003,99.83,2.0,7124.0,0.0,0.0,
2025-08-15T01:01:06.573Z,9,GR86-004-78,-0.1,0.273,0.004,99.83,2.0,,0.0,0.0,123.09
2025-08-15T01:01:06.616Z,9,GR86-004-78,-0.1,0.239,-0.004,99.83,2.0,,0.0,0.0,
2025-08-15T01:01:06.659Z,9,GR86-004-78,-0.1,-0.018,0.038,99.84,3.0,,0.0,0.0,
2025-08-15T01:01:06.702Z,9,GR86-004-78,0.0,0.278,0.062,99.84,3.0,,0.0,0.0,
2025-08-15T01:01:06.746Z,9,GR86-004-78,0.1,0.371,-0.029,99.83,3.0,7180.0,0.0,0.0,
2025-08-15T01:01:06.789Z,9,GR86-004-78,0.1,0.367,0.056,99.84,3.0,,0.0,0.0,124.28
2025-08-15T01:01:06.832Z,9,GR86-004-78,0.2,0.276,0.048,99.83,3.0,,0.0,0.0,
2025-08-15T01:01:06.875Z,9,GR86-004-78,0.4,0.155,-0.023,99.83,3.0,,0.0,0.0,
2025-08-15T01:01:06.918Z,9,GR86-004-78,0.4,0.125,0.069,99.84,3.0,,0.0,0.0,
2025-08-15T01:01:06.962Z,9,GR86-004-78,0.4,0.221,0.018,99.84,3.0,6819.0,0.0,0.0,
2025-08-15T01:01:07.005Z,9,GR86-004-78,0.4,0.285,0.013,99.84,3.0,,0.0,0.0,125.43
2025-08-15T01:01:07.048Z,9,GR86-004-78,0.2,0.202,0.05,99.84,3.0,,0.0,0.0,
2025-08-15T01:01:07.091Z,9,GR86-004-78,0.3,0.21,-0.003,99.83,3.0,,0.0,0.0,
2025-08-15T01:01:07.134Z,9,GR86-004-78,0.4,0.197,0.029,99.83,3.0,,0.0,0.0,
2025-08-15T01:01:07.177Z,9,GR86-004-78,0.4,0.226,0.013,99.84,3.0,5813.0,0.0,0.0,
2025-08-15T01:01:07.220Z,9,GR86-004-78,0.4,0.258,0.024,99.83,3.0,,0.0,0.0,126.44
2025-08-15T01:01:07.263Z,9,GR86-004-78,0.4,0.213,0.002,99.83,3.0,,0.0,0.0,
2025-08-15T01:01:07.306Z,9,GR86-004-78,0.5,0.224,-0.006,99.84,3.0,,0.0,0.0,
2025-08-15T01:01:07.349Z,9,GR86-004-78,0.5,0.209,-0.018,99.84,3.0,,0.0,0.0,
2025-08-15T01:01:07.392Z,9,GR86-004-78,0.5,0.215,0.0,99.84,3.0,5936.0,0.0,0.0,
2025-08-15T01:01:07.435Z,9,GR86-004-78,0.5,0.253,-0.007,99.84,3.0,,0.0,0.0,127.59
2025-08-15T01:01:07.478Z,9,GR86-004-78,-0.1,0.198,-0.032,99.84,3.0,,0.0,0.0,
2025-08-15T01:01:07.521Z,9,GR86-004-78,-0.4,0.187,-0.015,99.84,3.0,,0.0,0.0,
2025-08-15T01:01:07.564Z,9,GR86-004-78,-0.4,0.237,-0.04,99.85,3.0,,0.0,0.0,
2025-08-15T01:01:07.607Z,9,GR86-004-78,-0.3,0.213,-0.023,99.84,3.0,5995.0,0.0,0.0,
2025-08-15T01:01:07.650Z,9,GR86-004-78,-0.3,0.235,-0.05,99.84,3.0,,0.0,0.0,128.49
2025-08-15T01:01:07.693Z,9,GR86-004-78,-0.3,0.209,-0.053,99.84,3.0,,0.0,0.0,
2025-08-15T01:01:07.736Z,9,GR86-004-78,-0.3,0.19,-0.035,99.84,3.0,,0.0,0.0,
2025-08-15T01:01:07.779Z,9,GR86-004-78,-0.3,0.243,-0.041,99.84,3.0,,0.0,0.0,
2025-08-15T01:01:07.822Z,9,GR86-004-78,-0.3,0.224,-0.054,99.84,3.0,6045.0,0.0,0.0,
2025-08-15T01:01:07.865Z,9,GR86-004-78,-0.3,0.187,-0.056,71.0,3.0,,0.0,0.0,129.27
2025-08-15T01:01:07.908Z,9,GR86-004-78,-0.1,0.204,-0.051,31.2,3.0,,0.0,0.0,
2025-08-15T01:01:07.951Z,9,GR86-004-78,-0.1,0.182,-0.039,5.21,3.0,,0.0,0.0,
2025-08-15T01:01:07.994Z,9,GR86-004-78,0.1,0.179,-0.034,5.25,3.0,,3.615,3.875,
2025-08-15T01:01:08.037Z,9,GR86-004-78,1.2000000000000002,-0.074,-0.027,5.08,3.0,6090.0,10.5,10.805,
2025-08-15T01:01:08.080Z,9,GR86-004-78,2.3000000000000003,-0.187,0.028,4.76,3.0,,17.96,18.02,130.93
2025-08-15T01:01:08.123Z,9,GR86-004-78,5.0,-0.541,0.025,4.16,3.0,,27.56,27.435,
2025-08-15T01:01:08.211Z,9,GR86-004-78,10.9,-0.651,0.11,3.48,3.0,,45.43,45.065,
2025-08-15T01:01:08.254Z,9,GR86-004-78,12.4,-0.944,0.154,3.19,3.0,6140.0,62.215,61.71,
2025-08-15T01:01:08.297Z,9,GR86-004-78,12.4,-0.976,0.221,3.13,3.0,,66.015,66.455,131.79
2025-08-15T01:01:08.341Z,9,GR86-004-78,9.8,-0.913,0.149,2.97,3.0,,66.045,67.665,
2025-08-15T01:01:08.384Z,9,GR86-004-78,2.6,-0.99,0.139,23.44,3.0,,59.985,61.24,
2025-08-15T01:01:08.428Z,9,GR86-004-78,-1.0,-0.883,0.161,57.35,2.0,,48.8,50.07,
2025-08-15T01:01:08.471Z,9,GR86-004-78,1.8,-0.88,0.008,4.94,2.0,5674.0,43.4,44.5,
2025-08-15T01:01:08.514Z,9,GR86-004-78,10.5,-0.834,0.211,4.37,2.0,,44.315,45.49,128.41
2025-08-15T01:01:08.557Z,9,GR86-004-78,17.1,-1.0,0.247,3.78,2.0,,45.37,46.65,
2025-08-15T01:01:08.600Z,9,GR86-004-78,17.6,-1.024,0.343,3.45,2.0,,42.3,42.985,
2025-08-15T01:01:08.643Z,9,GR86-004-78,12.8,-0.866,0.493,3.27,2.0,,35.175000000000004,36.06,
2025-08-15T01:01:08.686Z,9,GR86-004-78,10.5,-0.725,0.303,3.0700000000000003,2.0,5082.0,28.245,29.055,
2025-08-15T01:01:08.730Z,9,GR86-004-78,15.8,-0.642,0.5710000000000001,2.94,2.0,,29.955,30.275,119.54
2025-08-15T01:01:08.773Z,9,GR86-004-78,25.200000000000003,-0.987,0.525,2.75,2.0,,31.54,32.410000000000004,
2025-08-15T01:01:08.816Z,9,GR86-004-78,33.9,-0.627,0.61,2.65,2.0,,33.160000000000004,33.68,
2025-08-15T01:01:08.859Z,9,GR86-004-78,38.1,-0.733,0.796,2.5,2.0,,33.845,34.305,
2025-08-15T01:01:08.902Z,9,GR86-004-78,38.0,-0.658,0.811,2.41,2.0,5775.0,32.87,33.25,
2025-08-15T01:01:08.945Z,9,GR86-004-78,37.6,-0.589,0.803,2.4,2.0,,29.435,30.155,114.32
2025-08-15T01:01:08.988Z,9,GR86-004-78,36.6,-0.503,0.871,2.38,2.0,,18.74,19.395,
2025-08-15T01:01:09.031Z,9,GR86-004-78,27.700000000000003,-0.444,0.948,2.4,2.0,,11.31,12.055,
2025-08-15T01:01:09.074Z,9,GR86-004-78,16.2,-0.347,0.865,2.37,2.0,,6.745,7.235,
2025-08-15T01:01:09.117Z,9,GR86-004-78,11.0,-0.247,0.766,2.4,2.0,5894.0,5.905,6.3950000000000005,
2025-08-15T01:01:09.160Z,9,GR86-004-78,10.9,-0.255,0.788,2.41,2.0,,5.905,6.24,110.82
2025-08-15T01:01:09.203Z,9,GR86-004-78,17.2,-0.306,0.779,2.39,2.0,,6.3,6.575,
2025-08-15T01:01:09.247Z,9,GR86-004-78,29.700000000000003,-0.268,0.803,2.41,2.0,,7.295,7.585,
2025-08-15T01:01:09.290Z,9,GR86-004-78,34.800000000000004,-0.262,0.875,2.4,2.0,,8.33,8.605,
2025-08-15T01:01:09.376Z,9,GR86-004-78,42.5,-0.308,0.922,2.4,2.0,5719.0,9.4,9.81,106.31
2025-08-15T01:01:09.419Z,9,GR86-004-78,42.3,-0.325,0.924,2.4,2.0,,8.395,8.975,
2025-08-15T01:01:09.462Z,9,GR86-004-78,36.3,-0.262,0.927,2.41,2.0,,6.335,7.05,
2025-08-15T01:01:09.506Z,9,GR86-004-78,31.4,-0.248,0.84,2.41,2.0,,6.09,6.485,
2025-08-15T01:01:09.549Z,9,GR86-004-78,33.800000000000004,-0.282,0.854,2.42,2.0,5707.0,6.93,7.0200000000000005,
2025-08-15T01:01:09.592Z,9,GR86-004-78,43.2,-0.275,0.899,2.43,2.0,,6.93,7.265000000000001,103.73
2025-08-15T01:01:09.635Z,9,GR86-004-78,46.7,-0.26,0.951,2.43,2.0,,5.16,5.615,
2025-08-15T01:01:09.678Z,9,GR86-004-78,46.0,-0.188,0.993,2.43,2.0,,0.0,0.0,
2025-08-15T01:01:09.721Z,9,GR86-004-78,36.6,-0.148,1.053,2.43,2.0,,0.0,0.0,
2025-08-15T01:01:09.764Z,9,GR86-004-78,31.9,-0.163,0.988,2.43,2.0,5543.0,0.0,0.0,
2025-08-15T01:01:09.807Z,9,GR86-004-78,35.7,-0.162,0.984,2.46,2.0,,0.0,0.0,101.17
2025-08-15T01:01:09.850Z,9,GR86-004-78,48.0,-0.157,1.044,2.47,2.0,,0.0,0.0,
2025-08-15T01:01:09.893Z,9,GR86-004-78,58.0,-0.142,1.05,2.47,2.0,,0.0,0.0,
2025-08-15T01:01:09.936Z,9,GR86-004-78,60.8,-0.146,1.092,2.47,2.0,,0.0,0.0,
2025-08-15T01:01:10.022Z,9,GR86-004-78,60.8,-0.152,1.109,2.81,2.0,5448.0,0.0,0.0,99.37
2025-08-15T01:01:10.065Z,9,GR86-004-78,59.8,-0.158,1.132,5.2,2.0,,0.0,0.0,
2025-08-15T01:01:10.108Z,9,GR86-004-78,64.3,-0.169,1.149,10.08,2.0,,0.0,0.0,
2025-08-15T01:01:10.151Z,9,GR86-004-78,71.7,-0.186,1.205,16.07,2.0,,0.0,0.0,
2025-08-15T01:01:10.194Z,9,GR86-004-78,75.9,-0.156,1.183,19.3,2.0,5413.0,0.0,0.0,
2025-08-15T01:01:10.237Z,9,GR86-004-78,76.4,-0.126,1.221,21.33,2.0,,0.0,0.0,98.09
2025-08-15T01:01:10.280Z,9,GR86-004-78,76.4,-0.119,1.25,21.45,2.0,,0.0,0.0,
2025-08-15T01:01:10.323Z,9,GR86-004-78,76.4,-0.109,1.197,23.84,2.0,,0.0,0.0,
2025-08-15T01:01:10.368Z,9,GR86-004-78,76.80000000000001,-0.111,1.201,28.09,2.0,,0.0,0.0,
2025-08-15T01:01:10.411Z,9,GR86-004-78,76.80000000000001,0.018,1.207,28.46,2.0,5327.0,0.0,0.0,
2025-08-15T01:01:10.454Z,9,GR86-004-78,76.9,0.146,1.093,28.29,2.0,,0.0,0.0,96.62
2025-08-15T01:01:10.497Z,9,GR86-004-78,76.7,0.119,1.193,31.54,2.0,,0.0,0.0,
2025-08-15T01:01:10.540Z,9,GR86-004-78,75.5,0.051,1.377,38.1,2.0,,0.0,0.0,
2025-08-15T01:01:10.583Z,9,GR86-004-78,73.3,0.18,1.297,39.58,2.0,,0.0,0.0,
2025-08-15T01:01:10.626Z,9,GR86-004-78,73.2,0.117,1.307,40.59,2.0,5300.0,0.0,0.0,
2025-08-15T01:01:10.670Z,9,GR86-004-78,73.2,0.4,1.216,39.19,2.0,,0.0,0.0,94.52
2025-08-15T01:01:10.713Z,9,GR86-004-78,71.8,0.189,1.097,39.04,2.0,,0.0,0.0,
2025-08-15T01:01:10.756Z,9,GR86-004-78,66.5,-0.161,1.19,43.02,2.0,,0.0,0.0,
2025-08-15T01:01:10.799Z,9,GR86-004-78,58.7,0.181,1.408,53.09,2.0,,0.0,0.0,
2025-08-15T01:01:10.843Z,9,GR86-004-78,51.900000000000006,0.397,1.075,56.28,2.0,5566.0,0.0,0.0,
2025-08-15T01:01:10.886Z,9,GR86-004-78,49.5,0.22,1.108,80.48,2.0,,0.0,0.0,94.48
2025-08-15T01:01:10.929Z,9,GR86-004-78,49.1,0.415,0.971,99.83,2.0,,0.0,0.0,
2025-08-15T01:01:10.972Z,9,GR86-004-78,48.8,0.187,1.01,99.81,2.0,,0.0,0.0,
2025-08-15T01:01:11.016Z,9,GR86-004-78,48.2,-0.016,1.044,99.8,2.0,,0.0,0.0,
2025-08-15T01:01:11.059Z,9,GR86-004-78,48.2,0.117,1.145,99.84,2.0,5615.0,0.0,0.0,
2025-08-15T01:01:11.102Z,9,GR86-004-78,50.3,0.558,1.135,99.83,2.0,,0.0,0.0,94.88
2025-08-15T01:01:11.145Z,9,GR86-004-78,51.0,0.404,1.115,99.82,2.0,,0.0,0.0,
2025-08-15T01:01:11.188Z,9,GR86-004-78,50.0,0.185,1.2,99.84,2.0,,0.0,0.0,
2025-08-15T01:01:11.231Z,9,GR86-004-78,46.3,0.253,1.175,99.84,2.0,,0.0,0.0,
2025-08-15T01:01:11.274Z,9,GR86-004-78,44.400000000000006,0.278,1.234,99.84,2.0,5805.0,0.0,0.0,
2025-08-15T01:01:11.317Z,9,GR86-004-78,44.3,0.278,1.218,99.84,2.0,,0.0,0.0,95.65
2025-08-15T01:01:11.360Z,9,GR86-004-78,44.3,0.282,1.153,99.84,2.0,,0.0,0.0,
2025-08-15T01:01:11.403Z,9,GR86-004-78,48.8,0.265,1.137,99.83,2.0,,0.0,0.0,
2025-08-15T01:01:11.446Z,9,GR86-004-78,59.8,0.223,1.133,99.84,2.0,,0.0,0.0,
2025-08-15T01:01:11.491Z,9,GR86-004-78,64.60000000000001,0.187,1.152,99.84,2.0,5822.0,0.0,0.0,
2025-08-15T01:01:11.534Z,9,GR86-004-78,65.5,0.238,1.202,92.74,2.0,,0.0,0.0,97.16
2025-08-15T01:01:11.578Z,9,GR86-004-78,65.5,0.257,1.114,56.4,2.0,,0.0,0.0,
2025-08-15T01:01:11.621Z,9,GR86-004-78,65.5,0.256,1.15,49.22,2.0,,0.0,0.0,
2025-08-15T01:01:11.664Z,9,GR86-004-78,62.1,0.215,1.046,56.45,2.0,,0.0,0.0,
2025-08-15T01:01:11.707Z,9,GR86-004-78,49.1,0.179,1.096,98.33,2.0,5841.0,0.0,0.0,
2025-08-15T01:01:11.750Z,9,GR86-004-78,41.400000000000006,0.204,1.152,99.82,2.0,,0.0,0.0,98.85
2025-08-15T01:01:11.794Z,9,GR86-004-78,37.0,0.234,1.067,99.83,2.0,,0.0,0.0,
2025-08-15T01:01:11.837Z,9,GR86-004-78,33.5,0.201,1.089,99.83,2.0,,0.0,0.0,
2025-08-15T01:01:11.880Z,9,GR86-004-78,28.3,0.223,1.116,99.83,2.0,,0.0,0.0,
2025-08-15T01:01:11.923Z,9,GR86-004-78,24.6,0.258,1.112,99.82,2.0,5929.0,0.0,0.0,
2025-08-15T01:01:11.967Z,9,GR86-004-78,23.700000000000003,0.284,1.199,99.83,2.0,,0.0,0.0,100.01
2025-08-15T01:01:12.012Z,9,GR86-004-78,20.9,0.277,1.176,99.85,2.0,,0.0,0.0,
2025-08-15T01:01:12.055Z,9,GR86-004-78,14.4,0.265,1.199,99.84,2.0,,0.0,0.0,
2025-08-15T01:01:12.098Z,9,GR86-004-78,8.1,0.256,1.175,99.84,2.0,,0.0,0.0,
2025-08-15T01:01:12.141Z,9,GR86-004-78,4.1000000000000005,0.251,1.176,99.83,2.0,6132.0,0.0,0.0,
2025-08-15T01:01:12.227Z,9,GR86-004-78,-0.9,0.25,1.147,99.84,2.0,,0.0,0.0,101.47
2025-08-15T01:01:12.271Z,9,GR86-004-78,-6.2,0.265,1.111,99.84,2.0,,0.0,0.0,
2025-08-15T01:01:12.314Z,9,GR86-004-78,-16.0,0.249,1.157,99.84,2.0,,0.0,0.0,
2025-08-15T01:01:12.357Z,9,GR86-004-78,-29.5,0.381,1.057,99.84,2.0,6189.0,0.0,0.0,
2025-08-15T01:01:12.400Z,9,GR86-004-78,-45.400000000000006,0.366,0.6880000000000001,99.84,2.0,,0.0,0.0,103.23
2025-08-15T01:01:12.443Z,9,GR86-004-78,-54.8,0.224,0.54,99.84,2.0,,0.0,0.0,
2025-08-15T01:01:12.486Z,9,GR86-004-78,-47.3,0.401,0.556,99.84,2.0,,0.0,0.0,
2025-08-15T01:01:12.529Z,9,GR86-004-78,-22.4,0.321,0.873,99.84,2.0,,0.0,0.0,
2025-08-15T01:01:12.573Z,9,GR86-004-78,7.6,0.291,0.863,99.84,2.0,6328.0,0.0,0.0,
2025-08-15T01:01:12.616Z,9,GR86-004-78,31.8,0.239,1.159,99.84,2.0,,0.0,0.0,104.66
2025-08-15T01:01:12.659Z,9,GR86-004-78,42.1,0.255,1.292,99.84,2.0,,0.0,0.0,
2025-08-15T01:01:12.702Z,9,GR86-004-78,40.3,0.236,1.114,99.84,2.0,,0.0,0.0,
2025-08-15T01:01:12.745Z,9,GR86-004-78,31.5,0.23,1.222,99.84,2.0,,0.0,0.0,
2025-08-15T01:01:12.788Z,9,GR86-004-78,25.3,0.321,0.998,99.84,2.0,6376.0,0.0,0.0,
2025-08-15T01:01:12.831Z,9,GR86-004-78,24.8,0.101,0.674,99.85,2.0,,0.0,0.0,106.08
2025-08-15T01:01:12.874Z,9,GR86-004-78,26.8,-0.038,0.672,99.84,2.0,,0.0,0.0,
2025-08-15T01:01:12.917Z,9,GR86-004-78,27.200000000000003,0.039,0.607,99.84,2.0,,0.0,0.0,
2025-08-15T01:01:12.960Z,9,GR86-004-78,26.200000000000003,0.058,0.556,99.83,2.0,,0.0,0.0,
2025-08-15T01:01:13.003Z,9,GR86-004-78,24.200000000000003,0.18,0.656,99.83,2.0,6491.0,0.0,0.0,
2025-08-15T01:01:13.046Z,9,GR86-004-78,22.5,0.306,0.773,99.83,2.0,,0.0,0.0,106.38
2025-08-15T01:01:13.089Z,9,GR86-004-78,22.5,0.222,0.6930000000000001,99.84,2.0,,0.0,0.0,
2025-08-15T01:01:13.132Z,9,GR86-004-78,22.3,0.089,0.604,99.84,2.0,,0.0,0.0,
2025-08-15T01:01:13.175Z,9,GR86-004-78,20.700000000000003,0.114,0.762,99.83,2.0,,0.0,0.0,
2025-08-15T01:01:13.218Z,9,GR86-004-78,15.2,0.185,0.552,99.86,2.0,6346.0,0.0,0.0,
2025-08-15T01:01:13.262Z,9,GR86-004-78,12.4,0.177,0.673,99.84,2.0,,0.0,0.0,107.91
2025-08-15T01:01:13.305Z,9,GR86-004-78,12.3,0.24,0.608,99.84,2.0,,0.0,0.0,
2025-08-15T01:01:13.348Z,9,GR86-004-78,14.2,0.263,0.557,99.84,2.0,,0.0,0.0,
2025-08-15T01:01:13.391Z,9,GR86-004-78,15.6,0.196,0.539,99.84,2.0,,0.0,0.0,
2025-08-15T01:01:13.434Z,9,GR86-004-78,16.8,0.279,0.359,99.84,2.0,6496.0,0.0,0.0,
2025-08-15T01:01:13.477Z,9,GR86-004-78,16.8,0.19,0.419,99.84,2.0,,0.0,0.0,111.65
2025-08-15T01:01:13.520Z,9,GR86-004-78,16.0,0.088,0.295,99.84,2.0,,0.0,0.0,
2025-08-15T01:01:13.563Z,9,GR86-004-78,13.6,0.081,0.331,99.84,2.0,,0.0,0.0,
2025-08-15T01:01:13.606Z,9,GR86-004-78,13.0,0.374,0.361,99.84,2.0,,0.0,0.0,
2025-08-15T01:01:13.692Z,9,GR86-004-78,12.5,0.358,0.271,99.84,2.0,6560.0,0.0,0.0,113.61
2025-08-15T01:01:13.735Z,9,GR86-004-78,6.0,0.239,0.118,99.84,2.0,,0.0,0.0,
2025-08-15T01:01:13.778Z,9,GR86-004-78,4.5,0.25,0.026,99.84,2.0,,0.0,0.0,
2025-08-15T01:01:13.821Z,9,GR86-004-78,4.4,0.281,0.067,99.84,2.0,,0.0,0.0,
2025-08-15T01:01:13.864Z,9,GR86-004-78,4.6000000000000005,0.342,0.074,99.85,2.0,6616.0,0.0,0.0,
2025-08-15T01:01:13.907Z,9,GR86-004-78,6.4,0.267,0.145,99.84,2.0,,0.0,0.0,115.49
2025-08-15T01:01:13.950Z,9,GR86-004-78,6.5,0.194,0.168,99.84,2.0,,0.0,0.0,
2025-08-15T01:01:13.993Z,9,GR86-004-78,6.5,0.217,0.116,99.85,2.0,,0.0,0.0,
2025-08-15T01:01:14.037Z,9,GR86-004-78,6.5,0.25,0.126,99.84,2.0,,0.0,0.0,
2025-08-15T01:01:14.080Z,9,GR86-004-78,6.4,0.274,0.142,99.82,2.0,6828.0,0.0,0.0,
2025-08-15T01:01:14.123Z,9,GR86-004-78,6.4,0.299,0.129,99.83,2.0,,0.0,0.0,117.2
2025-08-15T01:01:14.168Z,9,GR86-004-78,5.0,0.256,0.137,99.86,2.0,,0.0,0.0,
2025-08-15T01:01:14.211Z,9,GR86-004-78,3.6,0.244,0.147,99.87,2.0,,0.0,0.0,
2025-08-15T01:01:14.254Z,9,GR86-004-78,3.3000000000000003,0.239,0.133,99.85,2.0,,0.0,0.0,
2025-08-15T01:01:14.297Z,9,GR86-004-78,3.3000000000000003,0.27,0.111,99.86,2.0,6960.0,0.0,0.0,
2025-08-15T01:01:14.341Z,9,GR86-004-78,3.2,0.265,0.093,99.84,2.0,,0.0,0.0,119.15
2025-08-15T01:01:14.384Z,9,GR86-004-78,2.7,0.245,0.088,99.84,2.0,,0.0,0.0,
2025-08-15T01:01:14.428Z,9,GR86-004-78,1.8,0.238,0.062,99.87,2.0,,0.0,0.0,
2025-08-15T01:01:14.471Z,9,GR86-004-78,1.3,0.245,0.025,99.84,2.0,,0.0,0.0,
2025-08-15T01:01:14.514Z,9,GR86-004-78,0.9,0.263,-0.008,99.84,2.0,7033.0,0.0,0.0,
2025-08-15T01:01:14.557Z,9,GR86-004-78,0.5,0.241,-0.006,99.84,2.0,,0.0,0.0,121.04
2025-08-15T01:01:14.600Z,9,GR86-004-78,-0.1,0.258,-0.052,99.85,2.0,,0.0,0.0,
2025-08-15T01:01:14.643Z,9,GR86-004-78,-1.0,0.252,-0.079,99.88,2.0,,0.0,0.0,
2025-08-15T01:01:14.686Z,9,GR86-004-78,-3.1,0.249,-0.113,99.85,2.0,,0.0,0.0,
2025-08-15T01:01:14.730Z,9,GR86-004-78,-4.2,0.106,-0.13,99.84,2.0,7144.0,0.0,0.0,
2025-08-15T01:01:14.773Z,9,GR86-004-78,-4.4,-0.104,-0.111,99.84,3.0,,0.0,0.0,122.9
2025-08-15T01:01:14.816Z,9,GR86-004-78,-4.4,0.369,-0.151,99.88,3.0,,0.0,0.0,
2025-08-15T01:01:14.860Z,9,GR86-004-78,-5.4,0.339,-0.257,99.83,3.0,,0.0,0.0,
2025-08-15T01:01:14.903Z,9,GR86-004-78,-8.8,0.414,-0.25,99.85,3.0,,0.0,0.0,
2025-08-15T01:01:14.947Z,9,GR86-004-78,-12.3,0.225,-0.381,99.85,3.0,7249.0,0.0,0.0,
