timestamp,lap,vehicle_id,steering_angle,accx_can,accy_can,ath,gear,nmot,pbrake_f,pbrake_r,speed
2025-08-15T09:14:49.330Z,5,GR86-028-89,1.5,0.114,-0.019,99.99,4.0,,0.0,0.0,
2025-08-15T09:14:49.375Z,5,GR86-028-89,1.4,0.117,-0.001,99.98,4.0,,0.0,0.0,
2025-08-15T09:14:49.418Z,5,GR86-028-89,1.2000000000000002,0.085,0.007,100.0,4.0,7186.0,0.0,0.0,
2025-08-15T09:14:49.461Z,5,GR86-028-89,1.2000000000000002,0.129,-0.025,100.02,4.0,,0.0,0.0,183.27
2025-08-15T09:14:49.505Z,5,GR86-028-89,1.4,0.112,-0.017,100.0,4.0,,0.0,0.0,
2025-08-15T09:14:49.548Z,5,GR86-028-89,1.4,0.115,-0.014,100.0,4.0,,0.0,0.0,
2025-08-15T09:14:49.591Z,5,GR86-028-89,1.4,0.103,-0.005,99.97,4.0,,0.0,0.0,
2025-08-15T09:14:49.636Z,5,GR86-028-89,1.2000000000000002,0.096,0.018,100.0,4.0,7212.0,0.0,0.0,
2025-08-15T09:14:49.679Z,5,GR86-028-89,1.4,0.099,0.008,99.97,4.0,,0.0,0.0,184.0
2025-08-15T09:14:49.722Z,5,GR86-028-89,1.7000000000000002,0.078,0.007,100.0,4.0,,0.0,0.0,
2025-08-15T09:14:49.765Z,5,GR86-028-89,1.8,0.095,0.001,100.03,4.0,,0.0,0.0,
2025-08-15T09:14:49.808Z,5,GR86-028-89,1.8,0.046,-0.013,99.99,4.0,,0.0,0.0,
2025-08-15T09:14:49.851Z,5,GR86-028-89,1.4,-0.179,0.027,99.99,5.0,7241.0,0.0,0.0,
2025-08-15T09:14:49.895Z,5,GR86-028-89,1.9,0.325,-0.048,100.01,5.0,,0.0,0.0,184.75
2025-08-15T09:14:49.938Z,5,GR86-028-89,2.1,0.163,-0.019,100.01,5.0,,0.0,0.0,
2025-08-15T09:14:49.981Z,5,GR86-028-89,1.5,0.007,0.087,100.0,5.0,,0.0,0.0,
2025-08-15T09:14:50.027Z,5,GR86-028-89,1.6,0.084,-0.043,99.99,5.0,,0.0,0.0,
2025-08-15T09:14:50.069Z,5,GR86-028-89,2.3000000000000003,0.183,0.023,99.97,5.0,6624.0,0.0,0.0,
2025-08-15T09:14:50.112Z,5,GR86-028-89,2.5,0.106,0.061,100.0,5.0,,0.0,0.0,185.5
2025-08-15T09:14:50.155Z,5,GR86-028-89,2.6,0.049,-0.01,99.98,5.0,,0.0,0.0,
2025-08-15T09:14:50.198Z,5,GR86-028-89,2.6,0.101,0.047,100.0,5.0,,0.0,0.0,
2025-08-15T09:14:50.241Z,5,GR86-028-89,2.1,0.084,-0.001,100.0,5.0,,0.0,0.0,
2025-08-15T09:14:50.286Z,5,GR86-028-89,1.9,0.064,0.002,100.01,5.0,6314.0,0.0,0.0,
2025-08-15T09:14:50.329Z,5,GR86-028-89,2.0,0.079,0.032,100.01,5.0,,0.0,0.0,186.98
2025-08-15T09:14:50.372Z,5,GR86-028-89,2.3000000000000003,0.087,0.003,100.01,5.0,,0.0,0.0,
2025-08-15T09:14:50.415Z,5,GR86-028-89,2.4000000000000004,0.079,0.013,100.0,5.0,,0.0,0.0,
2025-08-15T09:14:50.458Z,5,GR86-028-89,2.4000000000000004,0.081,0.015,100.0,5.0,,0.0,0.0,
2025-08-15T09:14:50.501Z,5,GR86-028-89,2.6,0.065,0.001,99.98,5.0,6337.0,0.0,0.0,
2025-08-15T09:14:50.545Z,5,GR86-028-89,2.7,0.079,0.032,100.02,5.0,,0.0,0.0,187.69
2025-08-15T09:14:50.587Z,5,GR86-028-89,2.8000000000000003,0.066,0.026,100.0,5.0,,0.0,0.0,
2025-08-15T09:14:50.631Z,5,GR86-028-89,2.8000000000000003,0.068,0.041,100.02,5.0,,0.0,0.0,
2025-08-15T09:14:50.675Z,5,GR86-028-89,2.7,0.107,0.028,99.99,5.0,,0.0,0.0,
2025-08-15T09:14:50.718Z,5,GR86-028-89,2.6,0.098,0.026,99.98,5.0,6392.0,0.0,0.0,
2025-08-15T09:14:50.761Z,5,GR86-028-89,2.6,0.097,0.039,100.01,5.0,,0.0,0.0,188.28
2025-08-15T09:14:50.805Z,5,GR86-028-89,2.7,0.098,0.035,99.98,5.0,,0.0,0.0,
2025-08-15T09:14:50.848Z,5,GR86-028-89,2.9000000000000004,0.099,0.038,100.01,5.0,,0.0,0.0,
2025-08-15T09:14:50.891Z,5,GR86-028-89,2.8000000000000003,0.094,0.04,99.99,5.0,,0.0,0.0,
2025-08-15T09:14:50.935Z,5,GR86-028-89,2.7,0.083,0.049,100.0,5.0,6413.0,0.0,0.0,
2025-08-15T09:14:50.978Z,5,GR86-028-89,2.7,0.096,0.045,99.99,5.0,,0.0,0.0,188.94
2025-08-15T09:14:51.021Z,5,GR86-028-89,2.8000000000000003,0.095,0.059,100.02,5.0,,0.0,0.0,
2025-08-15T09:14:51.065Z,5,GR86-028-89,2.8000000000000003,0.096,0.073,99.98,5.0,,0.0,0.0,
2025-08-15T09:14:51.108Z,5,GR86-028-89,2.8000000000000003,0.098,0.065,99.99,5.0,,0.0,0.0,
2025-08-15T09:14:51.151Z,5,GR86-028-89,2.7,0.104,0.071,99.99,5.0,6436.0,0.0,0.0,
2025-08-15T09:14:51.195Z,5,GR86-028-89,2.9000000000000004,0.07,0.074,100.0,5.0,,0.0,0.0,189.64
2025-08-15T09:14:51.238Z,5,GR86-028-89,3.1,0.073,0.08,99.99,5.0,,0.0,0.0,
2025-08-15T09:14:51.281Z,5,GR86-028-89,2.9000000000000004,0.082,0.053,99.99,5.0,,0.0,0.0,
2025-08-15T09:14:51.326Z,5,GR86-028-89,2.7,0.074,0.049,100.02,5.0,,0.0,0.0,
2025-08-15T09:14:51.369Z,5,GR86-028-89,2.6,0.09,0.059,100.0,5.0,6461.0,0.0,0.0,
2025-08-15T09:14:51.412Z,5,GR86-028-89,2.8000000000000003,0.074,0.066,99.99,5.0,,0.0,0.0,190.31
2025-08-15T09:14:51.455Z,5,GR86-028-89,2.9000000000000004,0.063,0.032,100.01,5.0,,0.0,0.0,
2025-08-15T09:14:51.498Z,5,GR86-028-89,2.7,0.075,0.033,99.99,5.0,,0.0,0.0,
2025-08-15T09:14:51.541Z,5,GR86-028-89,2.4000000000000004,0.078,0.029,100.0,5.0,,0.0,0.0,
2025-08-15T09:14:51.586Z,5,GR86-028-89,2.3000000000000003,0.069,0.049,99.98,5.0,6480.0,0.0,0.0,
2025-08-15T09:14:51.628Z,5,GR86-028-89,2.3000000000000003,0.067,0.053,100.01,5.0,,0.0,0.0,190.93
2025-08-15T09:14:51.671Z,5,GR86-028-89,2.4000000000000004,0.081,0.052,99.98,5.0,,0.0,0.0,
2025-08-15T09:14:51.715Z,5,GR86-028-89,2.6,0.079,0.027,99.99,5.0,,0.0,0.0,
2025-08-15T09:14:51.758Z,5,GR86-028-89,2.7,0.071,0.028,99.98,5.0,,0.0,0.0,
2025-08-15T09:14:51.801Z,5,GR86-028-89,2.5,0.071,0.031,100.01,5.0,6498.0,0.0,0.0,
2025-08-15T09:14:51.845Z,5,GR86-028-89,2.4000000000000004,0.064,0.024,99.98,5.0,,0.0,0.0,191.57
2025-08-15T09:14:51.887Z,5,GR86-028-89,2.4000000000000004,0.069,0.038,99.99,5.0,,0.0,0.0,
2025-08-15T09:14:51.930Z,5,GR86-028-89,2.4000000000000004,0.09,0.044,100.03,5.0,,0.0,0.0,
2025-08-15T09:14:51.976Z,5,GR86-028-89,2.3000000000000003,0.083,0.027,99.99,5.0,,0.0,0.0,
2025-08-15T09:14:52.018Z,5,GR86-028-89,2.3000000000000003,0.089,0.023,100.01,5.0,6528.0,0.0,0.0,
2025-08-15T09:14:52.061Z,5,GR86-028-89,2.3000000000000003,0.074,0.026,99.98,5.0,,0.0,0.0,192.22
2025-08-15T09:14:52.105Z,5,GR86-028-89,2.1,0.073,0.028,99.99,5.0,,0.0,0.0,
2025-08-15T09:14:52.148Z,5,GR86-028-89,2.0,0.092,0.034,100.03,5.0,,0.0,0.0,
2025-08-15T09:14:52.191Z,5,GR86-028-89,2.1,0.07,0.041,99.99,5.0,,0.0,0.0,
2025-08-15T09:14:52.236Z,5,GR86-028-89,2.2,0.078,0.018,100.0,5.0,6544.0,0.0,0.0,
2025-08-15T09:14:52.279Z,5,GR86-028-89,2.0,0.084,0.009,99.99,5.0,,0.0,0.0,192.91
2025-08-15T09:14:52.322Z,5,GR86-028-89,2.0,0.076,0.027,100.01,5.0,,0.0,0.0,
2025-08-15T09:14:52.365Z,5,GR86-028-89,2.0,0.087,0.022,100.02,5.0,,0.0,0.0,
2025-08-15T09:14:52.408Z,5,GR86-028-89,2.1,0.08,0.024,99.99,5.0,,0.0,0.0,
2025-08-15T09:14:52.451Z,5,GR86-028-89,2.1,0.077,0.026,100.02,5.0,6564.0,0.0,0.0,
2025-08-15T09:14:52.495Z,5,GR86-028-89,2.0,0.078,0.028,100.04,5.0,,0.0,0.0,193.55
2025-08-15T09:14:52.538Z,5,GR86-028-89,2.0,0.074,0.021,100.0,5.0,,0.0,0.0,
2025-08-15T09:14:52.581Z,5,GR86-028-89,1.8,0.082,0.01,100.0,5.0,,0.0,0.0,
2025-08-15T09:14:52.627Z,5,GR86-028-89,1.6,0.07,0.006,99.98,5.0,,0.0,0.0,
2025-08-15T09:14:52.669Z,5,GR86-028-89,1.5,0.069,0.01,100.0,5.0,6587.0,0.0,0.0,
2025-08-15T09:14:52.712Z,5,GR86-028-89,1.5,0.065,0.003,100.02,5.0,,0.0,0.0,194.25
2025-08-15T09:14:52.755Z,5,GR86-028-89,1.5,0.078,0.018,100.01,5.0,,0.0,0.0,
2025-08-15T09:14:52.841Z,5,GR86-028-89,1.5,0.058,0.018,100.02,5.0,,0.0,0.0,
2025-08-15T09:14:52.885Z,5,GR86-028-89,1.5,0.07,0.003,100.0,5.0,6610.0,0.0,0.0,
2025-08-15T09:14:52.928Z,5,GR86-028-89,1.5,0.054,0.019,100.0,5.0,,0.0,0.0,195.35
2025-08-15T09:14:52.971Z,5,GR86-028-89,1.5,0.064,0.017,100.0,5.0,,0.0,0.0,
2025-08-15T09:14:53.015Z,5,GR86-028-89,1.5,0.074,0.018,100.02,5.0,,0.0,0.0,
2025-08-15T09:14:53.058Z,5,GR86-028-89,1.3,0.072,0.017,99.97,5.0,,0.0,0.0,
2025-08-15T09:14:53.101Z,5,GR86-028-89,1.2000000000000002,0.065,0.016,100.01,5.0,6631.0,0.0,0.0,
2025-08-15T09:14:53.145Z,5,GR86-028-89,1.1,0.07,0.021,99.99,5.0,,0.0,0.0,196.02
2025-08-15T09:14:53.187Z,5,GR86-028-89,1.1,0.082,0.01,99.99,5.0,,0.0,0.0,
2025-08-15T09:14:53.230Z,5,GR86-028-89,1.1,0.076,-0.009,100.0,5.0,,0.0,0.0,
2025-08-15T09:14:53.275Z,5,GR86-028-89,0.9,0.063,-0.005,100.01,5.0,,0.0,0.0,
2025-08-15T09:14:53.318Z,5,GR86-028-89,0.6000000000000001,0.055,-0.001,100.0,5.0,6675.0,0.0,0.0,
2025-08-15T09:14:53.361Z,5,GR86-028-89,0.4,0.068,-0.003,99.98,5.0,,0.0,0.0,196.66
2025-08-15T09:14:53.405Z,5,GR86-028-89,0.4,0.059,-0.008,100.0,5.0,,0.0,0.0,
2025-08-15T09:14:53.448Z,5,GR86-028-89,0.3,0.059,-0.024,100.01,5.0,,0.0,0.0,
2025-08-15T09:14:53.491Z,5,GR86-028-89,-0.1,0.057,-0.059,100.0,5.0,,0.0,0.0,
2025-08-15T09:14:53.536Z,5,GR86-028-89,-1.0,0.052,-0.065,99.98,5.0,6699.0,0.0,0.0,
2025-08-15T09:14:53.579Z,5,GR86-028-89,-1.3,0.063,-0.056,99.98,5.0,,0.0,0.0,197.37
2025-08-15T09:14:53.622Z,5,GR86-028-89,-1.3,0.063,-0.032,100.01,5.0,,0.0,0.0,
2025-08-15T09:14:53.665Z,5,GR86-028-89,-1.2000000000000002,0.054,-0.052,100.0,5.0,,0.0,0.0,
2025-08-15T09:14:53.708Z,5,GR86-028-89,-1.0,0.071,-0.076,99.98,5.0,,0.0,0.0,
2025-08-15T09:14:53.751Z,5,GR86-028-89,-0.9,0.063,-0.087,99.99,5.0,6719.0,0.0,0.0,
2025-08-15T09:14:53.795Z,5,GR86-028-89,-1.0,0.059,-0.098,100.0,5.0,,0.0,0.0,197.93
2025-08-15T09:14:53.838Z,5,GR86-028-89,-1.2000000000000002,0.049,-0.101,100.01,5.0,,0.0,0.0,
2025-08-15T09:14:53.881Z,5,GR86-028-89,-1.5,0.077,-0.117,100.03,5.0,,0.0,0.0,
2025-08-15T09:14:53.927Z,5,GR86-028-89,-1.8,0.045,-0.122,99.98,5.0,,0.0,0.0,
2025-08-15T09:14:53.969Z,5,GR86-028-89,-1.8,0.081,-0.123,100.01,5.0,6741.0,0.0,0.0,
2025-08-15T09:14:54.012Z,5,GR86-028-89,-1.6,0.052,-0.104,99.99,5.0,,0.0,0.0,198.65
2025-08-15T09:14:54.055Z,5,GR86-028-89,-1.0,0.034,-0.075,100.01,5.0,,0.0,0.0,
2025-08-15T09:14:54.098Z,5,GR86-028-89,-0.9,0.069,-0.09,100.02,5.0,,0.0,0.0,
2025-08-15T09:14:54.141Z,5,GR86-028-89,-0.9,0.059,-0.087,100.01,5.0,,0.0,0.0,
2025-08-15T09:14:54.186Z,5,GR86-028-89,-0.6000000000000001,0.075,-0.093,99.98,5.0,6757.0,0.0,0.0,
2025-08-15T09:14:54.229Z,5,GR86-028-89,-0.5,0.061,-0.106,99.99,5.0,,0.0,0.0,199.22
2025-08-15T09:14:54.272Z,5,GR86-028-89,-0.7000000000000001,0.075,-0.095,100.0,5.0,,0.0,0.0,
2025-08-15T09:14:54.315Z,5,GR86-028-89,-1.6,0.054,-0.088,99.98,5.0,,0.0,0.0,
2025-08-15T09:14:54.358Z,5,GR86-028-89,-1.9,0.072,-0.092,100.03,5.0,,0.0,0.0,
2025-08-15T09:14:54.401Z,5,GR86-028-89,-1.9,0.067,-0.093,100.03,5.0,6780.0,0.0,0.0,
2025-08-15T09:14:54.445Z,5,GR86-028-89,-1.9,0.065,-0.09,100.01,5.0,,0.0,0.0,199.91
2025-08-15T09:14:54.487Z,5,GR86-028-89,-1.8,0.061,-0.091,99.98,5.0,,0.0,0.0,
2025-08-15T09:14:54.531Z,5,GR86-028-89,-1.4,0.048,-0.104,100.01,5.0,,0.0,0.0,
2025-08-15T09:14:54.575Z,5,GR86-028-89,-1.1,0.063,-0.133,100.0,5.0,,0.0,0.0,
2025-08-15T09:14:54.618Z,5,GR86-028-89,-0.9,0.061,-0.116,100.0,5.0,6799.0,0.0,0.0,
2025-08-15T09:14:54.661Z,5,GR86-028-89,-0.6000000000000001,0.061,-0.133,100.04,5.0,,0.0,0.0,200.46
2025-08-15T09:14:54.705Z,5,GR86-028-89,-0.4,0.056,-0.111,100.01,5.0,,0.0,0.0,
2025-08-15T09:14:54.748Z,5,GR86-028-89,-0.4,0.032,-0.103,100.0,5.0,,0.0,0.0,
2025-08-15T09:14:54.791Z,5,GR86-028-89,-0.5,0.052,-0.088,99.98,5.0,,0.0,0.0,
2025-08-15T09:14:54.835Z,5,GR86-028-89,-0.4,0.054,-0.091,100.01,5.0,6814.0,0.0,0.0,
2025-08-15T09:14:54.878Z,5,GR86-028-89,-0.1,0.062,-0.052,99.99,5.0,,0.0,0.0,201.09
2025-08-15T09:14:54.921Z,5,GR86-028-89,0.1,0.037,-0.036,99.98,5.0,,0.0,0.0,
2025-08-15T09:14:54.965Z,5,GR86-028-89,0.4,0.042,-0.042,99.99,5.0,,0.0,0.0,
2025-08-15T09:14:55.008Z,5,GR86-028-89,0.6000000000000001,0.034,-0.069,99.98,5.0,,0.0,0.0,
2025-08-15T09:14:55.051Z,5,GR86-028-89,0.6000000000000001,0.026,-0.07,100.01,5.0,6843.0,0.0,0.0,
2025-08-15T09:14:55.095Z,5,GR86-028-89,0.4,0.047,-0.052,100.0,5.0,,0.0,0.0,201.53
2025-08-15T09:14:55.138Z,5,GR86-028-89,0.4,0.031,-0.044,99.99,5.0,,0.0,0.0,
2025-08-15T09:14:55.181Z,5,GR86-028-89,0.6000000000000001,0.044,-0.045,100.01,5.0,,0.0,0.0,
2025-08-15T09:14:55.226Z,5,GR86-028-89,0.8,0.034,-0.025,100.01,5.0,,0.0,0.0,
2025-08-15T09:14:55.269Z,5,GR86-028-89,1.0,0.05,-0.034,100.01,5.0,6850.0,0.0,0.0,
2025-08-15T09:14:55.312Z,5,GR86-028-89,1.2000000000000002,0.055,-0.032,100.01,5.0,,0.0,0.0,202.1
2025-08-15T09:14:55.355Z,5,GR86-028-89,1.1,0.039,-0.016,100.02,5.0,,0.0,0.0,
2025-08-15T09:14:55.398Z,5,GR86-028-89,0.7000000000000001,0.046,-0.03,100.0,5.0,,0.0,0.0,
2025-08-15T09:14:55.441Z,5,GR86-028-89,0.4,0.048,-0.033,100.01,5.0,,0.0,0.0,
2025-08-15T09:14:55.486Z,5,GR86-028-89,0.4,0.066,-0.027,99.97,5.0,6871.0,0.0,0.0,
2025-08-15T09:14:55.528Z,5,GR86-028-89,0.5,0.055,-0.05,99.99,5.0,,0.0,0.0,202.97
2025-08-15T09:14:55.571Z,5,GR86-028-89,0.9,0.063,-0.048,100.0,5.0,,0.0,0.0,
2025-08-15T09:14:55.615Z,5,GR86-028-89,1.1,0.058,-0.042,99.98,5.0,,0.0,0.0,
2025-08-15T09:14:55.658Z,5,GR86-028-89,1.2000000000000002,0.056,-0.027,99.97,5.0,,0.0,0.0,
2025-08-15T09:14:55.701Z,5,GR86-028-89,1.6,0.073,-0.022,99.98,5.0,6878.0,0.0,0.0,
2025-08-15T09:14:55.745Z,5,GR86-028-89,1.8,0.043,-0.005,99.98,5.0,,0.0,0.0,203.4
2025-08-15T09:14:55.787Z,5,GR86-028-89,1.8,0.058,0.004,100.01,5.0,,0.0,0.0,
2025-08-15T09:14:55.830Z,5,GR86-028-89,1.7000000000000002,0.03,0.009,99.99,5.0,,0.0,0.0,
2025-08-15T09:14:55.876Z,5,GR86-028-89,1.8,0.069,-0.019,99.98,5.0,,0.0,0.0,
2025-08-15T09:14:55.918Z,5,GR86-028-89,1.6,0.071,0.005,99.99,5.0,6908.0,0.0,0.0,
2025-08-15T09:14:55.961Z,5,GR86-028-89,1.4,0.027,-0.02,100.01,5.0,,0.0,0.0,203.82
2025-08-15T09:14:56.005Z,5,GR86-028-89,1.5,0.073,0.039,100.0,5.0,,0.0,0.0,
2025-08-15T09:14:56.048Z,5,GR86-028-89,1.5,0.019,0.036,100.04,5.0,,0.0,0.0,
2025-08-15T09:14:56.091Z,5,GR86-028-89,1.7000000000000002,0.063,0.03,100.01,5.0,,0.0,0.0,
2025-08-15T09:14:56.179Z,5,GR86-028-89,2.1,0.043,0.026,99.98,5.0,6921.0,0.0,0.0,204.31
2025-08-15T09:14:56.222Z,5,GR86-028-89,1.8,0.046,0.023,100.01,5.0,,0.0,0.0,
2025-08-15T09:14:56.265Z,5,GR86-028-89,1.5,0.063,0.014,99.99,5.0,,0.0,0.0,
2025-08-15T09:14:56.308Z,5,GR86-028-89,1.4,0.07,0.016,100.01,5.0,,0.0,0.0,
2025-08-15T09:14:56.351Z,5,GR86-028-89,1.0,0.068,-0.003,100.01,5.0,6944.0,0.0,0.0,
2025-08-15T09:14:56.395Z,5,GR86-028-89,0.5,0.056,-0.015,99.97,5.0,,0.0,0.0,204.72
2025-08-15T09:14:56.438Z,5,GR86-028-89,0.2,0.048,-0.021,99.97,5.0,,0.0,0.0,
2025-08-15T09:14:56.481Z,5,GR86-028-89,0.3,0.054,-0.03,99.99,5.0,,0.0,0.0,
2025-08-15T09:14:56.526Z,5,GR86-028-89,0.7000000000000001,0.058,-0.046,99.98,5.0,,0.0,0.0,
2025-08-15T09:14:56.569Z,5,GR86-028-89,1.1,0.07,-0.035,99.97,5.0,6964.0,0.0,0.0,
2025-08-15T09:14:56.612Z,5,GR86-028-89,1.1,0.035,-0.026,100.0,5.0,,0.0,0.0,205.26
2025-08-15T09:14:56.655Z,5,GR86-028-89,1.1,0.072,-0.019,100.02,5.0,,0.0,0.0,
2025-08-15T09:14:56.698Z,5,GR86-028-89,1.1,0.06,-0.024,100.01,5.0,,0.0,0.0,
2025-08-15T09:14:56.741Z,5,GR86-028-89,1.1,0.035,-0.029,100.0,5.0,,0.0,0.0,
2025-08-15T09:14:56.785Z,5,GR86-028-89,1.1,0.062,-0.034,100.0,5.0,6983.0,0.0,0.0,
2025-08-15T09:14:56.828Z,5,GR86-028-89,1.0,0.041,-0.019,100.01,5.0,,0.0,0.0,205.7
2025-08-15T09:14:56.871Z,5,GR86-028-89,0.8,0.046,-0.028,100.02,5.0,,0.0,0.0,
2025-08-15T09:14:56.915Z,5,GR86-028-89,0.7000000000000001,0.042,-0.014,99.99,5.0,,0.0,0.0,
2025-08-15T09:14:56.958Z,5,GR86-028-89,0.6000000000000001,0.059,-0.02,100.02,5.0,,0.0,0.0,
2025-08-15T09:14:57.001Z,5,GR86-028-89,0.3,0.052,-0.016,100.0,5.0,6992.0,0.0,0.0,
2025-08-15T09:14:57.045Z,5,GR86-028-89,0.0,0.066,-0.028,99.98,5.0,,0.0,0.0,206.25
2025-08-15T09:14:57.087Z,5,GR86-028-89,-0.1,0.055,-0.019,100.0,5.0,,0.0,0.0,
2025-08-15T09:14:57.130Z,5,GR86-028-89,0.1,0.083,-0.032,99.99,5.0,,0.0,0.0,
2025-08-15T09:14:57.175Z,5,GR86-028-89,0.7000000000000001,0.078,-0.053,100.02,5.0,,0.0,0.0,
2025-08-15T09:14:57.218Z,5,GR86-028-89,0.7000000000000001,0.064,-0.023,100.01,5.0,7014.0,0.0,0.0,
2025-08-15T09:14:57.261Z,5,GR86-028-89,0.8,0.07,-0.046,100.01,5.0,,0.0,0.0,206.7
2025-08-15T09:14:57.305Z,5,GR86-028-89,0.7000000000000001,0.049,-0.022,100.0,5.0,,0.0,0.0,
2025-08-15T09:14:57.348Z,5,GR86-028-89,0.5,0.046,-0.027,100.01,5.0,,0.0,0.0,
2025-08-15T09:14:57.391Z,5,GR86-028-89,0.4,0.037,-0.04,100.02,5.0,,0.0,0.0,
2025-08-15T09:14:57.436Z,5,GR86-028-89,0.3,0.039,-0.041,99.99,5.0,7029.0,0.0,0.0,
2025-08-15T09:14:57.478Z,5,GR86-028-89,0.0,0.065,-0.029,99.98,5.0,,0.0,0.0,207.22
2025-08-15T09:14:57.521Z,5,GR86-028-89,0.1,0.038,-0.019,99.99,5.0,,0.0,0.0,
2025-08-15T09:14:57.565Z,5,GR86-028-89,0.8,0.059,-0.039,99.99,5.0,,0.0,0.0,
2025-08-15T09:14:57.608Z,5,GR86-028-89,1.1,0.045,-0.053,99.98,5.0,,0.0,0.0,
2025-08-15T09:14:57.651Z,5,GR86-028-89,1.1,0.074,-0.046,100.01,5.0,7042.0,0.0,0.0,
2025-08-15T09:14:57.695Z,5,GR86-028-89,0.3,0.067,-0.025,99.99,5.0,,0.0,0.0,207.82
2025-08-15T09:14:57.738Z,5,GR86-028-89,0.0,0.02,-0.03,99.97,5.0,,0.0,0.0,
2025-08-15T09:14:57.781Z,5,GR86-028-89,-0.1,0.081,-0.045,99.99,5.0,,0.0,0.0,
2025-08-15T09:14:57.827Z,5,GR86-028-89,-0.5,0.066,-0.068,99.98,5.0,,0.0,0.0,
2025-08-15T09:14:57.869Z,5,GR86-028-89,-1.3,0.057,-0.073,99.99,5.0,7059.0,0.0,0.0,
2025-08-15T09:14:57.912Z,5,GR86-028-89,-2.2,0.022,-0.07,100.01,5.0,,0.0,0.0,208.3
2025-08-15T09:14:57.955Z,5,GR86-028-89,-2.2,0.051,-0.108,97.06,5.0,,0.0,0.0,
2025-08-15T09:14:57.998Z,5,GR86-028-89,-1.2000000000000002,0.065,-0.105,33.24,5.0,,0.0,0.0,
2025-08-15T09:14:58.041Z,5,GR86-028-89,0.1,0.017,-0.103,3.33,5.0,,0.0,0.0,
2025-08-15T09:14:58.086Z,5,GR86-028-89,1.2000000000000002,-0.052,-0.113,2.72,5.0,7074.0,0.0,0.0,
2025-08-15T09:14:58.129Z,5,GR86-028-89,1.8,-0.18,-0.047,2.65,5.0,,0.0,0.0,209.08
2025-08-15T09:14:58.172Z,5,GR86-028-89,2.0,-0.434,-0.066,2.61,5.0,,6.3,6.715,
2025-08-15T09:14:58.215Z,5,GR86-028-89,1.7000000000000002,-0.4,-0.019,2.57,5.0,,42.085,42.425,
2025-08-15T09:14:58.258Z,5,GR86-028-89,1.6,-0.919,-0.016,2.5500000000000003,5.0,,58.28,58.155,
2025-08-15T09:14:58.301Z,5,GR86-028-89,0.4,-1.211,0.0,2.5500000000000003,5.0,6915.0,76.025,75.705,
2025-08-15T09:14:58.345Z,5,GR86-028-89,-1.5,-1.406,0.052,2.54,5.0,,88.08,87.625,208.28
2025-08-15T09:14:58.387Z,5,GR86-028-89,-2.4000000000000004,-1.443,0.01,2.5500000000000003,5.0,,94.215,94.215,
2025-08-15T09:14:58.431Z,5,GR86-028-89,-1.9,-1.457,0.029,2.52,5.0,,97.845,100.03,
2025-08-15T09:14:58.475Z,5,GR86-028-89,-1.2000000000000002,-1.426,0.057,2.52,5.0,,95.115,96.81,
2025-08-15T09:14:58.518Z,5,GR86-028-89,-1.4,-1.314,0.058,2.52,5.0,6029.0,87.59,89.805,
2025-08-15T09:14:58.561Z,5,GR86-028-89,-1.8,-1.27,0.078,2.52,5.0,,78.515,80.285,196.39
2025-08-15T09:14:58.605Z,5,GR86-028-89,-1.5,-1.264,0.02,2.49,5.0,,68.84,69.37,
2025-08-15T09:14:58.648Z,5,GR86-028-89,-1.3,-1.121,0.041,2.49,5.0,,63.955,65.36,
2025-08-15T09:14:58.691Z,5,GR86-028-89,-1.7000000000000002,-1.138,0.044,2.48,5.0,,61.085,61.620000000000005,
2025-08-15T09:14:58.735Z,5,GR86-028-89,-0.3,-1.229,0.02,2.49,5.0,6102.0,58.370000000000005,59.895,
2025-08-15T09:14:58.778Z,5,GR86-028-89,0.4,-1.26,0.03,2.49,5.0,,57.3,59.33,187.65
2025-08-15T09:14:58.821Z,5,GR86-028-89,0.3,-1.205,0.015,2.49,5.0,,54.495000000000005,56.63,
2025-08-15T09:14:58.865Z,5,GR86-028-89,0.2,-1.231,0.015,27.67,5.0,,52.74,54.355,
2025-08-15T09:14:58.908Z,5,GR86-028-89,0.6000000000000001,-1.135,-0.023,74.49,4.0,,51.09,52.86,
2025-08-15T09:14:58.951Z,5,GR86-028-89,1.1,-1.156,-0.021,31.57,4.0,5853.0,48.45,50.13,
2025-08-15T09:14:58.995Z,5,GR86-028-89,1.9,-1.093,0.028,3.8,4.0,,49.135,50.495000000000005,180.87
2025-08-15T09:14:59.038Z,5,GR86-028-89,2.4000000000000004,-1.011,-0.056,3.3200000000000003,4.0,,49.7,50.785,
2025-08-15T09:14:59.081Z,5,GR86-028-89,2.6,-1.282,0.016,3.09,4.0,,48.205,49.23,
2025-08-15T09:14:59.126Z,5,GR86-028-89,2.2,-0.986,0.017,2.97,4.0,,47.765,49.135,
2025-08-15T09:14:59.169Z,5,GR86-028-89,1.6,-0.985,-0.061,2.84,4.0,6423.0,44.65,45.69,
2025-08-15T09:14:59.212Z,5,GR86-028-89,0.9,-0.985,-0.027,2.77,4.0,,41.46,42.65,173.58
2025-08-15T09:14:59.255Z,5,GR86-028-89,0.7000000000000001,-1.026,-0.062,2.71,4.0,,37.705,39.125,
2025-08-15T09:14:59.298Z,5,GR86-028-89,-0.3,-0.983,-0.006,2.68,4.0,,38.075,39.095,
2025-08-15T09:14:59.341Z,5,GR86-028-89,-2.1,-0.957,-0.03,16.63,4.0,,39.155,39.815,
2025-08-15T09:14:59.386Z,5,GR86-028-89,-3.4000000000000004,-0.989,-0.052,63.63,4.0,6242.0,41.52,42.18,
2025-08-15T09:14:59.428Z,5,GR86-028-89,-5.2,-1.002,-0.028,97.36,3.0,,43.89,44.53,166.39
2025-08-15T09:14:59.471Z,5,GR86-028-89,-7.6,-1.084,-0.138,41.25,3.0,,45.095,45.995,
2025-08-15T09:14:59.515Z,5,GR86-028-89,-12.2,-1.081,-0.024,3.11,3.0,,47.155,48.65,
2025-08-15T09:14:59.558Z,5,GR86-028-89,-13.9,-0.9,-0.338,2.77,3.0,,46.375,47.305,
2025-08-15T09:14:59.601Z,5,GR86-028-89,-15.5,-1.22,-0.197,2.68,3.0,6536.0,44.56,45.52,
2025-08-15T09:14:59.687Z,5,GR86-028-89,-20.200000000000003,-0.948,-0.515,2.6,3.0,,45.065,45.995,160.1
2025-08-15T09:14:59.730Z,5,GR86-028-89,-23.8,-1.038,-0.411,2.58,3.0,,45.095,46.055,
2025-08-15T09:14:59.818Z,5,GR86-028-89,-34.0,-0.978,-0.633,2.5500000000000003,3.0,6784.0,47.870000000000005,49.045,
2025-08-15T09:14:59.861Z,5,GR86-028-89,-34.4,-0.916,-0.708,2.5500000000000003,3.0,,47.185,47.870000000000005,152.93
2025-08-15T09:14:59.905Z,5,GR86-028-89,-31.5,-0.844,-0.8160000000000001,2.53,3.0,,44.62,45.69,
2025-08-15T09:14:59.948Z,5,GR86-028-89,-25.4,-0.765,-0.765,2.54,3.0,,39.065,40.47,
2025-08-15T09:14:59.991Z,5,GR86-028-89,-17.900000000000002,-0.714,-0.87,2.54,3.0,,34.745,36.15,
2025-08-15T09:15:00.036Z,5,GR86-028-89,-12.1,-0.732,-0.804,2.52,3.0,6380.0,28.43,29.175,
2025-08-15T09:15:00.079Z,5,GR86-028-89,-7.6,-0.845,-0.8290000000000001,2.52,3.0,,25.18,25.835,146.97
2025-08-15T09:15:00.122Z,5,GR86-028-89,-11.6,-0.5630000000000001,-0.917,2.52,3.0,,19.64,20.755,
2025-08-15T09:15:00.165Z,5,GR86-028-89,-22.0,-0.475,-0.97,2.53,3.0,,11.185,12.025,
2025-08-15T09:15:00.208Z,5,GR86-028-89,-31.5,-0.352,-0.975,2.52,3.0,,4.625,5.25,
2025-08-15T09:15:00.251Z,5,GR86-028-89,-40.0,-0.262,-1.089,2.5,3.0,6206.0,0.0,0.0,
2025-08-15T09:15:00.295Z,5,GR86-028-89,-41.1,-0.207,-1.134,2.52,3.0,,0.0,0.0,142.0
2025-08-15T09:15:00.337Z,5,GR86-028-89,-39.900000000000006,-0.242,-1.184,2.5,3.0,,0.0,0.0,
2025-08-15T09:15:00.380Z,5,GR86-028-89,-39.3,-0.269,-1.164,2.5,3.0,,0.0,0.0,
2025-08-15T09:15:00.424Z,5,GR86-028-89,-37.5,-0.214,-1.174,2.49,3.0,,0.0,0.0,
2025-08-15T09:15:00.469Z,5,GR86-028-89,-36.8,-0.191,-1.157,2.65,3.0,6200.0,0.0,0.0,
2025-08-15T09:15:00.512Z,5,GR86-028-89,-41.900000000000006,-0.239,-1.19,14.92,3.0,,0.0,0.0,139.01
2025-08-15T09:15:00.558Z,5,GR86-028-89,-47.7,-0.222,-1.164,15.08,3.0,,0.0,0.0,
2025-08-15T09:15:00.601Z,5,GR86-028-89,-50.2,-0.215,-1.177,17.02,3.0,,0.0,0.0,
2025-08-15T09:15:00.645Z,5,GR86-028-89,-52.5,-0.188,-1.195,13.65,3.0,,0.0,0.0,
2025-08-15T09:15:00.687Z,5,GR86-028-89,-54.0,-0.15,-1.231,15.52,3.0,6184.0,0.0,0.0,
2025-08-15T09:15:00.730Z,5,GR86-028-89,-51.900000000000006,-0.178,-1.269,22.46,3.0,,0.0,0.0,135.32
2025-08-15T09:15:00.775Z,5,GR86-028-89,-47.6,-0.141,-1.203,25.46,3.0,,0.0,0.0,
2025-08-15T09:15:00.818Z,5,GR86-028-89,-46.8,-0.174,-1.211,30.27,3.0,,0.0,0.0,
2025-08-15T09:15:00.861Z,5,GR86-028-89,-43.3,-0.149,-1.223,31.18,3.0,,0.0,0.0,
2025-08-15T09:15:00.905Z,5,GR86-028-89,-40.3,0.1,-1.191,29.63,3.0,6180.0,0.0,0.0,
2025-08-15T09:15:00.948Z,5,GR86-028-89,-41.8,0.056,-1.197,30.97,3.0,,0.0,0.0,133.77
2025-08-15T09:15:00.991Z,5,GR86-028-89,-48.7,0.0,-1.205,30.79,3.0,,0.0,0.0,
2025-08-15T09:15:01.036Z,5,GR86-028-89,-57.0,-0.029,-1.249,29.68,3.0,,0.0,0.0,
2025-08-15T09:15:01.079Z,5,GR86-028-89,-59.400000000000006,-0.02,-1.299,30.65,3.0,,0.0,0.0,
2025-08-15T09:15:01.122Z,5,GR86-028-89,-61.3,0.005,-1.288,30.2,3.0,6267.0,0.0,0.0,
2025-08-15T09:15:01.165Z,5,GR86-028-89,-63.2,-0.019,-1.299,30.79,3.0,,0.0,0.0,133.27
2025-08-15T09:15:01.208Z,5,GR86-028-89,-63.900000000000006,-0.023,-1.247,31.0,3.0,,0.0,0.0,
2025-08-15T09:15:01.251Z,5,GR86-028-89,-64.2,0.002,-1.218,31.1,3.0,,0.0,0.0,
2025-08-15T09:15:01.295Z,5,GR86-028-89,-64.7,-0.03,-1.287,31.49,3.0,,0.0,0.0,
2025-08-15T09:15:01.338Z,5,GR86-028-89,-64.3,0.018,-1.239,31.79,3.0,6276.0,0.0,0.0,
2025-08-15T09:15:01.381Z,5,GR86-028-89,-64.9,-0.018,-1.255,32.36,3.0,,0.0,0.0,133.18
2025-08-15T09:15:01.426Z,5,GR86-028-89,-64.5,-0.02,-1.245,32.76,3.0,,0.0,0.0,
2025-08-15T09:15:01.469Z,5,GR86-028-89,-63.2,-0.006,-1.259,33.04,3.0,,0.0,0.0,
2025-08-15T09:15:01.512Z,5,GR86-028-89,-63.7,0.004,-1.265,33.32,3.0,,0.0,0.0,
2025-08-15T09:15:01.558Z,5,GR86-028-89,-59.3,0.029,-1.264,33.59,3.0,6290.0,0.0,0.0,
2025-08-15T09:15:01.601Z,5,GR86-028-89,-52.900000000000006,-0.014,-1.306,33.980000000000004,3.0,,0.0,0.0,133.37
2025-08-15T09:15:01.645Z,5,GR86-028-89,-50.3,-0.013,-1.16,34.67,3.0,,0.0,0.0,
2025-08-15T09:15:01.687Z,5,GR86-028-89,-49.0,0.027,-1.275,35.02,3.0,,0.0,0.0,
2025-08-15T09:15:01.731Z,5,GR86-028-89,-48.6,-0.015,-1.417,35.01,3.0,,0.0,0.0,
2025-08-15T09:15:01.775Z,5,GR86-028-89,-48.1,-0.073,-1.131,35.07,3.0,6329.0,0.0,0.0,
2025-08-15T09:15:01.818Z,5,GR86-028-89,-45.900000000000006,-0.113,-1.222,36.0,3.0,,0.0,0.0,134.51
2025-08-15T09:15:01.861Z,5,GR86-028-89,-38.0,-0.086,-1.111,36.29,3.0,,0.0,0.0,
2025-08-15T09:15:01.905Z,5,GR86-028-89,-27.9,0.021,-1.096,36.25,3.0,,0.0,0.0,
2025-08-15T09:15:01.991Z,5,GR86-028-89,-12.6,0.134,-1.241,35.69,3.0,6416.0,0.0,0.0,
2025-08-15T09:15:02.035Z,5,GR86-028-89,-10.8,-0.024,-1.422,36.27,3.0,,0.0,0.0,134.37
2025-08-15T09:15:02.078Z,5,GR86-028-89,-8.6,0.117,-1.24,36.63,3.0,,0.0,0.0,
2025-08-15T09:15:02.121Z,5,GR86-028-89,-7.9,0.098,-1.389,39.16,3.0,,0.0,0.0,
2025-08-15T09:15:02.165Z,5,GR86-028-89,-9.3,0.107,-1.364,47.84,3.0,,0.0,0.0,
2025-08-15T09:15:02.251Z,5,GR86-028-89,-24.0,0.115,-1.216,72.59,3.0,6374.0,0.0,0.0,134.35
2025-08-15T09:15:02.295Z,5,GR86-028-89,-43.2,0.139,-1.207,100.04,3.0,,0.0,0.0,
2025-08-15T09:15:02.338Z,5,GR86-028-89,-57.1,0.147,-1.156,100.18,3.0,,0.0,0.0,
2025-08-15T09:15:02.381Z,5,GR86-028-89,-60.900000000000006,0.088,-1.211,100.18,3.0,,0.0,0.0,
2025-08-15T09:15:02.427Z,5,GR86-028-89,-62.400000000000006,0.072,-1.205,100.16,3.0,6382.0,0.0,0.0,
2025-08-15T09:15:02.469Z,5,GR86-028-89,-61.5,0.122,-1.239,100.18,3.0,,0.0,0.0,134.05
2025-08-15T09:15:02.512Z,5,GR86-028-89,-60.8,0.128,-1.279,100.18,3.0,,0.0,0.0,
2025-08-15T09:15:02.555Z,5,GR86-028-89,-62.900000000000006,0.124,-1.18,100.17,3.0,,0.0,0.0,
2025-08-15T09:15:02.598Z,5,GR86-028-89,-65.0,0.07,-1.216,100.16,3.0,,0.0,0.0,
2025-08-15T09:15:02.641Z,5,GR86-028-89,-64.0,0.068,-1.186,100.17,3.0,6390.0,0.0,0.0,
2025-08-15T09:15:02.686Z,5,GR86-028-89,-62.0,0.117,-1.187,100.18,3.0,,0.0,0.0,133.71
2025-08-15T09:15:02.728Z,5,GR86-028-89,-59.8,0.108,-1.195,100.18,3.0,,0.0,0.0,
2025-08-15T09:15:02.771Z,5,GR86-028-89,-59.1,0.076,-1.193,100.17,3.0,,0.0,0.0,
2025-08-15T09:15:02.816Z,5,GR86-028-89,-59.6,0.08,-1.275,100.18,3.0,,0.0,0.0,
2025-08-15T09:15:02.858Z,5,GR86-028-89,-59.400000000000006,0.077,-1.289,100.15,3.0,6400.0,0.0,0.0,
2025-08-15T09:15:02.901Z,5,GR86-028-89,-56.900000000000006,0.112,-1.267,100.16,3.0,,0.0,0.0,134.61
2025-08-15T09:15:02.945Z,5,GR86-028-89,-52.7,0.111,-1.295,100.14,3.0,,0.0,0.0,
2025-08-15T09:15:02.987Z,5,GR86-028-89,-50.0,0.062,-1.316,100.14,3.0,,0.0,0.0,
2025-08-15T09:15:03.030Z,5,GR86-028-89,-47.7,0.09,-1.296,100.14,3.0,,0.0,0.0,
2025-08-15T09:15:03.076Z,5,GR86-028-89,-41.0,0.073,-1.285,100.15,3.0,6460.0,0.0,0.0,
2025-08-15T09:15:03.118Z,5,GR86-028-89,-31.200000000000003,0.088,-1.226,100.14,3.0,,0.0,0.0,137.27
2025-08-15T09:15:03.161Z,5,GR86-028-89,-26.0,0.125,-1.238,100.11,3.0,,0.0,0.0,
2025-08-15T09:15:03.205Z,5,GR86-028-89,-24.5,0.111,-1.266,100.13,3.0,,0.0,0.0,
2025-08-15T09:15:03.248Z,5,GR86-028-89,-23.9,0.103,-1.274,100.13,3.0,,0.0,0.0,
2025-08-15T09:15:03.291Z,5,GR86-028-89,-22.6,0.135,-1.23,100.11,3.0,6515.0,0.0,0.0,
2025-08-15T09:15:03.336Z,5,GR86-028-89,-14.7,0.085,-1.141,100.11,3.0,,0.0,0.0,137.85
2025-08-15T09:15:03.379Z,5,GR86-028-89,-9.6,0.151,-1.145,100.13,3.0,,0.0,0.0,
2025-08-15T09:15:03.422Z,5,GR86-028-89,-5.2,0.157,-1.181,100.13,3.0,,0.0,0.0,
2025-08-15T09:15:03.465Z,5,GR86-028-89,-4.800000000000001,0.15,-1.164,100.11,3.0,,0.0,0.0,
2025-08-15T09:15:03.508Z,5,GR86-028-89,-3.7,0.143,-1.111,100.13,3.0,6610.0,0.0,0.0,
2025-08-15T09:15:03.551Z,5,GR86-028-89,-0.3,0.14,-1.018,100.13,3.0,,0.0,0.0,137.68
2025-08-15T09:15:03.595Z,5,GR86-028-89,2.0,0.224,-1.066,100.1,3.0,,0.0,0.0,
2025-08-15T09:15:03.638Z,5,GR86-028-89,-0.6000000000000001,0.255,-0.891,100.1,3.0,,0.0,0.0,
2025-08-15T09:15:03.681Z,5,GR86-028-89,-3.8,0.123,-0.635,100.11,3.0,,0.0,0.0,
2025-08-15T09:15:03.726Z,5,GR86-028-89,-8.200000000000001,0.017,-0.844,100.13,3.0,6682.0,0.0,0.0,
2025-08-15T09:15:03.769Z,5,GR86-028-89,-11.9,0.202,-1.03,100.11,3.0,,0.0,0.0,137.98
2025-08-15T09:15:03.812Z,5,GR86-028-89,-18.0,0.198,-0.906,100.09,3.0,,0.0,0.0,
2025-08-15T09:15:03.855Z,5,GR86-028-89,-30.9,0.361,-1.036,100.09,3.0,,0.0,0.0,
2025-08-15T09:15:03.898Z,5,GR86-028-89,-37.2,0.394,-0.7020000000000001,100.11,3.0,,0.0,0.0,
2025-08-15T09:15:03.941Z,5,GR86-028-89,-38.8,0.013,-0.902,100.04,3.0,6622.0,0.0,0.0,
2025-08-15T09:15:03.985Z,5,GR86-028-89,-38.7,0.177,-1.133,100.02,3.0,,0.0,0.0,139.0
2025-08-15T09:15:04.028Z,5,GR86-028-89,-39.6,0.24,-1.234,100.05,3.0,,0.0,0.0,
2025-08-15T09:15:04.071Z,5,GR86-028-89,-38.1,0.298,-1.386,100.0,3.0,,0.0,0.0,
2025-08-15T09:15:04.115Z,5,GR86-028-89,-31.700000000000003,0.094,-1.09,99.99,3.0,,0.0,0.0,
2025-08-15T09:15:04.158Z,5,GR86-028-89,-28.9,0.203,-0.967,99.98,3.0,6610.0,0.0,0.0,
2025-08-15T09:15:04.201Z,5,GR86-028-89,-28.4,0.16,-0.946,100.03,3.0,,0.0,0.0,139.49
2025-08-15T09:15:04.245Z,5,GR86-028-89,-28.700000000000003,0.058,-0.8,100.01,3.0,,0.0,0.0,
2025-08-15T09:15:04.287Z,5,GR86-028-89,-29.0,0.069,-0.902,99.99,3.0,,0.0,0.0,
2025-08-15T09:15:04.330Z,5,GR86-028-89,-28.700000000000003,0.196,-0.95,100.0,3.0,,0.0,0.0,
2025-08-15T09:15:04.375Z,5,GR86-028-89,-27.200000000000003,0.148,-0.809,100.0,3.0,6725.0,0.0,0.0,
2025-08-15T09:15:04.418Z,5,GR86-028-89,-25.3,0.212,-0.944,99.99,3.0,,0.0,0.0,140.49
2025-08-15T09:15:04.461Z,5,GR86-028-89,-22.8,0.101,-1.05,99.98,3.0,,0.0,0.0,
2025-08-15T09:15:04.505Z,5,GR86-028-89,-21.8,0.073,-0.994,99.97,3.0,,0.0,0.0,
2025-08-15T09:15:04.548Z,5,GR86-028-89,-21.0,0.172,-1.002,99.99,3.0,,0.0,0.0,
2025-08-15T09:15:04.591Z,5,GR86-028-89,-19.4,0.252,-0.759,100.0,3.0,6720.0,0.0,0.0,
2025-08-15T09:15:04.636Z,5,GR86-028-89,-18.4,0.266,-0.559,100.0,3.0,,0.0,0.0,141.48
2025-08-15T09:15:04.679Z,5,GR86-028-89,-18.7,0.1,-0.733,100.02,3.0,,0.0,0.0,
2025-08-15T09:15:04.722Z,5,GR86-028-89,-18.2,0.23,-0.663,100.01,3.0,,0.0,0.0,
2025-08-15T09:15:04.765Z,5,GR86-028-89,-16.7,0.17,-0.519,100.0,3.0,,0.0,0.0,
2025-08-15T09:15:04.808Z,5,GR86-028-89,-13.8,0.235,-0.593,99.99,3.0,6861.0,0.0,0.0,
2025-08-15T09:15:04.851Z,5,GR86-028-89,-10.5,0.139,-0.538,100.01,3.0,,0.0,0.0,142.42000000000002
2025-08-15T09:15:04.895Z,5,GR86-028-89,-8.1,0.197,-0.468,100.01,3.0,,0.0,0.0,
2025-08-15T09:15:04.938Z,5,GR86-028-89,-8.1,0.178,-0.503,100.02,3.0,,0.0,0.0,
2025-08-15T09:15:04.981Z,5,GR86-028-89,-8.4,0.237,-0.339,100.02,3.0,,0.0,0.0,
2025-08-15T09:15:05.027Z,5,GR86-028-89,-8.700000000000001,0.062,-0.249,100.0,3.0,6825.0,0.0,0.0,
2025-08-15T09:15:05.070Z,5,GR86-028-89,-8.6,0.066,-0.358,99.98,3.0,,0.0,0.0,143.86
2025-08-15T09:15:05.115Z,5,GR86-028-89,-7.2,0.162,-0.232,100.04,3.0,,0.0,0.0,
2025-08-15T09:15:05.158Z,5,GR86-028-89,-7.0,0.239,-0.221,99.99,3.0,,0.0,0.0,
2025-08-15T09:15:05.201Z,5,GR86-028-89,-7.0,0.259,-0.205,100.02,3.0,,0.0,0.0,
2025-08-15T09:15:05.245Z,5,GR86-028-89,-6.5,0.167,-0.092,99.97,3.0,6881.0,0.0,0.0,
2025-08-15T09:15:05.287Z,5,GR86-028-89,-4.7,0.064,-0.079,99.99,3.0,,0.0,0.0,145.13
2025-08-15T09:15:05.331Z,5,GR86-028-89,-1.6,0.028,-0.071,100.01,3.0,,0.0,0.0,
2025-08-15T09:15:05.375Z,5,GR86-028-89,2.5,0.213,-0.064,100.0,3.0,,0.0,0.0,
2025-08-15T09:15:05.418Z,5,GR86-028-89,4.6000000000000005,0.156,-0.081,100.0,3.0,,0.0,0.0,
2025-08-15T09:15:05.461Z,5,GR86-028-89,6.1000000000000005,0.169,-0.202,100.03,3.0,6975.0,0.0,0.0,
2025-08-15T09:15:05.505Z,5,GR86-028-89,7.800000000000001,0.187,-0.12,100.01,3.0,,0.0,0.0,146.48
2025-08-15T09:15:05.548Z,5,GR86-028-89,9.5,0.199,-0.108,100.0,3.0,,0.0,0.0,
2025-08-15T09:15:05.591Z,5,GR86-028-89,10.8,0.23,0.049,100.03,3.0,,0.0,0.0,
2025-08-15T09:15:05.635Z,5,GR86-028-89,11.9,0.24,0.173,99.98,3.0,,0.0,0.0,
2025-08-15T09:15:05.678Z,5,GR86-028-89,11.8,0.165,0.127,100.0,3.0,6961.0,0.0,0.0,
2025-08-15T09:15:05.721Z,5,GR86-028-89,11.5,0.159,0.283,99.98,3.0,,0.0,0.0,149.28
2025-08-15T09:15:05.765Z,5,GR86-028-89,10.9,0.214,0.314,100.02,3.0,,0.0,0.0,
2025-08-15T09:15:05.808Z,5,GR86-028-89,10.6,0.196,0.373,100.04,3.0,,0.0,0.0,
2025-08-15T09:15:05.851Z,5,GR86-028-89,10.3,0.339,0.351,100.04,3.0,,0.0,0.0,
2025-08-15T09:15:05.895Z,5,GR86-028-89,10.3,0.153,0.404,99.99,3.0,7044.0,0.0,0.0,
2025-08-15T09:15:05.938Z,5,GR86-028-89,10.1,0.209,0.414,99.97,3.0,,0.0,0.0,150.41
2025-08-15T09:15:05.981Z,5,GR86-028-89,10.1,0.171,0.403,100.0,3.0,,0.0,0.0,
2025-08-15T09:15:06.027Z,5,GR86-028-89,10.1,0.218,0.388,100.03,3.0,,0.0,0.0,
2025-08-15T09:15:06.069Z,5,GR86-028-89,10.3,0.207,0.391,100.01,3.0,,0.0,0.0,
2025-08-15T09:15:06.112Z,5,GR86-028-89,9.9,0.159,0.366,100.01,3.0,7043.0,0.0,0.0,
2025-08-15T09:15:06.155Z,5,GR86-028-89,9.3,0.184,0.313,100.02,3.0,,0.0,0.0,151.95000000000002
2025-08-15T09:15:06.198Z,5,GR86-028-89,9.1,0.177,0.3,100.0,3.0,,0.0,0.0,
2025-08-15T09:15:06.241Z,5,GR86-028-89,9.0,0.149,0.295,100.0,3.0,,0.0,0.0,
2025-08-15T09:15:06.286Z,5,GR86-028-89,8.9,0.16,0.273,100.0,3.0,,0.0,0.0,
2025-08-15T09:15:06.328Z,5,GR86-028-89,8.9,0.173,0.235,100.0,3.0,7198.0,0.0,0.0,
2025-08-15T09:15:06.371Z,5,GR86-028-89,8.700000000000001,0.207,0.222,100.0,3.0,,0.0,0.0,153.49
2025-08-15T09:15:06.416Z,5,GR86-028-89,8.5,0.151,0.235,100.0,3.0,,0.0,0.0,
2025-08-15T09:15:06.458Z,5,GR86-028-89,8.3,0.169,0.211,100.02,3.0,,0.0,0.0,
2025-08-15T09:15:06.501Z,5,GR86-028-89,7.800000000000001,0.2,0.194,100.0,3.0,,0.0,0.0,
2025-08-15T09:15:06.545Z,5,GR86-028-89,7.4,0.185,0.185,99.96,3.0,7269.0,0.0,0.0,
2025-08-15T09:15:06.587Z,5,GR86-028-89,7.1000000000000005,0.169,0.209,100.01,3.0,,0.0,0.0,154.96
2025-08-15T09:15:06.630Z,5,GR86-028-89,7.0,0.143,0.234,100.03,3.0,,0.0,0.0,
2025-08-15T09:15:06.676Z,5,GR86-028-89,6.7,-0.043,0.185,99.97,4.0,,0.0,0.0,
2025-08-15T09:15:06.719Z,5,GR86-028-89,5.9,0.055,0.221,99.97,4.0,,0.0,0.0,
2025-08-15T09:15:06.762Z,5,GR86-028-89,5.6000000000000005,0.456,0.142,100.01,4.0,7008.0,0.0,0.0,
2025-08-15T09:15:06.805Z,5,GR86-028-89,5.5,0.253,0.143,99.99,4.0,,0.0,0.0,156.39
2025-08-15T09:15:06.848Z,5,GR86-028-89,4.7,0.054,0.236,99.98,4.0,,0.0,0.0,
2025-08-15T09:15:06.891Z,5,GR86-028-89,3.7,0.041,0.132,99.99,4.0,,0.0,0.0,
2025-08-15T09:15:06.936Z,5,GR86-028-89,3.4000000000000004,0.162,0.158,99.97,4.0,,0.0,0.0,
2025-08-15T09:15:06.979Z,5,GR86-028-89,3.1,0.141,0.133,100.01,4.0,6244.0,0.0,0.0,
2025-08-15T09:15:07.022Z,5,GR86-028-89,2.9000000000000004,0.075,0.029,99.99,4.0,,0.0,0.0,157.77
2025-08-15T09:15:07.065Z,5,GR86-028-89,2.8000000000000003,0.121,0.069,99.97,4.0,,0.0,0.0,
2025-08-15T09:15:07.108Z,5,GR86-028-89,2.7,0.147,0.048,99.99,4.0,,0.0,0.0,
2025-08-15T09:15:07.151Z,5,GR86-028-89,2.7,0.163,-0.001,99.98,4.0,,0.0,0.0,
2025-08-15T09:15:07.195Z,5,GR86-028-89,2.6,0.102,0.017,99.99,4.0,6288.0,0.0,0.0,
2025-08-15T09:15:07.238Z,5,GR86-028-89,2.1,0.133,-0.032,100.0,4.0,,0.0,0.0,159.33
2025-08-15T09:15:07.281Z,5,GR86-028-89,2.2,0.154,-0.026,100.01,4.0,,0.0,0.0,
2025-08-15T09:15:07.326Z,5,GR86-028-89,2.1,0.141,-0.006,99.99,4.0,,0.0,0.0,
2025-08-15T09:15:07.369Z,5,GR86-028-89,1.9,0.133,-0.015,100.0,4.0,,0.0,0.0,
2025-08-15T09:15:07.412Z,5,GR86-028-89,1.7000000000000002,0.104,-0.001,100.0,4.0,6330.0,0.0,0.0,
2025-08-15T09:15:07.455Z,5,GR86-028-89,1.5,0.153,-0.019,100.01,4.0,,0.0,0.0,160.76
2025-08-15T09:15:07.498Z,5,GR86-028-89,1.5,0.143,-0.035,99.99,4.0,,0.0,0.0,
2025-08-15T09:15:07.541Z,5,GR86-028-89,1.5,0.146,-0.026,99.99,4.0,,0.0,0.0,
2025-08-15T09:15:07.585Z,5,GR86-028-89,1.3,0.107,-0.018,99.99,4.0,,0.0,0.0,
2025-08-15T09:15:07.628Z,5,GR86-028-89,1.0,0.121,-0.021,99.99,4.0,6375.0,0.0,0.0,
2025-08-15T09:15:07.671Z,5,GR86-028-89,0.3,0.091,-0.014,99.98,4.0,,0.0,0.0,162.16
2025-08-15T09:15:07.715Z,5,GR86-028-89,-0.8,0.137,-0.061,99.97,4.0,,0.0,0.0,
2025-08-15T09:15:07.758Z,5,GR86-028-89,-1.3,0.114,-0.056,100.02,4.0,,0.0,0.0,
2025-08-15T09:15:07.801Z,5,GR86-028-89,-1.8,0.117,-0.063,100.0,4.0,,0.0,0.0,
2025-08-15T09:15:07.845Z,5,GR86-028-89,-2.0,0.117,-0.085,100.02,4.0,6428.0,0.0,0.0,
2025-08-15T09:15:07.887Z,5,GR86-028-89,-2.1,0.082,-0.114,100.0,4.0,,0.0,0.0,163.61
2025-08-15T09:15:07.930Z,5,GR86-028-89,-2.1,0.085,-0.124,100.0,4.0,,0.0,0.0,
2025-08-15T09:15:07.975Z,5,GR86-028-89,-2.3000000000000003,0.126,-0.15,99.98,4.0,,0.0,0.0,
2025-08-15T09:15:08.018Z,5,GR86-028-89,-2.6,0.108,-0.126,100.0,4.0,,0.0,0.0,
2025-08-15T09:15:08.061Z,5,GR86-028-89,-2.9000000000000004,0.101,-0.145,100.02,4.0,6474.0,0.0,0.0,
2025-08-15T09:15:08.105Z,5,GR86-028-89,-3.1,0.091,-0.141,100.0,4.0,,0.0,0.0,164.99
2025-08-15T09:15:08.148Z,5,GR86-028-89,-3.1,0.095,-0.145,99.99,4.0,,0.0,0.0,
2025-08-15T09:15:08.191Z,5,GR86-028-89,-3.2,0.103,-0.175,99.98,4.0,,0.0,0.0,
2025-08-15T09:15:08.236Z,5,GR86-028-89,-3.2,0.116,-0.184,100.0,4.0,,0.0,0.0,
2025-08-15T09:15:08.278Z,5,GR86-028-89,-3.3000000000000003,0.1,-0.181,100.03,4.0,6540.0,0.0,0.0,
2025-08-15T09:15:08.321Z,5,GR86-028-89,-3.7,0.096,-0.175,99.99,4.0,,0.0,0.0,167.86
2025-08-15T09:15:08.365Z,5,GR86-028-89,-4.1000000000000005,0.088,-0.174,100.02,4.0,,0.0,0.0,
2025-08-15T09:15:08.408Z,5,GR86-028-89,-4.2,0.093,-0.179,100.0,4.0,,0.0,0.0,
2025-08-15T09:15:08.451Z,5,GR86-028-89,-4.5,0.1,-0.199,100.0,4.0,,0.0,0.0,
2025-08-15T09:15:08.495Z,5,GR86-028-89,-5.2,0.101,-0.201,100.01,4.0,6593.0,0.0,0.0,
2025-08-15T09:15:08.538Z,5,GR86-028-89,-5.7,0.096,-0.222,100.02,4.0,,0.0,0.0,169.24
2025-08-15T09:15:08.581Z,5,GR86-028-89,-6.2,0.095,-0.221,99.98,4.0,,0.0,0.0,
2025-08-15T09:15:08.627Z,5,GR86-028-89,-6.5,0.095,-0.228,99.99,4.0,,0.0,0.0,
2025-08-15T09:15:08.669Z,5,GR86-028-89,-6.6000000000000005,0.101,-0.254,100.01,4.0,,0.0,0.0,
2025-08-15T09:15:08.712Z,5,GR86-028-89,-6.9,0.082,-0.263,99.98,4.0,6645.0,0.0,0.0,
2025-08-15T09:15:08.755Z,5,GR86-028-89,-7.7,0.118,-0.32,100.04,4.0,,0.0,0.0,170.59
2025-08-15T09:15:08.798Z,5,GR86-028-89,-8.6,0.111,-0.306,99.99,4.0,,0.0,0.0,
2025-08-15T09:15:08.841Z,5,GR86-028-89,-9.7,0.104,-0.307,100.0,4.0,,0.0,0.0,
2025-08-15T09:15:08.886Z,5,GR86-028-89,-10.7,0.097,-0.307,100.02,4.0,,0.0,0.0,
2025-08-15T09:15:08.929Z,5,GR86-028-89,-11.6,0.086,-0.331,100.02,4.0,6751.0,0.0,0.0,
2025-08-15T09:15:08.972Z,5,GR86-028-89,-12.0,0.103,-0.358,99.99,4.0,,0.0,0.0,171.83
2025-08-15T09:15:09.015Z,5,GR86-028-89,-12.3,0.111,-0.414,99.98,4.0,,0.0,0.0,
2025-08-15T09:15:09.058Z,5,GR86-028-89,-12.3,0.104,-0.434,99.97,4.0,,0.0,0.0,
2025-08-15T09:15:09.101Z,5,GR86-028-89,-12.2,0.109,-0.456,100.0,4.0,,0.0,0.0,
2025-08-15T09:15:09.145Z,5,GR86-028-89,-12.0,0.09,-0.476,100.01,4.0,6806.0,0.0,0.0,
2025-08-15T09:15:09.187Z,5,GR86-028-89,-12.0,0.107,-0.499,100.03,4.0,,0.0,0.0,172.96
2025-08-15T09:15:09.231Z,5,GR86-028-89,-12.0,0.087,-0.498,100.02,4.0,,0.0,0.0,
2025-08-15T09:15:09.275Z,5,GR86-028-89,-12.1,0.103,-0.482,100.01,4.0,,0.0,0.0,
2025-08-15T09:15:09.318Z,5,GR86-028-89,-12.1,0.101,-0.488,100.04,4.0,,0.0,0.0,
2025-08-15T09:15:09.361Z,5,GR86-028-89,-11.5,0.114,-0.485,100.04,4.0,6850.0,0.0,0.0,
2025-08-15T09:15:09.405Z,5,GR86-028-89,-10.3,0.118,-0.462,100.01,4.0,,0.0,0.0,174.36
2025-08-15T09:15:09.448Z,5,GR86-028-89,-8.700000000000001,0.1,-0.42,99.98,4.0,,0.0,0.0,
2025-08-15T09:15:09.491Z,5,GR86-028-89,-7.5,0.104,-0.389,99.97,4.0,,0.0,0.0,
2025-08-15T09:15:09.535Z,5,GR86-028-89,-5.5,0.089,-0.342,100.01,4.0,,0.0,0.0,
2025-08-15T09:15:09.578Z,5,GR86-028-89,-4.5,0.119,-0.33,99.98,4.0,6899.0,0.0,0.0,
2025-08-15T09:15:09.621Z,5,GR86-028-89,-4.3,0.094,-0.314,100.0,4.0,,0.0,0.0,175.58
2025-08-15T09:15:09.665Z,5,GR86-028-89,-4.6000000000000005,0.11,-0.297,99.99,4.0,,0.0,0.0,
2025-08-15T09:15:09.708Z,5,GR86-028-89,-4.9,0.085,-0.274,99.97,4.0,,0.0,0.0,
2025-08-15T09:15:09.751Z,5,GR86-028-89,-4.7,0.122,-0.239,99.98,4.0,,0.0,0.0,
2025-08-15T09:15:09.795Z,5,GR86-028-89,-4.1000000000000005,0.101,-0.203,100.03,4.0,6938.0,0.0,0.0,
2025-08-15T09:15:09.881Z,5,GR86-028-89,-4.3,0.082,-0.182,100.04,4.0,,0.0,0.0,176.8
2025-08-15T09:15:09.926Z,5,GR86-028-89,-5.800000000000001,0.079,-0.176,100.03,4.0,,0.0,0.0,
2025-08-15T09:15:09.969Z,5,GR86-028-89,-6.1000000000000005,0.092,-0.2,100.04,4.0,,0.0,0.0,
2025-08-15T09:15:10.012Z,5,GR86-028-89,-6.2,0.069,-0.208,99.99,4.0,6982.0,0.0,0.0,
2025-08-15T09:15:10.055Z,5,GR86-028-89,-5.0,0.096,-0.213,78.14,4.0,,0.0,0.0,178.12
2025-08-15T09:15:10.098Z,5,GR86-028-89,-4.4,0.128,-0.209,6.74,4.0,,0.0,0.0,
2025-08-15T09:15:10.141Z,5,GR86-028-89,-4.4,0.09,-0.227,2.77,4.0,,0.0,0.0,
2025-08-15T09:15:10.186Z,5,GR86-028-89,-4.4,-0.128,-0.203,2.58,4.0,,0.0,0.0,
2025-08-15T09:15:10.228Z,5,GR86-028-89,-4.1000000000000005,-0.117,-0.163,2.53,4.0,7044.0,23.365,24.08,
2025-08-15T09:15:10.271Z,5,GR86-028-89,-2.6,-0.654,-0.194,2.52,4.0,,54.265,54.675,179.08
2025-08-15T09:15:10.315Z,5,GR86-028-89,-0.8,-1.249,0.006,2.52,4.0,,84.02,83.73,
2025-08-15T09:15:10.358Z,5,GR86-028-89,-0.4,-1.562,-0.028,2.5,4.0,,99.28,99.77,
2025-08-15T09:15:10.401Z,5,GR86-028-89,-0.6000000000000001,-1.805,0.006,2.49,4.0,,108.01,109.065,
2025-08-15T09:15:10.445Z,5,GR86-028-89,-1.5,-1.697,-0.03,2.48,4.0,6904.0,111.735,113.855,
2025-08-15T09:15:10.487Z,5,GR86-028-89,-2.1,-1.709,-0.12,2.49,4.0,,111.335,113.945,179.85
2025-08-15T09:15:10.530Z,5,GR86-028-89,-1.4,-1.595,-0.138,2.49,4.0,,107.52,108.36,
2025-08-15T09:15:10.576Z,5,GR86-028-89,0.0,-1.397,-0.074,2.49,4.0,,106.545,109.0,
2025-08-15T09:15:10.618Z,5,GR86-028-89,0.2,-1.273,-0.086,2.49,4.0,,104.775,105.08,
2025-08-15T09:15:10.661Z,5,GR86-028-89,0.2,-1.371,-0.049,2.49,4.0,5938.0,105.185,106.025,
2025-08-15T09:15:10.705Z,5,GR86-028-89,-0.8,-1.357,-0.041,2.49,4.0,,102.335,104.655,167.53
2025-08-15T09:15:10.748Z,5,GR86-028-89,-1.0,-1.453,-0.025,4.2,4.0,,101.295,103.095,
2025-08-15T09:15:10.791Z,5,GR86-028-89,-0.1,-1.432,0.052,45.68,4.0,,102.015,103.525,
2025-08-15T09:15:10.836Z,5,GR86-028-89,-2.3000000000000003,-1.396,0.039,6.88,3.0,,98.565,101.115,
2025-08-15T09:15:10.879Z,5,GR86-028-89,-4.2,-1.446,0.099,4.43,3.0,5926.0,98.99,101.42,
2025-08-15T09:15:10.922Z,5,GR86-028-89,-5.9,-1.488,-0.033,4.0200000000000005,3.0,,99.055,101.495,148.59
2025-08-15T09:15:10.965Z,5,GR86-028-89,-8.1,-1.396,-0.044,3.51,3.0,,91.62,92.935,
2025-08-15T09:15:11.008Z,5,GR86-028-89,-9.6,-1.203,0.06,3.19,3.0,,83.15,85.35000000000001,
2025-08-15T09:15:11.051Z,5,GR86-028-89,-9.6,-1.212,-0.246,3.03,3.0,,75.46000000000001,77.52,
2025-08-15T09:15:11.095Z,5,GR86-028-89,-10.8,-1.308,-0.049,2.84,3.0,5938.0,67.36,68.775,
2025-08-15T09:15:11.138Z,5,GR86-028-89,-11.8,-1.226,-0.226,2.77,3.0,,68.565,70.305,138.32
2025-08-15T09:15:11.181Z,5,GR86-028-89,-12.0,-1.129,-0.374,2.73,3.0,,69.28,70.06,
2025-08-15T09:15:11.226Z,5,GR86-028-89,-12.4,-1.238,-0.211,2.69,3.0,,68.15,69.13,
2025-08-15T09:15:11.269Z,5,GR86-028-89,-13.6,-1.164,-0.38,2.65,3.0,,68.96000000000001,70.685,
2025-08-15T09:15:11.312Z,5,GR86-028-89,-15.6,-1.1,-0.506,2.64,3.0,5841.0,67.145,68.41,
2025-08-15T09:15:11.355Z,5,GR86-028-89,-18.0,-1.079,-0.498,55.93,3.0,,54.89,55.975,133.22
2025-08-15T09:15:11.398Z,5,GR86-028-89,-18.2,-1.072,-0.541,98.03,3.0,,48.74,50.345,
2025-08-15T09:15:11.441Z,5,GR86-028-89,-17.1,-0.965,-0.5700000000000001,99.32,2.0,,42.985,44.5,
2025-08-15T09:15:11.485Z,5,GR86-028-89,-14.9,-0.937,-0.709,42.02,2.0,,36.275,37.555,
2025-08-15T09:15:11.528Z,5,GR86-028-89,-11.6,-1.134,-0.378,4.12,2.0,6154.0,34.81,35.985,
2025-08-15T09:15:11.571Z,5,GR86-028-89,-10.1,-0.802,-0.625,2.84,2.0,,35.235,36.335,128.21
2025-08-15T09:15:11.615Z,5,GR86-028-89,-11.8,-0.96,-0.513,2.65,2.0,,31.115,31.8,
2025-08-15T09:15:11.658Z,5,GR86-028-89,-15.1,-0.848,-0.622,2.58,2.0,,28.615,29.68,
2025-08-15T09:15:11.701Z,5,GR86-028-89,-19.5,-0.804,-0.808,2.58,2.0,,25.515,26.72,
2025-08-15T09:15:11.745Z,5,GR86-028-89,-24.700000000000003,-0.726,-0.756,2.5500000000000003,2.0,6605.0,23.835,24.89,
2025-08-15T09:15:11.787Z,5,GR86-028-89,-29.700000000000003,-0.725,-0.863,2.54,2.0,,21.96,23.025,122.53
2025-08-15T09:15:11.830Z,5,GR86-028-89,-33.5,-0.704,-0.902,2.54,2.0,,19.15,20.145,
2025-08-15T09:15:11.875Z,5,GR86-028-89,-40.400000000000006,-0.511,-0.997,2.52,2.0,,11.81,12.59,
2025-08-15T09:15:11.918Z,5,GR86-028-89,-42.900000000000006,-0.515,-1.071,2.52,2.0,,4.745,5.3100000000000005,
2025-08-15T09:15:11.961Z,5,GR86-028-89,-45.1,-0.293,-1.048,2.52,2.0,6290.0,0.0,0.0,
2025-08-15T09:15:12.005Z,5,GR86-028-89,-46.900000000000006,-0.231,-1.073,2.52,2.0,,0.0,0.0,117.53
2025-08-15T09:15:12.048Z,5,GR86-028-89,-47.3,-0.253,-1.162,2.52,2.0,,0.0,0.0,
2025-08-15T09:15:12.091Z,5,GR86-028-89,-45.3,-0.223,-1.093,2.51,2.0,,0.0,0.0,
2025-08-15T09:15:12.136Z,5,GR86-028-89,-38.6,-0.215,-1.091,2.5,2.0,,0.0,0.0,
2025-08-15T09:15:12.179Z,5,GR86-028-89,-38.400000000000006,-0.249,-1.093,2.52,2.0,6345.0,0.0,0.0,
2025-08-15T09:15:12.222Z,5,GR86-028-89,-42.8,-0.213,-1.073,2.49,2.0,,0.0,0.0,115.43
2025-08-15T09:15:12.265Z,5,GR86-028-89,-47.5,-0.228,-1.096,2.51,2.0,,0.0,0.0,
2025-08-15T09:15:12.308Z,5,GR86-028-89,-53.5,-0.254,-1.066,2.51,2.0,,0.0,0.0,
2025-08-15T09:15:12.351Z,5,GR86-028-89,-60.1,-0.226,-1.068,2.5,2.0,,0.0,0.0,
2025-08-15T09:15:12.395Z,5,GR86-028-89,-67.10000000000001,-0.236,-1.127,2.49,2.0,6299.0,0.0,0.0,
2025-08-15T09:15:12.437Z,5,GR86-028-89,-71.60000000000001,-0.284,-1.179,2.49,2.0,,0.0,0.0,113.02
2025-08-15T09:15:12.480Z,5,GR86-028-89,-74.8,-0.257,-1.215,2.49,2.0,,0.0,0.0,
2025-08-15T09:15:12.527Z,5,GR86-028-89,-74.9,-0.27,-1.257,2.49,2.0,,0.0,0.0,
2025-08-15T09:15:12.569Z,5,GR86-028-89,-70.7,-0.278,-1.251,2.49,2.0,,0.0,0.0,
2025-08-15T09:15:12.612Z,5,GR86-028-89,-61.900000000000006,-0.238,-1.231,2.49,2.0,6222.0,0.0,0.0,
2025-08-15T09:15:12.655Z,5,GR86-028-89,-55.7,-0.233,-1.224,4.28,2.0,,0.0,0.0,111.85
2025-08-15T09:15:12.698Z,5,GR86-028-89,-59.5,-0.26,-1.305,15.57,2.0,,0.0,0.0,
2025-08-15T09:15:12.741Z,5,GR86-028-89,-61.400000000000006,-0.244,-1.302,16.18,2.0,,0.0,0.0,
2025-08-15T09:15:12.786Z,5,GR86-028-89,-61.1,-0.256,-1.317,18.21,2.0,,0.0,0.0,
2025-08-15T09:15:12.829Z,5,GR86-028-89,-59.7,-0.203,-1.394,22.15,2.0,6135.0,0.0,0.0,
2025-08-15T09:15:12.872Z,5,GR86-028-89,-54.2,-0.175,-1.365,27.68,2.0,,0.0,0.0,111.54
2025-08-15T09:15:12.915Z,5,GR86-028-89,-46.2,-0.169,-1.396,32.62,2.0,,0.0,0.0,
2025-08-15T09:15:12.958Z,5,GR86-028-89,-50.3,-0.147,-1.378,33.480000000000004,2.0,,0.0,0.0,
2025-08-15T09:15:13.001Z,5,GR86-028-89,-58.1,0.052,-1.337,33.77,2.0,,0.0,0.0,
2025-08-15T09:15:13.045Z,5,GR86-028-89,-62.5,0.14,-1.354,33.68,2.0,6142.0,0.0,0.0,
2025-08-15T09:15:13.087Z,5,GR86-028-89,-63.5,0.153,-1.251,33.76,2.0,,0.0,0.0,110.14
2025-08-15T09:15:13.131Z,5,GR86-028-89,-64.7,0.119,-1.28,33.85,2.0,,0.0,0.0,
2025-08-15T09:15:13.175Z,5,GR86-028-89,-66.4,0.055,-1.148,33.77,2.0,,0.0,0.0,
2025-08-15T09:15:13.218Z,5,GR86-028-89,-66.60000000000001,-0.014,-1.142,34.230000000000004,2.0,,0.0,0.0,
2025-08-15T09:15:13.261Z,5,GR86-028-89,-69.8,-0.117,-1.114,34.64,2.0,6316.0,0.0,0.0,
2025-08-15T09:15:13.305Z,5,GR86-028-89,-72.60000000000001,-0.078,-1.124,34.79,2.0,,0.0,0.0,108.9
2025-08-15T09:15:13.348Z,5,GR86-028-89,-72.0,0.006,-1.274,34.87,2.0,,0.0,0.0,
2025-08-15T09:15:13.435Z,5,GR86-028-89,-69.60000000000001,-0.193,-1.036,34.72,2.0,,0.0,0.0,
2025-08-15T09:15:13.478Z,5,GR86-028-89,-65.5,-0.149,-1.069,34.660000000000004,2.0,6296.0,0.0,0.0,
2025-08-15T09:15:13.521Z,5,GR86-028-89,-60.1,0.044,-1.135,34.58,2.0,,0.0,0.0,109.18
2025-08-15T09:15:13.565Z,5,GR86-028-89,-57.400000000000006,0.266,-1.173,34.63,2.0,,0.0,0.0,
2025-08-15T09:15:13.608Z,5,GR86-028-89,-56.5,0.413,-1.237,34.42,2.0,,0.0,0.0,
2025-08-15T09:15:13.651Z,5,GR86-028-89,-56.3,0.384,-1.168,34.550000000000004,2.0,,0.0,0.0,
2025-08-15T09:15:13.695Z,5,GR86-028-89,-59.1,-0.095,-1.157,36.29,2.0,6425.0,0.0,0.0,
2025-08-15T09:15:13.738Z,5,GR86-028-89,-59.0,0.072,-1.397,35.81,2.0,,0.0,0.0,109.85
2025-08-15T09:15:13.781Z,5,GR86-028-89,-57.1,0.386,-1.209,35.47,2.0,,0.0,0.0,
2025-08-15T09:15:13.826Z,5,GR86-028-89,-54.3,0.417,-1.299,35.72,2.0,,0.0,0.0,
2025-08-15T09:15:13.869Z,5,GR86-028-89,-50.1,0.184,-1.107,35.82,2.0,,0.0,0.0,
2025-08-15T09:15:13.912Z,5,GR86-028-89,-45.400000000000006,0.111,-1.157,35.84,2.0,6429.0,0.0,0.0,
2025-08-15T09:15:13.955Z,5,GR86-028-89,-46.0,0.354,-1.25,35.27,2.0,,0.0,0.0,110.29
2025-08-15T09:15:13.998Z,5,GR86-028-89,-51.6,0.45,-1.116,35.34,2.0,,0.0,0.0,
2025-08-15T09:15:14.041Z,5,GR86-028-89,-56.900000000000006,0.374,-1.27,35.6,2.0,,0.0,0.0,
2025-08-15T09:15:14.086Z,5,GR86-028-89,-62.900000000000006,0.134,-1.33,35.76,2.0,,0.0,0.0,
2025-08-15T09:15:14.128Z,5,GR86-028-89,-69.9,0.088,-1.309,36.3,2.0,6451.0,0.0,0.0,
2025-08-15T09:15:14.171Z,5,GR86-028-89,-75.7,0.096,-1.211,37.0,2.0,,0.0,0.0,110.73
2025-08-15T09:15:14.215Z,5,GR86-028-89,-77.4,0.064,-1.132,37.06,2.0,,0.0,0.0,
2025-08-15T09:15:14.258Z,5,GR86-028-89,-78.2,0.069,-1.193,37.62,2.0,,0.0,0.0,
2025-08-15T09:15:14.301Z,5,GR86-028-89,-80.0,0.103,-1.143,37.65,2.0,,0.0,0.0,
2025-08-15T09:15:14.345Z,5,GR86-028-89,-81.2,0.064,-1.143,37.59,2.0,6516.0,0.0,0.0,
2025-08-15T09:15:14.387Z,5,GR86-028-89,-80.9,0.113,-1.151,37.5,2.0,,0.0,0.0,110.88
2025-08-15T09:15:14.430Z,5,GR86-028-89,-79.7,0.055,-1.184,37.57,2.0,,0.0,0.0,
2025-08-15T09:15:14.476Z,5,GR86-028-89,-79.9,0.033,-1.252,38.55,2.0,,0.0,0.0,
2025-08-15T09:15:14.519Z,5,GR86-028-89,-79.2,0.108,-1.26,38.71,2.0,,0.0,0.0,
2025-08-15T09:15:14.562Z,5,GR86-028-89,-74.2,0.074,-1.321,39.26,2.0,6524.0,0.0,0.0,
2025-08-15T09:15:14.605Z,5,GR86-028-89,-66.8,0.056,-1.311,45.24,2.0,,0.0,0.0,111.34
2025-08-15T09:15:14.648Z,5,GR86-028-89,-58.6,0.12,-1.354,53.43,2.0,,0.0,0.0,
2025-08-15T09:15:14.691Z,5,GR86-028-89,-51.900000000000006,0.102,-1.282,84.59,2.0,,0.0,0.0,
2025-08-15T09:15:14.736Z,5,GR86-028-89,-49.3,0.15,-1.184,100.16,2.0,,0.0,0.0,
2025-08-15T09:15:14.779Z,5,GR86-028-89,-50.2,0.175,-1.111,100.14,2.0,6563.0,0.0,0.0,
2025-08-15T09:15:14.822Z,5,GR86-028-89,-50.3,0.163,-1.12,100.12,2.0,,0.0,0.0,112.28
2025-08-15T09:15:14.865Z,5,GR86-028-89,-50.2,0.179,-1.128,100.12,2.0,,0.0,0.0,
2025-08-15T09:15:14.908Z,5,GR86-028-89,-50.400000000000006,0.196,-1.16,100.17,2.0,,0.0,0.0,
2025-08-15T09:15:14.951Z,5,GR86-028-89,-50.7,0.173,-1.098,100.17,2.0,,0.0,0.0,
2025-08-15T09:15:14.995Z,5,GR86-028-89,-49.8,0.146,-1.145,100.16,2.0,6695.0,0.0,0.0,
2025-08-15T09:15:15.038Z,5,GR86-028-89,-48.7,0.155,-1.129,100.14,2.0,,0.0,0.0,112.95
2025-08-15T09:15:15.081Z,5,GR86-028-89,-45.900000000000006,0.176,-1.16,100.14,2.0,,0.0,0.0,
2025-08-15T09:15:15.126Z,5,GR86-028-89,-39.3,0.201,-1.15,100.14,2.0,,0.0,0.0,
2025-08-15T09:15:15.169Z,5,GR86-028-89,-30.200000000000003,0.201,-1.065,100.14,2.0,,0.0,0.0,
2025-08-15T09:15:15.212Z,5,GR86-028-89,-23.8,0.152,-1.089,100.14,2.0,6806.0,0.0,0.0,
2025-08-15T09:15:15.255Z,5,GR86-028-89,-25.5,0.213,-1.109,100.15,2.0,,0.0,0.0,113.15
2025-08-15T09:15:15.298Z,5,GR86-028-89,-28.200000000000003,0.244,-1.076,100.13,2.0,,0.0,0.0,
2025-08-15T09:15:15.341Z,5,GR86-028-89,-29.3,0.208,-1.129,100.13,2.0,,0.0,0.0,
2025-08-15T09:15:15.385Z,5,GR86-028-89,-28.6,0.216,-1.13,100.13,2.0,,0.0,0.0,
2025-08-15T09:15:15.427Z,5,GR86-028-89,-27.9,0.213,-1.108,100.14,2.0,6915.0,0.0,0.0,
2025-08-15T09:15:15.470Z,5,GR86-028-89,-31.4,0.204,-1.152,100.14,2.0,,0.0,0.0,115.44
2025-08-15T09:15:15.515Z,5,GR86-028-89,-41.8,0.186,-1.157,100.14,2.0,,0.0,0.0,
2025-08-15T09:15:15.558Z,5,GR86-028-89,-43.7,0.19,-1.114,100.13,2.0,,0.0,0.0,
2025-08-15T09:15:15.601Z,5,GR86-028-89,-41.5,0.193,-1.089,100.11,2.0,,0.0,0.0,
2025-08-15T09:15:15.645Z,5,GR86-028-89,-38.2,0.19,-1.093,100.13,2.0,6876.0,0.0,0.0,
2025-08-15T09:15:15.687Z,5,GR86-028-89,-34.2,0.218,-1.005,100.09,2.0,,0.0,0.0,115.72
2025-08-15T09:15:15.730Z,5,GR86-028-89,-30.5,0.224,-1.022,100.07,2.0,,0.0,0.0,
2025-08-15T09:15:15.775Z,5,GR86-028-89,-27.200000000000003,0.211,-0.995,100.12,2.0,,0.0,0.0,
2025-08-15T09:15:15.818Z,5,GR86-028-89,-26.8,0.206,-0.891,100.11,2.0,,0.0,0.0,
2025-08-15T09:15:15.861Z,5,GR86-028-89,-26.700000000000003,0.272,-0.796,100.11,2.0,6906.0,0.0,0.0,
2025-08-15T09:15:15.905Z,5,GR86-028-89,-27.1,0.288,-0.739,100.11,2.0,,0.0,0.0,117.17
2025-08-15T09:15:15.948Z,5,GR86-028-89,-28.0,0.283,-0.672,100.1,2.0,,0.0,0.0,
2025-08-15T09:15:15.991Z,5,GR86-028-89,-29.4,0.25,-0.472,100.1,2.0,,0.0,0.0,
2025-08-15T09:15:16.036Z,5,GR86-028-89,-31.4,0.158,-0.475,100.1,2.0,,0.0,0.0,
2025-08-15T09:15:16.079Z,5,GR86-028-89,-31.200000000000003,0.224,-0.513,100.09,2.0,6955.0,0.0,0.0,
2025-08-15T09:15:16.122Z,5,GR86-028-89,-29.9,0.209,-0.628,100.09,2.0,,0.0,0.0,120.46
2025-08-15T09:15:16.165Z,5,GR86-028-89,-29.1,0.244,-0.668,100.08,2.0,,0.0,0.0,
2025-08-15T09:15:16.208Z,5,GR86-028-89,-27.0,0.244,-0.856,100.08,2.0,,0.0,0.0,
2025-08-15T09:15:16.251Z,5,GR86-028-89,-24.4,0.233,-0.712,100.09,2.0,,0.0,0.0,
2025-08-15T09:15:16.295Z,5,GR86-028-89,-22.9,0.204,-0.777,100.08,2.0,7097.0,0.0,0.0,
2025-08-15T09:15:16.338Z,5,GR86-028-89,-21.8,0.193,-0.737,100.07,2.0,,0.0,0.0,122.23
2025-08-15T09:15:16.381Z,5,GR86-028-89,-20.6,0.237,-0.67,100.08,2.0,,0.0,0.0,
2025-08-15T09:15:16.427Z,5,GR86-028-89,-19.9,0.194,-0.647,100.1,2.0,,0.0,0.0,
2025-08-15T09:15:16.469Z,5,GR86-028-89,-19.6,0.227,-0.537,100.07,2.0,,0.0,0.0,
2025-08-15T09:15:16.512Z,5,GR86-028-89,-19.700000000000003,0.176,-0.54,100.08,2.0,7134.0,0.0,0.0,
2025-08-15T09:15:16.555Z,5,GR86-028-89,-18.0,0.173,-0.536,100.06,2.0,,0.0,0.0,123.73
2025-08-15T09:15:16.598Z,5,GR86-028-89,-16.5,0.245,-0.537,100.07,2.0,,0.0,0.0,
2025-08-15T09:15:16.641Z,5,GR86-028-89,-15.2,0.192,-0.621,100.1,2.0,,0.0,0.0,
2025-08-15T09:15:16.686Z,5,GR86-028-89,-13.9,0.282,-0.433,100.07,2.0,,0.0,0.0,
2025-08-15T09:15:16.728Z,5,GR86-028-89,-8.6,0.059,-0.479,100.04,2.0,7277.0,0.0,0.0,
2025-08-15T09:15:16.771Z,5,GR86-028-89,-3.5,-0.076,-0.07,100.06,3.0,,0.0,0.0,125.4
2025-08-15T09:15:16.815Z,5,GR86-028-89,0.3,0.442,-0.319,100.04,3.0,,0.0,0.0,
2025-08-15T09:15:16.858Z,5,GR86-028-89,-0.8,0.317,-0.254,100.04,3.0,,0.0,0.0,
2025-08-15T09:15:16.901Z,5,GR86-028-89,-2.3000000000000003,0.194,-0.091,100.01,3.0,,0.0,0.0,
2025-08-15T09:15:16.945Z,5,GR86-028-89,-1.8,0.04,-0.102,100.01,3.0,5876.0,0.0,0.0,
2025-08-15T09:15:16.987Z,5,GR86-028-89,-0.7000000000000001,0.142,-0.084,100.01,3.0,,0.0,0.0,126.86
2025-08-15T09:15:17.031Z,5,GR86-028-89,0.9,0.296,-0.102,100.01,3.0,,0.0,0.0,
2025-08-15T09:15:17.075Z,5,GR86-028-89,0.2,0.067,-0.069,99.99,3.0,,0.0,0.0,
2025-08-15T09:15:17.118Z,5,GR86-028-89,-1.0,0.127,0.069,100.0,3.0,,0.0,0.0,
2025-08-15T09:15:17.161Z,5,GR86-028-89,-1.3,0.078,0.151,100.0,3.0,6016.0,0.0,0.0,
2025-08-15T09:15:17.205Z,5,GR86-028-89,-0.4,0.249,0.017,99.98,3.0,,0.0,0.0,128.87
2025-08-15T09:15:17.247Z,5,GR86-028-89,1.5,0.244,-0.009,99.97,3.0,,0.0,0.0,
2025-08-15T09:15:17.290Z,5,GR86-028-89,2.6,0.218,0.057,99.97,3.0,,0.0,0.0,
2025-08-15T09:15:17.335Z,5,GR86-028-89,2.5,0.159,-0.04,99.98,3.0,,0.0,0.0,
2025-08-15T09:15:17.378Z,5,GR86-028-89,2.4000000000000004,0.199,0.015,100.0,3.0,6087.0,0.0,0.0,
2025-08-15T09:15:17.421Z,5,GR86-028-89,2.3000000000000003,0.221,-0.011,99.99,3.0,,0.0,0.0,130.04
2025-08-15T09:15:17.465Z,5,GR86-028-89,2.1,0.198,-0.005,99.98,3.0,,0.0,0.0,
2025-08-15T09:15:17.508Z,5,GR86-028-89,2.7,0.165,0.053,99.99,3.0,,0.0,0.0,
2025-08-15T09:15:17.551Z,5,GR86-028-89,3.1,0.196,0.024,100.02,3.0,,0.0,0.0,
2025-08-15T09:15:17.595Z,5,GR86-028-89,3.3000000000000003,0.215,0.057,100.0,3.0,6141.0,0.0,0.0,
2025-08-15T09:15:17.638Z,5,GR86-028-89,3.2,0.203,0.012,100.0,3.0,,0.0,0.0,131.84
2025-08-15T09:15:17.681Z,5,GR86-028-89,2.9000000000000004,0.177,0.009,99.99,3.0,,0.0,0.0,
2025-08-15T09:15:17.726Z,5,GR86-028-89,2.7,0.185,0.032,100.01,3.0,,0.0,0.0,
2025-08-15T09:15:17.769Z,5,GR86-028-89,2.5,0.207,0.048,100.02,3.0,,0.0,0.0,
2025-08-15T09:15:17.812Z,5,GR86-028-89,2.3000000000000003,0.194,0.011,99.99,3.0,6231.0,0.0,0.0,
2025-08-15T09:15:17.855Z,5,GR86-028-89,2.2,0.194,0.04,100.0,3.0,,0.0,0.0,133.14
2025-08-15T09:15:17.898Z,5,GR86-028-89,2.3000000000000003,0.156,0.025,100.01,3.0,,0.0,0.0,
2025-08-15T09:15:17.941Z,5,GR86-028-89,2.3000000000000003,0.179,0.035,99.97,3.0,,0.0,0.0,
2025-08-15T09:15:17.986Z,5,GR86-028-89,2.4000000000000004,0.21,0.062,100.01,3.0,,0.0,0.0,
2025-08-15T09:15:18.028Z,5,GR86-028-89,2.4000000000000004,0.198,0.026,100.0,3.0,6298.0,0.0,0.0,
2025-08-15T09:15:18.071Z,5,GR86-028-89,2.5,0.166,0.0,100.01,3.0,,0.0,0.0,134.58
2025-08-15T09:15:18.115Z,5,GR86-028-89,2.6,0.178,-0.003,100.02,3.0,,0.0,0.0,
2025-08-15T09:15:18.158Z,5,GR86-028-89,2.6,0.16,-0.007,99.98,3.0,,0.0,0.0,
2025-08-15T09:15:18.201Z,5,GR86-028-89,2.6,0.204,0.036,100.01,3.0,,0.0,0.0,
2025-08-15T09:15:18.245Z,5,GR86-028-89,2.5,0.199,0.025,99.99,3.0,6354.0,0.0,0.0,
2025-08-15T09:15:18.287Z,5,GR86-028-89,2.5,0.179,-0.018,100.0,3.0,,0.0,0.0,135.98
2025-08-15T09:15:18.330Z,5,GR86-028-89,2.5,0.166,-0.009,99.99,3.0,,0.0,0.0,
2025-08-15T09:15:18.376Z,5,GR86-028-89,2.5,0.166,-0.013,100.01,3.0,,0.0,0.0,
2025-08-15T09:15:18.418Z,5,GR86-028-89,2.5,0.167,0.024,100.0,3.0,,0.0,0.0,
2025-08-15T09:15:18.461Z,5,GR86-028-89,2.5,0.199,0.049,100.0,3.0,6417.0,0.0,0.0,
2025-08-15T09:15:18.505Z,5,GR86-028-89,2.6,0.2,0.02,100.0,3.0,,0.0,0.0,137.31
2025-08-15T09:15:18.548Z,5,GR86-028-89,2.6,0.166,-0.014,100.03,3.0,,0.0,0.0,
2025-08-15T09:15:18.591Z,5,GR86-028-89,2.6,0.157,0.009,99.97,3.0,,0.0,0.0,
2025-08-15T09:15:18.636Z,5,GR86-028-89,2.4000000000000004,0.166,0.007,100.01,3.0,,0.0,0.0,
2025-08-15T09:15:18.679Z,5,GR86-028-89,2.4000000000000004,0.169,0.031,99.98,3.0,6484.0,0.0,0.0,
2025-08-15T09:15:18.722Z,5,GR86-028-89,2.4000000000000004,0.21,0.04,100.0,3.0,,0.0,0.0,139.87
2025-08-15T09:15:18.765Z,5,GR86-028-89,2.3000000000000003,0.185,0.016,100.03,3.0,,0.0,0.0,
2025-08-15T09:15:18.808Z,5,GR86-028-89,2.1,0.178,-0.006,99.98,3.0,,0.0,0.0,
2025-08-15T09:15:18.851Z,5,GR86-028-89,2.3000000000000003,0.142,0.018,100.02,3.0,,0.0,0.0,
2025-08-15T09:15:18.895Z,5,GR86-028-89,2.0,0.158,-0.015,100.02,3.0,6549.0,0.0,0.0,
2025-08-15T09:15:18.938Z,5,GR86-028-89,1.9,0.163,0.006,99.96,3.0,,0.0,0.0,141.18
2025-08-15T09:15:18.981Z,5,GR86-028-89,1.7000000000000002,0.19,0.017,99.99,3.0,,0.0,0.0,
2025-08-15T09:15:19.027Z,5,GR86-028-89,1.5,0.192,-0.008,100.01,3.0,,0.0,0.0,
2025-08-15T09:15:19.070Z,5,GR86-028-89,1.3,0.163,-0.04,99.98,3.0,,0.0,0.0,
2025-08-15T09:15:19.115Z,5,GR86-028-89,1.3,0.197,-0.007,99.98,3.0,6670.0,0.0,0.0,
2025-08-15T09:15:19.158Z,5,GR86-028-89,1.3,0.153,-0.037,100.0,3.0,,0.0,0.0,142.51
2025-08-15T09:15:19.201Z,5,GR86-028-89,1.2000000000000002,0.142,-0.004,100.01,3.0,,0.0,0.0,
2025-08-15T09:15:19.245Z,5,GR86-028-89,1.2000000000000002,0.166,0.005,99.98,3.0,,0.0,0.0,
2025-08-15T09:15:19.287Z,5,GR86-028-89,1.2000000000000002,0.205,-0.011,99.98,3.0,,0.0,0.0,
2025-08-15T09:15:19.330Z,5,GR86-028-89,1.1,0.184,-0.019,100.01,3.0,6724.0,0.0,0.0,
2025-08-15T09:15:19.375Z,5,GR86-028-89,1.0,0.194,-0.006,100.01,3.0,,0.0,0.0,143.74
2025-08-15T09:15:19.418Z,5,GR86-028-89,1.0,0.176,-0.02,100.0,3.0,,0.0,0.0,
2025-08-15T09:15:19.461Z,5,GR86-028-89,1.0,0.166,-0.019,99.99,3.0,,0.0,0.0,
2025-08-15T09:15:19.505Z,5,GR86-028-89,1.0,0.153,-0.02,100.0,3.0,,0.0,0.0,
2025-08-15T09:15:19.548Z,5,GR86-028-89,0.9,0.175,-0.007,100.01,3.0,6774.0,0.0,0.0,
2025-08-15T09:15:19.591Z,5,GR86-028-89,0.6000000000000001,0.186,-0.018,100.04,3.0,,0.0,0.0,144.94
2025-08-15T09:15:19.636Z,5,GR86-028-89,0.3,0.162,-0.001,100.0,3.0,,0.0,0.0,
2025-08-15T09:15:19.679Z,5,GR86-028-89,0.2,0.182,-0.021,100.01,3.0,,0.0,0.0,
2025-08-15T09:15:19.722Z,5,GR86-028-89,0.2,0.176,-0.054,100.01,3.0,,0.0,0.0,
2025-08-15T09:15:19.765Z,5,GR86-028-89,0.3,0.148,-0.055,100.01,3.0,6825.0,0.0,0.0,
2025-08-15T09:15:19.808Z,5,GR86-028-89,0.4,0.149,-0.045,99.99,3.0,,0.0,0.0,146.09
2025-08-15T09:15:19.851Z,5,GR86-028-89,0.4,0.155,-0.028,99.98,3.0,,0.0,0.0,
2025-08-15T09:15:19.895Z,5,GR86-028-89,0.3,0.139,-0.062,100.0,3.0,,0.0,0.0,
2025-08-15T09:15:19.938Z,5,GR86-028-89,0.3,0.15,-0.048,100.0,3.0,,0.0,0.0,
2025-08-15T09:15:19.981Z,5,GR86-028-89,0.3,0.176,-0.046,99.97,3.0,6880.0,0.0,0.0,
2025-08-15T09:15:20.027Z,5,GR86-028-89,0.2,0.176,-0.074,99.97,3.0,,0.0,0.0,147.23
2025-08-15T09:15:20.069Z,5,GR86-028-89,0.2,0.16,-0.08,100.0,3.0,,0.0,0.0,
2025-08-15T09:15:20.112Z,5,GR86-028-89,0.2,0.15,-0.062,99.99,3.0,,0.0,0.0,
2025-08-15T09:15:20.155Z,5,GR86-028-89,0.2,0.177,-0.089,100.01,3.0,,0.0,0.0,
2025-08-15T09:15:20.198Z,5,GR86-028-89,0.2,0.144,-0.08,100.01,3.0,6933.0,0.0,0.0,
2025-08-15T09:15:20.241Z,5,GR86-028-89,0.2,0.165,-0.053,99.97,3.0,,0.0,0.0,148.36
2025-08-15T09:15:20.286Z,5,GR86-028-89,0.2,0.146,-0.029,99.99,3.0,,0.0,0.0,
2025-08-15T09:15:20.329Z,5,GR86-028-89,0.3,0.173,-0.037,100.0,3.0,,0.0,0.0,
2025-08-15T09:15:20.372Z,5,GR86-028-89,0.4,0.175,-0.057,99.98,3.0,,0.0,0.0,
2025-08-15T09:15:20.415Z,5,GR86-028-89,0.5,0.16,-0.033,100.0,3.0,6979.0,0.0,0.0,
2025-08-15T09:15:20.458Z,5,GR86-028-89,0.5,0.181,-0.063,99.99,3.0,,0.0,0.0,149.46
2025-08-15T09:15:20.501Z,5,GR86-028-89,0.5,0.159,-0.073,99.99,3.0,,0.0,0.0,
2025-08-15T09:15:20.545Z,5,GR86-028-89,0.3,0.159,-0.072,99.99,3.0,,0.0,0.0,
2025-08-15T09:15:20.587Z,5,GR86-028-89,0.1,0.142,-0.031,99.98,3.0,,0.0,0.0,
2025-08-15T09:15:20.631Z,5,GR86-028-89,-0.1,0.153,-0.035,99.98,3.0,7038.0,0.0,0.0,
2025-08-15T09:15:20.676Z,5,GR86-028-89,-0.5,0.153,-0.059,100.03,3.0,,0.0,0.0,150.56
2025-08-15T09:15:20.718Z,5,GR86-028-89,-0.5,0.148,-0.038,100.01,3.0,,0.0,0.0,
2025-08-15T09:15:20.761Z,5,GR86-028-89,-0.3,0.162,-0.041,100.02,3.0,,0.0,0.0,
2025-08-15T09:15:20.805Z,5,GR86-028-89,-0.4,0.178,-0.055,99.98,3.0,,0.0,0.0,
2025-08-15T09:15:20.848Z,5,GR86-028-89,-0.5,0.16,-0.086,99.98,3.0,7089.0,0.0,0.0,
2025-08-15T09:15:20.891Z,5,GR86-028-89,-0.7000000000000001,0.149,-0.114,99.99,3.0,,0.0,0.0,151.70000000000002
2025-08-15T09:15:20.935Z,5,GR86-028-89,-0.7000000000000001,0.177,-0.088,99.98,3.0,,0.0,0.0,
2025-08-15T09:15:20.978Z,5,GR86-028-89,-1.1,0.169,-0.101,100.01,3.0,,0.0,0.0,
2025-08-15T09:15:21.021Z,5,GR86-028-89,-1.3,0.156,-0.081,99.97,3.0,,0.0,0.0,
2025-08-15T09:15:21.065Z,5,GR86-028-89,-1.3,0.148,-0.072,100.02,3.0,7143.0,0.0,0.0,
2025-08-15T09:15:21.108Z,5,GR86-028-89,-1.2000000000000002,0.151,-0.055,100.01,3.0,,0.0,0.0,152.82
2025-08-15T09:15:21.151Z,5,GR86-028-89,-1.2000000000000002,0.16,-0.047,99.99,3.0,,0.0,0.0,
2025-08-15T09:15:21.195Z,5,GR86-028-89,-1.2000000000000002,0.139,-0.057,100.02,3.0,,0.0,0.0,
2025-08-15T09:15:21.238Z,5,GR86-028-89,-1.0,0.153,-0.054,99.98,3.0,,0.0,0.0,
2025-08-15T09:15:21.281Z,5,GR86-028-89,-0.9,0.16,-0.057,99.98,3.0,7196.0,0.0,0.0,
2025-08-15T09:15:21.326Z,5,GR86-028-89,-1.0,0.166,-0.09,100.02,3.0,,0.0,0.0,155.08
2025-08-15T09:15:21.369Z,5,GR86-028-89,-1.2000000000000002,0.156,-0.099,100.01,3.0,,0.0,0.0,
2025-08-15T09:15:21.412Z,5,GR86-028-89,-1.3,0.149,-0.107,99.99,3.0,,0.0,0.0,
2025-08-15T09:15:21.455Z,5,GR86-028-89,-1.5,0.152,-0.074,99.99,3.0,,0.0,0.0,
2025-08-15T09:15:21.498Z,5,GR86-028-89,-1.8,0.146,-0.12,99.97,3.0,7243.0,0.0,0.0,
2025-08-15T09:15:21.541Z,5,GR86-028-89,-2.4000000000000004,-0.147,-0.116,99.96,3.0,,0.0,0.0,156.22
2025-08-15T09:15:21.586Z,5,GR86-028-89,-2.8000000000000003,-0.026,-0.083,99.98,4.0,,0.0,0.0,
2025-08-15T09:15:21.628Z,5,GR86-028-89,-2.7,0.529,-0.157,99.98,4.0,,0.0,0.0,
2025-08-15T09:15:21.671Z,5,GR86-028-89,-2.9000000000000004,0.258,-0.165,99.97,4.0,,0.0,0.0,
2025-08-15T09:15:21.716Z,5,GR86-028-89,-3.5,-0.008,-0.127,100.0,4.0,6052.0,0.0,0.0,
2025-08-15T09:15:21.758Z,5,GR86-028-89,-3.2,0.06,-0.213,100.01,4.0,,0.0,0.0,157.12
2025-08-15T09:15:21.801Z,5,GR86-028-89,-2.6,0.183,-0.132,99.98,4.0,,0.0,0.0,
2025-08-15T09:15:21.845Z,5,GR86-028-89,-2.4000000000000004,0.178,-0.133,99.99,4.0,,0.0,0.0,
2025-08-15T09:15:21.887Z,5,GR86-028-89,-2.4000000000000004,0.087,-0.185,99.97,4.0,,0.0,0.0,
2025-08-15T09:15:21.930Z,5,GR86-028-89,-2.4000000000000004,0.107,-0.148,99.98,4.0,6174.0,0.0,0.0,
2025-08-15T09:15:21.976Z,5,GR86-028-89,-2.6,0.158,-0.146,100.0,4.0,,0.0,0.0,158.26
2025-08-15T09:15:22.018Z,5,GR86-028-89,-2.3000000000000003,0.146,-0.133,99.98,4.0,,0.0,0.0,
2025-08-15T09:15:22.061Z,5,GR86-028-89,-2.3000000000000003,0.118,-0.12,99.98,4.0,,0.0,0.0,
2025-08-15T09:15:22.105Z,5,GR86-028-89,-2.2,0.122,-0.164,100.02,4.0,,0.0,0.0,
2025-08-15T09:15:22.148Z,5,GR86-028-89,-2.2,0.127,-0.168,100.01,4.0,6242.0,0.0,0.0,
2025-08-15T09:15:22.191Z,5,GR86-028-89,-2.7,0.129,-0.126,100.0,4.0,,0.0,0.0,159.19
2025-08-15T09:15:22.236Z,5,GR86-028-89,-2.3000000000000003,0.132,-0.144,100.02,4.0,,0.0,0.0,
2025-08-15T09:15:22.279Z,5,GR86-028-89,-2.0,0.119,-0.142,100.01,4.0,,0.0,0.0,
2025-08-15T09:15:22.322Z,5,GR86-028-89,-1.8,0.127,-0.15,100.0,4.0,,0.0,0.0,
2025-08-15T09:15:22.365Z,5,GR86-028-89,-1.8,0.116,-0.138,99.98,4.0,6282.0,0.0,0.0,
2025-08-15T09:15:22.408Z,5,GR86-028-89,-1.8,0.134,-0.109,100.01,4.0,,0.0,0.0,160.1
2025-08-15T09:15:22.451Z,5,GR86-028-89,-1.7000000000000002,0.131,-0.106,99.98,4.0,,0.0,0.0,
2025-08-15T09:15:22.495Z,5,GR86-028-89,-1.3,0.124,-0.142,100.03,4.0,,0.0,0.0,
2025-08-15T09:15:22.537Z,5,GR86-028-89,-1.3,0.116,-0.128,100.01,4.0,,0.0,0.0,
2025-08-15T09:15:22.580Z,5,GR86-028-89,-1.3,0.13,-0.12,100.02,4.0,6320.0,0.0,0.0,
2025-08-15T09:15:22.624Z,5,GR86-028-89,-1.2000000000000002,0.133,-0.099,100.01,4.0,,0.0,0.0,161.02
2025-08-15T09:15:22.669Z,5,GR86-028-89,-1.1,0.138,-0.089,100.01,4.0,,0.0,0.0,
2025-08-15T09:15:22.712Z,5,GR86-028-89,-1.0,0.129,-0.097,99.98,4.0,,0.0,0.0,
2025-08-15T09:15:22.755Z,5,GR86-028-89,-1.1,0.11,-0.089,100.0,4.0,,0.0,0.0,
2025-08-15T09:15:22.798Z,5,GR86-028-89,-1.0,0.143,-0.085,99.98,4.0,6360.0,0.0,0.0,
2025-08-15T09:15:22.841Z,5,GR86-028-89,-0.9,0.135,-0.067,100.02,4.0,,0.0,0.0,161.99
2025-08-15T09:15:22.885Z,5,GR86-028-89,-0.9,0.127,-0.068,100.01,4.0,,0.0,0.0,
2025-08-15T09:15:22.927Z,5,GR86-028-89,-0.9,0.136,-0.084,100.01,4.0,,0.0,0.0,
2025-08-15T09:15:22.970Z,5,GR86-028-89,-0.9,0.128,-0.082,100.01,4.0,,0.0,0.0,
2025-08-15T09:15:23.015Z,5,GR86-028-89,-1.0,0.127,-0.055,99.99,4.0,6394.0,0.0,0.0,
2025-08-15T09:15:23.058Z,5,GR86-028-89,-0.9,0.136,-0.043,100.01,4.0,,0.0,0.0,162.92000000000002
2025-08-15T09:15:23.101Z,5,GR86-028-89,-0.9,0.138,-0.048,99.98,4.0,,0.0,0.0,
2025-08-15T09:15:23.145Z,5,GR86-028-89,-0.9,0.135,-0.055,100.02,4.0,,0.0,0.0,
2025-08-15T09:15:23.187Z,5,GR86-028-89,-0.9,0.113,-0.071,100.01,4.0,,0.0,0.0,
2025-08-15T09:15:23.230Z,5,GR86-028-89,-0.9,0.113,-0.073,100.01,4.0,6430.0,0.0,0.0,
2025-08-15T09:15:23.275Z,5,GR86-028-89,-0.9,0.141,-0.047,99.98,4.0,,0.0,0.0,163.85
2025-08-15T09:15:23.318Z,5,GR86-028-89,-0.9,0.139,-0.054,99.99,4.0,,0.0,0.0,
2025-08-15T09:15:23.361Z,5,GR86-028-89,-1.0,0.129,-0.067,100.0,4.0,,0.0,0.0,
2025-08-15T09:15:23.405Z,5,GR86-028-89,-1.3,0.118,-0.082,99.98,4.0,,0.0,0.0,
2025-08-15T09:15:23.448Z,5,GR86-028-89,-1.5,0.113,-0.077,100.01,4.0,6468.0,0.0,0.0,
2025-08-15T09:15:23.491Z,5,GR86-028-89,-1.7000000000000002,0.096,-0.091,100.01,4.0,,0.0,0.0,164.76
2025-08-15T09:15:23.536Z,5,GR86-028-89,-1.9,0.118,-0.086,100.04,4.0,,0.0,0.0,
2025-08-15T09:15:23.578Z,5,GR86-028-89,-1.9,0.121,-0.093,99.97,4.0,,0.0,0.0,
2025-08-15T09:15:23.621Z,5,GR86-028-89,-1.9,0.112,-0.093,100.0,4.0,,0.0,0.0,
2025-08-15T09:15:23.665Z,5,GR86-028-89,-1.7000000000000002,0.097,-0.117,100.0,4.0,6499.0,0.0,0.0,
2025-08-15T09:15:23.708Z,5,GR86-028-89,-1.7000000000000002,0.097,-0.12,100.01,4.0,,0.0,0.0,165.76
2025-08-15T09:15:23.751Z,5,GR86-028-89,-1.7000000000000002,0.098,-0.122,99.97,4.0,,0.0,0.0,
2025-08-15T09:15:23.795Z,5,GR86-028-89,-1.8,0.122,-0.107,99.98,4.0,,0.0,0.0,
2025-08-15T09:15:23.838Z,5,GR86-028-89,-2.1,0.121,-0.124,100.01,4.0,,0.0,0.0,
2025-08-15T09:15:23.881Z,5,GR86-028-89,-2.3000000000000003,0.106,-0.123,100.0,4.0,6535.0,0.0,0.0,
2025-08-15T09:15:23.926Z,5,GR86-028-89,-2.4000000000000004,0.097,-0.129,100.01,4.0,,0.0,0.0,167.65
2025-08-15T09:15:23.969Z,5,GR86-028-89,-2.5,0.093,-0.12,99.99,4.0,,0.0,0.0,
2025-08-15T09:15:24.012Z,5,GR86-028-89,-2.6,0.072,-0.123,99.98,4.0,,0.0,0.0,
2025-08-15T09:15:24.055Z,5,GR86-028-89,-2.4000000000000004,0.119,-0.112,99.99,4.0,,0.0,0.0,
2025-08-15T09:15:24.098Z,5,GR86-028-89,-2.4000000000000004,0.127,-0.124,100.01,4.0,6579.0,0.0,0.0,
2025-08-15T09:15:24.141Z,5,GR86-028-89,-2.3000000000000003,0.109,-0.12,99.98,4.0,,0.0,0.0,168.58
2025-08-15T09:15:24.186Z,5,GR86-028-89,-2.2,0.099,-0.129,100.01,4.0,,0.0,0.0,
2025-08-15T09:15:24.229Z,5,GR86-028-89,-2.1,0.084,-0.146,100.02,4.0,,0.0,0.0,
2025-08-15T09:15:24.272Z,5,GR86-028-89,-1.8,0.09,-0.147,100.0,4.0,,0.0,0.0,
2025-08-15T09:15:24.358Z,5,GR86-028-89,-1.7000000000000002,0.137,-0.102,99.98,4.0,6649.0,0.0,0.0,169.52
2025-08-15T09:15:24.401Z,5,GR86-028-89,-1.5,0.12,-0.105,100.01,4.0,,0.0,0.0,
2025-08-15T09:15:24.445Z,5,GR86-028-89,-1.4,0.11,-0.106,99.98,4.0,,0.0,0.0,
2025-08-15T09:15:24.487Z,5,GR86-028-89,-1.3,0.105,-0.094,100.0,4.0,,0.0,0.0,
2025-08-15T09:15:24.531Z,5,GR86-028-89,-1.3,0.097,-0.081,100.03,4.0,6681.0,0.0,0.0,
2025-08-15T09:15:24.575Z,5,GR86-028-89,-1.3,0.122,-0.064,100.01,4.0,,0.0,0.0,170.53
2025-08-15T09:15:24.618Z,5,GR86-028-89,-1.3,0.145,-0.073,100.0,4.0,,0.0,0.0,
2025-08-15T09:15:24.661Z,5,GR86-028-89,-1.4,0.137,-0.084,99.99,4.0,,0.0,0.0,
2025-08-15T09:15:24.705Z,5,GR86-028-89,-1.6,0.125,-0.082,100.02,4.0,,0.0,0.0,
2025-08-15T09:15:24.748Z,5,GR86-028-89,-1.8,0.124,-0.091,100.04,4.0,6729.0,0.0,0.0,
2025-08-15T09:15:24.791Z,5,GR86-028-89,-1.8,0.095,-0.095,99.99,4.0,,0.0,0.0,171.46
2025-08-15T09:15:24.835Z,5,GR86-028-89,-1.8,0.116,-0.091,99.98,4.0,,0.0,0.0,
2025-08-15T09:15:24.878Z,5,GR86-028-89,-1.9,0.112,-0.088,99.96,4.0,,0.0,0.0,
2025-08-15T09:15:24.921Z,5,GR86-028-89,-2.1,0.122,-0.099,100.0,4.0,,0.0,0.0,
2025-08-15T09:15:24.965Z,5,GR86-028-89,-2.2,0.127,-0.11,100.01,4.0,6759.0,0.0,0.0,
2025-08-15T09:15:25.008Z,5,GR86-028-89,-2.2,0.129,-0.107,99.99,4.0,,0.0,0.0,172.29
2025-08-15T09:15:25.051Z,5,GR86-028-89,-2.2,0.135,-0.103,99.97,4.0,,0.0,0.0,
2025-08-15T09:15:25.096Z,5,GR86-028-89,-2.4000000000000004,0.071,-0.107,100.01,4.0,,0.0,0.0,
2025-08-15T09:15:25.138Z,5,GR86-028-89,-2.6,0.092,-0.111,99.98,4.0,,0.0,0.0,
2025-08-15T09:15:25.181Z,5,GR86-028-89,-2.8000000000000003,0.093,-0.107,99.98,4.0,6792.0,0.0,0.0,
2025-08-15T09:15:25.227Z,5,GR86-028-89,-3.1,0.088,-0.108,100.01,4.0,,0.0,0.0,173.19
2025-08-15T09:15:25.269Z,5,GR86-028-89,-3.4000000000000004,0.105,-0.138,100.01,4.0,,0.0,0.0,
2025-08-15T09:15:25.312Z,5,GR86-028-89,-3.5,0.102,-0.148,100.01,4.0,,0.0,0.0,
2025-08-15T09:15:25.355Z,5,GR86-028-89,-3.6,0.083,-0.159,100.0,4.0,,0.0,0.0,
2025-08-15T09:15:25.398Z,5,GR86-028-89,-3.6,0.077,-0.157,100.01,4.0,6825.0,0.0,0.0,
2025-08-15T09:15:25.441Z,5,GR86-028-89,-3.4000000000000004,0.073,-0.157,100.01,4.0,,0.0,0.0,174.14
2025-08-15T09:15:25.486Z,5,GR86-028-89,-3.2,0.079,-0.152,99.99,4.0,,0.0,0.0,
2025-08-15T09:15:25.528Z,5,GR86-028-89,-3.0,0.073,-0.134,100.0,4.0,,0.0,0.0,
2025-08-15T09:15:25.571Z,5,GR86-028-89,-2.8000000000000003,0.077,-0.142,99.98,4.0,,0.0,0.0,
2025-08-15T09:15:25.615Z,5,GR86-028-89,-2.6,0.11,-0.153,100.01,4.0,6859.0,0.0,0.0,
2025-08-15T09:15:25.658Z,5,GR86-028-89,-2.6,0.128,-0.157,100.0,4.0,,0.0,0.0,175.04
2025-08-15T09:15:25.701Z,5,GR86-028-89,-2.7,0.111,-0.155,99.98,4.0,,0.0,0.0,
2025-08-15T09:15:25.745Z,5,GR86-028-89,-2.8000000000000003,0.097,-0.169,99.98,4.0,,0.0,0.0,
2025-08-15T09:15:25.787Z,5,GR86-028-89,-2.8000000000000003,0.104,-0.163,100.0,4.0,,0.0,0.0,
2025-08-15T09:15:25.830Z,5,GR86-028-89,-2.7,0.1,-0.168,99.99,4.0,6892.0,0.0,0.0,
2025-08-15T09:15:25.876Z,5,GR86-028-89,-2.8000000000000003,0.112,-0.131,100.0,4.0,,0.0,0.0,175.85
2025-08-15T09:15:25.919Z,5,GR86-028-89,-2.9000000000000004,0.1,-0.119,100.0,4.0,,0.0,0.0,
2025-08-15T09:15:25.962Z,5,GR86-028-89,-2.8000000000000003,0.096,-0.135,99.98,4.0,,0.0,0.0,
2025-08-15T09:15:26.005Z,5,GR86-028-89,-2.7,0.117,-0.131,99.97,4.0,,0.0,0.0,
2025-08-15T09:15:26.048Z,5,GR86-028-89,-2.7,0.104,-0.142,99.99,4.0,6933.0,0.0,0.0,
2025-08-15T09:15:26.136Z,5,GR86-028-89,-2.7,0.114,-0.133,99.98,4.0,,0.0,0.0,176.72
2025-08-15T09:15:26.179Z,5,GR86-028-89,-2.7,0.063,-0.132,100.03,4.0,,0.0,0.0,
2025-08-15T09:15:26.222Z,5,GR86-028-89,-2.7,0.074,-0.113,100.02,4.0,,0.0,0.0,
2025-08-15T09:15:26.265Z,5,GR86-028-89,-2.6,0.073,-0.109,100.02,4.0,6956.0,0.0,0.0,
2025-08-15T09:15:26.308Z,5,GR86-028-89,-2.4000000000000004,0.068,-0.124,100.03,4.0,,0.0,0.0,177.66
2025-08-15T09:15:26.351Z,5,GR86-028-89,-2.3000000000000003,0.061,-0.113,100.03,4.0,,0.0,0.0,
2025-08-15T09:15:26.395Z,5,GR86-028-89,-2.3000000000000003,0.098,-0.135,100.0,4.0,,0.0,0.0,
2025-08-15T09:15:26.437Z,5,GR86-028-89,-2.3000000000000003,0.115,-0.129,99.97,4.0,,0.0,0.0,
2025-08-15T09:15:26.480Z,5,GR86-028-89,-2.2,0.1,-0.127,99.97,4.0,6995.0,0.0,0.0,
2025-08-15T09:15:26.524Z,5,GR86-028-89,-2.0,0.12,-0.132,100.0,4.0,,0.0,0.0,179.26
2025-08-15T09:15:26.569Z,5,GR86-028-89,-1.9,0.112,-0.132,99.97,4.0,,0.0,0.0,
2025-08-15T09:15:26.612Z,5,GR86-028-89,-2.0,0.116,-0.137,99.98,4.0,,0.0,0.0,
2025-08-15T09:15:26.655Z,5,GR86-028-89,-2.0,0.081,-0.12,100.0,4.0,,0.0,0.0,
2025-08-15T09:15:26.698Z,5,GR86-028-89,-2.0,0.075,-0.127,100.0,4.0,7025.0,0.0,0.0,
2025-08-15T09:15:26.741Z,5,GR86-028-89,-1.9,0.097,-0.126,100.0,4.0,,0.0,0.0,180.05
2025-08-15T09:15:26.785Z,5,GR86-028-89,-1.9,0.092,-0.12,99.98,4.0,,0.0,0.0,
2025-08-15T09:15:26.827Z,5,GR86-028-89,-1.7000000000000002,0.091,-0.118,99.97,4.0,,0.0,0.0,
2025-08-15T09:15:26.870Z,5,GR86-028-89,-1.5,0.083,-0.11,99.98,4.0,,0.0,0.0,
2025-08-15T09:15:26.915Z,5,GR86-028-89,-1.4,0.106,-0.14,100.0,4.0,7087.0,0.0,0.0,
2025-08-15T09:15:26.958Z,5,GR86-028-89,-1.4,0.098,-0.136,99.99,4.0,,0.0,0.0,180.96
2025-08-15T09:15:27.001Z,5,GR86-028-89,-1.4,0.1,-0.106,99.97,4.0,,0.0,0.0,
2025-08-15T09:15:27.045Z,5,GR86-028-89,-1.5,0.096,-0.095,99.97,4.0,,0.0,0.0,
2025-08-15T09:15:27.087Z,5,GR86-028-89,-1.4,0.102,-0.088,99.99,4.0,,0.0,0.0,
2025-08-15T09:15:27.130Z,5,GR86-028-89,-1.1,0.084,-0.086,99.98,4.0,7126.0,0.0,0.0,
2025-08-15T09:15:27.175Z,5,GR86-028-89,-0.8,0.075,-0.081,99.98,4.0,,0.0,0.0,181.78
2025-08-15T09:15:27.218Z,5,GR86-028-89,-0.6000000000000001,0.094,-0.071,99.97,4.0,,0.0,0.0,
2025-08-15T09:15:27.261Z,5,GR86-028-89,-0.5,0.085,-0.048,100.01,4.0,,0.0,0.0,
2025-08-15T09:15:27.348Z,5,GR86-028-89,-0.4,0.08,-0.039,100.01,4.0,7150.0,0.0,0.0,
2025-08-15T09:15:27.391Z,5,GR86-028-89,-0.1,0.093,-0.032,100.01,4.0,,0.0,0.0,182.61
2025-08-15T09:15:27.436Z,5,GR86-028-89,-0.1,0.107,-0.071,100.02,4.0,,0.0,0.0,
2025-08-15T09:15:27.478Z,5,GR86-028-89,-0.4,0.086,-0.056,100.04,4.0,,0.0,0.0,
2025-08-15T09:15:27.521Z,5,GR86-028-89,-0.9,0.106,-0.068,99.98,4.0,,0.0,0.0,
2025-08-15T09:15:27.565Z,5,GR86-028-89,-1.4,0.087,-0.073,99.99,4.0,7185.0,0.0,0.0,
2025-08-15T09:15:27.608Z,5,GR86-028-89,-1.6,0.096,-0.088,100.02,4.0,,0.0,0.0,183.38
2025-08-15T09:15:27.651Z,5,GR86-028-89,-1.4,0.108,-0.09,100.03,4.0,,0.0,0.0,
2025-08-15T09:15:27.695Z,5,GR86-028-89,-0.9,0.085,-0.051,100.03,4.0,,0.0,0.0,
2025-08-15T09:15:27.738Z,5,GR86-028-89,-0.6000000000000001,0.078,-0.081,100.02,4.0,,0.0,0.0,
2025-08-15T09:15:27.781Z,5,GR86-028-89,-0.5,0.068,-0.063,100.01,4.0,7221.0,0.0,0.0,
2025-08-15T09:15:27.826Z,5,GR86-028-89,-0.4,0.085,-0.064,99.97,4.0,,0.0,0.0,184.1
2025-08-15T09:15:27.869Z,5,GR86-028-89,0.1,0.072,-0.057,100.0,4.0,,0.0,0.0,
2025-08-15T09:15:27.912Z,5,GR86-028-89,0.4,0.075,-0.047,100.02,4.0,,0.0,0.0,
2025-08-15T09:15:27.955Z,5,GR86-028-89,0.4,0.083,-0.048,100.02,4.0,,0.0,0.0,
2025-08-15T09:15:27.998Z,5,GR86-028-89,0.3,0.09,-0.049,100.0,4.0,7244.0,0.0,0.0,
2025-08-15T09:15:28.041Z,5,GR86-028-89,0.2,0.1,-0.019,99.98,4.0,,0.0,0.0,184.99
2025-08-15T09:15:28.086Z,5,GR86-028-89,0.5,0.098,-0.021,100.0,4.0,,0.0,0.0,
2025-08-15T09:15:28.128Z,5,GR86-028-89,0.7000000000000001,0.089,-0.027,100.02,4.0,,0.0,0.0,
2025-08-15T09:15:28.171Z,5,GR86-028-89,0.4,0.104,-0.016,100.02,4.0,,0.0,0.0,
2025-08-15T09:15:28.215Z,5,GR86-028-89,-0.1,0.073,-0.036,100.0,4.0,7276.0,0.0,0.0,
2025-08-15T09:15:28.258Z,5,GR86-028-89,-0.3,-0.18,-0.013,99.99,5.0,,0.0,0.0,185.69
2025-08-15T09:15:28.301Z,5,GR86-028-89,0.2,0.372,0.032,100.0,5.0,,0.0,0.0,
2025-08-15T09:15:28.345Z,5,GR86-028-89,1.1,0.21,-0.108,99.99,5.0,,0.0,0.0,
2025-08-15T09:15:28.387Z,5,GR86-028-89,0.6000000000000001,0.059,-0.013,99.98,5.0,,0.0,0.0,
2025-08-15T09:15:28.431Z,5,GR86-028-89,-0.1,-0.04,0.014,99.97,5.0,6870.0,0.0,0.0,
2025-08-15T09:15:28.475Z,5,GR86-028-89,0.4,0.133,-0.072,99.99,5.0,,0.0,0.0,186.41
2025-08-15T09:15:28.518Z,5,GR86-028-89,0.2,0.097,0.024,99.98,5.0,,0.0,0.0,
2025-08-15T09:15:28.561Z,5,GR86-028-89,0.0,0.04,-0.061,100.02,5.0,,0.0,0.0,
2025-08-15T09:15:28.605Z,5,GR86-028-89,0.3,0.066,-0.036,100.01,5.0,,0.0,0.0,
2025-08-15T09:15:28.648Z,5,GR86-028-89,0.4,0.1,-0.014,100.02,5.0,6403.0,0.0,0.0,
2025-08-15T09:15:28.691Z,5,GR86-028-89,0.4,0.064,-0.054,100.01,5.0,,0.0,0.0,187.22
2025-08-15T09:15:28.735Z,5,GR86-028-89,0.4,0.068,-0.046,99.99,5.0,,0.0,0.0,
2025-08-15T09:15:28.778Z,5,GR86-028-89,0.4,0.089,-0.051,100.04,5.0,,0.0,0.0,
2025-08-15T09:15:28.821Z,5,GR86-028-89,0.5,0.066,-0.049,99.99,5.0,,0.0,0.0,
2025-08-15T09:15:28.865Z,5,GR86-028-89,0.6000000000000001,0.082,-0.019,100.02,5.0,6368.0,0.0,0.0,
2025-08-15T09:15:28.908Z,5,GR86-028-89,0.7000000000000001,0.073,-0.023,100.0,5.0,,0.0,0.0,187.93
2025-08-15T09:15:28.951Z,5,GR86-028-89,0.7000000000000001,0.079,-0.044,100.01,5.0,,0.0,0.0,
2025-08-15T09:15:28.995Z,5,GR86-028-89,0.2,0.074,-0.06,100.01,5.0,,0.0,0.0,
2025-08-15T09:15:29.038Z,5,GR86-028-89,-0.1,0.072,-0.08,99.98,5.0,,0.0,0.0,
2025-08-15T09:15:29.081Z,5,GR86-028-89,-0.3,0.072,-0.062,100.03,5.0,6403.0,0.0,0.0,
2025-08-15T09:15:29.126Z,5,GR86-028-89,-0.3,0.057,-0.053,99.97,5.0,,0.0,0.0,189.33
2025-08-15T09:15:29.169Z,5,GR86-028-89,-0.1,0.069,-0.056,100.02,5.0,,0.0,0.0,
2025-08-15T09:15:29.212Z,5,GR86-028-89,0.1,0.074,-0.058,100.01,5.0,,0.0,0.0,
2025-08-15T09:15:29.255Z,5,GR86-028-89,0.2,0.079,-0.052,100.01,5.0,,0.0,0.0,
2025-08-15T09:15:29.298Z,5,GR86-028-89,0.2,0.082,-0.039,100.0,5.0,6425.0,0.0,0.0,
2025-08-15T09:15:29.341Z,5,GR86-028-89,0.2,0.067,-0.048,100.03,5.0,,0.0,0.0,189.95
2025-08-15T09:15:29.386Z,5,GR86-028-89,0.2,0.072,-0.053,99.97,5.0,,0.0,0.0,
2025-08-15T09:15:29.428Z,5,GR86-028-89,0.3,0.068,-0.045,100.01,5.0,,0.0,0.0,
2025-08-15T09:15:29.471Z,5,GR86-028-89,0.4,0.071,-0.035,99.99,5.0,,0.0,0.0,
2025-08-15T09:15:29.515Z,5,GR86-028-89,0.7000000000000001,0.074,-0.029,100.01,5.0,6471.0,0.0,0.0,
2025-08-15T09:15:29.558Z,5,GR86-028-89,0.6000000000000001,0.061,-0.027,99.98,5.0,,0.0,0.0,190.6
2025-08-15T09:15:29.601Z,5,GR86-028-89,0.5,0.088,-0.034,100.01,5.0,,0.0,0.0,
2025-08-15T09:15:29.645Z,5,GR86-028-89,0.6000000000000001,0.075,-0.022,99.97,5.0,,0.0,0.0,
2025-08-15T09:15:29.687Z,5,GR86-028-89,0.7000000000000001,0.069,-0.026,100.01,5.0,,0.0,0.0,
2025-08-15T09:15:29.730Z,5,GR86-028-89,0.7000000000000001,0.074,-0.024,100.0,5.0,6493.0,0.0,0.0,
2025-08-15T09:15:29.776Z,5,GR86-028-89,0.7000000000000001,0.073,-0.027,100.01,5.0,,0.0,0.0,191.28
2025-08-15T09:15:29.818Z,5,GR86-028-89,0.7000000000000001,0.076,-0.01,99.99,5.0,,0.0,0.0,
2025-08-15T09:15:29.861Z,5,GR86-028-89,0.7000000000000001,0.076,-0.008,100.0,5.0,,0.0,0.0,
2025-08-15T09:15:29.905Z,5,GR86-028-89,0.7000000000000001,0.073,0.0,100.01,5.0,,0.0,0.0,
2025-08-15T09:15:29.948Z,5,GR86-028-89,0.9,0.081,0.003,99.98,5.0,6513.0,0.0,0.0,
2025-08-15T09:15:29.991Z,5,GR86-028-89,1.0,0.063,-0.005,100.01,5.0,,0.0,0.0,191.99
2025-08-15T09:15:30.036Z,5,GR86-028-89,1.0,0.063,-0.041,99.98,5.0,,0.0,0.0,
2025-08-15T09:15:30.079Z,5,GR86-028-89,1.0,0.059,-0.023,100.01,5.0,,0.0,0.0,
2025-08-15T09:15:30.122Z,5,GR86-028-89,0.9,0.059,-0.023,100.0,5.0,,0.0,0.0,
2025-08-15T09:15:30.165Z,5,GR86-028-89,0.7000000000000001,0.065,-0.017,99.99,5.0,6540.0,0.0,0.0,
2025-08-15T09:15:30.208Z,5,GR86-028-89,0.9,0.075,0.0,100.02,5.0,,0.0,0.0,192.61
2025-08-15T09:15:30.251Z,5,GR86-028-89,1.0,0.078,0.001,99.99,5.0,,0.0,0.0,
2025-08-15T09:15:30.295Z,5,GR86-028-89,1.1,0.045,-0.006,100.01,5.0,,0.0,0.0,
2025-08-15T09:15:30.338Z,5,GR86-028-89,1.1,0.05,-0.039,100.01,5.0,,0.0,0.0,
2025-08-15T09:15:30.381Z,5,GR86-028-89,1.1,0.052,-0.038,99.98,5.0,6559.0,0.0,0.0,
2025-08-15T09:15:30.426Z,5,GR86-028-89,1.1,0.061,-0.021,100.01,5.0,,0.0,0.0,193.36
2025-08-15T09:15:30.469Z,5,GR86-028-89,1.1,0.063,-0.029,99.98,5.0,,0.0,0.0,
2025-08-15T09:15:30.512Z,5,GR86-028-89,1.1,0.052,-0.021,100.01,5.0,,0.0,0.0,
2025-08-15T09:15:30.555Z,5,GR86-028-89,0.9,0.051,-0.032,100.01,5.0,,0.0,0.0,
2025-08-15T09:15:30.598Z,5,GR86-028-89,0.9,0.036,-0.046,99.98,5.0,6582.0,0.0,0.0,
2025-08-15T09:15:30.641Z,5,GR86-028-89,0.9,0.055,-0.038,100.0,5.0,,0.0,0.0,193.94
2025-08-15T09:15:30.685Z,5,GR86-028-89,1.0,0.042,-0.036,99.98,5.0,,0.0,0.0,
2025-08-15T09:15:30.727Z,5,GR86-028-89,1.1,0.044,-0.029,100.0,5.0,,0.0,0.0,
2025-08-15T09:15:30.770Z,5,GR86-028-89,1.3,0.07,-0.013,100.01,5.0,,0.0,0.0,
2025-08-15T09:15:30.815Z,5,GR86-028-89,1.4,0.062,-0.012,100.0,5.0,6599.0,0.0,0.0,
2025-08-15T09:15:30.858Z,5,GR86-028-89,1.5,0.056,-0.008,99.98,5.0,,0.0,0.0,194.49
2025-08-15T09:15:30.901Z,5,GR86-028-89,1.7000000000000002,0.06,-0.01,100.04,5.0,,0.0,0.0,
2025-08-15T09:15:30.945Z,5,GR86-028-89,1.9,0.048,-0.014,100.02,5.0,,0.0,0.0,
2025-08-15T09:15:30.987Z,5,GR86-028-89,2.0,0.057,0.011,99.98,5.0,,0.0,0.0,
2025-08-15T09:15:31.030Z,5,GR86-028-89,2.0,0.066,0.038,100.01,5.0,6620.0,0.0,0.0,
2025-08-15T09:15:31.075Z,5,GR86-028-89,2.2,0.063,0.038,100.03,5.0,,0.0,0.0,195.06
2025-08-15T09:15:31.118Z,5,GR86-028-89,2.3000000000000003,0.051,0.023,99.97,5.0,,0.0,0.0,
2025-08-15T09:15:31.161Z,5,GR86-028-89,2.4000000000000004,0.05,0.027,99.97,5.0,,0.0,0.0,
2025-08-15T09:15:31.205Z,5,GR86-028-89,2.3000000000000003,0.051,0.045,100.01,5.0,,0.0,0.0,
2025-08-15T09:15:31.247Z,5,GR86-028-89,2.2,0.029,0.043,99.98,5.0,6643.0,0.0,0.0,
2025-08-15T09:15:31.290Z,5,GR86-028-89,2.2,0.059,0.031,100.01,5.0,,0.0,0.0,195.66
2025-08-15T09:15:31.336Z,5,GR86-028-89,2.2,0.057,0.044,99.98,5.0,,0.0,0.0,
2025-08-15T09:15:31.379Z,5,GR86-028-89,2.1,0.048,0.029,100.01,5.0,,0.0,0.0,
2025-08-15T09:15:31.422Z,5,GR86-028-89,2.0,0.059,0.036,99.99,5.0,,0.0,0.0,
2025-08-15T09:15:31.465Z,5,GR86-028-89,1.8,0.03,0.035,100.02,5.0,6660.0,0.0,0.0,
2025-08-15T09:15:31.508Z,5,GR86-028-89,1.8,0.057,0.035,100.01,5.0,,0.0,0.0,196.24
2025-08-15T09:15:31.551Z,5,GR86-028-89,2.0,0.052,0.036,99.98,5.0,,0.0,0.0,
2025-08-15T09:15:31.595Z,5,GR86-028-89,2.2,0.043,0.033,99.99,5.0,,0.0,0.0,
2025-08-15T09:15:31.638Z,5,GR86-028-89,2.3000000000000003,0.052,0.053,99.99,5.0,,0.0,0.0,
2025-08-15T09:15:31.681Z,5,GR86-028-89,2.2,0.049,0.062,100.0,5.0,6673.0,0.0,0.0,
2025-08-15T09:15:31.727Z,5,GR86-028-89,2.1,0.047,0.057,100.0,5.0,,0.0,0.0,197.37
2025-08-15T09:15:31.769Z,5,GR86-028-89,2.2,0.057,0.061,99.99,5.0,,0.0,0.0,
2025-08-15T09:15:31.812Z,5,GR86-028-89,2.3000000000000003,0.049,0.057,100.04,5.0,,0.0,0.0,
2025-08-15T09:15:31.855Z,5,GR86-028-89,2.3000000000000003,0.041,0.054,99.97,5.0,,0.0,0.0,
2025-08-15T09:15:31.898Z,5,GR86-028-89,2.3000000000000003,0.04,0.058,100.01,5.0,6695.0,0.0,0.0,
2025-08-15T09:15:31.941Z,5,GR86-028-89,2.3000000000000003,0.054,0.054,99.98,5.0,,0.0,0.0,197.98
2025-08-15T09:15:31.986Z,5,GR86-028-89,2.4000000000000004,0.056,0.047,99.99,5.0,,0.0,0.0,
2025-08-15T09:15:32.028Z,5,GR86-028-89,2.4000000000000004,0.093,0.05,100.01,5.0,,0.0,0.0,
2025-08-15T09:15:32.071Z,5,GR86-028-89,2.4000000000000004,0.073,0.042,100.01,5.0,,0.0,0.0,
2025-08-15T09:15:32.115Z,5,GR86-028-89,2.3000000000000003,0.051,0.047,100.03,5.0,6734.0,0.0,0.0,
2025-08-15T09:15:32.158Z,5,GR86-028-89,2.3000000000000003,0.051,0.024,99.99,5.0,,0.0,0.0,198.52
2025-08-15T09:15:32.201Z,5,GR86-028-89,2.1,0.05,0.039,99.99,5.0,,0.0,0.0,
2025-08-15T09:15:32.245Z,5,GR86-028-89,2.0,0.077,0.016,100.01,5.0,,0.0,0.0,
2025-08-15T09:15:32.287Z,5,GR86-028-89,1.9,0.05,0.006,100.03,5.0,,0.0,0.0,
2025-08-15T09:15:32.331Z,5,GR86-028-89,1.8,0.083,0.006,99.98,5.0,6762.0,0.0,0.0,
2025-08-15T09:15:32.375Z,5,GR86-028-89,1.8,0.062,-0.023,100.0,5.0,,0.0,0.0,199.19
2025-08-15T09:15:32.418Z,5,GR86-028-89,2.0,0.052,-0.018,99.98,5.0,,0.0,0.0,
2025-08-15T09:15:32.461Z,5,GR86-028-89,2.2,0.07,-0.027,99.99,5.0,,0.0,0.0,
2025-08-15T09:15:32.505Z,5,GR86-028-89,2.4000000000000004,0.06,-0.019,100.0,5.0,,0.0,0.0,
2025-08-15T09:15:32.548Z,5,GR86-028-89,2.6,0.078,-0.013,100.01,5.0,6772.0,0.0,0.0,
2025-08-15T09:15:32.591Z,5,GR86-028-89,2.8000000000000003,0.064,0.011,99.98,5.0,,0.0,0.0,199.71
2025-08-15T09:15:32.635Z,5,GR86-028-89,3.6,0.045,0.018,100.01,5.0,,0.0,0.0,
2025-08-15T09:15:32.678Z,5,GR86-028-89,3.9,0.082,0.014,100.0,5.0,,0.0,0.0,
2025-08-15T09:15:32.721Z,5,GR86-028-89,4.3,0.057,0.034,99.98,5.0,,0.0,0.0,
2025-08-15T09:15:32.765Z,5,GR86-028-89,4.6000000000000005,0.078,0.044,100.01,5.0,6794.0,0.0,0.0,
2025-08-15T09:15:32.808Z,5,GR86-028-89,4.800000000000001,0.053,0.075,100.01,5.0,,0.0,0.0,200.33
2025-08-15T09:15:32.851Z,5,GR86-028-89,4.9,0.047,0.077,100.01,5.0,,0.0,0.0,
2025-08-15T09:15:32.895Z,5,GR86-028-89,5.2,0.076,0.082,100.04,5.0,,0.0,0.0,
2025-08-15T09:15:32.938Z,5,GR86-028-89,5.5,0.081,0.107,100.01,5.0,,0.0,0.0,
2025-08-15T09:15:32.981Z,5,GR86-028-89,6.0,0.062,0.116,99.99,5.0,6820.0,0.0,0.0,
2025-08-15T09:15:33.027Z,5,GR86-028-89,6.5,0.055,0.139,99.98,5.0,,0.0,0.0,200.88
2025-08-15T09:15:33.070Z,5,GR86-028-89,6.9,0.056,0.156,99.97,5.0,,0.0,0.0,
2025-08-15T09:15:33.115Z,5,GR86-028-89,7.2,0.058,0.173,100.0,5.0,,0.0,0.0,
2025-08-15T09:15:33.158Z,5,GR86-028-89,7.2,0.075,0.177,99.98,5.0,,0.0,0.0,
2025-08-15T09:15:33.201Z,5,GR86-028-89,7.2,0.041,0.194,99.99,5.0,6830.0,0.0,0.0,
2025-08-15T09:15:33.245Z,5,GR86-028-89,7.2,0.036,0.178,99.97,5.0,,0.0,0.0,201.48
2025-08-15T09:15:33.287Z,5,GR86-028-89,7.300000000000001,0.031,0.203,100.03,5.0,,0.0,0.0,
2025-08-15T09:15:33.330Z,5,GR86-028-89,7.7,0.038,0.202,100.03,5.0,,0.0,0.0,
2025-08-15T09:15:33.376Z,5,GR86-028-89,8.700000000000001,0.033,0.216,99.97,5.0,,0.0,0.0,
2025-08-15T09:15:33.418Z,5,GR86-028-89,9.3,0.052,0.229,100.01,5.0,6849.0,0.0,0.0,
2025-08-15T09:15:33.461Z,5,GR86-028-89,9.7,0.044,0.22,100.03,5.0,,0.0,0.0,202.12
2025-08-15T09:15:33.505Z,5,GR86-028-89,9.9,0.033,0.228,100.01,5.0,,0.0,0.0,
2025-08-15T09:15:33.548Z,5,GR86-028-89,10.1,0.061,0.245,100.01,5.0,,0.0,0.0,
2025-08-15T09:15:33.591Z,5,GR86-028-89,10.7,0.069,0.269,99.98,5.0,,0.0,0.0,
2025-08-15T09:15:33.636Z,5,GR86-028-89,11.9,0.048,0.323,100.01,5.0,6876.0,0.0,0.0,
2025-08-15T09:15:33.722Z,5,GR86-028-89,12.4,0.07,0.373,99.97,5.0,,0.0,0.0,202.63
2025-08-15T09:15:33.765Z,5,GR86-028-89,12.2,0.055,0.424,99.98,5.0,,0.0,0.0,
2025-08-15T09:15:33.808Z,5,GR86-028-89,11.2,0.068,0.441,99.99,5.0,,0.0,0.0,
2025-08-15T09:15:33.851Z,5,GR86-028-89,10.7,0.063,0.456,99.98,5.0,6906.0,0.0,0.0,
2025-08-15T09:15:33.895Z,5,GR86-028-89,10.5,0.06,0.433,100.02,5.0,,0.0,0.0,203.02
2025-08-15T09:15:33.938Z,5,GR86-028-89,10.1,0.078,0.397,100.01,5.0,,0.0,0.0,
2025-08-15T09:15:33.981Z,5,GR86-028-89,9.6,0.059,0.387,99.98,5.0,,0.0,0.0,
2025-08-15T09:15:34.027Z,5,GR86-028-89,9.1,0.07,0.385,99.98,5.0,,0.0,0.0,
2025-08-15T09:15:34.070Z,5,GR86-028-89,8.6,0.045,0.377,99.99,5.0,6920.0,0.0,0.0,
2025-08-15T09:15:34.115Z,5,GR86-028-89,8.4,0.067,0.314,100.01,5.0,,0.0,0.0,204.21
2025-08-15T09:15:34.158Z,5,GR86-028-89,8.3,0.062,0.288,100.02,5.0,,0.0,0.0,
2025-08-15T09:15:34.201Z,5,GR86-028-89,7.800000000000001,0.045,0.272,100.02,5.0,,0.0,0.0,
2025-08-15T09:15:34.245Z,5,GR86-028-89,6.6000000000000005,0.052,0.248,99.98,5.0,,0.0,0.0,
2025-08-15T09:15:34.287Z,5,GR86-028-89,6.0,0.031,0.232,99.98,5.0,6933.0,0.0,0.0,
2025-08-15T09:15:34.330Z,5,GR86-028-89,6.1000000000000005,0.035,0.206,100.0,5.0,,0.0,0.0,204.73
2025-08-15T09:15:34.375Z,5,GR86-028-89,7.4,0.035,0.205,100.02,5.0,,0.0,0.0,
2025-08-15T09:15:34.418Z,5,GR86-028-89,8.200000000000001,0.046,0.208,99.99,5.0,,0.0,0.0,
2025-08-15T09:15:34.461Z,5,GR86-028-89,8.5,0.036,0.247,100.04,5.0,,0.0,0.0,
2025-08-15T09:15:34.505Z,5,GR86-028-89,8.200000000000001,0.054,0.237,100.0,5.0,6942.0,0.0,0.0,
2025-08-15T09:15:34.548Z,5,GR86-028-89,7.9,0.047,0.241,100.01,5.0,,0.0,0.0,205.08
2025-08-15T09:15:34.591Z,5,GR86-028-89,7.800000000000001,0.055,0.227,100.03,5.0,,0.0,0.0,
2025-08-15T09:15:34.636Z,5,GR86-028-89,6.7,0.042,0.225,99.98,5.0,,0.0,0.0,
2025-08-15T09:15:34.678Z,5,GR86-028-89,5.800000000000001,0.04,0.227,99.98,5.0,,0.0,0.0,
2025-08-15T09:15:34.721Z,5,GR86-028-89,5.5,0.052,0.217,99.99,5.0,6987.0,0.0,0.0,
2025-08-15T09:15:34.765Z,5,GR86-028-89,5.4,0.06,0.226,100.0,5.0,,0.0,0.0,205.59
2025-08-15T09:15:34.808Z,5,GR86-028-89,5.5,0.054,0.234,99.99,5.0,,0.0,0.0,
2025-08-15T09:15:34.851Z,5,GR86-028-89,5.4,0.037,0.21,100.01,5.0,,0.0,0.0,
2025-08-15T09:15:34.895Z,5,GR86-028-89,5.4,0.041,0.206,100.0,5.0,,0.0,0.0,
2025-08-15T09:15:34.938Z,5,GR86-028-89,5.5,0.061,0.177,100.01,5.0,7002.0,0.0,0.0,
2025-08-15T09:15:34.981Z,5,GR86-028-89,6.2,0.03,0.163,99.98,5.0,,0.0,0.0,206.22
2025-08-15T09:15:35.027Z,5,GR86-028-89,7.4,0.042,0.14,100.0,5.0,,0.0,0.0,
2025-08-15T09:15:35.070Z,5,GR86-028-89,8.4,0.036,0.144,100.02,5.0,,0.0,0.0,
2025-08-15T09:15:35.115Z,5,GR86-028-89,8.6,0.042,0.191,99.98,5.0,,0.0,0.0,
2025-08-15T09:15:35.158Z,5,GR86-028-89,8.700000000000001,0.054,0.2,100.01,5.0,7022.0,0.0,0.0,
2025-08-15T09:15:35.201Z,5,GR86-028-89,9.0,0.029,0.229,100.0,5.0,,0.0,0.0,206.83
2025-08-15T09:15:35.245Z,5,GR86-028-89,9.1,0.035,0.236,99.97,5.0,,0.0,0.0,
2025-08-15T09:15:35.287Z,5,GR86-028-89,8.700000000000001,0.05,0.255,100.01,5.0,,0.0,0.0,
2025-08-15T09:15:35.331Z,5,GR86-028-89,7.7,0.052,0.261,99.99,5.0,,0.0,0.0,
2025-08-15T09:15:35.375Z,5,GR86-028-89,6.9,0.052,0.28,100.0,5.0,7045.0,0.0,0.0,
2025-08-15T09:15:35.418Z,5,GR86-028-89,7.4,0.06,0.282,100.03,5.0,,0.0,0.0,207.45
2025-08-15T09:15:35.461Z,5,GR86-028-89,8.9,0.072,0.278,100.0,5.0,,0.0,0.0,
2025-08-15T09:15:35.505Z,5,GR86-028-89,10.7,0.058,0.258,100.01,5.0,,0.0,0.0,
2025-08-15T09:15:35.548Z,5,GR86-028-89,11.9,0.06,0.274,99.99,5.0,,0.0,0.0,
2025-08-15T09:15:35.591Z,5,GR86-028-89,12.1,0.043,0.288,99.97,5.0,7061.0,0.0,0.0,
2025-08-15T09:15:35.635Z,5,GR86-028-89,11.1,0.047,0.288,100.04,5.0,,0.0,0.0,208.14
2025-08-15T09:15:35.678Z,5,GR86-028-89,10.7,0.054,0.316,100.01,5.0,,0.0,0.0,
2025-08-15T09:15:35.721Z,5,GR86-028-89,10.4,0.049,0.353,100.01,5.0,,0.0,0.0,
2025-08-15T09:15:35.765Z,5,GR86-028-89,9.3,0.049,0.38,99.98,5.0,,0.0,0.0,
2025-08-15T09:15:35.808Z,5,GR86-028-89,7.7,0.043,0.394,94.08,5.0,7097.0,0.0,0.0,
2025-08-15T09:15:35.851Z,5,GR86-028-89,6.7,0.077,0.368,25.52,5.0,,0.0,0.0,208.63
2025-08-15T09:15:35.895Z,5,GR86-028-89,6.7,0.019,0.327,2.74,5.0,,0.0,0.0,
2025-08-15T09:15:35.938Z,5,GR86-028-89,6.6000000000000005,-0.225,0.345,2.58,5.0,,3.465,3.935,
2025-08-15T09:15:35.981Z,5,GR86-028-89,5.6000000000000005,-0.331,0.305,2.5500000000000003,5.0,,55.335,56.22,
2025-08-15T09:15:36.027Z,5,GR86-028-89,4.800000000000001,-1.117,0.181,2.5500000000000003,5.0,7103.0,88.4,88.495,
2025-08-15T09:15:36.069Z,5,GR86-028-89,4.6000000000000005,-1.327,0.243,2.52,5.0,,114.405,115.215,209.37
2025-08-15T09:15:36.112Z,5,GR86-028-89,4.6000000000000005,-1.344,0.19,2.51,5.0,,138.715,140.5,
2025-08-15T09:15:36.155Z,5,GR86-028-89,5.800000000000001,-1.478,0.235,2.49,5.0,,155.15,157.145,
2025-08-15T09:15:36.198Z,5,GR86-028-89,6.9,-1.342,0.19,2.49,5.0,,149.425,152.02,
2025-08-15T09:15:36.241Z,5,GR86-028-89,5.6000000000000005,-1.335,0.23,2.49,5.0,6711.0,145.03,147.275,
2025-08-15T09:15:36.286Z,5,GR86-028-89,2.8000000000000003,-1.368,0.131,2.49,5.0,,142.085,143.69,207.49
2025-08-15T09:15:36.328Z,5,GR86-028-89,0.3,-1.316,0.183,2.46,5.0,,139.845,142.65,
2025-08-15T09:15:36.371Z,5,GR86-028-89,-0.1,-1.278,0.188,2.46,5.0,,130.855,132.655,
2025-08-15T09:15:36.416Z,5,GR86-028-89,-0.5,-1.605,0.219,2.46,5.0,,124.645,126.72,
2025-08-15T09:15:36.458Z,5,GR86-028-89,-0.5,-1.446,0.209,2.47,5.0,6273.0,120.525,122.875,
2025-08-15T09:15:36.501Z,5,GR86-028-89,1.1,-1.461,0.183,2.46,5.0,,117.335,119.455,192.76
2025-08-15T09:15:36.545Z,5,GR86-028-89,3.3000000000000003,-1.346,0.154,20.3,5.0,,113.855,115.365,
2025-08-15T09:15:36.587Z,5,GR86-028-89,4.9,-1.334,0.108,59.03,4.0,,111.87,113.17,
2025-08-15T09:15:36.630Z,5,GR86-028-89,6.4,-1.279,0.155,7.98,4.0,,105.83,107.705,
2025-08-15T09:15:36.676Z,5,GR86-028-89,8.200000000000001,-1.359,0.149,4.16,4.0,6180.0,105.86,108.27,
2025-08-15T09:15:36.718Z,5,GR86-028-89,9.8,-1.305,0.209,3.66,4.0,,104.685,106.545,176.32
2025-08-15T09:15:36.761Z,5,GR86-028-89,9.8,-1.42,0.22,3.33,4.0,,102.975,104.625,
2025-08-15T09:15:36.805Z,5,GR86-028-89,7.5,-1.332,0.222,3.09,4.0,,103.935,106.21,
2025-08-15T09:15:36.848Z,5,GR86-028-89,5.7,-1.274,0.258,2.93,4.0,,103.995,105.11,
2025-08-15T09:15:36.891Z,5,GR86-028-89,5.0,-1.357,0.288,2.84,4.0,6207.0,100.09,100.745,
2025-08-15T09:15:36.936Z,5,GR86-028-89,5.0,-1.192,0.27,2.74,4.0,,93.115,94.735,168.67000000000002
2025-08-15T09:15:36.979Z,5,GR86-028-89,4.6000000000000005,-1.316,0.344,2.71,4.0,,90.08,91.115,
2025-08-15T09:15:37.022Z,5,GR86-028-89,4.1000000000000005,-1.214,0.338,2.65,4.0,,87.865,88.555,
2025-08-15T09:15:37.065Z,5,GR86-028-89,3.2,-1.237,0.297,2.87,4.0,,85.32000000000001,85.9,
2025-08-15T09:15:37.108Z,5,GR86-028-89,2.2,-1.178,0.287,42.09,4.0,6263.0,80.68,81.52,
2025-08-15T09:15:37.151Z,5,GR86-028-89,2.4000000000000004,-1.128,0.276,62.42,3.0,,72.73,74.24,162.64
2025-08-15T09:15:37.195Z,5,GR86-028-89,3.1,-1.234,0.155,4.69,3.0,,60.92,62.81,
2025-08-15T09:15:37.238Z,5,GR86-028-89,2.6,-1.197,0.164,3.85,3.0,,59.3,61.115,
2025-08-15T09:15:37.281Z,5,GR86-028-89,3.5,-1.057,0.17,3.41,3.0,,57.745000000000005,58.645,
2025-08-15T09:15:37.326Z,5,GR86-028-89,5.0,-1.22,0.244,3.13,3.0,6394.0,56.935,58.4,
2025-08-15T09:15:37.369Z,5,GR86-028-89,6.800000000000001,-0.922,0.175,2.97,3.0,,58.965,60.11,154.36
2025-08-15T09:15:37.412Z,5,GR86-028-89,7.5,-1.159,0.232,2.87,3.0,,63.835,64.72,
2025-08-15T09:15:37.455Z,5,GR86-028-89,5.800000000000001,-1.155,0.268,2.74,3.0,,74.715,75.49,
2025-08-15T09:15:37.498Z,5,GR86-028-89,4.9,-1.224,0.184,2.71,3.0,,80.62,81.365,
2025-08-15T09:15:37.541Z,5,GR86-028-89,4.5,-1.218,0.269,2.68,3.0,6633.0,85.47,86.125,
2025-08-15T09:15:37.585Z,5,GR86-028-89,4.5,-1.208,0.219,2.65,3.0,,87.715,88.46000000000001,146.64
2025-08-15T09:15:37.627Z,5,GR86-028-89,3.8,-1.269,0.196,7.22,3.0,,87.745,88.43,
2025-08-15T09:15:37.670Z,5,GR86-028-89,2.5,-1.254,0.229,51.56,3.0,,82.65,84.02,
2025-08-15T09:15:37.715Z,5,GR86-028-89,2.5,-1.205,0.113,13.15,2.0,,65.58500000000001,67.615,
2025-08-15T09:15:37.758Z,5,GR86-028-89,2.6,-1.188,0.263,4.3100000000000005,2.0,6134.0,63.345,64.99,
2025-08-15T09:15:37.801Z,5,GR86-028-89,2.5,-1.311,0.146,3.76,2.0,,65.8,67.615,139.28
2025-08-15T09:15:37.845Z,5,GR86-028-89,4.1000000000000005,-1.534,0.254,3.39,2.0,,70.09,71.175,
2025-08-15T09:15:37.887Z,5,GR86-028-89,4.6000000000000005,-1.242,0.349,3.13,2.0,,75.705,77.305,
2025-08-15T09:15:37.930Z,5,GR86-028-89,4.5,-1.215,0.192,2.97,2.0,,78.895,80.525,
2025-08-15T09:15:37.975Z,5,GR86-028-89,4.800000000000001,-1.272,0.402,2.81,2.0,6913.0,76.65,77.92,
2025-08-15T09:15:38.018Z,5,GR86-028-89,4.7,-1.215,0.298,2.74,2.0,,73.875,75.155,131.45
2025-08-15T09:15:38.061Z,5,GR86-028-89,4.5,-1.061,0.268,2.69,2.0,,66.825,68.365,
2025-08-15T09:15:38.105Z,5,GR86-028-89,4.9,-1.031,0.405,2.65,2.0,,58.095,59.835,
2025-08-15T09:15:38.148Z,5,GR86-028-89,5.7,-0.968,0.231,2.62,2.0,,53.06,54.8,
2025-08-15T09:15:38.191Z,5,GR86-028-89,6.4,-0.978,0.25,2.6,2.0,6793.0,51.365,52.435,
2025-08-15T09:15:38.236Z,5,GR86-028-89,6.7,-1.037,0.258,2.5500000000000003,2.0,,50.405,51.0,123.94
2025-08-15T09:15:38.278Z,5,GR86-028-89,8.4,-1.013,0.196,22.82,2.0,,50.585,51.275,
2025-08-15T09:15:38.321Z,5,GR86-028-89,12.8,-1.029,0.271,58.34,1.0,,51.84,52.465,
2025-08-15T09:15:38.365Z,5,GR86-028-89,19.1,-1.403,0.225,7.03,1.0,,54.14,55.01,
2025-08-15T09:15:38.408Z,5,GR86-028-89,23.5,-1.113,0.446,4.42,1.0,6424.0,59.68,61.27,
2025-08-15T09:15:38.451Z,5,GR86-028-89,26.1,-1.297,0.313,4.0,1.0,,67.295,68.685,116.97
2025-08-15T09:15:38.495Z,5,GR86-028-89,29.200000000000003,-1.274,0.54,3.28,1.0,,73.46000000000001,74.83500000000001,
2025-08-15T09:15:38.538Z,5,GR86-028-89,32.6,-1.29,0.429,3.03,1.0,,76.805,78.545,
2025-08-15T09:15:38.581Z,5,GR86-028-89,36.0,-0.914,0.732,2.88,1.0,,72.93,74.285,
2025-08-15T09:15:38.627Z,5,GR86-028-89,38.3,-1.126,0.764,2.78,1.0,6866.0,67.39,68.745,
2025-08-15T09:15:38.669Z,5,GR86-028-89,42.1,-1.1,0.648,2.72,1.0,,63.955,65.115,109.42
2025-08-15T09:15:38.712Z,5,GR86-028-89,54.400000000000006,-0.956,0.798,2.67,1.0,,59.485,60.765,
2025-08-15T09:15:38.755Z,5,GR86-028-89,68.9,-0.861,0.987,2.62,1.0,,50.71,51.595,
2025-08-15T09:15:38.798Z,5,GR86-028-89,76.2,-0.893,0.8290000000000001,2.58,1.0,,46.77,47.67,
2025-08-15T09:15:38.841Z,5,GR86-028-89,82.4,-0.797,1.016,2.5500000000000003,1.0,6998.0,43.2,44.195,
2025-08-15T09:15:38.886Z,5,GR86-028-89,88.10000000000001,-0.838,1.045,2.5500000000000003,1.0,,40.865,41.89,102.24
2025-08-15T09:15:38.928Z,5,GR86-028-89,91.2,-0.775,1.083,2.5500000000000003,1.0,,40.425,41.31,
2025-08-15T09:15:38.971Z,5,GR86-028-89,92.1,-0.736,1.077,2.53,1.0,,37.555,38.595,
2025-08-15T09:15:39.015Z,5,GR86-028-89,93.8,-0.753,0.981,2.52,1.0,,37.205,37.98,
2025-08-15T09:15:39.058Z,5,GR86-028-89,96.5,-0.779,1.017,2.52,1.0,6704.0,38.96,39.555,
2025-08-15T09:15:39.101Z,5,GR86-028-89,98.1,-0.803,1.05,2.52,1.0,,41.08,41.735,95.54
2025-08-15T09:15:39.145Z,5,GR86-028-89,98.1,-0.776,1.069,2.5,1.0,,39.905,40.805,
2025-08-15T09:15:39.187Z,5,GR86-028-89,98.1,-0.772,0.914,2.51,1.0,,40.655,41.795,
2025-08-15T09:15:39.231Z,5,GR86-028-89,98.5,-0.841,0.95,2.51,1.0,,41.935,43.17,
2025-08-15T09:15:39.275Z,5,GR86-028-89,98.8,-0.785,1.048,2.51,1.0,6215.0,39.75,40.96,
2025-08-15T09:15:39.361Z,5,GR86-028-89,97.8,-0.506,1.084,2.5,1.0,,17.78,18.68,85.19
2025-08-15T09:15:39.405Z,5,GR86-028-89,98.0,-0.435,1.145,2.5,1.0,,6.485,7.205,
2025-08-15T09:15:39.448Z,5,GR86-028-89,99.0,-0.356,1.186,2.5,1.0,,0.0,0.0,
2025-08-15T09:15:39.491Z,5,GR86-028-89,101.3,-0.309,1.246,2.5,1.0,5735.0,0.0,0.0,
2025-08-15T09:15:39.535Z,5,GR86-028-89,104.0,-0.232,1.254,3.86,1.0,,0.0,0.0,80.60000000000001
2025-08-15T09:15:39.578Z,5,GR86-028-89,104.7,-0.214,1.277,15.39,1.0,,0.0,0.0,
2025-08-15T09:15:39.621Z,5,GR86-028-89,105.4,-0.225,1.21,20.86,1.0,,0.0,0.0,
2025-08-15T09:15:39.665Z,5,GR86-028-89,105.7,-0.208,1.247,23.13,1.0,,0.0,0.0,
2025-08-15T09:15:39.708Z,5,GR86-028-89,105.2,-0.153,1.225,26.16,1.0,5583.0,0.0,0.0,
2025-08-15T09:15:39.751Z,5,GR86-028-89,102.9,-0.12,1.254,30.9,1.0,,0.0,0.0,78.9
2025-08-15T09:15:39.795Z,5,GR86-028-89,96.8,-0.066,1.265,34.04,1.0,,0.0,0.0,
2025-08-15T09:15:39.838Z,5,GR86-028-89,93.6,0.177,1.249,36.12,1.0,,0.0,0.0,
2025-08-15T09:15:39.881Z,5,GR86-028-89,90.6,0.191,1.22,38.05,1.0,,0.0,0.0,
2025-08-15T09:15:39.926Z,5,GR86-028-89,85.10000000000001,0.255,1.21,38.59,1.0,6045.0,0.0,0.0,
2025-08-15T09:15:40.012Z,5,GR86-028-89,75.3,0.244,1.179,39.13,1.0,,0.0,0.0,77.59
2025-08-15T09:15:40.055Z,5,GR86-028-89,60.6,0.231,1.183,42.14,1.0,,0.0,0.0,
2025-08-15T09:15:40.098Z,5,GR86-028-89,62.0,0.216,1.177,43.29,1.0,,0.0,0.0,
2025-08-15T09:15:40.141Z,5,GR86-028-89,62.2,0.218,1.192,43.79,1.0,6022.0,0.0,0.0,
2025-08-15T09:15:40.186Z,5,GR86-028-89,65.2,0.248,1.113,43.7,1.0,,0.0,0.0,77.91
2025-08-15T09:15:40.228Z,5,GR86-028-89,71.4,0.261,1.204,45.36,1.0,,0.0,0.0,
2025-08-15T09:15:40.271Z,5,GR86-028-89,74.9,0.255,1.208,48.25,1.0,,0.0,0.0,
2025-08-15T09:15:40.316Z,5,GR86-028-89,71.10000000000001,0.249,1.114,49.4,1.0,,0.0,0.0,
2025-08-15T09:15:40.358Z,5,GR86-028-89,58.3,0.266,1.233,53.69,1.0,6174.0,0.0,0.0,
2025-08-15T09:15:40.401Z,5,GR86-028-89,38.6,0.302,1.225,54.77,1.0,,0.0,0.0,78.9
2025-08-15T09:15:40.445Z,5,GR86-028-89,17.900000000000002,0.324,1.24,55.92,1.0,,0.0,0.0,
2025-08-15T09:15:40.487Z,5,GR86-028-89,10.0,0.333,1.129,54.54,1.0,,0.0,0.0,
2025-08-15T09:15:40.530Z,5,GR86-028-89,15.8,0.298,1.053,53.89,1.0,,0.0,0.0,
2025-08-15T09:15:40.576Z,5,GR86-028-89,32.1,0.38,1.224,54.76,1.0,6355.0,0.0,0.0,
2025-08-15T09:15:40.618Z,5,GR86-028-89,36.1,0.436,1.15,53.8,1.0,,0.0,0.0,80.34
2025-08-15T09:15:40.661Z,5,GR86-028-89,33.1,0.395,1.189,54.6,1.0,,0.0,0.0,
2025-08-15T09:15:40.705Z,5,GR86-028-89,34.7,0.367,1.188,54.81,1.0,,0.0,0.0,
2025-08-15T09:15:40.748Z,5,GR86-028-89,47.3,0.355,1.11,55.31,1.0,,0.0,0.0,
2025-08-15T09:15:40.791Z,5,GR86-028-89,67.10000000000001,0.262,1.16,55.6,1.0,6351.0,0.0,0.0,
2025-08-15T09:15:40.836Z,5,GR86-028-89,95.5,0.292,1.239,54.72,1.0,,0.0,0.0,82.2
2025-08-15T09:15:40.879Z,5,GR86-028-89,106.2,0.274,1.23,54.85,1.0,,0.0,0.0,
2025-08-15T09:15:40.922Z,5,GR86-028-89,108.8,0.318,1.16,54.9,1.0,,0.0,0.0,
2025-08-15T09:15:40.965Z,5,GR86-028-89,108.1,0.28,1.089,55.68,1.0,,0.0,0.0,
2025-08-15T09:15:41.008Z,5,GR86-028-89,104.7,0.286,1.101,57.74,1.0,6431.0,0.0,0.0,
2025-08-15T09:15:41.051Z,5,GR86-028-89,97.9,0.23,1.148,61.79,1.0,,0.0,0.0,83.61
2025-08-15T09:15:41.095Z,5,GR86-028-89,84.7,0.256,1.116,66.14,1.0,,0.0,0.0,
2025-08-15T09:15:41.138Z,5,GR86-028-89,75.8,0.263,1.158,73.69,1.0,,0.0,0.0,
2025-08-15T09:15:41.181Z,5,GR86-028-89,64.4,0.329,1.085,77.97,1.0,,0.0,0.0,
2025-08-15T09:15:41.227Z,5,GR86-028-89,53.8,0.321,1.083,79.21000000000001,1.0,6565.0,0.0,0.0,
2025-08-15T09:15:41.269Z,5,GR86-028-89,47.3,0.358,1.032,80.49,1.0,,0.0,0.0,85.76
2025-08-15T09:15:41.312Z,5,GR86-028-89,45.3,0.315,1.055,87.2,1.0,,0.0,0.0,
2025-08-15T09:15:41.355Z,5,GR86-028-89,44.6,0.311,1.02,92.4,1.0,,0.0,0.0,
2025-08-15T09:15:41.398Z,5,GR86-028-89,42.3,0.306,1.085,100.17,1.0,,0.0,0.0,
2025-08-15T09:15:41.441Z,5,GR86-028-89,37.7,0.315,1.058,100.11,1.0,6789.0,0.0,0.0,
2025-08-15T09:15:41.485Z,5,GR86-028-89,31.700000000000003,0.324,1.039,100.1,1.0,,0.0,0.0,88.08
2025-08-15T09:15:41.527Z,5,GR86-028-89,26.9,0.34,1.047,100.11,1.0,,0.0,0.0,
2025-08-15T09:15:41.570Z,5,GR86-028-89,24.6,0.367,1.019,100.11,1.0,,0.0,0.0,
2025-08-15T09:15:41.615Z,5,GR86-028-89,25.5,0.372,1.012,100.14,1.0,,0.0,0.0,
2025-08-15T09:15:41.658Z,5,GR86-028-89,29.200000000000003,0.378,0.961,100.17,1.0,6983.0,0.0,0.0,
2025-08-15T09:15:41.701Z,5,GR86-028-89,33.800000000000004,0.341,1.017,100.15,1.0,,0.0,0.0,89.76
2025-08-15T09:15:41.745Z,5,GR86-028-89,36.4,0.375,0.992,100.13,1.0,,0.0,0.0,
2025-08-15T09:15:41.787Z,5,GR86-028-89,39.3,0.36,0.96,100.12,1.0,,0.0,0.0,
2025-08-15T09:15:41.830Z,5,GR86-028-89,43.2,0.363,0.935,100.1,1.0,,0.0,0.0,
2025-08-15T09:15:41.918Z,5,GR86-028-89,45.7,0.334,0.943,100.12,1.0,7070.0,0.0,0.0,92.58
2025-08-15T09:15:41.961Z,5,GR86-028-89,45.0,0.334,0.861,100.11,1.0,,0.0,0.0,
2025-08-15T09:15:42.005Z,5,GR86-028-89,44.7,0.359,0.668,100.08,1.0,,0.0,0.0,
2025-08-15T09:15:42.048Z,5,GR86-028-89,43.6,0.293,0.527,100.11,1.0,,0.0,0.0,
2025-08-15T09:15:42.091Z,5,GR86-028-89,42.2,0.19,0.584,100.12,1.0,7133.0,0.0,0.0,
2025-08-15T09:15:42.136Z,5,GR86-028-89,36.5,0.22,0.53,100.11,1.0,,0.0,0.0,94.91
2025-08-15T09:15:42.178Z,5,GR86-028-89,35.7,-0.046,0.535,100.09,2.0,,0.0,0.0,
2025-08-15T09:15:42.221Z,5,GR86-028-89,35.7,-0.047,0.722,100.11,2.0,,0.0,0.0,
2025-08-15T09:15:42.265Z,5,GR86-028-89,33.7,0.6990000000000001,0.6,100.1,2.0,,0.0,0.0,
2025-08-15T09:15:42.308Z,5,GR86-028-89,30.0,0.61,0.678,100.07,2.0,7264.0,0.0,0.0,
2025-08-15T09:15:42.351Z,5,GR86-028-89,25.200000000000003,0.782,0.729,100.08,2.0,,0.0,0.0,96.88
2025-08-15T09:15:42.395Z,5,GR86-028-89,21.8,0.149,0.6890000000000001,100.11,2.0,,0.0,0.0,
2025-08-15T09:15:42.438Z,5,GR86-028-89,19.700000000000003,0.237,0.932,100.1,2.0,,0.0,0.0,
2025-08-15T09:15:42.481Z,5,GR86-028-89,16.8,0.293,1.014,100.09,2.0,,0.0,0.0,
2025-08-15T09:15:42.527Z,5,GR86-028-89,12.1,0.373,0.805,100.09,2.0,5937.0,0.0,0.0,
2025-08-15T09:15:42.569Z,5,GR86-028-89,7.2,0.508,0.771,100.08,2.0,,0.0,0.0,99.63
2025-08-15T09:15:42.612Z,5,GR86-028-89,3.4000000000000004,0.486,0.627,100.1,2.0,,0.0,0.0,
2025-08-15T09:15:42.655Z,5,GR86-028-89,4.2,0.395,0.65,100.1,2.0,,0.0,0.0,
2025-08-15T09:15:42.698Z,5,GR86-028-89,5.6000000000000005,0.448,0.719,100.07,2.0,,0.0,0.0,
2025-08-15T09:15:42.741Z,5,GR86-028-89,5.7,0.465,0.497,100.07,2.0,6028.0,0.0,0.0,
2025-08-15T09:15:42.786Z,5,GR86-028-89,5.1000000000000005,0.4,0.772,100.06,2.0,,0.0,0.0,100.87
2025-08-15T09:15:42.828Z,5,GR86-028-89,3.8,0.5,0.71,100.04,2.0,,0.0,0.0,
2025-08-15T09:15:42.871Z,5,GR86-028-89,2.7,0.333,0.741,100.03,2.0,,0.0,0.0,
2025-08-15T09:15:42.915Z,5,GR86-028-89,1.1,0.291,0.836,100.0,2.0,,0.0,0.0,
2025-08-15T09:15:42.958Z,5,GR86-028-89,0.2,0.372,0.599,99.99,2.0,6075.0,0.0,0.0,
2025-08-15T09:15:43.001Z,5,GR86-028-89,-0.6000000000000001,0.39,0.373,99.97,2.0,,0.0,0.0,102.22
2025-08-15T09:15:43.045Z,5,GR86-028-89,-2.2,0.417,0.452,99.98,2.0,,0.0,0.0,
2025-08-15T09:15:43.087Z,5,GR86-028-89,-3.7,0.337,0.25,99.98,2.0,,0.0,0.0,
2025-08-15T09:15:43.131Z,5,GR86-028-89,-4.4,0.33,0.141,100.0,2.0,,0.0,0.0,
2025-08-15T09:15:43.175Z,5,GR86-028-89,-4.4,0.312,-0.009,100.0,2.0,6113.0,0.0,0.0,
2025-08-15T09:15:43.218Z,5,GR86-028-89,-4.4,0.315,-0.15,99.99,2.0,,0.0,0.0,104.06
2025-08-15T09:15:43.261Z,5,GR86-028-89,-4.5,0.356,-0.236,99.98,2.0,,0.0,0.0,
2025-08-15T09:15:43.305Z,5,GR86-028-89,-4.5,0.402,-0.237,100.01,2.0,,0.0,0.0,
2025-08-15T09:15:43.348Z,5,GR86-028-89,-4.6000000000000005,0.455,-0.32,100.01,2.0,,0.0,0.0,
2025-08-15T09:15:43.391Z,5,GR86-028-89,-4.7,0.377,-0.335,99.98,2.0,6218.0,0.0,0.0,
2025-08-15T09:15:43.435Z,5,GR86-028-89,-4.800000000000001,0.196,-0.253,100.0,2.0,,0.0,0.0,105.87
2025-08-15T09:15:43.478Z,5,GR86-028-89,-4.9,0.26,-0.181,100.0,2.0,,0.0,0.0,
2025-08-15T09:15:43.521Z,5,GR86-028-89,-5.300000000000001,0.271,-0.207,100.0,2.0,,0.0,0.0,
2025-08-15T09:15:43.565Z,5,GR86-028-89,-5.9,0.287,-0.191,99.99,2.0,,0.0,0.0,
2025-08-15T09:15:43.608Z,5,GR86-028-89,-6.5,0.249,-0.212,99.99,2.0,6266.0,0.0,0.0,
2025-08-15T09:15:43.651Z,5,GR86-028-89,-6.6000000000000005,0.238,-0.236,100.04,2.0,,0.0,0.0,107.61
2025-08-15T09:15:43.695Z,5,GR86-028-89,-6.6000000000000005,0.255,-0.219,99.97,2.0,,0.0,0.0,
2025-08-15T09:15:43.738Z,5,GR86-028-89,-6.6000000000000005,0.283,-0.185,100.02,2.0,,0.0,0.0,
2025-08-15T09:15:43.781Z,5,GR86-028-89,-6.5,0.261,-0.19,99.98,2.0,,0.0,0.0,
2025-08-15T09:15:43.826Z,5,GR86-028-89,-6.4,0.238,-0.182,100.02,2.0,6346.0,0.0,0.0,
2025-08-15T09:15:43.869Z,5,GR86-028-89,-6.4,0.242,-0.166,100.0,2.0,,0.0,0.0,109.32
2025-08-15T09:15:43.912Z,5,GR86-028-89,-6.4,0.243,-0.197,99.99,2.0,,0.0,0.0,
2025-08-15T09:15:43.955Z,5,GR86-028-89,-6.0,0.245,-0.184,100.0,2.0,,0.0,0.0,
2025-08-15T09:15:43.998Z,5,GR86-028-89,-5.4,0.274,-0.167,100.0,2.0,,0.0,0.0,
2025-08-15T09:15:44.041Z,5,GR86-028-89,-5.1000000000000005,0.26,-0.169,99.99,2.0,6423.0,0.0,0.0,
2025-08-15T09:15:44.086Z,5,GR86-028-89,-5.1000000000000005,0.246,-0.151,100.0,2.0,,0.0,0.0,111.04
2025-08-15T09:15:44.128Z,5,GR86-028-89,-5.300000000000001,0.253,-0.143,100.01,2.0,,0.0,0.0,
2025-08-15T09:15:44.171Z,5,GR86-028-89,-5.800000000000001,0.244,-0.161,100.02,2.0,,0.0,0.0,
2025-08-15T09:15:44.216Z,5,GR86-028-89,-6.1000000000000005,0.246,-0.165,99.99,2.0,,0.0,0.0,
2025-08-15T09:15:44.258Z,5,GR86-028-89,-6.1000000000000005,0.264,-0.144,99.98,2.0,6506.0,0.0,0.0,
2025-08-15T09:15:44.301Z,5,GR86-028-89,-6.2,0.241,-0.17,100.01,2.0,,0.0,0.0,112.68
2025-08-15T09:15:44.345Z,5,GR86-028-89,-6.4,0.247,-0.172,99.99,2.0,,0.0,0.0,
2025-08-15T09:15:44.387Z,5,GR86-028-89,-6.5,0.257,-0.142,100.01,2.0,,0.0,0.0,
2025-08-15T09:15:44.430Z,5,GR86-028-89,-6.6000000000000005,0.249,-0.191,100.03,2.0,,0.0,0.0,
2025-08-15T09:15:44.476Z,5,GR86-028-89,-6.7,0.244,-0.199,100.01,2.0,6605.0,0.0,0.0,
2025-08-15T09:15:44.519Z,5,GR86-028-89,-6.7,0.243,-0.173,99.98,2.0,,0.0,0.0,115.71
2025-08-15T09:15:44.562Z,5,GR86-028-89,-6.7,0.243,-0.178,99.99,2.0,,0.0,0.0,
2025-08-15T09:15:44.605Z,5,GR86-028-89,-6.6000000000000005,0.248,-0.217,99.99,2.0,,0.0,0.0,
2025-08-15T09:15:44.648Z,5,GR86-028-89,-6.300000000000001,0.258,-0.177,100.0,2.0,,0.0,0.0,
2025-08-15T09:15:44.691Z,5,GR86-028-89,-6.1000000000000005,0.256,-0.198,99.98,2.0,6683.0,0.0,0.0,
2025-08-15T09:15:44.736Z,5,GR86-028-89,-4.2,0.248,-0.196,100.01,2.0,,0.0,0.0,117.15
2025-08-15T09:15:44.779Z,5,GR86-028-89,-2.7,0.244,-0.165,99.99,2.0,,0.0,0.0,
2025-08-15T09:15:44.822Z,5,GR86-028-89,-1.8,0.249,-0.143,99.99,2.0,,0.0,0.0,
2025-08-15T09:15:44.865Z,5,GR86-028-89,-0.8,0.251,-0.135,99.99,2.0,,0.0,0.0,
2025-08-15T09:15:44.908Z,5,GR86-028-89,-0.1,0.247,-0.103,99.99,2.0,6765.0,0.0,0.0,
2025-08-15T09:15:44.951Z,5,GR86-028-89,0.3,0.245,-0.059,100.02,2.0,,0.0,0.0,118.57
2025-08-15T09:15:44.995Z,5,GR86-028-89,1.7000000000000002,0.255,-0.026,99.99,2.0,,0.0,0.0,
2025-08-15T09:15:45.038Z,5,GR86-028-89,2.2,0.249,-0.02,100.0,2.0,,0.0,0.0,
2025-08-15T09:15:45.081Z,5,GR86-028-89,2.8000000000000003,0.246,0.015,100.01,2.0,,0.0,0.0,
2025-08-15T09:15:45.126Z,5,GR86-028-89,3.3000000000000003,0.249,0.056,100.02,2.0,6921.0,0.0,0.0,
2025-08-15T09:15:45.169Z,5,GR86-028-89,3.4000000000000004,0.251,0.028,100.0,2.0,,0.0,0.0,119.97
2025-08-15T09:15:45.212Z,5,GR86-028-89,3.3000000000000003,0.242,0.044,100.04,2.0,,0.0,0.0,
2025-08-15T09:15:45.255Z,5,GR86-028-89,2.4000000000000004,0.244,0.071,99.98,2.0,,0.0,0.0,
2025-08-15T09:15:45.298Z,5,GR86-028-89,2.4000000000000004,0.252,0.079,100.0,2.0,,0.0,0.0,
2025-08-15T09:15:45.341Z,5,GR86-028-89,2.2,0.247,0.046,99.97,2.0,6991.0,0.0,0.0,
2025-08-15T09:15:45.385Z,5,GR86-028-89,2.1,0.24,0.062,99.97,2.0,,0.0,0.0,121.29
2025-08-15T09:15:45.427Z,5,GR86-028-89,2.1,0.248,0.064,100.0,2.0,,0.0,0.0,
2025-08-15T09:15:45.470Z,5,GR86-028-89,2.2,0.259,0.034,99.97,2.0,,0.0,0.0,
2025-08-15T09:15:45.515Z,5,GR86-028-89,2.1,0.261,0.031,100.01,2.0,,0.0,0.0,
2025-08-15T09:15:45.558Z,5,GR86-028-89,2.1,0.235,0.04,99.99,2.0,7071.0,0.0,0.0,
2025-08-15T09:15:45.601Z,5,GR86-028-89,2.0,0.235,0.054,99.98,2.0,,0.0,0.0,122.46
2025-08-15T09:15:45.645Z,5,GR86-028-89,2.0,0.243,0.017,100.0,2.0,,0.0,0.0,
2025-08-15T09:15:45.687Z,5,GR86-028-89,2.0,0.238,0.032,99.98,2.0,,0.0,0.0,
2025-08-15T09:15:45.730Z,5,GR86-028-89,2.4000000000000004,0.25,0.054,100.03,2.0,,0.0,0.0,
2025-08-15T09:15:45.775Z,5,GR86-028-89,2.8000000000000003,0.242,0.056,99.97,2.0,7131.0,0.0,0.0,
2025-08-15T09:15:45.818Z,5,GR86-028-89,2.8000000000000003,0.239,0.035,99.98,2.0,,0.0,0.0,123.57
2025-08-15T09:15:45.861Z,5,GR86-028-89,2.8000000000000003,0.225,0.041,100.02,2.0,,0.0,0.0,
2025-08-15T09:15:45.905Z,5,GR86-028-89,3.0,0.235,0.074,100.01,2.0,,0.0,0.0,
2025-08-15T09:15:45.948Z,5,GR86-028-89,2.9000000000000004,0.232,0.054,100.01,2.0,,0.0,0.0,
2025-08-15T09:15:45.991Z,5,GR86-028-89,2.7,0.232,0.033,99.97,2.0,7187.0,0.0,0.0,
2025-08-15T09:15:46.036Z,5,GR86-028-89,2.3000000000000003,0.23,0.017,100.01,2.0,,0.0,0.0,124.67
2025-08-15T09:15:46.078Z,5,GR86-028-89,2.3000000000000003,0.223,0.056,99.97,2.0,,0.0,0.0,
2025-08-15T09:15:46.121Z,5,GR86-028-89,2.0,0.236,0.04,100.01,2.0,,0.0,0.0,
2025-08-15T09:15:46.165Z,5,GR86-028-89,2.0,0.241,0.013,100.02,2.0,,0.0,0.0,
2025-08-15T09:15:46.208Z,5,GR86-028-89,1.8,-0.043,0.038,100.0,3.0,7246.0,0.0,0.0,
2025-08-15T09:15:46.251Z,5,GR86-028-89,1.9,0.068,0.081,99.96,3.0,,0.0,0.0,125.68
2025-08-15T09:15:46.295Z,5,GR86-028-89,2.6,0.328,-0.055,99.97,3.0,,0.0,0.0,
2025-08-15T09:15:46.338Z,5,GR86-028-89,2.0,0.401,0.012,99.97,3.0,,0.0,0.0,
2025-08-15T09:15:46.381Z,5,GR86-028-89,1.7000000000000002,0.117,0.054,99.98,3.0,,0.0,0.0,
2025-08-15T09:15:46.426Z,5,GR86-028-89,1.6,0.031,-0.036,99.98,3.0,6365.0,0.0,0.0,
2025-08-15T09:15:46.469Z,5,GR86-028-89,1.6,0.161,0.04,99.97,3.0,,0.0,0.0,126.58
2025-08-15T09:15:46.512Z,5,GR86-028-89,1.6,0.289,0.008,99.98,3.0,,0.0,0.0,
2025-08-15T09:15:46.555Z,5,GR86-028-89,2.3000000000000003,0.208,-0.005,99.99,3.0,,0.0,0.0,
2025-08-15T09:15:46.598Z,5,GR86-028-89,2.9000000000000004,0.148,0.058,99.98,3.0,,0.0,0.0,
2025-08-15T09:15:46.641Z,5,GR86-028-89,3.1,0.16,0.034,99.98,3.0,6067.0,0.0,0.0,
2025-08-15T09:15:46.728Z,5,GR86-028-89,3.1,0.215,0.024,99.99,3.0,,0.0,0.0,127.69
2025-08-15T09:15:46.771Z,5,GR86-028-89,1.9,0.196,0.054,99.99,3.0,,0.0,0.0,
2025-08-15T09:15:46.815Z,5,GR86-028-89,1.6,0.182,0.054,99.99,3.0,,0.0,0.0,
2025-08-15T09:15:46.858Z,5,GR86-028-89,1.4,0.2,0.035,99.98,3.0,6026.0,0.0,0.0,
2025-08-15T09:15:46.901Z,5,GR86-028-89,1.4,0.212,-0.012,99.98,3.0,,0.0,0.0,128.49
2025-08-15T09:15:46.945Z,5,GR86-028-89,1.3,0.194,0.038,99.98,3.0,,0.0,0.0,
2025-08-15T09:15:46.987Z,5,GR86-028-89,1.3,0.197,0.024,99.98,3.0,,0.0,0.0,
2025-08-15T09:15:47.031Z,5,GR86-028-89,1.0,0.2,-0.015,99.98,3.0,,0.0,0.0,
2025-08-15T09:15:47.075Z,5,GR86-028-89,0.8,0.194,-0.005,99.98,3.0,6047.0,0.0,0.0,
2025-08-15T09:15:47.118Z,5,GR86-028-89,0.6000000000000001,0.193,-0.021,100.01,3.0,,0.0,0.0,129.9
2025-08-15T09:15:47.161Z,5,GR86-028-89,0.6000000000000001,0.198,0.014,99.99,3.0,,0.0,0.0,
2025-08-15T09:15:47.205Z,5,GR86-028-89,1.0,0.203,0.005,100.01,3.0,,0.0,0.0,
2025-08-15T09:15:47.247Z,5,GR86-028-89,1.8,0.19,-0.035,100.01,3.0,,0.0,0.0,
2025-08-15T09:15:47.290Z,5,GR86-028-89,2.4000000000000004,0.191,0.004,100.01,3.0,6075.0,0.0,0.0,
2025-08-15T09:15:47.335Z,5,GR86-028-89,2.9000000000000004,0.205,0.01,24.75,3.0,,0.0,0.0,130.66
2025-08-15T09:15:47.378Z,5,GR86-028-89,3.3000000000000003,0.183,0.041,2.91,3.0,,0.0,0.0,
2025-08-15T09:15:47.421Z,5,GR86-028-89,4.3,0.089,0.041,2.69,3.0,,0.0,0.0,
2025-08-15T09:15:47.508Z,5,GR86-028-89,6.5,-0.259,0.078,2.5500000000000003,3.0,6114.0,7.37,7.705,
2025-08-15T09:15:47.551Z,5,GR86-028-89,6.800000000000001,-0.379,0.101,2.53,3.0,,16.085,16.345,131.45
2025-08-15T09:15:47.595Z,5,GR86-028-89,5.7,-0.345,0.163,2.52,3.0,,24.11,23.99,
2025-08-15T09:15:47.638Z,5,GR86-028-89,5.1000000000000005,-0.48,0.089,2.52,3.0,,27.865,27.925,
2025-08-15T09:15:47.681Z,5,GR86-028-89,5.1000000000000005,-0.46,0.147,2.49,3.0,,28.305,28.645,
2025-08-15T09:15:47.726Z,5,GR86-028-89,5.2,-0.528,0.134,2.49,3.0,5748.0,28.52,28.81,
2025-08-15T09:15:47.769Z,5,GR86-028-89,5.2,-0.538,0.145,2.49,3.0,,28.645,28.995,129.33
2025-08-15T09:15:47.812Z,5,GR86-028-89,4.9,-0.547,0.134,32.15,3.0,,28.305,28.84,
2025-08-15T09:15:47.855Z,5,GR86-028-89,5.1000000000000005,-0.553,0.148,98.04,3.0,,28.275,28.81,
2025-08-15T09:15:47.898Z,5,GR86-028-89,5.1000000000000005,-0.557,0.198,97.21,2.0,,28.185,28.615,
2025-08-15T09:15:47.941Z,5,GR86-028-89,5.6000000000000005,-0.669,0.121,32.71,2.0,5539.0,28.275,28.645,
2025-08-15T09:15:47.986Z,5,GR86-028-89,6.300000000000001,-0.704,0.185,3.62,2.0,,29.27,30.52,124.87
2025-08-15T09:15:48.028Z,5,GR86-028-89,10.7,-0.651,0.248,2.84,2.0,,32.075,33.28,
2025-08-15T09:15:48.071Z,5,GR86-028-89,17.7,-0.866,0.232,2.69,2.0,,32.84,33.405,
2025-08-15T09:15:48.116Z,5,GR86-028-89,28.6,-0.654,0.506,2.62,2.0,,33.875,34.93,
2025-08-15T09:15:48.158Z,5,GR86-028-89,33.4,-0.652,0.404,2.58,2.0,6459.0,33.465,34.09,
2025-08-15T09:15:48.245Z,5,GR86-028-89,35.4,-0.654,0.683,2.57,2.0,,32.96,33.19,120.84
2025-08-15T09:15:48.287Z,5,GR86-028-89,40.7,-0.625,0.657,2.5500000000000003,2.0,,32.305,32.475,
2025-08-15T09:15:48.330Z,5,GR86-028-89,38.0,-0.624,0.805,2.5500000000000003,2.0,,32.075,32.105000000000004,
2025-08-15T09:15:48.376Z,5,GR86-028-89,28.8,-0.603,0.727,2.54,2.0,6303.0,30.335,30.995,
2025-08-15T09:15:48.418Z,5,GR86-028-89,29.5,-0.597,0.734,2.54,2.0,,27.47,28.615,116.2
2025-08-15T09:15:48.461Z,5,GR86-028-89,35.4,-0.555,0.899,2.52,2.0,,20.725,21.99,
2025-08-15T09:15:48.505Z,5,GR86-028-89,34.9,-0.395,0.922,2.52,2.0,,14.025,14.94,
2025-08-15T09:15:48.548Z,5,GR86-028-89,27.1,-0.363,0.936,2.52,2.0,,9.965,10.955,
2025-08-15T09:15:48.591Z,5,GR86-028-89,19.8,-0.227,0.966,2.52,2.0,5947.0,5.19,5.995,
2025-08-15T09:15:48.636Z,5,GR86-028-89,27.0,-0.173,0.956,2.52,2.0,,0.0,0.0,112.15
2025-08-15T09:15:48.679Z,5,GR86-028-89,31.4,-0.226,1.044,2.52,2.0,,0.0,0.0,
2025-08-15T09:15:48.722Z,5,GR86-028-89,36.2,-0.172,1.043,2.52,2.0,,0.0,0.0,
2025-08-15T09:15:48.765Z,5,GR86-028-89,43.5,-0.121,1.053,2.52,2.0,,0.0,0.0,
2025-08-15T09:15:48.808Z,5,GR86-028-89,46.900000000000006,-0.168,1.155,2.52,2.0,5888.0,0.0,0.0,
2025-08-15T09:15:48.851Z,5,GR86-028-89,46.7,-0.129,1.113,2.49,2.0,,0.0,0.0,109.42
2025-08-15T09:15:48.895Z,5,GR86-028-89,50.3,-0.127,1.072,2.51,2.0,,0.0,0.0,
2025-08-15T09:15:48.938Z,5,GR86-028-89,52.900000000000006,-0.2,1.136,2.49,2.0,,0.0,0.0,
2025-08-15T09:15:48.981Z,5,GR86-028-89,55.8,-0.128,1.111,2.51,2.0,,0.0,0.0,
2025-08-15T09:15:49.027Z,5,GR86-028-89,59.7,-0.178,1.166,3.71,2.0,5851.0,0.0,0.0,
2025-08-15T09:15:49.069Z,5,GR86-028-89,62.8,-0.152,1.216,7.22,2.0,,0.0,0.0,106.55
2025-08-15T09:15:49.112Z,5,GR86-028-89,64.9,-0.146,1.197,7.84,2.0,,0.0,0.0,
2025-08-15T09:15:49.155Z,5,GR86-028-89,69.9,-0.188,1.264,7.57,2.0,,0.0,0.0,
2025-08-15T09:15:49.198Z,5,GR86-028-89,71.7,-0.155,1.303,6.18,2.0,,0.0,0.0,
2025-08-15T09:15:49.241Z,5,GR86-028-89,71.8,-0.122,1.233,5.93,2.0,5774.0,0.0,0.0,
2025-08-15T09:15:49.285Z,5,GR86-028-89,71.8,-0.139,1.278,5.97,2.0,,0.0,0.0,105.51
2025-08-15T09:15:49.327Z,5,GR86-028-89,70.4,-0.113,1.215,6.26,2.0,,0.0,0.0,
2025-08-15T09:15:49.370Z,5,GR86-028-89,63.0,-0.175,1.315,17.2,2.0,,0.0,0.0,
2025-08-15T09:15:49.415Z,5,GR86-028-89,42.2,-0.132,1.303,19.49,2.0,,0.0,0.0,
2025-08-15T09:15:49.458Z,5,GR86-028-89,34.9,-0.085,1.293,21.17,2.0,5726.0,0.0,0.0,
2025-08-15T09:15:49.501Z,5,GR86-028-89,31.8,-0.083,1.292,21.76,2.0,,0.0,0.0,103.95
2025-08-15T09:15:49.545Z,5,GR86-028-89,24.5,-0.045,1.236,22.3,2.0,,0.0,0.0,
2025-08-15T09:15:49.587Z,5,GR86-028-89,18.4,-0.066,1.265,23.3,2.0,,0.0,0.0,
2025-08-15T09:15:49.630Z,5,GR86-028-89,17.400000000000002,0.076,1.226,23.57,2.0,,0.0,0.0,
2025-08-15T09:15:49.675Z,5,GR86-028-89,18.4,0.09,1.176,24.05,2.0,5645.0,0.0,0.0,
2025-08-15T09:15:49.718Z,5,GR86-028-89,18.4,0.106,1.224,25.16,2.0,,0.0,0.0,101.24
2025-08-15T09:15:49.761Z,5,GR86-028-89,17.0,0.109,1.244,25.81,2.0,,0.0,0.0,
2025-08-15T09:15:49.805Z,5,GR86-028-89,14.8,0.095,1.275,26.49,2.0,,0.0,0.0,
2025-08-15T09:15:49.848Z,5,GR86-028-89,19.1,0.145,1.373,27.15,2.0,,0.0,0.0,
2025-08-15T09:15:49.891Z,5,GR86-028-89,22.6,0.109,1.327,27.64,2.0,5878.0,0.0,0.0,
2025-08-15T09:15:49.936Z,5,GR86-028-89,12.5,0.123,1.255,27.24,2.0,,0.0,0.0,100.65
2025-08-15T09:15:49.979Z,5,GR86-028-89,4.3,0.13,1.359,27.53,2.0,,0.0,0.0,
2025-08-15T09:15:50.022Z,5,GR86-028-89,1.8,0.142,1.272,27.62,2.0,,0.0,0.0,
2025-08-15T09:15:50.065Z,5,GR86-028-89,2.3000000000000003,0.189,1.374,27.7,2.0,,0.0,0.0,
2025-08-15T09:15:50.108Z,5,GR86-028-89,2.0,0.157,1.264,29.01,2.0,5892.0,0.0,0.0,
2025-08-15T09:15:50.151Z,5,GR86-028-89,-0.5,0.141,1.206,29.31,2.0,,0.0,0.0,100.29
2025-08-15T09:15:50.195Z,5,GR86-028-89,1.6,0.16,1.263,30.61,2.0,,0.0,0.0,
2025-08-15T09:15:50.238Z,5,GR86-028-89,4.4,0.171,1.267,31.24,2.0,,0.0,0.0,
2025-08-15T09:15:50.281Z,5,GR86-028-89,4.7,0.163,1.317,31.5,2.0,,0.0,0.0,
2025-08-15T09:15:50.327Z,5,GR86-028-89,-1.7000000000000002,0.162,1.247,31.55,2.0,5970.0,0.0,0.0,
2025-08-15T09:15:50.369Z,5,GR86-028-89,-9.1,0.174,1.242,31.56,2.0,,0.0,0.0,100.01
2025-08-15T09:15:50.412Z,5,GR86-028-89,-15.5,0.191,1.199,31.51,2.0,,0.0,0.0,
2025-08-15T09:15:50.455Z,5,GR86-028-89,-19.9,0.184,1.236,31.49,2.0,,0.0,0.0,
2025-08-15T09:15:50.498Z,5,GR86-028-89,-20.0,0.188,1.324,31.47,2.0,,0.0,0.0,
2025-08-15T09:15:50.541Z,5,GR86-028-89,-20.8,0.187,1.291,31.45,2.0,6014.0,0.0,0.0,
2025-08-15T09:15:50.586Z,5,GR86-028-89,-23.1,0.173,1.291,31.48,2.0,,0.0,0.0,99.98
2025-08-15T09:15:50.628Z,5,GR86-028-89,-30.9,0.204,1.264,31.51,2.0,,0.0,0.0,
2025-08-15T09:15:50.671Z,5,GR86-028-89,-43.0,0.214,1.259,31.55,2.0,,0.0,0.0,
2025-08-15T09:15:50.715Z,5,GR86-028-89,-57.0,0.222,1.196,31.58,2.0,,0.0,0.0,
2025-08-15T09:15:50.758Z,5,GR86-028-89,-59.900000000000006,0.205,1.142,31.58,2.0,6087.0,0.0,0.0,
2025-08-15T09:15:50.801Z,5,GR86-028-89,-59.2,0.204,1.123,31.61,2.0,,0.0,0.0,100.28
2025-08-15T09:15:50.845Z,5,GR86-028-89,-57.400000000000006,0.194,1.131,31.66,2.0,,0.0,0.0,
2025-08-15T09:15:50.887Z,5,GR86-028-89,-58.0,0.216,1.208,31.7,2.0,,0.0,0.0,
2025-08-15T09:15:50.931Z,5,GR86-028-89,-63.3,0.207,1.149,31.73,2.0,,0.0,0.0,
2025-08-15T09:15:50.975Z,5,GR86-028-89,-82.4,0.177,1.107,31.5,2.0,6150.0,0.0,0.0,
2025-08-15T09:15:51.018Z,5,GR86-028-89,-103.5,0.187,1.095,31.38,2.0,,0.0,0.0,100.36
2025-08-15T09:15:51.061Z,5,GR86-028-89,-129.8,0.233,0.96,31.22,2.0,,0.0,0.0,
2025-08-15T09:15:51.105Z,5,GR86-028-89,-150.0,0.197,0.846,30.94,2.0,,0.0,0.0,
2025-08-15T09:15:51.148Z,5,GR86-028-89,-146.3,0.255,0.758,30.83,2.0,,0.0,0.0,
2025-08-15T09:15:51.191Z,5,GR86-028-89,-134.3,0.274,0.935,30.22,2.0,6318.0,0.0,0.0,
2025-08-15T09:15:51.235Z,5,GR86-028-89,-119.4,0.302,1.145,30.69,2.0,,0.0,0.0,100.38
2025-08-15T09:15:51.278Z,5,GR86-028-89,-121.1,0.303,1.179,30.62,2.0,,0.0,0.0,
2025-08-15T09:15:51.321Z,5,GR86-028-89,-123.6,0.245,1.209,30.78,2.0,,0.0,0.0,
2025-08-15T09:15:51.365Z,5,GR86-028-89,-122.0,0.275,1.127,30.68,2.0,,0.0,0.0,
2025-08-15T09:15:51.408Z,5,GR86-028-89,-113.0,0.257,1.149,30.02,2.0,6184.0,0.0,0.0,
2025-08-15T09:15:51.451Z,5,GR86-028-89,-93.2,0.194,0.881,29.0,2.0,,0.0,0.0,100.47
2025-08-15T09:15:51.495Z,5,GR86-028-89,-80.60000000000001,0.229,0.715,28.64,2.0,,0.0,0.0,
2025-08-15T09:15:51.538Z,5,GR86-028-89,-91.9,0.157,0.535,30.19,2.0,,0.0,0.0,
2025-08-15T09:15:51.581Z,5,GR86-028-89,-109.3,0.425,1.233,31.0,2.0,,0.0,0.0,
2025-08-15T09:15:51.627Z,5,GR86-028-89,-124.6,0.312,1.101,31.23,2.0,6195.0,0.0,0.0,
2025-08-15T09:15:51.669Z,5,GR86-028-89,-134.4,0.142,0.912,31.19,2.0,,0.0,0.0,100.31
2025-08-15T09:15:51.712Z,5,GR86-028-89,-140.1,0.248,0.965,31.25,2.0,,0.0,0.0,
2025-08-15T09:15:51.755Z,5,GR86-028-89,-135.0,0.446,0.709,31.82,2.0,,0.0,0.0,
2025-08-15T09:15:51.798Z,5,GR86-028-89,-116.5,0.411,0.727,32.09,2.0,,0.0,0.0,
2025-08-15T09:15:51.841Z,5,GR86-028-89,-84.9,0.24,0.678,32.93,2.0,6134.0,0.0,0.0,
2025-08-15T09:15:51.886Z,5,GR86-028-89,-52.1,-0.014,0.794,33.06,2.0,,0.0,0.0,99.58
2025-08-15T09:15:51.928Z,5,GR86-028-89,-21.5,0.13,0.854,32.93,2.0,,0.0,0.0,
2025-08-15T09:15:51.971Z,5,GR86-028-89,3.7,0.302,1.149,33.12,2.0,,0.0,0.0,
2025-08-15T09:15:52.058Z,5,GR86-028-89,75.5,0.141,0.786,33.18,2.0,6053.0,0.0,0.0,
2025-08-15T09:15:52.101Z,5,GR86-028-89,104.3,0.079,0.794,35.88,2.0,,0.0,0.0,100.47
2025-08-15T09:15:52.145Z,5,GR86-028-89,129.4,0.067,0.648,36.99,2.0,,0.0,0.0,
2025-08-15T09:15:52.187Z,5,GR86-028-89,140.4,0.126,0.506,37.0,2.0,,0.0,0.0,
2025-08-15T09:15:52.230Z,5,GR86-028-89,139.4,0.061,0.504,37.12,2.0,,0.0,0.0,
2025-08-15T09:15:52.276Z,5,GR86-028-89,119.7,0.009,0.675,39.58,2.0,5850.0,0.0,0.0,
2025-08-15T09:15:52.362Z,5,GR86-028-89,89.7,0.197,0.935,39.82,2.0,,0.0,0.0,100.73
2025-08-15T09:15:52.405Z,5,GR86-028-89,76.10000000000001,0.332,0.858,39.92,2.0,,0.0,0.0,
