timestamp,lap,vehicle_id,steering_angle,accx_can,accy_can,ath,gear,nmot,pbrake_f,pbrake_r,speed
2025-08-15T02:03:32.918Z,14,GR86-016-55,3.2,0.103,0.062,99.82,5.0,,0.0,0.0,
2025-08-15T02:03:32.961Z,14,GR86-016-55,3.2,0.102,0.068,99.81,5.0,,0.0,0.0,
2025-08-15T02:03:33.004Z,14,GR86-016-55,3.1,0.127,0.077,99.82,5.0,6324.0,0.0,0.0,
2025-08-15T02:03:33.047Z,14,GR86-016-55,3.1,0.123,0.052,99.82,5.0,,0.0,0.0,187.22
2025-08-15T02:03:33.092Z,14,GR86-016-55,3.0,0.11,0.077,99.81,5.0,,0.0,0.0,
2025-08-15T02:03:33.136Z,14,GR86-016-55,3.0,0.097,0.067,99.82,5.0,,0.0,0.0,
2025-08-15T02:03:33.178Z,14,GR86-016-55,3.0,0.1,0.086,99.81,5.0,,0.0,0.0,
2025-08-15T02:03:33.222Z,14,GR86-016-55,3.1,0.105,0.079,99.82,5.0,6377.0,0.0,0.0,
2025-08-15T02:03:33.265Z,14,GR86-016-55,3.1,0.102,0.056,99.82,5.0,,0.0,0.0,187.95
2025-08-15T02:03:33.308Z,14,GR86-016-55,3.1,0.106,0.071,99.82,5.0,,0.0,0.0,
2025-08-15T02:03:33.351Z,14,GR86-016-55,3.1,0.125,0.068,99.83,5.0,,0.0,0.0,
2025-08-15T02:03:33.394Z,14,GR86-016-55,3.1,0.12,0.069,99.82,5.0,,0.0,0.0,
2025-08-15T02:03:33.437Z,14,GR86-016-55,3.1,0.098,0.09,99.81,5.0,6420.0,0.0,0.0,
2025-08-15T02:03:33.480Z,14,GR86-016-55,3.2,0.11,0.094,99.82,5.0,,0.0,0.0,188.65
2025-08-15T02:03:33.523Z,14,GR86-016-55,3.2,0.113,0.073,99.8,5.0,,0.0,0.0,
2025-08-15T02:03:33.566Z,14,GR86-016-55,3.2,0.085,0.097,99.82,5.0,,0.0,0.0,
2025-08-15T02:03:33.609Z,14,GR86-016-55,3.2,0.118,0.103,99.81,5.0,,0.0,0.0,
2025-08-15T02:03:33.652Z,14,GR86-016-55,3.1,0.141,0.067,99.82,5.0,6452.0,0.0,0.0,
2025-08-15T02:03:33.695Z,14,GR86-016-55,2.9000000000000004,0.109,0.035,99.79,5.0,,0.0,0.0,189.4
2025-08-15T02:03:33.738Z,14,GR86-016-55,2.9000000000000004,0.114,0.046,99.83,5.0,,0.0,0.0,
2025-08-15T02:03:33.781Z,14,GR86-016-55,2.8000000000000003,0.115,0.03,99.81,5.0,,0.0,0.0,
2025-08-15T02:03:33.824Z,14,GR86-016-55,2.7,0.102,0.024,99.81,5.0,,0.0,0.0,
2025-08-15T02:03:33.867Z,14,GR86-016-55,2.7,0.113,0.025,99.82,5.0,6464.0,0.0,0.0,
2025-08-15T02:03:33.910Z,14,GR86-016-55,2.6,0.107,-0.007,99.82,5.0,,0.0,0.0,190.07
2025-08-15T02:03:33.953Z,14,GR86-016-55,2.6,0.119,-0.009,99.83,5.0,,0.0,0.0,
2025-08-15T02:03:33.996Z,14,GR86-016-55,2.6,0.103,-0.028,99.81,5.0,,0.0,0.0,
2025-08-15T02:03:34.039Z,14,GR86-016-55,2.6,0.127,-0.019,99.82,5.0,,0.0,0.0,
2025-08-15T02:03:34.082Z,14,GR86-016-55,2.6,0.111,-0.002,99.8,5.0,6497.0,0.0,0.0,
2025-08-15T02:03:34.125Z,14,GR86-016-55,2.6,0.128,-0.001,99.81,5.0,,0.0,0.0,190.77
2025-08-15T02:03:34.168Z,14,GR86-016-55,2.5,0.117,-0.002,99.81,5.0,,0.0,0.0,
2025-08-15T02:03:34.212Z,14,GR86-016-55,2.5,0.093,0.005,99.83,5.0,,0.0,0.0,
2025-08-15T02:03:34.255Z,14,GR86-016-55,2.4000000000000004,0.1,0.022,99.83,5.0,,0.0,0.0,
2025-08-15T02:03:34.298Z,14,GR86-016-55,2.4000000000000004,0.126,0.019,99.81,5.0,6513.0,0.0,0.0,
2025-08-15T02:03:34.341Z,14,GR86-016-55,2.3000000000000003,0.109,0.005,99.81,5.0,,0.0,0.0,191.49
2025-08-15T02:03:34.385Z,14,GR86-016-55,2.4000000000000004,0.116,0.007,99.8,5.0,,0.0,0.0,
2025-08-15T02:03:34.428Z,14,GR86-016-55,2.3000000000000003,0.125,0.022,99.81,5.0,,0.0,0.0,
2025-08-15T02:03:34.471Z,14,GR86-016-55,2.3000000000000003,0.102,0.028,99.82,5.0,,0.0,0.0,
2025-08-15T02:03:34.514Z,14,GR86-016-55,2.3000000000000003,0.09,0.024,99.81,5.0,6531.0,0.0,0.0,
2025-08-15T02:03:34.557Z,14,GR86-016-55,2.2,0.1,0.026,99.81,5.0,,0.0,0.0,192.13
2025-08-15T02:03:34.600Z,14,GR86-016-55,2.1,0.094,0.024,99.8,5.0,,0.0,0.0,
2025-08-15T02:03:34.643Z,14,GR86-016-55,2.1,0.125,0.025,99.81,5.0,,0.0,0.0,
2025-08-15T02:03:34.687Z,14,GR86-016-55,2.1,0.103,0.046,99.81,5.0,,0.0,0.0,
2025-08-15T02:03:34.731Z,14,GR86-016-55,2.0,0.08,0.033,99.83,5.0,6568.0,0.0,0.0,
2025-08-15T02:03:34.775Z,14,GR86-016-55,2.0,0.121,0.004,99.82,5.0,,0.0,0.0,192.88
2025-08-15T02:03:34.818Z,14,GR86-016-55,2.0,0.094,-0.023,99.81,5.0,,0.0,0.0,
2025-08-15T02:03:34.861Z,14,GR86-016-55,2.0,0.107,0.017,99.81,5.0,,0.0,0.0,
2025-08-15T02:03:34.904Z,14,GR86-016-55,2.0,0.105,0.017,99.8,5.0,,0.0,0.0,
2025-08-15T02:03:34.947Z,14,GR86-016-55,2.0,0.087,0.007,99.83,5.0,6594.0,0.0,0.0,
2025-08-15T02:03:34.991Z,14,GR86-016-55,2.0,0.087,-0.007,99.8,5.0,,0.0,0.0,193.6
2025-08-15T02:03:35.034Z,14,GR86-016-55,2.0,0.084,0.007,99.8,5.0,,0.0,0.0,
2025-08-15T02:03:35.077Z,14,GR86-016-55,1.9,0.102,-0.003,99.81,5.0,,0.0,0.0,
2025-08-15T02:03:35.120Z,14,GR86-016-55,1.9,0.091,0.009,99.82,5.0,,0.0,0.0,
2025-08-15T02:03:35.163Z,14,GR86-016-55,2.0,0.08,0.011,99.84,5.0,6617.0,0.0,0.0,
2025-08-15T02:03:35.206Z,14,GR86-016-55,2.0,0.108,0.012,99.8,5.0,,0.0,0.0,194.25
2025-08-15T02:03:35.248Z,14,GR86-016-55,2.0,0.095,-0.004,99.79,5.0,,0.0,0.0,
2025-08-15T02:03:35.292Z,14,GR86-016-55,2.2,0.092,0.012,99.83,5.0,,0.0,0.0,
2025-08-15T02:03:35.335Z,14,GR86-016-55,2.2,0.097,-0.008,99.82,5.0,,0.0,0.0,
2025-08-15T02:03:35.378Z,14,GR86-016-55,2.3000000000000003,0.102,0.029,99.81,5.0,6634.0,0.0,0.0,
2025-08-15T02:03:35.507Z,14,GR86-016-55,2.4000000000000004,0.103,0.03,99.82,5.0,,0.0,0.0,194.92
2025-08-15T02:03:35.550Z,14,GR86-016-55,2.5,0.113,0.037,99.81,5.0,,0.0,0.0,
2025-08-15T02:03:35.592Z,14,GR86-016-55,2.5,0.085,0.101,99.81,5.0,6660.0,0.0,0.0,
2025-08-15T02:03:35.636Z,14,GR86-016-55,2.5,0.101,0.053,99.81,5.0,,0.0,0.0,196.33
2025-08-15T02:03:35.680Z,14,GR86-016-55,2.5,0.108,0.044,99.81,5.0,,0.0,0.0,
2025-08-15T02:03:35.725Z,14,GR86-016-55,2.3000000000000003,0.084,0.057,99.8,5.0,,0.0,0.0,
2025-08-15T02:03:35.768Z,14,GR86-016-55,2.2,0.085,0.052,99.8,5.0,,0.0,0.0,
2025-08-15T02:03:35.811Z,14,GR86-016-55,2.2,0.096,0.074,99.82,5.0,6676.0,0.0,0.0,
2025-08-15T02:03:35.854Z,14,GR86-016-55,2.2,0.091,0.049,99.81,5.0,,0.0,0.0,197.05
2025-08-15T02:03:35.897Z,14,GR86-016-55,2.2,0.114,0.048,99.83,5.0,,0.0,0.0,
2025-08-15T02:03:35.940Z,14,GR86-016-55,2.3000000000000003,0.073,0.048,99.81,5.0,,0.0,0.0,
2025-08-15T02:03:35.986Z,14,GR86-016-55,2.3000000000000003,0.101,0.03,99.83,5.0,,0.0,0.0,
2025-08-15T02:03:36.028Z,14,GR86-016-55,2.3000000000000003,0.094,0.01,99.83,5.0,6697.0,0.0,0.0,
2025-08-15T02:03:36.072Z,14,GR86-016-55,2.1,0.092,0.036,99.81,5.0,,0.0,0.0,197.74
2025-08-15T02:03:36.115Z,14,GR86-016-55,2.0,0.096,0.015,99.81,5.0,,0.0,0.0,
2025-08-15T02:03:36.158Z,14,GR86-016-55,2.0,0.09,0.018,99.81,5.0,,0.0,0.0,
2025-08-15T02:03:36.201Z,14,GR86-016-55,2.0,0.109,-0.003,99.78,5.0,,0.0,0.0,
2025-08-15T02:03:36.244Z,14,GR86-016-55,2.0,0.078,-0.007,99.8,5.0,6748.0,0.0,0.0,
2025-08-15T02:03:36.287Z,14,GR86-016-55,2.0,0.107,0.005,99.78,5.0,,0.0,0.0,198.41
2025-08-15T02:03:36.332Z,14,GR86-016-55,2.0,0.085,-0.025,99.81,5.0,,0.0,0.0,
2025-08-15T02:03:36.375Z,14,GR86-016-55,2.0,0.086,-0.028,99.82,5.0,,0.0,0.0,
2025-08-15T02:03:36.418Z,14,GR86-016-55,1.9,0.102,-0.006,99.83,5.0,,0.0,0.0,
2025-08-15T02:03:36.461Z,14,GR86-016-55,1.9,0.086,-0.023,99.82,5.0,6778.0,0.0,0.0,
2025-08-15T02:03:36.505Z,14,GR86-016-55,1.9,0.103,-0.013,99.79,5.0,,0.0,0.0,198.99
2025-08-15T02:03:36.548Z,14,GR86-016-55,1.9,0.103,-0.03,99.79,5.0,,0.0,0.0,
2025-08-15T02:03:36.591Z,14,GR86-016-55,1.9,0.084,-0.023,99.82,5.0,,0.0,0.0,
2025-08-15T02:03:36.635Z,14,GR86-016-55,1.9,0.089,-0.027,99.79,5.0,,0.0,0.0,
2025-08-15T02:03:36.678Z,14,GR86-016-55,2.0,0.091,0.005,99.8,5.0,6790.0,0.0,0.0,
2025-08-15T02:03:36.721Z,14,GR86-016-55,2.1,0.1,-0.005,99.81,5.0,,0.0,0.0,199.66
2025-08-15T02:03:36.764Z,14,GR86-016-55,2.2,0.091,0.008,99.82,5.0,,0.0,0.0,
2025-08-15T02:03:36.807Z,14,GR86-016-55,2.2,0.081,-0.009,99.79,5.0,,0.0,0.0,
2025-08-15T02:03:36.850Z,14,GR86-016-55,2.1,0.091,0.031,99.81,5.0,,0.0,0.0,
2025-08-15T02:03:36.892Z,14,GR86-016-55,2.0,0.092,0.008,99.83,5.0,6811.0,0.0,0.0,
2025-08-15T02:03:36.936Z,14,GR86-016-55,2.1,0.097,0.017,99.81,5.0,,0.0,0.0,200.46
2025-08-15T02:03:36.979Z,14,GR86-016-55,2.1,0.085,0.035,99.82,5.0,,0.0,0.0,
2025-08-15T02:03:37.022Z,14,GR86-016-55,2.1,0.079,0.02,99.81,5.0,,0.0,0.0,
2025-08-15T02:03:37.065Z,14,GR86-016-55,2.1,0.078,0.022,99.81,5.0,,0.0,0.0,
2025-08-15T02:03:37.108Z,14,GR86-016-55,2.0,0.084,0.019,99.81,5.0,6846.0,0.0,0.0,
2025-08-15T02:03:37.151Z,14,GR86-016-55,2.1,0.097,0.039,99.83,5.0,,0.0,0.0,201.16
2025-08-15T02:03:37.194Z,14,GR86-016-55,2.1,0.085,0.028,99.8,5.0,,0.0,0.0,
2025-08-15T02:03:37.237Z,14,GR86-016-55,2.2,0.077,0.027,99.8,5.0,,0.0,0.0,
2025-08-15T02:03:37.280Z,14,GR86-016-55,2.2,0.096,0.018,99.79,5.0,,0.0,0.0,
2025-08-15T02:03:37.323Z,14,GR86-016-55,2.1,0.065,0.03,99.82,5.0,6867.0,0.0,0.0,
2025-08-15T02:03:37.409Z,14,GR86-016-55,2.2,0.089,0.047,99.82,5.0,,0.0,0.0,201.81
2025-08-15T02:03:37.452Z,14,GR86-016-55,2.3000000000000003,0.072,-0.003,99.83,5.0,,0.0,0.0,
2025-08-15T02:03:37.495Z,14,GR86-016-55,2.4000000000000004,0.077,0.03,99.82,5.0,,0.0,0.0,
2025-08-15T02:03:37.538Z,14,GR86-016-55,2.5,0.081,0.018,99.8,5.0,6893.0,0.0,0.0,
2025-08-15T02:03:37.581Z,14,GR86-016-55,2.6,0.077,0.051,99.82,5.0,,0.0,0.0,202.54
2025-08-15T02:03:37.624Z,14,GR86-016-55,2.7,0.102,0.046,99.81,5.0,,0.0,0.0,
2025-08-15T02:03:37.667Z,14,GR86-016-55,2.8000000000000003,0.097,0.072,99.82,5.0,,0.0,0.0,
2025-08-15T02:03:37.710Z,14,GR86-016-55,2.9000000000000004,0.086,0.068,99.81,5.0,,0.0,0.0,
2025-08-15T02:03:37.753Z,14,GR86-016-55,3.0,0.072,0.083,99.82,5.0,6906.0,0.0,0.0,
2025-08-15T02:03:37.796Z,14,GR86-016-55,3.0,0.079,0.089,99.79,5.0,,0.0,0.0,203.22
2025-08-15T02:03:37.840Z,14,GR86-016-55,3.1,0.074,0.103,99.82,5.0,,0.0,0.0,
2025-08-15T02:03:37.883Z,14,GR86-016-55,3.0,0.078,0.086,99.82,5.0,,0.0,0.0,
2025-08-15T02:03:37.926Z,14,GR86-016-55,3.0,0.067,0.093,99.81,5.0,,0.0,0.0,
2025-08-15T02:03:37.969Z,14,GR86-016-55,3.0,0.071,0.075,99.82,5.0,6941.0,0.0,0.0,
2025-08-15T02:03:38.012Z,14,GR86-016-55,3.0,0.087,0.077,99.79,5.0,,0.0,0.0,203.92
2025-08-15T02:03:38.055Z,14,GR86-016-55,3.0,0.072,0.066,99.82,5.0,,0.0,0.0,
2025-08-15T02:03:38.098Z,14,GR86-016-55,3.1,0.072,0.081,99.8,5.0,,0.0,0.0,
2025-08-15T02:03:38.141Z,14,GR86-016-55,3.5,0.069,0.064,99.79,5.0,,0.0,0.0,
2025-08-15T02:03:38.186Z,14,GR86-016-55,4.7,0.062,0.084,99.8,5.0,6953.0,0.0,0.0,
2025-08-15T02:03:38.228Z,14,GR86-016-55,5.2,0.088,0.102,99.8,5.0,,0.0,0.0,204.57
2025-08-15T02:03:38.272Z,14,GR86-016-55,5.1000000000000005,0.076,0.134,99.83,5.0,,0.0,0.0,
2025-08-15T02:03:38.315Z,14,GR86-016-55,5.2,0.072,0.143,99.81,5.0,,0.0,0.0,
2025-08-15T02:03:38.358Z,14,GR86-016-55,5.1000000000000005,0.07,0.152,99.82,5.0,,0.0,0.0,
2025-08-15T02:03:38.401Z,14,GR86-016-55,5.1000000000000005,0.092,0.196,99.82,5.0,6976.0,0.0,0.0,
2025-08-15T02:03:38.444Z,14,GR86-016-55,4.9,0.073,0.177,99.82,5.0,,0.0,0.0,205.74
2025-08-15T02:03:38.487Z,14,GR86-016-55,4.9,0.107,0.214,99.82,5.0,,0.0,0.0,
2025-08-15T02:03:38.532Z,14,GR86-016-55,4.7,0.08,0.145,99.8,5.0,,0.0,0.0,
2025-08-15T02:03:38.575Z,14,GR86-016-55,4.5,0.074,0.155,99.79,5.0,,0.0,0.0,
2025-08-15T02:03:38.618Z,14,GR86-016-55,4.5,0.073,0.155,99.79,5.0,6984.0,0.0,0.0,
2025-08-15T02:03:38.661Z,14,GR86-016-55,4.4,0.057,0.126,99.83,5.0,,0.0,0.0,206.38
2025-08-15T02:03:38.704Z,14,GR86-016-55,4.3,0.095,0.125,99.78,5.0,,0.0,0.0,
2025-08-15T02:03:38.747Z,14,GR86-016-55,4.3,0.076,0.072,99.8,5.0,,0.0,0.0,
2025-08-15T02:03:38.790Z,14,GR86-016-55,4.2,0.068,0.075,99.82,5.0,,0.0,0.0,
2025-08-15T02:03:38.835Z,14,GR86-016-55,4.2,0.072,0.065,99.83,5.0,7028.0,0.0,0.0,
2025-08-15T02:03:38.878Z,14,GR86-016-55,4.1000000000000005,0.068,0.057,99.79,5.0,,0.0,0.0,206.92
2025-08-15T02:03:38.921Z,14,GR86-016-55,4.1000000000000005,0.068,0.049,99.81,5.0,,0.0,0.0,
2025-08-15T02:03:38.964Z,14,GR86-016-55,4.1000000000000005,0.079,0.047,99.79,5.0,,0.0,0.0,
2025-08-15T02:03:39.007Z,14,GR86-016-55,4.1000000000000005,0.056,0.063,99.81,5.0,,0.0,0.0,
2025-08-15T02:03:39.050Z,14,GR86-016-55,4.0,0.092,0.06,99.84,5.0,7037.0,0.0,0.0,
2025-08-15T02:03:39.094Z,14,GR86-016-55,4.0,0.082,0.093,99.8,5.0,,0.0,0.0,207.42
2025-08-15T02:03:39.137Z,14,GR86-016-55,4.0,0.086,0.062,99.82,5.0,,0.0,0.0,
2025-08-15T02:03:39.180Z,14,GR86-016-55,3.9,0.091,0.069,99.82,5.0,,0.0,0.0,
2025-08-15T02:03:39.223Z,14,GR86-016-55,3.9,0.068,0.062,99.79,5.0,,0.0,0.0,
2025-08-15T02:03:39.266Z,14,GR86-016-55,3.8,0.093,0.072,99.82,5.0,7060.0,0.0,0.0,
2025-08-15T02:03:39.308Z,14,GR86-016-55,3.7,0.085,0.105,99.79,5.0,,0.0,0.0,207.88
2025-08-15T02:03:39.352Z,14,GR86-016-55,3.6,0.081,0.097,99.84,5.0,,0.0,0.0,
2025-08-15T02:03:39.395Z,14,GR86-016-55,3.5,0.09,0.094,99.82,5.0,,0.0,0.0,
2025-08-15T02:03:39.438Z,14,GR86-016-55,3.0,0.096,0.052,99.8,5.0,,0.0,0.0,
2025-08-15T02:03:39.481Z,14,GR86-016-55,2.6,0.093,0.002,99.79,5.0,7077.0,0.0,0.0,
2025-08-15T02:03:39.524Z,14,GR86-016-55,2.5,0.095,0.038,99.79,5.0,,0.0,0.0,208.34
2025-08-15T02:03:39.567Z,14,GR86-016-55,2.4000000000000004,0.076,0.025,99.82,5.0,,0.0,0.0,
2025-08-15T02:03:39.610Z,14,GR86-016-55,2.3000000000000003,0.091,0.009,99.79,5.0,,0.0,0.0,
2025-08-15T02:03:39.653Z,14,GR86-016-55,2.3000000000000003,0.101,-0.021,99.8,5.0,,0.0,0.0,
2025-08-15T02:03:39.696Z,14,GR86-016-55,2.3000000000000003,0.092,-0.02,99.79,5.0,7100.0,0.0,0.0,
2025-08-15T02:03:39.739Z,14,GR86-016-55,2.3000000000000003,0.098,-0.035,99.82,5.0,,0.0,0.0,208.94
2025-08-15T02:03:39.782Z,14,GR86-016-55,2.3000000000000003,0.065,-0.038,99.81,5.0,,11.155,11.34,
2025-08-15T02:03:39.826Z,14,GR86-016-55,2.2,0.038,-0.029,99.81,5.0,,18.77,18.955,
2025-08-15T02:03:39.868Z,14,GR86-016-55,2.2,-0.079,-0.078,99.8,5.0,,14.42,15.09,
2025-08-15T02:03:39.912Z,14,GR86-016-55,2.2,-0.011,-0.066,99.8,5.0,7132.0,3.585,4.305,
2025-08-15T02:03:39.955Z,14,GR86-016-55,2.1,0.058,-0.081,99.82,5.0,,0.0,0.0,209.41
2025-08-15T02:03:39.998Z,14,GR86-016-55,2.1,0.098,-0.037,99.82,5.0,,0.0,0.0,
2025-08-15T02:03:40.041Z,14,GR86-016-55,2.1,0.083,-0.048,99.81,5.0,,0.0,0.0,
2025-08-15T02:03:40.085Z,14,GR86-016-55,2.0,0.072,-0.046,99.79,5.0,,0.0,0.0,
2025-08-15T02:03:40.128Z,14,GR86-016-55,2.0,0.078,-0.03,99.78,5.0,7146.0,0.0,0.0,
2025-08-15T02:03:40.171Z,14,GR86-016-55,2.0,0.09,-0.041,99.78,5.0,,0.0,0.0,210.05
2025-08-15T02:03:40.214Z,14,GR86-016-55,2.0,0.086,-0.006,99.79,5.0,,0.0,0.0,
2025-08-15T02:03:40.258Z,14,GR86-016-55,2.0,0.089,-0.023,99.82,5.0,,0.0,0.0,
2025-08-15T02:03:40.301Z,14,GR86-016-55,2.0,0.083,-0.005,99.81,5.0,,0.0,0.0,
2025-08-15T02:03:40.344Z,14,GR86-016-55,2.0,0.078,0.014,99.82,5.0,7138.0,0.0,0.0,
2025-08-15T02:03:40.387Z,14,GR86-016-55,2.1,0.092,0.017,99.79,5.0,,0.0,0.0,209.94
2025-08-15T02:03:40.432Z,14,GR86-016-55,2.0,0.092,0.017,99.82,5.0,,0.0,0.0,
2025-08-15T02:03:40.475Z,14,GR86-016-55,1.9,0.078,0.042,99.79,5.0,,0.0,0.0,
2025-08-15T02:03:40.518Z,14,GR86-016-55,1.7000000000000002,0.096,0.038,99.81,5.0,,0.0,0.0,
2025-08-15T02:03:40.561Z,14,GR86-016-55,1.5,0.086,0.037,99.79,5.0,7156.0,0.0,0.0,
2025-08-15T02:03:40.604Z,14,GR86-016-55,0.7000000000000001,0.082,0.027,99.81,5.0,,0.0,0.0,210.66
2025-08-15T02:03:40.647Z,14,GR86-016-55,0.0,0.09,-0.011,99.83,5.0,,0.0,0.0,
2025-08-15T02:03:40.690Z,14,GR86-016-55,-0.1,0.066,-0.051,99.81,5.0,,0.0,0.0,
2025-08-15T02:03:40.734Z,14,GR86-016-55,0.4,0.09,-0.057,99.82,5.0,,0.0,0.0,
2025-08-15T02:03:40.778Z,14,GR86-016-55,1.4,0.088,-0.026,99.79,5.0,7181.0,0.0,0.0,
2025-08-15T02:03:40.821Z,14,GR86-016-55,1.6,0.075,-0.055,99.8,5.0,,0.0,0.0,211.29
2025-08-15T02:03:40.864Z,14,GR86-016-55,1.6,0.079,-0.054,99.81,5.0,,0.0,0.0,
2025-08-15T02:03:40.907Z,14,GR86-016-55,1.5,0.074,-0.055,99.81,5.0,,0.0,0.0,
2025-08-15T02:03:40.950Z,14,GR86-016-55,1.3,0.095,-0.005,99.81,5.0,,0.0,0.0,
2025-08-15T02:03:40.993Z,14,GR86-016-55,1.3,0.065,-0.001,99.82,5.0,7196.0,0.0,0.0,
2025-08-15T02:03:41.036Z,14,GR86-016-55,1.2000000000000002,0.083,-0.003,99.82,5.0,,0.0,0.0,212.54
2025-08-15T02:03:41.079Z,14,GR86-016-55,1.2000000000000002,0.069,0.045,99.79,5.0,,0.0,0.0,
2025-08-15T02:03:41.122Z,14,GR86-016-55,1.2000000000000002,0.086,0.01,99.79,5.0,,0.0,0.0,
2025-08-15T02:03:41.165Z,14,GR86-016-55,1.0,0.076,-0.012,99.81,5.0,,0.0,0.0,
2025-08-15T02:03:41.208Z,14,GR86-016-55,-0.1,0.064,-0.024,99.86,5.0,7215.0,0.0,0.0,
2025-08-15T02:03:41.251Z,14,GR86-016-55,-1.1,0.077,-0.069,99.79,5.0,,0.0,0.0,213.05
2025-08-15T02:03:41.294Z,14,GR86-016-55,-1.1,0.08,-0.083,99.81,5.0,,0.0,0.0,
2025-08-15T02:03:41.380Z,14,GR86-016-55,-1.1,0.07,-0.131,99.79,5.0,,0.0,0.0,
2025-08-15T02:03:41.424Z,14,GR86-016-55,2.7,0.017,-0.1,77.4,5.0,7230.0,31.36,31.115,
2025-08-15T02:03:41.467Z,14,GR86-016-55,6.7,-0.343,-0.099,6.7700000000000005,5.0,,57.09,56.46,213.52
2025-08-15T02:03:41.510Z,14,GR86-016-55,8.9,-1.033,-0.068,4.34,5.0,,83.93,83.045,
2025-08-15T02:03:41.553Z,14,GR86-016-55,9.1,-1.456,-0.069,4.19,5.0,,96.17,95.865,
2025-08-15T02:03:41.596Z,14,GR86-016-55,9.2,-1.274,-0.002,3.87,5.0,,101.495,103.035,
2025-08-15T02:03:41.638Z,14,GR86-016-55,9.2,-1.247,0.026,3.39,5.0,7286.0,102.975,103.965,
2025-08-15T02:03:41.682Z,14,GR86-016-55,9.9,-1.469,0.005,3.06,5.0,,101.86,102.655,213.92
2025-08-15T02:03:41.725Z,14,GR86-016-55,10.3,-1.258,0.14,2.9,5.0,,101.71,103.785,
2025-08-15T02:03:41.768Z,14,GR86-016-55,10.3,-1.317,0.063,2.84,5.0,,99.83,99.955,
2025-08-15T02:03:41.811Z,14,GR86-016-55,6.7,-1.181,0.123,2.78,5.0,,97.13,98.46,
2025-08-15T02:03:41.854Z,14,GR86-016-55,2.5,-1.232,0.064,2.71,5.0,6560.0,97.07,98.09,
2025-08-15T02:03:41.897Z,14,GR86-016-55,1.7000000000000002,-1.406,0.051,2.68,5.0,,98.305,98.425,207.25
2025-08-15T02:03:41.940Z,14,GR86-016-55,1.7000000000000002,-1.249,0.054,2.67,5.0,,93.36,95.24,
2025-08-15T02:03:41.986Z,14,GR86-016-55,1.7000000000000002,-1.379,0.053,2.62,5.0,,84.71000000000001,86.555,
2025-08-15T02:03:42.028Z,14,GR86-016-55,0.5,-1.222,0.035,2.61,5.0,,81.33500000000001,82.33,
2025-08-15T02:03:42.072Z,14,GR86-016-55,-1.1,-1.281,-0.065,2.58,5.0,6434.0,82.555,83.93,
2025-08-15T02:03:42.115Z,14,GR86-016-55,-1.0,-1.329,-0.116,2.58,5.0,,82.71000000000001,83.275,197.77
2025-08-15T02:03:42.158Z,14,GR86-016-55,2.0,-1.223,-0.125,12.41,5.0,,82.435,83.215,
2025-08-15T02:03:42.201Z,14,GR86-016-55,7.1000000000000005,-1.266,-0.171,52.53,5.0,,83.87,85.15,
2025-08-15T02:03:42.244Z,14,GR86-016-55,13.5,-1.257,-0.2,92.34,4.0,,85.775,87.365,
2025-08-15T02:03:42.287Z,14,GR86-016-55,19.1,-1.279,-0.19,49.82,4.0,6048.0,86.74,87.775,
2025-08-15T02:03:42.332Z,14,GR86-016-55,20.700000000000003,-1.188,-0.128,2.78,4.0,,87.18,88.89,188.04
2025-08-15T02:03:42.375Z,14,GR86-016-55,20.6,-1.118,-0.259,2.78,4.0,,81.12,81.81,
2025-08-15T02:03:42.418Z,14,GR86-016-55,20.700000000000003,-1.253,-0.275,2.77,4.0,,77.52,78.27,
2025-08-15T02:03:42.461Z,14,GR86-016-55,20.9,-1.126,-0.118,2.74,4.0,,79.215,80.495,
2025-08-15T02:03:42.505Z,14,GR86-016-55,20.9,-1.102,-0.242,2.74,4.0,5804.0,74.775,75.78,
2025-08-15T02:03:42.548Z,14,GR86-016-55,20.8,-1.103,-0.237,2.74,4.0,,68.565,68.96000000000001,179.73
2025-08-15T02:03:42.591Z,14,GR86-016-55,8.700000000000001,-1.139,-0.093,2.71,4.0,,66.455,67.205,
2025-08-15T02:03:42.634Z,14,GR86-016-55,-0.9,-1.157,-0.165,2.71,4.0,,67.175,67.665,
2025-08-15T02:03:42.677Z,14,GR86-016-55,-7.0,-1.173,-0.176,2.68,4.0,,66.67,66.76,
2025-08-15T02:03:42.720Z,14,GR86-016-55,-8.3,-1.189,-0.247,18.02,4.0,6353.0,66.52,66.76,
2025-08-15T02:03:42.763Z,14,GR86-016-55,-8.200000000000001,-1.195,-0.24,52.36,3.0,,66.185,67.39,173.46
2025-08-15T02:03:42.806Z,14,GR86-016-55,-3.8,-1.243,-0.253,6.82,3.0,,59.39,60.735,
2025-08-15T02:03:42.849Z,14,GR86-016-55,1.7000000000000002,-1.018,-0.107,4.55,3.0,,47.84,49.23,
2025-08-15T02:03:42.892Z,14,GR86-016-55,3.7,-0.851,-0.317,4.38,3.0,,36.805,37.615,
2025-08-15T02:03:42.935Z,14,GR86-016-55,3.7,-1.017,-0.217,4.16,3.0,6205.0,36.06,36.87,
2025-08-15T02:03:42.978Z,14,GR86-016-55,-0.4,-0.91,-0.319,3.74,3.0,,39.4,39.995,165.3
2025-08-15T02:03:43.021Z,14,GR86-016-55,-5.300000000000001,-0.957,-0.614,3.13,3.0,,39.815,40.24,
2025-08-15T02:03:43.064Z,14,GR86-016-55,-9.5,-0.904,-0.513,2.9,3.0,,40.15,40.925,
2025-08-15T02:03:43.107Z,14,GR86-016-55,-11.3,-0.8170000000000001,-0.559,2.79,3.0,,41.14,41.89,
2025-08-15T02:03:43.150Z,14,GR86-016-55,-11.2,-0.811,-0.664,2.68,3.0,6347.0,34.15,35.085,
2025-08-15T02:03:43.192Z,14,GR86-016-55,-15.8,-0.751,-0.679,2.65,3.0,,30.795,31.74,157.1
2025-08-15T02:03:43.237Z,14,GR86-016-55,-20.8,-0.784,-0.792,2.62,3.0,,30.58,31.025,
2025-08-15T02:03:43.280Z,14,GR86-016-55,-21.3,-0.729,-0.841,2.62,3.0,,31.145,31.83,
2025-08-15T02:03:43.323Z,14,GR86-016-55,-11.7,-0.749,-0.885,2.59,3.0,,30.245,30.995,
2025-08-15T02:03:43.366Z,14,GR86-016-55,0.7000000000000001,-0.67,-0.865,2.58,3.0,6678.0,25.24,26.2,
2025-08-15T02:03:43.408Z,14,GR86-016-55,8.700000000000001,-0.7020000000000001,-0.6930000000000001,2.58,3.0,,21.0,21.56,151.63
2025-08-15T02:03:43.452Z,14,GR86-016-55,11.4,-0.5660000000000001,-0.685,2.56,3.0,,15.06,15.75,
2025-08-15T02:03:43.538Z,14,GR86-016-55,2.3000000000000003,-0.404,-0.714,2.54,3.0,,8.455,9.125,
2025-08-15T02:03:43.581Z,14,GR86-016-55,-37.7,-0.226,-0.973,2.53,3.0,6455.0,0.0,0.0,
2025-08-15T02:03:43.624Z,14,GR86-016-55,-48.2,-0.195,-1.023,2.52,3.0,,0.0,0.0,146.21
2025-08-15T02:03:43.667Z,14,GR86-016-55,-48.0,-0.177,-1.044,2.53,3.0,,0.0,0.0,
2025-08-15T02:03:43.710Z,14,GR86-016-55,-33.300000000000004,-0.197,-1.059,2.52,3.0,,0.0,0.0,
2025-08-15T02:03:43.754Z,14,GR86-016-55,-32.6,-0.162,-0.989,2.52,3.0,,0.0,0.0,
2025-08-15T02:03:43.797Z,14,GR86-016-55,-38.3,-0.182,-1.015,2.52,3.0,6300.0,0.0,0.0,
2025-08-15T02:03:43.840Z,14,GR86-016-55,-45.0,-0.19,-1.042,2.52,3.0,,0.0,0.0,138.05
2025-08-15T02:03:43.883Z,14,GR86-016-55,-46.5,-0.162,-1.022,2.51,3.0,,0.0,0.0,
2025-08-15T02:03:43.926Z,14,GR86-016-55,-45.5,-0.168,-1.066,2.5,3.0,,0.0,0.0,
2025-08-15T02:03:43.969Z,14,GR86-016-55,-41.7,-0.192,-1.135,2.51,3.0,,0.0,0.0,
2025-08-15T02:03:44.012Z,14,GR86-016-55,-34.0,-0.179,-1.145,2.49,3.0,6271.0,0.0,0.0,
2025-08-15T02:03:44.055Z,14,GR86-016-55,-30.4,-0.205,-1.194,2.49,3.0,,0.0,0.0,136.42000000000002
2025-08-15T02:03:44.098Z,14,GR86-016-55,-28.200000000000003,-0.168,-1.133,2.49,3.0,,0.0,0.0,
2025-08-15T02:03:44.141Z,14,GR86-016-55,-26.700000000000003,-0.168,-1.145,2.5,3.0,,0.0,0.0,
2025-08-15T02:03:44.187Z,14,GR86-016-55,-25.700000000000003,-0.171,-1.206,2.51,3.0,,0.0,0.0,
2025-08-15T02:03:44.232Z,14,GR86-016-55,-26.3,-0.162,-1.186,16.3,3.0,6155.0,0.0,0.0,
2025-08-15T02:03:44.275Z,14,GR86-016-55,-28.1,-0.19,-1.177,25.09,3.0,,0.0,0.0,135.22
2025-08-15T02:03:44.318Z,14,GR86-016-55,-31.0,-0.157,-1.151,29.54,3.0,,0.0,0.0,
2025-08-15T02:03:44.361Z,14,GR86-016-55,-37.6,-0.102,-1.173,33.660000000000004,3.0,,0.0,0.0,
2025-08-15T02:03:44.404Z,14,GR86-016-55,-48.0,-0.126,-1.302,36.87,3.0,,0.0,0.0,
2025-08-15T02:03:44.447Z,14,GR86-016-55,-57.900000000000006,-0.121,-1.315,37.11,3.0,6088.0,0.0,0.0,
2025-08-15T02:03:44.492Z,14,GR86-016-55,-63.2,0.218,-1.242,37.04,3.0,,0.0,0.0,134.14
2025-08-15T02:03:44.535Z,14,GR86-016-55,-63.0,0.163,-1.226,37.18,3.0,,0.0,0.0,
2025-08-15T02:03:44.579Z,14,GR86-016-55,-62.400000000000006,0.092,-1.119,37.39,3.0,,0.0,0.0,
2025-08-15T02:03:44.622Z,14,GR86-016-55,-62.7,0.018,-1.196,37.93,3.0,,0.0,0.0,
2025-08-15T02:03:44.665Z,14,GR86-016-55,-62.7,0.025,-1.168,38.04,3.0,6318.0,0.0,0.0,
2025-08-15T02:03:44.708Z,14,GR86-016-55,-62.400000000000006,0.033,-1.3,38.17,3.0,,0.0,0.0,132.68
2025-08-15T02:03:44.751Z,14,GR86-016-55,-61.7,0.067,-1.091,39.3,3.0,,0.0,0.0,
2025-08-15T02:03:44.795Z,14,GR86-016-55,-61.400000000000006,0.018,-1.07,42.12,3.0,,0.0,0.0,
2025-08-15T02:03:44.838Z,14,GR86-016-55,-60.5,-0.121,-1.025,51.35,3.0,,0.0,0.0,
2025-08-15T02:03:44.881Z,14,GR86-016-55,-58.8,-0.106,-1.155,60.45,3.0,6218.0,0.0,0.0,
2025-08-15T02:03:44.924Z,14,GR86-016-55,-56.1,0.037,-0.995,69.02,3.0,,0.0,0.0,132.03
2025-08-15T02:03:44.967Z,14,GR86-016-55,-52.7,0.193,-1.028,97.37,3.0,,0.0,0.0,
2025-08-15T02:03:45.010Z,14,GR86-016-55,-46.6,0.08,-1.243,99.76,3.0,,0.0,0.0,
2025-08-15T02:03:45.053Z,14,GR86-016-55,-44.0,0.074,-1.415,99.78,3.0,,0.0,0.0,
2025-08-15T02:03:45.096Z,14,GR86-016-55,-44.0,0.317,-1.304,99.78,3.0,6295.0,0.0,0.0,
2025-08-15T02:03:45.139Z,14,GR86-016-55,-43.8,0.257,-1.31,99.78,3.0,,0.0,0.0,132.67000000000002
2025-08-15T02:03:45.182Z,14,GR86-016-55,-43.400000000000006,0.21,-1.099,99.78,3.0,,0.0,0.0,
2025-08-15T02:03:45.225Z,14,GR86-016-55,-42.8,0.068,-1.092,99.78,3.0,,0.0,0.0,
2025-08-15T02:03:45.268Z,14,GR86-016-55,-42.2,0.094,-0.982,99.79,3.0,,0.0,0.0,
2025-08-15T02:03:45.312Z,14,GR86-016-55,-42.2,0.158,-0.89,99.8,3.0,6456.0,0.0,0.0,
2025-08-15T02:03:45.355Z,14,GR86-016-55,-42.2,0.292,-1.154,99.79,3.0,,0.0,0.0,132.86
2025-08-15T02:03:45.398Z,14,GR86-016-55,-43.0,0.274,-1.438,99.78,3.0,,0.0,0.0,
2025-08-15T02:03:45.441Z,14,GR86-016-55,-44.900000000000006,0.279,-1.433,99.79,3.0,,0.0,0.0,
2025-08-15T02:03:45.484Z,14,GR86-016-55,-47.3,0.079,-1.407,99.78,3.0,,0.0,0.0,
2025-08-15T02:03:45.527Z,14,GR86-016-55,-50.5,0.049,-1.365,99.78,3.0,6609.0,0.0,0.0,
2025-08-15T02:03:45.570Z,14,GR86-016-55,-55.2,0.215,-1.125,38.5,3.0,,0.0,0.0,133.73
2025-08-15T02:03:45.613Z,14,GR86-016-55,-58.6,0.218,-1.103,34.09,3.0,,0.0,0.0,
2025-08-15T02:03:45.656Z,14,GR86-016-55,-62.3,0.212,-1.17,32.87,3.0,,0.0,0.0,
2025-08-15T02:03:45.698Z,14,GR86-016-55,-65.7,0.108,-1.163,32.61,3.0,,0.0,0.0,
2025-08-15T02:03:45.742Z,14,GR86-016-55,-67.10000000000001,0.033,-1.21,34.77,3.0,6449.0,0.0,0.0,
2025-08-15T02:03:45.785Z,14,GR86-016-55,-67.4,0.01,-1.206,58.97,3.0,,0.0,0.0,133.27
2025-08-15T02:03:45.828Z,14,GR86-016-55,-68.0,0.067,-1.248,98.02,3.0,,0.0,0.0,
2025-08-15T02:03:45.871Z,14,GR86-016-55,-69.3,0.149,-1.256,99.78,3.0,,0.0,0.0,
2025-08-15T02:03:45.914Z,14,GR86-016-55,-70.0,0.17,-1.212,99.78,3.0,,0.0,0.0,
2025-08-15T02:03:45.958Z,14,GR86-016-55,-70.9,0.153,-1.104,99.78,3.0,6487.0,0.0,0.0,
2025-08-15T02:03:46.001Z,14,GR86-016-55,-71.60000000000001,0.14,-1.059,99.75,3.0,,0.0,0.0,133.31
2025-08-15T02:03:46.044Z,14,GR86-016-55,-72.10000000000001,0.133,-1.052,99.78,3.0,,0.0,0.0,
2025-08-15T02:03:46.087Z,14,GR86-016-55,-72.2,0.138,-1.128,76.93,3.0,,0.0,0.0,
2025-08-15T02:03:46.132Z,14,GR86-016-55,-72.2,0.147,-1.193,3.27,3.0,,0.0,0.0,
2025-08-15T02:03:46.175Z,14,GR86-016-55,-72.10000000000001,0.143,-1.144,15.92,3.0,6398.0,0.0,0.0,
2025-08-15T02:03:46.218Z,14,GR86-016-55,-71.9,-0.002,-1.168,41.84,3.0,,0.0,0.0,133.42000000000002
2025-08-15T02:03:46.261Z,14,GR86-016-55,-71.60000000000001,-0.114,-1.163,77.51,3.0,,0.0,0.0,
2025-08-15T02:03:46.304Z,14,GR86-016-55,-71.10000000000001,-0.111,-1.244,99.61,3.0,,0.0,0.0,
2025-08-15T02:03:46.347Z,14,GR86-016-55,-70.60000000000001,-0.127,-1.274,99.75,3.0,,0.0,0.0,
2025-08-15T02:03:46.390Z,14,GR86-016-55,-69.2,0.192,-1.231,99.79,3.0,6390.0,0.0,0.0,
2025-08-15T02:03:46.434Z,14,GR86-016-55,-67.4,0.225,-1.219,99.77,3.0,,0.0,0.0,135.02
2025-08-15T02:03:46.477Z,14,GR86-016-55,-65.10000000000001,0.194,-1.189,99.78,3.0,,0.0,0.0,
2025-08-15T02:03:46.520Z,14,GR86-016-55,-63.900000000000006,0.186,-1.172,99.78,3.0,,0.0,0.0,
2025-08-15T02:03:46.563Z,14,GR86-016-55,-63.900000000000006,0.148,-1.191,99.78,3.0,,0.0,0.0,
2025-08-15T02:03:46.606Z,14,GR86-016-55,-63.900000000000006,0.141,-1.145,99.78,3.0,6238.0,0.0,0.0,
2025-08-15T02:03:46.649Z,14,GR86-016-55,-63.5,0.158,-1.126,99.77,3.0,,0.0,0.0,135.16
2025-08-15T02:03:46.692Z,14,GR86-016-55,-63.1,0.147,-0.86,99.79,3.0,,0.0,0.0,
2025-08-15T02:03:46.735Z,14,GR86-016-55,-62.7,0.133,-0.765,99.78,3.0,,0.0,0.0,
2025-08-15T02:03:46.778Z,14,GR86-016-55,-63.0,0.036,-0.645,95.87,3.0,,0.0,0.0,
2025-08-15T02:03:46.821Z,14,GR86-016-55,-62.900000000000006,0.028,-0.838,99.32,3.0,6562.0,0.0,0.0,
2025-08-15T02:03:46.864Z,14,GR86-016-55,-62.400000000000006,0.113,-0.665,99.71,3.0,,0.0,0.0,136.01
2025-08-15T02:03:46.907Z,14,GR86-016-55,-60.5,0.18,-0.5650000000000001,99.78,3.0,,0.0,0.0,
2025-08-15T02:03:46.950Z,14,GR86-016-55,-55.2,0.091,-0.88,99.79,3.0,,0.0,0.0,
2025-08-15T02:03:46.993Z,14,GR86-016-55,-46.6,0.053,-0.973,99.78,3.0,,0.0,0.0,
2025-08-15T02:03:47.036Z,14,GR86-016-55,-37.1,0.161,-1.325,99.79,3.0,6556.0,0.0,0.0,
2025-08-15T02:03:47.080Z,14,GR86-016-55,-23.8,0.22,-1.309,99.78,3.0,,0.0,0.0,136.0
2025-08-15T02:03:47.125Z,14,GR86-016-55,-19.6,0.113,-1.254,99.78,3.0,,0.0,0.0,
2025-08-15T02:03:47.168Z,14,GR86-016-55,-26.8,0.153,-1.099,99.76,3.0,,0.0,0.0,
2025-08-15T02:03:47.211Z,14,GR86-016-55,-37.1,0.114,-1.309,99.8,3.0,,0.0,0.0,
2025-08-15T02:03:47.254Z,14,GR86-016-55,-34.1,0.192,-1.486,99.79,3.0,6777.0,0.0,0.0,
2025-08-15T02:03:47.297Z,14,GR86-016-55,-21.4,0.196,-1.533,99.78,3.0,,0.0,0.0,137.13
2025-08-15T02:03:47.340Z,14,GR86-016-55,-12.8,0.198,-1.327,99.75,3.0,,0.0,0.0,
2025-08-15T02:03:47.386Z,14,GR86-016-55,-10.7,0.119,-1.198,99.75,3.0,,0.0,0.0,
2025-08-15T02:03:47.428Z,14,GR86-016-55,-14.5,0.089,-1.028,99.75,3.0,,0.0,0.0,
2025-08-15T02:03:47.472Z,14,GR86-016-55,-18.6,0.152,-0.734,99.76,3.0,6712.0,0.0,0.0,
2025-08-15T02:03:47.515Z,14,GR86-016-55,-17.7,0.226,-0.8140000000000001,99.76,3.0,,0.0,0.0,139.44
2025-08-15T02:03:47.558Z,14,GR86-016-55,-16.7,0.268,-0.795,99.78,3.0,,0.0,0.0,
2025-08-15T02:03:47.601Z,14,GR86-016-55,-21.0,0.263,-0.957,99.79,3.0,,0.0,0.0,
2025-08-15T02:03:47.644Z,14,GR86-016-55,-29.0,0.321,-1.088,99.79,3.0,,0.0,0.0,
2025-08-15T02:03:47.687Z,14,GR86-016-55,-35.4,0.129,-1.05,99.77,3.0,6760.0,0.0,0.0,
2025-08-15T02:03:47.732Z,14,GR86-016-55,-39.2,0.096,-1.246,99.77,3.0,,0.0,0.0,138.93
2025-08-15T02:03:47.775Z,14,GR86-016-55,-38.8,0.23,-1.338,99.76,3.0,,0.0,0.0,
2025-08-15T02:03:47.818Z,14,GR86-016-55,-38.400000000000006,0.297,-1.271,99.79,3.0,,0.0,0.0,
2025-08-15T02:03:47.862Z,14,GR86-016-55,-38.400000000000006,0.186,-1.122,99.79,3.0,,0.0,0.0,
2025-08-15T02:03:47.905Z,14,GR86-016-55,-36.1,0.157,-1.108,99.79,3.0,6802.0,0.0,0.0,
2025-08-15T02:03:47.948Z,14,GR86-016-55,-32.300000000000004,0.143,-0.94,99.78,3.0,,0.0,0.0,139.04
2025-08-15T02:03:47.991Z,14,GR86-016-55,-27.3,0.18,-0.985,99.77,3.0,,0.0,0.0,
2025-08-15T02:03:48.077Z,14,GR86-016-55,-23.8,0.187,-0.917,99.78,3.0,,0.0,0.0,
2025-08-15T02:03:48.120Z,14,GR86-016-55,-21.6,0.218,-0.628,99.75,3.0,6700.0,0.0,0.0,
2025-08-15T02:03:48.163Z,14,GR86-016-55,-21.0,0.16,-0.74,99.76,3.0,,0.0,0.0,140.4
2025-08-15T02:03:48.206Z,14,GR86-016-55,-21.9,0.172,-0.86,99.76,3.0,,0.0,0.0,
2025-08-15T02:03:48.248Z,14,GR86-016-55,-23.4,0.205,-0.8180000000000001,99.78,3.0,,0.0,0.0,
2025-08-15T02:03:48.292Z,14,GR86-016-55,-21.700000000000003,0.217,-0.997,99.76,3.0,,0.0,0.0,
2025-08-15T02:03:48.335Z,14,GR86-016-55,-11.1,0.219,-0.94,99.77,3.0,6725.0,0.0,0.0,
2025-08-15T02:03:48.378Z,14,GR86-016-55,-2.9000000000000004,0.227,-0.872,99.78,3.0,,0.0,0.0,141.65
2025-08-15T02:03:48.421Z,14,GR86-016-55,0.7000000000000001,0.186,-0.8140000000000001,99.76,3.0,,0.0,0.0,
2025-08-15T02:03:48.464Z,14,GR86-016-55,0.7000000000000001,0.215,-0.673,99.76,3.0,,0.0,0.0,
2025-08-15T02:03:48.507Z,14,GR86-016-55,0.7000000000000001,0.216,-0.546,99.77,3.0,,0.0,0.0,
2025-08-15T02:03:48.550Z,14,GR86-016-55,0.8,0.183,-0.189,99.75,3.0,6822.0,0.0,0.0,
2025-08-15T02:03:48.592Z,14,GR86-016-55,1.6,0.05,-0.109,99.76,3.0,,0.0,0.0,142.82
2025-08-15T02:03:48.637Z,14,GR86-016-55,2.3000000000000003,0.075,-0.073,99.78,3.0,,0.0,0.0,
2025-08-15T02:03:48.680Z,14,GR86-016-55,3.2,0.261,0.032,99.79,3.0,,0.0,0.0,
2025-08-15T02:03:48.723Z,14,GR86-016-55,4.3,0.341,-0.008,99.79,3.0,,0.0,0.0,
2025-08-15T02:03:48.766Z,14,GR86-016-55,5.9,0.081,0.103,99.79,3.0,6833.0,0.0,0.0,
2025-08-15T02:03:48.809Z,14,GR86-016-55,6.4,0.162,0.04,99.77,3.0,,0.0,0.0,144.61
2025-08-15T02:03:48.852Z,14,GR86-016-55,6.2,0.28,0.113,99.77,3.0,,0.0,0.0,
2025-08-15T02:03:48.895Z,14,GR86-016-55,7.5,0.041,0.068,99.78,3.0,,0.0,0.0,
2025-08-15T02:03:48.938Z,14,GR86-016-55,10.1,0.057,0.238,99.76,3.0,,0.0,0.0,
2025-08-15T02:03:48.982Z,14,GR86-016-55,10.4,0.493,-0.111,99.79,3.0,6982.0,0.0,0.0,
2025-08-15T02:03:49.025Z,14,GR86-016-55,9.4,0.305,0.072,99.76,3.0,,0.0,0.0,145.52
2025-08-15T02:03:49.069Z,14,GR86-016-55,8.700000000000001,0.223,0.203,99.78,3.0,,0.0,0.0,
2025-08-15T02:03:49.112Z,14,GR86-016-55,9.4,0.246,0.256,99.75,3.0,,0.0,0.0,
2025-08-15T02:03:49.155Z,14,GR86-016-55,13.1,0.343,0.445,99.79,3.0,,0.0,0.0,
2025-08-15T02:03:49.198Z,14,GR86-016-55,18.4,0.285,0.439,99.78,3.0,6962.0,0.0,0.0,
2025-08-15T02:03:49.241Z,14,GR86-016-55,20.1,0.09,0.544,99.79,3.0,,0.0,0.0,149.15
2025-08-15T02:03:49.287Z,14,GR86-016-55,18.6,0.155,0.545,99.77,3.0,,0.0,0.0,
2025-08-15T02:03:49.332Z,14,GR86-016-55,13.7,0.279,0.5710000000000001,99.79,3.0,,0.0,0.0,
2025-08-15T02:03:49.418Z,14,GR86-016-55,11.5,0.227,0.666,99.76,3.0,7066.0,0.0,0.0,
2025-08-15T02:03:49.461Z,14,GR86-016-55,11.3,0.277,0.63,99.76,3.0,,0.0,0.0,150.12
2025-08-15T02:03:49.504Z,14,GR86-016-55,11.3,0.206,0.5640000000000001,99.78,3.0,,0.0,0.0,
2025-08-15T02:03:49.547Z,14,GR86-016-55,10.9,0.187,0.514,99.79,3.0,,0.0,0.0,
2025-08-15T02:03:49.592Z,14,GR86-016-55,10.8,0.215,0.453,99.78,3.0,,0.0,0.0,
2025-08-15T02:03:49.635Z,14,GR86-016-55,10.7,0.211,0.381,99.79,3.0,7183.0,0.0,0.0,
2025-08-15T02:03:49.678Z,14,GR86-016-55,10.7,0.187,0.347,99.78,3.0,,0.0,0.0,151.53
2025-08-15T02:03:49.721Z,14,GR86-016-55,10.4,0.186,0.312,99.78,3.0,,0.0,0.0,
2025-08-15T02:03:49.764Z,14,GR86-016-55,10.2,0.182,0.304,99.78,3.0,,0.0,0.0,
2025-08-15T02:03:49.807Z,14,GR86-016-55,10.0,0.2,0.273,99.78,3.0,,0.0,0.0,
2025-08-15T02:03:49.850Z,14,GR86-016-55,9.9,0.193,0.273,99.78,3.0,7215.0,0.0,0.0,
2025-08-15T02:03:49.894Z,14,GR86-016-55,9.9,0.167,0.286,99.78,4.0,,0.0,0.0,153.49
2025-08-15T02:03:49.937Z,14,GR86-016-55,9.7,-0.089,0.288,99.77,4.0,,0.0,0.0,
2025-08-15T02:03:49.980Z,14,GR86-016-55,9.7,0.624,0.357,99.78,4.0,,0.0,0.0,
2025-08-15T02:03:50.024Z,14,GR86-016-55,9.7,0.412,0.192,99.78,4.0,,0.0,0.0,
2025-08-15T02:03:50.067Z,14,GR86-016-55,9.2,0.113,0.293,99.79,4.0,7282.0,0.0,0.0,
2025-08-15T02:03:50.110Z,14,GR86-016-55,7.7,0.074,0.246,99.78,4.0,,0.0,0.0,154.83
2025-08-15T02:03:50.153Z,14,GR86-016-55,7.2,0.223,0.238,99.79,4.0,,0.0,0.0,
2025-08-15T02:03:50.196Z,14,GR86-016-55,7.1000000000000005,0.231,0.303,99.79,4.0,,0.0,0.0,
2025-08-15T02:03:50.238Z,14,GR86-016-55,7.1000000000000005,0.158,0.232,99.78,4.0,,0.0,0.0,
2025-08-15T02:03:50.282Z,14,GR86-016-55,7.0,0.115,0.226,99.78,4.0,6103.0,0.0,0.0,
2025-08-15T02:03:50.325Z,14,GR86-016-55,7.0,0.166,0.201,99.78,4.0,,0.0,0.0,156.28
2025-08-15T02:03:50.368Z,14,GR86-016-55,6.9,0.162,0.187,99.79,4.0,,0.0,0.0,
2025-08-15T02:03:50.411Z,14,GR86-016-55,6.9,0.153,0.18,99.78,4.0,,0.0,0.0,
2025-08-15T02:03:50.455Z,14,GR86-016-55,6.800000000000001,0.161,0.158,99.78,4.0,,0.0,0.0,
2025-08-15T02:03:50.498Z,14,GR86-016-55,6.7,0.156,0.149,99.78,4.0,6221.0,0.0,0.0,
2025-08-15T02:03:50.541Z,14,GR86-016-55,6.6000000000000005,0.177,0.123,99.77,4.0,,0.0,0.0,158.04
2025-08-15T02:03:50.585Z,14,GR86-016-55,6.5,0.17,0.145,99.79,4.0,,0.0,0.0,
2025-08-15T02:03:50.628Z,14,GR86-016-55,6.300000000000001,0.177,0.118,99.79,4.0,,0.0,0.0,
2025-08-15T02:03:50.671Z,14,GR86-016-55,5.800000000000001,0.153,0.122,99.78,4.0,,0.0,0.0,
2025-08-15T02:03:50.715Z,14,GR86-016-55,5.7,0.168,0.114,99.79,4.0,6311.0,0.0,0.0,
2025-08-15T02:03:50.758Z,14,GR86-016-55,5.6000000000000005,0.163,0.122,99.77,4.0,,0.0,0.0,159.64
2025-08-15T02:03:50.801Z,14,GR86-016-55,5.6000000000000005,0.183,0.113,99.78,4.0,,0.0,0.0,
2025-08-15T02:03:50.844Z,14,GR86-016-55,5.6000000000000005,0.187,0.102,99.78,4.0,,0.0,0.0,
2025-08-15T02:03:50.887Z,14,GR86-016-55,5.6000000000000005,0.169,0.083,99.78,4.0,,0.0,0.0,
2025-08-15T02:03:50.931Z,14,GR86-016-55,5.4,0.167,0.089,99.78,4.0,6375.0,0.0,0.0,
2025-08-15T02:03:50.975Z,14,GR86-016-55,5.1000000000000005,0.181,0.091,99.79,4.0,,0.0,0.0,161.23
2025-08-15T02:03:51.018Z,14,GR86-016-55,4.7,0.174,0.069,99.78,4.0,,0.0,0.0,
2025-08-15T02:03:51.061Z,14,GR86-016-55,4.5,0.15,0.068,99.79,4.0,,0.0,0.0,
2025-08-15T02:03:51.104Z,14,GR86-016-55,4.3,0.148,0.051,99.79,4.0,,0.0,0.0,
2025-08-15T02:03:51.147Z,14,GR86-016-55,3.9,0.155,0.058,99.77,4.0,6424.0,0.0,0.0,
2025-08-15T02:03:51.190Z,14,GR86-016-55,3.5,0.172,0.054,99.78,4.0,,0.0,0.0,162.85
2025-08-15T02:03:51.234Z,14,GR86-016-55,3.4000000000000004,0.174,0.052,99.78,4.0,,0.0,0.0,
2025-08-15T02:03:51.277Z,14,GR86-016-55,3.2,0.165,0.047,99.78,4.0,,0.0,0.0,
2025-08-15T02:03:51.320Z,14,GR86-016-55,3.0,0.167,-0.003,99.79,4.0,,0.0,0.0,
2025-08-15T02:03:51.363Z,14,GR86-016-55,2.8000000000000003,0.149,0.009,99.79,4.0,6487.0,0.0,0.0,
2025-08-15T02:03:51.406Z,14,GR86-016-55,2.5,0.143,-0.002,99.78,4.0,,0.0,0.0,164.44
2025-08-15T02:03:51.448Z,14,GR86-016-55,2.2,0.14,-0.014,99.77,4.0,,0.0,0.0,
2025-08-15T02:03:51.492Z,14,GR86-016-55,1.8,0.163,-0.032,99.78,4.0,,0.0,0.0,
2025-08-15T02:03:51.535Z,14,GR86-016-55,1.5,0.166,-0.038,99.76,4.0,,0.0,0.0,
2025-08-15T02:03:51.578Z,14,GR86-016-55,1.4,0.152,-0.046,99.78,4.0,6535.0,0.0,0.0,
2025-08-15T02:03:51.621Z,14,GR86-016-55,1.4,0.132,-0.046,99.78,4.0,,0.0,0.0,166.07
2025-08-15T02:03:51.707Z,14,GR86-016-55,1.2000000000000002,0.163,-0.057,99.78,4.0,,0.0,0.0,
2025-08-15T02:03:51.750Z,14,GR86-016-55,0.4,0.159,-0.074,99.79,4.0,,0.0,0.0,
2025-08-15T02:03:51.792Z,14,GR86-016-55,-0.4,0.164,-0.074,99.79,4.0,6614.0,0.0,0.0,
2025-08-15T02:03:51.836Z,14,GR86-016-55,-1.5,0.15,-0.073,99.75,4.0,,0.0,0.0,169.29
2025-08-15T02:03:51.879Z,14,GR86-016-55,-2.5,0.153,-0.071,99.78,4.0,,0.0,0.0,
2025-08-15T02:03:51.922Z,14,GR86-016-55,-3.3000000000000003,0.134,-0.096,99.79,4.0,,0.0,0.0,
2025-08-15T02:03:51.965Z,14,GR86-016-55,-3.7,0.14,-0.141,99.78,4.0,,9.43,9.6,
2025-08-15T02:03:52.008Z,14,GR86-016-55,-4.0,0.121,-0.161,99.76,4.0,6683.0,7.05,7.325,
2025-08-15T02:03:52.051Z,14,GR86-016-55,-5.300000000000001,0.122,-0.191,99.79,4.0,,0.0,0.0,170.82
2025-08-15T02:03:52.095Z,14,GR86-016-55,-6.800000000000001,0.145,-0.226,99.74,4.0,,0.0,0.0,
2025-08-15T02:03:52.138Z,14,GR86-016-55,-7.800000000000001,0.132,-0.264,99.76,4.0,,0.0,0.0,
2025-08-15T02:03:52.182Z,14,GR86-016-55,-8.0,0.141,-0.34,99.77,4.0,,0.0,0.0,
2025-08-15T02:03:52.226Z,14,GR86-016-55,-8.1,0.141,-0.359,99.78,4.0,6729.0,0.0,0.0,
2025-08-15T02:03:52.268Z,14,GR86-016-55,-8.0,0.137,-0.348,99.78,4.0,,0.0,0.0,172.29
2025-08-15T02:03:52.312Z,14,GR86-016-55,-7.800000000000001,0.132,-0.375,99.76,4.0,,0.0,0.0,
2025-08-15T02:03:52.355Z,14,GR86-016-55,-7.6,0.137,-0.384,99.78,4.0,,0.0,0.0,
2025-08-15T02:03:52.398Z,14,GR86-016-55,-6.9,0.135,-0.416,99.79,4.0,,0.0,0.0,
2025-08-15T02:03:52.442Z,14,GR86-016-55,-6.1000000000000005,0.151,-0.409,99.78,4.0,6834.0,0.0,0.0,
2025-08-15T02:03:52.486Z,14,GR86-016-55,-6.0,0.136,-0.386,99.78,4.0,,0.0,0.0,173.61
2025-08-15T02:03:52.528Z,14,GR86-016-55,-6.0,0.146,-0.383,99.77,4.0,,0.0,0.0,
2025-08-15T02:03:52.572Z,14,GR86-016-55,-5.800000000000001,0.126,-0.343,99.77,4.0,,0.0,0.0,
2025-08-15T02:03:52.615Z,14,GR86-016-55,-5.7,0.131,-0.322,99.79,4.0,,0.0,0.0,
2025-08-15T02:03:52.658Z,14,GR86-016-55,-5.5,0.137,-0.306,99.79,4.0,6891.0,0.0,0.0,
2025-08-15T02:03:52.701Z,14,GR86-016-55,-5.5,0.112,-0.274,99.78,4.0,,0.0,0.0,174.79
2025-08-15T02:03:52.744Z,14,GR86-016-55,-5.5,0.153,-0.258,99.78,4.0,,0.0,0.0,
2025-08-15T02:03:52.787Z,14,GR86-016-55,-5.4,0.138,-0.272,99.78,4.0,,0.0,0.0,
2025-08-15T02:03:52.832Z,14,GR86-016-55,-5.300000000000001,0.134,-0.213,99.78,4.0,,0.0,0.0,
2025-08-15T02:03:52.875Z,14,GR86-016-55,-5.300000000000001,0.13,-0.221,99.76,4.0,6937.0,0.0,0.0,
2025-08-15T02:03:52.918Z,14,GR86-016-55,-5.4,0.136,-0.212,99.75,4.0,,0.0,0.0,176.27
2025-08-15T02:03:52.961Z,14,GR86-016-55,-6.1000000000000005,0.118,-0.231,99.76,4.0,,0.0,0.0,
2025-08-15T02:03:53.005Z,14,GR86-016-55,-6.5,0.122,-0.259,99.75,4.0,,0.0,0.0,
2025-08-15T02:03:53.048Z,14,GR86-016-55,-6.800000000000001,0.117,-0.288,99.77,4.0,,0.0,0.0,
2025-08-15T02:03:53.091Z,14,GR86-016-55,-7.1000000000000005,0.133,-0.331,99.79,4.0,6991.0,0.0,0.0,
2025-08-15T02:03:53.135Z,14,GR86-016-55,-7.4,0.145,-0.345,99.78,4.0,,0.0,0.0,177.58
2025-08-15T02:03:53.178Z,14,GR86-016-55,-7.4,0.128,-0.351,99.77,4.0,,0.0,0.0,
2025-08-15T02:03:53.221Z,14,GR86-016-55,-7.5,0.133,-0.366,99.76,4.0,,0.0,0.0,
2025-08-15T02:03:53.264Z,14,GR86-016-55,-7.4,0.142,-0.369,99.75,4.0,,0.0,0.0,
2025-08-15T02:03:53.307Z,14,GR86-016-55,-7.300000000000001,0.118,-0.374,99.79,4.0,7044.0,0.0,0.0,
2025-08-15T02:03:53.350Z,14,GR86-016-55,-7.0,0.133,-0.352,99.77,4.0,,13.55,13.735,178.93
2025-08-15T02:03:53.392Z,14,GR86-016-55,-3.8,0.1,-0.318,71.0,4.0,,37.83,37.645,
2025-08-15T02:03:53.436Z,14,GR86-016-55,3.1,-0.254,-0.256,3.38,4.0,,58.615,57.925,
2025-08-15T02:03:53.478Z,14,GR86-016-55,7.9,-0.74,-0.223,4.45,4.0,,71.89,71.05,
2025-08-15T02:03:53.522Z,14,GR86-016-55,12.9,-1.083,-0.14,4.32,4.0,7086.0,71.525,72.3,
2025-08-15T02:03:53.565Z,14,GR86-016-55,12.6,-1.259,-0.027,4.1,4.0,,69.905,71.525,180.25
2025-08-15T02:03:53.608Z,14,GR86-016-55,5.5,-1.088,0.02,3.76,4.0,,71.08,73.08,
2025-08-15T02:03:53.651Z,14,GR86-016-55,1.0,-1.417,-0.109,3.16,4.0,,77.34,77.14,
2025-08-15T02:03:53.695Z,14,GR86-016-55,3.5,-1.402,-0.102,2.97,4.0,,78.205,79.72,
2025-08-15T02:03:53.738Z,14,GR86-016-55,10.8,-1.276,-0.178,2.88,4.0,7130.0,67.525,68.245,
2025-08-15T02:03:53.781Z,14,GR86-016-55,13.8,-1.094,-0.002,2.81,4.0,,59.485,60.34,181.2
2025-08-15T02:03:53.824Z,14,GR86-016-55,13.5,-1.137,0.029,2.74,4.0,,58.795,60.17,
2025-08-15T02:03:53.867Z,14,GR86-016-55,6.300000000000001,-1.24,0.043,2.71,4.0,,62.535,63.59,
2025-08-15T02:03:53.910Z,14,GR86-016-55,-3.3000000000000003,-1.332,-0.051,2.66,4.0,,68.565,68.595,
2025-08-15T02:03:53.953Z,14,GR86-016-55,-5.7,-1.359,-0.114,2.64,4.0,6325.0,71.14,70.83500000000001,
2025-08-15T02:03:53.996Z,14,GR86-016-55,-5.7,-1.288,-0.177,2.62,4.0,,72.24,71.92,174.38
2025-08-15T02:03:54.040Z,14,GR86-016-55,0.2,-1.32,-0.201,17.87,4.0,,73.60000000000001,75.31,
2025-08-15T02:03:54.083Z,14,GR86-016-55,9.3,-1.297,-0.187,52.22,3.0,,72.24,74.12,
2025-08-15T02:03:54.126Z,14,GR86-016-55,16.5,-1.263,-0.155,6.74,3.0,,58.49,60.08,
2025-08-15T02:03:54.169Z,14,GR86-016-55,18.3,-1.058,0.038,4.39,3.0,6234.0,43.645,45.49,
2025-08-15T02:03:54.212Z,14,GR86-016-55,18.2,-0.909,-0.185,4.19,3.0,,34.09,34.78,167.36
2025-08-15T02:03:54.255Z,14,GR86-016-55,16.900000000000002,-1.102,-0.167,3.93,3.0,,35.68,36.455,
2025-08-15T02:03:54.298Z,14,GR86-016-55,12.1,-0.898,-0.076,3.46,3.0,,43.49,44.405,
2025-08-15T02:03:54.341Z,14,GR86-016-55,5.2,-0.86,-0.38,3.04,3.0,,46.835,47.52,
2025-08-15T02:03:54.432Z,14,GR86-016-55,-3.8,-1.142,-0.365,2.87,3.0,5915.0,50.755,51.15,152.27
2025-08-15T02:03:54.475Z,14,GR86-016-55,-20.700000000000003,-1.168,-0.5720000000000001,2.68,3.0,,63.405,63.345,
2025-08-15T02:03:54.518Z,14,GR86-016-55,-20.700000000000003,-1.043,-0.484,2.64,3.0,,66.455,66.365,
2025-08-15T02:03:54.561Z,14,GR86-016-55,-17.5,-1.076,-0.587,2.63,3.0,,68.625,69.875,
2025-08-15T02:03:54.604Z,14,GR86-016-55,-9.1,-0.978,-0.623,2.62,3.0,6022.0,63.895,65.68,
2025-08-15T02:03:54.647Z,14,GR86-016-55,2.8000000000000003,-1.03,-0.61,2.59,3.0,,61.085,61.97,144.92000000000002
2025-08-15T02:03:54.692Z,14,GR86-016-55,13.6,-1.117,-0.475,7.67,3.0,,56.25,57.3,
2025-08-15T02:03:54.735Z,14,GR86-016-55,13.9,-0.938,-0.333,46.77,2.0,,48.205,49.7,
2025-08-15T02:03:54.778Z,14,GR86-016-55,6.300000000000001,-0.96,-0.31,22.78,2.0,,42.985,44.315,
2025-08-15T02:03:54.822Z,14,GR86-016-55,-5.7,-1.172,-0.206,4.42,2.0,6430.0,41.37,42.715,
2025-08-15T02:03:54.865Z,14,GR86-016-55,-18.8,-1.048,-0.359,4.3100000000000005,2.0,,40.865,42.15,137.15
2025-08-15T02:03:54.908Z,14,GR86-016-55,-25.9,-0.905,-0.808,4.12,2.0,,37.705,38.18,
2025-08-15T02:03:54.951Z,14,GR86-016-55,-23.1,-0.808,-0.54,3.58,2.0,,27.835,28.84,
2025-08-15T02:03:54.994Z,14,GR86-016-55,-15.7,-0.679,-0.934,3.08,2.0,,19.395,20.45,
2025-08-15T02:03:55.037Z,14,GR86-016-55,-14.5,-0.5690000000000001,-0.907,2.9,2.0,6443.0,15.685,16.345,
2025-08-15T02:03:55.123Z,14,GR86-016-55,-19.700000000000003,-0.648,-1.006,2.74,2.0,,16.86,17.580000000000002,132.44
2025-08-15T02:03:55.166Z,14,GR86-016-55,-18.9,-0.5740000000000001,-1.032,2.68,2.0,,18.145,18.83,
2025-08-15T02:03:55.209Z,14,GR86-016-55,-9.4,-0.59,-1.002,2.65,2.0,,18.8,19.015,
2025-08-15T02:03:55.252Z,14,GR86-016-55,-2.0,-0.589,-0.973,2.59,2.0,6510.0,20.875,21.24,
2025-08-15T02:03:55.295Z,14,GR86-016-55,-4.6000000000000005,-0.518,-0.977,2.58,2.0,,20.785,21.35,126.24
2025-08-15T02:03:55.338Z,14,GR86-016-55,-15.2,-0.54,-1.088,2.58,2.0,,18.465,19.18,
2025-08-15T02:03:55.381Z,14,GR86-016-55,-21.6,-0.527,-1.059,2.56,2.0,,13.885,14.785,
2025-08-15T02:03:55.424Z,14,GR86-016-55,-21.3,-0.431,-1.112,2.5500000000000003,2.0,,6.15,6.835,
2025-08-15T02:03:55.467Z,14,GR86-016-55,-17.1,-0.349,-1.239,2.5500000000000003,2.0,6670.0,0.0,0.0,
2025-08-15T02:03:55.510Z,14,GR86-016-55,-22.9,-0.253,-1.21,2.5500000000000003,2.0,,0.0,0.0,122.82
2025-08-15T02:03:55.553Z,14,GR86-016-55,-32.800000000000004,-0.197,-1.226,2.53,2.0,,0.0,0.0,
2025-08-15T02:03:55.596Z,14,GR86-016-55,-40.6,-0.194,-1.185,2.53,2.0,,0.0,0.0,
2025-08-15T02:03:55.639Z,14,GR86-016-55,-46.7,-0.193,-1.274,2.53,2.0,,0.0,0.0,
2025-08-15T02:03:55.682Z,14,GR86-016-55,-50.5,-0.202,-1.265,2.52,2.0,6404.0,0.0,0.0,
2025-08-15T02:03:55.725Z,14,GR86-016-55,-53.0,-0.224,-1.32,2.52,2.0,,0.0,0.0,118.68
2025-08-15T02:03:55.768Z,14,GR86-016-55,-55.0,-0.2,-1.318,2.52,2.0,,1.985,2.045,
2025-08-15T02:03:55.812Z,14,GR86-016-55,-57.900000000000006,-0.228,-1.279,2.52,2.0,,4.625,4.5,
2025-08-15T02:03:55.855Z,14,GR86-016-55,-59.3,-0.272,-1.231,2.52,2.0,,7.17,7.140000000000001,
2025-08-15T02:03:55.898Z,14,GR86-016-55,-60.0,-0.341,-1.252,2.52,2.0,6434.0,8.27,8.3,
2025-08-15T02:03:55.941Z,14,GR86-016-55,-60.1,-0.375,-1.298,2.51,2.0,,8.67,8.425,116.76
2025-08-15T02:03:55.984Z,14,GR86-016-55,-60.2,-0.363,-1.31,2.52,2.0,,8.09,8.455,
2025-08-15T02:03:56.027Z,14,GR86-016-55,-60.3,-0.333,-1.3,2.51,2.0,,3.465,3.935,
2025-08-15T02:03:56.070Z,14,GR86-016-55,-60.3,-0.24,-1.341,2.5,2.0,,0.0,0.0,
2025-08-15T02:03:56.113Z,14,GR86-016-55,-60.3,-0.255,-1.372,2.51,2.0,6349.0,0.0,0.0,
2025-08-15T02:03:56.156Z,14,GR86-016-55,-60.2,-0.212,-1.363,2.51,2.0,,0.0,0.0,114.36
2025-08-15T02:03:56.198Z,14,GR86-016-55,-60.2,-0.217,-1.389,2.5,2.0,,0.0,0.0,
2025-08-15T02:03:56.242Z,14,GR86-016-55,-60.1,-0.214,-1.365,2.49,2.0,,0.0,0.0,
2025-08-15T02:03:56.285Z,14,GR86-016-55,-60.1,-0.181,-1.352,2.49,2.0,,0.0,0.0,
2025-08-15T02:03:56.328Z,14,GR86-016-55,-60.1,-0.211,-1.299,2.5,2.0,6159.0,0.0,0.0,
2025-08-15T02:03:56.371Z,14,GR86-016-55,-60.2,-0.208,-1.287,23.19,2.0,,0.0,0.0,112.84
2025-08-15T02:03:56.415Z,14,GR86-016-55,-60.3,-0.183,-1.253,28.42,2.0,,0.0,0.0,
2025-08-15T02:03:56.458Z,14,GR86-016-55,-60.5,-0.188,-1.334,30.6,2.0,,0.0,0.0,
2025-08-15T02:03:56.501Z,14,GR86-016-55,-61.0,-0.132,-1.262,32.86,2.0,,0.0,0.0,
2025-08-15T02:03:56.544Z,14,GR86-016-55,-61.6,-0.146,-1.188,35.33,2.0,6103.0,0.0,0.0,
2025-08-15T02:03:56.587Z,14,GR86-016-55,-62.0,-0.053,-1.178,37.14,2.0,,0.0,0.0,111.12
2025-08-15T02:03:56.632Z,14,GR86-016-55,-62.7,0.166,-1.086,38.39,2.0,,0.0,0.0,
2025-08-15T02:03:56.675Z,14,GR86-016-55,-62.7,0.109,-1.155,39.32,2.0,,0.0,0.0,
2025-08-15T02:03:56.718Z,14,GR86-016-55,-62.900000000000006,0.172,-1.121,39.67,2.0,,0.0,0.0,
2025-08-15T02:03:56.761Z,14,GR86-016-55,-63.5,0.197,-1.218,39.54,2.0,6003.0,0.0,0.0,
2025-08-15T02:03:56.804Z,14,GR86-016-55,-64.2,0.236,-1.065,39.71,2.0,,0.0,0.0,108.85
2025-08-15T02:03:56.847Z,14,GR86-016-55,-65.0,0.211,-1.113,40.9,2.0,,0.0,0.0,
2025-08-15T02:03:56.890Z,14,GR86-016-55,-67.60000000000001,0.19,-1.129,40.78,2.0,,0.0,0.0,
2025-08-15T02:03:56.934Z,14,GR86-016-55,-70.5,0.167,-1.311,40.88,2.0,,0.0,0.0,
2025-08-15T02:03:56.978Z,14,GR86-016-55,-73.10000000000001,0.198,-1.166,40.04,2.0,6367.0,0.0,0.0,
2025-08-15T02:03:57.021Z,14,GR86-016-55,-75.9,0.168,-1.192,39.81,2.0,,0.0,0.0,106.93
2025-08-15T02:03:57.064Z,14,GR86-016-55,-77.7,0.19,-1.048,39.71,2.0,,0.0,0.0,
2025-08-15T02:03:57.107Z,14,GR86-016-55,-79.2,0.158,-1.111,37.94,2.0,,0.0,0.0,
2025-08-15T02:03:57.150Z,14,GR86-016-55,-80.4,0.141,-1.03,34.86,2.0,,0.0,0.0,
2025-08-15T02:03:57.193Z,14,GR86-016-55,-80.9,0.142,-1.07,33.79,2.0,6316.0,0.0,0.0,
2025-08-15T02:03:57.236Z,14,GR86-016-55,-81.2,0.111,-1.072,33.92,2.0,,0.0,0.0,106.02
2025-08-15T02:03:57.280Z,14,GR86-016-55,-81.7,0.105,-0.999,34.07,2.0,,0.0,0.0,
2025-08-15T02:03:57.325Z,14,GR86-016-55,-82.0,0.118,-0.994,31.64,2.0,,0.0,0.0,
2025-08-15T02:03:57.368Z,14,GR86-016-55,-82.5,0.104,-0.956,3.88,2.0,,0.0,0.0,
2025-08-15T02:03:57.411Z,14,GR86-016-55,-82.60000000000001,0.078,-1.002,4.2700000000000005,2.0,6271.0,0.0,0.0,
2025-08-15T02:03:57.454Z,14,GR86-016-55,-82.60000000000001,-0.039,-1.047,32.06,2.0,,0.0,0.0,106.37
2025-08-15T02:03:57.497Z,14,GR86-016-55,-82.60000000000001,-0.128,-1.064,73.31,2.0,,0.0,0.0,
2025-08-15T02:03:57.586Z,14,GR86-016-55,-82.60000000000001,-0.195,-1.152,99.72,2.0,,0.0,0.0,
2025-08-15T02:03:57.628Z,14,GR86-016-55,-82.5,-0.107,-1.104,99.73,2.0,6245.0,0.0,0.0,
2025-08-15T02:03:57.672Z,14,GR86-016-55,-82.2,0.311,-1.042,99.72,2.0,,0.0,0.0,108.18
2025-08-15T02:03:57.715Z,14,GR86-016-55,-82.0,0.259,-1.104,99.75,2.0,,0.0,0.0,
2025-08-15T02:03:57.758Z,14,GR86-016-55,-81.0,0.316,-1.067,99.74,2.0,,0.0,0.0,
2025-08-15T02:03:57.801Z,14,GR86-016-55,-77.60000000000001,0.263,-1.213,99.74,2.0,,0.0,0.0,
2025-08-15T02:03:57.844Z,14,GR86-016-55,-72.9,0.253,-1.272,99.74,2.0,6658.0,0.0,0.0,
2025-08-15T02:03:57.887Z,14,GR86-016-55,-63.8,0.203,-1.224,99.72,2.0,,0.0,0.0,109.0
2025-08-15T02:03:57.932Z,14,GR86-016-55,-51.5,0.21,-1.215,99.73,2.0,,0.0,0.0,
2025-08-15T02:03:57.975Z,14,GR86-016-55,-47.0,0.238,-1.145,99.75,2.0,,0.0,0.0,
2025-08-15T02:03:58.018Z,14,GR86-016-55,-42.400000000000006,0.26,-1.076,99.75,2.0,,0.0,0.0,
2025-08-15T02:03:58.061Z,14,GR86-016-55,-37.8,0.198,-1.055,99.76,2.0,6488.0,0.0,0.0,
2025-08-15T02:03:58.105Z,14,GR86-016-55,-36.1,0.223,-1.077,99.75,2.0,,0.0,0.0,108.74
2025-08-15T02:03:58.148Z,14,GR86-016-55,-40.0,0.24,-1.08,99.75,2.0,,0.0,0.0,
2025-08-15T02:03:58.191Z,14,GR86-016-55,-46.400000000000006,0.249,-1.074,99.76,2.0,,0.0,0.0,
2025-08-15T02:03:58.234Z,14,GR86-016-55,-47.900000000000006,0.204,-1.115,99.75,2.0,,0.0,0.0,
2025-08-15T02:03:58.277Z,14,GR86-016-55,-48.0,0.222,-1.09,99.75,2.0,6565.0,0.0,0.0,
2025-08-15T02:03:58.320Z,14,GR86-016-55,-47.7,0.219,-1.151,99.75,2.0,,0.0,0.0,109.97
2025-08-15T02:03:58.363Z,14,GR86-016-55,-46.6,0.244,-1.102,99.75,2.0,,0.0,0.0,
2025-08-15T02:03:58.406Z,14,GR86-016-55,-44.2,0.24,-1.101,99.75,2.0,,0.0,0.0,
2025-08-15T02:03:58.448Z,14,GR86-016-55,-43.8,0.259,-1.107,99.76,2.0,,0.0,0.0,
2025-08-15T02:03:58.492Z,14,GR86-016-55,-49.400000000000006,0.259,-1.095,99.76,2.0,6678.0,0.0,0.0,
2025-08-15T02:03:58.535Z,14,GR86-016-55,-55.5,0.231,-1.127,99.73,2.0,,0.0,0.0,110.68
2025-08-15T02:03:58.578Z,14,GR86-016-55,-60.0,0.225,-1.164,99.75,2.0,,0.0,0.0,
2025-08-15T02:03:58.621Z,14,GR86-016-55,-61.3,0.244,-1.17,99.75,2.0,,0.0,0.0,
2025-08-15T02:03:58.664Z,14,GR86-016-55,-61.5,0.241,-1.203,99.75,2.0,,0.0,0.0,
2025-08-15T02:03:58.707Z,14,GR86-016-55,-60.8,0.251,-1.134,99.74,2.0,6772.0,0.0,0.0,
2025-08-15T02:03:58.750Z,14,GR86-016-55,-56.5,0.224,-1.111,99.75,2.0,,0.0,0.0,111.99
2025-08-15T02:03:58.792Z,14,GR86-016-55,-49.6,0.2,-1.104,99.76,2.0,,0.0,0.0,
2025-08-15T02:03:58.836Z,14,GR86-016-55,-41.0,0.177,-1.195,99.73,2.0,,0.0,0.0,
2025-08-15T02:03:58.878Z,14,GR86-016-55,-33.300000000000004,0.221,-1.13,99.73,2.0,,0.0,0.0,
2025-08-15T02:03:58.922Z,14,GR86-016-55,-27.6,0.349,-1.109,99.75,2.0,6763.0,0.0,0.0,
2025-08-15T02:03:58.965Z,14,GR86-016-55,-23.6,0.33,-0.948,99.75,2.0,,0.0,0.0,113.88
2025-08-15T02:03:59.008Z,14,GR86-016-55,-24.9,0.391,-0.743,99.75,2.0,,0.0,0.0,
2025-08-15T02:03:59.051Z,14,GR86-016-55,-28.8,0.156,-0.852,99.76,2.0,,0.0,0.0,
2025-08-15T02:03:59.095Z,14,GR86-016-55,-29.700000000000003,0.193,-0.834,99.76,2.0,,0.0,0.0,
2025-08-15T02:03:59.138Z,14,GR86-016-55,-28.1,0.251,-0.913,99.76,2.0,6806.0,0.0,0.0,
2025-08-15T02:03:59.181Z,14,GR86-016-55,-26.3,0.288,-0.965,99.75,2.0,,0.0,0.0,115.28
2025-08-15T02:03:59.224Z,14,GR86-016-55,-24.9,0.272,-0.892,99.75,2.0,,0.0,0.0,
2025-08-15T02:03:59.267Z,14,GR86-016-55,-23.0,0.264,-0.92,99.76,2.0,,0.0,0.0,
2025-08-15T02:03:59.310Z,14,GR86-016-55,-20.700000000000003,0.301,-0.792,99.76,2.0,,0.0,0.0,
2025-08-15T02:03:59.353Z,14,GR86-016-55,-19.0,0.248,-0.856,99.73,2.0,6885.0,0.0,0.0,
2025-08-15T02:03:59.396Z,14,GR86-016-55,-17.400000000000002,0.314,-0.731,99.75,2.0,,0.0,0.0,117.37
2025-08-15T02:03:59.439Z,14,GR86-016-55,-16.6,0.395,-0.677,99.76,2.0,,0.0,0.0,
2025-08-15T02:03:59.482Z,14,GR86-016-55,-18.2,0.327,-0.656,99.76,2.0,,0.0,0.0,
2025-08-15T02:03:59.526Z,14,GR86-016-55,-20.4,0.178,-0.669,99.75,2.0,,0.0,0.0,
2025-08-15T02:03:59.568Z,14,GR86-016-55,-20.9,0.373,-0.592,99.77,2.0,6953.0,0.0,0.0,
2025-08-15T02:03:59.612Z,14,GR86-016-55,-13.2,0.309,-0.8190000000000001,99.77,2.0,,0.0,0.0,117.76
2025-08-15T02:03:59.655Z,14,GR86-016-55,-5.4,0.387,-0.685,99.76,2.0,,0.0,0.0,
2025-08-15T02:03:59.698Z,14,GR86-016-55,-1.6,0.355,-0.605,99.78,2.0,,0.0,0.0,
2025-08-15T02:03:59.741Z,14,GR86-016-55,-1.5,0.328,-0.5740000000000001,99.76,2.0,,0.0,0.0,
2025-08-15T02:03:59.786Z,14,GR86-016-55,-4.5,0.343,-0.383,99.75,2.0,7066.0,0.0,0.0,
2025-08-15T02:03:59.829Z,14,GR86-016-55,-9.0,0.299,-0.537,99.75,2.0,,0.0,0.0,119.8
2025-08-15T02:03:59.872Z,14,GR86-016-55,-10.1,0.285,-0.5660000000000001,99.74,2.0,,0.0,0.0,
2025-08-15T02:03:59.915Z,14,GR86-016-55,-7.5,0.269,-0.53,99.76,2.0,,0.0,0.0,
2025-08-15T02:03:59.958Z,14,GR86-016-55,-1.0,0.283,-0.53,99.78,2.0,,0.0,0.0,
2025-08-15T02:04:00.001Z,14,GR86-016-55,2.5,0.265,-0.331,99.77,2.0,7126.0,0.0,0.0,
2025-08-15T02:04:00.044Z,14,GR86-016-55,3.0,0.052,-0.241,99.76,3.0,,0.0,0.0,123.08
2025-08-15T02:04:00.087Z,14,GR86-016-55,2.5,0.015,-0.031,99.78,3.0,,0.0,0.0,
2025-08-15T02:04:00.132Z,14,GR86-016-55,2.1,0.616,-0.184,99.75,3.0,,0.0,0.0,
2025-08-15T02:04:00.175Z,14,GR86-016-55,0.8,0.4,-0.025,99.75,3.0,,0.0,0.0,
2025-08-15T02:04:00.218Z,14,GR86-016-55,-2.0,0.161,0.023,99.75,3.0,7241.0,0.0,0.0,
2025-08-15T02:04:00.261Z,14,GR86-016-55,-3.4000000000000004,0.101,0.051,99.75,3.0,,0.0,0.0,125.18
2025-08-15T02:04:00.304Z,14,GR86-016-55,-3.0,0.288,0.07,99.76,3.0,,0.0,0.0,
2025-08-15T02:04:00.347Z,14,GR86-016-55,-0.7000000000000001,0.385,0.113,99.76,3.0,,0.0,0.0,
2025-08-15T02:04:00.392Z,14,GR86-016-55,-0.3,0.322,-0.014,99.75,3.0,,0.0,0.0,
2025-08-15T02:04:00.436Z,14,GR86-016-55,-0.8,0.047,0.193,99.78,3.0,5898.0,0.0,0.0,
2025-08-15T02:04:00.478Z,14,GR86-016-55,-0.9,0.057,0.033,99.76,3.0,,0.0,0.0,126.58
2025-08-15T02:04:00.522Z,14,GR86-016-55,-0.7000000000000001,0.356,-0.045,99.76,3.0,,0.0,0.0,
2025-08-15T02:04:00.565Z,14,GR86-016-55,-0.8,0.394,-0.031,99.75,3.0,,0.0,0.0,
2025-08-15T02:04:00.609Z,14,GR86-016-55,-1.2000000000000002,0.152,-0.026,99.76,3.0,,0.0,0.0,
2025-08-15T02:04:00.652Z,14,GR86-016-55,-1.4,0.106,0.039,99.76,3.0,6016.0,0.0,0.0,
2025-08-15T02:04:00.695Z,14,GR86-016-55,-1.3,0.212,0.072,99.76,3.0,,0.0,0.0,128.61
2025-08-15T02:04:00.738Z,14,GR86-016-55,-0.5,0.225,0.122,99.75,3.0,,0.0,0.0,
2025-08-15T02:04:00.781Z,14,GR86-016-55,0.0,0.285,0.051,99.76,3.0,,0.0,0.0,
2025-08-15T02:04:00.824Z,14,GR86-016-55,0.2,0.205,0.081,99.77,3.0,,0.0,0.0,
2025-08-15T02:04:00.867Z,14,GR86-016-55,0.2,0.196,0.043,99.75,3.0,6085.0,0.0,0.0,
2025-08-15T02:04:00.910Z,14,GR86-016-55,0.8,0.229,0.023,99.75,3.0,,0.0,0.0,130.17000000000002
2025-08-15T02:04:00.953Z,14,GR86-016-55,2.3000000000000003,0.207,0.079,99.76,3.0,,0.0,0.0,
2025-08-15T02:04:00.996Z,14,GR86-016-55,2.4000000000000004,0.237,0.065,99.75,3.0,,0.0,0.0,
2025-08-15T02:04:01.038Z,14,GR86-016-55,2.2,0.22,0.059,99.76,3.0,,0.0,0.0,
2025-08-15T02:04:01.082Z,14,GR86-016-55,1.9,0.2,0.075,99.76,3.0,6165.0,0.0,0.0,
2025-08-15T02:04:01.125Z,14,GR86-016-55,1.9,0.204,0.075,99.75,3.0,,0.0,0.0,131.61
2025-08-15T02:04:01.168Z,14,GR86-016-55,1.8,0.237,0.061,99.77,3.0,,0.0,0.0,
2025-08-15T02:04:01.212Z,14,GR86-016-55,1.7000000000000002,0.194,0.064,99.75,3.0,,0.0,0.0,
2025-08-15T02:04:01.255Z,14,GR86-016-55,1.7000000000000002,0.226,0.034,99.76,3.0,,0.0,0.0,
2025-08-15T02:04:01.298Z,14,GR86-016-55,1.7000000000000002,0.228,0.02,99.75,3.0,6241.0,0.0,0.0,
2025-08-15T02:04:01.341Z,14,GR86-016-55,1.7000000000000002,0.2,0.024,99.77,3.0,,0.0,0.0,133.12
2025-08-15T02:04:01.384Z,14,GR86-016-55,1.7000000000000002,0.215,0.017,99.76,3.0,,0.0,0.0,
2025-08-15T02:04:01.427Z,14,GR86-016-55,1.7000000000000002,0.224,-0.003,99.78,3.0,,0.0,0.0,
2025-08-15T02:04:01.470Z,14,GR86-016-55,1.7000000000000002,0.211,-0.009,99.76,3.0,,0.0,0.0,
2025-08-15T02:04:01.513Z,14,GR86-016-55,1.8,0.239,-0.005,99.75,3.0,6322.0,0.0,0.0,
2025-08-15T02:04:01.556Z,14,GR86-016-55,1.9,0.206,0.01,99.76,3.0,,0.0,0.0,134.61
2025-08-15T02:04:01.598Z,14,GR86-016-55,2.5,0.183,0.018,99.77,3.0,,0.0,0.0,
2025-08-15T02:04:01.642Z,14,GR86-016-55,4.1000000000000005,0.227,0.025,99.76,3.0,,0.0,0.0,
2025-08-15T02:04:01.685Z,14,GR86-016-55,4.800000000000001,0.232,0.033,99.77,3.0,,0.0,0.0,
2025-08-15T02:04:01.728Z,14,GR86-016-55,4.9,0.199,0.062,99.75,3.0,6384.0,0.0,0.0,
2025-08-15T02:04:01.771Z,14,GR86-016-55,4.7,0.225,0.088,99.75,3.0,,0.0,0.0,136.15
2025-08-15T02:04:01.814Z,14,GR86-016-55,4.6000000000000005,0.202,0.111,99.75,3.0,,0.0,0.0,
2025-08-15T02:04:01.857Z,14,GR86-016-55,4.5,0.2,0.126,99.76,3.0,,0.0,0.0,
2025-08-15T02:04:01.900Z,14,GR86-016-55,4.5,0.216,0.118,99.77,3.0,,0.0,0.0,
2025-08-15T02:04:01.943Z,14,GR86-016-55,4.4,0.244,0.102,99.75,3.0,6458.0,0.0,0.0,
2025-08-15T02:04:01.986Z,14,GR86-016-55,4.3,0.211,0.127,99.75,3.0,,0.0,0.0,137.61
2025-08-15T02:04:02.032Z,14,GR86-016-55,4.3,0.229,0.094,99.75,3.0,,0.0,0.0,
2025-08-15T02:04:02.075Z,14,GR86-016-55,4.2,0.185,0.093,99.75,3.0,,0.0,0.0,
2025-08-15T02:04:02.118Z,14,GR86-016-55,4.1000000000000005,0.178,0.098,99.76,3.0,,0.0,0.0,
2025-08-15T02:04:02.161Z,14,GR86-016-55,4.1000000000000005,0.217,0.076,99.76,3.0,6522.0,0.0,0.0,
2025-08-15T02:04:02.204Z,14,GR86-016-55,4.1000000000000005,0.232,0.047,99.76,3.0,,0.0,0.0,139.0
2025-08-15T02:04:02.247Z,14,GR86-016-55,4.0,0.218,0.038,99.77,3.0,,0.0,0.0,
2025-08-15T02:04:02.290Z,14,GR86-016-55,3.8,0.221,0.017,99.76,3.0,,0.0,0.0,
2025-08-15T02:04:02.335Z,14,GR86-016-55,3.7,0.191,0.042,99.75,3.0,,0.0,0.0,
2025-08-15T02:04:02.378Z,14,GR86-016-55,3.7,0.177,0.044,99.75,3.0,6594.0,0.0,0.0,
2025-08-15T02:04:02.421Z,14,GR86-016-55,3.7,0.206,0.05,99.76,3.0,,0.0,0.0,140.43
2025-08-15T02:04:02.464Z,14,GR86-016-55,3.7,0.223,0.025,99.76,3.0,,0.0,0.0,
2025-08-15T02:04:02.507Z,14,GR86-016-55,3.7,0.227,0.033,99.77,3.0,,0.0,0.0,
2025-08-15T02:04:02.550Z,14,GR86-016-55,3.5,0.206,0.026,99.75,3.0,,0.0,0.0,
2025-08-15T02:04:02.593Z,14,GR86-016-55,3.4000000000000004,0.212,0.035,99.75,3.0,6649.0,0.0,0.0,
2025-08-15T02:04:02.636Z,14,GR86-016-55,3.1,0.223,0.016,99.76,3.0,,0.0,0.0,143.22
2025-08-15T02:04:02.679Z,14,GR86-016-55,2.9000000000000004,0.181,0.051,99.76,3.0,,0.0,0.0,
2025-08-15T02:04:02.722Z,14,GR86-016-55,2.7,0.188,0.037,99.75,3.0,,0.0,0.0,
2025-08-15T02:04:02.765Z,14,GR86-016-55,2.6,0.217,0.017,99.75,3.0,,0.0,0.0,
2025-08-15T02:04:02.808Z,14,GR86-016-55,2.5,0.232,-0.001,99.78,3.0,6714.0,0.0,0.0,
2025-08-15T02:04:02.851Z,14,GR86-016-55,2.2,0.212,-0.015,99.75,3.0,,0.0,0.0,144.54
2025-08-15T02:04:02.894Z,14,GR86-016-55,1.9,0.21,-0.005,99.76,3.0,,0.0,0.0,
2025-08-15T02:04:02.937Z,14,GR86-016-55,1.4,0.207,-0.028,99.77,3.0,,0.0,0.0,
2025-08-15T02:04:02.982Z,14,GR86-016-55,0.3,0.175,-0.014,99.77,3.0,,0.0,0.0,
2025-08-15T02:04:03.026Z,14,GR86-016-55,-0.1,0.188,-0.049,99.76,3.0,6780.0,0.0,0.0,
2025-08-15T02:04:03.069Z,14,GR86-016-55,-0.8,0.215,-0.065,99.77,3.0,,0.0,0.0,145.87
2025-08-15T02:04:03.112Z,14,GR86-016-55,-1.2000000000000002,0.2,-0.09,99.75,3.0,,0.0,0.0,
2025-08-15T02:04:03.155Z,14,GR86-016-55,-1.4,0.189,-0.106,99.75,3.0,,0.0,0.0,
2025-08-15T02:04:03.198Z,14,GR86-016-55,-1.4,0.211,-0.126,99.77,3.0,,0.0,0.0,
2025-08-15T02:04:03.242Z,14,GR86-016-55,-1.5,0.203,-0.159,99.78,3.0,6896.0,0.0,0.0,
2025-08-15T02:04:03.286Z,14,GR86-016-55,-1.4,0.185,-0.144,99.75,3.0,,0.0,0.0,147.14
2025-08-15T02:04:03.328Z,14,GR86-016-55,-1.4,0.174,-0.153,99.76,3.0,,0.0,0.0,
2025-08-15T02:04:03.372Z,14,GR86-016-55,-1.3,0.192,-0.135,99.76,3.0,,0.0,0.0,
2025-08-15T02:04:03.415Z,14,GR86-016-55,-1.2000000000000002,0.177,-0.119,99.77,3.0,,0.0,0.0,
2025-08-15T02:04:03.458Z,14,GR86-016-55,-1.3,0.196,-0.117,99.75,3.0,6949.0,0.0,0.0,
2025-08-15T02:04:03.501Z,14,GR86-016-55,-1.3,0.2,-0.111,99.77,3.0,,0.0,0.0,148.44
2025-08-15T02:04:03.544Z,14,GR86-016-55,-1.3,0.203,-0.114,99.76,3.0,,0.0,0.0,
2025-08-15T02:04:03.587Z,14,GR86-016-55,-1.3,0.198,-0.106,99.77,3.0,,0.0,0.0,
2025-08-15T02:04:03.632Z,14,GR86-016-55,-1.4,0.204,-0.077,99.76,3.0,,0.0,0.0,
2025-08-15T02:04:03.675Z,14,GR86-016-55,-1.4,0.188,-0.075,99.75,3.0,7012.0,0.0,0.0,
2025-08-15T02:04:03.718Z,14,GR86-016-55,-1.3,0.185,-0.087,99.76,3.0,,0.0,0.0,149.69
2025-08-15T02:04:03.761Z,14,GR86-016-55,-1.2000000000000002,0.177,-0.077,99.75,3.0,,0.0,0.0,
2025-08-15T02:04:03.805Z,14,GR86-016-55,-1.3,0.18,-0.074,99.78,3.0,,0.0,0.0,
2025-08-15T02:04:03.848Z,14,GR86-016-55,-1.5,0.199,-0.108,99.75,3.0,,0.0,0.0,
2025-08-15T02:04:03.891Z,14,GR86-016-55,-1.9,0.187,-0.101,99.76,3.0,7072.0,0.0,0.0,
2025-08-15T02:04:03.934Z,14,GR86-016-55,-1.9,0.174,-0.128,99.76,3.0,,0.0,0.0,150.92000000000002
2025-08-15T02:04:03.977Z,14,GR86-016-55,-1.8,0.196,-0.143,99.76,3.0,,0.0,0.0,
2025-08-15T02:04:04.020Z,14,GR86-016-55,-1.7000000000000002,0.194,-0.126,99.77,3.0,,0.0,0.0,
2025-08-15T02:04:04.063Z,14,GR86-016-55,-1.5,0.195,-0.129,99.76,3.0,,0.0,0.0,
2025-08-15T02:04:04.106Z,14,GR86-016-55,-1.3,0.187,-0.122,99.76,3.0,7131.0,0.0,0.0,
2025-08-15T02:04:04.150Z,14,GR86-016-55,-1.2000000000000002,0.201,-0.134,99.76,3.0,,0.0,0.0,152.16
2025-08-15T02:04:04.193Z,14,GR86-016-55,-1.1,0.198,-0.1,99.77,3.0,,0.0,0.0,
2025-08-15T02:04:04.237Z,14,GR86-016-55,-0.9,0.17,-0.062,99.75,3.0,,0.0,0.0,
2025-08-15T02:04:04.280Z,14,GR86-016-55,-0.9,0.178,-0.065,99.77,3.0,,0.0,0.0,
2025-08-15T02:04:04.323Z,14,GR86-016-55,-0.8,0.178,-0.049,99.76,3.0,7194.0,0.0,0.0,
2025-08-15T02:04:04.366Z,14,GR86-016-55,-0.6000000000000001,0.201,-0.053,99.77,3.0,,0.0,0.0,153.37
2025-08-15T02:04:04.408Z,14,GR86-016-55,-0.5,0.184,-0.041,99.79,3.0,,0.0,0.0,
2025-08-15T02:04:04.452Z,14,GR86-016-55,-0.7000000000000001,0.167,-0.03,99.75,3.0,,0.0,0.0,
2025-08-15T02:04:04.495Z,14,GR86-016-55,-0.6000000000000001,-0.075,-0.033,99.75,4.0,,0.0,0.0,
2025-08-15T02:04:04.538Z,14,GR86-016-55,-0.3,0.333,0.004,99.77,4.0,7246.0,0.0,0.0,
2025-08-15T02:04:04.581Z,14,GR86-016-55,-0.2,0.444,-0.122,99.75,4.0,,0.0,0.0,154.59
2025-08-15T02:04:04.624Z,14,GR86-016-55,-0.2,0.193,-0.063,99.77,4.0,,0.0,0.0,
2025-08-15T02:04:04.667Z,14,GR86-016-55,-0.3,-0.002,0.03,99.76,4.0,,0.0,0.0,
2025-08-15T02:04:04.710Z,14,GR86-016-55,-0.4,0.17,-0.092,99.76,4.0,,0.0,0.0,
2025-08-15T02:04:04.754Z,14,GR86-016-55,-0.4,0.238,-0.012,99.75,4.0,7293.0,0.0,0.0,
2025-08-15T02:04:04.797Z,14,GR86-016-55,-0.4,0.16,-0.058,99.75,4.0,,0.0,0.0,155.81
2025-08-15T02:04:04.840Z,14,GR86-016-55,-0.4,0.104,-0.057,99.75,4.0,,0.0,0.0,
2025-08-15T02:04:04.883Z,14,GR86-016-55,-0.3,0.146,-0.031,99.77,4.0,,0.0,0.0,
2025-08-15T02:04:04.926Z,14,GR86-016-55,-0.2,0.189,-0.078,99.75,4.0,,0.0,0.0,
2025-08-15T02:04:04.968Z,14,GR86-016-55,0.0,0.175,-0.088,99.77,4.0,6021.0,0.0,0.0,
2025-08-15T02:04:05.012Z,14,GR86-016-55,0.2,0.142,-0.078,99.75,4.0,,0.0,0.0,156.94
2025-08-15T02:04:05.055Z,14,GR86-016-55,0.2,0.154,-0.051,99.76,4.0,,0.0,0.0,
2025-08-15T02:04:05.098Z,14,GR86-016-55,0.3,0.175,-0.06,99.76,4.0,,0.0,0.0,
2025-08-15T02:04:05.141Z,14,GR86-016-55,0.5,0.182,-0.058,99.75,4.0,,0.0,0.0,
2025-08-15T02:04:05.187Z,14,GR86-016-55,0.8,0.163,-0.035,99.78,4.0,6212.0,0.0,0.0,
2025-08-15T02:04:05.232Z,14,GR86-016-55,1.2000000000000002,0.151,0.024,99.75,4.0,,0.0,0.0,159.45000000000002
2025-08-15T02:04:05.275Z,14,GR86-016-55,1.2000000000000002,0.171,0.007,99.78,4.0,,0.0,0.0,
2025-08-15T02:04:05.318Z,14,GR86-016-55,1.1,0.178,-0.005,99.75,4.0,,0.0,0.0,
2025-08-15T02:04:05.361Z,14,GR86-016-55,1.0,0.171,0.009,99.75,4.0,,0.0,0.0,
2025-08-15T02:04:05.404Z,14,GR86-016-55,0.9,0.154,-0.004,99.75,4.0,6280.0,0.0,0.0,
2025-08-15T02:04:05.447Z,14,GR86-016-55,0.9,0.14,0.012,99.77,4.0,,0.0,0.0,160.46
2025-08-15T02:04:05.492Z,14,GR86-016-55,0.8,0.177,-0.013,99.75,4.0,,0.0,0.0,
2025-08-15T02:04:05.536Z,14,GR86-016-55,0.8,0.158,-0.014,99.77,4.0,,0.0,0.0,
2025-08-15T02:04:05.578Z,14,GR86-016-55,0.8,0.155,-0.016,99.75,4.0,,0.0,0.0,
2025-08-15T02:04:05.622Z,14,GR86-016-55,0.8,0.135,-0.007,99.77,4.0,6311.0,0.0,0.0,
2025-08-15T02:04:05.665Z,14,GR86-016-55,0.7000000000000001,0.149,0.012,99.76,4.0,,0.0,0.0,161.46
2025-08-15T02:04:05.708Z,14,GR86-016-55,0.7000000000000001,0.129,-0.017,99.77,4.0,,0.0,0.0,
2025-08-15T02:04:05.751Z,14,GR86-016-55,0.7000000000000001,0.137,-0.039,99.76,4.0,,0.0,0.0,
2025-08-15T02:04:05.794Z,14,GR86-016-55,0.7000000000000001,0.146,-0.048,99.75,4.0,,0.0,0.0,
2025-08-15T02:04:05.837Z,14,GR86-016-55,0.7000000000000001,0.141,-0.032,99.76,4.0,6397.0,0.0,0.0,
2025-08-15T02:04:05.880Z,14,GR86-016-55,0.7000000000000001,0.126,-0.03,99.75,4.0,,0.0,0.0,162.43
2025-08-15T02:04:05.923Z,14,GR86-016-55,0.7000000000000001,0.156,-0.037,99.77,4.0,,0.0,0.0,
2025-08-15T02:04:05.966Z,14,GR86-016-55,0.7000000000000001,0.14,-0.03,99.78,4.0,,0.0,0.0,
2025-08-15T02:04:06.009Z,14,GR86-016-55,0.7000000000000001,0.149,-0.045,99.75,4.0,,0.0,0.0,
2025-08-15T02:04:06.052Z,14,GR86-016-55,0.7000000000000001,0.127,-0.047,99.75,4.0,6433.0,0.0,0.0,
2025-08-15T02:04:06.095Z,14,GR86-016-55,0.7000000000000001,0.131,-0.024,99.76,4.0,,0.0,0.0,163.36
2025-08-15T02:04:06.138Z,14,GR86-016-55,0.7000000000000001,0.144,-0.044,99.79,4.0,,0.0,0.0,
2025-08-15T02:04:06.181Z,14,GR86-016-55,0.8,0.139,-0.023,99.76,4.0,,0.0,0.0,
2025-08-15T02:04:06.224Z,14,GR86-016-55,0.8,0.153,-0.007,99.75,4.0,,0.0,0.0,
2025-08-15T02:04:06.267Z,14,GR86-016-55,0.7000000000000001,0.166,-0.005,99.76,4.0,6481.0,0.0,0.0,
2025-08-15T02:04:06.310Z,14,GR86-016-55,0.7000000000000001,0.133,-0.003,99.75,4.0,,0.0,0.0,164.34
2025-08-15T02:04:06.353Z,14,GR86-016-55,0.6000000000000001,0.136,0.013,99.77,4.0,,0.0,0.0,
2025-08-15T02:04:06.396Z,14,GR86-016-55,0.6000000000000001,0.146,0.007,99.76,4.0,,0.0,0.0,
2025-08-15T02:04:06.438Z,14,GR86-016-55,0.6000000000000001,0.151,0.002,99.75,4.0,,0.0,0.0,
2025-08-15T02:04:06.482Z,14,GR86-016-55,0.5,0.158,-0.003,99.75,4.0,6523.0,0.0,0.0,
2025-08-15T02:04:06.525Z,14,GR86-016-55,0.4,0.174,-0.024,99.75,4.0,,0.0,0.0,165.37
2025-08-15T02:04:06.569Z,14,GR86-016-55,0.4,0.16,-0.024,99.75,4.0,,0.0,0.0,
2025-08-15T02:04:06.612Z,14,GR86-016-55,0.3,0.127,-0.033,99.76,4.0,,0.0,0.0,
2025-08-15T02:04:06.655Z,14,GR86-016-55,0.3,0.158,-0.04,99.75,4.0,,0.0,0.0,
2025-08-15T02:04:06.698Z,14,GR86-016-55,0.3,0.143,-0.044,99.75,4.0,6549.0,0.0,0.0,
2025-08-15T02:04:06.741Z,14,GR86-016-55,0.3,0.158,-0.035,99.75,4.0,,0.0,0.0,166.42000000000002
2025-08-15T02:04:06.785Z,14,GR86-016-55,0.2,0.172,-0.04,99.78,4.0,,0.0,0.0,
2025-08-15T02:04:06.828Z,14,GR86-016-55,0.2,0.17,-0.043,99.76,4.0,,0.0,0.0,
2025-08-15T02:04:06.871Z,14,GR86-016-55,0.0,0.134,-0.042,99.76,4.0,,0.0,0.0,
2025-08-15T02:04:06.915Z,14,GR86-016-55,-0.1,0.136,-0.042,99.76,4.0,6591.0,0.0,0.0,
2025-08-15T02:04:06.958Z,14,GR86-016-55,-0.2,0.154,-0.057,99.78,4.0,,0.0,0.0,167.53
2025-08-15T02:04:07.001Z,14,GR86-016-55,-0.3,0.145,-0.053,99.76,4.0,,0.0,0.0,
2025-08-15T02:04:07.044Z,14,GR86-016-55,-0.3,0.162,-0.105,99.76,4.0,,0.0,0.0,
2025-08-15T02:04:07.087Z,14,GR86-016-55,-0.3,0.167,-0.098,99.75,4.0,,0.0,0.0,
2025-08-15T02:04:07.132Z,14,GR86-016-55,-0.4,0.126,-0.095,99.76,4.0,6630.0,0.0,0.0,
2025-08-15T02:04:07.175Z,14,GR86-016-55,-0.4,0.14,-0.096,99.74,4.0,,0.0,0.0,168.54
2025-08-15T02:04:07.218Z,14,GR86-016-55,-0.4,0.145,-0.096,99.76,4.0,,0.0,0.0,
2025-08-15T02:04:07.261Z,14,GR86-016-55,-0.4,0.14,-0.093,99.76,4.0,,0.0,0.0,
2025-08-15T02:04:07.304Z,14,GR86-016-55,-0.5,0.155,-0.118,99.77,4.0,,0.0,0.0,
2025-08-15T02:04:07.347Z,14,GR86-016-55,-0.5,0.146,-0.095,99.77,4.0,6685.0,0.0,0.0,
2025-08-15T02:04:07.390Z,14,GR86-016-55,-0.4,0.147,-0.105,99.75,4.0,,0.0,0.0,169.64
2025-08-15T02:04:07.435Z,14,GR86-016-55,-0.4,0.14,-0.086,99.75,4.0,,0.0,0.0,
2025-08-15T02:04:07.478Z,14,GR86-016-55,-0.4,0.126,-0.095,99.75,4.0,,0.0,0.0,
2025-08-15T02:04:07.521Z,14,GR86-016-55,-0.4,0.136,-0.069,99.76,4.0,,0.0,0.0,
2025-08-15T02:04:07.564Z,14,GR86-016-55,-0.5,0.135,-0.072,99.76,4.0,6726.0,0.0,0.0,
2025-08-15T02:04:07.607Z,14,GR86-016-55,-0.5,0.128,-0.043,99.76,4.0,,0.0,0.0,170.70000000000002
2025-08-15T02:04:07.650Z,14,GR86-016-55,-0.6000000000000001,0.139,-0.056,99.75,4.0,,0.0,0.0,
2025-08-15T02:04:07.692Z,14,GR86-016-55,-0.6000000000000001,0.134,-0.039,99.75,4.0,,0.0,0.0,
2025-08-15T02:04:07.736Z,14,GR86-016-55,-0.6000000000000001,0.144,-0.046,99.75,4.0,,0.0,0.0,
2025-08-15T02:04:07.779Z,14,GR86-016-55,-0.7000000000000001,0.137,-0.037,99.76,4.0,6753.0,0.0,0.0,
2025-08-15T02:04:07.822Z,14,GR86-016-55,-0.7000000000000001,0.122,-0.034,99.77,4.0,,0.0,0.0,171.78
2025-08-15T02:04:07.865Z,14,GR86-016-55,-0.9,0.155,-0.06,99.76,4.0,,0.0,0.0,
2025-08-15T02:04:07.908Z,14,GR86-016-55,-1.1,0.135,-0.065,99.77,4.0,,0.0,0.0,
2025-08-15T02:04:07.951Z,14,GR86-016-55,-1.2000000000000002,0.132,-0.101,99.77,4.0,,0.0,0.0,
2025-08-15T02:04:07.994Z,14,GR86-016-55,-1.2000000000000002,0.156,-0.113,99.76,4.0,6802.0,0.0,0.0,
2025-08-15T02:04:08.037Z,14,GR86-016-55,-1.2000000000000002,0.125,-0.125,99.78,4.0,,0.0,0.0,173.98
2025-08-15T02:04:08.080Z,14,GR86-016-55,-1.2000000000000002,0.153,-0.121,99.75,4.0,,0.0,0.0,
2025-08-15T02:04:08.125Z,14,GR86-016-55,-1.2000000000000002,0.132,-0.135,99.75,4.0,,0.0,0.0,
2025-08-15T02:04:08.168Z,14,GR86-016-55,-1.2000000000000002,0.121,-0.123,99.76,4.0,,0.0,0.0,
2025-08-15T02:04:08.211Z,14,GR86-016-55,-1.1,0.122,-0.148,99.75,4.0,6850.0,0.0,0.0,
2025-08-15T02:04:08.254Z,14,GR86-016-55,-1.1,0.142,-0.115,99.76,4.0,,0.0,0.0,174.92000000000002
2025-08-15T02:04:08.297Z,14,GR86-016-55,-1.2000000000000002,0.12,-0.123,99.76,4.0,,0.0,0.0,
2025-08-15T02:04:08.340Z,14,GR86-016-55,-1.2000000000000002,0.128,-0.124,99.75,4.0,,0.0,0.0,
2025-08-15T02:04:08.386Z,14,GR86-016-55,-1.3,0.136,-0.117,99.75,4.0,,0.0,0.0,
2025-08-15T02:04:08.428Z,14,GR86-016-55,-1.3,0.131,-0.131,99.75,4.0,6886.0,0.0,0.0,
2025-08-15T02:04:08.472Z,14,GR86-016-55,-1.4,0.119,-0.095,99.76,4.0,,0.0,0.0,175.89
2025-08-15T02:04:08.515Z,14,GR86-016-55,-1.6,0.123,-0.117,99.75,4.0,,0.0,0.0,
2025-08-15T02:04:08.558Z,14,GR86-016-55,-1.7000000000000002,0.138,-0.121,99.77,4.0,,0.0,0.0,
2025-08-15T02:04:08.601Z,14,GR86-016-55,-1.8,0.125,-0.118,99.77,4.0,,0.0,0.0,
2025-08-15T02:04:08.644Z,14,GR86-016-55,-1.8,0.135,-0.127,99.76,4.0,6960.0,0.0,0.0,
2025-08-15T02:04:08.687Z,14,GR86-016-55,-1.8,0.131,-0.127,99.76,4.0,,0.0,0.0,176.99
2025-08-15T02:04:08.731Z,14,GR86-016-55,-1.7000000000000002,0.122,-0.103,99.76,4.0,,0.0,0.0,
2025-08-15T02:04:08.775Z,14,GR86-016-55,-1.7000000000000002,0.132,-0.132,99.76,4.0,,0.0,0.0,
2025-08-15T02:04:08.818Z,14,GR86-016-55,-1.8,0.126,-0.12,99.73,4.0,,0.0,0.0,
2025-08-15T02:04:08.861Z,14,GR86-016-55,-1.9,0.105,-0.122,99.77,4.0,7004.0,0.0,0.0,
2025-08-15T02:04:08.905Z,14,GR86-016-55,-2.0,0.126,-0.131,99.76,4.0,,0.0,0.0,178.02
2025-08-15T02:04:08.948Z,14,GR86-016-55,-2.2,0.125,-0.134,99.75,4.0,,0.0,0.0,
2025-08-15T02:04:08.991Z,14,GR86-016-55,-2.1,0.106,-0.145,99.75,4.0,,0.0,0.0,
2025-08-15T02:04:09.034Z,14,GR86-016-55,-2.1,0.132,-0.139,99.75,4.0,,0.0,0.0,
2025-08-15T02:04:09.077Z,14,GR86-016-55,-2.1,0.138,-0.144,99.75,4.0,7032.0,0.0,0.0,
2025-08-15T02:04:09.120Z,14,GR86-016-55,-2.0,0.114,-0.133,99.76,4.0,,0.0,0.0,178.9
2025-08-15T02:04:09.163Z,14,GR86-016-55,-2.0,0.124,-0.152,99.73,4.0,,0.0,0.0,
2025-08-15T02:04:09.206Z,14,GR86-016-55,-2.0,0.13,-0.123,99.76,4.0,,0.0,0.0,
2025-08-15T02:04:09.248Z,14,GR86-016-55,-2.0,0.139,-0.116,99.75,4.0,,0.0,0.0,
2025-08-15T02:04:09.292Z,14,GR86-016-55,-1.9,0.124,-0.086,99.75,4.0,7071.0,0.0,0.0,
2025-08-15T02:04:09.335Z,14,GR86-016-55,-1.8,0.127,-0.068,99.77,4.0,,0.0,0.0,179.82
2025-08-15T02:04:09.378Z,14,GR86-016-55,-1.5,0.108,-0.043,99.76,4.0,,0.0,0.0,
2025-08-15T02:04:09.421Z,14,GR86-016-55,-1.2000000000000002,0.116,-0.039,99.76,4.0,,0.0,0.0,
2025-08-15T02:04:09.464Z,14,GR86-016-55,-1.2000000000000002,0.134,-0.029,99.77,4.0,,0.0,0.0,
2025-08-15T02:04:09.507Z,14,GR86-016-55,-1.3,0.119,-0.037,99.77,4.0,7101.0,0.0,0.0,
2025-08-15T02:04:09.550Z,14,GR86-016-55,-1.4,0.131,-0.039,99.78,4.0,,0.0,0.0,180.81
2025-08-15T02:04:09.592Z,14,GR86-016-55,-1.6,0.128,-0.047,99.76,4.0,,0.0,0.0,
2025-08-15T02:04:09.636Z,14,GR86-016-55,-1.6,0.129,-0.034,99.76,4.0,,0.0,0.0,
2025-08-15T02:04:09.678Z,14,GR86-016-55,-1.6,0.121,-0.062,99.73,4.0,,0.0,0.0,
2025-08-15T02:04:09.722Z,14,GR86-016-55,-1.7000000000000002,0.148,-0.055,99.76,4.0,7147.0,0.0,0.0,
2025-08-15T02:04:09.765Z,14,GR86-016-55,-1.7000000000000002,0.132,-0.082,99.78,4.0,,0.0,0.0,181.69
2025-08-15T02:04:09.808Z,14,GR86-016-55,-1.7000000000000002,0.125,-0.104,99.77,4.0,,0.0,0.0,
2025-08-15T02:04:09.851Z,14,GR86-016-55,-1.7000000000000002,0.111,-0.113,99.79,4.0,,0.0,0.0,
2025-08-15T02:04:09.895Z,14,GR86-016-55,-1.7000000000000002,0.124,-0.142,99.77,4.0,,0.0,0.0,
2025-08-15T02:04:09.938Z,14,GR86-016-55,-1.6,0.103,-0.126,99.77,4.0,7175.0,0.0,0.0,
2025-08-15T02:04:09.982Z,14,GR86-016-55,-1.6,0.103,-0.151,99.74,4.0,,0.0,0.0,182.71
2025-08-15T02:04:10.025Z,14,GR86-016-55,-1.6,0.106,-0.11,99.76,4.0,,0.0,0.0,
2025-08-15T02:04:10.068Z,14,GR86-016-55,-1.6,0.121,-0.154,99.77,4.0,,0.0,0.0,
2025-08-15T02:04:10.112Z,14,GR86-016-55,-1.7000000000000002,-0.065,-0.112,99.75,5.0,,0.0,0.0,
2025-08-15T02:04:10.155Z,14,GR86-016-55,-1.7000000000000002,0.071,-0.063,99.76,5.0,7210.0,0.0,0.0,
2025-08-15T02:04:10.198Z,14,GR86-016-55,-1.6,0.432,-0.098,99.75,5.0,,0.0,0.0,183.64
2025-08-15T02:04:10.241Z,14,GR86-016-55,-1.7000000000000002,0.091,-0.105,99.76,5.0,,0.0,0.0,
2025-08-15T02:04:10.286Z,14,GR86-016-55,-1.7000000000000002,-0.015,-0.034,99.76,5.0,,0.0,0.0,
2025-08-15T02:04:10.328Z,14,GR86-016-55,-1.6,0.082,-0.094,99.75,5.0,,0.0,0.0,
2025-08-15T02:04:10.372Z,14,GR86-016-55,-1.5,0.14,-0.075,99.75,5.0,7247.0,0.0,0.0,
2025-08-15T02:04:10.415Z,14,GR86-016-55,-1.5,0.072,-0.074,99.75,5.0,,0.0,0.0,184.64
2025-08-15T02:04:10.458Z,14,GR86-016-55,-1.4,0.081,-0.126,99.75,5.0,,0.0,0.0,
2025-08-15T02:04:10.501Z,14,GR86-016-55,-1.3,0.133,-0.059,99.76,5.0,,0.0,0.0,
2025-08-15T02:04:10.544Z,14,GR86-016-55,-1.4,0.12,-0.079,99.75,5.0,,0.0,0.0,
2025-08-15T02:04:10.587Z,14,GR86-016-55,-1.3,0.106,-0.067,99.76,5.0,6176.0,0.0,0.0,
2025-08-15T02:04:10.632Z,14,GR86-016-55,-1.2000000000000002,0.099,-0.053,99.76,5.0,,0.0,0.0,186.43
2025-08-15T02:04:10.675Z,14,GR86-016-55,-1.2000000000000002,0.103,-0.061,99.75,5.0,,0.0,0.0,
2025-08-15T02:04:10.718Z,14,GR86-016-55,-1.3,0.083,-0.056,99.75,5.0,,0.0,0.0,
2025-08-15T02:04:10.761Z,14,GR86-016-55,-1.3,0.085,-0.043,99.75,5.0,,0.0,0.0,
2025-08-15T02:04:10.804Z,14,GR86-016-55,-1.3,0.095,-0.055,99.75,5.0,6325.0,0.0,0.0,
2025-08-15T02:04:10.847Z,14,GR86-016-55,-1.3,0.105,-0.073,99.75,5.0,,0.0,0.0,187.23
2025-08-15T02:04:10.892Z,14,GR86-016-55,-1.3,0.119,-0.066,99.76,5.0,,0.0,0.0,
2025-08-15T02:04:10.935Z,14,GR86-016-55,-1.2000000000000002,0.102,-0.08,99.75,5.0,,0.0,0.0,
2025-08-15T02:04:10.978Z,14,GR86-016-55,-0.9,0.113,-0.062,99.75,5.0,,0.0,0.0,
2025-08-15T02:04:11.024Z,14,GR86-016-55,-0.4,0.091,-0.045,99.76,5.0,6371.0,0.0,0.0,
2025-08-15T02:04:11.067Z,14,GR86-016-55,-0.1,0.104,-0.045,99.75,5.0,,0.0,0.0,187.96
2025-08-15T02:04:11.110Z,14,GR86-016-55,0.0,0.109,-0.038,99.75,5.0,,0.0,0.0,
2025-08-15T02:04:11.153Z,14,GR86-016-55,0.2,0.115,-0.033,99.76,5.0,,0.0,0.0,
2025-08-15T02:04:11.196Z,14,GR86-016-55,0.7000000000000001,0.106,0.022,99.76,5.0,,0.0,0.0,
2025-08-15T02:04:11.238Z,14,GR86-016-55,1.2000000000000002,0.101,0.028,99.76,5.0,6428.0,0.0,0.0,
2025-08-15T02:04:11.282Z,14,GR86-016-55,1.5,0.12,0.045,99.75,5.0,,0.0,0.0,188.86
2025-08-15T02:04:11.325Z,14,GR86-016-55,1.7000000000000002,0.116,0.046,99.75,5.0,,0.0,0.0,
2025-08-15T02:04:11.368Z,14,GR86-016-55,1.6,0.089,0.068,99.76,5.0,,0.0,0.0,
2025-08-15T02:04:11.411Z,14,GR86-016-55,1.4,0.089,0.066,99.76,5.0,,0.0,0.0,
2025-08-15T02:04:11.497Z,14,GR86-016-55,1.2000000000000002,0.102,0.054,99.76,5.0,6452.0,0.0,0.0,189.63
2025-08-15T02:04:11.540Z,14,GR86-016-55,1.0,0.106,0.045,99.75,5.0,,0.0,0.0,
2025-08-15T02:04:11.583Z,14,GR86-016-55,1.0,0.107,0.021,99.75,5.0,,0.0,0.0,
2025-08-15T02:04:11.626Z,14,GR86-016-55,0.9,0.121,0.004,99.77,5.0,,0.0,0.0,
2025-08-15T02:04:11.668Z,14,GR86-016-55,0.9,0.095,-0.011,99.76,5.0,6482.0,0.0,0.0,
2025-08-15T02:04:11.712Z,14,GR86-016-55,0.9,0.082,-0.026,99.76,5.0,,0.0,0.0,190.39
2025-08-15T02:04:11.755Z,14,GR86-016-55,1.0,0.095,-0.038,99.75,5.0,,0.0,0.0,
2025-08-15T02:04:11.798Z,14,GR86-016-55,1.2000000000000002,0.1,-0.038,99.75,5.0,,0.0,0.0,
2025-08-15T02:04:11.841Z,14,GR86-016-55,1.5,0.104,-0.027,99.76,5.0,,0.0,0.0,
2025-08-15T02:04:11.885Z,14,GR86-016-55,1.6,0.11,-0.018,99.75,5.0,6501.0,0.0,0.0,
2025-08-15T02:04:11.928Z,14,GR86-016-55,1.5,0.104,0.011,99.75,5.0,,0.0,0.0,191.18
2025-08-15T02:04:11.971Z,14,GR86-016-55,1.6,0.092,0.049,99.75,5.0,,0.0,0.0,
2025-08-15T02:04:12.014Z,14,GR86-016-55,1.6,0.097,0.065,99.75,5.0,,0.0,0.0,
2025-08-15T02:04:12.057Z,14,GR86-016-55,1.6,0.092,0.04,99.76,5.0,,0.0,0.0,
2025-08-15T02:04:12.100Z,14,GR86-016-55,1.4,0.091,0.043,99.76,5.0,6523.0,0.0,0.0,
2025-08-15T02:04:12.143Z,14,GR86-016-55,1.4,0.097,0.064,99.77,5.0,,0.0,0.0,191.96
2025-08-15T02:04:12.186Z,14,GR86-016-55,1.3,0.102,0.06,99.75,5.0,,0.0,0.0,
2025-08-15T02:04:12.228Z,14,GR86-016-55,1.2000000000000002,0.089,0.045,99.77,5.0,,0.0,0.0,
2025-08-15T02:04:12.272Z,14,GR86-016-55,1.2000000000000002,0.086,0.042,99.77,5.0,,0.0,0.0,
2025-08-15T02:04:12.315Z,14,GR86-016-55,1.1,0.094,0.025,99.76,5.0,6554.0,0.0,0.0,
2025-08-15T02:04:12.358Z,14,GR86-016-55,1.0,0.1,0.012,99.76,5.0,,0.0,0.0,192.74
2025-08-15T02:04:12.401Z,14,GR86-016-55,1.0,0.087,0.003,99.75,5.0,,0.0,0.0,
2025-08-15T02:04:12.444Z,14,GR86-016-55,0.9,0.101,-0.013,99.75,5.0,,0.0,0.0,
2025-08-15T02:04:12.487Z,14,GR86-016-55,0.9,0.074,-0.018,99.76,5.0,,0.0,0.0,
2025-08-15T02:04:12.532Z,14,GR86-016-55,0.9,0.084,-0.005,99.75,5.0,6584.0,0.0,0.0,
2025-08-15T02:04:12.575Z,14,GR86-016-55,0.7000000000000001,0.095,-0.013,99.75,5.0,,0.0,0.0,193.51
2025-08-15T02:04:12.618Z,14,GR86-016-55,0.1,0.062,-0.026,99.76,5.0,,0.0,0.0,
2025-08-15T02:04:12.661Z,14,GR86-016-55,-0.1,0.098,-0.049,99.77,5.0,,0.0,0.0,
2025-08-15T02:04:12.704Z,14,GR86-016-55,-0.2,0.105,-0.058,99.75,5.0,,0.0,0.0,
2025-08-15T02:04:12.747Z,14,GR86-016-55,-0.2,0.066,-0.071,99.75,5.0,6608.0,0.0,0.0,
2025-08-15T02:04:12.790Z,14,GR86-016-55,-0.1,0.076,-0.073,99.76,5.0,,0.0,0.0,194.1
2025-08-15T02:04:12.835Z,14,GR86-016-55,-0.1,0.093,-0.067,99.76,5.0,,0.0,0.0,
2025-08-15T02:04:12.878Z,14,GR86-016-55,-0.2,0.068,-0.077,99.76,5.0,,0.0,0.0,
2025-08-15T02:04:12.921Z,14,GR86-016-55,-0.3,0.089,-0.069,99.75,5.0,,0.0,0.0,
2025-08-15T02:04:12.964Z,14,GR86-016-55,-0.3,0.092,-0.068,99.74,5.0,6633.0,0.0,0.0,
2025-08-15T02:04:13.007Z,14,GR86-016-55,-0.3,0.102,-0.101,99.75,5.0,,0.0,0.0,194.78
2025-08-15T02:04:13.050Z,14,GR86-016-55,-0.3,0.091,-0.081,99.76,5.0,,0.0,0.0,
2025-08-15T02:04:13.092Z,14,GR86-016-55,-0.4,0.078,-0.052,99.75,5.0,,0.0,0.0,
2025-08-15T02:04:13.136Z,14,GR86-016-55,-0.4,0.08,-0.07,99.75,5.0,,0.0,0.0,
2025-08-15T02:04:13.178Z,14,GR86-016-55,-0.4,0.074,-0.032,99.75,5.0,6643.0,0.0,0.0,
2025-08-15T02:04:13.222Z,14,GR86-016-55,-0.5,0.069,-0.076,99.75,5.0,,0.0,0.0,195.45
2025-08-15T02:04:13.265Z,14,GR86-016-55,-0.5,0.09,-0.087,99.76,5.0,,0.0,0.0,
2025-08-15T02:04:13.308Z,14,GR86-016-55,-0.5,0.054,-0.081,99.73,5.0,,0.0,0.0,
2025-08-15T02:04:13.351Z,14,GR86-016-55,-0.6000000000000001,0.062,-0.113,99.75,5.0,,0.0,0.0,
2025-08-15T02:04:13.394Z,14,GR86-016-55,-0.6000000000000001,0.069,-0.114,99.74,5.0,6665.0,0.0,0.0,
2025-08-15T02:04:13.437Z,14,GR86-016-55,-0.6000000000000001,0.068,-0.152,99.75,5.0,,0.0,0.0,196.84
2025-08-15T02:04:13.482Z,14,GR86-016-55,-0.6000000000000001,0.075,-0.152,99.75,5.0,,0.0,0.0,
2025-08-15T02:04:13.526Z,14,GR86-016-55,-0.6000000000000001,0.058,-0.139,99.75,5.0,,0.0,0.0,
2025-08-15T02:04:13.569Z,14,GR86-016-55,-0.6000000000000001,0.07,-0.123,99.75,5.0,,0.0,0.0,
2025-08-15T02:04:13.612Z,14,GR86-016-55,-0.6000000000000001,0.076,-0.077,99.76,5.0,6696.0,0.0,0.0,
2025-08-15T02:04:13.655Z,14,GR86-016-55,-0.7000000000000001,0.069,-0.084,99.76,5.0,,0.0,0.0,197.54
2025-08-15T02:04:13.698Z,14,GR86-016-55,-0.7000000000000001,0.073,-0.084,99.77,5.0,,0.0,0.0,
2025-08-15T02:04:13.742Z,14,GR86-016-55,-0.8,0.086,-0.093,99.76,5.0,,0.0,0.0,
2025-08-15T02:04:13.786Z,14,GR86-016-55,-1.2000000000000002,0.085,-0.098,99.75,5.0,,0.0,0.0,
2025-08-15T02:04:13.828Z,14,GR86-016-55,-2.0,0.088,-0.095,99.75,5.0,6714.0,0.0,0.0,
2025-08-15T02:04:13.872Z,14,GR86-016-55,-2.9000000000000004,0.074,-0.118,99.75,5.0,,0.0,0.0,198.07
2025-08-15T02:04:13.915Z,14,GR86-016-55,-3.1,0.089,-0.145,99.75,5.0,,0.0,0.0,
2025-08-15T02:04:13.958Z,14,GR86-016-55,-3.2,0.098,-0.169,99.74,5.0,,0.0,0.0,
2025-08-15T02:04:14.002Z,14,GR86-016-55,-3.2,0.082,-0.192,99.75,5.0,,0.0,0.0,
2025-08-15T02:04:14.045Z,14,GR86-016-55,-3.3000000000000003,0.081,-0.211,99.75,5.0,6758.0,0.0,0.0,
2025-08-15T02:04:14.088Z,14,GR86-016-55,-3.3000000000000003,0.094,-0.226,99.75,5.0,,0.0,0.0,198.55
2025-08-15T02:04:14.132Z,14,GR86-016-55,-3.2,0.095,-0.246,99.75,5.0,,0.0,0.0,
2025-08-15T02:04:14.175Z,14,GR86-016-55,-3.2,0.089,-0.254,99.76,5.0,,0.0,0.0,
2025-08-15T02:04:14.218Z,14,GR86-016-55,-3.1,0.088,-0.286,99.75,5.0,,0.0,0.0,
2025-08-15T02:04:14.261Z,14,GR86-016-55,-3.1,0.071,-0.277,99.74,5.0,6769.0,0.0,0.0,
2025-08-15T02:04:14.305Z,14,GR86-016-55,-3.1,0.109,-0.25,99.75,5.0,,0.0,0.0,199.19
2025-08-15T02:04:14.348Z,14,GR86-016-55,-3.0,0.097,-0.257,99.72,5.0,,0.0,0.0,
2025-08-15T02:04:14.391Z,14,GR86-016-55,-3.0,0.101,-0.222,99.73,5.0,,0.0,0.0,
2025-08-15T02:04:14.435Z,14,GR86-016-55,-3.0,0.096,-0.183,99.76,5.0,,0.0,0.0,
2025-08-15T02:04:14.478Z,14,GR86-016-55,-3.0,0.095,-0.183,99.74,5.0,6801.0,0.0,0.0,
2025-08-15T02:04:14.521Z,14,GR86-016-55,-3.0,0.104,-0.17,99.76,5.0,,0.0,0.0,199.97
2025-08-15T02:04:14.564Z,14,GR86-016-55,-3.0,0.095,-0.187,99.75,5.0,,0.0,0.0,
2025-08-15T02:04:14.607Z,14,GR86-016-55,-3.0,0.106,-0.171,99.76,5.0,,0.0,0.0,
2025-08-15T02:04:14.650Z,14,GR86-016-55,-2.9000000000000004,0.075,-0.184,99.76,5.0,,0.0,0.0,
2025-08-15T02:04:14.693Z,14,GR86-016-55,-2.9000000000000004,0.092,-0.237,99.75,5.0,6833.0,0.0,0.0,
2025-08-15T02:04:14.737Z,14,GR86-016-55,-2.9000000000000004,0.096,-0.223,99.76,5.0,,0.0,0.0,200.64
2025-08-15T02:04:14.780Z,14,GR86-016-55,-2.8000000000000003,0.084,-0.215,99.76,5.0,,0.0,0.0,
2025-08-15T02:04:14.823Z,14,GR86-016-55,-2.7,0.089,-0.192,99.73,5.0,,0.0,0.0,
2025-08-15T02:04:14.866Z,14,GR86-016-55,-2.5,0.103,-0.197,99.76,5.0,,0.0,0.0,
2025-08-15T02:04:14.909Z,14,GR86-016-55,-1.7000000000000002,0.078,-0.184,99.74,5.0,6845.0,0.0,0.0,
2025-08-15T02:04:14.952Z,14,GR86-016-55,-0.8,0.088,-0.127,99.75,5.0,,0.0,0.0,201.19
2025-08-15T02:04:14.995Z,14,GR86-016-55,-0.6000000000000001,0.081,-0.103,99.75,5.0,,0.0,0.0,
2025-08-15T02:04:15.038Z,14,GR86-016-55,-0.4,0.094,-0.074,99.75,5.0,,0.0,0.0,
2025-08-15T02:04:15.081Z,14,GR86-016-55,0.0,0.087,-0.055,99.76,5.0,,0.0,0.0,
2025-08-15T02:04:15.124Z,14,GR86-016-55,0.0,0.095,-0.061,99.75,5.0,6867.0,0.0,0.0,
2025-08-15T02:04:15.167Z,14,GR86-016-55,0.4,0.088,-0.069,99.76,5.0,,0.0,0.0,202.06
2025-08-15T02:04:15.210Z,14,GR86-016-55,1.4,0.082,-0.015,99.75,5.0,,0.0,0.0,
2025-08-15T02:04:15.253Z,14,GR86-016-55,2.7,0.09,-0.011,99.75,5.0,,0.0,0.0,
2025-08-15T02:04:15.296Z,14,GR86-016-55,3.7,0.085,0.039,99.74,5.0,,0.0,0.0,
2025-08-15T02:04:15.338Z,14,GR86-016-55,3.9,0.083,0.052,99.77,5.0,6897.0,0.0,0.0,
2025-08-15T02:04:15.382Z,14,GR86-016-55,3.9,0.098,0.049,99.76,5.0,,0.0,0.0,202.65
2025-08-15T02:04:15.426Z,14,GR86-016-55,3.9,0.084,0.062,99.75,5.0,,0.0,0.0,
2025-08-15T02:04:15.468Z,14,GR86-016-55,4.0,0.096,0.083,99.77,5.0,,0.0,0.0,
2025-08-15T02:04:15.512Z,14,GR86-016-55,4.5,0.088,0.155,99.75,5.0,,0.0,0.0,
2025-08-15T02:04:15.555Z,14,GR86-016-55,5.800000000000001,0.093,0.164,99.75,5.0,6915.0,0.0,0.0,
2025-08-15T02:04:15.598Z,14,GR86-016-55,7.300000000000001,0.081,0.202,99.75,5.0,,0.0,0.0,203.44
2025-08-15T02:04:15.641Z,14,GR86-016-55,8.700000000000001,0.081,0.249,99.75,5.0,,0.0,0.0,
2025-08-15T02:04:15.685Z,14,GR86-016-55,9.0,0.077,0.288,99.74,5.0,,0.0,0.0,
2025-08-15T02:04:15.728Z,14,GR86-016-55,8.9,0.068,0.293,99.75,5.0,,0.0,0.0,
2025-08-15T02:04:15.772Z,14,GR86-016-55,8.4,0.088,0.308,99.76,5.0,6939.0,0.0,0.0,
2025-08-15T02:04:15.815Z,14,GR86-016-55,8.200000000000001,0.092,0.344,99.75,5.0,,0.0,0.0,204.19
2025-08-15T02:04:15.858Z,14,GR86-016-55,8.1,0.071,0.351,99.75,5.0,,0.0,0.0,
2025-08-15T02:04:15.901Z,14,GR86-016-55,8.0,0.094,0.33,99.75,5.0,,0.0,0.0,
2025-08-15T02:04:15.944Z,14,GR86-016-55,8.0,0.091,0.31,99.77,5.0,,0.0,0.0,
2025-08-15T02:04:15.987Z,14,GR86-016-55,8.1,0.082,0.318,99.75,5.0,6980.0,0.0,0.0,
2025-08-15T02:04:16.032Z,14,GR86-016-55,8.0,0.103,0.299,99.75,5.0,,0.0,0.0,205.73
2025-08-15T02:04:16.075Z,14,GR86-016-55,7.9,0.05,0.298,99.76,5.0,,0.0,0.0,
2025-08-15T02:04:16.118Z,14,GR86-016-55,8.0,0.089,0.331,99.75,5.0,,0.0,0.0,
2025-08-15T02:04:16.161Z,14,GR86-016-55,8.3,0.099,0.321,99.75,5.0,,0.0,0.0,
2025-08-15T02:04:16.204Z,14,GR86-016-55,8.4,0.046,0.326,99.75,5.0,6992.0,0.0,0.0,
2025-08-15T02:04:16.247Z,14,GR86-016-55,8.4,0.093,0.346,99.74,5.0,,0.0,0.0,206.31
2025-08-15T02:04:16.292Z,14,GR86-016-55,8.4,0.097,0.32,99.78,5.0,,0.0,0.0,
2025-08-15T02:04:16.336Z,14,GR86-016-55,8.5,0.085,0.352,99.76,5.0,,0.0,0.0,
2025-08-15T02:04:16.378Z,14,GR86-016-55,8.5,0.093,0.329,99.74,5.0,,0.0,0.0,
2025-08-15T02:04:16.422Z,14,GR86-016-55,8.5,0.058,0.36,99.76,5.0,7009.0,0.0,0.0,
2025-08-15T02:04:16.465Z,14,GR86-016-55,8.6,0.098,0.316,99.75,5.0,,12.3,12.33,206.92
2025-08-15T02:04:16.508Z,14,GR86-016-55,8.6,0.05,0.301,99.74,5.0,,11.935,12.39,
2025-08-15T02:04:16.551Z,14,GR86-016-55,8.5,-0.047,0.336,99.77,5.0,,3.555,4.15,
2025-08-15T02:04:16.594Z,14,GR86-016-55,8.4,0.007,0.347,99.75,5.0,,0.0,0.0,
2025-08-15T02:04:16.637Z,14,GR86-016-55,8.200000000000001,0.059,0.316,99.77,5.0,7054.0,0.0,0.0,
2025-08-15T02:04:16.680Z,14,GR86-016-55,8.3,0.087,0.34,99.76,5.0,,8.515,8.805,207.53
2025-08-15T02:04:16.723Z,14,GR86-016-55,8.3,0.091,0.359,99.74,5.0,,13.915,13.995,
2025-08-15T02:04:16.766Z,14,GR86-016-55,8.3,-0.095,0.392,99.76,5.0,,10.865,11.4,
2025-08-15T02:04:16.808Z,14,GR86-016-55,8.200000000000001,-0.055,0.358,99.75,5.0,,3.695,4.12,
2025-08-15T02:04:16.852Z,14,GR86-016-55,8.200000000000001,0.059,0.378,99.75,5.0,7079.0,0.0,0.0,
2025-08-15T02:04:16.895Z,14,GR86-016-55,8.200000000000001,0.095,0.359,99.77,5.0,,0.0,0.0,207.47
2025-08-15T02:04:16.938Z,14,GR86-016-55,8.1,0.083,0.329,99.75,5.0,,0.0,0.0,
2025-08-15T02:04:16.981Z,14,GR86-016-55,8.0,0.075,0.308,99.77,5.0,,0.0,0.0,
2025-08-15T02:04:17.024Z,14,GR86-016-55,8.0,0.071,0.313,99.75,5.0,,0.0,0.0,
2025-08-15T02:04:17.067Z,14,GR86-016-55,8.0,0.069,0.27,99.74,5.0,7056.0,0.0,0.0,
2025-08-15T02:04:17.110Z,14,GR86-016-55,8.0,0.078,0.291,99.76,5.0,,0.0,0.0,207.75
2025-08-15T02:04:17.153Z,14,GR86-016-55,8.1,0.078,0.291,99.74,5.0,,0.0,0.0,
2025-08-15T02:04:17.196Z,14,GR86-016-55,8.0,0.077,0.346,99.77,5.0,,0.0,0.0,
2025-08-15T02:04:17.238Z,14,GR86-016-55,7.9,0.084,0.308,99.74,5.0,,0.0,0.0,
2025-08-15T02:04:17.282Z,14,GR86-016-55,7.800000000000001,0.065,0.33,99.76,5.0,7096.0,0.0,0.0,
2025-08-15T02:04:17.325Z,14,GR86-016-55,7.800000000000001,0.083,0.326,99.74,5.0,,0.0,0.0,208.44
2025-08-15T02:04:17.368Z,14,GR86-016-55,7.7,0.065,0.314,99.76,5.0,,0.0,0.0,
2025-08-15T02:04:17.411Z,14,GR86-016-55,7.7,0.063,0.278,99.75,5.0,,0.0,0.0,
2025-08-15T02:04:17.455Z,14,GR86-016-55,7.7,0.064,0.342,99.75,5.0,,0.0,0.0,
2025-08-15T02:04:17.498Z,14,GR86-016-55,7.6,0.073,0.341,99.76,5.0,7108.0,0.0,0.0,
2025-08-15T02:04:17.541Z,14,GR86-016-55,7.5,0.07,0.335,99.75,5.0,,0.0,0.0,209.12
2025-08-15T02:04:17.586Z,14,GR86-016-55,7.5,0.054,0.36,99.74,5.0,,0.0,0.0,
2025-08-15T02:04:17.629Z,14,GR86-016-55,7.5,0.056,0.319,99.76,5.0,,0.0,0.0,
2025-08-15T02:04:17.672Z,14,GR86-016-55,7.6,0.068,0.334,99.75,5.0,,0.0,0.0,
2025-08-15T02:04:17.715Z,14,GR86-016-55,7.5,0.057,0.329,99.77,5.0,7138.0,0.0,0.0,
2025-08-15T02:04:17.758Z,14,GR86-016-55,7.4,0.056,0.323,99.75,5.0,,0.0,0.0,209.71
2025-08-15T02:04:17.801Z,14,GR86-016-55,7.5,0.051,0.299,99.75,5.0,,0.0,0.0,
2025-08-15T02:04:17.844Z,14,GR86-016-55,7.800000000000001,0.053,0.341,99.71,5.0,,0.0,0.0,
2025-08-15T02:04:17.887Z,14,GR86-016-55,8.5,0.056,0.38,99.75,5.0,,0.0,0.0,
2025-08-15T02:04:17.931Z,14,GR86-016-55,9.6,0.061,0.39,99.73,5.0,7153.0,0.0,0.0,
2025-08-15T02:04:17.975Z,14,GR86-016-55,9.9,0.047,0.4,99.76,5.0,,0.0,0.0,210.29
2025-08-15T02:04:18.018Z,14,GR86-016-55,9.7,0.041,0.413,99.77,5.0,,0.0,0.0,
2025-08-15T02:04:18.061Z,14,GR86-016-55,9.2,0.053,0.373,99.75,5.0,,0.0,0.0,
2025-08-15T02:04:18.104Z,14,GR86-016-55,8.6,0.028,0.423,99.75,5.0,,0.0,0.0,
2025-08-15T02:04:18.147Z,14,GR86-016-55,7.7,0.053,0.392,99.73,5.0,7180.0,0.0,0.0,
2025-08-15T02:04:18.190Z,14,GR86-016-55,7.5,0.058,0.361,99.74,5.0,,0.0,0.0,210.97
2025-08-15T02:04:18.235Z,14,GR86-016-55,7.4,0.028,0.343,99.74,5.0,,0.0,0.0,
2025-08-15T02:04:18.278Z,14,GR86-016-55,7.300000000000001,0.052,0.303,99.75,5.0,,0.0,0.0,
2025-08-15T02:04:18.321Z,14,GR86-016-55,7.0,0.049,0.313,99.78,5.0,,0.0,0.0,
2025-08-15T02:04:18.364Z,14,GR86-016-55,6.800000000000001,0.05,0.284,99.74,5.0,7193.0,0.0,0.0,
2025-08-15T02:04:18.407Z,14,GR86-016-55,6.7,0.038,0.246,99.74,5.0,,23.745,23.775,211.57
2025-08-15T02:04:18.450Z,14,GR86-016-55,10.1,-0.352,0.203,25.87,5.0,,59.805,58.995000000000005,
2025-08-15T02:04:18.492Z,14,GR86-016-55,13.4,-0.796,0.2,4.44,5.0,,70.745,70.21000000000001,
2025-08-15T02:04:18.536Z,14,GR86-016-55,15.1,-1.086,0.186,4.3,5.0,,56.995000000000005,58.49,
2025-08-15T02:04:18.578Z,14,GR86-016-55,15.1,-1.028,0.287,4.16,5.0,7210.0,35.205,36.455,
2025-08-15T02:04:18.622Z,14,GR86-016-55,14.3,-0.6940000000000001,0.255,3.89,5.0,,16.59,17.425,212.0
2025-08-15T02:04:18.665Z,14,GR86-016-55,9.6,-0.623,0.23,3.49,5.0,,8.040000000000001,8.805,
2025-08-15T02:04:18.708Z,14,GR86-016-55,7.9,-0.389,0.254,3.14,5.0,,13.245,13.58,
2025-08-15T02:04:18.751Z,14,GR86-016-55,9.2,-0.532,0.244,2.89,5.0,,41.675,41.4,
2025-08-15T02:04:18.794Z,14,GR86-016-55,12.3,-0.961,0.282,2.8000000000000003,5.0,7223.0,59.455,58.905,
2025-08-15T02:04:18.837Z,14,GR86-016-55,12.3,-1.252,0.365,2.75,5.0,,66.93,66.49,205.66
2025-08-15T02:04:18.880Z,14,GR86-016-55,6.7,-1.195,0.264,2.71,5.0,,50.65,52.175,
2025-08-15T02:04:18.925Z,14,GR86-016-55,1.4,-0.806,0.237,2.68,5.0,,27.65,28.84,
2025-08-15T02:04:18.968Z,14,GR86-016-55,1.2000000000000002,-0.637,0.194,2.64,5.0,,12.805,13.735,
2025-08-15T02:04:19.011Z,14,GR86-016-55,14.2,-0.656,0.25,2.6,5.0,6573.0,28.72,28.965,
2025-08-15T02:04:19.054Z,14,GR86-016-55,21.1,-0.654,0.316,2.58,5.0,,46.59,46.27,204.48
2025-08-15T02:04:19.097Z,14,GR86-016-55,21.200000000000003,-1.05,0.382,2.57,5.0,,58.02,57.56,
2025-08-15T02:04:19.140Z,14,GR86-016-55,16.7,-1.081,0.424,2.5500000000000003,5.0,,63.285,62.965,
2025-08-15T02:04:19.186Z,14,GR86-016-55,8.9,-1.244,0.338,2.5500000000000003,5.0,,64.9,64.78,
2025-08-15T02:04:19.228Z,14,GR86-016-55,3.7,-1.16,0.191,2.5500000000000003,5.0,6726.0,64.58,65.74,
2025-08-15T02:04:19.272Z,14,GR86-016-55,2.1,-1.128,0.183,2.5500000000000003,5.0,,59.27,60.370000000000005,197.95
2025-08-15T02:04:19.315Z,14,GR86-016-55,2.3000000000000003,-1.145,0.24,2.5500000000000003,5.0,,58.875,59.485,
2025-08-15T02:04:19.358Z,14,GR86-016-55,4.9,-1.172,0.291,2.5500000000000003,5.0,,64.33500000000001,64.93,
2025-08-15T02:04:19.401Z,14,GR86-016-55,6.5,-1.271,0.34,2.54,5.0,,69.02,69.465,
2025-08-15T02:04:19.444Z,14,GR86-016-55,6.6000000000000005,-1.199,0.335,2.5500000000000003,5.0,6046.0,69.8,69.675,
2025-08-15T02:04:19.487Z,14,GR86-016-55,6.300000000000001,-1.283,0.313,2.5500000000000003,5.0,,69.77,69.645,192.28
2025-08-15T02:04:19.532Z,14,GR86-016-55,6.0,-1.24,0.17,2.53,5.0,,60.705,62.245000000000005,
2025-08-15T02:04:19.575Z,14,GR86-016-55,6.0,-1.086,0.095,17.84,5.0,,50.68,52.22,
2025-08-15T02:04:19.618Z,14,GR86-016-55,10.9,-0.985,0.104,52.4,4.0,,49.395,50.13,
2025-08-15T02:04:19.661Z,14,GR86-016-55,18.8,-1.086,0.114,6.9,4.0,5929.0,55.575,55.775,
2025-08-15T02:04:19.705Z,14,GR86-016-55,21.700000000000003,-1.149,0.248,4.25,4.0,,64.215,65.39,184.16
2025-08-15T02:04:19.748Z,14,GR86-016-55,21.0,-1.32,0.283,4.14,4.0,,66.61,67.36,
2025-08-15T02:04:19.791Z,14,GR86-016-55,9.1,-1.266,0.142,3.8,4.0,,46.865,47.96,
2025-08-15T02:04:19.835Z,14,GR86-016-55,3.9,-0.874,0.152,3.3000000000000003,4.0,,38.655,39.965,
2025-08-15T02:04:19.878Z,14,GR86-016-55,3.2,-0.716,0.062,3.0,4.0,5607.0,34.395,35.02,
2025-08-15T02:04:19.921Z,14,GR86-016-55,3.7,-0.964,0.089,2.87,4.0,,38.655,38.96,175.79
2025-08-15T02:04:19.964Z,14,GR86-016-55,5.6000000000000005,-0.973,0.171,2.78,4.0,,48.265,48.265,
2025-08-15T02:04:20.007Z,14,GR86-016-55,6.5,-1.065,0.118,3.4,4.0,,56.875,56.69,
2025-08-15T02:04:20.050Z,14,GR86-016-55,6.4,-1.206,0.142,52.5,3.0,,64.395,64.275,
2025-08-15T02:04:20.093Z,14,GR86-016-55,6.300000000000001,-1.215,0.056,7.0200000000000005,3.0,6320.0,61.24,62.095,
2025-08-15T02:04:20.136Z,14,GR86-016-55,6.300000000000001,-1.158,0.027,4.53,3.0,,45.275,46.865,168.83
2025-08-15T02:04:20.179Z,14,GR86-016-55,9.9,-0.941,0.083,4.39,3.0,,37.235,38.5,
2025-08-15T02:04:20.222Z,14,GR86-016-55,15.2,-0.862,0.004,4.23,3.0,,37.645,38.44,
2025-08-15T02:04:20.265Z,14,GR86-016-55,16.5,-1.028,0.113,3.87,3.0,,47.125,47.81,
2025-08-15T02:04:20.308Z,14,GR86-016-55,16.1,-1.055,0.134,3.26,3.0,6200.0,57.21,57.53,
2025-08-15T02:04:20.351Z,14,GR86-016-55,11.0,-1.265,0.059,2.87,3.0,,66.825,68.12,163.44
2025-08-15T02:04:20.395Z,14,GR86-016-55,9.7,-1.18,0.108,2.78,3.0,,70.365,71.77,
2025-08-15T02:04:20.438Z,14,GR86-016-55,9.5,-1.105,0.007,2.7,3.0,,71.205,71.89,
2025-08-15T02:04:20.481Z,14,GR86-016-55,9.4,-1.064,0.113,2.64,3.0,,71.705,71.89,
2025-08-15T02:04:20.524Z,14,GR86-016-55,9.5,-1.089,0.124,2.62,3.0,6498.0,72.99,72.895,
2025-08-15T02:04:20.567Z,14,GR86-016-55,12.0,-1.16,0.079,2.59,3.0,,74.18,73.905,156.11
2025-08-15T02:04:20.610Z,14,GR86-016-55,14.2,-1.241,0.158,2.58,3.0,,76.18,75.615,
2025-08-15T02:04:20.653Z,14,GR86-016-55,14.4,-1.271,0.162,2.58,3.0,,77.995,77.4,
2025-08-15T02:04:20.696Z,14,GR86-016-55,14.4,-1.253,0.179,2.58,3.0,,79.625,79.305,
2025-08-15T02:04:20.738Z,14,GR86-016-55,14.4,-1.311,0.179,12.18,3.0,6747.0,80.62,80.525,
2025-08-15T02:04:20.782Z,14,GR86-016-55,14.3,-1.368,0.203,52.26,2.0,,80.83,80.74,148.91
2025-08-15T02:04:20.826Z,14,GR86-016-55,14.1,-1.31,0.2,17.89,2.0,,81.03,81.395,
2025-08-15T02:04:20.868Z,14,GR86-016-55,14.0,-1.339,0.194,4.3500000000000005,2.0,,82.295,83.96000000000001,
2025-08-15T02:04:20.912Z,14,GR86-016-55,13.9,-1.368,0.256,4.23,2.0,,80.97,83.15,
2025-08-15T02:04:20.955Z,14,GR86-016-55,13.7,-1.376,0.23,3.99,2.0,6287.0,73.63,74.18,
2025-08-15T02:04:20.998Z,14,GR86-016-55,12.3,-1.139,0.332,3.54,2.0,,68.06,69.8,141.72
2025-08-15T02:04:21.041Z,14,GR86-016-55,11.6,-1.139,0.344,3.0700000000000003,2.0,,67.36,68.12,
2025-08-15T02:04:21.087Z,14,GR86-016-55,11.5,-1.118,0.303,2.9,2.0,,66.365,66.305,
2025-08-15T02:04:21.132Z,14,GR86-016-55,14.0,-1.234,0.417,2.74,2.0,,70.18,71.645,
2025-08-15T02:04:21.175Z,14,GR86-016-55,18.5,-1.091,0.355,2.68,2.0,5728.0,69.28,69.465,
2025-08-15T02:04:21.218Z,14,GR86-016-55,24.3,-1.294,0.533,2.65,2.0,,69.965,70.18,132.46
2025-08-15T02:04:21.261Z,14,GR86-016-55,27.700000000000003,-1.189,0.55,2.62,2.0,,71.95,73.54,
2025-08-15T02:04:21.304Z,14,GR86-016-55,27.9,-1.25,0.503,2.61,2.0,,72.7,73.995,
2025-08-15T02:04:21.347Z,14,GR86-016-55,27.5,-1.177,0.625,2.58,2.0,,71.705,73.235,
2025-08-15T02:04:21.392Z,14,GR86-016-55,27.3,-1.124,0.56,2.58,2.0,6197.0,63.405,65.36,
2025-08-15T02:04:21.436Z,14,GR86-016-55,28.4,-0.908,0.61,2.58,2.0,,57.21,58.795,116.42
2025-08-15T02:04:21.478Z,14,GR86-016-55,28.8,-1.052,0.705,15.85,2.0,,55.605,56.935,
2025-08-15T02:04:21.522Z,14,GR86-016-55,31.4,-1.026,0.605,52.18,1.0,,56.525,56.75,
2025-08-15T02:04:21.565Z,14,GR86-016-55,35.9,-1.057,0.631,7.79,1.0,,56.66,57.27,
2025-08-15T02:04:21.608Z,14,GR86-016-55,42.5,-1.201,0.623,4.39,1.0,6260.0,59.025,60.52,
2025-08-15T02:04:21.651Z,14,GR86-016-55,49.400000000000006,-1.203,0.77,4.24,1.0,,60.825,61.175,108.92
2025-08-15T02:04:21.695Z,14,GR86-016-55,50.6,-1.135,0.61,4.0,1.0,,53.455,54.8,
2025-08-15T02:04:21.738Z,14,GR86-016-55,52.1,-0.976,0.953,3.49,1.0,,44.255,45.78,
2025-08-15T02:04:21.781Z,14,GR86-016-55,53.5,-0.661,0.925,3.0,1.0,,36.73,37.77,
2025-08-15T02:04:21.824Z,14,GR86-016-55,55.900000000000006,-0.6900000000000001,1.038,2.84,1.0,5811.0,33.71,34.455,
2025-08-15T02:04:21.867Z,14,GR86-016-55,59.5,-0.812,1.128,2.73,1.0,,28.935,29.74,102.44
2025-08-15T02:04:21.910Z,14,GR86-016-55,65.8,-0.5660000000000001,1.123,2.65,1.0,,23.15,23.93,
2025-08-15T02:04:21.953Z,14,GR86-016-55,68.10000000000001,-0.558,1.327,2.62,1.0,,22.815,23.56,
2025-08-15T02:04:21.996Z,14,GR86-016-55,68.3,-0.621,1.23,2.61,1.0,,20.875,21.5,
2025-08-15T02:04:22.039Z,14,GR86-016-55,67.5,-0.602,1.185,2.59,1.0,6180.0,15.75,16.65,
2025-08-15T02:04:22.082Z,14,GR86-016-55,64.10000000000001,-0.433,1.095,2.58,1.0,,6.485,7.11,95.01
2025-08-15T02:04:22.125Z,14,GR86-016-55,58.7,-0.266,1.268,2.56,1.0,,0.0,0.0,
2025-08-15T02:04:22.168Z,14,GR86-016-55,56.0,-0.229,1.164,2.5500000000000003,1.0,,0.0,0.0,
2025-08-15T02:04:22.212Z,14,GR86-016-55,55.900000000000006,-0.169,1.191,2.5500000000000003,1.0,,0.0,0.0,
2025-08-15T02:04:22.298Z,14,GR86-016-55,61.6,-0.184,1.149,2.54,1.0,6168.0,0.0,0.0,90.22
2025-08-15T02:04:22.341Z,14,GR86-016-55,73.7,-0.191,1.159,2.53,1.0,,0.0,0.0,
2025-08-15T02:04:22.385Z,14,GR86-016-55,77.0,-0.188,1.258,2.53,1.0,,0.0,0.0,
2025-08-15T02:04:22.428Z,14,GR86-016-55,77.60000000000001,-0.199,1.221,2.52,1.0,,0.0,0.0,
2025-08-15T02:04:22.514Z,14,GR86-016-55,77.7,-0.186,1.249,2.52,1.0,6103.0,0.0,0.0,87.29
2025-08-15T02:04:22.557Z,14,GR86-016-55,77.7,-0.197,1.265,2.52,1.0,,0.0,0.0,
2025-08-15T02:04:22.601Z,14,GR86-016-55,77.5,-0.201,1.25,2.52,1.0,,0.0,0.0,
2025-08-15T02:04:22.644Z,14,GR86-016-55,77.10000000000001,-0.192,1.258,2.51,1.0,,0.0,0.0,
2025-08-15T02:04:22.687Z,14,GR86-016-55,76.7,-0.184,1.177,2.52,1.0,5992.0,0.0,0.0,
2025-08-15T02:04:22.732Z,14,GR86-016-55,76.2,-0.186,1.26,2.51,1.0,,0.0,0.0,85.36
2025-08-15T02:04:22.775Z,14,GR86-016-55,76.10000000000001,-0.195,1.284,2.51,1.0,,0.0,0.0,
2025-08-15T02:04:22.818Z,14,GR86-016-55,76.10000000000001,-0.164,1.324,2.53,1.0,,0.0,0.0,
2025-08-15T02:04:22.861Z,14,GR86-016-55,76.2,-0.17,1.243,7.85,1.0,,0.0,0.0,
2025-08-15T02:04:22.904Z,14,GR86-016-55,76.4,-0.183,1.333,19.74,1.0,5876.0,0.0,0.0,
2025-08-15T02:04:22.947Z,14,GR86-016-55,77.30000000000001,-0.217,1.3,24.83,1.0,,0.0,0.0,83.62
2025-08-15T02:04:22.990Z,14,GR86-016-55,78.30000000000001,-0.124,1.36,30.22,1.0,,0.0,0.0,
2025-08-15T02:04:23.035Z,14,GR86-016-55,78.30000000000001,-0.096,1.285,37.16,1.0,,0.0,0.0,
2025-08-15T02:04:23.078Z,14,GR86-016-55,78.10000000000001,-0.084,1.153,46.6,1.0,,0.0,0.0,
2025-08-15T02:04:23.121Z,14,GR86-016-55,77.9,-0.03,1.361,48.53,1.0,5751.0,0.0,0.0,
2025-08-15T02:04:23.164Z,14,GR86-016-55,77.60000000000001,0.182,1.17,48.44,1.0,,0.0,0.0,81.97
2025-08-15T02:04:23.207Z,14,GR86-016-55,77.10000000000001,0.258,1.17,48.35,1.0,,0.0,0.0,
2025-08-15T02:04:23.250Z,14,GR86-016-55,75.4,0.241,1.12,48.36,1.0,,0.0,0.0,
2025-08-15T02:04:23.292Z,14,GR86-016-55,68.5,0.266,1.202,46.93,1.0,,0.0,0.0,
2025-08-15T02:04:23.336Z,14,GR86-016-55,57.900000000000006,0.234,1.061,46.86,1.0,5820.0,0.0,0.0,
2025-08-15T02:04:23.380Z,14,GR86-016-55,47.8,-0.005,1.107,47.7,1.0,,0.0,0.0,80.68
2025-08-15T02:04:23.426Z,14,GR86-016-55,41.1,0.244,1.122,47.3,1.0,,0.0,0.0,
2025-08-15T02:04:23.468Z,14,GR86-016-55,39.8,0.34,0.963,48.58,1.0,,0.0,0.0,
2025-08-15T02:04:23.512Z,14,GR86-016-55,50.400000000000006,0.221,1.115,83.81,1.0,,0.0,0.0,
2025-08-15T02:04:23.555Z,14,GR86-016-55,52.2,0.312,1.209,99.55,1.0,6368.0,0.0,0.0,
2025-08-15T02:04:23.598Z,14,GR86-016-55,41.7,0.585,1.127,99.75,1.0,,0.0,0.0,79.39
2025-08-15T02:04:23.642Z,14,GR86-016-55,28.5,0.523,1.007,99.76,1.0,,0.0,0.0,
2025-08-15T02:04:23.686Z,14,GR86-016-55,28.3,0.278,0.955,99.74,1.0,,0.0,0.0,
2025-08-15T02:04:23.732Z,14,GR86-016-55,46.400000000000006,0.186,0.98,99.76,1.0,,0.0,0.0,
2025-08-15T02:04:23.775Z,14,GR86-016-55,53.2,0.449,1.18,99.76,1.0,6817.0,0.0,0.0,
2025-08-15T02:04:23.818Z,14,GR86-016-55,60.400000000000006,0.378,0.985,99.75,1.0,,0.0,0.0,79.9
2025-08-15T02:04:23.861Z,14,GR86-016-55,66.7,0.125,1.533,99.76,1.0,,0.0,0.0,
2025-08-15T02:04:23.905Z,14,GR86-016-55,67.10000000000001,0.537,1.31,99.79,1.0,,0.0,0.0,
2025-08-15T02:04:23.948Z,14,GR86-016-55,51.7,0.366,1.291,99.76,1.0,,0.0,0.0,
2025-08-15T02:04:23.991Z,14,GR86-016-55,9.4,0.369,1.269,99.75,1.0,6833.0,0.0,0.0,
2025-08-15T02:04:24.034Z,14,GR86-016-55,-17.8,0.407,1.08,99.47,1.0,,0.0,0.0,83.03
2025-08-15T02:04:24.077Z,14,GR86-016-55,-41.5,0.329,1.006,52.77,1.0,,0.0,0.0,
2025-08-15T02:04:24.120Z,14,GR86-016-55,-57.7,0.353,1.007,28.41,1.0,,0.0,0.0,
2025-08-15T02:04:24.163Z,14,GR86-016-55,-65.5,0.351,0.913,43.19,1.0,,0.0,0.0,
2025-08-15T02:04:24.206Z,14,GR86-016-55,-66.2,0.318,0.837,80.38,1.0,6920.0,0.0,0.0,
2025-08-15T02:04:24.250Z,14,GR86-016-55,-64.8,0.309,1.014,99.68,1.0,,0.0,0.0,85.16
2025-08-15T02:04:24.292Z,14,GR86-016-55,-64.8,0.332,0.976,99.77,1.0,,0.0,0.0,
2025-08-15T02:04:24.336Z,14,GR86-016-55,-66.0,0.326,0.96,99.78,1.0,,0.0,0.0,
2025-08-15T02:04:24.378Z,14,GR86-016-55,-69.10000000000001,0.36,1.02,99.78,1.0,,0.0,0.0,
2025-08-15T02:04:24.422Z,14,GR86-016-55,-71.5,0.371,1.008,99.76,1.0,6961.0,0.0,0.0,
2025-08-15T02:04:24.465Z,14,GR86-016-55,-74.2,0.365,0.993,99.76,1.0,,0.0,0.0,87.15
2025-08-15T02:04:24.508Z,14,GR86-016-55,-80.0,0.358,1.035,99.77,1.0,,0.0,0.0,
2025-08-15T02:04:24.551Z,14,GR86-016-55,-91.7,0.35,0.952,99.75,1.0,,0.0,0.0,
2025-08-15T02:04:24.595Z,14,GR86-016-55,-97.7,0.359,0.883,99.78,1.0,,0.0,0.0,
2025-08-15T02:04:24.638Z,14,GR86-016-55,-98.8,0.33,0.855,99.79,1.0,7280.0,0.0,0.0,
2025-08-15T02:04:24.681Z,14,GR86-016-55,-97.0,0.351,0.794,99.77,1.0,,0.0,0.0,88.02
2025-08-15T02:04:24.724Z,14,GR86-016-55,-88.80000000000001,0.371,0.867,99.79,1.0,,0.0,0.0,
2025-08-15T02:04:24.767Z,14,GR86-016-55,-76.10000000000001,0.378,0.8240000000000001,99.8,1.0,,0.0,0.0,
2025-08-15T02:04:24.810Z,14,GR86-016-55,-50.400000000000006,0.368,0.85,99.81,1.0,,0.0,0.0,
2025-08-15T02:04:24.853Z,14,GR86-016-55,-24.4,0.383,0.878,99.76,1.0,7296.0,0.0,0.0,
2025-08-15T02:04:24.896Z,14,GR86-016-55,8.0,0.423,1.003,99.8,1.0,,0.0,0.0,89.21000000000001
2025-08-15T02:04:24.938Z,14,GR86-016-55,43.1,0.414,0.934,99.79,1.0,,0.0,0.0,
2025-08-15T02:04:24.982Z,14,GR86-016-55,68.5,0.515,1.062,99.78,1.0,,0.0,0.0,
2025-08-15T02:04:25.025Z,14,GR86-016-55,80.60000000000001,0.51,1.11,99.78,1.0,,0.0,0.0,
2025-08-15T02:04:25.069Z,14,GR86-016-55,78.10000000000001,0.38,0.712,99.76,1.0,7292.0,0.0,0.0,
2025-08-15T02:04:25.112Z,14,GR86-016-55,63.1,0.42,1.066,99.78,1.0,,0.0,0.0,89.64
2025-08-15T02:04:25.155Z,14,GR86-016-55,55.1,0.396,0.8250000000000001,99.79,1.0,,0.0,0.0,
2025-08-15T02:04:25.198Z,14,GR86-016-55,48.400000000000006,0.265,0.372,99.78,1.0,,0.0,0.0,
2025-08-15T02:04:25.241Z,14,GR86-016-55,36.3,0.178,0.686,99.78,1.0,,0.0,0.0,
2025-08-15T02:04:25.286Z,14,GR86-016-55,22.9,0.077,0.613,99.79,2.0,7207.0,0.0,0.0,
2025-08-15T02:04:25.328Z,14,GR86-016-55,16.5,-0.041,0.642,99.79,2.0,,0.0,0.0,91.42
2025-08-15T02:04:25.372Z,14,GR86-016-55,13.1,0.299,0.442,99.79,2.0,,0.0,0.0,
2025-08-15T02:04:25.415Z,14,GR86-016-55,10.4,0.221,0.387,99.78,2.0,,0.0,0.0,
2025-08-15T02:04:25.458Z,14,GR86-016-55,9.5,0.735,0.761,99.79,2.0,,0.0,0.0,
2025-08-15T02:04:25.501Z,14,GR86-016-55,12.6,0.682,0.721,99.8,2.0,7271.0,0.0,0.0,
2025-08-15T02:04:25.544Z,14,GR86-016-55,9.5,0.589,1.005,99.79,2.0,,0.0,0.0,93.21
2025-08-15T02:04:25.587Z,14,GR86-016-55,1.2000000000000002,0.738,0.686,99.78,2.0,,0.0,0.0,
2025-08-15T02:04:25.632Z,14,GR86-016-55,-2.0,0.187,0.637,99.79,2.0,,0.0,0.0,
2025-08-15T02:04:25.675Z,14,GR86-016-55,4.7,0.468,0.673,99.79,2.0,,0.0,0.0,
2025-08-15T02:04:25.718Z,14,GR86-016-55,12.5,0.667,0.802,99.79,2.0,6290.0,0.0,0.0,
2025-08-15T02:04:25.761Z,14,GR86-016-55,16.6,0.464,0.714,99.78,2.0,,0.0,0.0,95.48
2025-08-15T02:04:25.804Z,14,GR86-016-55,17.400000000000002,0.405,0.729,99.79,2.0,,0.0,0.0,
2025-08-15T02:04:25.847Z,14,GR86-016-55,13.9,0.234,0.649,99.78,2.0,,0.0,0.0,
2025-08-15T02:04:25.890Z,14,GR86-016-55,-2.9000000000000004,0.849,0.613,99.79,2.0,,0.0,0.0,
2025-08-15T02:04:25.936Z,14,GR86-016-55,-10.8,0.673,0.96,99.78,2.0,5844.0,0.0,0.0,
2025-08-15T02:04:25.979Z,14,GR86-016-55,-14.2,0.654,0.8210000000000001,99.78,2.0,,0.0,0.0,98.16
2025-08-15T02:04:26.022Z,14,GR86-016-55,-15.8,0.238,0.32,99.79,2.0,,0.0,0.0,
2025-08-15T02:04:26.065Z,14,GR86-016-55,-17.1,0.123,0.638,99.79,2.0,,0.0,0.0,
2025-08-15T02:04:26.108Z,14,GR86-016-55,-16.5,0.044,0.323,99.8,2.0,,0.0,0.0,
2025-08-15T02:04:26.151Z,14,GR86-016-55,-7.4,0.612,0.666,99.79,2.0,6181.0,0.0,0.0,
2025-08-15T02:04:26.194Z,14,GR86-016-55,-0.2,0.651,0.317,99.79,2.0,,0.0,0.0,99.71
2025-08-15T02:04:26.237Z,14,GR86-016-55,3.9,0.437,0.45,99.79,2.0,,0.0,0.0,
2025-08-15T02:04:26.280Z,14,GR86-016-55,4.5,0.39,0.265,99.78,2.0,,0.0,0.0,
2025-08-15T02:04:26.323Z,14,GR86-016-55,3.9,0.233,0.142,99.79,2.0,,0.0,0.0,
2025-08-15T02:04:26.366Z,14,GR86-016-55,1.0,0.102,0.057,99.79,2.0,6029.0,0.0,0.0,
2025-08-15T02:04:26.408Z,14,GR86-016-55,-2.5,0.11,-0.033,99.79,2.0,,0.0,0.0,101.43
2025-08-15T02:04:26.452Z,14,GR86-016-55,-4.800000000000001,0.495,-0.111,99.79,2.0,,0.0,0.0,
2025-08-15T02:04:26.495Z,14,GR86-016-55,-4.800000000000001,0.494,-0.112,99.78,2.0,,0.0,0.0,
2025-08-15T02:04:26.538Z,14,GR86-016-55,-4.2,0.438,-0.145,99.78,2.0,,0.0,0.0,
2025-08-15T02:04:26.581Z,14,GR86-016-55,-2.6,0.306,-0.172,99.79,2.0,6029.0,0.0,0.0,
2025-08-15T02:04:26.624Z,14,GR86-016-55,-2.0,0.401,-0.159,99.79,2.0,,0.0,0.0,103.55
2025-08-15T02:04:26.667Z,14,GR86-016-55,-2.0,0.345,-0.14,99.78,2.0,,0.0,0.0,
2025-08-15T02:04:26.710Z,14,GR86-016-55,-2.0,0.294,-0.1,99.78,2.0,,0.0,0.0,
2025-08-15T02:04:26.753Z,14,GR86-016-55,-2.1,0.329,-0.073,99.79,2.0,,0.0,0.0,
2025-08-15T02:04:26.796Z,14,GR86-016-55,-2.2,0.307,-0.079,99.78,2.0,6264.0,0.0,0.0,
2025-08-15T02:04:26.839Z,14,GR86-016-55,-2.4000000000000004,0.339,-0.059,99.78,2.0,,0.0,0.0,107.17
2025-08-15T02:04:26.882Z,14,GR86-016-55,-2.7,0.313,-0.065,99.79,2.0,,0.0,0.0,
2025-08-15T02:04:26.925Z,14,GR86-016-55,-2.7,0.295,-0.085,99.79,2.0,,0.0,0.0,
2025-08-15T02:04:26.968Z,14,GR86-016-55,-2.7,0.307,-0.043,99.79,2.0,,0.0,0.0,
2025-08-15T02:04:27.011Z,14,GR86-016-55,-2.9000000000000004,0.295,-0.104,99.79,2.0,6276.0,0.0,0.0,
2025-08-15T02:04:27.056Z,14,GR86-016-55,-3.2,0.287,-0.09,99.79,2.0,,0.0,0.0,108.82
2025-08-15T02:04:27.098Z,14,GR86-016-55,-3.5,0.294,-0.074,99.78,2.0,,0.0,0.0,
2025-08-15T02:04:27.142Z,14,GR86-016-55,-3.7,0.295,-0.074,99.78,2.0,,0.0,0.0,
2025-08-15T02:04:27.186Z,14,GR86-016-55,-3.7,0.294,-0.059,99.79,2.0,,0.0,0.0,
2025-08-15T02:04:27.228Z,14,GR86-016-55,-3.8,0.298,-0.051,99.78,2.0,6359.0,0.0,0.0,
2025-08-15T02:04:27.272Z,14,GR86-016-55,-3.9,0.293,-0.05,99.79,2.0,,0.0,0.0,110.7
2025-08-15T02:04:27.315Z,14,GR86-016-55,-4.0,0.294,-0.037,99.79,2.0,,0.0,0.0,
2025-08-15T02:04:27.358Z,14,GR86-016-55,-4.1000000000000005,0.299,-0.049,99.79,2.0,,0.0,0.0,
2025-08-15T02:04:27.401Z,14,GR86-016-55,-4.4,0.294,-0.054,99.79,2.0,,0.0,0.0,
2025-08-15T02:04:27.444Z,14,GR86-016-55,-5.0,0.289,-0.05,99.78,2.0,6525.0,0.0,0.0,
2025-08-15T02:04:27.487Z,14,GR86-016-55,-5.4,0.299,-0.069,99.78,2.0,,0.0,0.0,112.44
2025-08-15T02:04:27.531Z,14,GR86-016-55,-5.4,0.299,-0.091,99.79,2.0,,0.0,0.0,
2025-08-15T02:04:27.575Z,14,GR86-016-55,-5.4,0.272,-0.096,99.79,2.0,,0.0,0.0,
2025-08-15T02:04:27.618Z,14,GR86-016-55,-5.2,0.282,-0.085,99.79,2.0,,0.0,0.0,
2025-08-15T02:04:27.661Z,14,GR86-016-55,-5.1000000000000005,0.305,-0.086,99.8,2.0,6617.0,0.0,0.0,
2025-08-15T02:04:27.704Z,14,GR86-016-55,-5.0,0.277,-0.072,99.78,2.0,,0.0,0.0,114.15
2025-08-15T02:04:27.747Z,14,GR86-016-55,-5.1000000000000005,0.288,-0.071,99.78,2.0,,0.0,0.0,
2025-08-15T02:04:27.790Z,14,GR86-016-55,-5.0,0.288,-0.06,99.79,2.0,,0.0,0.0,
2025-08-15T02:04:27.834Z,14,GR86-016-55,-5.1000000000000005,0.294,-0.059,99.78,2.0,,0.0,0.0,
2025-08-15T02:04:27.878Z,14,GR86-016-55,-5.1000000000000005,0.277,-0.047,99.79,2.0,6713.0,0.0,0.0,
2025-08-15T02:04:27.921Z,14,GR86-016-55,-5.0,0.298,-0.037,99.79,2.0,,0.0,0.0,115.74
2025-08-15T02:04:27.964Z,14,GR86-016-55,-5.1000000000000005,0.286,-0.048,99.79,2.0,,0.0,0.0,
2025-08-15T02:04:28.007Z,14,GR86-016-55,-5.0,0.282,-0.032,99.79,2.0,,0.0,0.0,
2025-08-15T02:04:28.050Z,14,GR86-016-55,-5.1000000000000005,0.279,-0.032,99.78,2.0,,0.0,0.0,
2025-08-15T02:04:28.092Z,14,GR86-016-55,-5.1000000000000005,0.304,-0.035,99.78,2.0,6796.0,0.0,0.0,
2025-08-15T02:04:28.136Z,14,GR86-016-55,-5.1000000000000005,0.28,-0.039,99.78,2.0,,0.0,0.0,117.33
2025-08-15T02:04:28.178Z,14,GR86-016-55,-5.1000000000000005,0.281,-0.042,99.79,2.0,,0.0,0.0,
2025-08-15T02:04:28.222Z,14,GR86-016-55,-5.1000000000000005,0.298,-0.059,99.79,2.0,,0.0,0.0,
2025-08-15T02:04:28.265Z,14,GR86-016-55,-5.300000000000001,0.28,-0.074,99.79,2.0,,0.0,0.0,
2025-08-15T02:04:28.308Z,14,GR86-016-55,-5.300000000000001,0.282,-0.064,99.77,2.0,6877.0,0.0,0.0,
2025-08-15T02:04:28.351Z,14,GR86-016-55,-6.7,0.276,-0.07,99.78,2.0,,0.0,0.0,118.91
2025-08-15T02:04:28.394Z,14,GR86-016-55,-8.3,0.287,-0.087,99.79,2.0,,0.0,0.0,
2025-08-15T02:04:28.437Z,14,GR86-016-55,-9.2,0.274,-0.123,99.79,2.0,,0.0,0.0,
2025-08-15T02:04:28.482Z,14,GR86-016-55,-9.2,0.268,-0.141,99.79,2.0,,0.0,0.0,
2025-08-15T02:04:28.526Z,14,GR86-016-55,-9.1,0.296,-0.155,99.78,2.0,6962.0,0.0,0.0,
2025-08-15T02:04:28.568Z,14,GR86-016-55,-8.9,0.289,-0.149,99.8,2.0,,0.0,0.0,120.4
2025-08-15T02:04:28.612Z,14,GR86-016-55,-8.700000000000001,0.278,-0.18,99.79,2.0,,0.0,0.0,
2025-08-15T02:04:28.655Z,14,GR86-016-55,-7.9,0.259,-0.168,99.79,2.0,,0.0,0.0,
2025-08-15T02:04:28.698Z,14,GR86-016-55,-6.5,0.274,-0.165,99.8,2.0,,0.0,0.0,
2025-08-15T02:04:28.742Z,14,GR86-016-55,-5.9,0.295,-0.147,99.77,2.0,7046.0,0.0,0.0,
2025-08-15T02:04:28.786Z,14,GR86-016-55,-5.9,0.256,-0.111,99.78,2.0,,0.0,0.0,121.79
2025-08-15T02:04:28.828Z,14,GR86-016-55,-5.9,0.261,-0.103,99.79,2.0,,0.0,0.0,
2025-08-15T02:04:28.872Z,14,GR86-016-55,-5.7,0.275,-0.087,99.79,2.0,,0.0,0.0,
2025-08-15T02:04:28.915Z,14,GR86-016-55,-5.4,0.304,-0.077,99.79,2.0,,0.0,0.0,
2025-08-15T02:04:28.958Z,14,GR86-016-55,-5.4,0.26,-0.063,99.8,2.0,7115.0,0.0,0.0,
2025-08-15T02:04:29.001Z,14,GR86-016-55,-5.300000000000001,0.257,-0.062,99.81,2.0,,0.0,0.0,123.08
2025-08-15T02:04:29.044Z,14,GR86-016-55,-4.1000000000000005,0.291,-0.067,99.78,2.0,,0.0,0.0,
2025-08-15T02:04:29.087Z,14,GR86-016-55,-2.2,0.077,-0.045,99.79,3.0,,0.0,0.0,
2025-08-15T02:04:29.132Z,14,GR86-016-55,-1.7000000000000002,0.6900000000000001,0.043,99.78,3.0,,0.0,0.0,
2025-08-15T02:04:29.175Z,14,GR86-016-55,-1.4,0.511,-0.102,99.79,3.0,7203.0,0.0,0.0,
2025-08-15T02:04:29.218Z,14,GR86-016-55,-1.2000000000000002,0.365,0.037,99.78,3.0,,0.0,0.0,124.33
2025-08-15T02:04:29.262Z,14,GR86-016-55,-1.3,0.152,0.036,99.78,3.0,,0.0,0.0,
2025-08-15T02:04:29.305Z,14,GR86-016-55,-1.3,0.027,0.001,99.78,3.0,,0.0,0.0,
2025-08-15T02:04:29.348Z,14,GR86-016-55,-1.3,0.245,0.072,99.8,3.0,,0.0,0.0,
2025-08-15T02:04:29.391Z,14,GR86-016-55,-0.8,0.341,0.053,99.78,3.0,7263.0,0.0,0.0,
2025-08-15T02:04:29.435Z,14,GR86-016-55,-0.5,0.236,0.062,99.78,3.0,,0.0,0.0,126.69
2025-08-15T02:04:29.478Z,14,GR86-016-55,-0.4,0.171,0.078,99.79,3.0,,0.0,0.0,
2025-08-15T02:04:29.521Z,14,GR86-016-55,-0.4,0.199,0.091,99.8,3.0,,0.0,0.0,
2025-08-15T02:04:29.564Z,14,GR86-016-55,-0.4,0.263,0.091,99.79,3.0,,0.0,0.0,
2025-08-15T02:04:29.607Z,14,GR86-016-55,-0.5,0.285,0.097,99.8,3.0,5758.0,0.0,0.0,
2025-08-15T02:04:29.650Z,14,GR86-016-55,-0.7000000000000001,0.234,0.095,99.78,3.0,,0.0,0.0,128.11
2025-08-15T02:04:29.692Z,14,GR86-016-55,-0.7000000000000001,0.221,0.1,99.79,3.0,,0.0,0.0,
2025-08-15T02:04:29.737Z,14,GR86-016-55,-0.7000000000000001,0.226,0.092,99.79,3.0,,0.0,0.0,
2025-08-15T02:04:29.780Z,14,GR86-016-55,-0.7000000000000001,0.252,0.051,99.79,3.0,,0.0,0.0,
2025-08-15T02:04:29.823Z,14,GR86-016-55,-0.8,0.246,0.049,99.78,3.0,5935.0,0.0,0.0,
2025-08-15T02:04:29.866Z,14,GR86-016-55,-0.8,0.231,0.063,99.78,3.0,,0.0,0.0,129.06
2025-08-15T02:04:29.909Z,14,GR86-016-55,-0.8,0.217,0.031,99.79,3.0,,0.0,0.0,
2025-08-15T02:04:29.952Z,14,GR86-016-55,-0.8,0.24,0.033,99.79,3.0,,14.51,14.68,
2025-08-15T02:04:29.995Z,14,GR86-016-55,-0.8,0.212,0.003,99.79,3.0,,12.085,12.5,
2025-08-15T02:04:30.038Z,14,GR86-016-55,-0.8,0.148,0.031,99.78,3.0,6091.0,6.09,6.805,
2025-08-15T02:04:30.081Z,14,GR86-016-55,-0.7000000000000001,0.163,0.029,99.79,3.0,,0.0,0.0,129.98
2025-08-15T02:04:30.124Z,14,GR86-016-55,-0.4,0.209,0.036,99.79,3.0,,0.0,0.0,
2025-08-15T02:04:30.167Z,14,GR86-016-55,-0.1,0.239,0.039,99.79,3.0,,0.0,0.0,
2025-08-15T02:04:30.210Z,14,GR86-016-55,0.2,0.255,0.052,99.79,3.0,,0.0,0.0,
2025-08-15T02:04:30.253Z,14,GR86-016-55,0.4,0.227,0.085,99.78,3.0,6115.0,0.0,0.0,
2025-08-15T02:04:30.296Z,14,GR86-016-55,0.5,0.215,0.108,99.78,3.0,,0.0,0.0,130.89
2025-08-15T02:04:30.339Z,14,GR86-016-55,0.5,0.227,0.105,99.8,3.0,,0.0,0.0,
2025-08-15T02:04:30.382Z,14,GR86-016-55,0.5,0.243,0.119,99.78,3.0,,0.0,0.0,
2025-08-15T02:04:30.425Z,14,GR86-016-55,0.6000000000000001,0.23,0.158,99.79,3.0,,0.0,0.0,
2025-08-15T02:04:30.468Z,14,GR86-016-55,0.9,0.226,0.165,99.79,3.0,6166.0,0.0,0.0,
2025-08-15T02:04:30.554Z,14,GR86-016-55,5.5,-0.163,0.148,13.52,3.0,,58.875,58.245000000000005,131.52
2025-08-15T02:04:30.640Z,14,GR86-016-55,4.9,-0.764,0.142,4.25,3.0,,57.805,59.115,
2025-08-15T02:04:30.683Z,14,GR86-016-55,4.6000000000000005,-1.005,0.16,4.09,3.0,6211.0,48.620000000000005,50.31,
2025-08-15T02:04:30.726Z,14,GR86-016-55,4.5,-0.795,0.07,3.85,3.0,,46.865,47.9,132.51
2025-08-15T02:04:30.769Z,14,GR86-016-55,5.6000000000000005,-0.859,0.042,3.42,3.0,,40.895,42.18,
2025-08-15T02:04:30.812Z,14,GR86-016-55,7.4,-0.722,0.111,3.06,3.0,,29.77,31.055,
2025-08-15T02:04:30.855Z,14,GR86-016-55,9.3,-0.797,0.122,2.94,3.0,,29.985,30.43,
2025-08-15T02:04:30.898Z,14,GR86-016-55,12.2,-0.845,0.15,2.87,3.0,5968.0,36.335,36.64,
2025-08-15T02:04:30.941Z,14,GR86-016-55,15.7,-0.85,0.193,2.78,3.0,,44.62,44.91,131.65
2025-08-15T02:04:30.986Z,14,GR86-016-55,18.5,-0.971,0.197,2.71,3.0,,47.52,47.765,
2025-08-15T02:04:31.028Z,14,GR86-016-55,18.9,-0.996,0.277,7.72,3.0,,47.84,48.3,
2025-08-15T02:04:31.072Z,14,GR86-016-55,15.4,-0.959,0.275,48.24,2.0,,48.145,48.65,
2025-08-15T02:04:31.115Z,14,GR86-016-55,10.5,-1.106,0.251,3.76,2.0,5318.0,52.435,53.09,
2025-08-15T02:04:31.158Z,14,GR86-016-55,8.700000000000001,-1.084,0.239,4.32,2.0,,60.58,61.65,124.55
2025-08-15T02:04:31.201Z,14,GR86-016-55,10.2,-1.206,0.226,4.23,2.0,,63.925,64.52,
2025-08-15T02:04:31.244Z,14,GR86-016-55,15.6,-1.323,0.168,3.99,2.0,,61.68,62.43,
2025-08-15T02:04:31.287Z,14,GR86-016-55,16.900000000000002,-1.02,0.388,3.64,2.0,,57.56,58.705,
2025-08-15T02:04:31.332Z,14,GR86-016-55,18.9,-0.752,0.408,3.04,2.0,5288.0,39.005,39.845,
2025-08-15T02:04:31.375Z,14,GR86-016-55,21.5,-0.938,0.55,2.91,2.0,,34.06,34.99,119.63
2025-08-15T02:04:31.418Z,14,GR86-016-55,26.3,-0.799,0.557,2.83,2.0,,28.215,28.935,
2025-08-15T02:04:31.461Z,14,GR86-016-55,32.2,-0.667,0.5650000000000001,2.77,2.0,,18.8,19.455,
2025-08-15T02:04:31.504Z,14,GR86-016-55,39.6,-0.603,0.781,2.71,2.0,,11.215,11.995,
2025-08-15T02:04:31.547Z,14,GR86-016-55,47.2,-0.398,0.895,2.65,2.0,5409.0,8.76,9.4,
2025-08-15T02:04:31.592Z,14,GR86-016-55,55.400000000000006,-0.304,0.897,2.61,2.0,,3.19,3.695,112.63
2025-08-15T02:04:31.636Z,14,GR86-016-55,57.6,-0.18,1.035,2.58,2.0,,0.0,0.0,
2025-08-15T02:04:31.680Z,14,GR86-016-55,57.5,-0.174,1.053,2.58,2.0,,0.0,0.0,
2025-08-15T02:04:31.723Z,14,GR86-016-55,53.0,-0.146,1.0,2.5500000000000003,2.0,,0.0,0.0,
2025-08-15T02:04:31.766Z,14,GR86-016-55,42.5,-0.157,1.091,2.54,2.0,5506.0,0.0,0.0,
2025-08-15T02:04:31.808Z,14,GR86-016-55,35.1,-0.126,0.993,2.54,2.0,,0.0,0.0,104.77
2025-08-15T02:04:31.852Z,14,GR86-016-55,36.8,-0.148,0.995,2.53,2.0,,16.465,16.405,
2025-08-15T02:04:31.895Z,14,GR86-016-55,45.900000000000006,-0.395,0.983,2.52,2.0,,18.495,18.235,
2025-08-15T02:04:31.938Z,14,GR86-016-55,53.3,-0.363,0.996,2.52,2.0,,18.055,18.465,
2025-08-15T02:04:31.981Z,14,GR86-016-55,55.8,-0.42,1.025,2.52,2.0,5627.0,11.035,11.965,
2025-08-15T02:04:32.024Z,14,GR86-016-55,54.5,-0.29,1.113,2.52,2.0,,3.25,3.695,102.43
2025-08-15T02:04:32.067Z,14,GR86-016-55,45.7,-0.222,1.116,2.5,2.0,,0.0,0.0,
2025-08-15T02:04:32.110Z,14,GR86-016-55,31.0,-0.176,1.124,2.49,2.0,,0.0,0.0,
2025-08-15T02:04:32.153Z,14,GR86-016-55,26.9,-0.142,1.062,2.5,2.0,,0.0,0.0,
2025-08-15T02:04:32.196Z,14,GR86-016-55,28.9,-0.131,1.064,2.48,2.0,5558.0,0.0,0.0,
2025-08-15T02:04:32.239Z,14,GR86-016-55,38.7,-0.115,1.115,2.49,2.0,,0.0,0.0,98.73
2025-08-15T02:04:32.282Z,14,GR86-016-55,50.3,-0.141,1.161,2.49,2.0,,0.0,0.0,
2025-08-15T02:04:32.325Z,14,GR86-016-55,61.5,-0.113,1.183,2.49,2.0,,0.0,0.0,
2025-08-15T02:04:32.368Z,14,GR86-016-55,69.0,-0.145,1.207,2.49,2.0,,0.0,0.0,
2025-08-15T02:04:32.411Z,14,GR86-016-55,72.5,-0.169,1.194,2.49,2.0,5306.0,0.0,0.0,
2025-08-15T02:04:32.454Z,14,GR86-016-55,72.5,-0.168,1.206,2.49,2.0,,0.0,0.0,96.91
2025-08-15T02:04:32.497Z,14,GR86-016-55,72.4,-0.165,1.192,2.49,2.0,,0.0,0.0,
2025-08-15T02:04:32.540Z,14,GR86-016-55,72.4,-0.153,1.195,2.49,2.0,,0.0,0.0,
2025-08-15T02:04:32.583Z,14,GR86-016-55,72.5,-0.179,1.229,2.49,2.0,,0.0,0.0,
2025-08-15T02:04:32.626Z,14,GR86-016-55,73.10000000000001,-0.166,1.188,18.67,2.0,5321.0,0.0,0.0,
2025-08-15T02:04:32.669Z,14,GR86-016-55,73.60000000000001,-0.161,1.216,21.83,2.0,,0.0,0.0,95.22
2025-08-15T02:04:32.712Z,14,GR86-016-55,74.8,-0.118,1.222,36.92,2.0,,0.0,0.0,
2025-08-15T02:04:32.755Z,14,GR86-016-55,76.3,-0.085,1.198,70.5,2.0,,0.0,0.0,
2025-08-15T02:04:32.798Z,14,GR86-016-55,77.5,-0.071,1.189,98.46,2.0,,0.0,0.0,
2025-08-15T02:04:32.841Z,14,GR86-016-55,77.9,-0.044,1.154,98.96,2.0,5184.0,0.0,0.0,
2025-08-15T02:04:32.885Z,14,GR86-016-55,78.0,0.267,1.182,99.32,2.0,,0.0,0.0,93.88
2025-08-15T02:04:32.928Z,14,GR86-016-55,78.10000000000001,0.328,1.102,99.4,2.0,,0.0,0.0,
2025-08-15T02:04:32.971Z,14,GR86-016-55,78.5,0.326,1.268,99.61,2.0,,0.0,0.0,
2025-08-15T02:04:33.014Z,14,GR86-016-55,79.10000000000001,0.265,1.281,99.71,2.0,,0.0,0.0,
2025-08-15T02:04:33.057Z,14,GR86-016-55,79.80000000000001,0.318,1.194,99.72,2.0,5468.0,0.0,0.0,
2025-08-15T02:04:33.101Z,14,GR86-016-55,80.5,0.231,1.251,99.72,2.0,,0.0,0.0,92.67
2025-08-15T02:04:33.144Z,14,GR86-016-55,80.4,0.088,1.316,99.72,2.0,,0.0,0.0,
2025-08-15T02:04:33.187Z,14,GR86-016-55,80.30000000000001,0.318,1.29,99.73,2.0,,0.0,0.0,
2025-08-15T02:04:33.232Z,14,GR86-016-55,80.5,0.179,1.318,99.72,2.0,,0.0,0.0,
2025-08-15T02:04:33.275Z,14,GR86-016-55,81.5,0.507,1.154,99.76,2.0,5460.0,0.0,0.0,
2025-08-15T02:04:33.318Z,14,GR86-016-55,83.4,0.497,0.966,99.75,2.0,,0.0,0.0,92.26
2025-08-15T02:04:33.361Z,14,GR86-016-55,84.4,0.018,1.091,99.76,2.0,,0.0,0.0,
2025-08-15T02:04:33.404Z,14,GR86-016-55,85.4,-0.02,1.053,99.75,2.0,,0.0,0.0,
2025-08-15T02:04:33.447Z,14,GR86-016-55,86.30000000000001,0.398,1.175,97.29,2.0,,0.0,0.0,
2025-08-15T02:04:33.490Z,14,GR86-016-55,86.9,0.161,1.234,26.58,2.0,5617.0,0.0,0.0,
2025-08-15T02:04:33.535Z,14,GR86-016-55,87.0,0.499,1.017,56.77,2.0,,0.0,0.0,93.63
2025-08-15T02:04:33.578Z,14,GR86-016-55,87.30000000000001,0.23,1.166,97.76,2.0,,0.0,0.0,
2025-08-15T02:04:33.621Z,14,GR86-016-55,88.2,0.142,1.185,69.35000000000001,2.0,,0.0,0.0,
2025-08-15T02:04:33.664Z,14,GR86-016-55,89.80000000000001,0.137,1.188,1.88,2.0,,0.0,0.0,
2025-08-15T02:04:33.707Z,14,GR86-016-55,90.9,0.209,1.212,3.27,2.0,5764.0,0.0,0.0,
2025-08-15T02:04:33.750Z,14,GR86-016-55,91.4,0.071,1.264,3.2,2.0,,0.0,0.0,94.62
2025-08-15T02:04:33.792Z,14,GR86-016-55,91.6,-0.135,1.222,3.16,2.0,,0.0,0.0,
2025-08-15T02:04:33.836Z,14,GR86-016-55,91.9,-0.087,1.124,3.1,2.0,,0.0,0.0,
2025-08-15T02:04:33.878Z,14,GR86-016-55,92.3,-0.327,1.159,13.05,2.0,,0.0,0.0,
2025-08-15T02:04:33.922Z,14,GR86-016-55,92.4,-0.229,1.202,43.37,2.0,5652.0,0.0,0.0,
2025-08-15T02:04:33.965Z,14,GR86-016-55,92.5,-0.185,1.224,85.83,2.0,,0.0,0.0,96.08
2025-08-15T02:04:34.009Z,14,GR86-016-55,92.6,-0.112,1.163,98.59,2.0,,0.0,0.0,
2025-08-15T02:04:34.052Z,14,GR86-016-55,92.4,-0.081,1.173,99.27,2.0,,0.0,0.0,
2025-08-15T02:04:34.095Z,14,GR86-016-55,87.80000000000001,0.206,1.084,99.4,2.0,,0.0,0.0,
2025-08-15T02:04:34.138Z,14,GR86-016-55,77.7,0.294,1.094,99.53,2.0,5213.0,0.0,0.0,
2025-08-15T02:04:34.182Z,14,GR86-016-55,62.2,0.31,1.084,99.72,2.0,,0.0,0.0,97.36
2025-08-15T02:04:34.225Z,14,GR86-016-55,45.1,0.341,1.119,99.71,2.0,,0.0,0.0,
2025-08-15T02:04:34.268Z,14,GR86-016-55,28.9,0.306,1.029,99.72,2.0,,0.0,0.0,
2025-08-15T02:04:34.312Z,14,GR86-016-55,7.0,0.24,1.053,99.73,2.0,,0.0,0.0,
2025-08-15T02:04:34.355Z,14,GR86-016-55,-4.4,0.237,1.002,99.73,2.0,5593.0,0.0,0.0,
2025-08-15T02:04:34.398Z,14,GR86-016-55,-9.7,0.29,0.936,99.72,2.0,,0.0,0.0,96.87
2025-08-15T02:04:34.441Z,14,GR86-016-55,-7.5,0.315,1.019,99.72,2.0,,0.0,0.0,
2025-08-15T02:04:34.486Z,14,GR86-016-55,8.200000000000001,0.338,0.99,99.74,2.0,,0.0,0.0,
2025-08-15T02:04:34.528Z,14,GR86-016-55,25.3,0.321,1.105,99.75,2.0,,0.0,0.0,
2025-08-15T02:04:34.572Z,14,GR86-016-55,37.3,0.26,1.154,99.76,2.0,5829.0,0.0,0.0,
2025-08-15T02:04:34.615Z,14,GR86-016-55,38.400000000000006,0.29,1.131,99.76,2.0,,0.0,0.0,96.59
2025-08-15T02:04:34.658Z,14,GR86-016-55,40.5,0.273,1.151,99.75,2.0,,0.0,0.0,
2025-08-15T02:04:34.701Z,14,GR86-016-55,45.2,0.295,1.08,99.75,2.0,,0.0,0.0,
2025-08-15T02:04:34.744Z,14,GR86-016-55,52.1,0.28,1.021,99.75,2.0,,0.0,0.0,
2025-08-15T02:04:34.787Z,14,GR86-016-55,57.8,0.279,0.902,99.75,2.0,5917.0,0.0,0.0,
2025-08-15T02:04:34.832Z,14,GR86-016-55,60.8,0.333,0.769,99.75,2.0,,0.0,0.0,98.72
2025-08-15T02:04:34.875Z,14,GR86-016-55,60.400000000000006,0.274,0.718,99.74,2.0,,0.0,0.0,
