timestamp,lap,vehicle_id,steering_angle,accx_can,accy_can,ath,gear,nmot,pbrake_f,pbrake_r,speed
2025-08-15T00:53:14.005Z,3,GR86-047-21,3.4000000000000004,0.187,-0.102,99.98,5.0,,0.0,0.0,
2025-08-15T00:53:14.048Z,3,GR86-047-21,3.4000000000000004,0.189,-0.005,99.99,5.0,7284.0,0.0,0.0,
2025-08-15T00:53:14.092Z,3,GR86-047-21,3.4000000000000004,0.09,-0.062,99.99,5.0,,0.0,0.0,186.44
2025-08-15T00:53:14.135Z,3,GR86-047-21,3.4000000000000004,0.087,-0.023,100.0,5.0,,0.0,0.0,
2025-08-15T00:53:14.178Z,3,GR86-047-21,3.4000000000000004,0.168,0.024,99.99,5.0,,0.0,0.0,
2025-08-15T00:53:14.221Z,3,GR86-047-21,3.4000000000000004,0.149,-0.003,99.98,5.0,,0.0,0.0,
2025-08-15T00:53:14.265Z,3,GR86-047-21,3.4000000000000004,0.063,0.024,100.0,5.0,6345.0,0.0,0.0,
2025-08-15T00:53:14.308Z,3,GR86-047-21,3.4000000000000004,0.089,0.033,99.98,5.0,,0.0,0.0,187.4
2025-08-15T00:53:14.351Z,3,GR86-047-21,3.4000000000000004,0.12,0.064,99.99,5.0,,0.0,0.0,
2025-08-15T00:53:14.396Z,3,GR86-047-21,3.4000000000000004,0.088,0.07,99.99,5.0,,0.0,0.0,
2025-08-15T00:53:14.438Z,3,GR86-047-21,3.4000000000000004,0.1,0.068,99.99,5.0,,0.0,0.0,
2025-08-15T00:53:14.481Z,3,GR86-047-21,3.4000000000000004,0.129,0.053,100.0,5.0,6311.0,0.0,0.0,
2025-08-15T00:53:14.525Z,3,GR86-047-21,3.4000000000000004,0.114,0.016,100.0,5.0,,0.0,0.0,188.13
2025-08-15T00:53:14.568Z,3,GR86-047-21,3.4000000000000004,0.067,0.028,100.0,5.0,,0.0,0.0,
2025-08-15T00:53:14.612Z,3,GR86-047-21,3.4000000000000004,0.097,0.057,100.01,5.0,,0.0,0.0,
2025-08-15T00:53:14.655Z,3,GR86-047-21,3.4000000000000004,0.072,0.042,100.0,5.0,,0.0,0.0,
2025-08-15T00:53:14.698Z,3,GR86-047-21,3.4000000000000004,0.08,0.073,100.01,5.0,6416.0,0.0,0.0,
2025-08-15T00:53:14.741Z,3,GR86-047-21,3.4000000000000004,0.074,0.042,100.01,5.0,,0.0,0.0,188.82
2025-08-15T00:53:14.785Z,3,GR86-047-21,3.4000000000000004,0.107,0.045,100.0,5.0,,0.0,0.0,
2025-08-15T00:53:14.828Z,3,GR86-047-21,3.4000000000000004,0.131,0.06,100.01,5.0,,0.0,0.0,
2025-08-15T00:53:14.871Z,3,GR86-047-21,3.4000000000000004,0.103,0.045,100.0,5.0,,0.0,0.0,
2025-08-15T00:53:14.915Z,3,GR86-047-21,3.4000000000000004,0.092,0.062,100.0,5.0,6438.0,0.0,0.0,
2025-08-15T00:53:14.958Z,3,GR86-047-21,3.4000000000000004,0.085,0.034,100.02,5.0,,0.0,0.0,189.61
2025-08-15T00:53:15.001Z,3,GR86-047-21,3.4000000000000004,0.096,0.019,100.01,5.0,,0.0,0.0,
2025-08-15T00:53:15.045Z,3,GR86-047-21,3.4000000000000004,0.121,0.003,100.0,5.0,,0.0,0.0,
2025-08-15T00:53:15.088Z,3,GR86-047-21,3.4000000000000004,0.111,-0.026,100.0,5.0,,0.0,0.0,
2025-08-15T00:53:15.131Z,3,GR86-047-21,3.3000000000000003,0.111,-0.022,100.02,5.0,6464.0,0.0,0.0,
2025-08-15T00:53:15.175Z,3,GR86-047-21,3.3000000000000003,0.114,-0.036,99.99,5.0,,0.0,0.0,190.29
2025-08-15T00:53:15.218Z,3,GR86-047-21,3.3000000000000003,0.104,-0.033,100.01,5.0,,0.0,0.0,
2025-08-15T00:53:15.260Z,3,GR86-047-21,3.3000000000000003,0.093,-0.048,100.01,5.0,,0.0,0.0,
2025-08-15T00:53:15.304Z,3,GR86-047-21,3.3000000000000003,0.098,-0.036,100.0,5.0,,0.0,0.0,
2025-08-15T00:53:15.346Z,3,GR86-047-21,3.3000000000000003,0.113,-0.012,99.99,5.0,6488.0,0.0,0.0,
2025-08-15T00:53:15.389Z,3,GR86-047-21,3.3000000000000003,0.097,-0.006,99.97,5.0,,0.0,0.0,191.08
2025-08-15T00:53:15.432Z,3,GR86-047-21,3.3000000000000003,0.12,-0.014,100.02,5.0,,0.0,0.0,
2025-08-15T00:53:15.475Z,3,GR86-047-21,3.3000000000000003,0.107,0.024,100.0,5.0,,0.0,0.0,
2025-08-15T00:53:15.519Z,3,GR86-047-21,3.3000000000000003,0.127,0.02,99.99,5.0,,0.0,0.0,
2025-08-15T00:53:15.561Z,3,GR86-047-21,3.3000000000000003,0.097,0.001,99.99,5.0,6513.0,0.0,0.0,
2025-08-15T00:53:15.605Z,3,GR86-047-21,3.3000000000000003,0.088,0.013,99.98,5.0,,0.0,0.0,191.82
2025-08-15T00:53:15.648Z,3,GR86-047-21,3.3000000000000003,0.109,-0.015,100.0,5.0,,0.0,0.0,
2025-08-15T00:53:15.691Z,3,GR86-047-21,3.3000000000000003,0.088,-0.014,100.0,5.0,,0.0,0.0,
2025-08-15T00:53:15.735Z,3,GR86-047-21,3.3000000000000003,0.117,-0.01,99.99,5.0,,0.0,0.0,
2025-08-15T00:53:15.778Z,3,GR86-047-21,3.3000000000000003,0.114,-0.01,99.98,5.0,6536.0,0.0,0.0,
2025-08-15T00:53:15.821Z,3,GR86-047-21,3.3000000000000003,0.101,0.024,99.99,5.0,,0.0,0.0,192.43
2025-08-15T00:53:15.865Z,3,GR86-047-21,3.3000000000000003,0.073,-0.005,100.0,5.0,,0.0,0.0,
2025-08-15T00:53:15.908Z,3,GR86-047-21,3.3000000000000003,0.132,-0.003,100.0,5.0,,0.0,0.0,
2025-08-15T00:53:15.995Z,3,GR86-047-21,3.3000000000000003,0.118,-0.011,100.01,5.0,6552.0,0.0,0.0,
2025-08-15T00:53:16.038Z,3,GR86-047-21,3.3000000000000003,0.103,-0.011,99.98,5.0,,0.0,0.0,193.18
2025-08-15T00:53:16.081Z,3,GR86-047-21,3.3000000000000003,0.122,-0.003,100.0,5.0,,0.0,0.0,
2025-08-15T00:53:16.126Z,3,GR86-047-21,3.3000000000000003,0.1,-0.029,99.99,5.0,,0.0,0.0,
2025-08-15T00:53:16.168Z,3,GR86-047-21,3.3000000000000003,0.116,-0.037,99.99,5.0,,0.0,0.0,
2025-08-15T00:53:16.211Z,3,GR86-047-21,3.3000000000000003,0.099,-0.041,100.0,5.0,6581.0,0.0,0.0,
2025-08-15T00:53:16.255Z,3,GR86-047-21,3.3000000000000003,0.099,-0.038,100.0,5.0,,0.0,0.0,194.01
2025-08-15T00:53:16.298Z,3,GR86-047-21,3.3000000000000003,0.1,-0.044,100.0,5.0,,0.0,0.0,
2025-08-15T00:53:16.341Z,3,GR86-047-21,3.3000000000000003,0.112,-0.039,100.01,5.0,,0.0,0.0,
2025-08-15T00:53:16.385Z,3,GR86-047-21,3.3000000000000003,0.086,-0.07,100.0,5.0,,0.0,0.0,
2025-08-15T00:53:16.428Z,3,GR86-047-21,3.3000000000000003,0.091,-0.038,100.01,5.0,6595.0,0.0,0.0,
2025-08-15T00:53:16.471Z,3,GR86-047-21,3.3000000000000003,0.116,-0.029,100.02,5.0,,0.0,0.0,194.42
2025-08-15T00:53:16.515Z,3,GR86-047-21,3.3000000000000003,0.093,-0.016,100.02,5.0,,0.0,0.0,
2025-08-15T00:53:16.557Z,3,GR86-047-21,3.3000000000000003,0.09,-0.013,100.0,5.0,,0.0,0.0,
2025-08-15T00:53:16.600Z,3,GR86-047-21,3.3000000000000003,0.098,0.003,99.99,5.0,,0.0,0.0,
2025-08-15T00:53:16.644Z,3,GR86-047-21,3.3000000000000003,0.1,0.003,100.02,5.0,6636.0,0.0,0.0,
2025-08-15T00:53:16.688Z,3,GR86-047-21,3.3000000000000003,0.095,0.015,100.03,5.0,,0.0,0.0,196.05
2025-08-15T00:53:16.731Z,3,GR86-047-21,3.3000000000000003,0.087,0.031,99.99,5.0,,0.0,0.0,
2025-08-15T00:53:16.775Z,3,GR86-047-21,3.3000000000000003,0.084,0.061,100.0,5.0,,0.0,0.0,
2025-08-15T00:53:16.818Z,3,GR86-047-21,3.3000000000000003,0.108,0.058,100.02,5.0,,0.0,0.0,
2025-08-15T00:53:16.861Z,3,GR86-047-21,3.3000000000000003,0.091,0.037,99.99,5.0,6653.0,0.0,0.0,
2025-08-15T00:53:16.905Z,3,GR86-047-21,3.3000000000000003,0.092,0.038,100.01,5.0,,0.0,0.0,196.83
2025-08-15T00:53:16.948Z,3,GR86-047-21,3.3000000000000003,0.081,0.036,100.0,5.0,,0.0,0.0,
2025-08-15T00:53:16.991Z,3,GR86-047-21,3.3000000000000003,0.102,0.035,100.0,5.0,,0.0,0.0,
2025-08-15T00:53:17.035Z,3,GR86-047-21,3.3000000000000003,0.09,0.035,100.02,5.0,,0.0,0.0,
2025-08-15T00:53:17.077Z,3,GR86-047-21,3.3000000000000003,0.087,0.039,100.01,5.0,6683.0,0.0,0.0,
2025-08-15T00:53:17.121Z,3,GR86-047-21,3.3000000000000003,0.078,0.052,100.0,5.0,,0.0,0.0,197.54
2025-08-15T00:53:17.164Z,3,GR86-047-21,3.3000000000000003,0.104,0.051,99.99,5.0,,0.0,0.0,
2025-08-15T00:53:17.207Z,3,GR86-047-21,3.3000000000000003,0.082,0.044,99.99,5.0,,0.0,0.0,
2025-08-15T00:53:17.251Z,3,GR86-047-21,3.3000000000000003,0.08,0.068,100.0,5.0,,0.0,0.0,
2025-08-15T00:53:17.295Z,3,GR86-047-21,3.3000000000000003,0.095,0.086,100.01,5.0,6724.0,0.0,0.0,
2025-08-15T00:53:17.338Z,3,GR86-047-21,3.3000000000000003,0.087,0.093,100.0,5.0,,0.0,0.0,198.28
2025-08-15T00:53:17.381Z,3,GR86-047-21,3.3000000000000003,0.076,0.073,100.0,5.0,,0.0,0.0,
2025-08-15T00:53:17.425Z,3,GR86-047-21,3.3000000000000003,0.097,0.033,100.02,5.0,,0.0,0.0,
2025-08-15T00:53:17.469Z,3,GR86-047-21,3.3000000000000003,0.09,0.052,100.0,5.0,,0.0,0.0,
2025-08-15T00:53:17.511Z,3,GR86-047-21,3.3000000000000003,0.069,0.028,100.02,5.0,6756.0,0.0,0.0,
2025-08-15T00:53:17.555Z,3,GR86-047-21,3.3000000000000003,0.062,0.022,99.99,5.0,,0.0,0.0,198.82
2025-08-15T00:53:17.598Z,3,GR86-047-21,3.3000000000000003,0.095,0.0,100.0,5.0,,0.0,0.0,
2025-08-15T00:53:17.641Z,3,GR86-047-21,3.3000000000000003,0.089,-0.021,100.0,5.0,,0.0,0.0,
2025-08-15T00:53:17.685Z,3,GR86-047-21,3.3000000000000003,0.085,0.014,99.99,5.0,,0.0,0.0,
2025-08-15T00:53:17.728Z,3,GR86-047-21,3.3000000000000003,0.073,-0.029,100.01,5.0,6772.0,0.0,0.0,
2025-08-15T00:53:17.771Z,3,GR86-047-21,3.3000000000000003,0.082,-0.038,100.01,5.0,,0.0,0.0,199.44
2025-08-15T00:53:17.815Z,3,GR86-047-21,3.3000000000000003,0.079,-0.037,100.0,5.0,,0.0,0.0,
2025-08-15T00:53:17.858Z,3,GR86-047-21,3.3000000000000003,0.101,-0.032,100.0,5.0,,0.0,0.0,
2025-08-15T00:53:17.901Z,3,GR86-047-21,3.3000000000000003,0.08,-0.011,100.0,5.0,,0.0,0.0,
2025-08-15T00:53:17.945Z,3,GR86-047-21,3.3000000000000003,0.059,0.022,99.99,5.0,6801.0,0.0,0.0,
2025-08-15T00:53:17.988Z,3,GR86-047-21,3.3000000000000003,0.102,0.042,100.01,5.0,,0.0,0.0,200.26
2025-08-15T00:53:18.031Z,3,GR86-047-21,3.3000000000000003,0.07,0.036,100.0,5.0,,0.0,0.0,
2025-08-15T00:53:18.075Z,3,GR86-047-21,3.3000000000000003,0.117,0.036,99.99,5.0,,0.0,0.0,
2025-08-15T00:53:18.118Z,3,GR86-047-21,3.3000000000000003,0.069,0.001,99.99,5.0,,0.0,0.0,
2025-08-15T00:53:18.161Z,3,GR86-047-21,3.3000000000000003,0.087,-0.01,99.99,5.0,6815.0,0.0,0.0,
2025-08-15T00:53:18.205Z,3,GR86-047-21,3.2,0.105,0.004,99.99,5.0,,0.0,0.0,200.99
2025-08-15T00:53:18.248Z,3,GR86-047-21,3.2,0.087,-0.01,99.98,5.0,,0.0,0.0,
2025-08-15T00:53:18.292Z,3,GR86-047-21,3.2,0.068,-0.037,100.0,5.0,,0.0,0.0,
2025-08-15T00:53:18.335Z,3,GR86-047-21,3.3000000000000003,0.101,-0.036,100.0,5.0,,0.0,0.0,
2025-08-15T00:53:18.378Z,3,GR86-047-21,3.3000000000000003,0.058,-0.016,100.01,5.0,6839.0,0.0,0.0,
2025-08-15T00:53:18.421Z,3,GR86-047-21,3.3000000000000003,0.067,0.003,99.99,5.0,,0.0,0.0,201.66
2025-08-15T00:53:18.465Z,3,GR86-047-21,3.2,0.091,-0.021,100.0,5.0,,0.0,0.0,
2025-08-15T00:53:18.507Z,3,GR86-047-21,3.2,0.072,-0.014,100.02,5.0,,0.0,0.0,
2025-08-15T00:53:18.550Z,3,GR86-047-21,3.2,0.082,-0.031,99.99,5.0,,0.0,0.0,
2025-08-15T00:53:18.594Z,3,GR86-047-21,3.2,0.067,-0.022,100.0,5.0,6865.0,0.0,0.0,
2025-08-15T00:53:18.638Z,3,GR86-047-21,3.2,0.058,-0.01,100.0,5.0,,0.0,0.0,202.34
2025-08-15T00:53:18.681Z,3,GR86-047-21,3.1,0.068,-0.044,100.01,5.0,,0.0,0.0,
2025-08-15T00:53:18.725Z,3,GR86-047-21,3.0,0.061,-0.031,100.0,5.0,,0.0,0.0,
2025-08-15T00:53:18.768Z,3,GR86-047-21,3.0,0.068,-0.074,100.01,5.0,,0.0,0.0,
2025-08-15T00:53:18.812Z,3,GR86-047-21,2.9000000000000004,0.067,-0.095,100.0,5.0,6893.0,0.0,0.0,
2025-08-15T00:53:18.855Z,3,GR86-047-21,2.9000000000000004,0.074,-0.098,100.0,5.0,,0.0,0.0,203.02
2025-08-15T00:53:18.898Z,3,GR86-047-21,2.9000000000000004,0.11,-0.099,100.02,5.0,,0.0,0.0,
2025-08-15T00:53:18.941Z,3,GR86-047-21,2.9000000000000004,0.085,-0.074,100.02,5.0,,0.0,0.0,
2025-08-15T00:53:18.985Z,3,GR86-047-21,2.9000000000000004,0.086,-0.066,99.99,5.0,,0.0,0.0,
2025-08-15T00:53:19.028Z,3,GR86-047-21,2.9000000000000004,0.093,-0.056,100.0,5.0,6912.0,0.0,0.0,
2025-08-15T00:53:19.071Z,3,GR86-047-21,2.9000000000000004,0.099,-0.039,99.98,5.0,,0.0,0.0,203.75
2025-08-15T00:53:19.115Z,3,GR86-047-21,2.9000000000000004,0.102,-0.069,100.0,5.0,,0.0,0.0,
2025-08-15T00:53:19.157Z,3,GR86-047-21,2.9000000000000004,0.08,-0.038,100.0,5.0,,0.0,0.0,
2025-08-15T00:53:19.201Z,3,GR86-047-21,2.9000000000000004,0.057,-0.029,99.98,5.0,,0.0,0.0,
2025-08-15T00:53:19.244Z,3,GR86-047-21,2.9000000000000004,0.094,-0.013,99.98,5.0,6935.0,0.0,0.0,
2025-08-15T00:53:19.286Z,3,GR86-047-21,2.9000000000000004,0.093,-0.024,100.0,5.0,,0.0,0.0,205.15
2025-08-15T00:53:19.329Z,3,GR86-047-21,2.9000000000000004,0.062,-0.03,100.0,5.0,,0.0,0.0,
2025-08-15T00:53:19.372Z,3,GR86-047-21,2.9000000000000004,0.064,-0.028,99.98,5.0,,0.0,0.0,
2025-08-15T00:53:19.416Z,3,GR86-047-21,2.9000000000000004,0.068,-0.031,100.02,5.0,,0.0,0.0,
2025-08-15T00:53:19.458Z,3,GR86-047-21,2.9000000000000004,0.089,-0.036,100.0,5.0,6958.0,0.0,0.0,
2025-08-15T00:53:19.501Z,3,GR86-047-21,2.9000000000000004,0.088,-0.032,99.99,5.0,,0.0,0.0,205.8
2025-08-15T00:53:19.545Z,3,GR86-047-21,2.9000000000000004,0.043,0.01,100.0,5.0,,0.0,0.0,
2025-08-15T00:53:19.588Z,3,GR86-047-21,2.9000000000000004,0.084,0.014,100.02,5.0,,0.0,0.0,
2025-08-15T00:53:19.631Z,3,GR86-047-21,3.1,0.083,0.024,100.0,5.0,,0.0,0.0,
2025-08-15T00:53:19.675Z,3,GR86-047-21,3.1,0.117,0.024,100.01,5.0,6982.0,0.0,0.0,
2025-08-15T00:53:19.718Z,3,GR86-047-21,3.1,0.093,0.05,100.0,5.0,,0.0,0.0,206.47
2025-08-15T00:53:19.760Z,3,GR86-047-21,3.1,0.072,0.068,100.0,5.0,,0.0,0.0,
2025-08-15T00:53:19.804Z,3,GR86-047-21,3.1,0.11,0.017,100.01,5.0,,0.0,0.0,
2025-08-15T00:53:19.848Z,3,GR86-047-21,3.1,0.102,0.01,100.01,5.0,,0.0,0.0,
2025-08-15T00:53:19.892Z,3,GR86-047-21,3.1,0.076,0.016,100.01,5.0,7028.0,0.0,0.0,
2025-08-15T00:53:19.935Z,3,GR86-047-21,3.1,0.078,0.015,100.01,5.0,,0.0,0.0,207.24
2025-08-15T00:53:19.977Z,3,GR86-047-21,3.1,0.052,0.004,100.01,5.0,,0.0,0.0,
2025-08-15T00:53:20.020Z,3,GR86-047-21,3.2,0.078,-0.018,99.98,5.0,,0.0,0.0,
2025-08-15T00:53:20.064Z,3,GR86-047-21,3.2,0.068,-0.011,99.99,5.0,,0.0,0.0,
2025-08-15T00:53:20.106Z,3,GR86-047-21,3.6,0.067,0.012,99.99,5.0,7054.0,0.0,0.0,
2025-08-15T00:53:20.149Z,3,GR86-047-21,3.8,0.062,0.022,100.01,5.0,,0.0,0.0,207.83
2025-08-15T00:53:20.192Z,3,GR86-047-21,3.8,0.095,0.046,100.0,5.0,,0.0,0.0,
2025-08-15T00:53:20.235Z,3,GR86-047-21,3.8,0.122,0.063,99.97,5.0,,0.0,0.0,
2025-08-15T00:53:20.278Z,3,GR86-047-21,3.8,0.072,0.066,100.0,5.0,,0.0,0.0,
2025-08-15T00:53:20.321Z,3,GR86-047-21,3.8,0.059,0.075,99.99,5.0,7068.0,0.0,0.0,
2025-08-15T00:53:20.365Z,3,GR86-047-21,3.8,0.092,0.062,100.01,5.0,,0.0,0.0,208.42
2025-08-15T00:53:20.408Z,3,GR86-047-21,3.8,0.1,0.063,100.0,5.0,,0.0,0.0,
2025-08-15T00:53:20.451Z,3,GR86-047-21,3.8,0.046,0.04,100.0,5.0,,0.0,0.0,
2025-08-15T00:53:20.495Z,3,GR86-047-21,3.8,0.059,0.054,100.01,5.0,,0.0,0.0,
2025-08-15T00:53:20.538Z,3,GR86-047-21,4.0,0.069,0.067,99.99,5.0,7087.0,0.0,0.0,
2025-08-15T00:53:20.581Z,3,GR86-047-21,4.800000000000001,0.092,0.057,100.01,5.0,,0.0,0.0,209.18
2025-08-15T00:53:20.626Z,3,GR86-047-21,5.300000000000001,0.065,0.081,99.98,5.0,,0.0,0.0,
2025-08-15T00:53:20.668Z,3,GR86-047-21,5.300000000000001,0.072,0.107,100.01,5.0,,0.0,0.0,
2025-08-15T00:53:20.712Z,3,GR86-047-21,5.300000000000001,0.091,0.122,99.99,5.0,,0.0,0.0,
2025-08-15T00:53:20.755Z,3,GR86-047-21,5.300000000000001,0.113,0.113,99.99,5.0,7113.0,0.0,0.0,
2025-08-15T00:53:20.798Z,3,GR86-047-21,5.300000000000001,0.076,0.101,99.99,5.0,,0.0,0.0,209.61
2025-08-15T00:53:20.841Z,3,GR86-047-21,5.300000000000001,0.053,0.118,100.01,5.0,,0.0,0.0,
2025-08-15T00:53:20.886Z,3,GR86-047-21,5.300000000000001,0.089,0.107,100.0,5.0,,0.0,0.0,
2025-08-15T00:53:20.928Z,3,GR86-047-21,5.300000000000001,0.069,0.107,100.0,5.0,,0.0,0.0,
2025-08-15T00:53:20.971Z,3,GR86-047-21,5.2,0.054,0.069,100.0,5.0,7128.0,0.0,0.0,
2025-08-15T00:53:21.015Z,3,GR86-047-21,4.9,0.038,0.041,100.01,5.0,,0.0,0.0,210.26
2025-08-15T00:53:21.058Z,3,GR86-047-21,4.6000000000000005,0.065,0.014,99.99,5.0,,0.0,0.0,
2025-08-15T00:53:21.101Z,3,GR86-047-21,4.6000000000000005,0.076,0.005,100.02,5.0,,0.0,0.0,
2025-08-15T00:53:21.146Z,3,GR86-047-21,4.6000000000000005,0.046,0.002,99.99,5.0,,0.0,0.0,
2025-08-15T00:53:21.188Z,3,GR86-047-21,4.6000000000000005,0.057,0.036,100.02,5.0,7149.0,0.0,0.0,
2025-08-15T00:53:21.275Z,3,GR86-047-21,4.6000000000000005,0.079,0.025,99.98,5.0,,0.0,0.0,210.69
2025-08-15T00:53:21.318Z,3,GR86-047-21,4.6000000000000005,0.046,0.055,100.0,5.0,,0.0,0.0,
2025-08-15T00:53:21.361Z,3,GR86-047-21,4.6000000000000005,0.045,0.072,100.01,5.0,,0.0,0.0,
2025-08-15T00:53:21.404Z,3,GR86-047-21,4.6000000000000005,0.065,0.055,100.0,5.0,7167.0,0.0,0.0,
2025-08-15T00:53:21.448Z,3,GR86-047-21,4.6000000000000005,0.022,0.052,100.01,5.0,,0.0,0.0,211.23
2025-08-15T00:53:21.492Z,3,GR86-047-21,4.2,0.04,0.038,100.02,5.0,,0.0,0.0,
2025-08-15T00:53:21.578Z,3,GR86-047-21,3.6,0.049,0.043,99.99,5.0,,0.0,0.0,
2025-08-15T00:53:21.621Z,3,GR86-047-21,3.1,0.07,-0.033,100.01,5.0,7178.0,0.0,0.0,
2025-08-15T00:53:21.665Z,3,GR86-047-21,2.4000000000000004,0.07,-0.07,100.0,5.0,,0.0,0.0,211.79
2025-08-15T00:53:21.708Z,3,GR86-047-21,2.4000000000000004,0.081,-0.091,100.02,5.0,,0.0,0.0,
2025-08-15T00:53:21.752Z,3,GR86-047-21,2.4000000000000004,0.052,-0.074,100.0,5.0,,0.0,0.0,
2025-08-15T00:53:21.795Z,3,GR86-047-21,2.4000000000000004,0.036,-0.096,100.01,5.0,,0.0,0.0,
2025-08-15T00:53:21.838Z,3,GR86-047-21,2.5,0.036,-0.105,99.98,5.0,7198.0,0.0,0.0,
2025-08-15T00:53:21.881Z,3,GR86-047-21,2.6,0.047,-0.092,100.01,5.0,,0.0,0.0,212.24
2025-08-15T00:53:21.925Z,3,GR86-047-21,2.7,0.025,-0.018,100.0,5.0,,0.0,0.0,
2025-08-15T00:53:21.968Z,3,GR86-047-21,2.8000000000000003,0.031,0.013,100.0,5.0,,0.0,0.0,
2025-08-15T00:53:22.012Z,3,GR86-047-21,2.8000000000000003,0.049,0.047,100.01,5.0,,0.0,0.0,
2025-08-15T00:53:22.055Z,3,GR86-047-21,2.8000000000000003,0.078,0.018,99.99,5.0,7215.0,0.0,0.0,
2025-08-15T00:53:22.098Z,3,GR86-047-21,2.8000000000000003,0.057,0.044,100.0,5.0,,0.0,0.0,213.13
2025-08-15T00:53:22.141Z,3,GR86-047-21,2.8000000000000003,0.038,0.032,100.01,5.0,,0.0,0.0,
2025-08-15T00:53:22.185Z,3,GR86-047-21,2.8000000000000003,0.077,0.023,99.99,5.0,,0.0,0.0,
2025-08-15T00:53:22.228Z,3,GR86-047-21,2.8000000000000003,0.036,0.009,100.01,5.0,,0.0,0.0,
2025-08-15T00:53:22.271Z,3,GR86-047-21,2.8000000000000003,0.041,-0.001,100.0,5.0,7224.0,0.0,0.0,
2025-08-15T00:53:22.315Z,3,GR86-047-21,2.8000000000000003,0.042,-0.004,99.98,5.0,,0.0,0.0,213.52
2025-08-15T00:53:22.357Z,3,GR86-047-21,2.9000000000000004,0.03,0.019,99.98,5.0,,0.0,0.0,
2025-08-15T00:53:22.400Z,3,GR86-047-21,4.3,0.079,0.025,80.71000000000001,5.0,,0.0,0.0,
2025-08-15T00:53:22.444Z,3,GR86-047-21,5.7,0.045,0.078,38.21,5.0,,0.0,0.0,
2025-08-15T00:53:22.486Z,3,GR86-047-21,5.7,0.038,0.093,33.57,5.0,7249.0,0.0,0.0,
2025-08-15T00:53:22.529Z,3,GR86-047-21,5.5,0.022,0.111,30.41,5.0,,5.05,5.25,213.96
2025-08-15T00:53:22.572Z,3,GR86-047-21,5.0,-0.068,0.099,20.9,5.0,,9.215,9.34,
2025-08-15T00:53:22.615Z,3,GR86-047-21,4.4,-0.196,0.086,7.7,5.0,,14.91,14.94,
2025-08-15T00:53:22.658Z,3,GR86-047-21,4.0,-0.333,0.052,5.79,5.0,,20.235,20.145,
2025-08-15T00:53:22.701Z,3,GR86-047-21,4.0,-0.499,0.038,3.39,5.0,7255.0,29.33,29.21,
2025-08-15T00:53:22.745Z,3,GR86-047-21,3.9,-0.888,-0.019,3.11,5.0,,56.125,55.545,214.22
2025-08-15T00:53:22.788Z,3,GR86-047-21,3.7,-1.221,-0.037,2.89,5.0,,75.55,74.955,
2025-08-15T00:53:22.831Z,3,GR86-047-21,2.8000000000000003,-1.449,-0.059,2.75,5.0,,90.935,90.385,
2025-08-15T00:53:22.875Z,3,GR86-047-21,2.7,-1.45,-0.085,2.65,5.0,,100.99,102.455,
2025-08-15T00:53:22.918Z,3,GR86-047-21,2.7,-1.41,-0.11,2.59,5.0,7106.0,104.93,106.15,
2025-08-15T00:53:22.961Z,3,GR86-047-21,3.3000000000000003,-1.381,-0.06,2.58,5.0,,106.99,107.705,214.07
2025-08-15T00:53:23.005Z,3,GR86-047-21,4.6000000000000005,-1.194,-0.036,8.4,5.0,,110.56,112.175,
2025-08-15T00:53:23.048Z,3,GR86-047-21,5.4,-1.199,0.025,52.870000000000005,5.0,,106.575,107.17,
2025-08-15T00:53:23.092Z,3,GR86-047-21,5.4,-1.241,-0.009,96.9,5.0,,105.31,105.905,
2025-08-15T00:53:23.135Z,3,GR86-047-21,5.2,-1.25,0.086,67.57000000000001,4.0,6630.0,107.11,109.155,
2025-08-15T00:53:23.178Z,3,GR86-047-21,5.0,-1.227,0.022,7.1000000000000005,4.0,,106.15,108.455,207.95
2025-08-15T00:53:23.221Z,3,GR86-047-21,1.5,-1.053,0.108,4.44,4.0,,93.3,93.985,
2025-08-15T00:53:23.265Z,3,GR86-047-21,-3.1,-1.158,0.04,3.79,4.0,,77.275,79.215,
2025-08-15T00:53:23.308Z,3,GR86-047-21,-3.1,-1.16,0.058,3.42,4.0,,65.175,66.64,
2025-08-15T00:53:23.352Z,3,GR86-047-21,-3.1,-1.22,0.143,3.09,4.0,6275.0,51.395,52.71,
2025-08-15T00:53:23.396Z,3,GR86-047-21,-4.0,-1.067,0.052,2.83,4.0,,49.2,50.785,193.9
2025-08-15T00:53:23.438Z,3,GR86-047-21,-4.1000000000000005,-0.939,0.065,2.72,4.0,,45.87,46.56,
2025-08-15T00:53:23.481Z,3,GR86-047-21,-4.1000000000000005,-1.09,0.011,2.63,4.0,,41.37,42.575,
2025-08-15T00:53:23.525Z,3,GR86-047-21,-2.7,-0.876,-0.071,2.56,4.0,,43.645,44.835,
2025-08-15T00:53:23.568Z,3,GR86-047-21,1.0,-1.005,-0.171,2.53,4.0,6923.0,47.185,47.765,
2025-08-15T00:53:23.611Z,3,GR86-047-21,3.4000000000000004,-1.031,-0.094,2.49,4.0,,52.965,53.275,184.78
2025-08-15T00:53:23.655Z,3,GR86-047-21,3.5,-1.155,-0.137,2.5,4.0,,56.995000000000005,57.38,
2025-08-15T00:53:23.698Z,3,GR86-047-21,4.1000000000000005,-1.13,-0.177,21.13,4.0,,60.370000000000005,60.645,
2025-08-15T00:53:23.741Z,3,GR86-047-21,5.0,-1.185,-0.133,67.36,4.0,,64.64,64.67,
2025-08-15T00:53:23.785Z,3,GR86-047-21,5.0,-1.237,-0.145,100.14,4.0,6876.0,67.36,68.09,
2025-08-15T00:53:23.828Z,3,GR86-047-21,3.9,-1.291,-0.097,65.06,3.0,,68.96000000000001,70.455,181.32
2025-08-15T00:53:23.872Z,3,GR86-047-21,0.9,-1.239,-0.206,5.38,3.0,,67.665,68.5,
2025-08-15T00:53:23.915Z,3,GR86-047-21,-1.0,-1.173,-0.321,3.13,3.0,,52.555,53.96,
2025-08-15T00:53:23.957Z,3,GR86-047-21,-2.4000000000000004,-1.028,-0.233,2.62,3.0,,45.69,46.8,
2025-08-15T00:53:24.001Z,3,GR86-047-21,-3.9,-0.868,-0.378,2.53,3.0,6535.0,44.53,45.66,
2025-08-15T00:53:24.044Z,3,GR86-047-21,-4.7,-1.033,-0.335,2.5,3.0,,45.065,45.87,175.45000000000002
2025-08-15T00:53:24.086Z,3,GR86-047-21,-6.4,-1.025,-0.291,2.49,3.0,,46.68,47.52,
2025-08-15T00:53:24.129Z,3,GR86-047-21,-11.1,-0.992,-0.354,2.49,3.0,,48.33,48.985,
2025-08-15T00:53:24.172Z,3,GR86-047-21,-16.2,-1.055,-0.395,2.49,3.0,,52.615,53.0,
2025-08-15T00:53:24.215Z,3,GR86-047-21,-20.6,-1.045,-0.442,2.49,3.0,6851.0,57.21,57.5,
2025-08-15T00:53:24.258Z,3,GR86-047-21,-24.5,-1.048,-0.505,2.5,3.0,,61.42,62.215,167.12
2025-08-15T00:53:24.301Z,3,GR86-047-21,-26.700000000000003,-1.072,-0.602,2.5,3.0,,65.025,66.425,
2025-08-15T00:53:24.345Z,3,GR86-047-21,-27.3,-0.954,-0.711,2.5,3.0,,62.370000000000005,63.085,
2025-08-15T00:53:24.388Z,3,GR86-047-21,-26.9,-1.082,-0.598,2.49,3.0,,61.74,62.66,
2025-08-15T00:53:24.431Z,3,GR86-047-21,-24.700000000000003,-0.938,-0.668,2.49,3.0,7166.0,62.43,63.68,
2025-08-15T00:53:24.475Z,3,GR86-047-21,-23.6,-1.008,-0.8220000000000001,2.5,3.0,,56.585,57.65,160.06
2025-08-15T00:53:24.518Z,3,GR86-047-21,-23.6,-0.81,-0.72,2.49,3.0,,42.925,44.025,
2025-08-15T00:53:24.560Z,3,GR86-047-21,-24.200000000000003,-0.8230000000000001,-0.616,2.49,3.0,,36.305,37.495,
2025-08-15T00:53:24.646Z,3,GR86-047-21,-28.6,-0.8180000000000001,-0.865,2.49,3.0,6651.0,31.865,32.505,
2025-08-15T00:53:24.689Z,3,GR86-047-21,-29.4,-0.76,-0.801,2.49,3.0,,31.865,32.715,147.41
2025-08-15T00:53:24.732Z,3,GR86-047-21,-31.8,-0.724,-0.895,2.49,3.0,,31.65,32.685,
2025-08-15T00:53:24.775Z,3,GR86-047-21,-34.0,-0.633,-0.964,2.49,3.0,,27.775,28.4,
2025-08-15T00:53:24.818Z,3,GR86-047-21,-34.800000000000004,-0.744,-0.884,2.49,3.0,,25.7,26.26,
2025-08-15T00:53:24.861Z,3,GR86-047-21,-35.300000000000004,-0.668,-0.894,2.49,3.0,6367.0,20.175,21.15,
2025-08-15T00:53:24.905Z,3,GR86-047-21,-35.800000000000004,-0.445,-1.014,2.49,3.0,,11.4,12.24,142.03
2025-08-15T00:53:24.948Z,3,GR86-047-21,-37.2,-0.501,-0.977,2.5,3.0,,9.155,9.965,
2025-08-15T00:53:24.991Z,3,GR86-047-21,-40.0,-0.394,-0.995,2.49,3.0,,4.835,5.4350000000000005,
2025-08-15T00:53:25.035Z,3,GR86-047-21,-44.7,-0.286,-1.073,2.49,3.0,,0.0,0.0,
2025-08-15T00:53:25.077Z,3,GR86-047-21,-49.0,-0.253,-1.167,2.49,3.0,6331.0,0.0,0.0,
2025-08-15T00:53:25.120Z,3,GR86-047-21,-49.400000000000006,-0.23,-1.204,2.5,3.0,,0.0,0.0,137.61
2025-08-15T00:53:25.164Z,3,GR86-047-21,-45.7,-0.21,-1.224,2.5,3.0,,0.0,0.0,
2025-08-15T00:53:25.206Z,3,GR86-047-21,-44.900000000000006,-0.214,-1.234,2.49,3.0,,0.0,0.0,
2025-08-15T00:53:25.249Z,3,GR86-047-21,-45.5,-0.22,-1.229,2.49,3.0,,0.0,0.0,
2025-08-15T00:53:25.292Z,3,GR86-047-21,-49.1,-0.223,-1.234,2.49,3.0,6033.0,0.0,0.0,
2025-08-15T00:53:25.335Z,3,GR86-047-21,-51.5,-0.225,-1.271,2.49,3.0,,0.0,0.0,134.9
2025-08-15T00:53:25.378Z,3,GR86-047-21,-54.0,-0.198,-1.263,2.49,3.0,,0.0,0.0,
2025-08-15T00:53:25.421Z,3,GR86-047-21,-57.3,-0.23,-1.328,2.49,3.0,,0.0,0.0,
2025-08-15T00:53:25.465Z,3,GR86-047-21,-61.1,-0.224,-1.226,6.8500000000000005,3.0,,0.0,0.0,
2025-08-15T00:53:25.507Z,3,GR86-047-21,-61.400000000000006,-0.213,-1.208,6.7,3.0,6005.0,0.0,0.0,
2025-08-15T00:53:25.550Z,3,GR86-047-21,-61.400000000000006,-0.283,-1.6,20.78,3.0,,0.0,0.0,133.36
2025-08-15T00:53:25.594Z,3,GR86-047-21,-61.400000000000006,-0.17,-1.2,21.2,3.0,,0.0,0.0,
2025-08-15T00:53:25.636Z,3,GR86-047-21,-61.400000000000006,-0.222,-1.491,21.23,3.0,,0.0,0.0,
2025-08-15T00:53:25.679Z,3,GR86-047-21,-61.400000000000006,-0.154,-1.288,26.94,3.0,,0.0,0.0,
2025-08-15T00:53:25.722Z,3,GR86-047-21,-61.400000000000006,-0.154,-1.405,33.31,3.0,5914.0,0.0,0.0,
2025-08-15T00:53:25.765Z,3,GR86-047-21,-56.7,-0.138,-1.221,56.78,3.0,,0.0,0.0,131.35
2025-08-15T00:53:25.808Z,3,GR86-047-21,-49.8,-0.022,-1.073,88.36,3.0,,0.0,0.0,
2025-08-15T00:53:25.852Z,3,GR86-047-21,-46.400000000000006,-0.124,-1.128,100.15,3.0,,0.0,0.0,
2025-08-15T00:53:25.895Z,3,GR86-047-21,-43.5,-0.109,-1.132,100.16,3.0,,0.0,0.0,
2025-08-15T00:53:25.938Z,3,GR86-047-21,-41.0,-0.062,-1.163,100.16,3.0,5915.0,0.0,0.0,
2025-08-15T00:53:25.980Z,3,GR86-047-21,-40.3,-0.074,-1.187,100.18,3.0,,0.0,0.0,129.89
2025-08-15T00:53:26.024Z,3,GR86-047-21,-34.7,0.133,-1.114,95.58,3.0,,0.0,0.0,
2025-08-15T00:53:26.068Z,3,GR86-047-21,-25.3,0.088,-1.088,71.35000000000001,3.0,,0.0,0.0,
2025-08-15T00:53:26.111Z,3,GR86-047-21,-20.200000000000003,-0.005,-1.0,73.35000000000001,3.0,,0.0,0.0,
2025-08-15T00:53:26.155Z,3,GR86-047-21,-20.1,-0.022,-1.073,83.87,3.0,6288.0,0.0,0.0,
2025-08-15T00:53:26.198Z,3,GR86-047-21,-28.3,0.002,-1.268,99.88,3.0,,0.0,0.0,128.76
2025-08-15T00:53:26.240Z,3,GR86-047-21,-40.0,0.03,-1.437,100.18,3.0,,0.0,0.0,
2025-08-15T00:53:26.286Z,3,GR86-047-21,-51.3,0.13,-1.287,100.16,3.0,,0.0,0.0,
2025-08-15T00:53:26.328Z,3,GR86-047-21,-53.5,-0.002,-1.261,100.15,3.0,,0.0,0.0,
2025-08-15T00:53:26.371Z,3,GR86-047-21,-52.400000000000006,-0.091,-1.084,100.12,3.0,6582.0,0.0,0.0,
2025-08-15T00:53:26.415Z,3,GR86-047-21,-49.8,-0.061,-1.024,100.14,3.0,,0.0,0.0,130.65
2025-08-15T00:53:26.457Z,3,GR86-047-21,-47.3,0.083,-0.953,100.13,3.0,,0.0,0.0,
2025-08-15T00:53:26.501Z,3,GR86-047-21,-43.400000000000006,0.164,-1.121,100.14,3.0,,0.0,0.0,
2025-08-15T00:53:26.546Z,3,GR86-047-21,-30.3,0.333,-1.202,100.11,3.0,,0.0,0.0,
2025-08-15T00:53:26.588Z,3,GR86-047-21,-21.3,0.198,-1.392,100.14,3.0,6635.0,0.0,0.0,
2025-08-15T00:53:26.631Z,3,GR86-047-21,-9.6,0.139,-1.45,100.11,3.0,,0.0,0.0,129.94
2025-08-15T00:53:26.675Z,3,GR86-047-21,-2.3000000000000003,0.148,-1.33,100.12,3.0,,0.0,0.0,
2025-08-15T00:53:26.718Z,3,GR86-047-21,1.7000000000000002,0.19,-1.321,100.11,3.0,,0.0,0.0,
2025-08-15T00:53:26.761Z,3,GR86-047-21,5.800000000000001,0.188,-1.253,100.11,3.0,,0.0,0.0,
2025-08-15T00:53:26.805Z,3,GR86-047-21,16.0,0.182,-1.244,100.11,3.0,7129.0,0.0,0.0,
2025-08-15T00:53:26.848Z,3,GR86-047-21,22.4,0.176,-1.168,100.11,3.0,,0.0,0.0,132.8
2025-08-15T00:53:26.892Z,3,GR86-047-21,31.6,0.159,-1.194,100.09,3.0,,0.0,0.0,
2025-08-15T00:53:26.935Z,3,GR86-047-21,43.900000000000006,0.142,-1.263,100.08,3.0,,0.0,0.0,
2025-08-15T00:53:26.978Z,3,GR86-047-21,59.1,0.166,-1.327,100.09,3.0,,0.0,0.0,
2025-08-15T00:53:27.021Z,3,GR86-047-21,76.3,0.232,-1.29,100.08,3.0,6652.0,0.0,0.0,
2025-08-15T00:53:27.065Z,3,GR86-047-21,96.3,0.24,-1.2,100.07,3.0,,0.0,0.0,129.84
2025-08-15T00:53:27.108Z,3,GR86-047-21,99.8,0.253,-1.121,100.07,3.0,,0.0,0.0,
2025-08-15T00:53:27.152Z,3,GR86-047-21,99.8,0.253,-1.126,100.08,3.0,,0.0,0.0,
2025-08-15T00:53:27.195Z,3,GR86-047-21,99.9,0.245,-1.093,100.08,3.0,,0.0,0.0,
2025-08-15T00:53:27.238Z,3,GR86-047-21,102.3,0.235,-1.076,100.07,3.0,6597.0,0.0,0.0,
2025-08-15T00:53:27.280Z,3,GR86-047-21,105.0,0.182,-1.04,100.07,3.0,,0.0,0.0,131.21
2025-08-15T00:53:27.324Z,3,GR86-047-21,108.2,0.237,-1.132,100.04,3.0,,0.0,0.0,
2025-08-15T00:53:27.366Z,3,GR86-047-21,108.7,0.271,-1.138,100.0,3.0,,0.0,0.0,
2025-08-15T00:53:27.409Z,3,GR86-047-21,108.7,0.282,-1.084,100.02,3.0,,0.0,0.0,
2025-08-15T00:53:27.452Z,3,GR86-047-21,101.8,0.261,-1.059,100.01,3.0,6676.0,0.0,0.0,
2025-08-15T00:53:27.496Z,3,GR86-047-21,89.4,0.264,-1.099,100.02,3.0,,0.0,0.0,132.17000000000002
2025-08-15T00:53:27.538Z,3,GR86-047-21,70.5,0.241,-1.138,100.02,3.0,,0.0,0.0,
2025-08-15T00:53:27.581Z,3,GR86-047-21,44.7,0.248,-1.204,100.03,3.0,,0.0,0.0,
2025-08-15T00:53:27.625Z,3,GR86-047-21,0.5,0.176,-1.229,99.99,3.0,,0.0,0.0,
2025-08-15T00:53:27.668Z,3,GR86-047-21,-20.9,0.143,-1.25,99.97,3.0,6700.0,0.0,0.0,
2025-08-15T00:53:27.711Z,3,GR86-047-21,-31.5,0.145,-1.27,99.97,3.0,,0.0,0.0,130.28
2025-08-15T00:53:27.755Z,3,GR86-047-21,-34.5,0.175,-1.228,99.98,3.0,,0.0,0.0,
2025-08-15T00:53:27.798Z,3,GR86-047-21,-34.6,0.201,-1.173,99.96,3.0,,0.0,0.0,
2025-08-15T00:53:27.840Z,3,GR86-047-21,-35.300000000000004,0.197,-1.225,99.96,3.0,,0.0,0.0,
2025-08-15T00:53:27.885Z,3,GR86-047-21,-38.900000000000006,0.18,-1.173,99.97,3.0,6687.0,0.0,0.0,
2025-08-15T00:53:27.928Z,3,GR86-047-21,-41.7,0.206,-1.181,99.96,3.0,,0.0,0.0,131.71
2025-08-15T00:53:27.971Z,3,GR86-047-21,-44.900000000000006,0.197,-1.141,99.98,3.0,,0.0,0.0,
2025-08-15T00:53:28.015Z,3,GR86-047-21,-48.5,0.177,-0.946,99.97,3.0,,0.0,0.0,
2025-08-15T00:53:28.057Z,3,GR86-047-21,-50.8,0.183,-0.751,99.98,3.0,,0.0,0.0,
2025-08-15T00:53:28.100Z,3,GR86-047-21,-52.2,0.2,-0.777,99.98,3.0,6563.0,0.0,0.0,
2025-08-15T00:53:28.144Z,3,GR86-047-21,-51.2,0.192,-0.635,99.99,3.0,,0.0,0.0,129.6
2025-08-15T00:53:28.186Z,3,GR86-047-21,-49.0,0.158,-0.747,99.99,3.0,,0.0,0.0,
2025-08-15T00:53:28.229Z,3,GR86-047-21,-46.1,0.073,-0.552,99.99,3.0,,0.0,0.0,
2025-08-15T00:53:28.272Z,3,GR86-047-21,-43.3,0.097,-0.6950000000000001,100.0,3.0,,0.0,0.0,
2025-08-15T00:53:28.316Z,3,GR86-047-21,-39.400000000000006,0.301,-0.918,99.98,3.0,6339.0,0.0,0.0,
2025-08-15T00:53:28.358Z,3,GR86-047-21,-35.6,0.32,-0.943,100.01,3.0,,0.0,0.0,130.81
2025-08-15T00:53:28.401Z,3,GR86-047-21,-30.9,0.284,-0.8230000000000001,99.99,3.0,,0.0,0.0,
2025-08-15T00:53:28.445Z,3,GR86-047-21,-26.1,0.228,-1.068,100.01,3.0,,0.0,0.0,
2025-08-15T00:53:28.488Z,3,GR86-047-21,-24.3,0.151,-1.024,100.02,3.0,,0.0,0.0,
2025-08-15T00:53:28.531Z,3,GR86-047-21,-24.0,0.186,-1.123,100.01,3.0,6297.0,0.0,0.0,
2025-08-15T00:53:28.575Z,3,GR86-047-21,-23.6,0.208,-1.144,99.99,3.0,,0.0,0.0,131.56
2025-08-15T00:53:28.618Z,3,GR86-047-21,-22.4,0.036,-1.144,100.0,3.0,,0.0,0.0,
2025-08-15T00:53:28.661Z,3,GR86-047-21,-20.9,0.076,-1.265,100.01,3.0,,0.0,0.0,
2025-08-15T00:53:28.705Z,3,GR86-047-21,-20.4,0.156,-0.979,99.99,3.0,,0.0,0.0,
2025-08-15T00:53:28.748Z,3,GR86-047-21,-20.4,0.162,-0.9,100.01,3.0,6392.0,0.0,0.0,
2025-08-15T00:53:28.792Z,3,GR86-047-21,-20.8,0.196,-0.794,100.0,3.0,,0.0,0.0,132.85
2025-08-15T00:53:28.835Z,3,GR86-047-21,-21.8,0.156,-0.8160000000000001,100.01,3.0,,0.0,0.0,
2025-08-15T00:53:28.878Z,3,GR86-047-21,-27.4,0.179,-0.734,100.01,3.0,,0.0,0.0,
2025-08-15T00:53:28.921Z,3,GR86-047-21,-35.9,0.192,-0.738,100.02,3.0,,0.0,0.0,
2025-08-15T00:53:28.965Z,3,GR86-047-21,-41.2,0.126,-0.8280000000000001,100.03,3.0,6370.0,0.0,0.0,
2025-08-15T00:53:29.008Z,3,GR86-047-21,-41.1,0.109,-0.97,99.99,3.0,,0.0,0.0,134.55
2025-08-15T00:53:29.051Z,3,GR86-047-21,-32.9,0.158,-0.954,100.0,3.0,,0.0,0.0,
2025-08-15T00:53:29.096Z,3,GR86-047-21,-25.3,0.161,-0.893,99.99,3.0,,0.0,0.0,
2025-08-15T00:53:29.138Z,3,GR86-047-21,-23.1,0.163,-0.8160000000000001,100.02,3.0,,0.0,0.0,
2025-08-15T00:53:29.181Z,3,GR86-047-21,-23.1,0.163,-0.8230000000000001,100.02,3.0,6379.0,0.0,0.0,
2025-08-15T00:53:29.225Z,3,GR86-047-21,-24.3,0.157,-0.782,100.0,3.0,,0.0,0.0,134.79
2025-08-15T00:53:29.268Z,3,GR86-047-21,-25.3,0.208,-0.677,100.0,3.0,,0.0,0.0,
2025-08-15T00:53:29.312Z,3,GR86-047-21,-25.4,0.149,-0.727,100.0,3.0,,0.0,0.0,
2025-08-15T00:53:29.355Z,3,GR86-047-21,-25.200000000000003,0.154,-0.741,99.99,3.0,,0.0,0.0,
2025-08-15T00:53:29.398Z,3,GR86-047-21,-24.200000000000003,0.152,-0.678,100.0,3.0,6437.0,0.0,0.0,
2025-08-15T00:53:29.441Z,3,GR86-047-21,-22.1,0.183,-0.62,100.0,3.0,,0.0,0.0,136.35
2025-08-15T00:53:29.485Z,3,GR86-047-21,-18.0,0.117,-0.686,100.0,3.0,,0.0,0.0,
2025-08-15T00:53:29.528Z,3,GR86-047-21,-14.8,0.205,-0.594,100.01,3.0,,0.0,0.0,
2025-08-15T00:53:29.571Z,3,GR86-047-21,-11.5,0.184,-0.6950000000000001,99.99,3.0,,0.0,0.0,
2025-08-15T00:53:29.615Z,3,GR86-047-21,-8.9,0.208,-0.5720000000000001,99.99,3.0,6482.0,0.0,0.0,
2025-08-15T00:53:29.658Z,3,GR86-047-21,-8.6,0.165,-0.418,99.99,3.0,,0.0,0.0,137.48
2025-08-15T00:53:29.701Z,3,GR86-047-21,-8.6,0.146,-0.463,100.01,3.0,,0.0,0.0,
2025-08-15T00:53:29.745Z,3,GR86-047-21,-8.9,0.162,-0.379,99.99,3.0,,0.0,0.0,
2025-08-15T00:53:29.788Z,3,GR86-047-21,-9.1,0.222,-0.246,100.01,3.0,,0.0,0.0,
2025-08-15T00:53:29.831Z,3,GR86-047-21,-9.1,0.196,-0.254,100.0,3.0,6521.0,0.0,0.0,
2025-08-15T00:53:29.875Z,3,GR86-047-21,-9.1,0.135,-0.112,100.0,3.0,,0.0,0.0,138.69
2025-08-15T00:53:29.918Z,3,GR86-047-21,-8.0,-0.033,-0.226,100.02,3.0,,0.0,0.0,
2025-08-15T00:53:29.960Z,3,GR86-047-21,-3.1,0.153,-0.264,100.02,3.0,,0.0,0.0,
2025-08-15T00:53:30.004Z,3,GR86-047-21,1.1,0.336,-0.378,100.0,3.0,,0.0,0.0,
2025-08-15T00:53:30.046Z,3,GR86-047-21,2.6,0.321,-0.28,100.01,3.0,6581.0,0.0,0.0,
2025-08-15T00:53:30.089Z,3,GR86-047-21,4.6000000000000005,0.106,-0.176,99.98,3.0,,0.0,0.0,141.13
2025-08-15T00:53:30.132Z,3,GR86-047-21,7.1000000000000005,0.072,-0.327,100.01,3.0,,0.0,0.0,
2025-08-15T00:53:30.175Z,3,GR86-047-21,8.1,0.199,-0.121,100.0,3.0,,0.0,0.0,
2025-08-15T00:53:30.218Z,3,GR86-047-21,8.200000000000001,0.211,-0.025,100.0,3.0,,0.0,0.0,
2025-08-15T00:53:30.261Z,3,GR86-047-21,8.200000000000001,0.057,0.066,99.99,3.0,6632.0,0.0,0.0,
2025-08-15T00:53:30.305Z,3,GR86-047-21,7.9,0.137,0.068,99.99,3.0,,0.0,0.0,142.51
2025-08-15T00:53:30.348Z,3,GR86-047-21,6.7,0.177,0.187,99.98,3.0,,0.0,0.0,
2025-08-15T00:53:30.391Z,3,GR86-047-21,6.2,0.249,0.295,100.0,3.0,,0.0,0.0,
2025-08-15T00:53:30.436Z,3,GR86-047-21,6.4,0.274,0.269,100.02,3.0,,0.0,0.0,
2025-08-15T00:53:30.478Z,3,GR86-047-21,8.200000000000001,0.248,0.309,100.02,3.0,6621.0,0.0,0.0,
2025-08-15T00:53:30.521Z,3,GR86-047-21,8.9,0.179,0.27,99.99,3.0,,0.0,0.0,144.28
2025-08-15T00:53:30.565Z,3,GR86-047-21,12.1,0.178,0.317,100.0,3.0,,0.0,0.0,
2025-08-15T00:53:30.608Z,3,GR86-047-21,14.8,0.294,0.299,99.99,3.0,,0.0,0.0,
2025-08-15T00:53:30.651Z,3,GR86-047-21,16.3,0.203,0.395,100.0,3.0,,0.0,0.0,
2025-08-15T00:53:30.695Z,3,GR86-047-21,16.7,0.231,0.5,99.99,3.0,6898.0,0.0,0.0,
2025-08-15T00:53:30.781Z,3,GR86-047-21,16.7,0.198,0.482,100.01,3.0,,0.0,0.0,145.24
2025-08-15T00:53:30.826Z,3,GR86-047-21,14.5,0.198,0.46,99.98,3.0,,0.0,0.0,
2025-08-15T00:53:30.868Z,3,GR86-047-21,13.9,0.178,0.41,99.99,3.0,,0.0,0.0,
2025-08-15T00:53:30.912Z,3,GR86-047-21,13.7,0.225,0.367,100.01,3.0,6964.0,0.0,0.0,
2025-08-15T00:53:30.955Z,3,GR86-047-21,12.7,0.221,0.423,99.99,3.0,,0.0,0.0,146.72
2025-08-15T00:53:30.998Z,3,GR86-047-21,11.6,0.204,0.372,99.99,3.0,,0.0,0.0,
2025-08-15T00:53:31.041Z,3,GR86-047-21,11.2,0.19,0.335,99.99,3.0,,0.0,0.0,
2025-08-15T00:53:31.086Z,3,GR86-047-21,10.7,0.221,0.268,99.99,3.0,,0.0,0.0,
2025-08-15T00:53:31.128Z,3,GR86-047-21,10.5,0.179,0.248,100.0,3.0,6973.0,0.0,0.0,
2025-08-15T00:53:31.172Z,3,GR86-047-21,10.5,0.162,0.192,100.01,3.0,,0.0,0.0,148.5
2025-08-15T00:53:31.215Z,3,GR86-047-21,10.5,0.159,0.152,100.01,3.0,,0.0,0.0,
2025-08-15T00:53:31.257Z,3,GR86-047-21,10.5,0.174,0.147,100.0,3.0,,0.0,0.0,
2025-08-15T00:53:31.300Z,3,GR86-047-21,10.4,0.208,0.165,99.99,3.0,,0.0,0.0,
2025-08-15T00:53:31.346Z,3,GR86-047-21,10.0,0.183,0.152,100.0,3.0,7030.0,0.0,0.0,
2025-08-15T00:53:31.388Z,3,GR86-047-21,9.7,0.195,0.13,100.0,3.0,,0.0,0.0,150.01
2025-08-15T00:53:31.431Z,3,GR86-047-21,9.5,0.199,0.159,99.99,3.0,,0.0,0.0,
2025-08-15T00:53:31.475Z,3,GR86-047-21,9.3,0.172,0.17,99.99,3.0,,0.0,0.0,
2025-08-15T00:53:31.518Z,3,GR86-047-21,8.700000000000001,0.156,0.165,99.99,3.0,,0.0,0.0,
2025-08-15T00:53:31.561Z,3,GR86-047-21,7.4,0.156,0.15,99.99,3.0,7105.0,0.0,0.0,
2025-08-15T00:53:31.605Z,3,GR86-047-21,5.6000000000000005,0.18,0.136,99.99,3.0,,0.0,0.0,151.45000000000002
2025-08-15T00:53:31.648Z,3,GR86-047-21,5.2,0.141,0.112,100.01,3.0,,0.0,0.0,
2025-08-15T00:53:31.691Z,3,GR86-047-21,5.0,0.124,0.071,99.98,3.0,,0.0,0.0,
2025-08-15T00:53:31.735Z,3,GR86-047-21,4.9,0.136,0.034,100.01,3.0,,0.0,0.0,
2025-08-15T00:53:31.778Z,3,GR86-047-21,4.9,0.172,0.027,99.99,3.0,7192.0,0.0,0.0,
2025-08-15T00:53:31.821Z,3,GR86-047-21,4.9,-0.008,0.029,99.99,4.0,,0.0,0.0,152.96
2025-08-15T00:53:31.865Z,3,GR86-047-21,4.800000000000001,0.378,0.026,99.97,4.0,,0.0,0.0,
2025-08-15T00:53:31.908Z,3,GR86-047-21,4.800000000000001,0.308,-0.104,99.98,4.0,,0.0,0.0,
2025-08-15T00:53:31.952Z,3,GR86-047-21,4.6000000000000005,0.263,0.001,99.99,4.0,,0.0,0.0,
2025-08-15T00:53:31.995Z,3,GR86-047-21,3.9,0.051,0.06,99.99,4.0,7245.0,0.0,0.0,
2025-08-15T00:53:32.038Z,3,GR86-047-21,3.6,0.068,-0.056,99.97,4.0,,0.0,0.0,154.61
2025-08-15T00:53:32.081Z,3,GR86-047-21,3.5,0.185,0.012,100.0,4.0,,0.0,0.0,
2025-08-15T00:53:32.125Z,3,GR86-047-21,3.3000000000000003,0.171,-0.057,100.01,4.0,,0.0,0.0,
2025-08-15T00:53:32.168Z,3,GR86-047-21,3.1,0.117,-0.034,100.0,4.0,,0.0,0.0,
2025-08-15T00:53:32.212Z,3,GR86-047-21,3.0,0.125,-0.023,100.0,4.0,6586.0,0.0,0.0,
2025-08-15T00:53:32.255Z,3,GR86-047-21,3.0,0.157,-0.096,99.97,4.0,,0.0,0.0,156.18
2025-08-15T00:53:32.298Z,3,GR86-047-21,3.0,0.105,-0.08,100.0,4.0,,0.0,0.0,
2025-08-15T00:53:32.341Z,3,GR86-047-21,3.0,0.12,-0.074,100.0,4.0,,0.0,0.0,
2025-08-15T00:53:32.385Z,3,GR86-047-21,2.3000000000000003,0.14,-0.068,100.0,4.0,,0.0,0.0,
2025-08-15T00:53:32.428Z,3,GR86-047-21,1.3,0.123,-0.071,100.02,4.0,6259.0,0.0,0.0,
2025-08-15T00:53:32.471Z,3,GR86-047-21,0.7000000000000001,0.094,-0.114,100.0,4.0,,0.0,0.0,157.76
2025-08-15T00:53:32.515Z,3,GR86-047-21,0.6000000000000001,0.113,-0.145,100.0,4.0,,0.0,0.0,
2025-08-15T00:53:32.557Z,3,GR86-047-21,0.6000000000000001,0.146,-0.137,100.0,4.0,,0.0,0.0,
2025-08-15T00:53:32.600Z,3,GR86-047-21,0.6000000000000001,0.129,-0.145,100.01,4.0,,0.0,0.0,
2025-08-15T00:53:32.644Z,3,GR86-047-21,0.8,0.095,-0.113,100.02,4.0,6260.0,0.0,0.0,
2025-08-15T00:53:32.686Z,3,GR86-047-21,0.8,0.125,-0.099,99.98,4.0,,0.0,0.0,160.67000000000002
2025-08-15T00:53:32.729Z,3,GR86-047-21,0.8,0.127,-0.097,100.01,4.0,,0.0,0.0,
2025-08-15T00:53:32.772Z,3,GR86-047-21,0.8,0.141,-0.076,99.99,4.0,,0.0,0.0,
2025-08-15T00:53:32.815Z,3,GR86-047-21,0.8,0.144,-0.08,100.02,4.0,,0.0,0.0,
2025-08-15T00:53:32.858Z,3,GR86-047-21,0.8,0.141,-0.073,100.01,4.0,6337.0,0.0,0.0,
2025-08-15T00:53:32.901Z,3,GR86-047-21,0.8,0.153,-0.084,100.0,4.0,,0.0,0.0,162.31
2025-08-15T00:53:32.945Z,3,GR86-047-21,0.5,0.132,-0.117,100.02,4.0,,0.0,0.0,
2025-08-15T00:53:32.988Z,3,GR86-047-21,0.1,0.137,-0.121,100.0,4.0,,0.0,0.0,
2025-08-15T00:53:33.031Z,3,GR86-047-21,0.1,0.141,-0.13,99.98,4.0,,0.0,0.0,
2025-08-15T00:53:33.075Z,3,GR86-047-21,0.0,0.148,-0.136,100.01,4.0,6387.0,0.0,0.0,
2025-08-15T00:53:33.118Z,3,GR86-047-21,-0.8,0.135,-0.167,100.01,4.0,,0.0,0.0,163.71
2025-08-15T00:53:33.161Z,3,GR86-047-21,-1.7000000000000002,0.12,-0.183,99.99,4.0,,0.0,0.0,
2025-08-15T00:53:33.205Z,3,GR86-047-21,-2.3000000000000003,0.14,-0.203,99.99,4.0,,0.0,0.0,
2025-08-15T00:53:33.291Z,3,GR86-047-21,-4.3,0.123,-0.23,99.99,4.0,6494.0,0.0,0.0,
2025-08-15T00:53:33.335Z,3,GR86-047-21,-3.5,0.141,-0.192,100.0,4.0,,0.0,0.0,165.19
2025-08-15T00:53:33.377Z,3,GR86-047-21,-4.800000000000001,0.126,-0.293,100.0,4.0,,0.0,0.0,
2025-08-15T00:53:33.420Z,3,GR86-047-21,-4.9,0.128,-0.307,100.01,4.0,,0.0,0.0,
2025-08-15T00:53:33.464Z,3,GR86-047-21,-4.9,0.145,-0.332,99.99,4.0,,0.0,0.0,
2025-08-15T00:53:33.506Z,3,GR86-047-21,-4.9,0.131,-0.347,100.0,4.0,6546.0,0.0,0.0,
2025-08-15T00:53:33.549Z,3,GR86-047-21,-4.9,0.138,-0.332,99.99,4.0,,0.0,0.0,166.67000000000002
2025-08-15T00:53:33.592Z,3,GR86-047-21,-4.9,0.134,-0.315,100.01,4.0,,0.0,0.0,
2025-08-15T00:53:33.635Z,3,GR86-047-21,-5.2,0.133,-0.306,100.01,4.0,,0.0,0.0,
2025-08-15T00:53:33.678Z,3,GR86-047-21,-6.800000000000001,0.126,-0.301,100.0,4.0,,0.0,0.0,
2025-08-15T00:53:33.721Z,3,GR86-047-21,-7.2,0.107,-0.348,100.0,4.0,6605.0,0.0,0.0,
2025-08-15T00:53:33.765Z,3,GR86-047-21,-7.2,0.137,-0.389,100.0,4.0,,0.0,0.0,168.08
2025-08-15T00:53:33.808Z,3,GR86-047-21,-7.2,0.122,-0.401,100.0,4.0,,0.0,0.0,
2025-08-15T00:53:33.852Z,3,GR86-047-21,-7.2,0.124,-0.402,100.01,4.0,,0.0,0.0,
2025-08-15T00:53:33.896Z,3,GR86-047-21,-7.2,0.125,-0.4,100.0,4.0,,0.0,0.0,
2025-08-15T00:53:33.938Z,3,GR86-047-21,-7.2,0.109,-0.382,100.01,4.0,6658.0,0.0,0.0,
2025-08-15T00:53:33.981Z,3,GR86-047-21,-7.2,0.125,-0.388,100.0,4.0,,0.0,0.0,169.34
2025-08-15T00:53:34.025Z,3,GR86-047-21,-6.9,0.121,-0.384,100.0,4.0,,0.0,0.0,
2025-08-15T00:53:34.068Z,3,GR86-047-21,-6.9,0.132,-0.371,99.99,4.0,,0.0,0.0,
2025-08-15T00:53:34.112Z,3,GR86-047-21,-6.9,0.119,-0.334,100.0,4.0,,0.0,0.0,
2025-08-15T00:53:34.155Z,3,GR86-047-21,-7.4,0.144,-0.311,100.02,4.0,6713.0,0.0,0.0,
2025-08-15T00:53:34.198Z,3,GR86-047-21,-8.200000000000001,0.122,-0.305,100.01,4.0,,0.0,0.0,170.66
2025-08-15T00:53:34.241Z,3,GR86-047-21,-8.3,0.12,-0.319,100.01,4.0,,0.0,0.0,
2025-08-15T00:53:34.286Z,3,GR86-047-21,-8.3,0.11,-0.377,99.99,4.0,,0.0,0.0,
2025-08-15T00:53:34.328Z,3,GR86-047-21,-8.3,0.123,-0.41,100.01,4.0,,0.0,0.0,
2025-08-15T00:53:34.371Z,3,GR86-047-21,-7.9,0.113,-0.451,100.01,4.0,6769.0,0.0,0.0,
2025-08-15T00:53:34.415Z,3,GR86-047-21,-6.9,0.119,-0.435,100.01,4.0,,0.0,0.0,172.07
2025-08-15T00:53:34.458Z,3,GR86-047-21,-5.4,0.125,-0.423,100.0,4.0,,0.0,0.0,
2025-08-15T00:53:34.501Z,3,GR86-047-21,-5.2,0.149,-0.378,99.99,4.0,,0.0,0.0,
2025-08-15T00:53:34.545Z,3,GR86-047-21,-5.2,0.113,-0.303,99.97,4.0,,0.0,0.0,
2025-08-15T00:53:34.588Z,3,GR86-047-21,-5.2,0.099,-0.264,78.87,4.0,6822.0,0.0,0.0,
2025-08-15T00:53:34.631Z,3,GR86-047-21,-5.300000000000001,0.109,-0.245,52.97,4.0,,0.0,0.0,173.35
2025-08-15T00:53:34.675Z,3,GR86-047-21,-5.300000000000001,0.109,-0.238,36.96,4.0,,0.0,1.86,
2025-08-15T00:53:34.718Z,3,GR86-047-21,-5.300000000000001,0.107,-0.264,33.49,4.0,,3.755,3.905,
2025-08-15T00:53:34.760Z,3,GR86-047-21,-5.300000000000001,0.03,-0.25,32.32,4.0,,4.87,4.99,
2025-08-15T00:53:34.804Z,3,GR86-047-21,-5.300000000000001,-0.078,-0.22,30.68,4.0,6866.0,10.805,10.835,
2025-08-15T00:53:34.848Z,3,GR86-047-21,-4.2,-0.15,-0.198,19.89,4.0,,15.87,15.84,174.77
2025-08-15T00:53:34.891Z,3,GR86-047-21,-0.9,-0.26,-0.179,5.44,4.0,,19.96,19.79,
2025-08-15T00:53:34.935Z,3,GR86-047-21,0.0,-0.355,-0.173,4.2,4.0,,23.24,23.18,
2025-08-15T00:53:34.978Z,3,GR86-047-21,0.5,-0.515,-0.112,3.64,4.0,,30.58,30.52,
2025-08-15T00:53:35.021Z,3,GR86-047-21,0.6000000000000001,-0.676,-0.081,3.29,4.0,6904.0,44.56,44.195,
2025-08-15T00:53:35.065Z,3,GR86-047-21,0.4,-1.119,-0.051,2.84,4.0,,67.69500000000001,67.175,176.09
2025-08-15T00:53:35.108Z,3,GR86-047-21,0.2,-1.349,-0.06,2.72,4.0,,82.65,81.93,
2025-08-15T00:53:35.152Z,3,GR86-047-21,0.2,-1.464,-0.063,2.65,4.0,,93.53,93.5,
2025-08-15T00:53:35.195Z,3,GR86-047-21,0.1,-1.538,-0.052,2.59,4.0,,100.0,101.355,
2025-08-15T00:53:35.238Z,3,GR86-047-21,0.1,-1.636,-0.043,2.8000000000000003,4.0,6881.0,102.745,103.875,
2025-08-15T00:53:35.281Z,3,GR86-047-21,3.6,-1.555,-0.028,41.79,4.0,,104.625,105.86,176.51
2025-08-15T00:53:35.326Z,3,GR86-047-21,7.1000000000000005,-1.523,-0.019,99.18,4.0,,106.3,108.27,
2025-08-15T00:53:35.368Z,3,GR86-047-21,6.7,-1.481,-0.002,99.77,4.0,,103.845,104.365,
2025-08-15T00:53:35.411Z,3,GR86-047-21,3.2,-1.387,0.004,49.94,3.0,,99.235,100.81,
2025-08-15T00:53:35.455Z,3,GR86-047-21,-0.9,-1.322,-0.095,6.23,3.0,6436.0,92.49,94.765,
2025-08-15T00:53:35.498Z,3,GR86-047-21,-1.9,-1.097,-0.143,4.09,3.0,,82.405,83.18,164.79
2025-08-15T00:53:35.541Z,3,GR86-047-21,-1.9,-1.392,-0.183,3.61,3.0,,73.08,74.24,
2025-08-15T00:53:35.586Z,3,GR86-047-21,2.8000000000000003,-1.228,-0.097,3.1,3.0,,68.715,69.965,
2025-08-15T00:53:35.628Z,3,GR86-047-21,5.1000000000000005,-1.121,-0.194,2.84,3.0,,62.78,63.115,
2025-08-15T00:53:35.671Z,3,GR86-047-21,5.0,-1.234,-0.043,2.69,3.0,5826.0,61.3,62.690000000000005,
2025-08-15T00:53:35.715Z,3,GR86-047-21,5.0,-1.109,-0.068,2.62,3.0,,62.125,62.995000000000005,151.52
2025-08-15T00:53:35.758Z,3,GR86-047-21,5.0,-1.178,-0.145,2.59,3.0,,62.78,63.495000000000005,
2025-08-15T00:53:35.801Z,3,GR86-047-21,4.9,-1.21,-0.086,2.56,3.0,,64.365,66.105,
2025-08-15T00:53:35.846Z,3,GR86-047-21,1.8,-1.252,-0.142,2.53,3.0,,66.49,68.12,
2025-08-15T00:53:35.888Z,3,GR86-047-21,-2.0,-1.265,-0.144,2.53,3.0,6457.0,66.075,67.785,
2025-08-15T00:53:35.931Z,3,GR86-047-21,-7.6,-1.203,-0.186,2.51,3.0,,65.025,66.76,145.38
2025-08-15T00:53:35.975Z,3,GR86-047-21,-8.6,-1.224,-0.285,23.29,3.0,,65.265,66.52,
2025-08-15T00:53:36.018Z,3,GR86-047-21,-8.6,-1.17,-0.317,69.53,3.0,,66.49,68.0,
2025-08-15T00:53:36.060Z,3,GR86-047-21,-7.0,-1.256,-0.333,99.71,3.0,,67.615,69.37,
2025-08-15T00:53:36.105Z,3,GR86-047-21,-3.2,-1.224,-0.319,97.78,3.0,5992.0,66.33500000000001,66.7,
2025-08-15T00:53:36.148Z,3,GR86-047-21,-1.9,-1.23,-0.31,36.64,3.0,,62.93,63.955,137.98
2025-08-15T00:53:36.191Z,3,GR86-047-21,-1.8,-1.161,-0.289,4.0,3.0,,59.955,61.24,
2025-08-15T00:53:36.235Z,3,GR86-047-21,-1.9,-0.974,-0.359,2.85,3.0,,57.09,57.685,
2025-08-15T00:53:36.278Z,3,GR86-047-21,-1.9,-0.607,-0.463,2.65,3.0,,51.870000000000005,53.24,
2025-08-15T00:53:36.321Z,3,GR86-047-21,-1.9,-0.941,-0.363,2.59,3.0,5576.0,49.61,50.375,
2025-08-15T00:53:36.365Z,3,GR86-047-21,-2.2,-0.914,-0.407,2.56,3.0,,51.120000000000005,51.715,130.61
2025-08-15T00:53:36.408Z,3,GR86-047-21,-3.0,-1.137,-0.273,2.53,3.0,,51.305,52.05,
2025-08-15T00:53:36.451Z,3,GR86-047-21,-6.6000000000000005,-1.184,-0.188,21.46,3.0,,52.585,53.09,
2025-08-15T00:53:36.495Z,3,GR86-047-21,-12.3,-1.055,-0.211,58.5,2.0,,52.89,53.64,
2025-08-15T00:53:36.538Z,3,GR86-047-21,-20.1,-1.149,-0.225,7.81,2.0,5434.0,52.89,53.99,
2025-08-15T00:53:36.581Z,3,GR86-047-21,-26.200000000000003,-1.247,-0.264,4.67,2.0,,53.09,54.325,123.63
2025-08-15T00:53:36.625Z,3,GR86-047-21,-30.4,-1.019,-0.54,3.9,2.0,,42.985,43.95,
2025-08-15T00:53:36.668Z,3,GR86-047-21,-33.1,-1.128,-0.512,3.54,2.0,,32.445,33.555,
2025-08-15T00:53:36.712Z,3,GR86-047-21,-35.6,-0.8250000000000001,-0.543,3.15,2.0,,27.59,28.275,
2025-08-15T00:53:36.755Z,3,GR86-047-21,-40.8,-0.755,-0.8200000000000001,2.88,2.0,5194.0,18.92,19.76,
2025-08-15T00:53:36.798Z,3,GR86-047-21,-43.900000000000006,-0.604,-0.87,2.75,2.0,,14.815,15.565,117.26
2025-08-15T00:53:36.841Z,3,GR86-047-21,-44.5,-0.396,-0.863,2.65,2.0,,14.33,14.97,
2025-08-15T00:53:36.885Z,3,GR86-047-21,-42.7,-0.435,-1.121,2.59,2.0,,5.83,6.515000000000001,
2025-08-15T00:53:36.928Z,3,GR86-047-21,-42.2,-0.338,-1.014,2.59,2.0,,0.0,0.0,
2025-08-15T00:53:36.971Z,3,GR86-047-21,-42.2,-0.224,-1.166,2.56,2.0,5670.0,0.0,0.0,
2025-08-15T00:53:37.015Z,3,GR86-047-21,-45.7,-0.208,-1.115,2.53,2.0,,0.0,0.0,109.57
2025-08-15T00:53:37.057Z,3,GR86-047-21,-51.5,-0.173,-1.116,2.52,2.0,,0.0,0.0,
2025-08-15T00:53:37.101Z,3,GR86-047-21,-57.3,-0.187,-1.192,2.53,2.0,,0.0,0.0,
2025-08-15T00:53:37.144Z,3,GR86-047-21,-66.0,-0.218,-1.171,2.49,2.0,,0.0,0.0,
2025-08-15T00:53:37.186Z,3,GR86-047-21,-71.8,-0.225,-1.222,2.49,2.0,5715.0,0.0,0.0,
2025-08-15T00:53:37.229Z,3,GR86-047-21,-76.0,-0.228,-1.194,2.49,2.0,,0.0,0.0,106.09
2025-08-15T00:53:37.272Z,3,GR86-047-21,-77.60000000000001,-0.233,-1.248,16.42,2.0,,0.0,0.0,
2025-08-15T00:53:37.315Z,3,GR86-047-21,-78.0,-0.224,-1.226,4.8500000000000005,2.0,,0.0,0.0,
2025-08-15T00:53:37.358Z,3,GR86-047-21,-78.0,-0.248,-1.267,21.77,2.0,,0.0,0.0,
2025-08-15T00:53:37.401Z,3,GR86-047-21,-78.10000000000001,-0.208,-1.261,33.86,2.0,5715.0,0.0,0.0,
2025-08-15T00:53:37.445Z,3,GR86-047-21,-78.30000000000001,-0.169,-1.275,43.55,2.0,,0.0,0.0,103.95
2025-08-15T00:53:37.488Z,3,GR86-047-21,-78.30000000000001,-0.188,-1.273,43.81,2.0,,0.0,0.0,
2025-08-15T00:53:37.531Z,3,GR86-047-21,-78.30000000000001,-0.147,-1.307,57.13,2.0,,0.0,0.0,
2025-08-15T00:53:37.575Z,3,GR86-047-21,-78.30000000000001,0.015,-1.284,75.3,2.0,,0.0,0.0,
2025-08-15T00:53:37.618Z,3,GR86-047-21,-77.2,0.274,-1.228,88.83,2.0,5639.0,0.0,0.0,
2025-08-15T00:53:37.661Z,3,GR86-047-21,-73.10000000000001,0.216,-1.293,100.21,2.0,,0.0,0.0,102.32
2025-08-15T00:53:37.705Z,3,GR86-047-21,-66.10000000000001,0.227,-1.229,100.11,2.0,,0.0,0.0,
2025-08-15T00:53:37.748Z,3,GR86-047-21,-62.0,0.209,-1.301,100.11,2.0,,0.0,0.0,
2025-08-15T00:53:37.791Z,3,GR86-047-21,-59.1,0.165,-1.323,100.1,2.0,,0.0,0.0,
2025-08-15T00:53:37.835Z,3,GR86-047-21,-56.5,0.162,-1.307,100.11,2.0,5637.0,0.0,0.0,
2025-08-15T00:53:37.878Z,3,GR86-047-21,-54.3,0.153,-1.358,100.11,2.0,,0.0,0.0,101.23
2025-08-15T00:53:37.921Z,3,GR86-047-21,-53.0,0.221,-1.346,100.11,2.0,,0.0,0.0,
2025-08-15T00:53:37.965Z,3,GR86-047-21,-52.6,0.236,-1.351,100.11,2.0,,0.0,0.0,
2025-08-15T00:53:38.008Z,3,GR86-047-21,-52.6,0.202,-1.322,100.12,2.0,,0.0,0.0,
2025-08-15T00:53:38.096Z,3,GR86-047-21,-53.3,0.216,-1.321,100.11,2.0,5981.0,0.0,0.0,101.32
2025-08-15T00:53:38.138Z,3,GR86-047-21,-54.1,0.188,-1.275,100.12,2.0,,0.0,0.0,
2025-08-15T00:53:38.181Z,3,GR86-047-21,-54.1,0.215,-1.248,100.09,2.0,,0.0,0.0,
2025-08-15T00:53:38.225Z,3,GR86-047-21,-54.1,0.209,-1.223,100.08,2.0,,0.0,0.0,
2025-08-15T00:53:38.268Z,3,GR86-047-21,-54.2,0.21,-1.225,100.09,2.0,6044.0,0.0,0.0,
2025-08-15T00:53:38.312Z,3,GR86-047-21,-54.3,0.233,-1.189,100.09,2.0,,0.0,0.0,102.64
2025-08-15T00:53:38.355Z,3,GR86-047-21,-54.2,0.201,-1.214,100.11,2.0,,0.0,0.0,
2025-08-15T00:53:38.398Z,3,GR86-047-21,-53.900000000000006,0.233,-1.198,100.08,2.0,,0.0,0.0,
2025-08-15T00:53:38.441Z,3,GR86-047-21,-52.3,0.19,-1.212,100.06,2.0,,0.0,0.0,
2025-08-15T00:53:38.485Z,3,GR86-047-21,-49.900000000000006,0.207,-1.122,100.08,2.0,6130.0,0.0,0.0,
2025-08-15T00:53:38.528Z,3,GR86-047-21,-48.1,0.239,-1.107,100.08,2.0,,0.0,0.0,103.49
2025-08-15T00:53:38.571Z,3,GR86-047-21,-47.400000000000006,0.198,-1.106,100.04,2.0,,0.0,0.0,
2025-08-15T00:53:38.615Z,3,GR86-047-21,-47.400000000000006,0.241,-1.072,100.07,2.0,,0.0,0.0,
2025-08-15T00:53:38.658Z,3,GR86-047-21,-47.400000000000006,0.236,-1.108,100.07,2.0,,0.0,0.0,
2025-08-15T00:53:38.701Z,3,GR86-047-21,-49.2,0.218,-1.091,100.06,2.0,6183.0,0.0,0.0,
2025-08-15T00:53:38.745Z,3,GR86-047-21,-54.1,0.207,-1.092,100.06,2.0,,0.0,0.0,104.67
2025-08-15T00:53:38.788Z,3,GR86-047-21,-56.400000000000006,0.226,-1.023,100.07,2.0,,0.0,0.0,
2025-08-15T00:53:38.831Z,3,GR86-047-21,-56.8,0.187,-1.122,100.04,2.0,,0.0,0.0,
2025-08-15T00:53:38.875Z,3,GR86-047-21,-56.8,0.192,-1.077,100.06,2.0,,0.0,0.0,
2025-08-15T00:53:38.918Z,3,GR86-047-21,-56.1,0.177,-1.14,100.04,2.0,6224.0,0.0,0.0,
2025-08-15T00:53:38.960Z,3,GR86-047-21,-54.5,0.242,-1.121,100.06,2.0,,0.0,0.0,106.03
2025-08-15T00:53:39.004Z,3,GR86-047-21,-52.3,0.206,-1.118,100.04,2.0,,0.0,0.0,
2025-08-15T00:53:39.046Z,3,GR86-047-21,-51.7,0.22,-1.044,100.05,2.0,,0.0,0.0,
2025-08-15T00:53:39.089Z,3,GR86-047-21,-51.5,0.206,-1.026,100.04,2.0,,0.0,0.0,
2025-08-15T00:53:39.132Z,3,GR86-047-21,-50.5,0.19,-0.957,100.04,2.0,6296.0,0.0,0.0,
2025-08-15T00:53:39.175Z,3,GR86-047-21,-48.400000000000006,0.177,-1.043,100.04,2.0,,0.0,0.0,107.56
2025-08-15T00:53:39.218Z,3,GR86-047-21,-45.7,0.217,-1.035,100.04,2.0,,0.0,0.0,
2025-08-15T00:53:39.261Z,3,GR86-047-21,-42.6,0.192,-1.035,100.04,2.0,,0.0,0.0,
2025-08-15T00:53:39.305Z,3,GR86-047-21,-40.8,0.223,-1.008,100.03,2.0,,0.0,0.0,
2025-08-15T00:53:39.348Z,3,GR86-047-21,-40.8,0.232,-0.993,100.04,2.0,6374.0,0.0,0.0,
2025-08-15T00:53:39.391Z,3,GR86-047-21,-41.3,0.206,-1.004,100.02,2.0,,0.0,0.0,109.37
2025-08-15T00:53:39.436Z,3,GR86-047-21,-42.7,0.184,-1.005,100.02,2.0,,0.0,0.0,
2025-08-15T00:53:39.478Z,3,GR86-047-21,-43.5,0.2,-1.086,100.02,2.0,,0.0,0.0,
2025-08-15T00:53:39.521Z,3,GR86-047-21,-43.6,0.212,-1.084,100.01,2.0,,0.0,0.0,
2025-08-15T00:53:39.565Z,3,GR86-047-21,-43.6,0.21,-1.121,100.02,2.0,6501.0,0.0,0.0,
2025-08-15T00:53:39.608Z,3,GR86-047-21,-43.6,0.206,-1.101,100.01,2.0,,0.0,0.0,110.65
2025-08-15T00:53:39.652Z,3,GR86-047-21,-43.7,0.203,-1.109,100.01,2.0,,0.0,0.0,
2025-08-15T00:53:39.695Z,3,GR86-047-21,-43.6,0.216,-0.978,99.98,2.0,,0.0,0.0,
2025-08-15T00:53:39.738Z,3,GR86-047-21,-43.6,0.204,-0.995,100.02,2.0,,0.0,0.0,
2025-08-15T00:53:39.781Z,3,GR86-047-21,-43.6,0.193,-0.953,100.01,2.0,6565.0,0.0,0.0,
2025-08-15T00:53:39.826Z,3,GR86-047-21,-43.6,0.186,-0.945,100.0,2.0,,0.0,0.0,112.1
2025-08-15T00:53:39.868Z,3,GR86-047-21,-43.6,0.215,-0.944,100.0,2.0,,0.0,0.0,
2025-08-15T00:53:39.912Z,3,GR86-047-21,-43.3,0.221,-0.942,99.98,2.0,,0.0,0.0,
2025-08-15T00:53:39.955Z,3,GR86-047-21,-43.3,0.199,-0.922,99.99,2.0,,0.0,0.0,
2025-08-15T00:53:39.998Z,3,GR86-047-21,-43.3,0.202,-0.987,100.0,2.0,6605.0,0.0,0.0,
2025-08-15T00:53:40.041Z,3,GR86-047-21,-44.400000000000006,0.188,-1.002,100.0,2.0,,0.0,0.0,112.74
2025-08-15T00:53:40.086Z,3,GR86-047-21,-47.0,0.198,-1.004,99.99,2.0,,0.0,0.0,
2025-08-15T00:53:40.128Z,3,GR86-047-21,-47.0,0.185,-1.057,99.99,2.0,,0.0,0.0,
2025-08-15T00:53:40.171Z,3,GR86-047-21,-46.6,0.184,-1.025,99.98,2.0,,0.0,0.0,
2025-08-15T00:53:40.215Z,3,GR86-047-21,-42.6,0.194,-1.067,100.0,2.0,6718.0,0.0,0.0,
2025-08-15T00:53:40.257Z,3,GR86-047-21,-39.3,0.198,-1.06,100.01,2.0,,0.0,0.0,114.1
2025-08-15T00:53:40.300Z,3,GR86-047-21,-38.8,0.221,-1.093,100.01,2.0,,0.0,0.0,
2025-08-15T00:53:40.344Z,3,GR86-047-21,-39.5,0.223,-1.143,100.03,2.0,,0.0,0.0,
2025-08-15T00:53:40.388Z,3,GR86-047-21,-41.900000000000006,0.197,-1.168,99.99,2.0,,0.0,0.0,
2025-08-15T00:53:40.431Z,3,GR86-047-21,-42.3,0.174,-1.148,100.0,2.0,6813.0,0.0,0.0,
2025-08-15T00:53:40.475Z,3,GR86-047-21,-42.3,0.21,-1.157,100.02,2.0,,0.0,0.0,115.62
2025-08-15T00:53:40.518Z,3,GR86-047-21,-42.3,0.187,-1.154,99.99,2.0,,0.0,0.0,
2025-08-15T00:53:40.560Z,3,GR86-047-21,-43.6,0.177,-1.099,100.01,2.0,,0.0,0.0,
2025-08-15T00:53:40.604Z,3,GR86-047-21,-45.400000000000006,0.182,-1.202,100.0,2.0,,0.0,0.0,
2025-08-15T00:53:40.648Z,3,GR86-047-21,-45.5,0.18,-1.158,100.01,2.0,6928.0,0.0,0.0,
2025-08-15T00:53:40.691Z,3,GR86-047-21,-45.3,0.162,-1.077,99.99,2.0,,0.0,0.0,119.63
2025-08-15T00:53:40.735Z,3,GR86-047-21,-44.2,0.138,-0.997,100.0,2.0,,0.0,0.0,
2025-08-15T00:53:40.778Z,3,GR86-047-21,-41.3,0.109,-0.876,99.98,2.0,,0.0,0.0,
2025-08-15T00:53:40.821Z,3,GR86-047-21,-40.5,0.104,-0.719,100.0,2.0,,0.0,0.0,
2025-08-15T00:53:40.865Z,3,GR86-047-21,-40.1,0.296,-0.978,100.0,2.0,6989.0,0.0,0.0,
2025-08-15T00:53:40.908Z,3,GR86-047-21,-39.2,0.204,-0.861,99.99,2.0,,0.0,0.0,120.87
2025-08-15T00:53:40.951Z,3,GR86-047-21,-36.5,0.179,-0.976,99.99,2.0,,0.0,0.0,
2025-08-15T00:53:40.995Z,3,GR86-047-21,-34.1,0.196,-0.954,100.03,2.0,,0.0,0.0,
2025-08-15T00:53:41.038Z,3,GR86-047-21,-33.2,0.167,-0.966,99.99,2.0,,0.0,0.0,
2025-08-15T00:53:41.081Z,3,GR86-047-21,-32.9,0.179,-1.075,99.99,2.0,7054.0,0.0,0.0,
2025-08-15T00:53:41.125Z,3,GR86-047-21,-33.1,0.231,-0.995,100.01,2.0,,0.0,0.0,121.25
2025-08-15T00:53:41.168Z,3,GR86-047-21,-32.6,0.289,-1.107,99.99,2.0,,0.0,0.0,
2025-08-15T00:53:41.212Z,3,GR86-047-21,-31.8,0.265,-0.792,99.98,2.0,,0.0,0.0,
2025-08-15T00:53:41.255Z,3,GR86-047-21,-29.700000000000003,0.288,-1.101,99.99,2.0,,0.0,0.0,
2025-08-15T00:53:41.298Z,3,GR86-047-21,-26.3,0.31,-0.88,99.99,2.0,7186.0,0.0,0.0,
2025-08-15T00:53:41.341Z,3,GR86-047-21,-23.5,0.121,-0.771,99.96,3.0,,0.0,0.0,122.23
2025-08-15T00:53:41.385Z,3,GR86-047-21,-20.5,0.193,-0.783,99.98,3.0,,0.0,0.0,
2025-08-15T00:53:41.428Z,3,GR86-047-21,-20.0,0.415,-0.743,99.97,3.0,,0.0,0.0,
2025-08-15T00:53:41.471Z,3,GR86-047-21,-19.9,0.453,-0.833,99.97,3.0,,0.0,0.0,
2025-08-15T00:53:41.515Z,3,GR86-047-21,-19.9,0.392,-0.718,99.97,3.0,7294.0,0.0,0.0,
2025-08-15T00:53:41.557Z,3,GR86-047-21,-19.4,0.192,-0.795,99.98,3.0,,0.0,0.0,124.0
2025-08-15T00:53:41.600Z,3,GR86-047-21,-17.5,0.131,-0.738,99.97,3.0,,0.0,0.0,
2025-08-15T00:53:41.644Z,3,GR86-047-21,-15.1,0.299,-0.635,99.98,3.0,,0.0,0.0,
2025-08-15T00:53:41.686Z,3,GR86-047-21,-14.5,0.152,-0.744,99.97,3.0,,0.0,0.0,
2025-08-15T00:53:41.729Z,3,GR86-047-21,-12.3,0.27,-0.255,99.99,3.0,6049.0,0.0,0.0,
2025-08-15T00:53:41.772Z,3,GR86-047-21,-7.7,0.246,-0.397,100.0,3.0,,0.0,0.0,124.87
2025-08-15T00:53:41.815Z,3,GR86-047-21,-4.3,0.278,-0.398,99.99,3.0,,0.0,0.0,
2025-08-15T00:53:41.858Z,3,GR86-047-21,-3.0,0.168,-0.205,99.98,3.0,,0.0,0.0,
2025-08-15T00:53:41.901Z,3,GR86-047-21,-2.4000000000000004,-0.019,-0.141,100.0,3.0,,0.0,0.0,
2025-08-15T00:53:41.945Z,3,GR86-047-21,4.7,0.25,-0.181,100.01,3.0,5984.0,0.0,0.0,
2025-08-15T00:53:41.988Z,3,GR86-047-21,7.1000000000000005,0.325,-0.183,100.01,3.0,,0.0,0.0,127.02
2025-08-15T00:53:42.031Z,3,GR86-047-21,7.2,0.229,-0.035,100.0,3.0,,0.0,0.0,
2025-08-15T00:53:42.075Z,3,GR86-047-21,7.1000000000000005,0.219,-0.179,100.0,3.0,,0.0,0.0,
2025-08-15T00:53:42.118Z,3,GR86-047-21,6.0,0.131,0.092,99.98,3.0,,0.0,0.0,
2025-08-15T00:53:42.161Z,3,GR86-047-21,5.4,0.214,0.134,100.01,3.0,6034.0,0.0,0.0,
2025-08-15T00:53:42.205Z,3,GR86-047-21,5.6000000000000005,0.245,0.159,100.01,3.0,,0.0,0.0,128.15
2025-08-15T00:53:42.248Z,3,GR86-047-21,6.4,0.222,0.219,100.01,3.0,,0.0,0.0,
2025-08-15T00:53:42.291Z,3,GR86-047-21,6.7,0.212,0.176,99.99,3.0,,0.0,0.0,
2025-08-15T00:53:42.335Z,3,GR86-047-21,6.7,0.187,0.177,100.0,3.0,,0.0,0.0,
2025-08-15T00:53:42.378Z,3,GR86-047-21,6.7,0.229,0.192,100.02,3.0,6069.0,0.0,0.0,
2025-08-15T00:53:42.421Z,3,GR86-047-21,6.7,0.231,0.215,100.01,3.0,,0.0,0.0,129.88
2025-08-15T00:53:42.465Z,3,GR86-047-21,6.7,0.227,0.163,100.0,3.0,,0.0,0.0,
2025-08-15T00:53:42.507Z,3,GR86-047-21,6.7,0.188,0.143,100.02,3.0,,0.0,0.0,
2025-08-15T00:53:42.550Z,3,GR86-047-21,6.7,0.191,0.122,100.02,3.0,,0.0,0.0,
2025-08-15T00:53:42.594Z,3,GR86-047-21,6.7,0.22,0.108,100.02,3.0,6154.0,0.0,0.0,
2025-08-15T00:53:42.636Z,3,GR86-047-21,6.7,0.215,0.128,100.0,3.0,,0.0,0.0,131.09
2025-08-15T00:53:42.679Z,3,GR86-047-21,6.7,0.204,0.084,99.99,3.0,,0.0,0.0,
2025-08-15T00:53:42.722Z,3,GR86-047-21,6.7,0.185,0.073,100.01,3.0,,0.0,0.0,
2025-08-15T00:53:42.765Z,3,GR86-047-21,6.6000000000000005,0.191,0.073,99.99,3.0,,0.0,0.0,
2025-08-15T00:53:42.808Z,3,GR86-047-21,6.5,0.205,0.068,100.02,3.0,6218.0,0.0,0.0,
2025-08-15T00:53:42.852Z,3,GR86-047-21,6.5,0.223,0.085,99.99,3.0,,0.0,0.0,132.79
2025-08-15T00:53:42.896Z,3,GR86-047-21,6.4,0.202,0.068,100.0,3.0,,0.0,0.0,
2025-08-15T00:53:42.938Z,3,GR86-047-21,6.4,0.193,0.035,100.0,3.0,,0.0,0.0,
2025-08-15T00:53:42.981Z,3,GR86-047-21,6.4,0.212,0.022,100.0,3.0,,0.0,0.0,
2025-08-15T00:53:43.025Z,3,GR86-047-21,6.2,0.176,0.022,100.01,3.0,6286.0,0.0,0.0,
2025-08-15T00:53:43.068Z,3,GR86-047-21,6.1000000000000005,0.215,0.023,100.0,3.0,,0.0,0.0,134.14
2025-08-15T00:53:43.112Z,3,GR86-047-21,5.9,0.21,0.026,100.01,3.0,,0.0,0.0,
2025-08-15T00:53:43.155Z,3,GR86-047-21,5.800000000000001,0.195,0.002,99.98,3.0,,0.0,0.0,
2025-08-15T00:53:43.198Z,3,GR86-047-21,5.2,0.194,-0.015,99.99,3.0,,0.0,0.0,
2025-08-15T00:53:43.241Z,3,GR86-047-21,4.800000000000001,0.212,-0.006,100.0,3.0,6356.0,0.0,0.0,
2025-08-15T00:53:43.286Z,3,GR86-047-21,4.800000000000001,0.199,-0.023,100.0,3.0,,0.0,0.0,137.05
2025-08-15T00:53:43.328Z,3,GR86-047-21,4.7,0.225,-0.008,99.98,3.0,,0.0,0.0,
2025-08-15T00:53:43.371Z,3,GR86-047-21,4.7,0.207,-0.01,100.01,3.0,,0.0,0.0,
2025-08-15T00:53:43.415Z,3,GR86-047-21,4.7,0.171,-0.02,99.99,3.0,,0.0,0.0,
2025-08-15T00:53:43.458Z,3,GR86-047-21,4.800000000000001,0.19,-0.017,100.0,3.0,6424.0,0.0,0.0,
2025-08-15T00:53:43.501Z,3,GR86-047-21,4.800000000000001,0.209,0.005,99.99,3.0,,0.0,0.0,138.45000000000002
2025-08-15T00:53:43.545Z,3,GR86-047-21,4.7,0.205,0.003,99.98,3.0,,0.0,0.0,
2025-08-15T00:53:43.588Z,3,GR86-047-21,4.7,0.217,0.022,99.99,3.0,,0.0,0.0,
2025-08-15T00:53:43.631Z,3,GR86-047-21,4.800000000000001,0.188,0.009,99.99,3.0,,0.0,0.0,
2025-08-15T00:53:43.675Z,3,GR86-047-21,4.7,0.173,0.01,100.0,3.0,6491.0,0.0,0.0,
2025-08-15T00:53:43.718Z,3,GR86-047-21,4.7,0.189,-0.017,100.01,3.0,,0.0,0.0,139.81
2025-08-15T00:53:43.760Z,3,GR86-047-21,4.7,0.244,-0.008,99.99,3.0,,0.0,0.0,
2025-08-15T00:53:43.848Z,3,GR86-047-21,4.5,0.205,-0.019,100.02,3.0,,0.0,0.0,
2025-08-15T00:53:43.891Z,3,GR86-047-21,4.4,0.197,-0.016,100.0,3.0,6604.0,0.0,0.0,
2025-08-15T00:53:43.935Z,3,GR86-047-21,4.4,0.166,-0.033,99.99,3.0,,0.0,0.0,141.22
2025-08-15T00:53:43.978Z,3,GR86-047-21,4.4,0.174,-0.061,100.0,3.0,,0.0,0.0,
2025-08-15T00:53:44.021Z,3,GR86-047-21,4.4,0.222,-0.054,100.0,3.0,,0.0,0.0,
2025-08-15T00:53:44.065Z,3,GR86-047-21,4.4,0.197,-0.024,100.01,3.0,,0.0,0.0,
2025-08-15T00:53:44.108Z,3,GR86-047-21,4.4,0.212,-0.009,100.0,3.0,6671.0,0.0,0.0,
2025-08-15T00:53:44.152Z,3,GR86-047-21,4.3,0.213,-0.007,100.01,3.0,,0.0,0.0,142.56
2025-08-15T00:53:44.195Z,3,GR86-047-21,4.3,0.165,0.003,99.99,3.0,,0.0,0.0,
2025-08-15T00:53:44.238Z,3,GR86-047-21,4.3,0.167,-0.02,100.01,3.0,,0.0,0.0,
2025-08-15T00:53:44.281Z,3,GR86-047-21,4.3,0.196,-0.019,100.0,3.0,,0.0,0.0,
2025-08-15T00:53:44.326Z,3,GR86-047-21,4.3,0.155,-0.011,100.0,3.0,6732.0,0.0,0.0,
2025-08-15T00:53:44.368Z,3,GR86-047-21,4.3,0.184,-0.004,100.01,3.0,,0.0,0.0,143.96
2025-08-15T00:53:44.411Z,3,GR86-047-21,4.3,0.205,0.012,100.01,3.0,,0.0,0.0,
2025-08-15T00:53:44.455Z,3,GR86-047-21,4.3,0.213,0.014,100.0,3.0,,0.0,0.0,
2025-08-15T00:53:44.498Z,3,GR86-047-21,4.3,0.184,0.021,99.98,3.0,,0.0,0.0,
2025-08-15T00:53:44.541Z,3,GR86-047-21,4.3,0.16,0.007,99.99,3.0,6789.0,0.0,0.0,
2025-08-15T00:53:44.585Z,3,GR86-047-21,4.3,0.174,0.006,100.0,3.0,,0.0,0.0,145.27
2025-08-15T00:53:44.628Z,3,GR86-047-21,4.3,0.147,0.004,99.97,3.0,,0.0,0.0,
2025-08-15T00:53:44.671Z,3,GR86-047-21,4.3,0.182,-0.019,100.0,3.0,,0.0,0.0,
2025-08-15T00:53:44.715Z,3,GR86-047-21,4.3,0.212,-0.019,100.0,3.0,,0.0,0.0,
2025-08-15T00:53:44.758Z,3,GR86-047-21,4.3,0.228,-0.017,100.0,3.0,6854.0,0.0,0.0,
2025-08-15T00:53:44.802Z,3,GR86-047-21,4.3,0.19,-0.01,99.98,3.0,,0.0,0.0,146.57
2025-08-15T00:53:44.846Z,3,GR86-047-21,4.3,0.214,-0.032,100.0,3.0,,0.0,0.0,
2025-08-15T00:53:44.888Z,3,GR86-047-21,4.3,0.19,-0.03,100.01,3.0,,0.0,0.0,
2025-08-15T00:53:44.931Z,3,GR86-047-21,4.2,0.165,-0.026,100.02,3.0,,0.0,0.0,
2025-08-15T00:53:44.975Z,3,GR86-047-21,4.3,0.147,-0.044,100.01,3.0,6912.0,0.0,0.0,
2025-08-15T00:53:45.018Z,3,GR86-047-21,4.2,0.174,-0.059,100.0,3.0,,0.0,0.0,147.8
2025-08-15T00:53:45.061Z,3,GR86-047-21,4.1000000000000005,0.209,-0.044,100.0,3.0,,0.0,0.0,
2025-08-15T00:53:45.104Z,3,GR86-047-21,4.1000000000000005,0.178,-0.057,100.0,3.0,,0.0,0.0,
2025-08-15T00:53:45.146Z,3,GR86-047-21,4.1000000000000005,0.184,-0.044,100.0,3.0,,0.0,0.0,
2025-08-15T00:53:45.189Z,3,GR86-047-21,4.1000000000000005,0.21,-0.051,100.01,3.0,6966.0,0.0,0.0,
2025-08-15T00:53:45.232Z,3,GR86-047-21,4.1000000000000005,0.198,-0.039,99.98,3.0,,0.0,0.0,149.07
2025-08-15T00:53:45.275Z,3,GR86-047-21,3.9,0.16,-0.032,100.0,3.0,,0.0,0.0,
2025-08-15T00:53:45.318Z,3,GR86-047-21,3.7,0.143,-0.039,100.0,3.0,,0.0,0.0,
2025-08-15T00:53:45.361Z,3,GR86-047-21,3.6,0.143,-0.038,100.02,3.0,,0.0,0.0,
2025-08-15T00:53:45.405Z,3,GR86-047-21,3.4000000000000004,0.141,-0.039,99.99,3.0,7028.0,0.0,0.0,
2025-08-15T00:53:45.448Z,3,GR86-047-21,3.3000000000000003,0.154,-0.046,99.99,3.0,,0.0,0.0,150.31
2025-08-15T00:53:45.492Z,3,GR86-047-21,3.3000000000000003,0.166,-0.081,100.01,3.0,,0.0,0.0,
2025-08-15T00:53:45.535Z,3,GR86-047-21,3.3000000000000003,0.193,-0.078,100.0,3.0,,0.0,0.0,
2025-08-15T00:53:45.578Z,3,GR86-047-21,3.2,0.198,-0.078,100.0,3.0,,0.0,0.0,
2025-08-15T00:53:45.621Z,3,GR86-047-21,3.0,0.186,-0.051,100.02,3.0,7081.0,0.0,0.0,
2025-08-15T00:53:45.665Z,3,GR86-047-21,2.5,0.193,-0.074,99.99,3.0,,0.0,0.0,151.52
2025-08-15T00:53:45.708Z,3,GR86-047-21,2.3000000000000003,0.202,-0.067,100.03,3.0,,0.0,0.0,
2025-08-15T00:53:45.751Z,3,GR86-047-21,2.3000000000000003,0.174,-0.064,99.97,3.0,,0.0,0.0,
2025-08-15T00:53:45.795Z,3,GR86-047-21,2.3000000000000003,0.137,-0.075,100.0,3.0,,0.0,0.0,
2025-08-15T00:53:45.838Z,3,GR86-047-21,2.3000000000000003,0.142,-0.09,100.0,3.0,7131.0,0.0,0.0,
2025-08-15T00:53:45.880Z,3,GR86-047-21,2.3000000000000003,0.158,-0.087,99.98,3.0,,0.0,0.0,152.72
2025-08-15T00:53:45.924Z,3,GR86-047-21,2.3000000000000003,0.136,-0.075,100.0,3.0,,0.0,0.0,
2025-08-15T00:53:45.966Z,3,GR86-047-21,2.3000000000000003,0.123,-0.07,99.98,3.0,,0.0,0.0,
2025-08-15T00:53:46.009Z,3,GR86-047-21,2.3000000000000003,0.047,-0.093,99.98,4.0,,0.0,0.0,
2025-08-15T00:53:46.052Z,3,GR86-047-21,2.3000000000000003,-0.022,-0.047,100.01,4.0,7192.0,0.0,0.0,
2025-08-15T00:53:46.096Z,3,GR86-047-21,2.3000000000000003,0.505,-0.07,99.99,4.0,,0.0,0.0,155.05
2025-08-15T00:53:46.138Z,3,GR86-047-21,2.3000000000000003,0.314,-0.118,99.99,4.0,,0.0,0.0,
2025-08-15T00:53:46.181Z,3,GR86-047-21,2.3000000000000003,0.138,0.025,100.0,4.0,,0.0,0.0,
2025-08-15T00:53:46.225Z,3,GR86-047-21,2.3000000000000003,0.097,-0.136,99.99,4.0,,0.0,0.0,
2025-08-15T00:53:46.268Z,3,GR86-047-21,2.3000000000000003,0.224,-0.062,99.97,4.0,7242.0,0.0,0.0,
2025-08-15T00:53:46.312Z,3,GR86-047-21,2.3000000000000003,0.218,-0.028,99.98,4.0,,0.0,0.0,156.13
2025-08-15T00:53:46.355Z,3,GR86-047-21,2.3000000000000003,0.099,-0.084,99.99,4.0,,0.0,0.0,
2025-08-15T00:53:46.398Z,3,GR86-047-21,2.3000000000000003,0.063,-0.042,99.99,4.0,,0.0,0.0,
2025-08-15T00:53:46.441Z,3,GR86-047-21,2.3000000000000003,0.141,-0.092,99.97,4.0,,0.0,0.0,
2025-08-15T00:53:46.485Z,3,GR86-047-21,2.3000000000000003,0.152,-0.069,100.02,4.0,6239.0,0.0,0.0,
2025-08-15T00:53:46.528Z,3,GR86-047-21,2.3000000000000003,0.113,-0.089,99.99,4.0,,0.0,0.0,157.42000000000002
2025-08-15T00:53:46.571Z,3,GR86-047-21,2.3000000000000003,0.118,-0.081,99.99,4.0,,0.0,0.0,
2025-08-15T00:53:46.615Z,3,GR86-047-21,2.3000000000000003,0.14,-0.089,100.01,4.0,,0.0,0.0,
2025-08-15T00:53:46.657Z,3,GR86-047-21,2.3000000000000003,0.151,-0.078,100.0,4.0,,0.0,0.0,
2025-08-15T00:53:46.700Z,3,GR86-047-21,2.3000000000000003,0.162,-0.089,100.01,4.0,6218.0,0.0,0.0,
2025-08-15T00:53:46.744Z,3,GR86-047-21,1.9,0.114,-0.072,99.98,4.0,,0.0,0.0,158.4
2025-08-15T00:53:46.786Z,3,GR86-047-21,1.6,0.14,-0.083,100.0,4.0,,0.0,0.0,
2025-08-15T00:53:46.829Z,3,GR86-047-21,1.5,0.152,-0.093,100.01,4.0,,0.0,0.0,
2025-08-15T00:53:46.872Z,3,GR86-047-21,1.4,0.165,-0.097,99.98,4.0,,0.0,0.0,
2025-08-15T00:53:46.915Z,3,GR86-047-21,0.9,0.163,-0.119,100.03,4.0,6258.0,0.0,0.0,
2025-08-15T00:53:46.958Z,3,GR86-047-21,-0.3,0.162,-0.117,100.0,4.0,,0.0,0.0,159.51
2025-08-15T00:53:47.001Z,3,GR86-047-21,-1.9,0.141,-0.132,100.01,4.0,,0.0,0.0,
2025-08-15T00:53:47.045Z,3,GR86-047-21,-3.9,0.151,-0.187,99.99,4.0,,0.0,0.0,
2025-08-15T00:53:47.088Z,3,GR86-047-21,-4.0,0.158,-0.215,100.01,4.0,,0.0,0.0,
2025-08-15T00:53:47.131Z,3,GR86-047-21,-4.0,0.143,-0.233,99.98,4.0,6299.0,0.0,0.0,
2025-08-15T00:53:47.175Z,3,GR86-047-21,-4.0,0.146,-0.247,100.0,4.0,,0.0,0.0,160.47
2025-08-15T00:53:47.218Z,3,GR86-047-21,-4.0,0.12,-0.265,99.98,4.0,,0.0,0.0,
2025-08-15T00:53:47.261Z,3,GR86-047-21,-4.0,0.123,-0.298,100.0,4.0,,0.0,0.0,
2025-08-15T00:53:47.305Z,3,GR86-047-21,-4.0,0.159,-0.284,100.0,4.0,,0.0,0.0,
2025-08-15T00:53:47.348Z,3,GR86-047-21,-4.0,0.139,-0.267,100.01,4.0,6344.0,0.0,0.0,
2025-08-15T00:53:47.392Z,3,GR86-047-21,-4.0,0.121,-0.26,100.0,4.0,,0.0,0.0,161.4
2025-08-15T00:53:47.436Z,3,GR86-047-21,-3.9,0.131,-0.259,99.98,4.0,,0.0,0.0,
2025-08-15T00:53:47.478Z,3,GR86-047-21,-3.8,0.125,-0.248,100.01,4.0,,0.0,0.0,
2025-08-15T00:53:47.521Z,3,GR86-047-21,-3.8,0.133,-0.246,99.99,4.0,,0.0,0.0,
2025-08-15T00:53:47.565Z,3,GR86-047-21,-3.8,0.132,-0.198,99.99,4.0,6385.0,0.0,0.0,
2025-08-15T00:53:47.608Z,3,GR86-047-21,-3.8,0.123,-0.219,100.02,4.0,,0.0,0.0,162.33
2025-08-15T00:53:47.652Z,3,GR86-047-21,-3.8,0.131,-0.203,100.0,4.0,,0.0,0.0,
2025-08-15T00:53:47.696Z,3,GR86-047-21,-3.8,0.131,-0.205,99.99,4.0,,0.0,0.0,
2025-08-15T00:53:47.738Z,3,GR86-047-21,-3.8,0.13,-0.223,100.0,4.0,,0.0,0.0,
2025-08-15T00:53:47.781Z,3,GR86-047-21,-3.8,0.141,-0.228,99.98,4.0,6427.0,0.0,0.0,
2025-08-15T00:53:47.825Z,3,GR86-047-21,-3.6,0.129,-0.237,99.98,4.0,,0.0,0.0,163.34
2025-08-15T00:53:47.868Z,3,GR86-047-21,-3.4000000000000004,0.121,-0.241,100.01,4.0,,0.0,0.0,
2025-08-15T00:53:47.912Z,3,GR86-047-21,-3.4000000000000004,0.136,-0.234,100.01,4.0,,0.0,0.0,
2025-08-15T00:53:47.955Z,3,GR86-047-21,-3.4000000000000004,0.137,-0.198,99.98,4.0,,0.0,0.0,
2025-08-15T00:53:47.998Z,3,GR86-047-21,-3.3000000000000003,0.139,-0.196,100.01,4.0,6459.0,0.0,0.0,
2025-08-15T00:53:48.041Z,3,GR86-047-21,-3.1,0.16,-0.177,100.02,4.0,,0.0,0.0,164.39
2025-08-15T00:53:48.085Z,3,GR86-047-21,-2.8000000000000003,0.132,-0.153,100.0,4.0,,0.0,0.0,
2025-08-15T00:53:48.128Z,3,GR86-047-21,-2.6,0.136,-0.134,100.0,4.0,,0.0,0.0,
2025-08-15T00:53:48.171Z,3,GR86-047-21,-2.6,0.133,-0.122,99.99,4.0,,0.0,0.0,
2025-08-15T00:53:48.215Z,3,GR86-047-21,-2.6,0.143,-0.118,99.99,4.0,6499.0,0.0,0.0,
2025-08-15T00:53:48.258Z,3,GR86-047-21,-2.6,0.141,-0.11,100.0,4.0,,0.0,0.0,165.42000000000002
2025-08-15T00:53:48.301Z,3,GR86-047-21,-2.6,0.163,-0.115,100.01,4.0,,0.0,0.0,
2025-08-15T00:53:48.345Z,3,GR86-047-21,-2.7,0.13,-0.108,100.0,4.0,,0.0,0.0,
2025-08-15T00:53:48.388Z,3,GR86-047-21,-2.7,0.13,-0.116,100.0,4.0,,0.0,0.0,
2025-08-15T00:53:48.431Z,3,GR86-047-21,-2.7,0.134,-0.094,100.01,4.0,6546.0,0.0,0.0,
2025-08-15T00:53:48.475Z,3,GR86-047-21,-2.7,0.135,-0.125,99.99,4.0,,0.0,0.0,166.38
2025-08-15T00:53:48.518Z,3,GR86-047-21,-2.7,0.146,-0.134,100.01,4.0,,0.0,0.0,
2025-08-15T00:53:48.560Z,3,GR86-047-21,-2.7,0.155,-0.135,99.99,4.0,,0.0,0.0,
2025-08-15T00:53:48.604Z,3,GR86-047-21,-2.7,0.122,-0.177,99.99,4.0,,0.0,0.0,
2025-08-15T00:53:48.646Z,3,GR86-047-21,-2.7,0.122,-0.176,99.99,4.0,6583.0,0.0,0.0,
2025-08-15T00:53:48.689Z,3,GR86-047-21,-2.7,0.133,-0.192,100.0,4.0,,0.0,0.0,168.57
2025-08-15T00:53:48.732Z,3,GR86-047-21,-2.7,0.142,-0.182,99.98,4.0,,0.0,0.0,
2025-08-15T00:53:48.775Z,3,GR86-047-21,-2.7,0.148,-0.17,100.01,4.0,,0.0,0.0,
2025-08-15T00:53:48.818Z,3,GR86-047-21,-2.7,0.148,-0.192,100.0,4.0,,0.0,0.0,
2025-08-15T00:53:48.861Z,3,GR86-047-21,-2.7,0.151,-0.216,100.0,4.0,6622.0,0.0,0.0,
2025-08-15T00:53:48.905Z,3,GR86-047-21,-2.7,0.127,-0.195,99.98,4.0,,0.0,0.0,169.72
2025-08-15T00:53:48.948Z,3,GR86-047-21,-2.7,0.108,-0.179,99.98,4.0,,0.0,0.0,
2025-08-15T00:53:48.991Z,3,GR86-047-21,-2.7,0.127,-0.187,100.0,4.0,,0.0,0.0,
2025-08-15T00:53:49.035Z,3,GR86-047-21,-2.7,0.125,-0.192,100.0,4.0,,0.0,0.0,
2025-08-15T00:53:49.078Z,3,GR86-047-21,-2.7,0.139,-0.215,99.99,4.0,6664.0,0.0,0.0,
2025-08-15T00:53:49.121Z,3,GR86-047-21,-2.7,0.152,-0.227,99.99,4.0,,0.0,0.0,170.73
2025-08-15T00:53:49.165Z,3,GR86-047-21,-2.7,0.102,-0.207,100.02,4.0,,0.0,0.0,
2025-08-15T00:53:49.208Z,3,GR86-047-21,-2.7,0.109,-0.212,100.0,4.0,,0.0,0.0,
2025-08-15T00:53:49.252Z,3,GR86-047-21,-2.7,0.119,-0.173,100.0,4.0,,0.0,0.0,
2025-08-15T00:53:49.295Z,3,GR86-047-21,-2.7,0.115,-0.193,99.99,4.0,6755.0,0.0,0.0,
2025-08-15T00:53:49.338Z,3,GR86-047-21,-2.7,0.13,-0.188,100.0,4.0,,0.0,0.0,171.76
2025-08-15T00:53:49.381Z,3,GR86-047-21,-2.7,0.108,-0.201,100.0,4.0,,0.0,0.0,
2025-08-15T00:53:49.426Z,3,GR86-047-21,-2.7,0.109,-0.201,100.01,4.0,,0.0,0.0,
2025-08-15T00:53:49.469Z,3,GR86-047-21,-2.7,0.124,-0.202,100.02,4.0,,0.0,0.0,
2025-08-15T00:53:49.512Z,3,GR86-047-21,-2.7,0.117,-0.203,99.99,4.0,6784.0,0.0,0.0,
2025-08-15T00:53:49.555Z,3,GR86-047-21,-2.7,0.1,-0.188,100.0,4.0,,0.0,0.0,172.93
2025-08-15T00:53:49.598Z,3,GR86-047-21,-2.7,0.092,-0.211,99.98,4.0,,0.0,0.0,
2025-08-15T00:53:49.641Z,3,GR86-047-21,-2.7,0.097,-0.238,100.02,4.0,,0.0,0.0,
2025-08-15T00:53:49.686Z,3,GR86-047-21,-2.7,0.143,-0.27,99.99,4.0,,0.0,0.0,
2025-08-15T00:53:49.728Z,3,GR86-047-21,-2.8000000000000003,0.158,-0.276,100.01,4.0,6827.0,0.0,0.0,
2025-08-15T00:53:49.771Z,3,GR86-047-21,-2.8000000000000003,0.142,-0.256,100.0,4.0,,0.0,0.0,173.89
2025-08-15T00:53:49.815Z,3,GR86-047-21,-2.8000000000000003,0.134,-0.265,100.01,4.0,,0.0,0.0,
2025-08-15T00:53:49.858Z,3,GR86-047-21,-2.8000000000000003,0.147,-0.218,100.0,4.0,,0.0,0.0,
2025-08-15T00:53:49.901Z,3,GR86-047-21,-2.8000000000000003,0.114,-0.232,100.01,4.0,,0.0,0.0,
2025-08-15T00:53:49.946Z,3,GR86-047-21,-2.8000000000000003,0.108,-0.235,100.02,4.0,6878.0,0.0,0.0,
2025-08-15T00:53:49.988Z,3,GR86-047-21,-2.8000000000000003,0.16,-0.232,100.0,4.0,,0.0,0.0,174.83
2025-08-15T00:53:50.031Z,3,GR86-047-21,-2.8000000000000003,0.139,-0.223,100.01,4.0,,0.0,0.0,
2025-08-15T00:53:50.118Z,3,GR86-047-21,-2.8000000000000003,0.135,-0.207,100.01,4.0,,0.0,0.0,
2025-08-15T00:53:50.161Z,3,GR86-047-21,-2.8000000000000003,0.142,-0.213,100.01,4.0,6903.0,0.0,0.0,
2025-08-15T00:53:50.205Z,3,GR86-047-21,-2.8000000000000003,0.099,-0.193,99.99,4.0,,0.0,0.0,175.89
2025-08-15T00:53:50.248Z,3,GR86-047-21,-2.8000000000000003,0.106,-0.162,99.99,4.0,,0.0,0.0,
2025-08-15T00:53:50.292Z,3,GR86-047-21,-2.8000000000000003,0.089,-0.153,99.99,4.0,,0.0,0.0,
2025-08-15T00:53:50.335Z,3,GR86-047-21,-2.8000000000000003,0.109,-0.151,99.99,4.0,,0.0,0.0,
2025-08-15T00:53:50.378Z,3,GR86-047-21,-2.8000000000000003,0.071,-0.137,100.0,4.0,6947.0,0.0,0.0,
2025-08-15T00:53:50.421Z,3,GR86-047-21,-2.8000000000000003,0.095,-0.123,99.98,4.0,,0.0,0.0,176.88
2025-08-15T00:53:50.465Z,3,GR86-047-21,-2.8000000000000003,0.15,-0.124,99.99,4.0,,0.0,0.0,
2025-08-15T00:53:50.508Z,3,GR86-047-21,-2.8000000000000003,0.159,-0.134,100.0,4.0,,0.0,0.0,
2025-08-15T00:53:50.552Z,3,GR86-047-21,-2.8000000000000003,0.15,-0.151,100.01,4.0,,0.0,0.0,
2025-08-15T00:53:50.595Z,3,GR86-047-21,-2.8000000000000003,0.138,-0.149,100.0,4.0,6984.0,0.0,0.0,
2025-08-15T00:53:50.638Z,3,GR86-047-21,-2.8000000000000003,0.148,-0.163,100.0,4.0,,0.0,0.0,178.1
2025-08-15T00:53:50.680Z,3,GR86-047-21,-2.8000000000000003,0.138,-0.147,99.99,4.0,,0.0,0.0,
2025-08-15T00:53:50.724Z,3,GR86-047-21,-2.8000000000000003,0.104,-0.168,100.0,4.0,,0.0,0.0,
2025-08-15T00:53:50.766Z,3,GR86-047-21,-2.8000000000000003,0.11,-0.187,100.01,4.0,,0.0,0.0,
2025-08-15T00:53:50.809Z,3,GR86-047-21,-2.8000000000000003,0.101,-0.167,100.0,4.0,7022.0,0.0,0.0,
2025-08-15T00:53:50.852Z,3,GR86-047-21,-2.8000000000000003,0.099,-0.179,100.0,4.0,,0.0,0.0,178.93
2025-08-15T00:53:50.896Z,3,GR86-047-21,-2.8000000000000003,0.1,-0.159,99.99,4.0,,0.0,0.0,
2025-08-15T00:53:50.938Z,3,GR86-047-21,-2.8000000000000003,0.092,-0.182,99.99,4.0,,0.0,0.0,
2025-08-15T00:53:50.981Z,3,GR86-047-21,-2.8000000000000003,0.097,-0.215,99.99,4.0,,0.0,0.0,
2025-08-15T00:53:51.025Z,3,GR86-047-21,-2.8000000000000003,0.126,-0.216,100.03,4.0,7064.0,0.0,0.0,
2025-08-15T00:53:51.068Z,3,GR86-047-21,-2.8000000000000003,0.135,-0.22,99.99,4.0,,0.0,0.0,179.99
2025-08-15T00:53:51.111Z,3,GR86-047-21,-2.8000000000000003,0.12,-0.221,100.0,4.0,,0.0,0.0,
2025-08-15T00:53:51.155Z,3,GR86-047-21,-2.8000000000000003,0.124,-0.215,100.0,4.0,,0.0,0.0,
2025-08-15T00:53:51.198Z,3,GR86-047-21,-2.8000000000000003,0.134,-0.175,100.0,4.0,,0.0,0.0,
2025-08-15T00:53:51.241Z,3,GR86-047-21,-2.8000000000000003,0.137,-0.174,99.99,4.0,7097.0,0.0,0.0,
2025-08-15T00:53:51.286Z,3,GR86-047-21,-2.8000000000000003,0.088,-0.169,100.0,4.0,,0.0,0.0,181.94
2025-08-15T00:53:51.328Z,3,GR86-047-21,-2.8000000000000003,0.083,-0.216,100.0,4.0,,0.0,0.0,
2025-08-15T00:53:51.371Z,3,GR86-047-21,-2.8000000000000003,0.107,-0.194,100.0,4.0,,0.0,0.0,
2025-08-15T00:53:51.415Z,3,GR86-047-21,-2.8000000000000003,0.084,-0.188,99.99,4.0,,0.0,0.0,
2025-08-15T00:53:51.457Z,3,GR86-047-21,-2.8000000000000003,0.081,-0.199,100.0,4.0,7135.0,0.0,0.0,
2025-08-15T00:53:51.500Z,3,GR86-047-21,-2.8000000000000003,0.102,-0.195,100.01,4.0,,0.0,0.0,182.79
2025-08-15T00:53:51.544Z,3,GR86-047-21,-2.8000000000000003,0.135,-0.179,99.99,4.0,,0.0,0.0,
2025-08-15T00:53:51.586Z,3,GR86-047-21,-2.8000000000000003,0.119,-0.181,100.0,4.0,,0.0,0.0,
2025-08-15T00:53:51.629Z,3,GR86-047-21,-2.8000000000000003,0.128,-0.168,100.0,4.0,,0.0,0.0,
2025-08-15T00:53:51.672Z,3,GR86-047-21,-2.8000000000000003,0.141,-0.158,99.99,4.0,7175.0,0.0,0.0,
2025-08-15T00:53:51.715Z,3,GR86-047-21,-2.8000000000000003,0.126,-0.142,100.0,4.0,,0.0,0.0,183.79
2025-08-15T00:53:51.758Z,3,GR86-047-21,-2.8000000000000003,0.138,-0.142,100.0,4.0,,0.0,0.0,
2025-08-15T00:53:51.801Z,3,GR86-047-21,-2.8000000000000003,0.123,-0.14,100.0,4.0,,0.0,0.0,
2025-08-15T00:53:51.845Z,3,GR86-047-21,-2.8000000000000003,0.084,-0.139,100.02,4.0,,0.0,0.0,
2025-08-15T00:53:51.888Z,3,GR86-047-21,-2.8000000000000003,0.074,-0.127,99.98,4.0,7238.0,0.0,0.0,
2025-08-15T00:53:51.931Z,3,GR86-047-21,-2.8000000000000003,0.097,-0.14,99.99,4.0,,0.0,0.0,184.74
2025-08-15T00:53:51.975Z,3,GR86-047-21,-2.8000000000000003,0.088,-0.154,99.99,4.0,,0.0,0.0,
2025-08-15T00:53:52.018Z,3,GR86-047-21,-2.8000000000000003,-0.019,-0.138,99.98,5.0,,0.0,0.0,
2025-08-15T00:53:52.061Z,3,GR86-047-21,-2.8000000000000003,-0.127,-0.097,99.99,5.0,,0.0,0.0,
2025-08-15T00:53:52.105Z,3,GR86-047-21,-2.8000000000000003,0.327,-0.201,99.99,5.0,7276.0,0.0,0.0,
2025-08-15T00:53:52.148Z,3,GR86-047-21,-2.8000000000000003,0.078,-0.141,99.99,5.0,,0.0,0.0,185.59
2025-08-15T00:53:52.192Z,3,GR86-047-21,-2.8000000000000003,-0.02,-0.081,99.98,5.0,,0.0,0.0,
2025-08-15T00:53:52.235Z,3,GR86-047-21,-2.8000000000000003,0.074,-0.177,99.99,5.0,,0.0,0.0,
2025-08-15T00:53:52.278Z,3,GR86-047-21,-2.8000000000000003,0.158,-0.098,99.98,5.0,,0.0,0.0,
2025-08-15T00:53:52.321Z,3,GR86-047-21,-2.8000000000000003,0.062,-0.121,99.99,5.0,6676.0,0.0,0.0,
2025-08-15T00:53:52.365Z,3,GR86-047-21,-2.8000000000000003,0.109,-0.134,99.99,5.0,,0.0,0.0,186.51
2025-08-15T00:53:52.408Z,3,GR86-047-21,-2.8000000000000003,0.143,-0.13,100.0,5.0,,0.0,0.0,
2025-08-15T00:53:52.452Z,3,GR86-047-21,-2.8000000000000003,0.125,-0.163,99.99,5.0,,0.0,0.0,
2025-08-15T00:53:52.496Z,3,GR86-047-21,-2.8000000000000003,0.104,-0.139,99.99,5.0,,0.0,0.0,
2025-08-15T00:53:52.538Z,3,GR86-047-21,-2.8000000000000003,0.103,-0.132,99.99,5.0,6347.0,0.0,0.0,
2025-08-15T00:53:52.581Z,3,GR86-047-21,-2.8000000000000003,0.124,-0.123,100.0,5.0,,0.0,0.0,187.2
2025-08-15T00:53:52.625Z,3,GR86-047-21,-2.8000000000000003,0.091,-0.112,100.0,5.0,,0.0,0.0,
2025-08-15T00:53:52.668Z,3,GR86-047-21,-2.8000000000000003,0.097,-0.13,99.99,5.0,,0.0,0.0,
2025-08-15T00:53:52.711Z,3,GR86-047-21,-2.8000000000000003,0.108,-0.113,100.0,5.0,,0.0,0.0,
2025-08-15T00:53:52.755Z,3,GR86-047-21,-2.8000000000000003,0.105,-0.111,100.0,5.0,6380.0,0.0,0.0,
2025-08-15T00:53:52.798Z,3,GR86-047-21,-2.8000000000000003,0.094,-0.119,99.98,5.0,,0.0,0.0,187.96
2025-08-15T00:53:52.841Z,3,GR86-047-21,-2.8000000000000003,0.126,-0.15,100.0,5.0,,0.0,0.0,
2025-08-15T00:53:52.885Z,3,GR86-047-21,-2.8000000000000003,0.065,-0.202,100.01,5.0,,0.0,0.0,
2025-08-15T00:53:52.928Z,3,GR86-047-21,-2.8000000000000003,0.083,-0.19,99.98,5.0,,0.0,0.0,
2025-08-15T00:53:52.971Z,3,GR86-047-21,-2.9000000000000004,0.066,-0.198,100.0,5.0,6417.0,0.0,0.0,
2025-08-15T00:53:53.015Z,3,GR86-047-21,-2.9000000000000004,0.075,-0.229,100.01,5.0,,0.0,0.0,188.81
2025-08-15T00:53:53.057Z,3,GR86-047-21,-2.9000000000000004,0.089,-0.244,99.99,5.0,,0.0,0.0,
2025-08-15T00:53:53.101Z,3,GR86-047-21,-2.9000000000000004,0.085,-0.26,100.0,5.0,,0.0,0.0,
2025-08-15T00:53:53.144Z,3,GR86-047-21,-2.9000000000000004,0.086,-0.275,100.01,5.0,,0.0,0.0,
2025-08-15T00:53:53.186Z,3,GR86-047-21,-2.9000000000000004,0.079,-0.233,99.99,5.0,6444.0,0.0,0.0,
2025-08-15T00:53:53.229Z,3,GR86-047-21,-2.9000000000000004,0.078,-0.256,100.01,5.0,,0.0,0.0,189.64
2025-08-15T00:53:53.272Z,3,GR86-047-21,-2.9000000000000004,0.092,-0.244,100.01,5.0,,0.0,0.0,
2025-08-15T00:53:53.315Z,3,GR86-047-21,-2.9000000000000004,0.076,-0.221,99.98,5.0,,0.0,0.0,
2025-08-15T00:53:53.358Z,3,GR86-047-21,-2.9000000000000004,0.072,-0.217,99.99,5.0,,0.0,0.0,
2025-08-15T00:53:53.401Z,3,GR86-047-21,-2.9000000000000004,0.076,-0.181,100.01,5.0,6476.0,0.0,0.0,
2025-08-15T00:53:53.445Z,3,GR86-047-21,-2.9000000000000004,0.094,-0.168,100.01,5.0,,0.0,0.0,190.37
2025-08-15T00:53:53.488Z,3,GR86-047-21,-2.9000000000000004,0.083,-0.159,100.0,5.0,,0.0,0.0,
2025-08-15T00:53:53.531Z,3,GR86-047-21,-2.9000000000000004,0.089,-0.134,99.98,5.0,,0.0,0.0,
2025-08-15T00:53:53.575Z,3,GR86-047-21,-2.9000000000000004,0.085,-0.149,100.0,5.0,,0.0,0.0,
2025-08-15T00:53:53.618Z,3,GR86-047-21,-2.9000000000000004,0.057,-0.122,100.01,5.0,6501.0,0.0,0.0,
2025-08-15T00:53:53.660Z,3,GR86-047-21,-2.7,0.1,-0.134,100.0,5.0,,0.0,0.0,191.2
2025-08-15T00:53:53.704Z,3,GR86-047-21,-2.3000000000000003,0.109,-0.115,100.01,5.0,,0.0,0.0,
2025-08-15T00:53:53.746Z,3,GR86-047-21,-2.0,0.093,-0.096,99.99,5.0,,0.0,0.0,
2025-08-15T00:53:53.789Z,3,GR86-047-21,-1.6,0.093,-0.112,100.01,5.0,,0.0,0.0,
2025-08-15T00:53:53.832Z,3,GR86-047-21,-1.5,0.101,-0.08,100.0,5.0,6523.0,0.0,0.0,
2025-08-15T00:53:53.875Z,3,GR86-047-21,-1.5,0.095,-0.085,100.0,5.0,,0.0,0.0,192.04
2025-08-15T00:53:53.918Z,3,GR86-047-21,-1.5,0.095,-0.1,100.01,5.0,,0.0,0.0,
2025-08-15T00:53:53.961Z,3,GR86-047-21,-1.5,0.078,-0.082,99.99,5.0,,0.0,0.0,
2025-08-15T00:53:54.005Z,3,GR86-047-21,-1.5,0.09,-0.075,99.99,5.0,,0.0,0.0,
2025-08-15T00:53:54.048Z,3,GR86-047-21,-1.5,0.093,-0.055,99.99,5.0,6548.0,0.0,0.0,
2025-08-15T00:53:54.092Z,3,GR86-047-21,-1.5,0.105,-0.079,100.0,5.0,,0.0,0.0,193.57
2025-08-15T00:53:54.135Z,3,GR86-047-21,-1.5,0.094,-0.096,99.99,5.0,,0.0,0.0,
2025-08-15T00:53:54.177Z,3,GR86-047-21,-1.5,0.093,-0.061,100.01,5.0,,0.0,0.0,
2025-08-15T00:53:54.220Z,3,GR86-047-21,-1.5,0.087,-0.073,100.0,5.0,,0.0,0.0,
2025-08-15T00:53:54.264Z,3,GR86-047-21,-1.4,0.073,-0.073,100.01,5.0,6575.0,0.0,0.0,
2025-08-15T00:53:54.306Z,3,GR86-047-21,-1.4,0.105,-0.098,100.0,5.0,,0.0,0.0,194.32
2025-08-15T00:53:54.349Z,3,GR86-047-21,-1.4,0.085,-0.086,100.0,5.0,,0.0,0.0,
2025-08-15T00:53:54.392Z,3,GR86-047-21,-1.4,0.095,-0.05,99.99,5.0,,0.0,0.0,
2025-08-15T00:53:54.436Z,3,GR86-047-21,-1.4,0.088,-0.074,99.99,5.0,,0.0,0.0,
2025-08-15T00:53:54.478Z,3,GR86-047-21,-1.0,0.101,-0.067,100.0,5.0,6603.0,0.0,0.0,
2025-08-15T00:53:54.521Z,3,GR86-047-21,-0.7000000000000001,0.096,-0.085,99.99,5.0,,0.0,0.0,195.12
2025-08-15T00:53:54.565Z,3,GR86-047-21,-0.6000000000000001,0.094,-0.055,99.98,5.0,,0.0,0.0,
2025-08-15T00:53:54.608Z,3,GR86-047-21,-0.6000000000000001,0.083,-0.058,99.98,5.0,,0.0,0.0,
2025-08-15T00:53:54.652Z,3,GR86-047-21,-0.6000000000000001,0.081,-0.058,99.99,5.0,,0.0,0.0,
2025-08-15T00:53:54.695Z,3,GR86-047-21,-0.6000000000000001,0.099,-0.081,100.0,5.0,6655.0,0.0,0.0,
2025-08-15T00:53:54.738Z,3,GR86-047-21,-0.6000000000000001,0.096,-0.076,100.02,5.0,,0.0,0.0,195.81
2025-08-15T00:53:54.781Z,3,GR86-047-21,-0.6000000000000001,0.096,-0.071,100.0,5.0,,0.0,0.0,
2025-08-15T00:53:54.826Z,3,GR86-047-21,-0.6000000000000001,0.08,-0.034,99.99,5.0,,0.0,0.0,
2025-08-15T00:53:54.868Z,3,GR86-047-21,-0.6000000000000001,0.091,-0.03,99.99,5.0,,0.0,0.0,
2025-08-15T00:53:54.912Z,3,GR86-047-21,-0.6000000000000001,0.085,-0.082,99.99,5.0,6678.0,0.0,0.0,
2025-08-15T00:53:54.955Z,3,GR86-047-21,-0.6000000000000001,0.098,-0.103,99.99,5.0,,0.0,0.0,196.68
2025-08-15T00:53:54.998Z,3,GR86-047-21,-0.6000000000000001,0.109,-0.11,100.01,5.0,,0.0,0.0,
2025-08-15T00:53:55.041Z,3,GR86-047-21,-0.6000000000000001,0.082,-0.109,100.0,5.0,,0.0,0.0,
2025-08-15T00:53:55.086Z,3,GR86-047-21,-0.6000000000000001,0.081,-0.085,100.0,5.0,,0.0,0.0,
2025-08-15T00:53:55.128Z,3,GR86-047-21,-0.6000000000000001,0.079,-0.114,100.02,5.0,6708.0,0.0,0.0,
2025-08-15T00:53:55.171Z,3,GR86-047-21,-0.6000000000000001,0.094,-0.112,100.02,5.0,,0.0,0.0,197.41
2025-08-15T00:53:55.215Z,3,GR86-047-21,-0.6000000000000001,0.099,-0.121,100.01,5.0,,0.0,0.0,
2025-08-15T00:53:55.257Z,3,GR86-047-21,-0.6000000000000001,0.101,-0.105,99.99,5.0,,0.0,0.0,
2025-08-15T00:53:55.300Z,3,GR86-047-21,-0.6000000000000001,0.096,-0.075,100.0,5.0,,0.0,0.0,
2025-08-15T00:53:55.344Z,3,GR86-047-21,-0.6000000000000001,0.084,-0.065,100.0,5.0,6732.0,0.0,0.0,
2025-08-15T00:53:55.388Z,3,GR86-047-21,-0.6000000000000001,0.091,-0.105,99.99,5.0,,0.0,0.0,198.26
2025-08-15T00:53:55.432Z,3,GR86-047-21,-0.3,0.097,-0.072,100.0,5.0,,0.0,0.0,
2025-08-15T00:53:55.475Z,3,GR86-047-21,-0.2,0.099,-0.079,100.0,5.0,,0.0,0.0,
2025-08-15T00:53:55.518Z,3,GR86-047-21,-0.2,0.084,-0.059,99.98,5.0,,0.0,0.0,
2025-08-15T00:53:55.561Z,3,GR86-047-21,-0.2,0.088,-0.03,99.98,5.0,6754.0,0.0,0.0,
2025-08-15T00:53:55.605Z,3,GR86-047-21,-0.2,0.093,-0.053,100.01,5.0,,0.0,0.0,198.98
2025-08-15T00:53:55.648Z,3,GR86-047-21,-0.2,0.096,-0.021,100.02,5.0,,0.0,0.0,
2025-08-15T00:53:55.692Z,3,GR86-047-21,-0.2,0.105,-0.041,100.01,5.0,,0.0,0.0,
2025-08-15T00:53:55.735Z,3,GR86-047-21,-0.2,0.073,0.004,99.99,5.0,,0.0,0.0,
2025-08-15T00:53:55.778Z,3,GR86-047-21,-0.2,0.088,-0.017,99.99,5.0,6776.0,0.0,0.0,
2025-08-15T00:53:55.821Z,3,GR86-047-21,-0.2,0.066,-0.025,99.99,5.0,,0.0,0.0,199.63
2025-08-15T00:53:55.865Z,3,GR86-047-21,-0.2,0.072,-0.075,100.0,5.0,,0.0,0.0,
2025-08-15T00:53:55.908Z,3,GR86-047-21,-0.2,0.092,-0.064,100.01,5.0,,0.0,0.0,
2025-08-15T00:53:55.952Z,3,GR86-047-21,-0.2,0.061,-0.047,99.99,5.0,,0.0,0.0,
2025-08-15T00:53:55.995Z,3,GR86-047-21,-0.2,0.082,-0.089,99.98,5.0,6808.0,0.0,0.0,
2025-08-15T00:53:56.038Z,3,GR86-047-21,-0.2,0.068,-0.122,99.99,5.0,,0.0,0.0,200.33
2025-08-15T00:53:56.080Z,3,GR86-047-21,-0.2,0.084,-0.121,100.0,5.0,,0.0,0.0,
2025-08-15T00:53:56.124Z,3,GR86-047-21,-0.2,0.084,-0.13,99.98,5.0,,0.0,0.0,
2025-08-15T00:53:56.166Z,3,GR86-047-21,-0.2,0.077,-0.118,100.02,5.0,,0.0,0.0,
2025-08-15T00:53:56.209Z,3,GR86-047-21,-0.2,0.067,-0.131,99.99,5.0,6827.0,0.0,0.0,
2025-08-15T00:53:56.252Z,3,GR86-047-21,-0.2,0.095,-0.16,99.99,5.0,,0.0,0.0,201.12
2025-08-15T00:53:56.296Z,3,GR86-047-21,-0.2,0.085,-0.141,99.99,5.0,,0.0,0.0,
2025-08-15T00:53:56.338Z,3,GR86-047-21,-0.2,0.115,-0.148,100.0,5.0,,0.0,0.0,
2025-08-15T00:53:56.381Z,3,GR86-047-21,-0.2,0.106,-0.134,99.99,5.0,,0.0,0.0,
2025-08-15T00:53:56.425Z,3,GR86-047-21,-0.2,0.092,-0.129,100.0,5.0,6857.0,0.0,0.0,
2025-08-15T00:53:56.468Z,3,GR86-047-21,-0.2,0.097,-0.134,100.02,5.0,,0.0,0.0,201.81
2025-08-15T00:53:56.511Z,3,GR86-047-21,-0.2,0.105,-0.105,100.0,5.0,,0.0,0.0,
2025-08-15T00:53:56.555Z,3,GR86-047-21,-0.2,0.1,-0.086,100.01,5.0,,0.0,0.0,
2025-08-15T00:53:56.598Z,3,GR86-047-21,-0.2,0.105,-0.077,100.0,5.0,,0.0,0.0,
2025-08-15T00:53:56.641Z,3,GR86-047-21,-0.2,0.069,-0.095,100.0,5.0,6879.0,0.0,0.0,
2025-08-15T00:53:56.685Z,3,GR86-047-21,-0.2,0.108,-0.107,99.99,5.0,,0.0,0.0,203.23
2025-08-15T00:53:56.728Z,3,GR86-047-21,-0.2,0.088,-0.126,100.02,5.0,,0.0,0.0,
2025-08-15T00:53:56.771Z,3,GR86-047-21,-0.2,0.081,-0.141,100.01,5.0,,0.0,0.0,
2025-08-15T00:53:56.815Z,3,GR86-047-21,-0.2,0.071,-0.137,100.0,5.0,,0.0,0.0,
2025-08-15T00:53:56.857Z,3,GR86-047-21,-0.2,0.05,-0.121,99.99,5.0,6900.0,0.0,0.0,
2025-08-15T00:53:56.900Z,3,GR86-047-21,-0.2,0.084,-0.117,100.01,5.0,,0.0,0.0,203.88
2025-08-15T00:53:56.944Z,3,GR86-047-21,-0.2,0.078,-0.116,100.01,5.0,,0.0,0.0,
2025-08-15T00:53:56.986Z,3,GR86-047-21,-0.2,0.062,-0.12,100.0,5.0,,0.0,0.0,
2025-08-15T00:53:57.029Z,3,GR86-047-21,-0.2,0.073,-0.094,100.01,5.0,,0.0,0.0,
2025-08-15T00:53:57.072Z,3,GR86-047-21,-0.2,0.074,-0.089,100.0,5.0,6933.0,0.0,0.0,
2025-08-15T00:53:57.115Z,3,GR86-047-21,-0.2,0.104,-0.063,100.01,5.0,,0.0,0.0,204.73
2025-08-15T00:53:57.158Z,3,GR86-047-21,0.5,0.113,-0.056,100.0,5.0,,0.0,0.0,
2025-08-15T00:53:57.201Z,3,GR86-047-21,1.6,0.095,-0.051,99.98,5.0,,0.0,0.0,
2025-08-15T00:53:57.245Z,3,GR86-047-21,3.9,0.097,0.006,99.98,5.0,,0.0,0.0,
2025-08-15T00:53:57.288Z,3,GR86-047-21,5.1000000000000005,0.102,0.039,100.0,5.0,6979.0,0.0,0.0,
2025-08-15T00:53:57.331Z,3,GR86-047-21,5.7,0.1,0.038,100.0,5.0,,0.0,0.0,205.55
2025-08-15T00:53:57.375Z,3,GR86-047-21,6.2,0.083,0.069,100.0,5.0,,0.0,0.0,
2025-08-15T00:53:57.418Z,3,GR86-047-21,6.6000000000000005,0.068,0.121,100.01,5.0,,0.0,0.0,
2025-08-15T00:53:57.461Z,3,GR86-047-21,6.7,0.088,0.18,100.0,5.0,,0.0,0.0,
2025-08-15T00:53:57.505Z,3,GR86-047-21,6.800000000000001,0.095,0.199,99.99,5.0,7001.0,0.0,0.0,
2025-08-15T00:53:57.548Z,3,GR86-047-21,6.800000000000001,0.07,0.204,99.99,5.0,,0.0,0.0,206.19
2025-08-15T00:53:57.591Z,3,GR86-047-21,6.800000000000001,0.066,0.233,100.0,5.0,,0.0,0.0,
2025-08-15T00:53:57.635Z,3,GR86-047-21,6.800000000000001,0.078,0.237,99.99,5.0,,0.0,0.0,
2025-08-15T00:53:57.678Z,3,GR86-047-21,6.800000000000001,0.089,0.237,100.0,5.0,,0.0,0.0,
2025-08-15T00:53:57.721Z,3,GR86-047-21,6.800000000000001,0.079,0.246,99.98,5.0,7029.0,0.0,0.0,
2025-08-15T00:53:57.765Z,3,GR86-047-21,7.7,0.078,0.239,100.01,5.0,,0.0,0.0,207.1
2025-08-15T00:53:57.808Z,3,GR86-047-21,8.6,0.088,0.271,100.0,5.0,,0.0,0.0,
2025-08-15T00:53:57.852Z,3,GR86-047-21,9.1,0.102,0.255,99.98,5.0,,0.0,0.0,
2025-08-15T00:53:57.896Z,3,GR86-047-21,9.3,0.096,0.281,100.01,5.0,,0.0,0.0,
2025-08-15T00:53:57.938Z,3,GR86-047-21,9.3,0.083,0.295,99.98,5.0,7057.0,0.0,0.0,
2025-08-15T00:53:57.981Z,3,GR86-047-21,9.4,0.03,0.306,100.0,5.0,,0.0,0.0,207.78
2025-08-15T00:53:58.025Z,3,GR86-047-21,9.4,0.084,0.311,100.0,5.0,,0.0,0.0,
2025-08-15T00:53:58.068Z,3,GR86-047-21,9.4,0.066,0.352,99.99,5.0,,0.0,0.0,
2025-08-15T00:53:58.112Z,3,GR86-047-21,9.4,0.053,0.339,100.0,5.0,,0.0,0.0,
2025-08-15T00:53:58.155Z,3,GR86-047-21,9.4,0.046,0.355,99.97,5.0,7078.0,0.0,0.0,
2025-08-15T00:53:58.198Z,3,GR86-047-21,9.4,0.081,0.344,100.0,5.0,,0.0,0.0,208.48
2025-08-15T00:53:58.241Z,3,GR86-047-21,9.4,0.091,0.327,99.99,5.0,,0.0,0.0,
2025-08-15T00:53:58.285Z,3,GR86-047-21,9.3,0.054,0.313,100.0,5.0,,0.0,0.0,
2025-08-15T00:53:58.328Z,3,GR86-047-21,9.3,0.065,0.32,99.99,5.0,,0.0,0.0,
2025-08-15T00:53:58.371Z,3,GR86-047-21,9.3,0.106,0.318,100.01,5.0,7104.0,0.0,0.0,
2025-08-15T00:53:58.416Z,3,GR86-047-21,9.2,0.098,0.32,100.0,5.0,,0.0,0.0,209.07
2025-08-15T00:53:58.458Z,3,GR86-047-21,10.3,0.061,0.343,100.02,5.0,,0.0,0.0,
2025-08-15T00:53:58.501Z,3,GR86-047-21,11.0,0.034,0.327,99.98,5.0,,0.0,0.0,
2025-08-15T00:53:58.545Z,3,GR86-047-21,11.0,0.078,0.337,100.01,5.0,,0.0,0.0,
2025-08-15T00:53:58.588Z,3,GR86-047-21,11.0,0.062,0.339,100.0,5.0,7130.0,0.0,0.0,
2025-08-15T00:53:58.631Z,3,GR86-047-21,10.9,0.04,0.355,100.02,5.0,,0.0,0.0,209.54
2025-08-15T00:53:58.675Z,3,GR86-047-21,10.9,0.074,0.372,99.99,5.0,,0.0,0.0,
2025-08-15T00:53:58.718Z,3,GR86-047-21,10.9,0.057,0.385,100.0,5.0,,0.0,0.0,
2025-08-15T00:53:58.760Z,3,GR86-047-21,10.8,0.089,0.378,99.98,5.0,,0.0,0.0,
2025-08-15T00:53:58.804Z,3,GR86-047-21,10.8,0.044,0.404,100.01,5.0,7139.0,0.0,0.0,
2025-08-15T00:53:58.848Z,3,GR86-047-21,10.8,0.077,0.402,99.99,5.0,,0.0,0.0,210.29
2025-08-15T00:53:58.892Z,3,GR86-047-21,10.8,0.089,0.381,100.01,5.0,,0.0,0.0,
2025-08-15T00:53:58.935Z,3,GR86-047-21,10.8,0.049,0.386,99.99,5.0,,0.0,0.0,
2025-08-15T00:53:58.977Z,3,GR86-047-21,10.8,0.038,0.386,100.0,5.0,,0.0,0.0,
2025-08-15T00:53:59.020Z,3,GR86-047-21,10.8,0.033,0.381,99.99,5.0,7157.0,0.0,0.0,
2025-08-15T00:53:59.064Z,3,GR86-047-21,10.7,0.057,0.356,100.0,5.0,,0.0,0.0,210.92
2025-08-15T00:53:59.106Z,3,GR86-047-21,10.7,0.028,0.363,100.0,5.0,,0.0,0.0,
2025-08-15T00:53:59.149Z,3,GR86-047-21,10.7,0.049,0.396,99.99,5.0,,0.0,0.0,
2025-08-15T00:53:59.192Z,3,GR86-047-21,10.7,0.075,0.365,100.0,5.0,,0.0,0.0,
2025-08-15T00:53:59.235Z,3,GR86-047-21,10.7,0.064,0.355,99.98,5.0,7174.0,0.0,0.0,
2025-08-15T00:53:59.278Z,3,GR86-047-21,10.7,0.075,0.332,100.0,5.0,,0.0,0.0,211.44
2025-08-15T00:53:59.321Z,3,GR86-047-21,10.7,0.062,0.313,94.62,5.0,,0.0,0.0,
2025-08-15T00:53:59.365Z,3,GR86-047-21,10.7,0.077,0.341,73.24,5.0,,0.0,0.0,
2025-08-15T00:53:59.408Z,3,GR86-047-21,10.7,0.057,0.357,57.16,5.0,,0.0,0.0,
2025-08-15T00:53:59.451Z,3,GR86-047-21,10.7,0.039,0.377,46.62,5.0,7198.0,0.0,0.0,
2025-08-15T00:53:59.495Z,3,GR86-047-21,10.7,0.005,0.397,45.93,5.0,,0.0,0.0,212.28
2025-08-15T00:53:59.538Z,3,GR86-047-21,10.7,0.023,0.393,46.69,5.0,,0.0,0.0,
2025-08-15T00:53:59.581Z,3,GR86-047-21,10.7,0.013,0.385,46.05,5.0,,0.0,0.0,
2025-08-15T00:53:59.626Z,3,GR86-047-21,10.7,0.029,0.365,39.68,5.0,,0.0,0.0,
2025-08-15T00:53:59.668Z,3,GR86-047-21,10.7,0.038,0.318,39.34,5.0,7223.0,0.0,0.0,
2025-08-15T00:53:59.712Z,3,GR86-047-21,10.7,0.021,0.303,39.58,5.0,,0.0,0.0,212.95
2025-08-15T00:53:59.755Z,3,GR86-047-21,10.7,0.028,0.293,39.51,5.0,,0.0,0.0,
2025-08-15T00:53:59.798Z,3,GR86-047-21,10.7,-0.006,0.315,39.73,5.0,,0.0,0.0,
2025-08-15T00:53:59.841Z,3,GR86-047-21,10.7,0.019,0.315,39.96,5.0,,0.0,0.0,
2025-08-15T00:53:59.886Z,3,GR86-047-21,10.6,0.015,0.298,39.92,5.0,7219.0,0.0,0.0,
2025-08-15T00:53:59.928Z,3,GR86-047-21,10.5,-0.012,0.298,40.05,5.0,,0.0,0.0,213.61
2025-08-15T00:53:59.971Z,3,GR86-047-21,10.5,0.013,0.281,40.02,5.0,,0.0,0.0,
2025-08-15T00:54:00.015Z,3,GR86-047-21,10.5,0.033,0.305,39.92,5.0,,0.0,0.0,
2025-08-15T00:54:00.101Z,3,GR86-047-21,10.4,0.022,0.223,38.26,5.0,7240.0,0.0,0.0,
2025-08-15T00:54:00.188Z,3,GR86-047-21,10.5,0.028,0.279,39.64,5.0,,0.0,0.0,213.89
2025-08-15T00:54:00.231Z,3,GR86-047-21,10.3,-0.065,0.167,6.08,5.0,,17.93,17.990000000000002,
2025-08-15T00:54:00.275Z,3,GR86-047-21,10.3,-0.32,0.173,4.09,5.0,,37.325,37.02,
2025-08-15T00:54:00.318Z,3,GR86-047-21,10.3,-0.8220000000000001,0.174,3.79,5.0,7260.0,65.265,64.61,
2025-08-15T00:54:00.360Z,3,GR86-047-21,10.3,-1.123,0.203,3.41,5.0,,86.785,86.19,214.32
2025-08-15T00:54:00.405Z,3,GR86-047-21,9.2,-1.378,0.139,2.88,5.0,,106.455,107.615,
2025-08-15T00:54:00.448Z,3,GR86-047-21,9.0,-1.4,0.171,2.72,5.0,,108.745,110.175,
2025-08-15T00:54:00.492Z,3,GR86-047-21,8.1,-1.428,0.128,2.62,5.0,,109.125,109.69,
2025-08-15T00:54:00.535Z,3,GR86-047-21,5.9,-1.267,0.157,2.57,5.0,7128.0,109.4,110.74,
2025-08-15T00:54:00.577Z,3,GR86-047-21,4.7,-1.413,0.136,2.59,5.0,,109.125,109.81,214.28
2025-08-15T00:54:00.620Z,3,GR86-047-21,4.5,-1.337,0.107,2.56,5.0,,111.03,112.27,
2025-08-15T00:54:00.664Z,3,GR86-047-21,2.5,-1.419,0.075,27.54,5.0,,108.36,109.245,
2025-08-15T00:54:00.708Z,3,GR86-047-21,2.4000000000000004,-1.347,0.023,73.63,5.0,,105.735,107.675,
2025-08-15T00:54:00.752Z,3,GR86-047-21,3.3000000000000003,-1.335,0.015,75.48,4.0,6471.0,103.615,105.46,
2025-08-15T00:54:00.795Z,3,GR86-047-21,3.5,-1.449,0.044,8.42,4.0,,101.295,103.525,205.2
2025-08-15T00:54:00.838Z,3,GR86-047-21,3.6,-1.231,-0.005,3.49,4.0,,88.525,90.705,
2025-08-15T00:54:00.881Z,3,GR86-047-21,5.0,-1.224,0.06,2.75,4.0,,73.17,74.59,
2025-08-15T00:54:00.925Z,3,GR86-047-21,6.7,-1.197,0.02,2.56,4.0,,64.395,65.62,
2025-08-15T00:54:00.968Z,3,GR86-047-21,8.4,-1.134,0.062,2.53,4.0,6401.0,61.115,62.185,
2025-08-15T00:54:01.011Z,3,GR86-047-21,9.9,-1.133,-0.031,2.5,4.0,,56.4,57.27,195.79
2025-08-15T00:54:01.055Z,3,GR86-047-21,10.7,-1.038,0.097,2.5,4.0,,53.425,54.525,
2025-08-15T00:54:01.098Z,3,GR86-047-21,10.8,-0.994,0.109,2.49,4.0,,51.120000000000005,52.405,
2025-08-15T00:54:01.141Z,3,GR86-047-21,10.8,-0.961,0.091,2.49,4.0,,50.405,51.335,
2025-08-15T00:54:01.185Z,3,GR86-047-21,10.8,-1.019,0.181,2.5,4.0,6793.0,54.585,55.15,
2025-08-15T00:54:01.228Z,3,GR86-047-21,10.8,-1.032,0.172,2.49,4.0,,67.525,67.725,184.86
2025-08-15T00:54:01.271Z,3,GR86-047-21,10.4,-1.193,0.237,27.65,4.0,,80.115,80.19,
2025-08-15T00:54:01.315Z,3,GR86-047-21,7.6,-1.223,0.198,74.2,3.0,,88.645,89.545,
2025-08-15T00:54:01.357Z,3,GR86-047-21,5.2,-1.313,0.224,47.66,3.0,,92.58,93.985,
2025-08-15T00:54:01.400Z,3,GR86-047-21,3.8,-1.365,0.207,5.98,3.0,6968.0,94.645,96.49,
2025-08-15T00:54:01.444Z,3,GR86-047-21,3.4000000000000004,-1.38,0.314,3.68,3.0,,95.39,96.9,181.99
2025-08-15T00:54:01.486Z,3,GR86-047-21,3.4000000000000004,-1.277,0.373,3.36,3.0,,92.43,93.5,
2025-08-15T00:54:01.529Z,3,GR86-047-21,3.4000000000000004,-1.268,0.346,3.01,3.0,,93.955,95.51,
2025-08-15T00:54:01.572Z,3,GR86-047-21,3.4000000000000004,-1.153,0.526,2.78,3.0,,93.74,94.965,
2025-08-15T00:54:01.615Z,3,GR86-047-21,3.4000000000000004,-1.196,0.515,2.66,3.0,6599.0,92.52,93.62,
2025-08-15T00:54:01.658Z,3,GR86-047-21,4.1000000000000005,-1.265,0.522,2.62,3.0,,92.065,93.5,175.49
2025-08-15T00:54:01.701Z,3,GR86-047-21,5.800000000000001,-1.037,0.418,2.56,3.0,,93.055,94.675,
2025-08-15T00:54:01.745Z,3,GR86-047-21,11.6,-1.177,0.4,2.5500000000000003,3.0,,91.47,92.34,
2025-08-15T00:54:01.788Z,3,GR86-047-21,12.4,-1.057,0.225,2.56,3.0,,88.555,89.15,
2025-08-15T00:54:01.831Z,3,GR86-047-21,12.3,-1.148,0.134,2.56,3.0,6911.0,91.055,91.53,
2025-08-15T00:54:01.875Z,3,GR86-047-21,13.4,-1.245,0.104,2.5500000000000003,3.0,,93.47,93.925,167.79
2025-08-15T00:54:01.918Z,3,GR86-047-21,14.2,-1.154,-0.011,2.56,3.0,,92.69,93.27,
2025-08-15T00:54:01.961Z,3,GR86-047-21,14.3,-1.278,0.11,2.58,3.0,,94.58,94.995,
2025-08-15T00:54:02.005Z,3,GR86-047-21,14.6,-1.333,0.087,2.62,3.0,,97.59,98.0,
2025-08-15T00:54:02.048Z,3,GR86-047-21,14.8,-1.306,0.177,2.62,3.0,7145.0,98.81,99.235,
2025-08-15T00:54:02.092Z,3,GR86-047-21,14.6,-1.301,0.221,8.52,3.0,,99.055,99.525,152.28
2025-08-15T00:54:02.135Z,3,GR86-047-21,14.5,-1.342,0.222,53.34,3.0,,99.495,99.8,
2025-08-15T00:54:02.178Z,3,GR86-047-21,13.7,-1.313,0.305,97.15,3.0,,100.06,100.18,
2025-08-15T00:54:02.221Z,3,GR86-047-21,10.6,-1.304,0.277,100.18,3.0,,99.465,99.65,
2025-08-15T00:54:02.265Z,3,GR86-047-21,6.1000000000000005,-1.288,0.284,62.41,2.0,6776.0,99.8,99.83,
2025-08-15T00:54:02.308Z,3,GR86-047-21,5.300000000000001,-1.107,0.267,5.82,2.0,,96.61,97.1,143.69
2025-08-15T00:54:02.352Z,3,GR86-047-21,4.3,-1.314,0.284,3.52,2.0,,95.085,95.545,
2025-08-15T00:54:02.396Z,3,GR86-047-21,4.0,-1.419,0.159,3.09,2.0,,97.22,99.02,
2025-08-15T00:54:02.438Z,3,GR86-047-21,4.0,-1.216,0.192,2.88,2.0,,95.025,96.2,
2025-08-15T00:54:02.481Z,3,GR86-047-21,5.1000000000000005,-1.368,0.211,2.85,2.0,6399.0,93.985,94.675,
2025-08-15T00:54:02.525Z,3,GR86-047-21,5.300000000000001,-1.314,0.136,2.81,2.0,,94.705,95.085,135.5
2025-08-15T00:54:02.568Z,3,GR86-047-21,5.300000000000001,-1.348,0.16,2.72,2.0,,91.44,92.245,
2025-08-15T00:54:02.612Z,3,GR86-047-21,5.300000000000001,-1.235,0.074,2.65,2.0,,78.08500000000001,79.84,
2025-08-15T00:54:02.655Z,3,GR86-047-21,5.300000000000001,-1.181,0.082,2.59,2.0,,65.925,68.15,
2025-08-15T00:54:02.698Z,3,GR86-047-21,5.300000000000001,-1.075,0.082,2.54,2.0,6765.0,59.055,61.025,
2025-08-15T00:54:02.741Z,3,GR86-047-21,5.800000000000001,-1.09,0.089,2.5500000000000003,2.0,,53.715,55.605,126.54
2025-08-15T00:54:02.785Z,3,GR86-047-21,9.0,-1.021,0.062,2.53,2.0,,50.785,51.775,
2025-08-15T00:54:02.828Z,3,GR86-047-21,11.8,-1.014,0.103,2.51,2.0,,51.245000000000005,52.05,
2025-08-15T00:54:02.871Z,3,GR86-047-21,15.6,-1.011,0.117,2.5,2.0,,51.245000000000005,52.28,
2025-08-15T00:54:02.915Z,3,GR86-047-21,19.1,-1.009,0.194,8.46,2.0,6293.0,52.28,52.83,
2025-08-15T00:54:02.958Z,3,GR86-047-21,21.700000000000003,-1.061,0.261,53.32,2.0,,53.61,54.08,117.54
2025-08-15T00:54:03.001Z,3,GR86-047-21,22.3,-1.052,0.299,93.23,1.0,,58.215,58.43,
2025-08-15T00:54:03.045Z,3,GR86-047-21,22.3,-1.248,0.315,7.42,1.0,,65.58500000000001,66.61,
2025-08-15T00:54:03.088Z,3,GR86-047-21,21.8,-1.358,0.312,3.36,1.0,,67.815,69.435,
2025-08-15T00:54:03.131Z,3,GR86-047-21,18.9,-1.27,0.45,2.78,1.0,6035.0,62.84,64.185,
2025-08-15T00:54:03.175Z,3,GR86-047-21,16.6,-1.059,0.446,2.62,1.0,,47.275,48.65,111.1
2025-08-15T00:54:03.218Z,3,GR86-047-21,15.9,-0.99,0.46,2.53,1.0,,41.995,43.14,
2025-08-15T00:54:03.260Z,3,GR86-047-21,16.8,-0.769,0.674,2.49,1.0,,38.685,39.815,
2025-08-15T00:54:03.304Z,3,GR86-047-21,29.700000000000003,-0.932,0.657,2.46,1.0,,34.305,34.99,
2025-08-15T00:54:03.346Z,3,GR86-047-21,37.0,-0.84,0.8240000000000001,2.43,1.0,6107.0,35.085,36.335,
2025-08-15T00:54:03.389Z,3,GR86-047-21,40.0,-0.8140000000000001,0.632,2.43,1.0,,31.175,32.230000000000004,104.71
2025-08-15T00:54:03.432Z,3,GR86-047-21,40.3,-0.725,0.853,2.42,1.0,,24.02,24.92,
2025-08-15T00:54:03.475Z,3,GR86-047-21,40.3,-0.596,0.804,2.43,1.0,,18.92,20.05,
2025-08-15T00:54:03.518Z,3,GR86-047-21,42.900000000000006,-0.54,0.7000000000000001,2.43,1.0,,14.635,15.685,
2025-08-15T00:54:03.561Z,3,GR86-047-21,50.7,-0.48,0.779,2.43,1.0,6543.0,13.37,14.27,
2025-08-15T00:54:03.605Z,3,GR86-047-21,64.60000000000001,-0.472,0.847,2.43,1.0,,14.36,14.97,98.2
2025-08-15T00:54:03.648Z,3,GR86-047-21,68.3,-0.469,0.889,2.43,1.0,,15.625,16.115000000000002,
2025-08-15T00:54:03.691Z,3,GR86-047-21,68.4,-0.448,0.941,2.43,1.0,,17.990000000000002,18.325,
2025-08-15T00:54:03.735Z,3,GR86-047-21,66.9,-0.497,0.973,2.43,1.0,,19.015,19.61,
2025-08-15T00:54:03.778Z,3,GR86-047-21,62.8,-0.514,0.947,2.46,1.0,6436.0,19.075,19.825,
2025-08-15T00:54:03.821Z,3,GR86-047-21,62.1,-0.531,0.916,2.46,1.0,,17.55,18.36,92.02
2025-08-15T00:54:03.865Z,3,GR86-047-21,62.7,-0.4,0.98,2.56,1.0,,12.955,13.995,
2025-08-15T00:54:03.908Z,3,GR86-047-21,65.2,-0.404,0.998,2.53,1.0,,13.015,13.765,
2025-08-15T00:54:03.951Z,3,GR86-047-21,65.5,-0.428,1.037,2.53,1.0,,12.36,13.045,
2025-08-15T00:54:03.995Z,3,GR86-047-21,62.7,-0.409,0.984,2.53,1.0,6235.0,7.645,8.27,
2025-08-15T00:54:04.038Z,3,GR86-047-21,58.400000000000006,-0.295,1.047,2.53,1.0,,0.0,2.335,88.22
2025-08-15T00:54:04.081Z,3,GR86-047-21,57.900000000000006,-0.179,1.057,2.53,1.0,,0.0,0.0,
2025-08-15T00:54:04.126Z,3,GR86-047-21,58.5,-0.202,1.047,2.53,1.0,,0.0,0.0,
2025-08-15T00:54:04.168Z,3,GR86-047-21,64.4,-0.205,1.051,2.53,1.0,,0.0,0.0,
2025-08-15T00:54:04.211Z,3,GR86-047-21,71.8,-0.194,1.044,4.34,1.0,5901.0,0.0,0.0,
2025-08-15T00:54:04.298Z,3,GR86-047-21,78.9,-0.167,1.141,24.03,1.0,,0.0,0.0,85.28
2025-08-15T00:54:04.340Z,3,GR86-047-21,79.0,-0.188,1.163,28.69,1.0,,0.0,0.0,
2025-08-15T00:54:04.385Z,3,GR86-047-21,79.0,-0.081,1.102,31.53,1.0,,0.0,0.0,
2025-08-15T00:54:04.428Z,3,GR86-047-21,79.0,-0.115,1.092,32.34,1.0,5711.0,0.0,0.0,
2025-08-15T00:54:04.472Z,3,GR86-047-21,79.0,0.019,1.075,32.3,1.0,,0.0,0.0,82.25
2025-08-15T00:54:04.515Z,3,GR86-047-21,79.5,0.259,1.071,31.99,1.0,,0.0,0.0,
2025-08-15T00:54:04.557Z,3,GR86-047-21,82.60000000000001,0.271,1.112,29.5,1.0,,0.0,0.0,
2025-08-15T00:54:04.600Z,3,GR86-047-21,85.4,0.307,1.077,29.0,1.0,,0.0,0.0,
2025-08-15T00:54:04.644Z,3,GR86-047-21,87.60000000000001,0.245,1.133,28.88,1.0,5671.0,0.0,0.0,
2025-08-15T00:54:04.688Z,3,GR86-047-21,88.4,0.163,1.13,30.25,1.0,,0.0,0.0,79.39
2025-08-15T00:54:04.731Z,3,GR86-047-21,89.30000000000001,0.089,1.216,31.65,1.0,,0.0,0.0,
2025-08-15T00:54:04.775Z,3,GR86-047-21,91.7,0.089,1.199,32.46,1.0,,0.0,0.0,
2025-08-15T00:54:04.818Z,3,GR86-047-21,96.1,0.122,1.154,32.61,1.0,,0.0,0.0,
2025-08-15T00:54:04.860Z,3,GR86-047-21,100.5,0.175,1.096,32.63,1.0,6177.0,0.0,0.0,
2025-08-15T00:54:04.904Z,3,GR86-047-21,103.7,0.222,1.059,32.44,1.0,,0.0,0.0,79.65
2025-08-15T00:54:04.946Z,3,GR86-047-21,104.0,0.141,1.179,32.38,1.0,,0.0,0.0,
2025-08-15T00:54:04.989Z,3,GR86-047-21,104.1,0.173,0.977,32.44,1.0,,0.0,0.0,
2025-08-15T00:54:05.032Z,3,GR86-047-21,104.2,0.222,1.157,32.47,1.0,,0.0,0.0,
2025-08-15T00:54:05.075Z,3,GR86-047-21,103.8,0.232,1.038,32.35,1.0,5945.0,0.0,0.0,
2025-08-15T00:54:05.118Z,3,GR86-047-21,102.7,0.145,0.987,32.45,1.0,,0.0,0.0,80.72
2025-08-15T00:54:05.161Z,3,GR86-047-21,101.9,0.063,1.067,32.56,1.0,,0.0,0.0,
2025-08-15T00:54:05.205Z,3,GR86-047-21,101.7,0.21,1.022,32.57,1.0,,0.0,0.0,
2025-08-15T00:54:05.248Z,3,GR86-047-21,101.2,0.036,1.086,32.55,1.0,,0.0,0.0,
2025-08-15T00:54:05.291Z,3,GR86-047-21,101.1,0.139,1.464,32.57,1.0,6191.0,0.0,0.0,
2025-08-15T00:54:05.335Z,3,GR86-047-21,100.7,0.358,1.185,32.77,1.0,,0.0,0.0,81.49
2025-08-15T00:54:05.378Z,3,GR86-047-21,99.1,0.088,1.175,33.76,1.0,,0.0,0.0,
2025-08-15T00:54:05.421Z,3,GR86-047-21,98.2,0.201,1.235,35.31,1.0,,0.0,0.0,
2025-08-15T00:54:05.465Z,3,GR86-047-21,97.7,0.237,1.072,54.93,1.0,,0.0,0.0,
2025-08-15T00:54:05.508Z,3,GR86-047-21,96.8,0.074,0.879,52.61,1.0,6514.0,0.0,0.0,
2025-08-15T00:54:05.552Z,3,GR86-047-21,94.7,-0.006,1.168,53.91,1.0,,0.0,0.0,82.55
2025-08-15T00:54:05.596Z,3,GR86-047-21,90.9,0.331,1.328,52.38,1.0,,0.0,0.0,
2025-08-15T00:54:05.638Z,3,GR86-047-21,85.10000000000001,0.306,1.35,51.65,1.0,,0.0,0.0,
2025-08-15T00:54:05.681Z,3,GR86-047-21,77.80000000000001,0.423,1.183,50.53,1.0,,0.0,0.0,
2025-08-15T00:54:05.725Z,3,GR86-047-21,67.5,0.36,1.224,53.42,1.0,6438.0,0.0,0.0,
2025-08-15T00:54:05.768Z,3,GR86-047-21,60.8,0.283,1.008,50.81,1.0,,0.0,0.0,83.91
2025-08-15T00:54:05.812Z,3,GR86-047-21,55.5,0.283,1.019,56.32,1.0,,0.0,0.0,
2025-08-15T00:54:05.855Z,3,GR86-047-21,52.0,0.255,1.146,74.89,1.0,,0.0,0.0,
2025-08-15T00:54:05.898Z,3,GR86-047-21,51.6,0.293,1.057,94.09,1.0,,0.0,0.0,
2025-08-15T00:54:05.941Z,3,GR86-047-21,51.6,0.269,1.107,99.97,1.0,6594.0,0.0,0.0,
2025-08-15T00:54:05.985Z,3,GR86-047-21,51.6,0.321,1.111,100.14,1.0,,0.0,0.0,84.41
2025-08-15T00:54:06.028Z,3,GR86-047-21,51.2,0.354,1.03,100.16,1.0,,0.0,0.0,
2025-08-15T00:54:06.071Z,3,GR86-047-21,46.5,0.333,1.078,100.17,1.0,,0.0,0.0,
2025-08-15T00:54:06.115Z,3,GR86-047-21,42.900000000000006,0.345,1.013,100.15,1.0,,0.0,0.0,
2025-08-15T00:54:06.157Z,3,GR86-047-21,42.2,0.338,1.04,100.15,1.0,6676.0,0.0,0.0,
2025-08-15T00:54:06.200Z,3,GR86-047-21,42.2,0.349,1.069,100.16,1.0,,0.0,0.0,86.5
2025-08-15T00:54:06.244Z,3,GR86-047-21,41.1,0.329,1.082,100.14,1.0,,0.0,0.0,
2025-08-15T00:54:06.286Z,3,GR86-047-21,38.6,0.388,1.062,100.13,1.0,,0.0,0.0,
2025-08-15T00:54:06.329Z,3,GR86-047-21,36.1,0.362,1.075,100.13,1.0,,0.0,0.0,
2025-08-15T00:54:06.415Z,3,GR86-047-21,34.300000000000004,0.362,1.011,100.12,1.0,6843.0,0.0,0.0,88.11
2025-08-15T00:54:06.458Z,3,GR86-047-21,34.800000000000004,0.382,0.992,100.11,1.0,,0.0,0.0,
2025-08-15T00:54:06.501Z,3,GR86-047-21,39.8,0.375,0.981,100.1,1.0,,0.0,0.0,
2025-08-15T00:54:06.545Z,3,GR86-047-21,45.7,0.334,0.938,100.12,1.0,,0.0,0.0,
2025-08-15T00:54:06.588Z,3,GR86-047-21,47.0,0.327,0.928,100.12,1.0,7002.0,0.0,0.0,
2025-08-15T00:54:06.631Z,3,GR86-047-21,48.400000000000006,0.31,0.931,100.11,1.0,,0.0,0.0,90.0
2025-08-15T00:54:06.675Z,3,GR86-047-21,49.900000000000006,0.375,0.906,100.09,1.0,,0.0,0.0,
2025-08-15T00:54:06.718Z,3,GR86-047-21,50.5,0.341,0.631,100.11,1.0,,0.0,0.0,
2025-08-15T00:54:06.761Z,3,GR86-047-21,50.5,0.273,0.525,100.09,1.0,,0.0,0.0,
2025-08-15T00:54:06.805Z,3,GR86-047-21,48.5,0.427,0.586,100.1,1.0,7045.0,0.0,0.0,
2025-08-15T00:54:06.848Z,3,GR86-047-21,43.6,0.189,0.366,100.06,1.0,,0.0,0.0,91.96
2025-08-15T00:54:06.892Z,3,GR86-047-21,35.800000000000004,-0.13,0.749,100.09,2.0,,0.0,0.0,
2025-08-15T00:54:06.935Z,3,GR86-047-21,29.8,0.259,0.485,100.09,2.0,,0.0,0.0,
2025-08-15T00:54:06.978Z,3,GR86-047-21,28.0,0.681,0.527,100.08,2.0,,0.0,0.0,
2025-08-15T00:54:07.021Z,3,GR86-047-21,26.3,0.6890000000000001,0.666,100.07,2.0,7156.0,0.0,0.0,
2025-08-15T00:54:07.065Z,3,GR86-047-21,21.4,-0.041,0.445,100.09,2.0,,0.0,0.0,93.16
2025-08-15T00:54:07.108Z,3,GR86-047-21,17.2,0.134,0.8210000000000001,100.07,2.0,,0.0,0.0,
2025-08-15T00:54:07.152Z,3,GR86-047-21,10.8,0.407,0.8300000000000001,100.05,2.0,,0.0,0.0,
2025-08-15T00:54:07.196Z,3,GR86-047-21,1.7000000000000002,0.412,0.879,100.08,2.0,,0.0,0.0,
2025-08-15T00:54:07.238Z,3,GR86-047-21,-2.2,0.557,1.093,100.09,2.0,6855.0,0.0,0.0,
2025-08-15T00:54:07.281Z,3,GR86-047-21,-4.9,0.458,1.046,100.08,2.0,,0.0,0.0,95.06
2025-08-15T00:54:07.325Z,3,GR86-047-21,-14.4,0.484,1.181,100.04,2.0,,0.0,0.0,
2025-08-15T00:54:07.368Z,3,GR86-047-21,-16.1,0.52,0.834,100.08,2.0,,0.0,0.0,
2025-08-15T00:54:07.412Z,3,GR86-047-21,-11.3,0.436,0.532,100.05,2.0,,0.0,0.0,
2025-08-15T00:54:07.456Z,3,GR86-047-21,1.8,0.379,0.595,100.08,2.0,5847.0,0.0,0.0,
2025-08-15T00:54:07.498Z,3,GR86-047-21,18.9,0.268,0.473,100.05,2.0,,0.0,0.0,100.16
2025-08-15T00:54:07.541Z,3,GR86-047-21,30.700000000000003,0.028,0.206,100.04,2.0,,0.0,0.0,
2025-08-15T00:54:07.585Z,3,GR86-047-21,32.7,0.507,0.222,100.06,2.0,,0.0,0.0,
2025-08-15T00:54:07.628Z,3,GR86-047-21,31.9,0.607,0.22,100.06,2.0,,0.0,0.0,
2025-08-15T00:54:07.672Z,3,GR86-047-21,31.200000000000003,0.5730000000000001,-0.115,100.04,2.0,5967.0,0.0,0.0,
2025-08-15T00:54:07.715Z,3,GR86-047-21,30.200000000000003,0.499,0.1,100.03,2.0,,0.0,0.0,100.45
2025-08-15T00:54:07.758Z,3,GR86-047-21,25.4,0.088,0.147,100.03,2.0,,0.0,0.0,
2025-08-15T00:54:07.801Z,3,GR86-047-21,17.5,-0.13,0.137,100.01,2.0,,0.0,0.0,
2025-08-15T00:54:07.845Z,3,GR86-047-21,10.0,0.429,0.283,100.0,2.0,,0.0,0.0,
2025-08-15T00:54:07.888Z,3,GR86-047-21,6.300000000000001,0.622,0.314,100.0,2.0,6088.0,0.0,0.0,
2025-08-15T00:54:07.931Z,3,GR86-047-21,4.7,0.591,0.333,100.0,2.0,,0.0,0.0,102.06
2025-08-15T00:54:07.975Z,3,GR86-047-21,4.3,0.445,0.311,100.01,2.0,,0.0,0.0,
2025-08-15T00:54:08.018Z,3,GR86-047-21,4.5,0.352,0.166,99.99,2.0,,0.0,0.0,
2025-08-15T00:54:08.060Z,3,GR86-047-21,6.1000000000000005,0.233,0.136,100.0,2.0,,0.0,0.0,
2025-08-15T00:54:08.104Z,3,GR86-047-21,7.4,0.47,0.138,100.0,2.0,6173.0,0.0,0.0,
2025-08-15T00:54:08.146Z,3,GR86-047-21,6.800000000000001,0.637,0.1,100.01,2.0,,0.0,0.0,104.14
2025-08-15T00:54:08.189Z,3,GR86-047-21,5.5,0.648,0.08,100.0,2.0,,0.0,0.0,
2025-08-15T00:54:08.232Z,3,GR86-047-21,2.9000000000000004,0.653,0.081,100.0,2.0,,0.0,0.0,
2025-08-15T00:54:08.275Z,3,GR86-047-21,0.6000000000000001,0.524,0.089,99.99,2.0,,0.0,0.0,
2025-08-15T00:54:08.318Z,3,GR86-047-21,0.2,0.39,0.109,100.0,2.0,6297.0,0.0,0.0,
2025-08-15T00:54:08.361Z,3,GR86-047-21,0.1,0.356,0.023,100.02,2.0,,0.0,0.0,105.64
2025-08-15T00:54:08.405Z,3,GR86-047-21,-0.2,0.094,0.035,100.01,2.0,,0.0,0.0,
2025-08-15T00:54:08.448Z,3,GR86-047-21,-0.6000000000000001,0.062,-0.065,100.0,2.0,,0.0,0.0,
2025-08-15T00:54:08.491Z,3,GR86-047-21,-1.3,0.146,-0.039,100.01,2.0,,0.0,0.0,
2025-08-15T00:54:08.535Z,3,GR86-047-21,-1.7000000000000002,0.117,-0.113,100.0,2.0,6266.0,0.0,0.0,
2025-08-15T00:54:08.578Z,3,GR86-047-21,-1.8,0.191,-0.079,100.01,2.0,,0.0,0.0,107.35
2025-08-15T00:54:08.621Z,3,GR86-047-21,-1.8,0.15,-0.158,100.01,2.0,,0.0,0.0,
2025-08-15T00:54:08.665Z,3,GR86-047-21,-1.2000000000000002,0.345,-0.137,100.01,2.0,,0.0,0.0,
2025-08-15T00:54:08.708Z,3,GR86-047-21,-0.3,0.334,-0.163,99.98,2.0,,0.0,0.0,
2025-08-15T00:54:08.751Z,3,GR86-047-21,0.3,0.321,-0.176,100.0,2.0,6449.0,0.0,0.0,
2025-08-15T00:54:08.795Z,3,GR86-047-21,0.4,0.315,-0.142,100.01,2.0,,0.0,0.0,109.24
2025-08-15T00:54:08.838Z,3,GR86-047-21,0.4,0.296,-0.158,99.99,2.0,,0.0,0.0,
2025-08-15T00:54:08.881Z,3,GR86-047-21,0.4,0.344,-0.131,100.01,2.0,,0.0,0.0,
2025-08-15T00:54:08.926Z,3,GR86-047-21,0.4,0.23,-0.019,99.99,2.0,,0.0,0.0,
2025-08-15T00:54:08.968Z,3,GR86-047-21,0.4,0.213,-0.051,100.0,2.0,6460.0,0.0,0.0,
2025-08-15T00:54:09.012Z,3,GR86-047-21,0.4,0.192,-0.062,99.99,2.0,,0.0,0.0,110.89
2025-08-15T00:54:09.055Z,3,GR86-047-21,0.5,0.203,-0.021,100.02,2.0,,0.0,0.0,
2025-08-15T00:54:09.098Z,3,GR86-047-21,0.9,0.283,-0.046,99.99,2.0,,0.0,0.0,
2025-08-15T00:54:09.140Z,3,GR86-047-21,0.9,0.313,-0.062,100.0,2.0,,0.0,0.0,
2025-08-15T00:54:09.185Z,3,GR86-047-21,0.9,0.257,-0.071,100.02,2.0,6569.0,0.0,0.0,
2025-08-15T00:54:09.228Z,3,GR86-047-21,0.9,0.216,-0.088,100.0,2.0,,0.0,0.0,112.52
2025-08-15T00:54:09.271Z,3,GR86-047-21,0.9,0.259,-0.095,99.99,2.0,,0.0,0.0,
2025-08-15T00:54:09.315Z,3,GR86-047-21,0.9,0.269,-0.041,100.0,2.0,,0.0,0.0,
2025-08-15T00:54:09.358Z,3,GR86-047-21,0.9,0.276,-0.02,100.02,2.0,,0.0,0.0,
2025-08-15T00:54:09.401Z,3,GR86-047-21,0.9,0.284,-0.02,99.99,2.0,6628.0,0.0,0.0,
2025-08-15T00:54:09.446Z,3,GR86-047-21,0.9,0.253,-0.032,100.02,2.0,,0.0,0.0,114.07
2025-08-15T00:54:09.488Z,3,GR86-047-21,0.9,0.23,-0.016,100.01,2.0,,0.0,0.0,
2025-08-15T00:54:09.531Z,3,GR86-047-21,0.9,0.257,-0.027,100.0,2.0,,0.0,0.0,
2025-08-15T00:54:09.575Z,3,GR86-047-21,0.9,0.292,0.0,100.01,2.0,,0.0,0.0,
2025-08-15T00:54:09.618Z,3,GR86-047-21,0.9,0.28,0.011,99.99,2.0,6711.0,0.0,0.0,
2025-08-15T00:54:09.661Z,3,GR86-047-21,0.9,0.274,-0.006,100.01,2.0,,0.0,0.0,115.46
2025-08-15T00:54:09.705Z,3,GR86-047-21,0.9,0.252,-0.045,100.02,2.0,,0.0,0.0,
2025-08-15T00:54:09.748Z,3,GR86-047-21,0.9,0.269,-0.05,99.99,2.0,,0.0,0.0,
2025-08-15T00:54:09.791Z,3,GR86-047-21,0.8,0.256,-0.033,100.02,2.0,,0.0,0.0,
2025-08-15T00:54:09.835Z,3,GR86-047-21,0.8,0.274,-0.066,100.01,2.0,6772.0,0.0,0.0,
2025-08-15T00:54:09.878Z,3,GR86-047-21,0.8,0.286,-0.039,100.0,2.0,,0.0,0.0,117.12
2025-08-15T00:54:09.921Z,3,GR86-047-21,0.7000000000000001,0.24,-0.043,100.0,2.0,,0.0,0.0,
2025-08-15T00:54:09.965Z,3,GR86-047-21,0.7000000000000001,0.24,-0.057,100.01,2.0,,0.0,0.0,
2025-08-15T00:54:10.008Z,3,GR86-047-21,0.7000000000000001,0.268,-0.067,100.0,2.0,,0.0,0.0,
2025-08-15T00:54:10.052Z,3,GR86-047-21,0.7000000000000001,0.27,-0.055,100.01,2.0,6835.0,0.0,0.0,
2025-08-15T00:54:10.095Z,3,GR86-047-21,0.7000000000000001,0.256,-0.049,100.0,2.0,,0.0,0.0,120.06
2025-08-15T00:54:10.138Z,3,GR86-047-21,0.7000000000000001,0.269,-0.047,100.01,2.0,,0.0,0.0,
2025-08-15T00:54:10.181Z,3,GR86-047-21,0.7000000000000001,0.253,-0.048,100.0,2.0,,0.0,0.0,
2025-08-15T00:54:10.225Z,3,GR86-047-21,0.7000000000000001,0.265,-0.039,100.03,2.0,,0.0,0.0,
2025-08-15T00:54:10.268Z,3,GR86-047-21,0.7000000000000001,0.241,-0.027,100.0,2.0,6915.0,0.0,0.0,
2025-08-15T00:54:10.312Z,3,GR86-047-21,0.7000000000000001,0.282,-0.052,100.0,2.0,,0.0,0.0,121.37
2025-08-15T00:54:10.355Z,3,GR86-047-21,0.7000000000000001,0.263,-0.061,100.0,2.0,,0.0,0.0,
2025-08-15T00:54:10.398Z,3,GR86-047-21,0.6000000000000001,0.227,-0.06,100.0,2.0,,0.0,0.0,
2025-08-15T00:54:10.441Z,3,GR86-047-21,0.5,0.25,-0.086,100.0,2.0,,0.0,0.0,
2025-08-15T00:54:10.485Z,3,GR86-047-21,0.4,0.259,-0.078,100.0,2.0,7071.0,0.0,0.0,
2025-08-15T00:54:10.528Z,3,GR86-047-21,0.3,0.273,-0.097,99.99,2.0,,0.0,0.0,122.58
2025-08-15T00:54:10.571Z,3,GR86-047-21,0.3,0.244,-0.105,99.99,2.0,,0.0,0.0,
2025-08-15T00:54:10.615Z,3,GR86-047-21,0.3,-0.048,-0.1,100.0,3.0,,0.0,0.0,
2025-08-15T00:54:10.657Z,3,GR86-047-21,0.2,0.36,-0.078,99.99,3.0,,0.0,0.0,
2025-08-15T00:54:10.700Z,3,GR86-047-21,0.2,0.49,-0.182,99.99,3.0,7142.0,0.0,0.0,
2025-08-15T00:54:10.744Z,3,GR86-047-21,0.2,0.383,-0.055,99.97,3.0,,0.0,0.0,123.64
2025-08-15T00:54:10.786Z,3,GR86-047-21,0.1,0.09,-0.1,99.99,3.0,,0.0,0.0,
2025-08-15T00:54:10.829Z,3,GR86-047-21,0.1,0.088,-0.187,99.99,3.0,,0.0,0.0,
2025-08-15T00:54:10.872Z,3,GR86-047-21,0.1,0.199,-0.083,99.99,3.0,,0.0,0.0,
2025-08-15T00:54:10.915Z,3,GR86-047-21,0.1,0.307,-0.136,99.97,3.0,6281.0,0.0,0.0,
2025-08-15T00:54:10.958Z,3,GR86-047-21,0.1,0.263,-0.136,99.98,3.0,,0.0,0.0,124.71
2025-08-15T00:54:11.001Z,3,GR86-047-21,0.1,0.174,-0.083,99.98,3.0,,0.0,0.0,
2025-08-15T00:54:11.045Z,3,GR86-047-21,0.1,0.187,-0.147,99.99,3.0,,0.0,0.0,
2025-08-15T00:54:11.088Z,3,GR86-047-21,0.1,0.233,-0.092,100.0,3.0,,0.0,0.0,
2025-08-15T00:54:11.131Z,3,GR86-047-21,0.1,0.257,-0.104,100.0,3.0,6007.0,0.0,0.0,
2025-08-15T00:54:11.175Z,3,GR86-047-21,0.1,0.221,-0.103,99.99,3.0,,0.0,0.0,126.0
2025-08-15T00:54:11.218Z,3,GR86-047-21,0.1,0.192,-0.085,100.0,3.0,,0.0,0.0,
2025-08-15T00:54:11.261Z,3,GR86-047-21,0.1,0.192,-0.065,100.0,3.0,,0.0,0.0,
2025-08-15T00:54:11.305Z,3,GR86-047-21,0.1,0.234,-0.081,100.0,3.0,,0.0,0.0,
2025-08-15T00:54:11.348Z,3,GR86-047-21,0.1,0.243,-0.068,100.01,3.0,5975.0,0.0,0.0,
2025-08-15T00:54:11.392Z,3,GR86-047-21,0.1,0.211,-0.083,100.0,3.0,,0.0,0.0,126.96
2025-08-15T00:54:11.436Z,3,GR86-047-21,0.1,0.212,-0.062,100.02,3.0,,0.0,0.0,
2025-08-15T00:54:11.478Z,3,GR86-047-21,0.1,0.208,-0.068,100.01,3.0,,0.0,0.0,
2025-08-15T00:54:11.521Z,3,GR86-047-21,0.1,0.222,-0.076,100.01,3.0,,0.0,0.0,
2025-08-15T00:54:11.565Z,3,GR86-047-21,0.1,0.218,-0.071,100.01,3.0,6000.0,0.0,0.0,
2025-08-15T00:54:11.608Z,3,GR86-047-21,0.1,0.22,-0.061,100.01,3.0,,0.0,0.0,127.77
2025-08-15T00:54:11.652Z,3,GR86-047-21,0.1,0.207,-0.064,100.01,3.0,,0.0,0.0,
2025-08-15T00:54:11.696Z,3,GR86-047-21,0.6000000000000001,0.211,-0.065,100.0,3.0,,0.0,0.0,
2025-08-15T00:54:11.738Z,3,GR86-047-21,1.0,0.219,-0.057,100.0,3.0,,0.0,0.0,
2025-08-15T00:54:11.781Z,3,GR86-047-21,1.1,0.222,-0.02,100.0,3.0,6022.0,0.0,0.0,
2025-08-15T00:54:11.825Z,3,GR86-047-21,1.0,0.213,-0.007,100.01,3.0,,0.0,0.0,128.67000000000002
2025-08-15T00:54:11.868Z,3,GR86-047-21,1.0,0.209,0.016,100.02,3.0,,0.0,0.0,
2025-08-15T00:54:11.913Z,3,GR86-047-21,1.0,0.218,-0.005,100.02,3.0,,0.0,0.0,
2025-08-15T00:54:11.955Z,3,GR86-047-21,1.0,0.223,0.005,100.01,3.0,,0.0,0.0,
2025-08-15T00:54:11.998Z,3,GR86-047-21,1.0,0.212,0.011,100.01,3.0,6061.0,0.0,0.0,
2025-08-15T00:54:12.041Z,3,GR86-047-21,1.1,0.192,0.018,99.99,3.0,,0.0,0.0,129.46
2025-08-15T00:54:12.085Z,3,GR86-047-21,2.6,0.207,0.047,100.02,3.0,,0.0,0.0,
2025-08-15T00:54:12.128Z,3,GR86-047-21,4.5,0.215,0.041,100.02,3.0,,0.0,0.0,
2025-08-15T00:54:12.171Z,3,GR86-047-21,6.800000000000001,0.224,0.061,69.89,3.0,,0.0,0.0,
2025-08-15T00:54:12.215Z,3,GR86-047-21,8.6,0.217,0.103,35.46,3.0,6111.0,0.0,0.0,
2025-08-15T00:54:12.257Z,3,GR86-047-21,8.8,0.194,0.138,23.14,3.0,,2.305,2.5500000000000003,130.31
2025-08-15T00:54:12.301Z,3,GR86-047-21,8.8,0.17,0.166,3.5700000000000003,3.0,,7.555,7.8,
2025-08-15T00:54:12.345Z,3,GR86-047-21,8.4,-0.09,0.178,3.3200000000000003,3.0,,17.12,17.215,
2025-08-15T00:54:12.388Z,3,GR86-047-21,8.0,-0.321,0.211,3.16,3.0,,24.46,24.235,
2025-08-15T00:54:12.431Z,3,GR86-047-21,8.0,-0.435,0.177,2.97,3.0,6149.0,32.275,31.895,
2025-08-15T00:54:12.475Z,3,GR86-047-21,8.0,-0.715,0.115,2.82,3.0,,39.645,39.155,131.19
2025-08-15T00:54:12.518Z,3,GR86-047-21,8.0,-0.634,0.185,2.72,3.0,,45.43,45.03,
2025-08-15T00:54:12.560Z,3,GR86-047-21,8.5,-0.743,0.174,2.65,3.0,,50.435,49.870000000000005,
2025-08-15T00:54:12.604Z,3,GR86-047-21,12.6,-0.833,0.276,7.43,3.0,,56.995000000000005,56.875,
2025-08-15T00:54:12.646Z,3,GR86-047-21,15.4,-0.907,0.301,50.96,3.0,6148.0,61.025,62.370000000000005,
2025-08-15T00:54:12.689Z,3,GR86-047-21,17.5,-0.982,0.315,96.43,3.0,,63.115,63.59,131.18
2025-08-15T00:54:12.732Z,3,GR86-047-21,19.5,-0.945,0.391,84.98,2.0,,63.865,63.620000000000005,
2025-08-15T00:54:12.775Z,3,GR86-047-21,19.5,-0.908,0.394,13.86,2.0,,61.42,62.595,
2025-08-15T00:54:12.818Z,3,GR86-047-21,17.8,-1.01,0.397,3.25,2.0,,61.145,62.995000000000005,
2025-08-15T00:54:12.861Z,3,GR86-047-21,14.9,-0.964,0.554,2.64,2.0,5828.0,53.515,54.555,
2025-08-15T00:54:12.905Z,3,GR86-047-21,14.3,-0.919,0.354,2.47,2.0,,41.735,43.2,124.99
2025-08-15T00:54:12.948Z,3,GR86-047-21,14.3,-0.868,0.586,2.45,2.0,,38.9,39.675,
2025-08-15T00:54:12.991Z,3,GR86-047-21,15.1,-0.954,0.513,2.43,2.0,,30.9,31.77,
2025-08-15T00:54:13.035Z,3,GR86-047-21,16.3,-0.558,0.626,2.43,2.0,,27.315,28.305,
2025-08-15T00:54:13.078Z,3,GR86-047-21,21.0,-0.66,0.728,2.43,2.0,5296.0,25.425,26.4,
2025-08-15T00:54:13.121Z,3,GR86-047-21,24.6,-0.504,0.629,2.43,2.0,,21.745,22.34,118.99
2025-08-15T00:54:13.165Z,3,GR86-047-21,29.1,-0.618,0.762,2.43,2.0,,19.99,20.6,
2025-08-15T00:54:13.208Z,3,GR86-047-21,31.3,-0.532,0.715,2.43,2.0,,20.45,21.38,
2025-08-15T00:54:13.252Z,3,GR86-047-21,33.1,-0.552,0.8250000000000001,2.43,2.0,,21.775,22.34,
2025-08-15T00:54:13.295Z,3,GR86-047-21,34.5,-0.5640000000000001,0.801,2.43,2.0,6066.0,21.835,22.16,
2025-08-15T00:54:13.338Z,3,GR86-047-21,36.9,-0.552,0.747,2.43,2.0,,21.38,21.655,113.7
2025-08-15T00:54:13.381Z,3,GR86-047-21,40.1,-0.513,0.792,2.43,2.0,,21.41,21.93,
2025-08-15T00:54:13.426Z,3,GR86-047-21,41.7,-0.523,0.894,2.43,2.0,,22.095,22.675,
2025-08-15T00:54:13.468Z,3,GR86-047-21,41.7,-0.52,0.862,2.45,2.0,,22.16,22.675,
2025-08-15T00:54:13.512Z,3,GR86-047-21,41.7,-0.515,0.848,2.44,2.0,5892.0,22.465,22.995,
2025-08-15T00:54:13.555Z,3,GR86-047-21,42.0,-0.547,0.875,2.43,2.0,,22.125,22.815,109.04
2025-08-15T00:54:13.598Z,3,GR86-047-21,42.1,-0.5750000000000001,0.928,2.43,2.0,,20.265,21.15,
2025-08-15T00:54:13.641Z,3,GR86-047-21,42.0,-0.514,0.968,2.44,2.0,,15.75,16.59,
2025-08-15T00:54:13.686Z,3,GR86-047-21,40.7,-0.267,0.974,2.43,2.0,,3.035,3.525,
2025-08-15T00:54:13.728Z,3,GR86-047-21,40.1,-0.235,1.032,2.46,2.0,5646.0,0.0,0.0,
2025-08-15T00:54:13.771Z,3,GR86-047-21,39.2,-0.194,0.986,2.46,2.0,,0.0,0.0,105.19
2025-08-15T00:54:13.815Z,3,GR86-047-21,38.900000000000006,-0.164,1.084,2.46,2.0,,0.0,0.0,
2025-08-15T00:54:13.857Z,3,GR86-047-21,41.0,-0.129,1.057,2.46,2.0,,0.0,0.0,
2025-08-15T00:54:13.900Z,3,GR86-047-21,47.2,-0.141,1.134,2.46,2.0,,0.0,0.0,
2025-08-15T00:54:13.946Z,3,GR86-047-21,54.0,-0.163,1.154,2.46,2.0,5351.0,0.0,0.0,
2025-08-15T00:54:13.988Z,3,GR86-047-21,55.1,-0.156,1.221,2.46,2.0,,0.0,0.0,101.29
2025-08-15T00:54:14.032Z,3,GR86-047-21,55.7,-0.151,1.18,2.46,2.0,,0.0,0.0,
2025-08-15T00:54:14.075Z,3,GR86-047-21,57.1,-0.128,1.214,2.46,2.0,,0.0,0.0,
2025-08-15T00:54:14.118Z,3,GR86-047-21,60.3,-0.157,1.175,2.47,2.0,,0.0,0.0,
2025-08-15T00:54:14.161Z,3,GR86-047-21,64.10000000000001,-0.152,1.196,2.46,2.0,5394.0,0.0,0.0,
2025-08-15T00:54:14.205Z,3,GR86-047-21,67.60000000000001,-0.153,1.225,13.17,2.0,,0.0,0.0,99.35
2025-08-15T00:54:14.248Z,3,GR86-047-21,68.4,-0.152,1.226,7.04,2.0,,0.0,0.0,
2025-08-15T00:54:14.292Z,3,GR86-047-21,68.7,-0.165,1.256,18.68,2.0,,0.0,0.0,
2025-08-15T00:54:14.335Z,3,GR86-047-21,68.7,-0.156,1.184,20.64,2.0,,0.0,0.0,
2025-08-15T00:54:14.378Z,3,GR86-047-21,68.7,-0.12,1.255,20.76,2.0,5317.0,0.0,0.0,
2025-08-15T00:54:14.421Z,3,GR86-047-21,68.4,-0.104,1.187,23.75,2.0,,0.0,0.0,97.53
2025-08-15T00:54:14.465Z,3,GR86-047-21,68.2,-0.076,1.205,24.56,2.0,,0.0,0.0,
2025-08-15T00:54:14.508Z,3,GR86-047-21,68.2,-0.1,1.188,25.4,2.0,,0.0,0.0,
2025-08-15T00:54:14.551Z,3,GR86-047-21,72.7,0.057,1.168,25.21,2.0,,0.0,0.0,
2025-08-15T00:54:14.595Z,3,GR86-047-21,78.0,0.151,1.194,30.41,2.0,5220.0,0.0,0.0,
2025-08-15T00:54:14.638Z,3,GR86-047-21,83.7,0.15,1.107,31.82,2.0,,0.0,0.0,95.97
2025-08-15T00:54:14.680Z,3,GR86-047-21,87.80000000000001,0.102,1.303,38.12,2.0,,0.0,0.0,
2025-08-15T00:54:14.724Z,3,GR86-047-21,89.4,0.085,1.138,58.13,2.0,,0.0,0.0,
2025-08-15T00:54:14.766Z,3,GR86-047-21,89.5,0.02,1.363,82.81,2.0,,0.0,0.0,
2025-08-15T00:54:14.809Z,3,GR86-047-21,89.30000000000001,0.283,1.286,100.28,2.0,5386.0,0.0,0.0,
2025-08-15T00:54:14.852Z,3,GR86-047-21,89.10000000000001,0.348,1.077,100.17,2.0,,0.0,0.0,94.53
2025-08-15T00:54:14.896Z,3,GR86-047-21,88.7,0.02,1.091,100.17,2.0,,0.0,0.0,
2025-08-15T00:54:14.938Z,3,GR86-047-21,88.2,0.078,1.279,100.17,2.0,,0.0,0.0,
2025-08-15T00:54:14.981Z,3,GR86-047-21,87.60000000000001,0.394,1.138,100.18,2.0,,0.0,0.0,
2025-08-15T00:54:15.025Z,3,GR86-047-21,85.7,0.139,1.117,100.18,2.0,5453.0,0.0,0.0,
2025-08-15T00:54:15.068Z,3,GR86-047-21,83.60000000000001,0.429,0.968,100.17,2.0,,0.0,0.0,93.62
2025-08-15T00:54:15.112Z,3,GR86-047-21,80.2,0.289,0.979,100.2,2.0,,0.0,0.0,
2025-08-15T00:54:15.155Z,3,GR86-047-21,73.4,0.057,1.05,100.19,2.0,,0.0,0.0,
2025-08-15T00:54:15.198Z,3,GR86-047-21,65.8,-0.008,1.037,100.15,2.0,,0.0,0.0,
2025-08-15T00:54:15.241Z,3,GR86-047-21,63.400000000000006,0.342,1.015,100.15,2.0,5603.0,0.0,0.0,
