timestamp,lap,vehicle_id,steering_angle,accx_can,accy_can,ath,gear,nmot,pbrake_f,pbrake_r,speed
2025-08-15T05:07:14.350Z,15,GR86-022-13,-2.4000000000000004,0.14,-0.004,99.99,5.0,,0.0,0.0,
2025-08-15T05:07:14.393Z,15,GR86-022-13,-2.5,0.164,0.02,100.01,5.0,,0.0,0.0,
2025-08-15T05:07:14.437Z,15,GR86-022-13,-3.2,0.112,0.021,99.99,5.0,,0.0,0.0,
2025-08-15T05:07:14.479Z,15,GR86-022-13,-3.5,0.086,-0.017,100.0,5.0,6403.0,0.0,0.0,
2025-08-15T05:07:14.522Z,15,GR86-022-13,-3.5,0.114,0.007,100.01,5.0,,0.0,0.0,188.18
2025-08-15T05:07:14.565Z,15,GR86-022-13,-3.5,0.096,0.026,100.01,5.0,,0.0,0.0,
2025-08-15T05:07:14.608Z,15,GR86-022-13,-3.3000000000000003,0.119,0.012,99.98,5.0,,0.0,0.0,
2025-08-15T05:07:14.651Z,15,GR86-022-13,-2.6,0.093,-0.005,99.98,5.0,,0.0,0.0,
2025-08-15T05:07:14.694Z,15,GR86-022-13,-1.6,0.148,0.027,100.02,5.0,6426.0,0.0,0.0,
2025-08-15T05:07:14.738Z,15,GR86-022-13,-1.0,0.128,-0.013,100.01,5.0,,0.0,0.0,188.93
2025-08-15T05:07:14.781Z,15,GR86-022-13,-1.0,0.1,0.021,100.01,5.0,,0.0,0.0,
2025-08-15T05:07:14.824Z,15,GR86-022-13,-1.6,0.112,0.033,100.03,5.0,,0.0,0.0,
2025-08-15T05:07:14.868Z,15,GR86-022-13,-1.9,0.092,0.037,99.99,5.0,,0.0,0.0,
2025-08-15T05:07:14.911Z,15,GR86-022-13,-1.9,0.102,0.048,100.01,5.0,6455.0,0.0,0.0,
2025-08-15T05:07:14.954Z,15,GR86-022-13,-1.9,0.101,0.07,100.0,5.0,,0.0,0.0,189.68
2025-08-15T05:07:14.999Z,15,GR86-022-13,-1.9,0.133,0.052,100.0,5.0,,0.0,0.0,
2025-08-15T05:07:15.041Z,15,GR86-022-13,-1.9,0.164,0.06,100.01,5.0,,0.0,0.0,
2025-08-15T05:07:15.084Z,15,GR86-022-13,-1.9,0.119,0.058,100.01,5.0,,0.0,0.0,
2025-08-15T05:07:15.128Z,15,GR86-022-13,-1.9,0.11,0.013,99.96,5.0,6475.0,0.0,0.0,
2025-08-15T05:07:15.170Z,15,GR86-022-13,-2.1,0.117,0.019,100.03,5.0,,0.0,0.0,190.43
2025-08-15T05:07:15.213Z,15,GR86-022-13,-2.4000000000000004,0.096,0.029,100.0,5.0,,0.0,0.0,
2025-08-15T05:07:15.257Z,15,GR86-022-13,-2.5,0.163,0.007,99.99,5.0,,0.0,0.0,
2025-08-15T05:07:15.299Z,15,GR86-022-13,-2.5,0.162,0.015,100.03,5.0,,0.0,0.0,
2025-08-15T05:07:15.342Z,15,GR86-022-13,-2.5,0.149,-0.002,99.97,5.0,6502.0,0.0,0.0,
2025-08-15T05:07:15.385Z,15,GR86-022-13,-2.5,0.151,0.002,100.02,5.0,,0.0,0.0,191.14
2025-08-15T05:07:15.428Z,15,GR86-022-13,-2.5,0.141,0.022,99.98,5.0,,0.0,0.0,
2025-08-15T05:07:15.471Z,15,GR86-022-13,-2.5,0.112,-0.037,100.0,5.0,,0.0,0.0,
2025-08-15T05:07:15.514Z,15,GR86-022-13,-2.5,0.115,0.034,100.0,5.0,,0.0,0.0,
2025-08-15T05:07:15.558Z,15,GR86-022-13,-2.5,0.147,-0.001,99.97,5.0,6519.0,0.0,0.0,
2025-08-15T05:07:15.601Z,15,GR86-022-13,-2.5,0.167,0.028,100.02,5.0,,0.0,0.0,191.84
2025-08-15T05:07:15.644Z,15,GR86-022-13,-2.5,0.157,0.014,100.01,5.0,,0.0,0.0,
2025-08-15T05:07:15.688Z,15,GR86-022-13,-2.5,0.142,-0.019,99.99,5.0,,0.0,0.0,
2025-08-15T05:07:15.731Z,15,GR86-022-13,-2.5,0.12,0.003,100.03,5.0,,0.0,0.0,
2025-08-15T05:07:15.774Z,15,GR86-022-13,-2.4000000000000004,0.135,-0.008,99.97,5.0,6546.0,0.0,0.0,
2025-08-15T05:07:15.818Z,15,GR86-022-13,-1.6,0.16,0.012,100.0,5.0,,0.0,0.0,192.66
2025-08-15T05:07:15.861Z,15,GR86-022-13,-0.9,0.146,0.022,100.0,5.0,,0.0,0.0,
2025-08-15T05:07:15.904Z,15,GR86-022-13,-0.4,0.168,0.023,100.0,5.0,,0.0,0.0,
2025-08-15T05:07:15.948Z,15,GR86-022-13,-0.4,0.165,0.06,100.03,5.0,,0.0,0.0,
2025-08-15T05:07:15.991Z,15,GR86-022-13,-0.3,0.146,0.056,99.97,5.0,6570.0,0.0,0.0,
2025-08-15T05:07:16.034Z,15,GR86-022-13,-0.3,0.129,0.1,100.01,5.0,,0.0,0.0,193.31
2025-08-15T05:07:16.079Z,15,GR86-022-13,-0.3,0.144,0.107,99.99,5.0,,0.0,0.0,
2025-08-15T05:07:16.121Z,15,GR86-022-13,-0.2,0.166,0.134,100.03,5.0,,0.0,0.0,
2025-08-15T05:07:16.164Z,15,GR86-022-13,-0.2,0.153,0.095,99.97,5.0,,0.0,0.0,
2025-08-15T05:07:16.208Z,15,GR86-022-13,-0.3,0.132,0.092,100.03,5.0,6593.0,0.0,0.0,
2025-08-15T05:07:16.250Z,15,GR86-022-13,-0.4,0.157,0.087,100.0,5.0,,0.0,0.0,194.08
2025-08-15T05:07:16.293Z,15,GR86-022-13,-0.9,0.119,0.061,99.99,5.0,,0.0,0.0,
2025-08-15T05:07:16.337Z,15,GR86-022-13,-1.7000000000000002,0.106,0.091,99.98,5.0,,0.0,0.0,
2025-08-15T05:07:16.379Z,15,GR86-022-13,-1.7000000000000002,0.154,0.095,100.02,5.0,,0.0,0.0,
2025-08-15T05:07:16.422Z,15,GR86-022-13,-1.6,0.162,0.094,100.0,5.0,6619.0,0.0,0.0,
2025-08-15T05:07:16.465Z,15,GR86-022-13,-1.6,0.149,0.056,100.0,5.0,,0.0,0.0,194.86
2025-08-15T05:07:16.508Z,15,GR86-022-13,-1.6,0.132,0.071,100.03,5.0,,0.0,0.0,
2025-08-15T05:07:16.551Z,15,GR86-022-13,-1.6,0.132,0.026,99.99,5.0,,0.0,0.0,
2025-08-15T05:07:16.594Z,15,GR86-022-13,-1.6,0.126,0.048,99.99,5.0,,0.0,0.0,
2025-08-15T05:07:16.638Z,15,GR86-022-13,-1.6,0.131,0.03,100.0,5.0,6666.0,0.0,0.0,
2025-08-15T05:07:16.681Z,15,GR86-022-13,-1.6,0.145,0.082,100.01,5.0,,0.0,0.0,196.14
2025-08-15T05:07:16.723Z,15,GR86-022-13,-1.6,0.145,0.052,99.99,5.0,,0.0,0.0,
2025-08-15T05:07:16.767Z,15,GR86-022-13,-1.6,0.13,0.044,99.97,5.0,,0.0,0.0,
2025-08-15T05:07:16.809Z,15,GR86-022-13,-1.6,0.106,0.016,99.98,5.0,,0.0,0.0,
2025-08-15T05:07:16.852Z,15,GR86-022-13,-2.4000000000000004,0.11,0.033,100.03,5.0,6663.0,0.0,0.0,
2025-08-15T05:07:16.895Z,15,GR86-022-13,-3.1,0.084,0.013,99.97,5.0,,0.0,0.0,196.89
2025-08-15T05:07:16.938Z,15,GR86-022-13,-4.1000000000000005,0.153,0.04,100.0,5.0,,0.0,0.0,
2025-08-15T05:07:16.981Z,15,GR86-022-13,-4.1000000000000005,0.139,-0.027,99.99,5.0,,0.0,0.0,
2025-08-15T05:07:17.024Z,15,GR86-022-13,-3.9,0.125,0.01,100.0,5.0,,0.0,0.0,
2025-08-15T05:07:17.068Z,15,GR86-022-13,-3.8,0.117,-0.041,100.01,5.0,6695.0,0.0,0.0,
2025-08-15T05:07:17.110Z,15,GR86-022-13,-3.8,0.091,-0.008,100.0,5.0,,0.0,0.0,197.6
2025-08-15T05:07:17.153Z,15,GR86-022-13,-3.7,0.104,-0.047,100.0,5.0,,0.0,0.0,
2025-08-15T05:07:17.197Z,15,GR86-022-13,-3.2,0.137,-0.028,99.97,5.0,,0.0,0.0,
2025-08-15T05:07:17.239Z,15,GR86-022-13,-3.2,0.139,-0.033,100.0,5.0,,0.0,0.0,
2025-08-15T05:07:17.282Z,15,GR86-022-13,-3.1,0.127,0.0,99.98,5.0,6737.0,0.0,0.0,
2025-08-15T05:07:17.325Z,15,GR86-022-13,-3.0,0.089,-0.03,100.03,5.0,,0.0,0.0,198.35
2025-08-15T05:07:17.368Z,15,GR86-022-13,-2.8000000000000003,0.103,-0.015,99.97,5.0,,0.0,0.0,
2025-08-15T05:07:17.411Z,15,GR86-022-13,-2.8000000000000003,0.108,0.03,100.0,5.0,,0.0,0.0,
2025-08-15T05:07:17.454Z,15,GR86-022-13,-2.8000000000000003,0.109,0.003,99.98,5.0,,0.0,0.0,
2025-08-15T05:07:17.498Z,15,GR86-022-13,-2.8000000000000003,0.107,0.021,99.98,5.0,6770.0,0.0,0.0,
2025-08-15T05:07:17.541Z,15,GR86-022-13,-2.8000000000000003,0.107,0.016,100.01,5.0,,0.0,0.0,199.04
2025-08-15T05:07:17.584Z,15,GR86-022-13,-2.8000000000000003,0.109,0.04,99.97,5.0,,0.0,0.0,
2025-08-15T05:07:17.671Z,15,GR86-022-13,-2.8000000000000003,0.133,0.023,99.98,5.0,,0.0,0.0,
2025-08-15T05:07:17.714Z,15,GR86-022-13,-2.8000000000000003,0.129,0.014,100.0,5.0,6794.0,0.0,0.0,
2025-08-15T05:07:17.758Z,15,GR86-022-13,-2.9000000000000004,0.115,-0.014,100.03,5.0,,0.0,0.0,199.76
2025-08-15T05:07:17.800Z,15,GR86-022-13,-2.8000000000000003,0.109,0.009,99.97,5.0,,0.0,0.0,
2025-08-15T05:07:17.843Z,15,GR86-022-13,-2.9000000000000004,0.129,-0.012,100.01,5.0,,0.0,0.0,
2025-08-15T05:07:17.887Z,15,GR86-022-13,-2.8000000000000003,0.113,0.003,99.98,5.0,,0.0,0.0,
2025-08-15T05:07:17.929Z,15,GR86-022-13,-2.8000000000000003,0.147,0.028,100.01,5.0,6824.0,0.0,0.0,
2025-08-15T05:07:17.972Z,15,GR86-022-13,-2.5,0.117,-0.014,100.0,5.0,,0.0,0.0,200.43
2025-08-15T05:07:18.015Z,15,GR86-022-13,-2.0,0.129,0.009,100.03,5.0,,0.0,0.0,
2025-08-15T05:07:18.058Z,15,GR86-022-13,-1.3,0.132,0.033,100.01,5.0,,0.0,0.0,
2025-08-15T05:07:18.101Z,15,GR86-022-13,-0.4,0.125,0.021,99.99,5.0,,0.0,0.0,
2025-08-15T05:07:18.144Z,15,GR86-022-13,0.7000000000000001,0.133,0.073,100.02,5.0,6844.0,0.0,0.0,
2025-08-15T05:07:18.188Z,15,GR86-022-13,1.9,0.116,0.073,100.02,5.0,,0.0,0.0,201.17
2025-08-15T05:07:18.231Z,15,GR86-022-13,2.0,0.118,0.109,100.01,5.0,,0.0,0.0,
2025-08-15T05:07:18.274Z,15,GR86-022-13,0.0,0.11,0.108,100.01,5.0,,0.0,0.0,
2025-08-15T05:07:18.318Z,15,GR86-022-13,-3.2,0.118,0.117,100.03,5.0,,0.0,0.0,
2025-08-15T05:07:18.361Z,15,GR86-022-13,-3.7,0.117,0.09,99.99,5.0,6871.0,0.0,0.0,
2025-08-15T05:07:18.404Z,15,GR86-022-13,-3.0,0.108,0.053,100.01,5.0,,0.0,0.0,202.03
2025-08-15T05:07:18.448Z,15,GR86-022-13,-2.4000000000000004,0.124,0.072,99.99,5.0,,0.0,0.0,
2025-08-15T05:07:18.491Z,15,GR86-022-13,-2.3000000000000003,0.113,0.043,100.01,5.0,,0.0,0.0,
2025-08-15T05:07:18.534Z,15,GR86-022-13,-2.7,0.128,0.01,100.0,5.0,,0.0,0.0,
2025-08-15T05:07:18.579Z,15,GR86-022-13,-3.0,0.14,-0.009,100.03,5.0,6902.0,0.0,0.0,
2025-08-15T05:07:18.621Z,15,GR86-022-13,-1.8,0.098,-0.001,99.98,5.0,,0.0,0.0,202.78
2025-08-15T05:07:18.664Z,15,GR86-022-13,-0.7000000000000001,0.138,-0.006,100.02,5.0,,0.0,0.0,
2025-08-15T05:07:18.708Z,15,GR86-022-13,-0.7000000000000001,0.105,0.017,100.0,5.0,,0.0,0.0,
2025-08-15T05:07:18.750Z,15,GR86-022-13,-1.5,0.122,0.018,100.01,5.0,,0.0,0.0,
2025-08-15T05:07:18.793Z,15,GR86-022-13,-2.4000000000000004,0.119,0.011,100.01,5.0,6919.0,0.0,0.0,
2025-08-15T05:07:18.837Z,15,GR86-022-13,-3.6,0.113,-0.002,100.02,5.0,,0.0,0.0,203.52
2025-08-15T05:07:18.881Z,15,GR86-022-13,-3.8,0.139,0.017,100.0,5.0,,0.0,0.0,
2025-08-15T05:07:18.924Z,15,GR86-022-13,-3.8,0.107,0.012,100.02,5.0,,0.0,0.0,
2025-08-15T05:07:18.968Z,15,GR86-022-13,-3.8,0.112,-0.009,100.03,5.0,,0.0,0.0,
2025-08-15T05:07:19.010Z,15,GR86-022-13,-3.6,0.135,-0.015,100.02,5.0,6950.0,0.0,0.0,
2025-08-15T05:07:19.053Z,15,GR86-022-13,-3.5,0.116,-0.052,100.02,5.0,,0.0,0.0,204.45
2025-08-15T05:07:19.097Z,15,GR86-022-13,-3.5,0.105,-0.03,100.01,5.0,,0.0,0.0,
2025-08-15T05:07:19.141Z,15,GR86-022-13,-3.1,0.14,-0.029,100.0,5.0,,0.0,0.0,
2025-08-15T05:07:19.184Z,15,GR86-022-13,-2.1,0.127,-0.026,99.98,5.0,,0.0,0.0,
2025-08-15T05:07:19.228Z,15,GR86-022-13,-1.3,0.113,-0.034,100.0,5.0,6966.0,0.0,0.0,
2025-08-15T05:07:19.313Z,15,GR86-022-13,-1.0,-0.21,-0.101,100.0,5.0,,0.0,0.0,205.18
2025-08-15T05:07:19.357Z,15,GR86-022-13,0.8,0.016,-0.312,100.0,5.0,,0.0,0.0,
2025-08-15T05:07:19.399Z,15,GR86-022-13,2.1,0.125,-0.146,100.02,5.0,,0.0,0.0,
2025-08-15T05:07:19.443Z,15,GR86-022-13,3.3000000000000003,0.065,-0.163,100.03,5.0,6993.0,0.0,0.0,
2025-08-15T05:07:19.485Z,15,GR86-022-13,4.6000000000000005,0.187,-0.114,100.0,5.0,,0.0,0.0,206.79
2025-08-15T05:07:19.528Z,15,GR86-022-13,5.2,0.088,0.014,100.01,5.0,,0.0,0.0,
2025-08-15T05:07:19.571Z,15,GR86-022-13,6.1000000000000005,0.142,0.101,99.98,5.0,,0.0,0.0,
2025-08-15T05:07:19.614Z,15,GR86-022-13,6.7,0.108,0.192,100.01,5.0,,0.0,0.0,
2025-08-15T05:07:19.658Z,15,GR86-022-13,6.7,0.1,0.285,100.03,5.0,7031.0,0.0,0.0,
2025-08-15T05:07:19.701Z,15,GR86-022-13,5.9,0.114,0.341,100.03,5.0,,0.0,0.0,205.02
2025-08-15T05:07:19.744Z,15,GR86-022-13,5.300000000000001,0.106,0.355,100.0,5.0,,0.0,0.0,
2025-08-15T05:07:19.788Z,15,GR86-022-13,5.2,0.12,0.371,100.03,5.0,,0.0,0.0,
2025-08-15T05:07:19.830Z,15,GR86-022-13,5.300000000000001,0.133,0.363,100.03,5.0,,0.0,0.0,
2025-08-15T05:07:19.873Z,15,GR86-022-13,5.300000000000001,0.112,0.344,100.0,5.0,6950.0,0.0,0.0,
2025-08-15T05:07:19.917Z,15,GR86-022-13,5.300000000000001,0.106,0.353,99.98,5.0,,0.0,0.0,204.57
2025-08-15T05:07:19.959Z,15,GR86-022-13,5.300000000000001,0.125,0.315,99.98,5.0,,0.0,0.0,
2025-08-15T05:07:20.002Z,15,GR86-022-13,5.300000000000001,0.091,0.307,100.0,5.0,,0.0,0.0,
2025-08-15T05:07:20.045Z,15,GR86-022-13,5.300000000000001,0.118,0.269,99.97,5.0,,0.0,0.0,
2025-08-15T05:07:20.088Z,15,GR86-022-13,5.300000000000001,0.084,0.266,99.97,5.0,6969.0,0.0,0.0,
2025-08-15T05:07:20.131Z,15,GR86-022-13,5.1000000000000005,0.079,0.272,99.98,5.0,,0.0,0.0,205.31
2025-08-15T05:07:20.174Z,15,GR86-022-13,4.800000000000001,0.094,0.274,99.97,5.0,,0.0,0.0,
2025-08-15T05:07:20.218Z,15,GR86-022-13,3.2,0.075,0.261,99.97,5.0,,0.0,0.0,
2025-08-15T05:07:20.261Z,15,GR86-022-13,2.3000000000000003,0.068,0.233,100.01,5.0,,0.0,0.0,
2025-08-15T05:07:20.304Z,15,GR86-022-13,1.4,0.07,0.239,100.03,5.0,7003.0,0.0,0.0,
2025-08-15T05:07:20.348Z,15,GR86-022-13,0.6000000000000001,0.087,0.224,99.98,5.0,,0.0,0.0,205.95
2025-08-15T05:07:20.390Z,15,GR86-022-13,0.3,0.1,0.199,100.03,5.0,,0.0,0.0,
2025-08-15T05:07:20.433Z,15,GR86-022-13,0.2,0.109,0.184,100.03,5.0,,0.0,0.0,
2025-08-15T05:07:20.479Z,15,GR86-022-13,0.0,0.086,0.112,99.97,5.0,,0.0,0.0,
2025-08-15T05:07:20.521Z,15,GR86-022-13,-0.2,0.101,0.08,99.96,5.0,7021.0,0.0,0.0,
2025-08-15T05:07:20.564Z,15,GR86-022-13,-0.5,0.095,0.043,99.97,5.0,,0.0,0.0,206.48
2025-08-15T05:07:20.608Z,15,GR86-022-13,-0.9,0.096,0.021,99.97,5.0,,0.0,0.0,
2025-08-15T05:07:20.650Z,15,GR86-022-13,-0.9,0.091,0.003,99.97,5.0,,0.0,0.0,
2025-08-15T05:07:20.693Z,15,GR86-022-13,-0.9,0.052,0.023,99.97,5.0,,0.0,0.0,
2025-08-15T05:07:20.737Z,15,GR86-022-13,-0.9,0.102,0.022,99.97,5.0,7020.0,0.0,0.0,
2025-08-15T05:07:20.779Z,15,GR86-022-13,-1.0,0.079,0.041,99.98,5.0,,0.0,0.0,207.02
2025-08-15T05:07:20.822Z,15,GR86-022-13,-1.2000000000000002,0.075,0.015,99.97,5.0,,0.0,0.0,
2025-08-15T05:07:20.865Z,15,GR86-022-13,-1.8,0.055,-0.005,99.97,5.0,,0.0,0.0,
2025-08-15T05:07:20.908Z,15,GR86-022-13,-2.9000000000000004,0.065,0.013,99.97,5.0,,0.0,0.0,
2025-08-15T05:07:20.951Z,15,GR86-022-13,-3.7,0.098,0.011,99.97,5.0,7048.0,0.0,0.0,
2025-08-15T05:07:20.994Z,15,GR86-022-13,-4.0,0.111,0.016,99.96,5.0,,0.0,0.0,207.36
2025-08-15T05:07:21.038Z,15,GR86-022-13,-4.0,0.077,0.001,99.99,5.0,,0.0,0.0,
2025-08-15T05:07:21.081Z,15,GR86-022-13,-4.2,0.102,-0.009,99.98,5.0,,0.0,0.0,
2025-08-15T05:07:21.124Z,15,GR86-022-13,-4.5,0.094,-0.05,99.97,5.0,,0.0,0.0,
2025-08-15T05:07:21.168Z,15,GR86-022-13,-4.7,0.116,-0.071,99.97,5.0,7051.0,0.0,0.0,
2025-08-15T05:07:21.210Z,15,GR86-022-13,-4.7,0.059,-0.083,99.96,5.0,,5.22,5.495,207.94
2025-08-15T05:07:21.253Z,15,GR86-022-13,-4.5,0.028,-0.09,99.97,5.0,,6.715,6.775,
2025-08-15T05:07:21.299Z,15,GR86-022-13,-3.3000000000000003,0.041,-0.093,100.01,5.0,,4.03,4.565,
2025-08-15T05:07:21.341Z,15,GR86-022-13,-2.9000000000000004,0.008,-0.085,99.99,5.0,,0.0,0.0,
2025-08-15T05:07:21.384Z,15,GR86-022-13,-2.9000000000000004,0.051,-0.071,99.97,5.0,7076.0,8.395,9.125,
2025-08-15T05:07:21.428Z,15,GR86-022-13,-2.8000000000000003,-0.016,-0.065,99.97,5.0,,10.24,10.715,208.21
2025-08-15T05:07:21.470Z,15,GR86-022-13,-2.7,-0.062,-0.028,99.97,5.0,,8.575000000000001,9.28,
2025-08-15T05:07:21.513Z,15,GR86-022-13,-2.7,-0.001,-0.006,99.97,5.0,,3.495,4.18,
2025-08-15T05:07:21.557Z,15,GR86-022-13,-2.7,0.064,0.011,99.98,5.0,,0.0,0.0,
2025-08-15T05:07:21.599Z,15,GR86-022-13,-2.7,0.09,0.013,99.98,5.0,7080.0,0.0,0.0,
2025-08-15T05:07:21.642Z,15,GR86-022-13,-2.7,0.115,0.012,99.97,5.0,,0.0,0.0,208.67
2025-08-15T05:07:21.685Z,15,GR86-022-13,-2.7,0.09,0.014,99.97,5.0,,0.0,0.0,
2025-08-15T05:07:21.728Z,15,GR86-022-13,-3.0,0.096,-0.016,99.97,5.0,,0.0,0.0,
2025-08-15T05:07:21.771Z,15,GR86-022-13,-3.5,0.055,0.005,99.98,5.0,,0.0,0.0,
2025-08-15T05:07:21.814Z,15,GR86-022-13,-3.6,0.054,0.001,99.97,5.0,7067.0,0.0,0.0,
2025-08-15T05:07:21.858Z,15,GR86-022-13,-3.6,0.08,0.011,99.96,5.0,,0.0,0.0,208.83
2025-08-15T05:07:21.900Z,15,GR86-022-13,-3.6,0.034,0.001,99.97,5.0,,0.0,0.0,
2025-08-15T05:07:21.944Z,15,GR86-022-13,-3.6,0.052,-0.016,99.98,5.0,,0.0,0.0,
2025-08-15T05:07:21.988Z,15,GR86-022-13,-3.6,0.046,0.006,100.01,5.0,,0.0,0.0,
2025-08-15T05:07:22.031Z,15,GR86-022-13,-3.7,0.103,0.005,99.99,5.0,7089.0,0.0,0.0,
2025-08-15T05:07:22.075Z,15,GR86-022-13,-3.7,0.09,-0.01,100.03,5.0,,0.0,0.0,208.82
2025-08-15T05:07:22.118Z,15,GR86-022-13,-4.0,0.058,-0.02,99.97,5.0,,0.0,0.0,
2025-08-15T05:07:22.161Z,15,GR86-022-13,-4.6000000000000005,0.097,-0.018,99.99,5.0,,0.0,0.0,
2025-08-15T05:07:22.204Z,15,GR86-022-13,-5.300000000000001,0.102,-0.027,100.02,5.0,,0.0,0.0,
2025-08-15T05:07:22.248Z,15,GR86-022-13,-5.5,0.1,-0.045,100.0,5.0,7106.0,0.0,0.0,
2025-08-15T05:07:22.291Z,15,GR86-022-13,-5.6000000000000005,0.05,-0.078,99.97,5.0,,0.0,0.0,209.73
2025-08-15T05:07:22.334Z,15,GR86-022-13,-5.9,0.041,-0.095,99.97,5.0,,0.0,0.0,
2025-08-15T05:07:22.379Z,15,GR86-022-13,-7.5,0.084,-0.122,100.03,5.0,,0.0,0.0,
2025-08-15T05:07:22.421Z,15,GR86-022-13,-8.8,0.046,-0.149,99.99,5.0,,0.0,0.0,
2025-08-15T05:07:22.464Z,15,GR86-022-13,-9.1,0.067,-0.185,99.97,5.0,7124.0,0.0,0.0,
2025-08-15T05:07:22.508Z,15,GR86-022-13,-8.6,0.045,-0.192,99.96,5.0,,0.0,0.0,210.19
2025-08-15T05:07:22.550Z,15,GR86-022-13,-7.0,0.096,-0.206,99.98,5.0,,0.0,0.0,
2025-08-15T05:07:22.593Z,15,GR86-022-13,-5.300000000000001,0.093,-0.216,100.0,5.0,,0.0,0.0,
2025-08-15T05:07:22.637Z,15,GR86-022-13,-4.9,0.077,-0.214,99.97,5.0,,2.365,2.5500000000000003,
2025-08-15T05:07:22.681Z,15,GR86-022-13,-4.9,0.08,-0.195,100.0,5.0,7151.0,6.485,6.515000000000001,
2025-08-15T05:07:22.723Z,15,GR86-022-13,-4.9,0.021,-0.171,100.03,5.0,,11.78,11.905,210.57
2025-08-15T05:07:22.767Z,15,GR86-022-13,-4.9,-0.084,-0.157,95.21,5.0,,18.89,18.89,
2025-08-15T05:07:22.809Z,15,GR86-022-13,-6.1000000000000005,-0.272,-0.133,34.35,5.0,,27.055,26.81,
2025-08-15T05:07:22.853Z,15,GR86-022-13,-7.800000000000001,-0.374,-0.113,3.6,5.0,,29.21,29.435,
2025-08-15T05:07:22.895Z,15,GR86-022-13,-8.9,-0.413,-0.109,3.35,5.0,7154.0,27.53,28.34,
2025-08-15T05:07:22.938Z,15,GR86-022-13,-8.5,-0.558,-0.113,3.17,5.0,,22.905,24.235,210.87
2025-08-15T05:07:22.981Z,15,GR86-022-13,-5.9,-0.782,-0.146,3.04,5.0,,21.715,22.495,
2025-08-15T05:07:23.024Z,15,GR86-022-13,-2.7,-0.591,-0.144,2.92,5.0,,27.47,27.56,
2025-08-15T05:07:23.068Z,15,GR86-022-13,-1.8,-0.656,-0.091,2.85,5.0,,33.055,32.93,
2025-08-15T05:07:23.111Z,15,GR86-022-13,-3.9,-0.681,-0.099,2.77,5.0,7047.0,37.585,37.385,
2025-08-15T05:07:23.153Z,15,GR86-022-13,-7.6,-0.768,-0.073,2.69,5.0,,42.24,41.935,209.87
2025-08-15T05:07:23.197Z,15,GR86-022-13,-11.4,-0.915,-0.116,2.63,5.0,,55.775,55.3,
2025-08-15T05:07:23.239Z,15,GR86-022-13,-11.8,-1.043,-0.128,2.63,5.0,,67.175,66.58,
2025-08-15T05:07:23.282Z,15,GR86-022-13,-10.2,-1.152,-0.138,2.59,5.0,,78.77,78.635,
2025-08-15T05:07:23.327Z,15,GR86-022-13,-6.800000000000001,-1.238,-0.132,2.54,5.0,6893.0,89.12,89.745,
2025-08-15T05:07:23.370Z,15,GR86-022-13,-2.8000000000000003,-1.343,-0.092,2.53,5.0,,96.365,96.87,207.1
2025-08-15T05:07:23.413Z,15,GR86-022-13,0.2,-1.356,-0.06,2.52,5.0,,101.295,102.275,
2025-08-15T05:07:23.457Z,15,GR86-022-13,-1.0,-1.369,-0.101,20.08,5.0,,105.11,106.025,
2025-08-15T05:07:23.499Z,15,GR86-022-13,-2.1,-1.386,-0.119,66.35,5.0,,104.5,104.47,
2025-08-15T05:07:23.542Z,15,GR86-022-13,-2.2,-1.311,-0.138,94.68,4.0,6476.0,104.715,105.46,
2025-08-15T05:07:23.585Z,15,GR86-022-13,0.0,-1.344,-0.194,32.93,4.0,,104.44,104.895,200.74
2025-08-15T05:07:23.628Z,15,GR86-022-13,3.2,-1.391,-0.178,3.45,4.0,,105.4,107.17,
2025-08-15T05:07:23.671Z,15,GR86-022-13,3.6,-1.421,-0.179,2.73,4.0,,104.895,106.055,
2025-08-15T05:07:23.714Z,15,GR86-022-13,6.5,-1.303,-0.343,2.66,4.0,,99.68,99.71,
2025-08-15T05:07:23.758Z,15,GR86-022-13,14.4,-1.196,-0.158,2.64,4.0,5957.0,96.81,98.305,
2025-08-15T05:07:23.800Z,15,GR86-022-13,17.900000000000002,-1.104,-0.356,2.62,4.0,,82.74,83.87,189.56
2025-08-15T05:07:23.843Z,15,GR86-022-13,18.2,-1.137,-0.178,2.62,4.0,,78.175,78.805,
2025-08-15T05:07:23.887Z,15,GR86-022-13,14.7,-1.194,-0.09,2.61,4.0,,80.055,81.46000000000001,
2025-08-15T05:07:23.929Z,15,GR86-022-13,10.5,-1.158,-0.237,2.58,4.0,,79.72,80.285,
2025-08-15T05:07:23.972Z,15,GR86-022-13,3.1,-1.23,-0.104,2.58,4.0,6376.0,79.84,80.495,
2025-08-15T05:07:24.015Z,15,GR86-022-13,-5.800000000000001,-1.179,-0.14,2.57,4.0,,80.59,81.55,180.46
2025-08-15T05:07:24.058Z,15,GR86-022-13,-14.0,-1.13,-0.16,2.5500000000000003,4.0,,77.43,78.45,
2025-08-15T05:07:24.101Z,15,GR86-022-13,-10.6,-1.121,-0.165,2.54,4.0,,67.39,68.96000000000001,
2025-08-15T05:07:24.144Z,15,GR86-022-13,-4.9,-1.028,-0.132,2.54,4.0,,57.65,59.24,
2025-08-15T05:07:24.188Z,15,GR86-022-13,-5.7,-0.987,-0.034,2.54,4.0,6385.0,50.005,51.455,
2025-08-15T05:07:24.274Z,15,GR86-022-13,-11.9,-1.055,-0.048,50.25,4.0,,50.31,50.615,172.62
2025-08-15T05:07:24.318Z,15,GR86-022-13,-11.5,-1.079,-0.142,72.4,3.0,,59.36,59.3,
2025-08-15T05:07:24.361Z,15,GR86-022-13,-11.4,-1.235,-0.147,6.17,3.0,,67.42,68.44,
2025-08-15T05:07:24.404Z,15,GR86-022-13,-11.4,-1.162,-0.087,3.02,3.0,6112.0,73.935,75.55,
2025-08-15T05:07:24.448Z,15,GR86-022-13,-12.0,-1.091,-0.332,2.82,3.0,,74.12,74.345,163.92000000000002
2025-08-15T05:07:24.491Z,15,GR86-022-13,-14.0,-1.271,-0.234,2.75,3.0,,72.485,73.17,
2025-08-15T05:07:24.534Z,15,GR86-022-13,-15.8,-1.01,-0.287,2.71,3.0,,70.83500000000001,72.27,
2025-08-15T05:07:24.579Z,15,GR86-022-13,-15.8,-0.987,-0.591,2.68,3.0,,62.03,62.46,
2025-08-15T05:07:24.621Z,15,GR86-022-13,-15.3,-0.979,-0.438,2.66,3.0,5919.0,59.24,59.775,
2025-08-15T05:07:24.664Z,15,GR86-022-13,-15.8,-0.904,-0.5,2.66,3.0,,58.765,59.745000000000005,157.81
2025-08-15T05:07:24.708Z,15,GR86-022-13,-17.6,-0.94,-0.657,2.63,3.0,,58.095,59.025,
2025-08-15T05:07:24.750Z,15,GR86-022-13,-17.900000000000002,-0.95,-0.683,2.62,3.0,,59.27,60.49,
2025-08-15T05:07:24.793Z,15,GR86-022-13,-18.2,-0.8170000000000001,-0.8180000000000001,2.59,3.0,,56.035,56.965,
2025-08-15T05:07:24.837Z,15,GR86-022-13,-16.900000000000002,-0.784,-0.794,2.56,3.0,6266.0,47.06,48.055,
2025-08-15T05:07:24.881Z,15,GR86-022-13,-12.1,-0.724,-0.86,2.54,3.0,,41.25,42.455,143.27
2025-08-15T05:07:24.924Z,15,GR86-022-13,-11.6,-0.806,-0.84,2.54,3.0,,37.585,38.045,
2025-08-15T05:07:24.968Z,15,GR86-022-13,-16.3,-0.763,-0.867,2.53,3.0,,31.36,31.925,
2025-08-15T05:07:25.010Z,15,GR86-022-13,-21.1,-0.5660000000000001,-0.913,2.52,3.0,,27.085,28.035,
2025-08-15T05:07:25.053Z,15,GR86-022-13,-25.200000000000003,-0.528,-0.975,2.5,3.0,6224.0,22.22,22.935,
2025-08-15T05:07:25.097Z,15,GR86-022-13,-26.8,-0.496,-1.062,2.5,3.0,,15.09,15.78,137.86
2025-08-15T05:07:25.141Z,15,GR86-022-13,-24.9,-0.411,-1.02,2.5,3.0,,12.805,13.52,
2025-08-15T05:07:25.184Z,15,GR86-022-13,-20.6,-0.399,-1.08,2.5,3.0,,10.085,10.835,
2025-08-15T05:07:25.228Z,15,GR86-022-13,-14.0,-0.356,-1.127,2.51,3.0,,10.025,10.68,
2025-08-15T05:07:25.270Z,15,GR86-022-13,-12.2,-0.383,-1.032,2.5,3.0,5918.0,10.055,10.65,
2025-08-15T05:07:25.313Z,15,GR86-022-13,-17.400000000000002,-0.362,-1.036,2.51,3.0,,7.325,7.86,132.86
2025-08-15T05:07:25.357Z,15,GR86-022-13,-28.6,-0.252,-1.115,2.5,3.0,,0.0,0.0,
2025-08-15T05:07:25.399Z,15,GR86-022-13,-30.0,-0.176,-1.157,2.5,3.0,,0.0,0.0,
2025-08-15T05:07:25.444Z,15,GR86-022-13,-28.0,-0.138,-1.079,2.51,3.0,,0.0,0.0,
2025-08-15T05:07:25.487Z,15,GR86-022-13,-30.5,-0.133,-1.094,2.51,3.0,5733.0,0.0,0.0,
2025-08-15T05:07:25.529Z,15,GR86-022-13,-37.3,-0.125,-1.16,2.5,3.0,,0.0,0.0,129.72
2025-08-15T05:07:25.572Z,15,GR86-022-13,-44.3,-0.165,-1.148,2.5,3.0,,0.0,0.0,
2025-08-15T05:07:25.615Z,15,GR86-022-13,-50.5,-0.164,-1.108,2.5,3.0,,0.0,0.0,
2025-08-15T05:07:25.701Z,15,GR86-022-13,-52.2,-0.14,-1.15,2.5,3.0,5724.0,0.0,0.0,
2025-08-15T05:07:25.744Z,15,GR86-022-13,-52.2,-0.151,-1.117,3.13,3.0,,0.0,0.0,127.37
2025-08-15T05:07:25.788Z,15,GR86-022-13,-53.2,-0.165,-1.106,18.31,3.0,,0.0,0.0,
2025-08-15T05:07:25.831Z,15,GR86-022-13,-54.8,-0.138,-1.135,19.62,3.0,,0.0,0.0,
2025-08-15T05:07:25.873Z,15,GR86-022-13,-55.3,-0.13,-1.166,25.03,3.0,,0.0,0.0,
2025-08-15T05:07:25.917Z,15,GR86-022-13,-54.900000000000006,-0.093,-1.204,40.96,3.0,5690.0,0.0,0.0,
2025-08-15T05:07:25.959Z,15,GR86-022-13,-53.8,-0.096,-1.235,83.06,3.0,,0.0,0.0,125.28
2025-08-15T05:07:26.002Z,15,GR86-022-13,-50.2,-0.05,-1.196,99.62,3.0,,0.0,0.0,
2025-08-15T05:07:26.045Z,15,GR86-022-13,-41.6,0.215,-1.193,100.03,3.0,,0.0,0.0,
2025-08-15T05:07:26.088Z,15,GR86-022-13,-33.2,0.282,-1.142,100.03,3.0,,0.0,0.0,
2025-08-15T05:07:26.132Z,15,GR86-022-13,-33.2,0.276,-1.092,100.03,3.0,5675.0,0.0,0.0,
2025-08-15T05:07:26.175Z,15,GR86-022-13,-39.7,0.22,-1.153,100.03,3.0,,0.0,0.0,124.43
2025-08-15T05:07:26.218Z,15,GR86-022-13,-48.5,0.203,-1.163,100.03,3.0,,0.0,0.0,
2025-08-15T05:07:26.261Z,15,GR86-022-13,-51.0,0.201,-1.155,100.04,3.0,,0.0,0.0,
2025-08-15T05:07:26.304Z,15,GR86-022-13,-53.0,0.219,-1.149,100.04,3.0,,0.0,0.0,
2025-08-15T05:07:26.348Z,15,GR86-022-13,-53.7,0.208,-1.174,100.04,3.0,5981.0,0.0,0.0,
2025-08-15T05:07:26.391Z,15,GR86-022-13,-53.8,0.213,-1.131,100.03,3.0,,0.0,0.0,123.71
2025-08-15T05:07:26.435Z,15,GR86-022-13,-53.8,0.221,-1.14,100.03,3.0,,0.0,0.0,
2025-08-15T05:07:26.479Z,15,GR86-022-13,-53.7,0.21,-1.236,100.01,3.0,,0.0,0.0,
2025-08-15T05:07:26.521Z,15,GR86-022-13,-53.6,0.21,-1.11,100.0,3.0,,0.0,0.0,
2025-08-15T05:07:26.564Z,15,GR86-022-13,-53.1,0.234,-1.149,100.03,3.0,5894.0,0.0,0.0,
2025-08-15T05:07:26.608Z,15,GR86-022-13,-51.8,0.277,-1.043,100.02,3.0,,0.0,0.0,123.95
2025-08-15T05:07:26.650Z,15,GR86-022-13,-49.6,0.149,-1.133,100.01,3.0,,0.0,0.0,
2025-08-15T05:07:26.693Z,15,GR86-022-13,-47.0,0.134,-1.011,100.0,3.0,,0.0,0.0,
2025-08-15T05:07:26.737Z,15,GR86-022-13,-42.2,0.255,-1.201,100.01,3.0,,0.0,0.0,
2025-08-15T05:07:26.779Z,15,GR86-022-13,-37.3,0.321,-1.055,100.0,3.0,5934.0,0.0,0.0,
2025-08-15T05:07:26.822Z,15,GR86-022-13,-32.9,0.216,-1.037,100.01,3.0,,0.0,0.0,124.62
2025-08-15T05:07:26.865Z,15,GR86-022-13,-32.2,0.161,-1.056,100.04,3.0,,0.0,0.0,
2025-08-15T05:07:26.908Z,15,GR86-022-13,-33.5,0.225,-1.002,100.04,3.0,,0.0,0.0,
2025-08-15T05:07:26.951Z,15,GR86-022-13,-33.1,0.231,-1.11,100.04,3.0,,0.0,0.0,
2025-08-15T05:07:26.994Z,15,GR86-022-13,-31.8,0.08,-0.988,100.03,3.0,6009.0,0.0,0.0,
2025-08-15T05:07:27.038Z,15,GR86-022-13,-31.6,0.255,-1.266,100.0,3.0,,0.0,0.0,125.72
2025-08-15T05:07:27.081Z,15,GR86-022-13,-31.6,0.41,-1.026,100.01,3.0,,0.0,0.0,
2025-08-15T05:07:27.124Z,15,GR86-022-13,-31.700000000000003,0.276,-1.222,100.01,3.0,,0.0,0.0,
2025-08-15T05:07:27.168Z,15,GR86-022-13,-30.3,0.291,-1.233,100.0,3.0,,0.0,0.0,
2025-08-15T05:07:27.210Z,15,GR86-022-13,-29.200000000000003,0.212,-1.092,100.01,3.0,6069.0,0.0,0.0,
2025-08-15T05:07:27.253Z,15,GR86-022-13,-30.0,0.221,-1.015,100.03,3.0,,0.0,0.0,126.8
2025-08-15T05:07:27.299Z,15,GR86-022-13,-39.7,0.267,-0.997,100.01,3.0,,0.0,0.0,
2025-08-15T05:07:27.341Z,15,GR86-022-13,-48.900000000000006,0.231,-1.035,100.01,3.0,,0.0,0.0,
2025-08-15T05:07:27.384Z,15,GR86-022-13,-54.0,0.202,-1.042,100.0,3.0,,0.0,0.0,
2025-08-15T05:07:27.428Z,15,GR86-022-13,-53.6,0.219,-1.075,100.0,3.0,6097.0,0.0,0.0,
2025-08-15T05:07:27.470Z,15,GR86-022-13,-50.6,0.229,-1.051,100.01,3.0,,0.0,0.0,127.92
2025-08-15T05:07:27.513Z,15,GR86-022-13,-49.1,0.195,-0.989,100.02,3.0,,0.0,0.0,
2025-08-15T05:07:27.557Z,15,GR86-022-13,-49.400000000000006,0.179,-0.993,100.0,3.0,,0.0,0.0,
2025-08-15T05:07:27.599Z,15,GR86-022-13,-49.400000000000006,0.214,-0.925,100.0,3.0,,0.0,0.0,
2025-08-15T05:07:27.642Z,15,GR86-022-13,-49.400000000000006,0.226,-0.982,100.01,3.0,6121.0,0.0,0.0,
2025-08-15T05:07:27.685Z,15,GR86-022-13,-49.400000000000006,0.199,-1.0,99.99,3.0,,0.0,0.0,129.34
2025-08-15T05:07:27.728Z,15,GR86-022-13,-47.400000000000006,0.172,-1.029,99.99,3.0,,0.0,0.0,
2025-08-15T05:07:27.771Z,15,GR86-022-13,-43.900000000000006,0.22,-1.085,100.01,3.0,,0.0,0.0,
2025-08-15T05:07:27.814Z,15,GR86-022-13,-42.7,0.235,-1.121,100.01,3.0,,0.0,0.0,
2025-08-15T05:07:27.858Z,15,GR86-022-13,-44.8,0.244,-1.137,100.03,3.0,6127.0,0.0,0.0,
2025-08-15T05:07:27.900Z,15,GR86-022-13,-46.6,0.188,-1.076,100.03,3.0,,0.0,0.0,130.53
2025-08-15T05:07:27.944Z,15,GR86-022-13,-46.8,0.185,-1.077,100.0,3.0,,0.0,0.0,
2025-08-15T05:07:27.987Z,15,GR86-022-13,-44.900000000000006,0.248,-1.097,100.0,3.0,,0.0,0.0,
2025-08-15T05:07:28.032Z,15,GR86-022-13,-41.1,0.211,-1.127,100.02,3.0,,0.0,0.0,
2025-08-15T05:07:28.074Z,15,GR86-022-13,-38.3,0.17,-1.042,100.01,3.0,6204.0,0.0,0.0,
2025-08-15T05:07:28.118Z,15,GR86-022-13,-39.1,0.186,-1.041,100.0,3.0,,0.0,0.0,131.76
2025-08-15T05:07:28.161Z,15,GR86-022-13,-41.2,0.186,-1.04,100.03,3.0,,0.0,0.0,
2025-08-15T05:07:28.204Z,15,GR86-022-13,-42.900000000000006,0.247,-1.057,99.99,3.0,,0.0,0.0,
2025-08-15T05:07:28.248Z,15,GR86-022-13,-43.2,0.224,-1.105,100.03,3.0,,0.0,0.0,
2025-08-15T05:07:28.291Z,15,GR86-022-13,-43.2,0.176,-1.043,99.99,3.0,6315.0,0.0,0.0,
2025-08-15T05:07:28.334Z,15,GR86-022-13,-43.2,0.192,-1.009,100.01,3.0,,0.0,0.0,132.78
2025-08-15T05:07:28.379Z,15,GR86-022-13,-41.7,0.18,-1.031,99.99,3.0,,0.0,0.0,
2025-08-15T05:07:28.421Z,15,GR86-022-13,-39.6,0.256,-1.032,99.99,3.0,,0.0,0.0,
2025-08-15T05:07:28.464Z,15,GR86-022-13,-36.3,0.243,-1.041,100.01,3.0,,0.0,0.0,
2025-08-15T05:07:28.508Z,15,GR86-022-13,-32.9,0.162,-0.931,100.0,3.0,6376.0,0.0,0.0,
2025-08-15T05:07:28.550Z,15,GR86-022-13,-31.5,0.18,-0.79,99.99,3.0,,0.0,0.0,133.84
2025-08-15T05:07:28.593Z,15,GR86-022-13,-32.0,0.319,-0.8310000000000001,100.01,3.0,,0.0,0.0,
2025-08-15T05:07:28.637Z,15,GR86-022-13,-33.9,0.148,-0.56,100.0,3.0,,0.0,0.0,
2025-08-15T05:07:28.679Z,15,GR86-022-13,-33.7,0.143,-0.646,100.0,3.0,,0.0,0.0,
2025-08-15T05:07:28.722Z,15,GR86-022-13,-32.1,0.152,-0.948,100.0,3.0,6417.0,0.0,0.0,
2025-08-15T05:07:28.765Z,15,GR86-022-13,-31.3,0.24,-0.761,100.02,3.0,,0.0,0.0,134.69
2025-08-15T05:07:28.808Z,15,GR86-022-13,-31.1,0.139,-0.6950000000000001,100.0,3.0,,0.0,0.0,
2025-08-15T05:07:28.851Z,15,GR86-022-13,-32.1,0.003,-0.326,100.02,3.0,,0.0,0.0,
2025-08-15T05:07:28.894Z,15,GR86-022-13,-32.6,-0.123,-0.852,99.97,3.0,,0.0,0.0,
2025-08-15T05:07:28.938Z,15,GR86-022-13,-31.3,0.296,-1.048,99.97,3.0,6492.0,0.0,0.0,
2025-08-15T05:07:28.981Z,15,GR86-022-13,-31.200000000000003,0.272,-1.123,100.01,3.0,,0.0,0.0,135.98
2025-08-15T05:07:29.024Z,15,GR86-022-13,-32.4,0.297,-1.397,100.01,3.0,,0.0,0.0,
2025-08-15T05:07:29.068Z,15,GR86-022-13,-34.5,0.447,-1.115,99.98,3.0,,0.0,0.0,
2025-08-15T05:07:29.111Z,15,GR86-022-13,-36.0,0.115,-1.024,100.01,3.0,,0.0,0.0,
2025-08-15T05:07:29.153Z,15,GR86-022-13,-34.9,0.022,-0.89,99.98,3.0,6567.0,0.0,0.0,
2025-08-15T05:07:29.197Z,15,GR86-022-13,-33.2,0.144,-0.897,99.98,3.0,,0.0,0.0,137.36
2025-08-15T05:07:29.239Z,15,GR86-022-13,-33.2,0.306,-0.904,99.97,3.0,,0.0,0.0,
2025-08-15T05:07:29.282Z,15,GR86-022-13,-34.300000000000004,0.327,-0.965,100.01,3.0,,0.0,0.0,
2025-08-15T05:07:29.325Z,15,GR86-022-13,-36.4,0.18,-1.003,100.01,3.0,,0.0,0.0,
2025-08-15T05:07:29.368Z,15,GR86-022-13,-39.400000000000006,0.132,-1.128,100.01,3.0,6566.0,0.0,0.0,
2025-08-15T05:07:29.411Z,15,GR86-022-13,-41.0,0.22,-1.152,100.01,3.0,,0.0,0.0,138.47
2025-08-15T05:07:29.454Z,15,GR86-022-13,-39.7,0.293,-1.21,100.0,3.0,,0.0,0.0,
2025-08-15T05:07:29.498Z,15,GR86-022-13,-35.4,0.174,-1.027,99.97,3.0,,0.0,0.0,
2025-08-15T05:07:29.541Z,15,GR86-022-13,-30.9,0.263,-0.905,100.0,3.0,,0.0,0.0,
2025-08-15T05:07:29.584Z,15,GR86-022-13,-26.8,0.211,-0.933,100.0,3.0,6675.0,0.0,0.0,
2025-08-15T05:07:29.628Z,15,GR86-022-13,-24.200000000000003,0.22,-0.769,99.99,3.0,,0.0,0.0,138.88
2025-08-15T05:07:29.670Z,15,GR86-022-13,-23.1,0.163,-0.772,99.98,3.0,,0.0,0.0,
2025-08-15T05:07:29.713Z,15,GR86-022-13,-23.1,0.287,-0.663,100.01,3.0,,0.0,0.0,
2025-08-15T05:07:29.757Z,15,GR86-022-13,-22.9,0.235,-0.636,99.99,3.0,,0.0,0.0,
2025-08-15T05:07:29.799Z,15,GR86-022-13,-22.4,0.272,-0.66,100.02,3.0,6624.0,0.0,0.0,
2025-08-15T05:07:29.842Z,15,GR86-022-13,-22.4,0.202,-0.641,99.97,3.0,,0.0,0.0,140.54
2025-08-15T05:07:29.885Z,15,GR86-022-13,-22.3,0.21,-0.636,99.99,3.0,,0.0,0.0,
2025-08-15T05:07:29.928Z,15,GR86-022-13,-21.3,0.194,-0.605,99.99,3.0,,0.0,0.0,
2025-08-15T05:07:29.971Z,15,GR86-022-13,-20.9,0.229,-0.512,100.0,3.0,,0.0,0.0,
2025-08-15T05:07:30.015Z,15,GR86-022-13,-20.6,0.268,-0.433,99.98,3.0,6686.0,0.0,0.0,
2025-08-15T05:07:30.058Z,15,GR86-022-13,-17.6,0.185,-0.496,100.01,3.0,,0.0,0.0,141.3
2025-08-15T05:07:30.101Z,15,GR86-022-13,-13.9,0.212,-0.381,100.0,3.0,,0.0,0.0,
2025-08-15T05:07:30.144Z,15,GR86-022-13,-12.1,0.29,-0.313,99.99,3.0,,0.0,0.0,
2025-08-15T05:07:30.188Z,15,GR86-022-13,-9.7,0.222,-0.267,99.97,3.0,,0.0,0.0,
2025-08-15T05:07:30.230Z,15,GR86-022-13,-8.6,0.104,-0.169,99.97,3.0,6762.0,0.0,0.0,
2025-08-15T05:07:30.273Z,15,GR86-022-13,-5.7,0.108,-0.166,99.97,3.0,,0.0,0.0,143.06
2025-08-15T05:07:30.317Z,15,GR86-022-13,-2.4000000000000004,0.326,-0.325,99.98,3.0,,0.0,0.0,
2025-08-15T05:07:30.359Z,15,GR86-022-13,-1.3,0.471,-0.371,100.03,3.0,,0.0,0.0,
2025-08-15T05:07:30.402Z,15,GR86-022-13,-0.3,0.301,-0.287,99.98,3.0,,0.0,0.0,
2025-08-15T05:07:30.445Z,15,GR86-022-13,0.1,0.201,-0.453,100.0,3.0,6830.0,0.0,0.0,
2025-08-15T05:07:30.488Z,15,GR86-022-13,0.3,0.224,-0.108,100.02,3.0,,0.0,0.0,145.45000000000002
2025-08-15T05:07:30.531Z,15,GR86-022-13,0.3,0.183,-0.184,99.99,3.0,,0.0,0.0,
2025-08-15T05:07:30.574Z,15,GR86-022-13,0.7000000000000001,0.186,-0.065,99.99,3.0,,0.0,0.0,
2025-08-15T05:07:30.618Z,15,GR86-022-13,0.8,0.176,0.057,99.97,3.0,,0.0,0.0,
2025-08-15T05:07:30.661Z,15,GR86-022-13,1.5,0.249,0.104,99.97,3.0,7037.0,0.0,0.0,
2025-08-15T05:07:30.704Z,15,GR86-022-13,2.8000000000000003,0.273,0.235,100.02,3.0,,0.0,0.0,147.84
2025-08-15T05:07:30.748Z,15,GR86-022-13,4.3,0.39,0.243,100.0,3.0,,0.0,0.0,
2025-08-15T05:07:30.791Z,15,GR86-022-13,6.5,0.323,0.32,100.03,3.0,,0.0,0.0,
2025-08-15T05:07:30.834Z,15,GR86-022-13,7.300000000000001,0.158,0.303,100.02,3.0,,0.0,0.0,
2025-08-15T05:07:30.879Z,15,GR86-022-13,8.4,0.208,0.339,99.99,3.0,7172.0,0.0,0.0,
2025-08-15T05:07:30.921Z,15,GR86-022-13,8.3,0.216,0.393,100.03,3.0,,0.0,0.0,148.96
2025-08-15T05:07:30.964Z,15,GR86-022-13,6.7,0.202,0.499,99.99,3.0,,0.0,0.0,
2025-08-15T05:07:31.008Z,15,GR86-022-13,3.1,0.325,0.476,100.0,3.0,,0.0,0.0,
2025-08-15T05:07:31.050Z,15,GR86-022-13,0.2,0.274,0.508,99.97,3.0,,0.0,0.0,
2025-08-15T05:07:31.093Z,15,GR86-022-13,-1.3,0.311,0.434,99.98,3.0,7029.0,0.0,0.0,
2025-08-15T05:07:31.137Z,15,GR86-022-13,-1.5,0.211,0.391,99.97,3.0,,0.0,0.0,150.41
2025-08-15T05:07:31.181Z,15,GR86-022-13,-1.6,0.25,0.29,99.97,3.0,,0.0,0.0,
2025-08-15T05:07:31.224Z,15,GR86-022-13,-1.0,0.258,0.231,100.03,3.0,,0.0,0.0,
2025-08-15T05:07:31.268Z,15,GR86-022-13,0.0,0.232,0.199,100.01,3.0,,0.0,0.0,
2025-08-15T05:07:31.310Z,15,GR86-022-13,1.8,0.182,0.138,99.97,3.0,7181.0,0.0,0.0,
2025-08-15T05:07:31.353Z,15,GR86-022-13,2.0,0.167,0.118,99.97,3.0,,0.0,0.0,151.73
2025-08-15T05:07:31.397Z,15,GR86-022-13,2.0,0.215,0.089,99.96,3.0,,0.0,0.0,
2025-08-15T05:07:31.441Z,15,GR86-022-13,2.0,0.104,0.067,99.98,3.0,,0.0,0.0,
2025-08-15T05:07:31.484Z,15,GR86-022-13,2.0,-0.138,0.112,99.99,4.0,,0.0,0.0,
2025-08-15T05:07:31.528Z,15,GR86-022-13,2.0,0.45,0.152,100.0,4.0,7210.0,0.0,0.0,
2025-08-15T05:07:31.570Z,15,GR86-022-13,2.0,0.358,0.051,99.99,4.0,,0.0,0.0,153.77
2025-08-15T05:07:31.613Z,15,GR86-022-13,1.9,0.232,0.141,99.99,4.0,,0.0,0.0,
2025-08-15T05:07:31.657Z,15,GR86-022-13,1.8,0.084,0.155,100.0,4.0,,0.0,0.0,
2025-08-15T05:07:31.699Z,15,GR86-022-13,1.8,0.238,0.106,100.01,4.0,,0.0,0.0,
2025-08-15T05:07:31.743Z,15,GR86-022-13,1.8,0.216,0.193,100.0,4.0,6906.0,0.0,0.0,
2025-08-15T05:07:31.787Z,15,GR86-022-13,1.7000000000000002,0.235,0.16,100.0,4.0,,0.0,0.0,155.3
2025-08-15T05:07:31.829Z,15,GR86-022-13,1.7000000000000002,0.195,0.114,100.0,4.0,,0.0,0.0,
2025-08-15T05:07:31.872Z,15,GR86-022-13,1.5,0.178,0.176,100.0,4.0,,0.0,0.0,
2025-08-15T05:07:31.915Z,15,GR86-022-13,1.5,0.164,0.157,100.0,4.0,,0.0,0.0,
2025-08-15T05:07:31.958Z,15,GR86-022-13,1.2000000000000002,0.202,0.143,100.01,4.0,6234.0,0.0,0.0,
2025-08-15T05:07:32.001Z,15,GR86-022-13,1.0,0.2,0.157,99.98,4.0,,0.0,0.0,156.79
2025-08-15T05:07:32.044Z,15,GR86-022-13,1.0,0.158,0.132,99.99,4.0,,0.0,0.0,
2025-08-15T05:07:32.088Z,15,GR86-022-13,0.9,0.149,0.153,100.0,4.0,,0.0,0.0,
2025-08-15T05:07:32.131Z,15,GR86-022-13,0.8,0.142,0.141,100.0,4.0,,0.0,0.0,
2025-08-15T05:07:32.173Z,15,GR86-022-13,0.8,0.136,0.126,99.99,4.0,6261.0,0.0,0.0,
2025-08-15T05:07:32.217Z,15,GR86-022-13,0.9,0.153,0.106,100.02,4.0,,0.0,0.0,158.37
2025-08-15T05:07:32.259Z,15,GR86-022-13,1.1,0.169,0.113,100.0,4.0,,0.0,0.0,
2025-08-15T05:07:32.302Z,15,GR86-022-13,1.6,0.125,0.115,100.0,4.0,,0.0,0.0,
2025-08-15T05:07:32.345Z,15,GR86-022-13,2.2,0.16,0.127,99.96,4.0,,0.0,0.0,
2025-08-15T05:07:32.388Z,15,GR86-022-13,2.4000000000000004,0.176,0.158,100.02,4.0,6316.0,0.0,0.0,
2025-08-15T05:07:32.431Z,15,GR86-022-13,2.5,0.22,0.145,100.01,4.0,,0.0,0.0,160.0
2025-08-15T05:07:32.474Z,15,GR86-022-13,2.5,0.203,0.126,100.0,4.0,,0.0,0.0,
2025-08-15T05:07:32.518Z,15,GR86-022-13,2.5,0.145,0.161,100.01,4.0,,0.0,0.0,
2025-08-15T05:07:32.561Z,15,GR86-022-13,2.5,0.154,0.168,100.01,4.0,,0.0,0.0,
2025-08-15T05:07:32.604Z,15,GR86-022-13,2.5,0.191,0.172,99.99,4.0,6376.0,0.0,0.0,
2025-08-15T05:07:32.649Z,15,GR86-022-13,2.5,0.2,0.177,100.01,4.0,,0.0,0.0,161.65
2025-08-15T05:07:32.691Z,15,GR86-022-13,2.5,0.202,0.173,99.98,4.0,,0.0,0.0,
2025-08-15T05:07:32.734Z,15,GR86-022-13,2.2,0.188,0.172,100.0,4.0,,0.0,0.0,
2025-08-15T05:07:32.779Z,15,GR86-022-13,0.8,0.166,0.18,100.0,4.0,,0.0,0.0,
2025-08-15T05:07:32.821Z,15,GR86-022-13,0.0,0.18,0.186,100.0,4.0,6433.0,0.0,0.0,
2025-08-15T05:07:32.864Z,15,GR86-022-13,-0.5,0.199,0.172,100.02,4.0,,0.0,0.0,163.28
2025-08-15T05:07:32.908Z,15,GR86-022-13,-0.6000000000000001,0.198,0.153,100.0,4.0,,0.0,0.0,
2025-08-15T05:07:32.950Z,15,GR86-022-13,-0.8,0.19,0.113,100.0,4.0,,0.0,0.0,
2025-08-15T05:07:32.993Z,15,GR86-022-13,-1.8,0.18,0.085,100.0,4.0,,0.0,0.0,
2025-08-15T05:07:33.037Z,15,GR86-022-13,-4.5,0.161,0.066,99.99,4.0,6493.0,0.0,0.0,
2025-08-15T05:07:33.080Z,15,GR86-022-13,-6.300000000000001,0.175,0.019,100.0,4.0,,0.0,0.0,166.48
2025-08-15T05:07:33.123Z,15,GR86-022-13,-7.4,0.2,-0.016,100.0,4.0,,0.0,0.0,
2025-08-15T05:07:33.167Z,15,GR86-022-13,-7.800000000000001,0.187,-0.061,100.0,4.0,,0.0,0.0,
2025-08-15T05:07:33.209Z,15,GR86-022-13,-7.800000000000001,0.192,-0.09,100.0,4.0,,0.0,0.0,
2025-08-15T05:07:33.252Z,15,GR86-022-13,-7.9,0.186,-0.138,100.0,4.0,6552.0,0.0,0.0,
2025-08-15T05:07:33.299Z,15,GR86-022-13,-8.6,0.166,-0.152,99.98,4.0,,0.0,0.0,168.04
2025-08-15T05:07:33.341Z,15,GR86-022-13,-9.6,0.159,-0.175,99.97,4.0,,0.0,0.0,
2025-08-15T05:07:33.384Z,15,GR86-022-13,-10.5,0.164,-0.202,99.99,4.0,,0.0,0.0,
2025-08-15T05:07:33.428Z,15,GR86-022-13,-10.8,0.185,-0.211,100.02,4.0,,0.0,0.0,
2025-08-15T05:07:33.470Z,15,GR86-022-13,-10.8,0.174,-0.231,99.98,4.0,6630.0,0.0,0.0,
2025-08-15T05:07:33.513Z,15,GR86-022-13,-10.8,0.182,-0.244,100.0,4.0,,0.0,0.0,169.6
2025-08-15T05:07:33.557Z,15,GR86-022-13,-11.0,0.132,-0.273,100.0,4.0,,0.0,0.0,
2025-08-15T05:07:33.599Z,15,GR86-022-13,-11.6,0.146,-0.277,99.99,4.0,,0.0,0.0,
2025-08-15T05:07:33.642Z,15,GR86-022-13,-12.5,0.153,-0.296,100.01,4.0,,0.0,0.0,
2025-08-15T05:07:33.685Z,15,GR86-022-13,-13.3,0.152,-0.301,100.01,4.0,6734.0,0.0,0.0,
2025-08-15T05:07:33.728Z,15,GR86-022-13,-13.7,0.163,-0.321,99.98,4.0,,0.0,0.0,171.12
2025-08-15T05:07:33.771Z,15,GR86-022-13,-13.8,0.168,-0.333,99.96,4.0,,0.0,0.0,
2025-08-15T05:07:33.814Z,15,GR86-022-13,-13.8,0.164,-0.342,99.99,4.0,,0.0,0.0,
2025-08-15T05:07:33.858Z,15,GR86-022-13,-13.8,0.127,-0.352,99.97,4.0,,0.0,0.0,
2025-08-15T05:07:33.901Z,15,GR86-022-13,-13.8,0.136,-0.353,99.97,4.0,6784.0,6.745,6.96,
2025-08-15T05:07:33.944Z,15,GR86-022-13,-13.8,0.1,-0.359,99.98,4.0,,5.19,5.465,172.54
2025-08-15T05:07:33.988Z,15,GR86-022-13,-13.8,0.113,-0.356,100.0,4.0,,4.47,5.0200000000000005,
2025-08-15T05:07:34.031Z,15,GR86-022-13,-13.8,0.082,-0.394,100.01,4.0,,10.44,10.715,
2025-08-15T05:07:34.075Z,15,GR86-022-13,-13.8,0.017,-0.411,100.03,4.0,,10.62,11.155,
2025-08-15T05:07:34.118Z,15,GR86-022-13,-13.8,-0.01,-0.439,100.0,4.0,6845.0,10.805,11.34,
2025-08-15T05:07:34.161Z,15,GR86-022-13,-14.8,-0.034,-0.45,100.0,4.0,,12.775,13.14,173.86
2025-08-15T05:07:34.204Z,15,GR86-022-13,-17.2,-0.055,-0.441,100.04,4.0,,11.125,11.81,
2025-08-15T05:07:34.248Z,15,GR86-022-13,-19.200000000000003,-0.014,-0.46,100.0,4.0,,5.05,5.74,
2025-08-15T05:07:34.291Z,15,GR86-022-13,-19.4,0.082,-0.486,100.0,4.0,,0.0,0.0,
2025-08-15T05:07:34.334Z,15,GR86-022-13,-18.0,0.116,-0.501,100.01,4.0,6877.0,0.0,0.0,
2025-08-15T05:07:34.379Z,15,GR86-022-13,-15.6,0.171,-0.481,100.0,4.0,,0.0,0.0,174.88
2025-08-15T05:07:34.421Z,15,GR86-022-13,-14.2,0.155,-0.48,100.0,4.0,,0.0,0.0,
2025-08-15T05:07:34.464Z,15,GR86-022-13,-13.2,0.167,-0.463,100.03,4.0,,0.0,0.0,
2025-08-15T05:07:34.508Z,15,GR86-022-13,-12.3,0.14,-0.46,100.0,4.0,,0.0,0.0,
2025-08-15T05:07:34.550Z,15,GR86-022-13,-11.3,0.176,-0.461,100.03,4.0,6890.0,0.0,0.0,
2025-08-15T05:07:34.593Z,15,GR86-022-13,-10.1,0.138,-0.454,100.03,4.0,,0.0,0.0,175.01
2025-08-15T05:07:34.637Z,15,GR86-022-13,-8.8,0.154,-0.389,99.98,4.0,,0.0,0.0,
2025-08-15T05:07:34.679Z,15,GR86-022-13,-7.800000000000001,0.172,-0.349,99.97,4.0,,0.0,0.0,
2025-08-15T05:07:34.722Z,15,GR86-022-13,-6.800000000000001,0.155,-0.305,99.99,4.0,,0.0,0.0,
2025-08-15T05:07:34.765Z,15,GR86-022-13,-6.300000000000001,0.188,-0.242,99.98,4.0,6952.0,0.0,0.0,
2025-08-15T05:07:34.808Z,15,GR86-022-13,-6.300000000000001,0.156,-0.195,99.97,4.0,,3.845,3.875,176.22
2025-08-15T05:07:34.851Z,15,GR86-022-13,-6.7,0.139,-0.148,99.97,4.0,,6.545,6.6850000000000005,
2025-08-15T05:07:34.894Z,15,GR86-022-13,-7.2,0.071,-0.104,97.4,4.0,,13.765,13.855,
2025-08-15T05:07:34.938Z,15,GR86-022-13,-7.7,-0.199,-0.121,7.97,4.0,,29.24,29.21,
2025-08-15T05:07:34.981Z,15,GR86-022-13,-7.9,-0.382,-0.096,3.29,4.0,6992.0,41.34,41.02,
2025-08-15T05:07:35.024Z,15,GR86-022-13,-8.9,-0.755,-0.059,3.21,4.0,,55.945,55.395,177.59
2025-08-15T05:07:35.068Z,15,GR86-022-13,-9.2,-1.018,-0.035,3.19,4.0,,66.93,66.455,
2025-08-15T05:07:35.111Z,15,GR86-022-13,-9.8,-1.2,-0.082,3.11,4.0,,65.58500000000001,66.135,
2025-08-15T05:07:35.153Z,15,GR86-022-13,-9.8,-0.98,-0.075,3.06,4.0,,47.46,48.620000000000005,
2025-08-15T05:07:35.197Z,15,GR86-022-13,-7.2,-0.784,-0.101,2.95,4.0,7023.0,26.6,27.68,
2025-08-15T05:07:35.241Z,15,GR86-022-13,-4.4,-0.765,-0.116,2.86,4.0,,23.775,24.585,178.88
2025-08-15T05:07:35.284Z,15,GR86-022-13,-4.0,-0.602,-0.107,2.8000000000000003,4.0,,25.085,25.635,
2025-08-15T05:07:35.328Z,15,GR86-022-13,-5.300000000000001,-0.618,-0.104,2.72,4.0,,26.6,27.055,
2025-08-15T05:07:35.370Z,15,GR86-022-13,-8.200000000000001,-0.622,-0.118,2.66,4.0,,30.995,31.235,
2025-08-15T05:07:35.413Z,15,GR86-022-13,-11.7,-0.776,-0.124,2.63,4.0,6511.0,39.31,39.495,
2025-08-15T05:07:35.457Z,15,GR86-022-13,-14.3,-1.003,-0.128,5.5,4.0,,57.33,57.41,176.61
2025-08-15T05:07:35.499Z,15,GR86-022-13,-14.3,-1.144,-0.161,47.94,3.0,,67.785,67.615,
2025-08-15T05:07:35.542Z,15,GR86-022-13,-12.9,-1.279,-0.174,31.53,3.0,,67.665,67.97,
2025-08-15T05:07:35.585Z,15,GR86-022-13,-9.2,-1.177,-0.169,4.69,3.0,,62.4,63.865,
2025-08-15T05:07:35.628Z,15,GR86-022-13,-7.2,-1.264,-0.145,3.85,3.0,6504.0,62.095,63.465,
2025-08-15T05:07:35.671Z,15,GR86-022-13,-8.1,-1.253,-0.193,3.48,3.0,,62.43,62.625,171.07
2025-08-15T05:07:35.714Z,15,GR86-022-13,-11.0,-1.166,-0.064,3.29,3.0,,66.49,67.555,
2025-08-15T05:07:35.758Z,15,GR86-022-13,-9.3,-1.019,-0.431,3.14,3.0,,63.955,64.275,
2025-08-15T05:07:35.800Z,15,GR86-022-13,-6.5,-1.024,-0.26,3.06,3.0,,56.585,57.025,
2025-08-15T05:07:35.843Z,15,GR86-022-13,-3.3000000000000003,-0.985,-0.249,2.96,3.0,6354.0,54.525,55.775,
2025-08-15T05:07:35.887Z,15,GR86-022-13,-3.2,-1.0,-0.362,2.86,3.0,,55.455,56.28,159.8
2025-08-15T05:07:35.929Z,15,GR86-022-13,-6.300000000000001,-1.092,-0.259,2.76,3.0,,56.34,56.935,
2025-08-15T05:07:35.972Z,15,GR86-022-13,-11.3,-1.056,-0.293,2.67,3.0,,57.18,58.185,
2025-08-15T05:07:36.058Z,15,GR86-022-13,-20.5,-1.056,-0.424,2.54,3.0,6627.0,60.14,61.39,
2025-08-15T05:07:36.101Z,15,GR86-022-13,-19.700000000000003,-1.037,-0.483,2.51,3.0,,62.095,63.175,151.01
2025-08-15T05:07:36.144Z,15,GR86-022-13,-18.0,-1.04,-0.484,2.5,3.0,,61.71,61.85,
2025-08-15T05:07:36.188Z,15,GR86-022-13,-16.1,-1.094,-0.434,2.5,3.0,,62.06,62.690000000000005,
2025-08-15T05:07:36.232Z,15,GR86-022-13,-13.8,-1.062,-0.461,2.5,3.0,,63.525,64.93,
2025-08-15T05:07:36.275Z,15,GR86-022-13,-8.4,-1.084,-0.539,8.15,3.0,6640.0,65.65,66.7,
2025-08-15T05:07:36.318Z,15,GR86-022-13,-1.2000000000000002,-1.086,-0.45,76.0,3.0,,69.37,69.495,143.59
2025-08-15T05:07:36.361Z,15,GR86-022-13,-2.3000000000000003,-1.097,-0.539,85.32000000000001,2.0,,73.49,74.5,
2025-08-15T05:07:36.404Z,15,GR86-022-13,-1.6,-1.061,-0.43,15.65,2.0,,71.05,72.01,
2025-08-15T05:07:36.448Z,15,GR86-022-13,-0.4,-1.162,-0.379,2.9,2.0,,69.435,70.865,
2025-08-15T05:07:36.491Z,15,GR86-022-13,-2.6,-1.062,-0.636,2.62,2.0,5848.0,65.65,66.105,
2025-08-15T05:07:36.534Z,15,GR86-022-13,-7.7,-1.102,-0.491,2.56,2.0,,57.59,58.4,137.89
2025-08-15T05:07:36.579Z,15,GR86-022-13,-20.9,-0.799,-0.708,2.54,2.0,,52.495000000000005,53.15,
2025-08-15T05:07:36.621Z,15,GR86-022-13,-25.5,-0.801,-0.899,2.54,2.0,,45.245,45.995,
2025-08-15T05:07:36.664Z,15,GR86-022-13,-25.9,-0.808,-0.806,2.53,2.0,,39.28,40.12,
2025-08-15T05:07:36.708Z,15,GR86-022-13,-26.1,-0.665,-0.866,2.54,2.0,6350.0,33.74,34.52,
2025-08-15T05:07:36.750Z,15,GR86-022-13,-26.700000000000003,-0.583,-1.025,2.54,2.0,,27.115,27.895,130.81
2025-08-15T05:07:36.793Z,15,GR86-022-13,-28.9,-0.594,-1.029,2.53,2.0,,24.11,24.43,
2025-08-15T05:07:36.837Z,15,GR86-022-13,-36.5,-0.52,-0.936,2.54,2.0,,20.48,20.845,
2025-08-15T05:07:36.881Z,15,GR86-022-13,-38.2,-0.512,-1.087,2.53,2.0,,18.295,19.075,
2025-08-15T05:07:36.924Z,15,GR86-022-13,-36.7,-0.449,-1.08,2.52,2.0,6608.0,15.99,16.71,
2025-08-15T05:07:36.968Z,15,GR86-022-13,-37.6,-0.45,-1.078,2.53,2.0,,14.3,14.91,124.31
2025-08-15T05:07:37.010Z,15,GR86-022-13,-41.0,-0.434,-1.143,2.53,2.0,,14.115,14.635,
2025-08-15T05:07:37.053Z,15,GR86-022-13,-42.7,-0.463,-1.113,2.52,2.0,,14.175,14.605,
2025-08-15T05:07:37.098Z,15,GR86-022-13,-41.2,-0.439,-1.138,2.51,2.0,,13.995,14.635,
2025-08-15T05:07:37.141Z,15,GR86-022-13,-34.1,-0.453,-1.2,2.5,2.0,6470.0,11.905,12.59,
2025-08-15T05:07:37.184Z,15,GR86-022-13,-24.9,-0.369,-1.135,2.51,2.0,,6.335,6.6850000000000005,119.99
2025-08-15T05:07:37.228Z,15,GR86-022-13,-24.1,-0.267,-1.127,2.52,2.0,,0.0,1.89,
2025-08-15T05:07:37.270Z,15,GR86-022-13,-31.0,-0.178,-1.145,2.52,2.0,,0.0,0.0,
2025-08-15T05:07:37.313Z,15,GR86-022-13,-38.400000000000006,-0.187,-1.222,2.51,2.0,,0.0,0.0,
2025-08-15T05:07:37.357Z,15,GR86-022-13,-42.5,-0.161,-1.256,2.52,2.0,6294.0,0.0,0.0,
2025-08-15T05:07:37.399Z,15,GR86-022-13,-40.8,-0.133,-1.274,2.51,2.0,,0.0,0.0,116.66
2025-08-15T05:07:37.443Z,15,GR86-022-13,-39.8,-0.159,-1.311,2.51,2.0,,0.0,0.0,
2025-08-15T05:07:37.487Z,15,GR86-022-13,-41.400000000000006,-0.145,-1.278,2.51,2.0,,0.0,0.0,
2025-08-15T05:07:37.529Z,15,GR86-022-13,-44.400000000000006,-0.147,-1.228,2.52,2.0,,0.0,0.0,
2025-08-15T05:07:37.572Z,15,GR86-022-13,-50.900000000000006,-0.184,-1.225,2.51,2.0,6183.0,0.0,0.0,
2025-08-15T05:07:37.615Z,15,GR86-022-13,-62.7,-0.148,-1.245,2.52,2.0,,0.0,0.0,113.85
2025-08-15T05:07:37.658Z,15,GR86-022-13,-77.4,-0.152,-1.29,2.5,2.0,,0.0,0.0,
2025-08-15T05:07:37.701Z,15,GR86-022-13,-78.0,-0.211,-1.32,2.5,2.0,,0.0,0.0,
2025-08-15T05:07:37.744Z,15,GR86-022-13,-75.2,-0.187,-1.391,2.5,2.0,,0.0,0.0,
2025-08-15T05:07:37.788Z,15,GR86-022-13,-72.8,-0.188,-1.378,2.5,2.0,6151.0,0.0,0.0,
2025-08-15T05:07:37.830Z,15,GR86-022-13,-72.5,-0.173,-1.363,2.5,2.0,,0.0,0.0,112.06
2025-08-15T05:07:37.873Z,15,GR86-022-13,-72.2,-0.185,-1.319,2.5,2.0,,0.0,0.0,
2025-08-15T05:07:37.917Z,15,GR86-022-13,-69.4,-0.17,-1.338,2.5,2.0,,0.0,0.0,
2025-08-15T05:07:37.961Z,15,GR86-022-13,-66.8,-0.158,-1.321,2.61,2.0,,0.0,0.0,
2025-08-15T05:07:38.005Z,15,GR86-022-13,-63.400000000000006,-0.158,-1.232,6.51,2.0,6078.0,0.0,0.0,
2025-08-15T05:07:38.048Z,15,GR86-022-13,-60.0,-0.185,-1.276,22.21,2.0,,0.0,0.0,110.01
2025-08-15T05:07:38.090Z,15,GR86-022-13,-58.3,-0.144,-1.22,27.92,2.0,,0.0,0.0,
2025-08-15T05:07:38.133Z,15,GR86-022-13,-57.900000000000006,-0.131,-1.269,30.99,2.0,,0.0,0.0,
2025-08-15T05:07:38.179Z,15,GR86-022-13,-57.1,-0.093,-1.201,34.08,2.0,,0.0,0.0,
2025-08-15T05:07:38.221Z,15,GR86-022-13,-54.0,-0.064,-1.151,39.67,2.0,6001.0,0.0,0.0,
2025-08-15T05:07:38.264Z,15,GR86-022-13,-49.2,0.137,-1.327,46.11,2.0,,0.0,0.0,108.83
2025-08-15T05:07:38.308Z,15,GR86-022-13,-44.6,0.302,-1.3,65.77,2.0,,0.0,0.0,
2025-08-15T05:07:38.350Z,15,GR86-022-13,-41.8,0.281,-1.116,98.41,2.0,,0.0,0.0,
2025-08-15T05:07:38.393Z,15,GR86-022-13,-41.3,0.207,-1.065,99.97,2.0,,0.0,0.0,
2025-08-15T05:07:38.437Z,15,GR86-022-13,-42.7,0.505,-1.186,100.04,2.0,5907.0,0.0,0.0,
2025-08-15T05:07:38.480Z,15,GR86-022-13,-45.400000000000006,0.449,-1.029,100.06,2.0,,0.0,0.0,105.88
2025-08-15T05:07:38.523Z,15,GR86-022-13,-49.400000000000006,0.338,-1.058,100.06,2.0,,0.0,0.0,
2025-08-15T05:07:38.567Z,15,GR86-022-13,-51.400000000000006,0.088,-1.081,100.03,2.0,,0.0,0.0,
2025-08-15T05:07:38.609Z,15,GR86-022-13,-50.900000000000006,-0.074,-1.03,100.06,2.0,,0.0,0.0,
2025-08-15T05:07:38.652Z,15,GR86-022-13,-47.1,-0.02,-1.0,100.03,2.0,6353.0,0.0,0.0,
2025-08-15T05:07:38.695Z,15,GR86-022-13,-43.5,0.074,-1.178,100.05,2.0,,0.0,0.0,105.66
2025-08-15T05:07:38.738Z,15,GR86-022-13,-42.8,0.047,-1.125,100.04,2.0,,0.0,0.0,
2025-08-15T05:07:38.781Z,15,GR86-022-13,-42.6,0.06,-0.981,100.06,2.0,,0.0,0.0,
2025-08-15T05:07:38.824Z,15,GR86-022-13,-42.3,-0.007,-0.991,100.04,2.0,,0.0,0.0,
2025-08-15T05:07:38.868Z,15,GR86-022-13,-41.3,0.221,-1.181,100.05,2.0,6383.0,0.0,0.0,
2025-08-15T05:07:38.911Z,15,GR86-022-13,-39.900000000000006,0.622,-1.311,100.03,2.0,,0.0,0.0,106.45
2025-08-15T05:07:38.954Z,15,GR86-022-13,-39.1,0.541,-1.214,100.03,2.0,,0.0,0.0,
2025-08-15T05:07:38.999Z,15,GR86-022-13,-31.8,0.328,-1.183,100.03,2.0,,0.0,0.0,
2025-08-15T05:07:39.041Z,15,GR86-022-13,-22.9,0.313,-1.211,100.03,2.0,,0.0,0.0,
2025-08-15T05:07:39.084Z,15,GR86-022-13,-14.7,0.288,-1.075,100.04,2.0,6756.0,0.0,0.0,
2025-08-15T05:07:39.128Z,15,GR86-022-13,-10.4,0.291,-1.044,100.04,2.0,,0.0,0.0,107.92
2025-08-15T05:07:39.170Z,15,GR86-022-13,-11.7,0.257,-0.969,100.03,2.0,,0.0,0.0,
2025-08-15T05:07:39.213Z,15,GR86-022-13,-15.1,0.274,-1.08,100.03,2.0,,0.0,0.0,
2025-08-15T05:07:39.257Z,15,GR86-022-13,-22.1,0.292,-1.018,100.03,2.0,,0.0,0.0,
2025-08-15T05:07:39.299Z,15,GR86-022-13,-28.0,0.294,-1.099,100.06,2.0,6558.0,0.0,0.0,
2025-08-15T05:07:39.342Z,15,GR86-022-13,-34.2,0.285,-1.11,100.05,2.0,,0.0,0.0,109.38
2025-08-15T05:07:39.385Z,15,GR86-022-13,-35.2,0.261,-1.149,100.03,2.0,,0.0,0.0,
2025-08-15T05:07:39.428Z,15,GR86-022-13,-30.8,0.258,-1.162,100.03,2.0,,0.0,0.0,
2025-08-15T05:07:39.471Z,15,GR86-022-13,-28.9,0.269,-1.176,100.03,2.0,,0.0,0.0,
2025-08-15T05:07:39.514Z,15,GR86-022-13,-30.9,0.278,-1.28,100.03,2.0,6680.0,0.0,0.0,
2025-08-15T05:07:39.558Z,15,GR86-022-13,-33.6,0.266,-1.26,100.03,2.0,,0.0,0.0,110.68
2025-08-15T05:07:39.601Z,15,GR86-022-13,-32.2,0.299,-1.298,100.03,2.0,,0.0,0.0,
2025-08-15T05:07:39.644Z,15,GR86-022-13,-28.1,0.291,-1.196,100.03,2.0,,0.0,0.0,
2025-08-15T05:07:39.688Z,15,GR86-022-13,-24.200000000000003,0.27,-1.128,100.04,2.0,,0.0,0.0,
2025-08-15T05:07:39.731Z,15,GR86-022-13,-23.6,0.275,-1.044,100.04,2.0,6738.0,0.0,0.0,
2025-08-15T05:07:39.774Z,15,GR86-022-13,-25.200000000000003,0.217,-1.071,100.03,2.0,,0.0,0.0,111.83
2025-08-15T05:07:39.818Z,15,GR86-022-13,-30.200000000000003,0.263,-1.076,100.04,2.0,,0.0,0.0,
2025-08-15T05:07:39.861Z,15,GR86-022-13,-33.5,0.293,-1.115,100.03,2.0,,0.0,0.0,
2025-08-15T05:07:39.904Z,15,GR86-022-13,-35.9,0.282,-1.102,100.03,2.0,,0.0,0.0,
2025-08-15T05:07:39.948Z,15,GR86-022-13,-35.9,0.244,-1.092,100.03,2.0,6747.0,0.0,0.0,
2025-08-15T05:07:39.991Z,15,GR86-022-13,-35.1,0.256,-1.122,100.03,2.0,,0.0,0.0,113.37
2025-08-15T05:07:40.034Z,15,GR86-022-13,-34.0,0.263,-1.1,100.04,2.0,,0.0,0.0,
2025-08-15T05:07:40.079Z,15,GR86-022-13,-26.0,0.304,-1.089,100.03,2.0,,0.0,0.0,
2025-08-15T05:07:40.121Z,15,GR86-022-13,-17.900000000000002,0.245,-1.059,100.03,2.0,,0.0,0.0,
2025-08-15T05:07:40.164Z,15,GR86-022-13,-10.9,0.268,-1.028,100.03,2.0,6860.0,0.0,0.0,
2025-08-15T05:07:40.250Z,15,GR86-022-13,-11.0,0.314,-1.029,100.04,2.0,,0.0,0.0,113.55
2025-08-15T05:07:40.293Z,15,GR86-022-13,-25.200000000000003,0.309,-1.069,100.03,2.0,,0.0,0.0,
2025-08-15T05:07:40.337Z,15,GR86-022-13,-33.800000000000004,0.28,-1.147,100.06,2.0,,0.0,0.0,
2025-08-15T05:07:40.379Z,15,GR86-022-13,-39.5,0.286,-1.133,100.03,2.0,6952.0,0.0,0.0,
2025-08-15T05:07:40.422Z,15,GR86-022-13,-45.0,0.266,-1.111,100.03,2.0,,0.0,0.0,114.55
2025-08-15T05:07:40.465Z,15,GR86-022-13,-48.0,0.261,-1.152,100.03,2.0,,0.0,0.0,
2025-08-15T05:07:40.508Z,15,GR86-022-13,-47.7,0.268,-1.081,100.02,2.0,,0.0,0.0,
2025-08-15T05:07:40.551Z,15,GR86-022-13,-45.5,0.25,-1.098,100.03,2.0,,0.0,0.0,
2025-08-15T05:07:40.594Z,15,GR86-022-13,-42.2,0.277,-1.114,100.03,2.0,7003.0,0.0,0.0,
2025-08-15T05:07:40.638Z,15,GR86-022-13,-36.2,0.217,-1.031,100.02,2.0,,0.0,0.0,115.98
2025-08-15T05:07:40.681Z,15,GR86-022-13,-33.2,0.233,-0.95,100.04,2.0,,0.0,0.0,
2025-08-15T05:07:40.723Z,15,GR86-022-13,-31.3,0.145,-0.944,100.01,2.0,,0.0,0.0,
2025-08-15T05:07:40.767Z,15,GR86-022-13,-29.8,0.142,-0.705,100.03,2.0,,0.0,0.0,
2025-08-15T05:07:40.809Z,15,GR86-022-13,-30.1,0.198,-0.536,100.03,2.0,7000.0,0.0,0.0,
2025-08-15T05:07:40.853Z,15,GR86-022-13,-30.6,0.182,-0.811,100.03,2.0,,0.0,0.0,117.57
2025-08-15T05:07:40.897Z,15,GR86-022-13,-30.8,0.277,-0.77,100.04,2.0,,0.0,0.0,
2025-08-15T05:07:40.941Z,15,GR86-022-13,-30.700000000000003,0.26,-0.773,100.01,2.0,,0.0,0.0,
2025-08-15T05:07:40.984Z,15,GR86-022-13,-30.1,0.291,-0.858,100.01,2.0,,0.0,0.0,
2025-08-15T05:07:41.028Z,15,GR86-022-13,-29.9,0.339,-0.843,100.01,2.0,7048.0,0.0,0.0,
2025-08-15T05:07:41.070Z,15,GR86-022-13,-30.1,0.271,-0.732,100.02,2.0,,0.0,0.0,119.01
2025-08-15T05:07:41.113Z,15,GR86-022-13,-29.3,0.269,-0.76,100.04,2.0,,0.0,0.0,
2025-08-15T05:07:41.157Z,15,GR86-022-13,-26.200000000000003,0.217,-0.5720000000000001,99.99,2.0,,0.0,0.0,
2025-08-15T05:07:41.199Z,15,GR86-022-13,-24.4,-0.108,-0.809,100.0,3.0,,0.0,0.0,
2025-08-15T05:07:41.242Z,15,GR86-022-13,-23.700000000000003,0.553,-0.581,100.01,3.0,7133.0,0.0,0.0,
2025-08-15T05:07:41.285Z,15,GR86-022-13,-23.6,0.634,-0.744,100.01,3.0,,0.0,0.0,122.38
2025-08-15T05:07:41.328Z,15,GR86-022-13,-25.700000000000003,0.423,-0.636,100.0,3.0,,0.0,0.0,
2025-08-15T05:07:41.371Z,15,GR86-022-13,-28.3,0.238,-0.502,100.0,3.0,,0.0,0.0,
2025-08-15T05:07:41.414Z,15,GR86-022-13,-30.3,0.177,-0.536,100.0,3.0,,0.0,0.0,
2025-08-15T05:07:41.458Z,15,GR86-022-13,-30.3,0.299,-0.616,99.99,3.0,7173.0,0.0,0.0,
2025-08-15T05:07:41.500Z,15,GR86-022-13,-27.6,0.332,-0.743,100.0,3.0,,0.0,0.0,124.27
2025-08-15T05:07:41.543Z,15,GR86-022-13,-23.700000000000003,0.266,-0.839,100.0,3.0,,0.0,0.0,
2025-08-15T05:07:41.629Z,15,GR86-022-13,-19.5,0.244,-0.558,99.99,3.0,,0.0,0.0,
2025-08-15T05:07:41.672Z,15,GR86-022-13,-17.6,0.112,-0.371,100.01,3.0,6231.0,0.0,0.0,
2025-08-15T05:07:41.715Z,15,GR86-022-13,-13.3,-0.058,-0.428,100.01,3.0,,0.0,0.0,125.8
2025-08-15T05:07:41.758Z,15,GR86-022-13,-6.5,0.342,-0.49,100.0,3.0,,0.0,0.0,
2025-08-15T05:07:41.801Z,15,GR86-022-13,-4.1000000000000005,0.227,-0.306,100.01,3.0,,0.0,0.0,
2025-08-15T05:07:41.844Z,15,GR86-022-13,-3.9,0.029,-0.159,100.03,3.0,,0.0,0.0,
2025-08-15T05:07:41.888Z,15,GR86-022-13,-2.9000000000000004,0.041,-0.07,100.0,3.0,5987.0,0.0,0.0,
2025-08-15T05:07:41.930Z,15,GR86-022-13,0.5,0.069,-0.116,100.0,3.0,,0.0,0.0,127.47
2025-08-15T05:07:41.973Z,15,GR86-022-13,4.5,0.295,0.02,100.01,3.0,,0.0,0.0,
2025-08-15T05:07:42.017Z,15,GR86-022-13,9.5,0.306,-0.029,100.03,3.0,,0.0,0.0,
2025-08-15T05:07:42.059Z,15,GR86-022-13,10.3,0.081,0.241,100.0,3.0,,0.0,0.0,
2025-08-15T05:07:42.102Z,15,GR86-022-13,8.200000000000001,0.297,0.127,100.01,3.0,6109.0,0.0,0.0,
2025-08-15T05:07:42.145Z,15,GR86-022-13,3.4000000000000004,0.477,0.101,100.01,3.0,,0.0,0.0,128.34
2025-08-15T05:07:42.188Z,15,GR86-022-13,-2.1,0.378,0.234,100.01,3.0,,0.0,0.0,
2025-08-15T05:07:42.231Z,15,GR86-022-13,-4.6000000000000005,0.089,0.239,100.0,3.0,,0.0,0.0,
2025-08-15T05:07:42.274Z,15,GR86-022-13,-2.4000000000000004,0.085,0.305,100.0,3.0,,0.0,0.0,
2025-08-15T05:07:42.318Z,15,GR86-022-13,3.7,0.305,0.297,100.01,3.0,6250.0,0.0,0.0,
2025-08-15T05:07:42.361Z,15,GR86-022-13,3.3000000000000003,0.314,0.39,100.0,3.0,,0.0,0.0,130.47
2025-08-15T05:07:42.404Z,15,GR86-022-13,0.7000000000000001,0.27,0.247,100.0,3.0,,0.0,0.0,
2025-08-15T05:07:42.448Z,15,GR86-022-13,-1.3,0.21,0.233,100.0,3.0,,0.0,0.0,
2025-08-15T05:07:42.491Z,15,GR86-022-13,-1.6,0.17,0.242,100.01,3.0,,0.0,0.0,
2025-08-15T05:07:42.534Z,15,GR86-022-13,-1.7000000000000002,0.236,0.18,100.03,3.0,6241.0,0.0,0.0,
2025-08-15T05:07:42.579Z,15,GR86-022-13,-3.8,0.236,0.176,100.0,3.0,,0.0,0.0,131.67000000000002
2025-08-15T05:07:42.621Z,15,GR86-022-13,-5.300000000000001,0.311,0.077,100.0,3.0,,0.0,0.0,
2025-08-15T05:07:42.664Z,15,GR86-022-13,-5.5,0.262,0.056,100.0,3.0,,0.0,0.0,
2025-08-15T05:07:42.708Z,15,GR86-022-13,-5.5,0.197,0.053,100.02,3.0,,0.0,0.0,
2025-08-15T05:07:42.750Z,15,GR86-022-13,-5.5,0.224,0.044,100.0,3.0,6257.0,0.0,0.0,
2025-08-15T05:07:42.793Z,15,GR86-022-13,-5.5,0.282,0.037,100.01,3.0,,0.0,0.0,133.06
2025-08-15T05:07:42.837Z,15,GR86-022-13,-5.5,0.271,0.003,100.0,3.0,,0.0,0.0,
2025-08-15T05:07:42.881Z,15,GR86-022-13,-5.4,0.271,-0.049,100.01,3.0,,0.0,0.0,
2025-08-15T05:07:42.924Z,15,GR86-022-13,-5.1000000000000005,0.218,-0.058,100.01,3.0,,0.0,0.0,
2025-08-15T05:07:42.968Z,15,GR86-022-13,-5.0,0.212,-0.04,100.02,3.0,6323.0,0.0,0.0,
2025-08-15T05:07:43.010Z,15,GR86-022-13,-4.4,0.277,-0.037,100.03,3.0,,0.0,0.0,134.69
2025-08-15T05:07:43.053Z,15,GR86-022-13,-3.7,0.269,-0.053,100.0,3.0,,0.0,0.0,
2025-08-15T05:07:43.097Z,15,GR86-022-13,-3.5,0.294,-0.034,100.01,3.0,,0.0,0.0,
2025-08-15T05:07:43.141Z,15,GR86-022-13,-3.9,0.229,-0.047,100.03,3.0,,0.0,0.0,
2025-08-15T05:07:43.184Z,15,GR86-022-13,-5.1000000000000005,0.2,-0.051,100.0,3.0,6391.0,0.0,0.0,
2025-08-15T05:07:43.228Z,15,GR86-022-13,-7.1000000000000005,0.234,-0.02,99.99,3.0,,0.0,0.0,136.06
2025-08-15T05:07:43.270Z,15,GR86-022-13,-8.9,0.297,-0.053,100.0,3.0,,0.0,0.0,
2025-08-15T05:07:43.313Z,15,GR86-022-13,-9.2,0.264,-0.116,100.02,3.0,,0.0,0.0,
2025-08-15T05:07:43.357Z,15,GR86-022-13,-8.1,0.271,-0.107,100.03,3.0,,0.0,0.0,
2025-08-15T05:07:43.399Z,15,GR86-022-13,-7.5,0.253,-0.141,100.01,3.0,6458.0,0.0,0.0,
2025-08-15T05:07:43.444Z,15,GR86-022-13,-7.4,0.187,-0.128,100.0,3.0,,0.0,0.0,137.68
2025-08-15T05:07:43.487Z,15,GR86-022-13,-7.4,0.22,-0.118,99.99,3.0,,0.0,0.0,
2025-08-15T05:07:43.529Z,15,GR86-022-13,-7.4,0.273,-0.144,100.0,3.0,,0.0,0.0,
2025-08-15T05:07:43.572Z,15,GR86-022-13,-7.4,0.268,-0.148,100.03,3.0,,0.0,0.0,
2025-08-15T05:07:43.615Z,15,GR86-022-13,-6.9,0.216,-0.176,100.01,3.0,6519.0,0.0,0.0,
2025-08-15T05:07:43.658Z,15,GR86-022-13,-4.0,0.232,-0.147,100.0,3.0,,0.0,0.0,139.19
2025-08-15T05:07:43.701Z,15,GR86-022-13,-1.9,0.218,-0.132,100.0,3.0,,0.0,0.0,
2025-08-15T05:07:43.744Z,15,GR86-022-13,-1.2000000000000002,0.195,-0.074,100.04,3.0,,0.0,0.0,
2025-08-15T05:07:43.788Z,15,GR86-022-13,-1.3,0.27,-0.042,100.02,3.0,,0.0,0.0,
2025-08-15T05:07:43.830Z,15,GR86-022-13,-1.9,0.285,-0.042,100.01,3.0,6603.0,0.0,0.0,
2025-08-15T05:07:43.873Z,15,GR86-022-13,-2.5,0.237,-0.047,100.0,3.0,,0.0,0.0,140.6
2025-08-15T05:07:43.917Z,15,GR86-022-13,-3.2,0.27,-0.002,99.99,3.0,,0.0,0.0,
2025-08-15T05:07:43.959Z,15,GR86-022-13,-3.3000000000000003,0.233,-0.017,100.0,3.0,,0.0,0.0,
2025-08-15T05:07:44.002Z,15,GR86-022-13,-3.3000000000000003,0.202,-0.008,100.0,3.0,,0.0,0.0,
2025-08-15T05:07:44.045Z,15,GR86-022-13,-3.3000000000000003,0.197,0.026,100.03,3.0,6659.0,0.0,0.0,
2025-08-15T05:07:44.088Z,15,GR86-022-13,-3.3000000000000003,0.263,0.017,99.99,3.0,,0.0,0.0,143.61
2025-08-15T05:07:44.132Z,15,GR86-022-13,-3.3000000000000003,0.255,0.002,100.0,3.0,,0.0,0.0,
2025-08-15T05:07:44.174Z,15,GR86-022-13,-3.3000000000000003,0.234,-0.023,100.01,3.0,,0.0,0.0,
2025-08-15T05:07:44.218Z,15,GR86-022-13,-3.0,0.29,-0.001,100.0,3.0,,0.0,0.0,
2025-08-15T05:07:44.261Z,15,GR86-022-13,-2.7,0.238,-0.016,99.99,3.0,6719.0,0.0,0.0,
2025-08-15T05:07:44.304Z,15,GR86-022-13,-2.4000000000000004,0.186,-0.018,99.98,3.0,,0.0,0.0,145.07
2025-08-15T05:07:44.348Z,15,GR86-022-13,-2.0,0.2,0.03,100.03,3.0,,0.0,0.0,
2025-08-15T05:07:44.391Z,15,GR86-022-13,-1.8,0.252,0.029,100.0,3.0,,0.0,0.0,
2025-08-15T05:07:44.434Z,15,GR86-022-13,-1.7000000000000002,0.272,0.02,99.98,3.0,,0.0,0.0,
2025-08-15T05:07:44.479Z,15,GR86-022-13,-2.3000000000000003,0.224,0.06,100.0,3.0,6865.0,0.0,0.0,
2025-08-15T05:07:44.521Z,15,GR86-022-13,-3.5,0.266,0.033,99.98,3.0,,0.0,0.0,146.44
2025-08-15T05:07:44.564Z,15,GR86-022-13,-4.1000000000000005,0.255,0.009,99.99,3.0,,0.0,0.0,
2025-08-15T05:07:44.608Z,15,GR86-022-13,-4.1000000000000005,0.232,-0.001,100.01,3.0,,0.0,0.0,
2025-08-15T05:07:44.650Z,15,GR86-022-13,-4.1000000000000005,0.188,-0.006,99.99,3.0,,0.0,0.0,
2025-08-15T05:07:44.693Z,15,GR86-022-13,-3.8,0.211,0.005,100.0,3.0,6921.0,0.0,0.0,
2025-08-15T05:07:44.737Z,15,GR86-022-13,-2.1,0.196,-0.039,99.97,3.0,,0.0,0.0,147.83
2025-08-15T05:07:44.779Z,15,GR86-022-13,-1.4,0.187,-0.01,100.0,3.0,,0.0,0.0,
2025-08-15T05:07:44.822Z,15,GR86-022-13,-1.4,0.243,0.001,100.02,3.0,,0.0,0.0,
2025-08-15T05:07:44.865Z,15,GR86-022-13,-1.9,0.25,-0.003,99.97,3.0,,0.0,0.0,
2025-08-15T05:07:44.908Z,15,GR86-022-13,-2.8000000000000003,0.261,-0.033,100.01,3.0,6996.0,0.0,0.0,
2025-08-15T05:07:44.951Z,15,GR86-022-13,-3.2,0.208,-0.021,100.04,3.0,,0.0,0.0,149.19
2025-08-15T05:07:44.994Z,15,GR86-022-13,-3.2,0.199,0.005,99.97,3.0,,0.0,0.0,
2025-08-15T05:07:45.038Z,15,GR86-022-13,-3.3000000000000003,0.257,-0.018,100.03,3.0,,0.0,0.0,
2025-08-15T05:07:45.081Z,15,GR86-022-13,-3.4000000000000004,0.194,-0.014,100.0,3.0,,0.0,0.0,
2025-08-15T05:07:45.124Z,15,GR86-022-13,-3.5,0.201,-0.004,100.0,3.0,7046.0,0.0,0.0,
2025-08-15T05:07:45.168Z,15,GR86-022-13,-3.8,0.188,0.001,100.02,3.0,,0.0,0.0,150.6
2025-08-15T05:07:45.210Z,15,GR86-022-13,-4.0,0.233,-0.001,100.0,3.0,,0.0,0.0,
2025-08-15T05:07:45.253Z,15,GR86-022-13,-4.1000000000000005,0.244,-0.028,100.0,3.0,,0.0,0.0,
2025-08-15T05:07:45.299Z,15,GR86-022-13,-3.5,0.207,-0.005,99.99,3.0,,0.0,0.0,
2025-08-15T05:07:45.341Z,15,GR86-022-13,-2.5,0.23,-0.012,100.0,3.0,7117.0,0.0,0.0,
2025-08-15T05:07:45.384Z,15,GR86-022-13,-2.2,0.255,-0.024,99.98,3.0,,0.0,0.0,151.93
2025-08-15T05:07:45.428Z,15,GR86-022-13,-2.2,0.235,-0.042,100.01,3.0,,0.0,0.0,
2025-08-15T05:07:45.513Z,15,GR86-022-13,-2.7,0.208,-0.025,100.01,3.0,,0.0,0.0,
2025-08-15T05:07:45.557Z,15,GR86-022-13,-4.800000000000001,0.23,-0.034,100.03,3.0,7182.0,0.0,0.0,
2025-08-15T05:07:45.599Z,15,GR86-022-13,-5.2,0.207,-0.034,99.97,3.0,,0.0,0.0,153.21
2025-08-15T05:07:45.642Z,15,GR86-022-13,-5.1000000000000005,-0.092,-0.022,100.0,4.0,,0.0,0.0,
2025-08-15T05:07:45.685Z,15,GR86-022-13,-5.2,0.225,0.018,100.0,4.0,,0.0,0.0,
2025-08-15T05:07:45.728Z,15,GR86-022-13,-4.6000000000000005,0.473,-0.096,100.0,4.0,,0.0,0.0,
2025-08-15T05:07:45.771Z,15,GR86-022-13,-4.9,0.269,-0.087,99.99,4.0,7238.0,0.0,0.0,
2025-08-15T05:07:45.814Z,15,GR86-022-13,-6.800000000000001,0.096,-0.017,100.0,4.0,,0.0,0.0,154.55
2025-08-15T05:07:45.858Z,15,GR86-022-13,-9.9,0.182,-0.152,99.97,4.0,,0.0,0.0,
2025-08-15T05:07:45.901Z,15,GR86-022-13,-10.2,0.259,-0.1,100.01,4.0,,0.0,0.0,
2025-08-15T05:07:45.944Z,15,GR86-022-13,-9.3,0.215,-0.123,100.01,4.0,,0.0,0.0,
2025-08-15T05:07:45.988Z,15,GR86-022-13,-7.9,0.152,-0.205,99.99,4.0,6821.0,0.0,0.0,
2025-08-15T05:07:46.031Z,15,GR86-022-13,-6.5,0.187,-0.145,99.99,4.0,,0.0,0.0,155.81
2025-08-15T05:07:46.074Z,15,GR86-022-13,-5.7,0.195,-0.142,100.0,4.0,,0.0,0.0,
2025-08-15T05:07:46.118Z,15,GR86-022-13,-4.800000000000001,0.203,-0.174,99.97,4.0,,0.0,0.0,
2025-08-15T05:07:46.161Z,15,GR86-022-13,-4.800000000000001,0.194,-0.144,100.0,4.0,,0.0,0.0,
2025-08-15T05:07:46.248Z,15,GR86-022-13,-5.2,0.175,-0.14,100.0,4.0,6267.0,0.0,0.0,156.99
2025-08-15T05:07:46.291Z,15,GR86-022-13,-6.9,0.175,-0.078,100.01,4.0,,0.0,0.0,
2025-08-15T05:07:46.334Z,15,GR86-022-13,-7.300000000000001,0.175,-0.072,100.0,4.0,,0.0,0.0,
2025-08-15T05:07:46.379Z,15,GR86-022-13,-7.300000000000001,0.181,-0.092,99.99,4.0,,0.0,0.0,
2025-08-15T05:07:46.421Z,15,GR86-022-13,-7.300000000000001,0.174,-0.09,100.0,4.0,6232.0,0.0,0.0,
2025-08-15T05:07:46.464Z,15,GR86-022-13,-7.300000000000001,0.168,-0.111,100.0,4.0,,0.0,0.0,158.06
2025-08-15T05:07:46.508Z,15,GR86-022-13,-7.300000000000001,0.18,-0.14,100.01,4.0,,0.0,0.0,
2025-08-15T05:07:46.550Z,15,GR86-022-13,-7.300000000000001,0.194,-0.137,99.99,4.0,,0.0,0.0,
2025-08-15T05:07:46.593Z,15,GR86-022-13,-7.300000000000001,0.196,-0.161,100.01,4.0,,0.0,0.0,
2025-08-15T05:07:46.637Z,15,GR86-022-13,-7.300000000000001,0.165,-0.135,99.99,4.0,6261.0,0.0,0.0,
2025-08-15T05:07:46.679Z,15,GR86-022-13,-7.300000000000001,0.188,-0.146,100.01,4.0,,0.0,0.0,160.37
2025-08-15T05:07:46.722Z,15,GR86-022-13,-7.300000000000001,0.19,-0.16,100.0,4.0,,0.0,0.0,
2025-08-15T05:07:46.765Z,15,GR86-022-13,-7.300000000000001,0.191,-0.154,100.0,4.0,,0.0,0.0,
2025-08-15T05:07:46.808Z,15,GR86-022-13,-7.300000000000001,0.173,-0.157,100.0,4.0,,0.0,0.0,
2025-08-15T05:07:46.851Z,15,GR86-022-13,-7.7,0.192,-0.153,100.0,4.0,6310.0,0.0,0.0,
2025-08-15T05:07:46.894Z,15,GR86-022-13,-8.700000000000001,0.168,-0.142,99.99,4.0,,0.0,0.0,161.47
2025-08-15T05:07:46.938Z,15,GR86-022-13,-9.6,0.194,-0.15,100.0,4.0,,0.0,0.0,
2025-08-15T05:07:46.981Z,15,GR86-022-13,-9.6,0.184,-0.174,100.02,4.0,,0.0,0.0,
2025-08-15T05:07:47.024Z,15,GR86-022-13,-9.6,0.18,-0.196,100.0,4.0,,0.0,0.0,
2025-08-15T05:07:47.068Z,15,GR86-022-13,-9.6,0.167,-0.19,100.0,4.0,6349.0,0.0,0.0,
2025-08-15T05:07:47.111Z,15,GR86-022-13,-9.6,0.161,-0.213,100.0,4.0,,0.0,0.0,162.49
2025-08-15T05:07:47.153Z,15,GR86-022-13,-9.6,0.161,-0.191,100.0,4.0,,0.0,0.0,
2025-08-15T05:07:47.197Z,15,GR86-022-13,-9.6,0.183,-0.241,99.99,4.0,,0.0,0.0,
2025-08-15T05:07:47.239Z,15,GR86-022-13,-9.6,0.165,-0.247,100.01,4.0,,0.0,0.0,
2025-08-15T05:07:47.282Z,15,GR86-022-13,-9.2,0.164,-0.243,100.0,4.0,6440.0,0.0,0.0,
2025-08-15T05:07:47.327Z,15,GR86-022-13,-8.9,0.16,-0.241,99.99,4.0,,0.0,0.0,163.51
2025-08-15T05:07:47.369Z,15,GR86-022-13,-8.0,0.158,-0.224,100.0,4.0,,0.0,0.0,
2025-08-15T05:07:47.412Z,15,GR86-022-13,-7.5,0.159,-0.214,100.0,4.0,,0.0,0.0,
2025-08-15T05:07:47.455Z,15,GR86-022-13,-7.5,0.178,-0.198,100.0,4.0,,0.0,0.0,
2025-08-15T05:07:47.498Z,15,GR86-022-13,-7.5,0.159,-0.207,100.0,4.0,6477.0,0.0,0.0,
2025-08-15T05:07:47.541Z,15,GR86-022-13,-7.5,0.148,-0.191,100.0,4.0,,0.0,0.0,164.5
2025-08-15T05:07:47.584Z,15,GR86-022-13,-7.5,0.147,-0.179,99.99,4.0,,0.0,0.0,
2025-08-15T05:07:47.628Z,15,GR86-022-13,-7.5,0.153,-0.143,100.0,4.0,,0.0,0.0,
2025-08-15T05:07:47.670Z,15,GR86-022-13,-7.5,0.165,-0.149,99.99,4.0,,0.0,0.0,
2025-08-15T05:07:47.713Z,15,GR86-022-13,-7.5,0.167,-0.147,100.01,4.0,6517.0,0.0,0.0,
2025-08-15T05:07:47.757Z,15,GR86-022-13,-7.300000000000001,0.144,-0.165,100.0,4.0,,0.0,0.0,165.58
2025-08-15T05:07:47.799Z,15,GR86-022-13,-6.4,0.152,-0.166,100.0,4.0,,0.0,0.0,
2025-08-15T05:07:47.842Z,15,GR86-022-13,-5.9,0.141,-0.147,100.01,4.0,,0.0,0.0,
2025-08-15T05:07:47.885Z,15,GR86-022-13,-5.6000000000000005,0.149,-0.127,100.0,4.0,,0.0,0.0,
2025-08-15T05:07:47.928Z,15,GR86-022-13,-5.1000000000000005,0.143,-0.118,100.0,4.0,6557.0,0.0,0.0,
2025-08-15T05:07:47.971Z,15,GR86-022-13,-4.7,0.164,-0.09,100.0,4.0,,0.0,0.0,166.65
2025-08-15T05:07:48.014Z,15,GR86-022-13,-4.4,0.164,-0.084,100.01,4.0,,0.0,0.0,
2025-08-15T05:07:48.058Z,15,GR86-022-13,-3.7,0.125,-0.07,99.99,4.0,,0.0,0.0,
2025-08-15T05:07:48.100Z,15,GR86-022-13,-3.2,0.131,-0.035,100.0,4.0,,0.0,0.0,
2025-08-15T05:07:48.143Z,15,GR86-022-13,-3.1,0.126,-0.009,100.0,4.0,6598.0,0.0,0.0,
2025-08-15T05:07:48.187Z,15,GR86-022-13,-3.0,0.143,0.003,99.97,4.0,,0.0,0.0,167.75
2025-08-15T05:07:48.229Z,15,GR86-022-13,-3.0,0.138,0.029,99.99,4.0,,0.0,0.0,
2025-08-15T05:07:48.272Z,15,GR86-022-13,-3.0,0.156,0.036,100.0,4.0,,0.0,0.0,
2025-08-15T05:07:48.315Z,15,GR86-022-13,-3.0,0.162,0.034,100.01,4.0,,0.0,0.0,
2025-08-15T05:07:48.358Z,15,GR86-022-13,-3.0,0.119,0.045,100.01,4.0,6628.0,0.0,0.0,
2025-08-15T05:07:48.401Z,15,GR86-022-13,-3.0,0.103,0.06,100.01,4.0,,0.0,0.0,168.72
2025-08-15T05:07:48.444Z,15,GR86-022-13,-3.0,0.124,0.049,100.02,4.0,,0.0,0.0,
2025-08-15T05:07:48.488Z,15,GR86-022-13,-3.0,0.135,0.035,99.98,4.0,,0.0,0.0,
2025-08-15T05:07:48.530Z,15,GR86-022-13,-3.2,0.132,0.042,99.97,4.0,,0.0,0.0,
2025-08-15T05:07:48.573Z,15,GR86-022-13,-3.7,0.146,0.036,100.0,4.0,6670.0,0.0,0.0,
2025-08-15T05:07:48.617Z,15,GR86-022-13,-4.1000000000000005,0.129,0.003,100.0,4.0,,0.0,0.0,169.74
2025-08-15T05:07:48.661Z,15,GR86-022-13,-5.0,0.125,-0.001,99.97,4.0,,0.0,0.0,
2025-08-15T05:07:48.704Z,15,GR86-022-13,-5.9,0.115,-0.007,99.99,4.0,,0.0,0.0,
2025-08-15T05:07:48.748Z,15,GR86-022-13,-5.9,0.107,-0.01,99.99,4.0,,0.0,0.0,
2025-08-15T05:07:48.791Z,15,GR86-022-13,-5.7,0.115,-0.016,100.0,4.0,6701.0,0.0,0.0,
2025-08-15T05:07:48.834Z,15,GR86-022-13,-5.300000000000001,0.136,-0.035,100.0,4.0,,0.0,0.0,170.67000000000002
2025-08-15T05:07:48.879Z,15,GR86-022-13,-4.5,0.154,-0.051,99.99,4.0,,0.0,0.0,
2025-08-15T05:07:48.921Z,15,GR86-022-13,-4.1000000000000005,0.129,-0.06,100.01,4.0,,0.0,0.0,
2025-08-15T05:07:48.964Z,15,GR86-022-13,-3.9,0.143,-0.066,100.0,4.0,,0.0,0.0,
2025-08-15T05:07:49.008Z,15,GR86-022-13,-3.7,0.124,-0.062,99.97,4.0,6739.0,0.0,0.0,
2025-08-15T05:07:49.050Z,15,GR86-022-13,-3.7,0.126,-0.029,99.97,4.0,,0.0,0.0,171.64
2025-08-15T05:07:49.093Z,15,GR86-022-13,-3.6,0.115,-0.031,100.0,4.0,,0.0,0.0,
2025-08-15T05:07:49.137Z,15,GR86-022-13,-3.5,0.17,-0.032,99.97,4.0,,0.0,0.0,
2025-08-15T05:07:49.181Z,15,GR86-022-13,-3.5,0.185,-0.026,99.96,4.0,,0.0,0.0,
2025-08-15T05:07:49.224Z,15,GR86-022-13,-3.5,0.18,-0.014,100.0,4.0,6774.0,0.0,0.0,
2025-08-15T05:07:49.268Z,15,GR86-022-13,-3.5,0.171,0.0,100.0,4.0,,0.0,0.0,172.59
2025-08-15T05:07:49.310Z,15,GR86-022-13,-3.5,0.172,0.007,99.98,4.0,,0.0,0.0,
2025-08-15T05:07:49.353Z,15,GR86-022-13,-3.5,0.147,0.016,100.0,4.0,,0.0,0.0,
2025-08-15T05:07:49.397Z,15,GR86-022-13,-3.6,0.132,0.01,99.98,4.0,,0.0,0.0,
2025-08-15T05:07:49.441Z,15,GR86-022-13,-3.7,0.155,0.021,99.98,4.0,6821.0,0.0,0.0,
2025-08-15T05:07:49.484Z,15,GR86-022-13,-3.8,0.136,0.013,100.01,4.0,,0.0,0.0,174.62
2025-08-15T05:07:49.528Z,15,GR86-022-13,-3.8,0.164,0.004,99.99,4.0,,0.0,0.0,
2025-08-15T05:07:49.570Z,15,GR86-022-13,-3.4000000000000004,0.153,0.028,99.97,4.0,,0.0,0.0,
2025-08-15T05:07:49.613Z,15,GR86-022-13,-2.1,0.181,-0.002,100.0,4.0,,0.0,0.0,
2025-08-15T05:07:49.657Z,15,GR86-022-13,-0.1,0.1,0.036,99.97,4.0,6859.0,0.0,0.0,
2025-08-15T05:07:49.700Z,15,GR86-022-13,0.3,0.115,0.041,99.99,4.0,,0.0,0.0,175.55
2025-08-15T05:07:49.744Z,15,GR86-022-13,0.3,0.11,0.068,100.01,4.0,,0.0,0.0,
2025-08-15T05:07:49.787Z,15,GR86-022-13,0.1,0.095,0.084,99.99,4.0,,0.0,0.0,
2025-08-15T05:07:49.829Z,15,GR86-022-13,-0.2,0.1,0.124,99.98,4.0,,0.0,0.0,
2025-08-15T05:07:49.872Z,15,GR86-022-13,-0.7000000000000001,0.11,0.126,100.03,4.0,6886.0,0.0,0.0,
2025-08-15T05:07:49.915Z,15,GR86-022-13,-0.8,0.1,0.13,100.0,4.0,,0.0,0.0,176.39
2025-08-15T05:07:49.958Z,15,GR86-022-13,-1.4,0.183,0.132,99.97,4.0,,0.0,0.0,
2025-08-15T05:07:50.001Z,15,GR86-022-13,-2.9000000000000004,0.174,0.114,100.0,4.0,,0.0,0.0,
2025-08-15T05:07:50.044Z,15,GR86-022-13,-4.6000000000000005,0.169,0.117,99.98,4.0,,0.0,0.0,
2025-08-15T05:07:50.088Z,15,GR86-022-13,-5.6000000000000005,0.183,0.074,99.97,4.0,6971.0,0.0,0.0,
2025-08-15T05:07:50.130Z,15,GR86-022-13,-6.5,0.16,0.026,100.0,4.0,,0.0,0.0,177.34
2025-08-15T05:07:50.173Z,15,GR86-022-13,-7.800000000000001,0.176,-0.003,99.97,4.0,,0.0,0.0,
2025-08-15T05:07:50.217Z,15,GR86-022-13,-8.8,0.157,-0.055,100.03,4.0,,0.0,0.0,
2025-08-15T05:07:50.259Z,15,GR86-022-13,-8.8,0.161,-0.076,100.0,4.0,,0.0,0.0,
2025-08-15T05:07:50.302Z,15,GR86-022-13,-8.9,0.172,-0.117,99.99,4.0,7003.0,0.0,0.0,
2025-08-15T05:07:50.345Z,15,GR86-022-13,-9.3,0.158,-0.139,100.03,4.0,,0.0,0.0,178.33
2025-08-15T05:07:50.388Z,15,GR86-022-13,-10.4,0.168,-0.166,100.0,4.0,,0.0,0.0,
2025-08-15T05:07:50.431Z,15,GR86-022-13,-11.6,0.168,-0.215,100.01,4.0,,0.0,0.0,
2025-08-15T05:07:50.474Z,15,GR86-022-13,-13.4,0.16,-0.245,100.01,4.0,,0.0,0.0,
2025-08-15T05:07:50.518Z,15,GR86-022-13,-17.900000000000002,0.147,-0.308,100.0,4.0,7042.0,0.0,0.0,
2025-08-15T05:07:50.561Z,15,GR86-022-13,-20.3,0.156,-0.367,100.03,4.0,,0.0,0.0,179.17000000000002
2025-08-15T05:07:50.604Z,15,GR86-022-13,-20.6,0.138,-0.434,100.01,4.0,,0.0,0.0,
2025-08-15T05:07:50.648Z,15,GR86-022-13,-19.200000000000003,0.142,-0.476,100.0,4.0,,0.0,0.0,
2025-08-15T05:07:50.691Z,15,GR86-022-13,-16.3,0.142,-0.51,100.0,4.0,,0.0,0.0,
2025-08-15T05:07:50.734Z,15,GR86-022-13,-14.3,0.141,-0.521,100.0,4.0,7077.0,0.0,0.0,
2025-08-15T05:07:50.779Z,15,GR86-022-13,-15.8,0.153,-0.525,100.0,4.0,,0.0,0.0,180.18
2025-08-15T05:07:50.821Z,15,GR86-022-13,-17.1,0.137,-0.551,100.0,4.0,,0.0,0.0,
2025-08-15T05:07:50.864Z,15,GR86-022-13,-17.7,0.133,-0.5640000000000001,99.99,4.0,,0.0,0.0,
2025-08-15T05:07:50.908Z,15,GR86-022-13,-17.7,0.14,-0.587,99.97,4.0,,0.0,0.0,
2025-08-15T05:07:50.950Z,15,GR86-022-13,-16.6,0.138,-0.592,100.0,4.0,7134.0,0.0,0.0,
2025-08-15T05:07:50.993Z,15,GR86-022-13,-13.8,0.139,-0.577,100.01,4.0,,0.0,0.0,181.23
2025-08-15T05:07:51.037Z,15,GR86-022-13,-10.2,0.14,-0.497,100.0,4.0,,0.0,0.0,
2025-08-15T05:07:51.079Z,15,GR86-022-13,-10.2,0.126,-0.43,100.02,4.0,,0.0,0.0,
2025-08-15T05:07:51.122Z,15,GR86-022-13,-11.4,0.135,-0.378,99.99,4.0,,0.0,0.0,
2025-08-15T05:07:51.165Z,15,GR86-022-13,-11.4,0.121,-0.366,99.96,4.0,7167.0,0.0,0.0,
2025-08-15T05:07:51.208Z,15,GR86-022-13,-9.4,0.147,-0.364,99.98,4.0,,0.0,0.0,182.17
2025-08-15T05:07:51.251Z,15,GR86-022-13,-6.2,0.145,-0.341,100.01,4.0,,0.0,0.0,
2025-08-15T05:07:51.294Z,15,GR86-022-13,-2.6,0.152,-0.303,100.0,4.0,,0.0,0.0,
2025-08-15T05:07:51.338Z,15,GR86-022-13,0.8,0.133,-0.234,100.01,4.0,,0.0,0.0,
2025-08-15T05:07:51.381Z,15,GR86-022-13,-1.3,0.108,-0.164,100.01,4.0,7192.0,0.0,0.0,
2025-08-15T05:07:51.424Z,15,GR86-022-13,-5.9,-0.165,-0.111,100.0,5.0,,0.0,0.0,183.11
2025-08-15T05:07:51.468Z,15,GR86-022-13,-9.1,0.387,-0.046,100.0,5.0,,0.0,0.0,
2025-08-15T05:07:51.510Z,15,GR86-022-13,-9.7,0.242,-0.155,100.0,5.0,,0.0,0.0,
2025-08-15T05:07:51.553Z,15,GR86-022-13,-9.6,0.044,-0.066,100.0,5.0,,0.0,0.0,
2025-08-15T05:07:51.599Z,15,GR86-022-13,-8.8,0.13,-0.077,100.0,5.0,7224.0,0.0,0.0,
2025-08-15T05:07:51.641Z,15,GR86-022-13,-7.6,0.219,-0.155,100.0,5.0,,0.0,0.0,183.79
2025-08-15T05:07:51.684Z,15,GR86-022-13,-6.1000000000000005,0.124,-0.113,100.0,5.0,,0.0,0.0,
2025-08-15T05:07:51.728Z,15,GR86-022-13,-5.0,0.115,-0.173,100.01,5.0,,0.0,0.0,
2025-08-15T05:07:51.770Z,15,GR86-022-13,-5.0,0.149,-0.196,100.0,5.0,,0.0,0.0,
2025-08-15T05:07:51.813Z,15,GR86-022-13,-5.0,0.159,-0.164,100.0,5.0,6605.0,0.0,0.0,
2025-08-15T05:07:51.857Z,15,GR86-022-13,-4.9,0.12,-0.187,100.02,5.0,,0.0,0.0,184.85
2025-08-15T05:07:51.899Z,15,GR86-022-13,-4.9,0.139,-0.141,100.0,5.0,,0.0,0.0,
2025-08-15T05:07:51.942Z,15,GR86-022-13,-4.9,0.147,-0.113,100.0,5.0,,0.0,0.0,
2025-08-15T05:07:51.985Z,15,GR86-022-13,-5.7,0.129,-0.103,100.0,5.0,,0.0,0.0,
2025-08-15T05:07:52.028Z,15,GR86-022-13,-7.1000000000000005,0.138,-0.087,100.0,5.0,6292.0,0.0,0.0,
2025-08-15T05:07:52.071Z,15,GR86-022-13,-8.3,0.144,-0.083,100.0,5.0,,0.0,0.0,185.67
2025-08-15T05:07:52.114Z,15,GR86-022-13,-9.1,0.146,-0.098,99.97,5.0,,0.0,0.0,
2025-08-15T05:07:52.158Z,15,GR86-022-13,-9.4,0.143,-0.149,100.0,5.0,,0.0,0.0,
2025-08-15T05:07:52.201Z,15,GR86-022-13,-9.1,0.134,-0.16,100.01,5.0,,0.0,0.0,
2025-08-15T05:07:52.244Z,15,GR86-022-13,-7.5,0.145,-0.188,100.0,5.0,6348.0,0.0,0.0,
2025-08-15T05:07:52.288Z,15,GR86-022-13,-5.1000000000000005,0.141,-0.195,100.0,5.0,,0.0,0.0,187.43
2025-08-15T05:07:52.331Z,15,GR86-022-13,-3.5,0.146,-0.187,100.0,5.0,,0.0,0.0,
2025-08-15T05:07:52.374Z,15,GR86-022-13,-3.3000000000000003,0.141,-0.19,100.0,5.0,,0.0,0.0,
2025-08-15T05:07:52.418Z,15,GR86-022-13,-4.6000000000000005,0.135,-0.148,100.0,5.0,,0.0,0.0,
2025-08-15T05:07:52.461Z,15,GR86-022-13,-5.5,0.142,-0.132,100.01,5.0,6374.0,0.0,0.0,
2025-08-15T05:07:52.504Z,15,GR86-022-13,-6.2,0.123,-0.098,100.0,5.0,,0.0,0.0,188.26
2025-08-15T05:07:52.548Z,15,GR86-022-13,-6.7,0.128,-0.09,100.01,5.0,,0.0,0.0,
2025-08-15T05:07:52.591Z,15,GR86-022-13,-6.800000000000001,0.067,-0.102,99.99,5.0,,0.0,0.0,
2025-08-15T05:07:52.634Z,15,GR86-022-13,-6.800000000000001,0.004,-0.093,100.01,5.0,,0.0,0.0,
2025-08-15T05:07:52.679Z,15,GR86-022-13,-6.800000000000001,-0.065,-0.134,100.0,5.0,6442.0,0.0,0.0,
2025-08-15T05:07:52.721Z,15,GR86-022-13,-7.0,-0.049,-0.16,100.0,5.0,,0.0,0.0,189.18
2025-08-15T05:07:52.764Z,15,GR86-022-13,-7.1000000000000005,0.031,-0.207,100.0,5.0,,0.0,0.0,
2025-08-15T05:07:52.808Z,15,GR86-022-13,-7.1000000000000005,0.091,-0.217,100.01,5.0,,0.0,0.0,
2025-08-15T05:07:52.850Z,15,GR86-022-13,-7.2,0.095,-0.215,100.0,5.0,,0.0,0.0,
2025-08-15T05:07:52.893Z,15,GR86-022-13,-7.1000000000000005,0.129,-0.235,100.01,5.0,6452.0,0.0,0.0,
2025-08-15T05:07:52.937Z,15,GR86-022-13,-7.1000000000000005,0.144,-0.23,100.01,5.0,,0.0,0.0,190.07
2025-08-15T05:07:52.979Z,15,GR86-022-13,-7.1000000000000005,0.115,-0.209,99.99,5.0,,0.0,0.0,
2025-08-15T05:07:53.022Z,15,GR86-022-13,-7.1000000000000005,0.153,-0.188,100.0,5.0,,0.0,0.0,
2025-08-15T05:07:53.065Z,15,GR86-022-13,-7.1000000000000005,0.112,-0.177,100.01,5.0,,0.0,0.0,
2025-08-15T05:07:53.108Z,15,GR86-022-13,-7.1000000000000005,0.145,-0.19,100.0,5.0,6459.0,0.0,0.0,
2025-08-15T05:07:53.151Z,15,GR86-022-13,-7.1000000000000005,0.127,-0.189,100.0,5.0,,0.0,0.0,190.06
2025-08-15T05:07:53.194Z,15,GR86-022-13,-7.1000000000000005,0.125,-0.178,100.01,5.0,,0.0,0.0,
2025-08-15T05:07:53.238Z,15,GR86-022-13,-5.6000000000000005,0.156,-0.179,100.01,5.0,,0.0,0.0,
2025-08-15T05:07:53.281Z,15,GR86-022-13,-4.6000000000000005,0.15,-0.16,100.0,5.0,,0.0,0.0,
2025-08-15T05:07:53.324Z,15,GR86-022-13,-4.1000000000000005,0.134,-0.134,99.99,5.0,6484.0,0.0,0.0,
2025-08-15T05:07:53.368Z,15,GR86-022-13,-3.9,0.149,-0.116,100.01,5.0,,0.0,0.0,190.64
2025-08-15T05:07:53.411Z,15,GR86-022-13,-3.8,0.116,-0.078,99.98,5.0,,0.0,0.0,
2025-08-15T05:07:53.453Z,15,GR86-022-13,-3.7,0.131,-0.072,100.0,5.0,,0.0,0.0,
2025-08-15T05:07:53.497Z,15,GR86-022-13,-3.3000000000000003,0.161,-0.064,100.0,5.0,,0.0,0.0,
2025-08-15T05:07:53.539Z,15,GR86-022-13,-3.0,0.16,-0.048,100.0,5.0,6510.0,0.0,0.0,
2025-08-15T05:07:53.582Z,15,GR86-022-13,-2.6,0.15,-0.028,100.0,5.0,,0.0,0.0,191.62
2025-08-15T05:07:53.625Z,15,GR86-022-13,-2.3000000000000003,0.157,-0.008,100.01,5.0,,0.0,0.0,
2025-08-15T05:07:53.668Z,15,GR86-022-13,-2.0,0.132,0.009,100.0,5.0,,0.0,0.0,
2025-08-15T05:07:53.711Z,15,GR86-022-13,-1.8,0.127,0.016,100.0,5.0,,0.0,0.0,
2025-08-15T05:07:53.754Z,15,GR86-022-13,-1.7000000000000002,0.11,0.022,99.97,5.0,6554.0,0.0,0.0,
2025-08-15T05:07:53.798Z,15,GR86-022-13,-2.2,0.163,0.024,100.0,5.0,,0.0,0.0,192.5
2025-08-15T05:07:53.841Z,15,GR86-022-13,-3.4000000000000004,0.163,0.028,99.99,5.0,,0.0,0.0,
2025-08-15T05:07:53.884Z,15,GR86-022-13,-4.2,0.153,0.026,100.0,5.0,,0.0,0.0,
2025-08-15T05:07:53.928Z,15,GR86-022-13,-4.2,0.144,0.02,99.98,5.0,,0.0,0.0,
2025-08-15T05:07:53.971Z,15,GR86-022-13,-4.2,0.131,0.024,100.0,5.0,6583.0,0.0,0.0,
2025-08-15T05:07:54.014Z,15,GR86-022-13,-4.2,0.12,0.012,99.97,5.0,,0.0,0.0,193.48
2025-08-15T05:07:54.058Z,15,GR86-022-13,-4.5,0.166,-0.018,100.0,5.0,,0.0,0.0,
2025-08-15T05:07:54.100Z,15,GR86-022-13,-5.0,0.161,-0.058,99.99,5.0,,0.0,0.0,
2025-08-15T05:07:54.143Z,15,GR86-022-13,-5.1000000000000005,0.142,-0.069,100.0,5.0,,0.0,0.0,
2025-08-15T05:07:54.187Z,15,GR86-022-13,-5.1000000000000005,0.148,-0.064,100.0,5.0,6616.0,0.0,0.0,
2025-08-15T05:07:54.229Z,15,GR86-022-13,-5.1000000000000005,0.119,-0.067,100.0,5.0,,0.0,0.0,194.33
2025-08-15T05:07:54.272Z,15,GR86-022-13,-4.800000000000001,0.118,-0.062,100.01,5.0,,0.0,0.0,
2025-08-15T05:07:54.315Z,15,GR86-022-13,-3.9,0.099,-0.046,99.97,5.0,,0.0,0.0,
2025-08-15T05:07:54.358Z,15,GR86-022-13,-3.3000000000000003,0.155,-0.036,100.01,5.0,,0.0,0.0,
2025-08-15T05:07:54.401Z,15,GR86-022-13,-3.3000000000000003,0.145,-0.036,99.99,5.0,6643.0,0.0,0.0,
2025-08-15T05:07:54.444Z,15,GR86-022-13,-3.3000000000000003,0.127,-0.043,100.0,5.0,,0.0,0.0,195.2
2025-08-15T05:07:54.488Z,15,GR86-022-13,-3.5,0.118,-0.049,99.99,5.0,,0.0,0.0,
2025-08-15T05:07:54.530Z,15,GR86-022-13,-3.7,0.103,-0.049,100.0,5.0,,0.0,0.0,
2025-08-15T05:07:54.573Z,15,GR86-022-13,-3.7,0.104,-0.046,99.99,5.0,,0.0,0.0,
2025-08-15T05:07:54.617Z,15,GR86-022-13,-3.9,0.132,-0.039,99.99,5.0,6669.0,0.0,0.0,
2025-08-15T05:07:54.659Z,15,GR86-022-13,-4.7,0.13,-0.042,100.01,5.0,,0.0,0.0,196.14
2025-08-15T05:07:54.702Z,15,GR86-022-13,-5.5,0.102,-0.022,100.0,5.0,,0.0,0.0,
2025-08-15T05:07:54.745Z,15,GR86-022-13,-6.300000000000001,0.098,-0.049,100.0,5.0,,0.0,0.0,
2025-08-15T05:07:54.788Z,15,GR86-022-13,-7.0,0.078,-0.086,100.0,5.0,,0.0,0.0,
2025-08-15T05:07:54.831Z,15,GR86-022-13,-7.0,0.095,-0.103,99.99,5.0,6692.0,0.0,0.0,
2025-08-15T05:07:54.874Z,15,GR86-022-13,-7.0,0.097,-0.127,100.0,5.0,,0.0,0.0,196.98
2025-08-15T05:07:54.918Z,15,GR86-022-13,-6.2,0.069,-0.165,100.0,5.0,,0.0,0.0,
2025-08-15T05:07:54.961Z,15,GR86-022-13,-4.9,0.037,-0.173,99.97,5.0,,0.0,0.0,
2025-08-15T05:07:55.004Z,15,GR86-022-13,-4.0,0.007,-0.17,100.03,5.0,,0.0,0.0,
2025-08-15T05:07:55.048Z,15,GR86-022-13,-4.0,0.059,-0.156,100.0,5.0,6727.0,0.0,0.0,
2025-08-15T05:07:55.091Z,15,GR86-022-13,-4.0,0.074,-0.113,100.01,5.0,,0.0,0.0,198.73
2025-08-15T05:07:55.134Z,15,GR86-022-13,-3.6,0.124,-0.077,100.0,5.0,,0.0,0.0,
2025-08-15T05:07:55.179Z,15,GR86-022-13,-3.5,0.082,-0.033,100.02,5.0,,0.0,0.0,
2025-08-15T05:07:55.221Z,15,GR86-022-13,-3.8,0.081,-0.014,100.01,5.0,,0.0,0.0,
2025-08-15T05:07:55.264Z,15,GR86-022-13,-4.1000000000000005,0.115,0.004,100.0,5.0,6750.0,0.0,0.0,
2025-08-15T05:07:55.308Z,15,GR86-022-13,-4.1000000000000005,0.123,0.012,100.01,5.0,,0.0,0.0,199.45
2025-08-15T05:07:55.350Z,15,GR86-022-13,-4.1000000000000005,0.146,0.019,100.01,5.0,,0.0,0.0,
2025-08-15T05:07:55.393Z,15,GR86-022-13,-4.2,0.149,0.018,100.0,5.0,,0.0,0.0,
2025-08-15T05:07:55.437Z,15,GR86-022-13,-4.5,0.107,-0.001,100.01,5.0,,0.0,0.0,
2025-08-15T05:07:55.524Z,15,GR86-022-13,-5.2,0.126,-0.013,100.01,5.0,6787.0,0.0,0.0,199.73
2025-08-15T05:07:55.568Z,15,GR86-022-13,-5.5,0.166,-0.036,100.0,5.0,,0.0,0.0,
2025-08-15T05:07:55.610Z,15,GR86-022-13,-5.0,0.162,-0.04,100.01,5.0,,0.0,0.0,
2025-08-15T05:07:55.653Z,15,GR86-022-13,-4.0,0.147,-0.069,100.0,5.0,,0.0,0.0,
2025-08-15T05:07:55.697Z,15,GR86-022-13,-2.0,0.14,-0.058,100.01,5.0,6815.0,0.0,0.0,
2025-08-15T05:07:55.741Z,15,GR86-022-13,-1.5,0.161,-0.053,100.0,5.0,,0.0,0.0,200.48
2025-08-15T05:07:55.784Z,15,GR86-022-13,-1.5,0.156,-0.043,100.0,5.0,,0.0,0.0,
2025-08-15T05:07:55.828Z,15,GR86-022-13,-2.1,0.158,-0.042,100.0,5.0,,0.0,0.0,
2025-08-15T05:07:55.870Z,15,GR86-022-13,-2.6,0.125,-0.032,100.01,5.0,,0.0,0.0,
2025-08-15T05:07:55.913Z,15,GR86-022-13,-3.3000000000000003,0.096,-0.009,100.01,5.0,6847.0,0.0,0.0,
2025-08-15T05:07:55.957Z,15,GR86-022-13,-5.5,0.141,0.003,100.01,5.0,,0.0,0.0,201.37
2025-08-15T05:07:55.999Z,15,GR86-022-13,-7.0,0.139,-0.009,100.02,5.0,,0.0,0.0,
2025-08-15T05:07:56.042Z,15,GR86-022-13,-8.5,0.117,-0.035,100.01,5.0,,0.0,0.0,
2025-08-15T05:07:56.087Z,15,GR86-022-13,-9.7,0.099,-0.072,99.99,5.0,,0.0,0.0,
2025-08-15T05:07:56.129Z,15,GR86-022-13,-10.7,0.1,-0.112,100.0,5.0,6868.0,0.0,0.0,
2025-08-15T05:07:56.172Z,15,GR86-022-13,-10.9,0.092,-0.158,100.0,5.0,,0.0,0.0,202.26
2025-08-15T05:07:56.215Z,15,GR86-022-13,-10.3,0.138,-0.203,100.0,5.0,,0.0,0.0,
2025-08-15T05:07:56.258Z,15,GR86-022-13,-8.5,0.08,-0.258,100.02,5.0,,0.0,0.0,
2025-08-15T05:07:56.301Z,15,GR86-022-13,-7.2,0.095,-0.267,100.0,5.0,,0.0,0.0,
2025-08-15T05:07:56.344Z,15,GR86-022-13,-5.5,0.113,-0.287,99.98,5.0,6910.0,0.0,0.0,
2025-08-15T05:07:56.388Z,15,GR86-022-13,-3.6,0.138,-0.24,100.01,5.0,,0.0,0.0,202.85
2025-08-15T05:07:56.431Z,15,GR86-022-13,-2.8000000000000003,0.148,-0.201,100.01,5.0,,0.0,0.0,
2025-08-15T05:07:56.473Z,15,GR86-022-13,-2.6,0.128,-0.136,100.0,5.0,,0.0,0.0,
2025-08-15T05:07:56.517Z,15,GR86-022-13,-1.9,0.115,-0.059,100.02,5.0,,0.0,0.0,
2025-08-15T05:07:56.559Z,15,GR86-022-13,-1.2000000000000002,0.126,-0.004,100.02,5.0,6927.0,0.0,0.0,
2025-08-15T05:07:56.602Z,15,GR86-022-13,-0.3,0.123,0.044,100.0,5.0,,0.0,0.0,203.73
2025-08-15T05:07:56.645Z,15,GR86-022-13,0.1,0.112,0.07,100.03,5.0,,0.0,0.0,
2025-08-15T05:07:56.688Z,15,GR86-022-13,0.2,0.079,0.106,100.01,5.0,,0.0,0.0,
2025-08-15T05:07:56.731Z,15,GR86-022-13,0.2,0.065,0.114,100.0,5.0,,0.0,0.0,
2025-08-15T05:07:56.774Z,15,GR86-022-13,0.2,0.073,0.125,100.01,5.0,6961.0,0.0,0.0,
2025-08-15T05:07:56.818Z,15,GR86-022-13,0.3,0.106,0.141,99.99,5.0,,0.0,0.0,204.58
2025-08-15T05:07:56.861Z,15,GR86-022-13,0.9,0.064,0.154,99.99,5.0,,0.0,0.0,
2025-08-15T05:07:56.905Z,15,GR86-022-13,1.5,0.083,0.146,100.0,5.0,,0.0,0.0,
2025-08-15T05:07:56.948Z,15,GR86-022-13,2.3000000000000003,0.108,0.139,99.97,5.0,,0.0,0.0,
2025-08-15T05:07:56.991Z,15,GR86-022-13,3.5,0.112,0.161,100.0,5.0,6971.0,0.0,0.0,
2025-08-15T05:07:57.034Z,15,GR86-022-13,4.6000000000000005,0.133,0.193,100.01,5.0,,0.0,0.0,205.24
2025-08-15T05:07:57.078Z,15,GR86-022-13,6.6000000000000005,0.107,0.241,100.02,5.0,,0.0,0.0,
2025-08-15T05:07:57.121Z,15,GR86-022-13,7.1000000000000005,0.132,0.279,100.01,5.0,,0.0,0.0,
2025-08-15T05:07:57.164Z,15,GR86-022-13,6.5,0.137,0.329,100.0,5.0,,0.0,0.0,
2025-08-15T05:07:57.208Z,15,GR86-022-13,5.0,0.153,0.354,100.0,5.0,6994.0,0.0,0.0,
2025-08-15T05:07:57.250Z,15,GR86-022-13,3.6,0.114,0.345,100.0,5.0,,0.0,0.0,206.09
2025-08-15T05:07:57.293Z,15,GR86-022-13,3.3000000000000003,0.108,0.336,100.01,5.0,,0.0,0.0,
2025-08-15T05:07:57.337Z,15,GR86-022-13,5.7,0.127,0.361,100.03,5.0,,0.0,0.0,
2025-08-15T05:07:57.379Z,15,GR86-022-13,8.4,0.105,0.345,100.0,5.0,,0.0,0.0,
2025-08-15T05:07:57.422Z,15,GR86-022-13,9.8,0.103,0.347,100.0,5.0,7044.0,0.0,0.0,
2025-08-15T05:07:57.465Z,15,GR86-022-13,8.8,0.106,0.35,100.01,5.0,,0.0,0.0,206.85
2025-08-15T05:07:57.508Z,15,GR86-022-13,5.7,0.105,0.34,99.98,5.0,,0.0,0.0,
2025-08-15T05:07:57.551Z,15,GR86-022-13,3.4000000000000004,0.125,0.342,100.01,5.0,,0.0,0.0,
2025-08-15T05:07:57.594Z,15,GR86-022-13,3.9,0.117,0.357,99.97,5.0,,0.0,0.0,
2025-08-15T05:07:57.638Z,15,GR86-022-13,7.5,0.089,0.368,100.01,5.0,7047.0,0.0,0.0,
2025-08-15T05:07:57.681Z,15,GR86-022-13,9.9,0.106,0.401,100.01,5.0,,0.0,0.0,208.41
2025-08-15T05:07:57.723Z,15,GR86-022-13,10.7,0.106,0.43,100.0,5.0,,0.0,0.0,
2025-08-15T05:07:57.767Z,15,GR86-022-13,10.6,0.094,0.429,100.01,5.0,,0.0,0.0,
2025-08-15T05:07:57.809Z,15,GR86-022-13,10.0,0.055,0.418,100.0,5.0,,0.0,0.0,
2025-08-15T05:07:57.852Z,15,GR86-022-13,9.0,0.064,0.444,99.97,5.0,7085.0,0.0,0.0,
2025-08-15T05:07:57.895Z,15,GR86-022-13,7.2,0.076,0.433,100.01,5.0,,0.0,0.0,209.06
2025-08-15T05:07:57.938Z,15,GR86-022-13,5.300000000000001,0.069,0.44,99.98,5.0,,0.0,0.0,
2025-08-15T05:07:57.981Z,15,GR86-022-13,5.1000000000000005,0.045,0.39,99.99,5.0,,0.0,0.0,
2025-08-15T05:07:58.024Z,15,GR86-022-13,5.800000000000001,0.043,0.369,100.01,5.0,,0.0,0.0,
2025-08-15T05:07:58.068Z,15,GR86-022-13,6.0,0.073,0.338,99.97,5.0,7096.0,0.0,0.0,
2025-08-15T05:07:58.110Z,15,GR86-022-13,4.800000000000001,0.045,0.307,100.03,5.0,,0.0,0.0,209.73
2025-08-15T05:07:58.153Z,15,GR86-022-13,3.0,0.074,0.306,100.0,5.0,,0.0,0.0,
2025-08-15T05:07:58.199Z,15,GR86-022-13,2.8000000000000003,0.085,0.26,100.01,5.0,,0.0,0.0,
2025-08-15T05:07:58.241Z,15,GR86-022-13,4.800000000000001,0.078,0.274,100.01,5.0,,0.0,0.0,
2025-08-15T05:07:58.284Z,15,GR86-022-13,5.800000000000001,0.103,0.281,100.0,5.0,7113.0,0.0,0.0,
2025-08-15T05:07:58.328Z,15,GR86-022-13,4.7,0.091,0.25,100.02,5.0,,0.0,0.0,210.14
2025-08-15T05:07:58.370Z,15,GR86-022-13,2.6,0.075,0.259,99.98,5.0,,0.0,0.0,
2025-08-15T05:07:58.413Z,15,GR86-022-13,2.2,0.074,0.251,99.97,5.0,,0.0,0.0,
2025-08-15T05:07:58.457Z,15,GR86-022-13,5.300000000000001,0.096,0.226,100.0,5.0,,0.0,0.0,
2025-08-15T05:07:58.499Z,15,GR86-022-13,7.5,0.091,0.217,100.0,5.0,7152.0,0.0,0.0,
2025-08-15T05:07:58.542Z,15,GR86-022-13,7.5,0.086,0.214,100.01,5.0,,0.0,0.0,210.33
2025-08-15T05:07:58.585Z,15,GR86-022-13,5.300000000000001,0.108,0.227,99.97,5.0,,2.64,3.1,
2025-08-15T05:07:58.628Z,15,GR86-022-13,1.8,0.091,0.251,100.04,5.0,,2.61,2.795,
2025-08-15T05:07:58.671Z,15,GR86-022-13,-3.0,0.085,0.245,100.0,5.0,,0.0,0.0,
2025-08-15T05:07:58.714Z,15,GR86-022-13,-8.1,0.094,0.194,100.01,5.0,7160.0,0.0,0.0,
2025-08-15T05:07:58.758Z,15,GR86-022-13,-11.8,0.098,0.103,100.0,5.0,,0.0,0.0,211.0
2025-08-15T05:07:58.801Z,15,GR86-022-13,-8.6,0.095,0.032,100.01,5.0,,7.615,7.92,
2025-08-15T05:07:58.844Z,15,GR86-022-13,-1.8,0.071,-0.003,80.68,5.0,,13.43,13.765,
2025-08-15T05:07:58.888Z,15,GR86-022-13,4.800000000000001,-0.012,-0.038,32.82,5.0,,12.71,13.17,
2025-08-15T05:07:58.931Z,15,GR86-022-13,7.7,-0.066,0.019,2.42,5.0,7186.0,10.24,10.895,
2025-08-15T05:07:58.974Z,15,GR86-022-13,7.5,-0.108,0.028,3.36,5.0,,9.69,10.47,211.73
2025-08-15T05:07:59.018Z,15,GR86-022-13,7.5,-0.275,0.109,3.3000000000000003,5.0,,11.645,12.24,
2025-08-15T05:07:59.061Z,15,GR86-022-13,5.800000000000001,-0.47,0.156,3.24,5.0,,6.0600000000000005,6.775,
2025-08-15T05:07:59.104Z,15,GR86-022-13,2.2,-0.223,0.179,3.18,5.0,,0.0,0.0,
2025-08-15T05:07:59.148Z,15,GR86-022-13,-0.5,-0.13,0.265,3.08,5.0,7198.0,0.0,0.0,
2025-08-15T05:07:59.191Z,15,GR86-022-13,0.3,-0.162,0.24,2.98,5.0,,0.0,0.0,212.17
2025-08-15T05:07:59.234Z,15,GR86-022-13,3.2,-0.184,0.237,2.88,5.0,,0.0,0.0,
2025-08-15T05:07:59.279Z,15,GR86-022-13,4.9,-0.135,0.275,2.73,5.0,,3.465,3.585,
2025-08-15T05:07:59.321Z,15,GR86-022-13,4.0,-0.166,0.218,2.66,5.0,,0.0,0.0,
2025-08-15T05:07:59.364Z,15,GR86-022-13,3.5,-0.156,0.226,2.61,5.0,6983.0,0.0,0.0,
2025-08-15T05:07:59.408Z,15,GR86-022-13,4.5,-0.174,0.191,2.5500000000000003,5.0,,0.0,0.0,211.38
2025-08-15T05:07:59.450Z,15,GR86-022-13,6.4,-0.15,0.181,2.52,5.0,,0.0,0.0,
2025-08-15T05:07:59.493Z,15,GR86-022-13,6.7,-0.135,0.226,2.5,5.0,,0.0,0.0,
2025-08-15T05:07:59.537Z,15,GR86-022-13,1.6,-0.163,0.188,3.58,5.0,,0.0,0.0,
2025-08-15T05:07:59.579Z,15,GR86-022-13,-1.3,-0.14,0.191,21.04,5.0,7077.0,0.0,0.0,
2025-08-15T05:07:59.622Z,15,GR86-022-13,0.2,-0.152,0.173,29.91,5.0,,0.0,0.0,211.04
2025-08-15T05:07:59.665Z,15,GR86-022-13,4.2,-0.112,0.212,34.1,5.0,,0.0,0.0,
2025-08-15T05:07:59.708Z,15,GR86-022-13,6.5,-0.083,0.23,37.12,5.0,,0.0,0.0,
2025-08-15T05:07:59.751Z,15,GR86-022-13,5.1000000000000005,-0.095,0.246,36.69,5.0,,0.0,0.0,
2025-08-15T05:07:59.838Z,15,GR86-022-13,1.5,0.171,0.246,32.29,5.0,7039.0,0.0,0.0,210.01
2025-08-15T05:07:59.881Z,15,GR86-022-13,-2.9000000000000004,-0.138,0.145,4.94,5.0,,6.335,6.455,
2025-08-15T05:07:59.924Z,15,GR86-022-13,-1.5,-0.122,0.125,3.52,5.0,,11.46,11.58,
2025-08-15T05:07:59.968Z,15,GR86-022-13,-1.9,-0.299,0.095,3.42,5.0,,14.635,14.785,
2025-08-15T05:08:00.011Z,15,GR86-022-13,-4.2,-0.329,0.072,3.36,5.0,7032.0,17.12,17.185,
2025-08-15T05:08:00.053Z,15,GR86-022-13,-4.800000000000001,-0.515,0.023,3.24,5.0,,21.87,21.835,209.13
2025-08-15T05:08:00.097Z,15,GR86-022-13,-3.0,-0.484,-0.005,3.1,5.0,,21.12,21.805,
2025-08-15T05:08:00.141Z,15,GR86-022-13,-2.8000000000000003,-0.458,-0.019,2.98,5.0,,19.305,20.235,
2025-08-15T05:08:00.184Z,15,GR86-022-13,-2.7,-0.484,-0.037,2.87,5.0,,19.075,19.79,
2025-08-15T05:08:00.228Z,15,GR86-022-13,-2.4000000000000004,-0.46,-0.025,2.77,5.0,6993.0,19.425,19.9,
2025-08-15T05:08:00.270Z,15,GR86-022-13,-1.6,-0.482,-0.035,2.67,5.0,,22.675,22.845,208.58
2025-08-15T05:08:00.313Z,15,GR86-022-13,-0.2,-0.483,-0.012,2.63,5.0,,25.36,25.395,
2025-08-15T05:08:00.357Z,15,GR86-022-13,1.9,-0.632,0.015,2.56,5.0,,25.955,26.17,
2025-08-15T05:08:00.399Z,15,GR86-022-13,2.5,-0.531,0.046,2.52,5.0,,25.7,25.895,
2025-08-15T05:08:00.442Z,15,GR86-022-13,-0.1,-0.541,0.068,2.5,5.0,6862.0,25.425,25.835,
2025-08-15T05:08:00.485Z,15,GR86-022-13,-5.1000000000000005,-0.535,0.072,2.47,5.0,,26.05,25.955,203.85
2025-08-15T05:08:00.528Z,15,GR86-022-13,-9.3,-0.577,0.063,2.46,5.0,,25.605,25.835,
2025-08-15T05:08:00.571Z,15,GR86-022-13,-10.2,-0.554,-0.001,2.45,5.0,,25.99,26.14,
2025-08-15T05:08:00.614Z,15,GR86-022-13,-6.9,-0.626,-0.035,2.45,5.0,,30.185,30.045,
2025-08-15T05:08:00.658Z,15,GR86-022-13,-1.6,-0.723,-0.036,2.44,5.0,6764.0,39.615,39.28,
2025-08-15T05:08:00.700Z,15,GR86-022-13,-2.5,-0.792,0.019,2.45,5.0,,42.985,42.775,200.4
2025-08-15T05:08:00.743Z,15,GR86-022-13,-5.1000000000000005,-0.798,-0.01,2.46,5.0,,53.365,53.120000000000005,
2025-08-15T05:08:00.787Z,15,GR86-022-13,-5.300000000000001,-1.082,-0.063,2.45,5.0,,71.295,70.745,
2025-08-15T05:08:00.829Z,15,GR86-022-13,-2.7,-1.233,-0.051,2.46,5.0,,85.745,85.41,
2025-08-15T05:08:00.872Z,15,GR86-022-13,2.1,-1.331,-0.029,17.82,5.0,6656.0,96.105,97.19,
2025-08-15T05:08:00.915Z,15,GR86-022-13,4.9,-1.339,0.028,63.53,5.0,,100.87,101.77,196.55
2025-08-15T05:08:00.958Z,15,GR86-022-13,3.5,-1.357,0.099,99.92,5.0,,101.555,101.525,
2025-08-15T05:08:01.001Z,15,GR86-022-13,0.6000000000000001,-1.326,0.061,95.21,5.0,,100.55,101.675,
2025-08-15T05:08:01.044Z,15,GR86-022-13,-1.3,-1.275,0.072,29.45,4.0,,92.905,94.735,
2025-08-15T05:08:01.088Z,15,GR86-022-13,-1.2000000000000002,-1.275,0.121,4.04,4.0,6044.0,80.97,82.265,
2025-08-15T05:08:01.130Z,15,GR86-022-13,-2.9000000000000004,-1.294,0.111,3.29,4.0,,77.825,78.605,189.55
2025-08-15T05:08:01.173Z,15,GR86-022-13,-7.7,-1.206,0.119,3.16,4.0,,79.96000000000001,80.74,
2025-08-15T05:08:01.217Z,15,GR86-022-13,-11.1,-1.266,0.057,3.02,4.0,,82.08500000000001,82.65,
2025-08-15T05:08:01.259Z,15,GR86-022-13,-8.8,-1.279,0.031,2.94,4.0,,82.175,83.485,
2025-08-15T05:08:01.302Z,15,GR86-022-13,-4.9,-1.225,0.141,2.87,4.0,6354.0,84.145,84.555,
2025-08-15T05:08:01.345Z,15,GR86-022-13,-3.8,-1.327,0.152,38.85,4.0,,88.95,88.92,179.52
2025-08-15T05:08:01.388Z,15,GR86-022-13,-4.9,-1.282,0.147,67.65,3.0,,94.185,94.015,
2025-08-15T05:08:01.431Z,15,GR86-022-13,-4.1000000000000005,-1.35,0.084,8.88,3.0,,96.67,97.405,
2025-08-15T05:08:01.474Z,15,GR86-022-13,-0.8,-1.228,0.112,4.17,3.0,,98.425,100.455,
2025-08-15T05:08:01.518Z,15,GR86-022-13,3.7,-1.273,0.016,3.45,3.0,6243.0,97.77,98.625,
2025-08-15T05:08:01.561Z,15,GR86-022-13,3.2,-1.393,0.154,3.26,3.0,,98.365,99.955,171.9
2025-08-15T05:08:01.604Z,15,GR86-022-13,3.1,-1.286,0.176,3.16,3.0,,98.78,100.365,
2025-08-15T05:08:01.649Z,15,GR86-022-13,4.4,-1.136,0.006,3.0700000000000003,3.0,,94.46,94.37,
2025-08-15T05:08:01.691Z,15,GR86-022-13,5.4,-1.261,0.188,2.98,3.0,,93.18,93.805,
2025-08-15T05:08:01.734Z,15,GR86-022-13,5.1000000000000005,-1.244,0.155,2.91,3.0,6591.0,95.62,97.22,
2025-08-15T05:08:01.779Z,15,GR86-022-13,5.300000000000001,-1.351,0.187,2.77,3.0,,97.405,98.245,164.09
2025-08-15T05:08:01.821Z,15,GR86-022-13,5.5,-1.341,0.252,2.68,3.0,,100.245,102.21,
2025-08-15T05:08:01.864Z,15,GR86-022-13,3.4000000000000004,-1.35,0.174,2.63,3.0,,101.585,102.975,
2025-08-15T05:08:01.908Z,15,GR86-022-13,-4.800000000000001,-1.285,0.314,2.57,3.0,,100.7,101.355,
2025-08-15T05:08:01.950Z,15,GR86-022-13,-13.0,-1.272,0.252,2.54,3.0,6597.0,101.71,102.975,
2025-08-15T05:08:01.993Z,15,GR86-022-13,-20.1,-1.273,0.082,15.86,3.0,,103.28,104.5,154.15
2025-08-15T05:08:02.037Z,15,GR86-022-13,-13.3,-1.353,0.087,43.37,2.0,,102.625,102.835,
2025-08-15T05:08:02.081Z,15,GR86-022-13,-4.9,-1.33,0.02,5.63,2.0,,105.185,106.835,
2025-08-15T05:08:02.124Z,15,GR86-022-13,0.0,-1.308,0.171,3.9,2.0,,106.24,107.95,
2025-08-15T05:08:02.168Z,15,GR86-022-13,0.0,-1.38,0.167,3.47,2.0,6203.0,102.655,103.905,
2025-08-15T05:08:02.210Z,15,GR86-022-13,-0.6000000000000001,-1.199,0.22,3.26,2.0,,101.115,102.655,146.3
2025-08-15T05:08:02.253Z,15,GR86-022-13,0.0,-1.28,0.174,3.15,2.0,,98.96,100.365,
2025-08-15T05:08:02.297Z,15,GR86-022-13,0.6000000000000001,-1.415,0.155,3.0,2.0,,87.805,88.58500000000001,
2025-08-15T05:08:02.341Z,15,GR86-022-13,0.6000000000000001,-1.159,0.263,2.94,2.0,,82.89,83.87,
2025-08-15T05:08:02.384Z,15,GR86-022-13,3.2,-1.039,-0.046,2.85,2.0,6213.0,76.53,76.83500000000001,
2025-08-15T05:08:02.428Z,15,GR86-022-13,6.9,-1.279,0.176,2.76,2.0,,71.58500000000001,71.77,139.11
2025-08-15T05:08:02.470Z,15,GR86-022-13,8.6,-1.128,0.312,2.68,2.0,,66.245,67.265,
2025-08-15T05:08:02.513Z,15,GR86-022-13,10.7,-0.999,0.084,2.63,2.0,,63.71,64.33500000000001,
2025-08-15T05:08:02.557Z,15,GR86-022-13,13.7,-1.157,0.366,2.56,2.0,,62.78,63.65,
2025-08-15T05:08:02.599Z,15,GR86-022-13,17.2,-0.947,0.286,2.53,2.0,6152.0,60.52,61.24,
2025-08-15T05:08:02.643Z,15,GR86-022-13,23.6,-0.993,0.311,2.5,2.0,,57.47,57.745000000000005,129.52
2025-08-15T05:08:02.687Z,15,GR86-022-13,28.9,-1.008,0.539,2.47,2.0,,57.120000000000005,57.47,
2025-08-15T05:08:02.729Z,15,GR86-022-13,28.8,-1.023,0.494,2.47,2.0,,58.555,59.56,
2025-08-15T05:08:02.772Z,15,GR86-022-13,24.1,-1.019,0.553,2.47,2.0,,57.925,58.370000000000005,
2025-08-15T05:08:02.815Z,15,GR86-022-13,14.2,-1.03,0.627,2.47,2.0,6248.0,54.355,54.95,
2025-08-15T05:08:02.858Z,15,GR86-022-13,8.3,-0.993,0.47,2.48,2.0,,48.8,49.93,121.69
2025-08-15T05:08:02.901Z,15,GR86-022-13,10.2,-0.922,0.533,2.47,2.0,,47.015,47.93,
2025-08-15T05:08:02.944Z,15,GR86-022-13,16.3,-0.93,0.538,38.65,1.0,,47.275,47.96,
2025-08-15T05:08:02.988Z,15,GR86-022-13,19.3,-0.935,0.611,42.96,1.0,,47.735,48.205,
2025-08-15T05:08:03.030Z,15,GR86-022-13,15.3,-1.184,0.509,5.68,1.0,6175.0,48.115,49.17,
2025-08-15T05:08:03.073Z,15,GR86-022-13,13.1,-1.082,0.549,4.15,1.0,,50.28,51.395,114.61
2025-08-15T05:08:03.117Z,15,GR86-022-13,14.0,-1.088,0.53,3.65,1.0,,48.145,48.42,
2025-08-15T05:08:03.159Z,15,GR86-022-13,14.0,-1.068,0.593,3.35,1.0,,43.55,44.65,
2025-08-15T05:08:03.202Z,15,GR86-022-13,14.4,-0.776,0.725,3.17,1.0,,40.33,41.215,
2025-08-15T05:08:03.245Z,15,GR86-022-13,16.3,-0.892,0.706,3.0,1.0,5845.0,36.93,37.74,
2025-08-15T05:08:03.288Z,15,GR86-022-13,21.6,-0.8,0.857,2.86,1.0,,35.71,36.305,102.37
2025-08-15T05:08:03.331Z,15,GR86-022-13,25.1,-0.924,0.734,2.75,1.0,,33.65,34.715,
2025-08-15T05:08:03.374Z,15,GR86-022-13,29.0,-0.763,0.704,2.67,1.0,,31.71,32.475,
2025-08-15T05:08:03.418Z,15,GR86-022-13,41.7,-0.809,0.8150000000000001,2.58,1.0,,29.865,30.365,
2025-08-15T05:08:03.461Z,15,GR86-022-13,47.7,-0.77,0.76,2.54,1.0,5912.0,29.895,30.365,
2025-08-15T05:08:03.504Z,15,GR86-022-13,55.3,-0.7000000000000001,0.8170000000000001,2.5,1.0,,30.49,31.055,95.38
2025-08-15T05:08:03.548Z,15,GR86-022-13,57.0,-0.684,0.788,2.48,1.0,,28.69,29.5,
2025-08-15T05:08:03.633Z,15,GR86-022-13,57.2,-0.5650000000000001,0.907,2.48,1.0,,21.24,22.125,
2025-08-15T05:08:03.679Z,15,GR86-022-13,59.3,-0.531,0.868,2.47,1.0,6270.0,17.55,18.495,
2025-08-15T05:08:03.721Z,15,GR86-022-13,62.400000000000006,-0.519,0.89,2.48,1.0,,16.68,17.395,89.2
2025-08-15T05:08:03.764Z,15,GR86-022-13,64.4,-0.504,0.905,2.47,1.0,,15.475,16.405,
2025-08-15T05:08:03.808Z,15,GR86-022-13,67.7,-0.48,0.936,2.47,1.0,,14.785,15.43,
2025-08-15T05:08:03.850Z,15,GR86-022-13,69.4,-0.439,0.986,2.47,1.0,,14.175,14.97,
2025-08-15T05:08:03.893Z,15,GR86-022-13,70.8,-0.407,0.994,2.47,1.0,5893.0,13.61,14.36,
2025-08-15T05:08:03.937Z,15,GR86-022-13,71.10000000000001,-0.419,0.995,2.47,1.0,,11.645,12.5,84.51
2025-08-15T05:08:03.979Z,15,GR86-022-13,71.10000000000001,-0.385,1.028,2.47,1.0,,9.215,10.025,
2025-08-15T05:08:04.022Z,15,GR86-022-13,71.10000000000001,-0.355,1.072,2.47,1.0,,5.465,5.965,
2025-08-15T05:08:04.067Z,15,GR86-022-13,71.5,-0.261,1.114,2.47,1.0,,0.0,0.0,
2025-08-15T05:08:04.109Z,15,GR86-022-13,73.9,-0.19,1.13,2.48,1.0,5672.0,0.0,0.0,
2025-08-15T05:08:04.152Z,15,GR86-022-13,76.7,-0.198,1.108,2.47,1.0,,0.0,0.0,80.91
2025-08-15T05:08:04.195Z,15,GR86-022-13,81.80000000000001,-0.175,1.137,2.47,1.0,,0.0,0.0,
2025-08-15T05:08:04.238Z,15,GR86-022-13,84.4,-0.199,1.089,2.47,1.0,,0.0,0.0,
2025-08-15T05:08:04.281Z,15,GR86-022-13,84.5,-0.174,1.16,2.47,1.0,,0.0,0.0,
2025-08-15T05:08:04.324Z,15,GR86-022-13,84.2,-0.181,1.179,2.47,1.0,5457.0,0.0,0.0,
2025-08-15T05:08:04.368Z,15,GR86-022-13,83.80000000000001,-0.158,1.211,3.65,1.0,,0.0,0.0,78.13
2025-08-15T05:08:04.410Z,15,GR86-022-13,82.80000000000001,-0.162,1.212,20.51,1.0,,0.0,0.0,
2025-08-15T05:08:04.453Z,15,GR86-022-13,80.60000000000001,-0.181,1.163,19.94,1.0,,0.0,0.0,
2025-08-15T05:08:04.499Z,15,GR86-022-13,76.7,-0.13,1.261,24.9,1.0,,0.0,0.0,
2025-08-15T05:08:04.541Z,15,GR86-022-13,74.60000000000001,-0.089,1.209,26.21,1.0,5378.0,0.0,0.0,
2025-08-15T05:08:04.584Z,15,GR86-022-13,72.2,-0.089,1.214,30.61,1.0,,0.0,0.0,76.56
2025-08-15T05:08:04.628Z,15,GR86-022-13,68.9,-0.09,1.17,33.75,1.0,,0.0,0.0,
2025-08-15T05:08:04.670Z,15,GR86-022-13,67.5,0.167,1.164,34.37,1.0,,0.0,0.0,
2025-08-15T05:08:04.713Z,15,GR86-022-13,67.8,0.316,1.044,37.25,1.0,,0.0,0.0,
2025-08-15T05:08:04.757Z,15,GR86-022-13,69.2,0.321,1.246,41.59,1.0,5269.0,0.0,0.0,
2025-08-15T05:08:04.799Z,15,GR86-022-13,69.7,0.303,1.215,46.35,1.0,,0.0,0.0,75.16
2025-08-15T05:08:04.842Z,15,GR86-022-13,70.5,0.244,1.018,46.99,1.0,,0.0,0.0,
2025-08-15T05:08:04.885Z,15,GR86-022-13,72.10000000000001,0.12,1.027,53.66,1.0,,0.0,0.0,
2025-08-15T05:08:04.928Z,15,GR86-022-13,72.5,0.124,1.241,58.19,1.0,,0.0,0.0,
2025-08-15T05:08:04.971Z,15,GR86-022-13,71.3,0.366,0.989,59.56,1.0,5767.0,0.0,0.0,
2025-08-15T05:08:05.014Z,15,GR86-022-13,66.4,0.185,1.098,88.85000000000001,1.0,,0.0,0.0,74.12
2025-08-15T05:08:05.058Z,15,GR86-022-13,55.3,0.367,1.276,100.12,1.0,,0.0,0.0,
2025-08-15T05:08:05.101Z,15,GR86-022-13,49.0,0.439,1.061,100.05,1.0,,0.0,0.0,
2025-08-15T05:08:05.144Z,15,GR86-022-13,46.0,0.409,1.06,100.04,1.0,,0.0,0.0,
2025-08-15T05:08:05.188Z,15,GR86-022-13,45.6,0.545,1.212,100.04,1.0,5721.0,0.0,0.0,
2025-08-15T05:08:05.231Z,15,GR86-022-13,45.5,0.617,0.997,100.03,1.0,,0.0,0.0,74.21000000000001
2025-08-15T05:08:05.274Z,15,GR86-022-13,46.0,0.459,0.875,100.04,1.0,,0.0,0.0,
2025-08-15T05:08:05.318Z,15,GR86-022-13,55.3,0.216,0.89,100.04,1.0,,0.0,0.0,
2025-08-15T05:08:05.361Z,15,GR86-022-13,64.60000000000001,0.191,0.983,100.06,1.0,,0.0,0.0,
2025-08-15T05:08:05.404Z,15,GR86-022-13,71.3,0.296,0.87,100.08,1.0,6094.0,0.0,0.0,
2025-08-15T05:08:05.448Z,15,GR86-022-13,73.0,-0.13,1.146,100.05,1.0,,0.0,0.0,75.35000000000001
2025-08-15T05:08:05.491Z,15,GR86-022-13,72.0,0.361,1.032,100.03,1.0,,0.0,0.0,
2025-08-15T05:08:05.534Z,15,GR86-022-13,67.8,0.272,1.194,100.04,1.0,,0.0,0.0,
2025-08-15T05:08:05.579Z,15,GR86-022-13,62.5,0.448,1.077,100.03,1.0,,0.0,0.0,
2025-08-15T05:08:05.621Z,15,GR86-022-13,60.400000000000006,0.464,1.065,100.04,1.0,6010.0,0.0,0.0,
2025-08-15T05:08:05.664Z,15,GR86-022-13,57.0,0.346,1.093,100.05,1.0,,0.0,0.0,77.89
2025-08-15T05:08:05.708Z,15,GR86-022-13,53.3,0.255,1.028,100.04,1.0,,0.0,0.0,
2025-08-15T05:08:05.750Z,15,GR86-022-13,48.400000000000006,0.244,1.04,100.05,1.0,,0.0,0.0,
2025-08-15T05:08:05.837Z,15,GR86-022-13,43.1,0.373,0.972,100.05,1.0,6392.0,0.0,0.0,
2025-08-15T05:08:05.879Z,15,GR86-022-13,43.2,0.397,0.968,100.04,1.0,,0.0,0.0,82.48
2025-08-15T05:08:05.922Z,15,GR86-022-13,44.5,0.388,1.003,100.06,1.0,,0.0,0.0,
2025-08-15T05:08:05.965Z,15,GR86-022-13,46.400000000000006,0.39,0.954,100.05,1.0,,0.0,0.0,
2025-08-15T05:08:06.008Z,15,GR86-022-13,48.3,0.347,0.979,100.04,1.0,,0.0,0.0,
2025-08-15T05:08:06.051Z,15,GR86-022-13,48.400000000000006,0.354,0.998,100.04,1.0,6228.0,0.0,0.0,
2025-08-15T05:08:06.094Z,15,GR86-022-13,47.1,0.321,1.003,100.06,1.0,,0.0,0.0,84.48
2025-08-15T05:08:06.138Z,15,GR86-022-13,44.6,0.349,1.008,100.06,1.0,,0.0,0.0,
2025-08-15T05:08:06.181Z,15,GR86-022-13,44.0,0.372,0.986,100.04,1.0,,0.0,0.0,
2025-08-15T05:08:06.223Z,15,GR86-022-13,44.0,0.374,1.005,100.05,1.0,,0.0,0.0,
2025-08-15T05:08:06.267Z,15,GR86-022-13,44.1,0.38,0.973,100.06,1.0,6572.0,0.0,0.0,
2025-08-15T05:08:06.309Z,15,GR86-022-13,44.900000000000006,0.361,0.995,100.05,1.0,,0.0,0.0,86.5
2025-08-15T05:08:06.353Z,15,GR86-022-13,46.400000000000006,0.33,0.969,100.04,1.0,,0.0,0.0,
2025-08-15T05:08:06.397Z,15,GR86-022-13,49.5,0.356,0.992,100.07,1.0,,0.0,0.0,
2025-08-15T05:08:06.439Z,15,GR86-022-13,51.6,0.384,0.96,100.03,1.0,,0.0,0.0,
2025-08-15T05:08:06.482Z,15,GR86-022-13,52.8,0.361,0.965,100.04,1.0,6824.0,0.0,0.0,
2025-08-15T05:08:06.525Z,15,GR86-022-13,52.8,0.37,0.931,100.07,1.0,,0.0,0.0,88.81
2025-08-15T05:08:06.568Z,15,GR86-022-13,50.6,0.347,1.022,100.03,1.0,,0.0,0.0,
2025-08-15T05:08:06.611Z,15,GR86-022-13,47.1,0.374,0.85,100.04,1.0,,0.0,0.0,
2025-08-15T05:08:06.654Z,15,GR86-022-13,42.2,0.332,0.963,100.06,1.0,,0.0,0.0,
2025-08-15T05:08:06.698Z,15,GR86-022-13,33.5,0.288,0.6930000000000001,100.05,1.0,6989.0,0.0,0.0,
2025-08-15T05:08:06.741Z,15,GR86-022-13,26.700000000000003,0.285,0.708,100.04,1.0,,0.0,0.0,90.91
2025-08-15T05:08:06.784Z,15,GR86-022-13,21.0,0.362,0.793,100.04,1.0,,0.0,0.0,
2025-08-15T05:08:06.828Z,15,GR86-022-13,17.7,0.427,0.716,100.04,1.0,,0.0,0.0,
2025-08-15T05:08:06.871Z,15,GR86-022-13,16.2,0.311,0.529,100.03,1.0,,0.0,0.0,
2025-08-15T05:08:06.914Z,15,GR86-022-13,15.5,0.255,0.607,100.03,1.0,7143.0,0.0,0.0,
2025-08-15T05:08:06.958Z,15,GR86-022-13,13.5,0.201,0.65,100.03,2.0,,0.0,0.0,93.22
2025-08-15T05:08:07.000Z,15,GR86-022-13,9.7,-0.07,0.724,100.04,2.0,,0.0,0.0,
2025-08-15T05:08:07.043Z,15,GR86-022-13,6.4,0.371,0.351,100.04,2.0,,0.0,0.0,
2025-08-15T05:08:07.087Z,15,GR86-022-13,2.6,0.096,0.459,100.03,2.0,,0.0,0.0,
2025-08-15T05:08:07.129Z,15,GR86-022-13,0.3,0.5710000000000001,0.584,100.03,2.0,7214.0,0.0,0.0,
2025-08-15T05:08:07.172Z,15,GR86-022-13,-0.4,0.378,0.599,100.03,2.0,,0.0,0.0,94.59
2025-08-15T05:08:07.215Z,15,GR86-022-13,-0.6000000000000001,0.402,0.75,100.03,2.0,,0.0,0.0,
2025-08-15T05:08:07.258Z,15,GR86-022-13,2.1,-0.02,0.425,100.04,2.0,,0.0,0.0,
2025-08-15T05:08:07.301Z,15,GR86-022-13,8.700000000000001,0.043,0.301,100.03,2.0,,0.0,0.0,
2025-08-15T05:08:07.344Z,15,GR86-022-13,14.8,0.361,0.562,100.05,2.0,6278.0,0.0,0.0,
2025-08-15T05:08:07.388Z,15,GR86-022-13,18.7,0.577,0.713,100.03,2.0,,0.0,0.0,95.94
2025-08-15T05:08:07.430Z,15,GR86-022-13,18.3,0.506,0.633,100.04,2.0,,0.0,0.0,
2025-08-15T05:08:07.473Z,15,GR86-022-13,14.8,0.489,0.776,100.04,2.0,,0.0,0.0,
2025-08-15T05:08:07.517Z,15,GR86-022-13,5.7,0.314,0.587,100.04,2.0,,0.0,0.0,
2025-08-15T05:08:07.561Z,15,GR86-022-13,-0.2,0.464,0.587,100.03,2.0,5814.0,0.0,0.0,
2025-08-15T05:08:07.604Z,15,GR86-022-13,-2.9000000000000004,0.44,0.432,100.03,2.0,,0.0,0.0,98.27
2025-08-15T05:08:07.648Z,15,GR86-022-13,-1.4,0.487,0.599,100.04,2.0,,0.0,0.0,
2025-08-15T05:08:07.691Z,15,GR86-022-13,3.3000000000000003,0.454,0.353,100.05,2.0,,0.0,0.0,
2025-08-15T05:08:07.734Z,15,GR86-022-13,7.300000000000001,0.476,0.431,100.03,2.0,,0.0,0.0,
2025-08-15T05:08:07.778Z,15,GR86-022-13,8.700000000000001,0.317,0.345,100.03,2.0,6121.0,0.0,0.0,
2025-08-15T05:08:07.821Z,15,GR86-022-13,7.800000000000001,0.351,0.338,100.03,2.0,,0.0,0.0,99.91
2025-08-15T05:08:07.864Z,15,GR86-022-13,6.5,0.413,0.223,100.0,2.0,,0.0,0.0,
2025-08-15T05:08:07.908Z,15,GR86-022-13,5.800000000000001,0.428,0.198,100.01,2.0,,0.0,0.0,
2025-08-15T05:08:07.950Z,15,GR86-022-13,4.800000000000001,0.442,0.131,100.0,2.0,,0.0,0.0,
2025-08-15T05:08:07.993Z,15,GR86-022-13,3.6,0.404,0.073,100.04,2.0,5995.0,0.0,0.0,
2025-08-15T05:08:08.037Z,15,GR86-022-13,2.2,0.225,0.028,100.01,2.0,,0.0,0.0,101.83
2025-08-15T05:08:08.081Z,15,GR86-022-13,1.4,0.329,0.044,100.01,2.0,,0.0,0.0,
2025-08-15T05:08:08.124Z,15,GR86-022-13,0.6000000000000001,0.428,0.006,100.03,2.0,,0.0,0.0,
2025-08-15T05:08:08.168Z,15,GR86-022-13,-0.2,0.403,0.082,100.0,2.0,,0.0,0.0,
2025-08-15T05:08:08.210Z,15,GR86-022-13,-0.4,0.385,-0.007,100.04,2.0,6073.0,0.0,0.0,
2025-08-15T05:08:08.253Z,15,GR86-022-13,-0.4,0.393,-0.023,100.03,2.0,,0.0,0.0,103.75
2025-08-15T05:08:08.297Z,15,GR86-022-13,-0.7000000000000001,0.186,-0.044,100.01,2.0,,0.0,0.0,
2025-08-15T05:08:08.341Z,15,GR86-022-13,-1.6,0.224,-0.069,100.03,2.0,,0.0,0.0,
2025-08-15T05:08:08.384Z,15,GR86-022-13,-3.5,0.219,-0.061,100.0,2.0,,0.0,0.0,
2025-08-15T05:08:08.428Z,15,GR86-022-13,-5.800000000000001,0.198,-0.116,100.02,2.0,6259.0,0.0,0.0,
2025-08-15T05:08:08.470Z,15,GR86-022-13,-6.7,0.282,-0.12,100.0,2.0,,0.0,0.0,105.35
2025-08-15T05:08:08.513Z,15,GR86-022-13,-6.7,0.23,-0.151,100.01,2.0,,0.0,0.0,
2025-08-15T05:08:08.557Z,15,GR86-022-13,-6.2,0.352,-0.128,100.02,2.0,,0.0,0.0,
2025-08-15T05:08:08.599Z,15,GR86-022-13,-5.7,0.348,-0.196,100.0,2.0,,0.0,0.0,
2025-08-15T05:08:08.643Z,15,GR86-022-13,-5.5,0.306,-0.141,100.01,2.0,6290.0,0.0,0.0,
2025-08-15T05:08:08.687Z,15,GR86-022-13,-5.5,0.305,-0.18,100.01,2.0,,0.0,0.0,108.97
2025-08-15T05:08:08.729Z,15,GR86-022-13,-5.5,0.348,-0.182,100.03,2.0,,0.0,0.0,
2025-08-15T05:08:08.772Z,15,GR86-022-13,-5.5,0.294,-0.146,100.01,2.0,,0.0,0.0,
2025-08-15T05:08:08.815Z,15,GR86-022-13,-5.5,0.327,-0.146,100.01,2.0,,0.0,0.0,
2025-08-15T05:08:08.858Z,15,GR86-022-13,-5.5,0.332,-0.097,100.01,2.0,6371.0,0.0,0.0,
2025-08-15T05:08:08.901Z,15,GR86-022-13,-5.5,0.293,-0.098,100.03,2.0,,0.0,0.0,110.87
2025-08-15T05:08:08.944Z,15,GR86-022-13,-5.5,0.31,-0.057,100.01,2.0,,0.0,0.0,
2025-08-15T05:08:08.988Z,15,GR86-022-13,-5.5,0.33,-0.052,100.01,2.0,,0.0,0.0,
2025-08-15T05:08:09.031Z,15,GR86-022-13,-5.5,0.287,-0.053,100.03,2.0,,0.0,0.0,
2025-08-15T05:08:09.073Z,15,GR86-022-13,-5.5,0.318,-0.027,100.0,2.0,6449.0,0.0,0.0,
2025-08-15T05:08:09.117Z,15,GR86-022-13,-5.5,0.319,-0.043,99.99,2.0,,0.0,0.0,112.44
2025-08-15T05:08:09.159Z,15,GR86-022-13,-5.5,0.293,-0.075,100.02,2.0,,0.0,0.0,
2025-08-15T05:08:09.202Z,15,GR86-022-13,-5.5,0.286,-0.052,100.02,2.0,,0.0,0.0,
2025-08-15T05:08:09.245Z,15,GR86-022-13,-5.5,0.326,-0.059,100.0,2.0,,0.0,0.0,
2025-08-15T05:08:09.288Z,15,GR86-022-13,-5.5,0.313,-0.071,99.99,2.0,6614.0,0.0,0.0,
2025-08-15T05:08:09.331Z,15,GR86-022-13,-5.5,0.309,-0.055,100.01,2.0,,0.0,0.0,114.17
2025-08-15T05:08:09.374Z,15,GR86-022-13,-5.5,0.316,-0.078,100.01,2.0,,0.0,0.0,
2025-08-15T05:08:09.418Z,15,GR86-022-13,-5.5,0.319,-0.078,100.01,2.0,,0.0,0.0,
2025-08-15T05:08:09.461Z,15,GR86-022-13,-5.5,0.285,-0.08,100.0,2.0,,0.0,0.0,
2025-08-15T05:08:09.505Z,15,GR86-022-13,-5.5,0.293,-0.055,99.99,2.0,6715.0,0.0,0.0,
2025-08-15T05:08:09.548Z,15,GR86-022-13,-5.5,0.345,-0.081,100.01,2.0,,0.0,0.0,115.72
2025-08-15T05:08:09.590Z,15,GR86-022-13,-5.5,0.278,-0.068,100.0,2.0,,0.0,0.0,
2025-08-15T05:08:09.633Z,15,GR86-022-13,-5.5,0.303,-0.053,100.0,2.0,,0.0,0.0,
2025-08-15T05:08:09.679Z,15,GR86-022-13,-5.5,0.304,-0.052,100.0,2.0,,0.0,0.0,
2025-08-15T05:08:09.721Z,15,GR86-022-13,-5.5,0.327,-0.062,99.99,2.0,6804.0,0.0,0.0,
2025-08-15T05:08:09.764Z,15,GR86-022-13,-5.5,0.281,-0.064,99.99,2.0,,0.0,0.0,117.32
2025-08-15T05:08:09.808Z,15,GR86-022-13,-5.5,0.305,-0.033,100.02,2.0,,0.0,0.0,
2025-08-15T05:08:09.850Z,15,GR86-022-13,-5.5,0.335,-0.067,100.0,2.0,,0.0,0.0,
2025-08-15T05:08:09.893Z,15,GR86-022-13,-5.5,0.276,-0.061,100.01,2.0,,0.0,0.0,
2025-08-15T05:08:09.937Z,15,GR86-022-13,-5.5,0.268,-0.058,99.99,2.0,6878.0,0.0,0.0,
2025-08-15T05:08:09.979Z,15,GR86-022-13,-5.5,0.302,-0.034,99.98,2.0,,0.0,0.0,118.88
2025-08-15T05:08:10.022Z,15,GR86-022-13,-5.5,0.327,-0.065,100.0,2.0,,0.0,0.0,
2025-08-15T05:08:10.065Z,15,GR86-022-13,-5.5,0.268,-0.041,100.01,2.0,,0.0,0.0,
2025-08-15T05:08:10.108Z,15,GR86-022-13,-5.300000000000001,0.291,-0.033,100.01,2.0,,0.0,0.0,
2025-08-15T05:08:10.151Z,15,GR86-022-13,-4.2,0.334,-0.058,100.02,2.0,6963.0,0.0,0.0,
2025-08-15T05:08:10.194Z,15,GR86-022-13,-3.5,0.275,-0.027,99.99,2.0,,0.0,0.0,120.34
2025-08-15T05:08:10.238Z,15,GR86-022-13,-3.4000000000000004,0.273,-0.029,99.97,2.0,,0.0,0.0,
2025-08-15T05:08:10.280Z,15,GR86-022-13,-3.4000000000000004,0.284,-0.004,100.01,2.0,,0.0,0.0,
2025-08-15T05:08:10.323Z,15,GR86-022-13,-3.2,0.319,-0.017,99.98,2.0,,0.0,0.0,
2025-08-15T05:08:10.367Z,15,GR86-022-13,-2.5,0.262,-0.017,100.04,2.0,7029.0,0.0,0.0,
2025-08-15T05:08:10.409Z,15,GR86-022-13,-1.7000000000000002,0.287,0.013,100.0,2.0,,0.0,0.0,121.71
2025-08-15T05:08:10.452Z,15,GR86-022-13,-1.6,0.318,0.006,99.98,2.0,,0.0,0.0,
2025-08-15T05:08:10.495Z,15,GR86-022-13,-1.6,0.284,0.002,99.99,2.0,,0.0,0.0,
2025-08-15T05:08:10.538Z,15,GR86-022-13,-1.5,0.295,0.015,99.99,2.0,,0.0,0.0,
2025-08-15T05:08:10.581Z,15,GR86-022-13,-1.5,0.266,0.041,100.0,2.0,7105.0,0.0,0.0,
2025-08-15T05:08:10.624Z,15,GR86-022-13,-1.2000000000000002,0.292,0.038,99.97,2.0,,0.0,0.0,122.99
2025-08-15T05:08:10.668Z,15,GR86-022-13,-1.2000000000000002,0.287,0.03,100.04,2.0,,0.0,0.0,
2025-08-15T05:08:10.710Z,15,GR86-022-13,-1.2000000000000002,0.255,0.036,100.01,2.0,,0.0,0.0,
2025-08-15T05:08:10.753Z,15,GR86-022-13,-1.2000000000000002,0.285,0.041,99.99,2.0,,0.0,0.0,
2025-08-15T05:08:10.797Z,15,GR86-022-13,-1.5,0.269,0.049,99.99,2.0,7174.0,0.0,0.0,
2025-08-15T05:08:10.841Z,15,GR86-022-13,-1.7000000000000002,0.291,0.033,99.99,2.0,,0.0,0.0,124.18
2025-08-15T05:08:10.884Z,15,GR86-022-13,-1.9,0.232,0.036,100.0,2.0,,0.0,0.0,
2025-08-15T05:08:10.928Z,15,GR86-022-13,-2.0,0.197,0.045,100.0,2.0,,0.0,0.0,
2025-08-15T05:08:10.970Z,15,GR86-022-13,-2.2,-0.036,0.021,100.0,3.0,,0.0,0.0,
2025-08-15T05:08:11.013Z,15,GR86-022-13,-2.3000000000000003,0.636,0.043,100.01,3.0,7257.0,0.0,0.0,
2025-08-15T05:08:11.057Z,15,GR86-022-13,-2.9000000000000004,0.423,-0.06,100.03,3.0,,0.0,0.0,125.41
2025-08-15T05:08:11.099Z,15,GR86-022-13,-3.6,0.247,0.058,100.01,3.0,,0.0,0.0,
2025-08-15T05:08:11.142Z,15,GR86-022-13,-3.7,0.109,-0.004,100.01,3.0,,0.0,0.0,
2025-08-15T05:08:11.185Z,15,GR86-022-13,-3.7,0.186,-0.066,100.01,3.0,,0.0,0.0,
2025-08-15T05:08:11.228Z,15,GR86-022-13,-3.7,0.241,0.034,100.0,3.0,7298.0,0.0,0.0,
2025-08-15T05:08:11.271Z,15,GR86-022-13,-3.5,0.327,-0.015,100.0,3.0,,0.0,0.0,126.53
2025-08-15T05:08:11.314Z,15,GR86-022-13,-3.5,0.284,-0.043,100.01,3.0,,5.905,6.2700000000000005,
2025-08-15T05:08:11.358Z,15,GR86-022-13,-3.5,0.203,-0.008,100.01,3.0,,3.465,3.875,
2025-08-15T05:08:11.401Z,15,GR86-022-13,-3.5,0.215,-0.041,100.01,3.0,,6.455,6.715,
2025-08-15T05:08:11.444Z,15,GR86-022-13,-3.5,0.148,0.005,100.0,3.0,5978.0,7.675,8.18,
2025-08-15T05:08:11.488Z,15,GR86-022-13,-3.5,0.2,-0.014,100.0,3.0,,5.995,6.545,128.59
2025-08-15T05:08:11.531Z,15,GR86-022-13,-3.6,0.206,-0.037,99.99,3.0,,3.1,3.465,
2025-08-15T05:08:11.574Z,15,GR86-022-13,-3.9,0.157,-0.02,100.0,3.0,,0.0,0.0,
2025-08-15T05:08:11.618Z,15,GR86-022-13,-3.9,0.221,-0.046,100.0,3.0,,0.0,0.0,
2025-08-15T05:08:11.661Z,15,GR86-022-13,-3.9,0.224,-0.032,99.98,3.0,6013.0,0.0,0.0,
2025-08-15T05:08:11.704Z,15,GR86-022-13,-3.9,0.288,-0.043,100.01,3.0,,0.0,0.0,129.3
2025-08-15T05:08:11.748Z,15,GR86-022-13,-3.7,0.232,-0.058,99.99,3.0,,0.0,0.0,
2025-08-15T05:08:11.791Z,15,GR86-022-13,-3.2,0.206,-0.028,100.01,3.0,,0.0,0.0,
2025-08-15T05:08:11.834Z,15,GR86-022-13,-1.9,0.252,-0.028,100.0,3.0,,0.0,0.0,
2025-08-15T05:08:11.878Z,15,GR86-022-13,0.6000000000000001,0.234,-0.001,100.0,3.0,6083.0,0.0,0.0,
2025-08-15T05:08:11.921Z,15,GR86-022-13,0.8,0.272,0.011,99.97,3.0,,0.0,0.0,129.79
2025-08-15T05:08:11.964Z,15,GR86-022-13,0.5,0.228,0.012,100.01,3.0,,0.0,0.0,
2025-08-15T05:08:12.008Z,15,GR86-022-13,-0.1,0.209,0.059,100.02,3.0,,0.0,0.0,
2025-08-15T05:08:12.050Z,15,GR86-022-13,-0.3,0.271,0.055,100.0,3.0,,0.0,0.0,
2025-08-15T05:08:12.093Z,15,GR86-022-13,-0.3,0.259,0.055,99.97,3.0,6125.0,0.0,0.0,
2025-08-15T05:08:12.137Z,15,GR86-022-13,-0.3,0.256,0.068,99.97,3.0,,6.335,6.455,130.7
2025-08-15T05:08:12.179Z,15,GR86-022-13,-0.3,0.131,0.075,97.94,3.0,,10.405,10.44,
2025-08-15T05:08:12.222Z,15,GR86-022-13,0.6000000000000001,0.064,0.089,38.8,3.0,,15.335,15.305,
2025-08-15T05:08:12.265Z,15,GR86-022-13,1.9,0.056,0.093,2.18,3.0,,23.18,23.15,
2025-08-15T05:08:12.308Z,15,GR86-022-13,2.1,-0.095,0.093,3.12,3.0,6169.0,32.045,31.8,
2025-08-15T05:08:12.351Z,15,GR86-022-13,2.1,-0.492,0.101,3.1,3.0,,38.685,38.41,131.63
2025-08-15T05:08:12.394Z,15,GR86-022-13,2.1,-0.62,0.137,3.06,3.0,,41.615,41.4,
2025-08-15T05:08:12.438Z,15,GR86-022-13,2.1,-0.783,0.065,3.02,3.0,,46.115,45.69,
2025-08-15T05:08:12.481Z,15,GR86-022-13,3.9,-0.6940000000000001,0.113,3.0,3.0,,46.835,46.62,
2025-08-15T05:08:12.524Z,15,GR86-022-13,9.1,-0.808,0.114,2.98,3.0,6187.0,51.03,50.68,
2025-08-15T05:08:12.568Z,15,GR86-022-13,17.2,-0.913,0.182,22.77,3.0,,61.88,61.36,132.06
2025-08-15T05:08:12.610Z,15,GR86-022-13,23.9,-1.002,0.297,56.69,2.0,,72.865,72.33,
2025-08-15T05:08:12.653Z,15,GR86-022-13,22.4,-1.012,0.289,6.83,2.0,,80.65,81.625,
2025-08-15T05:08:12.697Z,15,GR86-022-13,10.7,-1.146,0.4,4.25,2.0,,77.52,79.075,
2025-08-15T05:08:12.741Z,15,GR86-022-13,6.7,-1.039,0.404,3.8,2.0,5585.0,59.24,60.34,
2025-08-15T05:08:12.784Z,15,GR86-022-13,7.9,-0.974,0.381,3.49,2.0,,46.145,47.185,129.11
2025-08-15T05:08:12.828Z,15,GR86-022-13,11.4,-0.895,0.448,3.29,2.0,,45.49,46.62,
2025-08-15T05:08:12.871Z,15,GR86-022-13,15.3,-0.923,0.552,3.17,2.0,,44.775,45.065,
2025-08-15T05:08:12.914Z,15,GR86-022-13,19.8,-0.872,0.5670000000000001,3.03,2.0,,43.825,44.59,
2025-08-15T05:08:12.958Z,15,GR86-022-13,29.1,-0.7010000000000001,0.78,2.92,2.0,5395.0,38.655,39.22,
2025-08-15T05:08:13.000Z,15,GR86-022-13,27.700000000000003,-0.5720000000000001,0.921,2.87,2.0,,33.845,34.685,122.1
2025-08-15T05:08:13.043Z,15,GR86-022-13,21.0,-0.623,0.881,2.81,2.0,,31.65,32.625,
2025-08-15T05:08:13.087Z,15,GR86-022-13,11.4,-0.558,0.771,2.73,2.0,,25.775,26.325,
2025-08-15T05:08:13.129Z,15,GR86-022-13,6.2,-0.526,0.8230000000000001,2.69,2.0,,20.875,21.35,
2025-08-15T05:08:13.172Z,15,GR86-022-13,7.7,-0.474,0.789,2.63,2.0,5753.0,19.64,19.9,
2025-08-15T05:08:13.215Z,15,GR86-022-13,15.1,-0.547,0.844,2.58,2.0,,19.52,19.73,116.88
2025-08-15T05:08:13.258Z,15,GR86-022-13,26.9,-0.433,0.845,2.54,2.0,,18.465,19.015,
2025-08-15T05:08:13.301Z,15,GR86-022-13,30.0,-0.413,0.901,2.5,2.0,,15.99,16.68,
2025-08-15T05:08:13.344Z,15,GR86-022-13,33.2,-0.402,0.94,2.5,2.0,,15.655,16.055,
2025-08-15T05:08:13.388Z,15,GR86-022-13,39.3,-0.466,0.865,2.5,2.0,5807.0,17.150000000000002,17.365000000000002,
2025-08-15T05:08:13.430Z,15,GR86-022-13,44.8,-0.471,0.936,2.48,2.0,,19.64,19.93,110.93
2025-08-15T05:08:13.473Z,15,GR86-022-13,46.900000000000006,-0.48,0.916,2.48,2.0,,21.18,21.595,
2025-08-15T05:08:13.517Z,15,GR86-022-13,45.8,-0.518,0.957,2.48,2.0,,21.9,22.28,
2025-08-15T05:08:13.559Z,15,GR86-022-13,45.0,-0.484,0.925,2.49,2.0,,21.53,21.93,
2025-08-15T05:08:13.602Z,15,GR86-022-13,44.900000000000006,-0.471,0.866,2.49,2.0,5782.0,18.955,19.61,
2025-08-15T05:08:13.648Z,15,GR86-022-13,44.400000000000006,-0.517,0.946,2.49,2.0,,17.275000000000002,17.78,106.67
2025-08-15T05:08:13.691Z,15,GR86-022-13,39.6,-0.456,1.014,2.49,2.0,,13.335,13.825,
2025-08-15T05:08:13.734Z,15,GR86-022-13,31.5,-0.329,1.043,2.49,2.0,,6.835,7.295,
2025-08-15T05:08:13.778Z,15,GR86-022-13,23.4,-0.186,1.044,2.48,2.0,,0.0,0.0,
2025-08-15T05:08:13.821Z,15,GR86-022-13,23.9,-0.183,1.049,2.48,2.0,5548.0,0.0,0.0,
2025-08-15T05:08:13.864Z,15,GR86-022-13,30.0,-0.154,1.066,2.5,2.0,,0.0,0.0,103.23
2025-08-15T05:08:13.908Z,15,GR86-022-13,37.7,-0.142,1.151,2.49,2.0,,0.0,0.0,
2025-08-15T05:08:13.950Z,15,GR86-022-13,44.400000000000006,-0.119,1.18,2.49,2.0,,0.0,0.0,
2025-08-15T05:08:13.993Z,15,GR86-022-13,49.0,-0.119,1.176,2.5,2.0,,0.0,0.0,
2025-08-15T05:08:14.037Z,15,GR86-022-13,50.8,-0.151,1.166,2.48,2.0,5286.0,0.0,0.0,
2025-08-15T05:08:14.081Z,15,GR86-022-13,51.900000000000006,-0.145,1.226,2.49,2.0,,0.0,0.0,97.44
2025-08-15T05:08:14.124Z,15,GR86-022-13,53.5,-0.146,1.199,2.5,2.0,,0.0,0.0,
2025-08-15T05:08:14.168Z,15,GR86-022-13,56.3,-0.142,1.221,2.5,2.0,,0.0,0.0,
2025-08-15T05:08:14.210Z,15,GR86-022-13,59.3,-0.159,1.235,2.5,2.0,,0.0,0.0,
2025-08-15T05:08:14.253Z,15,GR86-022-13,62.3,-0.157,1.22,2.49,2.0,5301.0,0.0,0.0,
2025-08-15T05:08:14.297Z,15,GR86-022-13,65.60000000000001,-0.143,1.237,2.7,2.0,,0.0,0.0,95.61
2025-08-15T05:08:14.341Z,15,GR86-022-13,65.7,-0.15,1.209,3.31,2.0,,0.0,0.0,
2025-08-15T05:08:14.384Z,15,GR86-022-13,65.7,-0.144,1.191,20.38,2.0,,0.0,0.0,
2025-08-15T05:08:14.428Z,15,GR86-022-13,65.4,-0.146,1.154,19.86,2.0,,0.0,0.0,
2025-08-15T05:08:14.470Z,15,GR86-022-13,64.7,-0.134,1.206,20.49,2.0,5229.0,0.0,0.0,
2025-08-15T05:08:14.513Z,15,GR86-022-13,63.3,-0.081,1.05,23.71,2.0,,0.0,0.0,94.18
2025-08-15T05:08:14.557Z,15,GR86-022-13,60.1,-0.099,1.131,29.73,2.0,,0.0,0.0,
2025-08-15T05:08:14.599Z,15,GR86-022-13,57.7,-0.147,1.21,36.94,2.0,,0.0,0.0,
2025-08-15T05:08:14.643Z,15,GR86-022-13,56.2,0.137,1.37,38.06,2.0,,0.0,0.0,
2025-08-15T05:08:14.687Z,15,GR86-022-13,56.1,0.288,1.107,40.74,2.0,5134.0,0.0,0.0,
2025-08-15T05:08:14.729Z,15,GR86-022-13,56.900000000000006,-0.019,1.055,45.58,2.0,,0.0,0.0,92.71
2025-08-15T05:08:14.772Z,15,GR86-022-13,59.2,0.041,1.298,56.42,2.0,,0.0,0.0,
2025-08-15T05:08:14.815Z,15,GR86-022-13,63.2,0.541,1.227,55.08,2.0,,0.0,0.0,
2025-08-15T05:08:14.858Z,15,GR86-022-13,67.8,0.38,1.319,58.98,2.0,,0.0,0.0,
2025-08-15T05:08:14.901Z,15,GR86-022-13,68.2,0.378,1.031,62.23,2.0,5447.0,0.0,0.0,
2025-08-15T05:08:14.944Z,15,GR86-022-13,67.8,0.179,1.095,66.57000000000001,2.0,,0.0,0.0,91.73
2025-08-15T05:08:14.988Z,15,GR86-022-13,66.8,0.081,1.053,96.53,2.0,,0.0,0.0,
2025-08-15T05:08:15.031Z,15,GR86-022-13,65.8,0.28,1.039,99.89,2.0,,0.0,0.0,
2025-08-15T05:08:15.073Z,15,GR86-022-13,64.5,0.44,1.086,100.07,2.0,,0.0,0.0,
2025-08-15T05:08:15.117Z,15,GR86-022-13,57.6,0.511,1.16,100.06,2.0,5501.0,0.0,0.0,
2025-08-15T05:08:15.159Z,15,GR86-022-13,51.7,0.624,1.012,100.08,2.0,,0.0,0.0,91.88
2025-08-15T05:08:15.202Z,15,GR86-022-13,46.400000000000006,0.239,1.121,100.08,2.0,,0.0,0.0,
2025-08-15T05:08:15.245Z,15,GR86-022-13,45.2,0.013,1.056,100.1,2.0,,0.0,0.0,
2025-08-15T05:08:15.288Z,15,GR86-022-13,46.6,0.213,1.063,100.07,2.0,,0.0,0.0,
2025-08-15T05:08:15.332Z,15,GR86-022-13,47.7,0.487,1.301,100.08,2.0,5695.0,0.0,0.0,
2025-08-15T05:08:15.375Z,15,GR86-022-13,46.7,0.343,1.208,100.07,2.0,,0.0,0.0,92.8
2025-08-15T05:08:15.418Z,15,GR86-022-13,35.1,0.302,1.239,100.07,2.0,,0.0,0.0,
2025-08-15T05:08:15.461Z,15,GR86-022-13,22.700000000000003,0.284,1.209,100.06,2.0,,0.0,0.0,
2025-08-15T05:08:15.505Z,15,GR86-022-13,15.7,0.292,1.067,100.06,2.0,,0.0,0.0,
2025-08-15T05:08:15.548Z,15,GR86-022-13,17.5,0.3,0.968,100.1,2.0,5668.0,0.0,0.0,
2025-08-15T05:08:15.591Z,15,GR86-022-13,25.4,0.276,0.993,100.1,2.0,,0.0,0.0,94.56
2025-08-15T05:08:15.635Z,15,GR86-022-13,36.4,0.336,1.023,100.09,2.0,,0.0,0.0,
2025-08-15T05:08:15.679Z,15,GR86-022-13,49.6,0.306,1.115,100.07,2.0,,0.0,0.0,
2025-08-15T05:08:15.721Z,15,GR86-022-13,52.3,0.291,1.11,100.06,2.0,,0.0,0.0,
2025-08-15T05:08:15.764Z,15,GR86-022-13,52.3,0.31,1.106,100.06,2.0,5714.0,0.0,0.0,
