timestamp,lap,vehicle_id,steering_angle,accx_can,accy_can,ath,gear,nmot,pbrake_f,pbrake_r,speed
2025-08-15T01:42:40.694Z,2,GR86-010-16,2.3000000000000003,0.225,0.047,100.05,2.0,,0.0,0.0,
2025-08-15T01:42:40.779Z,2,GR86-010-16,2.3000000000000003,0.225,0.048,100.03,2.0,6939.0,0.0,0.0,
2025-08-15T01:42:40.823Z,2,GR86-010-16,2.3000000000000003,0.256,0.013,100.05,2.0,,0.0,0.0,121.29
2025-08-15T01:42:40.866Z,2,GR86-010-16,2.3000000000000003,0.236,0.065,100.01,2.0,,0.0,0.0,
2025-08-15T01:42:40.909Z,2,GR86-010-16,2.3000000000000003,0.224,0.068,100.03,2.0,,0.0,0.0,
2025-08-15T01:42:40.953Z,2,GR86-010-16,2.3000000000000003,0.223,0.025,100.05,2.0,,0.0,0.0,
2025-08-15T01:42:40.996Z,2,GR86-010-16,2.3000000000000003,0.243,0.063,100.05,2.0,7082.0,0.0,0.0,
2025-08-15T01:42:41.038Z,2,GR86-010-16,2.3000000000000003,0.229,0.05,100.03,2.0,,0.0,0.0,122.97
2025-08-15T01:42:41.083Z,2,GR86-010-16,2.3000000000000003,0.226,0.05,100.05,2.0,,0.0,0.0,
2025-08-15T01:42:41.126Z,2,GR86-010-16,2.3000000000000003,0.217,0.024,100.02,2.0,,0.0,0.0,
2025-08-15T01:42:41.169Z,2,GR86-010-16,2.3000000000000003,0.228,0.056,100.02,2.0,,0.0,0.0,
2025-08-15T01:42:41.214Z,2,GR86-010-16,2.3000000000000003,-0.019,0.063,100.03,3.0,7116.0,0.0,0.0,
2025-08-15T01:42:41.256Z,2,GR86-010-16,2.3000000000000003,-0.064,0.064,100.05,3.0,,0.0,0.0,124.59
2025-08-15T01:42:41.299Z,2,GR86-010-16,2.3000000000000003,0.584,-0.011,100.02,3.0,,0.0,0.0,
2025-08-15T01:42:41.344Z,2,GR86-010-16,2.3000000000000003,0.401,-0.021,100.02,3.0,,0.0,0.0,
2025-08-15T01:42:41.386Z,2,GR86-010-16,2.3000000000000003,0.416,0.095,100.03,3.0,,0.0,0.0,
2025-08-15T01:42:41.429Z,2,GR86-010-16,2.3000000000000003,0.25,-0.03,100.03,3.0,7211.0,0.0,0.0,
2025-08-15T01:42:41.473Z,2,GR86-010-16,2.3000000000000003,0.106,-0.02,100.02,3.0,,0.0,0.0,126.11
2025-08-15T01:42:41.516Z,2,GR86-010-16,2.3000000000000003,0.124,0.029,100.03,3.0,,0.0,0.0,
2025-08-15T01:42:41.558Z,2,GR86-010-16,2.3000000000000003,0.189,-0.01,100.03,3.0,,0.0,0.0,
2025-08-15T01:42:41.602Z,2,GR86-010-16,2.3000000000000003,0.262,0.067,100.03,3.0,,0.0,0.0,
2025-08-15T01:42:41.646Z,2,GR86-010-16,2.3000000000000003,0.179,0.012,100.01,3.0,6629.0,0.0,0.0,
2025-08-15T01:42:41.688Z,2,GR86-010-16,2.3000000000000003,0.15,0.009,100.03,3.0,,0.0,0.0,128.99
2025-08-15T01:42:41.732Z,2,GR86-010-16,2.3000000000000003,0.191,0.028,100.02,3.0,,0.0,0.0,
2025-08-15T01:42:41.774Z,2,GR86-010-16,2.3000000000000003,0.22,0.05,100.02,3.0,,0.0,0.0,
2025-08-15T01:42:41.818Z,2,GR86-010-16,2.3000000000000003,0.219,0.005,100.04,3.0,,0.0,0.0,
2025-08-15T01:42:41.860Z,2,GR86-010-16,2.3000000000000003,0.194,0.0,100.03,3.0,5954.0,0.0,0.0,
2025-08-15T01:42:41.903Z,2,GR86-010-16,2.3000000000000003,0.19,0.015,100.04,3.0,,0.0,0.0,130.57
2025-08-15T01:42:41.946Z,2,GR86-010-16,2.3000000000000003,0.221,0.029,100.03,3.0,,0.0,0.0,
2025-08-15T01:42:41.989Z,2,GR86-010-16,2.3000000000000003,0.21,0.031,100.03,3.0,,0.0,0.0,
2025-08-15T01:42:42.033Z,2,GR86-010-16,2.3000000000000003,0.185,-0.015,100.02,3.0,,0.0,0.0,
2025-08-15T01:42:42.119Z,2,GR86-010-16,2.3000000000000003,0.2,0.028,100.03,3.0,6057.0,0.0,0.0,131.89
2025-08-15T01:42:42.163Z,2,GR86-010-16,2.3000000000000003,0.211,0.018,100.01,3.0,,0.0,0.0,
2025-08-15T01:42:42.205Z,2,GR86-010-16,2.3000000000000003,0.192,0.032,100.02,3.0,,0.0,0.0,
2025-08-15T01:42:42.249Z,2,GR86-010-16,2.3000000000000003,0.185,0.014,100.03,3.0,,0.0,0.0,
2025-08-15T01:42:42.292Z,2,GR86-010-16,2.3000000000000003,0.186,0.003,100.02,3.0,6219.0,0.0,0.0,
2025-08-15T01:42:42.334Z,2,GR86-010-16,2.3000000000000003,0.209,0.045,100.02,3.0,,0.0,0.0,133.2
2025-08-15T01:42:42.378Z,2,GR86-010-16,2.3000000000000003,0.192,0.047,100.02,3.0,,0.0,0.0,
2025-08-15T01:42:42.420Z,2,GR86-010-16,2.3000000000000003,0.186,0.018,100.01,3.0,,0.0,0.0,
2025-08-15T01:42:42.463Z,2,GR86-010-16,2.3000000000000003,0.184,0.026,100.02,3.0,,0.0,0.0,
2025-08-15T01:42:42.506Z,2,GR86-010-16,2.3000000000000003,0.183,-0.011,100.02,3.0,6274.0,0.0,0.0,
2025-08-15T01:42:42.549Z,2,GR86-010-16,2.3000000000000003,0.198,0.012,100.02,3.0,,0.0,0.0,134.58
2025-08-15T01:42:42.593Z,2,GR86-010-16,2.3000000000000003,0.196,0.026,100.04,3.0,,0.0,0.0,
2025-08-15T01:42:42.636Z,2,GR86-010-16,2.3000000000000003,0.183,0.001,100.01,3.0,,0.0,0.0,
2025-08-15T01:42:42.679Z,2,GR86-010-16,2.3000000000000003,0.172,-0.016,100.03,3.0,,0.0,0.0,
2025-08-15T01:42:42.722Z,2,GR86-010-16,2.3000000000000003,0.182,-0.011,100.02,3.0,6340.0,0.0,0.0,
2025-08-15T01:42:42.766Z,2,GR86-010-16,2.3000000000000003,0.184,-0.012,100.02,3.0,,0.0,0.0,135.88
2025-08-15T01:42:42.810Z,2,GR86-010-16,2.3000000000000003,0.199,0.025,100.03,3.0,,0.0,0.0,
2025-08-15T01:42:42.853Z,2,GR86-010-16,2.3000000000000003,0.191,0.051,100.02,3.0,,0.0,0.0,
2025-08-15T01:42:42.896Z,2,GR86-010-16,2.3000000000000003,0.183,0.018,100.03,3.0,,0.0,0.0,
2025-08-15T01:42:42.938Z,2,GR86-010-16,2.3000000000000003,0.178,0.009,100.02,3.0,6401.0,0.0,0.0,
2025-08-15T01:42:42.984Z,2,GR86-010-16,2.3000000000000003,0.168,0.008,100.01,3.0,,0.0,0.0,137.14
2025-08-15T01:42:43.026Z,2,GR86-010-16,2.3000000000000003,0.184,0.015,100.01,3.0,,0.0,0.0,
2025-08-15T01:42:43.069Z,2,GR86-010-16,2.3000000000000003,0.195,0.034,100.02,3.0,,0.0,0.0,
2025-08-15T01:42:43.113Z,2,GR86-010-16,2.3000000000000003,0.197,0.018,100.03,3.0,,0.0,0.0,
2025-08-15T01:42:43.156Z,2,GR86-010-16,2.3000000000000003,0.172,-0.024,100.01,3.0,6420.0,0.0,0.0,
2025-08-15T01:42:43.198Z,2,GR86-010-16,2.3000000000000003,0.171,-0.019,100.03,3.0,,0.0,0.0,138.43
2025-08-15T01:42:43.242Z,2,GR86-010-16,2.3000000000000003,0.171,-0.016,100.02,3.0,,0.0,0.0,
2025-08-15T01:42:43.284Z,2,GR86-010-16,2.3000000000000003,0.172,-0.002,100.01,3.0,,0.0,0.0,
2025-08-15T01:42:43.327Z,2,GR86-010-16,2.3000000000000003,0.193,0.013,100.02,3.0,,0.0,0.0,
2025-08-15T01:42:43.372Z,2,GR86-010-16,2.3000000000000003,0.204,0.024,100.02,3.0,6520.0,0.0,0.0,
2025-08-15T01:42:43.414Z,2,GR86-010-16,2.3000000000000003,0.186,0.021,100.02,3.0,,0.0,0.0,139.73
2025-08-15T01:42:43.457Z,2,GR86-010-16,2.3000000000000003,0.17,-0.003,100.01,3.0,,0.0,0.0,
2025-08-15T01:42:43.500Z,2,GR86-010-16,2.3000000000000003,0.179,0.007,100.0,3.0,,0.0,0.0,
2025-08-15T01:42:43.543Z,2,GR86-010-16,2.3000000000000003,0.165,-0.037,99.98,3.0,,0.0,0.0,
2025-08-15T01:42:43.586Z,2,GR86-010-16,2.3000000000000003,0.186,-0.011,100.01,3.0,6582.0,0.0,0.0,
2025-08-15T01:42:43.629Z,2,GR86-010-16,2.3000000000000003,0.204,0.011,99.99,3.0,,0.0,0.0,141.0
2025-08-15T01:42:43.673Z,2,GR86-010-16,2.3000000000000003,0.21,-0.003,99.99,3.0,,0.0,0.0,
2025-08-15T01:42:43.716Z,2,GR86-010-16,2.3000000000000003,0.169,-0.027,100.02,3.0,,0.0,0.0,
2025-08-15T01:42:43.759Z,2,GR86-010-16,2.3000000000000003,0.167,-0.013,100.03,3.0,,0.0,0.0,
2025-08-15T01:42:43.802Z,2,GR86-010-16,2.3000000000000003,0.172,-0.027,100.02,3.0,6631.0,0.0,0.0,
2025-08-15T01:42:43.844Z,2,GR86-010-16,2.3000000000000003,0.168,-0.021,100.0,3.0,,0.0,0.0,142.29
2025-08-15T01:42:43.887Z,2,GR86-010-16,2.3000000000000003,0.195,0.005,100.0,3.0,,0.0,0.0,
2025-08-15T01:42:43.930Z,2,GR86-010-16,2.3000000000000003,0.204,0.016,100.02,3.0,,0.0,0.0,
2025-08-15T01:42:43.973Z,2,GR86-010-16,2.3000000000000003,0.197,0.005,100.02,3.0,,0.0,0.0,
2025-08-15T01:42:44.016Z,2,GR86-010-16,2.3000000000000003,0.168,0.001,100.01,3.0,6644.0,0.0,0.0,
2025-08-15T01:42:44.060Z,2,GR86-010-16,2.3000000000000003,0.168,0.014,100.01,3.0,,0.0,0.0,143.46
2025-08-15T01:42:44.103Z,2,GR86-010-16,2.3000000000000003,0.178,0.009,100.0,3.0,,0.0,0.0,
2025-08-15T01:42:44.189Z,2,GR86-010-16,2.3000000000000003,0.175,0.078,100.01,3.0,,0.0,0.0,
2025-08-15T01:42:44.233Z,2,GR86-010-16,2.3000000000000003,0.212,0.079,100.02,3.0,6710.0,0.0,0.0,
2025-08-15T01:42:44.276Z,2,GR86-010-16,2.3000000000000003,0.206,0.041,100.02,3.0,,0.0,0.0,144.71
2025-08-15T01:42:44.318Z,2,GR86-010-16,2.3000000000000003,0.189,0.035,100.02,3.0,,0.0,0.0,
2025-08-15T01:42:44.362Z,2,GR86-010-16,2.3000000000000003,0.214,0.029,99.98,3.0,,0.0,0.0,
2025-08-15T01:42:44.406Z,2,GR86-010-16,2.3000000000000003,0.186,0.006,100.0,3.0,,0.0,0.0,
2025-08-15T01:42:44.449Z,2,GR86-010-16,2.3000000000000003,0.168,-0.005,99.99,3.0,6810.0,0.0,0.0,
2025-08-15T01:42:44.494Z,2,GR86-010-16,2.3000000000000003,0.173,0.02,100.02,3.0,,0.0,0.0,147.34
2025-08-15T01:42:44.536Z,2,GR86-010-16,2.3000000000000003,0.187,0.04,100.02,3.0,,0.0,0.0,
2025-08-15T01:42:44.579Z,2,GR86-010-16,2.3000000000000003,0.197,0.036,100.01,3.0,,0.0,0.0,
2025-08-15T01:42:44.623Z,2,GR86-010-16,2.3000000000000003,0.175,0.063,99.98,3.0,,0.0,0.0,
2025-08-15T01:42:44.666Z,2,GR86-010-16,2.3000000000000003,0.202,0.055,99.99,3.0,6872.0,0.0,0.0,
2025-08-15T01:42:44.709Z,2,GR86-010-16,2.3000000000000003,0.201,0.038,100.02,3.0,,0.0,0.0,148.66
2025-08-15T01:42:44.753Z,2,GR86-010-16,2.3000000000000003,0.171,0.026,99.99,3.0,,0.0,0.0,
2025-08-15T01:42:44.796Z,2,GR86-010-16,2.3000000000000003,0.161,0.033,99.99,3.0,,0.0,0.0,
2025-08-15T01:42:44.838Z,2,GR86-010-16,2.3000000000000003,0.143,0.054,100.03,3.0,,0.0,0.0,
2025-08-15T01:42:44.884Z,2,GR86-010-16,2.3000000000000003,0.161,0.003,100.02,3.0,6992.0,0.0,0.0,
2025-08-15T01:42:44.926Z,2,GR86-010-16,2.3000000000000003,0.144,0.028,99.99,3.0,,0.0,0.0,149.98
2025-08-15T01:42:44.969Z,2,GR86-010-16,2.3000000000000003,0.16,0.05,100.0,3.0,,0.0,0.0,
2025-08-15T01:42:45.013Z,2,GR86-010-16,2.3000000000000003,0.181,0.053,99.99,3.0,,0.0,0.0,
2025-08-15T01:42:45.056Z,2,GR86-010-16,2.3000000000000003,0.189,0.032,100.03,3.0,,0.0,0.0,
2025-08-15T01:42:45.098Z,2,GR86-010-16,2.3000000000000003,0.172,0.011,99.97,3.0,7004.0,0.0,0.0,
2025-08-15T01:42:45.142Z,2,GR86-010-16,2.3000000000000003,0.189,0.056,99.98,3.0,,0.0,0.0,151.20000000000002
2025-08-15T01:42:45.184Z,2,GR86-010-16,2.3000000000000003,0.205,0.021,99.99,3.0,,0.0,0.0,
2025-08-15T01:42:45.228Z,2,GR86-010-16,2.3000000000000003,0.18,0.006,99.98,3.0,,0.0,0.0,
2025-08-15T01:42:45.272Z,2,GR86-010-16,2.3000000000000003,0.149,0.018,100.01,3.0,,0.0,0.0,
2025-08-15T01:42:45.314Z,2,GR86-010-16,2.3000000000000003,0.14,0.041,100.0,3.0,7093.0,0.0,0.0,
2025-08-15T01:42:45.357Z,2,GR86-010-16,2.3000000000000003,0.15,0.046,100.01,3.0,,0.0,0.0,152.44
2025-08-15T01:42:45.400Z,2,GR86-010-16,2.3000000000000003,0.164,0.014,100.02,3.0,,0.0,0.0,
2025-08-15T01:42:45.443Z,2,GR86-010-16,2.3000000000000003,-0.032,0.033,99.99,4.0,,0.0,0.0,
2025-08-15T01:42:45.486Z,2,GR86-010-16,2.3000000000000003,0.319,-0.024,100.02,4.0,,0.0,0.0,
2025-08-15T01:42:45.529Z,2,GR86-010-16,2.3000000000000003,0.283,-0.092,99.99,4.0,7151.0,0.0,0.0,
2025-08-15T01:42:45.573Z,2,GR86-010-16,2.3000000000000003,0.196,0.026,100.01,4.0,,0.0,0.0,153.53
2025-08-15T01:42:45.616Z,2,GR86-010-16,2.3000000000000003,0.082,-0.036,100.0,4.0,,0.0,0.0,
2025-08-15T01:42:45.659Z,2,GR86-010-16,2.3000000000000003,0.102,-0.086,99.98,4.0,,0.0,0.0,
2025-08-15T01:42:45.702Z,2,GR86-010-16,2.3000000000000003,0.231,-0.011,99.99,4.0,,0.0,0.0,
2025-08-15T01:42:45.746Z,2,GR86-010-16,2.3000000000000003,0.166,-0.072,99.98,4.0,6476.0,0.0,0.0,
2025-08-15T01:42:45.789Z,2,GR86-010-16,2.3000000000000003,0.115,-0.024,100.0,4.0,,0.0,0.0,154.66
2025-08-15T01:42:45.832Z,2,GR86-010-16,2.3000000000000003,0.126,-0.034,99.99,4.0,,0.0,0.0,
2025-08-15T01:42:45.874Z,2,GR86-010-16,2.3000000000000003,0.152,0.003,100.0,4.0,,0.0,0.0,
2025-08-15T01:42:45.918Z,2,GR86-010-16,2.3000000000000003,0.132,0.012,100.01,4.0,,0.0,0.0,
2025-08-15T01:42:45.960Z,2,GR86-010-16,2.3000000000000003,0.125,0.026,99.99,4.0,6144.0,0.0,0.0,
2025-08-15T01:42:46.003Z,2,GR86-010-16,2.3000000000000003,0.118,0.021,100.03,4.0,,0.0,0.0,155.81
2025-08-15T01:42:46.046Z,2,GR86-010-16,2.3000000000000003,0.136,0.058,100.02,4.0,,0.0,0.0,
2025-08-15T01:42:46.089Z,2,GR86-010-16,2.3000000000000003,0.141,0.07,100.02,4.0,,0.0,0.0,
2025-08-15T01:42:46.133Z,2,GR86-010-16,2.3000000000000003,0.141,0.061,100.02,4.0,,0.0,0.0,
2025-08-15T01:42:46.176Z,2,GR86-010-16,2.3000000000000003,0.161,0.047,99.98,4.0,6163.0,0.0,0.0,
2025-08-15T01:42:46.219Z,2,GR86-010-16,2.3000000000000003,0.181,0.023,99.99,4.0,,0.0,0.0,157.01
2025-08-15T01:42:46.263Z,2,GR86-010-16,2.3000000000000003,0.137,0.067,100.02,4.0,,0.0,0.0,
2025-08-15T01:42:46.305Z,2,GR86-010-16,2.3000000000000003,0.16,0.042,99.99,4.0,,0.0,0.0,
2025-08-15T01:42:46.349Z,2,GR86-010-16,2.3000000000000003,0.167,-0.002,99.98,4.0,,0.0,0.0,
2025-08-15T01:42:46.392Z,2,GR86-010-16,2.3000000000000003,0.178,-0.033,100.01,4.0,6146.0,0.0,0.0,
2025-08-15T01:42:46.434Z,2,GR86-010-16,2.3000000000000003,0.149,-0.031,100.0,4.0,,0.0,0.0,158.09
2025-08-15T01:42:46.478Z,2,GR86-010-16,2.3000000000000003,0.137,-0.007,100.0,4.0,,0.0,0.0,
2025-08-15T01:42:46.520Z,2,GR86-010-16,2.3000000000000003,0.112,0.018,100.02,4.0,,0.0,0.0,
2025-08-15T01:42:46.563Z,2,GR86-010-16,2.3000000000000003,0.18,-0.042,100.02,4.0,,0.0,0.0,
2025-08-15T01:42:46.606Z,2,GR86-010-16,2.3000000000000003,0.141,-0.018,99.99,4.0,6196.0,0.0,0.0,
2025-08-15T01:42:46.649Z,2,GR86-010-16,2.3000000000000003,0.131,0.025,99.99,4.0,,0.0,0.0,159.12
2025-08-15T01:42:46.693Z,2,GR86-010-16,2.3000000000000003,0.113,0.039,100.02,4.0,,0.0,0.0,
2025-08-15T01:42:46.736Z,2,GR86-010-16,2.3000000000000003,0.139,0.031,100.0,4.0,,0.0,0.0,
2025-08-15T01:42:46.778Z,2,GR86-010-16,2.3000000000000003,0.134,0.037,99.98,4.0,,0.0,0.0,
2025-08-15T01:42:46.822Z,2,GR86-010-16,2.3000000000000003,0.139,0.001,99.99,4.0,6278.0,0.0,0.0,
2025-08-15T01:42:46.866Z,2,GR86-010-16,2.3000000000000003,0.117,0.008,100.01,4.0,,0.0,0.0,160.16
2025-08-15T01:42:46.909Z,2,GR86-010-16,2.3000000000000003,0.129,-0.013,100.02,4.0,,0.0,0.0,
2025-08-15T01:42:46.953Z,2,GR86-010-16,2.3000000000000003,0.129,-0.027,99.99,4.0,,0.0,0.0,
2025-08-15T01:42:47.038Z,2,GR86-010-16,2.3000000000000003,0.16,-0.042,99.99,4.0,6328.0,0.0,0.0,
2025-08-15T01:42:47.083Z,2,GR86-010-16,2.3000000000000003,0.12,0.002,100.02,4.0,,0.0,0.0,162.36
2025-08-15T01:42:47.126Z,2,GR86-010-16,2.3000000000000003,0.119,0.001,100.01,4.0,,0.0,0.0,
2025-08-15T01:42:47.169Z,2,GR86-010-16,2.3000000000000003,0.125,0.005,100.03,4.0,,0.0,0.0,
2025-08-15T01:42:47.214Z,2,GR86-010-16,2.3000000000000003,0.142,0.007,100.02,4.0,,0.0,0.0,
2025-08-15T01:42:47.256Z,2,GR86-010-16,2.3000000000000003,0.167,-0.007,99.98,4.0,6334.0,0.0,0.0,
2025-08-15T01:42:47.299Z,2,GR86-010-16,2.3000000000000003,0.165,0.009,100.02,4.0,,0.0,0.0,163.53
2025-08-15T01:42:47.343Z,2,GR86-010-16,2.6,0.123,0.105,100.02,4.0,,0.0,0.0,
2025-08-15T01:42:47.386Z,2,GR86-010-16,2.6,0.127,0.119,99.99,4.0,,0.0,0.0,
2025-08-15T01:42:47.429Z,2,GR86-010-16,2.6,0.153,0.123,100.03,4.0,,0.0,0.0,
2025-08-15T01:42:47.473Z,2,GR86-010-16,2.6,0.152,0.098,100.0,4.0,6369.0,0.0,0.0,
2025-08-15T01:42:47.516Z,2,GR86-010-16,2.6,0.163,0.099,99.98,4.0,,0.0,0.0,164.64
2025-08-15T01:42:47.558Z,2,GR86-010-16,2.6,0.169,0.073,100.0,4.0,,0.0,0.0,
2025-08-15T01:42:47.602Z,2,GR86-010-16,2.6,0.13,0.087,99.99,4.0,,0.0,0.0,
2025-08-15T01:42:47.646Z,2,GR86-010-16,2.6,0.133,0.053,100.02,4.0,,0.0,0.0,
2025-08-15T01:42:47.689Z,2,GR86-010-16,2.6,0.147,0.032,100.01,4.0,6454.0,0.0,0.0,
2025-08-15T01:42:47.733Z,2,GR86-010-16,2.6,0.163,0.01,99.98,4.0,,0.0,0.0,165.78
2025-08-15T01:42:47.776Z,2,GR86-010-16,2.6,0.169,-0.013,100.02,4.0,,0.0,0.0,
2025-08-15T01:42:47.819Z,2,GR86-010-16,2.6,0.162,-0.022,100.0,4.0,,0.0,0.0,
2025-08-15T01:42:47.862Z,2,GR86-010-16,2.6,0.126,0.03,99.99,4.0,,0.0,0.0,
2025-08-15T01:42:47.904Z,2,GR86-010-16,2.6,0.146,0.039,100.02,4.0,6492.0,0.0,0.0,
2025-08-15T01:42:47.947Z,2,GR86-010-16,2.6,0.157,0.03,99.99,4.0,,0.0,0.0,166.8
2025-08-15T01:42:47.990Z,2,GR86-010-16,2.6,0.16,0.026,99.99,4.0,,0.0,0.0,
2025-08-15T01:42:48.034Z,2,GR86-010-16,2.6,0.167,0.003,100.02,4.0,,0.0,0.0,
2025-08-15T01:42:48.076Z,2,GR86-010-16,2.6,0.176,0.002,100.0,4.0,,0.0,0.0,
2025-08-15T01:42:48.119Z,2,GR86-010-16,1.7000000000000002,0.184,-0.008,100.01,4.0,6576.0,0.0,0.0,
2025-08-15T01:42:48.163Z,2,GR86-010-16,1.0,0.123,-0.024,100.02,4.0,,0.0,0.0,167.83
2025-08-15T01:42:48.205Z,2,GR86-010-16,1.0,0.144,-0.056,99.99,4.0,,0.0,0.0,
2025-08-15T01:42:48.292Z,2,GR86-010-16,1.0,0.173,-0.096,100.02,4.0,,0.0,0.0,
2025-08-15T01:42:48.334Z,2,GR86-010-16,1.0,0.166,-0.078,99.98,4.0,6621.0,0.0,0.0,
2025-08-15T01:42:48.379Z,2,GR86-010-16,1.0,0.174,-0.069,99.97,4.0,,0.0,0.0,168.84
2025-08-15T01:42:48.422Z,2,GR86-010-16,1.0,0.128,-0.003,99.98,4.0,,0.0,0.0,
2025-08-15T01:42:48.464Z,2,GR86-010-16,1.0,0.127,-0.018,100.02,4.0,,0.0,0.0,
2025-08-15T01:42:48.507Z,2,GR86-010-16,1.0,0.13,-0.027,100.01,4.0,,0.0,0.0,
2025-08-15T01:42:48.550Z,2,GR86-010-16,1.0,0.145,-0.011,99.98,4.0,6657.0,0.0,0.0,
2025-08-15T01:42:48.594Z,2,GR86-010-16,-0.6000000000000001,0.155,-0.058,99.98,4.0,,0.0,0.0,169.93
2025-08-15T01:42:48.636Z,2,GR86-010-16,-0.6000000000000001,0.162,-0.122,100.02,4.0,,0.0,0.0,
2025-08-15T01:42:48.679Z,2,GR86-010-16,-0.6000000000000001,0.154,-0.137,99.98,4.0,,0.0,0.0,
2025-08-15T01:42:48.723Z,2,GR86-010-16,-0.6000000000000001,0.123,-0.126,100.03,4.0,,0.0,0.0,
2025-08-15T01:42:48.766Z,2,GR86-010-16,-0.5,0.127,-0.126,100.01,4.0,6655.0,0.0,0.0,
2025-08-15T01:42:48.808Z,2,GR86-010-16,0.6000000000000001,0.125,-0.096,99.99,4.0,,0.0,0.0,170.92000000000002
2025-08-15T01:42:48.853Z,2,GR86-010-16,0.6000000000000001,0.126,-0.066,100.03,4.0,,0.0,0.0,
2025-08-15T01:42:48.896Z,2,GR86-010-16,0.6000000000000001,0.138,-0.035,99.99,4.0,,0.0,0.0,
2025-08-15T01:42:48.984Z,2,GR86-010-16,0.6000000000000001,0.156,0.017,100.01,4.0,6741.0,0.0,0.0,
2025-08-15T01:42:49.069Z,2,GR86-010-16,0.2,0.122,-0.006,100.0,4.0,,0.0,0.0,171.97
2025-08-15T01:42:49.113Z,2,GR86-010-16,0.2,0.133,-0.054,100.0,4.0,,0.0,0.0,
2025-08-15T01:42:49.156Z,2,GR86-010-16,0.2,0.113,-0.057,100.01,4.0,,0.0,0.0,
2025-08-15T01:42:49.198Z,2,GR86-010-16,0.2,0.132,-0.074,100.03,4.0,6735.0,0.0,0.0,
2025-08-15T01:42:49.242Z,2,GR86-010-16,1.0,0.16,-0.084,100.01,4.0,,0.0,0.0,173.0
2025-08-15T01:42:49.284Z,2,GR86-010-16,1.0,0.166,-0.029,100.02,4.0,,3.695,4.0,
2025-08-15T01:42:49.327Z,2,GR86-010-16,1.0,0.134,0.007,100.0,4.0,,8.485,8.67,
2025-08-15T01:42:49.372Z,2,GR86-010-16,1.1,0.012,0.041,100.02,4.0,,8.395,8.88,
2025-08-15T01:42:49.414Z,2,GR86-010-16,1.1,0.058,0.076,99.98,4.0,6816.0,4.18,4.9,
2025-08-15T01:42:49.457Z,2,GR86-010-16,1.1,0.15,0.1,99.98,4.0,,0.0,0.0,174.04
2025-08-15T01:42:49.500Z,2,GR86-010-16,1.1,0.152,0.087,99.99,4.0,,0.0,0.0,
2025-08-15T01:42:49.543Z,2,GR86-010-16,1.1,0.168,0.056,100.0,4.0,,0.0,0.0,
2025-08-15T01:42:49.586Z,2,GR86-010-16,1.1,0.155,0.059,100.01,4.0,,0.0,0.0,
2025-08-15T01:42:49.629Z,2,GR86-010-16,1.1,0.138,0.064,100.03,4.0,6811.0,0.0,0.0,
2025-08-15T01:42:49.673Z,2,GR86-010-16,1.1,0.155,0.04,99.98,4.0,,0.0,0.0,174.97
2025-08-15T01:42:49.716Z,2,GR86-010-16,1.1,0.162,0.027,99.98,4.0,,0.0,0.0,
2025-08-15T01:42:49.759Z,2,GR86-010-16,1.1,0.166,0.034,99.99,4.0,,0.0,0.0,
2025-08-15T01:42:49.802Z,2,GR86-010-16,1.1,0.111,0.071,99.99,4.0,,0.0,0.0,
2025-08-15T01:42:49.844Z,2,GR86-010-16,1.4,0.101,0.078,99.99,4.0,6827.0,0.0,0.0,
2025-08-15T01:42:49.887Z,2,GR86-010-16,1.4,0.122,0.064,100.0,4.0,,0.0,0.0,176.5
2025-08-15T01:42:49.930Z,2,GR86-010-16,1.4,0.112,0.062,99.98,4.0,,0.0,0.0,
2025-08-15T01:42:49.973Z,2,GR86-010-16,1.4,0.114,0.065,99.98,4.0,,0.0,0.0,
2025-08-15T01:42:50.016Z,2,GR86-010-16,1.4,0.116,0.069,100.01,4.0,,0.0,0.0,
2025-08-15T01:42:50.059Z,2,GR86-010-16,1.4,0.108,0.048,99.98,4.0,6877.0,0.0,0.0,
2025-08-15T01:42:50.103Z,2,GR86-010-16,1.4,0.142,0.056,99.99,4.0,,0.0,0.0,177.47
2025-08-15T01:42:50.146Z,2,GR86-010-16,1.4,0.164,0.054,100.01,4.0,,0.0,0.0,
2025-08-15T01:42:50.189Z,2,GR86-010-16,1.4,0.152,0.046,100.02,4.0,,0.0,0.0,
2025-08-15T01:42:50.232Z,2,GR86-010-16,1.4,0.149,0.051,100.01,4.0,,0.0,0.0,
2025-08-15T01:42:50.276Z,2,GR86-010-16,1.4,0.157,0.062,100.03,4.0,6909.0,0.0,0.0,
2025-08-15T01:42:50.319Z,2,GR86-010-16,1.4,0.14,0.068,100.02,4.0,,0.0,0.0,178.46
2025-08-15T01:42:50.364Z,2,GR86-010-16,1.4,0.13,0.056,100.02,4.0,,0.0,0.0,
2025-08-15T01:42:50.406Z,2,GR86-010-16,1.4,0.133,0.047,99.97,4.0,,0.0,0.0,
2025-08-15T01:42:50.449Z,2,GR86-010-16,1.4,0.11,0.05,100.0,4.0,,0.0,0.0,
2025-08-15T01:42:50.494Z,2,GR86-010-16,1.4,0.148,0.044,100.02,4.0,7023.0,0.0,0.0,
2025-08-15T01:42:50.536Z,2,GR86-010-16,1.4,0.119,0.037,99.99,4.0,,0.0,0.0,179.42000000000002
2025-08-15T01:42:50.579Z,2,GR86-010-16,1.4,0.115,0.022,99.99,4.0,,0.0,0.0,
2025-08-15T01:42:50.623Z,2,GR86-010-16,1.4,0.142,0.044,99.98,4.0,,0.0,0.0,
2025-08-15T01:42:50.666Z,2,GR86-010-16,1.4,0.141,0.055,100.0,4.0,,0.0,0.0,
2025-08-15T01:42:50.709Z,2,GR86-010-16,1.4,0.135,0.073,100.01,4.0,7019.0,0.0,0.0,
2025-08-15T01:42:50.753Z,2,GR86-010-16,1.4,0.141,0.083,100.01,4.0,,0.0,0.0,180.38
2025-08-15T01:42:50.796Z,2,GR86-010-16,1.4,0.148,0.075,99.99,4.0,,0.0,0.0,
2025-08-15T01:42:50.838Z,2,GR86-010-16,1.4,0.132,0.077,100.03,4.0,,0.0,0.0,
2025-08-15T01:42:50.884Z,2,GR86-010-16,1.4,0.116,0.012,100.0,4.0,,0.0,0.0,
2025-08-15T01:42:50.926Z,2,GR86-010-16,1.4,0.117,-0.02,100.03,4.0,7054.0,0.0,0.0,
2025-08-15T01:42:50.969Z,2,GR86-010-16,1.4,0.134,-0.014,100.01,4.0,,0.0,0.0,181.36
2025-08-15T01:42:51.013Z,2,GR86-010-16,1.4,0.107,-0.008,99.99,4.0,,0.0,0.0,
2025-08-15T01:42:51.056Z,2,GR86-010-16,1.4,0.117,-0.02,99.98,4.0,,0.0,0.0,
2025-08-15T01:42:51.098Z,2,GR86-010-16,1.4,0.118,-0.051,100.0,4.0,,0.0,0.0,
2025-08-15T01:42:51.142Z,2,GR86-010-16,1.4,0.145,-0.033,99.99,4.0,7142.0,0.0,0.0,
2025-08-15T01:42:51.184Z,2,GR86-010-16,1.4,0.143,-0.03,99.99,4.0,,0.0,0.0,182.34
2025-08-15T01:42:51.227Z,2,GR86-010-16,1.4,0.146,-0.027,100.01,4.0,,0.0,0.0,
2025-08-15T01:42:51.272Z,2,GR86-010-16,1.4,0.139,-0.022,100.02,4.0,,0.0,0.0,
2025-08-15T01:42:51.314Z,2,GR86-010-16,1.4,0.151,-0.016,99.98,4.0,,0.0,0.0,
2025-08-15T01:42:51.357Z,2,GR86-010-16,1.5,0.148,0.0,99.98,4.0,7176.0,0.0,0.0,
2025-08-15T01:42:51.400Z,2,GR86-010-16,2.0,0.14,0.025,100.0,4.0,,0.0,0.0,183.3
2025-08-15T01:42:51.443Z,2,GR86-010-16,2.0,0.11,0.041,99.98,4.0,,0.0,0.0,
2025-08-15T01:42:51.486Z,2,GR86-010-16,2.1,0.108,0.062,100.0,4.0,,0.0,0.0,
2025-08-15T01:42:51.529Z,2,GR86-010-16,2.7,0.109,0.109,100.02,4.0,,0.0,0.0,
2025-08-15T01:42:51.573Z,2,GR86-010-16,2.7,0.114,0.12,99.98,4.0,7211.0,0.0,0.0,
2025-08-15T01:42:51.616Z,2,GR86-010-16,2.7,0.12,0.118,100.01,4.0,,0.0,0.0,184.13
2025-08-15T01:42:51.659Z,2,GR86-010-16,2.9000000000000004,0.112,0.134,99.99,4.0,,0.0,0.0,
2025-08-15T01:42:51.702Z,2,GR86-010-16,2.9000000000000004,0.131,0.142,100.0,4.0,,0.0,0.0,
2025-08-15T01:42:51.746Z,2,GR86-010-16,2.9000000000000004,0.117,0.131,100.02,4.0,,0.0,0.0,
2025-08-15T01:42:51.789Z,2,GR86-010-16,3.8,0.1,0.138,99.99,4.0,7244.0,0.0,0.0,
2025-08-15T01:42:51.832Z,2,GR86-010-16,3.8,0.09,0.136,99.98,4.0,,0.0,0.0,185.04
2025-08-15T01:42:51.874Z,2,GR86-010-16,3.8,0.038,0.126,100.0,4.0,,0.0,0.0,
2025-08-15T01:42:51.918Z,2,GR86-010-16,3.5,0.023,0.098,100.03,4.0,,0.0,0.0,
2025-08-15T01:42:51.960Z,2,GR86-010-16,3.4000000000000004,-0.009,0.068,99.99,4.0,,0.0,0.0,
2025-08-15T01:42:52.003Z,2,GR86-010-16,3.4000000000000004,0.046,0.081,100.0,4.0,7278.0,0.0,0.0,
2025-08-15T01:42:52.046Z,2,GR86-010-16,3.4000000000000004,0.05,0.07,99.99,4.0,,0.0,0.0,185.82
2025-08-15T01:42:52.089Z,2,GR86-010-16,3.4000000000000004,0.012,0.04,100.0,4.0,,0.0,0.0,
2025-08-15T01:42:52.133Z,2,GR86-010-16,4.2,-0.008,0.086,100.02,4.0,,0.0,0.0,
2025-08-15T01:42:52.176Z,2,GR86-010-16,4.2,0.007,0.13,100.0,4.0,,0.0,0.0,
2025-08-15T01:42:52.219Z,2,GR86-010-16,4.2,0.035,0.15,99.97,4.0,7235.0,6.96,7.05,
2025-08-15T01:42:52.263Z,2,GR86-010-16,4.2,-0.272,0.164,45.7,4.0,,13.14,13.14,186.65
2025-08-15T01:42:52.305Z,2,GR86-010-16,4.2,-0.211,0.147,29.69,4.0,,16.28,16.115000000000002,
2025-08-15T01:42:52.349Z,2,GR86-010-16,4.2,-0.255,0.129,4.07,4.0,,19.305,18.955,
2025-08-15T01:42:52.393Z,2,GR86-010-16,4.2,-0.329,0.092,3.53,4.0,,22.875,22.645,
2025-08-15T01:42:52.436Z,2,GR86-010-16,4.2,-0.589,0.089,3.34,4.0,7266.0,29.085,28.75,
2025-08-15T01:42:52.478Z,2,GR86-010-16,4.2,-0.587,0.06,3.16,4.0,,33.315,32.9,187.24
2025-08-15T01:42:52.522Z,2,GR86-010-16,4.2,-0.8300000000000001,0.044,2.92,4.0,,53.305,52.615,
2025-08-15T01:42:52.564Z,2,GR86-010-16,4.2,-1.004,0.078,2.83,4.0,,69.34,68.5,
2025-08-15T01:42:52.607Z,2,GR86-010-16,4.2,-1.1,0.023,2.79,4.0,,75.37,74.865,
2025-08-15T01:42:52.650Z,2,GR86-010-16,2.8000000000000003,-1.076,0.044,2.89,4.0,7329.0,61.97,63.315000000000005,
2025-08-15T01:42:52.694Z,2,GR86-010-16,-0.3,-0.8130000000000001,0.004,2.83,4.0,,41.4,43.26,185.21
2025-08-15T01:42:52.736Z,2,GR86-010-16,-0.6000000000000001,-0.804,-0.024,2.73,4.0,,34.655,35.83,
2025-08-15T01:42:52.779Z,2,GR86-010-16,-0.9,-0.922,0.013,2.79,4.0,,48.865,49.275,
2025-08-15T01:42:52.823Z,2,GR86-010-16,-1.7000000000000002,-1.007,-0.071,2.72,4.0,,60.43,60.370000000000005,
2025-08-15T01:42:52.867Z,2,GR86-010-16,-1.7000000000000002,-0.976,-0.07,2.73,4.0,6827.0,55.3,56.22,
2025-08-15T01:42:52.909Z,2,GR86-010-16,-1.7000000000000002,-0.905,-0.075,2.69,4.0,,48.265,49.73,179.72
2025-08-15T01:42:52.953Z,2,GR86-010-16,-1.7000000000000002,-0.885,-0.136,2.67,4.0,,46.405,47.365,
2025-08-15T01:42:52.996Z,2,GR86-010-16,-1.7000000000000002,-1.008,-0.095,2.65,4.0,,46.24,47.185,
2025-08-15T01:42:53.038Z,2,GR86-010-16,-1.7000000000000002,-0.918,-0.082,2.64,4.0,,42.33,43.615,
2025-08-15T01:42:53.083Z,2,GR86-010-16,-1.7000000000000002,-0.763,-0.168,2.61,4.0,6498.0,35.235,36.12,
2025-08-15T01:42:53.126Z,2,GR86-010-16,-1.7000000000000002,-0.849,-0.15,2.61,4.0,,35.235,35.89,173.37
2025-08-15T01:42:53.169Z,2,GR86-010-16,-1.7000000000000002,-0.8310000000000001,-0.082,2.57,4.0,,36.12,36.515,
2025-08-15T01:42:53.214Z,2,GR86-010-16,-1.7000000000000002,-0.782,-0.066,2.57,4.0,,39.72,39.935,
2025-08-15T01:42:53.256Z,2,GR86-010-16,-4.2,-0.847,-0.05,18.61,4.0,,42.925,42.985,
2025-08-15T01:42:53.299Z,2,GR86-010-16,-5.300000000000001,-0.862,-0.097,64.59,4.0,6266.0,40.3,41.25,
2025-08-15T01:42:53.343Z,2,GR86-010-16,-5.4,-0.812,-0.124,27.36,3.0,,30.365,31.3,166.96
2025-08-15T01:42:53.386Z,2,GR86-010-16,-9.8,-0.74,-0.066,11.2,3.0,,41.25,42.18,
2025-08-15T01:42:53.429Z,2,GR86-010-16,-15.7,-1.03,-0.237,3.26,3.0,,51.565,51.870000000000005,
2025-08-15T01:42:53.473Z,2,GR86-010-16,-16.6,-1.096,-0.455,3.27,3.0,,51.15,51.335,
2025-08-15T01:42:53.558Z,2,GR86-010-16,-15.7,-0.848,-0.323,3.56,3.0,6074.0,42.575,43.355,161.4
2025-08-15T01:42:53.602Z,2,GR86-010-16,-11.8,-0.807,-0.463,3.0500000000000003,3.0,,41.49,42.025,
2025-08-15T01:42:53.646Z,2,GR86-010-16,-14.5,-0.783,-0.524,2.89,3.0,,36.455,37.355,
2025-08-15T01:42:53.688Z,2,GR86-010-16,-14.6,-0.8180000000000001,-0.547,2.79,3.0,,31.055,32.17,
2025-08-15T01:42:53.732Z,2,GR86-010-16,-19.5,-0.6970000000000001,-0.428,2.73,3.0,6940.0,32.565,33.435,
2025-08-15T01:42:53.817Z,2,GR86-010-16,-22.6,-0.733,-0.531,2.7,3.0,,34.715,35.235,155.48
2025-08-15T01:42:53.903Z,2,GR86-010-16,-22.6,-0.789,-0.452,2.65,3.0,,33.875,34.215,
2025-08-15T01:42:53.946Z,2,GR86-010-16,-38.0,-0.8,-0.7000000000000001,2.63,3.0,6471.0,34.565,34.96,
2025-08-15T01:42:53.989Z,2,GR86-010-16,-42.3,-0.772,-0.679,2.61,3.0,,35.555,35.74,150.43
2025-08-15T01:42:54.033Z,2,GR86-010-16,-43.7,-0.749,-0.723,2.6,3.0,,37.175,37.355,
2025-08-15T01:42:54.076Z,2,GR86-010-16,-45.5,-0.8310000000000001,-0.873,2.57,3.0,,38.47,39.19,
2025-08-15T01:42:54.119Z,2,GR86-010-16,-47.7,-0.781,-0.918,2.57,3.0,,38.96,39.43,
2025-08-15T01:42:54.163Z,2,GR86-010-16,-50.5,-0.724,-0.843,2.56,3.0,6445.0,43.675,44.5,
2025-08-15T01:42:54.205Z,2,GR86-010-16,-54.900000000000006,-0.777,-0.975,2.5500000000000003,3.0,,45.4,46.115,145.19
2025-08-15T01:42:54.249Z,2,GR86-010-16,-58.8,-0.725,-1.024,2.54,3.0,,41.705,42.085,
2025-08-15T01:42:54.292Z,2,GR86-010-16,-59.6,-0.794,-1.049,2.74,3.0,,35.955,36.775,
2025-08-15T01:42:54.334Z,2,GR86-010-16,-55.7,-0.606,-0.993,8.8,3.0,,28.55,29.435,
2025-08-15T01:42:54.378Z,2,GR86-010-16,-52.900000000000006,-0.54,-1.077,20.28,3.0,6113.0,14.115,14.725,
2025-08-15T01:42:54.463Z,2,GR86-010-16,-57.6,-0.201,-1.294,20.11,3.0,,0.0,0.0,140.36
2025-08-15T01:42:54.506Z,2,GR86-010-16,-60.2,-0.11,-1.27,19.02,3.0,,0.0,0.0,
2025-08-15T01:42:54.549Z,2,GR86-010-16,-63.1,-0.141,-1.309,20.65,3.0,,0.0,0.0,
2025-08-15T01:42:54.593Z,2,GR86-010-16,-60.0,-0.066,-1.275,28.87,3.0,5842.0,0.0,0.0,
2025-08-15T01:42:54.636Z,2,GR86-010-16,-48.8,0.054,-1.316,30.16,3.0,,0.0,0.0,135.05
2025-08-15T01:42:54.679Z,2,GR86-010-16,-34.1,-0.015,-1.343,27.36,3.0,,0.0,0.0,
2025-08-15T01:42:54.722Z,2,GR86-010-16,-30.8,0.056,-1.231,26.64,3.0,,0.0,0.0,
2025-08-15T01:42:54.766Z,2,GR86-010-16,-32.7,0.065,-1.19,18.33,3.0,,0.0,0.0,
2025-08-15T01:42:54.808Z,2,GR86-010-16,-27.1,0.075,-1.272,6.17,3.0,5881.0,0.0,0.0,
2025-08-15T01:42:54.852Z,2,GR86-010-16,-25.700000000000003,0.033,-1.219,15.35,3.0,,0.0,0.0,130.99
2025-08-15T01:42:54.894Z,2,GR86-010-16,-34.7,-0.104,-1.202,14.88,3.0,,0.0,0.0,
2025-08-15T01:42:54.938Z,2,GR86-010-16,-45.900000000000006,-0.117,-1.35,11.44,3.0,,0.0,0.0,
2025-08-15T01:42:54.984Z,2,GR86-010-16,-57.7,-0.118,-1.207,8.74,3.0,,0.0,0.0,
2025-08-15T01:42:55.026Z,2,GR86-010-16,-64.5,-0.089,-1.18,10.63,3.0,6019.0,0.0,0.0,
2025-08-15T01:42:55.069Z,2,GR86-010-16,-69.7,-0.124,-1.136,8.2,3.0,,0.0,0.0,129.55
2025-08-15T01:42:55.113Z,2,GR86-010-16,-72.2,-0.191,-1.161,16.7,3.0,,0.0,0.0,
2025-08-15T01:42:55.156Z,2,GR86-010-16,-74.10000000000001,-0.21,-1.247,22.65,3.0,,0.0,0.0,
2025-08-15T01:42:55.198Z,2,GR86-010-16,-74.10000000000001,-0.143,-1.18,25.03,3.0,,0.0,0.0,
2025-08-15T01:42:55.242Z,2,GR86-010-16,-69.10000000000001,-0.219,-1.089,32.52,3.0,5917.0,0.0,0.0,
2025-08-15T01:42:55.284Z,2,GR86-010-16,-67.9,-0.195,-1.177,33.36,3.0,,0.0,0.0,127.83
2025-08-15T01:42:55.327Z,2,GR86-010-16,-68.0,-0.017,-1.15,33.27,3.0,,0.0,0.0,
2025-08-15T01:42:55.372Z,2,GR86-010-16,-68.7,0.152,-1.185,32.480000000000004,3.0,,0.0,0.0,
2025-08-15T01:42:55.414Z,2,GR86-010-16,-69.0,0.043,-1.209,32.37,3.0,,0.0,0.0,
2025-08-15T01:42:55.500Z,2,GR86-010-16,-58.6,0.093,-1.168,32.5,3.0,5786.0,0.0,0.0,126.84
2025-08-15T01:42:55.543Z,2,GR86-010-16,-56.3,0.038,-1.266,38.06,3.0,,0.0,0.0,
2025-08-15T01:42:55.586Z,2,GR86-010-16,-59.3,0.06,-1.219,43.24,3.0,,0.0,0.0,
2025-08-15T01:42:55.629Z,2,GR86-010-16,-59.8,0.061,-1.237,40.97,3.0,,0.0,0.0,
2025-08-15T01:42:55.673Z,2,GR86-010-16,-56.3,0.105,-1.147,34.02,3.0,5886.0,0.0,0.0,
2025-08-15T01:42:55.716Z,2,GR86-010-16,-54.7,0.094,-1.176,34.1,3.0,,0.0,0.0,126.4
2025-08-15T01:42:55.759Z,2,GR86-010-16,-54.7,0.104,-1.277,37.85,3.0,,0.0,0.0,
2025-08-15T01:42:55.802Z,2,GR86-010-16,-46.900000000000006,0.092,-1.282,42.94,3.0,,0.0,0.0,
2025-08-15T01:42:55.844Z,2,GR86-010-16,-40.0,0.072,-1.305,43.79,3.0,,0.0,0.0,
2025-08-15T01:42:55.887Z,2,GR86-010-16,-39.6,0.101,-1.252,44.51,3.0,5963.0,0.0,0.0,
2025-08-15T01:42:55.930Z,2,GR86-010-16,-45.2,0.124,-1.274,51.04,3.0,,0.0,0.0,126.64
2025-08-15T01:42:55.973Z,2,GR86-010-16,-55.0,0.132,-1.278,69.65,3.0,,0.0,0.0,
2025-08-15T01:42:56.016Z,2,GR86-010-16,-64.9,0.095,-1.283,98.05,3.0,,0.0,0.0,
2025-08-15T01:42:56.060Z,2,GR86-010-16,-67.5,0.1,-1.291,100.04,3.0,,0.0,0.0,
2025-08-15T01:42:56.103Z,2,GR86-010-16,-58.5,0.125,-1.272,100.02,3.0,5975.0,0.0,0.0,
2025-08-15T01:42:56.146Z,2,GR86-010-16,-50.7,0.145,-1.261,100.02,3.0,,0.0,0.0,126.84
2025-08-15T01:42:56.189Z,2,GR86-010-16,-45.7,0.159,-1.235,100.01,3.0,,0.0,0.0,
2025-08-15T01:42:56.233Z,2,GR86-010-16,-43.900000000000006,0.152,-1.243,100.01,3.0,,0.0,0.0,
2025-08-15T01:42:56.276Z,2,GR86-010-16,-44.0,0.161,-1.282,100.02,3.0,,0.0,0.0,
2025-08-15T01:42:56.318Z,2,GR86-010-16,-44.0,0.177,-1.287,100.03,3.0,6079.0,0.0,0.0,
2025-08-15T01:42:56.362Z,2,GR86-010-16,-43.900000000000006,0.192,-1.284,100.02,3.0,,0.0,0.0,127.15
2025-08-15T01:42:56.406Z,2,GR86-010-16,-44.400000000000006,0.177,-1.269,100.02,3.0,,0.0,0.0,
2025-08-15T01:42:56.449Z,2,GR86-010-16,-45.2,0.173,-1.282,100.03,3.0,,0.0,0.0,
2025-08-15T01:42:56.494Z,2,GR86-010-16,-45.400000000000006,0.178,-1.21,100.01,3.0,,0.0,0.0,
2025-08-15T01:42:56.536Z,2,GR86-010-16,-42.8,0.183,-1.135,100.01,3.0,6154.0,0.0,0.0,
2025-08-15T01:42:56.579Z,2,GR86-010-16,-38.2,0.166,-1.151,100.03,3.0,,0.0,0.0,127.4
2025-08-15T01:42:56.623Z,2,GR86-010-16,-37.0,0.194,-1.186,100.02,3.0,,0.0,0.0,
2025-08-15T01:42:56.666Z,2,GR86-010-16,-37.1,0.213,-1.224,100.01,3.0,,0.0,0.0,
2025-08-15T01:42:56.708Z,2,GR86-010-16,-37.3,0.234,-1.186,100.01,3.0,,0.0,0.0,
2025-08-15T01:42:56.753Z,2,GR86-010-16,-43.3,0.218,-1.124,100.02,3.0,6191.0,0.0,0.0,
2025-08-15T01:42:56.796Z,2,GR86-010-16,-53.3,0.166,-1.16,100.02,3.0,,0.0,0.0,128.52
2025-08-15T01:42:56.838Z,2,GR86-010-16,-59.7,0.135,-1.196,100.02,3.0,,0.0,0.0,
2025-08-15T01:42:56.884Z,2,GR86-010-16,-58.6,0.133,-1.234,100.01,3.0,,0.0,0.0,
2025-08-15T01:42:56.926Z,2,GR86-010-16,-58.0,0.171,-1.204,100.02,3.0,,0.0,0.0,
2025-08-15T01:42:57.013Z,2,GR86-010-16,-59.8,0.141,-1.181,100.02,3.0,6150.0,0.0,0.0,129.27
2025-08-15T01:42:57.056Z,2,GR86-010-16,-59.900000000000006,0.102,-1.19,100.01,3.0,,0.0,0.0,
2025-08-15T01:42:57.098Z,2,GR86-010-16,-59.7,0.16,-1.165,100.02,3.0,,0.0,0.0,
2025-08-15T01:42:57.142Z,2,GR86-010-16,-55.900000000000006,0.154,-1.182,100.02,3.0,,0.0,0.0,
2025-08-15T01:42:57.184Z,2,GR86-010-16,-49.7,0.192,-1.14,100.03,3.0,6146.0,0.0,0.0,
2025-08-15T01:42:57.227Z,2,GR86-010-16,-40.7,0.139,-1.144,100.01,3.0,,0.0,0.0,129.35
2025-08-15T01:42:57.270Z,2,GR86-010-16,-34.800000000000004,0.15,-1.023,100.02,3.0,,0.0,0.0,
2025-08-15T01:42:57.314Z,2,GR86-010-16,-34.5,0.174,-0.912,100.03,3.0,,0.0,0.0,
2025-08-15T01:42:57.356Z,2,GR86-010-16,-36.8,0.116,-0.536,100.01,3.0,,0.0,0.0,
2025-08-15T01:42:57.399Z,2,GR86-010-16,-37.8,0.006,-0.547,100.03,3.0,6144.0,0.0,0.0,
2025-08-15T01:42:57.443Z,2,GR86-010-16,-34.1,0.219,-0.636,100.01,3.0,,0.0,0.0,131.44
2025-08-15T01:42:57.486Z,2,GR86-010-16,-30.6,0.039,-0.5760000000000001,100.02,3.0,,0.0,0.0,
2025-08-15T01:42:57.529Z,2,GR86-010-16,-28.6,-0.066,-0.64,100.02,3.0,,0.0,0.0,
2025-08-15T01:42:57.573Z,2,GR86-010-16,-28.6,-0.108,-0.963,100.03,3.0,,0.0,0.0,
2025-08-15T01:42:57.616Z,2,GR86-010-16,-29.4,0.117,-1.219,100.02,3.0,6238.0,0.0,0.0,
2025-08-15T01:42:57.659Z,2,GR86-010-16,-30.0,0.36,-1.176,100.02,3.0,,0.0,0.0,132.72
2025-08-15T01:42:57.702Z,2,GR86-010-16,-29.0,0.128,-1.218,100.02,3.0,,0.0,0.0,
2025-08-15T01:42:57.746Z,2,GR86-010-16,-32.1,0.266,-1.289,100.03,3.0,,0.0,0.0,
2025-08-15T01:42:57.789Z,2,GR86-010-16,-33.4,0.299,-1.043,100.01,3.0,,0.0,0.0,
2025-08-15T01:42:57.832Z,2,GR86-010-16,-34.4,0.14,-1.065,100.02,3.0,6396.0,0.0,0.0,
2025-08-15T01:42:57.874Z,2,GR86-010-16,-46.8,0.019,-1.255,100.03,3.0,,0.0,0.0,132.34
2025-08-15T01:42:57.918Z,2,GR86-010-16,-56.5,0.328,-1.541,100.02,3.0,,0.0,0.0,
2025-08-15T01:42:57.960Z,2,GR86-010-16,-62.5,0.239,-1.357,100.03,3.0,,0.0,0.0,
2025-08-15T01:42:58.003Z,2,GR86-010-16,-51.3,0.111,-1.17,100.02,3.0,,0.0,0.0,
2025-08-15T01:42:58.046Z,2,GR86-010-16,-45.6,0.057,-1.017,100.01,3.0,6420.0,0.0,0.0,
2025-08-15T01:42:58.089Z,2,GR86-010-16,-40.7,0.155,-0.929,100.03,3.0,,0.0,0.0,135.31
2025-08-15T01:42:58.133Z,2,GR86-010-16,-37.6,0.247,-0.991,100.01,3.0,,0.0,0.0,
2025-08-15T01:42:58.176Z,2,GR86-010-16,-35.5,0.249,-0.949,100.03,3.0,,0.0,0.0,
2025-08-15T01:42:58.219Z,2,GR86-010-16,-35.300000000000004,0.16,-0.931,100.04,3.0,,0.0,0.0,
2025-08-15T01:42:58.263Z,2,GR86-010-16,-34.800000000000004,0.147,-0.925,100.02,3.0,6545.0,0.0,0.0,
2025-08-15T01:42:58.305Z,2,GR86-010-16,-33.1,0.119,-0.98,100.01,3.0,,0.0,0.0,135.01
2025-08-15T01:42:58.349Z,2,GR86-010-16,-31.8,0.198,-1.137,100.02,3.0,,0.0,0.0,
2025-08-15T01:42:58.392Z,2,GR86-010-16,-29.4,0.256,-1.087,100.02,3.0,,0.0,0.0,
2025-08-15T01:42:58.434Z,2,GR86-010-16,-28.200000000000003,0.179,-0.914,100.02,3.0,,0.0,0.0,
2025-08-15T01:42:58.478Z,2,GR86-010-16,-29.5,0.172,-0.846,100.03,3.0,6468.0,0.0,0.0,
2025-08-15T01:42:58.520Z,2,GR86-010-16,-31.3,0.177,-0.84,100.0,3.0,,0.0,0.0,135.77
2025-08-15T01:42:58.563Z,2,GR86-010-16,-33.4,0.189,-0.788,100.02,3.0,,0.0,0.0,
2025-08-15T01:42:58.606Z,2,GR86-010-16,-34.0,0.25,-0.63,100.01,3.0,,0.0,0.0,
2025-08-15T01:42:58.649Z,2,GR86-010-16,-35.300000000000004,0.159,-0.756,100.01,3.0,,0.0,0.0,
2025-08-15T01:42:58.693Z,2,GR86-010-16,-36.7,0.151,-0.668,100.02,3.0,6403.0,0.0,0.0,
2025-08-15T01:42:58.736Z,2,GR86-010-16,-37.0,0.176,-0.711,100.02,3.0,,0.0,0.0,137.57
2025-08-15T01:42:58.778Z,2,GR86-010-16,-33.6,0.181,-0.8290000000000001,100.02,3.0,,0.0,0.0,
2025-08-15T01:42:58.822Z,2,GR86-010-16,-25.8,0.081,-0.8210000000000001,100.01,3.0,,0.0,0.0,
2025-08-15T01:42:58.864Z,2,GR86-010-16,-19.5,0.237,-0.8310000000000001,100.03,3.0,,0.0,0.0,
2025-08-15T01:42:58.907Z,2,GR86-010-16,-14.0,0.265,-0.5690000000000001,100.03,3.0,6455.0,0.0,0.0,
2025-08-15T01:42:58.950Z,2,GR86-010-16,-12.0,0.098,-0.543,100.02,3.0,,0.0,0.0,138.46
2025-08-15T01:42:58.994Z,2,GR86-010-16,-12.0,0.141,-0.543,99.99,3.0,,0.0,0.0,
2025-08-15T01:42:59.036Z,2,GR86-010-16,-12.0,0.207,-0.521,100.01,3.0,,0.0,0.0,
2025-08-15T01:42:59.079Z,2,GR86-010-16,-9.0,0.216,-0.401,100.01,3.0,,0.0,0.0,
2025-08-15T01:42:59.123Z,2,GR86-010-16,-4.2,0.359,-0.383,100.02,3.0,6647.0,0.0,0.0,
2025-08-15T01:42:59.167Z,2,GR86-010-16,-4.1000000000000005,0.26,-0.286,100.02,3.0,,0.0,0.0,139.86
2025-08-15T01:42:59.210Z,2,GR86-010-16,-3.8,0.117,-0.148,100.02,3.0,,0.0,0.0,
2025-08-15T01:42:59.253Z,2,GR86-010-16,-1.3,0.085,-0.164,100.03,3.0,,0.0,0.0,
2025-08-15T01:42:59.296Z,2,GR86-010-16,1.8,0.164,-0.126,100.02,3.0,,0.0,0.0,
2025-08-15T01:42:59.339Z,2,GR86-010-16,3.7,0.251,-0.067,100.02,3.0,6716.0,0.0,0.0,
2025-08-15T01:42:59.383Z,2,GR86-010-16,5.1000000000000005,0.316,-0.037,100.01,3.0,,0.0,0.0,140.70000000000002
2025-08-15T01:42:59.426Z,2,GR86-010-16,6.4,0.227,0.052,100.02,3.0,,0.0,0.0,
2025-08-15T01:42:59.469Z,2,GR86-010-16,7.300000000000001,0.101,0.089,100.0,3.0,,0.0,0.0,
2025-08-15T01:42:59.514Z,2,GR86-010-16,9.3,0.087,0.156,100.02,3.0,,0.0,0.0,
2025-08-15T01:42:59.556Z,2,GR86-010-16,10.6,0.236,0.205,100.02,3.0,6851.0,0.0,0.0,
2025-08-15T01:42:59.599Z,2,GR86-010-16,11.1,0.23,0.259,100.02,3.0,,0.0,0.0,142.23
2025-08-15T01:42:59.644Z,2,GR86-010-16,11.1,0.177,0.299,100.01,3.0,,0.0,0.0,
2025-08-15T01:42:59.686Z,2,GR86-010-16,11.1,0.233,0.336,100.02,3.0,,0.0,0.0,
2025-08-15T01:42:59.729Z,2,GR86-010-16,11.1,0.258,0.333,100.02,3.0,,0.0,0.0,
2025-08-15T01:42:59.816Z,2,GR86-010-16,11.1,0.137,0.319,100.02,3.0,6688.0,0.0,0.0,144.1
2025-08-15T01:42:59.858Z,2,GR86-010-16,11.1,0.16,0.279,100.03,3.0,,0.0,0.0,
2025-08-15T01:42:59.903Z,2,GR86-010-16,12.0,0.143,0.34,100.02,3.0,,0.0,0.0,
2025-08-15T01:42:59.946Z,2,GR86-010-16,12.0,0.161,0.325,100.03,3.0,,0.0,0.0,
2025-08-15T01:42:59.989Z,2,GR86-010-16,12.0,0.229,0.295,100.0,3.0,6825.0,0.0,0.0,
2025-08-15T01:43:00.033Z,2,GR86-010-16,11.0,0.252,0.268,100.0,3.0,,0.0,0.0,145.52
2025-08-15T01:43:00.076Z,2,GR86-010-16,10.8,0.216,0.277,100.01,3.0,,0.0,0.0,
2025-08-15T01:43:00.118Z,2,GR86-010-16,10.8,0.159,0.286,100.02,3.0,,0.0,0.0,
2025-08-15T01:43:00.162Z,2,GR86-010-16,10.8,0.237,0.244,100.02,3.0,,0.0,0.0,
2025-08-15T01:43:00.204Z,2,GR86-010-16,10.8,0.175,0.261,100.02,3.0,6892.0,0.0,0.0,
2025-08-15T01:43:00.247Z,2,GR86-010-16,10.8,0.135,0.257,100.03,3.0,,0.0,0.0,147.05
2025-08-15T01:43:00.290Z,2,GR86-010-16,9.4,0.153,0.229,100.02,3.0,,0.0,0.0,
2025-08-15T01:43:00.334Z,2,GR86-010-16,9.3,0.221,0.193,100.03,3.0,,0.0,0.0,
2025-08-15T01:43:00.376Z,2,GR86-010-16,9.3,0.255,0.186,100.03,3.0,,0.0,0.0,
2025-08-15T01:43:00.419Z,2,GR86-010-16,9.3,0.22,0.196,100.01,3.0,6953.0,0.0,0.0,
2025-08-15T01:43:00.463Z,2,GR86-010-16,9.3,0.224,0.203,100.0,3.0,,0.0,0.0,148.6
2025-08-15T01:43:00.505Z,2,GR86-010-16,9.3,0.242,0.197,100.02,3.0,,0.0,0.0,
2025-08-15T01:43:00.548Z,2,GR86-010-16,7.7,0.201,0.187,100.04,3.0,,0.0,0.0,
2025-08-15T01:43:00.592Z,2,GR86-010-16,7.7,0.155,0.198,100.03,3.0,,0.0,0.0,
2025-08-15T01:43:00.634Z,2,GR86-010-16,12.8,0.13,0.237,100.01,3.0,7032.0,0.0,0.0,
2025-08-15T01:43:00.678Z,2,GR86-010-16,15.2,0.159,0.252,100.01,3.0,,0.0,0.0,150.09
2025-08-15T01:43:00.720Z,2,GR86-010-16,16.0,0.208,0.302,100.02,3.0,,0.0,0.0,
2025-08-15T01:43:00.763Z,2,GR86-010-16,16.0,0.13,0.373,100.01,3.0,,0.0,0.0,
2025-08-15T01:43:00.806Z,2,GR86-010-16,15.5,0.17,0.346,100.03,3.0,,0.0,0.0,
2025-08-15T01:43:00.849Z,2,GR86-010-16,15.4,0.217,0.351,100.05,3.0,7055.0,0.0,0.0,
2025-08-15T01:43:00.893Z,2,GR86-010-16,15.4,0.216,0.376,100.03,3.0,,0.0,0.0,153.15
2025-08-15T01:43:00.936Z,2,GR86-010-16,15.4,0.197,0.403,100.02,3.0,,0.0,0.0,
2025-08-15T01:43:00.979Z,2,GR86-010-16,15.3,0.162,0.402,100.01,3.0,,0.0,0.0,
2025-08-15T01:43:01.022Z,2,GR86-010-16,15.3,0.2,0.371,100.03,3.0,,0.0,0.0,
2025-08-15T01:43:01.066Z,2,GR86-010-16,15.3,0.161,0.379,100.04,3.0,7124.0,0.0,0.0,
2025-08-15T01:43:01.109Z,2,GR86-010-16,15.3,0.083,0.366,100.01,3.0,,0.0,0.0,154.76
2025-08-15T01:43:01.153Z,2,GR86-010-16,14.1,-0.225,0.343,100.02,4.0,,0.0,0.0,
2025-08-15T01:43:01.196Z,2,GR86-010-16,14.0,0.411,0.371,100.0,4.0,,0.0,0.0,
2025-08-15T01:43:01.238Z,2,GR86-010-16,14.0,0.207,0.249,100.02,4.0,,0.0,0.0,
2025-08-15T01:43:01.284Z,2,GR86-010-16,13.7,0.257,0.344,100.01,4.0,7238.0,0.0,0.0,
2025-08-15T01:43:01.326Z,2,GR86-010-16,13.2,0.15,0.3,100.0,4.0,,0.0,0.0,156.32
2025-08-15T01:43:01.369Z,2,GR86-010-16,13.0,0.04,0.247,100.03,4.0,,0.0,0.0,
2025-08-15T01:43:01.413Z,2,GR86-010-16,13.0,0.124,0.311,100.01,4.0,,0.0,0.0,
2025-08-15T01:43:01.456Z,2,GR86-010-16,13.0,0.247,0.247,100.02,4.0,,0.0,0.0,
2025-08-15T01:43:01.498Z,2,GR86-010-16,11.2,0.23,0.241,100.02,4.0,6307.0,0.0,0.0,
2025-08-15T01:43:01.542Z,2,GR86-010-16,9.9,0.088,0.223,100.0,4.0,,0.0,0.0,157.76
2025-08-15T01:43:01.586Z,2,GR86-010-16,9.9,0.17,0.218,100.03,4.0,,0.0,0.0,
2025-08-15T01:43:01.628Z,2,GR86-010-16,9.9,0.217,0.233,100.03,4.0,,0.0,0.0,
2025-08-15T01:43:01.672Z,2,GR86-010-16,9.9,0.212,0.229,100.02,4.0,,0.0,0.0,
2025-08-15T01:43:01.714Z,2,GR86-010-16,9.9,0.13,0.217,100.02,4.0,6230.0,0.0,0.0,
2025-08-15T01:43:01.757Z,2,GR86-010-16,9.9,0.134,0.211,100.03,4.0,,0.0,0.0,159.48
2025-08-15T01:43:01.800Z,2,GR86-010-16,9.9,0.099,0.244,100.01,4.0,,0.0,0.0,
2025-08-15T01:43:01.843Z,2,GR86-010-16,8.9,0.176,0.207,100.03,4.0,,0.0,0.0,
2025-08-15T01:43:01.886Z,2,GR86-010-16,7.9,0.174,0.157,100.02,4.0,,0.0,0.0,
2025-08-15T01:43:01.929Z,2,GR86-010-16,7.1000000000000005,0.128,0.168,100.01,4.0,6319.0,0.0,0.0,
2025-08-15T01:43:01.973Z,2,GR86-010-16,6.800000000000001,0.098,0.148,100.02,4.0,,0.0,0.0,160.99
2025-08-15T01:43:02.016Z,2,GR86-010-16,6.5,0.107,0.086,100.02,4.0,,0.0,0.0,
2025-08-15T01:43:02.059Z,2,GR86-010-16,5.9,0.1,0.055,100.02,4.0,,0.0,0.0,
2025-08-15T01:43:02.103Z,2,GR86-010-16,4.5,0.136,0.024,100.01,4.0,,0.0,0.0,
2025-08-15T01:43:02.146Z,2,GR86-010-16,4.0,0.116,0.019,100.02,4.0,6340.0,0.0,0.0,
2025-08-15T01:43:02.188Z,2,GR86-010-16,4.0,0.108,0.012,100.03,4.0,,0.0,0.0,162.41
2025-08-15T01:43:02.232Z,2,GR86-010-16,3.8,0.09,-0.014,100.02,4.0,,2.855,3.13,
2025-08-15T01:43:02.274Z,2,GR86-010-16,3.2,0.097,-0.024,100.02,4.0,,6.96,7.205,
2025-08-15T01:43:02.318Z,2,GR86-010-16,2.4000000000000004,0.044,-0.025,100.02,4.0,,6.515000000000001,6.93,
2025-08-15T01:43:02.360Z,2,GR86-010-16,1.0,0.039,-0.043,100.02,4.0,6432.0,4.3950000000000005,5.0200000000000005,
2025-08-15T01:43:02.403Z,2,GR86-010-16,-0.9,0.073,-0.102,100.01,4.0,,0.0,0.0,163.89
2025-08-15T01:43:02.446Z,2,GR86-010-16,-1.3,0.094,-0.13,99.99,4.0,,0.0,0.0,
2025-08-15T01:43:02.489Z,2,GR86-010-16,-1.3,0.101,-0.152,100.03,4.0,,0.0,0.0,
2025-08-15T01:43:02.533Z,2,GR86-010-16,-1.3,0.119,-0.174,100.02,4.0,,0.0,0.0,
2025-08-15T01:43:02.576Z,2,GR86-010-16,-1.3,0.132,-0.178,100.02,4.0,6450.0,0.0,0.0,
2025-08-15T01:43:02.618Z,2,GR86-010-16,-1.5,0.131,-0.192,100.03,4.0,,0.0,0.0,165.35
2025-08-15T01:43:02.662Z,2,GR86-010-16,-3.3000000000000003,0.115,-0.192,100.0,4.0,,0.0,0.0,
2025-08-15T01:43:02.749Z,2,GR86-010-16,-6.6000000000000005,0.103,-0.214,100.01,4.0,,0.0,0.0,
2025-08-15T01:43:02.794Z,2,GR86-010-16,-7.300000000000001,0.116,-0.23,100.02,4.0,6541.0,0.0,0.0,
2025-08-15T01:43:02.836Z,2,GR86-010-16,-7.300000000000001,0.112,-0.272,100.02,4.0,,0.0,0.0,166.39
2025-08-15T01:43:02.879Z,2,GR86-010-16,-7.300000000000001,0.127,-0.302,99.99,4.0,,0.0,0.0,
2025-08-15T01:43:02.923Z,2,GR86-010-16,-7.300000000000001,0.099,-0.314,100.03,4.0,,0.0,0.0,
2025-08-15T01:43:02.966Z,2,GR86-010-16,-7.300000000000001,0.099,-0.326,100.02,4.0,,0.0,0.0,
2025-08-15T01:43:03.009Z,2,GR86-010-16,-7.5,0.102,-0.336,100.01,4.0,6588.0,0.0,0.0,
2025-08-15T01:43:03.053Z,2,GR86-010-16,-7.5,0.105,-0.343,99.99,4.0,,0.0,0.0,167.87
2025-08-15T01:43:03.096Z,2,GR86-010-16,-7.5,0.107,-0.353,99.98,4.0,,0.0,0.0,
2025-08-15T01:43:03.139Z,2,GR86-010-16,-7.5,0.121,-0.351,100.0,4.0,,0.0,0.0,
2025-08-15T01:43:03.183Z,2,GR86-010-16,-7.5,0.113,-0.336,100.01,4.0,,0.0,0.0,
2025-08-15T01:43:03.226Z,2,GR86-010-16,-7.5,0.096,-0.335,100.02,4.0,6639.0,0.0,0.0,
2025-08-15T01:43:03.269Z,2,GR86-010-16,-7.5,0.116,-0.304,100.0,4.0,,0.0,0.0,169.0
2025-08-15T01:43:03.313Z,2,GR86-010-16,-7.5,0.114,-0.283,100.0,4.0,,0.0,0.0,
2025-08-15T01:43:03.356Z,2,GR86-010-16,-7.5,0.103,-0.268,100.02,4.0,,0.0,0.0,
2025-08-15T01:43:03.398Z,2,GR86-010-16,-7.5,0.115,-0.241,100.0,4.0,,0.0,0.0,
2025-08-15T01:43:03.442Z,2,GR86-010-16,-7.5,0.117,-0.236,100.02,4.0,6687.0,0.0,0.0,
2025-08-15T01:43:03.484Z,2,GR86-010-16,-7.5,0.108,-0.242,100.02,4.0,,0.0,0.0,171.43
2025-08-15T01:43:03.527Z,2,GR86-010-16,-7.5,0.098,-0.245,99.99,4.0,,0.0,0.0,
2025-08-15T01:43:03.572Z,2,GR86-010-16,-7.5,0.11,-0.258,99.99,4.0,,0.0,0.0,
2025-08-15T01:43:03.614Z,2,GR86-010-16,-7.5,0.112,-0.267,100.0,4.0,,0.0,0.0,
2025-08-15T01:43:03.657Z,2,GR86-010-16,-7.5,0.101,-0.286,100.02,4.0,6687.0,0.0,0.0,
2025-08-15T01:43:03.700Z,2,GR86-010-16,-7.5,0.107,-0.279,100.0,4.0,,0.0,0.0,172.6
2025-08-15T01:43:03.743Z,2,GR86-010-16,-6.7,0.121,-0.244,100.01,4.0,,0.0,0.0,
2025-08-15T01:43:03.786Z,2,GR86-010-16,-6.7,0.114,-0.24,100.01,4.0,,0.0,0.0,
2025-08-15T01:43:03.829Z,2,GR86-010-16,-6.7,0.097,-0.219,99.99,4.0,,3.645,3.815,
2025-08-15T01:43:03.873Z,2,GR86-010-16,-6.7,0.034,-0.174,99.98,4.0,6770.0,7.43,7.37,
2025-08-15T01:43:03.916Z,2,GR86-010-16,-6.7,-0.038,-0.153,60.83,4.0,,11.965,11.935,173.85
2025-08-15T01:43:03.959Z,2,GR86-010-16,-6.7,-0.173,-0.167,16.15,4.0,,25.515,25.395,
2025-08-15T01:43:04.002Z,2,GR86-010-16,-6.1000000000000005,-0.628,-0.175,3.85,4.0,,61.88,61.115,
2025-08-15T01:43:04.044Z,2,GR86-010-16,-5.6000000000000005,-1.229,-0.131,3.36,4.0,,80.435,79.4,
2025-08-15T01:43:04.088Z,2,GR86-010-16,-5.5,-1.199,-0.065,3.31,4.0,6817.0,86.25,86.28,
2025-08-15T01:43:04.132Z,2,GR86-010-16,-5.5,-1.222,-0.157,3.78,4.0,,66.52,68.21000000000001,174.95000000000002
2025-08-15T01:43:04.174Z,2,GR86-010-16,-3.7,-0.975,-0.115,3.56,4.0,,43.765,45.43,
2025-08-15T01:43:04.217Z,2,GR86-010-16,-2.0,-0.937,-0.065,3.68,4.0,,31.235,32.75,
2025-08-15T01:43:04.260Z,2,GR86-010-16,-1.7000000000000002,-0.856,-0.085,4.69,4.0,,29.025,29.955,
2025-08-15T01:43:04.303Z,2,GR86-010-16,-1.7000000000000002,-0.656,-0.096,4.48,4.0,6346.0,25.395,26.08,
2025-08-15T01:43:04.346Z,2,GR86-010-16,-2.1,-0.555,-0.112,4.68,4.0,,22.555,23.15,173.75
2025-08-15T01:43:04.389Z,2,GR86-010-16,-5.300000000000001,-0.578,-0.075,4.7,4.0,,22.525,22.995,
2025-08-15T01:43:04.433Z,2,GR86-010-16,-6.4,-0.669,-0.137,4.42,4.0,,28.305,28.49,
2025-08-15T01:43:04.476Z,2,GR86-010-16,-6.4,-0.744,-0.164,25.72,4.0,,28.125,28.72,
2025-08-15T01:43:04.519Z,2,GR86-010-16,-6.4,-0.65,-0.21,31.87,4.0,6340.0,18.71,19.455,
2025-08-15T01:43:04.563Z,2,GR86-010-16,-3.8,-0.31,-0.175,4.98,4.0,,13.825,14.3,167.63
2025-08-15T01:43:04.605Z,2,GR86-010-16,-3.5,-0.46,-0.176,3.3000000000000003,4.0,,27.345,27.59,
2025-08-15T01:43:04.649Z,2,GR86-010-16,-3.5,-0.56,-0.147,3.18,4.0,,48.36,48.145,
2025-08-15T01:43:04.692Z,2,GR86-010-16,-3.8,-1.047,-0.12,3.08,4.0,,64.185,63.74,
2025-08-15T01:43:04.734Z,2,GR86-010-16,-6.800000000000001,-1.198,-0.224,10.25,4.0,6196.0,71.92,71.735,
2025-08-15T01:43:04.822Z,2,GR86-010-16,-7.2,-1.357,-0.207,8.36,3.0,,83.87,85.15,163.32
2025-08-15T01:43:04.864Z,2,GR86-010-16,-6.300000000000001,-1.325,-0.152,6.58,3.0,,82.175,83.55,
2025-08-15T01:43:04.907Z,2,GR86-010-16,-3.1,-1.326,-0.195,25.98,3.0,,62.245000000000005,63.465,
2025-08-15T01:43:04.950Z,2,GR86-010-16,-2.8000000000000003,-0.988,-0.224,29.01,3.0,5925.0,39.4,40.56,
2025-08-15T01:43:04.994Z,2,GR86-010-16,-2.8000000000000003,-0.605,-0.125,4.25,3.0,,29.71,30.64,159.77
2025-08-15T01:43:05.036Z,2,GR86-010-16,-6.6000000000000005,-0.751,-0.4,4.22,3.0,,28.215,28.935,
2025-08-15T01:43:05.079Z,2,GR86-010-16,-14.2,-0.519,-0.409,4.38,3.0,,27.47,28.215,
2025-08-15T01:43:05.123Z,2,GR86-010-16,-17.2,-0.672,-0.466,17.990000000000002,3.0,,19.305,20.145,
2025-08-15T01:43:05.166Z,2,GR86-010-16,-17.2,-0.434,-0.479,5.4,3.0,5926.0,19.15,19.58,
2025-08-15T01:43:05.209Z,2,GR86-010-16,-13.4,-0.591,-0.265,5.0600000000000005,3.0,,21.625,21.96,152.82
2025-08-15T01:43:05.253Z,2,GR86-010-16,-11.5,-0.66,-0.341,7.32,3.0,,22.935,23.3,
2025-08-15T01:43:05.296Z,2,GR86-010-16,-11.5,-0.719,-0.333,7.83,3.0,,22.615,23.27,
2025-08-15T01:43:05.338Z,2,GR86-010-16,-13.9,-0.628,-0.443,5.98,3.0,,24.4,24.735,
2025-08-15T01:43:05.383Z,2,GR86-010-16,-19.0,-0.762,-0.459,6.29,3.0,6594.0,28.87,29.055,
2025-08-15T01:43:05.426Z,2,GR86-010-16,-22.6,-0.667,-0.524,5.04,3.0,,30.185,30.245,145.45000000000002
2025-08-15T01:43:05.469Z,2,GR86-010-16,-22.700000000000003,-0.648,-0.514,4.15,3.0,,28.75,29.62,
2025-08-15T01:43:05.514Z,2,GR86-010-16,-21.8,-0.736,-0.527,4.3500000000000005,3.0,,29.085,29.56,
2025-08-15T01:43:05.556Z,2,GR86-010-16,-18.2,-0.853,-0.611,3.94,3.0,,34.49,34.565,
2025-08-15T01:43:05.599Z,2,GR86-010-16,-16.8,-0.8220000000000001,-0.544,24.73,3.0,6419.0,48.235,47.9,
2025-08-15T01:43:05.644Z,2,GR86-010-16,-16.8,-1.127,-0.541,29.63,2.0,,61.24,60.885,141.49
2025-08-15T01:43:05.686Z,2,GR86-010-16,-16.8,-1.135,-0.436,23.74,2.0,,56.69,57.53,
2025-08-15T01:43:05.729Z,2,GR86-010-16,-14.2,-1.029,-0.476,35.6,2.0,,38.96,40.27,
2025-08-15T01:43:05.773Z,2,GR86-010-16,-10.6,-0.67,-0.77,32.01,2.0,,28.75,29.68,
2025-08-15T01:43:05.816Z,2,GR86-010-16,-10.4,-0.849,-0.608,3.68,2.0,6170.0,36.7,37.385,
2025-08-15T01:43:05.858Z,2,GR86-010-16,-10.4,-0.85,-0.503,4.26,2.0,,44.62,45.275,137.23
2025-08-15T01:43:05.902Z,2,GR86-010-16,-10.4,-0.841,-0.676,6.8100000000000005,2.0,,32.015,32.81,
2025-08-15T01:43:05.946Z,2,GR86-010-16,-10.4,-0.588,-0.613,5.49,2.0,,22.495,23.21,
2025-08-15T01:43:05.989Z,2,GR86-010-16,-16.5,-0.498,-0.554,3.46,2.0,,21.9,22.25,
2025-08-15T01:43:06.033Z,2,GR86-010-16,-25.700000000000003,-0.595,-0.5,4.21,2.0,6049.0,20.145,20.755,
2025-08-15T01:43:06.076Z,2,GR86-010-16,-35.1,-0.644,-0.517,3.88,2.0,,14.85,15.505,133.38
2025-08-15T01:43:06.119Z,2,GR86-010-16,-42.400000000000006,-0.548,-0.597,3.0500000000000003,2.0,,11.735,12.3,
2025-08-15T01:43:06.163Z,2,GR86-010-16,-49.400000000000006,-0.502,-0.639,4.32,2.0,,12.985,13.245,
2025-08-15T01:43:06.205Z,2,GR86-010-16,-53.8,-0.478,-0.747,3.01,2.0,,18.615,18.77,
2025-08-15T01:43:06.249Z,2,GR86-010-16,-59.2,-0.63,-0.835,2.79,2.0,7091.0,25.395,25.545,
2025-08-15T01:43:06.292Z,2,GR86-010-16,-65.2,-0.6,-0.927,2.78,2.0,,27.895,28.125,122.05
2025-08-15T01:43:06.334Z,2,GR86-010-16,-66.7,-0.75,-1.001,2.7,2.0,,28.55,28.9,
2025-08-15T01:43:06.378Z,2,GR86-010-16,-62.7,-0.7030000000000001,-1.087,2.83,2.0,,29.805,29.985,
2025-08-15T01:43:06.420Z,2,GR86-010-16,-54.2,-0.686,-1.068,3.0500000000000003,2.0,,30.155,30.61,
2025-08-15T01:43:06.463Z,2,GR86-010-16,-47.3,-0.639,-1.098,3.33,2.0,6550.0,22.705,23.395,
2025-08-15T01:43:06.506Z,2,GR86-010-16,-47.7,-0.664,-1.113,3.56,2.0,,18.02,18.465,118.64
2025-08-15T01:43:06.549Z,2,GR86-010-16,-54.2,-0.5680000000000001,-1.157,3.74,2.0,,16.315,16.94,
2025-08-15T01:43:06.593Z,2,GR86-010-16,-63.1,-0.533,-1.201,3.08,2.0,,19.58,19.93,
2025-08-15T01:43:06.636Z,2,GR86-010-16,-69.8,-0.584,-1.265,3.1,2.0,,24.28,24.28,
2025-08-15T01:43:06.679Z,2,GR86-010-16,-70.7,-0.644,-1.206,4.28,2.0,6519.0,25.895,26.11,
2025-08-15T01:43:06.722Z,2,GR86-010-16,-71.2,-0.614,-1.322,2.98,2.0,,21.96,22.815,115.31
2025-08-15T01:43:06.766Z,2,GR86-010-16,-71.60000000000001,-0.559,-1.373,3.38,2.0,,20.175,20.935,
2025-08-15T01:43:06.809Z,2,GR86-010-16,-71.0,-0.507,-1.341,4.55,2.0,,13.305,13.995,
2025-08-15T01:43:06.853Z,2,GR86-010-16,-68.7,-0.435,-1.343,4.55,2.0,,4.565,5.0200000000000005,
2025-08-15T01:43:06.896Z,2,GR86-010-16,-65.0,-0.368,-1.409,4.67,2.0,5869.0,0.0,0.0,
2025-08-15T01:43:06.938Z,2,GR86-010-16,-58.6,-0.314,-1.397,18.31,2.0,,0.0,0.0,110.76
2025-08-15T01:43:06.984Z,2,GR86-010-16,-52.1,-0.229,-1.41,20.71,2.0,,0.0,0.0,
2025-08-15T01:43:07.026Z,2,GR86-010-16,-53.1,-0.184,-1.404,20.47,2.0,,0.0,0.0,
2025-08-15T01:43:07.069Z,2,GR86-010-16,-55.1,-0.163,-1.37,19.85,2.0,,0.0,0.0,
2025-08-15T01:43:07.113Z,2,GR86-010-16,-54.1,-0.136,-1.395,22.21,2.0,5476.0,0.0,0.0,
2025-08-15T01:43:07.156Z,2,GR86-010-16,-45.6,-0.13,-1.303,29.42,2.0,,0.0,0.0,106.81
2025-08-15T01:43:07.198Z,2,GR86-010-16,-31.3,0.039,-1.337,30.12,2.0,,0.0,0.0,
2025-08-15T01:43:07.242Z,2,GR86-010-16,1.5,0.041,-1.276,30.95,2.0,,0.0,0.0,
2025-08-15T01:43:07.284Z,2,GR86-010-16,13.9,0.086,-1.23,31.18,2.0,,0.0,0.0,
2025-08-15T01:43:07.327Z,2,GR86-010-16,14.9,0.175,-1.183,28.85,2.0,5723.0,0.0,0.0,
2025-08-15T01:43:07.370Z,2,GR86-010-16,14.9,0.144,-1.17,24.56,2.0,,0.0,0.0,104.24
2025-08-15T01:43:07.414Z,2,GR86-010-16,9.7,0.161,-1.15,31.52,2.0,,0.0,0.0,
2025-08-15T01:43:07.456Z,2,GR86-010-16,-10.2,0.141,-1.176,33.11,2.0,,0.0,0.0,
2025-08-15T01:43:07.499Z,2,GR86-010-16,-25.6,0.075,-1.181,33.38,2.0,,0.0,0.0,
2025-08-15T01:43:07.543Z,2,GR86-010-16,-28.0,0.082,-1.281,33.04,2.0,6005.0,0.0,0.0,
2025-08-15T01:43:07.586Z,2,GR86-010-16,-22.200000000000003,0.102,-1.196,32.67,2.0,,0.0,0.0,102.08
2025-08-15T01:43:07.629Z,2,GR86-010-16,-10.8,0.129,-1.215,32.58,2.0,,0.0,0.0,
2025-08-15T01:43:07.673Z,2,GR86-010-16,8.1,0.165,-1.121,32.160000000000004,2.0,,0.0,0.0,
2025-08-15T01:43:07.716Z,2,GR86-010-16,20.700000000000003,0.163,-1.164,31.46,2.0,,0.0,0.0,
2025-08-15T01:43:07.759Z,2,GR86-010-16,20.700000000000003,0.183,-1.102,31.96,2.0,6013.0,0.0,0.0,
2025-08-15T01:43:07.802Z,2,GR86-010-16,-0.2,0.166,-1.154,32.67,2.0,,0.0,0.0,101.59
2025-08-15T01:43:07.844Z,2,GR86-010-16,-7.0,0.148,-1.135,32.77,2.0,,0.0,0.0,
2025-08-15T01:43:07.887Z,2,GR86-010-16,-9.1,0.134,-1.194,32.83,2.0,,0.0,0.0,
2025-08-15T01:43:07.930Z,2,GR86-010-16,-13.9,0.144,-1.163,35.04,2.0,,0.0,0.0,
2025-08-15T01:43:07.973Z,2,GR86-010-16,-21.1,0.163,-1.228,37.83,2.0,6128.0,0.0,0.0,
2025-08-15T01:43:08.016Z,2,GR86-010-16,-23.4,0.108,-1.201,37.95,2.0,,0.0,0.0,101.51
2025-08-15T01:43:08.059Z,2,GR86-010-16,-18.4,0.151,-1.276,39.9,2.0,,0.0,0.0,
2025-08-15T01:43:08.103Z,2,GR86-010-16,-6.1000000000000005,0.186,-1.213,69.39,2.0,,0.0,0.0,
2025-08-15T01:43:08.146Z,2,GR86-010-16,-5.2,0.187,-1.179,98.21,2.0,,0.0,0.0,
2025-08-15T01:43:08.189Z,2,GR86-010-16,-5.2,0.24,-1.15,99.97,2.0,6127.0,0.0,0.0,
2025-08-15T01:43:08.233Z,2,GR86-010-16,-9.2,0.253,-1.094,99.98,2.0,,0.0,0.0,101.36
2025-08-15T01:43:08.276Z,2,GR86-010-16,-21.0,0.229,-1.071,99.99,2.0,,0.0,0.0,
2025-08-15T01:43:08.319Z,2,GR86-010-16,-37.0,0.225,-1.094,99.98,2.0,,0.0,0.0,
2025-08-15T01:43:08.364Z,2,GR86-010-16,-54.900000000000006,0.212,-1.15,99.98,2.0,,0.0,0.0,
2025-08-15T01:43:08.406Z,2,GR86-010-16,-58.0,0.165,-1.157,99.98,2.0,6163.0,0.0,0.0,
2025-08-15T01:43:08.449Z,2,GR86-010-16,-54.1,0.173,-1.247,99.98,2.0,,0.0,0.0,102.08
2025-08-15T01:43:08.494Z,2,GR86-010-16,-43.900000000000006,0.243,-1.147,100.0,2.0,,0.0,0.0,
2025-08-15T01:43:08.536Z,2,GR86-010-16,-31.5,0.258,-1.112,99.99,2.0,,0.0,0.0,
2025-08-15T01:43:08.579Z,2,GR86-010-16,-20.8,0.291,-1.067,99.98,2.0,,0.0,0.0,
2025-08-15T01:43:08.623Z,2,GR86-010-16,-14.7,0.314,-1.071,100.02,2.0,6263.0,0.0,0.0,
2025-08-15T01:43:08.666Z,2,GR86-010-16,-19.5,0.303,-1.087,99.98,2.0,,0.0,0.0,102.04
2025-08-15T01:43:08.709Z,2,GR86-010-16,-29.0,0.326,-1.12,100.02,2.0,,0.0,0.0,
2025-08-15T01:43:08.753Z,2,GR86-010-16,-37.5,0.263,-1.222,100.0,2.0,,0.0,0.0,
2025-08-15T01:43:08.796Z,2,GR86-010-16,-44.0,0.259,-1.219,99.98,2.0,,0.0,0.0,
2025-08-15T01:43:08.838Z,2,GR86-010-16,-48.8,0.199,-1.289,100.0,2.0,6450.0,0.0,0.0,
2025-08-15T01:43:08.884Z,2,GR86-010-16,-46.900000000000006,0.237,-1.234,99.98,2.0,,0.0,0.0,103.43
2025-08-15T01:43:08.926Z,2,GR86-010-16,-39.8,0.276,-1.094,99.99,2.0,,0.0,0.0,
2025-08-15T01:43:08.969Z,2,GR86-010-16,-30.700000000000003,0.263,-1.108,99.98,2.0,,0.0,0.0,
2025-08-15T01:43:09.013Z,2,GR86-010-16,-22.3,0.238,-1.048,99.99,2.0,,0.0,0.0,
2025-08-15T01:43:09.056Z,2,GR86-010-16,-19.1,0.255,-1.067,99.98,2.0,6377.0,0.0,0.0,
2025-08-15T01:43:09.098Z,2,GR86-010-16,-23.200000000000003,0.265,-1.048,100.0,2.0,,0.0,0.0,105.03
2025-08-15T01:43:09.142Z,2,GR86-010-16,-37.1,0.271,-1.05,100.01,2.0,,0.0,0.0,
2025-08-15T01:43:09.184Z,2,GR86-010-16,-45.3,0.265,-1.08,100.01,2.0,,0.0,0.0,
2025-08-15T01:43:09.227Z,2,GR86-010-16,-47.8,0.241,-1.108,99.99,2.0,,0.0,0.0,
2025-08-15T01:43:09.272Z,2,GR86-010-16,-45.0,0.196,-1.089,99.98,2.0,6326.0,0.0,0.0,
2025-08-15T01:43:09.314Z,2,GR86-010-16,-37.6,0.231,-1.068,100.0,2.0,,0.0,0.0,106.21
2025-08-15T01:43:09.357Z,2,GR86-010-16,-28.4,0.244,-1.024,99.98,2.0,,0.0,0.0,
2025-08-15T01:43:09.400Z,2,GR86-010-16,-21.8,0.277,-0.96,99.99,2.0,,0.0,0.0,
2025-08-15T01:43:09.443Z,2,GR86-010-16,-22.3,0.256,-0.866,99.99,2.0,,0.0,0.0,
2025-08-15T01:43:09.486Z,2,GR86-010-16,-27.1,0.265,-0.806,99.99,2.0,6320.0,0.0,0.0,
2025-08-15T01:43:09.529Z,2,GR86-010-16,-31.0,0.255,-0.792,100.0,2.0,,0.0,0.0,107.12
2025-08-15T01:43:09.573Z,2,GR86-010-16,-34.300000000000004,0.28,-0.733,99.98,2.0,,0.0,0.0,
2025-08-15T01:43:09.616Z,2,GR86-010-16,-36.9,0.241,-0.721,99.99,2.0,,0.0,0.0,
2025-08-15T01:43:09.659Z,2,GR86-010-16,-37.3,0.245,-0.758,99.98,2.0,,0.0,0.0,
2025-08-15T01:43:09.702Z,2,GR86-010-16,-37.3,0.246,-0.704,99.98,2.0,6333.0,0.0,0.0,
2025-08-15T01:43:09.746Z,2,GR86-010-16,-37.8,0.258,-0.674,99.99,2.0,,0.0,0.0,108.66
2025-08-15T01:43:09.788Z,2,GR86-010-16,-39.1,0.233,-0.709,99.99,2.0,,0.0,0.0,
2025-08-15T01:43:09.832Z,2,GR86-010-16,-40.7,0.244,-0.733,99.98,2.0,,0.0,0.0,
2025-08-15T01:43:09.874Z,2,GR86-010-16,-41.2,0.215,-0.752,99.99,2.0,,0.0,0.0,
2025-08-15T01:43:09.918Z,2,GR86-010-16,-40.400000000000006,0.236,-0.784,99.99,2.0,6397.0,0.0,0.0,
2025-08-15T01:43:09.960Z,2,GR86-010-16,-38.7,0.274,-0.794,99.99,2.0,,0.0,0.0,110.39
2025-08-15T01:43:10.003Z,2,GR86-010-16,-34.1,0.253,-0.8300000000000001,100.01,2.0,,0.0,0.0,
2025-08-15T01:43:10.046Z,2,GR86-010-16,-29.4,0.227,-0.77,99.99,2.0,,0.0,0.0,
2025-08-15T01:43:10.089Z,2,GR86-010-16,-26.1,0.249,-0.743,99.98,2.0,,0.0,0.0,
2025-08-15T01:43:10.133Z,2,GR86-010-16,-25.200000000000003,0.264,-0.6950000000000001,100.0,2.0,6559.0,0.0,0.0,
2025-08-15T01:43:10.176Z,2,GR86-010-16,-25.200000000000003,0.236,-0.649,100.01,2.0,,0.0,0.0,112.2
2025-08-15T01:43:10.219Z,2,GR86-010-16,-25.200000000000003,0.256,-0.632,99.98,2.0,,0.0,0.0,
2025-08-15T01:43:10.263Z,2,GR86-010-16,-25.1,0.273,-0.585,100.0,2.0,,0.0,0.0,
2025-08-15T01:43:10.305Z,2,GR86-010-16,-23.6,0.258,-0.545,100.02,2.0,,0.0,0.0,
2025-08-15T01:43:10.349Z,2,GR86-010-16,-19.8,0.236,-0.535,100.03,2.0,6652.0,0.0,0.0,
2025-08-15T01:43:10.392Z,2,GR86-010-16,-15.9,0.268,-0.511,100.01,2.0,,0.0,0.0,113.96
2025-08-15T01:43:10.434Z,2,GR86-010-16,-13.1,0.232,-0.453,100.02,2.0,,0.0,0.0,
2025-08-15T01:43:10.478Z,2,GR86-010-16,-11.8,0.249,-0.426,100.03,2.0,,0.0,0.0,
2025-08-15T01:43:10.522Z,2,GR86-010-16,-11.8,0.253,-0.366,100.02,2.0,,0.0,0.0,
2025-08-15T01:43:10.607Z,2,GR86-010-16,-11.8,0.224,-0.286,100.02,2.0,6693.0,0.0,0.0,115.69
2025-08-15T01:43:10.650Z,2,GR86-010-16,-11.8,0.224,-0.276,100.0,2.0,,0.0,0.0,
2025-08-15T01:43:10.694Z,2,GR86-010-16,-11.0,0.292,-0.236,99.97,2.0,,0.0,0.0,
2025-08-15T01:43:10.736Z,2,GR86-010-16,-10.7,0.251,-0.209,100.02,2.0,,0.0,0.0,
2025-08-15T01:43:10.779Z,2,GR86-010-16,-10.1,0.246,-0.23,100.01,2.0,6822.0,0.0,0.0,
2025-08-15T01:43:10.823Z,2,GR86-010-16,-8.5,0.23,-0.213,100.01,2.0,,0.0,0.0,117.54
2025-08-15T01:43:10.866Z,2,GR86-010-16,-6.6000000000000005,0.267,-0.188,100.02,2.0,,0.0,0.0,
2025-08-15T01:43:10.909Z,2,GR86-010-16,-3.9,0.242,-0.169,100.02,2.0,,0.0,0.0,
2025-08-15T01:43:10.953Z,2,GR86-010-16,-1.6,0.232,-0.147,99.99,2.0,,0.0,0.0,
2025-08-15T01:43:10.996Z,2,GR86-010-16,-0.6000000000000001,0.284,-0.123,100.01,2.0,6930.0,0.0,0.0,
2025-08-15T01:43:11.038Z,2,GR86-010-16,-0.3,0.256,-0.062,100.02,2.0,,0.0,0.0,119.29
2025-08-15T01:43:11.083Z,2,GR86-010-16,-0.2,0.244,0.005,100.03,2.0,,0.0,0.0,
2025-08-15T01:43:11.126Z,2,GR86-010-16,0.1,0.202,0.028,100.03,2.0,,0.0,0.0,
2025-08-15T01:43:11.169Z,2,GR86-010-16,0.4,0.269,0.034,100.0,2.0,,0.0,0.0,
2025-08-15T01:43:11.214Z,2,GR86-010-16,0.4,0.267,0.044,100.01,2.0,7020.0,0.0,0.0,
2025-08-15T01:43:11.256Z,2,GR86-010-16,0.4,0.219,0.043,99.99,2.0,,0.0,0.0,121.05
2025-08-15T01:43:11.299Z,2,GR86-010-16,0.4,0.258,0.029,100.02,2.0,,0.0,0.0,
2025-08-15T01:43:11.344Z,2,GR86-010-16,0.4,0.243,0.019,100.02,2.0,,0.0,0.0,
2025-08-15T01:43:11.386Z,2,GR86-010-16,0.4,0.278,0.024,100.03,2.0,,0.0,0.0,
2025-08-15T01:43:11.429Z,2,GR86-010-16,0.4,0.21,0.026,100.03,2.0,7054.0,0.0,0.0,
2025-08-15T01:43:11.473Z,2,GR86-010-16,0.4,0.197,0.017,100.01,2.0,,0.0,0.0,122.95
2025-08-15T01:43:11.516Z,2,GR86-010-16,0.4,0.235,-0.006,100.01,2.0,,0.0,0.0,
2025-08-15T01:43:11.558Z,2,GR86-010-16,0.4,0.138,-0.039,100.02,2.0,,0.0,0.0,
2025-08-15T01:43:11.602Z,2,GR86-010-16,0.4,-0.078,-0.046,100.02,3.0,,0.0,0.0,
2025-08-15T01:43:11.646Z,2,GR86-010-16,0.4,0.481,-0.095,100.02,3.0,7159.0,0.0,0.0,
2025-08-15T01:43:11.689Z,2,GR86-010-16,0.4,0.439,-0.19,100.02,3.0,,0.0,0.0,126.35
2025-08-15T01:43:11.733Z,2,GR86-010-16,0.3,0.345,-0.061,100.03,3.0,,0.0,0.0,
2025-08-15T01:43:11.776Z,2,GR86-010-16,-0.5,0.298,-0.077,100.02,3.0,,0.0,0.0,
2025-08-15T01:43:11.819Z,2,GR86-010-16,-0.7000000000000001,0.22,-0.16,100.02,3.0,,0.0,0.0,
2025-08-15T01:43:11.862Z,2,GR86-010-16,-0.7000000000000001,0.087,-0.062,100.03,3.0,7243.0,0.0,0.0,
2025-08-15T01:43:11.904Z,2,GR86-010-16,-0.7000000000000001,0.249,-0.15,100.02,3.0,,0.0,0.0,127.95
2025-08-15T01:43:11.947Z,2,GR86-010-16,-0.7000000000000001,0.293,-0.089,100.02,3.0,,0.0,0.0,
2025-08-15T01:43:11.990Z,2,GR86-010-16,-0.7000000000000001,0.189,-0.107,100.02,3.0,,0.0,0.0,
2025-08-15T01:43:12.034Z,2,GR86-010-16,-0.7000000000000001,0.189,-0.147,100.02,3.0,,0.0,0.0,
2025-08-15T01:43:12.076Z,2,GR86-010-16,-0.7000000000000001,0.229,-0.116,100.02,3.0,6544.0,0.0,0.0,
2025-08-15T01:43:12.119Z,2,GR86-010-16,-0.7000000000000001,0.201,-0.102,100.02,3.0,,0.0,0.0,129.77
2025-08-15T01:43:12.163Z,2,GR86-010-16,-0.7000000000000001,0.25,-0.075,100.02,3.0,,0.0,0.0,
2025-08-15T01:43:12.206Z,2,GR86-010-16,-0.7000000000000001,0.143,-0.088,100.01,3.0,,0.0,0.0,
2025-08-15T01:43:12.249Z,2,GR86-010-16,-0.7000000000000001,0.201,-0.07,100.03,3.0,,0.0,0.0,
2025-08-15T01:43:12.293Z,2,GR86-010-16,-0.7000000000000001,0.27,-0.086,100.01,3.0,6157.0,0.0,0.0,
2025-08-15T01:43:12.336Z,2,GR86-010-16,-0.7000000000000001,0.207,-0.058,100.02,3.0,,0.0,0.0,131.33
2025-08-15T01:43:12.379Z,2,GR86-010-16,-0.7000000000000001,0.155,-0.067,100.03,3.0,,0.0,0.0,
2025-08-15T01:43:12.422Z,2,GR86-010-16,-0.7000000000000001,0.139,-0.076,100.01,3.0,,0.0,0.0,
2025-08-15T01:43:12.464Z,2,GR86-010-16,-0.7000000000000001,0.195,-0.069,100.02,3.0,,0.0,0.0,
2025-08-15T01:43:12.507Z,2,GR86-010-16,-0.7000000000000001,0.283,-0.068,100.01,3.0,6184.0,0.0,0.0,
2025-08-15T01:43:12.550Z,2,GR86-010-16,-0.7000000000000001,0.22,-0.054,100.01,3.0,,0.0,0.0,132.76
2025-08-15T01:43:12.594Z,2,GR86-010-16,-0.7000000000000001,0.148,-0.08,100.02,3.0,,0.0,0.0,
2025-08-15T01:43:12.636Z,2,GR86-010-16,-0.7000000000000001,0.212,-0.099,100.01,3.0,,0.0,0.0,
2025-08-15T01:43:12.679Z,2,GR86-010-16,-0.7000000000000001,0.274,-0.102,100.02,3.0,,0.0,0.0,
2025-08-15T01:43:12.723Z,2,GR86-010-16,-0.7000000000000001,0.26,-0.089,100.02,3.0,6252.0,0.0,0.0,
2025-08-15T01:43:12.766Z,2,GR86-010-16,-0.7000000000000001,0.224,-0.082,100.01,3.0,,0.0,0.0,134.29
2025-08-15T01:43:12.809Z,2,GR86-010-16,-0.7000000000000001,0.158,-0.064,100.02,3.0,,0.0,0.0,
2025-08-15T01:43:12.853Z,2,GR86-010-16,-0.7000000000000001,0.171,-0.047,100.02,3.0,,0.0,0.0,
2025-08-15T01:43:12.896Z,2,GR86-010-16,-0.7000000000000001,0.251,-0.063,100.03,3.0,,0.0,0.0,
2025-08-15T01:43:12.938Z,2,GR86-010-16,-0.7000000000000001,0.242,-0.071,100.01,3.0,6311.0,0.0,0.0,
2025-08-15T01:43:12.984Z,2,GR86-010-16,-0.7000000000000001,0.257,-0.054,100.02,3.0,,0.0,0.0,135.73
2025-08-15T01:43:13.026Z,2,GR86-010-16,-0.7000000000000001,0.212,-0.06,100.02,3.0,,0.0,0.0,
2025-08-15T01:43:13.069Z,2,GR86-010-16,-0.7000000000000001,0.154,-0.039,100.02,3.0,,0.0,0.0,
2025-08-15T01:43:13.113Z,2,GR86-010-16,-0.7000000000000001,0.207,-0.052,100.02,3.0,,0.0,0.0,
2025-08-15T01:43:13.156Z,2,GR86-010-16,-0.7000000000000001,0.248,-0.051,100.03,3.0,6375.0,0.0,0.0,
2025-08-15T01:43:13.198Z,2,GR86-010-16,-0.7000000000000001,0.219,-0.047,100.02,3.0,,0.0,0.0,137.05
2025-08-15T01:43:13.242Z,2,GR86-010-16,-0.7000000000000001,0.257,-0.045,100.02,3.0,,0.0,0.0,
2025-08-15T01:43:13.284Z,2,GR86-010-16,-0.7000000000000001,0.196,-0.046,100.02,3.0,,0.0,0.0,
2025-08-15T01:43:13.327Z,2,GR86-010-16,-0.7000000000000001,0.157,-0.026,100.03,3.0,,0.0,0.0,
2025-08-15T01:43:13.370Z,2,GR86-010-16,-0.5,0.198,-0.012,100.03,3.0,6481.0,0.0,0.0,
2025-08-15T01:43:13.414Z,2,GR86-010-16,-0.5,0.258,-0.018,100.03,3.0,,0.0,0.0,138.48
2025-08-15T01:43:13.456Z,2,GR86-010-16,-0.5,0.232,-0.024,100.02,3.0,,0.0,0.0,
2025-08-15T01:43:13.499Z,2,GR86-010-16,-0.5,0.158,-0.022,100.02,3.0,,0.0,0.0,
2025-08-15T01:43:13.543Z,2,GR86-010-16,-0.5,0.204,-0.009,100.01,3.0,,0.0,0.0,
2025-08-15T01:43:13.586Z,2,GR86-010-16,-0.5,0.147,-0.03,100.01,3.0,6497.0,0.0,0.0,
2025-08-15T01:43:13.629Z,2,GR86-010-16,-0.5,0.186,-0.039,100.03,3.0,,0.0,0.0,139.91
2025-08-15T01:43:13.673Z,2,GR86-010-16,-0.5,0.254,-0.048,100.02,3.0,,0.0,0.0,
2025-08-15T01:43:13.716Z,2,GR86-010-16,-0.5,0.243,-0.061,100.03,3.0,,0.0,0.0,
2025-08-15T01:43:13.759Z,2,GR86-010-16,-0.5,0.178,-0.075,100.03,3.0,,0.0,0.0,
2025-08-15T01:43:13.802Z,2,GR86-010-16,-0.5,0.207,-0.072,100.03,3.0,6559.0,0.0,0.0,
2025-08-15T01:43:13.844Z,2,GR86-010-16,-0.5,0.172,-0.082,100.01,3.0,,0.0,0.0,141.27
2025-08-15T01:43:13.887Z,2,GR86-010-16,-0.5,0.17,-0.084,100.02,3.0,,0.0,0.0,
2025-08-15T01:43:13.930Z,2,GR86-010-16,-0.5,0.203,-0.096,100.02,3.0,,0.0,0.0,
2025-08-15T01:43:13.973Z,2,GR86-010-16,-0.5,0.239,-0.088,100.02,3.0,,0.0,0.0,
2025-08-15T01:43:14.016Z,2,GR86-010-16,-0.5,0.208,-0.099,100.01,3.0,6624.0,0.0,0.0,
2025-08-15T01:43:14.059Z,2,GR86-010-16,-0.5,0.158,-0.102,100.02,3.0,,0.0,0.0,142.58
2025-08-15T01:43:14.103Z,2,GR86-010-16,-0.5,0.19,-0.092,100.03,3.0,,0.0,0.0,
2025-08-15T01:43:14.146Z,2,GR86-010-16,-0.5,0.15,-0.111,100.02,3.0,,0.0,0.0,
2025-08-15T01:43:14.189Z,2,GR86-010-16,-0.5,0.164,-0.11,100.02,3.0,,0.0,0.0,
2025-08-15T01:43:14.276Z,2,GR86-010-16,-0.5,0.21,-0.104,100.02,3.0,6733.0,0.0,0.0,143.92000000000002
2025-08-15T01:43:14.319Z,2,GR86-010-16,-0.5,0.202,-0.102,100.0,3.0,,0.0,0.0,
2025-08-15T01:43:14.364Z,2,GR86-010-16,-0.5,0.241,-0.077,100.02,3.0,,0.0,0.0,
2025-08-15T01:43:14.406Z,2,GR86-010-16,-0.5,0.211,-0.086,100.02,3.0,,0.0,0.0,
2025-08-15T01:43:14.449Z,2,GR86-010-16,-0.5,0.153,-0.079,100.01,3.0,6739.0,0.0,0.0,
2025-08-15T01:43:14.536Z,2,GR86-010-16,-0.5,0.205,-0.099,100.02,3.0,,0.0,0.0,146.56
2025-08-15T01:43:14.579Z,2,GR86-010-16,-0.5,0.232,-0.099,100.01,3.0,,0.0,0.0,
2025-08-15T01:43:14.623Z,2,GR86-010-16,-0.5,0.187,-0.098,100.02,3.0,,0.0,0.0,
2025-08-15T01:43:14.666Z,2,GR86-010-16,-0.5,0.226,-0.088,100.01,3.0,6834.0,0.0,0.0,
2025-08-15T01:43:14.708Z,2,GR86-010-16,-0.5,0.219,-0.076,100.02,3.0,,0.0,0.0,147.75
2025-08-15T01:43:14.752Z,2,GR86-010-16,-0.5,0.177,-0.082,100.01,3.0,,0.0,0.0,
2025-08-15T01:43:14.796Z,2,GR86-010-16,-0.5,0.135,-0.103,100.01,3.0,,0.0,0.0,
2025-08-15T01:43:14.838Z,2,GR86-010-16,-0.5,0.155,-0.117,100.02,3.0,,0.0,0.0,
2025-08-15T01:43:14.884Z,2,GR86-010-16,-0.5,0.152,-0.118,100.01,3.0,6955.0,0.0,0.0,
2025-08-15T01:43:14.926Z,2,GR86-010-16,-0.5,0.137,-0.119,100.02,3.0,,0.0,0.0,148.97
2025-08-15T01:43:14.969Z,2,GR86-010-16,-0.5,0.191,-0.105,99.99,3.0,,0.0,0.0,
2025-08-15T01:43:15.013Z,2,GR86-010-16,-0.5,0.216,-0.084,100.02,3.0,,0.0,0.0,
2025-08-15T01:43:15.056Z,2,GR86-010-16,-0.5,0.228,-0.059,100.0,3.0,,0.0,0.0,
2025-08-15T01:43:15.098Z,2,GR86-010-16,-0.5,0.184,-0.039,100.01,3.0,6964.0,0.0,0.0,
2025-08-15T01:43:15.142Z,2,GR86-010-16,-0.5,0.229,-0.055,100.02,3.0,,0.0,0.0,150.20000000000002
2025-08-15T01:43:15.184Z,2,GR86-010-16,-0.5,0.215,-0.049,99.99,3.0,,0.0,0.0,
2025-08-15T01:43:15.227Z,2,GR86-010-16,-0.5,0.143,-0.042,100.02,3.0,,0.0,0.0,
2025-08-15T01:43:15.270Z,2,GR86-010-16,-0.5,0.127,-0.052,99.98,3.0,,0.0,0.0,
2025-08-15T01:43:15.314Z,2,GR86-010-16,-0.5,0.155,-0.068,100.02,3.0,7071.0,0.0,0.0,
2025-08-15T01:43:15.356Z,2,GR86-010-16,-0.5,0.202,-0.073,100.02,3.0,,0.0,0.0,151.39
2025-08-15T01:43:15.399Z,2,GR86-010-16,-0.5,0.224,-0.063,100.03,3.0,,0.0,0.0,
2025-08-15T01:43:15.443Z,2,GR86-010-16,-0.5,0.17,-0.059,100.03,3.0,,0.0,0.0,
2025-08-15T01:43:15.486Z,2,GR86-010-16,-0.5,0.218,-0.064,100.02,3.0,,0.0,0.0,
2025-08-15T01:43:15.529Z,2,GR86-010-16,-0.5,0.23,-0.064,100.01,3.0,7080.0,0.0,0.0,
2025-08-15T01:43:15.573Z,2,GR86-010-16,-0.5,0.197,-0.058,100.0,3.0,,0.0,0.0,152.64
2025-08-15T01:43:15.616Z,2,GR86-010-16,-0.5,0.149,-0.056,100.0,3.0,,0.0,0.0,
2025-08-15T01:43:15.659Z,2,GR86-010-16,-0.5,0.115,-0.06,100.03,3.0,,0.0,0.0,
2025-08-15T01:43:15.702Z,2,GR86-010-16,-0.5,0.193,-0.043,100.01,3.0,,0.0,0.0,
2025-08-15T01:43:15.746Z,2,GR86-010-16,-0.5,0.129,-0.041,100.02,3.0,7131.0,0.0,0.0,
2025-08-15T01:43:15.789Z,2,GR86-010-16,-0.5,0.119,-0.037,100.03,3.0,,0.0,0.0,153.76
2025-08-15T01:43:15.832Z,2,GR86-010-16,-0.5,0.134,-0.034,100.02,3.0,,0.0,0.0,
2025-08-15T01:43:15.874Z,2,GR86-010-16,-0.5,0.173,-0.037,99.99,3.0,,0.0,0.0,
2025-08-15T01:43:15.918Z,2,GR86-010-16,-0.5,0.213,-0.029,100.02,3.0,,0.0,0.0,
2025-08-15T01:43:15.960Z,2,GR86-010-16,-0.5,0.157,-0.05,100.02,4.0,7178.0,0.0,0.0,
2025-08-15T01:43:16.003Z,2,GR86-010-16,-0.5,0.143,-0.041,100.03,4.0,,0.0,0.0,155.03
2025-08-15T01:43:16.046Z,2,GR86-010-16,-0.5,0.299,-0.119,99.99,4.0,,0.0,0.0,
2025-08-15T01:43:16.089Z,2,GR86-010-16,-0.5,0.356,-0.129,100.03,4.0,,0.0,0.0,
2025-08-15T01:43:16.134Z,2,GR86-010-16,-0.5,0.31,-0.004,100.02,4.0,,0.0,0.0,
2025-08-15T01:43:16.176Z,2,GR86-010-16,-0.5,0.077,-0.088,100.01,4.0,7233.0,0.0,0.0,
2025-08-15T01:43:16.219Z,2,GR86-010-16,-0.5,0.012,-0.086,100.01,4.0,,0.0,0.0,156.1
2025-08-15T01:43:16.263Z,2,GR86-010-16,-0.5,0.243,-0.077,100.03,4.0,,0.0,0.0,
2025-08-15T01:43:16.305Z,2,GR86-010-16,-0.5,0.185,-0.094,100.01,4.0,,0.0,0.0,
2025-08-15T01:43:16.349Z,2,GR86-010-16,-0.5,0.075,-0.028,100.02,4.0,,0.0,0.0,
2025-08-15T01:43:16.393Z,2,GR86-010-16,-0.5,0.045,-0.071,100.02,4.0,6448.0,0.0,0.0,
2025-08-15T01:43:16.436Z,2,GR86-010-16,-0.5,0.114,-0.05,100.02,4.0,,0.0,0.0,157.17000000000002
2025-08-15T01:43:16.478Z,2,GR86-010-16,-0.5,0.169,-0.048,100.01,4.0,,0.0,0.0,
2025-08-15T01:43:16.522Z,2,GR86-010-16,-0.5,0.074,-0.051,100.02,4.0,,0.0,0.0,
2025-08-15T01:43:16.564Z,2,GR86-010-16,-0.5,0.069,-0.065,100.01,4.0,,0.0,0.0,
2025-08-15T01:43:16.607Z,2,GR86-010-16,-0.5,0.131,-0.065,100.02,4.0,6223.0,0.0,0.0,
2025-08-15T01:43:16.650Z,2,GR86-010-16,-0.5,0.178,-0.077,100.01,4.0,,0.0,0.0,158.36
2025-08-15T01:43:16.694Z,2,GR86-010-16,-0.5,0.202,-0.103,100.02,4.0,,0.0,0.0,
2025-08-15T01:43:16.736Z,2,GR86-010-16,-0.5,0.209,-0.1,100.03,4.0,,0.0,0.0,
2025-08-15T01:43:16.779Z,2,GR86-010-16,-0.5,0.183,-0.095,100.03,4.0,,0.0,0.0,
2025-08-15T01:43:16.823Z,2,GR86-010-16,-0.5,0.179,-0.11,100.01,4.0,6256.0,0.0,0.0,
2025-08-15T01:43:16.867Z,2,GR86-010-16,-0.5,0.2,-0.134,100.01,4.0,,0.0,0.0,159.3
2025-08-15T01:43:16.909Z,2,GR86-010-16,-0.5,0.198,-0.135,100.03,4.0,,0.0,0.0,
2025-08-15T01:43:16.953Z,2,GR86-010-16,-0.5,0.175,-0.133,99.99,4.0,,0.0,0.0,
2025-08-15T01:43:17.038Z,2,GR86-010-16,-0.8,0.078,-0.147,100.01,4.0,6283.0,0.0,0.0,
2025-08-15T01:43:17.083Z,2,GR86-010-16,-1.7000000000000002,0.209,-0.155,100.04,4.0,,0.0,0.0,161.18
2025-08-15T01:43:17.126Z,2,GR86-010-16,-2.1,0.166,-0.148,100.01,4.0,,0.0,0.0,
2025-08-15T01:43:17.169Z,2,GR86-010-16,-2.5,0.126,-0.158,99.99,4.0,,0.0,0.0,
2025-08-15T01:43:17.214Z,2,GR86-010-16,-2.5,0.089,-0.159,100.01,4.0,,0.0,0.0,
2025-08-15T01:43:17.256Z,2,GR86-010-16,-2.5,0.076,-0.178,100.01,4.0,6328.0,0.0,0.0,
2025-08-15T01:43:17.299Z,2,GR86-010-16,-2.5,0.088,-0.184,100.02,4.0,,0.0,0.0,162.21
2025-08-15T01:43:17.344Z,2,GR86-010-16,-2.5,0.146,-0.207,99.99,4.0,,0.0,0.0,
2025-08-15T01:43:17.386Z,2,GR86-010-16,-2.6,0.106,-0.198,100.04,4.0,,0.0,0.0,
2025-08-15T01:43:17.429Z,2,GR86-010-16,-2.6,0.084,-0.195,100.02,4.0,,0.0,0.0,
2025-08-15T01:43:17.473Z,2,GR86-010-16,-2.6,0.075,-0.169,100.02,4.0,6368.0,0.0,0.0,
2025-08-15T01:43:17.516Z,2,GR86-010-16,-2.6,0.072,-0.162,100.02,4.0,,0.0,0.0,163.12
2025-08-15T01:43:17.558Z,2,GR86-010-16,-2.6,0.116,-0.147,99.99,4.0,,0.0,0.0,
2025-08-15T01:43:17.602Z,2,GR86-010-16,-2.6,0.099,-0.153,100.02,4.0,,0.0,0.0,
2025-08-15T01:43:17.646Z,2,GR86-010-16,-2.6,0.071,-0.158,100.03,4.0,,0.0,0.0,
2025-08-15T01:43:17.689Z,2,GR86-010-16,-2.6,0.064,-0.153,100.02,4.0,6440.0,0.0,0.0,
2025-08-15T01:43:17.774Z,2,GR86-010-16,-2.6,0.1,-0.151,99.99,4.0,,0.0,0.0,164.13
2025-08-15T01:43:17.818Z,2,GR86-010-16,-2.6,0.16,-0.155,100.0,4.0,,0.0,0.0,
2025-08-15T01:43:17.860Z,2,GR86-010-16,-2.6,0.185,-0.143,100.01,4.0,,0.0,0.0,
2025-08-15T01:43:17.903Z,2,GR86-010-16,-2.6,0.073,-0.126,100.02,4.0,6442.0,0.0,0.0,
2025-08-15T01:43:17.989Z,2,GR86-010-16,-2.6,0.09,-0.142,99.99,4.0,,0.0,0.0,165.09
2025-08-15T01:43:18.033Z,2,GR86-010-16,-2.6,0.142,-0.169,99.98,4.0,,0.0,0.0,
2025-08-15T01:43:18.076Z,2,GR86-010-16,-2.6,0.164,-0.169,100.0,4.0,,0.0,0.0,
2025-08-15T01:43:18.119Z,2,GR86-010-16,-2.6,0.186,-0.184,100.02,4.0,6518.0,0.0,0.0,
2025-08-15T01:43:18.162Z,2,GR86-010-16,-2.6,0.075,-0.186,100.0,4.0,,0.0,0.0,166.12
2025-08-15T01:43:18.204Z,2,GR86-010-16,-2.6,0.097,-0.182,100.03,4.0,,0.0,0.0,
2025-08-15T01:43:18.247Z,2,GR86-010-16,-2.6,0.113,-0.177,100.0,4.0,,0.0,0.0,
2025-08-15T01:43:18.290Z,2,GR86-010-16,-2.6,0.157,-0.209,100.01,4.0,,0.0,0.0,
2025-08-15T01:43:18.334Z,2,GR86-010-16,-2.6,0.154,-0.207,100.02,4.0,6556.0,0.0,0.0,
2025-08-15T01:43:18.376Z,2,GR86-010-16,-2.6,0.19,-0.197,99.98,4.0,,0.0,0.0,167.18
2025-08-15T01:43:18.419Z,2,GR86-010-16,-2.6,0.19,-0.162,100.02,4.0,,0.0,0.0,
2025-08-15T01:43:18.463Z,2,GR86-010-16,-2.6,0.101,-0.164,100.01,4.0,,0.0,0.0,
2025-08-15T01:43:18.506Z,2,GR86-010-16,-2.6,0.101,-0.152,100.02,4.0,,0.0,0.0,
2025-08-15T01:43:18.549Z,2,GR86-010-16,-2.6,0.13,-0.154,100.01,4.0,6597.0,0.0,0.0,
2025-08-15T01:43:18.593Z,2,GR86-010-16,-2.6,0.155,-0.155,100.03,4.0,,0.0,0.0,168.17000000000002
2025-08-15T01:43:18.636Z,2,GR86-010-16,-2.6,0.163,-0.171,100.02,4.0,,0.0,0.0,
2025-08-15T01:43:18.680Z,2,GR86-010-16,-2.6,0.191,-0.166,100.02,4.0,,0.0,0.0,
2025-08-15T01:43:18.723Z,2,GR86-010-16,-2.6,0.091,-0.153,99.99,4.0,,0.0,0.0,
2025-08-15T01:43:18.766Z,2,GR86-010-16,-2.6,0.092,-0.147,100.02,4.0,6635.0,0.0,0.0,
2025-08-15T01:43:18.809Z,2,GR86-010-16,-2.6,0.114,-0.141,100.01,4.0,,0.0,0.0,169.09
2025-08-15T01:43:18.853Z,2,GR86-010-16,-2.6,0.115,-0.163,100.02,4.0,,0.0,0.0,
2025-08-15T01:43:18.896Z,2,GR86-010-16,-2.6,0.146,-0.157,100.03,4.0,,0.0,0.0,
2025-08-15T01:43:18.938Z,2,GR86-010-16,-2.6,0.152,-0.15,100.01,4.0,,0.0,0.0,
2025-08-15T01:43:18.984Z,2,GR86-010-16,-2.6,0.099,-0.139,100.02,4.0,6673.0,0.0,0.0,
2025-08-15T01:43:19.026Z,2,GR86-010-16,-2.6,0.101,-0.143,100.01,4.0,,0.0,0.0,170.25
2025-08-15T01:43:19.069Z,2,GR86-010-16,-2.6,0.078,-0.158,100.01,4.0,,0.0,0.0,
2025-08-15T01:43:19.113Z,2,GR86-010-16,-2.6,0.104,-0.145,99.99,4.0,,0.0,0.0,
2025-08-15T01:43:19.156Z,2,GR86-010-16,-2.6,0.101,-0.129,100.0,4.0,,0.0,0.0,
2025-08-15T01:43:19.198Z,2,GR86-010-16,-2.6,0.126,-0.157,100.02,4.0,6673.0,0.0,0.0,
2025-08-15T01:43:19.242Z,2,GR86-010-16,-2.6,0.138,-0.176,100.02,4.0,,0.0,0.0,171.24
2025-08-15T01:43:19.284Z,2,GR86-010-16,-2.6,0.117,-0.159,100.01,4.0,,0.0,0.0,
2025-08-15T01:43:19.327Z,2,GR86-010-16,-2.6,0.121,-0.139,100.02,4.0,,0.0,0.0,
2025-08-15T01:43:19.414Z,2,GR86-010-16,-2.6,0.099,-0.158,99.99,4.0,6705.0,0.0,0.0,
2025-08-15T01:43:19.456Z,2,GR86-010-16,-2.6,0.083,-0.172,100.0,4.0,,0.0,0.0,172.20000000000002
2025-08-15T01:43:19.499Z,2,GR86-010-16,-2.6,0.091,-0.165,100.02,4.0,,0.0,0.0,
2025-08-15T01:43:19.543Z,2,GR86-010-16,-2.6,0.158,-0.179,100.0,4.0,,0.0,0.0,
2025-08-15T01:43:19.586Z,2,GR86-010-16,-2.6,0.153,-0.188,100.02,4.0,,0.0,0.0,
2025-08-15T01:43:19.629Z,2,GR86-010-16,-2.6,0.118,-0.182,100.02,4.0,6747.0,0.0,0.0,
2025-08-15T01:43:19.673Z,2,GR86-010-16,-2.6,0.135,-0.2,100.0,4.0,,0.0,0.0,173.18
2025-08-15T01:43:19.716Z,2,GR86-010-16,-2.6,0.117,-0.189,100.0,4.0,,0.0,0.0,
2025-08-15T01:43:19.759Z,2,GR86-010-16,-2.6,0.126,-0.176,100.0,4.0,,0.0,0.0,
2025-08-15T01:43:19.802Z,2,GR86-010-16,-2.6,0.141,-0.186,100.01,4.0,,0.0,0.0,
2025-08-15T01:43:19.844Z,2,GR86-010-16,-2.6,0.132,-0.171,100.0,4.0,6836.0,0.0,0.0,
2025-08-15T01:43:19.887Z,2,GR86-010-16,-2.6,0.146,-0.178,100.0,4.0,,0.0,0.0,175.24
2025-08-15T01:43:19.930Z,2,GR86-010-16,-2.6,0.161,-0.178,99.99,4.0,,0.0,0.0,
2025-08-15T01:43:19.973Z,2,GR86-010-16,-2.6,0.165,-0.204,99.98,4.0,,0.0,0.0,
2025-08-15T01:43:20.016Z,2,GR86-010-16,-2.6,0.149,-0.219,99.99,4.0,,0.0,0.0,
2025-08-15T01:43:20.059Z,2,GR86-010-16,-2.6,0.139,-0.21,99.98,4.0,6876.0,0.0,0.0,
2025-08-15T01:43:20.103Z,2,GR86-010-16,-2.6,0.096,-0.202,99.99,4.0,,0.0,0.0,176.14
2025-08-15T01:43:20.146Z,2,GR86-010-16,-2.6,0.111,-0.175,100.0,4.0,,0.0,0.0,
2025-08-15T01:43:20.189Z,2,GR86-010-16,-2.6,0.113,-0.15,99.99,4.0,,0.0,0.0,
2025-08-15T01:43:20.233Z,2,GR86-010-16,-2.6,0.099,-0.127,100.0,4.0,,0.0,0.0,
2025-08-15T01:43:20.276Z,2,GR86-010-16,-2.6,0.116,-0.157,100.0,4.0,6912.0,0.0,0.0,
2025-08-15T01:43:20.320Z,2,GR86-010-16,-2.6,0.116,-0.136,99.98,4.0,,0.0,0.0,177.11
2025-08-15T01:43:20.364Z,2,GR86-010-16,-2.6,0.12,-0.136,99.98,4.0,,0.0,0.0,
2025-08-15T01:43:20.406Z,2,GR86-010-16,-2.6,0.116,-0.138,100.01,4.0,,0.0,0.0,
2025-08-15T01:43:20.449Z,2,GR86-010-16,-2.6,0.127,-0.162,100.01,4.0,,0.0,0.0,
2025-08-15T01:43:20.536Z,2,GR86-010-16,-2.6,0.116,-0.176,100.01,4.0,6978.0,0.0,0.0,178.03
2025-08-15T01:43:20.579Z,2,GR86-010-16,-2.6,0.116,-0.179,99.99,4.0,,0.0,0.0,
2025-08-15T01:43:20.623Z,2,GR86-010-16,-2.6,0.135,-0.168,100.01,4.0,,0.0,0.0,
2025-08-15T01:43:20.666Z,2,GR86-010-16,-2.6,0.138,-0.14,100.02,4.0,,0.0,0.0,
2025-08-15T01:43:20.709Z,2,GR86-010-16,-2.6,0.142,-0.114,100.0,4.0,6973.0,0.0,0.0,
2025-08-15T01:43:20.753Z,2,GR86-010-16,-2.6,0.148,-0.103,100.02,4.0,,0.0,0.0,178.94
2025-08-15T01:43:20.796Z,2,GR86-010-16,-2.6,0.137,-0.121,100.03,4.0,,0.0,0.0,
2025-08-15T01:43:20.838Z,2,GR86-010-16,-2.6,0.141,-0.124,99.99,4.0,,0.0,0.0,
2025-08-15T01:43:20.884Z,2,GR86-010-16,-2.6,0.109,-0.106,100.0,4.0,,0.0,0.0,
2025-08-15T01:43:20.926Z,2,GR86-010-16,-2.6,0.108,-0.109,99.99,4.0,7056.0,0.0,0.0,
2025-08-15T01:43:20.969Z,2,GR86-010-16,-2.6,0.102,-0.12,100.02,4.0,,0.0,0.0,179.93
2025-08-15T01:43:21.013Z,2,GR86-010-16,-2.6,0.113,-0.113,100.02,4.0,,0.0,0.0,
2025-08-15T01:43:21.056Z,2,GR86-010-16,-2.6,0.102,-0.123,99.99,4.0,,0.0,0.0,
2025-08-15T01:43:21.098Z,2,GR86-010-16,-2.6,0.102,-0.13,100.0,4.0,,0.0,0.0,
2025-08-15T01:43:21.142Z,2,GR86-010-16,-2.6,0.144,-0.164,99.98,4.0,7046.0,0.0,0.0,
2025-08-15T01:43:21.184Z,2,GR86-010-16,-2.6,0.139,-0.168,100.02,4.0,,0.0,0.0,180.73
2025-08-15T01:43:21.227Z,2,GR86-010-16,-2.6,0.132,-0.163,99.98,4.0,,0.0,0.0,
2025-08-15T01:43:21.272Z,2,GR86-010-16,-2.6,0.134,-0.179,100.0,4.0,,0.0,0.0,
2025-08-15T01:43:21.314Z,2,GR86-010-16,-2.6,0.135,-0.2,99.98,4.0,,0.0,0.0,
2025-08-15T01:43:21.357Z,2,GR86-010-16,-2.6,0.137,-0.194,99.98,4.0,7124.0,0.0,0.0,
2025-08-15T01:43:21.443Z,2,GR86-010-16,-2.6,0.094,-0.172,100.0,4.0,,0.0,0.0,181.82
2025-08-15T01:43:21.486Z,2,GR86-010-16,-2.6,0.101,-0.174,100.02,4.0,,0.0,0.0,
2025-08-15T01:43:21.529Z,2,GR86-010-16,-2.6,0.096,-0.157,100.01,4.0,,0.0,0.0,
2025-08-15T01:43:21.573Z,2,GR86-010-16,-2.6,0.096,-0.136,99.99,4.0,7164.0,0.0,0.0,
2025-08-15T01:43:21.616Z,2,GR86-010-16,-2.6,0.096,-0.116,99.97,4.0,,0.0,0.0,182.74
2025-08-15T01:43:21.659Z,2,GR86-010-16,-2.6,0.1,-0.114,99.99,4.0,,0.0,0.0,
2025-08-15T01:43:21.703Z,2,GR86-010-16,-2.6,0.132,-0.125,99.97,4.0,,0.0,0.0,
2025-08-15T01:43:21.746Z,2,GR86-010-16,-2.6,0.13,-0.129,99.99,4.0,,0.0,0.0,
2025-08-15T01:43:21.789Z,2,GR86-010-16,-2.6,0.139,-0.147,100.02,4.0,7150.0,0.0,0.0,
2025-08-15T01:43:21.832Z,2,GR86-010-16,-2.6,0.123,-0.165,99.99,4.0,,0.0,0.0,183.65
2025-08-15T01:43:21.874Z,2,GR86-010-16,-2.6,0.133,-0.171,100.01,4.0,,0.0,0.0,
2025-08-15T01:43:21.918Z,2,GR86-010-16,-2.6,0.126,-0.174,100.02,4.0,,0.0,0.0,
2025-08-15T01:43:21.960Z,2,GR86-010-16,-2.6,0.122,-0.181,99.99,4.0,,0.0,0.0,
2025-08-15T01:43:22.003Z,2,GR86-010-16,-2.6,0.097,-0.191,100.02,4.0,7183.0,0.0,0.0,
2025-08-15T01:43:22.046Z,2,GR86-010-16,-2.6,0.084,-0.167,99.98,4.0,,0.0,0.0,184.54
2025-08-15T01:43:22.089Z,2,GR86-010-16,-2.6,0.063,-0.154,99.98,4.0,,0.0,0.0,
2025-08-15T01:43:22.133Z,2,GR86-010-16,-2.6,0.05,-0.144,99.99,4.0,,0.0,0.0,
2025-08-15T01:43:22.176Z,2,GR86-010-16,-2.6,0.017,-0.137,100.03,4.0,,0.0,0.0,
2025-08-15T01:43:22.219Z,2,GR86-010-16,-2.6,-0.135,-0.135,100.01,5.0,7267.0,0.0,0.0,
2025-08-15T01:43:22.305Z,2,GR86-010-16,-2.6,0.272,-0.082,100.0,5.0,,0.0,0.0,185.37
2025-08-15T01:43:22.349Z,2,GR86-010-16,-2.6,0.151,-0.061,100.0,5.0,,0.0,0.0,
2025-08-15T01:43:22.392Z,2,GR86-010-16,-2.6,-0.013,-0.061,99.98,5.0,,0.0,0.0,
2025-08-15T01:43:22.434Z,2,GR86-010-16,-2.6,0.034,-0.162,100.0,5.0,7272.0,0.0,0.0,
2025-08-15T01:43:22.478Z,2,GR86-010-16,-2.6,0.119,-0.037,99.98,5.0,,0.0,0.0,186.23
2025-08-15T01:43:22.522Z,2,GR86-010-16,-2.6,0.111,-0.15,99.98,5.0,,0.0,0.0,
2025-08-15T01:43:22.564Z,2,GR86-010-16,-2.6,0.097,-0.123,99.99,5.0,,0.0,0.0,
2025-08-15T01:43:22.607Z,2,GR86-010-16,-2.6,0.137,-0.156,99.98,5.0,,0.0,0.0,
2025-08-15T01:43:22.650Z,2,GR86-010-16,-2.6,0.122,-0.154,99.99,5.0,6687.0,0.0,0.0,
2025-08-15T01:43:22.694Z,2,GR86-010-16,-2.6,0.099,-0.136,100.02,5.0,,0.0,0.0,187.6
2025-08-15T01:43:22.736Z,2,GR86-010-16,-2.6,0.098,-0.137,100.0,5.0,,0.0,0.0,
2025-08-15T01:43:22.779Z,2,GR86-010-16,-2.6,0.091,-0.138,99.98,5.0,,0.0,0.0,
2025-08-15T01:43:22.823Z,2,GR86-010-16,-2.6,0.082,-0.135,99.98,5.0,,0.0,0.0,
2025-08-15T01:43:22.867Z,2,GR86-010-16,-2.6,0.107,-0.118,100.0,5.0,6411.0,0.0,0.0,
2025-08-15T01:43:22.910Z,2,GR86-010-16,-2.6,0.106,-0.143,99.98,5.0,,0.0,0.0,188.4
2025-08-15T01:43:22.953Z,2,GR86-010-16,-2.6,0.135,-0.125,100.0,5.0,,0.0,0.0,
2025-08-15T01:43:22.996Z,2,GR86-010-16,-2.6,0.119,-0.11,99.98,5.0,,0.0,0.0,
2025-08-15T01:43:23.038Z,2,GR86-010-16,-2.6,0.131,-0.089,99.98,5.0,,0.0,0.0,
2025-08-15T01:43:23.083Z,2,GR86-010-16,-2.6,0.074,-0.053,100.0,5.0,6386.0,0.0,0.0,
2025-08-15T01:43:23.126Z,2,GR86-010-16,-2.6,0.084,-0.046,99.99,5.0,,0.0,0.0,189.22
2025-08-15T01:43:23.169Z,2,GR86-010-16,-2.6,0.082,-0.051,99.98,5.0,,0.0,0.0,
2025-08-15T01:43:23.214Z,2,GR86-010-16,-2.6,0.107,-0.042,99.99,5.0,,0.0,0.0,
2025-08-15T01:43:23.256Z,2,GR86-010-16,-2.6,0.107,-0.039,100.0,5.0,,0.0,0.0,
2025-08-15T01:43:23.299Z,2,GR86-010-16,-2.6,0.12,-0.029,99.98,5.0,6452.0,0.0,0.0,
2025-08-15T01:43:23.343Z,2,GR86-010-16,-2.6,0.087,-0.019,99.99,5.0,,0.0,0.0,189.98
2025-08-15T01:43:23.386Z,2,GR86-010-16,-2.6,0.076,-0.025,100.0,5.0,,0.0,0.0,
2025-08-15T01:43:23.473Z,2,GR86-010-16,-2.6,0.079,-0.042,100.02,5.0,,0.0,0.0,
2025-08-15T01:43:23.516Z,2,GR86-010-16,-2.6,0.085,-0.045,100.0,5.0,6436.0,0.0,0.0,
2025-08-15T01:43:23.558Z,2,GR86-010-16,-2.6,0.084,-0.062,99.98,5.0,,0.0,0.0,190.77
2025-08-15T01:43:23.602Z,2,GR86-010-16,-2.6,0.112,-0.073,99.98,5.0,,0.0,0.0,
2025-08-15T01:43:23.646Z,2,GR86-010-16,-2.6,0.098,-0.071,99.99,5.0,,0.0,0.0,
2025-08-15T01:43:23.689Z,2,GR86-010-16,-2.6,0.087,-0.08,100.0,5.0,,0.0,0.0,
2025-08-15T01:43:23.733Z,2,GR86-010-16,-2.6,0.08,-0.082,100.0,5.0,6464.0,0.0,0.0,
2025-08-15T01:43:23.776Z,2,GR86-010-16,-2.6,0.061,-0.082,99.99,5.0,,0.0,0.0,191.49
2025-08-15T01:43:23.819Z,2,GR86-010-16,-2.6,0.054,-0.087,100.0,5.0,,0.0,0.0,
2025-08-15T01:43:23.862Z,2,GR86-010-16,-2.6,0.124,-0.108,99.98,5.0,,0.0,0.0,
2025-08-15T01:43:23.904Z,2,GR86-010-16,-2.6,0.108,-0.098,100.01,5.0,,0.0,0.0,
2025-08-15T01:43:23.947Z,2,GR86-010-16,-2.6,0.095,-0.087,99.98,5.0,6533.0,0.0,0.0,
2025-08-15T01:43:23.990Z,2,GR86-010-16,-2.6,0.144,-0.076,99.98,5.0,,0.0,0.0,192.29
2025-08-15T01:43:24.034Z,2,GR86-010-16,-2.6,0.255,-0.056,99.98,5.0,,0.0,0.0,
2025-08-15T01:43:24.076Z,2,GR86-010-16,-2.6,0.357,-0.045,99.99,5.0,,0.0,0.0,
2025-08-15T01:43:24.119Z,2,GR86-010-16,-2.6,0.391,-0.065,100.0,5.0,,0.0,0.0,
2025-08-15T01:43:24.163Z,2,GR86-010-16,-2.6,0.243,-0.108,99.98,5.0,6555.0,0.0,0.0,
2025-08-15T01:43:24.206Z,2,GR86-010-16,-2.6,0.152,-0.123,100.0,5.0,,0.0,0.0,193.16
2025-08-15T01:43:24.249Z,2,GR86-010-16,-2.6,0.09,-0.131,100.0,5.0,,0.0,0.0,
2025-08-15T01:43:24.293Z,2,GR86-010-16,-2.6,0.073,-0.133,100.02,5.0,,0.0,0.0,
2025-08-15T01:43:24.336Z,2,GR86-010-16,-2.6,0.071,-0.127,100.0,5.0,,0.0,0.0,
2025-08-15T01:43:24.379Z,2,GR86-010-16,-2.6,0.045,-0.09,99.98,5.0,6551.0,0.0,0.0,
2025-08-15T01:43:24.422Z,2,GR86-010-16,-2.6,0.093,-0.078,100.0,5.0,,0.0,0.0,193.89
2025-08-15T01:43:24.466Z,2,GR86-010-16,-2.5,0.094,-0.081,99.99,5.0,,0.0,0.0,
2025-08-15T01:43:24.509Z,2,GR86-010-16,-2.5,0.065,-0.074,100.01,5.0,,0.0,0.0,
2025-08-15T01:43:24.594Z,2,GR86-010-16,-2.5,0.043,-0.056,99.99,5.0,6666.0,0.0,0.0,
2025-08-15T01:43:24.638Z,2,GR86-010-16,-2.5,0.06,-0.066,99.98,5.0,,0.0,0.0,195.86
2025-08-15T01:43:24.684Z,2,GR86-010-16,-2.5,0.089,-0.093,100.02,5.0,,0.0,0.0,
2025-08-15T01:43:24.726Z,2,GR86-010-16,-2.5,0.078,-0.093,100.02,5.0,,0.0,0.0,
2025-08-15T01:43:24.769Z,2,GR86-010-16,-2.5,0.056,-0.076,100.0,5.0,,0.0,0.0,
2025-08-15T01:43:24.813Z,2,GR86-010-16,-2.5,0.056,-0.054,99.99,5.0,6688.0,0.0,0.0,
2025-08-15T01:43:24.856Z,2,GR86-010-16,-2.3000000000000003,0.064,-0.044,100.0,5.0,,0.0,0.0,196.98
2025-08-15T01:43:24.898Z,2,GR86-010-16,-1.9,0.065,-0.041,99.99,5.0,,0.0,0.0,
2025-08-15T01:43:24.942Z,2,GR86-010-16,-1.7000000000000002,0.076,-0.046,99.99,5.0,,0.0,0.0,
2025-08-15T01:43:24.984Z,2,GR86-010-16,-1.6,0.058,-0.023,100.0,5.0,,0.0,0.0,
2025-08-15T01:43:25.027Z,2,GR86-010-16,-1.6,0.059,0.012,99.98,5.0,6667.0,0.0,0.0,
2025-08-15T01:43:25.072Z,2,GR86-010-16,-1.5,0.045,0.013,99.99,5.0,,0.0,0.0,197.79
2025-08-15T01:43:25.114Z,2,GR86-010-16,-1.5,0.072,0.031,99.98,5.0,,0.0,0.0,
2025-08-15T01:43:25.157Z,2,GR86-010-16,-1.5,0.087,0.036,99.99,5.0,,0.0,0.0,
2025-08-15T01:43:25.200Z,2,GR86-010-16,-1.5,0.104,0.018,99.98,5.0,,0.0,0.0,
2025-08-15T01:43:25.243Z,2,GR86-010-16,-1.5,0.052,0.013,100.0,5.0,6687.0,0.0,0.0,
2025-08-15T01:43:25.286Z,2,GR86-010-16,-1.5,0.065,0.002,100.01,5.0,,0.0,0.0,199.05
2025-08-15T01:43:25.329Z,2,GR86-010-16,-1.5,0.078,-0.015,100.0,5.0,,0.0,0.0,
2025-08-15T01:43:25.373Z,2,GR86-010-16,-1.5,0.094,-0.029,100.0,5.0,,0.0,0.0,
2025-08-15T01:43:25.416Z,2,GR86-010-16,-1.5,0.12,-0.06,99.99,5.0,,0.0,0.0,
2025-08-15T01:43:25.459Z,2,GR86-010-16,-1.5,0.124,-0.074,100.0,5.0,6758.0,0.0,0.0,
2025-08-15T01:43:25.503Z,2,GR86-010-16,-1.5,0.061,-0.051,99.99,5.0,,0.0,0.0,199.77
2025-08-15T01:43:25.546Z,2,GR86-010-16,-1.5,0.093,-0.056,99.99,5.0,,0.0,0.0,
2025-08-15T01:43:25.588Z,2,GR86-010-16,-1.5,0.102,-0.061,100.0,5.0,,0.0,0.0,
2025-08-15T01:43:25.632Z,2,GR86-010-16,-1.5,0.111,-0.05,99.99,5.0,,0.0,0.0,
2025-08-15T01:43:25.674Z,2,GR86-010-16,-1.5,0.104,-0.046,100.0,5.0,6780.0,0.0,0.0,
2025-08-15T01:43:25.718Z,2,GR86-010-16,-1.5,0.087,-0.025,100.01,5.0,,0.0,0.0,200.46
2025-08-15T01:43:25.762Z,2,GR86-010-16,-1.4,0.098,-0.021,100.0,5.0,,0.0,0.0,
2025-08-15T01:43:25.806Z,2,GR86-010-16,-1.1,0.118,-0.022,100.0,5.0,,0.0,0.0,
2025-08-15T01:43:25.849Z,2,GR86-010-16,-0.8,0.097,-0.013,99.99,5.0,,0.0,0.0,
2025-08-15T01:43:25.936Z,2,GR86-010-16,-0.8,0.104,-0.006,99.99,5.0,6827.0,0.0,0.0,201.02
2025-08-15T01:43:25.979Z,2,GR86-010-16,-0.8,0.042,0.0,99.98,5.0,,0.0,0.0,
2025-08-15T01:43:26.023Z,2,GR86-010-16,-0.8,0.102,-0.015,99.99,5.0,,0.0,0.0,
2025-08-15T01:43:26.066Z,2,GR86-010-16,-0.8,0.095,-0.009,99.98,5.0,,0.0,0.0,
2025-08-15T01:43:26.108Z,2,GR86-010-16,-0.8,0.07,-0.007,99.99,5.0,6846.0,0.0,0.0,
2025-08-15T01:43:26.152Z,2,GR86-010-16,-0.8,0.062,-0.005,99.98,5.0,,0.0,0.0,201.66
2025-08-15T01:43:26.196Z,2,GR86-010-16,-0.8,0.055,0.011,100.03,5.0,,0.0,0.0,
2025-08-15T01:43:26.238Z,2,GR86-010-16,-0.7000000000000001,0.059,0.011,100.03,5.0,,0.0,0.0,
2025-08-15T01:43:26.283Z,2,GR86-010-16,0.0,0.065,0.005,99.99,5.0,,0.0,0.0,
2025-08-15T01:43:26.326Z,2,GR86-010-16,0.3,0.062,0.001,99.99,5.0,6823.0,0.0,0.0,
2025-08-15T01:43:26.369Z,2,GR86-010-16,0.5,0.059,0.015,99.99,5.0,,0.0,0.0,202.43
2025-08-15T01:43:26.413Z,2,GR86-010-16,0.5,0.063,0.034,100.0,5.0,,0.0,0.0,
2025-08-15T01:43:26.456Z,2,GR86-010-16,0.5,0.095,0.029,100.02,5.0,,0.0,0.0,
2025-08-15T01:43:26.498Z,2,GR86-010-16,0.5,0.107,0.026,100.0,5.0,,0.0,0.0,
2025-08-15T01:43:26.542Z,2,GR86-010-16,1.9,0.05,0.05,99.99,5.0,6850.0,0.0,0.0,
2025-08-15T01:43:26.584Z,2,GR86-010-16,2.5,0.08,0.051,100.03,5.0,,0.0,0.0,202.99
2025-08-15T01:43:26.627Z,2,GR86-010-16,2.6,0.1,0.034,100.0,5.0,,0.0,0.0,
2025-08-15T01:43:26.672Z,2,GR86-010-16,2.9000000000000004,0.124,0.048,99.99,5.0,,0.0,0.0,
2025-08-15T01:43:26.714Z,2,GR86-010-16,3.8,0.109,0.092,100.02,5.0,,0.0,0.0,
2025-08-15T01:43:26.757Z,2,GR86-010-16,4.800000000000001,0.078,0.097,100.02,5.0,6871.0,0.0,0.0,
2025-08-15T01:43:26.802Z,2,GR86-010-16,6.4,0.096,0.187,100.0,5.0,,0.0,0.0,203.81
2025-08-15T01:43:26.844Z,2,GR86-010-16,6.4,0.106,0.195,99.99,5.0,,0.0,0.0,
2025-08-15T01:43:26.889Z,2,GR86-010-16,6.4,0.087,0.187,99.99,5.0,,0.0,0.0,
2025-08-15T01:43:26.932Z,2,GR86-010-16,6.5,0.047,0.191,99.99,5.0,,0.0,0.0,
2025-08-15T01:43:26.974Z,2,GR86-010-16,6.7,0.052,0.207,100.0,5.0,6892.0,0.0,0.0,
2025-08-15T01:43:27.018Z,2,GR86-010-16,7.1000000000000005,0.041,0.239,99.99,5.0,,0.0,0.0,204.51
2025-08-15T01:43:27.060Z,2,GR86-010-16,7.300000000000001,0.062,0.262,99.98,5.0,,0.0,0.0,
2025-08-15T01:43:27.103Z,2,GR86-010-16,7.4,0.054,0.27,99.97,5.0,,0.0,0.0,
2025-08-15T01:43:27.146Z,2,GR86-010-16,7.4,0.058,0.251,99.99,5.0,,0.0,0.0,
2025-08-15T01:43:27.189Z,2,GR86-010-16,7.4,0.062,0.235,100.0,5.0,6964.0,0.0,0.0,
2025-08-15T01:43:27.234Z,2,GR86-010-16,7.4,0.088,0.24,99.99,5.0,,0.0,0.0,205.07
2025-08-15T01:43:27.276Z,2,GR86-010-16,8.200000000000001,0.102,0.265,100.0,5.0,,0.0,0.0,
2025-08-15T01:43:27.319Z,2,GR86-010-16,9.3,0.097,0.271,100.0,5.0,,0.0,0.0,
2025-08-15T01:43:27.363Z,2,GR86-010-16,9.9,0.09,0.296,99.99,5.0,,0.0,0.0,
2025-08-15T01:43:27.405Z,2,GR86-010-16,9.9,0.094,0.299,99.99,5.0,6984.0,0.0,0.0,
2025-08-15T01:43:27.449Z,2,GR86-010-16,9.9,0.103,0.324,100.0,5.0,,0.0,0.0,205.85
2025-08-15T01:43:27.492Z,2,GR86-010-16,10.5,0.094,0.329,99.99,5.0,,0.0,0.0,
2025-08-15T01:43:27.534Z,2,GR86-010-16,11.1,0.062,0.344,100.0,5.0,,0.0,0.0,
2025-08-15T01:43:27.577Z,2,GR86-010-16,11.6,0.043,0.365,100.02,5.0,,0.0,0.0,
2025-08-15T01:43:27.622Z,2,GR86-010-16,11.9,0.062,0.406,99.98,5.0,6959.0,0.0,0.0,
2025-08-15T01:43:27.664Z,2,GR86-010-16,11.9,0.077,0.418,100.02,5.0,,0.0,0.0,206.52
2025-08-15T01:43:27.707Z,2,GR86-010-16,12.0,0.058,0.391,100.01,5.0,,0.0,0.0,
2025-08-15T01:43:27.750Z,2,GR86-010-16,12.0,0.046,0.368,99.99,5.0,,0.0,0.0,
2025-08-15T01:43:27.794Z,2,GR86-010-16,12.0,0.079,0.376,100.02,5.0,,0.0,0.0,
2025-08-15T01:43:27.836Z,2,GR86-010-16,12.0,0.084,0.361,100.0,5.0,6982.0,0.0,0.0,
2025-08-15T01:43:27.879Z,2,GR86-010-16,12.0,0.095,0.37,99.99,5.0,,0.0,0.0,207.1
2025-08-15T01:43:27.923Z,2,GR86-010-16,12.0,0.093,0.382,99.99,5.0,,0.0,0.0,
2025-08-15T01:43:27.967Z,2,GR86-010-16,11.7,0.084,0.359,99.99,5.0,,0.0,0.0,
2025-08-15T01:43:28.009Z,2,GR86-010-16,11.6,0.104,0.315,100.01,5.0,,0.0,0.0,
2025-08-15T01:43:28.053Z,2,GR86-010-16,11.6,0.073,0.264,100.03,5.0,7049.0,0.0,0.0,
2025-08-15T01:43:28.096Z,2,GR86-010-16,11.6,0.062,0.284,99.98,5.0,,6.515000000000001,6.715,208.08
2025-08-15T01:43:28.138Z,2,GR86-010-16,11.6,-0.051,0.29,100.0,5.0,,6.96,7.17,
2025-08-15T01:43:28.183Z,2,GR86-010-16,11.5,-0.071,0.231,99.98,5.0,,6.12,6.6850000000000005,
2025-08-15T01:43:28.226Z,2,GR86-010-16,10.2,-0.044,0.154,99.99,5.0,,2.305,2.76,
2025-08-15T01:43:28.269Z,2,GR86-010-16,8.700000000000001,0.041,0.133,100.0,5.0,7037.0,0.0,0.0,
2025-08-15T01:43:28.314Z,2,GR86-010-16,8.1,0.073,0.136,99.98,5.0,,0.0,0.0,208.83
2025-08-15T01:43:28.356Z,2,GR86-010-16,8.1,0.063,0.146,100.0,5.0,,0.0,0.0,
2025-08-15T01:43:28.399Z,2,GR86-010-16,8.1,0.075,0.164,99.98,5.0,,0.0,0.0,
2025-08-15T01:43:28.443Z,2,GR86-010-16,8.1,0.071,0.17,100.0,5.0,,0.0,0.0,
2025-08-15T01:43:28.486Z,2,GR86-010-16,8.1,0.073,0.171,100.0,5.0,7091.0,0.0,0.0,
2025-08-15T01:43:28.529Z,2,GR86-010-16,8.1,0.072,0.157,99.98,5.0,,0.0,0.0,209.11
2025-08-15T01:43:28.573Z,2,GR86-010-16,8.1,0.078,0.161,99.99,5.0,,0.0,0.0,
2025-08-15T01:43:28.616Z,2,GR86-010-16,8.1,0.062,0.18,100.0,5.0,,0.0,0.0,
2025-08-15T01:43:28.658Z,2,GR86-010-16,8.1,0.053,0.189,100.0,5.0,,0.0,0.0,
2025-08-15T01:43:28.703Z,2,GR86-010-16,8.1,0.063,0.209,100.0,5.0,7058.0,0.0,0.0,
2025-08-15T01:43:28.746Z,2,GR86-010-16,8.1,0.055,0.216,99.99,5.0,,0.0,0.0,209.38
2025-08-15T01:43:28.789Z,2,GR86-010-16,8.1,0.064,0.245,99.98,5.0,,0.0,0.0,
2025-08-15T01:43:28.833Z,2,GR86-010-16,8.1,0.054,0.259,100.0,5.0,,0.0,0.0,
2025-08-15T01:43:28.876Z,2,GR86-010-16,8.1,0.061,0.25,100.01,5.0,,0.0,0.0,
2025-08-15T01:43:28.919Z,2,GR86-010-16,8.1,0.074,0.23,100.01,5.0,7132.0,0.0,0.0,
2025-08-15T01:43:28.962Z,2,GR86-010-16,8.0,0.068,0.153,99.99,5.0,,0.0,0.0,209.94
2025-08-15T01:43:29.004Z,2,GR86-010-16,8.0,0.06,0.117,100.0,5.0,,0.0,0.0,
2025-08-15T01:43:29.047Z,2,GR86-010-16,7.9,0.065,0.108,99.99,5.0,,0.0,0.0,
2025-08-15T01:43:29.092Z,2,GR86-010-16,8.0,0.052,0.136,100.01,5.0,,0.0,0.0,
2025-08-15T01:43:29.134Z,2,GR86-010-16,8.0,0.054,0.145,99.98,5.0,7151.0,0.0,0.0,
2025-08-15T01:43:29.177Z,2,GR86-010-16,8.0,0.057,0.131,100.01,5.0,,0.0,0.0,210.58
2025-08-15T01:43:29.220Z,2,GR86-010-16,7.9,0.05,0.115,99.98,5.0,,0.0,0.0,
2025-08-15T01:43:29.263Z,2,GR86-010-16,7.9,0.037,0.104,100.01,5.0,,8.040000000000001,8.09,
2025-08-15T01:43:29.306Z,2,GR86-010-16,7.9,-0.116,0.13,99.98,5.0,,9.78,9.72,
2025-08-15T01:43:29.349Z,2,GR86-010-16,7.9,-0.135,0.143,99.99,5.0,7173.0,9.31,9.66,
2025-08-15T01:43:29.393Z,2,GR86-010-16,7.9,-0.111,0.156,100.02,5.0,,4.9,5.525,211.3
2025-08-15T01:43:29.436Z,2,GR86-010-16,7.9,-0.007,0.157,99.99,5.0,,0.0,0.0,
2025-08-15T01:43:29.479Z,2,GR86-010-16,7.9,0.061,0.129,99.99,5.0,,3.31,3.755,
2025-08-15T01:43:29.522Z,2,GR86-010-16,7.9,-0.051,0.12,100.02,5.0,,9.875,10.085,
2025-08-15T01:43:29.566Z,2,GR86-010-16,7.9,-0.154,0.121,100.0,5.0,7192.0,12.24,12.39,
2025-08-15T01:43:29.608Z,2,GR86-010-16,7.9,-0.169,0.128,100.0,5.0,,12.42,12.805,212.0
2025-08-15T01:43:29.653Z,2,GR86-010-16,7.9,-0.154,0.134,96.98,5.0,,11.675,12.115,
2025-08-15T01:43:29.696Z,2,GR86-010-16,7.9,-0.146,0.139,45.58,5.0,,11.52,11.965,
2025-08-15T01:43:29.739Z,2,GR86-010-16,7.9,-0.172,0.172,24.73,5.0,,13.045,13.335,
2025-08-15T01:43:29.784Z,2,GR86-010-16,7.9,-0.278,0.189,4.76,5.0,7151.0,21.655,21.625,
2025-08-15T01:43:29.826Z,2,GR86-010-16,7.9,-0.658,0.202,4.37,5.0,,30.215,29.925,211.66
2025-08-15T01:43:29.869Z,2,GR86-010-16,7.9,-0.684,0.194,3.95,5.0,,35.02,34.78,
2025-08-15T01:43:29.913Z,2,GR86-010-16,7.1000000000000005,-0.913,0.118,3.46,5.0,,36.805,36.67,
2025-08-15T01:43:29.956Z,2,GR86-010-16,7.0,-0.764,0.125,3.16,5.0,,42.3,42.515,
2025-08-15T01:43:29.998Z,2,GR86-010-16,6.6000000000000005,-0.91,0.143,2.95,5.0,7117.0,44.71,44.94,
2025-08-15T01:43:30.042Z,2,GR86-010-16,4.0,-0.938,0.106,2.79,5.0,,40.09,41.215,211.7
2025-08-15T01:43:30.084Z,2,GR86-010-16,4.0,-0.845,0.128,2.73,5.0,,41.49,41.645,
2025-08-15T01:43:30.127Z,2,GR86-010-16,4.0,-0.995,0.091,2.7,5.0,,49.795,49.46,
2025-08-15T01:43:30.172Z,2,GR86-010-16,4.0,-0.953,0.148,2.67,5.0,,52.74,52.645,
2025-08-15T01:43:30.214Z,2,GR86-010-16,4.9,-0.955,0.125,2.66,5.0,6773.0,46.495,47.64,
2025-08-15T01:43:30.257Z,2,GR86-010-16,6.5,-0.793,0.145,2.64,5.0,,38.21,39.72,209.98
2025-08-15T01:43:30.300Z,2,GR86-010-16,6.5,-0.857,0.134,2.62,5.0,,36.67,37.615,
2025-08-15T01:43:30.343Z,2,GR86-010-16,6.1000000000000005,-0.785,0.125,2.59,5.0,,37.705,38.075,
2025-08-15T01:43:30.386Z,2,GR86-010-16,6.0,-0.803,0.092,2.57,5.0,,44.74,44.375,
2025-08-15T01:43:30.429Z,2,GR86-010-16,6.0,-0.926,0.094,2.56,5.0,6527.0,54.43,53.870000000000005,
2025-08-15T01:43:30.473Z,2,GR86-010-16,6.0,-1.0,0.118,2.5500000000000003,5.0,,58.28,57.895,204.82
2025-08-15T01:43:30.516Z,2,GR86-010-16,6.300000000000001,-1.02,0.141,10.2,5.0,,56.095,56.815,
2025-08-15T01:43:30.559Z,2,GR86-010-16,6.7,-0.952,0.19,55.41,5.0,,51.06,52.83,
2025-08-15T01:43:30.602Z,2,GR86-010-16,6.7,-1.111,0.174,91.34,4.0,,49.015,50.25,
2025-08-15T01:43:30.644Z,2,GR86-010-16,6.7,-1.054,0.159,25.64,4.0,6364.0,50.71,52.08,
2025-08-15T01:43:30.687Z,2,GR86-010-16,6.7,-1.053,0.227,4.83,4.0,,51.535,52.28,193.7
2025-08-15T01:43:30.730Z,2,GR86-010-16,6.7,-1.077,0.268,4.0600000000000005,4.0,,47.125,47.61,
2025-08-15T01:43:30.773Z,2,GR86-010-16,5.800000000000001,-1.027,0.217,3.56,4.0,,44.055,45.305,
2025-08-15T01:43:30.816Z,2,GR86-010-16,5.800000000000001,-0.914,0.164,3.24,4.0,,47.09,47.64,
2025-08-15T01:43:30.859Z,2,GR86-010-16,5.800000000000001,-1.032,0.219,3.0500000000000003,4.0,6248.0,54.77,54.43,
2025-08-15T01:43:30.903Z,2,GR86-010-16,4.9,-1.131,0.13,2.86,4.0,,71.86,72.15,187.32
2025-08-15T01:43:30.946Z,2,GR86-010-16,4.9,-1.195,0.125,2.76,4.0,,75.84,76.65,
2025-08-15T01:43:30.989Z,2,GR86-010-16,4.9,-1.122,0.138,2.7,4.0,,72.27,73.34,
2025-08-15T01:43:31.033Z,2,GR86-010-16,4.9,-1.109,0.118,2.67,4.0,,59.36,60.55,
2025-08-15T01:43:31.076Z,2,GR86-010-16,5.1000000000000005,-0.975,0.11,2.64,4.0,6834.0,46.27,47.9,
2025-08-15T01:43:31.119Z,2,GR86-010-16,5.1000000000000005,-0.877,0.102,2.63,4.0,,42.24,42.865,180.21
2025-08-15T01:43:31.164Z,2,GR86-010-16,5.1000000000000005,-0.81,0.112,2.6,4.0,,37.265,38.35,
2025-08-15T01:43:31.206Z,2,GR86-010-16,5.1000000000000005,-0.71,0.106,2.57,4.0,,28.72,29.71,
2025-08-15T01:43:31.249Z,2,GR86-010-16,5.1000000000000005,-0.615,0.094,2.57,4.0,,29.62,30.11,
2025-08-15T01:43:31.294Z,2,GR86-010-16,5.1000000000000005,-0.834,0.09,2.5500000000000003,4.0,6486.0,40.62,40.59,
2025-08-15T01:43:31.336Z,2,GR86-010-16,5.1000000000000005,-0.986,0.111,2.5500000000000003,4.0,,51.745000000000005,51.455,173.1
2025-08-15T01:43:31.379Z,2,GR86-010-16,5.1000000000000005,-1.129,0.107,37.06,4.0,,65.175,64.72,
2025-08-15T01:43:31.423Z,2,GR86-010-16,5.1000000000000005,-1.254,0.129,19.32,3.0,,78.865,78.575,
2025-08-15T01:43:31.466Z,2,GR86-010-16,5.1000000000000005,-1.274,0.133,4.66,3.0,,82.65,83.9,
2025-08-15T01:43:31.508Z,2,GR86-010-16,5.1000000000000005,-1.355,0.134,4.0600000000000005,3.0,6327.0,87.365,88.705,
2025-08-15T01:43:31.552Z,2,GR86-010-16,5.1000000000000005,-1.368,0.108,3.56,3.0,,88.05,88.495,167.54
2025-08-15T01:43:31.596Z,2,GR86-010-16,5.1000000000000005,-1.33,0.123,3.21,3.0,,89.395,90.355,
2025-08-15T01:43:31.638Z,2,GR86-010-16,6.300000000000001,-1.325,0.188,3.02,3.0,,91.44,92.185,
2025-08-15T01:43:31.683Z,2,GR86-010-16,9.4,-1.374,0.244,2.82,3.0,,90.14,90.765,
2025-08-15T01:43:31.726Z,2,GR86-010-16,7.6,-1.245,0.234,2.73,3.0,6316.0,88.46000000000001,90.17,
2025-08-15T01:43:31.769Z,2,GR86-010-16,4.2,-1.106,0.073,2.67,3.0,,88.8,89.24,161.09
2025-08-15T01:43:31.813Z,2,GR86-010-16,4.7,-1.249,0.133,2.64,3.0,,90.49,91.47,
2025-08-15T01:43:31.856Z,2,GR86-010-16,12.4,-1.262,0.097,2.63,3.0,,93.21,94.52,
2025-08-15T01:43:31.898Z,2,GR86-010-16,17.1,-1.336,0.093,3.44,3.0,,95.24,96.335,
2025-08-15T01:43:31.942Z,2,GR86-010-16,19.700000000000003,-1.361,0.227,66.12,3.0,6479.0,98.81,99.86,
2025-08-15T01:43:31.984Z,2,GR86-010-16,19.700000000000003,-1.288,0.283,92.4,2.0,,97.845,98.87,152.1
2025-08-15T01:43:32.027Z,2,GR86-010-16,19.700000000000003,-1.364,0.209,28.66,2.0,,98.185,99.8,
2025-08-15T01:43:32.070Z,2,GR86-010-16,19.700000000000003,-1.384,0.248,3.5500000000000003,2.0,,101.265,102.93,
2025-08-15T01:43:32.114Z,2,GR86-010-16,19.700000000000003,-1.447,0.421,2.69,2.0,,99.74,100.55,
2025-08-15T01:43:32.156Z,2,GR86-010-16,19.700000000000003,-1.509,0.282,2.56,2.0,6331.0,97.94,98.87,
2025-08-15T01:43:32.199Z,2,GR86-010-16,19.700000000000003,-1.308,0.393,2.53,2.0,,98.96,100.18,142.79
2025-08-15T01:43:32.243Z,2,GR86-010-16,19.5,-1.066,0.432,2.51,2.0,,98.535,99.405,
2025-08-15T01:43:32.286Z,2,GR86-010-16,19.5,-1.291,0.521,2.51,2.0,,98.49,99.495,
2025-08-15T01:43:32.329Z,2,GR86-010-16,19.5,-1.222,0.481,2.49,2.0,,97.94,99.31,
2025-08-15T01:43:32.373Z,2,GR86-010-16,19.5,-1.155,0.367,2.5,2.0,6487.0,94.46,95.74,
2025-08-15T01:43:32.416Z,2,GR86-010-16,20.200000000000003,-1.205,0.463,2.49,2.0,,92.125,92.84,133.89
2025-08-15T01:43:32.459Z,2,GR86-010-16,23.0,-1.208,0.32,2.49,2.0,,82.985,84.265,
2025-08-15T01:43:32.503Z,2,GR86-010-16,27.6,-1.088,0.379,2.48,2.0,,60.4,61.97,
2025-08-15T01:43:32.546Z,2,GR86-010-16,27.6,-0.983,0.405,2.49,2.0,,52.74,54.175,
2025-08-15T01:43:32.588Z,2,GR86-010-16,27.700000000000003,-0.922,0.425,2.48,2.0,6725.0,50.04,51.15,
2025-08-15T01:43:32.632Z,2,GR86-010-16,28.200000000000003,-1.054,0.436,2.49,2.0,,49.825,50.375,126.17
2025-08-15T01:43:32.674Z,2,GR86-010-16,31.700000000000003,-1.001,0.533,2.48,2.0,,52.02,52.145,
2025-08-15T01:43:32.718Z,2,GR86-010-16,35.800000000000004,-1.078,0.538,2.48,2.0,,56.4,56.34,
2025-08-15T01:43:32.762Z,2,GR86-010-16,38.6,-1.179,0.526,47.99,1.0,,72.06,71.705,
2025-08-15T01:43:32.804Z,2,GR86-010-16,42.0,-1.214,0.553,35.28,1.0,6478.0,83.73,83.275,
2025-08-15T01:43:32.847Z,2,GR86-010-16,45.1,-1.344,0.662,31.31,1.0,,90.735,91.97,118.12
2025-08-15T01:43:32.892Z,2,GR86-010-16,45.1,-1.201,0.745,7.55,1.0,,91.315,92.81,
2025-08-15T01:43:32.934Z,2,GR86-010-16,45.2,-1.135,0.63,4.3500000000000005,1.0,,90.17,90.355,
2025-08-15T01:43:32.977Z,2,GR86-010-16,47.5,-1.246,0.67,4.19,1.0,,90.965,92.155,
2025-08-15T01:43:33.020Z,2,GR86-010-16,50.0,-0.961,1.02,3.84,1.0,6107.0,87.625,88.765,
2025-08-15T01:43:33.063Z,2,GR86-010-16,51.5,-1.092,0.786,3.27,1.0,,79.14,79.9,112.16
2025-08-15T01:43:33.106Z,2,GR86-010-16,54.400000000000006,-0.947,0.992,2.99,1.0,,66.61,68.12,
2025-08-15T01:43:33.149Z,2,GR86-010-16,58.900000000000006,-0.761,0.859,2.83,1.0,,50.005,51.455,
2025-08-15T01:43:33.193Z,2,GR86-010-16,65.4,-0.661,0.835,2.72,1.0,,40.805,41.83,
2025-08-15T01:43:33.236Z,2,GR86-010-16,71.9,-0.812,1.045,2.67,1.0,6021.0,40.06,40.62,
2025-08-15T01:43:33.278Z,2,GR86-010-16,75.8,-0.812,0.875,2.64,1.0,,37.42,38.045,104.74
2025-08-15T01:43:33.322Z,2,GR86-010-16,81.7,-0.747,1.074,2.61,1.0,,36.84,37.235,
2025-08-15T01:43:33.364Z,2,GR86-010-16,83.2,-0.737,1.032,2.57,1.0,,35.555,36.15,
2025-08-15T01:43:33.407Z,2,GR86-010-16,83.30000000000001,-0.732,0.926,2.57,1.0,,28.095,29.3,
2025-08-15T01:43:33.450Z,2,GR86-010-16,83.30000000000001,-0.547,1.152,2.57,1.0,6513.0,18.055,18.8,
2025-08-15T01:43:33.494Z,2,GR86-010-16,82.4,-0.427,1.024,2.56,1.0,,10.085,10.745,89.97
2025-08-15T01:43:33.536Z,2,GR86-010-16,80.30000000000001,-0.23,1.184,2.57,1.0,,3.13,3.755,
2025-08-15T01:43:33.623Z,2,GR86-010-16,74.3,-0.203,1.118,2.89,1.0,,0.0,0.0,
2025-08-15T01:43:33.666Z,2,GR86-010-16,75.5,-0.206,1.121,2.95,1.0,6277.0,0.0,0.0,
2025-08-15T01:43:33.708Z,2,GR86-010-16,82.7,-0.217,1.166,3.15,1.0,,0.0,0.0,85.52
2025-08-15T01:43:33.752Z,2,GR86-010-16,88.10000000000001,-0.241,1.184,4.49,1.0,,0.0,0.0,
2025-08-15T01:43:33.794Z,2,GR86-010-16,90.4,-0.176,1.163,4.79,1.0,,0.0,0.0,
2025-08-15T01:43:33.837Z,2,GR86-010-16,91.8,-0.174,1.22,4.88,1.0,,0.0,0.0,
2025-08-15T01:43:33.880Z,2,GR86-010-16,92.9,-0.17,1.247,4.93,1.0,5855.0,0.0,0.0,
2025-08-15T01:43:33.923Z,2,GR86-010-16,93.0,-0.223,1.308,13.31,1.0,,0.0,0.0,83.03
2025-08-15T01:43:33.967Z,2,GR86-010-16,93.0,-0.243,1.317,17.85,1.0,,0.0,0.0,
2025-08-15T01:43:34.010Z,2,GR86-010-16,94.0,-0.212,1.179,20.77,1.0,,0.0,0.0,
2025-08-15T01:43:34.096Z,2,GR86-010-16,95.7,-0.201,1.439,21.07,1.0,5621.0,0.0,0.0,
2025-08-15T01:43:34.140Z,2,GR86-010-16,98.1,-0.184,1.469,20.68,1.0,,0.0,0.0,80.77
2025-08-15T01:43:34.183Z,2,GR86-010-16,99.4,-0.116,1.215,21.86,1.0,,0.0,0.0,
2025-08-15T01:43:34.226Z,2,GR86-010-16,99.5,0.093,1.251,24.65,1.0,,0.0,0.0,
2025-08-15T01:43:34.269Z,2,GR86-010-16,99.6,-0.136,1.082,28.52,1.0,,0.0,0.0,
2025-08-15T01:43:34.314Z,2,GR86-010-16,99.5,0.081,1.106,28.94,1.0,5705.0,0.0,0.0,
2025-08-15T01:43:34.356Z,2,GR86-010-16,96.7,-0.043,1.24,29.8,1.0,,0.0,0.0,79.71000000000001
2025-08-15T01:43:34.399Z,2,GR86-010-16,87.4,0.291,1.01,30.23,1.0,,0.0,0.0,
2025-08-15T01:43:34.444Z,2,GR86-010-16,77.60000000000001,0.157,1.003,31.38,1.0,,0.0,0.0,
2025-08-15T01:43:34.486Z,2,GR86-010-16,73.4,0.16,1.127,31.17,1.0,,0.0,0.0,
2025-08-15T01:43:34.529Z,2,GR86-010-16,59.7,0.133,1.275,30.75,1.0,5897.0,0.0,0.0,
2025-08-15T01:43:34.616Z,2,GR86-010-16,43.3,0.261,1.213,30.69,1.0,,0.0,0.0,78.22
2025-08-15T01:43:34.658Z,2,GR86-010-16,54.0,0.237,1.061,31.07,1.0,,0.0,0.0,
2025-08-15T01:43:34.703Z,2,GR86-010-16,72.60000000000001,0.175,1.062,31.14,1.0,,0.0,0.0,
2025-08-15T01:43:34.746Z,2,GR86-010-16,76.10000000000001,0.299,1.136,31.76,1.0,6193.0,0.0,0.0,
2025-08-15T01:43:34.789Z,2,GR86-010-16,77.2,0.244,1.013,31.93,1.0,,0.0,0.0,78.12
2025-08-15T01:43:34.833Z,2,GR86-010-16,79.5,0.148,1.188,31.98,1.0,,0.0,0.0,
2025-08-15T01:43:34.876Z,2,GR86-010-16,80.60000000000001,0.173,1.392,32.75,1.0,,0.0,0.0,
2025-08-15T01:43:34.919Z,2,GR86-010-16,80.7,0.203,1.354,33.78,1.0,,0.0,0.0,
2025-08-15T01:43:34.962Z,2,GR86-010-16,80.7,0.198,1.267,34.25,1.0,6215.0,0.0,0.0,
2025-08-15T01:43:35.004Z,2,GR86-010-16,80.7,0.201,1.258,35.9,1.0,,0.0,0.0,78.94
2025-08-15T01:43:35.047Z,2,GR86-010-16,75.8,0.268,1.118,38.31,1.0,,0.0,0.0,
2025-08-15T01:43:35.090Z,2,GR86-010-16,66.60000000000001,0.286,1.139,44.24,1.0,,0.0,0.0,
2025-08-15T01:43:35.134Z,2,GR86-010-16,56.8,0.272,1.182,62.05,1.0,,0.0,0.0,
2025-08-15T01:43:35.176Z,2,GR86-010-16,50.900000000000006,0.28,1.121,79.7,1.0,6137.0,0.0,0.0,
2025-08-15T01:43:35.219Z,2,GR86-010-16,48.900000000000006,0.269,1.062,90.45,1.0,,0.0,0.0,79.24
2025-08-15T01:43:35.263Z,2,GR86-010-16,42.7,0.353,1.064,99.85,1.0,,0.0,0.0,
2025-08-15T01:43:35.305Z,2,GR86-010-16,39.2,0.405,1.004,99.98,1.0,,0.0,0.0,
2025-08-15T01:43:35.349Z,2,GR86-010-16,38.400000000000006,0.397,1.019,100.02,1.0,,0.0,0.0,
2025-08-15T01:43:35.392Z,2,GR86-010-16,36.3,0.353,0.98,100.01,1.0,6190.0,0.0,0.0,
2025-08-15T01:43:35.434Z,2,GR86-010-16,35.5,0.343,1.018,100.01,1.0,,0.0,0.0,80.61
2025-08-15T01:43:35.477Z,2,GR86-010-16,35.9,0.352,0.977,100.02,1.0,,0.0,0.0,
2025-08-15T01:43:35.522Z,2,GR86-010-16,49.6,0.414,1.065,100.01,1.0,,0.0,0.0,
2025-08-15T01:43:35.566Z,2,GR86-010-16,57.400000000000006,0.447,1.033,100.01,1.0,,0.0,0.0,
2025-08-15T01:43:35.609Z,2,GR86-010-16,62.1,0.374,1.116,100.02,1.0,6396.0,0.0,0.0,
2025-08-15T01:43:35.653Z,2,GR86-010-16,63.400000000000006,0.308,1.105,100.02,1.0,,0.0,0.0,81.94
2025-08-15T01:43:35.696Z,2,GR86-010-16,64.10000000000001,0.307,1.191,100.02,1.0,,0.0,0.0,
2025-08-15T01:43:35.738Z,2,GR86-010-16,65.2,0.364,1.121,100.03,1.0,,0.0,0.0,
2025-08-15T01:43:35.784Z,2,GR86-010-16,65.60000000000001,0.411,1.143,100.02,1.0,,0.0,0.0,
2025-08-15T01:43:35.826Z,2,GR86-010-16,65.60000000000001,0.4,0.954,100.01,1.0,6568.0,0.0,0.0,
2025-08-15T01:43:35.869Z,2,GR86-010-16,64.60000000000001,0.357,0.995,100.01,1.0,,0.0,0.0,83.58
2025-08-15T01:43:35.913Z,2,GR86-010-16,57.8,0.309,0.961,100.01,1.0,,0.0,0.0,
2025-08-15T01:43:35.956Z,2,GR86-010-16,53.0,0.298,0.985,100.01,1.0,,0.0,0.0,
2025-08-15T01:43:35.998Z,2,GR86-010-16,47.1,0.36,0.772,100.02,1.0,,0.0,0.0,
2025-08-15T01:43:36.042Z,2,GR86-010-16,38.900000000000006,0.425,0.891,100.02,1.0,6618.0,0.0,0.0,
2025-08-15T01:43:36.084Z,2,GR86-010-16,31.0,0.361,0.593,100.04,1.0,,0.0,0.0,88.07000000000001
2025-08-15T01:43:36.127Z,2,GR86-010-16,23.0,0.201,0.5,100.03,1.0,,0.0,0.0,
2025-08-15T01:43:36.172Z,2,GR86-010-16,20.0,0.202,0.607,100.03,1.0,,0.0,0.0,
2025-08-15T01:43:36.214Z,2,GR86-010-16,19.700000000000003,0.306,0.732,100.05,1.0,,0.0,0.0,
2025-08-15T01:43:36.257Z,2,GR86-010-16,19.700000000000003,0.558,0.654,100.01,1.0,6688.0,0.0,0.0,
2025-08-15T01:43:36.300Z,2,GR86-010-16,19.6,0.5720000000000001,0.628,100.04,1.0,,0.0,0.0,90.23
2025-08-15T01:43:36.343Z,2,GR86-010-16,19.5,0.602,0.6940000000000001,100.01,1.0,,0.0,0.0,
2025-08-15T01:43:36.386Z,2,GR86-010-16,19.5,0.621,0.671,100.04,1.0,,0.0,0.0,
2025-08-15T01:43:36.429Z,2,GR86-010-16,19.1,0.344,0.6980000000000001,100.04,1.0,,0.0,0.0,
2025-08-15T01:43:36.473Z,2,GR86-010-16,17.3,-0.05,0.167,100.03,1.0,6938.0,0.0,0.0,
2025-08-15T01:43:36.516Z,2,GR86-010-16,13.8,-0.195,0.591,100.02,1.0,,0.0,0.0,92.33
2025-08-15T01:43:36.558Z,2,GR86-010-16,9.3,0.133,0.879,100.03,1.0,,0.0,0.0,
2025-08-15T01:43:36.602Z,2,GR86-010-16,-2.1,-0.335,0.8200000000000001,100.03,2.0,,0.0,0.0,
2025-08-15T01:43:36.644Z,2,GR86-010-16,-7.0,0.108,1.093,100.02,2.0,,0.0,0.0,
2025-08-15T01:43:36.687Z,2,GR86-010-16,-7.300000000000001,0.66,0.681,100.03,2.0,7220.0,0.0,0.0,
2025-08-15T01:43:36.732Z,2,GR86-010-16,3.2,0.602,0.741,100.04,2.0,,0.0,0.0,93.43
2025-08-15T01:43:36.774Z,2,GR86-010-16,14.8,0.652,0.67,100.05,2.0,,0.0,0.0,
2025-08-15T01:43:36.818Z,2,GR86-010-16,22.5,0.503,0.502,100.02,2.0,,0.0,0.0,
2025-08-15T01:43:36.860Z,2,GR86-010-16,26.4,0.365,0.187,100.02,2.0,,0.0,0.0,
2025-08-15T01:43:36.903Z,2,GR86-010-16,30.3,0.461,0.464,100.03,2.0,6604.0,0.0,0.0,
2025-08-15T01:43:36.946Z,2,GR86-010-16,30.6,0.331,0.291,100.04,2.0,,0.0,0.0,95.17
2025-08-15T01:43:36.989Z,2,GR86-010-16,30.700000000000003,0.078,0.317,100.03,2.0,,0.0,0.0,
2025-08-15T01:43:37.033Z,2,GR86-010-16,30.700000000000003,-0.077,0.222,100.04,2.0,,0.0,0.0,
2025-08-15T01:43:37.076Z,2,GR86-010-16,28.6,-0.107,0.319,100.04,2.0,,0.0,0.0,
2025-08-15T01:43:37.119Z,2,GR86-010-16,23.9,0.055,0.091,100.04,2.0,5656.0,0.0,0.0,
2025-08-15T01:43:37.164Z,2,GR86-010-16,16.5,0.274,0.411,100.01,2.0,,0.0,0.0,96.32
2025-08-15T01:43:37.206Z,2,GR86-010-16,11.1,-0.225,0.05,100.02,2.0,,0.0,0.0,
2025-08-15T01:43:37.249Z,2,GR86-010-16,8.9,-0.247,0.29,100.03,2.0,,0.0,0.0,
2025-08-15T01:43:37.294Z,2,GR86-010-16,8.8,0.321,0.331,100.05,2.0,,0.0,0.0,
2025-08-15T01:43:37.336Z,2,GR86-010-16,8.8,0.378,0.438,100.05,2.0,5897.0,0.0,0.0,
2025-08-15T01:43:37.379Z,2,GR86-010-16,8.8,0.297,0.462,100.05,2.0,,0.0,0.0,98.64
2025-08-15T01:43:37.423Z,2,GR86-010-16,9.6,0.239,0.212,100.04,2.0,,0.0,0.0,
2025-08-15T01:43:37.466Z,2,GR86-010-16,10.6,-0.009,0.095,100.05,2.0,,0.0,0.0,
2025-08-15T01:43:37.509Z,2,GR86-010-16,10.7,-0.067,0.044,100.04,2.0,,0.0,0.0,
2025-08-15T01:43:37.552Z,2,GR86-010-16,10.7,0.013,0.033,100.03,2.0,6250.0,0.0,0.0,
2025-08-15T01:43:37.596Z,2,GR86-010-16,8.8,0.362,0.106,100.03,2.0,,0.0,0.0,100.63
2025-08-15T01:43:37.638Z,2,GR86-010-16,6.6000000000000005,0.59,0.02,100.01,2.0,,0.0,0.0,
2025-08-15T01:43:37.683Z,2,GR86-010-16,5.5,0.152,0.087,100.03,2.0,,0.0,0.0,
2025-08-15T01:43:37.726Z,2,GR86-010-16,5.1000000000000005,0.093,0.09,100.03,2.0,,0.0,0.0,
2025-08-15T01:43:37.769Z,2,GR86-010-16,4.800000000000001,0.084,0.205,100.04,2.0,5944.0,0.0,0.0,
2025-08-15T01:43:37.813Z,2,GR86-010-16,4.2,0.088,0.16,100.03,2.0,,0.0,0.0,102.49
2025-08-15T01:43:37.856Z,2,GR86-010-16,3.3000000000000003,0.123,0.099,100.02,2.0,,0.0,0.0,
2025-08-15T01:43:37.898Z,2,GR86-010-16,2.4000000000000004,0.172,0.118,100.04,2.0,,0.0,0.0,
2025-08-15T01:43:37.942Z,2,GR86-010-16,1.1,0.282,-0.035,100.02,2.0,,0.0,0.0,
2025-08-15T01:43:37.984Z,2,GR86-010-16,0.1,0.255,0.017,100.03,2.0,6280.0,0.0,0.0,
2025-08-15T01:43:38.027Z,2,GR86-010-16,-0.6000000000000001,0.309,-0.062,100.04,2.0,,0.0,0.0,103.59
2025-08-15T01:43:38.072Z,2,GR86-010-16,-0.8,0.25,0.011,100.03,2.0,,0.0,0.0,
2025-08-15T01:43:38.114Z,2,GR86-010-16,-1.0,0.223,-0.082,100.03,2.0,,0.0,0.0,
2025-08-15T01:43:38.157Z,2,GR86-010-16,-1.0,0.209,0.017,100.01,2.0,,0.0,0.0,
2025-08-15T01:43:38.200Z,2,GR86-010-16,-1.0,0.24,0.001,100.04,2.0,6168.0,0.0,0.0,
2025-08-15T01:43:38.243Z,2,GR86-010-16,-1.0,0.358,-0.159,100.01,2.0,,0.0,0.0,106.07
2025-08-15T01:43:38.286Z,2,GR86-010-16,-1.0,0.383,-0.153,100.03,2.0,,0.0,0.0,
2025-08-15T01:43:38.329Z,2,GR86-010-16,-1.0,0.339,-0.132,100.03,2.0,,0.0,0.0,
2025-08-15T01:43:38.373Z,2,GR86-010-16,-1.0,0.367,-0.163,100.05,2.0,,0.0,0.0,
2025-08-15T01:43:38.416Z,2,GR86-010-16,-1.0,0.398,-0.123,100.03,2.0,6236.0,0.0,0.0,
2025-08-15T01:43:38.459Z,2,GR86-010-16,-1.0,0.386,-0.069,100.01,2.0,,0.0,0.0,107.53
2025-08-15T01:43:38.503Z,2,GR86-010-16,-1.0,0.21,-0.104,100.02,2.0,,0.0,0.0,
2025-08-15T01:43:38.546Z,2,GR86-010-16,-1.0,0.256,-0.052,100.02,2.0,,0.0,0.0,
2025-08-15T01:43:38.588Z,2,GR86-010-16,-1.0,0.277,-0.04,100.01,2.0,,0.0,0.0,
2025-08-15T01:43:38.632Z,2,GR86-010-16,-1.0,0.294,-0.043,100.03,2.0,6298.0,0.0,0.0,
2025-08-15T01:43:38.674Z,2,GR86-010-16,-1.0,0.305,-0.058,100.02,2.0,,0.0,0.0,109.31
2025-08-15T01:43:38.718Z,2,GR86-010-16,-1.0,0.265,-0.041,100.01,2.0,,0.0,0.0,
2025-08-15T01:43:38.760Z,2,GR86-010-16,-1.0,0.265,-0.07,100.03,2.0,,0.0,0.0,
2025-08-15T01:43:38.803Z,2,GR86-010-16,-1.0,0.303,-0.043,100.02,2.0,,0.0,0.0,
2025-08-15T01:43:38.846Z,2,GR86-010-16,-1.0,0.299,-0.016,100.03,2.0,6401.0,0.0,0.0,
2025-08-15T01:43:38.889Z,2,GR86-010-16,-1.0,0.291,-0.065,100.02,2.0,,0.0,0.0,112.54
2025-08-15T01:43:38.933Z,2,GR86-010-16,-1.0,0.282,-0.049,100.02,2.0,,0.0,0.0,
2025-08-15T01:43:38.976Z,2,GR86-010-16,-1.0,0.268,-0.066,100.01,2.0,,0.0,0.0,
2025-08-15T01:43:39.019Z,2,GR86-010-16,-1.0,0.271,-0.085,100.02,2.0,,0.0,0.0,
2025-08-15T01:43:39.063Z,2,GR86-010-16,-1.0,0.286,-0.081,100.01,2.0,6444.0,0.0,0.0,
2025-08-15T01:43:39.105Z,2,GR86-010-16,-1.0,0.296,-0.066,100.01,2.0,,0.0,0.0,114.06
2025-08-15T01:43:39.149Z,2,GR86-010-16,-1.0,0.279,-0.069,99.98,2.0,,0.0,0.0,
2025-08-15T01:43:39.192Z,2,GR86-010-16,-1.0,0.278,-0.077,100.01,2.0,,0.0,0.0,
2025-08-15T01:43:39.234Z,2,GR86-010-16,-1.0,0.283,-0.051,100.03,2.0,,0.0,0.0,
2025-08-15T01:43:39.277Z,2,GR86-010-16,-1.0,0.283,-0.072,100.0,2.0,6546.0,0.0,0.0,
2025-08-15T01:43:39.320Z,2,GR86-010-16,-1.0,0.289,-0.051,100.0,2.0,,0.0,0.0,115.62
2025-08-15T01:43:39.363Z,2,GR86-010-16,-1.0,0.29,-0.047,100.02,2.0,,0.0,0.0,
2025-08-15T01:43:39.406Z,2,GR86-010-16,-1.0,0.291,-0.039,99.99,2.0,,0.0,0.0,
2025-08-15T01:43:39.449Z,2,GR86-010-16,-1.0,0.272,-0.084,99.99,2.0,,0.0,0.0,
2025-08-15T01:43:39.493Z,2,GR86-010-16,-1.0,0.285,-0.064,100.0,2.0,6766.0,0.0,0.0,
2025-08-15T01:43:39.536Z,2,GR86-010-16,-1.0,0.287,-0.048,100.03,2.0,,0.0,0.0,117.16
2025-08-15T01:43:39.578Z,2,GR86-010-16,-1.0,0.276,-0.059,100.03,2.0,,0.0,0.0,
2025-08-15T01:43:39.622Z,2,GR86-010-16,-1.0,0.272,-0.061,99.99,2.0,,0.0,0.0,
2025-08-15T01:43:39.664Z,2,GR86-010-16,-1.0,0.28,-0.04,100.03,2.0,,0.0,0.0,
2025-08-15T01:43:39.707Z,2,GR86-010-16,-1.0,0.281,-0.052,100.03,2.0,6795.0,0.0,0.0,
2025-08-15T01:43:39.750Z,2,GR86-010-16,-1.1,0.274,-0.082,100.01,2.0,,0.0,0.0,118.59
2025-08-15T01:43:39.794Z,2,GR86-010-16,-1.1,0.294,-0.066,100.02,2.0,,0.0,0.0,
2025-08-15T01:43:39.879Z,2,GR86-010-16,-1.3,0.287,-0.085,100.03,2.0,,0.0,0.0,
2025-08-15T01:43:39.923Z,2,GR86-010-16,-2.6,0.256,-0.142,99.98,2.0,6870.0,0.0,0.0,
2025-08-15T01:43:39.966Z,2,GR86-010-16,-2.6,0.286,-0.118,99.98,2.0,,0.0,0.0,119.91
2025-08-15T01:43:40.009Z,2,GR86-010-16,-2.7,0.287,-0.124,100.03,2.0,,0.0,0.0,
2025-08-15T01:43:40.053Z,2,GR86-010-16,-3.0,0.257,-0.156,99.98,2.0,,0.0,0.0,
2025-08-15T01:43:40.096Z,2,GR86-010-16,-3.1,0.271,-0.155,100.0,2.0,,0.0,0.0,
2025-08-15T01:43:40.138Z,2,GR86-010-16,-3.3000000000000003,0.293,-0.159,100.02,2.0,6940.0,0.0,0.0,
2025-08-15T01:43:40.183Z,2,GR86-010-16,-3.7,0.286,-0.16,99.98,2.0,,0.0,0.0,121.18
2025-08-15T01:43:40.226Z,2,GR86-010-16,-3.9,0.253,-0.19,100.01,2.0,,0.0,0.0,
2025-08-15T01:43:40.269Z,2,GR86-010-16,-4.2,0.267,-0.179,99.99,2.0,,0.0,0.0,
2025-08-15T01:43:40.314Z,2,GR86-010-16,-4.3,0.295,-0.185,100.0,2.0,,0.0,0.0,
2025-08-15T01:43:40.356Z,2,GR86-010-16,-4.3,0.258,-0.215,100.02,2.0,7063.0,0.0,0.0,
2025-08-15T01:43:40.399Z,2,GR86-010-16,-4.3,0.26,-0.189,100.02,2.0,,0.0,0.0,122.4
2025-08-15T01:43:40.444Z,2,GR86-010-16,-4.3,0.257,-0.159,100.02,2.0,,0.0,0.0,
2025-08-15T01:43:40.486Z,2,GR86-010-16,-4.3,0.284,-0.147,100.03,2.0,,0.0,0.0,
2025-08-15T01:43:40.573Z,2,GR86-010-16,-4.3,0.245,-0.151,99.97,2.0,7089.0,0.0,0.0,
2025-08-15T01:43:40.616Z,2,GR86-010-16,-4.3,0.271,-0.119,100.02,2.0,,0.0,0.0,123.65
2025-08-15T01:43:40.658Z,2,GR86-010-16,-4.3,0.277,-0.114,100.02,2.0,,0.0,0.0,
2025-08-15T01:43:40.703Z,2,GR86-010-16,-4.3,0.276,-0.108,100.01,2.0,,0.0,0.0,
2025-08-15T01:43:40.746Z,2,GR86-010-16,-4.3,0.237,-0.118,100.02,2.0,,0.0,0.0,
2025-08-15T01:43:40.789Z,2,GR86-010-16,-4.3,0.029,-0.089,100.01,3.0,7152.0,0.0,0.0,
2025-08-15T01:43:40.833Z,2,GR86-010-16,-4.3,-0.032,-0.036,100.0,3.0,,0.0,0.0,124.85
2025-08-15T01:43:40.876Z,2,GR86-010-16,-3.3000000000000003,0.633,-0.118,100.01,3.0,,0.0,0.0,
2025-08-15T01:43:40.919Z,2,GR86-010-16,-2.3000000000000003,0.308,-0.13,100.01,3.0,,0.0,0.0,
2025-08-15T01:43:40.962Z,2,GR86-010-16,-1.3,0.394,0.02,100.01,3.0,,0.0,0.0,
2025-08-15T01:43:41.004Z,2,GR86-010-16,-0.9,0.268,-0.05,100.01,3.0,7214.0,0.0,0.0,
2025-08-15T01:43:41.047Z,2,GR86-010-16,-0.3,0.157,-0.018,100.02,3.0,,0.0,0.0,126.04
2025-08-15T01:43:41.090Z,2,GR86-010-16,0.6000000000000001,0.127,0.039,100.01,3.0,,0.0,0.0,
2025-08-15T01:43:41.134Z,2,GR86-010-16,2.3000000000000003,0.245,0.01,100.02,3.0,,0.0,0.0,
2025-08-15T01:43:41.176Z,2,GR86-010-16,3.6,0.316,0.064,100.01,3.0,,0.0,0.0,
2025-08-15T01:43:41.219Z,2,GR86-010-16,3.6,0.24,0.074,100.01,3.0,6544.0,0.0,0.0,
2025-08-15T01:43:41.263Z,2,GR86-010-16,3.6,0.188,0.079,100.01,3.0,,0.0,0.0,127.0
2025-08-15T01:43:41.305Z,2,GR86-010-16,3.6,0.204,0.109,100.01,3.0,,0.0,0.0,
2025-08-15T01:43:41.392Z,2,GR86-010-16,3.6,0.262,0.106,100.01,3.0,,0.0,0.0,
2025-08-15T01:43:41.434Z,2,GR86-010-16,3.6,0.2,0.082,100.01,3.0,5969.0,0.0,0.0,
2025-08-15T01:43:41.477Z,2,GR86-010-16,3.6,0.21,0.1,100.01,3.0,,0.0,0.0,128.03
2025-08-15T01:43:41.520Z,2,GR86-010-16,3.6,0.241,0.089,100.02,3.0,,0.0,0.0,
2025-08-15T01:43:41.563Z,2,GR86-010-16,4.9,0.238,0.111,100.02,3.0,,0.0,0.0,
2025-08-15T01:43:41.606Z,2,GR86-010-16,5.5,0.245,0.092,100.01,3.0,,0.0,0.0,
2025-08-15T01:43:41.649Z,2,GR86-010-16,5.9,0.213,0.138,100.02,3.0,6030.0,0.0,0.0,
2025-08-15T01:43:41.693Z,2,GR86-010-16,5.9,0.2,0.166,100.02,3.0,,0.0,0.0,129.98
2025-08-15T01:43:41.736Z,2,GR86-010-16,5.9,0.234,0.16,93.28,3.0,,3.37,3.465,
2025-08-15T01:43:41.779Z,2,GR86-010-16,5.9,0.189,0.146,25.72,3.0,,11.675,11.645,
2025-08-15T01:43:41.822Z,2,GR86-010-16,5.9,-0.115,0.135,3.5,3.0,,26.4,25.99,
2025-08-15T01:43:41.866Z,2,GR86-010-16,5.9,-0.524,0.172,3.08,3.0,6041.0,36.18,35.74,
2025-08-15T01:43:41.908Z,2,GR86-010-16,5.9,-0.784,0.198,8.67,3.0,,41.11,40.59,130.88
2025-08-15T01:43:41.953Z,2,GR86-010-16,5.9,-0.808,0.121,53.97,3.0,,42.15,42.025,
2025-08-15T01:43:41.996Z,2,GR86-010-16,5.9,-0.8220000000000001,0.133,97.36,3.0,,42.24,42.15,
2025-08-15T01:43:42.038Z,2,GR86-010-16,5.9,-0.835,0.207,96.88,2.0,,39.37,39.995,
2025-08-15T01:43:42.084Z,2,GR86-010-16,5.800000000000001,-0.786,0.075,6.05,2.0,5775.0,31.62,32.93,
2025-08-15T01:43:42.126Z,2,GR86-010-16,4.6000000000000005,-0.6900000000000001,0.256,3.12,2.0,,32.045,33.160000000000004,130.86
2025-08-15T01:43:42.169Z,2,GR86-010-16,2.7,-0.789,0.26,2.71,2.0,,29.65,30.155,
2025-08-15T01:43:42.213Z,2,GR86-010-16,1.9,-0.862,0.127,2.63,2.0,,23.93,24.555,
2025-08-15T01:43:42.256Z,2,GR86-010-16,1.9,-0.49,0.456,2.61,2.0,,22.845,23.685,
2025-08-15T01:43:42.298Z,2,GR86-010-16,5.9,-0.671,0.339,2.6,2.0,6019.0,22.705,22.875,
2025-08-15T01:43:42.342Z,2,GR86-010-16,13.4,-0.642,0.62,2.57,2.0,,20.175,21.0,126.84
2025-08-15T01:43:42.385Z,2,GR86-010-16,15.4,-0.525,0.58,2.57,2.0,,15.275,15.93,
2025-08-15T01:43:42.428Z,2,GR86-010-16,18.1,-0.517,0.532,2.5500000000000003,2.0,,14.025,14.42,
2025-08-15T01:43:42.472Z,2,GR86-010-16,20.1,-0.53,0.65,2.56,2.0,,14.68,14.85,
2025-08-15T01:43:42.514Z,2,GR86-010-16,21.9,-0.439,0.549,2.5500000000000003,2.0,6315.0,15.06,15.245,
2025-08-15T01:43:42.557Z,2,GR86-010-16,24.700000000000003,-0.47,0.512,2.54,2.0,,15.365,15.595,121.77
2025-08-15T01:43:42.600Z,2,GR86-010-16,27.9,-0.476,0.578,2.54,2.0,,16.025,16.085,
2025-08-15T01:43:42.643Z,2,GR86-010-16,32.9,-0.475,0.5720000000000001,2.52,2.0,,16.830000000000002,17.0,
2025-08-15T01:43:42.686Z,2,GR86-010-16,36.4,-0.526,0.5730000000000001,2.53,2.0,,21.44,21.24,
2025-08-15T01:43:42.729Z,2,GR86-010-16,36.9,-0.626,0.598,2.52,2.0,6458.0,26.935,26.69,
2025-08-15T01:43:42.773Z,2,GR86-010-16,36.9,-0.615,0.676,2.51,2.0,,30.275,29.985,117.69
2025-08-15T01:43:42.816Z,2,GR86-010-16,36.9,-0.6880000000000001,0.618,2.51,2.0,,31.175,31.145,
2025-08-15T01:43:42.859Z,2,GR86-010-16,36.9,-0.628,0.7000000000000001,2.51,2.0,,28.37,29.24,
2025-08-15T01:43:42.903Z,2,GR86-010-16,36.9,-0.507,0.756,2.51,2.0,,22.875,23.62,
2025-08-15T01:43:42.946Z,2,GR86-010-16,37.0,-0.49,0.84,2.51,2.0,6183.0,21.655,22.555,
2025-08-15T01:43:42.989Z,2,GR86-010-16,36.9,-0.482,0.874,2.52,2.0,,16.345,17.185,113.49
2025-08-15T01:43:43.033Z,2,GR86-010-16,37.0,-0.375,0.859,2.51,2.0,,7.295,8.21,
2025-08-15T01:43:43.076Z,2,GR86-010-16,41.8,-0.291,0.994,2.51,2.0,,0.0,1.86,
2025-08-15T01:43:43.119Z,2,GR86-010-16,50.2,-0.21,1.003,2.51,2.0,,0.0,0.0,
2025-08-15T01:43:43.164Z,2,GR86-010-16,55.6,-0.143,1.077,2.51,2.0,5800.0,0.0,0.0,
2025-08-15T01:43:43.206Z,2,GR86-010-16,55.6,-0.15,1.049,2.51,2.0,,0.0,0.0,109.37
2025-08-15T01:43:43.249Z,2,GR86-010-16,55.6,-0.152,1.086,2.6,2.0,,0.0,0.0,
2025-08-15T01:43:43.294Z,2,GR86-010-16,55.6,-0.177,1.063,2.73,2.0,,0.0,0.0,
2025-08-15T01:43:43.336Z,2,GR86-010-16,55.6,-0.133,1.057,3.0,2.0,,0.0,0.0,
2025-08-15T01:43:43.380Z,2,GR86-010-16,55.6,-0.142,1.169,9.54,2.0,5525.0,0.0,0.0,
2025-08-15T01:43:43.423Z,2,GR86-010-16,55.0,-0.163,1.212,17.22,2.0,,0.0,0.0,105.71
