timestamp,lap,vehicle_id,steering_angle,accx_can,accy_can,ath,gear,nmot,pbrake_f,pbrake_r,speed
2025-08-15T00:34:21.457Z,14,GR86-013-80,1.4,0.151,-0.02,99.75,4.0,,0.0,0.0,181.78
2025-08-15T00:34:21.501Z,14,GR86-013-80,1.3,0.136,-0.03,99.75,4.0,,0.0,0.0,
2025-08-15T00:34:21.544Z,14,GR86-013-80,1.3,0.134,-0.045,99.75,4.0,,0.0,0.0,
2025-08-15T00:34:21.587Z,14,GR86-013-80,1.1,0.151,-0.045,99.74,4.0,,0.0,0.0,
2025-08-15T00:34:21.631Z,14,GR86-013-80,0.9,0.09,-0.023,99.76,4.0,7159.0,0.0,0.0,
2025-08-15T00:34:21.674Z,14,GR86-013-80,0.2,0.08,-0.035,99.74,4.0,,0.0,0.0,182.43
2025-08-15T00:34:21.717Z,14,GR86-013-80,-0.5,0.082,-0.037,99.74,4.0,,0.0,0.0,
2025-08-15T00:34:21.760Z,14,GR86-013-80,-0.8,0.08,-0.065,99.75,4.0,,0.0,0.0,
2025-08-15T00:34:21.803Z,14,GR86-013-80,-0.7000000000000001,0.094,-0.044,99.78,4.0,,0.0,0.0,
2025-08-15T00:34:21.847Z,14,GR86-013-80,-0.6000000000000001,0.094,-0.053,99.76,4.0,7178.0,0.0,0.0,
2025-08-15T00:34:21.891Z,14,GR86-013-80,-0.3,0.134,-0.089,99.75,4.0,,0.0,0.0,183.22
2025-08-15T00:34:21.934Z,14,GR86-013-80,-0.1,0.135,-0.097,99.74,4.0,,0.0,0.0,
2025-08-15T00:34:21.977Z,14,GR86-013-80,0.2,0.128,-0.085,99.74,4.0,,0.0,0.0,
2025-08-15T00:34:22.021Z,14,GR86-013-80,0.4,0.135,-0.093,99.74,4.0,,0.0,0.0,
2025-08-15T00:34:22.064Z,14,GR86-013-80,0.4,0.127,-0.076,99.75,4.0,7208.0,0.0,0.0,
2025-08-15T00:34:22.107Z,14,GR86-013-80,0.6000000000000001,0.12,-0.07,99.74,4.0,,0.0,0.0,183.88
2025-08-15T00:34:22.151Z,14,GR86-013-80,1.4,0.025,-0.026,99.73,4.0,,0.0,0.0,
2025-08-15T00:34:22.194Z,14,GR86-013-80,1.5,-0.137,0.033,99.74,5.0,,0.0,0.0,
2025-08-15T00:34:22.237Z,14,GR86-013-80,1.5,0.206,0.015,99.77,5.0,,0.0,0.0,
2025-08-15T00:34:22.281Z,14,GR86-013-80,1.9,0.316,-0.034,99.76,5.0,7244.0,0.0,0.0,
2025-08-15T00:34:22.324Z,14,GR86-013-80,1.8,0.107,0.031,99.75,5.0,,0.0,0.0,184.62
2025-08-15T00:34:22.367Z,14,GR86-013-80,1.7000000000000002,-0.003,0.036,99.75,5.0,,0.0,0.0,
2025-08-15T00:34:22.410Z,14,GR86-013-80,1.7000000000000002,0.107,0.012,99.75,5.0,,0.0,0.0,
2025-08-15T00:34:22.454Z,14,GR86-013-80,1.6,0.14,0.045,99.74,5.0,,0.0,0.0,
2025-08-15T00:34:22.497Z,14,GR86-013-80,1.6,0.048,-0.004,99.74,5.0,6276.0,0.0,0.0,
2025-08-15T00:34:22.541Z,14,GR86-013-80,1.5,0.051,0.036,99.74,5.0,,0.0,0.0,185.95
2025-08-15T00:34:22.584Z,14,GR86-013-80,1.5,0.072,0.028,99.74,5.0,,0.0,0.0,
2025-08-15T00:34:22.627Z,14,GR86-013-80,1.5,0.082,0.02,99.77,5.0,,0.0,0.0,
2025-08-15T00:34:22.670Z,14,GR86-013-80,1.3,0.111,0.007,99.76,5.0,,0.0,0.0,
2025-08-15T00:34:22.757Z,14,GR86-013-80,1.0,0.117,-0.001,99.74,5.0,6278.0,0.0,0.0,186.62
2025-08-15T00:34:22.800Z,14,GR86-013-80,1.0,0.118,-0.025,99.74,5.0,,0.0,0.0,
2025-08-15T00:34:22.843Z,14,GR86-013-80,1.0,0.102,-0.046,99.75,5.0,,0.0,0.0,
2025-08-15T00:34:22.886Z,14,GR86-013-80,1.0,0.095,-0.038,99.74,5.0,,0.0,0.0,
2025-08-15T00:34:22.931Z,14,GR86-013-80,0.9,0.084,-0.028,99.74,5.0,6361.0,0.0,0.0,
2025-08-15T00:34:22.974Z,14,GR86-013-80,1.1,0.096,-0.04,99.75,5.0,,0.0,0.0,187.24
2025-08-15T00:34:23.017Z,14,GR86-013-80,1.9,0.107,-0.022,99.76,5.0,,0.0,0.0,
2025-08-15T00:34:23.060Z,14,GR86-013-80,2.7,0.107,0.006,99.73,5.0,,0.0,0.0,
2025-08-15T00:34:23.103Z,14,GR86-013-80,3.3000000000000003,0.102,0.008,99.75,5.0,,0.0,0.0,
2025-08-15T00:34:23.147Z,14,GR86-013-80,3.4000000000000004,0.123,0.011,99.74,5.0,6382.0,0.0,0.0,
2025-08-15T00:34:23.191Z,14,GR86-013-80,2.9000000000000004,0.058,0.034,99.75,5.0,,0.0,0.0,187.85
2025-08-15T00:34:23.234Z,14,GR86-013-80,2.6,0.077,0.039,99.74,5.0,,0.0,0.0,
2025-08-15T00:34:23.277Z,14,GR86-013-80,2.6,0.06,0.045,99.75,5.0,,0.0,0.0,
2025-08-15T00:34:23.321Z,14,GR86-013-80,2.6,0.084,0.053,99.75,5.0,,0.0,0.0,
2025-08-15T00:34:23.364Z,14,GR86-013-80,2.5,0.068,0.046,99.74,5.0,6402.0,0.0,0.0,
2025-08-15T00:34:23.407Z,14,GR86-013-80,2.5,0.08,0.061,99.76,5.0,,0.0,0.0,188.48
2025-08-15T00:34:23.451Z,14,GR86-013-80,2.4000000000000004,0.107,0.035,99.74,5.0,,0.0,0.0,
2025-08-15T00:34:23.494Z,14,GR86-013-80,2.2,0.1,0.032,99.73,5.0,,0.0,0.0,
2025-08-15T00:34:23.537Z,14,GR86-013-80,2.2,0.087,0.029,99.75,5.0,,0.0,0.0,
2025-08-15T00:34:23.581Z,14,GR86-013-80,2.1,0.079,0.007,99.74,5.0,6424.0,0.0,0.0,
2025-08-15T00:34:23.624Z,14,GR86-013-80,2.1,0.075,0.013,99.73,5.0,,0.0,0.0,189.04
2025-08-15T00:34:23.667Z,14,GR86-013-80,2.1,0.064,0.031,99.74,5.0,,0.0,0.0,
2025-08-15T00:34:23.710Z,14,GR86-013-80,2.2,0.125,0.038,99.73,5.0,,0.0,0.0,
2025-08-15T00:34:23.753Z,14,GR86-013-80,2.2,0.11,0.039,99.73,5.0,,0.0,0.0,
2025-08-15T00:34:23.796Z,14,GR86-013-80,2.3000000000000003,0.116,0.04,99.74,5.0,6452.0,0.0,0.0,
2025-08-15T00:34:23.839Z,14,GR86-013-80,2.3000000000000003,0.107,0.032,99.75,5.0,,0.0,0.0,189.64
2025-08-15T00:34:23.884Z,14,GR86-013-80,2.4000000000000004,0.099,0.033,99.75,5.0,,0.0,0.0,
2025-08-15T00:34:23.927Z,14,GR86-013-80,2.3000000000000003,0.083,0.03,99.74,5.0,,0.0,0.0,
2025-08-15T00:34:23.970Z,14,GR86-013-80,2.2,0.091,0.033,99.75,5.0,,0.0,0.0,
2025-08-15T00:34:24.014Z,14,GR86-013-80,1.8,0.112,0.042,99.74,5.0,6469.0,0.0,0.0,
2025-08-15T00:34:24.057Z,14,GR86-013-80,1.5,0.101,0.029,99.75,5.0,,0.0,0.0,190.33
2025-08-15T00:34:24.100Z,14,GR86-013-80,1.0,0.115,0.026,99.74,5.0,,0.0,0.0,
2025-08-15T00:34:24.143Z,14,GR86-013-80,1.0,0.121,0.023,99.75,5.0,,0.0,0.0,
2025-08-15T00:34:24.187Z,14,GR86-013-80,1.0,0.115,0.015,99.74,5.0,,0.0,0.0,
2025-08-15T00:34:24.231Z,14,GR86-013-80,1.0,0.091,-0.01,99.76,5.0,6483.0,0.0,0.0,
2025-08-15T00:34:24.274Z,14,GR86-013-80,1.1,0.087,-0.011,99.73,5.0,,0.0,0.0,191.02
2025-08-15T00:34:24.317Z,14,GR86-013-80,1.2000000000000002,0.098,-0.021,99.76,5.0,,0.0,0.0,
2025-08-15T00:34:24.403Z,14,GR86-013-80,1.4,0.097,-0.014,99.77,5.0,,0.0,0.0,
2025-08-15T00:34:24.446Z,14,GR86-013-80,1.4,0.095,-0.022,99.74,5.0,6509.0,0.0,0.0,
2025-08-15T00:34:24.491Z,14,GR86-013-80,1.6,0.072,-0.01,99.74,5.0,,0.0,0.0,191.6
2025-08-15T00:34:24.534Z,14,GR86-013-80,1.7000000000000002,0.074,-0.01,99.78,5.0,,0.0,0.0,
2025-08-15T00:34:24.577Z,14,GR86-013-80,1.7000000000000002,0.076,-0.015,99.76,5.0,,0.0,0.0,
2025-08-15T00:34:24.620Z,14,GR86-013-80,1.7000000000000002,0.097,-0.01,99.73,5.0,,0.0,0.0,
2025-08-15T00:34:24.664Z,14,GR86-013-80,1.7000000000000002,0.099,0.004,99.75,5.0,6527.0,0.0,0.0,
2025-08-15T00:34:24.707Z,14,GR86-013-80,1.7000000000000002,0.095,0.009,99.75,5.0,,0.0,0.0,192.27
2025-08-15T00:34:24.751Z,14,GR86-013-80,1.4,0.064,-0.013,99.74,5.0,,0.0,0.0,
2025-08-15T00:34:24.794Z,14,GR86-013-80,1.2000000000000002,0.059,0.002,99.75,5.0,,0.0,0.0,
2025-08-15T00:34:24.837Z,14,GR86-013-80,1.1,0.075,-0.002,99.73,5.0,,0.0,0.0,
2025-08-15T00:34:24.881Z,14,GR86-013-80,1.2000000000000002,0.054,-0.017,99.75,5.0,6546.0,0.0,0.0,
2025-08-15T00:34:24.924Z,14,GR86-013-80,1.2000000000000002,0.088,-0.025,99.75,5.0,,0.0,0.0,192.87
2025-08-15T00:34:24.967Z,14,GR86-013-80,1.2000000000000002,0.073,-0.028,99.76,5.0,,0.0,0.0,
2025-08-15T00:34:25.010Z,14,GR86-013-80,1.2000000000000002,0.059,-0.026,99.74,5.0,,0.0,0.0,
2025-08-15T00:34:25.054Z,14,GR86-013-80,1.3,0.059,-0.031,99.75,5.0,,0.0,0.0,
2025-08-15T00:34:25.097Z,14,GR86-013-80,1.4,0.067,-0.021,99.76,5.0,6575.0,0.0,0.0,
2025-08-15T00:34:25.140Z,14,GR86-013-80,1.4,0.055,-0.031,99.74,5.0,,0.0,0.0,194.02
2025-08-15T00:34:25.183Z,14,GR86-013-80,1.5,0.067,-0.033,99.75,5.0,,0.0,0.0,
2025-08-15T00:34:25.226Z,14,GR86-013-80,1.5,0.067,-0.041,99.74,5.0,,0.0,0.0,
2025-08-15T00:34:25.271Z,14,GR86-013-80,1.4,0.066,-0.027,99.73,5.0,,0.0,0.0,
2025-08-15T00:34:25.314Z,14,GR86-013-80,1.4,0.065,-0.004,99.74,5.0,6592.0,0.0,0.0,
2025-08-15T00:34:25.357Z,14,GR86-013-80,1.3,0.057,-0.003,99.76,5.0,,0.0,0.0,194.71
2025-08-15T00:34:25.401Z,14,GR86-013-80,1.3,0.077,-0.01,99.75,5.0,,0.0,0.0,
2025-08-15T00:34:25.444Z,14,GR86-013-80,1.0,0.066,-0.018,99.74,5.0,,0.0,0.0,
2025-08-15T00:34:25.487Z,14,GR86-013-80,0.8,0.086,-0.021,99.74,5.0,,0.0,0.0,
2025-08-15T00:34:25.531Z,14,GR86-013-80,0.7000000000000001,0.068,-0.012,99.74,5.0,6629.0,0.0,0.0,
2025-08-15T00:34:25.574Z,14,GR86-013-80,0.5,0.058,-0.064,99.75,5.0,,0.0,0.0,195.27
2025-08-15T00:34:25.617Z,14,GR86-013-80,0.5,0.066,-0.069,99.74,5.0,,0.0,0.0,
2025-08-15T00:34:25.660Z,14,GR86-013-80,0.5,0.051,-0.06,99.74,5.0,,0.0,0.0,
2025-08-15T00:34:25.703Z,14,GR86-013-80,0.5,0.056,-0.059,99.74,5.0,,0.0,0.0,
2025-08-15T00:34:25.746Z,14,GR86-013-80,0.7000000000000001,0.094,-0.041,99.75,5.0,6649.0,0.0,0.0,
2025-08-15T00:34:25.791Z,14,GR86-013-80,1.4,0.084,-0.037,99.73,5.0,,0.0,0.0,195.9
2025-08-15T00:34:25.834Z,14,GR86-013-80,1.4,0.064,-0.027,99.74,5.0,,0.0,0.0,
2025-08-15T00:34:25.877Z,14,GR86-013-80,1.3,0.069,-0.04,99.74,5.0,,0.0,0.0,
2025-08-15T00:34:25.921Z,14,GR86-013-80,1.1,0.078,-0.038,99.75,5.0,,0.0,0.0,
2025-08-15T00:34:25.964Z,14,GR86-013-80,1.0,0.071,-0.063,99.74,5.0,6673.0,0.0,0.0,
2025-08-15T00:34:26.007Z,14,GR86-013-80,0.8,0.085,-0.036,99.75,5.0,,0.0,0.0,196.46
2025-08-15T00:34:26.051Z,14,GR86-013-80,0.7000000000000001,0.078,-0.031,99.74,5.0,,0.0,0.0,
2025-08-15T00:34:26.094Z,14,GR86-013-80,0.8,0.042,0.007,99.74,5.0,,0.0,0.0,
2025-08-15T00:34:26.137Z,14,GR86-013-80,0.9,0.079,-0.031,99.73,5.0,,0.0,0.0,
2025-08-15T00:34:26.180Z,14,GR86-013-80,0.9,0.056,-0.03,99.75,5.0,6696.0,0.0,0.0,
2025-08-15T00:34:26.223Z,14,GR86-013-80,0.9,0.067,-0.05,99.74,5.0,,0.0,0.0,197.08
2025-08-15T00:34:26.266Z,14,GR86-013-80,0.9,0.07,-0.046,99.75,5.0,,0.0,0.0,
2025-08-15T00:34:26.309Z,14,GR86-013-80,0.9,0.059,-0.05,99.74,5.0,,0.0,0.0,
2025-08-15T00:34:26.352Z,14,GR86-013-80,0.9,0.078,-0.053,99.74,5.0,,0.0,0.0,
2025-08-15T00:34:26.395Z,14,GR86-013-80,0.9,0.066,-0.064,99.74,5.0,6708.0,0.0,0.0,
2025-08-15T00:34:26.438Z,14,GR86-013-80,0.9,0.076,-0.056,99.74,5.0,,0.0,0.0,197.66
2025-08-15T00:34:26.481Z,14,GR86-013-80,0.9,0.075,-0.036,99.73,5.0,,0.0,0.0,
2025-08-15T00:34:26.567Z,14,GR86-013-80,1.1,0.063,0.008,99.74,5.0,,0.0,0.0,
2025-08-15T00:34:26.610Z,14,GR86-013-80,1.4,0.079,-0.029,99.74,5.0,6730.0,0.0,0.0,
2025-08-15T00:34:26.654Z,14,GR86-013-80,1.6,0.077,-0.017,99.75,5.0,,0.0,0.0,198.22
2025-08-15T00:34:26.697Z,14,GR86-013-80,1.7000000000000002,0.071,-0.014,99.76,5.0,,0.0,0.0,
2025-08-15T00:34:26.741Z,14,GR86-013-80,1.6,0.086,0.011,99.74,5.0,,0.0,0.0,
2025-08-15T00:34:26.784Z,14,GR86-013-80,1.5,0.069,0.001,99.75,5.0,,0.0,0.0,
2025-08-15T00:34:26.827Z,14,GR86-013-80,1.4,0.064,0.022,99.74,5.0,6745.0,0.0,0.0,
2025-08-15T00:34:26.870Z,14,GR86-013-80,1.3,0.071,-0.004,99.73,5.0,,0.0,0.0,198.77
2025-08-15T00:34:26.913Z,14,GR86-013-80,1.1,0.079,0.009,99.75,5.0,,0.0,0.0,
2025-08-15T00:34:26.956Z,14,GR86-013-80,0.9,0.074,0.008,99.74,5.0,,0.0,0.0,
2025-08-15T00:34:26.999Z,14,GR86-013-80,0.9,0.066,0.009,99.74,5.0,,0.0,0.0,
2025-08-15T00:34:27.043Z,14,GR86-013-80,0.9,0.059,0.005,99.74,5.0,6766.0,0.0,0.0,
2025-08-15T00:34:27.087Z,14,GR86-013-80,0.9,0.056,0.005,99.74,5.0,,0.0,0.0,199.31
2025-08-15T00:34:27.131Z,14,GR86-013-80,1.0,0.08,-0.045,99.75,5.0,,0.0,0.0,
2025-08-15T00:34:27.174Z,14,GR86-013-80,1.1,0.057,-0.025,99.74,5.0,,0.0,0.0,
2025-08-15T00:34:27.217Z,14,GR86-013-80,1.1,0.072,-0.045,99.75,5.0,,0.0,0.0,
2025-08-15T00:34:27.260Z,14,GR86-013-80,1.1,0.049,-0.035,99.74,5.0,6778.0,0.0,0.0,
2025-08-15T00:34:27.303Z,14,GR86-013-80,0.9,0.08,-0.033,99.75,5.0,,0.0,0.0,199.81
2025-08-15T00:34:27.347Z,14,GR86-013-80,0.7000000000000001,0.046,-0.001,99.73,5.0,,0.0,0.0,
2025-08-15T00:34:27.391Z,14,GR86-013-80,0.7000000000000001,0.058,-0.04,99.75,5.0,,0.0,0.0,
2025-08-15T00:34:27.434Z,14,GR86-013-80,0.7000000000000001,0.062,-0.02,99.74,5.0,,0.0,0.0,
2025-08-15T00:34:27.477Z,14,GR86-013-80,0.9,0.045,-0.051,99.74,5.0,6798.0,0.0,0.0,
2025-08-15T00:34:27.521Z,14,GR86-013-80,0.9,0.076,-0.026,99.74,5.0,,0.0,0.0,200.44
2025-08-15T00:34:27.564Z,14,GR86-013-80,0.9,0.034,-0.046,99.72,5.0,,0.0,0.0,
2025-08-15T00:34:27.607Z,14,GR86-013-80,1.0,0.095,-0.05,99.74,5.0,,0.0,0.0,
2025-08-15T00:34:27.651Z,14,GR86-013-80,1.0,0.063,-0.038,99.74,5.0,,0.0,0.0,
2025-08-15T00:34:27.694Z,14,GR86-013-80,0.9,0.043,-0.033,99.72,5.0,6807.0,0.0,0.0,
2025-08-15T00:34:27.737Z,14,GR86-013-80,0.6000000000000001,0.071,-0.051,99.74,5.0,,0.0,0.0,201.28
2025-08-15T00:34:27.780Z,14,GR86-013-80,0.6000000000000001,0.07,-0.008,99.74,5.0,,0.0,0.0,
2025-08-15T00:34:27.823Z,14,GR86-013-80,0.7000000000000001,0.079,-0.024,99.74,5.0,,0.0,0.0,
2025-08-15T00:34:27.866Z,14,GR86-013-80,1.0,0.054,-0.009,99.74,5.0,,0.0,0.0,
2025-08-15T00:34:27.909Z,14,GR86-013-80,1.3,0.089,-0.01,99.73,5.0,6822.0,0.0,0.0,
2025-08-15T00:34:27.997Z,14,GR86-013-80,1.2000000000000002,0.074,-0.034,99.73,5.0,,0.0,0.0,201.62
2025-08-15T00:34:28.040Z,14,GR86-013-80,1.2000000000000002,0.083,-0.019,99.74,5.0,,0.0,0.0,
2025-08-15T00:34:28.083Z,14,GR86-013-80,1.2000000000000002,0.041,-0.048,99.75,5.0,,0.0,0.0,
2025-08-15T00:34:28.127Z,14,GR86-013-80,1.2000000000000002,0.065,0.006,99.73,5.0,6853.0,0.0,0.0,
2025-08-15T00:34:28.170Z,14,GR86-013-80,1.5,0.08,0.025,99.75,5.0,,0.0,0.0,202.06
2025-08-15T00:34:28.214Z,14,GR86-013-80,2.0,0.064,0.036,99.76,5.0,,0.0,0.0,
2025-08-15T00:34:28.257Z,14,GR86-013-80,2.1,0.077,0.014,99.75,5.0,,0.0,0.0,
2025-08-15T00:34:28.300Z,14,GR86-013-80,2.0,0.044,0.016,99.74,5.0,,0.0,0.0,
2025-08-15T00:34:28.343Z,14,GR86-013-80,1.5,0.043,0.023,99.73,5.0,6873.0,0.0,0.0,
2025-08-15T00:34:28.387Z,14,GR86-013-80,1.1,0.042,0.028,99.74,5.0,,0.0,0.0,202.62
2025-08-15T00:34:28.431Z,14,GR86-013-80,0.9,0.062,0.024,99.73,5.0,,0.0,0.0,
2025-08-15T00:34:28.474Z,14,GR86-013-80,0.6000000000000001,0.053,0.017,99.74,5.0,,0.0,0.0,
2025-08-15T00:34:28.517Z,14,GR86-013-80,0.3,0.042,0.006,99.75,5.0,,0.0,0.0,
2025-08-15T00:34:28.560Z,14,GR86-013-80,0.0,0.05,-0.025,99.75,5.0,6888.0,0.0,0.0,
2025-08-15T00:34:28.603Z,14,GR86-013-80,-0.1,0.057,-0.016,99.74,5.0,,0.0,0.0,202.93
2025-08-15T00:34:28.647Z,14,GR86-013-80,-0.1,0.084,-0.041,99.74,5.0,,0.0,0.0,
2025-08-15T00:34:28.691Z,14,GR86-013-80,0.1,0.056,-0.064,99.75,5.0,,0.0,0.0,
2025-08-15T00:34:28.734Z,14,GR86-013-80,0.2,0.057,-0.052,99.73,5.0,,0.0,0.0,
2025-08-15T00:34:28.777Z,14,GR86-013-80,0.2,0.081,-0.051,99.75,5.0,6900.0,0.0,0.0,
2025-08-15T00:34:28.821Z,14,GR86-013-80,0.5,0.083,-0.022,99.75,5.0,,0.0,0.0,203.41
2025-08-15T00:34:28.864Z,14,GR86-013-80,0.9,0.095,-0.034,99.74,5.0,,0.0,0.0,
2025-08-15T00:34:28.907Z,14,GR86-013-80,0.9,0.09,-0.057,99.74,5.0,,0.0,0.0,
2025-08-15T00:34:28.951Z,14,GR86-013-80,0.8,0.082,-0.05,99.74,5.0,,0.0,0.0,
2025-08-15T00:34:28.994Z,14,GR86-013-80,0.8,0.079,-0.02,99.74,5.0,6920.0,0.0,0.0,
2025-08-15T00:34:29.037Z,14,GR86-013-80,0.9,0.089,-0.036,99.75,5.0,,0.0,0.0,203.76
2025-08-15T00:34:29.081Z,14,GR86-013-80,0.8,0.061,-0.03,99.73,5.0,,0.0,0.0,
2025-08-15T00:34:29.124Z,14,GR86-013-80,0.8,0.028,-0.024,99.75,5.0,,0.0,0.0,
2025-08-15T00:34:29.167Z,14,GR86-013-80,0.8,0.032,-0.017,99.74,5.0,,0.0,0.0,
2025-08-15T00:34:29.210Z,14,GR86-013-80,0.8,0.083,-0.008,99.75,5.0,6933.0,0.0,0.0,
2025-08-15T00:34:29.253Z,14,GR86-013-80,0.8,0.045,-0.015,99.73,5.0,,0.0,0.0,204.32
2025-08-15T00:34:29.296Z,14,GR86-013-80,0.7000000000000001,0.033,-0.014,99.75,5.0,,0.0,0.0,
2025-08-15T00:34:29.340Z,14,GR86-013-80,0.7000000000000001,0.034,-0.005,99.74,5.0,,0.0,0.0,
2025-08-15T00:34:29.383Z,14,GR86-013-80,0.7000000000000001,0.06,-0.008,99.73,5.0,,0.0,0.0,
2025-08-15T00:34:29.426Z,14,GR86-013-80,0.7000000000000001,0.078,0.0,99.74,5.0,6944.0,0.0,0.0,
2025-08-15T00:34:29.471Z,14,GR86-013-80,0.7000000000000001,0.034,-0.013,99.73,5.0,,0.0,0.0,204.71
2025-08-15T00:34:29.514Z,14,GR86-013-80,0.7000000000000001,0.046,-0.012,99.73,5.0,,0.0,0.0,
2025-08-15T00:34:29.558Z,14,GR86-013-80,0.7000000000000001,0.073,-0.029,99.74,5.0,,0.0,0.0,
2025-08-15T00:34:29.601Z,14,GR86-013-80,0.7000000000000001,0.085,-0.011,99.74,5.0,,0.0,0.0,
2025-08-15T00:34:29.644Z,14,GR86-013-80,0.7000000000000001,0.107,-0.028,99.73,5.0,6965.0,0.0,0.0,
2025-08-15T00:34:29.687Z,14,GR86-013-80,0.6000000000000001,0.059,-0.026,99.74,5.0,,0.0,0.0,205.19
2025-08-15T00:34:29.731Z,14,GR86-013-80,0.5,0.066,-0.042,99.75,5.0,,0.0,0.0,
2025-08-15T00:34:29.775Z,14,GR86-013-80,0.5,0.094,-0.048,99.74,5.0,,0.0,0.0,
2025-08-15T00:34:29.864Z,14,GR86-013-80,0.5,0.082,-0.023,99.72,5.0,6971.0,0.0,0.0,
2025-08-15T00:34:29.907Z,14,GR86-013-80,0.4,0.036,-0.035,99.76,5.0,,0.0,0.0,205.68
2025-08-15T00:34:29.951Z,14,GR86-013-80,0.5,0.07,-0.061,99.75,5.0,,0.0,0.0,
2025-08-15T00:34:29.994Z,14,GR86-013-80,0.4,0.089,-0.049,99.73,5.0,,0.0,0.0,
2025-08-15T00:34:30.037Z,14,GR86-013-80,0.4,0.036,-0.059,99.75,5.0,,0.0,0.0,
2025-08-15T00:34:30.080Z,14,GR86-013-80,0.5,0.023,-0.054,99.74,5.0,6991.0,0.0,0.0,
2025-08-15T00:34:30.123Z,14,GR86-013-80,0.7000000000000001,0.055,-0.044,77.42,5.0,,0.0,0.0,206.03
2025-08-15T00:34:30.166Z,14,GR86-013-80,0.9,0.061,-0.05,52.620000000000005,5.0,,0.0,0.0,
2025-08-15T00:34:30.209Z,14,GR86-013-80,0.9,0.019,-0.048,38.55,5.0,,0.0,0.0,
2025-08-15T00:34:30.252Z,14,GR86-013-80,0.9,0.012,-0.024,32.480000000000004,5.0,,2.275,2.455,
2025-08-15T00:34:30.295Z,14,GR86-013-80,0.9,-0.031,-0.03,2.72,5.0,7015.0,5.905,5.9350000000000005,
2025-08-15T00:34:30.338Z,14,GR86-013-80,0.9,-0.086,-0.029,4.74,5.0,,10.405,10.44,206.73
2025-08-15T00:34:30.381Z,14,GR86-013-80,0.7000000000000001,-0.303,-0.026,4.47,5.0,,16.94,16.97,
2025-08-15T00:34:30.424Z,14,GR86-013-80,0.6000000000000001,-0.412,-0.017,4.15,5.0,,29.435,29.24,
2025-08-15T00:34:30.467Z,14,GR86-013-80,0.6000000000000001,-0.86,-0.059,3.85,5.0,,45.275,44.88,
2025-08-15T00:34:30.510Z,14,GR86-013-80,0.6000000000000001,-1.061,-0.009,3.45,5.0,6981.0,65.83,65.115,
2025-08-15T00:34:30.554Z,14,GR86-013-80,0.7000000000000001,-1.194,-0.027,3.22,5.0,,74.895,74.21000000000001,205.96
2025-08-15T00:34:30.597Z,14,GR86-013-80,1.0,-1.184,-0.031,2.98,5.0,,81.245,81.685,
2025-08-15T00:34:30.641Z,14,GR86-013-80,1.6,-1.355,-0.019,2.73,5.0,,85.24,85.93,
2025-08-15T00:34:30.684Z,14,GR86-013-80,2.1,-1.31,-0.058,2.63,5.0,,88.05,89.425,
2025-08-15T00:34:30.727Z,14,GR86-013-80,2.2,-1.391,-0.084,5.12,5.0,6794.0,90.11,91.68,
2025-08-15T00:34:30.770Z,14,GR86-013-80,2.1,-1.408,-0.035,67.17,5.0,,88.46000000000001,89.455,196.99
2025-08-15T00:34:30.813Z,14,GR86-013-80,2.2,-1.258,-0.034,99.56,4.0,,87.09,87.9,
2025-08-15T00:34:30.856Z,14,GR86-013-80,3.2,-1.226,-0.095,62.690000000000005,4.0,,83.84,84.48,
2025-08-15T00:34:30.899Z,14,GR86-013-80,3.6,-1.303,-0.077,1.34,4.0,,82.495,83.9,
2025-08-15T00:34:30.943Z,14,GR86-013-80,2.9000000000000004,-1.296,-0.023,2.7,4.0,6433.0,82.495,84.325,
2025-08-15T00:34:30.986Z,14,GR86-013-80,2.7,-1.19,-0.122,2.6,4.0,,78.985,79.96000000000001,186.97
2025-08-15T00:34:31.031Z,14,GR86-013-80,3.1,-1.307,-0.032,2.57,4.0,,71.555,72.485,
2025-08-15T00:34:31.075Z,14,GR86-013-80,3.1,-1.255,-0.12,2.56,4.0,,68.15,69.675,
2025-08-15T00:34:31.118Z,14,GR86-013-80,2.7,-1.094,-0.177,2.54,4.0,,62.335,62.965,
2025-08-15T00:34:31.164Z,14,GR86-013-80,2.5,-1.177,-0.038,2.56,4.0,6589.0,58.905,60.370000000000005,
2025-08-15T00:34:31.207Z,14,GR86-013-80,2.4000000000000004,-1.094,-0.116,2.54,4.0,,57.18,58.965,178.17000000000002
2025-08-15T00:34:31.251Z,14,GR86-013-80,1.9,-1.071,-0.037,2.53,4.0,,54.175,55.21,
2025-08-15T00:34:31.294Z,14,GR86-013-80,0.7000000000000001,-1.121,-0.051,2.53,4.0,,52.645,53.9,
2025-08-15T00:34:31.337Z,14,GR86-013-80,-0.3,-1.102,-0.073,2.53,4.0,,50.25,51.685,
2025-08-15T00:34:31.380Z,14,GR86-013-80,-0.8,-1.047,-0.069,2.5,4.0,6329.0,47.46,48.77,
2025-08-15T00:34:31.423Z,14,GR86-013-80,-1.1,-1.026,-0.06,2.51,4.0,,44.71,46.055,171.1
2025-08-15T00:34:31.466Z,14,GR86-013-80,-1.8,-0.97,-0.071,34.410000000000004,4.0,,43.14,44.47,
2025-08-15T00:34:31.509Z,14,GR86-013-80,-3.9,-0.993,-0.117,97.94,4.0,,43.355,44.315,
2025-08-15T00:34:31.553Z,14,GR86-013-80,-4.4,-0.979,-0.143,99.6,4.0,,44.055,44.71,
2025-08-15T00:34:31.596Z,14,GR86-013-80,-4.3,-0.943,-0.208,88.41,3.0,6123.0,44.375,45.0,
2025-08-15T00:34:31.639Z,14,GR86-013-80,-3.4000000000000004,-1.015,-0.196,15.01,3.0,,44.5,45.095,164.57
2025-08-15T00:34:31.682Z,14,GR86-013-80,-2.0,-1.123,-0.126,3.08,3.0,,45.37,46.24,
2025-08-15T00:34:31.725Z,14,GR86-013-80,-0.8,-0.948,-0.211,2.84,3.0,,45.69,46.56,
2025-08-15T00:34:31.768Z,14,GR86-013-80,-0.4,-0.982,-0.279,2.72,3.0,,43.825,44.375,
2025-08-15T00:34:31.811Z,14,GR86-013-80,-0.7000000000000001,-0.915,-0.226,2.63,3.0,6904.0,43.11,43.645,
2025-08-15T00:34:31.854Z,14,GR86-013-80,-1.8,-0.964,-0.326,2.6,3.0,,43.52,43.855,158.21
2025-08-15T00:34:31.897Z,14,GR86-013-80,-3.7,-0.947,-0.253,2.57,3.0,,44.225,44.56,
2025-08-15T00:34:31.940Z,14,GR86-013-80,-6.2,-0.952,-0.31,2.57,3.0,,44.775,45.155,
2025-08-15T00:34:31.983Z,14,GR86-013-80,-8.8,-0.953,-0.394,2.56,3.0,,45.55,45.75,
2025-08-15T00:34:32.027Z,14,GR86-013-80,-11.9,-1.0,-0.367,2.54,3.0,6697.0,45.965,46.465,
2025-08-15T00:34:32.070Z,14,GR86-013-80,-14.7,-0.969,-0.497,2.54,3.0,,46.145,46.8,151.24
2025-08-15T00:34:32.114Z,14,GR86-013-80,-16.400000000000002,-0.971,-0.527,2.54,3.0,,47.015,48.235,
2025-08-15T00:34:32.200Z,14,GR86-013-80,-18.2,-0.99,-0.626,2.54,3.0,,47.245,48.235,
2025-08-15T00:34:32.243Z,14,GR86-013-80,-18.5,-0.907,-0.665,2.51,3.0,6342.0,42.12,43.26,
2025-08-15T00:34:32.287Z,14,GR86-013-80,-19.3,-0.909,-0.734,2.51,3.0,,39.995,41.25,144.57
2025-08-15T00:34:32.331Z,14,GR86-013-80,-20.3,-0.892,-0.794,2.5,3.0,,34.81,35.31,
2025-08-15T00:34:32.374Z,14,GR86-013-80,-20.200000000000003,-0.788,-0.799,2.5,3.0,,30.015,30.9,
2025-08-15T00:34:32.417Z,14,GR86-013-80,-19.700000000000003,-0.6920000000000001,-0.906,2.5,3.0,,24.86,25.865,
2025-08-15T00:34:32.460Z,14,GR86-013-80,-19.6,-0.5650000000000001,-0.996,2.5,3.0,6083.0,19.55,20.325,
2025-08-15T00:34:32.503Z,14,GR86-013-80,-20.0,-0.562,-0.934,2.5,3.0,,12.56,13.43,139.77
2025-08-15T00:34:32.547Z,14,GR86-013-80,-20.3,-0.441,-1.072,2.5,3.0,,4.775,5.22,
2025-08-15T00:34:32.591Z,14,GR86-013-80,-23.0,-0.237,-1.116,2.5,3.0,,0.0,0.0,
2025-08-15T00:34:32.634Z,14,GR86-013-80,-30.4,-0.204,-1.182,2.51,3.0,,0.0,0.0,
2025-08-15T00:34:32.677Z,14,GR86-013-80,-41.3,-0.155,-1.163,3.54,3.0,5806.0,0.0,0.0,
2025-08-15T00:34:32.721Z,14,GR86-013-80,-50.900000000000006,-0.185,-1.185,7.01,3.0,,0.0,0.0,134.22
2025-08-15T00:34:32.764Z,14,GR86-013-80,-55.3,-0.2,-1.225,19.95,3.0,,0.0,0.0,
2025-08-15T00:34:32.807Z,14,GR86-013-80,-55.3,-0.18,-1.219,27.85,3.0,,0.0,0.0,
2025-08-15T00:34:32.851Z,14,GR86-013-80,-54.7,-0.151,-1.283,32.56,3.0,,0.0,0.0,
2025-08-15T00:34:32.894Z,14,GR86-013-80,-56.7,-0.139,-1.24,35.07,3.0,5931.0,0.0,0.0,
2025-08-15T00:34:32.937Z,14,GR86-013-80,-60.1,-0.135,-1.247,36.91,3.0,,0.0,0.0,129.14
2025-08-15T00:34:32.981Z,14,GR86-013-80,-63.2,0.013,-1.255,37.15,3.0,,0.0,0.0,
2025-08-15T00:34:33.024Z,14,GR86-013-80,-65.2,0.224,-1.214,36.96,3.0,,0.0,0.0,
2025-08-15T00:34:33.067Z,14,GR86-013-80,-65.5,0.143,-1.253,37.24,3.0,,0.0,0.0,
2025-08-15T00:34:33.110Z,14,GR86-013-80,-61.3,0.076,-1.215,46.37,3.0,5920.0,0.0,0.0,
2025-08-15T00:34:33.153Z,14,GR86-013-80,-56.2,0.05,-1.308,58.11,3.0,,0.0,0.0,128.5
2025-08-15T00:34:33.197Z,14,GR86-013-80,-50.6,0.067,-1.286,85.56,3.0,,0.0,0.0,
2025-08-15T00:34:33.240Z,14,GR86-013-80,-46.5,0.103,-1.246,99.62,3.0,,0.0,0.0,
2025-08-15T00:34:33.283Z,14,GR86-013-80,-43.8,0.132,-1.339,99.72,3.0,,0.0,0.0,
2025-08-15T00:34:33.327Z,14,GR86-013-80,-41.8,0.169,-1.251,99.72,3.0,6039.0,0.0,0.0,
2025-08-15T00:34:33.371Z,14,GR86-013-80,-39.6,0.178,-1.243,99.73,3.0,,0.0,0.0,128.7
2025-08-15T00:34:33.414Z,14,GR86-013-80,-38.5,0.159,-1.218,99.73,3.0,,0.0,0.0,
2025-08-15T00:34:33.457Z,14,GR86-013-80,-38.5,0.158,-1.205,99.73,3.0,,0.0,0.0,
2025-08-15T00:34:33.501Z,14,GR86-013-80,-38.900000000000006,0.142,-1.304,99.75,3.0,,0.0,0.0,
2025-08-15T00:34:33.544Z,14,GR86-013-80,-39.8,0.165,-1.247,99.73,3.0,6152.0,0.0,0.0,
2025-08-15T00:34:33.587Z,14,GR86-013-80,-41.1,0.174,-1.195,99.73,3.0,,0.0,0.0,129.31
2025-08-15T00:34:33.631Z,14,GR86-013-80,-42.6,0.164,-1.194,99.74,3.0,,0.0,0.0,
2025-08-15T00:34:33.674Z,14,GR86-013-80,-42.900000000000006,0.173,-1.22,99.75,3.0,,0.0,0.0,
2025-08-15T00:34:33.717Z,14,GR86-013-80,-42.400000000000006,0.145,-1.219,99.75,3.0,,0.0,0.0,
2025-08-15T00:34:33.760Z,14,GR86-013-80,-41.0,0.148,-1.246,99.74,3.0,6176.0,0.0,0.0,
2025-08-15T00:34:33.803Z,14,GR86-013-80,-40.7,0.145,-1.229,99.74,3.0,,0.0,0.0,129.94
2025-08-15T00:34:33.847Z,14,GR86-013-80,-41.0,0.137,-1.241,99.76,3.0,,0.0,0.0,
2025-08-15T00:34:33.934Z,14,GR86-013-80,-43.3,0.15,-1.089,99.72,3.0,,0.0,0.0,
2025-08-15T00:34:34.021Z,14,GR86-013-80,-43.2,0.113,-1.252,99.75,3.0,6203.0,0.0,0.0,130.73
2025-08-15T00:34:34.064Z,14,GR86-013-80,-40.5,0.143,-1.175,99.74,3.0,,0.0,0.0,
2025-08-15T00:34:34.107Z,14,GR86-013-80,-39.3,0.178,-1.127,99.74,3.0,,0.0,0.0,
2025-08-15T00:34:34.151Z,14,GR86-013-80,-38.5,0.129,-1.183,99.74,3.0,,0.0,0.0,
2025-08-15T00:34:34.194Z,14,GR86-013-80,-38.5,0.156,-1.234,99.76,3.0,6233.0,0.0,0.0,
2025-08-15T00:34:34.237Z,14,GR86-013-80,-38.7,0.17,-1.223,99.75,3.0,,0.0,0.0,131.53
2025-08-15T00:34:34.280Z,14,GR86-013-80,-38.900000000000006,0.145,-1.247,99.75,3.0,,0.0,0.0,
2025-08-15T00:34:34.323Z,14,GR86-013-80,-38.900000000000006,0.162,-1.244,99.75,3.0,,0.0,0.0,
2025-08-15T00:34:34.366Z,14,GR86-013-80,-38.900000000000006,0.174,-1.203,99.73,3.0,,0.0,0.0,
2025-08-15T00:34:34.410Z,14,GR86-013-80,-39.0,0.168,-1.219,99.75,3.0,6272.0,0.0,0.0,
2025-08-15T00:34:34.454Z,14,GR86-013-80,-38.900000000000006,0.162,-1.19,99.74,3.0,,0.0,0.0,132.39
2025-08-15T00:34:34.497Z,14,GR86-013-80,-38.400000000000006,0.152,-1.173,99.75,3.0,,0.0,0.0,
2025-08-15T00:34:34.541Z,14,GR86-013-80,-37.8,0.156,-1.16,99.73,3.0,,0.0,0.0,
2025-08-15T00:34:34.584Z,14,GR86-013-80,-37.6,0.166,-1.152,99.74,3.0,,0.0,0.0,
2025-08-15T00:34:34.627Z,14,GR86-013-80,-37.5,0.159,-1.19,99.75,3.0,6301.0,0.0,0.0,
2025-08-15T00:34:34.670Z,14,GR86-013-80,-38.6,0.173,-1.217,99.75,3.0,,0.0,0.0,133.22
2025-08-15T00:34:34.714Z,14,GR86-013-80,-39.7,0.147,-1.225,99.73,3.0,,0.0,0.0,
2025-08-15T00:34:34.757Z,14,GR86-013-80,-40.5,0.155,-1.219,99.74,3.0,,0.0,0.0,
2025-08-15T00:34:34.800Z,14,GR86-013-80,-40.6,0.159,-1.202,99.75,3.0,,0.0,0.0,
2025-08-15T00:34:34.843Z,14,GR86-013-80,-40.5,0.159,-1.198,99.74,3.0,6330.0,0.0,0.0,
2025-08-15T00:34:34.888Z,14,GR86-013-80,-40.0,0.144,-1.168,99.74,3.0,,0.0,0.0,133.9
2025-08-15T00:34:34.931Z,14,GR86-013-80,-40.0,0.143,-1.097,99.75,3.0,,0.0,0.0,
2025-08-15T00:34:34.974Z,14,GR86-013-80,-40.400000000000006,0.137,-1.137,99.75,3.0,,0.0,0.0,
2025-08-15T00:34:35.017Z,14,GR86-013-80,-40.5,0.162,-1.194,99.75,3.0,,0.0,0.0,
2025-08-15T00:34:35.060Z,14,GR86-013-80,-40.6,0.164,-1.188,99.73,3.0,6344.0,0.0,0.0,
2025-08-15T00:34:35.103Z,14,GR86-013-80,-40.6,0.158,-1.19,99.75,3.0,,0.0,0.0,134.84
2025-08-15T00:34:35.146Z,14,GR86-013-80,-40.400000000000006,0.133,-1.219,99.74,3.0,,0.0,0.0,
2025-08-15T00:34:35.191Z,14,GR86-013-80,-39.6,0.133,-1.211,99.73,3.0,,0.0,0.0,
2025-08-15T00:34:35.234Z,14,GR86-013-80,-38.6,0.144,-1.237,99.75,3.0,,0.0,0.0,
2025-08-15T00:34:35.277Z,14,GR86-013-80,-36.8,0.158,-1.193,99.75,3.0,6402.0,0.0,0.0,
2025-08-15T00:34:35.321Z,14,GR86-013-80,-34.9,0.149,-1.159,99.74,3.0,,0.0,0.0,135.62
2025-08-15T00:34:35.364Z,14,GR86-013-80,-33.4,0.139,-1.197,99.74,3.0,,0.0,0.0,
2025-08-15T00:34:35.407Z,14,GR86-013-80,-31.9,0.164,-1.228,99.74,3.0,,0.0,0.0,
2025-08-15T00:34:35.451Z,14,GR86-013-80,-29.8,0.167,-1.218,99.73,3.0,,0.0,0.0,
2025-08-15T00:34:35.494Z,14,GR86-013-80,-28.5,0.184,-1.153,99.76,3.0,6440.0,0.0,0.0,
2025-08-15T00:34:35.537Z,14,GR86-013-80,-27.5,0.174,-1.084,99.76,3.0,,0.0,0.0,137.41
2025-08-15T00:34:35.580Z,14,GR86-013-80,-27.4,0.157,-1.085,99.74,3.0,,0.0,0.0,
2025-08-15T00:34:35.623Z,14,GR86-013-80,-27.9,0.142,-1.146,99.75,3.0,,0.0,0.0,
2025-08-15T00:34:35.666Z,14,GR86-013-80,-30.3,0.177,-1.086,99.75,3.0,,0.0,0.0,
2025-08-15T00:34:35.710Z,14,GR86-013-80,-35.2,0.165,-1.04,99.74,3.0,6479.0,0.0,0.0,
2025-08-15T00:34:35.754Z,14,GR86-013-80,-37.3,0.135,-0.959,99.75,3.0,,0.0,0.0,137.99
2025-08-15T00:34:35.797Z,14,GR86-013-80,-38.3,0.143,-0.81,99.73,3.0,,0.0,0.0,
2025-08-15T00:34:35.841Z,14,GR86-013-80,-36.4,0.009,-0.625,99.77,3.0,,0.0,0.0,
2025-08-15T00:34:35.884Z,14,GR86-013-80,-32.6,0.086,-0.764,99.74,3.0,,0.0,0.0,
2025-08-15T00:34:35.927Z,14,GR86-013-80,-28.9,0.174,-0.862,99.75,3.0,6521.0,0.0,0.0,
2025-08-15T00:34:35.970Z,14,GR86-013-80,-17.3,0.146,-0.981,99.76,3.0,,0.0,0.0,137.61
2025-08-15T00:34:36.014Z,14,GR86-013-80,-14.7,0.288,-0.945,99.75,3.0,,0.0,0.0,
2025-08-15T00:34:36.057Z,14,GR86-013-80,-12.2,0.243,-0.737,99.74,3.0,,0.0,0.0,
2025-08-15T00:34:36.100Z,14,GR86-013-80,-13.3,0.023,-0.617,99.74,3.0,,0.0,0.0,
2025-08-15T00:34:36.143Z,14,GR86-013-80,-14.0,0.062,-0.974,99.75,3.0,6646.0,0.0,0.0,
2025-08-15T00:34:36.187Z,14,GR86-013-80,-13.7,0.169,-1.279,99.74,3.0,,0.0,0.0,138.9
2025-08-15T00:34:36.231Z,14,GR86-013-80,-14.3,0.215,-1.198,99.74,3.0,,0.0,0.0,
2025-08-15T00:34:36.274Z,14,GR86-013-80,-17.900000000000002,0.221,-1.234,99.75,3.0,,0.0,0.0,
2025-08-15T00:34:36.317Z,14,GR86-013-80,-24.1,0.358,-1.02,99.78,3.0,,0.0,0.0,
2025-08-15T00:34:36.360Z,14,GR86-013-80,-30.4,0.142,-0.911,99.74,3.0,6648.0,0.0,0.0,
2025-08-15T00:34:36.403Z,14,GR86-013-80,-34.9,0.024,-0.876,99.75,3.0,,0.0,0.0,139.64
2025-08-15T00:34:36.446Z,14,GR86-013-80,-35.7,0.108,-0.879,99.74,3.0,,0.0,0.0,
2025-08-15T00:34:36.491Z,14,GR86-013-80,-32.800000000000004,0.226,-0.869,99.75,3.0,,0.0,0.0,
2025-08-15T00:34:36.534Z,14,GR86-013-80,-31.3,0.261,-0.787,99.74,3.0,,0.0,0.0,
2025-08-15T00:34:36.577Z,14,GR86-013-80,-31.5,0.172,-0.8290000000000001,99.75,3.0,6712.0,0.0,0.0,
2025-08-15T00:34:36.663Z,14,GR86-013-80,-31.4,0.171,-1.04,99.75,3.0,,0.0,0.0,139.98
2025-08-15T00:34:36.706Z,14,GR86-013-80,-30.0,0.173,-0.99,99.74,3.0,,0.0,0.0,
2025-08-15T00:34:36.749Z,14,GR86-013-80,-28.5,0.141,-1.0,99.74,3.0,,0.0,0.0,
2025-08-15T00:34:36.794Z,14,GR86-013-80,-27.9,0.211,-0.875,99.73,3.0,6719.0,0.0,0.0,
2025-08-15T00:34:36.837Z,14,GR86-013-80,-26.6,0.182,-0.92,99.74,3.0,,0.0,0.0,141.6
2025-08-15T00:34:36.881Z,14,GR86-013-80,-24.3,0.203,-0.727,99.73,3.0,,0.0,0.0,
2025-08-15T00:34:36.924Z,14,GR86-013-80,-22.4,0.088,-0.8320000000000001,99.75,3.0,,0.0,0.0,
2025-08-15T00:34:36.967Z,14,GR86-013-80,-21.0,0.2,-0.752,99.74,3.0,,0.0,0.0,
2025-08-15T00:34:37.010Z,14,GR86-013-80,-20.3,0.17,-0.72,99.73,3.0,6760.0,0.0,0.0,
2025-08-15T00:34:37.053Z,14,GR86-013-80,-19.8,0.176,-0.8300000000000001,99.74,3.0,,0.0,0.0,142.65
2025-08-15T00:34:37.096Z,14,GR86-013-80,-17.0,0.217,-0.741,99.73,3.0,,0.0,0.0,
2025-08-15T00:34:37.139Z,14,GR86-013-80,-13.9,0.199,-0.78,99.74,3.0,,0.0,0.0,
2025-08-15T00:34:37.182Z,14,GR86-013-80,-10.4,0.196,-0.749,99.7,3.0,,0.0,0.0,
2025-08-15T00:34:37.225Z,14,GR86-013-80,-7.5,0.127,-0.5700000000000001,99.72,3.0,6798.0,0.0,0.0,
2025-08-15T00:34:37.268Z,14,GR86-013-80,-6.5,0.196,-0.484,99.75,3.0,,0.0,0.0,143.97
2025-08-15T00:34:37.311Z,14,GR86-013-80,-5.1000000000000005,0.131,-0.428,99.71,3.0,,0.0,0.0,
2025-08-15T00:34:37.354Z,14,GR86-013-80,-4.800000000000001,0.122,-0.29,99.74,3.0,,0.0,0.0,
2025-08-15T00:34:37.397Z,14,GR86-013-80,-5.7,0.206,-0.307,99.74,3.0,,0.0,0.0,
2025-08-15T00:34:37.440Z,14,GR86-013-80,-6.7,0.236,-0.122,99.73,3.0,6834.0,0.0,0.0,
2025-08-15T00:34:37.483Z,14,GR86-013-80,-7.2,0.005,-0.074,99.72,3.0,,0.0,0.0,145.3
2025-08-15T00:34:37.527Z,14,GR86-013-80,-6.4,0.06,-0.261,99.74,3.0,,0.0,0.0,
2025-08-15T00:34:37.571Z,14,GR86-013-80,-2.2,0.302,-0.292,99.74,3.0,,0.0,0.0,
2025-08-15T00:34:37.614Z,14,GR86-013-80,0.7000000000000001,0.335,-0.304,99.73,3.0,,0.0,0.0,
2025-08-15T00:34:37.657Z,14,GR86-013-80,2.2,0.19,-0.261,99.74,3.0,6960.0,0.0,0.0,
2025-08-15T00:34:37.701Z,14,GR86-013-80,2.2,0.156,-0.334,99.74,3.0,,0.0,0.0,146.28
2025-08-15T00:34:37.744Z,14,GR86-013-80,1.8,0.159,-0.196,99.74,3.0,,0.0,0.0,
2025-08-15T00:34:37.787Z,14,GR86-013-80,1.0,0.148,-0.071,99.75,3.0,,0.0,0.0,
2025-08-15T00:34:37.831Z,14,GR86-013-80,0.9,0.203,-0.014,99.74,3.0,,0.0,0.0,
2025-08-15T00:34:37.874Z,14,GR86-013-80,1.4,0.055,-0.005,99.74,3.0,6900.0,0.0,0.0,
2025-08-15T00:34:37.917Z,14,GR86-013-80,2.3000000000000003,0.166,0.083,99.72,3.0,,0.0,0.0,148.05
2025-08-15T00:34:37.960Z,14,GR86-013-80,4.3,0.159,0.087,99.74,3.0,,0.0,0.0,
2025-08-15T00:34:38.003Z,14,GR86-013-80,5.5,0.152,0.076,99.76,3.0,,0.0,0.0,
2025-08-15T00:34:38.047Z,14,GR86-013-80,7.9,0.31,0.078,99.74,3.0,,0.0,0.0,
2025-08-15T00:34:38.091Z,14,GR86-013-80,10.8,0.141,0.143,99.75,3.0,7088.0,0.0,0.0,
2025-08-15T00:34:38.134Z,14,GR86-013-80,11.0,-0.007,0.202,99.75,3.0,,0.0,0.0,150.73
2025-08-15T00:34:38.177Z,14,GR86-013-80,11.3,0.121,0.295,99.72,3.0,,0.0,0.0,
2025-08-15T00:34:38.221Z,14,GR86-013-80,11.6,0.286,0.364,99.74,3.0,,0.0,0.0,
2025-08-15T00:34:38.264Z,14,GR86-013-80,12.0,0.154,0.451,99.74,3.0,,0.0,0.0,
2025-08-15T00:34:38.307Z,14,GR86-013-80,12.4,0.201,0.485,99.74,3.0,7050.0,0.0,0.0,
2025-08-15T00:34:38.351Z,14,GR86-013-80,12.2,0.206,0.4,99.73,3.0,,0.0,0.0,151.77
2025-08-15T00:34:38.394Z,14,GR86-013-80,11.7,0.15,0.44,99.76,3.0,,0.0,0.0,
2025-08-15T00:34:38.437Z,14,GR86-013-80,11.6,0.14,0.445,99.74,3.0,,0.0,0.0,
2025-08-15T00:34:38.480Z,14,GR86-013-80,11.8,0.162,0.409,99.74,3.0,,0.0,0.0,
2025-08-15T00:34:38.523Z,14,GR86-013-80,11.9,0.21,0.37,99.73,3.0,7208.0,0.0,0.0,
2025-08-15T00:34:38.566Z,14,GR86-013-80,12.0,0.216,0.355,99.75,3.0,,0.0,0.0,153.77
2025-08-15T00:34:38.609Z,14,GR86-013-80,12.0,0.161,0.326,99.74,3.0,,0.0,0.0,
2025-08-15T00:34:38.653Z,14,GR86-013-80,11.9,-0.035,0.342,99.72,3.0,,0.0,0.0,
2025-08-15T00:34:38.696Z,14,GR86-013-80,11.8,-0.036,0.388,99.73,4.0,,0.0,0.0,
2025-08-15T00:34:38.741Z,14,GR86-013-80,11.7,0.301,0.346,99.74,4.0,6834.0,0.0,0.0,
2025-08-15T00:34:38.784Z,14,GR86-013-80,11.6,0.406,0.34,99.73,4.0,,0.0,0.0,155.07
2025-08-15T00:34:38.827Z,14,GR86-013-80,11.5,0.158,0.403,99.74,4.0,,0.0,0.0,
2025-08-15T00:34:38.870Z,14,GR86-013-80,11.1,0.068,0.371,99.74,4.0,,0.0,0.0,
2025-08-15T00:34:38.913Z,14,GR86-013-80,10.5,0.139,0.358,99.75,4.0,,0.0,0.0,
2025-08-15T00:34:38.956Z,14,GR86-013-80,9.6,0.175,0.392,99.75,4.0,6182.0,0.0,0.0,
2025-08-15T00:34:38.999Z,14,GR86-013-80,9.2,0.147,0.352,99.75,4.0,,0.0,0.0,156.17000000000002
2025-08-15T00:34:39.043Z,14,GR86-013-80,9.0,0.132,0.325,99.75,4.0,,0.0,0.0,
2025-08-15T00:34:39.086Z,14,GR86-013-80,8.9,0.149,0.33,99.72,4.0,,0.0,0.0,
2025-08-15T00:34:39.131Z,14,GR86-013-80,8.5,0.13,0.303,99.75,4.0,,0.0,0.0,
2025-08-15T00:34:39.174Z,14,GR86-013-80,8.200000000000001,0.128,0.282,99.75,4.0,6230.0,0.0,0.0,
2025-08-15T00:34:39.217Z,14,GR86-013-80,7.800000000000001,0.151,0.251,99.74,4.0,,0.0,0.0,157.55
2025-08-15T00:34:39.260Z,14,GR86-013-80,7.300000000000001,0.169,0.233,99.74,4.0,,0.0,0.0,
2025-08-15T00:34:39.303Z,14,GR86-013-80,7.2,0.183,0.229,99.75,4.0,,0.0,0.0,
2025-08-15T00:34:39.346Z,14,GR86-013-80,7.0,0.182,0.215,99.73,4.0,,0.0,0.0,
2025-08-15T00:34:39.391Z,14,GR86-013-80,6.2,0.155,0.174,99.75,4.0,6276.0,0.0,0.0,
2025-08-15T00:34:39.434Z,14,GR86-013-80,5.800000000000001,0.166,0.152,99.74,4.0,,0.0,0.0,158.98
2025-08-15T00:34:39.477Z,14,GR86-013-80,5.4,0.179,0.142,99.74,4.0,,0.0,0.0,
2025-08-15T00:34:39.521Z,14,GR86-013-80,5.300000000000001,0.176,0.131,99.73,4.0,,0.0,0.0,
2025-08-15T00:34:39.564Z,14,GR86-013-80,5.0,0.138,0.113,99.75,4.0,,0.0,0.0,
2025-08-15T00:34:39.607Z,14,GR86-013-80,4.7,0.112,0.108,99.73,4.0,6339.0,0.0,0.0,
2025-08-15T00:34:39.651Z,14,GR86-013-80,3.7,0.176,0.102,99.74,4.0,,0.0,0.0,160.45000000000002
2025-08-15T00:34:39.694Z,14,GR86-013-80,3.1,0.177,0.093,99.75,4.0,,0.0,0.0,
2025-08-15T00:34:39.737Z,14,GR86-013-80,2.6,0.145,0.061,99.74,4.0,,0.0,0.0,
2025-08-15T00:34:39.780Z,14,GR86-013-80,1.6,0.114,0.046,99.75,4.0,,0.0,0.0,
2025-08-15T00:34:39.823Z,14,GR86-013-80,0.8,0.11,0.019,99.73,4.0,6382.0,0.0,0.0,
2025-08-15T00:34:39.866Z,14,GR86-013-80,0.1,0.117,0.011,99.74,4.0,,0.0,0.0,161.93
2025-08-15T00:34:39.909Z,14,GR86-013-80,-0.2,0.143,-0.003,99.76,4.0,,0.0,0.0,
2025-08-15T00:34:39.953Z,14,GR86-013-80,-0.4,0.107,-0.014,99.73,4.0,,0.0,0.0,
2025-08-15T00:34:39.997Z,14,GR86-013-80,-0.8,0.119,-0.064,99.76,4.0,,0.0,0.0,
2025-08-15T00:34:40.040Z,14,GR86-013-80,-1.0,0.118,-0.066,99.75,4.0,6429.0,0.0,0.0,
2025-08-15T00:34:40.083Z,14,GR86-013-80,-1.6,0.113,-0.088,99.73,4.0,,0.0,0.0,163.41
2025-08-15T00:34:40.127Z,14,GR86-013-80,-2.6,0.14,-0.113,99.75,4.0,,0.0,0.0,
2025-08-15T00:34:40.170Z,14,GR86-013-80,-4.3,0.125,-0.132,99.74,4.0,,0.0,0.0,
2025-08-15T00:34:40.214Z,14,GR86-013-80,-5.300000000000001,0.119,-0.163,99.75,4.0,,0.0,0.0,
2025-08-15T00:34:40.257Z,14,GR86-013-80,-6.0,0.109,-0.181,99.75,4.0,6487.0,0.0,0.0,
2025-08-15T00:34:40.300Z,14,GR86-013-80,-6.2,0.113,-0.224,99.72,4.0,,0.0,0.0,164.82
2025-08-15T00:34:40.343Z,14,GR86-013-80,-6.2,0.121,-0.252,99.75,4.0,,0.0,0.0,
2025-08-15T00:34:40.387Z,14,GR86-013-80,-6.2,0.151,-0.27,99.74,4.0,,0.0,0.0,
2025-08-15T00:34:40.431Z,14,GR86-013-80,-6.300000000000001,0.109,-0.316,99.75,4.0,,0.0,0.0,
2025-08-15T00:34:40.474Z,14,GR86-013-80,-6.300000000000001,0.103,-0.343,99.75,4.0,6540.0,0.0,0.0,
2025-08-15T00:34:40.517Z,14,GR86-013-80,-6.300000000000001,0.103,-0.335,99.74,4.0,,0.0,0.0,166.36
2025-08-15T00:34:40.560Z,14,GR86-013-80,-6.2,0.109,-0.346,99.75,4.0,,0.0,0.0,
2025-08-15T00:34:40.603Z,14,GR86-013-80,-6.2,0.115,-0.335,99.73,4.0,,0.0,0.0,
2025-08-15T00:34:40.646Z,14,GR86-013-80,-6.2,0.142,-0.342,99.74,4.0,,0.0,0.0,
2025-08-15T00:34:40.691Z,14,GR86-013-80,-6.4,0.117,-0.3,99.73,4.0,6598.0,0.0,0.0,
2025-08-15T00:34:40.734Z,14,GR86-013-80,-6.7,0.101,-0.296,99.73,4.0,,0.0,0.0,169.3
2025-08-15T00:34:40.777Z,14,GR86-013-80,-6.9,0.098,-0.298,99.73,4.0,,0.0,0.0,
2025-08-15T00:34:40.821Z,14,GR86-013-80,-7.0,0.102,-0.323,99.75,4.0,,0.0,0.0,
2025-08-15T00:34:40.864Z,14,GR86-013-80,-7.2,0.11,-0.33,99.73,4.0,,0.0,0.0,
2025-08-15T00:34:40.907Z,14,GR86-013-80,-7.5,0.119,-0.343,99.75,4.0,6652.0,0.0,0.0,
2025-08-15T00:34:40.951Z,14,GR86-013-80,-7.800000000000001,0.132,-0.327,99.74,4.0,,0.0,0.0,170.71
2025-08-15T00:34:40.994Z,14,GR86-013-80,-7.800000000000001,0.11,-0.347,99.74,4.0,,0.0,0.0,
2025-08-15T00:34:41.038Z,14,GR86-013-80,-7.800000000000001,0.122,-0.351,99.74,4.0,,0.0,0.0,
2025-08-15T00:34:41.081Z,14,GR86-013-80,-7.7,0.102,-0.338,99.74,4.0,,0.0,0.0,
2025-08-15T00:34:41.124Z,14,GR86-013-80,-7.800000000000001,0.1,-0.34,99.75,4.0,6718.0,0.0,0.0,
2025-08-15T00:34:41.167Z,14,GR86-013-80,-8.1,0.107,-0.343,99.75,4.0,,0.0,0.0,171.96
2025-08-15T00:34:41.210Z,14,GR86-013-80,-8.200000000000001,0.145,-0.353,99.73,4.0,,0.0,0.0,
2025-08-15T00:34:41.254Z,14,GR86-013-80,-8.0,0.156,-0.368,99.73,4.0,,0.0,0.0,
2025-08-15T00:34:41.297Z,14,GR86-013-80,-7.800000000000001,0.139,-0.381,99.75,4.0,,0.0,0.0,
2025-08-15T00:34:41.340Z,14,GR86-013-80,-7.7,0.129,-0.384,99.73,4.0,6822.0,0.0,0.0,
2025-08-15T00:34:41.383Z,14,GR86-013-80,-7.5,0.131,-0.403,99.75,4.0,,0.0,0.0,173.08
2025-08-15T00:34:41.426Z,14,GR86-013-80,-7.300000000000001,0.107,-0.4,99.75,4.0,,0.0,0.0,
2025-08-15T00:34:41.471Z,14,GR86-013-80,-7.300000000000001,0.143,-0.4,99.71,4.0,,0.0,0.0,
2025-08-15T00:34:41.514Z,14,GR86-013-80,-7.300000000000001,0.152,-0.383,99.74,4.0,,0.0,0.0,
2025-08-15T00:34:41.557Z,14,GR86-013-80,-7.6,0.153,-0.379,99.73,4.0,6868.0,0.0,0.0,
2025-08-15T00:34:41.601Z,14,GR86-013-80,-7.7,0.13,-0.36,99.73,4.0,,0.0,0.0,174.55
2025-08-15T00:34:41.644Z,14,GR86-013-80,-7.6,0.155,-0.329,99.74,4.0,,0.0,0.0,
2025-08-15T00:34:41.687Z,14,GR86-013-80,-7.4,0.149,-0.322,99.74,4.0,,0.0,0.0,
2025-08-15T00:34:41.732Z,14,GR86-013-80,-7.2,0.098,-0.308,99.72,4.0,,0.0,0.0,
2025-08-15T00:34:41.775Z,14,GR86-013-80,-7.1000000000000005,0.112,-0.347,99.74,4.0,6913.0,0.0,0.0,
2025-08-15T00:34:41.818Z,14,GR86-013-80,-7.0,0.12,-0.338,99.74,4.0,,0.0,0.0,175.76
2025-08-15T00:34:41.864Z,14,GR86-013-80,-7.0,0.106,-0.367,99.72,4.0,,0.0,0.0,
2025-08-15T00:34:41.907Z,14,GR86-013-80,-6.800000000000001,0.124,-0.372,99.75,4.0,,0.0,0.0,
2025-08-15T00:34:41.951Z,14,GR86-013-80,-6.800000000000001,0.126,-0.35,99.75,4.0,,0.0,0.0,
2025-08-15T00:34:41.994Z,14,GR86-013-80,-6.7,0.105,-0.333,99.72,4.0,6961.0,0.0,0.0,
2025-08-15T00:34:42.037Z,14,GR86-013-80,-6.6000000000000005,0.122,-0.346,99.73,4.0,,0.0,0.0,176.99
2025-08-15T00:34:42.080Z,14,GR86-013-80,-6.4,0.1,-0.319,99.73,4.0,,0.0,0.0,
2025-08-15T00:34:42.123Z,14,GR86-013-80,-6.300000000000001,0.109,-0.284,99.74,4.0,,0.0,0.0,
2025-08-15T00:34:42.166Z,14,GR86-013-80,-6.1000000000000005,0.099,-0.291,99.73,4.0,,0.0,0.0,
2025-08-15T00:34:42.210Z,14,GR86-013-80,-5.300000000000001,0.121,-0.292,89.16,4.0,6996.0,0.0,0.0,
2025-08-15T00:34:42.254Z,14,GR86-013-80,-3.9,0.127,-0.263,40.41,4.0,,4.305,4.365,178.34
2025-08-15T00:34:42.297Z,14,GR86-013-80,-2.3000000000000003,0.077,-0.216,32.15,4.0,,8.73,8.635,
2025-08-15T00:34:42.341Z,14,GR86-013-80,-1.1,-0.052,-0.209,2.33,4.0,,14.39,14.36,
2025-08-15T00:34:42.384Z,14,GR86-013-80,0.4,-0.198,-0.183,5.04,4.0,,20.845,20.725,
2025-08-15T00:34:42.427Z,14,GR86-013-80,1.3,-0.483,-0.13,4.8500000000000005,4.0,7050.0,29.36,29.025,
2025-08-15T00:34:42.470Z,14,GR86-013-80,1.5,-0.811,-0.07,4.26,4.0,,47.67,46.985,179.31
2025-08-15T00:34:42.514Z,14,GR86-013-80,1.5,-1.119,-0.074,3.91,4.0,,60.98,60.2,
2025-08-15T00:34:42.557Z,14,GR86-013-80,1.2000000000000002,-1.241,-0.037,3.65,4.0,,73.02,73.14,
2025-08-15T00:34:42.600Z,14,GR86-013-80,0.9,-1.359,-0.073,3.41,4.0,,81.33500000000001,81.715,
2025-08-15T00:34:42.643Z,14,GR86-013-80,0.7000000000000001,-1.365,-0.082,3.2,4.0,6559.0,84.615,84.145,
2025-08-15T00:34:42.687Z,14,GR86-013-80,0.7000000000000001,-1.431,-0.03,4.39,4.0,,84.615,83.84,178.79
2025-08-15T00:34:42.731Z,14,GR86-013-80,0.4,-1.381,-0.019,64.68,4.0,,80.22,79.87,
2025-08-15T00:34:42.774Z,14,GR86-013-80,0.1,-1.373,0.011,99.29,4.0,,74.745,75.28,
2025-08-15T00:34:42.817Z,14,GR86-013-80,-0.3,-1.351,-0.029,93.84,3.0,,69.31,71.11,
2025-08-15T00:34:42.861Z,14,GR86-013-80,-0.4,-1.356,-0.074,25.22,3.0,6236.0,65.39,67.42,
2025-08-15T00:34:42.904Z,14,GR86-013-80,-0.7000000000000001,-1.27,-0.024,3.0700000000000003,3.0,,63.68,65.68,171.58
2025-08-15T00:34:42.948Z,14,GR86-013-80,-0.8,-1.261,-0.057,2.76,3.0,,62.505,63.77,
2025-08-15T00:34:42.991Z,14,GR86-013-80,-0.9,-1.24,-0.093,2.7,3.0,,55.01,55.64,
2025-08-15T00:34:43.034Z,14,GR86-013-80,-1.3,-1.049,-0.023,2.64,3.0,,52.525,54.11,
2025-08-15T00:34:43.077Z,14,GR86-013-80,-1.4,-1.004,-0.253,2.63,3.0,6686.0,48.145,48.36,
2025-08-15T00:34:43.121Z,14,GR86-013-80,-1.4,-1.008,-0.112,2.6,3.0,,46.56,47.93,162.45000000000002
2025-08-15T00:34:43.164Z,14,GR86-013-80,-1.4,-1.05,-0.093,2.6,3.0,,47.81,49.135,
2025-08-15T00:34:43.207Z,14,GR86-013-80,-1.3,-1.049,-0.29,2.57,3.0,,48.83,49.7,
2025-08-15T00:34:43.251Z,14,GR86-013-80,-1.3,-1.083,-0.144,2.56,3.0,,50.815,51.0,
2025-08-15T00:34:43.294Z,14,GR86-013-80,-1.3,-1.061,-0.297,2.54,3.0,6729.0,51.745000000000005,51.775,
2025-08-15T00:34:43.337Z,14,GR86-013-80,-1.2000000000000002,-1.053,-0.262,2.54,3.0,,52.465,52.71,146.66
2025-08-15T00:34:43.380Z,14,GR86-013-80,-1.3,-1.076,-0.255,23.24,3.0,,53.21,53.425,
2025-08-15T00:34:43.423Z,14,GR86-013-80,-1.4,-1.069,-0.277,67.87,3.0,,53.515,53.745000000000005,
2025-08-15T00:34:43.467Z,14,GR86-013-80,-1.8,-1.085,-0.3,99.56,3.0,,54.355,55.455,
2025-08-15T00:34:43.510Z,14,GR86-013-80,-3.7,-1.064,-0.379,71.35000000000001,2.0,6402.0,55.485,56.4,
2025-08-15T00:34:43.553Z,14,GR86-013-80,-4.5,-1.24,-0.401,2.93,2.0,,55.3,56.31,139.54
2025-08-15T00:34:43.597Z,14,GR86-013-80,-4.800000000000001,-1.125,-0.282,3.1,2.0,,56.78,58.05,
2025-08-15T00:34:43.640Z,14,GR86-013-80,-4.7,-1.05,-0.5740000000000001,2.91,2.0,,56.63,57.27,
2025-08-15T00:34:43.683Z,14,GR86-013-80,-4.6000000000000005,-1.203,-0.558,2.76,2.0,,55.64,55.945,
2025-08-15T00:34:43.727Z,14,GR86-013-80,-4.7,-1.078,-0.324,2.68,2.0,6117.0,56.555,57.715,
2025-08-15T00:34:43.770Z,14,GR86-013-80,-5.1000000000000005,-1.02,-0.789,2.64,2.0,,56.69,57.38,133.72
2025-08-15T00:34:43.814Z,14,GR86-013-80,-6.300000000000001,-1.033,-0.501,2.6,2.0,,56.31,56.585,
2025-08-15T00:34:43.857Z,14,GR86-013-80,-7.2,-0.96,-0.539,2.6,2.0,,57.865,58.46,
2025-08-15T00:34:43.900Z,14,GR86-013-80,-9.1,-1.015,-0.791,2.58,2.0,,59.56,60.675,
2025-08-15T00:34:43.943Z,14,GR86-013-80,-11.4,-0.843,-0.64,2.54,2.0,6800.0,58.05,58.4,
2025-08-15T00:34:43.987Z,14,GR86-013-80,-13.1,-1.032,-0.726,2.54,2.0,,55.745000000000005,55.545,127.11
2025-08-15T00:34:44.031Z,14,GR86-013-80,-21.4,-1.031,-0.645,2.54,2.0,,57.835,58.935,
2025-08-15T00:34:44.074Z,14,GR86-013-80,-30.0,-0.906,-0.6910000000000001,2.5,2.0,,55.045,55.715,
2025-08-15T00:34:44.117Z,14,GR86-013-80,-35.2,-1.018,-0.674,2.51,2.0,,53.545,53.805,
2025-08-15T00:34:44.160Z,14,GR86-013-80,-38.8,-0.935,-0.627,2.5,2.0,6406.0,54.92,55.715,
2025-08-15T00:34:44.203Z,14,GR86-013-80,-42.1,-1.032,-0.882,2.5,2.0,,55.575,57.025,120.36
2025-08-15T00:34:44.247Z,14,GR86-013-80,-42.8,-0.855,-0.835,2.5,2.0,,51.245000000000005,51.715,
2025-08-15T00:34:44.291Z,14,GR86-013-80,-42.900000000000006,-0.891,-0.767,2.49,2.0,,48.955,49.61,
2025-08-15T00:34:44.334Z,14,GR86-013-80,-43.2,-0.93,-0.809,2.5,2.0,,49.275,50.28,
2025-08-15T00:34:44.377Z,14,GR86-013-80,-44.0,-0.898,-0.917,2.48,2.0,6073.0,44.315,45.065,
2025-08-15T00:34:44.420Z,14,GR86-013-80,-44.0,-0.8,-0.945,2.47,2.0,,37.42,38.35,113.74
2025-08-15T00:34:44.463Z,14,GR86-013-80,-44.8,-0.646,-0.8180000000000001,2.5,2.0,,28.935,29.865,
2025-08-15T00:34:44.506Z,14,GR86-013-80,-49.8,-0.639,-1.023,2.48,2.0,,22.19,23.025,
2025-08-15T00:34:44.549Z,14,GR86-013-80,-57.0,-0.544,-1.07,2.5,2.0,,11.52,11.995,
2025-08-15T00:34:44.594Z,14,GR86-013-80,-59.2,-0.386,-1.161,2.48,2.0,5843.0,3.615,4.12,
2025-08-15T00:34:44.637Z,14,GR86-013-80,-61.3,-0.279,-1.22,2.48,2.0,,0.0,0.0,108.15
2025-08-15T00:34:44.681Z,14,GR86-013-80,-64.0,-0.208,-1.24,2.47,2.0,,0.0,0.0,
2025-08-15T00:34:44.724Z,14,GR86-013-80,-67.2,-0.226,-1.244,2.47,2.0,,0.0,0.0,
2025-08-15T00:34:44.767Z,14,GR86-013-80,-68.2,-0.192,-1.278,3.56,2.0,,0.0,0.0,
2025-08-15T00:34:44.810Z,14,GR86-013-80,-66.3,-0.172,-1.268,18.94,2.0,5781.0,0.0,0.0,
2025-08-15T00:34:44.853Z,14,GR86-013-80,-62.6,-0.21,-1.306,20.73,2.0,,0.0,0.0,105.68
2025-08-15T00:34:44.896Z,14,GR86-013-80,-60.7,-0.164,-1.262,22.08,2.0,,0.0,0.0,
2025-08-15T00:34:44.939Z,14,GR86-013-80,-60.6,-0.147,-1.297,24.64,2.0,,0.0,0.0,
2025-08-15T00:34:44.982Z,14,GR86-013-80,-62.1,-0.134,-1.29,29.27,2.0,,0.0,0.0,
2025-08-15T00:34:45.025Z,14,GR86-013-80,-64.7,-0.114,-1.332,31.87,2.0,5733.0,0.0,0.0,
2025-08-15T00:34:45.068Z,14,GR86-013-80,-66.9,-0.078,-1.312,32.92,2.0,,0.0,0.0,103.85
2025-08-15T00:34:45.111Z,14,GR86-013-80,-71.5,0.12,-1.325,33.71,2.0,,0.0,0.0,
2025-08-15T00:34:45.154Z,14,GR86-013-80,-74.4,0.148,-1.315,34.910000000000004,2.0,,0.0,0.0,
2025-08-15T00:34:45.197Z,14,GR86-013-80,-75.0,0.164,-1.324,36.47,2.0,,0.0,0.0,
2025-08-15T00:34:45.240Z,14,GR86-013-80,-75.0,0.168,-1.356,39.49,2.0,6079.0,0.0,0.0,
2025-08-15T00:34:45.283Z,14,GR86-013-80,-75.0,0.105,-1.358,53.04,2.0,,0.0,0.0,102.61
2025-08-15T00:34:45.327Z,14,GR86-013-80,-74.8,0.139,-1.332,64.39,2.0,,0.0,0.0,
2025-08-15T00:34:45.371Z,14,GR86-013-80,-71.0,0.174,-1.279,99.16,2.0,,0.0,0.0,
2025-08-15T00:34:45.414Z,14,GR86-013-80,-67.5,0.185,-1.244,99.63,2.0,,0.0,0.0,
2025-08-15T00:34:45.457Z,14,GR86-013-80,-64.9,0.242,-1.229,99.72,2.0,5950.0,0.0,0.0,
2025-08-15T00:34:45.501Z,14,GR86-013-80,-63.3,0.218,-1.216,99.72,2.0,,0.0,0.0,102.0
2025-08-15T00:34:45.544Z,14,GR86-013-80,-60.400000000000006,0.248,-1.208,99.71,2.0,,0.0,0.0,
2025-08-15T00:34:45.587Z,14,GR86-013-80,-56.3,0.228,-1.231,99.71,2.0,,0.0,0.0,
2025-08-15T00:34:45.631Z,14,GR86-013-80,-49.0,0.208,-1.203,99.71,2.0,,0.0,0.0,
2025-08-15T00:34:45.674Z,14,GR86-013-80,-46.6,0.249,-1.2,99.72,2.0,6097.0,0.0,0.0,
2025-08-15T00:34:45.717Z,14,GR86-013-80,-45.2,0.22,-1.217,99.71,2.0,,0.0,0.0,102.36
2025-08-15T00:34:45.760Z,14,GR86-013-80,-42.2,0.238,-1.178,99.7,2.0,,0.0,0.0,
2025-08-15T00:34:45.803Z,14,GR86-013-80,-37.5,0.242,-1.188,99.7,2.0,,0.0,0.0,
2025-08-15T00:34:45.847Z,14,GR86-013-80,-32.5,0.237,-1.167,99.7,2.0,,0.0,0.0,
2025-08-15T00:34:45.891Z,14,GR86-013-80,-29.200000000000003,0.232,-1.155,99.69,2.0,6154.0,0.0,0.0,
2025-08-15T00:34:45.934Z,14,GR86-013-80,-29.3,0.242,-1.141,99.7,2.0,,0.0,0.0,104.72
2025-08-15T00:34:45.977Z,14,GR86-013-80,-30.8,0.226,-1.168,99.71,2.0,,0.0,0.0,
2025-08-15T00:34:46.021Z,14,GR86-013-80,-32.0,0.264,-1.164,99.71,2.0,,0.0,0.0,
2025-08-15T00:34:46.064Z,14,GR86-013-80,-32.1,0.231,-1.145,99.71,2.0,,0.0,0.0,
2025-08-15T00:34:46.107Z,14,GR86-013-80,-30.6,0.239,-1.165,99.72,2.0,6220.0,0.0,0.0,
2025-08-15T00:34:46.151Z,14,GR86-013-80,-23.6,0.244,-1.186,99.72,2.0,,0.0,0.0,106.08
2025-08-15T00:34:46.194Z,14,GR86-013-80,-20.200000000000003,0.218,-1.168,99.7,2.0,,0.0,0.0,
2025-08-15T00:34:46.237Z,14,GR86-013-80,-20.200000000000003,0.259,-1.196,99.71,2.0,,0.0,0.0,
2025-08-15T00:34:46.280Z,14,GR86-013-80,-24.8,0.277,-1.125,99.74,2.0,,0.0,0.0,
2025-08-15T00:34:46.367Z,14,GR86-013-80,-32.800000000000004,0.256,-1.154,99.73,2.0,6290.0,0.0,0.0,107.44
2025-08-15T00:34:46.410Z,14,GR86-013-80,-48.900000000000006,0.229,-1.114,99.71,2.0,,0.0,0.0,
2025-08-15T00:34:46.454Z,14,GR86-013-80,-49.0,0.204,-1.117,99.71,2.0,,0.0,0.0,
2025-08-15T00:34:46.497Z,14,GR86-013-80,-48.0,0.224,-1.17,99.72,2.0,,0.0,0.0,
2025-08-15T00:34:46.541Z,14,GR86-013-80,-46.900000000000006,0.218,-1.096,99.7,2.0,6390.0,0.0,0.0,
2025-08-15T00:34:46.584Z,14,GR86-013-80,-46.8,0.211,-1.188,99.72,2.0,,0.0,0.0,108.48
2025-08-15T00:34:46.627Z,14,GR86-013-80,-46.6,0.24,-1.107,99.72,2.0,,0.0,0.0,
2025-08-15T00:34:46.670Z,14,GR86-013-80,-45.8,0.23,-1.077,99.71,2.0,,0.0,0.0,
2025-08-15T00:34:46.714Z,14,GR86-013-80,-44.6,0.201,-1.087,99.73,2.0,,0.0,0.0,
2025-08-15T00:34:46.757Z,14,GR86-013-80,-43.6,0.217,-1.155,99.71,2.0,6447.0,0.0,0.0,
2025-08-15T00:34:46.800Z,14,GR86-013-80,-43.1,0.205,-1.15,99.71,2.0,,0.0,0.0,110.07
2025-08-15T00:34:46.843Z,14,GR86-013-80,-42.7,0.228,-1.162,99.72,2.0,,0.0,0.0,
2025-08-15T00:34:46.886Z,14,GR86-013-80,-42.400000000000006,0.245,-1.197,99.7,2.0,,0.0,0.0,
2025-08-15T00:34:46.931Z,14,GR86-013-80,-40.400000000000006,0.219,-1.181,99.72,2.0,,0.0,0.0,
2025-08-15T00:34:47.017Z,14,GR86-013-80,-38.400000000000006,0.269,-1.072,99.71,2.0,6537.0,0.0,0.0,111.59
2025-08-15T00:34:47.060Z,14,GR86-013-80,-37.5,0.224,-1.044,99.7,2.0,,0.0,0.0,
2025-08-15T00:34:47.103Z,14,GR86-013-80,-37.0,0.218,-1.026,99.71,2.0,,0.0,0.0,
2025-08-15T00:34:47.146Z,14,GR86-013-80,-36.5,0.211,-1.028,99.72,2.0,,0.0,0.0,
2025-08-15T00:34:47.191Z,14,GR86-013-80,-36.4,0.232,-1.021,99.71,2.0,6584.0,0.0,0.0,
2025-08-15T00:34:47.234Z,14,GR86-013-80,-36.6,0.25,-0.972,99.7,2.0,,0.0,0.0,113.1
2025-08-15T00:34:47.277Z,14,GR86-013-80,-36.7,0.24,-0.972,99.7,2.0,,0.0,0.0,
2025-08-15T00:34:47.321Z,14,GR86-013-80,-36.7,0.209,-1.029,99.72,2.0,,0.0,0.0,
2025-08-15T00:34:47.364Z,14,GR86-013-80,-36.1,0.219,-1.034,99.71,2.0,,0.0,0.0,
2025-08-15T00:34:47.407Z,14,GR86-013-80,-35.300000000000004,0.254,-0.994,99.71,2.0,6685.0,0.0,0.0,
2025-08-15T00:34:47.451Z,14,GR86-013-80,-33.1,0.252,-1.004,99.71,2.0,,0.0,0.0,113.38
2025-08-15T00:34:47.494Z,14,GR86-013-80,-31.6,0.212,-0.976,99.72,2.0,,0.0,0.0,
2025-08-15T00:34:47.537Z,14,GR86-013-80,-30.1,0.237,-0.996,99.72,2.0,,0.0,0.0,
2025-08-15T00:34:47.580Z,14,GR86-013-80,-29.0,0.238,-1.029,99.71,2.0,,0.0,0.0,
2025-08-15T00:34:47.623Z,14,GR86-013-80,-29.0,0.234,-0.985,99.71,2.0,6772.0,0.0,0.0,
2025-08-15T00:34:47.666Z,14,GR86-013-80,-30.5,0.267,-0.998,99.7,2.0,,0.0,0.0,115.34
2025-08-15T00:34:47.710Z,14,GR86-013-80,-34.1,0.263,-1.042,99.74,2.0,,0.0,0.0,
2025-08-15T00:34:47.753Z,14,GR86-013-80,-36.7,0.232,-1.022,99.72,2.0,,0.0,0.0,
2025-08-15T00:34:47.796Z,14,GR86-013-80,-38.8,0.226,-0.978,99.71,2.0,,0.0,0.0,
2025-08-15T00:34:47.841Z,14,GR86-013-80,-39.8,0.234,-0.992,99.71,2.0,6851.0,0.0,0.0,
2025-08-15T00:34:47.927Z,14,GR86-013-80,-40.0,0.213,-0.97,99.71,2.0,,0.0,0.0,117.1
2025-08-15T00:34:47.970Z,14,GR86-013-80,-40.5,0.193,-0.987,99.71,2.0,,0.0,0.0,
2025-08-15T00:34:48.014Z,14,GR86-013-80,-40.2,0.288,-0.998,99.72,2.0,,0.0,0.0,
2025-08-15T00:34:48.057Z,14,GR86-013-80,-40.8,0.259,-0.947,99.71,2.0,6921.0,0.0,0.0,
2025-08-15T00:34:48.100Z,14,GR86-013-80,-41.1,0.294,-0.754,99.71,2.0,,0.0,0.0,117.85
2025-08-15T00:34:48.143Z,14,GR86-013-80,-38.900000000000006,0.283,-0.842,99.72,2.0,,0.0,0.0,
2025-08-15T00:34:48.187Z,14,GR86-013-80,-33.5,0.271,-0.6910000000000001,99.71,2.0,,0.0,0.0,
2025-08-15T00:34:48.231Z,14,GR86-013-80,-29.1,0.225,-0.834,99.72,2.0,,0.0,0.0,
2025-08-15T00:34:48.274Z,14,GR86-013-80,-29.0,0.236,-0.906,99.71,2.0,6996.0,0.0,0.0,
2025-08-15T00:34:48.317Z,14,GR86-013-80,-28.9,0.305,-0.9,99.72,2.0,,0.0,0.0,119.48
2025-08-15T00:34:48.360Z,14,GR86-013-80,-27.5,0.225,-0.956,99.74,2.0,,0.0,0.0,
2025-08-15T00:34:48.403Z,14,GR86-013-80,-24.700000000000003,0.296,-1.039,99.7,2.0,,0.0,0.0,
2025-08-15T00:34:48.447Z,14,GR86-013-80,-22.0,0.279,-0.952,99.72,2.0,,0.0,0.0,
2025-08-15T00:34:48.491Z,14,GR86-013-80,-20.6,0.092,-0.852,99.72,2.0,7143.0,0.0,0.0,
2025-08-15T00:34:48.534Z,14,GR86-013-80,-18.8,0.032,-0.676,99.73,2.0,,0.0,0.0,122.43
2025-08-15T00:34:48.577Z,14,GR86-013-80,-18.9,-0.038,-0.752,99.72,2.0,,0.0,0.0,
2025-08-15T00:34:48.621Z,14,GR86-013-80,-18.6,0.127,-0.918,99.72,2.0,,0.0,0.0,
2025-08-15T00:34:48.664Z,14,GR86-013-80,-19.0,0.163,-0.758,99.72,2.0,,0.0,0.0,
2025-08-15T00:34:48.707Z,14,GR86-013-80,-19.5,0.207,-0.746,99.74,2.0,7190.0,0.0,0.0,
2025-08-15T00:34:48.751Z,14,GR86-013-80,-19.3,0.116,-0.653,99.7,2.0,,0.0,0.0,123.82
2025-08-15T00:34:48.794Z,14,GR86-013-80,-19.4,0.144,-0.53,99.7,2.0,,0.0,0.0,
2025-08-15T00:34:48.837Z,14,GR86-013-80,-19.6,0.142,-0.549,99.74,2.0,,0.0,0.0,
2025-08-15T00:34:48.881Z,14,GR86-013-80,-17.6,-0.042,-0.683,99.72,2.0,,0.0,0.0,
2025-08-15T00:34:48.924Z,14,GR86-013-80,-12.7,0.05,-0.635,99.72,2.0,7277.0,0.0,0.0,
2025-08-15T00:34:48.967Z,14,GR86-013-80,-6.300000000000001,0.084,-0.6970000000000001,99.71,2.0,,0.0,0.0,125.0
2025-08-15T00:34:49.010Z,14,GR86-013-80,-7.7,-0.095,-0.476,99.7,3.0,,0.0,0.0,
2025-08-15T00:34:49.053Z,14,GR86-013-80,-9.1,0.238,-0.177,99.76,3.0,,0.0,0.0,
2025-08-15T00:34:49.096Z,14,GR86-013-80,-7.5,0.413,-0.472,99.75,3.0,,0.0,0.0,
2025-08-15T00:34:49.139Z,14,GR86-013-80,-5.0,0.49,-0.329,99.71,3.0,6480.0,0.0,0.0,
2025-08-15T00:34:49.182Z,14,GR86-013-80,-4.2,0.155,-0.253,99.7,3.0,,0.0,0.0,126.52
2025-08-15T00:34:49.225Z,14,GR86-013-80,-4.1000000000000005,0.138,-0.3,99.73,3.0,,0.0,0.0,
2025-08-15T00:34:49.311Z,14,GR86-013-80,2.5,0.078,-0.097,99.73,3.0,,0.0,0.0,
2025-08-15T00:34:49.354Z,14,GR86-013-80,6.800000000000001,0.246,-0.066,99.72,3.0,6139.0,0.0,0.0,
2025-08-15T00:34:49.397Z,14,GR86-013-80,8.3,0.246,-0.118,99.71,3.0,,0.0,0.0,127.54
2025-08-15T00:34:49.440Z,14,GR86-013-80,8.0,0.209,0.031,99.73,3.0,,0.0,0.0,
2025-08-15T00:34:49.483Z,14,GR86-013-80,6.9,0.174,0.1,99.73,3.0,,0.0,0.0,
2025-08-15T00:34:49.526Z,14,GR86-013-80,6.5,0.238,0.136,99.73,3.0,,0.0,0.0,
2025-08-15T00:34:49.571Z,14,GR86-013-80,5.7,0.267,0.216,99.72,3.0,6139.0,0.0,0.0,
2025-08-15T00:34:49.614Z,14,GR86-013-80,4.2,0.188,0.218,99.71,3.0,,0.0,0.0,129.69
2025-08-15T00:34:49.657Z,14,GR86-013-80,3.3000000000000003,0.168,0.191,99.72,3.0,,0.0,0.0,
2025-08-15T00:34:49.701Z,14,GR86-013-80,2.6,0.201,0.184,99.73,3.0,,0.0,0.0,
2025-08-15T00:34:49.744Z,14,GR86-013-80,2.2,0.226,0.193,99.73,3.0,,0.0,0.0,
2025-08-15T00:34:49.787Z,14,GR86-013-80,2.0,0.254,0.139,99.71,3.0,6159.0,0.0,0.0,
2025-08-15T00:34:49.831Z,14,GR86-013-80,1.9,0.232,0.09,99.71,3.0,,0.0,0.0,130.83
2025-08-15T00:34:49.874Z,14,GR86-013-80,1.8,0.184,0.052,99.72,3.0,,0.0,0.0,
2025-08-15T00:34:49.917Z,14,GR86-013-80,1.8,0.193,0.016,99.7,3.0,,0.0,0.0,
2025-08-15T00:34:49.960Z,14,GR86-013-80,1.7000000000000002,0.227,0.003,99.71,3.0,,0.0,0.0,
2025-08-15T00:34:50.003Z,14,GR86-013-80,1.7000000000000002,0.216,0.01,99.74,3.0,6200.0,0.0,0.0,
2025-08-15T00:34:50.047Z,14,GR86-013-80,1.7000000000000002,0.212,-0.051,99.74,3.0,,0.0,0.0,132.37
2025-08-15T00:34:50.091Z,14,GR86-013-80,1.7000000000000002,0.193,-0.022,99.72,3.0,,0.0,0.0,
2025-08-15T00:34:50.134Z,14,GR86-013-80,1.7000000000000002,0.191,-0.037,99.71,3.0,,0.0,0.0,
2025-08-15T00:34:50.177Z,14,GR86-013-80,1.8,0.227,-0.007,99.71,3.0,,0.0,0.0,
2025-08-15T00:34:50.221Z,14,GR86-013-80,2.1,0.21,0.034,99.73,3.0,6266.0,0.0,0.0,
2025-08-15T00:34:50.264Z,14,GR86-013-80,2.7,0.193,-0.003,99.72,3.0,,0.0,0.0,133.79
2025-08-15T00:34:50.307Z,14,GR86-013-80,3.1,0.197,-0.003,99.71,3.0,,0.0,0.0,
2025-08-15T00:34:50.351Z,14,GR86-013-80,3.5,0.191,0.021,99.74,3.0,,0.0,0.0,
2025-08-15T00:34:50.394Z,14,GR86-013-80,3.5,0.211,0.016,99.73,3.0,,0.0,0.0,
2025-08-15T00:34:50.437Z,14,GR86-013-80,3.5,0.226,0.073,99.72,3.0,6342.0,0.0,0.0,
2025-08-15T00:34:50.480Z,14,GR86-013-80,3.4000000000000004,0.183,0.056,99.72,3.0,,0.0,0.0,135.25
2025-08-15T00:34:50.523Z,14,GR86-013-80,3.4000000000000004,0.195,0.032,99.74,3.0,,0.0,0.0,
2025-08-15T00:34:50.566Z,14,GR86-013-80,3.2,0.22,0.049,99.7,3.0,,0.0,0.0,
2025-08-15T00:34:50.609Z,14,GR86-013-80,3.2,0.191,0.027,99.72,3.0,,0.0,0.0,
2025-08-15T00:34:50.652Z,14,GR86-013-80,3.1,0.219,0.045,99.74,3.0,6410.0,0.0,0.0,
2025-08-15T00:34:50.738Z,14,GR86-013-80,3.1,0.185,0.044,99.71,3.0,,0.0,0.0,136.68
2025-08-15T00:34:50.781Z,14,GR86-013-80,3.1,0.2,0.011,99.72,3.0,,0.0,0.0,
2025-08-15T00:34:50.824Z,14,GR86-013-80,3.1,0.224,0.032,99.72,3.0,,0.0,0.0,
2025-08-15T00:34:50.867Z,14,GR86-013-80,3.0,0.205,0.036,99.73,3.0,6467.0,0.0,0.0,
2025-08-15T00:34:50.910Z,14,GR86-013-80,2.8000000000000003,0.217,0.014,99.73,3.0,,0.0,0.0,138.02
2025-08-15T00:34:50.954Z,14,GR86-013-80,2.8000000000000003,0.2,0.024,99.71,3.0,,0.0,0.0,
2025-08-15T00:34:50.997Z,14,GR86-013-80,2.7,0.171,0.015,99.74,3.0,,0.0,0.0,
2025-08-15T00:34:51.041Z,14,GR86-013-80,2.7,0.204,-0.004,99.72,3.0,,0.0,0.0,
2025-08-15T00:34:51.084Z,14,GR86-013-80,2.7,0.213,0.003,99.72,3.0,6532.0,0.0,0.0,
2025-08-15T00:34:51.127Z,14,GR86-013-80,2.7,0.221,0.023,99.73,3.0,,0.0,0.0,139.32
2025-08-15T00:34:51.170Z,14,GR86-013-80,2.2,0.228,-0.001,99.71,3.0,,0.0,0.0,
2025-08-15T00:34:51.214Z,14,GR86-013-80,1.4,0.191,0.007,99.71,3.0,,0.0,0.0,
2025-08-15T00:34:51.257Z,14,GR86-013-80,1.0,0.175,-0.02,99.71,3.0,,0.0,0.0,
2025-08-15T00:34:51.300Z,14,GR86-013-80,0.7000000000000001,0.191,-0.038,99.72,3.0,6589.0,0.0,0.0,
2025-08-15T00:34:51.343Z,14,GR86-013-80,0.7000000000000001,0.224,-0.049,99.73,3.0,,0.0,0.0,142.04
2025-08-15T00:34:51.387Z,14,GR86-013-80,0.7000000000000001,0.214,-0.04,99.72,3.0,,0.0,0.0,
2025-08-15T00:34:51.431Z,14,GR86-013-80,0.7000000000000001,0.224,-0.059,99.71,3.0,,0.0,0.0,
2025-08-15T00:34:51.474Z,14,GR86-013-80,0.7000000000000001,0.215,-0.028,99.71,3.0,,0.0,0.0,
2025-08-15T00:34:51.517Z,14,GR86-013-80,0.7000000000000001,0.17,-0.018,99.7,3.0,6652.0,0.0,0.0,
2025-08-15T00:34:51.560Z,14,GR86-013-80,0.7000000000000001,0.172,-0.038,99.72,3.0,,0.0,0.0,143.42000000000002
2025-08-15T00:34:51.603Z,14,GR86-013-80,0.7000000000000001,0.209,-0.048,99.72,3.0,,0.0,0.0,
2025-08-15T00:34:51.647Z,14,GR86-013-80,0.7000000000000001,0.233,-0.036,99.72,3.0,,0.0,0.0,
2025-08-15T00:34:51.691Z,14,GR86-013-80,0.7000000000000001,0.213,-0.058,99.72,3.0,,0.0,0.0,
2025-08-15T00:34:51.734Z,14,GR86-013-80,0.7000000000000001,0.222,-0.039,99.71,3.0,6774.0,0.0,0.0,
2025-08-15T00:34:51.777Z,14,GR86-013-80,0.7000000000000001,0.189,-0.008,99.74,3.0,,0.0,0.0,144.70000000000002
2025-08-15T00:34:51.822Z,14,GR86-013-80,0.7000000000000001,0.154,-0.008,99.71,3.0,,0.0,0.0,
2025-08-15T00:34:51.865Z,14,GR86-013-80,0.7000000000000001,0.183,-0.019,99.72,3.0,,0.0,0.0,
2025-08-15T00:34:51.908Z,14,GR86-013-80,0.3,0.213,-0.053,99.71,3.0,,0.0,0.0,
2025-08-15T00:34:51.951Z,14,GR86-013-80,-0.1,0.165,-0.037,99.72,3.0,6829.0,0.0,0.0,
2025-08-15T00:34:51.994Z,14,GR86-013-80,-0.2,0.201,-0.068,99.71,3.0,,0.0,0.0,145.97
2025-08-15T00:34:52.037Z,14,GR86-013-80,-0.2,0.234,-0.069,99.7,3.0,,0.0,0.0,
2025-08-15T00:34:52.080Z,14,GR86-013-80,-0.2,0.204,-0.047,99.73,3.0,,0.0,0.0,
2025-08-15T00:34:52.123Z,14,GR86-013-80,-0.2,0.168,-0.068,99.72,3.0,,0.0,0.0,
2025-08-15T00:34:52.166Z,14,GR86-013-80,-0.2,0.156,-0.085,99.71,3.0,6885.0,0.0,0.0,
2025-08-15T00:34:52.209Z,14,GR86-013-80,-0.2,0.161,-0.084,99.72,3.0,,0.0,0.0,147.20000000000002
2025-08-15T00:34:52.253Z,14,GR86-013-80,-0.3,0.155,-0.08,99.71,3.0,,0.0,0.0,
2025-08-15T00:34:52.297Z,14,GR86-013-80,-0.3,0.188,-0.093,99.71,3.0,,0.0,0.0,
2025-08-15T00:34:52.341Z,14,GR86-013-80,-0.3,0.214,-0.091,99.74,3.0,,0.0,0.0,
2025-08-15T00:34:52.384Z,14,GR86-013-80,-0.2,0.21,-0.081,99.72,3.0,6953.0,0.0,0.0,
2025-08-15T00:34:52.427Z,14,GR86-013-80,-0.2,0.175,-0.067,99.71,3.0,,0.0,0.0,148.5
2025-08-15T00:34:52.470Z,14,GR86-013-80,-0.2,0.214,-0.066,99.7,3.0,,0.0,0.0,
2025-08-15T00:34:52.514Z,14,GR86-013-80,-0.2,0.188,-0.047,99.71,3.0,,0.0,0.0,
2025-08-15T00:34:52.557Z,14,GR86-013-80,-0.2,0.148,-0.033,99.71,3.0,,0.0,0.0,
2025-08-15T00:34:52.600Z,14,GR86-013-80,-0.3,0.143,-0.033,99.7,3.0,7000.0,0.0,0.0,
2025-08-15T00:34:52.643Z,14,GR86-013-80,-0.3,0.17,-0.069,99.72,3.0,,0.0,0.0,149.70000000000002
2025-08-15T00:34:52.686Z,14,GR86-013-80,-0.5,0.204,-0.066,99.7,3.0,,0.0,0.0,
2025-08-15T00:34:52.731Z,14,GR86-013-80,-0.7000000000000001,0.157,-0.068,99.71,3.0,,0.0,0.0,
2025-08-15T00:34:52.774Z,14,GR86-013-80,-0.7000000000000001,0.194,-0.076,99.72,3.0,,0.0,0.0,
2025-08-15T00:34:52.817Z,14,GR86-013-80,-0.7000000000000001,0.212,-0.086,99.71,3.0,7061.0,0.0,0.0,
2025-08-15T00:34:52.862Z,14,GR86-013-80,-0.7000000000000001,0.2,-0.08,99.71,3.0,,0.0,0.0,150.83
2025-08-15T00:34:52.905Z,14,GR86-013-80,-0.7000000000000001,0.172,-0.083,99.72,3.0,,0.0,0.0,
2025-08-15T00:34:52.948Z,14,GR86-013-80,-0.7000000000000001,0.133,-0.074,99.71,3.0,,0.0,0.0,
2025-08-15T00:34:52.991Z,14,GR86-013-80,-0.6000000000000001,0.188,-0.084,99.71,3.0,,0.0,0.0,
2025-08-15T00:34:53.034Z,14,GR86-013-80,-0.6000000000000001,0.166,-0.068,99.71,3.0,7101.0,0.0,0.0,
2025-08-15T00:34:53.077Z,14,GR86-013-80,-0.5,0.145,-0.091,99.7,3.0,,0.0,0.0,151.98
2025-08-15T00:34:53.120Z,14,GR86-013-80,-0.4,0.153,-0.088,99.74,3.0,,0.0,0.0,
2025-08-15T00:34:53.163Z,14,GR86-013-80,-0.3,0.191,-0.091,99.71,3.0,,0.0,0.0,
2025-08-15T00:34:53.207Z,14,GR86-013-80,-0.2,0.21,-0.073,99.74,3.0,,0.0,0.0,
2025-08-15T00:34:53.251Z,14,GR86-013-80,0.0,0.161,-0.068,99.71,3.0,7152.0,0.0,0.0,
2025-08-15T00:34:53.294Z,14,GR86-013-80,0.2,0.191,-0.057,99.72,3.0,,0.0,0.0,153.12
2025-08-15T00:34:53.337Z,14,GR86-013-80,0.4,0.197,-0.049,99.71,3.0,,0.0,0.0,
2025-08-15T00:34:53.381Z,14,GR86-013-80,0.6000000000000001,0.205,-0.029,99.7,3.0,,0.0,0.0,
2025-08-15T00:34:53.424Z,14,GR86-013-80,0.7000000000000001,0.175,-0.016,99.71,3.0,,0.0,0.0,
2025-08-15T00:34:53.467Z,14,GR86-013-80,1.0,0.144,-0.014,99.73,3.0,7208.0,0.0,0.0,
2025-08-15T00:34:53.510Z,14,GR86-013-80,1.6,0.189,0.006,99.7,3.0,,0.0,0.0,154.26
2025-08-15T00:34:53.554Z,14,GR86-013-80,2.1,0.17,0.002,99.71,3.0,,0.0,0.0,
2025-08-15T00:34:53.597Z,14,GR86-013-80,2.1,-0.048,0.026,99.7,4.0,,0.0,0.0,
2025-08-15T00:34:53.640Z,14,GR86-013-80,2.0,-0.095,0.05,99.72,4.0,,0.0,0.0,
2025-08-15T00:34:53.683Z,14,GR86-013-80,2.1,0.51,0.015,99.71,4.0,7261.0,0.0,0.0,
2025-08-15T00:34:53.727Z,14,GR86-013-80,2.2,0.311,-0.011,99.71,4.0,,0.0,0.0,155.4
2025-08-15T00:34:53.771Z,14,GR86-013-80,2.1,0.0,0.071,99.71,4.0,,0.0,0.0,
2025-08-15T00:34:53.814Z,14,GR86-013-80,2.0,0.03,0.004,99.71,4.0,,0.0,0.0,
2025-08-15T00:34:53.857Z,14,GR86-013-80,2.1,0.171,0.05,99.72,4.0,,0.0,0.0,
2025-08-15T00:34:53.901Z,14,GR86-013-80,2.1,0.275,0.079,99.71,4.0,6527.0,0.0,0.0,
2025-08-15T00:34:53.944Z,14,GR86-013-80,2.1,0.18,0.019,99.7,4.0,,0.0,0.0,157.41
2025-08-15T00:34:53.987Z,14,GR86-013-80,2.0,0.101,0.052,99.72,4.0,,0.0,0.0,
2025-08-15T00:34:54.031Z,14,GR86-013-80,1.9,0.166,0.022,99.7,4.0,,0.0,0.0,
2025-08-15T00:34:54.074Z,14,GR86-013-80,1.9,0.191,0.055,99.71,4.0,,0.0,0.0,
2025-08-15T00:34:54.117Z,14,GR86-013-80,1.8,0.168,0.065,99.71,4.0,6252.0,0.0,0.0,
2025-08-15T00:34:54.160Z,14,GR86-013-80,1.8,0.122,0.035,99.72,4.0,,0.0,0.0,158.43
2025-08-15T00:34:54.203Z,14,GR86-013-80,1.8,0.105,0.042,99.72,4.0,,0.0,0.0,
2025-08-15T00:34:54.247Z,14,GR86-013-80,1.8,0.116,0.027,99.72,4.0,,0.0,0.0,
2025-08-15T00:34:54.291Z,14,GR86-013-80,1.8,0.142,0.062,99.71,4.0,,0.0,0.0,
2025-08-15T00:34:54.334Z,14,GR86-013-80,1.8,0.135,0.033,99.7,4.0,6260.0,0.0,0.0,
2025-08-15T00:34:54.377Z,14,GR86-013-80,1.7000000000000002,0.104,0.025,99.72,4.0,,0.0,0.0,159.38
2025-08-15T00:34:54.421Z,14,GR86-013-80,1.4,0.125,0.0,99.71,4.0,,0.0,0.0,
2025-08-15T00:34:54.464Z,14,GR86-013-80,1.2000000000000002,0.141,-0.003,99.72,4.0,,0.0,0.0,
2025-08-15T00:34:54.507Z,14,GR86-013-80,1.1,0.154,0.009,99.7,4.0,,0.0,0.0,
2025-08-15T00:34:54.551Z,14,GR86-013-80,0.9,0.116,0.006,99.72,4.0,6295.0,0.0,0.0,
2025-08-15T00:34:54.594Z,14,GR86-013-80,0.7000000000000001,0.13,-0.016,99.71,4.0,,0.0,0.0,160.22
2025-08-15T00:34:54.637Z,14,GR86-013-80,0.2,0.147,-0.015,99.71,4.0,,0.0,0.0,
2025-08-15T00:34:54.723Z,14,GR86-013-80,-0.4,0.167,-0.042,99.71,4.0,,0.0,0.0,
2025-08-15T00:34:54.766Z,14,GR86-013-80,-0.9,0.155,-0.044,99.72,4.0,6337.0,0.0,0.0,
2025-08-15T00:34:54.810Z,14,GR86-013-80,-1.0,0.144,-0.091,99.71,4.0,,0.0,0.0,161.07
2025-08-15T00:34:54.854Z,14,GR86-013-80,-0.9,0.147,-0.089,99.7,4.0,,0.0,0.0,
2025-08-15T00:34:54.897Z,14,GR86-013-80,-0.9,0.163,-0.096,99.73,4.0,,0.0,0.0,
2025-08-15T00:34:54.941Z,14,GR86-013-80,-0.9,0.16,-0.083,99.71,4.0,,0.0,0.0,
2025-08-15T00:34:54.984Z,14,GR86-013-80,-0.8,0.142,-0.052,99.72,4.0,6372.0,0.0,0.0,
2025-08-15T00:34:55.027Z,14,GR86-013-80,-0.7000000000000001,0.118,-0.078,99.7,4.0,,0.0,0.0,161.98
2025-08-15T00:34:55.070Z,14,GR86-013-80,-0.7000000000000001,0.168,-0.078,99.72,4.0,,0.0,0.0,
2025-08-15T00:34:55.114Z,14,GR86-013-80,-0.7000000000000001,0.143,-0.079,99.72,4.0,,0.0,0.0,
2025-08-15T00:34:55.157Z,14,GR86-013-80,-1.0,0.147,-0.053,99.71,4.0,,0.0,0.0,
2025-08-15T00:34:55.200Z,14,GR86-013-80,-1.2000000000000002,0.128,-0.048,99.72,4.0,6404.0,0.0,0.0,
2025-08-15T00:34:55.243Z,14,GR86-013-80,-1.3,0.121,-0.08,99.71,4.0,,0.0,0.0,162.94
2025-08-15T00:34:55.287Z,14,GR86-013-80,-1.3,0.131,-0.079,99.7,4.0,,0.0,0.0,
2025-08-15T00:34:55.331Z,14,GR86-013-80,-1.2000000000000002,0.145,-0.069,99.72,4.0,,0.0,0.0,
2025-08-15T00:34:55.374Z,14,GR86-013-80,-1.2000000000000002,0.133,-0.058,99.71,4.0,,0.0,0.0,
2025-08-15T00:34:55.460Z,14,GR86-013-80,-1.1,0.123,-0.084,99.71,4.0,6449.0,0.0,0.0,163.88
2025-08-15T00:34:55.503Z,14,GR86-013-80,-1.0,0.114,-0.097,99.71,4.0,,0.0,0.0,
2025-08-15T00:34:55.546Z,14,GR86-013-80,-0.9,0.125,-0.09,99.7,4.0,,0.0,0.0,
2025-08-15T00:34:55.591Z,14,GR86-013-80,-0.7000000000000001,0.129,-0.068,99.72,4.0,,0.0,0.0,
2025-08-15T00:34:55.634Z,14,GR86-013-80,-0.6000000000000001,0.114,-0.049,99.71,4.0,6482.0,0.0,0.0,
2025-08-15T00:34:55.677Z,14,GR86-013-80,-0.5,0.131,-0.055,99.7,4.0,,0.0,0.0,164.87
2025-08-15T00:34:55.721Z,14,GR86-013-80,-0.5,0.124,-0.053,99.71,4.0,,0.0,0.0,
2025-08-15T00:34:55.807Z,14,GR86-013-80,-0.6000000000000001,0.133,-0.054,99.71,4.0,,0.0,0.0,
2025-08-15T00:34:55.851Z,14,GR86-013-80,-0.9,0.132,-0.004,99.73,4.0,6516.0,0.0,0.0,
2025-08-15T00:34:55.894Z,14,GR86-013-80,-1.1,0.111,-0.037,99.71,4.0,,0.0,0.0,165.93
2025-08-15T00:34:55.937Z,14,GR86-013-80,-1.1,0.128,-0.045,99.71,4.0,,0.0,0.0,
2025-08-15T00:34:55.980Z,14,GR86-013-80,-1.1,0.113,-0.075,99.71,4.0,,0.0,0.0,
2025-08-15T00:34:56.023Z,14,GR86-013-80,-1.1,0.128,-0.087,99.72,4.0,,0.0,0.0,
2025-08-15T00:34:56.066Z,14,GR86-013-80,-1.4,0.141,-0.118,99.72,4.0,6559.0,0.0,0.0,
2025-08-15T00:34:56.110Z,14,GR86-013-80,-3.1,0.107,-0.086,99.72,4.0,,0.0,0.0,166.83
2025-08-15T00:34:56.154Z,14,GR86-013-80,-4.2,0.112,-0.134,99.72,4.0,,0.0,0.0,
2025-08-15T00:34:56.197Z,14,GR86-013-80,-4.7,0.102,-0.149,99.7,4.0,,0.0,0.0,
2025-08-15T00:34:56.240Z,14,GR86-013-80,-4.7,0.113,-0.176,99.71,4.0,,0.0,0.0,
2025-08-15T00:34:56.283Z,14,GR86-013-80,-4.5,0.13,-0.199,99.7,4.0,6597.0,0.0,0.0,
2025-08-15T00:34:56.327Z,14,GR86-013-80,-4.3,0.13,-0.202,99.72,4.0,,0.0,0.0,167.85
2025-08-15T00:34:56.370Z,14,GR86-013-80,-4.2,0.095,-0.173,99.71,4.0,,0.0,0.0,
2025-08-15T00:34:56.414Z,14,GR86-013-80,-4.2,0.1,-0.192,99.71,4.0,,0.0,0.0,
2025-08-15T00:34:56.457Z,14,GR86-013-80,-4.0,0.102,-0.203,99.71,4.0,,0.0,0.0,
2025-08-15T00:34:56.500Z,14,GR86-013-80,-4.0,0.107,-0.211,99.72,4.0,6634.0,0.0,0.0,
2025-08-15T00:34:56.543Z,14,GR86-013-80,-4.0,0.12,-0.216,99.71,4.0,,0.0,0.0,169.76
2025-08-15T00:34:56.586Z,14,GR86-013-80,-4.0,0.114,-0.22,99.72,4.0,,0.0,0.0,
2025-08-15T00:34:56.631Z,14,GR86-013-80,-3.9,0.103,-0.181,99.7,4.0,,0.0,0.0,
2025-08-15T00:34:56.674Z,14,GR86-013-80,-3.9,0.11,-0.18,99.72,4.0,,0.0,0.0,
2025-08-15T00:34:56.717Z,14,GR86-013-80,-3.9,0.102,-0.172,99.72,4.0,6677.0,0.0,0.0,
2025-08-15T00:34:56.760Z,14,GR86-013-80,-3.9,0.103,-0.169,99.71,4.0,,0.0,0.0,170.73
2025-08-15T00:34:56.803Z,14,GR86-013-80,-3.8,0.1,-0.173,99.71,4.0,,0.0,0.0,
2025-08-15T00:34:56.846Z,14,GR86-013-80,-3.8,0.109,-0.167,99.71,4.0,,0.0,0.0,
2025-08-15T00:34:56.891Z,14,GR86-013-80,-3.6,0.14,-0.164,99.71,4.0,,0.0,0.0,
2025-08-15T00:34:56.934Z,14,GR86-013-80,-3.1,0.117,-0.161,99.72,4.0,6736.0,0.0,0.0,
2025-08-15T00:34:56.977Z,14,GR86-013-80,-2.8000000000000003,0.114,-0.152,99.71,4.0,,0.0,0.0,171.66
2025-08-15T00:34:57.020Z,14,GR86-013-80,-2.7,0.111,-0.158,99.72,4.0,,0.0,0.0,
2025-08-15T00:34:57.063Z,14,GR86-013-80,-2.7,0.102,-0.129,99.71,4.0,,0.0,0.0,
2025-08-15T00:34:57.107Z,14,GR86-013-80,-2.7,0.102,-0.146,99.72,4.0,,0.0,0.0,
2025-08-15T00:34:57.151Z,14,GR86-013-80,-2.8000000000000003,0.148,-0.149,99.7,4.0,6779.0,0.0,0.0,
2025-08-15T00:34:57.194Z,14,GR86-013-80,-2.9000000000000004,0.137,-0.143,99.71,4.0,,0.0,0.0,172.48
2025-08-15T00:34:57.237Z,14,GR86-013-80,-2.9000000000000004,0.123,-0.152,99.7,4.0,,0.0,0.0,
2025-08-15T00:34:57.281Z,14,GR86-013-80,-2.9000000000000004,0.135,-0.139,99.71,4.0,,0.0,0.0,
2025-08-15T00:34:57.324Z,14,GR86-013-80,-2.9000000000000004,0.121,-0.135,99.72,4.0,,0.0,0.0,
2025-08-15T00:34:57.367Z,14,GR86-013-80,-2.7,0.108,-0.127,99.71,4.0,6812.0,0.0,0.0,
2025-08-15T00:34:57.410Z,14,GR86-013-80,-2.5,0.129,-0.136,99.7,4.0,,0.0,0.0,173.33
2025-08-15T00:34:57.454Z,14,GR86-013-80,-2.5,0.13,-0.152,99.72,4.0,,0.0,0.0,
2025-08-15T00:34:57.497Z,14,GR86-013-80,-2.6,0.137,-0.142,99.71,4.0,,0.0,0.0,
2025-08-15T00:34:57.540Z,14,GR86-013-80,-2.9000000000000004,0.151,-0.15,99.72,4.0,,0.0,0.0,
2025-08-15T00:34:57.583Z,14,GR86-013-80,-3.4000000000000004,0.132,-0.155,99.71,4.0,6840.0,0.0,0.0,
2025-08-15T00:34:57.626Z,14,GR86-013-80,-3.5,0.149,-0.156,99.71,4.0,,0.0,0.0,174.33
2025-08-15T00:34:57.671Z,14,GR86-013-80,-3.5,0.097,-0.167,99.72,4.0,,0.0,0.0,
2025-08-15T00:34:57.714Z,14,GR86-013-80,-3.4000000000000004,0.095,-0.162,99.72,4.0,,0.0,0.0,
2025-08-15T00:34:57.757Z,14,GR86-013-80,-3.4000000000000004,0.114,-0.175,99.7,4.0,,0.0,0.0,
2025-08-15T00:34:57.801Z,14,GR86-013-80,-3.4000000000000004,0.111,-0.167,99.71,4.0,6875.0,0.0,0.0,
2025-08-15T00:34:57.887Z,14,GR86-013-80,-3.3000000000000003,0.119,-0.223,99.72,4.0,,0.0,0.0,175.25
2025-08-15T00:34:57.974Z,14,GR86-013-80,-3.0,0.117,-0.177,99.71,4.0,,0.0,0.0,
2025-08-15T00:34:58.017Z,14,GR86-013-80,-2.8000000000000003,0.099,-0.136,99.7,4.0,6914.0,0.0,0.0,
2025-08-15T00:34:58.060Z,14,GR86-013-80,-2.7,0.1,-0.182,99.71,4.0,,0.0,0.0,176.08
2025-08-15T00:34:58.103Z,14,GR86-013-80,-2.7,0.086,-0.156,99.72,4.0,,0.0,0.0,
2025-08-15T00:34:58.146Z,14,GR86-013-80,-3.0,0.087,-0.159,99.72,4.0,,0.0,0.0,
2025-08-15T00:34:58.191Z,14,GR86-013-80,-3.4000000000000004,0.133,-0.158,99.71,4.0,,0.0,0.0,
2025-08-15T00:34:58.234Z,14,GR86-013-80,-3.4000000000000004,0.128,-0.164,99.71,4.0,6945.0,0.0,0.0,
2025-08-15T00:34:58.277Z,14,GR86-013-80,-3.3000000000000003,0.138,-0.154,99.71,4.0,,0.0,0.0,176.9
2025-08-15T00:34:58.321Z,14,GR86-013-80,-3.1,0.131,-0.157,99.72,4.0,,0.0,0.0,
2025-08-15T00:34:58.364Z,14,GR86-013-80,-3.0,0.124,-0.135,99.71,4.0,,0.0,0.0,
2025-08-15T00:34:58.407Z,14,GR86-013-80,-3.1,0.106,-0.128,99.71,4.0,,0.0,0.0,
2025-08-15T00:34:58.451Z,14,GR86-013-80,-3.3000000000000003,0.08,-0.144,99.71,4.0,6984.0,0.0,0.0,
2025-08-15T00:34:58.494Z,14,GR86-013-80,-3.3000000000000003,0.084,-0.137,99.71,4.0,,0.0,0.0,177.84
2025-08-15T00:34:58.537Z,14,GR86-013-80,-3.3000000000000003,0.09,-0.146,99.7,4.0,,0.0,0.0,
2025-08-15T00:34:58.580Z,14,GR86-013-80,-3.3000000000000003,0.086,-0.159,99.71,4.0,,0.0,0.0,
2025-08-15T00:34:58.623Z,14,GR86-013-80,-3.3000000000000003,0.09,-0.186,99.71,4.0,,0.0,0.0,
2025-08-15T00:34:58.667Z,14,GR86-013-80,-3.2,0.074,-0.166,99.7,4.0,7017.0,0.0,0.0,
2025-08-15T00:34:58.710Z,14,GR86-013-80,-3.2,0.116,-0.132,99.71,4.0,,0.0,0.0,178.58
2025-08-15T00:34:58.754Z,14,GR86-013-80,-3.2,0.093,-0.126,99.71,4.0,,0.0,0.0,
2025-08-15T00:34:58.797Z,14,GR86-013-80,-3.1,0.118,-0.156,99.69,4.0,,0.0,0.0,
2025-08-15T00:34:58.842Z,14,GR86-013-80,-3.0,0.114,-0.123,99.72,4.0,,0.0,0.0,
2025-08-15T00:34:58.885Z,14,GR86-013-80,-3.1,0.107,-0.148,99.69,4.0,7034.0,0.0,0.0,
2025-08-15T00:34:58.928Z,14,GR86-013-80,-3.2,0.086,-0.137,99.71,4.0,,0.0,0.0,179.45000000000002
2025-08-15T00:34:58.971Z,14,GR86-013-80,-3.2,0.089,-0.176,99.71,4.0,,0.0,0.0,
2025-08-15T00:34:59.014Z,14,GR86-013-80,-3.2,0.109,-0.162,99.71,4.0,,0.0,0.0,
2025-08-15T00:34:59.057Z,14,GR86-013-80,-3.1,0.09,-0.162,99.73,4.0,,0.0,0.0,
2025-08-15T00:34:59.100Z,14,GR86-013-80,-2.9000000000000004,0.106,-0.169,99.72,4.0,7070.0,0.0,0.0,
2025-08-15T00:34:59.143Z,14,GR86-013-80,-2.7,0.09,-0.161,99.71,4.0,,0.0,0.0,180.96
2025-08-15T00:34:59.187Z,14,GR86-013-80,-2.5,0.101,-0.155,99.7,4.0,,0.0,0.0,
2025-08-15T00:34:59.231Z,14,GR86-013-80,-2.5,0.098,-0.141,99.71,4.0,,0.0,0.0,
2025-08-15T00:34:59.274Z,14,GR86-013-80,-2.4000000000000004,0.11,-0.095,99.71,4.0,,0.0,0.0,
2025-08-15T00:34:59.317Z,14,GR86-013-80,-2.2,0.106,-0.104,99.69,4.0,7095.0,0.0,0.0,
2025-08-15T00:34:59.360Z,14,GR86-013-80,-1.9,0.103,-0.066,99.73,4.0,,0.0,0.0,181.76
2025-08-15T00:34:59.403Z,14,GR86-013-80,-1.5,0.104,-0.075,99.7,4.0,,0.0,0.0,
2025-08-15T00:34:59.447Z,14,GR86-013-80,-1.3,0.104,-0.068,99.7,4.0,,0.0,0.0,
2025-08-15T00:34:59.491Z,14,GR86-013-80,-1.2000000000000002,0.099,-0.072,99.7,4.0,,0.0,0.0,
2025-08-15T00:34:59.534Z,14,GR86-013-80,-1.3,0.088,-0.065,99.71,4.0,7159.0,0.0,0.0,
2025-08-15T00:34:59.577Z,14,GR86-013-80,-1.3,0.091,-0.048,99.72,4.0,,0.0,0.0,182.57
2025-08-15T00:34:59.621Z,14,GR86-013-80,-1.2000000000000002,0.103,-0.044,99.72,4.0,,0.0,0.0,
2025-08-15T00:34:59.664Z,14,GR86-013-80,-1.2000000000000002,0.1,-0.056,99.7,4.0,,0.0,0.0,
2025-08-15T00:34:59.707Z,14,GR86-013-80,-1.4,0.091,-0.051,99.7,4.0,,0.0,0.0,
2025-08-15T00:34:59.751Z,14,GR86-013-80,-2.0,0.112,-0.049,99.71,4.0,7194.0,0.0,0.0,
2025-08-15T00:34:59.837Z,14,GR86-013-80,-2.2,0.112,-0.068,99.72,4.0,,0.0,0.0,183.3
2025-08-15T00:34:59.880Z,14,GR86-013-80,-2.3000000000000003,0.118,-0.091,99.72,4.0,,0.0,0.0,
2025-08-15T00:34:59.923Z,14,GR86-013-80,-2.2,0.122,-0.088,99.72,4.0,,0.0,0.0,
2025-08-15T00:34:59.966Z,14,GR86-013-80,-1.9,0.112,-0.086,99.72,4.0,7228.0,0.0,0.0,
2025-08-15T00:35:00.009Z,14,GR86-013-80,-1.1,0.083,-0.13,99.7,4.0,,0.0,0.0,183.98
2025-08-15T00:35:00.053Z,14,GR86-013-80,-0.9,-0.036,-0.131,99.68,5.0,,0.0,0.0,
2025-08-15T00:35:00.097Z,14,GR86-013-80,-0.9,-0.141,-0.083,99.72,5.0,,0.0,0.0,
2025-08-15T00:35:00.140Z,14,GR86-013-80,-0.5,0.297,-0.113,99.72,5.0,,0.0,0.0,
2025-08-15T00:35:00.183Z,14,GR86-013-80,0.0,0.204,-0.12,99.72,5.0,6869.0,0.0,0.0,
2025-08-15T00:35:00.227Z,14,GR86-013-80,0.0,0.001,-0.013,99.71,5.0,,0.0,0.0,184.88
2025-08-15T00:35:00.270Z,14,GR86-013-80,-0.1,0.062,-0.044,99.72,5.0,,0.0,0.0,
2025-08-15T00:35:00.357Z,14,GR86-013-80,0.0,0.168,0.028,99.71,5.0,,0.0,0.0,
2025-08-15T00:35:00.400Z,14,GR86-013-80,-0.4,0.081,-0.028,99.7,5.0,6389.0,0.0,0.0,
2025-08-15T00:35:00.487Z,14,GR86-013-80,-1.5,0.106,-0.025,99.73,5.0,,0.0,0.0,185.58
2025-08-15T00:35:00.531Z,14,GR86-013-80,-1.4,0.086,-0.029,99.71,5.0,,0.0,0.0,
2025-08-15T00:35:00.574Z,14,GR86-013-80,-1.2000000000000002,0.075,-0.04,99.7,5.0,,0.0,0.0,
2025-08-15T00:35:00.617Z,14,GR86-013-80,-1.1,0.085,-0.061,99.7,5.0,6344.0,0.0,0.0,
2025-08-15T00:35:00.660Z,14,GR86-013-80,-1.2000000000000002,0.093,-0.065,99.71,5.0,,0.0,0.0,186.11
2025-08-15T00:35:00.703Z,14,GR86-013-80,-1.1,0.093,-0.048,99.71,5.0,,0.0,0.0,
2025-08-15T00:35:00.747Z,14,GR86-013-80,-1.1,0.09,-0.068,99.71,5.0,,0.0,0.0,
2025-08-15T00:35:00.791Z,14,GR86-013-80,-1.0,0.074,-0.082,99.72,5.0,,0.0,0.0,
2025-08-15T00:35:00.834Z,14,GR86-013-80,-1.1,0.067,-0.088,99.71,5.0,6348.0,0.0,0.0,
2025-08-15T00:35:00.878Z,14,GR86-013-80,-1.4,0.073,-0.093,99.72,5.0,,0.0,0.0,186.9
2025-08-15T00:35:00.921Z,14,GR86-013-80,-1.5,0.064,-0.095,99.71,5.0,,0.0,0.0,
2025-08-15T00:35:00.964Z,14,GR86-013-80,-1.4,0.07,-0.112,99.72,5.0,,0.0,0.0,
2025-08-15T00:35:01.007Z,14,GR86-013-80,-1.2000000000000002,0.057,-0.093,99.7,5.0,,0.0,0.0,
2025-08-15T00:35:01.051Z,14,GR86-013-80,-1.0,0.094,-0.069,99.71,5.0,6372.0,0.0,0.0,
2025-08-15T00:35:01.094Z,14,GR86-013-80,-0.9,0.078,-0.054,99.72,5.0,,0.0,0.0,187.52
2025-08-15T00:35:01.137Z,14,GR86-013-80,-0.4,0.109,-0.042,99.73,5.0,,0.0,0.0,
2025-08-15T00:35:01.181Z,14,GR86-013-80,0.2,0.076,-0.041,99.7,5.0,,0.0,0.0,
2025-08-15T00:35:01.224Z,14,GR86-013-80,0.6000000000000001,0.099,-0.048,99.7,5.0,,0.0,0.0,
2025-08-15T00:35:01.267Z,14,GR86-013-80,0.7000000000000001,0.081,-0.061,99.71,5.0,6391.0,0.0,0.0,
2025-08-15T00:35:01.310Z,14,GR86-013-80,0.6000000000000001,0.078,-0.026,99.7,5.0,,0.0,0.0,188.31
2025-08-15T00:35:01.354Z,14,GR86-013-80,0.5,0.083,-0.011,99.71,5.0,,0.0,0.0,
2025-08-15T00:35:01.397Z,14,GR86-013-80,0.5,0.086,0.005,99.71,5.0,,0.0,0.0,
2025-08-15T00:35:01.440Z,14,GR86-013-80,0.5,0.094,0.017,99.71,5.0,,0.0,0.0,
2025-08-15T00:35:01.483Z,14,GR86-013-80,0.6000000000000001,0.094,0.033,99.71,5.0,6413.0,0.0,0.0,
2025-08-15T00:35:01.526Z,14,GR86-013-80,0.7000000000000001,0.093,0.03,99.7,5.0,,0.0,0.0,188.93
2025-08-15T00:35:01.571Z,14,GR86-013-80,0.8,0.067,0.008,99.69,5.0,,0.0,0.0,
2025-08-15T00:35:01.614Z,14,GR86-013-80,0.8,0.065,0.006,99.7,5.0,,0.0,0.0,
2025-08-15T00:35:01.657Z,14,GR86-013-80,0.7000000000000001,0.076,0.019,99.7,5.0,,0.0,0.0,
2025-08-15T00:35:01.701Z,14,GR86-013-80,0.7000000000000001,0.076,0.022,99.71,5.0,6441.0,0.0,0.0,
2025-08-15T00:35:01.744Z,14,GR86-013-80,0.6000000000000001,0.083,0.026,99.72,5.0,,0.0,0.0,190.13
2025-08-15T00:35:01.787Z,14,GR86-013-80,0.5,0.086,0.017,99.71,5.0,,0.0,0.0,
2025-08-15T00:35:01.831Z,14,GR86-013-80,0.4,0.072,-0.017,99.72,5.0,,0.0,0.0,
2025-08-15T00:35:01.874Z,14,GR86-013-80,0.4,0.07,-0.035,99.7,5.0,,0.0,0.0,
2025-08-15T00:35:01.917Z,14,GR86-013-80,0.3,0.084,-0.019,99.72,5.0,6460.0,0.0,0.0,
2025-08-15T00:35:01.960Z,14,GR86-013-80,0.3,0.075,-0.027,99.7,5.0,,0.0,0.0,190.75
2025-08-15T00:35:02.003Z,14,GR86-013-80,0.3,0.071,-0.033,99.7,5.0,,0.0,0.0,
2025-08-15T00:35:02.047Z,14,GR86-013-80,0.3,0.096,-0.03,99.71,5.0,,0.0,0.0,
2025-08-15T00:35:02.091Z,14,GR86-013-80,0.3,0.096,-0.02,99.71,5.0,,0.0,0.0,
2025-08-15T00:35:02.134Z,14,GR86-013-80,0.4,0.078,-0.022,99.71,5.0,6494.0,0.0,0.0,
2025-08-15T00:35:02.177Z,14,GR86-013-80,0.4,0.086,-0.006,99.72,5.0,,0.0,0.0,191.4
2025-08-15T00:35:02.221Z,14,GR86-013-80,0.4,0.071,-0.012,99.72,5.0,,0.0,0.0,
2025-08-15T00:35:02.264Z,14,GR86-013-80,0.3,0.073,-0.016,99.7,5.0,,0.0,0.0,
2025-08-15T00:35:02.307Z,14,GR86-013-80,0.3,0.07,-0.023,99.7,5.0,,0.0,0.0,
2025-08-15T00:35:02.351Z,14,GR86-013-80,0.3,0.083,-0.012,99.7,5.0,6534.0,0.0,0.0,
2025-08-15T00:35:02.394Z,14,GR86-013-80,0.2,0.1,-0.005,99.73,5.0,,0.0,0.0,191.96
2025-08-15T00:35:02.437Z,14,GR86-013-80,0.1,0.084,-0.027,99.72,5.0,,0.0,0.0,
2025-08-15T00:35:02.481Z,14,GR86-013-80,0.0,0.083,-0.017,99.71,5.0,,0.0,0.0,
2025-08-15T00:35:02.524Z,14,GR86-013-80,0.0,0.088,-0.025,99.71,5.0,,0.0,0.0,
2025-08-15T00:35:02.567Z,14,GR86-013-80,0.0,0.098,-0.021,99.72,5.0,6547.0,0.0,0.0,
2025-08-15T00:35:02.610Z,14,GR86-013-80,0.1,0.083,-0.038,99.72,5.0,,0.0,0.0,192.77
2025-08-15T00:35:02.653Z,14,GR86-013-80,0.0,0.085,-0.018,99.72,5.0,,0.0,0.0,
2025-08-15T00:35:02.696Z,14,GR86-013-80,-0.2,0.087,-0.028,99.71,5.0,,0.0,0.0,
2025-08-15T00:35:02.739Z,14,GR86-013-80,-0.4,0.102,-0.038,99.7,5.0,,0.0,0.0,
2025-08-15T00:35:02.784Z,14,GR86-013-80,-0.5,0.088,-0.05,99.7,5.0,6574.0,0.0,0.0,
2025-08-15T00:35:02.827Z,14,GR86-013-80,-0.6000000000000001,0.086,-0.062,99.71,5.0,,0.0,0.0,193.37
2025-08-15T00:35:02.870Z,14,GR86-013-80,-0.6000000000000001,0.079,-0.06,99.71,5.0,,0.0,0.0,
2025-08-15T00:35:02.913Z,14,GR86-013-80,-0.5,0.085,-0.076,99.72,5.0,,0.0,0.0,
2025-08-15T00:35:02.956Z,14,GR86-013-80,-0.5,0.086,-0.067,99.71,5.0,,0.0,0.0,
2025-08-15T00:35:02.999Z,14,GR86-013-80,-0.4,0.089,-0.059,99.71,5.0,6594.0,0.0,0.0,
2025-08-15T00:35:03.043Z,14,GR86-013-80,-0.4,0.095,-0.064,99.71,5.0,,0.0,0.0,194.0
2025-08-15T00:35:03.087Z,14,GR86-013-80,-0.4,0.084,-0.061,99.71,5.0,,0.0,0.0,
2025-08-15T00:35:03.131Z,14,GR86-013-80,-0.4,0.065,-0.036,99.71,5.0,,0.0,0.0,
2025-08-15T00:35:03.174Z,14,GR86-013-80,-0.3,0.076,-0.043,99.71,5.0,,0.0,0.0,
2025-08-15T00:35:03.217Z,14,GR86-013-80,-0.1,0.091,-0.007,99.74,5.0,6611.0,0.0,0.0,
2025-08-15T00:35:03.260Z,14,GR86-013-80,0.1,0.077,-0.005,99.72,5.0,,0.0,0.0,194.68
2025-08-15T00:35:03.303Z,14,GR86-013-80,0.2,0.087,0.01,99.7,5.0,,0.0,0.0,
2025-08-15T00:35:03.347Z,14,GR86-013-80,0.3,0.086,-0.002,99.7,5.0,,0.0,0.0,
2025-08-15T00:35:03.391Z,14,GR86-013-80,0.5,0.068,0.014,99.72,5.0,,0.0,0.0,
2025-08-15T00:35:03.434Z,14,GR86-013-80,0.5,0.081,-0.009,99.73,5.0,6630.0,0.0,0.0,
2025-08-15T00:35:03.477Z,14,GR86-013-80,0.5,0.074,0.02,99.7,5.0,,0.0,0.0,195.3
2025-08-15T00:35:03.521Z,14,GR86-013-80,0.4,0.072,0.001,99.71,5.0,,0.0,0.0,
2025-08-15T00:35:03.564Z,14,GR86-013-80,0.4,0.086,0.031,99.71,5.0,,0.0,0.0,
2025-08-15T00:35:03.607Z,14,GR86-013-80,0.4,0.079,0.01,99.73,5.0,,0.0,0.0,
2025-08-15T00:35:03.651Z,14,GR86-013-80,0.4,0.068,-0.004,99.7,5.0,6653.0,0.0,0.0,
2025-08-15T00:35:03.694Z,14,GR86-013-80,0.4,0.086,0.012,99.7,5.0,,0.0,0.0,195.83
2025-08-15T00:35:03.737Z,14,GR86-013-80,0.4,0.07,0.009,99.7,5.0,,0.0,0.0,
2025-08-15T00:35:03.780Z,14,GR86-013-80,0.5,0.088,0.015,99.71,5.0,,0.0,0.0,
2025-08-15T00:35:03.823Z,14,GR86-013-80,0.6000000000000001,0.089,0.006,99.71,5.0,,0.0,0.0,
2025-08-15T00:35:03.866Z,14,GR86-013-80,0.7000000000000001,0.091,0.009,99.72,5.0,6676.0,0.0,0.0,
2025-08-15T00:35:03.909Z,14,GR86-013-80,0.8,0.082,0.006,99.7,5.0,,0.0,0.0,196.38
2025-08-15T00:35:03.953Z,14,GR86-013-80,0.8,0.059,0.015,99.71,5.0,,0.0,0.0,
2025-08-15T00:35:03.996Z,14,GR86-013-80,0.9,0.071,-0.01,99.7,5.0,,0.0,0.0,
2025-08-15T00:35:04.039Z,14,GR86-013-80,1.0,0.087,0.013,99.72,5.0,,0.0,0.0,
2025-08-15T00:35:04.082Z,14,GR86-013-80,1.0,0.079,-0.005,99.7,5.0,6689.0,0.0,0.0,
2025-08-15T00:35:04.125Z,14,GR86-013-80,1.0,0.084,-0.001,99.72,5.0,,0.0,0.0,196.98
2025-08-15T00:35:04.168Z,14,GR86-013-80,1.1,0.071,0.008,99.7,5.0,,0.0,0.0,
2025-08-15T00:35:04.211Z,14,GR86-013-80,1.4,0.073,-0.001,99.7,5.0,,0.0,0.0,
2025-08-15T00:35:04.254Z,14,GR86-013-80,2.3000000000000003,0.084,0.062,99.7,5.0,,0.0,0.0,
2025-08-15T00:35:04.297Z,14,GR86-013-80,3.2,0.071,0.053,99.71,5.0,6713.0,0.0,0.0,
2025-08-15T00:35:04.340Z,14,GR86-013-80,3.7,0.083,0.044,99.7,5.0,,0.0,0.0,198.15
2025-08-15T00:35:04.383Z,14,GR86-013-80,3.8,0.085,0.086,99.71,5.0,,0.0,0.0,
2025-08-15T00:35:04.427Z,14,GR86-013-80,3.8,0.08,0.056,99.71,5.0,,0.0,0.0,
2025-08-15T00:35:04.470Z,14,GR86-013-80,3.9,0.089,0.108,99.71,5.0,,0.0,0.0,
2025-08-15T00:35:04.514Z,14,GR86-013-80,4.0,0.081,0.103,99.72,5.0,6730.0,0.0,0.0,
2025-08-15T00:35:04.557Z,14,GR86-013-80,4.2,0.09,0.12,99.71,5.0,,0.0,0.0,198.76
2025-08-15T00:35:04.600Z,14,GR86-013-80,4.5,0.093,0.153,99.72,5.0,,0.0,0.0,
2025-08-15T00:35:04.643Z,14,GR86-013-80,4.800000000000001,0.07,0.142,99.69,5.0,,0.0,0.0,
2025-08-15T00:35:04.687Z,14,GR86-013-80,5.2,0.073,0.136,99.71,5.0,,0.0,0.0,
2025-08-15T00:35:04.731Z,14,GR86-013-80,5.800000000000001,0.088,0.165,99.71,5.0,6776.0,0.0,0.0,
2025-08-15T00:35:04.774Z,14,GR86-013-80,6.1000000000000005,0.088,0.204,99.72,5.0,,0.0,0.0,199.44
2025-08-15T00:35:04.817Z,14,GR86-013-80,6.2,0.099,0.193,99.71,5.0,,0.0,0.0,
2025-08-15T00:35:04.861Z,14,GR86-013-80,6.300000000000001,0.065,0.216,99.71,5.0,,0.0,0.0,
2025-08-15T00:35:04.904Z,14,GR86-013-80,6.5,0.082,0.204,99.71,5.0,,0.0,0.0,
2025-08-15T00:35:04.947Z,14,GR86-013-80,6.7,0.049,0.225,99.71,5.0,6792.0,0.0,0.0,
2025-08-15T00:35:04.991Z,14,GR86-013-80,7.300000000000001,0.07,0.248,99.7,5.0,,0.0,0.0,200.12
2025-08-15T00:35:05.034Z,14,GR86-013-80,7.9,0.085,0.256,99.68,5.0,,0.0,0.0,
2025-08-15T00:35:05.077Z,14,GR86-013-80,8.200000000000001,0.071,0.256,99.72,5.0,,0.0,0.0,
2025-08-15T00:35:05.120Z,14,GR86-013-80,7.800000000000001,0.073,0.273,99.72,5.0,,0.0,0.0,
2025-08-15T00:35:05.163Z,14,GR86-013-80,7.300000000000001,0.049,0.264,99.71,5.0,6814.0,0.0,0.0,
2025-08-15T00:35:05.206Z,14,GR86-013-80,6.7,0.057,0.267,99.72,5.0,,0.0,0.0,200.69
2025-08-15T00:35:05.251Z,14,GR86-013-80,6.7,0.06,0.274,99.7,5.0,,0.0,0.0,
2025-08-15T00:35:05.294Z,14,GR86-013-80,6.800000000000001,0.059,0.268,99.72,5.0,,0.0,0.0,
2025-08-15T00:35:05.337Z,14,GR86-013-80,6.9,0.069,0.25,99.72,5.0,,0.0,0.0,
2025-08-15T00:35:05.381Z,14,GR86-013-80,7.2,0.057,0.237,99.71,5.0,6845.0,0.0,0.0,
2025-08-15T00:35:05.424Z,14,GR86-013-80,7.300000000000001,0.068,0.251,99.7,5.0,,0.0,0.0,201.3
2025-08-15T00:35:05.467Z,14,GR86-013-80,7.4,0.079,0.261,99.71,5.0,,0.0,0.0,
2025-08-15T00:35:05.510Z,14,GR86-013-80,7.6,0.057,0.263,99.7,5.0,,0.0,0.0,
2025-08-15T00:35:05.554Z,14,GR86-013-80,8.200000000000001,0.058,0.248,99.7,5.0,,0.0,0.0,
2025-08-15T00:35:05.597Z,14,GR86-013-80,9.3,0.074,0.28,99.71,5.0,6852.0,0.0,0.0,
2025-08-15T00:35:05.640Z,14,GR86-013-80,10.2,0.076,0.284,99.72,5.0,,0.0,0.0,201.89
2025-08-15T00:35:05.683Z,14,GR86-013-80,11.0,0.091,0.309,99.7,5.0,,0.0,0.0,
2025-08-15T00:35:05.726Z,14,GR86-013-80,11.5,0.082,0.349,99.72,5.0,,0.0,0.0,
2025-08-15T00:35:05.771Z,14,GR86-013-80,11.5,0.077,0.389,99.71,5.0,,0.0,0.0,
2025-08-15T00:35:05.814Z,14,GR86-013-80,11.3,0.076,0.388,99.7,5.0,6873.0,0.0,0.0,
2025-08-15T00:35:05.857Z,14,GR86-013-80,10.6,0.08,0.39,99.7,5.0,,0.0,0.0,202.48
2025-08-15T00:35:05.901Z,14,GR86-013-80,9.9,0.065,0.413,99.71,5.0,,0.0,0.0,
2025-08-15T00:35:05.944Z,14,GR86-013-80,8.9,0.079,0.429,99.68,5.0,,0.0,0.0,
2025-08-15T00:35:05.987Z,14,GR86-013-80,8.3,0.049,0.445,99.71,5.0,,0.0,0.0,
2025-08-15T00:35:06.031Z,14,GR86-013-80,7.9,0.077,0.389,99.72,5.0,6903.0,0.0,0.0,
2025-08-15T00:35:06.074Z,14,GR86-013-80,7.800000000000001,0.079,0.389,99.69,5.0,,0.0,0.0,202.92
2025-08-15T00:35:06.117Z,14,GR86-013-80,7.7,0.071,0.35,99.7,5.0,,0.0,0.0,
2025-08-15T00:35:06.160Z,14,GR86-013-80,7.7,0.058,0.342,99.7,5.0,,0.0,0.0,
2025-08-15T00:35:06.203Z,14,GR86-013-80,7.7,0.055,0.282,99.68,5.0,,0.0,0.0,
2025-08-15T00:35:06.247Z,14,GR86-013-80,7.7,0.065,0.277,99.69,5.0,6916.0,0.0,0.0,
2025-08-15T00:35:06.291Z,14,GR86-013-80,7.7,0.064,0.235,99.71,5.0,,0.0,0.0,203.52
2025-08-15T00:35:06.334Z,14,GR86-013-80,7.9,0.046,0.244,99.69,5.0,,0.0,0.0,
2025-08-15T00:35:06.377Z,14,GR86-013-80,8.4,0.055,0.234,99.69,5.0,,0.0,0.0,
2025-08-15T00:35:06.421Z,14,GR86-013-80,8.9,0.059,0.242,99.7,5.0,,0.0,0.0,
2025-08-15T00:35:06.464Z,14,GR86-013-80,8.9,0.062,0.272,99.68,5.0,6928.0,0.0,0.0,
2025-08-15T00:35:06.507Z,14,GR86-013-80,8.4,0.083,0.289,99.69,5.0,,0.0,0.0,204.15
2025-08-15T00:35:06.551Z,14,GR86-013-80,7.6,0.046,0.279,99.72,5.0,,0.0,0.0,
2025-08-15T00:35:06.594Z,14,GR86-013-80,7.4,0.055,0.291,99.7,5.0,,0.0,0.0,
2025-08-15T00:35:06.637Z,14,GR86-013-80,7.300000000000001,0.089,0.285,99.69,5.0,,0.0,0.0,
2025-08-15T00:35:06.680Z,14,GR86-013-80,7.4,0.078,0.311,99.72,5.0,6955.0,0.0,0.0,
2025-08-15T00:35:06.723Z,14,GR86-013-80,7.800000000000001,0.069,0.281,99.72,5.0,,0.0,0.0,204.6
2025-08-15T00:35:06.766Z,14,GR86-013-80,8.1,0.058,0.288,99.69,5.0,,0.0,0.0,
2025-08-15T00:35:06.810Z,14,GR86-013-80,7.800000000000001,0.063,0.268,99.69,5.0,,0.0,0.0,
2025-08-15T00:35:06.854Z,14,GR86-013-80,7.300000000000001,0.07,0.274,99.68,5.0,,0.0,0.0,
2025-08-15T00:35:06.897Z,14,GR86-013-80,6.7,0.059,0.251,99.7,5.0,6965.0,0.0,0.0,
2025-08-15T00:35:06.941Z,14,GR86-013-80,5.800000000000001,0.057,0.231,99.68,5.0,,0.0,0.0,205.71
2025-08-15T00:35:06.984Z,14,GR86-013-80,5.300000000000001,0.059,0.242,99.69,5.0,,0.0,0.0,
2025-08-15T00:35:07.027Z,14,GR86-013-80,5.1000000000000005,0.049,0.244,99.72,5.0,,0.0,0.0,
2025-08-15T00:35:07.070Z,14,GR86-013-80,4.9,0.058,0.242,99.69,5.0,,0.0,0.0,
2025-08-15T00:35:07.114Z,14,GR86-013-80,5.0,0.052,0.232,99.69,5.0,6995.0,0.0,0.0,
2025-08-15T00:35:07.157Z,14,GR86-013-80,5.4,0.053,0.213,99.72,5.0,,0.0,0.0,206.37
2025-08-15T00:35:07.200Z,14,GR86-013-80,5.9,0.071,0.186,99.7,5.0,,0.0,0.0,
2025-08-15T00:35:07.243Z,14,GR86-013-80,7.300000000000001,0.063,0.196,99.68,5.0,,0.0,0.0,
2025-08-15T00:35:07.286Z,14,GR86-013-80,8.5,0.084,0.171,99.72,5.0,,0.0,0.0,
2025-08-15T00:35:07.331Z,14,GR86-013-80,9.3,0.046,0.182,99.69,5.0,7025.0,0.0,0.0,
2025-08-15T00:35:07.374Z,14,GR86-013-80,9.0,0.061,0.239,99.7,5.0,,0.0,0.0,207.22
2025-08-15T00:35:07.417Z,14,GR86-013-80,8.4,0.091,0.265,99.69,5.0,,0.0,0.0,
2025-08-15T00:35:07.460Z,14,GR86-013-80,7.7,0.068,0.295,99.69,5.0,,0.0,0.0,
2025-08-15T00:35:07.503Z,14,GR86-013-80,7.300000000000001,0.078,0.29,99.72,5.0,,0.0,0.0,
2025-08-15T00:35:07.547Z,14,GR86-013-80,7.2,0.031,0.307,99.69,5.0,7059.0,0.0,0.0,
2025-08-15T00:35:07.591Z,14,GR86-013-80,7.5,0.077,0.341,99.72,5.0,,0.0,0.0,207.64
2025-08-15T00:35:07.634Z,14,GR86-013-80,7.800000000000001,0.081,0.333,99.69,5.0,,0.0,0.0,
2025-08-15T00:35:07.721Z,14,GR86-013-80,8.1,0.055,0.307,99.69,5.0,,0.0,0.0,
2025-08-15T00:35:07.764Z,14,GR86-013-80,8.5,0.041,0.276,95.29,5.0,7078.0,0.0,0.0,
2025-08-15T00:35:07.807Z,14,GR86-013-80,8.6,0.071,0.283,55.67,5.0,,0.0,0.0,208.47
2025-08-15T00:35:07.851Z,14,GR86-013-80,8.5,0.06,0.265,39.34,5.0,,0.0,0.0,
2025-08-15T00:35:07.894Z,14,GR86-013-80,8.200000000000001,0.039,0.277,32.77,5.0,,3.815,4.0,
2025-08-15T00:35:07.937Z,14,GR86-013-80,7.9,-0.011,0.284,8.61,5.0,,7.140000000000001,7.295,
2025-08-15T00:35:07.980Z,14,GR86-013-80,7.5,-0.109,0.312,4.47,5.0,7100.0,10.59,10.47,
2025-08-15T00:35:08.023Z,14,GR86-013-80,5.4,-0.253,0.279,4.43,5.0,,17.395,17.455000000000002,208.99
2025-08-15T00:35:08.067Z,14,GR86-013-80,3.5,-0.418,0.294,4.24,5.0,,27.115,26.965,
2025-08-15T00:35:08.110Z,14,GR86-013-80,2.5,-0.8180000000000001,0.184,3.81,5.0,,39.125,38.775,
2025-08-15T00:35:08.154Z,14,GR86-013-80,2.3000000000000003,-0.834,0.145,3.56,5.0,,45.595,45.125,
2025-08-15T00:35:08.197Z,14,GR86-013-80,2.3000000000000003,-0.898,0.129,3.35,5.0,6716.0,52.645,52.145,
2025-08-15T00:35:08.240Z,14,GR86-013-80,2.3000000000000003,-1.089,0.077,3.19,5.0,,60.615,59.865,208.9
2025-08-15T00:35:08.283Z,14,GR86-013-80,2.6,-1.181,0.089,2.98,5.0,,68.09,67.295,
2025-08-15T00:35:08.327Z,14,GR86-013-80,3.0,-1.256,0.031,2.79,5.0,,72.605,71.8,
2025-08-15T00:35:08.370Z,14,GR86-013-80,2.9000000000000004,-1.263,0.089,2.57,5.0,,75.81,77.46000000000001,
2025-08-15T00:35:08.414Z,14,GR86-013-80,2.9000000000000004,-1.26,0.074,2.48,5.0,6538.0,75.995,77.17,
2025-08-15T00:35:08.457Z,14,GR86-013-80,2.9000000000000004,-1.253,0.076,2.44,5.0,,76.21000000000001,77.4,203.72
2025-08-15T00:35:08.500Z,14,GR86-013-80,3.1,-1.199,0.029,2.44,5.0,,75.37,76.145,
2025-08-15T00:35:08.543Z,14,GR86-013-80,2.8000000000000003,-1.275,0.032,3.26,5.0,,75.005,76.42,
2025-08-15T00:35:08.587Z,14,GR86-013-80,1.3,-1.204,0.094,40.68,5.0,,72.24,73.14,
2025-08-15T00:35:08.631Z,14,GR86-013-80,0.4,-1.171,0.09,99.04,5.0,6095.0,65.235,65.895,
2025-08-15T00:35:08.674Z,14,GR86-013-80,-0.2,-1.154,0.099,93.49,4.0,,60.43,61.79,195.05
2025-08-15T00:35:08.717Z,14,GR86-013-80,-0.6000000000000001,-1.185,0.022,24.44,4.0,,57.925,59.515,
2025-08-15T00:35:08.760Z,14,GR86-013-80,-0.5,-1.256,0.069,3.13,4.0,,57.3,58.995000000000005,
2025-08-15T00:35:08.803Z,14,GR86-013-80,4.0,-0.982,0.135,2.79,4.0,,54.8,55.18,
2025-08-15T00:35:08.846Z,14,GR86-013-80,7.9,-1.122,0.011,2.7,4.0,5985.0,52.370000000000005,53.06,
2025-08-15T00:35:08.934Z,14,GR86-013-80,7.6,-1.014,0.044,2.63,4.0,,52.77,53.805,186.65
2025-08-15T00:35:08.978Z,14,GR86-013-80,6.6000000000000005,-1.026,0.122,2.6,4.0,,53.15,53.99,
2025-08-15T00:35:09.021Z,14,GR86-013-80,6.0,-1.073,0.098,2.6,4.0,,53.835,54.495000000000005,
2025-08-15T00:35:09.064Z,14,GR86-013-80,5.7,-1.083,0.065,2.57,4.0,6836.0,54.585,55.01,
2025-08-15T00:35:09.107Z,14,GR86-013-80,5.2,-1.163,0.13,2.57,4.0,,55.915,56.155,180.2
2025-08-15T00:35:09.151Z,14,GR86-013-80,4.1000000000000005,-1.118,0.088,2.54,4.0,,57.685,57.805,
2025-08-15T00:35:09.194Z,14,GR86-013-80,4.0,-1.135,0.111,2.54,4.0,,58.4,58.615,
2025-08-15T00:35:09.238Z,14,GR86-013-80,4.800000000000001,-1.142,0.122,2.54,4.0,,59.085,59.39,
2025-08-15T00:35:09.281Z,14,GR86-013-80,7.5,-1.134,0.185,2.54,4.0,6318.0,60.14,60.43,
2025-08-15T00:35:09.324Z,14,GR86-013-80,9.3,-1.146,0.201,6.61,4.0,,61.68,61.74,173.04
2025-08-15T00:35:09.367Z,14,GR86-013-80,9.4,-1.155,0.256,47.51,4.0,,63.025,62.965,
2025-08-15T00:35:09.410Z,14,GR86-013-80,7.7,-1.14,0.212,99.73,4.0,,64.67,64.64,
2025-08-15T00:35:09.454Z,14,GR86-013-80,7.5,-1.151,0.244,78.5,3.0,,65.025,65.115,
2025-08-15T00:35:09.497Z,14,GR86-013-80,7.5,-1.116,0.183,5.91,3.0,6155.0,66.33500000000001,67.235,
2025-08-15T00:35:09.540Z,14,GR86-013-80,7.4,-1.209,0.241,3.08,3.0,,68.595,70.09,158.28
2025-08-15T00:35:09.583Z,14,GR86-013-80,6.300000000000001,-1.184,0.304,2.95,3.0,,69.16,69.495,
2025-08-15T00:35:09.627Z,14,GR86-013-80,4.5,-1.267,0.25,2.82,3.0,,67.615,68.15,
2025-08-15T00:35:09.671Z,14,GR86-013-80,1.8,-1.119,0.374,2.7,3.0,,68.715,69.4,
2025-08-15T00:35:09.714Z,14,GR86-013-80,1.5,-1.116,0.23,2.65,3.0,6324.0,67.145,67.785,
2025-08-15T00:35:09.757Z,14,GR86-013-80,1.5,-1.132,0.395,2.6,3.0,,67.94,68.84,151.6
2025-08-15T00:35:09.801Z,14,GR86-013-80,1.5,-1.142,0.303,2.57,3.0,,68.535,69.58500000000001,
2025-08-15T00:35:09.844Z,14,GR86-013-80,1.7000000000000002,-1.195,0.262,2.54,3.0,,69.8,70.96000000000001,
2025-08-15T00:35:09.887Z,14,GR86-013-80,3.2,-1.17,0.304,2.54,3.0,,70.625,70.93,
2025-08-15T00:35:09.931Z,14,GR86-013-80,7.2,-1.212,0.203,2.51,3.0,6192.0,74.62,74.925,
2025-08-15T00:35:09.974Z,14,GR86-013-80,8.9,-1.242,0.285,2.52,3.0,,77.885,78.605,143.76
2025-08-15T00:35:10.017Z,14,GR86-013-80,9.2,-1.268,0.25,2.5,3.0,,79.305,79.275,
2025-08-15T00:35:10.060Z,14,GR86-013-80,9.0,-1.29,0.254,2.5,3.0,,79.995,79.96000000000001,
2025-08-15T00:35:10.103Z,14,GR86-013-80,8.6,-1.204,0.22,2.51,3.0,,80.68,81.58,
2025-08-15T00:35:10.146Z,14,GR86-013-80,8.700000000000001,-1.245,0.267,4.0200000000000005,3.0,5841.0,80.865,81.425,
2025-08-15T00:35:10.191Z,14,GR86-013-80,9.2,-1.225,0.293,64.66,3.0,,79.305,79.185,135.09
2025-08-15T00:35:10.234Z,14,GR86-013-80,8.5,-1.268,0.276,96.21,2.0,,78.635,78.605,
2025-08-15T00:35:10.277Z,14,GR86-013-80,6.800000000000001,-1.289,0.258,39.8,2.0,,78.545,79.14,
2025-08-15T00:35:10.321Z,14,GR86-013-80,6.2,-1.316,0.209,3.17,2.0,,79.595,81.155,
2025-08-15T00:35:10.364Z,14,GR86-013-80,6.4,-1.397,0.321,2.63,2.0,5692.0,79.96000000000001,81.625,
2025-08-15T00:35:10.407Z,14,GR86-013-80,7.5,-1.218,0.34,2.58,2.0,,74.025,74.62,127.72
2025-08-15T00:35:10.451Z,14,GR86-013-80,7.7,-1.108,0.435,2.54,2.0,,73.14,74.805,
2025-08-15T00:35:10.494Z,14,GR86-013-80,7.9,-1.12,0.444,2.54,2.0,,71.525,71.86,
2025-08-15T00:35:10.537Z,14,GR86-013-80,10.2,-1.05,0.494,2.54,2.0,,70.99,71.615,
2025-08-15T00:35:10.581Z,14,GR86-013-80,11.7,-1.147,0.615,2.54,2.0,6073.0,71.77,73.34,
2025-08-15T00:35:10.624Z,14,GR86-013-80,12.2,-0.989,0.469,2.54,2.0,,68.18,69.22,119.21
2025-08-15T00:35:10.667Z,14,GR86-013-80,15.1,-1.168,0.537,2.54,2.0,,68.06,68.745,
2025-08-15T00:35:10.710Z,14,GR86-013-80,22.200000000000003,-1.034,0.477,2.54,2.0,,68.535,69.875,
2025-08-15T00:35:10.754Z,14,GR86-013-80,25.8,-1.094,0.539,2.53,2.0,,67.525,68.99,
2025-08-15T00:35:10.797Z,14,GR86-013-80,27.4,-1.096,0.538,2.5,2.0,6039.0,68.535,69.19,
2025-08-15T00:35:10.842Z,14,GR86-013-80,30.4,-1.095,0.506,2.52,2.0,,68.685,69.13,111.84
2025-08-15T00:35:10.885Z,14,GR86-013-80,35.9,-1.088,0.544,2.52,2.0,,65.175,66.075,
2025-08-15T00:35:10.928Z,14,GR86-013-80,38.6,-1.131,0.541,2.51,2.0,,63.8,64.61,
2025-08-15T00:35:10.971Z,14,GR86-013-80,43.900000000000006,-1.086,0.653,2.53,2.0,,62.870000000000005,63.205,
2025-08-15T00:35:11.014Z,14,GR86-013-80,47.0,-1.046,0.6890000000000001,2.53,2.0,5641.0,59.68,60.705,
2025-08-15T00:35:11.057Z,14,GR86-013-80,49.8,-0.93,0.677,2.52,2.0,,56.25,57.65,104.45
2025-08-15T00:35:11.100Z,14,GR86-013-80,52.3,-0.9,0.876,2.51,2.0,,49.795,51.335,
2025-08-15T00:35:11.143Z,14,GR86-013-80,52.900000000000006,-0.762,0.9,2.53,2.0,,42.605,43.995,
2025-08-15T00:35:11.187Z,14,GR86-013-80,53.2,-0.712,0.898,2.5,2.0,,33.910000000000004,35.145,
2025-08-15T00:35:11.231Z,14,GR86-013-80,57.1,-0.533,1.015,2.51,2.0,5170.0,21.9,22.965,
2025-08-15T00:35:11.274Z,14,GR86-013-80,62.400000000000006,-0.558,0.975,2.51,2.0,,19.075,19.9,97.45
2025-08-15T00:35:11.317Z,14,GR86-013-80,67.4,-0.5760000000000001,0.961,2.51,2.0,,18.77,19.485,
2025-08-15T00:35:11.360Z,14,GR86-013-80,69.8,-0.546,1.034,2.5,2.0,,18.235,18.89,
2025-08-15T00:35:11.403Z,14,GR86-013-80,70.0,-0.517,0.988,2.5,2.0,,15.395,16.145,
2025-08-15T00:35:11.446Z,14,GR86-013-80,70.0,-0.457,1.104,2.5,2.0,4791.0,9.905,10.59,
2025-08-15T00:35:11.491Z,14,GR86-013-80,69.8,-0.295,1.088,2.5,2.0,,0.0,1.925,92.01
2025-08-15T00:35:11.534Z,14,GR86-013-80,69.60000000000001,-0.215,1.161,2.5,2.0,,0.0,0.0,
2025-08-15T00:35:11.577Z,14,GR86-013-80,68.60000000000001,-0.174,1.164,2.5,2.0,,0.0,0.0,
2025-08-15T00:35:11.621Z,14,GR86-013-80,68.0,-0.139,1.152,2.54,2.0,,0.0,0.0,
2025-08-15T00:35:11.664Z,14,GR86-013-80,67.9,-0.143,1.169,2.85,2.0,4708.0,0.0,0.0,
2025-08-15T00:35:11.707Z,14,GR86-013-80,68.0,-0.148,1.189,4.03,2.0,,0.0,0.0,88.09
2025-08-15T00:35:11.751Z,14,GR86-013-80,72.60000000000001,-0.159,1.206,4.58,2.0,,0.0,0.0,
2025-08-15T00:35:11.794Z,14,GR86-013-80,77.7,-0.161,1.225,4.68,2.0,,0.0,0.0,
2025-08-15T00:35:11.837Z,14,GR86-013-80,84.4,-0.157,1.232,4.79,2.0,,0.0,0.0,
2025-08-15T00:35:11.880Z,14,GR86-013-80,91.6,-0.162,1.188,4.9,2.0,4701.0,0.0,0.0,
2025-08-15T00:35:11.923Z,14,GR86-013-80,97.1,-0.158,1.14,4.95,2.0,,0.0,0.0,86.18
2025-08-15T00:35:11.966Z,14,GR86-013-80,99.3,-0.164,1.204,4.98,2.0,,0.0,0.0,
2025-08-15T00:35:12.009Z,14,GR86-013-80,99.3,-0.183,1.31,15.69,2.0,,0.0,0.0,
2025-08-15T00:35:12.053Z,14,GR86-013-80,100.1,-0.163,1.268,20.49,2.0,,0.0,0.0,
2025-08-15T00:35:12.097Z,14,GR86-013-80,102.9,-0.162,1.283,20.55,2.0,4635.0,0.0,0.0,
2025-08-15T00:35:12.140Z,14,GR86-013-80,105.9,-0.139,1.305,20.91,2.0,,0.0,0.0,83.22
2025-08-15T00:35:12.183Z,14,GR86-013-80,107.2,-0.137,1.289,21.27,2.0,,0.0,0.0,
2025-08-15T00:35:12.227Z,14,GR86-013-80,107.3,-0.141,1.337,21.77,2.0,,0.0,0.0,
2025-08-15T00:35:12.270Z,14,GR86-013-80,105.4,0.03,1.23,23.4,2.0,,0.0,0.0,
2025-08-15T00:35:12.314Z,14,GR86-013-80,101.8,0.174,1.213,23.64,2.0,4569.0,0.0,0.0,
2025-08-15T00:35:12.357Z,14,GR86-013-80,96.3,0.158,1.212,26.13,2.0,,0.0,0.0,82.10000000000001
2025-08-15T00:35:12.400Z,14,GR86-013-80,90.7,0.148,1.079,29.28,2.0,,0.0,0.0,
2025-08-15T00:35:12.443Z,14,GR86-013-80,84.80000000000001,0.068,1.233,31.79,2.0,,0.0,0.0,
2025-08-15T00:35:12.486Z,14,GR86-013-80,80.30000000000001,0.062,1.116,32.37,2.0,,0.0,0.0,
2025-08-15T00:35:12.531Z,14,GR86-013-80,78.4,0.17,1.152,32.34,2.0,4763.0,0.0,0.0,
2025-08-15T00:35:12.574Z,14,GR86-013-80,79.30000000000001,0.117,1.201,32.27,2.0,,0.0,0.0,81.43
2025-08-15T00:35:12.617Z,14,GR86-013-80,83.0,0.278,1.172,32.2,2.0,,0.0,0.0,
2025-08-15T00:35:12.660Z,14,GR86-013-80,83.10000000000001,0.047,1.32,36.04,2.0,,0.0,0.0,
2025-08-15T00:35:12.703Z,14,GR86-013-80,81.5,0.13,1.355,46.94,2.0,,0.0,0.0,
2025-08-15T00:35:12.747Z,14,GR86-013-80,76.9,0.269,1.286,60.95,2.0,4835.0,0.0,0.0,
2025-08-15T00:35:12.791Z,14,GR86-013-80,74.10000000000001,0.169,1.142,99.58,2.0,,0.0,0.0,82.07000000000001
2025-08-15T00:35:12.834Z,14,GR86-013-80,74.10000000000001,0.202,1.303,99.7,2.0,,0.0,0.0,
2025-08-15T00:35:12.877Z,14,GR86-013-80,74.60000000000001,0.249,1.135,99.7,2.0,,0.0,0.0,
2025-08-15T00:35:12.920Z,14,GR86-013-80,74.8,0.241,1.248,99.69,2.0,,0.0,0.0,
2025-08-15T00:35:12.964Z,14,GR86-013-80,74.4,0.294,1.137,99.67,2.0,4906.0,0.0,0.0,
2025-08-15T00:35:13.007Z,14,GR86-013-80,72.7,0.172,1.16,99.69,2.0,,0.0,0.0,83.48
2025-08-15T00:35:13.051Z,14,GR86-013-80,72.9,0.231,1.116,99.71,2.0,,0.0,0.0,
2025-08-15T00:35:13.094Z,14,GR86-013-80,76.9,0.251,1.135,99.71,2.0,,0.0,0.0,
2025-08-15T00:35:13.137Z,14,GR86-013-80,80.9,0.268,1.064,99.7,2.0,,0.0,0.0,
2025-08-15T00:35:13.181Z,14,GR86-013-80,82.4,0.255,1.093,99.71,2.0,4995.0,0.0,0.0,
2025-08-15T00:35:13.224Z,14,GR86-013-80,82.4,0.234,1.125,99.7,2.0,,0.0,0.0,84.78
2025-08-15T00:35:13.267Z,14,GR86-013-80,79.4,0.234,1.15,99.68,2.0,,0.0,0.0,
2025-08-15T00:35:13.310Z,14,GR86-013-80,75.8,0.251,1.125,99.71,2.0,,0.0,0.0,
2025-08-15T00:35:13.354Z,14,GR86-013-80,75.4,0.262,1.147,99.71,2.0,,0.0,0.0,
2025-08-15T00:35:13.397Z,14,GR86-013-80,75.3,0.272,1.13,99.7,2.0,5079.0,0.0,0.0,
2025-08-15T00:35:13.440Z,14,GR86-013-80,75.10000000000001,0.247,1.103,99.68,2.0,,0.0,0.0,86.44
2025-08-15T00:35:13.483Z,14,GR86-013-80,73.9,0.221,1.146,99.67,2.0,,0.0,0.0,
2025-08-15T00:35:13.527Z,14,GR86-013-80,71.3,0.226,1.193,99.71,2.0,,0.0,0.0,
2025-08-15T00:35:13.571Z,14,GR86-013-80,64.0,0.226,1.124,99.71,2.0,,0.0,0.0,
2025-08-15T00:35:13.614Z,14,GR86-013-80,57.6,0.264,1.167,99.69,2.0,5191.0,0.0,0.0,
2025-08-15T00:35:13.657Z,14,GR86-013-80,51.7,0.289,1.124,99.7,2.0,,0.0,0.0,88.0
2025-08-15T00:35:13.701Z,14,GR86-013-80,48.6,0.278,1.167,99.72,2.0,,0.0,0.0,
2025-08-15T00:35:13.744Z,14,GR86-013-80,47.8,0.278,1.214,99.71,2.0,,0.0,0.0,
2025-08-15T00:35:13.831Z,14,GR86-013-80,47.3,0.28,1.24,99.7,2.0,5337.0,0.0,0.0,
2025-08-15T00:35:13.874Z,14,GR86-013-80,36.8,0.283,1.184,99.71,2.0,,0.0,0.0,89.55
2025-08-15T00:35:13.917Z,14,GR86-013-80,32.6,0.263,1.051,99.72,2.0,,0.0,0.0,
2025-08-15T00:35:13.960Z,14,GR86-013-80,31.700000000000003,0.256,1.126,99.72,2.0,,0.0,0.0,
2025-08-15T00:35:14.003Z,14,GR86-013-80,35.2,0.246,0.941,99.72,2.0,,0.0,0.0,
2025-08-15T00:35:14.091Z,14,GR86-013-80,40.8,0.227,0.683,99.73,2.0,5391.0,0.0,0.0,91.04
2025-08-15T00:35:14.134Z,14,GR86-013-80,46.400000000000006,0.138,0.471,99.72,2.0,,0.0,0.0,
2025-08-15T00:35:14.177Z,14,GR86-013-80,40.5,0.158,0.704,99.71,2.0,,0.0,0.0,
2025-08-15T00:35:14.221Z,14,GR86-013-80,31.5,0.272,0.961,99.71,2.0,,0.0,0.0,
2025-08-15T00:35:14.264Z,14,GR86-013-80,20.0,0.42,0.955,99.71,2.0,5522.0,0.0,0.0,
2025-08-15T00:35:14.307Z,14,GR86-013-80,10.7,0.396,0.611,99.71,2.0,,0.0,0.0,92.03
2025-08-15T00:35:14.351Z,14,GR86-013-80,3.1,0.426,0.972,99.7,2.0,,0.0,0.0,
2025-08-15T00:35:14.394Z,14,GR86-013-80,2.7,0.628,0.636,99.71,2.0,,0.0,0.0,
2025-08-15T00:35:14.437Z,14,GR86-013-80,8.9,0.4,0.488,99.74,2.0,,0.0,0.0,
2025-08-15T00:35:14.480Z,14,GR86-013-80,16.6,0.065,0.556,99.73,2.0,5620.0,0.0,0.0,
2025-08-15T00:35:14.523Z,14,GR86-013-80,23.3,-0.087,0.218,99.74,2.0,,0.0,0.0,93.47
2025-08-15T00:35:14.566Z,14,GR86-013-80,24.0,0.064,0.86,99.71,2.0,,0.0,0.0,
2025-08-15T00:35:14.610Z,14,GR86-013-80,7.1000000000000005,-0.054,1.12,99.7,2.0,,0.0,0.0,
2025-08-15T00:35:14.654Z,14,GR86-013-80,-8.3,-0.124,0.955,99.7,2.0,,0.0,0.0,
2025-08-15T00:35:14.697Z,14,GR86-013-80,-12.0,0.29,1.146,99.73,2.0,5752.0,0.0,0.0,
2025-08-15T00:35:14.741Z,14,GR86-013-80,-4.800000000000001,0.608,0.8250000000000001,99.73,2.0,,0.0,0.0,95.6
2025-08-15T00:35:14.784Z,14,GR86-013-80,8.5,0.872,0.761,99.72,2.0,,0.0,0.0,
2025-08-15T00:35:14.827Z,14,GR86-013-80,21.200000000000003,0.749,0.746,99.74,2.0,,0.0,0.0,
2025-08-15T00:35:14.870Z,14,GR86-013-80,31.5,0.158,0.33,99.75,2.0,,0.0,0.0,
2025-08-15T00:35:14.913Z,14,GR86-013-80,33.0,0.355,0.267,99.72,2.0,6016.0,0.0,0.0,
2025-08-15T00:35:14.957Z,14,GR86-013-80,32.2,0.276,0.522,99.71,2.0,,0.0,0.0,97.43
2025-08-15T00:35:15.000Z,14,GR86-013-80,30.5,0.454,0.429,99.72,2.0,,0.0,0.0,
2025-08-15T00:35:15.043Z,14,GR86-013-80,29.8,0.112,0.311,99.71,2.0,,0.0,0.0,
2025-08-15T00:35:15.086Z,14,GR86-013-80,26.5,0.104,0.277,99.7,2.0,,0.0,0.0,
2025-08-15T00:35:15.131Z,14,GR86-013-80,18.2,0.8290000000000001,0.254,99.73,2.0,6116.0,0.0,0.0,
2025-08-15T00:35:15.174Z,14,GR86-013-80,13.6,0.604,0.233,99.73,2.0,,0.0,0.0,99.19
2025-08-15T00:35:15.217Z,14,GR86-013-80,11.4,0.522,0.298,99.72,2.0,,0.0,0.0,
2025-08-15T00:35:15.303Z,14,GR86-013-80,11.3,0.031,0.102,99.71,2.0,,0.0,0.0,
2025-08-15T00:35:15.347Z,14,GR86-013-80,10.7,0.154,0.367,99.74,2.0,5976.0,0.0,0.0,
2025-08-15T00:35:15.391Z,14,GR86-013-80,9.2,0.748,0.439,99.75,2.0,,0.0,0.0,100.82
2025-08-15T00:35:15.434Z,14,GR86-013-80,7.9,0.639,0.392,99.74,2.0,,0.0,0.0,
2025-08-15T00:35:15.477Z,14,GR86-013-80,7.300000000000001,0.394,0.336,99.74,2.0,,0.0,0.0,
2025-08-15T00:35:15.521Z,14,GR86-013-80,7.800000000000001,0.18,0.18,99.73,2.0,,0.0,0.0,
2025-08-15T00:35:15.564Z,14,GR86-013-80,8.4,-0.02,0.157,99.72,2.0,5949.0,0.0,0.0,
2025-08-15T00:35:15.607Z,14,GR86-013-80,8.6,-0.173,0.058,99.72,2.0,,0.0,0.0,103.0
2025-08-15T00:35:15.651Z,14,GR86-013-80,7.9,0.742,0.173,99.72,2.0,,0.0,0.0,
2025-08-15T00:35:15.694Z,14,GR86-013-80,5.300000000000001,0.65,0.176,99.74,2.0,,0.0,0.0,
2025-08-15T00:35:15.738Z,14,GR86-013-80,1.2000000000000002,0.662,0.196,99.74,2.0,,0.0,0.0,
2025-08-15T00:35:15.781Z,14,GR86-013-80,-1.7000000000000002,0.541,0.122,99.73,2.0,6360.0,0.0,0.0,
2025-08-15T00:35:15.824Z,14,GR86-013-80,-3.0,0.379,0.167,99.72,2.0,,0.0,0.0,104.18
2025-08-15T00:35:15.868Z,14,GR86-013-80,-3.0,0.316,0.157,99.72,2.0,,0.0,0.0,
2025-08-15T00:35:15.911Z,14,GR86-013-80,-2.1,0.26,-0.016,99.7,2.0,,0.0,0.0,
2025-08-15T00:35:15.954Z,14,GR86-013-80,-1.8,0.336,-0.042,99.71,2.0,,0.0,0.0,
2025-08-15T00:35:15.997Z,14,GR86-013-80,-1.1,0.43,-0.122,99.72,2.0,6177.0,0.0,0.0,
2025-08-15T00:35:16.040Z,14,GR86-013-80,-0.4,0.487,-0.157,99.72,2.0,,0.0,0.0,106.66
2025-08-15T00:35:16.083Z,14,GR86-013-80,0.3,0.475,-0.19,99.73,2.0,,0.0,0.0,
2025-08-15T00:35:16.127Z,14,GR86-013-80,1.0,0.448,-0.185,99.73,2.0,,0.0,0.0,
2025-08-15T00:35:16.170Z,14,GR86-013-80,2.3000000000000003,0.18,-0.083,99.74,2.0,,0.0,0.0,
2025-08-15T00:35:16.214Z,14,GR86-013-80,2.6,0.23,-0.083,99.73,2.0,6354.0,0.0,0.0,
2025-08-15T00:35:16.257Z,14,GR86-013-80,2.1,0.255,-0.08,99.71,2.0,,0.0,0.0,108.11
2025-08-15T00:35:16.300Z,14,GR86-013-80,0.7000000000000001,0.217,-0.069,99.73,2.0,,0.0,0.0,
2025-08-15T00:35:16.343Z,14,GR86-013-80,-0.2,0.222,-0.092,99.71,2.0,,0.0,0.0,
2025-08-15T00:35:16.387Z,14,GR86-013-80,-0.6000000000000001,0.255,-0.066,99.72,2.0,,0.0,0.0,
2025-08-15T00:35:16.431Z,14,GR86-013-80,-0.7000000000000001,0.285,-0.05,99.74,2.0,6379.0,0.0,0.0,
2025-08-15T00:35:16.474Z,14,GR86-013-80,-0.8,0.308,-0.071,99.75,2.0,,0.0,0.0,109.89
2025-08-15T00:35:16.517Z,14,GR86-013-80,-1.1,0.298,-0.088,99.74,2.0,,0.0,0.0,
2025-08-15T00:35:16.560Z,14,GR86-013-80,-1.6,0.278,-0.057,99.74,2.0,,0.0,0.0,
2025-08-15T00:35:16.603Z,14,GR86-013-80,-1.9,0.266,-0.075,99.72,2.0,,0.0,0.0,
2025-08-15T00:35:16.647Z,14,GR86-013-80,-2.0,0.293,-0.063,99.73,2.0,6469.0,0.0,0.0,
2025-08-15T00:35:16.691Z,14,GR86-013-80,-2.0,0.297,-0.073,99.75,2.0,,0.0,0.0,111.57
2025-08-15T00:35:16.734Z,14,GR86-013-80,-2.0,0.291,-0.104,99.72,2.0,,0.0,0.0,
2025-08-15T00:35:16.777Z,14,GR86-013-80,-2.1,0.286,-0.091,99.75,2.0,,0.0,0.0,
2025-08-15T00:35:16.821Z,14,GR86-013-80,-2.1,0.256,-0.084,99.74,2.0,,0.0,0.0,
2025-08-15T00:35:16.864Z,14,GR86-013-80,-2.3000000000000003,0.29,-0.097,99.74,2.0,6558.0,0.0,0.0,
2025-08-15T00:35:16.907Z,14,GR86-013-80,-2.9000000000000004,0.297,-0.1,99.74,2.0,,0.0,0.0,113.26
2025-08-15T00:35:16.951Z,14,GR86-013-80,-4.0,0.296,-0.112,99.74,2.0,,0.0,0.0,
2025-08-15T00:35:16.994Z,14,GR86-013-80,-4.3,0.275,-0.135,99.73,2.0,,0.0,0.0,
2025-08-15T00:35:17.037Z,14,GR86-013-80,-4.4,0.283,-0.15,99.75,2.0,,0.0,0.0,
2025-08-15T00:35:17.081Z,14,GR86-013-80,-4.3,0.278,-0.14,99.75,2.0,6653.0,0.0,0.0,
2025-08-15T00:35:17.124Z,14,GR86-013-80,-4.2,0.282,-0.166,99.75,2.0,,0.0,0.0,114.75
2025-08-15T00:35:17.167Z,14,GR86-013-80,-4.1000000000000005,0.285,-0.162,99.75,2.0,,0.0,0.0,
2025-08-15T00:35:17.210Z,14,GR86-013-80,-3.9,0.291,-0.155,99.75,2.0,,0.0,0.0,
2025-08-15T00:35:17.254Z,14,GR86-013-80,-3.7,0.267,-0.129,99.73,2.0,,0.0,0.0,
2025-08-15T00:35:17.297Z,14,GR86-013-80,-3.7,0.293,-0.143,99.75,2.0,6732.0,0.0,0.0,
2025-08-15T00:35:17.340Z,14,GR86-013-80,-3.5,0.271,-0.125,99.74,2.0,,0.0,0.0,117.84
2025-08-15T00:35:17.383Z,14,GR86-013-80,-3.0,0.261,-0.088,99.74,2.0,,0.0,0.0,
2025-08-15T00:35:17.427Z,14,GR86-013-80,-2.5,0.293,-0.103,99.73,2.0,,0.0,0.0,
2025-08-15T00:35:17.471Z,14,GR86-013-80,-2.2,0.293,-0.099,99.75,2.0,,0.0,0.0,
2025-08-15T00:35:17.514Z,14,GR86-013-80,-2.1,0.279,-0.079,99.72,2.0,6810.0,0.0,0.0,
2025-08-15T00:35:17.557Z,14,GR86-013-80,-2.1,0.269,-0.038,99.73,2.0,,0.0,0.0,119.27
2025-08-15T00:35:17.601Z,14,GR86-013-80,-2.1,0.295,-0.062,99.74,2.0,,0.0,0.0,
2025-08-15T00:35:17.644Z,14,GR86-013-80,-2.0,0.28,-0.051,99.75,2.0,,0.0,0.0,
2025-08-15T00:35:17.687Z,14,GR86-013-80,-2.0,0.259,-0.031,99.75,2.0,,0.0,0.0,
2025-08-15T00:35:17.731Z,14,GR86-013-80,-2.1,0.252,-0.035,99.74,2.0,6962.0,0.0,0.0,
2025-08-15T00:35:17.774Z,14,GR86-013-80,-2.1,0.303,-0.05,99.73,2.0,,0.0,0.0,120.58
2025-08-15T00:35:17.817Z,14,GR86-013-80,-2.0,0.282,-0.041,99.75,2.0,,0.0,0.0,
2025-08-15T00:35:17.861Z,14,GR86-013-80,-2.0,0.264,-0.043,99.73,2.0,,0.0,0.0,
2025-08-15T00:35:17.905Z,14,GR86-013-80,-2.0,0.282,-0.064,99.75,2.0,,0.0,0.0,
2025-08-15T00:35:17.948Z,14,GR86-013-80,-2.2,0.27,-0.072,99.74,2.0,7027.0,0.0,0.0,
2025-08-15T00:35:17.991Z,14,GR86-013-80,-3.0,0.279,-0.083,99.73,2.0,,0.0,0.0,121.83
2025-08-15T00:35:18.034Z,14,GR86-013-80,-3.9,0.26,-0.078,99.75,2.0,,0.0,0.0,
2025-08-15T00:35:18.077Z,14,GR86-013-80,-4.4,0.275,-0.128,99.75,2.0,,0.0,0.0,
2025-08-15T00:35:18.121Z,14,GR86-013-80,-4.5,0.274,-0.147,99.75,2.0,,0.0,0.0,
2025-08-15T00:35:18.164Z,14,GR86-013-80,-4.3,0.256,-0.13,99.75,2.0,7109.0,0.0,0.0,
2025-08-15T00:35:18.207Z,14,GR86-013-80,-4.0,0.27,-0.152,99.75,2.0,,0.0,0.0,123.02
2025-08-15T00:35:18.251Z,14,GR86-013-80,-3.7,0.267,-0.16,99.75,2.0,,0.0,0.0,
2025-08-15T00:35:18.294Z,14,GR86-013-80,-3.7,0.277,-0.173,99.75,2.0,,0.0,0.0,
2025-08-15T00:35:18.337Z,14,GR86-013-80,-3.5,0.258,-0.151,99.73,2.0,,0.0,0.0,
2025-08-15T00:35:18.381Z,14,GR86-013-80,-3.4000000000000004,0.251,-0.148,99.75,2.0,7181.0,0.0,0.0,
2025-08-15T00:35:18.424Z,14,GR86-013-80,-2.4000000000000004,0.283,-0.149,99.74,2.0,,0.0,0.0,124.24
2025-08-15T00:35:18.467Z,14,GR86-013-80,-1.1,0.259,-0.111,99.74,2.0,,0.0,0.0,
2025-08-15T00:35:18.510Z,14,GR86-013-80,-0.1,0.26,-0.088,99.74,2.0,,0.0,0.0,
2025-08-15T00:35:18.554Z,14,GR86-013-80,0.1,0.245,-0.075,99.73,2.0,,0.0,0.0,
2025-08-15T00:35:18.597Z,14,GR86-013-80,0.2,0.274,-0.082,99.74,2.0,7243.0,0.0,0.0,
2025-08-15T00:35:18.641Z,14,GR86-013-80,0.3,0.265,-0.053,99.75,2.0,,0.0,0.0,125.4
2025-08-15T00:35:18.684Z,14,GR86-013-80,0.5,0.247,-0.021,99.76,2.0,,0.0,0.0,
2025-08-15T00:35:18.727Z,14,GR86-013-80,0.7000000000000001,0.243,-0.027,99.75,2.0,,0.0,0.0,
2025-08-15T00:35:18.770Z,14,GR86-013-80,1.1,0.21,0.008,99.75,2.0,,0.0,0.0,
2025-08-15T00:35:18.814Z,14,GR86-013-80,1.1,0.207,-0.008,99.74,2.0,7293.0,0.0,0.0,
2025-08-15T00:35:18.857Z,14,GR86-013-80,1.0,0.152,0.027,99.75,2.0,,0.0,0.0,126.57
2025-08-15T00:35:18.900Z,14,GR86-013-80,0.9,0.148,0.023,99.75,2.0,,0.0,0.0,
2025-08-15T00:35:18.943Z,14,GR86-013-80,0.8,0.167,0.002,99.74,2.0,,0.0,0.0,
2025-08-15T00:35:18.987Z,14,GR86-013-80,0.9,0.16,0.021,99.74,2.0,,0.0,0.0,
2025-08-15T00:35:19.031Z,14,GR86-013-80,1.0,0.137,0.011,99.74,2.0,7318.0,0.0,0.0,
2025-08-15T00:35:19.075Z,14,GR86-013-80,1.4,0.12,0.016,99.76,2.0,,0.0,0.0,127.54
2025-08-15T00:35:19.118Z,14,GR86-013-80,1.8,0.118,0.011,99.74,2.0,,0.0,0.0,
2025-08-15T00:35:19.164Z,14,GR86-013-80,1.9,0.132,0.011,99.72,2.0,,0.0,0.0,
2025-08-15T00:35:19.207Z,14,GR86-013-80,1.8,0.106,0.029,99.74,2.0,,0.0,0.0,
2025-08-15T00:35:19.251Z,14,GR86-013-80,1.4,0.106,0.029,99.73,2.0,7308.0,0.0,0.0,
2025-08-15T00:35:19.294Z,14,GR86-013-80,1.2000000000000002,0.094,0.034,99.74,2.0,,0.0,0.0,128.08
2025-08-15T00:35:19.337Z,14,GR86-013-80,1.1,0.101,0.005,99.71,2.0,,0.0,0.0,
2025-08-15T00:35:19.380Z,14,GR86-013-80,1.2000000000000002,0.115,0.014,99.74,2.0,,0.0,0.0,
2025-08-15T00:35:19.423Z,14,GR86-013-80,1.4,0.064,0.025,99.75,2.0,,0.0,0.0,
2025-08-15T00:35:19.466Z,14,GR86-013-80,1.8,0.053,0.017,99.75,2.0,7309.0,0.0,0.0,
2025-08-15T00:35:19.509Z,14,GR86-013-80,2.0,0.07,0.018,99.73,2.0,,0.0,0.0,128.28
2025-08-15T00:35:19.553Z,14,GR86-013-80,1.5,0.046,0.017,96.5,2.0,,0.0,0.0,
2025-08-15T00:35:19.597Z,14,GR86-013-80,1.2000000000000002,0.083,0.029,51.98,2.0,,0.0,0.0,
2025-08-15T00:35:19.640Z,14,GR86-013-80,1.2000000000000002,0.078,0.035,39.81,2.0,,0.0,0.0,
2025-08-15T00:35:19.683Z,14,GR86-013-80,1.4,0.073,0.018,37.7,2.0,7238.0,0.0,0.0,
2025-08-15T00:35:19.727Z,14,GR86-013-80,1.9,0.067,0.017,33.76,2.0,,0.0,0.0,128.33
2025-08-15T00:35:19.770Z,14,GR86-013-80,3.7,0.05,0.05,16.36,2.0,,4.835,4.96,
2025-08-15T00:35:19.814Z,14,GR86-013-80,6.2,0.003,0.066,4.14,2.0,,8.635,8.635,
2025-08-15T00:35:19.857Z,14,GR86-013-80,7.800000000000001,-0.077,0.088,4.16,2.0,,14.27,14.085,
2025-08-15T00:35:19.943Z,14,GR86-013-80,8.0,-0.317,0.14,4.07,2.0,7306.0,22.095,21.99,127.87
2025-08-15T00:35:19.987Z,14,GR86-013-80,7.7,-0.65,0.126,3.71,2.0,,37.645,37.205,
2025-08-15T00:35:20.031Z,14,GR86-013-80,7.6,-0.804,0.164,3.34,2.0,,41.585,41.4,
2025-08-15T00:35:20.074Z,14,GR86-013-80,7.300000000000001,-0.726,0.127,3.1,2.0,,41.49,41.615,
2025-08-15T00:35:20.117Z,14,GR86-013-80,6.5,-0.77,0.198,2.82,2.0,7056.0,41.28,41.52,
2025-08-15T00:35:20.160Z,14,GR86-013-80,5.4,-0.766,0.216,2.66,2.0,,40.395,40.865,124.05
2025-08-15T00:35:20.203Z,14,GR86-013-80,3.7,-0.81,0.161,2.6,2.0,,39.555,40.33,
2025-08-15T00:35:20.247Z,14,GR86-013-80,3.5,-0.844,0.242,2.54,2.0,,38.835,39.815,
2025-08-15T00:35:20.291Z,14,GR86-013-80,3.5,-0.8300000000000001,0.233,2.47,2.0,,37.42,38.655,
2025-08-15T00:35:20.334Z,14,GR86-013-80,3.5,-0.849,0.255,2.47,2.0,6286.0,36.61,37.86,
2025-08-15T00:35:20.377Z,14,GR86-013-80,3.5,-0.839,0.262,2.44,2.0,,36.06,37.205,117.97
2025-08-15T00:35:20.420Z,14,GR86-013-80,6.0,-0.852,0.281,2.44,2.0,,35.645,36.67,
2025-08-15T00:35:20.463Z,14,GR86-013-80,9.9,-0.8200000000000001,0.288,2.45,2.0,,35.34,36.55,
2025-08-15T00:35:20.507Z,14,GR86-013-80,13.4,-0.812,0.331,2.44,2.0,,33.435,34.9,
2025-08-15T00:35:20.551Z,14,GR86-013-80,15.3,-0.73,0.342,2.45,2.0,6116.0,28.34,29.68,
2025-08-15T00:35:20.594Z,14,GR86-013-80,16.1,-0.679,0.317,2.44,2.0,,26.325,27.62,112.56
2025-08-15T00:35:20.638Z,14,GR86-013-80,18.7,-0.675,0.355,2.47,2.0,,24.585,25.775,
2025-08-15T00:35:20.681Z,14,GR86-013-80,26.5,-0.656,0.378,2.46,2.0,,23.365,24.525,
2025-08-15T00:35:20.724Z,14,GR86-013-80,32.0,-0.637,0.464,2.45,2.0,,21.53,22.645,
2025-08-15T00:35:20.767Z,14,GR86-013-80,33.7,-0.541,0.547,2.44,2.0,5854.0,17.715,18.77,
2025-08-15T00:35:20.810Z,14,GR86-013-80,30.6,-0.399,0.612,2.47,2.0,,9.75,10.44,106.77
2025-08-15T00:35:20.854Z,14,GR86-013-80,27.200000000000003,-0.32,0.629,2.47,2.0,,4.0,4.595,
2025-08-15T00:35:20.897Z,14,GR86-013-80,26.1,-0.192,0.605,2.46,2.0,,0.0,0.0,
2025-08-15T00:35:20.940Z,14,GR86-013-80,25.9,-0.163,0.629,2.47,2.0,,0.0,0.0,
2025-08-15T00:35:20.983Z,14,GR86-013-80,31.8,-0.127,0.647,2.46,2.0,5686.0,0.0,0.0,
2025-08-15T00:35:21.027Z,14,GR86-013-80,40.8,-0.121,0.7010000000000001,2.47,2.0,,0.0,0.0,103.59
2025-08-15T00:35:21.071Z,14,GR86-013-80,53.2,-0.162,0.795,2.47,2.0,,2.73,2.915,
2025-08-15T00:35:21.114Z,14,GR86-013-80,57.5,-0.183,0.843,2.47,2.0,,3.465,3.465,
2025-08-15T00:35:21.157Z,14,GR86-013-80,58.7,-0.22,0.884,2.47,2.0,,3.465,3.585,
2025-08-15T00:35:21.201Z,14,GR86-013-80,58.7,-0.205,0.937,2.47,2.0,5652.0,3.555,3.785,
2025-08-15T00:35:21.244Z,14,GR86-013-80,59.7,-0.224,0.956,2.47,2.0,,3.875,4.0600000000000005,101.41
2025-08-15T00:35:21.287Z,14,GR86-013-80,61.5,-0.221,0.98,2.47,2.0,,3.905,4.18,
2025-08-15T00:35:21.331Z,14,GR86-013-80,62.2,-0.213,1.045,2.47,2.0,,2.4250000000000003,2.76,
2025-08-15T00:35:21.374Z,14,GR86-013-80,62.2,-0.192,1.047,2.47,2.0,,0.0,0.0,
2025-08-15T00:35:21.417Z,14,GR86-013-80,60.900000000000006,-0.146,1.074,2.48,2.0,5534.0,0.0,0.0,
2025-08-15T00:35:21.460Z,14,GR86-013-80,58.1,-0.171,1.121,2.47,2.0,,0.0,0.0,100.63
2025-08-15T00:35:21.503Z,14,GR86-013-80,55.6,-0.152,1.146,2.47,2.0,,0.0,0.0,
2025-08-15T00:35:21.547Z,14,GR86-013-80,53.6,-0.153,1.139,2.47,2.0,,0.0,0.0,
2025-08-15T00:35:21.591Z,14,GR86-013-80,52.0,-0.168,1.174,2.47,2.0,,0.0,0.0,
2025-08-15T00:35:21.634Z,14,GR86-013-80,54.6,-0.146,1.218,2.47,2.0,5431.0,0.0,0.0,
2025-08-15T00:35:21.677Z,14,GR86-013-80,61.3,-0.167,1.201,2.47,2.0,,0.0,0.0,99.32
2025-08-15T00:35:21.721Z,14,GR86-013-80,68.9,-0.142,1.24,2.47,2.0,,0.0,0.0,
2025-08-15T00:35:21.764Z,14,GR86-013-80,76.2,-0.177,1.243,2.47,2.0,,0.0,0.0,
2025-08-15T00:35:21.807Z,14,GR86-013-80,81.7,-0.158,1.248,2.47,2.0,,0.0,0.0,
2025-08-15T00:35:21.851Z,14,GR86-013-80,95.5,-0.163,1.236,2.52,2.0,5343.0,0.0,0.0,
2025-08-15T00:35:21.894Z,14,GR86-013-80,102.9,-0.191,1.269,3.79,2.0,,0.0,0.0,97.97
2025-08-15T00:35:21.938Z,14,GR86-013-80,107.2,-0.189,1.243,6.08,2.0,,0.0,0.0,
2025-08-15T00:35:21.981Z,14,GR86-013-80,108.0,-0.193,1.247,18.43,2.0,,0.0,0.0,
2025-08-15T00:35:22.067Z,14,GR86-013-80,107.8,-0.188,1.265,20.34,2.0,5220.0,0.0,0.0,
2025-08-15T00:35:22.110Z,14,GR86-013-80,103.8,-0.126,1.235,23.95,2.0,,0.0,0.0,95.98
2025-08-15T00:35:22.154Z,14,GR86-013-80,98.4,-0.125,1.263,26.39,2.0,,0.0,0.0,
2025-08-15T00:35:22.197Z,14,GR86-013-80,90.8,-0.098,1.224,30.06,2.0,,0.0,0.0,
2025-08-15T00:35:22.241Z,14,GR86-013-80,82.4,0.087,1.255,32.49,2.0,,0.0,0.0,
2025-08-15T00:35:22.327Z,14,GR86-013-80,75.7,0.133,1.238,36.84,2.0,5188.0,0.0,0.0,94.19
2025-08-15T00:35:22.370Z,14,GR86-013-80,69.10000000000001,0.218,1.225,56.57,2.0,,0.0,0.0,
2025-08-15T00:35:22.414Z,14,GR86-013-80,69.0,0.221,1.23,56.620000000000005,2.0,,0.0,0.0,
2025-08-15T00:35:22.457Z,14,GR86-013-80,71.7,0.237,1.231,56.64,2.0,,0.0,0.0,
2025-08-15T00:35:22.543Z,14,GR86-013-80,75.60000000000001,0.227,1.243,56.75,2.0,5501.0,0.0,0.0,92.4
2025-08-15T00:35:22.586Z,14,GR86-013-80,78.9,0.235,1.245,51.39,2.0,,0.0,0.0,
2025-08-15T00:35:22.631Z,14,GR86-013-80,79.0,0.238,1.162,41.26,2.0,,0.0,0.0,
2025-08-15T00:35:22.674Z,14,GR86-013-80,80.0,0.268,1.147,36.92,2.0,,0.0,0.0,
2025-08-15T00:35:22.717Z,14,GR86-013-80,82.10000000000001,0.207,1.155,27.99,2.0,5501.0,0.0,0.0,
2025-08-15T00:35:22.760Z,14,GR86-013-80,83.4,0.168,1.205,22.36,2.0,,0.0,0.0,93.42
2025-08-15T00:35:22.803Z,14,GR86-013-80,83.80000000000001,0.131,1.209,21.44,2.0,,0.0,0.0,
2025-08-15T00:35:22.891Z,14,GR86-013-80,83.80000000000001,0.107,1.152,20.29,2.0,,0.0,0.0,
2025-08-15T00:35:22.934Z,14,GR86-013-80,83.9,0.024,1.168,14.34,2.0,5444.0,0.0,0.0,
2025-08-15T00:35:22.977Z,14,GR86-013-80,85.0,-0.021,1.208,4.0200000000000005,2.0,,3.16,3.22,94.92
2025-08-15T00:35:23.021Z,14,GR86-013-80,87.9,-0.021,1.202,4.1,2.0,,5.705,5.8,
2025-08-15T00:35:23.064Z,14,GR86-013-80,91.0,-0.174,1.247,4.0600000000000005,2.0,,9.215,9.25,
2025-08-15T00:35:23.107Z,14,GR86-013-80,92.7,-0.264,1.249,4.01,2.0,,12.5,12.33,
2025-08-15T00:35:23.151Z,14,GR86-013-80,92.8,-0.337,1.226,6.38,2.0,5230.0,13.4,13.58,
2025-08-15T00:35:23.194Z,14,GR86-013-80,91.8,-0.366,1.258,20.19,2.0,,10.5,11.065,95.51
2025-08-15T00:35:23.237Z,14,GR86-013-80,88.80000000000001,-0.382,1.241,23.41,2.0,,3.465,3.97,
2025-08-15T00:35:23.280Z,14,GR86-013-80,82.60000000000001,-0.207,1.284,25.24,2.0,,0.0,0.0,
2025-08-15T00:35:23.323Z,14,GR86-013-80,72.4,-0.132,1.212,26.04,2.0,,0.0,0.0,
2025-08-15T00:35:23.366Z,14,GR86-013-80,60.2,-0.102,1.204,26.24,2.0,5133.0,0.0,0.0,
2025-08-15T00:35:23.409Z,14,GR86-013-80,45.900000000000006,0.086,1.175,24.06,2.0,,0.0,0.0,94.24
2025-08-15T00:35:23.453Z,14,GR86-013-80,43.7,0.157,1.124,22.1,2.0,,0.0,0.0,
2025-08-15T00:35:23.497Z,14,GR86-013-80,44.900000000000006,0.182,1.18,22.03,2.0,,0.0,0.0,
2025-08-15T00:35:23.540Z,14,GR86-013-80,51.1,0.128,1.146,22.01,2.0,,0.0,0.0,
2025-08-15T00:35:23.583Z,14,GR86-013-80,59.2,0.145,1.136,19.63,2.0,5491.0,0.0,0.0,
2025-08-15T00:35:23.627Z,14,GR86-013-80,67.8,0.063,1.168,18.8,2.0,,0.0,0.0,93.06
2025-08-15T00:35:23.670Z,14,GR86-013-80,79.60000000000001,0.042,1.205,21.19,2.0,,0.0,0.0,
2025-08-15T00:35:23.714Z,14,GR86-013-80,82.60000000000001,0.047,1.231,21.72,2.0,,0.0,0.0,
2025-08-15T00:35:23.757Z,14,GR86-013-80,81.0,0.052,1.245,27.08,2.0,,0.0,0.0,
2025-08-15T00:35:23.800Z,14,GR86-013-80,69.60000000000001,0.049,1.237,36.52,2.0,5396.0,0.0,0.0,
2025-08-15T00:35:23.843Z,14,GR86-013-80,57.2,0.073,1.216,45.26,2.0,,0.0,0.0,92.7
2025-08-15T00:35:23.887Z,14,GR86-013-80,50.6,0.132,1.206,44.22,2.0,,0.0,0.0,
2025-08-15T00:35:23.931Z,14,GR86-013-80,49.6,0.215,1.148,34.99,2.0,,0.0,0.0,
2025-08-15T00:35:23.974Z,14,GR86-013-80,50.0,0.248,1.104,27.46,2.0,,0.0,0.0,
2025-08-15T00:35:24.017Z,14,GR86-013-80,50.400000000000006,0.225,1.119,23.65,2.0,5468.0,0.0,0.0,
2025-08-15T00:35:24.060Z,14,GR86-013-80,50.3,0.186,1.161,23.2,2.0,,0.0,0.0,92.53
2025-08-15T00:35:24.103Z,14,GR86-013-80,50.3,0.142,1.189,24.21,2.0,,0.0,0.0,
2025-08-15T00:35:24.147Z,14,GR86-013-80,50.5,0.106,1.17,33.730000000000004,2.0,,0.0,0.0,
2025-08-15T00:35:24.191Z,14,GR86-013-80,49.5,0.094,1.164,65.96000000000001,2.0,,0.0,0.0,
2025-08-15T00:35:24.234Z,14,GR86-013-80,47.0,0.122,1.144,98.21,2.0,5425.0,0.0,0.0,
2025-08-15T00:35:24.277Z,14,GR86-013-80,40.900000000000006,0.212,1.129,99.67,2.0,,0.0,0.0,93.17
2025-08-15T00:35:24.320Z,14,GR86-013-80,31.8,0.301,1.061,99.72,2.0,,0.0,0.0,
2025-08-15T00:35:24.363Z,14,GR86-013-80,21.5,0.331,1.005,99.72,2.0,,0.0,0.0,
2025-08-15T00:35:24.407Z,14,GR86-013-80,11.8,0.348,0.885,99.74,2.0,,0.0,0.0,
2025-08-15T00:35:24.451Z,14,GR86-013-80,3.1,0.311,0.756,99.74,2.0,5599.0,0.0,0.0,
2025-08-15T00:35:24.494Z,14,GR86-013-80,0.5,0.286,0.634,99.75,2.0,,0.0,0.0,94.21
2025-08-15T00:35:24.537Z,14,GR86-013-80,0.2,0.311,0.512,99.74,2.0,,0.0,0.0,
2025-08-15T00:35:24.581Z,14,GR86-013-80,1.3,0.301,0.393,99.74,2.0,,0.0,0.0,
