timestamp,lap,vehicle_id,steering_angle,accx_can,accy_can,ath,gear,nmot,pbrake_f,pbrake_r,speed
2025-08-15T00:23:23.591Z,3,GR86-015-31,1.2000000000000002,0.111,-0.015,100.0,5.0,,0.0,0.0,
2025-08-15T00:23:23.635Z,3,GR86-015-31,1.2000000000000002,0.123,-0.002,100.0,5.0,,0.0,0.0,
2025-08-15T00:23:23.678Z,3,GR86-015-31,1.2000000000000002,0.134,0.012,100.01,5.0,,0.0,0.0,
2025-08-15T00:23:23.721Z,3,GR86-015-31,1.2000000000000002,0.117,0.014,100.02,5.0,6985.0,0.0,0.0,
2025-08-15T00:23:23.765Z,3,GR86-015-31,1.2000000000000002,0.115,-0.005,100.0,5.0,,0.0,0.0,205.79
2025-08-15T00:23:23.807Z,3,GR86-015-31,1.2000000000000002,0.102,-0.021,100.01,5.0,,0.0,0.0,
2025-08-15T00:23:23.850Z,3,GR86-015-31,1.1,0.087,-0.019,100.02,5.0,,0.0,0.0,
2025-08-15T00:23:23.895Z,3,GR86-015-31,1.1,0.102,0.001,100.01,5.0,,0.0,0.0,
2025-08-15T00:23:23.938Z,3,GR86-015-31,1.1,0.104,-0.015,100.0,5.0,7005.0,0.0,0.0,
2025-08-15T00:23:23.981Z,3,GR86-015-31,1.0,0.099,-0.018,100.02,5.0,,0.0,0.0,206.42
2025-08-15T00:23:24.025Z,3,GR86-015-31,1.0,0.101,0.006,100.01,5.0,,0.0,0.0,
2025-08-15T00:23:24.068Z,3,GR86-015-31,1.0,0.122,0.007,99.99,5.0,,0.0,0.0,
2025-08-15T00:23:24.111Z,3,GR86-015-31,0.8,0.125,-0.028,100.01,5.0,,0.0,0.0,
2025-08-15T00:23:24.154Z,3,GR86-015-31,0.7000000000000001,0.107,-0.053,99.99,5.0,7027.0,0.0,0.0,
2025-08-15T00:23:24.197Z,3,GR86-015-31,0.6000000000000001,0.106,-0.049,99.99,5.0,,0.0,0.0,207.62
2025-08-15T00:23:24.240Z,3,GR86-015-31,0.6000000000000001,0.114,-0.048,100.01,5.0,,0.0,0.0,
2025-08-15T00:23:24.284Z,3,GR86-015-31,0.6000000000000001,0.123,-0.062,99.99,5.0,,0.0,0.0,
2025-08-15T00:23:24.326Z,3,GR86-015-31,0.6000000000000001,0.107,-0.065,99.99,5.0,,0.0,0.0,
2025-08-15T00:23:24.369Z,3,GR86-015-31,0.7000000000000001,0.093,-0.048,100.01,5.0,7041.0,0.0,0.0,
2025-08-15T00:23:24.412Z,3,GR86-015-31,0.9,0.095,-0.044,99.98,5.0,,0.0,0.0,208.22
2025-08-15T00:23:24.455Z,3,GR86-015-31,1.0,0.104,-0.027,99.99,5.0,,0.0,0.0,
2025-08-15T00:23:24.498Z,3,GR86-015-31,1.1,0.081,-0.003,99.98,5.0,,0.0,0.0,
2025-08-15T00:23:24.541Z,3,GR86-015-31,1.3,0.083,0.029,99.98,5.0,,0.0,0.0,
2025-08-15T00:23:24.585Z,3,GR86-015-31,1.3,0.078,0.05,100.01,5.0,7073.0,1.83,2.015,
2025-08-15T00:23:24.628Z,3,GR86-015-31,1.3,0.097,0.059,100.0,5.0,,4.12,4.3950000000000005,208.67
2025-08-15T00:23:24.670Z,3,GR86-015-31,1.3,0.068,0.081,100.02,5.0,,5.6450000000000005,5.965,
2025-08-15T00:23:24.714Z,3,GR86-015-31,1.2000000000000002,0.015,0.069,56.72,5.0,,11.55,11.705,
2025-08-15T00:23:24.756Z,3,GR86-015-31,1.2000000000000002,-0.107,0.073,0.62,5.0,,25.15,25.455,
2025-08-15T00:23:24.799Z,3,GR86-015-31,1.2000000000000002,-0.374,0.034,2.78,5.0,7084.0,42.775,42.925,
2025-08-15T00:23:24.842Z,3,GR86-015-31,1.2000000000000002,-0.945,0.017,2.78,5.0,,62.0,61.88,208.77
2025-08-15T00:23:24.885Z,3,GR86-015-31,1.2000000000000002,-1.13,0.013,2.74,5.0,,79.215,78.805,
2025-08-15T00:23:24.928Z,3,GR86-015-31,0.1,-1.398,-0.047,2.73,5.0,,91.115,91.56,
2025-08-15T00:23:24.971Z,3,GR86-015-31,-1.9,-1.397,-0.026,2.7,5.0,,99.205,101.265,
2025-08-15T00:23:25.015Z,3,GR86-015-31,-2.2,-1.47,-0.081,2.66,5.0,6446.0,103.035,103.785,
2025-08-15T00:23:25.058Z,3,GR86-015-31,-2.2,-1.316,-0.068,2.63,5.0,,104.15,105.525,202.97
2025-08-15T00:23:25.101Z,3,GR86-015-31,-1.1,-1.232,-0.051,2.63,5.0,,103.19,104.12,
2025-08-15T00:23:25.145Z,3,GR86-015-31,-1.0,-1.178,-0.068,2.62,5.0,,105.43,105.705,
2025-08-15T00:23:25.188Z,3,GR86-015-31,-1.0,-1.345,-0.044,2.62,5.0,,107.2,108.3,
2025-08-15T00:23:25.274Z,3,GR86-015-31,-0.8,-1.226,-0.049,18.59,5.0,6133.0,104.56,106.515,192.04
2025-08-15T00:23:25.316Z,3,GR86-015-31,-4.1000000000000005,-1.315,-0.123,98.9,5.0,,108.65,110.055,
2025-08-15T00:23:25.361Z,3,GR86-015-31,-6.2,-1.242,-0.154,41.59,4.0,,107.675,109.155,
2025-08-15T00:23:25.404Z,3,GR86-015-31,-7.1000000000000005,-1.29,-0.232,5.25,4.0,,108.53,109.81,
2025-08-15T00:23:25.446Z,3,GR86-015-31,-8.3,-1.299,-0.12,3.68,4.0,6416.0,110.65,113.17,
2025-08-15T00:23:25.490Z,3,GR86-015-31,-8.4,-1.39,-0.27,3.24,4.0,,109.78,110.375,180.62
2025-08-15T00:23:25.534Z,3,GR86-015-31,-4.3,-1.359,-0.202,2.91,4.0,,108.39,110.62,
2025-08-15T00:23:25.576Z,3,GR86-015-31,0.1,-1.295,-0.212,2.77,4.0,,108.88,110.145,
2025-08-15T00:23:25.619Z,3,GR86-015-31,0.3,-1.232,-0.256,2.69,4.0,,109.935,111.06,
2025-08-15T00:23:25.664Z,3,GR86-015-31,-2.1,-1.289,-0.11,2.67,4.0,6495.0,110.055,112.36,
2025-08-15T00:23:25.706Z,3,GR86-015-31,-2.7,-1.292,-0.225,2.64,4.0,,109.125,111.305,173.39
2025-08-15T00:23:25.749Z,3,GR86-015-31,-2.6,-1.297,-0.281,2.62,4.0,,107.265,108.745,
2025-08-15T00:23:25.795Z,3,GR86-015-31,-3.1,-1.333,-0.194,2.58,4.0,,110.5,111.93,
2025-08-15T00:23:25.881Z,3,GR86-015-31,-3.8,-1.285,-0.216,2.79,4.0,6167.0,107.585,109.78,
2025-08-15T00:23:25.925Z,3,GR86-015-31,-2.9000000000000004,-1.413,-0.193,61.78,3.0,,106.455,107.645,164.03
2025-08-15T00:23:25.968Z,3,GR86-015-31,-2.6,-1.342,-0.165,6.71,3.0,,100.09,102.485,
2025-08-15T00:23:26.055Z,3,GR86-015-31,-3.0,-1.106,-0.235,3.5,3.0,,68.275,69.37,
2025-08-15T00:23:26.098Z,3,GR86-015-31,-3.4000000000000004,-1.177,-0.207,3.18,3.0,6044.0,61.545,62.93,
2025-08-15T00:23:26.141Z,3,GR86-015-31,-3.2,-1.081,-0.202,2.95,3.0,,61.620000000000005,63.255,155.81
2025-08-15T00:23:26.185Z,3,GR86-015-31,-1.7000000000000002,-0.956,-0.411,2.81,3.0,,58.935,60.2,
2025-08-15T00:23:26.228Z,3,GR86-015-31,0.7000000000000001,-1.176,-0.207,2.73,3.0,,54.08,55.515,
2025-08-15T00:23:26.271Z,3,GR86-015-31,1.7000000000000002,-0.882,-0.199,2.67,3.0,,42.39,43.735,
2025-08-15T00:23:26.315Z,3,GR86-015-31,1.9,-0.654,-0.212,2.61,3.0,6420.0,29.115,30.015,
2025-08-15T00:23:26.357Z,3,GR86-015-31,1.5,-0.593,-0.095,2.6,3.0,,23.15,24.31,148.20000000000002
2025-08-15T00:23:26.400Z,3,GR86-015-31,-4.2,-0.605,-0.193,2.59,3.0,,21.12,21.9,
2025-08-15T00:23:26.444Z,3,GR86-015-31,-10.5,-0.628,-0.131,2.57,3.0,,22.19,22.845,
2025-08-15T00:23:26.486Z,3,GR86-015-31,-14.1,-0.606,-0.176,2.56,3.0,,24.43,24.995,
2025-08-15T00:23:26.530Z,3,GR86-015-31,-14.3,-0.623,-0.259,2.56,3.0,6413.0,26.505,27.055,
2025-08-15T00:23:26.574Z,3,GR86-015-31,-10.3,-0.659,-0.263,2.54,3.0,,29.085,29.68,142.13
2025-08-15T00:23:26.617Z,3,GR86-015-31,-7.6,-0.723,-0.245,2.53,3.0,,34.15,34.595,
2025-08-15T00:23:26.660Z,3,GR86-015-31,-7.5,-0.8270000000000001,-0.241,2.53,3.0,,38.655,39.19,
2025-08-15T00:23:26.704Z,3,GR86-015-31,-8.200000000000001,-0.802,-0.26,10.2,3.0,,40.59,41.25,
2025-08-15T00:23:26.747Z,3,GR86-015-31,-8.700000000000001,-0.808,-0.307,56.02,3.0,6235.0,41.31,42.12,
2025-08-15T00:23:26.790Z,3,GR86-015-31,-8.700000000000001,-0.837,-0.355,72.36,2.0,,41.705,42.36,138.17000000000002
2025-08-15T00:23:26.834Z,3,GR86-015-31,-9.3,-1.006,-0.272,5.23,2.0,,37.325,38.56,
2025-08-15T00:23:26.876Z,3,GR86-015-31,-11.0,-0.877,-0.327,3.39,2.0,,26.905,27.71,
2025-08-15T00:23:26.919Z,3,GR86-015-31,-12.6,-0.901,-0.558,3.04,2.0,,20.875,21.775,
2025-08-15T00:23:26.964Z,3,GR86-015-31,-13.7,-0.861,-0.371,2.85,2.0,5926.0,21.835,22.935,
2025-08-15T00:23:27.006Z,3,GR86-015-31,-14.4,-0.615,-0.5690000000000001,2.73,2.0,,23.59,24.11,127.41
2025-08-15T00:23:27.049Z,3,GR86-015-31,-16.5,-0.739,-0.744,2.69,2.0,,25.27,25.865,
2025-08-15T00:23:27.092Z,3,GR86-015-31,-20.9,-0.677,-0.53,2.65,2.0,,27.805,28.34,
2025-08-15T00:23:27.135Z,3,GR86-015-31,-28.0,-0.712,-0.882,2.61,2.0,,32.075,32.595,
2025-08-15T00:23:27.178Z,3,GR86-015-31,-26.4,-0.682,-0.667,2.59,2.0,6841.0,32.045,32.99,
2025-08-15T00:23:27.221Z,3,GR86-015-31,-24.0,-0.6900000000000001,-0.623,2.57,2.0,,27.925,29.085,123.02
2025-08-15T00:23:27.265Z,3,GR86-015-31,-27.6,-0.6980000000000001,-0.753,2.57,2.0,,20.08,21.18,
2025-08-15T00:23:27.307Z,3,GR86-015-31,-40.900000000000006,-0.527,-0.685,2.58,2.0,,10.315,10.925,
2025-08-15T00:23:27.350Z,3,GR86-015-31,-53.900000000000006,-0.257,-0.904,2.62,2.0,,2.485,2.975,
2025-08-15T00:23:27.396Z,3,GR86-015-31,-62.5,-0.168,-0.956,19.46,2.0,6568.0,0.0,0.0,
2025-08-15T00:23:27.438Z,3,GR86-015-31,-62.1,-0.179,-1.058,26.01,2.0,,0.0,0.0,118.84
2025-08-15T00:23:27.481Z,3,GR86-015-31,-55.7,-0.143,-1.036,30.23,2.0,,0.0,0.0,
2025-08-15T00:23:27.525Z,3,GR86-015-31,-42.2,-0.066,-1.157,30.63,2.0,,0.0,0.0,
2025-08-15T00:23:27.568Z,3,GR86-015-31,-26.9,-0.082,-1.031,30.79,2.0,,0.0,0.0,
2025-08-15T00:23:27.610Z,3,GR86-015-31,-25.8,0.027,-0.892,29.87,2.0,6783.0,0.0,0.0,
2025-08-15T00:23:27.654Z,3,GR86-015-31,-55.0,0.339,-1.006,6.12,2.0,,0.0,0.0,117.36
2025-08-15T00:23:27.697Z,3,GR86-015-31,-69.10000000000001,0.232,-1.095,6.17,2.0,,0.0,0.0,
2025-08-15T00:23:27.740Z,3,GR86-015-31,-70.5,-0.007,-1.069,5.47,2.0,,2.395,2.67,
2025-08-15T00:23:27.784Z,3,GR86-015-31,-63.1,-0.135,-1.148,4.73,2.0,,5.495,5.675,
2025-08-15T00:23:27.826Z,3,GR86-015-31,-47.3,-0.177,-1.08,3.22,2.0,6418.0,8.88,8.94,
2025-08-15T00:23:27.912Z,3,GR86-015-31,-40.2,-0.426,-0.997,3.37,2.0,,11.245,11.55,116.19
2025-08-15T00:23:27.955Z,3,GR86-015-31,-56.5,-0.179,-1.079,19.26,2.0,,0.0,0.0,
2025-08-15T00:23:27.998Z,3,GR86-015-31,-65.60000000000001,-0.164,-1.135,22.51,2.0,,0.0,0.0,
2025-08-15T00:23:28.041Z,3,GR86-015-31,-66.9,-0.089,-1.152,26.8,2.0,6404.0,0.0,0.0,
2025-08-15T00:23:28.085Z,3,GR86-015-31,-62.1,-0.07,-1.156,35.54,2.0,,0.0,0.0,116.0
2025-08-15T00:23:28.128Z,3,GR86-015-31,-56.7,-0.057,-1.166,52.31,2.0,,0.0,0.0,
2025-08-15T00:23:28.170Z,3,GR86-015-31,-56.1,0.178,-1.149,70.66,2.0,,0.0,0.0,
2025-08-15T00:23:28.214Z,3,GR86-015-31,-55.5,0.301,-1.189,100.11,2.0,,0.0,0.0,
2025-08-15T00:23:28.256Z,3,GR86-015-31,-53.7,0.305,-1.12,100.25,2.0,6748.0,0.0,0.0,
2025-08-15T00:23:28.299Z,3,GR86-015-31,-53.7,0.263,-1.157,100.29,2.0,,0.0,0.0,114.88
2025-08-15T00:23:28.342Z,3,GR86-015-31,-55.0,0.283,-1.104,100.27,2.0,,0.0,0.0,
2025-08-15T00:23:28.386Z,3,GR86-015-31,-60.7,0.23,-1.148,100.27,2.0,,0.0,0.0,
2025-08-15T00:23:28.428Z,3,GR86-015-31,-63.6,0.245,-1.158,100.26,2.0,,0.0,0.0,
2025-08-15T00:23:28.515Z,3,GR86-015-31,-63.1,0.263,-1.154,100.28,2.0,6712.0,0.0,0.0,114.94
2025-08-15T00:23:28.557Z,3,GR86-015-31,-44.0,0.252,-1.19,100.27,2.0,,0.0,0.0,
2025-08-15T00:23:28.600Z,3,GR86-015-31,-44.900000000000006,0.298,-1.02,100.25,2.0,,0.0,0.0,
2025-08-15T00:23:28.644Z,3,GR86-015-31,-51.1,0.119,-1.147,100.28,2.0,,0.0,0.0,
2025-08-15T00:23:28.686Z,3,GR86-015-31,-55.7,-0.116,-1.035,100.25,3.0,6791.0,0.0,0.0,
2025-08-15T00:23:28.729Z,3,GR86-015-31,-56.8,0.209,-1.216,100.24,3.0,,0.0,0.0,115.95
2025-08-15T00:23:28.772Z,3,GR86-015-31,-51.900000000000006,0.35,-1.215,100.24,3.0,,0.0,0.0,
2025-08-15T00:23:28.815Z,3,GR86-015-31,-50.3,0.336,-1.162,100.23,3.0,,0.0,0.0,
2025-08-15T00:23:28.858Z,3,GR86-015-31,-55.400000000000006,0.283,-1.086,100.2,3.0,,0.0,0.0,
2025-08-15T00:23:28.901Z,3,GR86-015-31,-59.6,0.159,-1.162,100.22,3.0,5841.0,0.0,0.0,
2025-08-15T00:23:28.945Z,3,GR86-015-31,-61.6,0.139,-1.147,100.2,3.0,,0.0,0.0,117.11
2025-08-15T00:23:28.987Z,3,GR86-015-31,-61.7,0.153,-1.227,100.18,3.0,,0.0,0.0,
2025-08-15T00:23:29.030Z,3,GR86-015-31,-61.7,0.212,-1.287,100.18,3.0,,0.0,0.0,
2025-08-15T00:23:29.074Z,3,GR86-015-31,-61.3,0.222,-1.325,100.17,3.0,,0.0,0.0,
2025-08-15T00:23:29.117Z,3,GR86-015-31,-61.3,0.212,-1.325,100.14,3.0,5636.0,0.0,0.0,
2025-08-15T00:23:29.160Z,3,GR86-015-31,-59.1,0.183,-1.215,100.08,3.0,,0.0,0.0,118.5
2025-08-15T00:23:29.204Z,3,GR86-015-31,-55.400000000000006,0.179,-1.275,100.05,3.0,,0.0,0.0,
2025-08-15T00:23:29.247Z,3,GR86-015-31,-51.5,0.218,-1.226,100.01,3.0,,0.0,0.0,
2025-08-15T00:23:29.290Z,3,GR86-015-31,-50.8,0.194,-1.166,100.02,3.0,,0.0,0.0,
2025-08-15T00:23:29.334Z,3,GR86-015-31,-50.8,0.207,-1.176,99.96,3.0,5655.0,0.0,0.0,
2025-08-15T00:23:29.378Z,3,GR86-015-31,-47.6,0.181,-1.238,99.97,3.0,,0.0,0.0,119.37
2025-08-15T00:23:29.421Z,3,GR86-015-31,-42.400000000000006,0.218,-1.141,99.96,3.0,,0.0,0.0,
2025-08-15T00:23:29.465Z,3,GR86-015-31,-41.400000000000006,0.216,-1.161,99.97,3.0,,0.0,0.0,
2025-08-15T00:23:29.507Z,3,GR86-015-31,-43.6,0.192,-1.245,99.98,3.0,,0.0,0.0,
2025-08-15T00:23:29.550Z,3,GR86-015-31,-50.0,0.215,-1.267,99.98,3.0,5698.0,0.0,0.0,
2025-08-15T00:23:29.595Z,3,GR86-015-31,-54.3,0.216,-1.302,99.97,3.0,,0.0,0.0,120.94
2025-08-15T00:23:29.638Z,3,GR86-015-31,-54.5,0.195,-1.237,99.96,3.0,,0.0,0.0,
2025-08-15T00:23:29.681Z,3,GR86-015-31,-56.900000000000006,0.176,-1.21,99.97,3.0,,0.0,0.0,
2025-08-15T00:23:29.725Z,3,GR86-015-31,-59.5,0.21,-1.239,99.99,3.0,,0.0,0.0,
2025-08-15T00:23:29.768Z,3,GR86-015-31,-62.7,0.208,-1.229,99.99,3.0,5737.0,0.0,0.0,
2025-08-15T00:23:29.811Z,3,GR86-015-31,-63.400000000000006,0.167,-1.247,99.96,3.0,,0.0,0.0,121.78
2025-08-15T00:23:29.854Z,3,GR86-015-31,-58.3,0.17,-1.218,99.98,3.0,,0.0,0.0,
2025-08-15T00:23:29.897Z,3,GR86-015-31,-50.1,0.181,-1.212,99.99,3.0,,0.0,0.0,
2025-08-15T00:23:29.940Z,3,GR86-015-31,-45.0,0.214,-1.283,99.99,3.0,,0.0,0.0,
2025-08-15T00:23:29.984Z,3,GR86-015-31,-44.2,0.224,-1.241,99.99,3.0,5759.0,0.0,0.0,
2025-08-15T00:23:30.026Z,3,GR86-015-31,-42.2,0.209,-1.222,99.99,3.0,,0.0,0.0,122.5
2025-08-15T00:23:30.069Z,3,GR86-015-31,-38.7,0.224,-1.251,99.99,3.0,,0.0,0.0,
2025-08-15T00:23:30.112Z,3,GR86-015-31,-38.400000000000006,0.222,-1.184,99.99,3.0,,0.0,0.0,
2025-08-15T00:23:30.198Z,3,GR86-015-31,-40.6,0.222,-1.174,100.0,3.0,5824.0,0.0,0.0,
2025-08-15T00:23:30.241Z,3,GR86-015-31,-48.0,0.224,-1.189,100.0,3.0,,0.0,0.0,123.79
2025-08-15T00:23:30.285Z,3,GR86-015-31,-51.900000000000006,0.207,-1.144,99.98,3.0,,0.0,0.0,
2025-08-15T00:23:30.328Z,3,GR86-015-31,-53.400000000000006,0.206,-1.142,100.0,3.0,,0.0,0.0,
2025-08-15T00:23:30.370Z,3,GR86-015-31,-55.1,0.211,-1.123,100.02,3.0,,0.0,0.0,
2025-08-15T00:23:30.414Z,3,GR86-015-31,-57.0,0.21,-1.132,99.99,3.0,5849.0,0.0,0.0,
2025-08-15T00:23:30.456Z,3,GR86-015-31,-58.1,0.211,-1.105,99.99,3.0,,0.0,0.0,123.55
2025-08-15T00:23:30.499Z,3,GR86-015-31,-58.2,0.191,-1.089,99.99,3.0,,0.0,0.0,
2025-08-15T00:23:30.542Z,3,GR86-015-31,-55.6,0.187,-1.124,99.99,3.0,,0.0,0.0,
2025-08-15T00:23:30.585Z,3,GR86-015-31,-49.3,0.206,-1.165,99.98,3.0,,0.0,0.0,
2025-08-15T00:23:30.628Z,3,GR86-015-31,-48.900000000000006,0.19,-1.133,100.01,3.0,5915.0,0.0,0.0,
2025-08-15T00:23:30.671Z,3,GR86-015-31,-50.8,0.196,-1.155,100.01,3.0,,0.0,0.0,125.42
2025-08-15T00:23:30.715Z,3,GR86-015-31,-54.5,0.187,-1.134,100.02,3.0,,0.0,0.0,
2025-08-15T00:23:30.757Z,3,GR86-015-31,-52.5,0.208,-1.168,100.03,3.0,,0.0,0.0,
2025-08-15T00:23:30.800Z,3,GR86-015-31,-46.400000000000006,0.201,-1.193,100.01,3.0,,0.0,0.0,
2025-08-15T00:23:30.844Z,3,GR86-015-31,-40.900000000000006,0.19,-1.209,100.02,3.0,5979.0,0.0,0.0,
2025-08-15T00:23:30.886Z,3,GR86-015-31,-40.2,0.227,-1.181,100.02,3.0,,0.0,0.0,126.65
2025-08-15T00:23:30.929Z,3,GR86-015-31,-40.2,0.24,-1.162,100.03,3.0,,0.0,0.0,
2025-08-15T00:23:30.972Z,3,GR86-015-31,-37.6,0.214,-1.158,100.01,3.0,,0.0,0.0,
2025-08-15T00:23:31.015Z,3,GR86-015-31,-26.700000000000003,0.22,-1.168,100.0,3.0,,0.0,0.0,
2025-08-15T00:23:31.058Z,3,GR86-015-31,-23.4,0.219,-1.102,100.01,3.0,6014.0,0.0,0.0,
2025-08-15T00:23:31.101Z,3,GR86-015-31,-23.5,0.26,-1.039,100.0,3.0,,0.0,0.0,127.72
2025-08-15T00:23:31.145Z,3,GR86-015-31,-26.4,0.254,-1.018,99.99,3.0,,0.0,0.0,
2025-08-15T00:23:31.188Z,3,GR86-015-31,-26.4,0.22,-1.009,99.99,3.0,,0.0,0.0,
2025-08-15T00:23:31.230Z,3,GR86-015-31,-22.200000000000003,0.225,-0.927,99.99,3.0,,0.0,0.0,
2025-08-15T00:23:31.274Z,3,GR86-015-31,-19.5,0.237,-0.758,99.99,3.0,6032.0,0.0,0.0,
2025-08-15T00:23:31.316Z,3,GR86-015-31,-19.700000000000003,0.248,-0.6990000000000001,99.99,3.0,,0.0,0.0,128.1
2025-08-15T00:23:31.359Z,3,GR86-015-31,-18.8,0.238,-0.643,100.01,3.0,,0.0,0.0,
2025-08-15T00:23:31.402Z,3,GR86-015-31,-15.8,0.22,-0.5720000000000001,100.01,3.0,,0.0,0.0,
2025-08-15T00:23:31.445Z,3,GR86-015-31,-10.7,0.241,-0.457,100.01,3.0,,0.0,0.0,
2025-08-15T00:23:31.488Z,3,GR86-015-31,-5.6000000000000005,0.244,-0.408,100.02,3.0,6055.0,0.0,0.0,
2025-08-15T00:23:31.531Z,3,GR86-015-31,-3.8,0.231,-0.335,100.03,3.0,,0.0,0.0,128.86
2025-08-15T00:23:31.575Z,3,GR86-015-31,-1.0,0.237,-0.246,99.99,3.0,,0.0,0.0,
2025-08-15T00:23:31.617Z,3,GR86-015-31,2.4000000000000004,0.223,-0.133,100.0,3.0,,0.0,0.0,
2025-08-15T00:23:31.660Z,3,GR86-015-31,7.0,0.237,-0.029,100.01,3.0,,0.0,0.0,
2025-08-15T00:23:31.704Z,3,GR86-015-31,11.7,0.247,0.052,100.01,3.0,6114.0,0.0,0.0,
2025-08-15T00:23:31.746Z,3,GR86-015-31,15.2,0.22,0.198,99.99,3.0,,0.0,0.0,130.33
2025-08-15T00:23:31.790Z,3,GR86-015-31,17.900000000000002,0.204,0.324,99.99,3.0,,0.0,0.0,
2025-08-15T00:23:31.832Z,3,GR86-015-31,18.5,0.218,0.378,100.0,3.0,,0.0,0.0,
2025-08-15T00:23:31.875Z,3,GR86-015-31,18.6,0.234,0.489,100.01,3.0,,0.0,0.0,
2025-08-15T00:23:31.918Z,3,GR86-015-31,18.6,0.236,0.507,100.0,3.0,6175.0,0.0,0.0,
2025-08-15T00:23:31.961Z,3,GR86-015-31,17.1,0.207,0.52,100.02,3.0,,0.0,0.0,131.72
2025-08-15T00:23:32.005Z,3,GR86-015-31,15.1,0.2,0.529,99.99,3.0,,0.0,0.0,
2025-08-15T00:23:32.047Z,3,GR86-015-31,14.7,0.235,0.492,100.03,3.0,,0.0,0.0,
2025-08-15T00:23:32.090Z,3,GR86-015-31,14.3,0.243,0.46,100.03,3.0,,0.0,0.0,
2025-08-15T00:23:32.134Z,3,GR86-015-31,13.8,0.245,0.402,100.0,3.0,6253.0,0.0,0.0,
2025-08-15T00:23:32.176Z,3,GR86-015-31,13.8,0.227,0.366,99.99,3.0,,0.0,0.0,133.26
2025-08-15T00:23:32.219Z,3,GR86-015-31,13.8,0.213,0.374,99.99,3.0,,0.0,0.0,
2025-08-15T00:23:32.262Z,3,GR86-015-31,13.8,0.228,0.359,100.01,3.0,,0.0,0.0,
2025-08-15T00:23:32.305Z,3,GR86-015-31,13.7,0.245,0.333,100.0,3.0,,0.0,0.0,
2025-08-15T00:23:32.348Z,3,GR86-015-31,12.7,0.222,0.317,100.02,3.0,6309.0,0.0,0.0,
2025-08-15T00:23:32.392Z,3,GR86-015-31,10.4,0.214,0.32,100.0,3.0,,0.0,0.0,134.59
2025-08-15T00:23:32.435Z,3,GR86-015-31,9.8,0.22,0.282,100.0,3.0,,0.0,0.0,
2025-08-15T00:23:32.478Z,3,GR86-015-31,9.8,0.224,0.289,100.01,3.0,,0.0,0.0,
2025-08-15T00:23:32.521Z,3,GR86-015-31,9.8,0.244,0.269,100.0,3.0,,0.0,0.0,
2025-08-15T00:23:32.565Z,3,GR86-015-31,9.8,0.223,0.258,100.01,3.0,6386.0,0.0,0.0,
2025-08-15T00:23:32.607Z,3,GR86-015-31,9.8,0.225,0.297,100.02,3.0,,0.0,0.0,137.52
2025-08-15T00:23:32.651Z,3,GR86-015-31,9.8,0.231,0.31,99.98,3.0,,0.0,0.0,
2025-08-15T00:23:32.695Z,3,GR86-015-31,9.8,0.225,0.321,100.0,3.0,,0.0,0.0,
2025-08-15T00:23:32.738Z,3,GR86-015-31,9.8,0.224,0.301,99.99,3.0,,0.0,0.0,
2025-08-15T00:23:32.781Z,3,GR86-015-31,9.8,0.227,0.291,99.99,3.0,6446.0,0.0,0.0,
2025-08-15T00:23:32.825Z,3,GR86-015-31,9.7,0.234,0.278,100.0,3.0,,0.0,0.0,139.14
2025-08-15T00:23:32.868Z,3,GR86-015-31,9.6,0.229,0.289,99.99,3.0,,0.0,0.0,
2025-08-15T00:23:32.910Z,3,GR86-015-31,9.1,0.231,0.29,100.02,3.0,,0.0,0.0,
2025-08-15T00:23:32.954Z,3,GR86-015-31,7.7,0.23,0.255,99.99,3.0,,0.0,0.0,
2025-08-15T00:23:32.998Z,3,GR86-015-31,7.0,0.225,0.246,99.99,3.0,6595.0,0.0,0.0,
2025-08-15T00:23:33.041Z,3,GR86-015-31,5.5,0.232,0.208,100.01,3.0,,0.0,0.0,140.63
2025-08-15T00:23:33.085Z,3,GR86-015-31,4.7,0.234,0.191,99.99,3.0,,0.0,0.0,
2025-08-15T00:23:33.128Z,3,GR86-015-31,4.1000000000000005,0.233,0.162,99.99,3.0,,0.0,0.0,
2025-08-15T00:23:33.171Z,3,GR86-015-31,4.1000000000000005,0.228,0.146,99.99,3.0,,0.0,0.0,
2025-08-15T00:23:33.215Z,3,GR86-015-31,3.7,0.224,0.094,100.0,3.0,6662.0,0.0,0.0,
2025-08-15T00:23:33.257Z,3,GR86-015-31,2.9000000000000004,0.218,0.078,100.0,3.0,,0.0,0.0,142.21
2025-08-15T00:23:33.300Z,3,GR86-015-31,2.5,0.228,0.045,100.0,3.0,,0.0,0.0,
2025-08-15T00:23:33.344Z,3,GR86-015-31,2.1,0.238,0.012,100.0,3.0,,0.0,0.0,
2025-08-15T00:23:33.386Z,3,GR86-015-31,1.6,0.233,-0.003,100.0,3.0,,0.0,0.0,
2025-08-15T00:23:33.429Z,3,GR86-015-31,1.4,0.222,0.001,100.0,3.0,6737.0,0.0,0.0,
2025-08-15T00:23:33.472Z,3,GR86-015-31,1.3,0.233,-0.017,100.0,3.0,,0.0,0.0,143.73
2025-08-15T00:23:33.515Z,3,GR86-015-31,1.2000000000000002,0.226,-0.021,99.99,3.0,,0.0,0.0,
2025-08-15T00:23:33.558Z,3,GR86-015-31,1.0,0.218,-0.021,100.0,3.0,,0.0,0.0,
2025-08-15T00:23:33.601Z,3,GR86-015-31,0.8,0.228,-0.026,99.99,3.0,,0.0,0.0,
2025-08-15T00:23:33.645Z,3,GR86-015-31,0.6000000000000001,0.226,-0.042,100.01,3.0,6819.0,0.0,0.0,
2025-08-15T00:23:33.688Z,3,GR86-015-31,0.5,0.231,-0.042,100.01,3.0,,0.0,0.0,145.38
2025-08-15T00:23:33.730Z,3,GR86-015-31,0.2,0.233,-0.047,100.01,3.0,,0.0,0.0,
2025-08-15T00:23:33.774Z,3,GR86-015-31,-0.1,0.222,-0.057,100.0,3.0,,0.0,0.0,
2025-08-15T00:23:33.817Z,3,GR86-015-31,-0.5,0.227,-0.038,100.0,3.0,,0.0,0.0,
2025-08-15T00:23:33.860Z,3,GR86-015-31,-0.8,0.23,-0.04,100.01,3.0,6892.0,0.0,0.0,
2025-08-15T00:23:33.904Z,3,GR86-015-31,-0.8,0.219,-0.041,100.02,3.0,,0.0,0.0,147.02
2025-08-15T00:23:33.946Z,3,GR86-015-31,-0.8,0.234,-0.055,100.01,3.0,,0.0,0.0,
2025-08-15T00:23:33.989Z,3,GR86-015-31,-0.8,0.215,-0.067,100.01,3.0,,0.0,0.0,
2025-08-15T00:23:34.032Z,3,GR86-015-31,-0.8,0.216,-0.068,100.01,3.0,,0.0,0.0,
2025-08-15T00:23:34.075Z,3,GR86-015-31,-0.8,0.213,-0.07,100.02,3.0,6976.0,0.0,0.0,
2025-08-15T00:23:34.118Z,3,GR86-015-31,-0.7000000000000001,0.227,-0.074,99.99,3.0,,0.0,0.0,148.63
2025-08-15T00:23:34.161Z,3,GR86-015-31,-0.7000000000000001,0.224,-0.048,100.0,3.0,,0.0,0.0,
2025-08-15T00:23:34.205Z,3,GR86-015-31,-0.7000000000000001,0.232,-0.055,100.01,3.0,,0.0,0.0,
2025-08-15T00:23:34.247Z,3,GR86-015-31,-0.6000000000000001,0.215,-0.037,99.99,3.0,,0.0,0.0,
2025-08-15T00:23:34.290Z,3,GR86-015-31,-0.5,0.222,-0.043,100.0,3.0,7060.0,0.0,0.0,
2025-08-15T00:23:34.334Z,3,GR86-015-31,-0.3,0.232,-0.021,99.99,3.0,,0.0,0.0,150.28
2025-08-15T00:23:34.376Z,3,GR86-015-31,-0.3,0.213,-0.003,100.0,3.0,,0.0,0.0,
2025-08-15T00:23:34.419Z,3,GR86-015-31,-0.3,0.214,0.0,99.99,3.0,,0.0,0.0,
2025-08-15T00:23:34.462Z,3,GR86-015-31,-0.3,0.205,0.019,100.01,3.0,,0.0,0.0,
2025-08-15T00:23:34.506Z,3,GR86-015-31,-0.3,0.212,0.038,99.99,3.0,7136.0,0.0,0.0,
2025-08-15T00:23:34.548Z,3,GR86-015-31,-0.3,0.207,0.041,99.99,3.0,,0.0,0.0,152.1
2025-08-15T00:23:34.592Z,3,GR86-015-31,-0.2,0.219,0.055,99.99,3.0,,0.0,0.0,
2025-08-15T00:23:34.635Z,3,GR86-015-31,-0.2,0.187,0.054,99.99,3.0,,0.0,0.0,
2025-08-15T00:23:34.678Z,3,GR86-015-31,-0.2,0.206,0.046,99.98,3.0,,0.0,0.0,
2025-08-15T00:23:34.721Z,3,GR86-015-31,-0.2,0.21,0.05,99.99,3.0,7212.0,0.0,0.0,
2025-08-15T00:23:34.765Z,3,GR86-015-31,-0.2,0.174,0.022,99.98,3.0,,0.0,0.0,154.0
2025-08-15T00:23:34.807Z,3,GR86-015-31,-0.2,-0.127,0.03,100.01,4.0,,0.0,0.0,
2025-08-15T00:23:34.850Z,3,GR86-015-31,-0.1,0.402,0.068,99.97,4.0,,0.0,0.0,
2025-08-15T00:23:34.895Z,3,GR86-015-31,0.0,0.314,-0.018,99.98,4.0,,0.0,0.0,
2025-08-15T00:23:34.938Z,3,GR86-015-31,0.0,0.22,0.081,99.99,4.0,7023.0,0.0,0.0,
2025-08-15T00:23:34.981Z,3,GR86-015-31,0.0,0.046,-0.009,99.99,4.0,,0.0,0.0,155.73
2025-08-15T00:23:35.025Z,3,GR86-015-31,0.0,0.14,-0.002,99.98,4.0,,0.0,0.0,
2025-08-15T00:23:35.068Z,3,GR86-015-31,0.0,0.199,0.093,100.01,4.0,,0.0,0.0,
2025-08-15T00:23:35.154Z,3,GR86-015-31,0.0,0.126,0.04,100.01,4.0,6106.0,0.0,0.0,
2025-08-15T00:23:35.197Z,3,GR86-015-31,0.0,0.159,0.047,100.0,4.0,,0.0,0.0,159.05
2025-08-15T00:23:35.240Z,3,GR86-015-31,-0.3,0.182,0.047,99.99,4.0,,0.0,0.0,
2025-08-15T00:23:35.284Z,3,GR86-015-31,-1.8,0.176,0.022,100.0,4.0,,0.0,0.0,
2025-08-15T00:23:35.326Z,3,GR86-015-31,-2.4000000000000004,0.153,-0.019,99.98,4.0,,0.0,0.0,
2025-08-15T00:23:35.370Z,3,GR86-015-31,-2.4000000000000004,0.175,-0.059,100.01,4.0,6262.0,0.0,0.0,
2025-08-15T00:23:35.412Z,3,GR86-015-31,-2.7,0.208,-0.085,100.01,4.0,,0.0,0.0,160.69
2025-08-15T00:23:35.455Z,3,GR86-015-31,-3.7,0.156,-0.095,100.0,4.0,,0.0,0.0,
2025-08-15T00:23:35.498Z,3,GR86-015-31,-4.1000000000000005,0.16,-0.132,99.99,4.0,,0.0,0.0,
2025-08-15T00:23:35.541Z,3,GR86-015-31,-4.5,0.183,-0.156,100.01,4.0,,0.0,0.0,
2025-08-15T00:23:35.585Z,3,GR86-015-31,-5.300000000000001,0.202,-0.195,99.99,4.0,6338.0,0.0,0.0,
2025-08-15T00:23:35.628Z,3,GR86-015-31,-6.300000000000001,0.195,-0.221,100.01,4.0,,0.0,0.0,162.11
2025-08-15T00:23:35.670Z,3,GR86-015-31,-7.2,0.177,-0.24,100.0,4.0,,0.0,0.0,
2025-08-15T00:23:35.714Z,3,GR86-015-31,-7.9,0.19,-0.288,99.99,4.0,,0.0,0.0,
2025-08-15T00:23:35.756Z,3,GR86-015-31,-8.0,0.19,-0.304,99.99,4.0,,0.0,0.0,
2025-08-15T00:23:35.799Z,3,GR86-015-31,-8.0,0.18,-0.332,99.99,4.0,6438.0,0.0,0.0,
2025-08-15T00:23:35.842Z,3,GR86-015-31,-8.0,0.187,-0.353,99.99,4.0,,0.0,0.0,163.66
2025-08-15T00:23:35.886Z,3,GR86-015-31,-8.0,0.186,-0.351,100.0,4.0,,0.0,0.0,
2025-08-15T00:23:35.928Z,3,GR86-015-31,-7.9,0.175,-0.357,99.99,4.0,,0.0,0.0,
2025-08-15T00:23:35.971Z,3,GR86-015-31,-7.9,0.159,-0.352,100.02,4.0,,0.0,0.0,
2025-08-15T00:23:36.015Z,3,GR86-015-31,-7.9,0.191,-0.36,100.0,4.0,6493.0,0.0,0.0,
2025-08-15T00:23:36.058Z,3,GR86-015-31,-8.0,0.185,-0.359,100.0,4.0,,0.0,0.0,165.22
2025-08-15T00:23:36.101Z,3,GR86-015-31,-8.1,0.181,-0.357,99.99,4.0,,0.0,0.0,
2025-08-15T00:23:36.145Z,3,GR86-015-31,-8.4,0.171,-0.346,99.99,4.0,,0.0,0.0,
2025-08-15T00:23:36.189Z,3,GR86-015-31,-8.6,0.166,-0.354,100.02,4.0,,0.0,0.0,
2025-08-15T00:23:36.232Z,3,GR86-015-31,-8.700000000000001,0.155,-0.343,100.0,4.0,6558.0,0.0,0.0,
2025-08-15T00:23:36.275Z,3,GR86-015-31,-8.8,0.19,-0.381,100.0,4.0,,0.0,0.0,166.6
2025-08-15T00:23:36.318Z,3,GR86-015-31,-8.8,0.192,-0.369,100.0,4.0,,0.0,0.0,
2025-08-15T00:23:36.361Z,3,GR86-015-31,-8.8,0.176,-0.354,100.01,4.0,,0.0,0.0,
2025-08-15T00:23:36.405Z,3,GR86-015-31,-8.9,0.18,-0.358,99.99,4.0,,0.0,0.0,
2025-08-15T00:23:36.448Z,3,GR86-015-31,-9.2,0.155,-0.361,99.99,4.0,6616.0,0.0,0.0,
2025-08-15T00:23:36.491Z,3,GR86-015-31,-9.4,0.153,-0.379,100.0,4.0,,0.0,0.0,167.94
2025-08-15T00:23:36.535Z,3,GR86-015-31,-9.7,0.186,-0.4,100.0,4.0,,0.0,0.0,
2025-08-15T00:23:36.578Z,3,GR86-015-31,-10.5,0.177,-0.399,99.99,4.0,,0.0,0.0,
2025-08-15T00:23:36.621Z,3,GR86-015-31,-11.7,0.175,-0.419,99.99,4.0,,0.0,0.0,
2025-08-15T00:23:36.665Z,3,GR86-015-31,-13.1,0.178,-0.441,99.99,4.0,6667.0,0.0,0.0,
2025-08-15T00:23:36.707Z,3,GR86-015-31,-14.0,0.161,-0.468,100.01,4.0,,0.0,0.0,169.24
2025-08-15T00:23:36.750Z,3,GR86-015-31,-14.0,0.158,-0.469,100.01,4.0,,0.0,0.0,
2025-08-15T00:23:36.795Z,3,GR86-015-31,-13.9,0.178,-0.503,100.0,4.0,,0.0,0.0,
2025-08-15T00:23:36.838Z,3,GR86-015-31,-13.6,0.171,-0.524,99.99,4.0,,0.0,0.0,
2025-08-15T00:23:36.881Z,3,GR86-015-31,-12.5,0.168,-0.513,100.0,4.0,6711.0,0.0,0.0,
2025-08-15T00:23:36.925Z,3,GR86-015-31,-11.0,0.176,-0.502,100.0,4.0,,0.0,0.0,170.66
2025-08-15T00:23:36.968Z,3,GR86-015-31,-10.1,0.175,-0.467,99.99,4.0,,0.0,0.0,
2025-08-15T00:23:37.011Z,3,GR86-015-31,-10.0,0.163,-0.442,100.0,4.0,,0.0,0.0,
2025-08-15T00:23:37.054Z,3,GR86-015-31,-9.1,0.154,-0.401,99.99,4.0,,0.0,0.0,
2025-08-15T00:23:37.097Z,3,GR86-015-31,-8.0,0.16,-0.421,99.99,4.0,6771.0,0.0,0.0,
2025-08-15T00:23:37.140Z,3,GR86-015-31,-7.4,0.159,-0.382,100.0,4.0,,0.0,0.0,171.95000000000002
2025-08-15T00:23:37.184Z,3,GR86-015-31,-7.4,0.171,-0.332,100.01,4.0,,0.0,0.0,
2025-08-15T00:23:37.226Z,3,GR86-015-31,-7.300000000000001,0.175,-0.296,99.98,4.0,,0.0,0.0,
2025-08-15T00:23:37.269Z,3,GR86-015-31,-7.1000000000000005,0.173,-0.273,100.02,4.0,,0.0,0.0,
2025-08-15T00:23:37.312Z,3,GR86-015-31,-6.300000000000001,0.164,-0.263,99.99,4.0,6808.0,0.0,0.0,
2025-08-15T00:23:37.355Z,3,GR86-015-31,-5.7,0.147,-0.206,99.99,4.0,,0.0,0.0,173.28
2025-08-15T00:23:37.398Z,3,GR86-015-31,-5.6000000000000005,0.146,-0.181,100.0,4.0,,3.16,3.16,
2025-08-15T00:23:37.441Z,3,GR86-015-31,-5.6000000000000005,0.118,-0.171,100.0,4.0,,4.24,4.18,
2025-08-15T00:23:37.485Z,3,GR86-015-31,-5.5,0.109,-0.164,99.98,4.0,,6.93,7.17,
2025-08-15T00:23:37.528Z,3,GR86-015-31,-5.5,0.015,-0.147,57.08,4.0,6855.0,11.675,11.87,
2025-08-15T00:23:37.570Z,3,GR86-015-31,-5.5,-0.019,-0.144,1.35,4.0,,15.595,15.565,174.59
2025-08-15T00:23:37.614Z,3,GR86-015-31,-5.5,-0.14,-0.179,2.68,4.0,,17.52,17.81,
2025-08-15T00:23:37.656Z,3,GR86-015-31,-5.4,-0.422,-0.15,2.67,4.0,,17.52,17.84,
2025-08-15T00:23:37.699Z,3,GR86-015-31,-4.6000000000000005,-0.514,-0.174,2.66,4.0,,17.745,18.085,
2025-08-15T00:23:37.742Z,3,GR86-015-31,-3.1,-0.553,-0.172,2.63,4.0,6881.0,24.705,24.95,
2025-08-15T00:23:37.785Z,3,GR86-015-31,-2.7,-0.583,-0.102,2.62,4.0,,37.615,37.615,175.3
2025-08-15T00:23:37.828Z,3,GR86-015-31,-2.7,-0.8140000000000001,-0.176,2.61,4.0,,52.405,52.25,
2025-08-15T00:23:37.871Z,3,GR86-015-31,-2.7,-1.034,-0.143,2.6,4.0,,66.58,66.185,
2025-08-15T00:23:37.915Z,3,GR86-015-31,-2.7,-1.305,-0.144,2.6,4.0,,83.18,82.58500000000001,
2025-08-15T00:23:37.957Z,3,GR86-015-31,-2.6,-1.402,-0.147,2.59,4.0,6751.0,91.055,91.405,
2025-08-15T00:23:38.001Z,3,GR86-015-31,-2.7,-1.394,-0.084,2.57,4.0,,96.2,97.465,168.18
2025-08-15T00:23:38.045Z,3,GR86-015-31,-2.7,-1.479,-0.09,2.57,4.0,,98.245,98.81,
2025-08-15T00:23:38.087Z,3,GR86-015-31,-2.7,-1.457,-0.084,2.56,4.0,,99.495,101.175,
2025-08-15T00:23:38.130Z,3,GR86-015-31,-3.0,-1.436,-0.096,34.730000000000004,4.0,,98.275,98.87,
2025-08-15T00:23:38.174Z,3,GR86-015-31,-3.7,-1.498,-0.088,98.37,4.0,6225.0,90.02,90.325,
2025-08-15T00:23:38.216Z,3,GR86-015-31,-3.7,-1.43,-0.115,83.89,3.0,,82.33,83.73,156.66
2025-08-15T00:23:38.259Z,3,GR86-015-31,-3.7,-1.318,-0.196,11.78,3.0,,80.19,81.215,
2025-08-15T00:23:38.302Z,3,GR86-015-31,-3.8,-1.237,-0.143,3.04,3.0,,80.97,82.925,
2025-08-15T00:23:38.345Z,3,GR86-015-31,-3.3000000000000003,-1.309,-0.153,2.53,3.0,,77.015,77.58,
2025-08-15T00:23:38.432Z,3,GR86-015-31,-0.5,-1.02,-0.172,2.47,3.0,5757.0,57.120000000000005,59.055,146.82
2025-08-15T00:23:38.475Z,3,GR86-015-31,1.9,-0.837,-0.489,2.46,3.0,,47.84,48.74,
2025-08-15T00:23:38.518Z,3,GR86-015-31,2.2,-1.073,-0.225,2.47,3.0,,46.53,47.735,
2025-08-15T00:23:38.561Z,3,GR86-015-31,1.9,-0.973,-0.143,2.47,3.0,,47.49,49.2,
2025-08-15T00:23:38.605Z,3,GR86-015-31,-1.3,-0.918,-0.363,2.47,3.0,6284.0,48.65,49.61,
2025-08-15T00:23:38.647Z,3,GR86-015-31,-4.800000000000001,-1.015,-0.22,2.47,3.0,,50.615,51.9,141.71
2025-08-15T00:23:38.690Z,3,GR86-015-31,-7.9,-0.977,-0.248,2.47,3.0,,52.145,53.455,
2025-08-15T00:23:38.734Z,3,GR86-015-31,-12.2,-1.006,-0.302,2.46,3.0,,53.18,53.96,
2025-08-15T00:23:38.819Z,3,GR86-015-31,-12.9,-1.04,-0.354,2.47,3.0,5941.0,53.870000000000005,54.585,
2025-08-15T00:23:38.864Z,3,GR86-015-31,-12.8,-1.058,-0.342,4.2700000000000005,3.0,,54.05,54.525,134.31
2025-08-15T00:23:38.906Z,3,GR86-015-31,-13.1,-1.049,-0.368,46.92,3.0,,54.92,55.575,
2025-08-15T00:23:38.995Z,3,GR86-015-31,-13.2,-1.013,-0.416,93.98,3.0,,55.515,56.155,
2025-08-15T00:23:39.038Z,3,GR86-015-31,-13.2,-1.193,-0.411,4.88,2.0,5658.0,58.215,59.3,
2025-08-15T00:23:39.081Z,3,GR86-015-31,-14.4,-1.151,-0.455,2.63,2.0,,60.4,61.97,128.66
2025-08-15T00:23:39.125Z,3,GR86-015-31,-16.1,-0.921,-0.6890000000000001,2.45,2.0,,58.935,59.27,
2025-08-15T00:23:39.168Z,3,GR86-015-31,-18.5,-1.059,-0.503,2.45,2.0,,55.835,57.025,
2025-08-15T00:23:39.210Z,3,GR86-015-31,-23.0,-0.764,-0.582,2.44,2.0,,46.53,47.49,
2025-08-15T00:23:39.255Z,3,GR86-015-31,-32.300000000000004,-0.713,-1.018,2.44,2.0,6497.0,29.5,30.275,
2025-08-15T00:23:39.298Z,3,GR86-015-31,-38.8,-0.561,-0.764,2.44,2.0,,22.965,23.805,121.84
2025-08-15T00:23:39.341Z,3,GR86-015-31,-45.8,-0.515,-1.012,2.45,2.0,,18.055,18.74,
2025-08-15T00:23:39.385Z,3,GR86-015-31,-53.6,-0.521,-1.058,2.44,2.0,,14.48,15.245,
2025-08-15T00:23:39.428Z,3,GR86-015-31,-58.900000000000006,-0.526,-0.989,2.44,2.0,,10.44,10.895,
2025-08-15T00:23:39.471Z,3,GR86-015-31,-59.8,-0.403,-1.242,2.43,2.0,6314.0,3.615,3.97,
2025-08-15T00:23:39.515Z,3,GR86-015-31,-58.8,-0.159,-1.141,2.84,2.0,,0.0,0.0,116.77
2025-08-15T00:23:39.557Z,3,GR86-015-31,-58.5,-0.192,-1.232,3.66,2.0,,0.0,0.0,
2025-08-15T00:23:39.600Z,3,GR86-015-31,-58.900000000000006,-0.182,-1.206,4.05,2.0,,0.0,0.0,
2025-08-15T00:23:39.644Z,3,GR86-015-31,-58.400000000000006,-0.169,-1.228,9.34,2.0,,0.0,0.0,
2025-08-15T00:23:39.686Z,3,GR86-015-31,-56.7,-0.165,-1.228,15.75,2.0,6255.0,0.0,0.0,
2025-08-15T00:23:39.730Z,3,GR86-015-31,-56.400000000000006,-0.147,-1.273,16.53,2.0,,0.0,0.0,114.07
2025-08-15T00:23:39.774Z,3,GR86-015-31,-66.8,-0.12,-1.243,10.65,2.0,,0.0,0.0,
2025-08-15T00:23:39.817Z,3,GR86-015-31,-77.2,-0.093,-1.29,9.13,2.0,,0.0,0.0,
2025-08-15T00:23:39.861Z,3,GR86-015-31,-82.9,-0.101,-1.3,8.76,2.0,,0.0,0.0,
2025-08-15T00:23:39.904Z,3,GR86-015-31,-83.2,-0.108,-1.318,12.91,2.0,6255.0,0.0,0.0,
2025-08-15T00:23:39.946Z,3,GR86-015-31,-83.0,-0.099,-1.337,13.3,2.0,,0.0,0.0,112.5
2025-08-15T00:23:39.989Z,3,GR86-015-31,-82.5,-0.148,-1.323,14.04,2.0,,0.0,0.0,
2025-08-15T00:23:40.032Z,3,GR86-015-31,-82.5,-0.167,-1.307,11.94,2.0,,0.0,0.0,
2025-08-15T00:23:40.075Z,3,GR86-015-31,-82.5,-0.129,-1.358,19.69,2.0,,0.0,0.0,
2025-08-15T00:23:40.118Z,3,GR86-015-31,-82.5,-0.108,-1.323,21.91,2.0,6159.0,0.0,0.0,
2025-08-15T00:23:40.161Z,3,GR86-015-31,-82.5,-0.102,-1.313,21.9,2.0,,0.0,0.0,111.31
2025-08-15T00:23:40.205Z,3,GR86-015-31,-82.5,-0.098,-1.354,21.67,2.0,,0.0,0.0,
2025-08-15T00:23:40.247Z,3,GR86-015-31,-82.60000000000001,-0.117,-1.367,21.36,2.0,,0.0,0.0,
2025-08-15T00:23:40.290Z,3,GR86-015-31,-82.9,-0.03,-1.371,20.08,2.0,,0.0,0.0,
2025-08-15T00:23:40.334Z,3,GR86-015-31,-82.9,0.063,-1.399,19.73,2.0,6170.0,0.0,0.0,
2025-08-15T00:23:40.376Z,3,GR86-015-31,-83.0,0.03,-1.415,22.41,2.0,,0.0,0.0,110.04
2025-08-15T00:23:40.419Z,3,GR86-015-31,-83.10000000000001,-0.002,-1.376,21.32,2.0,,0.0,0.0,
2025-08-15T00:23:40.462Z,3,GR86-015-31,-83.30000000000001,-0.028,-1.459,20.57,2.0,,0.0,0.0,
2025-08-15T00:23:40.506Z,3,GR86-015-31,-83.5,-0.001,-1.34,22.52,2.0,,0.0,0.0,
2025-08-15T00:23:40.548Z,3,GR86-015-31,-83.9,0.001,-1.408,32.25,2.0,6218.0,0.0,0.0,
2025-08-15T00:23:40.591Z,3,GR86-015-31,-84.0,0.025,-1.347,39.92,2.0,,0.0,0.0,108.92
2025-08-15T00:23:40.635Z,3,GR86-015-31,-84.2,0.083,-1.268,46.92,2.0,,0.0,0.0,
2025-08-15T00:23:40.678Z,3,GR86-015-31,-84.7,0.129,-1.285,43.33,2.0,,0.0,0.0,
2025-08-15T00:23:40.721Z,3,GR86-015-31,-85.2,0.205,-1.273,36.9,2.0,,0.0,0.0,
2025-08-15T00:23:40.765Z,3,GR86-015-31,-85.60000000000001,0.248,-1.204,32.99,2.0,6187.0,0.0,0.0,
2025-08-15T00:23:40.807Z,3,GR86-015-31,-85.7,0.201,-1.253,28.45,2.0,,0.0,0.0,107.51
2025-08-15T00:23:40.850Z,3,GR86-015-31,-85.80000000000001,0.17,-1.192,18.05,2.0,,0.0,0.0,
2025-08-15T00:23:40.895Z,3,GR86-015-31,-85.9,0.079,-1.189,5.37,2.0,,0.0,0.0,
2025-08-15T00:23:40.938Z,3,GR86-015-31,-85.9,0.006,-1.287,5.11,2.0,,0.0,0.0,
2025-08-15T00:23:40.981Z,3,GR86-015-31,-85.9,-0.056,-1.118,6.63,2.0,6292.0,0.0,0.0,
2025-08-15T00:23:41.025Z,3,GR86-015-31,-86.10000000000001,-0.114,-1.287,18.99,2.0,,0.0,0.0,108.04
2025-08-15T00:23:41.068Z,3,GR86-015-31,-86.30000000000001,-0.074,-1.192,23.06,2.0,,0.0,0.0,
2025-08-15T00:23:41.110Z,3,GR86-015-31,-86.2,-0.23,-1.238,34.04,2.0,,0.0,0.0,
2025-08-15T00:23:41.154Z,3,GR86-015-31,-86.10000000000001,-0.208,-1.202,67.79,2.0,,0.0,0.0,
2025-08-15T00:23:41.196Z,3,GR86-015-31,-85.9,-0.131,-1.347,95.86,2.0,6200.0,0.0,0.0,
2025-08-15T00:23:41.239Z,3,GR86-015-31,-85.0,0.285,-1.326,100.04,2.0,,0.0,0.0,107.78
2025-08-15T00:23:41.282Z,3,GR86-015-31,-80.2,0.44,-1.038,100.23,2.0,,0.0,0.0,
2025-08-15T00:23:41.325Z,3,GR86-015-31,-69.9,0.265,-1.149,100.24,2.0,,0.0,0.0,
2025-08-15T00:23:41.369Z,3,GR86-015-31,-59.3,0.204,-1.046,100.23,2.0,,0.0,0.0,
2025-08-15T00:23:41.412Z,3,GR86-015-31,-55.400000000000006,0.272,-1.148,100.22,2.0,6496.0,0.0,0.0,
2025-08-15T00:23:41.455Z,3,GR86-015-31,-55.0,0.384,-1.285,58.17,2.0,,0.0,0.0,107.27
2025-08-15T00:23:41.498Z,3,GR86-015-31,-46.1,0.146,-1.266,33.67,2.0,,0.0,0.0,
2025-08-15T00:23:41.541Z,3,GR86-015-31,-22.700000000000003,0.225,-1.255,33.78,2.0,,0.0,0.0,
2025-08-15T00:23:41.585Z,3,GR86-015-31,-0.4,0.251,-1.252,44.01,2.0,,0.0,0.0,
2025-08-15T00:23:41.628Z,3,GR86-015-31,6.800000000000001,0.209,-1.061,85.77,2.0,6434.0,0.0,0.0,
2025-08-15T00:23:41.670Z,3,GR86-015-31,-6.300000000000001,0.222,-1.031,100.04,2.0,,0.0,0.0,108.38
2025-08-15T00:23:41.714Z,3,GR86-015-31,-44.900000000000006,0.238,-1.175,100.24,2.0,,0.0,0.0,
2025-08-15T00:23:41.756Z,3,GR86-015-31,-56.5,0.226,-1.109,100.21,2.0,,0.0,0.0,
2025-08-15T00:23:41.799Z,3,GR86-015-31,-55.400000000000006,0.253,-1.261,100.2,2.0,,0.0,0.0,
2025-08-15T00:23:41.842Z,3,GR86-015-31,-49.0,0.266,-1.181,100.2,2.0,6541.0,0.0,0.0,
2025-08-15T00:23:41.886Z,3,GR86-015-31,-48.2,0.303,-1.121,100.21,2.0,,0.0,0.0,109.17
2025-08-15T00:23:41.928Z,3,GR86-015-31,-49.400000000000006,0.299,-1.172,100.19,2.0,,0.0,0.0,
2025-08-15T00:23:41.971Z,3,GR86-015-31,-49.2,0.255,-1.189,100.18,2.0,,0.0,0.0,
2025-08-15T00:23:42.015Z,3,GR86-015-31,-34.6,0.262,-1.235,99.95,2.0,,0.0,0.0,
2025-08-15T00:23:42.058Z,3,GR86-015-31,-18.6,0.267,-1.27,50.73,2.0,6568.0,0.0,0.0,
2025-08-15T00:23:42.101Z,3,GR86-015-31,-14.8,0.287,-1.258,30.18,2.0,,0.0,0.0,109.37
2025-08-15T00:23:42.145Z,3,GR86-015-31,-24.700000000000003,0.31,-1.236,32.96,2.0,,0.0,0.0,
2025-08-15T00:23:42.188Z,3,GR86-015-31,-45.7,0.244,-1.289,64.56,2.0,,0.0,0.0,
2025-08-15T00:23:42.230Z,3,GR86-015-31,-67.9,0.186,-1.208,98.15,2.0,,0.0,0.0,
2025-08-15T00:23:42.274Z,3,GR86-015-31,-84.4,0.152,-1.249,100.22,2.0,6541.0,0.0,0.0,
2025-08-15T00:23:42.316Z,3,GR86-015-31,-84.60000000000001,0.185,-1.2,100.19,2.0,,0.0,0.0,111.07
2025-08-15T00:23:42.359Z,3,GR86-015-31,-84.5,0.229,-1.221,100.19,2.0,,0.0,0.0,
2025-08-15T00:23:42.402Z,3,GR86-015-31,-84.10000000000001,0.278,-1.244,100.19,2.0,,0.0,0.0,
2025-08-15T00:23:42.445Z,3,GR86-015-31,-83.7,0.261,-1.157,100.17,2.0,,0.0,0.0,
2025-08-15T00:23:42.488Z,3,GR86-015-31,-81.4,0.254,-1.137,100.18,2.0,6659.0,0.0,0.0,
2025-08-15T00:23:42.531Z,3,GR86-015-31,-73.8,0.241,-1.198,100.18,2.0,,0.0,0.0,110.58
2025-08-15T00:23:42.575Z,3,GR86-015-31,-51.400000000000006,0.25,-1.197,100.15,2.0,,0.0,0.0,
2025-08-15T00:23:42.617Z,3,GR86-015-31,-38.6,0.25,-1.194,100.14,2.0,,0.0,0.0,
2025-08-15T00:23:42.660Z,3,GR86-015-31,-36.1,0.269,-1.154,100.16,2.0,,0.0,0.0,
2025-08-15T00:23:42.704Z,3,GR86-015-31,-38.0,0.274,-1.105,100.16,2.0,6656.0,0.0,0.0,
2025-08-15T00:23:42.748Z,3,GR86-015-31,-42.3,0.256,-1.157,100.15,2.0,,0.0,0.0,112.32
2025-08-15T00:23:42.791Z,3,GR86-015-31,-41.8,0.259,-1.173,100.12,2.0,,0.0,0.0,
2025-08-15T00:23:42.835Z,3,GR86-015-31,-28.4,0.268,-1.149,100.09,2.0,,0.0,0.0,
2025-08-15T00:23:42.878Z,3,GR86-015-31,-17.400000000000002,0.281,-1.059,100.08,2.0,,0.0,0.0,
2025-08-15T00:23:42.921Z,3,GR86-015-31,-11.0,0.282,-1.065,100.04,2.0,6730.0,0.0,0.0,
2025-08-15T00:23:42.965Z,3,GR86-015-31,-10.0,0.311,-1.008,100.03,2.0,,0.0,0.0,114.26
2025-08-15T00:23:43.008Z,3,GR86-015-31,-14.7,0.309,-0.98,100.04,2.0,,0.0,0.0,
2025-08-15T00:23:43.050Z,3,GR86-015-31,-28.0,0.319,-0.994,100.02,2.0,,0.0,0.0,
2025-08-15T00:23:43.095Z,3,GR86-015-31,-45.900000000000006,0.286,-1.044,99.98,2.0,,0.0,0.0,
2025-08-15T00:23:43.138Z,3,GR86-015-31,-50.1,0.281,-1.046,99.97,2.0,6805.0,0.0,0.0,
2025-08-15T00:23:43.181Z,3,GR86-015-31,-49.900000000000006,0.263,-1.078,99.97,2.0,,0.0,0.0,115.65
2025-08-15T00:23:43.225Z,3,GR86-015-31,-46.1,0.277,-1.022,99.95,2.0,,0.0,0.0,
2025-08-15T00:23:43.268Z,3,GR86-015-31,-39.7,0.268,-0.989,99.98,2.0,,0.0,0.0,
2025-08-15T00:23:43.311Z,3,GR86-015-31,-33.800000000000004,0.254,-0.957,99.98,2.0,,0.0,0.0,
2025-08-15T00:23:43.354Z,3,GR86-015-31,-29.1,0.27,-0.842,99.97,2.0,6799.0,0.0,0.0,
2025-08-15T00:23:43.397Z,3,GR86-015-31,-28.9,0.294,-0.808,99.98,2.0,,0.0,0.0,117.83
2025-08-15T00:23:43.441Z,3,GR86-015-31,-28.9,0.295,-0.789,99.99,2.0,,0.0,0.0,
2025-08-15T00:23:43.484Z,3,GR86-015-31,-28.8,0.279,-0.776,99.99,2.0,,0.0,0.0,
2025-08-15T00:23:43.570Z,3,GR86-015-31,-26.9,0.293,-0.718,100.0,2.0,6885.0,0.0,0.0,
2025-08-15T00:23:43.612Z,3,GR86-015-31,-24.8,0.273,-0.681,100.0,2.0,,0.0,0.0,119.55
2025-08-15T00:23:43.655Z,3,GR86-015-31,-21.9,0.27,-0.658,100.01,2.0,,0.0,0.0,
2025-08-15T00:23:43.699Z,3,GR86-015-31,-21.200000000000003,0.283,-0.621,100.0,2.0,,0.0,0.0,
2025-08-15T00:23:43.741Z,3,GR86-015-31,-21.0,0.285,-0.615,99.98,2.0,,0.0,0.0,
2025-08-15T00:23:43.785Z,3,GR86-015-31,-19.4,0.274,-0.5700000000000001,99.99,2.0,6969.0,0.0,0.0,
2025-08-15T00:23:43.827Z,3,GR86-015-31,-15.6,0.126,-0.527,99.98,3.0,,0.0,0.0,121.43
2025-08-15T00:23:43.870Z,3,GR86-015-31,-12.3,-0.101,-0.434,99.99,3.0,,0.0,0.0,
2025-08-15T00:23:43.914Z,3,GR86-015-31,-8.700000000000001,0.599,-0.442,99.98,3.0,,0.0,0.0,
2025-08-15T00:23:43.956Z,3,GR86-015-31,-7.800000000000001,0.395,-0.358,99.98,3.0,,0.0,0.0,
2025-08-15T00:23:43.999Z,3,GR86-015-31,-6.800000000000001,0.396,-0.22,99.99,3.0,5970.0,0.0,0.0,
2025-08-15T00:23:44.042Z,3,GR86-015-31,-5.300000000000001,0.211,-0.329,99.98,3.0,,0.0,0.0,122.8
2025-08-15T00:23:44.085Z,3,GR86-015-31,-3.9,0.135,-0.203,99.99,3.0,,0.0,0.0,
2025-08-15T00:23:44.128Z,3,GR86-015-31,-2.7,0.184,-0.103,99.99,3.0,,0.0,0.0,
2025-08-15T00:23:44.171Z,3,GR86-015-31,-1.4,0.295,-0.179,100.0,3.0,,0.0,0.0,
2025-08-15T00:23:44.215Z,3,GR86-015-31,-0.8,0.259,-0.019,99.99,3.0,5906.0,0.0,0.0,
2025-08-15T00:23:44.257Z,3,GR86-015-31,-0.8,0.182,-0.066,99.99,3.0,,0.0,0.0,124.69
2025-08-15T00:23:44.301Z,3,GR86-015-31,-0.8,0.203,0.004,99.98,3.0,,0.0,0.0,
2025-08-15T00:23:44.345Z,3,GR86-015-31,-0.8,0.244,0.011,99.99,3.0,,0.0,0.0,
2025-08-15T00:23:44.387Z,3,GR86-015-31,-0.9,0.251,-0.001,99.99,3.0,,0.0,0.0,
2025-08-15T00:23:44.430Z,3,GR86-015-31,-1.2000000000000002,0.221,-0.006,100.02,3.0,5938.0,0.0,0.0,
2025-08-15T00:23:44.474Z,3,GR86-015-31,-1.3,0.214,-0.04,100.01,3.0,,0.0,0.0,126.28
2025-08-15T00:23:44.516Z,3,GR86-015-31,-1.3,0.244,-0.057,100.01,3.0,,0.0,0.0,
2025-08-15T00:23:44.560Z,3,GR86-015-31,-0.9,0.245,-0.067,100.02,3.0,,0.0,0.0,
2025-08-15T00:23:44.604Z,3,GR86-015-31,0.3,0.222,-0.037,100.01,3.0,,0.0,0.0,
2025-08-15T00:23:44.646Z,3,GR86-015-31,1.8,0.223,0.001,99.99,3.0,5988.0,0.0,0.0,
2025-08-15T00:23:44.690Z,3,GR86-015-31,3.0,0.233,0.028,100.02,3.0,,0.0,0.0,127.8
2025-08-15T00:23:44.732Z,3,GR86-015-31,3.2,0.226,0.052,100.0,3.0,,0.0,0.0,
2025-08-15T00:23:44.775Z,3,GR86-015-31,3.3000000000000003,0.224,0.072,100.0,3.0,,0.0,0.0,
2025-08-15T00:23:44.818Z,3,GR86-015-31,3.0,0.216,0.088,100.0,3.0,,0.0,0.0,
2025-08-15T00:23:44.861Z,3,GR86-015-31,1.0,0.236,0.069,100.0,3.0,6052.0,0.0,0.0,
2025-08-15T00:23:44.905Z,3,GR86-015-31,-1.4,0.24,0.037,100.02,3.0,,0.0,0.0,129.25
2025-08-15T00:23:44.947Z,3,GR86-015-31,-3.5,0.227,-0.002,100.04,3.0,,0.0,0.0,
2025-08-15T00:23:44.990Z,3,GR86-015-31,-4.1000000000000005,0.222,-0.028,100.0,3.0,,0.0,0.0,
2025-08-15T00:23:45.034Z,3,GR86-015-31,-4.1000000000000005,0.22,-0.098,99.99,3.0,,0.0,0.0,
2025-08-15T00:23:45.076Z,3,GR86-015-31,-4.0,0.236,-0.105,100.01,3.0,6123.0,0.0,0.0,
2025-08-15T00:23:45.119Z,3,GR86-015-31,-4.0,0.234,-0.138,100.01,3.0,,0.0,0.0,130.74
2025-08-15T00:23:45.162Z,3,GR86-015-31,-3.9,0.221,-0.138,100.03,3.0,,0.0,0.0,
2025-08-15T00:23:45.205Z,3,GR86-015-31,-3.9,0.232,-0.131,100.0,3.0,,0.0,0.0,
2025-08-15T00:23:45.248Z,3,GR86-015-31,-3.8,0.245,-0.126,99.99,3.0,,0.0,0.0,
2025-08-15T00:23:45.291Z,3,GR86-015-31,-3.7,0.225,-0.129,100.0,3.0,6192.0,0.0,0.0,
2025-08-15T00:23:45.335Z,3,GR86-015-31,-3.5,0.24,-0.108,99.99,3.0,,0.0,0.0,132.17000000000002
2025-08-15T00:23:45.378Z,3,GR86-015-31,-3.5,0.22,-0.104,100.0,3.0,,0.0,0.0,
2025-08-15T00:23:45.421Z,3,GR86-015-31,-3.4000000000000004,0.219,-0.063,100.0,3.0,,0.0,0.0,
2025-08-15T00:23:45.465Z,3,GR86-015-31,-2.5,0.24,-0.054,99.99,3.0,,0.0,0.0,
2025-08-15T00:23:45.507Z,3,GR86-015-31,-1.6,0.234,-0.068,99.99,3.0,6255.0,0.0,0.0,
2025-08-15T00:23:45.551Z,3,GR86-015-31,-1.1,0.215,-0.052,99.99,3.0,,0.0,0.0,133.6
2025-08-15T00:23:45.595Z,3,GR86-015-31,-1.1,0.208,-0.047,100.02,3.0,,0.0,0.0,
2025-08-15T00:23:45.638Z,3,GR86-015-31,-1.1,0.217,-0.026,100.0,3.0,,0.0,0.0,
2025-08-15T00:23:45.681Z,3,GR86-015-31,-1.0,0.24,-0.004,99.99,3.0,,0.0,0.0,
2025-08-15T00:23:45.725Z,3,GR86-015-31,-0.8,0.251,-0.017,100.0,3.0,6322.0,0.0,0.0,
2025-08-15T00:23:45.768Z,3,GR86-015-31,-0.8,0.224,-0.012,100.0,3.0,,0.0,0.0,135.06
2025-08-15T00:23:45.810Z,3,GR86-015-31,-0.8,0.213,-0.006,100.0,3.0,,0.0,0.0,
2025-08-15T00:23:45.855Z,3,GR86-015-31,-0.8,0.215,-0.012,100.01,3.0,,0.0,0.0,
2025-08-15T00:23:45.898Z,3,GR86-015-31,-0.7000000000000001,0.225,0.01,100.02,3.0,,0.0,0.0,
2025-08-15T00:23:45.941Z,3,GR86-015-31,-0.5,0.247,0.008,100.01,3.0,6380.0,0.0,0.0,
2025-08-15T00:23:45.985Z,3,GR86-015-31,0.3,0.233,-0.003,100.0,3.0,,0.0,0.0,136.5
2025-08-15T00:23:46.028Z,3,GR86-015-31,1.7000000000000002,0.21,0.008,100.0,3.0,,0.0,0.0,
2025-08-15T00:23:46.071Z,3,GR86-015-31,3.2,0.223,0.047,100.01,3.0,,0.0,0.0,
2025-08-15T00:23:46.115Z,3,GR86-015-31,3.8,0.221,0.107,100.01,3.0,,0.0,0.0,
2025-08-15T00:23:46.157Z,3,GR86-015-31,3.8,0.235,0.114,100.0,3.0,6453.0,0.0,0.0,
2025-08-15T00:23:46.200Z,3,GR86-015-31,3.5,0.242,0.094,100.0,3.0,,0.0,0.0,139.18
2025-08-15T00:23:46.244Z,3,GR86-015-31,2.9000000000000004,0.228,0.07,100.0,3.0,,0.0,0.0,
2025-08-15T00:23:46.286Z,3,GR86-015-31,2.8000000000000003,0.209,0.055,99.98,3.0,,0.0,0.0,
2025-08-15T00:23:46.329Z,3,GR86-015-31,2.8000000000000003,0.212,0.061,99.99,3.0,,0.0,0.0,
2025-08-15T00:23:46.374Z,3,GR86-015-31,2.7,0.214,0.063,99.99,3.0,6520.0,0.0,0.0,
2025-08-15T00:23:46.417Z,3,GR86-015-31,2.7,0.236,0.044,99.98,3.0,,0.0,0.0,140.58
2025-08-15T00:23:46.461Z,3,GR86-015-31,2.7,0.239,0.041,100.0,3.0,,0.0,0.0,
2025-08-15T00:23:46.546Z,3,GR86-015-31,2.7,0.225,0.015,100.0,3.0,,0.0,0.0,
2025-08-15T00:23:46.589Z,3,GR86-015-31,2.7,0.22,0.027,99.98,3.0,6589.0,0.0,0.0,
2025-08-15T00:23:46.632Z,3,GR86-015-31,2.7,0.239,0.045,99.99,3.0,,0.0,0.0,141.96
2025-08-15T00:23:46.675Z,3,GR86-015-31,2.9000000000000004,0.213,0.063,100.01,3.0,,0.0,0.0,
2025-08-15T00:23:46.718Z,3,GR86-015-31,3.7,0.228,0.088,99.99,3.0,,0.0,0.0,
2025-08-15T00:23:46.761Z,3,GR86-015-31,4.5,0.223,0.111,100.0,3.0,,0.0,0.0,
2025-08-15T00:23:46.805Z,3,GR86-015-31,4.6000000000000005,0.214,0.134,100.01,3.0,6697.0,0.0,0.0,
2025-08-15T00:23:46.847Z,3,GR86-015-31,4.6000000000000005,0.207,0.155,100.0,3.0,,0.0,0.0,143.36
2025-08-15T00:23:46.890Z,3,GR86-015-31,4.4,0.217,0.162,100.01,3.0,,0.0,0.0,
2025-08-15T00:23:46.934Z,3,GR86-015-31,3.8,0.214,0.138,99.98,3.0,,0.0,0.0,
2025-08-15T00:23:46.976Z,3,GR86-015-31,3.5,0.217,0.144,99.99,3.0,,0.0,0.0,
2025-08-15T00:23:47.019Z,3,GR86-015-31,2.9000000000000004,0.236,0.115,100.0,3.0,6760.0,0.0,0.0,
2025-08-15T00:23:47.062Z,3,GR86-015-31,1.8,0.228,0.085,100.01,3.0,,0.0,0.0,144.65
2025-08-15T00:23:47.106Z,3,GR86-015-31,0.5,0.205,0.051,99.99,3.0,,0.0,0.0,
2025-08-15T00:23:47.148Z,3,GR86-015-31,0.0,0.205,0.024,100.0,3.0,,0.0,0.0,
2025-08-15T00:23:47.191Z,3,GR86-015-31,0.0,0.209,0.006,100.0,3.0,,0.0,0.0,
2025-08-15T00:23:47.235Z,3,GR86-015-31,0.0,0.223,-0.038,99.99,3.0,6821.0,0.0,0.0,
2025-08-15T00:23:47.278Z,3,GR86-015-31,0.0,0.214,-0.026,100.0,3.0,,0.0,0.0,145.9
2025-08-15T00:23:47.321Z,3,GR86-015-31,-0.2,0.22,-0.043,99.99,3.0,,0.0,0.0,
2025-08-15T00:23:47.365Z,3,GR86-015-31,-0.2,0.221,-0.058,99.99,3.0,,0.0,0.0,
2025-08-15T00:23:47.407Z,3,GR86-015-31,-0.2,0.204,-0.062,100.0,3.0,,0.0,0.0,
2025-08-15T00:23:47.450Z,3,GR86-015-31,-0.2,0.212,-0.072,100.0,3.0,6873.0,0.0,0.0,
2025-08-15T00:23:47.495Z,3,GR86-015-31,-0.3,0.22,-0.07,100.0,3.0,,0.0,0.0,147.14
2025-08-15T00:23:47.538Z,3,GR86-015-31,-1.6,0.212,-0.071,99.99,3.0,,0.0,0.0,
2025-08-15T00:23:47.581Z,3,GR86-015-31,-2.4000000000000004,0.207,-0.086,100.0,3.0,,0.0,0.0,
2025-08-15T00:23:47.625Z,3,GR86-015-31,-2.9000000000000004,0.208,-0.114,100.0,3.0,,0.0,0.0,
2025-08-15T00:23:47.710Z,3,GR86-015-31,-5.7,0.232,-0.152,99.99,3.0,6928.0,0.0,0.0,148.38
2025-08-15T00:23:47.754Z,3,GR86-015-31,-8.200000000000001,0.216,-0.208,99.99,3.0,,0.0,0.0,
2025-08-15T00:23:47.796Z,3,GR86-015-31,-8.4,0.213,-0.26,100.0,3.0,,0.0,0.0,
2025-08-15T00:23:47.839Z,3,GR86-015-31,-8.3,0.199,-0.286,100.0,3.0,,0.0,0.0,
2025-08-15T00:23:47.882Z,3,GR86-015-31,-8.1,0.197,-0.297,99.99,3.0,6989.0,0.0,0.0,
2025-08-15T00:23:47.925Z,3,GR86-015-31,-8.1,0.195,-0.298,99.99,3.0,,0.0,0.0,149.61
2025-08-15T00:23:47.969Z,3,GR86-015-31,-8.1,0.203,-0.319,100.0,3.0,,0.0,0.0,
2025-08-15T00:23:48.012Z,3,GR86-015-31,-7.7,0.204,-0.327,100.02,3.0,,0.0,0.0,
2025-08-15T00:23:48.055Z,3,GR86-015-31,-6.300000000000001,0.195,-0.3,100.0,3.0,,0.0,0.0,
2025-08-15T00:23:48.098Z,3,GR86-015-31,-6.6000000000000005,0.203,-0.285,99.99,3.0,7058.0,0.0,0.0,
2025-08-15T00:23:48.141Z,3,GR86-015-31,-7.0,0.203,-0.268,100.0,3.0,,0.0,0.0,150.78
2025-08-15T00:23:48.185Z,3,GR86-015-31,-7.2,0.204,-0.267,100.0,3.0,,0.0,0.0,
2025-08-15T00:23:48.228Z,3,GR86-015-31,-7.0,0.184,-0.263,100.01,3.0,,0.0,0.0,
2025-08-15T00:23:48.270Z,3,GR86-015-31,-6.2,0.187,-0.253,100.0,3.0,,0.0,0.0,
2025-08-15T00:23:48.314Z,3,GR86-015-31,-4.7,0.196,-0.219,100.0,3.0,7110.0,0.0,0.0,
2025-08-15T00:23:48.356Z,3,GR86-015-31,-3.9,0.19,-0.194,100.01,3.0,,0.0,0.0,151.94
2025-08-15T00:23:48.399Z,3,GR86-015-31,-3.0,0.189,-0.161,99.99,3.0,,0.0,0.0,
2025-08-15T00:23:48.442Z,3,GR86-015-31,-2.0,0.203,-0.141,99.97,3.0,,0.0,0.0,
2025-08-15T00:23:48.486Z,3,GR86-015-31,-1.3,0.057,-0.118,99.99,4.0,,0.0,0.0,
2025-08-15T00:23:48.528Z,3,GR86-015-31,-1.3,-0.103,-0.041,99.99,4.0,7145.0,0.0,0.0,
2025-08-15T00:23:48.571Z,3,GR86-015-31,-0.6000000000000001,0.578,-0.032,100.0,4.0,,0.0,0.0,153.07
2025-08-15T00:23:48.615Z,3,GR86-015-31,-0.2,0.349,0.005,99.99,4.0,,0.0,0.0,
2025-08-15T00:23:48.657Z,3,GR86-015-31,-0.1,0.118,0.083,99.99,4.0,,0.0,0.0,
2025-08-15T00:23:48.700Z,3,GR86-015-31,0.1,0.047,-0.003,99.99,4.0,,0.0,0.0,
2025-08-15T00:23:48.744Z,3,GR86-015-31,0.2,0.183,0.085,99.99,4.0,6379.0,0.0,0.0,
2025-08-15T00:23:48.786Z,3,GR86-015-31,0.3,0.227,0.107,100.0,4.0,,0.0,0.0,154.07
2025-08-15T00:23:48.829Z,3,GR86-015-31,0.3,0.162,0.048,99.99,4.0,,0.0,0.0,
2025-08-15T00:23:48.872Z,3,GR86-015-31,0.3,0.137,0.087,100.02,4.0,,0.0,0.0,
2025-08-15T00:23:48.915Z,3,GR86-015-31,0.4,0.175,0.057,100.0,4.0,,0.0,0.0,
2025-08-15T00:23:48.958Z,3,GR86-015-31,0.4,0.194,0.064,99.99,4.0,6137.0,0.0,0.0,
2025-08-15T00:23:49.001Z,3,GR86-015-31,0.4,0.169,0.067,100.0,4.0,,0.0,0.0,156.08
2025-08-15T00:23:49.045Z,3,GR86-015-31,0.4,0.16,0.042,100.02,4.0,,0.0,0.0,
2025-08-15T00:23:49.087Z,3,GR86-015-31,0.4,0.175,0.034,99.99,4.0,,0.0,0.0,
2025-08-15T00:23:49.130Z,3,GR86-015-31,0.4,0.181,0.027,100.0,4.0,,0.0,0.0,
2025-08-15T00:23:49.174Z,3,GR86-015-31,0.4,0.172,-0.001,99.99,4.0,6127.0,0.0,0.0,
2025-08-15T00:23:49.217Z,3,GR86-015-31,0.4,0.161,0.006,100.01,4.0,,0.0,0.0,157.09
2025-08-15T00:23:49.260Z,3,GR86-015-31,0.4,0.175,-0.012,99.99,4.0,,0.0,0.0,
2025-08-15T00:23:49.304Z,3,GR86-015-31,0.4,0.168,-0.015,99.99,4.0,,0.0,0.0,
2025-08-15T00:23:49.348Z,3,GR86-015-31,0.4,0.164,-0.002,99.99,4.0,,0.0,0.0,
2025-08-15T00:23:49.391Z,3,GR86-015-31,0.4,0.158,0.006,100.0,4.0,6158.0,0.0,0.0,
2025-08-15T00:23:49.435Z,3,GR86-015-31,0.3,0.161,-0.004,99.99,4.0,,0.0,0.0,158.04
2025-08-15T00:23:49.478Z,3,GR86-015-31,0.3,0.169,-0.006,100.0,4.0,,0.0,0.0,
2025-08-15T00:23:49.521Z,3,GR86-015-31,0.3,0.165,0.014,100.0,4.0,,0.0,0.0,
2025-08-15T00:23:49.565Z,3,GR86-015-31,0.3,0.162,0.008,99.99,4.0,,0.0,0.0,
2025-08-15T00:23:49.607Z,3,GR86-015-31,0.3,0.164,0.003,100.0,4.0,6241.0,0.0,0.0,
2025-08-15T00:23:49.650Z,3,GR86-015-31,0.3,0.173,-0.021,99.99,4.0,,0.0,0.0,158.98
2025-08-15T00:23:49.695Z,3,GR86-015-31,0.3,0.16,0.0,99.99,4.0,,0.0,0.0,
2025-08-15T00:23:49.738Z,3,GR86-015-31,0.3,0.176,0.003,100.0,4.0,,0.0,0.0,
2025-08-15T00:23:49.781Z,3,GR86-015-31,0.3,0.168,0.012,99.99,4.0,,0.0,0.0,
2025-08-15T00:23:49.825Z,3,GR86-015-31,0.3,0.17,0.012,100.01,4.0,6282.0,0.0,0.0,
2025-08-15T00:23:49.868Z,3,GR86-015-31,0.3,0.165,0.025,100.03,4.0,,0.0,0.0,159.87
2025-08-15T00:23:49.911Z,3,GR86-015-31,0.3,0.173,0.011,99.97,4.0,,0.0,0.0,
2025-08-15T00:23:49.954Z,3,GR86-015-31,0.3,0.17,0.007,100.0,4.0,,0.0,0.0,
2025-08-15T00:23:49.997Z,3,GR86-015-31,0.3,0.163,-0.006,99.99,4.0,,0.0,0.0,
2025-08-15T00:23:50.040Z,3,GR86-015-31,0.3,0.175,-0.002,100.0,4.0,6319.0,0.0,0.0,
2025-08-15T00:23:50.084Z,3,GR86-015-31,0.3,0.162,-0.006,99.99,4.0,,0.0,0.0,160.70000000000002
2025-08-15T00:23:50.126Z,3,GR86-015-31,0.3,0.17,-0.011,100.01,4.0,,0.0,0.0,
2025-08-15T00:23:50.169Z,3,GR86-015-31,0.3,0.158,-0.006,99.99,4.0,,0.0,0.0,
2025-08-15T00:23:50.212Z,3,GR86-015-31,0.3,0.16,0.006,100.0,4.0,,0.0,0.0,
2025-08-15T00:23:50.255Z,3,GR86-015-31,0.1,0.166,-0.001,99.99,4.0,6358.0,0.0,0.0,
2025-08-15T00:23:50.298Z,3,GR86-015-31,0.0,0.166,-0.02,99.99,4.0,,0.0,0.0,161.68
2025-08-15T00:23:50.341Z,3,GR86-015-31,-0.2,0.159,-0.034,99.99,4.0,,0.0,0.0,
2025-08-15T00:23:50.385Z,3,GR86-015-31,-0.6000000000000001,0.158,-0.037,99.99,4.0,,0.0,0.0,
2025-08-15T00:23:50.428Z,3,GR86-015-31,-1.2000000000000002,0.16,-0.046,100.0,4.0,,0.0,0.0,
2025-08-15T00:23:50.470Z,3,GR86-015-31,-1.9,0.164,-0.065,99.99,4.0,6390.0,0.0,0.0,
2025-08-15T00:23:50.514Z,3,GR86-015-31,-3.0,0.158,-0.087,100.01,4.0,,0.0,0.0,162.64
2025-08-15T00:23:50.556Z,3,GR86-015-31,-3.9,0.151,-0.098,100.0,4.0,,0.0,0.0,
2025-08-15T00:23:50.599Z,3,GR86-015-31,-4.6000000000000005,0.173,-0.138,99.99,4.0,,0.0,0.0,
2025-08-15T00:23:50.642Z,3,GR86-015-31,-5.2,0.158,-0.162,100.02,4.0,,0.0,0.0,
2025-08-15T00:23:50.685Z,3,GR86-015-31,-5.6000000000000005,0.17,-0.195,100.01,4.0,6432.0,0.0,0.0,
2025-08-15T00:23:50.728Z,3,GR86-015-31,-5.800000000000001,0.167,-0.221,100.0,4.0,,0.0,0.0,163.67000000000002
2025-08-15T00:23:50.771Z,3,GR86-015-31,-5.800000000000001,0.171,-0.233,100.0,4.0,,0.0,0.0,
2025-08-15T00:23:50.815Z,3,GR86-015-31,-5.800000000000001,0.155,-0.252,99.99,4.0,,0.0,0.0,
2025-08-15T00:23:50.857Z,3,GR86-015-31,-5.800000000000001,0.16,-0.261,99.99,4.0,,0.0,0.0,
2025-08-15T00:23:50.900Z,3,GR86-015-31,-5.800000000000001,0.174,-0.28,99.99,4.0,6479.0,0.0,0.0,
2025-08-15T00:23:50.945Z,3,GR86-015-31,-5.800000000000001,0.162,-0.27,100.0,4.0,,0.0,0.0,164.64
2025-08-15T00:23:50.987Z,3,GR86-015-31,-5.7,0.164,-0.27,99.99,4.0,,0.0,0.0,
2025-08-15T00:23:51.030Z,3,GR86-015-31,-5.7,0.148,-0.265,100.03,4.0,,0.0,0.0,
2025-08-15T00:23:51.074Z,3,GR86-015-31,-5.2,0.145,-0.242,99.98,4.0,,0.0,0.0,
2025-08-15T00:23:51.116Z,3,GR86-015-31,-4.2,0.163,-0.224,100.01,4.0,6514.0,0.0,0.0,
2025-08-15T00:23:51.159Z,3,GR86-015-31,-4.0,0.165,-0.21,100.0,4.0,,0.0,0.0,165.73
2025-08-15T00:23:51.202Z,3,GR86-015-31,-4.0,0.155,-0.194,100.0,4.0,,0.0,0.0,
2025-08-15T00:23:51.245Z,3,GR86-015-31,-3.9,0.153,-0.155,100.01,4.0,,0.0,0.0,
2025-08-15T00:23:51.289Z,3,GR86-015-31,-3.9,0.164,-0.147,99.99,4.0,,0.0,0.0,
2025-08-15T00:23:51.332Z,3,GR86-015-31,-3.9,0.166,-0.123,99.99,4.0,6540.0,0.0,0.0,
2025-08-15T00:23:51.375Z,3,GR86-015-31,-3.8,0.165,-0.106,100.02,4.0,,0.0,0.0,166.65
2025-08-15T00:23:51.418Z,3,GR86-015-31,-3.8,0.168,-0.083,100.0,4.0,,0.0,0.0,
2025-08-15T00:23:51.461Z,3,GR86-015-31,-3.8,0.168,-0.089,99.98,4.0,,0.0,0.0,
2025-08-15T00:23:51.505Z,3,GR86-015-31,-4.1000000000000005,0.161,-0.075,99.99,4.0,,0.0,0.0,
2025-08-15T00:23:51.547Z,3,GR86-015-31,-5.800000000000001,0.159,-0.102,99.99,4.0,6581.0,0.0,0.0,
2025-08-15T00:23:51.590Z,3,GR86-015-31,-6.800000000000001,0.165,-0.132,100.02,4.0,,0.0,0.0,167.61
2025-08-15T00:23:51.634Z,3,GR86-015-31,-6.6000000000000005,0.17,-0.182,100.0,4.0,,0.0,0.0,
2025-08-15T00:23:51.676Z,3,GR86-015-31,-5.9,0.153,-0.198,99.99,4.0,,0.0,0.0,
2025-08-15T00:23:51.719Z,3,GR86-015-31,-5.7,0.162,-0.207,99.99,4.0,,0.0,0.0,
2025-08-15T00:23:51.762Z,3,GR86-015-31,-5.7,0.17,-0.223,100.02,4.0,6624.0,0.0,0.0,
2025-08-15T00:23:51.805Z,3,GR86-015-31,-5.7,0.154,-0.217,100.0,4.0,,0.0,0.0,169.67000000000002
2025-08-15T00:23:51.848Z,3,GR86-015-31,-5.800000000000001,0.148,-0.204,99.99,4.0,,0.0,0.0,
2025-08-15T00:23:51.892Z,3,GR86-015-31,-5.800000000000001,0.144,-0.213,99.99,4.0,,0.0,0.0,
2025-08-15T00:23:51.935Z,3,GR86-015-31,-5.800000000000001,0.164,-0.212,100.0,4.0,,0.0,0.0,
2025-08-15T00:23:51.978Z,3,GR86-015-31,-5.800000000000001,0.161,-0.21,100.02,4.0,6664.0,0.0,0.0,
2025-08-15T00:23:52.021Z,3,GR86-015-31,-5.7,0.156,-0.194,99.99,4.0,,0.0,0.0,170.75
2025-08-15T00:23:52.065Z,3,GR86-015-31,-5.7,0.165,-0.184,100.0,4.0,,0.0,0.0,
2025-08-15T00:23:52.107Z,3,GR86-015-31,-5.7,0.156,-0.188,100.02,4.0,,0.0,0.0,
2025-08-15T00:23:52.151Z,3,GR86-015-31,-5.7,0.165,-0.191,100.01,4.0,,0.0,0.0,
2025-08-15T00:23:52.195Z,3,GR86-015-31,-5.9,0.164,-0.196,99.99,4.0,6741.0,0.0,0.0,
2025-08-15T00:23:52.238Z,3,GR86-015-31,-5.9,0.146,-0.215,100.0,4.0,,0.0,0.0,171.72
2025-08-15T00:23:52.281Z,3,GR86-015-31,-5.9,0.161,-0.203,100.0,4.0,,0.0,0.0,
2025-08-15T00:23:52.325Z,3,GR86-015-31,-5.9,0.156,-0.215,99.99,4.0,,0.0,0.0,
2025-08-15T00:23:52.368Z,3,GR86-015-31,-5.9,0.162,-0.233,100.01,4.0,,0.0,0.0,
2025-08-15T00:23:52.410Z,3,GR86-015-31,-5.9,0.158,-0.23,99.99,4.0,6784.0,0.0,0.0,
2025-08-15T00:23:52.455Z,3,GR86-015-31,-5.9,0.153,-0.238,100.0,4.0,,0.0,0.0,172.58
2025-08-15T00:23:52.498Z,3,GR86-015-31,-5.9,0.158,-0.236,99.99,4.0,,0.0,0.0,
2025-08-15T00:23:52.541Z,3,GR86-015-31,-5.7,0.166,-0.223,99.99,4.0,,0.0,0.0,
2025-08-15T00:23:52.585Z,3,GR86-015-31,-5.6000000000000005,0.158,-0.198,100.0,4.0,,0.0,0.0,
2025-08-15T00:23:52.628Z,3,GR86-015-31,-5.6000000000000005,0.164,-0.188,99.99,4.0,6812.0,0.0,0.0,
2025-08-15T00:23:52.671Z,3,GR86-015-31,-5.6000000000000005,0.158,-0.178,100.02,4.0,,0.0,0.0,173.57
2025-08-15T00:23:52.715Z,3,GR86-015-31,-5.4,0.16,-0.179,99.99,4.0,,0.0,0.0,
2025-08-15T00:23:52.757Z,3,GR86-015-31,-5.4,0.138,-0.165,99.99,4.0,,0.0,0.0,
2025-08-15T00:23:52.800Z,3,GR86-015-31,-5.4,0.145,-0.153,100.02,4.0,,0.0,0.0,
2025-08-15T00:23:52.845Z,3,GR86-015-31,-5.4,0.148,-0.145,100.02,4.0,6850.0,0.0,0.0,
2025-08-15T00:23:52.888Z,3,GR86-015-31,-5.300000000000001,0.144,-0.143,99.99,4.0,,0.0,0.0,174.64
2025-08-15T00:23:52.930Z,3,GR86-015-31,-5.2,0.152,-0.134,99.99,4.0,,0.0,0.0,
2025-08-15T00:23:52.974Z,3,GR86-015-31,-4.9,0.148,-0.13,100.0,4.0,,0.0,0.0,
2025-08-15T00:23:53.017Z,3,GR86-015-31,-4.800000000000001,0.16,-0.112,99.99,4.0,,0.0,0.0,
2025-08-15T00:23:53.060Z,3,GR86-015-31,-4.800000000000001,0.145,-0.099,100.01,4.0,6892.0,0.0,0.0,
2025-08-15T00:23:53.147Z,3,GR86-015-31,-4.800000000000001,0.144,-0.113,100.01,4.0,,0.0,0.0,175.67000000000002
2025-08-15T00:23:53.190Z,3,GR86-015-31,-4.800000000000001,0.14,-0.113,99.99,4.0,,0.0,0.0,
2025-08-15T00:23:53.234Z,3,GR86-015-31,-4.800000000000001,0.144,-0.101,100.0,4.0,,0.0,0.0,
2025-08-15T00:23:53.276Z,3,GR86-015-31,-4.7,0.153,-0.102,100.0,4.0,6930.0,0.0,0.0,
2025-08-15T00:23:53.319Z,3,GR86-015-31,-4.7,0.144,-0.124,100.0,4.0,,0.0,0.0,176.53
2025-08-15T00:23:53.362Z,3,GR86-015-31,-4.7,0.153,-0.121,100.01,4.0,,0.0,0.0,
2025-08-15T00:23:53.406Z,3,GR86-015-31,-4.7,0.157,-0.127,100.01,4.0,,0.0,0.0,
2025-08-15T00:23:53.448Z,3,GR86-015-31,-4.7,0.153,-0.113,100.01,4.0,,0.0,0.0,
2025-08-15T00:23:53.491Z,3,GR86-015-31,-4.7,0.155,-0.135,100.0,4.0,6964.0,0.0,0.0,
2025-08-15T00:23:53.535Z,3,GR86-015-31,-4.7,0.136,-0.114,99.99,4.0,,0.0,0.0,177.41
2025-08-15T00:23:53.578Z,3,GR86-015-31,-4.800000000000001,0.151,-0.118,99.99,4.0,,0.0,0.0,
2025-08-15T00:23:53.621Z,3,GR86-015-31,-5.2,0.132,-0.119,100.0,4.0,,0.0,0.0,
2025-08-15T00:23:53.665Z,3,GR86-015-31,-5.800000000000001,0.133,-0.142,99.99,4.0,,0.0,0.0,
2025-08-15T00:23:53.707Z,3,GR86-015-31,-5.800000000000001,0.139,-0.178,100.0,4.0,7003.0,0.0,0.0,
2025-08-15T00:23:53.750Z,3,GR86-015-31,-5.7,0.138,-0.175,100.01,4.0,,0.0,0.0,178.47
2025-08-15T00:23:53.796Z,3,GR86-015-31,-5.6000000000000005,0.139,-0.195,100.01,4.0,,0.0,0.0,
2025-08-15T00:23:53.838Z,3,GR86-015-31,-5.6000000000000005,0.131,-0.218,99.99,4.0,,0.0,0.0,
2025-08-15T00:23:53.881Z,3,GR86-015-31,-5.6000000000000005,0.134,-0.218,100.0,4.0,,0.0,0.0,
2025-08-15T00:23:53.925Z,3,GR86-015-31,-5.4,0.135,-0.224,99.99,4.0,7050.0,0.0,0.0,
2025-08-15T00:23:53.968Z,3,GR86-015-31,-5.2,0.128,-0.19,100.0,4.0,,0.0,0.0,179.26
2025-08-15T00:23:54.010Z,3,GR86-015-31,-5.2,0.125,-0.17,99.99,4.0,,0.0,0.0,
2025-08-15T00:23:54.054Z,3,GR86-015-31,-5.2,0.134,-0.163,100.0,4.0,,0.0,0.0,
2025-08-15T00:23:54.096Z,3,GR86-015-31,-5.2,0.135,-0.149,99.99,4.0,,0.0,0.0,
2025-08-15T00:23:54.139Z,3,GR86-015-31,-5.0,0.135,-0.133,99.99,4.0,7080.0,0.0,0.0,
2025-08-15T00:23:54.182Z,3,GR86-015-31,-5.0,0.135,-0.143,99.99,4.0,,0.0,0.0,180.18
2025-08-15T00:23:54.225Z,3,GR86-015-31,-4.9,0.128,-0.147,100.0,4.0,,0.0,0.0,
2025-08-15T00:23:54.268Z,3,GR86-015-31,-4.800000000000001,0.139,-0.142,100.02,4.0,,0.0,0.0,
2025-08-15T00:23:54.311Z,3,GR86-015-31,-4.6000000000000005,0.135,-0.135,100.0,4.0,,0.0,0.0,
2025-08-15T00:23:54.355Z,3,GR86-015-31,-4.4,0.132,-0.136,99.99,4.0,7101.0,0.0,0.0,
2025-08-15T00:23:54.397Z,3,GR86-015-31,-4.4,0.13,-0.123,100.0,4.0,,0.0,0.0,181.89
2025-08-15T00:23:54.440Z,3,GR86-015-31,-4.4,0.134,-0.127,99.99,4.0,,0.0,0.0,
2025-08-15T00:23:54.484Z,3,GR86-015-31,-4.4,0.126,-0.13,100.01,4.0,,0.0,0.0,
2025-08-15T00:23:54.526Z,3,GR86-015-31,-4.4,0.127,-0.125,100.01,4.0,,0.0,0.0,
2025-08-15T00:23:54.569Z,3,GR86-015-31,-4.3,0.129,-0.119,99.99,4.0,7139.0,0.0,0.0,
2025-08-15T00:23:54.612Z,3,GR86-015-31,-4.3,0.122,-0.112,100.0,4.0,,0.0,0.0,182.67
2025-08-15T00:23:54.655Z,3,GR86-015-31,-4.2,0.132,-0.119,100.0,4.0,,0.0,0.0,
2025-08-15T00:23:54.741Z,3,GR86-015-31,-4.1000000000000005,0.124,-0.111,99.99,4.0,,0.0,0.0,
2025-08-15T00:23:54.785Z,3,GR86-015-31,-4.1000000000000005,0.126,-0.098,100.02,4.0,7167.0,0.0,0.0,
2025-08-15T00:23:54.870Z,3,GR86-015-31,-4.0,0.125,-0.096,99.99,4.0,,0.0,0.0,183.49
2025-08-15T00:23:54.914Z,3,GR86-015-31,-3.9,0.121,-0.114,99.99,4.0,,0.0,0.0,
2025-08-15T00:23:54.956Z,3,GR86-015-31,-3.9,0.129,-0.125,99.99,4.0,,0.0,0.0,
2025-08-15T00:23:54.999Z,3,GR86-015-31,-3.9,0.116,-0.103,99.99,4.0,7231.0,0.0,0.0,
2025-08-15T00:23:55.042Z,3,GR86-015-31,-3.8,0.056,-0.114,99.98,4.0,,0.0,0.0,184.22
2025-08-15T00:23:55.086Z,3,GR86-015-31,-3.8,-0.155,-0.08,100.0,5.0,,0.0,0.0,
2025-08-15T00:23:55.128Z,3,GR86-015-31,-3.7,0.319,-0.106,99.99,5.0,,0.0,0.0,
2025-08-15T00:23:55.171Z,3,GR86-015-31,-3.3000000000000003,0.197,-0.175,99.99,5.0,,0.0,0.0,
2025-08-15T00:23:55.215Z,3,GR86-015-31,-3.3000000000000003,0.03,-0.028,100.01,5.0,6284.0,0.0,0.0,
2025-08-15T00:23:55.257Z,3,GR86-015-31,-3.2,0.031,-0.135,99.99,5.0,,0.0,0.0,184.7
2025-08-15T00:23:55.300Z,3,GR86-015-31,-3.1,0.172,-0.096,100.01,5.0,,0.0,0.0,
2025-08-15T00:23:55.345Z,3,GR86-015-31,-3.1,0.128,-0.054,100.0,5.0,,0.0,0.0,
2025-08-15T00:23:55.387Z,3,GR86-015-31,-3.1,0.08,-0.134,99.99,5.0,,0.0,0.0,
2025-08-15T00:23:55.430Z,3,GR86-015-31,-3.0,0.095,-0.073,100.01,5.0,6264.0,0.0,0.0,
2025-08-15T00:23:55.474Z,3,GR86-015-31,-3.0,0.122,-0.07,100.01,5.0,,0.0,0.0,185.57
2025-08-15T00:23:55.516Z,3,GR86-015-31,-2.8000000000000003,0.111,-0.042,100.01,5.0,,0.0,0.0,
2025-08-15T00:23:55.559Z,3,GR86-015-31,-2.8000000000000003,0.093,-0.034,100.0,5.0,,0.0,0.0,
2025-08-15T00:23:55.602Z,3,GR86-015-31,-2.8000000000000003,0.107,-0.058,100.0,5.0,,0.0,0.0,
2025-08-15T00:23:55.645Z,3,GR86-015-31,-2.8000000000000003,0.106,-0.066,100.01,5.0,6332.0,0.0,0.0,
2025-08-15T00:23:55.689Z,3,GR86-015-31,-2.7,0.101,-0.049,100.02,5.0,,0.0,0.0,186.22
2025-08-15T00:23:55.732Z,3,GR86-015-31,-2.7,0.096,-0.06,99.97,5.0,,0.0,0.0,
2025-08-15T00:23:55.775Z,3,GR86-015-31,-2.5,0.105,-0.028,99.98,5.0,,0.0,0.0,
2025-08-15T00:23:55.818Z,3,GR86-015-31,-2.5,0.107,-0.048,100.0,5.0,,0.0,0.0,
2025-08-15T00:23:55.861Z,3,GR86-015-31,-2.5,0.101,-0.052,100.01,5.0,6347.0,0.0,0.0,
2025-08-15T00:23:55.905Z,3,GR86-015-31,-2.4000000000000004,0.109,-0.047,100.0,5.0,,0.0,0.0,186.8
2025-08-15T00:23:55.948Z,3,GR86-015-31,-2.4000000000000004,0.101,-0.049,100.01,5.0,,0.0,0.0,
2025-08-15T00:23:55.992Z,3,GR86-015-31,-2.4000000000000004,0.102,-0.051,99.99,5.0,,0.0,0.0,
2025-08-15T00:23:56.035Z,3,GR86-015-31,-2.4000000000000004,0.099,-0.048,99.99,5.0,,0.0,0.0,
2025-08-15T00:23:56.078Z,3,GR86-015-31,-2.3000000000000003,0.106,-0.046,100.01,5.0,6375.0,0.0,0.0,
2025-08-15T00:23:56.121Z,3,GR86-015-31,-2.3000000000000003,0.102,-0.04,99.98,5.0,,0.0,0.0,187.43
2025-08-15T00:23:56.165Z,3,GR86-015-31,-2.3000000000000003,0.107,-0.041,100.01,5.0,,0.0,0.0,
2025-08-15T00:23:56.207Z,3,GR86-015-31,-2.2,0.107,-0.033,99.99,5.0,,0.0,0.0,
2025-08-15T00:23:56.250Z,3,GR86-015-31,-2.2,0.112,-0.033,100.02,5.0,,0.0,0.0,
2025-08-15T00:23:56.295Z,3,GR86-015-31,-2.1,0.106,-0.044,99.99,5.0,6389.0,0.0,0.0,
2025-08-15T00:23:56.338Z,3,GR86-015-31,-2.1,0.096,-0.042,99.99,5.0,,0.0,0.0,188.12
2025-08-15T00:23:56.381Z,3,GR86-015-31,-2.1,0.101,-0.044,100.01,5.0,,0.0,0.0,
2025-08-15T00:23:56.425Z,3,GR86-015-31,-2.0,0.107,-0.042,100.0,5.0,,0.0,0.0,
2025-08-15T00:23:56.468Z,3,GR86-015-31,-2.0,0.101,-0.054,100.0,5.0,,0.0,0.0,
2025-08-15T00:23:56.510Z,3,GR86-015-31,-2.0,0.107,-0.058,100.0,5.0,6413.0,0.0,0.0,
2025-08-15T00:23:56.554Z,3,GR86-015-31,-1.7000000000000002,0.1,-0.059,100.0,5.0,,0.0,0.0,188.83
2025-08-15T00:23:56.597Z,3,GR86-015-31,-1.5,0.099,-0.057,100.03,5.0,,0.0,0.0,
2025-08-15T00:23:56.640Z,3,GR86-015-31,-1.5,0.096,-0.054,99.99,5.0,,0.0,0.0,
2025-08-15T00:23:56.684Z,3,GR86-015-31,-1.5,0.088,-0.045,99.99,5.0,,0.0,0.0,
2025-08-15T00:23:56.726Z,3,GR86-015-31,-1.4,0.098,-0.048,100.01,5.0,6442.0,0.0,0.0,
2025-08-15T00:23:56.769Z,3,GR86-015-31,-1.2000000000000002,0.095,-0.03,100.0,5.0,,0.0,0.0,189.38
2025-08-15T00:23:56.812Z,3,GR86-015-31,-1.2000000000000002,0.096,-0.024,100.01,5.0,,0.0,0.0,
2025-08-15T00:23:56.855Z,3,GR86-015-31,-1.2000000000000002,0.11,-0.026,100.02,5.0,,0.0,0.0,
2025-08-15T00:23:56.898Z,3,GR86-015-31,-1.2000000000000002,0.103,-0.026,100.01,5.0,,0.0,0.0,
2025-08-15T00:23:56.941Z,3,GR86-015-31,-1.2000000000000002,0.099,-0.027,99.99,5.0,6448.0,0.0,0.0,
2025-08-15T00:23:56.985Z,3,GR86-015-31,-1.2000000000000002,0.102,-0.022,100.02,5.0,,0.0,0.0,190.07
2025-08-15T00:23:57.028Z,3,GR86-015-31,-1.2000000000000002,0.109,-0.021,100.0,5.0,,0.0,0.0,
2025-08-15T00:23:57.070Z,3,GR86-015-31,-1.2000000000000002,0.084,-0.025,99.98,5.0,,0.0,0.0,
2025-08-15T00:23:57.114Z,3,GR86-015-31,-1.2000000000000002,0.103,-0.029,100.0,5.0,,0.0,0.0,
2025-08-15T00:23:57.156Z,3,GR86-015-31,-1.2000000000000002,0.106,-0.035,100.0,5.0,6482.0,0.0,0.0,
2025-08-15T00:23:57.199Z,3,GR86-015-31,-1.2000000000000002,0.108,-0.04,99.99,5.0,,0.0,0.0,191.22
2025-08-15T00:23:57.242Z,3,GR86-015-31,-1.1,0.112,-0.038,99.99,5.0,,0.0,0.0,
2025-08-15T00:23:57.285Z,3,GR86-015-31,-1.1,0.114,-0.048,100.01,5.0,,0.0,0.0,
2025-08-15T00:23:57.328Z,3,GR86-015-31,-1.1,0.113,-0.034,100.0,5.0,,0.0,0.0,
2025-08-15T00:23:57.371Z,3,GR86-015-31,-1.1,0.104,-0.038,100.0,5.0,6499.0,0.0,0.0,
2025-08-15T00:23:57.415Z,3,GR86-015-31,-1.1,0.115,-0.057,99.99,5.0,,0.0,0.0,191.97
2025-08-15T00:23:57.457Z,3,GR86-015-31,-1.1,0.115,-0.054,100.01,5.0,,0.0,0.0,
2025-08-15T00:23:57.500Z,3,GR86-015-31,-1.1,0.112,-0.061,100.0,5.0,,0.0,0.0,
2025-08-15T00:23:57.544Z,3,GR86-015-31,-1.1,0.127,-0.068,100.0,5.0,,0.0,0.0,
2025-08-15T00:23:57.586Z,3,GR86-015-31,-1.1,0.12,-0.065,99.99,5.0,6514.0,0.0,0.0,
2025-08-15T00:23:57.629Z,3,GR86-015-31,-1.1,0.108,-0.072,100.0,5.0,,0.0,0.0,192.46
2025-08-15T00:23:57.672Z,3,GR86-015-31,-1.1,0.105,-0.062,100.01,5.0,,0.0,0.0,
2025-08-15T00:23:57.715Z,3,GR86-015-31,-1.1,0.114,-0.051,100.0,5.0,,0.0,0.0,
2025-08-15T00:23:57.758Z,3,GR86-015-31,-1.1,0.119,-0.043,100.0,5.0,,0.0,0.0,
2025-08-15T00:23:57.801Z,3,GR86-015-31,-0.6000000000000001,0.12,-0.023,100.0,5.0,6566.0,0.0,0.0,
2025-08-15T00:23:57.845Z,3,GR86-015-31,0.5,0.113,-0.036,100.0,5.0,,0.0,0.0,193.34
2025-08-15T00:23:57.887Z,3,GR86-015-31,1.4,0.106,-0.018,100.01,5.0,,0.0,0.0,
2025-08-15T00:23:57.930Z,3,GR86-015-31,1.7000000000000002,0.112,0.004,99.99,5.0,,0.0,0.0,
2025-08-15T00:23:57.974Z,3,GR86-015-31,1.7000000000000002,0.102,0.026,99.99,5.0,,0.0,0.0,
2025-08-15T00:23:58.016Z,3,GR86-015-31,1.7000000000000002,0.103,0.047,100.0,5.0,6590.0,0.0,0.0,
2025-08-15T00:23:58.061Z,3,GR86-015-31,1.7000000000000002,0.107,0.057,100.0,5.0,,0.0,0.0,193.91
2025-08-15T00:23:58.104Z,3,GR86-015-31,1.7000000000000002,0.109,0.067,99.99,5.0,,0.0,0.0,
2025-08-15T00:23:58.146Z,3,GR86-015-31,1.7000000000000002,0.115,0.085,100.01,5.0,,0.0,0.0,
2025-08-15T00:23:58.189Z,3,GR86-015-31,1.7000000000000002,0.117,0.078,100.0,5.0,,0.0,0.0,
2025-08-15T00:23:58.232Z,3,GR86-015-31,1.7000000000000002,0.102,0.07,100.0,5.0,6617.0,0.0,0.0,
2025-08-15T00:23:58.275Z,3,GR86-015-31,1.7000000000000002,0.102,0.066,100.0,5.0,,0.0,0.0,194.49
2025-08-15T00:23:58.318Z,3,GR86-015-31,1.7000000000000002,0.129,0.06,100.0,5.0,,0.0,0.0,
2025-08-15T00:23:58.361Z,3,GR86-015-31,1.7000000000000002,0.104,0.038,99.99,5.0,,0.0,0.0,
2025-08-15T00:23:58.405Z,3,GR86-015-31,1.7000000000000002,0.119,0.017,99.99,5.0,,0.0,0.0,
2025-08-15T00:23:58.447Z,3,GR86-015-31,1.7000000000000002,0.123,0.028,99.99,5.0,6631.0,0.0,0.0,
2025-08-15T00:23:58.490Z,3,GR86-015-31,1.7000000000000002,0.113,0.029,100.0,5.0,,0.0,0.0,195.11
2025-08-15T00:23:58.534Z,3,GR86-015-31,1.7000000000000002,0.103,0.029,99.99,5.0,,0.0,0.0,
2025-08-15T00:23:58.576Z,3,GR86-015-31,1.7000000000000002,0.104,0.033,100.02,5.0,,0.0,0.0,
2025-08-15T00:23:58.619Z,3,GR86-015-31,1.7000000000000002,0.102,0.033,99.99,5.0,,0.0,0.0,
2025-08-15T00:23:58.662Z,3,GR86-015-31,1.7000000000000002,0.108,0.015,100.01,5.0,6648.0,0.0,0.0,
2025-08-15T00:23:58.705Z,3,GR86-015-31,1.7000000000000002,0.117,0.021,100.02,5.0,,0.0,0.0,195.76
2025-08-15T00:23:58.748Z,3,GR86-015-31,1.7000000000000002,0.117,0.015,100.0,5.0,,0.0,0.0,
2025-08-15T00:23:58.792Z,3,GR86-015-31,1.7000000000000002,0.099,0.015,100.0,5.0,,0.0,0.0,
2025-08-15T00:23:58.835Z,3,GR86-015-31,1.7000000000000002,0.113,-0.003,99.99,5.0,,0.0,0.0,
2025-08-15T00:23:58.878Z,3,GR86-015-31,1.7000000000000002,0.106,0.002,100.02,5.0,6656.0,0.0,0.0,
2025-08-15T00:23:58.921Z,3,GR86-015-31,1.7000000000000002,0.108,0.013,100.0,5.0,,0.0,0.0,196.29
2025-08-15T00:23:58.965Z,3,GR86-015-31,1.7000000000000002,0.11,0.01,100.0,5.0,,0.0,0.0,
2025-08-15T00:23:59.007Z,3,GR86-015-31,1.8,0.103,0.011,100.01,5.0,,0.0,0.0,
2025-08-15T00:23:59.050Z,3,GR86-015-31,1.8,0.099,0.023,99.99,5.0,,0.0,0.0,
2025-08-15T00:23:59.095Z,3,GR86-015-31,1.8,0.094,0.019,100.0,5.0,6681.0,0.0,0.0,
2025-08-15T00:23:59.138Z,3,GR86-015-31,1.7000000000000002,0.102,0.023,99.99,5.0,,0.0,0.0,196.77
2025-08-15T00:23:59.181Z,3,GR86-015-31,1.7000000000000002,0.106,0.036,100.0,5.0,,0.0,0.0,
2025-08-15T00:23:59.225Z,3,GR86-015-31,1.7000000000000002,0.089,0.015,100.0,5.0,,0.0,0.0,
2025-08-15T00:23:59.268Z,3,GR86-015-31,1.7000000000000002,0.105,0.009,100.0,5.0,,0.0,0.0,
2025-08-15T00:23:59.310Z,3,GR86-015-31,1.6,0.085,0.005,99.99,5.0,6703.0,0.0,0.0,
2025-08-15T00:23:59.355Z,3,GR86-015-31,1.6,0.104,-0.023,99.99,5.0,,0.0,0.0,197.4
2025-08-15T00:23:59.398Z,3,GR86-015-31,1.6,0.102,-0.015,100.01,5.0,,0.0,0.0,
2025-08-15T00:23:59.441Z,3,GR86-015-31,1.8,0.098,0.009,99.99,5.0,,0.0,0.0,
2025-08-15T00:23:59.485Z,3,GR86-015-31,1.9,0.097,0.02,99.99,5.0,,0.0,0.0,
2025-08-15T00:23:59.528Z,3,GR86-015-31,1.8,0.085,0.015,100.0,5.0,6721.0,0.0,0.0,
2025-08-15T00:23:59.571Z,3,GR86-015-31,1.8,0.082,0.008,100.02,5.0,,0.0,0.0,197.96
2025-08-15T00:23:59.615Z,3,GR86-015-31,1.8,0.097,0.016,100.0,5.0,,0.0,0.0,
2025-08-15T00:23:59.657Z,3,GR86-015-31,2.0,0.098,0.016,100.03,5.0,,0.0,0.0,
2025-08-15T00:23:59.700Z,3,GR86-015-31,2.1,0.083,0.042,99.99,5.0,,0.0,0.0,
2025-08-15T00:23:59.744Z,3,GR86-015-31,2.3000000000000003,0.082,0.054,99.99,5.0,6739.0,0.0,0.0,
2025-08-15T00:23:59.786Z,3,GR86-015-31,2.4000000000000004,0.081,0.067,99.98,5.0,,0.0,0.0,198.49
2025-08-15T00:23:59.829Z,3,GR86-015-31,2.7,0.084,0.066,100.02,5.0,,0.0,0.0,
2025-08-15T00:23:59.872Z,3,GR86-015-31,2.9000000000000004,0.082,0.067,100.0,5.0,,0.0,0.0,
2025-08-15T00:23:59.915Z,3,GR86-015-31,3.2,0.08,0.091,100.0,5.0,,0.0,0.0,
2025-08-15T00:23:59.958Z,3,GR86-015-31,3.9,0.082,0.112,99.98,5.0,6763.0,0.0,0.0,
2025-08-15T00:24:00.001Z,3,GR86-015-31,4.9,0.072,0.147,99.99,5.0,,0.0,0.0,199.89
2025-08-15T00:24:00.045Z,3,GR86-015-31,5.9,0.075,0.173,100.0,5.0,,0.0,0.0,
2025-08-15T00:24:00.088Z,3,GR86-015-31,6.1000000000000005,0.087,0.19,99.99,5.0,,0.0,0.0,
2025-08-15T00:24:00.130Z,3,GR86-015-31,6.1000000000000005,0.087,0.214,100.02,5.0,,0.0,0.0,
2025-08-15T00:24:00.174Z,3,GR86-015-31,6.1000000000000005,0.09,0.198,100.0,5.0,6784.0,0.0,0.0,
2025-08-15T00:24:00.218Z,3,GR86-015-31,6.1000000000000005,0.065,0.198,99.99,5.0,,0.0,0.0,200.47
2025-08-15T00:24:00.261Z,3,GR86-015-31,6.1000000000000005,0.077,0.214,99.99,5.0,,0.0,0.0,
2025-08-15T00:24:00.305Z,3,GR86-015-31,6.2,0.084,0.223,99.99,5.0,,0.0,0.0,
2025-08-15T00:24:00.347Z,3,GR86-015-31,6.2,0.075,0.233,99.99,5.0,,0.0,0.0,
2025-08-15T00:24:00.390Z,3,GR86-015-31,6.2,0.089,0.253,99.99,5.0,6799.0,0.0,0.0,
2025-08-15T00:24:00.434Z,3,GR86-015-31,6.300000000000001,0.071,0.257,99.99,5.0,,0.0,0.0,200.93
2025-08-15T00:24:00.476Z,3,GR86-015-31,6.300000000000001,0.078,0.259,99.99,5.0,,0.0,0.0,
2025-08-15T00:24:00.519Z,3,GR86-015-31,6.300000000000001,0.069,0.262,99.99,5.0,,0.0,0.0,
2025-08-15T00:24:00.562Z,3,GR86-015-31,6.300000000000001,0.096,0.256,100.02,5.0,,0.0,0.0,
2025-08-15T00:24:00.606Z,3,GR86-015-31,6.300000000000001,0.077,0.23,100.0,5.0,6839.0,0.0,0.0,
2025-08-15T00:24:00.648Z,3,GR86-015-31,6.300000000000001,0.08,0.227,100.0,5.0,,0.0,0.0,201.44
2025-08-15T00:24:00.691Z,3,GR86-015-31,6.300000000000001,0.092,0.196,100.0,5.0,,0.0,0.0,
2025-08-15T00:24:00.735Z,3,GR86-015-31,6.4,0.106,0.191,100.0,5.0,,0.0,0.0,
2025-08-15T00:24:00.778Z,3,GR86-015-31,6.7,0.081,0.177,100.0,5.0,,0.0,0.0,
2025-08-15T00:24:00.821Z,3,GR86-015-31,7.300000000000001,0.081,0.225,100.0,5.0,6848.0,0.0,0.0,
2025-08-15T00:24:00.907Z,3,GR86-015-31,7.300000000000001,0.076,0.244,99.99,5.0,,0.0,0.0,201.94
2025-08-15T00:24:00.950Z,3,GR86-015-31,7.300000000000001,0.065,0.256,99.99,5.0,,0.0,0.0,
2025-08-15T00:24:00.996Z,3,GR86-015-31,7.300000000000001,0.077,0.243,99.99,5.0,,0.0,0.0,
2025-08-15T00:24:01.038Z,3,GR86-015-31,7.300000000000001,0.071,0.234,99.99,5.0,6868.0,0.0,0.0,
2025-08-15T00:24:01.081Z,3,GR86-015-31,7.300000000000001,0.066,0.219,99.98,5.0,,0.0,0.0,202.38
2025-08-15T00:24:01.125Z,3,GR86-015-31,7.300000000000001,0.062,0.239,100.02,5.0,,0.0,0.0,
2025-08-15T00:24:01.168Z,3,GR86-015-31,7.2,0.061,0.23,100.01,5.0,,0.0,0.0,
2025-08-15T00:24:01.210Z,3,GR86-015-31,7.1000000000000005,0.075,0.24,99.99,5.0,,0.0,0.0,
2025-08-15T00:24:01.254Z,3,GR86-015-31,7.1000000000000005,0.062,0.215,100.01,5.0,6885.0,0.0,0.0,
2025-08-15T00:24:01.296Z,3,GR86-015-31,7.1000000000000005,0.074,0.209,100.01,5.0,,0.0,0.0,202.65
2025-08-15T00:24:01.339Z,3,GR86-015-31,7.1000000000000005,0.062,0.205,99.99,5.0,,0.0,0.0,
2025-08-15T00:24:01.382Z,3,GR86-015-31,7.1000000000000005,0.072,0.19,100.01,5.0,,0.0,0.0,
2025-08-15T00:24:01.425Z,3,GR86-015-31,7.1000000000000005,0.072,0.192,100.01,5.0,,0.0,0.0,
2025-08-15T00:24:01.468Z,3,GR86-015-31,7.1000000000000005,0.083,0.173,100.01,5.0,6896.0,0.0,0.0,
2025-08-15T00:24:01.511Z,3,GR86-015-31,7.1000000000000005,0.072,0.18,99.99,5.0,,0.0,0.0,203.29
2025-08-15T00:24:01.555Z,3,GR86-015-31,7.1000000000000005,0.065,0.186,100.02,5.0,,0.0,0.0,
2025-08-15T00:24:01.598Z,3,GR86-015-31,7.0,0.075,0.17,99.99,5.0,,0.0,0.0,
2025-08-15T00:24:01.641Z,3,GR86-015-31,7.0,0.07,0.18,99.99,5.0,,0.0,0.0,
2025-08-15T00:24:01.685Z,3,GR86-015-31,6.9,0.08,0.186,100.01,5.0,6911.0,0.0,0.0,
2025-08-15T00:24:01.728Z,3,GR86-015-31,6.9,0.064,0.181,100.01,5.0,,0.0,0.0,203.73
2025-08-15T00:24:01.770Z,3,GR86-015-31,6.9,0.067,0.165,99.99,5.0,,0.0,0.0,
2025-08-15T00:24:01.814Z,3,GR86-015-31,6.9,0.061,0.149,100.02,5.0,,0.0,0.0,
2025-08-15T00:24:01.856Z,3,GR86-015-31,6.9,0.073,0.141,99.99,5.0,,0.0,0.0,
2025-08-15T00:24:01.899Z,3,GR86-015-31,6.9,0.068,0.149,99.99,5.0,6926.0,0.0,0.0,
2025-08-15T00:24:01.942Z,3,GR86-015-31,6.9,0.059,0.161,100.0,5.0,,0.0,0.0,204.24
2025-08-15T00:24:01.986Z,3,GR86-015-31,6.9,0.069,0.162,99.99,5.0,,0.0,0.0,
2025-08-15T00:24:02.028Z,3,GR86-015-31,6.9,0.079,0.178,99.99,5.0,,0.0,0.0,
2025-08-15T00:24:02.071Z,3,GR86-015-31,6.9,0.063,0.194,99.99,5.0,,0.0,0.0,
2025-08-15T00:24:02.115Z,3,GR86-015-31,6.800000000000001,0.058,0.183,100.0,5.0,6947.0,0.0,0.0,
2025-08-15T00:24:02.157Z,3,GR86-015-31,6.7,0.065,0.182,100.03,5.0,,0.0,0.0,204.5
2025-08-15T00:24:02.200Z,3,GR86-015-31,6.4,0.056,0.163,100.01,5.0,,0.0,0.0,
2025-08-15T00:24:02.244Z,3,GR86-015-31,5.9,0.063,0.148,100.01,5.0,,0.0,0.0,
2025-08-15T00:24:02.286Z,3,GR86-015-31,5.5,0.048,0.15,100.01,5.0,,0.0,0.0,
2025-08-15T00:24:02.329Z,3,GR86-015-31,5.4,0.058,0.13,100.01,5.0,6968.0,0.0,0.0,
2025-08-15T00:24:02.372Z,3,GR86-015-31,5.4,0.06,0.129,99.99,5.0,,0.0,0.0,205.01
2025-08-15T00:24:02.415Z,3,GR86-015-31,5.4,0.063,0.124,99.97,5.0,,0.0,0.0,
2025-08-15T00:24:02.458Z,3,GR86-015-31,5.4,0.047,0.11,100.0,5.0,,0.0,0.0,
2025-08-15T00:24:02.501Z,3,GR86-015-31,5.4,0.066,0.102,99.99,5.0,,0.0,0.0,
2025-08-15T00:24:02.545Z,3,GR86-015-31,5.5,0.048,0.102,99.98,5.0,6982.0,0.0,0.0,
2025-08-15T00:24:02.587Z,3,GR86-015-31,5.4,0.076,0.101,99.99,5.0,,0.0,0.0,205.56
2025-08-15T00:24:02.630Z,3,GR86-015-31,5.5,0.071,0.118,100.0,5.0,,0.0,0.0,
2025-08-15T00:24:02.674Z,3,GR86-015-31,5.6000000000000005,0.051,0.144,99.99,5.0,,0.0,0.0,
2025-08-15T00:24:02.716Z,3,GR86-015-31,5.7,0.071,0.187,99.99,5.0,,0.0,0.0,
2025-08-15T00:24:02.759Z,3,GR86-015-31,5.9,0.057,0.199,100.01,5.0,6990.0,0.0,0.0,
2025-08-15T00:24:02.802Z,3,GR86-015-31,6.0,0.068,0.212,100.01,5.0,,0.0,0.0,206.44
2025-08-15T00:24:02.845Z,3,GR86-015-31,6.1000000000000005,0.052,0.245,100.0,5.0,,0.0,0.0,
2025-08-15T00:24:02.888Z,3,GR86-015-31,6.1000000000000005,0.055,0.267,100.01,5.0,,0.0,0.0,
2025-08-15T00:24:02.931Z,3,GR86-015-31,6.1000000000000005,0.058,0.28,99.99,5.0,,0.0,0.0,
2025-08-15T00:24:02.975Z,3,GR86-015-31,6.2,0.044,0.259,100.0,5.0,7014.0,0.0,0.0,
2025-08-15T00:24:03.017Z,3,GR86-015-31,6.300000000000001,0.046,0.247,100.01,5.0,,0.0,0.0,207.01
2025-08-15T00:24:03.060Z,3,GR86-015-31,6.6000000000000005,0.042,0.269,100.02,5.0,,0.0,0.0,
2025-08-15T00:24:03.105Z,3,GR86-015-31,7.300000000000001,0.065,0.245,99.99,5.0,,0.0,0.0,
2025-08-15T00:24:03.148Z,3,GR86-015-31,7.6,0.065,0.251,100.01,5.0,,0.0,0.0,
2025-08-15T00:24:03.191Z,3,GR86-015-31,7.9,0.073,0.224,100.01,5.0,7036.0,2.015,2.135,
2025-08-15T00:24:03.235Z,3,GR86-015-31,8.0,0.035,0.286,100.0,5.0,,4.47,4.5,207.34
2025-08-15T00:24:03.278Z,3,GR86-015-31,8.0,0.025,0.307,99.06,5.0,,8.24,8.545,
2025-08-15T00:24:03.321Z,3,GR86-015-31,8.1,-0.077,0.337,43.46,5.0,,16.59,16.895,
2025-08-15T00:24:03.365Z,3,GR86-015-31,7.4,-0.201,0.284,3.28,5.0,,30.365,30.46,
2025-08-15T00:24:03.407Z,3,GR86-015-31,5.300000000000001,-0.475,0.211,2.71,5.0,7032.0,47.09,47.155,
2025-08-15T00:24:03.450Z,3,GR86-015-31,4.3,-1.036,0.176,2.7,5.0,,64.275,64.06,207.6
2025-08-15T00:24:03.495Z,3,GR86-015-31,4.2,-1.314,0.101,2.69,5.0,,87.455,88.86,
2025-08-15T00:24:03.538Z,3,GR86-015-31,4.2,-1.441,0.154,2.66,5.0,,98.425,100.455,
2025-08-15T00:24:03.581Z,3,GR86-015-31,4.1000000000000005,-1.514,0.169,2.64,5.0,,102.9,103.525,
2025-08-15T00:24:03.625Z,3,GR86-015-31,3.9,-1.289,0.123,2.63,5.0,6463.0,106.15,107.46,
2025-08-15T00:24:03.668Z,3,GR86-015-31,3.9,-1.249,0.187,2.62,5.0,,107.2,107.705,202.4
2025-08-15T00:24:03.710Z,3,GR86-015-31,3.9,-1.188,0.14,2.62,5.0,,104.12,105.49,
2025-08-15T00:24:03.754Z,3,GR86-015-31,3.7,-1.139,0.118,2.61,5.0,,101.89,103.065,
2025-08-15T00:24:03.797Z,3,GR86-015-31,3.7,-1.235,0.18,2.58,5.0,,95.51,96.78,
2025-08-15T00:24:03.840Z,3,GR86-015-31,4.5,-1.312,0.169,2.56,5.0,6098.0,93.5,95.39,
2025-08-15T00:24:03.884Z,3,GR86-015-31,4.5,-1.336,0.236,37.33,5.0,,92.31,93.435,191.34
2025-08-15T00:24:03.926Z,3,GR86-015-31,4.3,-1.357,0.113,84.89,5.0,,95.8,96.93,
2025-08-15T00:24:03.969Z,3,GR86-015-31,4.4,-1.263,0.081,100.17,5.0,,98.06,99.77,
2025-08-15T00:24:04.012Z,3,GR86-015-31,4.6000000000000005,-1.307,0.108,83.32000000000001,4.0,,100.365,102.275,
2025-08-15T00:24:04.098Z,3,GR86-015-31,6.300000000000001,-1.276,0.074,2.63,4.0,6104.0,95.39,97.815,184.59
2025-08-15T00:24:04.141Z,3,GR86-015-31,6.300000000000001,-1.225,-0.034,2.47,4.0,,80.74,82.205,
2025-08-15T00:24:04.185Z,3,GR86-015-31,8.4,-1.078,0.024,2.46,4.0,,67.94,69.05,
2025-08-15T00:24:04.228Z,3,GR86-015-31,10.7,-1.078,0.076,2.45,4.0,,60.49,61.025,
2025-08-15T00:24:04.270Z,3,GR86-015-31,11.7,-1.082,0.035,2.45,4.0,6513.0,57.18,57.44,
2025-08-15T00:24:04.314Z,3,GR86-015-31,12.0,-1.116,0.166,2.46,4.0,,57.53,57.44,174.01
2025-08-15T00:24:04.356Z,3,GR86-015-31,11.9,-1.131,0.15,2.45,4.0,,59.18,59.36,
2025-08-15T00:24:04.399Z,3,GR86-015-31,10.7,-1.152,0.229,2.44,4.0,,61.055,61.175,
2025-08-15T00:24:04.442Z,3,GR86-015-31,8.4,-1.185,0.205,2.45,4.0,,63.71,63.68,
2025-08-15T00:24:04.485Z,3,GR86-015-31,8.1,-1.186,0.233,2.45,4.0,6295.0,65.465,65.525,
2025-08-15T00:24:04.528Z,3,GR86-015-31,8.1,-1.195,0.272,2.46,4.0,,66.61,66.67,168.56
2025-08-15T00:24:04.571Z,3,GR86-015-31,8.200000000000001,-1.176,0.309,2.46,4.0,,67.175,67.42,
2025-08-15T00:24:04.615Z,3,GR86-015-31,10.2,-1.16,0.335,42.37,4.0,,67.815,67.905,
2025-08-15T00:24:04.657Z,3,GR86-015-31,10.4,-1.102,0.341,90.13,4.0,,67.875,68.12,
2025-08-15T00:24:04.700Z,3,GR86-015-31,9.7,-1.108,0.322,69.53,3.0,5995.0,68.365,68.805,
2025-08-15T00:24:04.745Z,3,GR86-015-31,5.9,-1.138,0.294,5.42,3.0,,68.21000000000001,69.8,162.39
2025-08-15T00:24:04.787Z,3,GR86-015-31,-1.2000000000000002,-1.014,0.305,2.75,3.0,,58.905,60.645,
2025-08-15T00:24:04.830Z,3,GR86-015-31,-7.5,-0.994,0.228,2.47,3.0,,51.870000000000005,52.615,
2025-08-15T00:24:04.916Z,3,GR86-015-31,-8.700000000000001,-0.84,0.226,2.44,3.0,6148.0,49.58,50.405,
2025-08-15T00:24:04.959Z,3,GR86-015-31,-8.0,-1.075,0.064,2.44,3.0,,49.870000000000005,51.03,154.76
2025-08-15T00:24:05.004Z,3,GR86-015-31,-4.6000000000000005,-0.985,0.151,2.44,3.0,,50.94,52.22,
2025-08-15T00:24:05.046Z,3,GR86-015-31,6.5,-1.013,-0.096,2.44,3.0,,52.145,52.89,
2025-08-15T00:24:05.089Z,3,GR86-015-31,18.5,-1.012,0.09,2.46,3.0,,52.83,53.425,
2025-08-15T00:24:05.132Z,3,GR86-015-31,21.200000000000003,-1.028,0.146,2.46,3.0,6533.0,53.870000000000005,54.205,
2025-08-15T00:24:05.175Z,3,GR86-015-31,14.3,-1.034,0.093,2.46,3.0,,58.46,58.735,147.22
2025-08-15T00:24:05.218Z,3,GR86-015-31,10.1,-1.08,0.068,2.46,3.0,,63.055,63.205,
2025-08-15T00:24:05.261Z,3,GR86-015-31,9.9,-1.148,0.04,2.46,3.0,,68.09,68.275,
2025-08-15T00:24:05.347Z,3,GR86-015-31,9.9,-1.186,0.148,14.19,3.0,6226.0,72.76,72.96000000000001,
2025-08-15T00:24:05.390Z,3,GR86-015-31,6.6000000000000005,-1.299,0.183,15.24,2.0,,80.025,81.365,139.70000000000002
2025-08-15T00:24:05.434Z,3,GR86-015-31,0.7000000000000001,-1.307,0.221,4.23,2.0,,84.325,86.435,
2025-08-15T00:24:05.476Z,3,GR86-015-31,-0.8,-1.233,0.234,3.82,2.0,,77.765,78.805,
2025-08-15T00:24:05.519Z,3,GR86-015-31,-3.5,-1.36,0.137,3.45,2.0,,63.175,64.43,
2025-08-15T00:24:05.564Z,3,GR86-015-31,-6.300000000000001,-0.996,0.397,3.13,2.0,5816.0,50.22,51.625,
2025-08-15T00:24:05.606Z,3,GR86-015-31,-6.4,-0.841,0.139,2.92,2.0,,41.705,42.425,125.28
2025-08-15T00:24:05.649Z,3,GR86-015-31,-5.6000000000000005,-1.055,0.252,2.79,2.0,,42.36,43.17,
2025-08-15T00:24:05.692Z,3,GR86-015-31,-3.1,-1.029,0.266,2.71,2.0,,49.46,50.71,
2025-08-15T00:24:05.735Z,3,GR86-015-31,6.2,-1.07,0.131,2.65,2.0,,57.715,58.34,
2025-08-15T00:24:05.778Z,3,GR86-015-31,9.5,-1.095,0.305,2.62,2.0,6431.0,63.495000000000005,64.09,
2025-08-15T00:24:05.821Z,3,GR86-015-31,10.3,-1.137,-0.022,2.6,2.0,,67.115,67.39,117.34
2025-08-15T00:24:05.865Z,3,GR86-015-31,10.8,-1.191,0.12,2.58,2.0,,69.435,69.525,
2025-08-15T00:24:05.907Z,3,GR86-015-31,11.4,-1.205,0.186,2.57,2.0,,70.715,71.295,
2025-08-15T00:24:05.950Z,3,GR86-015-31,13.0,-1.15,0.045,2.56,2.0,,71.05,71.465,
2025-08-15T00:24:05.995Z,3,GR86-015-31,14.8,-1.24,0.185,2.56,2.0,5886.0,71.735,72.21000000000001,
2025-08-15T00:24:06.038Z,3,GR86-015-31,16.1,-1.203,0.198,3.4,2.0,,72.365,72.99,109.4
2025-08-15T00:24:06.081Z,3,GR86-015-31,20.5,-1.221,0.227,44.49,1.0,,74.12,74.21000000000001,
2025-08-15T00:24:06.125Z,3,GR86-015-31,28.700000000000003,-1.264,0.288,38.73,1.0,,78.515,78.48,
2025-08-15T00:24:06.210Z,3,GR86-015-31,43.900000000000006,-1.251,0.675,4.22,1.0,5773.0,88.05,90.385,
2025-08-15T00:24:06.255Z,3,GR86-015-31,47.8,-1.319,0.383,3.6,1.0,,83.64,84.39,102.3
2025-08-15T00:24:06.298Z,3,GR86-015-31,49.3,-0.932,0.85,3.19,1.0,,74.715,76.42,
2025-08-15T00:24:06.341Z,3,GR86-015-31,55.3,-0.8170000000000001,0.739,2.97,1.0,,60.26,61.175,
2025-08-15T00:24:06.385Z,3,GR86-015-31,63.3,-0.733,0.971,2.78,1.0,,50.555,51.535,
2025-08-15T00:24:06.428Z,3,GR86-015-31,65.8,-0.758,1.059,2.68,1.0,6079.0,42.925,44.13,
2025-08-15T00:24:06.471Z,3,GR86-015-31,65.8,-0.747,0.773,2.63,1.0,,35.68,37.145,94.32
2025-08-15T00:24:06.515Z,3,GR86-015-31,66.5,-0.654,1.201,2.59,1.0,,26.935,27.97,
2025-08-15T00:24:06.557Z,3,GR86-015-31,71.0,-0.606,0.951,2.56,1.0,,23.485,24.4,
2025-08-15T00:24:06.644Z,3,GR86-015-31,76.3,-0.5710000000000001,1.009,2.5500000000000003,1.0,5959.0,24.11,25.18,
2025-08-15T00:24:06.686Z,3,GR86-015-31,76.4,-0.604,1.08,2.53,1.0,,22.585,23.12,89.23
2025-08-15T00:24:06.730Z,3,GR86-015-31,69.5,-0.525,1.012,2.53,1.0,,18.77,19.365,
2025-08-15T00:24:06.772Z,3,GR86-015-31,62.7,-0.396,0.91,2.5500000000000003,1.0,,9.69,10.345,
2025-08-15T00:24:06.815Z,3,GR86-015-31,71.4,-0.202,1.037,2.53,1.0,,0.0,0.0,
2025-08-15T00:24:06.858Z,3,GR86-015-31,81.60000000000001,-0.235,1.04,2.58,1.0,5910.0,0.0,0.0,
2025-08-15T00:24:06.901Z,3,GR86-015-31,82.9,-0.241,1.06,3.01,1.0,,0.0,0.0,84.89
2025-08-15T00:24:06.945Z,3,GR86-015-31,75.5,-0.182,1.069,4.76,1.0,,0.0,0.0,
2025-08-15T00:24:06.988Z,3,GR86-015-31,63.1,-0.157,1.041,11.77,1.0,,0.0,0.0,
2025-08-15T00:24:07.030Z,3,GR86-015-31,64.0,-0.168,0.96,13.46,1.0,,0.0,0.0,
2025-08-15T00:24:07.074Z,3,GR86-015-31,95.4,-0.205,1.047,8.03,1.0,5846.0,0.0,0.0,
2025-08-15T00:24:07.118Z,3,GR86-015-31,113.4,-0.193,1.129,5.87,1.0,,0.0,0.0,82.94
2025-08-15T00:24:07.161Z,3,GR86-015-31,120.6,-0.141,1.155,3.25,1.0,,0.0,0.0,
2025-08-15T00:24:07.205Z,3,GR86-015-31,120.8,-0.14,1.155,3.11,1.0,,0.0,0.0,
2025-08-15T00:24:07.247Z,3,GR86-015-31,119.0,-0.118,1.164,2.95,1.0,,0.0,0.0,
2025-08-15T00:24:07.290Z,3,GR86-015-31,116.6,-0.178,1.161,3.3000000000000003,1.0,5853.0,0.0,0.0,
2025-08-15T00:24:07.334Z,3,GR86-015-31,116.5,-0.248,1.254,4.79,1.0,,0.0,0.0,81.29
2025-08-15T00:24:07.376Z,3,GR86-015-31,116.5,-0.248,1.24,8.370000000000001,1.0,,0.0,0.0,
2025-08-15T00:24:07.419Z,3,GR86-015-31,116.5,-0.212,1.257,14.31,1.0,,0.0,0.0,
2025-08-15T00:24:07.462Z,3,GR86-015-31,115.9,-0.222,1.297,21.25,1.0,,0.0,0.0,
2025-08-15T00:24:07.506Z,3,GR86-015-31,107.9,-0.214,1.302,24.87,1.0,5607.0,0.0,0.0,
2025-08-15T00:24:07.548Z,3,GR86-015-31,98.2,-0.153,1.235,27.28,1.0,,0.0,0.0,80.0
2025-08-15T00:24:07.591Z,3,GR86-015-31,97.0,-0.108,1.244,29.7,1.0,,0.0,0.0,
2025-08-15T00:24:07.635Z,3,GR86-015-31,107.9,-0.106,1.293,32.35,1.0,,0.0,0.0,
2025-08-15T00:24:07.678Z,3,GR86-015-31,113.2,0.113,1.271,34.160000000000004,1.0,,0.0,0.0,
2025-08-15T00:24:07.721Z,3,GR86-015-31,113.3,0.126,1.263,53.09,1.0,5659.0,0.0,0.0,
2025-08-15T00:24:07.765Z,3,GR86-015-31,108.9,0.243,1.19,96.28,1.0,,0.0,0.0,78.85000000000001
2025-08-15T00:24:07.807Z,3,GR86-015-31,106.1,0.3,1.176,100.22,1.0,,0.0,0.0,
2025-08-15T00:24:07.850Z,3,GR86-015-31,97.7,0.331,1.182,100.23,1.0,,0.0,0.0,
2025-08-15T00:24:07.895Z,3,GR86-015-31,72.10000000000001,0.305,1.228,100.21,1.0,,0.0,0.0,
2025-08-15T00:24:07.938Z,3,GR86-015-31,51.7,0.312,1.192,100.22,1.0,6090.0,0.0,0.0,
2025-08-15T00:24:07.981Z,3,GR86-015-31,37.8,0.345,1.183,100.21,1.0,,0.0,0.0,77.75
2025-08-15T00:24:08.025Z,3,GR86-015-31,31.8,0.355,1.15,100.22,1.0,,0.0,0.0,
2025-08-15T00:24:08.068Z,3,GR86-015-31,27.6,0.381,1.103,100.21,1.0,,0.0,0.0,
2025-08-15T00:24:08.110Z,3,GR86-015-31,23.9,0.359,1.145,100.23,1.0,,0.0,0.0,
2025-08-15T00:24:08.154Z,3,GR86-015-31,23.5,0.399,1.144,100.23,1.0,6207.0,0.0,0.0,
2025-08-15T00:24:08.196Z,3,GR86-015-31,23.700000000000003,0.42,1.142,100.24,1.0,,0.0,0.0,80.49
2025-08-15T00:24:08.239Z,3,GR86-015-31,31.700000000000003,0.42,1.123,100.28,1.0,,0.0,0.0,
2025-08-15T00:24:08.282Z,3,GR86-015-31,48.3,0.435,1.149,100.26,1.0,,0.0,0.0,
2025-08-15T00:24:08.325Z,3,GR86-015-31,67.0,0.415,1.182,100.27,1.0,,0.0,0.0,
2025-08-15T00:24:08.370Z,3,GR86-015-31,82.7,0.353,1.248,100.24,1.0,6314.0,0.0,0.0,
2025-08-15T00:24:08.412Z,3,GR86-015-31,91.6,0.336,1.218,100.22,1.0,,0.0,0.0,82.31
2025-08-15T00:24:08.455Z,3,GR86-015-31,94.9,0.32,1.184,100.19,1.0,,0.0,0.0,
2025-08-15T00:24:08.498Z,3,GR86-015-31,95.0,0.323,1.182,100.2,1.0,,0.0,0.0,
2025-08-15T00:24:08.541Z,3,GR86-015-31,95.2,0.303,1.2,100.18,1.0,,0.0,0.0,
2025-08-15T00:24:08.585Z,3,GR86-015-31,95.3,0.311,1.158,100.18,1.0,6308.0,0.0,0.0,
2025-08-15T00:24:08.628Z,3,GR86-015-31,95.3,0.306,1.139,100.18,1.0,,0.0,0.0,84.24
2025-08-15T00:24:08.670Z,3,GR86-015-31,95.3,0.304,1.111,100.18,1.0,,0.0,0.0,
2025-08-15T00:24:08.714Z,3,GR86-015-31,95.3,0.29,1.118,100.18,1.0,,0.0,0.0,
2025-08-15T00:24:08.756Z,3,GR86-015-31,95.3,0.285,1.077,100.17,1.0,,0.0,0.0,
2025-08-15T00:24:08.799Z,3,GR86-015-31,90.5,0.309,1.181,100.15,1.0,6656.0,0.0,0.0,
2025-08-15T00:24:08.842Z,3,GR86-015-31,76.3,0.288,1.171,100.15,1.0,,0.0,0.0,86.72
2025-08-15T00:24:08.886Z,3,GR86-015-31,61.400000000000006,0.295,1.141,100.14,1.0,,0.0,0.0,
2025-08-15T00:24:08.928Z,3,GR86-015-31,51.3,0.327,1.102,100.11,1.0,,0.0,0.0,
2025-08-15T00:24:08.971Z,3,GR86-015-31,46.0,0.374,1.076,100.08,1.0,,0.0,0.0,
2025-08-15T00:24:09.015Z,3,GR86-015-31,45.0,0.354,1.071,100.05,1.0,6904.0,0.0,0.0,
2025-08-15T00:24:09.057Z,3,GR86-015-31,45.8,0.366,1.106,100.04,1.0,,0.0,0.0,88.84
2025-08-15T00:24:09.100Z,3,GR86-015-31,52.1,0.359,1.182,100.01,1.0,,0.0,0.0,
2025-08-15T00:24:09.144Z,3,GR86-015-31,56.8,0.352,1.221,99.98,1.0,,0.0,0.0,
2025-08-15T00:24:09.186Z,3,GR86-015-31,57.2,0.317,1.241,99.96,1.0,,0.0,0.0,
2025-08-15T00:24:09.229Z,3,GR86-015-31,53.7,0.345,1.228,99.98,1.0,7037.0,0.0,0.0,
2025-08-15T00:24:09.272Z,3,GR86-015-31,46.3,0.38,1.183,99.98,1.0,,0.0,0.0,90.76
2025-08-15T00:24:09.315Z,3,GR86-015-31,42.1,0.358,0.963,99.99,1.0,,0.0,0.0,
2025-08-15T00:24:09.358Z,3,GR86-015-31,41.900000000000006,0.354,1.084,99.99,1.0,,0.0,0.0,
2025-08-15T00:24:09.445Z,3,GR86-015-31,40.900000000000006,0.336,0.898,99.99,1.0,7187.0,0.0,0.0,
2025-08-15T00:24:09.487Z,3,GR86-015-31,29.1,0.427,0.986,99.99,1.0,,0.0,0.0,92.46
2025-08-15T00:24:09.530Z,3,GR86-015-31,21.200000000000003,0.398,0.92,99.97,1.0,,0.0,0.0,
2025-08-15T00:24:09.574Z,3,GR86-015-31,10.1,0.357,0.922,99.97,1.0,,0.0,0.0,
2025-08-15T00:24:09.616Z,3,GR86-015-31,3.7,-0.081,0.922,100.0,1.0,,0.0,0.0,
2025-08-15T00:24:09.659Z,3,GR86-015-31,-1.7000000000000002,-0.073,0.627,99.97,2.0,7049.0,0.0,0.0,
2025-08-15T00:24:09.702Z,3,GR86-015-31,-2.3000000000000003,0.5680000000000001,0.422,99.99,2.0,,0.0,0.0,94.16
2025-08-15T00:24:09.745Z,3,GR86-015-31,-0.8,0.295,0.504,100.01,2.0,,0.0,0.0,
2025-08-15T00:24:09.790Z,3,GR86-015-31,5.5,0.463,0.796,100.01,2.0,,0.0,0.0,
2025-08-15T00:24:09.832Z,3,GR86-015-31,7.300000000000001,0.633,0.768,99.98,2.0,,0.0,0.0,
2025-08-15T00:24:09.875Z,3,GR86-015-31,4.9,0.27,0.787,99.98,2.0,6282.0,0.0,0.0,
2025-08-15T00:24:09.918Z,3,GR86-015-31,-2.3000000000000003,0.402,0.6,99.96,2.0,,0.0,0.0,94.67
2025-08-15T00:24:09.961Z,3,GR86-015-31,-5.7,0.369,0.598,99.97,2.0,,0.0,0.0,
2025-08-15T00:24:10.005Z,3,GR86-015-31,-5.9,0.41,0.81,99.99,2.0,,0.0,0.0,
2025-08-15T00:24:10.048Z,3,GR86-015-31,-3.6,0.392,0.42,100.0,2.0,,0.0,0.0,
2025-08-15T00:24:10.091Z,3,GR86-015-31,5.9,0.316,0.647,100.0,2.0,5784.0,0.0,0.0,
2025-08-15T00:24:10.135Z,3,GR86-015-31,18.2,0.44,0.597,99.98,2.0,,0.0,0.0,96.93
2025-08-15T00:24:10.178Z,3,GR86-015-31,20.6,0.404,0.625,99.99,2.0,,0.0,0.0,
2025-08-15T00:24:10.221Z,3,GR86-015-31,20.8,0.452,0.656,99.99,2.0,,0.0,0.0,
2025-08-15T00:24:10.265Z,3,GR86-015-31,18.0,0.301,0.519,100.01,2.0,,0.0,0.0,
2025-08-15T00:24:10.307Z,3,GR86-015-31,15.6,0.262,0.261,100.0,2.0,5821.0,0.0,0.0,
2025-08-15T00:24:10.350Z,3,GR86-015-31,13.8,0.279,0.49,99.99,2.0,,0.0,0.0,98.96
2025-08-15T00:24:10.395Z,3,GR86-015-31,9.8,0.4,0.203,100.0,2.0,,0.0,0.0,
2025-08-15T00:24:10.438Z,3,GR86-015-31,6.1000000000000005,0.429,0.24,99.99,2.0,,0.0,0.0,
2025-08-15T00:24:10.481Z,3,GR86-015-31,4.7,0.319,0.226,100.01,2.0,,0.0,0.0,
2025-08-15T00:24:10.525Z,3,GR86-015-31,4.5,0.447,0.146,100.01,2.0,5938.0,0.0,0.0,
2025-08-15T00:24:10.568Z,3,GR86-015-31,4.4,0.317,0.214,100.0,2.0,,0.0,0.0,100.87
2025-08-15T00:24:10.610Z,3,GR86-015-31,3.7,0.28,0.192,100.01,2.0,,0.0,0.0,
2025-08-15T00:24:10.654Z,3,GR86-015-31,2.2,0.342,0.002,100.0,2.0,,0.0,0.0,
2025-08-15T00:24:10.697Z,3,GR86-015-31,1.5,0.276,0.024,99.99,2.0,,0.0,0.0,
2025-08-15T00:24:10.740Z,3,GR86-015-31,1.4,0.387,-0.083,100.0,2.0,5940.0,0.0,0.0,
2025-08-15T00:24:10.784Z,3,GR86-015-31,1.2000000000000002,0.388,-0.074,100.0,2.0,,0.0,0.0,102.71
2025-08-15T00:24:10.826Z,3,GR86-015-31,1.1,0.311,-0.081,100.01,2.0,,0.0,0.0,
2025-08-15T00:24:10.869Z,3,GR86-015-31,1.0,0.279,-0.116,100.02,2.0,,0.0,0.0,
2025-08-15T00:24:10.912Z,3,GR86-015-31,0.7000000000000001,0.184,-0.143,99.99,2.0,,0.0,0.0,
2025-08-15T00:24:10.955Z,3,GR86-015-31,-0.3,0.364,-0.15,100.01,2.0,6134.0,0.0,0.0,
2025-08-15T00:24:10.998Z,3,GR86-015-31,-0.8,0.417,-0.211,100.02,2.0,,0.0,0.0,106.47
2025-08-15T00:24:11.041Z,3,GR86-015-31,-1.1,0.362,-0.174,99.99,2.0,,0.0,0.0,
2025-08-15T00:24:11.085Z,3,GR86-015-31,-1.2000000000000002,0.4,-0.169,100.02,2.0,,0.0,0.0,
2025-08-15T00:24:11.128Z,3,GR86-015-31,-1.4,0.33,-0.167,99.99,2.0,,0.0,0.0,
2025-08-15T00:24:11.170Z,3,GR86-015-31,-1.4,0.343,-0.123,100.0,2.0,6255.0,0.0,0.0,
2025-08-15T00:24:11.214Z,3,GR86-015-31,-1.8,0.33,-0.123,100.0,2.0,,0.0,0.0,108.19
2025-08-15T00:24:11.256Z,3,GR86-015-31,-1.9,0.295,-0.149,100.0,2.0,,0.0,0.0,
2025-08-15T00:24:11.299Z,3,GR86-015-31,-2.0,0.296,-0.136,99.99,2.0,,0.0,0.0,
2025-08-15T00:24:11.342Z,3,GR86-015-31,-2.0,0.329,-0.161,100.01,2.0,,0.0,0.0,
2025-08-15T00:24:11.385Z,3,GR86-015-31,-2.0,0.333,-0.167,100.0,2.0,6299.0,0.0,0.0,
2025-08-15T00:24:11.428Z,3,GR86-015-31,-2.0,0.313,-0.132,100.0,2.0,,0.0,0.0,110.11
2025-08-15T00:24:11.471Z,3,GR86-015-31,-2.0,0.3,-0.148,99.99,2.0,,0.0,0.0,
2025-08-15T00:24:11.515Z,3,GR86-015-31,-2.0,0.31,-0.099,100.01,2.0,,0.0,0.0,
2025-08-15T00:24:11.557Z,3,GR86-015-31,-2.0,0.312,-0.099,100.02,2.0,,0.0,0.0,
2025-08-15T00:24:11.601Z,3,GR86-015-31,-2.0,0.324,-0.088,100.02,2.0,6490.0,0.0,0.0,
2025-08-15T00:24:11.645Z,3,GR86-015-31,-2.0,0.318,-0.092,99.99,2.0,,0.0,0.0,111.82
2025-08-15T00:24:11.687Z,3,GR86-015-31,-2.1,0.306,-0.063,99.99,2.0,,0.0,0.0,
2025-08-15T00:24:11.731Z,3,GR86-015-31,-2.1,0.315,-0.068,100.01,2.0,,0.0,0.0,
2025-08-15T00:24:11.774Z,3,GR86-015-31,-2.1,0.322,-0.067,100.01,2.0,,0.0,0.0,
2025-08-15T00:24:11.860Z,3,GR86-015-31,-2.2,0.314,-0.073,100.01,2.0,6573.0,0.0,0.0,113.62
2025-08-15T00:24:11.904Z,3,GR86-015-31,-2.2,0.311,-0.091,100.01,2.0,,0.0,0.0,
2025-08-15T00:24:11.946Z,3,GR86-015-31,-2.3000000000000003,0.314,-0.066,100.01,2.0,,0.0,0.0,
2025-08-15T00:24:11.989Z,3,GR86-015-31,-2.3000000000000003,0.321,-0.071,100.01,2.0,,0.0,0.0,
2025-08-15T00:24:12.032Z,3,GR86-015-31,-2.3000000000000003,0.31,-0.078,99.99,2.0,6676.0,0.0,0.0,
2025-08-15T00:24:12.075Z,3,GR86-015-31,-2.4000000000000004,0.3,-0.098,100.02,2.0,,0.0,0.0,115.28
2025-08-15T00:24:12.118Z,3,GR86-015-31,-2.5,0.297,-0.078,100.02,2.0,,0.0,0.0,
2025-08-15T00:24:12.161Z,3,GR86-015-31,-2.7,0.31,-0.09,100.02,2.0,,0.0,0.0,
2025-08-15T00:24:12.205Z,3,GR86-015-31,-2.8000000000000003,0.303,-0.094,100.0,2.0,,0.0,0.0,
2025-08-15T00:24:12.247Z,3,GR86-015-31,-2.8000000000000003,0.308,-0.089,99.99,2.0,6781.0,0.0,0.0,
2025-08-15T00:24:12.290Z,3,GR86-015-31,-2.9000000000000004,0.324,-0.1,99.99,2.0,,0.0,0.0,116.85
2025-08-15T00:24:12.334Z,3,GR86-015-31,-2.9000000000000004,0.308,-0.109,99.99,2.0,,0.0,0.0,
2025-08-15T00:24:12.376Z,3,GR86-015-31,-2.9000000000000004,0.294,-0.118,100.0,2.0,,0.0,0.0,
2025-08-15T00:24:12.419Z,3,GR86-015-31,-2.9000000000000004,0.299,-0.098,99.99,2.0,,0.0,0.0,
2025-08-15T00:24:12.462Z,3,GR86-015-31,-2.9000000000000004,0.305,-0.12,99.99,2.0,6852.0,0.0,0.0,
2025-08-15T00:24:12.505Z,3,GR86-015-31,-3.0,0.305,-0.116,99.99,2.0,,0.0,0.0,118.41
2025-08-15T00:24:12.548Z,3,GR86-015-31,-2.9000000000000004,0.296,-0.087,100.01,2.0,,0.0,0.0,
2025-08-15T00:24:12.591Z,3,GR86-015-31,-2.9000000000000004,0.305,-0.113,100.0,2.0,,0.0,0.0,
2025-08-15T00:24:12.635Z,3,GR86-015-31,-2.9000000000000004,0.305,-0.105,100.0,2.0,,0.0,0.0,
2025-08-15T00:24:12.721Z,3,GR86-015-31,-2.9000000000000004,0.291,-0.092,99.99,2.0,6944.0,0.0,0.0,119.94
2025-08-15T00:24:12.765Z,3,GR86-015-31,-2.9000000000000004,0.303,-0.077,100.0,2.0,,0.0,0.0,
2025-08-15T00:24:12.807Z,3,GR86-015-31,-2.9000000000000004,0.299,-0.092,100.0,2.0,,0.0,0.0,
2025-08-15T00:24:12.895Z,3,GR86-015-31,-2.8000000000000003,0.297,-0.077,99.99,2.0,7015.0,0.0,0.0,
2025-08-15T00:24:12.938Z,3,GR86-015-31,-1.2000000000000002,0.295,-0.049,100.0,2.0,,0.0,0.0,121.43
2025-08-15T00:24:12.981Z,3,GR86-015-31,-0.5,0.295,-0.017,100.0,2.0,,0.0,0.0,
2025-08-15T00:24:13.025Z,3,GR86-015-31,0.0,0.297,0.028,99.99,2.0,,0.0,0.0,
2025-08-15T00:24:13.068Z,3,GR86-015-31,0.0,0.294,0.022,100.0,2.0,,0.0,0.0,
2025-08-15T00:24:13.110Z,3,GR86-015-31,0.1,0.296,0.049,100.01,2.0,7078.0,0.0,0.0,
2025-08-15T00:24:13.155Z,3,GR86-015-31,0.1,0.296,0.07,99.99,2.0,,0.0,0.0,122.78
2025-08-15T00:24:13.198Z,3,GR86-015-31,0.1,0.29,0.08,100.0,2.0,,0.0,0.0,
2025-08-15T00:24:13.241Z,3,GR86-015-31,0.1,0.284,0.061,100.01,2.0,,0.0,0.0,
2025-08-15T00:24:13.285Z,3,GR86-015-31,0.1,0.285,0.047,100.0,2.0,,0.0,0.0,
2025-08-15T00:24:13.328Z,3,GR86-015-31,0.1,0.281,0.065,100.01,2.0,7154.0,0.0,0.0,
2025-08-15T00:24:13.371Z,3,GR86-015-31,0.1,0.301,0.062,99.99,2.0,,0.0,0.0,124.01
2025-08-15T00:24:13.415Z,3,GR86-015-31,0.1,0.298,0.037,99.99,2.0,,0.0,0.0,
2025-08-15T00:24:13.457Z,3,GR86-015-31,0.1,0.291,0.016,99.98,2.0,,0.0,0.0,
2025-08-15T00:24:13.500Z,3,GR86-015-31,0.1,0.279,0.029,99.99,2.0,,0.0,0.0,
2025-08-15T00:24:13.545Z,3,GR86-015-31,0.2,0.191,0.03,99.99,3.0,7226.0,0.0,0.0,
2025-08-15T00:24:13.588Z,3,GR86-015-31,0.2,-0.09,0.062,99.99,3.0,,0.0,0.0,125.15
2025-08-15T00:24:13.630Z,3,GR86-015-31,0.5,0.646,0.023,100.0,3.0,,0.0,0.0,
2025-08-15T00:24:13.674Z,3,GR86-015-31,1.0,0.51,0.013,99.97,3.0,,0.0,0.0,
2025-08-15T00:24:13.717Z,3,GR86-015-31,1.0,0.344,0.125,99.96,3.0,,0.0,0.0,
2025-08-15T00:24:13.760Z,3,GR86-015-31,1.0,0.194,0.005,99.97,3.0,6836.0,0.0,0.0,
2025-08-15T00:24:13.804Z,3,GR86-015-31,1.0,0.156,0.056,99.97,3.0,,0.0,0.0,127.23
2025-08-15T00:24:13.846Z,3,GR86-015-31,0.9,0.199,0.089,99.97,3.0,,0.0,0.0,
2025-08-15T00:24:13.889Z,3,GR86-015-31,0.8,0.318,-0.001,99.97,3.0,,0.0,0.0,
2025-08-15T00:24:13.932Z,3,GR86-015-31,0.7000000000000001,0.294,0.052,99.97,3.0,,0.0,0.0,
2025-08-15T00:24:13.975Z,3,GR86-015-31,-0.4,0.203,-0.012,99.99,3.0,5871.0,0.0,0.0,
2025-08-15T00:24:14.018Z,3,GR86-015-31,-1.0,0.217,-0.011,99.99,3.0,,0.0,0.0,128.39
2025-08-15T00:24:14.061Z,3,GR86-015-31,-1.0,0.259,-0.022,99.99,3.0,,0.0,0.0,
2025-08-15T00:24:14.105Z,3,GR86-015-31,-0.9,0.275,-0.036,99.99,3.0,,0.0,0.0,
2025-08-15T00:24:14.147Z,3,GR86-015-31,-0.8,0.242,-0.042,99.99,3.0,,0.0,0.0,
2025-08-15T00:24:14.190Z,3,GR86-015-31,-0.8,0.234,-0.028,99.99,3.0,5971.0,0.0,0.0,
2025-08-15T00:24:14.234Z,3,GR86-015-31,-0.8,0.245,-0.03,100.0,3.0,,0.0,0.0,129.21
2025-08-15T00:24:14.276Z,3,GR86-015-31,-0.8,0.264,-0.003,100.01,3.0,,0.0,0.0,
2025-08-15T00:24:14.319Z,3,GR86-015-31,-0.8,0.243,-0.016,100.0,3.0,,0.0,0.0,
2025-08-15T00:24:14.362Z,3,GR86-015-31,-0.7000000000000001,0.235,-0.03,100.01,3.0,,0.0,0.0,
2025-08-15T00:24:14.406Z,3,GR86-015-31,-0.7000000000000001,0.242,0.0,99.99,3.0,6087.0,0.0,0.0,
2025-08-15T00:24:14.448Z,3,GR86-015-31,-0.7000000000000001,0.25,0.001,100.0,3.0,,0.0,0.0,130.06
2025-08-15T00:24:14.492Z,3,GR86-015-31,-0.6000000000000001,0.243,-0.008,100.02,3.0,,0.0,0.0,
2025-08-15T00:24:14.535Z,3,GR86-015-31,-0.7000000000000001,0.251,-0.014,100.01,3.0,,0.0,0.0,
2025-08-15T00:24:14.578Z,3,GR86-015-31,-0.6000000000000001,0.245,-0.014,100.0,3.0,,0.0,0.0,
2025-08-15T00:24:14.621Z,3,GR86-015-31,-0.6000000000000001,0.257,-0.002,99.99,3.0,6127.0,0.0,0.0,
2025-08-15T00:24:14.665Z,3,GR86-015-31,-0.6000000000000001,0.246,-0.003,99.99,3.0,,0.0,0.0,130.85
2025-08-15T00:24:14.707Z,3,GR86-015-31,-0.6000000000000001,0.24,-0.004,100.01,3.0,,0.0,0.0,
2025-08-15T00:24:14.750Z,3,GR86-015-31,-0.6000000000000001,0.244,0.005,100.01,3.0,,0.0,0.0,
2025-08-15T00:24:14.795Z,3,GR86-015-31,-0.6000000000000001,0.252,-0.005,100.0,3.0,,0.0,0.0,
2025-08-15T00:24:14.838Z,3,GR86-015-31,-0.6000000000000001,0.233,0.01,99.99,3.0,6179.0,0.0,0.0,
2025-08-15T00:24:14.881Z,3,GR86-015-31,-0.7000000000000001,0.236,-0.002,99.99,3.0,,0.0,0.0,131.72
2025-08-15T00:24:14.925Z,3,GR86-015-31,-0.7000000000000001,0.241,-0.014,100.02,3.0,,0.0,0.0,
2025-08-15T00:24:14.968Z,3,GR86-015-31,-0.7000000000000001,0.245,-0.003,100.01,3.0,,0.0,0.0,
2025-08-15T00:24:15.010Z,3,GR86-015-31,-0.7000000000000001,0.239,-0.003,99.99,3.0,,0.0,0.0,
2025-08-15T00:24:15.054Z,3,GR86-015-31,-0.7000000000000001,0.234,-0.003,99.99,3.0,6208.0,0.0,0.0,
2025-08-15T00:24:15.096Z,3,GR86-015-31,-0.7000000000000001,0.234,-0.015,99.99,3.0,,0.0,0.0,132.61
2025-08-15T00:24:15.139Z,3,GR86-015-31,-0.6000000000000001,0.239,-0.011,71.92,3.0,,10.44,10.955,
2025-08-15T00:24:15.182Z,3,GR86-015-31,0.0,0.171,0.01,3.27,3.0,,24.34,24.645,
2025-08-15T00:24:15.225Z,3,GR86-015-31,1.9,-0.106,0.038,2.66,3.0,,39.585,39.645,
2025-08-15T00:24:15.269Z,3,GR86-015-31,3.3000000000000003,-0.488,0.022,2.6,3.0,6262.0,55.105,54.86,
2025-08-15T00:24:15.312Z,3,GR86-015-31,3.5,-0.915,0.067,2.57,3.0,,68.9,68.565,133.47
2025-08-15T00:24:15.355Z,3,GR86-015-31,6.9,-0.792,0.067,37.29,3.0,,86.74,88.765,
2025-08-15T00:24:15.398Z,3,GR86-015-31,7.7,-0.75,0.128,85.13,3.0,,82.68,83.9,
2025-08-15T00:24:15.441Z,3,GR86-015-31,7.7,-0.741,0.203,100.24,3.0,,75.155,75.81,
2025-08-15T00:24:15.485Z,3,GR86-015-31,7.7,-0.784,0.109,100.18,3.0,5595.0,69.22,69.875,
2025-08-15T00:24:15.528Z,3,GR86-015-31,7.6,-0.94,0.097,52.74,2.0,,67.875,68.805,129.37
2025-08-15T00:24:15.570Z,3,GR86-015-31,7.5,-0.902,0.158,4.83,2.0,,61.175,62.46,
2025-08-15T00:24:15.614Z,3,GR86-015-31,7.5,-1.139,0.092,2.5,2.0,,62.72,64.03,
2025-08-15T00:24:15.656Z,3,GR86-015-31,7.5,-1.047,0.163,2.45,2.0,,69.28,70.27,
2025-08-15T00:24:15.699Z,3,GR86-015-31,8.200000000000001,-1.294,0.178,2.44,2.0,6093.0,73.815,74.21000000000001,
2025-08-15T00:24:15.742Z,3,GR86-015-31,12.7,-0.992,0.191,2.44,1.0,,78.805,80.405,124.55
2025-08-15T00:24:15.786Z,3,GR86-015-31,18.2,-1.161,0.206,2.44,1.0,,81.75,82.265,
2025-08-15T00:24:15.828Z,3,GR86-015-31,24.200000000000003,-1.049,0.255,2.46,1.0,,79.185,80.465,
2025-08-15T00:24:15.915Z,3,GR86-015-31,30.200000000000003,-0.84,0.407,2.46,1.0,6286.0,61.85,63.435,
2025-08-15T00:24:15.958Z,3,GR86-015-31,33.300000000000004,-0.738,0.5650000000000001,2.44,2.0,,33.025,34.12,117.32
2025-08-15T00:24:16.001Z,3,GR86-015-31,33.300000000000004,-0.758,0.584,2.45,2.0,,29.145,30.185,
2025-08-15T00:24:16.045Z,3,GR86-015-31,32.9,-0.685,0.623,2.45,2.0,,28.935,29.77,
2025-08-15T00:24:16.087Z,3,GR86-015-31,32.9,-0.665,0.617,2.47,2.0,,28.52,29.33,
2025-08-15T00:24:16.130Z,3,GR86-015-31,41.1,-0.588,0.6920000000000001,2.46,2.0,5829.0,23.24,23.93,
2025-08-15T00:24:16.174Z,3,GR86-015-31,63.400000000000006,-0.435,0.845,2.46,2.0,,14.36,14.88,110.16
2025-08-15T00:24:16.216Z,3,GR86-015-31,67.5,-0.355,0.938,2.46,2.0,,6.625,7.08,
2025-08-15T00:24:16.259Z,3,GR86-015-31,68.10000000000001,-0.274,1.032,2.45,2.0,,0.0,0.0,
2025-08-15T00:24:16.304Z,3,GR86-015-31,63.900000000000006,-0.216,1.035,2.5,2.0,,0.0,0.0,
2025-08-15T00:24:16.348Z,3,GR86-015-31,54.1,-0.189,1.062,2.59,2.0,5780.0,0.0,0.0,
2025-08-15T00:24:16.392Z,3,GR86-015-31,52.5,-0.167,1.04,2.65,2.0,,0.0,0.0,106.56
2025-08-15T00:24:16.435Z,3,GR86-015-31,71.2,-0.145,1.082,2.64,2.0,,0.0,0.0,
2025-08-15T00:24:16.478Z,3,GR86-015-31,79.4,-0.167,1.131,2.64,2.0,,0.0,0.0,
2025-08-15T00:24:16.521Z,3,GR86-015-31,78.10000000000001,-0.154,1.114,2.68,2.0,,0.0,0.0,
2025-08-15T00:24:16.565Z,3,GR86-015-31,61.2,-0.147,1.108,2.72,2.0,5689.0,0.0,0.0,
2025-08-15T00:24:16.607Z,3,GR86-015-31,46.400000000000006,-0.149,1.072,2.79,2.0,,0.0,0.0,102.41
2025-08-15T00:24:16.650Z,3,GR86-015-31,42.2,-0.141,1.026,2.94,2.0,,0.0,0.0,
2025-08-15T00:24:16.695Z,3,GR86-015-31,42.5,-0.153,1.142,3.18,2.0,,0.0,0.0,
2025-08-15T00:24:16.738Z,3,GR86-015-31,47.5,-0.143,1.143,3.38,2.0,,0.0,0.0,
2025-08-15T00:24:16.781Z,3,GR86-015-31,55.1,-0.13,1.171,3.49,2.0,5579.0,0.0,0.0,
2025-08-15T00:24:16.825Z,3,GR86-015-31,59.6,-0.155,1.211,3.73,2.0,,0.0,0.0,100.88
2025-08-15T00:24:16.868Z,3,GR86-015-31,66.10000000000001,-0.157,1.219,4.41,2.0,,0.0,0.0,
2025-08-15T00:24:16.910Z,3,GR86-015-31,71.2,-0.17,1.211,5.0,2.0,,0.0,0.0,
2025-08-15T00:24:16.954Z,3,GR86-015-31,74.0,-0.165,1.195,19.19,2.0,,0.0,0.0,
2025-08-15T00:24:16.997Z,3,GR86-015-31,74.60000000000001,-0.161,1.21,20.94,2.0,5384.0,0.0,0.0,
2025-08-15T00:24:17.041Z,3,GR86-015-31,75.3,-0.148,1.217,21.04,2.0,,0.0,0.0,98.98
2025-08-15T00:24:17.084Z,3,GR86-015-31,77.80000000000001,-0.108,1.237,21.48,2.0,,0.0,0.0,
2025-08-15T00:24:17.126Z,3,GR86-015-31,79.5,-0.111,1.276,23.46,2.0,,0.0,0.0,
2025-08-15T00:24:17.169Z,3,GR86-015-31,81.60000000000001,-0.09,1.212,24.49,2.0,,0.0,0.0,
2025-08-15T00:24:17.214Z,3,GR86-015-31,83.60000000000001,0.108,1.259,24.26,2.0,5665.0,0.0,0.0,
2025-08-15T00:24:17.256Z,3,GR86-015-31,84.80000000000001,0.09,1.194,23.81,2.0,,0.0,0.0,97.19
2025-08-15T00:24:17.299Z,3,GR86-015-31,86.30000000000001,0.123,1.177,23.83,2.0,,0.0,0.0,
2025-08-15T00:24:17.342Z,3,GR86-015-31,87.80000000000001,0.099,1.179,24.52,2.0,,0.0,0.0,
2025-08-15T00:24:17.385Z,3,GR86-015-31,89.2,0.098,1.167,25.16,2.0,,0.0,0.0,
2025-08-15T00:24:17.428Z,3,GR86-015-31,90.1,0.055,1.203,25.5,2.0,5566.0,0.0,0.0,
2025-08-15T00:24:17.471Z,3,GR86-015-31,91.9,0.067,1.238,25.6,2.0,,0.0,0.0,95.72
2025-08-15T00:24:17.515Z,3,GR86-015-31,95.1,0.085,1.285,26.12,2.0,,0.0,0.0,
2025-08-15T00:24:17.558Z,3,GR86-015-31,97.2,0.104,1.225,32.99,2.0,,0.0,0.0,
2025-08-15T00:24:17.601Z,3,GR86-015-31,97.8,0.1,1.246,70.58,2.0,,0.0,0.0,
2025-08-15T00:24:17.645Z,3,GR86-015-31,98.2,0.09,1.23,99.71,2.0,5578.0,0.0,0.0,
2025-08-15T00:24:17.687Z,3,GR86-015-31,98.8,0.13,1.214,100.26,2.0,,0.0,0.0,95.08
2025-08-15T00:24:17.730Z,3,GR86-015-31,99.0,0.194,1.211,100.28,2.0,,0.0,0.0,
2025-08-15T00:24:17.774Z,3,GR86-015-31,100.3,0.288,1.164,100.26,2.0,,0.0,0.0,
2025-08-15T00:24:17.816Z,3,GR86-015-31,101.8,0.284,1.108,100.25,2.0,,0.0,0.0,
2025-08-15T00:24:17.859Z,3,GR86-015-31,103.9,0.27,1.108,100.27,2.0,5685.0,0.0,0.0,
2025-08-15T00:24:17.902Z,3,GR86-015-31,105.5,0.213,1.104,100.26,2.0,,0.0,0.0,95.37
2025-08-15T00:24:17.945Z,3,GR86-015-31,106.7,0.201,1.15,99.63,2.0,,0.0,0.0,
2025-08-15T00:24:17.988Z,3,GR86-015-31,108.2,0.221,1.132,45.85,2.0,,0.0,0.0,
2025-08-15T00:24:18.032Z,3,GR86-015-31,108.6,0.205,1.104,9.05,2.0,,0.0,0.0,
2025-08-15T00:24:18.075Z,3,GR86-015-31,108.8,0.235,1.065,3.9,2.0,5693.0,0.0,0.0,
2025-08-15T00:24:18.118Z,3,GR86-015-31,108.8,0.031,1.104,5.9,2.0,,0.0,0.0,96.7
2025-08-15T00:24:18.161Z,3,GR86-015-31,108.8,-0.184,1.211,19.44,2.0,,0.0,0.0,
2025-08-15T00:24:18.205Z,3,GR86-015-31,108.8,-0.219,1.208,36.77,2.0,,0.0,0.0,
2025-08-15T00:24:18.247Z,3,GR86-015-31,108.8,-0.353,1.287,69.32000000000001,2.0,,0.0,0.0,
2025-08-15T00:24:18.334Z,3,GR86-015-31,103.3,-0.051,1.338,100.01,2.0,5257.0,0.0,0.0,98.43
2025-08-15T00:24:18.376Z,3,GR86-015-31,91.1,0.31,1.253,100.22,2.0,,0.0,0.0,
2025-08-15T00:24:18.462Z,3,GR86-015-31,56.400000000000006,0.316,1.17,100.2,2.0,,0.0,0.0,
2025-08-15T00:24:18.505Z,3,GR86-015-31,44.0,0.302,1.134,100.2,2.0,5990.0,0.0,0.0,
2025-08-15T00:24:18.548Z,3,GR86-015-31,40.0,0.236,1.132,100.21,2.0,,0.0,0.0,98.55
2025-08-15T00:24:18.591Z,3,GR86-015-31,39.2,0.26,1.187,100.19,2.0,,0.0,0.0,
2025-08-15T00:24:18.635Z,3,GR86-015-31,33.7,0.236,1.14,100.18,2.0,,0.0,0.0,
2025-08-15T00:24:18.721Z,3,GR86-015-31,32.2,0.261,1.118,100.18,2.0,5892.0,0.0,0.0,
2025-08-15T00:24:18.765Z,3,GR86-015-31,24.3,0.264,1.131,100.15,2.0,,0.0,0.0,99.04
2025-08-15T00:24:18.807Z,3,GR86-015-31,7.9,0.303,1.153,100.11,2.0,,0.0,0.0,
2025-08-15T00:24:18.850Z,3,GR86-015-31,-9.1,0.293,1.137,100.09,2.0,,0.0,0.0,
2025-08-15T00:24:18.895Z,3,GR86-015-31,-8.700000000000001,0.337,1.045,100.08,2.0,,0.0,0.0,
2025-08-15T00:24:18.938Z,3,GR86-015-31,2.1,0.342,1.109,100.04,2.0,6122.0,0.0,0.0,
2025-08-15T00:24:18.981Z,3,GR86-015-31,12.8,0.334,1.195,99.97,2.0,,0.0,0.0,100.22
2025-08-15T00:24:19.025Z,3,GR86-015-31,7.1000000000000005,0.315,1.298,99.96,2.0,,0.0,0.0,
2025-08-15T00:24:19.068Z,3,GR86-015-31,-12.4,0.293,1.252,99.96,2.0,,0.0,0.0,
2025-08-15T00:24:19.110Z,3,GR86-015-31,-17.8,0.311,1.087,99.99,2.0,,0.0,0.0,
2025-08-15T00:24:19.155Z,3,GR86-015-31,13.0,0.293,1.002,100.02,2.0,6129.0,0.0,0.0,
2025-08-15T00:24:19.198Z,3,GR86-015-31,37.3,0.284,0.985,100.0,2.0,,0.0,0.0,103.09
2025-08-15T00:24:19.241Z,3,GR86-015-31,51.5,0.266,0.793,99.99,2.0,,0.0,0.0,
2025-08-15T00:24:19.328Z,3,GR86-015-31,50.8,0.198,0.956,99.96,2.0,,0.0,0.0,
2025-08-15T00:24:19.371Z,3,GR86-015-31,40.7,0.416,0.986,99.96,2.0,6192.0,0.0,0.0,
2025-08-15T00:24:19.415Z,3,GR86-015-31,22.6,0.317,1.206,99.98,2.0,,0.0,0.0,103.86
2025-08-15T00:24:19.457Z,3,GR86-015-31,16.0,0.298,0.974,99.99,2.0,,0.0,0.0,
2025-08-15T00:24:19.500Z,3,GR86-015-31,15.0,0.288,0.894,100.0,2.0,,0.0,0.0,
2025-08-15T00:24:19.545Z,3,GR86-015-31,18.9,0.349,0.943,100.01,2.0,,0.0,0.0,
2025-08-15T00:24:19.588Z,3,GR86-015-31,27.8,0.427,0.921,100.01,2.0,6211.0,0.0,0.0,
2025-08-15T00:24:19.630Z,3,GR86-015-31,35.2,0.463,0.906,100.0,2.0,,0.0,0.0,105.51
2025-08-15T00:24:19.674Z,3,GR86-015-31,40.900000000000006,0.397,0.791,100.01,2.0,,0.0,0.0,
2025-08-15T00:24:19.717Z,3,GR86-015-31,41.6,0.227,0.7020000000000001,99.99,2.0,,0.0,0.0,
2025-08-15T00:24:19.760Z,3,GR86-015-31,41.1,0.459,0.84,100.0,2.0,,0.0,0.0,
2025-08-15T00:24:19.804Z,3,GR86-015-31,39.2,0.455,0.715,99.98,2.0,6295.0,0.0,0.0,
2025-08-15T00:24:19.846Z,3,GR86-015-31,34.300000000000004,0.331,0.635,100.0,2.0,,0.0,0.0,107.31
2025-08-15T00:24:19.889Z,3,GR86-015-31,29.5,0.174,0.634,100.01,2.0,,0.0,0.0,
2025-08-15T00:24:19.932Z,3,GR86-015-31,25.8,0.01,0.5760000000000001,100.01,2.0,,0.0,0.0,
2025-08-15T00:24:19.975Z,3,GR86-015-31,20.3,0.353,0.6,100.02,2.0,,0.0,0.0,
2025-08-15T00:24:20.061Z,3,GR86-015-31,18.5,0.427,0.731,99.99,2.0,6526.0,0.0,0.0,108.64
2025-08-15T00:24:20.105Z,3,GR86-015-31,19.5,0.437,0.741,100.01,2.0,,0.0,0.0,
2025-08-15T00:24:20.147Z,3,GR86-015-31,23.5,0.468,0.67,100.01,2.0,,0.0,0.0,
2025-08-15T00:24:20.190Z,3,GR86-015-31,26.200000000000003,0.367,0.788,99.99,2.0,,0.0,0.0,
2025-08-15T00:24:20.234Z,3,GR86-015-31,28.200000000000003,0.354,0.643,99.98,2.0,6525.0,0.0,0.0,
2025-08-15T00:24:20.276Z,3,GR86-015-31,28.1,0.306,0.661,99.99,2.0,,0.0,0.0,110.77
2025-08-15T00:24:20.319Z,3,GR86-015-31,25.8,0.316,0.6880000000000001,100.01,2.0,,0.0,0.0,
2025-08-15T00:24:20.362Z,3,GR86-015-31,21.3,0.387,0.66,99.99,2.0,,0.0,0.0,
2025-08-15T00:24:20.406Z,3,GR86-015-31,18.0,0.378,0.594,100.0,2.0,,0.0,0.0,
2025-08-15T00:24:20.448Z,3,GR86-015-31,16.6,0.272,0.546,99.99,2.0,6605.0,0.0,0.0,
2025-08-15T00:24:20.492Z,3,GR86-015-31,16.3,0.317,0.497,99.99,2.0,,0.0,0.0,112.89
2025-08-15T00:24:20.535Z,3,GR86-015-31,15.5,0.202,0.479,100.0,2.0,,0.0,0.0,
2025-08-15T00:24:20.578Z,3,GR86-015-31,14.8,0.344,0.434,100.01,2.0,,0.0,0.0,
2025-08-15T00:24:20.621Z,3,GR86-015-31,14.4,0.256,0.374,100.01,2.0,,0.0,0.0,
2025-08-15T00:24:20.665Z,3,GR86-015-31,14.4,0.289,0.405,100.0,2.0,6741.0,0.0,0.0,
2025-08-15T00:24:20.707Z,3,GR86-015-31,14.2,0.192,0.34,100.0,2.0,,0.0,0.0,114.76
2025-08-15T00:24:20.750Z,3,GR86-015-31,13.1,0.356,0.239,100.0,2.0,,0.0,0.0,
2025-08-15T00:24:20.796Z,3,GR86-015-31,10.1,0.254,0.2,99.99,2.0,,0.0,0.0,
2025-08-15T00:24:20.838Z,3,GR86-015-31,8.700000000000001,0.297,0.134,100.0,2.0,,0.0,0.0,
2025-08-15T00:24:20.881Z,3,GR86-015-31,8.4,0.3,0.227,100.0,2.0,6805.0,0.0,0.0,
2025-08-15T00:24:20.925Z,3,GR86-015-31,8.4,0.335,0.225,100.0,2.0,,0.0,0.0,116.74
2025-08-15T00:24:20.968Z,3,GR86-015-31,8.200000000000001,0.294,0.24,100.01,2.0,,0.0,0.0,
2025-08-15T00:24:21.010Z,3,GR86-015-31,7.800000000000001,0.312,0.197,100.01,2.0,,0.0,0.0,
2025-08-15T00:24:21.054Z,3,GR86-015-31,7.0,0.288,0.087,99.99,2.0,,0.0,0.0,
2025-08-15T00:24:21.096Z,3,GR86-015-31,6.300000000000001,0.263,0.083,100.01,2.0,6872.0,0.0,0.0,
2025-08-15T00:24:21.139Z,3,GR86-015-31,5.300000000000001,0.27,0.074,100.02,2.0,,0.0,0.0,118.65
2025-08-15T00:24:21.182Z,3,GR86-015-31,4.5,0.306,0.061,99.99,2.0,,0.0,0.0,
2025-08-15T00:24:21.225Z,3,GR86-015-31,4.0,0.298,0.065,99.99,2.0,,0.0,0.0,
2025-08-15T00:24:21.269Z,3,GR86-015-31,3.7,0.273,0.088,100.02,2.0,,0.0,0.0,
2025-08-15T00:24:21.312Z,3,GR86-015-31,3.0,0.298,0.078,99.99,2.0,6995.0,0.0,0.0,
2025-08-15T00:24:21.398Z,3,GR86-015-31,1.7000000000000002,0.291,0.055,100.01,2.0,,0.0,0.0,120.35
2025-08-15T00:24:21.441Z,3,GR86-015-31,0.1,0.259,0.034,100.01,2.0,,0.0,0.0,
2025-08-15T00:24:21.485Z,3,GR86-015-31,-0.4,0.271,-0.009,99.99,2.0,,0.0,0.0,
2025-08-15T00:24:21.528Z,3,GR86-015-31,-0.9,0.287,-0.03,100.01,2.0,7100.0,0.0,0.0,
2025-08-15T00:24:21.570Z,3,GR86-015-31,-1.2000000000000002,0.259,-0.038,99.98,2.0,,0.0,0.0,122.3
2025-08-15T00:24:21.614Z,3,GR86-015-31,-1.8,0.256,-0.054,100.0,2.0,,0.0,0.0,
2025-08-15T00:24:21.656Z,3,GR86-015-31,-3.1,0.27,-0.064,99.99,2.0,,0.0,0.0,
2025-08-15T00:24:21.699Z,3,GR86-015-31,-4.9,0.267,-0.114,99.98,2.0,,0.0,0.0,
2025-08-15T00:24:21.742Z,3,GR86-015-31,-7.5,-0.014,-0.13,100.0,3.0,7195.0,0.0,0.0,
2025-08-15T00:24:21.786Z,3,GR86-015-31,-9.9,-0.062,-0.096,99.99,3.0,,0.0,0.0,124.12
2025-08-15T00:24:21.828Z,3,GR86-015-31,-10.8,0.624,-0.259,99.98,3.0,,0.0,0.0,
2025-08-15T00:24:21.871Z,3,GR86-015-31,-11.5,0.426,-0.301,99.98,3.0,,0.0,0.0,
2025-08-15T00:24:21.915Z,3,GR86-015-31,-13.8,0.349,-0.249,99.98,3.0,,0.0,0.0,
2025-08-15T00:24:21.957Z,3,GR86-015-31,-15.0,0.145,-0.446,99.99,3.0,6801.0,0.0,0.0,
2025-08-15T00:24:22.001Z,3,GR86-015-31,-15.3,0.144,-0.411,99.98,3.0,,0.0,0.0,127.53
2025-08-15T00:24:22.045Z,3,GR86-015-31,-15.0,0.24,-0.437,99.99,3.0,,0.0,0.0,
2025-08-15T00:24:22.087Z,3,GR86-015-31,-14.8,0.285,-0.541,99.98,3.0,,0.0,0.0,
2025-08-15T00:24:22.130Z,3,GR86-015-31,-14.7,0.258,-0.434,100.0,3.0,,0.0,0.0,
2025-08-15T00:24:22.174Z,3,GR86-015-31,-14.4,0.188,-0.518,99.99,3.0,5915.0,0.0,0.0,
2025-08-15T00:24:22.217Z,3,GR86-015-31,-14.2,0.218,-0.462,99.99,3.0,,0.0,0.0,129.39
2025-08-15T00:24:22.260Z,3,GR86-015-31,-14.2,0.252,-0.469,100.01,3.0,,0.0,0.0,
2025-08-15T00:24:22.304Z,3,GR86-015-31,-14.2,0.242,-0.47,100.02,3.0,,0.0,0.0,
2025-08-15T00:24:22.348Z,3,GR86-015-31,-14.2,0.242,-0.456,100.0,3.0,,0.0,0.0,
2025-08-15T00:24:22.392Z,3,GR86-015-31,-14.2,0.225,-0.428,99.99,3.0,6062.0,0.0,0.0,
2025-08-15T00:24:22.435Z,3,GR86-015-31,-14.1,0.237,-0.421,100.01,3.0,,0.0,0.0,130.99
2025-08-15T00:24:22.478Z,3,GR86-015-31,-14.1,0.229,-0.445,99.98,3.0,,0.0,0.0,
2025-08-15T00:24:22.521Z,3,GR86-015-31,-14.1,0.231,-0.438,99.99,3.0,,0.0,0.0,
2025-08-15T00:24:22.565Z,3,GR86-015-31,-14.2,0.235,-0.457,100.01,3.0,,0.0,0.0,
2025-08-15T00:24:22.607Z,3,GR86-015-31,-14.9,0.241,-0.451,99.99,3.0,6235.0,0.0,0.0,
2025-08-15T00:24:22.651Z,3,GR86-015-31,-16.2,0.223,-0.478,100.0,3.0,,0.0,0.0,132.58
2025-08-15T00:24:22.695Z,3,GR86-015-31,-17.0,0.231,-0.491,100.0,3.0,,0.0,0.0,
2025-08-15T00:24:22.738Z,3,GR86-015-31,-17.0,0.216,-0.48,100.02,3.0,,0.0,0.0,
2025-08-15T00:24:22.781Z,3,GR86-015-31,-17.5,0.231,-0.463,100.02,3.0,,0.0,0.0,
2025-08-15T00:24:22.825Z,3,GR86-015-31,-18.7,0.228,-0.489,99.98,3.0,6304.0,0.0,0.0,
2025-08-15T00:24:22.868Z,3,GR86-015-31,-19.700000000000003,0.216,-0.503,99.99,3.0,,0.0,0.0,134.29
2025-08-15T00:24:22.911Z,3,GR86-015-31,-19.8,0.213,-0.533,99.99,3.0,,0.0,0.0,
2025-08-15T00:24:22.954Z,3,GR86-015-31,-20.4,0.211,-0.547,99.99,3.0,,0.0,0.0,
2025-08-15T00:24:22.997Z,3,GR86-015-31,-23.700000000000003,0.222,-0.593,100.01,3.0,,0.0,0.0,
2025-08-15T00:24:23.040Z,3,GR86-015-31,-29.0,0.229,-0.614,100.0,3.0,6387.0,0.0,0.0,
2025-08-15T00:24:23.084Z,3,GR86-015-31,-34.6,0.227,-0.643,100.02,3.0,,0.0,0.0,135.77
2025-08-15T00:24:23.126Z,3,GR86-015-31,-37.4,0.205,-0.71,99.99,3.0,,0.0,0.0,
2025-08-15T00:24:23.214Z,3,GR86-015-31,-37.7,0.198,-0.76,99.99,3.0,,0.0,0.0,
2025-08-15T00:24:23.256Z,3,GR86-015-31,-49.2,0.206,-0.844,100.02,3.0,6468.0,0.0,0.0,
2025-08-15T00:24:23.299Z,3,GR86-015-31,-55.6,0.192,-0.894,100.0,3.0,,0.0,0.0,137.35
2025-08-15T00:24:23.342Z,3,GR86-015-31,-56.7,0.172,-0.949,99.98,3.0,,0.0,0.0,
2025-08-15T00:24:23.385Z,3,GR86-015-31,-53.7,0.166,-1.027,99.98,3.0,,0.0,0.0,
2025-08-15T00:24:23.428Z,3,GR86-015-31,-46.3,0.19,-1.043,100.0,3.0,,0.0,0.0,
2025-08-15T00:24:23.471Z,3,GR86-015-31,-39.1,0.214,-1.141,100.01,3.0,6570.0,0.0,0.0,
2025-08-15T00:24:23.515Z,3,GR86-015-31,-34.0,0.211,-1.11,100.0,3.0,,0.0,0.0,138.43
2025-08-15T00:24:23.558Z,3,GR86-015-31,-33.800000000000004,0.224,-1.135,99.99,3.0,,0.0,0.0,
2025-08-15T00:24:23.601Z,3,GR86-015-31,-33.800000000000004,0.208,-1.084,100.01,3.0,,0.0,0.0,
2025-08-15T00:24:23.645Z,3,GR86-015-31,-33.1,0.19,-1.08,100.01,3.0,,0.0,0.0,
2025-08-15T00:24:23.687Z,3,GR86-015-31,-32.5,0.202,-1.062,100.02,3.0,6639.0,0.0,0.0,
2025-08-15T00:24:23.730Z,3,GR86-015-31,-33.300000000000004,0.217,-1.099,99.99,3.0,,0.0,0.0,140.76
2025-08-15T00:24:23.774Z,3,GR86-015-31,-43.5,0.221,-1.06,100.02,3.0,,0.0,0.0,
2025-08-15T00:24:23.816Z,3,GR86-015-31,-49.8,0.225,-1.043,100.02,3.0,,0.0,0.0,
2025-08-15T00:24:23.859Z,3,GR86-015-31,-50.5,0.19,-1.037,100.0,3.0,,0.0,0.0,
2025-08-15T00:24:23.902Z,3,GR86-015-31,-48.1,0.162,-1.077,99.99,3.0,6697.0,0.0,0.0,
2025-08-15T00:24:23.945Z,3,GR86-015-31,-46.900000000000006,0.189,-1.126,100.0,3.0,,0.0,0.0,140.8
2025-08-15T00:24:23.989Z,3,GR86-015-31,-49.5,0.219,-1.129,100.02,3.0,,0.0,0.0,
2025-08-15T00:24:24.031Z,3,GR86-015-31,-55.8,0.2,-1.103,100.01,3.0,,0.0,0.0,
2025-08-15T00:24:24.075Z,3,GR86-015-31,-61.5,0.179,-1.136,99.99,3.0,,0.0,0.0,
2025-08-15T00:24:24.118Z,3,GR86-015-31,-61.7,0.168,-1.135,99.99,3.0,6734.0,0.0,0.0,
2025-08-15T00:24:24.161Z,3,GR86-015-31,-61.7,0.159,-1.195,100.0,3.0,,0.0,0.0,141.42000000000002
2025-08-15T00:24:24.205Z,3,GR86-015-31,-61.3,0.163,-1.144,99.98,3.0,,0.0,0.0,
2025-08-15T00:24:24.247Z,3,GR86-015-31,-59.900000000000006,0.171,-1.151,100.02,3.0,,0.0,0.0,
2025-08-15T00:24:24.290Z,3,GR86-015-31,-57.6,0.186,-1.142,100.0,3.0,,0.0,0.0,
2025-08-15T00:24:24.334Z,3,GR86-015-31,-52.5,0.168,-1.189,99.99,3.0,6797.0,0.0,0.0,
2025-08-15T00:24:24.376Z,3,GR86-015-31,-49.3,0.181,-1.129,100.01,3.0,,0.0,0.0,142.49
2025-08-15T00:24:24.419Z,3,GR86-015-31,-46.3,0.177,-1.232,100.01,3.0,,0.0,0.0,
2025-08-15T00:24:24.462Z,3,GR86-015-31,-44.6,0.185,-1.21,100.02,3.0,,0.0,0.0,
2025-08-15T00:24:24.505Z,3,GR86-015-31,-44.400000000000006,0.186,-1.296,99.99,3.0,,0.0,0.0,
2025-08-15T00:24:24.548Z,3,GR86-015-31,-43.7,0.199,-1.355,100.02,3.0,6867.0,0.0,0.0,
2025-08-15T00:24:24.591Z,3,GR86-015-31,-41.0,0.18,-1.351,100.0,3.0,,0.0,0.0,144.56
2025-08-15T00:24:24.635Z,3,GR86-015-31,-36.1,0.187,-1.269,100.0,3.0,,0.0,0.0,
2025-08-15T00:24:24.678Z,3,GR86-015-31,-32.6,0.176,-1.442,100.02,3.0,,0.0,0.0,
2025-08-15T00:24:24.721Z,3,GR86-015-31,-28.6,0.184,-1.105,100.0,3.0,,0.0,0.0,
2025-08-15T00:24:24.765Z,3,GR86-015-31,-25.6,0.191,-1.202,100.01,3.0,6919.0,0.0,0.0,
2025-08-15T00:24:24.807Z,3,GR86-015-31,-24.0,0.2,-1.101,100.01,3.0,,0.0,0.0,146.64
2025-08-15T00:24:24.850Z,3,GR86-015-31,-23.9,0.193,-1.005,100.0,3.0,,0.0,0.0,
2025-08-15T00:24:24.895Z,3,GR86-015-31,-25.6,0.253,-1.23,100.02,3.0,,0.0,0.0,
2025-08-15T00:24:24.938Z,3,GR86-015-31,-28.700000000000003,0.323,-1.07,100.01,3.0,,0.0,0.0,
2025-08-15T00:24:24.981Z,3,GR86-015-31,-33.5,0.255,-1.044,99.99,3.0,7011.0,0.0,0.0,
2025-08-15T00:24:25.025Z,3,GR86-015-31,-40.400000000000006,0.224,-1.115,100.0,3.0,,0.0,0.0,147.24
2025-08-15T00:24:25.068Z,3,GR86-015-31,-46.5,0.113,-1.229,100.0,3.0,,0.0,0.0,
2025-08-15T00:24:25.110Z,3,GR86-015-31,-48.2,0.198,-1.443,100.0,3.0,,0.0,0.0,
2025-08-15T00:24:25.155Z,3,GR86-015-31,-39.900000000000006,0.204,-1.409,99.99,3.0,,0.0,0.0,
2025-08-15T00:24:25.198Z,3,GR86-015-31,-26.700000000000003,0.135,-1.312,99.98,3.0,7009.0,0.0,0.0,
2025-08-15T00:24:25.241Z,3,GR86-015-31,-20.700000000000003,0.151,-1.234,99.98,3.0,,0.0,0.0,148.0
2025-08-15T00:24:25.285Z,3,GR86-015-31,-21.1,0.222,-1.298,100.02,3.0,,0.0,0.0,
2025-08-15T00:24:25.328Z,3,GR86-015-31,-26.5,0.263,-1.207,99.99,3.0,,0.0,0.0,
2025-08-15T00:24:25.371Z,3,GR86-015-31,-28.200000000000003,0.207,-1.186,99.99,3.0,,0.0,0.0,
2025-08-15T00:24:25.415Z,3,GR86-015-31,-21.0,0.204,-1.165,99.97,3.0,7042.0,0.0,0.0,
2025-08-15T00:24:25.458Z,3,GR86-015-31,-19.8,0.226,-1.193,99.98,3.0,,0.0,0.0,148.45000000000002
2025-08-15T00:24:25.501Z,3,GR86-015-31,-28.6,0.238,-1.139,100.03,3.0,,0.0,0.0,
2025-08-15T00:24:25.588Z,3,GR86-015-31,-50.400000000000006,0.173,-1.199,100.0,3.0,,0.0,0.0,
2025-08-15T00:24:25.630Z,3,GR86-015-31,-51.1,0.19,-1.165,100.02,3.0,7052.0,0.0,0.0,
2025-08-15T00:24:25.674Z,3,GR86-015-31,-49.6,0.174,-1.149,99.99,3.0,,0.0,0.0,148.91
2025-08-15T00:24:25.718Z,3,GR86-015-31,-49.6,0.18,-0.985,100.0,3.0,,0.0,0.0,
2025-08-15T00:24:25.761Z,3,GR86-015-31,-48.3,0.187,-1.062,99.99,3.0,,0.0,0.0,
2025-08-15T00:24:25.804Z,3,GR86-015-31,-44.900000000000006,0.198,-1.055,100.0,3.0,,0.0,0.0,
2025-08-15T00:24:25.889Z,3,GR86-015-31,-39.900000000000006,0.185,-1.117,99.99,3.0,7109.0,0.0,0.0,149.96
2025-08-15T00:24:25.932Z,3,GR86-015-31,-32.5,0.168,-1.095,99.99,3.0,,0.0,0.0,
2025-08-15T00:24:25.975Z,3,GR86-015-31,-32.300000000000004,0.175,-1.086,100.0,3.0,,0.0,0.0,
2025-08-15T00:24:26.018Z,3,GR86-015-31,-32.6,0.168,-1.111,100.01,3.0,,0.0,0.0,
2025-08-15T00:24:26.061Z,3,GR86-015-31,-32.7,0.186,-1.119,99.98,3.0,7175.0,0.0,0.0,
2025-08-15T00:24:26.105Z,3,GR86-015-31,-32.7,0.204,-1.136,99.98,3.0,,0.0,0.0,151.04
2025-08-15T00:24:26.147Z,3,GR86-015-31,-32.800000000000004,0.198,-1.143,100.01,3.0,,0.0,0.0,
2025-08-15T00:24:26.190Z,3,GR86-015-31,-32.800000000000004,0.209,-1.144,100.02,3.0,,0.0,0.0,
2025-08-15T00:24:26.234Z,3,GR86-015-31,-32.800000000000004,0.2,-1.049,99.99,3.0,,0.0,0.0,
2025-08-15T00:24:26.276Z,3,GR86-015-31,-32.7,0.091,-0.873,100.0,3.0,7219.0,0.0,0.0,
2025-08-15T00:24:26.319Z,3,GR86-015-31,-32.4,-0.134,-0.76,100.0,4.0,,0.0,0.0,152.24
2025-08-15T00:24:26.362Z,3,GR86-015-31,-32.4,0.414,-0.684,99.99,4.0,,0.0,0.0,
2025-08-15T00:24:26.406Z,3,GR86-015-31,-32.0,0.33,-0.884,99.98,4.0,,0.0,0.0,
2025-08-15T00:24:26.448Z,3,GR86-015-31,-30.200000000000003,0.224,-0.473,100.0,4.0,,0.0,0.0,
2025-08-15T00:24:26.491Z,3,GR86-015-31,-27.4,0.091,-0.767,99.99,4.0,6541.0,0.0,0.0,
