timestamp,lap,vehicle_id,steering_angle,accx_can,accy_can,ath,gear,nmot,pbrake_f,pbrake_r,speed
2025-08-15T00:59:29.511Z,3,GR86-049-88,4.9,0.104,-0.055,100.0,4.0,,0.0,0.0,
2025-08-15T00:59:29.554Z,3,GR86-049-88,4.800000000000001,0.09,-0.073,99.99,4.0,,0.0,0.0,
2025-08-15T00:59:29.597Z,3,GR86-049-88,4.5,0.119,-0.078,99.99,4.0,,0.0,0.0,
2025-08-15T00:59:29.640Z,3,GR86-049-88,4.5,-0.14,-0.06,99.99,5.0,7231.0,0.0,0.0,
2025-08-15T00:59:29.683Z,3,GR86-049-88,4.5,0.395,-0.075,100.0,5.0,,0.0,0.0,184.12
2025-08-15T00:59:29.726Z,3,GR86-049-88,4.9,0.216,-0.174,99.99,5.0,,0.0,0.0,
2025-08-15T00:59:29.769Z,3,GR86-049-88,4.9,0.055,-0.012,99.98,5.0,,0.0,0.0,
2025-08-15T00:59:29.812Z,3,GR86-049-88,4.9,0.022,-0.018,99.99,5.0,,0.0,0.0,
2025-08-15T00:59:29.855Z,3,GR86-049-88,5.1000000000000005,0.131,-0.104,99.99,5.0,7267.0,0.0,0.0,
2025-08-15T00:59:29.941Z,3,GR86-049-88,5.5,0.07,-0.051,99.99,5.0,,0.0,0.0,185.03
2025-08-15T00:59:29.984Z,3,GR86-049-88,5.5,0.09,0.02,99.99,5.0,,0.0,0.0,
2025-08-15T00:59:30.027Z,3,GR86-049-88,5.5,0.13,0.056,99.99,5.0,,0.0,0.0,
2025-08-15T00:59:30.070Z,3,GR86-049-88,5.6000000000000005,0.111,0.037,100.0,5.0,6421.0,0.0,0.0,
2025-08-15T00:59:30.113Z,3,GR86-049-88,5.7,0.105,0.062,99.99,5.0,,0.0,0.0,185.69
2025-08-15T00:59:30.156Z,3,GR86-049-88,5.800000000000001,0.117,0.057,100.0,5.0,,0.0,0.0,
2025-08-15T00:59:30.200Z,3,GR86-049-88,5.800000000000001,0.09,0.054,99.99,5.0,,0.0,0.0,
2025-08-15T00:59:30.243Z,3,GR86-049-88,5.800000000000001,0.095,0.072,100.01,5.0,,0.0,0.0,
2025-08-15T00:59:30.286Z,3,GR86-049-88,5.7,0.077,0.044,100.01,5.0,6316.0,0.0,0.0,
2025-08-15T00:59:30.329Z,3,GR86-049-88,5.7,0.112,0.01,100.0,5.0,,0.0,0.0,187.15
2025-08-15T00:59:30.372Z,3,GR86-049-88,5.7,0.076,0.027,100.0,5.0,,0.0,0.0,
2025-08-15T00:59:30.415Z,3,GR86-049-88,5.7,0.098,-0.023,100.0,5.0,,0.0,0.0,
2025-08-15T00:59:30.459Z,3,GR86-049-88,5.7,0.132,-0.003,100.02,5.0,,0.0,0.0,
2025-08-15T00:59:30.501Z,3,GR86-049-88,5.7,0.113,-0.011,100.02,5.0,6363.0,0.0,0.0,
2025-08-15T00:59:30.544Z,3,GR86-049-88,5.7,0.12,-0.007,100.0,5.0,,0.0,0.0,187.86
2025-08-15T00:59:30.587Z,3,GR86-049-88,5.7,0.108,0.016,100.01,5.0,,0.0,0.0,
2025-08-15T00:59:30.673Z,3,GR86-049-88,5.7,0.092,0.008,100.01,5.0,,0.0,0.0,
2025-08-15T00:59:30.716Z,3,GR86-049-88,5.6000000000000005,0.109,0.003,99.99,5.0,6395.0,0.0,0.0,
2025-08-15T00:59:30.760Z,3,GR86-049-88,5.6000000000000005,0.131,0.013,100.01,5.0,,0.0,0.0,188.57
2025-08-15T00:59:30.802Z,3,GR86-049-88,5.6000000000000005,0.115,0.003,100.01,5.0,,0.0,0.0,
2025-08-15T00:59:30.845Z,3,GR86-049-88,5.6000000000000005,0.121,0.009,100.0,5.0,,0.0,0.0,
2025-08-15T00:59:30.889Z,3,GR86-049-88,5.5,0.132,-0.019,99.99,5.0,,0.0,0.0,
2025-08-15T00:59:30.932Z,3,GR86-049-88,5.5,0.131,-0.001,100.0,5.0,6442.0,0.0,0.0,
2025-08-15T00:59:30.975Z,3,GR86-049-88,5.4,0.124,-0.013,99.99,5.0,,0.0,0.0,189.38
2025-08-15T00:59:31.020Z,3,GR86-049-88,5.4,0.09,-0.032,99.99,5.0,,0.0,0.0,
2025-08-15T00:59:31.063Z,3,GR86-049-88,5.300000000000001,0.096,-0.011,100.01,5.0,,0.0,0.0,
2025-08-15T00:59:31.106Z,3,GR86-049-88,5.2,0.101,-0.024,100.01,5.0,,0.0,0.0,
2025-08-15T00:59:31.149Z,3,GR86-049-88,5.2,0.101,-0.024,99.99,5.0,6472.0,0.0,0.0,
2025-08-15T00:59:31.192Z,3,GR86-049-88,5.2,0.104,-0.038,100.0,5.0,,0.0,0.0,190.08
2025-08-15T00:59:31.235Z,3,GR86-049-88,5.2,0.121,-0.048,100.0,5.0,,0.0,0.0,
2025-08-15T00:59:31.279Z,3,GR86-049-88,5.2,0.067,-0.023,100.0,5.0,,0.0,0.0,
2025-08-15T00:59:31.323Z,3,GR86-049-88,5.2,0.073,-0.019,100.0,5.0,,0.0,0.0,
2025-08-15T00:59:31.366Z,3,GR86-049-88,5.2,0.083,-0.003,99.99,5.0,6490.0,0.0,0.0,
2025-08-15T00:59:31.409Z,3,GR86-049-88,5.2,0.095,-0.036,100.0,5.0,,0.0,0.0,190.87
2025-08-15T00:59:31.452Z,3,GR86-049-88,5.2,0.078,-0.047,100.0,5.0,,0.0,0.0,
2025-08-15T00:59:31.495Z,3,GR86-049-88,5.2,0.115,-0.056,100.0,5.0,,0.0,0.0,
2025-08-15T00:59:31.539Z,3,GR86-049-88,5.2,0.103,-0.019,100.0,5.0,,0.0,0.0,
2025-08-15T00:59:31.582Z,3,GR86-049-88,5.300000000000001,0.058,-0.026,100.0,5.0,6505.0,0.0,0.0,
2025-08-15T00:59:31.625Z,3,GR86-049-88,5.300000000000001,0.08,-0.025,100.01,5.0,,0.0,0.0,191.63
2025-08-15T00:59:31.668Z,3,GR86-049-88,5.4,0.082,-0.003,100.0,5.0,,0.0,0.0,
2025-08-15T00:59:31.754Z,3,GR86-049-88,5.4,0.067,-0.02,100.0,5.0,,0.0,0.0,
2025-08-15T00:59:31.797Z,3,GR86-049-88,5.4,0.08,-0.019,100.0,5.0,6553.0,0.0,0.0,
2025-08-15T00:59:31.840Z,3,GR86-049-88,5.4,0.078,-0.002,100.02,5.0,,0.0,0.0,192.17
2025-08-15T00:59:31.883Z,3,GR86-049-88,5.4,0.065,0.003,100.01,5.0,,0.0,0.0,
2025-08-15T00:59:31.926Z,3,GR86-049-88,5.4,0.076,0.01,100.01,5.0,,0.0,0.0,
2025-08-15T00:59:31.970Z,3,GR86-049-88,5.4,0.074,0.043,100.0,5.0,,0.0,0.0,
2025-08-15T00:59:32.013Z,3,GR86-049-88,5.6000000000000005,0.075,0.013,99.99,5.0,6564.0,0.0,0.0,
2025-08-15T00:59:32.056Z,3,GR86-049-88,5.9,0.068,0.033,100.0,5.0,,0.0,0.0,192.95
2025-08-15T00:59:32.100Z,3,GR86-049-88,6.0,0.093,0.032,100.02,5.0,,0.0,0.0,
2025-08-15T00:59:32.143Z,3,GR86-049-88,6.0,0.076,0.036,100.01,5.0,,0.0,0.0,
2025-08-15T00:59:32.186Z,3,GR86-049-88,6.0,0.057,0.036,100.0,5.0,,0.0,0.0,
2025-08-15T00:59:32.230Z,3,GR86-049-88,6.0,0.071,0.064,99.99,5.0,6586.0,0.0,0.0,
2025-08-15T00:59:32.273Z,3,GR86-049-88,6.1000000000000005,0.054,0.083,99.99,5.0,,0.0,0.0,193.68
2025-08-15T00:59:32.316Z,3,GR86-049-88,6.1000000000000005,0.078,0.082,99.99,5.0,,0.0,0.0,
2025-08-15T00:59:32.360Z,3,GR86-049-88,6.1000000000000005,0.093,0.083,100.0,5.0,,0.0,0.0,
2025-08-15T00:59:32.403Z,3,GR86-049-88,6.2,0.085,0.071,99.99,5.0,,0.0,0.0,
2025-08-15T00:59:32.489Z,3,GR86-049-88,6.2,0.058,0.086,100.0,5.0,6608.0,0.0,0.0,194.35
2025-08-15T00:59:32.532Z,3,GR86-049-88,6.2,0.078,0.083,100.01,5.0,,0.0,0.0,
2025-08-15T00:59:32.575Z,3,GR86-049-88,6.2,0.07,0.074,100.0,5.0,,0.0,0.0,
2025-08-15T00:59:32.620Z,3,GR86-049-88,6.2,0.094,0.042,99.99,5.0,,0.0,0.0,
2025-08-15T00:59:32.663Z,3,GR86-049-88,6.2,0.092,0.037,99.99,5.0,6626.0,0.0,0.0,
2025-08-15T00:59:32.706Z,3,GR86-049-88,6.2,0.068,0.061,100.0,5.0,,0.0,0.0,195.1
2025-08-15T00:59:32.750Z,3,GR86-049-88,6.300000000000001,0.065,0.049,100.0,5.0,,0.0,0.0,
2025-08-15T00:59:32.793Z,3,GR86-049-88,6.300000000000001,0.079,0.065,100.0,5.0,,0.0,0.0,
2025-08-15T00:59:32.836Z,3,GR86-049-88,6.300000000000001,0.076,0.046,100.0,5.0,,0.0,0.0,
2025-08-15T00:59:32.879Z,3,GR86-049-88,6.300000000000001,0.083,0.063,99.99,5.0,6653.0,0.0,0.0,
2025-08-15T00:59:32.922Z,3,GR86-049-88,6.300000000000001,0.094,0.078,99.99,5.0,,0.0,0.0,196.42
2025-08-15T00:59:32.965Z,3,GR86-049-88,6.300000000000001,0.07,0.066,100.01,5.0,,0.0,0.0,
2025-08-15T00:59:33.008Z,3,GR86-049-88,6.300000000000001,0.074,0.063,100.0,5.0,,0.0,0.0,
2025-08-15T00:59:33.051Z,3,GR86-049-88,6.300000000000001,0.058,0.075,100.0,5.0,,0.0,0.0,
2025-08-15T00:59:33.094Z,3,GR86-049-88,6.300000000000001,0.09,0.06,100.0,5.0,6677.0,0.0,0.0,
2025-08-15T00:59:33.137Z,3,GR86-049-88,6.300000000000001,0.077,0.065,100.01,5.0,,0.0,0.0,197.05
2025-08-15T00:59:33.180Z,3,GR86-049-88,6.300000000000001,0.07,0.066,99.99,5.0,,0.0,0.0,
2025-08-15T00:59:33.223Z,3,GR86-049-88,6.300000000000001,0.063,0.063,99.99,5.0,,0.0,0.0,
2025-08-15T00:59:33.266Z,3,GR86-049-88,6.300000000000001,0.068,0.041,99.99,5.0,,0.0,0.0,
2025-08-15T00:59:33.309Z,3,GR86-049-88,6.300000000000001,0.082,0.039,99.99,5.0,6706.0,0.0,0.0,
2025-08-15T00:59:33.352Z,3,GR86-049-88,6.300000000000001,0.091,0.054,99.99,5.0,,0.0,0.0,197.73
2025-08-15T00:59:33.395Z,3,GR86-049-88,6.300000000000001,0.111,0.055,99.99,5.0,,0.0,0.0,
2025-08-15T00:59:33.481Z,3,GR86-049-88,6.300000000000001,0.066,0.041,100.01,5.0,,0.0,0.0,
2025-08-15T00:59:33.524Z,3,GR86-049-88,6.300000000000001,0.078,0.016,100.0,5.0,6748.0,0.0,0.0,
2025-08-15T00:59:33.567Z,3,GR86-049-88,6.300000000000001,0.113,0.025,99.99,5.0,,0.0,0.0,198.58
2025-08-15T00:59:33.610Z,3,GR86-049-88,6.300000000000001,0.116,0.017,100.0,5.0,,0.0,0.0,
2025-08-15T00:59:33.696Z,3,GR86-049-88,6.300000000000001,0.094,0.048,99.99,5.0,,0.0,0.0,
2025-08-15T00:59:33.783Z,3,GR86-049-88,6.300000000000001,0.118,0.028,100.0,5.0,6781.0,0.0,0.0,199.33
2025-08-15T00:59:33.826Z,3,GR86-049-88,6.300000000000001,0.102,0.016,100.0,5.0,,0.0,0.0,
2025-08-15T00:59:33.913Z,3,GR86-049-88,6.300000000000001,0.116,0.056,100.0,5.0,,0.0,0.0,
2025-08-15T00:59:33.955Z,3,GR86-049-88,6.2,0.09,0.049,99.99,5.0,6804.0,0.0,0.0,
2025-08-15T00:59:33.999Z,3,GR86-049-88,6.2,0.11,0.04,100.0,5.0,,0.0,0.0,200.04
2025-08-15T00:59:34.042Z,3,GR86-049-88,6.1000000000000005,0.103,0.037,100.01,5.0,,0.0,0.0,
2025-08-15T00:59:34.085Z,3,GR86-049-88,5.800000000000001,0.092,0.026,99.99,5.0,,0.0,0.0,
2025-08-15T00:59:34.128Z,3,GR86-049-88,5.300000000000001,0.094,0.007,100.0,5.0,,0.0,0.0,
2025-08-15T00:59:34.171Z,3,GR86-049-88,5.300000000000001,0.074,-0.005,100.0,5.0,6834.0,0.0,0.0,
2025-08-15T00:59:34.215Z,3,GR86-049-88,5.300000000000001,0.055,-0.039,100.01,5.0,,0.0,0.0,200.92
2025-08-15T00:59:34.258Z,3,GR86-049-88,5.300000000000001,0.092,-0.018,100.0,5.0,,0.0,0.0,
2025-08-15T00:59:34.301Z,3,GR86-049-88,5.300000000000001,0.086,-0.039,100.0,5.0,,0.0,0.0,
2025-08-15T00:59:34.344Z,3,GR86-049-88,5.300000000000001,0.062,-0.03,100.0,5.0,,0.0,0.0,
2025-08-15T00:59:34.387Z,3,GR86-049-88,5.300000000000001,0.062,-0.066,100.0,5.0,6851.0,0.0,0.0,
2025-08-15T00:59:34.430Z,3,GR86-049-88,5.300000000000001,0.081,-0.067,99.99,5.0,,0.0,0.0,201.58
2025-08-15T00:59:34.473Z,3,GR86-049-88,5.300000000000001,0.068,-0.061,99.99,5.0,,0.0,0.0,
2025-08-15T00:59:34.516Z,3,GR86-049-88,5.4,0.09,-0.05,99.99,5.0,,0.0,0.0,
2025-08-15T00:59:34.560Z,3,GR86-049-88,5.4,0.071,-0.007,99.99,5.0,,0.0,0.0,
2025-08-15T00:59:34.602Z,3,GR86-049-88,5.4,0.059,-0.038,100.0,5.0,6880.0,0.0,0.0,
2025-08-15T00:59:34.645Z,3,GR86-049-88,5.4,0.079,-0.065,99.99,5.0,,0.0,0.0,202.31
2025-08-15T00:59:34.689Z,3,GR86-049-88,5.4,0.094,-0.055,100.0,5.0,,0.0,0.0,
2025-08-15T00:59:34.732Z,3,GR86-049-88,5.5,0.085,-0.023,100.0,5.0,,0.0,0.0,
2025-08-15T00:59:34.775Z,3,GR86-049-88,5.5,0.117,-0.007,99.99,5.0,,0.0,0.0,
2025-08-15T00:59:34.820Z,3,GR86-049-88,5.6000000000000005,0.074,0.009,99.99,5.0,6899.0,0.0,0.0,
2025-08-15T00:59:34.863Z,3,GR86-049-88,5.6000000000000005,0.101,0.016,100.0,5.0,,0.0,0.0,203.03
2025-08-15T00:59:34.906Z,3,GR86-049-88,5.6000000000000005,0.082,0.028,99.99,5.0,,0.0,0.0,
2025-08-15T00:59:34.950Z,3,GR86-049-88,5.6000000000000005,0.101,0.006,99.98,5.0,,0.0,0.0,
2025-08-15T00:59:34.993Z,3,GR86-049-88,5.7,0.08,0.006,99.99,5.0,,0.0,0.0,
2025-08-15T00:59:35.036Z,3,GR86-049-88,5.7,0.063,0.022,100.0,5.0,6929.0,0.0,0.0,
2025-08-15T00:59:35.080Z,3,GR86-049-88,5.7,0.093,0.034,100.0,5.0,,0.0,0.0,203.71
2025-08-15T00:59:35.123Z,3,GR86-049-88,5.7,0.098,0.039,100.0,5.0,,0.0,0.0,
2025-08-15T00:59:35.166Z,3,GR86-049-88,5.7,0.07,0.037,99.99,5.0,,0.0,0.0,
2025-08-15T00:59:35.209Z,3,GR86-049-88,5.5,0.081,0.01,99.99,5.0,,0.0,0.0,
2025-08-15T00:59:35.252Z,3,GR86-049-88,4.7,0.083,-0.007,100.0,5.0,6946.0,0.0,0.0,
2025-08-15T00:59:35.295Z,3,GR86-049-88,4.1000000000000005,0.069,-0.029,100.0,5.0,,0.0,0.0,204.38
2025-08-15T00:59:35.339Z,3,GR86-049-88,4.0,0.073,-0.057,100.02,5.0,,0.0,0.0,
2025-08-15T00:59:35.382Z,3,GR86-049-88,4.0,0.097,-0.086,99.99,5.0,,0.0,0.0,
2025-08-15T00:59:35.425Z,3,GR86-049-88,4.0,0.063,-0.108,100.0,5.0,,0.0,0.0,
2025-08-15T00:59:35.469Z,3,GR86-049-88,4.1000000000000005,0.102,-0.106,100.02,5.0,6972.0,0.0,0.0,
2025-08-15T00:59:35.511Z,3,GR86-049-88,4.4,0.081,-0.12,99.99,5.0,,0.0,0.0,205.02
2025-08-15T00:59:35.554Z,3,GR86-049-88,4.7,0.104,-0.115,100.02,5.0,,0.0,0.0,
2025-08-15T00:59:35.599Z,3,GR86-049-88,5.1000000000000005,0.079,-0.092,100.0,5.0,,0.0,0.0,
2025-08-15T00:59:35.641Z,3,GR86-049-88,5.2,0.091,-0.071,99.99,5.0,,0.0,0.0,
2025-08-15T00:59:35.684Z,3,GR86-049-88,5.2,0.094,-0.017,99.99,5.0,6984.0,0.0,0.0,
2025-08-15T00:59:35.727Z,3,GR86-049-88,5.2,0.084,0.0,100.0,5.0,,0.0,0.0,206.33
2025-08-15T00:59:35.770Z,3,GR86-049-88,5.2,0.087,0.019,99.99,5.0,,0.0,0.0,
2025-08-15T00:59:35.813Z,3,GR86-049-88,5.2,0.061,0.02,100.0,5.0,,0.0,0.0,
2025-08-15T00:59:35.856Z,3,GR86-049-88,5.2,0.08,-0.013,99.99,5.0,,0.0,0.0,
2025-08-15T00:59:35.900Z,3,GR86-049-88,5.2,0.082,0.004,100.0,5.0,7005.0,0.0,0.0,
2025-08-15T00:59:35.943Z,3,GR86-049-88,5.2,0.071,0.016,100.0,5.0,,0.0,0.0,206.96
2025-08-15T00:59:35.986Z,3,GR86-049-88,5.300000000000001,0.056,0.017,100.01,5.0,,0.0,0.0,
2025-08-15T00:59:36.029Z,3,GR86-049-88,5.6000000000000005,0.068,0.034,99.99,5.0,,0.0,0.0,
2025-08-15T00:59:36.072Z,3,GR86-049-88,6.6000000000000005,0.079,0.037,100.0,5.0,,0.0,0.0,
2025-08-15T00:59:36.115Z,3,GR86-049-88,7.0,0.084,0.047,99.98,5.0,7038.0,0.0,0.0,
2025-08-15T00:59:36.159Z,3,GR86-049-88,7.0,0.077,0.019,99.99,5.0,,0.0,0.0,207.53
2025-08-15T00:59:36.201Z,3,GR86-049-88,7.0,0.085,0.051,100.0,5.0,,0.0,0.0,
2025-08-15T00:59:36.244Z,3,GR86-049-88,7.0,0.087,0.073,99.98,5.0,,0.0,0.0,
2025-08-15T00:59:36.287Z,3,GR86-049-88,6.800000000000001,0.093,0.103,100.0,5.0,,0.0,0.0,
2025-08-15T00:59:36.330Z,3,GR86-049-88,6.800000000000001,0.091,0.089,99.99,5.0,7069.0,0.0,0.0,
2025-08-15T00:59:36.373Z,3,GR86-049-88,6.800000000000001,0.073,0.075,99.99,5.0,,0.0,0.0,208.16
2025-08-15T00:59:36.416Z,3,GR86-049-88,6.7,0.069,0.054,99.99,5.0,,0.0,0.0,
2025-08-15T00:59:36.502Z,3,GR86-049-88,6.300000000000001,0.068,0.028,100.0,5.0,,0.0,0.0,
2025-08-15T00:59:36.545Z,3,GR86-049-88,6.2,0.062,0.011,100.0,5.0,7092.0,0.0,0.0,
2025-08-15T00:59:36.589Z,3,GR86-049-88,6.1000000000000005,0.068,-0.027,100.0,5.0,,0.0,0.0,208.6
2025-08-15T00:59:36.632Z,3,GR86-049-88,6.1000000000000005,0.079,-0.016,100.0,5.0,,0.0,0.0,
2025-08-15T00:59:36.675Z,3,GR86-049-88,6.2,0.099,0.006,100.03,5.0,,0.0,0.0,
2025-08-15T00:59:36.720Z,3,GR86-049-88,6.300000000000001,0.078,-0.027,99.99,5.0,,0.0,0.0,
2025-08-15T00:59:36.763Z,3,GR86-049-88,6.300000000000001,0.083,0.0,100.01,5.0,7102.0,0.0,0.0,
2025-08-15T00:59:36.806Z,3,GR86-049-88,6.300000000000001,0.093,0.023,100.01,5.0,,0.0,0.0,209.22
2025-08-15T00:59:36.849Z,3,GR86-049-88,6.300000000000001,0.087,0.029,100.0,5.0,,0.0,0.0,
2025-08-15T00:59:36.892Z,3,GR86-049-88,6.300000000000001,0.074,0.045,100.0,5.0,,0.0,0.0,
2025-08-15T00:59:36.935Z,3,GR86-049-88,5.800000000000001,0.071,0.032,100.0,5.0,,0.0,0.0,
2025-08-15T00:59:36.979Z,3,GR86-049-88,4.800000000000001,0.084,0.037,100.0,5.0,7134.0,0.0,0.0,
2025-08-15T00:59:37.023Z,3,GR86-049-88,4.800000000000001,0.073,-0.001,100.0,5.0,,0.0,0.0,209.87
2025-08-15T00:59:37.066Z,3,GR86-049-88,4.800000000000001,0.045,-0.005,100.0,5.0,,0.0,0.0,
2025-08-15T00:59:37.109Z,3,GR86-049-88,4.7,0.069,-0.033,100.0,5.0,,0.0,0.0,
2025-08-15T00:59:37.152Z,3,GR86-049-88,4.6000000000000005,0.074,-0.063,100.01,5.0,,0.0,0.0,
2025-08-15T00:59:37.195Z,3,GR86-049-88,4.6000000000000005,0.083,-0.096,100.02,5.0,7156.0,0.0,0.0,
2025-08-15T00:59:37.239Z,3,GR86-049-88,4.4,0.054,-0.117,100.0,5.0,,0.0,0.0,210.46
2025-08-15T00:59:37.282Z,3,GR86-049-88,4.4,0.085,-0.127,100.0,5.0,,0.0,0.0,
2025-08-15T00:59:37.325Z,3,GR86-049-88,4.5,0.084,-0.108,100.0,5.0,,0.0,0.0,
2025-08-15T00:59:37.368Z,3,GR86-049-88,4.9,0.074,-0.111,100.0,5.0,,0.0,0.0,
2025-08-15T00:59:37.411Z,3,GR86-049-88,5.0,0.069,-0.09,99.99,5.0,7161.0,0.0,0.0,
2025-08-15T00:59:37.454Z,3,GR86-049-88,5.0,0.049,-0.088,99.99,5.0,,0.0,0.0,211.11
2025-08-15T00:59:37.497Z,3,GR86-049-88,5.2,0.061,-0.087,100.01,5.0,,0.0,0.0,
2025-08-15T00:59:37.540Z,3,GR86-049-88,5.4,0.062,-0.029,99.99,5.0,,0.0,0.0,
2025-08-15T00:59:37.583Z,3,GR86-049-88,5.5,0.057,-0.008,100.0,5.0,,0.0,0.0,
2025-08-15T00:59:37.626Z,3,GR86-049-88,5.800000000000001,0.066,0.011,99.99,5.0,7183.0,0.0,0.0,
2025-08-15T00:59:37.670Z,3,GR86-049-88,6.0,0.093,0.02,100.0,5.0,,0.0,0.0,211.59
2025-08-15T00:59:37.713Z,3,GR86-049-88,6.0,0.096,0.044,99.99,5.0,,0.0,0.0,
2025-08-15T00:59:37.756Z,3,GR86-049-88,6.0,0.071,0.051,99.99,5.0,,0.0,0.0,
2025-08-15T00:59:37.800Z,3,GR86-049-88,6.1000000000000005,0.089,0.075,99.99,5.0,,0.0,0.0,
2025-08-15T00:59:37.843Z,3,GR86-049-88,6.7,0.091,0.064,99.99,5.0,7197.0,0.0,0.0,
2025-08-15T00:59:37.886Z,3,GR86-049-88,8.5,0.06,0.076,100.0,5.0,,0.0,0.0,212.23
2025-08-15T00:59:37.930Z,3,GR86-049-88,9.1,0.059,0.09,100.02,5.0,,0.0,0.0,
2025-08-15T00:59:38.016Z,3,GR86-049-88,7.9,0.099,0.126,100.02,5.0,,0.0,0.0,
2025-08-15T00:59:38.060Z,3,GR86-049-88,6.2,0.056,0.117,99.99,5.0,7218.0,0.0,0.0,
2025-08-15T00:59:38.103Z,3,GR86-049-88,6.2,0.061,0.105,100.01,5.0,,0.0,0.0,212.74
2025-08-15T00:59:38.146Z,3,GR86-049-88,6.800000000000001,0.084,0.105,84.05,5.0,,0.0,0.0,
2025-08-15T00:59:38.232Z,3,GR86-049-88,8.0,0.091,0.097,12.57,5.0,,0.0,0.0,
2025-08-15T00:59:38.275Z,3,GR86-049-88,9.2,-0.119,0.078,2.12,5.0,7238.0,7.8,8.33,
2025-08-15T00:59:38.320Z,3,GR86-049-88,8.9,-0.47,0.116,2.05,5.0,,53.365,53.395,213.72
2025-08-15T00:59:38.363Z,3,GR86-049-88,7.800000000000001,-1.198,0.051,2.08,5.0,,78.175,77.645,
2025-08-15T00:59:38.406Z,3,GR86-049-88,5.7,-1.195,0.139,2.1,5.0,,95.955,95.115,
2025-08-15T00:59:38.450Z,3,GR86-049-88,5.0,-1.398,0.044,2.12,5.0,,108.59,109.66,
2025-08-15T00:59:38.493Z,3,GR86-049-88,5.1000000000000005,-1.353,0.034,2.14,5.0,7268.0,109.69,111.58,
2025-08-15T00:59:38.536Z,3,GR86-049-88,6.800000000000001,-1.362,0.052,17.990000000000002,5.0,,109.66,111.93,214.33
2025-08-15T00:59:38.580Z,3,GR86-049-88,9.1,-1.345,0.058,38.77,4.0,,110.77,111.84,
2025-08-15T00:59:38.623Z,3,GR86-049-88,10.4,-1.347,0.115,6.05,4.0,,111.9,113.765,
2025-08-15T00:59:38.666Z,3,GR86-049-88,10.4,-1.241,0.124,4.4,4.0,,108.15,110.405,
2025-08-15T00:59:38.709Z,3,GR86-049-88,9.7,-1.301,0.159,3.91,4.0,6960.0,106.545,107.615,
2025-08-15T00:59:38.752Z,3,GR86-049-88,5.800000000000001,-1.291,0.163,3.65,4.0,,106.895,108.62,205.14
2025-08-15T00:59:38.795Z,3,GR86-049-88,3.9,-1.207,0.128,3.47,4.0,,106.12,107.95,
2025-08-15T00:59:38.839Z,3,GR86-049-88,4.3,-1.397,0.172,3.11,4.0,,102.425,103.095,
2025-08-15T00:59:38.881Z,3,GR86-049-88,4.3,-1.269,0.232,2.89,4.0,,106.025,108.39,
2025-08-15T00:59:38.968Z,3,GR86-049-88,3.4000000000000004,-1.234,0.213,2.61,4.0,6526.0,104.715,105.34,193.97
2025-08-15T00:59:39.011Z,3,GR86-049-88,2.4000000000000004,-1.335,0.164,2.54,4.0,,107.08,108.53,
2025-08-15T00:59:39.054Z,3,GR86-049-88,2.0,-1.137,0.04,2.72,4.0,,105.675,106.895,
2025-08-15T00:59:39.097Z,3,GR86-049-88,2.0,-1.208,0.036,41.56,4.0,,104.365,104.685,
2025-08-15T00:59:39.140Z,3,GR86-049-88,3.7,-1.328,-0.146,13.06,3.0,6947.0,105.8,106.24,
2025-08-15T00:59:39.183Z,3,GR86-049-88,4.3,-1.295,-0.06,4.64,3.0,,105.615,107.4,185.99
2025-08-15T00:59:39.226Z,3,GR86-049-88,4.3,-1.399,-0.097,3.91,3.0,,106.025,107.825,
2025-08-15T00:59:39.313Z,3,GR86-049-88,9.2,-1.303,-0.124,3.42,3.0,,103.065,104.655,
2025-08-15T00:59:39.399Z,3,GR86-049-88,10.1,-1.21,-0.218,3.21,3.0,6729.0,100.9,102.485,178.16
2025-08-15T00:59:39.441Z,3,GR86-049-88,10.2,-1.332,-0.172,2.76,3.0,,104.15,105.645,
2025-08-15T00:59:39.484Z,3,GR86-049-88,9.2,-1.157,-0.337,2.66,3.0,,104.715,105.645,
2025-08-15T00:59:39.527Z,3,GR86-049-88,2.6,-1.305,-0.186,2.6,3.0,,104.12,104.395,
2025-08-15T00:59:39.613Z,3,GR86-049-88,-6.7,-1.258,-0.236,2.54,3.0,7463.0,104.395,104.44,170.1
2025-08-15T00:59:39.656Z,3,GR86-049-88,-15.9,-1.221,-0.344,2.52,3.0,,103.19,103.875,
2025-08-15T00:59:39.700Z,3,GR86-049-88,-19.700000000000003,-1.174,-0.444,2.5,3.0,,104.365,105.02,
2025-08-15T00:59:39.743Z,3,GR86-049-88,-20.4,-1.181,-0.492,2.52,3.0,,102.165,102.395,
2025-08-15T00:59:39.786Z,3,GR86-049-88,-17.400000000000002,-1.152,-0.581,2.5,3.0,7246.0,89.21000000000001,90.585,
2025-08-15T00:59:39.830Z,3,GR86-049-88,-8.6,-0.992,-0.5650000000000001,2.49,3.0,,69.58500000000001,71.08,163.17000000000002
2025-08-15T00:59:39.872Z,3,GR86-049-88,-3.6,-0.952,-0.462,2.5,3.0,,56.935,58.43,
2025-08-15T00:59:39.915Z,3,GR86-049-88,-3.4000000000000004,-0.976,-0.552,2.5,3.0,,52.115,52.92,
2025-08-15T00:59:39.958Z,3,GR86-049-88,-4.2,-0.8290000000000001,-0.585,2.5,3.0,,40.925,42.085,
2025-08-15T00:59:40.001Z,3,GR86-049-88,-5.4,-0.74,-0.62,2.51,3.0,6837.0,31.205,32.17,
2025-08-15T00:59:40.087Z,3,GR86-049-88,-11.8,-0.624,-0.678,2.5,3.0,,23.455,24.43,155.38
2025-08-15T00:59:40.130Z,3,GR86-049-88,-32.300000000000004,-0.549,-0.8280000000000001,2.49,3.0,,19.96,20.51,
2025-08-15T00:59:40.173Z,3,GR86-049-88,-35.2,-0.543,-0.899,2.5,3.0,,20.235,20.725,
2025-08-15T00:59:40.216Z,3,GR86-049-88,-35.9,-0.5760000000000001,-0.96,2.5,3.0,6510.0,17.84,18.405,
2025-08-15T00:59:40.260Z,3,GR86-049-88,-36.7,-0.378,-1.083,2.5,3.0,,3.905,4.3950000000000005,149.23
2025-08-15T00:59:40.302Z,3,GR86-049-88,-36.7,-0.289,-1.127,2.5,3.0,,0.0,0.0,
2025-08-15T00:59:40.345Z,3,GR86-049-88,-36.7,-0.213,-1.156,2.5,3.0,,0.0,0.0,
2025-08-15T00:59:40.389Z,3,GR86-049-88,-37.0,-0.174,-1.194,2.5,3.0,,0.0,0.0,
2025-08-15T00:59:40.432Z,3,GR86-049-88,-36.8,-0.19,-1.21,2.5,3.0,6429.0,0.0,0.0,
2025-08-15T00:59:40.475Z,3,GR86-049-88,-33.5,-0.229,-1.262,2.5,3.0,,0.0,0.0,144.31
2025-08-15T00:59:40.520Z,3,GR86-049-88,-29.8,-0.209,-1.232,8.25,3.0,,0.0,0.0,
2025-08-15T00:59:40.606Z,3,GR86-049-88,-29.9,-0.18,-1.205,27.39,3.0,,0.0,0.0,
2025-08-15T00:59:40.650Z,3,GR86-049-88,-32.9,-0.141,-1.27,28.28,3.0,6307.0,0.0,0.0,
2025-08-15T00:59:40.693Z,3,GR86-049-88,-38.2,-0.16,-1.322,29.63,3.0,,0.0,0.0,140.95000000000002
2025-08-15T00:59:40.736Z,3,GR86-049-88,-42.7,-0.144,-1.379,30.38,3.0,,0.0,0.0,
2025-08-15T00:59:40.823Z,3,GR86-049-88,-47.7,0.097,-1.315,30.64,3.0,,0.0,0.0,
2025-08-15T00:59:40.866Z,3,GR86-049-88,-51.1,0.048,-1.307,31.05,3.0,6268.0,0.0,0.0,
2025-08-15T00:59:40.909Z,3,GR86-049-88,-51.1,0.048,-1.268,30.69,3.0,,0.0,0.0,139.62
2025-08-15T00:59:40.952Z,3,GR86-049-88,-51.400000000000006,0.01,-1.335,28.23,3.0,,0.0,0.0,
2025-08-15T00:59:40.995Z,3,GR86-049-88,-52.3,-0.002,-1.313,24.32,3.0,,0.0,0.0,
2025-08-15T00:59:41.039Z,3,GR86-049-88,-52.900000000000006,-0.017,-1.415,20.74,3.0,,0.0,0.0,
2025-08-15T00:59:41.082Z,3,GR86-049-88,-54.1,-0.024,-1.393,20.72,3.0,6423.0,0.0,0.0,
2025-08-15T00:59:41.125Z,3,GR86-049-88,-54.8,-0.032,-1.368,20.76,3.0,,0.0,0.0,135.29
2025-08-15T00:59:41.169Z,3,GR86-049-88,-55.2,-0.048,-1.388,20.85,3.0,,0.0,0.0,
2025-08-15T00:59:41.211Z,3,GR86-049-88,-56.0,-0.079,-1.261,20.96,3.0,,0.0,0.0,
2025-08-15T00:59:41.254Z,3,GR86-049-88,-57.0,-0.097,-1.325,21.16,3.0,,0.0,0.0,
2025-08-15T00:59:41.297Z,3,GR86-049-88,-57.8,-0.041,-1.234,21.39,3.0,6414.0,0.0,0.0,
2025-08-15T00:59:41.340Z,3,GR86-049-88,-58.7,-0.053,-1.391,22.24,3.0,,0.0,0.0,134.61
2025-08-15T00:59:41.383Z,3,GR86-049-88,-59.400000000000006,-0.054,-1.336,24.08,3.0,,0.0,0.0,
2025-08-15T00:59:41.426Z,3,GR86-049-88,-59.400000000000006,-0.099,-1.331,26.01,3.0,,0.0,0.0,
2025-08-15T00:59:41.469Z,3,GR86-049-88,-59.6,-0.071,-1.325,26.71,3.0,,0.0,0.0,
2025-08-15T00:59:41.555Z,3,GR86-049-88,-59.8,0.057,-1.063,30.87,3.0,6356.0,0.0,0.0,133.76
2025-08-15T00:59:41.599Z,3,GR86-049-88,-59.7,0.048,-1.256,33.29,3.0,,0.0,0.0,
2025-08-15T00:59:41.641Z,3,GR86-049-88,-59.7,0.059,-1.207,33.1,3.0,,0.0,0.0,
2025-08-15T00:59:41.684Z,3,GR86-049-88,-59.8,-0.056,-1.241,32.59,3.0,,0.0,0.0,
2025-08-15T00:59:41.728Z,3,GR86-049-88,-59.8,-0.028,-1.201,31.95,3.0,6299.0,0.0,0.0,
2025-08-15T00:59:41.771Z,3,GR86-049-88,-60.400000000000006,0.03,-1.285,31.38,3.0,,0.0,0.0,133.65
2025-08-15T00:59:41.814Z,3,GR86-049-88,-62.6,0.045,-1.227,27.7,3.0,,0.0,0.0,
2025-08-15T00:59:41.900Z,3,GR86-049-88,-65.10000000000001,-0.031,-1.215,28.28,3.0,,0.0,0.0,
2025-08-15T00:59:41.943Z,3,GR86-049-88,-65.5,0.012,-1.309,39.19,3.0,6308.0,0.0,0.0,
2025-08-15T00:59:41.986Z,3,GR86-049-88,-66.3,-0.001,-1.293,80.33,3.0,,0.0,0.0,133.19
2025-08-15T00:59:42.029Z,3,GR86-049-88,-66.8,-0.024,-1.38,100.07,3.0,,0.0,0.0,
2025-08-15T00:59:42.072Z,3,GR86-049-88,-67.0,0.082,-1.243,100.18,3.0,,0.0,0.0,
2025-08-15T00:59:42.115Z,3,GR86-049-88,-67.4,0.155,-1.215,100.18,3.0,,0.0,0.0,
2025-08-15T00:59:42.159Z,3,GR86-049-88,-68.3,0.171,-1.193,100.2,3.0,6263.0,0.0,0.0,
2025-08-15T00:59:42.201Z,3,GR86-049-88,-69.0,0.128,-1.183,100.18,3.0,,0.0,0.0,132.47
2025-08-15T00:59:42.244Z,3,GR86-049-88,-69.7,0.082,-1.252,100.19,3.0,,0.0,0.0,
2025-08-15T00:59:42.287Z,3,GR86-049-88,-70.10000000000001,0.114,-1.193,100.19,3.0,,0.0,0.0,
2025-08-15T00:59:42.330Z,3,GR86-049-88,-70.60000000000001,0.145,-1.232,100.18,3.0,,0.0,0.0,
2025-08-15T00:59:42.373Z,3,GR86-049-88,-70.8,0.107,-1.267,100.2,3.0,6384.0,0.0,0.0,
2025-08-15T00:59:42.416Z,3,GR86-049-88,-71.10000000000001,0.082,-1.29,100.19,3.0,,0.0,0.0,132.28
2025-08-15T00:59:42.460Z,3,GR86-049-88,-71.60000000000001,0.072,-1.269,100.18,3.0,,0.0,0.0,
2025-08-15T00:59:42.503Z,3,GR86-049-88,-71.8,0.129,-1.231,100.18,3.0,,0.0,0.0,
2025-08-15T00:59:42.546Z,3,GR86-049-88,-71.9,0.164,-1.224,100.17,3.0,,0.0,0.0,
2025-08-15T00:59:42.589Z,3,GR86-049-88,-72.2,0.11,-1.18,100.17,3.0,6374.0,0.0,0.0,
2025-08-15T00:59:42.632Z,3,GR86-049-88,-72.2,0.103,-1.167,100.17,3.0,,0.0,0.0,132.19
2025-08-15T00:59:42.675Z,3,GR86-049-88,-72.3,0.149,-1.186,100.19,3.0,,0.0,0.0,
2025-08-15T00:59:42.720Z,3,GR86-049-88,-72.3,0.097,-1.198,100.16,3.0,,0.0,0.0,
2025-08-15T00:59:42.763Z,3,GR86-049-88,-72.3,0.145,-1.258,100.17,3.0,,0.0,0.0,
2025-08-15T00:59:42.806Z,3,GR86-049-88,-72.3,0.142,-1.242,100.15,3.0,6398.0,0.0,0.0,
2025-08-15T00:59:42.849Z,3,GR86-049-88,-72.3,0.131,-1.197,100.17,3.0,,0.0,0.0,132.81
2025-08-15T00:59:42.892Z,3,GR86-049-88,-72.10000000000001,0.152,-1.204,100.13,3.0,,0.0,0.0,
2025-08-15T00:59:42.935Z,3,GR86-049-88,-71.60000000000001,0.124,-1.229,100.15,3.0,,0.0,0.0,
2025-08-15T00:59:42.979Z,3,GR86-049-88,-71.5,0.143,-1.298,100.13,3.0,,0.0,0.0,
2025-08-15T00:59:43.022Z,3,GR86-049-88,-71.5,0.152,-1.301,100.14,3.0,6419.0,0.0,0.0,
2025-08-15T00:59:43.065Z,3,GR86-049-88,-71.5,0.105,-1.274,100.12,3.0,,0.0,0.0,133.26
2025-08-15T00:59:43.108Z,3,GR86-049-88,-71.4,0.137,-1.239,100.14,3.0,,0.0,0.0,
2025-08-15T00:59:43.151Z,3,GR86-049-88,-71.3,0.143,-1.24,100.11,3.0,,0.0,0.0,
2025-08-15T00:59:43.194Z,3,GR86-049-88,-71.3,0.112,-1.179,100.13,3.0,,0.0,0.0,
2025-08-15T00:59:43.239Z,3,GR86-049-88,-70.7,0.135,-1.254,100.1,3.0,6438.0,0.0,0.0,
2025-08-15T00:59:43.281Z,3,GR86-049-88,-69.4,0.067,-1.172,100.11,3.0,,0.0,0.0,134.12
2025-08-15T00:59:43.325Z,3,GR86-049-88,-68.10000000000001,0.134,-0.842,100.1,3.0,,0.0,0.0,
2025-08-15T00:59:43.411Z,3,GR86-049-88,-66.2,0.054,-0.674,100.1,3.0,,0.0,0.0,
2025-08-15T00:59:43.454Z,3,GR86-049-88,-49.6,0.033,-0.713,100.12,3.0,6449.0,0.0,0.0,
2025-08-15T00:59:43.497Z,3,GR86-049-88,-37.6,0.321,-0.849,100.08,3.0,,0.0,0.0,134.81
2025-08-15T00:59:43.540Z,3,GR86-049-88,-24.1,-0.04,-0.851,100.08,3.0,,0.0,0.0,
2025-08-15T00:59:43.583Z,3,GR86-049-88,-20.4,0.223,-1.106,100.07,3.0,,0.0,0.0,
2025-08-15T00:59:43.626Z,3,GR86-049-88,-19.700000000000003,0.294,-1.238,100.09,3.0,,0.0,0.0,
2025-08-15T00:59:43.670Z,3,GR86-049-88,-22.0,0.159,-1.243,100.08,3.0,6503.0,0.0,0.0,
2025-08-15T00:59:43.713Z,3,GR86-049-88,-27.700000000000003,-0.001,-1.22,100.08,3.0,,0.0,0.0,135.38
2025-08-15T00:59:43.756Z,3,GR86-049-88,-33.2,0.31,-1.113,100.08,3.0,,0.0,0.0,
2025-08-15T00:59:43.800Z,3,GR86-049-88,-37.2,0.16,-1.301,100.06,3.0,,0.0,0.0,
2025-08-15T00:59:43.843Z,3,GR86-049-88,-34.5,0.18,-1.284,100.06,3.0,,0.0,0.0,
2025-08-15T00:59:43.886Z,3,GR86-049-88,-18.8,0.117,-1.415,100.05,3.0,6651.0,0.0,0.0,
2025-08-15T00:59:43.930Z,3,GR86-049-88,-2.2,0.06,-1.347,100.04,3.0,,0.0,0.0,138.67000000000002
2025-08-15T00:59:43.973Z,3,GR86-049-88,5.7,0.19,-1.334,100.05,3.0,,0.0,0.0,
2025-08-15T00:59:44.060Z,3,GR86-049-88,4.7,0.283,-1.202,100.05,3.0,,0.0,0.0,
2025-08-15T00:59:44.146Z,3,GR86-049-88,-18.4,0.104,-1.073,100.05,3.0,6912.0,0.0,0.0,138.14
2025-08-15T00:59:44.189Z,3,GR86-049-88,-35.300000000000004,0.182,-1.14,100.03,3.0,,0.0,0.0,
2025-08-15T00:59:44.232Z,3,GR86-049-88,-45.5,0.075,-1.074,100.02,3.0,,0.0,0.0,
2025-08-15T00:59:44.275Z,3,GR86-049-88,-50.2,0.125,-0.872,99.99,3.0,,0.0,0.0,
2025-08-15T00:59:44.320Z,3,GR86-049-88,-50.400000000000006,0.223,-1.282,99.99,3.0,6736.0,0.0,0.0,
2025-08-15T00:59:44.363Z,3,GR86-049-88,-49.5,0.194,-1.061,100.0,3.0,,0.0,0.0,138.76
2025-08-15T00:59:44.406Z,3,GR86-049-88,-45.400000000000006,0.184,-1.322,99.99,3.0,,0.0,0.0,
2025-08-15T00:59:44.493Z,3,GR86-049-88,-39.0,0.2,-1.3,99.98,3.0,,0.0,0.0,
2025-08-15T00:59:44.536Z,3,GR86-049-88,-36.0,0.177,-1.126,100.03,3.0,6919.0,0.0,0.0,
2025-08-15T00:59:44.580Z,3,GR86-049-88,-38.0,0.158,-1.047,100.0,3.0,,0.0,0.0,139.09
2025-08-15T00:59:44.623Z,3,GR86-049-88,-39.0,0.086,-1.116,99.99,3.0,,0.0,0.0,
2025-08-15T00:59:44.709Z,3,GR86-049-88,-40.8,0.187,-1.082,100.0,3.0,,0.0,0.0,
2025-08-15T00:59:44.752Z,3,GR86-049-88,-45.900000000000006,0.082,-1.138,99.99,3.0,6738.0,0.0,0.0,
2025-08-15T00:59:44.795Z,3,GR86-049-88,-45.400000000000006,0.101,-0.719,99.99,3.0,,0.0,0.0,140.22
2025-08-15T00:59:44.839Z,3,GR86-049-88,-30.5,0.186,-1.019,99.99,3.0,,0.0,0.0,
2025-08-15T00:59:44.881Z,3,GR86-049-88,-18.8,0.053,-0.917,99.99,3.0,,0.0,0.0,
2025-08-15T00:59:44.925Z,3,GR86-049-88,-11.9,0.184,-1.009,99.99,3.0,,0.0,0.0,
2025-08-15T00:59:44.968Z,3,GR86-049-88,-8.200000000000001,0.331,-1.099,100.01,3.0,6744.0,0.0,0.0,
2025-08-15T00:59:45.011Z,3,GR86-049-88,-7.5,0.297,-1.053,100.0,3.0,,0.0,0.0,141.46
2025-08-15T00:59:45.054Z,3,GR86-049-88,-7.5,0.214,-0.967,100.0,3.0,,0.0,0.0,
2025-08-15T00:59:45.097Z,3,GR86-049-88,-6.800000000000001,0.096,-1.019,100.0,3.0,,0.0,0.0,
2025-08-15T00:59:45.140Z,3,GR86-049-88,1.5,0.151,-0.787,99.99,3.0,,0.0,0.0,
2025-08-15T00:59:45.183Z,3,GR86-049-88,7.4,0.183,-0.514,100.0,3.0,6927.0,0.0,0.0,
2025-08-15T00:59:45.226Z,3,GR86-049-88,9.2,0.231,-0.323,100.0,3.0,,0.0,0.0,141.99
2025-08-15T00:59:45.269Z,3,GR86-049-88,9.3,-0.021,-0.187,99.99,3.0,,0.0,0.0,
2025-08-15T00:59:45.312Z,3,GR86-049-88,9.7,0.05,-0.091,100.01,3.0,,0.0,0.0,
2025-08-15T00:59:45.355Z,3,GR86-049-88,11.2,0.274,-0.26,99.99,3.0,,0.0,0.0,
2025-08-15T00:59:45.399Z,3,GR86-049-88,15.0,0.311,-0.022,100.0,3.0,6807.0,0.0,0.0,
2025-08-15T00:59:45.442Z,3,GR86-049-88,16.1,0.213,-0.079,100.0,3.0,,0.0,0.0,143.95000000000002
2025-08-15T00:59:45.485Z,3,GR86-049-88,16.2,0.041,-0.019,100.0,3.0,,0.0,0.0,
2025-08-15T00:59:45.528Z,3,GR86-049-88,16.1,0.327,0.192,100.0,3.0,,0.0,0.0,
2025-08-15T00:59:45.571Z,3,GR86-049-88,15.7,0.197,0.233,100.0,3.0,,0.0,0.0,
2025-08-15T00:59:45.615Z,3,GR86-049-88,15.6,0.041,0.103,99.99,3.0,7138.0,0.0,0.0,
2025-08-15T00:59:45.657Z,3,GR86-049-88,15.4,0.334,0.161,100.0,3.0,,0.0,0.0,144.23
2025-08-15T00:59:45.700Z,3,GR86-049-88,14.3,0.153,0.441,100.01,3.0,,0.0,0.0,
2025-08-15T00:59:45.743Z,3,GR86-049-88,13.2,0.115,0.443,99.99,3.0,,0.0,0.0,
2025-08-15T00:59:45.786Z,3,GR86-049-88,13.1,0.179,0.532,99.99,3.0,,0.0,0.0,
2025-08-15T00:59:45.830Z,3,GR86-049-88,13.2,0.289,0.597,100.0,3.0,6909.0,0.0,0.0,
2025-08-15T00:59:45.872Z,3,GR86-049-88,13.3,0.311,0.543,99.99,3.0,,0.0,0.0,147.01
2025-08-15T00:59:45.915Z,3,GR86-049-88,13.4,0.157,0.548,100.0,3.0,,0.0,0.0,
2025-08-15T00:59:45.959Z,3,GR86-049-88,13.4,0.224,0.585,99.98,3.0,,0.0,0.0,
2025-08-15T00:59:46.001Z,3,GR86-049-88,13.5,0.31,0.494,99.99,3.0,,0.0,0.0,
2025-08-15T00:59:46.044Z,3,GR86-049-88,13.6,0.266,0.508,99.99,3.0,7110.0,0.0,0.0,
2025-08-15T00:59:46.087Z,3,GR86-049-88,13.9,0.21,0.438,100.01,3.0,,0.0,0.0,148.02
2025-08-15T00:59:46.130Z,3,GR86-049-88,13.9,0.08,0.356,100.0,3.0,,0.0,0.0,
2025-08-15T00:59:46.173Z,3,GR86-049-88,13.9,0.143,0.374,100.0,3.0,,0.0,0.0,
2025-08-15T00:59:46.216Z,3,GR86-049-88,14.0,0.257,0.335,100.0,3.0,,0.0,0.0,
2025-08-15T00:59:46.260Z,3,GR86-049-88,14.0,0.166,0.304,100.0,3.0,6981.0,0.0,0.0,
2025-08-15T00:59:46.302Z,3,GR86-049-88,14.0,0.238,0.313,100.01,3.0,,0.0,0.0,149.28
2025-08-15T00:59:46.345Z,3,GR86-049-88,14.0,0.241,0.328,100.0,3.0,,0.0,0.0,
2025-08-15T00:59:46.389Z,3,GR86-049-88,13.6,0.237,0.298,99.98,3.0,,0.0,0.0,
2025-08-15T00:59:46.432Z,3,GR86-049-88,12.5,0.158,0.273,99.99,3.0,,0.0,0.0,
2025-08-15T00:59:46.475Z,3,GR86-049-88,11.8,0.119,0.274,99.99,3.0,7029.0,0.0,0.0,
2025-08-15T00:59:46.520Z,3,GR86-049-88,11.8,0.211,0.25,99.99,3.0,,0.0,0.0,152.56
2025-08-15T00:59:46.563Z,3,GR86-049-88,13.3,0.143,0.24,100.0,3.0,,0.0,0.0,
2025-08-15T00:59:46.606Z,3,GR86-049-88,14.7,0.118,0.259,99.99,3.0,,0.0,0.0,
2025-08-15T00:59:46.650Z,3,GR86-049-88,15.0,0.141,0.295,99.98,3.0,,0.0,0.0,
2025-08-15T00:59:46.693Z,3,GR86-049-88,15.0,0.185,0.311,100.01,3.0,7171.0,0.0,0.0,
2025-08-15T00:59:46.736Z,3,GR86-049-88,15.0,0.205,0.313,99.99,3.0,,0.0,0.0,154.11
2025-08-15T00:59:46.780Z,3,GR86-049-88,15.0,0.071,0.34,99.98,3.0,,0.0,0.0,
2025-08-15T00:59:46.823Z,3,GR86-049-88,15.0,0.092,0.39,100.01,3.0,,0.0,0.0,
2025-08-15T00:59:46.866Z,3,GR86-049-88,15.0,0.139,0.405,99.99,3.0,,0.0,0.0,
2025-08-15T00:59:46.909Z,3,GR86-049-88,15.0,0.122,0.405,99.99,3.0,7255.0,0.0,0.0,
2025-08-15T00:59:46.952Z,3,GR86-049-88,15.0,0.067,0.395,100.0,3.0,,0.0,0.0,155.6
2025-08-15T00:59:46.995Z,3,GR86-049-88,14.9,-0.004,0.376,99.97,3.0,,0.0,0.0,
2025-08-15T00:59:47.039Z,3,GR86-049-88,14.7,-0.025,0.387,100.0,4.0,,0.0,0.0,
2025-08-15T00:59:47.082Z,3,GR86-049-88,14.7,0.545,0.395,99.99,4.0,,0.0,0.0,
2025-08-15T00:59:47.125Z,3,GR86-049-88,14.7,0.285,0.295,100.01,4.0,7286.0,0.0,0.0,
2025-08-15T00:59:47.168Z,3,GR86-049-88,14.7,0.256,0.351,99.98,4.0,,0.0,0.0,157.08
2025-08-15T00:59:47.211Z,3,GR86-049-88,13.2,0.054,0.412,99.99,4.0,,0.0,0.0,
2025-08-15T00:59:47.297Z,3,GR86-049-88,9.0,0.145,0.311,99.99,4.0,,0.0,0.0,
2025-08-15T00:59:47.340Z,3,GR86-049-88,8.0,0.139,0.191,100.0,4.0,6576.0,0.0,0.0,
2025-08-15T00:59:47.383Z,3,GR86-049-88,7.800000000000001,0.085,0.166,99.99,4.0,,0.0,0.0,158.16
2025-08-15T00:59:47.426Z,3,GR86-049-88,7.6,0.092,0.216,100.0,4.0,,0.0,0.0,
2025-08-15T00:59:47.469Z,3,GR86-049-88,7.5,0.176,0.124,99.99,4.0,,0.0,0.0,
2025-08-15T00:59:47.512Z,3,GR86-049-88,7.5,0.197,0.12,100.0,4.0,,0.0,0.0,
2025-08-15T00:59:47.555Z,3,GR86-049-88,7.5,0.188,0.079,99.99,4.0,6366.0,0.0,0.0,
2025-08-15T00:59:47.599Z,3,GR86-049-88,7.5,0.116,0.028,100.0,4.0,,0.0,0.0,159.83
2025-08-15T00:59:47.641Z,3,GR86-049-88,7.5,0.177,0.039,100.0,4.0,,0.0,0.0,
2025-08-15T00:59:47.684Z,3,GR86-049-88,7.5,0.191,0.052,99.99,4.0,,0.0,0.0,
2025-08-15T00:59:47.727Z,3,GR86-049-88,7.6,0.2,0.058,100.01,4.0,,0.0,0.0,
2025-08-15T00:59:47.770Z,3,GR86-049-88,7.9,0.141,0.076,100.01,4.0,6355.0,0.0,0.0,
2025-08-15T00:59:47.813Z,3,GR86-049-88,8.0,0.155,0.1,100.01,4.0,,0.0,0.0,161.38
2025-08-15T00:59:47.856Z,3,GR86-049-88,8.0,0.117,0.109,100.0,4.0,,0.0,0.0,
2025-08-15T00:59:47.900Z,3,GR86-049-88,8.0,0.195,0.126,99.99,4.0,,0.0,0.0,
2025-08-15T00:59:47.943Z,3,GR86-049-88,8.0,0.166,0.138,100.01,4.0,,0.0,0.0,
2025-08-15T00:59:47.986Z,3,GR86-049-88,8.0,0.16,0.153,100.02,4.0,6401.0,0.0,0.0,
2025-08-15T00:59:48.029Z,3,GR86-049-88,8.0,0.144,0.141,100.0,4.0,,0.0,0.0,162.83
2025-08-15T00:59:48.072Z,3,GR86-049-88,8.0,0.107,0.15,100.01,4.0,,0.0,0.0,
2025-08-15T00:59:48.115Z,3,GR86-049-88,8.0,0.092,0.137,100.0,4.0,,0.0,0.0,
2025-08-15T00:59:48.158Z,3,GR86-049-88,8.0,0.186,0.149,100.02,4.0,,0.0,0.0,
2025-08-15T00:59:48.201Z,3,GR86-049-88,7.800000000000001,0.172,0.132,100.03,4.0,6449.0,0.0,0.0,
2025-08-15T00:59:48.244Z,3,GR86-049-88,7.5,0.142,0.101,100.0,4.0,,0.0,0.0,164.28
2025-08-15T00:59:48.287Z,3,GR86-049-88,7.300000000000001,0.116,0.098,99.99,4.0,,0.0,0.0,
2025-08-15T00:59:48.330Z,3,GR86-049-88,7.2,0.089,0.077,100.0,4.0,,0.0,0.0,
2025-08-15T00:59:48.373Z,3,GR86-049-88,6.800000000000001,0.11,0.052,100.01,4.0,,0.0,0.0,
2025-08-15T00:59:48.416Z,3,GR86-049-88,5.7,0.093,0.045,100.0,4.0,6531.0,0.0,0.0,
2025-08-15T00:59:48.460Z,3,GR86-049-88,3.8,0.149,0.004,100.02,4.0,,0.0,0.0,165.73
2025-08-15T00:59:48.502Z,3,GR86-049-88,3.3000000000000003,0.147,-0.023,100.02,4.0,,0.0,0.0,
2025-08-15T00:59:48.545Z,3,GR86-049-88,3.2,0.12,-0.046,100.01,4.0,,0.0,0.0,
2025-08-15T00:59:48.588Z,3,GR86-049-88,2.1,0.097,-0.072,100.01,4.0,,0.0,0.0,
2025-08-15T00:59:48.631Z,3,GR86-049-88,-0.1,0.103,-0.1,100.0,4.0,6580.0,0.0,0.0,
2025-08-15T00:59:48.674Z,3,GR86-049-88,-1.7000000000000002,0.096,-0.139,99.99,4.0,,0.0,0.0,167.3
2025-08-15T00:59:48.717Z,3,GR86-049-88,-2.3000000000000003,0.102,-0.161,99.99,4.0,,0.0,0.0,
2025-08-15T00:59:48.760Z,3,GR86-049-88,-3.5,0.169,-0.223,100.01,4.0,,0.0,0.0,
2025-08-15T00:59:48.803Z,3,GR86-049-88,-5.0,0.139,-0.272,100.0,4.0,,0.0,0.0,
2025-08-15T00:59:48.846Z,3,GR86-049-88,-6.7,0.128,-0.325,100.0,4.0,6630.0,0.0,0.0,
2025-08-15T00:59:48.889Z,3,GR86-049-88,-8.0,0.105,-0.378,100.01,4.0,,0.0,0.0,168.75
2025-08-15T00:59:48.932Z,3,GR86-049-88,-8.6,0.1,-0.4,100.0,4.0,,0.0,0.0,
2025-08-15T00:59:48.975Z,3,GR86-049-88,-8.6,0.075,-0.431,100.02,4.0,,0.0,0.0,
2025-08-15T00:59:49.020Z,3,GR86-049-88,-8.700000000000001,0.142,-0.453,99.99,4.0,,0.0,0.0,
2025-08-15T00:59:49.063Z,3,GR86-049-88,-8.6,0.154,-0.494,100.02,4.0,6697.0,0.0,0.0,
2025-08-15T00:59:49.106Z,3,GR86-049-88,-8.4,0.148,-0.53,100.01,4.0,,0.0,0.0,170.23
2025-08-15T00:59:49.149Z,3,GR86-049-88,-8.200000000000001,0.142,-0.5650000000000001,99.99,4.0,,0.0,0.0,
2025-08-15T00:59:49.192Z,3,GR86-049-88,-8.0,0.121,-0.553,100.01,4.0,,0.0,0.0,
2025-08-15T00:59:49.235Z,3,GR86-049-88,-7.4,0.112,-0.55,100.0,4.0,,0.0,0.0,
2025-08-15T00:59:49.279Z,3,GR86-049-88,-5.7,0.142,-0.479,99.99,4.0,6750.0,0.0,0.0,
2025-08-15T00:59:49.323Z,3,GR86-049-88,-5.4,0.153,-0.439,100.02,4.0,,0.0,0.0,172.81
2025-08-15T00:59:49.366Z,3,GR86-049-88,-5.4,0.163,-0.415,100.01,4.0,,0.0,0.0,
2025-08-15T00:59:49.409Z,3,GR86-049-88,-5.300000000000001,0.151,-0.381,100.02,4.0,,0.0,0.0,
2025-08-15T00:59:49.452Z,3,GR86-049-88,-5.1000000000000005,0.176,-0.356,99.99,4.0,,0.0,0.0,
2025-08-15T00:59:50.273Z,3,GR86-049-88,-0.1,-0.111,-0.124,2.06,4.0,6819.0,39.615,40.025,
2025-08-15T00:59:50.360Z,3,GR86-049-88,0.3,-0.802,-0.088,2.08,4.0,7048.0,65.39,65.175,
2025-08-15T00:59:50.445Z,3,GR86-049-88,-0.1,-1.519,-0.085,2.15,4.0,,102.105,103.69,
2025-08-15T00:59:50.532Z,3,GR86-049-88,-0.1,-1.611,-0.066,8.17,4.0,,104.47,105.905,179.07
2025-08-15T00:59:50.620Z,3,GR86-049-88,-0.6000000000000001,-1.512,-0.121,23.52,3.0,6796.0,108.745,109.81,180.14
2025-08-15T00:59:50.706Z,3,GR86-049-88,-1.4,-1.422,-0.236,3.98,3.0,,107.46,108.56,
2025-08-15T00:59:50.750Z,3,GR86-049-88,-4.9,-1.239,-0.258,3.5,3.0,,103.875,106.3,
2025-08-15T00:59:50.793Z,3,GR86-049-88,-7.300000000000001,-1.022,-0.469,3.27,3.0,6379.0,96.87,97.815,
2025-08-15T00:59:50.880Z,3,GR86-049-88,-7.7,-1.34,-0.326,3.0500000000000003,3.0,,90.995,92.275,171.05
2025-08-15T00:59:50.965Z,3,GR86-049-88,-8.6,-1.021,-0.434,2.64,3.0,,64.49,65.39,
2025-08-15T00:59:51.139Z,3,GR86-049-88,-14.8,-1.176,-0.494,29.95,2.0,7005.0,80.315,80.83,
2025-08-15T00:59:51.225Z,3,GR86-049-88,-10.8,-1.044,-0.363,2.5,3.0,6869.0,66.93,66.795,157.52
2025-08-15T00:59:51.268Z,3,GR86-049-88,2.1,-1.256,-0.55,3.78,2.0,,91.225,91.805,149.43
2025-08-15T00:59:51.311Z,3,GR86-049-88,0.8,-1.371,-0.221,3.56,2.0,,93.895,95.205,
2025-08-15T00:59:51.354Z,3,GR86-049-88,0.2,-1.255,-0.503,3.34,2.0,,95.27,96.96,
2025-08-15T00:59:51.397Z,3,GR86-049-88,0.4,-1.015,-0.792,3.14,2.0,,93.985,94.87,
2025-08-15T00:59:51.440Z,3,GR86-049-88,3.9,-1.101,-0.391,2.79,2.0,6545.0,95.59,96.96,
2025-08-15T00:59:51.483Z,3,GR86-049-88,4.1000000000000005,-1.12,-0.762,2.66,2.0,,96.49,98.15,146.27
2025-08-15T00:59:51.526Z,3,GR86-049-88,-3.1,-1.054,-0.812,2.58,2.0,,87.745,88.8,
2025-08-15T00:59:51.569Z,3,GR86-049-88,-10.5,-1.001,-0.628,2.5,2.0,,77.855,78.895,
2025-08-15T00:59:51.612Z,3,GR86-049-88,-11.7,-0.912,-0.873,2.48,2.0,,65.74,66.795,
2025-08-15T00:59:51.699Z,3,GR86-049-88,-4.0,-0.897,-0.898,2.45,2.0,7004.0,57.47,58.28,136.57
2025-08-15T00:59:51.741Z,3,GR86-049-88,-11.3,-0.908,-0.764,2.47,2.0,,53.61,53.93,
2025-08-15T00:59:51.828Z,3,GR86-049-88,-29.0,-0.986,-0.8140000000000001,2.47,2.0,,53.395,53.685,
2025-08-15T00:59:51.871Z,3,GR86-049-88,-45.5,-0.834,-0.902,2.45,2.0,6790.0,51.745000000000005,51.96,
2025-08-15T00:59:51.915Z,3,GR86-049-88,-46.2,-0.8190000000000001,-0.835,2.45,2.0,,52.525,52.83,129.13
2025-08-15T00:59:51.959Z,3,GR86-049-88,-45.5,-0.772,-1.019,2.45,2.0,,30.64,31.54,
2025-08-15T00:59:52.001Z,3,GR86-049-88,-38.400000000000006,-0.532,-1.063,2.45,2.0,,12.39,12.865,
2025-08-15T00:59:52.044Z,3,GR86-049-88,-34.0,-0.327,-0.979,2.46,2.0,,2.76,3.28,
2025-08-15T00:59:52.087Z,3,GR86-049-88,-34.1,-0.291,-1.074,2.47,2.0,6762.0,0.0,0.0,
2025-08-15T00:59:52.130Z,3,GR86-049-88,-39.3,-0.246,-1.074,2.46,2.0,,0.0,0.0,118.6
2025-08-15T00:59:52.173Z,3,GR86-049-88,-44.0,-0.17,-1.064,2.46,2.0,,0.0,0.0,
2025-08-15T00:59:52.216Z,3,GR86-049-88,-48.900000000000006,-0.2,-1.219,2.46,2.0,,0.0,0.0,
2025-08-15T00:59:52.260Z,3,GR86-049-88,-50.5,-0.217,-1.177,2.46,2.0,,0.0,0.0,
2025-08-15T00:59:52.303Z,3,GR86-049-88,-50.6,-0.207,-1.205,2.47,2.0,6415.0,0.0,0.0,
2025-08-15T00:59:52.346Z,3,GR86-049-88,-50.6,-0.223,-1.242,2.46,2.0,,0.0,0.0,115.76
2025-08-15T00:59:52.389Z,3,GR86-049-88,-51.1,-0.225,-1.259,2.46,2.0,,0.0,0.0,
2025-08-15T00:59:52.432Z,3,GR86-049-88,-51.2,-0.206,-1.224,2.46,2.0,,0.0,0.0,
2025-08-15T00:59:52.475Z,3,GR86-049-88,-51.2,-0.219,-1.293,2.46,2.0,,0.0,0.0,
2025-08-15T00:59:52.520Z,3,GR86-049-88,-51.2,-0.226,-1.291,2.46,2.0,6320.0,0.0,0.0,
2025-08-15T00:59:52.563Z,3,GR86-049-88,-51.2,-0.215,-1.278,2.9,2.0,,0.0,0.0,114.26
2025-08-15T00:59:52.606Z,3,GR86-049-88,-51.2,-0.212,-1.273,4.5600000000000005,2.0,,0.0,0.0,
2025-08-15T00:59:52.650Z,3,GR86-049-88,-51.2,-0.221,-1.288,4.78,2.0,,0.0,0.0,
2025-08-15T00:59:52.693Z,3,GR86-049-88,-51.2,-0.213,-1.356,6.22,2.0,,0.0,0.0,
2025-08-15T00:59:52.736Z,3,GR86-049-88,-51.0,-0.213,-1.37,6.61,2.0,6218.0,0.0,0.0,
2025-08-15T00:59:52.780Z,3,GR86-049-88,-50.2,-0.212,-1.395,10.89,2.0,,0.0,0.0,113.26
2025-08-15T00:59:52.823Z,3,GR86-049-88,-48.1,-0.204,-1.42,17.32,2.0,,0.0,0.0,
2025-08-15T00:59:52.866Z,3,GR86-049-88,-44.5,-0.202,-1.439,19.4,2.0,,0.0,0.0,
2025-08-15T00:59:52.909Z,3,GR86-049-88,-37.5,-0.165,-1.382,20.68,2.0,,0.0,0.0,
2025-08-15T00:59:52.952Z,3,GR86-049-88,-28.1,-0.161,-1.424,21.96,2.0,6117.0,0.0,0.0,
2025-08-15T00:59:52.995Z,3,GR86-049-88,-17.900000000000002,-0.117,-1.338,23.49,2.0,,0.0,0.0,111.7
2025-08-15T00:59:53.039Z,3,GR86-049-88,-9.6,-0.102,-1.332,31.4,2.0,,0.0,0.0,
2025-08-15T00:59:53.082Z,3,GR86-049-88,-9.3,0.022,-1.302,32.36,2.0,,0.0,0.0,
2025-08-15T00:59:53.125Z,3,GR86-049-88,-12.8,0.136,-1.259,34.62,2.0,,0.0,0.0,
2025-08-15T00:59:53.168Z,3,GR86-049-88,-18.5,0.118,-1.3,39.93,2.0,6031.0,0.0,0.0,
2025-08-15T00:59:53.211Z,3,GR86-049-88,-23.8,0.137,-1.293,60.44,2.0,,0.0,0.0,110.11
2025-08-15T00:59:53.254Z,3,GR86-049-88,-23.200000000000003,0.153,-1.276,96.53,2.0,,0.0,0.0,
2025-08-15T00:59:53.297Z,3,GR86-049-88,-17.2,0.17,-1.221,100.14,2.0,,0.0,0.0,
2025-08-15T00:59:53.383Z,3,GR86-049-88,-13.1,0.243,-1.216,100.17,2.0,6334.0,0.0,0.0,
2025-08-15T00:59:53.426Z,3,GR86-049-88,-39.6,0.169,-1.159,100.18,2.0,,0.0,0.0,108.56
2025-08-15T00:59:53.469Z,3,GR86-049-88,-50.400000000000006,0.167,-1.142,100.16,2.0,,0.0,0.0,
2025-08-15T00:59:53.512Z,3,GR86-049-88,-60.8,0.202,-1.209,100.16,2.0,,0.0,0.0,
2025-08-15T00:59:53.555Z,3,GR86-049-88,-62.900000000000006,0.276,-1.073,100.15,2.0,,0.0,0.0,
2025-08-15T00:59:53.599Z,3,GR86-049-88,-68.4,0.073,-1.004,100.18,2.0,6427.0,0.0,0.0,
2025-08-15T00:59:53.641Z,3,GR86-049-88,-73.10000000000001,0.061,-1.066,100.16,2.0,,0.0,0.0,107.57
2025-08-15T00:59:53.684Z,3,GR86-049-88,-75.60000000000001,0.067,-1.152,100.16,2.0,,0.0,0.0,
2025-08-15T00:59:53.770Z,3,GR86-049-88,-76.7,0.283,-1.021,100.16,2.0,,0.0,0.0,
2025-08-15T00:59:53.813Z,3,GR86-049-88,-77.0,0.371,-1.054,100.16,2.0,6495.0,0.0,0.0,
2025-08-15T00:59:53.856Z,3,GR86-049-88,-77.10000000000001,0.275,-1.052,100.15,2.0,,0.0,0.0,107.72
2025-08-15T00:59:53.900Z,3,GR86-049-88,-76.80000000000001,0.26,-1.314,100.12,2.0,,0.0,0.0,
2025-08-15T00:59:53.943Z,3,GR86-049-88,-72.7,0.346,-1.239,100.15,2.0,,0.0,0.0,
2025-08-15T00:59:53.986Z,3,GR86-049-88,-61.8,0.203,-1.206,100.14,2.0,,0.0,0.0,
2025-08-15T00:59:54.030Z,3,GR86-049-88,-48.900000000000006,0.168,-1.181,100.14,2.0,6481.0,0.0,0.0,
2025-08-15T00:59:54.072Z,3,GR86-049-88,-45.1,0.232,-1.201,100.12,2.0,,0.0,0.0,107.89
2025-08-15T00:59:54.115Z,3,GR86-049-88,-45.1,0.228,-1.06,100.14,2.0,,0.0,0.0,
2025-08-15T00:59:54.158Z,3,GR86-049-88,-45.8,0.187,-1.108,100.12,2.0,,0.0,0.0,
2025-08-15T00:59:54.201Z,3,GR86-049-88,-46.2,0.187,-1.008,100.15,2.0,,0.0,0.0,
2025-08-15T00:59:54.244Z,3,GR86-049-88,-48.1,0.175,-1.158,100.15,2.0,6613.0,0.0,0.0,
2025-08-15T00:59:54.287Z,3,GR86-049-88,-49.6,0.223,-1.144,100.15,2.0,,0.0,0.0,109.16
2025-08-15T00:59:54.330Z,3,GR86-049-88,-50.400000000000006,0.219,-1.165,100.11,2.0,,0.0,0.0,
2025-08-15T00:59:54.416Z,3,GR86-049-88,-50.400000000000006,0.2,-1.114,100.11,2.0,,0.0,0.0,
2025-08-15T00:59:54.460Z,3,GR86-049-88,-49.5,0.185,-1.139,100.13,2.0,6576.0,0.0,0.0,
2025-08-15T00:59:54.502Z,3,GR86-049-88,-48.400000000000006,0.215,-1.239,100.12,2.0,,0.0,0.0,111.17
2025-08-15T00:59:54.545Z,3,GR86-049-88,-46.7,0.218,-1.295,100.1,2.0,,0.0,0.0,
2025-08-15T00:59:54.631Z,3,GR86-049-88,-45.8,0.187,-1.269,100.1,2.0,,0.0,0.0,
2025-08-15T00:59:54.674Z,3,GR86-049-88,-44.5,0.232,-1.199,100.1,2.0,6649.0,0.0,0.0,
2025-08-15T00:59:54.717Z,3,GR86-049-88,-44.5,0.219,-1.108,100.09,2.0,,0.0,0.0,112.45
2025-08-15T00:59:54.760Z,3,GR86-049-88,-44.5,0.166,-1.049,100.07,2.0,,0.0,0.0,
2025-08-15T00:59:54.803Z,3,GR86-049-88,-45.0,0.173,-1.101,100.08,2.0,,0.0,0.0,
2025-08-15T00:59:54.846Z,3,GR86-049-88,-48.1,0.208,-1.128,100.08,2.0,,0.0,0.0,
2025-08-15T00:59:54.890Z,3,GR86-049-88,-52.0,0.227,-1.162,100.09,2.0,6732.0,0.0,0.0,
2025-08-15T00:59:54.933Z,3,GR86-049-88,-53.400000000000006,0.17,-1.104,100.08,2.0,,0.0,0.0,115.24
2025-08-15T00:59:54.976Z,3,GR86-049-88,-53.400000000000006,0.12,-1.135,100.07,2.0,,0.0,0.0,
2025-08-15T00:59:55.020Z,3,GR86-049-88,-47.5,0.16,-1.162,100.05,2.0,,0.0,0.0,
2025-08-15T00:59:55.063Z,3,GR86-049-88,-43.7,0.24,-1.114,100.08,2.0,,0.0,0.0,
2025-08-15T00:59:55.106Z,3,GR86-049-88,-37.3,0.247,-1.127,100.07,2.0,6748.0,0.0,0.0,
2025-08-15T00:59:55.149Z,3,GR86-049-88,-34.0,0.198,-1.074,100.04,2.0,,0.0,0.0,115.6
2025-08-15T00:59:55.192Z,3,GR86-049-88,-31.6,0.195,-1.123,100.07,2.0,,0.0,0.0,
2025-08-15T00:59:55.279Z,3,GR86-049-88,-31.200000000000003,0.209,-1.172,100.07,2.0,,0.0,0.0,
2025-08-15T00:59:55.323Z,3,GR86-049-88,-33.300000000000004,0.22,-1.201,100.07,2.0,6993.0,0.0,0.0,
2025-08-15T00:59:55.366Z,3,GR86-049-88,-35.9,0.231,-1.253,100.07,2.0,,0.0,0.0,116.96
2025-08-15T00:59:55.409Z,3,GR86-049-88,-38.8,0.216,-1.185,100.05,2.0,,0.0,0.0,
2025-08-15T00:59:55.452Z,3,GR86-049-88,-44.400000000000006,0.2,-1.173,100.07,2.0,,0.0,0.0,
2025-08-15T00:59:55.495Z,3,GR86-049-88,-47.900000000000006,0.172,-1.198,100.06,2.0,,0.0,0.0,
2025-08-15T00:59:55.539Z,3,GR86-049-88,-47.6,0.145,-1.229,100.05,2.0,7044.0,0.0,0.0,
2025-08-15T00:59:55.581Z,3,GR86-049-88,-44.6,0.218,-1.356,100.05,2.0,,0.0,0.0,118.52
2025-08-15T00:59:55.624Z,3,GR86-049-88,-38.5,0.265,-1.287,100.04,2.0,,0.0,0.0,
2025-08-15T00:59:55.667Z,3,GR86-049-88,-34.1,0.374,-1.046,100.05,2.0,,0.0,0.0,
2025-08-15T00:59:55.710Z,3,GR86-049-88,-32.5,0.305,-0.924,100.03,2.0,,0.0,0.0,
2025-08-15T00:59:55.796Z,3,GR86-049-88,-31.700000000000003,0.234,-1.076,100.03,2.0,7076.0,0.0,0.0,119.64
2025-08-15T00:59:55.840Z,3,GR86-049-88,-23.3,0.217,-1.121,100.04,2.0,,0.0,0.0,
2025-08-15T00:59:55.883Z,3,GR86-049-88,-19.6,0.294,-0.964,100.04,2.0,,0.0,0.0,
2025-08-15T00:59:55.926Z,3,GR86-049-88,-17.400000000000002,0.255,-1.125,100.04,2.0,,0.0,0.0,
2025-08-15T00:59:55.970Z,3,GR86-049-88,-17.1,0.253,-0.997,100.03,2.0,7082.0,0.0,0.0,
2025-08-15T00:59:56.056Z,3,GR86-049-88,-18.2,0.299,-0.993,100.04,2.0,,0.0,0.0,121.05
2025-08-15T00:59:56.100Z,3,GR86-049-88,-18.9,0.072,-0.619,100.04,2.0,,0.0,0.0,
2025-08-15T00:59:56.143Z,3,GR86-049-88,-20.3,-0.083,-0.8,100.03,3.0,,0.0,0.0,
2025-08-15T00:59:56.186Z,3,GR86-049-88,-24.9,-0.22,-0.6890000000000001,100.04,3.0,7208.0,0.0,0.0,
2025-08-15T00:59:56.230Z,3,GR86-049-88,-27.1,0.491,-0.944,100.01,3.0,,0.0,0.0,121.2
2025-08-15T00:59:56.273Z,3,GR86-049-88,-26.6,0.331,-1.112,100.01,3.0,,0.0,0.0,
2025-08-15T00:59:56.360Z,3,GR86-049-88,-22.700000000000003,0.489,-0.8300000000000001,100.01,3.0,,0.0,0.0,
2025-08-15T00:59:56.403Z,3,GR86-049-88,-10.6,-0.029,-0.708,100.04,3.0,7262.0,0.0,0.0,
2025-08-15T00:59:56.446Z,3,GR86-049-88,-10.1,0.047,-0.582,100.04,3.0,,0.0,0.0,123.0
2025-08-15T00:59:56.489Z,3,GR86-049-88,-10.7,0.248,-0.643,100.04,3.0,,0.0,0.0,
2025-08-15T00:59:56.532Z,3,GR86-049-88,-11.3,0.105,-0.8180000000000001,100.03,3.0,,0.0,0.0,
2025-08-15T00:59:56.575Z,3,GR86-049-88,-11.3,0.188,-0.716,100.03,3.0,,0.0,0.0,
2025-08-15T00:59:56.620Z,3,GR86-049-88,-8.8,0.214,-0.649,100.01,3.0,5938.0,0.0,0.0,
2025-08-15T00:59:56.663Z,3,GR86-049-88,-7.2,0.129,-0.65,100.03,3.0,,0.0,0.0,124.27
2025-08-15T00:59:56.706Z,3,GR86-049-88,-6.1000000000000005,0.27,-0.288,100.0,3.0,,0.0,0.0,
2025-08-15T00:59:56.793Z,3,GR86-049-88,-2.3000000000000003,0.089,-0.614,100.02,3.0,,0.0,0.0,
2025-08-15T00:59:56.836Z,3,GR86-049-88,5.0,0.294,-0.267,100.0,3.0,5996.0,0.0,0.0,
2025-08-15T00:59:56.880Z,3,GR86-049-88,5.800000000000001,0.029,0.046,100.01,3.0,,0.0,0.0,125.65
2025-08-15T00:59:56.922Z,3,GR86-049-88,7.1000000000000005,0.118,0.025,100.01,3.0,,0.0,0.0,
2025-08-15T00:59:56.965Z,3,GR86-049-88,8.3,0.155,-0.012,100.01,3.0,,0.0,0.0,
2025-08-15T00:59:57.008Z,3,GR86-049-88,9.0,0.278,0.109,100.01,3.0,,0.0,0.0,
2025-08-15T00:59:57.051Z,3,GR86-049-88,9.1,0.237,-0.022,100.01,3.0,6013.0,0.0,0.0,
2025-08-15T00:59:57.094Z,3,GR86-049-88,9.0,0.097,0.095,100.0,3.0,,0.0,0.0,127.4
2025-08-15T00:59:57.137Z,3,GR86-049-88,8.9,0.176,0.257,100.0,3.0,,0.0,0.0,
2025-08-15T00:59:57.180Z,3,GR86-049-88,8.9,0.196,0.217,100.02,3.0,,0.0,0.0,
2025-08-15T00:59:57.223Z,3,GR86-049-88,8.9,0.257,0.313,100.01,3.0,,0.0,0.0,
2025-08-15T00:59:57.266Z,3,GR86-049-88,8.9,0.275,0.238,99.99,3.0,6121.0,0.0,0.0,
2025-08-15T00:59:57.309Z,3,GR86-049-88,8.8,0.166,0.168,99.99,3.0,,0.0,0.0,128.36
2025-08-15T00:59:57.352Z,3,GR86-049-88,8.700000000000001,0.16,0.176,100.0,3.0,,0.0,0.0,
2025-08-15T00:59:57.395Z,3,GR86-049-88,8.5,0.227,0.14,100.0,3.0,,0.0,0.0,
2025-08-15T00:59:57.439Z,3,GR86-049-88,8.5,0.183,0.128,99.99,3.0,,0.0,0.0,
2025-08-15T00:59:57.481Z,3,GR86-049-88,8.5,0.259,0.054,100.0,3.0,6125.0,0.0,0.0,
2025-08-15T00:59:57.525Z,3,GR86-049-88,8.5,0.18,0.043,100.01,3.0,,0.0,0.0,131.55
2025-08-15T00:59:57.568Z,3,GR86-049-88,8.5,0.156,0.043,100.01,3.0,,0.0,0.0,
2025-08-15T00:59:57.654Z,3,GR86-049-88,8.5,0.241,0.023,100.01,3.0,,0.0,0.0,
2025-08-15T00:59:57.697Z,3,GR86-049-88,8.5,0.166,-0.003,100.0,3.0,6176.0,0.0,0.0,
2025-08-15T00:59:57.740Z,3,GR86-049-88,8.5,0.214,0.013,99.99,3.0,,0.0,0.0,133.04
2025-08-15T00:59:57.783Z,3,GR86-049-88,8.5,0.145,0.056,99.99,3.0,,0.0,0.0,
2025-08-15T00:59:57.869Z,3,GR86-049-88,8.5,0.249,0.079,100.0,3.0,,0.0,0.0,
2025-08-15T00:59:57.913Z,3,GR86-049-88,8.5,0.205,0.044,100.02,3.0,6246.0,0.0,0.0,
2025-08-15T00:59:57.955Z,3,GR86-049-88,8.5,0.153,0.061,100.0,3.0,,0.0,0.0,134.36
2025-08-15T00:59:57.999Z,3,GR86-049-88,8.5,0.144,0.025,100.02,3.0,,0.0,0.0,
2025-08-15T00:59:58.041Z,3,GR86-049-88,8.5,0.158,0.068,100.0,3.0,,0.0,0.0,
2025-08-15T00:59:58.084Z,3,GR86-049-88,8.4,0.252,0.078,99.99,3.0,,0.0,0.0,
2025-08-15T00:59:58.127Z,3,GR86-049-88,8.4,0.259,0.025,100.01,3.0,6380.0,0.0,0.0,
2025-08-15T00:59:58.170Z,3,GR86-049-88,8.3,0.16,0.008,100.0,3.0,,0.0,0.0,135.79
2025-08-15T00:59:58.213Z,3,GR86-049-88,8.3,0.146,0.028,100.0,3.0,,0.0,0.0,
2025-08-15T00:59:58.300Z,3,GR86-049-88,8.3,0.235,0.058,100.01,3.0,,0.0,0.0,
2025-08-15T00:59:58.342Z,3,GR86-049-88,8.3,0.279,0.06,99.99,3.0,6449.0,0.0,0.0,
2025-08-15T00:59:58.385Z,3,GR86-049-88,8.3,0.211,0.026,100.01,3.0,,0.0,0.0,137.25
2025-08-15T00:59:58.428Z,3,GR86-049-88,8.3,0.125,-0.009,100.0,3.0,,0.0,0.0,
2025-08-15T00:59:58.471Z,3,GR86-049-88,8.3,0.177,0.068,100.0,3.0,,0.0,0.0,
2025-08-15T00:59:58.515Z,3,GR86-049-88,8.3,0.264,0.072,100.01,3.0,,0.0,0.0,
2025-08-15T00:59:58.558Z,3,GR86-049-88,8.3,0.197,0.074,100.0,3.0,6505.0,0.0,0.0,
2025-08-15T00:59:58.601Z,3,GR86-049-88,8.1,0.26,0.058,100.0,3.0,,0.0,0.0,138.61
2025-08-15T00:59:58.644Z,3,GR86-049-88,7.6,0.232,0.011,99.99,3.0,,0.0,0.0,
2025-08-15T00:59:58.730Z,3,GR86-049-88,7.0,0.133,-0.001,100.01,3.0,,0.0,0.0,
2025-08-15T00:59:58.773Z,3,GR86-049-88,6.2,0.216,0.052,100.01,3.0,6562.0,0.0,0.0,
2025-08-15T00:59:58.816Z,3,GR86-049-88,5.9,0.269,-0.013,100.01,3.0,,0.0,0.0,139.95000000000002
2025-08-15T00:59:58.859Z,3,GR86-049-88,5.6000000000000005,0.257,-0.008,100.01,3.0,,0.0,0.0,
2025-08-15T00:59:58.902Z,3,GR86-049-88,5.6000000000000005,0.231,-0.088,100.01,3.0,,0.0,0.0,
2025-08-15T00:59:58.945Z,3,GR86-049-88,5.6000000000000005,0.147,-0.085,100.01,3.0,,0.0,0.0,
2025-08-15T00:59:58.988Z,3,GR86-049-88,5.6000000000000005,0.134,-0.08,100.0,3.0,6617.0,0.0,0.0,
2025-08-15T00:59:59.031Z,3,GR86-049-88,5.6000000000000005,0.197,-0.024,100.0,3.0,,0.0,0.0,141.37
2025-08-15T00:59:59.074Z,3,GR86-049-88,5.6000000000000005,0.262,-0.014,100.01,3.0,,0.0,0.0,
2025-08-15T00:59:59.160Z,3,GR86-049-88,5.800000000000001,0.243,0.017,100.0,3.0,,0.0,0.0,
2025-08-15T00:59:59.203Z,3,GR86-049-88,5.800000000000001,0.21,-0.014,99.99,3.0,6678.0,0.0,0.0,
2025-08-15T00:59:59.246Z,3,GR86-049-88,5.800000000000001,0.143,-0.018,99.99,3.0,,0.0,0.0,142.71
2025-08-15T00:59:59.289Z,3,GR86-049-88,5.800000000000001,0.151,0.015,99.99,3.0,,0.0,0.0,
2025-08-15T00:59:59.332Z,3,GR86-049-88,5.800000000000001,0.198,0.018,100.0,3.0,,0.0,0.0,
2025-08-15T00:59:59.375Z,3,GR86-049-88,5.800000000000001,0.247,0.03,100.0,3.0,,0.0,0.0,
2025-08-15T00:59:59.420Z,3,GR86-049-88,5.9,0.205,0.046,100.01,3.0,6747.0,0.0,0.0,
2025-08-15T00:59:59.463Z,3,GR86-049-88,6.0,0.247,0.034,99.99,3.0,,0.0,0.0,144.1
2025-08-15T00:59:59.506Z,3,GR86-049-88,6.0,0.217,-0.008,100.01,3.0,,0.0,0.0,
2025-08-15T00:59:59.593Z,3,GR86-049-88,6.0,0.142,-0.028,100.0,3.0,,0.0,0.0,
2025-08-15T00:59:59.636Z,3,GR86-049-88,6.0,0.193,0.033,100.0,3.0,6798.0,0.0,0.0,
2025-08-15T00:59:59.680Z,3,GR86-049-88,6.0,0.138,0.004,100.01,3.0,,0.0,0.0,145.41
2025-08-15T00:59:59.723Z,3,GR86-049-88,6.0,0.181,0.018,99.99,3.0,,0.0,0.0,
2025-08-15T00:59:59.766Z,3,GR86-049-88,6.0,0.215,0.021,100.0,3.0,,0.0,0.0,
2025-08-15T00:59:59.809Z,3,GR86-049-88,6.0,0.225,-0.012,100.0,3.0,,0.0,0.0,
2025-08-15T00:59:59.852Z,3,GR86-049-88,5.800000000000001,0.183,-0.07,100.0,3.0,6856.0,0.0,0.0,
2025-08-15T00:59:59.895Z,3,GR86-049-88,5.6000000000000005,0.136,-0.062,99.99,3.0,,0.0,0.0,146.69
2025-08-15T00:59:59.939Z,3,GR86-049-88,5.6000000000000005,0.177,-0.058,100.0,3.0,,0.0,0.0,
2025-08-15T00:59:59.982Z,3,GR86-049-88,5.5,0.13,-0.057,100.0,3.0,,0.0,0.0,
2025-08-15T01:00:00.025Z,3,GR86-049-88,5.4,0.142,-0.047,99.99,3.0,,0.0,0.0,
2025-08-15T01:00:00.068Z,3,GR86-049-88,5.300000000000001,0.182,-0.043,100.0,3.0,6917.0,0.0,0.0,
2025-08-15T01:00:00.111Z,3,GR86-049-88,5.2,0.23,-0.026,100.01,3.0,,0.0,0.0,147.9
2025-08-15T01:00:00.154Z,3,GR86-049-88,5.1000000000000005,0.187,-0.055,100.0,3.0,,0.0,0.0,
2025-08-15T01:00:00.197Z,3,GR86-049-88,5.0,0.154,-0.096,100.0,3.0,,0.0,0.0,
2025-08-15T01:00:00.240Z,3,GR86-049-88,5.0,0.221,-0.053,100.01,3.0,,0.0,0.0,
2025-08-15T01:00:00.283Z,3,GR86-049-88,4.9,0.18,-0.079,100.02,3.0,6972.0,0.0,0.0,
2025-08-15T01:00:00.326Z,3,GR86-049-88,4.9,0.144,-0.079,100.02,3.0,,0.0,0.0,150.38
2025-08-15T01:00:00.369Z,3,GR86-049-88,4.9,0.131,-0.079,99.99,3.0,,0.0,0.0,
2025-08-15T01:00:00.412Z,3,GR86-049-88,4.9,0.166,-0.048,100.01,3.0,,0.0,0.0,
2025-08-15T01:00:00.455Z,3,GR86-049-88,4.9,0.205,-0.04,99.99,3.0,,0.0,0.0,
2025-08-15T01:00:00.499Z,3,GR86-049-88,5.0,0.132,-0.029,100.01,3.0,7025.0,0.0,0.0,
2025-08-15T01:00:00.541Z,3,GR86-049-88,5.0,0.173,-0.005,100.01,3.0,,0.0,0.0,151.51
2025-08-15T01:00:00.584Z,3,GR86-049-88,5.0,0.203,0.009,99.99,3.0,,0.0,0.0,
2025-08-15T01:00:00.670Z,3,GR86-049-88,5.1000000000000005,0.183,-0.02,99.99,3.0,,0.0,0.0,
2025-08-15T01:00:00.713Z,3,GR86-049-88,5.1000000000000005,0.124,-0.037,99.99,3.0,7077.0,0.0,0.0,
2025-08-15T01:00:00.756Z,3,GR86-049-88,5.1000000000000005,0.123,-0.039,99.99,3.0,,0.0,0.0,152.70000000000002
2025-08-15T01:00:00.800Z,3,GR86-049-88,5.1000000000000005,0.141,-0.069,100.0,3.0,,0.0,0.0,
2025-08-15T01:00:00.843Z,3,GR86-049-88,5.1000000000000005,0.131,-0.039,99.99,3.0,,0.0,0.0,
2025-08-15T01:00:00.886Z,3,GR86-049-88,5.1000000000000005,0.144,-0.043,100.0,3.0,,0.0,0.0,
2025-08-15T01:00:00.929Z,3,GR86-049-88,5.1000000000000005,0.173,-0.02,99.99,3.0,7196.0,0.0,0.0,
2025-08-15T01:00:00.972Z,3,GR86-049-88,5.1000000000000005,0.204,-0.033,100.0,3.0,,0.0,0.0,153.83
2025-08-15T01:00:01.015Z,3,GR86-049-88,5.1000000000000005,-0.081,-0.048,99.99,4.0,,0.0,0.0,
2025-08-15T01:00:01.058Z,3,GR86-049-88,5.1000000000000005,0.495,-0.006,99.98,4.0,,0.0,0.0,
2025-08-15T01:00:01.101Z,3,GR86-049-88,5.2,0.295,-0.094,99.98,4.0,,0.0,0.0,
2025-08-15T01:00:01.144Z,3,GR86-049-88,5.2,0.259,0.018,99.98,4.0,7246.0,0.0,0.0,
2025-08-15T01:00:01.187Z,3,GR86-049-88,5.2,0.021,0.002,100.0,4.0,,0.0,0.0,154.89
2025-08-15T01:00:01.230Z,3,GR86-049-88,5.2,0.07,-0.113,99.99,4.0,,0.0,0.0,
2025-08-15T01:00:01.273Z,3,GR86-049-88,5.2,0.142,0.018,99.99,4.0,,0.0,0.0,
2025-08-15T01:00:01.316Z,3,GR86-049-88,5.2,0.169,0.016,100.0,4.0,,0.0,0.0,
2025-08-15T01:00:01.360Z,3,GR86-049-88,5.2,0.094,0.0,100.0,4.0,6209.0,0.0,0.0,
2025-08-15T01:00:01.402Z,3,GR86-049-88,5.2,0.087,0.016,99.99,4.0,,0.0,0.0,155.82
2025-08-15T01:00:01.446Z,3,GR86-049-88,5.2,0.132,-0.014,100.0,4.0,,0.0,0.0,
2025-08-15T01:00:01.489Z,3,GR86-049-88,5.2,0.158,0.025,100.0,4.0,,0.0,0.0,
2025-08-15T01:00:01.532Z,3,GR86-049-88,5.2,0.173,0.019,99.99,4.0,,0.0,0.0,
2025-08-15T01:00:01.575Z,3,GR86-049-88,5.300000000000001,0.188,0.011,99.99,4.0,6155.0,0.0,0.0,
2025-08-15T01:00:01.620Z,3,GR86-049-88,5.300000000000001,0.136,0.021,100.0,4.0,,0.0,0.0,157.04
2025-08-15T01:00:01.663Z,3,GR86-049-88,5.300000000000001,0.165,0.011,100.0,4.0,,0.0,0.0,
2025-08-15T01:00:01.706Z,3,GR86-049-88,5.300000000000001,0.196,-0.011,100.0,4.0,,0.0,0.0,
2025-08-15T01:00:01.749Z,3,GR86-049-88,5.300000000000001,0.178,-0.016,99.99,4.0,,0.0,0.0,
2025-08-15T01:00:01.792Z,3,GR86-049-88,5.2,0.158,-0.021,99.99,4.0,6207.0,0.0,0.0,
2025-08-15T01:00:01.835Z,3,GR86-049-88,5.2,0.108,-0.033,99.99,4.0,,0.0,0.0,158.06
2025-08-15T01:00:01.879Z,3,GR86-049-88,5.2,0.167,0.024,100.01,4.0,,0.0,0.0,
2025-08-15T01:00:01.923Z,3,GR86-049-88,5.2,0.182,-0.01,100.0,4.0,,0.0,0.0,
2025-08-15T01:00:01.966Z,3,GR86-049-88,5.2,0.142,-0.023,99.99,4.0,,0.0,0.0,
2025-08-15T01:00:02.009Z,3,GR86-049-88,5.2,0.115,-0.044,99.97,4.0,6248.0,0.0,0.0,
2025-08-15T01:00:02.052Z,3,GR86-049-88,5.2,0.075,-0.035,100.0,4.0,,0.0,0.0,159.08
2025-08-15T01:00:02.095Z,3,GR86-049-88,5.1000000000000005,0.099,-0.029,99.99,4.0,,0.0,0.0,
2025-08-15T01:00:02.139Z,3,GR86-049-88,5.1000000000000005,0.126,-0.059,100.01,4.0,,0.0,0.0,
2025-08-15T01:00:02.181Z,3,GR86-049-88,5.1000000000000005,0.094,-0.08,99.99,4.0,,0.0,0.0,
2025-08-15T01:00:02.224Z,3,GR86-049-88,5.0,0.085,-0.074,100.0,4.0,6291.0,0.0,0.0,
2025-08-15T01:00:02.267Z,3,GR86-049-88,4.9,0.096,-0.045,99.99,4.0,,0.0,0.0,160.04
2025-08-15T01:00:02.310Z,3,GR86-049-88,4.9,0.131,-0.074,100.01,4.0,,0.0,0.0,
2025-08-15T01:00:02.353Z,3,GR86-049-88,4.800000000000001,0.164,-0.057,99.99,4.0,,0.0,0.0,
2025-08-15T01:00:02.396Z,3,GR86-049-88,4.7,0.185,-0.073,100.0,4.0,,0.0,0.0,
2025-08-15T01:00:02.440Z,3,GR86-049-88,4.6000000000000005,0.094,-0.082,99.99,4.0,6324.0,0.0,0.0,
2025-08-15T01:00:02.482Z,3,GR86-049-88,4.6000000000000005,0.121,-0.078,100.0,4.0,,0.0,0.0,160.94
2025-08-15T01:00:02.525Z,3,GR86-049-88,4.6000000000000005,0.152,-0.063,100.0,4.0,,0.0,0.0,
2025-08-15T01:00:02.611Z,3,GR86-049-88,4.6000000000000005,0.18,-0.067,100.0,4.0,,0.0,0.0,
2025-08-15T01:00:02.655Z,3,GR86-049-88,4.5,0.176,-0.093,100.0,4.0,6372.0,0.0,0.0,
2025-08-15T01:00:02.699Z,3,GR86-049-88,3.7,0.137,-0.078,100.0,4.0,,0.0,0.0,161.81
2025-08-15T01:00:02.743Z,3,GR86-049-88,2.7,0.179,-0.096,100.02,4.0,,0.0,0.0,
2025-08-15T01:00:02.786Z,3,GR86-049-88,2.1,0.178,-0.104,99.99,4.0,,0.0,0.0,
2025-08-15T01:00:02.830Z,3,GR86-049-88,2.0,0.186,-0.126,100.02,4.0,,0.0,0.0,
2025-08-15T01:00:02.873Z,3,GR86-049-88,1.8,0.158,-0.167,100.03,4.0,6402.0,0.0,0.0,
2025-08-15T01:00:02.916Z,3,GR86-049-88,1.7000000000000002,0.15,-0.169,99.99,4.0,,0.0,0.0,162.77
2025-08-15T01:00:02.960Z,3,GR86-049-88,1.5,0.173,-0.149,99.99,4.0,,0.0,0.0,
2025-08-15T01:00:03.003Z,3,GR86-049-88,1.5,0.173,-0.155,100.0,4.0,,0.0,0.0,
2025-08-15T01:00:03.046Z,3,GR86-049-88,1.5,0.174,-0.162,100.0,4.0,,0.0,0.0,
2025-08-15T01:00:03.089Z,3,GR86-049-88,1.5,0.164,-0.182,100.0,4.0,6434.0,0.0,0.0,
2025-08-15T01:00:03.132Z,3,GR86-049-88,1.5,0.14,-0.2,100.0,4.0,,0.0,0.0,164.63
2025-08-15T01:00:03.175Z,3,GR86-049-88,1.5,0.098,-0.215,99.99,4.0,,0.0,0.0,
2025-08-15T01:00:03.220Z,3,GR86-049-88,1.5,0.17,-0.168,100.0,4.0,,0.0,0.0,
2025-08-15T01:00:03.263Z,3,GR86-049-88,1.2000000000000002,0.178,-0.173,100.0,4.0,,0.0,0.0,
2025-08-15T01:00:03.306Z,3,GR86-049-88,0.9,0.185,-0.189,100.01,4.0,6479.0,0.0,0.0,
2025-08-15T01:00:03.350Z,3,GR86-049-88,0.7000000000000001,0.145,-0.208,100.0,4.0,,0.0,0.0,165.58
2025-08-15T01:00:03.393Z,3,GR86-049-88,0.6000000000000001,0.115,-0.214,100.0,4.0,,0.0,0.0,
2025-08-15T01:00:03.436Z,3,GR86-049-88,0.5,0.096,-0.195,99.99,4.0,,0.0,0.0,
2025-08-15T01:00:03.480Z,3,GR86-049-88,0.5,0.176,-0.18,100.0,4.0,,0.0,0.0,
2025-08-15T01:00:03.523Z,3,GR86-049-88,0.4,0.192,-0.194,100.0,4.0,6548.0,0.0,0.0,
2025-08-15T01:00:03.566Z,3,GR86-049-88,0.4,0.165,-0.236,99.99,4.0,,0.0,0.0,166.61
2025-08-15T01:00:03.609Z,3,GR86-049-88,0.3,0.134,-0.247,100.01,4.0,,0.0,0.0,
2025-08-15T01:00:03.652Z,3,GR86-049-88,0.1,0.111,-0.251,100.0,4.0,,0.0,0.0,
2025-08-15T01:00:03.695Z,3,GR86-049-88,-0.3,0.08,-0.249,100.0,4.0,,0.0,0.0,
2025-08-15T01:00:03.739Z,3,GR86-049-88,-1.0,0.191,-0.229,99.99,4.0,6594.0,0.0,0.0,
2025-08-15T01:00:03.781Z,3,GR86-049-88,-1.4,0.175,-0.245,100.0,4.0,,0.0,0.0,167.54
2025-08-15T01:00:03.825Z,3,GR86-049-88,-1.6,0.177,-0.263,99.99,4.0,,0.0,0.0,
2025-08-15T01:00:03.868Z,3,GR86-049-88,-1.7000000000000002,0.14,-0.273,100.0,4.0,,0.0,0.0,
2025-08-15T01:00:03.910Z,3,GR86-049-88,-1.8,0.142,-0.307,100.0,4.0,,0.0,0.0,
2025-08-15T01:00:03.953Z,3,GR86-049-88,-1.8,0.101,-0.288,99.99,4.0,6630.0,0.0,0.0,
2025-08-15T01:00:03.996Z,3,GR86-049-88,-1.8,0.093,-0.327,99.98,4.0,,0.0,0.0,168.64
2025-08-15T01:00:04.040Z,3,GR86-049-88,-1.8,0.176,-0.289,100.01,4.0,,0.0,0.0,
2025-08-15T01:00:04.126Z,3,GR86-049-88,-1.6,0.172,-0.3,100.01,4.0,,0.0,0.0,
2025-08-15T01:00:04.169Z,3,GR86-049-88,-1.5,0.153,-0.306,100.01,4.0,6670.0,0.0,0.0,
2025-08-15T01:00:04.212Z,3,GR86-049-88,-1.4,0.151,-0.306,100.02,4.0,,0.0,0.0,169.6
2025-08-15T01:00:04.255Z,3,GR86-049-88,-1.3,0.11,-0.289,100.01,4.0,,0.0,0.0,
2025-08-15T01:00:04.299Z,3,GR86-049-88,-1.1,0.144,-0.215,100.01,4.0,,0.0,0.0,
2025-08-15T01:00:04.341Z,3,GR86-049-88,-1.1,0.188,-0.199,100.0,4.0,,0.0,0.0,
2025-08-15T01:00:04.384Z,3,GR86-049-88,-1.1,0.157,-0.199,100.01,4.0,6707.0,0.0,0.0,
2025-08-15T01:00:04.427Z,3,GR86-049-88,-1.1,0.164,-0.219,99.99,4.0,,0.0,0.0,170.64
2025-08-15T01:00:04.470Z,3,GR86-049-88,-1.1,0.159,-0.217,100.0,4.0,,0.0,0.0,
2025-08-15T01:00:04.556Z,3,GR86-049-88,-1.1,0.164,-0.229,99.99,4.0,,0.0,0.0,
2025-08-15T01:00:04.600Z,3,GR86-049-88,-1.0,0.101,-0.21,100.0,4.0,6755.0,0.0,0.0,
2025-08-15T01:00:04.643Z,3,GR86-049-88,-1.0,0.146,-0.212,100.0,4.0,,0.0,0.0,171.73
2025-08-15T01:00:04.686Z,3,GR86-049-88,-1.0,0.128,-0.208,99.98,4.0,,0.0,0.0,
2025-08-15T01:00:04.730Z,3,GR86-049-88,-0.9,0.174,-0.243,99.99,4.0,,0.0,0.0,
2025-08-15T01:00:04.772Z,3,GR86-049-88,-0.9,0.142,-0.249,99.99,4.0,,0.0,0.0,
2025-08-15T01:00:04.815Z,3,GR86-049-88,-0.5,0.17,-0.269,100.02,4.0,6792.0,0.0,0.0,
2025-08-15T01:00:04.859Z,3,GR86-049-88,-0.3,0.099,-0.235,99.99,4.0,,0.0,0.0,172.66
2025-08-15T01:00:04.901Z,3,GR86-049-88,-0.3,0.079,-0.199,99.99,4.0,,0.0,0.0,
2025-08-15T01:00:04.944Z,3,GR86-049-88,-0.3,0.108,-0.18,99.99,4.0,,0.0,0.0,
2025-08-15T01:00:04.987Z,3,GR86-049-88,-0.3,0.123,-0.162,100.03,4.0,,0.0,0.0,
2025-08-15T01:00:05.030Z,3,GR86-049-88,-0.1,0.1,-0.156,100.01,4.0,6827.0,0.0,0.0,
2025-08-15T01:00:05.073Z,3,GR86-049-88,0.0,0.116,-0.119,100.01,4.0,,0.0,0.0,173.58
2025-08-15T01:00:05.116Z,3,GR86-049-88,0.2,0.117,-0.124,100.0,4.0,,0.0,0.0,
2025-08-15T01:00:05.160Z,3,GR86-049-88,0.3,0.09,-0.122,100.02,4.0,,0.0,0.0,
2025-08-15T01:00:05.202Z,3,GR86-049-88,0.4,0.116,-0.151,100.0,4.0,,0.0,0.0,
2025-08-15T01:00:05.245Z,3,GR86-049-88,0.4,0.076,-0.145,100.02,4.0,6866.0,0.0,0.0,
2025-08-15T01:00:05.288Z,3,GR86-049-88,0.4,0.109,-0.13,100.01,4.0,,0.0,0.0,174.6
2025-08-15T01:00:05.331Z,3,GR86-049-88,0.3,0.076,-0.145,100.0,4.0,,0.0,0.0,
2025-08-15T01:00:05.374Z,3,GR86-049-88,0.2,0.109,-0.134,99.99,4.0,,0.0,0.0,
2025-08-15T01:00:05.417Z,3,GR86-049-88,0.2,0.077,-0.14,100.0,4.0,,0.0,0.0,
2025-08-15T01:00:05.460Z,3,GR86-049-88,0.1,0.142,-0.144,100.01,4.0,6902.0,0.0,0.0,
2025-08-15T01:00:05.503Z,3,GR86-049-88,0.1,0.147,-0.146,100.01,4.0,,0.0,0.0,175.6
2025-08-15T01:00:05.546Z,3,GR86-049-88,0.1,0.126,-0.158,100.0,4.0,,0.0,0.0,
2025-08-15T01:00:05.589Z,3,GR86-049-88,0.1,0.144,-0.188,99.99,4.0,,0.0,0.0,
2025-08-15T01:00:05.632Z,3,GR86-049-88,0.2,0.141,-0.178,100.0,4.0,,0.0,0.0,
2025-08-15T01:00:05.675Z,3,GR86-049-88,0.2,0.128,-0.157,100.01,4.0,6938.0,0.0,0.0,
2025-08-15T01:00:05.720Z,3,GR86-049-88,0.2,0.114,-0.155,100.0,4.0,,0.0,0.0,177.5
2025-08-15T01:00:05.763Z,3,GR86-049-88,0.2,0.108,-0.159,99.98,4.0,,0.0,0.0,
2025-08-15T01:00:05.806Z,3,GR86-049-88,0.2,0.108,-0.192,100.0,4.0,,0.0,0.0,
2025-08-15T01:00:05.850Z,3,GR86-049-88,0.2,0.127,-0.161,99.99,4.0,,0.0,0.0,
2025-08-15T01:00:05.893Z,3,GR86-049-88,0.2,0.117,-0.129,99.99,4.0,6970.0,0.0,0.0,
2025-08-15T01:00:05.936Z,3,GR86-049-88,0.2,0.116,-0.12,100.0,4.0,,0.0,0.0,178.54
2025-08-15T01:00:05.980Z,3,GR86-049-88,0.2,0.085,-0.147,100.0,4.0,,0.0,0.0,
2025-08-15T01:00:06.023Z,3,GR86-049-88,0.2,0.085,-0.178,100.0,4.0,,0.0,0.0,
2025-08-15T01:00:06.066Z,3,GR86-049-88,0.2,0.097,-0.201,99.99,4.0,,0.0,0.0,
2025-08-15T01:00:06.109Z,3,GR86-049-88,0.2,0.096,-0.192,100.0,4.0,7009.0,0.0,0.0,
2025-08-15T01:00:06.152Z,3,GR86-049-88,0.2,0.076,-0.169,100.0,4.0,,0.0,0.0,179.47
2025-08-15T01:00:06.195Z,3,GR86-049-88,0.2,0.088,-0.138,100.01,4.0,,0.0,0.0,
2025-08-15T01:00:06.239Z,3,GR86-049-88,0.2,0.131,-0.106,100.0,4.0,,0.0,0.0,
2025-08-15T01:00:06.282Z,3,GR86-049-88,0.2,0.14,-0.121,99.99,4.0,,0.0,0.0,
2025-08-15T01:00:06.325Z,3,GR86-049-88,0.2,0.122,-0.125,99.99,4.0,7075.0,0.0,0.0,
2025-08-15T01:00:06.368Z,3,GR86-049-88,0.2,0.131,-0.103,100.01,4.0,,0.0,0.0,180.35
2025-08-15T01:00:06.411Z,3,GR86-049-88,0.2,0.121,-0.114,100.01,4.0,,0.0,0.0,
2025-08-15T01:00:06.454Z,3,GR86-049-88,0.2,0.132,-0.128,100.01,4.0,,0.0,0.0,
2025-08-15T01:00:06.497Z,3,GR86-049-88,0.2,0.139,-0.136,100.01,4.0,,0.0,0.0,
2025-08-15T01:00:06.540Z,3,GR86-049-88,0.2,0.071,-0.169,100.0,4.0,7116.0,0.0,0.0,
2025-08-15T01:00:06.583Z,3,GR86-049-88,0.1,0.087,-0.169,100.0,4.0,,0.0,0.0,181.16
2025-08-15T01:00:06.626Z,3,GR86-049-88,0.0,0.067,-0.18,100.0,4.0,,0.0,0.0,
2025-08-15T01:00:06.669Z,3,GR86-049-88,0.0,0.081,-0.177,100.0,4.0,,0.0,0.0,
2025-08-15T01:00:06.712Z,3,GR86-049-88,0.0,0.062,-0.199,99.99,4.0,,0.0,0.0,
2025-08-15T01:00:06.755Z,3,GR86-049-88,0.0,0.089,-0.179,100.01,4.0,7150.0,0.0,0.0,
2025-08-15T01:00:06.799Z,3,GR86-049-88,0.0,0.121,-0.171,100.0,4.0,,0.0,0.0,182.08
2025-08-15T01:00:06.841Z,3,GR86-049-88,0.0,0.132,-0.183,100.01,4.0,,0.0,0.0,
2025-08-15T01:00:06.884Z,3,GR86-049-88,0.0,0.128,-0.186,99.99,4.0,,0.0,0.0,
2025-08-15T01:00:06.970Z,3,GR86-049-88,-0.1,0.131,-0.196,100.0,4.0,7183.0,0.0,0.0,
2025-08-15T01:00:07.013Z,3,GR86-049-88,-0.1,0.133,-0.18,100.0,4.0,,0.0,0.0,182.97
2025-08-15T01:00:07.056Z,3,GR86-049-88,0.0,0.11,-0.186,100.01,4.0,,0.0,0.0,
2025-08-15T01:00:07.100Z,3,GR86-049-88,0.2,0.079,-0.183,99.99,4.0,,0.0,0.0,
2025-08-15T01:00:07.143Z,3,GR86-049-88,0.2,0.074,-0.17,99.99,4.0,,0.0,0.0,
2025-08-15T01:00:07.186Z,3,GR86-049-88,0.2,0.082,-0.148,99.99,4.0,7219.0,0.0,0.0,
2025-08-15T01:00:07.229Z,3,GR86-049-88,0.2,-0.123,-0.125,100.0,5.0,,0.0,0.0,183.79
2025-08-15T01:00:07.272Z,3,GR86-049-88,0.4,0.011,-0.05,99.99,5.0,,0.0,0.0,
2025-08-15T01:00:07.315Z,3,GR86-049-88,1.4,0.296,-0.137,100.0,5.0,,0.0,0.0,
2025-08-15T01:00:07.359Z,3,GR86-049-88,1.7000000000000002,0.103,-0.072,99.98,5.0,,0.0,0.0,
2025-08-15T01:00:07.401Z,3,GR86-049-88,1.7000000000000002,-0.023,-0.056,99.99,5.0,7249.0,0.0,0.0,
2025-08-15T01:00:07.444Z,3,GR86-049-88,1.7000000000000002,0.105,-0.156,99.99,5.0,,0.0,0.0,184.71
2025-08-15T01:00:07.487Z,3,GR86-049-88,1.7000000000000002,0.11,-0.05,100.0,5.0,,0.0,0.0,
2025-08-15T01:00:07.530Z,3,GR86-049-88,1.7000000000000002,0.068,-0.066,100.0,5.0,,0.0,0.0,
2025-08-15T01:00:07.573Z,3,GR86-049-88,1.7000000000000002,0.039,-0.128,100.01,5.0,,0.0,0.0,
2025-08-15T01:00:07.616Z,3,GR86-049-88,1.7000000000000002,0.088,-0.055,99.99,5.0,6454.0,0.0,0.0,
2025-08-15T01:00:07.660Z,3,GR86-049-88,1.7000000000000002,0.118,-0.1,100.0,5.0,,0.0,0.0,185.35
2025-08-15T01:00:07.702Z,3,GR86-049-88,1.7000000000000002,0.117,-0.068,99.99,5.0,,0.0,0.0,
2025-08-15T01:00:07.746Z,3,GR86-049-88,1.7000000000000002,0.129,-0.033,100.01,5.0,,0.0,0.0,
2025-08-15T01:00:07.789Z,3,GR86-049-88,1.7000000000000002,0.132,-0.066,99.99,5.0,,0.0,0.0,
2025-08-15T01:00:07.832Z,3,GR86-049-88,1.7000000000000002,0.11,-0.044,100.0,5.0,6311.0,0.0,0.0,
2025-08-15T01:00:07.875Z,3,GR86-049-88,1.7000000000000002,0.136,-0.049,99.98,5.0,,0.0,0.0,185.99
2025-08-15T01:00:07.920Z,3,GR86-049-88,1.5,0.058,-0.129,99.99,5.0,,0.0,0.0,
2025-08-15T01:00:07.963Z,3,GR86-049-88,1.5,0.064,-0.106,100.0,5.0,,0.0,0.0,
2025-08-15T01:00:08.006Z,3,GR86-049-88,1.5,0.045,-0.114,100.0,5.0,,0.0,0.0,
2025-08-15T01:00:08.049Z,3,GR86-049-88,1.5,0.092,-0.116,99.99,5.0,6348.0,0.0,0.0,
2025-08-15T01:00:08.092Z,3,GR86-049-88,1.5,0.074,-0.118,100.0,5.0,,0.0,0.0,186.83
2025-08-15T01:00:08.135Z,3,GR86-049-88,1.5,0.094,-0.168,99.99,5.0,,0.0,0.0,
2025-08-15T01:00:08.179Z,3,GR86-049-88,1.5,0.101,-0.145,99.99,5.0,,0.0,0.0,
2025-08-15T01:00:08.223Z,3,GR86-049-88,1.5,0.055,-0.142,99.99,5.0,,0.0,0.0,
2025-08-15T01:00:08.266Z,3,GR86-049-88,1.5,0.072,-0.136,99.99,5.0,6385.0,0.0,0.0,
2025-08-15T01:00:08.309Z,3,GR86-049-88,1.5,0.053,-0.153,100.0,5.0,,0.0,0.0,187.54
2025-08-15T01:00:08.352Z,3,GR86-049-88,1.5,0.037,-0.137,100.01,5.0,,0.0,0.0,
2025-08-15T01:00:08.395Z,3,GR86-049-88,1.5,0.062,-0.14,99.99,5.0,,0.0,0.0,
2025-08-15T01:00:08.439Z,3,GR86-049-88,1.5,0.119,-0.097,100.0,5.0,,0.0,0.0,
2025-08-15T01:00:08.481Z,3,GR86-049-88,1.5,0.103,-0.097,99.99,5.0,6405.0,0.0,0.0,
2025-08-15T01:00:08.524Z,3,GR86-049-88,1.5,0.099,-0.094,100.0,5.0,,0.0,0.0,189.05
2025-08-15T01:00:08.567Z,3,GR86-049-88,1.5,0.097,-0.084,100.0,5.0,,0.0,0.0,
2025-08-15T01:00:08.610Z,3,GR86-049-88,1.5,0.075,-0.082,100.02,5.0,,0.0,0.0,
2025-08-15T01:00:08.653Z,3,GR86-049-88,1.6,0.074,-0.071,99.99,5.0,,0.0,0.0,
2025-08-15T01:00:08.696Z,3,GR86-049-88,1.6,0.07,-0.071,100.01,5.0,6422.0,0.0,0.0,
2025-08-15T01:00:08.740Z,3,GR86-049-88,1.6,0.106,-0.084,99.99,5.0,,0.0,0.0,189.84
2025-08-15T01:00:08.782Z,3,GR86-049-88,1.6,0.139,-0.089,100.0,5.0,,0.0,0.0,
2025-08-15T01:00:08.869Z,3,GR86-049-88,1.6,0.125,-0.058,99.99,5.0,,0.0,0.0,
2025-08-15T01:00:08.911Z,3,GR86-049-88,1.6,0.126,-0.064,100.0,5.0,6458.0,0.0,0.0,
2025-08-15T01:00:08.955Z,3,GR86-049-88,1.6,0.095,-0.077,100.0,5.0,,0.0,0.0,190.53
2025-08-15T01:00:09.000Z,3,GR86-049-88,1.7000000000000002,0.103,-0.106,100.0,5.0,,0.0,0.0,
2025-08-15T01:00:09.043Z,3,GR86-049-88,1.7000000000000002,0.106,-0.087,100.02,5.0,,0.0,0.0,
2025-08-15T01:00:09.086Z,3,GR86-049-88,1.6,0.126,-0.082,100.01,5.0,,0.0,0.0,
2025-08-15T01:00:09.130Z,3,GR86-049-88,1.7000000000000002,0.122,-0.092,100.01,5.0,6504.0,0.0,0.0,
2025-08-15T01:00:09.173Z,3,GR86-049-88,1.7000000000000002,0.118,-0.09,100.01,5.0,,0.0,0.0,191.3
2025-08-15T01:00:09.216Z,3,GR86-049-88,1.6,0.112,-0.09,100.0,5.0,,0.0,0.0,
2025-08-15T01:00:09.260Z,3,GR86-049-88,1.6,0.054,-0.112,100.02,5.0,,0.0,0.0,
2025-08-15T01:00:09.303Z,3,GR86-049-88,1.7000000000000002,0.09,-0.108,100.02,5.0,,0.0,0.0,
2025-08-15T01:00:09.346Z,3,GR86-049-88,1.7000000000000002,0.09,-0.114,100.01,5.0,6532.0,0.0,0.0,
2025-08-15T01:00:09.389Z,3,GR86-049-88,1.7000000000000002,0.093,-0.098,99.99,5.0,,0.0,0.0,192.0
2025-08-15T01:00:09.432Z,3,GR86-049-88,1.7000000000000002,0.129,-0.082,99.99,5.0,,0.0,0.0,
2025-08-15T01:00:09.475Z,3,GR86-049-88,1.7000000000000002,0.09,-0.082,99.99,5.0,,0.0,0.0,
2025-08-15T01:00:09.520Z,3,GR86-049-88,1.7000000000000002,0.054,-0.083,100.0,5.0,,0.0,0.0,
2025-08-15T01:00:09.563Z,3,GR86-049-88,1.7000000000000002,0.074,-0.088,99.99,5.0,6549.0,0.0,0.0,
2025-08-15T01:00:09.606Z,3,GR86-049-88,1.7000000000000002,0.066,-0.076,100.0,5.0,,0.0,0.0,192.74
2025-08-15T01:00:09.650Z,3,GR86-049-88,1.7000000000000002,0.088,-0.088,99.99,5.0,,0.0,0.0,
2025-08-15T01:00:09.693Z,3,GR86-049-88,1.7000000000000002,0.107,-0.094,100.0,5.0,,0.0,0.0,
2025-08-15T01:00:09.736Z,3,GR86-049-88,1.7000000000000002,0.114,-0.101,100.01,5.0,,0.0,0.0,
2025-08-15T01:00:09.780Z,3,GR86-049-88,1.7000000000000002,0.067,-0.095,99.99,5.0,6581.0,0.0,0.0,
2025-08-15T01:00:09.823Z,3,GR86-049-88,1.7000000000000002,0.054,-0.115,100.0,5.0,,0.0,0.0,193.47
2025-08-15T01:00:09.866Z,3,GR86-049-88,1.7000000000000002,0.077,-0.114,100.0,5.0,,0.0,0.0,
2025-08-15T01:00:09.909Z,3,GR86-049-88,1.7000000000000002,0.075,-0.122,100.01,5.0,,0.0,0.0,
2025-08-15T01:00:09.952Z,3,GR86-049-88,1.7000000000000002,0.083,-0.112,100.01,5.0,,0.0,0.0,
2025-08-15T01:00:09.995Z,3,GR86-049-88,1.7000000000000002,0.107,-0.096,99.99,5.0,6600.0,0.0,0.0,
2025-08-15T01:00:10.039Z,3,GR86-049-88,1.7000000000000002,0.054,-0.109,100.0,5.0,,0.0,0.0,194.25
2025-08-15T01:00:10.081Z,3,GR86-049-88,1.7000000000000002,0.053,-0.131,99.99,5.0,,0.0,0.0,
2025-08-15T01:00:10.124Z,3,GR86-049-88,1.8,0.084,-0.13,99.99,5.0,,0.0,0.0,
2025-08-15T01:00:10.168Z,3,GR86-049-88,1.8,0.069,-0.145,99.99,5.0,,0.0,0.0,
2025-08-15T01:00:10.211Z,3,GR86-049-88,1.8,0.093,-0.122,99.99,5.0,6622.0,0.0,0.0,
2025-08-15T01:00:10.254Z,3,GR86-049-88,1.8,0.097,-0.12,100.0,5.0,,0.0,0.0,194.94
2025-08-15T01:00:10.297Z,3,GR86-049-88,1.8,0.103,-0.096,99.99,5.0,,0.0,0.0,
2025-08-15T01:00:10.383Z,3,GR86-049-88,1.8,0.068,-0.081,99.98,5.0,,0.0,0.0,
2025-08-15T01:00:10.426Z,3,GR86-049-88,1.8,0.082,-0.062,100.01,5.0,6651.0,0.0,0.0,
2025-08-15T01:00:10.469Z,3,GR86-049-88,1.9,0.09,-0.063,100.0,5.0,,0.0,0.0,195.74
2025-08-15T01:00:10.513Z,3,GR86-049-88,2.0,0.1,-0.056,100.01,5.0,,0.0,0.0,
2025-08-15T01:00:10.555Z,3,GR86-049-88,2.0,0.118,-0.034,100.0,5.0,,0.0,0.0,
2025-08-15T01:00:10.599Z,3,GR86-049-88,2.1,0.089,-0.042,99.99,5.0,,0.0,0.0,
2025-08-15T01:00:10.642Z,3,GR86-049-88,2.1,0.06,-0.047,99.99,5.0,6682.0,0.0,0.0,
2025-08-15T01:00:10.685Z,3,GR86-049-88,2.1,0.089,-0.032,100.0,5.0,,0.0,0.0,196.47
2025-08-15T01:00:10.728Z,3,GR86-049-88,2.2,0.088,-0.017,99.98,5.0,,0.0,0.0,
2025-08-15T01:00:10.815Z,3,GR86-049-88,2.2,0.101,0.003,100.01,5.0,,0.0,0.0,
2025-08-15T01:00:10.858Z,3,GR86-049-88,2.4000000000000004,0.063,-0.034,100.02,5.0,6704.0,0.0,0.0,
2025-08-15T01:00:10.944Z,3,GR86-049-88,2.6,0.078,-0.035,100.0,5.0,,0.0,0.0,197.1
2025-08-15T01:00:11.030Z,3,GR86-049-88,2.7,0.1,-0.059,100.0,5.0,,0.0,0.0,
2025-08-15T01:00:11.073Z,3,GR86-049-88,2.9000000000000004,0.116,-0.032,100.0,5.0,6723.0,0.0,0.0,
2025-08-15T01:00:11.116Z,3,GR86-049-88,3.0,0.077,-0.042,99.99,5.0,,0.0,0.0,197.8
2025-08-15T01:00:11.160Z,3,GR86-049-88,3.0,0.082,-0.033,100.0,5.0,,0.0,0.0,
2025-08-15T01:00:11.202Z,3,GR86-049-88,3.0,0.107,-0.021,99.98,5.0,,0.0,0.0,
2025-08-15T01:00:11.246Z,3,GR86-049-88,3.0,0.091,0.002,99.99,5.0,,0.0,0.0,
2025-08-15T01:00:11.289Z,3,GR86-049-88,3.0,0.1,-0.047,100.01,5.0,6756.0,0.0,0.0,
2025-08-15T01:00:11.375Z,3,GR86-049-88,3.0,0.093,-0.058,100.02,5.0,,0.0,0.0,199.29
2025-08-15T01:00:11.420Z,3,GR86-049-88,3.0,0.086,-0.036,99.99,5.0,,0.0,0.0,
2025-08-15T01:00:11.463Z,3,GR86-049-88,3.0,0.095,-0.039,99.99,5.0,,0.0,0.0,
2025-08-15T01:00:11.550Z,3,GR86-049-88,3.0,0.087,-0.06,100.0,5.0,6765.0,0.0,0.0,199.81
2025-08-15T01:00:11.593Z,3,GR86-049-88,3.5,0.085,-0.049,99.99,5.0,,0.0,0.0,
2025-08-15T01:00:11.636Z,3,GR86-049-88,3.5,0.062,-0.056,100.0,5.0,,0.0,0.0,
2025-08-15T01:00:11.723Z,3,GR86-049-88,3.7,0.094,-0.017,99.99,5.0,6825.0,0.0,0.0,
2025-08-15T01:00:11.766Z,3,GR86-049-88,4.2,0.072,0.012,100.02,5.0,,0.0,0.0,200.54
2025-08-15T01:00:11.809Z,3,GR86-049-88,4.5,0.095,-0.003,99.99,5.0,,0.0,0.0,
2025-08-15T01:00:11.852Z,3,GR86-049-88,4.9,0.06,-0.002,100.0,5.0,,0.0,0.0,
2025-08-15T01:00:11.895Z,3,GR86-049-88,5.300000000000001,0.089,-0.003,99.99,5.0,,0.0,0.0,
2025-08-15T01:00:11.939Z,3,GR86-049-88,5.800000000000001,0.093,0.034,100.0,5.0,6839.0,0.0,0.0,
2025-08-15T01:00:11.982Z,3,GR86-049-88,6.300000000000001,0.067,0.025,100.0,5.0,,0.0,0.0,201.23
2025-08-15T01:00:12.025Z,3,GR86-049-88,6.7,0.076,0.038,99.99,5.0,,0.0,0.0,
2025-08-15T01:00:12.111Z,3,GR86-049-88,7.0,0.06,0.038,99.98,5.0,,0.0,0.0,
2025-08-15T01:00:12.154Z,3,GR86-049-88,7.4,0.069,0.089,100.01,5.0,6862.0,0.0,0.0,
2025-08-15T01:00:12.197Z,3,GR86-049-88,7.6,0.11,0.122,100.01,5.0,,0.0,0.0,201.88
2025-08-15T01:00:12.240Z,3,GR86-049-88,8.6,0.059,0.128,100.0,5.0,,0.0,0.0,
2025-08-15T01:00:12.283Z,3,GR86-049-88,9.6,0.073,0.163,100.0,5.0,,0.0,0.0,
2025-08-15T01:00:12.326Z,3,GR86-049-88,10.3,0.095,0.21,99.99,5.0,,0.0,0.0,
2025-08-15T01:00:12.369Z,3,GR86-049-88,10.4,0.091,0.221,99.99,5.0,6888.0,0.0,0.0,
2025-08-15T01:00:12.412Z,3,GR86-049-88,10.4,0.093,0.245,100.01,5.0,,0.0,0.0,202.69
2025-08-15T01:00:12.455Z,3,GR86-049-88,10.4,0.09,0.246,99.99,5.0,,0.0,0.0,
2025-08-15T01:00:12.498Z,3,GR86-049-88,10.4,0.074,0.268,99.98,5.0,,0.0,0.0,
2025-08-15T01:00:12.541Z,3,GR86-049-88,10.4,0.108,0.233,100.0,5.0,,0.0,0.0,
2025-08-15T01:00:12.584Z,3,GR86-049-88,10.4,0.093,0.196,99.99,5.0,6918.0,0.0,0.0,
2025-08-15T01:00:12.627Z,3,GR86-049-88,10.4,0.089,0.205,99.99,5.0,,0.0,0.0,203.37
2025-08-15T01:00:12.670Z,3,GR86-049-88,10.4,0.087,0.193,99.99,5.0,,0.0,0.0,
2025-08-15T01:00:12.713Z,3,GR86-049-88,10.4,0.065,0.172,100.0,5.0,,0.0,0.0,
2025-08-15T01:00:12.756Z,3,GR86-049-88,10.4,0.043,0.15,99.99,5.0,,0.0,0.0,
2025-08-15T01:00:12.800Z,3,GR86-049-88,10.4,0.073,0.178,100.01,5.0,6936.0,0.0,0.0,
2025-08-15T01:00:12.843Z,3,GR86-049-88,10.4,0.076,0.185,99.99,5.0,,0.0,0.0,204.23
2025-08-15T01:00:12.886Z,3,GR86-049-88,10.4,0.04,0.189,100.0,5.0,,0.0,0.0,
2025-08-15T01:00:12.929Z,3,GR86-049-88,10.8,0.078,0.184,100.0,5.0,,0.0,0.0,
2025-08-15T01:00:12.972Z,3,GR86-049-88,11.1,0.084,0.224,99.99,5.0,,0.0,0.0,
2025-08-15T01:00:13.015Z,3,GR86-049-88,11.1,0.103,0.263,100.0,5.0,6958.0,0.0,0.0,
2025-08-15T01:00:13.058Z,3,GR86-049-88,11.1,0.047,0.251,100.01,5.0,,0.0,0.0,204.85
2025-08-15T01:00:13.101Z,3,GR86-049-88,11.1,0.081,0.259,100.0,5.0,,0.0,0.0,
2025-08-15T01:00:13.144Z,3,GR86-049-88,11.2,0.086,0.251,100.0,5.0,,0.0,0.0,
2025-08-15T01:00:13.230Z,3,GR86-049-88,11.2,0.094,0.247,100.0,5.0,6985.0,0.0,0.0,
2025-08-15T01:00:13.273Z,3,GR86-049-88,11.2,0.083,0.256,100.0,5.0,,0.0,0.0,205.55
2025-08-15T01:00:13.316Z,3,GR86-049-88,11.2,0.059,0.262,100.0,5.0,,0.0,0.0,
2025-08-15T01:00:13.360Z,3,GR86-049-88,11.2,0.091,0.246,100.0,5.0,,0.0,0.0,
2025-08-15T01:00:13.402Z,3,GR86-049-88,11.2,0.068,0.229,100.02,5.0,,0.0,0.0,
2025-08-15T01:00:13.446Z,3,GR86-049-88,11.2,0.063,0.24,100.0,5.0,7018.0,0.0,0.0,
2025-08-15T01:00:13.490Z,3,GR86-049-88,11.2,0.063,0.266,100.0,5.0,,0.0,0.0,206.25
2025-08-15T01:00:13.532Z,3,GR86-049-88,11.0,0.052,0.283,100.0,5.0,,0.0,0.0,
2025-08-15T01:00:13.575Z,3,GR86-049-88,11.0,0.078,0.272,99.99,5.0,,0.0,0.0,
2025-08-15T01:00:13.620Z,3,GR86-049-88,10.9,0.033,0.233,100.0,5.0,,0.0,0.0,
2025-08-15T01:00:13.663Z,3,GR86-049-88,10.9,0.047,0.208,100.0,5.0,7036.0,0.0,0.0,
2025-08-15T01:00:13.706Z,3,GR86-049-88,10.8,0.099,0.178,99.99,5.0,,0.0,0.0,206.89
2025-08-15T01:00:13.749Z,3,GR86-049-88,10.7,0.086,0.174,100.01,5.0,,0.0,0.0,
2025-08-15T01:00:13.835Z,3,GR86-049-88,10.6,0.076,0.128,100.01,5.0,,0.0,0.0,
2025-08-15T01:00:13.879Z,3,GR86-049-88,10.5,0.091,0.101,100.0,5.0,7055.0,0.0,0.0,
2025-08-15T01:00:13.923Z,3,GR86-049-88,10.4,0.096,0.106,99.99,5.0,,0.0,0.0,208.3
2025-08-15T01:00:13.966Z,3,GR86-049-88,10.3,0.058,0.115,100.01,5.0,,0.0,0.0,
2025-08-15T01:00:14.052Z,3,GR86-049-88,10.3,0.067,0.126,100.0,5.0,,0.0,0.0,
2025-08-15T01:00:14.095Z,3,GR86-049-88,10.3,0.063,0.123,99.98,5.0,7078.0,0.0,0.0,
2025-08-15T01:00:14.139Z,3,GR86-049-88,10.3,0.056,0.118,100.01,5.0,,0.0,0.0,208.89
2025-08-15T01:00:14.181Z,3,GR86-049-88,10.2,0.037,0.13,99.99,5.0,,0.0,0.0,
2025-08-15T01:00:14.224Z,3,GR86-049-88,10.2,0.073,0.168,100.01,5.0,,0.0,0.0,
2025-08-15T01:00:14.267Z,3,GR86-049-88,10.2,0.089,0.203,99.98,5.0,,0.0,0.0,
2025-08-15T01:00:14.310Z,3,GR86-049-88,10.4,0.097,0.206,99.99,5.0,7109.0,0.0,0.0,
2025-08-15T01:00:14.353Z,3,GR86-049-88,10.7,0.065,0.218,99.99,5.0,,0.0,0.0,209.59
2025-08-15T01:00:14.396Z,3,GR86-049-88,11.5,0.043,0.206,100.0,5.0,,0.0,0.0,
2025-08-15T01:00:14.440Z,3,GR86-049-88,12.4,0.087,0.256,99.99,5.0,,0.0,0.0,
2025-08-15T01:00:14.482Z,3,GR86-049-88,12.6,0.053,0.304,100.0,5.0,,0.0,0.0,
2025-08-15T01:00:14.525Z,3,GR86-049-88,12.6,0.028,0.319,100.0,5.0,7142.0,0.0,0.0,
2025-08-15T01:00:14.568Z,3,GR86-049-88,12.9,0.039,0.349,100.0,5.0,,0.0,0.0,210.15
2025-08-15T01:00:14.611Z,3,GR86-049-88,13.7,0.052,0.396,99.98,5.0,,0.0,0.0,
2025-08-15T01:00:14.654Z,3,GR86-049-88,14.8,0.081,0.422,99.99,5.0,,0.0,0.0,
2025-08-15T01:00:14.697Z,3,GR86-049-88,15.5,0.087,0.472,100.01,5.0,,0.0,0.0,
2025-08-15T01:00:14.740Z,3,GR86-049-88,16.0,0.087,0.45,99.98,5.0,7168.0,0.0,0.0,
2025-08-15T01:00:14.783Z,3,GR86-049-88,16.2,0.077,0.439,99.99,5.0,,0.0,0.0,210.77
2025-08-15T01:00:14.826Z,3,GR86-049-88,16.3,0.072,0.48,100.0,5.0,,0.0,0.0,
2025-08-15T01:00:14.870Z,3,GR86-049-88,16.400000000000002,0.051,0.491,100.01,5.0,,0.0,0.0,
2025-08-15T01:00:14.913Z,3,GR86-049-88,16.400000000000002,0.02,0.512,99.98,5.0,,0.0,0.0,
2025-08-15T01:00:14.956Z,3,GR86-049-88,16.1,0.058,0.509,99.98,5.0,7190.0,0.0,0.0,
2025-08-15T01:00:15.000Z,3,GR86-049-88,16.0,0.028,0.505,99.99,5.0,,0.0,0.0,211.7
2025-08-15T01:00:15.043Z,3,GR86-049-88,16.0,0.031,0.514,100.0,5.0,,0.0,0.0,
2025-08-15T01:00:15.086Z,3,GR86-049-88,16.0,0.065,0.524,100.01,5.0,,0.0,0.0,
2025-08-15T01:00:15.130Z,3,GR86-049-88,15.8,0.083,0.52,100.01,5.0,,0.0,0.0,
2025-08-15T01:00:15.173Z,3,GR86-049-88,15.6,0.069,0.505,99.99,5.0,7212.0,0.0,0.0,
2025-08-15T01:00:15.217Z,3,GR86-049-88,15.3,0.045,0.44,100.01,5.0,,0.0,0.0,212.22
2025-08-15T01:00:15.260Z,3,GR86-049-88,15.0,0.079,0.374,99.99,5.0,,0.0,0.0,
2025-08-15T01:00:15.303Z,3,GR86-049-88,14.9,0.062,0.369,100.02,5.0,,0.0,0.0,
2025-08-15T01:00:15.346Z,3,GR86-049-88,15.3,0.037,0.335,100.0,5.0,,0.0,0.0,
2025-08-15T01:00:15.389Z,3,GR86-049-88,15.8,0.039,0.336,99.98,5.0,7238.0,0.0,0.0,
2025-08-15T01:00:15.432Z,3,GR86-049-88,15.8,0.035,0.376,85.44,5.0,,0.0,0.0,212.97
2025-08-15T01:00:15.475Z,3,GR86-049-88,15.6,0.088,0.392,13.49,5.0,,0.0,0.0,
2025-08-15T01:00:15.520Z,3,GR86-049-88,14.0,0.019,0.386,2.47,5.0,,0.0,0.0,
2025-08-15T01:00:15.606Z,3,GR86-049-88,12.7,-0.195,0.38,2.25,5.0,7264.0,1.89,2.245,
2025-08-15T01:00:15.650Z,3,GR86-049-88,9.2,-0.407,0.3,2.21,5.0,,24.4,24.34,213.52
2025-08-15T01:00:15.693Z,3,GR86-049-88,8.9,-0.551,0.284,2.22,5.0,,39.19,38.96,
2025-08-15T01:00:15.736Z,3,GR86-049-88,8.8,-0.874,0.221,2.23,5.0,,58.125,57.685,
2025-08-15T01:00:15.780Z,3,GR86-049-88,8.700000000000001,-1.251,0.148,2.27,5.0,,83.67,82.83,
2025-08-15T01:00:15.823Z,3,GR86-049-88,8.0,-1.383,0.08,2.27,5.0,7273.0,95.865,96.23,
2025-08-15T01:00:15.866Z,3,GR86-049-88,7.5,-1.329,0.085,2.29,5.0,,103.615,105.585,214.01
2025-08-15T01:00:15.909Z,3,GR86-049-88,7.5,-1.414,0.056,39.08,5.0,,106.745,107.645,
2025-08-15T01:00:15.995Z,3,GR86-049-88,7.800000000000001,-1.216,0.013,85.87,4.0,,107.585,109.245,
2025-08-15T01:00:16.039Z,3,GR86-049-88,4.6000000000000005,-1.396,0.108,3.66,4.0,7101.0,106.425,109.215,
2025-08-15T01:00:16.081Z,3,GR86-049-88,2.3000000000000003,-1.488,0.13,2.95,4.0,,106.27,107.11,213.92
2025-08-15T01:00:16.125Z,3,GR86-049-88,1.8,-1.662,0.128,2.73,4.0,,109.69,111.305,
2025-08-15T01:00:16.211Z,3,GR86-049-88,1.8,-1.394,0.153,2.65,4.0,,109.245,110.145,
2025-08-15T01:00:16.254Z,3,GR86-049-88,9.2,-1.308,0.198,2.6,4.0,6302.0,110.405,111.155,
2025-08-15T01:00:16.297Z,3,GR86-049-88,10.4,-1.301,0.142,2.6,4.0,,111.06,112.45,204.32
2025-08-15T01:00:16.340Z,3,GR86-049-88,10.4,-1.414,0.1,2.57,4.0,,109.52,111.185,
2025-08-15T01:00:16.426Z,3,GR86-049-88,10.1,-1.359,0.071,2.56,4.0,,106.025,107.08,
2025-08-15T01:00:16.469Z,3,GR86-049-88,12.1,-1.307,-0.033,50.72,4.0,6981.0,103.28,104.395,
2025-08-15T01:00:16.513Z,3,GR86-049-88,16.8,-1.407,-0.012,95.53,3.0,,96.735,98.78,191.63
2025-08-15T01:00:16.555Z,3,GR86-049-88,16.8,-1.269,0.047,55.13,3.0,,87.715,89.21000000000001,
2025-08-15T01:00:16.599Z,3,GR86-049-88,15.3,-1.284,0.175,3.09,3.0,,87.09,88.83,
2025-08-15T01:00:16.641Z,3,GR86-049-88,15.2,-1.375,-0.126,2.51,3.0,,92.275,93.025,
2025-08-15T01:00:16.727Z,3,GR86-049-88,15.7,-1.28,0.146,2.39,3.0,6941.0,96.87,98.395,174.85
2025-08-15T01:00:16.770Z,3,GR86-049-88,15.7,-1.217,0.041,2.38,3.0,,97.71,98.215,
2025-08-15T01:00:16.813Z,3,GR86-049-88,16.5,-1.181,0.247,2.38,3.0,,99.175,99.31,
2025-08-15T01:00:16.856Z,3,GR86-049-88,18.5,-1.306,0.191,2.4,3.0,,101.115,101.08,
2025-08-15T01:00:16.942Z,3,GR86-049-88,11.7,-1.368,0.337,2.39,3.0,6548.0,105.525,105.905,170.02
2025-08-15T01:00:16.985Z,3,GR86-049-88,7.5,-1.343,0.268,2.39,3.0,,105.86,105.935,
2025-08-15T01:00:17.071Z,3,GR86-049-88,7.4,-1.362,0.259,3.21,3.0,,107.92,107.645,
2025-08-15T01:00:17.115Z,3,GR86-049-88,10.7,-1.314,0.296,43.24,2.0,7611.0,108.3,108.33,
2025-08-15T01:00:17.158Z,3,GR86-049-88,10.7,-1.419,0.278,7.99,2.0,,106.21,108.15,160.55
2025-08-15T01:00:17.201Z,3,GR86-049-88,10.1,-1.394,0.23,4.89,2.0,,109.52,111.84,
2025-08-15T01:00:17.244Z,3,GR86-049-88,10.4,-1.425,0.208,4.11,2.0,,109.125,110.145,
2025-08-15T01:00:17.287Z,3,GR86-049-88,12.8,-1.249,0.347,3.79,2.0,,111.965,114.115,
2025-08-15T01:00:17.330Z,3,GR86-049-88,13.2,-1.297,0.248,3.61,2.0,6770.0,108.36,110.145,
2025-08-15T01:00:17.373Z,3,GR86-049-88,13.2,-1.262,0.43,3.37,2.0,,105.555,106.395,152.81
2025-08-15T01:00:17.416Z,3,GR86-049-88,13.1,-1.254,0.46,3.14,2.0,,107.08,108.3,
2025-08-15T01:00:17.460Z,3,GR86-049-88,13.3,-1.153,0.346,2.86,2.0,,106.09,107.2,
2025-08-15T01:00:17.502Z,3,GR86-049-88,14.2,-1.285,0.603,2.72,2.0,,103.28,103.615,
2025-08-15T01:00:17.546Z,3,GR86-049-88,15.6,-1.163,0.531,2.63,2.0,7429.0,103.645,103.43,
2025-08-15T01:00:17.589Z,3,GR86-049-88,18.8,-1.329,0.373,2.57,2.0,,106.12,106.895,143.41
2025-08-15T01:00:17.632Z,3,GR86-049-88,21.4,-1.247,0.536,2.54,2.0,,105.08,106.395,
2025-08-15T01:00:17.675Z,3,GR86-049-88,22.4,-1.243,0.513,2.49,2.0,,104.09,104.47,
2025-08-15T01:00:17.720Z,3,GR86-049-88,23.700000000000003,-1.295,0.438,27.35,1.0,,105.83,105.525,
2025-08-15T01:00:17.763Z,3,GR86-049-88,24.8,-1.282,0.385,53.85,1.0,7151.0,107.705,109.75,
2025-08-15T01:00:17.806Z,3,GR86-049-88,24.8,-1.32,0.355,6.91,1.0,,106.36,108.53,136.12
2025-08-15T01:00:17.850Z,3,GR86-049-88,24.5,-1.268,0.521,4.42,1.0,,107.08,109.87,
2025-08-15T01:00:17.893Z,3,GR86-049-88,24.5,-1.469,0.385,3.87,1.0,,106.955,108.5,
2025-08-15T01:00:17.936Z,3,GR86-049-88,24.5,-1.382,0.529,3.54,1.0,,105.05,106.485,
2025-08-15T01:00:18.023Z,3,GR86-049-88,27.4,-1.259,0.802,3.0500000000000003,1.0,6827.0,99.585,100.58,128.07
2025-08-15T01:00:18.066Z,3,GR86-049-88,27.4,-1.066,0.801,2.86,1.0,,101.525,103.28,
2025-08-15T01:00:18.109Z,3,GR86-049-88,27.4,-1.199,0.806,2.69,1.0,,104.59,106.36,
2025-08-15T01:00:18.152Z,3,GR86-049-88,28.1,-1.103,1.111,2.6,1.0,,100.93,101.525,
2025-08-15T01:00:18.195Z,3,GR86-049-88,26.0,-1.034,0.987,2.51,1.0,6874.0,91.025,92.245,
2025-08-15T01:00:18.239Z,3,GR86-049-88,7.7,-0.836,0.752,2.47,1.0,,91.225,91.895,118.76
2025-08-15T01:00:18.282Z,3,GR86-049-88,-0.8,-1.144,0.859,2.45,1.0,,92.935,92.935,
2025-08-15T01:00:18.325Z,3,GR86-049-88,-2.6,-0.883,0.777,2.45,1.0,,85.44,86.035,
2025-08-15T01:00:18.369Z,3,GR86-049-88,3.7,-1.219,0.515,2.44,1.0,,80.74,82.265,
2025-08-15T01:00:18.411Z,3,GR86-049-88,20.9,-1.098,0.644,2.46,1.0,7018.0,80.65,81.46000000000001,
2025-08-15T01:00:18.454Z,3,GR86-049-88,42.1,-1.211,0.681,2.45,1.0,,81.49,81.715,111.03
2025-08-15T01:00:18.497Z,3,GR86-049-88,55.5,-1.09,0.798,2.46,1.0,,78.115,79.245,
2025-08-15T01:00:18.540Z,3,GR86-049-88,57.3,-0.907,0.68,2.44,1.0,,63.025,64.72,
2025-08-15T01:00:18.583Z,3,GR86-049-88,56.6,-0.834,0.671,2.45,1.0,,43.92,45.46,
2025-08-15T01:00:18.626Z,3,GR86-049-88,56.5,-0.685,0.659,2.46,1.0,6828.0,29.055,30.4,
2025-08-15T01:00:18.669Z,3,GR86-049-88,56.7,-0.531,0.72,2.46,1.0,,20.235,21.305,103.52
2025-08-15T01:00:18.712Z,3,GR86-049-88,57.8,-0.545,0.778,2.45,1.0,,15.81,16.71,
2025-08-15T01:00:18.799Z,3,GR86-049-88,60.6,-0.51,0.8140000000000001,2.46,1.0,,13.95,14.94,
2025-08-15T01:00:18.841Z,3,GR86-049-88,63.6,-0.402,0.927,2.47,1.0,6705.0,13.2,13.995,
2025-08-15T01:00:18.884Z,3,GR86-049-88,63.6,-0.374,1.018,2.46,1.0,,6.575,7.17,95.93
2025-08-15T01:00:18.927Z,3,GR86-049-88,64.9,-0.197,1.012,2.46,1.0,,0.0,0.0,
2025-08-15T01:00:18.970Z,3,GR86-049-88,70.4,-0.189,1.05,2.46,1.0,,0.0,0.0,
2025-08-15T01:00:19.013Z,3,GR86-049-88,77.4,-0.231,1.103,2.46,1.0,,0.0,0.0,
2025-08-15T01:00:19.100Z,3,GR86-049-88,82.5,-0.201,1.174,2.47,1.0,6344.0,0.0,0.0,90.37
2025-08-15T01:00:19.143Z,3,GR86-049-88,83.5,-0.169,1.221,2.47,1.0,,0.0,0.0,
2025-08-15T01:00:19.186Z,3,GR86-049-88,88.60000000000001,-0.2,1.164,2.46,1.0,,0.0,0.0,
2025-08-15T01:00:19.229Z,3,GR86-049-88,95.0,-0.207,1.19,2.46,1.0,,0.0,0.0,
2025-08-15T01:00:19.272Z,3,GR86-049-88,98.8,-0.222,1.134,3.06,1.0,6154.0,0.0,0.0,
2025-08-15T01:00:19.359Z,3,GR86-049-88,99.3,-0.2,1.217,5.12,1.0,,0.0,0.0,87.59
2025-08-15T01:00:19.401Z,3,GR86-049-88,99.4,-0.207,1.301,17.22,1.0,,0.0,0.0,
2025-08-15T01:00:19.444Z,3,GR86-049-88,99.4,-0.235,1.276,20.48,1.0,,0.0,0.0,
2025-08-15T01:00:19.487Z,3,GR86-049-88,99.3,-0.201,1.374,22.88,1.0,6086.0,0.0,0.0,
2025-08-15T01:00:19.530Z,3,GR86-049-88,97.6,-0.148,1.35,24.63,1.0,,0.0,0.0,84.57000000000001
2025-08-15T01:00:19.573Z,3,GR86-049-88,94.8,-0.142,1.289,26.68,1.0,,0.0,0.0,
2025-08-15T01:00:19.616Z,3,GR86-049-88,91.6,-0.115,1.3,28.05,1.0,,0.0,0.0,
2025-08-15T01:00:19.660Z,3,GR86-049-88,90.8,0.153,1.147,30.6,1.0,,0.0,0.0,
2025-08-15T01:00:19.702Z,3,GR86-049-88,90.8,0.151,1.218,31.95,1.0,5941.0,0.0,0.0,
2025-08-15T01:00:19.746Z,3,GR86-049-88,90.6,0.155,1.267,32.6,1.0,,0.0,0.0,83.2
2025-08-15T01:00:19.789Z,3,GR86-049-88,90.6,0.118,1.153,32.94,1.0,,0.0,0.0,
2025-08-15T01:00:19.832Z,3,GR86-049-88,91.2,-0.015,1.165,33.11,1.0,,0.0,0.0,
2025-08-15T01:00:19.875Z,3,GR86-049-88,92.4,0.061,1.132,32.980000000000004,1.0,,0.0,0.0,
2025-08-15T01:00:19.920Z,3,GR86-049-88,93.8,0.355,1.212,32.69,1.0,6257.0,0.0,0.0,
2025-08-15T01:00:19.963Z,3,GR86-049-88,93.8,0.278,1.198,32.71,1.0,,0.0,0.0,82.01
2025-08-15T01:00:20.006Z,3,GR86-049-88,93.9,0.096,1.478,32.93,1.0,,0.0,0.0,
2025-08-15T01:00:20.092Z,3,GR86-049-88,92.7,0.099,1.231,33.74,1.0,,0.0,0.0,
2025-08-15T01:00:20.135Z,3,GR86-049-88,91.7,0.146,1.337,33.94,1.0,6552.0,0.0,0.0,
2025-08-15T01:00:20.179Z,3,GR86-049-88,85.30000000000001,0.183,1.066,34.17,1.0,,0.0,0.0,81.24
2025-08-15T01:00:20.222Z,3,GR86-049-88,74.3,0.204,1.134,34.39,1.0,,0.0,0.0,
2025-08-15T01:00:20.265Z,3,GR86-049-88,56.3,0.294,1.315,34.45,1.0,,0.0,0.0,
2025-08-15T01:00:20.308Z,3,GR86-049-88,36.5,0.276,1.144,34.5,1.0,,0.0,0.0,
2025-08-15T01:00:20.351Z,3,GR86-049-88,21.9,0.229,1.31,34.76,1.0,6603.0,0.0,0.0,
2025-08-15T01:00:20.394Z,3,GR86-049-88,15.5,0.214,1.269,35.74,1.0,,0.0,0.0,81.61
2025-08-15T01:00:20.439Z,3,GR86-049-88,21.3,0.225,1.258,39.74,1.0,,0.0,0.0,
2025-08-15T01:00:20.481Z,3,GR86-049-88,31.6,0.271,1.216,62.4,1.0,,0.0,0.0,
2025-08-15T01:00:20.524Z,3,GR86-049-88,38.7,0.262,1.14,97.39,1.0,,0.0,0.0,
2025-08-15T01:00:20.567Z,3,GR86-049-88,42.0,0.284,1.128,100.12,1.0,6482.0,0.0,0.0,
2025-08-15T01:00:20.610Z,3,GR86-049-88,45.900000000000006,0.279,1.191,100.15,1.0,,0.0,0.0,81.81
2025-08-15T01:00:20.653Z,3,GR86-049-88,48.3,0.313,1.172,100.15,1.0,,0.0,0.0,
2025-08-15T01:00:20.740Z,3,GR86-049-88,9.4,0.349,1.163,100.12,1.0,,0.0,0.0,
2025-08-15T01:00:20.782Z,3,GR86-049-88,-12.7,0.343,1.017,100.12,1.0,6577.0,0.0,0.0,
2025-08-15T01:00:20.825Z,3,GR86-049-88,-27.4,0.347,0.975,100.13,1.0,,0.0,0.0,83.44
2025-08-15T01:00:20.868Z,3,GR86-049-88,-30.200000000000003,0.37,0.88,100.15,1.0,,0.0,0.0,
2025-08-15T01:00:20.911Z,3,GR86-049-88,-17.7,0.398,0.868,100.2,1.0,,0.0,0.0,
2025-08-15T01:00:20.954Z,3,GR86-049-88,2.4000000000000004,0.392,0.973,100.2,1.0,,0.0,0.0,
2025-08-15T01:00:20.997Z,3,GR86-049-88,13.3,0.413,1.142,100.15,1.0,6811.0,0.0,0.0,
2025-08-15T01:00:21.040Z,3,GR86-049-88,1.6,0.307,1.146,100.13,1.0,,0.0,0.0,83.99
2025-08-15T01:00:21.083Z,3,GR86-049-88,-14.6,0.233,1.09,100.15,1.0,,0.0,0.0,
2025-08-15T01:00:21.126Z,3,GR86-049-88,-20.8,0.315,1.024,100.16,1.0,,0.0,0.0,
2025-08-15T01:00:21.170Z,3,GR86-049-88,-17.1,0.422,0.947,100.15,1.0,,0.0,0.0,
2025-08-15T01:00:21.213Z,3,GR86-049-88,-5.7,0.472,0.986,100.15,1.0,6985.0,0.0,0.0,
2025-08-15T01:00:21.256Z,3,GR86-049-88,-1.7000000000000002,0.463,1.064,100.13,1.0,,0.0,0.0,85.76
2025-08-15T01:00:21.300Z,3,GR86-049-88,-9.6,0.396,1.019,100.13,1.0,,0.0,0.0,
2025-08-15T01:00:21.343Z,3,GR86-049-88,-15.9,0.334,0.849,100.1,1.0,,0.0,0.0,
2025-08-15T01:00:21.386Z,3,GR86-049-88,-15.7,0.309,0.834,100.16,1.0,,0.0,0.0,
2025-08-15T01:00:21.430Z,3,GR86-049-88,0.5,0.397,0.801,100.15,1.0,7193.0,0.0,0.0,
2025-08-15T01:00:21.473Z,3,GR86-049-88,23.8,0.33,0.903,100.17,1.0,,0.0,0.0,87.45
2025-08-15T01:00:21.516Z,3,GR86-049-88,41.5,0.083,0.896,100.13,1.0,,0.0,0.0,
2025-08-15T01:00:21.560Z,3,GR86-049-88,46.6,-0.022,0.648,100.11,1.0,,0.0,0.0,
2025-08-15T01:00:21.603Z,3,GR86-049-88,46.5,-0.021,0.487,100.08,1.0,,0.0,0.0,
2025-08-15T01:00:21.646Z,3,GR86-049-88,40.3,0.306,0.757,100.11,1.0,7123.0,0.0,0.0,
2025-08-15T01:00:21.689Z,3,GR86-049-88,32.4,0.386,0.618,100.09,1.0,,0.0,0.0,89.25
2025-08-15T01:00:21.732Z,3,GR86-049-88,28.9,0.588,0.444,100.1,1.0,,0.0,0.0,
2025-08-15T01:00:21.775Z,3,GR86-049-88,29.0,0.426,0.405,100.09,1.0,,0.0,0.0,
2025-08-15T01:00:21.820Z,3,GR86-049-88,44.1,0.491,0.4,100.09,1.0,,0.0,0.0,
2025-08-15T01:00:21.863Z,3,GR86-049-88,54.0,0.473,0.631,100.09,1.0,6553.0,0.0,0.0,
2025-08-15T01:00:21.906Z,3,GR86-049-88,56.2,0.329,0.282,100.09,1.0,,0.0,0.0,90.48
2025-08-15T01:00:21.950Z,3,GR86-049-88,54.5,0.055,0.214,100.08,1.0,,0.0,0.0,
2025-08-15T01:00:21.993Z,3,GR86-049-88,45.7,-0.052,0.659,100.07,1.0,,0.0,0.0,
2025-08-15T01:00:22.036Z,3,GR86-049-88,33.6,0.136,0.668,100.11,1.0,,0.0,0.0,
2025-08-15T01:00:22.080Z,3,GR86-049-88,24.700000000000003,0.111,0.601,100.08,1.0,7153.0,0.0,0.0,
2025-08-15T01:00:22.123Z,3,GR86-049-88,27.6,-0.039,0.903,100.09,1.0,,0.0,0.0,93.35
2025-08-15T01:00:22.166Z,3,GR86-049-88,30.700000000000003,0.05,0.758,100.08,1.0,,0.0,0.0,
2025-08-15T01:00:22.209Z,3,GR86-049-88,26.9,0.277,0.777,100.07,1.0,,0.0,0.0,
2025-08-15T01:00:22.252Z,3,GR86-049-88,18.8,0.336,0.858,100.07,1.0,,0.0,0.0,
2025-08-15T01:00:22.295Z,3,GR86-049-88,13.8,0.326,0.639,100.08,1.0,7196.0,0.0,0.0,
2025-08-15T01:00:22.339Z,3,GR86-049-88,19.1,-0.047,0.499,100.07,2.0,,0.0,0.0,95.34
2025-08-15T01:00:22.381Z,3,GR86-049-88,21.0,0.786,0.679,100.06,2.0,,0.0,0.0,
2025-08-15T01:00:22.425Z,3,GR86-049-88,22.3,0.58,0.318,100.07,2.0,,0.0,0.0,
2025-08-15T01:00:22.468Z,3,GR86-049-88,22.5,0.717,0.247,100.08,2.0,,0.0,0.0,
2025-08-15T01:00:22.511Z,3,GR86-049-88,22.4,-0.072,0.442,100.08,2.0,7201.0,0.0,0.0,
2025-08-15T01:00:22.554Z,3,GR86-049-88,25.5,-0.008,-0.024,100.08,2.0,,0.0,0.0,96.77
2025-08-15T01:00:22.597Z,3,GR86-049-88,27.1,0.131,0.46,100.05,2.0,,0.0,0.0,
2025-08-15T01:00:22.640Z,3,GR86-049-88,22.1,0.053,0.095,100.05,2.0,,0.0,0.0,
2025-08-15T01:00:22.683Z,3,GR86-049-88,14.5,-0.136,0.469,100.06,2.0,,0.0,0.0,
2025-08-15T01:00:22.726Z,3,GR86-049-88,11.4,0.225,0.268,100.05,2.0,6076.0,0.0,0.0,
2025-08-15T01:00:22.769Z,3,GR86-049-88,11.5,0.174,0.32,100.05,2.0,,0.0,0.0,97.7
2025-08-15T01:00:22.812Z,3,GR86-049-88,14.3,0.064,0.337,100.05,2.0,,0.0,0.0,
2025-08-15T01:00:22.899Z,3,GR86-049-88,15.8,0.181,0.241,100.05,2.0,,0.0,0.0,
2025-08-15T01:00:22.941Z,3,GR86-049-88,14.9,0.031,0.136,100.05,2.0,6118.0,0.0,0.0,
2025-08-15T01:00:22.984Z,3,GR86-049-88,12.6,-0.179,0.09,100.05,2.0,,0.0,0.0,100.1
2025-08-15T01:00:23.027Z,3,GR86-049-88,10.4,-0.215,0.054,100.06,2.0,,0.0,0.0,
2025-08-15T01:00:23.070Z,3,GR86-049-88,7.7,0.02,0.072,100.04,2.0,,0.0,0.0,
2025-08-15T01:00:23.113Z,3,GR86-049-88,5.800000000000001,0.154,0.209,100.05,2.0,,0.0,0.0,
2025-08-15T01:00:23.156Z,3,GR86-049-88,4.3,0.267,0.109,100.05,2.0,5995.0,0.0,0.0,
2025-08-15T01:00:23.200Z,3,GR86-049-88,4.4,0.259,0.143,100.04,2.0,,0.0,0.0,102.38
2025-08-15T01:00:23.242Z,3,GR86-049-88,4.6000000000000005,0.25,0.164,100.03,2.0,,0.0,0.0,
2025-08-15T01:00:23.285Z,3,GR86-049-88,4.6000000000000005,0.118,0.002,100.02,2.0,,0.0,0.0,
2025-08-15T01:00:23.328Z,3,GR86-049-88,4.6000000000000005,0.069,0.016,100.04,2.0,,0.0,0.0,
2025-08-15T01:00:23.371Z,3,GR86-049-88,4.5,0.093,-0.06,100.02,2.0,6215.0,0.0,0.0,
2025-08-15T01:00:23.415Z,3,GR86-049-88,4.4,0.119,-0.121,100.02,2.0,,0.0,0.0,103.65
2025-08-15T01:00:23.458Z,3,GR86-049-88,4.3,0.48,-0.148,100.02,2.0,,0.0,0.0,
2025-08-15T01:00:23.501Z,3,GR86-049-88,4.2,0.407,-0.145,100.02,2.0,,0.0,0.0,
2025-08-15T01:00:23.544Z,3,GR86-049-88,4.1000000000000005,0.352,-0.144,100.02,2.0,,0.0,0.0,
2025-08-15T01:00:23.587Z,3,GR86-049-88,4.1000000000000005,0.298,-0.098,100.01,2.0,6204.0,0.0,0.0,
2025-08-15T01:00:23.630Z,3,GR86-049-88,4.1000000000000005,0.309,-0.141,100.01,2.0,,0.0,0.0,106.03
2025-08-15T01:00:23.673Z,3,GR86-049-88,4.2,0.292,-0.114,100.0,2.0,,0.0,0.0,
2025-08-15T01:00:23.760Z,3,GR86-049-88,4.2,0.305,-0.101,100.01,2.0,,0.0,0.0,
2025-08-15T01:00:23.803Z,3,GR86-049-88,4.2,0.301,-0.129,100.0,2.0,6257.0,0.0,0.0,
2025-08-15T01:00:23.846Z,3,GR86-049-88,4.2,0.349,-0.056,100.0,2.0,,0.0,0.0,107.52
2025-08-15T01:00:23.889Z,3,GR86-049-88,4.2,0.295,-0.066,100.0,2.0,,0.0,0.0,
2025-08-15T01:00:23.932Z,3,GR86-049-88,4.2,0.294,-0.043,100.0,2.0,,0.0,0.0,
2025-08-15T01:00:23.975Z,3,GR86-049-88,4.2,0.269,-0.015,99.99,2.0,,0.0,0.0,
2025-08-15T01:00:24.063Z,3,GR86-049-88,4.2,0.27,-0.042,100.0,2.0,6346.0,0.0,0.0,109.23
2025-08-15T01:00:24.106Z,3,GR86-049-88,4.2,0.283,-0.045,100.0,2.0,,0.0,0.0,
2025-08-15T01:00:24.150Z,3,GR86-049-88,4.0,0.248,-0.084,100.0,2.0,,0.0,0.0,
2025-08-15T01:00:24.193Z,3,GR86-049-88,3.3000000000000003,0.269,-0.071,99.98,2.0,,0.0,0.0,
2025-08-15T01:00:24.236Z,3,GR86-049-88,2.8000000000000003,0.282,-0.074,100.0,2.0,6413.0,0.0,0.0,
2025-08-15T01:00:24.280Z,3,GR86-049-88,2.4000000000000004,0.291,-0.068,100.0,2.0,,0.0,0.0,110.77
2025-08-15T01:00:24.323Z,3,GR86-049-88,2.4000000000000004,0.273,-0.07,100.01,2.0,,0.0,0.0,
2025-08-15T01:00:24.366Z,3,GR86-049-88,2.4000000000000004,0.265,-0.048,100.0,2.0,,0.0,0.0,
2025-08-15T01:00:24.409Z,3,GR86-049-88,2.3000000000000003,0.254,-0.081,100.01,2.0,,0.0,0.0,
2025-08-15T01:00:24.452Z,3,GR86-049-88,2.3000000000000003,0.276,-0.079,100.0,2.0,6491.0,0.0,0.0,
2025-08-15T01:00:24.495Z,3,GR86-049-88,2.3000000000000003,0.298,-0.066,100.0,2.0,,0.0,0.0,112.48
2025-08-15T01:00:24.539Z,3,GR86-049-88,2.3000000000000003,0.282,-0.068,100.01,2.0,,0.0,0.0,
2025-08-15T01:00:24.582Z,3,GR86-049-88,2.3000000000000003,0.262,-0.083,100.0,2.0,,0.0,0.0,
2025-08-15T01:00:24.625Z,3,GR86-049-88,2.3000000000000003,0.262,-0.057,100.0,2.0,,0.0,0.0,
2025-08-15T01:00:24.668Z,3,GR86-049-88,2.3000000000000003,0.274,-0.063,100.0,2.0,6585.0,0.0,0.0,
2025-08-15T01:00:24.711Z,3,GR86-049-88,2.3000000000000003,0.285,-0.075,100.0,2.0,,0.0,0.0,113.99
2025-08-15T01:00:24.754Z,3,GR86-049-88,2.3000000000000003,0.283,-0.033,100.01,2.0,,0.0,0.0,
2025-08-15T01:00:24.797Z,3,GR86-049-88,2.3000000000000003,0.272,-0.058,100.0,2.0,,0.0,0.0,
2025-08-15T01:00:24.840Z,3,GR86-049-88,2.3000000000000003,0.272,-0.056,100.01,2.0,,0.0,0.0,
2025-08-15T01:00:24.883Z,3,GR86-049-88,2.3000000000000003,0.273,-0.062,100.03,2.0,6692.0,0.0,0.0,
2025-08-15T01:00:24.926Z,3,GR86-049-88,2.0,0.284,-0.029,100.01,2.0,,0.0,0.0,117.1
2025-08-15T01:00:24.969Z,3,GR86-049-88,1.3,0.268,-0.075,99.99,2.0,,0.0,0.0,
2025-08-15T01:00:25.012Z,3,GR86-049-88,1.0,0.281,-0.062,99.99,2.0,,0.0,0.0,
2025-08-15T01:00:25.055Z,3,GR86-049-88,0.9,0.284,-0.057,100.0,2.0,,0.0,0.0,
2025-08-15T01:00:25.099Z,3,GR86-049-88,0.3,0.271,-0.076,100.0,2.0,6769.0,0.0,0.0,
2025-08-15T01:00:25.184Z,3,GR86-049-88,0.1,0.281,-0.107,100.0,2.0,,0.0,0.0,118.55
2025-08-15T01:00:25.270Z,3,GR86-049-88,0.1,0.255,-0.135,100.0,2.0,,0.0,0.0,
2025-08-15T01:00:25.313Z,3,GR86-049-88,0.1,0.263,-0.112,100.0,2.0,6853.0,0.0,0.0,
2025-08-15T01:00:25.356Z,3,GR86-049-88,0.1,0.274,-0.107,99.99,2.0,,0.0,0.0,119.87
2025-08-15T01:00:25.400Z,3,GR86-049-88,0.4,0.287,-0.086,99.99,2.0,,0.0,0.0,
2025-08-15T01:00:25.486Z,3,GR86-049-88,1.2000000000000002,0.269,-0.082,99.98,2.0,,0.0,0.0,
2025-08-15T01:00:25.529Z,3,GR86-049-88,1.5,0.278,-0.072,99.99,2.0,7000.0,0.0,0.0,
2025-08-15T01:00:25.572Z,3,GR86-049-88,1.7000000000000002,0.251,-0.088,99.99,2.0,,0.0,0.0,121.12
2025-08-15T01:00:25.615Z,3,GR86-049-88,2.0,0.268,-0.044,100.01,2.0,,0.0,0.0,
2025-08-15T01:00:25.659Z,3,GR86-049-88,2.1,0.252,-0.019,99.99,2.0,,0.0,0.0,
2025-08-15T01:00:25.701Z,3,GR86-049-88,2.1,0.277,-0.002,99.99,2.0,,0.0,0.0,
2025-08-15T01:00:25.787Z,3,GR86-049-88,1.8,0.261,-0.058,100.0,2.0,7080.0,0.0,0.0,122.35
2025-08-15T01:00:25.830Z,3,GR86-049-88,1.8,0.274,-0.041,100.0,2.0,,0.0,0.0,
2025-08-15T01:00:25.873Z,3,GR86-049-88,1.8,0.251,-0.067,100.01,2.0,,0.0,0.0,
2025-08-15T01:00:25.916Z,3,GR86-049-88,1.8,0.243,-0.076,99.99,2.0,,0.0,0.0,
2025-08-15T01:00:25.960Z,3,GR86-049-88,1.8,0.234,-0.069,100.0,2.0,7140.0,0.0,0.0,
2025-08-15T01:00:26.003Z,3,GR86-049-88,1.8,0.261,-0.05,99.99,2.0,,0.0,0.0,123.59
2025-08-15T01:00:26.046Z,3,GR86-049-88,1.8,0.265,-0.067,100.0,2.0,,0.0,0.0,
2025-08-15T01:00:26.089Z,3,GR86-049-88,1.8,0.253,-0.093,99.98,2.0,,0.0,0.0,
2025-08-15T01:00:26.132Z,3,GR86-049-88,1.8,0.197,-0.056,99.99,2.0,,0.0,0.0,
2025-08-15T01:00:26.175Z,3,GR86-049-88,1.8,-0.078,-0.031,99.99,3.0,7203.0,0.0,0.0,
2025-08-15T01:00:26.220Z,3,GR86-049-88,1.8,0.497,-0.097,99.98,3.0,,0.0,0.0,124.79
2025-08-15T01:00:26.263Z,3,GR86-049-88,1.7000000000000002,0.41,-0.128,99.99,3.0,,0.0,0.0,
2025-08-15T01:00:26.349Z,3,GR86-049-88,1.8,0.33,0.049,99.98,3.0,,0.0,0.0,
2025-08-15T01:00:26.392Z,3,GR86-049-88,0.5,0.127,-0.118,99.99,3.0,7237.0,0.0,0.0,
2025-08-15T01:00:26.435Z,3,GR86-049-88,0.3,0.151,-0.027,99.99,3.0,,0.0,0.0,125.93
2025-08-15T01:00:26.479Z,3,GR86-049-88,0.3,0.241,-0.192,99.99,3.0,,0.0,0.0,
2025-08-15T01:00:26.523Z,3,GR86-049-88,1.0,0.212,-0.048,100.0,3.0,,0.0,0.0,
2025-08-15T01:00:26.566Z,3,GR86-049-88,1.3,0.225,-0.091,99.99,3.0,,0.0,0.0,
2025-08-15T01:00:26.609Z,3,GR86-049-88,1.4,0.179,-0.146,99.99,3.0,5849.0,0.0,0.0,
2025-08-15T01:00:26.695Z,3,GR86-049-88,3.0,0.275,-0.044,99.99,3.0,,0.0,0.0,126.87
2025-08-15T01:00:26.739Z,3,GR86-049-88,4.0,0.232,0.013,99.99,3.0,,0.0,0.0,
2025-08-15T01:00:26.781Z,3,GR86-049-88,4.0,0.235,-0.004,99.99,3.0,,0.0,0.0,
2025-08-15T01:00:26.824Z,3,GR86-049-88,4.0,0.172,-0.01,100.0,3.0,5975.0,0.0,0.0,
2025-08-15T01:00:26.867Z,3,GR86-049-88,4.5,0.198,0.052,99.99,3.0,,0.0,0.0,128.13
2025-08-15T01:00:26.910Z,3,GR86-049-88,4.9,0.283,0.069,100.0,3.0,,0.0,0.0,
2025-08-15T01:00:26.953Z,3,GR86-049-88,4.9,0.218,0.025,100.01,3.0,,0.0,0.0,
2025-08-15T01:00:26.996Z,3,GR86-049-88,4.9,0.159,0.057,100.0,3.0,,0.0,0.0,
2025-08-15T01:00:27.040Z,3,GR86-049-88,4.9,0.172,0.053,100.0,3.0,6040.0,0.0,0.0,
2025-08-15T01:00:27.082Z,3,GR86-049-88,5.300000000000001,0.225,0.099,83.22,3.0,,0.0,0.0,128.99
2025-08-15T01:00:27.125Z,3,GR86-049-88,6.4,0.265,0.09,10.63,3.0,,0.0,0.0,
2025-08-15T01:00:27.168Z,3,GR86-049-88,7.5,0.198,0.068,2.89,3.0,,0.0,0.0,
2025-08-15T01:00:27.211Z,3,GR86-049-88,9.0,0.048,0.107,2.69,3.0,,0.0,0.0,
2025-08-15T01:00:27.255Z,3,GR86-049-88,9.9,-0.066,0.212,2.63,3.0,6081.0,3.22,3.465,
2025-08-15T01:00:27.299Z,3,GR86-049-88,9.7,-0.406,0.166,2.56,3.0,,10.5,10.56,129.85
2025-08-15T01:00:27.343Z,3,GR86-049-88,9.3,-0.279,0.16,2.53,3.0,,16.025,16.055,
2025-08-15T01:00:27.430Z,3,GR86-049-88,9.4,-0.453,0.139,2.5,3.0,,33.1,32.87,
2025-08-15T01:00:27.473Z,3,GR86-049-88,9.5,-0.556,0.237,2.5,3.0,6127.0,43.43,43.2,
2025-08-15T01:00:27.516Z,3,GR86-049-88,9.5,-0.77,0.173,25.23,2.0,,56.63,55.975,130.75
2025-08-15T01:00:27.560Z,3,GR86-049-88,9.5,-0.932,0.148,30.02,2.0,,69.02,69.77,
2025-08-15T01:00:27.603Z,3,GR86-049-88,9.1,-0.971,0.226,4.94,2.0,,72.425,73.995,
2025-08-15T01:00:27.646Z,3,GR86-049-88,9.1,-1.156,0.147,4.01,2.0,,72.895,74.805,
2025-08-15T01:00:27.689Z,3,GR86-049-88,9.3,-1.055,0.171,3.79,2.0,5854.0,63.435,64.185,
2025-08-15T01:00:27.732Z,3,GR86-049-88,10.1,-1.01,0.315,3.5700000000000003,2.0,,56.22,57.620000000000005,128.15
2025-08-15T01:00:27.775Z,3,GR86-049-88,15.0,-0.988,0.247,3.38,2.0,,54.495000000000005,55.485,
2025-08-15T01:00:27.820Z,3,GR86-049-88,25.9,-1.16,0.507,3.02,2.0,,56.72,57.38,
2025-08-15T01:00:27.863Z,3,GR86-049-88,27.700000000000003,-0.942,0.532,2.79,2.0,,62.75,63.71,
2025-08-15T01:00:27.906Z,3,GR86-049-88,30.1,-0.854,0.562,2.65,2.0,5696.0,61.515,61.97,
2025-08-15T01:00:27.950Z,3,GR86-049-88,30.1,-0.859,0.759,2.57,2.0,,47.58,48.45,119.4
2025-08-15T01:00:27.993Z,3,GR86-049-88,27.1,-0.781,0.7000000000000001,2.5,2.0,,34.625,35.89,
2025-08-15T01:00:28.036Z,3,GR86-049-88,25.6,-0.495,0.58,2.5,2.0,,29.3,30.245,
2025-08-15T01:00:28.080Z,3,GR86-049-88,25.6,-0.654,0.724,2.48,2.0,,22.905,23.365,
2025-08-15T01:00:28.123Z,3,GR86-049-88,26.9,-0.63,0.623,2.47,2.0,5933.0,21.305,21.835,
2025-08-15T01:00:28.166Z,3,GR86-049-88,30.200000000000003,-0.471,0.593,2.47,2.0,,19.58,20.205,114.36
2025-08-15T01:00:28.209Z,3,GR86-049-88,35.6,-0.474,0.722,2.47,2.0,,15.78,16.19,
2025-08-15T01:00:28.252Z,3,GR86-049-88,40.900000000000006,-0.376,0.775,2.46,2.0,,11.4,11.935,
2025-08-15T01:00:28.295Z,3,GR86-049-88,44.1,-0.386,0.726,2.47,2.0,,10.15,10.5,
2025-08-15T01:00:28.339Z,3,GR86-049-88,45.7,-0.32,0.862,2.47,2.0,5964.0,8.73,9.095,
2025-08-15T01:00:28.381Z,3,GR86-049-88,48.7,-0.27,0.873,2.47,2.0,,5.905,6.455,109.34
2025-08-15T01:00:28.424Z,3,GR86-049-88,53.6,-0.242,0.921,2.47,2.0,,1.985,2.395,
2025-08-15T01:00:28.467Z,3,GR86-049-88,57.400000000000006,-0.2,1.013,2.46,2.0,,0.0,0.0,
2025-08-15T01:00:28.510Z,3,GR86-049-88,58.7,-0.161,1.012,2.47,2.0,,0.0,0.0,
2025-08-15T01:00:28.553Z,3,GR86-049-88,58.7,-0.137,1.0,2.47,2.0,5805.0,0.0,0.0,
2025-08-15T01:00:28.597Z,3,GR86-049-88,58.8,-0.148,1.099,2.47,2.0,,0.0,0.0,105.9
2025-08-15T01:00:28.640Z,3,GR86-049-88,58.8,-0.162,1.022,2.47,2.0,,0.0,0.0,
2025-08-15T01:00:28.683Z,3,GR86-049-88,58.8,-0.151,1.073,2.47,2.0,,0.0,0.0,
2025-08-15T01:00:28.726Z,3,GR86-049-88,58.7,-0.163,1.083,2.46,2.0,,0.0,0.0,
2025-08-15T01:00:28.769Z,3,GR86-049-88,56.2,-0.134,1.037,2.47,2.0,5721.0,0.0,0.0,
2025-08-15T01:00:28.812Z,3,GR86-049-88,56.0,-0.16,1.15,2.48,2.0,,0.0,0.0,104.0
2025-08-15T01:00:28.855Z,3,GR86-049-88,56.400000000000006,-0.164,1.128,2.47,2.0,,0.0,0.0,
2025-08-15T01:00:28.899Z,3,GR86-049-88,58.8,-0.152,1.162,3.24,2.0,,0.0,0.0,
2025-08-15T01:00:28.941Z,3,GR86-049-88,60.400000000000006,-0.183,1.262,4.03,2.0,,0.0,0.0,
2025-08-15T01:00:28.984Z,3,GR86-049-88,61.400000000000006,-0.152,1.209,4.6000000000000005,2.0,5616.0,0.0,0.0,
2025-08-15T01:00:29.027Z,3,GR86-049-88,61.6,-0.156,1.249,4.76,2.0,,0.0,0.0,102.63
2025-08-15T01:00:29.070Z,3,GR86-049-88,61.6,-0.151,1.196,6.890000000000001,2.0,,0.0,0.0,
2025-08-15T01:00:29.113Z,3,GR86-049-88,61.6,-0.167,1.257,13.89,2.0,,0.0,0.0,
2025-08-15T01:00:29.156Z,3,GR86-049-88,61.6,-0.157,1.227,18.36,2.0,,0.0,0.0,
2025-08-15T01:00:29.200Z,3,GR86-049-88,61.6,-0.106,1.241,20.23,2.0,5515.0,0.0,0.0,
2025-08-15T01:00:29.243Z,3,GR86-049-88,60.900000000000006,-0.139,1.324,21.52,2.0,,0.0,0.0,101.16
2025-08-15T01:00:29.286Z,3,GR86-049-88,58.8,-0.102,1.247,21.71,2.0,,0.0,0.0,
2025-08-15T01:00:29.330Z,3,GR86-049-88,53.8,-0.103,1.268,23.48,2.0,,0.0,0.0,
2025-08-15T01:00:29.372Z,3,GR86-049-88,45.400000000000006,-0.069,1.26,24.94,2.0,,0.0,0.0,
2025-08-15T01:00:29.415Z,3,GR86-049-88,37.2,0.085,1.195,25.36,2.0,5410.0,0.0,0.0,
2025-08-15T01:00:29.458Z,3,GR86-049-88,30.1,0.081,1.194,27.56,2.0,,0.0,0.0,99.61
2025-08-15T01:00:29.501Z,3,GR86-049-88,28.200000000000003,0.138,1.227,28.56,2.0,,0.0,0.0,
2025-08-15T01:00:29.544Z,3,GR86-049-88,27.700000000000003,0.113,1.11,30.35,2.0,,0.0,0.0,
2025-08-15T01:00:29.630Z,3,GR86-049-88,29.8,0.087,1.339,38.67,2.0,5512.0,0.0,0.0,
2025-08-15T01:00:29.673Z,3,GR86-049-88,34.2,0.15,1.375,53.2,2.0,,0.0,0.0,98.03
2025-08-15T01:00:29.716Z,3,GR86-049-88,36.1,0.213,1.328,64.66,2.0,,0.0,0.0,
2025-08-15T01:00:29.760Z,3,GR86-049-88,31.3,0.23,1.408,86.03,2.0,,0.0,0.0,
2025-08-15T01:00:29.802Z,3,GR86-049-88,24.700000000000003,0.289,1.208,83.48,2.0,,0.0,0.0,
2025-08-15T01:00:29.845Z,3,GR86-049-88,19.0,0.08,1.134,86.27,2.0,5682.0,0.0,0.0,
2025-08-15T01:00:29.889Z,3,GR86-049-88,12.3,0.09,1.202,76.19,2.0,,0.0,0.0,96.76
2025-08-15T01:00:29.932Z,3,GR86-049-88,5.6000000000000005,0.291,1.262,71.49,2.0,,0.0,0.0,
2025-08-15T01:00:29.975Z,3,GR86-049-88,-0.3,0.439,1.039,58.66,2.0,,0.0,0.0,
2025-08-15T01:00:30.020Z,3,GR86-049-88,-3.8,0.303,1.073,47.36,2.0,,0.0,0.0,
2025-08-15T01:00:30.063Z,3,GR86-049-88,-3.9,0.335,1.082,44.98,2.0,5771.0,0.0,0.0,
2025-08-15T01:00:30.106Z,3,GR86-049-88,-3.7,0.389,1.141,41.88,2.0,,0.0,0.0,96.38
2025-08-15T01:00:30.150Z,3,GR86-049-88,-3.9,0.297,1.176,42.75,2.0,,0.0,0.0,
2025-08-15T01:00:30.193Z,3,GR86-049-88,-6.0,0.305,1.195,43.26,2.0,,0.0,0.0,
2025-08-15T01:00:30.236Z,3,GR86-049-88,-11.8,0.252,1.157,43.16,2.0,,0.0,0.0,
2025-08-15T01:00:30.280Z,3,GR86-049-88,-14.6,0.198,1.066,43.1,2.0,5997.0,0.0,0.0,
2025-08-15T01:00:30.323Z,3,GR86-049-88,-2.8000000000000003,0.22,1.106,42.79,2.0,,0.0,0.0,97.57
2025-08-15T01:00:30.366Z,3,GR86-049-88,23.1,0.277,1.312,48.08,2.0,,0.0,0.0,
2025-08-15T01:00:30.409Z,3,GR86-049-88,53.1,0.265,1.241,88.0,2.0,,0.0,0.0,
2025-08-15T01:00:30.452Z,3,GR86-049-88,73.2,0.185,1.23,100.1,2.0,,0.0,0.0,
2025-08-15T01:00:30.495Z,3,GR86-049-88,75.7,0.157,1.173,100.12,2.0,6200.0,0.0,0.0,
2025-08-15T01:00:30.539Z,3,GR86-049-88,74.4,0.204,1.096,100.13,2.0,,0.0,0.0,98.79
2025-08-15T01:00:30.582Z,3,GR86-049-88,74.4,0.276,1.212,100.14,2.0,,0.0,0.0,
2025-08-15T01:00:30.625Z,3,GR86-049-88,74.7,0.323,1.162,100.14,2.0,,0.0,0.0,
2025-08-15T01:00:30.668Z,3,GR86-049-88,74.5,0.297,1.178,100.13,2.0,,0.0,0.0,
2025-08-15T01:00:30.711Z,3,GR86-049-88,73.3,0.232,1.077,100.12,2.0,5944.0,0.0,0.0,
2025-08-15T01:00:30.754Z,3,GR86-049-88,73.2,0.195,1.098,100.12,2.0,,0.0,0.0,99.04
2025-08-15T01:00:30.797Z,3,GR86-049-88,73.2,0.205,1.072,100.13,2.0,,0.0,0.0,
2025-08-15T01:00:30.883Z,3,GR86-049-88,73.0,0.243,1.094,100.12,2.0,,0.0,0.0,
2025-08-15T01:00:30.926Z,3,GR86-049-88,71.3,0.21,1.096,100.14,2.0,5921.0,0.0,0.0,
2025-08-15T01:00:30.969Z,3,GR86-049-88,68.5,0.243,1.096,100.13,2.0,,0.0,0.0,100.05
2025-08-15T01:00:31.012Z,3,GR86-049-88,67.9,0.24,1.132,100.13,2.0,,0.0,0.0,
2025-08-15T01:00:31.055Z,3,GR86-049-88,67.9,0.282,1.151,100.12,2.0,,0.0,0.0,
2025-08-15T01:00:31.099Z,3,GR86-049-88,67.7,0.268,1.202,100.12,2.0,,0.0,0.0,
2025-08-15T01:00:31.184Z,3,GR86-049-88,65.60000000000001,0.221,1.154,100.11,2.0,6059.0,0.0,0.0,101.89
2025-08-15T01:00:31.227Z,3,GR86-049-88,62.5,0.225,1.176,100.09,2.0,,0.0,0.0,
2025-08-15T01:00:31.270Z,3,GR86-049-88,58.2,0.231,1.138,100.11,2.0,,0.0,0.0,
2025-08-15T01:00:31.313Z,3,GR86-049-88,55.400000000000006,0.26,1.139,100.1,2.0,,0.0,0.0,
2025-08-15T01:00:31.356Z,3,GR86-049-88,52.900000000000006,0.179,1.166,100.09,2.0,6135.0,0.0,0.0,
2025-08-15T01:00:31.400Z,3,GR86-049-88,46.3,0.251,0.526,100.09,2.0,,0.0,0.0,103.9
2025-08-15T01:00:31.443Z,3,GR86-049-88,43.3,0.124,0.889,100.1,2.0,,0.0,0.0,
2025-08-15T01:00:31.486Z,3,GR86-049-88,41.0,0.083,0.777,100.11,2.0,,0.0,0.0,
2025-08-15T01:00:31.529Z,3,GR86-049-88,37.7,0.119,0.84,100.09,2.0,,0.0,0.0,
2025-08-15T01:00:31.572Z,3,GR86-049-88,32.9,0.229,1.074,100.07,2.0,6251.0,0.0,0.0,
2025-08-15T01:00:31.615Z,3,GR86-049-88,27.6,0.161,1.086,100.09,2.0,,0.0,0.0,105.47
2025-08-15T01:00:31.658Z,3,GR86-049-88,19.8,0.18,1.044,100.08,2.0,,0.0,0.0,
2025-08-15T01:00:31.701Z,3,GR86-049-88,16.1,0.22,1.079,100.08,2.0,,0.0,0.0,
2025-08-15T01:00:31.744Z,3,GR86-049-88,15.4,0.303,1.083,100.09,2.0,,0.0,0.0,
2025-08-15T01:00:31.787Z,3,GR86-049-88,15.7,0.403,1.282,100.08,2.0,6334.0,0.0,0.0,
2025-08-15T01:00:31.830Z,3,GR86-049-88,17.7,0.5,1.122,100.08,2.0,,0.0,0.0,107.29
2025-08-15T01:00:31.873Z,3,GR86-049-88,18.8,0.504,1.0,100.07,2.0,,0.0,0.0,
2025-08-15T01:00:31.916Z,3,GR86-049-88,18.8,0.496,0.847,100.09,2.0,,0.0,0.0,
2025-08-15T01:00:31.960Z,3,GR86-049-88,18.5,0.13,0.74,100.08,2.0,,0.0,0.0,
2025-08-15T01:00:32.002Z,3,GR86-049-88,18.5,0.216,0.55,100.09,2.0,6616.0,0.0,0.0,
2025-08-15T01:00:32.046Z,3,GR86-049-88,18.6,0.351,0.72,100.05,2.0,,0.0,0.0,108.75
2025-08-15T01:00:32.089Z,3,GR86-049-88,18.9,0.409,0.6920000000000001,100.05,2.0,,0.0,0.0,
2025-08-15T01:00:32.132Z,3,GR86-049-88,19.4,0.404,0.673,100.07,2.0,,0.0,0.0,
2025-08-15T01:00:32.175Z,3,GR86-049-88,19.700000000000003,0.38,0.618,100.06,2.0,,0.0,0.0,
2025-08-15T01:00:32.220Z,3,GR86-049-88,19.8,0.075,0.577,100.05,2.0,6456.0,0.0,0.0,
2025-08-15T01:00:32.263Z,3,GR86-049-88,19.6,0.132,0.307,100.05,2.0,,0.0,0.0,109.59
2025-08-15T01:00:32.306Z,3,GR86-049-88,19.4,0.174,0.44,100.05,2.0,,0.0,0.0,
2025-08-15T01:00:32.349Z,3,GR86-049-88,19.200000000000003,0.227,0.481,100.04,2.0,,0.0,0.0,
2025-08-15T01:00:32.392Z,3,GR86-049-88,19.200000000000003,0.17,0.384,100.03,2.0,,0.0,0.0,
2025-08-15T01:00:32.435Z,3,GR86-049-88,19.200000000000003,0.261,0.443,100.03,2.0,6572.0,0.0,0.0,
2025-08-15T01:00:32.479Z,3,GR86-049-88,19.3,0.33,0.337,100.02,2.0,,0.0,0.0,110.81
2025-08-15T01:00:32.523Z,3,GR86-049-88,20.0,0.225,0.273,100.04,2.0,,0.0,0.0,
2025-08-15T01:00:32.609Z,3,GR86-049-88,22.200000000000003,0.089,0.342,100.02,2.0,,0.0,0.0,
2025-08-15T01:00:32.652Z,3,GR86-049-88,22.3,0.227,0.264,100.02,2.0,6638.0,0.0,0.0,
2025-08-15T01:00:32.695Z,3,GR86-049-88,22.200000000000003,0.281,0.38,100.02,2.0,,0.0,0.0,112.98
2025-08-15T01:00:32.739Z,3,GR86-049-88,22.200000000000003,0.254,0.448,100.0,2.0,,0.0,0.0,
2025-08-15T01:00:32.781Z,3,GR86-049-88,22.1,0.316,0.384,100.0,2.0,,0.0,0.0,
2025-08-15T01:00:32.824Z,3,GR86-049-88,22.0,0.237,0.194,100.0,2.0,,0.0,0.0,
2025-08-15T01:00:32.867Z,3,GR86-049-88,21.200000000000003,0.278,0.432,100.0,2.0,6698.0,0.0,0.0,
2025-08-15T01:00:32.910Z,3,GR86-049-88,19.6,0.293,0.303,99.99,2.0,,0.0,0.0,115.2
2025-08-15T01:00:32.953Z,3,GR86-049-88,19.5,0.275,0.313,100.01,2.0,,0.0,0.0,
2025-08-15T01:00:33.040Z,3,GR86-049-88,19.8,0.319,0.498,100.0,2.0,,0.0,0.0,
2025-08-15T01:00:33.083Z,3,GR86-049-88,20.6,0.238,0.423,99.98,2.0,6799.0,0.0,0.0,
2025-08-15T01:00:33.126Z,3,GR86-049-88,20.5,0.251,0.397,100.0,2.0,,0.0,0.0,118.84
2025-08-15T01:00:33.170Z,3,GR86-049-88,19.5,0.261,0.362,100.0,2.0,,0.0,0.0,
2025-08-15T01:00:33.213Z,3,GR86-049-88,16.400000000000002,0.286,0.367,100.02,2.0,,0.0,0.0,
2025-08-15T01:00:33.256Z,3,GR86-049-88,12.1,0.28,0.317,100.0,2.0,,0.0,0.0,
2025-08-15T01:00:33.300Z,3,GR86-049-88,7.0,0.251,0.219,99.99,2.0,6983.0,0.0,0.0,
2025-08-15T01:00:33.343Z,3,GR86-049-88,5.2,0.251,0.249,100.02,2.0,,0.0,0.0,120.8
2025-08-15T01:00:33.386Z,3,GR86-049-88,3.8,0.272,0.125,99.99,2.0,,0.0,0.0,
2025-08-15T01:00:33.430Z,3,GR86-049-88,1.6,0.235,0.003,100.0,2.0,,0.0,0.0,
2025-08-15T01:00:33.473Z,3,GR86-049-88,-0.6000000000000001,0.257,0.009,100.0,2.0,,0.0,0.0,
2025-08-15T01:00:33.516Z,3,GR86-049-88,-2.6,0.265,-0.1,99.99,2.0,7031.0,0.0,0.0,
2025-08-15T01:00:33.560Z,3,GR86-049-88,-4.800000000000001,0.252,-0.185,99.99,2.0,,0.0,0.0,122.6
2025-08-15T01:00:33.603Z,3,GR86-049-88,-5.5,0.242,-0.271,99.99,2.0,,0.0,0.0,
2025-08-15T01:00:33.646Z,3,GR86-049-88,-5.5,0.227,-0.299,100.0,2.0,,0.0,0.0,
2025-08-15T01:00:33.689Z,3,GR86-049-88,-5.4,0.239,-0.283,99.99,2.0,,0.0,0.0,
2025-08-15T01:00:33.732Z,3,GR86-049-88,-4.7,0.212,-0.325,99.98,2.0,7220.0,0.0,0.0,
2025-08-15T01:00:33.775Z,3,GR86-049-88,-4.2,0.027,-0.333,99.97,3.0,,0.0,0.0,124.42
2025-08-15T01:00:33.820Z,3,GR86-049-88,-2.6,0.506,-0.232,100.01,3.0,,0.0,0.0,
2025-08-15T01:00:33.906Z,3,GR86-049-88,-1.1,0.418,-0.235,99.99,3.0,,0.0,0.0,
2025-08-15T01:00:33.993Z,3,GR86-049-88,-1.1,0.283,-0.146,99.99,3.0,7298.0,0.0,0.0,126.28
2025-08-15T01:00:34.036Z,3,GR86-049-88,-1.0,0.142,-0.14,100.0,3.0,,0.0,0.0,
2025-08-15T01:00:34.080Z,3,GR86-049-88,-1.5,0.296,-0.145,100.0,3.0,,0.0,0.0,
2025-08-15T01:00:34.123Z,3,GR86-049-88,-1.8,0.277,-0.234,100.0,3.0,,0.0,0.0,
2025-08-15T01:00:34.166Z,3,GR86-049-88,-3.3000000000000003,0.182,-0.171,99.99,3.0,6137.0,0.0,0.0,
2025-08-15T01:00:34.209Z,3,GR86-049-88,-5.0,0.163,-0.218,99.99,3.0,,0.0,0.0,127.86
2025-08-15T01:00:34.252Z,3,GR86-049-88,-5.4,0.235,-0.237,99.98,3.0,,0.0,0.0,
2025-08-15T01:00:34.339Z,3,GR86-049-88,-5.300000000000001,0.215,-0.276,100.0,3.0,,0.0,0.0,
2025-08-15T01:00:34.381Z,3,GR86-049-88,-4.6000000000000005,0.17,-0.313,99.98,3.0,6147.0,0.0,0.0,
2025-08-15T01:00:34.425Z,3,GR86-049-88,-4.6000000000000005,0.188,-0.258,100.0,3.0,,0.0,0.0,129.94
2025-08-15T01:00:34.468Z,3,GR86-049-88,-4.6000000000000005,0.258,-0.258,100.01,3.0,,0.0,0.0,
2025-08-15T01:00:34.511Z,3,GR86-049-88,-4.6000000000000005,0.198,-0.317,99.99,3.0,,0.0,0.0,
2025-08-15T01:00:34.554Z,3,GR86-049-88,-4.800000000000001,0.165,-0.29,100.01,3.0,,0.0,0.0,
2025-08-15T01:00:34.597Z,3,GR86-049-88,-5.9,0.209,-0.292,100.0,3.0,6198.0,0.0,0.0,
2025-08-15T01:00:34.640Z,3,GR86-049-88,-8.3,0.167,-0.319,100.0,3.0,,0.0,0.0,131.63
2025-08-15T01:00:34.683Z,3,GR86-049-88,-10.8,0.242,-0.355,99.99,3.0,,0.0,0.0,
2025-08-15T01:00:34.726Z,3,GR86-049-88,-16.2,0.217,-0.457,100.02,3.0,,0.0,0.0,
2025-08-15T01:00:34.769Z,3,GR86-049-88,-19.1,0.15,-0.514,100.0,3.0,,0.0,0.0,
2025-08-15T01:00:34.812Z,3,GR86-049-88,-20.5,0.172,-0.527,100.0,3.0,6271.0,0.0,0.0,
2025-08-15T01:00:34.855Z,3,GR86-049-88,-20.6,0.22,-0.5690000000000001,100.0,3.0,,0.0,0.0,133.29
2025-08-15T01:00:34.899Z,3,GR86-049-88,-20.6,0.212,-0.633,100.0,3.0,,0.0,0.0,
2025-08-15T01:00:34.984Z,3,GR86-049-88,-21.9,0.244,-0.6940000000000001,100.01,3.0,,0.0,0.0,
2025-08-15T01:00:35.028Z,3,GR86-049-88,-29.3,0.121,-0.865,73.06,3.0,6356.0,0.0,0.0,
2025-08-15T01:00:35.071Z,3,GR86-049-88,-29.4,0.18,-0.897,53.86,3.0,,0.0,0.0,134.98
2025-08-15T01:00:35.114Z,3,GR86-049-88,-28.6,0.227,-0.899,46.42,3.0,,0.0,0.0,
2025-08-15T01:00:35.157Z,3,GR86-049-88,-28.6,0.147,-0.896,44.24,3.0,,0.0,0.0,
2025-08-15T01:00:35.200Z,3,GR86-049-88,-29.6,0.18,-0.876,38.7,3.0,,0.0,0.0,
2025-08-15T01:00:35.243Z,3,GR86-049-88,-31.200000000000003,0.084,-0.91,36.3,3.0,6448.0,0.0,0.0,
2025-08-15T01:00:35.286Z,3,GR86-049-88,-31.1,0.068,-0.932,34.75,3.0,,0.0,0.0,136.56
2025-08-15T01:00:35.329Z,3,GR86-049-88,-26.3,0.122,-0.884,34.36,3.0,,0.0,0.0,
2025-08-15T01:00:35.372Z,3,GR86-049-88,-24.700000000000003,0.147,-0.864,34.03,3.0,,0.0,0.0,
2025-08-15T01:00:35.415Z,3,GR86-049-88,-24.700000000000003,0.062,-0.93,33.62,3.0,,0.0,0.0,
2025-08-15T01:00:35.501Z,3,GR86-049-88,-26.9,0.114,-0.958,32.72,3.0,6524.0,0.0,0.0,138.11
2025-08-15T01:00:35.544Z,3,GR86-049-88,-33.6,0.026,-1.07,31.92,3.0,,0.0,0.0,
2025-08-15T01:00:35.587Z,3,GR86-049-88,-33.6,0.097,-1.04,31.91,3.0,,0.0,0.0,
2025-08-15T01:00:35.630Z,3,GR86-049-88,-33.2,0.096,-1.013,31.79,3.0,,0.0,0.0,
2025-08-15T01:00:35.673Z,3,GR86-049-88,-31.6,0.047,-0.985,31.33,3.0,6557.0,0.0,0.0,
2025-08-15T01:00:35.716Z,3,GR86-049-88,-31.200000000000003,0.012,-0.96,31.15,3.0,,0.0,0.0,139.22
2025-08-15T01:00:35.760Z,3,GR86-049-88,-32.6,0.021,-1.002,31.06,3.0,,0.0,0.0,
2025-08-15T01:00:35.845Z,3,GR86-049-88,-37.3,0.01,-1.044,31.21,3.0,,0.0,0.0,
2025-08-15T01:00:35.889Z,3,GR86-049-88,-43.6,0.088,-1.064,32.43,3.0,6593.0,0.0,0.0,
2025-08-15T01:00:35.932Z,3,GR86-049-88,-47.0,0.028,-1.091,33.29,3.0,,0.0,0.0,140.76
2025-08-15T01:00:35.975Z,3,GR86-049-88,-53.0,-0.007,-1.128,33.8,3.0,,0.0,0.0,
2025-08-15T01:00:36.063Z,3,GR86-049-88,-58.7,0.024,-1.13,34.36,3.0,,0.0,0.0,
2025-08-15T01:00:36.150Z,3,GR86-049-88,-47.7,0.053,-1.152,35.76,3.0,6620.0,0.0,0.0,141.31
2025-08-15T01:00:36.193Z,3,GR86-049-88,-38.0,0.068,-1.187,37.54,3.0,,0.0,0.0,
2025-08-15T01:00:36.236Z,3,GR86-049-88,-46.3,0.041,-1.111,37.49,3.0,,0.0,0.0,
2025-08-15T01:00:36.280Z,3,GR86-049-88,-54.0,0.036,-1.117,37.11,3.0,,0.0,0.0,
2025-08-15T01:00:36.323Z,3,GR86-049-88,-54.0,0.018,-1.096,37.12,3.0,6693.0,0.0,0.0,
2025-08-15T01:00:36.366Z,3,GR86-049-88,-50.400000000000006,0.072,-1.206,37.24,3.0,,0.0,0.0,141.29
2025-08-15T01:00:36.409Z,3,GR86-049-88,-46.0,0.12,-1.163,38.39,3.0,,0.0,0.0,
2025-08-15T01:00:36.452Z,3,GR86-049-88,-45.2,0.061,-1.227,40.99,3.0,,0.0,0.0,
2025-08-15T01:00:36.495Z,3,GR86-049-88,-42.900000000000006,0.012,-1.21,41.55,3.0,,0.0,0.0,
2025-08-15T01:00:36.539Z,3,GR86-049-88,-33.5,0.063,-1.355,52.17,3.0,6724.0,0.0,0.0,
2025-08-15T01:00:36.582Z,3,GR86-049-88,-30.8,0.04,-1.359,93.28,3.0,,0.0,0.0,141.62
2025-08-15T01:00:36.625Z,3,GR86-049-88,-28.700000000000003,0.096,-1.424,100.08,3.0,,0.0,0.0,
2025-08-15T01:00:36.669Z,3,GR86-049-88,-25.5,0.159,-1.361,100.17,3.0,,0.0,0.0,
2025-08-15T01:00:36.711Z,3,GR86-049-88,-24.0,0.126,-1.218,100.17,3.0,,0.0,0.0,
2025-08-15T01:00:36.754Z,3,GR86-049-88,-24.4,0.129,-1.145,100.18,3.0,6772.0,0.0,0.0,
2025-08-15T01:00:36.797Z,3,GR86-049-88,-24.9,0.247,-0.978,100.14,3.0,,0.0,0.0,141.67000000000002
2025-08-15T01:00:36.840Z,3,GR86-049-88,-25.1,0.228,-0.971,100.17,3.0,,0.0,0.0,
2025-08-15T01:00:36.926Z,3,GR86-049-88,-24.9,0.068,-0.848,100.18,3.0,,0.0,0.0,
2025-08-15T01:00:36.969Z,3,GR86-049-88,-18.1,0.147,-1.153,100.14,3.0,6833.0,0.0,0.0,
2025-08-15T01:00:37.012Z,3,GR86-049-88,-13.3,0.407,-1.231,100.12,3.0,,0.0,0.0,143.22
2025-08-15T01:00:37.055Z,3,GR86-049-88,-11.5,0.422,-1.031,100.13,3.0,,0.0,0.0,
2025-08-15T01:00:37.099Z,3,GR86-049-88,-10.7,0.242,-1.114,100.16,3.0,,0.0,0.0,
