timestamp,lap,vehicle_id,steering_angle,accx_can,accy_can,ath,gear,nmot,pbrake_f,pbrake_r,speed
2025-08-15T01:09:34.009Z,8,GR86-062-012,5.0,0.151,0.033,99.95,4.0,7093.0,0.0,0.0,
2025-08-15T01:09:34.053Z,8,GR86-062-012,4.9,0.127,0.014,99.96,4.0,,0.0,0.0,182.14
2025-08-15T01:09:34.095Z,8,GR86-062-012,4.9,0.136,-0.001,99.96,4.0,,0.0,0.0,
2025-08-15T01:09:34.138Z,8,GR86-062-012,4.800000000000001,0.128,-0.007,99.96,4.0,,0.0,0.0,
2025-08-15T01:09:34.181Z,8,GR86-062-012,4.800000000000001,0.124,-0.01,99.99,4.0,,0.0,0.0,
2025-08-15T01:09:34.225Z,8,GR86-062-012,4.800000000000001,0.141,-0.021,99.97,4.0,7161.0,0.0,0.0,
2025-08-15T01:09:34.268Z,8,GR86-062-012,4.800000000000001,0.138,-0.034,99.97,4.0,,0.0,0.0,182.14
2025-08-15T01:09:34.311Z,8,GR86-062-012,4.800000000000001,0.131,-0.024,99.95,4.0,,0.0,0.0,
2025-08-15T01:09:34.354Z,8,GR86-062-012,4.6000000000000005,0.144,-0.034,99.96,4.0,,0.0,0.0,
2025-08-15T01:09:34.397Z,8,GR86-062-012,4.5,0.163,-0.038,99.96,4.0,,0.0,0.0,
2025-08-15T01:09:34.440Z,8,GR86-062-012,4.5,0.167,-0.034,99.96,4.0,7193.0,0.0,0.0,
2025-08-15T01:09:34.484Z,8,GR86-062-012,4.5,0.155,-0.029,100.0,4.0,,0.0,0.0,183.02
2025-08-15T01:09:34.527Z,8,GR86-062-012,4.5,0.153,-0.019,99.95,4.0,,0.0,0.0,
2025-08-15T01:09:34.570Z,8,GR86-062-012,4.5,0.149,-0.029,99.96,4.0,,0.0,0.0,
2025-08-15T01:09:34.614Z,8,GR86-062-012,4.4,0.121,-0.035,99.95,4.0,,0.0,0.0,
2025-08-15T01:09:34.658Z,8,GR86-062-012,4.3,0.127,-0.038,99.97,4.0,7227.0,0.0,0.0,
2025-08-15T01:09:34.700Z,8,GR86-062-012,4.1000000000000005,0.129,-0.032,99.97,4.0,,0.0,0.0,183.74
2025-08-15T01:09:34.744Z,8,GR86-062-012,3.8,0.135,-0.042,99.95,4.0,,0.0,0.0,
2025-08-15T01:09:34.786Z,8,GR86-062-012,3.7,0.137,-0.036,99.94,4.0,,0.0,0.0,
2025-08-15T01:09:34.829Z,8,GR86-062-012,3.7,0.134,-0.039,99.96,4.0,,0.0,0.0,
2025-08-15T01:09:34.873Z,8,GR86-062-012,3.7,0.133,-0.044,99.96,4.0,7250.0,0.0,0.0,
2025-08-15T01:09:34.917Z,8,GR86-062-012,3.7,0.135,-0.083,99.95,4.0,,0.0,0.0,184.63
2025-08-15T01:09:34.960Z,8,GR86-062-012,3.7,0.119,-0.088,99.95,4.0,,0.0,0.0,
2025-08-15T01:09:35.004Z,8,GR86-062-012,3.8,-0.083,-0.055,99.98,5.0,,0.0,0.0,
2025-08-15T01:09:35.046Z,8,GR86-062-012,3.8,0.151,-0.021,99.99,5.0,,0.0,0.0,
2025-08-15T01:09:35.089Z,8,GR86-062-012,3.8,0.233,-0.109,99.96,5.0,7283.0,0.0,0.0,
2025-08-15T01:09:35.134Z,8,GR86-062-012,3.9,0.145,-0.041,99.99,5.0,,0.0,0.0,185.42
2025-08-15T01:09:35.177Z,8,GR86-062-012,3.9,0.018,-0.041,99.98,5.0,,0.0,0.0,
2025-08-15T01:09:35.220Z,8,GR86-062-012,3.9,0.123,-0.129,99.96,5.0,,0.0,0.0,
2025-08-15T01:09:35.264Z,8,GR86-062-012,4.1000000000000005,0.209,-0.032,99.95,5.0,,0.0,0.0,
2025-08-15T01:09:35.307Z,8,GR86-062-012,4.1000000000000005,0.129,-0.081,99.96,5.0,6920.0,0.0,0.0,
2025-08-15T01:09:35.350Z,8,GR86-062-012,4.1000000000000005,0.086,-0.077,99.96,5.0,,0.0,0.0,186.32
2025-08-15T01:09:35.394Z,8,GR86-062-012,3.8,0.132,-0.059,99.97,5.0,,0.0,0.0,
2025-08-15T01:09:35.437Z,8,GR86-062-012,4.0,0.112,-0.086,99.98,5.0,,0.0,0.0,
2025-08-15T01:09:35.480Z,8,GR86-062-012,4.1000000000000005,0.097,-0.049,99.98,5.0,,0.0,0.0,
2025-08-15T01:09:35.526Z,8,GR86-062-012,4.1000000000000005,0.108,-0.065,99.98,5.0,6435.0,0.0,0.0,
2025-08-15T01:09:35.570Z,8,GR86-062-012,4.2,0.143,-0.043,99.94,5.0,,0.0,0.0,186.98
2025-08-15T01:09:35.613Z,8,GR86-062-012,4.4,0.117,-0.049,99.96,5.0,,0.0,0.0,
2025-08-15T01:09:35.656Z,8,GR86-062-012,4.4,0.106,-0.023,99.97,5.0,,0.0,0.0,
2025-08-15T01:09:35.700Z,8,GR86-062-012,4.5,0.118,-0.01,99.96,5.0,,0.0,0.0,
2025-08-15T01:09:35.744Z,8,GR86-062-012,4.5,0.098,-0.024,99.97,5.0,6375.0,0.0,0.0,
2025-08-15T01:09:35.786Z,8,GR86-062-012,4.5,0.093,-0.054,99.98,5.0,,0.0,0.0,187.65
2025-08-15T01:09:35.829Z,8,GR86-062-012,4.5,0.107,-0.018,99.96,5.0,,0.0,0.0,
2025-08-15T01:09:35.873Z,8,GR86-062-012,4.5,0.129,-0.027,99.98,5.0,,0.0,0.0,
2025-08-15T01:09:35.917Z,8,GR86-062-012,4.5,0.114,-0.003,99.96,5.0,,0.0,0.0,
2025-08-15T01:09:35.960Z,8,GR86-062-012,4.5,0.124,-0.028,99.96,5.0,6406.0,0.0,0.0,
2025-08-15T01:09:36.004Z,8,GR86-062-012,4.5,0.131,-0.035,99.95,5.0,,0.0,0.0,188.29
2025-08-15T01:09:36.046Z,8,GR86-062-012,4.5,0.118,-0.034,99.97,5.0,,0.0,0.0,
2025-08-15T01:09:36.089Z,8,GR86-062-012,4.4,0.115,-0.032,99.99,5.0,,0.0,0.0,
2025-08-15T01:09:36.134Z,8,GR86-062-012,4.4,0.125,-0.027,99.97,5.0,,0.0,0.0,
2025-08-15T01:09:36.177Z,8,GR86-062-012,4.4,0.125,-0.041,99.96,5.0,6432.0,0.0,0.0,
2025-08-15T01:09:36.220Z,8,GR86-062-012,4.3,0.11,-0.058,99.95,5.0,,0.0,0.0,189.09
2025-08-15T01:09:36.264Z,8,GR86-062-012,4.3,0.118,-0.062,99.96,5.0,,0.0,0.0,
2025-08-15T01:09:36.306Z,8,GR86-062-012,4.3,0.121,-0.04,99.97,5.0,,0.0,0.0,
2025-08-15T01:09:36.349Z,8,GR86-062-012,4.3,0.116,-0.045,99.96,5.0,,0.0,0.0,
2025-08-15T01:09:36.393Z,8,GR86-062-012,4.3,0.098,-0.049,99.97,5.0,6450.0,0.0,0.0,
2025-08-15T01:09:36.435Z,8,GR86-062-012,4.3,0.104,-0.065,99.95,5.0,,0.0,0.0,190.33
2025-08-15T01:09:36.478Z,8,GR86-062-012,4.3,0.123,-0.061,99.96,5.0,,0.0,0.0,
2025-08-15T01:09:36.521Z,8,GR86-062-012,4.3,0.112,-0.056,99.97,5.0,,0.0,0.0,
2025-08-15T01:09:36.564Z,8,GR86-062-012,4.3,0.113,-0.048,99.99,5.0,,0.0,0.0,
2025-08-15T01:09:36.607Z,8,GR86-062-012,4.3,0.118,-0.073,99.94,5.0,6465.0,0.0,0.0,
2025-08-15T01:09:36.650Z,8,GR86-062-012,4.3,0.118,-0.077,99.96,5.0,,0.0,0.0,190.96
2025-08-15T01:09:36.694Z,8,GR86-062-012,4.3,0.097,-0.052,99.96,5.0,,0.0,0.0,
2025-08-15T01:09:36.737Z,8,GR86-062-012,4.4,0.109,-0.045,99.97,5.0,,0.0,0.0,
2025-08-15T01:09:36.780Z,8,GR86-062-012,4.4,0.112,-0.035,99.96,5.0,,0.0,0.0,
2025-08-15T01:09:36.824Z,8,GR86-062-012,4.4,0.118,-0.035,99.95,5.0,6498.0,0.0,0.0,
2025-08-15T01:09:36.866Z,8,GR86-062-012,4.5,0.116,-0.027,99.95,5.0,,0.0,0.0,191.7
2025-08-15T01:09:36.909Z,8,GR86-062-012,4.5,0.106,-0.027,99.96,5.0,,0.0,0.0,
2025-08-15T01:09:36.953Z,8,GR86-062-012,4.5,0.107,-0.033,99.96,5.0,,0.0,0.0,
2025-08-15T01:09:36.995Z,8,GR86-062-012,4.5,0.088,-0.035,99.98,5.0,,0.0,0.0,
2025-08-15T01:09:37.038Z,8,GR86-062-012,4.5,0.107,-0.037,99.94,5.0,6540.0,0.0,0.0,
2025-08-15T01:09:37.081Z,8,GR86-062-012,4.5,0.099,-0.028,99.96,5.0,,0.0,0.0,192.32
2025-08-15T01:09:37.125Z,8,GR86-062-012,4.5,0.116,-0.018,99.97,5.0,,0.0,0.0,
2025-08-15T01:09:37.168Z,8,GR86-062-012,4.5,0.12,-0.025,99.96,5.0,,0.0,0.0,
2025-08-15T01:09:37.211Z,8,GR86-062-012,4.5,0.109,-0.038,99.95,5.0,,0.0,0.0,
2025-08-15T01:09:37.254Z,8,GR86-062-012,4.5,0.102,-0.034,99.94,5.0,6560.0,0.0,0.0,
2025-08-15T01:09:37.297Z,8,GR86-062-012,4.5,0.102,-0.038,99.95,5.0,,0.0,0.0,192.99
2025-08-15T01:09:37.340Z,8,GR86-062-012,4.5,0.09,-0.045,99.95,5.0,,0.0,0.0,
2025-08-15T01:09:37.385Z,8,GR86-062-012,4.5,0.108,-0.054,99.97,5.0,,0.0,0.0,
2025-08-15T01:09:37.427Z,8,GR86-062-012,4.5,0.104,-0.034,99.97,5.0,,0.0,0.0,
2025-08-15T01:09:37.470Z,8,GR86-062-012,4.5,0.12,-0.027,99.95,5.0,6583.0,0.0,0.0,
2025-08-15T01:09:37.514Z,8,GR86-062-012,4.5,0.104,-0.052,99.97,5.0,,0.0,0.0,193.64
2025-08-15T01:09:37.557Z,8,GR86-062-012,4.5,0.102,-0.05,99.95,5.0,,0.0,0.0,
2025-08-15T01:09:37.600Z,8,GR86-062-012,4.5,0.098,-0.028,99.96,5.0,,0.0,0.0,
2025-08-15T01:09:37.644Z,8,GR86-062-012,4.5,0.103,-0.022,99.95,5.0,,0.0,0.0,
2025-08-15T01:09:37.686Z,8,GR86-062-012,4.5,0.102,-0.015,99.95,5.0,6611.0,0.0,0.0,
2025-08-15T01:09:37.729Z,8,GR86-062-012,4.5,0.118,-0.027,99.96,5.0,,0.0,0.0,194.18
2025-08-15T01:09:37.775Z,8,GR86-062-012,4.5,0.108,-0.022,99.95,5.0,,0.0,0.0,
2025-08-15T01:09:37.818Z,8,GR86-062-012,4.5,0.107,-0.039,99.95,5.0,,0.0,0.0,
2025-08-15T01:09:37.861Z,8,GR86-062-012,4.6000000000000005,0.107,-0.048,99.95,5.0,,0.0,0.0,
2025-08-15T01:09:37.904Z,8,GR86-062-012,4.6000000000000005,0.115,-0.045,99.96,5.0,6625.0,0.0,0.0,
2025-08-15T01:09:37.947Z,8,GR86-062-012,4.6000000000000005,0.113,-0.002,99.96,5.0,,0.0,0.0,194.82
2025-08-15T01:09:37.990Z,8,GR86-062-012,4.6000000000000005,0.094,-0.004,99.98,5.0,,0.0,0.0,
2025-08-15T01:09:38.034Z,8,GR86-062-012,4.6000000000000005,0.109,-0.023,99.94,5.0,,0.0,0.0,
2025-08-15T01:09:38.077Z,8,GR86-062-012,4.7,0.119,-0.028,99.95,5.0,,0.0,0.0,
2025-08-15T01:09:38.120Z,8,GR86-062-012,4.800000000000001,0.121,-0.023,99.95,5.0,6657.0,0.0,0.0,
2025-08-15T01:09:38.164Z,8,GR86-062-012,4.800000000000001,0.12,-0.02,99.95,5.0,,0.0,0.0,195.59
2025-08-15T01:09:38.206Z,8,GR86-062-012,4.9,0.11,-0.021,99.97,5.0,,0.0,0.0,
2025-08-15T01:09:38.249Z,8,GR86-062-012,5.0,0.112,-0.019,99.98,5.0,,0.0,0.0,
2025-08-15T01:09:38.335Z,8,GR86-062-012,5.0,0.096,0.032,99.94,5.0,6680.0,0.0,0.0,
2025-08-15T01:09:38.378Z,8,GR86-062-012,5.0,0.12,0.033,99.94,5.0,,0.0,0.0,196.24
2025-08-15T01:09:38.421Z,8,GR86-062-012,5.0,0.112,0.009,99.97,5.0,,0.0,0.0,
2025-08-15T01:09:38.464Z,8,GR86-062-012,5.0,0.096,0.034,99.97,5.0,,0.0,0.0,
2025-08-15T01:09:38.507Z,8,GR86-062-012,5.0,0.111,0.023,99.95,5.0,,0.0,0.0,
2025-08-15T01:09:38.550Z,8,GR86-062-012,5.0,0.101,0.009,99.96,5.0,6694.0,0.0,0.0,
2025-08-15T01:09:38.594Z,8,GR86-062-012,5.0,0.129,-0.001,99.95,5.0,,0.0,0.0,197.05
2025-08-15T01:09:38.637Z,8,GR86-062-012,5.0,0.106,0.006,99.96,5.0,,0.0,0.0,
2025-08-15T01:09:38.680Z,8,GR86-062-012,5.0,0.108,0.031,99.95,5.0,,0.0,0.0,
2025-08-15T01:09:38.724Z,8,GR86-062-012,5.0,0.099,0.043,99.95,5.0,,0.0,0.0,
2025-08-15T01:09:38.766Z,8,GR86-062-012,5.0,0.093,0.004,99.95,5.0,6716.0,0.0,0.0,
2025-08-15T01:09:38.809Z,8,GR86-062-012,5.0,0.087,0.002,99.95,5.0,,0.0,0.0,197.63
2025-08-15T01:09:38.853Z,8,GR86-062-012,5.1000000000000005,0.093,0.001,99.93,5.0,,0.0,0.0,
2025-08-15T01:09:38.895Z,8,GR86-062-012,5.0,0.112,0.011,99.96,5.0,,0.0,0.0,
2025-08-15T01:09:38.938Z,8,GR86-062-012,5.0,0.099,-0.029,99.94,5.0,,0.0,0.0,
2025-08-15T01:09:38.981Z,8,GR86-062-012,5.1000000000000005,0.086,-0.039,99.95,5.0,6746.0,0.0,0.0,
2025-08-15T01:09:39.024Z,8,GR86-062-012,5.1000000000000005,0.099,-0.03,99.95,5.0,,0.0,0.0,198.47
2025-08-15T01:09:39.067Z,8,GR86-062-012,5.0,0.105,-0.014,99.95,5.0,,0.0,0.0,
2025-08-15T01:09:39.110Z,8,GR86-062-012,5.0,0.1,-0.008,99.96,5.0,,0.0,0.0,
2025-08-15T01:09:39.154Z,8,GR86-062-012,5.0,0.095,-0.004,99.95,5.0,,0.0,0.0,
2025-08-15T01:09:39.197Z,8,GR86-062-012,5.1000000000000005,0.099,0.009,99.96,5.0,6766.0,0.0,0.0,
2025-08-15T01:09:39.240Z,8,GR86-062-012,5.1000000000000005,0.089,0.005,99.95,5.0,,0.0,0.0,199.84
2025-08-15T01:09:39.284Z,8,GR86-062-012,5.1000000000000005,0.116,-0.002,99.94,5.0,,0.0,0.0,
2025-08-15T01:09:39.327Z,8,GR86-062-012,5.1000000000000005,0.116,0.005,99.95,5.0,,0.0,0.0,
2025-08-15T01:09:39.370Z,8,GR86-062-012,5.1000000000000005,0.117,0.002,99.95,5.0,,0.0,0.0,
2025-08-15T01:09:39.414Z,8,GR86-062-012,5.1000000000000005,0.097,-0.011,99.95,5.0,6787.0,0.0,0.0,
2025-08-15T01:09:39.457Z,8,GR86-062-012,5.1000000000000005,0.099,-0.015,99.94,5.0,,0.0,0.0,200.46
2025-08-15T01:09:39.500Z,8,GR86-062-012,5.0,0.11,-0.006,99.94,5.0,,0.0,0.0,
2025-08-15T01:09:39.544Z,8,GR86-062-012,5.0,0.126,0.01,99.97,5.0,,0.0,0.0,
2025-08-15T01:09:39.586Z,8,GR86-062-012,5.0,0.113,0.006,99.96,5.0,,0.0,0.0,
2025-08-15T01:09:39.629Z,8,GR86-062-012,5.0,0.112,0.02,99.95,5.0,6814.0,0.0,0.0,
2025-08-15T01:09:39.673Z,8,GR86-062-012,5.0,0.115,-0.005,99.97,5.0,,0.0,0.0,201.18
2025-08-15T01:09:39.715Z,8,GR86-062-012,5.0,0.131,0.0,99.96,5.0,,0.0,0.0,
2025-08-15T01:09:39.758Z,8,GR86-062-012,5.0,0.122,-0.016,99.97,5.0,,0.0,0.0,
2025-08-15T01:09:39.801Z,8,GR86-062-012,5.0,0.124,-0.012,99.95,5.0,,0.0,0.0,
2025-08-15T01:09:39.845Z,8,GR86-062-012,5.0,0.103,-0.015,99.95,5.0,6857.0,0.0,0.0,
2025-08-15T01:09:39.888Z,8,GR86-062-012,5.0,0.089,-0.017,99.95,5.0,,0.0,0.0,201.77
2025-08-15T01:09:39.931Z,8,GR86-062-012,5.1000000000000005,0.094,-0.01,99.96,5.0,,0.0,0.0,
2025-08-15T01:09:39.974Z,8,GR86-062-012,5.300000000000001,0.104,0.002,99.95,5.0,,0.0,0.0,
2025-08-15T01:09:40.017Z,8,GR86-062-012,5.300000000000001,0.106,-0.026,99.96,5.0,,0.0,0.0,
2025-08-15T01:09:40.060Z,8,GR86-062-012,5.300000000000001,0.076,-0.031,99.96,5.0,6875.0,0.0,0.0,
2025-08-15T01:09:40.104Z,8,GR86-062-012,5.300000000000001,0.082,-0.04,99.93,5.0,,0.0,0.0,202.51
2025-08-15T01:09:40.146Z,8,GR86-062-012,5.300000000000001,0.084,-0.015,99.94,5.0,,0.0,0.0,
2025-08-15T01:09:40.189Z,8,GR86-062-012,5.300000000000001,0.109,-0.004,99.94,5.0,,0.0,0.0,
2025-08-15T01:09:40.235Z,8,GR86-062-012,5.300000000000001,0.083,-0.006,99.94,5.0,,0.0,0.0,
2025-08-15T01:09:40.278Z,8,GR86-062-012,5.300000000000001,0.1,-0.032,99.96,5.0,6901.0,0.0,0.0,
2025-08-15T01:09:40.321Z,8,GR86-062-012,5.300000000000001,0.095,-0.005,99.96,5.0,,0.0,0.0,203.05
2025-08-15T01:09:40.365Z,8,GR86-062-012,5.300000000000001,0.133,0.011,99.94,5.0,,0.0,0.0,
2025-08-15T01:09:40.408Z,8,GR86-062-012,5.4,0.108,0.066,99.93,5.0,,0.0,0.0,
2025-08-15T01:09:40.451Z,8,GR86-062-012,5.6000000000000005,0.117,0.025,99.95,5.0,,0.0,0.0,
2025-08-15T01:09:40.494Z,8,GR86-062-012,5.9,0.133,0.014,99.96,5.0,6919.0,0.0,0.0,
2025-08-15T01:09:40.537Z,8,GR86-062-012,5.9,0.109,0.023,99.96,5.0,,0.0,0.0,203.66
2025-08-15T01:09:40.580Z,8,GR86-062-012,6.0,0.104,0.042,99.96,5.0,,0.0,0.0,
2025-08-15T01:09:40.626Z,8,GR86-062-012,6.0,0.108,0.041,99.95,5.0,,0.0,0.0,
2025-08-15T01:09:40.670Z,8,GR86-062-012,6.0,0.09,0.039,99.96,5.0,,0.0,0.0,
2025-08-15T01:09:40.713Z,8,GR86-062-012,6.0,0.125,0.061,99.98,5.0,6937.0,0.0,0.0,
2025-08-15T01:09:40.756Z,8,GR86-062-012,6.0,0.109,0.097,99.95,5.0,,0.0,0.0,204.25
2025-08-15T01:09:40.800Z,8,GR86-062-012,6.0,0.117,0.051,99.95,5.0,,0.0,0.0,
2025-08-15T01:09:40.844Z,8,GR86-062-012,6.5,0.091,0.03,99.97,5.0,,0.0,0.0,
2025-08-15T01:09:40.886Z,8,GR86-062-012,6.7,0.085,0.025,99.96,5.0,,0.0,0.0,
2025-08-15T01:09:40.929Z,8,GR86-062-012,6.800000000000001,0.1,0.057,99.96,5.0,6961.0,0.0,0.0,
2025-08-15T01:09:40.973Z,8,GR86-062-012,5.9,0.091,0.069,99.94,5.0,,0.0,0.0,204.81
2025-08-15T01:09:41.015Z,8,GR86-062-012,5.5,0.082,0.083,99.95,5.0,,0.0,0.0,
2025-08-15T01:09:41.058Z,8,GR86-062-012,5.300000000000001,0.091,0.046,99.95,5.0,,0.0,0.0,
2025-08-15T01:09:41.101Z,8,GR86-062-012,5.2,0.098,0.065,99.95,5.0,,0.0,0.0,
2025-08-15T01:09:41.145Z,8,GR86-062-012,5.1000000000000005,0.107,0.02,99.96,5.0,6972.0,0.0,0.0,
2025-08-15T01:09:41.188Z,8,GR86-062-012,5.1000000000000005,0.105,0.01,99.96,5.0,,0.0,0.0,205.53
2025-08-15T01:09:41.231Z,8,GR86-062-012,5.1000000000000005,0.109,0.009,99.93,5.0,,0.0,0.0,
2025-08-15T01:09:41.274Z,8,GR86-062-012,5.1000000000000005,0.124,-0.032,99.93,5.0,,0.0,0.0,
2025-08-15T01:09:41.317Z,8,GR86-062-012,5.1000000000000005,0.107,-0.019,99.97,5.0,,0.0,0.0,
2025-08-15T01:09:41.360Z,8,GR86-062-012,5.2,0.099,0.019,99.95,5.0,6998.0,0.0,0.0,
2025-08-15T01:09:41.404Z,8,GR86-062-012,5.300000000000001,0.085,0.017,99.94,5.0,,0.0,0.0,205.85
2025-08-15T01:09:41.446Z,8,GR86-062-012,5.4,0.082,0.013,99.95,5.0,,0.0,0.0,
2025-08-15T01:09:41.489Z,8,GR86-062-012,5.4,0.102,-0.021,99.94,5.0,,0.0,0.0,
2025-08-15T01:09:41.534Z,8,GR86-062-012,5.1000000000000005,0.095,0.0,99.95,5.0,,0.0,0.0,
2025-08-15T01:09:41.577Z,8,GR86-062-012,4.9,0.075,0.001,99.96,5.0,7014.0,0.0,0.0,
2025-08-15T01:09:41.620Z,8,GR86-062-012,4.7,0.091,0.002,99.96,5.0,,0.0,0.0,206.49
2025-08-15T01:09:41.664Z,8,GR86-062-012,4.5,0.104,-0.017,99.95,5.0,,0.0,0.0,
2025-08-15T01:09:41.706Z,8,GR86-062-012,4.5,0.094,0.016,99.95,5.0,,0.0,0.0,
2025-08-15T01:09:41.749Z,8,GR86-062-012,4.5,0.107,-0.002,99.96,5.0,,0.0,0.0,
2025-08-15T01:09:41.793Z,8,GR86-062-012,4.3,0.117,-0.006,99.95,5.0,7037.0,0.0,0.0,
2025-08-15T01:09:41.835Z,8,GR86-062-012,4.1000000000000005,0.089,-0.006,99.96,5.0,,0.0,0.0,207.68
2025-08-15T01:09:41.878Z,8,GR86-062-012,4.1000000000000005,0.101,-0.032,99.95,5.0,,0.0,0.0,
2025-08-15T01:09:41.921Z,8,GR86-062-012,4.0,0.104,-0.024,89.3,5.0,,0.0,0.0,
2025-08-15T01:09:41.965Z,8,GR86-062-012,3.7,0.093,-0.043,19.38,5.0,,0.0,0.0,
2025-08-15T01:09:42.008Z,8,GR86-062-012,3.2,0.087,-0.053,5.26,5.0,7053.0,0.0,0.0,
2025-08-15T01:09:42.051Z,8,GR86-062-012,3.1,0.004,-0.08,4.94,5.0,,0.0,0.0,208.2
2025-08-15T01:09:42.094Z,8,GR86-062-012,3.3000000000000003,-0.231,-0.055,4.05,5.0,,0.0,0.0,
2025-08-15T01:09:42.137Z,8,GR86-062-012,4.4,-0.358,-0.118,3.8,5.0,,2.915,3.37,
2025-08-15T01:09:42.180Z,8,GR86-062-012,5.300000000000001,-0.108,-0.073,3.61,5.0,,15.72,16.22,
2025-08-15T01:09:42.224Z,8,GR86-062-012,5.4,-0.34,-0.054,3.39,5.0,7073.0,26.935,27.025,
2025-08-15T01:09:42.266Z,8,GR86-062-012,5.4,-0.56,-0.061,3.16,5.0,,37.45,37.355,208.77
2025-08-15T01:09:42.309Z,8,GR86-062-012,5.5,-0.733,-0.021,2.93,5.0,,43.645,43.52,
2025-08-15T01:09:42.353Z,8,GR86-062-012,5.6000000000000005,-0.862,-0.026,2.63,5.0,,48.235,47.96,
2025-08-15T01:09:42.395Z,8,GR86-062-012,5.5,-0.848,0.015,2.5,5.0,,52.175,51.870000000000005,
2025-08-15T01:09:42.438Z,8,GR86-062-012,5.5,-0.918,0.018,2.45,5.0,6975.0,54.43,54.265,
2025-08-15T01:09:42.481Z,8,GR86-062-012,5.5,-0.92,0.047,2.4,5.0,,56.525,56.125,208.68
2025-08-15T01:09:42.524Z,8,GR86-062-012,5.5,-0.993,0.037,2.4,5.0,,60.08,59.56,
2025-08-15T01:09:42.567Z,8,GR86-062-012,5.4,-1.021,0.032,2.39,5.0,,62.625,62.245000000000005,
2025-08-15T01:09:42.610Z,8,GR86-062-012,5.300000000000001,-1.034,0.048,2.4,5.0,,62.965,62.93,
2025-08-15T01:09:42.654Z,8,GR86-062-012,4.9,-1.05,0.053,2.39,5.0,6658.0,60.23,61.24,
2025-08-15T01:09:42.697Z,8,GR86-062-012,4.7,-1.017,0.023,2.41,5.0,,51.96,53.805,203.88
2025-08-15T01:09:42.740Z,8,GR86-062-012,4.4,-0.981,0.009,2.42,5.0,,49.2,50.68,
2025-08-15T01:09:42.785Z,8,GR86-062-012,4.1000000000000005,-0.936,0.005,29.52,4.0,,50.16,50.94,
2025-08-15T01:09:42.828Z,8,GR86-062-012,3.8,-0.986,0.004,47.84,4.0,,53.515,53.395,
2025-08-15T01:09:42.871Z,8,GR86-062-012,3.7,-1.11,-0.008,5.93,4.0,6320.0,58.125,58.845,
2025-08-15T01:09:42.914Z,8,GR86-062-012,3.8,-1.26,0.036,4.28,4.0,,62.43,63.59,196.85
2025-08-15T01:09:42.957Z,8,GR86-062-012,3.8,-1.294,0.039,3.89,4.0,,58.585,59.27,
2025-08-15T01:09:43.000Z,8,GR86-062-012,3.8,-1.08,0.037,3.66,4.0,,53.305,54.465,
2025-08-15T01:09:43.044Z,8,GR86-062-012,4.7,-0.959,-0.01,3.5,4.0,,44.53,46.345,
2025-08-15T01:09:43.086Z,8,GR86-062-012,4.800000000000001,-0.8170000000000001,0.018,3.3200000000000003,4.0,6070.0,40.21,41.52,
2025-08-15T01:09:43.129Z,8,GR86-062-012,4.800000000000001,-0.913,0.047,3.06,4.0,,40.99,41.49,189.34
2025-08-15T01:09:43.176Z,8,GR86-062-012,4.7,-0.848,0.023,2.71,4.0,,45.215,45.185,
2025-08-15T01:09:43.218Z,8,GR86-062-012,4.6000000000000005,-0.882,0.032,36.67,4.0,,47.9,47.84,
2025-08-15T01:09:43.261Z,8,GR86-062-012,4.3,-0.929,0.025,54.47,3.0,,49.46,49.335,
2025-08-15T01:09:43.304Z,8,GR86-062-012,4.2,-1.045,0.03,5.8100000000000005,3.0,6849.0,49.9,50.465,
2025-08-15T01:09:43.347Z,8,GR86-062-012,3.5,-0.957,0.059,4.38,3.0,,50.94,52.435,182.68
2025-08-15T01:09:43.390Z,8,GR86-062-012,2.6,-1.151,0.012,3.86,3.0,,52.22,53.455,
2025-08-15T01:09:43.434Z,8,GR86-062-012,1.5,-1.032,0.019,3.54,3.0,,51.425,52.525,
2025-08-15T01:09:43.477Z,8,GR86-062-012,1.5,-0.864,-0.024,3.35,3.0,,51.775,52.435,
2025-08-15T01:09:43.520Z,8,GR86-062-012,1.5,-1.019,-0.058,3.14,3.0,6598.0,50.495000000000005,50.755,
2025-08-15T01:09:43.564Z,8,GR86-062-012,1.5,-1.014,0.024,2.91,3.0,,48.895,49.765,175.66
2025-08-15T01:09:43.606Z,8,GR86-062-012,1.5,-0.932,-0.085,2.75,3.0,,44.53,46.085,
2025-08-15T01:09:43.649Z,8,GR86-062-012,1.7000000000000002,-0.915,-0.084,2.65,3.0,,42.025,43.615,
2025-08-15T01:09:43.693Z,8,GR86-062-012,3.3000000000000003,-0.977,-0.107,2.5,3.0,,39.525,41.08,
2025-08-15T01:09:43.736Z,8,GR86-062-012,4.4,-0.909,-0.111,2.45,3.0,7383.0,38.38,39.875,
2025-08-15T01:09:43.779Z,8,GR86-062-012,4.6000000000000005,-0.852,-0.082,2.43,3.0,,37.92,39.155,169.27
2025-08-15T01:09:43.824Z,8,GR86-062-012,4.6000000000000005,-0.8280000000000001,-0.082,2.4,3.0,,36.67,38.105,
2025-08-15T01:09:43.866Z,8,GR86-062-012,3.4000000000000004,-0.797,-0.068,2.4,3.0,,34.655,36.305,
2025-08-15T01:09:43.909Z,8,GR86-062-012,2.4000000000000004,-0.794,-0.064,2.4,3.0,,33.160000000000004,34.395,
2025-08-15T01:09:43.953Z,8,GR86-062-012,1.8,-0.764,-0.082,2.39,3.0,7133.0,32.335,33.525,
2025-08-15T01:09:43.995Z,8,GR86-062-012,1.3,-0.759,-0.076,2.4,3.0,,32.38,33.405,161.78
2025-08-15T01:09:44.038Z,8,GR86-062-012,1.0,-0.776,-0.058,2.43,3.0,,32.685,33.555,
2025-08-15T01:09:44.081Z,8,GR86-062-012,1.0,-0.792,-0.063,2.44,3.0,,32.275,33.28,
2025-08-15T01:09:44.126Z,8,GR86-062-012,0.6000000000000001,-0.776,-0.063,2.43,3.0,,30.215,31.48,
2025-08-15T01:09:44.168Z,8,GR86-062-012,-0.2,-0.708,-0.094,2.43,3.0,6963.0,25.33,26.75,
2025-08-15T01:09:44.211Z,8,GR86-062-012,-0.3,-0.621,-0.118,2.45,3.0,,20.235,21.47,155.70000000000002
2025-08-15T01:09:44.254Z,8,GR86-062-012,-1.0,-0.526,-0.147,2.47,3.0,,17.395,18.175,
2025-08-15T01:09:44.297Z,8,GR86-062-012,-1.1,-0.554,-0.156,2.46,3.0,,17.78,18.525,
2025-08-15T01:09:44.340Z,8,GR86-062-012,-1.1,-0.55,-0.151,2.47,3.0,,18.405,18.83,
2025-08-15T01:09:44.384Z,8,GR86-062-012,-1.1,-0.536,-0.159,2.47,3.0,6721.0,19.045,19.395,
2025-08-15T01:09:44.427Z,8,GR86-062-012,-1.1,-0.512,-0.169,2.47,3.0,,19.395,19.96,149.88
2025-08-15T01:09:44.470Z,8,GR86-062-012,-1.0,-0.551,-0.174,2.47,3.0,,19.73,20.205,
2025-08-15T01:09:44.514Z,8,GR86-062-012,-0.7000000000000001,-0.533,-0.173,2.48,3.0,,19.7,20.325,
2025-08-15T01:09:44.557Z,8,GR86-062-012,-0.6000000000000001,-0.539,-0.159,2.48,3.0,,14.605,15.43,
2025-08-15T01:09:44.601Z,8,GR86-062-012,-0.7000000000000001,-0.389,-0.157,2.49,3.0,6523.0,5.465,5.9350000000000005,
2025-08-15T01:09:44.645Z,8,GR86-062-012,-3.4000000000000004,-0.188,-0.187,2.49,3.0,,0.0,0.0,140.91
2025-08-15T01:09:44.688Z,8,GR86-062-012,-8.4,-0.177,-0.232,2.48,3.0,,0.0,0.0,
2025-08-15T01:09:44.731Z,8,GR86-062-012,-14.2,-0.151,-0.277,2.49,3.0,,0.0,0.0,
2025-08-15T01:09:44.774Z,8,GR86-062-012,-22.200000000000003,-0.155,-0.412,2.5,3.0,,0.0,0.0,
2025-08-15T01:09:44.817Z,8,GR86-062-012,-25.5,-0.159,-0.519,2.5,3.0,6376.0,0.0,0.0,
2025-08-15T01:09:44.904Z,8,GR86-062-012,-28.3,-0.151,-0.6920000000000001,2.49,3.0,,0.0,0.0,137.26
2025-08-15T01:09:44.946Z,8,GR86-062-012,-28.6,-0.159,-0.777,2.49,3.0,,0.0,0.0,
2025-08-15T01:09:44.989Z,8,GR86-062-012,-28.6,-0.162,-0.87,2.48,3.0,,0.0,0.0,
2025-08-15T01:09:45.035Z,8,GR86-062-012,-28.6,-0.178,-0.964,2.5,3.0,6198.0,0.0,0.0,
2025-08-15T01:09:45.078Z,8,GR86-062-012,-28.6,-0.144,-0.957,2.5,3.0,,0.0,0.0,136.02
2025-08-15T01:09:45.121Z,8,GR86-062-012,-28.6,-0.162,-1.056,2.5,3.0,,0.0,0.0,
2025-08-15T01:09:45.165Z,8,GR86-062-012,-28.3,-0.166,-0.989,9.91,3.0,,0.0,0.0,
2025-08-15T01:09:45.208Z,8,GR86-062-012,-27.3,-0.167,-1.068,24.41,3.0,,0.0,0.0,
2025-08-15T01:09:45.251Z,8,GR86-062-012,-26.700000000000003,-0.14,-1.011,25.14,3.0,6147.0,0.0,0.0,
2025-08-15T01:09:45.294Z,8,GR86-062-012,-25.3,-0.068,-1.049,31.04,3.0,,0.0,0.0,134.96
2025-08-15T01:09:45.337Z,8,GR86-062-012,-24.1,-0.1,-1.067,32.05,3.0,,0.0,0.0,
2025-08-15T01:09:45.380Z,8,GR86-062-012,-23.3,0.015,-1.03,32.21,3.0,,0.0,0.0,
2025-08-15T01:09:45.425Z,8,GR86-062-012,-22.9,0.246,-1.054,32.230000000000004,3.0,,0.0,0.0,
2025-08-15T01:09:45.470Z,8,GR86-062-012,-24.5,0.196,-0.986,32.86,3.0,6078.0,0.0,0.0,
2025-08-15T01:09:45.513Z,8,GR86-062-012,-29.200000000000003,0.062,-0.949,32.51,3.0,,0.0,0.0,133.81
2025-08-15T01:09:45.558Z,8,GR86-062-012,-35.4,0.054,-0.967,7.42,3.0,,0.0,0.0,
2025-08-15T01:09:45.600Z,8,GR86-062-012,-41.0,0.085,-0.945,4.5200000000000005,3.0,,0.0,0.0,
2025-08-15T01:09:45.644Z,8,GR86-062-012,-44.6,0.023,-0.971,4.3100000000000005,3.0,,0.0,0.0,
2025-08-15T01:09:45.686Z,8,GR86-062-012,-44.8,-0.123,-0.972,4.0600000000000005,3.0,6305.0,0.0,0.0,
2025-08-15T01:09:45.729Z,8,GR86-062-012,-44.0,-0.263,-0.992,3.86,3.0,,0.0,0.0,132.74
2025-08-15T01:09:45.773Z,8,GR86-062-012,-44.0,-0.286,-1.118,3.5500000000000003,3.0,,0.0,0.0,
2025-08-15T01:09:45.817Z,8,GR86-062-012,-42.8,-0.155,-1.089,3.34,3.0,,0.0,0.0,
2025-08-15T01:09:45.859Z,8,GR86-062-012,-38.400000000000006,-0.126,-1.237,7.41,3.0,,0.0,0.0,
2025-08-15T01:09:45.903Z,8,GR86-062-012,-32.800000000000004,-0.151,-1.152,26.11,3.0,6120.0,0.0,0.0,
2025-08-15T01:09:45.945Z,8,GR86-062-012,-28.8,-0.188,-1.2,29.43,3.0,,0.0,0.0,132.85
2025-08-15T01:09:45.988Z,8,GR86-062-012,-26.1,-0.126,-1.244,31.67,3.0,,0.0,0.0,
2025-08-15T01:09:46.031Z,8,GR86-062-012,-24.9,-0.069,-1.193,33.81,3.0,,0.0,0.0,
2025-08-15T01:09:46.074Z,8,GR86-062-012,-26.6,0.065,-1.214,33.87,3.0,,0.0,0.0,
2025-08-15T01:09:46.117Z,8,GR86-062-012,-29.8,0.198,-1.247,33.18,3.0,6118.0,0.0,0.0,
2025-08-15T01:09:46.160Z,8,GR86-062-012,-32.300000000000004,0.124,-1.26,33.14,3.0,,0.0,0.0,133.01
2025-08-15T01:09:46.204Z,8,GR86-062-012,-32.9,0.098,-1.211,32.79,3.0,,0.0,0.0,
2025-08-15T01:09:46.246Z,8,GR86-062-012,-33.0,0.088,-1.234,30.68,3.0,,0.0,0.0,
2025-08-15T01:09:46.289Z,8,GR86-062-012,-33.4,0.079,-1.133,26.2,3.0,,0.0,0.0,
2025-08-15T01:09:46.334Z,8,GR86-062-012,-36.2,0.103,-1.162,22.43,3.0,6183.0,0.0,0.0,
2025-08-15T01:09:46.377Z,8,GR86-062-012,-38.0,0.031,-1.26,19.48,3.0,,0.0,0.0,133.19
2025-08-15T01:09:46.420Z,8,GR86-062-012,-40.0,0.022,-1.1,22.07,3.0,,0.0,0.0,
2025-08-15T01:09:46.464Z,8,GR86-062-012,-41.6,0.007,-1.055,22.92,3.0,,0.0,0.0,
2025-08-15T01:09:46.506Z,8,GR86-062-012,-42.6,-0.032,-1.022,21.84,3.0,,0.0,0.0,
2025-08-15T01:09:46.549Z,8,GR86-062-012,-43.6,-0.05,-0.906,21.54,3.0,6136.0,0.0,0.0,
2025-08-15T01:09:46.593Z,8,GR86-062-012,-44.1,0.1,-1.173,23.16,3.0,,0.0,0.0,132.22
2025-08-15T01:09:46.635Z,8,GR86-062-012,-44.400000000000006,0.135,-0.964,22.76,3.0,,0.0,0.0,
2025-08-15T01:09:46.678Z,8,GR86-062-012,-44.7,0.047,-1.125,22.81,3.0,,0.0,0.0,
2025-08-15T01:09:46.721Z,8,GR86-062-012,-45.0,-0.071,-1.045,25.08,3.0,,0.0,0.0,
2025-08-15T01:09:46.765Z,8,GR86-062-012,-45.6,-0.124,-1.262,24.01,3.0,6095.0,0.0,0.0,
2025-08-15T01:09:46.808Z,8,GR86-062-012,-46.0,-0.071,-1.175,24.14,3.0,,0.0,0.0,131.99
2025-08-15T01:09:46.851Z,8,GR86-062-012,-46.1,-0.137,-1.248,27.86,3.0,,0.0,0.0,
2025-08-15T01:09:46.894Z,8,GR86-062-012,-46.400000000000006,0.015,-1.089,31.49,3.0,,0.0,0.0,
2025-08-15T01:09:46.937Z,8,GR86-062-012,-46.5,-0.006,-1.108,31.6,3.0,,0.0,0.0,
2025-08-15T01:09:46.980Z,8,GR86-062-012,-46.7,0.049,-1.226,32.99,3.0,6150.0,0.0,0.0,
2025-08-15T01:09:47.024Z,8,GR86-062-012,-47.1,0.081,-1.264,34.33,3.0,,0.0,0.0,132.17000000000002
2025-08-15T01:09:47.066Z,8,GR86-062-012,-47.2,0.051,-1.561,35.24,3.0,,0.0,0.0,
2025-08-15T01:09:47.109Z,8,GR86-062-012,-47.3,0.069,-1.347,35.64,3.0,,0.0,0.0,
2025-08-15T01:09:47.153Z,8,GR86-062-012,-47.8,0.073,-1.348,37.44,3.0,,0.0,0.0,
2025-08-15T01:09:47.195Z,8,GR86-062-012,-49.5,0.112,-1.299,38.53,3.0,6162.0,0.0,0.0,
2025-08-15T01:09:47.238Z,8,GR86-062-012,-52.1,0.132,-1.296,38.16,3.0,,0.0,0.0,131.4
2025-08-15T01:09:47.281Z,8,GR86-062-012,-54.3,0.108,-1.251,37.63,3.0,,0.0,0.0,
2025-08-15T01:09:47.324Z,8,GR86-062-012,-54.900000000000006,0.084,-1.205,37.38,3.0,,0.0,0.0,
2025-08-15T01:09:47.367Z,8,GR86-062-012,-54.900000000000006,0.092,-1.182,36.82,3.0,,0.0,0.0,
2025-08-15T01:09:47.410Z,8,GR86-062-012,-55.2,0.097,-1.195,36.03,3.0,6167.0,0.0,0.0,
2025-08-15T01:09:47.454Z,8,GR86-062-012,-55.2,0.087,-1.286,36.68,3.0,,0.0,0.0,131.28
2025-08-15T01:09:47.497Z,8,GR86-062-012,-55.2,0.105,-1.291,36.7,3.0,,0.0,0.0,
2025-08-15T01:09:47.540Z,8,GR86-062-012,-55.2,0.079,-1.323,36.78,3.0,,0.0,0.0,
2025-08-15T01:09:47.585Z,8,GR86-062-012,-55.2,0.077,-1.276,37.01,3.0,,0.0,0.0,
2025-08-15T01:09:47.628Z,8,GR86-062-012,-55.2,0.083,-1.282,36.92,3.0,6192.0,0.0,0.0,
2025-08-15T01:09:47.671Z,8,GR86-062-012,-55.2,0.115,-1.208,36.14,3.0,,0.0,0.0,129.92000000000002
2025-08-15T01:09:47.714Z,8,GR86-062-012,-55.2,0.113,-1.151,36.03,3.0,,0.0,0.0,
2025-08-15T01:09:47.757Z,8,GR86-062-012,-55.2,0.098,-1.107,35.660000000000004,3.0,,0.0,0.0,
2025-08-15T01:09:47.800Z,8,GR86-062-012,-55.2,0.068,-1.136,35.0,3.0,,0.0,0.0,
2025-08-15T01:09:47.844Z,8,GR86-062-012,-55.2,0.078,-1.179,34.97,3.0,6164.0,0.0,0.0,
2025-08-15T01:09:47.886Z,8,GR86-062-012,-54.900000000000006,0.1,-1.226,34.92,3.0,,0.0,0.0,130.08
2025-08-15T01:09:47.929Z,8,GR86-062-012,-54.6,0.101,-1.24,34.7,3.0,,0.0,0.0,
2025-08-15T01:09:47.975Z,8,GR86-062-012,-53.8,0.08,-1.258,34.77,3.0,,0.0,0.0,
2025-08-15T01:09:48.018Z,8,GR86-062-012,-52.7,0.059,-1.274,34.74,3.0,,0.0,0.0,
2025-08-15T01:09:48.061Z,8,GR86-062-012,-51.2,0.084,-1.291,34.300000000000004,3.0,6176.0,0.0,0.0,
2025-08-15T01:09:48.104Z,8,GR86-062-012,-49.900000000000006,0.1,-1.272,34.28,3.0,,0.0,0.0,131.57
2025-08-15T01:09:48.147Z,8,GR86-062-012,-48.900000000000006,0.089,-1.27,34.25,3.0,,0.0,0.0,
2025-08-15T01:09:48.190Z,8,GR86-062-012,-46.3,0.063,-1.305,34.19,3.0,,0.0,0.0,
2025-08-15T01:09:48.234Z,8,GR86-062-012,-42.7,0.051,-1.315,37.75,3.0,,0.0,0.0,
2025-08-15T01:09:48.277Z,8,GR86-062-012,-40.6,0.088,-1.295,38.15,3.0,6211.0,0.0,0.0,
2025-08-15T01:09:48.320Z,8,GR86-062-012,-38.7,0.123,-1.235,38.05,3.0,,0.0,0.0,132.54
2025-08-15T01:09:48.364Z,8,GR86-062-012,-35.9,0.11,-1.209,39.23,3.0,,0.0,0.0,
2025-08-15T01:09:48.406Z,8,GR86-062-012,-34.7,0.109,-1.167,47.46,3.0,,0.0,0.0,
2025-08-15T01:09:48.449Z,8,GR86-062-012,-34.6,0.13,-1.213,52.48,3.0,,0.0,0.0,
2025-08-15T01:09:48.493Z,8,GR86-062-012,-36.9,0.126,-1.137,52.870000000000005,3.0,6222.0,0.0,0.0,
2025-08-15T01:09:48.535Z,8,GR86-062-012,-37.7,0.167,-1.115,57.83,3.0,,0.0,0.0,132.81
2025-08-15T01:09:48.578Z,8,GR86-062-012,-38.0,0.166,-1.026,58.19,3.0,,0.0,0.0,
2025-08-15T01:09:48.621Z,8,GR86-062-012,-38.400000000000006,0.15,-0.84,55.32,3.0,,0.0,0.0,
2025-08-15T01:09:48.664Z,8,GR86-062-012,-38.7,0.137,-0.8300000000000001,57.47,3.0,,0.0,0.0,
2025-08-15T01:09:48.707Z,8,GR86-062-012,-37.5,0.127,-0.6960000000000001,59.59,3.0,6234.0,0.0,0.0,
2025-08-15T01:09:48.750Z,8,GR86-062-012,-34.4,0.113,-0.806,58.07,3.0,,0.0,0.0,132.95
2025-08-15T01:09:48.794Z,8,GR86-062-012,-30.1,0.135,-0.637,66.54,3.0,,0.0,0.0,
2025-08-15T01:09:48.837Z,8,GR86-062-012,-28.1,0.114,-1.021,79.85000000000001,3.0,,0.0,0.0,
2025-08-15T01:09:48.880Z,8,GR86-062-012,-28.200000000000003,0.309,-0.962,82.57000000000001,3.0,,0.0,0.0,
2025-08-15T01:09:48.924Z,8,GR86-062-012,-28.9,0.25,-0.986,91.16,3.0,6280.0,0.0,0.0,
2025-08-15T01:09:48.966Z,8,GR86-062-012,-29.1,0.245,-0.598,99.76,3.0,,0.0,0.0,132.85
2025-08-15T01:09:49.009Z,8,GR86-062-012,-29.700000000000003,0.051,-0.775,99.9,3.0,,0.0,0.0,
2025-08-15T01:09:49.053Z,8,GR86-062-012,-27.3,0.399,-0.939,99.89,3.0,,0.0,0.0,
2025-08-15T01:09:49.095Z,8,GR86-062-012,-25.200000000000003,0.141,-1.253,99.91,3.0,,0.0,0.0,
2025-08-15T01:09:49.138Z,8,GR86-062-012,-23.1,0.098,-1.268,99.89,3.0,6366.0,0.0,0.0,
2025-08-15T01:09:49.181Z,8,GR86-062-012,-18.8,0.099,-1.284,99.91,3.0,,0.0,0.0,132.98
2025-08-15T01:09:49.226Z,8,GR86-062-012,-11.7,0.221,-1.278,99.91,3.0,,0.0,0.0,
2025-08-15T01:09:49.268Z,8,GR86-062-012,-6.0,0.33,-1.038,99.9,3.0,,0.0,0.0,
2025-08-15T01:09:49.311Z,8,GR86-062-012,-6.0,0.218,-0.894,99.92,3.0,,0.0,0.0,
2025-08-15T01:09:49.354Z,8,GR86-062-012,-11.2,0.3,-0.858,99.91,3.0,6448.0,0.0,0.0,
2025-08-15T01:09:49.397Z,8,GR86-062-012,-12.4,0.296,-0.892,99.92,3.0,,0.0,0.0,134.53
2025-08-15T01:09:49.440Z,8,GR86-062-012,-11.9,0.123,-0.995,99.9,3.0,,0.0,0.0,
2025-08-15T01:09:49.484Z,8,GR86-062-012,-9.7,0.084,-1.022,99.9,3.0,,0.0,0.0,
2025-08-15T01:09:49.527Z,8,GR86-062-012,-6.7,0.21,-1.029,99.9,3.0,,0.0,0.0,
2025-08-15T01:09:49.570Z,8,GR86-062-012,-3.6,0.29,-0.947,99.91,3.0,6473.0,0.0,0.0,
2025-08-15T01:09:49.614Z,8,GR86-062-012,-1.0,0.236,-1.0,99.9,3.0,,0.0,0.0,136.27
2025-08-15T01:09:49.658Z,8,GR86-062-012,-2.2,0.252,-0.656,99.92,3.0,,0.0,0.0,
2025-08-15T01:09:49.700Z,8,GR86-062-012,-4.7,0.17,-0.5700000000000001,99.92,3.0,,0.0,0.0,
2025-08-15T01:09:49.744Z,8,GR86-062-012,-6.300000000000001,0.103,-0.475,99.91,3.0,,0.0,0.0,
2025-08-15T01:09:49.786Z,8,GR86-062-012,-7.300000000000001,0.181,-0.428,99.9,3.0,6529.0,0.0,0.0,
2025-08-15T01:09:49.829Z,8,GR86-062-012,-8.3,0.274,-0.308,99.91,3.0,,0.0,0.0,135.93
2025-08-15T01:09:49.873Z,8,GR86-062-012,-10.2,0.267,-0.332,99.91,3.0,,0.0,0.0,
2025-08-15T01:09:49.917Z,8,GR86-062-012,-11.0,0.208,-0.333,99.92,3.0,,0.0,0.0,
2025-08-15T01:09:49.960Z,8,GR86-062-012,-11.1,0.194,-0.423,99.91,3.0,,0.0,0.0,
2025-08-15T01:09:50.004Z,8,GR86-062-012,-10.2,0.219,-0.472,99.9,3.0,6457.0,0.0,0.0,
2025-08-15T01:09:50.046Z,8,GR86-062-012,-8.9,0.209,-0.475,99.91,3.0,,0.0,0.0,137.75
2025-08-15T01:09:50.089Z,8,GR86-062-012,-8.200000000000001,0.239,-0.449,99.92,3.0,,0.0,0.0,
2025-08-15T01:09:50.135Z,8,GR86-062-012,-6.2,0.191,-0.271,74.77,3.0,,0.0,0.0,
2025-08-15T01:09:50.178Z,8,GR86-062-012,-5.2,0.107,-0.262,89.68,3.0,,0.0,0.0,
2025-08-15T01:09:50.221Z,8,GR86-062-012,-3.9,0.16,-0.365,99.62,3.0,6564.0,0.0,0.0,
2025-08-15T01:09:50.264Z,8,GR86-062-012,-1.1,0.266,-0.223,99.92,3.0,,0.0,0.0,139.49
2025-08-15T01:09:50.307Z,8,GR86-062-012,1.3,0.285,-0.19,99.91,3.0,,0.0,0.0,
2025-08-15T01:09:50.350Z,8,GR86-062-012,3.8,0.342,-0.42,99.91,3.0,,0.0,0.0,
2025-08-15T01:09:50.394Z,8,GR86-062-012,8.6,0.034,-0.199,99.91,3.0,,0.0,0.0,
2025-08-15T01:09:50.437Z,8,GR86-062-012,11.9,0.24,-0.28,99.93,3.0,6709.0,0.0,0.0,
2025-08-15T01:09:50.480Z,8,GR86-062-012,14.8,0.291,-0.278,99.92,3.0,,0.0,0.0,140.47
2025-08-15T01:09:50.526Z,8,GR86-062-012,15.7,0.266,-0.246,99.92,3.0,,0.0,0.0,
2025-08-15T01:09:50.570Z,8,GR86-062-012,14.7,0.232,-0.087,99.91,3.0,,0.0,0.0,
2025-08-15T01:09:50.613Z,8,GR86-062-012,13.2,0.171,0.055,99.91,3.0,,0.0,0.0,
2025-08-15T01:09:50.658Z,8,GR86-062-012,13.1,0.283,0.257,99.9,3.0,6767.0,0.0,0.0,
2025-08-15T01:09:50.700Z,8,GR86-062-012,13.0,0.278,0.349,99.91,3.0,,0.0,0.0,141.83
2025-08-15T01:09:50.744Z,8,GR86-062-012,12.3,0.293,0.411,99.92,3.0,,0.0,0.0,
2025-08-15T01:09:50.786Z,8,GR86-062-012,11.4,0.231,0.471,99.91,3.0,,0.0,0.0,
2025-08-15T01:09:50.829Z,8,GR86-062-012,9.9,0.183,0.484,99.92,3.0,,0.0,0.0,
2025-08-15T01:09:50.873Z,8,GR86-062-012,8.0,0.234,0.485,99.93,3.0,6735.0,0.0,0.0,
2025-08-15T01:09:50.917Z,8,GR86-062-012,7.800000000000001,0.231,0.447,99.91,3.0,,0.0,0.0,143.54
2025-08-15T01:09:50.960Z,8,GR86-062-012,7.800000000000001,0.219,0.435,99.91,3.0,,0.0,0.0,
2025-08-15T01:09:51.004Z,8,GR86-062-012,8.1,0.237,0.364,99.91,3.0,,0.0,0.0,
2025-08-15T01:09:51.046Z,8,GR86-062-012,8.9,0.245,0.353,99.92,3.0,,0.0,0.0,
2025-08-15T01:09:51.089Z,8,GR86-062-012,9.0,0.226,0.338,99.92,3.0,6824.0,0.0,0.0,
2025-08-15T01:09:51.134Z,8,GR86-062-012,9.0,0.246,0.291,99.92,3.0,,0.0,0.0,144.93
2025-08-15T01:09:51.177Z,8,GR86-062-012,9.0,0.231,0.282,99.91,3.0,,0.0,0.0,
2025-08-15T01:09:51.220Z,8,GR86-062-012,9.0,0.218,0.293,99.92,3.0,,0.0,0.0,
2025-08-15T01:09:51.264Z,8,GR86-062-012,8.9,0.216,0.298,99.91,3.0,,0.0,0.0,
2025-08-15T01:09:51.306Z,8,GR86-062-012,8.1,0.235,0.29,99.93,3.0,6874.0,0.0,0.0,
2025-08-15T01:09:51.349Z,8,GR86-062-012,7.6,0.243,0.258,99.91,3.0,,0.0,0.0,146.39
2025-08-15T01:09:51.393Z,8,GR86-062-012,6.9,0.224,0.269,99.94,3.0,,0.0,0.0,
2025-08-15T01:09:51.435Z,8,GR86-062-012,6.1000000000000005,0.235,0.24,99.94,3.0,,0.0,0.0,
2025-08-15T01:09:51.478Z,8,GR86-062-012,5.1000000000000005,0.238,0.203,99.94,3.0,,0.0,0.0,
2025-08-15T01:09:51.521Z,8,GR86-062-012,4.7,0.221,0.188,99.94,3.0,6952.0,0.0,0.0,
2025-08-15T01:09:51.565Z,8,GR86-062-012,4.5,0.202,0.157,99.95,3.0,,0.0,0.0,147.93
2025-08-15T01:09:51.608Z,8,GR86-062-012,4.5,0.2,0.149,99.93,3.0,,0.0,0.0,
2025-08-15T01:09:51.651Z,8,GR86-062-012,4.5,0.212,0.121,99.94,3.0,,0.0,0.0,
2025-08-15T01:09:51.694Z,8,GR86-062-012,4.5,0.179,0.095,99.94,3.0,,0.0,0.0,
2025-08-15T01:09:51.737Z,8,GR86-062-012,4.4,0.214,0.072,99.94,3.0,7022.0,0.0,0.0,
2025-08-15T01:09:51.780Z,8,GR86-062-012,4.4,0.096,0.052,99.91,3.0,,0.0,0.0,149.51
2025-08-15T01:09:51.824Z,8,GR86-062-012,4.6000000000000005,-0.081,0.089,99.93,4.0,,0.0,0.0,
2025-08-15T01:09:51.866Z,8,GR86-062-012,6.1000000000000005,0.48,0.056,99.95,4.0,,0.0,0.0,
2025-08-15T01:09:51.909Z,8,GR86-062-012,6.6000000000000005,0.278,-0.017,99.95,4.0,,0.0,0.0,
2025-08-15T01:09:51.953Z,8,GR86-062-012,4.2,0.222,0.129,99.94,4.0,7090.0,0.0,0.0,
2025-08-15T01:09:51.995Z,8,GR86-062-012,2.4000000000000004,0.095,0.039,99.93,4.0,,0.0,0.0,151.11
2025-08-15T01:09:52.038Z,8,GR86-062-012,2.4000000000000004,0.131,0.052,99.93,4.0,,0.0,0.0,
2025-08-15T01:09:52.081Z,8,GR86-062-012,2.4000000000000004,0.222,0.113,99.95,4.0,,0.0,0.0,
2025-08-15T01:09:52.125Z,8,GR86-062-012,2.4000000000000004,0.199,0.034,99.94,4.0,,0.0,0.0,
2025-08-15T01:09:52.168Z,8,GR86-062-012,2.4000000000000004,0.158,0.058,99.93,4.0,6717.0,0.0,0.0,
2025-08-15T01:09:52.211Z,8,GR86-062-012,2.1,0.17,0.028,99.93,4.0,,0.0,0.0,152.64
2025-08-15T01:09:52.254Z,8,GR86-062-012,2.1,0.197,0.024,99.95,4.0,,0.0,0.0,
2025-08-15T01:09:52.297Z,8,GR86-062-012,2.5,0.195,0.014,99.94,4.0,,0.0,0.0,
2025-08-15T01:09:52.340Z,8,GR86-062-012,2.6,0.172,-0.006,99.95,4.0,,0.0,0.0,
2025-08-15T01:09:52.385Z,8,GR86-062-012,2.6,0.173,-0.017,99.93,4.0,6102.0,0.0,0.0,
2025-08-15T01:09:52.428Z,8,GR86-062-012,2.7,0.186,-0.029,99.92,4.0,,0.0,0.0,154.06
2025-08-15T01:09:52.471Z,8,GR86-062-012,3.5,0.177,-0.012,99.94,4.0,,0.0,0.0,
2025-08-15T01:09:52.514Z,8,GR86-062-012,4.7,0.179,-0.005,99.94,4.0,,0.0,0.0,
2025-08-15T01:09:52.557Z,8,GR86-062-012,5.2,0.177,0.017,99.94,4.0,,0.0,0.0,
2025-08-15T01:09:52.600Z,8,GR86-062-012,5.5,0.168,0.039,99.94,4.0,6166.0,0.0,0.0,
2025-08-15T01:09:52.644Z,8,GR86-062-012,5.6000000000000005,0.17,0.067,99.93,4.0,,0.0,0.0,157.34
2025-08-15T01:09:52.686Z,8,GR86-062-012,5.7,0.164,0.09,99.94,4.0,,0.0,0.0,
2025-08-15T01:09:52.729Z,8,GR86-062-012,5.7,0.176,0.115,99.96,4.0,,0.0,0.0,
2025-08-15T01:09:52.775Z,8,GR86-062-012,5.7,0.151,0.124,99.95,4.0,,0.0,0.0,
2025-08-15T01:09:52.818Z,8,GR86-062-012,4.7,0.168,0.126,99.96,4.0,6216.0,0.0,0.0,
2025-08-15T01:09:52.861Z,8,GR86-062-012,2.4000000000000004,0.164,0.136,99.94,4.0,,0.0,0.0,158.94
2025-08-15T01:09:52.904Z,8,GR86-062-012,0.1,0.164,0.106,99.94,4.0,,0.0,0.0,
2025-08-15T01:09:52.947Z,8,GR86-062-012,-1.2000000000000002,0.17,0.064,99.93,4.0,,0.0,0.0,
2025-08-15T01:09:52.990Z,8,GR86-062-012,-1.3,0.198,0.012,99.95,4.0,,0.0,0.0,
2025-08-15T01:09:53.034Z,8,GR86-062-012,-0.8,0.162,-0.005,99.95,4.0,6337.0,0.0,0.0,
2025-08-15T01:09:53.077Z,8,GR86-062-012,-0.4,0.168,-0.053,99.95,4.0,,0.0,0.0,160.58
2025-08-15T01:09:53.120Z,8,GR86-062-012,-0.4,0.162,-0.065,99.94,4.0,,0.0,0.0,
2025-08-15T01:09:53.164Z,8,GR86-062-012,-0.6000000000000001,0.19,-0.108,99.93,4.0,,0.0,0.0,
2025-08-15T01:09:53.206Z,8,GR86-062-012,-1.8,0.195,-0.138,99.92,4.0,,0.0,0.0,
2025-08-15T01:09:53.249Z,8,GR86-062-012,-3.5,0.181,-0.144,99.95,4.0,6393.0,0.0,0.0,
2025-08-15T01:09:53.293Z,8,GR86-062-012,-4.5,0.176,-0.192,99.94,4.0,,0.0,0.0,162.11
2025-08-15T01:09:53.335Z,8,GR86-062-012,-4.2,0.185,-0.228,99.94,4.0,,0.0,0.0,
2025-08-15T01:09:53.378Z,8,GR86-062-012,-3.1,0.182,-0.246,99.94,4.0,,0.0,0.0,
2025-08-15T01:09:53.421Z,8,GR86-062-012,-2.9000000000000004,0.176,-0.241,99.95,4.0,,0.0,0.0,
2025-08-15T01:09:53.464Z,8,GR86-062-012,-2.9000000000000004,0.168,-0.246,99.92,4.0,6441.0,0.0,0.0,
2025-08-15T01:09:53.507Z,8,GR86-062-012,-3.1,0.168,-0.266,99.94,4.0,,0.0,0.0,163.77
2025-08-15T01:09:53.550Z,8,GR86-062-012,-4.6000000000000005,0.156,-0.261,99.94,4.0,,0.0,0.0,
2025-08-15T01:09:53.594Z,8,GR86-062-012,-7.5,0.179,-0.279,79.36,4.0,,0.0,0.0,
2025-08-15T01:09:53.637Z,8,GR86-062-012,-8.5,0.181,-0.299,55.86,4.0,,0.0,0.0,
2025-08-15T01:09:53.680Z,8,GR86-062-012,-8.700000000000001,0.168,-0.332,45.98,4.0,6515.0,0.0,0.0,
2025-08-15T01:09:53.724Z,8,GR86-062-012,-8.4,0.157,-0.357,38.24,4.0,,0.0,0.0,165.3
2025-08-15T01:09:53.766Z,8,GR86-062-012,-6.5,0.128,-0.371,34.71,4.0,,0.0,0.0,
2025-08-15T01:09:53.853Z,8,GR86-062-012,-4.6000000000000005,0.102,-0.378,34.62,4.0,,0.0,0.0,
2025-08-15T01:09:53.895Z,8,GR86-062-012,-3.3000000000000003,0.098,-0.31,35.39,4.0,6570.0,0.0,0.0,
2025-08-15T01:09:53.938Z,8,GR86-062-012,-5.300000000000001,0.101,-0.294,35.61,4.0,,0.0,0.0,166.82
2025-08-15T01:09:53.981Z,8,GR86-062-012,-8.4,0.098,-0.296,35.45,4.0,,0.0,0.0,
2025-08-15T01:09:54.024Z,8,GR86-062-012,-10.6,0.082,-0.331,28.51,4.0,,0.0,0.0,
2025-08-15T01:09:54.067Z,8,GR86-062-012,-10.9,0.077,-0.357,5.37,4.0,,0.0,0.0,
2025-08-15T01:09:54.110Z,8,GR86-062-012,-9.9,0.051,-0.389,4.75,4.0,6591.0,0.0,0.0,
2025-08-15T01:09:54.154Z,8,GR86-062-012,-6.7,-0.058,-0.344,4.03,4.0,,0.0,0.0,168.31
2025-08-15T01:09:54.197Z,8,GR86-062-012,-5.4,-0.349,-0.368,3.79,4.0,,0.0,0.0,
2025-08-15T01:09:54.240Z,8,GR86-062-012,-4.3,-0.216,-0.369,3.58,4.0,,0.0,0.0,
2025-08-15T01:09:54.284Z,8,GR86-062-012,-2.1,-0.067,-0.368,3.37,4.0,,0.0,0.0,
2025-08-15T01:09:54.327Z,8,GR86-062-012,1.0,-0.08,-0.4,3.1,4.0,6636.0,0.0,0.0,
2025-08-15T01:09:54.370Z,8,GR86-062-012,2.4000000000000004,-0.179,-0.326,2.81,4.0,,0.0,0.0,169.33
2025-08-15T01:09:54.414Z,8,GR86-062-012,1.4,-0.152,-0.229,2.5500000000000003,4.0,,0.0,0.0,
2025-08-15T01:09:54.458Z,8,GR86-062-012,-0.9,-0.094,-0.169,2.47,4.0,,0.0,0.0,
2025-08-15T01:09:54.500Z,8,GR86-062-012,-3.3000000000000003,-0.093,-0.127,2.41,4.0,,0.0,0.0,
2025-08-15T01:09:54.544Z,8,GR86-062-012,-5.7,-0.135,-0.123,2.39,4.0,6571.0,0.0,0.0,
2025-08-15T01:09:54.586Z,8,GR86-062-012,-7.2,-0.159,-0.119,2.38,4.0,,0.0,0.0,170.03
2025-08-15T01:09:54.629Z,8,GR86-062-012,-7.300000000000001,-0.154,-0.16,2.39,4.0,,0.0,0.0,
2025-08-15T01:09:54.673Z,8,GR86-062-012,-3.7,-0.123,-0.187,2.4,4.0,,0.0,0.0,
2025-08-15T01:09:54.717Z,8,GR86-062-012,-2.1,-0.13,-0.212,2.4,4.0,,0.0,0.0,
2025-08-15T01:09:54.760Z,8,GR86-062-012,-2.0,-0.123,-0.223,2.39,4.0,6568.0,0.0,0.0,
2025-08-15T01:09:54.804Z,8,GR86-062-012,-2.4000000000000004,-0.135,-0.249,2.42,4.0,,2.395,2.5500000000000003,169.56
2025-08-15T01:09:54.846Z,8,GR86-062-012,-2.7,-0.151,-0.245,2.44,4.0,,4.0600000000000005,4.24,
2025-08-15T01:09:54.889Z,8,GR86-062-012,-2.7,-0.19,-0.239,2.44,4.0,,7.235,7.205,
2025-08-15T01:09:54.934Z,8,GR86-062-012,-2.2,-0.282,-0.219,2.43,4.0,,12.805,12.56,
2025-08-15T01:09:54.977Z,8,GR86-062-012,-0.6000000000000001,-0.353,-0.207,2.45,4.0,6523.0,15.125,15.06,
2025-08-15T01:09:55.020Z,8,GR86-062-012,0.7000000000000001,-0.381,-0.16,2.47,4.0,,15.06,15.245,168.8
2025-08-15T01:09:55.065Z,8,GR86-062-012,0.7000000000000001,-0.383,-0.125,2.46,4.0,,13.275,13.795,
2025-08-15T01:09:55.108Z,8,GR86-062-012,-0.4,-0.355,-0.108,2.46,4.0,,7.98,9.005,
2025-08-15T01:09:55.151Z,8,GR86-062-012,-1.9,-0.291,-0.124,2.46,4.0,,3.585,4.365,
2025-08-15T01:09:55.194Z,8,GR86-062-012,-2.2,-0.167,-0.125,2.47,4.0,6487.0,0.0,0.0,
2025-08-15T01:09:55.237Z,8,GR86-062-012,-2.2,-0.141,-0.122,2.46,4.0,,2.365,2.58,166.84
2025-08-15T01:09:55.280Z,8,GR86-062-012,-1.8,-0.177,-0.127,2.47,4.0,,4.87,5.08,
2025-08-15T01:09:55.326Z,8,GR86-062-012,-0.8,-0.261,-0.117,2.46,4.0,,8.27,8.425,
2025-08-15T01:09:55.369Z,8,GR86-062-012,-0.5,-0.32,-0.086,2.49,4.0,,12.65,12.62,
2025-08-15T01:09:55.413Z,8,GR86-062-012,-0.4,-0.382,-0.082,2.49,4.0,6403.0,16.59,16.525,
2025-08-15T01:09:55.458Z,8,GR86-062-012,-0.4,-0.422,-0.068,2.49,4.0,,19.58,19.425,164.79
2025-08-15T01:09:55.500Z,8,GR86-062-012,-0.6000000000000001,-0.483,-0.072,2.49,4.0,,22.675,22.43,
2025-08-15T01:09:55.544Z,8,GR86-062-012,-1.7000000000000002,-0.525,-0.064,2.5,4.0,,25.12,24.765,
2025-08-15T01:09:55.586Z,8,GR86-062-012,-2.0,-0.543,-0.061,2.49,4.0,,27.65,27.5,
2025-08-15T01:09:55.629Z,8,GR86-062-012,-2.1,-0.577,-0.058,2.5,4.0,6363.0,31.68,31.39,
2025-08-15T01:09:55.673Z,8,GR86-062-012,-2.0,-0.739,-0.076,14.65,4.0,,40.59,40.21,163.38
2025-08-15T01:09:55.715Z,8,GR86-062-012,-2.0,-0.8230000000000001,-0.08,57.74,4.0,,46.8,46.495,
2025-08-15T01:09:55.758Z,8,GR86-062-012,-2.0,-0.893,-0.081,97.94,4.0,,52.86,52.465,
2025-08-15T01:09:55.801Z,8,GR86-062-012,-2.0,-0.975,-0.081,74.57000000000001,3.0,,58.34,57.835,
2025-08-15T01:09:55.845Z,8,GR86-062-012,-1.9,-1.248,-0.104,6.23,3.0,6116.0,62.185,62.245000000000005,
2025-08-15T01:09:55.888Z,8,GR86-062-012,-1.9,-1.054,-0.04,3.17,3.0,,65.65,67.265,160.49
2025-08-15T01:09:55.931Z,8,GR86-062-012,-1.0,-0.941,-0.172,2.71,3.0,,65.175,65.955,
2025-08-15T01:09:55.974Z,8,GR86-062-012,0.6000000000000001,-1.252,-0.09,2.49,3.0,,61.68,62.625,
2025-08-15T01:09:56.017Z,8,GR86-062-012,1.0,-1.029,-0.1,2.44,3.0,,51.275,53.0,
2025-08-15T01:09:56.060Z,8,GR86-062-012,0.9,-0.9,-0.168,2.43,3.0,6299.0,41.37,42.68,
2025-08-15T01:09:56.104Z,8,GR86-062-012,0.6000000000000001,-0.921,-0.083,2.39,3.0,,38.625,39.495,155.66
2025-08-15T01:09:56.146Z,8,GR86-062-012,0.3,-0.881,-0.129,2.41,3.0,,39.155,39.585,
2025-08-15T01:09:56.189Z,8,GR86-062-012,0.1,-0.835,-0.137,2.44,3.0,,40.09,40.395,
2025-08-15T01:09:56.234Z,8,GR86-062-012,-1.4,-0.851,-0.088,58.17,3.0,,40.47,40.895,
2025-08-15T01:09:56.277Z,8,GR86-062-012,-3.1,-0.842,-0.073,97.99,3.0,6520.0,40.56,41.215,
2025-08-15T01:09:56.320Z,8,GR86-062-012,-4.9,-1.147,-0.041,95.96,2.0,,41.05,41.555,148.09
2025-08-15T01:09:56.364Z,8,GR86-062-012,-5.6000000000000005,-1.124,-0.128,31.32,2.0,,41.37,41.645,
2025-08-15T01:09:56.406Z,8,GR86-062-012,-6.0,-0.959,-0.098,3.53,2.0,,42.33,43.295,
2025-08-15T01:09:56.449Z,8,GR86-062-012,-5.9,-0.919,-0.095,2.99,2.0,,43.46,44.055,
2025-08-15T01:09:56.493Z,8,GR86-062-012,-5.300000000000001,-1.114,-0.145,2.53,2.0,6350.0,43.675,44.195,
2025-08-15T01:09:56.535Z,8,GR86-062-012,-5.7,-0.93,-0.092,2.47,2.0,,45.55,46.495,141.72
2025-08-15T01:09:56.578Z,8,GR86-062-012,-7.1000000000000005,-0.894,-0.327,2.47,2.0,,44.97,45.49,
2025-08-15T01:09:56.621Z,8,GR86-062-012,-7.9,-0.939,-0.253,2.44,2.0,,44.71,45.095,
2025-08-15T01:09:56.664Z,8,GR86-062-012,-8.0,-0.962,-0.292,2.47,2.0,,44.56,45.095,
2025-08-15T01:09:56.707Z,8,GR86-062-012,-7.7,-0.93,-0.37,2.47,2.0,7101.0,42.605,43.52,
2025-08-15T01:09:56.750Z,8,GR86-062-012,-7.7,-0.89,-0.304,2.47,2.0,,37.205,38.41,135.6
2025-08-15T01:09:56.794Z,8,GR86-062-012,-7.7,-0.769,-0.366,2.47,2.0,,29.59,30.705,
2025-08-15T01:09:56.837Z,8,GR86-062-012,-7.7,-0.743,-0.358,2.46,2.0,,28.81,29.53,
2025-08-15T01:09:56.880Z,8,GR86-062-012,-7.6,-0.743,-0.352,2.47,2.0,,29.21,29.74,
2025-08-15T01:09:56.924Z,8,GR86-062-012,-8.5,-0.723,-0.342,2.46,2.0,7047.0,29.895,30.43,
2025-08-15T01:09:56.966Z,8,GR86-062-012,-10.9,-0.746,-0.357,2.48,2.0,,30.365,30.9,129.15
2025-08-15T01:09:57.009Z,8,GR86-062-012,-13.0,-0.737,-0.371,2.47,2.0,,30.765,31.33,
2025-08-15T01:09:57.053Z,8,GR86-062-012,-15.6,-0.752,-0.387,2.47,2.0,,31.3,31.8,
2025-08-15T01:09:57.138Z,8,GR86-062-012,-16.900000000000002,-0.742,-0.385,2.47,2.0,6761.0,31.575,32.105000000000004,
2025-08-15T01:09:57.181Z,8,GR86-062-012,-19.1,-0.743,-0.449,2.48,2.0,,31.025,31.77,122.89
2025-08-15T01:09:57.225Z,8,GR86-062-012,-20.9,-0.758,-0.47,2.48,2.0,,29.65,30.58,
2025-08-15T01:09:57.268Z,8,GR86-062-012,-22.8,-0.726,-0.534,2.47,2.0,,28.125,29.145,
2025-08-15T01:09:57.311Z,8,GR86-062-012,-25.0,-0.687,-0.554,2.48,2.0,,26.69,27.59,
2025-08-15T01:09:57.354Z,8,GR86-062-012,-29.3,-0.661,-0.633,2.5,2.0,6521.0,24.995,25.865,
2025-08-15T01:09:57.397Z,8,GR86-062-012,-32.6,-0.639,-0.685,2.5,2.0,,24.49,25.21,118.08
2025-08-15T01:09:57.440Z,8,GR86-062-012,-34.9,-0.634,-0.746,2.48,2.0,,23.93,24.675,
2025-08-15T01:09:57.485Z,8,GR86-062-012,-35.5,-0.648,-0.795,2.47,2.0,,22.965,23.715,
2025-08-15T01:09:57.528Z,8,GR86-062-012,-35.5,-0.608,-0.797,2.49,2.0,,20.175,20.935,
2025-08-15T01:09:57.571Z,8,GR86-062-012,-35.5,-0.54,-0.895,2.49,2.0,6239.0,15.84,16.740000000000002,
2025-08-15T01:09:57.614Z,8,GR86-062-012,-35.5,-0.475,-0.919,2.5,2.0,,13.305,13.915,113.18
2025-08-15T01:09:57.658Z,8,GR86-062-012,-36.2,-0.47,-0.927,2.5,2.0,,10.895,11.645,
2025-08-15T01:09:57.700Z,8,GR86-062-012,-38.7,-0.406,-0.972,2.49,2.0,,4.805,5.28,
2025-08-15T01:09:57.744Z,8,GR86-062-012,-42.3,-0.227,-0.979,2.49,2.0,,0.0,0.0,
2025-08-15T01:09:57.786Z,8,GR86-062-012,-45.0,-0.199,-1.009,2.48,2.0,5963.0,0.0,0.0,
2025-08-15T01:09:57.829Z,8,GR86-062-012,-45.8,-0.187,-1.006,16.86,2.0,,0.0,0.0,109.7
2025-08-15T01:09:57.875Z,8,GR86-062-012,-45.8,-0.183,-1.037,21.22,2.0,,0.0,0.0,
2025-08-15T01:09:57.918Z,8,GR86-062-012,-45.5,-0.158,-1.061,21.92,2.0,,0.0,0.0,
2025-08-15T01:09:57.961Z,8,GR86-062-012,-44.6,-0.098,-1.012,23.42,2.0,,0.0,0.0,
2025-08-15T01:09:58.004Z,8,GR86-062-012,-44.6,-0.106,-1.034,24.98,2.0,5759.0,0.0,0.0,
2025-08-15T01:09:58.047Z,8,GR86-062-012,-45.7,-0.063,-0.969,27.46,2.0,,0.0,0.0,103.45
2025-08-15T01:09:58.090Z,8,GR86-062-012,-50.3,0.145,-1.045,24.62,2.0,,0.0,0.0,
2025-08-15T01:09:58.134Z,8,GR86-062-012,-59.7,0.168,-1.076,8.06,2.0,,0.0,0.0,
2025-08-15T01:09:58.177Z,8,GR86-062-012,-62.7,0.071,-1.08,7.01,2.0,,0.0,0.0,
2025-08-15T01:09:58.220Z,8,GR86-062-012,-62.8,-0.041,-1.033,6.86,2.0,5713.0,0.0,0.0,
2025-08-15T01:09:58.264Z,8,GR86-062-012,-62.3,-0.123,-1.195,4.88,2.0,,0.0,0.0,102.12
2025-08-15T01:09:58.306Z,8,GR86-062-012,-62.3,-0.111,-1.153,3.97,2.0,,0.0,0.0,
2025-08-15T01:09:58.349Z,8,GR86-062-012,-62.3,-0.112,-1.232,4.69,2.0,,0.0,0.0,
2025-08-15T01:09:58.393Z,8,GR86-062-012,-61.8,-0.354,-1.232,6.46,2.0,,0.0,0.0,
2025-08-15T01:09:58.437Z,8,GR86-062-012,-60.5,-0.301,-1.272,8.48,2.0,5668.0,0.0,0.0,
2025-08-15T01:09:58.479Z,8,GR86-062-012,-60.0,-0.154,-1.142,18.02,2.0,,0.0,0.0,101.92
2025-08-15T01:09:58.523Z,8,GR86-062-012,-59.900000000000006,-0.125,-1.23,21.21,2.0,,0.0,0.0,
2025-08-15T01:09:58.566Z,8,GR86-062-012,-58.400000000000006,-0.162,-1.322,21.92,2.0,,0.0,0.0,
2025-08-15T01:09:58.609Z,8,GR86-062-012,-56.7,-0.093,-1.206,23.57,2.0,,0.0,0.0,
2025-08-15T01:09:58.653Z,8,GR86-062-012,-55.3,-0.123,-1.288,29.15,2.0,5606.0,0.0,0.0,
2025-08-15T01:09:58.695Z,8,GR86-062-012,-55.2,-0.065,-1.333,29.46,2.0,,0.0,0.0,102.29
2025-08-15T01:09:58.738Z,8,GR86-062-012,-55.0,0.192,-1.25,28.5,2.0,,0.0,0.0,
2025-08-15T01:09:58.781Z,8,GR86-062-012,-55.0,0.19,-1.144,27.41,2.0,,0.0,0.0,
2025-08-15T01:09:58.825Z,8,GR86-062-012,-55.0,0.075,-1.211,26.92,2.0,,0.0,0.0,
2025-08-15T01:09:58.868Z,8,GR86-062-012,-55.6,0.048,-1.22,26.52,2.0,5663.0,0.0,0.0,
2025-08-15T01:09:58.911Z,8,GR86-062-012,-56.2,0.127,-1.183,26.44,2.0,,0.0,0.0,101.04
2025-08-15T01:09:58.954Z,8,GR86-062-012,-57.8,0.017,-1.143,25.95,2.0,,0.0,0.0,
2025-08-15T01:09:58.997Z,8,GR86-062-012,-59.0,0.13,-1.215,25.89,2.0,,0.0,0.0,
2025-08-15T01:09:59.040Z,8,GR86-062-012,-60.0,0.158,-1.068,25.77,2.0,,0.0,0.0,
2025-08-15T01:09:59.084Z,8,GR86-062-012,-61.1,0.058,-1.055,25.54,2.0,5761.0,0.0,0.0,
2025-08-15T01:09:59.127Z,8,GR86-062-012,-63.5,-0.049,-1.127,24.48,2.0,,0.0,0.0,99.84
2025-08-15T01:09:59.170Z,8,GR86-062-012,-65.10000000000001,0.012,-1.152,24.55,2.0,,0.0,0.0,
2025-08-15T01:09:59.214Z,8,GR86-062-012,-65.4,0.069,-1.244,26.48,2.0,,0.0,0.0,
2025-08-15T01:09:59.258Z,8,GR86-062-012,-65.4,0.025,-1.315,27.15,2.0,,0.0,0.0,
2025-08-15T01:09:59.300Z,8,GR86-062-012,-65.9,0.074,-1.084,28.38,2.0,5771.0,0.0,0.0,
2025-08-15T01:09:59.344Z,8,GR86-062-012,-67.3,0.042,-1.07,30.58,2.0,,0.0,0.0,99.54
2025-08-15T01:09:59.386Z,8,GR86-062-012,-69.3,0.055,-1.065,30.97,2.0,,0.0,0.0,
2025-08-15T01:09:59.429Z,8,GR86-062-012,-71.8,0.09,-1.096,31.08,2.0,,0.0,0.0,
2025-08-15T01:09:59.473Z,8,GR86-062-012,-73.3,0.126,-1.208,32.77,2.0,,0.0,0.0,
2025-08-15T01:09:59.517Z,8,GR86-062-012,-73.3,0.085,-1.134,35.7,2.0,5726.0,0.0,0.0,
2025-08-15T01:09:59.560Z,8,GR86-062-012,-73.3,0.104,-1.16,37.11,2.0,,0.0,0.0,99.69
2025-08-15T01:09:59.604Z,8,GR86-062-012,-72.8,0.111,-1.092,38.58,2.0,,0.0,0.0,
2025-08-15T01:09:59.646Z,8,GR86-062-012,-70.9,0.113,-1.138,39.66,2.0,,0.0,0.0,
2025-08-15T01:09:59.689Z,8,GR86-062-012,-70.0,0.122,-1.004,42.33,2.0,,0.0,0.0,
2025-08-15T01:09:59.734Z,8,GR86-062-012,-69.60000000000001,0.149,-1.139,55.33,2.0,5802.0,0.0,0.0,
2025-08-15T01:09:59.778Z,8,GR86-062-012,-69.60000000000001,0.152,-1.084,58.69,2.0,,0.0,0.0,100.08
2025-08-15T01:09:59.821Z,8,GR86-062-012,-69.60000000000001,0.133,-1.166,68.94,2.0,,0.0,0.0,
2025-08-15T01:09:59.865Z,8,GR86-062-012,-69.60000000000001,0.188,-1.145,80.06,2.0,,0.0,0.0,
2025-08-15T01:09:59.908Z,8,GR86-062-012,-69.60000000000001,0.209,-1.127,84.18,2.0,,0.0,0.0,
2025-08-15T01:09:59.951Z,8,GR86-062-012,-69.60000000000001,0.228,-1.131,84.92,2.0,5853.0,0.0,0.0,
2025-08-15T01:09:59.994Z,8,GR86-062-012,-68.5,0.226,-1.156,89.46000000000001,2.0,,0.0,0.0,100.69
2025-08-15T01:10:00.037Z,8,GR86-062-012,-65.2,0.211,-1.154,90.09,2.0,,0.0,0.0,
2025-08-15T01:10:00.080Z,8,GR86-062-012,-61.2,0.198,-1.193,98.8,2.0,,0.0,0.0,
2025-08-15T01:10:00.126Z,8,GR86-062-012,-60.1,0.224,-1.177,99.84,2.0,,0.0,0.0,
2025-08-15T01:10:00.169Z,8,GR86-062-012,-60.1,0.214,-1.279,99.86,2.0,5944.0,0.0,0.0,
2025-08-15T01:10:00.213Z,8,GR86-062-012,-59.5,0.227,-1.29,99.86,2.0,,0.0,0.0,101.09
2025-08-15T01:10:00.255Z,8,GR86-062-012,-58.0,0.237,-1.254,99.87,2.0,,0.0,0.0,
2025-08-15T01:10:00.298Z,8,GR86-062-012,-56.6,0.23,-1.194,99.86,2.0,,0.0,0.0,
2025-08-15T01:10:00.341Z,8,GR86-062-012,-55.2,0.226,-1.112,99.86,2.0,,0.0,0.0,
2025-08-15T01:10:00.384Z,8,GR86-062-012,-53.8,0.232,-1.11,99.84,2.0,6014.0,0.0,0.0,
2025-08-15T01:10:00.427Z,8,GR86-062-012,-53.1,0.223,-1.065,99.87,2.0,,0.0,0.0,102.04
2025-08-15T01:10:00.470Z,8,GR86-062-012,-53.1,0.241,-1.1,99.87,2.0,,0.0,0.0,
2025-08-15T01:10:00.514Z,8,GR86-062-012,-53.1,0.24,-1.089,99.87,2.0,,0.0,0.0,
2025-08-15T01:10:00.558Z,8,GR86-062-012,-52.6,0.221,-1.076,99.88,2.0,,0.0,0.0,
2025-08-15T01:10:00.600Z,8,GR86-062-012,-50.400000000000006,0.227,-1.124,99.89,2.0,6084.0,0.0,0.0,
2025-08-15T01:10:00.644Z,8,GR86-062-012,-47.3,0.231,-1.115,99.9,2.0,,0.0,0.0,104.65
2025-08-15T01:10:00.686Z,8,GR86-062-012,-43.8,0.241,-1.09,99.88,2.0,,0.0,0.0,
2025-08-15T01:10:00.729Z,8,GR86-062-012,-40.3,0.257,-1.059,99.89,2.0,,0.0,0.0,
2025-08-15T01:10:00.773Z,8,GR86-062-012,-34.300000000000004,0.267,-1.075,99.86,2.0,,0.0,0.0,
2025-08-15T01:10:00.817Z,8,GR86-062-012,-31.0,0.261,-1.055,99.88,2.0,6139.0,0.0,0.0,
2025-08-15T01:10:00.860Z,8,GR86-062-012,-29.200000000000003,0.269,-1.005,99.88,2.0,,0.0,0.0,106.1
2025-08-15T01:10:00.904Z,8,GR86-062-012,-28.200000000000003,0.244,-0.979,99.89,2.0,,0.0,0.0,
2025-08-15T01:10:00.946Z,8,GR86-062-012,-26.9,0.261,-0.969,99.89,2.0,,0.0,0.0,
2025-08-15T01:10:00.989Z,8,GR86-062-012,-24.8,0.276,-0.938,99.88,2.0,,0.0,0.0,
2025-08-15T01:10:01.034Z,8,GR86-062-012,-20.5,0.249,-0.884,99.89,2.0,6299.0,0.0,0.0,
2025-08-15T01:10:01.077Z,8,GR86-062-012,-18.9,0.265,-0.841,99.89,2.0,,0.0,0.0,107.72
2025-08-15T01:10:01.120Z,8,GR86-062-012,-18.4,0.29,-0.774,99.88,2.0,,0.0,0.0,
2025-08-15T01:10:01.164Z,8,GR86-062-012,-18.3,0.271,-0.721,99.89,2.0,,0.0,0.0,
2025-08-15T01:10:01.206Z,8,GR86-062-012,-18.3,0.272,-0.676,99.89,2.0,,0.0,0.0,
2025-08-15T01:10:01.249Z,8,GR86-062-012,-18.1,0.255,-0.621,99.9,2.0,6354.0,0.0,0.0,
2025-08-15T01:10:01.293Z,8,GR86-062-012,-16.1,0.26,-0.557,99.9,2.0,,0.0,0.0,108.46
2025-08-15T01:10:01.335Z,8,GR86-062-012,-15.7,0.273,-0.505,99.9,2.0,,0.0,0.0,
2025-08-15T01:10:01.378Z,8,GR86-062-012,-15.6,0.275,-0.482,99.9,2.0,,0.0,0.0,
2025-08-15T01:10:01.421Z,8,GR86-062-012,-15.6,0.257,-0.485,99.9,2.0,,0.0,0.0,
2025-08-15T01:10:01.466Z,8,GR86-062-012,-15.6,0.268,-0.469,99.89,2.0,6416.0,0.0,0.0,
2025-08-15T01:10:01.508Z,8,GR86-062-012,-15.6,0.27,-0.454,99.89,2.0,,0.0,0.0,110.0
2025-08-15T01:10:01.551Z,8,GR86-062-012,-15.5,0.265,-0.452,99.9,2.0,,0.0,0.0,
2025-08-15T01:10:01.594Z,8,GR86-062-012,-15.5,0.261,-0.435,99.88,2.0,,0.0,0.0,
2025-08-15T01:10:01.637Z,8,GR86-062-012,-15.5,0.271,-0.435,99.89,2.0,,0.0,0.0,
2025-08-15T01:10:01.680Z,8,GR86-062-012,-15.5,0.255,-0.426,99.9,2.0,6520.0,0.0,0.0,
2025-08-15T01:10:01.724Z,8,GR86-062-012,-15.4,0.263,-0.406,99.91,2.0,,0.0,0.0,111.93
2025-08-15T01:10:01.766Z,8,GR86-062-012,-14.4,0.27,-0.429,99.9,2.0,,0.0,0.0,
2025-08-15T01:10:01.809Z,8,GR86-062-012,-12.7,0.272,-0.438,99.9,2.0,,0.0,0.0,
2025-08-15T01:10:01.853Z,8,GR86-062-012,-10.9,0.275,-0.428,99.89,2.0,,0.0,0.0,
2025-08-15T01:10:01.895Z,8,GR86-062-012,-10.9,0.28,-0.409,99.89,2.0,6617.0,0.0,0.0,
2025-08-15T01:10:01.938Z,8,GR86-062-012,-10.7,0.275,-0.381,99.88,2.0,,0.0,0.0,113.79
2025-08-15T01:10:01.981Z,8,GR86-062-012,-9.8,0.262,-0.356,99.89,2.0,,0.0,0.0,
2025-08-15T01:10:02.024Z,8,GR86-062-012,-9.1,0.272,-0.34,99.89,2.0,,0.0,0.0,
2025-08-15T01:10:02.067Z,8,GR86-062-012,-8.9,0.262,-0.296,99.92,2.0,,0.0,0.0,
2025-08-15T01:10:02.110Z,8,GR86-062-012,-8.700000000000001,0.264,-0.291,99.9,2.0,6716.0,0.0,0.0,
2025-08-15T01:10:02.154Z,8,GR86-062-012,-8.700000000000001,0.263,-0.272,99.89,2.0,,0.0,0.0,115.54
2025-08-15T01:10:02.197Z,8,GR86-062-012,-8.700000000000001,0.267,-0.294,99.91,2.0,,0.0,0.0,
2025-08-15T01:10:02.240Z,8,GR86-062-012,-8.700000000000001,0.27,-0.281,99.9,2.0,,0.0,0.0,
2025-08-15T01:10:02.285Z,8,GR86-062-012,-8.700000000000001,0.255,-0.276,99.89,2.0,,0.0,0.0,
2025-08-15T01:10:02.328Z,8,GR86-062-012,-8.700000000000001,0.272,-0.314,99.92,2.0,6813.0,0.0,0.0,
2025-08-15T01:10:02.371Z,8,GR86-062-012,-7.4,0.278,-0.312,99.92,2.0,,0.0,0.0,117.37
2025-08-15T01:10:02.414Z,8,GR86-062-012,-2.9000000000000004,0.046,-0.293,99.91,3.0,,0.0,0.0,
2025-08-15T01:10:02.458Z,8,GR86-062-012,-2.4000000000000004,-0.011,-0.203,99.92,3.0,,0.0,0.0,
2025-08-15T01:10:02.501Z,8,GR86-062-012,-2.0,0.558,-0.226,99.92,3.0,,0.0,0.0,
2025-08-15T01:10:02.546Z,8,GR86-062-012,-2.0,0.421,-0.253,99.91,3.0,6925.0,0.0,0.0,
2025-08-15T01:10:02.588Z,8,GR86-062-012,-3.0,0.36,-0.112,99.91,3.0,,0.0,0.0,119.1
2025-08-15T01:10:02.631Z,8,GR86-062-012,-3.9,0.259,-0.206,99.92,3.0,,0.0,0.0,
2025-08-15T01:10:02.676Z,8,GR86-062-012,-4.1000000000000005,0.133,-0.18,99.91,3.0,,0.0,0.0,
2025-08-15T01:10:02.719Z,8,GR86-062-012,-4.1000000000000005,0.204,-0.172,99.92,3.0,,0.0,0.0,
2025-08-15T01:10:02.763Z,8,GR86-062-012,-4.1000000000000005,0.297,-0.206,99.92,3.0,6619.0,0.0,0.0,
2025-08-15T01:10:02.806Z,8,GR86-062-012,-4.1000000000000005,0.264,-0.145,99.91,3.0,,0.0,0.0,120.96
2025-08-15T01:10:02.849Z,8,GR86-062-012,-4.4,0.196,-0.178,99.91,3.0,,0.0,0.0,
2025-08-15T01:10:02.893Z,8,GR86-062-012,-4.5,0.194,-0.167,99.91,3.0,,0.0,0.0,
2025-08-15T01:10:02.936Z,8,GR86-062-012,-4.3,0.244,-0.189,99.91,3.0,,0.0,0.0,
2025-08-15T01:10:02.980Z,8,GR86-062-012,-3.3000000000000003,0.247,-0.198,99.91,3.0,5664.0,0.0,0.0,
2025-08-15T01:10:03.024Z,8,GR86-062-012,-2.1,0.222,-0.219,99.92,3.0,,0.0,0.0,122.45
2025-08-15T01:10:03.066Z,8,GR86-062-012,-1.1,0.226,-0.197,99.93,3.0,,0.0,0.0,
2025-08-15T01:10:03.109Z,8,GR86-062-012,-0.6000000000000001,0.223,-0.188,99.92,3.0,,0.0,0.0,
2025-08-15T01:10:03.153Z,8,GR86-062-012,-0.4,0.24,-0.139,99.92,3.0,,0.0,0.0,
2025-08-15T01:10:03.195Z,8,GR86-062-012,-0.3,0.234,-0.112,99.92,3.0,5802.0,0.0,0.0,
2025-08-15T01:10:03.238Z,8,GR86-062-012,-0.3,0.224,-0.093,99.92,3.0,,0.0,0.0,125.86
2025-08-15T01:10:03.281Z,8,GR86-062-012,-0.2,0.236,-0.049,99.92,3.0,,0.0,0.0,
2025-08-15T01:10:03.325Z,8,GR86-062-012,-0.1,0.226,-0.059,99.92,3.0,,0.0,0.0,
2025-08-15T01:10:03.368Z,8,GR86-062-012,-0.1,0.225,-0.056,99.92,3.0,,0.0,0.0,
2025-08-15T01:10:03.411Z,8,GR86-062-012,-0.1,0.243,-0.039,99.93,3.0,5901.0,0.0,0.0,
2025-08-15T01:10:03.454Z,8,GR86-062-012,-0.1,0.222,-0.049,99.91,3.0,,0.0,0.0,127.44
2025-08-15T01:10:03.497Z,8,GR86-062-012,-0.1,0.233,-0.06,99.91,3.0,,0.0,0.0,
2025-08-15T01:10:03.540Z,8,GR86-062-012,-0.1,0.227,-0.078,99.92,3.0,,0.0,0.0,
2025-08-15T01:10:03.584Z,8,GR86-062-012,0.0,0.216,-0.067,99.91,3.0,,0.0,0.0,
2025-08-15T01:10:03.627Z,8,GR86-062-012,0.2,0.23,-0.053,99.92,3.0,5971.0,0.0,0.0,
2025-08-15T01:10:03.670Z,8,GR86-062-012,0.7000000000000001,0.237,-0.048,99.91,3.0,,0.0,0.0,128.84
2025-08-15T01:10:03.714Z,8,GR86-062-012,1.4,0.243,-0.04,99.92,3.0,,0.0,0.0,
2025-08-15T01:10:03.757Z,8,GR86-062-012,1.8,0.236,-0.054,99.92,3.0,,0.0,0.0,
2025-08-15T01:10:03.800Z,8,GR86-062-012,2.0,0.216,-0.036,99.91,3.0,,0.0,0.0,
2025-08-15T01:10:03.844Z,8,GR86-062-012,2.1,0.232,-0.026,99.92,3.0,6107.0,0.0,0.0,
2025-08-15T01:10:03.886Z,8,GR86-062-012,2.4000000000000004,0.244,-0.03,99.92,3.0,,0.0,0.0,130.34
2025-08-15T01:10:03.929Z,8,GR86-062-012,2.7,0.211,-0.033,99.91,3.0,,0.0,0.0,
2025-08-15T01:10:03.973Z,8,GR86-062-012,3.0,0.221,-0.005,99.92,3.0,,0.0,0.0,
2025-08-15T01:10:04.017Z,8,GR86-062-012,3.1,0.209,0.013,99.93,3.0,,0.0,0.0,
2025-08-15T01:10:04.059Z,8,GR86-062-012,3.2,0.228,0.021,99.91,3.0,6173.0,0.0,0.0,
2025-08-15T01:10:04.103Z,8,GR86-062-012,3.2,0.24,0.03,99.93,3.0,,0.0,0.0,131.8
2025-08-15T01:10:04.146Z,8,GR86-062-012,3.2,0.226,0.01,99.92,3.0,,0.0,0.0,
2025-08-15T01:10:04.188Z,8,GR86-062-012,3.1,0.21,0.028,99.92,3.0,,0.0,0.0,
2025-08-15T01:10:04.231Z,8,GR86-062-012,2.9000000000000004,0.227,0.04,99.93,3.0,,0.0,0.0,
2025-08-15T01:10:04.274Z,8,GR86-062-012,2.8000000000000003,0.217,0.02,99.92,3.0,6243.0,0.0,0.0,
2025-08-15T01:10:04.317Z,8,GR86-062-012,2.8000000000000003,0.229,0.018,99.92,3.0,,0.0,0.0,133.22
2025-08-15T01:10:04.360Z,8,GR86-062-012,2.8000000000000003,0.217,0.001,99.93,3.0,,0.0,0.0,
2025-08-15T01:10:04.404Z,8,GR86-062-012,2.8000000000000003,0.203,0.009,99.93,3.0,,0.0,0.0,
2025-08-15T01:10:04.446Z,8,GR86-062-012,2.8000000000000003,0.221,0.008,99.92,3.0,,0.0,0.0,
2025-08-15T01:10:04.489Z,8,GR86-062-012,2.8000000000000003,0.243,0.008,99.91,3.0,6309.0,0.0,0.0,
2025-08-15T01:10:04.534Z,8,GR86-062-012,2.8000000000000003,0.213,0.003,99.92,3.0,,0.0,0.0,134.57
2025-08-15T01:10:04.578Z,8,GR86-062-012,2.8000000000000003,0.236,-0.002,99.92,3.0,,0.0,0.0,
2025-08-15T01:10:04.621Z,8,GR86-062-012,2.8000000000000003,0.209,-0.008,99.93,3.0,,0.0,0.0,
2025-08-15T01:10:04.665Z,8,GR86-062-012,2.8000000000000003,0.207,-0.001,99.92,3.0,,0.0,0.0,
2025-08-15T01:10:04.708Z,8,GR86-062-012,2.8000000000000003,0.229,0.01,99.93,3.0,6379.0,0.0,0.0,
2025-08-15T01:10:04.751Z,8,GR86-062-012,2.8000000000000003,0.229,-0.006,99.91,3.0,,0.0,0.0,135.94
2025-08-15T01:10:04.794Z,8,GR86-062-012,2.8000000000000003,0.22,-0.006,99.92,3.0,,0.0,0.0,
2025-08-15T01:10:04.837Z,8,GR86-062-012,2.8000000000000003,0.235,-0.021,99.93,3.0,,0.0,0.0,
2025-08-15T01:10:04.880Z,8,GR86-062-012,2.9000000000000004,0.212,-0.008,99.92,3.0,,0.0,0.0,
2025-08-15T01:10:04.926Z,8,GR86-062-012,2.8000000000000003,0.197,0.001,99.93,3.0,6438.0,0.0,0.0,
2025-08-15T01:10:04.970Z,8,GR86-062-012,2.7,0.218,0.008,99.91,3.0,,0.0,0.0,137.35
2025-08-15T01:10:05.014Z,8,GR86-062-012,2.5,0.201,0.004,99.92,3.0,,0.0,0.0,
2025-08-15T01:10:05.058Z,8,GR86-062-012,2.4000000000000004,0.234,-0.005,99.93,3.0,,0.0,0.0,
2025-08-15T01:10:05.101Z,8,GR86-062-012,2.4000000000000004,0.243,-0.015,99.91,3.0,,0.0,0.0,
2025-08-15T01:10:05.145Z,8,GR86-062-012,2.4000000000000004,0.206,-0.039,99.92,3.0,6498.0,0.0,0.0,
2025-08-15T01:10:05.188Z,8,GR86-062-012,2.4000000000000004,0.21,-0.033,99.92,3.0,,0.0,0.0,138.73
2025-08-15T01:10:05.231Z,8,GR86-062-012,2.4000000000000004,0.215,-0.027,99.92,3.0,,0.0,0.0,
2025-08-15T01:10:05.274Z,8,GR86-062-012,2.4000000000000004,0.194,-0.028,99.91,3.0,,0.0,0.0,
2025-08-15T01:10:05.317Z,8,GR86-062-012,2.4000000000000004,0.216,-0.022,99.93,3.0,,0.0,0.0,
2025-08-15T01:10:05.360Z,8,GR86-062-012,2.4000000000000004,0.228,-0.039,99.92,3.0,6566.0,0.0,0.0,
2025-08-15T01:10:05.404Z,8,GR86-062-012,2.4000000000000004,0.211,-0.033,99.93,3.0,,0.0,0.0,140.14
2025-08-15T01:10:05.446Z,8,GR86-062-012,2.5,0.18,-0.028,99.93,3.0,,0.0,0.0,
2025-08-15T01:10:05.489Z,8,GR86-062-012,2.6,0.192,-0.026,99.93,3.0,,0.0,0.0,
2025-08-15T01:10:05.534Z,8,GR86-062-012,2.7,0.178,-0.02,99.92,3.0,,0.0,0.0,
2025-08-15T01:10:05.577Z,8,GR86-062-012,2.7,0.206,-0.023,99.92,3.0,6625.0,0.0,0.0,
2025-08-15T01:10:05.620Z,8,GR86-062-012,2.7,0.228,-0.013,99.92,3.0,,0.0,0.0,141.46
2025-08-15T01:10:05.664Z,8,GR86-062-012,2.7,0.218,-0.02,99.92,3.0,,0.0,0.0,
2025-08-15T01:10:05.706Z,8,GR86-062-012,2.7,0.203,-0.043,99.91,3.0,,0.0,0.0,
2025-08-15T01:10:05.749Z,8,GR86-062-012,2.6,0.191,-0.03,99.92,3.0,,0.0,0.0,
2025-08-15T01:10:05.793Z,8,GR86-062-012,2.6,0.205,-0.018,99.93,3.0,6677.0,0.0,0.0,
2025-08-15T01:10:05.835Z,8,GR86-062-012,2.6,0.182,-0.015,99.93,3.0,,0.0,0.0,143.95000000000002
2025-08-15T01:10:05.878Z,8,GR86-062-012,2.5,0.197,-0.027,99.93,3.0,,0.0,0.0,
2025-08-15T01:10:05.921Z,8,GR86-062-012,2.5,0.226,-0.027,99.93,3.0,,0.0,0.0,
2025-08-15T01:10:05.966Z,8,GR86-062-012,2.5,0.23,-0.043,99.91,3.0,,0.0,0.0,
2025-08-15T01:10:06.008Z,8,GR86-062-012,2.4000000000000004,0.211,-0.026,99.91,3.0,6732.0,0.0,0.0,
2025-08-15T01:10:06.051Z,8,GR86-062-012,2.3000000000000003,0.187,-0.019,99.91,3.0,,0.0,0.0,145.18
2025-08-15T01:10:06.094Z,8,GR86-062-012,2.2,0.209,-0.032,99.91,3.0,,0.0,0.0,
2025-08-15T01:10:06.137Z,8,GR86-062-012,2.0,0.19,-0.029,99.92,3.0,,0.0,0.0,
2025-08-15T01:10:06.180Z,8,GR86-062-012,1.7000000000000002,0.198,-0.023,99.93,3.0,,0.0,0.0,
2025-08-15T01:10:06.224Z,8,GR86-062-012,1.4,0.21,-0.034,99.93,3.0,6786.0,0.0,0.0,
2025-08-15T01:10:06.266Z,8,GR86-062-012,1.3,0.216,-0.048,99.9,3.0,,0.0,0.0,146.37
2025-08-15T01:10:06.309Z,8,GR86-062-012,1.2000000000000002,0.204,-0.069,99.92,3.0,,0.0,0.0,
2025-08-15T01:10:06.353Z,8,GR86-062-012,1.0,0.218,-0.067,99.91,3.0,,0.0,0.0,
2025-08-15T01:10:06.395Z,8,GR86-062-012,0.9,0.214,-0.069,99.92,3.0,,0.0,0.0,
2025-08-15T01:10:06.438Z,8,GR86-062-012,0.7000000000000001,0.197,-0.068,99.92,3.0,6910.0,0.0,0.0,
2025-08-15T01:10:06.481Z,8,GR86-062-012,0.6000000000000001,0.189,-0.083,99.91,3.0,,0.0,0.0,147.58
2025-08-15T01:10:06.525Z,8,GR86-062-012,0.5,0.198,-0.095,99.92,3.0,,0.0,0.0,
2025-08-15T01:10:06.568Z,8,GR86-062-012,0.5,0.212,-0.111,99.92,3.0,,0.0,0.0,
2025-08-15T01:10:06.611Z,8,GR86-062-012,0.5,0.211,-0.105,99.92,3.0,,0.0,0.0,
2025-08-15T01:10:06.654Z,8,GR86-062-012,0.2,0.206,-0.089,99.92,3.0,6972.0,0.0,0.0,
2025-08-15T01:10:06.697Z,8,GR86-062-012,0.1,0.206,-0.123,99.91,3.0,,0.0,0.0,148.82
2025-08-15T01:10:06.740Z,8,GR86-062-012,0.1,0.198,-0.117,99.91,3.0,,0.0,0.0,
2025-08-15T01:10:06.784Z,8,GR86-062-012,0.1,0.199,-0.098,99.92,3.0,,0.0,0.0,
2025-08-15T01:10:06.827Z,8,GR86-062-012,0.3,0.186,-0.086,99.93,3.0,,0.0,0.0,
2025-08-15T01:10:06.870Z,8,GR86-062-012,0.5,0.184,-0.08,99.91,3.0,7013.0,0.0,0.0,
2025-08-15T01:10:06.914Z,8,GR86-062-012,0.7000000000000001,0.174,-0.074,99.91,3.0,,0.0,0.0,150.03
2025-08-15T01:10:06.957Z,8,GR86-062-012,0.9,0.181,-0.076,99.92,3.0,,0.0,0.0,
2025-08-15T01:10:07.000Z,8,GR86-062-012,1.3,0.195,-0.056,99.92,3.0,,0.0,0.0,
2025-08-15T01:10:07.044Z,8,GR86-062-012,1.7000000000000002,0.203,-0.059,99.92,3.0,,0.0,0.0,
2025-08-15T01:10:07.086Z,8,GR86-062-012,1.7000000000000002,0.206,-0.043,99.91,3.0,7071.0,0.0,0.0,
2025-08-15T01:10:07.129Z,8,GR86-062-012,1.7000000000000002,0.199,-0.028,99.91,3.0,,0.0,0.0,151.19
2025-08-15T01:10:07.176Z,8,GR86-062-012,1.7000000000000002,0.199,-0.034,99.92,3.0,,0.0,0.0,
2025-08-15T01:10:07.219Z,8,GR86-062-012,1.7000000000000002,0.194,-0.029,99.92,3.0,,0.0,0.0,
2025-08-15T01:10:07.263Z,8,GR86-062-012,1.8,0.185,-0.017,99.96,3.0,,0.0,0.0,
2025-08-15T01:10:07.306Z,8,GR86-062-012,1.8,0.186,0.012,99.91,3.0,7127.0,0.0,0.0,
2025-08-15T01:10:07.349Z,8,GR86-062-012,1.8,0.193,0.007,99.93,3.0,,0.0,0.0,152.37
2025-08-15T01:10:07.393Z,8,GR86-062-012,1.7000000000000002,0.162,-0.021,99.92,3.0,,0.0,0.0,
2025-08-15T01:10:07.437Z,8,GR86-062-012,1.7000000000000002,-0.126,0.012,99.93,4.0,,0.0,0.0,
2025-08-15T01:10:07.479Z,8,GR86-062-012,0.9,0.428,0.013,99.92,4.0,,0.0,0.0,
2025-08-15T01:10:07.524Z,8,GR86-062-012,-0.1,0.233,-0.12,99.94,4.0,7181.0,0.0,0.0,
2025-08-15T01:10:07.566Z,8,GR86-062-012,-1.7000000000000002,0.317,-0.055,99.93,4.0,,0.0,0.0,153.54
2025-08-15T01:10:07.609Z,8,GR86-062-012,-2.4000000000000004,0.196,-0.05,99.92,4.0,,0.0,0.0,
2025-08-15T01:10:07.653Z,8,GR86-062-012,-2.6,0.093,-0.153,99.92,4.0,,0.0,0.0,
2025-08-15T01:10:07.695Z,8,GR86-062-012,-2.4000000000000004,0.199,-0.089,99.94,4.0,,0.0,0.0,
2025-08-15T01:10:07.738Z,8,GR86-062-012,-1.9,0.221,-0.176,99.93,4.0,6897.0,0.0,0.0,
2025-08-15T01:10:07.781Z,8,GR86-062-012,-1.8,0.159,-0.17,99.92,4.0,,0.0,0.0,154.68
2025-08-15T01:10:07.826Z,8,GR86-062-012,-1.7000000000000002,0.117,-0.136,99.91,4.0,,0.0,0.0,
2025-08-15T01:10:07.868Z,8,GR86-062-012,-1.2000000000000002,0.142,-0.17,99.92,4.0,,0.0,0.0,
2025-08-15T01:10:07.911Z,8,GR86-062-012,-0.2,0.18,-0.109,99.92,4.0,,0.0,0.0,
2025-08-15T01:10:07.954Z,8,GR86-062-012,0.2,0.154,-0.127,99.91,4.0,6042.0,0.0,0.0,
2025-08-15T01:10:07.997Z,8,GR86-062-012,0.3,0.128,-0.091,99.91,4.0,,0.0,0.0,155.66
2025-08-15T01:10:08.040Z,8,GR86-062-012,0.5,0.16,-0.071,99.93,4.0,,0.0,0.0,
2025-08-15T01:10:08.086Z,8,GR86-062-012,0.6000000000000001,0.177,-0.045,99.93,4.0,,0.0,0.0,
2025-08-15T01:10:08.128Z,8,GR86-062-012,0.6000000000000001,0.175,-0.038,99.91,4.0,,0.0,0.0,
2025-08-15T01:10:08.171Z,8,GR86-062-012,0.3,0.173,-0.03,99.91,4.0,6164.0,0.0,0.0,
2025-08-15T01:10:08.214Z,8,GR86-062-012,0.2,0.176,-0.048,99.93,4.0,,0.0,0.0,156.84
2025-08-15T01:10:08.258Z,8,GR86-062-012,0.2,0.171,-0.054,99.91,4.0,,0.0,0.0,
2025-08-15T01:10:08.300Z,8,GR86-062-012,0.1,0.172,-0.083,99.93,4.0,,0.0,0.0,
2025-08-15T01:10:08.344Z,8,GR86-062-012,0.0,0.179,-0.083,99.91,4.0,,0.0,0.0,
2025-08-15T01:10:08.386Z,8,GR86-062-012,-0.1,0.164,-0.099,99.92,4.0,6211.0,0.0,0.0,
2025-08-15T01:10:08.429Z,8,GR86-062-012,-0.1,0.151,-0.095,99.92,4.0,,0.0,0.0,157.73
2025-08-15T01:10:08.473Z,8,GR86-062-012,0.2,0.175,-0.089,99.92,4.0,,0.0,0.0,
2025-08-15T01:10:08.516Z,8,GR86-062-012,0.4,0.162,-0.083,99.93,4.0,,0.0,0.0,
2025-08-15T01:10:08.559Z,8,GR86-062-012,0.5,0.146,-0.081,99.91,4.0,,0.0,0.0,
2025-08-15T01:10:08.603Z,8,GR86-062-012,0.5,0.147,-0.081,99.93,4.0,6241.0,0.0,0.0,
2025-08-15T01:10:08.645Z,8,GR86-062-012,1.0,0.156,-0.079,99.93,4.0,,0.0,0.0,159.58
2025-08-15T01:10:08.688Z,8,GR86-062-012,1.3,0.156,-0.034,99.94,4.0,,0.0,0.0,
2025-08-15T01:10:08.731Z,8,GR86-062-012,1.3,0.161,-0.032,99.91,4.0,,0.0,0.0,
2025-08-15T01:10:08.774Z,8,GR86-062-012,1.5,0.15,-0.024,99.91,4.0,,0.0,0.0,
2025-08-15T01:10:08.817Z,8,GR86-062-012,1.7000000000000002,0.15,-0.024,99.92,4.0,6281.0,0.0,0.0,
2025-08-15T01:10:08.860Z,8,GR86-062-012,1.7000000000000002,0.153,-0.001,99.93,4.0,,0.0,0.0,160.61
2025-08-15T01:10:08.904Z,8,GR86-062-012,1.7000000000000002,0.162,-0.003,99.91,4.0,,0.0,0.0,
2025-08-15T01:10:08.946Z,8,GR86-062-012,1.6,0.166,0.009,99.93,4.0,,0.0,0.0,
2025-08-15T01:10:08.989Z,8,GR86-062-012,0.8,0.176,-0.011,99.93,4.0,,0.0,0.0,
2025-08-15T01:10:09.034Z,8,GR86-062-012,0.2,0.143,-0.004,99.91,4.0,6356.0,0.0,0.0,
2025-08-15T01:10:09.078Z,8,GR86-062-012,0.2,0.156,-0.037,99.92,4.0,,0.0,0.0,161.62
2025-08-15T01:10:09.121Z,8,GR86-062-012,0.1,0.165,-0.026,99.92,4.0,,0.0,0.0,
2025-08-15T01:10:09.165Z,8,GR86-062-012,0.2,0.171,-0.054,99.92,4.0,,0.0,0.0,
2025-08-15T01:10:09.208Z,8,GR86-062-012,0.2,0.19,-0.051,99.9,4.0,,0.0,0.0,
2025-08-15T01:10:09.251Z,8,GR86-062-012,0.2,0.171,-0.06,99.93,4.0,6398.0,0.0,0.0,
2025-08-15T01:10:09.294Z,8,GR86-062-012,0.2,0.145,-0.051,99.93,4.0,,0.0,0.0,162.65
2025-08-15T01:10:09.337Z,8,GR86-062-012,0.1,0.161,-0.061,99.92,4.0,,0.0,0.0,
2025-08-15T01:10:09.380Z,8,GR86-062-012,-0.1,0.174,-0.047,99.91,4.0,,0.0,0.0,
2025-08-15T01:10:09.426Z,8,GR86-062-012,-0.7000000000000001,0.175,-0.056,99.93,4.0,,0.0,0.0,
2025-08-15T01:10:09.470Z,8,GR86-062-012,-1.2000000000000002,0.158,-0.075,99.92,4.0,6432.0,0.0,0.0,
2025-08-15T01:10:09.513Z,8,GR86-062-012,-1.4,0.155,-0.102,99.91,4.0,,0.0,0.0,163.75
2025-08-15T01:10:09.558Z,8,GR86-062-012,-1.4,0.162,-0.104,99.91,4.0,,0.0,0.0,
2025-08-15T01:10:09.601Z,8,GR86-062-012,-1.4,0.146,-0.124,99.91,4.0,,0.0,0.0,
2025-08-15T01:10:09.644Z,8,GR86-062-012,-1.4,0.153,-0.165,99.91,4.0,,0.0,0.0,
2025-08-15T01:10:09.687Z,8,GR86-062-012,-1.6,0.163,-0.148,99.92,4.0,6477.0,0.0,0.0,
2025-08-15T01:10:09.730Z,8,GR86-062-012,-1.9,0.14,-0.171,99.93,4.0,,0.0,0.0,164.71
2025-08-15T01:10:09.774Z,8,GR86-062-012,-1.9,0.15,-0.177,99.92,4.0,,0.0,0.0,
2025-08-15T01:10:09.817Z,8,GR86-062-012,-1.9,0.167,-0.158,99.91,4.0,,0.0,0.0,
2025-08-15T01:10:09.860Z,8,GR86-062-012,-1.8,0.165,-0.181,99.91,4.0,,0.0,0.0,
2025-08-15T01:10:09.904Z,8,GR86-062-012,-1.6,0.163,-0.173,99.91,4.0,6515.0,0.0,0.0,
2025-08-15T01:10:09.946Z,8,GR86-062-012,-1.6,0.16,-0.164,99.93,4.0,,0.0,0.0,165.75
2025-08-15T01:10:09.989Z,8,GR86-062-012,-1.6,0.143,-0.16,99.92,4.0,,0.0,0.0,
2025-08-15T01:10:10.034Z,8,GR86-062-012,-2.0,0.16,-0.155,99.91,4.0,,0.0,0.0,
2025-08-15T01:10:10.078Z,8,GR86-062-012,-2.0,0.164,-0.163,99.92,4.0,,0.0,0.0,
2025-08-15T01:10:10.121Z,8,GR86-062-012,-2.0,0.17,-0.176,99.92,4.0,6559.0,0.0,0.0,
2025-08-15T01:10:10.166Z,8,GR86-062-012,-2.0,0.161,-0.151,99.91,4.0,,0.0,0.0,166.71
2025-08-15T01:10:10.208Z,8,GR86-062-012,-2.0,0.146,-0.156,99.91,4.0,,0.0,0.0,
2025-08-15T01:10:10.251Z,8,GR86-062-012,-2.0,0.144,-0.166,99.9,4.0,,0.0,0.0,
2025-08-15T01:10:10.294Z,8,GR86-062-012,-1.9,0.136,-0.153,99.92,4.0,,0.0,0.0,
2025-08-15T01:10:10.337Z,8,GR86-062-012,-1.6,0.168,-0.15,99.91,4.0,6601.0,0.0,0.0,
2025-08-15T01:10:10.380Z,8,GR86-062-012,-1.5,0.167,-0.124,99.91,4.0,,0.0,0.0,167.69
2025-08-15T01:10:10.424Z,8,GR86-062-012,-1.4,0.159,-0.128,99.92,4.0,,0.0,0.0,
2025-08-15T01:10:10.466Z,8,GR86-062-012,-1.4,0.166,-0.137,99.9,4.0,,0.0,0.0,
2025-08-15T01:10:10.509Z,8,GR86-062-012,-1.4,0.162,-0.108,99.91,4.0,,0.0,0.0,
2025-08-15T01:10:10.553Z,8,GR86-062-012,-1.4,0.146,-0.118,99.9,4.0,6636.0,0.0,0.0,
2025-08-15T01:10:10.595Z,8,GR86-062-012,-1.6,0.149,-0.106,99.9,4.0,,0.0,0.0,168.74
2025-08-15T01:10:10.638Z,8,GR86-062-012,-1.7000000000000002,0.138,-0.124,99.91,4.0,,0.0,0.0,
2025-08-15T01:10:10.681Z,8,GR86-062-012,-1.7000000000000002,0.16,-0.151,99.92,4.0,,0.0,0.0,
2025-08-15T01:10:10.724Z,8,GR86-062-012,-1.8,0.154,-0.153,99.91,4.0,,0.0,0.0,
2025-08-15T01:10:10.767Z,8,GR86-062-012,-1.8,0.145,-0.161,99.91,4.0,6668.0,0.0,0.0,
2025-08-15T01:10:10.810Z,8,GR86-062-012,-1.8,0.145,-0.172,99.91,4.0,,0.0,0.0,169.74
2025-08-15T01:10:10.854Z,8,GR86-062-012,-1.8,0.139,-0.187,99.92,4.0,,0.0,0.0,
2025-08-15T01:10:10.897Z,8,GR86-062-012,-1.8,0.136,-0.167,99.92,4.0,,0.0,0.0,
2025-08-15T01:10:10.940Z,8,GR86-062-012,-1.8,0.141,-0.155,99.92,4.0,,0.0,0.0,
2025-08-15T01:10:10.984Z,8,GR86-062-012,-1.8,0.151,-0.148,99.92,4.0,6705.0,0.0,0.0,
2025-08-15T01:10:11.027Z,8,GR86-062-012,-1.8,0.142,-0.172,99.92,4.0,,0.0,0.0,170.57
2025-08-15T01:10:11.070Z,8,GR86-062-012,-1.8,0.157,-0.16,99.92,4.0,,0.0,0.0,
2025-08-15T01:10:11.114Z,8,GR86-062-012,-1.8,0.136,-0.144,99.92,4.0,,0.0,0.0,
2025-08-15T01:10:11.157Z,8,GR86-062-012,-1.8,0.124,-0.127,99.92,4.0,,0.0,0.0,
2025-08-15T01:10:11.200Z,8,GR86-062-012,-1.7000000000000002,0.144,-0.161,99.92,4.0,6746.0,0.0,0.0,
2025-08-15T01:10:11.244Z,8,GR86-062-012,-1.6,0.136,-0.135,99.93,4.0,,0.0,0.0,172.58
2025-08-15T01:10:11.286Z,8,GR86-062-012,-1.5,0.158,-0.138,99.91,4.0,,0.0,0.0,
2025-08-15T01:10:11.329Z,8,GR86-062-012,-1.4,0.146,-0.107,99.89,4.0,,0.0,0.0,
2025-08-15T01:10:11.376Z,8,GR86-062-012,-1.4,0.133,-0.1,99.92,4.0,,0.0,0.0,
2025-08-15T01:10:11.419Z,8,GR86-062-012,-1.4,0.151,-0.107,99.92,4.0,6779.0,0.0,0.0,
2025-08-15T01:10:11.463Z,8,GR86-062-012,-1.4,0.149,-0.123,99.91,4.0,,0.0,0.0,173.54
2025-08-15T01:10:11.506Z,8,GR86-062-012,-1.4,0.142,-0.108,99.91,4.0,,0.0,0.0,
2025-08-15T01:10:11.549Z,8,GR86-062-012,-1.4,0.137,-0.114,99.89,4.0,,0.0,0.0,
2025-08-15T01:10:11.593Z,8,GR86-062-012,-1.4,0.156,-0.132,99.9,4.0,,0.0,0.0,
2025-08-15T01:10:11.637Z,8,GR86-062-012,-1.4,0.157,-0.149,99.89,4.0,6854.0,0.0,0.0,
2025-08-15T01:10:11.679Z,8,GR86-062-012,-1.5,0.149,-0.166,99.92,4.0,,0.0,0.0,174.51
2025-08-15T01:10:11.724Z,8,GR86-062-012,-1.5,0.169,-0.161,99.93,4.0,,0.0,0.0,
2025-08-15T01:10:11.766Z,8,GR86-062-012,-1.5,0.142,-0.177,99.91,4.0,,0.0,0.0,
2025-08-15T01:10:11.809Z,8,GR86-062-012,-1.5,0.13,-0.182,99.92,4.0,,0.0,0.0,
2025-08-15T01:10:11.853Z,8,GR86-062-012,-1.4,0.145,-0.174,99.89,4.0,6899.0,0.0,0.0,
2025-08-15T01:10:11.895Z,8,GR86-062-012,-1.4,0.159,-0.173,99.9,4.0,,0.0,0.0,175.39
2025-08-15T01:10:11.938Z,8,GR86-062-012,-1.4,0.158,-0.154,99.91,4.0,,0.0,0.0,
2025-08-15T01:10:11.981Z,8,GR86-062-012,-1.6,0.15,-0.14,99.92,4.0,,0.0,0.0,
2025-08-15T01:10:12.024Z,8,GR86-062-012,-1.7000000000000002,0.14,-0.152,99.91,4.0,,0.0,0.0,
2025-08-15T01:10:12.067Z,8,GR86-062-012,-1.9,0.154,-0.147,99.91,4.0,6933.0,0.0,0.0,
2025-08-15T01:10:12.110Z,8,GR86-062-012,-1.8,0.157,-0.155,99.9,4.0,,0.0,0.0,176.44
2025-08-15T01:10:12.154Z,8,GR86-062-012,0.7000000000000001,0.128,-0.136,99.92,4.0,,0.0,0.0,
2025-08-15T01:10:12.197Z,8,GR86-062-012,1.9,0.134,-0.113,99.91,4.0,,0.0,0.0,
2025-08-15T01:10:12.240Z,8,GR86-062-012,2.0,0.115,-0.1,99.91,4.0,,0.0,0.0,
2025-08-15T01:10:12.284Z,8,GR86-062-012,2.0,0.134,-0.086,99.92,4.0,6978.0,0.0,0.0,
2025-08-15T01:10:12.327Z,8,GR86-062-012,1.9,0.125,-0.049,99.92,4.0,,0.0,0.0,177.41
2025-08-15T01:10:12.370Z,8,GR86-062-012,1.9,0.142,-0.038,99.92,4.0,,0.0,0.0,
2025-08-15T01:10:12.414Z,8,GR86-062-012,1.6,0.138,-0.011,99.93,4.0,,0.0,0.0,
2025-08-15T01:10:12.458Z,8,GR86-062-012,1.0,0.14,-0.011,99.9,4.0,,0.0,0.0,
2025-08-15T01:10:12.501Z,8,GR86-062-012,0.5,0.125,-0.005,99.9,4.0,7004.0,0.0,0.0,
2025-08-15T01:10:12.546Z,8,GR86-062-012,-0.2,0.132,-0.022,99.92,4.0,,0.0,0.0,178.43
2025-08-15T01:10:12.588Z,8,GR86-062-012,-0.8,0.136,-0.055,99.91,4.0,,0.0,0.0,
2025-08-15T01:10:12.631Z,8,GR86-062-012,-0.9,0.135,-0.061,99.92,4.0,,0.0,0.0,
2025-08-15T01:10:12.674Z,8,GR86-062-012,-0.9,0.147,-0.077,99.89,4.0,,0.0,0.0,
2025-08-15T01:10:12.717Z,8,GR86-062-012,-0.9,0.145,-0.073,99.9,4.0,7043.0,0.0,0.0,
2025-08-15T01:10:12.760Z,8,GR86-062-012,-0.9,0.122,-0.095,99.92,4.0,,0.0,0.0,179.35
2025-08-15T01:10:12.804Z,8,GR86-062-012,-0.9,0.136,-0.114,99.91,4.0,,0.0,0.0,
2025-08-15T01:10:12.846Z,8,GR86-062-012,-0.9,0.133,-0.123,99.92,4.0,,0.0,0.0,
2025-08-15T01:10:12.889Z,8,GR86-062-012,-0.7000000000000001,0.127,-0.111,99.92,4.0,,0.0,0.0,
2025-08-15T01:10:12.934Z,8,GR86-062-012,0.2,0.122,-0.103,99.91,4.0,7076.0,0.0,0.0,
2025-08-15T01:10:12.977Z,8,GR86-062-012,0.3,0.129,-0.106,99.92,4.0,,0.0,0.0,180.17
2025-08-15T01:10:13.020Z,8,GR86-062-012,0.3,0.123,-0.095,99.93,4.0,,0.0,0.0,
2025-08-15T01:10:13.064Z,8,GR86-062-012,0.3,0.131,-0.072,99.9,4.0,,0.0,0.0,
2025-08-15T01:10:13.107Z,8,GR86-062-012,0.4,0.127,-0.061,99.9,4.0,,0.0,0.0,
2025-08-15T01:10:13.150Z,8,GR86-062-012,0.4,0.114,-0.041,99.89,4.0,7112.0,0.0,0.0,
2025-08-15T01:10:13.194Z,8,GR86-062-012,0.4,0.136,-0.038,99.92,4.0,,0.0,0.0,181.13
2025-08-15T01:10:13.237Z,8,GR86-062-012,0.4,0.123,-0.036,99.9,4.0,,0.0,0.0,
2025-08-15T01:10:13.280Z,8,GR86-062-012,0.4,0.123,-0.046,99.91,4.0,,0.0,0.0,
2025-08-15T01:10:13.326Z,8,GR86-062-012,0.3,0.138,-0.052,99.91,4.0,,0.0,0.0,
2025-08-15T01:10:13.370Z,8,GR86-062-012,-0.1,0.132,-0.037,99.9,4.0,7146.0,0.0,0.0,
2025-08-15T01:10:13.413Z,8,GR86-062-012,-0.6000000000000001,0.133,-0.084,99.92,4.0,,0.0,0.0,181.99
2025-08-15T01:10:13.456Z,8,GR86-062-012,-0.7000000000000001,0.113,-0.098,99.91,4.0,,0.0,0.0,
2025-08-15T01:10:13.499Z,8,GR86-062-012,-0.6000000000000001,0.134,-0.104,99.91,4.0,,0.0,0.0,
2025-08-15T01:10:13.543Z,8,GR86-062-012,-0.6000000000000001,0.125,-0.092,99.9,4.0,,0.0,0.0,
2025-08-15T01:10:13.585Z,8,GR86-062-012,-0.6000000000000001,0.104,-0.104,99.92,4.0,7178.0,0.0,0.0,
2025-08-15T01:10:13.628Z,8,GR86-062-012,-0.6000000000000001,0.143,-0.126,99.92,4.0,,0.0,0.0,182.79
2025-08-15T01:10:13.671Z,8,GR86-062-012,-0.4,0.133,-0.128,99.89,4.0,,0.0,0.0,
2025-08-15T01:10:13.714Z,8,GR86-062-012,0.0,0.108,-0.099,99.92,4.0,,0.0,0.0,
2025-08-15T01:10:13.757Z,8,GR86-062-012,0.1,0.124,-0.083,99.9,4.0,,0.0,0.0,
2025-08-15T01:10:13.800Z,8,GR86-062-012,0.1,0.11,-0.058,99.9,4.0,7210.0,0.0,0.0,
2025-08-15T01:10:13.844Z,8,GR86-062-012,0.1,0.107,-0.053,99.91,4.0,,0.0,0.0,184.45
2025-08-15T01:10:13.886Z,8,GR86-062-012,0.0,0.142,-0.035,99.92,4.0,,0.0,0.0,
2025-08-15T01:10:13.929Z,8,GR86-062-012,-0.3,0.116,-0.035,99.92,4.0,,0.0,0.0,
2025-08-15T01:10:13.973Z,8,GR86-062-012,-1.0,0.127,-0.071,99.89,4.0,,0.0,0.0,
2025-08-15T01:10:14.017Z,8,GR86-062-012,-1.4,0.135,-0.077,99.91,4.0,7246.0,0.0,0.0,
2025-08-15T01:10:14.060Z,8,GR86-062-012,-1.5,0.094,-0.104,99.93,4.0,,0.0,0.0,185.36
2025-08-15T01:10:14.104Z,8,GR86-062-012,-1.4,0.113,-0.113,99.91,4.0,,0.0,0.0,
2025-08-15T01:10:14.146Z,8,GR86-062-012,-1.0,0.093,-0.125,99.92,4.0,,0.0,0.0,
2025-08-15T01:10:14.189Z,8,GR86-062-012,-0.3,0.093,-0.125,99.92,4.0,,0.0,0.0,
2025-08-15T01:10:14.234Z,8,GR86-062-012,0.2,0.052,-0.13,99.9,4.0,7252.0,0.0,0.0,
2025-08-15T01:10:14.277Z,8,GR86-062-012,0.2,-0.143,-0.107,99.9,5.0,,0.0,0.0,185.96
2025-08-15T01:10:14.320Z,8,GR86-062-012,0.2,0.098,-0.095,99.91,5.0,,0.0,0.0,
2025-08-15T01:10:14.364Z,8,GR86-062-012,0.6000000000000001,0.259,-0.154,99.92,5.0,,0.0,0.0,
2025-08-15T01:10:14.406Z,8,GR86-062-012,0.7000000000000001,0.24,-0.133,99.9,5.0,,0.0,0.0,
2025-08-15T01:10:14.449Z,8,GR86-062-012,0.3,0.074,-0.051,99.92,5.0,7316.0,0.0,0.0,
2025-08-15T01:10:14.493Z,8,GR86-062-012,0.2,0.091,-0.132,99.93,5.0,,0.0,0.0,186.79
2025-08-15T01:10:14.535Z,8,GR86-062-012,0.2,0.166,-0.051,99.91,5.0,,0.0,0.0,
2025-08-15T01:10:14.578Z,8,GR86-062-012,0.5,0.104,-0.102,99.91,5.0,,0.0,0.0,
2025-08-15T01:10:14.621Z,8,GR86-062-012,0.5,0.073,-0.086,99.91,5.0,,0.0,0.0,
2025-08-15T01:10:14.664Z,8,GR86-062-012,0.5,0.113,-0.064,99.92,5.0,6277.0,0.0,0.0,
2025-08-15T01:10:14.707Z,8,GR86-062-012,0.5,0.133,-0.084,99.91,5.0,,0.0,0.0,187.13
2025-08-15T01:10:14.750Z,8,GR86-062-012,1.0,0.099,-0.049,99.93,5.0,,0.0,0.0,
2025-08-15T01:10:14.837Z,8,GR86-062-012,1.3,0.129,-0.068,99.93,5.0,,0.0,0.0,
2025-08-15T01:10:14.880Z,8,GR86-062-012,1.3,0.121,-0.068,99.94,5.0,6403.0,0.0,0.0,
2025-08-15T01:10:14.924Z,8,GR86-062-012,1.3,0.114,-0.053,99.92,5.0,,0.0,0.0,188.22
2025-08-15T01:10:14.966Z,8,GR86-062-012,1.3,0.112,-0.045,99.92,5.0,,0.0,0.0,
2025-08-15T01:10:15.009Z,8,GR86-062-012,1.3,0.107,-0.03,99.92,5.0,,0.0,0.0,
2025-08-15T01:10:15.053Z,8,GR86-062-012,1.4,0.126,-0.027,99.93,5.0,,0.0,0.0,
2025-08-15T01:10:15.095Z,8,GR86-062-012,1.5,0.138,-0.011,99.91,5.0,6442.0,0.0,0.0,
2025-08-15T01:10:15.138Z,8,GR86-062-012,1.5,0.126,-0.01,99.92,5.0,,0.0,0.0,189.01
2025-08-15T01:10:15.181Z,8,GR86-062-012,1.5,0.134,-0.016,99.92,5.0,,0.0,0.0,
2025-08-15T01:10:15.224Z,8,GR86-062-012,1.5,0.123,-0.004,99.91,5.0,,0.0,0.0,
2025-08-15T01:10:15.267Z,8,GR86-062-012,1.5,0.116,-0.005,99.93,5.0,,0.0,0.0,
2025-08-15T01:10:15.310Z,8,GR86-062-012,1.6,0.121,-0.012,99.92,5.0,6455.0,0.0,0.0,
2025-08-15T01:10:15.354Z,8,GR86-062-012,1.9,0.13,-0.019,99.91,5.0,,0.0,0.0,189.75
2025-08-15T01:10:15.397Z,8,GR86-062-012,2.1,0.124,-0.009,99.9,5.0,,0.0,0.0,
2025-08-15T01:10:15.440Z,8,GR86-062-012,2.2,0.126,-0.005,99.92,5.0,,0.0,0.0,
2025-08-15T01:10:15.484Z,8,GR86-062-012,2.2,0.126,0.012,99.91,5.0,,0.0,0.0,
2025-08-15T01:10:15.528Z,8,GR86-062-012,2.3000000000000003,0.119,0.002,99.92,5.0,6482.0,0.0,0.0,
2025-08-15T01:10:15.571Z,8,GR86-062-012,2.3000000000000003,0.118,0.006,99.91,5.0,,0.0,0.0,190.53
2025-08-15T01:10:15.614Z,8,GR86-062-012,2.4000000000000004,0.11,0.013,99.91,5.0,,0.0,0.0,
2025-08-15T01:10:15.658Z,8,GR86-062-012,2.5,0.106,0.036,99.93,5.0,,0.0,0.0,
2025-08-15T01:10:15.700Z,8,GR86-062-012,2.5,0.11,0.043,99.91,5.0,,0.0,0.0,
2025-08-15T01:10:15.744Z,8,GR86-062-012,2.4000000000000004,0.117,0.053,99.91,5.0,6504.0,0.0,0.0,
2025-08-15T01:10:15.786Z,8,GR86-062-012,2.4000000000000004,0.118,0.044,99.92,5.0,,0.0,0.0,191.31
2025-08-15T01:10:15.829Z,8,GR86-062-012,2.4000000000000004,0.118,0.024,99.92,5.0,,0.0,0.0,
2025-08-15T01:10:15.875Z,8,GR86-062-012,2.4000000000000004,0.101,0.019,99.93,5.0,,0.0,0.0,
2025-08-15T01:10:15.919Z,8,GR86-062-012,2.3000000000000003,0.105,0.012,99.92,5.0,,0.0,0.0,
2025-08-15T01:10:15.963Z,8,GR86-062-012,2.2,0.102,-0.011,99.91,5.0,6531.0,0.0,0.0,
2025-08-15T01:10:16.006Z,8,GR86-062-012,2.1,0.112,-0.006,99.91,5.0,,0.0,0.0,192.04
2025-08-15T01:10:16.049Z,8,GR86-062-012,1.8,0.127,-0.004,99.92,5.0,,0.0,0.0,
2025-08-15T01:10:16.093Z,8,GR86-062-012,1.6,0.109,-0.004,99.91,5.0,,0.0,0.0,
2025-08-15T01:10:16.135Z,8,GR86-062-012,1.6,0.116,0.0,99.92,5.0,,0.0,0.0,
2025-08-15T01:10:16.178Z,8,GR86-062-012,1.6,0.096,-0.02,99.93,5.0,6563.0,0.0,0.0,
2025-08-15T01:10:16.221Z,8,GR86-062-012,1.5,0.099,-0.029,99.92,5.0,,0.0,0.0,192.71
2025-08-15T01:10:16.264Z,8,GR86-062-012,1.4,0.115,-0.033,99.92,5.0,,0.0,0.0,
2025-08-15T01:10:16.307Z,8,GR86-062-012,1.4,0.118,-0.038,99.91,5.0,,0.0,0.0,
2025-08-15T01:10:16.350Z,8,GR86-062-012,1.4,0.102,-0.053,99.92,5.0,,0.0,0.0,
2025-08-15T01:10:16.394Z,8,GR86-062-012,1.4,0.098,-0.066,99.9,5.0,6583.0,0.0,0.0,
2025-08-15T01:10:16.437Z,8,GR86-062-012,1.4,0.104,-0.059,99.92,5.0,,0.0,0.0,194.24
2025-08-15T01:10:16.480Z,8,GR86-062-012,1.4,0.1,-0.032,99.92,5.0,,0.0,0.0,
2025-08-15T01:10:16.524Z,8,GR86-062-012,1.4,0.107,-0.043,99.92,5.0,,0.0,0.0,
2025-08-15T01:10:16.566Z,8,GR86-062-012,1.4,0.116,-0.023,99.92,5.0,,0.0,0.0,
2025-08-15T01:10:16.609Z,8,GR86-062-012,1.4,0.121,-0.027,99.92,5.0,6611.0,0.0,0.0,
2025-08-15T01:10:16.653Z,8,GR86-062-012,1.4,0.096,-0.037,99.92,5.0,,0.0,0.0,194.96
2025-08-15T01:10:16.695Z,8,GR86-062-012,1.4,0.101,-0.035,99.92,5.0,,0.0,0.0,
2025-08-15T01:10:16.738Z,8,GR86-062-012,1.3,0.101,-0.024,99.93,5.0,,0.0,0.0,
2025-08-15T01:10:16.781Z,8,GR86-062-012,1.3,0.114,-0.047,99.92,5.0,,0.0,0.0,
2025-08-15T01:10:16.825Z,8,GR86-062-012,1.3,0.106,-0.029,99.91,5.0,6633.0,0.0,0.0,
2025-08-15T01:10:16.868Z,8,GR86-062-012,1.3,0.112,-0.038,99.91,5.0,,0.0,0.0,195.69
2025-08-15T01:10:16.911Z,8,GR86-062-012,1.3,0.112,-0.026,99.92,5.0,,0.0,0.0,
2025-08-15T01:10:16.954Z,8,GR86-062-012,1.3,0.093,-0.011,99.9,5.0,,0.0,0.0,
2025-08-15T01:10:16.997Z,8,GR86-062-012,1.4,0.099,-0.033,99.92,5.0,,0.0,0.0,
2025-08-15T01:10:17.040Z,8,GR86-062-012,1.4,0.119,-0.046,99.91,5.0,6669.0,0.0,0.0,
2025-08-15T01:10:17.084Z,8,GR86-062-012,1.4,0.102,-0.041,99.92,5.0,,0.0,0.0,196.35
2025-08-15T01:10:17.127Z,8,GR86-062-012,1.4,0.116,-0.045,99.92,5.0,,0.0,0.0,
2025-08-15T01:10:17.170Z,8,GR86-062-012,1.4,0.101,-0.044,99.92,5.0,,0.0,0.0,
2025-08-15T01:10:17.214Z,8,GR86-062-012,1.4,0.11,-0.051,99.92,5.0,,0.0,0.0,
2025-08-15T01:10:17.258Z,8,GR86-062-012,1.4,0.12,-0.045,99.92,5.0,6703.0,0.0,0.0,
2025-08-15T01:10:17.300Z,8,GR86-062-012,1.3,0.109,-0.031,99.93,5.0,,0.0,0.0,196.99
2025-08-15T01:10:17.344Z,8,GR86-062-012,1.3,0.097,-0.044,99.94,5.0,,0.0,0.0,
2025-08-15T01:10:17.386Z,8,GR86-062-012,1.3,0.102,-0.045,99.94,5.0,,0.0,0.0,
2025-08-15T01:10:17.429Z,8,GR86-062-012,1.3,0.103,-0.06,99.92,5.0,,0.0,0.0,
2025-08-15T01:10:17.473Z,8,GR86-062-012,1.3,0.114,-0.031,99.9,5.0,6717.0,0.0,0.0,
2025-08-15T01:10:17.515Z,8,GR86-062-012,1.3,0.087,-0.047,99.9,5.0,,0.0,0.0,197.61
2025-08-15T01:10:17.559Z,8,GR86-062-012,1.3,0.103,-0.064,99.92,5.0,,0.0,0.0,
2025-08-15T01:10:17.603Z,8,GR86-062-012,1.3,0.106,-0.064,99.9,5.0,,0.0,0.0,
2025-08-15T01:10:17.645Z,8,GR86-062-012,1.4,0.097,-0.066,99.91,5.0,,0.0,0.0,
2025-08-15T01:10:17.688Z,8,GR86-062-012,1.4,0.095,-0.073,99.91,5.0,6740.0,0.0,0.0,
2025-08-15T01:10:17.731Z,8,GR86-062-012,1.5,0.102,-0.066,99.91,5.0,,0.0,0.0,198.29
2025-08-15T01:10:17.774Z,8,GR86-062-012,2.1,0.099,-0.029,99.91,5.0,,0.0,0.0,
2025-08-15T01:10:17.817Z,8,GR86-062-012,2.6,0.09,-0.012,99.91,5.0,,0.0,0.0,
2025-08-15T01:10:17.860Z,8,GR86-062-012,3.0,0.101,0.0,99.92,5.0,,0.0,0.0,
2025-08-15T01:10:17.904Z,8,GR86-062-012,3.3000000000000003,0.097,0.002,99.89,5.0,6771.0,0.0,0.0,
2025-08-15T01:10:17.946Z,8,GR86-062-012,3.3000000000000003,0.1,-0.011,99.9,5.0,,0.0,0.0,198.98
2025-08-15T01:10:17.989Z,8,GR86-062-012,3.3000000000000003,0.104,0.022,99.9,5.0,,0.0,0.0,
2025-08-15T01:10:18.035Z,8,GR86-062-012,3.3000000000000003,0.096,0.021,99.9,5.0,,0.0,0.0,
2025-08-15T01:10:18.078Z,8,GR86-062-012,3.4000000000000004,0.1,0.057,99.92,5.0,,0.0,0.0,
2025-08-15T01:10:18.121Z,8,GR86-062-012,3.6,0.105,0.063,99.91,5.0,6789.0,0.0,0.0,
2025-08-15T01:10:18.165Z,8,GR86-062-012,3.9,0.097,0.089,99.91,5.0,,0.0,0.0,199.62
2025-08-15T01:10:18.208Z,8,GR86-062-012,4.4,0.114,0.057,99.89,5.0,,0.0,0.0,
2025-08-15T01:10:18.251Z,8,GR86-062-012,4.7,0.11,0.088,99.9,5.0,,0.0,0.0,
2025-08-15T01:10:18.294Z,8,GR86-062-012,5.0,0.096,0.106,99.9,5.0,,0.0,0.0,
2025-08-15T01:10:18.337Z,8,GR86-062-012,5.300000000000001,0.114,0.127,99.89,5.0,6816.0,0.0,0.0,
2025-08-15T01:10:18.380Z,8,GR86-062-012,5.300000000000001,0.103,0.129,99.9,5.0,,0.0,0.0,200.35
2025-08-15T01:10:18.426Z,8,GR86-062-012,5.4,0.114,0.151,99.91,5.0,,0.0,0.0,
2025-08-15T01:10:18.470Z,8,GR86-062-012,5.5,0.115,0.147,99.91,5.0,,0.0,0.0,
2025-08-15T01:10:18.513Z,8,GR86-062-012,6.0,0.117,0.174,99.9,5.0,,0.0,0.0,
2025-08-15T01:10:18.558Z,8,GR86-062-012,6.5,0.109,0.178,99.91,5.0,6843.0,0.0,0.0,
2025-08-15T01:10:18.600Z,8,GR86-062-012,7.1000000000000005,0.118,0.19,99.9,5.0,,0.0,0.0,201.13
2025-08-15T01:10:18.644Z,8,GR86-062-012,7.4,0.123,0.21,99.9,5.0,,0.0,0.0,
2025-08-15T01:10:18.686Z,8,GR86-062-012,7.5,0.099,0.255,99.91,5.0,,0.0,0.0,
2025-08-15T01:10:18.729Z,8,GR86-062-012,7.5,0.103,0.271,99.93,5.0,,0.0,0.0,
2025-08-15T01:10:18.773Z,8,GR86-062-012,7.6,0.122,0.291,99.89,5.0,6859.0,0.0,0.0,
2025-08-15T01:10:18.815Z,8,GR86-062-012,7.6,0.118,0.308,99.91,5.0,,0.0,0.0,201.85
2025-08-15T01:10:18.858Z,8,GR86-062-012,7.9,0.098,0.307,99.91,5.0,,0.0,0.0,
2025-08-15T01:10:18.901Z,8,GR86-062-012,8.200000000000001,0.095,0.297,99.91,5.0,,0.0,0.0,
2025-08-15T01:10:18.946Z,8,GR86-062-012,8.8,0.102,0.302,99.91,5.0,,0.0,0.0,
2025-08-15T01:10:18.988Z,8,GR86-062-012,9.3,0.099,0.325,99.9,5.0,6888.0,0.0,0.0,
2025-08-15T01:10:19.031Z,8,GR86-062-012,9.7,0.119,0.337,99.92,5.0,,0.0,0.0,202.48
2025-08-15T01:10:19.074Z,8,GR86-062-012,10.2,0.097,0.342,99.9,5.0,,0.0,0.0,
2025-08-15T01:10:19.117Z,8,GR86-062-012,10.4,0.1,0.373,99.93,5.0,,0.0,0.0,
2025-08-15T01:10:19.160Z,8,GR86-062-012,10.4,0.109,0.367,99.91,5.0,,0.0,0.0,
2025-08-15T01:10:19.204Z,8,GR86-062-012,10.5,0.114,0.381,99.9,5.0,6910.0,0.0,0.0,
2025-08-15T01:10:19.246Z,8,GR86-062-012,10.5,0.119,0.39,99.92,5.0,,0.0,0.0,203.89
2025-08-15T01:10:19.289Z,8,GR86-062-012,10.5,0.108,0.44,99.92,5.0,,0.0,0.0,
2025-08-15T01:10:19.334Z,8,GR86-062-012,10.5,0.124,0.44,99.92,5.0,,0.0,0.0,
2025-08-15T01:10:19.377Z,8,GR86-062-012,10.5,0.12,0.416,99.89,5.0,,0.0,0.0,
2025-08-15T01:10:19.420Z,8,GR86-062-012,10.5,0.098,0.44,99.91,5.0,6936.0,0.0,0.0,
2025-08-15T01:10:19.464Z,8,GR86-062-012,10.4,0.112,0.435,99.91,5.0,,0.0,0.0,204.57
2025-08-15T01:10:19.506Z,8,GR86-062-012,10.4,0.099,0.481,99.89,5.0,,0.0,0.0,
2025-08-15T01:10:19.549Z,8,GR86-062-012,10.3,0.111,0.471,99.93,5.0,,0.0,0.0,
2025-08-15T01:10:19.593Z,8,GR86-062-012,9.7,0.122,0.455,99.93,5.0,,0.0,0.0,
2025-08-15T01:10:19.635Z,8,GR86-062-012,8.9,0.087,0.444,99.92,5.0,6982.0,0.0,0.0,
2025-08-15T01:10:19.678Z,8,GR86-062-012,8.0,0.094,0.445,99.91,5.0,,0.0,0.0,205.1
2025-08-15T01:10:19.721Z,8,GR86-062-012,7.800000000000001,0.11,0.393,99.92,5.0,,0.0,0.0,
2025-08-15T01:10:19.764Z,8,GR86-062-012,7.800000000000001,0.104,0.37,99.92,5.0,,0.0,0.0,
2025-08-15T01:10:19.807Z,8,GR86-062-012,7.7,0.138,0.328,99.91,5.0,,0.0,0.0,
2025-08-15T01:10:19.850Z,8,GR86-062-012,7.800000000000001,0.118,0.301,99.92,5.0,7000.0,0.0,0.0,
2025-08-15T01:10:19.894Z,8,GR86-062-012,7.800000000000001,0.099,0.26,99.92,5.0,,0.0,0.0,205.79
2025-08-15T01:10:19.937Z,8,GR86-062-012,8.1,0.115,0.253,99.91,5.0,,0.0,0.0,
2025-08-15T01:10:19.980Z,8,GR86-062-012,8.3,0.12,0.254,99.9,5.0,,0.0,0.0,
2025-08-15T01:10:20.024Z,8,GR86-062-012,8.3,0.112,0.281,99.92,5.0,,0.0,0.0,
2025-08-15T01:10:20.066Z,8,GR86-062-012,8.3,0.1,0.295,99.92,5.0,7023.0,0.0,0.0,
2025-08-15T01:10:20.109Z,8,GR86-062-012,8.4,0.078,0.306,99.91,5.0,,0.0,0.0,206.53
2025-08-15T01:10:20.153Z,8,GR86-062-012,8.4,0.105,0.317,99.91,5.0,,0.0,0.0,
2025-08-15T01:10:20.195Z,8,GR86-062-012,8.0,0.089,0.33,99.89,5.0,,0.0,0.0,
2025-08-15T01:10:20.238Z,8,GR86-062-012,7.6,0.082,0.317,99.92,5.0,,0.0,0.0,
2025-08-15T01:10:20.281Z,8,GR86-062-012,7.4,0.092,0.314,99.92,5.0,7043.0,0.0,0.0,
2025-08-15T01:10:20.324Z,8,GR86-062-012,7.1000000000000005,0.121,0.304,99.91,5.0,,0.0,0.0,207.06
2025-08-15T01:10:20.367Z,8,GR86-062-012,7.0,0.113,0.281,99.92,5.0,,0.0,0.0,
2025-08-15T01:10:20.410Z,8,GR86-062-012,7.0,0.103,0.247,99.93,5.0,,0.0,0.0,
2025-08-15T01:10:20.454Z,8,GR86-062-012,7.1000000000000005,0.121,0.227,99.92,5.0,,0.0,0.0,
2025-08-15T01:10:20.540Z,8,GR86-062-012,7.300000000000001,0.109,0.259,99.91,5.0,7074.0,0.0,0.0,207.86
2025-08-15T01:10:20.585Z,8,GR86-062-012,9.0,0.066,0.273,99.9,5.0,,0.0,0.0,
2025-08-15T01:10:20.628Z,8,GR86-062-012,10.3,0.068,0.284,99.92,5.0,,0.0,0.0,
2025-08-15T01:10:20.671Z,8,GR86-062-012,11.5,0.067,0.35,99.9,5.0,,0.0,0.0,
2025-08-15T01:10:20.714Z,8,GR86-062-012,13.6,0.087,0.402,99.92,5.0,7100.0,0.0,0.0,
2025-08-15T01:10:20.757Z,8,GR86-062-012,15.2,0.085,0.438,99.92,5.0,,0.0,0.0,208.37
2025-08-15T01:10:20.800Z,8,GR86-062-012,16.5,0.088,0.444,99.9,5.0,,0.0,0.0,
2025-08-15T01:10:20.844Z,8,GR86-062-012,16.8,0.082,0.466,99.9,5.0,,0.0,0.0,
2025-08-15T01:10:20.886Z,8,GR86-062-012,16.8,0.106,0.517,99.92,5.0,,0.0,0.0,
2025-08-15T01:10:20.929Z,8,GR86-062-012,16.1,0.096,0.544,99.91,5.0,7119.0,0.0,0.0,
2025-08-15T01:10:20.975Z,8,GR86-062-012,15.7,0.095,0.643,99.92,5.0,,0.0,0.0,209.21
2025-08-15T01:10:21.018Z,8,GR86-062-012,15.7,0.092,0.667,69.22,5.0,,0.0,0.0,
2025-08-15T01:10:21.061Z,8,GR86-062-012,15.3,0.094,0.731,12.84,5.0,,0.0,0.0,
2025-08-15T01:10:21.104Z,8,GR86-062-012,13.6,0.082,0.7030000000000001,5.5200000000000005,5.0,,0.0,0.0,
2025-08-15T01:10:21.147Z,8,GR86-062-012,11.4,-0.075,0.736,5.33,5.0,7145.0,0.0,0.0,
2025-08-15T01:10:21.190Z,8,GR86-062-012,9.6,-0.136,0.716,4.89,5.0,,0.0,0.0,210.21
2025-08-15T01:10:21.234Z,8,GR86-062-012,8.5,-0.336,0.5690000000000001,4.01,5.0,,5.6450000000000005,6.0600000000000005,
2025-08-15T01:10:21.277Z,8,GR86-062-012,8.4,-0.15,0.488,3.73,5.0,,9.215,9.49,
2025-08-15T01:10:21.320Z,8,GR86-062-012,7.9,-0.248,0.426,3.52,5.0,,10.56,10.745,
2025-08-15T01:10:21.364Z,8,GR86-062-012,7.7,-0.305,0.323,3.29,5.0,7188.0,14.605,14.815,
2025-08-15T01:10:21.406Z,8,GR86-062-012,7.6,-0.462,0.299,3.02,5.0,,19.96,19.99,210.59
2025-08-15T01:10:21.449Z,8,GR86-062-012,6.300000000000001,-0.496,0.216,2.76,5.0,,25.085,24.995,
2025-08-15T01:10:21.493Z,8,GR86-062-012,3.3000000000000003,-0.602,0.151,2.53,5.0,,32.565,32.475,
2025-08-15T01:10:21.536Z,8,GR86-062-012,1.3,-0.7030000000000001,0.107,2.48,5.0,,37.86,37.675,
2025-08-15T01:10:21.579Z,8,GR86-062-012,0.8,-0.785,0.089,2.44,5.0,7061.0,43.52,43.05,
2025-08-15T01:10:21.624Z,8,GR86-062-012,1.0,-0.796,0.036,2.4,5.0,,50.71,50.31,211.38
2025-08-15T01:10:21.666Z,8,GR86-062-012,2.6,-0.963,0.036,2.42,5.0,,57.99,57.53,
2025-08-15T01:10:21.709Z,8,GR86-062-012,2.6,-1.034,0.024,2.43,5.0,,62.565000000000005,62.06,
2025-08-15T01:10:21.753Z,8,GR86-062-012,2.3000000000000003,-1.036,0.009,2.42,5.0,,65.525,65.08500000000001,
2025-08-15T01:10:21.795Z,8,GR86-062-012,2.3000000000000003,-1.087,0.022,2.43,5.0,6965.0,67.175,66.7,
2025-08-15T01:10:21.838Z,8,GR86-062-012,4.1000000000000005,-1.108,-0.013,2.44,5.0,,67.615,67.465,205.22
2025-08-15T01:10:21.881Z,8,GR86-062-012,4.800000000000001,-1.185,0.011,2.44,5.0,,67.97,67.815,
2025-08-15T01:10:21.926Z,8,GR86-062-012,4.800000000000001,-1.09,0.036,2.44,5.0,,67.69500000000001,67.815,
2025-08-15T01:10:21.968Z,8,GR86-062-012,4.4,-1.125,0.048,12.56,5.0,,66.245,67.02,
2025-08-15T01:10:22.011Z,8,GR86-062-012,3.8,-1.109,0.055,55.6,4.0,6719.0,59.835,61.88,
2025-08-15T01:10:22.054Z,8,GR86-062-012,3.7,-1.055,0.058,7.15,4.0,,46.405,47.96,198.3
2025-08-15T01:10:22.097Z,8,GR86-062-012,3.6,-0.947,0.061,4.8,4.0,,37.385,38.865,
2025-08-15T01:10:22.140Z,8,GR86-062-012,2.9000000000000004,-1.103,0.129,4.09,4.0,,37.42,38.9,
2025-08-15T01:10:22.184Z,8,GR86-062-012,1.8,-1.12,0.127,3.8,4.0,,43.645,44.375,
2025-08-15T01:10:22.227Z,8,GR86-062-012,0.8,-1.073,0.164,3.61,4.0,6184.0,45.81,46.27,
2025-08-15T01:10:22.270Z,8,GR86-062-012,0.8,-0.8310000000000001,0.088,3.39,4.0,,49.23,49.305,190.59
2025-08-15T01:10:22.314Z,8,GR86-062-012,2.4000000000000004,-0.942,0.112,3.1,4.0,,53.685,53.96,
2025-08-15T01:10:22.358Z,8,GR86-062-012,2.4000000000000004,-0.927,0.094,2.87,4.0,,53.99,54.495000000000005,
2025-08-15T01:10:22.400Z,8,GR86-062-012,1.7000000000000002,-0.958,0.055,2.67,4.0,,54.02,54.525,
2025-08-15T01:10:22.444Z,8,GR86-062-012,1.6,-0.953,0.039,36.23,4.0,7092.0,53.685,54.205,
2025-08-15T01:10:22.486Z,8,GR86-062-012,2.1,-0.976,0.007,40.2,3.0,,52.77,53.64,185.02
2025-08-15T01:10:22.529Z,8,GR86-062-012,3.8,-1.11,0.012,5.57,3.0,,54.14,55.67,
2025-08-15T01:10:22.573Z,8,GR86-062-012,4.4,-1.257,0.033,4.03,3.0,,62.03,63.835,
2025-08-15T01:10:22.617Z,8,GR86-062-012,4.2,-1.36,0.008,3.73,3.0,,68.5,70.09,
2025-08-15T01:10:22.660Z,8,GR86-062-012,4.1000000000000005,-1.221,0.064,3.5700000000000003,3.0,6588.0,72.64,74.345,
2025-08-15T01:10:22.704Z,8,GR86-062-012,4.7,-1.095,-0.061,3.38,3.0,,69.615,70.0,177.70000000000002
2025-08-15T01:10:22.746Z,8,GR86-062-012,5.1000000000000005,-1.064,0.061,3.13,3.0,,63.085,63.175,
2025-08-15T01:10:22.789Z,8,GR86-062-012,5.1000000000000005,-1.012,0.012,2.89,3.0,,49.075,50.345,
2025-08-15T01:10:22.835Z,8,GR86-062-012,5.1000000000000005,-0.6930000000000001,0.071,2.68,3.0,,32.075,33.25,
2025-08-15T01:10:22.878Z,8,GR86-062-012,5.0,-0.63,0.091,2.61,3.0,7290.0,32.81,33.25,
2025-08-15T01:10:22.921Z,8,GR86-062-012,5.0,-0.868,0.068,2.53,3.0,,42.895,43.08,171.47
2025-08-15T01:10:22.964Z,8,GR86-062-012,5.0,-1.018,0.131,2.46,3.0,,55.975,55.945,
2025-08-15T01:10:23.007Z,8,GR86-062-012,5.0,-1.09,0.119,2.43,3.0,,66.855,66.58,
2025-08-15T01:10:23.050Z,8,GR86-062-012,4.6000000000000005,-1.19,0.113,2.39,3.0,,73.815,73.49,
2025-08-15T01:10:23.094Z,8,GR86-062-012,2.2,-1.176,0.125,2.4,3.0,7299.0,77.34,77.245,
2025-08-15T01:10:23.180Z,8,GR86-062-012,1.6,-1.257,0.11,31.72,3.0,,77.215,77.43,163.43
2025-08-15T01:10:23.226Z,8,GR86-062-012,1.3,-1.248,0.089,8.1,2.0,,66.55,68.0,
2025-08-15T01:10:23.270Z,8,GR86-062-012,1.6,-1.067,0.104,4.65,2.0,,58.645,60.370000000000005,
2025-08-15T01:10:23.313Z,8,GR86-062-012,5.1000000000000005,-1.277,0.103,3.86,2.0,7100.0,56.095,56.905,
2025-08-15T01:10:23.355Z,8,GR86-062-012,5.5,-1.202,0.183,3.67,2.0,,45.625,46.865,158.24
2025-08-15T01:10:23.398Z,8,GR86-062-012,5.5,-0.98,0.224,3.48,2.0,,37.555,38.96,
2025-08-15T01:10:23.441Z,8,GR86-062-012,5.5,-1.082,0.094,3.2,2.0,,40.21,41.31,
2025-08-15T01:10:23.484Z,8,GR86-062-012,5.6000000000000005,-1.031,0.314,2.91,2.0,,47.9,49.2,
2025-08-15T01:10:23.527Z,8,GR86-062-012,7.4,-0.943,0.237,2.69,2.0,6590.0,57.955,59.3,
2025-08-15T01:10:23.570Z,8,GR86-062-012,8.700000000000001,-1.226,0.243,2.56,2.0,,67.875,69.25,149.86
2025-08-15T01:10:23.614Z,8,GR86-062-012,8.8,-1.097,0.315,2.46,2.0,,76.925,77.965,
2025-08-15T01:10:23.658Z,8,GR86-062-012,8.8,-1.036,0.273,2.43,2.0,,78.33,78.71000000000001,
2025-08-15T01:10:23.700Z,8,GR86-062-012,8.8,-1.087,0.303,2.42,2.0,,80.74,80.71000000000001,
2025-08-15T01:10:23.744Z,8,GR86-062-012,8.700000000000001,-1.158,0.272,2.42,2.0,7021.0,83.15,83.015,
2025-08-15T01:10:23.786Z,8,GR86-062-012,4.7,-1.218,0.262,2.44,2.0,,85.24,85.015,142.76
2025-08-15T01:10:23.829Z,8,GR86-062-012,1.6,-1.212,0.238,2.41,2.0,,87.5,87.09,
2025-08-15T01:10:23.873Z,8,GR86-062-012,1.6,-1.298,0.165,2.44,2.0,,89.96000000000001,89.395,
2025-08-15T01:10:23.917Z,8,GR86-062-012,3.0,-1.336,0.214,2.44,2.0,,91.115,90.52,
2025-08-15T01:10:23.960Z,8,GR86-062-012,4.6000000000000005,-1.387,0.195,2.44,2.0,7597.0,92.245,91.56,
2025-08-15T01:10:24.004Z,8,GR86-062-012,5.300000000000001,-1.383,0.198,2.44,2.0,,94.46,93.895,135.48
2025-08-15T01:10:24.046Z,8,GR86-062-012,5.300000000000001,-1.395,0.211,2.44,2.0,,97.22,96.61,
2025-08-15T01:10:24.089Z,8,GR86-062-012,5.300000000000001,-1.463,0.197,2.44,2.0,,98.81,98.365,
2025-08-15T01:10:24.134Z,8,GR86-062-012,8.9,-1.439,0.191,2.44,2.0,,99.92,101.115,
2025-08-15T01:10:24.177Z,8,GR86-062-012,10.4,-1.471,0.251,2.45,2.0,6984.0,100.395,101.525,
2025-08-15T01:10:24.220Z,8,GR86-062-012,10.5,-1.49,0.274,2.45,2.0,,98.425,98.245,128.21
2025-08-15T01:10:24.264Z,8,GR86-062-012,9.2,-1.422,0.274,2.43,2.0,,98.215,99.115,
2025-08-15T01:10:24.306Z,8,GR86-062-012,5.300000000000001,-1.441,0.285,2.43,2.0,,97.405,98.0,
2025-08-15T01:10:24.349Z,8,GR86-062-012,2.1,-1.481,0.333,2.46,2.0,,96.26,97.59,
2025-08-15T01:10:24.393Z,8,GR86-062-012,1.6,-1.429,0.229,2.46,2.0,6238.0,94.275,97.16,
2025-08-15T01:10:24.435Z,8,GR86-062-012,7.1000000000000005,-1.453,0.288,2.47,2.0,,92.4,93.62,109.45
2025-08-15T01:10:24.478Z,8,GR86-062-012,14.0,-1.377,0.348,2.46,2.0,,91.055,91.94,
2025-08-15T01:10:24.521Z,8,GR86-062-012,22.0,-1.225,0.36,2.47,2.0,,87.5,89.545,
2025-08-15T01:10:24.565Z,8,GR86-062-012,29.0,-1.314,0.466,2.47,2.0,,87.53,88.205,
2025-08-15T01:10:24.608Z,8,GR86-062-012,31.3,-1.14,0.548,2.46,2.0,5503.0,80.055,82.025,
2025-08-15T01:10:24.651Z,8,GR86-062-012,31.6,-1.196,0.477,2.47,2.0,,67.845,69.965,100.45
2025-08-15T01:10:24.694Z,8,GR86-062-012,33.800000000000004,-0.888,0.516,2.47,2.0,,51.505,53.06,
2025-08-15T01:10:24.737Z,8,GR86-062-012,38.2,-0.961,0.492,2.47,2.0,,48.205,49.365,
2025-08-15T01:10:24.780Z,8,GR86-062-012,44.2,-1.003,0.505,2.46,2.0,,48.74,49.275,
2025-08-15T01:10:24.866Z,8,GR86-062-012,50.900000000000006,-0.96,0.663,2.46,2.0,4994.0,45.87,47.365,90.77
2025-08-15T01:10:24.909Z,8,GR86-062-012,52.3,-0.949,0.6960000000000001,2.47,2.0,,43.08,44.775,
2025-08-15T01:10:24.953Z,8,GR86-062-012,53.5,-0.871,0.717,10.67,2.0,,37.235,38.9,
2025-08-15T01:10:24.995Z,8,GR86-062-012,54.1,-0.8190000000000001,0.752,53.4,1.0,,35.235,36.64,
2025-08-15T01:10:25.038Z,8,GR86-062-012,54.2,-0.803,0.753,17.41,1.0,4503.0,34.455,35.645,
2025-08-15T01:10:25.081Z,8,GR86-062-012,54.2,-1.026,0.578,5.32,1.0,,35.645,37.02,83.73
2025-08-15T01:10:25.124Z,8,GR86-062-012,54.2,-0.789,0.856,4.98,1.0,,31.085,31.8,
2025-08-15T01:10:25.167Z,8,GR86-062-012,55.1,-0.7030000000000001,0.89,4.25,1.0,,15.06,15.96,
2025-08-15T01:10:25.210Z,8,GR86-062-012,58.8,-0.457,0.906,3.91,1.0,,4.3950000000000005,5.05,
2025-08-15T01:10:25.254Z,8,GR86-062-012,64.10000000000001,-0.096,0.941,3.65,1.0,4141.0,0.0,0.0,
2025-08-15T01:10:25.297Z,8,GR86-062-012,65.8,-0.068,1.002,19.38,1.0,,0.0,0.0,77.62
2025-08-15T01:10:25.340Z,8,GR86-062-012,70.2,-0.037,1.066,23.87,1.0,,0.0,0.0,
2025-08-15T01:10:25.384Z,8,GR86-062-012,78.2,-0.078,0.959,27.5,1.0,,0.0,0.0,
2025-08-15T01:10:25.428Z,8,GR86-062-012,88.30000000000001,-0.132,0.979,30.79,1.0,,0.0,0.0,
2025-08-15T01:10:25.471Z,8,GR86-062-012,97.1,-0.109,1.036,34.12,1.0,5048.0,0.0,0.0,
2025-08-15T01:10:25.514Z,8,GR86-062-012,102.0,-0.068,0.99,36.99,1.0,,0.0,0.0,72.16
2025-08-15T01:10:25.557Z,8,GR86-062-012,106.0,0.306,1.014,31.35,1.0,,0.0,0.0,
2025-08-15T01:10:25.601Z,8,GR86-062-012,111.5,0.494,1.01,26.26,1.0,,0.0,0.0,
2025-08-15T01:10:25.645Z,8,GR86-062-012,118.1,0.43,1.033,25.22,1.0,,0.0,0.0,
2025-08-15T01:10:25.688Z,8,GR86-062-012,123.4,0.294,1.102,22.06,1.0,4945.0,0.0,0.0,
2025-08-15T01:10:25.731Z,8,GR86-062-012,125.6,0.132,1.165,22.2,1.0,,0.0,0.0,69.78
2025-08-15T01:10:25.775Z,8,GR86-062-012,126.0,-0.014,1.178,23.44,1.0,,0.0,0.0,
2025-08-15T01:10:25.817Z,8,GR86-062-012,126.0,0.0,1.287,23.41,1.0,,0.0,0.0,
2025-08-15T01:10:25.860Z,8,GR86-062-012,124.4,0.07,1.289,24.83,1.0,,0.0,0.0,
2025-08-15T01:10:25.904Z,8,GR86-062-012,121.1,0.117,1.319,25.24,1.0,5323.0,0.0,0.0,
2025-08-15T01:10:25.946Z,8,GR86-062-012,116.6,0.14,1.23,25.06,1.0,,0.0,0.0,69.22
2025-08-15T01:10:25.989Z,8,GR86-062-012,111.2,0.155,1.183,24.96,1.0,,0.0,0.0,
2025-08-15T01:10:26.034Z,8,GR86-062-012,105.5,0.143,1.277,25.62,1.0,,0.0,0.0,
2025-08-15T01:10:26.077Z,8,GR86-062-012,104.5,0.134,1.224,25.37,1.0,,0.0,0.0,
2025-08-15T01:10:26.120Z,8,GR86-062-012,104.5,0.151,1.114,25.76,1.0,5339.0,0.0,0.0,
2025-08-15T01:10:26.164Z,8,GR86-062-012,102.1,0.16,1.167,27.16,1.0,,0.0,0.0,70.89
2025-08-15T01:10:26.206Z,8,GR86-062-012,95.3,0.13,1.088,26.46,1.0,,0.0,0.0,
2025-08-15T01:10:26.249Z,8,GR86-062-012,86.10000000000001,0.102,1.102,27.78,1.0,,0.0,0.0,
2025-08-15T01:10:26.293Z,8,GR86-062-012,81.0,0.239,1.028,31.48,1.0,,0.0,0.0,
2025-08-15T01:10:26.335Z,8,GR86-062-012,84.10000000000001,0.231,1.04,30.97,1.0,5393.0,0.0,0.0,
2025-08-15T01:10:26.421Z,8,GR86-062-012,94.3,0.154,1.135,29.13,1.0,,0.0,0.0,71.7
2025-08-15T01:10:26.465Z,8,GR86-062-012,98.7,0.319,1.009,27.12,1.0,,0.0,0.0,
2025-08-15T01:10:26.508Z,8,GR86-062-012,101.2,0.155,1.029,27.82,1.0,,0.0,0.0,
2025-08-15T01:10:26.551Z,8,GR86-062-012,102.2,-0.048,1.199,31.82,1.0,5517.0,0.0,0.0,
2025-08-15T01:10:26.594Z,8,GR86-062-012,99.8,-0.03,1.345,33.12,1.0,,0.0,0.0,72.25
2025-08-15T01:10:26.637Z,8,GR86-062-012,95.4,0.342,1.024,31.51,1.0,,0.0,0.0,
2025-08-15T01:10:26.680Z,8,GR86-062-012,90.7,0.38,1.039,30.98,1.0,,0.0,0.0,
2025-08-15T01:10:26.724Z,8,GR86-062-012,86.60000000000001,0.213,1.052,32.36,1.0,,0.0,0.0,
2025-08-15T01:10:26.766Z,8,GR86-062-012,80.4,0.21,1.054,32.85,1.0,5680.0,0.0,0.0,
2025-08-15T01:10:26.809Z,8,GR86-062-012,75.9,0.401,1.018,33.1,1.0,,0.0,0.0,73.0
2025-08-15T01:10:26.853Z,8,GR86-062-012,72.7,-0.051,1.29,37.41,1.0,,0.0,0.0,
2025-08-15T01:10:26.895Z,8,GR86-062-012,69.60000000000001,-0.08,1.2,38.02,1.0,,0.0,0.0,
2025-08-15T01:10:26.938Z,8,GR86-062-012,69.2,0.492,1.248,38.97,1.0,,0.0,0.0,
2025-08-15T01:10:26.981Z,8,GR86-062-012,67.9,0.411,1.242,46.52,1.0,5918.0,0.0,0.0,
2025-08-15T01:10:27.024Z,8,GR86-062-012,59.1,0.301,1.337,58.33,1.0,,0.0,0.0,74.19
2025-08-15T01:10:27.067Z,8,GR86-062-012,45.6,0.311,1.226,63.24,1.0,,0.0,0.0,
2025-08-15T01:10:27.110Z,8,GR86-062-012,32.2,0.249,1.323,72.52,1.0,,0.0,0.0,
2025-08-15T01:10:27.154Z,8,GR86-062-012,25.4,0.425,0.939,99.63,1.0,,0.0,0.0,
2025-08-15T01:10:27.197Z,8,GR86-062-012,25.3,0.501,1.026,99.91,1.0,5887.0,0.0,0.0,
2025-08-15T01:10:27.240Z,8,GR86-062-012,26.0,0.484,0.877,99.91,1.0,,0.0,0.0,75.95
2025-08-15T01:10:27.284Z,8,GR86-062-012,27.3,0.468,0.851,99.89,1.0,,0.0,0.0,
2025-08-15T01:10:27.327Z,8,GR86-062-012,29.4,0.44,0.8290000000000001,99.92,1.0,,0.0,0.0,
2025-08-15T01:10:27.370Z,8,GR86-062-012,34.2,0.411,0.7000000000000001,99.91,1.0,,0.0,0.0,
2025-08-15T01:10:27.414Z,8,GR86-062-012,48.900000000000006,0.409,0.639,99.92,1.0,5879.0,0.0,0.0,
2025-08-15T01:10:27.458Z,8,GR86-062-012,58.8,0.381,0.644,99.92,1.0,,0.0,0.0,77.48
2025-08-15T01:10:27.500Z,8,GR86-062-012,62.900000000000006,0.377,0.712,99.91,1.0,,0.0,0.0,
2025-08-15T01:10:27.544Z,8,GR86-062-012,61.1,0.328,0.718,99.89,1.0,,0.0,0.0,
2025-08-15T01:10:27.586Z,8,GR86-062-012,56.3,0.322,0.742,99.89,1.0,,0.0,0.0,
2025-08-15T01:10:27.629Z,8,GR86-062-012,54.6,0.327,0.742,99.91,1.0,5982.0,0.0,0.0,
2025-08-15T01:10:27.673Z,8,GR86-062-012,53.0,0.374,0.777,99.89,1.0,,0.0,0.0,78.67
2025-08-15T01:10:27.715Z,8,GR86-062-012,48.7,0.367,0.805,99.91,1.0,,0.0,0.0,
2025-08-15T01:10:27.758Z,8,GR86-062-012,43.0,0.379,0.8130000000000001,99.9,1.0,,0.0,0.0,
2025-08-15T01:10:27.801Z,8,GR86-062-012,38.0,0.363,0.767,99.92,1.0,,0.0,0.0,
2025-08-15T01:10:27.845Z,8,GR86-062-012,36.1,0.386,0.765,99.89,1.0,6241.0,0.0,0.0,
2025-08-15T01:10:27.888Z,8,GR86-062-012,35.800000000000004,0.295,0.712,99.91,1.0,,0.0,0.0,81.33
2025-08-15T01:10:27.931Z,8,GR86-062-012,35.9,0.028,0.745,99.91,2.0,,0.0,0.0,
2025-08-15T01:10:27.974Z,8,GR86-062-012,37.5,0.287,0.682,99.91,2.0,,0.0,0.0,
2025-08-15T01:10:28.017Z,8,GR86-062-012,38.0,0.651,0.546,99.92,2.0,,0.0,0.0,
2025-08-15T01:10:28.060Z,8,GR86-062-012,38.0,0.485,0.679,99.92,2.0,6435.0,0.0,0.0,
2025-08-15T01:10:28.104Z,8,GR86-062-012,38.2,0.533,0.67,99.92,2.0,,0.0,0.0,84.42
2025-08-15T01:10:28.146Z,8,GR86-062-012,38.2,0.426,0.642,99.91,2.0,,0.0,0.0,
2025-08-15T01:10:28.189Z,8,GR86-062-012,36.8,0.359,0.6900000000000001,99.9,2.0,,0.0,0.0,
2025-08-15T01:10:28.234Z,8,GR86-062-012,35.2,0.229,0.652,99.91,2.0,,0.0,0.0,
2025-08-15T01:10:28.277Z,8,GR86-062-012,34.5,0.233,0.614,99.91,2.0,5610.0,0.0,0.0,
2025-08-15T01:10:28.320Z,8,GR86-062-012,33.2,0.375,0.626,99.92,2.0,,0.0,0.0,85.52
2025-08-15T01:10:28.364Z,8,GR86-062-012,32.5,0.379,0.598,99.92,2.0,,0.0,0.0,
2025-08-15T01:10:28.407Z,8,GR86-062-012,32.1,0.369,0.5730000000000001,99.91,2.0,,0.0,0.0,
2025-08-15T01:10:28.450Z,8,GR86-062-012,31.1,0.3,0.552,99.91,2.0,,0.0,0.0,
2025-08-15T01:10:28.494Z,8,GR86-062-012,29.200000000000003,0.276,0.531,99.92,2.0,5083.0,0.0,0.0,
2025-08-15T01:10:28.537Z,8,GR86-062-012,28.700000000000003,0.299,0.498,99.91,2.0,,0.0,0.0,87.8
2025-08-15T01:10:28.580Z,8,GR86-062-012,28.6,0.334,0.48,99.93,2.0,,0.0,0.0,
2025-08-15T01:10:28.626Z,8,GR86-062-012,28.1,0.314,0.47,99.92,2.0,,0.0,0.0,
2025-08-15T01:10:28.670Z,8,GR86-062-012,27.4,0.314,0.466,99.92,2.0,,0.0,0.0,
2025-08-15T01:10:28.713Z,8,GR86-062-012,24.8,0.312,0.464,99.92,2.0,5216.0,0.0,0.0,
2025-08-15T01:10:28.756Z,8,GR86-062-012,22.200000000000003,0.285,0.434,99.92,2.0,,0.0,0.0,89.98
2025-08-15T01:10:28.800Z,8,GR86-062-012,19.200000000000003,0.32,0.414,99.92,2.0,,0.0,0.0,
2025-08-15T01:10:28.844Z,8,GR86-062-012,17.400000000000002,0.295,0.368,99.93,2.0,,0.0,0.0,
2025-08-15T01:10:28.886Z,8,GR86-062-012,16.2,0.306,0.361,99.91,2.0,,0.0,0.0,
2025-08-15T01:10:28.929Z,8,GR86-062-012,15.3,0.295,0.303,99.92,2.0,5363.0,0.0,0.0,
2025-08-15T01:10:28.973Z,8,GR86-062-012,14.9,0.316,0.25,99.92,2.0,,0.0,0.0,91.9
2025-08-15T01:10:29.015Z,8,GR86-062-012,14.6,0.327,0.231,99.91,2.0,,0.0,0.0,
2025-08-15T01:10:29.058Z,8,GR86-062-012,13.7,0.296,0.195,99.92,2.0,,0.0,0.0,
2025-08-15T01:10:29.101Z,8,GR86-062-012,12.3,0.303,0.168,99.91,2.0,,0.0,0.0,
2025-08-15T01:10:29.146Z,8,GR86-062-012,11.2,0.29,0.152,99.92,2.0,5478.0,0.0,0.0,
2025-08-15T01:10:29.188Z,8,GR86-062-012,10.4,0.319,0.142,99.91,2.0,,0.0,0.0,93.83
2025-08-15T01:10:29.231Z,8,GR86-062-012,8.8,0.294,0.124,99.93,2.0,,0.0,0.0,
2025-08-15T01:10:29.274Z,8,GR86-062-012,5.5,0.298,0.078,99.92,2.0,,0.0,0.0,
2025-08-15T01:10:29.317Z,8,GR86-062-012,4.1000000000000005,0.308,0.063,99.92,2.0,,0.0,0.0,
2025-08-15T01:10:29.360Z,8,GR86-062-012,3.9,0.292,0.032,99.92,2.0,5567.0,0.0,0.0,
2025-08-15T01:10:29.404Z,8,GR86-062-012,3.9,0.307,0.02,99.91,2.0,,0.0,0.0,95.8
2025-08-15T01:10:29.446Z,8,GR86-062-012,3.8,0.296,-0.014,99.92,2.0,,0.0,0.0,
2025-08-15T01:10:29.489Z,8,GR86-062-012,3.4000000000000004,0.303,-0.022,99.92,2.0,,0.0,0.0,
2025-08-15T01:10:29.534Z,8,GR86-062-012,2.7,0.312,-0.051,99.92,2.0,,0.0,0.0,
2025-08-15T01:10:29.577Z,8,GR86-062-012,2.1,0.296,-0.064,99.93,2.0,5675.0,0.0,0.0,
2025-08-15T01:10:29.620Z,8,GR86-062-012,1.8,0.311,-0.077,99.92,2.0,,0.0,0.0,97.67
2025-08-15T01:10:29.664Z,8,GR86-062-012,1.5,0.295,-0.092,99.93,2.0,,0.0,0.0,
2025-08-15T01:10:29.706Z,8,GR86-062-012,1.3,0.301,-0.105,99.91,2.0,,0.0,0.0,
2025-08-15T01:10:29.749Z,8,GR86-062-012,1.0,0.313,-0.118,99.92,2.0,,0.0,0.0,
2025-08-15T01:10:29.793Z,8,GR86-062-012,1.0,0.302,-0.118,99.91,2.0,5789.0,0.0,0.0,
2025-08-15T01:10:29.835Z,8,GR86-062-012,0.9,0.303,-0.115,99.92,2.0,,0.0,0.0,101.44
2025-08-15T01:10:29.878Z,8,GR86-062-012,0.5,0.309,-0.129,99.92,2.0,,0.0,0.0,
2025-08-15T01:10:29.921Z,8,GR86-062-012,0.0,0.297,-0.138,99.92,2.0,,0.0,0.0,
2025-08-15T01:10:29.965Z,8,GR86-062-012,-0.4,0.308,-0.137,99.91,2.0,,0.0,0.0,
2025-08-15T01:10:30.008Z,8,GR86-062-012,-0.5,0.294,-0.141,99.91,2.0,5887.0,0.0,0.0,
2025-08-15T01:10:30.051Z,8,GR86-062-012,-0.3,0.307,-0.138,99.92,2.0,,0.0,0.0,103.25
2025-08-15T01:10:30.094Z,8,GR86-062-012,-0.2,0.309,-0.144,99.93,2.0,,0.0,0.0,
2025-08-15T01:10:30.137Z,8,GR86-062-012,-0.1,0.282,-0.152,99.92,2.0,,0.0,0.0,
2025-08-15T01:10:30.180Z,8,GR86-062-012,0.0,0.291,-0.132,99.91,2.0,,0.0,0.0,
2025-08-15T01:10:30.224Z,8,GR86-062-012,0.2,0.296,-0.144,99.92,2.0,5994.0,0.0,0.0,
2025-08-15T01:10:30.266Z,8,GR86-062-012,0.2,0.305,-0.133,99.93,2.0,,0.0,0.0,105.07
2025-08-15T01:10:30.309Z,8,GR86-062-012,0.2,0.316,-0.133,99.91,2.0,,0.0,0.0,
2025-08-15T01:10:30.353Z,8,GR86-062-012,0.2,0.3,-0.14,99.92,2.0,,0.0,0.0,
2025-08-15T01:10:30.395Z,8,GR86-062-012,0.2,0.288,-0.131,99.91,2.0,,0.0,0.0,
2025-08-15T01:10:30.438Z,8,GR86-062-012,0.2,0.3,-0.129,99.91,2.0,6197.0,0.0,0.0,
2025-08-15T01:10:30.481Z,8,GR86-062-012,0.2,0.289,-0.133,99.94,2.0,,0.0,0.0,106.81
2025-08-15T01:10:30.524Z,8,GR86-062-012,0.2,0.295,-0.124,99.92,2.0,,0.0,0.0,
2025-08-15T01:10:30.567Z,8,GR86-062-012,0.2,0.298,-0.146,99.93,2.0,,0.0,0.0,
2025-08-15T01:10:30.610Z,8,GR86-062-012,0.2,0.291,-0.132,99.92,2.0,,0.0,0.0,
2025-08-15T01:10:30.654Z,8,GR86-062-012,0.2,0.301,-0.142,99.91,2.0,6290.0,0.0,0.0,
2025-08-15T01:10:30.697Z,8,GR86-062-012,0.2,0.296,-0.139,99.93,2.0,,0.0,0.0,108.45
2025-08-15T01:10:30.740Z,8,GR86-062-012,0.3,0.279,-0.151,99.92,2.0,,0.0,0.0,
2025-08-15T01:10:30.785Z,8,GR86-062-012,0.3,0.29,-0.143,99.92,2.0,,0.0,0.0,
2025-08-15T01:10:30.828Z,8,GR86-062-012,0.3,0.291,-0.151,99.92,2.0,,0.0,0.0,
2025-08-15T01:10:30.914Z,8,GR86-062-012,0.8,0.3,-0.141,99.92,2.0,6377.0,0.0,0.0,110.08
2025-08-15T01:10:30.957Z,8,GR86-062-012,1.2000000000000002,0.296,-0.137,99.93,2.0,,0.0,0.0,
2025-08-15T01:10:31.000Z,8,GR86-062-012,1.2000000000000002,0.286,-0.127,99.92,2.0,,0.0,0.0,
2025-08-15T01:10:31.044Z,8,GR86-062-012,1.3,0.291,-0.111,99.91,2.0,,0.0,0.0,
2025-08-15T01:10:31.086Z,8,GR86-062-012,1.3,0.285,-0.125,99.92,2.0,6460.0,0.0,0.0,
2025-08-15T01:10:31.129Z,8,GR86-062-012,1.3,0.291,-0.11,99.93,2.0,,0.0,0.0,111.61
2025-08-15T01:10:31.175Z,8,GR86-062-012,1.3,0.306,-0.105,99.92,2.0,,0.0,0.0,
2025-08-15T01:10:31.218Z,8,GR86-062-012,1.3,0.288,-0.105,99.92,2.0,,0.0,0.0,
2025-08-15T01:10:31.261Z,8,GR86-062-012,1.3,0.277,-0.104,99.92,2.0,,0.0,0.0,
2025-08-15T01:10:31.304Z,8,GR86-062-012,1.5,0.298,-0.103,99.93,2.0,6534.0,0.0,0.0,
2025-08-15T01:10:31.347Z,8,GR86-062-012,2.5,0.298,-0.113,99.92,2.0,,0.0,0.0,113.14
2025-08-15T01:10:31.390Z,8,GR86-062-012,3.1,0.282,-0.083,99.92,2.0,,0.0,0.0,
2025-08-15T01:10:31.434Z,8,GR86-062-012,3.1,0.282,-0.063,99.92,2.0,,0.0,0.0,
2025-08-15T01:10:31.477Z,8,GR86-062-012,3.1,0.298,-0.064,99.93,2.0,,0.0,0.0,
2025-08-15T01:10:31.520Z,8,GR86-062-012,3.1,0.297,-0.068,99.93,2.0,6618.0,0.0,0.0,
2025-08-15T01:10:31.564Z,8,GR86-062-012,3.1,0.3,-0.034,99.94,2.0,,0.0,0.0,114.59
2025-08-15T01:10:31.606Z,8,GR86-062-012,3.1,0.285,-0.043,99.92,2.0,,0.0,0.0,
2025-08-15T01:10:31.649Z,8,GR86-062-012,3.1,0.277,-0.054,99.92,2.0,,0.0,0.0,
2025-08-15T01:10:31.693Z,8,GR86-062-012,3.0,0.28,-0.056,99.93,2.0,,0.0,0.0,
2025-08-15T01:10:31.736Z,8,GR86-062-012,3.0,0.308,-0.059,99.94,2.0,6703.0,0.0,0.0,
2025-08-15T01:10:31.779Z,8,GR86-062-012,3.6,0.299,-0.051,99.94,2.0,,0.0,0.0,115.96
2025-08-15T01:10:31.823Z,8,GR86-062-012,3.7,0.28,-0.06,99.93,2.0,,0.0,0.0,
2025-08-15T01:10:31.866Z,8,GR86-062-012,3.8,0.301,-0.054,99.92,2.0,,0.0,0.0,
2025-08-15T01:10:31.909Z,8,GR86-062-012,4.5,0.285,-0.055,99.93,2.0,,0.0,0.0,
2025-08-15T01:10:31.953Z,8,GR86-062-012,6.1000000000000005,0.023,-0.025,99.92,3.0,6777.0,0.0,0.0,
2025-08-15T01:10:31.995Z,8,GR86-062-012,6.4,0.08,0.015,99.95,3.0,,0.0,0.0,117.33
2025-08-15T01:10:32.038Z,8,GR86-062-012,7.4,0.51,-0.034,99.94,3.0,,0.0,0.0,
2025-08-15T01:10:32.081Z,8,GR86-062-012,7.4,0.473,-0.047,99.96,3.0,,0.0,0.0,
2025-08-15T01:10:32.124Z,8,GR86-062-012,7.4,0.355,0.103,99.95,3.0,,0.0,0.0,
2025-08-15T01:10:32.167Z,8,GR86-062-012,7.4,0.298,0.007,99.96,3.0,6845.0,0.0,0.0,
2025-08-15T01:10:32.210Z,8,GR86-062-012,7.4,0.145,0.036,99.95,3.0,,0.0,0.0,118.57
2025-08-15T01:10:32.254Z,8,GR86-062-012,7.2,0.218,0.024,99.94,3.0,,0.0,0.0,
2025-08-15T01:10:32.297Z,8,GR86-062-012,7.1000000000000005,0.305,0.025,99.95,3.0,,0.0,0.0,
2025-08-15T01:10:32.340Z,8,GR86-062-012,7.1000000000000005,0.298,0.067,99.95,3.0,,0.0,0.0,
2025-08-15T01:10:32.384Z,8,GR86-062-012,6.6000000000000005,0.222,0.007,99.94,3.0,6187.0,0.0,0.0,
2025-08-15T01:10:32.427Z,8,GR86-062-012,5.6000000000000005,0.195,0.046,99.95,3.0,,0.0,0.0,119.72
2025-08-15T01:10:32.470Z,8,GR86-062-012,5.0,0.253,0.008,99.95,3.0,,0.0,0.0,
2025-08-15T01:10:32.514Z,8,GR86-062-012,4.7,0.28,0.012,99.95,3.0,,0.0,0.0,
2025-08-15T01:10:32.558Z,8,GR86-062-012,4.6000000000000005,0.244,-0.038,99.94,3.0,,0.0,0.0,
2025-08-15T01:10:32.600Z,8,GR86-062-012,4.5,0.222,-0.02,99.95,3.0,5668.0,0.0,0.0,
2025-08-15T01:10:32.644Z,8,GR86-062-012,4.5,0.255,-0.039,99.95,3.0,,0.0,0.0,121.92
2025-08-15T01:10:32.686Z,8,GR86-062-012,4.9,0.247,-0.016,99.95,3.0,,0.0,0.0,
2025-08-15T01:10:32.729Z,8,GR86-062-012,5.2,0.234,-0.035,99.94,3.0,,0.0,0.0,
2025-08-15T01:10:32.773Z,8,GR86-062-012,5.6000000000000005,0.224,-0.023,99.95,3.0,,0.0,0.0,
2025-08-15T01:10:32.815Z,8,GR86-062-012,5.7,0.249,-0.019,99.95,3.0,5710.0,0.0,0.0,
2025-08-15T01:10:32.858Z,8,GR86-062-012,5.800000000000001,0.249,0.006,99.95,3.0,,0.0,0.0,122.79
2025-08-15T01:10:32.901Z,8,GR86-062-012,6.2,0.24,0.003,99.96,3.0,,0.0,0.0,
2025-08-15T01:10:32.945Z,8,GR86-062-012,6.300000000000001,0.248,0.031,99.95,3.0,,0.0,0.0,
2025-08-15T01:10:32.988Z,8,GR86-062-012,6.300000000000001,0.244,0.044,99.94,3.0,,0.0,0.0,
2025-08-15T01:10:33.031Z,8,GR86-062-012,6.300000000000001,0.23,0.032,99.94,3.0,5745.0,0.0,0.0,
2025-08-15T01:10:33.074Z,8,GR86-062-012,6.7,0.247,0.032,99.93,3.0,,0.0,0.0,123.6
2025-08-15T01:10:33.117Z,8,GR86-062-012,7.5,0.242,0.04,99.94,3.0,,0.0,0.0,
2025-08-15T01:10:33.160Z,8,GR86-062-012,8.700000000000001,0.243,0.063,99.95,3.0,,0.0,0.0,
2025-08-15T01:10:33.204Z,8,GR86-062-012,9.0,0.235,0.064,99.95,3.0,,0.0,0.0,
2025-08-15T01:10:33.246Z,8,GR86-062-012,9.0,0.231,0.079,99.95,3.0,5831.0,0.0,0.0,
2025-08-15T01:10:33.289Z,8,GR86-062-012,9.0,0.247,0.099,99.95,3.0,,0.0,0.0,124.45
2025-08-15T01:10:33.334Z,8,GR86-062-012,8.3,0.247,0.106,99.94,3.0,,0.0,0.0,
2025-08-15T01:10:33.377Z,8,GR86-062-012,7.5,0.242,0.102,99.95,3.0,,0.0,0.0,
2025-08-15T01:10:33.420Z,8,GR86-062-012,7.0,0.224,0.088,99.54,3.0,,0.0,0.0,
2025-08-15T01:10:33.465Z,8,GR86-062-012,7.0,0.247,0.096,49.24,3.0,5870.0,0.0,0.0,
2025-08-15T01:10:33.508Z,8,GR86-062-012,7.0,0.243,0.089,19.08,3.0,,0.0,0.0,125.26
2025-08-15T01:10:33.551Z,8,GR86-062-012,7.0,0.221,0.066,5.61,3.0,,0.0,0.0,
2025-08-15T01:10:33.594Z,8,GR86-062-012,7.0,0.021,0.051,5.3100000000000005,3.0,,0.0,0.0,
2025-08-15T01:10:33.637Z,8,GR86-062-012,7.2,-0.058,0.068,4.82,3.0,,0.0,0.0,
2025-08-15T01:10:33.680Z,8,GR86-062-012,8.0,-0.333,0.054,4.17,3.0,5913.0,0.0,0.0,
2025-08-15T01:10:33.726Z,8,GR86-062-012,8.3,-0.235,0.048,3.87,3.0,,0.0,0.0,126.12
2025-08-15T01:10:33.770Z,8,GR86-062-012,8.9,-0.071,0.078,3.65,3.0,,4.93,5.34,
2025-08-15T01:10:33.813Z,8,GR86-062-012,11.2,-0.145,0.043,3.39,3.0,,16.055,16.085,
2025-08-15T01:10:33.856Z,8,GR86-062-012,12.2,-0.3,0.135,3.17,3.0,,22.495,22.465,
2025-08-15T01:10:33.944Z,8,GR86-062-012,12.4,-0.45,0.104,2.91,3.0,5576.0,28.72,28.645,126.98
2025-08-15T01:10:33.986Z,8,GR86-062-012,12.3,-0.514,0.161,2.5,3.0,,32.715,32.96,
2025-08-15T01:10:34.029Z,8,GR86-062-012,11.8,-0.536,0.17,2.45,3.0,,30.335,31.39,
2025-08-15T01:10:34.073Z,8,GR86-062-012,10.3,-0.547,0.194,2.39,3.0,,26.05,27.315,
2025-08-15T01:10:34.115Z,8,GR86-062-012,9.8,-0.542,0.181,2.39,3.0,5722.0,25.33,26.4,
2025-08-15T01:10:34.158Z,8,GR86-062-012,9.6,-0.514,0.191,14.81,3.0,,25.925,26.6,126.29
2025-08-15T01:10:34.201Z,8,GR86-062-012,9.7,-0.528,0.189,57.84,3.0,,27.435,27.68,
2025-08-15T01:10:34.245Z,8,GR86-062-012,10.4,-0.5740000000000001,0.206,98.07,3.0,,29.175,29.21,
2025-08-15T01:10:34.288Z,8,GR86-062-012,11.4,-0.557,0.232,99.56,2.0,,29.865,29.985,
2025-08-15T01:10:34.331Z,8,GR86-062-012,12.3,-0.55,0.21,49.04,2.0,5465.0,30.185,30.43,
2025-08-15T01:10:34.374Z,8,GR86-062-012,12.4,-0.8190000000000001,0.227,3.41,2.0,,31.575,32.410000000000004,122.71
2025-08-15T01:10:34.417Z,8,GR86-062-012,14.3,-0.534,0.297,3.09,2.0,,31.65,32.17,
2025-08-15T01:10:34.460Z,8,GR86-062-012,17.5,-0.6930000000000001,0.145,2.82,2.0,,31.27,31.27,
2025-08-15T01:10:34.504Z,8,GR86-062-012,22.200000000000003,-0.671,0.407,2.68,2.0,,31.955,31.925,
2025-08-15T01:10:34.546Z,8,GR86-062-012,26.0,-0.591,0.317,2.6,2.0,5296.0,32.335,32.445,
2025-08-15T01:10:34.589Z,8,GR86-062-012,26.3,-0.595,0.369,2.52,2.0,,32.2,32.535000000000004,118.16
2025-08-15T01:10:34.634Z,8,GR86-062-012,24.6,-0.626,0.458,2.48,2.0,,31.65,32.14,
2025-08-15T01:10:34.677Z,8,GR86-062-012,23.200000000000003,-0.623,0.436,2.47,2.0,,29.925,31.025,
2025-08-15T01:10:34.720Z,8,GR86-062-012,22.4,-0.615,0.508,2.47,2.0,,26.69,28.095,
2025-08-15T01:10:34.764Z,8,GR86-062-012,22.4,-0.562,0.465,2.47,2.0,6143.0,23.895,25.24,
2025-08-15T01:10:34.806Z,8,GR86-062-012,23.0,-0.533,0.514,2.46,2.0,,20.695,21.99,114.05
2025-08-15T01:10:34.849Z,8,GR86-062-012,22.9,-0.499,0.542,2.47,2.0,,18.36,19.55,
2025-08-15T01:10:34.893Z,8,GR86-062-012,21.700000000000003,-0.472,0.535,2.47,2.0,,18.325,19.15,
2025-08-15T01:10:34.935Z,8,GR86-062-012,21.6,-0.473,0.531,2.47,2.0,,18.65,19.245,
2025-08-15T01:10:34.979Z,8,GR86-062-012,21.700000000000003,-0.474,0.513,2.47,2.0,5967.0,20.05,20.42,
2025-08-15T01:10:35.024Z,8,GR86-062-012,24.0,-0.468,0.517,2.47,2.0,,24.86,24.765,109.0
2025-08-15T01:10:35.066Z,8,GR86-062-012,27.3,-0.548,0.497,2.46,2.0,,30.705,30.58,
2025-08-15T01:10:35.109Z,8,GR86-062-012,30.3,-0.597,0.541,2.48,2.0,,36.775,36.515,
2025-08-15T01:10:35.153Z,8,GR86-062-012,33.5,-0.717,0.541,2.48,2.0,,42.24,42.27,
2025-08-15T01:10:35.195Z,8,GR86-062-012,34.800000000000004,-0.744,0.5680000000000001,2.46,2.0,5742.0,41.935,42.33,
2025-08-15T01:10:35.238Z,8,GR86-062-012,36.9,-0.746,0.623,2.46,2.0,,40.62,41.49,101.48
2025-08-15T01:10:35.281Z,8,GR86-062-012,40.8,-0.704,0.633,2.47,2.0,,37.145,38.775,
2025-08-15T01:10:35.325Z,8,GR86-062-012,46.0,-0.665,0.719,2.48,2.0,,32.105000000000004,33.74,
2025-08-15T01:10:35.368Z,8,GR86-062-012,51.2,-0.659,0.717,2.46,2.0,,27.775,29.3,
2025-08-15T01:10:35.411Z,8,GR86-062-012,54.0,-0.638,0.853,2.46,2.0,5562.0,22.065,23.335,
2025-08-15T01:10:35.454Z,8,GR86-062-012,54.7,-0.368,0.956,2.47,2.0,,7.46,8.21,96.97
2025-08-15T01:10:35.497Z,8,GR86-062-012,55.400000000000006,-0.233,0.994,2.46,2.0,,0.0,0.0,
2025-08-15T01:10:35.540Z,8,GR86-062-012,56.0,-0.203,0.995,2.47,2.0,,0.0,0.0,
2025-08-15T01:10:35.585Z,8,GR86-062-012,56.0,-0.165,1.053,2.74,2.0,,0.0,0.0,
2025-08-15T01:10:35.628Z,8,GR86-062-012,56.0,-0.143,1.038,8.84,2.0,5205.0,0.0,0.0,
2025-08-15T01:10:35.671Z,8,GR86-062-012,56.6,-0.11,1.061,19.6,2.0,,0.0,0.0,92.38
2025-08-15T01:10:35.714Z,8,GR86-062-012,58.400000000000006,-0.078,1.041,20.01,2.0,,0.0,0.0,
2025-08-15T01:10:35.758Z,8,GR86-062-012,62.1,-0.033,0.998,20.69,2.0,,0.0,0.0,
2025-08-15T01:10:35.801Z,8,GR86-062-012,68.4,-0.039,1.007,21.15,2.0,,0.0,0.0,
2025-08-15T01:10:35.844Z,8,GR86-062-012,75.7,-0.03,1.031,21.38,2.0,4950.0,0.0,0.0,
2025-08-15T01:10:35.887Z,8,GR86-062-012,79.4,0.112,1.072,21.49,2.0,,0.0,0.0,89.93
2025-08-15T01:10:35.930Z,8,GR86-062-012,79.60000000000001,0.214,1.105,11.64,2.0,,0.0,0.0,
2025-08-15T01:10:35.975Z,8,GR86-062-012,75.7,0.119,1.11,19.93,2.0,,0.0,0.0,
2025-08-15T01:10:36.018Z,8,GR86-062-012,74.8,0.022,1.094,20.83,2.0,,0.0,0.0,
2025-08-15T01:10:36.061Z,8,GR86-062-012,74.8,-0.024,1.098,19.49,2.0,5104.0,0.0,0.0,
