timestamp,lap,vehicle_id,steering_angle,accx_can,accy_can,ath,gear,nmot,pbrake_f,pbrake_r,speed
2025-08-15T01:39:38.836Z,6,GR86-016-55,1.9,-0.107,0.038,2.5500000000000003,5.0,,0.0,0.0,
2025-08-15T01:39:38.878Z,6,GR86-016-55,1.9,-0.049,0.046,2.53,5.0,,0.0,0.0,
2025-08-15T01:39:38.922Z,6,GR86-016-55,1.9,-0.056,0.053,2.52,5.0,,0.0,0.0,
2025-08-15T01:39:38.965Z,6,GR86-016-55,1.9,-0.095,0.052,2.49,5.0,3486.0,0.0,0.0,
2025-08-15T01:39:39.008Z,6,GR86-016-55,1.9,-0.097,0.052,2.49,5.0,,0.0,0.0,106.16
2025-08-15T01:39:39.051Z,6,GR86-016-55,1.9,-0.061,0.041,2.48,5.0,,0.0,0.0,
2025-08-15T01:39:39.094Z,6,GR86-016-55,1.9,-0.073,0.046,2.48,5.0,,0.0,0.0,
2025-08-15T01:39:39.137Z,6,GR86-016-55,1.9,-0.081,0.032,2.46,5.0,,0.0,0.0,
2025-08-15T01:39:39.180Z,6,GR86-016-55,1.9,-0.089,0.043,2.45,5.0,3525.0,0.0,0.0,
2025-08-15T01:39:39.223Z,6,GR86-016-55,1.9,-0.064,0.033,2.46,5.0,,0.0,0.0,105.57
2025-08-15T01:39:39.266Z,6,GR86-016-55,1.9,-0.074,0.046,2.45,5.0,,0.0,0.0,
2025-08-15T01:39:39.309Z,6,GR86-016-55,1.9,-0.073,0.033,2.46,5.0,,0.0,0.0,
2025-08-15T01:39:39.352Z,6,GR86-016-55,1.9,-0.068,0.028,2.45,5.0,,0.0,0.0,
2025-08-15T01:39:39.395Z,6,GR86-016-55,1.8,-0.078,0.012,2.45,5.0,3533.0,0.0,0.0,
2025-08-15T01:39:39.438Z,6,GR86-016-55,1.8,-0.071,0.015,2.46,5.0,,0.0,0.0,104.35
2025-08-15T01:39:39.481Z,6,GR86-016-55,1.7000000000000002,-0.072,0.0,2.45,5.0,,0.0,0.0,
2025-08-15T01:39:39.524Z,6,GR86-016-55,1.7000000000000002,-0.077,0.01,2.46,5.0,,0.0,0.0,
2025-08-15T01:39:39.567Z,6,GR86-016-55,1.6,-0.069,0.002,2.45,5.0,,0.0,0.0,
2025-08-15T01:39:39.610Z,6,GR86-016-55,1.6,-0.084,0.01,2.46,5.0,3495.0,0.0,0.0,
2025-08-15T01:39:39.653Z,6,GR86-016-55,1.4,-0.081,-0.001,2.46,5.0,,0.0,0.0,103.76
2025-08-15T01:39:39.697Z,6,GR86-016-55,1.2000000000000002,-0.073,-0.017,2.46,5.0,,0.0,0.0,
2025-08-15T01:39:39.740Z,6,GR86-016-55,1.2000000000000002,-0.079,-0.014,2.46,5.0,,0.0,0.0,
2025-08-15T01:39:39.783Z,6,GR86-016-55,1.2000000000000002,-0.07,-0.019,2.45,5.0,,0.0,0.0,
2025-08-15T01:39:39.826Z,6,GR86-016-55,1.2000000000000002,-0.076,-0.013,2.46,5.0,3474.0,0.0,0.0,
2025-08-15T01:39:39.868Z,6,GR86-016-55,1.2000000000000002,-0.071,-0.018,2.47,5.0,,0.0,0.0,103.15
2025-08-15T01:39:39.912Z,6,GR86-016-55,1.1,-0.062,-0.026,2.45,5.0,,0.0,0.0,
2025-08-15T01:39:39.955Z,6,GR86-016-55,1.2000000000000002,-0.074,-0.013,2.48,5.0,,0.0,0.0,
2025-08-15T01:39:39.998Z,6,GR86-016-55,1.2000000000000002,-0.068,-0.012,2.46,5.0,,0.0,0.0,
2025-08-15T01:39:40.041Z,6,GR86-016-55,1.2000000000000002,-0.078,-0.007,2.46,5.0,3432.0,0.0,0.0,
2025-08-15T01:39:40.085Z,6,GR86-016-55,1.2000000000000002,-0.071,0.007,2.47,5.0,,0.0,0.0,102.56
2025-08-15T01:39:40.128Z,6,GR86-016-55,1.1,-0.072,-0.002,2.45,5.0,,0.0,0.0,
2025-08-15T01:39:40.171Z,6,GR86-016-55,1.1,-0.076,0.022,2.47,5.0,,0.0,0.0,
2025-08-15T01:39:40.214Z,6,GR86-016-55,1.2000000000000002,-0.064,0.036,2.7,5.0,,0.0,0.0,
2025-08-15T01:39:40.258Z,6,GR86-016-55,1.3,-0.076,0.038,3.5700000000000003,5.0,3411.0,0.0,0.0,
2025-08-15T01:39:40.301Z,6,GR86-016-55,1.4,-0.069,0.044,4.23,5.0,,0.0,0.0,101.98
2025-08-15T01:39:40.344Z,6,GR86-016-55,1.4,-0.077,0.04,4.43,5.0,,0.0,0.0,
2025-08-15T01:39:40.387Z,6,GR86-016-55,1.4,-0.084,0.032,4.45,5.0,,0.0,0.0,
2025-08-15T01:39:40.432Z,6,GR86-016-55,1.4,-0.059,0.029,4.46,5.0,,0.0,0.0,
2025-08-15T01:39:40.475Z,6,GR86-016-55,1.4,-0.052,0.044,4.53,5.0,3399.0,0.0,0.0,
2025-08-15T01:39:40.518Z,6,GR86-016-55,1.4,-0.037,0.046,4.73,5.0,,0.0,0.0,101.46
2025-08-15T01:39:40.561Z,6,GR86-016-55,1.4,-0.049,0.057,10.11,5.0,,0.0,0.0,
2025-08-15T01:39:40.604Z,6,GR86-016-55,1.4,-0.072,0.033,17.59,5.0,,0.0,0.0,
2025-08-15T01:39:40.647Z,6,GR86-016-55,1.4,-0.05,0.041,17.92,5.0,,0.0,0.0,
2025-08-15T01:39:40.690Z,6,GR86-016-55,1.4,-0.06,0.047,18.56,5.0,3388.0,0.0,0.0,
2025-08-15T01:39:40.734Z,6,GR86-016-55,1.4,-0.031,0.06,18.72,5.0,,0.0,0.0,100.93
2025-08-15T01:39:40.777Z,6,GR86-016-55,1.4,-0.027,0.037,19.08,5.0,,0.0,0.0,
2025-08-15T01:39:40.820Z,6,GR86-016-55,1.4,0.235,0.054,19.08,5.0,,0.0,0.0,
2025-08-15T01:39:40.863Z,6,GR86-016-55,1.4,0.092,0.025,19.17,5.0,,0.0,0.0,
2025-08-15T01:39:40.906Z,6,GR86-016-55,1.4,-0.052,0.045,20.48,5.0,3372.0,0.0,0.0,
2025-08-15T01:39:40.950Z,6,GR86-016-55,1.4,0.11,0.052,20.41,5.0,,0.0,0.0,100.43
2025-08-15T01:39:40.993Z,6,GR86-016-55,1.4,0.146,0.059,20.23,5.0,,0.0,0.0,
2025-08-15T01:39:41.036Z,6,GR86-016-55,1.4,0.037,0.058,20.2,5.0,,0.0,0.0,
2025-08-15T01:39:41.080Z,6,GR86-016-55,1.4,0.032,0.04,20.21,5.0,,0.0,0.0,
2025-08-15T01:39:41.125Z,6,GR86-016-55,1.4,0.102,0.055,20.13,5.0,3477.0,0.0,0.0,
2025-08-15T01:39:41.168Z,6,GR86-016-55,1.4,0.124,0.05,19.89,5.0,,0.0,0.0,100.03
2025-08-15T01:39:41.211Z,6,GR86-016-55,1.4,0.046,0.034,19.84,5.0,,0.0,0.0,
2025-08-15T01:39:41.254Z,6,GR86-016-55,1.4,0.083,0.031,19.85,5.0,,0.0,0.0,
2025-08-15T01:39:41.297Z,6,GR86-016-55,1.4,-0.015,0.021,20.45,6.0,,0.0,0.0,
2025-08-15T01:39:41.340Z,6,GR86-016-55,1.4,-0.056,0.049,21.33,6.0,3352.0,0.0,0.0,
2025-08-15T01:39:41.386Z,6,GR86-016-55,1.4,0.017,0.01,21.27,6.0,,0.0,0.0,100.24
2025-08-15T01:39:41.428Z,6,GR86-016-55,1.4,0.216,0.032,20.64,6.0,,0.0,0.0,
2025-08-15T01:39:41.472Z,6,GR86-016-55,1.4,-0.021,0.044,20.63,6.0,,0.0,0.0,
2025-08-15T01:39:41.515Z,6,GR86-016-55,1.4,0.023,0.031,20.65,6.0,,0.0,0.0,
2025-08-15T01:39:41.558Z,6,GR86-016-55,1.4,0.134,0.054,20.61,6.0,3403.0,0.0,0.0,
2025-08-15T01:39:41.601Z,6,GR86-016-55,1.4,0.091,0.041,20.53,6.0,,0.0,0.0,100.75
2025-08-15T01:39:41.644Z,6,GR86-016-55,1.4,0.015,0.015,20.51,6.0,,0.0,0.0,
2025-08-15T01:39:41.687Z,6,GR86-016-55,1.4,0.061,0.015,20.48,6.0,,0.0,0.0,
2025-08-15T01:39:41.731Z,6,GR86-016-55,1.4,0.101,0.026,20.04,6.0,,0.0,0.0,
2025-08-15T01:39:41.775Z,6,GR86-016-55,1.4,0.042,0.029,19.93,6.0,3154.0,0.0,0.0,
2025-08-15T01:39:41.818Z,6,GR86-016-55,1.4,0.059,0.022,19.81,6.0,,0.0,0.0,101.13
2025-08-15T01:39:41.861Z,6,GR86-016-55,1.4,0.077,0.023,7.67,6.0,,0.0,0.0,
2025-08-15T01:39:41.904Z,6,GR86-016-55,1.4,0.062,0.027,4.08,6.0,,0.0,0.0,
2025-08-15T01:39:41.947Z,6,GR86-016-55,1.4,0.019,0.009,4.01,6.0,,0.0,0.0,
2025-08-15T01:39:41.990Z,6,GR86-016-55,1.4,-0.047,0.029,3.82,6.0,3057.0,0.0,0.0,
2025-08-15T01:39:42.033Z,6,GR86-016-55,1.4,-0.204,0.015,3.59,6.0,,0.0,0.0,101.94
2025-08-15T01:39:42.076Z,6,GR86-016-55,1.4,-0.096,0.035,3.16,6.0,,0.0,0.0,
2025-08-15T01:39:42.119Z,6,GR86-016-55,1.4,-0.024,0.042,3.01,6.0,,0.0,0.0,
2025-08-15T01:39:42.162Z,6,GR86-016-55,1.4,-0.029,0.015,2.9,6.0,,0.0,0.0,
2025-08-15T01:39:42.205Z,6,GR86-016-55,1.4,-0.05,0.044,2.84,6.0,3125.0,0.0,0.0,
2025-08-15T01:39:42.248Z,6,GR86-016-55,1.5,-0.054,0.03,2.83,6.0,,0.0,0.0,102.39
2025-08-15T01:39:42.291Z,6,GR86-016-55,1.7000000000000002,-0.098,0.046,2.76,6.0,,0.0,0.0,
2025-08-15T01:39:42.335Z,6,GR86-016-55,2.0,-0.027,0.054,2.71,6.0,,0.0,0.0,
2025-08-15T01:39:42.378Z,6,GR86-016-55,2.4000000000000004,-0.038,0.055,2.65,6.0,,0.0,0.0,
2025-08-15T01:39:42.421Z,6,GR86-016-55,2.6,-0.096,0.065,2.63,6.0,2958.0,0.0,0.0,
2025-08-15T01:39:42.464Z,6,GR86-016-55,2.8000000000000003,-0.089,0.074,2.62,6.0,,0.0,0.0,102.03
2025-08-15T01:39:42.507Z,6,GR86-016-55,2.9000000000000004,-0.046,0.086,2.58,6.0,,0.0,0.0,
2025-08-15T01:39:42.550Z,6,GR86-016-55,2.9000000000000004,-0.076,0.092,2.57,6.0,,0.0,0.0,
2025-08-15T01:39:42.593Z,6,GR86-016-55,2.9000000000000004,-0.088,0.083,2.5500000000000003,6.0,,0.0,0.0,
2025-08-15T01:39:42.637Z,6,GR86-016-55,2.9000000000000004,-0.066,0.085,2.5500000000000003,6.0,3032.0,0.0,0.0,
2025-08-15T01:39:42.680Z,6,GR86-016-55,2.9000000000000004,-0.046,0.093,2.52,6.0,,0.0,0.0,101.53
2025-08-15T01:39:42.723Z,6,GR86-016-55,2.9000000000000004,-0.084,0.086,2.52,6.0,,0.0,0.0,
2025-08-15T01:39:42.766Z,6,GR86-016-55,2.9000000000000004,-0.087,0.084,2.52,6.0,,0.0,0.0,
2025-08-15T01:39:42.808Z,6,GR86-016-55,2.9000000000000004,-0.073,0.074,2.51,6.0,,0.0,0.0,
2025-08-15T01:39:42.852Z,6,GR86-016-55,2.9000000000000004,-0.071,0.075,2.58,6.0,3066.0,0.0,0.0,
2025-08-15T01:39:42.895Z,6,GR86-016-55,2.9000000000000004,-0.071,0.081,2.74,6.0,,0.0,0.0,101.03
2025-08-15T01:39:42.938Z,6,GR86-016-55,2.9000000000000004,-0.081,0.068,3.06,6.0,,0.0,0.0,
2025-08-15T01:39:42.981Z,6,GR86-016-55,2.9000000000000004,-0.068,0.078,3.59,6.0,,0.0,0.0,
2025-08-15T01:39:43.024Z,6,GR86-016-55,2.9000000000000004,-0.071,0.065,3.87,6.0,,0.0,0.0,
2025-08-15T01:39:43.067Z,6,GR86-016-55,2.9000000000000004,-0.079,0.069,4.5200000000000005,6.0,3043.0,0.0,0.0,
2025-08-15T01:39:43.110Z,6,GR86-016-55,2.9000000000000004,-0.06,0.076,4.71,6.0,,0.0,0.0,100.52
2025-08-15T01:39:43.153Z,6,GR86-016-55,2.9000000000000004,-0.056,0.059,4.79,6.0,,0.0,0.0,
2025-08-15T01:39:43.196Z,6,GR86-016-55,2.9000000000000004,-0.072,0.07,4.8500000000000005,6.0,,0.0,0.0,
2025-08-15T01:39:43.238Z,6,GR86-016-55,2.9000000000000004,-0.06,0.057,4.88,6.0,,0.0,0.0,
2025-08-15T01:39:43.282Z,6,GR86-016-55,2.9000000000000004,-0.05,0.076,5.41,6.0,3018.0,0.0,0.0,
2025-08-15T01:39:43.325Z,6,GR86-016-55,2.9000000000000004,-0.04,0.061,5.67,6.0,,0.0,0.0,100.02
2025-08-15T01:39:43.368Z,6,GR86-016-55,2.9000000000000004,-0.069,0.059,6.32,6.0,,0.0,0.0,
2025-08-15T01:39:43.411Z,6,GR86-016-55,2.9000000000000004,-0.058,0.061,6.69,6.0,,0.0,0.0,
2025-08-15T01:39:43.454Z,6,GR86-016-55,2.9000000000000004,-0.06,0.051,6.72,6.0,,0.0,0.0,
2025-08-15T01:39:43.497Z,6,GR86-016-55,2.9000000000000004,-0.07,0.062,6.76,6.0,3009.0,0.0,0.0,
2025-08-15T01:39:43.540Z,6,GR86-016-55,2.9000000000000004,-0.063,0.048,6.8100000000000005,6.0,,0.0,0.0,99.54
2025-08-15T01:39:43.583Z,6,GR86-016-55,2.9000000000000004,-0.063,0.056,6.92,6.0,,0.0,0.0,
2025-08-15T01:39:43.626Z,6,GR86-016-55,2.9000000000000004,-0.052,0.039,7.01,6.0,,0.0,0.0,
2025-08-15T01:39:43.668Z,6,GR86-016-55,2.9000000000000004,-0.049,0.041,7.33,6.0,,0.0,0.0,
2025-08-15T01:39:43.712Z,6,GR86-016-55,2.9000000000000004,-0.066,0.041,9.61,6.0,3006.0,0.0,0.0,
2025-08-15T01:39:43.755Z,6,GR86-016-55,2.9000000000000004,-0.06,0.024,12.42,6.0,,0.0,0.0,99.14
2025-08-15T01:39:43.798Z,6,GR86-016-55,2.9000000000000004,-0.054,0.035,15.31,6.0,,0.0,0.0,
2025-08-15T01:39:43.841Z,6,GR86-016-55,2.9000000000000004,-0.056,0.02,17.53,6.0,,0.0,0.0,
2025-08-15T01:39:43.887Z,6,GR86-016-55,2.9000000000000004,-0.074,0.033,18.05,6.0,,0.0,0.0,
2025-08-15T01:39:43.932Z,6,GR86-016-55,2.8000000000000003,-0.045,0.021,18.25,6.0,2988.0,0.0,0.0,
2025-08-15T01:39:43.975Z,6,GR86-016-55,2.8000000000000003,0.141,0.03,17.71,6.0,,0.0,0.0,98.77
2025-08-15T01:39:44.018Z,6,GR86-016-55,2.8000000000000003,0.131,0.023,17.63,6.0,,0.0,0.0,
2025-08-15T01:39:44.061Z,6,GR86-016-55,2.8000000000000003,-0.048,0.014,18.53,6.0,,0.0,0.0,
2025-08-15T01:39:44.104Z,6,GR86-016-55,2.8000000000000003,-0.007,0.023,18.62,6.0,,0.0,0.0,
2025-08-15T01:39:44.147Z,6,GR86-016-55,2.8000000000000003,0.14,0.028,18.53,6.0,2973.0,0.0,0.0,
2025-08-15T01:39:44.190Z,6,GR86-016-55,2.8000000000000003,0.022,0.027,18.51,6.0,,0.0,0.0,98.37
2025-08-15T01:39:44.236Z,6,GR86-016-55,2.8000000000000003,-0.007,0.025,18.5,6.0,,0.0,0.0,
2025-08-15T01:39:44.278Z,6,GR86-016-55,2.8000000000000003,0.077,0.025,18.24,6.0,,0.0,0.0,
2025-08-15T01:39:44.322Z,6,GR86-016-55,2.8000000000000003,0.073,0.044,17.89,6.0,,0.0,0.0,
2025-08-15T01:39:44.365Z,6,GR86-016-55,2.8000000000000003,0.037,0.026,17.76,6.0,2938.0,0.0,0.0,
2025-08-15T01:39:44.408Z,6,GR86-016-55,2.8000000000000003,0.042,0.03,17.78,6.0,,0.0,0.0,97.98
2025-08-15T01:39:44.452Z,6,GR86-016-55,2.8000000000000003,0.069,0.034,17.39,6.0,,0.0,0.0,
2025-08-15T01:39:44.495Z,6,GR86-016-55,2.8000000000000003,0.039,0.019,17.29,6.0,,0.0,0.0,
2025-08-15T01:39:44.538Z,6,GR86-016-55,2.8000000000000003,0.025,0.028,17.29,6.0,,0.0,0.0,
2025-08-15T01:39:44.581Z,6,GR86-016-55,2.8000000000000003,0.069,0.028,16.66,6.0,2958.0,0.0,0.0,
2025-08-15T01:39:44.624Z,6,GR86-016-55,2.8000000000000003,0.063,0.022,16.62,6.0,,0.0,0.0,98.26
2025-08-15T01:39:44.667Z,6,GR86-016-55,2.8000000000000003,0.05,0.029,16.65,6.0,,0.0,0.0,
2025-08-15T01:39:44.710Z,6,GR86-016-55,2.8000000000000003,0.044,0.007,16.56,6.0,,0.0,0.0,
2025-08-15T01:39:44.753Z,6,GR86-016-55,2.8000000000000003,0.064,0.008,16.47,6.0,,0.0,0.0,
2025-08-15T01:39:44.796Z,6,GR86-016-55,2.8000000000000003,0.049,0.007,16.37,6.0,3038.0,0.0,0.0,
2025-08-15T01:39:44.840Z,6,GR86-016-55,2.8000000000000003,0.04,0.015,16.35,6.0,,0.0,0.0,99.04
2025-08-15T01:39:44.883Z,6,GR86-016-55,2.8000000000000003,0.064,0.012,16.23,6.0,,0.0,0.0,
2025-08-15T01:39:44.926Z,6,GR86-016-55,2.8000000000000003,0.048,0.025,16.14,6.0,,0.0,0.0,
2025-08-15T01:39:44.969Z,6,GR86-016-55,2.8000000000000003,0.048,0.022,16.21,6.0,,0.0,0.0,
2025-08-15T01:39:45.013Z,6,GR86-016-55,2.8000000000000003,0.049,0.02,16.23,6.0,3026.0,0.0,0.0,
2025-08-15T01:39:45.056Z,6,GR86-016-55,2.8000000000000003,0.043,0.028,16.16,6.0,,0.0,0.0,99.4
2025-08-15T01:39:45.098Z,6,GR86-016-55,2.8000000000000003,0.055,0.019,16.12,6.0,,0.0,0.0,
2025-08-15T01:39:45.142Z,6,GR86-016-55,2.8000000000000003,0.051,0.036,16.11,6.0,,0.0,0.0,
2025-08-15T01:39:45.186Z,6,GR86-016-55,2.8000000000000003,0.05,0.024,16.07,6.0,,0.0,0.0,
2025-08-15T01:39:45.228Z,6,GR86-016-55,2.8000000000000003,0.039,0.029,15.93,6.0,3023.0,0.0,0.0,
2025-08-15T01:39:45.272Z,6,GR86-016-55,2.8000000000000003,0.05,0.021,15.85,6.0,,0.0,0.0,99.77
2025-08-15T01:39:45.315Z,6,GR86-016-55,2.8000000000000003,0.051,0.02,15.96,6.0,,0.0,0.0,
2025-08-15T01:39:45.358Z,6,GR86-016-55,2.8000000000000003,0.045,0.017,15.87,6.0,,0.0,0.0,
2025-08-15T01:39:45.401Z,6,GR86-016-55,2.8000000000000003,0.045,0.023,15.91,6.0,,0.0,0.0,
2025-08-15T01:39:45.444Z,6,GR86-016-55,2.8000000000000003,0.045,0.02,15.98,6.0,3059.0,0.0,0.0,
2025-08-15T01:39:45.487Z,6,GR86-016-55,2.8000000000000003,0.045,0.028,15.97,6.0,,0.0,0.0,100.12
2025-08-15T01:39:45.531Z,6,GR86-016-55,2.8000000000000003,0.041,0.018,16.07,6.0,,0.0,0.0,
2025-08-15T01:39:45.575Z,6,GR86-016-55,2.8000000000000003,0.044,0.022,16.09,6.0,,0.0,0.0,
2025-08-15T01:39:45.618Z,6,GR86-016-55,2.8000000000000003,0.045,0.019,15.97,6.0,,0.0,0.0,
2025-08-15T01:39:45.661Z,6,GR86-016-55,2.8000000000000003,0.032,0.014,15.94,6.0,3075.0,0.0,0.0,
2025-08-15T01:39:45.704Z,6,GR86-016-55,2.8000000000000003,0.025,0.024,15.94,6.0,,0.0,0.0,100.5
2025-08-15T01:39:45.747Z,6,GR86-016-55,2.8000000000000003,0.048,0.013,15.88,6.0,,0.0,0.0,
2025-08-15T01:39:45.790Z,6,GR86-016-55,2.8000000000000003,0.04,0.009,15.75,6.0,,0.0,0.0,
2025-08-15T01:39:45.834Z,6,GR86-016-55,2.8000000000000003,0.024,0.017,15.7,6.0,,0.0,0.0,
2025-08-15T01:39:45.878Z,6,GR86-016-55,2.8000000000000003,0.04,0.007,15.7,6.0,3079.0,0.0,0.0,
2025-08-15T01:39:45.921Z,6,GR86-016-55,2.8000000000000003,0.038,0.024,15.65,6.0,,0.0,0.0,100.88
2025-08-15T01:39:45.964Z,6,GR86-016-55,2.8000000000000003,0.044,0.01,15.58,6.0,,0.0,0.0,
2025-08-15T01:39:46.007Z,6,GR86-016-55,2.8000000000000003,0.034,0.031,15.35,6.0,,0.0,0.0,
2025-08-15T01:39:46.050Z,6,GR86-016-55,2.8000000000000003,0.033,0.012,15.03,6.0,,0.0,0.0,
2025-08-15T01:39:46.093Z,6,GR86-016-55,2.8000000000000003,0.038,0.015,14.94,6.0,3087.0,0.0,0.0,
2025-08-15T01:39:46.136Z,6,GR86-016-55,2.8000000000000003,0.029,0.02,14.94,6.0,,0.0,0.0,101.26
2025-08-15T01:39:46.180Z,6,GR86-016-55,2.8000000000000003,0.042,0.016,14.94,6.0,,0.0,0.0,
2025-08-15T01:39:46.225Z,6,GR86-016-55,2.8000000000000003,0.041,0.016,14.93,6.0,,0.0,0.0,
2025-08-15T01:39:46.268Z,6,GR86-016-55,2.8000000000000003,0.041,0.017,14.94,6.0,,0.0,0.0,
2025-08-15T01:39:46.311Z,6,GR86-016-55,2.8000000000000003,0.035,0.013,14.98,6.0,3104.0,0.0,0.0,
2025-08-15T01:39:46.354Z,6,GR86-016-55,2.8000000000000003,0.032,0.038,15.0,6.0,,0.0,0.0,101.62
2025-08-15T01:39:46.397Z,6,GR86-016-55,2.8000000000000003,0.043,0.027,15.03,6.0,,0.0,0.0,
2025-08-15T01:39:46.440Z,6,GR86-016-55,2.8000000000000003,0.028,0.044,15.08,6.0,,0.0,0.0,
2025-08-15T01:39:46.486Z,6,GR86-016-55,2.8000000000000003,0.027,0.036,15.14,6.0,,0.0,0.0,
2025-08-15T01:39:46.528Z,6,GR86-016-55,2.8000000000000003,0.039,0.032,15.0,6.0,3111.0,0.0,0.0,
2025-08-15T01:39:46.572Z,6,GR86-016-55,2.8000000000000003,0.027,0.044,5.83,6.0,,0.0,0.0,101.97
2025-08-15T01:39:46.615Z,6,GR86-016-55,2.8000000000000003,0.034,0.047,4.2,6.0,,0.0,0.0,
2025-08-15T01:39:46.658Z,6,GR86-016-55,2.8000000000000003,-0.026,0.044,4.13,6.0,,0.0,0.0,
2025-08-15T01:39:46.701Z,6,GR86-016-55,2.8000000000000003,-0.053,0.064,3.98,6.0,,0.0,0.0,
2025-08-15T01:39:46.744Z,6,GR86-016-55,2.8000000000000003,-0.113,0.055,3.71,6.0,3121.0,0.0,0.0,
2025-08-15T01:39:46.787Z,6,GR86-016-55,2.8000000000000003,-0.182,0.067,3.2,6.0,,0.0,0.0,102.34
2025-08-15T01:39:46.832Z,6,GR86-016-55,2.8000000000000003,-0.022,0.083,2.94,6.0,,0.0,0.0,
2025-08-15T01:39:46.875Z,6,GR86-016-55,2.8000000000000003,-0.041,0.055,2.88,6.0,,0.0,0.0,
2025-08-15T01:39:46.918Z,6,GR86-016-55,2.8000000000000003,-0.047,0.078,2.84,6.0,,0.0,0.0,
2025-08-15T01:39:46.961Z,6,GR86-016-55,2.8000000000000003,-0.126,0.045,2.81,6.0,3135.0,0.0,0.0,
2025-08-15T01:39:47.004Z,6,GR86-016-55,2.8000000000000003,-0.102,0.069,2.77,6.0,,0.0,0.0,102.64
2025-08-15T01:39:47.047Z,6,GR86-016-55,2.8000000000000003,-0.021,0.056,2.68,6.0,,0.0,0.0,
2025-08-15T01:39:47.090Z,6,GR86-016-55,2.8000000000000003,-0.059,0.034,2.64,6.0,,0.0,0.0,
2025-08-15T01:39:47.133Z,6,GR86-016-55,2.6,-0.112,0.038,2.62,6.0,,0.0,0.0,
2025-08-15T01:39:47.176Z,6,GR86-016-55,2.0,-0.056,0.017,2.58,6.0,3191.0,0.0,0.0,
2025-08-15T01:39:47.220Z,6,GR86-016-55,1.7000000000000002,-0.045,0.007,2.56,6.0,,0.0,0.0,102.74
2025-08-15T01:39:47.263Z,6,GR86-016-55,1.7000000000000002,-0.067,-0.009,2.5500000000000003,6.0,,0.0,0.0,
2025-08-15T01:39:47.306Z,6,GR86-016-55,1.7000000000000002,-0.099,-0.02,2.53,6.0,,0.0,0.0,
2025-08-15T01:39:47.350Z,6,GR86-016-55,1.7000000000000002,-0.05,-0.017,2.52,6.0,,0.0,0.0,
2025-08-15T01:39:47.393Z,6,GR86-016-55,1.7000000000000002,-0.056,-0.02,2.51,6.0,3145.0,0.0,0.0,
2025-08-15T01:39:47.437Z,6,GR86-016-55,1.7000000000000002,-0.083,-0.014,2.5,6.0,,0.0,0.0,101.94
2025-08-15T01:39:47.480Z,6,GR86-016-55,1.7000000000000002,-0.072,-0.012,2.49,6.0,,0.0,0.0,
2025-08-15T01:39:47.523Z,6,GR86-016-55,1.7000000000000002,-0.072,-0.006,2.49,6.0,,0.0,0.0,
2025-08-15T01:39:47.566Z,6,GR86-016-55,1.7000000000000002,-0.083,-0.013,2.47,6.0,,0.0,0.0,
2025-08-15T01:39:47.609Z,6,GR86-016-55,1.7000000000000002,-0.08,-0.013,2.48,6.0,3096.0,0.0,0.0,
2025-08-15T01:39:47.652Z,6,GR86-016-55,1.7000000000000002,-0.066,-0.01,2.47,6.0,,0.0,0.0,101.54
2025-08-15T01:39:47.695Z,6,GR86-016-55,1.7000000000000002,-0.074,-0.011,3.81,6.0,,0.0,0.0,
2025-08-15T01:39:47.738Z,6,GR86-016-55,1.7000000000000002,-0.074,-0.017,6.92,6.0,,0.0,0.0,
2025-08-15T01:39:47.781Z,6,GR86-016-55,1.7000000000000002,-0.074,-0.014,9.73,6.0,,0.0,0.0,
2025-08-15T01:39:47.824Z,6,GR86-016-55,1.7000000000000002,-0.061,-0.019,13.18,6.0,3058.0,0.0,0.0,
2025-08-15T01:39:47.867Z,6,GR86-016-55,1.7000000000000002,-0.049,-0.018,17.22,6.0,,0.0,0.0,101.14
2025-08-15T01:39:47.910Z,6,GR86-016-55,1.7000000000000002,-0.044,-0.009,21.16,6.0,,0.0,0.0,
2025-08-15T01:39:47.953Z,6,GR86-016-55,1.6,-0.056,-0.011,21.32,6.0,,0.0,0.0,
2025-08-15T01:39:47.996Z,6,GR86-016-55,1.5,-0.041,-0.041,21.49,6.0,,0.0,0.0,
2025-08-15T01:39:48.039Z,6,GR86-016-55,1.4,0.09,-0.016,21.68,6.0,3045.0,0.0,0.0,
2025-08-15T01:39:48.082Z,6,GR86-016-55,1.4,0.23,-0.024,21.96,6.0,,0.0,0.0,100.72
2025-08-15T01:39:48.125Z,6,GR86-016-55,1.3,0.009,-0.024,22.03,6.0,,0.0,0.0,
2025-08-15T01:39:48.168Z,6,GR86-016-55,1.2000000000000002,-0.018,-0.008,22.06,6.0,,0.0,0.0,
2025-08-15T01:39:48.211Z,6,GR86-016-55,0.7000000000000001,0.174,-0.024,22.09,6.0,,0.0,0.0,
2025-08-15T01:39:48.254Z,6,GR86-016-55,0.7000000000000001,0.069,-0.021,22.1,6.0,3211.0,0.0,0.0,
2025-08-15T01:39:48.297Z,6,GR86-016-55,0.7000000000000001,0.005,-0.039,22.1,6.0,,0.0,0.0,100.43
2025-08-15T01:39:48.340Z,6,GR86-016-55,0.7000000000000001,0.099,-0.03,22.1,6.0,,0.0,0.0,
2025-08-15T01:39:48.426Z,6,GR86-016-55,0.7000000000000001,0.051,-0.019,22.1,6.0,,0.0,0.0,
2025-08-15T01:39:48.468Z,6,GR86-016-55,0.7000000000000001,0.032,-0.026,22.09,6.0,3122.0,0.0,0.0,
2025-08-15T01:39:48.512Z,6,GR86-016-55,0.7000000000000001,0.098,-0.011,22.06,6.0,,0.0,0.0,100.59
2025-08-15T01:39:48.555Z,6,GR86-016-55,0.7000000000000001,0.073,-0.023,22.06,6.0,,0.0,0.0,
2025-08-15T01:39:48.598Z,6,GR86-016-55,0.7000000000000001,0.055,-0.021,22.06,6.0,,0.0,0.0,
2025-08-15T01:39:48.641Z,6,GR86-016-55,0.7000000000000001,0.082,-0.029,22.06,6.0,,0.0,0.0,
2025-08-15T01:39:48.685Z,6,GR86-016-55,0.7000000000000001,0.075,-0.025,22.04,6.0,3054.0,0.0,0.0,
2025-08-15T01:39:48.728Z,6,GR86-016-55,0.7000000000000001,0.048,-0.02,22.04,6.0,,0.0,0.0,101.15
2025-08-15T01:39:48.772Z,6,GR86-016-55,0.7000000000000001,0.082,-0.023,22.0,6.0,,0.0,0.0,
2025-08-15T01:39:48.815Z,6,GR86-016-55,0.7000000000000001,0.072,-0.021,22.0,6.0,,0.0,0.0,
2025-08-15T01:39:48.858Z,6,GR86-016-55,0.7000000000000001,0.067,-0.021,22.0,6.0,,0.0,0.0,
2025-08-15T01:39:48.901Z,6,GR86-016-55,0.7000000000000001,0.071,-0.027,22.0,6.0,3128.0,0.0,0.0,
2025-08-15T01:39:48.944Z,6,GR86-016-55,0.7000000000000001,0.08,-0.017,22.0,6.0,,0.0,0.0,101.79
2025-08-15T01:39:48.987Z,6,GR86-016-55,0.7000000000000001,0.079,-0.027,22.0,6.0,,0.0,0.0,
2025-08-15T01:39:49.032Z,6,GR86-016-55,0.7000000000000001,0.07,-0.041,21.69,6.0,,0.0,0.0,
2025-08-15T01:39:49.075Z,6,GR86-016-55,0.7000000000000001,0.077,-0.017,20.92,6.0,,0.0,0.0,
2025-08-15T01:39:49.118Z,6,GR86-016-55,0.7000000000000001,0.077,-0.021,20.71,6.0,3128.0,0.0,0.0,
2025-08-15T01:39:49.161Z,6,GR86-016-55,0.7000000000000001,0.071,-0.007,20.32,6.0,,0.0,0.0,102.38
2025-08-15T01:39:49.204Z,6,GR86-016-55,0.7000000000000001,0.078,-0.021,19.96,6.0,,0.0,0.0,
2025-08-15T01:39:49.247Z,6,GR86-016-55,0.7000000000000001,0.064,-0.009,19.85,6.0,,0.0,0.0,
2025-08-15T01:39:49.290Z,6,GR86-016-55,0.7000000000000001,0.057,-0.003,19.71,6.0,,0.0,0.0,
2025-08-15T01:39:49.336Z,6,GR86-016-55,0.7000000000000001,0.068,-0.006,19.56,6.0,3150.0,0.0,0.0,
2025-08-15T01:39:49.378Z,6,GR86-016-55,0.7000000000000001,0.065,0.0,18.83,6.0,,0.0,0.0,102.95
2025-08-15T01:39:49.422Z,6,GR86-016-55,0.7000000000000001,0.057,0.004,18.73,6.0,,0.0,0.0,
2025-08-15T01:39:49.465Z,6,GR86-016-55,0.7000000000000001,0.058,-0.002,18.56,6.0,,0.0,0.0,
2025-08-15T01:39:49.508Z,6,GR86-016-55,0.7000000000000001,0.053,0.008,18.31,6.0,,0.0,0.0,
2025-08-15T01:39:49.551Z,6,GR86-016-55,0.7000000000000001,0.054,-0.002,17.35,6.0,3166.0,0.0,0.0,
2025-08-15T01:39:49.594Z,6,GR86-016-55,0.7000000000000001,0.064,-0.011,17.02,6.0,,0.0,0.0,103.51
2025-08-15T01:39:49.637Z,6,GR86-016-55,0.7000000000000001,0.043,0.009,16.97,6.0,,0.0,0.0,
2025-08-15T01:39:49.680Z,6,GR86-016-55,0.7000000000000001,0.046,-0.005,16.96,6.0,,0.0,0.0,
2025-08-15T01:39:49.723Z,6,GR86-016-55,0.7000000000000001,0.061,0.009,16.97,6.0,,0.0,0.0,
2025-08-15T01:39:49.766Z,6,GR86-016-55,0.7000000000000001,0.053,0.003,16.990000000000002,6.0,3181.0,0.0,0.0,
2025-08-15T01:39:49.808Z,6,GR86-016-55,0.7000000000000001,0.043,-0.005,17.01,6.0,,0.0,0.0,104.06
2025-08-15T01:39:49.852Z,6,GR86-016-55,0.8,0.055,0.01,17.02,6.0,,0.0,0.0,
2025-08-15T01:39:49.895Z,6,GR86-016-55,0.8,0.047,0.009,16.96,6.0,,0.0,0.0,
2025-08-15T01:39:49.938Z,6,GR86-016-55,0.9,0.043,0.019,16.86,6.0,,0.0,0.0,
2025-08-15T01:39:49.981Z,6,GR86-016-55,1.0,0.041,0.031,16.88,6.0,3187.0,0.0,0.0,
2025-08-15T01:39:50.024Z,6,GR86-016-55,1.1,0.042,0.023,16.91,6.0,,0.0,0.0,104.57
2025-08-15T01:39:50.067Z,6,GR86-016-55,1.1,0.049,0.034,16.96,6.0,,0.0,0.0,
2025-08-15T01:39:50.110Z,6,GR86-016-55,1.2000000000000002,0.034,0.025,16.990000000000002,6.0,,0.0,0.0,
2025-08-15T01:39:50.153Z,6,GR86-016-55,1.2000000000000002,0.051,0.012,17.12,6.0,,0.0,0.0,
2025-08-15T01:39:50.196Z,6,GR86-016-55,1.2000000000000002,0.044,0.039,17.14,6.0,3207.0,0.0,0.0,
2025-08-15T01:39:50.238Z,6,GR86-016-55,1.2000000000000002,0.049,0.023,17.150000000000002,6.0,,0.0,0.0,105.33
2025-08-15T01:39:50.282Z,6,GR86-016-55,1.2000000000000002,0.042,0.033,17.14,6.0,,0.0,0.0,
2025-08-15T01:39:50.325Z,6,GR86-016-55,1.2000000000000002,0.032,0.031,17.14,6.0,,0.0,0.0,
2025-08-15T01:39:50.368Z,6,GR86-016-55,1.2000000000000002,0.04,0.021,17.05,6.0,,0.0,0.0,
2025-08-15T01:39:50.411Z,6,GR86-016-55,1.2000000000000002,0.044,0.013,16.85,6.0,3216.0,0.0,0.0,
2025-08-15T01:39:50.497Z,6,GR86-016-55,1.2000000000000002,0.035,0.021,16.47,6.0,,0.0,0.0,105.7
2025-08-15T01:39:50.540Z,6,GR86-016-55,1.2000000000000002,0.039,0.023,15.75,6.0,,0.0,0.0,
2025-08-15T01:39:50.583Z,6,GR86-016-55,1.2000000000000002,0.04,0.0,15.59,6.0,,0.0,0.0,
2025-08-15T01:39:50.626Z,6,GR86-016-55,1.2000000000000002,0.045,0.003,14.57,6.0,3226.0,0.0,0.0,
2025-08-15T01:39:50.668Z,6,GR86-016-55,1.2000000000000002,0.032,0.007,14.0,6.0,,0.0,0.0,106.0
2025-08-15T01:39:50.712Z,6,GR86-016-55,1.2000000000000002,0.035,0.018,13.77,6.0,,0.0,0.0,
2025-08-15T01:39:50.755Z,6,GR86-016-55,1.2000000000000002,0.024,0.025,13.7,6.0,,0.0,0.0,
2025-08-15T01:39:50.798Z,6,GR86-016-55,1.2000000000000002,0.018,0.031,13.62,6.0,,0.0,0.0,
2025-08-15T01:39:50.841Z,6,GR86-016-55,1.2000000000000002,0.014,0.02,13.63,6.0,3242.0,0.0,0.0,
2025-08-15T01:39:50.885Z,6,GR86-016-55,1.2000000000000002,0.016,0.04,13.65,6.0,,0.0,0.0,106.34
2025-08-15T01:39:50.928Z,6,GR86-016-55,1.2000000000000002,0.027,0.019,13.59,6.0,,0.0,0.0,
2025-08-15T01:39:50.971Z,6,GR86-016-55,1.2000000000000002,0.012,0.022,13.52,6.0,,0.0,0.0,
2025-08-15T01:39:51.014Z,6,GR86-016-55,1.2000000000000002,0.013,0.022,13.52,6.0,,0.0,0.0,
2025-08-15T01:39:51.058Z,6,GR86-016-55,1.2000000000000002,0.024,0.017,13.45,6.0,3249.0,0.0,0.0,
2025-08-15T01:39:51.101Z,6,GR86-016-55,1.2000000000000002,0.015,0.025,13.2,6.0,,0.0,0.0,106.55
2025-08-15T01:39:51.144Z,6,GR86-016-55,1.2000000000000002,0.012,0.016,13.13,6.0,,0.0,0.0,
2025-08-15T01:39:51.187Z,6,GR86-016-55,1.2000000000000002,0.011,0.005,13.03,6.0,,0.0,0.0,
2025-08-15T01:39:51.232Z,6,GR86-016-55,1.2000000000000002,0.015,0.012,13.03,6.0,,0.0,0.0,
2025-08-15T01:39:51.275Z,6,GR86-016-55,1.3,0.007,0.022,13.1,6.0,3254.0,0.0,0.0,
2025-08-15T01:39:51.318Z,6,GR86-016-55,1.2000000000000002,0.005,0.008,13.1,6.0,,0.0,0.0,106.72
2025-08-15T01:39:51.361Z,6,GR86-016-55,1.3,0.011,0.024,13.17,6.0,,0.0,0.0,
2025-08-15T01:39:51.404Z,6,GR86-016-55,1.3,0.015,0.013,13.23,6.0,,0.0,0.0,
2025-08-15T01:39:51.447Z,6,GR86-016-55,1.3,0.015,0.025,13.26,6.0,,0.0,0.0,
2025-08-15T01:39:51.490Z,6,GR86-016-55,1.2000000000000002,0.017,0.044,13.45,6.0,3255.0,0.0,0.0,
2025-08-15T01:39:51.534Z,6,GR86-016-55,1.2000000000000002,0.004,0.036,14.04,6.0,,0.0,0.0,106.83
2025-08-15T01:39:51.577Z,6,GR86-016-55,1.3,0.02,0.041,14.09,6.0,,0.0,0.0,
2025-08-15T01:39:51.620Z,6,GR86-016-55,1.3,0.021,0.033,14.1,6.0,,0.0,0.0,
2025-08-15T01:39:51.663Z,6,GR86-016-55,1.3,0.011,0.037,14.04,6.0,,0.0,0.0,
2025-08-15T01:39:51.706Z,6,GR86-016-55,1.3,0.02,0.032,14.04,6.0,3259.0,0.0,0.0,
2025-08-15T01:39:51.748Z,6,GR86-016-55,1.3,0.032,0.022,14.04,6.0,,0.0,0.0,106.94
2025-08-15T01:39:51.792Z,6,GR86-016-55,1.3,0.021,0.013,14.01,6.0,,0.0,0.0,
2025-08-15T01:39:51.835Z,6,GR86-016-55,1.3,0.019,0.028,13.96,6.0,,0.0,0.0,
2025-08-15T01:39:51.878Z,6,GR86-016-55,1.3,0.018,0.021,14.13,6.0,,0.0,0.0,
2025-08-15T01:39:51.921Z,6,GR86-016-55,1.3,0.019,0.021,14.19,6.0,3260.0,0.0,0.0,
2025-08-15T01:39:51.964Z,6,GR86-016-55,1.3,0.011,0.022,14.26,6.0,,0.0,0.0,107.08
2025-08-15T01:39:52.007Z,6,GR86-016-55,1.3,0.019,0.014,14.28,6.0,,0.0,0.0,
2025-08-15T01:39:52.050Z,6,GR86-016-55,1.3,0.013,0.023,14.27,6.0,,0.0,0.0,
2025-08-15T01:39:52.093Z,6,GR86-016-55,1.3,0.011,0.036,14.28,6.0,,0.0,0.0,
2025-08-15T01:39:52.136Z,6,GR86-016-55,1.3,0.018,0.004,14.32,6.0,3264.0,0.0,0.0,
2025-08-15T01:39:52.180Z,6,GR86-016-55,1.3,0.023,0.03,14.34,6.0,,0.0,0.0,107.08
2025-08-15T01:39:52.225Z,6,GR86-016-55,1.3,0.02,-0.011,14.35,6.0,,0.0,0.0,
2025-08-15T01:39:52.268Z,6,GR86-016-55,1.3,0.014,0.021,14.4,6.0,,0.0,0.0,
2025-08-15T01:39:52.311Z,6,GR86-016-55,1.3,0.019,-0.012,14.39,6.0,,0.0,0.0,
2025-08-15T01:39:52.354Z,6,GR86-016-55,1.3,0.017,0.004,14.45,6.0,3267.0,0.0,0.0,
2025-08-15T01:39:52.397Z,6,GR86-016-55,1.3,0.006,-0.022,14.52,6.0,,0.0,0.0,107.25
2025-08-15T01:39:52.440Z,6,GR86-016-55,1.3,0.016,-0.006,14.55,6.0,,0.0,0.0,
2025-08-15T01:39:52.486Z,6,GR86-016-55,1.3,0.028,-0.019,14.58,6.0,,0.0,0.0,
2025-08-15T01:39:52.528Z,6,GR86-016-55,1.3,0.024,0.007,14.58,6.0,,0.0,0.0,
2025-08-15T01:39:52.572Z,6,GR86-016-55,1.3,0.008,-0.007,14.61,6.0,3274.0,0.0,0.0,
2025-08-15T01:39:52.615Z,6,GR86-016-55,1.3,0.02,-0.002,14.58,6.0,,0.0,0.0,107.38
2025-08-15T01:39:52.658Z,6,GR86-016-55,1.3,0.028,0.003,14.58,6.0,,0.0,0.0,
2025-08-15T01:39:52.701Z,6,GR86-016-55,1.3,0.016,0.007,14.55,6.0,,0.0,0.0,
2025-08-15T01:39:52.744Z,6,GR86-016-55,1.3,0.015,0.002,14.56,6.0,,0.0,0.0,
2025-08-15T01:39:52.787Z,6,GR86-016-55,1.3,0.022,0.014,14.56,6.0,3279.0,0.0,0.0,
2025-08-15T01:39:52.832Z,6,GR86-016-55,1.3,0.016,0.01,14.56,6.0,,0.0,0.0,107.62
2025-08-15T01:39:52.875Z,6,GR86-016-55,1.3,0.015,0.004,14.55,6.0,,0.0,0.0,
2025-08-15T01:39:52.918Z,6,GR86-016-55,1.3,0.012,0.008,14.55,6.0,,0.0,0.0,
2025-08-15T01:39:52.961Z,6,GR86-016-55,1.3,0.022,-0.012,14.55,6.0,,0.0,0.0,
2025-08-15T01:39:53.004Z,6,GR86-016-55,1.3,0.022,0.006,14.55,6.0,3289.0,0.0,0.0,
2025-08-15T01:39:53.047Z,6,GR86-016-55,1.3,0.017,-0.002,14.53,6.0,,0.0,0.0,107.76
2025-08-15T01:39:53.090Z,6,GR86-016-55,1.3,0.028,0.004,14.55,6.0,,0.0,0.0,
2025-08-15T01:39:53.133Z,6,GR86-016-55,1.3,0.021,0.016,14.55,6.0,,0.0,0.0,
2025-08-15T01:39:53.176Z,6,GR86-016-55,1.3,0.015,0.004,14.55,6.0,,0.0,0.0,
2025-08-15T01:39:53.218Z,6,GR86-016-55,1.3,0.022,0.005,14.55,6.0,3284.0,0.0,0.0,
2025-08-15T01:39:53.262Z,6,GR86-016-55,1.3,0.023,0.017,14.51,6.0,,0.0,0.0,107.93
2025-08-15T01:39:53.305Z,6,GR86-016-55,1.3,0.026,0.008,14.51,6.0,,0.0,0.0,
2025-08-15T01:39:53.348Z,6,GR86-016-55,1.3,0.027,0.024,14.46,6.0,,0.0,0.0,
2025-08-15T01:39:53.391Z,6,GR86-016-55,1.3,0.027,0.029,14.38,6.0,,0.0,0.0,
2025-08-15T01:39:53.435Z,6,GR86-016-55,1.3,0.02,0.014,14.25,6.0,3295.0,0.0,0.0,
2025-08-15T01:39:53.478Z,6,GR86-016-55,1.3,0.014,0.023,14.31,6.0,,0.0,0.0,108.1
2025-08-15T01:39:53.521Z,6,GR86-016-55,1.3,0.017,0.019,14.31,6.0,,0.0,0.0,
2025-08-15T01:39:53.564Z,6,GR86-016-55,1.3,0.025,0.016,14.3,6.0,,0.0,0.0,
2025-08-15T01:39:53.607Z,6,GR86-016-55,1.3,0.02,0.037,13.87,6.0,,0.0,0.0,
2025-08-15T01:39:53.650Z,6,GR86-016-55,1.3,0.02,0.024,5.92,6.0,3297.0,0.0,0.0,
2025-08-15T01:39:53.693Z,6,GR86-016-55,1.3,0.016,0.02,4.08,6.0,,0.0,0.0,108.24
2025-08-15T01:39:53.737Z,6,GR86-016-55,1.3,-0.042,0.029,3.99,6.0,,0.0,0.0,
2025-08-15T01:39:53.780Z,6,GR86-016-55,1.3,-0.056,0.031,3.82,6.0,,0.0,0.0,
2025-08-15T01:39:53.823Z,6,GR86-016-55,1.3,-0.158,0.018,3.52,6.0,,0.0,0.0,
2025-08-15T01:39:53.866Z,6,GR86-016-55,1.3,-0.152,0.037,3.1,6.0,3304.0,0.0,0.0,
2025-08-15T01:39:53.908Z,6,GR86-016-55,1.3,-0.021,0.035,3.0,6.0,,0.0,0.0,108.43
2025-08-15T01:39:53.952Z,6,GR86-016-55,1.3,-0.039,0.026,2.87,6.0,,0.0,0.0,
2025-08-15T01:39:53.995Z,6,GR86-016-55,1.3,-0.042,0.037,2.81,6.0,,0.0,0.0,
2025-08-15T01:39:54.038Z,6,GR86-016-55,1.3,-0.146,0.024,2.78,6.0,,0.0,0.0,
2025-08-15T01:39:54.081Z,6,GR86-016-55,1.3,-0.081,0.041,2.71,6.0,3174.0,0.0,0.0,
2025-08-15T01:39:54.124Z,6,GR86-016-55,1.3,-0.034,0.03,2.65,6.0,,0.0,0.0,108.54
2025-08-15T01:39:54.167Z,6,GR86-016-55,1.3,-0.061,0.018,2.62,6.0,,0.0,0.0,
2025-08-15T01:39:54.210Z,6,GR86-016-55,1.3,-0.11,0.023,2.5500000000000003,6.0,,0.0,0.0,
2025-08-15T01:39:54.253Z,6,GR86-016-55,1.3,-0.075,0.023,2.56,6.0,,0.0,0.0,
2025-08-15T01:39:54.296Z,6,GR86-016-55,1.3,-0.06,0.021,2.51,6.0,3199.0,0.0,0.0,
2025-08-15T01:39:54.338Z,6,GR86-016-55,1.3,-0.084,0.024,2.51,6.0,,0.0,0.0,108.14
2025-08-15T01:39:54.382Z,6,GR86-016-55,1.3,-0.089,0.01,2.5,6.0,,0.0,0.0,
2025-08-15T01:39:54.425Z,6,GR86-016-55,1.3,-0.064,0.023,2.49,6.0,,0.0,0.0,
2025-08-15T01:39:54.468Z,6,GR86-016-55,1.3,-0.069,0.024,2.46,6.0,,0.0,0.0,
2025-08-15T01:39:54.511Z,6,GR86-016-55,1.3,-0.084,0.017,2.46,6.0,3243.0,0.0,0.0,
2025-08-15T01:39:54.555Z,6,GR86-016-55,1.3,-0.083,0.033,2.46,6.0,,0.0,0.0,107.64
2025-08-15T01:39:54.598Z,6,GR86-016-55,1.3,-0.08,0.023,2.46,6.0,,0.0,0.0,
2025-08-15T01:39:54.641Z,6,GR86-016-55,1.3,-0.078,0.015,2.45,6.0,,0.0,0.0,
2025-08-15T01:39:54.687Z,6,GR86-016-55,1.3,-0.075,0.029,2.45,6.0,,0.0,0.0,
2025-08-15T01:39:54.732Z,6,GR86-016-55,1.3,-0.08,0.025,2.45,6.0,3248.0,0.0,0.0,
2025-08-15T01:39:54.775Z,6,GR86-016-55,1.3,-0.076,0.032,2.46,6.0,,0.0,0.0,107.1
2025-08-15T01:39:54.818Z,6,GR86-016-55,1.3,-0.079,0.042,2.46,6.0,,0.0,0.0,
2025-08-15T01:39:54.861Z,6,GR86-016-55,1.3,-0.067,0.033,2.46,6.0,,0.0,0.0,
2025-08-15T01:39:54.904Z,6,GR86-016-55,1.3,-0.077,0.041,2.47,6.0,,0.0,0.0,
2025-08-15T01:39:54.947Z,6,GR86-016-55,1.3,-0.074,0.008,2.46,6.0,3228.0,0.0,0.0,
2025-08-15T01:39:54.992Z,6,GR86-016-55,1.3,-0.076,0.008,2.46,6.0,,0.0,0.0,106.56
2025-08-15T01:39:55.035Z,6,GR86-016-55,1.3,-0.064,0.024,2.47,6.0,,0.0,0.0,
2025-08-15T01:39:55.078Z,6,GR86-016-55,1.3,-0.074,0.021,2.46,6.0,,0.0,0.0,
2025-08-15T01:39:55.121Z,6,GR86-016-55,1.3,-0.083,0.024,2.45,6.0,,0.0,0.0,
2025-08-15T01:39:55.164Z,6,GR86-016-55,1.3,-0.083,0.034,2.46,6.0,3206.0,0.0,0.0,
2025-08-15T01:39:55.207Z,6,GR86-016-55,1.3,-0.069,0.015,2.46,6.0,,0.0,0.0,105.98
2025-08-15T01:39:55.250Z,6,GR86-016-55,1.3,-0.073,0.024,2.47,6.0,,0.0,0.0,
2025-08-15T01:39:55.294Z,6,GR86-016-55,1.3,-0.088,0.027,2.45,6.0,,0.0,0.0,
2025-08-15T01:39:55.337Z,6,GR86-016-55,1.3,-0.07,0.02,2.45,6.0,,0.0,0.0,
2025-08-15T01:39:55.380Z,6,GR86-016-55,1.3,-0.066,0.021,2.46,6.0,3191.0,0.0,0.0,
2025-08-15T01:39:55.423Z,6,GR86-016-55,1.3,-0.068,0.024,2.46,6.0,,0.0,0.0,105.46
2025-08-15T01:39:55.466Z,6,GR86-016-55,1.3,-0.073,0.028,2.46,6.0,,0.0,0.0,
2025-08-15T01:39:55.508Z,6,GR86-016-55,1.3,-0.084,0.023,2.46,6.0,,0.0,0.0,
2025-08-15T01:39:55.552Z,6,GR86-016-55,1.3,-0.074,0.023,2.45,6.0,,0.0,0.0,
2025-08-15T01:39:55.638Z,6,GR86-016-55,1.3,-0.069,0.025,2.46,6.0,3173.0,0.0,0.0,104.37
2025-08-15T01:39:55.681Z,6,GR86-016-55,1.3,-0.075,0.016,2.48,6.0,,0.0,0.0,
2025-08-15T01:39:55.724Z,6,GR86-016-55,1.3,-0.084,0.011,2.46,6.0,,0.0,0.0,
2025-08-15T01:39:55.767Z,6,GR86-016-55,1.3,-0.076,0.004,2.46,6.0,,0.0,0.0,
2025-08-15T01:39:55.810Z,6,GR86-016-55,1.3,-0.073,-0.008,2.47,6.0,3149.0,0.0,0.0,
2025-08-15T01:39:55.853Z,6,GR86-016-55,1.3,-0.079,-0.012,2.46,6.0,,0.0,0.0,103.88
2025-08-15T01:39:55.896Z,6,GR86-016-55,1.3,-0.08,-0.015,2.48,6.0,,0.0,0.0,
2025-08-15T01:39:55.938Z,6,GR86-016-55,1.3,-0.077,-0.01,2.46,6.0,,0.0,0.0,
2025-08-15T01:39:55.982Z,6,GR86-016-55,1.3,-0.076,-0.02,2.48,6.0,,0.0,0.0,
2025-08-15T01:39:56.026Z,6,GR86-016-55,1.3,-0.063,-0.012,2.46,6.0,3142.0,0.0,0.0,
2025-08-15T01:39:56.068Z,6,GR86-016-55,1.3,-0.07,-0.022,2.48,6.0,,0.0,0.0,103.39
2025-08-15T01:39:56.112Z,6,GR86-016-55,1.3,-0.071,-0.019,2.48,6.0,,0.0,0.0,
2025-08-15T01:39:56.155Z,6,GR86-016-55,1.3,-0.071,0.004,2.47,6.0,,0.0,0.0,
2025-08-15T01:39:56.198Z,6,GR86-016-55,1.3,-0.069,-0.015,2.48,6.0,,0.0,0.0,
2025-08-15T01:39:56.241Z,6,GR86-016-55,1.3,-0.079,-0.006,2.47,6.0,3115.0,0.0,0.0,
2025-08-15T01:39:56.286Z,6,GR86-016-55,1.3,-0.076,-0.019,2.48,6.0,,0.0,0.0,102.9
2025-08-15T01:39:56.328Z,6,GR86-016-55,1.3,-0.078,-0.008,2.49,6.0,,0.0,0.0,
2025-08-15T01:39:56.372Z,6,GR86-016-55,1.3,-0.074,0.004,2.48,6.0,,0.0,0.0,
2025-08-15T01:39:56.415Z,6,GR86-016-55,1.3,-0.075,-0.013,2.49,6.0,,0.0,0.0,
2025-08-15T01:39:56.458Z,6,GR86-016-55,1.3,-0.072,-0.016,2.48,6.0,3092.0,0.0,0.0,
2025-08-15T01:39:56.501Z,6,GR86-016-55,1.3,-0.086,-0.009,2.49,6.0,,0.0,0.0,102.36
2025-08-15T01:39:56.544Z,6,GR86-016-55,1.3,-0.084,-0.023,2.48,6.0,,0.0,0.0,
2025-08-15T01:39:56.587Z,6,GR86-016-55,1.3,-0.085,0.001,2.48,6.0,,0.0,0.0,
2025-08-15T01:39:56.632Z,6,GR86-016-55,1.3,-0.079,-0.007,2.47,6.0,,0.0,0.0,
2025-08-15T01:39:56.675Z,6,GR86-016-55,1.3,-0.084,-0.017,2.47,6.0,3080.0,0.0,0.0,
2025-08-15T01:39:56.718Z,6,GR86-016-55,1.3,-0.083,-0.006,2.49,6.0,,0.0,0.0,101.85
2025-08-15T01:39:56.761Z,6,GR86-016-55,1.3,-0.075,-0.02,2.49,6.0,,0.0,0.0,
2025-08-15T01:39:56.804Z,6,GR86-016-55,1.3,-0.073,-0.015,2.49,6.0,,0.0,0.0,
2025-08-15T01:39:56.847Z,6,GR86-016-55,1.3,-0.072,-0.036,2.49,6.0,,0.0,0.0,
2025-08-15T01:39:56.890Z,6,GR86-016-55,1.3,-0.083,-0.039,2.48,6.0,3066.0,0.0,0.0,
2025-08-15T01:39:56.934Z,6,GR86-016-55,1.3,-0.075,-0.022,2.48,6.0,,0.0,0.0,101.35
2025-08-15T01:39:56.977Z,6,GR86-016-55,1.3,-0.078,-0.039,2.49,6.0,,0.0,0.0,
2025-08-15T01:39:57.020Z,6,GR86-016-55,1.3,-0.071,-0.015,2.49,6.0,,0.0,0.0,
2025-08-15T01:39:57.063Z,6,GR86-016-55,1.3,-0.069,-0.036,2.49,6.0,,0.0,0.0,
2025-08-15T01:39:57.106Z,6,GR86-016-55,1.3,-0.068,-0.01,2.49,6.0,3049.0,0.0,0.0,
2025-08-15T01:39:57.150Z,6,GR86-016-55,1.3,-0.075,-0.009,2.49,6.0,,0.0,0.0,100.85
2025-08-15T01:39:57.193Z,6,GR86-016-55,1.3,-0.069,-0.014,2.49,6.0,,0.0,0.0,
2025-08-15T01:39:57.236Z,6,GR86-016-55,1.3,-0.076,-0.012,2.49,6.0,,0.0,0.0,
2025-08-15T01:39:57.325Z,6,GR86-016-55,1.3,-0.063,-0.025,2.49,6.0,3033.0,0.0,0.0,
2025-08-15T01:39:57.368Z,6,GR86-016-55,1.3,-0.073,-0.009,2.49,6.0,,0.0,0.0,100.36
2025-08-15T01:39:57.411Z,6,GR86-016-55,1.3,-0.075,-0.008,2.49,6.0,,0.0,0.0,
2025-08-15T01:39:57.454Z,6,GR86-016-55,1.3,-0.065,0.008,2.49,6.0,,0.0,0.0,
2025-08-15T01:39:57.497Z,6,GR86-016-55,1.3,-0.069,-0.004,2.49,6.0,,0.0,0.0,
2025-08-15T01:39:57.540Z,6,GR86-016-55,1.3,-0.071,0.004,2.49,6.0,3019.0,0.0,0.0,
2025-08-15T01:39:57.586Z,6,GR86-016-55,1.3,-0.071,-0.008,2.49,6.0,,0.0,0.0,99.89
2025-08-15T01:39:57.628Z,6,GR86-016-55,1.3,-0.076,-0.005,2.49,6.0,,0.0,0.0,
2025-08-15T01:39:57.672Z,6,GR86-016-55,1.3,-0.076,0.004,2.49,6.0,,0.0,0.0,
2025-08-15T01:39:57.715Z,6,GR86-016-55,1.3,-0.069,-0.015,2.5,6.0,,0.0,0.0,
2025-08-15T01:39:57.758Z,6,GR86-016-55,1.3,-0.064,0.012,2.5,6.0,3005.0,0.0,0.0,
2025-08-15T01:39:57.801Z,6,GR86-016-55,1.3,-0.071,-0.015,2.5,6.0,,0.0,0.0,99.42
2025-08-15T01:39:57.844Z,6,GR86-016-55,1.3,-0.068,0.007,2.49,6.0,,0.0,0.0,
2025-08-15T01:39:57.887Z,6,GR86-016-55,1.3,-0.073,-0.017,2.49,6.0,,0.0,0.0,
2025-08-15T01:39:57.931Z,6,GR86-016-55,1.3,-0.072,-0.006,2.5,6.0,,0.0,0.0,
2025-08-15T01:39:57.975Z,6,GR86-016-55,1.3,-0.068,0.002,2.5,6.0,2989.0,0.0,0.0,
2025-08-15T01:39:58.018Z,6,GR86-016-55,1.3,-0.06,-0.011,2.5,6.0,,0.0,0.0,98.97
2025-08-15T01:39:58.061Z,6,GR86-016-55,1.3,-0.078,0.009,2.49,6.0,,0.0,0.0,
2025-08-15T01:39:58.104Z,6,GR86-016-55,1.3,-0.072,-0.01,2.49,6.0,,0.0,0.0,
2025-08-15T01:39:58.147Z,6,GR86-016-55,1.3,-0.071,0.004,2.5,6.0,,0.0,0.0,
2025-08-15T01:39:58.190Z,6,GR86-016-55,1.2000000000000002,-0.068,0.004,2.49,6.0,2976.0,0.0,0.0,
2025-08-15T01:39:58.234Z,6,GR86-016-55,0.8,-0.071,-0.012,2.49,6.0,,0.0,0.0,98.1
2025-08-15T01:39:58.277Z,6,GR86-016-55,0.1,-0.072,-0.006,2.49,6.0,,0.0,0.0,
2025-08-15T01:39:58.320Z,6,GR86-016-55,-1.3,-0.073,-0.041,2.56,6.0,,0.0,0.0,
2025-08-15T01:39:58.363Z,6,GR86-016-55,-2.6,-0.067,-0.034,2.65,6.0,,0.0,0.0,
2025-08-15T01:39:58.406Z,6,GR86-016-55,-3.8,-0.074,-0.084,2.96,6.0,2963.0,0.0,0.0,
2025-08-15T01:39:58.448Z,6,GR86-016-55,-5.300000000000001,-0.066,-0.094,3.19,6.0,,0.0,0.0,97.7
2025-08-15T01:39:58.492Z,6,GR86-016-55,-6.800000000000001,-0.074,-0.144,3.48,6.0,,0.0,0.0,
2025-08-15T01:39:58.535Z,6,GR86-016-55,-7.2,-0.081,-0.164,3.87,6.0,,0.0,0.0,
2025-08-15T01:39:58.578Z,6,GR86-016-55,-7.4,-0.068,-0.186,4.25,6.0,,0.0,0.0,
2025-08-15T01:39:58.621Z,6,GR86-016-55,-7.5,-0.068,-0.2,4.37,6.0,2956.0,0.0,0.0,
2025-08-15T01:39:58.707Z,6,GR86-016-55,-7.800000000000001,-0.076,-0.233,4.92,6.0,,0.0,0.0,97.3
2025-08-15T01:39:58.750Z,6,GR86-016-55,-8.200000000000001,-0.053,-0.226,4.97,6.0,,0.0,0.0,
2025-08-15T01:39:58.793Z,6,GR86-016-55,-8.8,-0.046,-0.222,5.01,6.0,,0.0,0.0,
2025-08-15T01:39:58.836Z,6,GR86-016-55,-9.3,-0.048,-0.231,5.01,6.0,2930.0,0.0,0.0,
2025-08-15T01:39:58.878Z,6,GR86-016-55,-9.9,-0.077,-0.24,5.04,6.0,,0.0,0.0,96.85
2025-08-15T01:39:58.922Z,6,GR86-016-55,-10.9,-0.066,-0.258,5.04,6.0,,0.0,0.0,
2025-08-15T01:39:58.965Z,6,GR86-016-55,-12.0,-0.052,-0.263,5.05,6.0,,0.0,0.0,
2025-08-15T01:39:59.008Z,6,GR86-016-55,-13.3,-0.064,-0.306,5.04,6.0,,0.0,0.0,
2025-08-15T01:39:59.052Z,6,GR86-016-55,-16.2,-0.066,-0.343,5.05,6.0,2917.0,0.0,0.0,
2025-08-15T01:39:59.095Z,6,GR86-016-55,-18.0,-0.062,-0.37,5.05,6.0,,0.0,0.0,96.46
2025-08-15T01:39:59.138Z,6,GR86-016-55,-19.3,-0.077,-0.391,5.05,6.0,,0.0,0.0,
2025-08-15T01:39:59.181Z,6,GR86-016-55,-20.3,-0.078,-0.421,5.05,6.0,,0.0,0.0,
2025-08-15T01:39:59.224Z,6,GR86-016-55,-20.5,-0.062,-0.439,5.61,6.0,,0.0,0.0,
2025-08-15T01:39:59.267Z,6,GR86-016-55,-20.6,-0.058,-0.461,6.16,6.0,2909.0,0.0,0.0,
2025-08-15T01:39:59.353Z,6,GR86-016-55,-20.8,-0.078,-0.502,7.59,6.0,,0.0,0.0,96.22
2025-08-15T01:39:59.396Z,6,GR86-016-55,-21.200000000000003,-0.078,-0.506,10.98,6.0,,0.0,0.0,
2025-08-15T01:39:59.438Z,6,GR86-016-55,-21.700000000000003,-0.083,-0.522,13.82,6.0,,0.0,0.0,
2025-08-15T01:39:59.482Z,6,GR86-016-55,-22.5,-0.08,-0.53,16.82,6.0,2915.0,0.0,0.0,
2025-08-15T01:39:59.525Z,6,GR86-016-55,-22.9,-0.08,-0.533,17.91,6.0,,0.0,0.0,95.9
2025-08-15T01:39:59.568Z,6,GR86-016-55,-23.0,-0.048,-0.542,18.47,6.0,,0.0,0.0,
2025-08-15T01:39:59.611Z,6,GR86-016-55,-23.0,-0.024,-0.5690000000000001,19.11,6.0,,0.0,0.0,
2025-08-15T01:39:59.654Z,6,GR86-016-55,-23.0,0.189,-0.52,18.77,6.0,,0.0,0.0,
2025-08-15T01:39:59.697Z,6,GR86-016-55,-23.0,0.018,-0.5630000000000001,19.22,6.0,2891.0,0.0,0.0,
2025-08-15T01:39:59.740Z,6,GR86-016-55,-23.0,-0.049,-0.509,20.61,6.0,,0.0,0.0,95.59
2025-08-15T01:39:59.783Z,6,GR86-016-55,-23.0,0.035,-0.528,20.04,6.0,,0.0,0.0,
2025-08-15T01:39:59.826Z,6,GR86-016-55,-23.0,0.107,-0.516,19.72,6.0,,0.0,0.0,
2025-08-15T01:39:59.868Z,6,GR86-016-55,-22.9,0.034,-0.507,19.87,6.0,,0.0,0.0,
2025-08-15T01:39:59.912Z,6,GR86-016-55,-23.6,0.025,-0.494,19.71,6.0,3051.0,0.0,0.0,
2025-08-15T01:39:59.955Z,6,GR86-016-55,-25.0,0.085,-0.509,19.34,6.0,,0.0,0.0,95.27
2025-08-15T01:39:59.998Z,6,GR86-016-55,-27.1,0.041,-0.521,19.33,6.0,,0.0,0.0,
2025-08-15T01:40:00.041Z,6,GR86-016-55,-29.1,0.03,-0.516,19.29,6.0,,0.0,0.0,
2025-08-15T01:40:00.086Z,6,GR86-016-55,-30.6,0.036,-0.5640000000000001,19.09,6.0,,0.0,0.0,
2025-08-15T01:40:00.128Z,6,GR86-016-55,-30.9,0.046,-0.553,18.93,6.0,2952.0,0.0,0.0,
2025-08-15T01:40:00.172Z,6,GR86-016-55,-30.9,0.029,-0.589,18.88,6.0,,0.0,0.0,95.36
2025-08-15T01:40:00.215Z,6,GR86-016-55,-30.9,0.036,-0.632,18.86,6.0,,0.0,0.0,
2025-08-15T01:40:00.258Z,6,GR86-016-55,-30.9,0.044,-0.607,18.86,6.0,,0.0,0.0,
2025-08-15T01:40:00.301Z,6,GR86-016-55,-30.9,0.026,-0.653,18.9,6.0,,0.0,0.0,
2025-08-15T01:40:00.344Z,6,GR86-016-55,-30.9,0.033,-0.634,18.93,6.0,2922.0,0.0,0.0,
2025-08-15T01:40:00.387Z,6,GR86-016-55,-30.8,0.033,-0.678,18.99,6.0,,0.0,0.0,95.82
2025-08-15T01:40:00.432Z,6,GR86-016-55,-30.700000000000003,0.028,-0.662,19.22,6.0,,0.0,0.0,
2025-08-15T01:40:00.475Z,6,GR86-016-55,-30.6,0.042,-0.622,19.31,6.0,,0.0,0.0,
2025-08-15T01:40:00.518Z,6,GR86-016-55,-30.3,0.035,-0.661,19.46,6.0,,0.0,0.0,
2025-08-15T01:40:00.561Z,6,GR86-016-55,-29.700000000000003,0.034,-0.636,19.54,6.0,2954.0,0.0,0.0,
2025-08-15T01:40:00.604Z,6,GR86-016-55,-29.3,0.014,-0.627,19.66,6.0,,0.0,0.0,96.3
2025-08-15T01:40:00.647Z,6,GR86-016-55,-29.0,0.048,-0.579,19.73,6.0,,0.0,0.0,
2025-08-15T01:40:00.690Z,6,GR86-016-55,-28.9,0.06,-0.602,19.57,6.0,,0.0,0.0,
2025-08-15T01:40:00.736Z,6,GR86-016-55,-28.8,0.025,-0.602,19.49,6.0,,0.0,0.0,
2025-08-15T01:40:00.778Z,6,GR86-016-55,-28.8,0.042,-0.587,19.0,6.0,2960.0,0.0,0.0,
2025-08-15T01:40:00.822Z,6,GR86-016-55,-28.700000000000003,0.038,-0.627,18.63,6.0,,0.0,0.0,96.74
2025-08-15T01:40:00.865Z,6,GR86-016-55,-28.700000000000003,0.036,-0.5640000000000001,18.37,6.0,,0.0,0.0,
2025-08-15T01:40:00.908Z,6,GR86-016-55,-28.700000000000003,0.025,-0.613,15.74,6.0,,0.0,0.0,
2025-08-15T01:40:00.951Z,6,GR86-016-55,-28.8,0.049,-0.624,13.68,6.0,,0.0,0.0,
2025-08-15T01:40:00.994Z,6,GR86-016-55,-29.0,0.02,-0.612,13.72,6.0,2983.0,0.0,0.0,
2025-08-15T01:40:01.037Z,6,GR86-016-55,-29.1,0.001,-0.635,13.37,6.0,,0.0,0.0,97.5
2025-08-15T01:40:01.080Z,6,GR86-016-55,-29.200000000000003,0.025,-0.598,13.22,6.0,,0.0,0.0,
2025-08-15T01:40:01.123Z,6,GR86-016-55,-29.5,0.009,-0.654,12.6,6.0,,0.0,0.0,
2025-08-15T01:40:01.166Z,6,GR86-016-55,-29.8,-0.021,-0.599,13.27,6.0,,0.0,0.0,
2025-08-15T01:40:01.252Z,6,GR86-016-55,-30.1,-0.009,-0.561,11.12,6.0,2994.0,0.0,0.0,97.81
2025-08-15T01:40:01.295Z,6,GR86-016-55,-30.3,0.009,-0.659,10.9,6.0,,0.0,0.0,
2025-08-15T01:40:01.338Z,6,GR86-016-55,-30.9,-0.023,-0.634,9.22,6.0,,0.0,0.0,
2025-08-15T01:40:01.381Z,6,GR86-016-55,-31.200000000000003,0.023,-0.73,8.43,6.0,,0.0,0.0,
2025-08-15T01:40:01.424Z,6,GR86-016-55,-31.4,-0.023,-0.5760000000000001,7.95,6.0,2986.0,0.0,0.0,
2025-08-15T01:40:01.467Z,6,GR86-016-55,-31.6,-0.044,-0.619,7.75,6.0,,0.0,0.0,98.03
2025-08-15T01:40:01.510Z,6,GR86-016-55,-32.2,-0.013,-0.65,7.69,6.0,,0.0,0.0,
2025-08-15T01:40:01.553Z,6,GR86-016-55,-32.9,-0.071,-0.71,7.2,6.0,,0.0,0.0,
2025-08-15T01:40:01.596Z,6,GR86-016-55,-33.1,-0.073,-0.707,7.1000000000000005,6.0,,0.0,0.0,
2025-08-15T01:40:01.639Z,6,GR86-016-55,-33.2,-0.083,-0.794,7.01,6.0,2996.0,0.0,0.0,
2025-08-15T01:40:01.682Z,6,GR86-016-55,-33.2,-0.058,-0.754,6.99,6.0,,0.0,0.0,97.98
2025-08-15T01:40:01.725Z,6,GR86-016-55,-32.800000000000004,-0.069,-0.801,7.04,6.0,,0.0,0.0,
2025-08-15T01:40:01.768Z,6,GR86-016-55,-32.800000000000004,-0.172,-0.784,7.56,6.0,,0.0,0.0,
2025-08-15T01:40:01.811Z,6,GR86-016-55,-32.6,-0.038,-0.807,7.56,6.0,,0.0,0.0,
2025-08-15T01:40:01.854Z,6,GR86-016-55,-32.300000000000004,-0.069,-0.799,7.76,6.0,2954.0,0.0,0.0,
2025-08-15T01:40:01.897Z,6,GR86-016-55,-32.1,-0.064,-0.737,7.98,6.0,,0.0,0.0,98.77
2025-08-15T01:40:01.940Z,6,GR86-016-55,-32.1,-0.071,-0.744,8.56,6.0,,0.0,0.0,
2025-08-15T01:40:01.983Z,6,GR86-016-55,-32.1,-0.067,-0.723,9.75,6.0,,0.0,0.0,
2025-08-15T01:40:02.026Z,6,GR86-016-55,-32.0,-0.139,-0.727,14.24,6.0,,0.0,0.0,
2025-08-15T01:40:02.068Z,6,GR86-016-55,-32.0,-0.077,-0.704,14.29,6.0,3017.0,0.0,0.0,
2025-08-15T01:40:02.112Z,6,GR86-016-55,-32.2,-0.065,-0.68,14.35,6.0,,0.0,0.0,97.92
2025-08-15T01:40:02.155Z,6,GR86-016-55,-32.5,-0.075,-0.713,14.13,6.0,,0.0,0.0,
2025-08-15T01:40:02.198Z,6,GR86-016-55,-32.5,0.022,-0.71,10.95,6.0,,0.0,0.0,
2025-08-15T01:40:02.241Z,6,GR86-016-55,-32.5,0.083,-0.6990000000000001,9.49,6.0,,0.0,0.0,
2025-08-15T01:40:02.285Z,6,GR86-016-55,-32.5,-0.057,-0.749,11.72,6.0,2921.0,0.0,0.0,
2025-08-15T01:40:02.328Z,6,GR86-016-55,-32.2,-0.059,-0.707,11.04,6.0,,0.0,0.0,97.18
2025-08-15T01:40:02.371Z,6,GR86-016-55,-31.4,0.016,-0.746,7.79,6.0,,0.0,0.0,
2025-08-15T01:40:02.414Z,6,GR86-016-55,-30.9,0.002,-0.6920000000000001,7.75,6.0,,0.0,0.0,
2025-08-15T01:40:02.458Z,6,GR86-016-55,-30.8,-0.059,-0.6940000000000001,7.62,6.0,,0.0,0.0,
2025-08-15T01:40:02.501Z,6,GR86-016-55,-30.700000000000003,-0.038,-0.683,7.57,6.0,3015.0,0.0,0.0,
2025-08-15T01:40:02.544Z,6,GR86-016-55,-30.6,-0.023,-0.7000000000000001,7.3,6.0,,0.0,0.0,96.65
2025-08-15T01:40:02.587Z,6,GR86-016-55,-30.4,-0.05,-0.681,7.33,6.0,,0.0,0.0,
2025-08-15T01:40:02.632Z,6,GR86-016-55,-30.0,-0.065,-0.667,7.140000000000001,6.0,,0.0,0.0,
2025-08-15T01:40:02.675Z,6,GR86-016-55,-29.8,-0.078,-0.629,6.88,6.0,,0.0,0.0,
2025-08-15T01:40:02.718Z,6,GR86-016-55,-29.6,-0.162,-0.647,6.93,6.0,2929.0,0.0,0.0,
2025-08-15T01:40:02.761Z,6,GR86-016-55,-29.3,-0.046,-0.633,5.99,6.0,,0.0,0.0,96.53
2025-08-15T01:40:02.804Z,6,GR86-016-55,-29.0,-0.071,-0.645,5.8500000000000005,6.0,,0.0,0.0,
2025-08-15T01:40:02.890Z,6,GR86-016-55,-28.5,-0.063,-0.642,5.83,6.0,,0.0,0.0,
2025-08-15T01:40:02.934Z,6,GR86-016-55,-28.200000000000003,-0.053,-0.619,5.46,6.0,2862.0,0.0,0.0,
2025-08-15T01:40:02.977Z,6,GR86-016-55,-28.1,-0.06,-0.632,5.32,6.0,,0.0,0.0,96.39
2025-08-15T01:40:03.020Z,6,GR86-016-55,-28.1,-0.087,-0.62,5.4,6.0,,0.0,0.0,
2025-08-15T01:40:03.063Z,6,GR86-016-55,-28.0,-0.158,-0.618,5.64,6.0,,0.0,0.0,
2025-08-15T01:40:03.106Z,6,GR86-016-55,-28.0,-0.058,-0.593,5.6000000000000005,6.0,,0.0,0.0,
2025-08-15T01:40:03.148Z,6,GR86-016-55,-27.9,-0.069,-0.578,5.72,6.0,2969.0,0.0,0.0,
2025-08-15T01:40:03.192Z,6,GR86-016-55,-27.8,-0.041,-0.582,6.04,6.0,,0.0,0.0,95.95
2025-08-15T01:40:03.235Z,6,GR86-016-55,-27.700000000000003,-0.1,-0.586,6.98,6.0,,0.0,0.0,
2025-08-15T01:40:03.278Z,6,GR86-016-55,-27.700000000000003,-0.105,-0.595,7.56,6.0,,0.0,0.0,
2025-08-15T01:40:03.321Z,6,GR86-016-55,-27.6,-0.058,-0.5680000000000001,7.85,6.0,,0.0,0.0,
2025-08-15T01:40:03.364Z,6,GR86-016-55,-27.6,-0.065,-0.5720000000000001,9.34,6.0,2801.0,0.0,0.0,
2025-08-15T01:40:03.407Z,6,GR86-016-55,-27.6,-0.083,-0.5720000000000001,11.23,6.0,,0.0,0.0,95.59
2025-08-15T01:40:03.450Z,6,GR86-016-55,-27.4,-0.075,-0.592,12.09,6.0,,0.0,0.0,
2025-08-15T01:40:03.493Z,6,GR86-016-55,-27.3,-0.068,-0.608,12.79,6.0,,0.0,0.0,
2025-08-15T01:40:03.536Z,6,GR86-016-55,-27.1,-0.042,-0.59,13.23,6.0,,0.0,0.0,
2025-08-15T01:40:03.578Z,6,GR86-016-55,-26.9,-0.043,-0.586,13.24,6.0,2829.0,0.0,0.0,
2025-08-15T01:40:03.622Z,6,GR86-016-55,-26.700000000000003,0.048,-0.553,11.02,6.0,,0.0,0.0,95.07
2025-08-15T01:40:03.665Z,6,GR86-016-55,-26.4,0.071,-0.5660000000000001,10.11,6.0,,0.0,0.0,
2025-08-15T01:40:03.708Z,6,GR86-016-55,-26.3,-0.058,-0.548,11.74,6.0,,0.0,0.0,
2025-08-15T01:40:03.751Z,6,GR86-016-55,-26.200000000000003,-0.061,-0.559,10.37,6.0,,0.0,0.0,
2025-08-15T01:40:03.794Z,6,GR86-016-55,-26.0,0.028,-0.548,9.28,6.0,2854.0,0.0,0.0,
2025-08-15T01:40:03.880Z,6,GR86-016-55,-25.9,-0.033,-0.544,9.61,6.0,,0.0,0.0,93.98
2025-08-15T01:40:03.925Z,6,GR86-016-55,-25.8,-0.043,-0.529,9.78,6.0,,0.0,0.0,
2025-08-15T01:40:03.968Z,6,GR86-016-55,-25.3,-0.001,-0.551,9.84,6.0,,0.0,0.0,
2025-08-15T01:40:04.011Z,6,GR86-016-55,-23.5,-0.022,-0.52,11.31,6.0,2984.0,0.0,0.0,
2025-08-15T01:40:04.054Z,6,GR86-016-55,-22.5,-0.037,-0.521,11.41,6.0,,0.0,0.0,93.78
2025-08-15T01:40:04.097Z,6,GR86-016-55,-21.700000000000003,-0.001,-0.486,11.42,6.0,,0.0,0.0,
2025-08-15T01:40:04.140Z,6,GR86-016-55,-21.4,-0.01,-0.498,12.64,6.0,,0.0,0.0,
2025-08-15T01:40:04.186Z,6,GR86-016-55,-21.0,-0.017,-0.473,13.52,6.0,,0.0,0.0,
2025-08-15T01:40:04.228Z,6,GR86-016-55,-21.0,-0.03,-0.473,13.68,6.0,2892.0,0.0,0.0,
2025-08-15T01:40:04.272Z,6,GR86-016-55,-20.9,-0.01,-0.447,14.07,6.0,,0.0,0.0,93.65
2025-08-15T01:40:04.315Z,6,GR86-016-55,-20.8,0.007,-0.419,14.39,6.0,,0.0,0.0,
2025-08-15T01:40:04.358Z,6,GR86-016-55,-20.700000000000003,0.024,-0.433,14.22,6.0,,0.0,0.0,
2025-08-15T01:40:04.401Z,6,GR86-016-55,-20.5,0.027,-0.403,14.19,6.0,,0.0,0.0,
2025-08-15T01:40:04.444Z,6,GR86-016-55,-20.200000000000003,0.011,-0.414,14.13,6.0,2851.0,0.0,0.0,
2025-08-15T01:40:04.487Z,6,GR86-016-55,-19.8,0.023,-0.398,13.91,6.0,,0.0,0.0,93.6
2025-08-15T01:40:04.531Z,6,GR86-016-55,-18.8,0.018,-0.399,12.99,6.0,,0.0,0.0,
2025-08-15T01:40:04.575Z,6,GR86-016-55,-17.400000000000002,0.019,-0.389,12.83,6.0,,0.0,0.0,
2025-08-15T01:40:04.618Z,6,GR86-016-55,-16.0,0.015,-0.364,12.06,6.0,,0.0,0.0,
2025-08-15T01:40:04.662Z,6,GR86-016-55,-14.9,0.011,-0.352,11.21,6.0,2851.0,0.0,0.0,
2025-08-15T01:40:04.705Z,6,GR86-016-55,-14.3,0.018,-0.334,10.41,6.0,,0.0,0.0,93.55
2025-08-15T01:40:04.748Z,6,GR86-016-55,-13.9,0.021,-0.316,8.72,6.0,,0.0,0.0,
2025-08-15T01:40:04.791Z,6,GR86-016-55,-13.5,0.001,-0.277,8.39,6.0,,0.0,0.0,
2025-08-15T01:40:04.835Z,6,GR86-016-55,-13.2,-0.005,-0.276,7.88,6.0,,0.0,0.0,
2025-08-15T01:40:04.878Z,6,GR86-016-55,-12.7,0.005,-0.245,7.77,6.0,2856.0,0.0,0.0,
2025-08-15T01:40:04.921Z,6,GR86-016-55,-12.2,-0.015,-0.251,7.75,6.0,,0.0,0.0,93.62
2025-08-15T01:40:04.964Z,6,GR86-016-55,-11.4,-0.024,-0.235,7.75,6.0,,0.0,0.0,
2025-08-15T01:40:05.007Z,6,GR86-016-55,-10.8,-0.018,-0.245,7.65,6.0,,0.0,0.0,
2025-08-15T01:40:05.050Z,6,GR86-016-55,-10.3,-0.026,-0.223,7.59,6.0,,0.0,0.0,
2025-08-15T01:40:05.093Z,6,GR86-016-55,-10.2,-0.032,-0.208,7.29,6.0,2851.0,0.0,0.0,
2025-08-15T01:40:05.137Z,6,GR86-016-55,-10.2,-0.053,-0.21,6.62,6.0,,0.0,0.0,93.76
2025-08-15T01:40:05.180Z,6,GR86-016-55,-10.0,-0.026,-0.199,5.84,6.0,,0.0,0.0,
2025-08-15T01:40:05.223Z,6,GR86-016-55,-9.8,-0.141,-0.208,3.45,6.0,,0.0,0.0,
2025-08-15T01:40:05.266Z,6,GR86-016-55,-9.4,-0.047,-0.179,2.88,6.0,,0.0,0.0,
2025-08-15T01:40:05.308Z,6,GR86-016-55,-8.9,-0.034,-0.189,2.85,6.0,2853.0,0.0,0.0,
2025-08-15T01:40:05.352Z,6,GR86-016-55,-7.5,-0.044,-0.178,2.78,6.0,,0.0,0.0,93.79
2025-08-15T01:40:05.395Z,6,GR86-016-55,-6.800000000000001,-0.125,-0.158,2.74,6.0,,0.0,0.0,
2025-08-15T01:40:05.438Z,6,GR86-016-55,-5.6000000000000005,-0.064,-0.146,2.69,6.0,,0.0,0.0,
2025-08-15T01:40:05.481Z,6,GR86-016-55,-5.300000000000001,-0.037,-0.12,2.64,6.0,,0.0,0.0,
2025-08-15T01:40:05.524Z,6,GR86-016-55,-4.800000000000001,-0.06,-0.119,2.61,6.0,2787.0,0.0,0.0,
2025-08-15T01:40:05.567Z,6,GR86-016-55,-3.3000000000000003,-0.086,-0.096,2.58,6.0,,0.0,0.0,93.66
2025-08-15T01:40:05.610Z,6,GR86-016-55,-2.0,-0.062,-0.075,2.5500000000000003,6.0,,0.0,0.0,
2025-08-15T01:40:05.653Z,6,GR86-016-55,-1.2000000000000002,-0.059,-0.052,2.54,6.0,,0.0,0.0,
2025-08-15T01:40:05.696Z,6,GR86-016-55,-0.3,-0.078,-0.044,2.52,6.0,,0.0,0.0,
2025-08-15T01:40:05.739Z,6,GR86-016-55,0.6000000000000001,-0.065,-0.006,2.5,6.0,2831.0,0.0,0.0,
2025-08-15T01:40:05.782Z,6,GR86-016-55,1.2000000000000002,-0.065,0.012,2.5,6.0,,0.0,0.0,93.22
2025-08-15T01:40:05.825Z,6,GR86-016-55,2.0,-0.06,0.035,2.49,6.0,,0.0,0.0,
2025-08-15T01:40:05.868Z,6,GR86-016-55,2.9000000000000004,-0.08,0.044,2.49,6.0,,0.0,0.0,
2025-08-15T01:40:05.954Z,6,GR86-016-55,4.7,-0.058,0.095,2.48,6.0,2815.0,0.0,0.0,
2025-08-15T01:40:05.997Z,6,GR86-016-55,4.4,-0.057,0.073,2.47,6.0,,0.0,0.0,92.78
2025-08-15T01:40:06.083Z,6,GR86-016-55,4.800000000000001,-0.06,0.115,2.46,6.0,,0.0,0.0,
2025-08-15T01:40:06.126Z,6,GR86-016-55,4.800000000000001,-0.06,0.129,2.46,6.0,,0.0,0.0,
2025-08-15T01:40:06.169Z,6,GR86-016-55,4.800000000000001,-0.069,0.112,2.47,6.0,2785.0,0.0,0.0,
2025-08-15T01:40:06.212Z,6,GR86-016-55,4.800000000000001,-0.065,0.119,2.46,6.0,,0.0,0.0,92.32
2025-08-15T01:40:06.255Z,6,GR86-016-55,4.800000000000001,-0.07,0.114,2.46,6.0,,0.0,0.0,
2025-08-15T01:40:06.298Z,6,GR86-016-55,4.800000000000001,-0.062,0.108,2.46,6.0,,0.0,0.0,
2025-08-15T01:40:06.341Z,6,GR86-016-55,4.7,-0.07,0.119,2.46,6.0,,0.0,0.0,
2025-08-15T01:40:06.387Z,6,GR86-016-55,4.6000000000000005,-0.069,0.109,2.46,6.0,2782.0,0.0,0.0,
2025-08-15T01:40:06.432Z,6,GR86-016-55,4.6000000000000005,-0.061,0.125,2.46,6.0,,0.0,0.0,91.47
2025-08-15T01:40:06.475Z,6,GR86-016-55,4.6000000000000005,-0.058,0.092,2.46,6.0,,0.0,0.0,
2025-08-15T01:40:06.518Z,6,GR86-016-55,4.6000000000000005,-0.066,0.122,2.46,6.0,,0.0,0.0,
2025-08-15T01:40:06.561Z,6,GR86-016-55,4.5,-0.066,0.079,2.46,6.0,,0.0,0.0,
2025-08-15T01:40:06.604Z,6,GR86-016-55,4.5,-0.058,0.102,2.46,6.0,2771.0,0.0,0.0,
2025-08-15T01:40:06.647Z,6,GR86-016-55,4.4,-0.062,0.077,2.46,6.0,,0.0,0.0,91.05
2025-08-15T01:40:06.690Z,6,GR86-016-55,4.4,-0.063,0.088,2.82,6.0,,0.0,0.0,
2025-08-15T01:40:06.736Z,6,GR86-016-55,4.2,-0.072,0.064,3.3200000000000003,6.0,,0.0,0.0,
2025-08-15T01:40:06.778Z,6,GR86-016-55,4.2,-0.064,0.065,3.65,6.0,,0.0,0.0,
2025-08-15T01:40:06.822Z,6,GR86-016-55,4.1000000000000005,-0.071,0.058,3.99,6.0,2753.0,0.0,0.0,
2025-08-15T01:40:06.865Z,6,GR86-016-55,4.1000000000000005,-0.061,0.059,4.28,6.0,,0.0,0.0,90.65
2025-08-15T01:40:06.908Z,6,GR86-016-55,4.0,-0.07,0.047,4.5200000000000005,6.0,,0.0,0.0,
2025-08-15T01:40:06.952Z,6,GR86-016-55,3.8,-0.035,0.032,4.6000000000000005,6.0,,0.0,0.0,
2025-08-15T01:40:06.995Z,6,GR86-016-55,3.6,-0.035,0.033,4.62,6.0,,0.0,0.0,
2025-08-15T01:40:07.038Z,6,GR86-016-55,3.4000000000000004,-0.047,0.035,4.63,6.0,2732.0,0.0,0.0,
2025-08-15T01:40:07.081Z,6,GR86-016-55,3.3000000000000003,-0.067,0.026,4.62,6.0,,0.0,0.0,90.3
2025-08-15T01:40:07.124Z,6,GR86-016-55,3.3000000000000003,-0.049,0.031,4.63,6.0,,0.0,0.0,
2025-08-15T01:40:07.167Z,6,GR86-016-55,3.3000000000000003,-0.051,0.039,4.6000000000000005,6.0,,0.0,0.0,
2025-08-15T01:40:07.210Z,6,GR86-016-55,3.2,-0.065,0.022,4.6000000000000005,6.0,,0.0,0.0,
2025-08-15T01:40:07.253Z,6,GR86-016-55,3.2,-0.051,0.017,4.55,6.0,2719.0,0.0,0.0,
2025-08-15T01:40:07.296Z,6,GR86-016-55,3.1,-0.058,0.014,4.5200000000000005,6.0,,0.0,0.0,89.96000000000001
2025-08-15T01:40:07.338Z,6,GR86-016-55,2.9000000000000004,-0.056,0.018,4.5200000000000005,6.0,,0.0,0.0,
2025-08-15T01:40:07.382Z,6,GR86-016-55,2.7,-0.063,-0.005,4.5200000000000005,6.0,,0.0,0.0,
2025-08-15T01:40:07.425Z,6,GR86-016-55,2.7,-0.045,0.005,4.5200000000000005,6.0,,0.0,0.0,
2025-08-15T01:40:07.468Z,6,GR86-016-55,2.5,-0.054,-0.012,4.53,6.0,2718.0,0.0,0.0,
2025-08-15T01:40:07.512Z,6,GR86-016-55,2.5,-0.059,-0.004,4.55,6.0,,0.0,0.0,89.7
2025-08-15T01:40:07.555Z,6,GR86-016-55,2.3000000000000003,-0.057,0.012,4.57,6.0,,0.0,0.0,
2025-08-15T01:40:07.598Z,6,GR86-016-55,2.3000000000000003,-0.069,0.008,4.62,6.0,,0.0,0.0,
2025-08-15T01:40:07.641Z,6,GR86-016-55,2.3000000000000003,-0.072,0.007,4.67,6.0,,0.0,0.0,
2025-08-15T01:40:07.685Z,6,GR86-016-55,2.3000000000000003,-0.051,-0.001,4.69,6.0,2717.0,0.0,0.0,
2025-08-15T01:40:07.728Z,6,GR86-016-55,2.3000000000000003,-0.062,0.004,4.76,6.0,,0.0,0.0,89.44
2025-08-15T01:40:07.771Z,6,GR86-016-55,2.3000000000000003,-0.061,-0.01,4.89,6.0,,0.0,0.0,
2025-08-15T01:40:07.814Z,6,GR86-016-55,2.3000000000000003,-0.057,0.02,4.92,6.0,,0.0,0.0,
2025-08-15T01:40:07.858Z,6,GR86-016-55,2.3000000000000003,-0.054,-0.008,4.97,6.0,,0.0,0.0,
2025-08-15T01:40:07.901Z,6,GR86-016-55,2.3000000000000003,-0.042,0.024,4.99,6.0,2699.0,0.0,0.0,
2025-08-15T01:40:07.944Z,6,GR86-016-55,2.3000000000000003,-0.065,-0.004,5.0200000000000005,6.0,,0.0,0.0,89.19
2025-08-15T01:40:07.987Z,6,GR86-016-55,2.3000000000000003,-0.068,0.013,5.22,6.0,,0.0,0.0,
2025-08-15T01:40:08.032Z,6,GR86-016-55,2.3000000000000003,-0.05,-0.013,5.44,6.0,,0.0,0.0,
2025-08-15T01:40:08.075Z,6,GR86-016-55,2.3000000000000003,-0.049,0.015,5.46,6.0,,0.0,0.0,
2025-08-15T01:40:08.118Z,6,GR86-016-55,2.3000000000000003,-0.059,-0.012,5.5,6.0,2700.0,0.0,0.0,
2025-08-15T01:40:08.161Z,6,GR86-016-55,2.2,-0.06,0.02,5.54,6.0,,0.0,0.0,88.96000000000001
2025-08-15T01:40:08.204Z,6,GR86-016-55,2.2,-0.058,-0.007,5.6000000000000005,6.0,,0.0,0.0,
2025-08-15T01:40:08.247Z,6,GR86-016-55,2.2,-0.052,0.01,5.66,6.0,,0.0,0.0,
2025-08-15T01:40:08.290Z,6,GR86-016-55,2.2,-0.07,0.009,5.79,6.0,,0.0,0.0,
2025-08-15T01:40:08.334Z,6,GR86-016-55,2.2,-0.056,-0.011,5.88,6.0,2698.0,0.0,0.0,
2025-08-15T01:40:08.420Z,6,GR86-016-55,2.2,-0.055,-0.005,6.25,6.0,,0.0,0.0,88.74
2025-08-15T01:40:08.463Z,6,GR86-016-55,2.2,-0.062,-0.002,6.82,6.0,,0.0,0.0,
2025-08-15T01:40:08.506Z,6,GR86-016-55,2.2,-0.054,-0.002,7.07,6.0,,0.0,0.0,
2025-08-15T01:40:08.548Z,6,GR86-016-55,2.2,-0.062,-0.012,7.46,6.0,2691.0,0.0,0.0,
2025-08-15T01:40:08.592Z,6,GR86-016-55,2.2,-0.053,-0.012,7.62,6.0,,0.0,0.0,88.54
2025-08-15T01:40:08.635Z,6,GR86-016-55,2.2,-0.055,0.013,7.91,6.0,,0.0,0.0,
2025-08-15T01:40:08.678Z,6,GR86-016-55,2.2,-0.061,-0.004,7.98,6.0,,0.0,0.0,
2025-08-15T01:40:08.721Z,6,GR86-016-55,2.2,-0.061,0.006,8.36,6.0,,0.0,0.0,
2025-08-15T01:40:08.764Z,6,GR86-016-55,2.2,-0.056,-0.009,8.65,6.0,2678.0,0.0,0.0,
2025-08-15T01:40:08.807Z,6,GR86-016-55,2.2,-0.059,-0.002,9.58,6.0,,0.0,0.0,88.37
2025-08-15T01:40:08.850Z,6,GR86-016-55,2.2,-0.051,-0.024,10.39,6.0,,0.0,0.0,
2025-08-15T01:40:08.893Z,6,GR86-016-55,2.2,-0.045,0.009,10.72,6.0,,0.0,0.0,
2025-08-15T01:40:08.936Z,6,GR86-016-55,2.1,-0.028,-0.024,10.8,6.0,,0.0,0.0,
2025-08-15T01:40:08.979Z,6,GR86-016-55,2.1,-0.023,0.012,11.13,6.0,2671.0,0.0,0.0,
2025-08-15T01:40:09.022Z,6,GR86-016-55,2.1,0.112,-0.006,11.12,6.0,,0.0,0.0,88.18
2025-08-15T01:40:09.065Z,6,GR86-016-55,2.1,-0.013,-0.001,12.01,6.0,,0.0,0.0,
2025-08-15T01:40:09.108Z,6,GR86-016-55,2.1,-0.033,0.002,13.46,6.0,,0.0,0.0,
2025-08-15T01:40:09.151Z,6,GR86-016-55,2.1,-0.042,0.004,13.58,6.0,,0.0,0.0,
2025-08-15T01:40:09.195Z,6,GR86-016-55,2.1,-0.046,0.003,13.62,6.0,2672.0,0.0,0.0,
2025-08-15T01:40:09.238Z,6,GR86-016-55,2.1,-0.004,0.012,13.45,6.0,,0.0,0.0,87.97
2025-08-15T01:40:09.282Z,6,GR86-016-55,2.1,0.138,-0.022,13.06,6.0,,0.0,0.0,
2025-08-15T01:40:09.325Z,6,GR86-016-55,2.1,0.016,0.018,13.19,6.0,,0.0,0.0,
2025-08-15T01:40:09.368Z,6,GR86-016-55,2.1,-0.041,-0.011,13.28,6.0,,0.0,0.0,
2025-08-15T01:40:09.411Z,6,GR86-016-55,2.1,0.061,0.011,13.01,6.0,2757.0,0.0,0.0,
2025-08-15T01:40:09.454Z,6,GR86-016-55,2.1,0.048,0.009,12.99,6.0,,0.0,0.0,88.25
2025-08-15T01:40:09.497Z,6,GR86-016-55,2.1,-0.017,0.009,12.97,6.0,,0.0,0.0,
2025-08-15T01:40:09.540Z,6,GR86-016-55,2.1,0.003,0.006,12.94,6.0,,0.0,0.0,
2025-08-15T01:40:09.586Z,6,GR86-016-55,2.1,0.051,0.023,12.9,6.0,,0.0,0.0,
2025-08-15T01:40:09.628Z,6,GR86-016-55,2.1,0.026,0.021,12.86,6.0,2752.0,0.0,0.0,
2025-08-15T01:40:09.672Z,6,GR86-016-55,2.1,0.006,0.01,12.93,6.0,,0.0,0.0,88.63
2025-08-15T01:40:09.715Z,6,GR86-016-55,2.1,0.044,0.035,12.93,6.0,,0.0,0.0,
2025-08-15T01:40:09.758Z,6,GR86-016-55,2.1,0.042,0.026,12.9,6.0,,0.0,0.0,
2025-08-15T01:40:09.801Z,6,GR86-016-55,2.1,0.016,0.054,12.9,6.0,,0.0,0.0,
2025-08-15T01:40:09.844Z,6,GR86-016-55,2.1,0.015,0.018,12.92,6.0,2710.0,0.0,0.0,
2025-08-15T01:40:09.931Z,6,GR86-016-55,2.1,0.04,0.038,12.91,6.0,,0.0,0.0,89.17
2025-08-15T01:40:09.975Z,6,GR86-016-55,2.1,0.016,0.023,12.87,6.0,,0.0,0.0,
2025-08-15T01:40:10.018Z,6,GR86-016-55,2.1,0.02,0.015,12.87,6.0,,0.0,0.0,
2025-08-15T01:40:10.061Z,6,GR86-016-55,2.1,0.026,0.027,12.87,6.0,2741.0,0.0,0.0,
2025-08-15T01:40:10.104Z,6,GR86-016-55,2.1,0.019,0.016,12.86,6.0,,0.0,0.0,89.79
2025-08-15T01:40:10.147Z,6,GR86-016-55,2.1,0.018,0.026,12.84,6.0,,0.0,0.0,
2025-08-15T01:40:10.190Z,6,GR86-016-55,2.1,0.03,0.036,12.84,6.0,,0.0,0.0,
2025-08-15T01:40:10.233Z,6,GR86-016-55,2.1,0.023,0.022,12.84,6.0,,0.0,0.0,
2025-08-15T01:40:10.276Z,6,GR86-016-55,2.2,0.023,0.038,12.84,6.0,2773.0,0.0,0.0,
2025-08-15T01:40:10.318Z,6,GR86-016-55,2.1,0.023,0.012,12.84,6.0,,0.0,0.0,90.4
2025-08-15T01:40:10.362Z,6,GR86-016-55,2.1,0.028,0.045,12.83,6.0,,0.0,0.0,
2025-08-15T01:40:10.405Z,6,GR86-016-55,2.1,0.019,0.015,12.86,6.0,,0.0,0.0,
2025-08-15T01:40:10.448Z,6,GR86-016-55,2.1,0.022,0.034,12.88,6.0,,0.0,0.0,
2025-08-15T01:40:10.491Z,6,GR86-016-55,2.1,0.017,0.014,12.87,6.0,2786.0,0.0,0.0,
2025-08-15T01:40:10.535Z,6,GR86-016-55,2.1,0.021,0.028,12.87,6.0,,0.0,0.0,90.99
2025-08-15T01:40:10.578Z,6,GR86-016-55,2.1,0.016,0.012,12.9,6.0,,0.0,0.0,
2025-08-15T01:40:10.621Z,6,GR86-016-55,2.2,0.026,0.016,12.9,6.0,,0.0,0.0,
2025-08-15T01:40:10.664Z,6,GR86-016-55,2.1,0.022,0.015,12.9,6.0,,0.0,0.0,
2025-08-15T01:40:10.707Z,6,GR86-016-55,2.1,0.02,0.027,12.92,6.0,2800.0,0.0,0.0,
2025-08-15T01:40:10.750Z,6,GR86-016-55,2.1,0.022,0.047,12.94,6.0,,0.0,0.0,91.62
2025-08-15T01:40:10.793Z,6,GR86-016-55,2.1,0.024,0.015,12.94,6.0,,0.0,0.0,
2025-08-15T01:40:10.837Z,6,GR86-016-55,2.1,0.024,0.03,12.92,6.0,,0.0,0.0,
2025-08-15T01:40:10.880Z,6,GR86-016-55,2.0,0.023,-0.007,12.93,6.0,,0.0,0.0,
2025-08-15T01:40:10.923Z,6,GR86-016-55,1.9,0.02,0.015,12.93,6.0,2823.0,0.0,0.0,
2025-08-15T01:40:10.966Z,6,GR86-016-55,1.7000000000000002,0.012,-0.019,12.99,6.0,,0.0,0.0,92.22
2025-08-15T01:40:11.008Z,6,GR86-016-55,1.5,0.024,0.002,12.99,6.0,,0.0,0.0,
2025-08-15T01:40:11.052Z,6,GR86-016-55,1.5,0.021,-0.009,13.0,6.0,,0.0,0.0,
2025-08-15T01:40:11.095Z,6,GR86-016-55,1.5,0.018,-0.017,13.0,6.0,,0.0,0.0,
2025-08-15T01:40:11.138Z,6,GR86-016-55,1.4,0.013,-0.014,13.0,6.0,2840.0,0.0,0.0,
2025-08-15T01:40:11.181Z,6,GR86-016-55,1.4,0.018,-0.019,13.0,6.0,,0.0,0.0,92.8
2025-08-15T01:40:11.224Z,6,GR86-016-55,1.3,0.022,-0.011,13.01,6.0,,0.0,0.0,
2025-08-15T01:40:11.267Z,6,GR86-016-55,1.4,0.022,-0.025,13.04,6.0,,0.0,0.0,
2025-08-15T01:40:11.310Z,6,GR86-016-55,1.3,0.017,-0.019,13.06,6.0,,0.0,0.0,
2025-08-15T01:40:11.353Z,6,GR86-016-55,1.1,0.014,-0.031,13.05,6.0,2860.0,0.0,0.0,
2025-08-15T01:40:11.396Z,6,GR86-016-55,0.9,0.014,-0.027,13.08,6.0,,0.0,0.0,93.49
2025-08-15T01:40:11.440Z,6,GR86-016-55,0.6000000000000001,0.016,-0.033,13.08,6.0,,0.0,0.0,
2025-08-15T01:40:11.483Z,6,GR86-016-55,0.2,0.016,-0.036,13.04,6.0,,0.0,0.0,
2025-08-15T01:40:11.526Z,6,GR86-016-55,-0.3,0.015,-0.042,13.06,6.0,,0.0,0.0,
2025-08-15T01:40:11.568Z,6,GR86-016-55,-0.6000000000000001,0.015,-0.048,12.97,6.0,2881.0,0.0,0.0,
2025-08-15T01:40:11.612Z,6,GR86-016-55,-1.0,0.021,-0.041,12.73,6.0,,0.0,0.0,94.13
2025-08-15T01:40:11.655Z,6,GR86-016-55,-1.2000000000000002,0.008,-0.06,12.38,6.0,,0.0,0.0,
2025-08-15T01:40:11.698Z,6,GR86-016-55,-1.6,0.017,-0.061,11.82,6.0,,0.0,0.0,
2025-08-15T01:40:11.741Z,6,GR86-016-55,-1.8,0.005,-0.078,11.54,6.0,,0.0,0.0,
2025-08-15T01:40:11.785Z,6,GR86-016-55,-1.9,0.016,-0.083,11.31,6.0,2896.0,0.0,0.0,
2025-08-15T01:40:11.871Z,6,GR86-016-55,-1.9,-0.005,-0.094,11.19,6.0,,0.0,0.0,94.7
2025-08-15T01:40:11.914Z,6,GR86-016-55,-1.9,0.009,-0.077,10.84,6.0,,0.0,0.0,
2025-08-15T01:40:11.958Z,6,GR86-016-55,-1.9,-0.009,-0.088,10.8,6.0,,0.0,0.0,
2025-08-15T01:40:12.001Z,6,GR86-016-55,-1.9,-0.006,-0.074,10.8,6.0,2913.0,0.0,0.0,
2025-08-15T01:40:12.044Z,6,GR86-016-55,-1.9,-0.007,-0.075,10.83,6.0,,0.0,0.0,95.97
2025-08-15T01:40:12.087Z,6,GR86-016-55,-1.9,-0.002,-0.044,10.84,6.0,,0.0,0.0,
2025-08-15T01:40:12.132Z,6,GR86-016-55,-1.4,-0.007,-0.022,10.83,6.0,,0.0,0.0,
2025-08-15T01:40:12.176Z,6,GR86-016-55,-0.7000000000000001,-0.007,-0.028,10.84,6.0,,0.0,0.0,
2025-08-15T01:40:12.218Z,6,GR86-016-55,-0.4,0.001,0.005,10.67,6.0,2924.0,0.0,0.0,
2025-08-15T01:40:12.262Z,6,GR86-016-55,-0.4,-0.007,-0.009,10.51,6.0,,0.0,0.0,96.5
2025-08-15T01:40:12.305Z,6,GR86-016-55,-0.4,-0.006,0.015,9.96,6.0,,0.0,0.0,
2025-08-15T01:40:12.348Z,6,GR86-016-55,-0.4,-0.019,-0.001,9.65,6.0,,0.0,0.0,
2025-08-15T01:40:12.392Z,6,GR86-016-55,-0.4,-0.01,-0.008,8.85,6.0,,0.0,0.0,
2025-08-15T01:40:12.435Z,6,GR86-016-55,-0.4,-0.009,0.004,8.24,6.0,2956.0,0.0,0.0,
2025-08-15T01:40:12.478Z,6,GR86-016-55,-0.4,-0.023,-0.023,7.9,6.0,,0.0,0.0,96.95
2025-08-15T01:40:12.521Z,6,GR86-016-55,-0.4,-0.015,-0.008,7.81,6.0,,0.0,0.0,
2025-08-15T01:40:12.607Z,6,GR86-016-55,-0.4,-0.033,-0.024,7.6,6.0,,0.0,0.0,
2025-08-15T01:40:12.650Z,6,GR86-016-55,-0.4,-0.042,-0.023,6.8,6.0,2965.0,0.0,0.0,
2025-08-15T01:40:12.737Z,6,GR86-016-55,-0.4,-0.133,-0.016,4.3100000000000005,6.0,,0.0,0.0,97.35
2025-08-15T01:40:12.780Z,6,GR86-016-55,-0.4,-0.012,-0.034,2.91,6.0,,0.0,0.0,
2025-08-15T01:40:12.823Z,6,GR86-016-55,-0.4,-0.046,-0.021,2.88,6.0,,0.0,0.0,
2025-08-15T01:40:12.866Z,6,GR86-016-55,-0.4,-0.059,-0.025,2.88,6.0,2914.0,0.0,0.0,
2025-08-15T01:40:12.908Z,6,GR86-016-55,-0.4,-0.044,-0.033,2.85,6.0,,0.0,0.0,97.66
2025-08-15T01:40:12.995Z,6,GR86-016-55,-0.4,-0.141,0.005,2.81,6.0,,0.0,0.0,
2025-08-15T01:40:13.038Z,6,GR86-016-55,-0.4,-0.05,0.015,2.74,6.0,,0.0,0.0,
2025-08-15T01:40:13.081Z,6,GR86-016-55,-0.4,-0.072,-0.022,2.69,6.0,3001.0,0.0,0.0,
2025-08-15T01:40:13.124Z,6,GR86-016-55,-0.4,-0.119,0.003,2.65,6.0,,0.0,0.0,97.75
2025-08-15T01:40:13.338Z,6,GR86-016-55,-0.5,-0.093,-0.03,2.52,6.0,2991.0,0.0,0.0,97.67
2025-08-15T01:40:13.382Z,6,GR86-016-55,-0.6000000000000001,-0.076,-0.03,2.49,6.0,,0.0,0.0,
2025-08-15T01:40:13.425Z,6,GR86-016-55,-0.7000000000000001,-0.081,-0.023,2.49,6.0,,0.0,0.0,
2025-08-15T01:40:13.468Z,6,GR86-016-55,-0.8,-0.086,-0.045,2.49,6.0,,0.0,0.0,
2025-08-15T01:40:13.511Z,6,GR86-016-55,-1.0,-0.072,-0.046,2.48,6.0,2939.0,0.0,0.0,
2025-08-15T01:40:13.554Z,6,GR86-016-55,-1.0,-0.074,-0.028,2.46,6.0,,0.0,0.0,97.56
2025-08-15T01:40:13.597Z,6,GR86-016-55,-1.2000000000000002,-0.076,-0.058,2.46,6.0,,0.0,0.0,
2025-08-15T01:40:13.812Z,6,GR86-016-55,-2.0,-0.094,-0.075,2.46,6.0,2945.0,0.0,0.0,97.46
2025-08-15T01:40:13.855Z,6,GR86-016-55,-2.0,-0.075,-0.062,2.46,6.0,,0.0,0.0,
2025-08-15T01:40:13.898Z,6,GR86-016-55,-2.0,-0.081,-0.075,2.46,6.0,,0.0,0.0,
2025-08-15T01:40:13.941Z,6,GR86-016-55,-2.0,-0.074,-0.065,2.46,6.0,2953.0,0.0,0.0,
2025-08-15T01:40:13.986Z,6,GR86-016-55,-2.0,-0.075,-0.075,2.46,6.0,,0.0,0.0,97.32
2025-08-15T01:40:14.072Z,6,GR86-016-55,-2.0,-0.074,-0.058,2.46,6.0,,0.0,0.0,
2025-08-15T01:40:14.115Z,6,GR86-016-55,-2.0,-0.073,-0.07,2.45,6.0,,0.0,0.0,
2025-08-15T01:40:14.158Z,6,GR86-016-55,-2.0,-0.074,-0.048,2.46,6.0,2947.0,0.0,0.0,
2025-08-15T01:40:14.201Z,6,GR86-016-55,-2.0,-0.081,-0.069,2.45,6.0,,0.0,0.0,97.19
2025-08-15T01:40:14.244Z,6,GR86-016-55,-2.0,-0.075,-0.05,2.45,6.0,,0.0,0.0,
2025-08-15T01:40:14.287Z,6,GR86-016-55,-2.0,-0.074,-0.076,2.46,6.0,,0.0,0.0,
2025-08-15T01:40:14.332Z,6,GR86-016-55,-2.0,-0.079,-0.055,2.45,6.0,,0.0,0.0,
2025-08-15T01:40:14.375Z,6,GR86-016-55,-2.0,-0.081,-0.058,2.46,6.0,2934.0,0.0,0.0,
2025-08-15T01:40:14.418Z,6,GR86-016-55,-2.0,-0.066,-0.064,2.46,6.0,,0.0,0.0,97.01
2025-08-15T01:40:14.461Z,6,GR86-016-55,-2.0,-0.075,-0.054,2.45,6.0,,0.0,0.0,
2025-08-15T01:40:14.504Z,6,GR86-016-55,-2.0,-0.075,-0.067,2.45,6.0,,0.0,0.0,
2025-08-15T01:40:14.547Z,6,GR86-016-55,-2.0,-0.073,-0.05,2.46,6.0,,0.0,0.0,
2025-08-15T01:40:14.590Z,6,GR86-016-55,-2.0,-0.075,-0.071,2.46,6.0,2936.0,0.0,0.0,
2025-08-15T01:40:14.634Z,6,GR86-016-55,-2.0,-0.078,-0.068,2.45,6.0,,0.0,0.0,96.72
2025-08-15T01:40:14.677Z,6,GR86-016-55,-2.0,-0.076,-0.076,2.46,6.0,,0.0,0.0,
2025-08-15T01:40:14.720Z,6,GR86-016-55,-2.0,-0.073,-0.073,2.46,6.0,,0.0,0.0,
2025-08-15T01:40:14.763Z,6,GR86-016-55,-2.0,-0.069,-0.059,2.45,6.0,,0.0,0.0,
2025-08-15T01:40:14.806Z,6,GR86-016-55,-2.0,-0.077,-0.063,2.46,6.0,2936.0,0.0,0.0,
2025-08-15T01:40:14.848Z,6,GR86-016-55,-2.0,-0.063,-0.057,2.45,6.0,,0.0,0.0,96.52
2025-08-15T01:40:15.064Z,6,GR86-016-55,-2.0,-0.071,-0.043,2.46,6.0,2925.0,0.0,0.0,96.32
2025-08-15T01:40:15.107Z,6,GR86-016-55,-2.0,-0.077,-0.026,2.47,6.0,,0.0,0.0,
2025-08-15T01:40:15.150Z,6,GR86-016-55,-2.0,-0.077,0.0,2.46,6.0,,0.0,0.0,
2025-08-15T01:40:15.194Z,6,GR86-016-55,-2.0,-0.072,-0.032,2.46,6.0,,0.0,0.0,
2025-08-15T01:40:15.237Z,6,GR86-016-55,-2.0,-0.065,-0.007,2.48,6.0,2911.0,0.0,0.0,
2025-08-15T01:40:15.280Z,6,GR86-016-55,-2.0,-0.085,-0.017,2.45,6.0,,0.0,0.0,96.13
2025-08-15T01:40:15.325Z,6,GR86-016-55,-2.0,-0.074,-0.008,2.47,6.0,,0.0,0.0,
2025-08-15T01:40:15.368Z,6,GR86-016-55,-2.0,-0.08,-0.007,2.46,6.0,,0.0,0.0,
2025-08-15T01:40:15.412Z,6,GR86-016-55,-2.0,-0.084,-0.03,2.48,6.0,,0.0,0.0,
2025-08-15T01:40:15.455Z,6,GR86-016-55,-2.0,-0.079,0.005,2.48,6.0,2911.0,0.0,0.0,
2025-08-15T01:40:15.498Z,6,GR86-016-55,-2.0,-0.089,-0.035,2.46,6.0,,0.0,0.0,95.94
2025-08-15T01:40:15.542Z,6,GR86-016-55,-2.0,-0.079,-0.008,2.47,6.0,,0.0,0.0,
2025-08-15T01:40:15.586Z,6,GR86-016-55,-2.0,-0.077,-0.033,2.47,6.0,,0.0,0.0,
2025-08-15T01:40:15.628Z,6,GR86-016-55,-2.0,-0.072,-0.016,2.46,6.0,,0.0,0.0,
2025-08-15T01:40:15.672Z,6,GR86-016-55,-2.0,-0.088,-0.008,2.47,6.0,2901.0,4.565,4.595,
2025-08-15T01:40:15.715Z,6,GR86-016-55,-2.0,-0.121,-0.038,2.48,6.0,,6.09,6.21,95.78
2025-08-15T01:40:15.758Z,6,GR86-016-55,-1.9,-0.147,0.001,2.46,6.0,,7.265000000000001,7.4,
2025-08-15T01:40:15.801Z,6,GR86-016-55,-1.9,-0.161,-0.037,2.48,6.0,,7.585,7.525,
2025-08-15T01:40:15.844Z,6,GR86-016-55,-1.8,-0.177,-0.006,2.48,6.0,,8.21,8.425,
2025-08-15T01:40:15.887Z,6,GR86-016-55,-1.8,-0.19,-0.043,2.48,6.0,2893.0,8.94,9.065,
2025-08-15T01:40:15.931Z,6,GR86-016-55,-1.7000000000000002,-0.211,-0.026,2.49,6.0,,10.835,10.985,95.61
2025-08-15T01:40:15.975Z,6,GR86-016-55,-1.7000000000000002,-0.24,-0.053,2.47,6.0,,12.59,12.74,
2025-08-15T01:40:16.018Z,6,GR86-016-55,-1.5,-0.255,-0.044,2.49,6.0,,14.33,14.24,
2025-08-15T01:40:16.061Z,6,GR86-016-55,-1.4,-0.282,-0.06,2.49,6.0,,15.565,15.78,
2025-08-15T01:40:16.104Z,6,GR86-016-55,-0.9,-0.285,-0.05,2.49,6.0,2880.0,15.72,15.78,
2025-08-15T01:40:16.147Z,6,GR86-016-55,-0.7000000000000001,-0.302,-0.038,35.03,6.0,,15.72,16.115000000000002,95.26
2025-08-15T01:40:16.190Z,6,GR86-016-55,-0.7000000000000001,-0.301,-0.048,64.14,6.0,,15.43,15.87,
2025-08-15T01:40:16.233Z,6,GR86-016-55,-0.6000000000000001,-0.303,-0.017,38.24,6.0,,15.365,15.78,
2025-08-15T01:40:16.277Z,6,GR86-016-55,-0.4,-0.274,-0.054,9.26,6.0,,15.43,15.655,
2025-08-15T01:40:16.320Z,6,GR86-016-55,-0.1,-0.272,-0.039,4.15,5.0,2842.0,15.365,15.655,
2025-08-15T01:40:16.363Z,6,GR86-016-55,0.0,-0.287,-0.005,3.97,5.0,,15.275,15.505,94.28
2025-08-15T01:40:16.406Z,6,GR86-016-55,0.4,-0.282,-0.036,3.52,5.0,,15.335,15.475,
2025-08-15T01:40:16.449Z,6,GR86-016-55,0.5,-0.294,-0.035,3.1,5.0,,15.03,15.475,
2025-08-15T01:40:16.492Z,6,GR86-016-55,0.8,-0.324,-0.01,2.94,5.0,,14.85,15.09,
2025-08-15T01:40:16.535Z,6,GR86-016-55,0.8,-0.352,0.0,2.88,5.0,2790.0,15.06,15.685,
2025-08-15T01:40:16.578Z,6,GR86-016-55,0.8,-0.268,0.014,2.83,5.0,,14.85,15.09,92.7
2025-08-15T01:40:16.621Z,6,GR86-016-55,0.8,-0.278,-0.007,2.78,5.0,,15.03,15.595,
2025-08-15T01:40:16.664Z,6,GR86-016-55,0.8,-0.278,-0.004,2.76,5.0,,14.94,15.215,
2025-08-15T01:40:16.707Z,6,GR86-016-55,0.8,-0.341,0.004,15.85,5.0,,15.06,15.685,
2025-08-15T01:40:16.750Z,6,GR86-016-55,0.8,-0.289,-0.016,82.77,5.0,3028.0,14.94,15.09,
2025-08-15T01:40:16.793Z,6,GR86-016-55,0.8,-0.291,0.017,80.5,4.0,,15.03,15.505,91.07
2025-08-15T01:40:16.837Z,6,GR86-016-55,0.8,-0.293,-0.029,15.87,4.0,,14.725,15.09,
2025-08-15T01:40:16.880Z,6,GR86-016-55,0.8,-0.589,-0.001,3.39,4.0,,15.03,15.535,
2025-08-15T01:40:16.923Z,6,GR86-016-55,0.8,-0.322,0.021,2.98,4.0,,14.785,15.09,
2025-08-15T01:40:16.966Z,6,GR86-016-55,0.8,-0.247,-0.012,2.88,4.0,2983.0,13.915,14.815,
2025-08-15T01:40:17.008Z,6,GR86-016-55,0.8,-0.213,-0.02,2.84,4.0,,11.705,12.65,89.2
2025-08-15T01:40:17.052Z,6,GR86-016-55,0.8,-0.202,-0.017,2.75,4.0,,6.21,7.17,
2025-08-15T01:40:17.095Z,6,GR86-016-55,0.8,-0.105,-0.04,2.72,4.0,,0.0,1.955,
2025-08-15T01:40:17.138Z,6,GR86-016-55,0.8,-0.113,0.025,2.66,4.0,,0.0,0.0,
2025-08-15T01:40:17.181Z,6,GR86-016-55,0.8,-0.233,-0.02,2.62,4.0,2931.0,0.0,0.0,
2025-08-15T01:40:17.224Z,6,GR86-016-55,0.3,-0.078,0.026,2.6,4.0,,0.0,0.0,87.34
2025-08-15T01:40:17.267Z,6,GR86-016-55,-0.7000000000000001,-0.03,-0.01,2.56,4.0,,0.0,0.0,
2025-08-15T01:40:17.310Z,6,GR86-016-55,-2.3000000000000003,-0.043,0.001,2.5500000000000003,4.0,,0.0,0.0,
2025-08-15T01:40:17.353Z,6,GR86-016-55,-4.1000000000000005,-0.042,-0.052,2.53,4.0,,0.0,0.0,
2025-08-15T01:40:17.396Z,6,GR86-016-55,-5.9,-0.157,-0.046,2.52,4.0,3314.0,0.0,0.0,
2025-08-15T01:40:17.439Z,6,GR86-016-55,-7.7,-0.139,-0.09,2.49,4.0,,0.0,0.0,84.3
2025-08-15T01:40:17.482Z,6,GR86-016-55,-9.2,-0.053,-0.105,2.48,4.0,,0.0,0.0,
2025-08-15T01:40:17.525Z,6,GR86-016-55,-10.6,-0.047,-0.147,2.48,4.0,,0.0,0.0,
2025-08-15T01:40:17.568Z,6,GR86-016-55,-12.3,-0.079,-0.172,2.47,4.0,,0.0,0.0,
2025-08-15T01:40:17.611Z,6,GR86-016-55,-15.1,-0.123,-0.245,2.46,4.0,3350.0,0.0,0.0,
2025-08-15T01:40:17.654Z,6,GR86-016-55,-16.8,-0.079,-0.247,2.46,4.0,,0.0,0.0,83.88
2025-08-15T01:40:17.697Z,6,GR86-016-55,-18.4,-0.065,-0.291,2.45,4.0,,0.0,0.0,
2025-08-15T01:40:17.740Z,6,GR86-016-55,-19.8,-0.088,-0.316,2.46,4.0,,0.0,0.0,
2025-08-15T01:40:17.783Z,6,GR86-016-55,-20.700000000000003,-0.107,-0.343,2.46,4.0,,0.0,0.0,
2025-08-15T01:40:17.826Z,6,GR86-016-55,-21.4,-0.112,-0.375,2.45,4.0,3219.0,0.0,0.0,
2025-08-15T01:40:17.868Z,6,GR86-016-55,-21.5,-0.095,-0.37,2.46,4.0,,0.0,0.0,83.59
2025-08-15T01:40:17.912Z,6,GR86-016-55,-21.700000000000003,-0.092,-0.395,2.45,4.0,,0.0,0.0,
2025-08-15T01:40:17.955Z,6,GR86-016-55,-21.700000000000003,-0.099,-0.41,2.45,4.0,,0.0,0.0,
2025-08-15T01:40:17.998Z,6,GR86-016-55,-21.700000000000003,-0.106,-0.41,2.46,4.0,,0.0,0.0,
2025-08-15T01:40:18.041Z,6,GR86-016-55,-21.8,-0.092,-0.402,2.45,4.0,3225.0,0.0,0.0,
2025-08-15T01:40:18.086Z,6,GR86-016-55,-22.200000000000003,-0.098,-0.42,2.46,4.0,,0.0,0.0,83.29
2025-08-15T01:40:18.128Z,6,GR86-016-55,-22.6,-0.093,-0.392,2.46,4.0,,0.0,0.0,
2025-08-15T01:40:18.172Z,6,GR86-016-55,-23.5,-0.096,-0.41,2.46,4.0,,0.0,0.0,
2025-08-15T01:40:18.215Z,6,GR86-016-55,-24.5,-0.1,-0.417,2.47,4.0,,0.0,0.0,
2025-08-15T01:40:18.258Z,6,GR86-016-55,-25.700000000000003,-0.107,-0.442,2.46,4.0,3210.0,0.0,0.0,
2025-08-15T01:40:18.301Z,6,GR86-016-55,-27.1,-0.099,-0.436,2.46,4.0,,0.0,0.0,82.96000000000001
2025-08-15T01:40:18.344Z,6,GR86-016-55,-28.8,-0.107,-0.489,2.48,4.0,,0.0,0.0,
2025-08-15T01:40:18.387Z,6,GR86-016-55,-30.1,-0.1,-0.477,2.46,4.0,,0.0,0.0,
2025-08-15T01:40:18.432Z,6,GR86-016-55,-31.6,-0.107,-0.518,2.46,4.0,,0.0,0.0,
2025-08-15T01:40:18.475Z,6,GR86-016-55,-32.4,-0.105,-0.508,2.47,4.0,3190.0,0.0,0.0,
2025-08-15T01:40:18.518Z,6,GR86-016-55,-33.4,-0.119,-0.551,2.48,4.0,,0.0,0.0,82.60000000000001
2025-08-15T01:40:18.561Z,6,GR86-016-55,-34.0,-0.107,-0.553,2.47,4.0,,0.0,0.0,
2025-08-15T01:40:18.604Z,6,GR86-016-55,-34.7,-0.11,-0.593,2.48,4.0,,0.0,0.0,
2025-08-15T01:40:18.647Z,6,GR86-016-55,-35.1,-0.107,-0.5700000000000001,2.47,4.0,,0.0,0.0,
2025-08-15T01:40:18.690Z,6,GR86-016-55,-35.4,-0.112,-0.611,2.47,4.0,3176.0,0.0,0.0,
2025-08-15T01:40:18.736Z,6,GR86-016-55,-35.4,-0.11,-0.599,2.47,4.0,,0.0,0.0,82.28
2025-08-15T01:40:18.778Z,6,GR86-016-55,-35.5,-0.122,-0.639,2.48,4.0,,0.0,0.0,
2025-08-15T01:40:18.822Z,6,GR86-016-55,-35.5,-0.107,-0.598,2.46,4.0,,0.0,0.0,
2025-08-15T01:40:18.865Z,6,GR86-016-55,-35.7,-0.112,-0.63,2.48,4.0,,0.0,0.0,
2025-08-15T01:40:18.908Z,6,GR86-016-55,-36.4,-0.107,-0.608,2.48,4.0,3159.0,0.0,0.0,
2025-08-15T01:40:18.951Z,6,GR86-016-55,-38.7,-0.115,-0.627,2.47,4.0,,0.0,0.0,81.91
2025-08-15T01:40:18.994Z,6,GR86-016-55,-40.400000000000006,-0.117,-0.626,2.48,4.0,,0.0,0.0,
2025-08-15T01:40:19.080Z,6,GR86-016-55,-42.2,-0.113,-0.655,2.48,4.0,,0.0,0.0,
2025-08-15T01:40:19.123Z,6,GR86-016-55,-45.6,-0.109,-0.679,2.53,4.0,3145.0,0.0,0.0,
2025-08-15T01:40:19.166Z,6,GR86-016-55,-46.1,-0.116,-0.712,2.78,4.0,,0.0,0.0,81.47
2025-08-15T01:40:19.208Z,6,GR86-016-55,-46.1,-0.123,-0.737,3.35,4.0,,0.0,0.0,
2025-08-15T01:40:19.252Z,6,GR86-016-55,-45.900000000000006,-0.122,-0.723,4.53,4.0,,0.0,0.0,
2025-08-15T01:40:19.295Z,6,GR86-016-55,-45.900000000000006,-0.11,-0.729,4.64,4.0,,0.0,0.0,
2025-08-15T01:40:19.338Z,6,GR86-016-55,-45.900000000000006,-0.117,-0.756,4.72,4.0,3122.0,0.0,0.0,
2025-08-15T01:40:19.381Z,6,GR86-016-55,-45.8,-0.094,-0.778,4.8100000000000005,4.0,,0.0,0.0,80.99
2025-08-15T01:40:19.424Z,6,GR86-016-55,-45.7,-0.111,-0.774,4.88,4.0,,0.0,0.0,
2025-08-15T01:40:19.467Z,6,GR86-016-55,-45.400000000000006,-0.129,-0.756,5.4,4.0,,0.0,0.0,
2025-08-15T01:40:19.510Z,6,GR86-016-55,-45.3,-0.098,-0.753,5.62,4.0,,0.0,0.0,
2025-08-15T01:40:19.553Z,6,GR86-016-55,-45.2,-0.074,-0.759,5.66,4.0,3102.0,0.0,0.0,
2025-08-15T01:40:19.596Z,6,GR86-016-55,-44.7,-0.081,-0.774,5.66,4.0,,0.0,0.0,81.15
2025-08-15T01:40:19.638Z,6,GR86-016-55,-44.1,-0.111,-0.741,5.69,4.0,,0.0,0.0,
2025-08-15T01:40:19.682Z,6,GR86-016-55,-43.6,-0.129,-0.736,5.75,4.0,,0.0,0.0,
2025-08-15T01:40:19.725Z,6,GR86-016-55,-43.400000000000006,-0.103,-0.704,5.82,4.0,,0.0,0.0,
2025-08-15T01:40:19.768Z,6,GR86-016-55,-43.2,-0.086,-0.72,5.86,4.0,3081.0,0.0,0.0,
2025-08-15T01:40:19.811Z,6,GR86-016-55,-42.7,-0.118,-0.6990000000000001,6.95,4.0,,0.0,0.0,80.87
2025-08-15T01:40:19.854Z,6,GR86-016-55,-42.5,-0.113,-0.6890000000000001,7.52,4.0,,0.0,0.0,
2025-08-15T01:40:19.897Z,6,GR86-016-55,-42.2,-0.096,-0.676,7.53,4.0,,0.0,0.0,
2025-08-15T01:40:19.983Z,6,GR86-016-55,-41.400000000000006,-0.089,-0.677,7.56,4.0,3042.0,0.0,0.0,
2025-08-15T01:40:20.068Z,6,GR86-016-55,-39.8,-0.106,-0.658,7.56,4.0,,0.0,0.0,80.31
2025-08-15T01:40:20.112Z,6,GR86-016-55,-39.1,-0.074,-0.653,7.56,4.0,,0.0,0.0,
2025-08-15T01:40:20.155Z,6,GR86-016-55,-38.900000000000006,-0.093,-0.618,7.54,4.0,,0.0,0.0,
2025-08-15T01:40:20.198Z,6,GR86-016-55,-38.8,-0.102,-0.626,7.49,4.0,3025.0,0.0,0.0,
2025-08-15T01:40:20.241Z,6,GR86-016-55,-38.7,-0.098,-0.619,7.27,4.0,,0.0,0.0,79.05
2025-08-15T01:40:20.285Z,6,GR86-016-55,-38.5,-0.089,-0.615,6.92,4.0,,0.0,0.0,
2025-08-15T01:40:20.328Z,6,GR86-016-55,-38.3,-0.084,-0.598,6.7700000000000005,4.0,,0.0,0.0,
2025-08-15T01:40:20.371Z,6,GR86-016-55,-38.2,-0.099,-0.595,6.63,4.0,,0.0,0.0,
2025-08-15T01:40:20.414Z,6,GR86-016-55,-38.1,-0.1,-0.601,6.37,4.0,3011.0,0.0,0.0,
2025-08-15T01:40:20.458Z,6,GR86-016-55,-37.8,-0.071,-0.586,6.12,4.0,,0.0,0.0,78.4
2025-08-15T01:40:20.501Z,6,GR86-016-55,-37.6,-0.086,-0.598,5.63,4.0,,0.0,0.0,
2025-08-15T01:40:20.544Z,6,GR86-016-55,-37.5,-0.09,-0.589,5.21,4.0,,0.0,0.0,
2025-08-15T01:40:20.587Z,6,GR86-016-55,-37.3,-0.088,-0.601,5.11,4.0,,0.0,0.0,
2025-08-15T01:40:20.632Z,6,GR86-016-55,-37.0,-0.076,-0.5700000000000001,5.0200000000000005,4.0,2972.0,0.0,0.0,
2025-08-15T01:40:20.675Z,6,GR86-016-55,-36.9,-0.084,-0.598,4.99,4.0,,0.0,0.0,77.12
2025-08-15T01:40:20.718Z,6,GR86-016-55,-36.9,-0.1,-0.559,4.95,4.0,,0.0,0.0,
2025-08-15T01:40:20.761Z,6,GR86-016-55,-36.7,-0.098,-0.5750000000000001,4.94,4.0,,0.0,0.0,
2025-08-15T01:40:20.804Z,6,GR86-016-55,-36.4,-0.094,-0.582,4.93,4.0,,0.0,0.0,
2025-08-15T01:40:20.847Z,6,GR86-016-55,-36.0,-0.081,-0.5680000000000001,4.94,4.0,2957.0,0.0,0.0,
2025-08-15T01:40:20.890Z,6,GR86-016-55,-35.800000000000004,-0.109,-0.543,5.26,4.0,,0.0,0.0,77.2
2025-08-15T01:40:20.934Z,6,GR86-016-55,-35.7,-0.094,-0.558,5.59,4.0,,0.0,0.0,
2025-08-15T01:40:20.977Z,6,GR86-016-55,-35.5,-0.087,-0.52,6.01,4.0,,0.0,0.0,
2025-08-15T01:40:21.020Z,6,GR86-016-55,-35.300000000000004,-0.075,-0.532,6.16,4.0,,0.0,0.0,
2025-08-15T01:40:21.063Z,6,GR86-016-55,-35.2,-0.095,-0.518,6.66,4.0,2933.0,0.0,0.0,
2025-08-15T01:40:21.106Z,6,GR86-016-55,-35.0,-0.09,-0.498,7.05,4.0,,0.0,0.0,76.59
2025-08-15T01:40:21.148Z,6,GR86-016-55,-35.0,-0.095,-0.525,7.59,4.0,,0.0,0.0,
2025-08-15T01:40:21.192Z,6,GR86-016-55,-34.800000000000004,-0.093,-0.512,8.67,4.0,,0.0,0.0,
2025-08-15T01:40:21.235Z,6,GR86-016-55,-34.7,-0.104,-0.508,13.41,4.0,,0.0,0.0,
2025-08-15T01:40:21.278Z,6,GR86-016-55,-34.7,-0.092,-0.537,17.36,4.0,2912.0,0.0,0.0,
2025-08-15T01:40:21.321Z,6,GR86-016-55,-34.5,-0.088,-0.542,18.76,4.0,,0.0,0.0,75.61
2025-08-15T01:40:21.364Z,6,GR86-016-55,-34.300000000000004,-0.086,-0.51,20.28,4.0,,0.0,0.0,
2025-08-15T01:40:21.407Z,6,GR86-016-55,-34.1,-0.048,-0.527,20.6,4.0,,0.0,0.0,
2025-08-15T01:40:21.450Z,6,GR86-016-55,-34.0,0.021,-0.511,21.03,4.0,,0.0,0.0,
2025-08-15T01:40:21.493Z,6,GR86-016-55,-33.800000000000004,0.246,-0.484,20.36,4.0,2881.0,0.0,0.0,
2025-08-15T01:40:21.536Z,6,GR86-016-55,-33.5,0.127,-0.508,20.96,4.0,,0.0,0.0,74.83
2025-08-15T01:40:21.578Z,6,GR86-016-55,-33.4,-0.024,-0.479,22.09,4.0,,0.0,0.0,
2025-08-15T01:40:21.622Z,6,GR86-016-55,-33.300000000000004,0.0,-0.467,22.13,4.0,,0.0,0.0,
2025-08-15T01:40:21.665Z,6,GR86-016-55,-33.0,0.114,-0.481,22.13,4.0,,0.0,0.0,
2025-08-15T01:40:21.708Z,6,GR86-016-55,-32.800000000000004,0.157,-0.456,22.13,4.0,2977.0,0.0,0.0,
2025-08-15T01:40:21.751Z,6,GR86-016-55,-32.6,0.048,-0.466,22.13,4.0,,0.0,0.0,74.25
2025-08-15T01:40:21.794Z,6,GR86-016-55,-32.5,0.052,-0.444,22.13,4.0,,0.0,0.0,
2025-08-15T01:40:21.837Z,6,GR86-016-55,-32.300000000000004,0.116,-0.48,22.1,4.0,,0.0,0.0,
2025-08-15T01:40:21.880Z,6,GR86-016-55,-32.1,0.121,-0.447,22.1,4.0,,0.0,0.0,
2025-08-15T01:40:21.925Z,6,GR86-016-55,-31.8,0.089,-0.436,22.09,4.0,2950.0,0.0,0.0,
2025-08-15T01:40:21.968Z,6,GR86-016-55,-31.5,0.081,-0.416,22.06,4.0,,0.0,0.0,74.23
2025-08-15T01:40:22.012Z,6,GR86-016-55,-31.200000000000003,0.109,-0.429,22.04,4.0,,0.0,0.0,
2025-08-15T01:40:22.055Z,6,GR86-016-55,-30.9,0.102,-0.403,22.03,4.0,,0.0,0.0,
2025-08-15T01:40:22.098Z,6,GR86-016-55,-30.4,0.085,-0.39,22.02,4.0,,0.0,0.0,
2025-08-15T01:40:22.141Z,6,GR86-016-55,-30.0,0.092,-0.409,22.0,4.0,2979.0,0.0,0.0,
2025-08-15T01:40:22.186Z,6,GR86-016-55,-29.5,0.11,-0.387,22.0,4.0,,0.0,0.0,74.88
2025-08-15T01:40:22.228Z,6,GR86-016-55,-29.1,0.102,-0.391,22.0,4.0,,0.0,0.0,
2025-08-15T01:40:22.272Z,6,GR86-016-55,-29.1,0.095,-0.383,22.0,4.0,,0.0,0.0,
2025-08-15T01:40:22.315Z,6,GR86-016-55,-29.0,0.106,-0.398,21.97,4.0,,0.0,0.0,
2025-08-15T01:40:22.358Z,6,GR86-016-55,-28.9,0.111,-0.383,22.0,4.0,2989.0,0.0,0.0,
2025-08-15T01:40:22.401Z,6,GR86-016-55,-28.9,0.09,-0.408,22.0,4.0,,0.0,0.0,75.68
2025-08-15T01:40:22.444Z,6,GR86-016-55,-28.9,0.09,-0.387,22.0,4.0,,0.0,0.0,
2025-08-15T01:40:22.487Z,6,GR86-016-55,-28.8,0.096,-0.388,21.98,4.0,,0.0,0.0,
2025-08-15T01:40:22.531Z,6,GR86-016-55,-29.200000000000003,0.098,-0.397,21.97,4.0,,0.0,0.0,
2025-08-15T01:40:22.575Z,6,GR86-016-55,-29.8,0.09,-0.421,21.99,4.0,2998.0,0.0,0.0,
2025-08-15T01:40:22.618Z,6,GR86-016-55,-30.4,0.085,-0.425,22.0,4.0,,0.0,0.0,76.36
2025-08-15T01:40:22.661Z,6,GR86-016-55,-30.6,0.091,-0.415,22.01,4.0,,0.0,0.0,
2025-08-15T01:40:22.704Z,6,GR86-016-55,-30.6,0.093,-0.449,21.98,4.0,,0.0,0.0,
2025-08-15T01:40:22.747Z,6,GR86-016-55,-30.6,0.104,-0.452,21.98,4.0,,0.0,0.0,
2025-08-15T01:40:22.834Z,6,GR86-016-55,-30.700000000000003,0.088,-0.476,21.99,4.0,3034.0,0.0,0.0,77.9
2025-08-15T01:40:22.877Z,6,GR86-016-55,-32.0,0.113,-0.484,22.0,4.0,,0.0,0.0,
2025-08-15T01:40:22.920Z,6,GR86-016-55,-33.1,0.097,-0.501,22.0,4.0,,0.0,0.0,
2025-08-15T01:40:22.963Z,6,GR86-016-55,-33.5,0.085,-0.528,22.01,4.0,,0.0,0.0,
2025-08-15T01:40:23.006Z,6,GR86-016-55,-33.5,0.079,-0.527,22.0,4.0,3067.0,0.0,0.0,
2025-08-15T01:40:23.048Z,6,GR86-016-55,-33.5,0.089,-0.54,22.0,4.0,,0.0,0.0,78.65
2025-08-15T01:40:23.092Z,6,GR86-016-55,-33.5,0.096,-0.54,22.0,4.0,,0.0,0.0,
2025-08-15T01:40:23.135Z,6,GR86-016-55,-33.5,0.081,-0.55,22.0,4.0,,0.0,0.0,
2025-08-15T01:40:23.178Z,6,GR86-016-55,-33.4,0.069,-0.544,22.01,4.0,,0.0,0.0,
2025-08-15T01:40:23.221Z,6,GR86-016-55,-33.4,0.095,-0.542,22.0,4.0,3103.0,0.0,0.0,
2025-08-15T01:40:23.264Z,6,GR86-016-55,-33.4,0.081,-0.557,22.0,4.0,,0.0,0.0,79.4
2025-08-15T01:40:23.307Z,6,GR86-016-55,-33.4,0.081,-0.538,22.0,4.0,,0.0,0.0,
2025-08-15T01:40:23.350Z,6,GR86-016-55,-33.4,0.083,-0.547,22.0,4.0,,0.0,0.0,
2025-08-15T01:40:23.393Z,6,GR86-016-55,-33.4,0.091,-0.535,22.0,4.0,,0.0,0.0,
2025-08-15T01:40:23.437Z,6,GR86-016-55,-33.0,0.085,-0.5660000000000001,22.0,4.0,3169.0,0.0,0.0,
2025-08-15T01:40:23.480Z,6,GR86-016-55,-32.1,0.083,-0.524,22.01,4.0,,0.0,0.0,80.14
2025-08-15T01:40:23.523Z,6,GR86-016-55,-31.200000000000003,0.073,-0.542,22.0,4.0,,0.0,0.0,
2025-08-15T01:40:23.566Z,6,GR86-016-55,-30.6,0.091,-0.508,22.0,4.0,,0.0,0.0,
2025-08-15T01:40:23.652Z,6,GR86-016-55,-30.200000000000003,0.104,-0.518,22.0,4.0,3183.0,0.0,0.0,
2025-08-15T01:40:23.695Z,6,GR86-016-55,-29.6,0.08,-0.507,22.0,4.0,,0.0,0.0,80.86
2025-08-15T01:40:23.738Z,6,GR86-016-55,-29.3,0.086,-0.464,22.0,4.0,,0.0,0.0,
2025-08-15T01:40:23.781Z,6,GR86-016-55,-28.9,0.089,-0.485,22.0,4.0,,0.0,0.0,
2025-08-15T01:40:23.824Z,6,GR86-016-55,-28.0,0.097,-0.442,22.01,4.0,,0.0,0.0,
2025-08-15T01:40:23.867Z,6,GR86-016-55,-27.3,0.093,-0.445,22.0,4.0,3210.0,0.0,0.0,
2025-08-15T01:40:23.910Z,6,GR86-016-55,-26.4,0.086,-0.424,22.0,4.0,,0.0,0.0,81.56
2025-08-15T01:40:23.952Z,6,GR86-016-55,-25.4,0.094,-0.439,22.0,4.0,,0.0,0.0,
2025-08-15T01:40:23.996Z,6,GR86-016-55,-24.200000000000003,0.094,-0.386,22.0,4.0,,0.0,0.0,
2025-08-15T01:40:24.038Z,6,GR86-016-55,-23.0,0.088,-0.409,22.0,4.0,,0.0,0.0,
2025-08-15T01:40:24.082Z,6,GR86-016-55,-21.5,0.086,-0.382,22.0,4.0,3235.0,0.0,0.0,
2025-08-15T01:40:24.125Z,6,GR86-016-55,-18.8,0.13,-0.341,22.0,4.0,,0.0,0.0,82.26
2025-08-15T01:40:24.168Z,6,GR86-016-55,-16.900000000000002,0.048,-0.282,22.0,4.0,,0.0,0.0,
2025-08-15T01:40:24.211Z,6,GR86-016-55,-13.6,-0.009,-0.203,22.0,5.0,,0.0,0.0,
2025-08-15T01:40:24.254Z,6,GR86-016-55,-12.8,0.155,-0.25,22.0,5.0,,0.0,0.0,
2025-08-15T01:40:24.297Z,6,GR86-016-55,-12.4,0.105,-0.227,22.0,5.0,3258.0,0.0,0.0,
2025-08-15T01:40:24.340Z,6,GR86-016-55,-12.4,0.053,-0.175,22.0,5.0,,0.0,0.0,82.95
2025-08-15T01:40:24.383Z,6,GR86-016-55,-12.4,0.062,-0.227,22.0,5.0,,0.0,0.0,
2025-08-15T01:40:24.426Z,6,GR86-016-55,-12.3,0.14,-0.213,22.0,5.0,,0.0,0.0,
2025-08-15T01:40:24.470Z,6,GR86-016-55,-12.0,0.056,-0.198,22.0,5.0,,0.0,0.0,
2025-08-15T01:40:24.513Z,6,GR86-016-55,-11.6,0.074,-0.171,22.01,5.0,3063.0,0.0,0.0,
2025-08-15T01:40:24.556Z,6,GR86-016-55,-10.1,0.134,-0.171,20.21,5.0,,0.0,0.0,83.77
2025-08-15T01:40:24.598Z,6,GR86-016-55,-8.6,0.1,-0.117,15.15,5.0,,0.0,0.0,
2025-08-15T01:40:24.642Z,6,GR86-016-55,-7.5,0.08,-0.127,15.56,5.0,,0.0,0.0,
2025-08-15T01:40:24.728Z,6,GR86-016-55,-6.800000000000001,0.059,-0.096,15.96,5.0,2888.0,0.0,0.0,
2025-08-15T01:40:24.772Z,6,GR86-016-55,-5.0,0.061,-0.049,3.69,5.0,,0.0,0.0,84.16
2025-08-15T01:40:24.815Z,6,GR86-016-55,-4.9,0.039,-0.066,3.97,5.0,,0.0,0.0,
2025-08-15T01:40:24.858Z,6,GR86-016-55,-4.800000000000001,-0.07,-0.055,3.87,5.0,,0.0,0.0,
2025-08-15T01:40:24.901Z,6,GR86-016-55,-4.5,-0.024,-0.054,3.72,5.0,,0.0,0.0,
2025-08-15T01:40:24.944Z,6,GR86-016-55,-2.4000000000000004,-0.221,-0.079,3.34,5.0,2869.0,0.0,0.0,
2025-08-15T01:40:24.987Z,6,GR86-016-55,-1.0,-0.078,-0.013,3.11,5.0,,0.0,0.0,84.69
2025-08-15T01:40:25.032Z,6,GR86-016-55,-0.3,-0.045,-0.035,2.95,5.0,,0.0,0.0,
2025-08-15T01:40:25.075Z,6,GR86-016-55,-0.1,-0.05,0.012,2.88,5.0,,0.0,0.0,
2025-08-15T01:40:25.118Z,6,GR86-016-55,0.1,-0.033,0.011,2.84,5.0,,0.0,0.0,
2025-08-15T01:40:25.161Z,6,GR86-016-55,0.5,-0.044,0.02,2.81,5.0,2874.0,0.0,0.0,
2025-08-15T01:40:25.204Z,6,GR86-016-55,0.7000000000000001,-0.177,0.053,2.77,5.0,,0.0,0.0,85.31
2025-08-15T01:40:25.247Z,6,GR86-016-55,0.9,-0.082,0.036,2.72,5.0,,0.0,0.0,
2025-08-15T01:40:25.290Z,6,GR86-016-55,1.0,-0.045,0.046,2.64,5.0,,0.0,0.0,
2025-08-15T01:40:25.336Z,6,GR86-016-55,1.0,-0.046,0.028,2.61,5.0,,0.0,0.0,
2025-08-15T01:40:25.378Z,6,GR86-016-55,1.0,-0.108,0.031,2.58,5.0,2963.0,0.0,0.0,
2025-08-15T01:40:25.422Z,6,GR86-016-55,1.0,-0.107,0.028,2.56,5.0,,0.0,0.0,85.48
2025-08-15T01:40:25.465Z,6,GR86-016-55,1.0,-0.05,0.052,2.5500000000000003,5.0,,0.0,0.0,
2025-08-15T01:40:25.508Z,6,GR86-016-55,1.0,-0.035,0.034,2.53,5.0,,0.0,0.0,
2025-08-15T01:40:25.552Z,6,GR86-016-55,1.0,-0.106,0.052,2.52,5.0,,0.0,0.0,
2025-08-15T01:40:25.595Z,6,GR86-016-55,1.0,-0.087,0.033,2.51,5.0,2835.0,0.0,0.0,
2025-08-15T01:40:25.638Z,6,GR86-016-55,1.0,-0.048,0.055,2.5,5.0,,0.0,0.0,84.57000000000001
2025-08-15T01:40:25.681Z,6,GR86-016-55,1.0,-0.058,0.04,2.49,5.0,,0.0,0.0,
2025-08-15T01:40:25.724Z,6,GR86-016-55,1.0,-0.087,0.05,2.49,5.0,,0.0,0.0,
2025-08-15T01:40:25.767Z,6,GR86-016-55,1.0,-0.078,0.031,2.49,5.0,,0.0,0.0,
2025-08-15T01:40:25.810Z,6,GR86-016-55,1.0,-0.066,0.034,2.62,5.0,2836.0,0.0,0.0,
2025-08-15T01:40:25.852Z,6,GR86-016-55,1.0,-0.074,0.009,3.68,5.0,,0.0,0.0,84.05
2025-08-15T01:40:25.896Z,6,GR86-016-55,1.0,-0.084,0.015,4.64,5.0,,0.0,0.0,
2025-08-15T01:40:25.938Z,6,GR86-016-55,1.0,-0.057,-0.001,7.95,5.0,,0.0,0.0,
2025-08-15T01:40:25.982Z,6,GR86-016-55,1.0,-0.072,0.012,15.19,5.0,,0.0,0.0,
2025-08-15T01:40:26.025Z,6,GR86-016-55,1.0,-0.07,0.007,18.79,5.0,2837.0,0.0,0.0,
2025-08-15T01:40:26.068Z,6,GR86-016-55,1.0,-0.039,0.007,20.87,5.0,,0.0,0.0,83.57000000000001
2025-08-15T01:40:26.111Z,6,GR86-016-55,1.0,-0.036,-0.005,21.29,5.0,,0.0,0.0,
2025-08-15T01:40:26.154Z,6,GR86-016-55,1.0,-0.039,0.02,21.48,5.0,,0.0,0.0,
2025-08-15T01:40:26.197Z,6,GR86-016-55,1.0,0.159,0.015,21.68,5.0,,0.0,0.0,
2025-08-15T01:40:26.240Z,6,GR86-016-55,1.0,0.225,0.019,21.96,5.0,2784.0,0.0,0.0,
2025-08-15T01:40:26.283Z,6,GR86-016-55,1.0,0.007,0.017,22.03,5.0,,0.0,0.0,83.10000000000001
2025-08-15T01:40:26.326Z,6,GR86-016-55,1.0,-0.033,0.02,22.06,5.0,,0.0,0.0,
2025-08-15T01:40:26.368Z,6,GR86-016-55,1.0,0.141,0.042,22.06,5.0,,0.0,0.0,
2025-08-15T01:40:26.412Z,6,GR86-016-55,1.0,0.118,0.033,22.07,5.0,,0.0,0.0,
2025-08-15T01:40:26.455Z,6,GR86-016-55,1.0,0.02,0.024,22.1,5.0,2941.0,0.0,0.0,
2025-08-15T01:40:26.498Z,6,GR86-016-55,1.0,0.066,0.016,22.09,5.0,,0.0,0.0,82.67
2025-08-15T01:40:26.541Z,6,GR86-016-55,1.1,0.151,0.043,22.09,5.0,,0.0,0.0,
2025-08-15T01:40:26.585Z,6,GR86-016-55,1.2000000000000002,0.092,0.019,22.08,5.0,,0.0,0.0,
2025-08-15T01:40:26.628Z,6,GR86-016-55,1.2000000000000002,0.045,0.02,22.06,5.0,,0.0,0.0,
2025-08-15T01:40:26.671Z,6,GR86-016-55,1.2000000000000002,0.13,0.017,22.06,5.0,2768.0,0.0,0.0,
2025-08-15T01:40:26.714Z,6,GR86-016-55,1.2000000000000002,0.124,0.039,22.06,5.0,,0.0,0.0,82.99
2025-08-15T01:40:26.758Z,6,GR86-016-55,1.2000000000000002,0.071,0.036,22.06,5.0,,0.0,0.0,
2025-08-15T01:40:26.801Z,6,GR86-016-55,1.3,0.077,0.037,22.07,5.0,,0.0,0.0,
2025-08-15T01:40:26.844Z,6,GR86-016-55,1.3,0.1,0.041,22.05,5.0,,0.0,0.0,
2025-08-15T01:40:26.887Z,6,GR86-016-55,1.4,0.109,0.05,22.06,5.0,2817.0,0.0,0.0,
2025-08-15T01:40:26.931Z,6,GR86-016-55,1.5,0.077,0.029,22.03,5.0,,0.0,0.0,83.62
2025-08-15T01:40:26.975Z,6,GR86-016-55,1.5,0.097,0.029,22.03,5.0,,0.0,0.0,
2025-08-15T01:40:27.018Z,6,GR86-016-55,1.6,0.101,0.04,22.02,5.0,,0.0,0.0,
2025-08-15T01:40:27.061Z,6,GR86-016-55,1.6,0.088,0.037,22.0,5.0,,0.0,0.0,
2025-08-15T01:40:27.104Z,6,GR86-016-55,1.6,0.075,0.027,22.0,5.0,2879.0,0.0,0.0,
2025-08-15T01:40:27.147Z,6,GR86-016-55,1.6,0.082,0.026,22.0,5.0,,0.0,0.0,84.25
2025-08-15T01:40:27.190Z,6,GR86-016-55,1.5,0.088,0.028,21.97,5.0,,0.0,0.0,
2025-08-15T01:40:27.234Z,6,GR86-016-55,1.5,0.09,0.01,21.99,5.0,,0.0,0.0,
2025-08-15T01:40:27.277Z,6,GR86-016-55,1.5,0.089,0.017,21.97,5.0,,0.0,0.0,
2025-08-15T01:40:27.320Z,6,GR86-016-55,1.5,0.104,0.016,21.97,5.0,2886.0,0.0,0.0,
2025-08-15T01:40:27.363Z,6,GR86-016-55,1.5,0.076,0.025,21.97,5.0,,0.0,0.0,84.88
2025-08-15T01:40:27.406Z,6,GR86-016-55,1.5,0.1,0.025,21.96,5.0,,0.0,0.0,
2025-08-15T01:40:27.448Z,6,GR86-016-55,1.5,0.078,0.012,21.96,5.0,,0.0,0.0,
2025-08-15T01:40:27.492Z,6,GR86-016-55,1.5,0.09,-0.004,21.99,5.0,,0.0,0.0,
2025-08-15T01:40:27.535Z,6,GR86-016-55,1.5,0.08,0.01,22.0,5.0,2900.0,0.0,0.0,
2025-08-15T01:40:27.578Z,6,GR86-016-55,1.5,0.104,0.002,21.99,5.0,,0.0,0.0,85.46000000000001
2025-08-15T01:40:27.621Z,6,GR86-016-55,1.5,0.091,0.003,22.0,5.0,,0.0,0.0,
2025-08-15T01:40:27.664Z,6,GR86-016-55,1.5,0.076,0.015,22.0,5.0,,0.0,0.0,
2025-08-15T01:40:27.707Z,6,GR86-016-55,1.5,0.09,0.002,21.97,5.0,,0.0,0.0,
2025-08-15T01:40:27.750Z,6,GR86-016-55,1.5,0.088,0.007,22.0,5.0,2923.0,0.0,0.0,
2025-08-15T01:40:27.794Z,6,GR86-016-55,1.5,0.082,0.002,22.0,5.0,,0.0,0.0,86.02
2025-08-15T01:40:27.837Z,6,GR86-016-55,1.5,0.07,0.007,22.01,5.0,,0.0,0.0,
2025-08-15T01:40:27.880Z,6,GR86-016-55,1.5,0.09,0.0,21.87,5.0,,0.0,0.0,
2025-08-15T01:40:27.925Z,6,GR86-016-55,1.5,0.086,0.004,21.27,5.0,,0.0,0.0,
2025-08-15T01:40:27.968Z,6,GR86-016-55,1.5,0.094,0.003,20.34,5.0,2939.0,0.0,0.0,
2025-08-15T01:40:28.011Z,6,GR86-016-55,1.5,0.069,0.023,18.93,5.0,,0.0,0.0,86.59
2025-08-15T01:40:28.055Z,6,GR86-016-55,1.5,0.077,0.015,18.26,5.0,,0.0,0.0,
2025-08-15T01:40:28.098Z,6,GR86-016-55,1.5,0.063,0.011,15.94,5.0,,0.0,0.0,
2025-08-15T01:40:28.142Z,6,GR86-016-55,1.5,0.066,0.015,11.39,5.0,,0.0,0.0,
2025-08-15T01:40:28.186Z,6,GR86-016-55,1.5,0.057,0.002,7.31,5.0,2944.0,0.0,0.0,
2025-08-15T01:40:28.228Z,6,GR86-016-55,1.5,0.052,0.01,7.01,5.0,,0.0,0.0,87.16
2025-08-15T01:40:28.272Z,6,GR86-016-55,1.5,0.012,0.005,6.69,5.0,,0.0,0.0,
2025-08-15T01:40:28.315Z,6,GR86-016-55,1.5,0.005,0.011,6.44,5.0,,0.0,0.0,
2025-08-15T01:40:28.358Z,6,GR86-016-55,1.5,-0.008,0.004,6.2700000000000005,5.0,,0.0,0.0,
2025-08-15T01:40:28.401Z,6,GR86-016-55,1.5,0.005,0.006,5.69,5.0,2968.0,0.0,0.0,
2025-08-15T01:40:28.444Z,6,GR86-016-55,1.5,-0.032,0.005,5.34,5.0,,0.0,0.0,88.26
2025-08-15T01:40:28.487Z,6,GR86-016-55,1.5,-0.038,0.004,5.19,5.0,,0.0,0.0,
2025-08-15T01:40:28.531Z,6,GR86-016-55,1.5,-0.044,-0.005,5.11,5.0,,0.0,0.0,
2025-08-15T01:40:28.575Z,6,GR86-016-55,1.5,-0.121,0.005,5.18,5.0,,0.0,0.0,
2025-08-15T01:40:28.618Z,6,GR86-016-55,1.5,-0.076,0.016,5.37,5.0,2972.0,0.0,0.0,
2025-08-15T01:40:28.661Z,6,GR86-016-55,1.5,-0.022,0.008,5.69,5.0,,0.0,0.0,88.55
2025-08-15T01:40:28.704Z,6,GR86-016-55,1.5,-0.049,0.019,6.72,5.0,,0.0,0.0,
2025-08-15T01:40:28.747Z,6,GR86-016-55,1.5,-0.03,0.003,7.11,5.0,,0.0,0.0,
2025-08-15T01:40:28.790Z,6,GR86-016-55,1.4,-0.117,0.015,7.49,5.0,,0.0,0.0,
2025-08-15T01:40:28.833Z,6,GR86-016-55,1.5,-0.077,0.015,7.52,5.0,2997.0,0.0,0.0,
2025-08-15T01:40:28.876Z,6,GR86-016-55,1.5,-0.034,0.016,8.08,5.0,,0.0,0.0,88.42
2025-08-15T01:40:28.918Z,6,GR86-016-55,1.5,-0.05,-0.001,9.34,5.0,,0.0,0.0,
2025-08-15T01:40:28.962Z,6,GR86-016-55,1.5,-0.078,0.022,13.02,5.0,,0.0,0.0,
2025-08-15T01:40:29.005Z,6,GR86-016-55,1.5,-0.089,0.008,14.9,5.0,,0.0,0.0,
2025-08-15T01:40:29.048Z,6,GR86-016-55,1.5,-0.06,0.019,15.83,5.0,2957.0,0.0,0.0,
2025-08-15T01:40:29.091Z,6,GR86-016-55,1.5,-0.039,0.004,16.6,5.0,,0.0,0.0,87.97
2025-08-15T01:40:29.134Z,6,GR86-016-55,1.4,-0.024,0.012,17.16,5.0,,0.0,0.0,
2025-08-15T01:40:29.177Z,6,GR86-016-55,1.4,0.178,0.018,17.05,5.0,,0.0,0.0,
2025-08-15T01:40:29.220Z,6,GR86-016-55,0.6000000000000001,0.089,-0.005,17.69,5.0,,0.0,0.0,
2025-08-15T01:40:29.263Z,6,GR86-016-55,-0.5,-0.065,-0.006,20.72,5.0,2946.0,0.0,0.0,
2025-08-15T01:40:29.306Z,6,GR86-016-55,-1.0,-0.007,-0.003,21.29,5.0,,0.0,0.0,87.42
2025-08-15T01:40:29.348Z,6,GR86-016-55,-1.2000000000000002,0.129,-0.044,21.29,5.0,,0.0,0.0,
2025-08-15T01:40:29.392Z,6,GR86-016-55,-1.3,0.07,-0.036,21.29,5.0,,0.0,0.0,
2025-08-15T01:40:29.435Z,6,GR86-016-55,-1.3,0.012,-0.06,21.29,5.0,,0.0,0.0,
2025-08-15T01:40:29.478Z,6,GR86-016-55,-1.4,0.094,-0.056,21.27,5.0,2889.0,0.0,0.0,
2025-08-15T01:40:29.521Z,6,GR86-016-55,-1.3,0.126,-0.079,21.26,5.0,,0.0,0.0,86.95
2025-08-15T01:40:29.564Z,6,GR86-016-55,-1.3,0.073,-0.071,21.25,5.0,,0.0,0.0,
2025-08-15T01:40:29.607Z,6,GR86-016-55,-1.3,0.042,-0.064,21.23,5.0,,0.0,0.0,
2025-08-15T01:40:29.650Z,6,GR86-016-55,-1.4,0.117,-0.048,21.16,5.0,,0.0,0.0,
2025-08-15T01:40:29.693Z,6,GR86-016-55,-1.3,0.098,-0.04,21.1,5.0,2899.0,0.0,0.0,
2025-08-15T01:40:29.736Z,6,GR86-016-55,-1.3,0.075,-0.047,21.07,5.0,,0.0,0.0,87.15
2025-08-15T01:40:29.780Z,6,GR86-016-55,-1.3,0.068,-0.043,21.06,5.0,,0.0,0.0,
2025-08-15T01:40:29.823Z,6,GR86-016-55,-1.2000000000000002,0.103,-0.045,21.04,5.0,,0.0,0.0,
2025-08-15T01:40:29.866Z,6,GR86-016-55,-1.0,0.083,-0.022,21.03,5.0,,0.0,0.0,
2025-08-15T01:40:29.909Z,6,GR86-016-55,-1.0,0.087,-0.029,21.0,5.0,2990.0,0.0,0.0,
2025-08-15T01:40:29.952Z,6,GR86-016-55,-0.9,0.085,-0.013,20.97,5.0,,0.0,0.0,87.59
2025-08-15T01:40:29.995Z,6,GR86-016-55,-0.9,0.074,-0.032,20.94,5.0,,0.0,0.0,
2025-08-15T01:40:30.038Z,6,GR86-016-55,-0.9,0.079,-0.025,20.9,5.0,,0.0,0.0,
2025-08-15T01:40:30.081Z,6,GR86-016-55,-0.9,0.092,-0.031,20.86,5.0,,0.0,0.0,
2025-08-15T01:40:30.124Z,6,GR86-016-55,-0.9,0.081,-0.026,20.77,5.0,3005.0,0.0,0.0,
2025-08-15T01:40:30.167Z,6,GR86-016-55,-0.9,0.076,-0.022,20.74,5.0,,0.0,0.0,88.06
2025-08-15T01:40:30.210Z,6,GR86-016-55,-0.8,0.083,-0.012,20.67,5.0,,0.0,0.0,
2025-08-15T01:40:30.253Z,6,GR86-016-55,-0.7000000000000001,0.08,-0.015,20.67,5.0,,0.0,0.0,
2025-08-15T01:40:30.296Z,6,GR86-016-55,-0.5,0.086,-0.01,20.58,5.0,,0.0,0.0,
2025-08-15T01:40:30.338Z,6,GR86-016-55,-0.4,0.076,-0.007,20.51,5.0,3007.0,0.0,0.0,
2025-08-15T01:40:30.382Z,6,GR86-016-55,-0.1,0.077,-0.007,20.42,5.0,,0.0,0.0,88.57000000000001
2025-08-15T01:40:30.425Z,6,GR86-016-55,0.3,0.065,-0.008,20.37,5.0,,0.0,0.0,
2025-08-15T01:40:30.468Z,6,GR86-016-55,0.5,0.087,0.008,20.23,5.0,,0.0,0.0,
2025-08-15T01:40:30.511Z,6,GR86-016-55,0.7000000000000001,0.082,0.012,20.12,5.0,,0.0,0.0,
2025-08-15T01:40:30.554Z,6,GR86-016-55,0.7000000000000001,0.086,0.012,20.09,5.0,3018.0,0.0,0.0,
2025-08-15T01:40:30.597Z,6,GR86-016-55,0.6000000000000001,0.078,0.026,20.03,5.0,,0.0,0.0,89.07000000000001
2025-08-15T01:40:30.640Z,6,GR86-016-55,0.6000000000000001,0.086,0.029,20.03,5.0,,0.0,0.0,
2025-08-15T01:40:30.683Z,6,GR86-016-55,0.6000000000000001,0.076,0.013,20.02,5.0,,0.0,0.0,
2025-08-15T01:40:30.726Z,6,GR86-016-55,0.6000000000000001,0.084,0.024,20.03,5.0,,0.0,0.0,
2025-08-15T01:40:30.768Z,6,GR86-016-55,0.6000000000000001,0.08,0.013,20.1,5.0,3038.0,0.0,0.0,
2025-08-15T01:40:30.812Z,6,GR86-016-55,0.6000000000000001,0.067,0.004,20.19,5.0,,0.0,0.0,89.55
2025-08-15T01:40:30.855Z,6,GR86-016-55,0.6000000000000001,0.075,0.018,20.26,5.0,,0.0,0.0,
2025-08-15T01:40:30.898Z,6,GR86-016-55,0.6000000000000001,0.07,0.011,20.28,5.0,,0.0,0.0,
2025-08-15T01:40:30.941Z,6,GR86-016-55,0.6000000000000001,0.081,0.023,20.32,5.0,,0.0,0.0,
2025-08-15T01:40:30.986Z,6,GR86-016-55,0.6000000000000001,0.061,0.002,20.35,5.0,3052.0,0.0,0.0,
2025-08-15T01:40:31.032Z,6,GR86-016-55,0.6000000000000001,0.088,0.023,20.38,5.0,,0.0,0.0,90.47
2025-08-15T01:40:31.075Z,6,GR86-016-55,0.6000000000000001,0.079,0.013,20.38,5.0,,0.0,0.0,
2025-08-15T01:40:31.118Z,6,GR86-016-55,0.6000000000000001,0.082,0.017,20.42,5.0,,0.0,0.0,
2025-08-15T01:40:31.161Z,6,GR86-016-55,0.6000000000000001,0.077,0.012,20.42,5.0,,0.0,0.0,
2025-08-15T01:40:31.204Z,6,GR86-016-55,0.6000000000000001,0.102,0.02,20.46,5.0,3065.0,0.0,0.0,
2025-08-15T01:40:31.247Z,6,GR86-016-55,0.6000000000000001,0.043,0.006,21.06,5.0,,0.0,0.0,90.96
2025-08-15T01:40:31.290Z,6,GR86-016-55,0.6000000000000001,-0.034,0.034,22.1,6.0,,0.0,0.0,
2025-08-15T01:40:31.336Z,6,GR86-016-55,0.6000000000000001,-0.032,0.005,22.16,6.0,,0.0,0.0,
2025-08-15T01:40:31.378Z,6,GR86-016-55,0.6000000000000001,0.147,0.032,22.16,6.0,,0.0,0.0,
2025-08-15T01:40:31.422Z,6,GR86-016-55,0.6000000000000001,0.153,0.02,22.16,6.0,3088.0,0.0,0.0,
2025-08-15T01:40:31.465Z,6,GR86-016-55,0.6000000000000001,-0.015,0.028,22.17,6.0,,0.0,0.0,91.41
2025-08-15T01:40:31.508Z,6,GR86-016-55,0.6000000000000001,0.036,0.036,22.17,6.0,,0.0,0.0,
2025-08-15T01:40:31.551Z,6,GR86-016-55,0.6000000000000001,0.138,0.038,22.14,6.0,,0.0,0.0,
2025-08-15T01:40:31.594Z,6,GR86-016-55,0.6000000000000001,0.055,0.033,22.13,6.0,,0.0,0.0,
2025-08-15T01:40:31.637Z,6,GR86-016-55,0.6000000000000001,0.035,0.012,22.13,6.0,2778.0,0.0,0.0,
2025-08-15T01:40:31.680Z,6,GR86-016-55,0.6000000000000001,0.111,0.038,21.79,6.0,,0.0,0.0,91.62
2025-08-15T01:40:31.722Z,6,GR86-016-55,0.4,0.096,0.02,21.55,6.0,,0.0,0.0,
2025-08-15T01:40:31.766Z,6,GR86-016-55,-0.8,0.058,0.012,21.48,6.0,,0.0,0.0,
2025-08-15T01:40:31.808Z,6,GR86-016-55,-1.9,0.059,-0.006,21.46,6.0,,0.0,0.0,
2025-08-15T01:40:31.852Z,6,GR86-016-55,-2.1,0.077,-0.023,21.39,6.0,2783.0,0.0,0.0,
2025-08-15T01:40:31.895Z,6,GR86-016-55,-2.0,0.077,-0.031,21.33,6.0,,0.0,0.0,91.97
2025-08-15T01:40:31.938Z,6,GR86-016-55,-2.1,0.055,-0.047,21.26,6.0,,0.0,0.0,
2025-08-15T01:40:31.981Z,6,GR86-016-55,-2.1,0.091,-0.032,20.71,6.0,,0.0,0.0,
2025-08-15T01:40:32.024Z,6,GR86-016-55,-2.0,0.082,-0.048,20.67,6.0,,0.0,0.0,
2025-08-15T01:40:32.067Z,6,GR86-016-55,-1.8,0.068,-0.034,20.67,6.0,2847.0,0.0,0.0,
2025-08-15T01:40:32.110Z,6,GR86-016-55,-0.9,0.066,-0.003,20.65,6.0,,0.0,0.0,92.43
2025-08-15T01:40:32.152Z,6,GR86-016-55,-0.1,0.077,0.003,20.64,6.0,,0.0,0.0,
2025-08-15T01:40:32.196Z,6,GR86-016-55,0.7000000000000001,0.073,0.023,20.62,6.0,,0.0,0.0,
2025-08-15T01:40:32.240Z,6,GR86-016-55,1.3,0.034,0.042,20.61,6.0,,0.0,0.0,
2025-08-15T01:40:32.283Z,6,GR86-016-55,1.8,0.062,0.058,20.6,6.0,2843.0,0.0,0.0,
2025-08-15T01:40:32.326Z,6,GR86-016-55,1.9,0.074,0.068,20.61,6.0,,0.0,0.0,92.87
2025-08-15T01:40:32.368Z,6,GR86-016-55,1.9,0.077,0.07,20.59,6.0,,0.0,0.0,
2025-08-15T01:40:32.412Z,6,GR86-016-55,1.9,0.064,0.075,20.59,6.0,,0.0,0.0,
2025-08-15T01:40:32.455Z,6,GR86-016-55,1.8,0.077,0.082,20.58,6.0,,0.0,0.0,
2025-08-15T01:40:32.498Z,6,GR86-016-55,1.8,0.049,0.068,20.58,6.0,2836.0,0.0,0.0,
2025-08-15T01:40:32.541Z,6,GR86-016-55,1.7000000000000002,0.074,0.07,20.58,6.0,,0.0,0.0,93.3
2025-08-15T01:40:32.585Z,6,GR86-016-55,1.7000000000000002,0.063,0.067,20.61,6.0,,0.0,0.0,
2025-08-15T01:40:32.628Z,6,GR86-016-55,1.7000000000000002,0.062,0.069,20.62,6.0,,0.0,0.0,
2025-08-15T01:40:32.671Z,6,GR86-016-55,1.7000000000000002,0.068,0.051,20.46,6.0,,0.0,0.0,
2025-08-15T01:40:32.714Z,6,GR86-016-55,1.7000000000000002,0.052,0.05,3.87,6.0,2868.0,0.0,0.0,
2025-08-15T01:40:32.758Z,6,GR86-016-55,1.7000000000000002,0.076,0.051,4.1,6.0,,0.0,0.0,93.71
2025-08-15T01:40:32.801Z,6,GR86-016-55,1.7000000000000002,-0.021,0.055,4.08,6.0,,0.0,0.0,
2025-08-15T01:40:32.844Z,6,GR86-016-55,1.7000000000000002,-0.043,0.069,3.93,6.0,,0.0,0.0,
2025-08-15T01:40:32.887Z,6,GR86-016-55,1.7000000000000002,-0.159,0.048,3.72,6.0,,0.0,0.0,
2025-08-15T01:40:32.931Z,6,GR86-016-55,1.7000000000000002,-0.077,0.057,3.2,6.0,2873.0,0.0,0.0,
2025-08-15T01:40:32.975Z,6,GR86-016-55,1.7000000000000002,-0.04,0.045,3.04,6.0,,0.0,0.0,94.09
2025-08-15T01:40:33.018Z,6,GR86-016-55,1.7000000000000002,-0.045,0.028,2.96,6.0,,0.0,0.0,
2025-08-15T01:40:33.061Z,6,GR86-016-55,1.7000000000000002,-0.034,0.047,2.88,6.0,,0.0,0.0,
2025-08-15T01:40:33.104Z,6,GR86-016-55,1.7000000000000002,-0.057,0.02,2.85,6.0,,0.0,0.0,
2025-08-15T01:40:33.147Z,6,GR86-016-55,1.7000000000000002,-0.075,0.047,2.78,6.0,2761.0,0.0,0.0,
2025-08-15T01:40:33.190Z,6,GR86-016-55,1.7000000000000002,-0.091,0.034,2.71,6.0,,0.0,0.0,94.48
2025-08-15T01:40:33.234Z,6,GR86-016-55,1.7000000000000002,-0.02,0.048,2.68,6.0,,0.0,0.0,
2025-08-15T01:40:33.277Z,6,GR86-016-55,1.7000000000000002,-0.047,0.042,2.62,6.0,,0.0,0.0,
2025-08-15T01:40:33.320Z,6,GR86-016-55,1.7000000000000002,-0.05,0.044,2.59,6.0,,0.0,0.0,
2025-08-15T01:40:33.363Z,6,GR86-016-55,1.7000000000000002,-0.13,0.032,2.57,6.0,2897.0,0.0,0.0,
2025-08-15T01:40:33.406Z,6,GR86-016-55,1.7000000000000002,-0.082,0.04,2.56,6.0,,0.0,0.0,94.29
2025-08-15T01:40:33.448Z,6,GR86-016-55,1.7000000000000002,-0.033,0.037,2.54,6.0,,0.0,0.0,
2025-08-15T01:40:33.492Z,6,GR86-016-55,1.7000000000000002,-0.087,0.035,2.52,6.0,,0.0,0.0,
2025-08-15T01:40:33.535Z,6,GR86-016-55,1.7000000000000002,-0.089,0.045,2.52,6.0,,0.0,0.0,
2025-08-15T01:40:33.578Z,6,GR86-016-55,1.7000000000000002,-0.066,0.042,2.5,6.0,2907.0,0.0,0.0,
2025-08-15T01:40:33.621Z,6,GR86-016-55,1.7000000000000002,-0.05,0.04,2.49,6.0,,0.0,0.0,93.78
2025-08-15T01:40:33.664Z,6,GR86-016-55,1.7000000000000002,-0.088,0.029,2.49,6.0,,0.0,0.0,
2025-08-15T01:40:33.707Z,6,GR86-016-55,1.7000000000000002,-0.074,0.035,2.5,6.0,,0.0,0.0,
2025-08-15T01:40:33.750Z,6,GR86-016-55,1.7000000000000002,-0.056,0.023,2.48,6.0,,0.0,0.0,
2025-08-15T01:40:33.793Z,6,GR86-016-55,1.7000000000000002,-0.082,0.023,2.48,6.0,2860.0,0.0,0.0,
2025-08-15T01:40:33.836Z,6,GR86-016-55,1.7000000000000002,-0.082,0.023,2.46,6.0,,0.0,0.0,92.59
2025-08-15T01:40:33.878Z,6,GR86-016-55,1.7000000000000002,-0.082,0.023,2.46,6.0,,0.0,0.0,
2025-08-15T01:40:33.922Z,6,GR86-016-55,1.7000000000000002,-0.066,0.025,2.46,6.0,,0.0,0.0,
2025-08-15T01:40:33.965Z,6,GR86-016-55,1.7000000000000002,-0.079,0.026,2.48,6.0,,0.0,0.0,
2025-08-15T01:40:34.008Z,6,GR86-016-55,1.7000000000000002,-0.069,0.04,2.46,6.0,2800.0,0.0,0.0,
2025-08-15T01:40:34.051Z,6,GR86-016-55,1.7000000000000002,-0.076,0.038,2.46,6.0,,0.0,0.0,91.99
2025-08-15T01:40:34.094Z,6,GR86-016-55,1.7000000000000002,-0.063,0.054,2.46,6.0,,0.0,0.0,
2025-08-15T01:40:34.137Z,6,GR86-016-55,1.7000000000000002,-0.073,0.034,2.46,6.0,,0.0,0.0,
2025-08-15T01:40:34.180Z,6,GR86-016-55,1.7000000000000002,-0.064,0.046,2.46,6.0,,0.0,0.0,
2025-08-15T01:40:34.225Z,6,GR86-016-55,1.7000000000000002,-0.068,0.035,2.48,6.0,2768.0,0.0,0.0,
2025-08-15T01:40:34.268Z,6,GR86-016-55,1.7000000000000002,-0.065,0.04,2.51,6.0,,0.0,0.0,91.43
2025-08-15T01:40:34.311Z,6,GR86-016-55,1.7000000000000002,-0.076,0.028,2.53,6.0,,0.0,0.0,
2025-08-15T01:40:34.354Z,6,GR86-016-55,1.7000000000000002,-0.078,0.032,2.5500000000000003,6.0,,0.0,0.0,
2025-08-15T01:40:34.397Z,6,GR86-016-55,1.7000000000000002,-0.074,0.031,2.58,6.0,,0.0,0.0,
2025-08-15T01:40:34.440Z,6,GR86-016-55,1.7000000000000002,-0.076,0.031,2.62,6.0,2746.0,0.0,0.0,
2025-08-15T01:40:34.486Z,6,GR86-016-55,1.7000000000000002,-0.073,0.027,2.68,6.0,,0.0,0.0,90.85
2025-08-15T01:40:34.529Z,6,GR86-016-55,1.7000000000000002,-0.068,0.029,2.71,6.0,,0.0,0.0,
2025-08-15T01:40:34.572Z,6,GR86-016-55,1.7000000000000002,-0.062,0.029,2.78,6.0,,0.0,0.0,
2025-08-15T01:40:34.615Z,6,GR86-016-55,1.7000000000000002,-0.075,0.032,2.8000000000000003,6.0,,0.0,0.0,
2025-08-15T01:40:34.658Z,6,GR86-016-55,1.7000000000000002,-0.064,0.037,2.84,6.0,2729.0,0.0,0.0,
2025-08-15T01:40:34.701Z,6,GR86-016-55,1.7000000000000002,-0.083,0.033,2.86,6.0,,0.0,0.0,90.29
2025-08-15T01:40:34.744Z,6,GR86-016-55,1.7000000000000002,-0.068,0.037,2.88,6.0,,0.0,0.0,
2025-08-15T01:40:34.787Z,6,GR86-016-55,1.7000000000000002,-0.075,0.039,2.9,6.0,,0.0,0.0,
2025-08-15T01:40:34.832Z,6,GR86-016-55,1.7000000000000002,-0.068,0.045,2.91,6.0,,0.0,0.0,
2025-08-15T01:40:34.875Z,6,GR86-016-55,1.7000000000000002,-0.075,0.037,2.94,6.0,2717.0,0.0,0.0,
2025-08-15T01:40:34.918Z,6,GR86-016-55,1.7000000000000002,-0.072,0.039,2.94,6.0,,0.0,0.0,89.76
2025-08-15T01:40:34.961Z,6,GR86-016-55,1.7000000000000002,-0.075,0.029,2.96,6.0,,0.0,0.0,
2025-08-15T01:40:35.004Z,6,GR86-016-55,1.7000000000000002,-0.063,0.03,2.97,6.0,,0.0,0.0,
2025-08-15T01:40:35.047Z,6,GR86-016-55,1.7000000000000002,-0.076,0.028,2.98,6.0,,0.0,0.0,
2025-08-15T01:40:35.090Z,6,GR86-016-55,1.7000000000000002,-0.082,0.033,2.97,6.0,2699.0,0.0,0.0,
2025-08-15T01:40:35.133Z,6,GR86-016-55,1.7000000000000002,-0.073,0.03,2.95,6.0,,0.0,0.0,89.25
2025-08-15T01:40:35.176Z,6,GR86-016-55,1.7000000000000002,-0.077,0.038,2.95,6.0,,0.0,0.0,
2025-08-15T01:40:35.218Z,6,GR86-016-55,1.7000000000000002,-0.075,0.035,2.95,6.0,,0.0,0.0,
2025-08-15T01:40:35.262Z,6,GR86-016-55,1.7000000000000002,-0.07,0.042,2.94,6.0,,0.0,0.0,
2025-08-15T01:40:35.305Z,6,GR86-016-55,1.7000000000000002,-0.075,0.036,2.94,6.0,2682.0,0.0,0.0,
2025-08-15T01:40:35.348Z,6,GR86-016-55,1.7000000000000002,-0.076,0.035,2.95,6.0,,0.0,0.0,88.73
2025-08-15T01:40:35.391Z,6,GR86-016-55,1.3,-0.067,0.039,2.94,6.0,,0.0,0.0,
2025-08-15T01:40:35.434Z,6,GR86-016-55,1.0,-0.082,0.036,2.95,6.0,,0.0,0.0,
2025-08-15T01:40:35.477Z,6,GR86-016-55,0.9,-0.069,0.016,2.95,6.0,,0.0,0.0,
2025-08-15T01:40:35.520Z,6,GR86-016-55,0.7000000000000001,-0.081,0.019,2.94,6.0,2670.0,0.0,0.0,
2025-08-15T01:40:35.563Z,6,GR86-016-55,0.7000000000000001,-0.071,0.014,2.94,6.0,,0.0,0.0,88.23
2025-08-15T01:40:35.606Z,6,GR86-016-55,0.6000000000000001,-0.082,0.006,2.95,6.0,,0.0,0.0,
2025-08-15T01:40:35.648Z,6,GR86-016-55,0.5,-0.069,-0.004,2.95,6.0,,0.0,0.0,
2025-08-15T01:40:35.692Z,6,GR86-016-55,0.5,-0.077,0.006,2.96,6.0,,0.0,0.0,
2025-08-15T01:40:35.735Z,6,GR86-016-55,0.5,-0.068,0.001,2.98,6.0,2653.0,0.0,0.0,
2025-08-15T01:40:35.778Z,6,GR86-016-55,0.4,-0.08,-0.007,3.06,6.0,,0.0,0.0,87.74
2025-08-15T01:40:35.821Z,6,GR86-016-55,0.4,-0.065,0.0,3.1,6.0,,0.0,0.0,
2025-08-15T01:40:35.864Z,6,GR86-016-55,0.4,-0.073,-0.01,3.17,6.0,,0.0,0.0,
2025-08-15T01:40:35.907Z,6,GR86-016-55,0.4,-0.073,-0.001,3.21,6.0,,0.0,0.0,
2025-08-15T01:40:35.950Z,6,GR86-016-55,0.4,-0.077,-0.005,3.3000000000000003,6.0,2638.0,0.0,0.0,
2025-08-15T01:40:35.993Z,6,GR86-016-55,0.4,-0.063,-0.007,3.36,6.0,,0.0,0.0,87.24
2025-08-15T01:40:36.037Z,6,GR86-016-55,0.4,-0.07,0.003,3.38,6.0,,0.0,0.0,
2025-08-15T01:40:36.080Z,6,GR86-016-55,0.4,-0.066,0.003,3.39,6.0,,0.0,0.0,
2025-08-15T01:40:36.123Z,6,GR86-016-55,0.4,-0.075,0.009,3.45,6.0,,0.0,0.0,
2025-08-15T01:40:36.166Z,6,GR86-016-55,0.4,-0.072,0.011,3.46,6.0,2625.0,0.0,0.0,
2025-08-15T01:40:36.208Z,6,GR86-016-55,0.4,-0.074,0.012,3.56,6.0,,0.0,0.0,86.77
2025-08-15T01:40:36.252Z,6,GR86-016-55,0.4,-0.064,0.003,3.72,6.0,,0.0,0.0,
2025-08-15T01:40:36.295Z,6,GR86-016-55,0.4,-0.075,0.0,4.15,6.0,,0.0,0.0,
2025-08-15T01:40:36.338Z,6,GR86-016-55,0.4,-0.064,0.0,4.53,6.0,,0.0,0.0,
2025-08-15T01:40:36.381Z,6,GR86-016-55,0.4,-0.072,0.012,4.68,6.0,2614.0,0.0,0.0,
2025-08-15T01:40:36.424Z,6,GR86-016-55,0.4,-0.036,0.011,4.72,6.0,,0.0,0.0,86.31
2025-08-15T01:40:36.467Z,6,GR86-016-55,0.4,-0.074,0.02,4.79,6.0,,0.0,0.0,
2025-08-15T01:40:36.510Z,6,GR86-016-55,0.4,-0.07,0.011,4.8500000000000005,6.0,,0.0,0.0,
2025-08-15T01:40:36.552Z,6,GR86-016-55,0.4,-0.035,0.018,4.86,6.0,,0.0,0.0,
2025-08-15T01:40:36.596Z,6,GR86-016-55,0.4,-0.038,0.013,4.88,6.0,2600.0,0.0,0.0,
2025-08-15T01:40:36.638Z,6,GR86-016-55,0.4,-0.045,0.02,4.91,6.0,,0.0,0.0,85.38
2025-08-15T01:40:36.682Z,6,GR86-016-55,0.4,-0.062,0.024,4.98,6.0,,0.0,0.0,
2025-08-15T01:40:36.725Z,6,GR86-016-55,0.4,-0.122,0.021,5.0200000000000005,6.0,,0.0,0.0,
2025-08-15T01:40:36.768Z,6,GR86-016-55,0.4,-0.048,0.025,5.05,6.0,,0.0,0.0,
2025-08-15T01:40:36.811Z,6,GR86-016-55,0.4,-0.052,0.017,5.09,6.0,2596.0,0.0,0.0,
2025-08-15T01:40:36.854Z,6,GR86-016-55,0.4,-0.073,0.009,5.08,6.0,,0.0,0.0,84.97
2025-08-15T01:40:36.897Z,6,GR86-016-55,0.4,-0.083,0.015,5.08,6.0,,0.0,0.0,
2025-08-15T01:40:36.940Z,6,GR86-016-55,0.4,-0.042,0.006,5.07,6.0,,0.0,0.0,
2025-08-15T01:40:36.983Z,6,GR86-016-55,0.4,-0.059,0.01,5.08,6.0,,0.0,0.0,
2025-08-15T01:40:37.026Z,6,GR86-016-55,0.4,-0.06,0.002,5.08,6.0,2578.0,0.0,0.0,
2025-08-15T01:40:37.068Z,6,GR86-016-55,0.3,-0.073,0.007,5.08,6.0,,0.0,0.0,84.62
2025-08-15T01:40:37.112Z,6,GR86-016-55,-1.2000000000000002,-0.057,-0.007,5.05,6.0,,0.0,0.0,
2025-08-15T01:40:37.155Z,6,GR86-016-55,-1.9,-0.061,-0.025,5.14,6.0,,0.0,0.0,
2025-08-15T01:40:37.198Z,6,GR86-016-55,-2.1,-0.05,-0.027,5.62,6.0,,0.0,0.0,
2025-08-15T01:40:37.241Z,6,GR86-016-55,-2.1,-0.067,-0.048,5.95,6.0,2546.0,0.0,0.0,
2025-08-15T01:40:37.287Z,6,GR86-016-55,-2.1,-0.072,-0.032,6.63,6.0,,0.0,0.0,84.23
2025-08-15T01:40:37.332Z,6,GR86-016-55,-2.1,-0.06,-0.043,7.01,6.0,,0.0,0.0,
2025-08-15T01:40:37.375Z,6,GR86-016-55,-2.1,-0.049,-0.031,7.140000000000001,6.0,,0.0,0.0,
2025-08-15T01:40:37.418Z,6,GR86-016-55,-2.1,-0.073,-0.032,7.52,6.0,,0.0,0.0,
2025-08-15T01:40:37.461Z,6,GR86-016-55,-2.1,-0.057,-0.017,7.62,6.0,2537.0,0.0,0.0,
2025-08-15T01:40:37.504Z,6,GR86-016-55,-2.1,-0.054,-0.027,8.2,6.0,,0.0,0.0,83.86
2025-08-15T01:40:37.547Z,6,GR86-016-55,-2.1,-0.049,-0.017,8.52,6.0,,0.0,0.0,
2025-08-15T01:40:37.590Z,6,GR86-016-55,-1.9,-0.07,-0.009,10.59,6.0,,0.0,0.0,
2025-08-15T01:40:37.635Z,6,GR86-016-55,-1.4,-0.043,-0.003,11.17,6.0,,0.0,0.0,
2025-08-15T01:40:37.678Z,6,GR86-016-55,-0.9,-0.033,0.0,13.06,6.0,2522.0,0.0,0.0,
2025-08-15T01:40:37.721Z,6,GR86-016-55,-0.2,-0.04,0.007,16.38,6.0,,0.0,0.0,83.49
2025-08-15T01:40:37.764Z,6,GR86-016-55,-0.1,0.006,0.015,16.77,6.0,,0.0,0.0,
2025-08-15T01:40:37.807Z,6,GR86-016-55,0.0,0.062,0.023,16.77,6.0,,0.0,0.0,
2025-08-15T01:40:37.850Z,6,GR86-016-55,0.1,-0.03,0.032,18.54,6.0,,0.0,0.0,
2025-08-15T01:40:37.894Z,6,GR86-016-55,0.2,-0.017,0.03,18.6,6.0,2522.0,0.0,0.0,
2025-08-15T01:40:37.937Z,6,GR86-016-55,0.2,0.154,0.054,18.58,6.0,,0.0,0.0,83.15
2025-08-15T01:40:37.980Z,6,GR86-016-55,0.2,0.089,0.053,18.58,6.0,,0.0,0.0,
2025-08-15T01:40:38.023Z,6,GR86-016-55,0.2,-0.026,0.047,18.66,6.0,,0.0,0.0,
2025-08-15T01:40:38.066Z,6,GR86-016-55,0.2,0.033,0.044,18.89,6.0,,0.0,0.0,
2025-08-15T01:40:38.108Z,6,GR86-016-55,0.2,0.128,0.032,18.89,6.0,2439.0,0.0,0.0,
2025-08-15T01:40:38.152Z,6,GR86-016-55,-0.1,0.038,0.027,18.93,6.0,,0.0,0.0,82.88
2025-08-15T01:40:38.195Z,6,GR86-016-55,-0.1,0.03,0.007,18.96,6.0,,0.0,0.0,
2025-08-15T01:40:38.238Z,6,GR86-016-55,-0.1,0.102,0.011,18.92,6.0,,0.0,0.0,
2025-08-15T01:40:38.281Z,6,GR86-016-55,-0.1,0.073,0.012,18.76,6.0,,0.0,0.0,
2025-08-15T01:40:38.324Z,6,GR86-016-55,-0.1,0.032,0.01,18.66,6.0,2468.0,0.0,0.0,
2025-08-15T01:40:38.367Z,6,GR86-016-55,-0.1,0.056,-0.001,18.59,6.0,,0.0,0.0,82.96000000000001
2025-08-15T01:40:38.410Z,6,GR86-016-55,-0.1,0.088,0.014,17.44,6.0,,0.0,0.0,
2025-08-15T01:40:38.452Z,6,GR86-016-55,-0.1,0.048,0.012,17.27,6.0,,0.0,0.0,
2025-08-15T01:40:38.496Z,6,GR86-016-55,-0.1,0.051,0.019,16.64,6.0,,0.0,0.0,
2025-08-15T01:40:38.539Z,6,GR86-016-55,-0.1,0.07,0.014,16.45,6.0,2592.0,0.0,0.0,
2025-08-15T01:40:38.582Z,6,GR86-016-55,-0.1,0.061,0.023,16.39,6.0,,0.0,0.0,83.43
2025-08-15T01:40:38.625Z,6,GR86-016-55,0.0,0.039,0.017,16.38,6.0,,0.0,0.0,
2025-08-15T01:40:38.668Z,6,GR86-016-55,0.1,0.049,0.017,16.37,6.0,,0.0,0.0,
2025-08-15T01:40:38.712Z,6,GR86-016-55,0.1,0.063,0.024,16.2,6.0,,0.0,0.0,
2025-08-15T01:40:38.755Z,6,GR86-016-55,0.1,0.052,0.03,16.0,6.0,2568.0,0.0,0.0,
2025-08-15T01:40:38.798Z,6,GR86-016-55,0.1,0.043,0.023,16.04,6.0,,0.0,0.0,83.93
2025-08-15T01:40:38.841Z,6,GR86-016-55,0.1,0.053,0.023,16.04,6.0,,0.0,0.0,
2025-08-15T01:40:38.885Z,6,GR86-016-55,0.1,0.043,0.03,16.06,6.0,,0.0,0.0,
2025-08-15T01:40:38.928Z,6,GR86-016-55,0.1,0.041,0.024,15.98,6.0,,0.0,0.0,
2025-08-15T01:40:38.971Z,6,GR86-016-55,0.1,0.052,0.035,15.71,6.0,2569.0,0.0,0.0,
2025-08-15T01:40:39.014Z,6,GR86-016-55,0.1,0.061,0.033,15.61,6.0,,0.0,0.0,84.43
2025-08-15T01:40:39.057Z,6,GR86-016-55,0.1,0.041,0.021,15.55,6.0,,0.0,0.0,
2025-08-15T01:40:39.101Z,6,GR86-016-55,0.1,0.035,0.023,15.55,6.0,,0.0,0.0,
2025-08-15T01:40:39.144Z,6,GR86-016-55,0.1,0.047,0.017,15.28,6.0,,0.0,0.0,
2025-08-15T01:40:39.187Z,6,GR86-016-55,0.1,0.046,0.023,15.22,6.0,2599.0,0.0,0.0,
2025-08-15T01:40:39.232Z,6,GR86-016-55,0.1,0.024,0.022,15.2,6.0,,0.0,0.0,85.31
2025-08-15T01:40:39.275Z,6,GR86-016-55,0.1,0.055,0.022,15.2,6.0,,0.0,0.0,
2025-08-15T01:40:39.318Z,6,GR86-016-55,0.1,0.051,0.025,15.18,6.0,,0.0,0.0,
2025-08-15T01:40:39.361Z,6,GR86-016-55,0.1,0.039,0.03,15.16,6.0,,0.0,0.0,
2025-08-15T01:40:39.404Z,6,GR86-016-55,0.1,0.035,0.03,15.16,6.0,2606.0,0.0,0.0,
2025-08-15T01:40:39.447Z,6,GR86-016-55,0.1,0.048,0.03,15.1,6.0,,0.0,0.0,85.7
2025-08-15T01:40:39.490Z,6,GR86-016-55,0.1,0.028,0.034,15.1,6.0,,0.0,0.0,
2025-08-15T01:40:39.534Z,6,GR86-016-55,0.1,0.043,0.041,15.13,6.0,,0.0,0.0,
2025-08-15T01:40:39.577Z,6,GR86-016-55,0.1,0.042,0.039,15.13,6.0,,0.0,0.0,
2025-08-15T01:40:39.620Z,6,GR86-016-55,0.1,0.046,0.029,15.13,6.0,2607.0,0.0,0.0,
2025-08-15T01:40:39.663Z,6,GR86-016-55,0.1,0.033,0.029,15.16,6.0,,0.0,0.0,86.12
2025-08-15T01:40:39.706Z,6,GR86-016-55,0.1,0.033,0.02,15.2,6.0,,0.0,0.0,
2025-08-15T01:40:39.748Z,6,GR86-016-55,0.1,0.044,0.016,15.2,6.0,,0.0,0.0,
2025-08-15T01:40:39.792Z,6,GR86-016-55,0.1,0.038,0.022,15.23,6.0,,0.0,0.0,
2025-08-15T01:40:39.835Z,6,GR86-016-55,0.1,0.022,0.015,15.26,6.0,2639.0,0.0,0.0,
2025-08-15T01:40:39.878Z,6,GR86-016-55,0.1,0.038,0.019,15.29,6.0,,0.0,0.0,86.49
2025-08-15T01:40:39.921Z,6,GR86-016-55,0.1,0.038,0.02,15.29,6.0,,0.0,0.0,
2025-08-15T01:40:39.964Z,6,GR86-016-55,0.1,0.047,0.022,15.29,6.0,,0.0,0.0,
2025-08-15T01:40:40.007Z,6,GR86-016-55,0.1,0.033,0.025,15.32,6.0,,0.0,0.0,
2025-08-15T01:40:40.050Z,6,GR86-016-55,0.1,0.035,0.011,15.32,6.0,2642.0,0.0,0.0,
2025-08-15T01:40:40.093Z,6,GR86-016-55,0.1,0.04,0.014,15.32,6.0,,0.0,0.0,86.83
2025-08-15T01:40:40.136Z,6,GR86-016-55,0.1,0.036,0.007,15.35,6.0,,0.0,0.0,
2025-08-15T01:40:40.180Z,6,GR86-016-55,0.1,0.028,0.012,15.42,6.0,,0.0,0.0,
2025-08-15T01:40:40.224Z,6,GR86-016-55,0.1,0.048,0.016,15.45,6.0,,0.0,0.0,
2025-08-15T01:40:40.267Z,6,GR86-016-55,0.1,0.033,0.021,15.48,6.0,2668.0,0.0,0.0,
2025-08-15T01:40:40.310Z,6,GR86-016-55,0.1,0.026,0.027,15.55,6.0,,0.0,0.0,87.17
2025-08-15T01:40:40.353Z,6,GR86-016-55,0.1,0.057,0.025,15.58,6.0,,0.0,0.0,
2025-08-15T01:40:40.396Z,6,GR86-016-55,0.1,0.04,0.025,15.62,6.0,,0.0,0.0,
2025-08-15T01:40:40.438Z,6,GR86-016-55,0.1,0.042,0.014,15.51,6.0,,0.0,0.0,
2025-08-15T01:40:40.482Z,6,GR86-016-55,0.1,0.04,0.02,15.45,6.0,2679.0,0.0,0.0,
2025-08-15T01:40:40.525Z,6,GR86-016-55,0.1,0.039,0.008,15.22,6.0,,0.0,0.0,87.54
2025-08-15T01:40:40.568Z,6,GR86-016-55,0.1,0.029,0.008,14.64,6.0,,0.0,0.0,
2025-08-15T01:40:40.612Z,6,GR86-016-55,0.1,0.056,0.006,11.11,6.0,,0.0,0.0,
2025-08-15T01:40:40.655Z,6,GR86-016-55,0.1,0.041,0.019,10.08,6.0,,0.0,0.0,
2025-08-15T01:40:40.698Z,6,GR86-016-55,0.1,0.029,0.011,9.71,6.0,2680.0,0.0,0.0,
2025-08-15T01:40:40.742Z,6,GR86-016-55,0.1,0.02,0.008,9.72,6.0,,0.0,0.0,87.88
2025-08-15T01:40:40.786Z,6,GR86-016-55,0.1,0.019,0.014,9.72,6.0,,0.0,0.0,
2025-08-15T01:40:40.828Z,6,GR86-016-55,0.1,0.01,0.004,9.77,6.0,,0.0,0.0,
2025-08-15T01:40:40.872Z,6,GR86-016-55,0.1,0.002,0.007,9.83,6.0,,0.0,0.0,
2025-08-15T01:40:40.915Z,6,GR86-016-55,0.1,-0.005,0.0,9.77,6.0,2702.0,0.0,0.0,
2025-08-15T01:40:40.958Z,6,GR86-016-55,0.1,-0.014,0.015,9.84,6.0,,0.0,0.0,88.21000000000001
2025-08-15T01:40:41.001Z,6,GR86-016-55,0.1,-0.023,-0.008,9.81,6.0,,0.0,0.0,
2025-08-15T01:40:41.044Z,6,GR86-016-55,0.1,-0.013,-0.004,9.4,6.0,,0.0,0.0,
2025-08-15T01:40:41.087Z,6,GR86-016-55,0.1,-0.016,0.007,8.2,6.0,,0.0,0.0,
2025-08-15T01:40:41.131Z,6,GR86-016-55,0.1,-0.014,0.007,6.72,6.0,2701.0,0.0,0.0,
2025-08-15T01:40:41.175Z,6,GR86-016-55,0.1,-0.015,0.008,6.72,6.0,,0.0,0.0,88.51
2025-08-15T01:40:41.218Z,6,GR86-016-55,0.1,-0.019,0.011,6.62,6.0,,0.0,0.0,
2025-08-15T01:40:41.261Z,6,GR86-016-55,0.1,-0.02,-0.006,6.390000000000001,6.0,,0.0,0.0,
2025-08-15T01:40:41.304Z,6,GR86-016-55,0.1,-0.037,0.006,6.08,6.0,,0.0,0.0,
2025-08-15T01:40:41.347Z,6,GR86-016-55,0.1,-0.045,-0.009,5.76,6.0,2700.0,0.0,0.0,
2025-08-15T01:40:41.390Z,6,GR86-016-55,0.0,-0.054,0.007,5.48,6.0,,0.0,0.0,88.69
2025-08-15T01:40:41.433Z,6,GR86-016-55,-0.1,-0.074,-0.015,5.24,6.0,,0.0,0.0,
2025-08-15T01:40:41.476Z,6,GR86-016-55,-0.1,-0.136,0.001,5.16,6.0,,0.0,0.0,
2025-08-15T01:40:41.520Z,6,GR86-016-55,-0.1,-0.024,-0.006,5.11,6.0,,0.0,0.0,
2025-08-15T01:40:41.563Z,6,GR86-016-55,-0.1,-0.051,-0.005,5.09,6.0,2700.0,0.0,0.0,
2025-08-15T01:40:41.606Z,6,GR86-016-55,-0.1,-0.041,-0.01,5.05,6.0,,0.0,0.0,88.72
2025-08-15T01:40:41.648Z,6,GR86-016-55,-0.2,-0.043,-0.011,5.0200000000000005,6.0,,0.0,0.0,
2025-08-15T01:40:41.692Z,6,GR86-016-55,-0.3,-0.036,-0.019,5.01,6.0,,0.0,0.0,
2025-08-15T01:40:41.735Z,6,GR86-016-55,-0.4,-0.159,-0.016,4.99,6.0,,0.0,0.0,
2025-08-15T01:40:41.778Z,6,GR86-016-55,-0.4,-0.069,-0.018,4.98,6.0,2595.0,0.0,0.0,
2025-08-15T01:40:41.821Z,6,GR86-016-55,-0.4,-0.038,-0.004,4.98,6.0,,0.0,0.0,88.74
2025-08-15T01:40:41.864Z,6,GR86-016-55,-0.4,-0.035,-0.014,4.97,6.0,,0.0,0.0,
2025-08-15T01:40:41.907Z,6,GR86-016-55,-0.5,-0.04,-0.005,4.96,6.0,,0.0,0.0,
2025-08-15T01:40:41.950Z,6,GR86-016-55,-0.5,-0.131,-0.019,4.95,6.0,,0.0,0.0,
2025-08-15T01:40:41.993Z,6,GR86-016-55,-0.5,-0.065,-0.014,4.95,6.0,2678.0,0.0,0.0,
2025-08-15T01:40:42.037Z,6,GR86-016-55,-0.5,-0.04,-0.016,4.95,6.0,,0.0,0.0,88.04
2025-08-15T01:40:42.080Z,6,GR86-016-55,-0.5,-0.048,-0.018,4.94,6.0,,0.0,0.0,
2025-08-15T01:40:42.123Z,6,GR86-016-55,-0.5,-0.101,-0.022,4.95,6.0,,0.0,0.0,
2025-08-15T01:40:42.166Z,6,GR86-016-55,-0.5,-0.084,-0.026,4.95,6.0,,0.0,0.0,
2025-08-15T01:40:42.208Z,6,GR86-016-55,-0.5,-0.043,-0.015,4.95,6.0,2710.0,0.0,0.0,
2025-08-15T01:40:42.252Z,6,GR86-016-55,-0.5,-0.07,-0.012,4.95,6.0,,0.0,0.0,87.66
2025-08-15T01:40:42.295Z,6,GR86-016-55,-0.5,-0.09,-0.009,4.94,6.0,,0.0,0.0,
2025-08-15T01:40:42.338Z,6,GR86-016-55,-0.5,-0.07,-0.007,4.94,6.0,,0.0,0.0,
2025-08-15T01:40:42.381Z,6,GR86-016-55,-0.5,-0.047,-0.005,4.94,6.0,,0.0,0.0,
2025-08-15T01:40:42.424Z,6,GR86-016-55,-0.5,-0.068,-0.013,4.95,6.0,2688.0,0.0,0.0,
