timestamp,lap,vehicle_id,steering_angle,accx_can,accy_can,ath,gear,nmot,pbrake_f,pbrake_r,speed
2025-08-15T03:27:00.237Z,7,GR86-063-113,5.2,-0.148,0.042,2.97,3.0,,1.86,2.015,
2025-08-15T03:27:00.280Z,7,GR86-063-113,5.2,-0.135,0.048,2.74,3.0,4065.0,2.795,2.76,
2025-08-15T03:27:00.326Z,7,GR86-063-113,5.2,-0.125,0.07,2.67,3.0,,2.67,2.76,89.65
2025-08-15T03:27:00.368Z,7,GR86-063-113,5.1000000000000005,-0.166,0.05,2.57,3.0,,2.67,3.1,
2025-08-15T03:27:00.411Z,7,GR86-063-113,5.2,-0.151,0.066,2.54,3.0,,2.67,2.825,
2025-08-15T03:27:00.457Z,7,GR86-063-113,5.1000000000000005,-0.169,0.038,2.49,3.0,,2.67,2.73,
2025-08-15T03:27:00.500Z,7,GR86-063-113,5.1000000000000005,-0.132,0.052,2.47,3.0,4032.0,0.0,0.0,
2025-08-15T03:27:00.544Z,7,GR86-063-113,5.2,-0.12,0.026,2.45,3.0,,0.0,0.0,88.87
2025-08-15T03:27:00.586Z,7,GR86-063-113,5.2,-0.1,0.037,2.45,3.0,,0.0,0.0,
2025-08-15T03:27:00.629Z,7,GR86-063-113,5.2,-0.114,0.042,2.44,3.0,,0.0,0.0,
2025-08-15T03:27:00.674Z,7,GR86-063-113,5.2,-0.113,0.037,2.43,3.0,,0.0,0.0,
2025-08-15T03:27:00.717Z,7,GR86-063-113,5.2,-0.112,0.019,2.43,3.0,4005.0,0.0,0.0,
2025-08-15T03:27:00.760Z,7,GR86-063-113,5.2,-0.098,0.051,2.43,3.0,,0.0,0.0,87.82000000000001
2025-08-15T03:27:00.804Z,7,GR86-063-113,5.2,-0.111,0.037,2.42,3.0,,0.0,0.0,
2025-08-15T03:27:00.846Z,7,GR86-063-113,5.2,-0.096,0.052,2.45,3.0,,0.0,0.0,
2025-08-15T03:27:00.889Z,7,GR86-063-113,5.2,-0.11,0.051,2.65,3.0,,0.0,0.0,
2025-08-15T03:27:00.934Z,7,GR86-063-113,5.2,-0.117,0.06,2.88,3.0,3970.0,0.0,0.0,
2025-08-15T03:27:01.020Z,7,GR86-063-113,5.2,-0.099,0.052,3.04,3.0,,0.0,0.0,87.05
2025-08-15T03:27:01.106Z,7,GR86-063-113,5.2,-0.106,0.039,3.03,3.0,,0.0,0.0,
2025-08-15T03:27:01.149Z,7,GR86-063-113,5.2,-0.108,0.044,2.92,3.0,3939.0,2.825,3.1,
2025-08-15T03:27:01.236Z,7,GR86-063-113,5.2,-0.225,0.051,2.77,3.0,,8.09,7.98,86.3
2025-08-15T03:27:01.279Z,7,GR86-063-113,5.300000000000001,-0.247,0.051,2.74,3.0,,8.27,8.67,
2025-08-15T03:27:01.325Z,7,GR86-063-113,5.2,-0.224,0.031,2.69,3.0,,7.92,8.33,
2025-08-15T03:27:01.368Z,7,GR86-063-113,5.2,-0.247,0.056,2.65,3.0,3905.0,8.27,8.485,
2025-08-15T03:27:01.411Z,7,GR86-063-113,5.2,-0.248,0.038,2.62,3.0,,7.92,8.24,85.55
2025-08-15T03:27:01.458Z,7,GR86-063-113,5.2,-0.252,0.047,2.58,3.0,,7.98,8.33,
2025-08-15T03:27:01.501Z,7,GR86-063-113,5.2,-0.221,0.051,2.56,3.0,,7.645,7.98,
2025-08-15T03:27:01.544Z,7,GR86-063-113,5.2,-0.233,0.058,2.5500000000000003,3.0,,6.03,6.575,
2025-08-15T03:27:01.587Z,7,GR86-063-113,5.2,-0.192,0.031,2.5500000000000003,3.0,3826.0,3.035,3.495,
2025-08-15T03:27:01.630Z,7,GR86-063-113,5.2,-0.143,0.041,2.5500000000000003,3.0,,0.0,0.0,82.63
2025-08-15T03:27:01.674Z,7,GR86-063-113,5.2,-0.1,0.047,2.53,3.0,,0.0,0.0,
2025-08-15T03:27:01.717Z,7,GR86-063-113,5.2,-0.092,0.048,2.54,3.0,,0.0,0.0,
2025-08-15T03:27:01.760Z,7,GR86-063-113,5.2,-0.099,0.043,2.5500000000000003,3.0,,0.0,0.0,
2025-08-15T03:27:01.804Z,7,GR86-063-113,5.1000000000000005,-0.101,0.052,2.56,3.0,3750.0,0.0,0.0,
2025-08-15T03:27:01.889Z,7,GR86-063-113,5.1000000000000005,-0.091,0.056,2.53,3.0,,0.0,0.0,81.57000000000001
2025-08-15T03:27:01.933Z,7,GR86-063-113,5.1000000000000005,-0.096,0.04,2.53,3.0,,0.0,0.0,
2025-08-15T03:27:01.976Z,7,GR86-063-113,5.1000000000000005,-0.101,0.058,2.5500000000000003,3.0,,0.0,0.0,
2025-08-15T03:27:02.019Z,7,GR86-063-113,5.1000000000000005,-0.123,0.03,2.54,3.0,3687.0,0.0,0.0,
2025-08-15T03:27:02.107Z,7,GR86-063-113,5.2,-0.116,0.042,2.53,3.0,,0.0,0.0,80.84
2025-08-15T03:27:02.150Z,7,GR86-063-113,5.2,-0.112,0.031,2.54,3.0,,0.0,0.0,
2025-08-15T03:27:02.194Z,7,GR86-063-113,5.1000000000000005,-0.141,0.013,2.5500000000000003,3.0,,0.0,0.0,
2025-08-15T03:27:02.236Z,7,GR86-063-113,5.1000000000000005,-0.119,0.035,2.5500000000000003,3.0,3650.0,0.0,0.0,
2025-08-15T03:27:02.280Z,7,GR86-063-113,5.1000000000000005,-0.117,0.019,2.5500000000000003,3.0,,0.0,0.0,80.10000000000001
2025-08-15T03:27:02.323Z,7,GR86-063-113,5.1000000000000005,-0.096,0.023,2.5500000000000003,3.0,,0.0,0.0,
2025-08-15T03:27:02.365Z,7,GR86-063-113,5.1000000000000005,-0.116,0.026,2.5500000000000003,3.0,,0.0,0.0,
2025-08-15T03:27:02.408Z,7,GR86-063-113,5.1000000000000005,-0.121,0.017,2.56,3.0,,0.0,0.0,
2025-08-15T03:27:02.451Z,7,GR86-063-113,5.0,-0.099,0.025,2.58,3.0,3616.0,0.0,0.0,
2025-08-15T03:27:02.494Z,7,GR86-063-113,5.0,-0.094,0.01,2.58,3.0,,0.0,0.0,79.34
2025-08-15T03:27:02.537Z,7,GR86-063-113,4.9,-0.097,0.026,2.77,3.0,,0.0,0.0,
2025-08-15T03:27:02.580Z,7,GR86-063-113,4.9,-0.11,0.017,3.14,3.0,,0.0,0.0,
2025-08-15T03:27:02.625Z,7,GR86-063-113,4.9,-0.108,0.011,3.26,3.0,,0.0,0.0,
2025-08-15T03:27:02.668Z,7,GR86-063-113,4.800000000000001,-0.102,0.014,3.35,3.0,3585.0,0.0,0.0,
2025-08-15T03:27:02.711Z,7,GR86-063-113,4.800000000000001,-0.092,0.028,3.85,3.0,,0.0,0.0,78.65
2025-08-15T03:27:02.754Z,7,GR86-063-113,4.7,-0.113,0.017,4.8500000000000005,3.0,,0.0,0.0,
2025-08-15T03:27:02.840Z,7,GR86-063-113,4.7,-0.103,0.021,4.94,3.0,,0.0,0.0,
2025-08-15T03:27:02.884Z,7,GR86-063-113,4.6000000000000005,-0.093,0.018,5.03,3.0,3555.0,0.0,0.0,
2025-08-15T03:27:02.927Z,7,GR86-063-113,4.6000000000000005,-0.063,0.007,5.04,3.0,,0.0,0.0,77.99
2025-08-15T03:27:02.970Z,7,GR86-063-113,4.6000000000000005,-0.047,0.016,5.44,3.0,,0.0,0.0,
2025-08-15T03:27:03.014Z,7,GR86-063-113,4.5,-0.061,0.012,8.92,3.0,,0.0,0.0,
2025-08-15T03:27:03.057Z,7,GR86-063-113,4.5,-0.094,0.012,11.36,3.0,,0.0,0.0,
2025-08-15T03:27:03.100Z,7,GR86-063-113,4.4,-0.091,0.026,14.63,3.0,3549.0,0.0,0.0,
2025-08-15T03:27:03.144Z,7,GR86-063-113,4.3,-0.078,0.014,18.45,3.0,,0.0,0.0,77.35000000000001
2025-08-15T03:27:03.186Z,7,GR86-063-113,4.3,-0.08,0.017,20.52,3.0,,0.0,0.0,
2025-08-15T03:27:03.229Z,7,GR86-063-113,4.4,-0.054,0.005,21.8,3.0,,0.0,0.0,
2025-08-15T03:27:03.274Z,7,GR86-063-113,4.4,-0.038,0.017,21.96,3.0,,0.0,0.0,
2025-08-15T03:27:03.317Z,7,GR86-063-113,4.3,0.217,0.01,22.01,3.0,3513.0,0.0,0.0,
2025-08-15T03:27:03.360Z,7,GR86-063-113,4.3,0.31,0.009,22.02,3.0,,0.0,0.0,76.88
2025-08-15T03:27:03.404Z,7,GR86-063-113,4.3,0.112,0.016,22.06,3.0,,0.0,0.0,
2025-08-15T03:27:03.447Z,7,GR86-063-113,4.3,-0.048,0.016,25.16,3.0,,0.0,0.0,
2025-08-15T03:27:03.490Z,7,GR86-063-113,4.2,0.04,0.01,25.81,3.0,,0.0,0.0,
2025-08-15T03:27:03.534Z,7,GR86-063-113,3.7,0.25,0.021,25.79,3.0,3460.0,0.0,0.0,
2025-08-15T03:27:03.576Z,7,GR86-063-113,3.3000000000000003,0.192,0.002,25.85,3.0,,0.0,0.0,76.5
2025-08-15T03:27:03.619Z,7,GR86-063-113,3.0,0.08,-0.015,26.81,3.0,,0.0,0.0,
2025-08-15T03:27:03.665Z,7,GR86-063-113,2.6,0.073,-0.005,29.3,3.0,,0.0,0.0,
2025-08-15T03:27:03.708Z,7,GR86-063-113,2.4000000000000004,0.14,-0.014,31.11,3.0,,0.0,0.0,
2025-08-15T03:27:03.751Z,7,GR86-063-113,2.3000000000000003,0.206,-0.012,31.41,3.0,3552.0,0.0,0.0,
2025-08-15T03:27:03.837Z,7,GR86-063-113,2.3000000000000003,0.155,-0.023,32.79,3.0,,0.0,0.0,77.23
2025-08-15T03:27:03.880Z,7,GR86-063-113,2.4000000000000004,0.14,-0.016,42.72,3.0,,0.0,0.0,
2025-08-15T03:27:03.926Z,7,GR86-063-113,2.5,0.188,-0.011,49.41,3.0,,0.0,0.0,
2025-08-15T03:27:03.968Z,7,GR86-063-113,2.5,0.184,-0.011,55.21,3.0,3638.0,0.0,0.0,
2025-08-15T03:27:04.011Z,7,GR86-063-113,2.6,0.181,-0.014,60.65,3.0,,0.0,0.0,78.2
2025-08-15T03:27:04.054Z,7,GR86-063-113,2.7,0.188,-0.01,80.95,3.0,,0.0,0.0,
2025-08-15T03:27:04.097Z,7,GR86-063-113,2.7,0.207,-0.002,99.01,3.0,,0.0,0.0,
2025-08-15T03:27:04.140Z,7,GR86-063-113,2.7,0.21,0.0,99.71,3.0,,0.0,0.0,
2025-08-15T03:27:04.184Z,7,GR86-063-113,2.7,0.203,0.001,99.71,3.0,3714.0,0.0,0.0,
2025-08-15T03:27:04.269Z,7,GR86-063-113,2.8000000000000003,0.209,-0.006,99.71,3.0,,0.0,0.0,80.65
2025-08-15T03:27:04.314Z,7,GR86-063-113,2.9000000000000004,0.19,0.002,99.72,3.0,,0.0,0.0,
2025-08-15T03:27:04.357Z,7,GR86-063-113,2.9000000000000004,0.199,0.019,99.71,3.0,,0.0,0.0,
2025-08-15T03:27:04.400Z,7,GR86-063-113,2.9000000000000004,0.204,0.005,99.72,3.0,3789.0,0.0,0.0,
2025-08-15T03:27:04.444Z,7,GR86-063-113,2.9000000000000004,0.199,0.008,99.72,3.0,,0.0,0.0,82.16
2025-08-15T03:27:04.486Z,7,GR86-063-113,2.9000000000000004,0.211,0.012,99.72,3.0,,0.0,0.0,
2025-08-15T03:27:04.529Z,7,GR86-063-113,2.9000000000000004,0.198,0.02,99.72,3.0,,0.0,0.0,
2025-08-15T03:27:04.574Z,7,GR86-063-113,2.9000000000000004,0.192,0.01,99.72,3.0,,0.0,0.0,
2025-08-15T03:27:04.617Z,7,GR86-063-113,2.9000000000000004,0.2,0.018,99.71,3.0,3933.0,0.0,0.0,
2025-08-15T03:27:04.660Z,7,GR86-063-113,2.9000000000000004,0.2,0.004,99.72,3.0,,0.0,0.0,83.66
2025-08-15T03:27:04.704Z,7,GR86-063-113,2.9000000000000004,0.199,0.0,99.71,3.0,,0.0,0.0,
2025-08-15T03:27:04.746Z,7,GR86-063-113,2.9000000000000004,0.21,-0.006,99.72,3.0,,0.0,0.0,
2025-08-15T03:27:04.789Z,7,GR86-063-113,2.9000000000000004,0.196,-0.021,99.73,3.0,,0.0,0.0,
2025-08-15T03:27:04.833Z,7,GR86-063-113,2.9000000000000004,0.186,-0.009,99.73,3.0,3999.0,0.0,0.0,
2025-08-15T03:27:04.877Z,7,GR86-063-113,2.9000000000000004,0.191,-0.01,99.71,3.0,,0.0,0.0,85.10000000000001
2025-08-15T03:27:04.920Z,7,GR86-063-113,2.9000000000000004,0.186,0.002,99.71,3.0,,0.0,0.0,
2025-08-15T03:27:04.964Z,7,GR86-063-113,2.9000000000000004,0.196,-0.002,99.72,3.0,,0.0,0.0,
2025-08-15T03:27:05.007Z,7,GR86-063-113,2.9000000000000004,0.198,0.009,99.72,3.0,,0.0,0.0,
2025-08-15T03:27:05.050Z,7,GR86-063-113,2.9000000000000004,0.188,0.006,99.72,3.0,4066.0,0.0,0.0,
2025-08-15T03:27:05.094Z,7,GR86-063-113,2.9000000000000004,0.183,-0.001,99.71,3.0,,0.0,0.0,86.57000000000001
2025-08-15T03:27:05.137Z,7,GR86-063-113,2.9000000000000004,0.214,-0.011,99.71,3.0,,0.0,0.0,
2025-08-15T03:27:05.180Z,7,GR86-063-113,2.9000000000000004,0.205,0.0,99.72,3.0,,0.0,0.0,
2025-08-15T03:27:05.226Z,7,GR86-063-113,2.9000000000000004,0.215,-0.004,99.72,3.0,,0.0,0.0,
2025-08-15T03:27:05.268Z,7,GR86-063-113,2.9000000000000004,0.19,-0.001,99.72,3.0,4135.0,0.0,0.0,
2025-08-15T03:27:05.311Z,7,GR86-063-113,2.9000000000000004,0.2,0.003,99.71,3.0,,0.0,0.0,88.04
2025-08-15T03:27:05.358Z,7,GR86-063-113,2.9000000000000004,0.215,-0.009,99.72,3.0,,0.0,0.0,
2025-08-15T03:27:05.401Z,7,GR86-063-113,2.9000000000000004,0.225,-0.004,99.71,3.0,,0.0,0.0,
2025-08-15T03:27:05.444Z,7,GR86-063-113,2.9000000000000004,0.196,-0.011,99.71,3.0,,0.0,0.0,
2025-08-15T03:27:05.487Z,7,GR86-063-113,2.9000000000000004,0.208,-0.004,99.72,3.0,4204.0,0.0,0.0,
2025-08-15T03:27:05.530Z,7,GR86-063-113,2.9000000000000004,0.207,-0.007,99.72,3.0,,0.0,0.0,89.53
2025-08-15T03:27:05.574Z,7,GR86-063-113,2.9000000000000004,0.203,0.007,99.71,3.0,,0.0,0.0,
2025-08-15T03:27:05.617Z,7,GR86-063-113,3.0,0.216,0.002,99.72,3.0,,0.0,0.0,
2025-08-15T03:27:05.660Z,7,GR86-063-113,3.0,0.197,0.003,99.72,3.0,,0.0,0.0,
2025-08-15T03:27:05.704Z,7,GR86-063-113,3.0,0.209,-0.004,99.71,3.0,4277.0,0.0,0.0,
2025-08-15T03:27:05.746Z,7,GR86-063-113,3.0,0.198,0.003,99.72,3.0,,0.0,0.0,91.05
2025-08-15T03:27:05.789Z,7,GR86-063-113,3.0,0.222,0.002,99.72,3.0,,0.0,0.0,
2025-08-15T03:27:05.834Z,7,GR86-063-113,3.0,0.221,-0.003,99.71,3.0,,0.0,0.0,
2025-08-15T03:27:05.876Z,7,GR86-063-113,3.0,0.208,0.011,99.72,3.0,,0.0,0.0,
2025-08-15T03:27:05.919Z,7,GR86-063-113,3.0,0.204,-0.003,99.72,3.0,4361.0,0.0,0.0,
2025-08-15T03:27:05.964Z,7,GR86-063-113,3.1,0.202,0.005,99.72,3.0,,0.0,0.0,92.6
2025-08-15T03:27:06.007Z,7,GR86-063-113,3.2,0.228,0.006,99.72,3.0,,0.0,0.0,
2025-08-15T03:27:06.050Z,7,GR86-063-113,3.3000000000000003,0.226,0.016,99.71,3.0,,0.0,0.0,
2025-08-15T03:27:06.094Z,7,GR86-063-113,3.7,0.229,0.018,99.72,3.0,,0.0,0.0,
2025-08-15T03:27:06.137Z,7,GR86-063-113,3.8,0.217,0.002,99.71,3.0,4442.0,0.0,0.0,
2025-08-15T03:27:06.180Z,7,GR86-063-113,3.8,0.238,0.005,99.72,3.0,,0.0,0.0,94.19
2025-08-15T03:27:06.225Z,7,GR86-063-113,3.9,0.238,0.011,99.72,3.0,,0.0,0.0,
2025-08-15T03:27:06.268Z,7,GR86-063-113,3.9,0.229,0.011,99.72,3.0,,0.0,0.0,
2025-08-15T03:27:06.311Z,7,GR86-063-113,3.9,0.234,0.019,99.72,3.0,,0.0,0.0,
2025-08-15T03:27:06.354Z,7,GR86-063-113,3.8,0.227,0.019,99.74,3.0,4516.0,0.0,0.0,
2025-08-15T03:27:06.397Z,7,GR86-063-113,3.8,0.239,0.02,99.74,3.0,,0.0,0.0,95.85
2025-08-15T03:27:06.440Z,7,GR86-063-113,3.8,0.236,0.02,99.74,3.0,,0.0,0.0,
2025-08-15T03:27:06.484Z,7,GR86-063-113,3.8,0.227,0.024,99.72,3.0,,0.0,0.0,
2025-08-15T03:27:06.527Z,7,GR86-063-113,3.8,0.226,0.014,99.71,3.0,,0.0,0.0,
2025-08-15T03:27:06.570Z,7,GR86-063-113,3.8,0.214,0.025,99.74,3.0,4593.0,0.0,0.0,
2025-08-15T03:27:06.614Z,7,GR86-063-113,3.8,0.231,0.022,99.75,3.0,,0.0,0.0,99.3
2025-08-15T03:27:06.657Z,7,GR86-063-113,3.8,0.221,0.02,99.72,3.0,,0.0,0.0,
2025-08-15T03:27:06.700Z,7,GR86-063-113,3.8,0.215,0.019,99.72,3.0,,0.0,0.0,
2025-08-15T03:27:06.744Z,7,GR86-063-113,3.8,0.223,0.011,99.74,3.0,,0.0,0.0,
2025-08-15T03:27:06.786Z,7,GR86-063-113,4.0,0.214,0.016,99.74,3.0,4670.0,0.0,0.0,
2025-08-15T03:27:06.829Z,7,GR86-063-113,4.3,0.224,0.013,99.72,3.0,,0.0,0.0,100.99
2025-08-15T03:27:06.874Z,7,GR86-063-113,4.4,0.22,0.025,99.72,3.0,,0.0,0.0,
2025-08-15T03:27:06.917Z,7,GR86-063-113,4.3,0.21,0.031,99.72,3.0,,0.0,0.0,
2025-08-15T03:27:06.960Z,7,GR86-063-113,4.2,0.221,0.039,99.74,3.0,,0.0,0.0,
2025-08-15T03:27:07.004Z,7,GR86-063-113,4.2,0.217,0.032,99.73,3.0,4744.0,0.0,0.0,
2025-08-15T03:27:07.047Z,7,GR86-063-113,4.3,0.228,0.038,99.73,3.0,,0.0,0.0,102.68
2025-08-15T03:27:07.090Z,7,GR86-063-113,4.3,0.222,0.03,99.72,3.0,,0.0,0.0,
2025-08-15T03:27:07.134Z,7,GR86-063-113,4.2,0.205,0.028,99.72,3.0,,0.0,0.0,
2025-08-15T03:27:07.177Z,7,GR86-063-113,4.2,0.217,0.024,99.73,3.0,,0.0,0.0,
2025-08-15T03:27:07.220Z,7,GR86-063-113,4.2,0.212,0.02,99.74,3.0,4897.0,0.0,0.0,
2025-08-15T03:27:07.265Z,7,GR86-063-113,4.2,0.224,0.028,99.73,3.0,,0.0,0.0,104.32
2025-08-15T03:27:07.307Z,7,GR86-063-113,4.1000000000000005,0.227,0.022,99.73,3.0,,0.0,0.0,
2025-08-15T03:27:07.350Z,7,GR86-063-113,4.1000000000000005,0.197,0.03,90.16,3.0,,0.0,0.0,
2025-08-15T03:27:07.394Z,7,GR86-063-113,4.0,0.207,0.02,52.52,3.0,,0.0,0.0,
2025-08-15T03:27:07.437Z,7,GR86-063-113,4.0,0.231,0.019,34.68,3.0,4979.0,0.0,0.0,
2025-08-15T03:27:07.480Z,7,GR86-063-113,4.0,0.221,0.023,27.06,3.0,,0.0,0.0,105.94
2025-08-15T03:27:07.526Z,7,GR86-063-113,4.0,0.184,0.031,22.87,3.0,,0.0,0.0,
2025-08-15T03:27:07.569Z,7,GR86-063-113,4.0,0.123,0.018,22.13,3.0,,0.0,0.0,
2025-08-15T03:27:07.614Z,7,GR86-063-113,4.1000000000000005,0.078,0.012,5.5,3.0,,0.0,0.0,
2025-08-15T03:27:07.657Z,7,GR86-063-113,4.1000000000000005,0.077,0.021,4.0200000000000005,3.0,4991.0,0.0,0.0,
2025-08-15T03:27:07.700Z,7,GR86-063-113,4.1000000000000005,-0.044,0.002,3.96,3.0,,0.0,0.0,107.56
2025-08-15T03:27:07.744Z,7,GR86-063-113,4.1000000000000005,-0.063,0.027,3.86,3.0,,0.0,0.0,
2025-08-15T03:27:07.786Z,7,GR86-063-113,4.2,-0.257,-0.009,3.73,3.0,,0.0,0.0,
2025-08-15T03:27:07.829Z,7,GR86-063-113,4.2,-0.328,0.011,3.61,3.0,,0.0,0.0,
2025-08-15T03:27:07.874Z,7,GR86-063-113,4.1000000000000005,-0.06,0.005,3.29,3.0,4787.0,0.0,0.0,
2025-08-15T03:27:07.917Z,7,GR86-063-113,4.2,-0.068,-0.006,2.96,3.0,,0.0,0.0,108.61
2025-08-15T03:27:07.960Z,7,GR86-063-113,4.2,-0.061,0.032,2.78,3.0,,0.0,0.0,
2025-08-15T03:27:08.004Z,7,GR86-063-113,4.2,-0.093,-0.011,2.68,3.0,,0.0,0.0,
2025-08-15T03:27:08.047Z,7,GR86-063-113,4.2,-0.22,0.012,2.59,3.0,,0.0,0.0,
2025-08-15T03:27:08.134Z,7,GR86-063-113,3.9,-0.084,0.015,2.49,3.0,4859.0,0.0,0.0,107.98
2025-08-15T03:27:08.177Z,7,GR86-063-113,3.9,-0.086,0.018,2.46,3.0,,0.0,0.0,
2025-08-15T03:27:08.220Z,7,GR86-063-113,4.0,-0.15,0.006,2.46,3.0,,0.0,0.0,
2025-08-15T03:27:08.264Z,7,GR86-063-113,4.1000000000000005,-0.156,0.011,2.45,3.0,,0.0,0.0,
2025-08-15T03:27:08.306Z,7,GR86-063-113,4.0,-0.171,-0.002,2.45,3.0,4884.0,2.73,2.73,
2025-08-15T03:27:08.349Z,7,GR86-063-113,3.9,-0.155,0.021,2.44,3.0,,3.405,3.465,107.28
2025-08-15T03:27:08.394Z,7,GR86-063-113,4.0,-0.162,0.015,2.43,3.0,,3.435,3.785,
2025-08-15T03:27:08.437Z,7,GR86-063-113,4.0,-0.179,0.005,2.43,3.0,,3.405,3.435,
2025-08-15T03:27:08.480Z,7,GR86-063-113,4.0,-0.195,0.02,2.43,3.0,,3.405,3.525,
2025-08-15T03:27:08.526Z,7,GR86-063-113,4.0,-0.176,0.007,2.43,3.0,4862.0,3.34,3.435,
2025-08-15T03:27:08.569Z,7,GR86-063-113,4.0,-0.188,0.021,2.43,3.0,,3.34,3.435,106.49
2025-08-15T03:27:08.615Z,7,GR86-063-113,4.2,-0.178,0.026,2.44,3.0,,3.22,3.435,
2025-08-15T03:27:08.658Z,7,GR86-063-113,4.1000000000000005,-0.162,0.017,2.44,3.0,,3.005,3.25,
2025-08-15T03:27:08.701Z,7,GR86-063-113,4.0,-0.19,0.03,2.44,3.0,,1.955,2.455,
2025-08-15T03:27:08.744Z,7,GR86-063-113,4.0,-0.145,0.022,2.44,3.0,4816.0,0.0,0.0,
2025-08-15T03:27:08.787Z,7,GR86-063-113,4.0,-0.133,0.023,2.44,3.0,,0.0,0.0,105.41
2025-08-15T03:27:08.830Z,7,GR86-063-113,4.0,-0.12,0.028,2.45,3.0,,0.0,0.0,
2025-08-15T03:27:08.874Z,7,GR86-063-113,4.0,-0.113,0.026,2.44,3.0,,0.0,0.0,
2025-08-15T03:27:08.917Z,7,GR86-063-113,4.0,-0.124,0.031,2.46,3.0,,0.0,0.0,
2025-08-15T03:27:08.960Z,7,GR86-063-113,4.0,-0.115,0.032,2.45,3.0,4764.0,0.0,0.0,
2025-08-15T03:27:09.004Z,7,GR86-063-113,4.0,-0.133,0.022,2.45,3.0,,0.0,0.0,104.33
2025-08-15T03:27:09.046Z,7,GR86-063-113,4.0,-0.118,0.03,2.44,3.0,,0.0,0.0,
2025-08-15T03:27:09.133Z,7,GR86-063-113,4.0,-0.126,0.008,2.45,3.0,,0.0,0.0,
2025-08-15T03:27:09.176Z,7,GR86-063-113,3.9,-0.114,0.018,2.5500000000000003,3.0,4730.0,0.0,0.0,
2025-08-15T03:27:09.219Z,7,GR86-063-113,3.9,-0.133,0.013,2.68,3.0,,0.0,0.0,102.86
2025-08-15T03:27:09.264Z,7,GR86-063-113,4.0,-0.13,0.02,3.23,3.0,,0.0,0.0,
2025-08-15T03:27:09.307Z,7,GR86-063-113,4.0,-0.115,0.01,3.97,3.0,,0.0,0.0,
2025-08-15T03:27:09.350Z,7,GR86-063-113,4.0,-0.135,0.008,4.59,3.0,,0.0,0.0,
2025-08-15T03:27:09.394Z,7,GR86-063-113,4.0,-0.129,0.015,5.23,3.0,4695.0,0.0,0.0,
2025-08-15T03:27:09.437Z,7,GR86-063-113,3.9,-0.125,0.013,5.51,3.0,,0.0,0.0,102.2
2025-08-15T03:27:09.480Z,7,GR86-063-113,3.9,-0.124,0.022,5.5200000000000005,3.0,,0.0,0.0,
2025-08-15T03:27:09.526Z,7,GR86-063-113,3.9,-0.083,0.011,5.5200000000000005,3.0,,0.0,0.0,
2025-08-15T03:27:09.568Z,7,GR86-063-113,3.9,-0.085,0.028,5.59,3.0,,0.0,0.0,
2025-08-15T03:27:09.611Z,7,GR86-063-113,3.9,-0.09,0.02,5.6000000000000005,3.0,4664.0,0.0,0.0,
2025-08-15T03:27:09.654Z,7,GR86-063-113,3.9,-0.126,0.013,5.71,3.0,,0.0,0.0,101.51
2025-08-15T03:27:09.697Z,7,GR86-063-113,3.9,-0.115,0.016,5.7700000000000005,3.0,,0.0,0.0,
2025-08-15T03:27:09.740Z,7,GR86-063-113,3.9,-0.077,0.019,5.8500000000000005,3.0,,0.0,0.0,
2025-08-15T03:27:09.784Z,7,GR86-063-113,3.8,-0.095,0.011,7.57,3.0,,0.0,0.0,
2025-08-15T03:27:09.827Z,7,GR86-063-113,3.8,-0.097,0.023,9.35,3.0,4612.0,0.0,0.0,
2025-08-15T03:27:09.870Z,7,GR86-063-113,3.8,-0.115,0.017,14.85,3.0,,0.0,0.0,100.97
2025-08-15T03:27:09.914Z,7,GR86-063-113,3.8,-0.099,0.007,16.54,3.0,,0.0,0.0,
2025-08-15T03:27:09.957Z,7,GR86-063-113,3.8,-0.084,0.018,17.89,3.0,,0.0,0.0,
2025-08-15T03:27:10.000Z,7,GR86-063-113,3.8,-0.091,0.006,20.23,3.0,,0.0,0.0,
2025-08-15T03:27:10.044Z,7,GR86-063-113,3.8,-0.039,0.014,20.46,3.0,4610.0,0.0,0.0,
2025-08-15T03:27:10.086Z,7,GR86-063-113,3.8,-0.068,0.003,20.64,3.0,,0.0,0.0,100.46
2025-08-15T03:27:10.129Z,7,GR86-063-113,3.8,0.07,0.003,20.55,3.0,,0.0,0.0,
2025-08-15T03:27:10.174Z,7,GR86-063-113,3.7,0.258,-0.011,19.68,3.0,,0.0,0.0,
2025-08-15T03:27:10.217Z,7,GR86-063-113,3.7,0.021,-0.006,21.81,3.0,,0.0,0.0,
2025-08-15T03:27:10.260Z,7,GR86-063-113,3.7,-0.064,0.011,21.98,3.0,4600.0,0.0,0.0,
2025-08-15T03:27:10.304Z,7,GR86-063-113,3.7,-0.043,-0.003,22.0,3.0,,0.0,0.0,100.1
2025-08-15T03:27:10.347Z,7,GR86-063-113,3.7,0.151,0.006,22.02,3.0,,0.0,0.0,
2025-08-15T03:27:10.390Z,7,GR86-063-113,3.7,0.204,0.01,22.02,3.0,,0.0,0.0,
2025-08-15T03:27:10.434Z,7,GR86-063-113,3.7,0.035,-0.017,22.02,3.0,,0.0,0.0,
2025-08-15T03:27:10.477Z,7,GR86-063-113,3.7,0.012,-0.008,22.02,3.0,4684.0,0.0,0.0,
2025-08-15T03:27:10.520Z,7,GR86-063-113,3.7,0.073,-0.023,22.02,3.0,,0.0,0.0,100.65
2025-08-15T03:27:10.565Z,7,GR86-063-113,3.7,0.139,-0.014,22.02,3.0,,0.0,0.0,
2025-08-15T03:27:10.607Z,7,GR86-063-113,3.7,0.126,-0.015,22.03,3.0,,0.0,0.0,
2025-08-15T03:27:10.650Z,7,GR86-063-113,3.7,0.049,-0.012,22.02,3.0,,0.0,0.0,
2025-08-15T03:27:10.694Z,7,GR86-063-113,3.7,0.068,-0.002,22.03,3.0,4717.0,0.0,0.0,
2025-08-15T03:27:10.737Z,7,GR86-063-113,3.8,0.102,-0.009,22.03,3.0,,0.0,0.0,101.36
2025-08-15T03:27:10.780Z,7,GR86-063-113,3.8,0.104,-0.001,22.03,3.0,,0.0,0.0,
2025-08-15T03:27:10.826Z,7,GR86-063-113,3.8,0.09,-0.004,22.02,3.0,,0.0,0.0,
2025-08-15T03:27:10.869Z,7,GR86-063-113,3.8,0.053,-0.001,22.03,3.0,,0.0,0.0,
2025-08-15T03:27:10.914Z,7,GR86-063-113,3.8,0.073,0.004,22.02,3.0,4743.0,0.0,0.0,
2025-08-15T03:27:10.957Z,7,GR86-063-113,3.8,0.103,-0.01,22.02,3.0,,0.0,0.0,102.13
2025-08-15T03:27:11.000Z,7,GR86-063-113,3.8,0.078,-0.003,22.02,3.0,,0.0,0.0,
2025-08-15T03:27:11.044Z,7,GR86-063-113,3.8,0.092,-0.009,22.02,3.0,,0.0,0.0,
2025-08-15T03:27:11.086Z,7,GR86-063-113,3.8,0.071,-0.009,22.02,3.0,,0.0,0.0,
2025-08-15T03:27:11.129Z,7,GR86-063-113,3.8,0.093,-0.013,22.02,3.0,4779.0,0.0,0.0,
2025-08-15T03:27:11.174Z,7,GR86-063-113,3.8,0.101,-0.003,22.03,3.0,,0.0,0.0,102.9
2025-08-15T03:27:11.217Z,7,GR86-063-113,3.8,0.075,-0.006,22.03,3.0,,0.0,0.0,
2025-08-15T03:27:11.260Z,7,GR86-063-113,3.8,0.081,0.005,22.02,3.0,,0.0,0.0,
2025-08-15T03:27:11.304Z,7,GR86-063-113,3.8,0.081,-0.021,22.02,3.0,,0.0,0.0,
2025-08-15T03:27:11.346Z,7,GR86-063-113,3.8,0.069,-0.006,22.03,3.0,4814.0,0.0,0.0,
2025-08-15T03:27:11.389Z,7,GR86-063-113,3.9,0.083,-0.014,22.02,3.0,,0.0,0.0,103.65
2025-08-15T03:27:11.434Z,7,GR86-063-113,3.9,0.086,-0.015,22.02,3.0,,0.0,0.0,
2025-08-15T03:27:11.477Z,7,GR86-063-113,3.9,0.077,0.002,22.02,3.0,,0.0,0.0,
2025-08-15T03:27:11.520Z,7,GR86-063-113,4.0,0.084,0.001,22.03,3.0,,0.0,0.0,
2025-08-15T03:27:11.564Z,7,GR86-063-113,4.0,0.074,0.019,22.02,3.0,4849.0,0.0,0.0,
2025-08-15T03:27:11.606Z,7,GR86-063-113,4.2,0.085,0.012,22.02,3.0,,0.0,0.0,104.41
2025-08-15T03:27:11.649Z,7,GR86-063-113,4.3,0.069,0.02,22.02,3.0,,0.0,0.0,
2025-08-15T03:27:11.694Z,7,GR86-063-113,4.3,0.073,0.016,22.0,3.0,,0.0,0.0,
2025-08-15T03:27:11.736Z,7,GR86-063-113,4.3,0.089,0.014,21.99,3.0,,0.0,0.0,
2025-08-15T03:27:11.779Z,7,GR86-063-113,4.3,0.068,0.015,21.99,3.0,4875.0,0.0,0.0,
2025-08-15T03:27:11.825Z,7,GR86-063-113,4.2,0.075,0.035,22.01,3.0,,0.0,0.0,105.8
2025-08-15T03:27:11.868Z,7,GR86-063-113,4.3,0.076,0.025,22.03,3.0,,0.0,0.0,
2025-08-15T03:27:11.911Z,7,GR86-063-113,4.3,0.064,0.041,21.99,3.0,,0.0,0.0,
2025-08-15T03:27:11.954Z,7,GR86-063-113,4.2,0.068,0.034,22.0,3.0,,0.0,0.0,
2025-08-15T03:27:11.997Z,7,GR86-063-113,4.2,0.081,0.018,22.02,3.0,4914.0,0.0,0.0,
2025-08-15T03:27:12.040Z,7,GR86-063-113,4.2,0.069,0.033,21.99,3.0,,0.0,0.0,106.48
2025-08-15T03:27:12.084Z,7,GR86-063-113,4.2,0.091,0.035,21.99,3.0,,0.0,0.0,
2025-08-15T03:27:12.126Z,7,GR86-063-113,4.2,0.067,0.026,22.0,3.0,,0.0,0.0,
2025-08-15T03:27:12.169Z,7,GR86-063-113,4.2,0.067,0.034,22.01,3.0,,0.0,0.0,
2025-08-15T03:27:12.215Z,7,GR86-063-113,4.2,0.087,0.022,22.0,3.0,4981.0,0.0,0.0,
2025-08-15T03:27:12.258Z,7,GR86-063-113,4.2,0.075,0.021,22.01,3.0,,0.0,0.0,107.17
2025-08-15T03:27:12.301Z,7,GR86-063-113,4.2,0.066,0.025,22.01,3.0,,0.0,0.0,
2025-08-15T03:27:12.344Z,7,GR86-063-113,4.2,0.081,0.034,22.01,3.0,,0.0,0.0,
2025-08-15T03:27:12.387Z,7,GR86-063-113,4.2,0.061,0.029,22.01,3.0,,0.0,0.0,
2025-08-15T03:27:12.430Z,7,GR86-063-113,4.1000000000000005,0.085,0.029,22.0,3.0,5003.0,0.0,0.0,
2025-08-15T03:27:12.474Z,7,GR86-063-113,4.3,0.084,0.026,21.99,3.0,,0.0,0.0,107.8
2025-08-15T03:27:12.517Z,7,GR86-063-113,4.3,0.065,0.033,23.93,3.0,,0.0,0.0,
2025-08-15T03:27:12.560Z,7,GR86-063-113,4.3,0.078,0.036,39.24,3.0,,0.0,0.0,
2025-08-15T03:27:12.604Z,7,GR86-063-113,4.2,0.075,0.018,81.71000000000001,3.0,,0.0,0.0,
2025-08-15T03:27:12.646Z,7,GR86-063-113,4.3,0.101,0.031,99.58,3.0,5029.0,0.0,0.0,
2025-08-15T03:27:12.689Z,7,GR86-063-113,4.2,0.206,0.022,99.72,3.0,,0.0,0.0,108.43
2025-08-15T03:27:12.733Z,7,GR86-063-113,4.3,0.277,0.024,99.73,3.0,,0.0,0.0,
2025-08-15T03:27:12.776Z,7,GR86-063-113,4.3,0.207,0.027,99.71,3.0,,0.0,0.0,
2025-08-15T03:27:12.819Z,7,GR86-063-113,4.3,0.184,0.018,99.72,3.0,,0.0,0.0,
2025-08-15T03:27:12.864Z,7,GR86-063-113,4.3,0.18,0.017,99.72,3.0,5070.0,0.0,0.0,
2025-08-15T03:27:12.907Z,7,GR86-063-113,4.3,0.229,0.03,99.74,3.0,,0.0,0.0,109.21
2025-08-15T03:27:12.950Z,7,GR86-063-113,4.4,0.248,0.022,99.73,3.0,,0.0,0.0,
2025-08-15T03:27:12.994Z,7,GR86-063-113,4.4,0.21,0.018,99.73,3.0,,0.0,0.0,
2025-08-15T03:27:13.036Z,7,GR86-063-113,4.4,0.188,0.034,99.73,3.0,,0.0,0.0,
2025-08-15T03:27:13.080Z,7,GR86-063-113,4.5,0.222,0.026,99.72,3.0,5169.0,0.0,0.0,
2025-08-15T03:27:13.123Z,7,GR86-063-113,4.6000000000000005,0.213,0.024,99.74,3.0,,0.0,0.0,110.7
2025-08-15T03:27:13.165Z,7,GR86-063-113,4.6000000000000005,0.218,0.044,99.72,3.0,,0.0,0.0,
2025-08-15T03:27:13.208Z,7,GR86-063-113,4.7,0.216,0.027,99.73,3.0,,0.0,0.0,
2025-08-15T03:27:13.251Z,7,GR86-063-113,4.7,0.201,0.028,99.72,3.0,,0.0,0.0,
2025-08-15T03:27:13.294Z,7,GR86-063-113,4.7,0.21,0.04,99.73,3.0,5262.0,0.0,0.0,
2025-08-15T03:27:13.337Z,7,GR86-063-113,4.6000000000000005,0.214,0.032,99.74,3.0,,0.0,0.0,112.28
2025-08-15T03:27:13.380Z,7,GR86-063-113,4.6000000000000005,0.214,0.04,99.74,3.0,,0.0,0.0,
2025-08-15T03:27:13.425Z,7,GR86-063-113,4.6000000000000005,0.21,0.043,99.72,3.0,,0.0,0.0,
2025-08-15T03:27:13.468Z,7,GR86-063-113,4.5,0.213,0.035,99.75,3.0,,0.0,0.0,
2025-08-15T03:27:13.511Z,7,GR86-063-113,4.3,0.209,0.031,99.74,3.0,5334.0,0.0,0.0,
2025-08-15T03:27:13.554Z,7,GR86-063-113,4.3,0.211,0.025,99.74,3.0,,0.0,0.0,113.91
2025-08-15T03:27:13.597Z,7,GR86-063-113,4.3,0.207,0.033,99.74,3.0,,0.0,0.0,
2025-08-15T03:27:13.640Z,7,GR86-063-113,4.2,0.218,0.014,99.71,3.0,,0.0,0.0,
2025-08-15T03:27:13.684Z,7,GR86-063-113,4.2,0.2,0.036,99.73,3.0,,0.0,0.0,
2025-08-15T03:27:13.727Z,7,GR86-063-113,4.3,0.198,0.03,99.75,3.0,5411.0,0.0,0.0,
2025-08-15T03:27:13.814Z,7,GR86-063-113,4.3,0.22,0.018,99.74,3.0,,0.0,0.0,115.42
2025-08-15T03:27:13.857Z,7,GR86-063-113,4.2,0.209,0.045,74.63,3.0,,0.0,0.0,
2025-08-15T03:27:13.900Z,7,GR86-063-113,4.0,0.204,0.013,51.84,3.0,,0.0,0.0,
2025-08-15T03:27:13.944Z,7,GR86-063-113,4.1000000000000005,0.207,0.001,30.77,3.0,5487.0,0.0,0.0,
2025-08-15T03:27:13.986Z,7,GR86-063-113,4.2,0.213,-0.017,22.67,3.0,,0.0,0.0,116.97
2025-08-15T03:27:14.029Z,7,GR86-063-113,4.2,0.163,-0.019,5.62,3.0,,0.0,0.0,
2025-08-15T03:27:14.074Z,7,GR86-063-113,4.1000000000000005,0.016,-0.004,5.2,3.0,,0.0,0.0,
2025-08-15T03:27:14.117Z,7,GR86-063-113,4.0,-0.081,0.047,4.6000000000000005,3.0,,0.0,0.0,
2025-08-15T03:27:14.160Z,7,GR86-063-113,4.2,-0.243,0.04,4.15,3.0,5544.0,0.0,0.0,
2025-08-15T03:27:14.204Z,7,GR86-063-113,4.2,-0.355,0.014,3.83,3.0,,0.0,0.0,118.58
2025-08-15T03:27:14.247Z,7,GR86-063-113,4.2,-0.175,0.045,3.53,3.0,,0.0,0.0,
2025-08-15T03:27:14.290Z,7,GR86-063-113,4.2,-0.044,0.005,3.28,3.0,,0.0,0.0,
2025-08-15T03:27:14.334Z,7,GR86-063-113,4.2,-0.067,0.051,2.89,3.0,,0.0,0.0,
2025-08-15T03:27:14.377Z,7,GR86-063-113,4.2,-0.13,0.002,2.75,3.0,5345.0,0.0,0.0,
2025-08-15T03:27:14.420Z,7,GR86-063-113,4.1000000000000005,-0.225,0.0,2.65,3.0,,0.0,0.0,119.09
2025-08-15T03:27:14.465Z,7,GR86-063-113,4.3,-0.188,0.044,2.56,3.0,,0.0,0.0,
2025-08-15T03:27:14.507Z,7,GR86-063-113,4.3,-0.106,-0.009,2.52,3.0,,0.0,0.0,
2025-08-15T03:27:14.550Z,7,GR86-063-113,4.3,-0.095,0.019,2.49,3.0,,0.0,0.0,
2025-08-15T03:27:14.594Z,7,GR86-063-113,4.0,-0.148,-0.001,2.44,3.0,5347.0,0.0,0.0,
2025-08-15T03:27:14.637Z,7,GR86-063-113,4.1000000000000005,-0.157,0.026,2.42,3.0,,0.0,0.0,118.25
2025-08-15T03:27:14.680Z,7,GR86-063-113,4.2,-0.141,0.009,2.41,3.0,,0.0,0.0,
2025-08-15T03:27:14.726Z,7,GR86-063-113,4.0,-0.141,0.023,2.43,3.0,,0.0,0.0,
2025-08-15T03:27:14.768Z,7,GR86-063-113,3.9,-0.122,0.006,2.41,3.0,,0.0,0.0,
2025-08-15T03:27:14.811Z,7,GR86-063-113,3.9,-0.141,-0.005,2.41,3.0,5366.0,0.0,0.0,
2025-08-15T03:27:14.900Z,7,GR86-063-113,3.8,-0.136,0.002,2.42,3.0,,0.0,0.0,117.4
2025-08-15T03:27:14.986Z,7,GR86-063-113,3.8,-0.149,0.009,2.41,3.0,,0.0,0.0,
2025-08-15T03:27:15.029Z,7,GR86-063-113,3.7,-0.126,0.011,2.41,3.0,5328.0,0.0,0.0,
2025-08-15T03:27:15.074Z,7,GR86-063-113,3.7,-0.117,0.005,2.43,3.0,,0.0,0.0,116.53
2025-08-15T03:27:15.117Z,7,GR86-063-113,3.6,-0.136,-0.016,2.42,3.0,,0.0,0.0,
2025-08-15T03:27:15.160Z,7,GR86-063-113,3.6,-0.144,0.007,2.43,3.0,,0.0,0.0,
2025-08-15T03:27:15.204Z,7,GR86-063-113,3.6,-0.142,-0.011,2.43,3.0,,0.0,0.0,
2025-08-15T03:27:15.334Z,7,GR86-063-113,3.6,-0.134,-0.005,2.43,3.0,5283.0,0.0,0.0,115.66
2025-08-15T03:27:15.377Z,7,GR86-063-113,3.5,-0.135,-0.017,2.43,3.0,,0.0,0.0,
2025-08-15T03:27:15.420Z,7,GR86-063-113,3.5,-0.142,-0.008,2.43,3.0,,0.0,0.0,
2025-08-15T03:27:15.506Z,7,GR86-063-113,3.5,-0.124,-0.007,2.44,3.0,5246.0,0.0,0.0,114.85
2025-08-15T03:27:15.549Z,7,GR86-063-113,3.4000000000000004,-0.139,-0.009,2.48,3.0,,0.0,0.0,
2025-08-15T03:27:15.594Z,7,GR86-063-113,3.4000000000000004,-0.143,-0.004,2.81,3.0,,0.0,0.0,
2025-08-15T03:27:15.637Z,7,GR86-063-113,3.4000000000000004,-0.127,-0.007,2.99,3.0,,0.0,0.0,
2025-08-15T03:27:15.680Z,7,GR86-063-113,3.3000000000000003,-0.126,-0.013,3.19,3.0,5206.0,0.0,0.0,
2025-08-15T03:27:15.768Z,7,GR86-063-113,3.3000000000000003,-0.143,-0.019,4.72,3.0,,0.0,0.0,114.0
2025-08-15T03:27:15.811Z,7,GR86-063-113,3.3000000000000003,-0.152,-0.002,4.91,3.0,,0.0,0.0,
2025-08-15T03:27:15.854Z,7,GR86-063-113,3.3000000000000003,-0.134,-0.005,5.0600000000000005,3.0,,0.0,0.0,
2025-08-15T03:27:15.897Z,7,GR86-063-113,3.3000000000000003,-0.107,-0.018,5.0600000000000005,3.0,5163.0,0.0,0.0,
2025-08-15T03:27:15.940Z,7,GR86-063-113,3.3000000000000003,-0.104,-0.014,5.07,3.0,,0.0,0.0,113.15
2025-08-15T03:27:15.984Z,7,GR86-063-113,3.2,-0.086,-0.011,5.39,3.0,,0.0,0.0,
2025-08-15T03:27:16.027Z,7,GR86-063-113,3.2,-0.133,-0.025,7.6,3.0,,0.0,0.0,
2025-08-15T03:27:16.070Z,7,GR86-063-113,3.2,-0.162,-0.023,9.28,3.0,,0.0,0.0,
2025-08-15T03:27:16.158Z,7,GR86-063-113,3.1,-0.096,-0.026,9.25,3.0,5122.0,0.0,0.0,112.32
2025-08-15T03:27:16.201Z,7,GR86-063-113,3.1,-0.078,-0.037,10.85,3.0,,0.0,0.0,
2025-08-15T03:27:16.244Z,7,GR86-063-113,3.1,-0.085,-0.041,12.56,3.0,,0.0,0.0,
2025-08-15T03:27:16.287Z,7,GR86-063-113,3.1,-0.154,-0.051,15.75,3.0,,0.0,0.0,
2025-08-15T03:27:16.330Z,7,GR86-063-113,3.1,-0.159,-0.034,17.400000000000002,3.0,5121.0,0.0,0.0,
2025-08-15T03:27:16.374Z,7,GR86-063-113,3.0,-0.061,-0.046,17.56,3.0,,0.0,0.0,111.63
2025-08-15T03:27:16.417Z,7,GR86-063-113,3.1,-0.062,-0.055,17.57,3.0,,0.0,0.0,
2025-08-15T03:27:16.460Z,7,GR86-063-113,3.0,-0.064,-0.044,17.36,3.0,,0.0,0.0,
2025-08-15T03:27:16.504Z,7,GR86-063-113,3.0,0.129,-0.053,15.5,3.0,,0.0,0.0,
2025-08-15T03:27:16.546Z,7,GR86-063-113,3.1,0.133,-0.048,15.79,3.0,5165.0,0.0,0.0,
2025-08-15T03:27:16.589Z,7,GR86-063-113,3.1,-0.008,-0.048,18.4,3.0,,0.0,0.0,111.05
2025-08-15T03:27:16.634Z,7,GR86-063-113,3.1,-0.044,-0.039,19.25,3.0,,0.0,0.0,
2025-08-15T03:27:16.676Z,7,GR86-063-113,3.1,-0.053,-0.059,19.24,3.0,,0.0,0.0,
2025-08-15T03:27:16.719Z,7,GR86-063-113,3.1,0.061,-0.02,18.89,3.0,,0.0,0.0,
2025-08-15T03:27:16.764Z,7,GR86-063-113,3.1,0.118,-0.049,18.7,3.0,4991.0,0.0,0.0,
2025-08-15T03:27:16.807Z,7,GR86-063-113,3.2,0.032,-0.052,18.83,3.0,,0.0,0.0,110.58
2025-08-15T03:27:16.850Z,7,GR86-063-113,3.2,-0.028,-0.045,18.95,3.0,,0.0,0.0,
2025-08-15T03:27:16.894Z,7,GR86-063-113,3.2,0.029,-0.047,18.92,3.0,,0.0,0.0,
2025-08-15T03:27:16.937Z,7,GR86-063-113,3.2,0.066,-0.046,18.81,3.0,,0.0,0.0,
2025-08-15T03:27:17.025Z,7,GR86-063-113,3.2,0.023,-0.037,18.7,3.0,5081.0,0.0,0.0,110.98
2025-08-15T03:27:17.068Z,7,GR86-063-113,3.2,-0.007,-0.029,18.7,3.0,,0.0,0.0,
2025-08-15T03:27:17.111Z,7,GR86-063-113,3.2,0.03,-0.024,18.67,3.0,,0.0,0.0,
2025-08-15T03:27:17.154Z,7,GR86-063-113,3.2,0.047,-0.027,17.25,3.0,,0.0,0.0,
2025-08-15T03:27:17.197Z,7,GR86-063-113,3.2,0.017,-0.031,16.93,3.0,5111.0,0.0,0.0,
2025-08-15T03:27:17.240Z,7,GR86-063-113,3.2,0.012,-0.025,15.32,3.0,,0.0,0.0,111.27
2025-08-15T03:27:17.284Z,7,GR86-063-113,3.2,0.019,-0.03,13.77,3.0,,0.0,0.0,
2025-08-15T03:27:17.327Z,7,GR86-063-113,3.2,-0.003,-0.033,12.49,3.0,,0.0,0.0,
2025-08-15T03:27:17.370Z,7,GR86-063-113,3.2,-0.006,-0.027,7.05,3.0,,0.0,0.0,
2025-08-15T03:27:17.414Z,7,GR86-063-113,3.2,-0.042,-0.029,4.18,3.0,5124.0,0.0,0.0,
2025-08-15T03:27:17.457Z,7,GR86-063-113,3.2,-0.069,-0.039,3.96,3.0,,0.0,0.0,111.48
2025-08-15T03:27:17.500Z,7,GR86-063-113,3.2,-0.068,-0.012,3.76,3.0,,0.0,0.0,
2025-08-15T03:27:17.544Z,7,GR86-063-113,3.2,-0.103,-0.039,3.45,3.0,,0.0,0.0,
2025-08-15T03:27:17.586Z,7,GR86-063-113,3.2,-0.313,-0.04,3.15,3.0,,0.0,0.0,
2025-08-15T03:27:17.629Z,7,GR86-063-113,3.2,-0.198,-0.01,2.85,3.0,5031.0,0.0,0.0,
2025-08-15T03:27:17.674Z,7,GR86-063-113,3.2,-0.057,-0.048,2.64,3.0,,0.0,0.0,111.45
2025-08-15T03:27:17.717Z,7,GR86-063-113,3.2,-0.104,-0.024,2.5500000000000003,3.0,,0.0,0.0,
2025-08-15T03:27:17.760Z,7,GR86-063-113,3.2,-0.163,-0.038,2.52,3.0,,0.0,0.0,
2025-08-15T03:27:17.804Z,7,GR86-063-113,3.2,-0.215,-0.035,2.46,3.0,,0.0,0.0,
2025-08-15T03:27:17.847Z,7,GR86-063-113,3.2,-0.188,-0.002,2.43,3.0,5005.0,0.0,1.83,
2025-08-15T03:27:17.890Z,7,GR86-063-113,3.2,-0.123,-0.031,2.44,3.0,,1.8,2.015,110.59
2025-08-15T03:27:17.934Z,7,GR86-063-113,3.2,-0.141,-0.03,2.41,3.0,,1.985,2.395,
2025-08-15T03:27:17.977Z,7,GR86-063-113,3.2,-0.192,-0.025,2.41,3.0,,1.985,2.015,
2025-08-15T03:27:18.020Z,7,GR86-063-113,3.2,-0.169,-0.024,2.41,3.0,,2.045,2.395,
2025-08-15T03:27:18.065Z,7,GR86-063-113,3.2,-0.158,-0.027,2.42,3.0,4984.0,2.335,2.52,
2025-08-15T03:27:18.107Z,7,GR86-063-113,3.2,-0.179,-0.012,2.41,3.0,,2.915,3.1,109.64
2025-08-15T03:27:18.150Z,7,GR86-063-113,3.2,-0.161,-0.026,2.42,3.0,,4.0600000000000005,4.18,
2025-08-15T03:27:18.194Z,7,GR86-063-113,3.2,-0.199,-0.02,2.41,3.0,,5.9350000000000005,6.12,
2025-08-15T03:27:18.237Z,7,GR86-063-113,3.2,-0.248,-0.014,2.42,3.0,,6.93,6.99,
2025-08-15T03:27:18.280Z,7,GR86-063-113,3.2,-0.228,-0.009,2.42,3.0,4950.0,7.645,7.8,
2025-08-15T03:27:18.326Z,7,GR86-063-113,3.2,-0.262,-0.01,2.43,3.0,,7.8,7.98,108.59
2025-08-15T03:27:18.368Z,7,GR86-063-113,3.2,-0.26,-0.011,2.41,3.0,,7.92,8.18,
2025-08-15T03:27:18.411Z,7,GR86-063-113,3.2,-0.237,-0.023,2.43,3.0,,7.645,7.98,
2025-08-15T03:27:18.454Z,7,GR86-063-113,3.2,-0.249,-0.007,2.42,3.0,,7.43,7.615,
2025-08-15T03:27:18.497Z,7,GR86-063-113,3.2,-0.25,0.006,2.43,3.0,4877.0,6.485,6.99,
2025-08-15T03:27:18.540Z,7,GR86-063-113,3.2,-0.225,-0.012,2.43,3.0,,4.715,5.3100000000000005,107.13
2025-08-15T03:27:18.583Z,7,GR86-063-113,3.3000000000000003,-0.208,-0.007,2.42,3.0,,2.365,2.825,
2025-08-15T03:27:18.626Z,7,GR86-063-113,3.3000000000000003,-0.148,-0.011,2.43,3.0,,0.0,0.0,
2025-08-15T03:27:18.669Z,7,GR86-063-113,3.3000000000000003,-0.136,-0.007,2.42,3.0,,0.0,0.0,
2025-08-15T03:27:18.714Z,7,GR86-063-113,3.4000000000000004,-0.126,0.001,2.42,3.0,4807.0,0.0,0.0,
2025-08-15T03:27:18.757Z,7,GR86-063-113,3.5,-0.125,-0.001,2.44,3.0,,0.0,0.0,105.47
2025-08-15T03:27:18.800Z,7,GR86-063-113,3.5,-0.135,0.006,2.45,3.0,,0.0,0.0,
2025-08-15T03:27:18.844Z,7,GR86-063-113,3.5,-0.111,0.007,2.46,3.0,,0.0,0.0,
2025-08-15T03:27:18.886Z,7,GR86-063-113,3.5,-0.122,-0.001,2.52,3.0,,0.0,0.0,
2025-08-15T03:27:18.929Z,7,GR86-063-113,3.5,-0.117,-0.004,2.59,3.0,4773.0,0.0,0.0,
2025-08-15T03:27:18.974Z,7,GR86-063-113,3.4000000000000004,-0.12,-0.007,2.59,3.0,,0.0,0.0,104.43
2025-08-15T03:27:19.017Z,7,GR86-063-113,3.4000000000000004,-0.128,-0.004,2.65,3.0,,0.0,0.0,
2025-08-15T03:27:19.060Z,7,GR86-063-113,3.3000000000000003,-0.112,0.002,2.71,3.0,,0.0,0.0,
2025-08-15T03:27:19.104Z,7,GR86-063-113,3.2,-0.123,-0.018,2.8000000000000003,3.0,,0.0,0.0,
2025-08-15T03:27:19.146Z,7,GR86-063-113,3.2,-0.128,-0.001,2.89,3.0,4735.0,0.0,0.0,
2025-08-15T03:27:19.189Z,7,GR86-063-113,3.2,-0.126,-0.025,2.99,3.0,,0.0,0.0,103.66
2025-08-15T03:27:19.234Z,7,GR86-063-113,3.2,-0.115,-0.015,3.15,3.0,,0.0,0.0,
2025-08-15T03:27:19.277Z,7,GR86-063-113,3.2,-0.115,-0.017,3.25,3.0,,0.0,0.0,
2025-08-15T03:27:19.320Z,7,GR86-063-113,3.2,-0.131,-0.022,3.38,3.0,,0.0,0.0,
2025-08-15T03:27:19.364Z,7,GR86-063-113,3.1,-0.138,-0.019,3.45,3.0,4709.0,0.0,0.0,
2025-08-15T03:27:19.407Z,7,GR86-063-113,3.0,-0.118,-0.023,3.47,3.0,,0.0,0.0,102.97
2025-08-15T03:27:19.450Z,7,GR86-063-113,2.7,-0.128,-0.023,3.45,3.0,,0.0,0.0,
2025-08-15T03:27:19.494Z,7,GR86-063-113,1.8,-0.127,-0.028,3.4,3.0,,0.0,0.0,
2025-08-15T03:27:19.580Z,7,GR86-063-113,1.2000000000000002,-0.13,-0.06,3.41,3.0,4679.0,0.0,0.0,
2025-08-15T03:27:19.626Z,7,GR86-063-113,0.4,-0.113,-0.08,3.41,3.0,,0.0,0.0,101.51
2025-08-15T03:27:19.668Z,7,GR86-063-113,-0.2,-0.129,-0.076,3.4,3.0,,0.0,0.0,
2025-08-15T03:27:19.711Z,7,GR86-063-113,-1.1,-0.109,-0.1,3.42,3.0,,0.0,0.0,
2025-08-15T03:27:19.754Z,7,GR86-063-113,-2.0,-0.132,-0.12,3.43,3.0,,0.0,0.0,
2025-08-15T03:27:19.797Z,7,GR86-063-113,-2.4000000000000004,-0.143,-0.132,3.45,3.0,4641.0,0.0,0.0,
2025-08-15T03:27:19.840Z,7,GR86-063-113,-2.4000000000000004,-0.115,-0.148,3.41,3.0,,0.0,0.0,100.81
2025-08-15T03:27:19.884Z,7,GR86-063-113,-2.4000000000000004,-0.132,-0.155,3.41,3.0,,0.0,0.0,
2025-08-15T03:27:19.927Z,7,GR86-063-113,-2.6,-0.105,-0.168,3.3200000000000003,3.0,,0.0,0.0,
2025-08-15T03:27:19.970Z,7,GR86-063-113,-2.8000000000000003,-0.122,-0.18,3.06,3.0,,0.0,0.0,
2025-08-15T03:27:20.015Z,7,GR86-063-113,-3.1,-0.149,-0.166,2.9,3.0,4570.0,0.0,0.0,
2025-08-15T03:27:20.058Z,7,GR86-063-113,-3.3000000000000003,-0.125,-0.188,2.81,3.0,,0.0,0.0,100.1
2025-08-15T03:27:20.101Z,7,GR86-063-113,-3.5,-0.144,-0.187,2.75,3.0,,1.925,2.015,
2025-08-15T03:27:20.144Z,7,GR86-063-113,-3.8,-0.142,-0.186,2.68,3.0,,2.61,2.795,
2025-08-15T03:27:20.187Z,7,GR86-063-113,-4.1000000000000005,-0.171,-0.197,2.63,3.0,,3.435,3.585,
2025-08-15T03:27:20.230Z,7,GR86-063-113,-4.6000000000000005,-0.183,-0.2,2.6,3.0,4536.0,5.05,5.19,
2025-08-15T03:27:20.274Z,7,GR86-063-113,-5.300000000000001,-0.225,-0.221,2.5500000000000003,3.0,,7.140000000000001,7.43,99.42
2025-08-15T03:27:20.317Z,7,GR86-063-113,-5.6000000000000005,-0.267,-0.216,2.53,3.0,,8.425,8.395,
2025-08-15T03:27:20.360Z,7,GR86-063-113,-5.7,-0.252,-0.241,2.52,3.0,,9.155,9.37,
2025-08-15T03:27:20.404Z,7,GR86-063-113,-5.800000000000001,-0.279,-0.243,2.52,3.0,,9.995,10.085,
2025-08-15T03:27:20.446Z,7,GR86-063-113,-5.9,-0.277,-0.247,2.5,3.0,4472.0,11.245,11.245,
2025-08-15T03:27:20.489Z,7,GR86-063-113,-5.9,-0.311,-0.275,2.48,3.0,,12.24,12.24,98.22
2025-08-15T03:27:20.533Z,7,GR86-063-113,-5.9,-0.347,-0.26,2.49,3.0,,13.55,13.58,
2025-08-15T03:27:20.576Z,7,GR86-063-113,-5.9,-0.315,-0.274,2.49,3.0,,13.855,14.085,
2025-08-15T03:27:20.619Z,7,GR86-063-113,-5.9,-0.354,-0.245,2.47,3.0,,13.825,13.915,
2025-08-15T03:27:20.664Z,7,GR86-063-113,-5.800000000000001,-0.324,-0.261,2.46,3.0,4378.0,13.705,13.995,
2025-08-15T03:27:20.707Z,7,GR86-063-113,-5.800000000000001,-0.361,-0.233,2.46,3.0,,13.52,13.95,96.44
2025-08-15T03:27:20.750Z,7,GR86-063-113,-5.800000000000001,-0.327,-0.253,2.46,3.0,,13.11,13.55,
2025-08-15T03:27:20.794Z,7,GR86-063-113,-5.800000000000001,-0.302,-0.253,2.46,3.0,,10.835,11.43,
2025-08-15T03:27:20.837Z,7,GR86-063-113,-5.800000000000001,-0.305,-0.23,2.46,3.0,,8.605,9.43,
2025-08-15T03:27:20.880Z,7,GR86-063-113,-5.800000000000001,-0.249,-0.248,2.46,3.0,4278.0,6.335,7.0200000000000005,
2025-08-15T03:27:20.925Z,7,GR86-063-113,-5.800000000000001,-0.234,-0.224,2.46,3.0,,4.595,5.11,94.34
2025-08-15T03:27:20.968Z,7,GR86-063-113,-5.800000000000001,-0.188,-0.241,2.46,3.0,,3.37,3.785,
2025-08-15T03:27:21.011Z,7,GR86-063-113,-5.800000000000001,-0.191,-0.206,2.46,3.0,,2.67,3.1,
2025-08-15T03:27:21.057Z,7,GR86-063-113,-5.9,-0.175,-0.211,2.46,3.0,,1.985,2.395,
2025-08-15T03:27:21.100Z,7,GR86-063-113,-6.0,-0.171,-0.216,2.45,3.0,4209.0,0.0,0.0,
2025-08-15T03:27:21.144Z,7,GR86-063-113,-6.4,-0.123,-0.225,2.52,3.0,,0.0,0.0,92.48
2025-08-15T03:27:21.186Z,7,GR86-063-113,-6.6000000000000005,-0.112,-0.216,2.89,3.0,,0.0,0.0,
2025-08-15T03:27:21.274Z,7,GR86-063-113,-6.9,-0.131,-0.23,4.21,3.0,,0.0,0.0,
2025-08-15T03:27:21.317Z,7,GR86-063-113,-7.0,-0.124,-0.23,4.37,3.0,4174.0,0.0,0.0,
2025-08-15T03:27:21.360Z,7,GR86-063-113,-7.2,-0.121,-0.237,4.46,3.0,,0.0,0.0,91.47
2025-08-15T03:27:21.404Z,7,GR86-063-113,-7.7,-0.121,-0.236,4.78,3.0,,0.0,0.0,
2025-08-15T03:27:21.447Z,7,GR86-063-113,-7.9,-0.123,-0.246,4.88,3.0,,0.0,0.0,
2025-08-15T03:27:21.490Z,7,GR86-063-113,-8.200000000000001,-0.089,-0.243,4.94,3.0,,0.0,0.0,
2025-08-15T03:27:21.534Z,7,GR86-063-113,-8.5,-0.088,-0.242,5.0,3.0,4151.0,0.0,0.0,
2025-08-15T03:27:21.577Z,7,GR86-063-113,-8.700000000000001,-0.117,-0.246,5.0,3.0,,0.0,0.0,90.85
2025-08-15T03:27:21.620Z,7,GR86-063-113,-8.9,-0.118,-0.253,5.03,3.0,,0.0,0.0,
2025-08-15T03:27:21.665Z,7,GR86-063-113,-9.0,-0.118,-0.246,5.04,3.0,,0.0,0.0,
2025-08-15T03:27:21.708Z,7,GR86-063-113,-9.0,-0.095,-0.268,5.0600000000000005,3.0,,0.0,0.0,
2025-08-15T03:27:21.751Z,7,GR86-063-113,-9.1,-0.104,-0.257,5.0600000000000005,3.0,4118.0,0.0,0.0,
2025-08-15T03:27:21.794Z,7,GR86-063-113,-9.9,-0.105,-0.267,5.0600000000000005,3.0,,0.0,0.0,90.29
2025-08-15T03:27:21.837Z,7,GR86-063-113,-10.6,-0.105,-0.277,5.07,3.0,,0.0,0.0,
2025-08-15T03:27:21.880Z,7,GR86-063-113,-11.3,-0.087,-0.281,5.04,3.0,,0.0,0.0,
2025-08-15T03:27:21.926Z,7,GR86-063-113,-12.1,-0.104,-0.298,5.0600000000000005,3.0,,0.0,0.0,
2025-08-15T03:27:21.968Z,7,GR86-063-113,-12.9,-0.103,-0.297,5.1000000000000005,3.0,4108.0,0.0,0.0,
2025-08-15T03:27:22.011Z,7,GR86-063-113,-13.8,-0.117,-0.315,5.13,3.0,,0.0,0.0,89.84
2025-08-15T03:27:22.054Z,7,GR86-063-113,-14.4,-0.098,-0.33,6.19,3.0,,0.0,0.0,
2025-08-15T03:27:22.097Z,7,GR86-063-113,-14.5,-0.099,-0.359,7.49,3.0,,0.0,0.0,
2025-08-15T03:27:22.140Z,7,GR86-063-113,-14.5,-0.112,-0.349,7.67,3.0,,0.0,0.0,
2025-08-15T03:27:22.184Z,7,GR86-063-113,-14.5,-0.113,-0.359,7.7,3.0,4087.0,0.0,0.0,
2025-08-15T03:27:22.226Z,7,GR86-063-113,-14.5,-0.09,-0.349,8.040000000000001,3.0,,0.0,0.0,88.91
2025-08-15T03:27:22.269Z,7,GR86-063-113,-14.5,-0.088,-0.367,8.05,3.0,,0.0,0.0,
2025-08-15T03:27:22.314Z,7,GR86-063-113,-14.6,-0.114,-0.364,13.52,3.0,,0.0,0.0,
2025-08-15T03:27:22.357Z,7,GR86-063-113,-14.9,-0.121,-0.364,15.94,3.0,,0.0,0.0,
2025-08-15T03:27:22.400Z,7,GR86-063-113,-15.7,-0.122,-0.355,16.17,3.0,4081.0,0.0,0.0,
2025-08-15T03:27:22.444Z,7,GR86-063-113,-17.2,-0.08,-0.367,16.39,3.0,,0.0,0.0,88.46000000000001
2025-08-15T03:27:22.486Z,7,GR86-063-113,-19.3,-0.076,-0.377,16.490000000000002,3.0,,0.0,0.0,
2025-08-15T03:27:22.529Z,7,GR86-063-113,-21.700000000000003,-0.074,-0.412,16.73,3.0,,0.0,0.0,
2025-08-15T03:27:22.574Z,7,GR86-063-113,-24.6,0.068,-0.456,14.91,3.0,,0.0,0.0,
2025-08-15T03:27:22.617Z,7,GR86-063-113,-26.5,0.177,-0.468,12.45,3.0,4239.0,0.0,0.0,
2025-08-15T03:27:22.660Z,7,GR86-063-113,-28.5,0.015,-0.508,14.13,3.0,,0.0,0.0,87.99
2025-08-15T03:27:22.704Z,7,GR86-063-113,-30.0,-0.085,-0.509,17.13,3.0,,0.0,0.0,
2025-08-15T03:27:22.746Z,7,GR86-063-113,-30.6,-0.075,-0.587,15.76,3.0,,0.0,0.0,
2025-08-15T03:27:22.789Z,7,GR86-063-113,-31.1,-0.051,-0.584,14.03,3.0,,0.0,0.0,
2025-08-15T03:27:22.834Z,7,GR86-063-113,-32.1,0.081,-0.584,14.04,3.0,4161.0,0.0,0.0,
2025-08-15T03:27:22.877Z,7,GR86-063-113,-33.1,0.025,-0.616,14.02,3.0,,0.0,0.0,88.16
2025-08-15T03:27:22.920Z,7,GR86-063-113,-34.0,-0.059,-0.639,15.37,3.0,,0.0,0.0,
2025-08-15T03:27:22.964Z,7,GR86-063-113,-34.7,-0.058,-0.647,15.6,3.0,,0.0,0.0,
2025-08-15T03:27:23.007Z,7,GR86-063-113,-35.1,-0.023,-0.704,13.95,3.0,,0.0,0.0,
2025-08-15T03:27:23.050Z,7,GR86-063-113,-35.2,0.009,-0.681,13.96,3.0,4116.0,0.0,0.0,
2025-08-15T03:27:23.137Z,7,GR86-063-113,-35.1,-0.009,-0.681,14.22,3.0,,0.0,0.0,88.28
2025-08-15T03:27:23.180Z,7,GR86-063-113,-34.7,-0.027,-0.6990000000000001,14.96,3.0,,0.0,0.0,
2025-08-15T03:27:23.226Z,7,GR86-063-113,-34.4,-0.012,-0.721,14.74,3.0,,0.0,0.0,
2025-08-15T03:27:23.268Z,7,GR86-063-113,-34.1,-0.017,-0.6990000000000001,14.66,3.0,4097.0,0.0,0.0,
2025-08-15T03:27:23.311Z,7,GR86-063-113,-33.7,-0.006,-0.707,14.76,3.0,,0.0,0.0,88.39
2025-08-15T03:27:23.354Z,7,GR86-063-113,-33.7,-0.011,-0.684,14.71,3.0,,0.0,0.0,
2025-08-15T03:27:23.440Z,7,GR86-063-113,-33.7,-0.008,-0.7010000000000001,14.82,3.0,,0.0,0.0,
2025-08-15T03:27:23.484Z,7,GR86-063-113,-33.6,-0.026,-0.746,14.56,3.0,4099.0,0.0,0.0,
2025-08-15T03:27:23.526Z,7,GR86-063-113,-33.5,0.01,-0.644,14.58,3.0,,0.0,0.0,88.47
2025-08-15T03:27:23.569Z,7,GR86-063-113,-33.5,-0.035,-0.724,15.56,3.0,,0.0,0.0,
2025-08-15T03:27:23.615Z,7,GR86-063-113,-33.5,-0.051,-0.635,15.13,3.0,,0.0,0.0,
2025-08-15T03:27:23.658Z,7,GR86-063-113,-33.5,0.019,-0.709,14.78,3.0,,0.0,0.0,
2025-08-15T03:27:23.701Z,7,GR86-063-113,-33.2,-0.05,-0.679,16.13,3.0,4107.0,0.0,0.0,
2025-08-15T03:27:23.744Z,7,GR86-063-113,-32.9,0.0,-0.68,14.49,3.0,,0.0,0.0,88.57000000000001
2025-08-15T03:27:23.787Z,7,GR86-063-113,-32.6,-0.013,-0.673,16.05,3.0,,0.0,0.0,
2025-08-15T03:27:23.830Z,7,GR86-063-113,-32.6,0.008,-0.667,15.76,3.0,,0.0,0.0,
2025-08-15T03:27:23.874Z,7,GR86-063-113,-32.6,0.017,-0.678,15.8,3.0,,0.0,0.0,
2025-08-15T03:27:23.917Z,7,GR86-063-113,-32.6,-0.005,-0.665,15.81,3.0,4121.0,0.0,0.0,
2025-08-15T03:27:23.960Z,7,GR86-063-113,-32.4,0.004,-0.67,15.72,3.0,,0.0,0.0,88.65
2025-08-15T03:27:24.004Z,7,GR86-063-113,-32.4,0.007,-0.651,15.69,3.0,,0.0,0.0,
2025-08-15T03:27:24.046Z,7,GR86-063-113,-32.4,0.017,-0.649,15.71,3.0,,0.0,0.0,
2025-08-15T03:27:24.089Z,7,GR86-063-113,-32.4,0.012,-0.654,15.78,3.0,,0.0,0.0,
2025-08-15T03:27:24.133Z,7,GR86-063-113,-32.300000000000004,0.004,-0.637,15.67,3.0,4121.0,0.0,0.0,
2025-08-15T03:27:24.176Z,7,GR86-063-113,-32.300000000000004,-0.017,-0.648,15.78,3.0,,0.0,0.0,88.74
2025-08-15T03:27:24.219Z,7,GR86-063-113,-32.1,0.007,-0.649,15.57,3.0,,0.0,0.0,
2025-08-15T03:27:24.264Z,7,GR86-063-113,-31.9,-0.008,-0.62,15.77,3.0,,0.0,0.0,
2025-08-15T03:27:24.307Z,7,GR86-063-113,-31.700000000000003,0.0,-0.648,15.75,3.0,,0.0,0.0,
2025-08-15T03:27:24.350Z,7,GR86-063-113,-31.6,-0.011,-0.64,15.72,3.0,4129.0,0.0,0.0,
2025-08-15T03:27:24.394Z,7,GR86-063-113,-31.6,0.007,-0.64,15.73,3.0,,0.0,0.0,88.95
2025-08-15T03:27:24.437Z,7,GR86-063-113,-31.5,0.009,-0.639,15.44,3.0,,0.0,0.0,
2025-08-15T03:27:24.480Z,7,GR86-063-113,-31.5,0.001,-0.643,15.12,3.0,,0.0,0.0,
2025-08-15T03:27:24.526Z,7,GR86-063-113,-31.5,0.009,-0.63,15.65,3.0,,0.0,0.0,
2025-08-15T03:27:24.568Z,7,GR86-063-113,-31.4,0.003,-0.638,15.69,3.0,4134.0,0.0,0.0,
2025-08-15T03:27:24.611Z,7,GR86-063-113,-31.200000000000003,0.005,-0.626,15.79,3.0,,0.0,0.0,89.12
2025-08-15T03:27:24.654Z,7,GR86-063-113,-31.0,-0.001,-0.642,15.96,3.0,,0.0,0.0,
2025-08-15T03:27:24.697Z,7,GR86-063-113,-30.8,0.011,-0.634,16.2,3.0,,0.0,0.0,
2025-08-15T03:27:24.784Z,7,GR86-063-113,-30.200000000000003,0.006,-0.64,16.7,3.0,4137.0,0.0,0.0,
2025-08-15T03:27:24.827Z,7,GR86-063-113,-30.6,-0.011,-0.642,16.61,3.0,,0.0,0.0,89.43
2025-08-15T03:27:24.870Z,7,GR86-063-113,-29.700000000000003,0.02,-0.611,17.37,3.0,,0.0,0.0,
2025-08-15T03:27:24.914Z,7,GR86-063-113,-29.6,0.01,-0.597,18.19,3.0,,0.0,0.0,
2025-08-15T03:27:24.957Z,7,GR86-063-113,-29.5,0.028,-0.604,18.29,3.0,,0.0,0.0,
2025-08-15T03:27:25.000Z,7,GR86-063-113,-29.3,0.01,-0.604,19.23,3.0,4148.0,0.0,0.0,
2025-08-15T03:27:25.044Z,7,GR86-063-113,-29.0,0.028,-0.592,19.6,3.0,,0.0,0.0,89.63
2025-08-15T03:27:25.086Z,7,GR86-063-113,-28.9,0.035,-0.5660000000000001,19.72,3.0,,0.0,0.0,
2025-08-15T03:27:25.129Z,7,GR86-063-113,-28.700000000000003,0.051,-0.5700000000000001,19.78,3.0,,0.0,0.0,
2025-08-15T03:27:25.174Z,7,GR86-063-113,-28.3,0.068,-0.5650000000000001,19.78,3.0,,0.0,0.0,
2025-08-15T03:27:25.217Z,7,GR86-063-113,-27.9,0.044,-0.5650000000000001,19.76,3.0,4185.0,0.0,0.0,
2025-08-15T03:27:25.260Z,7,GR86-063-113,-27.6,0.053,-0.555,19.75,3.0,,0.0,0.0,89.88
2025-08-15T03:27:25.304Z,7,GR86-063-113,-27.4,0.057,-0.5750000000000001,19.73,3.0,,0.0,0.0,
2025-08-15T03:27:25.347Z,7,GR86-063-113,-27.4,0.058,-0.5650000000000001,19.65,3.0,,0.0,0.0,
2025-08-15T03:27:25.434Z,7,GR86-063-113,-27.700000000000003,0.062,-0.543,19.51,3.0,4210.0,0.0,0.0,
2025-08-15T03:27:25.477Z,7,GR86-063-113,-29.0,0.04,-0.555,19.51,3.0,,0.0,0.0,90.35
2025-08-15T03:27:25.520Z,7,GR86-063-113,-31.0,0.051,-0.5630000000000001,19.5,3.0,,0.0,0.0,
2025-08-15T03:27:25.607Z,7,GR86-063-113,-35.0,0.029,-0.591,19.43,3.0,,0.0,0.0,
2025-08-15T03:27:25.650Z,7,GR86-063-113,-43.3,0.03,-0.658,19.08,3.0,4233.0,0.0,0.0,
2025-08-15T03:27:25.694Z,7,GR86-063-113,-47.8,0.024,-0.754,18.67,3.0,,0.0,0.0,90.84
2025-08-15T03:27:25.737Z,7,GR86-063-113,-49.8,0.029,-0.804,18.46,3.0,,0.0,0.0,
2025-08-15T03:27:25.780Z,7,GR86-063-113,-51.1,0.01,-0.834,18.35,3.0,,0.0,0.0,
2025-08-15T03:27:25.825Z,7,GR86-063-113,-51.7,0.022,-0.863,18.32,3.0,,0.0,0.0,
2025-08-15T03:27:25.868Z,7,GR86-063-113,-51.8,0.011,-0.9,18.09,3.0,4258.0,0.0,0.0,
2025-08-15T03:27:25.911Z,7,GR86-063-113,-51.8,0.015,-0.931,17.82,3.0,,0.0,0.0,91.22
2025-08-15T03:27:25.954Z,7,GR86-063-113,-51.2,-0.009,-0.977,16.77,3.0,,0.0,0.0,
2025-08-15T03:27:25.997Z,7,GR86-063-113,-50.7,0.001,-0.969,16.740000000000002,3.0,,0.0,0.0,
2025-08-15T03:27:26.040Z,7,GR86-063-113,-49.7,0.0,-0.964,16.77,3.0,,0.0,0.0,
2025-08-15T03:27:26.084Z,7,GR86-063-113,-48.3,0.012,-0.982,16.68,3.0,4281.0,0.0,0.0,
2025-08-15T03:27:26.126Z,7,GR86-063-113,-46.1,-0.008,-0.963,16.68,3.0,,0.0,0.0,92.56
2025-08-15T03:27:26.169Z,7,GR86-063-113,-43.3,-0.001,-0.96,16.68,3.0,,0.0,0.0,
2025-08-15T03:27:26.214Z,7,GR86-063-113,-38.900000000000006,0.0,-0.933,16.830000000000002,3.0,,0.0,0.0,
2025-08-15T03:27:26.257Z,7,GR86-063-113,-36.0,-0.001,-0.907,17.51,3.0,,0.0,0.0,
2025-08-15T03:27:26.300Z,7,GR86-063-113,-34.1,0.01,-0.865,17.69,3.0,4281.0,0.0,0.0,
2025-08-15T03:27:26.344Z,7,GR86-063-113,-33.2,-0.004,-0.853,17.8,3.0,,0.0,0.0,92.65
2025-08-15T03:27:26.386Z,7,GR86-063-113,-33.1,0.003,-0.81,17.88,3.0,,0.0,0.0,
2025-08-15T03:27:26.429Z,7,GR86-063-113,-33.1,0.003,-0.789,17.97,3.0,,0.0,0.0,
2025-08-15T03:27:26.474Z,7,GR86-063-113,-32.6,0.035,-0.763,18.04,3.0,,0.0,0.0,
2025-08-15T03:27:26.517Z,7,GR86-063-113,-31.6,0.02,-0.741,18.11,3.0,4267.0,0.0,0.0,
2025-08-15T03:27:26.560Z,7,GR86-063-113,-29.700000000000003,0.035,-0.6940000000000001,18.2,3.0,,0.0,0.0,92.55
2025-08-15T03:27:26.604Z,7,GR86-063-113,-26.6,0.027,-0.681,18.38,3.0,,0.0,0.0,
2025-08-15T03:27:26.646Z,7,GR86-063-113,-22.0,0.04,-0.609,18.75,3.0,,0.0,0.0,
2025-08-15T03:27:26.689Z,7,GR86-063-113,-17.6,0.036,-0.559,19.35,3.0,,0.0,0.0,
2025-08-15T03:27:26.734Z,7,GR86-063-113,-12.5,0.033,-0.452,19.91,3.0,4266.0,0.0,0.0,
2025-08-15T03:27:26.777Z,7,GR86-063-113,-9.7,0.043,-0.403,20.12,3.0,,0.0,0.0,91.76
2025-08-15T03:27:26.820Z,7,GR86-063-113,-7.300000000000001,0.052,-0.334,20.37,3.0,,0.0,0.0,
2025-08-15T03:27:26.864Z,7,GR86-063-113,-5.4,0.07,-0.28,20.46,3.0,,0.0,0.0,
2025-08-15T03:27:26.906Z,7,GR86-063-113,-3.5,0.062,-0.196,20.48,3.0,,0.0,0.0,
2025-08-15T03:27:26.949Z,7,GR86-063-113,-1.9,0.063,-0.151,20.46,3.0,4280.0,0.0,0.0,
2025-08-15T03:27:26.994Z,7,GR86-063-113,-0.3,0.079,-0.071,19.89,3.0,,0.0,0.0,92.03
2025-08-15T03:27:27.037Z,7,GR86-063-113,0.8,0.08,-0.047,19.28,3.0,,0.0,0.0,
2025-08-15T03:27:27.080Z,7,GR86-063-113,2.1,0.076,-0.021,18.64,3.0,,0.0,0.0,
2025-08-15T03:27:27.125Z,7,GR86-063-113,3.3000000000000003,0.063,-0.002,18.42,3.0,,0.0,0.0,
2025-08-15T03:27:27.168Z,7,GR86-063-113,4.3,0.058,0.011,18.39,3.0,4298.0,0.0,0.0,
2025-08-15T03:27:27.257Z,7,GR86-063-113,4.4,0.053,0.027,18.34,3.0,,0.0,0.0,92.46
2025-08-15T03:27:27.300Z,7,GR86-063-113,4.4,0.047,0.037,18.33,3.0,,0.0,0.0,
2025-08-15T03:27:27.344Z,7,GR86-063-113,4.5,0.052,0.029,18.32,3.0,,0.0,0.0,
2025-08-15T03:27:27.386Z,7,GR86-063-113,4.800000000000001,0.05,0.046,18.32,3.0,4308.0,0.0,0.0,
2025-08-15T03:27:27.429Z,7,GR86-063-113,4.6000000000000005,0.054,0.036,18.32,3.0,,0.0,0.0,93.47
2025-08-15T03:27:27.474Z,7,GR86-063-113,4.9,0.042,0.023,18.29,3.0,,0.0,0.0,
2025-08-15T03:27:27.517Z,7,GR86-063-113,4.9,0.035,0.024,18.28,3.0,,0.0,0.0,
2025-08-15T03:27:27.560Z,7,GR86-063-113,4.9,0.045,0.016,18.04,3.0,,0.0,0.0,
2025-08-15T03:27:27.604Z,7,GR86-063-113,4.9,0.049,0.028,17.93,3.0,4328.0,0.0,0.0,
2025-08-15T03:27:27.646Z,7,GR86-063-113,4.9,0.052,0.021,17.94,3.0,,0.0,0.0,93.86
2025-08-15T03:27:27.689Z,7,GR86-063-113,5.0,0.037,0.029,17.990000000000002,3.0,,0.0,0.0,
2025-08-15T03:27:27.734Z,7,GR86-063-113,5.0,0.042,0.029,18.01,3.0,,0.0,0.0,
2025-08-15T03:27:27.776Z,7,GR86-063-113,5.0,0.045,0.032,18.03,3.0,,0.0,0.0,
2025-08-15T03:27:27.864Z,7,GR86-063-113,5.2,0.05,0.03,18.11,3.0,4364.0,0.0,0.0,94.23
2025-08-15T03:27:27.907Z,7,GR86-063-113,5.7,0.034,0.045,18.31,3.0,,0.0,0.0,
2025-08-15T03:27:27.950Z,7,GR86-063-113,5.800000000000001,0.029,0.035,18.51,3.0,,0.0,0.0,
2025-08-15T03:27:27.994Z,7,GR86-063-113,6.0,0.06,0.062,18.56,3.0,,0.0,0.0,
2025-08-15T03:27:28.037Z,7,GR86-063-113,6.1000000000000005,0.065,0.046,18.57,3.0,4395.0,0.0,0.0,
2025-08-15T03:27:28.080Z,7,GR86-063-113,5.800000000000001,0.063,0.055,18.59,3.0,,0.0,0.0,94.63
2025-08-15T03:27:28.125Z,7,GR86-063-113,5.6000000000000005,0.049,0.052,18.67,3.0,,0.0,0.0,
2025-08-15T03:27:28.168Z,7,GR86-063-113,5.5,0.046,0.045,18.7,3.0,,0.0,0.0,
2025-08-15T03:27:28.211Z,7,GR86-063-113,5.4,0.052,0.05,18.73,3.0,,0.0,0.0,
2025-08-15T03:27:28.254Z,7,GR86-063-113,5.300000000000001,0.056,0.045,18.76,3.0,4407.0,0.0,0.0,
2025-08-15T03:27:28.297Z,7,GR86-063-113,5.2,0.056,0.048,18.76,3.0,,0.0,0.0,95.01
2025-08-15T03:27:28.340Z,7,GR86-063-113,5.2,0.049,0.036,18.77,3.0,,0.0,0.0,
2025-08-15T03:27:28.384Z,7,GR86-063-113,5.300000000000001,0.047,0.035,18.84,3.0,,0.0,0.0,
2025-08-15T03:27:28.427Z,7,GR86-063-113,5.300000000000001,0.047,0.037,18.86,3.0,,0.0,0.0,
2025-08-15T03:27:28.470Z,7,GR86-063-113,5.300000000000001,0.054,0.037,18.85,3.0,4415.0,0.0,0.0,
2025-08-15T03:27:28.514Z,7,GR86-063-113,5.300000000000001,0.054,0.043,18.83,3.0,,0.0,0.0,95.46
2025-08-15T03:27:28.557Z,7,GR86-063-113,5.4,0.049,0.04,18.85,3.0,,0.0,0.0,
2025-08-15T03:27:28.600Z,7,GR86-063-113,5.7,0.05,0.049,18.83,3.0,,0.0,0.0,
2025-08-15T03:27:28.644Z,7,GR86-063-113,6.5,0.047,0.05,18.84,3.0,,0.0,0.0,
2025-08-15T03:27:28.686Z,7,GR86-063-113,7.2,0.061,0.068,18.83,3.0,4443.0,0.0,0.0,
2025-08-15T03:27:28.729Z,7,GR86-063-113,7.300000000000001,0.057,0.082,18.83,3.0,,0.0,0.0,95.91
2025-08-15T03:27:28.774Z,7,GR86-063-113,6.7,0.04,0.074,18.83,3.0,,0.0,0.0,
2025-08-15T03:27:28.817Z,7,GR86-063-113,6.5,0.054,0.082,18.83,3.0,,0.0,0.0,
2025-08-15T03:27:28.860Z,7,GR86-063-113,6.300000000000001,0.044,0.061,18.83,3.0,,0.0,0.0,
2025-08-15T03:27:28.904Z,7,GR86-063-113,6.2,0.049,0.062,18.83,3.0,4468.0,0.0,0.0,
2025-08-15T03:27:28.946Z,7,GR86-063-113,6.2,0.051,0.052,18.83,3.0,,0.0,0.0,96.37
2025-08-15T03:27:28.989Z,7,GR86-063-113,6.2,0.047,0.063,18.83,3.0,,0.0,0.0,
2025-08-15T03:27:29.034Z,7,GR86-063-113,6.2,0.042,0.063,18.83,3.0,,0.0,0.0,
2025-08-15T03:27:29.077Z,7,GR86-063-113,6.2,0.049,0.062,18.82,3.0,,0.0,0.0,
2025-08-15T03:27:29.120Z,7,GR86-063-113,6.2,0.058,0.061,18.83,3.0,4490.0,0.0,0.0,
2025-08-15T03:27:29.165Z,7,GR86-063-113,6.2,0.048,0.058,18.83,3.0,,0.0,0.0,96.86
2025-08-15T03:27:29.207Z,7,GR86-063-113,6.2,0.046,0.06,18.83,3.0,,0.0,0.0,
2025-08-15T03:27:29.250Z,7,GR86-063-113,6.2,0.041,0.053,18.83,3.0,,0.0,0.0,
2025-08-15T03:27:29.294Z,7,GR86-063-113,6.2,0.057,0.043,18.83,3.0,,0.0,0.0,
2025-08-15T03:27:29.336Z,7,GR86-063-113,6.2,0.054,0.047,18.83,3.0,4512.0,0.0,0.0,
2025-08-15T03:27:29.380Z,7,GR86-063-113,6.2,0.046,0.047,18.83,3.0,,0.0,0.0,97.39
2025-08-15T03:27:29.426Z,7,GR86-063-113,6.2,0.044,0.047,18.83,3.0,,0.0,0.0,
2025-08-15T03:27:29.468Z,7,GR86-063-113,6.2,0.044,0.042,18.83,3.0,,0.0,0.0,
2025-08-15T03:27:29.511Z,7,GR86-063-113,6.2,0.055,0.043,18.46,3.0,,0.0,0.0,
2025-08-15T03:27:29.554Z,7,GR86-063-113,6.300000000000001,0.047,0.047,5.67,3.0,4535.0,0.0,0.0,
2025-08-15T03:27:29.597Z,7,GR86-063-113,6.300000000000001,0.041,0.041,3.96,3.0,,0.0,0.0,97.96
2025-08-15T03:27:29.640Z,7,GR86-063-113,6.300000000000001,-0.012,0.055,3.96,3.0,,0.0,0.0,
2025-08-15T03:27:29.684Z,7,GR86-063-113,6.300000000000001,-0.077,0.06,3.86,3.0,,0.0,0.0,
2025-08-15T03:27:29.726Z,7,GR86-063-113,6.300000000000001,-0.094,0.062,3.76,3.0,,0.0,0.0,
2025-08-15T03:27:29.769Z,7,GR86-063-113,6.300000000000001,-0.315,0.048,3.61,3.0,4561.0,0.0,0.0,
2025-08-15T03:27:29.814Z,7,GR86-063-113,6.300000000000001,-0.123,0.073,3.25,3.0,,0.0,0.0,98.94
2025-08-15T03:27:29.857Z,7,GR86-063-113,6.300000000000001,-0.047,0.044,2.88,3.0,,0.0,0.0,
2025-08-15T03:27:29.900Z,7,GR86-063-113,6.300000000000001,-0.065,0.073,2.7,3.0,,0.0,0.0,
2025-08-15T03:27:29.944Z,7,GR86-063-113,6.300000000000001,-0.066,0.057,2.62,3.0,,0.0,0.0,
2025-08-15T03:27:29.986Z,7,GR86-063-113,6.300000000000001,-0.168,0.04,2.56,3.0,4537.0,0.0,0.0,
2025-08-15T03:27:30.029Z,7,GR86-063-113,6.300000000000001,-0.209,0.08,2.52,3.0,,0.0,0.0,98.29
2025-08-15T03:27:30.074Z,7,GR86-063-113,6.4,-0.106,0.054,2.46,3.0,,0.0,0.0,
2025-08-15T03:27:30.117Z,7,GR86-063-113,6.5,-0.078,0.059,2.45,3.0,,0.0,0.0,
2025-08-15T03:27:30.160Z,7,GR86-063-113,6.5,-0.111,0.063,2.43,3.0,,0.0,0.0,
2025-08-15T03:27:30.204Z,7,GR86-063-113,6.5,-0.161,0.048,2.43,3.0,4406.0,0.0,0.0,
2025-08-15T03:27:30.246Z,7,GR86-063-113,6.5,-0.16,0.069,2.43,3.0,,0.0,0.0,97.69
2025-08-15T03:27:30.289Z,7,GR86-063-113,6.5,-0.13,0.063,2.43,3.0,,0.0,0.0,
2025-08-15T03:27:30.334Z,7,GR86-063-113,6.6000000000000005,-0.12,0.066,2.43,3.0,,0.0,0.0,
2025-08-15T03:27:30.377Z,7,GR86-063-113,6.6000000000000005,-0.137,0.077,2.42,3.0,,0.0,0.0,
2025-08-15T03:27:30.420Z,7,GR86-063-113,6.9,-0.158,0.07,2.43,3.0,4426.0,0.0,2.015,
2025-08-15T03:27:30.464Z,7,GR86-063-113,7.1000000000000005,-0.155,0.073,2.43,3.0,,2.245,2.395,97.06
2025-08-15T03:27:30.506Z,7,GR86-063-113,7.1000000000000005,-0.148,0.077,2.43,3.0,,2.335,2.485,
2025-08-15T03:27:30.549Z,7,GR86-063-113,6.9,-0.163,0.074,2.43,3.0,,2.335,2.52,
2025-08-15T03:27:30.594Z,7,GR86-063-113,6.9,-0.16,0.083,2.43,3.0,,2.305,2.485,
2025-08-15T03:27:30.637Z,7,GR86-063-113,6.9,-0.148,0.07,2.42,3.0,4399.0,2.335,2.395,
2025-08-15T03:27:30.680Z,7,GR86-063-113,6.9,-0.151,0.087,2.43,3.0,,0.0,1.925,96.34
2025-08-15T03:27:30.725Z,7,GR86-063-113,6.9,-0.14,0.069,2.42,3.0,,0.0,0.0,
2025-08-15T03:27:30.768Z,7,GR86-063-113,6.9,-0.121,0.085,2.43,3.0,,0.0,0.0,
2025-08-15T03:27:30.811Z,7,GR86-063-113,6.9,-0.123,0.072,2.43,3.0,,0.0,0.0,
2025-08-15T03:27:30.854Z,7,GR86-063-113,6.800000000000001,-0.116,0.093,2.44,3.0,4367.0,0.0,0.0,
2025-08-15T03:27:30.897Z,7,GR86-063-113,6.800000000000001,-0.121,0.079,2.42,3.0,,0.0,0.0,95.58
2025-08-15T03:27:30.940Z,7,GR86-063-113,6.7,-0.117,0.097,2.43,3.0,,0.0,0.0,
2025-08-15T03:27:30.984Z,7,GR86-063-113,6.7,-0.112,0.083,2.46,3.0,,0.0,0.0,
2025-08-15T03:27:31.027Z,7,GR86-063-113,6.6000000000000005,-0.118,0.076,2.46,3.0,,0.0,0.0,
2025-08-15T03:27:31.070Z,7,GR86-063-113,6.6000000000000005,-0.111,0.064,2.46,3.0,4350.0,0.0,0.0,
2025-08-15T03:27:31.115Z,7,GR86-063-113,6.6000000000000005,-0.118,0.06,2.45,3.0,,0.0,0.0,95.04
2025-08-15T03:27:31.158Z,7,GR86-063-113,6.6000000000000005,-0.122,0.068,2.45,3.0,,0.0,0.0,
2025-08-15T03:27:31.201Z,7,GR86-063-113,6.6000000000000005,-0.125,0.063,2.45,3.0,,0.0,0.0,
2025-08-15T03:27:31.244Z,7,GR86-063-113,6.6000000000000005,-0.124,0.074,2.46,3.0,,0.0,0.0,
2025-08-15T03:27:31.287Z,7,GR86-063-113,6.6000000000000005,-0.121,0.05,2.46,3.0,4320.0,0.0,0.0,
2025-08-15T03:27:31.374Z,7,GR86-063-113,6.6000000000000005,-0.121,0.051,2.47,3.0,,0.0,0.0,94.54
2025-08-15T03:27:31.417Z,7,GR86-063-113,6.4,-0.117,0.046,2.51,3.0,,0.0,0.0,
2025-08-15T03:27:31.460Z,7,GR86-063-113,6.0,-0.118,0.031,2.5500000000000003,3.0,,0.0,0.0,
2025-08-15T03:27:31.504Z,7,GR86-063-113,5.6000000000000005,-0.118,0.038,2.5500000000000003,3.0,4309.0,0.0,0.0,
2025-08-15T03:27:31.546Z,7,GR86-063-113,5.1000000000000005,-0.129,0.032,2.59,3.0,,0.0,0.0,94.13
2025-08-15T03:27:31.589Z,7,GR86-063-113,4.7,-0.125,0.026,2.62,3.0,,0.0,0.0,
2025-08-15T03:27:31.633Z,7,GR86-063-113,4.3,-0.109,0.011,2.65,3.0,,0.0,0.0,
2025-08-15T03:27:31.719Z,7,GR86-063-113,4.2,-0.124,0.008,2.74,3.0,4298.0,0.0,0.0,
2025-08-15T03:27:31.764Z,7,GR86-063-113,4.2,-0.122,0.0,2.77,3.0,,0.0,0.0,93.79
2025-08-15T03:27:31.807Z,7,GR86-063-113,4.1000000000000005,-0.117,0.002,2.79,3.0,,0.0,0.0,
2025-08-15T03:27:31.850Z,7,GR86-063-113,4.2,-0.104,0.001,2.84,3.0,,0.0,0.0,
2025-08-15T03:27:31.894Z,7,GR86-063-113,4.2,-0.128,-0.006,3.0500000000000003,3.0,,0.0,0.0,
2025-08-15T03:27:31.936Z,7,GR86-063-113,4.2,-0.135,-0.002,3.1,3.0,4282.0,0.0,0.0,
2025-08-15T03:27:31.979Z,7,GR86-063-113,4.2,-0.122,-0.004,3.13,3.0,,0.0,0.0,93.42
2025-08-15T03:27:32.023Z,7,GR86-063-113,4.2,-0.129,0.008,3.19,3.0,,0.0,0.0,
2025-08-15T03:27:32.065Z,7,GR86-063-113,4.2,-0.116,-0.003,3.2,3.0,,0.0,0.0,
2025-08-15T03:27:32.108Z,7,GR86-063-113,4.2,-0.128,0.014,3.22,3.0,,0.0,0.0,
2025-08-15T03:27:32.151Z,7,GR86-063-113,4.2,-0.122,0.0,3.23,3.0,4270.0,0.0,0.0,
2025-08-15T03:27:32.194Z,7,GR86-063-113,4.2,-0.116,0.001,3.35,3.0,,0.0,0.0,93.12
2025-08-15T03:27:32.237Z,7,GR86-063-113,4.2,-0.119,0.009,3.36,3.0,,0.0,0.0,
2025-08-15T03:27:32.280Z,7,GR86-063-113,4.2,-0.121,0.013,3.42,3.0,,0.0,0.0,
2025-08-15T03:27:32.325Z,7,GR86-063-113,4.2,-0.116,0.006,3.52,3.0,,0.0,0.0,
2025-08-15T03:27:32.368Z,7,GR86-063-113,4.2,-0.11,0.009,3.5700000000000003,3.0,4249.0,0.0,0.0,
2025-08-15T03:27:32.411Z,7,GR86-063-113,4.2,-0.121,0.002,3.64,3.0,,0.0,0.0,92.77
2025-08-15T03:27:32.454Z,7,GR86-063-113,4.2,-0.12,-0.006,3.64,3.0,,0.0,0.0,
2025-08-15T03:27:32.497Z,7,GR86-063-113,4.2,-0.123,0.012,3.7,3.0,,0.0,0.0,
2025-08-15T03:27:32.540Z,7,GR86-063-113,4.2,-0.117,0.011,3.82,3.0,,0.0,0.0,
2025-08-15T03:27:32.584Z,7,GR86-063-113,4.2,-0.135,0.012,3.86,3.0,4234.0,0.0,0.0,
2025-08-15T03:27:32.627Z,7,GR86-063-113,4.2,-0.121,0.008,3.88,3.0,,0.0,0.0,92.17
2025-08-15T03:27:32.670Z,7,GR86-063-113,4.2,-0.117,0.008,3.91,3.0,,0.0,0.0,
2025-08-15T03:27:32.714Z,7,GR86-063-113,4.2,-0.114,0.02,4.18,3.0,,0.0,0.0,
2025-08-15T03:27:32.757Z,7,GR86-063-113,4.2,-0.13,0.009,4.62,3.0,,0.0,0.0,
2025-08-15T03:27:32.844Z,7,GR86-063-113,4.2,-0.133,0.01,4.72,3.0,4222.0,0.0,0.0,91.86
2025-08-15T03:27:32.886Z,7,GR86-063-113,4.2,-0.103,0.009,4.72,3.0,,0.0,0.0,
2025-08-15T03:27:32.929Z,7,GR86-063-113,4.2,-0.081,-0.001,4.72,3.0,,0.0,0.0,
2025-08-15T03:27:32.974Z,7,GR86-063-113,4.2,-0.083,0.008,4.72,3.0,,0.0,0.0,
2025-08-15T03:27:33.017Z,7,GR86-063-113,4.2,-0.112,0.007,4.72,3.0,4188.0,0.0,0.0,
2025-08-15T03:27:33.060Z,7,GR86-063-113,4.2,-0.13,0.01,4.72,3.0,,0.0,0.0,91.56
2025-08-15T03:27:33.104Z,7,GR86-063-113,4.2,-0.112,0.013,4.82,3.0,,0.0,0.0,
2025-08-15T03:27:33.147Z,7,GR86-063-113,4.2,-0.096,0.017,4.88,3.0,,0.0,0.0,
2025-08-15T03:27:33.190Z,7,GR86-063-113,4.2,-0.096,0.006,4.94,3.0,,0.0,0.0,
2025-08-15T03:27:33.234Z,7,GR86-063-113,4.2,-0.106,0.009,4.97,3.0,4200.0,0.0,0.0,
2025-08-15T03:27:33.277Z,7,GR86-063-113,4.2,-0.102,0.003,5.0,3.0,,0.0,0.0,91.5
2025-08-15T03:27:33.320Z,7,GR86-063-113,4.2,-0.117,0.006,5.03,3.0,,0.0,0.0,
2025-08-15T03:27:33.365Z,7,GR86-063-113,4.2,-0.107,0.001,5.03,3.0,,0.0,0.0,
2025-08-15T03:27:33.407Z,7,GR86-063-113,4.2,-0.09,-0.003,5.04,3.0,,0.0,0.0,
2025-08-15T03:27:33.494Z,7,GR86-063-113,4.2,-0.1,0.003,5.03,3.0,,0.0,0.0,91.33
2025-08-15T03:27:33.536Z,7,GR86-063-113,4.1000000000000005,-0.086,-0.012,5.04,3.0,4203.0,0.0,0.0,
2025-08-15T03:27:33.580Z,7,GR86-063-113,4.1000000000000005,-0.103,0.006,5.04,3.0,,0.0,0.0,
2025-08-15T03:27:33.625Z,7,GR86-063-113,3.9,-0.104,0.009,5.05,3.0,,0.0,0.0,
2025-08-15T03:27:33.668Z,7,GR86-063-113,3.1,-0.095,0.005,5.05,3.0,4191.0,0.0,0.0,
2025-08-15T03:27:33.711Z,7,GR86-063-113,1.5,-0.108,0.0,5.04,3.0,,0.0,0.0,91.19
2025-08-15T03:27:33.754Z,7,GR86-063-113,0.0,-0.105,-0.025,5.04,3.0,,0.0,0.0,
2025-08-15T03:27:33.797Z,7,GR86-063-113,-1.0,-0.102,-0.053,5.04,3.0,,0.0,0.0,
2025-08-15T03:27:33.840Z,7,GR86-063-113,-1.8,-0.093,-0.071,5.03,3.0,,0.0,0.0,
2025-08-15T03:27:33.884Z,7,GR86-063-113,-2.2,-0.096,-0.083,5.04,3.0,4184.0,0.0,0.0,
2025-08-15T03:27:33.926Z,7,GR86-063-113,-2.7,-0.105,-0.106,5.04,3.0,,0.0,0.0,91.06
2025-08-15T03:27:33.969Z,7,GR86-063-113,-3.1,-0.102,-0.115,5.03,3.0,,0.0,0.0,
2025-08-15T03:27:34.014Z,7,GR86-063-113,-3.3000000000000003,-0.109,-0.127,5.04,3.0,,0.0,0.0,
2025-08-15T03:27:34.057Z,7,GR86-063-113,-3.1,-0.099,-0.143,5.03,3.0,,0.0,0.0,
2025-08-15T03:27:34.100Z,7,GR86-063-113,-2.9000000000000004,-0.112,-0.146,5.03,3.0,4179.0,0.0,0.0,
2025-08-15T03:27:34.144Z,7,GR86-063-113,-2.1,-0.103,-0.136,5.03,3.0,,0.0,0.0,90.96
2025-08-15T03:27:34.186Z,7,GR86-063-113,-1.6,-0.119,-0.128,5.04,3.0,,0.0,0.0,
2025-08-15T03:27:34.229Z,7,GR86-063-113,-1.2000000000000002,-0.105,-0.124,5.04,3.0,,0.0,0.0,
2025-08-15T03:27:34.274Z,7,GR86-063-113,-0.9,-0.097,-0.105,5.04,3.0,,0.0,0.0,
2025-08-15T03:27:34.317Z,7,GR86-063-113,-0.8,-0.098,-0.081,5.04,3.0,4168.0,0.0,0.0,
2025-08-15T03:27:34.360Z,7,GR86-063-113,-0.8,-0.111,-0.071,5.03,3.0,,0.0,0.0,90.79
2025-08-15T03:27:34.404Z,7,GR86-063-113,-0.7000000000000001,-0.107,-0.064,5.03,3.0,,0.0,0.0,
2025-08-15T03:27:34.446Z,7,GR86-063-113,-0.7000000000000001,-0.095,-0.058,5.04,3.0,,0.0,0.0,
2025-08-15T03:27:34.489Z,7,GR86-063-113,-0.7000000000000001,-0.091,-0.05,5.03,3.0,,0.0,0.0,
2025-08-15T03:27:34.534Z,7,GR86-063-113,-0.7000000000000001,-0.113,-0.053,5.04,3.0,4160.0,0.0,0.0,
2025-08-15T03:27:34.577Z,7,GR86-063-113,-0.7000000000000001,-0.121,-0.035,5.03,3.0,,0.0,0.0,90.65
2025-08-15T03:27:34.620Z,7,GR86-063-113,-0.6000000000000001,-0.109,-0.04,5.03,3.0,,0.0,0.0,
2025-08-15T03:27:34.749Z,7,GR86-063-113,-0.4,-0.122,-0.035,5.04,3.0,4150.0,0.0,0.0,
2025-08-15T03:27:34.794Z,7,GR86-063-113,-0.5,-0.106,-0.024,5.04,3.0,,0.0,0.0,90.48
2025-08-15T03:27:34.837Z,7,GR86-063-113,-0.3,-0.104,-0.031,5.03,3.0,,0.0,0.0,
2025-08-15T03:27:34.880Z,7,GR86-063-113,-0.3,-0.091,-0.034,5.03,3.0,,0.0,0.0,
2025-08-15T03:27:34.925Z,7,GR86-063-113,-0.2,-0.107,-0.029,5.03,3.0,,0.0,0.0,
2025-08-15T03:27:34.968Z,7,GR86-063-113,-0.2,-0.1,-0.039,5.03,3.0,4138.0,0.0,0.0,
2025-08-15T03:27:35.011Z,7,GR86-063-113,-0.2,-0.108,-0.032,5.0200000000000005,3.0,,0.0,0.0,90.26
2025-08-15T03:27:35.057Z,7,GR86-063-113,-0.1,-0.114,-0.033,5.03,3.0,,0.0,0.0,
2025-08-15T03:27:35.100Z,7,GR86-063-113,0.0,-0.104,-0.029,5.04,3.0,,0.0,0.0,
2025-08-15T03:27:35.144Z,7,GR86-063-113,0.1,-0.1,-0.022,5.0,3.0,,0.0,0.0,
2025-08-15T03:27:35.186Z,7,GR86-063-113,0.2,-0.1,-0.03,5.03,3.0,4123.0,0.0,0.0,
2025-08-15T03:27:35.230Z,7,GR86-063-113,0.2,-0.107,-0.022,5.0200000000000005,3.0,,0.0,0.0,89.77
2025-08-15T03:27:35.274Z,7,GR86-063-113,0.5,-0.101,-0.021,5.03,3.0,,0.0,0.0,
2025-08-15T03:27:35.317Z,7,GR86-063-113,0.7000000000000001,-0.121,-0.013,5.04,3.0,,0.0,0.0,
2025-08-15T03:27:35.360Z,7,GR86-063-113,0.8,-0.094,-0.024,5.03,3.0,,0.0,0.0,
2025-08-15T03:27:35.404Z,7,GR86-063-113,0.8,-0.111,-0.028,5.0,3.0,4116.0,0.0,0.0,
2025-08-15T03:27:35.489Z,7,GR86-063-113,0.8,-0.123,-0.021,5.0200000000000005,3.0,,0.0,0.0,89.52
2025-08-15T03:27:35.576Z,7,GR86-063-113,0.8,-0.099,-0.024,5.03,3.0,,0.0,0.0,
2025-08-15T03:27:35.619Z,7,GR86-063-113,0.8,-0.098,-0.021,5.0,3.0,4093.0,0.0,0.0,
2025-08-15T03:27:35.664Z,7,GR86-063-113,0.8,-0.108,-0.019,5.0,3.0,,0.0,0.0,89.3
2025-08-15T03:27:35.707Z,7,GR86-063-113,0.9,-0.102,-0.025,5.0,3.0,,0.0,0.0,
2025-08-15T03:27:35.750Z,7,GR86-063-113,1.1,-0.102,-0.026,5.0,3.0,,0.0,0.0,
2025-08-15T03:27:35.794Z,7,GR86-063-113,1.4,-0.113,-0.007,5.0,3.0,,0.0,0.0,
2025-08-15T03:27:35.837Z,7,GR86-063-113,1.4,-0.107,-0.023,5.0,3.0,4085.0,0.0,0.0,
2025-08-15T03:27:35.880Z,7,GR86-063-113,1.4,-0.11,-0.017,5.0,3.0,,0.0,0.0,89.07000000000001
2025-08-15T03:27:35.925Z,7,GR86-063-113,1.5,-0.092,-0.017,5.0,3.0,,0.0,0.0,
2025-08-15T03:27:35.968Z,7,GR86-063-113,1.5,-0.106,0.003,5.0,3.0,,0.0,0.0,
2025-08-15T03:27:36.011Z,7,GR86-063-113,1.5,-0.102,-0.01,5.01,3.0,,0.0,0.0,
2025-08-15T03:27:36.054Z,7,GR86-063-113,1.5,-0.113,-0.005,5.0,3.0,4068.0,0.0,0.0,
2025-08-15T03:27:36.097Z,7,GR86-063-113,1.5,-0.092,-0.014,5.01,3.0,,0.0,0.0,88.84
2025-08-15T03:27:36.140Z,7,GR86-063-113,1.6,-0.106,-0.013,5.03,3.0,,0.0,0.0,
2025-08-15T03:27:36.184Z,7,GR86-063-113,1.8,-0.104,-0.019,5.04,3.0,,0.0,0.0,
2025-08-15T03:27:36.227Z,7,GR86-063-113,2.1,-0.114,-0.008,5.78,3.0,,0.0,0.0,
2025-08-15T03:27:36.270Z,7,GR86-063-113,2.7,-0.097,-0.018,6.24,3.0,4062.0,0.0,0.0,
2025-08-15T03:27:36.314Z,7,GR86-063-113,3.7,-0.093,0.008,7.13,3.0,,0.0,0.0,88.62
2025-08-15T03:27:36.357Z,7,GR86-063-113,4.2,-0.088,0.009,7.73,3.0,,0.0,0.0,
2025-08-15T03:27:36.400Z,7,GR86-063-113,4.3,-0.091,0.028,8.01,3.0,,0.0,0.0,
2025-08-15T03:27:36.444Z,7,GR86-063-113,4.3,-0.09,0.028,8.15,3.0,,0.0,0.0,
2025-08-15T03:27:36.486Z,7,GR86-063-113,4.3,-0.109,0.037,10.08,3.0,4059.0,0.0,0.0,
2025-08-15T03:27:36.529Z,7,GR86-063-113,4.6000000000000005,-0.101,0.032,10.4,3.0,,0.0,0.0,88.4
2025-08-15T03:27:36.574Z,7,GR86-063-113,5.6000000000000005,-0.106,0.047,12.21,3.0,,0.0,0.0,
2025-08-15T03:27:36.617Z,7,GR86-063-113,6.5,-0.106,0.064,14.37,3.0,,0.0,0.0,
2025-08-15T03:27:36.660Z,7,GR86-063-113,7.4,-0.057,0.065,14.47,3.0,,0.0,0.0,
2025-08-15T03:27:36.704Z,7,GR86-063-113,8.0,-0.057,0.085,14.7,3.0,4043.0,0.0,0.0,
2025-08-15T03:27:36.746Z,7,GR86-063-113,8.5,-0.059,0.104,15.22,3.0,,0.0,0.0,88.21000000000001
2025-08-15T03:27:36.789Z,7,GR86-063-113,8.8,-0.06,0.107,15.85,3.0,,0.0,0.0,
2025-08-15T03:27:36.834Z,7,GR86-063-113,8.9,0.036,0.132,16.06,3.0,,0.0,0.0,
2025-08-15T03:27:36.877Z,7,GR86-063-113,8.9,0.119,0.139,15.79,3.0,,0.0,0.0,
2025-08-15T03:27:36.920Z,7,GR86-063-113,8.9,0.058,0.125,15.88,3.0,4126.0,0.0,0.0,
2025-08-15T03:27:36.965Z,7,GR86-063-113,8.9,-0.061,0.147,16.67,3.0,,0.0,0.0,87.98
2025-08-15T03:27:37.007Z,7,GR86-063-113,8.9,-0.038,0.127,17.47,3.0,,0.0,0.0,
2025-08-15T03:27:37.050Z,7,GR86-063-113,8.9,0.019,0.148,17.5,3.0,,0.0,0.0,
2025-08-15T03:27:37.094Z,7,GR86-063-113,8.8,0.088,0.12,16.490000000000002,3.0,,0.0,0.0,
2025-08-15T03:27:37.137Z,7,GR86-063-113,8.8,0.024,0.118,16.71,3.0,4050.0,0.0,0.0,
2025-08-15T03:27:37.180Z,7,GR86-063-113,8.8,0.0,0.112,17.13,3.0,,0.0,0.0,88.2
2025-08-15T03:27:37.226Z,7,GR86-063-113,8.5,0.002,0.117,17.56,3.0,,0.0,0.0,
2025-08-15T03:27:37.269Z,7,GR86-063-113,8.200000000000001,0.05,0.105,17.46,3.0,,0.0,0.0,
2025-08-15T03:27:37.314Z,7,GR86-063-113,8.1,0.052,0.095,17.09,3.0,,0.0,0.0,
2025-08-15T03:27:37.357Z,7,GR86-063-113,8.0,0.03,0.097,16.740000000000002,3.0,4094.0,0.0,0.0,
2025-08-15T03:27:37.400Z,7,GR86-063-113,7.9,0.021,0.096,17.0,3.0,,0.0,0.0,88.73
2025-08-15T03:27:37.444Z,7,GR86-063-113,7.9,0.031,0.097,17.080000000000002,3.0,,0.0,0.0,
2025-08-15T03:27:37.486Z,7,GR86-063-113,7.9,0.036,0.089,16.96,3.0,,0.0,0.0,
2025-08-15T03:27:37.529Z,7,GR86-063-113,7.800000000000001,0.039,0.088,16.77,3.0,,0.0,0.0,
2025-08-15T03:27:37.574Z,7,GR86-063-113,7.800000000000001,0.031,0.087,16.61,3.0,4135.0,0.0,0.0,
2025-08-15T03:27:37.617Z,7,GR86-063-113,7.800000000000001,0.008,0.087,17.09,3.0,,0.0,0.0,90.03
2025-08-15T03:27:37.660Z,7,GR86-063-113,7.800000000000001,0.032,0.084,17.07,3.0,,0.0,0.0,
2025-08-15T03:27:37.704Z,7,GR86-063-113,7.800000000000001,0.01,0.09,17.18,3.0,,0.0,0.0,
2025-08-15T03:27:37.746Z,7,GR86-063-113,7.800000000000001,0.033,0.07,16.740000000000002,3.0,,0.0,0.0,
2025-08-15T03:27:37.789Z,7,GR86-063-113,7.800000000000001,0.022,0.077,16.71,3.0,4169.0,0.0,0.0,
2025-08-15T03:27:37.834Z,7,GR86-063-113,7.7,0.03,0.073,17.18,3.0,,0.0,0.0,90.65
2025-08-15T03:27:37.877Z,7,GR86-063-113,7.1000000000000005,0.024,0.07,17.16,3.0,,0.0,0.0,
2025-08-15T03:27:37.920Z,7,GR86-063-113,6.7,0.032,0.068,17.080000000000002,3.0,,0.0,0.0,
2025-08-15T03:27:37.964Z,7,GR86-063-113,6.5,0.036,0.054,17.03,3.0,,0.0,0.0,
2025-08-15T03:27:38.007Z,7,GR86-063-113,6.1000000000000005,0.044,0.047,16.2,3.0,4202.0,0.0,0.0,
2025-08-15T03:27:38.050Z,7,GR86-063-113,5.4,0.031,0.035,13.42,3.0,,0.0,0.0,91.27
2025-08-15T03:27:38.094Z,7,GR86-063-113,3.9,0.009,0.025,7.88,3.0,,0.0,0.0,
2025-08-15T03:27:38.136Z,7,GR86-063-113,3.0,0.009,0.007,6.7700000000000005,3.0,,0.0,0.0,
2025-08-15T03:27:38.179Z,7,GR86-063-113,2.1,-0.026,-0.016,4.21,3.0,,0.0,0.0,
2025-08-15T03:27:38.225Z,7,GR86-063-113,1.2000000000000002,-0.043,-0.032,4.0200000000000005,3.0,4230.0,0.0,0.0,
2025-08-15T03:27:38.268Z,7,GR86-063-113,0.3,-0.073,-0.054,3.77,3.0,,0.0,0.0,91.87
2025-08-15T03:27:38.311Z,7,GR86-063-113,-0.5,-0.05,-0.077,3.54,3.0,,0.0,0.0,
2025-08-15T03:27:38.357Z,7,GR86-063-113,-1.5,-0.288,-0.113,3.04,3.0,,0.0,0.0,
2025-08-15T03:27:38.400Z,7,GR86-063-113,-1.8,-0.161,-0.105,2.78,3.0,,0.0,0.0,
2025-08-15T03:27:38.444Z,7,GR86-063-113,-2.3000000000000003,-0.036,-0.145,2.68,3.0,4262.0,0.0,0.0,
2025-08-15T03:27:38.486Z,7,GR86-063-113,-2.8000000000000003,-0.07,-0.137,2.59,3.0,,0.0,0.0,92.17
2025-08-15T03:27:38.530Z,7,GR86-063-113,-3.5,-0.06,-0.165,2.5500000000000003,3.0,,0.0,0.0,
2025-08-15T03:27:38.574Z,7,GR86-063-113,-4.2,-0.198,-0.19,2.48,3.0,,0.0,0.0,
2025-08-15T03:27:38.617Z,7,GR86-063-113,-4.3,-0.174,-0.179,2.45,3.0,,0.0,0.0,
2025-08-15T03:27:38.660Z,7,GR86-063-113,-4.3,-0.112,-0.187,2.43,3.0,4141.0,0.0,0.0,
2025-08-15T03:27:38.704Z,7,GR86-063-113,-4.4,-0.056,-0.192,2.43,3.0,,0.0,0.0,91.71
2025-08-15T03:27:38.746Z,7,GR86-063-113,-4.4,-0.11,-0.186,2.42,3.0,,0.0,0.0,
2025-08-15T03:27:38.789Z,7,GR86-063-113,-4.4,-0.137,-0.202,2.41,3.0,,0.0,0.0,
2025-08-15T03:27:38.833Z,7,GR86-063-113,-4.6000000000000005,-0.134,-0.196,2.41,3.0,,0.0,0.0,
2025-08-15T03:27:38.877Z,7,GR86-063-113,-4.7,-0.102,-0.201,2.41,3.0,4145.0,0.0,0.0,
2025-08-15T03:27:38.920Z,7,GR86-063-113,-4.9,-0.094,-0.199,2.41,3.0,,0.0,0.0,91.26
2025-08-15T03:27:38.964Z,7,GR86-063-113,-5.1000000000000005,-0.118,-0.184,2.42,3.0,,0.0,0.0,
2025-08-15T03:27:39.007Z,7,GR86-063-113,-5.300000000000001,-0.136,-0.199,2.42,3.0,,0.0,0.0,
2025-08-15T03:27:39.050Z,7,GR86-063-113,-5.300000000000001,-0.128,-0.193,2.43,3.0,,0.0,0.0,
2025-08-15T03:27:39.094Z,7,GR86-063-113,-5.300000000000001,-0.105,-0.198,2.44,3.0,4140.0,0.0,0.0,
2025-08-15T03:27:39.180Z,7,GR86-063-113,-5.300000000000001,-0.12,-0.19,2.45,3.0,,0.0,0.0,90.82
2025-08-15T03:27:39.225Z,7,GR86-063-113,-5.300000000000001,-0.13,-0.195,2.49,3.0,,0.0,0.0,
2025-08-15T03:27:39.268Z,7,GR86-063-113,-5.4,-0.118,-0.2,2.53,3.0,,0.0,0.0,
2025-08-15T03:27:39.311Z,7,GR86-063-113,-5.4,-0.123,-0.201,2.66,3.0,4129.0,0.0,0.0,
2025-08-15T03:27:39.354Z,7,GR86-063-113,-5.4,-0.106,-0.2,3.03,3.0,,0.0,0.0,90.34
2025-08-15T03:27:39.397Z,7,GR86-063-113,-5.4,-0.126,-0.203,3.16,3.0,,0.0,0.0,
2025-08-15T03:27:39.440Z,7,GR86-063-113,-5.4,-0.111,-0.189,3.2,3.0,,0.0,0.0,
2025-08-15T03:27:39.484Z,7,GR86-063-113,-5.4,-0.124,-0.192,3.28,3.0,,0.0,0.0,
2025-08-15T03:27:39.527Z,7,GR86-063-113,-5.4,-0.106,-0.195,3.35,3.0,4108.0,0.0,0.0,
2025-08-15T03:27:39.570Z,7,GR86-063-113,-5.4,-0.119,-0.196,3.4,3.0,,0.0,0.0,89.9
2025-08-15T03:27:39.614Z,7,GR86-063-113,-5.4,-0.136,-0.179,3.51,3.0,,0.0,0.0,
2025-08-15T03:27:39.700Z,7,GR86-063-113,-5.5,-0.125,-0.195,3.5500000000000003,3.0,,0.0,0.0,
2025-08-15T03:27:39.744Z,7,GR86-063-113,-5.9,-0.108,-0.205,3.64,3.0,4086.0,0.0,0.0,
2025-08-15T03:27:39.786Z,7,GR86-063-113,-6.1000000000000005,-0.122,-0.201,3.7,3.0,,0.0,0.0,89.46000000000001
2025-08-15T03:27:39.829Z,7,GR86-063-113,-6.5,-0.126,-0.202,3.73,3.0,,0.0,0.0,
2025-08-15T03:27:39.874Z,7,GR86-063-113,-7.2,-0.133,-0.209,3.8,3.0,,0.0,0.0,
2025-08-15T03:27:39.917Z,7,GR86-063-113,-7.800000000000001,-0.098,-0.216,3.86,3.0,,0.0,0.0,
2025-08-15T03:27:39.960Z,7,GR86-063-113,-8.3,-0.126,-0.223,3.89,3.0,4069.0,0.0,0.0,
2025-08-15T03:27:40.004Z,7,GR86-063-113,-9.1,-0.123,-0.228,3.91,3.0,,0.0,0.0,89.08
2025-08-15T03:27:40.047Z,7,GR86-063-113,-10.1,-0.142,-0.241,3.99,3.0,,0.0,0.0,
2025-08-15T03:27:40.090Z,7,GR86-063-113,-11.3,-0.102,-0.256,3.99,3.0,,0.0,0.0,
2025-08-15T03:27:40.134Z,7,GR86-063-113,-13.6,-0.122,-0.289,4.0600000000000005,3.0,,0.0,0.0,
2025-08-15T03:27:40.176Z,7,GR86-063-113,-15.3,-0.12,-0.313,4.0600000000000005,3.0,4048.0,0.0,0.0,
2025-08-15T03:27:40.219Z,7,GR86-063-113,-16.8,-0.136,-0.334,4.05,3.0,,0.0,0.0,88.28
2025-08-15T03:27:40.265Z,7,GR86-063-113,-18.0,-0.113,-0.366,4.05,3.0,,0.0,0.0,
2025-08-15T03:27:40.307Z,7,GR86-063-113,-18.7,-0.123,-0.383,4.03,3.0,,0.0,0.0,
2025-08-15T03:27:40.350Z,7,GR86-063-113,-19.3,-0.12,-0.396,4.0600000000000005,3.0,,0.0,0.0,
2025-08-15T03:27:40.394Z,7,GR86-063-113,-20.9,-0.132,-0.435,4.11,3.0,4037.0,0.0,0.0,
2025-08-15T03:27:40.436Z,7,GR86-063-113,-21.9,-0.119,-0.449,4.11,3.0,,0.0,0.0,87.85000000000001
2025-08-15T03:27:40.480Z,7,GR86-063-113,-22.9,-0.123,-0.476,4.24,3.0,,0.0,0.0,
2025-08-15T03:27:40.526Z,7,GR86-063-113,-23.6,-0.116,-0.48,4.24,3.0,,0.0,0.0,
2025-08-15T03:27:40.569Z,7,GR86-063-113,-24.700000000000003,-0.116,-0.491,4.25,3.0,,0.0,0.0,
2025-08-15T03:27:40.614Z,7,GR86-063-113,-26.3,-0.097,-0.524,4.24,3.0,4025.0,0.0,0.0,
2025-08-15T03:27:40.657Z,7,GR86-063-113,-27.200000000000003,-0.102,-0.545,4.24,3.0,,0.0,0.0,87.4
2025-08-15T03:27:40.700Z,7,GR86-063-113,-28.1,-0.157,-0.5630000000000001,4.57,3.0,,0.0,0.0,
2025-08-15T03:27:40.744Z,7,GR86-063-113,-29.4,-0.145,-0.581,4.87,3.0,,0.0,0.0,
2025-08-15T03:27:40.829Z,7,GR86-063-113,-30.8,-0.123,-0.591,4.91,3.0,4017.0,0.0,0.0,
2025-08-15T03:27:40.874Z,7,GR86-063-113,-34.6,-0.111,-0.644,4.8500000000000005,3.0,,0.0,0.0,87.04
2025-08-15T03:27:40.917Z,7,GR86-063-113,-35.5,-0.128,-0.646,4.84,3.0,,0.0,0.0,
2025-08-15T03:27:40.960Z,7,GR86-063-113,-36.3,-0.162,-0.68,4.8500000000000005,3.0,,0.0,0.0,
2025-08-15T03:27:41.004Z,7,GR86-063-113,-37.2,-0.125,-0.6910000000000001,4.83,3.0,,0.0,0.0,
2025-08-15T03:27:41.047Z,7,GR86-063-113,-38.3,-0.116,-0.6930000000000001,4.83,3.0,3971.0,0.0,0.0,
2025-08-15T03:27:41.090Z,7,GR86-063-113,-39.7,-0.104,-0.733,4.78,3.0,,0.0,0.0,86.59
2025-08-15T03:27:41.134Z,7,GR86-063-113,-42.2,-0.142,-0.734,4.71,3.0,,0.0,0.0,
2025-08-15T03:27:41.177Z,7,GR86-063-113,-43.8,-0.132,-0.783,4.66,3.0,,0.0,0.0,
2025-08-15T03:27:41.220Z,7,GR86-063-113,-44.7,-0.146,-0.802,4.59,3.0,,0.0,0.0,
2025-08-15T03:27:41.264Z,7,GR86-063-113,-45.400000000000006,-0.119,-0.803,4.53,3.0,3941.0,0.0,0.0,
2025-08-15T03:27:41.306Z,7,GR86-063-113,-46.2,-0.144,-0.8290000000000001,4.53,3.0,,0.0,0.0,86.60000000000001
2025-08-15T03:27:41.349Z,7,GR86-063-113,-47.3,-0.127,-0.84,4.46,3.0,,0.0,0.0,
2025-08-15T03:27:41.394Z,7,GR86-063-113,-48.2,-0.136,-0.863,4.37,3.0,,0.0,0.0,
2025-08-15T03:27:41.436Z,7,GR86-063-113,-48.2,-0.127,-0.875,4.3100000000000005,3.0,,0.0,0.0,
2025-08-15T03:27:41.479Z,7,GR86-063-113,-48.2,-0.141,-0.864,4.3,3.0,3916.0,0.0,0.0,
2025-08-15T03:27:41.526Z,7,GR86-063-113,-48.2,-0.13,-0.883,4.28,3.0,,0.0,0.0,86.62
2025-08-15T03:27:41.568Z,7,GR86-063-113,-48.2,-0.146,-0.869,4.24,3.0,,0.0,0.0,
2025-08-15T03:27:41.611Z,7,GR86-063-113,-48.0,-0.141,-0.879,4.23,3.0,,0.0,0.0,
2025-08-15T03:27:41.654Z,7,GR86-063-113,-47.6,-0.136,-0.864,4.24,3.0,,0.0,0.0,
2025-08-15T03:27:41.697Z,7,GR86-063-113,-47.6,-0.127,-0.879,4.21,3.0,3886.0,0.0,0.0,
2025-08-15T03:27:41.740Z,7,GR86-063-113,-47.5,-0.14,-0.892,4.21,3.0,,0.0,0.0,86.10000000000001
2025-08-15T03:27:41.784Z,7,GR86-063-113,-47.400000000000006,-0.128,-0.889,4.24,3.0,,0.0,0.0,
2025-08-15T03:27:41.827Z,7,GR86-063-113,-47.3,-0.138,-0.907,4.28,3.0,,0.0,0.0,
2025-08-15T03:27:41.870Z,7,GR86-063-113,-47.1,-0.139,-0.932,4.41,3.0,,0.0,0.0,
2025-08-15T03:27:41.915Z,7,GR86-063-113,-46.6,-0.149,-0.903,4.5600000000000005,3.0,3858.0,0.0,0.0,
2025-08-15T03:27:41.958Z,7,GR86-063-113,-46.5,-0.134,-0.913,4.63,3.0,,0.0,0.0,85.49
2025-08-15T03:27:42.001Z,7,GR86-063-113,-46.400000000000006,-0.127,-0.901,4.71,3.0,,0.0,0.0,
2025-08-15T03:27:42.044Z,7,GR86-063-113,-45.7,-0.114,-0.899,4.78,3.0,,0.0,0.0,
2025-08-15T03:27:42.087Z,7,GR86-063-113,-45.1,-0.128,-0.889,4.8100000000000005,3.0,,0.0,0.0,
2025-08-15T03:27:42.130Z,7,GR86-063-113,-44.3,-0.13,-0.851,4.8500000000000005,3.0,3834.0,0.0,0.0,
2025-08-15T03:27:42.174Z,7,GR86-063-113,-43.2,-0.116,-0.8320000000000001,4.91,3.0,,0.0,0.0,84.87
2025-08-15T03:27:42.217Z,7,GR86-063-113,-42.5,-0.124,-0.8290000000000001,4.92,3.0,,0.0,0.0,
2025-08-15T03:27:42.260Z,7,GR86-063-113,-41.7,-0.12,-0.8230000000000001,4.94,3.0,,0.0,0.0,
2025-08-15T03:27:42.304Z,7,GR86-063-113,-40.5,-0.122,-0.798,5.13,3.0,,0.0,0.0,
2025-08-15T03:27:42.346Z,7,GR86-063-113,-39.1,-0.12,-0.766,5.29,3.0,3798.0,0.0,0.0,
2025-08-15T03:27:42.389Z,7,GR86-063-113,-37.9,-0.126,-0.768,5.3100000000000005,3.0,,0.0,0.0,84.06
2025-08-15T03:27:42.433Z,7,GR86-063-113,-36.8,-0.11,-0.741,5.59,3.0,,0.0,0.0,
2025-08-15T03:27:42.476Z,7,GR86-063-113,-36.2,-0.104,-0.754,5.66,3.0,,0.0,0.0,
2025-08-15T03:27:42.519Z,7,GR86-063-113,-35.300000000000004,-0.107,-0.739,5.7,3.0,,0.0,0.0,
2025-08-15T03:27:42.564Z,7,GR86-063-113,-34.5,-0.117,-0.715,6.07,3.0,3763.0,0.0,0.0,
2025-08-15T03:27:42.607Z,7,GR86-063-113,-33.6,-0.121,-0.725,6.23,3.0,,0.0,0.0,83.25
2025-08-15T03:27:42.650Z,7,GR86-063-113,-32.6,-0.112,-0.623,7.52,3.0,,0.0,0.0,
2025-08-15T03:27:42.694Z,7,GR86-063-113,-31.4,-0.104,-0.68,7.92,3.0,,0.0,0.0,
2025-08-15T03:27:42.736Z,7,GR86-063-113,-30.0,-0.132,-0.643,12.5,3.0,,0.0,0.0,
2025-08-15T03:27:42.779Z,7,GR86-063-113,-28.9,-0.103,-0.553,19.27,3.0,3733.0,0.0,0.0,
2025-08-15T03:27:42.823Z,7,GR86-063-113,-27.8,-0.104,-0.404,19.88,3.0,,0.0,0.0,81.67
2025-08-15T03:27:42.868Z,7,GR86-063-113,-26.9,-0.17,-0.623,19.81,3.0,,0.0,0.0,
2025-08-15T03:27:42.911Z,7,GR86-063-113,-26.200000000000003,-0.032,-0.497,19.88,3.0,,0.0,0.0,
2025-08-15T03:27:42.954Z,7,GR86-063-113,-25.9,0.121,-0.454,20.27,3.0,,0.0,0.0,
2025-08-15T03:27:42.997Z,7,GR86-063-113,-26.200000000000003,0.193,-0.342,18.23,3.0,3683.0,0.0,0.0,
2025-08-15T03:27:43.040Z,7,GR86-063-113,-26.8,-0.047,-0.59,21.3,3.0,,0.0,0.0,80.51
2025-08-15T03:27:43.084Z,7,GR86-063-113,-27.0,0.175,-0.466,21.29,3.0,,0.0,0.0,
2025-08-15T03:27:43.127Z,7,GR86-063-113,-27.3,-0.06,-0.348,21.58,3.0,,0.0,0.0,
2025-08-15T03:27:43.214Z,7,GR86-063-113,-31.5,0.024,-0.618,20.5,3.0,3859.0,0.0,0.0,
2025-08-15T03:27:43.257Z,7,GR86-063-113,-33.9,0.237,-0.435,21.78,3.0,,0.0,0.0,80.43
2025-08-15T03:27:43.300Z,7,GR86-063-113,-36.7,-0.059,-0.505,21.9,3.0,,0.0,0.0,
2025-08-15T03:27:43.344Z,7,GR86-063-113,-39.2,0.092,-0.737,21.93,3.0,,0.0,0.0,
2025-08-15T03:27:43.386Z,7,GR86-063-113,-39.5,0.187,-0.662,21.96,3.0,,0.0,0.0,
2025-08-15T03:27:43.429Z,7,GR86-063-113,-39.1,-0.073,-0.706,21.96,3.0,3802.0,0.0,0.0,
2025-08-15T03:27:43.474Z,7,GR86-063-113,-39.0,-0.035,-0.8160000000000001,22.0,3.0,,0.0,0.0,81.25
2025-08-15T03:27:43.517Z,7,GR86-063-113,-39.0,0.206,-0.68,22.0,3.0,,0.0,0.0,
2025-08-15T03:27:43.560Z,7,GR86-063-113,-39.1,0.104,-0.745,22.02,3.0,,0.0,0.0,
2025-08-15T03:27:43.604Z,7,GR86-063-113,-39.0,0.061,-0.705,22.02,3.0,,0.0,0.0,
2025-08-15T03:27:43.647Z,7,GR86-063-113,-38.8,0.01,-0.65,22.03,3.0,3779.0,0.0,0.0,
2025-08-15T03:27:43.690Z,7,GR86-063-113,-38.3,0.08,-0.723,22.02,3.0,,0.0,0.0,82.62
2025-08-15T03:27:43.734Z,7,GR86-063-113,-37.4,0.087,-0.622,22.03,3.0,,0.0,0.0,
2025-08-15T03:27:43.777Z,7,GR86-063-113,-37.2,0.094,-0.614,22.02,3.0,,0.0,0.0,
2025-08-15T03:27:43.820Z,7,GR86-063-113,-37.2,0.048,-0.644,22.04,3.0,,0.0,0.0,
2025-08-15T03:27:43.865Z,7,GR86-063-113,-37.0,0.082,-0.649,22.03,3.0,3849.0,0.0,0.0,
2025-08-15T03:27:43.907Z,7,GR86-063-113,-36.6,0.063,-0.629,22.02,3.0,,0.0,0.0,83.16
2025-08-15T03:27:43.950Z,7,GR86-063-113,-36.5,0.073,-0.642,22.02,3.0,,0.0,0.0,
2025-08-15T03:27:43.994Z,7,GR86-063-113,-36.3,0.072,-0.633,22.03,3.0,,0.0,0.0,
2025-08-15T03:27:44.036Z,7,GR86-063-113,-36.2,0.075,-0.643,22.02,3.0,,0.0,0.0,
2025-08-15T03:27:44.080Z,7,GR86-063-113,-36.2,0.061,-0.666,22.02,3.0,3907.0,0.0,0.0,
2025-08-15T03:27:44.125Z,7,GR86-063-113,-36.0,0.067,-0.645,22.03,3.0,,0.0,0.0,83.24
2025-08-15T03:27:44.168Z,7,GR86-063-113,-35.7,0.079,-0.648,22.03,3.0,,0.0,0.0,
2025-08-15T03:27:44.211Z,7,GR86-063-113,-35.7,0.08,-0.618,22.02,3.0,,0.0,0.0,
2025-08-15T03:27:44.254Z,7,GR86-063-113,-35.6,0.068,-0.607,22.02,3.0,,0.0,0.0,
2025-08-15T03:27:44.297Z,7,GR86-063-113,-35.5,0.076,-0.605,22.02,3.0,3935.0,0.0,0.0,
2025-08-15T03:27:44.340Z,7,GR86-063-113,-35.1,0.063,-0.607,22.02,3.0,,0.0,0.0,84.06
2025-08-15T03:27:44.384Z,7,GR86-063-113,-34.6,0.068,-0.611,22.03,3.0,,0.0,0.0,
2025-08-15T03:27:44.426Z,7,GR86-063-113,-34.2,0.078,-0.59,22.02,3.0,,0.0,0.0,
2025-08-15T03:27:44.469Z,7,GR86-063-113,-34.1,0.087,-0.587,22.03,3.0,,0.0,0.0,
2025-08-15T03:27:44.514Z,7,GR86-063-113,-34.1,0.068,-0.604,22.03,3.0,3964.0,0.0,0.0,
2025-08-15T03:27:44.557Z,7,GR86-063-113,-34.1,0.073,-0.615,22.02,3.0,,0.0,0.0,84.64
2025-08-15T03:27:44.600Z,7,GR86-063-113,-33.9,0.058,-0.621,22.02,3.0,,0.0,0.0,
2025-08-15T03:27:44.644Z,7,GR86-063-113,-33.7,0.077,-0.623,22.02,3.0,,0.0,0.0,
2025-08-15T03:27:44.686Z,7,GR86-063-113,-33.7,0.076,-0.618,22.02,3.0,,0.0,0.0,
2025-08-15T03:27:44.729Z,7,GR86-063-113,-33.6,0.089,-0.62,22.0,3.0,3995.0,0.0,0.0,
2025-08-15T03:27:44.774Z,7,GR86-063-113,-33.4,0.058,-0.603,22.0,3.0,,0.0,0.0,85.33
2025-08-15T03:27:44.817Z,7,GR86-063-113,-33.1,0.075,-0.641,22.01,3.0,,0.0,0.0,
2025-08-15T03:27:44.860Z,7,GR86-063-113,-32.6,0.052,-0.626,22.0,3.0,,0.0,0.0,
2025-08-15T03:27:44.904Z,7,GR86-063-113,-32.300000000000004,0.081,-0.613,22.01,3.0,,0.0,0.0,
2025-08-15T03:27:44.946Z,7,GR86-063-113,-32.1,0.072,-0.6,22.01,3.0,4019.0,0.0,0.0,
2025-08-15T03:27:44.989Z,7,GR86-063-113,-31.9,0.076,-0.619,22.0,3.0,,0.0,0.0,86.06
2025-08-15T03:27:45.034Z,7,GR86-063-113,-31.6,0.059,-0.637,21.99,3.0,,0.0,0.0,
2025-08-15T03:27:45.077Z,7,GR86-063-113,-31.4,0.084,-0.624,21.99,3.0,,0.0,0.0,
2025-08-15T03:27:45.120Z,7,GR86-063-113,-31.200000000000003,0.063,-0.609,21.99,3.0,,0.0,0.0,
2025-08-15T03:27:45.164Z,7,GR86-063-113,-30.9,0.076,-0.651,22.0,3.0,4062.0,0.0,0.0,
2025-08-15T03:27:45.206Z,7,GR86-063-113,-30.4,0.062,-0.629,21.99,3.0,,0.0,0.0,86.77
2025-08-15T03:27:45.249Z,7,GR86-063-113,-29.8,0.072,-0.609,22.0,3.0,,0.0,0.0,
2025-08-15T03:27:45.294Z,7,GR86-063-113,-29.4,0.074,-0.586,21.99,3.0,,0.0,0.0,
2025-08-15T03:27:45.336Z,7,GR86-063-113,-28.8,0.074,-0.596,22.0,3.0,,0.0,0.0,
2025-08-15T03:27:45.379Z,7,GR86-063-113,-28.1,0.066,-0.596,22.01,3.0,4090.0,0.0,0.0,
2025-08-15T03:27:45.426Z,7,GR86-063-113,-27.3,0.059,-0.579,22.0,3.0,,0.0,0.0,88.04
2025-08-15T03:27:45.468Z,7,GR86-063-113,-26.8,0.072,-0.5670000000000001,22.0,3.0,,0.0,0.0,
2025-08-15T03:27:45.511Z,7,GR86-063-113,-26.700000000000003,0.08,-0.553,22.0,3.0,,0.0,0.0,
2025-08-15T03:27:45.554Z,7,GR86-063-113,-26.5,0.077,-0.553,22.0,3.0,,0.0,0.0,
2025-08-15T03:27:45.597Z,7,GR86-063-113,-26.1,0.069,-0.545,22.0,3.0,4109.0,0.0,0.0,
2025-08-15T03:27:45.640Z,7,GR86-063-113,-25.8,0.075,-0.547,22.0,3.0,,0.0,0.0,88.74
2025-08-15T03:27:45.684Z,7,GR86-063-113,-25.4,0.074,-0.517,22.0,3.0,,0.0,0.0,
2025-08-15T03:27:45.726Z,7,GR86-063-113,-24.9,0.082,-0.506,21.99,3.0,,0.0,0.0,
2025-08-15T03:27:45.769Z,7,GR86-063-113,-24.3,0.079,-0.49,21.99,3.0,,0.0,0.0,
2025-08-15T03:27:45.815Z,7,GR86-063-113,-22.9,0.079,-0.5,22.0,3.0,4174.0,0.0,0.0,
2025-08-15T03:27:45.857Z,7,GR86-063-113,-21.9,0.073,-0.482,22.0,3.0,,0.0,0.0,89.47
2025-08-15T03:27:45.900Z,7,GR86-063-113,-20.6,0.076,-0.473,22.0,3.0,,0.0,0.0,
2025-08-15T03:27:45.944Z,7,GR86-063-113,-19.6,0.073,-0.443,21.99,3.0,,0.0,0.0,
2025-08-15T03:27:45.986Z,7,GR86-063-113,-19.0,0.085,-0.437,22.0,3.0,,0.0,0.0,
2025-08-15T03:27:46.030Z,7,GR86-063-113,-17.900000000000002,0.087,-0.412,22.0,3.0,4207.0,0.0,0.0,
2025-08-15T03:27:46.074Z,7,GR86-063-113,-15.1,0.087,-0.383,22.0,3.0,,0.0,0.0,90.1
2025-08-15T03:27:46.117Z,7,GR86-063-113,-12.0,0.087,-0.371,21.99,3.0,,0.0,0.0,
2025-08-15T03:27:46.160Z,7,GR86-063-113,-8.5,0.093,-0.302,22.0,3.0,,0.0,0.0,
2025-08-15T03:27:46.204Z,7,GR86-063-113,-6.5,0.092,-0.262,22.0,3.0,,0.0,0.0,
2025-08-15T03:27:46.246Z,7,GR86-063-113,-5.9,0.098,-0.222,22.0,3.0,4235.0,0.0,0.0,
2025-08-15T03:27:46.289Z,7,GR86-063-113,-4.9,0.098,-0.192,22.01,3.0,,0.0,0.0,90.8
2025-08-15T03:27:46.333Z,7,GR86-063-113,-3.1,0.084,-0.127,21.99,3.0,,0.0,0.0,
2025-08-15T03:27:46.376Z,7,GR86-063-113,-3.0,0.088,-0.115,22.0,3.0,,0.0,0.0,
2025-08-15T03:27:46.419Z,7,GR86-063-113,-2.8000000000000003,0.088,-0.085,22.01,3.0,,0.0,0.0,
2025-08-15T03:27:46.464Z,7,GR86-063-113,-2.7,0.081,-0.079,22.01,3.0,4259.0,0.0,0.0,
2025-08-15T03:27:46.507Z,7,GR86-063-113,-2.6,0.085,-0.079,22.0,3.0,,0.0,0.0,91.53
2025-08-15T03:27:46.550Z,7,GR86-063-113,-2.6,0.089,-0.082,22.01,3.0,,0.0,0.0,
2025-08-15T03:27:46.594Z,7,GR86-063-113,-2.5,0.094,-0.086,21.99,3.0,,0.0,0.0,
2025-08-15T03:27:46.637Z,7,GR86-063-113,-2.5,0.095,-0.085,21.99,3.0,,0.0,0.0,
2025-08-15T03:27:46.680Z,7,GR86-063-113,-2.5,0.097,-0.08,22.0,3.0,4296.0,0.0,0.0,
2025-08-15T03:27:46.725Z,7,GR86-063-113,-2.5,0.082,-0.087,22.0,3.0,,0.0,0.0,92.23
2025-08-15T03:27:46.768Z,7,GR86-063-113,-2.5,0.078,-0.07,22.0,3.0,,0.0,0.0,
2025-08-15T03:27:46.811Z,7,GR86-063-113,-2.5,0.097,-0.098,22.0,3.0,,0.0,0.0,
2025-08-15T03:27:46.854Z,7,GR86-063-113,-2.5,0.094,-0.085,22.0,3.0,,0.0,0.0,
2025-08-15T03:27:46.897Z,7,GR86-063-113,-2.5,0.086,-0.11,21.99,3.0,4334.0,0.0,0.0,
2025-08-15T03:27:46.940Z,7,GR86-063-113,-2.5,0.084,-0.093,21.99,3.0,,0.0,0.0,92.95
2025-08-15T03:27:46.984Z,7,GR86-063-113,-2.5,0.093,-0.108,22.0,3.0,,0.0,0.0,
2025-08-15T03:27:47.027Z,7,GR86-063-113,-2.3000000000000003,0.094,-0.076,22.0,3.0,,0.0,0.0,
2025-08-15T03:27:47.070Z,7,GR86-063-113,-2.1,0.097,-0.075,22.0,3.0,,0.0,0.0,
2025-08-15T03:27:47.114Z,7,GR86-063-113,-1.8,0.098,-0.062,22.0,3.0,4362.0,0.0,0.0,
2025-08-15T03:27:47.157Z,7,GR86-063-113,-1.8,0.084,-0.073,22.0,3.0,,0.0,0.0,93.74
2025-08-15T03:27:47.200Z,7,GR86-063-113,-1.3,0.087,-0.078,21.99,3.0,,0.0,0.0,
2025-08-15T03:27:47.244Z,7,GR86-063-113,-1.2000000000000002,0.078,-0.093,22.0,3.0,,0.0,0.0,
2025-08-15T03:27:47.286Z,7,GR86-063-113,-1.1,0.089,-0.078,22.0,3.0,,0.0,0.0,
2025-08-15T03:27:47.329Z,7,GR86-063-113,-1.0,0.102,-0.092,22.0,3.0,4399.0,0.0,0.0,
2025-08-15T03:27:47.374Z,7,GR86-063-113,-0.9,0.097,-0.091,21.99,3.0,,0.0,0.0,94.42
2025-08-15T03:27:47.417Z,7,GR86-063-113,-0.7000000000000001,0.081,-0.079,21.99,3.0,,0.0,0.0,
2025-08-15T03:27:47.460Z,7,GR86-063-113,-0.5,0.079,-0.063,22.0,3.0,,0.0,0.0,
2025-08-15T03:27:47.504Z,7,GR86-063-113,-0.3,0.092,-0.05,22.0,3.0,,0.0,0.0,
2025-08-15T03:27:47.547Z,7,GR86-063-113,0.0,0.092,-0.053,22.0,3.0,4425.0,0.0,0.0,
2025-08-15T03:27:47.590Z,7,GR86-063-113,0.1,0.087,-0.058,21.99,3.0,,0.0,0.0,95.23
2025-08-15T03:27:47.634Z,7,GR86-063-113,0.9,0.094,-0.061,21.99,3.0,,0.0,0.0,
2025-08-15T03:27:47.677Z,7,GR86-063-113,1.2000000000000002,0.083,-0.074,21.14,3.0,,0.0,0.0,
2025-08-15T03:27:47.720Z,7,GR86-063-113,1.4,0.099,-0.067,7.0200000000000005,3.0,,0.0,0.0,
2025-08-15T03:27:47.765Z,7,GR86-063-113,1.4,0.091,-0.08,6.3,3.0,4461.0,0.0,0.0,
2025-08-15T03:27:47.807Z,7,GR86-063-113,1.5,0.06,-0.053,4.47,3.0,,0.0,0.0,95.93
2025-08-15T03:27:47.850Z,7,GR86-063-113,1.6,-0.065,-0.061,4.12,3.0,,0.0,0.0,
2025-08-15T03:27:47.894Z,7,GR86-063-113,1.8,-0.074,-0.055,3.8,3.0,,0.0,0.0,
2025-08-15T03:27:47.936Z,7,GR86-063-113,2.0,-0.307,-0.061,3.53,3.0,,0.0,0.0,
2025-08-15T03:27:47.980Z,7,GR86-063-113,2.2,-0.24,-0.032,3.22,3.0,4477.0,0.0,0.0,
2025-08-15T03:27:48.026Z,7,GR86-063-113,2.5,-0.054,-0.048,2.88,3.0,,0.0,0.0,97.19
2025-08-15T03:27:48.068Z,7,GR86-063-113,2.7,-0.067,-0.042,2.71,3.0,,0.0,0.0,
2025-08-15T03:27:48.111Z,7,GR86-063-113,2.8000000000000003,-0.055,0.0,2.62,3.0,,0.0,0.0,
2025-08-15T03:27:48.154Z,7,GR86-063-113,3.0,-0.113,-0.03,2.5500000000000003,3.0,,0.0,0.0,
2025-08-15T03:27:48.197Z,7,GR86-063-113,3.0,-0.208,-0.01,2.52,3.0,4518.0,0.0,0.0,
2025-08-15T03:27:48.240Z,7,GR86-063-113,3.0,-0.159,-0.014,2.46,3.0,,0.0,0.0,96.33
2025-08-15T03:27:48.284Z,7,GR86-063-113,3.0,-0.088,-0.033,2.46,3.0,,0.0,0.0,
2025-08-15T03:27:48.326Z,7,GR86-063-113,3.0,-0.056,-0.004,2.43,3.0,,0.0,0.0,
2025-08-15T03:27:48.369Z,7,GR86-063-113,3.0,-0.106,-0.018,2.43,3.0,,0.0,0.0,
2025-08-15T03:27:48.414Z,7,GR86-063-113,3.0,-0.158,-0.006,2.42,3.0,4327.0,0.0,0.0,
2025-08-15T03:27:48.457Z,7,GR86-063-113,3.0,-0.125,0.004,2.43,3.0,,0.0,0.0,95.62
2025-08-15T03:27:48.500Z,7,GR86-063-113,3.0,-0.105,-0.013,2.42,3.0,,0.0,0.0,
2025-08-15T03:27:48.543Z,7,GR86-063-113,3.0,-0.095,0.003,2.43,3.0,,0.0,0.0,
2025-08-15T03:27:48.586Z,7,GR86-063-113,3.0,-0.129,-0.012,2.42,3.0,,0.0,0.0,
2025-08-15T03:27:48.629Z,7,GR86-063-113,3.0,-0.133,-0.008,2.42,3.0,4321.0,0.0,0.0,
2025-08-15T03:27:48.674Z,7,GR86-063-113,3.0,-0.117,-0.011,2.42,3.0,,0.0,0.0,94.85
2025-08-15T03:27:48.716Z,7,GR86-063-113,3.0,-0.113,-0.023,2.43,3.0,,0.0,0.0,
2025-08-15T03:27:48.759Z,7,GR86-063-113,2.9000000000000004,-0.128,-0.009,2.43,3.0,,0.0,0.0,
2025-08-15T03:27:48.804Z,7,GR86-063-113,2.9000000000000004,-0.129,-0.028,2.48,3.0,,0.0,0.0,
2025-08-15T03:27:48.846Z,7,GR86-063-113,2.9000000000000004,-0.126,-0.025,2.69,3.0,4292.0,0.0,0.0,
2025-08-15T03:27:48.889Z,7,GR86-063-113,2.9000000000000004,-0.128,-0.019,2.87,3.0,,0.0,0.0,94.1
2025-08-15T03:27:48.934Z,7,GR86-063-113,2.9000000000000004,-0.113,-0.001,3.13,3.0,,0.0,0.0,
2025-08-15T03:27:48.977Z,7,GR86-063-113,2.8000000000000003,-0.111,-0.01,3.26,3.0,,0.0,0.0,
2025-08-15T03:27:49.020Z,7,GR86-063-113,2.9000000000000004,-0.104,-0.004,3.74,3.0,,0.0,0.0,
2025-08-15T03:27:49.064Z,7,GR86-063-113,2.9000000000000004,-0.118,-0.027,4.68,3.0,4266.0,0.0,0.0,
2025-08-15T03:27:49.106Z,7,GR86-063-113,2.9000000000000004,-0.118,-0.023,4.8100000000000005,3.0,,0.0,0.0,93.35
2025-08-15T03:27:49.149Z,7,GR86-063-113,2.9000000000000004,-0.123,-0.04,4.83,3.0,,0.0,0.0,
2025-08-15T03:27:49.194Z,7,GR86-063-113,2.9000000000000004,-0.113,-0.031,4.88,3.0,,0.0,0.0,
2025-08-15T03:27:49.236Z,7,GR86-063-113,2.8000000000000003,-0.083,-0.033,4.97,3.0,,0.0,0.0,
2025-08-15T03:27:49.279Z,7,GR86-063-113,2.8000000000000003,-0.085,-0.037,5.01,3.0,4237.0,0.0,0.0,
2025-08-15T03:27:49.326Z,7,GR86-063-113,2.8000000000000003,-0.105,-0.012,5.03,3.0,,0.0,0.0,92.57
2025-08-15T03:27:49.368Z,7,GR86-063-113,2.8000000000000003,-0.137,-0.026,5.05,3.0,,0.0,0.0,
2025-08-15T03:27:49.411Z,7,GR86-063-113,2.8000000000000003,-0.108,-0.025,5.0600000000000005,3.0,,0.0,0.0,
2025-08-15T03:27:49.454Z,7,GR86-063-113,2.8000000000000003,-0.076,-0.037,5.07,3.0,,0.0,0.0,
2025-08-15T03:27:49.497Z,7,GR86-063-113,2.8000000000000003,-0.085,-0.033,5.07,3.0,4208.0,0.0,0.0,
2025-08-15T03:27:49.540Z,7,GR86-063-113,2.8000000000000003,-0.123,-0.044,5.0600000000000005,3.0,,0.0,0.0,91.83
2025-08-15T03:27:49.584Z,7,GR86-063-113,2.8000000000000003,-0.116,-0.035,5.07,3.0,,0.0,0.0,
2025-08-15T03:27:49.626Z,7,GR86-063-113,2.8000000000000003,-0.09,-0.039,5.07,3.0,,0.0,0.0,
2025-08-15T03:27:49.669Z,7,GR86-063-113,2.8000000000000003,-0.084,-0.03,5.07,3.0,,0.0,0.0,
2025-08-15T03:27:49.715Z,7,GR86-063-113,2.8000000000000003,-0.099,-0.024,5.0600000000000005,3.0,4176.0,0.0,0.0,
2025-08-15T03:27:49.801Z,7,GR86-063-113,2.8000000000000003,-0.111,-0.034,5.07,3.0,,0.0,0.0,91.14
2025-08-15T03:27:49.844Z,7,GR86-063-113,2.8000000000000003,-0.099,-0.041,5.04,3.0,,0.0,0.0,
2025-08-15T03:27:49.887Z,7,GR86-063-113,2.8000000000000003,-0.099,-0.042,5.04,3.0,,0.0,0.0,
2025-08-15T03:27:49.930Z,7,GR86-063-113,2.8000000000000003,-0.095,-0.035,5.04,3.0,4143.0,0.0,0.0,
2025-08-15T03:27:49.974Z,7,GR86-063-113,2.8000000000000003,-0.103,-0.032,5.05,3.0,,0.0,0.0,90.5
2025-08-15T03:27:50.017Z,7,GR86-063-113,2.8000000000000003,-0.096,-0.042,5.04,3.0,,0.0,0.0,
2025-08-15T03:27:50.104Z,7,GR86-063-113,2.8000000000000003,-0.104,-0.042,5.04,3.0,,0.0,0.0,
2025-08-15T03:27:50.146Z,7,GR86-063-113,2.8000000000000003,-0.102,-0.039,5.03,3.0,4110.0,0.0,0.0,
2025-08-15T03:27:50.233Z,7,GR86-063-113,2.8000000000000003,-0.105,-0.046,5.03,3.0,,0.0,0.0,89.85000000000001
2025-08-15T03:27:50.276Z,7,GR86-063-113,2.8000000000000003,-0.089,-0.037,5.04,3.0,,0.0,0.0,
2025-08-15T03:27:50.364Z,7,GR86-063-113,2.8000000000000003,-0.103,-0.057,5.58,3.0,4081.0,0.0,0.0,
2025-08-15T03:27:50.450Z,7,GR86-063-113,2.8000000000000003,-0.097,-0.02,5.04,3.0,,0.0,0.0,89.2
2025-08-15T03:27:50.494Z,7,GR86-063-113,2.8000000000000003,-0.083,-0.027,5.88,3.0,,0.0,0.0,
2025-08-15T03:27:50.537Z,7,GR86-063-113,2.8000000000000003,-0.082,-0.033,6.03,3.0,,0.0,0.0,
2025-08-15T03:27:50.580Z,7,GR86-063-113,2.8000000000000003,-0.104,-0.034,6.38,3.0,4050.0,0.0,0.0,
2025-08-15T03:27:50.625Z,7,GR86-063-113,2.8000000000000003,-0.104,-0.022,6.51,3.0,,0.0,0.0,87.87
2025-08-15T03:27:50.668Z,7,GR86-063-113,2.8000000000000003,-0.09,-0.035,6.5600000000000005,3.0,,0.0,0.0,
2025-08-15T03:27:50.711Z,7,GR86-063-113,2.8000000000000003,-0.068,-0.024,6.58,3.0,,0.0,0.0,
2025-08-15T03:27:50.754Z,7,GR86-063-113,2.7,-0.098,-0.034,7.73,3.0,,0.0,0.0,
2025-08-15T03:27:50.840Z,7,GR86-063-113,2.7,-0.105,-0.028,7.75,3.0,,0.0,0.0,87.26
2025-08-15T03:27:50.884Z,7,GR86-063-113,2.7,-0.089,-0.028,8.040000000000001,3.0,4010.0,0.0,0.0,
2025-08-15T03:27:50.970Z,7,GR86-063-113,2.7,-0.096,-0.038,8.040000000000001,3.0,,0.0,0.0,
2025-08-15T03:27:51.057Z,7,GR86-063-113,2.7,-0.093,-0.038,8.08,3.0,,0.0,0.0,86.62
2025-08-15T03:27:51.100Z,7,GR86-063-113,2.7,-0.086,-0.051,8.01,3.0,3957.0,0.0,0.0,
2025-08-15T03:27:51.144Z,7,GR86-063-113,2.7,-0.093,-0.039,9.81,3.0,,0.0,0.0,
2025-08-15T03:27:51.186Z,7,GR86-063-113,2.7,-0.102,-0.047,9.81,3.0,,0.0,0.0,
2025-08-15T03:27:51.229Z,7,GR86-063-113,2.7,-0.11,-0.043,9.99,3.0,3921.0,0.0,0.0,
2025-08-15T03:27:51.274Z,7,GR86-063-113,2.7,-0.069,-0.047,10.22,3.0,,0.0,0.0,85.93
2025-08-15T03:27:51.317Z,7,GR86-063-113,2.7,-0.072,-0.044,10.27,3.0,,0.0,0.0,
2025-08-15T03:27:51.360Z,7,GR86-063-113,2.7,-0.068,-0.041,10.33,3.0,,0.0,0.0,
2025-08-15T03:27:51.447Z,7,GR86-063-113,2.7,-0.001,-0.052,10.11,3.0,3994.0,0.0,0.0,
2025-08-15T03:27:51.534Z,7,GR86-063-113,2.7,0.036,-0.041,9.89,3.0,,0.0,0.0,85.27
2025-08-15T03:27:51.619Z,7,GR86-063-113,2.7,-0.065,-0.064,10.86,3.0,,0.0,0.0,
2025-08-15T03:27:51.708Z,7,GR86-063-113,2.7,-0.059,-0.06,10.91,3.0,,0.0,0.0,84.93
2025-08-15T03:27:51.751Z,7,GR86-063-113,2.7,-0.059,-0.044,10.9,3.0,3852.0,0.0,0.0,
2025-08-15T03:27:51.794Z,7,GR86-063-113,2.7,-0.065,-0.06,11.02,3.0,,0.0,0.0,
2025-08-15T03:27:51.880Z,7,GR86-063-113,2.7,-0.022,-0.047,10.36,3.0,3922.0,0.0,0.0,
2025-08-15T03:27:51.926Z,7,GR86-063-113,2.7,-0.065,-0.045,10.83,3.0,,0.0,0.0,84.63
2025-08-15T03:27:51.969Z,7,GR86-063-113,2.7,-0.042,-0.041,10.19,3.0,,0.0,0.0,
2025-08-15T03:27:52.014Z,7,GR86-063-113,2.7,-0.054,-0.044,10.58,3.0,,0.0,0.0,
2025-08-15T03:27:52.057Z,7,GR86-063-113,2.7,-0.061,-0.047,10.52,3.0,,0.0,0.0,
2025-08-15T03:27:52.100Z,7,GR86-063-113,2.7,-0.059,-0.035,10.47,3.0,3836.0,0.0,0.0,
2025-08-15T03:27:52.144Z,7,GR86-063-113,2.7,-0.062,-0.044,10.49,3.0,,0.0,0.0,84.25
2025-08-15T03:27:52.186Z,7,GR86-063-113,2.7,-0.019,-0.047,10.45,3.0,,0.0,0.0,
2025-08-15T03:27:52.274Z,7,GR86-063-113,2.6,-0.054,-0.035,10.65,3.0,,0.0,0.0,
2025-08-15T03:27:52.317Z,7,GR86-063-113,2.6,-0.059,-0.044,10.62,3.0,3885.0,0.0,0.0,
2025-08-15T03:27:52.360Z,7,GR86-063-113,2.6,-0.062,-0.039,10.69,3.0,,0.0,0.0,83.97
2025-08-15T03:27:52.404Z,7,GR86-063-113,2.6,-0.046,-0.042,10.68,3.0,,0.0,0.0,
2025-08-15T03:27:52.446Z,7,GR86-063-113,2.6,-0.026,-0.04,10.67,3.0,,0.0,0.0,
2025-08-15T03:27:52.489Z,7,GR86-063-113,2.6,-0.035,-0.05,10.69,3.0,,0.0,0.0,
2025-08-15T03:27:52.577Z,7,GR86-063-113,2.6,-0.056,-0.045,10.76,3.0,3860.0,0.0,0.0,83.67
2025-08-15T03:27:52.620Z,7,GR86-063-113,2.6,-0.043,-0.033,10.87,3.0,,0.0,0.0,
2025-08-15T03:27:52.664Z,7,GR86-063-113,2.6,-0.039,-0.037,10.89,3.0,,0.0,0.0,
2025-08-15T03:27:52.749Z,7,GR86-063-113,2.6,-0.049,-0.034,10.91,3.0,3837.0,0.0,0.0,
2025-08-15T03:27:52.794Z,7,GR86-063-113,2.6,-0.041,-0.036,11.04,3.0,,0.0,0.0,83.35000000000001
2025-08-15T03:27:52.836Z,7,GR86-063-113,2.6,-0.033,-0.04,11.03,3.0,,0.0,0.0,
2025-08-15T03:27:52.879Z,7,GR86-063-113,2.6,-0.047,-0.033,11.22,3.0,,0.0,0.0,
2025-08-15T03:27:52.926Z,7,GR86-063-113,2.6,-0.043,-0.044,11.07,3.0,,0.0,0.0,
2025-08-15T03:27:53.011Z,7,GR86-063-113,2.6,-0.026,-0.048,11.09,3.0,,0.0,0.0,83.07000000000001
2025-08-15T03:27:53.054Z,7,GR86-063-113,2.6,-0.039,-0.04,11.09,3.0,3821.0,0.0,0.0,
2025-08-15T03:27:53.140Z,7,GR86-063-113,2.6,-0.04,-0.034,11.42,3.0,,0.0,0.0,
2025-08-15T03:27:53.226Z,7,GR86-063-113,2.6,-0.016,-0.033,11.35,3.0,,0.0,0.0,82.56
2025-08-15T03:27:53.269Z,7,GR86-063-113,2.6,-0.033,-0.037,11.33,3.0,3812.0,0.0,0.0,
2025-08-15T03:27:53.315Z,7,GR86-063-113,2.6,-0.038,-0.034,11.39,3.0,,0.0,0.0,
2025-08-15T03:27:53.358Z,7,GR86-063-113,2.6,-0.039,-0.046,11.42,3.0,,0.0,0.0,
2025-08-15T03:27:53.401Z,7,GR86-063-113,2.6,-0.021,-0.045,11.36,3.0,3806.0,0.0,0.0,
2025-08-15T03:27:53.444Z,7,GR86-063-113,2.6,-0.011,-0.045,11.17,3.0,,0.0,0.0,82.31
2025-08-15T03:27:53.487Z,7,GR86-063-113,2.6,-0.017,-0.038,11.26,3.0,,0.0,0.0,
2025-08-15T03:27:53.530Z,7,GR86-063-113,2.6,-0.03,-0.031,11.32,3.0,,0.0,0.0,
2025-08-15T03:27:53.574Z,7,GR86-063-113,2.6,-0.025,-0.033,11.31,3.0,,0.0,0.0,
2025-08-15T03:27:53.617Z,7,GR86-063-113,2.6,-0.022,-0.03,11.28,3.0,3786.0,0.0,0.0,
2025-08-15T03:27:53.660Z,7,GR86-063-113,2.6,-0.015,-0.033,11.29,3.0,,0.0,0.0,82.14
2025-08-15T03:27:53.704Z,7,GR86-063-113,2.6,-0.029,-0.036,11.29,3.0,,0.0,0.0,
2025-08-15T03:27:53.746Z,7,GR86-063-113,2.6,-0.026,-0.032,11.36,3.0,,0.0,0.0,
2025-08-15T03:27:53.789Z,7,GR86-063-113,2.6,-0.025,-0.026,11.36,3.0,,0.0,0.0,
2025-08-15T03:27:53.833Z,7,GR86-063-113,2.6,-0.015,-0.029,11.28,3.0,3780.0,0.0,0.0,
2025-08-15T03:27:53.876Z,7,GR86-063-113,2.6,-0.022,-0.037,11.28,3.0,,0.0,0.0,81.99
2025-08-15T03:27:53.919Z,7,GR86-063-113,2.6,-0.017,-0.032,11.23,3.0,,0.0,0.0,
2025-08-15T03:27:53.964Z,7,GR86-063-113,2.6,-0.033,-0.026,11.22,3.0,,0.0,0.0,
2025-08-15T03:27:54.050Z,7,GR86-063-113,2.6,-0.03,-0.018,11.25,3.0,3768.0,0.0,0.0,
2025-08-15T03:27:54.094Z,7,GR86-063-113,2.6,-0.023,-0.032,11.32,3.0,,0.0,0.0,81.82000000000001
2025-08-15T03:27:54.136Z,7,GR86-063-113,2.6,-0.029,-0.032,11.3,3.0,,0.0,0.0,
2025-08-15T03:27:54.180Z,7,GR86-063-113,2.6,-0.03,-0.034,11.4,3.0,,0.0,0.0,
2025-08-15T03:27:54.223Z,7,GR86-063-113,2.6,-0.03,-0.024,11.49,3.0,,0.0,0.0,
2025-08-15T03:27:54.268Z,7,GR86-063-113,2.6,-0.03,-0.041,11.47,3.0,3761.0,0.0,0.0,
2025-08-15T03:27:54.354Z,7,GR86-063-113,2.6,-0.022,-0.028,11.58,3.0,,0.0,0.0,81.69
2025-08-15T03:27:54.440Z,7,GR86-063-113,2.6,-0.023,-0.039,11.57,3.0,,0.0,0.0,
2025-08-15T03:27:54.484Z,7,GR86-063-113,2.6,-0.03,-0.029,11.64,3.0,3751.0,0.0,0.0,
2025-08-15T03:27:54.570Z,7,GR86-063-113,2.6,-0.033,-0.032,11.64,3.0,,0.0,0.0,81.53
2025-08-15T03:27:54.614Z,7,GR86-063-113,2.6,-0.039,-0.032,11.67,3.0,,0.0,0.0,
2025-08-15T03:27:54.700Z,7,GR86-063-113,2.6,-0.017,-0.031,11.69,3.0,3744.0,0.0,0.0,
2025-08-15T03:27:54.786Z,7,GR86-063-113,2.6,-0.017,-0.036,12.21,3.0,,0.0,0.0,81.38
2025-08-15T03:27:54.829Z,7,GR86-063-113,2.6,-0.022,-0.035,12.65,3.0,,0.0,0.0,
2025-08-15T03:27:54.917Z,7,GR86-063-113,2.6,-0.017,-0.037,12.88,3.0,3737.0,0.0,0.0,
2025-08-15T03:27:54.960Z,7,GR86-063-113,2.6,-0.008,-0.039,14.12,3.0,,0.0,0.0,81.29
2025-08-15T03:27:55.004Z,7,GR86-063-113,2.6,-0.009,-0.036,14.25,3.0,,0.0,0.0,
2025-08-15T03:27:55.047Z,7,GR86-063-113,2.6,0.003,-0.042,14.23,3.0,,0.0,0.0,
2025-08-15T03:27:55.090Z,7,GR86-063-113,2.6,0.017,-0.039,14.22,3.0,,0.0,0.0,
2025-08-15T03:27:55.134Z,7,GR86-063-113,2.6,0.013,-0.038,14.28,3.0,3745.0,0.0,0.0,
2025-08-15T03:27:55.177Z,7,GR86-063-113,2.6,0.022,-0.039,14.34,3.0,,0.0,0.0,81.19
2025-08-15T03:27:55.220Z,7,GR86-063-113,2.6,0.006,-0.041,14.34,3.0,,0.0,0.0,
2025-08-15T03:27:55.265Z,7,GR86-063-113,2.6,0.017,-0.039,14.34,3.0,,0.0,0.0,
2025-08-15T03:27:55.350Z,7,GR86-063-113,2.6,0.023,-0.043,14.24,3.0,3744.0,0.0,0.0,
2025-08-15T03:27:55.437Z,7,GR86-063-113,2.6,0.019,-0.037,14.28,3.0,,0.0,0.0,81.21000000000001
2025-08-15T03:27:55.480Z,7,GR86-063-113,2.6,0.014,-0.032,14.25,3.0,,0.0,0.0,
2025-08-15T03:27:55.614Z,7,GR86-063-113,2.6,0.019,-0.036,14.25,3.0,3753.0,0.0,0.0,81.5
2025-08-15T03:27:55.657Z,7,GR86-063-113,2.6,0.011,-0.023,14.22,3.0,,0.0,0.0,
2025-08-15T03:27:55.700Z,7,GR86-063-113,2.6,0.018,-0.027,14.26,3.0,,0.0,0.0,
2025-08-15T03:27:55.744Z,7,GR86-063-113,2.6,0.021,-0.026,14.22,3.0,,0.0,0.0,
2025-08-15T03:27:55.786Z,7,GR86-063-113,2.6,0.024,-0.024,14.09,3.0,3763.0,0.0,0.0,
2025-08-15T03:27:55.829Z,7,GR86-063-113,2.6,0.014,-0.025,14.44,3.0,,0.0,0.0,81.64
2025-08-15T03:27:55.874Z,7,GR86-063-113,2.7,0.016,-0.022,14.38,3.0,,0.0,0.0,
2025-08-15T03:27:55.916Z,7,GR86-063-113,2.7,0.019,-0.022,14.45,3.0,,0.0,0.0,
2025-08-15T03:27:55.959Z,7,GR86-063-113,2.9000000000000004,0.016,-0.014,14.43,3.0,,0.0,0.0,
2025-08-15T03:27:56.004Z,7,GR86-063-113,3.2,0.026,-0.014,14.41,3.0,3769.0,0.0,0.0,
2025-08-15T03:27:56.047Z,7,GR86-063-113,3.5,0.011,-0.006,14.44,3.0,,0.0,0.0,81.77
2025-08-15T03:27:56.090Z,7,GR86-063-113,3.9,0.022,0.001,14.47,3.0,,0.0,0.0,
2025-08-15T03:27:56.134Z,7,GR86-063-113,4.4,0.018,0.005,14.44,3.0,,0.0,0.0,
2025-08-15T03:27:56.177Z,7,GR86-063-113,4.6000000000000005,0.018,0.012,14.5,3.0,,0.0,0.0,
2025-08-15T03:27:56.220Z,7,GR86-063-113,4.800000000000001,0.018,0.025,14.5,3.0,3784.0,0.0,0.0,
2025-08-15T03:27:56.264Z,7,GR86-063-113,4.800000000000001,0.02,0.024,14.58,3.0,,0.0,0.0,81.93
2025-08-15T03:27:56.306Z,7,GR86-063-113,4.9,0.017,0.028,14.55,3.0,,0.0,0.0,
2025-08-15T03:27:56.349Z,7,GR86-063-113,4.9,0.027,0.031,14.62,3.0,,0.0,0.0,
2025-08-15T03:27:56.394Z,7,GR86-063-113,5.0,0.018,0.028,14.86,3.0,,0.0,0.0,
2025-08-15T03:27:56.437Z,7,GR86-063-113,5.0,0.019,0.035,14.88,3.0,3791.0,0.0,0.0,
2025-08-15T03:27:56.480Z,7,GR86-063-113,4.9,0.016,0.034,14.93,3.0,,0.0,0.0,82.11
2025-08-15T03:27:56.525Z,7,GR86-063-113,4.7,0.031,0.035,14.89,3.0,,0.0,0.0,
2025-08-15T03:27:56.568Z,7,GR86-063-113,4.6000000000000005,0.029,0.022,14.87,3.0,,0.0,0.0,
2025-08-15T03:27:56.611Z,7,GR86-063-113,4.6000000000000005,0.029,0.027,14.92,3.0,,0.0,0.0,
2025-08-15T03:27:56.654Z,7,GR86-063-113,4.5,0.024,0.018,15.01,3.0,3801.0,0.0,0.0,
2025-08-15T03:27:56.697Z,7,GR86-063-113,4.5,0.023,0.026,14.99,3.0,,0.0,0.0,82.29
2025-08-15T03:27:56.740Z,7,GR86-063-113,4.5,0.022,0.021,14.93,3.0,,0.0,0.0,
2025-08-15T03:27:56.784Z,7,GR86-063-113,4.5,0.034,0.026,14.95,3.0,,0.0,0.0,
2025-08-15T03:27:56.826Z,7,GR86-063-113,4.5,0.032,0.025,14.99,3.0,,0.0,0.0,
2025-08-15T03:27:56.869Z,7,GR86-063-113,4.5,0.02,0.026,15.02,3.0,3816.0,0.0,0.0,
2025-08-15T03:27:56.915Z,7,GR86-063-113,4.5,0.013,0.028,15.04,3.0,,0.0,0.0,82.54
2025-08-15T03:27:56.958Z,7,GR86-063-113,4.5,0.037,0.022,14.92,3.0,,0.0,0.0,
2025-08-15T03:27:57.001Z,7,GR86-063-113,4.5,0.035,0.022,14.83,3.0,,0.0,0.0,
2025-08-15T03:27:57.044Z,7,GR86-063-113,4.5,0.028,0.016,15.03,3.0,,0.0,0.0,
2025-08-15T03:27:57.087Z,7,GR86-063-113,4.5,0.019,0.022,15.25,3.0,3833.0,0.0,0.0,
2025-08-15T03:27:57.130Z,7,GR86-063-113,4.5,0.016,0.02,15.24,3.0,,0.0,0.0,82.78
2025-08-15T03:27:57.174Z,7,GR86-063-113,4.5,0.026,0.03,15.28,3.0,,0.0,0.0,
2025-08-15T03:27:57.217Z,7,GR86-063-113,4.5,0.04,0.027,15.14,3.0,,0.0,0.0,
2025-08-15T03:27:57.260Z,7,GR86-063-113,4.5,0.029,0.025,15.37,3.0,,0.0,0.0,
2025-08-15T03:27:57.304Z,7,GR86-063-113,4.5,0.019,0.026,15.63,3.0,3847.0,0.0,0.0,
2025-08-15T03:27:57.346Z,7,GR86-063-113,4.5,0.022,0.03,15.7,3.0,,0.0,0.0,83.04
2025-08-15T03:27:57.389Z,7,GR86-063-113,4.5,0.033,0.023,15.72,3.0,,0.0,0.0,
2025-08-15T03:27:57.433Z,7,GR86-063-113,4.5,0.04,0.026,15.75,3.0,,0.0,0.0,
2025-08-15T03:27:57.519Z,7,GR86-063-113,4.4,0.034,0.022,15.82,3.0,3863.0,0.0,0.0,
2025-08-15T03:27:57.564Z,7,GR86-063-113,4.5,0.03,0.032,15.95,3.0,,0.0,0.0,83.28
2025-08-15T03:27:57.607Z,7,GR86-063-113,4.4,0.042,0.029,15.94,3.0,,0.0,0.0,
2025-08-15T03:27:57.651Z,7,GR86-063-113,4.4,0.04,0.022,15.91,3.0,,0.0,0.0,
2025-08-15T03:27:57.736Z,7,GR86-063-113,4.4,0.034,0.035,16.03,3.0,3876.0,0.0,0.0,
2025-08-15T03:27:57.779Z,7,GR86-063-113,4.3,0.037,0.028,15.98,3.0,,0.0,0.0,83.58
2025-08-15T03:27:57.823Z,7,GR86-063-113,4.3,0.042,0.026,15.95,3.0,,0.0,0.0,
2025-08-15T03:27:57.865Z,7,GR86-063-113,4.3,0.039,0.029,15.97,3.0,,0.0,0.0,
2025-08-15T03:27:57.908Z,7,GR86-063-113,4.3,0.031,0.033,16.01,3.0,,0.0,0.0,
2025-08-15T03:27:57.951Z,7,GR86-063-113,4.3,0.033,0.019,16.17,3.0,3889.0,0.0,0.0,
2025-08-15T03:27:57.994Z,7,GR86-063-113,4.3,0.044,0.024,16.15,3.0,,0.0,0.0,83.91
2025-08-15T03:27:58.037Z,7,GR86-063-113,4.3,0.04,0.022,16.14,3.0,,0.0,0.0,
2025-08-15T03:27:58.080Z,7,GR86-063-113,4.3,0.04,0.018,16.13,3.0,,0.0,0.0,
2025-08-15T03:27:58.125Z,7,GR86-063-113,4.3,0.041,0.028,16.21,3.0,,0.0,0.0,
2025-08-15T03:27:58.168Z,7,GR86-063-113,4.3,0.031,0.015,16.23,3.0,3904.0,0.0,0.0,
2025-08-15T03:27:58.211Z,7,GR86-063-113,4.3,0.033,0.035,16.32,3.0,,0.0,0.0,84.27
2025-08-15T03:27:58.254Z,7,GR86-063-113,4.3,0.041,0.011,16.34,3.0,,0.0,0.0,
2025-08-15T03:27:58.297Z,7,GR86-063-113,4.3,0.041,0.019,16.32,3.0,,0.0,0.0,
2025-08-15T03:27:58.340Z,7,GR86-063-113,4.3,0.035,0.012,16.42,3.0,,0.0,0.0,
2025-08-15T03:27:58.384Z,7,GR86-063-113,4.3,0.041,0.02,16.42,3.0,3921.0,0.0,0.0,
2025-08-15T03:27:58.427Z,7,GR86-063-113,4.3,0.038,0.011,16.4,3.0,,0.0,0.0,85.05
2025-08-15T03:27:58.470Z,7,GR86-063-113,4.3,0.043,0.025,16.38,3.0,,0.0,0.0,
2025-08-15T03:27:58.514Z,7,GR86-063-113,4.3,0.041,0.013,16.41,3.0,,0.0,0.0,
2025-08-15T03:27:58.557Z,7,GR86-063-113,4.3,0.031,0.017,16.38,3.0,,0.0,0.0,
2025-08-15T03:27:58.600Z,7,GR86-063-113,4.2,0.036,0.017,16.42,3.0,3937.0,0.0,0.0,
2025-08-15T03:27:58.644Z,7,GR86-063-113,4.2,0.044,0.012,16.29,3.0,,0.0,0.0,85.46000000000001
2025-08-15T03:27:58.686Z,7,GR86-063-113,4.0,0.04,0.01,16.23,3.0,,0.0,0.0,
2025-08-15T03:27:58.729Z,7,GR86-063-113,3.9,0.047,0.011,16.31,3.0,,0.0,0.0,
2025-08-15T03:27:58.774Z,7,GR86-063-113,3.7,0.038,0.013,16.36,3.0,,0.0,0.0,
2025-08-15T03:27:58.817Z,7,GR86-063-113,3.6,0.03,0.001,16.43,3.0,3976.0,0.0,0.0,
2025-08-15T03:27:58.860Z,7,GR86-063-113,3.3000000000000003,0.041,0.001,16.39,3.0,,0.0,0.0,85.86
2025-08-15T03:27:58.904Z,7,GR86-063-113,2.7,0.04,-0.004,16.41,3.0,,0.0,0.0,
2025-08-15T03:27:58.947Z,7,GR86-063-113,1.6,0.041,-0.025,16.45,3.0,,0.0,0.0,
2025-08-15T03:27:58.990Z,7,GR86-063-113,0.8,0.035,-0.019,16.41,3.0,,0.0,0.0,
2025-08-15T03:27:59.034Z,7,GR86-063-113,-0.5,0.034,-0.049,16.3,3.0,3990.0,0.0,0.0,
2025-08-15T03:27:59.076Z,7,GR86-063-113,-0.7000000000000001,0.036,-0.059,16.2,3.0,,0.0,0.0,86.29
2025-08-15T03:27:59.119Z,7,GR86-063-113,-0.5,0.035,-0.074,16.3,3.0,,0.0,0.0,
2025-08-15T03:27:59.165Z,7,GR86-063-113,-0.2,0.025,-0.083,16.2,3.0,,0.0,0.0,
2025-08-15T03:27:59.207Z,7,GR86-063-113,-0.1,0.021,-0.074,16.23,3.0,,0.0,0.0,
2025-08-15T03:27:59.250Z,7,GR86-063-113,0.0,0.033,-0.072,16.27,3.0,4008.0,0.0,0.0,
2025-08-15T03:27:59.294Z,7,GR86-063-113,0.1,0.046,-0.06,16.17,3.0,,0.0,0.0,86.69
2025-08-15T03:27:59.336Z,7,GR86-063-113,0.4,0.036,-0.064,16.19,3.0,,0.0,0.0,
2025-08-15T03:27:59.380Z,7,GR86-063-113,0.8,0.025,-0.038,16.26,3.0,,0.0,0.0,
2025-08-15T03:27:59.426Z,7,GR86-063-113,1.6,0.024,-0.038,16.48,3.0,,0.0,0.0,
2025-08-15T03:27:59.468Z,7,GR86-063-113,2.3000000000000003,0.033,-0.034,16.46,3.0,4030.0,0.0,0.0,
2025-08-15T03:27:59.511Z,7,GR86-063-113,3.2,0.025,-0.008,16.51,3.0,,0.0,0.0,87.09
2025-08-15T03:27:59.554Z,7,GR86-063-113,4.6000000000000005,0.032,0.009,16.71,3.0,,0.0,0.0,
2025-08-15T03:27:59.597Z,7,GR86-063-113,5.7,0.041,0.011,16.82,3.0,,0.0,0.0,
2025-08-15T03:27:59.640Z,7,GR86-063-113,6.300000000000001,0.032,0.041,17.13,3.0,,0.0,0.0,
2025-08-15T03:27:59.684Z,7,GR86-063-113,7.4,0.033,0.065,17.35,3.0,4053.0,0.0,0.0,
2025-08-15T03:27:59.726Z,7,GR86-063-113,8.1,0.031,0.077,18.04,3.0,,0.0,0.0,87.51
2025-08-15T03:27:59.769Z,7,GR86-063-113,8.6,0.039,0.087,18.14,3.0,,0.0,0.0,
2025-08-15T03:27:59.814Z,7,GR86-063-113,8.6,0.042,0.099,18.99,3.0,,0.0,0.0,
2025-08-15T03:27:59.857Z,7,GR86-063-113,8.5,0.045,0.094,19.17,3.0,,0.0,0.0,
2025-08-15T03:27:59.900Z,7,GR86-063-113,8.200000000000001,0.05,0.098,19.3,3.0,4078.0,0.0,0.0,
2025-08-15T03:27:59.944Z,7,GR86-063-113,8.0,0.054,0.09,19.34,3.0,,0.0,0.0,87.91
2025-08-15T03:27:59.986Z,7,GR86-063-113,7.9,0.06,0.104,19.34,3.0,,0.0,0.0,
2025-08-15T03:28:00.029Z,7,GR86-063-113,7.6,0.057,0.082,19.37,3.0,,0.0,0.0,
2025-08-15T03:28:00.074Z,7,GR86-063-113,7.5,0.062,0.088,19.37,3.0,,0.0,0.0,
2025-08-15T03:28:00.117Z,7,GR86-063-113,7.5,0.065,0.085,19.37,3.0,4097.0,0.0,0.0,
2025-08-15T03:28:00.160Z,7,GR86-063-113,7.5,0.061,0.071,19.35,3.0,,0.0,0.0,88.37
2025-08-15T03:28:00.204Z,7,GR86-063-113,7.4,0.056,0.08,19.34,3.0,,0.0,0.0,
2025-08-15T03:28:00.246Z,7,GR86-063-113,7.4,0.053,0.072,19.33,3.0,,0.0,0.0,
2025-08-15T03:28:00.289Z,7,GR86-063-113,7.4,0.067,0.064,19.33,3.0,,0.0,0.0,
2025-08-15T03:28:00.334Z,7,GR86-063-113,7.300000000000001,0.059,0.05,19.33,3.0,4120.0,0.0,0.0,
2025-08-15T03:28:00.377Z,7,GR86-063-113,7.1000000000000005,0.061,0.065,19.33,3.0,,0.0,0.0,88.91
2025-08-15T03:28:00.420Z,7,GR86-063-113,6.5,0.063,0.035,19.24,3.0,,0.0,0.0,
2025-08-15T03:28:00.464Z,7,GR86-063-113,6.0,0.079,0.032,19.12,3.0,,0.0,0.0,
2025-08-15T03:28:00.506Z,7,GR86-063-113,5.9,0.069,0.027,19.11,3.0,,0.0,0.0,
2025-08-15T03:28:00.549Z,7,GR86-063-113,5.7,0.06,0.025,19.14,3.0,4155.0,0.0,0.0,
2025-08-15T03:28:00.594Z,7,GR86-063-113,4.9,0.048,0.003,19.14,3.0,,0.0,0.0,89.54
2025-08-15T03:28:00.637Z,7,GR86-063-113,4.5,0.06,0.007,19.11,3.0,,0.0,0.0,
2025-08-15T03:28:00.726Z,7,GR86-063-113,4.0,0.064,-0.013,19.09,3.0,,0.0,0.0,
2025-08-15T03:28:00.768Z,7,GR86-063-113,2.8000000000000003,0.051,-0.043,19.11,3.0,4176.0,0.0,0.0,
2025-08-15T03:28:00.811Z,7,GR86-063-113,2.1,0.044,-0.044,19.09,3.0,,0.0,0.0,90.1
2025-08-15T03:28:00.854Z,7,GR86-063-113,1.3,0.072,-0.063,18.89,3.0,,0.0,0.0,
2025-08-15T03:28:00.897Z,7,GR86-063-113,0.2,0.062,-0.072,18.52,3.0,,0.0,0.0,
2025-08-15T03:28:00.940Z,7,GR86-063-113,-0.3,0.051,-0.082,18.51,3.0,,0.0,0.0,
2025-08-15T03:28:00.984Z,7,GR86-063-113,-0.5,0.039,-0.097,18.64,3.0,4205.0,0.0,0.0,
2025-08-15T03:28:01.027Z,7,GR86-063-113,-0.6000000000000001,0.051,-0.089,18.64,3.0,,0.0,0.0,91.16
2025-08-15T03:28:01.070Z,7,GR86-063-113,-0.7000000000000001,0.051,-0.099,18.64,3.0,,0.0,0.0,
2025-08-15T03:28:01.115Z,7,GR86-063-113,-1.3,0.048,-0.113,18.64,3.0,,0.0,0.0,
2025-08-15T03:28:01.158Z,7,GR86-063-113,-1.7000000000000002,0.055,-0.128,18.67,3.0,,0.0,0.0,
2025-08-15T03:28:01.201Z,7,GR86-063-113,-2.1,0.033,-0.128,18.74,3.0,4225.0,0.0,0.0,
2025-08-15T03:28:01.244Z,7,GR86-063-113,-2.5,0.039,-0.146,18.73,3.0,,0.0,0.0,91.71
2025-08-15T03:28:01.287Z,7,GR86-063-113,-3.1,0.044,-0.148,18.7,3.0,,0.0,0.0,
2025-08-15T03:28:01.330Z,7,GR86-063-113,-4.0,0.062,-0.166,18.67,3.0,,0.0,0.0,
2025-08-15T03:28:01.374Z,7,GR86-063-113,-4.3,0.05,-0.172,18.7,3.0,,0.0,0.0,
2025-08-15T03:28:01.417Z,7,GR86-063-113,-4.2,0.04,-0.167,18.7,3.0,4266.0,0.0,0.0,
2025-08-15T03:28:01.460Z,7,GR86-063-113,-3.8,0.041,-0.175,18.51,3.0,,0.0,0.0,92.25
2025-08-15T03:28:01.504Z,7,GR86-063-113,-3.5,0.056,-0.159,18.54,3.0,,0.0,0.0,
2025-08-15T03:28:01.546Z,7,GR86-063-113,-2.9000000000000004,0.059,-0.163,18.55,3.0,,0.0,0.0,
2025-08-15T03:28:01.589Z,7,GR86-063-113,-2.5,0.046,-0.128,18.54,3.0,,0.0,0.0,
2025-08-15T03:28:01.633Z,7,GR86-063-113,-2.1,0.03,-0.128,18.55,3.0,4295.0,0.0,0.0,
2025-08-15T03:28:01.676Z,7,GR86-063-113,-1.9,0.05,-0.103,18.54,3.0,,0.0,0.0,92.73
2025-08-15T03:28:01.719Z,7,GR86-063-113,-1.8,0.044,-0.092,18.6,3.0,,0.0,0.0,
2025-08-15T03:28:01.764Z,7,GR86-063-113,-1.5,0.044,-0.076,18.67,3.0,,0.0,0.0,
2025-08-15T03:28:01.807Z,7,GR86-063-113,-1.5,0.044,-0.067,18.67,3.0,,0.0,0.0,
2025-08-15T03:28:01.850Z,7,GR86-063-113,-1.4,0.051,-0.067,18.7,3.0,4326.0,0.0,0.0,
2025-08-15T03:28:01.894Z,7,GR86-063-113,-1.4,0.053,-0.067,18.78,3.0,,0.0,0.0,93.24
2025-08-15T03:28:01.936Z,7,GR86-063-113,-1.4,0.04,-0.069,18.93,3.0,,0.0,0.0,
2025-08-15T03:28:01.980Z,7,GR86-063-113,-1.5,0.043,-0.077,18.91,3.0,,0.0,0.0,
2025-08-15T03:28:02.023Z,7,GR86-063-113,-1.5,0.055,-0.072,18.92,3.0,,0.0,0.0,
2025-08-15T03:28:02.065Z,7,GR86-063-113,-1.5,0.055,-0.088,18.96,3.0,4352.0,0.0,0.0,
2025-08-15T03:28:02.108Z,7,GR86-063-113,-1.8,0.049,-0.093,18.96,3.0,,0.0,0.0,93.79
2025-08-15T03:28:02.151Z,7,GR86-063-113,-1.8,0.034,-0.096,19.01,3.0,,0.0,0.0,
2025-08-15T03:28:02.194Z,7,GR86-063-113,-1.8,0.054,-0.119,18.83,3.0,,0.0,0.0,
2025-08-15T03:28:02.237Z,7,GR86-063-113,-2.1,0.057,-0.131,18.68,3.0,,0.0,0.0,
2025-08-15T03:28:02.280Z,7,GR86-063-113,-2.1,0.063,-0.136,18.7,3.0,4384.0,0.0,0.0,
2025-08-15T03:28:02.325Z,7,GR86-063-113,-2.1,0.034,-0.148,18.7,3.0,,0.0,0.0,94.36
2025-08-15T03:28:02.368Z,7,GR86-063-113,-2.1,0.029,-0.137,18.67,3.0,,0.0,0.0,
2025-08-15T03:28:02.411Z,7,GR86-063-113,-2.1,0.031,-0.137,18.67,3.0,,0.0,0.0,
2025-08-15T03:28:02.454Z,7,GR86-063-113,-2.1,0.055,-0.141,18.49,3.0,,0.0,0.0,
2025-08-15T03:28:02.497Z,7,GR86-063-113,-2.0,0.06,-0.126,18.54,3.0,4405.0,0.0,0.0,
2025-08-15T03:28:02.540Z,7,GR86-063-113,-1.8,0.02,-0.12,18.55,3.0,,0.0,0.0,94.82
2025-08-15T03:28:02.584Z,7,GR86-063-113,-1.8,0.033,-0.108,18.54,3.0,,0.0,0.0,
2025-08-15T03:28:02.627Z,7,GR86-063-113,-1.8,0.042,-0.133,18.54,3.0,,0.0,0.0,
2025-08-15T03:28:02.670Z,7,GR86-063-113,-1.8,0.067,-0.116,18.52,3.0,,0.0,0.0,
2025-08-15T03:28:02.714Z,7,GR86-063-113,-1.8,0.027,-0.118,18.7,3.0,4423.0,0.0,0.0,
2025-08-15T03:28:02.757Z,7,GR86-063-113,-1.8,0.018,-0.101,18.73,3.0,,0.0,0.0,95.27
2025-08-15T03:28:02.800Z,7,GR86-063-113,-1.8,0.029,-0.117,18.73,3.0,,0.0,0.0,
2025-08-15T03:28:02.844Z,7,GR86-063-113,-1.8,0.045,-0.118,18.71,3.0,,0.0,0.0,
2025-08-15T03:28:02.886Z,7,GR86-063-113,-1.8,0.064,-0.112,18.73,3.0,,0.0,0.0,
2025-08-15T03:28:02.929Z,7,GR86-063-113,-1.8,0.041,-0.135,18.72,3.0,4438.0,0.0,0.0,
2025-08-15T03:28:02.974Z,7,GR86-063-113,-1.8,0.027,-0.115,18.73,3.0,,0.0,0.0,95.78
2025-08-15T03:28:03.017Z,7,GR86-063-113,-1.8,0.037,-0.13,18.67,3.0,,0.0,0.0,
2025-08-15T03:28:03.060Z,7,GR86-063-113,-1.8,0.05,-0.117,18.64,3.0,,0.0,0.0,
2025-08-15T03:28:03.104Z,7,GR86-063-113,-1.8,0.035,-0.117,18.67,3.0,,0.0,0.0,
2025-08-15T03:28:03.146Z,7,GR86-063-113,-1.8,0.026,-0.111,18.66,3.0,4461.0,0.0,0.0,
2025-08-15T03:28:03.189Z,7,GR86-063-113,-1.8,0.036,-0.099,18.67,3.0,,0.0,0.0,96.24
2025-08-15T03:28:03.234Z,7,GR86-063-113,-1.8,0.043,-0.112,18.64,3.0,,0.0,0.0,
2025-08-15T03:28:03.277Z,7,GR86-063-113,-1.8,0.041,-0.104,18.63,3.0,,0.0,0.0,
2025-08-15T03:28:03.320Z,7,GR86-063-113,-1.7000000000000002,0.025,-0.119,18.61,3.0,,0.0,0.0,
2025-08-15T03:28:03.365Z,7,GR86-063-113,-1.7000000000000002,0.033,-0.114,18.26,3.0,4483.0,0.0,0.0,
2025-08-15T03:28:03.407Z,7,GR86-063-113,-1.7000000000000002,0.039,-0.108,17.27,3.0,,0.0,0.0,96.67
2025-08-15T03:28:03.450Z,7,GR86-063-113,-1.7000000000000002,0.043,-0.113,16.26,3.0,,0.0,0.0,
2025-08-15T03:28:03.494Z,7,GR86-063-113,-1.7000000000000002,0.033,-0.106,13.99,3.0,,0.0,0.0,
2025-08-15T03:28:03.537Z,7,GR86-063-113,-1.7000000000000002,0.008,-0.113,8.950000000000001,3.0,,0.0,0.0,
2025-08-15T03:28:03.580Z,7,GR86-063-113,-1.7000000000000002,-0.002,-0.096,6.73,3.0,4505.0,0.0,0.0,
2025-08-15T03:28:03.625Z,7,GR86-063-113,-1.7000000000000002,-0.013,-0.106,4.94,3.0,,0.0,0.0,97.56
2025-08-15T03:28:03.668Z,7,GR86-063-113,-1.7000000000000002,-0.049,-0.111,3.95,3.0,,0.0,0.0,
2025-08-15T03:28:03.711Z,7,GR86-063-113,-1.7000000000000002,-0.065,-0.107,3.76,3.0,,0.0,0.0,
2025-08-15T03:28:03.754Z,7,GR86-063-113,-1.7000000000000002,-0.161,-0.132,3.41,3.0,,0.0,0.0,
2025-08-15T03:28:03.797Z,7,GR86-063-113,-1.6,-0.312,-0.115,3.04,3.0,4504.0,0.0,0.0,
2025-08-15T03:28:03.840Z,7,GR86-063-113,-1.6,-0.188,-0.101,2.78,3.0,,0.0,0.0,97.76
2025-08-15T03:28:03.884Z,7,GR86-063-113,-1.5,-0.043,-0.123,2.69,3.0,,0.0,0.0,
2025-08-15T03:28:03.926Z,7,GR86-063-113,-1.4,-0.071,-0.102,2.62,3.0,,0.0,0.0,
2025-08-15T03:28:03.969Z,7,GR86-063-113,-1.3,-0.067,-0.087,2.56,3.0,,0.0,0.0,
2025-08-15T03:28:04.014Z,7,GR86-063-113,-1.2000000000000002,-0.184,-0.095,2.5,3.0,4361.0,0.0,0.0,
2025-08-15T03:28:04.057Z,7,GR86-063-113,-1.1,-0.204,-0.071,2.47,3.0,,0.0,0.0,97.02
2025-08-15T03:28:04.100Z,7,GR86-063-113,-0.9,-0.123,-0.082,2.46,3.0,,0.0,0.0,
2025-08-15T03:28:04.144Z,7,GR86-063-113,-0.7000000000000001,-0.085,-0.078,2.43,3.0,,0.0,0.0,
2025-08-15T03:28:04.186Z,7,GR86-063-113,-0.7000000000000001,-0.095,-0.064,2.44,3.0,,0.0,0.0,
2025-08-15T03:28:04.229Z,7,GR86-063-113,-0.7000000000000001,-0.144,-0.08,2.42,3.0,4378.0,0.0,0.0,
2025-08-15T03:28:04.274Z,7,GR86-063-113,-0.4,-0.145,-0.072,2.46,3.0,,0.0,0.0,96.3
2025-08-15T03:28:04.317Z,7,GR86-063-113,-0.1,-0.112,-0.055,2.5,3.0,,0.0,0.0,
2025-08-15T03:28:04.360Z,7,GR86-063-113,0.3,-0.111,-0.066,2.56,3.0,,0.0,0.0,
2025-08-15T03:28:04.404Z,7,GR86-063-113,0.5,-0.108,-0.044,2.62,3.0,,0.0,0.0,
2025-08-15T03:28:04.446Z,7,GR86-063-113,0.6000000000000001,-0.135,-0.052,2.96,3.0,4369.0,0.0,0.0,
2025-08-15T03:28:04.489Z,7,GR86-063-113,0.7000000000000001,-0.128,-0.046,3.21,3.0,,0.0,0.0,95.63
2025-08-15T03:28:04.534Z,7,GR86-063-113,0.8,-0.119,-0.043,3.36,3.0,,0.0,0.0,
2025-08-15T03:28:04.577Z,7,GR86-063-113,1.1,-0.126,-0.042,3.5500000000000003,3.0,,0.0,0.0,
2025-08-15T03:28:04.664Z,7,GR86-063-113,1.8,-0.128,-0.039,3.93,3.0,4338.0,0.0,0.0,
2025-08-15T03:28:04.706Z,7,GR86-063-113,1.9,-0.122,-0.028,4.75,3.0,,0.0,0.0,94.95
2025-08-15T03:28:04.749Z,7,GR86-063-113,2.0,-0.123,-0.046,4.97,3.0,,0.0,0.0,
2025-08-15T03:28:04.837Z,7,GR86-063-113,2.1,-0.126,-0.033,5.04,3.0,,0.0,0.0,
2025-08-15T03:28:04.880Z,7,GR86-063-113,2.1,-0.097,-0.019,5.07,3.0,4309.0,0.0,0.0,
2025-08-15T03:28:04.926Z,7,GR86-063-113,2.1,-0.079,-0.021,5.1000000000000005,3.0,,0.0,0.0,94.26
2025-08-15T03:28:04.968Z,7,GR86-063-113,2.2,-0.105,-0.008,5.42,3.0,,0.0,0.0,
2025-08-15T03:28:05.011Z,7,GR86-063-113,2.2,-0.129,-0.017,6.84,3.0,,0.0,0.0,
2025-08-15T03:28:05.054Z,7,GR86-063-113,2.2,-0.093,-0.021,7.49,3.0,,0.0,0.0,
2025-08-15T03:28:05.097Z,7,GR86-063-113,2.3000000000000003,-0.06,-0.023,7.53,3.0,4256.0,0.0,0.0,
2025-08-15T03:28:05.140Z,7,GR86-063-113,2.3000000000000003,-0.069,-0.031,7.63,3.0,,0.0,0.0,93.58
2025-08-15T03:28:05.184Z,7,GR86-063-113,2.3000000000000003,-0.078,-0.017,7.7,3.0,,0.0,0.0,
2025-08-15T03:28:05.226Z,7,GR86-063-113,2.3000000000000003,-0.121,-0.025,9.77,3.0,,0.0,0.0,
2025-08-15T03:28:05.269Z,7,GR86-063-113,2.3000000000000003,-0.11,-0.022,11.15,3.0,,0.0,0.0,
2025-08-15T03:28:05.315Z,7,GR86-063-113,2.3000000000000003,-0.092,-0.023,11.89,3.0,4240.0,0.0,0.0,
2025-08-15T03:28:05.358Z,7,GR86-063-113,2.3000000000000003,-0.042,-0.026,13.19,4.0,,0.0,0.0,93.02
2025-08-15T03:28:05.401Z,7,GR86-063-113,2.3000000000000003,0.552,-0.022,6.83,4.0,,0.0,0.0,
2025-08-15T03:28:05.444Z,7,GR86-063-113,2.4000000000000004,0.074,-0.039,8.53,4.0,,0.0,0.0,
2025-08-15T03:28:05.487Z,7,GR86-063-113,2.4000000000000004,-0.183,-0.011,21.53,4.0,,0.0,0.0,
