timestamp,lap,vehicle_id,steering_angle,accx_can,accy_can,ath,gear,nmot,pbrake_f,pbrake_r,speed
2025-08-15T04:22:29.208Z,1,GR86-065-5,-1.8,0.123,0.032,39.86,1.0,,0.0,0.0,
2025-08-15T04:22:29.251Z,1,GR86-065-5,-1.8,-0.038,-0.015,48.59,1.0,6334.0,0.0,0.0,
2025-08-15T04:22:29.294Z,1,GR86-065-5,-1.8,-0.019,0.011,47.26,1.0,,0.0,0.0,88.21000000000001
2025-08-15T04:22:29.337Z,1,GR86-065-5,-1.8,0.116,-0.003,36.11,1.0,,0.0,0.0,
2025-08-15T04:22:29.380Z,1,GR86-065-5,-2.2,0.477,-0.01,5.55,1.0,,0.0,0.0,
2025-08-15T04:22:29.422Z,1,GR86-065-5,-2.8000000000000003,0.487,-0.034,4.28,1.0,,4.18,4.0600000000000005,
2025-08-15T04:22:29.466Z,1,GR86-065-5,-3.4000000000000004,0.204,-0.027,4.08,1.0,6505.0,4.15,3.725,
2025-08-15T04:22:29.508Z,1,GR86-065-5,-3.4000000000000004,-0.145,-0.024,3.7,1.0,,1.89,0.0,86.72
2025-08-15T04:22:29.552Z,1,GR86-065-5,-3.4000000000000004,-0.058,-0.062,3.15,1.0,,0.0,0.0,
2025-08-15T04:22:29.595Z,1,GR86-065-5,-3.4000000000000004,-0.466,-0.086,2.83,1.0,,0.0,0.0,
2025-08-15T04:22:29.638Z,1,GR86-065-5,-3.4000000000000004,-0.48,-0.04,2.75,1.0,,0.0,0.0,
2025-08-15T04:22:29.681Z,1,GR86-065-5,-3.4000000000000004,-0.277,-0.079,6.08,1.0,6825.0,0.0,0.0,
2025-08-15T04:22:29.724Z,1,GR86-065-5,-3.4000000000000004,-0.127,-0.082,6.34,1.0,,0.0,0.0,88.17
2025-08-15T04:22:29.768Z,1,GR86-065-5,-3.4000000000000004,-0.048,-0.047,14.66,1.0,,0.0,0.0,
2025-08-15T04:22:29.811Z,1,GR86-065-5,-3.4000000000000004,-0.052,-0.094,20.93,1.0,,0.0,0.0,
2025-08-15T04:22:29.854Z,1,GR86-065-5,-3.4000000000000004,-0.105,-0.049,26.65,1.0,,0.0,0.0,
2025-08-15T04:22:29.897Z,1,GR86-065-5,-3.4000000000000004,-0.124,-0.057,30.49,1.0,6113.0,0.0,0.0,
2025-08-15T04:22:29.942Z,1,GR86-065-5,-3.4000000000000004,-0.034,-0.029,30.8,1.0,,0.0,0.0,88.89
2025-08-15T04:22:29.985Z,1,GR86-065-5,-3.4000000000000004,-0.034,-0.048,31.08,1.0,,0.0,0.0,
2025-08-15T04:22:30.114Z,1,GR86-065-5,-3.4000000000000004,0.5680000000000001,-0.03,31.05,1.0,6548.0,0.0,0.0,
2025-08-15T04:22:30.157Z,1,GR86-065-5,-3.4000000000000004,0.323,0.015,33.45,1.0,,0.0,0.0,87.27
2025-08-15T04:22:30.200Z,1,GR86-065-5,-3.4000000000000004,0.009,0.0,35.81,1.0,,0.0,0.0,
2025-08-15T04:22:30.244Z,1,GR86-065-5,-3.4000000000000004,-0.016,0.033,35.480000000000004,1.0,,0.0,0.0,
2025-08-15T04:22:30.287Z,1,GR86-065-5,-3.4000000000000004,0.099,0.013,34.6,1.0,,0.0,0.0,
2025-08-15T04:22:30.330Z,1,GR86-065-5,-3.4000000000000004,0.263,0.004,33.46,1.0,6486.0,0.0,0.0,
2025-08-15T04:22:30.372Z,1,GR86-065-5,-3.4000000000000004,0.361,0.015,32.18,1.0,,0.0,0.0,86.78
2025-08-15T04:22:30.416Z,1,GR86-065-5,-3.4000000000000004,0.359,0.004,30.5,1.0,,0.0,0.0,
2025-08-15T04:22:30.458Z,1,GR86-065-5,-3.4000000000000004,0.238,0.008,23.43,1.0,,0.0,0.0,
2025-08-15T04:22:30.502Z,1,GR86-065-5,-3.4000000000000004,0.072,0.017,21.75,1.0,,0.0,0.0,
2025-08-15T04:22:30.545Z,1,GR86-065-5,-3.4000000000000004,0.026,0.005,25.39,1.0,6752.0,0.0,0.0,
2025-08-15T04:22:30.588Z,1,GR86-065-5,-3.4000000000000004,0.002,0.01,32.42,1.0,,0.0,0.0,88.26
2025-08-15T04:22:30.631Z,1,GR86-065-5,-3.4000000000000004,0.025,-0.012,36.51,1.0,,0.0,0.0,
2025-08-15T04:22:30.674Z,1,GR86-065-5,-3.4000000000000004,0.048,-0.003,38.84,1.0,,0.0,0.0,
2025-08-15T04:22:30.717Z,1,GR86-065-5,-3.4000000000000004,0.168,-0.034,38.9,1.0,,0.0,0.0,
2025-08-15T04:22:30.760Z,1,GR86-065-5,-3.4000000000000004,0.331,-0.018,38.54,1.0,6557.0,0.0,0.0,
2025-08-15T04:22:30.802Z,1,GR86-065-5,-3.4000000000000004,0.357,-0.032,38.15,1.0,,0.0,0.0,89.5
2025-08-15T04:22:30.846Z,1,GR86-065-5,-3.4000000000000004,0.297,-0.016,36.24,1.0,,0.0,0.0,
2025-08-15T04:22:30.889Z,1,GR86-065-5,-3.4000000000000004,0.22,-0.009,34.160000000000004,1.0,,0.0,0.0,
2025-08-15T04:22:30.932Z,1,GR86-065-5,-3.4000000000000004,0.143,-0.009,33.01,1.0,,0.0,0.0,
2025-08-15T04:22:30.976Z,1,GR86-065-5,-3.4000000000000004,0.147,-0.013,32.42,1.0,6843.0,0.0,0.0,
2025-08-15T04:22:31.018Z,1,GR86-065-5,-3.4000000000000004,0.157,-0.016,29.56,1.0,,0.0,0.0,90.23
2025-08-15T04:22:31.062Z,1,GR86-065-5,-3.4000000000000004,0.203,-0.022,8.07,1.0,,0.0,0.0,
2025-08-15T04:22:31.105Z,1,GR86-065-5,-3.4000000000000004,0.184,-0.039,3.49,1.0,,0.0,0.0,
2025-08-15T04:22:31.148Z,1,GR86-065-5,-3.4000000000000004,0.079,-0.023,3.5700000000000003,1.0,,0.0,0.0,
2025-08-15T04:22:31.191Z,1,GR86-065-5,-3.4000000000000004,-0.052,-0.027,3.41,1.0,6759.0,0.0,0.0,
2025-08-15T04:22:31.235Z,1,GR86-065-5,-3.4000000000000004,-0.062,-0.026,3.17,1.0,,0.0,0.0,91.31
2025-08-15T04:22:31.277Z,1,GR86-065-5,-3.9,-0.188,-0.057,2.94,1.0,,0.0,0.0,
2025-08-15T04:22:31.322Z,1,GR86-065-5,-4.3,-0.453,-0.046,2.74,1.0,,0.0,0.0,
2025-08-15T04:22:31.365Z,1,GR86-065-5,-4.3,-0.352,-0.083,2.65,1.0,,0.0,0.0,
2025-08-15T04:22:31.408Z,1,GR86-065-5,-4.3,-0.23,-0.119,2.59,1.0,6761.0,0.0,0.0,
2025-08-15T04:22:31.452Z,1,GR86-065-5,-4.3,-0.124,-0.086,2.57,1.0,,0.0,0.0,92.63
2025-08-15T04:22:31.495Z,1,GR86-065-5,-4.3,-0.078,-0.1,2.51,1.0,,0.0,0.0,
2025-08-15T04:22:31.538Z,1,GR86-065-5,-4.3,-0.1,-0.073,2.51,1.0,,0.0,0.0,
2025-08-15T04:22:31.581Z,1,GR86-065-5,-4.2,-0.18,-0.049,6.67,1.0,,0.0,0.0,
2025-08-15T04:22:31.625Z,1,GR86-065-5,-2.7,-0.221,-0.009,17.73,1.0,6620.0,0.0,0.0,
2025-08-15T04:22:31.668Z,1,GR86-065-5,-0.5,-0.21,0.005,19.22,1.0,,0.0,0.0,93.18
2025-08-15T04:22:31.711Z,1,GR86-065-5,1.7000000000000002,-0.2,0.039,19.45,1.0,,0.0,0.0,
2025-08-15T04:22:31.754Z,1,GR86-065-5,2.8000000000000003,-0.097,0.054,19.32,1.0,,0.0,0.0,
2025-08-15T04:22:31.797Z,1,GR86-065-5,2.8000000000000003,-0.042,0.088,19.9,1.0,,0.0,0.0,
2025-08-15T04:22:31.842Z,1,GR86-065-5,2.8000000000000003,-0.019,0.115,25.2,1.0,6580.0,0.0,0.0,
2025-08-15T04:22:31.885Z,1,GR86-065-5,1.8,0.168,0.113,30.84,1.0,,0.0,0.0,91.5
2025-08-15T04:22:31.928Z,1,GR86-065-5,1.4,0.254,0.08,31.59,1.0,,0.0,0.0,
2025-08-15T04:22:31.971Z,1,GR86-065-5,1.4,0.223,0.1,31.91,1.0,,0.0,0.0,
2025-08-15T04:22:32.015Z,1,GR86-065-5,1.4,0.175,0.062,32.03,1.0,,0.0,0.0,
2025-08-15T04:22:32.058Z,1,GR86-065-5,1.4,0.139,0.077,32.03,1.0,6630.0,0.0,0.0,
2025-08-15T04:22:32.101Z,1,GR86-065-5,1.4,0.157,0.082,31.95,1.0,,0.0,0.0,90.17
2025-08-15T04:22:32.144Z,1,GR86-065-5,1.4,0.188,0.09,31.81,1.0,,0.0,0.0,
2025-08-15T04:22:32.187Z,1,GR86-065-5,1.4,0.205,0.078,31.49,1.0,,0.0,0.0,
2025-08-15T04:22:32.230Z,1,GR86-065-5,1.4,0.203,0.071,31.14,1.0,,0.0,0.0,
2025-08-15T04:22:32.272Z,1,GR86-065-5,1.4,0.184,0.068,30.07,1.0,6639.0,0.0,0.0,
2025-08-15T04:22:32.316Z,1,GR86-065-5,1.4,0.163,0.063,22.6,1.0,,0.0,0.0,89.02
2025-08-15T04:22:32.358Z,1,GR86-065-5,0.6000000000000001,0.148,0.056,5.34,1.0,,0.0,0.0,
2025-08-15T04:22:32.402Z,1,GR86-065-5,-1.7000000000000002,0.103,0.008,3.89,1.0,,0.0,0.0,
2025-08-15T04:22:32.445Z,1,GR86-065-5,-3.4000000000000004,-0.01,0.02,3.73,1.0,,0.0,0.0,
2025-08-15T04:22:32.488Z,1,GR86-065-5,-4.4,-0.048,-0.044,3.42,1.0,6698.0,0.0,0.0,
2025-08-15T04:22:32.531Z,1,GR86-065-5,-4.5,-0.047,-0.059,3.03,1.0,,0.0,0.0,89.63
2025-08-15T04:22:32.574Z,1,GR86-065-5,-4.5,-0.295,-0.069,2.84,1.0,,0.0,0.0,
2025-08-15T04:22:32.617Z,1,GR86-065-5,-4.5,-0.436,-0.051,2.72,1.0,,0.0,0.0,
2025-08-15T04:22:32.660Z,1,GR86-065-5,-4.5,-0.316,-0.051,2.59,1.0,,0.0,0.0,
2025-08-15T04:22:32.702Z,1,GR86-065-5,-4.5,-0.176,-0.079,2.5500000000000003,1.0,6721.0,0.0,0.0,
2025-08-15T04:22:32.746Z,1,GR86-065-5,-4.5,-0.076,-0.041,2.52,1.0,,1.955,0.0,91.58
2025-08-15T04:22:32.790Z,1,GR86-065-5,-4.5,-0.088,-0.065,2.5,1.0,,5.465,5.3100000000000005,
2025-08-15T04:22:32.832Z,1,GR86-065-5,-4.5,-0.186,-0.058,2.5,1.0,,11.58,11.43,
2025-08-15T04:22:32.876Z,1,GR86-065-5,-5.5,-0.389,-0.052,2.49,1.0,,19.305,19.12,
2025-08-15T04:22:32.918Z,1,GR86-065-5,-7.0,-0.588,-0.066,2.49,1.0,6380.0,28.4,28.43,
2025-08-15T04:22:32.962Z,1,GR86-065-5,-8.5,-0.758,-0.088,2.49,1.0,,40.27,40.47,90.6
2025-08-15T04:22:33.005Z,1,GR86-065-5,-8.700000000000001,-0.8250000000000001,-0.07,2.49,1.0,,45.37,45.72,
2025-08-15T04:22:33.048Z,1,GR86-065-5,-8.700000000000001,-0.866,-0.099,2.49,1.0,,48.8,49.17,
2025-08-15T04:22:33.091Z,1,GR86-065-5,-6.1000000000000005,-0.957,-0.068,2.49,1.0,,51.9,52.435,
2025-08-15T04:22:33.134Z,1,GR86-065-5,-2.0,-1.013,-0.033,2.5,1.0,6659.0,54.295,54.74,
2025-08-15T04:22:33.177Z,1,GR86-065-5,-1.5,-1.06,0.03,2.49,1.0,,55.105,55.105,88.65
2025-08-15T04:22:33.220Z,1,GR86-065-5,-5.2,-1.161,0.019,2.49,1.0,,52.525,51.275,
2025-08-15T04:22:33.262Z,1,GR86-065-5,-11.8,-1.69,-0.163,2.5,1.0,,44.5,42.985,
2025-08-15T04:22:33.306Z,1,GR86-065-5,-18.1,-1.342,-0.007,16.71,1.0,,35.235,33.74,
2025-08-15T04:22:33.349Z,1,GR86-065-5,-20.4,-0.726,-0.292,20.05,1.0,5926.0,23.775,22.645,
2025-08-15T04:22:33.392Z,1,GR86-065-5,-19.8,-0.48,-0.276,22.27,1.0,,11.155,10.62,83.95
2025-08-15T04:22:33.435Z,1,GR86-065-5,-5.800000000000001,-0.215,-0.233,44.39,1.0,,2.825,2.52,
2025-08-15T04:22:33.478Z,1,GR86-065-5,7.2,-0.078,-0.192,74.79,1.0,,0.0,0.0,
2025-08-15T04:22:33.521Z,1,GR86-065-5,11.1,0.091,0.111,76.48,1.0,,0.0,0.0,
2025-08-15T04:22:33.564Z,1,GR86-065-5,9.2,0.389,0.127,74.17,1.0,5250.0,0.0,0.0,
2025-08-15T04:22:33.607Z,1,GR86-065-5,4.7,0.659,0.178,72.2,1.0,,0.0,0.0,76.89
2025-08-15T04:22:33.650Z,1,GR86-065-5,2.8000000000000003,0.656,0.17,53.66,1.0,,0.0,0.0,
2025-08-15T04:22:33.692Z,1,GR86-065-5,2.8000000000000003,0.435,0.143,26.27,1.0,,0.0,0.0,
2025-08-15T04:22:33.736Z,1,GR86-065-5,2.7,0.222,0.107,9.78,1.0,,0.0,0.0,
2025-08-15T04:22:33.779Z,1,GR86-065-5,1.0,0.096,0.055,3.64,1.0,5513.0,5.22,4.9,
2025-08-15T04:22:33.822Z,1,GR86-065-5,-0.7000000000000001,-0.03,0.004,3.38,1.0,,5.05,4.565,70.98
2025-08-15T04:22:33.865Z,1,GR86-065-5,-0.7000000000000001,-0.062,-0.038,3.76,1.0,,0.0,0.0,
2025-08-15T04:22:33.908Z,1,GR86-065-5,-0.3,-0.068,-0.036,19.47,1.0,,0.0,0.0,
2025-08-15T04:22:33.951Z,1,GR86-065-5,1.7000000000000002,-0.031,-0.01,29.3,1.0,,0.0,0.0,
2025-08-15T04:22:33.994Z,1,GR86-065-5,2.2,-0.04,0.04,47.45,1.0,5171.0,0.0,0.0,
2025-08-15T04:22:34.037Z,1,GR86-065-5,2.2,-0.095,0.079,76.97,1.0,,0.0,0.0,71.21000000000001
2025-08-15T04:22:34.080Z,1,GR86-065-5,1.7000000000000002,-0.064,0.08,99.77,1.0,,0.0,0.0,
2025-08-15T04:22:34.122Z,1,GR86-065-5,0.3,-0.045,0.063,100.12,1.0,,0.0,0.0,
2025-08-15T04:22:34.166Z,1,GR86-065-5,-1.1,0.495,0.057,100.19,1.0,,0.0,0.0,
2025-08-15T04:22:34.209Z,1,GR86-065-5,-1.5,0.835,-0.001,100.17,1.0,5231.0,0.0,0.0,
2025-08-15T04:22:34.252Z,1,GR86-065-5,-2.2,0.6950000000000001,-0.031,100.17,1.0,,0.0,0.0,72.87
2025-08-15T04:22:34.295Z,1,GR86-065-5,-4.5,0.441,-0.003,100.18,1.0,,0.0,0.0,
2025-08-15T04:22:34.338Z,1,GR86-065-5,-7.9,0.169,-0.065,100.16,1.0,,0.0,0.0,
2025-08-15T04:22:34.381Z,1,GR86-065-5,-11.1,0.071,-0.093,100.16,1.0,,0.0,0.0,
2025-08-15T04:22:34.424Z,1,GR86-065-5,-11.2,0.199,-0.154,100.16,1.0,5879.0,0.0,0.0,
2025-08-15T04:22:34.468Z,1,GR86-065-5,-11.2,0.401,-0.167,100.13,1.0,,0.0,0.0,72.63
2025-08-15T04:22:34.511Z,1,GR86-065-5,-8.5,0.522,-0.125,100.09,1.0,,0.0,0.0,
2025-08-15T04:22:34.554Z,1,GR86-065-5,-5.800000000000001,0.5,-0.121,100.07,1.0,,0.0,0.0,
2025-08-15T04:22:34.597Z,1,GR86-065-5,-4.9,0.357,-0.065,100.07,1.0,,0.0,0.0,
2025-08-15T04:22:34.642Z,1,GR86-065-5,-4.9,0.203,-0.005,100.03,1.0,5303.0,0.0,0.0,
2025-08-15T04:22:34.685Z,1,GR86-065-5,-4.9,0.21,0.017,100.01,1.0,,0.0,0.0,73.65
2025-08-15T04:22:34.728Z,1,GR86-065-5,-4.3,0.305,0.02,100.0,1.0,,0.0,0.0,
2025-08-15T04:22:34.771Z,1,GR86-065-5,-3.5,0.385,0.039,85.09,1.0,,0.0,0.0,
2025-08-15T04:22:34.815Z,1,GR86-065-5,-3.4000000000000004,0.436,0.034,83.13,1.0,,0.0,0.0,
2025-08-15T04:22:34.858Z,1,GR86-065-5,-3.4000000000000004,0.4,0.016,99.55,1.0,5728.0,0.0,0.0,
2025-08-15T04:22:34.902Z,1,GR86-065-5,-3.4000000000000004,0.315,0.023,100.17,1.0,,0.0,0.0,75.82000000000001
2025-08-15T04:22:34.945Z,1,GR86-065-5,-3.1,0.265,0.039,100.16,1.0,,0.0,0.0,
2025-08-15T04:22:34.988Z,1,GR86-065-5,-1.5,0.286,0.028,100.17,1.0,,0.0,0.0,
2025-08-15T04:22:35.031Z,1,GR86-065-5,-0.4,0.326,0.042,100.19,1.0,,0.0,0.0,
2025-08-15T04:22:35.074Z,1,GR86-065-5,-0.3,0.37,0.062,100.17,1.0,5995.0,0.0,0.0,
2025-08-15T04:22:35.117Z,1,GR86-065-5,-0.3,0.378,0.065,100.14,1.0,,0.0,0.0,78.2
2025-08-15T04:22:35.160Z,1,GR86-065-5,-1.5,0.351,0.054,100.16,1.0,,0.0,0.0,
2025-08-15T04:22:35.204Z,1,GR86-065-5,-1.7000000000000002,0.298,0.035,100.11,1.0,,0.0,0.0,
2025-08-15T04:22:35.247Z,1,GR86-065-5,-1.7000000000000002,0.3,0.017,100.09,1.0,,0.0,0.0,
2025-08-15T04:22:35.290Z,1,GR86-065-5,-1.7000000000000002,0.305,0.01,100.07,1.0,6020.0,0.0,0.0,
2025-08-15T04:22:35.332Z,1,GR86-065-5,-1.6,0.341,0.024,100.07,1.0,,0.0,0.0,80.33
2025-08-15T04:22:35.376Z,1,GR86-065-5,-1.6,0.353,0.016,100.01,1.0,,0.0,0.0,
2025-08-15T04:22:35.419Z,1,GR86-065-5,-3.1,0.351,0.014,100.03,1.0,,0.0,0.0,
2025-08-15T04:22:35.462Z,1,GR86-065-5,-3.8,0.302,-0.018,100.02,1.0,,0.0,0.0,
2025-08-15T04:22:35.505Z,1,GR86-065-5,-3.8,0.311,-0.039,99.98,1.0,6215.0,0.0,0.0,
2025-08-15T04:22:35.548Z,1,GR86-065-5,-3.8,0.305,-0.036,100.0,1.0,,0.0,0.0,84.8
2025-08-15T04:22:35.591Z,1,GR86-065-5,-3.8,0.334,-0.026,99.97,1.0,,0.0,0.0,
2025-08-15T04:22:35.634Z,1,GR86-065-5,-3.8,0.33,-0.02,99.98,1.0,,0.0,0.0,
2025-08-15T04:22:35.677Z,1,GR86-065-5,-3.8,0.348,-0.026,100.01,1.0,,0.0,0.0,
2025-08-15T04:22:35.720Z,1,GR86-065-5,-3.8,0.307,-0.003,100.01,1.0,6415.0,0.0,0.0,
2025-08-15T04:22:35.765Z,1,GR86-065-5,-3.6,0.314,0.002,99.97,1.0,,0.0,0.0,86.95
2025-08-15T04:22:35.808Z,1,GR86-065-5,-1.4,0.305,0.017,99.97,1.0,,0.0,0.0,
2025-08-15T04:22:35.851Z,1,GR86-065-5,0.6000000000000001,0.317,0.033,100.0,1.0,,0.0,0.0,
2025-08-15T04:22:35.894Z,1,GR86-065-5,1.6,0.32,0.079,100.03,1.0,,0.0,0.0,
2025-08-15T04:22:35.937Z,1,GR86-065-5,1.7000000000000002,0.333,0.087,100.02,1.0,6549.0,0.0,0.0,
2025-08-15T04:22:35.980Z,1,GR86-065-5,0.6000000000000001,0.337,0.11,99.98,1.0,,0.0,0.0,89.09
2025-08-15T04:22:36.022Z,1,GR86-065-5,-0.6000000000000001,0.307,0.095,99.98,1.0,,0.0,0.0,
2025-08-15T04:22:36.066Z,1,GR86-065-5,-1.3,0.325,0.075,99.98,1.0,,0.0,0.0,
2025-08-15T04:22:36.109Z,1,GR86-065-5,-1.4,0.303,0.061,99.99,1.0,,0.0,0.0,
2025-08-15T04:22:36.152Z,1,GR86-065-5,-1.4,0.327,0.015,99.98,1.0,6878.0,0.0,0.0,
2025-08-15T04:22:36.195Z,1,GR86-065-5,-2.3000000000000003,0.312,-0.003,99.97,1.0,,0.0,0.0,91.28
2025-08-15T04:22:36.238Z,1,GR86-065-5,-3.5,0.324,-0.041,100.0,1.0,,0.0,0.0,
2025-08-15T04:22:36.281Z,1,GR86-065-5,-3.8,0.314,-0.071,99.98,1.0,,0.0,0.0,
2025-08-15T04:22:36.325Z,1,GR86-065-5,-3.8,0.294,-0.077,99.98,1.0,,0.0,0.0,
2025-08-15T04:22:36.368Z,1,GR86-065-5,-3.8,0.318,-0.081,100.01,1.0,7028.0,0.0,0.0,
2025-08-15T04:22:36.411Z,1,GR86-065-5,-3.8,0.298,-0.049,100.01,1.0,,0.0,0.0,93.42
2025-08-15T04:22:36.454Z,1,GR86-065-5,-3.8,0.318,-0.071,100.01,1.0,,0.0,0.0,
2025-08-15T04:22:36.497Z,1,GR86-065-5,-3.9,0.278,-0.053,99.98,1.0,,0.0,0.0,
2025-08-15T04:22:36.542Z,1,GR86-065-5,-3.9,0.247,-0.071,99.99,1.0,,0.0,0.0,
2025-08-15T04:22:36.585Z,1,GR86-065-5,-3.9,0.231,-0.062,99.98,1.0,7189.0,0.0,0.0,
2025-08-15T04:22:36.628Z,1,GR86-065-5,-3.8,0.065,-0.047,99.99,2.0,,0.0,0.0,95.58
2025-08-15T04:22:36.671Z,1,GR86-065-5,-1.7000000000000002,-0.056,-0.007,99.97,2.0,,0.0,0.0,
2025-08-15T04:22:36.714Z,1,GR86-065-5,-0.6000000000000001,0.887,0.003,99.98,2.0,,0.0,0.0,
2025-08-15T04:22:36.757Z,1,GR86-065-5,-0.4,0.509,-0.06,99.97,2.0,,0.0,0.0,
2025-08-15T04:22:36.800Z,1,GR86-065-5,-0.4,0.45,0.127,99.96,2.0,7299.0,0.0,0.0,
2025-08-15T04:22:36.844Z,1,GR86-065-5,-0.4,0.171,0.057,99.99,2.0,,0.0,0.0,97.68
2025-08-15T04:22:36.887Z,1,GR86-065-5,-0.4,0.061,0.132,100.0,2.0,,0.0,0.0,
2025-08-15T04:22:36.930Z,1,GR86-065-5,-0.4,0.134,0.147,100.0,2.0,,0.0,0.0,
2025-08-15T04:22:36.972Z,1,GR86-065-5,-0.4,0.299,0.075,100.0,2.0,,0.0,0.0,
2025-08-15T04:22:37.016Z,1,GR86-065-5,-0.4,0.41,0.134,100.01,2.0,6314.0,0.0,0.0,
2025-08-15T04:22:37.058Z,1,GR86-065-5,-0.4,0.356,0.061,100.01,2.0,,0.0,0.0,99.4
2025-08-15T04:22:37.102Z,1,GR86-065-5,-0.4,0.195,0.073,100.0,2.0,,0.0,0.0,
2025-08-15T04:22:37.145Z,1,GR86-065-5,-0.4,0.198,0.055,99.99,2.0,,0.0,0.0,
2025-08-15T04:22:37.188Z,1,GR86-065-5,-0.4,0.231,0.061,100.01,2.0,,0.0,0.0,
2025-08-15T04:22:37.231Z,1,GR86-065-5,-0.4,0.314,0.045,100.04,2.0,6008.0,0.0,0.0,
2025-08-15T04:22:37.274Z,1,GR86-065-5,-0.4,0.297,0.067,100.03,2.0,,0.0,0.0,101.96
2025-08-15T04:22:37.317Z,1,GR86-065-5,-0.4,0.283,0.047,100.03,2.0,,0.0,0.0,
2025-08-15T04:22:37.360Z,1,GR86-065-5,2.8000000000000003,0.237,0.072,100.02,2.0,,0.0,0.0,
2025-08-15T04:22:37.402Z,1,GR86-065-5,7.0,0.212,0.114,100.01,2.0,,0.0,0.0,
2025-08-15T04:22:37.446Z,1,GR86-065-5,9.1,0.27,0.158,99.99,2.0,5963.0,0.0,0.0,
2025-08-15T04:22:37.488Z,1,GR86-065-5,9.1,0.277,0.221,99.98,2.0,,0.0,0.0,103.74
2025-08-15T04:22:37.532Z,1,GR86-065-5,7.800000000000001,0.258,0.24,99.99,2.0,,0.0,0.0,
2025-08-15T04:22:37.575Z,1,GR86-065-5,4.0,0.259,0.229,100.02,2.0,,0.0,0.0,
2025-08-15T04:22:37.618Z,1,GR86-065-5,3.0,0.229,0.211,99.99,2.0,,0.0,0.0,
2025-08-15T04:22:37.661Z,1,GR86-065-5,3.0,0.24,0.162,100.0,2.0,6046.0,0.0,0.0,
2025-08-15T04:22:37.704Z,1,GR86-065-5,3.0,0.261,0.139,100.01,2.0,,0.0,0.0,105.47
2025-08-15T04:22:37.747Z,1,GR86-065-5,-0.9,0.244,0.119,99.99,2.0,,0.0,0.0,
2025-08-15T04:22:37.790Z,1,GR86-065-5,-5.6000000000000005,0.262,0.022,100.0,2.0,,0.0,0.0,
2025-08-15T04:22:37.832Z,1,GR86-065-5,-9.0,0.262,-0.031,100.02,2.0,,0.0,0.0,
2025-08-15T04:22:37.876Z,1,GR86-065-5,-9.9,0.223,-0.12,100.0,2.0,6181.0,0.0,0.0,
2025-08-15T04:22:37.919Z,1,GR86-065-5,-9.9,0.255,-0.171,99.98,2.0,,0.0,0.0,107.13
2025-08-15T04:22:37.962Z,1,GR86-065-5,-9.9,0.262,-0.195,100.01,2.0,,0.0,0.0,
2025-08-15T04:22:38.005Z,1,GR86-065-5,-9.9,0.227,-0.23,100.0,2.0,,0.0,0.0,
2025-08-15T04:22:38.048Z,1,GR86-065-5,-9.9,0.236,-0.251,100.0,2.0,,0.0,0.0,
2025-08-15T04:22:38.091Z,1,GR86-065-5,-9.9,0.256,-0.259,99.97,2.0,6280.0,0.0,0.0,
2025-08-15T04:22:38.135Z,1,GR86-065-5,-7.4,0.226,-0.251,100.01,2.0,,0.0,0.0,108.77
2025-08-15T04:22:38.178Z,1,GR86-065-5,-4.6000000000000005,0.235,-0.194,99.98,2.0,,0.0,0.0,
2025-08-15T04:22:38.222Z,1,GR86-065-5,-4.6000000000000005,0.077,-0.163,100.0,2.0,,0.0,0.0,
2025-08-15T04:22:38.265Z,1,GR86-065-5,-9.4,0.042,-0.167,100.04,2.0,,0.0,0.0,
2025-08-15T04:22:38.308Z,1,GR86-065-5,-14.5,0.124,-0.235,99.98,2.0,6378.0,0.0,0.0,
2025-08-15T04:22:38.352Z,1,GR86-065-5,-16.7,0.163,-0.293,100.01,2.0,,0.0,0.0,112.13
2025-08-15T04:22:38.395Z,1,GR86-065-5,-16.900000000000002,0.177,-0.319,99.99,2.0,,0.0,0.0,
2025-08-15T04:22:38.438Z,1,GR86-065-5,-16.900000000000002,0.237,-0.37,100.03,2.0,,0.0,0.0,
2025-08-15T04:22:38.481Z,1,GR86-065-5,-9.7,0.268,-0.234,100.03,2.0,,0.0,0.0,
2025-08-15T04:22:38.525Z,1,GR86-065-5,-5.2,0.22,-0.135,99.99,2.0,6474.0,0.0,0.0,
2025-08-15T04:22:38.568Z,1,GR86-065-5,-4.3,0.167,-0.031,100.03,2.0,,0.0,0.0,113.57
2025-08-15T04:22:38.611Z,1,GR86-065-5,-4.3,0.224,0.072,99.98,2.0,,0.0,0.0,
2025-08-15T04:22:38.654Z,1,GR86-065-5,-5.7,0.269,0.163,99.97,2.0,,0.0,0.0,
2025-08-15T04:22:38.697Z,1,GR86-065-5,-11.4,0.25,0.174,100.0,2.0,,0.0,0.0,
2025-08-15T04:22:38.742Z,1,GR86-065-5,-19.3,0.26,0.165,100.03,2.0,6622.0,0.0,0.0,
2025-08-15T04:22:38.785Z,1,GR86-065-5,-20.6,0.272,0.127,100.02,2.0,,0.0,0.0,114.55
2025-08-15T04:22:38.828Z,1,GR86-065-5,-20.700000000000003,0.237,0.087,100.0,2.0,,0.0,0.0,
2025-08-15T04:22:38.871Z,1,GR86-065-5,-15.0,0.231,0.066,100.0,2.0,,0.0,0.0,
2025-08-15T04:22:38.914Z,1,GR86-065-5,-6.800000000000001,0.229,0.152,100.04,2.0,,0.0,0.0,
2025-08-15T04:22:38.957Z,1,GR86-065-5,-1.4,0.193,0.19,100.02,2.0,6689.0,0.0,0.0,
2025-08-15T04:22:39.000Z,1,GR86-065-5,0.3,0.274,0.385,99.99,2.0,,0.0,0.0,116.03
2025-08-15T04:22:39.042Z,1,GR86-065-5,0.3,0.253,0.423,100.03,2.0,,0.0,0.0,
2025-08-15T04:22:39.086Z,1,GR86-065-5,-3.1,0.112,0.512,100.02,2.0,,0.0,0.0,
2025-08-15T04:22:39.128Z,1,GR86-065-5,-11.3,0.271,0.471,100.03,2.0,,0.0,0.0,
