timestamp,lap,vehicle_id,steering_angle,accx_can,accy_can,ath,gear,nmot,pbrake_f,pbrake_r,speed
2025-08-15T05:04:53.321Z,17,GR86-065-5,-2.2,0.149,0.095,99.83,4.0,,0.0,0.0,
2025-08-15T05:04:53.364Z,17,GR86-065-5,-2.2,0.13,0.09,99.85,4.0,,0.0,0.0,
2025-08-15T05:04:53.407Z,17,GR86-065-5,-2.2,0.114,0.054,99.83,4.0,7151.0,0.0,0.0,
2025-08-15T05:04:53.450Z,17,GR86-065-5,-2.2,0.126,0.049,99.82,4.0,,0.0,0.0,181.9
2025-08-15T05:04:53.493Z,17,GR86-065-5,-2.2,0.124,0.029,99.83,4.0,,0.0,0.0,
2025-08-15T05:04:53.536Z,17,GR86-065-5,-2.2,0.133,0.057,99.82,4.0,,0.0,0.0,
2025-08-15T05:04:53.579Z,17,GR86-065-5,-2.2,0.122,0.051,99.84,4.0,,0.0,0.0,
2025-08-15T05:04:53.622Z,17,GR86-065-5,-2.2,0.09,0.046,99.83,4.0,7177.0,0.0,0.0,
2025-08-15T05:04:53.665Z,17,GR86-065-5,-2.2,0.076,0.033,99.83,4.0,,0.0,0.0,182.72
2025-08-15T05:04:53.708Z,17,GR86-065-5,-2.2,0.084,0.043,99.81,4.0,,0.0,0.0,
2025-08-15T05:04:53.751Z,17,GR86-065-5,-2.2,0.083,0.033,99.83,4.0,,0.0,0.0,
2025-08-15T05:04:53.794Z,17,GR86-065-5,-2.2,0.086,0.044,99.83,4.0,,0.0,0.0,
2025-08-15T05:04:53.837Z,17,GR86-065-5,-2.2,0.083,0.051,99.82,4.0,7205.0,0.0,0.0,
2025-08-15T05:04:53.880Z,17,GR86-065-5,-2.2,0.107,0.047,99.85,4.0,,0.0,0.0,183.41
2025-08-15T05:04:53.923Z,17,GR86-065-5,-2.2,0.122,0.04,99.82,4.0,,0.0,0.0,
2025-08-15T05:04:53.966Z,17,GR86-065-5,-2.2,0.122,0.037,99.83,4.0,,0.0,0.0,
2025-08-15T05:04:54.009Z,17,GR86-065-5,-2.2,0.105,0.054,99.81,4.0,,0.0,0.0,
2025-08-15T05:04:54.052Z,17,GR86-065-5,-2.2,0.11,0.026,99.84,4.0,7234.0,0.0,0.0,
2025-08-15T05:04:54.095Z,17,GR86-065-5,-2.2,0.117,0.047,99.82,4.0,,0.0,0.0,184.08
2025-08-15T05:04:54.138Z,17,GR86-065-5,-2.2,0.098,0.022,99.82,4.0,,0.0,0.0,
2025-08-15T05:04:54.181Z,17,GR86-065-5,-2.2,-0.129,0.056,99.82,5.0,,0.0,0.0,
2025-08-15T05:04:54.225Z,17,GR86-065-5,-2.2,0.425,0.018,99.81,5.0,,0.0,0.0,
2025-08-15T05:04:54.268Z,17,GR86-065-5,-2.2,0.176,-0.034,99.83,5.0,7256.0,0.0,0.0,
2025-08-15T05:04:54.311Z,17,GR86-065-5,-2.2,0.011,0.054,99.82,5.0,,0.0,0.0,184.9
2025-08-15T05:04:54.354Z,17,GR86-065-5,-2.2,-0.01,0.037,99.83,5.0,,0.0,0.0,
2025-08-15T05:04:54.397Z,17,GR86-065-5,-2.2,0.122,-0.012,99.83,5.0,,0.0,0.0,
2025-08-15T05:04:54.441Z,17,GR86-065-5,-2.2,0.109,0.037,99.82,5.0,,0.0,0.0,
2025-08-15T05:04:54.485Z,17,GR86-065-5,-2.2,0.04,-0.021,99.84,5.0,7128.0,0.0,0.0,
2025-08-15T05:04:54.528Z,17,GR86-065-5,-2.2,0.036,-0.002,99.83,5.0,,0.0,0.0,185.62
2025-08-15T05:04:54.571Z,17,GR86-065-5,-2.2,0.075,-0.004,99.82,5.0,,0.0,0.0,
2025-08-15T05:04:54.615Z,17,GR86-065-5,-2.2,0.076,-0.002,99.82,5.0,,0.0,0.0,
2025-08-15T05:04:54.658Z,17,GR86-065-5,-2.2,0.048,0.026,99.82,5.0,,0.0,0.0,
2025-08-15T05:04:54.702Z,17,GR86-065-5,-2.2,0.104,0.01,99.81,5.0,6296.0,0.0,0.0,
2025-08-15T05:04:54.745Z,17,GR86-065-5,-2.2,0.107,-0.001,99.83,5.0,,0.0,0.0,187.11
2025-08-15T05:04:54.788Z,17,GR86-065-5,-2.2,0.1,0.024,99.83,5.0,,0.0,0.0,
2025-08-15T05:04:54.831Z,17,GR86-065-5,-2.2,0.094,0.022,99.82,5.0,,0.0,0.0,
2025-08-15T05:04:54.874Z,17,GR86-065-5,-2.2,0.088,0.029,99.82,5.0,,0.0,0.0,
2025-08-15T05:04:54.917Z,17,GR86-065-5,-2.2,0.081,0.033,99.82,5.0,6379.0,0.0,0.0,
2025-08-15T05:04:54.960Z,17,GR86-065-5,-2.2,0.064,0.018,99.83,5.0,,0.0,0.0,187.67
2025-08-15T05:04:55.004Z,17,GR86-065-5,-2.2,0.07,0.019,99.82,5.0,,0.0,0.0,
2025-08-15T05:04:55.047Z,17,GR86-065-5,-2.2,0.075,0.038,99.82,5.0,,0.0,0.0,
2025-08-15T05:04:55.090Z,17,GR86-065-5,-2.2,0.087,0.058,99.84,5.0,,0.0,0.0,
2025-08-15T05:04:55.133Z,17,GR86-065-5,-2.2,0.102,0.051,99.82,5.0,6376.0,0.0,0.0,
2025-08-15T05:04:55.176Z,17,GR86-065-5,-2.2,0.111,0.048,99.81,5.0,,0.0,0.0,188.3
2025-08-15T05:04:55.262Z,17,GR86-065-5,-2.2,0.046,0.05,99.83,5.0,,0.0,0.0,
2025-08-15T05:04:55.305Z,17,GR86-065-5,-2.2,0.051,0.03,99.82,5.0,,0.0,0.0,
2025-08-15T05:04:55.348Z,17,GR86-065-5,-2.2,0.047,0.041,99.83,5.0,6425.0,0.0,0.0,
2025-08-15T05:04:55.391Z,17,GR86-065-5,-2.2,0.067,0.054,99.84,5.0,,0.0,0.0,188.95
2025-08-15T05:04:55.434Z,17,GR86-065-5,-2.2,0.075,0.062,99.83,5.0,,0.0,0.0,
2025-08-15T05:04:55.477Z,17,GR86-065-5,-2.2,0.079,0.061,99.82,5.0,,0.0,0.0,
2025-08-15T05:04:55.520Z,17,GR86-065-5,-2.2,0.077,0.046,99.84,5.0,,0.0,0.0,
2025-08-15T05:04:55.563Z,17,GR86-065-5,-2.2,0.067,0.047,99.81,5.0,6441.0,0.0,0.0,
2025-08-15T05:04:55.606Z,17,GR86-065-5,-2.2,0.053,0.059,99.84,5.0,,0.0,0.0,189.52
2025-08-15T05:04:55.649Z,17,GR86-065-5,-2.2,0.051,0.05,99.82,5.0,,0.0,0.0,
2025-08-15T05:04:55.692Z,17,GR86-065-5,-2.2,0.05,0.052,99.82,5.0,,0.0,0.0,
2025-08-15T05:04:55.735Z,17,GR86-065-5,-2.2,0.052,0.041,99.82,5.0,,0.0,0.0,
2025-08-15T05:04:55.778Z,17,GR86-065-5,-2.2,0.05,0.055,99.82,5.0,6463.0,0.0,0.0,
2025-08-15T05:04:55.821Z,17,GR86-065-5,-2.2,0.096,0.044,99.82,5.0,,0.0,0.0,190.13
2025-08-15T05:04:55.864Z,17,GR86-065-5,-2.2,0.09,0.024,99.82,5.0,,0.0,0.0,
2025-08-15T05:04:55.907Z,17,GR86-065-5,-2.2,0.06,0.021,99.81,5.0,,0.0,0.0,
2025-08-15T05:04:55.950Z,17,GR86-065-5,-2.2,0.058,0.012,99.82,5.0,,0.0,0.0,
2025-08-15T05:04:55.993Z,17,GR86-065-5,-2.2,0.063,0.012,99.82,5.0,6486.0,0.0,0.0,
2025-08-15T05:04:56.036Z,17,GR86-065-5,-2.2,0.045,0.017,99.82,5.0,,0.0,0.0,190.75
2025-08-15T05:04:56.079Z,17,GR86-065-5,-2.2,0.036,0.003,99.83,5.0,,0.0,0.0,
2025-08-15T05:04:56.122Z,17,GR86-065-5,-2.2,0.084,0.012,99.83,5.0,,0.0,0.0,
2025-08-15T05:04:56.165Z,17,GR86-065-5,-2.2,0.091,-0.015,99.82,5.0,,0.0,0.0,
2025-08-15T05:04:56.208Z,17,GR86-065-5,-2.2,0.086,-0.007,99.82,5.0,6513.0,0.0,0.0,
2025-08-15T05:04:56.251Z,17,GR86-065-5,-2.2,0.097,0.008,99.82,5.0,,0.0,0.0,191.37
2025-08-15T05:04:56.294Z,17,GR86-065-5,-2.2,0.071,-0.007,99.82,5.0,,0.0,0.0,
2025-08-15T05:04:56.337Z,17,GR86-065-5,-2.2,0.055,-0.017,99.82,5.0,,0.0,0.0,
2025-08-15T05:04:56.380Z,17,GR86-065-5,-2.2,0.089,-0.018,99.82,5.0,,0.0,0.0,
2025-08-15T05:04:56.423Z,17,GR86-065-5,-2.2,0.089,-0.001,99.8,5.0,6525.0,0.0,0.0,
2025-08-15T05:04:56.466Z,17,GR86-065-5,-2.2,0.09,0.007,99.81,5.0,,0.0,0.0,191.98
2025-08-15T05:04:56.508Z,17,GR86-065-5,-2.2,0.075,-0.016,99.82,5.0,,0.0,0.0,
2025-08-15T05:04:56.552Z,17,GR86-065-5,-2.2,0.074,-0.023,99.82,5.0,,0.0,0.0,
2025-08-15T05:04:56.595Z,17,GR86-065-5,-2.2,0.074,-0.028,99.8,5.0,,0.0,0.0,
2025-08-15T05:04:56.638Z,17,GR86-065-5,-2.2,0.057,-0.029,99.81,5.0,6539.0,0.0,0.0,
2025-08-15T05:04:56.681Z,17,GR86-065-5,-2.2,0.077,-0.029,99.82,5.0,,0.0,0.0,192.55
2025-08-15T05:04:56.724Z,17,GR86-065-5,-2.2,0.093,-0.023,99.82,5.0,,0.0,0.0,
2025-08-15T05:04:56.767Z,17,GR86-065-5,-2.2,0.099,-0.004,99.82,5.0,,0.0,0.0,
2025-08-15T05:04:56.810Z,17,GR86-065-5,-2.2,0.056,-0.011,99.82,5.0,,0.0,0.0,
2025-08-15T05:04:56.853Z,17,GR86-065-5,-2.2,0.102,-0.022,99.81,5.0,6562.0,0.0,0.0,
2025-08-15T05:04:56.897Z,17,GR86-065-5,-2.2,0.087,-0.023,99.82,5.0,,0.0,0.0,193.15
2025-08-15T05:04:56.942Z,17,GR86-065-5,-2.2,0.054,-0.013,99.81,5.0,,0.0,0.0,
2025-08-15T05:04:56.985Z,17,GR86-065-5,-2.2,0.081,-0.022,99.82,5.0,,0.0,0.0,
2025-08-15T05:04:57.028Z,17,GR86-065-5,-2.2,0.083,0.001,99.82,5.0,,0.0,0.0,
2025-08-15T05:04:57.071Z,17,GR86-065-5,-2.2,0.093,0.006,99.82,5.0,6583.0,0.0,0.0,
2025-08-15T05:04:57.114Z,17,GR86-065-5,-2.2,0.095,-0.004,99.82,5.0,,0.0,0.0,193.58
2025-08-15T05:04:57.157Z,17,GR86-065-5,-2.2,0.066,-0.015,99.82,5.0,,0.0,0.0,
2025-08-15T05:04:57.200Z,17,GR86-065-5,-2.2,0.057,-0.033,99.82,5.0,,0.0,0.0,
2025-08-15T05:04:57.244Z,17,GR86-065-5,-2.2,0.081,0.009,99.82,5.0,,0.0,0.0,
2025-08-15T05:04:57.287Z,17,GR86-065-5,-2.3000000000000003,0.073,-0.016,99.83,5.0,6599.0,0.0,0.0,
2025-08-15T05:04:57.330Z,17,GR86-065-5,-2.5,0.112,-0.021,99.82,5.0,,0.0,0.0,194.09
2025-08-15T05:04:57.373Z,17,GR86-065-5,-2.5,0.087,-0.066,99.82,5.0,,0.0,0.0,
2025-08-15T05:04:57.416Z,17,GR86-065-5,-2.5,0.067,-0.075,99.8,5.0,,0.0,0.0,
2025-08-15T05:04:57.458Z,17,GR86-065-5,-2.5,0.054,-0.073,99.82,5.0,,0.0,0.0,
2025-08-15T05:04:57.502Z,17,GR86-065-5,-2.9000000000000004,0.078,-0.085,99.81,5.0,6621.0,0.0,0.0,
2025-08-15T05:04:57.545Z,17,GR86-065-5,-2.9000000000000004,0.085,-0.093,99.82,5.0,,0.0,0.0,195.35
2025-08-15T05:04:57.588Z,17,GR86-065-5,-2.9000000000000004,0.084,-0.107,99.82,5.0,,0.0,0.0,
2025-08-15T05:04:57.631Z,17,GR86-065-5,-2.9000000000000004,0.087,-0.095,99.81,5.0,,0.0,0.0,
2025-08-15T05:04:57.674Z,17,GR86-065-5,-2.9000000000000004,0.086,-0.102,99.82,5.0,,0.0,0.0,
2025-08-15T05:04:57.717Z,17,GR86-065-5,-2.9000000000000004,0.053,-0.101,99.81,5.0,6643.0,0.0,0.0,
2025-08-15T05:04:57.760Z,17,GR86-065-5,-3.0,0.074,-0.109,99.81,5.0,,0.0,0.0,196.06
2025-08-15T05:04:57.803Z,17,GR86-065-5,-3.0,0.089,-0.133,99.82,5.0,,0.0,0.0,
2025-08-15T05:04:57.846Z,17,GR86-065-5,-3.0,0.071,-0.141,99.81,5.0,,0.0,0.0,
2025-08-15T05:04:57.889Z,17,GR86-065-5,-3.0,0.084,-0.132,99.82,5.0,,0.0,0.0,
2025-08-15T05:04:57.932Z,17,GR86-065-5,-3.0,0.084,-0.094,99.82,5.0,6659.0,0.0,0.0,
2025-08-15T05:04:57.975Z,17,GR86-065-5,-3.0,0.051,-0.083,99.82,5.0,,0.0,0.0,196.53
2025-08-15T05:04:58.018Z,17,GR86-065-5,-3.0,0.041,-0.076,99.82,5.0,,0.0,0.0,
2025-08-15T05:04:58.061Z,17,GR86-065-5,-3.0,0.089,-0.053,99.82,5.0,,0.0,0.0,
2025-08-15T05:04:58.104Z,17,GR86-065-5,-3.0,0.074,-0.04,99.82,5.0,,0.0,0.0,
2025-08-15T05:04:58.147Z,17,GR86-065-5,-3.0,0.076,-0.054,99.81,5.0,6699.0,0.0,0.0,
2025-08-15T05:04:58.190Z,17,GR86-065-5,-3.0,0.062,-0.052,99.82,5.0,,0.0,0.0,197.31
2025-08-15T05:04:58.233Z,17,GR86-065-5,-3.0,0.041,-0.062,99.82,5.0,,0.0,0.0,
2025-08-15T05:04:58.276Z,17,GR86-065-5,-3.0,0.034,-0.054,99.81,5.0,,0.0,0.0,
2025-08-15T05:04:58.319Z,17,GR86-065-5,-3.0,0.043,-0.09,99.82,5.0,,0.0,0.0,
2025-08-15T05:04:58.362Z,17,GR86-065-5,-3.0,0.073,-0.084,99.82,5.0,6725.0,0.0,0.0,
2025-08-15T05:04:58.405Z,17,GR86-065-5,-3.0,0.066,-0.091,99.82,5.0,,0.0,0.0,197.8
2025-08-15T05:04:58.448Z,17,GR86-065-5,-3.6,0.036,-0.087,99.81,5.0,,0.0,0.0,
2025-08-15T05:04:58.491Z,17,GR86-065-5,-3.9,0.039,-0.093,99.82,5.0,,0.0,0.0,
2025-08-15T05:04:58.534Z,17,GR86-065-5,-4.0,0.057,-0.105,99.82,5.0,,0.0,0.0,
2025-08-15T05:04:58.577Z,17,GR86-065-5,-4.0,0.034,-0.113,99.81,5.0,6742.0,0.0,0.0,
2025-08-15T05:04:58.622Z,17,GR86-065-5,-4.0,0.06,-0.149,99.82,5.0,,0.0,0.0,198.57
2025-08-15T05:04:58.665Z,17,GR86-065-5,-4.0,0.061,-0.137,99.82,5.0,,0.0,0.0,
2025-08-15T05:04:58.708Z,17,GR86-065-5,-4.0,0.03,-0.148,99.8,5.0,,0.0,0.0,
2025-08-15T05:04:58.752Z,17,GR86-065-5,-4.0,0.045,-0.164,99.79,5.0,,0.0,0.0,
2025-08-15T05:04:58.795Z,17,GR86-065-5,-4.0,0.045,-0.156,99.82,5.0,6757.0,0.0,0.0,
2025-08-15T05:04:58.838Z,17,GR86-065-5,-4.1000000000000005,0.063,-0.124,99.82,5.0,,0.0,0.0,199.0
2025-08-15T05:04:58.881Z,17,GR86-065-5,-4.1000000000000005,0.048,-0.102,99.82,5.0,,0.0,0.0,
2025-08-15T05:04:58.924Z,17,GR86-065-5,-4.1000000000000005,0.045,-0.101,99.82,5.0,,0.0,0.0,
2025-08-15T05:04:58.968Z,17,GR86-065-5,-4.1000000000000005,0.044,-0.114,99.81,5.0,,0.0,0.0,
2025-08-15T05:04:59.011Z,17,GR86-065-5,-4.1000000000000005,0.04,-0.113,99.8,5.0,6789.0,0.0,0.0,
2025-08-15T05:04:59.054Z,17,GR86-065-5,-4.1000000000000005,0.077,-0.11,99.81,5.0,,0.0,0.0,199.71
2025-08-15T05:04:59.097Z,17,GR86-065-5,-4.1000000000000005,0.054,-0.075,99.83,5.0,,0.0,0.0,
2025-08-15T05:04:59.142Z,17,GR86-065-5,-4.1000000000000005,0.051,-0.063,99.79,5.0,,0.0,0.0,
2025-08-15T05:04:59.228Z,17,GR86-065-5,-4.1000000000000005,0.068,-0.039,99.83,5.0,6805.0,0.0,0.0,
2025-08-15T05:04:59.314Z,17,GR86-065-5,-4.1000000000000005,0.059,-0.033,99.81,5.0,,0.0,0.0,
2025-08-15T05:04:59.357Z,17,GR86-065-5,-4.1000000000000005,0.068,-0.019,99.82,5.0,,0.0,0.0,200.14
2025-08-15T05:04:59.400Z,17,GR86-065-5,-4.1000000000000005,0.063,-0.019,99.81,5.0,,0.0,0.0,
2025-08-15T05:04:59.443Z,17,GR86-065-5,-4.1000000000000005,0.06,-0.053,99.81,5.0,6814.0,0.0,0.0,
2025-08-15T05:04:59.486Z,17,GR86-065-5,-4.1000000000000005,0.066,-0.04,99.82,5.0,,0.0,0.0,200.83
2025-08-15T05:04:59.529Z,17,GR86-065-5,-4.1000000000000005,0.054,-0.031,99.82,5.0,,0.0,0.0,
2025-08-15T05:04:59.572Z,17,GR86-065-5,-4.1000000000000005,0.062,-0.041,99.82,5.0,,0.0,0.0,
2025-08-15T05:04:59.615Z,17,GR86-065-5,-4.1000000000000005,0.073,-0.043,99.82,5.0,,0.0,0.0,
2025-08-15T05:04:59.658Z,17,GR86-065-5,-4.1000000000000005,0.063,-0.025,99.81,5.0,6854.0,0.0,0.0,
2025-08-15T05:04:59.701Z,17,GR86-065-5,-4.1000000000000005,0.058,0.009,99.82,5.0,,0.0,0.0,201.22
2025-08-15T05:04:59.745Z,17,GR86-065-5,-4.1000000000000005,0.079,0.007,99.82,5.0,,0.0,0.0,
2025-08-15T05:04:59.788Z,17,GR86-065-5,-4.1000000000000005,0.066,0.018,99.82,5.0,,0.0,0.0,
2025-08-15T05:04:59.831Z,17,GR86-065-5,-4.1000000000000005,0.085,0.044,99.82,5.0,,0.0,0.0,
2025-08-15T05:04:59.874Z,17,GR86-065-5,-4.1000000000000005,0.065,0.047,99.82,5.0,6857.0,0.0,0.0,
2025-08-15T05:04:59.917Z,17,GR86-065-5,-4.1000000000000005,0.049,0.03,99.82,5.0,,0.0,0.0,201.81
2025-08-15T05:04:59.960Z,17,GR86-065-5,-4.1000000000000005,0.076,0.039,99.83,5.0,,0.0,0.0,
2025-08-15T05:05:00.003Z,17,GR86-065-5,-4.1000000000000005,0.036,0.017,99.82,5.0,,0.0,0.0,
2025-08-15T05:05:00.047Z,17,GR86-065-5,-4.1000000000000005,0.057,0.02,99.81,5.0,,0.0,0.0,
2025-08-15T05:05:00.090Z,17,GR86-065-5,-4.1000000000000005,0.044,0.04,99.82,5.0,6880.0,0.0,0.0,
2025-08-15T05:05:00.133Z,17,GR86-065-5,-4.1000000000000005,0.034,0.031,99.82,5.0,,0.0,0.0,202.28
2025-08-15T05:05:00.176Z,17,GR86-065-5,-4.1000000000000005,0.072,0.056,99.82,5.0,,0.0,0.0,
2025-08-15T05:05:00.262Z,17,GR86-065-5,-4.1000000000000005,0.053,0.028,99.82,5.0,,0.0,0.0,
2025-08-15T05:05:00.305Z,17,GR86-065-5,-4.1000000000000005,0.05,-0.002,99.82,5.0,6897.0,0.0,0.0,
2025-08-15T05:05:00.348Z,17,GR86-065-5,-4.1000000000000005,0.044,0.011,99.82,5.0,,0.0,0.0,203.39
2025-08-15T05:05:00.391Z,17,GR86-065-5,-4.1000000000000005,0.048,0.008,99.82,5.0,,0.0,0.0,
2025-08-15T05:05:00.434Z,17,GR86-065-5,-4.1000000000000005,0.041,-0.002,99.82,5.0,,0.0,0.0,
2025-08-15T05:05:00.477Z,17,GR86-065-5,-4.1000000000000005,0.072,-0.012,99.83,5.0,,0.0,0.0,
2025-08-15T05:05:00.520Z,17,GR86-065-5,-4.1000000000000005,0.054,0.007,99.82,5.0,6909.0,0.0,0.0,
2025-08-15T05:05:00.563Z,17,GR86-065-5,-4.1000000000000005,0.044,-0.005,99.81,5.0,,0.0,0.0,203.81
2025-08-15T05:05:00.606Z,17,GR86-065-5,-4.1000000000000005,0.073,-0.005,99.82,5.0,,0.0,0.0,
2025-08-15T05:05:00.649Z,17,GR86-065-5,-4.1000000000000005,0.054,0.007,99.81,5.0,,0.0,0.0,
2025-08-15T05:05:00.692Z,17,GR86-065-5,-4.1000000000000005,0.092,0.015,99.82,5.0,,0.0,0.0,
2025-08-15T05:05:00.735Z,17,GR86-065-5,-4.1000000000000005,0.036,-0.008,99.82,5.0,6927.0,0.0,0.0,
2025-08-15T05:05:00.778Z,17,GR86-065-5,-4.1000000000000005,0.041,-0.019,99.82,5.0,,0.0,0.0,204.34
2025-08-15T05:05:00.821Z,17,GR86-065-5,-4.1000000000000005,0.076,-0.012,99.79,5.0,,0.0,0.0,
2025-08-15T05:05:00.864Z,17,GR86-065-5,-4.1000000000000005,0.043,0.0,99.83,5.0,,0.0,0.0,
2025-08-15T05:05:00.907Z,17,GR86-065-5,-4.1000000000000005,0.009,-0.018,99.82,5.0,,0.0,0.0,
2025-08-15T05:05:00.950Z,17,GR86-065-5,-4.1000000000000005,0.036,0.003,99.81,5.0,6964.0,0.0,0.0,
2025-08-15T05:05:00.993Z,17,GR86-065-5,-4.1000000000000005,0.012,0.009,99.83,5.0,,0.0,0.0,204.75
2025-08-15T05:05:01.036Z,17,GR86-065-5,-4.1000000000000005,0.024,0.016,99.82,5.0,,0.0,0.0,
2025-08-15T05:05:01.079Z,17,GR86-065-5,-4.1000000000000005,0.048,0.005,99.81,5.0,,0.0,0.0,
2025-08-15T05:05:01.122Z,17,GR86-065-5,-4.1000000000000005,0.02,-0.005,99.79,5.0,,0.0,0.0,
2025-08-15T05:05:01.165Z,17,GR86-065-5,-4.1000000000000005,0.03,-0.028,99.78,5.0,6973.0,0.0,0.0,
2025-08-15T05:05:01.208Z,17,GR86-065-5,-4.1000000000000005,0.062,-0.028,99.82,5.0,,0.0,0.0,205.32
2025-08-15T05:05:01.251Z,17,GR86-065-5,-4.1000000000000005,0.048,0.004,99.79,5.0,,0.0,0.0,
2025-08-15T05:05:01.294Z,17,GR86-065-5,-4.1000000000000005,0.07,-0.006,99.79,5.0,,0.0,0.0,
2025-08-15T05:05:01.337Z,17,GR86-065-5,-4.1000000000000005,0.053,-0.033,99.82,5.0,,0.0,0.0,
2025-08-15T05:05:01.423Z,17,GR86-065-5,-4.1000000000000005,0.061,-0.04,99.82,5.0,6989.0,0.0,0.0,205.66
2025-08-15T05:05:01.466Z,17,GR86-065-5,-4.1000000000000005,0.06,-0.051,99.82,5.0,,0.0,0.0,
2025-08-15T05:05:01.509Z,17,GR86-065-5,-4.1000000000000005,0.042,-0.06,99.83,5.0,,0.0,0.0,
2025-08-15T05:05:01.552Z,17,GR86-065-5,-4.1000000000000005,0.03,-0.051,99.81,5.0,,0.0,0.0,
2025-08-15T05:05:01.595Z,17,GR86-065-5,-4.1000000000000005,0.005,-0.079,99.83,5.0,7000.0,0.0,0.0,
2025-08-15T05:05:01.638Z,17,GR86-065-5,-4.1000000000000005,0.051,-0.089,99.83,5.0,,0.0,0.0,206.08
2025-08-15T05:05:01.681Z,17,GR86-065-5,-4.1000000000000005,0.03,-0.052,99.81,5.0,,0.0,0.0,
2025-08-15T05:05:01.724Z,17,GR86-065-5,-4.1000000000000005,0.016,-0.048,99.78,5.0,,0.0,0.0,
2025-08-15T05:05:01.768Z,17,GR86-065-5,-4.1000000000000005,0.048,-0.048,99.8,5.0,,0.0,0.0,
2025-08-15T05:05:01.811Z,17,GR86-065-5,-4.1000000000000005,0.053,-0.037,99.79,5.0,7013.0,0.0,0.0,
2025-08-15T05:05:01.854Z,17,GR86-065-5,-3.9,0.083,-0.036,99.8,5.0,,0.0,0.0,206.64
2025-08-15T05:05:01.897Z,17,GR86-065-5,-3.9,0.075,-0.033,99.82,5.0,,0.0,0.0,
2025-08-15T05:05:01.942Z,17,GR86-065-5,-3.9,0.033,-0.01,99.82,5.0,,0.0,0.0,
2025-08-15T05:05:01.985Z,17,GR86-065-5,-3.9,0.084,0.002,99.8,5.0,,0.0,0.0,
2025-08-15T05:05:02.028Z,17,GR86-065-5,-3.8,0.057,0.025,99.82,5.0,7028.0,0.0,0.0,
2025-08-15T05:05:02.072Z,17,GR86-065-5,-3.8,0.032,0.038,99.81,5.0,,0.0,0.0,207.04
2025-08-15T05:05:02.115Z,17,GR86-065-5,-3.8,0.027,0.04,99.79,5.0,,0.0,0.0,
2025-08-15T05:05:02.158Z,17,GR86-065-5,-3.7,0.022,0.044,99.8,5.0,,0.0,0.0,
2025-08-15T05:05:02.202Z,17,GR86-065-5,-3.7,0.04,0.07,99.42,5.0,,0.0,0.0,
2025-08-15T05:05:02.245Z,17,GR86-065-5,-3.7,0.033,0.031,51.45,5.0,7040.0,9.31,8.73,
2025-08-15T05:05:02.288Z,17,GR86-065-5,-3.7,-0.061,0.045,32.02,5.0,,20.815,20.235,207.36
2025-08-15T05:05:02.331Z,17,GR86-065-5,-3.7,-0.188,0.017,7.6,5.0,,36.275,35.74,
2025-08-15T05:05:02.374Z,17,GR86-065-5,-3.7,-0.533,0.035,5.09,5.0,,54.14,53.96,
2025-08-15T05:05:02.417Z,17,GR86-065-5,-3.7,-0.962,0.009,4.94,5.0,,70.99,71.11,
2025-08-15T05:05:02.460Z,17,GR86-065-5,-2.9000000000000004,-1.275,0.048,4.46,5.0,7067.0,91.405,89.895,
2025-08-15T05:05:02.504Z,17,GR86-065-5,-2.9000000000000004,-1.383,0.035,4.18,5.0,,100.06,97.59,207.65
2025-08-15T05:05:02.547Z,17,GR86-065-5,-5.0,-1.439,0.047,3.92,5.0,,99.74,99.31,
2025-08-15T05:05:02.590Z,17,GR86-065-5,-5.800000000000001,-1.469,-0.003,3.54,5.0,,101.02,99.615,
2025-08-15T05:05:02.633Z,17,GR86-065-5,-5.9,-1.353,-0.016,3.03,5.0,,103.965,101.42,
2025-08-15T05:05:02.676Z,17,GR86-065-5,-4.2,-1.325,0.024,2.86,5.0,7006.0,99.92,98.99,
2025-08-15T05:05:02.719Z,17,GR86-065-5,-3.3000000000000003,-1.286,0.014,2.74,5.0,,100.06,99.83,208.18
2025-08-15T05:05:02.762Z,17,GR86-065-5,-3.3000000000000003,-1.318,0.132,2.61,5.0,,100.09,98.06,
2025-08-15T05:05:02.805Z,17,GR86-065-5,-3.4000000000000004,-1.173,-0.057,31.99,5.0,,91.65,90.935,
2025-08-15T05:05:02.848Z,17,GR86-065-5,-3.9,-1.406,0.043,75.47,5.0,,87.655,87.06,
2025-08-15T05:05:02.891Z,17,GR86-065-5,-4.6000000000000005,-1.325,0.008,99.75,5.0,6255.0,90.585,88.8,
2025-08-15T05:05:02.934Z,17,GR86-065-5,-4.6000000000000005,-1.329,-0.124,78.67,4.0,,89.455,89.3,200.83
2025-08-15T05:05:02.977Z,17,GR86-065-5,-4.4,-1.358,-0.099,7.51,4.0,,91.085,90.14,
2025-08-15T05:05:03.020Z,17,GR86-065-5,1.2000000000000002,-1.257,-0.031,3.52,4.0,,93.115,91.315,
2025-08-15T05:05:03.063Z,17,GR86-065-5,1.7000000000000002,-1.256,-0.088,3.26,4.0,,87.9,87.06,
2025-08-15T05:05:03.106Z,17,GR86-065-5,1.7000000000000002,-1.354,0.038,3.09,4.0,6217.0,81.87,80.405,
2025-08-15T05:05:03.149Z,17,GR86-065-5,-0.2,-1.29,0.003,2.96,4.0,,78.36,76.36,180.81
2025-08-15T05:05:03.192Z,17,GR86-065-5,-2.2,-1.26,-0.044,2.87,4.0,,73.845,72.73,
2025-08-15T05:05:03.235Z,17,GR86-065-5,-5.0,-1.189,-0.039,2.78,4.0,,72.12,71.175,
2025-08-15T05:05:03.278Z,17,GR86-065-5,-6.800000000000001,-1.227,-0.071,2.71,4.0,,71.89,70.805,
2025-08-15T05:05:03.364Z,17,GR86-065-5,-7.0,-1.227,-0.085,2.66,4.0,6345.0,70.33500000000001,70.0,171.74
2025-08-15T05:05:03.407Z,17,GR86-065-5,-7.0,-1.24,-0.073,81.26,4.0,,68.805,68.305,
2025-08-15T05:05:03.450Z,17,GR86-065-5,-7.1000000000000005,-1.276,-0.058,97.84,3.0,,69.525,68.595,
2025-08-15T05:05:03.493Z,17,GR86-065-5,-7.800000000000001,-1.25,-0.137,39.13,3.0,,67.785,67.295,
2025-08-15T05:05:03.622Z,17,GR86-065-5,-11.1,-1.296,-0.156,3.06,3.0,6473.0,67.295,65.525,164.99
2025-08-15T05:05:03.665Z,17,GR86-065-5,-11.3,-1.155,-0.283,2.88,3.0,,55.575,54.14,
2025-08-15T05:05:03.708Z,17,GR86-065-5,-11.3,-1.049,-0.479,2.84,3.0,,52.525,51.685,
2025-08-15T05:05:03.751Z,17,GR86-065-5,-11.3,-0.991,-0.447,2.76,3.0,6569.0,46.77,46.205,
2025-08-15T05:05:03.794Z,17,GR86-065-5,-11.3,-0.957,-0.395,2.71,3.0,,41.555,40.745,157.4
2025-08-15T05:05:03.837Z,17,GR86-065-5,-11.3,-0.8260000000000001,-0.492,2.65,3.0,,37.705,36.275,
2025-08-15T05:05:03.880Z,17,GR86-065-5,-13.8,-0.736,-0.541,2.59,3.0,,31.8,31.235,
2025-08-15T05:05:03.923Z,17,GR86-065-5,-19.200000000000003,-0.808,-0.603,2.5500000000000003,3.0,,29.74,28.75,
2025-08-15T05:05:03.966Z,17,GR86-065-5,-22.9,-0.746,-0.633,2.53,3.0,6581.0,27.68,26.57,
2025-08-15T05:05:04.009Z,17,GR86-065-5,-23.6,-0.6910000000000001,-0.731,2.52,3.0,,25.15,23.99,149.85
2025-08-15T05:05:04.052Z,17,GR86-065-5,-23.6,-0.67,-0.839,2.52,3.0,,23.395,22.465,
2025-08-15T05:05:04.095Z,17,GR86-065-5,-23.700000000000003,-0.742,-0.84,2.52,3.0,,22.31,21.595,
2025-08-15T05:05:04.138Z,17,GR86-065-5,-23.9,-0.718,-0.904,2.5,3.0,,20.785,19.96,
2025-08-15T05:05:04.181Z,17,GR86-065-5,-23.9,-0.625,-0.919,2.52,3.0,6373.0,17.03,16.025,
2025-08-15T05:05:04.224Z,17,GR86-065-5,-22.5,-0.496,-0.923,2.49,3.0,,14.055,13.08,144.83
2025-08-15T05:05:04.268Z,17,GR86-065-5,-22.4,-0.461,-0.916,2.49,3.0,,11.31,10.24,
2025-08-15T05:05:04.311Z,17,GR86-065-5,-22.4,-0.444,-0.974,2.49,3.0,,9.035,8.09,
2025-08-15T05:05:04.354Z,17,GR86-065-5,-24.6,-0.408,-1.053,2.49,3.0,,6.775,5.86,
2025-08-15T05:05:04.397Z,17,GR86-065-5,-25.200000000000003,-0.337,-1.105,2.49,3.0,6254.0,5.28,4.305,
2025-08-15T05:05:04.441Z,17,GR86-065-5,-25.200000000000003,-0.305,-1.141,2.49,3.0,,3.465,2.67,140.74
2025-08-15T05:05:04.485Z,17,GR86-065-5,-23.0,-0.254,-1.17,2.49,3.0,,2.485,1.8,
2025-08-15T05:05:04.528Z,17,GR86-065-5,-18.0,-0.264,-1.195,2.49,3.0,,0.0,0.0,
2025-08-15T05:05:04.571Z,17,GR86-065-5,-15.7,-0.237,-1.217,2.48,3.0,,0.0,0.0,
2025-08-15T05:05:04.614Z,17,GR86-065-5,-15.7,-0.186,-1.149,2.65,3.0,6030.0,0.0,0.0,
2025-08-15T05:05:04.657Z,17,GR86-065-5,-19.8,-0.176,-1.131,2.87,3.0,,0.0,0.0,136.96
2025-08-15T05:05:04.700Z,17,GR86-065-5,-28.8,-0.178,-1.186,3.3000000000000003,3.0,,0.0,0.0,
2025-08-15T05:05:04.744Z,17,GR86-065-5,-35.0,-0.2,-1.237,4.36,3.0,,0.0,0.0,
2025-08-15T05:05:04.787Z,17,GR86-065-5,-40.5,-0.2,-1.259,4.73,3.0,,0.0,0.0,
2025-08-15T05:05:04.830Z,17,GR86-065-5,-43.400000000000006,-0.192,-1.268,7.95,3.0,5987.0,0.0,0.0,
2025-08-15T05:05:04.873Z,17,GR86-065-5,-45.400000000000006,-0.206,-1.23,12.48,3.0,,0.0,0.0,134.76
2025-08-15T05:05:04.916Z,17,GR86-065-5,-47.1,-0.215,-1.236,17.16,3.0,,0.0,0.0,
2025-08-15T05:05:04.960Z,17,GR86-065-5,-47.8,-0.172,-1.261,22.84,3.0,,0.0,0.0,
2025-08-15T05:05:05.003Z,17,GR86-065-5,-47.8,-0.152,-1.243,28.21,3.0,,0.0,0.0,
2025-08-15T05:05:05.046Z,17,GR86-065-5,-47.8,-0.136,-1.263,31.83,3.0,5952.0,0.0,0.0,
2025-08-15T05:05:05.089Z,17,GR86-065-5,-46.0,-0.144,-1.267,33.11,3.0,,0.0,0.0,132.14
2025-08-15T05:05:05.132Z,17,GR86-065-5,-45.8,-0.089,-1.239,34.76,3.0,,0.0,0.0,
2025-08-15T05:05:05.175Z,17,GR86-065-5,-45.8,0.139,-1.327,36.27,3.0,,0.0,0.0,
2025-08-15T05:05:05.218Z,17,GR86-065-5,-45.8,0.113,-1.286,38.06,3.0,,0.0,0.0,
2025-08-15T05:05:05.261Z,17,GR86-065-5,-45.8,0.113,-1.224,40.11,3.0,5920.0,0.0,0.0,
2025-08-15T05:05:05.304Z,17,GR86-065-5,-45.8,0.098,-1.213,44.27,3.0,,0.0,0.0,130.25
2025-08-15T05:05:05.347Z,17,GR86-065-5,-45.8,0.09,-1.216,49.51,3.0,,0.0,0.0,
2025-08-15T05:05:05.390Z,17,GR86-065-5,-45.8,0.083,-1.31,56.870000000000005,3.0,,0.0,0.0,
2025-08-15T05:05:05.433Z,17,GR86-065-5,-45.8,0.085,-1.271,69.5,3.0,,0.0,0.0,
2025-08-15T05:05:05.476Z,17,GR86-065-5,-45.8,0.115,-1.218,81.35000000000001,3.0,6272.0,0.0,0.0,
2025-08-15T05:05:05.519Z,17,GR86-065-5,-45.8,0.15,-1.212,92.87,3.0,,0.0,0.0,128.59
2025-08-15T05:05:05.562Z,17,GR86-065-5,-47.2,0.164,-1.198,99.83,3.0,,0.0,0.0,
2025-08-15T05:05:05.605Z,17,GR86-065-5,-47.400000000000006,0.149,-1.212,99.77,3.0,,0.0,0.0,
2025-08-15T05:05:05.648Z,17,GR86-065-5,-47.400000000000006,0.132,-1.233,99.78,3.0,,0.0,0.0,
2025-08-15T05:05:05.691Z,17,GR86-065-5,-47.400000000000006,0.129,-1.3,99.78,3.0,6096.0,0.0,0.0,
2025-08-15T05:05:05.734Z,17,GR86-065-5,-45.400000000000006,0.179,-1.174,99.77,3.0,,0.0,0.0,129.24
2025-08-15T05:05:05.777Z,17,GR86-065-5,-42.6,0.183,-1.229,99.79,3.0,,0.0,0.0,
2025-08-15T05:05:05.822Z,17,GR86-065-5,-41.0,0.139,-1.318,99.79,3.0,,0.0,0.0,
2025-08-15T05:05:05.865Z,17,GR86-065-5,-40.8,0.133,-1.226,99.77,3.0,,0.0,0.0,
2025-08-15T05:05:05.908Z,17,GR86-065-5,-40.8,0.184,-1.223,99.78,3.0,6182.0,0.0,0.0,
2025-08-15T05:05:05.952Z,17,GR86-065-5,-40.8,0.208,-1.255,99.8,3.0,,0.0,0.0,128.82
2025-08-15T05:05:05.995Z,17,GR86-065-5,-40.7,0.164,-1.071,99.79,3.0,,0.0,0.0,
2025-08-15T05:05:06.038Z,17,GR86-065-5,-39.900000000000006,0.115,-1.092,99.79,3.0,,0.0,0.0,
2025-08-15T05:05:06.081Z,17,GR86-065-5,-34.5,0.164,-1.206,99.79,3.0,,0.0,0.0,
2025-08-15T05:05:06.125Z,17,GR86-065-5,-29.8,0.176,-1.224,99.78,3.0,6205.0,0.0,0.0,
2025-08-15T05:05:06.168Z,17,GR86-065-5,-25.700000000000003,0.148,-1.202,99.78,3.0,,0.0,0.0,131.07
2025-08-15T05:05:06.211Z,17,GR86-065-5,-21.1,0.178,-1.179,99.77,3.0,,0.0,0.0,
2025-08-15T05:05:06.297Z,17,GR86-065-5,-17.2,0.135,-1.264,99.78,3.0,,0.0,0.0,
2025-08-15T05:05:06.342Z,17,GR86-065-5,-17.2,0.168,-1.264,99.82,3.0,6325.0,0.0,0.0,
2025-08-15T05:05:06.385Z,17,GR86-065-5,-23.1,0.169,-1.107,99.82,3.0,,0.0,0.0,131.6
2025-08-15T05:05:06.428Z,17,GR86-065-5,-31.4,0.153,-1.108,99.82,3.0,,0.0,0.0,
2025-08-15T05:05:06.471Z,17,GR86-065-5,-40.2,0.173,-1.084,99.81,3.0,,0.0,0.0,
2025-08-15T05:05:06.514Z,17,GR86-065-5,-46.900000000000006,0.139,-1.2,99.82,3.0,,0.0,0.0,
2025-08-15T05:05:06.557Z,17,GR86-065-5,-50.7,0.141,-1.222,99.8,3.0,6281.0,0.0,0.0,
2025-08-15T05:05:06.600Z,17,GR86-065-5,-51.6,0.139,-1.244,99.79,3.0,,0.0,0.0,132.68
2025-08-15T05:05:06.644Z,17,GR86-065-5,-51.6,0.142,-1.189,99.79,3.0,,0.0,0.0,
2025-08-15T05:05:06.687Z,17,GR86-065-5,-51.6,0.142,-1.153,99.79,3.0,,0.0,0.0,
2025-08-15T05:05:06.730Z,17,GR86-065-5,-51.2,0.125,-1.188,99.79,3.0,,0.0,0.0,
2025-08-15T05:05:06.773Z,17,GR86-065-5,-50.1,0.136,-1.121,99.79,3.0,6303.0,0.0,0.0,
2025-08-15T05:05:06.816Z,17,GR86-065-5,-49.900000000000006,0.131,-1.112,99.79,3.0,,0.0,0.0,132.39
2025-08-15T05:05:06.859Z,17,GR86-065-5,-49.900000000000006,0.134,-1.129,99.78,3.0,,0.0,0.0,
2025-08-15T05:05:06.902Z,17,GR86-065-5,-47.3,0.13,-1.193,99.78,3.0,,0.0,0.0,
2025-08-15T05:05:06.945Z,17,GR86-065-5,-42.3,0.107,-1.251,99.79,3.0,,0.0,0.0,
2025-08-15T05:05:06.988Z,17,GR86-065-5,-37.5,0.141,-1.22,99.78,3.0,6332.0,0.0,0.0,
2025-08-15T05:05:07.031Z,17,GR86-065-5,-35.2,0.153,-1.223,99.79,3.0,,0.0,0.0,133.26
2025-08-15T05:05:07.074Z,17,GR86-065-5,-35.1,0.143,-1.196,99.78,3.0,,0.0,0.0,
2025-08-15T05:05:07.117Z,17,GR86-065-5,-35.1,0.143,-1.23,99.79,3.0,,0.0,0.0,
2025-08-15T05:05:07.160Z,17,GR86-065-5,-35.1,0.139,-1.219,99.79,3.0,,0.0,0.0,
2025-08-15T05:05:07.203Z,17,GR86-065-5,-35.1,0.142,-1.221,99.79,3.0,6407.0,0.0,0.0,
2025-08-15T05:05:07.246Z,17,GR86-065-5,-32.9,0.138,-1.21,99.78,3.0,,0.0,0.0,133.95
2025-08-15T05:05:07.289Z,17,GR86-065-5,-30.1,0.143,-1.177,99.79,3.0,,0.0,0.0,
2025-08-15T05:05:07.332Z,17,GR86-065-5,-29.6,0.144,-1.161,99.8,3.0,,0.0,0.0,
2025-08-15T05:05:07.375Z,17,GR86-065-5,-29.6,0.15,-1.201,99.77,3.0,,0.0,0.0,
2025-08-15T05:05:07.418Z,17,GR86-065-5,-29.6,0.161,-1.189,99.78,3.0,6451.0,0.0,0.0,
2025-08-15T05:05:07.461Z,17,GR86-065-5,-25.5,0.16,-1.148,99.78,3.0,,0.0,0.0,136.24
2025-08-15T05:05:07.505Z,17,GR86-065-5,-18.7,0.134,-1.095,99.79,3.0,,0.0,0.0,
2025-08-15T05:05:07.548Z,17,GR86-065-5,-9.9,0.131,-1.11,99.78,3.0,,0.0,0.0,
2025-08-15T05:05:07.591Z,17,GR86-065-5,-1.2000000000000002,0.159,-1.111,99.79,3.0,,0.0,0.0,
2025-08-15T05:05:07.677Z,17,GR86-065-5,5.800000000000001,0.198,-1.061,99.77,3.0,6507.0,0.0,0.0,135.6
2025-08-15T05:05:07.720Z,17,GR86-065-5,9.4,0.208,-1.009,99.81,3.0,,0.0,0.0,
2025-08-15T05:05:07.764Z,17,GR86-065-5,6.1000000000000005,0.21,-1.004,99.82,3.0,,0.0,0.0,
2025-08-15T05:05:07.807Z,17,GR86-065-5,-2.6,0.214,-1.103,99.82,3.0,,0.0,0.0,
2025-08-15T05:05:07.850Z,17,GR86-065-5,-12.7,0.211,-0.894,99.82,3.0,6585.0,0.0,0.0,
2025-08-15T05:05:07.893Z,17,GR86-065-5,-21.6,0.198,-0.745,99.82,3.0,,0.0,0.0,136.52
2025-08-15T05:05:07.936Z,17,GR86-065-5,-28.6,0.152,-0.761,99.82,3.0,,0.0,0.0,
2025-08-15T05:05:07.980Z,17,GR86-065-5,-33.5,0.173,-0.767,99.79,3.0,,0.0,0.0,
2025-08-15T05:05:08.023Z,17,GR86-065-5,-34.300000000000004,0.153,-0.777,99.78,3.0,,0.0,0.0,
2025-08-15T05:05:08.066Z,17,GR86-065-5,-32.6,0.141,-0.993,99.82,3.0,6616.0,0.0,0.0,
2025-08-15T05:05:08.109Z,17,GR86-065-5,-26.700000000000003,0.119,-0.884,99.79,3.0,,0.0,0.0,137.51
2025-08-15T05:05:08.152Z,17,GR86-065-5,-20.0,0.168,-0.681,99.82,3.0,,0.0,0.0,
2025-08-15T05:05:08.195Z,17,GR86-065-5,-15.9,0.109,-0.665,99.82,3.0,,0.0,0.0,
2025-08-15T05:05:08.238Z,17,GR86-065-5,-15.8,0.118,-0.975,99.79,3.0,,0.0,0.0,
2025-08-15T05:05:08.281Z,17,GR86-065-5,-18.0,0.047,-0.762,99.82,3.0,6570.0,0.0,0.0,
2025-08-15T05:05:08.324Z,17,GR86-065-5,-20.4,0.096,-0.93,99.82,3.0,,0.0,0.0,138.19
2025-08-15T05:05:08.367Z,17,GR86-065-5,-20.9,0.179,-0.92,99.82,3.0,,0.0,0.0,
2025-08-15T05:05:08.410Z,17,GR86-065-5,-20.9,0.272,-0.765,99.8,3.0,,0.0,0.0,
2025-08-15T05:05:08.453Z,17,GR86-065-5,-20.1,0.088,-0.8210000000000001,99.8,3.0,,0.0,0.0,
2025-08-15T05:05:08.496Z,17,GR86-065-5,-16.8,0.179,-0.842,99.82,3.0,6635.0,0.0,0.0,
2025-08-15T05:05:08.539Z,17,GR86-065-5,-14.1,0.212,-0.792,99.81,3.0,,0.0,0.0,139.21
2025-08-15T05:05:08.582Z,17,GR86-065-5,-13.7,0.189,-0.81,99.82,3.0,,0.0,0.0,
2025-08-15T05:05:08.625Z,17,GR86-065-5,-13.7,0.174,-0.797,99.81,3.0,,0.0,0.0,
2025-08-15T05:05:08.668Z,17,GR86-065-5,-14.0,0.221,-0.596,99.79,3.0,,0.0,0.0,
2025-08-15T05:05:08.711Z,17,GR86-065-5,-14.3,0.135,-0.615,99.78,3.0,6683.0,0.0,0.0,
2025-08-15T05:05:08.754Z,17,GR86-065-5,-14.4,0.159,-0.43,99.79,3.0,,0.0,0.0,141.15
2025-08-15T05:05:08.797Z,17,GR86-065-5,-15.3,0.117,-0.523,99.79,3.0,,0.0,0.0,
2025-08-15T05:05:08.841Z,17,GR86-065-5,-16.0,0.211,-0.469,99.81,3.0,,0.0,0.0,
2025-08-15T05:05:08.885Z,17,GR86-065-5,-16.0,0.134,-0.527,99.82,3.0,,0.0,0.0,
2025-08-15T05:05:08.928Z,17,GR86-065-5,-16.1,0.138,-0.502,99.79,3.0,6755.0,0.0,0.0,
2025-08-15T05:05:08.971Z,17,GR86-065-5,-16.1,0.203,-0.423,99.79,3.0,,0.0,0.0,142.59
2025-08-15T05:05:09.015Z,17,GR86-065-5,-16.1,0.129,-0.411,99.8,3.0,,0.0,0.0,
2025-08-15T05:05:09.058Z,17,GR86-065-5,-16.1,0.096,-0.545,99.81,3.0,,0.0,0.0,
2025-08-15T05:05:09.102Z,17,GR86-065-5,-16.1,0.141,-0.424,99.82,3.0,,0.0,0.0,
2025-08-15T05:05:09.145Z,17,GR86-065-5,-14.2,0.185,-0.339,99.81,3.0,6775.0,0.0,0.0,
2025-08-15T05:05:09.188Z,17,GR86-065-5,-11.4,0.121,-0.418,99.8,3.0,,0.0,0.0,143.65
2025-08-15T05:05:09.231Z,17,GR86-065-5,-8.8,0.194,-0.424,99.78,3.0,,0.0,0.0,
2025-08-15T05:05:09.274Z,17,GR86-065-5,-8.1,0.269,-0.415,99.8,3.0,,0.0,0.0,
2025-08-15T05:05:09.317Z,17,GR86-065-5,-8.1,0.227,-0.183,99.78,3.0,,0.0,0.0,
2025-08-15T05:05:09.360Z,17,GR86-065-5,-8.1,0.167,-0.094,99.79,3.0,6846.0,0.0,0.0,
2025-08-15T05:05:09.404Z,17,GR86-065-5,-7.9,0.082,-0.156,99.78,3.0,,0.0,0.0,145.18
2025-08-15T05:05:09.447Z,17,GR86-065-5,-6.2,0.15,-0.225,99.81,3.0,,0.0,0.0,
2025-08-15T05:05:09.490Z,17,GR86-065-5,-4.4,0.138,-0.183,99.79,3.0,,0.0,0.0,
2025-08-15T05:05:09.576Z,17,GR86-065-5,-2.9000000000000004,0.15,-0.24,99.79,3.0,6897.0,0.0,0.0,
2025-08-15T05:05:09.619Z,17,GR86-065-5,-1.2000000000000002,0.204,-0.181,99.79,3.0,,0.0,0.0,146.33
2025-08-15T05:05:09.662Z,17,GR86-065-5,-0.8,0.263,-0.112,99.81,3.0,,0.0,0.0,
2025-08-15T05:05:09.705Z,17,GR86-065-5,-0.5,0.21,-0.015,99.82,3.0,,0.0,0.0,
2025-08-15T05:05:09.748Z,17,GR86-065-5,-0.3,0.218,0.07,99.81,3.0,,0.0,0.0,
2025-08-15T05:05:09.834Z,17,GR86-065-5,-0.5,0.109,0.151,99.81,3.0,7017.0,0.0,0.0,147.72
2025-08-15T05:05:09.877Z,17,GR86-065-5,-0.6000000000000001,0.218,0.136,99.78,3.0,,0.0,0.0,
2025-08-15T05:05:09.920Z,17,GR86-065-5,-1.1,0.173,0.229,99.82,3.0,,0.0,0.0,
2025-08-15T05:05:09.963Z,17,GR86-065-5,-1.2000000000000002,0.219,0.148,99.8,3.0,,0.0,0.0,
2025-08-15T05:05:10.006Z,17,GR86-065-5,-1.6,0.218,0.3,99.81,3.0,7027.0,0.0,0.0,
2025-08-15T05:05:10.049Z,17,GR86-065-5,-3.1,0.258,0.234,99.78,3.0,,0.0,0.0,149.38
2025-08-15T05:05:10.092Z,17,GR86-065-5,-3.3000000000000003,0.153,0.318,99.81,3.0,,0.0,0.0,
2025-08-15T05:05:10.135Z,17,GR86-065-5,-3.3000000000000003,0.243,0.326,99.83,3.0,,0.0,0.0,
2025-08-15T05:05:10.178Z,17,GR86-065-5,-3.4000000000000004,0.108,0.266,99.82,3.0,,0.0,0.0,
2025-08-15T05:05:10.221Z,17,GR86-065-5,-3.1,0.183,0.309,99.82,3.0,7118.0,0.0,0.0,
2025-08-15T05:05:10.264Z,17,GR86-065-5,-2.6,0.225,0.253,99.81,3.0,,0.0,0.0,150.48
2025-08-15T05:05:10.307Z,17,GR86-065-5,-2.5,-0.026,0.316,99.81,3.0,,0.0,0.0,
2025-08-15T05:05:10.350Z,17,GR86-065-5,-2.5,0.09,0.216,99.81,3.0,,0.0,0.0,
2025-08-15T05:05:10.393Z,17,GR86-065-5,-1.0,-0.025,0.285,99.81,3.0,,0.0,0.0,
2025-08-15T05:05:10.436Z,17,GR86-065-5,-0.2,0.2,0.142,99.8,3.0,7227.0,0.0,0.0,
2025-08-15T05:05:10.479Z,17,GR86-065-5,-0.2,0.198,0.108,99.78,3.0,,0.0,0.0,151.87
2025-08-15T05:05:10.522Z,17,GR86-065-5,-0.2,-0.118,0.253,99.81,4.0,,0.0,0.0,
2025-08-15T05:05:10.565Z,17,GR86-065-5,-0.2,0.122,0.221,99.82,4.0,,0.0,0.0,
2025-08-15T05:05:10.608Z,17,GR86-065-5,-0.2,0.518,0.097,99.82,4.0,,0.0,0.0,
2025-08-15T05:05:10.651Z,17,GR86-065-5,-0.2,0.19,0.199,99.82,4.0,7236.0,0.0,0.0,
2025-08-15T05:05:10.694Z,17,GR86-065-5,-0.2,0.058,0.248,99.83,4.0,,0.0,0.0,153.4
2025-08-15T05:05:10.738Z,17,GR86-065-5,-1.0,0.05,0.152,99.81,4.0,,0.0,0.0,
2025-08-15T05:05:10.781Z,17,GR86-065-5,-2.0,0.144,0.201,99.82,4.0,,0.0,0.0,
2025-08-15T05:05:10.824Z,17,GR86-065-5,-2.0,0.148,0.14,99.82,4.0,,0.0,0.0,
2025-08-15T05:05:10.868Z,17,GR86-065-5,-2.0,0.095,0.093,99.81,4.0,6825.0,0.0,0.0,
2025-08-15T05:05:10.911Z,17,GR86-065-5,-2.1,0.111,0.105,99.82,4.0,,0.0,0.0,154.93
2025-08-15T05:05:10.954Z,17,GR86-065-5,-3.1,0.169,0.057,99.82,4.0,,0.0,0.0,
2025-08-15T05:05:10.997Z,17,GR86-065-5,-3.1,0.17,0.041,99.82,4.0,,0.0,0.0,
2025-08-15T05:05:11.042Z,17,GR86-065-5,-3.2,0.124,-0.002,99.82,4.0,,0.0,0.0,
2025-08-15T05:05:11.085Z,17,GR86-065-5,-3.2,0.156,-0.018,99.82,4.0,6177.0,0.0,0.0,
2025-08-15T05:05:11.128Z,17,GR86-065-5,-3.2,0.143,0.0,99.82,4.0,,0.0,0.0,155.6
2025-08-15T05:05:11.171Z,17,GR86-065-5,-3.2,0.142,-0.008,99.82,4.0,,0.0,0.0,
2025-08-15T05:05:11.214Z,17,GR86-065-5,-3.2,0.134,0.005,99.82,4.0,,0.0,0.0,
2025-08-15T05:05:11.257Z,17,GR86-065-5,-3.2,0.116,-0.031,99.81,4.0,,0.0,0.0,
2025-08-15T05:05:11.300Z,17,GR86-065-5,-3.2,0.147,-0.007,99.82,4.0,6217.0,0.0,0.0,
2025-08-15T05:05:11.344Z,17,GR86-065-5,-3.2,0.132,0.026,99.82,4.0,,0.0,0.0,158.55
2025-08-15T05:05:11.387Z,17,GR86-065-5,-3.2,0.121,0.036,99.83,4.0,,0.0,0.0,
2025-08-15T05:05:11.430Z,17,GR86-065-5,-3.2,0.116,0.031,99.81,4.0,,0.0,0.0,
2025-08-15T05:05:11.473Z,17,GR86-065-5,-3.2,0.108,0.018,99.82,4.0,,0.0,0.0,
2025-08-15T05:05:11.516Z,17,GR86-065-5,-3.2,0.103,0.016,99.82,4.0,6262.0,0.0,0.0,
2025-08-15T05:05:11.559Z,17,GR86-065-5,-3.2,0.129,0.016,99.82,4.0,,0.0,0.0,160.08
2025-08-15T05:05:11.602Z,17,GR86-065-5,-3.2,0.094,0.023,99.81,4.0,,0.0,0.0,
2025-08-15T05:05:11.645Z,17,GR86-065-5,-3.2,0.112,0.007,99.81,4.0,,0.0,0.0,
2025-08-15T05:05:11.688Z,17,GR86-065-5,-3.2,0.109,-0.02,99.83,4.0,,0.0,0.0,
2025-08-15T05:05:11.731Z,17,GR86-065-5,-3.3000000000000003,0.136,-0.022,99.81,4.0,6307.0,0.0,0.0,
2025-08-15T05:05:11.774Z,17,GR86-065-5,-3.8,0.134,-0.045,99.82,4.0,,0.0,0.0,161.51
2025-08-15T05:05:11.817Z,17,GR86-065-5,-4.2,0.152,-0.05,99.82,4.0,,0.0,0.0,
2025-08-15T05:05:11.860Z,17,GR86-065-5,-4.6000000000000005,0.098,-0.095,99.81,4.0,,0.0,0.0,
2025-08-15T05:05:11.903Z,17,GR86-065-5,-4.800000000000001,0.127,-0.117,99.82,4.0,,0.0,0.0,
2025-08-15T05:05:11.946Z,17,GR86-065-5,-4.9,0.149,-0.126,99.81,4.0,6422.0,0.0,0.0,
2025-08-15T05:05:11.989Z,17,GR86-065-5,-4.9,0.148,-0.123,99.82,4.0,,0.0,0.0,163.02
2025-08-15T05:05:12.032Z,17,GR86-065-5,-4.9,0.146,-0.138,99.84,4.0,,0.0,0.0,
2025-08-15T05:05:12.075Z,17,GR86-065-5,-5.2,0.147,-0.14,99.82,4.0,,0.0,0.0,
2025-08-15T05:05:12.118Z,17,GR86-065-5,-5.7,0.136,-0.13,99.81,4.0,,0.0,0.0,
2025-08-15T05:05:12.161Z,17,GR86-065-5,-6.300000000000001,0.147,-0.159,99.78,4.0,6482.0,0.0,0.0,
2025-08-15T05:05:12.204Z,17,GR86-065-5,-6.300000000000001,0.153,-0.17,99.8,4.0,,0.0,0.0,164.34
2025-08-15T05:05:12.247Z,17,GR86-065-5,-6.4,0.154,-0.18,99.83,4.0,,0.0,0.0,
2025-08-15T05:05:12.290Z,17,GR86-065-5,-6.4,0.145,-0.181,99.82,4.0,,0.0,0.0,
2025-08-15T05:05:12.333Z,17,GR86-065-5,-6.4,0.134,-0.183,99.81,4.0,,0.0,0.0,
2025-08-15T05:05:12.377Z,17,GR86-065-5,-6.6000000000000005,0.122,-0.191,99.79,4.0,6530.0,0.0,0.0,
2025-08-15T05:05:12.422Z,17,GR86-065-5,-7.4,0.142,-0.212,99.82,4.0,,0.0,0.0,165.94
2025-08-15T05:05:12.465Z,17,GR86-065-5,-7.7,0.152,-0.223,99.82,4.0,,0.0,0.0,
2025-08-15T05:05:12.508Z,17,GR86-065-5,-8.0,0.157,-0.23,99.81,4.0,,0.0,0.0,
2025-08-15T05:05:12.552Z,17,GR86-065-5,-8.0,0.164,-0.238,99.79,4.0,,0.0,0.0,
2025-08-15T05:05:12.595Z,17,GR86-065-5,-8.1,0.154,-0.233,99.81,4.0,6588.0,0.0,0.0,
2025-08-15T05:05:12.638Z,17,GR86-065-5,-8.1,0.137,-0.219,99.82,4.0,,0.0,0.0,167.33
2025-08-15T05:05:12.681Z,17,GR86-065-5,-8.1,0.134,-0.25,99.8,4.0,,0.0,0.0,
2025-08-15T05:05:12.724Z,17,GR86-065-5,-8.200000000000001,0.145,-0.271,99.79,4.0,,0.0,0.0,
2025-08-15T05:05:12.768Z,17,GR86-065-5,-8.200000000000001,0.161,-0.284,99.81,4.0,,0.0,0.0,
2025-08-15T05:05:12.811Z,17,GR86-065-5,-8.5,0.159,-0.277,99.81,4.0,6648.0,0.0,0.0,
2025-08-15T05:05:12.854Z,17,GR86-065-5,-9.2,0.161,-0.273,99.79,4.0,,0.0,0.0,168.77
2025-08-15T05:05:12.897Z,17,GR86-065-5,-9.6,0.149,-0.275,99.8,4.0,,0.0,0.0,
2025-08-15T05:05:12.942Z,17,GR86-065-5,-9.7,0.097,-0.299,99.82,4.0,,0.0,0.0,
2025-08-15T05:05:12.985Z,17,GR86-065-5,-9.7,0.121,-0.292,99.83,4.0,,0.0,0.0,
2025-08-15T05:05:13.028Z,17,GR86-065-5,-9.7,0.117,-0.3,99.82,4.0,6700.0,0.0,0.0,
2025-08-15T05:05:13.071Z,17,GR86-065-5,-9.8,0.139,-0.293,99.81,4.0,,0.0,0.0,170.19
2025-08-15T05:05:13.114Z,17,GR86-065-5,-10.0,0.143,-0.308,99.81,4.0,,0.0,0.0,
2025-08-15T05:05:13.157Z,17,GR86-065-5,-10.2,0.158,-0.343,99.82,4.0,,0.0,0.0,
2025-08-15T05:05:13.200Z,17,GR86-065-5,-10.2,0.062,-0.354,99.79,4.0,,0.0,0.0,
2025-08-15T05:05:13.243Z,17,GR86-065-5,-10.2,0.058,-0.368,99.82,4.0,6752.0,0.0,0.0,
2025-08-15T05:05:13.286Z,17,GR86-065-5,-10.2,0.066,-0.361,99.82,4.0,,0.0,0.0,171.53
2025-08-15T05:05:13.329Z,17,GR86-065-5,-10.2,0.072,-0.361,99.81,4.0,,0.0,0.0,
2025-08-15T05:05:13.372Z,17,GR86-065-5,-10.3,0.081,-0.362,99.81,4.0,,0.0,0.0,
2025-08-15T05:05:13.458Z,17,GR86-065-5,-10.5,0.1,-0.365,99.79,4.0,6814.0,0.0,0.0,
2025-08-15T05:05:13.501Z,17,GR86-065-5,-10.5,0.113,-0.332,99.8,4.0,,0.0,0.0,172.69
2025-08-15T05:05:13.545Z,17,GR86-065-5,-10.5,0.085,-0.318,99.81,4.0,,0.0,0.0,
2025-08-15T05:05:13.588Z,17,GR86-065-5,-10.5,0.077,-0.3,99.82,4.0,,0.0,0.0,
2025-08-15T05:05:13.631Z,17,GR86-065-5,-10.5,0.074,-0.297,99.8,4.0,,0.0,0.0,
2025-08-15T05:05:13.674Z,17,GR86-065-5,-10.5,0.07,-0.297,99.79,4.0,6865.0,0.0,0.0,
2025-08-15T05:05:13.717Z,17,GR86-065-5,-10.5,0.054,-0.306,99.79,4.0,,0.0,0.0,174.14
2025-08-15T05:05:13.760Z,17,GR86-065-5,-10.5,0.153,-0.313,99.78,4.0,,0.0,0.0,
2025-08-15T05:05:13.803Z,17,GR86-065-5,-10.5,0.165,-0.311,99.82,4.0,,0.0,0.0,
2025-08-15T05:05:13.847Z,17,GR86-065-5,-10.5,0.167,-0.278,99.82,4.0,,0.0,0.0,
2025-08-15T05:05:13.890Z,17,GR86-065-5,-10.5,0.149,-0.252,99.81,4.0,6904.0,0.0,0.0,
2025-08-15T05:05:13.933Z,17,GR86-065-5,-10.5,0.159,-0.241,99.82,4.0,,0.0,0.0,175.43
2025-08-15T05:05:13.976Z,17,GR86-065-5,-10.5,0.147,-0.207,99.82,4.0,,0.0,0.0,
2025-08-15T05:05:14.019Z,17,GR86-065-5,-10.5,0.134,-0.204,99.8,4.0,,0.0,0.0,
2025-08-15T05:05:14.062Z,17,GR86-065-5,-10.5,0.064,-0.208,99.78,4.0,,0.0,0.0,
2025-08-15T05:05:14.105Z,17,GR86-065-5,-10.5,0.065,-0.214,99.81,4.0,6953.0,0.0,0.0,
2025-08-15T05:05:14.148Z,17,GR86-065-5,-10.5,0.07,-0.219,99.68,4.0,,2.825,2.455,177.96
2025-08-15T05:05:14.191Z,17,GR86-065-5,-10.5,0.072,-0.229,55.79,4.0,,9.49,9.125,
2025-08-15T05:05:14.234Z,17,GR86-065-5,-9.7,0.01,-0.231,33.93,4.0,,16.71,16.085,
2025-08-15T05:05:14.277Z,17,GR86-065-5,-4.9,-0.082,-0.199,19.79,4.0,,24.235,23.865,
2025-08-15T05:05:14.320Z,17,GR86-065-5,-2.5,-0.424,-0.091,5.28,4.0,6988.0,39.785,39.585,
2025-08-15T05:05:14.363Z,17,GR86-065-5,-2.5,-0.756,-0.076,5.0200000000000005,4.0,,53.545,53.455,179.01
2025-08-15T05:05:14.406Z,17,GR86-065-5,-4.4,-1.06,0.001,4.73,4.0,,66.075,66.305,
2025-08-15T05:05:14.449Z,17,GR86-065-5,-7.6,-1.342,-0.045,4.4,4.0,,75.185,75.49,
2025-08-15T05:05:14.492Z,17,GR86-065-5,-9.1,-1.393,-0.071,4.12,4.0,,84.89,82.985,
2025-08-15T05:05:14.535Z,17,GR86-065-5,-9.1,-1.47,-0.107,3.83,4.0,7036.0,89.96000000000001,88.46000000000001,
2025-08-15T05:05:14.578Z,17,GR86-065-5,-9.0,-1.479,-0.088,3.4,4.0,,91.345,90.49,179.33
2025-08-15T05:05:14.621Z,17,GR86-065-5,-7.6,-1.468,-0.008,2.87,4.0,,96.17,94.155,
2025-08-15T05:05:14.664Z,17,GR86-065-5,-7.6,-1.433,-0.03,9.16,4.0,,94.215,93.405,
2025-08-15T05:05:14.707Z,17,GR86-065-5,-7.9,-1.536,-0.025,51.54,4.0,,93.18,92.43,
2025-08-15T05:05:14.750Z,17,GR86-065-5,-8.700000000000001,-1.504,-0.085,95.58,4.0,6255.0,95.205,93.3,
2025-08-15T05:05:14.793Z,17,GR86-065-5,-8.9,-1.424,-0.124,84.4,3.0,,95.65,94.08,173.57
2025-08-15T05:05:14.836Z,17,GR86-065-5,-8.9,-1.442,-0.236,11.5,3.0,,93.775,92.78,
2025-08-15T05:05:14.879Z,17,GR86-065-5,-8.9,-1.377,-0.016,3.06,3.0,,96.045,93.865,
2025-08-15T05:05:14.922Z,17,GR86-065-5,-1.6,-1.281,-0.273,2.97,3.0,,90.52,89.775,
2025-08-15T05:05:14.965Z,17,GR86-065-5,1.1,-1.409,-0.051,2.91,3.0,6094.0,88.46000000000001,86.965,
2025-08-15T05:05:15.008Z,17,GR86-065-5,1.3,-1.325,-0.109,2.86,3.0,,87.745,85.41,162.89
2025-08-15T05:05:15.051Z,17,GR86-065-5,1.3,-1.34,-0.186,2.78,3.0,,82.955,82.025,
2025-08-15T05:05:15.094Z,17,GR86-065-5,1.3,-1.272,-0.176,2.73,3.0,,80.375,79.565,
2025-08-15T05:05:15.137Z,17,GR86-065-5,-1.6,-1.275,-0.194,2.68,3.0,,81.03,79.47500000000001,
2025-08-15T05:05:15.180Z,17,GR86-065-5,-9.0,-1.325,-0.272,27.47,3.0,6535.0,80.77,79.81,
2025-08-15T05:05:15.223Z,17,GR86-065-5,-12.7,-1.324,-0.316,71.73,3.0,,79.87,79.14,152.31
2025-08-15T05:05:15.266Z,17,GR86-065-5,-13.4,-1.259,-0.347,99.84,3.0,,78.865,77.92,
2025-08-15T05:05:15.309Z,17,GR86-065-5,-13.4,-1.194,-0.372,89.10000000000001,2.0,,77.4,75.215,
2025-08-15T05:05:15.352Z,17,GR86-065-5,-13.4,-1.308,-0.429,18.44,2.0,,71.205,70.395,
2025-08-15T05:05:15.395Z,17,GR86-065-5,-10.9,-1.153,-0.251,2.94,2.0,6307.0,64.78,63.085,
2025-08-15T05:05:15.438Z,17,GR86-065-5,-7.2,-1.148,-0.536,2.9,2.0,,55.605,54.175,141.99
2025-08-15T05:05:15.481Z,17,GR86-065-5,-4.2,-1.11,-0.293,2.84,2.0,,44.345,43.23,
2025-08-15T05:05:15.525Z,17,GR86-065-5,-4.2,-0.986,-0.459,2.77,2.0,,43.705,42.545,
2025-08-15T05:05:15.568Z,17,GR86-065-5,-4.2,-0.942,-0.666,2.72,2.0,,40.96,40.365,
2025-08-15T05:05:15.611Z,17,GR86-065-5,-5.9,-0.982,-0.489,2.68,2.0,6343.0,39.645,39.22,
2025-08-15T05:05:15.654Z,17,GR86-065-5,-8.5,-0.932,-0.629,2.65,2.0,,39.065,38.625,135.95
2025-08-15T05:05:15.697Z,17,GR86-065-5,-10.3,-0.886,-0.672,2.62,2.0,,38.38,37.8,
2025-08-15T05:05:15.742Z,17,GR86-065-5,-16.900000000000002,-0.855,-0.631,2.58,2.0,,35.585,34.275,
2025-08-15T05:05:15.785Z,17,GR86-065-5,-22.1,-0.888,-0.649,2.5500000000000003,2.0,,32.565,31.085,
2025-08-15T05:05:15.828Z,17,GR86-065-5,-26.8,-0.84,-0.6900000000000001,2.53,2.0,6916.0,29.21,27.71,
2025-08-15T05:05:15.871Z,17,GR86-065-5,-31.6,-0.737,-0.799,2.53,2.0,,26.63,25.395,130.3
2025-08-15T05:05:15.915Z,17,GR86-065-5,-35.800000000000004,-0.772,-0.796,2.52,2.0,,26.11,24.92,
2025-08-15T05:05:15.958Z,17,GR86-065-5,-37.9,-0.761,-0.807,2.49,2.0,,25.775,24.995,
2025-08-15T05:05:16.002Z,17,GR86-065-5,-38.1,-0.725,-0.873,2.5,2.0,,25.575,24.645,
2025-08-15T05:05:16.045Z,17,GR86-065-5,-38.1,-0.757,-0.888,2.49,2.0,6657.0,25.15,24.05,
2025-08-15T05:05:16.088Z,17,GR86-065-5,-36.5,-0.745,-0.92,2.49,2.0,,23.455,22.34,124.44
2025-08-15T05:05:16.131Z,17,GR86-065-5,-36.1,-0.659,-1.001,2.49,2.0,,21.03,19.825,
2025-08-15T05:05:16.174Z,17,GR86-065-5,-36.1,-0.616,-1.037,2.49,2.0,,17.55,16.435,
2025-08-15T05:05:16.217Z,17,GR86-065-5,-36.1,-0.5690000000000001,-1.032,2.49,2.0,,13.43,12.45,
2025-08-15T05:05:16.260Z,17,GR86-065-5,-34.0,-0.473,-1.144,2.49,2.0,6396.0,9.4,8.3,
2025-08-15T05:05:16.304Z,17,GR86-065-5,-28.4,-0.414,-1.166,2.49,2.0,,5.4350000000000005,4.655,118.82
2025-08-15T05:05:16.347Z,17,GR86-065-5,-22.200000000000003,-0.296,-1.182,2.49,2.0,,2.015,0.0,
2025-08-15T05:05:16.390Z,17,GR86-065-5,-16.5,-0.235,-1.19,2.49,2.0,,0.0,0.0,
2025-08-15T05:05:16.433Z,17,GR86-065-5,-11.8,-0.215,-1.16,2.49,2.0,,0.0,0.0,
2025-08-15T05:05:16.476Z,17,GR86-065-5,-8.700000000000001,-0.21,-1.164,2.49,2.0,6060.0,0.0,0.0,
2025-08-15T05:05:16.519Z,17,GR86-065-5,-8.3,-0.185,-1.185,2.52,2.0,,0.0,0.0,114.28
2025-08-15T05:05:16.562Z,17,GR86-065-5,-12.5,-0.165,-1.176,3.08,2.0,,0.0,0.0,
2025-08-15T05:05:16.605Z,17,GR86-065-5,-24.0,-0.194,-1.241,4.34,2.0,,0.0,0.0,
2025-08-15T05:05:16.648Z,17,GR86-065-5,-36.6,-0.191,-1.243,4.59,2.0,,0.0,0.0,
2025-08-15T05:05:16.691Z,17,GR86-065-5,-47.2,-0.213,-1.284,6.78,2.0,5924.0,0.0,0.0,
2025-08-15T05:05:16.734Z,17,GR86-065-5,-55.6,-0.201,-1.292,18.53,2.0,,0.0,0.0,110.91
2025-08-15T05:05:16.777Z,17,GR86-065-5,-61.7,-0.213,-1.267,21.67,2.0,,0.0,0.0,
2025-08-15T05:05:16.820Z,17,GR86-065-5,-67.5,-0.19,-1.29,24.71,2.0,,0.0,0.0,
2025-08-15T05:05:16.864Z,17,GR86-065-5,-69.3,-0.155,-1.352,29.51,2.0,,0.0,0.0,
2025-08-15T05:05:16.907Z,17,GR86-065-5,-70.2,-0.142,-1.315,31.26,2.0,5921.0,0.0,0.0,
2025-08-15T05:05:16.950Z,17,GR86-065-5,-70.4,-0.15,-1.363,32.5,2.0,,0.0,0.0,106.08
2025-08-15T05:05:16.993Z,17,GR86-065-5,-70.5,0.077,-1.301,33.0,2.0,,0.0,0.0,
2025-08-15T05:05:17.036Z,17,GR86-065-5,-70.60000000000001,0.162,-1.348,33.57,2.0,,0.0,0.0,
2025-08-15T05:05:17.123Z,17,GR86-065-5,-71.10000000000001,0.111,-1.319,38.99,2.0,5847.0,0.0,0.0,
2025-08-15T05:05:17.166Z,17,GR86-065-5,-71.0,0.064,-1.357,44.14,2.0,,0.0,0.0,104.83
2025-08-15T05:05:17.209Z,17,GR86-065-5,-67.7,0.08,-1.323,47.55,2.0,,0.0,0.0,
2025-08-15T05:05:17.252Z,17,GR86-065-5,-66.10000000000001,0.102,-1.246,48.24,2.0,,0.0,0.0,
2025-08-15T05:05:17.295Z,17,GR86-065-5,-66.10000000000001,0.146,-1.226,48.43,2.0,,0.0,0.0,
2025-08-15T05:05:17.338Z,17,GR86-065-5,-66.10000000000001,0.157,-1.228,48.47,2.0,6136.0,0.0,0.0,
2025-08-15T05:05:17.381Z,17,GR86-065-5,-62.8,0.162,-1.251,48.07,2.0,,0.0,0.0,104.69
2025-08-15T05:05:17.424Z,17,GR86-065-5,-58.0,0.158,-1.345,47.56,2.0,,0.0,0.0,
2025-08-15T05:05:17.468Z,17,GR86-065-5,-54.2,0.256,-1.16,47.43,2.0,,0.0,0.0,
2025-08-15T05:05:17.511Z,17,GR86-065-5,-51.900000000000006,0.126,-1.078,47.55,2.0,,0.0,0.0,
2025-08-15T05:05:17.554Z,17,GR86-065-5,-51.3,0.007,-0.995,49.49,2.0,6172.0,0.0,0.0,
2025-08-15T05:05:17.597Z,17,GR86-065-5,-50.7,-0.051,-1.072,55.27,2.0,,0.0,0.0,105.27
2025-08-15T05:05:17.642Z,17,GR86-065-5,-49.7,0.099,-0.994,68.73,2.0,,0.0,0.0,
2025-08-15T05:05:17.685Z,17,GR86-065-5,-49.5,-0.041,-0.997,82.13,2.0,,0.0,0.0,
2025-08-15T05:05:17.728Z,17,GR86-065-5,-49.5,-0.063,-0.979,84.92,2.0,,0.0,0.0,
2025-08-15T05:05:17.771Z,17,GR86-065-5,-49.5,0.098,-1.036,82.88,2.0,6236.0,0.0,0.0,
2025-08-15T05:05:17.814Z,17,GR86-065-5,-49.3,0.237,-1.024,83.72,2.0,,0.0,0.0,106.19
2025-08-15T05:05:17.857Z,17,GR86-065-5,-46.900000000000006,0.31,-1.156,86.62,2.0,,0.0,0.0,
2025-08-15T05:05:17.900Z,17,GR86-065-5,-37.0,-0.082,-1.068,85.82000000000001,2.0,,0.0,0.0,
2025-08-15T05:05:17.944Z,17,GR86-065-5,-28.9,-0.03,-1.151,98.72,2.0,,0.0,0.0,
2025-08-15T05:05:17.987Z,17,GR86-065-5,-21.700000000000003,0.162,-1.11,99.67,2.0,6455.0,0.0,0.0,
2025-08-15T05:05:18.030Z,17,GR86-065-5,-17.6,0.36,-1.14,99.76,2.0,,0.0,0.0,107.21
2025-08-15T05:05:18.073Z,17,GR86-065-5,-17.5,0.415,-1.231,99.75,2.0,,0.0,0.0,
2025-08-15T05:05:18.116Z,17,GR86-065-5,-18.1,0.497,-1.232,99.76,2.0,,0.0,0.0,
2025-08-15T05:05:18.158Z,17,GR86-065-5,-24.6,0.477,-1.036,99.76,2.0,,0.0,0.0,
2025-08-15T05:05:18.202Z,17,GR86-065-5,-28.5,0.283,-0.97,99.76,2.0,6476.0,0.0,0.0,
2025-08-15T05:05:18.245Z,17,GR86-065-5,-28.8,0.123,-0.8210000000000001,99.75,2.0,,0.0,0.0,107.82
2025-08-15T05:05:18.288Z,17,GR86-065-5,-29.5,0.045,-0.791,99.75,2.0,,0.0,0.0,
2025-08-15T05:05:18.374Z,17,GR86-065-5,-34.1,0.261,-0.888,99.77,2.0,,0.0,0.0,
2025-08-15T05:05:18.417Z,17,GR86-065-5,-49.0,0.405,-1.235,99.83,2.0,6556.0,0.0,0.0,
2025-08-15T05:05:18.460Z,17,GR86-065-5,-54.2,0.23,-1.108,99.78,2.0,,0.0,0.0,109.56
2025-08-15T05:05:18.503Z,17,GR86-065-5,-54.3,0.039,-1.174,99.78,2.0,,0.0,0.0,
2025-08-15T05:05:18.546Z,17,GR86-065-5,-54.3,0.035,-1.076,99.78,2.0,,0.0,0.0,
2025-08-15T05:05:18.589Z,17,GR86-065-5,-54.3,0.251,-1.036,99.79,2.0,,0.0,0.0,
2025-08-15T05:05:18.632Z,17,GR86-065-5,-54.400000000000006,0.302,-1.192,99.76,2.0,7107.0,0.0,0.0,
2025-08-15T05:05:18.675Z,17,GR86-065-5,-54.400000000000006,0.289,-1.161,99.77,2.0,,0.0,0.0,110.22
2025-08-15T05:05:18.718Z,17,GR86-065-5,-49.6,0.167,-1.249,99.77,2.0,,0.0,0.0,
2025-08-15T05:05:18.761Z,17,GR86-065-5,-35.2,0.151,-1.144,99.78,2.0,,0.0,0.0,
2025-08-15T05:05:18.804Z,17,GR86-065-5,-28.5,0.218,-1.206,99.78,2.0,,0.0,0.0,
2025-08-15T05:05:18.847Z,17,GR86-065-5,-26.700000000000003,0.246,-1.055,99.78,2.0,6685.0,0.0,0.0,
2025-08-15T05:05:18.890Z,17,GR86-065-5,-26.700000000000003,0.228,-1.071,99.82,2.0,,0.0,0.0,111.71
2025-08-15T05:05:18.933Z,17,GR86-065-5,-31.8,0.236,-1.047,99.8,2.0,,0.0,0.0,
2025-08-15T05:05:19.019Z,17,GR86-065-5,-38.5,0.22,-0.996,99.8,2.0,,0.0,0.0,
2025-08-15T05:05:19.062Z,17,GR86-065-5,-48.8,0.199,-1.073,99.77,2.0,6649.0,0.0,0.0,
2025-08-15T05:05:19.105Z,17,GR86-065-5,-48.8,0.195,-1.03,99.75,2.0,,0.0,0.0,113.22
2025-08-15T05:05:19.148Z,17,GR86-065-5,-48.8,0.214,-1.066,99.78,2.0,,0.0,0.0,
2025-08-15T05:05:19.234Z,17,GR86-065-5,-47.8,0.193,-1.07,99.79,2.0,,0.0,0.0,
2025-08-15T05:05:19.279Z,17,GR86-065-5,-41.8,0.213,-1.043,99.77,2.0,6735.0,0.0,0.0,
2025-08-15T05:05:19.322Z,17,GR86-065-5,-36.9,0.201,-1.01,99.77,2.0,,0.0,0.0,115.16
2025-08-15T05:05:19.365Z,17,GR86-065-5,-34.4,0.19,-1.054,99.77,2.0,,0.0,0.0,
2025-08-15T05:05:19.408Z,17,GR86-065-5,-30.700000000000003,0.202,-1.06,99.77,2.0,,0.0,0.0,
2025-08-15T05:05:19.452Z,17,GR86-065-5,-27.0,0.229,-1.074,99.77,2.0,,0.0,0.0,
2025-08-15T05:05:19.495Z,17,GR86-065-5,-23.4,0.206,-1.086,99.75,2.0,6817.0,0.0,0.0,
2025-08-15T05:05:19.538Z,17,GR86-065-5,-19.5,0.207,-1.125,99.78,2.0,,0.0,0.0,115.21
2025-08-15T05:05:19.581Z,17,GR86-065-5,-17.7,0.22,-1.075,99.78,2.0,,0.0,0.0,
2025-08-15T05:05:19.625Z,17,GR86-065-5,-18.1,0.237,-1.074,99.79,2.0,,0.0,0.0,
2025-08-15T05:05:19.668Z,17,GR86-065-5,-22.3,0.203,-1.072,99.81,2.0,,0.0,0.0,
2025-08-15T05:05:19.711Z,17,GR86-065-5,-29.200000000000003,0.204,-1.064,99.81,2.0,6932.0,0.0,0.0,
2025-08-15T05:05:19.754Z,17,GR86-065-5,-35.800000000000004,0.219,-1.174,99.79,2.0,,0.0,0.0,119.25
2025-08-15T05:05:19.797Z,17,GR86-065-5,-38.6,0.187,-1.2,99.79,2.0,,0.0,0.0,
2025-08-15T05:05:19.842Z,17,GR86-065-5,-43.400000000000006,0.093,-0.8150000000000001,99.8,2.0,,0.0,0.0,
2025-08-15T05:05:19.885Z,17,GR86-065-5,-45.2,0.143,-0.6930000000000001,99.81,2.0,,0.0,0.0,
2025-08-15T05:05:19.928Z,17,GR86-065-5,-46.3,0.038,-0.885,99.77,2.0,7037.0,0.0,0.0,
2025-08-15T05:05:19.971Z,17,GR86-065-5,-46.3,0.143,-0.93,99.79,2.0,,0.0,0.0,119.86
2025-08-15T05:05:20.014Z,17,GR86-065-5,-44.3,0.103,-1.109,99.76,2.0,,0.0,0.0,
2025-08-15T05:05:20.057Z,17,GR86-065-5,-40.3,0.191,-1.006,99.79,2.0,,0.0,0.0,
2025-08-15T05:05:20.100Z,17,GR86-065-5,-33.9,0.189,-1.137,99.77,2.0,,0.0,0.0,
2025-08-15T05:05:20.143Z,17,GR86-065-5,-31.700000000000003,0.222,-0.851,99.77,2.0,7128.0,0.0,0.0,
2025-08-15T05:05:20.187Z,17,GR86-065-5,-29.9,0.138,-0.974,99.79,2.0,,0.0,0.0,120.92
2025-08-15T05:05:20.230Z,17,GR86-065-5,-29.3,0.091,-0.845,99.78,2.0,,0.0,0.0,
2025-08-15T05:05:20.273Z,17,GR86-065-5,-29.3,0.073,-0.791,99.79,2.0,,0.0,0.0,
2025-08-15T05:05:20.316Z,17,GR86-065-5,-27.9,-0.019,-0.998,99.79,2.0,,0.0,0.0,
2025-08-15T05:05:20.359Z,17,GR86-065-5,-25.4,-0.078,-0.964,99.78,3.0,7234.0,0.0,0.0,
2025-08-15T05:05:20.402Z,17,GR86-065-5,-20.8,0.444,-1.051,99.79,3.0,,0.0,0.0,121.93
2025-08-15T05:05:20.445Z,17,GR86-065-5,-13.4,0.28,-1.015,99.78,3.0,,0.0,0.0,
2025-08-15T05:05:20.488Z,17,GR86-065-5,-5.7,0.101,-0.877,99.78,3.0,,0.0,0.0,
2025-08-15T05:05:20.531Z,17,GR86-065-5,0.1,0.245,-0.87,99.79,3.0,,0.0,0.0,
2025-08-15T05:05:20.574Z,17,GR86-065-5,4.5,0.178,-1.01,99.78,3.0,7162.0,0.0,0.0,
2025-08-15T05:05:20.617Z,17,GR86-065-5,11.9,0.257,-0.8290000000000001,99.77,3.0,,0.0,0.0,123.18
2025-08-15T05:05:20.660Z,17,GR86-065-5,20.700000000000003,0.378,-0.851,99.78,3.0,,0.0,0.0,
2025-08-15T05:05:20.703Z,17,GR86-065-5,22.6,0.184,-0.624,99.79,3.0,,0.0,0.0,
2025-08-15T05:05:20.746Z,17,GR86-065-5,22.8,0.212,-0.894,99.79,3.0,,0.0,0.0,
2025-08-15T05:05:20.790Z,17,GR86-065-5,22.700000000000003,0.226,-0.523,99.79,3.0,6390.0,0.0,0.0,
2025-08-15T05:05:20.833Z,17,GR86-065-5,19.1,0.042,-0.754,99.79,3.0,,0.0,0.0,124.97
2025-08-15T05:05:20.876Z,17,GR86-065-5,15.9,-0.108,-0.271,99.78,3.0,,0.0,0.0,
2025-08-15T05:05:20.919Z,17,GR86-065-5,13.0,0.085,-0.628,99.79,3.0,,0.0,0.0,
2025-08-15T05:05:20.962Z,17,GR86-065-5,8.8,0.614,-0.456,99.78,3.0,,0.0,0.0,
2025-08-15T05:05:21.005Z,17,GR86-065-5,4.1000000000000005,0.283,-0.197,99.79,3.0,6135.0,0.0,0.0,
2025-08-15T05:05:21.048Z,17,GR86-065-5,0.4,-0.019,-0.019,99.78,3.0,,0.0,0.0,125.32
2025-08-15T05:05:21.091Z,17,GR86-065-5,-0.4,-0.096,0.131,99.78,3.0,,0.0,0.0,
2025-08-15T05:05:21.134Z,17,GR86-065-5,-0.3,0.007,0.287,99.79,3.0,,0.0,0.0,
2025-08-15T05:05:21.177Z,17,GR86-065-5,-0.3,0.199,0.376,99.8,3.0,,0.0,0.0,
2025-08-15T05:05:21.220Z,17,GR86-065-5,-0.4,0.297,0.277,99.79,3.0,6397.0,0.0,0.0,
2025-08-15T05:05:21.263Z,17,GR86-065-5,-0.5,0.047,0.345,99.79,3.0,,0.0,0.0,126.77
2025-08-15T05:05:21.306Z,17,GR86-065-5,-0.7000000000000001,0.137,0.272,99.78,3.0,,0.0,0.0,
2025-08-15T05:05:21.349Z,17,GR86-065-5,-0.7000000000000001,0.212,0.274,99.79,3.0,,0.0,0.0,
2025-08-15T05:05:21.392Z,17,GR86-065-5,-0.7000000000000001,0.25,0.266,99.79,3.0,,0.0,0.0,
2025-08-15T05:05:21.435Z,17,GR86-065-5,-0.6000000000000001,0.203,0.195,99.78,3.0,6190.0,0.0,0.0,
2025-08-15T05:05:21.478Z,17,GR86-065-5,-0.6000000000000001,0.171,0.178,99.78,3.0,,0.0,0.0,127.98
2025-08-15T05:05:21.521Z,17,GR86-065-5,-0.6000000000000001,0.183,0.174,99.79,3.0,,0.0,0.0,
2025-08-15T05:05:21.565Z,17,GR86-065-5,-0.5,0.237,0.143,99.79,3.0,,0.0,0.0,
2025-08-15T05:05:21.608Z,17,GR86-065-5,-0.2,0.18,0.147,99.78,3.0,,0.0,0.0,
2025-08-15T05:05:21.651Z,17,GR86-065-5,-0.2,0.195,0.116,99.78,3.0,6146.0,0.0,0.0,
2025-08-15T05:05:21.694Z,17,GR86-065-5,-0.2,0.194,0.145,99.79,3.0,,0.0,0.0,129.75
2025-08-15T05:05:21.737Z,17,GR86-065-5,-0.2,0.2,0.158,99.79,3.0,,0.0,0.0,
2025-08-15T05:05:21.780Z,17,GR86-065-5,-0.2,0.217,0.169,99.77,3.0,,0.0,0.0,
2025-08-15T05:05:21.823Z,17,GR86-065-5,-0.2,0.206,0.124,99.79,3.0,,0.0,0.0,
2025-08-15T05:05:21.866Z,17,GR86-065-5,-0.2,0.191,0.124,99.79,3.0,6166.0,0.0,0.0,
2025-08-15T05:05:21.909Z,17,GR86-065-5,-0.2,0.199,0.122,99.79,3.0,,0.0,0.0,131.29
2025-08-15T05:05:21.952Z,17,GR86-065-5,-0.2,0.195,0.131,99.79,3.0,,0.0,0.0,
2025-08-15T05:05:21.995Z,17,GR86-065-5,-0.2,0.187,0.098,99.78,3.0,,0.0,0.0,
2025-08-15T05:05:22.038Z,17,GR86-065-5,-0.2,0.184,0.08,99.79,3.0,,0.0,0.0,
2025-08-15T05:05:22.081Z,17,GR86-065-5,-0.2,0.19,0.061,99.77,3.0,6230.0,0.0,0.0,
2025-08-15T05:05:22.124Z,17,GR86-065-5,-0.2,0.202,0.074,99.78,3.0,,0.0,0.0,132.63
2025-08-15T05:05:22.168Z,17,GR86-065-5,-0.2,0.201,0.091,99.78,3.0,,0.0,0.0,
2025-08-15T05:05:22.211Z,17,GR86-065-5,-0.2,0.187,0.062,99.79,3.0,,0.0,0.0,
2025-08-15T05:05:22.254Z,17,GR86-065-5,-0.2,0.198,0.042,99.78,3.0,,0.0,0.0,
2025-08-15T05:05:22.297Z,17,GR86-065-5,-0.2,0.175,0.05,99.79,3.0,6290.0,0.0,0.0,
2025-08-15T05:05:22.342Z,17,GR86-065-5,-0.2,0.191,0.048,99.79,3.0,,0.0,0.0,135.51
2025-08-15T05:05:22.385Z,17,GR86-065-5,-0.2,0.195,0.07,99.78,3.0,,0.0,0.0,
2025-08-15T05:05:22.428Z,17,GR86-065-5,-0.2,0.191,0.06,99.79,3.0,,0.0,0.0,
2025-08-15T05:05:22.471Z,17,GR86-065-5,-0.2,0.19,0.039,99.79,3.0,,0.0,0.0,
2025-08-15T05:05:22.515Z,17,GR86-065-5,-0.3,0.2,0.03,99.79,3.0,6353.0,0.0,0.0,
2025-08-15T05:05:22.558Z,17,GR86-065-5,-0.3,0.198,0.062,99.78,3.0,,0.0,0.0,136.97
2025-08-15T05:05:22.602Z,17,GR86-065-5,-0.3,0.2,0.036,99.79,3.0,,0.0,0.0,
2025-08-15T05:05:22.645Z,17,GR86-065-5,-0.3,0.201,0.048,99.8,3.0,,0.0,0.0,
2025-08-15T05:05:22.688Z,17,GR86-065-5,-0.3,0.174,0.04,99.79,3.0,,0.0,0.0,
2025-08-15T05:05:22.731Z,17,GR86-065-5,-0.6000000000000001,0.189,0.0,99.79,3.0,6422.0,0.0,0.0,
2025-08-15T05:05:22.774Z,17,GR86-065-5,-1.1,0.197,0.007,99.79,3.0,,0.0,0.0,138.3
2025-08-15T05:05:22.817Z,17,GR86-065-5,-1.6,0.195,0.024,99.8,3.0,,0.0,0.0,
2025-08-15T05:05:22.860Z,17,GR86-065-5,-1.9,0.194,-0.012,99.79,3.0,,0.0,0.0,
2025-08-15T05:05:22.904Z,17,GR86-065-5,-2.0,0.187,-0.004,99.79,3.0,,0.0,0.0,
2025-08-15T05:05:22.947Z,17,GR86-065-5,-2.0,0.153,-0.017,99.79,3.0,6559.0,0.0,0.0,
2025-08-15T05:05:22.990Z,17,GR86-065-5,-2.0,0.173,-0.047,99.78,3.0,,0.0,0.0,139.63
2025-08-15T05:05:23.033Z,17,GR86-065-5,-2.0,0.204,-0.055,99.77,3.0,,0.0,0.0,
2025-08-15T05:05:23.076Z,17,GR86-065-5,-2.0,0.202,-0.033,99.78,3.0,,0.0,0.0,
2025-08-15T05:05:23.120Z,17,GR86-065-5,-2.0,0.201,-0.06,99.79,3.0,,0.0,0.0,
2025-08-15T05:05:23.163Z,17,GR86-065-5,-2.0,0.181,-0.034,99.79,3.0,6611.0,0.0,0.0,
2025-08-15T05:05:23.206Z,17,GR86-065-5,-2.0,0.186,-0.016,99.78,3.0,,0.0,0.0,141.07
2025-08-15T05:05:23.249Z,17,GR86-065-5,-2.0,0.168,-0.022,99.78,3.0,,0.0,0.0,
2025-08-15T05:05:23.292Z,17,GR86-065-5,-2.0,0.19,-0.031,99.78,3.0,,0.0,0.0,
2025-08-15T05:05:23.335Z,17,GR86-065-5,-2.0,0.197,-0.008,99.78,3.0,,0.0,0.0,
2025-08-15T05:05:23.378Z,17,GR86-065-5,-2.0,0.198,0.012,99.78,3.0,6671.0,0.0,0.0,
2025-08-15T05:05:23.421Z,17,GR86-065-5,-2.0,0.203,-0.012,99.79,3.0,,0.0,0.0,142.44
2025-08-15T05:05:23.464Z,17,GR86-065-5,-2.0,0.188,0.019,99.79,3.0,,0.0,0.0,
2025-08-15T05:05:23.507Z,17,GR86-065-5,-2.0,0.162,-0.002,99.79,3.0,,0.0,0.0,
2025-08-15T05:05:23.550Z,17,GR86-065-5,-2.0,0.154,-0.015,99.79,3.0,,0.0,0.0,
2025-08-15T05:05:23.593Z,17,GR86-065-5,-2.1,0.177,-0.03,99.78,3.0,6741.0,0.0,0.0,
2025-08-15T05:05:23.636Z,17,GR86-065-5,-2.2,0.198,-0.015,99.78,3.0,,0.0,0.0,143.78
2025-08-15T05:05:23.679Z,17,GR86-065-5,-2.6,0.189,0.001,99.76,3.0,,0.0,0.0,
2025-08-15T05:05:23.722Z,17,GR86-065-5,-2.8000000000000003,0.2,-0.036,99.79,3.0,,0.0,0.0,
2025-08-15T05:05:23.765Z,17,GR86-065-5,-2.8000000000000003,0.204,-0.017,99.76,3.0,,0.0,0.0,
2025-08-15T05:05:23.808Z,17,GR86-065-5,-2.8000000000000003,0.16,-0.033,99.78,3.0,6794.0,0.0,0.0,
2025-08-15T05:05:23.851Z,17,GR86-065-5,-2.8000000000000003,0.154,-0.067,99.78,3.0,,0.0,0.0,145.08
2025-08-15T05:05:23.894Z,17,GR86-065-5,-2.8000000000000003,0.176,-0.079,99.79,3.0,,0.0,0.0,
2025-08-15T05:05:23.937Z,17,GR86-065-5,-2.9000000000000004,0.208,-0.068,99.78,3.0,,0.0,0.0,
2025-08-15T05:05:23.980Z,17,GR86-065-5,-2.9000000000000004,0.163,-0.093,99.79,3.0,,0.0,0.0,
2025-08-15T05:05:24.023Z,17,GR86-065-5,-2.9000000000000004,0.205,-0.082,99.77,3.0,6857.0,0.0,0.0,
2025-08-15T05:05:24.066Z,17,GR86-065-5,-2.9000000000000004,0.198,-0.055,99.77,3.0,,0.0,0.0,146.32
2025-08-15T05:05:24.109Z,17,GR86-065-5,-3.1,0.189,-0.044,99.79,3.0,,0.0,0.0,
2025-08-15T05:05:24.152Z,17,GR86-065-5,-3.3000000000000003,0.151,-0.062,99.77,3.0,,0.0,0.0,
2025-08-15T05:05:24.281Z,17,GR86-065-5,-3.4000000000000004,0.17,-0.095,99.79,3.0,6920.0,0.0,0.0,147.58
2025-08-15T05:05:24.325Z,17,GR86-065-5,-3.4000000000000004,0.149,-0.093,99.79,3.0,,0.0,0.0,
2025-08-15T05:05:24.368Z,17,GR86-065-5,-3.4000000000000004,0.197,-0.076,99.81,3.0,,0.0,0.0,
2025-08-15T05:05:24.411Z,17,GR86-065-5,-3.4000000000000004,0.199,-0.068,99.81,3.0,,0.0,0.0,
2025-08-15T05:05:24.454Z,17,GR86-065-5,-3.6,0.178,-0.052,99.78,3.0,6970.0,0.0,0.0,
2025-08-15T05:05:24.497Z,17,GR86-065-5,-3.6,0.158,-0.079,99.81,3.0,,0.0,0.0,148.85
2025-08-15T05:05:24.542Z,17,GR86-065-5,-3.7,0.205,-0.049,99.78,3.0,,0.0,0.0,
2025-08-15T05:05:24.585Z,17,GR86-065-5,-3.7,0.172,-0.06,99.8,3.0,,0.0,0.0,
2025-08-15T05:05:24.628Z,17,GR86-065-5,-3.7,0.15,-0.098,99.82,3.0,,0.0,0.0,
2025-08-15T05:05:24.671Z,17,GR86-065-5,-3.7,0.139,-0.11,99.78,3.0,7029.0,0.0,0.0,
2025-08-15T05:05:24.714Z,17,GR86-065-5,-3.7,0.166,-0.11,99.78,3.0,,0.0,0.0,150.07
2025-08-15T05:05:24.757Z,17,GR86-065-5,-3.8,0.185,-0.076,99.76,3.0,,0.0,0.0,
2025-08-15T05:05:24.800Z,17,GR86-065-5,-3.8,0.143,-0.112,99.79,3.0,,0.0,0.0,
2025-08-15T05:05:24.844Z,17,GR86-065-5,-3.8,0.177,-0.096,99.76,3.0,,0.0,0.0,
2025-08-15T05:05:24.887Z,17,GR86-065-5,-3.9,0.195,-0.068,99.78,3.0,7093.0,0.0,0.0,
2025-08-15T05:05:24.930Z,17,GR86-065-5,-3.9,0.185,-0.067,99.81,3.0,,0.0,0.0,151.22
2025-08-15T05:05:24.973Z,17,GR86-065-5,-3.9,0.157,-0.074,99.78,3.0,,0.0,0.0,
2025-08-15T05:05:25.016Z,17,GR86-065-5,-3.9,0.143,-0.101,99.79,3.0,,0.0,0.0,
2025-08-15T05:05:25.059Z,17,GR86-065-5,-3.9,0.13,-0.105,99.75,3.0,,0.0,0.0,
2025-08-15T05:05:25.102Z,17,GR86-065-5,-3.9,0.157,-0.068,99.8,3.0,7138.0,0.0,0.0,
2025-08-15T05:05:25.145Z,17,GR86-065-5,-3.9,0.126,-0.104,99.78,3.0,,0.0,0.0,153.65
2025-08-15T05:05:25.188Z,17,GR86-065-5,-3.9,0.129,-0.091,99.79,3.0,,0.0,0.0,
2025-08-15T05:05:25.231Z,17,GR86-065-5,-3.9,0.139,-0.091,99.79,3.0,,0.0,0.0,
2025-08-15T05:05:25.274Z,17,GR86-065-5,-3.9,0.176,-0.059,99.78,3.0,,0.0,0.0,
2025-08-15T05:05:25.360Z,17,GR86-065-5,-3.9,0.184,-0.046,99.76,3.0,7182.0,0.0,0.0,154.77
2025-08-15T05:05:25.403Z,17,GR86-065-5,-3.9,-0.014,-0.043,99.8,4.0,,0.0,0.0,
2025-08-15T05:05:25.446Z,17,GR86-065-5,-3.9,0.555,-0.096,99.79,4.0,,0.0,0.0,
2025-08-15T05:05:25.489Z,17,GR86-065-5,-3.9,0.286,-0.122,99.79,4.0,,0.0,0.0,
2025-08-15T05:05:25.532Z,17,GR86-065-5,-3.9,0.065,-0.033,99.79,4.0,7242.0,0.0,0.0,
2025-08-15T05:05:25.575Z,17,GR86-065-5,-3.9,-0.007,-0.089,99.79,4.0,,0.0,0.0,155.98
2025-08-15T05:05:25.618Z,17,GR86-065-5,-3.9,0.106,-0.168,99.78,4.0,,0.0,0.0,
2025-08-15T05:05:25.661Z,17,GR86-065-5,-3.9,0.217,-0.066,99.79,4.0,,0.0,0.0,
2025-08-15T05:05:25.704Z,17,GR86-065-5,-3.9,0.115,-0.144,99.8,4.0,,0.0,0.0,
2025-08-15T05:05:25.747Z,17,GR86-065-5,-3.9,0.072,-0.117,99.78,4.0,6038.0,0.0,0.0,
2025-08-15T05:05:25.790Z,17,GR86-065-5,-3.9,0.098,-0.131,99.78,4.0,,0.0,0.0,157.1
2025-08-15T05:05:25.833Z,17,GR86-065-5,-3.9,0.132,-0.136,99.8,4.0,,0.0,0.0,
2025-08-15T05:05:25.876Z,17,GR86-065-5,-4.2,0.144,-0.091,99.78,4.0,,0.0,0.0,
2025-08-15T05:05:25.919Z,17,GR86-065-5,-4.2,0.135,-0.091,99.79,4.0,,0.0,0.0,
2025-08-15T05:05:25.962Z,17,GR86-065-5,-4.2,0.123,-0.134,99.8,4.0,6183.0,0.0,0.0,
2025-08-15T05:05:26.005Z,17,GR86-065-5,-4.2,0.13,-0.113,99.78,4.0,,0.0,0.0,158.28
2025-08-15T05:05:26.048Z,17,GR86-065-5,-4.2,0.144,-0.076,99.79,4.0,,0.0,0.0,
2025-08-15T05:05:26.091Z,17,GR86-065-5,-4.2,0.133,-0.085,99.78,4.0,,0.0,0.0,
2025-08-15T05:05:26.134Z,17,GR86-065-5,-4.2,0.135,-0.089,99.78,4.0,,0.0,0.0,
2025-08-15T05:05:26.177Z,17,GR86-065-5,-4.3,0.137,-0.111,99.79,4.0,6250.0,0.0,0.0,
2025-08-15T05:05:26.222Z,17,GR86-065-5,-4.3,0.129,-0.078,99.78,4.0,,0.0,0.0,159.27
2025-08-15T05:05:26.265Z,17,GR86-065-5,-4.3,0.137,-0.083,99.78,4.0,,0.0,0.0,
2025-08-15T05:05:26.308Z,17,GR86-065-5,-4.3,0.145,-0.083,99.79,4.0,,0.0,0.0,
2025-08-15T05:05:26.352Z,17,GR86-065-5,-4.3,0.138,-0.105,99.79,4.0,,0.0,0.0,
2025-08-15T05:05:26.395Z,17,GR86-065-5,-4.3,0.128,-0.113,99.79,4.0,6298.0,0.0,0.0,
2025-08-15T05:05:26.438Z,17,GR86-065-5,-4.3,0.113,-0.109,99.79,4.0,,0.0,0.0,160.18
2025-08-15T05:05:26.481Z,17,GR86-065-5,-4.3,0.131,-0.085,99.79,4.0,,0.0,0.0,
2025-08-15T05:05:26.524Z,17,GR86-065-5,-4.4,0.152,-0.109,99.78,4.0,,0.0,0.0,
2025-08-15T05:05:26.568Z,17,GR86-065-5,-4.4,0.126,-0.132,99.79,4.0,,0.0,0.0,
2025-08-15T05:05:26.611Z,17,GR86-065-5,-4.4,0.123,-0.139,99.8,4.0,6326.0,0.0,0.0,
2025-08-15T05:05:26.654Z,17,GR86-065-5,-4.4,0.117,-0.15,99.79,4.0,,0.0,0.0,161.06
2025-08-15T05:05:26.697Z,17,GR86-065-5,-4.4,0.139,-0.127,99.78,4.0,,0.0,0.0,
2025-08-15T05:05:26.742Z,17,GR86-065-5,-4.4,0.135,-0.13,99.78,4.0,,0.0,0.0,
2025-08-15T05:05:26.785Z,17,GR86-065-5,-4.4,0.127,-0.14,99.78,4.0,,0.0,0.0,
2025-08-15T05:05:26.828Z,17,GR86-065-5,-4.4,0.112,-0.119,99.78,4.0,6370.0,0.0,0.0,
2025-08-15T05:05:26.871Z,17,GR86-065-5,-4.4,0.127,-0.111,99.79,4.0,,0.0,0.0,161.95000000000002
2025-08-15T05:05:26.914Z,17,GR86-065-5,-4.4,0.131,-0.098,99.78,4.0,,0.0,0.0,
2025-08-15T05:05:26.957Z,17,GR86-065-5,-4.4,0.117,-0.075,99.79,4.0,,0.0,0.0,
2025-08-15T05:05:27.000Z,17,GR86-065-5,-4.5,0.121,-0.113,99.79,4.0,,0.0,0.0,
2025-08-15T05:05:27.043Z,17,GR86-065-5,-4.5,0.134,-0.091,99.78,4.0,6405.0,0.0,0.0,
2025-08-15T05:05:27.086Z,17,GR86-065-5,-4.5,0.138,-0.074,99.78,4.0,,0.0,0.0,162.87
2025-08-15T05:05:27.129Z,17,GR86-065-5,-4.5,0.117,-0.067,99.79,4.0,,0.0,0.0,
2025-08-15T05:05:27.172Z,17,GR86-065-5,-4.5,0.115,-0.057,99.79,4.0,,0.0,0.0,
2025-08-15T05:05:27.215Z,17,GR86-065-5,-4.5,0.116,-0.063,99.79,4.0,,0.0,0.0,
2025-08-15T05:05:27.258Z,17,GR86-065-5,-4.5,0.11,-0.053,99.78,4.0,6432.0,0.0,0.0,
2025-08-15T05:05:27.301Z,17,GR86-065-5,-4.5,0.129,-0.084,99.79,4.0,,0.0,0.0,163.79
2025-08-15T05:05:27.345Z,17,GR86-065-5,-4.5,0.119,-0.057,99.78,4.0,,0.0,0.0,
2025-08-15T05:05:27.388Z,17,GR86-065-5,-4.5,0.122,-0.044,99.78,4.0,,0.0,0.0,
2025-08-15T05:05:27.431Z,17,GR86-065-5,-4.5,0.108,-0.048,99.79,4.0,,0.0,0.0,
2025-08-15T05:05:27.474Z,17,GR86-065-5,-4.5,0.11,-0.068,99.79,4.0,6477.0,0.0,0.0,
2025-08-15T05:05:27.517Z,17,GR86-065-5,-4.5,0.091,-0.079,99.78,4.0,,0.0,0.0,164.76
2025-08-15T05:05:27.560Z,17,GR86-065-5,-4.5,0.136,-0.07,99.78,4.0,,0.0,0.0,
2025-08-15T05:05:27.603Z,17,GR86-065-5,-4.5,0.115,-0.069,99.79,4.0,,0.0,0.0,
2025-08-15T05:05:27.646Z,17,GR86-065-5,-4.5,0.109,-0.078,99.8,4.0,,0.0,0.0,
2025-08-15T05:05:27.690Z,17,GR86-065-5,-4.5,0.093,-0.099,99.79,4.0,6518.0,0.0,0.0,
2025-08-15T05:05:27.733Z,17,GR86-065-5,-4.5,0.096,-0.101,99.79,4.0,,0.0,0.0,165.76
2025-08-15T05:05:27.776Z,17,GR86-065-5,-4.5,0.092,-0.097,99.78,4.0,,0.0,0.0,
2025-08-15T05:05:27.819Z,17,GR86-065-5,-4.5,0.094,-0.102,99.78,4.0,,0.0,0.0,
2025-08-15T05:05:27.862Z,17,GR86-065-5,-4.5,0.133,-0.096,99.79,4.0,,0.0,0.0,
2025-08-15T05:05:27.905Z,17,GR86-065-5,-4.5,0.117,-0.088,99.76,4.0,6559.0,0.0,0.0,
2025-08-15T05:05:27.948Z,17,GR86-065-5,-4.5,0.104,-0.093,99.77,4.0,,0.0,0.0,167.70000000000002
2025-08-15T05:05:27.991Z,17,GR86-065-5,-4.6000000000000005,0.1,-0.08,99.79,4.0,,0.0,0.0,
2025-08-15T05:05:28.034Z,17,GR86-065-5,-4.6000000000000005,0.099,-0.08,99.78,4.0,,0.0,0.0,
2025-08-15T05:05:28.077Z,17,GR86-065-5,-4.6000000000000005,0.097,-0.094,99.78,4.0,,0.0,0.0,
2025-08-15T05:05:28.120Z,17,GR86-065-5,-4.800000000000001,0.139,-0.103,99.76,4.0,6597.0,0.0,0.0,
2025-08-15T05:05:28.164Z,17,GR86-065-5,-4.9,0.127,-0.091,99.78,4.0,,0.0,0.0,168.67000000000002
2025-08-15T05:05:28.207Z,17,GR86-065-5,-4.9,0.127,-0.102,99.8,4.0,,0.0,0.0,
2025-08-15T05:05:28.250Z,17,GR86-065-5,-4.9,0.1,-0.113,99.78,4.0,,0.0,0.0,
2025-08-15T05:05:28.293Z,17,GR86-065-5,-4.9,0.089,-0.113,99.79,4.0,,0.0,0.0,
2025-08-15T05:05:28.336Z,17,GR86-065-5,-5.0,0.102,-0.126,99.79,4.0,6626.0,0.0,0.0,
2025-08-15T05:05:28.379Z,17,GR86-065-5,-5.0,0.089,-0.129,99.78,4.0,,0.0,0.0,169.65
2025-08-15T05:05:28.422Z,17,GR86-065-5,-5.0,0.139,-0.116,99.77,4.0,,0.0,0.0,
2025-08-15T05:05:28.465Z,17,GR86-065-5,-5.0,0.136,-0.108,99.75,4.0,,0.0,0.0,
2025-08-15T05:05:28.508Z,17,GR86-065-5,-5.0,0.125,-0.098,99.78,4.0,,0.0,0.0,
2025-08-15T05:05:28.551Z,17,GR86-065-5,-5.0,0.123,-0.096,99.79,4.0,6709.0,0.0,0.0,
2025-08-15T05:05:28.594Z,17,GR86-065-5,-5.0,0.104,-0.099,99.76,4.0,,0.0,0.0,170.64
2025-08-15T05:05:28.637Z,17,GR86-065-5,-5.0,0.11,-0.093,99.76,4.0,,0.0,0.0,
2025-08-15T05:05:28.680Z,17,GR86-065-5,-5.0,0.131,-0.099,99.77,4.0,,0.0,0.0,
2025-08-15T05:05:28.723Z,17,GR86-065-5,-5.0,0.142,-0.091,99.79,4.0,,0.0,0.0,
2025-08-15T05:05:28.766Z,17,GR86-065-5,-5.0,0.134,-0.094,99.78,4.0,6746.0,0.0,0.0,
2025-08-15T05:05:28.809Z,17,GR86-065-5,-5.0,0.139,-0.098,99.77,4.0,,0.0,0.0,171.69
2025-08-15T05:05:28.852Z,17,GR86-065-5,-5.0,0.133,-0.086,99.79,4.0,,0.0,0.0,
2025-08-15T05:05:28.895Z,17,GR86-065-5,-5.0,0.121,-0.096,99.76,4.0,,0.0,0.0,
2025-08-15T05:05:28.938Z,17,GR86-065-5,-5.0,0.116,-0.096,99.76,4.0,,0.0,0.0,
2025-08-15T05:05:28.981Z,17,GR86-065-5,-5.0,0.099,-0.156,99.77,4.0,6781.0,0.0,0.0,
2025-08-15T05:05:29.024Z,17,GR86-065-5,-5.0,0.107,-0.154,99.77,4.0,,0.0,0.0,172.63
2025-08-15T05:05:29.068Z,17,GR86-065-5,-5.0,0.108,-0.156,99.77,4.0,,0.0,0.0,
2025-08-15T05:05:29.111Z,17,GR86-065-5,-5.0,0.121,-0.155,99.78,4.0,,0.0,0.0,
2025-08-15T05:05:29.154Z,17,GR86-065-5,-5.0,0.121,-0.116,99.77,4.0,,0.0,0.0,
2025-08-15T05:05:29.197Z,17,GR86-065-5,-5.0,0.143,-0.123,99.78,4.0,6826.0,0.0,0.0,
2025-08-15T05:05:29.242Z,17,GR86-065-5,-5.0,0.075,-0.125,99.77,4.0,,0.0,0.0,173.42000000000002
2025-08-15T05:05:29.285Z,17,GR86-065-5,-5.0,0.072,-0.137,99.79,4.0,,0.0,0.0,
2025-08-15T05:05:29.328Z,17,GR86-065-5,-5.0,0.073,-0.153,99.79,4.0,,0.0,0.0,
2025-08-15T05:05:29.371Z,17,GR86-065-5,-5.0,0.068,-0.146,99.79,4.0,,0.0,0.0,
2025-08-15T05:05:29.415Z,17,GR86-065-5,-5.0,0.091,-0.149,99.76,4.0,6854.0,0.0,0.0,
2025-08-15T05:05:29.458Z,17,GR86-065-5,-5.0,0.067,-0.139,99.76,4.0,,0.0,0.0,174.35
2025-08-15T05:05:29.502Z,17,GR86-065-5,-5.0,0.11,-0.08,99.79,4.0,,0.0,0.0,
2025-08-15T05:05:29.545Z,17,GR86-065-5,-5.0,0.138,-0.067,99.78,4.0,,0.0,0.0,
2025-08-15T05:05:29.588Z,17,GR86-065-5,-5.0,0.104,-0.081,99.79,4.0,,0.0,0.0,
2025-08-15T05:05:29.631Z,17,GR86-065-5,-5.0,0.114,-0.08,99.79,4.0,6898.0,0.0,0.0,
2025-08-15T05:05:29.674Z,17,GR86-065-5,-5.0,0.084,-0.072,99.78,4.0,,0.0,0.0,175.34
2025-08-15T05:05:29.717Z,17,GR86-065-5,-5.0,0.109,-0.063,99.76,4.0,,0.0,0.0,
2025-08-15T05:05:29.760Z,17,GR86-065-5,-5.0,0.124,-0.072,99.77,4.0,,0.0,0.0,
2025-08-15T05:05:29.804Z,17,GR86-065-5,-5.0,0.108,-0.072,99.79,4.0,,0.0,0.0,
2025-08-15T05:05:29.847Z,17,GR86-065-5,-5.0,0.115,-0.087,99.78,4.0,6924.0,0.0,0.0,
2025-08-15T05:05:29.890Z,17,GR86-065-5,-5.0,0.114,-0.086,99.78,4.0,,0.0,0.0,176.35
2025-08-15T05:05:29.933Z,17,GR86-065-5,-5.0,0.12,-0.096,99.79,4.0,,0.0,0.0,
2025-08-15T05:05:29.976Z,17,GR86-065-5,-5.0,0.109,-0.103,99.77,4.0,,0.0,0.0,
2025-08-15T05:05:30.019Z,17,GR86-065-5,-5.0,0.103,-0.12,99.77,4.0,,0.0,0.0,
2025-08-15T05:05:30.062Z,17,GR86-065-5,-5.0,0.062,-0.139,99.75,4.0,6969.0,0.0,0.0,
2025-08-15T05:05:30.105Z,17,GR86-065-5,-5.0,0.069,-0.129,99.78,4.0,,0.0,0.0,177.16
2025-08-15T05:05:30.148Z,17,GR86-065-5,-5.0,0.06,-0.136,99.77,4.0,,0.0,0.0,
2025-08-15T05:05:30.191Z,17,GR86-065-5,-5.0,0.066,-0.127,99.77,4.0,,0.0,0.0,
2025-08-15T05:05:30.234Z,17,GR86-065-5,-5.0,0.057,-0.128,99.78,4.0,,0.0,0.0,
2025-08-15T05:05:30.277Z,17,GR86-065-5,-5.0,0.084,-0.098,99.77,4.0,6999.0,0.0,0.0,
2025-08-15T05:05:30.320Z,17,GR86-065-5,-5.0,0.122,-0.072,99.75,4.0,,0.0,0.0,178.02
2025-08-15T05:05:30.364Z,17,GR86-065-5,-5.0,0.114,-0.073,99.76,4.0,,0.0,0.0,
2025-08-15T05:05:30.407Z,17,GR86-065-5,-5.0,0.12,-0.079,99.76,4.0,,0.0,0.0,
2025-08-15T05:05:30.450Z,17,GR86-065-5,-5.0,0.109,-0.061,99.78,4.0,,0.0,0.0,
2025-08-15T05:05:30.493Z,17,GR86-065-5,-5.0,0.123,-0.071,99.77,4.0,7025.0,0.0,0.0,
2025-08-15T05:05:30.536Z,17,GR86-065-5,-5.0,0.109,-0.047,99.78,4.0,,0.0,0.0,179.0
2025-08-15T05:05:30.580Z,17,GR86-065-5,-5.0,0.065,-0.091,99.76,4.0,,0.0,0.0,
2025-08-15T05:05:30.623Z,17,GR86-065-5,-5.0,0.097,-0.094,99.75,4.0,,0.0,0.0,
2025-08-15T05:05:30.666Z,17,GR86-065-5,-5.0,0.093,-0.098,99.78,4.0,,0.0,0.0,
2025-08-15T05:05:30.709Z,17,GR86-065-5,-5.0,0.069,-0.118,99.75,4.0,7061.0,0.0,0.0,
2025-08-15T05:05:30.752Z,17,GR86-065-5,-5.0,0.094,-0.125,99.79,4.0,,0.0,0.0,180.63
2025-08-15T05:05:30.795Z,17,GR86-065-5,-5.0,0.087,-0.132,99.77,4.0,,0.0,0.0,
2025-08-15T05:05:30.838Z,17,GR86-065-5,-5.0,0.093,-0.137,99.78,4.0,,0.0,0.0,
2025-08-15T05:05:30.881Z,17,GR86-065-5,-5.0,0.105,-0.107,99.78,4.0,,0.0,0.0,
2025-08-15T05:05:30.924Z,17,GR86-065-5,-5.0,0.11,-0.098,99.77,4.0,7090.0,0.0,0.0,
2025-08-15T05:05:30.968Z,17,GR86-065-5,-5.0,0.095,-0.108,99.77,4.0,,0.0,0.0,181.42
2025-08-15T05:05:31.011Z,17,GR86-065-5,-5.0,0.095,-0.102,99.77,4.0,,0.0,0.0,
2025-08-15T05:05:31.054Z,17,GR86-065-5,-5.0,0.111,-0.097,99.75,4.0,,0.0,0.0,
2025-08-15T05:05:31.097Z,17,GR86-065-5,-5.0,0.097,-0.089,99.77,4.0,,0.0,0.0,
2025-08-15T05:05:31.142Z,17,GR86-065-5,-5.0,0.09,-0.099,99.76,4.0,7156.0,0.0,0.0,
2025-08-15T05:05:31.185Z,17,GR86-065-5,-5.0,0.074,-0.106,99.77,4.0,,0.0,0.0,182.37
2025-08-15T05:05:31.228Z,17,GR86-065-5,-5.0,0.08,-0.086,99.78,4.0,,0.0,0.0,
2025-08-15T05:05:31.271Z,17,GR86-065-5,-5.0,0.09,-0.085,99.77,4.0,,0.0,0.0,
2025-08-15T05:05:31.314Z,17,GR86-065-5,-5.0,0.092,-0.068,99.76,4.0,,0.0,0.0,
2025-08-15T05:05:31.357Z,17,GR86-065-5,-5.0,0.098,-0.067,99.76,4.0,7190.0,0.0,0.0,
2025-08-15T05:05:31.400Z,17,GR86-065-5,-5.0,0.09,-0.052,99.77,4.0,,0.0,0.0,183.16
2025-08-15T05:05:31.444Z,17,GR86-065-5,-5.0,0.079,-0.057,99.76,4.0,,0.0,0.0,
2025-08-15T05:05:31.487Z,17,GR86-065-5,-5.0,0.103,-0.044,99.76,4.0,,0.0,0.0,
2025-08-15T05:05:31.530Z,17,GR86-065-5,-5.0,0.103,-0.029,99.77,4.0,,0.0,0.0,
2025-08-15T05:05:31.573Z,17,GR86-065-5,-5.0,0.095,-0.043,99.75,4.0,7218.0,0.0,0.0,
2025-08-15T05:05:31.616Z,17,GR86-065-5,-5.0,-0.089,-0.06,99.75,5.0,,0.0,0.0,183.99
2025-08-15T05:05:31.658Z,17,GR86-065-5,-5.0,-0.042,-0.014,99.76,5.0,,0.0,0.0,
2025-08-15T05:05:31.702Z,17,GR86-065-5,-5.0,0.231,-0.144,99.76,5.0,,0.0,0.0,
2025-08-15T05:05:31.745Z,17,GR86-065-5,-5.0,0.009,-0.05,99.77,5.0,,0.0,0.0,
2025-08-15T05:05:31.788Z,17,GR86-065-5,-5.0,-0.035,-0.001,99.76,5.0,7254.0,0.0,0.0,
2025-08-15T05:05:31.831Z,17,GR86-065-5,-5.0,0.082,-0.121,99.76,5.0,,0.0,0.0,184.73
2025-08-15T05:05:31.874Z,17,GR86-065-5,-5.0,0.122,-0.015,99.75,5.0,,0.0,0.0,
2025-08-15T05:05:31.917Z,17,GR86-065-5,-5.0,0.073,-0.048,99.77,5.0,,0.0,0.0,
2025-08-15T05:05:31.960Z,17,GR86-065-5,-5.0,0.066,-0.016,99.77,5.0,,0.0,0.0,
2025-08-15T05:05:32.003Z,17,GR86-065-5,-5.0,0.097,0.001,99.78,5.0,6175.0,0.0,0.0,
2025-08-15T05:05:32.046Z,17,GR86-065-5,-5.0,0.103,-0.003,99.76,5.0,,0.0,0.0,185.29
2025-08-15T05:05:32.089Z,17,GR86-065-5,-5.0,0.068,0.024,99.77,5.0,,0.0,0.0,
2025-08-15T05:05:32.132Z,17,GR86-065-5,-5.0,0.068,-0.001,99.77,5.0,,0.0,0.0,
2025-08-15T05:05:32.175Z,17,GR86-065-5,-5.0,0.09,-0.017,99.76,5.0,,0.0,0.0,
2025-08-15T05:05:32.218Z,17,GR86-065-5,-5.0,0.076,-0.033,99.75,5.0,6293.0,0.0,0.0,
2025-08-15T05:05:32.261Z,17,GR86-065-5,-5.0,0.056,0.0,99.76,5.0,,0.0,0.0,186.25
2025-08-15T05:05:32.304Z,17,GR86-065-5,-5.0,0.057,-0.013,99.76,5.0,,0.0,0.0,
2025-08-15T05:05:32.347Z,17,GR86-065-5,-5.0,0.051,0.013,99.78,5.0,,0.0,0.0,
2025-08-15T05:05:32.390Z,17,GR86-065-5,-5.0,0.063,-0.02,99.76,5.0,,0.0,0.0,
2025-08-15T05:05:32.433Z,17,GR86-065-5,-5.0,0.079,-0.008,99.75,5.0,6362.0,0.0,0.0,
2025-08-15T05:05:32.476Z,17,GR86-065-5,-5.0,0.065,-0.019,99.77,5.0,,0.0,0.0,186.88
2025-08-15T05:05:32.519Z,17,GR86-065-5,-5.0,0.087,-0.044,99.76,5.0,,0.0,0.0,
2025-08-15T05:05:32.562Z,17,GR86-065-5,-5.0,0.073,-0.074,99.79,5.0,,0.0,0.0,
2025-08-15T05:05:32.605Z,17,GR86-065-5,-5.0,0.053,-0.081,99.77,5.0,,0.0,0.0,
2025-08-15T05:05:32.648Z,17,GR86-065-5,-5.0,0.059,-0.082,99.77,5.0,6375.0,0.0,0.0,
2025-08-15T05:05:32.691Z,17,GR86-065-5,-5.0,0.057,-0.076,99.77,5.0,,0.0,0.0,187.51
2025-08-15T05:05:32.734Z,17,GR86-065-5,-5.0,0.038,-0.072,99.75,5.0,,0.0,0.0,
2025-08-15T05:05:32.777Z,17,GR86-065-5,-5.0,0.05,-0.068,99.77,5.0,,0.0,0.0,
2025-08-15T05:05:32.822Z,17,GR86-065-5,-5.0,0.09,-0.082,99.76,5.0,,0.0,0.0,
2025-08-15T05:05:32.865Z,17,GR86-065-5,-5.0,0.068,-0.08,99.77,5.0,6403.0,0.0,0.0,
2025-08-15T05:05:32.908Z,17,GR86-065-5,-5.0,0.086,-0.078,99.76,5.0,,0.0,0.0,188.17
2025-08-15T05:05:32.952Z,17,GR86-065-5,-5.0,0.069,-0.089,99.76,5.0,,0.0,0.0,
2025-08-15T05:05:32.996Z,17,GR86-065-5,-5.0,0.071,-0.108,99.75,5.0,,0.0,0.0,
2025-08-15T05:05:33.038Z,17,GR86-065-5,-5.0,0.051,-0.106,99.77,5.0,,0.0,0.0,
2025-08-15T05:05:33.082Z,17,GR86-065-5,-5.0,0.089,-0.075,99.76,5.0,6428.0,0.0,0.0,
2025-08-15T05:05:33.125Z,17,GR86-065-5,-5.0,0.102,-0.078,99.77,5.0,,0.0,0.0,188.93
2025-08-15T05:05:33.168Z,17,GR86-065-5,-5.0,0.102,-0.069,99.77,5.0,,0.0,0.0,
2025-08-15T05:05:33.211Z,17,GR86-065-5,-5.0,0.082,-0.073,99.78,5.0,,0.0,0.0,
2025-08-15T05:05:33.254Z,17,GR86-065-5,-5.0,0.098,-0.065,99.78,5.0,,0.0,0.0,
2025-08-15T05:05:33.297Z,17,GR86-065-5,-5.0,0.084,-0.047,99.76,5.0,6447.0,0.0,0.0,
2025-08-15T05:05:33.342Z,17,GR86-065-5,-5.0,0.071,-0.03,99.78,5.0,,0.0,0.0,190.26
2025-08-15T05:05:33.385Z,17,GR86-065-5,-5.0,0.076,-0.015,99.76,5.0,,0.0,0.0,
2025-08-15T05:05:33.428Z,17,GR86-065-5,-5.0,0.076,-0.02,99.77,5.0,,0.0,0.0,
2025-08-15T05:05:33.471Z,17,GR86-065-5,-5.0,0.087,-0.021,99.78,5.0,,0.0,0.0,
2025-08-15T05:05:33.514Z,17,GR86-065-5,-5.0,0.11,-0.03,99.78,5.0,6467.0,0.0,0.0,
2025-08-15T05:05:33.557Z,17,GR86-065-5,-5.0,0.111,-0.037,99.76,5.0,,0.0,0.0,190.91
2025-08-15T05:05:33.600Z,17,GR86-065-5,-5.0,0.06,-0.053,99.76,5.0,,0.0,0.0,
2025-08-15T05:05:33.643Z,17,GR86-065-5,-5.0,0.062,-0.061,99.77,5.0,,0.0,0.0,
2025-08-15T05:05:33.686Z,17,GR86-065-5,-5.0,0.064,-0.054,99.77,5.0,,0.0,0.0,
2025-08-15T05:05:33.729Z,17,GR86-065-5,-5.0,0.081,-0.03,99.76,5.0,6486.0,0.0,0.0,
2025-08-15T05:05:33.772Z,17,GR86-065-5,-5.0,0.091,-0.051,99.76,5.0,,0.0,0.0,191.56
2025-08-15T05:05:33.815Z,17,GR86-065-5,-5.0,0.089,-0.043,99.78,5.0,,0.0,0.0,
2025-08-15T05:05:33.858Z,17,GR86-065-5,-5.0,0.11,-0.056,99.76,5.0,,0.0,0.0,
2025-08-15T05:05:33.901Z,17,GR86-065-5,-5.0,0.037,-0.042,99.77,5.0,,0.0,0.0,
2025-08-15T05:05:33.944Z,17,GR86-065-5,-5.0,0.047,-0.037,99.77,5.0,6546.0,0.0,0.0,
2025-08-15T05:05:33.987Z,17,GR86-065-5,-5.0,0.068,-0.04,99.75,5.0,,0.0,0.0,192.23
2025-08-15T05:05:34.030Z,17,GR86-065-5,-5.0,0.063,-0.027,99.78,5.0,,0.0,0.0,
2025-08-15T05:05:34.073Z,17,GR86-065-5,-5.0,0.075,-0.035,99.78,5.0,,0.0,0.0,
2025-08-15T05:05:34.116Z,17,GR86-065-5,-5.0,0.101,-0.05,99.77,5.0,,0.0,0.0,
2025-08-15T05:05:34.159Z,17,GR86-065-5,-5.0,0.103,-0.049,99.77,5.0,6565.0,0.0,0.0,
2025-08-15T05:05:34.202Z,17,GR86-065-5,-5.0,0.052,-0.079,99.76,5.0,,0.0,0.0,193.01
2025-08-15T05:05:34.245Z,17,GR86-065-5,-5.0,0.047,-0.051,99.78,5.0,,0.0,0.0,
2025-08-15T05:05:34.288Z,17,GR86-065-5,-5.0,0.062,-0.03,99.79,5.0,,0.0,0.0,
2025-08-15T05:05:34.331Z,17,GR86-065-5,-5.0,0.062,-0.03,99.76,5.0,,0.0,0.0,
2025-08-15T05:05:34.374Z,17,GR86-065-5,-5.0,0.084,-0.03,99.76,5.0,6581.0,0.0,0.0,
2025-08-15T05:05:34.417Z,17,GR86-065-5,-5.0,0.098,-0.013,99.77,5.0,,0.0,0.0,193.62
2025-08-15T05:05:34.460Z,17,GR86-065-5,-5.0,0.039,-0.035,99.79,5.0,,0.0,0.0,
2025-08-15T05:05:34.503Z,17,GR86-065-5,-5.0,0.05,-0.035,99.77,5.0,,0.0,0.0,
2025-08-15T05:05:34.547Z,17,GR86-065-5,-5.0,0.052,-0.046,99.76,5.0,,0.0,0.0,
2025-08-15T05:05:34.590Z,17,GR86-065-5,-5.0,0.056,-0.048,99.76,5.0,6603.0,0.0,0.0,
2025-08-15T05:05:34.633Z,17,GR86-065-5,-5.0,0.088,-0.037,99.77,5.0,,0.0,0.0,194.42
2025-08-15T05:05:34.676Z,17,GR86-065-5,-5.0,0.102,-0.017,99.78,5.0,,0.0,0.0,
2025-08-15T05:05:34.719Z,17,GR86-065-5,-5.0,0.091,-0.009,99.76,5.0,,0.0,0.0,
2025-08-15T05:05:34.762Z,17,GR86-065-5,-5.0,0.041,-0.03,99.74,5.0,,0.0,0.0,
2025-08-15T05:05:34.805Z,17,GR86-065-5,-5.0,0.043,-0.01,99.77,5.0,6632.0,0.0,0.0,
2025-08-15T05:05:34.848Z,17,GR86-065-5,-5.0,0.058,-0.016,99.76,5.0,,0.0,0.0,195.08
2025-08-15T05:05:34.891Z,17,GR86-065-5,-5.0,0.071,0.002,99.75,5.0,,0.0,0.0,
2025-08-15T05:05:34.934Z,17,GR86-065-5,-5.0,0.086,0.02,99.76,5.0,,0.0,0.0,
2025-08-15T05:05:34.977Z,17,GR86-065-5,-5.0,0.099,0.002,99.77,5.0,,0.0,0.0,
2025-08-15T05:05:35.020Z,17,GR86-065-5,-5.0,0.046,0.005,99.77,5.0,6660.0,0.0,0.0,
2025-08-15T05:05:35.063Z,17,GR86-065-5,-4.9,0.044,0.027,99.75,5.0,,0.0,0.0,195.73
2025-08-15T05:05:35.106Z,17,GR86-065-5,-4.7,0.076,0.053,99.76,5.0,,0.0,0.0,
2025-08-15T05:05:35.149Z,17,GR86-065-5,-4.5,0.076,0.046,99.76,5.0,,0.0,0.0,
2025-08-15T05:05:35.192Z,17,GR86-065-5,-4.4,0.084,0.047,99.76,5.0,,0.0,0.0,
2025-08-15T05:05:35.235Z,17,GR86-065-5,-4.4,0.099,0.044,99.77,5.0,6679.0,0.0,0.0,
2025-08-15T05:05:35.278Z,17,GR86-065-5,-4.4,0.077,0.057,99.78,5.0,,0.0,0.0,196.35
2025-08-15T05:05:35.321Z,17,GR86-065-5,-4.4,0.051,0.057,99.76,5.0,,0.0,0.0,
2025-08-15T05:05:35.365Z,17,GR86-065-5,-4.3,0.096,0.053,99.75,5.0,,0.0,0.0,
2025-08-15T05:05:35.408Z,17,GR86-065-5,-4.3,0.072,0.051,99.75,5.0,,0.0,0.0,
2025-08-15T05:05:35.451Z,17,GR86-065-5,-4.3,0.099,0.051,99.75,5.0,6694.0,0.0,0.0,
2025-08-15T05:05:35.494Z,17,GR86-065-5,-4.3,0.089,0.061,99.78,5.0,,0.0,0.0,196.96
2025-08-15T05:05:35.537Z,17,GR86-065-5,-4.3,0.069,0.073,99.76,5.0,,0.0,0.0,
2025-08-15T05:05:35.580Z,17,GR86-065-5,-4.2,0.061,0.053,99.76,5.0,,0.0,0.0,
2025-08-15T05:05:35.623Z,17,GR86-065-5,-4.2,0.086,0.068,99.76,5.0,,0.0,0.0,
2025-08-15T05:05:35.666Z,17,GR86-065-5,-4.2,0.066,0.082,99.76,5.0,6716.0,0.0,0.0,
2025-08-15T05:05:35.709Z,17,GR86-065-5,-4.2,0.078,0.087,99.78,5.0,,0.0,0.0,197.56
2025-08-15T05:05:35.752Z,17,GR86-065-5,-4.0,0.051,0.084,99.77,5.0,,0.0,0.0,
2025-08-15T05:05:35.795Z,17,GR86-065-5,-3.7,0.047,0.067,99.76,5.0,,0.0,0.0,
2025-08-15T05:05:35.838Z,17,GR86-065-5,-3.4000000000000004,0.051,0.044,99.77,5.0,,0.0,0.0,
2025-08-15T05:05:35.881Z,17,GR86-065-5,-3.4000000000000004,0.059,0.072,99.75,5.0,6739.0,0.0,0.0,
2025-08-15T05:05:35.924Z,17,GR86-065-5,-3.3000000000000003,0.066,0.106,99.76,5.0,,0.0,0.0,198.09
2025-08-15T05:05:35.968Z,17,GR86-065-5,-2.9000000000000004,0.063,0.113,99.76,5.0,,0.0,0.0,
2025-08-15T05:05:36.011Z,17,GR86-065-5,-2.4000000000000004,0.057,0.115,99.75,5.0,,0.0,0.0,
2025-08-15T05:05:36.054Z,17,GR86-065-5,-2.1,0.043,0.108,99.75,5.0,,0.0,0.0,
2025-08-15T05:05:36.097Z,17,GR86-065-5,-2.0,0.064,0.132,99.75,5.0,6755.0,0.0,0.0,
2025-08-15T05:05:36.142Z,17,GR86-065-5,-2.0,0.07,0.177,99.77,5.0,,0.0,0.0,199.34
2025-08-15T05:05:36.185Z,17,GR86-065-5,-2.0,0.057,0.153,99.75,5.0,,0.0,0.0,
2025-08-15T05:05:36.228Z,17,GR86-065-5,-2.0,0.048,0.164,99.76,5.0,,0.0,0.0,
2025-08-15T05:05:36.271Z,17,GR86-065-5,-2.0,0.049,0.144,99.75,5.0,,0.0,0.0,
2025-08-15T05:05:36.315Z,17,GR86-065-5,-2.0,0.059,0.15,99.76,5.0,6783.0,0.0,0.0,
2025-08-15T05:05:36.358Z,17,GR86-065-5,-2.0,0.059,0.128,99.76,5.0,,0.0,0.0,200.0
2025-08-15T05:05:36.402Z,17,GR86-065-5,-2.0,0.045,0.109,99.77,5.0,,0.0,0.0,
2025-08-15T05:05:36.445Z,17,GR86-065-5,-2.0,0.056,0.104,99.76,5.0,,0.0,0.0,
2025-08-15T05:05:36.488Z,17,GR86-065-5,-2.0,0.057,0.102,99.75,5.0,,0.0,0.0,
2025-08-15T05:05:36.531Z,17,GR86-065-5,-2.0,0.062,0.108,99.75,5.0,6801.0,0.0,0.0,
2025-08-15T05:05:36.574Z,17,GR86-065-5,-2.0,0.059,0.078,99.76,5.0,,0.0,0.0,200.7
2025-08-15T05:05:36.617Z,17,GR86-065-5,-1.7000000000000002,0.074,0.108,99.77,5.0,,0.0,0.0,
2025-08-15T05:05:36.660Z,17,GR86-065-5,-1.5,0.049,0.108,99.75,5.0,,0.0,0.0,
2025-08-15T05:05:36.704Z,17,GR86-065-5,-1.6,0.056,0.096,99.77,5.0,,0.0,0.0,
2025-08-15T05:05:36.747Z,17,GR86-065-5,-1.5,0.075,0.102,99.77,5.0,6843.0,0.0,0.0,
2025-08-15T05:05:36.790Z,17,GR86-065-5,-1.6,0.032,0.103,99.76,5.0,,0.0,0.0,201.31
2025-08-15T05:05:36.834Z,17,GR86-065-5,-1.6,0.055,0.123,99.75,5.0,,0.0,0.0,
2025-08-15T05:05:36.877Z,17,GR86-065-5,-1.6,0.048,0.106,99.75,5.0,,0.0,0.0,
2025-08-15T05:05:36.920Z,17,GR86-065-5,-1.6,0.041,0.093,99.76,5.0,,0.0,0.0,
2025-08-15T05:05:36.963Z,17,GR86-065-5,-1.6,0.047,0.099,99.75,5.0,6857.0,0.0,0.0,
2025-08-15T05:05:37.006Z,17,GR86-065-5,-1.6,0.046,0.108,99.75,5.0,,0.0,0.0,202.0
2025-08-15T05:05:37.049Z,17,GR86-065-5,-1.4,0.028,0.121,99.75,5.0,,0.0,0.0,
2025-08-15T05:05:37.092Z,17,GR86-065-5,-1.0,0.052,0.125,99.76,5.0,,0.0,0.0,
2025-08-15T05:05:37.135Z,17,GR86-065-5,-0.5,0.042,0.131,99.76,5.0,,0.0,0.0,
2025-08-15T05:05:37.178Z,17,GR86-065-5,0.0,0.062,0.127,99.75,5.0,6882.0,0.0,0.0,
2025-08-15T05:05:37.221Z,17,GR86-065-5,0.2,0.036,0.155,99.75,5.0,,0.0,0.0,202.52
2025-08-15T05:05:37.265Z,17,GR86-065-5,0.2,0.029,0.16,99.76,5.0,,0.0,0.0,
2025-08-15T05:05:37.394Z,17,GR86-065-5,0.4,0.065,0.196,99.75,5.0,6891.0,0.0,0.0,
2025-08-15T05:05:37.437Z,17,GR86-065-5,0.5,0.04,0.198,99.76,5.0,,0.0,0.0,203.03
2025-08-15T05:05:37.480Z,17,GR86-065-5,0.5,0.038,0.22,99.76,5.0,,0.0,0.0,
2025-08-15T05:05:37.523Z,17,GR86-065-5,0.5,0.042,0.217,99.76,5.0,,0.0,0.0,
2025-08-15T05:05:37.566Z,17,GR86-065-5,0.5,0.041,0.188,99.73,5.0,,0.0,0.0,
2025-08-15T05:05:37.652Z,17,GR86-065-5,0.5,0.04,0.237,99.76,5.0,6922.0,0.0,0.0,203.54
2025-08-15T05:05:37.695Z,17,GR86-065-5,0.5,0.037,0.267,99.75,5.0,,0.0,0.0,
2025-08-15T05:05:37.738Z,17,GR86-065-5,0.5,0.029,0.255,99.73,5.0,,0.0,0.0,
2025-08-15T05:05:37.781Z,17,GR86-065-5,0.5,0.041,0.235,99.75,5.0,,0.0,0.0,
2025-08-15T05:05:37.824Z,17,GR86-065-5,0.5,0.031,0.24,99.75,5.0,6934.0,0.0,0.0,
2025-08-15T05:05:37.868Z,17,GR86-065-5,0.5,0.046,0.256,99.76,5.0,,0.0,0.0,203.98
2025-08-15T05:05:37.911Z,17,GR86-065-5,0.5,0.026,0.235,99.76,5.0,,0.0,0.0,
2025-08-15T05:05:37.954Z,17,GR86-065-5,0.5,0.068,0.197,99.73,5.0,,0.0,0.0,
2025-08-15T05:05:37.997Z,17,GR86-065-5,0.5,0.06,0.204,99.75,5.0,,0.0,0.0,
2025-08-15T05:05:38.041Z,17,GR86-065-5,0.5,0.032,0.218,99.76,5.0,6951.0,0.0,0.0,
2025-08-15T05:05:38.128Z,17,GR86-065-5,0.5,0.061,0.198,99.76,5.0,,0.0,0.0,204.38
2025-08-15T05:05:38.171Z,17,GR86-065-5,0.5,0.085,0.192,99.76,5.0,,0.0,0.0,
2025-08-15T05:05:38.214Z,17,GR86-065-5,0.5,0.052,0.192,99.76,5.0,,0.0,0.0,
2025-08-15T05:05:38.257Z,17,GR86-065-5,0.5,0.05,0.214,99.75,5.0,6965.0,0.0,0.0,
2025-08-15T05:05:38.300Z,17,GR86-065-5,0.7000000000000001,0.072,0.231,99.74,5.0,,0.0,0.0,205.0
2025-08-15T05:05:38.344Z,17,GR86-065-5,1.0,0.061,0.249,99.74,5.0,,0.0,0.0,
2025-08-15T05:05:38.387Z,17,GR86-065-5,1.2000000000000002,0.04,0.243,99.76,5.0,,0.0,0.0,
2025-08-15T05:05:38.430Z,17,GR86-065-5,1.3,0.022,0.268,99.75,5.0,,0.0,0.0,
2025-08-15T05:05:38.473Z,17,GR86-065-5,1.3,0.03,0.317,99.75,5.0,6987.0,0.0,0.0,
2025-08-15T05:05:38.516Z,17,GR86-065-5,1.3,0.047,0.351,99.76,5.0,,0.0,0.0,205.46
2025-08-15T05:05:38.558Z,17,GR86-065-5,1.3,0.062,0.353,99.76,5.0,,0.0,0.0,
2025-08-15T05:05:38.602Z,17,GR86-065-5,1.3,0.016,0.334,99.74,5.0,,0.0,0.0,
2025-08-15T05:05:38.645Z,17,GR86-065-5,1.3,0.035,0.353,99.76,5.0,,0.0,0.0,
2025-08-15T05:05:38.688Z,17,GR86-065-5,1.3,0.061,0.361,99.74,5.0,7007.0,0.0,0.0,
2025-08-15T05:05:38.731Z,17,GR86-065-5,1.3,0.072,0.374,99.76,5.0,,0.0,0.0,206.01
2025-08-15T05:05:38.774Z,17,GR86-065-5,1.3,0.063,0.347,99.75,5.0,,0.0,0.0,
2025-08-15T05:05:38.817Z,17,GR86-065-5,1.3,0.052,0.358,99.74,5.0,,0.0,0.0,
2025-08-15T05:05:38.860Z,17,GR86-065-5,1.3,0.071,0.402,99.76,5.0,,0.0,0.0,
2025-08-15T05:05:38.903Z,17,GR86-065-5,1.3,0.074,0.389,99.76,5.0,7028.0,0.0,0.0,
2025-08-15T05:05:38.946Z,17,GR86-065-5,1.3,0.072,0.352,99.77,5.0,,0.0,0.0,206.98
2025-08-15T05:05:38.989Z,17,GR86-065-5,1.3,0.029,0.298,99.76,5.0,,0.0,0.0,
2025-08-15T05:05:39.032Z,17,GR86-065-5,1.3,0.016,0.258,99.74,5.0,,0.0,0.0,
2025-08-15T05:05:39.075Z,17,GR86-065-5,1.3,0.038,0.261,99.76,5.0,,0.0,0.0,
2025-08-15T05:05:39.118Z,17,GR86-065-5,1.3,0.07,0.287,99.75,5.0,7047.0,0.0,0.0,
2025-08-15T05:05:39.161Z,17,GR86-065-5,1.3,0.029,0.275,99.75,5.0,,0.0,0.0,207.79
2025-08-15T05:05:39.204Z,17,GR86-065-5,1.3,0.042,0.282,99.75,5.0,,0.0,0.0,
2025-08-15T05:05:39.247Z,17,GR86-065-5,1.3,0.067,0.277,99.72,5.0,,0.0,0.0,
2025-08-15T05:05:39.290Z,17,GR86-065-5,1.3,0.08,0.269,99.76,5.0,,0.0,0.0,
2025-08-15T05:05:39.333Z,17,GR86-065-5,1.3,0.057,0.272,99.76,5.0,7065.0,0.0,0.0,
2025-08-15T05:05:39.376Z,17,GR86-065-5,1.3,0.041,0.286,99.76,5.0,,0.0,0.0,208.25
2025-08-15T05:05:39.419Z,17,GR86-065-5,1.3,0.015,0.267,99.76,5.0,,0.0,0.0,
2025-08-15T05:05:39.462Z,17,GR86-065-5,1.3,0.054,0.221,99.72,5.0,,0.0,0.0,
2025-08-15T05:05:39.505Z,17,GR86-065-5,1.3,0.042,0.214,99.75,5.0,,0.0,0.0,
2025-08-15T05:05:39.548Z,17,GR86-065-5,1.6,0.012,0.213,99.76,5.0,7109.0,0.0,0.0,
2025-08-15T05:05:39.591Z,17,GR86-065-5,1.8,0.024,0.225,99.73,5.0,,0.0,0.0,208.99
2025-08-15T05:05:39.634Z,17,GR86-065-5,1.8,0.037,0.236,99.76,5.0,,0.0,0.0,
2025-08-15T05:05:39.677Z,17,GR86-065-5,1.8,0.045,0.248,99.75,5.0,,0.0,0.0,
2025-08-15T05:05:39.722Z,17,GR86-065-5,1.8,0.014,0.287,99.75,5.0,,0.0,0.0,
2025-08-15T05:05:39.765Z,17,GR86-065-5,1.8,0.054,0.342,99.76,5.0,7127.0,0.0,0.0,
2025-08-15T05:05:39.808Z,17,GR86-065-5,1.8,0.054,0.341,68.94,5.0,,11.46,10.865,209.67
2025-08-15T05:05:39.852Z,17,GR86-065-5,1.8,-0.017,0.325,33.76,5.0,,27.97,27.255,
2025-08-15T05:05:39.895Z,17,GR86-065-5,1.8,-0.257,0.335,9.41,5.0,,46.465,45.995,
2025-08-15T05:05:39.938Z,17,GR86-065-5,1.8,-0.734,0.307,4.5600000000000005,5.0,,63.865,63.71,
2025-08-15T05:05:39.981Z,17,GR86-065-5,1.7000000000000002,-1.349,0.252,4.43,5.0,7154.0,84.295,84.51,
2025-08-15T05:05:40.024Z,17,GR86-065-5,1.3,-1.418,0.197,4.2700000000000005,5.0,,94.37,93.21,210.12
2025-08-15T05:05:40.068Z,17,GR86-065-5,1.3,-1.522,0.209,4.08,5.0,,100.67,98.46,
2025-08-15T05:05:40.111Z,17,GR86-065-5,1.3,-1.569,0.27,3.85,5.0,,100.52,99.615,
2025-08-15T05:05:40.154Z,17,GR86-065-5,1.2000000000000002,-1.475,0.22,3.49,5.0,,99.085,98.06,
2025-08-15T05:05:40.197Z,17,GR86-065-5,-0.1,-1.203,0.227,3.06,5.0,6994.0,96.335,94.245,
2025-08-15T05:05:40.242Z,17,GR86-065-5,-1.8,-1.187,0.257,2.83,5.0,,79.47500000000001,78.895,210.49
2025-08-15T05:05:40.285Z,17,GR86-065-5,-2.8000000000000003,-1.215,0.333,2.72,5.0,,74.775,73.75,
2025-08-15T05:05:40.328Z,17,GR86-065-5,-5.300000000000001,-1.096,0.257,2.65,5.0,,73.14,71.295,
2025-08-15T05:05:40.371Z,17,GR86-065-5,-8.200000000000001,-1.232,0.39,2.6,5.0,,71.86,71.08,
2025-08-15T05:05:40.414Z,17,GR86-065-5,-9.9,-1.346,0.336,2.56,5.0,6219.0,71.58500000000001,71.08,
2025-08-15T05:05:40.457Z,17,GR86-065-5,-10.1,-1.342,0.241,2.53,5.0,,75.005,73.17,202.37
2025-08-15T05:05:40.500Z,17,GR86-065-5,-7.1000000000000005,-1.264,0.216,2.49,5.0,,75.37,74.315,
2025-08-15T05:05:40.543Z,17,GR86-065-5,-0.1,-1.261,0.166,2.49,5.0,,77.46000000000001,75.995,
2025-08-15T05:05:40.586Z,17,GR86-065-5,3.7,-1.277,0.206,2.49,5.0,,79.9,77.825,
2025-08-15T05:05:40.629Z,17,GR86-065-5,4.0,-1.299,0.214,20.73,5.0,6058.0,81.715,79.84,
2025-08-15T05:05:40.672Z,17,GR86-065-5,4.0,-1.227,0.158,64.77,5.0,,80.56,79.505,189.99
2025-08-15T05:05:40.715Z,17,GR86-065-5,2.3000000000000003,-1.307,0.109,99.56,5.0,,81.245,79.87,
2025-08-15T05:05:40.758Z,17,GR86-065-5,1.5,-1.271,0.086,92.82,4.0,,83.425,81.365,
2025-08-15T05:05:40.801Z,17,GR86-065-5,1.5,-1.371,0.091,2.06,4.0,,82.465,81.685,
2025-08-15T05:05:40.845Z,17,GR86-065-5,1.3,-1.303,0.177,2.97,4.0,6028.0,85.715,83.73,
2025-08-15T05:05:40.888Z,17,GR86-065-5,1.3,-1.299,0.048,2.91,4.0,,87.865,86.58500000000001,185.86
2025-08-15T05:05:40.931Z,17,GR86-065-5,1.3,-1.222,0.186,2.85,4.0,,87.865,87.18,
2025-08-15T05:05:40.974Z,17,GR86-065-5,1.3,-1.286,0.162,2.81,4.0,,88.05,87.9,
2025-08-15T05:05:41.017Z,17,GR86-065-5,-0.6000000000000001,-1.315,0.151,2.78,4.0,,88.83,88.89,
2025-08-15T05:05:41.060Z,17,GR86-065-5,-1.2000000000000002,-1.305,0.184,2.72,4.0,5687.0,89.745,89.715,
2025-08-15T05:05:41.103Z,17,GR86-065-5,-1.2000000000000002,-1.262,0.153,4.18,4.0,,89.895,89.895,176.4
2025-08-15T05:05:41.189Z,17,GR86-065-5,-1.2000000000000002,-1.259,0.182,42.96,4.0,,89.99,89.99,
2025-08-15T05:05:41.232Z,17,GR86-065-5,-1.2000000000000002,-1.379,0.279,83.43,3.0,,93.33,91.65,
2025-08-15T05:05:41.275Z,17,GR86-065-5,-1.2000000000000002,-1.383,0.179,11.41,3.0,6242.0,92.78,91.225,
2025-08-15T05:05:41.318Z,17,GR86-065-5,-1.7000000000000002,-1.309,0.332,2.65,3.0,,94.675,92.31,169.26
2025-08-15T05:05:41.361Z,17,GR86-065-5,-5.5,-1.176,0.29,2.62,3.0,,91.62,90.965,
2025-08-15T05:05:41.404Z,17,GR86-065-5,-8.0,-1.34,0.288,2.59,3.0,,91.44,90.14,
2025-08-15T05:05:41.447Z,17,GR86-065-5,-8.4,-1.217,0.298,2.59,3.0,,91.65,90.17,
2025-08-15T05:05:41.490Z,17,GR86-065-5,-8.4,-1.136,0.285,2.57,3.0,5928.0,85.745,84.8,
2025-08-15T05:05:41.533Z,17,GR86-065-5,-4.6000000000000005,-1.277,0.327,2.58,3.0,,83.425,82.68,160.67000000000002
2025-08-15T05:05:41.576Z,17,GR86-065-5,-1.9,-1.223,0.235,2.56,3.0,,82.08500000000001,81.93,
2025-08-15T05:05:41.619Z,17,GR86-065-5,-0.6000000000000001,-1.167,0.261,2.56,3.0,,76.865,75.78,
2025-08-15T05:05:41.662Z,17,GR86-065-5,-0.5,-1.158,0.212,2.5500000000000003,3.0,,69.19,67.555,
2025-08-15T05:05:41.705Z,17,GR86-065-5,-0.7000000000000001,-1.082,0.158,2.5500000000000003,3.0,6332.0,66.885,66.215,
2025-08-15T05:05:41.748Z,17,GR86-065-5,-1.3,-1.201,0.155,2.53,3.0,,66.015,65.955,144.91
2025-08-15T05:05:41.791Z,17,GR86-065-5,-1.3,-1.181,0.121,2.54,3.0,,65.77,65.8,
2025-08-15T05:05:41.834Z,17,GR86-065-5,-1.2000000000000002,-1.142,0.098,2.53,3.0,,65.62,65.525,
2025-08-15T05:05:41.877Z,17,GR86-065-5,1.3,-1.179,0.147,2.53,3.0,,65.58500000000001,65.525,
2025-08-15T05:05:41.920Z,17,GR86-065-5,2.4000000000000004,-1.169,0.171,2.53,3.0,6332.0,65.555,65.3,
2025-08-15T05:05:41.964Z,17,GR86-065-5,2.4000000000000004,-1.188,0.195,2.53,3.0,,64.93,64.75,136.69
2025-08-15T05:05:42.007Z,17,GR86-065-5,2.4000000000000004,-1.196,0.161,2.53,3.0,,64.305,64.09,
2025-08-15T05:05:42.050Z,17,GR86-065-5,2.4000000000000004,-1.173,0.173,2.52,3.0,,64.155,63.74,
2025-08-15T05:05:42.093Z,17,GR86-065-5,3.1,-1.185,0.201,2.52,3.0,,63.405,63.435,
2025-08-15T05:05:42.136Z,17,GR86-065-5,4.2,-1.168,0.223,36.09,3.0,5998.0,63.285,63.145,
2025-08-15T05:05:42.179Z,17,GR86-065-5,5.1000000000000005,-1.177,0.26,80.85000000000001,3.0,,63.56,62.995000000000005,129.18
2025-08-15T05:05:42.222Z,17,GR86-065-5,6.2,-1.187,0.329,94.74,2.0,,64.64,63.620000000000005,
2025-08-15T05:05:42.265Z,17,GR86-065-5,7.5,-1.244,0.271,29.51,2.0,,66.33500000000001,64.84,
2025-08-15T05:05:42.308Z,17,GR86-065-5,8.3,-1.332,0.389,3.24,2.0,,68.655,66.455,
2025-08-15T05:05:42.351Z,17,GR86-065-5,9.8,-1.261,0.387,2.97,2.0,5309.0,67.05,66.305,
2025-08-15T05:05:42.394Z,17,GR86-065-5,13.1,-1.19,0.481,2.9,2.0,,65.3,64.33500000000001,121.41
2025-08-15T05:05:42.437Z,17,GR86-065-5,16.6,-1.158,0.587,2.86,2.0,,65.3,64.125,
2025-08-15T05:05:42.480Z,17,GR86-065-5,22.1,-1.131,0.597,2.79,2.0,,65.175,64.125,
2025-08-15T05:05:42.523Z,17,GR86-065-5,27.3,-1.041,0.717,2.75,2.0,,63.085,62.370000000000005,
2025-08-15T05:05:42.566Z,17,GR86-065-5,34.7,-1.072,0.768,2.71,2.0,5938.0,61.39,60.885,
2025-08-15T05:05:42.609Z,17,GR86-065-5,36.3,-0.931,0.858,2.71,2.0,,57.835,56.31,113.78
2025-08-15T05:05:42.652Z,17,GR86-065-5,36.3,-0.935,0.799,2.68,2.0,,54.235,52.68,
2025-08-15T05:05:42.695Z,17,GR86-065-5,35.300000000000004,-0.997,0.778,2.65,2.0,,51.305,49.55,
2025-08-15T05:05:42.738Z,17,GR86-065-5,34.1,-0.752,0.886,2.63,2.0,,45.095,43.89,
2025-08-15T05:05:42.781Z,17,GR86-065-5,34.1,-0.948,0.7010000000000001,2.62,2.0,5690.0,41.46,40.925,
2025-08-15T05:05:42.824Z,17,GR86-065-5,35.1,-0.844,0.845,2.59,2.0,,43.52,42.025,107.11
2025-08-15T05:05:42.867Z,17,GR86-065-5,37.3,-0.8170000000000001,0.864,2.58,2.0,,41.555,40.365,
2025-08-15T05:05:42.911Z,17,GR86-065-5,40.3,-0.881,0.808,2.5500000000000003,2.0,,40.12,39.645,
2025-08-15T05:05:42.954Z,17,GR86-065-5,44.1,-0.868,0.875,2.56,2.0,,40.53,40.15,
2025-08-15T05:05:42.997Z,17,GR86-065-5,47.8,-0.84,0.903,2.5500000000000003,2.0,5260.0,41.08,39.965,
2025-08-15T05:05:43.041Z,17,GR86-065-5,52.900000000000006,-0.798,0.853,2.52,2.0,,39.905,38.96,100.08
2025-08-15T05:05:43.085Z,17,GR86-065-5,55.3,-0.862,0.949,2.53,2.0,,40.62,39.4,
2025-08-15T05:05:43.128Z,17,GR86-065-5,55.6,-0.734,1.021,2.52,2.0,,38.625,37.175,
2025-08-15T05:05:43.171Z,17,GR86-065-5,55.6,-0.6970000000000001,0.908,2.52,2.0,,36.275,35.465,
2025-08-15T05:05:43.215Z,17,GR86-065-5,55.6,-0.6930000000000001,0.917,2.52,2.0,5043.0,34.49,33.875,
2025-08-15T05:05:43.258Z,17,GR86-065-5,55.6,-0.751,0.955,2.52,2.0,,33.22,32.2,94.19
2025-08-15T05:05:43.302Z,17,GR86-065-5,55.6,-0.629,1.051,2.52,2.0,,28.78,27.56,
2025-08-15T05:05:43.345Z,17,GR86-065-5,55.6,-0.626,1.003,2.53,2.0,,24.2,23.24,
2025-08-15T05:05:43.388Z,17,GR86-065-5,57.400000000000006,-0.539,1.058,2.51,2.0,,17.52,16.345,
2025-08-15T05:05:43.431Z,17,GR86-065-5,61.400000000000006,-0.502,1.091,2.52,2.0,4683.0,10.56,9.75,
2025-08-15T05:05:43.474Z,17,GR86-065-5,65.5,-0.337,1.191,2.5,2.0,,4.745,4.12,88.69
2025-08-15T05:05:43.517Z,17,GR86-065-5,68.9,-0.27,1.224,2.49,2.0,,0.0,0.0,
2025-08-15T05:05:43.560Z,17,GR86-065-5,73.5,-0.212,1.225,2.49,2.0,,0.0,0.0,
2025-08-15T05:05:43.604Z,17,GR86-065-5,76.10000000000001,-0.182,1.215,2.49,2.0,,0.0,0.0,
2025-08-15T05:05:43.647Z,17,GR86-065-5,77.2,-0.164,1.235,2.53,2.0,4321.0,0.0,0.0,
2025-08-15T05:05:43.690Z,17,GR86-065-5,77.30000000000001,-0.173,1.262,3.24,2.0,,0.0,0.0,83.67
2025-08-15T05:05:43.733Z,17,GR86-065-5,77.30000000000001,-0.174,1.298,8.040000000000001,2.0,,0.0,0.0,
2025-08-15T05:05:43.776Z,17,GR86-065-5,76.4,-0.181,1.288,19.51,2.0,,0.0,0.0,
2025-08-15T05:05:43.819Z,17,GR86-065-5,75.3,-0.175,1.251,19.79,2.0,,0.0,0.0,
2025-08-15T05:05:43.862Z,17,GR86-065-5,75.0,-0.14,1.325,22.08,2.0,4247.0,0.0,0.0,
2025-08-15T05:05:43.905Z,17,GR86-065-5,74.2,-0.131,1.309,25.14,2.0,,0.0,0.0,79.96000000000001
2025-08-15T05:05:43.948Z,17,GR86-065-5,71.9,-0.115,1.328,28.53,2.0,,0.0,0.0,
2025-08-15T05:05:43.991Z,17,GR86-065-5,67.60000000000001,-0.044,1.309,31.35,2.0,,0.0,0.0,
2025-08-15T05:05:44.034Z,17,GR86-065-5,62.6,0.179,1.25,32.82,2.0,,0.0,0.0,
2025-08-15T05:05:44.077Z,17,GR86-065-5,57.8,0.198,1.226,35.53,2.0,4237.0,0.0,0.0,
2025-08-15T05:05:44.120Z,17,GR86-065-5,50.8,0.211,1.215,43.34,2.0,,0.0,0.0,78.25
2025-08-15T05:05:44.163Z,17,GR86-065-5,46.1,0.221,1.151,48.7,2.0,,0.0,0.0,
2025-08-15T05:05:44.206Z,17,GR86-065-5,41.5,0.217,1.218,54.97,2.0,,0.0,0.0,
2025-08-15T05:05:44.249Z,17,GR86-065-5,36.9,0.213,1.143,59.68,2.0,,0.0,0.0,
2025-08-15T05:05:44.292Z,17,GR86-065-5,31.6,0.246,1.152,67.64,2.0,4377.0,0.0,0.0,
2025-08-15T05:05:44.378Z,17,GR86-065-5,25.1,0.263,1.167,75.57000000000001,2.0,,0.0,0.0,77.10000000000001
2025-08-15T05:05:44.421Z,17,GR86-065-5,12.7,0.302,1.128,95.77,2.0,,0.0,0.0,
2025-08-15T05:05:44.464Z,17,GR86-065-5,11.1,0.31,1.148,99.32,2.0,,0.0,0.0,
2025-08-15T05:05:44.507Z,17,GR86-065-5,11.1,0.303,1.148,99.74,2.0,4527.0,0.0,0.0,
2025-08-15T05:05:44.550Z,17,GR86-065-5,12.1,0.323,1.199,99.75,2.0,,0.0,0.0,76.9
2025-08-15T05:05:44.593Z,17,GR86-065-5,19.9,0.287,1.17,99.77,2.0,,0.0,0.0,
2025-08-15T05:05:44.636Z,17,GR86-065-5,29.0,0.317,1.214,99.77,2.0,,0.0,0.0,
2025-08-15T05:05:44.679Z,17,GR86-065-5,36.3,0.289,1.211,99.75,2.0,,0.0,0.0,
2025-08-15T05:05:44.722Z,17,GR86-065-5,39.900000000000006,0.29,1.234,99.74,2.0,4681.0,0.0,0.0,
2025-08-15T05:05:44.765Z,17,GR86-065-5,39.900000000000006,0.268,1.22,99.74,2.0,,0.0,0.0,78.34
2025-08-15T05:05:44.808Z,17,GR86-065-5,39.900000000000006,0.266,1.206,99.74,2.0,,0.0,0.0,
2025-08-15T05:05:44.851Z,17,GR86-065-5,39.900000000000006,0.247,1.199,99.74,2.0,,0.0,0.0,
2025-08-15T05:05:44.894Z,17,GR86-065-5,39.900000000000006,0.261,1.159,99.74,2.0,,0.0,0.0,
2025-08-15T05:05:44.937Z,17,GR86-065-5,39.900000000000006,0.282,1.145,99.76,2.0,4756.0,0.0,0.0,
2025-08-15T05:05:44.980Z,17,GR86-065-5,39.900000000000006,0.298,1.041,99.75,2.0,,0.0,0.0,79.76
2025-08-15T05:05:45.023Z,17,GR86-065-5,38.0,0.279,1.104,99.76,2.0,,0.0,0.0,
2025-08-15T05:05:45.066Z,17,GR86-065-5,34.800000000000004,0.268,1.04,99.74,2.0,,0.0,0.0,
2025-08-15T05:05:45.109Z,17,GR86-065-5,31.6,0.257,1.022,99.74,2.0,,0.0,0.0,
2025-08-15T05:05:45.152Z,17,GR86-065-5,30.0,0.289,0.982,99.76,2.0,4836.0,0.0,0.0,
2025-08-15T05:05:45.195Z,17,GR86-065-5,30.0,0.301,0.916,99.76,2.0,,0.0,0.0,81.22
2025-08-15T05:05:45.238Z,17,GR86-065-5,30.3,0.309,0.922,99.77,2.0,,0.0,0.0,
2025-08-15T05:05:45.281Z,17,GR86-065-5,36.4,0.29,0.864,99.76,2.0,,0.0,0.0,
2025-08-15T05:05:45.324Z,17,GR86-065-5,40.400000000000006,0.273,0.852,99.75,2.0,,0.0,0.0,
2025-08-15T05:05:45.368Z,17,GR86-065-5,42.1,0.266,0.8220000000000001,99.76,2.0,4909.0,0.0,0.0,
2025-08-15T05:05:45.411Z,17,GR86-065-5,42.3,0.274,0.8280000000000001,99.76,2.0,,0.0,0.0,82.79
2025-08-15T05:05:45.454Z,17,GR86-065-5,42.3,0.29,0.808,99.75,2.0,,0.0,0.0,
2025-08-15T05:05:45.497Z,17,GR86-065-5,42.3,0.262,0.8300000000000001,99.76,2.0,,0.0,0.0,
2025-08-15T05:05:45.542Z,17,GR86-065-5,42.3,0.27,0.862,99.75,2.0,,0.0,0.0,
2025-08-15T05:05:45.585Z,17,GR86-065-5,42.3,0.253,0.837,99.76,2.0,4936.0,0.0,0.0,
2025-08-15T05:05:45.628Z,17,GR86-065-5,42.3,0.286,0.847,99.75,2.0,,0.0,0.0,84.33
2025-08-15T05:05:45.671Z,17,GR86-065-5,42.3,0.238,0.857,99.76,2.0,,0.0,0.0,
2025-08-15T05:05:45.714Z,17,GR86-065-5,42.3,0.286,0.845,99.76,2.0,,0.0,0.0,
2025-08-15T05:05:45.757Z,17,GR86-065-5,42.3,0.232,0.878,99.75,2.0,,0.0,0.0,
2025-08-15T05:05:45.800Z,17,GR86-065-5,42.3,0.257,0.865,99.75,2.0,5059.0,0.0,0.0,
2025-08-15T05:05:45.844Z,17,GR86-065-5,42.3,0.26,0.839,99.75,2.0,,0.0,0.0,85.65
2025-08-15T05:05:45.887Z,17,GR86-065-5,42.3,0.3,0.867,99.75,2.0,,0.0,0.0,
2025-08-15T05:05:45.930Z,17,GR86-065-5,42.3,0.25,0.8290000000000001,99.76,2.0,,0.0,0.0,
2025-08-15T05:05:45.973Z,17,GR86-065-5,41.8,0.265,0.922,99.76,2.0,,0.0,0.0,
2025-08-15T05:05:46.016Z,17,GR86-065-5,39.6,0.252,0.867,99.76,2.0,5154.0,0.0,0.0,
2025-08-15T05:05:46.058Z,17,GR86-065-5,36.9,0.309,0.798,99.76,2.0,,0.0,0.0,88.22
2025-08-15T05:05:46.102Z,17,GR86-065-5,32.5,0.28,0.715,99.76,2.0,,0.0,0.0,
2025-08-15T05:05:46.145Z,17,GR86-065-5,29.5,0.19,0.526,99.76,2.0,,0.0,0.0,
2025-08-15T05:05:46.188Z,17,GR86-065-5,26.3,0.23,0.708,99.75,2.0,,0.0,0.0,
2025-08-15T05:05:46.231Z,17,GR86-065-5,23.0,0.256,0.621,99.76,2.0,5260.0,0.0,0.0,
2025-08-15T05:05:46.274Z,17,GR86-065-5,19.700000000000003,0.335,0.582,99.75,2.0,,0.0,0.0,90.0
2025-08-15T05:05:46.317Z,17,GR86-065-5,18.0,0.232,0.7010000000000001,99.77,2.0,,0.0,0.0,
2025-08-15T05:05:46.360Z,17,GR86-065-5,16.8,0.323,0.588,99.75,2.0,,0.0,0.0,
2025-08-15T05:05:46.403Z,17,GR86-065-5,16.0,0.346,0.612,99.78,2.0,,0.0,0.0,
2025-08-15T05:05:46.446Z,17,GR86-065-5,14.2,0.252,0.528,99.76,2.0,5365.0,0.0,0.0,
2025-08-15T05:05:46.489Z,17,GR86-065-5,12.0,0.236,0.622,99.77,2.0,,0.0,0.0,91.9
2025-08-15T05:05:46.532Z,17,GR86-065-5,9.7,0.285,0.555,99.77,2.0,,0.0,0.0,
2025-08-15T05:05:46.575Z,17,GR86-065-5,7.6,0.275,0.5670000000000001,99.79,2.0,,0.0,0.0,
2025-08-15T05:05:46.618Z,17,GR86-065-5,6.2,0.231,0.486,99.77,2.0,,0.0,0.0,
2025-08-15T05:05:46.661Z,17,GR86-065-5,6.1000000000000005,0.229,0.433,99.77,2.0,5503.0,0.0,0.0,
2025-08-15T05:05:46.704Z,17,GR86-065-5,6.300000000000001,0.207,0.206,99.79,2.0,,0.0,0.0,92.72
2025-08-15T05:05:46.747Z,17,GR86-065-5,6.4,0.254,0.253,99.76,2.0,,0.0,0.0,
2025-08-15T05:05:46.790Z,17,GR86-065-5,6.4,0.327,0.283,99.75,2.0,,0.0,0.0,
2025-08-15T05:05:46.833Z,17,GR86-065-5,6.4,0.374,0.157,99.76,2.0,,0.0,0.0,
2025-08-15T05:05:46.876Z,17,GR86-065-5,6.4,0.362,0.16,99.78,2.0,5616.0,0.0,0.0,
2025-08-15T05:05:46.919Z,17,GR86-065-5,6.4,0.313,0.192,99.78,2.0,,0.0,0.0,94.6
2025-08-15T05:05:46.962Z,17,GR86-065-5,6.2,0.323,0.215,99.79,2.0,,0.0,0.0,
2025-08-15T05:05:47.005Z,17,GR86-065-5,6.2,0.253,0.187,99.77,2.0,,0.0,0.0,
2025-08-15T05:05:47.048Z,17,GR86-065-5,6.2,0.278,0.195,99.79,2.0,,0.0,0.0,
2025-08-15T05:05:47.091Z,17,GR86-065-5,6.2,0.281,0.134,99.79,2.0,5676.0,0.0,0.0,
2025-08-15T05:05:47.134Z,17,GR86-065-5,6.2,0.24,0.183,99.78,2.0,,0.0,0.0,96.53
2025-08-15T05:05:47.177Z,17,GR86-065-5,6.2,0.221,0.129,99.78,2.0,,0.0,0.0,
2025-08-15T05:05:47.222Z,17,GR86-065-5,6.2,0.328,0.176,99.78,2.0,,0.0,0.0,
2025-08-15T05:05:47.265Z,17,GR86-065-5,6.2,0.343,0.128,99.78,2.0,,0.0,0.0,
2025-08-15T05:05:47.308Z,17,GR86-065-5,6.2,0.266,0.105,99.78,2.0,5779.0,0.0,0.0,
2025-08-15T05:05:47.352Z,17,GR86-065-5,6.300000000000001,0.258,0.074,99.78,2.0,,0.0,0.0,100.36
2025-08-15T05:05:47.395Z,17,GR86-065-5,6.300000000000001,0.179,0.022,99.78,2.0,,0.0,0.0,
2025-08-15T05:05:47.438Z,17,GR86-065-5,6.2,0.141,0.03,99.79,2.0,,0.0,0.0,
2025-08-15T05:05:47.481Z,17,GR86-065-5,4.5,0.415,0.052,99.78,2.0,,0.0,0.0,
2025-08-15T05:05:47.524Z,17,GR86-065-5,3.5,0.347,0.019,99.79,2.0,5900.0,0.0,0.0,
2025-08-15T05:05:47.568Z,17,GR86-065-5,2.9000000000000004,0.349,0.128,99.78,2.0,,0.0,0.0,102.19
2025-08-15T05:05:47.611Z,17,GR86-065-5,2.9000000000000004,0.304,0.077,99.78,2.0,,0.0,0.0,
2025-08-15T05:05:47.654Z,17,GR86-065-5,2.9000000000000004,0.231,0.069,99.8,2.0,,0.0,0.0,
2025-08-15T05:05:47.697Z,17,GR86-065-5,2.9000000000000004,0.285,0.1,99.78,2.0,,0.0,0.0,
2025-08-15T05:05:47.742Z,17,GR86-065-5,2.8000000000000003,0.342,-0.006,99.79,2.0,6126.0,0.0,0.0,
2025-08-15T05:05:47.785Z,17,GR86-065-5,2.8000000000000003,0.294,0.024,99.79,2.0,,0.0,0.0,103.97
2025-08-15T05:05:47.828Z,17,GR86-065-5,2.7,0.329,-0.005,99.77,2.0,,0.0,0.0,
2025-08-15T05:05:47.871Z,17,GR86-065-5,2.4000000000000004,0.329,-0.011,99.77,2.0,,0.0,0.0,
2025-08-15T05:05:47.914Z,17,GR86-065-5,1.9,0.33,0.013,99.8,2.0,,0.0,0.0,
2025-08-15T05:05:47.957Z,17,GR86-065-5,1.5,0.371,-0.024,99.78,2.0,6191.0,0.0,0.0,
2025-08-15T05:05:48.000Z,17,GR86-065-5,1.3,0.232,0.051,99.79,2.0,,0.0,0.0,105.76
2025-08-15T05:05:48.043Z,17,GR86-065-5,1.1,0.245,0.046,99.79,2.0,,0.0,0.0,
2025-08-15T05:05:48.086Z,17,GR86-065-5,0.9,0.259,0.03,99.79,2.0,,0.0,0.0,
2025-08-15T05:05:48.130Z,17,GR86-065-5,0.9,0.232,0.007,99.78,2.0,,0.0,0.0,
2025-08-15T05:05:48.173Z,17,GR86-065-5,0.7000000000000001,0.233,-0.045,99.78,2.0,6280.0,0.0,0.0,
2025-08-15T05:05:48.216Z,17,GR86-065-5,0.0,0.273,-0.048,99.78,2.0,,0.0,0.0,107.49
2025-08-15T05:05:48.260Z,17,GR86-065-5,-0.6000000000000001,0.32,-0.003,99.78,2.0,,0.0,0.0,
2025-08-15T05:05:48.303Z,17,GR86-065-5,-0.8,0.28,-0.042,99.79,2.0,,0.0,0.0,
2025-08-15T05:05:48.347Z,17,GR86-065-5,-0.8,0.275,-0.032,99.78,2.0,,0.0,0.0,
2025-08-15T05:05:48.390Z,17,GR86-065-5,-0.9,0.242,0.038,99.79,2.0,6344.0,0.0,0.0,
2025-08-15T05:05:48.433Z,17,GR86-065-5,-0.9,0.292,-0.001,99.79,2.0,,0.0,0.0,109.23
2025-08-15T05:05:48.476Z,17,GR86-065-5,-0.9,0.319,0.018,99.78,2.0,,0.0,0.0,
2025-08-15T05:05:48.520Z,17,GR86-065-5,-1.3,0.291,-0.019,99.79,2.0,,0.0,0.0,
2025-08-15T05:05:48.564Z,17,GR86-065-5,-1.8,0.246,-0.033,99.79,2.0,,0.0,0.0,
2025-08-15T05:05:48.607Z,17,GR86-065-5,-2.0,0.26,-0.056,99.79,2.0,6433.0,0.0,0.0,
2025-08-15T05:05:48.650Z,17,GR86-065-5,-2.0,0.256,-0.045,99.79,2.0,,0.0,0.0,110.85
2025-08-15T05:05:48.693Z,17,GR86-065-5,-2.0,0.275,-0.028,99.78,2.0,,0.0,0.0,
2025-08-15T05:05:48.736Z,17,GR86-065-5,-2.0,0.289,-0.031,99.81,2.0,,0.0,0.0,
2025-08-15T05:05:48.779Z,17,GR86-065-5,-2.0,0.253,0.0,99.82,2.0,,0.0,0.0,
2025-08-15T05:05:48.822Z,17,GR86-065-5,-2.3000000000000003,0.237,-0.008,99.79,2.0,6500.0,0.0,0.0,
2025-08-15T05:05:48.865Z,17,GR86-065-5,-2.3000000000000003,0.272,-0.013,99.78,2.0,,0.0,0.0,112.55
2025-08-15T05:05:48.908Z,17,GR86-065-5,-2.3000000000000003,0.27,-0.013,99.81,2.0,,0.0,0.0,
2025-08-15T05:05:48.952Z,17,GR86-065-5,-2.4000000000000004,0.253,-0.01,99.8,2.0,,0.0,0.0,
2025-08-15T05:05:48.995Z,17,GR86-065-5,-2.3000000000000003,0.294,-0.005,99.79,2.0,,0.0,0.0,
2025-08-15T05:05:49.038Z,17,GR86-065-5,-2.3000000000000003,0.266,0.017,99.79,2.0,6611.0,0.0,0.0,
2025-08-15T05:05:49.081Z,17,GR86-065-5,-2.4000000000000004,0.245,0.008,99.81,2.0,,0.0,0.0,114.03
2025-08-15T05:05:49.124Z,17,GR86-065-5,-2.4000000000000004,0.256,-0.004,99.82,2.0,,0.0,0.0,
2025-08-15T05:05:49.167Z,17,GR86-065-5,-2.4000000000000004,0.29,0.01,99.82,2.0,,0.0,0.0,
2025-08-15T05:05:49.210Z,17,GR86-065-5,-2.4000000000000004,0.244,0.017,99.82,2.0,,0.0,0.0,
2025-08-15T05:05:49.253Z,17,GR86-065-5,-2.4000000000000004,0.258,0.039,99.8,2.0,6704.0,0.0,0.0,
2025-08-15T05:05:49.296Z,17,GR86-065-5,-2.4000000000000004,0.29,0.011,99.79,2.0,,0.0,0.0,115.6
2025-08-15T05:05:49.339Z,17,GR86-065-5,-2.4000000000000004,0.238,0.027,99.8,2.0,,0.0,0.0,
2025-08-15T05:05:49.382Z,17,GR86-065-5,-2.4000000000000004,0.239,0.022,99.81,2.0,,0.0,0.0,
2025-08-15T05:05:49.425Z,17,GR86-065-5,-2.4000000000000004,0.267,0.02,99.79,2.0,,0.0,0.0,
2025-08-15T05:05:49.468Z,17,GR86-065-5,-2.7,0.291,0.022,99.78,2.0,6778.0,0.0,0.0,
2025-08-15T05:05:49.511Z,17,GR86-065-5,-3.6,0.241,0.018,99.81,2.0,,0.0,0.0,117.13
2025-08-15T05:05:49.554Z,17,GR86-065-5,-4.0,0.257,-0.001,99.82,2.0,,0.0,0.0,
2025-08-15T05:05:49.597Z,17,GR86-065-5,-4.0,0.271,-0.017,99.82,2.0,,0.0,0.0,
2025-08-15T05:05:49.642Z,17,GR86-065-5,-4.0,0.279,-0.029,99.83,2.0,,0.0,0.0,
2025-08-15T05:05:49.685Z,17,GR86-065-5,-4.1000000000000005,0.248,-0.023,99.79,2.0,6859.0,0.0,0.0,
2025-08-15T05:05:49.728Z,17,GR86-065-5,-4.1000000000000005,0.256,-0.044,99.82,2.0,,0.0,0.0,118.55
2025-08-15T05:05:49.771Z,17,GR86-065-5,-4.2,0.27,-0.065,99.82,2.0,,0.0,0.0,
2025-08-15T05:05:49.815Z,17,GR86-065-5,-4.2,0.243,-0.064,99.83,2.0,,0.0,0.0,
2025-08-15T05:05:49.858Z,17,GR86-065-5,-4.2,0.25,-0.065,99.82,2.0,,0.0,0.0,
2025-08-15T05:05:49.902Z,17,GR86-065-5,-4.2,0.245,-0.068,99.82,2.0,6926.0,0.0,0.0,
2025-08-15T05:05:49.945Z,17,GR86-065-5,-4.2,0.268,-0.08,99.79,2.0,,0.0,0.0,121.09
2025-08-15T05:05:49.988Z,17,GR86-065-5,-4.2,0.245,-0.061,99.82,2.0,,0.0,0.0,
2025-08-15T05:05:50.031Z,17,GR86-065-5,-4.2,0.244,-0.048,99.8,2.0,,0.0,0.0,
2025-08-15T05:05:50.074Z,17,GR86-065-5,-4.2,0.276,-0.062,99.81,2.0,,0.0,0.0,
2025-08-15T05:05:50.117Z,17,GR86-065-5,-4.2,0.241,-0.045,99.84,2.0,6998.0,0.0,0.0,
2025-08-15T05:05:50.160Z,17,GR86-065-5,-4.2,0.253,-0.046,99.82,2.0,,0.0,0.0,122.26
2025-08-15T05:05:50.204Z,17,GR86-065-5,-4.2,0.227,-0.043,99.84,2.0,,0.0,0.0,
2025-08-15T05:05:50.247Z,17,GR86-065-5,-4.2,0.26,-0.045,99.83,2.0,,0.0,0.0,
2025-08-15T05:05:50.290Z,17,GR86-065-5,-4.2,0.253,-0.029,99.81,2.0,,0.0,0.0,
2025-08-15T05:05:50.333Z,17,GR86-065-5,-4.2,0.239,-0.011,99.82,2.0,7076.0,0.0,0.0,
2025-08-15T05:05:50.376Z,17,GR86-065-5,-4.2,0.258,-0.038,99.82,2.0,,0.0,0.0,123.47
2025-08-15T05:05:50.419Z,17,GR86-065-5,-4.2,0.247,-0.026,99.83,2.0,,0.0,0.0,
2025-08-15T05:05:50.462Z,17,GR86-065-5,-4.2,0.246,-0.04,99.82,2.0,,0.0,0.0,
2025-08-15T05:05:50.505Z,17,GR86-065-5,-4.2,0.249,-0.026,99.83,2.0,,0.0,0.0,
2025-08-15T05:05:50.548Z,17,GR86-065-5,-4.2,0.238,-0.058,99.82,2.0,7203.0,0.0,0.0,
2025-08-15T05:05:50.591Z,17,GR86-065-5,-4.2,0.243,-0.067,99.79,2.0,,0.0,0.0,124.63
2025-08-15T05:05:50.634Z,17,GR86-065-5,-4.2,-0.034,-0.03,99.83,3.0,,0.0,0.0,
2025-08-15T05:05:50.677Z,17,GR86-065-5,-4.2,0.13,-0.012,99.82,3.0,,0.0,0.0,
2025-08-15T05:05:50.720Z,17,GR86-065-5,-4.2,0.403,-0.097,99.81,3.0,,0.0,0.0,
2025-08-15T05:05:50.764Z,17,GR86-065-5,-4.2,0.312,-0.002,99.83,3.0,7265.0,0.0,0.0,
2025-08-15T05:05:50.807Z,17,GR86-065-5,-4.2,0.117,0.03,99.82,3.0,,0.0,0.0,125.77
2025-08-15T05:05:50.850Z,17,GR86-065-5,-4.2,0.084,-0.047,99.82,3.0,,0.0,0.0,
2025-08-15T05:05:50.893Z,17,GR86-065-5,-4.2,0.14,-0.001,99.83,3.0,,0.0,0.0,
2025-08-15T05:05:50.936Z,17,GR86-065-5,-4.2,0.302,-0.028,99.84,3.0,,0.0,0.0,
2025-08-15T05:05:50.980Z,17,GR86-065-5,-4.2,0.232,-0.026,99.83,3.0,6047.0,0.0,0.0,
2025-08-15T05:05:51.024Z,17,GR86-065-5,-4.3,0.198,-0.032,99.82,3.0,,0.0,0.0,126.63
2025-08-15T05:05:51.068Z,17,GR86-065-5,-4.9,0.157,-0.072,99.83,3.0,,0.0,0.0,
2025-08-15T05:05:51.111Z,17,GR86-065-5,-5.0,0.189,-0.082,99.83,3.0,,0.0,0.0,
2025-08-15T05:05:51.154Z,17,GR86-065-5,-5.0,0.243,-0.085,99.82,3.0,,0.0,0.0,
2025-08-15T05:05:51.197Z,17,GR86-065-5,-5.0,0.227,-0.08,99.82,3.0,6055.0,0.0,0.0,
2025-08-15T05:05:51.242Z,17,GR86-065-5,-5.0,0.209,-0.084,99.81,3.0,,0.0,0.0,127.92
2025-08-15T05:05:51.285Z,17,GR86-065-5,-5.0,0.18,-0.085,99.82,3.0,,0.0,0.0,
2025-08-15T05:05:51.328Z,17,GR86-065-5,-5.0,0.208,-0.101,99.82,3.0,,0.0,0.0,
2025-08-15T05:05:51.371Z,17,GR86-065-5,-5.0,0.229,-0.062,99.82,3.0,,0.0,0.0,
2025-08-15T05:05:51.414Z,17,GR86-065-5,-5.0,0.205,-0.068,99.82,3.0,6062.0,0.0,0.0,
2025-08-15T05:05:51.457Z,17,GR86-065-5,-5.0,0.19,-0.06,99.82,3.0,,0.0,0.0,128.74
2025-08-15T05:05:51.500Z,17,GR86-065-5,-3.9,0.185,-0.03,99.82,3.0,,0.0,0.0,
2025-08-15T05:05:51.544Z,17,GR86-065-5,-2.2,0.201,0.009,97.97,3.0,,4.0,3.525,
2025-08-15T05:05:51.587Z,17,GR86-065-5,-0.8,0.204,0.046,45.6,3.0,,9.34,8.975,
2025-08-15T05:05:51.630Z,17,GR86-065-5,-0.1,0.114,0.065,33.97,3.0,6087.0,15.595,15.185,
2025-08-15T05:05:51.673Z,17,GR86-065-5,0.1,0.0,0.112,23.34,3.0,,22.465,22.19,129.59
2025-08-15T05:05:51.716Z,17,GR86-065-5,0.1,-0.15,0.154,5.96,3.0,,29.085,28.935,
2025-08-15T05:05:51.759Z,17,GR86-065-5,0.1,-0.3,0.163,5.89,3.0,,34.9,34.93,
2025-08-15T05:05:51.802Z,17,GR86-065-5,0.1,-0.523,0.18,4.76,3.0,,41.11,41.215,
2025-08-15T05:05:51.845Z,17,GR86-065-5,0.1,-0.651,0.19,4.34,3.0,6114.0,43.2,43.17,
2025-08-15T05:05:51.932Z,17,GR86-065-5,-0.8,-0.705,0.158,4.11,3.0,,43.95,43.645,130.48
2025-08-15T05:05:51.975Z,17,GR86-065-5,-1.2000000000000002,-0.713,0.196,3.48,3.0,,43.705,43.26,
2025-08-15T05:05:52.018Z,17,GR86-065-5,-1.1,-0.801,0.211,3.0,3.0,,43.675,43.17,
2025-08-15T05:05:52.061Z,17,GR86-065-5,-0.4,-0.81,0.322,2.81,3.0,6016.0,43.52,43.17,
2025-08-15T05:05:52.104Z,17,GR86-065-5,1.7000000000000002,-0.807,0.366,2.74,3.0,,43.325,43.17,130.66
2025-08-15T05:05:52.147Z,17,GR86-065-5,2.7,-0.77,0.425,24.93,3.0,,45.335,43.92,
2025-08-15T05:05:52.190Z,17,GR86-065-5,2.7,-0.853,0.502,68.39,3.0,,46.8,45.275,
2025-08-15T05:05:52.233Z,17,GR86-065-5,2.8000000000000003,-0.908,0.49,99.84,3.0,,45.095,44.74,
2025-08-15T05:05:52.276Z,17,GR86-065-5,2.8000000000000003,-0.851,0.534,99.77,3.0,5475.0,44.055,43.89,
2025-08-15T05:05:52.322Z,17,GR86-065-5,2.0,-0.8270000000000001,0.496,22.77,2.0,,43.55,43.17,127.2
2025-08-15T05:05:52.365Z,17,GR86-065-5,2.0,-0.844,0.518,3.43,2.0,,43.08,42.835,
2025-08-15T05:05:52.408Z,17,GR86-065-5,4.4,-0.966,0.427,3.19,2.0,,44.285,43.17,
2025-08-15T05:05:52.452Z,17,GR86-065-5,11.5,-0.868,0.538,3.06,2.0,,44.315,42.545,
2025-08-15T05:05:52.495Z,17,GR86-065-5,17.3,-0.85,0.644,2.97,2.0,5199.0,40.33,39.75,
2025-08-15T05:05:52.538Z,17,GR86-065-5,19.200000000000003,-0.766,0.642,2.9,2.0,,35.77,35.205,122.66
2025-08-15T05:05:52.581Z,17,GR86-065-5,19.200000000000003,-0.67,0.769,2.8000000000000003,2.0,,27.865,26.63,
2025-08-15T05:05:52.624Z,17,GR86-065-5,19.200000000000003,-0.508,0.839,2.75,2.0,,21.15,20.265,
2025-08-15T05:05:52.668Z,17,GR86-065-5,19.200000000000003,-0.5650000000000001,0.801,2.72,2.0,,15.09,14.3,
2025-08-15T05:05:52.711Z,17,GR86-065-5,19.200000000000003,-0.423,0.8290000000000001,2.68,2.0,5891.0,11.125,10.345,
2025-08-15T05:05:52.754Z,17,GR86-065-5,19.200000000000003,-0.359,0.8240000000000001,2.64,2.0,,8.91,7.92,111.34
2025-08-15T05:05:52.797Z,17,GR86-065-5,19.200000000000003,-0.323,0.842,2.62,2.0,,7.37,6.655,
2025-08-15T05:05:52.842Z,17,GR86-065-5,20.6,-0.323,0.869,2.59,2.0,,5.4,4.835,
2025-08-15T05:05:52.885Z,17,GR86-065-5,25.200000000000003,-0.28,0.897,2.5500000000000003,2.0,,4.805,4.365,
2025-08-15T05:05:52.928Z,17,GR86-065-5,31.1,-0.243,0.964,2.5500000000000003,2.0,5880.0,4.53,4.0600000000000005,
2025-08-15T05:05:52.971Z,17,GR86-065-5,34.5,-0.255,0.949,2.53,2.0,,4.625,4.0600000000000005,106.58
2025-08-15T05:05:53.014Z,17,GR86-065-5,37.7,-0.239,1.01,2.52,2.0,,4.47,4.0600000000000005,
2025-08-15T05:05:53.057Z,17,GR86-065-5,38.6,-0.248,0.982,2.49,2.0,,4.805,4.12,
2025-08-15T05:05:53.100Z,17,GR86-065-5,38.6,-0.261,0.971,2.49,2.0,,4.745,4.0600000000000005,
2025-08-15T05:05:53.143Z,17,GR86-065-5,36.3,-0.248,0.995,2.49,2.0,5664.0,4.365,3.845,
2025-08-15T05:05:53.186Z,17,GR86-065-5,35.0,-0.245,0.959,2.49,2.0,,3.405,2.76,103.72
2025-08-15T05:05:53.230Z,17,GR86-065-5,35.0,-0.22,1.042,2.49,2.0,,1.86,0.0,
2025-08-15T05:05:53.273Z,17,GR86-065-5,35.0,-0.194,1.037,2.49,2.0,,0.0,0.0,
2025-08-15T05:05:53.316Z,17,GR86-065-5,36.2,-0.182,1.1,2.49,2.0,,0.0,0.0,
2025-08-15T05:05:53.360Z,17,GR86-065-5,40.6,-0.147,1.138,2.49,2.0,5554.0,0.0,0.0,
2025-08-15T05:05:53.403Z,17,GR86-065-5,42.6,-0.167,1.156,2.49,2.0,,0.0,0.0,101.61
2025-08-15T05:05:53.447Z,17,GR86-065-5,44.1,-0.151,1.175,2.49,2.0,,0.0,0.0,
2025-08-15T05:05:53.490Z,17,GR86-065-5,45.400000000000006,-0.158,1.171,2.49,2.0,,0.0,0.0,
2025-08-15T05:05:53.533Z,17,GR86-065-5,47.8,-0.167,1.173,2.5500000000000003,2.0,,0.0,0.0,
2025-08-15T05:05:53.576Z,17,GR86-065-5,50.0,-0.16,1.196,2.91,2.0,5474.0,0.0,0.0,
2025-08-15T05:05:53.619Z,17,GR86-065-5,53.400000000000006,-0.171,1.227,4.03,2.0,,0.0,0.0,99.95
2025-08-15T05:05:53.662Z,17,GR86-065-5,58.400000000000006,-0.162,1.275,5.64,2.0,,0.0,0.0,
2025-08-15T05:05:53.705Z,17,GR86-065-5,60.6,-0.179,1.246,12.21,2.0,,0.0,0.0,
2025-08-15T05:05:53.748Z,17,GR86-065-5,61.7,-0.171,1.239,17.740000000000002,2.0,,0.0,0.0,
2025-08-15T05:05:53.791Z,17,GR86-065-5,61.7,-0.162,1.29,20.61,2.0,5402.0,0.0,0.0,
2025-08-15T05:05:53.834Z,17,GR86-065-5,61.7,-0.139,1.253,20.81,2.0,,0.0,0.0,98.63
2025-08-15T05:05:53.877Z,17,GR86-065-5,60.1,-0.131,1.285,21.1,2.0,,0.0,0.0,
2025-08-15T05:05:53.920Z,17,GR86-065-5,54.8,-0.097,1.23,22.75,2.0,,0.0,0.0,
2025-08-15T05:05:53.964Z,17,GR86-065-5,53.2,-0.088,1.237,24.81,2.0,,0.0,0.0,
2025-08-15T05:05:54.007Z,17,GR86-065-5,50.5,0.053,1.307,25.16,2.0,5311.0,0.0,0.0,
2025-08-15T05:05:54.050Z,17,GR86-065-5,48.5,0.12,1.252,25.66,2.0,,0.0,0.0,97.3
2025-08-15T05:05:54.093Z,17,GR86-065-5,44.900000000000006,0.142,1.319,26.36,2.0,,0.0,0.0,
2025-08-15T05:05:54.136Z,17,GR86-065-5,37.5,0.1,1.201,27.96,2.0,,0.0,0.0,
2025-08-15T05:05:54.179Z,17,GR86-065-5,31.200000000000003,0.061,1.49,29.66,2.0,,0.0,0.0,
2025-08-15T05:05:54.222Z,17,GR86-065-5,16.5,0.043,1.306,31.16,2.0,5469.0,0.0,0.0,
2025-08-15T05:05:54.265Z,17,GR86-065-5,7.4,0.183,1.387,32.22,2.0,,0.0,0.0,95.96
2025-08-15T05:05:54.308Z,17,GR86-065-5,-0.1,0.224,1.257,32.5,2.0,,0.0,0.0,
2025-08-15T05:05:54.351Z,17,GR86-065-5,-6.0,0.176,1.074,33.0,2.0,,0.0,0.0,
2025-08-15T05:05:54.394Z,17,GR86-065-5,-12.0,0.13,1.015,33.57,2.0,,0.0,0.0,
2025-08-15T05:05:54.437Z,17,GR86-065-5,-15.0,0.208,1.149,34.77,2.0,5542.0,0.0,0.0,
2025-08-15T05:05:54.480Z,17,GR86-065-5,-11.2,0.192,1.025,36.24,2.0,,0.0,0.0,95.04
2025-08-15T05:05:54.523Z,17,GR86-065-5,5.4,0.264,1.253,39.76,2.0,,0.0,0.0,
2025-08-15T05:05:54.566Z,17,GR86-065-5,18.2,0.288,1.199,45.12,2.0,,0.0,0.0,
2025-08-15T05:05:54.609Z,17,GR86-065-5,35.4,0.218,1.182,51.1,2.0,,0.0,0.0,
2025-08-15T05:05:54.652Z,17,GR86-065-5,47.5,0.201,1.239,56.120000000000005,2.0,5611.0,0.0,0.0,
2025-08-15T05:05:54.695Z,17,GR86-065-5,52.0,0.193,1.201,59.76,2.0,,0.0,0.0,95.25
2025-08-15T05:05:54.738Z,17,GR86-065-5,52.400000000000006,0.18,1.183,65.66,2.0,,0.0,0.0,
2025-08-15T05:05:54.781Z,17,GR86-065-5,52.5,0.259,1.243,78.14,2.0,,0.0,0.0,
2025-08-15T05:05:54.868Z,17,GR86-065-5,52.8,0.271,1.19,99.54,2.0,5644.0,0.0,0.0,
2025-08-15T05:05:54.911Z,17,GR86-065-5,52.8,0.22,1.105,99.79,2.0,,0.0,0.0,95.25
2025-08-15T05:05:54.954Z,17,GR86-065-5,52.900000000000006,0.245,1.11,99.78,2.0,,0.0,0.0,
2025-08-15T05:05:54.997Z,17,GR86-065-5,51.3,0.214,1.117,99.78,2.0,,0.0,0.0,
2025-08-15T05:05:55.042Z,17,GR86-065-5,43.8,0.205,1.139,99.79,2.0,,0.0,0.0,
2025-08-15T05:05:55.085Z,17,GR86-065-5,40.0,0.262,1.113,99.79,2.0,5692.0,0.0,0.0,
2025-08-15T05:05:55.128Z,17,GR86-065-5,38.6,0.243,1.059,99.78,2.0,,0.0,0.0,94.91
2025-08-15T05:05:55.172Z,17,GR86-065-5,38.5,0.267,1.05,99.79,2.0,,0.0,0.0,
2025-08-15T05:05:55.215Z,17,GR86-065-5,38.400000000000006,0.248,1.042,99.79,2.0,,0.0,0.0,
2025-08-15T05:05:55.258Z,17,GR86-065-5,38.3,0.245,1.102,99.81,2.0,,0.0,0.0,
2025-08-15T05:05:55.302Z,17,GR86-065-5,37.3,0.249,1.116,99.79,2.0,5736.0,0.0,0.0,
2025-08-15T05:05:55.345Z,17,GR86-065-5,34.0,0.23,1.052,99.79,2.0,,0.0,0.0,99.19
2025-08-15T05:05:55.388Z,17,GR86-065-5,29.200000000000003,0.247,1.098,99.79,2.0,,0.0,0.0,
2025-08-15T05:05:55.431Z,17,GR86-065-5,23.200000000000003,0.225,1.097,99.8,2.0,,0.0,0.0,
2025-08-15T05:05:55.474Z,17,GR86-065-5,16.900000000000002,0.243,1.129,99.79,2.0,,0.0,0.0,
2025-08-15T05:05:55.517Z,17,GR86-065-5,11.6,0.269,1.153,99.79,2.0,5872.0,0.0,0.0,
2025-08-15T05:05:55.560Z,17,GR86-065-5,4.1000000000000005,0.251,1.127,99.79,2.0,,0.0,0.0,100.7
2025-08-15T05:05:55.604Z,17,GR86-065-5,0.2,0.269,1.178,99.79,2.0,,0.0,0.0,
2025-08-15T05:05:55.647Z,17,GR86-065-5,-2.6,0.26,1.142,99.78,2.0,,0.0,0.0,
2025-08-15T05:05:55.690Z,17,GR86-065-5,-3.0,0.264,1.199,99.81,2.0,,0.0,0.0,
2025-08-15T05:05:55.733Z,17,GR86-065-5,-3.0,0.271,1.174,99.79,2.0,6018.0,0.0,0.0,
2025-08-15T05:05:55.776Z,17,GR86-065-5,-3.2,0.242,1.173,99.8,2.0,,0.0,0.0,102.44
2025-08-15T05:05:55.819Z,17,GR86-065-5,-7.6,0.249,1.17,99.8,2.0,,0.0,0.0,
2025-08-15T05:05:55.862Z,17,GR86-065-5,-19.8,0.236,0.997,99.8,2.0,,0.0,0.0,
2025-08-15T05:05:55.905Z,17,GR86-065-5,-35.6,0.267,1.344,99.81,2.0,,0.0,0.0,
2025-08-15T05:05:55.948Z,17,GR86-065-5,-55.400000000000006,0.334,1.276,99.82,2.0,6306.0,0.0,0.0,
2025-08-15T05:05:55.991Z,17,GR86-065-5,-76.0,0.418,1.071,99.82,2.0,,0.0,0.0,103.99
2025-08-15T05:05:56.034Z,17,GR86-065-5,-91.7,0.468,0.846,99.82,2.0,,0.0,0.0,
2025-08-15T05:05:56.077Z,17,GR86-065-5,-95.9,0.204,0.438,99.81,2.0,,0.0,0.0,
2025-08-15T05:05:56.120Z,17,GR86-065-5,-84.5,0.216,0.793,99.85,2.0,,0.0,0.0,
2025-08-15T05:05:56.164Z,17,GR86-065-5,-70.5,0.307,0.903,99.86,2.0,6482.0,0.0,0.0,
2025-08-15T05:05:56.207Z,17,GR86-065-5,-58.3,0.313,1.096,99.87,2.0,,0.0,0.0,105.06
2025-08-15T05:05:56.250Z,17,GR86-065-5,-52.3,0.361,1.283,99.85,2.0,,0.0,0.0,
2025-08-15T05:05:56.293Z,17,GR86-065-5,-52.1,0.364,1.157,99.84,2.0,,0.0,0.0,
2025-08-15T05:05:56.336Z,17,GR86-065-5,-53.1,0.396,1.118,99.82,2.0,,0.0,0.0,
2025-08-15T05:05:56.379Z,17,GR86-065-5,-55.3,0.278,0.964,99.83,2.0,6655.0,0.0,0.0,
2025-08-15T05:05:56.422Z,17,GR86-065-5,-52.2,0.29,0.835,99.84,2.0,,0.0,0.0,106.38
2025-08-15T05:05:56.465Z,17,GR86-065-5,-40.2,0.239,0.859,99.84,2.0,,0.0,0.0,
2025-08-15T05:05:56.508Z,17,GR86-065-5,-26.3,0.291,0.941,99.88,2.0,,0.0,0.0,
2025-08-15T05:05:56.551Z,17,GR86-065-5,-13.1,0.269,1.006,99.85,2.0,,0.0,0.0,
2025-08-15T05:05:56.594Z,17,GR86-065-5,-3.3000000000000003,0.354,0.953,99.85,2.0,6586.0,0.0,0.0,
2025-08-15T05:05:56.637Z,17,GR86-065-5,2.9000000000000004,0.369,0.931,99.85,2.0,,0.0,0.0,106.58
2025-08-15T05:05:56.680Z,17,GR86-065-5,8.1,0.305,1.01,99.83,2.0,,0.0,0.0,
2025-08-15T05:05:56.723Z,17,GR86-065-5,9.2,0.305,0.8200000000000001,99.82,2.0,,0.0,0.0,
