timestamp,lap,vehicle_id,steering_angle,accx_can,accy_can,ath,gear,nmot,pbrake_f,pbrake_r,speed
2025-08-15T01:07:27.662Z,2,GR86-035-11,1.7000000000000002,0.253,0.008,99.86,2.0,,0.0,0.0,
2025-08-15T01:07:27.706Z,2,GR86-035-11,1.6,0.247,0.006,99.86,2.0,,0.0,0.0,
2025-08-15T01:07:27.748Z,2,GR86-035-11,1.6,0.228,0.0,99.86,2.0,,0.0,0.0,
2025-08-15T01:07:27.792Z,2,GR86-035-11,1.6,0.235,0.001,99.86,2.0,6813.0,0.0,0.0,
2025-08-15T01:07:27.834Z,2,GR86-035-11,1.6,0.268,-0.007,99.87,2.0,,0.0,0.0,118.3
2025-08-15T01:07:27.877Z,2,GR86-035-11,1.6,0.265,0.002,99.87,2.0,,0.0,0.0,
2025-08-15T01:07:27.920Z,2,GR86-035-11,1.7000000000000002,0.229,-0.007,99.86,2.0,,0.0,0.0,
2025-08-15T01:07:27.964Z,2,GR86-035-11,1.6,0.227,0.011,99.86,2.0,,0.0,0.0,
2025-08-15T01:07:28.006Z,2,GR86-035-11,1.7000000000000002,0.253,0.017,99.87,2.0,6924.0,0.0,0.0,
2025-08-15T01:07:28.050Z,2,GR86-035-11,1.7000000000000002,0.261,0.02,99.87,2.0,,0.0,0.0,120.04
2025-08-15T01:07:28.093Z,2,GR86-035-11,1.6,0.239,0.021,99.88,2.0,,0.0,0.0,
2025-08-15T01:07:28.136Z,2,GR86-035-11,1.7000000000000002,0.257,0.018,99.89,2.0,,0.0,0.0,
2025-08-15T01:07:28.178Z,2,GR86-035-11,1.6,0.249,0.017,99.86,2.0,,0.0,0.0,
2025-08-15T01:07:28.224Z,2,GR86-035-11,1.6,0.239,0.012,99.87,2.0,7028.0,0.0,0.0,
2025-08-15T01:07:28.267Z,2,GR86-035-11,1.6,0.227,0.005,99.86,2.0,,0.0,0.0,121.8
2025-08-15T01:07:28.310Z,2,GR86-035-11,1.6,0.247,0.004,99.9,2.0,,0.0,0.0,
2025-08-15T01:07:28.353Z,2,GR86-035-11,1.6,0.258,0.014,99.88,2.0,,0.0,0.0,
2025-08-15T01:07:28.396Z,2,GR86-035-11,1.6,0.228,-0.005,99.87,2.0,,0.0,0.0,
2025-08-15T01:07:28.438Z,2,GR86-035-11,1.6,0.215,0.023,99.86,2.0,7139.0,0.0,0.0,
2025-08-15T01:07:28.483Z,2,GR86-035-11,1.6,0.226,0.009,99.88,2.0,,0.0,0.0,123.59
2025-08-15T01:07:28.526Z,2,GR86-035-11,1.6,0.259,0.0,99.88,2.0,,0.0,0.0,
2025-08-15T01:07:28.570Z,2,GR86-035-11,1.6,0.242,-0.012,99.89,2.0,,0.0,0.0,
2025-08-15T01:07:28.613Z,2,GR86-035-11,1.6,0.205,0.004,99.87,2.0,,0.0,0.0,
2025-08-15T01:07:28.656Z,2,GR86-035-11,1.6,0.231,0.02,99.87,2.0,7233.0,0.0,0.0,
2025-08-15T01:07:28.700Z,2,GR86-035-11,1.6,0.201,0.009,99.9,2.0,,0.0,0.0,125.32
2025-08-15T01:07:28.743Z,2,GR86-035-11,1.6,0.156,0.015,99.9,2.0,,0.0,0.0,
2025-08-15T01:07:28.786Z,2,GR86-035-11,1.6,0.093,-0.003,99.89,2.0,,0.0,0.0,
2025-08-15T01:07:28.830Z,2,GR86-035-11,1.6,0.082,-0.016,99.88,2.0,,0.0,0.0,
2025-08-15T01:07:28.873Z,2,GR86-035-11,1.6,0.041,-0.017,99.88,3.0,7300.0,0.0,0.0,
2025-08-15T01:07:28.916Z,2,GR86-035-11,1.6,-0.071,-0.023,99.87,3.0,,0.0,0.0,128.49
2025-08-15T01:07:28.960Z,2,GR86-035-11,1.6,0.599,0.006,99.9,3.0,,0.0,0.0,
2025-08-15T01:07:29.003Z,2,GR86-035-11,1.6,0.338,-0.061,99.9,3.0,,0.0,0.0,
2025-08-15T01:07:29.046Z,2,GR86-035-11,1.6,0.345,0.04,99.89,3.0,,0.0,0.0,
2025-08-15T01:07:29.090Z,2,GR86-035-11,1.6,0.312,-0.049,99.89,3.0,7185.0,0.0,0.0,
2025-08-15T01:07:29.134Z,2,GR86-035-11,1.6,0.247,-0.052,99.9,3.0,,0.0,0.0,129.55
2025-08-15T01:07:29.176Z,2,GR86-035-11,1.6,0.147,0.03,99.89,3.0,,0.0,0.0,
2025-08-15T01:07:29.220Z,2,GR86-035-11,1.6,0.133,-0.026,99.88,3.0,,0.0,0.0,
2025-08-15T01:07:29.264Z,2,GR86-035-11,1.6,0.264,0.026,99.9,3.0,,0.0,0.0,
2025-08-15T01:07:29.306Z,2,GR86-035-11,1.6,0.261,-0.01,99.89,3.0,6191.0,0.0,0.0,
2025-08-15T01:07:29.350Z,2,GR86-035-11,1.6,0.181,0.011,99.89,3.0,,0.0,0.0,131.52
2025-08-15T01:07:29.393Z,2,GR86-035-11,1.6,0.13,0.028,99.9,3.0,,0.0,0.0,
2025-08-15T01:07:29.436Z,2,GR86-035-11,1.6,0.21,0.05,99.89,3.0,,0.0,0.0,
2025-08-15T01:07:29.478Z,2,GR86-035-11,1.6,0.229,0.023,99.89,3.0,,0.0,0.0,
2025-08-15T01:07:29.522Z,2,GR86-035-11,1.6,0.192,0.019,99.9,3.0,6226.0,0.0,0.0,
2025-08-15T01:07:29.564Z,2,GR86-035-11,1.6,0.179,-0.004,99.89,3.0,,0.0,0.0,133.03
2025-08-15T01:07:29.607Z,2,GR86-035-11,1.6,0.179,0.015,99.89,3.0,,0.0,0.0,
2025-08-15T01:07:29.650Z,2,GR86-035-11,1.6,0.216,0.033,99.9,3.0,,0.0,0.0,
2025-08-15T01:07:29.694Z,2,GR86-035-11,1.6,0.218,0.003,99.89,3.0,,0.0,0.0,
2025-08-15T01:07:29.736Z,2,GR86-035-11,1.6,0.189,0.01,99.89,3.0,6278.0,0.0,0.0,
2025-08-15T01:07:29.781Z,2,GR86-035-11,1.7000000000000002,0.176,0.025,99.9,3.0,,0.0,0.0,134.44
2025-08-15T01:07:29.824Z,2,GR86-035-11,2.0,0.189,0.013,99.9,3.0,,0.0,0.0,
2025-08-15T01:07:29.866Z,2,GR86-035-11,2.2,0.19,0.03,99.89,3.0,,0.0,0.0,
2025-08-15T01:07:29.910Z,2,GR86-035-11,2.2,0.208,0.028,99.89,3.0,,0.0,0.0,
2025-08-15T01:07:29.953Z,2,GR86-035-11,2.2,0.193,0.017,99.9,3.0,6351.0,0.0,0.0,
2025-08-15T01:07:29.996Z,2,GR86-035-11,2.2,0.187,0.039,99.91,3.0,,0.0,0.0,135.91
2025-08-15T01:07:30.038Z,2,GR86-035-11,2.5,0.196,0.033,99.9,3.0,,0.0,0.0,
2025-08-15T01:07:30.082Z,2,GR86-035-11,3.0,0.162,0.045,99.9,3.0,,0.0,0.0,
2025-08-15T01:07:30.126Z,2,GR86-035-11,3.4000000000000004,0.205,0.045,99.9,3.0,,0.0,0.0,
2025-08-15T01:07:30.170Z,2,GR86-035-11,3.4000000000000004,0.209,0.054,99.9,3.0,6414.0,0.0,0.0,
2025-08-15T01:07:30.214Z,2,GR86-035-11,3.4000000000000004,0.203,0.053,99.9,3.0,,0.0,0.0,137.36
2025-08-15T01:07:30.257Z,2,GR86-035-11,3.4000000000000004,0.175,0.082,99.9,3.0,,0.0,0.0,
2025-08-15T01:07:30.300Z,2,GR86-035-11,3.4000000000000004,0.186,0.102,99.88,3.0,,0.0,0.0,
2025-08-15T01:07:30.344Z,2,GR86-035-11,3.4000000000000004,0.194,0.078,99.9,3.0,,0.0,0.0,
2025-08-15T01:07:30.386Z,2,GR86-035-11,3.4000000000000004,0.212,0.068,99.88,3.0,6478.0,0.0,0.0,
2025-08-15T01:07:30.430Z,2,GR86-035-11,3.3000000000000003,0.202,0.023,99.9,3.0,,0.0,0.0,138.82
2025-08-15T01:07:30.474Z,2,GR86-035-11,2.5,0.189,0.014,99.9,3.0,,0.0,0.0,
2025-08-15T01:07:30.516Z,2,GR86-035-11,1.7000000000000002,0.177,0.05,99.89,3.0,,0.0,0.0,
2025-08-15T01:07:30.559Z,2,GR86-035-11,1.6,0.209,0.05,99.9,3.0,,0.0,0.0,
2025-08-15T01:07:30.604Z,2,GR86-035-11,1.6,0.171,0.021,99.9,3.0,6553.0,0.0,0.0,
2025-08-15T01:07:30.646Z,2,GR86-035-11,1.6,0.192,0.002,99.9,3.0,,0.0,0.0,140.13
2025-08-15T01:07:30.690Z,2,GR86-035-11,1.6,0.213,-0.03,99.89,3.0,,0.0,0.0,
2025-08-15T01:07:30.734Z,2,GR86-035-11,1.6,0.204,-0.038,99.89,3.0,,0.0,0.0,
2025-08-15T01:07:30.776Z,2,GR86-035-11,1.6,0.178,-0.036,99.9,3.0,,0.0,0.0,
2025-08-15T01:07:30.820Z,2,GR86-035-11,1.6,0.177,-0.023,99.9,3.0,6621.0,0.0,0.0,
2025-08-15T01:07:30.864Z,2,GR86-035-11,1.6,0.162,-0.022,99.9,3.0,,0.0,0.0,141.63
2025-08-15T01:07:30.906Z,2,GR86-035-11,1.6,0.187,0.004,99.9,3.0,,0.0,0.0,
2025-08-15T01:07:30.950Z,2,GR86-035-11,1.6,0.212,-0.005,99.9,3.0,,0.0,0.0,
2025-08-15T01:07:30.993Z,2,GR86-035-11,1.6,0.208,-0.016,99.9,3.0,,0.0,0.0,
2025-08-15T01:07:31.036Z,2,GR86-035-11,1.6,0.182,-0.019,99.91,3.0,6680.0,0.0,0.0,
2025-08-15T01:07:31.078Z,2,GR86-035-11,1.6,0.166,0.007,99.91,3.0,,0.0,0.0,143.05
2025-08-15T01:07:31.123Z,2,GR86-035-11,1.7000000000000002,0.191,0.006,99.88,3.0,,0.0,0.0,
2025-08-15T01:07:31.166Z,2,GR86-035-11,1.7000000000000002,0.173,0.027,99.89,3.0,,0.0,0.0,
2025-08-15T01:07:31.210Z,2,GR86-035-11,1.7000000000000002,0.189,0.023,99.89,3.0,,0.0,0.0,
2025-08-15T01:07:31.254Z,2,GR86-035-11,1.7000000000000002,0.209,0.025,99.9,3.0,6750.0,0.0,0.0,
2025-08-15T01:07:31.297Z,2,GR86-035-11,1.6,0.195,0.0,99.9,3.0,,0.0,0.0,144.51
2025-08-15T01:07:31.341Z,2,GR86-035-11,1.6,0.18,-0.005,99.9,3.0,,0.0,0.0,
2025-08-15T01:07:31.386Z,2,GR86-035-11,1.6,0.186,-0.004,99.9,3.0,,0.0,0.0,
2025-08-15T01:07:31.428Z,2,GR86-035-11,1.5,0.177,-0.012,99.89,3.0,,0.0,0.0,
2025-08-15T01:07:31.472Z,2,GR86-035-11,1.5,0.168,-0.011,99.9,3.0,6822.0,0.0,0.0,
2025-08-15T01:07:31.514Z,2,GR86-035-11,1.5,0.184,-0.008,99.9,3.0,,0.0,0.0,147.41
2025-08-15T01:07:31.557Z,2,GR86-035-11,1.5,0.201,0.001,99.86,3.0,,0.0,0.0,
2025-08-15T01:07:31.600Z,2,GR86-035-11,1.5,0.194,-0.012,99.87,3.0,,0.0,0.0,
2025-08-15T01:07:31.643Z,2,GR86-035-11,1.5,0.209,-0.005,99.89,3.0,,0.0,0.0,
2025-08-15T01:07:31.686Z,2,GR86-035-11,1.5,0.2,-0.015,99.9,3.0,6882.0,0.0,0.0,
2025-08-15T01:07:31.730Z,2,GR86-035-11,1.5,0.174,-0.028,99.9,3.0,,0.0,0.0,148.82
2025-08-15T01:07:31.773Z,2,GR86-035-11,1.5,0.171,-0.005,99.9,3.0,,0.0,0.0,
2025-08-15T01:07:31.816Z,2,GR86-035-11,1.5,0.171,0.02,99.9,3.0,,0.0,0.0,
2025-08-15T01:07:31.860Z,2,GR86-035-11,1.5,0.189,0.026,99.89,3.0,,0.0,0.0,
2025-08-15T01:07:31.904Z,2,GR86-035-11,1.5,0.155,0.013,99.88,3.0,7010.0,0.0,0.0,
2025-08-15T01:07:31.946Z,2,GR86-035-11,1.5,0.174,0.015,99.87,3.0,,0.0,0.0,150.26
2025-08-15T01:07:31.990Z,2,GR86-035-11,1.5,0.191,0.026,99.87,3.0,,0.0,0.0,
2025-08-15T01:07:32.034Z,2,GR86-035-11,1.5,0.203,0.018,99.87,3.0,,0.0,0.0,
2025-08-15T01:07:32.076Z,2,GR86-035-11,1.5,0.184,-0.004,99.89,3.0,,0.0,0.0,
2025-08-15T01:07:32.121Z,2,GR86-035-11,1.5,0.168,-0.016,99.9,3.0,7071.0,0.0,0.0,
2025-08-15T01:07:32.164Z,2,GR86-035-11,1.5,0.186,-0.006,99.87,3.0,,0.0,0.0,151.64
2025-08-15T01:07:32.206Z,2,GR86-035-11,1.5,0.174,-0.006,99.9,3.0,,0.0,0.0,
2025-08-15T01:07:32.250Z,2,GR86-035-11,1.5,0.169,-0.002,99.88,3.0,,0.0,0.0,
2025-08-15T01:07:32.293Z,2,GR86-035-11,1.5,0.166,0.0,99.9,3.0,,0.0,0.0,
2025-08-15T01:07:32.336Z,2,GR86-035-11,1.4,0.178,0.007,99.89,3.0,7136.0,0.0,0.0,
2025-08-15T01:07:32.378Z,2,GR86-035-11,1.4,0.195,0.002,99.9,3.0,,0.0,0.0,152.97
2025-08-15T01:07:32.424Z,2,GR86-035-11,1.4,0.173,-0.014,99.9,3.0,,0.0,0.0,
2025-08-15T01:07:32.466Z,2,GR86-035-11,1.4,0.194,-0.022,99.9,3.0,,0.0,0.0,
2025-08-15T01:07:32.510Z,2,GR86-035-11,1.3,0.193,-0.02,99.89,3.0,,0.0,0.0,
2025-08-15T01:07:32.553Z,2,GR86-035-11,1.2000000000000002,0.169,-0.032,99.87,3.0,7195.0,0.0,0.0,
2025-08-15T01:07:32.596Z,2,GR86-035-11,1.2000000000000002,0.169,-0.026,99.9,3.0,,0.0,0.0,154.32
2025-08-15T01:07:32.638Z,2,GR86-035-11,1.2000000000000002,0.165,-0.022,99.91,3.0,,0.0,0.0,
2025-08-15T01:07:32.683Z,2,GR86-035-11,1.2000000000000002,0.175,-0.02,99.9,3.0,,0.0,0.0,
2025-08-15T01:07:32.726Z,2,GR86-035-11,1.2000000000000002,0.156,-0.037,99.9,3.0,,0.0,0.0,
2025-08-15T01:07:32.770Z,2,GR86-035-11,1.2000000000000002,0.151,-0.032,99.88,3.0,7256.0,0.0,0.0,
2025-08-15T01:07:32.813Z,2,GR86-035-11,1.2000000000000002,0.141,-0.036,99.9,3.0,,0.0,0.0,155.74
2025-08-15T01:07:32.856Z,2,GR86-035-11,1.2000000000000002,0.129,-0.015,99.9,3.0,,0.0,0.0,
2025-08-15T01:07:32.900Z,2,GR86-035-11,1.2000000000000002,0.119,-0.024,99.89,3.0,,0.0,0.0,
2025-08-15T01:07:32.943Z,2,GR86-035-11,1.2000000000000002,0.056,-0.012,99.9,3.0,,0.0,0.0,
2025-08-15T01:07:32.986Z,2,GR86-035-11,1.2000000000000002,0.005,-0.011,99.87,4.0,7302.0,0.0,0.0,
2025-08-15T01:07:33.030Z,2,GR86-035-11,1.2000000000000002,-0.079,0.006,99.9,4.0,,0.0,0.0,157.12
2025-08-15T01:07:33.074Z,2,GR86-035-11,1.2000000000000002,0.403,-0.001,99.9,4.0,,0.0,0.0,
2025-08-15T01:07:33.116Z,2,GR86-035-11,1.2000000000000002,0.322,-0.079,99.9,4.0,,0.0,0.0,
2025-08-15T01:07:33.159Z,2,GR86-035-11,1.2000000000000002,0.227,-0.016,99.9,4.0,,0.0,0.0,
2025-08-15T01:07:33.204Z,2,GR86-035-11,1.2000000000000002,0.197,-0.075,99.89,4.0,6724.0,0.0,0.0,
2025-08-15T01:07:33.246Z,2,GR86-035-11,1.2000000000000002,0.073,-0.05,99.88,4.0,,0.0,0.0,158.15
2025-08-15T01:07:33.290Z,2,GR86-035-11,1.2000000000000002,0.13,-0.031,99.9,4.0,,0.0,0.0,
2025-08-15T01:07:33.333Z,2,GR86-035-11,1.2000000000000002,0.179,-0.079,99.91,4.0,,0.0,0.0,
2025-08-15T01:07:33.376Z,2,GR86-035-11,1.2000000000000002,0.158,-0.033,99.89,4.0,,0.0,0.0,
2025-08-15T01:07:33.419Z,2,GR86-035-11,1.2000000000000002,0.098,-0.027,99.9,4.0,6266.0,0.0,0.0,
2025-08-15T01:07:33.464Z,2,GR86-035-11,1.2000000000000002,0.141,-0.024,99.9,4.0,,0.0,0.0,159.42000000000002
2025-08-15T01:07:33.506Z,2,GR86-035-11,1.2000000000000002,0.157,-0.016,99.9,4.0,,0.0,0.0,
2025-08-15T01:07:33.550Z,2,GR86-035-11,1.2000000000000002,0.139,-0.019,99.87,4.0,,0.0,0.0,
2025-08-15T01:07:33.593Z,2,GR86-035-11,1.2000000000000002,0.105,-0.015,99.91,4.0,,0.0,0.0,
2025-08-15T01:07:33.636Z,2,GR86-035-11,1.2000000000000002,0.111,-0.011,99.89,4.0,6335.0,0.0,0.0,
2025-08-15T01:07:33.678Z,2,GR86-035-11,1.2000000000000002,0.147,-0.019,99.89,4.0,,0.0,0.0,160.75
2025-08-15T01:07:33.722Z,2,GR86-035-11,1.2000000000000002,0.126,-0.032,99.9,4.0,,0.0,0.0,
2025-08-15T01:07:33.764Z,2,GR86-035-11,1.2000000000000002,0.107,-0.038,99.89,4.0,,0.0,0.0,
2025-08-15T01:07:33.807Z,2,GR86-035-11,1.2000000000000002,0.129,-0.017,99.9,4.0,,0.0,0.0,
2025-08-15T01:07:33.850Z,2,GR86-035-11,1.2000000000000002,0.132,-0.015,99.88,4.0,6359.0,0.0,0.0,
2025-08-15T01:07:33.894Z,2,GR86-035-11,1.2000000000000002,0.135,-0.017,99.89,4.0,,0.0,0.0,161.89
2025-08-15T01:07:33.936Z,2,GR86-035-11,1.2000000000000002,0.144,-0.056,99.9,4.0,,0.0,0.0,
2025-08-15T01:07:33.981Z,2,GR86-035-11,1.2000000000000002,0.157,-0.059,99.9,4.0,,0.0,0.0,
2025-08-15T01:07:34.024Z,2,GR86-035-11,1.2000000000000002,0.123,-0.018,99.9,4.0,,0.0,0.0,
2025-08-15T01:07:34.066Z,2,GR86-035-11,1.2000000000000002,0.122,-0.007,99.88,4.0,6389.0,0.0,0.0,
2025-08-15T01:07:34.110Z,2,GR86-035-11,1.2000000000000002,0.148,-0.025,99.9,4.0,,0.0,0.0,164.19
2025-08-15T01:07:34.153Z,2,GR86-035-11,1.2000000000000002,0.169,-0.036,99.88,4.0,,0.0,0.0,
2025-08-15T01:07:34.196Z,2,GR86-035-11,1.2000000000000002,0.167,-0.038,99.9,4.0,,0.0,0.0,
2025-08-15T01:07:34.238Z,2,GR86-035-11,1.2000000000000002,0.145,-0.027,99.9,4.0,,0.0,0.0,
2025-08-15T01:07:34.282Z,2,GR86-035-11,1.2000000000000002,0.137,-0.023,99.9,4.0,6442.0,0.0,0.0,
2025-08-15T01:07:34.326Z,2,GR86-035-11,1.2000000000000002,0.155,-0.023,99.89,4.0,,0.0,0.0,165.32
2025-08-15T01:07:34.368Z,2,GR86-035-11,1.1,0.157,-0.022,99.9,4.0,,0.0,0.0,
2025-08-15T01:07:34.414Z,2,GR86-035-11,1.1,0.147,-0.036,99.91,4.0,,0.0,0.0,
2025-08-15T01:07:34.456Z,2,GR86-035-11,0.5,0.146,-0.04,99.9,4.0,,0.0,0.0,
2025-08-15T01:07:34.500Z,2,GR86-035-11,-0.3,0.153,-0.043,99.9,4.0,6490.0,0.0,0.0,
2025-08-15T01:07:34.543Z,2,GR86-035-11,-0.6000000000000001,0.145,-0.04,99.89,4.0,,0.0,0.0,166.51
2025-08-15T01:07:34.586Z,2,GR86-035-11,-0.6000000000000001,0.145,-0.066,99.9,4.0,,0.0,0.0,
2025-08-15T01:07:34.630Z,2,GR86-035-11,-0.6000000000000001,0.145,-0.082,99.9,4.0,,0.0,0.0,
2025-08-15T01:07:34.674Z,2,GR86-035-11,-0.6000000000000001,0.137,-0.084,99.9,4.0,,0.0,0.0,
2025-08-15T01:07:34.716Z,2,GR86-035-11,-0.6000000000000001,0.136,-0.091,99.9,4.0,6573.0,0.0,0.0,
2025-08-15T01:07:34.759Z,2,GR86-035-11,-0.6000000000000001,0.141,-0.083,99.87,4.0,,0.0,0.0,167.57
2025-08-15T01:07:34.804Z,2,GR86-035-11,-0.6000000000000001,0.126,-0.084,99.89,4.0,,0.0,0.0,
2025-08-15T01:07:34.846Z,2,GR86-035-11,-0.6000000000000001,0.138,-0.075,99.89,4.0,,0.0,0.0,
2025-08-15T01:07:34.890Z,2,GR86-035-11,-0.6000000000000001,0.148,-0.07,99.9,4.0,,0.0,0.0,
2025-08-15T01:07:34.934Z,2,GR86-035-11,-0.6000000000000001,0.146,-0.059,99.9,4.0,6620.0,0.0,0.0,
2025-08-15T01:07:34.976Z,2,GR86-035-11,-0.6000000000000001,0.137,-0.051,99.89,4.0,,0.0,0.0,168.65
2025-08-15T01:07:35.020Z,2,GR86-035-11,-0.6000000000000001,0.142,-0.062,99.89,4.0,,0.0,0.0,
2025-08-15T01:07:35.063Z,2,GR86-035-11,-0.6000000000000001,0.131,-0.047,99.9,4.0,,0.0,0.0,
2025-08-15T01:07:35.150Z,2,GR86-035-11,-0.6000000000000001,0.14,-0.053,99.9,4.0,6652.0,0.0,0.0,
2025-08-15T01:07:35.193Z,2,GR86-035-11,-0.6000000000000001,0.163,-0.063,99.88,4.0,,0.0,0.0,169.71
2025-08-15T01:07:35.236Z,2,GR86-035-11,-0.6000000000000001,0.146,-0.061,99.9,4.0,,0.0,0.0,
2025-08-15T01:07:35.278Z,2,GR86-035-11,-0.6000000000000001,0.15,-0.065,99.9,4.0,,0.0,0.0,
2025-08-15T01:07:35.324Z,2,GR86-035-11,-0.6000000000000001,0.12,-0.057,99.9,4.0,,0.0,0.0,
2025-08-15T01:07:35.366Z,2,GR86-035-11,-0.2,0.134,-0.046,99.9,4.0,6693.0,0.0,0.0,
2025-08-15T01:07:35.410Z,2,GR86-035-11,0.4,0.127,-0.047,99.89,4.0,,0.0,0.0,170.81
2025-08-15T01:07:35.453Z,2,GR86-035-11,0.5,0.147,-0.051,99.89,4.0,,0.0,0.0,
2025-08-15T01:07:35.496Z,2,GR86-035-11,0.5,0.153,-0.047,99.9,4.0,,0.0,0.0,
2025-08-15T01:07:35.538Z,2,GR86-035-11,0.5,0.154,-0.036,99.89,4.0,,0.0,0.0,
2025-08-15T01:07:35.582Z,2,GR86-035-11,0.5,0.116,-0.022,99.9,4.0,6733.0,0.0,0.0,
2025-08-15T01:07:35.626Z,2,GR86-035-11,0.5,0.101,-0.028,99.86,4.0,,0.0,0.0,171.83
2025-08-15T01:07:35.670Z,2,GR86-035-11,0.5,0.124,-0.04,99.89,4.0,,0.0,0.0,
2025-08-15T01:07:35.714Z,2,GR86-035-11,0.5,0.117,-0.022,99.89,4.0,,0.0,0.0,
2025-08-15T01:07:35.756Z,2,GR86-035-11,0.5,0.127,-0.019,99.89,4.0,,0.0,0.0,
2025-08-15T01:07:35.800Z,2,GR86-035-11,0.5,0.129,-0.028,99.87,4.0,6774.0,0.0,0.0,
2025-08-15T01:07:35.843Z,2,GR86-035-11,0.5,0.099,-0.018,99.9,4.0,,0.0,0.0,172.82
2025-08-15T01:07:35.886Z,2,GR86-035-11,0.5,0.106,-0.031,99.89,4.0,,0.0,0.0,
2025-08-15T01:07:35.930Z,2,GR86-035-11,0.5,0.104,-0.039,99.87,4.0,,0.0,0.0,
2025-08-15T01:07:35.973Z,2,GR86-035-11,0.5,0.106,-0.039,99.88,4.0,,0.0,0.0,
2025-08-15T01:07:36.016Z,2,GR86-035-11,0.5,0.121,-0.049,99.9,4.0,6813.0,0.0,0.0,
2025-08-15T01:07:36.059Z,2,GR86-035-11,0.5,0.113,-0.011,99.9,4.0,,0.0,0.0,173.87
2025-08-15T01:07:36.104Z,2,GR86-035-11,0.9,0.134,-0.038,99.88,4.0,,0.0,0.0,
2025-08-15T01:07:36.146Z,2,GR86-035-11,1.3,0.142,-0.025,99.89,4.0,,0.0,0.0,
2025-08-15T01:07:36.189Z,2,GR86-035-11,1.5,0.133,0.0,99.9,4.0,,0.0,0.0,
2025-08-15T01:07:36.234Z,2,GR86-035-11,1.6,0.127,-0.016,99.9,4.0,6853.0,0.0,0.0,
2025-08-15T01:07:36.276Z,2,GR86-035-11,1.6,0.123,0.01,99.89,4.0,,0.0,0.0,174.81
2025-08-15T01:07:36.320Z,2,GR86-035-11,1.6,0.132,-0.004,99.9,4.0,,0.0,0.0,
2025-08-15T01:07:36.364Z,2,GR86-035-11,1.6,0.154,-0.028,99.91,4.0,,0.0,0.0,
2025-08-15T01:07:36.406Z,2,GR86-035-11,1.6,0.136,-0.01,99.9,4.0,,0.0,0.0,
2025-08-15T01:07:36.450Z,2,GR86-035-11,1.6,0.153,0.025,99.9,4.0,6888.0,0.0,0.0,
2025-08-15T01:07:36.493Z,2,GR86-035-11,1.6,0.152,0.026,99.89,4.0,,0.0,0.0,175.79
2025-08-15T01:07:36.536Z,2,GR86-035-11,1.6,0.155,0.012,99.9,4.0,,0.0,0.0,
2025-08-15T01:07:36.578Z,2,GR86-035-11,1.6,0.151,0.005,99.9,4.0,,0.0,0.0,
2025-08-15T01:07:36.624Z,2,GR86-035-11,1.6,0.125,0.01,99.89,4.0,,0.0,0.0,
2025-08-15T01:07:36.666Z,2,GR86-035-11,1.6,0.121,0.003,99.89,4.0,6930.0,0.0,0.0,
2025-08-15T01:07:36.710Z,2,GR86-035-11,1.6,0.127,0.005,99.9,4.0,,0.0,0.0,177.77
2025-08-15T01:07:36.753Z,2,GR86-035-11,1.6,0.121,0.013,99.89,4.0,,0.0,0.0,
2025-08-15T01:07:36.796Z,2,GR86-035-11,1.6,0.126,0.022,99.87,4.0,,0.0,0.0,
2025-08-15T01:07:36.838Z,2,GR86-035-11,1.6,0.11,0.017,99.91,4.0,,0.0,0.0,
2025-08-15T01:07:36.883Z,2,GR86-035-11,1.6,0.137,-0.018,99.9,4.0,6966.0,0.0,0.0,
2025-08-15T01:07:36.926Z,2,GR86-035-11,1.6,0.134,-0.014,99.9,4.0,,0.0,0.0,178.81
2025-08-15T01:07:36.970Z,2,GR86-035-11,1.6,0.138,-0.008,99.88,4.0,,0.0,0.0,
2025-08-15T01:07:37.013Z,2,GR86-035-11,1.6,0.14,0.0,99.9,4.0,,0.0,0.0,
2025-08-15T01:07:37.056Z,2,GR86-035-11,1.6,0.136,0.002,99.9,4.0,,0.0,0.0,
2025-08-15T01:07:37.100Z,2,GR86-035-11,1.6,0.138,-0.008,99.93,4.0,7014.0,0.0,0.0,
2025-08-15T01:07:37.143Z,2,GR86-035-11,1.6,0.132,0.017,99.89,4.0,,0.0,0.0,179.88
2025-08-15T01:07:37.186Z,2,GR86-035-11,1.6,0.127,0.04,99.86,4.0,,0.0,0.0,
2025-08-15T01:07:37.230Z,2,GR86-035-11,1.6,0.136,0.033,99.89,4.0,,0.0,0.0,
2025-08-15T01:07:37.274Z,2,GR86-035-11,1.6,0.121,0.032,99.9,4.0,,0.0,0.0,
2025-08-15T01:07:37.316Z,2,GR86-035-11,1.6,0.139,0.018,99.92,4.0,7090.0,0.0,0.0,
2025-08-15T01:07:37.359Z,2,GR86-035-11,1.6,0.122,0.015,99.89,4.0,,0.0,0.0,180.91
2025-08-15T01:07:37.404Z,2,GR86-035-11,1.6,0.119,0.015,99.87,4.0,,0.0,0.0,
2025-08-15T01:07:37.446Z,2,GR86-035-11,1.6,0.127,0.027,99.9,4.0,,0.0,0.0,
2025-08-15T01:07:37.490Z,2,GR86-035-11,1.6,0.128,0.013,99.9,4.0,,0.0,0.0,
2025-08-15T01:07:37.534Z,2,GR86-035-11,1.6,0.125,0.007,99.91,4.0,7128.0,0.0,0.0,
2025-08-15T01:07:37.576Z,2,GR86-035-11,1.6,0.125,-0.005,99.89,4.0,,0.0,0.0,181.99
2025-08-15T01:07:37.620Z,2,GR86-035-11,1.6,0.129,0.001,99.88,4.0,,0.0,0.0,
2025-08-15T01:07:37.664Z,2,GR86-035-11,1.6,0.123,0.011,99.88,4.0,,0.0,0.0,
2025-08-15T01:07:37.706Z,2,GR86-035-11,1.6,0.13,0.012,99.9,4.0,,0.0,0.0,
2025-08-15T01:07:37.750Z,2,GR86-035-11,1.6,0.135,0.014,99.88,4.0,7165.0,0.0,0.0,
2025-08-15T01:07:37.793Z,2,GR86-035-11,1.6,0.119,0.005,99.87,4.0,,0.0,0.0,182.92
2025-08-15T01:07:37.836Z,2,GR86-035-11,1.9,0.126,0.002,99.89,4.0,,0.0,0.0,
2025-08-15T01:07:37.878Z,2,GR86-035-11,1.9,0.106,0.016,99.89,4.0,,0.0,0.0,
2025-08-15T01:07:37.922Z,2,GR86-035-11,2.0,0.113,0.03,99.92,4.0,,0.0,0.0,
2025-08-15T01:07:37.964Z,2,GR86-035-11,2.0,0.104,0.033,99.89,4.0,7205.0,0.0,0.0,
2025-08-15T01:07:38.007Z,2,GR86-035-11,2.1,0.118,0.029,99.89,4.0,,0.0,0.0,183.95
2025-08-15T01:07:38.050Z,2,GR86-035-11,2.2,0.114,0.029,99.89,4.0,,0.0,0.0,
2025-08-15T01:07:38.094Z,2,GR86-035-11,2.5,0.121,0.02,99.9,4.0,,0.0,0.0,
2025-08-15T01:07:38.136Z,2,GR86-035-11,2.6,0.113,0.032,99.91,4.0,,0.0,0.0,
2025-08-15T01:07:38.180Z,2,GR86-035-11,2.6,0.118,0.021,99.88,4.0,7235.0,0.0,0.0,
2025-08-15T01:07:38.224Z,2,GR86-035-11,2.6,0.108,0.008,99.89,4.0,,0.0,0.0,184.87
2025-08-15T01:07:38.267Z,2,GR86-035-11,2.6,0.118,0.02,99.91,4.0,,0.0,0.0,
2025-08-15T01:07:38.310Z,2,GR86-035-11,2.6,0.111,0.031,73.83,4.0,,0.0,0.0,
2025-08-15T01:07:38.353Z,2,GR86-035-11,3.1,0.129,0.024,66.97,4.0,,0.0,0.0,
2025-08-15T01:07:38.396Z,2,GR86-035-11,3.7,0.113,0.047,69.45,4.0,7271.0,0.0,0.0,
2025-08-15T01:07:38.438Z,2,GR86-035-11,3.5,0.121,0.058,34.61,4.0,,0.0,0.0,185.76
2025-08-15T01:07:38.483Z,2,GR86-035-11,3.2,0.088,0.068,5.51,4.0,,0.0,0.0,
2025-08-15T01:07:38.526Z,2,GR86-035-11,1.6,0.008,0.05,4.75,4.0,,0.0,0.0,
2025-08-15T01:07:38.570Z,2,GR86-035-11,-0.2,-0.138,0.063,4.46,4.0,,0.0,0.0,
2025-08-15T01:07:38.614Z,2,GR86-035-11,-0.2,-0.359,0.011,4.18,4.0,7292.0,2.4250000000000003,2.67,
2025-08-15T01:07:38.656Z,2,GR86-035-11,0.7000000000000001,-0.327,-0.013,3.81,4.0,,18.585,18.295,186.63
2025-08-15T01:07:38.700Z,2,GR86-035-11,0.8,-0.586,0.039,3.37,4.0,,32.75,32.445,
2025-08-15T01:07:38.743Z,2,GR86-035-11,1.1,-0.902,-0.037,2.8000000000000003,4.0,,47.43,46.62,
2025-08-15T01:07:38.786Z,2,GR86-035-11,1.1,-0.964,-0.016,2.65,4.0,,50.04,49.55,
2025-08-15T01:07:38.830Z,2,GR86-035-11,0.9,-0.947,-0.046,2.57,4.0,7345.0,48.895,49.135,
2025-08-15T01:07:38.874Z,2,GR86-035-11,1.6,-0.913,-0.041,2.54,4.0,,37.42,38.56,187.04
2025-08-15T01:07:38.916Z,2,GR86-035-11,1.6,-0.597,-0.017,2.52,4.0,,21.5,22.555,
2025-08-15T01:07:38.959Z,2,GR86-035-11,1.4,-0.651,-0.016,2.5,4.0,,8.88,9.69,
2025-08-15T01:07:39.004Z,2,GR86-035-11,1.4,-0.145,0.015,2.49,4.0,,0.0,0.0,
2025-08-15T01:07:39.046Z,2,GR86-035-11,1.4,-0.126,0.018,2.49,4.0,6764.0,4.09,4.3950000000000005,
2025-08-15T01:07:39.090Z,2,GR86-035-11,1.4,-0.161,0.04,2.49,4.0,,11.245,11.185,182.05
2025-08-15T01:07:39.133Z,2,GR86-035-11,1.4,-0.518,0.039,2.49,4.0,,19.79,19.485,
2025-08-15T01:07:39.176Z,2,GR86-035-11,1.4,-0.678,0.046,2.47,4.0,,27.315,26.905,
2025-08-15T01:07:39.218Z,2,GR86-035-11,1.4,-0.668,0.006,2.49,4.0,,32.075,31.54,
2025-08-15T01:07:39.262Z,2,GR86-035-11,2.8000000000000003,-0.762,-0.009,2.48,4.0,6859.0,35.89,35.525,
2025-08-15T01:07:39.306Z,2,GR86-035-11,4.3,-0.84,0.012,2.49,4.0,,38.93,38.53,175.1
2025-08-15T01:07:39.348Z,2,GR86-035-11,5.6000000000000005,-0.945,0.029,2.48,4.0,,42.715,42.15,
2025-08-15T01:07:39.392Z,2,GR86-035-11,6.0,-0.897,0.067,2.47,4.0,,46.085,45.49,
2025-08-15T01:07:39.436Z,2,GR86-035-11,6.6000000000000005,-0.917,0.075,2.48,4.0,,48.145,47.61,
2025-08-15T01:07:39.478Z,2,GR86-035-11,7.5,-0.937,0.087,2.49,4.0,6620.0,48.65,48.265,
2025-08-15T01:07:39.523Z,2,GR86-035-11,7.4,-1.052,0.128,2.49,4.0,,48.59,48.59,169.29
2025-08-15T01:07:39.566Z,2,GR86-035-11,7.1000000000000005,-1.023,0.13,2.49,4.0,,48.985,48.865,
2025-08-15T01:07:39.610Z,2,GR86-035-11,5.300000000000001,-0.995,0.133,2.49,4.0,,49.46,49.045,
2025-08-15T01:07:39.653Z,2,GR86-035-11,3.1,-0.996,0.117,2.48,4.0,,49.365,49.17,
2025-08-15T01:07:39.696Z,2,GR86-035-11,3.1,-0.955,0.094,2.48,4.0,6326.0,47.46,48.085,
2025-08-15T01:07:39.738Z,2,GR86-035-11,4.800000000000001,-0.923,0.097,2.47,4.0,,42.575,43.825,163.0
2025-08-15T01:07:39.784Z,2,GR86-035-11,4.800000000000001,-0.8260000000000001,0.109,2.49,4.0,,35.555,37.05,
2025-08-15T01:07:39.826Z,2,GR86-035-11,6.1000000000000005,-0.747,0.099,2.49,4.0,,31.83,32.93,
2025-08-15T01:07:39.870Z,2,GR86-035-11,6.4,-0.717,0.082,2.49,4.0,,31.54,32.045,
2025-08-15T01:07:39.914Z,2,GR86-035-11,6.300000000000001,-0.769,0.075,2.49,4.0,5960.0,33.055,33.1,
2025-08-15T01:07:39.956Z,2,GR86-035-11,6.300000000000001,-0.795,0.093,2.49,4.0,,35.74,35.465,156.83
2025-08-15T01:07:40.000Z,2,GR86-035-11,6.300000000000001,-0.851,0.116,4.37,4.0,,40.62,40.12,
2025-08-15T01:07:40.043Z,2,GR86-035-11,5.6000000000000005,-0.992,0.104,63.370000000000005,3.0,,48.3,47.765,
2025-08-15T01:07:40.086Z,2,GR86-035-11,5.4,-1.012,0.109,15.56,3.0,,51.305,50.585,
2025-08-15T01:07:40.130Z,2,GR86-035-11,4.9,-0.963,0.102,5.05,3.0,5673.0,52.83,52.28,
2025-08-15T01:07:40.173Z,2,GR86-035-11,4.5,-1.077,0.071,4.36,3.0,,53.545,54.14,151.4
2025-08-15T01:07:40.216Z,2,GR86-035-11,4.5,-1.025,0.104,4.1,3.0,,54.205,55.27,
2025-08-15T01:07:40.260Z,2,GR86-035-11,4.5,-1.031,0.078,3.72,3.0,,51.275,51.775,
2025-08-15T01:07:40.346Z,2,GR86-035-11,4.5,-0.942,0.142,2.98,3.0,5963.0,47.58,48.71,
2025-08-15T01:07:40.389Z,2,GR86-035-11,0.3,-1.05,0.067,2.65,3.0,,41.89,42.24,144.53
2025-08-15T01:07:40.434Z,2,GR86-035-11,-0.6000000000000001,-0.959,0.133,2.57,3.0,,41.25,41.935,
2025-08-15T01:07:40.476Z,2,GR86-035-11,-1.0,-0.806,-0.04,2.53,3.0,,37.86,39.19,
2025-08-15T01:07:40.521Z,2,GR86-035-11,-2.9000000000000004,-0.791,-0.015,2.52,3.0,,34.215,35.34,
2025-08-15T01:07:40.564Z,2,GR86-035-11,-3.8,-0.866,-0.097,2.51,3.0,6159.0,32.81,33.555,
2025-08-15T01:07:40.606Z,2,GR86-035-11,-4.1000000000000005,-0.797,-0.127,2.49,3.0,,29.465,30.55,137.67000000000002
2025-08-15T01:07:40.650Z,2,GR86-035-11,-5.300000000000001,-0.636,-0.122,2.49,3.0,,25.485,26.325,
2025-08-15T01:07:40.693Z,2,GR86-035-11,-6.1000000000000005,-0.6,-0.199,2.49,3.0,,24.46,24.89,
2025-08-15T01:07:40.736Z,2,GR86-035-11,-6.300000000000001,-0.657,-0.186,2.5,3.0,,24.615,25.085,
2025-08-15T01:07:40.778Z,2,GR86-035-11,-6.300000000000001,-0.636,-0.203,2.47,3.0,5963.0,25.12,25.3,
2025-08-15T01:07:40.824Z,2,GR86-035-11,-6.4,-0.656,-0.211,2.48,3.0,,27.59,27.405,132.28
2025-08-15T01:07:40.866Z,2,GR86-035-11,-7.0,-0.676,-0.22,2.48,3.0,,27.62,27.865,
2025-08-15T01:07:40.953Z,2,GR86-035-11,-8.3,-0.6930000000000001,-0.205,2.49,3.0,,26.23,26.875,
2025-08-15T01:07:40.996Z,2,GR86-035-11,-13.0,-0.607,-0.238,2.49,3.0,5751.0,23.395,24.02,
2025-08-15T01:07:41.038Z,2,GR86-035-11,-14.6,-0.6890000000000001,-0.298,2.49,3.0,,23.745,24.11,127.81
2025-08-15T01:07:41.083Z,2,GR86-035-11,-18.7,-0.676,-0.323,2.47,3.0,,24.92,25.12,
2025-08-15T01:07:41.126Z,2,GR86-035-11,-22.4,-0.619,-0.394,2.47,3.0,,25.085,25.18,
2025-08-15T01:07:41.170Z,2,GR86-035-11,-25.9,-0.612,-0.446,2.49,3.0,,24.08,24.525,
2025-08-15T01:07:41.214Z,2,GR86-035-11,-28.8,-0.634,-0.518,5.59,3.0,5606.0,23.21,23.805,
2025-08-15T01:07:41.256Z,2,GR86-035-11,-30.4,-0.639,-0.604,47.26,3.0,,24.02,24.14,123.62
2025-08-15T01:07:41.300Z,2,GR86-035-11,-30.5,-0.652,-0.655,92.78,3.0,,24.02,24.34,
2025-08-15T01:07:41.343Z,2,GR86-035-11,-30.200000000000003,-0.5680000000000001,-0.706,82.43,2.0,,23.835,24.46,
2025-08-15T01:07:41.386Z,2,GR86-035-11,-29.4,-0.771,-0.763,11.72,2.0,,24.28,24.49,
2025-08-15T01:07:41.430Z,2,GR86-035-11,-25.8,-0.912,-0.615,3.43,2.0,5374.0,22.28,22.905,
2025-08-15T01:07:41.473Z,2,GR86-035-11,-18.8,-0.361,-0.739,2.69,2.0,,14.115,14.68,119.41
2025-08-15T01:07:41.516Z,2,GR86-035-11,-18.5,-0.317,-0.872,2.5500000000000003,2.0,,5.3100000000000005,5.7700000000000005,
2025-08-15T01:07:41.559Z,2,GR86-035-11,-25.9,-0.427,-0.781,2.49,2.0,,0.0,0.0,
2025-08-15T01:07:41.604Z,2,GR86-035-11,-30.4,-0.31,-0.947,2.47,2.0,,0.0,0.0,
2025-08-15T01:07:41.646Z,2,GR86-035-11,-33.4,-0.213,-0.945,2.46,2.0,6155.0,0.0,0.0,
2025-08-15T01:07:41.689Z,2,GR86-035-11,-43.6,-0.132,-0.882,2.46,2.0,,0.0,0.0,116.4
2025-08-15T01:07:41.734Z,2,GR86-035-11,-55.0,-0.184,-0.976,2.46,2.0,,0.0,0.0,
2025-08-15T01:07:41.776Z,2,GR86-035-11,-61.8,-0.222,-0.945,2.46,2.0,,0.0,0.0,
2025-08-15T01:07:41.820Z,2,GR86-035-11,-64.0,-0.252,-1.018,2.46,2.0,,0.0,0.0,
2025-08-15T01:07:41.864Z,2,GR86-035-11,-64.0,-0.244,-1.048,2.46,2.0,6348.0,0.0,0.0,
2025-08-15T01:07:41.906Z,2,GR86-035-11,-63.5,-0.234,-1.114,2.46,2.0,,0.0,0.0,111.13
2025-08-15T01:07:41.950Z,2,GR86-035-11,-61.3,-0.22,-1.163,2.46,2.0,,0.0,0.0,
2025-08-15T01:07:41.993Z,2,GR86-035-11,-58.5,-0.222,-1.142,2.47,2.0,,0.0,0.0,
2025-08-15T01:07:42.036Z,2,GR86-035-11,-52.6,-0.215,-1.19,4.68,2.0,,0.0,0.0,
2025-08-15T01:07:42.078Z,2,GR86-035-11,-46.1,-0.23,-1.194,29.9,2.0,6222.0,0.0,0.0,
2025-08-15T01:07:42.122Z,2,GR86-035-11,-40.3,-0.19,-1.179,34.07,2.0,,0.0,0.0,110.91
2025-08-15T01:07:42.166Z,2,GR86-035-11,-40.0,-0.136,-1.247,34.39,2.0,,0.0,0.0,
2025-08-15T01:07:42.210Z,2,GR86-035-11,-41.5,-0.144,-1.229,38.42,2.0,,0.0,0.0,
2025-08-15T01:07:42.254Z,2,GR86-035-11,-42.6,-0.04,-1.224,39.71,2.0,,0.0,0.0,
2025-08-15T01:07:42.296Z,2,GR86-035-11,-41.900000000000006,0.146,-1.23,38.97,2.0,6081.0,0.0,0.0,
2025-08-15T01:07:42.341Z,2,GR86-035-11,-37.0,0.089,-1.231,40.39,2.0,,0.0,0.0,109.8
2025-08-15T01:07:42.383Z,2,GR86-035-11,-29.8,0.178,-1.209,42.28,2.0,,0.0,0.0,
2025-08-15T01:07:42.426Z,2,GR86-035-11,-30.1,0.128,-1.253,41.96,2.0,,0.0,0.0,
2025-08-15T01:07:42.470Z,2,GR86-035-11,-37.8,0.125,-1.223,46.44,2.0,,0.0,0.0,
2025-08-15T01:07:42.514Z,2,GR86-035-11,-43.900000000000006,0.132,-1.231,54.6,2.0,6526.0,0.0,0.0,
2025-08-15T01:07:42.556Z,2,GR86-035-11,-42.900000000000006,0.101,-1.263,62.89,2.0,,0.0,0.0,109.3
2025-08-15T01:07:42.600Z,2,GR86-035-11,-36.4,0.118,-1.227,92.61,2.0,,0.0,0.0,
2025-08-15T01:07:42.643Z,2,GR86-035-11,-39.2,0.217,-1.187,99.84,2.0,,0.0,0.0,
2025-08-15T01:07:42.686Z,2,GR86-035-11,-46.7,0.213,-1.224,99.83,2.0,,0.0,0.0,
2025-08-15T01:07:42.730Z,2,GR86-035-11,-48.8,0.184,-1.226,99.85,2.0,6644.0,0.0,0.0,
2025-08-15T01:07:42.774Z,2,GR86-035-11,-46.400000000000006,0.155,-1.227,99.86,2.0,,0.0,0.0,109.56
2025-08-15T01:07:42.816Z,2,GR86-035-11,-40.3,0.273,-1.132,99.84,2.0,,0.0,0.0,
2025-08-15T01:07:42.860Z,2,GR86-035-11,-35.300000000000004,0.186,-1.056,99.86,2.0,,0.0,0.0,
2025-08-15T01:07:42.904Z,2,GR86-035-11,-37.7,0.179,-1.083,99.86,2.0,,0.0,0.0,
2025-08-15T01:07:42.946Z,2,GR86-035-11,-44.3,0.258,-1.194,99.85,2.0,6639.0,0.0,0.0,
2025-08-15T01:07:42.990Z,2,GR86-035-11,-48.3,0.275,-1.176,99.84,2.0,,0.0,0.0,110.62
2025-08-15T01:07:43.033Z,2,GR86-035-11,-50.6,0.22,-1.117,99.84,2.0,,0.0,0.0,
2025-08-15T01:07:43.076Z,2,GR86-035-11,-53.1,0.177,-1.115,99.86,2.0,,0.0,0.0,
2025-08-15T01:07:43.118Z,2,GR86-035-11,-54.1,0.172,-1.11,99.86,2.0,,0.0,0.0,
2025-08-15T01:07:43.162Z,2,GR86-035-11,-53.8,0.176,-1.143,99.86,2.0,6538.0,0.0,0.0,
2025-08-15T01:07:43.204Z,2,GR86-035-11,-50.6,0.194,-1.179,99.86,2.0,,0.0,0.0,112.35
2025-08-15T01:07:43.247Z,2,GR86-035-11,-47.1,0.192,-1.095,99.85,2.0,,0.0,0.0,
2025-08-15T01:07:43.290Z,2,GR86-035-11,-44.1,0.175,-1.113,99.84,2.0,,0.0,0.0,
2025-08-15T01:07:43.334Z,2,GR86-035-11,-42.3,0.177,-1.076,99.86,2.0,,0.0,0.0,
2025-08-15T01:07:43.376Z,2,GR86-035-11,-42.3,0.179,-1.123,99.87,2.0,6613.0,0.0,0.0,
2025-08-15T01:07:43.419Z,2,GR86-035-11,-42.6,0.207,-1.108,99.84,2.0,,0.0,0.0,113.92
2025-08-15T01:07:43.463Z,2,GR86-035-11,-42.6,0.206,-1.12,99.86,2.0,,0.0,0.0,
2025-08-15T01:07:43.506Z,2,GR86-035-11,-42.6,0.206,-1.069,99.86,2.0,,0.0,0.0,
2025-08-15T01:07:43.550Z,2,GR86-035-11,-41.0,0.164,-1.071,99.86,2.0,,0.0,0.0,
2025-08-15T01:07:43.593Z,2,GR86-035-11,-38.6,0.17,-1.08,99.86,2.0,6708.0,0.0,0.0,
2025-08-15T01:07:43.636Z,2,GR86-035-11,-37.7,0.199,-1.071,99.86,2.0,,0.0,0.0,115.6
2025-08-15T01:07:43.678Z,2,GR86-035-11,-37.0,0.189,-1.042,99.85,2.0,,0.0,0.0,
2025-08-15T01:07:43.723Z,2,GR86-035-11,-35.800000000000004,0.187,-1.059,99.84,2.0,,0.0,0.0,
2025-08-15T01:07:43.766Z,2,GR86-035-11,-35.800000000000004,0.202,-1.056,99.84,2.0,,0.0,0.0,
2025-08-15T01:07:43.810Z,2,GR86-035-11,-35.800000000000004,0.203,-1.054,99.85,2.0,6792.0,0.0,0.0,
2025-08-15T01:07:43.853Z,2,GR86-035-11,-36.1,0.189,-0.999,99.87,2.0,,0.0,0.0,116.98
2025-08-15T01:07:43.896Z,2,GR86-035-11,-37.7,0.2,-0.991,99.86,2.0,,0.0,0.0,
2025-08-15T01:07:43.938Z,2,GR86-035-11,-38.5,0.197,-0.976,99.87,2.0,,0.0,0.0,
2025-08-15T01:07:43.984Z,2,GR86-035-11,-39.5,0.203,-0.93,99.87,2.0,,0.0,0.0,
2025-08-15T01:07:44.026Z,2,GR86-035-11,-41.1,0.189,-0.951,99.87,2.0,6843.0,0.0,0.0,
2025-08-15T01:07:44.070Z,2,GR86-035-11,-41.400000000000006,0.194,-0.959,99.86,2.0,,0.0,0.0,117.8
2025-08-15T01:07:44.114Z,2,GR86-035-11,-41.400000000000006,0.181,-0.973,99.87,2.0,,0.0,0.0,
2025-08-15T01:07:44.156Z,2,GR86-035-11,-41.400000000000006,0.176,-1.016,99.88,2.0,,0.0,0.0,
2025-08-15T01:07:44.200Z,2,GR86-035-11,-41.400000000000006,0.187,-1.031,99.86,2.0,,0.0,0.0,
2025-08-15T01:07:44.243Z,2,GR86-035-11,-39.6,0.198,-1.041,99.85,2.0,6926.0,0.0,0.0,
2025-08-15T01:07:44.286Z,2,GR86-035-11,-37.2,0.186,-1.029,99.84,2.0,,0.0,0.0,118.77
2025-08-15T01:07:44.330Z,2,GR86-035-11,-36.3,0.169,-1.015,99.87,2.0,,0.0,0.0,
2025-08-15T01:07:44.373Z,2,GR86-035-11,-36.3,0.188,-1.05,99.84,2.0,,0.0,0.0,
2025-08-15T01:07:44.416Z,2,GR86-035-11,-36.3,0.204,-1.013,99.86,2.0,,0.0,0.0,
2025-08-15T01:07:44.459Z,2,GR86-035-11,-36.3,0.183,-1.011,99.87,2.0,7024.0,0.0,0.0,
2025-08-15T01:07:44.504Z,2,GR86-035-11,-36.3,-0.153,-0.974,99.86,3.0,,0.0,0.0,121.75
2025-08-15T01:07:44.546Z,2,GR86-035-11,-36.3,-0.065,-0.98,99.87,3.0,,0.0,0.0,
2025-08-15T01:07:44.590Z,2,GR86-035-11,-36.3,0.423,-0.945,99.88,3.0,,0.0,0.0,
2025-08-15T01:07:44.633Z,2,GR86-035-11,-36.3,0.377,-1.042,99.86,3.0,,0.0,0.0,
2025-08-15T01:07:44.676Z,2,GR86-035-11,-36.2,0.245,-1.01,99.86,3.0,6848.0,0.0,0.0,
2025-08-15T01:07:44.718Z,2,GR86-035-11,-35.1,0.268,-0.967,99.86,3.0,,0.0,0.0,122.7
2025-08-15T01:07:44.762Z,2,GR86-035-11,-34.300000000000004,0.079,-0.964,99.86,3.0,,0.0,0.0,
2025-08-15T01:07:44.806Z,2,GR86-035-11,-32.9,0.099,-0.964,99.86,3.0,,0.0,0.0,
2025-08-15T01:07:44.848Z,2,GR86-035-11,-30.3,0.159,-1.025,99.87,3.0,,0.0,0.0,
2025-08-15T01:07:44.892Z,2,GR86-035-11,-28.5,0.203,-0.939,99.86,3.0,5912.0,0.0,0.0,
2025-08-15T01:07:44.934Z,2,GR86-035-11,-28.1,0.183,-0.928,99.86,3.0,,0.0,0.0,124.0
2025-08-15T01:07:44.977Z,2,GR86-035-11,-28.1,0.147,-0.919,99.87,3.0,,0.0,0.0,
2025-08-15T01:07:45.021Z,2,GR86-035-11,-28.0,0.13,-0.917,99.85,3.0,,0.0,0.0,
2025-08-15T01:07:45.064Z,2,GR86-035-11,-26.700000000000003,0.171,-0.933,99.87,3.0,,0.0,0.0,
2025-08-15T01:07:45.106Z,2,GR86-035-11,-26.700000000000003,0.188,-0.903,99.87,3.0,5935.0,0.0,0.0,
2025-08-15T01:07:45.150Z,2,GR86-035-11,-26.5,0.171,-0.861,99.87,3.0,,0.0,0.0,125.29
2025-08-15T01:07:45.193Z,2,GR86-035-11,-25.5,0.147,-0.857,99.87,3.0,,0.0,0.0,
2025-08-15T01:07:45.236Z,2,GR86-035-11,-24.6,0.172,-0.8180000000000001,99.89,3.0,,0.0,0.0,
2025-08-15T01:07:45.278Z,2,GR86-035-11,-24.200000000000003,0.176,-0.751,99.86,3.0,,0.0,0.0,
2025-08-15T01:07:45.324Z,2,GR86-035-11,-24.200000000000003,0.177,-0.71,99.86,3.0,5961.0,0.0,0.0,
2025-08-15T01:07:45.366Z,2,GR86-035-11,-24.200000000000003,0.165,-0.717,99.86,3.0,,0.0,0.0,126.73
2025-08-15T01:07:45.410Z,2,GR86-035-11,-24.1,0.169,-0.685,99.86,3.0,,0.0,0.0,
2025-08-15T01:07:45.453Z,2,GR86-035-11,-24.1,0.172,-0.677,99.86,3.0,,0.0,0.0,
2025-08-15T01:07:45.496Z,2,GR86-035-11,-24.0,0.172,-0.6890000000000001,99.87,3.0,,0.0,0.0,
2025-08-15T01:07:45.538Z,2,GR86-035-11,-23.3,0.171,-0.674,99.86,3.0,6014.0,0.0,0.0,
2025-08-15T01:07:45.583Z,2,GR86-035-11,-21.6,0.168,-0.675,99.87,3.0,,0.0,0.0,128.06
2025-08-15T01:07:45.626Z,2,GR86-035-11,-18.7,0.172,-0.646,99.87,3.0,,0.0,0.0,
2025-08-15T01:07:45.670Z,2,GR86-035-11,-14.7,0.174,-0.617,99.87,3.0,,0.0,0.0,
2025-08-15T01:07:45.713Z,2,GR86-035-11,-11.2,0.176,-0.602,99.86,3.0,,0.0,0.0,
2025-08-15T01:07:45.757Z,2,GR86-035-11,-9.3,0.181,-0.535,99.86,3.0,6080.0,0.0,0.0,
2025-08-15T01:07:45.800Z,2,GR86-035-11,-9.0,0.194,-0.48,99.87,3.0,,0.0,0.0,129.38
2025-08-15T01:07:45.844Z,2,GR86-035-11,-9.0,0.191,-0.416,99.86,3.0,,0.0,0.0,
2025-08-15T01:07:45.886Z,2,GR86-035-11,-8.9,0.186,-0.376,99.86,3.0,,0.0,0.0,
2025-08-15T01:07:45.930Z,2,GR86-035-11,-8.3,0.179,-0.333,99.86,3.0,,0.0,0.0,
2025-08-15T01:07:45.973Z,2,GR86-035-11,-7.0,0.184,-0.271,99.85,3.0,6120.0,0.0,0.0,
2025-08-15T01:07:46.016Z,2,GR86-035-11,-5.5,0.196,-0.24,99.87,3.0,,0.0,0.0,130.76
2025-08-15T01:07:46.058Z,2,GR86-035-11,-4.9,0.19,-0.215,99.87,3.0,,0.0,0.0,
2025-08-15T01:07:46.104Z,2,GR86-035-11,-4.800000000000001,0.172,-0.19,99.86,3.0,,0.0,0.0,
2025-08-15T01:07:46.146Z,2,GR86-035-11,-4.800000000000001,0.195,-0.183,99.87,3.0,,0.0,0.0,
2025-08-15T01:07:46.190Z,2,GR86-035-11,-4.800000000000001,0.184,-0.159,99.87,3.0,6175.0,0.0,0.0,
2025-08-15T01:07:46.235Z,2,GR86-035-11,-4.4,0.199,-0.155,99.86,3.0,,0.0,0.0,132.1
2025-08-15T01:07:46.277Z,2,GR86-035-11,-4.0,0.187,-0.183,99.86,3.0,,0.0,0.0,
2025-08-15T01:07:46.320Z,2,GR86-035-11,-4.0,0.174,-0.145,99.88,3.0,,0.0,0.0,
2025-08-15T01:07:46.364Z,2,GR86-035-11,-3.6,0.191,-0.157,99.86,3.0,,0.0,0.0,
2025-08-15T01:07:46.406Z,2,GR86-035-11,-3.1,0.179,-0.123,99.87,3.0,6246.0,0.0,0.0,
2025-08-15T01:07:46.450Z,2,GR86-035-11,-2.8000000000000003,0.199,-0.109,99.86,3.0,,0.0,0.0,133.5
2025-08-15T01:07:46.493Z,2,GR86-035-11,-2.7,0.188,-0.141,99.87,3.0,,0.0,0.0,
2025-08-15T01:07:46.536Z,2,GR86-035-11,-2.7,0.193,-0.126,99.87,3.0,,0.0,0.0,
2025-08-15T01:07:46.578Z,2,GR86-035-11,-2.2,0.181,-0.099,99.86,3.0,,0.0,0.0,
2025-08-15T01:07:46.622Z,2,GR86-035-11,-0.8,0.179,-0.092,99.86,3.0,6319.0,0.0,0.0,
2025-08-15T01:07:46.666Z,2,GR86-035-11,0.2,0.198,-0.059,99.87,3.0,,0.0,0.0,134.9
2025-08-15T01:07:46.710Z,2,GR86-035-11,1.0,0.189,-0.062,99.87,3.0,,0.0,0.0,
2025-08-15T01:07:46.753Z,2,GR86-035-11,1.2000000000000002,0.187,-0.063,99.87,3.0,,0.0,0.0,
2025-08-15T01:07:46.796Z,2,GR86-035-11,1.2000000000000002,0.185,-0.019,99.86,3.0,,0.0,0.0,
2025-08-15T01:07:46.838Z,2,GR86-035-11,1.2000000000000002,0.204,-0.003,99.86,3.0,6380.0,0.0,0.0,
2025-08-15T01:07:46.882Z,2,GR86-035-11,1.2000000000000002,0.183,0.013,99.86,3.0,,0.0,0.0,136.36
2025-08-15T01:07:46.926Z,2,GR86-035-11,1.2000000000000002,0.192,0.02,99.86,3.0,,0.0,0.0,
2025-08-15T01:07:46.970Z,2,GR86-035-11,1.2000000000000002,0.175,0.003,99.88,3.0,,0.0,0.0,
2025-08-15T01:07:47.014Z,2,GR86-035-11,1.2000000000000002,0.198,-0.013,99.86,3.0,,0.0,0.0,
2025-08-15T01:07:47.056Z,2,GR86-035-11,1.2000000000000002,0.186,0.005,99.86,3.0,6442.0,0.0,0.0,
2025-08-15T01:07:47.100Z,2,GR86-035-11,1.2000000000000002,0.191,0.001,99.87,3.0,,0.0,0.0,137.8
2025-08-15T01:07:47.143Z,2,GR86-035-11,1.4,0.173,0.009,99.85,3.0,,0.0,0.0,
2025-08-15T01:07:47.186Z,2,GR86-035-11,1.7000000000000002,0.204,0.016,99.87,3.0,,0.0,0.0,
2025-08-15T01:07:47.230Z,2,GR86-035-11,2.1,0.199,0.0,99.86,3.0,,0.0,0.0,
2025-08-15T01:07:47.274Z,2,GR86-035-11,2.3000000000000003,0.19,0.002,99.87,3.0,6512.0,0.0,0.0,
2025-08-15T01:07:47.316Z,2,GR86-035-11,2.5,0.173,0.026,99.87,3.0,,0.0,0.0,140.84
2025-08-15T01:07:47.359Z,2,GR86-035-11,3.0,0.194,0.025,99.87,3.0,,0.0,0.0,
2025-08-15T01:07:47.404Z,2,GR86-035-11,3.4000000000000004,0.185,0.04,99.86,3.0,,0.0,0.0,
2025-08-15T01:07:47.446Z,2,GR86-035-11,3.4000000000000004,0.191,0.059,99.86,3.0,,0.0,0.0,
2025-08-15T01:07:47.489Z,2,GR86-035-11,3.4000000000000004,0.193,0.054,99.86,3.0,6590.0,0.0,0.0,
2025-08-15T01:07:47.533Z,2,GR86-035-11,3.4000000000000004,0.187,0.05,99.86,3.0,,0.0,0.0,142.38
2025-08-15T01:07:47.576Z,2,GR86-035-11,3.4000000000000004,0.19,0.067,99.86,3.0,,0.0,0.0,
2025-08-15T01:07:47.618Z,2,GR86-035-11,3.5,0.194,0.077,99.85,3.0,,0.0,0.0,
2025-08-15T01:07:47.662Z,2,GR86-035-11,3.6,0.179,0.066,99.87,3.0,,0.0,0.0,
2025-08-15T01:07:47.704Z,2,GR86-035-11,3.6,0.186,0.083,99.87,3.0,6734.0,0.0,0.0,
2025-08-15T01:07:47.747Z,2,GR86-035-11,3.6,0.205,0.079,99.86,3.0,,0.0,0.0,143.96
2025-08-15T01:07:47.791Z,2,GR86-035-11,3.6,0.205,0.036,99.87,3.0,,0.0,0.0,
2025-08-15T01:07:47.834Z,2,GR86-035-11,3.6,0.175,0.044,99.86,3.0,,0.0,0.0,
2025-08-15T01:07:47.876Z,2,GR86-035-11,3.6,0.164,0.073,99.87,3.0,,0.0,0.0,
2025-08-15T01:07:47.920Z,2,GR86-035-11,3.6,0.188,0.068,99.85,3.0,6817.0,0.0,0.0,
2025-08-15T01:07:47.963Z,2,GR86-035-11,3.6,0.187,0.062,99.87,3.0,,0.0,0.0,145.54
2025-08-15T01:07:48.006Z,2,GR86-035-11,3.7,0.184,0.071,99.87,3.0,,0.0,0.0,
2025-08-15T01:07:48.050Z,2,GR86-035-11,3.8,0.203,0.073,99.85,3.0,,0.0,0.0,
2025-08-15T01:07:48.093Z,2,GR86-035-11,3.8,0.184,0.044,99.87,3.0,,0.0,0.0,
2025-08-15T01:07:48.136Z,2,GR86-035-11,4.0,0.187,0.035,99.87,3.0,6896.0,0.0,0.0,
2025-08-15T01:07:48.178Z,2,GR86-035-11,4.4,0.182,0.042,99.86,3.0,,0.0,0.0,147.20000000000002
2025-08-15T01:07:48.224Z,2,GR86-035-11,4.4,0.177,0.058,99.86,3.0,,0.0,0.0,
2025-08-15T01:07:48.267Z,2,GR86-035-11,4.4,0.172,0.067,99.87,3.0,,0.0,0.0,
2025-08-15T01:07:48.310Z,2,GR86-035-11,4.4,0.187,0.069,99.86,3.0,,0.0,0.0,
2025-08-15T01:07:48.353Z,2,GR86-035-11,4.4,0.197,0.096,99.87,3.0,6968.0,0.0,0.0,
2025-08-15T01:07:48.396Z,2,GR86-035-11,4.4,0.196,0.09,99.87,3.0,,0.0,0.0,148.84
2025-08-15T01:07:48.438Z,2,GR86-035-11,4.4,0.173,0.081,99.87,3.0,,0.0,0.0,
2025-08-15T01:07:48.484Z,2,GR86-035-11,4.4,0.196,0.103,99.87,3.0,,0.0,0.0,
2025-08-15T01:07:48.526Z,2,GR86-035-11,4.4,0.183,0.097,99.86,3.0,,0.0,0.0,
2025-08-15T01:07:48.570Z,2,GR86-035-11,4.4,0.165,0.084,99.86,3.0,7046.0,0.0,0.0,
2025-08-15T01:07:48.614Z,2,GR86-035-11,4.4,0.168,0.063,99.87,3.0,,0.0,0.0,150.53
2025-08-15T01:07:48.657Z,2,GR86-035-11,4.4,0.164,0.087,99.85,3.0,,0.0,0.0,
2025-08-15T01:07:48.700Z,2,GR86-035-11,4.4,0.183,0.081,99.87,3.0,,0.0,0.0,
2025-08-15T01:07:48.743Z,2,GR86-035-11,4.4,0.163,0.053,99.85,3.0,,0.0,0.0,
2025-08-15T01:07:48.786Z,2,GR86-035-11,4.4,0.166,0.074,99.86,3.0,7130.0,0.0,0.0,
2025-08-15T01:07:48.830Z,2,GR86-035-11,4.4,0.171,0.101,99.88,3.0,,0.0,0.0,152.28
2025-08-15T01:07:48.873Z,2,GR86-035-11,4.4,0.172,0.083,99.86,3.0,,0.0,0.0,
2025-08-15T01:07:48.916Z,2,GR86-035-11,4.4,0.17,0.072,99.87,3.0,,0.0,0.0,
2025-08-15T01:07:48.960Z,2,GR86-035-11,4.4,0.168,0.029,99.84,3.0,,0.0,0.0,
2025-08-15T01:07:49.003Z,2,GR86-035-11,4.4,0.187,0.08,99.86,3.0,7203.0,0.0,0.0,
2025-08-15T01:07:49.046Z,2,GR86-035-11,4.4,0.09,0.055,99.86,3.0,,0.0,0.0,154.09
2025-08-15T01:07:49.090Z,2,GR86-035-11,4.4,-0.171,0.083,99.87,4.0,,0.0,0.0,
2025-08-15T01:07:49.134Z,2,GR86-035-11,4.4,0.501,0.069,99.87,4.0,,0.0,0.0,
2025-08-15T01:07:49.176Z,2,GR86-035-11,4.4,0.202,0.018,99.86,4.0,,0.0,0.0,
2025-08-15T01:07:49.220Z,2,GR86-035-11,4.4,0.248,0.086,99.85,4.0,6925.0,0.0,0.0,
2025-08-15T01:07:49.264Z,2,GR86-035-11,4.4,0.088,0.035,99.86,4.0,,0.0,0.0,155.77
2025-08-15T01:07:49.306Z,2,GR86-035-11,4.4,0.046,0.042,99.87,4.0,,0.0,0.0,
2025-08-15T01:07:49.350Z,2,GR86-035-11,4.4,0.166,0.116,99.9,4.0,,0.0,0.0,
2025-08-15T01:07:49.393Z,2,GR86-035-11,4.4,0.189,0.062,99.87,4.0,,0.0,0.0,
2025-08-15T01:07:49.436Z,2,GR86-035-11,4.4,0.138,0.091,99.88,4.0,6111.0,0.0,0.0,
2025-08-15T01:07:49.478Z,2,GR86-035-11,4.4,0.113,0.077,99.86,4.0,,0.0,0.0,157.32
2025-08-15T01:07:49.524Z,2,GR86-035-11,4.4,0.148,0.087,99.87,4.0,,0.0,0.0,
2025-08-15T01:07:49.566Z,2,GR86-035-11,4.3,0.177,0.064,99.86,4.0,,0.0,0.0,
2025-08-15T01:07:49.610Z,2,GR86-035-11,4.4,0.13,0.06,99.87,4.0,,0.0,0.0,
2025-08-15T01:07:49.653Z,2,GR86-035-11,4.4,0.117,0.035,99.87,4.0,6260.0,0.0,0.0,
2025-08-15T01:07:49.696Z,2,GR86-035-11,4.0,0.151,0.029,99.86,4.0,,0.0,0.0,158.99
2025-08-15T01:07:49.738Z,2,GR86-035-11,3.6,0.148,0.06,99.86,4.0,,0.0,0.0,
2025-08-15T01:07:49.783Z,2,GR86-035-11,2.5,0.127,0.034,99.88,4.0,,0.0,0.0,
2025-08-15T01:07:49.826Z,2,GR86-035-11,2.1,0.144,0.021,99.86,4.0,,0.0,0.0,
2025-08-15T01:07:49.870Z,2,GR86-035-11,2.1,0.154,-0.01,99.86,4.0,6332.0,0.0,0.0,
2025-08-15T01:07:49.913Z,2,GR86-035-11,1.8,0.128,-0.009,99.87,4.0,,0.0,0.0,162.12
2025-08-15T01:07:49.957Z,2,GR86-035-11,1.4,0.115,-0.005,99.87,4.0,,0.0,0.0,
2025-08-15T01:07:50.000Z,2,GR86-035-11,1.4,0.107,-0.036,99.88,4.0,,0.0,0.0,
2025-08-15T01:07:50.044Z,2,GR86-035-11,0.6000000000000001,0.133,-0.049,99.87,4.0,,0.0,0.0,
2025-08-15T01:07:50.086Z,2,GR86-035-11,0.0,0.131,-0.061,99.88,4.0,6376.0,0.0,0.0,
2025-08-15T01:07:50.130Z,2,GR86-035-11,-0.2,0.116,-0.057,99.86,4.0,,0.0,0.0,163.64
2025-08-15T01:07:50.173Z,2,GR86-035-11,-0.2,0.115,-0.071,99.87,4.0,,0.0,0.0,
2025-08-15T01:07:50.216Z,2,GR86-035-11,-0.2,0.126,-0.066,99.86,4.0,,0.0,0.0,
2025-08-15T01:07:50.258Z,2,GR86-035-11,-0.3,0.129,-0.068,99.88,4.0,,0.0,0.0,
2025-08-15T01:07:50.304Z,2,GR86-035-11,-2.2,0.128,-0.068,99.87,4.0,6487.0,0.0,0.0,
2025-08-15T01:07:50.346Z,2,GR86-035-11,-2.9000000000000004,0.119,-0.106,99.86,4.0,,0.0,0.0,165.20000000000002
2025-08-15T01:07:50.389Z,2,GR86-035-11,-4.2,0.128,-0.107,99.86,4.0,,0.0,0.0,
2025-08-15T01:07:50.433Z,2,GR86-035-11,-7.0,0.127,-0.153,99.87,4.0,,0.0,0.0,
2025-08-15T01:07:50.476Z,2,GR86-035-11,-8.3,0.121,-0.195,99.87,4.0,,0.0,0.0,
2025-08-15T01:07:50.519Z,2,GR86-035-11,-8.700000000000001,0.124,-0.248,99.86,4.0,6542.0,0.0,0.0,
2025-08-15T01:07:50.562Z,2,GR86-035-11,-10.6,0.115,-0.319,99.88,4.0,,0.0,0.0,166.58
2025-08-15T01:07:50.606Z,2,GR86-035-11,-11.8,0.109,-0.375,99.86,4.0,,0.0,0.0,
2025-08-15T01:07:50.650Z,2,GR86-035-11,-13.4,0.115,-0.406,99.86,4.0,,0.0,0.0,
2025-08-15T01:07:50.693Z,2,GR86-035-11,-14.5,0.109,-0.458,99.87,4.0,,0.0,0.0,
2025-08-15T01:07:50.736Z,2,GR86-035-11,-14.1,0.11,-0.503,99.87,4.0,6602.0,0.0,0.0,
2025-08-15T01:07:50.778Z,2,GR86-035-11,-12.4,0.115,-0.541,99.87,4.0,,0.0,0.0,167.99
2025-08-15T01:07:50.822Z,2,GR86-035-11,-10.9,0.095,-0.5640000000000001,99.86,4.0,,0.0,0.0,
2025-08-15T01:07:50.864Z,2,GR86-035-11,-10.2,0.084,-0.544,99.87,4.0,,0.0,0.0,
2025-08-15T01:07:50.907Z,2,GR86-035-11,-10.3,0.101,-0.526,99.88,4.0,,0.0,0.0,
2025-08-15T01:07:50.950Z,2,GR86-035-11,-10.4,0.1,-0.535,99.86,4.0,6661.0,0.0,0.0,
2025-08-15T01:07:50.994Z,2,GR86-035-11,-11.0,0.102,-0.5,99.86,4.0,,0.0,0.0,169.37
2025-08-15T01:07:51.036Z,2,GR86-035-11,-13.1,0.098,-0.472,99.88,4.0,,0.0,0.0,
2025-08-15T01:07:51.081Z,2,GR86-035-11,-14.3,0.112,-0.487,99.87,4.0,,0.0,0.0,
2025-08-15T01:07:51.124Z,2,GR86-035-11,-13.9,0.108,-0.489,99.87,4.0,,0.0,0.0,
2025-08-15T01:07:51.166Z,2,GR86-035-11,-10.8,0.097,-0.495,99.87,4.0,6706.0,0.0,0.0,
2025-08-15T01:07:51.210Z,2,GR86-035-11,-9.3,0.107,-0.471,99.87,4.0,,0.0,0.0,170.74
2025-08-15T01:07:51.254Z,2,GR86-035-11,-9.2,0.099,-0.453,99.89,4.0,,0.0,0.0,
2025-08-15T01:07:51.296Z,2,GR86-035-11,-9.4,0.109,-0.464,99.87,4.0,,0.0,0.0,
2025-08-15T01:07:51.340Z,2,GR86-035-11,-10.0,0.099,-0.443,99.86,4.0,,0.0,0.0,
2025-08-15T01:07:51.384Z,2,GR86-035-11,-10.0,0.119,-0.449,99.87,4.0,6763.0,0.0,0.0,
2025-08-15T01:07:51.426Z,2,GR86-035-11,-9.3,0.113,-0.441,99.88,4.0,,0.0,0.0,171.99
2025-08-15T01:07:51.470Z,2,GR86-035-11,-8.8,0.111,-0.414,99.88,4.0,,0.0,0.0,
2025-08-15T01:07:51.514Z,2,GR86-035-11,-8.8,0.104,-0.41,99.87,4.0,,0.0,0.0,
2025-08-15T01:07:51.556Z,2,GR86-035-11,-8.8,0.118,-0.384,86.92,4.0,,0.0,0.0,
2025-08-15T01:07:51.600Z,2,GR86-035-11,-8.9,0.104,-0.381,17.77,4.0,6805.0,0.0,0.0,
2025-08-15T01:07:51.643Z,2,GR86-035-11,-8.9,0.118,-0.356,4.94,4.0,,0.0,0.0,173.35
2025-08-15T01:07:51.686Z,2,GR86-035-11,-8.4,-0.115,-0.338,4.45,4.0,,0.0,0.0,
2025-08-15T01:07:51.728Z,2,GR86-035-11,-6.0,-0.114,-0.329,4.16,4.0,,0.0,0.0,
2025-08-15T01:07:51.772Z,2,GR86-035-11,-3.7,-0.442,-0.346,3.82,4.0,,0.0,0.0,
2025-08-15T01:07:51.816Z,2,GR86-035-11,-3.1,-0.167,-0.293,3.36,4.0,6625.0,0.0,0.0,
2025-08-15T01:07:51.860Z,2,GR86-035-11,-2.7,-0.066,-0.279,2.93,4.0,,0.0,0.0,174.64
2025-08-15T01:07:51.904Z,2,GR86-035-11,-0.8,-0.162,-0.257,2.67,4.0,,10.5,10.27,
2025-08-15T01:07:51.946Z,2,GR86-035-11,-0.7000000000000001,-0.504,-0.167,2.58,4.0,,16.22,15.96,
2025-08-15T01:07:51.990Z,2,GR86-035-11,-0.2,-0.539,-0.181,2.54,4.0,,22.28,21.99,
2025-08-15T01:07:52.033Z,2,GR86-035-11,1.5,-0.585,-0.097,2.52,4.0,6733.0,29.5,29.085,
2025-08-15T01:07:52.076Z,2,GR86-035-11,1.6,-0.721,-0.062,2.51,4.0,,36.67,36.12,174.77
2025-08-15T01:07:52.118Z,2,GR86-035-11,-0.2,-0.891,-0.019,2.5,4.0,,43.05,42.36,
2025-08-15T01:07:52.162Z,2,GR86-035-11,-2.1,-1.026,-0.043,2.5,4.0,,53.21,52.465,
2025-08-15T01:07:52.204Z,2,GR86-035-11,-2.1,-1.093,-0.035,2.5,4.0,,59.775,58.795,
2025-08-15T01:07:52.247Z,2,GR86-035-11,-2.1,-1.19,-0.039,2.49,4.0,6546.0,65.65,64.72,
2025-08-15T01:07:52.291Z,2,GR86-035-11,-2.4000000000000004,-1.256,-0.068,2.5,4.0,,70.395,69.4,172.44
2025-08-15T01:07:52.334Z,2,GR86-035-11,-2.4000000000000004,-1.285,-0.103,2.49,4.0,,76.025,75.965,
2025-08-15T01:07:52.376Z,2,GR86-035-11,-2.4000000000000004,-1.398,-0.113,2.72,4.0,,82.83,83.55,
2025-08-15T01:07:52.420Z,2,GR86-035-11,-2.3000000000000003,-1.398,-0.097,40.29,4.0,,85.87,85.625,
2025-08-15T01:07:52.463Z,2,GR86-035-11,0.4,-1.389,-0.138,29.26,3.0,6231.0,88.58500000000001,88.86,
2025-08-15T01:07:52.506Z,2,GR86-035-11,0.4,-1.261,-0.023,5.17,3.0,,84.295,86.125,157.54
2025-08-15T01:07:52.550Z,2,GR86-035-11,0.5,-1.306,-0.078,4.38,3.0,,74.24,76.33,
2025-08-15T01:07:52.593Z,2,GR86-035-11,0.8,-1.341,-0.047,4.03,3.0,,66.075,66.67,
2025-08-15T01:07:52.636Z,2,GR86-035-11,0.8,-1.192,-0.025,3.7,3.0,,62.595,63.620000000000005,
2025-08-15T01:07:52.678Z,2,GR86-035-11,0.6000000000000001,-1.106,-0.075,3.2,3.0,5751.0,62.66,64.155,
2025-08-15T01:07:52.723Z,2,GR86-035-11,-1.2000000000000002,-1.214,-0.13,2.75,3.0,,61.545,61.82,147.54
2025-08-15T01:07:52.766Z,2,GR86-035-11,-2.0,-1.163,-0.082,2.63,3.0,,62.690000000000005,63.71,
2025-08-15T01:07:52.810Z,2,GR86-035-11,-2.0,-1.113,-0.272,2.56,3.0,,62.84,62.78,
2025-08-15T01:07:52.853Z,2,GR86-035-11,-2.0,-1.197,-0.177,2.54,3.0,,62.84,63.59,
2025-08-15T01:07:52.896Z,2,GR86-035-11,-2.0,-1.192,-0.183,2.53,3.0,6320.0,59.39,60.825,
2025-08-15T01:07:52.938Z,2,GR86-035-11,-2.0,-1.087,-0.252,2.51,3.0,,51.685,52.92,140.5
2025-08-15T01:07:52.982Z,2,GR86-035-11,-3.4000000000000004,-0.991,-0.209,2.49,3.0,,47.46,48.39,
2025-08-15T01:07:53.026Z,2,GR86-035-11,-4.7,-1.052,-0.292,2.49,3.0,,48.235,48.83,
2025-08-15T01:07:53.070Z,2,GR86-035-11,-5.800000000000001,-1.094,-0.278,2.49,3.0,,50.1,50.19,
2025-08-15T01:07:53.114Z,2,GR86-035-11,-6.7,-1.08,-0.312,2.49,3.0,5910.0,51.81,51.715,
2025-08-15T01:07:53.156Z,2,GR86-035-11,-6.800000000000001,-1.085,-0.318,20.11,3.0,,52.74,52.77,134.07
2025-08-15T01:07:53.200Z,2,GR86-035-11,-6.800000000000001,-1.119,-0.291,55.96,2.0,,53.335,53.425,
2025-08-15T01:07:53.243Z,2,GR86-035-11,-6.800000000000001,-1.19,-0.215,5.64,2.0,,53.21,54.14,
2025-08-15T01:07:53.286Z,2,GR86-035-11,-6.800000000000001,-1.128,-0.211,4.48,2.0,,52.83,53.805,
2025-08-15T01:07:53.330Z,2,GR86-035-11,-6.800000000000001,-1.077,-0.409,4.13,2.0,6000.0,47.365,47.84,
2025-08-15T01:07:53.373Z,2,GR86-035-11,-8.1,-1.167,-0.306,3.83,2.0,,41.31,42.18,127.56
2025-08-15T01:07:53.416Z,2,GR86-035-11,-9.7,-0.951,-0.362,3.42,2.0,,39.785,40.53,
2025-08-15T01:07:53.459Z,2,GR86-035-11,-12.3,-0.974,-0.6990000000000001,2.94,2.0,,38.655,39.095,
2025-08-15T01:07:53.546Z,2,GR86-035-11,-21.3,-0.895,-0.78,2.56,2.0,6506.0,40.925,41.52,
2025-08-15T01:07:53.590Z,2,GR86-035-11,-23.6,-0.854,-0.8190000000000001,2.54,2.0,,40.865,40.895,120.55
2025-08-15T01:07:53.634Z,2,GR86-035-11,-24.4,-0.8270000000000001,-0.6890000000000001,2.51,2.0,,39.815,40.09,
2025-08-15T01:07:53.676Z,2,GR86-035-11,-25.700000000000003,-0.807,-0.8280000000000001,2.5,2.0,,37.92,38.625,
2025-08-15T01:07:53.721Z,2,GR86-035-11,-31.8,-0.8290000000000001,-0.788,2.49,2.0,,36.485,37.08,
2025-08-15T01:07:53.764Z,2,GR86-035-11,-38.1,-0.6960000000000001,-0.976,2.49,2.0,6094.0,32.93,33.555,
2025-08-15T01:07:53.806Z,2,GR86-035-11,-38.2,-0.753,-0.869,2.49,2.0,,31.83,32.335,115.74
2025-08-15T01:07:53.850Z,2,GR86-035-11,-38.6,-0.776,-0.944,2.49,2.0,,33.25,33.71,
2025-08-15T01:07:53.893Z,2,GR86-035-11,-39.1,-0.883,-1.036,2.49,2.0,,31.83,32.015,
2025-08-15T01:07:53.936Z,2,GR86-035-11,-38.5,-0.774,-0.984,2.49,2.0,,25.27,25.665,
2025-08-15T01:07:53.978Z,2,GR86-035-11,-35.7,-0.549,-0.964,2.49,2.0,5761.0,20.555,21.09,
2025-08-15T01:07:54.024Z,2,GR86-035-11,-35.5,-0.491,-1.019,2.49,2.0,,14.3,14.635,110.95
2025-08-15T01:07:54.066Z,2,GR86-035-11,-36.6,-0.418,-1.041,2.49,2.0,,6.655,6.96,
2025-08-15T01:07:54.110Z,2,GR86-035-11,-36.6,-0.343,-1.094,2.49,2.0,,0.0,0.0,
2025-08-15T01:07:54.153Z,2,GR86-035-11,-36.6,-0.279,-1.076,2.49,2.0,,0.0,0.0,
2025-08-15T01:07:54.196Z,2,GR86-035-11,-39.6,-0.23,-1.165,2.49,2.0,5664.0,0.0,0.0,
2025-08-15T01:07:54.238Z,2,GR86-035-11,-43.2,-0.204,-1.143,2.48,2.0,,0.0,0.0,106.23
2025-08-15T01:07:54.283Z,2,GR86-035-11,-49.900000000000006,-0.219,-1.142,2.49,2.0,,0.0,0.0,
2025-08-15T01:07:54.326Z,2,GR86-035-11,-57.7,-0.219,-1.118,2.48,2.0,,0.0,0.0,
2025-08-15T01:07:54.370Z,2,GR86-035-11,-65.2,-0.232,-1.143,2.5,2.0,,0.0,0.0,
2025-08-15T01:07:54.413Z,2,GR86-035-11,-71.4,-0.25,-1.146,2.48,2.0,5747.0,0.0,0.0,
2025-08-15T01:07:54.456Z,2,GR86-035-11,-77.5,-0.236,-1.143,2.47,2.0,,0.0,0.0,104.19
2025-08-15T01:07:54.500Z,2,GR86-035-11,-82.60000000000001,-0.256,-1.167,2.49,2.0,,0.0,0.0,
2025-08-15T01:07:54.543Z,2,GR86-035-11,-85.7,-0.266,-1.249,2.49,2.0,,0.0,0.0,
2025-08-15T01:07:54.586Z,2,GR86-035-11,-84.4,-0.246,-1.246,2.49,2.0,,0.0,0.0,
2025-08-15T01:07:54.630Z,2,GR86-035-11,-80.80000000000001,-0.253,-1.301,2.5,2.0,5680.0,0.0,0.0,
2025-08-15T01:07:54.673Z,2,GR86-035-11,-75.5,-0.247,-1.278,14.33,2.0,,0.0,0.0,102.39
2025-08-15T01:07:54.716Z,2,GR86-035-11,-67.9,-0.249,-1.317,19.98,2.0,,0.0,0.0,
2025-08-15T01:07:54.759Z,2,GR86-035-11,-60.2,-0.225,-1.277,22.81,2.0,,0.0,0.0,
2025-08-15T01:07:54.803Z,2,GR86-035-11,-52.2,-0.161,-1.367,38.67,2.0,,0.0,0.0,
2025-08-15T01:07:54.846Z,2,GR86-035-11,-46.400000000000006,-0.15,-1.35,43.12,2.0,5576.0,0.0,0.0,
2025-08-15T01:07:54.889Z,2,GR86-035-11,-43.6,-0.127,-1.319,52.33,2.0,,0.0,0.0,101.59
2025-08-15T01:07:54.934Z,2,GR86-035-11,-43.6,0.01,-1.315,58.54,2.0,,0.0,0.0,
2025-08-15T01:07:54.976Z,2,GR86-035-11,-43.400000000000006,0.25,-1.229,58.24,2.0,,0.0,0.0,
2025-08-15T01:07:55.020Z,2,GR86-035-11,-43.3,0.209,-1.259,66.31,2.0,,0.0,0.0,
2025-08-15T01:07:55.064Z,2,GR86-035-11,-44.900000000000006,0.233,-1.221,91.47,2.0,5728.0,0.0,0.0,
2025-08-15T01:07:55.106Z,2,GR86-035-11,-54.900000000000006,0.222,-1.191,93.05,2.0,,0.0,0.0,99.54
2025-08-15T01:07:55.150Z,2,GR86-035-11,-69.8,0.184,-1.224,99.56,2.0,,0.0,0.0,
2025-08-15T01:07:55.193Z,2,GR86-035-11,-81.0,0.168,-1.22,99.79,2.0,,0.0,0.0,
2025-08-15T01:07:55.278Z,2,GR86-035-11,-85.2,0.168,-1.228,99.8,2.0,5921.0,0.0,0.0,
2025-08-15T01:07:55.322Z,2,GR86-035-11,-84.4,0.199,-1.181,87.63,2.0,,0.0,0.0,99.73
2025-08-15T01:07:55.366Z,2,GR86-035-11,-83.7,0.197,-1.225,86.4,2.0,,0.0,0.0,
2025-08-15T01:07:55.410Z,2,GR86-035-11,-81.0,0.183,-1.129,88.29,2.0,,0.0,0.0,
2025-08-15T01:07:55.453Z,2,GR86-035-11,-76.7,0.159,-1.178,88.49,2.0,,0.0,0.0,
2025-08-15T01:07:55.496Z,2,GR86-035-11,-72.3,0.194,-1.129,88.69,2.0,5974.0,0.0,0.0,
2025-08-15T01:07:55.538Z,2,GR86-035-11,-69.4,0.178,-1.144,92.89,2.0,,0.0,0.0,100.72
2025-08-15T01:07:55.582Z,2,GR86-035-11,-63.7,0.175,-1.148,95.25,2.0,,0.0,0.0,
2025-08-15T01:07:55.626Z,2,GR86-035-11,-58.900000000000006,0.17,-1.115,97.07,2.0,,0.0,0.0,
2025-08-15T01:07:55.668Z,2,GR86-035-11,-57.400000000000006,0.174,-1.073,99.79,2.0,,0.0,0.0,
2025-08-15T01:07:55.714Z,2,GR86-035-11,-57.400000000000006,0.187,-1.15,99.79,2.0,6014.0,0.0,0.0,
2025-08-15T01:07:55.757Z,2,GR86-035-11,-59.900000000000006,0.201,-1.06,99.77,2.0,,0.0,0.0,102.29
2025-08-15T01:07:55.800Z,2,GR86-035-11,-64.0,0.171,-1.177,99.77,2.0,,0.0,0.0,
2025-08-15T01:07:55.843Z,2,GR86-035-11,-66.7,0.167,-1.153,99.78,2.0,,0.0,0.0,
2025-08-15T01:07:55.886Z,2,GR86-035-11,-67.10000000000001,0.18,-1.239,99.8,2.0,,0.0,0.0,
2025-08-15T01:07:55.930Z,2,GR86-035-11,-67.10000000000001,0.162,-1.229,99.81,2.0,6105.0,0.0,0.0,
2025-08-15T01:07:56.016Z,2,GR86-035-11,-64.7,0.177,-1.186,99.81,2.0,,0.0,0.0,103.86
2025-08-15T01:07:56.060Z,2,GR86-035-11,-53.3,0.168,-1.126,99.81,2.0,,0.0,0.0,
2025-08-15T01:07:56.104Z,2,GR86-035-11,-48.6,0.185,-1.023,99.8,2.0,,0.0,0.0,
2025-08-15T01:07:56.146Z,2,GR86-035-11,-47.2,0.162,-1.143,99.8,2.0,6179.0,0.0,0.0,
2025-08-15T01:07:56.190Z,2,GR86-035-11,-45.1,0.172,-1.069,99.81,2.0,,0.0,0.0,105.35
2025-08-15T01:07:56.234Z,2,GR86-035-11,-44.1,0.161,-1.137,99.8,2.0,,0.0,0.0,
2025-08-15T01:07:56.276Z,2,GR86-035-11,-44.1,0.186,-1.187,99.8,2.0,,0.0,0.0,
2025-08-15T01:07:56.320Z,2,GR86-035-11,-44.900000000000006,0.215,-1.095,99.81,2.0,,0.0,0.0,
2025-08-15T01:07:56.364Z,2,GR86-035-11,-45.5,0.198,-1.096,99.8,2.0,6299.0,0.0,0.0,
2025-08-15T01:07:56.406Z,2,GR86-035-11,-43.900000000000006,0.153,-1.129,99.83,2.0,,0.0,0.0,106.68
2025-08-15T01:07:56.450Z,2,GR86-035-11,-39.3,0.184,-1.181,99.82,2.0,,0.0,0.0,
2025-08-15T01:07:56.493Z,2,GR86-035-11,-35.300000000000004,0.211,-1.199,99.8,2.0,,0.0,0.0,
2025-08-15T01:07:56.536Z,2,GR86-035-11,-34.7,0.207,-1.243,99.82,2.0,,0.0,0.0,
2025-08-15T01:07:56.578Z,2,GR86-035-11,-36.5,0.213,-1.218,99.83,2.0,6371.0,0.0,0.0,
2025-08-15T01:07:56.624Z,2,GR86-035-11,-41.5,0.206,-1.222,99.83,2.0,,0.0,0.0,107.9
2025-08-15T01:07:56.666Z,2,GR86-035-11,-44.5,0.208,-1.131,99.84,2.0,,0.0,0.0,
2025-08-15T01:07:56.710Z,2,GR86-035-11,-45.1,0.205,-1.083,99.83,2.0,,0.0,0.0,
2025-08-15T01:07:56.753Z,2,GR86-035-11,-44.3,0.177,-1.055,99.84,2.0,,0.0,0.0,
2025-08-15T01:07:56.796Z,2,GR86-035-11,-43.1,0.188,-0.989,99.83,2.0,6347.0,0.0,0.0,
2025-08-15T01:07:56.838Z,2,GR86-035-11,-43.1,0.183,-1.001,99.83,2.0,,0.0,0.0,109.65
2025-08-15T01:07:56.884Z,2,GR86-035-11,-43.8,0.22,-0.901,99.84,2.0,,0.0,0.0,
2025-08-15T01:07:56.926Z,2,GR86-035-11,-45.1,0.206,-0.96,99.83,2.0,,0.0,0.0,
2025-08-15T01:07:56.970Z,2,GR86-035-11,-45.2,0.186,-0.932,99.83,2.0,,0.0,0.0,
2025-08-15T01:07:57.014Z,2,GR86-035-11,-42.900000000000006,0.159,-0.981,99.84,2.0,6430.0,0.0,0.0,
2025-08-15T01:07:57.056Z,2,GR86-035-11,-38.3,0.203,-0.978,99.84,2.0,,0.0,0.0,109.96
2025-08-15T01:07:57.100Z,2,GR86-035-11,-34.1,0.199,-0.988,99.83,2.0,,0.0,0.0,
2025-08-15T01:07:57.143Z,2,GR86-035-11,-31.9,0.207,-0.932,99.84,2.0,,0.0,0.0,
2025-08-15T01:07:57.186Z,2,GR86-035-11,-32.0,0.204,-0.966,99.83,2.0,,0.0,0.0,
2025-08-15T01:07:57.230Z,2,GR86-035-11,-32.800000000000004,0.218,-0.923,99.84,2.0,6549.0,0.0,0.0,
2025-08-15T01:07:57.274Z,2,GR86-035-11,-33.0,0.206,-0.899,99.84,2.0,,0.0,0.0,112.17
2025-08-15T01:07:57.316Z,2,GR86-035-11,-33.1,0.212,-0.864,99.83,2.0,,0.0,0.0,
2025-08-15T01:07:57.360Z,2,GR86-035-11,-33.1,0.198,-0.855,99.84,2.0,,0.0,0.0,
2025-08-15T01:07:57.404Z,2,GR86-035-11,-33.0,0.203,-0.893,99.84,2.0,,0.0,0.0,
2025-08-15T01:07:57.446Z,2,GR86-035-11,-31.6,0.221,-0.86,99.84,2.0,6602.0,0.0,0.0,
2025-08-15T01:07:57.490Z,2,GR86-035-11,-30.0,0.217,-0.845,99.83,2.0,,0.0,0.0,113.25
2025-08-15T01:07:57.534Z,2,GR86-035-11,-28.8,0.197,-0.8240000000000001,99.84,2.0,,0.0,0.0,
2025-08-15T01:07:57.576Z,2,GR86-035-11,-28.0,0.2,-0.8280000000000001,99.84,2.0,,0.0,0.0,
2025-08-15T01:07:57.620Z,2,GR86-035-11,-27.700000000000003,0.221,-0.804,99.84,2.0,,0.0,0.0,
2025-08-15T01:07:57.664Z,2,GR86-035-11,-26.9,0.244,-0.8220000000000001,99.82,2.0,6691.0,0.0,0.0,
2025-08-15T01:07:57.706Z,2,GR86-035-11,-26.5,0.215,-0.78,99.84,2.0,,0.0,0.0,116.43
2025-08-15T01:07:57.750Z,2,GR86-035-11,-25.3,0.214,-0.78,99.84,2.0,,0.0,0.0,
2025-08-15T01:07:57.793Z,2,GR86-035-11,-23.0,0.21,-0.751,99.83,2.0,,0.0,0.0,
2025-08-15T01:07:57.836Z,2,GR86-035-11,-21.1,0.203,-0.7010000000000001,99.84,2.0,,0.0,0.0,
2025-08-15T01:07:57.878Z,2,GR86-035-11,-20.5,0.221,-0.637,99.84,2.0,6781.0,0.0,0.0,
2025-08-15T01:07:57.924Z,2,GR86-035-11,-20.5,0.227,-0.611,99.83,2.0,,0.0,0.0,118.2
2025-08-15T01:07:57.966Z,2,GR86-035-11,-20.5,0.223,-0.589,99.83,2.0,,0.0,0.0,
2025-08-15T01:07:58.010Z,2,GR86-035-11,-20.5,0.222,-0.5690000000000001,99.83,2.0,,0.0,0.0,
2025-08-15T01:07:58.053Z,2,GR86-035-11,-20.5,0.22,-0.535,99.83,2.0,,0.0,0.0,
2025-08-15T01:07:58.096Z,2,GR86-035-11,-20.4,0.216,-0.55,99.84,2.0,6859.0,0.0,0.0,
2025-08-15T01:07:58.138Z,2,GR86-035-11,-19.8,0.211,-0.542,99.84,2.0,,0.0,0.0,119.88
2025-08-15T01:07:58.183Z,2,GR86-035-11,-18.2,0.224,-0.538,99.84,2.0,,0.0,0.0,
2025-08-15T01:07:58.226Z,2,GR86-035-11,-17.1,0.235,-0.518,99.83,2.0,,0.0,0.0,
2025-08-15T01:07:58.270Z,2,GR86-035-11,-16.6,0.218,-0.499,99.85,2.0,,0.0,0.0,
2025-08-15T01:07:58.313Z,2,GR86-035-11,-16.400000000000002,0.212,-0.487,99.84,2.0,7031.0,0.0,0.0,
2025-08-15T01:07:58.356Z,2,GR86-035-11,-16.400000000000002,0.207,-0.458,99.84,2.0,,0.0,0.0,121.64
2025-08-15T01:07:58.400Z,2,GR86-035-11,-16.1,0.227,-0.472,99.84,2.0,,0.0,0.0,
2025-08-15T01:07:58.443Z,2,GR86-035-11,-15.7,0.229,-0.456,99.84,2.0,,0.0,0.0,
2025-08-15T01:07:58.486Z,2,GR86-035-11,-15.4,0.215,-0.45,99.83,2.0,,0.0,0.0,
2025-08-15T01:07:58.530Z,2,GR86-035-11,-14.9,0.212,-0.432,99.84,2.0,7130.0,0.0,0.0,
2025-08-15T01:07:58.574Z,2,GR86-035-11,-13.7,0.216,-0.446,99.84,2.0,,0.0,0.0,123.25
2025-08-15T01:07:58.616Z,2,GR86-035-11,-12.2,0.211,-0.442,99.86,2.0,,0.0,0.0,
2025-08-15T01:07:58.660Z,2,GR86-035-11,-9.8,0.217,-0.418,99.84,2.0,,0.0,0.0,
2025-08-15T01:07:58.704Z,2,GR86-035-11,-6.6000000000000005,0.225,-0.372,99.86,2.0,,0.0,0.0,
2025-08-15T01:07:58.746Z,2,GR86-035-11,-6.2,0.227,-0.339,99.84,2.0,7230.0,0.0,0.0,
2025-08-15T01:07:58.790Z,2,GR86-035-11,-6.2,0.202,-0.28,99.82,2.0,,0.0,0.0,124.94
2025-08-15T01:07:58.834Z,2,GR86-035-11,-5.9,0.217,-0.242,99.86,2.0,,0.0,0.0,
2025-08-15T01:07:58.876Z,2,GR86-035-11,-5.6000000000000005,0.207,-0.225,99.86,2.0,,0.0,0.0,
2025-08-15T01:07:58.920Z,2,GR86-035-11,-5.1000000000000005,0.171,-0.2,99.84,2.0,,0.0,0.0,
2025-08-15T01:07:58.964Z,2,GR86-035-11,-4.5,0.129,-0.187,99.86,2.0,7303.0,0.0,0.0,
2025-08-15T01:07:59.006Z,2,GR86-035-11,-4.3,0.109,-0.174,99.85,2.0,,0.0,0.0,126.62
2025-08-15T01:07:59.050Z,2,GR86-035-11,-4.3,0.069,-0.14,99.86,2.0,,0.0,0.0,
2025-08-15T01:07:59.093Z,2,GR86-035-11,-4.3,0.065,-0.138,99.87,2.0,,0.0,0.0,
2025-08-15T01:07:59.136Z,2,GR86-035-11,-4.3,-0.01,-0.128,99.86,3.0,,0.0,0.0,
2025-08-15T01:07:59.178Z,2,GR86-035-11,-4.2,-0.042,-0.095,99.87,3.0,7299.0,0.0,0.0,
2025-08-15T01:07:59.222Z,2,GR86-035-11,-1.9,0.183,-0.199,99.87,3.0,,0.0,0.0,128.17000000000002
2025-08-15T01:07:59.267Z,2,GR86-035-11,-1.0,0.297,-0.175,99.86,3.0,,0.0,0.0,
2025-08-15T01:07:59.310Z,2,GR86-035-11,-0.5,0.335,-0.108,99.86,3.0,,0.0,0.0,
2025-08-15T01:07:59.353Z,2,GR86-035-11,0.3,0.323,-0.184,99.86,3.0,,0.0,0.0,
2025-08-15T01:07:59.396Z,2,GR86-035-11,0.3,0.199,-0.116,99.86,3.0,6435.0,0.0,0.0,
2025-08-15T01:07:59.438Z,2,GR86-035-11,0.3,0.13,-0.068,99.88,3.0,,0.0,0.0,128.96
2025-08-15T01:07:59.483Z,2,GR86-035-11,1.3,0.176,-0.076,99.85,3.0,,0.0,0.0,
2025-08-15T01:07:59.526Z,2,GR86-035-11,1.7000000000000002,0.255,-0.019,99.85,3.0,,0.0,0.0,
2025-08-15T01:07:59.570Z,2,GR86-035-11,1.7000000000000002,0.243,-0.008,99.86,3.0,,0.0,0.0,
2025-08-15T01:07:59.614Z,2,GR86-035-11,1.7000000000000002,0.173,-0.002,99.87,3.0,6170.0,0.0,0.0,
2025-08-15T01:07:59.657Z,2,GR86-035-11,1.7000000000000002,0.157,0.002,99.86,3.0,,0.0,0.0,130.94
2025-08-15T01:07:59.700Z,2,GR86-035-11,1.7000000000000002,0.193,0.017,99.86,3.0,,0.0,0.0,
2025-08-15T01:07:59.744Z,2,GR86-035-11,2.0,0.222,0.004,99.86,3.0,,0.0,0.0,
2025-08-15T01:07:59.786Z,2,GR86-035-11,2.0,0.198,0.018,99.86,3.0,,0.0,0.0,
2025-08-15T01:07:59.830Z,2,GR86-035-11,2.0,0.188,-0.002,99.86,3.0,6219.0,0.0,0.0,
2025-08-15T01:07:59.874Z,2,GR86-035-11,2.0,0.18,0.011,99.87,3.0,,0.0,0.0,132.46
2025-08-15T01:07:59.916Z,2,GR86-035-11,2.0,0.197,0.031,99.87,3.0,,0.0,0.0,
2025-08-15T01:07:59.959Z,2,GR86-035-11,2.1,0.208,0.011,99.86,3.0,,0.0,0.0,
2025-08-15T01:08:00.004Z,2,GR86-035-11,2.2,0.188,0.02,99.85,3.0,,0.0,0.0,
2025-08-15T01:08:00.046Z,2,GR86-035-11,2.2,0.193,0.011,99.86,3.0,6271.0,0.0,0.0,
2025-08-15T01:08:00.090Z,2,GR86-035-11,2.3000000000000003,0.182,-0.016,99.87,3.0,,0.0,0.0,133.95
2025-08-15T01:08:00.134Z,2,GR86-035-11,2.3000000000000003,0.185,0.009,99.87,3.0,,0.0,0.0,
2025-08-15T01:08:00.176Z,2,GR86-035-11,2.3000000000000003,0.197,0.004,99.86,3.0,,0.0,0.0,
2025-08-15T01:08:00.220Z,2,GR86-035-11,2.3000000000000003,0.202,0.007,99.86,3.0,,0.0,0.0,
2025-08-15T01:08:00.263Z,2,GR86-035-11,2.3000000000000003,0.194,0.03,99.85,3.0,6330.0,0.0,0.0,
2025-08-15T01:08:00.306Z,2,GR86-035-11,2.6,0.177,0.012,99.87,3.0,,0.0,0.0,136.81
2025-08-15T01:08:00.348Z,2,GR86-035-11,2.9000000000000004,0.194,0.009,99.87,3.0,,0.0,0.0,
2025-08-15T01:08:00.392Z,2,GR86-035-11,2.9000000000000004,0.182,0.02,99.87,3.0,,0.0,0.0,
2025-08-15T01:08:00.434Z,2,GR86-035-11,3.1,0.196,0.02,99.87,3.0,,0.0,0.0,
2025-08-15T01:08:00.477Z,2,GR86-035-11,3.4000000000000004,0.18,0.012,99.86,3.0,6388.0,0.0,0.0,
2025-08-15T01:08:00.520Z,2,GR86-035-11,3.4000000000000004,0.184,0.016,99.85,3.0,,0.0,0.0,138.16
2025-08-15T01:08:00.564Z,2,GR86-035-11,3.4000000000000004,0.197,0.032,99.86,3.0,,0.0,0.0,
2025-08-15T01:08:00.606Z,2,GR86-035-11,3.4000000000000004,0.179,0.043,99.87,3.0,,0.0,0.0,
2025-08-15T01:08:00.650Z,2,GR86-035-11,3.4000000000000004,0.175,0.073,99.86,3.0,,0.0,0.0,
2025-08-15T01:08:00.693Z,2,GR86-035-11,3.4000000000000004,0.201,0.054,99.86,3.0,6459.0,0.0,0.0,
2025-08-15T01:08:00.736Z,2,GR86-035-11,3.5,0.187,0.037,99.87,3.0,,0.0,0.0,139.49
2025-08-15T01:08:00.778Z,2,GR86-035-11,3.5,0.181,0.026,99.86,3.0,,0.0,0.0,
2025-08-15T01:08:00.824Z,2,GR86-035-11,3.8,0.176,0.058,99.86,3.0,,0.0,0.0,
2025-08-15T01:08:00.866Z,2,GR86-035-11,3.9,0.177,0.042,99.86,3.0,,0.0,0.0,
2025-08-15T01:08:00.910Z,2,GR86-035-11,3.9,0.175,0.078,99.86,3.0,6584.0,0.0,0.0,
2025-08-15T01:08:00.953Z,2,GR86-035-11,3.9,0.203,0.08,99.87,3.0,,0.0,0.0,140.86
2025-08-15T01:08:00.996Z,2,GR86-035-11,3.9,0.186,0.054,99.87,3.0,,0.0,0.0,
2025-08-15T01:08:01.038Z,2,GR86-035-11,3.9,0.179,0.04,99.87,3.0,,0.0,0.0,
2025-08-15T01:08:01.084Z,2,GR86-035-11,3.9,0.195,0.042,99.85,3.0,,0.0,0.0,
2025-08-15T01:08:01.126Z,2,GR86-035-11,3.9,0.19,0.049,99.87,3.0,6651.0,0.0,0.0,
2025-08-15T01:08:01.170Z,2,GR86-035-11,3.9,0.169,0.073,99.87,3.0,,0.0,0.0,142.22
2025-08-15T01:08:01.215Z,2,GR86-035-11,3.9,0.179,0.093,99.87,3.0,,0.0,0.0,
2025-08-15T01:08:01.257Z,2,GR86-035-11,3.9,0.19,0.073,99.86,3.0,,0.0,0.0,
2025-08-15T01:08:01.301Z,2,GR86-035-11,3.9,0.199,0.069,99.86,3.0,,0.0,0.0,
2025-08-15T01:08:01.343Z,2,GR86-035-11,3.9,0.199,0.067,99.86,3.0,6717.0,0.0,0.0,
2025-08-15T01:08:01.386Z,2,GR86-035-11,3.9,0.183,0.046,99.87,3.0,,0.0,0.0,143.56
2025-08-15T01:08:01.430Z,2,GR86-035-11,3.9,0.17,0.057,99.84,3.0,,0.0,0.0,
2025-08-15T01:08:01.473Z,2,GR86-035-11,3.9,0.174,0.079,99.85,3.0,,0.0,0.0,
2025-08-15T01:08:01.516Z,2,GR86-035-11,3.9,0.203,0.074,99.86,3.0,,0.0,0.0,
2025-08-15T01:08:01.559Z,2,GR86-035-11,3.6,0.195,0.065,99.86,3.0,6779.0,0.0,0.0,
2025-08-15T01:08:01.604Z,2,GR86-035-11,3.3000000000000003,0.182,0.062,99.87,3.0,,0.0,0.0,144.87
2025-08-15T01:08:01.646Z,2,GR86-035-11,3.3000000000000003,0.185,0.055,99.87,3.0,,0.0,0.0,
2025-08-15T01:08:01.690Z,2,GR86-035-11,3.1,0.193,0.02,99.86,3.0,,0.0,0.0,
2025-08-15T01:08:01.733Z,2,GR86-035-11,2.9000000000000004,0.173,0.017,99.84,3.0,,0.0,0.0,
2025-08-15T01:08:01.776Z,2,GR86-035-11,2.9000000000000004,0.165,0.043,99.84,3.0,6829.0,0.0,0.0,
2025-08-15T01:08:01.818Z,2,GR86-035-11,2.9000000000000004,0.166,0.026,99.86,3.0,,0.0,0.0,146.14
2025-08-15T01:08:01.862Z,2,GR86-035-11,2.6,0.16,0.022,99.85,3.0,,0.0,0.0,
2025-08-15T01:08:01.906Z,2,GR86-035-11,2.5,0.171,0.005,99.85,3.0,,0.0,0.0,
2025-08-15T01:08:01.948Z,2,GR86-035-11,2.1,0.188,0.004,99.86,3.0,,0.0,0.0,
2025-08-15T01:08:01.992Z,2,GR86-035-11,1.7000000000000002,0.182,-0.032,99.85,3.0,6884.0,0.0,0.0,
2025-08-15T01:08:02.034Z,2,GR86-035-11,1.5,0.168,-0.035,99.85,3.0,,0.0,0.0,147.37
2025-08-15T01:08:02.077Z,2,GR86-035-11,1.5,0.162,-0.04,99.87,3.0,,0.0,0.0,
2025-08-15T01:08:02.120Z,2,GR86-035-11,1.5,0.164,-0.008,99.87,3.0,,0.0,0.0,
2025-08-15T01:08:02.164Z,2,GR86-035-11,1.5,0.165,-0.04,99.86,3.0,,0.0,0.0,
2025-08-15T01:08:02.206Z,2,GR86-035-11,1.5,0.161,-0.021,99.87,3.0,6937.0,0.0,0.0,
2025-08-15T01:08:02.250Z,2,GR86-035-11,1.5,0.16,-0.018,99.84,3.0,,0.0,0.0,148.61
2025-08-15T01:08:02.293Z,2,GR86-035-11,1.3,0.181,-0.018,99.87,3.0,,0.0,0.0,
2025-08-15T01:08:02.336Z,2,GR86-035-11,0.7000000000000001,0.182,-0.044,99.87,3.0,,0.0,0.0,
2025-08-15T01:08:02.378Z,2,GR86-035-11,0.6000000000000001,0.166,-0.041,99.85,3.0,,0.0,0.0,
2025-08-15T01:08:02.424Z,2,GR86-035-11,0.3,0.166,-0.039,99.85,3.0,7002.0,0.0,0.0,
2025-08-15T01:08:02.467Z,2,GR86-035-11,0.3,0.161,-0.065,99.87,3.0,,0.0,0.0,149.82
2025-08-15T01:08:02.510Z,2,GR86-035-11,0.2,0.165,-0.071,99.83,3.0,,0.0,0.0,
2025-08-15T01:08:02.553Z,2,GR86-035-11,0.2,0.149,-0.062,99.86,3.0,,0.0,0.0,
2025-08-15T01:08:02.596Z,2,GR86-035-11,0.1,0.154,-0.061,99.85,3.0,,0.0,0.0,
2025-08-15T01:08:02.638Z,2,GR86-035-11,0.1,0.164,-0.059,99.85,3.0,7049.0,0.0,0.0,
2025-08-15T01:08:02.683Z,2,GR86-035-11,0.0,0.154,-0.067,99.86,3.0,,0.0,0.0,151.0
2025-08-15T01:08:02.726Z,2,GR86-035-11,0.0,0.164,-0.061,99.84,3.0,,0.0,0.0,
2025-08-15T01:08:02.770Z,2,GR86-035-11,-0.4,0.162,-0.075,99.86,3.0,,0.0,0.0,
2025-08-15T01:08:02.813Z,2,GR86-035-11,-0.6000000000000001,0.142,-0.101,99.84,3.0,,0.0,0.0,
2025-08-15T01:08:02.856Z,2,GR86-035-11,-0.8,0.142,-0.114,99.86,3.0,7105.0,0.0,0.0,
2025-08-15T01:08:02.900Z,2,GR86-035-11,-0.9,0.159,-0.1,99.87,3.0,,0.0,0.0,152.15
2025-08-15T01:08:02.943Z,2,GR86-035-11,-1.0,0.16,-0.129,99.87,3.0,,0.0,0.0,
2025-08-15T01:08:02.986Z,2,GR86-035-11,-1.1,0.149,-0.128,99.87,3.0,,0.0,0.0,
2025-08-15T01:08:03.030Z,2,GR86-035-11,-1.2000000000000002,0.142,-0.118,99.87,3.0,,0.0,0.0,
2025-08-15T01:08:03.073Z,2,GR86-035-11,-1.3,0.143,-0.103,99.85,3.0,7160.0,0.0,0.0,
2025-08-15T01:08:03.116Z,2,GR86-035-11,-1.3,0.151,-0.09,99.85,3.0,,0.0,0.0,154.31
2025-08-15T01:08:03.159Z,2,GR86-035-11,-1.4,0.164,-0.099,99.86,3.0,,0.0,0.0,
2025-08-15T01:08:03.203Z,2,GR86-035-11,-1.4,0.129,-0.092,99.84,3.0,,0.0,0.0,
2025-08-15T01:08:03.246Z,2,GR86-035-11,-1.4,0.152,-0.096,99.86,3.0,,0.0,0.0,
2025-08-15T01:08:03.290Z,2,GR86-035-11,-1.4,0.15,-0.116,99.9,3.0,7203.0,0.0,0.0,
2025-08-15T01:08:03.334Z,2,GR86-035-11,-1.5,0.146,-0.126,99.85,3.0,,0.0,0.0,155.44
2025-08-15T01:08:03.376Z,2,GR86-035-11,-2.1,0.138,-0.139,99.87,3.0,,0.0,0.0,
2025-08-15T01:08:03.420Z,2,GR86-035-11,-2.9000000000000004,-0.019,-0.133,99.84,4.0,,0.0,0.0,
2025-08-15T01:08:03.464Z,2,GR86-035-11,-3.2,0.396,-0.116,99.87,4.0,,0.0,0.0,
2025-08-15T01:08:03.506Z,2,GR86-035-11,-3.2,0.138,-0.242,99.86,4.0,6624.0,0.0,0.0,
2025-08-15T01:08:03.550Z,2,GR86-035-11,-3.2,0.238,-0.196,99.87,4.0,,0.0,0.0,156.47
2025-08-15T01:08:03.593Z,2,GR86-035-11,-3.2,0.219,-0.166,99.86,4.0,,0.0,0.0,
2025-08-15T01:08:03.636Z,2,GR86-035-11,-3.2,0.075,-0.245,99.85,4.0,,0.0,0.0,
2025-08-15T01:08:03.678Z,2,GR86-035-11,-3.2,0.033,-0.174,99.87,4.0,,0.0,0.0,
2025-08-15T01:08:03.722Z,2,GR86-035-11,-3.2,0.17,-0.215,99.88,4.0,6200.0,0.0,0.0,
2025-08-15T01:08:03.764Z,2,GR86-035-11,-3.1,0.157,-0.177,99.86,4.0,,0.0,0.0,157.55
2025-08-15T01:08:03.807Z,2,GR86-035-11,-3.1,0.07,-0.153,99.87,4.0,,0.0,0.0,
2025-08-15T01:08:03.850Z,2,GR86-035-11,-3.0,0.108,-0.159,99.87,4.0,,0.0,0.0,
2025-08-15T01:08:03.894Z,2,GR86-035-11,-3.1,0.141,-0.149,99.86,4.0,,0.0,0.0,
2025-08-15T01:08:03.936Z,2,GR86-035-11,-3.0,0.155,-0.153,99.87,4.0,6250.0,0.0,0.0,
2025-08-15T01:08:03.980Z,2,GR86-035-11,-3.1,0.121,-0.154,99.86,4.0,,0.0,0.0,158.6
2025-08-15T01:08:04.024Z,2,GR86-035-11,-3.0,0.137,-0.131,99.86,4.0,,0.0,0.0,
2025-08-15T01:08:04.066Z,2,GR86-035-11,-3.1,0.137,-0.136,99.87,4.0,,0.0,0.0,
2025-08-15T01:08:04.110Z,2,GR86-035-11,-3.1,0.139,-0.143,99.87,4.0,,0.0,0.0,
2025-08-15T01:08:04.153Z,2,GR86-035-11,-3.0,0.137,-0.142,99.86,4.0,6264.0,0.0,0.0,
2025-08-15T01:08:04.196Z,2,GR86-035-11,-3.0,0.116,-0.134,99.86,4.0,,0.0,0.0,159.49
2025-08-15T01:08:04.238Z,2,GR86-035-11,-3.0,0.14,-0.154,99.87,4.0,,0.0,0.0,
2025-08-15T01:08:04.283Z,2,GR86-035-11,-3.1,0.141,-0.164,99.87,4.0,,0.0,0.0,
2025-08-15T01:08:04.326Z,2,GR86-035-11,-3.1,0.114,-0.173,99.86,4.0,,0.0,0.0,
2025-08-15T01:08:04.370Z,2,GR86-035-11,-3.1,0.133,-0.164,99.86,4.0,6291.0,0.0,0.0,
2025-08-15T01:08:04.414Z,2,GR86-035-11,-3.0,0.133,-0.15,99.86,4.0,,0.0,0.0,160.4
2025-08-15T01:08:04.456Z,2,GR86-035-11,-3.0,0.135,-0.149,99.85,4.0,,0.0,0.0,
2025-08-15T01:08:04.500Z,2,GR86-035-11,-3.0,0.115,-0.155,99.87,4.0,,0.0,0.0,
2025-08-15T01:08:04.543Z,2,GR86-035-11,-3.1,0.12,-0.187,99.87,4.0,,0.0,0.0,
2025-08-15T01:08:04.586Z,2,GR86-035-11,-3.0,0.121,-0.175,99.88,4.0,6323.0,0.0,0.0,
2025-08-15T01:08:04.630Z,2,GR86-035-11,-3.1,0.131,-0.162,99.87,4.0,,0.0,0.0,161.32
2025-08-15T01:08:04.674Z,2,GR86-035-11,-3.0,0.126,-0.153,99.84,4.0,,0.0,0.0,
2025-08-15T01:08:04.716Z,2,GR86-035-11,-3.1,0.119,-0.157,99.86,4.0,,0.0,0.0,
2025-08-15T01:08:04.760Z,2,GR86-035-11,-3.1,0.117,-0.169,99.86,4.0,,0.0,0.0,
2025-08-15T01:08:04.804Z,2,GR86-035-11,-3.1,0.12,-0.142,99.86,4.0,6372.0,0.0,0.0,
2025-08-15T01:08:04.846Z,2,GR86-035-11,-3.1,0.113,-0.153,99.86,4.0,,0.0,0.0,162.29
2025-08-15T01:08:04.890Z,2,GR86-035-11,-3.1,0.135,-0.136,99.88,4.0,,0.0,0.0,
2025-08-15T01:08:04.934Z,2,GR86-035-11,-3.1,0.124,-0.155,99.87,4.0,,0.0,0.0,
2025-08-15T01:08:04.976Z,2,GR86-035-11,-3.1,0.122,-0.157,99.86,4.0,,0.0,0.0,
2025-08-15T01:08:05.020Z,2,GR86-035-11,-3.1,0.109,-0.188,99.86,4.0,6411.0,0.0,0.0,
2025-08-15T01:08:05.063Z,2,GR86-035-11,-3.1,0.128,-0.159,99.86,4.0,,0.0,0.0,163.24
2025-08-15T01:08:05.106Z,2,GR86-035-11,-3.1,0.121,-0.153,99.87,4.0,,0.0,0.0,
2025-08-15T01:08:05.150Z,2,GR86-035-11,-3.1,0.112,-0.152,99.87,4.0,,0.0,0.0,
2025-08-15T01:08:05.193Z,2,GR86-035-11,-3.1,0.107,-0.159,99.87,4.0,,0.0,0.0,
2025-08-15T01:08:05.236Z,2,GR86-035-11,-3.1,0.123,-0.142,99.86,4.0,6444.0,0.0,0.0,
2025-08-15T01:08:05.278Z,2,GR86-035-11,-3.1,0.112,-0.138,99.87,4.0,,0.0,0.0,164.23
2025-08-15T01:08:05.324Z,2,GR86-035-11,-3.1,0.12,-0.153,99.87,4.0,,0.0,0.0,
2025-08-15T01:08:05.366Z,2,GR86-035-11,-3.1,0.127,-0.157,99.86,4.0,,0.0,0.0,
2025-08-15T01:08:05.410Z,2,GR86-035-11,-3.1,0.125,-0.166,99.87,4.0,,0.0,0.0,
2025-08-15T01:08:05.453Z,2,GR86-035-11,-3.1,0.117,-0.173,99.86,4.0,6482.0,0.0,0.0,
2025-08-15T01:08:05.496Z,2,GR86-035-11,-3.1,0.106,-0.194,99.86,4.0,,0.0,0.0,165.24
2025-08-15T01:08:05.538Z,2,GR86-035-11,-3.2,0.111,-0.204,99.86,4.0,,0.0,0.0,
2025-08-15T01:08:05.584Z,2,GR86-035-11,-3.3000000000000003,0.119,-0.2,99.86,4.0,,0.0,0.0,
2025-08-15T01:08:05.626Z,2,GR86-035-11,-3.3000000000000003,0.1,-0.185,99.87,4.0,,0.0,0.0,
2025-08-15T01:08:05.670Z,2,GR86-035-11,-3.3000000000000003,0.122,-0.203,99.87,4.0,6528.0,0.0,0.0,
2025-08-15T01:08:05.714Z,2,GR86-035-11,-3.4000000000000004,0.11,-0.213,99.86,4.0,,0.0,0.0,167.24
2025-08-15T01:08:05.756Z,2,GR86-035-11,-3.4000000000000004,0.108,-0.209,99.84,4.0,,0.0,0.0,
2025-08-15T01:08:05.800Z,2,GR86-035-11,-3.4000000000000004,0.102,-0.22,99.86,4.0,,0.0,0.0,
2025-08-15T01:08:05.843Z,2,GR86-035-11,-3.4000000000000004,0.126,-0.213,99.86,4.0,,0.0,0.0,
2025-08-15T01:08:05.886Z,2,GR86-035-11,-3.4000000000000004,0.104,-0.209,99.85,4.0,6556.0,0.0,0.0,
2025-08-15T01:08:05.930Z,2,GR86-035-11,-3.4000000000000004,0.124,-0.214,99.87,4.0,,0.0,0.0,168.25
2025-08-15T01:08:05.973Z,2,GR86-035-11,-3.4000000000000004,0.111,-0.223,99.87,4.0,,0.0,0.0,
2025-08-15T01:08:06.016Z,2,GR86-035-11,-3.4000000000000004,0.124,-0.231,99.86,4.0,,0.0,0.0,
2025-08-15T01:08:06.059Z,2,GR86-035-11,-3.4000000000000004,0.105,-0.216,99.86,4.0,,0.0,0.0,
2025-08-15T01:08:06.104Z,2,GR86-035-11,-3.4000000000000004,0.131,-0.195,99.86,4.0,6636.0,0.0,0.0,
2025-08-15T01:08:06.146Z,2,GR86-035-11,-3.4000000000000004,0.119,-0.216,99.87,4.0,,0.0,0.0,169.19
2025-08-15T01:08:06.189Z,2,GR86-035-11,-3.4000000000000004,0.133,-0.212,99.86,4.0,,0.0,0.0,
2025-08-15T01:08:06.234Z,2,GR86-035-11,-3.4000000000000004,0.122,-0.23,99.86,4.0,,0.0,0.0,
2025-08-15T01:08:06.276Z,2,GR86-035-11,-3.4000000000000004,0.109,-0.231,99.85,4.0,,0.0,0.0,
2025-08-15T01:08:06.320Z,2,GR86-035-11,-3.4000000000000004,0.108,-0.225,99.85,4.0,6689.0,0.0,0.0,
2025-08-15T01:08:06.363Z,2,GR86-035-11,-3.4000000000000004,0.118,-0.219,99.87,4.0,,0.0,0.0,170.31
2025-08-15T01:08:06.406Z,2,GR86-035-11,-3.4000000000000004,0.113,-0.203,99.87,4.0,,0.0,0.0,
2025-08-15T01:08:06.450Z,2,GR86-035-11,-3.4000000000000004,0.127,-0.216,99.86,4.0,,0.0,0.0,
2025-08-15T01:08:06.493Z,2,GR86-035-11,-3.4000000000000004,0.136,-0.216,99.86,4.0,,0.0,0.0,
2025-08-15T01:08:06.536Z,2,GR86-035-11,-3.4000000000000004,0.114,-0.202,99.86,4.0,6722.0,0.0,0.0,
2025-08-15T01:08:06.578Z,2,GR86-035-11,-3.4000000000000004,0.105,-0.209,99.86,4.0,,0.0,0.0,171.37
2025-08-15T01:08:06.624Z,2,GR86-035-11,-3.4000000000000004,0.113,-0.204,99.87,4.0,,0.0,0.0,
2025-08-15T01:08:06.666Z,2,GR86-035-11,-3.4000000000000004,0.129,-0.196,99.86,4.0,,0.0,0.0,
2025-08-15T01:08:06.710Z,2,GR86-035-11,-3.4000000000000004,0.122,-0.211,99.86,4.0,,0.0,0.0,
2025-08-15T01:08:06.753Z,2,GR86-035-11,-2.8000000000000003,0.12,-0.201,99.84,4.0,6757.0,0.0,0.0,
2025-08-15T01:08:06.796Z,2,GR86-035-11,-2.4000000000000004,0.13,-0.193,99.85,4.0,,0.0,0.0,172.33
2025-08-15T01:08:06.838Z,2,GR86-035-11,-2.4000000000000004,0.135,-0.201,99.86,4.0,,0.0,0.0,
2025-08-15T01:08:06.883Z,2,GR86-035-11,-2.4000000000000004,0.104,-0.182,99.86,4.0,,0.0,0.0,
2025-08-15T01:08:06.926Z,2,GR86-035-11,-2.4000000000000004,0.106,-0.193,99.88,4.0,,0.0,0.0,
2025-08-15T01:08:06.970Z,2,GR86-035-11,-2.4000000000000004,0.127,-0.173,99.86,4.0,6790.0,0.0,0.0,
2025-08-15T01:08:07.013Z,2,GR86-035-11,-2.4000000000000004,0.132,-0.163,99.87,4.0,,0.0,0.0,173.25
2025-08-15T01:08:07.056Z,2,GR86-035-11,-2.4000000000000004,0.119,-0.152,99.83,4.0,,0.0,0.0,
2025-08-15T01:08:07.100Z,2,GR86-035-11,-2.4000000000000004,0.129,-0.168,99.86,4.0,,0.0,0.0,
2025-08-15T01:08:07.143Z,2,GR86-035-11,-2.4000000000000004,0.113,-0.151,99.87,4.0,,0.0,0.0,
2025-08-15T01:08:07.186Z,2,GR86-035-11,-2.4000000000000004,0.107,-0.155,99.84,4.0,6844.0,0.0,0.0,
2025-08-15T01:08:07.230Z,2,GR86-035-11,-2.4000000000000004,0.098,-0.137,99.84,4.0,,0.0,0.0,174.27
2025-08-15T01:08:07.273Z,2,GR86-035-11,-2.4000000000000004,0.093,-0.139,99.86,4.0,,0.0,0.0,
2025-08-15T01:08:07.316Z,2,GR86-035-11,-2.4000000000000004,0.117,-0.15,99.86,4.0,,0.0,0.0,
2025-08-15T01:08:07.358Z,2,GR86-035-11,-2.4000000000000004,0.12,-0.173,99.88,4.0,,0.0,0.0,
2025-08-15T01:08:07.404Z,2,GR86-035-11,-2.4000000000000004,0.127,-0.17,99.86,4.0,6877.0,0.0,0.0,
2025-08-15T01:08:07.446Z,2,GR86-035-11,-2.4000000000000004,0.13,-0.16,99.86,4.0,,0.0,0.0,175.38
2025-08-15T01:08:07.489Z,2,GR86-035-11,-2.4000000000000004,0.118,-0.141,99.86,4.0,,0.0,0.0,
2025-08-15T01:08:07.533Z,2,GR86-035-11,-2.4000000000000004,0.118,-0.161,99.85,4.0,,0.0,0.0,
2025-08-15T01:08:07.576Z,2,GR86-035-11,-2.4000000000000004,0.122,-0.158,99.87,4.0,,0.0,0.0,
2025-08-15T01:08:07.619Z,2,GR86-035-11,-2.4000000000000004,0.124,-0.151,99.87,4.0,6912.0,0.0,0.0,
2025-08-15T01:08:07.664Z,2,GR86-035-11,-2.4000000000000004,0.128,-0.151,99.87,4.0,,0.0,0.0,176.37
2025-08-15T01:08:07.706Z,2,GR86-035-11,-2.4000000000000004,0.115,-0.149,99.85,4.0,,0.0,0.0,
2025-08-15T01:08:07.750Z,2,GR86-035-11,-2.4000000000000004,0.111,-0.176,99.84,4.0,,0.0,0.0,
2025-08-15T01:08:07.793Z,2,GR86-035-11,-2.4000000000000004,0.115,-0.174,99.86,4.0,,0.0,0.0,
2025-08-15T01:08:07.836Z,2,GR86-035-11,-2.4000000000000004,0.127,-0.166,99.85,4.0,6948.0,0.0,0.0,
2025-08-15T01:08:07.878Z,2,GR86-035-11,-2.4000000000000004,0.131,-0.163,99.84,4.0,,0.0,0.0,177.35
2025-08-15T01:08:07.922Z,2,GR86-035-11,-2.4000000000000004,0.107,-0.175,99.86,4.0,,0.0,0.0,
2025-08-15T01:08:07.966Z,2,GR86-035-11,-1.9,0.117,-0.158,99.89,4.0,,0.0,0.0,
2025-08-15T01:08:08.010Z,2,GR86-035-11,-1.1,0.112,-0.143,99.86,4.0,,0.0,0.0,
2025-08-15T01:08:08.053Z,2,GR86-035-11,-0.9,0.104,-0.122,99.87,4.0,6991.0,0.0,0.0,
2025-08-15T01:08:08.096Z,2,GR86-035-11,-0.9,0.109,-0.124,99.88,4.0,,0.0,0.0,178.36
2025-08-15T01:08:08.138Z,2,GR86-035-11,-0.9,0.095,-0.115,99.86,4.0,,0.0,0.0,
2025-08-15T01:08:08.183Z,2,GR86-035-11,-0.9,0.124,-0.119,99.85,4.0,,0.0,0.0,
2025-08-15T01:08:08.226Z,2,GR86-035-11,-0.9,0.13,-0.117,99.87,4.0,,0.0,0.0,
2025-08-15T01:08:08.270Z,2,GR86-035-11,-0.9,0.128,-0.135,99.87,4.0,7031.0,0.0,0.0,
2025-08-15T01:08:08.314Z,2,GR86-035-11,-1.0,0.113,-0.104,99.87,4.0,,0.0,0.0,180.36
2025-08-15T01:08:08.356Z,2,GR86-035-11,-1.0,0.11,-0.086,99.87,4.0,,0.0,0.0,
2025-08-15T01:08:08.400Z,2,GR86-035-11,-1.0,0.116,-0.075,99.87,4.0,,0.0,0.0,
2025-08-15T01:08:08.443Z,2,GR86-035-11,-1.0,0.085,-0.075,99.86,4.0,,0.0,0.0,
2025-08-15T01:08:08.486Z,2,GR86-035-11,-1.0,0.085,-0.065,99.87,4.0,7068.0,0.0,0.0,
2025-08-15T01:08:08.530Z,2,GR86-035-11,-1.0,0.106,-0.076,99.88,4.0,,0.0,0.0,181.33
2025-08-15T01:08:08.574Z,2,GR86-035-11,-1.0,0.088,-0.081,99.86,4.0,,0.0,0.0,
2025-08-15T01:08:08.616Z,2,GR86-035-11,-1.0,0.082,-0.107,99.89,4.0,,0.0,0.0,
2025-08-15T01:08:08.660Z,2,GR86-035-11,-1.0,0.09,-0.101,99.86,4.0,,0.0,0.0,
2025-08-15T01:08:08.704Z,2,GR86-035-11,-1.0,0.118,-0.118,99.88,4.0,7145.0,0.0,0.0,
2025-08-15T01:08:08.746Z,2,GR86-035-11,-1.0,0.098,-0.091,99.86,4.0,,0.0,0.0,182.27
2025-08-15T01:08:08.790Z,2,GR86-035-11,-1.0,0.118,-0.139,99.86,4.0,,0.0,0.0,
2025-08-15T01:08:08.833Z,2,GR86-035-11,-1.0,0.103,-0.112,99.84,4.0,,0.0,0.0,
2025-08-15T01:08:08.876Z,2,GR86-035-11,-1.0,0.114,-0.122,99.87,4.0,,0.0,0.0,
2025-08-15T01:08:08.918Z,2,GR86-035-11,-1.0,0.095,-0.111,99.87,4.0,7177.0,0.0,0.0,
2025-08-15T01:08:08.962Z,2,GR86-035-11,-1.0,0.094,-0.101,99.87,4.0,,0.0,0.0,183.24
2025-08-15T01:08:09.004Z,2,GR86-035-11,-1.0,0.089,-0.084,99.87,4.0,,0.0,0.0,
2025-08-15T01:08:09.047Z,2,GR86-035-11,-1.0,0.094,-0.103,99.87,4.0,,0.0,0.0,
2025-08-15T01:08:09.090Z,2,GR86-035-11,-1.0,0.074,-0.095,99.86,4.0,,0.0,0.0,
2025-08-15T01:08:09.134Z,2,GR86-035-11,-0.9,0.094,-0.094,99.83,4.0,7214.0,0.0,0.0,
2025-08-15T01:08:09.176Z,2,GR86-035-11,-0.8,0.079,-0.097,99.87,4.0,,0.0,0.0,184.09
2025-08-15T01:08:09.220Z,2,GR86-035-11,-0.8,0.086,-0.079,99.88,4.0,,0.0,0.0,
2025-08-15T01:08:09.263Z,2,GR86-035-11,-0.8,0.093,-0.091,99.87,4.0,,0.0,0.0,
2025-08-15T01:08:09.306Z,2,GR86-035-11,-0.7000000000000001,0.094,-0.089,99.88,4.0,,0.0,0.0,
2025-08-15T01:08:09.348Z,2,GR86-035-11,-0.5,0.097,-0.101,99.86,4.0,7242.0,0.0,0.0,
2025-08-15T01:08:09.392Z,2,GR86-035-11,-0.5,0.091,-0.127,99.86,4.0,,0.0,0.0,184.97
2025-08-15T01:08:09.434Z,2,GR86-035-11,-0.5,-0.16,-0.073,99.84,5.0,,0.0,0.0,
2025-08-15T01:08:09.477Z,2,GR86-035-11,-0.5,0.058,-0.065,99.87,5.0,,0.0,0.0,
2025-08-15T01:08:09.520Z,2,GR86-035-11,-0.4,0.193,-0.135,99.85,5.0,,0.0,0.0,
2025-08-15T01:08:09.564Z,2,GR86-035-11,-0.4,0.159,-0.082,99.87,5.0,6727.0,0.0,0.0,
2025-08-15T01:08:09.606Z,2,GR86-035-11,-0.4,0.039,-0.097,99.86,5.0,,0.0,0.0,185.76
2025-08-15T01:08:09.650Z,2,GR86-035-11,-0.4,0.047,-0.153,99.87,5.0,,0.0,0.0,
2025-08-15T01:08:09.693Z,2,GR86-035-11,-0.4,0.111,-0.096,99.87,5.0,,0.0,0.0,
2025-08-15T01:08:09.736Z,2,GR86-035-11,-0.4,0.125,-0.093,99.87,5.0,,0.0,0.0,
2025-08-15T01:08:09.778Z,2,GR86-035-11,-0.4,0.048,-0.113,99.85,5.0,6386.0,0.0,0.0,
2025-08-15T01:08:09.824Z,2,GR86-035-11,-0.4,0.086,-0.04,99.87,5.0,,0.0,0.0,186.41
2025-08-15T01:08:09.866Z,2,GR86-035-11,-0.4,0.086,-0.045,99.86,5.0,,0.0,0.0,
2025-08-15T01:08:09.910Z,2,GR86-035-11,-0.4,0.063,-0.025,99.87,5.0,,0.0,0.0,
2025-08-15T01:08:09.953Z,2,GR86-035-11,-0.4,0.063,-0.065,99.86,5.0,,0.0,0.0,
2025-08-15T01:08:09.996Z,2,GR86-035-11,-0.4,0.085,-0.056,99.88,5.0,6349.0,0.0,0.0,
2025-08-15T01:08:10.038Z,2,GR86-035-11,-0.5,0.098,-0.032,99.87,5.0,,0.0,0.0,187.3
2025-08-15T01:08:10.084Z,2,GR86-035-11,-0.5,0.069,-0.04,99.86,5.0,,0.0,0.0,
2025-08-15T01:08:10.126Z,2,GR86-035-11,-0.5,0.085,-0.096,99.86,5.0,,0.0,0.0,
2025-08-15T01:08:10.170Z,2,GR86-035-11,-0.5,0.068,-0.066,99.86,5.0,,0.0,0.0,
2025-08-15T01:08:10.215Z,2,GR86-035-11,-0.5,0.072,-0.078,99.87,5.0,6385.0,0.0,0.0,
2025-08-15T01:08:10.257Z,2,GR86-035-11,-0.5,0.051,-0.06,99.86,5.0,,0.0,0.0,187.92
2025-08-15T01:08:10.301Z,2,GR86-035-11,-0.5,0.083,-0.062,99.86,5.0,,0.0,0.0,
2025-08-15T01:08:10.343Z,2,GR86-035-11,-0.5,0.092,-0.084,99.87,5.0,,0.0,0.0,
2025-08-15T01:08:10.386Z,2,GR86-035-11,-0.5,0.081,-0.115,99.86,5.0,,0.0,0.0,
2025-08-15T01:08:10.430Z,2,GR86-035-11,-0.5,0.091,-0.096,99.87,5.0,6409.0,0.0,0.0,
2025-08-15T01:08:10.474Z,2,GR86-035-11,-0.5,0.094,-0.103,99.86,5.0,,0.0,0.0,188.68
2025-08-15T01:08:10.516Z,2,GR86-035-11,-0.5,0.083,-0.094,99.87,5.0,,0.0,0.0,
2025-08-15T01:08:10.560Z,2,GR86-035-11,-0.5,0.06,-0.087,99.86,5.0,,0.0,0.0,
2025-08-15T01:08:10.604Z,2,GR86-035-11,-0.5,0.073,-0.115,99.87,5.0,,0.0,0.0,
2025-08-15T01:08:10.646Z,2,GR86-035-11,-0.5,0.098,-0.104,99.86,5.0,6432.0,0.0,0.0,
2025-08-15T01:08:10.690Z,2,GR86-035-11,-0.5,0.083,-0.107,99.86,5.0,,0.0,0.0,189.39
2025-08-15T01:08:10.733Z,2,GR86-035-11,-0.5,0.083,-0.078,99.86,5.0,,0.0,0.0,
2025-08-15T01:08:10.776Z,2,GR86-035-11,-0.5,0.098,-0.092,99.88,5.0,,0.0,0.0,
2025-08-15T01:08:10.818Z,2,GR86-035-11,-0.5,0.089,-0.097,99.86,5.0,,0.0,0.0,
2025-08-15T01:08:10.862Z,2,GR86-035-11,-0.5,0.074,-0.09,99.88,5.0,6455.0,0.0,0.0,
2025-08-15T01:08:10.906Z,2,GR86-035-11,-0.5,0.075,-0.092,99.86,5.0,,0.0,0.0,190.98
2025-08-15T01:08:10.948Z,2,GR86-035-11,-0.5,0.091,-0.073,99.86,5.0,,0.0,0.0,
2025-08-15T01:08:10.992Z,2,GR86-035-11,-0.5,0.088,-0.103,99.85,5.0,,0.0,0.0,
2025-08-15T01:08:11.034Z,2,GR86-035-11,-0.5,0.083,-0.095,99.86,5.0,,0.0,0.0,
2025-08-15T01:08:11.077Z,2,GR86-035-11,-0.5,0.102,-0.101,99.87,5.0,6489.0,0.0,0.0,
2025-08-15T01:08:11.121Z,2,GR86-035-11,-0.5,0.092,-0.093,99.87,5.0,,0.0,0.0,191.72
2025-08-15T01:08:11.164Z,2,GR86-035-11,-0.5,0.08,-0.1,99.86,5.0,,0.0,0.0,
2025-08-15T01:08:11.206Z,2,GR86-035-11,-0.5,0.076,-0.078,99.86,5.0,,0.0,0.0,
2025-08-15T01:08:11.250Z,2,GR86-035-11,-0.5,0.091,-0.09,99.87,5.0,,0.0,0.0,
2025-08-15T01:08:11.293Z,2,GR86-035-11,-0.5,0.072,-0.065,99.87,5.0,6513.0,0.0,0.0,
2025-08-15T01:08:11.336Z,2,GR86-035-11,-0.5,0.092,-0.12,99.86,5.0,,0.0,0.0,192.43
2025-08-15T01:08:11.378Z,2,GR86-035-11,-0.5,0.079,-0.104,99.86,5.0,,0.0,0.0,
2025-08-15T01:08:11.424Z,2,GR86-035-11,-0.5,0.058,-0.096,99.86,5.0,,0.0,0.0,
2025-08-15T01:08:11.466Z,2,GR86-035-11,-0.5,0.072,-0.099,99.86,5.0,,0.0,0.0,
2025-08-15T01:08:11.510Z,2,GR86-035-11,-0.5,0.073,-0.082,99.86,5.0,6560.0,0.0,0.0,
2025-08-15T01:08:11.553Z,2,GR86-035-11,-0.4,0.075,-0.092,99.87,5.0,,0.0,0.0,193.2
2025-08-15T01:08:11.596Z,2,GR86-035-11,0.2,0.084,-0.102,99.86,5.0,,0.0,0.0,
2025-08-15T01:08:11.638Z,2,GR86-035-11,0.3,0.074,-0.093,99.86,5.0,,0.0,0.0,
2025-08-15T01:08:11.683Z,2,GR86-035-11,0.3,0.076,-0.088,99.86,5.0,,0.0,0.0,
2025-08-15T01:08:11.726Z,2,GR86-035-11,0.3,0.075,-0.066,99.87,5.0,6585.0,0.0,0.0,
2025-08-15T01:08:11.770Z,2,GR86-035-11,0.3,0.084,-0.07,99.87,5.0,,0.0,0.0,193.9
2025-08-15T01:08:11.813Z,2,GR86-035-11,0.3,0.071,-0.034,99.87,5.0,,0.0,0.0,
2025-08-15T01:08:11.856Z,2,GR86-035-11,0.3,0.1,-0.068,99.87,5.0,,0.0,0.0,
2025-08-15T01:08:11.900Z,2,GR86-035-11,0.2,0.086,-0.034,99.86,5.0,,0.0,0.0,
2025-08-15T01:08:11.943Z,2,GR86-035-11,0.2,0.082,-0.08,99.86,5.0,6604.0,0.0,0.0,
2025-08-15T01:08:11.986Z,2,GR86-035-11,0.2,0.09,-0.072,99.85,5.0,,0.0,0.0,194.65
2025-08-15T01:08:12.030Z,2,GR86-035-11,0.2,0.075,-0.073,99.86,5.0,,0.0,0.0,
2025-08-15T01:08:12.073Z,2,GR86-035-11,0.2,0.086,-0.061,99.86,5.0,,0.0,0.0,
2025-08-15T01:08:12.116Z,2,GR86-035-11,0.2,0.103,-0.055,99.87,5.0,,0.0,0.0,
2025-08-15T01:08:12.158Z,2,GR86-035-11,0.2,0.079,-0.033,99.88,5.0,6635.0,0.0,0.0,
2025-08-15T01:08:12.203Z,2,GR86-035-11,0.2,0.072,-0.071,99.86,5.0,,0.0,0.0,195.41
2025-08-15T01:08:12.246Z,2,GR86-035-11,0.2,0.079,-0.064,99.87,5.0,,0.0,0.0,
2025-08-15T01:08:12.291Z,2,GR86-035-11,0.2,0.077,-0.087,99.86,5.0,,0.0,0.0,
2025-08-15T01:08:12.334Z,2,GR86-035-11,0.3,0.091,-0.052,99.87,5.0,,0.0,0.0,
2025-08-15T01:08:12.376Z,2,GR86-035-11,0.8,0.075,-0.048,99.86,5.0,6661.0,0.0,0.0,
2025-08-15T01:08:12.420Z,2,GR86-035-11,1.0,0.074,-0.057,99.87,5.0,,0.0,0.0,196.19
2025-08-15T01:08:12.464Z,2,GR86-035-11,1.4,0.063,-0.071,99.86,5.0,,0.0,0.0,
2025-08-15T01:08:12.506Z,2,GR86-035-11,1.5,0.075,-0.066,99.87,5.0,,0.0,0.0,
2025-08-15T01:08:12.550Z,2,GR86-035-11,1.5,0.084,-0.032,99.87,5.0,,0.0,0.0,
2025-08-15T01:08:12.593Z,2,GR86-035-11,1.5,0.076,-0.023,99.87,5.0,6686.0,0.0,0.0,
2025-08-15T01:08:12.636Z,2,GR86-035-11,1.5,0.081,-0.003,99.86,5.0,,0.0,0.0,196.98
2025-08-15T01:08:12.678Z,2,GR86-035-11,1.5,0.079,-0.018,99.87,5.0,,0.0,0.0,
2025-08-15T01:08:12.722Z,2,GR86-035-11,1.5,0.075,-0.002,99.86,5.0,,0.0,0.0,
2025-08-15T01:08:12.767Z,2,GR86-035-11,1.5,0.074,-0.007,99.87,5.0,,0.0,0.0,
2025-08-15T01:08:12.810Z,2,GR86-035-11,1.5,0.087,-0.012,99.88,5.0,6713.0,0.0,0.0,
2025-08-15T01:08:12.853Z,2,GR86-035-11,1.5,0.081,-0.013,99.86,5.0,,0.0,0.0,197.63
2025-08-15T01:08:12.896Z,2,GR86-035-11,1.5,0.083,-0.015,99.87,5.0,,0.0,0.0,
2025-08-15T01:08:12.938Z,2,GR86-035-11,1.5,0.078,-0.003,99.87,5.0,,0.0,0.0,
2025-08-15T01:08:12.982Z,2,GR86-035-11,1.5,0.081,0.002,99.87,5.0,,0.0,0.0,
2025-08-15T01:08:13.026Z,2,GR86-035-11,1.6,0.055,0.013,99.86,5.0,6737.0,0.0,0.0,
2025-08-15T01:08:13.068Z,2,GR86-035-11,1.7000000000000002,0.09,-0.008,99.86,5.0,,0.0,0.0,198.33
2025-08-15T01:08:13.114Z,2,GR86-035-11,1.7000000000000002,0.083,-0.005,99.86,5.0,,0.0,0.0,
2025-08-15T01:08:13.156Z,2,GR86-035-11,1.7000000000000002,0.062,-0.016,99.87,5.0,,0.0,0.0,
2025-08-15T01:08:13.200Z,2,GR86-035-11,1.7000000000000002,0.081,-0.021,99.86,5.0,,0.0,0.0,
2025-08-15T01:08:13.244Z,2,GR86-035-11,1.7000000000000002,0.078,0.003,99.86,5.0,6753.0,0.0,0.0,
2025-08-15T01:08:13.286Z,2,GR86-035-11,1.7000000000000002,0.058,0.007,99.87,5.0,,0.0,0.0,199.04
2025-08-15T01:08:13.330Z,2,GR86-035-11,1.7000000000000002,0.086,-0.004,99.86,5.0,,0.0,0.0,
2025-08-15T01:08:13.374Z,2,GR86-035-11,1.8,0.08,-0.016,99.86,5.0,,0.0,0.0,
2025-08-15T01:08:13.416Z,2,GR86-035-11,1.8,0.068,-0.005,99.86,5.0,,0.0,0.0,
2025-08-15T01:08:13.459Z,2,GR86-035-11,1.8,0.059,-0.007,99.86,5.0,6772.0,0.0,0.0,
2025-08-15T01:08:13.504Z,2,GR86-035-11,1.8,0.094,0.013,99.87,5.0,,0.0,0.0,200.29
2025-08-15T01:08:13.546Z,2,GR86-035-11,1.8,0.075,0.001,99.87,5.0,,0.0,0.0,
2025-08-15T01:08:13.590Z,2,GR86-035-11,2.0,0.061,0.012,99.87,5.0,,0.0,0.0,
2025-08-15T01:08:13.633Z,2,GR86-035-11,2.4000000000000004,0.084,0.006,99.86,5.0,,0.0,0.0,
2025-08-15T01:08:13.676Z,2,GR86-035-11,2.5,0.056,0.01,99.86,5.0,6802.0,0.0,0.0,
2025-08-15T01:08:13.718Z,2,GR86-035-11,2.6,0.072,0.025,99.87,5.0,,0.0,0.0,200.99
2025-08-15T01:08:13.762Z,2,GR86-035-11,3.2,0.077,0.035,99.86,5.0,,0.0,0.0,
2025-08-15T01:08:13.804Z,2,GR86-035-11,3.2,0.08,0.033,99.86,5.0,,0.0,0.0,
2025-08-15T01:08:13.847Z,2,GR86-035-11,3.2,0.061,0.052,99.86,5.0,,0.0,0.0,
2025-08-15T01:08:13.890Z,2,GR86-035-11,3.2,0.067,0.079,99.86,5.0,6825.0,0.0,0.0,
2025-08-15T01:08:13.934Z,2,GR86-035-11,3.2,0.071,0.096,99.86,5.0,,0.0,0.0,201.7
2025-08-15T01:08:13.976Z,2,GR86-035-11,3.3000000000000003,0.066,0.064,99.87,5.0,,0.0,0.0,
2025-08-15T01:08:14.020Z,2,GR86-035-11,3.9,0.06,0.058,99.86,5.0,,0.0,0.0,
2025-08-15T01:08:14.063Z,2,GR86-035-11,5.0,0.058,0.062,99.86,5.0,,0.0,0.0,
2025-08-15T01:08:14.106Z,2,GR86-035-11,5.1000000000000005,0.054,0.087,99.87,5.0,6874.0,0.0,0.0,
2025-08-15T01:08:14.150Z,2,GR86-035-11,5.1000000000000005,0.078,0.093,99.87,5.0,,0.0,0.0,202.43
2025-08-15T01:08:14.193Z,2,GR86-035-11,5.2,0.067,0.099,99.85,5.0,,0.0,0.0,
2025-08-15T01:08:14.236Z,2,GR86-035-11,5.2,0.076,0.108,99.86,5.0,,0.0,0.0,
2025-08-15T01:08:14.278Z,2,GR86-035-11,5.300000000000001,0.071,0.126,99.86,5.0,,0.0,0.0,
2025-08-15T01:08:14.324Z,2,GR86-035-11,5.7,0.073,0.116,99.86,5.0,6890.0,0.0,0.0,
2025-08-15T01:08:14.366Z,2,GR86-035-11,5.800000000000001,0.084,0.125,99.86,5.0,,0.0,0.0,203.14
2025-08-15T01:08:14.410Z,2,GR86-035-11,5.9,0.079,0.117,99.86,5.0,,0.0,0.0,
2025-08-15T01:08:14.453Z,2,GR86-035-11,6.4,0.065,0.159,99.86,5.0,,0.0,0.0,
2025-08-15T01:08:14.496Z,2,GR86-035-11,7.1000000000000005,0.072,0.142,99.86,5.0,,0.0,0.0,
2025-08-15T01:08:14.538Z,2,GR86-035-11,8.0,0.057,0.174,99.86,5.0,6920.0,0.0,0.0,
2025-08-15T01:08:14.582Z,2,GR86-035-11,9.0,0.082,0.15,99.86,5.0,,0.0,0.0,203.83
2025-08-15T01:08:14.626Z,2,GR86-035-11,9.0,0.036,0.174,99.87,5.0,,0.0,0.0,
2025-08-15T01:08:14.670Z,2,GR86-035-11,9.0,0.07,0.204,99.86,5.0,,0.0,0.0,
2025-08-15T01:08:14.714Z,2,GR86-035-11,9.0,0.078,0.236,99.87,5.0,,0.0,0.0,
2025-08-15T01:08:14.756Z,2,GR86-035-11,9.0,0.056,0.233,99.86,5.0,6936.0,0.0,0.0,
2025-08-15T01:08:14.800Z,2,GR86-035-11,9.0,0.074,0.263,99.86,5.0,,0.0,0.0,204.55
2025-08-15T01:08:14.843Z,2,GR86-035-11,9.3,0.056,0.3,99.86,5.0,,0.0,0.0,
2025-08-15T01:08:14.886Z,2,GR86-035-11,9.5,0.065,0.267,99.86,5.0,,0.0,0.0,
2025-08-15T01:08:14.930Z,2,GR86-035-11,9.7,0.072,0.285,99.87,5.0,,0.0,0.0,
2025-08-15T01:08:14.973Z,2,GR86-035-11,10.4,0.082,0.269,99.85,5.0,6965.0,0.0,0.0,
2025-08-15T01:08:15.016Z,2,GR86-035-11,10.7,0.068,0.263,99.87,5.0,,0.0,0.0,205.19
2025-08-15T01:08:15.059Z,2,GR86-035-11,10.7,0.075,0.277,99.88,5.0,,0.0,0.0,
2025-08-15T01:08:15.104Z,2,GR86-035-11,10.8,0.062,0.268,99.88,5.0,,0.0,0.0,
2025-08-15T01:08:15.146Z,2,GR86-035-11,11.0,0.072,0.299,99.86,5.0,,0.0,0.0,
2025-08-15T01:08:15.190Z,2,GR86-035-11,11.2,0.069,0.326,99.88,5.0,6981.0,0.0,0.0,
2025-08-15T01:08:15.234Z,2,GR86-035-11,11.3,0.067,0.375,99.89,5.0,,0.0,0.0,205.85
2025-08-15T01:08:15.276Z,2,GR86-035-11,11.7,0.054,0.333,99.86,5.0,,0.0,0.0,
2025-08-15T01:08:15.320Z,2,GR86-035-11,11.8,0.07,0.362,99.88,5.0,,0.0,0.0,
2025-08-15T01:08:15.364Z,2,GR86-035-11,11.7,0.072,0.346,99.87,5.0,,0.0,0.0,
2025-08-15T01:08:15.406Z,2,GR86-035-11,11.7,0.068,0.352,99.87,5.0,7003.0,0.0,0.0,
2025-08-15T01:08:15.450Z,2,GR86-035-11,11.7,0.074,0.357,99.86,5.0,,0.0,0.0,206.49
2025-08-15T01:08:15.493Z,2,GR86-035-11,11.7,0.063,0.377,99.87,5.0,,0.0,0.0,
2025-08-15T01:08:15.536Z,2,GR86-035-11,11.7,0.067,0.386,99.87,5.0,,0.0,0.0,
2025-08-15T01:08:15.578Z,2,GR86-035-11,11.8,0.07,0.4,99.87,5.0,,0.0,0.0,
2025-08-15T01:08:15.624Z,2,GR86-035-11,11.8,0.057,0.387,99.86,5.0,7027.0,0.0,0.0,
2025-08-15T01:08:15.666Z,2,GR86-035-11,11.8,0.069,0.377,99.86,5.0,,0.0,0.0,207.02
2025-08-15T01:08:15.710Z,2,GR86-035-11,11.8,0.066,0.36,99.86,5.0,,0.0,0.0,
2025-08-15T01:08:15.753Z,2,GR86-035-11,11.0,0.074,0.373,99.87,5.0,,0.0,0.0,
2025-08-15T01:08:15.796Z,2,GR86-035-11,9.3,0.072,0.353,99.86,5.0,,0.0,0.0,
2025-08-15T01:08:15.838Z,2,GR86-035-11,9.1,0.065,0.312,99.87,5.0,7045.0,0.0,0.0,
2025-08-15T01:08:15.883Z,2,GR86-035-11,9.7,0.077,0.294,99.88,5.0,,0.0,0.0,207.64
2025-08-15T01:08:15.926Z,2,GR86-035-11,11.0,0.057,0.314,99.86,5.0,,0.0,0.0,
2025-08-15T01:08:15.970Z,2,GR86-035-11,12.5,0.058,0.284,99.87,5.0,,0.0,0.0,
2025-08-15T01:08:16.013Z,2,GR86-035-11,12.7,0.047,0.297,99.86,5.0,,0.0,0.0,
2025-08-15T01:08:16.056Z,2,GR86-035-11,12.6,0.069,0.272,99.87,5.0,7068.0,0.0,0.0,
2025-08-15T01:08:16.100Z,2,GR86-035-11,12.2,0.088,0.299,99.87,5.0,,0.0,0.0,208.3
2025-08-15T01:08:16.143Z,2,GR86-035-11,12.0,0.062,0.352,99.87,5.0,,0.0,0.0,
2025-08-15T01:08:16.186Z,2,GR86-035-11,11.7,0.073,0.346,99.87,5.0,,0.0,0.0,
2025-08-15T01:08:16.230Z,2,GR86-035-11,11.7,0.082,0.382,99.87,5.0,,0.0,0.0,
2025-08-15T01:08:16.274Z,2,GR86-035-11,11.7,0.081,0.393,99.86,5.0,7089.0,0.0,0.0,
2025-08-15T01:08:16.316Z,2,GR86-035-11,11.7,0.063,0.396,99.87,5.0,,0.0,0.0,209.56
2025-08-15T01:08:16.360Z,2,GR86-035-11,11.7,0.061,0.426,99.87,5.0,,0.0,0.0,
2025-08-15T01:08:16.403Z,2,GR86-035-11,11.7,0.067,0.391,99.88,5.0,,0.0,0.0,
2025-08-15T01:08:16.446Z,2,GR86-035-11,11.7,0.064,0.391,99.86,5.0,,0.0,0.0,
2025-08-15T01:08:16.490Z,2,GR86-035-11,11.7,0.042,0.369,99.86,5.0,7116.0,0.0,0.0,
2025-08-15T01:08:16.533Z,2,GR86-035-11,11.7,0.07,0.362,99.88,5.0,,0.0,0.0,210.14
2025-08-15T01:08:16.576Z,2,GR86-035-11,11.7,0.053,0.374,99.87,5.0,,0.0,0.0,
2025-08-15T01:08:16.619Z,2,GR86-035-11,11.5,0.075,0.378,99.87,5.0,,0.0,0.0,
2025-08-15T01:08:16.664Z,2,GR86-035-11,10.5,0.06,0.369,99.87,5.0,,0.0,0.0,
2025-08-15T01:08:16.706Z,2,GR86-035-11,9.9,0.071,0.359,99.86,5.0,7160.0,0.0,0.0,
2025-08-15T01:08:16.750Z,2,GR86-035-11,9.6,0.079,0.354,99.87,5.0,,0.0,0.0,210.84
2025-08-15T01:08:16.793Z,2,GR86-035-11,9.5,0.074,0.324,99.85,5.0,,0.0,0.0,
2025-08-15T01:08:16.836Z,2,GR86-035-11,9.5,0.056,0.29,76.91,5.0,,0.0,0.0,
2025-08-15T01:08:16.878Z,2,GR86-035-11,9.5,0.061,0.238,8.290000000000001,5.0,,0.0,0.0,
2025-08-15T01:08:16.922Z,2,GR86-035-11,9.5,0.047,0.21,4.46,5.0,7176.0,0.0,0.0,
2025-08-15T01:08:16.966Z,2,GR86-035-11,9.5,-0.215,0.234,4.04,5.0,,0.0,0.0,211.71
2025-08-15T01:08:17.010Z,2,GR86-035-11,8.1,-0.311,0.238,3.63,5.0,,0.0,0.0,
2025-08-15T01:08:17.053Z,2,GR86-035-11,6.6000000000000005,-0.333,0.147,3.15,5.0,,0.0,0.0,
2025-08-15T01:08:17.096Z,2,GR86-035-11,6.0,-0.077,0.196,2.83,5.0,,0.0,0.0,
2025-08-15T01:08:17.138Z,2,GR86-035-11,5.300000000000001,-0.153,0.168,2.69,5.0,7229.0,0.0,0.0,
2025-08-15T01:08:17.183Z,2,GR86-035-11,4.5,-0.271,0.128,2.6,5.0,,0.0,0.0,212.01
2025-08-15T01:08:17.226Z,2,GR86-035-11,4.5,-0.215,0.104,2.56,5.0,,0.0,0.0,
2025-08-15T01:08:17.270Z,2,GR86-035-11,4.5,-0.123,0.069,2.53,5.0,,0.0,0.0,
2025-08-15T01:08:17.314Z,2,GR86-035-11,4.5,-0.157,0.03,2.51,5.0,,9.28,9.6,
2025-08-15T01:08:17.356Z,2,GR86-035-11,5.800000000000001,-0.324,0.02,2.5,5.0,7103.0,22.77,22.585,
2025-08-15T01:08:17.400Z,2,GR86-035-11,6.6000000000000005,-0.765,0.027,2.5,5.0,,40.775,40.27,211.21
2025-08-15T01:08:17.443Z,2,GR86-035-11,6.6000000000000005,-1.062,0.055,2.5,5.0,,65.08500000000001,64.245,
2025-08-15T01:08:17.486Z,2,GR86-035-11,7.0,-1.187,0.033,2.49,5.0,,75.965,75.78,
2025-08-15T01:08:17.530Z,2,GR86-035-11,8.3,-1.241,0.031,2.5,5.0,,84.89,85.35000000000001,
2025-08-15T01:08:17.574Z,2,GR86-035-11,8.4,-1.309,0.055,2.5,5.0,6809.0,92.37,92.965,
2025-08-15T01:08:17.616Z,2,GR86-035-11,5.2,-1.312,0.127,2.49,5.0,,99.955,101.295,208.12
2025-08-15T01:08:17.659Z,2,GR86-035-11,2.7,-1.27,0.145,2.5,5.0,,104.5,106.3,
2025-08-15T01:08:17.704Z,2,GR86-035-11,1.1,-1.413,0.111,2.51,5.0,,102.93,103.525,
2025-08-15T01:08:17.746Z,2,GR86-035-11,0.4,-1.155,0.194,2.5,5.0,,105.25,106.515,
2025-08-15T01:08:17.790Z,2,GR86-035-11,0.9,-1.156,0.069,2.5,5.0,6034.0,106.62,107.4,
2025-08-15T01:08:17.834Z,2,GR86-035-11,4.2,-1.172,0.097,2.5,5.0,,105.02,106.515,194.96
2025-08-15T01:08:17.876Z,2,GR86-035-11,6.800000000000001,-1.358,0.095,2.5,5.0,,105.555,106.745,
2025-08-15T01:08:17.920Z,2,GR86-035-11,7.0,-1.37,-0.022,2.5,5.0,,108.24,109.0,
2025-08-15T01:08:17.963Z,2,GR86-035-11,6.7,-1.496,0.107,2.5,5.0,,108.53,109.52,
2025-08-15T01:08:18.006Z,2,GR86-035-11,6.6000000000000005,-1.321,0.009,2.5,5.0,5885.0,106.025,107.23,
2025-08-15T01:08:18.050Z,2,GR86-035-11,6.6000000000000005,-1.317,0.096,2.49,5.0,,106.455,107.49,185.51
2025-08-15T01:08:18.093Z,2,GR86-035-11,7.5,-1.228,0.087,2.5,5.0,,102.715,104.59,
2025-08-15T01:08:18.136Z,2,GR86-035-11,9.6,-1.316,0.013,2.5,5.0,,79.995,81.33500000000001,
2025-08-15T01:08:18.178Z,2,GR86-035-11,9.5,-1.095,0.113,2.5,5.0,,60.645,62.245000000000005,
2025-08-15T01:08:18.224Z,2,GR86-035-11,7.0,-1.032,0.122,2.5,5.0,5738.0,54.615,54.83,
2025-08-15T01:08:18.267Z,2,GR86-035-11,7.0,-1.044,0.169,2.5,5.0,,53.455,53.715,179.06
2025-08-15T01:08:18.310Z,2,GR86-035-11,7.0,-1.035,0.216,2.49,5.0,,49.395,50.405,
2025-08-15T01:08:18.353Z,2,GR86-035-11,7.0,-1.016,0.195,2.49,5.0,,50.19,50.465,
2025-08-15T01:08:18.396Z,2,GR86-035-11,7.0,-1.103,0.223,2.5,5.0,,54.495000000000005,54.525,
2025-08-15T01:08:18.438Z,2,GR86-035-11,7.0,-1.126,0.192,2.49,5.0,5749.0,58.245000000000005,58.095,
2025-08-15T01:08:18.484Z,2,GR86-035-11,7.0,-1.139,0.177,31.11,5.0,,65.955,65.42,172.97
2025-08-15T01:08:18.526Z,2,GR86-035-11,7.0,-1.255,0.174,47.48,4.0,,72.395,72.83500000000001,
2025-08-15T01:08:18.570Z,2,GR86-035-11,7.0,-1.284,0.175,6.65,4.0,,77.015,78.45,
2025-08-15T01:08:18.614Z,2,GR86-035-11,7.5,-1.308,0.176,4.7,4.0,,78.985,80.375,
2025-08-15T01:08:18.656Z,2,GR86-035-11,7.4,-1.295,0.215,4.3100000000000005,4.0,5492.0,79.275,79.995,
2025-08-15T01:08:18.700Z,2,GR86-035-11,7.4,-1.4,0.244,4.0,4.0,,78.515,79.015,168.3
2025-08-15T01:08:18.743Z,2,GR86-035-11,7.4,-1.186,0.343,3.46,4.0,,79.87,80.91,
2025-08-15T01:08:18.786Z,2,GR86-035-11,7.4,-1.158,0.243,2.96,4.0,,81.96000000000001,82.68,
2025-08-15T01:08:18.830Z,2,GR86-035-11,7.4,-1.286,0.347,2.78,4.0,,83.87,84.355,
2025-08-15T01:08:18.873Z,2,GR86-035-11,7.300000000000001,-1.317,0.27,2.68,4.0,5696.0,86.25,87.03,
2025-08-15T01:08:18.916Z,2,GR86-035-11,7.2,-1.353,0.321,2.62,4.0,,89.83500000000001,90.615,151.88
2025-08-15T01:08:18.959Z,2,GR86-035-11,8.4,-1.238,0.219,4.3500000000000005,4.0,,88.37,88.58500000000001,
2025-08-15T01:08:19.003Z,2,GR86-035-11,8.4,-1.377,0.195,55.18,3.0,,87.9,88.08,
2025-08-15T01:08:19.046Z,2,GR86-035-11,9.5,-1.456,0.15,6.88,3.0,,89.96000000000001,90.585,
2025-08-15T01:08:19.090Z,2,GR86-035-11,13.7,-1.216,0.16,4.65,3.0,5599.0,90.325,91.65,
2025-08-15T01:08:19.133Z,2,GR86-035-11,14.7,-1.45,0.213,4.24,3.0,,84.92,85.745,142.98
2025-08-15T01:08:19.176Z,2,GR86-035-11,13.8,-1.452,0.14,3.89,3.0,,64.58,66.215,
2025-08-15T01:08:19.218Z,2,GR86-035-11,13.4,-0.903,0.287,3.52,3.0,,51.365,52.8,
2025-08-15T01:08:19.262Z,2,GR86-035-11,13.3,-0.855,0.231,2.89,3.0,,47.4,47.995000000000005,
2025-08-15T01:08:19.306Z,2,GR86-035-11,11.6,-1.07,0.356,2.71,3.0,5804.0,44.435,45.125,
2025-08-15T01:08:19.348Z,2,GR86-035-11,11.5,-1.06,0.276,2.59,3.0,,42.65,43.55,133.27
2025-08-15T01:08:19.392Z,2,GR86-035-11,11.5,-0.903,0.276,2.53,3.0,,40.835,41.705,
2025-08-15T01:08:19.434Z,2,GR86-035-11,11.5,-0.873,0.336,2.52,3.0,,36.775,37.645,
2025-08-15T01:08:19.477Z,2,GR86-035-11,12.3,-0.807,0.248,13.8,3.0,,32.96,33.845,
2025-08-15T01:08:19.520Z,2,GR86-035-11,13.8,-0.8220000000000001,0.246,57.56,3.0,5762.0,33.68,34.06,
2025-08-15T01:08:19.564Z,2,GR86-035-11,13.8,-0.957,0.249,18.46,2.0,,38.18,38.38,128.94
2025-08-15T01:08:19.606Z,2,GR86-035-11,14.0,-1.076,0.194,4.74,2.0,,44.025,44.59,
2025-08-15T01:08:19.650Z,2,GR86-035-11,14.0,-1.178,0.285,4.17,2.0,,50.94,51.685,
2025-08-15T01:08:19.693Z,2,GR86-035-11,13.8,-1.352,0.209,3.79,2.0,,53.15,53.425,
2025-08-15T01:08:19.736Z,2,GR86-035-11,13.5,-1.171,0.318,3.41,2.0,6143.0,52.77,53.715,
2025-08-15T01:08:19.778Z,2,GR86-035-11,13.1,-0.934,0.378,2.92,2.0,,49.870000000000005,50.465,123.39
2025-08-15T01:08:19.824Z,2,GR86-035-11,10.1,-1.03,0.417,2.67,2.0,,45.965,46.495,
2025-08-15T01:08:19.866Z,2,GR86-035-11,9.9,-1.074,0.377,2.59,2.0,,44.59,44.97,
2025-08-15T01:08:19.910Z,2,GR86-035-11,9.8,-0.926,0.221,2.5500000000000003,2.0,,43.825,44.025,
2025-08-15T01:08:19.953Z,2,GR86-035-11,9.8,-0.906,0.325,2.52,2.0,6402.0,43.46,43.615,
2025-08-15T01:08:19.996Z,2,GR86-035-11,10.9,-0.9,0.208,2.51,2.0,,39.495,40.12,115.7
2025-08-15T01:08:20.038Z,2,GR86-035-11,12.5,-0.812,0.18,2.49,2.0,,34.06,34.87,
2025-08-15T01:08:20.083Z,2,GR86-035-11,12.3,-0.8310000000000001,0.161,2.5,2.0,,32.87,33.345,
2025-08-15T01:08:20.126Z,2,GR86-035-11,12.3,-0.888,0.158,2.49,2.0,,32.2,32.715,
2025-08-15T01:08:20.170Z,2,GR86-035-11,12.3,-0.8170000000000001,0.153,2.48,2.0,6016.0,28.215,28.87,
2025-08-15T01:08:20.214Z,2,GR86-035-11,11.2,-0.684,0.143,2.49,2.0,,24.05,24.795,110.13
2025-08-15T01:08:20.256Z,2,GR86-035-11,10.7,-0.673,0.155,2.49,2.0,,23.24,23.745,
2025-08-15T01:08:20.300Z,2,GR86-035-11,11.0,-0.6880000000000001,0.154,2.49,2.0,,22.935,23.425,
2025-08-15T01:08:20.344Z,2,GR86-035-11,10.8,-0.715,0.153,2.49,2.0,,25.18,25.33,
2025-08-15T01:08:20.386Z,2,GR86-035-11,8.200000000000001,-0.789,0.166,2.49,2.0,5773.0,29.65,29.77,
2025-08-15T01:08:20.430Z,2,GR86-035-11,7.9,-0.8210000000000001,0.114,2.49,2.0,,29.435,29.835,104.73
2025-08-15T01:08:20.473Z,2,GR86-035-11,10.1,-0.7020000000000001,0.125,2.49,2.0,,23.895,24.615,
2025-08-15T01:08:20.516Z,2,GR86-035-11,12.5,-0.609,0.133,2.48,2.0,,21.655,21.99,
2025-08-15T01:08:20.558Z,2,GR86-035-11,12.4,-0.6990000000000001,0.168,2.49,2.0,,23.59,23.805,
2025-08-15T01:08:20.604Z,2,GR86-035-11,9.6,-0.721,0.135,49.17,2.0,5499.0,24.14,24.675,
2025-08-15T01:08:20.646Z,2,GR86-035-11,9.5,-0.666,0.134,84.7,1.0,,23.365,23.745,100.21
2025-08-15T01:08:20.689Z,2,GR86-035-11,9.5,-0.664,0.127,29.27,1.0,,24.08,24.43,
2025-08-15T01:08:20.734Z,2,GR86-035-11,9.5,-1.211,0.072,4.17,1.0,,24.11,24.43,
2025-08-15T01:08:20.776Z,2,GR86-035-11,9.5,-0.856,0.183,3.61,1.0,,24.525,25.085,
2025-08-15T01:08:20.820Z,2,GR86-035-11,10.8,-0.685,0.077,3.1,1.0,5275.0,24.08,24.4,
2025-08-15T01:08:20.864Z,2,GR86-035-11,11.8,-0.956,0.225,2.71,1.0,,23.455,23.745,95.68
2025-08-15T01:08:20.907Z,2,GR86-035-11,11.8,-0.873,0.217,2.59,1.0,,22.735,23.3,
2025-08-15T01:08:20.949Z,2,GR86-035-11,13.6,-0.64,0.042,2.53,1.0,,22.22,22.675,
2025-08-15T01:08:20.993Z,2,GR86-035-11,19.3,-0.581,0.243,2.5,1.0,,22.615,22.875,
2025-08-15T01:08:21.036Z,2,GR86-035-11,26.0,-0.617,0.214,2.49,1.0,6309.0,23.12,23.62,
2025-08-15T01:08:21.078Z,2,GR86-035-11,32.1,-0.631,0.268,2.48,1.0,,23.15,23.485,90.64
2025-08-15T01:08:21.122Z,2,GR86-035-11,39.400000000000006,-0.595,0.402,2.47,1.0,,24.17,24.43,
2025-08-15T01:08:21.166Z,2,GR86-035-11,42.7,-0.629,0.49,2.47,1.0,,24.43,24.675,
2025-08-15T01:08:21.210Z,2,GR86-035-11,44.7,-0.628,0.5650000000000001,2.47,1.0,,24.49,24.765,
2025-08-15T01:08:21.254Z,2,GR86-035-11,46.6,-0.637,0.596,2.46,1.0,6134.0,24.49,24.765,
2025-08-15T01:08:21.296Z,2,GR86-035-11,49.5,-0.638,0.664,2.47,1.0,,24.49,25.085,85.47
2025-08-15T01:08:21.340Z,2,GR86-035-11,54.3,-0.763,0.6970000000000001,2.47,1.0,,24.14,24.675,
2025-08-15T01:08:21.383Z,2,GR86-035-11,63.400000000000006,-0.716,0.762,2.47,1.0,,23.62,24.17,
2025-08-15T01:08:21.426Z,2,GR86-035-11,67.60000000000001,-0.655,0.804,2.48,1.0,,18.325,18.955,
2025-08-15T01:08:21.470Z,2,GR86-035-11,68.7,-0.355,0.92,2.48,1.0,5661.0,7.95,8.455,
2025-08-15T01:08:21.514Z,2,GR86-035-11,68.5,-0.183,0.91,2.47,1.0,,0.0,1.89,77.63
2025-08-15T01:08:21.556Z,2,GR86-035-11,68.3,-0.225,0.897,2.48,1.0,,0.0,0.0,
2025-08-15T01:08:21.600Z,2,GR86-035-11,69.60000000000001,-0.257,0.944,2.47,1.0,,0.0,0.0,
2025-08-15T01:08:21.643Z,2,GR86-035-11,75.9,-0.23,0.954,2.47,1.0,,0.0,0.0,
2025-08-15T01:08:21.730Z,2,GR86-035-11,82.30000000000001,-0.204,1.01,2.47,1.0,5449.0,0.0,0.0,75.76
2025-08-15T01:08:21.774Z,2,GR86-035-11,85.30000000000001,-0.151,1.082,2.47,1.0,,0.0,0.0,
2025-08-15T01:08:21.816Z,2,GR86-035-11,84.0,-0.172,1.054,2.49,1.0,,0.0,0.0,
2025-08-15T01:08:21.904Z,2,GR86-035-11,84.0,-0.19,1.054,2.48,1.0,5264.0,0.0,0.0,
2025-08-15T01:08:21.946Z,2,GR86-035-11,84.7,-0.209,1.054,2.49,1.0,,0.0,0.0,74.47
2025-08-15T01:08:21.990Z,2,GR86-035-11,85.10000000000001,-0.213,1.069,2.48,1.0,,0.0,0.0,
2025-08-15T01:08:22.076Z,2,GR86-035-11,78.0,-0.168,1.114,2.49,1.0,,0.0,0.0,
2025-08-15T01:08:22.120Z,2,GR86-035-11,69.60000000000001,-0.175,1.058,2.49,1.0,5173.0,0.0,0.0,
2025-08-15T01:08:22.163Z,2,GR86-035-11,74.2,-0.18,1.026,26.32,1.0,,0.0,0.0,73.36
2025-08-15T01:08:22.206Z,2,GR86-035-11,83.9,-0.205,1.069,25.4,1.0,,0.0,0.0,
2025-08-15T01:08:22.250Z,2,GR86-035-11,88.5,-0.176,1.123,21.24,1.0,,0.0,0.0,
2025-08-15T01:08:22.293Z,2,GR86-035-11,87.0,-0.109,1.107,21.38,1.0,,0.0,0.0,
2025-08-15T01:08:22.336Z,2,GR86-035-11,78.80000000000001,-0.113,1.065,26.59,1.0,5262.0,0.0,0.0,
2025-08-15T01:08:22.378Z,2,GR86-035-11,71.7,0.148,1.035,25.42,1.0,,0.0,0.0,72.23
2025-08-15T01:08:22.424Z,2,GR86-035-11,74.0,0.333,0.858,21.91,1.0,,0.0,0.0,
2025-08-15T01:08:22.466Z,2,GR86-035-11,82.30000000000001,0.298,0.986,23.77,1.0,,0.0,0.0,
2025-08-15T01:08:22.510Z,2,GR86-035-11,92.2,0.158,0.952,24.26,1.0,,0.0,0.0,
2025-08-15T01:08:22.553Z,2,GR86-035-11,99.1,0.008,1.002,23.4,1.0,5236.0,0.0,0.0,
2025-08-15T01:08:22.596Z,2,GR86-035-11,100.6,-0.024,0.893,23.68,1.0,,0.0,0.0,71.48
2025-08-15T01:08:22.638Z,2,GR86-035-11,100.6,-0.007,1.074,25.17,1.0,,0.0,0.0,
2025-08-15T01:08:22.684Z,2,GR86-035-11,100.6,0.067,1.163,22.15,1.0,,0.0,0.0,
2025-08-15T01:08:22.726Z,2,GR86-035-11,98.1,0.101,0.959,22.52,1.0,,0.0,0.0,
2025-08-15T01:08:22.770Z,2,GR86-035-11,95.6,0.047,1.177,26.89,1.0,5449.0,0.0,0.0,
2025-08-15T01:08:22.814Z,2,GR86-035-11,93.1,0.112,1.134,24.55,1.0,,0.0,0.0,72.32000000000001
2025-08-15T01:08:22.856Z,2,GR86-035-11,86.10000000000001,-0.033,1.161,22.64,1.0,,0.0,0.0,
2025-08-15T01:08:22.900Z,2,GR86-035-11,79.2,0.005,1.258,24.69,1.0,,0.0,0.0,
2025-08-15T01:08:22.943Z,2,GR86-035-11,79.60000000000001,0.112,1.212,27.09,1.0,,0.0,0.0,
2025-08-15T01:08:22.986Z,2,GR86-035-11,81.0,0.082,0.922,24.75,1.0,5522.0,0.0,0.0,
2025-08-15T01:08:23.030Z,2,GR86-035-11,79.7,0.077,1.326,27.84,1.0,,0.0,0.0,73.42
2025-08-15T01:08:23.074Z,2,GR86-035-11,76.7,0.302,0.907,28.99,1.0,,0.0,0.0,
2025-08-15T01:08:23.116Z,2,GR86-035-11,76.2,0.075,1.002,28.98,1.0,,0.0,0.0,
2025-08-15T01:08:23.159Z,2,GR86-035-11,76.7,0.199,0.949,29.97,1.0,,0.0,0.0,
2025-08-15T01:08:23.203Z,2,GR86-035-11,78.4,0.3,1.047,43.37,1.0,5570.0,0.0,0.0,
2025-08-15T01:08:23.246Z,2,GR86-035-11,79.5,0.092,1.084,55.06,1.0,,0.0,0.0,74.37
2025-08-15T01:08:23.291Z,2,GR86-035-11,83.7,0.231,1.139,65.46000000000001,1.0,,0.0,0.0,
2025-08-15T01:08:23.334Z,2,GR86-035-11,89.5,0.301,1.152,72.05,1.0,,0.0,0.0,
2025-08-15T01:08:23.376Z,2,GR86-035-11,91.7,0.324,1.055,69.21000000000001,1.0,,0.0,0.0,
2025-08-15T01:08:23.421Z,2,GR86-035-11,91.9,0.339,1.087,68.7,1.0,5740.0,0.0,0.0,
2025-08-15T01:08:23.464Z,2,GR86-035-11,91.8,0.293,1.033,60.58,1.0,,0.0,0.0,74.61
2025-08-15T01:08:23.506Z,2,GR86-035-11,89.2,0.259,1.054,51.65,1.0,,0.0,0.0,
2025-08-15T01:08:23.550Z,2,GR86-035-11,84.80000000000001,0.245,1.079,51.76,1.0,,0.0,0.0,
2025-08-15T01:08:23.593Z,2,GR86-035-11,80.9,0.282,1.089,53.74,1.0,,0.0,0.0,
2025-08-15T01:08:23.636Z,2,GR86-035-11,77.5,0.303,1.122,55.64,1.0,5786.0,0.0,0.0,
2025-08-15T01:08:23.678Z,2,GR86-035-11,73.10000000000001,0.31,1.075,77.60000000000001,1.0,,0.0,0.0,76.48
2025-08-15T01:08:23.724Z,2,GR86-035-11,62.7,0.326,1.103,99.66,1.0,,0.0,0.0,
2025-08-15T01:08:23.766Z,2,GR86-035-11,56.8,0.299,1.064,99.83,1.0,,0.0,0.0,
2025-08-15T01:08:23.810Z,2,GR86-035-11,54.3,0.309,1.029,99.83,1.0,,0.0,0.0,
2025-08-15T01:08:23.853Z,2,GR86-035-11,53.5,0.331,0.995,99.84,1.0,6011.0,0.0,0.0,
2025-08-15T01:08:23.896Z,2,GR86-035-11,50.6,0.333,1.041,99.84,1.0,,0.0,0.0,78.32000000000001
2025-08-15T01:08:23.938Z,2,GR86-035-11,45.5,0.34,1.021,99.83,1.0,,0.0,0.0,
2025-08-15T01:08:23.983Z,2,GR86-035-11,39.5,0.305,0.994,99.85,1.0,,0.0,0.0,
2025-08-15T01:08:24.026Z,2,GR86-035-11,39.3,0.317,1.004,99.85,1.0,,0.0,0.0,
2025-08-15T01:08:24.070Z,2,GR86-035-11,41.3,0.389,0.996,99.86,1.0,6214.0,0.0,0.0,
2025-08-15T01:08:24.113Z,2,GR86-035-11,41.5,0.382,0.992,99.86,1.0,,0.0,0.0,82.28
2025-08-15T01:08:24.156Z,2,GR86-035-11,36.1,0.367,1.0,99.84,1.0,,0.0,0.0,
2025-08-15T01:08:24.200Z,2,GR86-035-11,28.6,0.379,0.916,99.84,1.0,,0.0,0.0,
2025-08-15T01:08:24.243Z,2,GR86-035-11,25.700000000000003,0.35,0.786,99.83,1.0,,0.0,0.0,
2025-08-15T01:08:24.286Z,2,GR86-035-11,30.8,0.353,0.745,99.87,1.0,6370.0,0.0,0.0,
2025-08-15T01:08:24.330Z,2,GR86-035-11,37.1,0.358,0.7000000000000001,99.85,1.0,,0.0,0.0,84.26
2025-08-15T01:08:24.373Z,2,GR86-035-11,41.3,0.352,0.683,99.88,1.0,,0.0,0.0,
2025-08-15T01:08:24.416Z,2,GR86-035-11,42.3,0.345,0.644,99.87,1.0,,0.0,0.0,
2025-08-15T01:08:24.458Z,2,GR86-035-11,42.3,0.328,0.636,99.85,1.0,,0.0,0.0,
2025-08-15T01:08:24.504Z,2,GR86-035-11,42.3,0.309,0.611,99.84,1.0,6505.0,0.0,0.0,
2025-08-15T01:08:24.546Z,2,GR86-035-11,42.3,0.307,0.634,99.86,1.0,,0.0,0.0,85.76
2025-08-15T01:08:24.590Z,2,GR86-035-11,39.400000000000006,0.337,0.628,99.87,1.0,,0.0,0.0,
2025-08-15T01:08:24.633Z,2,GR86-035-11,34.5,0.335,0.637,99.86,1.0,,0.0,0.0,
2025-08-15T01:08:24.676Z,2,GR86-035-11,29.200000000000003,0.341,0.6,99.87,1.0,,0.0,0.0,
2025-08-15T01:08:24.719Z,2,GR86-035-11,25.4,0.334,0.5650000000000001,99.87,1.0,6722.0,0.0,0.0,
2025-08-15T01:08:24.762Z,2,GR86-035-11,23.8,0.356,0.51,99.88,1.0,,0.0,0.0,88.17
2025-08-15T01:08:24.806Z,2,GR86-035-11,23.8,0.357,0.461,99.89,1.0,,0.0,0.0,
2025-08-15T01:08:24.850Z,2,GR86-035-11,23.8,0.36,0.436,99.87,1.0,,0.0,0.0,
2025-08-15T01:08:24.893Z,2,GR86-035-11,23.8,0.362,0.404,99.89,1.0,,0.0,0.0,
2025-08-15T01:08:24.936Z,2,GR86-035-11,23.8,0.34,0.375,99.86,1.0,6850.0,0.0,0.0,
2025-08-15T01:08:24.978Z,2,GR86-035-11,23.6,0.329,0.347,99.87,1.0,,0.0,0.0,90.56
2025-08-15T01:08:25.022Z,2,GR86-035-11,20.9,0.332,0.339,99.9,1.0,,0.0,0.0,
2025-08-15T01:08:25.066Z,2,GR86-035-11,18.6,0.342,0.329,99.89,1.0,,0.0,0.0,
2025-08-15T01:08:25.110Z,2,GR86-035-11,16.400000000000002,0.34,0.315,99.87,1.0,,0.0,0.0,
2025-08-15T01:08:25.153Z,2,GR86-035-11,14.3,0.348,0.282,99.89,1.0,7041.0,0.0,0.0,
2025-08-15T01:08:25.196Z,2,GR86-035-11,13.6,0.339,0.251,99.87,1.0,,0.0,0.0,92.96
2025-08-15T01:08:25.238Z,2,GR86-035-11,11.7,0.344,0.231,99.88,1.0,,0.0,0.0,
2025-08-15T01:08:25.283Z,2,GR86-035-11,8.1,0.322,0.178,99.87,1.0,,0.0,0.0,
2025-08-15T01:08:25.326Z,2,GR86-035-11,6.9,0.324,0.142,99.89,1.0,,0.0,0.0,
2025-08-15T01:08:25.370Z,2,GR86-035-11,6.5,0.328,0.108,99.92,1.0,7191.0,0.0,0.0,
2025-08-15T01:08:25.414Z,2,GR86-035-11,6.4,0.309,0.063,99.93,1.0,,0.0,0.0,95.31
2025-08-15T01:08:25.456Z,2,GR86-035-11,5.9,0.019,0.051,99.9,1.0,,0.0,0.0,
2025-08-15T01:08:25.500Z,2,GR86-035-11,4.1000000000000005,-0.059,0.092,99.9,2.0,,0.0,0.0,
2025-08-15T01:08:25.544Z,2,GR86-035-11,3.4000000000000004,0.649,-0.051,99.9,2.0,,0.0,0.0,
2025-08-15T01:08:25.586Z,2,GR86-035-11,2.3000000000000003,0.491,0.015,99.9,2.0,6793.0,0.0,0.0,
2025-08-15T01:08:25.630Z,2,GR86-035-11,0.0,0.383,0.037,99.9,2.0,,0.0,0.0,97.63
2025-08-15T01:08:25.674Z,2,GR86-035-11,-1.1,0.416,-0.115,99.89,2.0,,0.0,0.0,
2025-08-15T01:08:25.716Z,2,GR86-035-11,-1.7000000000000002,0.443,-0.051,99.9,2.0,,0.0,0.0,
2025-08-15T01:08:25.759Z,2,GR86-035-11,-2.3000000000000003,0.342,-0.046,99.9,2.0,,0.0,0.0,
2025-08-15T01:08:25.804Z,2,GR86-035-11,-3.1,0.184,-0.094,99.9,2.0,5970.0,0.0,0.0,
2025-08-15T01:08:25.846Z,2,GR86-035-11,-3.2,0.178,-0.076,99.9,2.0,,0.0,0.0,99.33
2025-08-15T01:08:25.890Z,2,GR86-035-11,-3.1,0.292,-0.128,99.89,2.0,,0.0,0.0,
2025-08-15T01:08:25.934Z,2,GR86-035-11,-3.2,0.345,-0.094,99.89,2.0,,0.0,0.0,
2025-08-15T01:08:25.976Z,2,GR86-035-11,-3.2,0.301,-0.105,99.9,2.0,,0.0,0.0,
2025-08-15T01:08:26.020Z,2,GR86-035-11,-3.5,0.244,-0.098,99.91,2.0,5983.0,0.0,0.0,
2025-08-15T01:08:26.063Z,2,GR86-035-11,-3.6,0.235,-0.121,99.89,2.0,,0.0,0.0,101.96
2025-08-15T01:08:26.106Z,2,GR86-035-11,-3.6,0.262,-0.121,99.9,2.0,,0.0,0.0,
2025-08-15T01:08:26.150Z,2,GR86-035-11,-4.0,0.289,-0.13,99.9,2.0,,0.0,0.0,
2025-08-15T01:08:26.236Z,2,GR86-035-11,-4.7,0.263,-0.139,99.9,2.0,6029.0,0.0,0.0,
2025-08-15T01:08:26.278Z,2,GR86-035-11,-5.300000000000001,0.248,-0.138,99.9,2.0,,0.0,0.0,103.85
2025-08-15T01:08:26.324Z,2,GR86-035-11,-5.4,0.265,-0.141,99.91,2.0,,0.0,0.0,
2025-08-15T01:08:26.366Z,2,GR86-035-11,-5.4,0.277,-0.142,99.9,2.0,,0.0,0.0,
2025-08-15T01:08:26.410Z,2,GR86-035-11,-5.4,0.273,-0.155,99.9,2.0,,0.0,0.0,
2025-08-15T01:08:26.453Z,2,GR86-035-11,-5.4,0.255,-0.154,99.9,2.0,6109.0,0.0,0.0,
2025-08-15T01:08:26.496Z,2,GR86-035-11,-5.5,0.259,-0.156,99.91,2.0,,0.0,0.0,105.62
2025-08-15T01:08:26.538Z,2,GR86-035-11,-5.4,0.253,-0.16,99.9,2.0,,0.0,0.0,
2025-08-15T01:08:26.584Z,2,GR86-035-11,-5.0,0.25,-0.15,99.9,2.0,,0.0,0.0,
2025-08-15T01:08:26.626Z,2,GR86-035-11,-4.6000000000000005,0.264,-0.128,99.93,2.0,,0.0,0.0,
2025-08-15T01:08:26.670Z,2,GR86-035-11,-4.2,0.263,-0.131,99.91,2.0,6206.0,0.0,0.0,
2025-08-15T01:08:26.714Z,2,GR86-035-11,-4.2,0.26,-0.12,99.9,2.0,,0.0,0.0,109.1
2025-08-15T01:08:26.756Z,2,GR86-035-11,-4.0,0.249,-0.098,99.9,2.0,,0.0,0.0,
2025-08-15T01:08:26.800Z,2,GR86-035-11,-3.9,0.248,-0.097,99.91,2.0,,0.0,0.0,
2025-08-15T01:08:26.844Z,2,GR86-035-11,-3.9,0.263,-0.094,99.91,2.0,,0.0,0.0,
2025-08-15T01:08:26.886Z,2,GR86-035-11,-3.6,0.259,-0.089,99.9,2.0,6303.0,0.0,0.0,
2025-08-15T01:08:26.930Z,2,GR86-035-11,-3.6,0.26,-0.085,99.93,2.0,,0.0,0.0,110.69
2025-08-15T01:08:26.973Z,2,GR86-035-11,-3.4000000000000004,0.257,-0.083,99.93,2.0,,0.0,0.0,
2025-08-15T01:08:27.016Z,2,GR86-035-11,-2.9000000000000004,0.249,-0.079,99.9,2.0,,0.0,0.0,
2025-08-15T01:08:27.059Z,2,GR86-035-11,-1.6,0.257,-0.075,99.93,2.0,,0.0,0.0,
2025-08-15T01:08:27.104Z,2,GR86-035-11,-1.0,0.258,-0.069,99.91,2.0,6480.0,0.0,0.0,
2025-08-15T01:08:27.146Z,2,GR86-035-11,-0.9,0.249,-0.057,99.9,2.0,,0.0,0.0,112.27
2025-08-15T01:08:27.191Z,2,GR86-035-11,-0.8,0.256,-0.045,99.93,2.0,,0.0,0.0,
2025-08-15T01:08:27.234Z,2,GR86-035-11,-0.5,0.26,-0.049,99.9,2.0,,0.0,0.0,
2025-08-15T01:08:27.276Z,2,GR86-035-11,0.0,0.257,-0.031,99.93,2.0,,0.0,0.0,
2025-08-15T01:08:27.320Z,2,GR86-035-11,0.1,0.262,-0.026,99.9,2.0,6570.0,0.0,0.0,
2025-08-15T01:08:27.364Z,2,GR86-035-11,1.0,0.261,-0.031,99.93,2.0,,0.0,0.0,113.75
2025-08-15T01:08:27.406Z,2,GR86-035-11,2.1,0.245,-0.007,99.92,2.0,,0.0,0.0,
2025-08-15T01:08:27.450Z,2,GR86-035-11,2.3000000000000003,0.244,0.016,99.9,2.0,,0.0,0.0,
2025-08-15T01:08:27.493Z,2,GR86-035-11,2.3000000000000003,0.262,-0.002,99.9,2.0,,0.0,0.0,
2025-08-15T01:08:27.536Z,2,GR86-035-11,2.3000000000000003,0.253,0.028,99.92,2.0,6654.0,0.0,0.0,
2025-08-15T01:08:27.578Z,2,GR86-035-11,2.3000000000000003,0.257,0.033,99.92,2.0,,0.0,0.0,115.23
2025-08-15T01:08:27.624Z,2,GR86-035-11,2.3000000000000003,0.25,0.045,99.93,2.0,,0.0,0.0,
2025-08-15T01:08:27.666Z,2,GR86-035-11,2.3000000000000003,0.258,0.034,99.9,2.0,,0.0,0.0,
2025-08-15T01:08:27.710Z,2,GR86-035-11,2.3000000000000003,0.253,0.055,99.9,2.0,,0.0,0.0,
2025-08-15T01:08:27.753Z,2,GR86-035-11,2.3000000000000003,0.264,0.049,99.94,2.0,6727.0,0.0,0.0,
2025-08-15T01:08:27.796Z,2,GR86-035-11,2.3000000000000003,0.256,0.05,99.93,2.0,,0.0,0.0,116.69
2025-08-15T01:08:27.838Z,2,GR86-035-11,2.3000000000000003,0.255,0.052,99.93,2.0,,0.0,0.0,
2025-08-15T01:08:27.883Z,2,GR86-035-11,2.3000000000000003,0.251,0.042,99.93,2.0,,0.0,0.0,
2025-08-15T01:08:27.926Z,2,GR86-035-11,2.2,0.27,0.032,99.92,2.0,,0.0,0.0,
2025-08-15T01:08:27.970Z,2,GR86-035-11,2.2,0.259,0.038,99.9,2.0,6805.0,0.0,0.0,
2025-08-15T01:08:28.013Z,2,GR86-035-11,2.2,0.254,0.049,99.9,2.0,,0.0,0.0,118.07
2025-08-15T01:08:28.056Z,2,GR86-035-11,2.2,0.255,0.03,99.92,2.0,,0.0,0.0,
2025-08-15T01:08:28.100Z,2,GR86-035-11,2.2,0.243,0.043,99.91,2.0,,0.0,0.0,
2025-08-15T01:08:28.143Z,2,GR86-035-11,2.2,0.257,0.049,99.92,2.0,,0.0,0.0,
2025-08-15T01:08:28.186Z,2,GR86-035-11,2.1,0.261,0.055,99.91,2.0,6889.0,0.0,0.0,
2025-08-15T01:08:28.230Z,2,GR86-035-11,0.6000000000000001,0.271,0.019,99.89,2.0,,0.0,0.0,119.34
2025-08-15T01:08:28.274Z,2,GR86-035-11,0.1,0.248,0.013,99.9,2.0,,0.0,0.0,
2025-08-15T01:08:28.316Z,2,GR86-035-11,0.1,0.248,-0.003,99.9,2.0,,0.0,0.0,
2025-08-15T01:08:28.359Z,2,GR86-035-11,0.1,0.263,-0.028,99.9,2.0,,0.0,0.0,
2025-08-15T01:08:28.403Z,2,GR86-035-11,0.0,0.262,-0.051,99.92,2.0,6946.0,0.0,0.0,
2025-08-15T01:08:28.446Z,2,GR86-035-11,0.0,0.247,-0.039,99.92,2.0,,0.0,0.0,120.59
2025-08-15T01:08:28.489Z,2,GR86-035-11,0.0,0.25,-0.049,99.93,2.0,,0.0,0.0,
2025-08-15T01:08:28.533Z,2,GR86-035-11,0.0,0.26,-0.062,99.93,2.0,,0.0,0.0,
2025-08-15T01:08:28.576Z,2,GR86-035-11,0.0,0.254,-0.044,99.93,2.0,,0.0,0.0,
2025-08-15T01:08:28.619Z,2,GR86-035-11,0.0,0.252,-0.038,99.92,2.0,7021.0,0.0,0.0,
2025-08-15T01:08:28.662Z,2,GR86-035-11,0.7000000000000001,0.251,-0.023,99.91,2.0,,0.0,0.0,121.76
2025-08-15T01:08:28.706Z,2,GR86-035-11,0.8,0.252,-0.051,99.93,2.0,,0.0,0.0,
2025-08-15T01:08:28.750Z,2,GR86-035-11,1.0,0.251,-0.035,99.93,2.0,,0.0,0.0,
2025-08-15T01:08:28.793Z,2,GR86-035-11,1.3,0.238,-0.02,99.92,2.0,,0.0,0.0,
2025-08-15T01:08:28.836Z,2,GR86-035-11,1.3,-0.064,-0.005,99.89,3.0,7088.0,0.0,0.0,
2025-08-15T01:08:28.878Z,2,GR86-035-11,1.2000000000000002,0.006,0.04,99.93,3.0,,0.0,0.0,122.98
2025-08-15T01:08:28.922Z,2,GR86-035-11,2.3000000000000003,0.165,-0.077,99.92,3.0,,0.0,0.0,
2025-08-15T01:08:28.966Z,2,GR86-035-11,2.4000000000000004,0.336,0.013,99.91,3.0,,0.0,0.0,
2025-08-15T01:08:29.010Z,2,GR86-035-11,2.5,0.336,0.036,99.91,3.0,,0.0,0.0,
2025-08-15T01:08:29.053Z,2,GR86-035-11,2.8000000000000003,0.298,-0.055,99.92,3.0,6534.0,0.0,0.0,
2025-08-15T01:08:29.096Z,2,GR86-035-11,2.9000000000000004,0.165,0.036,99.91,3.0,,0.0,0.0,124.12
2025-08-15T01:08:29.138Z,2,GR86-035-11,3.1,0.151,0.047,99.9,3.0,,0.0,0.0,
2025-08-15T01:08:29.183Z,2,GR86-035-11,4.1000000000000005,0.222,0.041,99.9,3.0,,0.0,0.0,
2025-08-15T01:08:29.226Z,2,GR86-035-11,4.1000000000000005,0.273,0.05,99.9,3.0,,0.0,0.0,
2025-08-15T01:08:29.270Z,2,GR86-035-11,4.1000000000000005,0.22,0.063,99.92,3.0,5770.0,0.0,0.0,
2025-08-15T01:08:29.314Z,2,GR86-035-11,4.1000000000000005,0.176,0.093,99.93,3.0,,0.0,0.0,126.03
2025-08-15T01:08:29.356Z,2,GR86-035-11,4.1000000000000005,0.183,0.088,99.9,3.0,,0.0,0.0,
2025-08-15T01:08:29.400Z,2,GR86-035-11,4.1000000000000005,0.223,0.093,99.92,3.0,,0.0,0.0,
2025-08-15T01:08:29.443Z,2,GR86-035-11,4.1000000000000005,0.242,0.078,99.9,3.0,,0.0,0.0,
2025-08-15T01:08:29.486Z,2,GR86-035-11,4.1000000000000005,0.195,0.1,99.91,3.0,5849.0,0.0,0.0,
2025-08-15T01:08:29.530Z,2,GR86-035-11,4.1000000000000005,0.198,0.083,99.92,3.0,,0.0,0.0,126.86
2025-08-15T01:08:29.574Z,2,GR86-035-11,4.1000000000000005,0.21,0.07,99.89,3.0,,0.0,0.0,
2025-08-15T01:08:29.616Z,2,GR86-035-11,4.1000000000000005,0.215,0.091,99.91,3.0,,0.0,0.0,
2025-08-15T01:08:29.659Z,2,GR86-035-11,4.1000000000000005,0.218,0.088,99.92,3.0,,0.0,0.0,
2025-08-15T01:08:29.704Z,2,GR86-035-11,4.1000000000000005,0.209,0.085,99.91,3.0,5960.0,0.0,0.0,
2025-08-15T01:08:29.746Z,2,GR86-035-11,4.1000000000000005,0.192,0.048,99.9,3.0,,0.0,0.0,127.67
2025-08-15T01:08:29.790Z,2,GR86-035-11,4.1000000000000005,0.216,0.056,99.9,3.0,,0.0,0.0,
2025-08-15T01:08:29.834Z,2,GR86-035-11,4.1000000000000005,0.208,0.087,99.9,3.0,,0.0,0.0,
2025-08-15T01:08:29.876Z,2,GR86-035-11,4.1000000000000005,0.22,0.066,82.71000000000001,3.0,,0.0,0.0,
2025-08-15T01:08:29.920Z,2,GR86-035-11,4.0,0.214,0.056,12.29,3.0,6005.0,0.0,0.0,
2025-08-15T01:08:29.963Z,2,GR86-035-11,4.1000000000000005,0.193,0.035,4.59,3.0,,0.0,0.0,128.52
2025-08-15T01:08:30.006Z,2,GR86-035-11,4.1000000000000005,-0.063,0.072,4.2,3.0,,0.0,0.0,
2025-08-15T01:08:30.049Z,2,GR86-035-11,4.0,-0.072,0.124,3.89,3.0,,0.0,0.0,
2025-08-15T01:08:30.136Z,2,GR86-035-11,4.1000000000000005,-0.3,0.068,2.95,3.0,5675.0,14.39,14.085,
2025-08-15T01:08:30.178Z,2,GR86-035-11,4.1000000000000005,-0.375,0.097,2.71,3.0,,19.7,19.61,129.37
2025-08-15T01:08:30.224Z,2,GR86-035-11,4.0,-0.471,0.091,2.58,3.0,,22.065,22.28,
2025-08-15T01:08:30.267Z,2,GR86-035-11,4.1000000000000005,-0.464,0.103,2.56,3.0,,22.645,22.615,
2025-08-15T01:08:30.310Z,2,GR86-035-11,4.1000000000000005,-0.471,0.016,2.54,3.0,,22.845,22.965,
2025-08-15T01:08:30.353Z,2,GR86-035-11,4.9,-0.502,0.077,2.53,3.0,5749.0,23.53,23.715,
