timestamp,lap,vehicle_id,steering_angle,accx_can,accy_can,ath,gear,nmot,pbrake_f,pbrake_r,speed
2025-08-15T06:03:09.017Z,4,GR86-012-8,3.2,0.116,0.076,99.97,5.0,,0.0,0.0,
2025-08-15T06:03:09.061Z,4,GR86-012-8,3.2,0.025,0.038,100.0,5.0,,0.0,0.0,
2025-08-15T06:03:09.104Z,4,GR86-012-8,3.2,0.067,0.019,99.97,5.0,,0.0,0.0,
2025-08-15T06:03:09.148Z,4,GR86-012-8,3.1,0.125,0.031,100.0,5.0,6182.0,0.0,0.0,
2025-08-15T06:03:09.191Z,4,GR86-012-8,2.7,0.08,0.039,100.0,5.0,,0.0,0.0,181.09
2025-08-15T06:03:09.234Z,4,GR86-012-8,2.7,0.08,0.037,99.99,5.0,,0.0,0.0,
2025-08-15T06:03:09.278Z,4,GR86-012-8,2.7,0.109,0.028,100.01,5.0,,0.0,0.0,
2025-08-15T06:03:09.321Z,4,GR86-012-8,2.7,0.102,0.032,100.01,5.0,,0.0,0.0,
2025-08-15T06:03:09.364Z,4,GR86-012-8,2.7,0.092,0.05,100.01,5.0,6176.0,0.0,0.0,
2025-08-15T06:03:09.408Z,4,GR86-012-8,2.7,0.089,0.046,100.01,5.0,,0.0,0.0,181.66
2025-08-15T06:03:09.451Z,4,GR86-012-8,2.7,0.088,0.034,100.01,5.0,,0.0,0.0,
2025-08-15T06:03:09.494Z,4,GR86-012-8,2.7,0.081,0.027,100.0,5.0,,0.0,0.0,
2025-08-15T06:03:09.540Z,4,GR86-012-8,2.7,0.077,0.023,100.0,5.0,,0.0,0.0,
2025-08-15T06:03:09.583Z,4,GR86-012-8,2.7,0.079,0.01,100.01,5.0,6198.0,0.0,0.0,
2025-08-15T06:03:09.628Z,4,GR86-012-8,2.7,0.09,0.015,99.98,5.0,,0.0,0.0,182.34
2025-08-15T06:03:09.671Z,4,GR86-012-8,2.7,0.093,0.006,99.96,5.0,,0.0,0.0,
2025-08-15T06:03:09.714Z,4,GR86-012-8,2.7,0.088,0.012,100.0,5.0,,0.0,0.0,
2025-08-15T06:03:09.757Z,4,GR86-012-8,2.7,0.087,0.034,99.98,5.0,,0.0,0.0,
2025-08-15T06:03:09.801Z,4,GR86-012-8,2.7,0.096,0.037,100.0,5.0,6213.0,0.0,0.0,
2025-08-15T06:03:09.844Z,4,GR86-012-8,2.7,0.084,0.017,100.0,5.0,,0.0,0.0,183.0
2025-08-15T06:03:09.888Z,4,GR86-012-8,2.7,0.077,0.009,100.0,5.0,,0.0,0.0,
2025-08-15T06:03:09.931Z,4,GR86-012-8,2.7,0.076,0.033,100.01,5.0,,0.0,0.0,
2025-08-15T06:03:09.974Z,4,GR86-012-8,2.7,0.077,0.027,100.01,5.0,,0.0,0.0,
2025-08-15T06:03:10.017Z,4,GR86-012-8,2.7,0.07,0.017,100.0,5.0,6238.0,0.0,0.0,
2025-08-15T06:03:10.060Z,4,GR86-012-8,2.3000000000000003,0.066,0.023,99.98,5.0,,0.0,0.0,183.69
2025-08-15T06:03:10.103Z,4,GR86-012-8,1.7000000000000002,0.07,0.012,100.0,5.0,,0.0,0.0,
2025-08-15T06:03:10.148Z,4,GR86-012-8,0.9,0.086,0.004,99.97,5.0,,0.0,0.0,
2025-08-15T06:03:10.191Z,4,GR86-012-8,0.9,0.079,0.003,99.98,5.0,,0.0,0.0,
2025-08-15T06:03:10.278Z,4,GR86-012-8,0.9,0.082,-0.003,100.0,5.0,6269.0,0.0,0.0,184.32
2025-08-15T06:03:10.321Z,4,GR86-012-8,0.8,0.076,-0.034,100.0,5.0,,0.0,0.0,
2025-08-15T06:03:10.364Z,4,GR86-012-8,0.8,0.077,-0.039,100.01,5.0,,0.0,0.0,
2025-08-15T06:03:10.408Z,4,GR86-012-8,0.4,0.079,-0.033,100.01,5.0,,0.0,0.0,
2025-08-15T06:03:10.451Z,4,GR86-012-8,0.3,0.068,-0.049,100.0,5.0,6273.0,0.0,0.0,
2025-08-15T06:03:10.494Z,4,GR86-012-8,0.3,0.066,-0.059,99.99,5.0,,0.0,0.0,184.92
2025-08-15T06:03:10.539Z,4,GR86-012-8,0.3,0.075,-0.05,99.99,5.0,,0.0,0.0,
2025-08-15T06:03:10.582Z,4,GR86-012-8,0.3,0.075,-0.045,99.97,5.0,,0.0,0.0,
2025-08-15T06:03:10.625Z,4,GR86-012-8,0.3,0.066,-0.055,100.0,5.0,,0.0,0.0,
2025-08-15T06:03:10.668Z,4,GR86-012-8,0.3,0.06,-0.053,100.0,5.0,6307.0,0.0,0.0,
2025-08-15T06:03:10.711Z,4,GR86-012-8,0.3,0.065,-0.044,100.01,5.0,,0.0,0.0,185.45
2025-08-15T06:03:10.754Z,4,GR86-012-8,0.3,0.058,-0.053,100.01,5.0,,0.0,0.0,
2025-08-15T06:03:10.798Z,4,GR86-012-8,0.3,0.069,-0.051,100.0,5.0,,0.0,0.0,
2025-08-15T06:03:10.841Z,4,GR86-012-8,0.3,0.061,-0.061,99.99,5.0,,0.0,0.0,
2025-08-15T06:03:10.884Z,4,GR86-012-8,0.3,0.062,-0.051,100.0,5.0,6318.0,0.0,0.0,
2025-08-15T06:03:10.928Z,4,GR86-012-8,0.3,0.072,-0.066,99.98,5.0,,0.0,0.0,186.64
2025-08-15T06:03:10.971Z,4,GR86-012-8,0.3,0.075,-0.074,100.01,5.0,,0.0,0.0,
2025-08-15T06:03:11.014Z,4,GR86-012-8,0.3,0.081,-0.075,100.0,5.0,,0.0,0.0,
2025-08-15T06:03:11.058Z,4,GR86-012-8,0.3,0.074,-0.073,100.01,5.0,,0.0,0.0,
2025-08-15T06:03:11.101Z,4,GR86-012-8,0.3,0.077,-0.068,100.01,5.0,6333.0,0.0,0.0,
2025-08-15T06:03:11.144Z,4,GR86-012-8,0.3,0.075,-0.06,100.0,5.0,,0.0,0.0,187.2
2025-08-15T06:03:11.188Z,4,GR86-012-8,0.3,0.056,-0.058,99.98,5.0,,0.0,0.0,
2025-08-15T06:03:11.231Z,4,GR86-012-8,0.3,0.07,-0.055,100.01,5.0,,0.0,0.0,
2025-08-15T06:03:11.274Z,4,GR86-012-8,0.3,0.073,-0.057,99.96,5.0,,0.0,0.0,
2025-08-15T06:03:11.317Z,4,GR86-012-8,0.3,0.064,-0.054,100.01,5.0,6356.0,0.0,0.0,
2025-08-15T06:03:11.360Z,4,GR86-012-8,0.5,0.066,-0.071,100.0,5.0,,0.0,0.0,187.75
2025-08-15T06:03:11.403Z,4,GR86-012-8,0.5,0.074,-0.09,100.02,5.0,,0.0,0.0,
2025-08-15T06:03:11.448Z,4,GR86-012-8,0.5,0.063,-0.071,99.99,5.0,,0.0,0.0,
2025-08-15T06:03:11.491Z,4,GR86-012-8,0.5,0.056,-0.076,99.98,5.0,,0.0,0.0,
2025-08-15T06:03:11.534Z,4,GR86-012-8,0.5,0.061,-0.072,100.0,5.0,6404.0,0.0,0.0,
2025-08-15T06:03:11.578Z,4,GR86-012-8,0.5,0.063,-0.065,99.96,5.0,,0.0,0.0,188.43
2025-08-15T06:03:11.621Z,4,GR86-012-8,0.7000000000000001,0.047,-0.061,100.01,5.0,,0.0,0.0,
2025-08-15T06:03:11.664Z,4,GR86-012-8,0.9,0.067,-0.045,99.99,5.0,,0.0,0.0,
2025-08-15T06:03:11.708Z,4,GR86-012-8,1.1,0.081,-0.054,100.02,5.0,,0.0,0.0,
2025-08-15T06:03:11.751Z,4,GR86-012-8,1.1,0.068,-0.046,100.02,5.0,6418.0,0.0,0.0,
2025-08-15T06:03:11.794Z,4,GR86-012-8,1.2000000000000002,0.074,-0.041,99.98,5.0,,0.0,0.0,189.05
2025-08-15T06:03:11.839Z,4,GR86-012-8,1.4,0.081,-0.032,100.01,5.0,,0.0,0.0,
2025-08-15T06:03:11.882Z,4,GR86-012-8,1.7000000000000002,0.064,-0.035,99.96,5.0,,0.0,0.0,
2025-08-15T06:03:11.925Z,4,GR86-012-8,1.8,0.074,-0.048,100.0,5.0,,0.0,0.0,
2025-08-15T06:03:11.968Z,4,GR86-012-8,1.8,0.078,-0.057,100.01,5.0,6428.0,0.0,0.0,
2025-08-15T06:03:12.011Z,4,GR86-012-8,1.8,0.083,-0.051,100.01,5.0,,0.0,0.0,189.64
2025-08-15T06:03:12.054Z,4,GR86-012-8,1.9,0.074,-0.035,100.0,5.0,,0.0,0.0,
2025-08-15T06:03:12.097Z,4,GR86-012-8,1.9,0.069,-0.039,100.0,5.0,,0.0,0.0,
2025-08-15T06:03:12.141Z,4,GR86-012-8,1.9,0.077,-0.048,99.97,5.0,,0.0,0.0,
2025-08-15T06:03:12.184Z,4,GR86-012-8,1.9,0.078,-0.04,100.01,5.0,6467.0,0.0,0.0,
2025-08-15T06:03:12.228Z,4,GR86-012-8,1.9,0.05,-0.04,100.01,5.0,,0.0,0.0,190.28
2025-08-15T06:03:12.271Z,4,GR86-012-8,1.9,0.06,-0.036,100.0,5.0,,0.0,0.0,
2025-08-15T06:03:12.314Z,4,GR86-012-8,1.9,0.058,-0.037,100.0,5.0,,0.0,0.0,
2025-08-15T06:03:12.358Z,4,GR86-012-8,2.0,0.07,-0.027,100.01,5.0,,0.0,0.0,
2025-08-15T06:03:12.401Z,4,GR86-012-8,2.2,0.065,-0.031,99.98,5.0,6491.0,0.0,0.0,
2025-08-15T06:03:12.444Z,4,GR86-012-8,2.3000000000000003,0.071,-0.032,100.0,5.0,,0.0,0.0,190.81
2025-08-15T06:03:12.488Z,4,GR86-012-8,2.4000000000000004,0.055,-0.003,100.01,5.0,,0.0,0.0,
2025-08-15T06:03:12.531Z,4,GR86-012-8,2.5,0.039,-0.003,99.99,5.0,,0.0,0.0,
2025-08-15T06:03:12.574Z,4,GR86-012-8,2.7,0.04,-0.003,100.0,5.0,,0.0,0.0,
2025-08-15T06:03:12.618Z,4,GR86-012-8,2.8000000000000003,0.051,-0.012,99.97,5.0,6494.0,0.0,0.0,
2025-08-15T06:03:12.661Z,4,GR86-012-8,2.8000000000000003,0.054,0.002,100.0,5.0,,0.0,0.0,191.37
2025-08-15T06:03:12.704Z,4,GR86-012-8,2.8000000000000003,0.059,-0.008,100.01,5.0,,0.0,0.0,
2025-08-15T06:03:12.748Z,4,GR86-012-8,2.8000000000000003,0.064,0.027,100.01,5.0,,0.0,0.0,
2025-08-15T06:03:12.791Z,4,GR86-012-8,2.8000000000000003,0.057,0.023,99.97,5.0,,0.0,0.0,
2025-08-15T06:03:12.834Z,4,GR86-012-8,2.8000000000000003,0.053,0.02,100.0,5.0,6517.0,0.0,0.0,
2025-08-15T06:03:12.878Z,4,GR86-012-8,2.8000000000000003,0.045,0.019,100.01,5.0,,0.0,0.0,192.03
2025-08-15T06:03:12.921Z,4,GR86-012-8,2.8000000000000003,0.055,0.017,100.0,5.0,,0.0,0.0,
2025-08-15T06:03:12.964Z,4,GR86-012-8,2.8000000000000003,0.051,0.03,100.0,5.0,,0.0,0.0,
2025-08-15T06:03:13.008Z,4,GR86-012-8,2.8000000000000003,0.065,0.025,99.98,5.0,,0.0,0.0,
2025-08-15T06:03:13.051Z,4,GR86-012-8,2.8000000000000003,0.062,0.025,99.99,5.0,6545.0,0.0,0.0,
2025-08-15T06:03:13.094Z,4,GR86-012-8,2.8000000000000003,0.064,0.005,100.0,5.0,,0.0,0.0,192.6
2025-08-15T06:03:13.139Z,4,GR86-012-8,2.8000000000000003,0.046,0.008,100.0,5.0,,0.0,0.0,
2025-08-15T06:03:13.182Z,4,GR86-012-8,2.8000000000000003,0.039,0.01,100.0,5.0,,0.0,0.0,
2025-08-15T06:03:13.225Z,4,GR86-012-8,2.8000000000000003,0.045,0.034,99.99,5.0,,0.0,0.0,
2025-08-15T06:03:13.268Z,4,GR86-012-8,2.8000000000000003,0.071,0.025,99.97,5.0,6550.0,0.0,0.0,
2025-08-15T06:03:13.311Z,4,GR86-012-8,2.8000000000000003,0.071,0.023,100.01,5.0,,0.0,0.0,193.27
2025-08-15T06:03:13.354Z,4,GR86-012-8,2.8000000000000003,0.058,0.016,100.01,5.0,,0.0,0.0,
2025-08-15T06:03:13.397Z,4,GR86-012-8,2.8000000000000003,0.057,0.023,100.01,5.0,,0.0,0.0,
2025-08-15T06:03:13.441Z,4,GR86-012-8,2.8000000000000003,0.059,0.009,99.98,5.0,,0.0,0.0,
2025-08-15T06:03:13.484Z,4,GR86-012-8,2.8000000000000003,0.051,0.004,99.97,5.0,6576.0,0.0,0.0,
2025-08-15T06:03:13.528Z,4,GR86-012-8,2.8000000000000003,0.073,-0.01,100.0,5.0,,0.0,0.0,194.45
2025-08-15T06:03:13.571Z,4,GR86-012-8,2.8000000000000003,0.081,-0.008,100.01,5.0,,0.0,0.0,
2025-08-15T06:03:13.614Z,4,GR86-012-8,2.8000000000000003,0.066,0.019,100.0,5.0,,0.0,0.0,
2025-08-15T06:03:13.701Z,4,GR86-012-8,2.8000000000000003,0.07,0.028,100.0,5.0,6594.0,0.0,0.0,
2025-08-15T06:03:13.744Z,4,GR86-012-8,2.8000000000000003,0.058,0.025,100.0,5.0,,0.0,0.0,195.07
2025-08-15T06:03:13.788Z,4,GR86-012-8,2.8000000000000003,0.068,0.018,100.01,5.0,,0.0,0.0,
2025-08-15T06:03:13.831Z,4,GR86-012-8,2.8000000000000003,0.076,0.02,100.01,5.0,,0.0,0.0,
2025-08-15T06:03:13.874Z,4,GR86-012-8,2.8000000000000003,0.081,0.01,99.99,5.0,,0.0,0.0,
2025-08-15T06:03:13.918Z,4,GR86-012-8,2.8000000000000003,0.066,-0.003,100.0,5.0,6615.0,0.0,0.0,
2025-08-15T06:03:13.961Z,4,GR86-012-8,2.9000000000000004,0.054,0.008,100.01,5.0,,0.0,0.0,195.71
2025-08-15T06:03:14.004Z,4,GR86-012-8,2.9000000000000004,0.058,0.013,100.0,5.0,,0.0,0.0,
2025-08-15T06:03:14.048Z,4,GR86-012-8,3.4000000000000004,0.079,0.008,99.97,5.0,,0.0,0.0,
2025-08-15T06:03:14.091Z,4,GR86-012-8,3.9,0.076,0.02,99.99,5.0,,0.0,0.0,
2025-08-15T06:03:14.134Z,4,GR86-012-8,4.2,0.074,0.042,100.0,5.0,6663.0,0.0,0.0,
2025-08-15T06:03:14.178Z,4,GR86-012-8,4.3,0.058,0.053,100.0,5.0,,0.0,0.0,196.33
2025-08-15T06:03:14.221Z,4,GR86-012-8,4.3,0.061,0.054,100.0,5.0,,0.0,0.0,
2025-08-15T06:03:14.264Z,4,GR86-012-8,4.3,0.047,0.054,100.0,5.0,,0.0,0.0,
2025-08-15T06:03:14.308Z,4,GR86-012-8,4.3,0.087,0.042,100.01,5.0,,0.0,0.0,
2025-08-15T06:03:14.351Z,4,GR86-012-8,4.3,0.069,0.054,100.0,5.0,6691.0,0.0,0.0,
2025-08-15T06:03:14.394Z,4,GR86-012-8,4.3,0.056,0.07,100.0,5.0,,0.0,0.0,196.93
2025-08-15T06:03:14.439Z,4,GR86-012-8,4.3,0.064,0.081,100.01,5.0,,0.0,0.0,
2025-08-15T06:03:14.483Z,4,GR86-012-8,4.2,0.049,0.087,100.01,5.0,,0.0,0.0,
2025-08-15T06:03:14.528Z,4,GR86-012-8,4.2,0.072,0.073,99.98,5.0,,0.0,0.0,
2025-08-15T06:03:14.571Z,4,GR86-012-8,4.1000000000000005,0.067,0.07,99.97,5.0,6699.0,0.0,0.0,
2025-08-15T06:03:14.658Z,4,GR86-012-8,3.9,0.069,0.081,100.0,5.0,,0.0,0.0,197.45
2025-08-15T06:03:14.701Z,4,GR86-012-8,3.8,0.068,0.088,99.97,5.0,,0.0,0.0,
2025-08-15T06:03:14.744Z,4,GR86-012-8,3.8,0.044,0.067,99.98,5.0,,0.0,0.0,
2025-08-15T06:03:14.788Z,4,GR86-012-8,3.7,0.077,0.053,99.98,5.0,6721.0,0.0,0.0,
2025-08-15T06:03:14.831Z,4,GR86-012-8,3.6,0.069,0.045,100.0,5.0,,0.0,0.0,198.05
2025-08-15T06:03:14.874Z,4,GR86-012-8,3.6,0.07,0.059,100.0,5.0,,0.0,0.0,
2025-08-15T06:03:14.960Z,4,GR86-012-8,3.6,0.076,0.053,99.99,5.0,,0.0,0.0,
2025-08-15T06:03:15.003Z,4,GR86-012-8,3.5,0.073,0.039,100.01,5.0,6749.0,0.0,0.0,
2025-08-15T06:03:15.048Z,4,GR86-012-8,3.5,0.082,0.03,99.99,5.0,,0.0,0.0,198.57
2025-08-15T06:03:15.091Z,4,GR86-012-8,3.5,0.07,0.051,100.0,5.0,,0.0,0.0,
2025-08-15T06:03:15.134Z,4,GR86-012-8,3.5,0.065,0.05,100.0,5.0,,0.0,0.0,
2025-08-15T06:03:15.178Z,4,GR86-012-8,3.4000000000000004,0.076,0.044,100.0,5.0,,0.0,0.0,
2025-08-15T06:03:15.221Z,4,GR86-012-8,2.9000000000000004,0.067,0.027,99.97,5.0,6752.0,0.0,0.0,
2025-08-15T06:03:15.264Z,4,GR86-012-8,2.3000000000000003,0.04,0.021,100.0,5.0,,0.0,0.0,199.14
2025-08-15T06:03:15.308Z,4,GR86-012-8,2.1,0.077,0.041,100.01,5.0,,0.0,0.0,
2025-08-15T06:03:15.394Z,4,GR86-012-8,1.9,0.06,0.047,100.01,5.0,,0.0,0.0,
2025-08-15T06:03:15.439Z,4,GR86-012-8,1.4,0.046,0.027,100.01,5.0,6774.0,0.0,0.0,
2025-08-15T06:03:15.528Z,4,GR86-012-8,0.2,0.042,0.005,100.0,5.0,,0.0,0.0,199.65
2025-08-15T06:03:15.615Z,4,GR86-012-8,-2.5,0.069,-0.083,100.01,5.0,,0.0,0.0,
2025-08-15T06:03:15.701Z,4,GR86-012-8,-2.6,0.031,-0.11,100.01,5.0,6791.0,0.0,0.0,200.11
2025-08-15T06:03:15.744Z,4,GR86-012-8,-2.5,0.029,-0.127,100.01,5.0,,0.0,0.0,
2025-08-15T06:03:15.788Z,4,GR86-012-8,-1.1,0.08,-0.149,100.01,5.0,,0.0,0.0,
2025-08-15T06:03:15.831Z,4,GR86-012-8,-0.5,0.042,-0.167,99.98,5.0,,0.0,0.0,
2025-08-15T06:03:15.874Z,4,GR86-012-8,-0.4,0.037,-0.15,99.98,5.0,6808.0,0.0,0.0,
2025-08-15T06:03:15.918Z,4,GR86-012-8,-0.4,0.039,-0.148,100.01,5.0,,0.0,0.0,200.53
2025-08-15T06:03:15.961Z,4,GR86-012-8,-0.5,0.065,-0.141,100.02,5.0,,0.0,0.0,
2025-08-15T06:03:16.048Z,4,GR86-012-8,-0.4,0.033,-0.122,100.02,5.0,,0.0,0.0,
2025-08-15T06:03:16.134Z,4,GR86-012-8,-0.5,0.045,-0.117,100.01,5.0,6826.0,0.0,0.0,201.56
2025-08-15T06:03:16.178Z,4,GR86-012-8,1.1,0.041,-0.1,100.01,5.0,,0.0,0.0,
2025-08-15T06:03:16.221Z,4,GR86-012-8,1.1,0.045,-0.092,100.0,5.0,,0.0,0.0,
2025-08-15T06:03:16.308Z,4,GR86-012-8,0.6000000000000001,0.034,-0.056,100.0,5.0,6842.0,0.0,0.0,
2025-08-15T06:03:16.394Z,4,GR86-012-8,0.6000000000000001,0.042,-0.033,99.99,5.0,,0.0,0.0,202.04
2025-08-15T06:03:16.440Z,4,GR86-012-8,1.6,0.051,-0.052,100.01,5.0,,0.0,0.0,
2025-08-15T06:03:16.483Z,4,GR86-012-8,1.8,0.064,-0.06,100.01,5.0,,0.0,0.0,
2025-08-15T06:03:16.571Z,4,GR86-012-8,1.9,0.042,-0.048,100.0,5.0,6869.0,0.0,0.0,202.44
2025-08-15T06:03:16.614Z,4,GR86-012-8,1.8,0.059,-0.047,100.01,5.0,,0.0,0.0,
2025-08-15T06:03:16.658Z,4,GR86-012-8,1.8,0.042,-0.036,100.0,5.0,,0.0,0.0,
2025-08-15T06:03:16.701Z,4,GR86-012-8,1.8,0.05,-0.041,100.01,5.0,,0.0,0.0,
2025-08-15T06:03:16.744Z,4,GR86-012-8,1.8,0.036,-0.027,100.01,5.0,6878.0,0.0,0.0,
2025-08-15T06:03:16.788Z,4,GR86-012-8,1.8,0.069,-0.036,100.01,5.0,,0.0,0.0,202.94
2025-08-15T06:03:16.831Z,4,GR86-012-8,2.3000000000000003,0.062,-0.031,100.01,5.0,,0.0,0.0,
2025-08-15T06:03:16.874Z,4,GR86-012-8,3.0,0.054,-0.025,99.99,5.0,,0.0,0.0,
2025-08-15T06:03:16.961Z,4,GR86-012-8,3.1,0.043,-0.015,100.01,5.0,6895.0,0.0,0.0,
2025-08-15T06:03:17.004Z,4,GR86-012-8,2.8000000000000003,0.036,-0.011,100.01,5.0,,0.0,0.0,203.35
2025-08-15T06:03:17.048Z,4,GR86-012-8,2.7,0.021,0.005,100.0,5.0,,0.0,0.0,
2025-08-15T06:03:17.091Z,4,GR86-012-8,2.8000000000000003,0.043,-0.006,100.0,5.0,,0.0,0.0,
2025-08-15T06:03:17.134Z,4,GR86-012-8,2.8000000000000003,0.032,0.002,100.0,5.0,,0.0,0.0,
2025-08-15T06:03:17.178Z,4,GR86-012-8,2.8000000000000003,0.027,0.007,100.0,5.0,6912.0,0.0,0.0,
2025-08-15T06:03:17.221Z,4,GR86-012-8,2.8000000000000003,0.044,0.005,100.01,5.0,,0.0,0.0,203.86
2025-08-15T06:03:17.264Z,4,GR86-012-8,2.8000000000000003,0.055,0.0,100.0,5.0,,0.0,0.0,
2025-08-15T06:03:17.308Z,4,GR86-012-8,2.8000000000000003,0.053,0.004,100.01,5.0,,0.0,0.0,
2025-08-15T06:03:17.351Z,4,GR86-012-8,2.8000000000000003,0.037,0.004,100.02,5.0,,0.0,0.0,
2025-08-15T06:03:17.394Z,4,GR86-012-8,2.8000000000000003,0.048,0.015,79.84,5.0,6926.0,0.0,0.0,
2025-08-15T06:03:17.439Z,4,GR86-012-8,2.8000000000000003,0.059,0.016,58.23,5.0,,0.0,0.0,204.31
2025-08-15T06:03:17.482Z,4,GR86-012-8,2.8000000000000003,0.046,0.019,52.28,5.0,,0.0,0.0,
2025-08-15T06:03:17.568Z,4,GR86-012-8,2.7,0.057,0.0,39.27,5.0,,0.0,0.0,
2025-08-15T06:03:17.611Z,4,GR86-012-8,2.0,0.001,0.004,35.97,5.0,6944.0,0.0,0.0,
2025-08-15T06:03:17.698Z,4,GR86-012-8,1.8,-0.005,-0.012,34.53,5.0,,0.0,0.0,204.69
2025-08-15T06:03:17.741Z,4,GR86-012-8,1.8,-0.034,-0.005,34.82,5.0,,0.0,0.0,
2025-08-15T06:03:17.784Z,4,GR86-012-8,1.8,-0.045,-0.011,34.35,5.0,,0.0,0.0,
2025-08-15T06:03:17.871Z,4,GR86-012-8,1.8,-0.027,-0.034,33.01,5.0,6935.0,0.0,0.0,205.01
2025-08-15T06:03:17.914Z,4,GR86-012-8,1.8,-0.045,-0.042,36.69,5.0,,0.0,0.0,
2025-08-15T06:03:17.958Z,4,GR86-012-8,1.8,-0.056,-0.06,37.09,5.0,,0.0,0.0,
2025-08-15T06:03:18.044Z,4,GR86-012-8,1.8,-0.015,-0.054,9.9,5.0,6929.0,0.0,0.0,
2025-08-15T06:03:18.131Z,4,GR86-012-8,1.8,-0.182,0.003,3.75,5.0,,0.0,0.0,205.01
2025-08-15T06:03:18.174Z,4,GR86-012-8,1.8,-0.192,-0.02,3.45,5.0,,0.0,0.0,
2025-08-15T06:03:18.260Z,4,GR86-012-8,1.8,-0.407,-0.024,3.22,5.0,6835.0,17.245,17.185,
2025-08-15T06:03:18.303Z,4,GR86-012-8,1.4,-0.781,0.001,2.96,5.0,,55.605,54.495000000000005,205.08
2025-08-15T06:03:18.348Z,4,GR86-012-8,1.2000000000000002,-1.21,0.018,2.86,5.0,,76.59,75.095,
2025-08-15T06:03:18.391Z,4,GR86-012-8,1.3,-1.281,0.005,16.05,5.0,,88.645,87.06,
2025-08-15T06:03:18.434Z,4,GR86-012-8,2.5,-1.38,-0.038,61.03,5.0,,97.97,96.84,
2025-08-15T06:03:18.478Z,4,GR86-012-8,2.6,-1.399,-0.036,98.65,5.0,6787.0,105.185,106.09,
2025-08-15T06:03:18.521Z,4,GR86-012-8,0.6000000000000001,-1.558,-0.03,100.18,5.0,,107.11,107.705,204.27
2025-08-15T06:03:18.564Z,4,GR86-012-8,-1.6,-1.43,-0.035,73.71000000000001,4.0,,107.23,107.11,
2025-08-15T06:03:18.608Z,4,GR86-012-8,-1.5,-1.441,0.026,3.83,4.0,,106.65,108.115,
2025-08-15T06:03:18.651Z,4,GR86-012-8,1.5,-1.408,-0.029,2.74,4.0,,105.34,106.09,
2025-08-15T06:03:18.739Z,4,GR86-012-8,1.3,-1.379,0.002,2.48,4.0,5841.0,103.785,105.34,182.85
2025-08-15T06:03:18.782Z,4,GR86-012-8,1.1,-1.305,-0.121,2.49,4.0,,104.56,106.12,
2025-08-15T06:03:18.825Z,4,GR86-012-8,1.1,-1.308,-0.188,2.45,4.0,,106.455,105.8,
2025-08-15T06:03:18.868Z,4,GR86-012-8,0.5,-1.29,-0.077,2.46,4.0,,110.71,112.33,
2025-08-15T06:03:18.954Z,4,GR86-012-8,0.0,-1.236,-0.162,2.45,4.0,6624.0,107.95,108.91,172.31
2025-08-15T06:03:18.998Z,4,GR86-012-8,-0.4,-1.321,-0.075,2.49,4.0,,113.885,115.09,
2025-08-15T06:03:19.041Z,4,GR86-012-8,-2.4000000000000004,-1.307,-0.186,2.47,4.0,,109.72,110.68,
2025-08-15T06:03:19.084Z,4,GR86-012-8,-2.9000000000000004,-1.316,-0.128,2.48,4.0,,109.595,109.965,
2025-08-15T06:03:19.171Z,4,GR86-012-8,-3.5,-1.524,-0.064,29.66,4.0,6169.0,112.525,114.055,163.74
2025-08-15T06:03:19.214Z,4,GR86-012-8,-5.800000000000001,-1.606,-0.14,6.74,3.0,,110.375,111.52,
2025-08-15T06:03:19.301Z,4,GR86-012-8,-6.300000000000001,-1.529,-0.145,3.74,3.0,,108.71,109.595,
2025-08-15T06:03:19.344Z,4,GR86-012-8,-6.300000000000001,-1.396,-0.005,4.36,3.0,6390.0,111.125,112.865,
2025-08-15T06:03:19.431Z,4,GR86-012-8,-9.8,-1.328,-0.209,3.19,3.0,,105.675,106.805,157.27
2025-08-15T06:03:19.518Z,4,GR86-012-8,-12.9,-1.135,-0.215,2.96,3.0,,101.89,102.075,
2025-08-15T06:03:19.561Z,4,GR86-012-8,-20.3,-1.211,-0.373,2.77,3.0,6574.0,102.105,102.075,
2025-08-15T06:03:19.648Z,4,GR86-012-8,-21.4,-1.137,-0.422,2.68,3.0,,93.835,94.795,145.62
2025-08-15T06:03:19.734Z,4,GR86-012-8,-23.8,-1.147,-0.557,2.5500000000000003,3.0,,79.4,80.74,
2025-08-15T06:03:19.778Z,4,GR86-012-8,-25.200000000000003,-1.098,-0.5630000000000001,2.52,3.0,6229.0,66.76,67.785,
2025-08-15T06:03:19.864Z,4,GR86-012-8,-27.4,-1.02,-0.5650000000000001,2.49,3.0,,63.405,64.03,139.93
2025-08-15T06:03:19.994Z,4,GR86-012-8,-33.0,-0.915,-0.672,2.49,3.0,5935.0,50.31,51.215,
2025-08-15T06:03:20.039Z,4,GR86-012-8,-36.1,-0.889,-0.873,2.49,3.0,,39.935,40.895,134.81
2025-08-15T06:03:20.082Z,4,GR86-012-8,-36.5,-0.8230000000000001,-0.791,2.49,3.0,,37.265,37.77,
2025-08-15T06:03:20.125Z,4,GR86-012-8,-36.5,-0.775,-0.916,2.49,3.0,,35.405,36.18,
2025-08-15T06:03:20.211Z,4,GR86-012-8,-37.7,-0.7030000000000001,-1.042,2.49,3.0,5701.0,24.525,25.515,
2025-08-15T06:03:20.254Z,4,GR86-012-8,-39.2,-0.55,-1.038,2.49,3.0,,18.585,19.245,129.0
2025-08-15T06:03:20.298Z,4,GR86-012-8,-39.3,-0.478,-1.108,2.48,3.0,,17.455000000000002,17.990000000000002,
2025-08-15T06:03:20.384Z,4,GR86-012-8,-39.3,-0.46,-1.103,2.49,3.0,,17.365000000000002,17.655,
2025-08-15T06:03:20.428Z,4,GR86-012-8,-38.8,-0.473,-1.173,2.48,3.0,5533.0,16.830000000000002,17.490000000000002,
2025-08-15T06:03:20.471Z,4,GR86-012-8,-39.5,-0.452,-1.17,2.48,3.0,,13.2,14.055,124.85
2025-08-15T06:03:20.514Z,4,GR86-012-8,-41.6,-0.418,-1.108,2.49,3.0,,7.555,8.18,
2025-08-15T06:03:20.558Z,4,GR86-012-8,-44.3,-0.367,-1.136,2.49,3.0,,2.105,2.67,
2025-08-15T06:03:20.644Z,4,GR86-012-8,-50.2,-0.207,-1.18,2.49,3.0,5395.0,0.0,0.0,
2025-08-15T06:03:20.731Z,4,GR86-012-8,-54.900000000000006,-0.202,-1.178,2.48,3.0,,0.0,0.0,121.29
2025-08-15T06:03:20.817Z,4,GR86-012-8,-60.400000000000006,-0.212,-1.186,20.11,3.0,,0.0,0.0,
2025-08-15T06:03:20.903Z,4,GR86-012-8,-62.400000000000006,-0.175,-1.276,25.03,3.0,5388.0,0.0,0.0,119.4
2025-08-15T06:03:20.948Z,4,GR86-012-8,-62.8,-0.151,-1.223,29.4,3.0,,0.0,0.0,
2025-08-15T06:03:20.991Z,4,GR86-012-8,-62.5,-0.152,-1.218,29.45,3.0,,0.0,0.0,
2025-08-15T06:03:21.034Z,4,GR86-012-8,-61.900000000000006,0.07,-1.204,29.52,3.0,,0.0,0.0,
2025-08-15T06:03:21.078Z,4,GR86-012-8,-61.6,0.091,-1.213,32.52,3.0,5404.0,0.0,0.0,
2025-08-15T06:03:21.164Z,4,GR86-012-8,-61.5,0.052,-1.24,32.910000000000004,3.0,,0.0,0.0,117.65
2025-08-15T06:03:21.208Z,4,GR86-012-8,-57.400000000000006,0.044,-1.216,46.52,3.0,,0.0,0.0,
2025-08-15T06:03:21.251Z,4,GR86-012-8,-56.5,0.057,-1.228,50.29,3.0,,0.0,0.0,
2025-08-15T06:03:21.294Z,4,GR86-012-8,-56.400000000000006,0.076,-1.214,54.41,3.0,5435.0,0.0,0.0,
2025-08-15T06:03:21.339Z,4,GR86-012-8,-56.400000000000006,0.119,-1.204,58.53,3.0,,0.0,0.0,116.81
2025-08-15T06:03:21.382Z,4,GR86-012-8,-56.400000000000006,0.109,-1.176,65.22,3.0,,0.0,0.0,
2025-08-15T06:03:21.425Z,4,GR86-012-8,-56.400000000000006,0.122,-1.197,70.2,3.0,,0.0,0.0,
2025-08-15T06:03:21.468Z,4,GR86-012-8,-56.0,0.113,-1.201,67.74,3.0,,0.0,0.0,
2025-08-15T06:03:21.554Z,4,GR86-012-8,-54.400000000000006,0.168,-1.102,71.32000000000001,3.0,5501.0,0.0,0.0,117.41
2025-08-15T06:03:21.598Z,4,GR86-012-8,-54.3,0.166,-1.027,84.15,3.0,,0.0,0.0,
2025-08-15T06:03:21.641Z,4,GR86-012-8,-54.2,0.084,-1.037,99.51,3.0,,0.0,0.0,
2025-08-15T06:03:21.684Z,4,GR86-012-8,-54.2,0.117,-1.153,100.08,3.0,,0.0,0.0,
2025-08-15T06:03:21.728Z,4,GR86-012-8,-54.2,0.144,-1.083,100.12,3.0,5580.0,0.0,0.0,
2025-08-15T06:03:21.771Z,4,GR86-012-8,-54.400000000000006,0.147,-1.054,100.12,3.0,,0.0,0.0,117.45
2025-08-15T06:03:21.814Z,4,GR86-012-8,-54.400000000000006,0.129,-1.026,100.13,3.0,,0.0,0.0,
2025-08-15T06:03:21.858Z,4,GR86-012-8,-53.8,0.132,-1.049,100.12,3.0,,0.0,0.0,
2025-08-15T06:03:21.901Z,4,GR86-012-8,-52.7,0.147,-1.135,100.13,3.0,,0.0,0.0,
2025-08-15T06:03:21.944Z,4,GR86-012-8,-51.7,0.149,-1.114,100.13,3.0,5631.0,0.0,0.0,
2025-08-15T06:03:21.988Z,4,GR86-012-8,-49.6,0.029,-0.974,100.12,3.0,,0.0,0.0,119.33
2025-08-15T06:03:22.031Z,4,GR86-012-8,-47.400000000000006,0.019,-1.052,100.12,3.0,,0.0,0.0,
2025-08-15T06:03:22.074Z,4,GR86-012-8,-44.3,-0.002,-1.026,100.1,3.0,,0.0,0.0,
2025-08-15T06:03:22.117Z,4,GR86-012-8,-40.7,-0.014,-1.0,100.12,3.0,,0.0,0.0,
2025-08-15T06:03:22.160Z,4,GR86-012-8,-38.1,0.018,-1.009,100.13,3.0,5705.0,0.0,0.0,
2025-08-15T06:03:22.203Z,4,GR86-012-8,-36.9,-0.01,-1.062,100.1,3.0,,0.0,0.0,120.66
2025-08-15T06:03:22.248Z,4,GR86-012-8,-39.7,0.221,-1.029,100.09,3.0,,0.0,0.0,
2025-08-15T06:03:22.291Z,4,GR86-012-8,-41.5,0.203,-1.291,100.11,3.0,,0.0,0.0,
2025-08-15T06:03:22.334Z,4,GR86-012-8,-41.7,0.278,-1.12,100.1,3.0,,0.0,0.0,
2025-08-15T06:03:22.378Z,4,GR86-012-8,-39.7,0.299,-1.181,100.07,3.0,5771.0,0.0,0.0,
2025-08-15T06:03:22.421Z,4,GR86-012-8,-36.3,0.484,-1.079,100.08,3.0,,0.0,0.0,121.69
2025-08-15T06:03:22.464Z,4,GR86-012-8,-32.7,0.068,-0.985,100.07,3.0,,0.0,0.0,
2025-08-15T06:03:22.508Z,4,GR86-012-8,-30.5,-0.089,-1.004,100.09,3.0,,0.0,0.0,
2025-08-15T06:03:22.551Z,4,GR86-012-8,-33.300000000000004,-0.033,-0.961,100.08,3.0,,0.0,0.0,
2025-08-15T06:03:22.594Z,4,GR86-012-8,-37.7,0.019,-0.996,100.08,3.0,5818.0,0.0,0.0,
2025-08-15T06:03:22.639Z,4,GR86-012-8,-40.0,0.12,-1.05,100.07,3.0,,0.0,0.0,122.51
2025-08-15T06:03:22.682Z,4,GR86-012-8,-39.900000000000006,0.133,-1.211,100.08,3.0,,0.0,0.0,
2025-08-15T06:03:22.725Z,4,GR86-012-8,-38.0,0.17,-1.09,100.07,3.0,,0.0,0.0,
2025-08-15T06:03:22.768Z,4,GR86-012-8,-33.5,0.137,-1.049,100.06,3.0,,0.0,0.0,
2025-08-15T06:03:22.811Z,4,GR86-012-8,-31.0,0.159,-1.037,100.08,3.0,5812.0,0.0,0.0,
2025-08-15T06:03:22.854Z,4,GR86-012-8,-30.3,0.157,-1.014,100.07,3.0,,0.0,0.0,123.51
2025-08-15T06:03:22.897Z,4,GR86-012-8,-30.3,0.167,-0.941,100.07,3.0,,0.0,0.0,
2025-08-15T06:03:22.941Z,4,GR86-012-8,-30.3,0.167,-0.891,100.07,3.0,,0.0,0.0,
2025-08-15T06:03:22.984Z,4,GR86-012-8,-30.3,0.153,-0.8230000000000001,100.05,3.0,,0.0,0.0,
2025-08-15T06:03:23.028Z,4,GR86-012-8,-30.3,0.166,-0.757,100.07,3.0,5837.0,0.0,0.0,
2025-08-15T06:03:23.071Z,4,GR86-012-8,-30.3,0.165,-0.733,100.08,3.0,,0.0,0.0,124.01
2025-08-15T06:03:23.114Z,4,GR86-012-8,-30.3,0.173,-0.712,100.05,3.0,,0.0,0.0,
2025-08-15T06:03:23.158Z,4,GR86-012-8,-30.5,0.16,-0.684,100.04,3.0,,0.0,0.0,
2025-08-15T06:03:23.201Z,4,GR86-012-8,-31.700000000000003,0.152,-0.6940000000000001,100.04,3.0,,0.0,0.0,
2025-08-15T06:03:23.244Z,4,GR86-012-8,-33.0,0.169,-0.679,100.03,3.0,5888.0,0.0,0.0,
2025-08-15T06:03:23.288Z,4,GR86-012-8,-33.2,0.167,-0.6950000000000001,100.03,3.0,,0.0,0.0,125.36
2025-08-15T06:03:23.331Z,4,GR86-012-8,-33.0,0.176,-0.713,100.0,3.0,,0.0,0.0,
2025-08-15T06:03:23.374Z,4,GR86-012-8,-33.0,0.159,-0.734,100.0,3.0,,0.0,0.0,
2025-08-15T06:03:23.417Z,4,GR86-012-8,-33.0,0.154,-0.753,100.0,3.0,,0.0,0.0,
2025-08-15T06:03:23.461Z,4,GR86-012-8,-33.0,0.171,-0.763,100.0,3.0,5956.0,0.0,0.0,
2025-08-15T06:03:23.504Z,4,GR86-012-8,-32.300000000000004,0.171,-0.762,100.0,3.0,,0.0,0.0,126.65
2025-08-15T06:03:23.548Z,4,GR86-012-8,-29.0,0.161,-0.77,99.99,3.0,,0.0,0.0,
2025-08-15T06:03:23.591Z,4,GR86-012-8,-26.8,0.156,-0.751,100.0,3.0,,0.0,0.0,
2025-08-15T06:03:23.634Z,4,GR86-012-8,-26.5,0.168,-0.757,100.0,3.0,,0.0,0.0,
2025-08-15T06:03:23.678Z,4,GR86-012-8,-28.0,0.189,-0.755,100.0,3.0,6019.0,0.0,0.0,
2025-08-15T06:03:23.721Z,4,GR86-012-8,-30.1,0.175,-0.776,100.01,3.0,,0.0,0.0,127.82
2025-08-15T06:03:23.764Z,4,GR86-012-8,-30.9,0.155,-0.784,100.02,3.0,,0.0,0.0,
2025-08-15T06:03:23.808Z,4,GR86-012-8,-30.0,0.149,-0.807,99.99,3.0,,0.0,0.0,
2025-08-15T06:03:23.851Z,4,GR86-012-8,-29.8,0.164,-0.799,100.0,3.0,,0.0,0.0,
2025-08-15T06:03:23.894Z,4,GR86-012-8,-30.8,0.172,-0.79,100.01,3.0,6077.0,0.0,0.0,
2025-08-15T06:03:23.940Z,4,GR86-012-8,-31.9,0.172,-0.766,100.0,3.0,,0.0,0.0,130.34
2025-08-15T06:03:23.983Z,4,GR86-012-8,-32.2,0.159,-0.745,100.01,3.0,,0.0,0.0,
2025-08-15T06:03:24.028Z,4,GR86-012-8,-30.3,0.152,-0.762,100.01,3.0,,0.0,0.0,
2025-08-15T06:03:24.114Z,4,GR86-012-8,-27.1,0.164,-0.763,100.0,3.0,6129.0,0.0,0.0,
2025-08-15T06:03:24.158Z,4,GR86-012-8,-20.6,0.18,-0.728,100.01,3.0,,0.0,0.0,131.6
2025-08-15T06:03:24.201Z,4,GR86-012-8,-19.9,0.155,-0.664,100.0,3.0,,0.0,0.0,
2025-08-15T06:03:24.244Z,4,GR86-012-8,-20.5,0.147,-0.632,100.0,3.0,,0.0,0.0,
2025-08-15T06:03:24.288Z,4,GR86-012-8,-24.3,0.169,-0.61,99.99,3.0,,0.0,0.0,
2025-08-15T06:03:24.331Z,4,GR86-012-8,-26.8,0.192,-0.672,100.02,3.0,6275.0,0.0,0.0,
2025-08-15T06:03:24.374Z,4,GR86-012-8,-27.8,0.159,-0.579,100.0,3.0,,0.0,0.0,132.86
2025-08-15T06:03:24.417Z,4,GR86-012-8,-27.1,0.122,-0.546,99.99,3.0,,0.0,0.0,
2025-08-15T06:03:24.460Z,4,GR86-012-8,-25.3,0.113,-0.635,100.0,3.0,,0.0,0.0,
2025-08-15T06:03:24.503Z,4,GR86-012-8,-23.3,0.191,-0.633,100.0,3.0,,0.0,0.0,
2025-08-15T06:03:24.548Z,4,GR86-012-8,-20.3,0.172,-0.577,100.01,3.0,6331.0,0.0,0.0,
2025-08-15T06:03:24.591Z,4,GR86-012-8,-19.700000000000003,0.171,-0.596,100.01,3.0,,0.0,0.0,134.12
2025-08-15T06:03:24.634Z,4,GR86-012-8,-19.8,0.201,-0.519,100.02,3.0,,0.0,0.0,
2025-08-15T06:03:24.678Z,4,GR86-012-8,-20.3,0.154,-0.409,99.97,3.0,,0.0,0.0,
2025-08-15T06:03:24.721Z,4,GR86-012-8,-19.4,0.116,-0.51,100.0,3.0,,0.0,0.0,
2025-08-15T06:03:24.764Z,4,GR86-012-8,-16.8,0.105,-0.466,100.0,3.0,6376.0,0.0,0.0,
2025-08-15T06:03:24.808Z,4,GR86-012-8,-12.3,0.178,-0.404,100.0,3.0,,0.0,0.0,135.32
2025-08-15T06:03:24.851Z,4,GR86-012-8,-10.8,0.226,-0.583,100.0,3.0,,0.0,0.0,
2025-08-15T06:03:24.894Z,4,GR86-012-8,-10.0,0.2,-0.339,100.02,3.0,,0.0,0.0,
2025-08-15T06:03:24.939Z,4,GR86-012-8,-8.4,0.156,-0.541,99.97,3.0,,0.0,0.0,
2025-08-15T06:03:24.982Z,4,GR86-012-8,-6.4,0.158,-0.438,100.01,3.0,6445.0,0.0,0.0,
2025-08-15T06:03:25.025Z,4,GR86-012-8,-4.6000000000000005,0.173,-0.429,100.0,3.0,,0.0,0.0,136.54
2025-08-15T06:03:25.068Z,4,GR86-012-8,-2.5,0.122,-0.293,100.0,3.0,,0.0,0.0,
2025-08-15T06:03:25.111Z,4,GR86-012-8,-2.0,0.187,-0.286,100.0,3.0,,0.0,0.0,
2025-08-15T06:03:25.154Z,4,GR86-012-8,-1.5,0.215,-0.127,100.01,3.0,,0.0,0.0,
2025-08-15T06:03:25.198Z,4,GR86-012-8,-1.0,0.139,-0.11,100.0,3.0,6500.0,0.0,0.0,
2025-08-15T06:03:25.241Z,4,GR86-012-8,-0.4,0.081,-0.081,99.99,3.0,,0.0,0.0,137.82
2025-08-15T06:03:25.284Z,4,GR86-012-8,0.2,0.139,-0.037,100.0,3.0,,0.0,0.0,
2025-08-15T06:03:25.328Z,4,GR86-012-8,0.8,0.241,-0.097,99.97,3.0,,0.0,0.0,
2025-08-15T06:03:25.371Z,4,GR86-012-8,0.4,0.235,0.041,100.01,3.0,,0.0,0.0,
2025-08-15T06:03:25.414Z,4,GR86-012-8,0.3,0.222,0.023,100.03,3.0,6601.0,0.0,0.0,
2025-08-15T06:03:25.457Z,4,GR86-012-8,1.0,0.122,-0.039,100.0,3.0,,0.0,0.0,139.15
2025-08-15T06:03:25.502Z,4,GR86-012-8,1.0,0.163,0.01,100.02,3.0,,0.0,0.0,
2025-08-15T06:03:25.545Z,4,GR86-012-8,1.1,0.217,0.011,99.98,3.0,,0.0,0.0,
2025-08-15T06:03:25.588Z,4,GR86-012-8,1.5,0.148,0.04,99.98,3.0,,0.0,0.0,
2025-08-15T06:03:25.631Z,4,GR86-012-8,1.6,0.179,0.043,99.99,3.0,6620.0,0.0,0.0,
2025-08-15T06:03:25.674Z,4,GR86-012-8,1.6,0.17,0.023,100.02,3.0,,0.0,0.0,140.55
2025-08-15T06:03:25.717Z,4,GR86-012-8,1.6,0.197,-0.027,99.97,3.0,,0.0,0.0,
2025-08-15T06:03:25.760Z,4,GR86-012-8,1.6,0.158,-0.011,100.0,3.0,,0.0,0.0,
2025-08-15T06:03:25.803Z,4,GR86-012-8,1.6,0.145,-0.016,100.0,3.0,,0.0,0.0,
2025-08-15T06:03:25.848Z,4,GR86-012-8,1.6,0.146,0.0,100.0,3.0,6668.0,0.0,0.0,
2025-08-15T06:03:25.891Z,4,GR86-012-8,1.6,0.187,0.018,100.0,3.0,,0.0,0.0,142.0
2025-08-15T06:03:25.934Z,4,GR86-012-8,1.8,0.203,0.01,99.98,3.0,,0.0,0.0,
2025-08-15T06:03:25.978Z,4,GR86-012-8,2.3000000000000003,0.177,-0.002,99.99,3.0,,0.0,0.0,
2025-08-15T06:03:26.021Z,4,GR86-012-8,2.4000000000000004,0.181,-0.045,100.01,3.0,,0.0,0.0,
2025-08-15T06:03:26.064Z,4,GR86-012-8,2.5,0.147,-0.016,100.01,3.0,6734.0,0.0,0.0,
2025-08-15T06:03:26.108Z,4,GR86-012-8,2.9000000000000004,0.157,-0.017,100.01,3.0,,0.0,0.0,143.42000000000002
2025-08-15T06:03:26.151Z,4,GR86-012-8,3.4000000000000004,0.163,-0.026,100.01,3.0,,0.0,0.0,
2025-08-15T06:03:26.194Z,4,GR86-012-8,3.6,0.168,-0.003,99.96,3.0,,0.0,0.0,
2025-08-15T06:03:26.239Z,4,GR86-012-8,3.6,0.181,0.0,99.96,3.0,,0.0,0.0,
2025-08-15T06:03:26.282Z,4,GR86-012-8,3.6,0.182,0.0,100.0,3.0,6791.0,0.0,0.0,
2025-08-15T06:03:26.325Z,4,GR86-012-8,3.8,0.161,0.006,100.02,3.0,,0.0,0.0,144.88
2025-08-15T06:03:26.368Z,4,GR86-012-8,3.9,0.193,0.006,99.97,3.0,,0.0,0.0,
2025-08-15T06:03:26.454Z,4,GR86-012-8,4.0,0.139,0.023,99.99,3.0,,0.0,0.0,
2025-08-15T06:03:26.497Z,4,GR86-012-8,4.3,0.153,0.023,99.98,3.0,6868.0,0.0,0.0,
2025-08-15T06:03:26.540Z,4,GR86-012-8,4.800000000000001,0.176,0.027,100.0,3.0,,0.0,0.0,147.84
2025-08-15T06:03:26.583Z,4,GR86-012-8,5.2,0.19,0.031,100.01,3.0,,0.0,0.0,
2025-08-15T06:03:26.628Z,4,GR86-012-8,5.2,0.158,0.034,99.97,3.0,,0.0,0.0,
2025-08-15T06:03:26.671Z,4,GR86-012-8,5.2,0.177,0.036,100.0,3.0,,0.0,0.0,
2025-08-15T06:03:26.714Z,4,GR86-012-8,5.2,0.182,0.039,99.98,3.0,6939.0,0.0,0.0,
2025-08-15T06:03:26.758Z,4,GR86-012-8,5.2,0.165,0.052,100.0,3.0,,0.0,0.0,149.33
2025-08-15T06:03:26.801Z,4,GR86-012-8,5.2,0.151,0.057,100.0,3.0,,0.0,0.0,
2025-08-15T06:03:26.844Z,4,GR86-012-8,5.2,0.145,0.062,99.98,3.0,,0.0,0.0,
2025-08-15T06:03:26.888Z,4,GR86-012-8,5.2,0.152,0.062,100.0,3.0,,0.0,0.0,
2025-08-15T06:03:26.931Z,4,GR86-012-8,5.2,0.123,0.075,100.0,3.0,7063.0,0.0,0.0,
2025-08-15T06:03:26.974Z,4,GR86-012-8,5.2,0.134,0.073,99.97,3.0,,0.0,0.0,150.82
2025-08-15T06:03:27.017Z,4,GR86-012-8,5.2,0.171,0.085,100.0,3.0,,0.0,0.0,
2025-08-15T06:03:27.061Z,4,GR86-012-8,5.2,0.192,0.081,99.96,3.0,,0.0,0.0,
2025-08-15T06:03:27.104Z,4,GR86-012-8,5.2,0.068,0.078,99.97,4.0,,0.0,0.0,
2025-08-15T06:03:27.148Z,4,GR86-012-8,5.2,0.376,0.107,100.0,4.0,6772.0,0.0,0.0,
2025-08-15T06:03:27.191Z,4,GR86-012-8,5.2,0.395,-0.019,99.97,4.0,,0.0,0.0,152.33
2025-08-15T06:03:27.234Z,4,GR86-012-8,4.7,0.187,0.136,99.97,4.0,,0.0,0.0,
2025-08-15T06:03:27.278Z,4,GR86-012-8,3.9,-0.039,0.087,100.01,4.0,,0.0,0.0,
2025-08-15T06:03:27.321Z,4,GR86-012-8,3.8,0.039,0.06,100.0,4.0,,0.0,0.0,
2025-08-15T06:03:27.364Z,4,GR86-012-8,3.8,0.199,0.107,99.99,4.0,6143.0,0.0,0.0,
2025-08-15T06:03:27.408Z,4,GR86-012-8,3.8,0.091,0.043,99.99,4.0,,0.0,0.0,153.92000000000002
2025-08-15T06:03:27.451Z,4,GR86-012-8,3.5,0.043,0.039,100.0,4.0,,0.0,0.0,
2025-08-15T06:03:27.494Z,4,GR86-012-8,3.3000000000000003,0.12,0.045,100.0,4.0,,0.0,0.0,
2025-08-15T06:03:27.540Z,4,GR86-012-8,3.3000000000000003,0.163,0.031,99.97,4.0,,0.0,0.0,
2025-08-15T06:03:27.583Z,4,GR86-012-8,3.3000000000000003,0.156,0.025,100.01,4.0,6148.0,0.0,0.0,
2025-08-15T06:03:27.628Z,4,GR86-012-8,3.3000000000000003,0.081,0.028,100.0,4.0,,0.0,0.0,155.47
2025-08-15T06:03:27.671Z,4,GR86-012-8,3.3000000000000003,0.135,0.022,100.0,4.0,,0.0,0.0,
2025-08-15T06:03:27.714Z,4,GR86-012-8,3.3000000000000003,0.16,0.008,100.01,4.0,,0.0,0.0,
2025-08-15T06:03:27.757Z,4,GR86-012-8,3.3000000000000003,0.154,-0.007,99.99,4.0,,0.0,0.0,
2025-08-15T06:03:27.801Z,4,GR86-012-8,3.3000000000000003,0.135,-0.003,99.97,4.0,6180.0,0.0,0.0,
2025-08-15T06:03:27.844Z,4,GR86-012-8,3.1,0.114,-0.002,100.0,4.0,,0.0,0.0,156.91
2025-08-15T06:03:27.888Z,4,GR86-012-8,3.0,0.152,0.001,100.0,4.0,,0.0,0.0,
2025-08-15T06:03:27.931Z,4,GR86-012-8,3.0,0.142,0.012,99.96,4.0,,0.0,0.0,
2025-08-15T06:03:27.974Z,4,GR86-012-8,3.0,0.105,0.009,100.01,4.0,,0.0,0.0,
2025-08-15T06:03:28.017Z,4,GR86-012-8,2.8000000000000003,0.106,0.003,100.0,4.0,6226.0,0.0,0.0,
2025-08-15T06:03:28.060Z,4,GR86-012-8,2.3000000000000003,0.106,-0.002,100.0,4.0,,0.0,0.0,158.37
2025-08-15T06:03:28.103Z,4,GR86-012-8,1.8,0.085,-0.013,100.01,4.0,,0.0,0.0,
2025-08-15T06:03:28.148Z,4,GR86-012-8,1.7000000000000002,0.089,-0.014,100.0,4.0,,0.0,0.0,
2025-08-15T06:03:28.191Z,4,GR86-012-8,1.7000000000000002,0.092,-0.028,100.0,4.0,,0.0,0.0,
2025-08-15T06:03:28.234Z,4,GR86-012-8,1.7000000000000002,0.108,-0.017,99.99,4.0,6271.0,0.0,0.0,
2025-08-15T06:03:28.278Z,4,GR86-012-8,1.7000000000000002,0.103,-0.015,100.0,4.0,,0.0,0.0,159.76
2025-08-15T06:03:28.321Z,4,GR86-012-8,1.6,0.104,-0.039,99.97,4.0,,0.0,0.0,
2025-08-15T06:03:28.364Z,4,GR86-012-8,0.9,0.133,-0.041,100.01,4.0,,0.0,0.0,
2025-08-15T06:03:28.408Z,4,GR86-012-8,-0.9,0.103,-0.044,100.01,4.0,,0.0,0.0,
2025-08-15T06:03:28.451Z,4,GR86-012-8,-1.8,0.097,-0.073,100.0,4.0,6335.0,0.0,0.0,
2025-08-15T06:03:28.494Z,4,GR86-012-8,-2.0,0.103,-0.105,100.01,4.0,,0.0,0.0,161.22
2025-08-15T06:03:28.539Z,4,GR86-012-8,-2.1,0.128,-0.127,99.97,4.0,,0.0,0.0,
2025-08-15T06:03:28.582Z,4,GR86-012-8,-2.1,0.139,-0.136,100.0,4.0,,0.0,0.0,
2025-08-15T06:03:28.625Z,4,GR86-012-8,-2.0,0.127,-0.162,99.97,4.0,,0.0,0.0,
2025-08-15T06:03:28.668Z,4,GR86-012-8,-2.1,0.108,-0.164,100.0,4.0,6390.0,0.0,0.0,
2025-08-15T06:03:28.711Z,4,GR86-012-8,-2.2,0.124,-0.166,100.0,4.0,,0.0,0.0,162.65
2025-08-15T06:03:28.754Z,4,GR86-012-8,-3.3000000000000003,0.129,-0.18,100.0,4.0,,0.0,0.0,
2025-08-15T06:03:28.798Z,4,GR86-012-8,-4.7,0.138,-0.191,99.99,4.0,,0.0,0.0,
2025-08-15T06:03:28.841Z,4,GR86-012-8,-5.800000000000001,0.128,-0.207,100.0,4.0,,0.0,0.0,
2025-08-15T06:03:28.884Z,4,GR86-012-8,-5.9,0.111,-0.226,99.96,4.0,6446.0,0.0,0.0,
2025-08-15T06:03:28.928Z,4,GR86-012-8,-5.9,0.121,-0.256,99.99,4.0,,0.0,0.0,165.42000000000002
2025-08-15T06:03:28.971Z,4,GR86-012-8,-5.9,0.124,-0.276,100.0,4.0,,0.0,0.0,
2025-08-15T06:03:29.014Z,4,GR86-012-8,-5.9,0.119,-0.295,100.0,4.0,,0.0,0.0,
2025-08-15T06:03:29.058Z,4,GR86-012-8,-5.9,0.114,-0.299,100.0,4.0,,0.0,0.0,
2025-08-15T06:03:29.101Z,4,GR86-012-8,-6.0,0.117,-0.303,99.97,4.0,6499.0,0.0,0.0,
2025-08-15T06:03:29.144Z,4,GR86-012-8,-6.1000000000000005,0.115,-0.3,100.0,4.0,,0.0,0.0,166.74
2025-08-15T06:03:29.188Z,4,GR86-012-8,-6.7,0.114,-0.293,100.01,4.0,,0.0,0.0,
2025-08-15T06:03:29.231Z,4,GR86-012-8,-7.9,0.121,-0.3,100.0,4.0,,0.0,0.0,
2025-08-15T06:03:29.274Z,4,GR86-012-8,-9.1,0.116,-0.327,100.01,4.0,,0.0,0.0,
2025-08-15T06:03:29.317Z,4,GR86-012-8,-9.4,0.119,-0.352,99.97,4.0,6548.0,0.0,0.0,
2025-08-15T06:03:29.360Z,4,GR86-012-8,-8.5,0.108,-0.37,99.99,4.0,,0.0,0.0,167.91
2025-08-15T06:03:29.403Z,4,GR86-012-8,-7.0,0.103,-0.382,100.0,4.0,,0.0,0.0,
2025-08-15T06:03:29.448Z,4,GR86-012-8,-6.2,0.106,-0.375,100.0,4.0,,0.0,0.0,
2025-08-15T06:03:29.491Z,4,GR86-012-8,-7.0,0.115,-0.378,99.97,4.0,,0.0,0.0,
2025-08-15T06:03:29.534Z,4,GR86-012-8,-9.0,0.112,-0.371,99.99,4.0,6647.0,0.0,0.0,
2025-08-15T06:03:29.578Z,4,GR86-012-8,-11.0,0.107,-0.389,100.0,4.0,,0.0,0.0,169.31
2025-08-15T06:03:29.621Z,4,GR86-012-8,-11.9,0.104,-0.407,99.97,4.0,,0.0,0.0,
2025-08-15T06:03:29.664Z,4,GR86-012-8,-11.9,0.089,-0.419,100.01,4.0,,0.0,0.0,
2025-08-15T06:03:29.708Z,4,GR86-012-8,-11.7,0.095,-0.413,91.66,4.0,,0.0,0.0,
2025-08-15T06:03:29.751Z,4,GR86-012-8,-10.8,0.096,-0.437,76.22,4.0,6695.0,0.0,0.0,
2025-08-15T06:03:29.794Z,4,GR86-012-8,-9.4,0.104,-0.448,70.84,4.0,,0.0,0.0,170.57
2025-08-15T06:03:29.839Z,4,GR86-012-8,-7.800000000000001,0.1,-0.467,70.55,4.0,,0.0,0.0,
2025-08-15T06:03:29.882Z,4,GR86-012-8,-7.300000000000001,0.103,-0.473,70.26,4.0,,0.0,0.0,
2025-08-15T06:03:29.925Z,4,GR86-012-8,-7.5,0.088,-0.468,69.25,4.0,,0.0,0.0,
2025-08-15T06:03:29.968Z,4,GR86-012-8,-7.300000000000001,0.073,-0.444,66.19,4.0,6751.0,0.0,0.0,
2025-08-15T06:03:30.011Z,4,GR86-012-8,-6.2,0.086,-0.426,63.33,4.0,,0.0,0.0,171.75
2025-08-15T06:03:30.054Z,4,GR86-012-8,-5.800000000000001,0.098,-0.391,61.05,4.0,,0.0,0.0,
2025-08-15T06:03:30.097Z,4,GR86-012-8,-6.5,0.098,-0.362,55.32,4.0,,0.0,0.0,
2025-08-15T06:03:30.141Z,4,GR86-012-8,-8.3,0.09,-0.338,40.44,4.0,,0.0,0.0,
2025-08-15T06:03:30.184Z,4,GR86-012-8,-9.5,0.092,-0.324,35.18,4.0,6774.0,0.0,0.0,
2025-08-15T06:03:30.228Z,4,GR86-012-8,-9.4,0.038,-0.324,32.21,4.0,,0.0,0.0,173.06
2025-08-15T06:03:30.271Z,4,GR86-012-8,-8.5,0.02,-0.335,18.94,4.0,,0.0,0.0,
2025-08-15T06:03:30.314Z,4,GR86-012-8,-7.5,0.013,-0.333,3.5700000000000003,4.0,,0.0,0.0,
2025-08-15T06:03:30.358Z,4,GR86-012-8,-6.300000000000001,-0.009,-0.338,3.46,4.0,,0.0,0.0,
2025-08-15T06:03:30.401Z,4,GR86-012-8,-4.7,-0.15,-0.312,3.29,4.0,6794.0,0.0,0.0,
2025-08-15T06:03:30.444Z,4,GR86-012-8,-2.9000000000000004,-0.161,-0.331,3.16,4.0,,0.0,0.0,174.01
2025-08-15T06:03:30.488Z,4,GR86-012-8,-0.7000000000000001,-0.337,-0.283,3.0,4.0,,0.0,0.0,
2025-08-15T06:03:30.531Z,4,GR86-012-8,1.0,-0.173,-0.282,2.87,4.0,,0.0,0.0,
2025-08-15T06:03:30.574Z,4,GR86-012-8,1.7000000000000002,-0.158,-0.272,2.77,4.0,,3.935,4.15,
2025-08-15T06:03:30.661Z,4,GR86-012-8,1.7000000000000002,-0.429,-0.175,2.6,4.0,6781.0,23.15,22.585,174.35
2025-08-15T06:03:30.704Z,4,GR86-012-8,1.7000000000000002,-0.577,-0.117,2.5500000000000003,4.0,,37.645,36.775,
2025-08-15T06:03:30.748Z,4,GR86-012-8,1.7000000000000002,-1.002,-0.036,2.52,4.0,,60.4,58.965,
2025-08-15T06:03:30.791Z,4,GR86-012-8,1.4,-1.218,0.021,10.0,4.0,,72.515,70.83500000000001,
2025-08-15T06:03:30.834Z,4,GR86-012-8,1.4,-1.384,0.03,55.93,4.0,6663.0,82.555,80.83,
2025-08-15T06:03:30.878Z,4,GR86-012-8,1.2000000000000002,-1.493,0.004,61.27,3.0,,90.995,90.86,173.32
2025-08-15T06:03:30.921Z,4,GR86-012-8,1.0,-1.61,-0.022,6.05,3.0,,98.335,99.89,
2025-08-15T06:03:30.964Z,4,GR86-012-8,0.7000000000000001,-1.702,0.014,3.72,3.0,,103.37,104.895,
2025-08-15T06:03:31.008Z,4,GR86-012-8,1.5,-1.451,-0.147,3.22,3.0,,101.355,101.145,
2025-08-15T06:03:31.051Z,4,GR86-012-8,2.0,-1.223,-0.019,3.06,3.0,6282.0,100.96,101.89,
2025-08-15T06:03:31.094Z,4,GR86-012-8,0.8,-1.246,-0.17,2.97,3.0,,100.335,100.03,166.32
2025-08-15T06:03:31.140Z,4,GR86-012-8,-1.3,-1.238,-0.16,2.9,3.0,,102.105,101.585,
2025-08-15T06:03:31.183Z,4,GR86-012-8,-1.6,-1.318,-0.101,2.81,3.0,,99.77,100.99,
2025-08-15T06:03:31.228Z,4,GR86-012-8,-0.1,-1.396,-0.122,2.68,3.0,,97.59,98.03,
2025-08-15T06:03:31.271Z,4,GR86-012-8,1.2000000000000002,-1.438,-0.055,2.59,3.0,6777.0,100.12,100.99,
2025-08-15T06:03:31.314Z,4,GR86-012-8,1.5,-1.19,-0.054,2.5500000000000003,3.0,,97.88,99.585,153.13
2025-08-15T06:03:31.357Z,4,GR86-012-8,1.4,-1.401,-0.08,2.52,3.0,,99.145,99.77,
2025-08-15T06:03:31.401Z,4,GR86-012-8,0.7000000000000001,-1.398,-0.04,2.52,3.0,,100.61,101.05,
2025-08-15T06:03:31.444Z,4,GR86-012-8,0.2,-1.273,-0.024,2.49,3.0,,94.52,95.71,
2025-08-15T06:03:31.531Z,4,GR86-012-8,0.1,-1.435,-0.068,2.5,3.0,6448.0,87.15,88.735,135.81
2025-08-15T06:03:31.574Z,4,GR86-012-8,0.1,-1.354,-0.12,2.48,3.0,,79.81,80.97,
2025-08-15T06:03:31.617Z,4,GR86-012-8,0.1,-1.362,-0.107,2.51,3.0,,73.935,73.995,
2025-08-15T06:03:31.660Z,4,GR86-012-8,0.1,-1.342,-0.126,2.51,3.0,,67.785,68.625,
2025-08-15T06:03:31.703Z,4,GR86-012-8,-0.2,-1.28,-0.153,29.63,3.0,5840.0,63.71,65.175,
2025-08-15T06:03:31.748Z,4,GR86-012-8,-2.3000000000000003,-1.301,-0.251,97.22,3.0,,59.620000000000005,59.985,127.68
2025-08-15T06:03:31.791Z,4,GR86-012-8,-4.800000000000001,-1.242,-0.193,94.63,2.0,,55.745000000000005,56.845,
2025-08-15T06:03:31.834Z,4,GR86-012-8,-5.800000000000001,-1.152,-0.381,26.11,2.0,,49.61,50.94,
2025-08-15T06:03:31.878Z,4,GR86-012-8,-5.800000000000001,-1.229,-0.252,3.39,2.0,,46.205,47.61,
2025-08-15T06:03:31.921Z,4,GR86-012-8,-6.2,-1.064,-0.304,2.89,2.0,5496.0,45.37,46.025,
2025-08-15T06:03:31.964Z,4,GR86-012-8,-7.300000000000001,-1.148,-0.588,2.73,2.0,,41.52,42.15,120.87
2025-08-15T06:03:32.008Z,4,GR86-012-8,-10.7,-0.994,-0.403,2.59,2.0,,37.98,38.93,
2025-08-15T06:03:32.051Z,4,GR86-012-8,-13.5,-0.886,-0.63,2.5500000000000003,2.0,,34.305,35.375,
2025-08-15T06:03:32.094Z,4,GR86-012-8,-17.8,-0.812,-0.538,2.52,2.0,,32.17,32.78,
2025-08-15T06:03:32.139Z,4,GR86-012-8,-22.5,-0.768,-0.646,2.51,2.0,6244.0,32.81,33.345,
2025-08-15T06:03:32.182Z,4,GR86-012-8,-25.6,-0.865,-0.621,2.51,2.0,,34.03,34.215,115.29
2025-08-15T06:03:32.225Z,4,GR86-012-8,-28.4,-0.93,-0.623,2.5,2.0,,34.49,34.78,
2025-08-15T06:03:32.268Z,4,GR86-012-8,-35.4,-0.887,-0.685,2.49,2.0,,34.96,35.31,
2025-08-15T06:03:32.311Z,4,GR86-012-8,-41.0,-0.834,-0.6930000000000001,2.49,2.0,,34.18,34.78,
2025-08-15T06:03:32.354Z,4,GR86-012-8,-44.5,-0.841,-0.778,2.49,2.0,5982.0,30.43,31.205,
2025-08-15T06:03:32.398Z,4,GR86-012-8,-45.1,-0.728,-0.863,2.48,2.0,,24.615,25.635,109.68
2025-08-15T06:03:32.441Z,4,GR86-012-8,-44.7,-0.673,-0.86,2.48,2.0,,19.395,20.385,
2025-08-15T06:03:32.484Z,4,GR86-012-8,-44.7,-0.643,-0.923,2.49,2.0,,15.395,16.28,
2025-08-15T06:03:32.528Z,4,GR86-012-8,-45.400000000000006,-0.464,-0.988,2.49,2.0,,9.72,10.47,
2025-08-15T06:03:32.571Z,4,GR86-012-8,-45.5,-0.402,-1.026,2.49,2.0,5756.0,7.08,7.705,
2025-08-15T06:03:32.614Z,4,GR86-012-8,-47.2,-0.334,-1.027,2.49,2.0,,3.905,4.565,105.17
2025-08-15T06:03:32.657Z,4,GR86-012-8,-50.8,-0.291,-1.032,2.49,2.0,,0.0,1.8,
2025-08-15T06:03:32.701Z,4,GR86-012-8,-54.7,-0.246,-1.083,2.49,2.0,,0.0,0.0,
2025-08-15T06:03:32.744Z,4,GR86-012-8,-57.5,-0.224,-1.088,2.49,2.0,,0.0,0.0,
2025-08-15T06:03:32.788Z,4,GR86-012-8,-60.900000000000006,-0.223,-1.133,2.5,2.0,5646.0,0.0,0.0,
2025-08-15T06:03:32.831Z,4,GR86-012-8,-64.10000000000001,-0.217,-1.138,2.49,2.0,,0.0,0.0,102.43
2025-08-15T06:03:32.874Z,4,GR86-012-8,-67.10000000000001,-0.223,-1.14,20.69,2.0,,0.0,0.0,
2025-08-15T06:03:32.917Z,4,GR86-012-8,-69.9,-0.228,-1.147,20.58,2.0,,0.0,0.0,
2025-08-15T06:03:32.960Z,4,GR86-012-8,-71.60000000000001,-0.221,-1.159,20.97,2.0,,0.0,0.0,
2025-08-15T06:03:33.003Z,4,GR86-012-8,-73.5,-0.172,-1.187,22.12,2.0,5578.0,0.0,0.0,
2025-08-15T06:03:33.048Z,4,GR86-012-8,-77.2,-0.145,-1.19,25.23,2.0,,0.0,0.0,100.87
2025-08-15T06:03:33.091Z,4,GR86-012-8,-78.30000000000001,-0.16,-1.206,25.67,2.0,,0.0,0.0,
2025-08-15T06:03:33.134Z,4,GR86-012-8,-78.60000000000001,-0.003,-1.24,25.64,2.0,,0.0,0.0,
2025-08-15T06:03:33.178Z,4,GR86-012-8,-78.60000000000001,0.064,-1.237,26.1,2.0,,0.0,0.0,
2025-08-15T06:03:33.221Z,4,GR86-012-8,-78.60000000000001,0.058,-1.235,27.19,2.0,5804.0,0.0,0.0,
2025-08-15T06:03:33.264Z,4,GR86-012-8,-78.60000000000001,0.038,-1.234,28.2,2.0,,0.0,0.0,99.79
2025-08-15T06:03:33.308Z,4,GR86-012-8,-78.60000000000001,-0.009,-1.286,31.38,2.0,,0.0,0.0,
2025-08-15T06:03:33.351Z,4,GR86-012-8,-78.60000000000001,0.015,-1.307,31.85,2.0,,0.0,0.0,
2025-08-15T06:03:33.394Z,4,GR86-012-8,-78.60000000000001,0.044,-1.3,32.0,2.0,,0.0,0.0,
2025-08-15T06:03:33.439Z,4,GR86-012-8,-78.5,0.068,-1.281,32.45,2.0,5698.0,0.0,0.0,
2025-08-15T06:03:33.482Z,4,GR86-012-8,-78.2,0.101,-1.235,34.07,2.0,,0.0,0.0,99.4
2025-08-15T06:03:33.525Z,4,GR86-012-8,-78.10000000000001,0.088,-1.203,35.800000000000004,2.0,,0.0,0.0,
2025-08-15T06:03:33.568Z,4,GR86-012-8,-78.0,0.082,-1.203,37.46,2.0,,0.0,0.0,
2025-08-15T06:03:33.611Z,4,GR86-012-8,-78.0,0.091,-1.153,37.56,2.0,,0.0,0.0,
2025-08-15T06:03:33.654Z,4,GR86-012-8,-78.0,0.1,-1.167,37.61,2.0,5752.0,0.0,0.0,
2025-08-15T06:03:33.697Z,4,GR86-012-8,-78.0,0.109,-1.141,37.24,2.0,,0.0,0.0,99.68
2025-08-15T06:03:33.741Z,4,GR86-012-8,-78.4,0.11,-1.138,35.85,2.0,,0.0,0.0,
2025-08-15T06:03:33.784Z,4,GR86-012-8,-78.80000000000001,0.106,-1.127,35.2,2.0,,0.0,0.0,
2025-08-15T06:03:33.828Z,4,GR86-012-8,-79.10000000000001,0.092,-1.134,34.82,2.0,,0.0,0.0,
2025-08-15T06:03:33.871Z,4,GR86-012-8,-79.10000000000001,0.07,-1.139,34.75,2.0,5806.0,0.0,0.0,
2025-08-15T06:03:33.914Z,4,GR86-012-8,-79.10000000000001,0.078,-1.111,35.0,2.0,,0.0,0.0,100.12
2025-08-15T06:03:33.957Z,4,GR86-012-8,-79.30000000000001,0.077,-1.147,35.660000000000004,2.0,,0.0,0.0,
2025-08-15T06:03:34.001Z,4,GR86-012-8,-79.60000000000001,0.092,-1.104,36.05,2.0,,0.0,0.0,
2025-08-15T06:03:34.044Z,4,GR86-012-8,-79.7,0.086,-1.121,36.39,2.0,,0.0,0.0,
2025-08-15T06:03:34.088Z,4,GR86-012-8,-79.7,0.079,-1.115,36.45,2.0,5840.0,0.0,0.0,
2025-08-15T06:03:34.131Z,4,GR86-012-8,-79.80000000000001,0.098,-1.1,35.86,2.0,,0.0,0.0,101.7
2025-08-15T06:03:34.174Z,4,GR86-012-8,-79.80000000000001,0.1,-1.128,35.46,2.0,,0.0,0.0,
2025-08-15T06:03:34.217Z,4,GR86-012-8,-79.80000000000001,0.079,-1.154,35.39,2.0,,0.0,0.0,
2025-08-15T06:03:34.261Z,4,GR86-012-8,-79.60000000000001,0.09,-1.097,35.46,2.0,,0.0,0.0,
2025-08-15T06:03:34.304Z,4,GR86-012-8,-79.10000000000001,0.084,-1.156,36.04,2.0,5900.0,0.0,0.0,
2025-08-15T06:03:34.348Z,4,GR86-012-8,-76.4,0.097,-1.165,39.02,2.0,,0.0,0.0,102.39
2025-08-15T06:03:34.391Z,4,GR86-012-8,-73.7,0.072,-1.212,47.71,2.0,,0.0,0.0,
2025-08-15T06:03:34.434Z,4,GR86-012-8,-67.7,0.091,-1.152,67.28,2.0,,0.0,0.0,
2025-08-15T06:03:34.478Z,4,GR86-012-8,-63.400000000000006,0.095,-1.274,98.16,2.0,,0.0,0.0,
2025-08-15T06:03:34.521Z,4,GR86-012-8,-56.6,0.086,-1.233,100.06,2.0,5945.0,0.0,0.0,
2025-08-15T06:03:34.564Z,4,GR86-012-8,-52.400000000000006,0.192,-1.201,100.09,2.0,,0.0,0.0,103.19
2025-08-15T06:03:34.608Z,4,GR86-012-8,-49.900000000000006,0.242,-1.167,100.1,2.0,,0.0,0.0,
2025-08-15T06:03:34.651Z,4,GR86-012-8,-50.8,0.216,-1.118,100.11,2.0,,0.0,0.0,
2025-08-15T06:03:34.694Z,4,GR86-012-8,-52.0,0.205,-1.07,100.11,2.0,,0.0,0.0,
2025-08-15T06:03:34.739Z,4,GR86-012-8,-53.6,0.183,-1.135,100.1,2.0,6108.0,0.0,0.0,
2025-08-15T06:03:34.782Z,4,GR86-012-8,-54.5,0.18,-1.125,100.09,2.0,,0.0,0.0,104.2
2025-08-15T06:03:34.825Z,4,GR86-012-8,-54.5,0.209,-1.151,100.09,2.0,,0.0,0.0,
2025-08-15T06:03:34.868Z,4,GR86-012-8,-53.8,0.22,-1.101,100.11,2.0,,0.0,0.0,
2025-08-15T06:03:34.911Z,4,GR86-012-8,-53.3,0.211,-1.084,100.11,2.0,,0.0,0.0,
2025-08-15T06:03:34.954Z,4,GR86-012-8,-52.5,0.219,-1.078,100.1,2.0,6174.0,0.0,0.0,
2025-08-15T06:03:34.998Z,4,GR86-012-8,-51.3,0.158,-1.075,100.09,2.0,,0.0,0.0,105.44
2025-08-15T06:03:35.041Z,4,GR86-012-8,-49.400000000000006,0.197,-1.125,100.09,2.0,,0.0,0.0,
2025-08-15T06:03:35.084Z,4,GR86-012-8,-49.2,0.205,-1.146,100.09,2.0,,0.0,0.0,
2025-08-15T06:03:35.128Z,4,GR86-012-8,-49.2,0.216,-1.143,100.11,2.0,,0.0,0.0,
2025-08-15T06:03:35.171Z,4,GR86-012-8,-49.2,0.199,-1.11,100.1,2.0,6235.0,0.0,0.0,
2025-08-15T06:03:35.214Z,4,GR86-012-8,-49.2,0.196,-1.106,100.09,2.0,,0.0,0.0,106.85
2025-08-15T06:03:35.258Z,4,GR86-012-8,-49.2,0.212,-1.02,100.12,2.0,,0.0,0.0,
2025-08-15T06:03:35.301Z,4,GR86-012-8,-49.0,0.223,-0.945,100.1,2.0,,0.0,0.0,
2025-08-15T06:03:35.344Z,4,GR86-012-8,-47.6,0.198,-0.963,100.09,2.0,,0.0,0.0,
2025-08-15T06:03:35.388Z,4,GR86-012-8,-45.8,0.177,-0.925,100.1,2.0,6292.0,0.0,0.0,
2025-08-15T06:03:35.431Z,4,GR86-012-8,-43.900000000000006,0.213,-0.944,100.1,2.0,,0.0,0.0,107.94
2025-08-15T06:03:35.474Z,4,GR86-012-8,-42.400000000000006,0.214,-0.892,100.09,2.0,,0.0,0.0,
2025-08-15T06:03:35.517Z,4,GR86-012-8,-40.7,0.211,-0.882,100.09,2.0,,0.0,0.0,
2025-08-15T06:03:35.603Z,4,GR86-012-8,-38.900000000000006,0.205,-0.895,100.08,2.0,6395.0,0.0,0.0,
2025-08-15T06:03:35.648Z,4,GR86-012-8,-35.300000000000004,0.217,-0.912,100.11,2.0,,0.0,0.0,109.28
2025-08-15T06:03:35.691Z,4,GR86-012-8,-34.7,0.242,-0.889,100.08,2.0,,0.0,0.0,
2025-08-15T06:03:35.734Z,4,GR86-012-8,-34.1,0.21,-0.894,100.08,2.0,,0.0,0.0,
2025-08-15T06:03:35.778Z,4,GR86-012-8,-34.1,0.201,-0.861,100.07,2.0,,0.0,0.0,
2025-08-15T06:03:35.821Z,4,GR86-012-8,-34.1,0.222,-0.851,100.1,2.0,6481.0,0.0,0.0,
2025-08-15T06:03:35.864Z,4,GR86-012-8,-33.800000000000004,0.215,-0.801,100.07,2.0,,0.0,0.0,110.85
2025-08-15T06:03:35.908Z,4,GR86-012-8,-32.9,0.213,-0.774,100.07,2.0,,0.0,0.0,
2025-08-15T06:03:35.951Z,4,GR86-012-8,-32.1,0.207,-0.764,100.08,2.0,,0.0,0.0,
2025-08-15T06:03:35.994Z,4,GR86-012-8,-31.3,0.205,-0.804,100.05,2.0,,0.0,0.0,
2025-08-15T06:03:36.039Z,4,GR86-012-8,-30.4,0.221,-0.784,100.07,2.0,6562.0,0.0,0.0,
2025-08-15T06:03:36.082Z,4,GR86-012-8,-29.9,0.23,-0.771,100.07,2.0,,0.0,0.0,112.68
2025-08-15T06:03:36.125Z,4,GR86-012-8,-29.3,0.217,-0.764,100.04,2.0,,0.0,0.0,
2025-08-15T06:03:36.168Z,4,GR86-012-8,-27.1,0.204,-0.764,100.05,2.0,,0.0,0.0,
2025-08-15T06:03:36.211Z,4,GR86-012-8,-25.3,0.201,-0.741,100.04,2.0,,0.0,0.0,
2025-08-15T06:03:36.254Z,4,GR86-012-8,-23.9,0.229,-0.758,100.06,2.0,6661.0,0.0,0.0,
2025-08-15T06:03:36.298Z,4,GR86-012-8,-23.0,0.226,-0.709,100.06,2.0,,0.0,0.0,114.4
2025-08-15T06:03:36.341Z,4,GR86-012-8,-22.3,0.224,-0.711,100.05,2.0,,0.0,0.0,
2025-08-15T06:03:36.384Z,4,GR86-012-8,-22.3,0.222,-0.684,100.05,2.0,,0.0,0.0,
2025-08-15T06:03:36.428Z,4,GR86-012-8,-22.3,0.222,-0.636,100.03,2.0,,0.0,0.0,
2025-08-15T06:03:36.471Z,4,GR86-012-8,-22.3,0.222,-0.59,100.03,2.0,6763.0,0.0,0.0,
2025-08-15T06:03:36.514Z,4,GR86-012-8,-22.3,0.22,-0.587,100.03,2.0,,0.0,0.0,116.05
2025-08-15T06:03:36.558Z,4,GR86-012-8,-22.3,0.212,-0.577,100.07,2.0,,0.0,0.0,
2025-08-15T06:03:36.601Z,4,GR86-012-8,-22.0,0.226,-0.554,100.05,2.0,,0.0,0.0,
2025-08-15T06:03:36.644Z,4,GR86-012-8,-20.8,0.227,-0.545,100.04,2.0,,0.0,0.0,
2025-08-15T06:03:36.731Z,4,GR86-012-8,-16.7,0.206,-0.549,100.03,2.0,6836.0,0.0,0.0,119.57
2025-08-15T06:03:36.774Z,4,GR86-012-8,-14.8,0.232,-0.533,100.04,2.0,,0.0,0.0,
2025-08-15T06:03:36.817Z,4,GR86-012-8,-12.7,0.238,-0.514,100.03,2.0,,0.0,0.0,
2025-08-15T06:03:36.860Z,4,GR86-012-8,-11.7,0.231,-0.46,100.03,2.0,,0.0,0.0,
2025-08-15T06:03:36.903Z,4,GR86-012-8,-11.5,0.232,-0.424,100.04,2.0,6933.0,0.0,0.0,
2025-08-15T06:03:36.948Z,4,GR86-012-8,-11.5,0.227,-0.381,100.04,2.0,,0.0,0.0,121.35
2025-08-15T06:03:36.991Z,4,GR86-012-8,-11.5,0.217,-0.363,100.04,2.0,,0.0,0.0,
2025-08-15T06:03:37.034Z,4,GR86-012-8,-11.5,0.221,-0.338,100.05,2.0,,0.0,0.0,
2025-08-15T06:03:37.078Z,4,GR86-012-8,-11.5,0.242,-0.334,100.02,2.0,,0.0,0.0,
2025-08-15T06:03:37.121Z,4,GR86-012-8,-11.5,0.219,-0.342,100.04,2.0,7032.0,0.0,0.0,
2025-08-15T06:03:37.164Z,4,GR86-012-8,-11.5,0.204,-0.332,100.0,2.0,,0.0,0.0,122.99
2025-08-15T06:03:37.208Z,4,GR86-012-8,-10.7,0.203,-0.36,100.04,2.0,,0.0,0.0,
2025-08-15T06:03:37.251Z,4,GR86-012-8,-8.8,0.228,-0.354,100.0,2.0,,0.0,0.0,
2025-08-15T06:03:37.294Z,4,GR86-012-8,-7.4,0.115,-0.361,100.0,3.0,,0.0,0.0,
2025-08-15T06:03:37.339Z,4,GR86-012-8,-7.1000000000000005,-0.15,-0.306,100.04,3.0,6854.0,0.0,0.0,
2025-08-15T06:03:37.382Z,4,GR86-012-8,-6.2,0.641,-0.283,100.04,3.0,,0.0,0.0,124.75
2025-08-15T06:03:37.425Z,4,GR86-012-8,-5.6000000000000005,0.357,-0.412,100.04,3.0,,0.0,0.0,
2025-08-15T06:03:37.468Z,4,GR86-012-8,-5.4,0.233,-0.249,100.02,3.0,,0.0,0.0,
2025-08-15T06:03:37.511Z,4,GR86-012-8,-5.4,-0.006,-0.282,100.01,3.0,,0.0,0.0,
2025-08-15T06:03:37.554Z,4,GR86-012-8,-5.4,0.076,-0.216,100.04,3.0,5825.0,0.0,0.0,
2025-08-15T06:03:37.597Z,4,GR86-012-8,-5.2,0.27,-0.23,100.03,3.0,,0.0,0.0,126.3
2025-08-15T06:03:37.641Z,4,GR86-012-8,-5.1000000000000005,0.293,-0.23,100.0,3.0,,0.0,0.0,
2025-08-15T06:03:37.684Z,4,GR86-012-8,-5.1000000000000005,0.166,-0.181,100.01,3.0,,0.0,0.0,
2025-08-15T06:03:37.728Z,4,GR86-012-8,-5.1000000000000005,0.113,-0.186,100.01,3.0,,0.0,0.0,
2025-08-15T06:03:37.771Z,4,GR86-012-8,-5.1000000000000005,0.194,-0.165,100.01,3.0,5976.0,0.0,0.0,
2025-08-15T06:03:37.814Z,4,GR86-012-8,-4.4,0.234,-0.184,100.02,3.0,,0.0,0.0,128.07
2025-08-15T06:03:37.858Z,4,GR86-012-8,-3.7,0.19,-0.206,100.03,3.0,,0.0,0.0,
2025-08-15T06:03:37.901Z,4,GR86-012-8,-3.5,0.154,-0.203,100.02,3.0,,0.0,0.0,
2025-08-15T06:03:37.944Z,4,GR86-012-8,-3.4000000000000004,0.178,-0.212,100.0,3.0,,0.0,0.0,
2025-08-15T06:03:38.031Z,4,GR86-012-8,-3.4000000000000004,0.193,-0.201,100.01,3.0,6065.0,0.0,0.0,129.55
2025-08-15T06:03:38.074Z,4,GR86-012-8,-3.4000000000000004,0.169,-0.18,100.0,3.0,,0.0,0.0,
2025-08-15T06:03:38.118Z,4,GR86-012-8,-3.4000000000000004,0.171,-0.142,100.0,3.0,,0.0,0.0,
2025-08-15T06:03:38.161Z,4,GR86-012-8,-3.4000000000000004,0.199,-0.135,100.01,3.0,,0.0,0.0,
2025-08-15T06:03:38.204Z,4,GR86-012-8,-3.1,0.198,-0.147,100.01,3.0,6135.0,0.0,0.0,
2025-08-15T06:03:38.248Z,4,GR86-012-8,-2.2,0.193,-0.142,100.01,3.0,,0.0,0.0,131.08
2025-08-15T06:03:38.291Z,4,GR86-012-8,-1.6,0.164,-0.15,100.01,3.0,,0.0,0.0,
2025-08-15T06:03:38.334Z,4,GR86-012-8,-1.2000000000000002,0.169,-0.143,100.0,3.0,,0.0,0.0,
2025-08-15T06:03:38.378Z,4,GR86-012-8,-0.8,0.197,-0.136,100.0,3.0,,0.0,0.0,
2025-08-15T06:03:38.421Z,4,GR86-012-8,-0.5,0.192,-0.121,100.01,3.0,6208.0,0.0,0.0,
2025-08-15T06:03:38.464Z,4,GR86-012-8,-0.3,0.169,-0.099,99.99,3.0,,0.0,0.0,132.4
2025-08-15T06:03:38.508Z,4,GR86-012-8,0.0,0.165,-0.085,100.01,3.0,,0.0,0.0,
2025-08-15T06:03:38.551Z,4,GR86-012-8,0.0,0.171,-0.071,100.0,3.0,,0.0,0.0,
2025-08-15T06:03:38.594Z,4,GR86-012-8,0.2,0.197,-0.075,100.0,3.0,,0.0,0.0,
2025-08-15T06:03:38.640Z,4,GR86-012-8,0.5,0.198,-0.069,100.01,3.0,6263.0,0.0,0.0,
2025-08-15T06:03:38.683Z,4,GR86-012-8,0.6000000000000001,0.168,-0.072,100.0,3.0,,0.0,0.0,133.8
2025-08-15T06:03:38.728Z,4,GR86-012-8,0.7000000000000001,0.175,-0.074,100.01,3.0,,0.0,0.0,
2025-08-15T06:03:38.771Z,4,GR86-012-8,0.7000000000000001,0.171,-0.06,100.0,3.0,,0.0,0.0,
2025-08-15T06:03:38.814Z,4,GR86-012-8,0.7000000000000001,0.197,-0.043,100.01,3.0,,0.0,0.0,
2025-08-15T06:03:38.858Z,4,GR86-012-8,0.9,0.195,-0.06,99.99,3.0,6320.0,0.0,0.0,
2025-08-15T06:03:38.901Z,4,GR86-012-8,0.9,0.173,-0.057,100.0,3.0,,0.0,0.0,135.17000000000002
2025-08-15T06:03:38.944Z,4,GR86-012-8,0.9,0.161,-0.045,100.0,3.0,,0.0,0.0,
2025-08-15T06:03:39.031Z,4,GR86-012-8,0.9,0.181,-0.048,100.0,3.0,,0.0,0.0,
2025-08-15T06:03:39.074Z,4,GR86-012-8,1.1,0.172,-0.046,100.01,3.0,6395.0,0.0,0.0,
2025-08-15T06:03:39.117Z,4,GR86-012-8,1.2000000000000002,0.196,-0.06,99.99,3.0,,0.0,0.0,136.52
2025-08-15T06:03:39.160Z,4,GR86-012-8,1.3,0.178,-0.057,100.01,3.0,,0.0,0.0,
2025-08-15T06:03:39.203Z,4,GR86-012-8,1.4,0.151,-0.044,100.0,3.0,,0.0,0.0,
2025-08-15T06:03:39.248Z,4,GR86-012-8,1.4,0.153,-0.041,100.01,3.0,,0.0,0.0,
2025-08-15T06:03:39.291Z,4,GR86-012-8,1.4,0.166,-0.032,99.98,3.0,6450.0,0.0,0.0,
2025-08-15T06:03:39.334Z,4,GR86-012-8,1.5,0.186,-0.031,100.01,3.0,,0.0,0.0,139.11
2025-08-15T06:03:39.378Z,4,GR86-012-8,1.6,0.184,-0.058,100.0,3.0,,0.0,0.0,
2025-08-15T06:03:39.421Z,4,GR86-012-8,1.6,0.16,-0.034,100.01,3.0,,0.0,0.0,
2025-08-15T06:03:39.464Z,4,GR86-012-8,1.6,0.152,-0.023,100.01,3.0,,0.0,0.0,
2025-08-15T06:03:39.508Z,4,GR86-012-8,1.6,0.18,-0.042,99.97,3.0,6517.0,0.0,0.0,
2025-08-15T06:03:39.551Z,4,GR86-012-8,1.6,0.164,-0.038,100.01,3.0,,0.0,0.0,140.38
2025-08-15T06:03:39.594Z,4,GR86-012-8,1.6,0.169,-0.061,100.02,3.0,,0.0,0.0,
2025-08-15T06:03:39.639Z,4,GR86-012-8,1.6,0.175,-0.062,100.0,3.0,,0.0,0.0,
2025-08-15T06:03:39.682Z,4,GR86-012-8,1.6,0.172,-0.053,100.02,3.0,,0.0,0.0,
2025-08-15T06:03:39.725Z,4,GR86-012-8,1.6,0.164,-0.028,99.97,3.0,6567.0,0.0,0.0,
2025-08-15T06:03:39.768Z,4,GR86-012-8,1.6,0.168,-0.034,99.99,3.0,,0.0,0.0,141.67000000000002
2025-08-15T06:03:39.811Z,4,GR86-012-8,1.7000000000000002,0.155,-0.024,99.99,3.0,,0.0,0.0,
2025-08-15T06:03:39.854Z,4,GR86-012-8,1.8,0.163,-0.039,100.0,3.0,,0.0,0.0,
2025-08-15T06:03:39.898Z,4,GR86-012-8,1.8,0.175,-0.051,99.98,3.0,,0.0,0.0,
2025-08-15T06:03:39.941Z,4,GR86-012-8,1.9,0.177,-0.055,99.99,3.0,6689.0,0.0,0.0,
2025-08-15T06:03:39.984Z,4,GR86-012-8,1.9,0.174,-0.035,100.0,3.0,,0.0,0.0,142.9
2025-08-15T06:03:40.028Z,4,GR86-012-8,1.9,0.174,-0.039,100.02,3.0,,0.0,0.0,
2025-08-15T06:03:40.071Z,4,GR86-012-8,2.0,0.151,-0.014,100.01,3.0,,0.0,0.0,
2025-08-15T06:03:40.114Z,4,GR86-012-8,2.0,0.162,-0.019,99.98,3.0,,0.0,0.0,
2025-08-15T06:03:40.157Z,4,GR86-012-8,2.1,0.174,-0.04,99.99,3.0,6747.0,0.0,0.0,
2025-08-15T06:03:40.201Z,4,GR86-012-8,2.1,0.178,-0.064,100.01,3.0,,0.0,0.0,144.20000000000002
2025-08-15T06:03:40.244Z,4,GR86-012-8,2.2,0.161,-0.034,100.01,3.0,,0.0,0.0,
2025-08-15T06:03:40.288Z,4,GR86-012-8,2.6,0.167,-0.052,100.0,3.0,,0.0,0.0,
2025-08-15T06:03:40.331Z,4,GR86-012-8,3.1,0.181,-0.049,100.0,3.0,,0.0,0.0,
2025-08-15T06:03:40.374Z,4,GR86-012-8,3.6,0.168,-0.032,99.98,3.0,6794.0,0.0,0.0,
2025-08-15T06:03:40.417Z,4,GR86-012-8,3.8,0.154,-0.023,99.97,3.0,,0.0,0.0,145.38
2025-08-15T06:03:40.460Z,4,GR86-012-8,3.8,0.157,-0.024,100.01,3.0,,0.0,0.0,
2025-08-15T06:03:40.503Z,4,GR86-012-8,3.8,0.17,-0.028,100.02,3.0,,0.0,0.0,
2025-08-15T06:03:40.548Z,4,GR86-012-8,3.8,0.167,0.003,99.97,3.0,,0.0,0.0,
2025-08-15T06:03:40.591Z,4,GR86-012-8,3.8,0.166,-0.002,100.01,3.0,6843.0,0.0,0.0,
2025-08-15T06:03:40.634Z,4,GR86-012-8,3.9,0.17,0.008,100.02,3.0,,0.0,0.0,146.54
2025-08-15T06:03:40.678Z,4,GR86-012-8,3.9,0.16,0.038,100.01,3.0,,0.0,0.0,
2025-08-15T06:03:40.721Z,4,GR86-012-8,3.8,0.159,0.043,100.0,3.0,,0.0,0.0,
2025-08-15T06:03:40.764Z,4,GR86-012-8,3.8,0.155,0.033,100.03,3.0,,0.0,0.0,
2025-08-15T06:03:40.808Z,4,GR86-012-8,3.8,0.163,0.052,99.97,3.0,6892.0,0.0,0.0,
2025-08-15T06:03:40.851Z,4,GR86-012-8,3.8,0.153,0.05,100.0,3.0,,0.0,0.0,147.67000000000002
2025-08-15T06:03:40.894Z,4,GR86-012-8,3.8,0.162,0.024,100.01,3.0,,0.0,0.0,
2025-08-15T06:03:40.939Z,4,GR86-012-8,3.8,0.168,0.005,99.99,3.0,,0.0,0.0,
2025-08-15T06:03:40.982Z,4,GR86-012-8,3.8,0.167,0.025,99.99,3.0,,0.0,0.0,
2025-08-15T06:03:41.025Z,4,GR86-012-8,3.8,0.162,0.054,100.03,3.0,6947.0,0.0,0.0,
2025-08-15T06:03:41.068Z,4,GR86-012-8,3.8,0.169,0.034,99.98,3.0,,0.0,0.0,148.82
2025-08-15T06:03:41.111Z,4,GR86-012-8,3.8,0.161,0.039,100.01,3.0,,0.0,0.0,
2025-08-15T06:03:41.154Z,4,GR86-012-8,3.8,0.157,0.079,99.98,3.0,,0.0,0.0,
2025-08-15T06:03:41.198Z,4,GR86-012-8,3.8,0.152,0.06,100.0,3.0,,0.0,0.0,
2025-08-15T06:03:41.241Z,4,GR86-012-8,3.8,0.155,0.042,100.0,3.0,6999.0,0.0,0.0,
2025-08-15T06:03:41.284Z,4,GR86-012-8,3.8,0.159,0.032,100.0,3.0,,0.0,0.0,149.97
2025-08-15T06:03:41.328Z,4,GR86-012-8,3.5,0.154,0.044,100.01,3.0,,0.0,0.0,
2025-08-15T06:03:41.371Z,4,GR86-012-8,3.3000000000000003,0.162,0.029,99.99,3.0,,0.0,0.0,
2025-08-15T06:03:41.414Z,4,GR86-012-8,3.1,0.154,0.038,100.0,3.0,,0.0,0.0,
2025-08-15T06:03:41.457Z,4,GR86-012-8,3.0,0.152,0.053,100.01,3.0,7060.0,0.0,0.0,
2025-08-15T06:03:41.501Z,4,GR86-012-8,3.0,0.14,0.062,100.02,3.0,,0.0,0.0,151.05
2025-08-15T06:03:41.544Z,4,GR86-012-8,3.0,0.157,0.049,100.01,3.0,,0.0,0.0,
2025-08-15T06:03:41.588Z,4,GR86-012-8,2.8000000000000003,0.155,0.048,99.98,3.0,,0.0,0.0,
2025-08-15T06:03:41.631Z,4,GR86-012-8,2.8000000000000003,0.152,0.061,99.99,3.0,,0.0,0.0,
2025-08-15T06:03:41.674Z,4,GR86-012-8,2.8000000000000003,0.158,0.046,100.01,3.0,7103.0,0.0,0.0,
2025-08-15T06:03:41.718Z,4,GR86-012-8,2.7,0.145,0.028,100.01,3.0,,0.0,0.0,152.12
2025-08-15T06:03:41.761Z,4,GR86-012-8,2.7,0.156,0.004,100.02,3.0,,0.0,0.0,
2025-08-15T06:03:41.804Z,4,GR86-012-8,2.6,0.155,0.019,100.0,3.0,,0.0,0.0,
2025-08-15T06:03:41.848Z,4,GR86-012-8,2.4000000000000004,0.151,0.013,100.01,3.0,,0.0,0.0,
2025-08-15T06:03:41.891Z,4,GR86-012-8,2.2,0.147,0.0,99.98,3.0,7153.0,0.0,0.0,
2025-08-15T06:03:41.934Z,4,GR86-012-8,2.2,0.145,0.015,99.99,3.0,,0.0,0.0,154.31
2025-08-15T06:03:41.978Z,4,GR86-012-8,2.2,0.152,0.022,100.01,3.0,,0.0,0.0,
2025-08-15T06:03:42.021Z,4,GR86-012-8,2.2,0.153,0.024,100.01,3.0,,0.0,0.0,
2025-08-15T06:03:42.064Z,4,GR86-012-8,2.2,0.143,0.026,100.0,3.0,,0.0,0.0,
2025-08-15T06:03:42.108Z,4,GR86-012-8,2.2,0.139,0.025,100.0,3.0,7200.0,0.0,0.0,
2025-08-15T06:03:42.151Z,4,GR86-012-8,2.2,0.145,0.026,99.97,3.0,,0.0,0.0,155.39
2025-08-15T06:03:42.194Z,4,GR86-012-8,2.2,0.07,0.03,99.99,4.0,,0.0,0.0,
2025-08-15T06:03:42.240Z,4,GR86-012-8,2.2,-0.135,0.04,100.0,4.0,,0.0,0.0,
2025-08-15T06:03:42.283Z,4,GR86-012-8,2.4000000000000004,0.586,-0.017,100.0,4.0,,0.0,0.0,
2025-08-15T06:03:42.328Z,4,GR86-012-8,1.7000000000000002,0.265,0.057,100.0,4.0,6179.0,0.0,0.0,
2025-08-15T06:03:42.371Z,4,GR86-012-8,1.1,-0.013,-0.003,99.96,4.0,,0.0,0.0,156.34
2025-08-15T06:03:42.414Z,4,GR86-012-8,1.0,0.022,-0.041,99.97,4.0,,0.0,0.0,
2025-08-15T06:03:42.458Z,4,GR86-012-8,1.0,0.174,-0.007,99.98,4.0,,0.0,0.0,
2025-08-15T06:03:42.501Z,4,GR86-012-8,0.4,0.182,-0.027,100.0,4.0,,0.0,0.0,
2025-08-15T06:03:42.544Z,4,GR86-012-8,-0.3,0.084,-0.031,99.99,4.0,6139.0,0.0,0.0,
2025-08-15T06:03:42.588Z,4,GR86-012-8,-0.5,0.109,-0.057,100.01,4.0,,0.0,0.0,157.53
2025-08-15T06:03:42.631Z,4,GR86-012-8,-0.5,0.15,-0.074,100.01,4.0,,0.0,0.0,
2025-08-15T06:03:42.674Z,4,GR86-012-8,-1.0,0.133,-0.058,100.02,4.0,,0.0,0.0,
2025-08-15T06:03:42.717Z,4,GR86-012-8,-1.3,0.094,-0.073,100.0,4.0,,0.0,0.0,
2025-08-15T06:03:42.760Z,4,GR86-012-8,-1.3,0.112,-0.088,100.01,4.0,6194.0,0.0,0.0,
2025-08-15T06:03:42.803Z,4,GR86-012-8,-1.3,0.147,-0.098,100.0,4.0,,0.0,0.0,158.44
2025-08-15T06:03:42.848Z,4,GR86-012-8,-1.3,0.113,-0.105,100.0,4.0,,0.0,0.0,
2025-08-15T06:03:42.891Z,4,GR86-012-8,-1.3,0.105,-0.09,100.01,4.0,,0.0,0.0,
2025-08-15T06:03:42.934Z,4,GR86-012-8,-1.3,0.129,-0.091,99.97,4.0,,0.0,0.0,
2025-08-15T06:03:42.978Z,4,GR86-012-8,-1.3,0.14,-0.108,100.01,4.0,6257.0,0.0,0.0,
2025-08-15T06:03:43.021Z,4,GR86-012-8,-1.3,0.132,-0.122,100.0,4.0,,0.0,0.0,159.32
2025-08-15T06:03:43.064Z,4,GR86-012-8,-1.3,0.124,-0.125,99.99,4.0,,0.0,0.0,
2025-08-15T06:03:43.108Z,4,GR86-012-8,-1.3,0.125,-0.115,100.01,4.0,,0.0,0.0,
2025-08-15T06:03:43.194Z,4,GR86-012-8,-1.3,0.129,-0.129,99.99,4.0,6292.0,0.0,0.0,
2025-08-15T06:03:43.239Z,4,GR86-012-8,-1.3,0.119,-0.128,99.97,4.0,,0.0,0.0,160.16
2025-08-15T06:03:43.282Z,4,GR86-012-8,-1.3,0.111,-0.126,100.0,4.0,,0.0,0.0,
2025-08-15T06:03:43.325Z,4,GR86-012-8,-1.3,0.1,-0.113,99.99,4.0,,0.0,0.0,
2025-08-15T06:03:43.368Z,4,GR86-012-8,-1.3,0.128,-0.12,100.01,4.0,,0.0,0.0,
2025-08-15T06:03:43.411Z,4,GR86-012-8,-1.3,0.12,-0.131,100.0,4.0,6323.0,0.0,0.0,
2025-08-15T06:03:43.454Z,4,GR86-012-8,-1.3,0.111,-0.139,100.01,4.0,,0.0,0.0,161.09
2025-08-15T06:03:43.498Z,4,GR86-012-8,-1.3,0.104,-0.119,100.01,4.0,,0.0,0.0,
2025-08-15T06:03:43.541Z,4,GR86-012-8,-1.3,0.099,-0.122,100.02,4.0,,0.0,0.0,
2025-08-15T06:03:43.584Z,4,GR86-012-8,-1.3,0.106,-0.119,99.97,4.0,,0.0,0.0,
2025-08-15T06:03:43.628Z,4,GR86-012-8,-1.3,0.112,-0.113,99.98,4.0,6361.0,0.0,0.0,
2025-08-15T06:03:43.671Z,4,GR86-012-8,-1.3,0.103,-0.119,99.98,4.0,,0.0,0.0,162.01
2025-08-15T06:03:43.714Z,4,GR86-012-8,-1.3,0.095,-0.103,100.01,4.0,,0.0,0.0,
2025-08-15T06:03:43.758Z,4,GR86-012-8,-1.3,0.098,-0.102,100.01,4.0,,0.0,0.0,
2025-08-15T06:03:43.801Z,4,GR86-012-8,-1.3,0.107,-0.104,100.0,4.0,,0.0,0.0,
2025-08-15T06:03:43.844Z,4,GR86-012-8,-1.3,0.112,-0.11,100.01,4.0,6394.0,0.0,0.0,
2025-08-15T06:03:43.888Z,4,GR86-012-8,-1.3,0.101,-0.124,100.01,4.0,,0.0,0.0,162.96
2025-08-15T06:03:43.931Z,4,GR86-012-8,-1.3,0.095,-0.107,99.98,4.0,,0.0,0.0,
2025-08-15T06:03:43.974Z,4,GR86-012-8,-1.3,0.096,-0.106,100.01,4.0,,0.0,0.0,
2025-08-15T06:03:44.017Z,4,GR86-012-8,-1.3,0.106,-0.098,100.0,4.0,,0.0,0.0,
2025-08-15T06:03:44.060Z,4,GR86-012-8,-1.3,0.115,-0.101,100.0,4.0,6438.0,0.0,0.0,
2025-08-15T06:03:44.103Z,4,GR86-012-8,-1.3,0.124,-0.113,100.01,4.0,,0.0,0.0,163.9
2025-08-15T06:03:44.148Z,4,GR86-012-8,-1.4,0.086,-0.107,100.01,4.0,,0.0,0.0,
2025-08-15T06:03:44.191Z,4,GR86-012-8,-1.5,0.098,-0.101,99.98,4.0,,0.0,0.0,
2025-08-15T06:03:44.234Z,4,GR86-012-8,-1.5,0.109,-0.106,100.01,4.0,,0.0,0.0,
2025-08-15T06:03:44.278Z,4,GR86-012-8,-1.5,0.114,-0.119,100.01,4.0,6465.0,0.0,0.0,
2025-08-15T06:03:44.321Z,4,GR86-012-8,-1.5,0.121,-0.128,100.0,4.0,,0.0,0.0,164.85
2025-08-15T06:03:44.364Z,4,GR86-012-8,-1.5,0.124,-0.136,100.0,4.0,,0.0,0.0,
2025-08-15T06:03:44.408Z,4,GR86-012-8,-1.5,0.101,-0.142,100.0,4.0,,0.0,0.0,
2025-08-15T06:03:44.451Z,4,GR86-012-8,-1.5,0.1,-0.142,100.02,4.0,,0.0,0.0,
2025-08-15T06:03:44.494Z,4,GR86-012-8,-1.7000000000000002,0.104,-0.157,100.01,4.0,6504.0,0.0,0.0,
2025-08-15T06:03:44.539Z,4,GR86-012-8,-2.0,0.111,-0.146,100.01,4.0,,0.0,0.0,166.73
2025-08-15T06:03:44.582Z,4,GR86-012-8,-2.0,0.125,-0.151,99.97,4.0,,0.0,0.0,
2025-08-15T06:03:44.625Z,4,GR86-012-8,-2.0,0.123,-0.145,100.01,4.0,,0.0,0.0,
2025-08-15T06:03:44.668Z,4,GR86-012-8,-2.0,0.103,-0.134,100.01,4.0,,0.0,0.0,
2025-08-15T06:03:44.711Z,4,GR86-012-8,-2.0,0.103,-0.136,100.01,4.0,6547.0,0.0,0.0,
2025-08-15T06:03:44.754Z,4,GR86-012-8,-2.0,0.103,-0.135,100.0,4.0,,0.0,0.0,167.69
2025-08-15T06:03:44.798Z,4,GR86-012-8,-2.0,0.115,-0.132,99.98,4.0,,0.0,0.0,
2025-08-15T06:03:44.841Z,4,GR86-012-8,-2.0,0.119,-0.146,99.99,4.0,,0.0,0.0,
2025-08-15T06:03:44.884Z,4,GR86-012-8,-2.0,0.13,-0.162,100.01,4.0,,0.0,0.0,
2025-08-15T06:03:44.928Z,4,GR86-012-8,-2.0,0.092,-0.142,100.0,4.0,6616.0,0.0,0.0,
2025-08-15T06:03:44.971Z,4,GR86-012-8,-2.0,0.089,-0.127,100.01,4.0,,0.0,0.0,168.64
2025-08-15T06:03:45.014Z,4,GR86-012-8,-2.0,0.105,-0.124,100.01,4.0,,0.0,0.0,
2025-08-15T06:03:45.058Z,4,GR86-012-8,-2.0,0.104,-0.143,100.01,4.0,,0.0,0.0,
2025-08-15T06:03:45.101Z,4,GR86-012-8,-2.0,0.112,-0.151,100.01,4.0,,0.0,0.0,
2025-08-15T06:03:45.144Z,4,GR86-012-8,-2.0,0.12,-0.134,100.02,4.0,6654.0,0.0,0.0,
2025-08-15T06:03:45.188Z,4,GR86-012-8,-2.0,0.088,-0.115,100.01,4.0,,0.0,0.0,169.64
2025-08-15T06:03:45.231Z,4,GR86-012-8,-2.0,0.092,-0.126,100.01,4.0,,0.0,0.0,
2025-08-15T06:03:45.274Z,4,GR86-012-8,-2.0,0.094,-0.132,100.01,4.0,,0.0,0.0,
2025-08-15T06:03:45.317Z,4,GR86-012-8,-2.0,0.103,-0.147,100.02,4.0,,0.0,0.0,
2025-08-15T06:03:45.361Z,4,GR86-012-8,-2.0,0.106,-0.15,100.01,4.0,6690.0,0.0,0.0,
2025-08-15T06:03:45.404Z,4,GR86-012-8,-2.0,0.112,-0.149,99.97,4.0,,0.0,0.0,170.54
2025-08-15T06:03:45.448Z,4,GR86-012-8,-2.0,0.09,-0.157,100.02,4.0,,0.0,0.0,
2025-08-15T06:03:45.491Z,4,GR86-012-8,-1.9,0.094,-0.155,100.0,4.0,,0.0,0.0,
2025-08-15T06:03:45.534Z,4,GR86-012-8,-1.7000000000000002,0.08,-0.16,100.01,4.0,,0.0,0.0,
2025-08-15T06:03:45.578Z,4,GR86-012-8,-1.5,0.08,-0.166,100.0,4.0,6724.0,0.0,0.0,
2025-08-15T06:03:45.621Z,4,GR86-012-8,-1.4,0.089,-0.156,100.01,4.0,,0.0,0.0,171.39
2025-08-15T06:03:45.664Z,4,GR86-012-8,-1.3,0.103,-0.16,99.98,4.0,,0.0,0.0,
2025-08-15T06:03:45.708Z,4,GR86-012-8,-1.0,0.093,-0.123,99.96,4.0,,0.0,0.0,
2025-08-15T06:03:45.751Z,4,GR86-012-8,-0.7000000000000001,0.097,-0.115,100.01,4.0,,0.0,0.0,
2025-08-15T06:03:45.794Z,4,GR86-012-8,-0.6000000000000001,0.09,-0.109,100.02,4.0,6762.0,0.0,0.0,
2025-08-15T06:03:45.840Z,4,GR86-012-8,-0.6000000000000001,0.096,-0.108,100.01,4.0,,0.0,0.0,172.32
2025-08-15T06:03:45.883Z,4,GR86-012-8,-0.6000000000000001,0.083,-0.107,100.01,4.0,,0.0,0.0,
2025-08-15T06:03:45.928Z,4,GR86-012-8,-0.6000000000000001,0.11,-0.11,100.02,4.0,,0.0,0.0,
2025-08-15T06:03:45.971Z,4,GR86-012-8,-0.6000000000000001,0.118,-0.118,99.97,4.0,,0.0,0.0,
2025-08-15T06:03:46.014Z,4,GR86-012-8,-0.6000000000000001,0.109,-0.113,99.98,4.0,6796.0,0.0,0.0,
2025-08-15T06:03:46.058Z,4,GR86-012-8,-0.6000000000000001,0.11,-0.105,100.01,4.0,,0.0,0.0,173.28
2025-08-15T06:03:46.101Z,4,GR86-012-8,-0.6000000000000001,0.102,-0.087,100.02,4.0,,0.0,0.0,
2025-08-15T06:03:46.144Z,4,GR86-012-8,-0.6000000000000001,0.101,-0.082,100.0,4.0,,0.0,0.0,
2025-08-15T06:03:46.188Z,4,GR86-012-8,-0.6000000000000001,0.106,-0.104,100.0,4.0,,0.0,0.0,
2025-08-15T06:03:46.231Z,4,GR86-012-8,-0.6000000000000001,0.097,-0.107,100.0,4.0,6826.0,0.0,0.0,
2025-08-15T06:03:46.274Z,4,GR86-012-8,-0.6000000000000001,0.106,-0.109,100.01,4.0,,0.0,0.0,174.22
2025-08-15T06:03:46.317Z,4,GR86-012-8,-0.6000000000000001,0.111,-0.125,100.01,4.0,,0.0,0.0,
2025-08-15T06:03:46.360Z,4,GR86-012-8,-0.6000000000000001,0.105,-0.112,100.01,4.0,,0.0,0.0,
2025-08-15T06:03:46.403Z,4,GR86-012-8,-0.6000000000000001,0.115,-0.132,99.97,4.0,,0.0,0.0,
2025-08-15T06:03:46.448Z,4,GR86-012-8,-0.6000000000000001,0.083,-0.115,100.0,4.0,6865.0,0.0,0.0,
2025-08-15T06:03:46.491Z,4,GR86-012-8,-0.7000000000000001,0.086,-0.12,100.02,4.0,,0.0,0.0,175.0
2025-08-15T06:03:46.534Z,4,GR86-012-8,-0.8,0.087,-0.12,100.0,4.0,,0.0,0.0,
2025-08-15T06:03:46.578Z,4,GR86-012-8,-0.8,0.084,-0.094,100.0,4.0,,0.0,0.0,
2025-08-15T06:03:46.621Z,4,GR86-012-8,-0.8,0.093,-0.105,100.01,4.0,,0.0,0.0,
2025-08-15T06:03:46.664Z,4,GR86-012-8,-0.8,0.092,-0.111,99.99,4.0,6903.0,0.0,0.0,
2025-08-15T06:03:46.708Z,4,GR86-012-8,-0.8,0.104,-0.107,100.0,4.0,,0.0,0.0,175.83
2025-08-15T06:03:46.751Z,4,GR86-012-8,-0.9,0.092,-0.083,100.02,4.0,,0.0,0.0,
2025-08-15T06:03:46.794Z,4,GR86-012-8,-1.0,0.085,-0.082,100.02,4.0,,0.0,0.0,
2025-08-15T06:03:46.839Z,4,GR86-012-8,-1.1,0.092,-0.073,100.0,4.0,,0.0,0.0,
2025-08-15T06:03:46.882Z,4,GR86-012-8,-1.1,0.08,-0.074,100.0,4.0,6926.0,0.0,0.0,
2025-08-15T06:03:46.925Z,4,GR86-012-8,-1.1,0.079,-0.087,99.99,4.0,,0.0,0.0,176.8
2025-08-15T06:03:46.968Z,4,GR86-012-8,-1.1,0.095,-0.118,99.98,4.0,,0.0,0.0,
2025-08-15T06:03:47.011Z,4,GR86-012-8,-1.1,0.105,-0.123,100.01,4.0,,0.0,0.0,
2025-08-15T06:03:47.054Z,4,GR86-012-8,-1.1,0.103,-0.133,99.99,4.0,,0.0,0.0,
2025-08-15T06:03:47.098Z,4,GR86-012-8,-1.1,0.104,-0.112,100.01,4.0,6963.0,0.0,0.0,
2025-08-15T06:03:47.141Z,4,GR86-012-8,-1.1,0.097,-0.124,100.02,4.0,,0.0,0.0,178.47
2025-08-15T06:03:47.184Z,4,GR86-012-8,-1.1,0.094,-0.139,100.0,4.0,,0.0,0.0,
2025-08-15T06:03:47.228Z,4,GR86-012-8,-1.1,0.079,-0.123,100.01,4.0,,0.0,0.0,
2025-08-15T06:03:47.271Z,4,GR86-012-8,-1.1,0.076,-0.104,100.01,4.0,,0.0,0.0,
2025-08-15T06:03:47.314Z,4,GR86-012-8,-1.1,0.085,-0.124,100.01,4.0,6995.0,0.0,0.0,
2025-08-15T06:03:47.358Z,4,GR86-012-8,-1.1,0.086,-0.138,99.97,4.0,,0.0,0.0,179.27
2025-08-15T06:03:47.401Z,4,GR86-012-8,-1.1,-0.113,-0.104,99.98,5.0,,0.0,0.0,
2025-08-15T06:03:47.444Z,4,GR86-012-8,-1.0,0.161,-0.071,100.0,5.0,,0.0,0.0,
2025-08-15T06:03:47.488Z,4,GR86-012-8,-0.9,0.119,-0.192,100.0,5.0,,0.0,0.0,
2025-08-15T06:03:47.531Z,4,GR86-012-8,-1.4,-0.077,-0.08,100.01,5.0,5953.0,0.0,0.0,
2025-08-15T06:03:47.574Z,4,GR86-012-8,-1.4,0.022,-0.137,99.98,5.0,,0.0,0.0,180.03
2025-08-15T06:03:47.617Z,4,GR86-012-8,-1.4,0.181,-0.129,100.0,5.0,,0.0,0.0,
2025-08-15T06:03:47.660Z,4,GR86-012-8,-1.4,0.083,-0.098,100.01,5.0,,0.0,0.0,
2025-08-15T06:03:47.703Z,4,GR86-012-8,-1.4,0.0,-0.126,100.0,5.0,,0.0,0.0,
2025-08-15T06:03:47.748Z,4,GR86-012-8,-1.4,0.109,-0.107,99.99,5.0,6156.0,0.0,0.0,
2025-08-15T06:03:47.791Z,4,GR86-012-8,-1.4,0.088,-0.106,99.97,5.0,,0.0,0.0,180.84
2025-08-15T06:03:47.834Z,4,GR86-012-8,-1.4,0.048,-0.105,99.97,5.0,,0.0,0.0,
2025-08-15T06:03:47.921Z,4,GR86-012-8,-1.4,0.069,-0.111,100.01,5.0,,0.0,0.0,
2025-08-15T06:03:47.964Z,4,GR86-012-8,-1.4,0.087,-0.105,100.0,5.0,6179.0,0.0,0.0,
2025-08-15T06:03:48.008Z,4,GR86-012-8,-1.4,0.059,-0.12,100.0,5.0,,0.0,0.0,181.56
2025-08-15T06:03:48.051Z,4,GR86-012-8,-1.5,0.072,-0.133,100.01,5.0,,0.0,0.0,
2025-08-15T06:03:48.094Z,4,GR86-012-8,-1.4,0.074,-0.137,100.0,5.0,,0.0,0.0,
2025-08-15T06:03:48.139Z,4,GR86-012-8,-1.4,0.054,-0.129,100.0,5.0,,0.0,0.0,
2025-08-15T06:03:48.182Z,4,GR86-012-8,-1.4,0.069,-0.121,100.01,5.0,6183.0,0.0,0.0,
2025-08-15T06:03:48.225Z,4,GR86-012-8,-1.4,0.071,-0.131,100.0,5.0,,0.0,0.0,182.19
2025-08-15T06:03:48.268Z,4,GR86-012-8,-1.4,0.078,-0.144,99.98,5.0,,0.0,0.0,
2025-08-15T06:03:48.311Z,4,GR86-012-8,-1.3,0.071,-0.131,100.0,5.0,,0.0,0.0,
2025-08-15T06:03:48.354Z,4,GR86-012-8,-1.2000000000000002,0.083,-0.125,100.0,5.0,,0.0,0.0,
2025-08-15T06:03:48.397Z,4,GR86-012-8,-1.1,0.073,-0.123,100.0,5.0,6210.0,0.0,0.0,
2025-08-15T06:03:48.484Z,4,GR86-012-8,-1.0,0.071,-0.129,100.0,5.0,,0.0,0.0,
2025-08-15T06:03:48.571Z,4,GR86-012-8,-0.8,0.073,-0.123,100.01,5.0,,0.0,0.0,182.79
2025-08-15T06:03:48.614Z,4,GR86-012-8,-0.6000000000000001,0.066,-0.097,100.01,5.0,6240.0,0.0,0.0,
2025-08-15T06:03:48.658Z,4,GR86-012-8,-0.5,0.076,-0.076,100.0,5.0,,0.0,0.0,183.59
2025-08-15T06:03:48.744Z,4,GR86-012-8,-0.3,0.067,-0.066,100.01,5.0,,0.0,0.0,
2025-08-15T06:03:48.788Z,4,GR86-012-8,-0.2,0.06,-0.087,100.01,5.0,,0.0,0.0,
2025-08-15T06:03:48.831Z,4,GR86-012-8,0.1,0.062,-0.098,100.0,5.0,6263.0,0.0,0.0,
2025-08-15T06:03:48.874Z,4,GR86-012-8,0.5,0.051,-0.088,99.96,5.0,,0.0,0.0,184.27
2025-08-15T06:03:48.917Z,4,GR86-012-8,1.0,0.053,-0.076,100.01,5.0,,0.0,0.0,
2025-08-15T06:03:48.961Z,4,GR86-012-8,1.4,0.054,-0.066,99.99,5.0,,0.0,0.0,
2025-08-15T06:03:49.004Z,4,GR86-012-8,1.5,0.052,-0.057,100.0,5.0,,0.0,0.0,
2025-08-15T06:03:49.048Z,4,GR86-012-8,1.6,0.083,-0.049,100.0,5.0,6280.0,0.0,0.0,
2025-08-15T06:03:49.091Z,4,GR86-012-8,1.6,0.081,-0.035,100.0,5.0,,0.0,0.0,184.84
2025-08-15T06:03:49.134Z,4,GR86-012-8,1.6,0.086,-0.035,100.0,5.0,,0.0,0.0,
2025-08-15T06:03:49.178Z,4,GR86-012-8,1.6,0.082,-0.027,99.99,5.0,,0.0,0.0,
2025-08-15T06:03:49.221Z,4,GR86-012-8,1.6,0.086,-0.021,100.0,5.0,,0.0,0.0,
2025-08-15T06:03:49.264Z,4,GR86-012-8,1.6,0.084,-0.027,99.99,5.0,6298.0,0.0,0.0,
2025-08-15T06:03:49.308Z,4,GR86-012-8,1.6,0.039,-0.027,100.01,5.0,,0.0,0.0,185.52
2025-08-15T06:03:49.351Z,4,GR86-012-8,1.6,0.038,-0.014,100.01,5.0,,0.0,0.0,
2025-08-15T06:03:49.394Z,4,GR86-012-8,1.6,0.035,-0.012,100.01,5.0,,0.0,0.0,
2025-08-15T06:03:49.440Z,4,GR86-012-8,1.6,0.05,-0.019,100.0,5.0,,0.0,0.0,
2025-08-15T06:03:49.483Z,4,GR86-012-8,1.6,0.048,-0.017,100.0,5.0,6320.0,0.0,0.0,
2025-08-15T06:03:49.528Z,4,GR86-012-8,1.6,0.071,-0.017,99.99,5.0,,0.0,0.0,186.87
2025-08-15T06:03:49.571Z,4,GR86-012-8,1.6,0.065,-0.014,100.0,5.0,,0.0,0.0,
2025-08-15T06:03:49.614Z,4,GR86-012-8,1.6,0.064,-0.024,99.96,5.0,,0.0,0.0,
2025-08-15T06:03:49.658Z,4,GR86-012-8,1.6,0.065,-0.039,100.01,5.0,,0.0,0.0,
2025-08-15T06:03:49.744Z,4,GR86-012-8,1.6,0.055,-0.041,100.0,5.0,6346.0,0.0,0.0,187.45
2025-08-15T06:03:49.788Z,4,GR86-012-8,1.6,0.068,-0.053,100.01,5.0,,0.0,0.0,
2025-08-15T06:03:49.831Z,4,GR86-012-8,1.6,0.083,-0.046,99.97,5.0,,0.0,0.0,
2025-08-15T06:03:49.874Z,4,GR86-012-8,1.7000000000000002,0.078,-0.033,100.01,5.0,,0.0,0.0,
2025-08-15T06:03:49.917Z,4,GR86-012-8,2.3000000000000003,0.076,-0.026,100.01,5.0,6363.0,0.0,0.0,
2025-08-15T06:03:49.961Z,4,GR86-012-8,3.1,0.081,-0.023,100.01,5.0,,0.0,0.0,188.08
2025-08-15T06:03:50.004Z,4,GR86-012-8,4.0,0.088,-0.017,99.98,5.0,,0.0,0.0,
2025-08-15T06:03:50.048Z,4,GR86-012-8,4.4,0.04,0.005,100.01,5.0,,0.0,0.0,
2025-08-15T06:03:50.091Z,4,GR86-012-8,4.4,0.042,0.02,100.0,5.0,,0.0,0.0,
2025-08-15T06:03:50.134Z,4,GR86-012-8,4.4,0.049,0.035,100.01,5.0,6405.0,0.0,0.0,
2025-08-15T06:03:50.178Z,4,GR86-012-8,4.4,0.058,0.057,100.0,5.0,,0.0,0.0,188.64
2025-08-15T06:03:50.221Z,4,GR86-012-8,4.3,0.054,0.063,99.98,5.0,,0.0,0.0,
2025-08-15T06:03:50.264Z,4,GR86-012-8,4.1000000000000005,0.075,0.065,100.0,5.0,,0.0,0.0,
2025-08-15T06:03:50.308Z,4,GR86-012-8,3.8,0.049,0.065,100.01,5.0,,0.0,0.0,
2025-08-15T06:03:50.351Z,4,GR86-012-8,3.5,0.054,0.063,100.01,5.0,6427.0,0.0,0.0,
2025-08-15T06:03:50.394Z,4,GR86-012-8,3.1,0.037,0.073,100.01,5.0,,0.0,0.0,189.23
2025-08-15T06:03:50.439Z,4,GR86-012-8,2.6,0.041,0.066,99.97,5.0,,0.0,0.0,
2025-08-15T06:03:50.482Z,4,GR86-012-8,2.3000000000000003,0.035,0.056,100.01,5.0,,0.0,0.0,
2025-08-15T06:03:50.525Z,4,GR86-012-8,2.1,0.044,0.045,99.97,5.0,,0.0,0.0,
2025-08-15T06:03:50.568Z,4,GR86-012-8,1.7000000000000002,0.086,0.032,100.0,5.0,6446.0,0.0,0.0,
2025-08-15T06:03:50.611Z,4,GR86-012-8,1.6,0.077,0.012,100.01,5.0,,0.0,0.0,189.9
2025-08-15T06:03:50.654Z,4,GR86-012-8,1.6,0.068,0.014,100.01,5.0,,0.0,0.0,
2025-08-15T06:03:50.698Z,4,GR86-012-8,1.6,0.068,-0.005,99.98,5.0,,0.0,0.0,
2025-08-15T06:03:50.741Z,4,GR86-012-8,1.4,0.051,-0.022,100.01,5.0,,0.0,0.0,
2025-08-15T06:03:50.784Z,4,GR86-012-8,1.1,0.038,-0.041,99.98,5.0,6478.0,0.0,0.0,
2025-08-15T06:03:50.828Z,4,GR86-012-8,0.5,0.075,-0.041,100.0,5.0,,0.0,0.0,190.42
2025-08-15T06:03:50.871Z,4,GR86-012-8,0.2,0.092,-0.047,100.01,5.0,,0.0,0.0,
2025-08-15T06:03:50.914Z,4,GR86-012-8,0.2,0.094,-0.043,100.02,5.0,,0.0,0.0,
2025-08-15T06:03:50.958Z,4,GR86-012-8,0.1,0.091,-0.036,100.0,5.0,,0.0,0.0,
2025-08-15T06:03:51.001Z,4,GR86-012-8,0.1,0.076,-0.037,99.97,5.0,6487.0,0.0,0.0,
2025-08-15T06:03:51.044Z,4,GR86-012-8,0.2,0.067,-0.056,100.01,5.0,,0.0,0.0,191.22
2025-08-15T06:03:51.088Z,4,GR86-012-8,0.2,0.065,-0.07,100.03,5.0,,0.0,0.0,
2025-08-15T06:03:51.131Z,4,GR86-012-8,0.2,0.076,-0.079,100.0,5.0,,0.0,0.0,
2025-08-15T06:03:51.174Z,4,GR86-012-8,0.3,0.074,-0.094,99.97,5.0,,0.0,0.0,
2025-08-15T06:03:51.217Z,4,GR86-012-8,0.4,0.079,-0.106,100.0,5.0,6512.0,0.0,0.0,
2025-08-15T06:03:51.260Z,4,GR86-012-8,0.4,0.08,-0.099,100.0,5.0,,0.0,0.0,191.78
2025-08-15T06:03:51.303Z,4,GR86-012-8,0.4,0.076,-0.087,100.0,5.0,,0.0,0.0,
2025-08-15T06:03:51.348Z,4,GR86-012-8,0.6000000000000001,0.039,-0.073,100.0,5.0,,0.0,0.0,
2025-08-15T06:03:51.391Z,4,GR86-012-8,0.9,0.049,-0.073,99.96,5.0,,0.0,0.0,
2025-08-15T06:03:51.434Z,4,GR86-012-8,1.1,0.065,-0.061,100.01,5.0,6531.0,0.0,0.0,
2025-08-15T06:03:51.477Z,4,GR86-012-8,1.2000000000000002,0.06,-0.053,100.0,5.0,,0.0,0.0,192.37
2025-08-15T06:03:51.521Z,4,GR86-012-8,1.2000000000000002,0.073,-0.055,100.0,5.0,,0.0,0.0,
2025-08-15T06:03:51.564Z,4,GR86-012-8,1.2000000000000002,0.087,-0.06,100.0,5.0,,0.0,0.0,
2025-08-15T06:03:51.608Z,4,GR86-012-8,1.3,0.037,-0.038,99.97,5.0,,0.0,0.0,
2025-08-15T06:03:51.651Z,4,GR86-012-8,1.4,0.039,-0.036,100.01,5.0,6545.0,0.0,0.0,
2025-08-15T06:03:51.694Z,4,GR86-012-8,1.5,0.051,-0.021,100.02,5.0,,0.0,0.0,193.01
2025-08-15T06:03:51.739Z,4,GR86-012-8,1.8,0.066,-0.013,100.0,5.0,,0.0,0.0,
2025-08-15T06:03:51.782Z,4,GR86-012-8,1.8,0.068,-0.003,100.01,5.0,,0.0,0.0,
2025-08-15T06:03:51.825Z,4,GR86-012-8,1.9,0.075,-0.026,100.0,5.0,,0.0,0.0,
2025-08-15T06:03:51.868Z,4,GR86-012-8,2.1,0.042,-0.022,99.97,5.0,6568.0,0.0,0.0,
2025-08-15T06:03:51.911Z,4,GR86-012-8,2.3000000000000003,0.046,-0.019,100.01,5.0,,0.0,0.0,193.6
2025-08-15T06:03:51.954Z,4,GR86-012-8,2.4000000000000004,0.045,-0.016,100.01,5.0,,0.0,0.0,
2025-08-15T06:03:51.997Z,4,GR86-012-8,2.6,0.053,-0.02,100.01,5.0,,0.0,0.0,
2025-08-15T06:03:52.041Z,4,GR86-012-8,3.0,0.062,-0.024,100.0,5.0,,0.0,0.0,
2025-08-15T06:03:52.084Z,4,GR86-012-8,3.1,0.062,-0.02,99.97,5.0,6588.0,0.0,0.0,
2025-08-15T06:03:52.128Z,4,GR86-012-8,3.3000000000000003,0.04,-0.024,100.0,5.0,,0.0,0.0,194.66
2025-08-15T06:03:52.171Z,4,GR86-012-8,3.6,0.034,-0.004,100.01,5.0,,0.0,0.0,
2025-08-15T06:03:52.214Z,4,GR86-012-8,4.1000000000000005,0.046,0.015,99.99,5.0,,0.0,0.0,
2025-08-15T06:03:52.258Z,4,GR86-012-8,4.6000000000000005,0.049,0.026,100.01,5.0,,0.0,0.0,
2025-08-15T06:03:52.301Z,4,GR86-012-8,4.9,0.06,0.045,100.0,5.0,6609.0,0.0,0.0,
2025-08-15T06:03:52.344Z,4,GR86-012-8,5.1000000000000005,0.061,0.044,100.01,5.0,,0.0,0.0,195.26
2025-08-15T06:03:52.388Z,4,GR86-012-8,5.1000000000000005,0.046,0.068,99.97,5.0,,0.0,0.0,
2025-08-15T06:03:52.431Z,4,GR86-012-8,5.1000000000000005,0.039,0.087,100.01,5.0,,0.0,0.0,
2025-08-15T06:03:52.474Z,4,GR86-012-8,5.1000000000000005,0.041,0.104,100.01,5.0,,0.0,0.0,
2025-08-15T06:03:52.517Z,4,GR86-012-8,5.1000000000000005,0.056,0.094,100.0,5.0,6623.0,0.0,0.0,
2025-08-15T06:03:52.561Z,4,GR86-012-8,5.1000000000000005,0.06,0.099,100.01,5.0,,0.0,0.0,195.84
2025-08-15T06:03:52.604Z,4,GR86-012-8,5.1000000000000005,0.065,0.112,99.97,5.0,,0.0,0.0,
2025-08-15T06:03:52.648Z,4,GR86-012-8,5.300000000000001,0.053,0.128,99.99,5.0,,0.0,0.0,
2025-08-15T06:03:52.691Z,4,GR86-012-8,5.7,0.044,0.128,100.01,5.0,,0.0,0.0,
2025-08-15T06:03:52.734Z,4,GR86-012-8,6.0,0.047,0.138,100.0,5.0,6673.0,0.0,0.0,
2025-08-15T06:03:52.778Z,4,GR86-012-8,6.0,0.05,0.132,99.97,5.0,,0.0,0.0,196.43
2025-08-15T06:03:52.821Z,4,GR86-012-8,6.0,0.057,0.137,99.97,5.0,,0.0,0.0,
2025-08-15T06:03:52.864Z,4,GR86-012-8,6.1000000000000005,0.063,0.14,99.99,5.0,,0.0,0.0,
2025-08-15T06:03:52.908Z,4,GR86-012-8,6.1000000000000005,0.047,0.132,100.01,5.0,,0.0,0.0,
2025-08-15T06:03:52.951Z,4,GR86-012-8,6.1000000000000005,0.045,0.137,99.99,5.0,6694.0,0.0,0.0,
2025-08-15T06:03:52.994Z,4,GR86-012-8,6.1000000000000005,0.046,0.151,99.97,5.0,,0.0,0.0,197.02
2025-08-15T06:03:53.040Z,4,GR86-012-8,6.1000000000000005,0.04,0.153,100.0,5.0,,0.0,0.0,
2025-08-15T06:03:53.083Z,4,GR86-012-8,6.1000000000000005,0.057,0.141,100.01,5.0,,0.0,0.0,
2025-08-15T06:03:53.128Z,4,GR86-012-8,6.1000000000000005,0.033,0.145,100.01,5.0,,0.0,0.0,
2025-08-15T06:03:53.171Z,4,GR86-012-8,6.1000000000000005,0.053,0.139,99.99,5.0,6705.0,0.0,0.0,
2025-08-15T06:03:53.214Z,4,GR86-012-8,6.1000000000000005,0.043,0.161,100.01,5.0,,0.0,0.0,197.65
2025-08-15T06:03:53.258Z,4,GR86-012-8,6.5,0.054,0.139,100.0,5.0,,0.0,0.0,
2025-08-15T06:03:53.301Z,4,GR86-012-8,7.4,0.056,0.143,99.99,5.0,,0.0,0.0,
2025-08-15T06:03:53.344Z,4,GR86-012-8,8.6,0.057,0.136,99.97,5.0,,0.0,0.0,
2025-08-15T06:03:53.388Z,4,GR86-012-8,9.4,0.048,0.19,100.01,5.0,6733.0,0.0,0.0,
2025-08-15T06:03:53.431Z,4,GR86-012-8,9.4,0.054,0.209,99.97,5.0,,0.0,0.0,198.27
2025-08-15T06:03:53.474Z,4,GR86-012-8,9.4,0.058,0.22,99.99,5.0,,0.0,0.0,
2025-08-15T06:03:53.517Z,4,GR86-012-8,9.4,0.059,0.243,100.01,5.0,,0.0,0.0,
2025-08-15T06:03:53.560Z,4,GR86-012-8,9.4,0.053,0.269,100.01,5.0,,0.0,0.0,
2025-08-15T06:03:53.603Z,4,GR86-012-8,9.4,0.063,0.288,99.96,5.0,6748.0,0.0,0.0,
2025-08-15T06:03:53.648Z,4,GR86-012-8,9.4,0.053,0.291,99.98,5.0,,0.0,0.0,198.81
2025-08-15T06:03:53.691Z,4,GR86-012-8,9.4,0.052,0.305,100.01,5.0,,0.0,0.0,
2025-08-15T06:03:53.734Z,4,GR86-012-8,9.4,0.063,0.307,100.02,5.0,,0.0,0.0,
2025-08-15T06:03:53.778Z,4,GR86-012-8,9.4,0.054,0.301,100.01,5.0,,0.0,0.0,
2025-08-15T06:03:53.821Z,4,GR86-012-8,9.4,0.057,0.285,100.01,5.0,6778.0,0.0,0.0,
2025-08-15T06:03:53.864Z,4,GR86-012-8,9.4,0.052,0.291,100.01,5.0,,0.0,0.0,199.41
2025-08-15T06:03:53.908Z,4,GR86-012-8,9.4,0.052,0.296,99.97,5.0,,0.0,0.0,
2025-08-15T06:03:53.951Z,4,GR86-012-8,9.4,0.06,0.298,99.98,5.0,,0.0,0.0,
2025-08-15T06:03:53.994Z,4,GR86-012-8,9.4,0.05,0.293,100.0,5.0,,0.0,0.0,
2025-08-15T06:03:54.082Z,4,GR86-012-8,9.4,0.059,0.273,100.01,5.0,,0.0,0.0,199.97
2025-08-15T06:03:54.125Z,4,GR86-012-8,9.3,0.05,0.28,99.98,5.0,6785.0,0.0,0.0,
2025-08-15T06:03:54.168Z,4,GR86-012-8,9.4,0.042,0.299,100.03,5.0,,0.0,0.0,
2025-08-15T06:03:54.211Z,4,GR86-012-8,9.6,0.052,0.305,99.98,5.0,,0.0,0.0,
2025-08-15T06:03:54.254Z,4,GR86-012-8,9.6,0.056,0.306,99.98,5.0,6811.0,0.0,0.0,
2025-08-15T06:03:54.298Z,4,GR86-012-8,9.6,0.055,0.309,100.0,5.0,,0.0,0.0,200.56
2025-08-15T06:03:54.341Z,4,GR86-012-8,9.6,0.045,0.317,100.02,5.0,,0.0,0.0,
2025-08-15T06:03:54.384Z,4,GR86-012-8,9.5,0.059,0.323,100.0,5.0,,0.0,0.0,
2025-08-15T06:03:54.428Z,4,GR86-012-8,8.0,0.05,0.336,100.0,5.0,,0.0,0.0,
2025-08-15T06:03:54.471Z,4,GR86-012-8,6.5,0.037,0.314,100.01,5.0,6830.0,0.0,0.0,
2025-08-15T06:03:54.514Z,4,GR86-012-8,5.5,0.043,0.313,100.0,5.0,,0.0,0.0,201.02
2025-08-15T06:03:54.558Z,4,GR86-012-8,5.5,0.067,0.279,100.01,5.0,,0.0,0.0,
2025-08-15T06:03:54.601Z,4,GR86-012-8,6.300000000000001,0.064,0.26,100.01,5.0,,0.0,0.0,
2025-08-15T06:03:54.644Z,4,GR86-012-8,7.4,0.055,0.224,99.96,5.0,,0.0,0.0,
2025-08-15T06:03:54.731Z,4,GR86-012-8,9.4,0.056,0.199,99.99,5.0,6851.0,0.0,0.0,202.18
2025-08-15T06:03:54.774Z,4,GR86-012-8,10.7,0.053,0.216,99.97,5.0,,0.0,0.0,
2025-08-15T06:03:54.817Z,4,GR86-012-8,10.7,0.053,0.23,99.97,5.0,,0.0,0.0,
2025-08-15T06:03:54.860Z,4,GR86-012-8,10.7,0.043,0.244,99.76,5.0,,0.0,0.0,
2025-08-15T06:03:54.903Z,4,GR86-012-8,10.4,0.037,0.277,98.77,5.0,6860.0,0.0,0.0,
2025-08-15T06:03:54.948Z,4,GR86-012-8,8.6,0.055,0.322,97.08,5.0,,0.0,0.0,202.63
2025-08-15T06:03:54.991Z,4,GR86-012-8,7.5,0.048,0.331,95.45,5.0,,0.0,0.0,
2025-08-15T06:03:55.034Z,4,GR86-012-8,7.2,0.052,0.332,95.38,5.0,,0.0,0.0,
2025-08-15T06:03:55.078Z,4,GR86-012-8,7.1000000000000005,0.038,0.327,95.83,5.0,,0.0,0.0,
2025-08-15T06:03:55.121Z,4,GR86-012-8,7.2,0.034,0.311,95.05,5.0,6881.0,0.0,0.0,
2025-08-15T06:03:55.164Z,4,GR86-012-8,7.800000000000001,0.04,0.292,92.13,5.0,,0.0,0.0,203.33
2025-08-15T06:03:55.208Z,4,GR86-012-8,9.1,0.048,0.272,90.8,5.0,,0.0,0.0,
2025-08-15T06:03:55.251Z,4,GR86-012-8,9.5,0.038,0.26,88.28,5.0,,0.0,0.0,
2025-08-15T06:03:55.294Z,4,GR86-012-8,9.6,0.042,0.249,82.85000000000001,5.0,,0.0,0.0,
2025-08-15T06:03:55.339Z,4,GR86-012-8,9.6,0.045,0.24,78.59,5.0,6919.0,0.0,0.0,
2025-08-15T06:03:55.382Z,4,GR86-012-8,9.6,0.06,0.242,72.14,5.0,,0.0,0.0,203.77
2025-08-15T06:03:55.425Z,4,GR86-012-8,9.6,0.064,0.277,64.8,5.0,,0.0,0.0,
2025-08-15T06:03:55.511Z,4,GR86-012-8,9.4,0.017,0.313,62.75,5.0,,0.0,0.0,
2025-08-15T06:03:55.554Z,4,GR86-012-8,8.1,0.024,0.334,62.46,5.0,6928.0,0.0,0.0,
2025-08-15T06:03:55.597Z,4,GR86-012-8,6.800000000000001,0.034,0.347,64.79,5.0,,0.0,0.0,204.35
2025-08-15T06:03:55.641Z,4,GR86-012-8,6.1000000000000005,0.027,0.32,66.71000000000001,5.0,,0.0,0.0,
2025-08-15T06:03:55.684Z,4,GR86-012-8,6.0,0.022,0.284,67.17,5.0,,0.0,0.0,
2025-08-15T06:03:55.728Z,4,GR86-012-8,6.6000000000000005,0.042,0.225,65.94,5.0,,0.0,0.0,
2025-08-15T06:03:55.771Z,4,GR86-012-8,6.6000000000000005,0.034,0.19,60.4,5.0,6954.0,0.0,0.0,
2025-08-15T06:03:55.814Z,4,GR86-012-8,6.6000000000000005,0.04,0.173,37.32,5.0,,0.0,0.0,205.13
2025-08-15T06:03:55.857Z,4,GR86-012-8,6.6000000000000005,0.022,0.156,24.51,5.0,,0.0,0.0,
2025-08-15T06:03:55.901Z,4,GR86-012-8,6.6000000000000005,-0.015,0.128,4.04,5.0,,0.0,0.0,
2025-08-15T06:03:55.944Z,4,GR86-012-8,6.6000000000000005,-0.063,0.128,3.54,5.0,,0.0,0.0,
2025-08-15T06:03:55.988Z,4,GR86-012-8,6.800000000000001,-0.157,0.188,3.24,5.0,6927.0,0.0,0.0,
2025-08-15T06:03:56.031Z,4,GR86-012-8,6.9,-0.449,0.12,3.11,5.0,,0.0,0.0,205.33
2025-08-15T06:03:56.074Z,4,GR86-012-8,7.4,-0.264,0.159,2.96,5.0,,2.275,2.455,
2025-08-15T06:03:56.118Z,4,GR86-012-8,8.3,-0.159,0.161,2.9,5.0,,9.72,9.81,
2025-08-15T06:03:56.161Z,4,GR86-012-8,8.700000000000001,-0.295,0.182,2.81,5.0,,18.235,17.900000000000002,
2025-08-15T06:03:56.248Z,4,GR86-012-8,8.700000000000001,-0.512,0.199,2.72,5.0,6922.0,32.015,31.36,205.47
2025-08-15T06:03:56.291Z,4,GR86-012-8,7.9,-1.137,0.193,2.56,5.0,,76.39,75.095,
2025-08-15T06:03:56.334Z,4,GR86-012-8,8.5,-1.197,0.153,2.52,5.0,,90.385,89.805,
2025-08-15T06:03:56.378Z,4,GR86-012-8,9.4,-1.277,0.114,2.51,5.0,,102.9,102.545,
2025-08-15T06:03:56.421Z,4,GR86-012-8,9.0,-1.31,0.157,2.52,5.0,6596.0,110.145,110.865,
2025-08-15T06:03:56.464Z,4,GR86-012-8,7.0,-1.206,0.238,2.51,5.0,,106.99,108.805,202.14
2025-08-15T06:03:56.508Z,4,GR86-012-8,4.3,-1.454,0.282,2.49,5.0,,108.085,108.62,
2025-08-15T06:03:56.551Z,4,GR86-012-8,4.0,-1.386,0.327,2.49,5.0,,109.905,111.365,
2025-08-15T06:03:56.594Z,4,GR86-012-8,3.9,-1.343,0.347,2.49,5.0,,104.12,104.775,
2025-08-15T06:03:56.639Z,4,GR86-012-8,2.9000000000000004,-1.424,0.332,2.49,5.0,5842.0,104.685,106.12,
2025-08-15T06:03:56.682Z,4,GR86-012-8,1.2000000000000002,-1.286,0.327,2.48,5.0,,106.425,108.18,188.7
2025-08-15T06:03:56.725Z,4,GR86-012-8,1.1,-1.234,0.307,2.49,5.0,,103.815,105.705,
2025-08-15T06:03:56.768Z,4,GR86-012-8,1.8,-1.388,0.189,2.48,5.0,,100.12,99.92,
2025-08-15T06:03:56.811Z,4,GR86-012-8,2.3000000000000003,-1.345,0.131,22.52,5.0,,96.52,98.15,
2025-08-15T06:03:56.854Z,4,GR86-012-8,4.6000000000000005,-1.359,0.105,69.57000000000001,5.0,5936.0,87.83500000000001,89.24,
2025-08-15T06:03:56.898Z,4,GR86-012-8,7.9,-1.285,0.101,54.11,4.0,,82.115,82.235,184.21
2025-08-15T06:03:56.941Z,4,GR86-012-8,10.7,-1.374,0.061,5.89,4.0,,76.895,77.995,
2025-08-15T06:03:56.984Z,4,GR86-012-8,10.3,-1.233,0.138,3.6,4.0,,67.905,69.875,
2025-08-15T06:03:57.028Z,4,GR86-012-8,8.1,-1.22,0.084,3.19,4.0,,61.68,62.095,
2025-08-15T06:03:57.071Z,4,GR86-012-8,8.1,-1.211,0.085,3.0500000000000003,4.0,5609.0,60.705,62.03,
2025-08-15T06:03:57.114Z,4,GR86-012-8,7.9,-1.084,0.024,2.94,4.0,,54.11,55.01,174.28
2025-08-15T06:03:57.157Z,4,GR86-012-8,7.9,-1.012,0.047,2.85,4.0,,47.335,48.025,
2025-08-15T06:03:57.201Z,4,GR86-012-8,8.6,-1.179,0.086,2.74,4.0,,45.43,46.62,
2025-08-15T06:03:57.244Z,4,GR86-012-8,9.5,-0.864,0.071,2.68,4.0,,39.095,39.995,
2025-08-15T06:03:57.288Z,4,GR86-012-8,9.8,-0.792,0.165,2.58,4.0,6130.0,33.465,34.09,
2025-08-15T06:03:57.331Z,4,GR86-012-8,9.1,-0.847,0.145,2.5500000000000003,4.0,,34.275,34.81,161.29
2025-08-15T06:03:57.374Z,4,GR86-012-8,8.8,-0.865,0.18,2.52,4.0,,34.96,35.375,
2025-08-15T06:03:57.417Z,4,GR86-012-8,8.4,-0.888,0.203,2.51,4.0,,35.68,35.83,
2025-08-15T06:03:57.460Z,4,GR86-012-8,7.4,-0.87,0.216,2.5,4.0,,35.405,35.89,
2025-08-15T06:03:57.503Z,4,GR86-012-8,6.7,-0.807,0.232,29.81,4.0,6162.0,32.96,33.875,
2025-08-15T06:03:57.548Z,4,GR86-012-8,6.6000000000000005,-0.855,0.212,97.35,4.0,,31.8,32.38,155.76
2025-08-15T06:03:57.591Z,4,GR86-012-8,6.6000000000000005,-0.798,0.279,99.56,3.0,,32.565,33.055,
2025-08-15T06:03:57.634Z,4,GR86-012-8,6.6000000000000005,-0.787,0.187,43.71,3.0,,33.315,33.585,
2025-08-15T06:03:57.678Z,4,GR86-012-8,5.800000000000001,-1.116,0.249,4.38,3.0,,38.47,39.005,
2025-08-15T06:03:57.721Z,4,GR86-012-8,5.2,-0.986,0.207,2.87,3.0,5865.0,48.235,48.83,
2025-08-15T06:03:57.764Z,4,GR86-012-8,5.2,-1.018,0.095,2.64,3.0,,53.06,53.15,150.45000000000002
2025-08-15T06:03:57.808Z,4,GR86-012-8,5.0,-1.083,0.172,2.51,3.0,,59.15,59.055,
2025-08-15T06:03:57.851Z,4,GR86-012-8,5.0,-1.147,0.077,2.49,3.0,,61.175,60.98,
2025-08-15T06:03:57.894Z,4,GR86-012-8,5.0,-1.142,0.155,2.49,3.0,,61.82,61.85,
2025-08-15T06:03:57.939Z,4,GR86-012-8,5.0,-1.144,0.109,2.49,3.0,6385.0,61.82,62.06,
2025-08-15T06:03:57.982Z,4,GR86-012-8,5.0,-1.198,0.047,2.49,3.0,,61.85,62.06,143.72
2025-08-15T06:03:58.025Z,4,GR86-012-8,5.0,-1.199,0.058,2.49,3.0,,61.85,62.06,
2025-08-15T06:03:58.111Z,4,GR86-012-8,5.0,-1.138,0.018,2.49,3.0,,60.98,61.27,
2025-08-15T06:03:58.154Z,4,GR86-012-8,5.4,-1.086,0.014,32.29,3.0,6045.0,54.495000000000005,55.865,
2025-08-15T06:03:58.198Z,4,GR86-012-8,6.300000000000001,-1.073,0.01,80.03,3.0,,52.28,53.545,135.96
2025-08-15T06:03:58.241Z,4,GR86-012-8,7.4,-1.051,0.008,84.14,2.0,,49.93,51.15,
2025-08-15T06:03:58.284Z,4,GR86-012-8,8.4,-1.205,-0.034,12.71,2.0,,47.245,48.3,
2025-08-15T06:03:58.328Z,4,GR86-012-8,8.6,-1.107,0.136,2.87,2.0,,47.46,48.3,
2025-08-15T06:03:58.371Z,4,GR86-012-8,9.7,-1.065,-0.054,2.62,2.0,6381.0,45.0,45.625,
2025-08-15T06:03:58.414Z,4,GR86-012-8,9.8,-1.195,0.151,2.49,2.0,,43.49,44.255,128.75
2025-08-15T06:03:58.457Z,4,GR86-012-8,9.9,-0.898,0.017,2.47,2.0,,40.805,41.645,
2025-08-15T06:03:58.501Z,4,GR86-012-8,10.1,-0.902,0.099,2.45,2.0,,34.745,35.585,
2025-08-15T06:03:58.544Z,4,GR86-012-8,10.1,-0.81,0.2,2.45,2.0,,29.36,30.46,
2025-08-15T06:03:58.588Z,4,GR86-012-8,10.0,-0.733,0.137,2.46,2.0,6692.0,24.235,25.27,
2025-08-15T06:03:58.631Z,4,GR86-012-8,9.1,-0.6960000000000001,0.217,2.46,2.0,,20.385,21.41,121.98
2025-08-15T06:03:58.674Z,4,GR86-012-8,7.9,-0.598,0.174,2.46,2.0,,18.92,19.64,
2025-08-15T06:03:58.717Z,4,GR86-012-8,7.300000000000001,-0.585,0.198,2.46,2.0,,19.73,20.08,
2025-08-15T06:03:58.760Z,4,GR86-012-8,7.2,-0.654,0.199,2.47,2.0,,20.66,21.06,
2025-08-15T06:03:58.803Z,4,GR86-012-8,7.2,-0.626,0.169,2.46,2.0,6496.0,21.35,21.87,
2025-08-15T06:03:58.848Z,4,GR86-012-8,7.2,-0.612,0.174,2.47,2.0,,22.25,22.555,116.93
2025-08-15T06:03:58.891Z,4,GR86-012-8,7.2,-0.637,0.156,2.45,2.0,,22.735,23.09,
2025-08-15T06:03:58.934Z,4,GR86-012-8,7.2,-0.659,0.139,2.48,2.0,,23.485,23.93,
2025-08-15T06:03:58.978Z,4,GR86-012-8,7.300000000000001,-0.637,0.167,2.48,2.0,,24.46,24.705,
2025-08-15T06:03:59.021Z,4,GR86-012-8,7.300000000000001,-0.6890000000000001,0.132,2.49,2.0,6260.0,25.36,25.7,
2025-08-15T06:03:59.064Z,4,GR86-012-8,7.300000000000001,-0.668,0.128,3.2,2.0,,26.995,27.225,113.08
2025-08-15T06:03:59.108Z,4,GR86-012-8,7.300000000000001,-0.679,0.132,67.5,2.0,,31.83,31.895,
2025-08-15T06:03:59.151Z,4,GR86-012-8,7.4,-0.794,0.13,99.47,2.0,,36.03,35.86,
2025-08-15T06:03:59.194Z,4,GR86-012-8,7.7,-0.8290000000000001,0.146,93.19,1.0,,40.655,40.56,
2025-08-15T06:03:59.239Z,4,GR86-012-8,8.200000000000001,-0.904,0.07,23.12,1.0,6036.0,46.435,46.175,
2025-08-15T06:03:59.282Z,4,GR86-012-8,8.4,-1.303,0.187,3.27,1.0,,53.64,53.395,109.04
2025-08-15T06:03:59.325Z,4,GR86-012-8,10.1,-1.118,0.123,2.87,1.0,,60.14,60.855,
2025-08-15T06:03:59.368Z,4,GR86-012-8,15.6,-1.125,0.25,2.58,1.0,,61.025,61.3,
2025-08-15T06:03:59.411Z,4,GR86-012-8,17.3,-1.336,0.236,2.52,1.0,,60.49,61.24,
2025-08-15T06:03:59.454Z,4,GR86-012-8,17.3,-1.09,0.215,2.52,1.0,6679.0,55.545,56.43,
2025-08-15T06:03:59.497Z,4,GR86-012-8,17.3,-1.003,0.271,2.51,1.0,,45.87,46.835,103.98
2025-08-15T06:03:59.540Z,4,GR86-012-8,17.400000000000002,-0.987,0.312,2.49,1.0,,39.615,40.12,
2025-08-15T06:03:59.583Z,4,GR86-012-8,17.5,-0.97,0.266,2.49,1.0,,36.305,37.11,
2025-08-15T06:03:59.628Z,4,GR86-012-8,19.1,-0.804,0.355,2.49,1.0,,31.77,32.655,
2025-08-15T06:03:59.671Z,4,GR86-012-8,22.8,-0.791,0.324,2.49,1.0,6608.0,31.205,32.015,
2025-08-15T06:03:59.714Z,4,GR86-012-8,27.1,-0.786,0.386,2.49,1.0,,30.365,31.205,95.51
2025-08-15T06:03:59.758Z,4,GR86-012-8,30.1,-0.774,0.429,2.49,1.0,,26.69,27.65,
2025-08-15T06:03:59.801Z,4,GR86-012-8,31.3,-0.677,0.466,2.48,1.0,,20.875,21.87,
2025-08-15T06:03:59.844Z,4,GR86-012-8,31.3,-0.59,0.489,2.49,1.0,,17.84,18.8,
2025-08-15T06:03:59.888Z,4,GR86-012-8,33.2,-0.538,0.497,2.49,1.0,6360.0,15.395,16.28,
2025-08-15T06:03:59.931Z,4,GR86-012-8,36.6,-0.519,0.505,2.49,1.0,,14.27,14.94,85.05
2025-08-15T06:03:59.974Z,4,GR86-012-8,40.0,-0.473,0.5700000000000001,2.49,1.0,,13.885,14.51,
2025-08-15T06:04:00.017Z,4,GR86-012-8,42.400000000000006,-0.486,0.587,2.49,1.0,,14.3,14.88,
2025-08-15T06:04:00.061Z,4,GR86-012-8,44.2,-0.473,0.646,2.49,1.0,,14.33,14.88,
2025-08-15T06:04:00.104Z,4,GR86-012-8,45.7,-0.471,0.66,2.49,1.0,6059.0,14.33,14.88,
2025-08-15T06:04:00.148Z,4,GR86-012-8,46.3,-0.456,0.6940000000000001,2.49,1.0,,13.335,13.995,82.41
2025-08-15T06:04:00.191Z,4,GR86-012-8,47.1,-0.442,0.6980000000000001,2.49,1.0,,12.055,12.835,
2025-08-15T06:04:00.234Z,4,GR86-012-8,49.900000000000006,-0.395,0.731,2.48,1.0,,10.025,10.865,
2025-08-15T06:04:00.278Z,4,GR86-012-8,53.8,-0.367,0.764,2.49,1.0,,7.525,8.33,
2025-08-15T06:04:00.321Z,4,GR86-012-8,57.6,-0.309,0.8230000000000001,2.49,1.0,5844.0,3.435,4.15,
2025-08-15T06:04:00.364Z,4,GR86-012-8,59.900000000000006,-0.234,0.84,2.49,1.0,,0.0,0.0,79.79
2025-08-15T06:04:00.408Z,4,GR86-012-8,60.400000000000006,-0.191,0.881,2.49,1.0,,0.0,0.0,
2025-08-15T06:04:00.451Z,4,GR86-012-8,61.400000000000006,-0.183,0.89,2.49,1.0,,0.0,0.0,
2025-08-15T06:04:00.494Z,4,GR86-012-8,64.10000000000001,-0.185,0.876,4.55,1.0,,0.0,0.0,
2025-08-15T06:04:00.540Z,4,GR86-012-8,67.8,-0.193,0.917,19.84,1.0,5553.0,0.0,0.0,
2025-08-15T06:04:00.583Z,4,GR86-012-8,71.9,-0.198,0.918,20.61,1.0,,0.0,0.0,78.2
2025-08-15T06:04:00.628Z,4,GR86-012-8,76.80000000000001,-0.178,1.014,23.13,1.0,,0.0,0.0,
2025-08-15T06:04:00.672Z,4,GR86-012-8,79.10000000000001,-0.106,1.037,26.86,1.0,,0.0,0.0,
2025-08-15T06:04:00.715Z,4,GR86-012-8,81.2,-0.116,1.048,29.68,1.0,,0.0,0.0,
2025-08-15T06:04:00.758Z,4,GR86-012-8,83.60000000000001,-0.061,1.068,30.02,1.0,5716.0,0.0,0.0,
2025-08-15T06:04:00.801Z,4,GR86-012-8,85.0,0.201,1.059,29.15,1.0,,0.0,0.0,77.04
2025-08-15T06:04:00.844Z,4,GR86-012-8,85.0,0.25,1.052,27.95,1.0,,0.0,0.0,
2025-08-15T06:04:00.888Z,4,GR86-012-8,84.30000000000001,0.222,1.131,26.95,1.0,,0.0,0.0,
2025-08-15T06:04:00.931Z,4,GR86-012-8,84.30000000000001,0.139,1.131,27.05,1.0,,0.0,0.0,
2025-08-15T06:04:00.974Z,4,GR86-012-8,84.30000000000001,0.09,1.149,27.31,1.0,5735.0,0.0,0.0,
2025-08-15T06:04:01.017Z,4,GR86-012-8,84.30000000000001,0.07,1.146,26.69,1.0,,0.0,0.0,76.75
2025-08-15T06:04:01.060Z,4,GR86-012-8,84.5,0.09,1.068,26.04,1.0,,0.0,0.0,
2025-08-15T06:04:01.103Z,4,GR86-012-8,84.5,0.116,1.111,24.96,1.0,,0.0,0.0,
2025-08-15T06:04:01.148Z,4,GR86-012-8,84.5,0.102,1.212,23.78,1.0,,0.0,0.0,
2025-08-15T06:04:01.191Z,4,GR86-012-8,84.5,0.084,1.213,25.67,1.0,5871.0,0.0,0.0,
2025-08-15T06:04:01.234Z,4,GR86-012-8,84.5,0.075,1.173,27.44,1.0,,0.0,0.0,77.9
2025-08-15T06:04:01.278Z,4,GR86-012-8,84.5,0.092,1.233,27.69,1.0,,0.0,0.0,
2025-08-15T06:04:01.321Z,4,GR86-012-8,83.9,0.082,1.221,29.55,1.0,,0.0,0.0,
2025-08-15T06:04:01.364Z,4,GR86-012-8,82.0,0.07,1.256,30.87,1.0,,0.0,0.0,
2025-08-15T06:04:01.408Z,4,GR86-012-8,76.0,0.095,1.256,31.3,1.0,5903.0,0.0,0.0,
2025-08-15T06:04:01.451Z,4,GR86-012-8,70.60000000000001,0.172,1.147,31.34,1.0,,0.0,0.0,78.87
2025-08-15T06:04:01.494Z,4,GR86-012-8,65.2,0.179,1.278,31.66,1.0,,0.0,0.0,
2025-08-15T06:04:01.539Z,4,GR86-012-8,61.3,0.227,1.028,31.66,1.0,,0.0,0.0,
2025-08-15T06:04:01.582Z,4,GR86-012-8,59.7,0.129,1.1,31.66,1.0,,0.0,0.0,
2025-08-15T06:04:01.625Z,4,GR86-012-8,59.7,0.146,1.039,31.73,1.0,6014.0,0.0,0.0,
2025-08-15T06:04:01.668Z,4,GR86-012-8,60.6,0.178,1.011,31.85,1.0,,0.0,0.0,79.60000000000001
2025-08-15T06:04:01.711Z,4,GR86-012-8,60.900000000000006,0.086,1.031,32.15,1.0,,0.0,0.0,
2025-08-15T06:04:01.754Z,4,GR86-012-8,61.2,0.194,0.905,32.21,1.0,,0.0,0.0,
2025-08-15T06:04:01.798Z,4,GR86-012-8,61.3,0.163,1.019,32.27,1.0,,0.0,0.0,
2025-08-15T06:04:01.841Z,4,GR86-012-8,61.400000000000006,0.229,0.953,32.68,1.0,6176.0,0.0,0.0,
2025-08-15T06:04:01.884Z,4,GR86-012-8,62.1,0.135,0.972,33.660000000000004,1.0,,0.0,0.0,80.42
2025-08-15T06:04:01.928Z,4,GR86-012-8,61.2,0.083,0.925,34.06,1.0,,0.0,0.0,
2025-08-15T06:04:01.971Z,4,GR86-012-8,59.5,0.206,1.076,34.160000000000004,1.0,,0.0,0.0,
2025-08-15T06:04:02.014Z,4,GR86-012-8,59.0,0.373,0.898,34.02,1.0,,0.0,0.0,
2025-08-15T06:04:02.058Z,4,GR86-012-8,59.0,0.213,0.996,33.96,1.0,6190.0,0.0,0.0,
2025-08-15T06:04:02.101Z,4,GR86-012-8,58.900000000000006,0.148,0.97,33.94,1.0,,0.0,0.0,81.39
2025-08-15T06:04:02.144Z,4,GR86-012-8,58.8,0.216,0.948,33.77,1.0,,0.0,0.0,
2025-08-15T06:04:02.188Z,4,GR86-012-8,58.6,0.134,1.176,34.07,1.0,,0.0,0.0,
2025-08-15T06:04:02.231Z,4,GR86-012-8,58.3,-0.001,1.35,34.56,1.0,,0.0,0.0,
2025-08-15T06:04:02.274Z,4,GR86-012-8,58.0,0.266,1.166,34.79,1.0,6326.0,0.0,0.0,
2025-08-15T06:04:02.317Z,4,GR86-012-8,56.8,0.198,1.191,35.0,1.0,,0.0,0.0,82.8
2025-08-15T06:04:02.360Z,4,GR86-012-8,55.900000000000006,0.259,1.144,35.27,1.0,,0.0,0.0,
2025-08-15T06:04:02.448Z,4,GR86-012-8,55.0,0.342,1.09,36.01,1.0,,0.0,0.0,
2025-08-15T06:04:02.491Z,4,GR86-012-8,51.6,0.174,1.008,38.18,1.0,6484.0,0.0,0.0,
2025-08-15T06:04:02.534Z,4,GR86-012-8,51.1,0.161,0.963,38.43,1.0,,0.0,0.0,85.39
2025-08-15T06:04:02.578Z,4,GR86-012-8,51.1,0.201,0.934,38.47,1.0,,0.0,0.0,
2025-08-15T06:04:02.621Z,4,GR86-012-8,52.1,0.246,0.923,38.22,1.0,,0.0,0.0,
2025-08-15T06:04:02.664Z,4,GR86-012-8,56.7,0.251,0.917,37.62,1.0,,0.0,0.0,
2025-08-15T06:04:02.708Z,4,GR86-012-8,65.10000000000001,0.219,0.93,35.9,1.0,6405.0,0.0,0.0,
2025-08-15T06:04:02.794Z,4,GR86-012-8,65.4,0.21,0.986,34.95,1.0,,0.0,0.0,86.73
2025-08-15T06:04:02.839Z,4,GR86-012-8,60.5,0.171,1.038,34.660000000000004,1.0,,0.0,0.0,
2025-08-15T06:04:02.882Z,4,GR86-012-8,60.400000000000006,0.176,1.062,34.65,1.0,,0.0,0.0,
2025-08-15T06:04:02.925Z,4,GR86-012-8,60.400000000000006,0.203,1.098,34.660000000000004,1.0,6545.0,0.0,0.0,
2025-08-15T06:04:03.011Z,4,GR86-012-8,58.900000000000006,0.188,1.11,34.59,1.0,,0.0,0.0,88.38
2025-08-15T06:04:03.054Z,4,GR86-012-8,51.2,0.19,1.115,34.49,1.0,,0.0,0.0,
2025-08-15T06:04:03.097Z,4,GR86-012-8,45.0,0.186,1.091,34.49,1.0,,0.0,0.0,
2025-08-15T06:04:03.141Z,4,GR86-012-8,40.8,0.211,1.05,34.46,1.0,6774.0,0.0,0.0,
2025-08-15T06:04:03.184Z,4,GR86-012-8,39.7,0.194,0.991,34.45,1.0,,0.0,0.0,89.9
2025-08-15T06:04:03.228Z,4,GR86-012-8,40.1,0.21,0.994,34.47,1.0,,0.0,0.0,
2025-08-15T06:04:03.271Z,4,GR86-012-8,40.6,0.192,0.934,34.550000000000004,1.0,,0.0,0.0,
2025-08-15T06:04:03.314Z,4,GR86-012-8,40.5,0.252,0.875,34.81,1.0,,0.0,0.0,
2025-08-15T06:04:03.357Z,4,GR86-012-8,40.6,0.2,0.672,35.24,1.0,6839.0,0.0,0.0,
2025-08-15T06:04:03.401Z,4,GR86-012-8,41.6,0.126,0.6990000000000001,37.21,1.0,,0.0,0.0,90.84
2025-08-15T06:04:03.444Z,4,GR86-012-8,41.7,0.1,0.793,44.99,1.0,,0.0,0.0,
2025-08-15T06:04:03.488Z,4,GR86-012-8,41.400000000000006,0.057,0.5670000000000001,58.46,1.0,,0.0,0.0,
2025-08-15T06:04:03.531Z,4,GR86-012-8,41.5,0.146,0.739,77.2,1.0,,0.0,0.0,
2025-08-15T06:04:03.574Z,4,GR86-012-8,41.900000000000006,0.32,0.6930000000000001,80.69,1.0,6975.0,0.0,0.0,
2025-08-15T06:04:03.617Z,4,GR86-012-8,43.400000000000006,0.425,0.61,78.85000000000001,1.0,,0.0,0.0,91.26
2025-08-15T06:04:03.661Z,4,GR86-012-8,43.900000000000006,0.381,0.592,75.38,1.0,,0.0,0.0,
2025-08-15T06:04:03.704Z,4,GR86-012-8,43.7,0.112,0.207,63.81,1.0,,0.0,0.0,
2025-08-15T06:04:03.748Z,4,GR86-012-8,39.400000000000006,0.489,0.625,62.17,1.0,,0.0,0.0,
2025-08-15T06:04:03.791Z,4,GR86-012-8,34.2,0.073,0.56,60.61,1.0,7180.0,0.0,0.0,
2025-08-15T06:04:03.834Z,4,GR86-012-8,27.9,-0.156,0.911,59.88,1.0,,0.0,0.0,93.0
2025-08-15T06:04:03.878Z,4,GR86-012-8,22.5,0.097,0.934,56.01,1.0,,0.0,0.0,
2025-08-15T06:04:03.921Z,4,GR86-012-8,16.0,0.118,1.362,55.74,1.0,,0.0,0.0,
2025-08-15T06:04:03.964Z,4,GR86-012-8,7.6,0.418,1.134,51.58,1.0,,0.0,0.0,
2025-08-15T06:04:04.008Z,4,GR86-012-8,-9.6,0.263,1.19,44.41,1.0,7299.0,0.0,0.0,
2025-08-15T06:04:04.094Z,4,GR86-012-8,-22.9,0.302,0.875,39.65,1.0,,0.0,0.0,94.89
2025-08-15T06:04:04.140Z,4,GR86-012-8,-34.0,0.349,0.409,49.64,1.0,,0.0,0.0,
2025-08-15T06:04:04.183Z,4,GR86-012-8,-27.3,0.232,0.019,72.17,1.0,,0.0,0.0,
2025-08-15T06:04:04.228Z,4,GR86-012-8,-8.700000000000001,0.208,-0.122,100.04,1.0,7270.0,0.0,0.0,
2025-08-15T06:04:04.271Z,4,GR86-012-8,5.1000000000000005,0.052,-0.264,100.12,1.0,,0.0,0.0,95.91
2025-08-15T06:04:04.314Z,4,GR86-012-8,19.200000000000003,0.006,-0.048,100.08,1.0,,0.0,0.0,
2025-08-15T06:04:04.357Z,4,GR86-012-8,27.4,-0.018,-0.325,100.1,1.0,,0.0,0.0,
2025-08-15T06:04:04.401Z,4,GR86-012-8,28.6,0.007,-0.22,100.11,1.0,,0.0,0.0,
2025-08-15T06:04:04.444Z,4,GR86-012-8,26.700000000000003,0.051,-0.102,100.08,1.0,7298.0,0.0,0.0,
2025-08-15T06:04:04.488Z,4,GR86-012-8,22.9,-0.048,0.032,100.08,1.0,,0.0,0.0,96.7
2025-08-15T06:04:04.531Z,4,GR86-012-8,20.0,-0.053,0.102,100.07,1.0,,0.0,0.0,
2025-08-15T06:04:04.574Z,4,GR86-012-8,18.3,-0.052,0.171,100.08,1.0,,0.0,0.0,
2025-08-15T06:04:04.617Z,4,GR86-012-8,17.7,-0.114,0.387,100.07,1.0,,0.0,0.0,
2025-08-15T06:04:04.660Z,4,GR86-012-8,17.3,-0.107,0.351,100.11,2.0,7353.0,0.0,0.0,
2025-08-15T06:04:04.703Z,4,GR86-012-8,16.8,0.622,0.392,100.1,2.0,,0.0,0.0,97.6
2025-08-15T06:04:04.748Z,4,GR86-012-8,14.6,-0.046,0.106,100.07,2.0,,0.0,0.0,
2025-08-15T06:04:04.791Z,4,GR86-012-8,12.3,0.603,0.28,100.07,2.0,,0.0,0.0,
2025-08-15T06:04:04.834Z,4,GR86-012-8,9.9,0.941,0.271,100.07,2.0,,0.0,0.0,
2025-08-15T06:04:04.878Z,4,GR86-012-8,6.5,0.925,0.371,100.07,2.0,6678.0,0.0,0.0,
2025-08-15T06:04:04.921Z,4,GR86-012-8,3.6,0.797,0.334,100.07,2.0,,0.0,0.0,98.57
2025-08-15T06:04:04.964Z,4,GR86-012-8,1.1,0.62,0.355,100.06,2.0,,0.0,0.0,
2025-08-15T06:04:05.008Z,4,GR86-012-8,-2.1,0.26,0.536,100.07,2.0,,0.0,0.0,
2025-08-15T06:04:05.051Z,4,GR86-012-8,-2.2,0.394,0.484,100.07,2.0,,0.0,0.0,
2025-08-15T06:04:05.139Z,4,GR86-012-8,-1.3,0.5700000000000001,0.191,100.07,2.0,6014.0,0.0,0.0,102.21
2025-08-15T06:04:05.182Z,4,GR86-012-8,-1.1,0.406,0.212,100.06,2.0,,0.0,0.0,
2025-08-15T06:04:05.268Z,4,GR86-012-8,-0.8,0.334,0.087,100.07,2.0,,0.0,0.0,
2025-08-15T06:04:05.311Z,4,GR86-012-8,-1.7000000000000002,0.502,0.117,100.07,2.0,5994.0,0.0,0.0,
2025-08-15T06:04:05.354Z,4,GR86-012-8,-2.1,0.502,0.05,100.07,2.0,,0.0,0.0,103.69
2025-08-15T06:04:05.398Z,4,GR86-012-8,-2.3000000000000003,0.434,0.045,100.05,2.0,,0.0,0.0,
2025-08-15T06:04:05.441Z,4,GR86-012-8,-0.7000000000000001,0.366,-0.05,100.05,2.0,,0.0,0.0,
2025-08-15T06:04:05.484Z,4,GR86-012-8,0.5,0.394,-0.077,100.06,2.0,,0.0,0.0,
2025-08-15T06:04:05.528Z,4,GR86-012-8,0.9,0.238,-0.137,100.07,2.0,6154.0,0.0,0.0,
2025-08-15T06:04:05.571Z,4,GR86-012-8,0.9,0.245,-0.125,100.07,2.0,,0.0,0.0,105.64
2025-08-15T06:04:05.614Z,4,GR86-012-8,0.9,0.288,-0.191,100.06,2.0,,0.0,0.0,
2025-08-15T06:04:05.658Z,4,GR86-012-8,0.9,0.336,-0.153,100.07,2.0,,0.0,0.0,
2025-08-15T06:04:05.701Z,4,GR86-012-8,0.9,0.329,-0.158,100.07,2.0,,0.0,0.0,
2025-08-15T06:04:05.744Z,4,GR86-012-8,0.9,0.371,-0.133,100.06,2.0,6244.0,0.0,0.0,
2025-08-15T06:04:05.788Z,4,GR86-012-8,1.0,0.167,-0.114,100.04,2.0,,0.0,0.0,107.18
2025-08-15T06:04:05.831Z,4,GR86-012-8,1.0,0.223,-0.057,100.05,2.0,,0.0,0.0,
2025-08-15T06:04:05.874Z,4,GR86-012-8,1.0,0.283,-0.079,100.04,2.0,,0.0,0.0,
2025-08-15T06:04:05.917Z,4,GR86-012-8,1.0,0.269,-0.082,100.03,2.0,,0.0,0.0,
2025-08-15T06:04:05.960Z,4,GR86-012-8,1.0,0.275,-0.081,100.04,2.0,6286.0,0.0,0.0,
2025-08-15T06:04:06.003Z,4,GR86-012-8,1.0,0.238,-0.107,100.03,2.0,,0.0,0.0,108.74
2025-08-15T06:04:06.048Z,4,GR86-012-8,1.0,0.244,-0.074,100.05,2.0,,0.0,0.0,
2025-08-15T06:04:06.091Z,4,GR86-012-8,1.0,0.276,-0.044,100.04,2.0,,0.0,0.0,
2025-08-15T06:04:06.134Z,4,GR86-012-8,1.0,0.295,-0.001,100.01,2.0,,0.0,0.0,
2025-08-15T06:04:06.178Z,4,GR86-012-8,1.0,0.26,-0.001,100.02,2.0,6397.0,0.0,0.0,
2025-08-15T06:04:06.221Z,4,GR86-012-8,1.0,0.257,0.0,100.01,2.0,,0.0,0.0,110.23
2025-08-15T06:04:06.264Z,4,GR86-012-8,0.7000000000000001,0.249,-0.016,100.04,2.0,,0.0,0.0,
2025-08-15T06:04:06.308Z,4,GR86-012-8,-1.3,0.248,-0.018,100.01,2.0,,0.0,0.0,
2025-08-15T06:04:06.351Z,4,GR86-012-8,-2.6,0.273,-0.028,100.03,2.0,,0.0,0.0,
2025-08-15T06:04:06.394Z,4,GR86-012-8,-2.9000000000000004,0.286,-0.053,100.01,2.0,6490.0,0.0,0.0,
2025-08-15T06:04:06.439Z,4,GR86-012-8,-2.9000000000000004,0.242,-0.061,100.04,2.0,,0.0,0.0,111.86
2025-08-15T06:04:06.482Z,4,GR86-012-8,-2.9000000000000004,0.251,-0.065,99.99,2.0,,0.0,0.0,
2025-08-15T06:04:06.525Z,4,GR86-012-8,-2.9000000000000004,0.254,-0.086,100.0,2.0,,0.0,0.0,
2025-08-15T06:04:06.568Z,4,GR86-012-8,-2.9000000000000004,0.257,-0.108,100.03,2.0,,0.0,0.0,
2025-08-15T06:04:06.611Z,4,GR86-012-8,-2.9000000000000004,0.252,-0.086,100.0,2.0,6547.0,0.0,0.0,
2025-08-15T06:04:06.654Z,4,GR86-012-8,-2.9000000000000004,0.262,-0.105,100.01,2.0,,0.0,0.0,113.35
2025-08-15T06:04:06.697Z,4,GR86-012-8,-2.9000000000000004,0.256,-0.076,100.02,2.0,,0.0,0.0,
2025-08-15T06:04:06.741Z,4,GR86-012-8,-2.9000000000000004,0.26,-0.089,100.0,2.0,,0.0,0.0,
2025-08-15T06:04:06.784Z,4,GR86-012-8,-2.9000000000000004,0.272,-0.088,100.02,2.0,,0.0,0.0,
2025-08-15T06:04:06.828Z,4,GR86-012-8,-2.9000000000000004,0.262,-0.099,100.01,2.0,6619.0,0.0,0.0,
2025-08-15T06:04:06.871Z,4,GR86-012-8,-2.9000000000000004,0.255,-0.083,100.01,2.0,,0.0,0.0,114.81
2025-08-15T06:04:06.914Z,4,GR86-012-8,-2.9000000000000004,0.275,-0.086,100.01,2.0,,0.0,0.0,
2025-08-15T06:04:06.957Z,4,GR86-012-8,-2.9000000000000004,0.26,-0.085,100.01,2.0,,0.0,0.0,
2025-08-15T06:04:07.001Z,4,GR86-012-8,-2.9000000000000004,0.245,-0.081,100.01,2.0,,0.0,0.0,
2025-08-15T06:04:07.044Z,4,GR86-012-8,-2.9000000000000004,0.263,-0.08,100.02,2.0,6700.0,0.0,0.0,
2025-08-15T06:04:07.088Z,4,GR86-012-8,-2.9000000000000004,0.267,-0.087,100.04,2.0,,0.0,0.0,116.15
2025-08-15T06:04:07.131Z,4,GR86-012-8,-2.9000000000000004,0.255,-0.089,99.99,2.0,,0.0,0.0,
2025-08-15T06:04:07.174Z,4,GR86-012-8,-2.9000000000000004,0.259,-0.089,99.98,2.0,,0.0,0.0,
2025-08-15T06:04:07.217Z,4,GR86-012-8,-2.9000000000000004,0.26,-0.101,100.0,2.0,,0.0,0.0,
2025-08-15T06:04:07.261Z,4,GR86-012-8,-2.8000000000000003,0.231,-0.11,100.01,2.0,6779.0,0.0,0.0,
2025-08-15T06:04:07.304Z,4,GR86-012-8,-2.4000000000000004,0.248,-0.097,100.02,2.0,,0.0,0.0,117.42
2025-08-15T06:04:07.348Z,4,GR86-012-8,-1.6,0.262,-0.101,100.0,2.0,,0.0,0.0,
2025-08-15T06:04:07.391Z,4,GR86-012-8,-1.3,0.269,-0.102,100.01,2.0,,0.0,0.0,
2025-08-15T06:04:07.434Z,4,GR86-012-8,-0.6000000000000001,0.248,-0.104,100.01,2.0,,0.0,0.0,
2025-08-15T06:04:07.478Z,4,GR86-012-8,-0.2,0.248,-0.086,100.0,2.0,6862.0,0.0,0.0,
2025-08-15T06:04:07.521Z,4,GR86-012-8,0.7000000000000001,0.251,-0.077,100.04,2.0,,0.0,0.0,118.59
2025-08-15T06:04:07.564Z,4,GR86-012-8,1.0,0.245,-0.051,100.01,2.0,,0.0,0.0,
2025-08-15T06:04:07.608Z,4,GR86-012-8,1.0,0.247,-0.043,100.0,2.0,,0.0,0.0,
2025-08-15T06:04:07.651Z,4,GR86-012-8,1.0,0.251,-0.04,100.01,2.0,,0.0,0.0,
2025-08-15T06:04:07.694Z,4,GR86-012-8,1.1,0.251,-0.034,99.96,2.0,6919.0,0.0,0.0,
2025-08-15T06:04:07.740Z,4,GR86-012-8,1.2000000000000002,0.241,-0.024,100.01,2.0,,0.0,0.0,120.98
2025-08-15T06:04:07.783Z,4,GR86-012-8,1.3,0.249,-0.008,100.0,2.0,,0.0,0.0,
2025-08-15T06:04:07.828Z,4,GR86-012-8,1.4,0.248,-0.014,100.01,2.0,,0.0,0.0,
2025-08-15T06:04:07.871Z,4,GR86-012-8,1.4,0.246,-0.008,100.03,2.0,,0.0,0.0,
2025-08-15T06:04:07.958Z,4,GR86-012-8,1.7000000000000002,0.23,-0.019,99.99,2.0,6989.0,0.0,0.0,122.16
2025-08-15T06:04:08.001Z,4,GR86-012-8,1.8,-0.143,0.028,100.01,3.0,,0.0,0.0,
2025-08-15T06:04:08.044Z,4,GR86-012-8,3.2,0.648,-0.011,100.01,3.0,,0.0,0.0,
2025-08-15T06:04:08.088Z,4,GR86-012-8,4.1000000000000005,0.495,0.013,99.97,3.0,,0.0,0.0,
2025-08-15T06:04:08.131Z,4,GR86-012-8,4.1000000000000005,0.25,0.054,100.0,3.0,5703.0,0.0,0.0,
2025-08-15T06:04:08.174Z,4,GR86-012-8,4.1000000000000005,0.031,0.006,99.99,3.0,,0.0,0.0,122.99
2025-08-15T06:04:08.217Z,4,GR86-012-8,4.2,0.088,0.086,100.0,3.0,,0.0,0.0,
2025-08-15T06:04:08.260Z,4,GR86-012-8,4.2,0.275,0.06,99.96,3.0,,0.0,0.0,
2025-08-15T06:04:08.303Z,4,GR86-012-8,4.2,0.311,0.083,99.99,3.0,,0.0,0.0,
2025-08-15T06:04:08.348Z,4,GR86-012-8,4.2,0.166,0.072,100.0,3.0,5782.0,0.0,0.0,
2025-08-15T06:04:08.391Z,4,GR86-012-8,4.2,0.14,0.052,100.0,3.0,,0.0,0.0,124.3
2025-08-15T06:04:08.434Z,4,GR86-012-8,4.2,0.215,0.082,100.0,3.0,,0.0,0.0,
2025-08-15T06:04:08.479Z,4,GR86-012-8,4.2,0.253,0.061,100.01,3.0,,0.0,0.0,
2025-08-15T06:04:08.522Z,4,GR86-012-8,4.1000000000000005,0.23,0.065,100.01,3.0,,0.0,0.0,
2025-08-15T06:04:08.565Z,4,GR86-012-8,4.2,0.183,0.058,99.99,3.0,5837.0,0.0,0.0,
2025-08-15T06:04:08.608Z,4,GR86-012-8,4.2,0.201,0.066,99.99,3.0,,0.0,0.0,125.12
2025-08-15T06:04:08.651Z,4,GR86-012-8,4.2,0.232,0.063,100.0,3.0,,0.0,0.0,
2025-08-15T06:04:08.694Z,4,GR86-012-8,4.2,0.212,0.06,100.0,3.0,,0.0,0.0,
2025-08-15T06:04:08.739Z,4,GR86-012-8,4.2,0.197,0.059,100.0,3.0,,0.0,0.0,
2025-08-15T06:04:08.782Z,4,GR86-012-8,3.8,0.21,0.077,100.01,3.0,5885.0,0.0,0.0,
2025-08-15T06:04:08.825Z,4,GR86-012-8,3.7,0.213,0.063,100.01,3.0,,0.0,0.0,125.98
2025-08-15T06:04:08.868Z,4,GR86-012-8,3.6,0.207,0.063,99.99,3.0,,0.0,0.0,
2025-08-15T06:04:08.911Z,4,GR86-012-8,3.6,0.187,0.062,99.99,3.0,,0.0,0.0,
2025-08-15T06:04:08.954Z,4,GR86-012-8,3.6,0.2,0.064,99.98,3.0,,0.0,0.0,
2025-08-15T06:04:08.998Z,4,GR86-012-8,3.6,0.217,0.069,99.5,3.0,5933.0,0.0,0.0,
2025-08-15T06:04:09.041Z,4,GR86-012-8,3.6,0.201,0.052,85.38,3.0,,0.0,0.0,126.86
2025-08-15T06:04:09.084Z,4,GR86-012-8,3.6,0.194,0.053,64.24,3.0,,0.0,0.0,
2025-08-15T06:04:09.128Z,4,GR86-012-8,3.6,0.191,0.052,50.69,3.0,,0.0,0.0,
2025-08-15T06:04:09.171Z,4,GR86-012-8,4.0,0.214,0.067,36.58,3.0,,0.0,0.0,
2025-08-15T06:04:09.214Z,4,GR86-012-8,4.6000000000000005,0.183,0.06,32.54,3.0,5979.0,0.0,0.0,
2025-08-15T06:04:09.257Z,4,GR86-012-8,5.4,0.136,0.059,30.78,3.0,,0.0,0.0,127.75
2025-08-15T06:04:09.301Z,4,GR86-012-8,5.6000000000000005,0.129,0.074,21.98,3.0,,0.0,0.0,
2025-08-15T06:04:09.344Z,4,GR86-012-8,5.6000000000000005,0.113,0.08,3.66,3.0,,0.0,0.0,
2025-08-15T06:04:09.388Z,4,GR86-012-8,5.6000000000000005,0.062,0.067,3.3200000000000003,3.0,,0.0,0.0,
2025-08-15T06:04:09.431Z,4,GR86-012-8,5.6000000000000005,-0.115,0.097,3.2,3.0,5983.0,0.0,0.0,
2025-08-15T06:04:09.474Z,4,GR86-012-8,5.6000000000000005,-0.131,0.057,3.09,3.0,,0.0,0.0,128.58
2025-08-15T06:04:09.517Z,4,GR86-012-8,5.6000000000000005,-0.295,0.073,3.0,3.0,,10.345,10.44,
2025-08-15T06:04:09.560Z,4,GR86-012-8,5.6000000000000005,-0.282,0.102,2.87,3.0,,23.15,22.735,
2025-08-15T06:04:09.603Z,4,GR86-012-8,6.0,-0.53,0.062,2.78,3.0,,36.73,36.03,
2025-08-15T06:04:09.648Z,4,GR86-012-8,6.9,-0.894,0.083,2.68,3.0,5740.0,56.875,55.545,
2025-08-15T06:04:09.691Z,4,GR86-012-8,8.3,-1.056,0.082,25.49,3.0,,66.045,64.84,128.95
2025-08-15T06:04:09.734Z,4,GR86-012-8,10.3,-1.221,0.085,57.46,2.0,,74.775,73.17,
2025-08-15T06:04:09.778Z,4,GR86-012-8,13.3,-1.329,0.087,6.7,2.0,,82.71000000000001,81.99,
2025-08-15T06:04:09.821Z,4,GR86-012-8,15.8,-1.294,0.176,4.17,2.0,,89.895,91.025,
2025-08-15T06:04:09.864Z,4,GR86-012-8,18.5,-1.446,0.047,3.62,2.0,5573.0,94.125,95.055,
2025-08-15T06:04:09.908Z,4,GR86-012-8,22.6,-1.094,0.148,3.29,2.0,,97.815,98.565,125.67
2025-08-15T06:04:09.951Z,4,GR86-012-8,25.200000000000003,-1.087,0.066,3.17,2.0,,97.405,98.99,
2025-08-15T06:04:10.039Z,4,GR86-012-8,26.4,-1.007,0.399,2.94,2.0,,81.58,82.295,
2025-08-15T06:04:10.082Z,4,GR86-012-8,29.8,-1.066,0.253,2.87,2.0,5597.0,80.315,81.49,
2025-08-15T06:04:10.125Z,4,GR86-012-8,35.300000000000004,-1.037,0.43,2.78,2.0,,73.965,74.83500000000001,114.61
2025-08-15T06:04:10.168Z,4,GR86-012-8,36.2,-0.987,0.496,2.72,2.0,,63.055,64.06,
2025-08-15T06:04:10.211Z,4,GR86-012-8,36.6,-0.942,0.351,2.65,2.0,,56.935,58.46,
2025-08-15T06:04:10.254Z,4,GR86-012-8,37.2,-0.884,0.624,2.61,2.0,,48.925,50.555,
2025-08-15T06:04:10.297Z,4,GR86-012-8,37.8,-0.791,0.678,2.59,2.0,5624.0,44.56,45.55,
2025-08-15T06:04:10.341Z,4,GR86-012-8,39.6,-0.99,0.561,2.58,2.0,,44.405,44.835,99.55
2025-08-15T06:04:10.384Z,4,GR86-012-8,41.0,-0.749,0.736,2.5500000000000003,2.0,,43.355,44.405,
2025-08-15T06:04:10.428Z,4,GR86-012-8,41.7,-0.81,0.6970000000000001,2.52,2.0,,40.745,41.14,
2025-08-15T06:04:10.471Z,4,GR86-012-8,42.7,-0.833,0.762,2.51,2.0,,38.625,39.31,
2025-08-15T06:04:10.514Z,4,GR86-012-8,44.2,-0.6920000000000001,0.798,2.51,2.0,5415.0,33.77,34.685,
2025-08-15T06:04:10.558Z,4,GR86-012-8,46.5,-0.662,0.791,2.49,2.0,,30.93,31.54,97.47
2025-08-15T06:04:10.601Z,4,GR86-012-8,50.0,-0.714,0.851,2.49,2.0,,29.62,30.075,
2025-08-15T06:04:10.644Z,4,GR86-012-8,54.1,-0.594,0.899,2.48,2.0,,26.69,27.405,
2025-08-15T06:04:10.688Z,4,GR86-012-8,60.5,-0.549,0.973,2.48,2.0,,22.995,23.655,
2025-08-15T06:04:10.731Z,4,GR86-012-8,62.7,-0.538,1.018,2.48,2.0,4905.0,22.615,23.15,
2025-08-15T06:04:10.774Z,4,GR86-012-8,62.7,-0.525,1.077,2.45,2.0,,20.905,21.715,92.92
2025-08-15T06:04:10.817Z,4,GR86-012-8,62.7,-0.438,1.108,2.46,2.0,,17.275000000000002,18.055,
2025-08-15T06:04:10.861Z,4,GR86-012-8,62.7,-0.385,1.148,2.45,2.0,,10.44,11.065,
2025-08-15T06:04:10.904Z,4,GR86-012-8,62.7,-0.353,1.144,2.45,2.0,,3.37,4.0,
2025-08-15T06:04:10.948Z,4,GR86-012-8,62.7,-0.212,1.22,2.45,2.0,4667.0,0.0,0.0,
2025-08-15T06:04:10.991Z,4,GR86-012-8,62.7,-0.199,1.226,2.45,2.0,,0.0,0.0,89.36
2025-08-15T06:04:11.034Z,4,GR86-012-8,62.7,-0.19,1.241,2.52,2.0,,0.0,0.0,
2025-08-15T06:04:11.078Z,4,GR86-012-8,62.7,-0.187,1.229,4.32,2.0,,0.0,0.0,
2025-08-15T06:04:11.121Z,4,GR86-012-8,63.2,-0.174,1.253,6.42,2.0,,0.0,0.0,
2025-08-15T06:04:11.164Z,4,GR86-012-8,65.0,-0.174,1.262,18.46,2.0,4721.0,0.0,0.0,
2025-08-15T06:04:11.251Z,4,GR86-012-8,70.5,-0.167,1.298,20.76,2.0,,0.0,0.0,87.37
2025-08-15T06:04:11.294Z,4,GR86-012-8,78.2,-0.141,1.338,23.75,2.0,,0.0,0.0,
2025-08-15T06:04:11.340Z,4,GR86-012-8,79.9,-0.124,1.318,27.83,2.0,,0.0,0.0,
2025-08-15T06:04:11.383Z,4,GR86-012-8,80.0,-0.122,1.33,28.84,2.0,4697.0,0.0,0.0,
2025-08-15T06:04:11.428Z,4,GR86-012-8,77.4,0.128,1.3,28.97,2.0,,0.0,0.0,85.59
2025-08-15T06:04:11.471Z,4,GR86-012-8,73.8,0.147,1.301,30.02,2.0,,0.0,0.0,
2025-08-15T06:04:11.514Z,4,GR86-012-8,68.2,0.181,1.254,31.39,2.0,,0.0,0.0,
2025-08-15T06:04:11.557Z,4,GR86-012-8,60.5,0.202,1.22,32.83,2.0,,0.0,0.0,
2025-08-15T06:04:11.601Z,4,GR86-012-8,53.2,0.162,1.269,34.6,2.0,5017.0,0.0,0.0,
2025-08-15T06:04:11.688Z,4,GR86-012-8,46.900000000000006,0.15,1.229,36.93,2.0,,0.0,0.0,84.46000000000001
2025-08-15T06:04:11.731Z,4,GR86-012-8,49.5,0.184,1.236,44.43,2.0,,0.0,0.0,
2025-08-15T06:04:11.774Z,4,GR86-012-8,55.3,0.18,1.23,49.32,2.0,,0.0,0.0,
2025-08-15T06:04:11.817Z,4,GR86-012-8,61.3,0.204,1.279,54.26,2.0,5005.0,0.0,0.0,
2025-08-15T06:04:11.860Z,4,GR86-012-8,64.3,0.194,1.24,56.97,2.0,,0.0,0.0,84.60000000000001
2025-08-15T06:04:11.903Z,4,GR86-012-8,63.5,0.199,1.246,57.71,2.0,,0.0,0.0,
2025-08-15T06:04:11.948Z,4,GR86-012-8,60.3,0.232,1.241,60.02,2.0,,0.0,0.0,
2025-08-15T06:04:11.991Z,4,GR86-012-8,57.5,0.231,1.271,69.60000000000001,2.0,,0.0,0.0,
2025-08-15T06:04:12.034Z,4,GR86-012-8,54.3,0.217,1.238,75.56,2.0,5106.0,0.0,0.0,
2025-08-15T06:04:12.078Z,4,GR86-012-8,51.1,0.209,1.244,76.9,2.0,,0.0,0.0,85.47
2025-08-15T06:04:12.121Z,4,GR86-012-8,47.6,0.222,1.216,86.16,2.0,,0.0,0.0,
2025-08-15T06:04:12.164Z,4,GR86-012-8,44.2,0.241,1.181,98.28,2.0,,0.0,0.0,
2025-08-15T06:04:12.208Z,4,GR86-012-8,37.1,0.247,1.207,100.1,2.0,,0.0,0.0,
2025-08-15T06:04:12.251Z,4,GR86-012-8,30.200000000000003,0.226,1.263,100.13,2.0,5208.0,0.0,0.0,
2025-08-15T06:04:12.294Z,4,GR86-012-8,23.3,0.233,1.216,100.12,2.0,,0.0,0.0,86.49
2025-08-15T06:04:12.339Z,4,GR86-012-8,17.1,0.243,1.18,100.11,2.0,,0.0,0.0,
2025-08-15T06:04:12.382Z,4,GR86-012-8,12.2,0.27,1.127,100.12,2.0,,0.0,0.0,
2025-08-15T06:04:12.425Z,4,GR86-012-8,6.6000000000000005,0.267,1.111,100.1,2.0,,0.0,0.0,
2025-08-15T06:04:12.468Z,4,GR86-012-8,-9.3,0.237,1.199,100.09,2.0,5331.0,0.0,0.0,
2025-08-15T06:04:12.511Z,4,GR86-012-8,-26.9,0.252,1.224,96.64,2.0,,0.0,0.0,87.81
2025-08-15T06:04:12.554Z,4,GR86-012-8,-43.8,0.28,1.151,78.62,2.0,,0.0,0.0,
2025-08-15T06:04:12.598Z,4,GR86-012-8,-54.400000000000006,0.291,1.002,82.62,2.0,,0.0,0.0,
2025-08-15T06:04:12.641Z,4,GR86-012-8,-59.0,0.28,1.002,97.44,2.0,,0.0,0.0,
2025-08-15T06:04:12.684Z,4,GR86-012-8,-60.5,0.334,1.033,100.06,2.0,5471.0,0.0,0.0,
2025-08-15T06:04:12.728Z,4,GR86-012-8,-66.0,0.312,1.025,100.11,2.0,,0.0,0.0,90.63
2025-08-15T06:04:12.771Z,4,GR86-012-8,-73.5,0.356,0.958,100.13,2.0,,0.0,0.0,
2025-08-15T06:04:12.814Z,4,GR86-012-8,-77.2,0.334,0.846,100.12,2.0,,0.0,0.0,
2025-08-15T06:04:12.857Z,4,GR86-012-8,-74.60000000000001,0.31,0.793,100.14,2.0,,0.0,0.0,
2025-08-15T06:04:12.901Z,4,GR86-012-8,-62.8,0.358,0.749,100.14,2.0,5555.0,0.0,0.0,
2025-08-15T06:04:12.944Z,4,GR86-012-8,-42.3,0.377,0.769,100.15,2.0,,0.0,0.0,90.82
2025-08-15T06:04:12.988Z,4,GR86-012-8,-10.0,0.377,0.8310000000000001,100.13,2.0,,0.0,0.0,
2025-08-15T06:04:13.031Z,4,GR86-012-8,6.1000000000000005,0.362,0.835,100.13,2.0,,0.0,0.0,
2025-08-15T06:04:13.074Z,4,GR86-012-8,14.0,0.319,0.664,100.13,2.0,,0.0,0.0,
2025-08-15T06:04:13.117Z,4,GR86-012-8,19.5,0.268,0.444,100.12,2.0,5553.0,0.0,0.0,
2025-08-15T06:04:13.160Z,4,GR86-012-8,24.5,0.222,0.263,100.12,2.0,,0.0,0.0,92.68
2025-08-15T06:04:13.203Z,4,GR86-012-8,28.4,0.24,0.19,100.1,2.0,,0.0,0.0,
2025-08-15T06:04:13.248Z,4,GR86-012-8,30.1,0.291,0.228,100.09,2.0,,0.0,0.0,
2025-08-15T06:04:13.291Z,4,GR86-012-8,31.1,0.287,0.291,100.11,2.0,,0.0,0.0,
2025-08-15T06:04:13.334Z,4,GR86-012-8,31.6,0.254,0.416,100.09,2.0,5511.0,0.0,0.0,
2025-08-15T06:04:13.378Z,4,GR86-012-8,31.3,0.223,0.509,100.1,2.0,,0.0,0.0,94.81
2025-08-15T06:04:13.421Z,4,GR86-012-8,28.700000000000003,0.253,0.581,100.1,2.0,,0.0,0.0,
2025-08-15T06:04:13.464Z,4,GR86-012-8,24.9,0.263,0.5710000000000001,100.1,2.0,,0.0,0.0,
2025-08-15T06:04:13.508Z,4,GR86-012-8,22.0,0.283,0.537,100.07,2.0,,0.0,0.0,
2025-08-15T06:04:13.551Z,4,GR86-012-8,22.5,0.287,0.519,100.09,2.0,5684.0,0.0,0.0,
2025-08-15T06:04:13.594Z,4,GR86-012-8,24.8,0.269,0.505,100.07,2.0,,0.0,0.0,96.95
2025-08-15T06:04:13.639Z,4,GR86-012-8,27.200000000000003,0.264,0.528,100.1,2.0,,0.0,0.0,
2025-08-15T06:04:13.682Z,4,GR86-012-8,28.3,0.256,0.527,100.08,2.0,,0.0,0.0,
2025-08-15T06:04:13.725Z,4,GR86-012-8,28.1,0.259,0.549,100.09,2.0,,0.0,0.0,
2025-08-15T06:04:13.768Z,4,GR86-012-8,27.4,0.272,0.546,100.07,2.0,5787.0,0.0,0.0,
2025-08-15T06:04:13.811Z,4,GR86-012-8,27.4,0.261,0.547,100.06,2.0,,0.0,0.0,99.07
2025-08-15T06:04:13.854Z,4,GR86-012-8,27.5,0.267,0.5720000000000001,100.07,2.0,,0.0,0.0,
2025-08-15T06:04:13.897Z,4,GR86-012-8,28.0,0.255,0.5700000000000001,100.08,2.0,,0.0,0.0,
2025-08-15T06:04:13.941Z,4,GR86-012-8,28.4,0.264,0.587,100.07,2.0,,0.0,0.0,
2025-08-15T06:04:13.984Z,4,GR86-012-8,29.0,0.264,0.599,100.08,2.0,5918.0,0.0,0.0,
2025-08-15T06:04:14.028Z,4,GR86-012-8,29.5,0.256,0.612,100.08,2.0,,0.0,0.0,101.2
2025-08-15T06:04:14.071Z,4,GR86-012-8,29.4,0.261,0.622,100.08,2.0,,0.0,0.0,
2025-08-15T06:04:14.114Z,4,GR86-012-8,29.0,0.264,0.627,100.06,2.0,,0.0,0.0,
2025-08-15T06:04:14.157Z,4,GR86-012-8,29.0,0.254,0.622,100.05,2.0,,0.0,0.0,
2025-08-15T06:04:14.201Z,4,GR86-012-8,28.6,0.269,0.635,100.04,2.0,6033.0,0.0,0.0,
2025-08-15T06:04:14.244Z,4,GR86-012-8,28.200000000000003,0.259,0.628,100.04,2.0,,0.0,0.0,103.3
2025-08-15T06:04:14.288Z,4,GR86-012-8,28.1,0.249,0.615,100.04,2.0,,0.0,0.0,
2025-08-15T06:04:14.331Z,4,GR86-012-8,28.1,0.253,0.619,100.04,2.0,,0.0,0.0,
2025-08-15T06:04:14.374Z,4,GR86-012-8,28.1,0.254,0.616,100.03,2.0,,0.0,0.0,
2025-08-15T06:04:14.417Z,4,GR86-012-8,28.1,0.255,0.626,100.03,2.0,6142.0,0.0,0.0,
2025-08-15T06:04:14.461Z,4,GR86-012-8,28.1,0.273,0.629,100.04,2.0,,0.0,0.0,105.35
2025-08-15T06:04:14.504Z,4,GR86-012-8,28.1,0.255,0.631,100.02,2.0,,0.0,0.0,
2025-08-15T06:04:14.548Z,4,GR86-012-8,28.1,0.234,0.648,100.01,2.0,,0.0,0.0,
2025-08-15T06:04:14.591Z,4,GR86-012-8,27.8,0.258,0.663,100.01,2.0,,0.0,0.0,
2025-08-15T06:04:14.634Z,4,GR86-012-8,27.5,0.246,0.663,100.01,2.0,6260.0,0.0,0.0,
2025-08-15T06:04:14.678Z,4,GR86-012-8,27.5,0.257,0.662,100.0,2.0,,0.0,0.0,107.39
