timestamp,lap,vehicle_id,steering_angle,accx_can,accy_can,ath,gear,nmot,pbrake_f,pbrake_r,speed
2025-08-15T01:29:07.962Z,1,GR86-016-55,2.8000000000000003,0.037,0.063,28.78,1.0,6177.0,8.33,8.455,
2025-08-15T01:29:08.005Z,1,GR86-016-55,2.8000000000000003,0.037,0.027,29.59,1.0,,8.09,8.27,83.44
2025-08-15T01:29:08.048Z,1,GR86-016-55,2.7,0.059,0.062,29.91,1.0,,8.33,8.425,
2025-08-15T01:29:08.091Z,1,GR86-016-55,2.7,0.087,0.023,30.04,1.0,,7.98,7.890000000000001,
2025-08-15T01:29:08.135Z,1,GR86-016-55,2.7,0.071,0.062,30.14,1.0,,8.01,8.425,
2025-08-15T01:29:08.178Z,1,GR86-016-55,2.7,0.072,0.019,30.94,1.0,6190.0,7.98,8.040000000000001,
2025-08-15T01:29:08.221Z,1,GR86-016-55,2.7,0.073,0.048,31.33,1.0,,8.21,8.425,83.54
2025-08-15T01:29:08.264Z,1,GR86-016-55,2.7,0.057,0.006,31.49,1.0,,7.98,8.09,
2025-08-15T01:29:08.350Z,1,GR86-016-55,2.7,0.069,0.039,31.69,1.0,,8.3,8.425,
2025-08-15T01:29:08.393Z,1,GR86-016-55,2.7,0.086,0.05,31.74,1.0,6199.0,8.545,8.76,
2025-08-15T01:29:08.436Z,1,GR86-016-55,2.7,0.083,0.024,31.72,1.0,,8.455,8.425,83.73
2025-08-15T01:29:08.478Z,1,GR86-016-55,2.7,0.074,0.051,31.72,1.0,,8.67,9.005,
2025-08-15T01:29:08.522Z,1,GR86-016-55,2.7,0.062,0.017,31.68,1.0,,8.36,8.425,
2025-08-15T01:29:08.565Z,1,GR86-016-55,2.7,0.069,0.055,31.65,1.0,,8.425,8.76,
2025-08-15T01:29:08.608Z,1,GR86-016-55,2.7,0.073,0.026,31.62,1.0,6205.0,8.33,8.425,
2025-08-15T01:29:08.651Z,1,GR86-016-55,2.7,0.078,0.06,31.57,1.0,,8.67,8.76,83.95
2025-08-15T01:29:08.694Z,1,GR86-016-55,2.7,0.068,0.023,31.43,1.0,,8.635,8.425,
2025-08-15T01:29:08.737Z,1,GR86-016-55,2.7,0.061,0.06,31.21,1.0,,8.76,9.065,
2025-08-15T01:29:08.780Z,1,GR86-016-55,2.7,0.064,0.032,30.35,1.0,,8.700000000000001,8.76,
2025-08-15T01:29:08.823Z,1,GR86-016-55,2.7,0.067,0.058,29.56,1.0,6237.0,9.4,9.49,
2025-08-15T01:29:08.866Z,1,GR86-016-55,2.7,0.047,0.029,29.47,1.0,,10.025,9.845,84.24
2025-08-15T01:29:08.908Z,1,GR86-016-55,2.7,0.028,0.049,29.69,1.0,,11.155,10.985,
2025-08-15T01:29:08.952Z,1,GR86-016-55,2.7,0.005,0.017,29.73,1.0,,12.115,11.81,
2025-08-15T01:29:08.995Z,1,GR86-016-55,2.7,-0.018,0.042,29.76,1.0,,12.56,12.62,
2025-08-15T01:29:09.038Z,1,GR86-016-55,2.6,-0.017,0.004,29.75,1.0,6273.0,12.805,12.62,
2025-08-15T01:29:09.081Z,1,GR86-016-55,2.6,-0.014,0.04,29.71,1.0,,13.245,13.335,84.5
2025-08-15T01:29:09.124Z,1,GR86-016-55,2.6,-0.016,0.007,29.68,1.0,,12.895,12.74,
2025-08-15T01:29:09.167Z,1,GR86-016-55,2.6,-0.015,0.022,29.59,1.0,,13.245,13.335,
2025-08-15T01:29:09.210Z,1,GR86-016-55,2.6,-0.007,0.002,29.49,1.0,,12.955,12.955,
2025-08-15T01:29:09.252Z,1,GR86-016-55,2.6,-0.022,0.033,29.43,1.0,6261.0,13.08,13.275,
2025-08-15T01:29:09.296Z,1,GR86-016-55,2.6,-0.02,0.002,29.44,1.0,,13.08,12.955,84.57000000000001
2025-08-15T01:29:09.340Z,1,GR86-016-55,2.6,-0.03,0.019,29.61,1.0,,13.245,13.335,
2025-08-15T01:29:09.383Z,1,GR86-016-55,2.6,-0.032,0.01,29.71,1.0,,12.985,12.955,
2025-08-15T01:29:09.426Z,1,GR86-016-55,2.6,-0.026,0.035,30.14,1.0,,13.43,13.52,
2025-08-15T01:29:09.468Z,1,GR86-016-55,2.6,-0.023,0.028,30.53,1.0,6223.0,13.08,12.955,
2025-08-15T01:29:09.512Z,1,GR86-016-55,2.6,-0.016,0.04,30.88,1.0,,12.955,13.08,84.29
2025-08-15T01:29:09.555Z,1,GR86-016-55,2.6,-0.009,0.02,31.22,1.0,,12.775,12.74,
2025-08-15T01:29:09.598Z,1,GR86-016-55,2.6,-0.012,0.033,31.34,1.0,,12.925,13.14,
2025-08-15T01:29:09.641Z,1,GR86-016-55,2.6,-0.009,0.017,31.37,1.0,,12.56,12.62,
2025-08-15T01:29:09.687Z,1,GR86-016-55,2.6,-0.007,0.034,31.4,1.0,6212.0,13.015,13.37,
2025-08-15T01:29:09.732Z,1,GR86-016-55,2.6,0.006,0.023,31.36,1.0,,12.895,12.895,83.88
2025-08-15T01:29:09.775Z,1,GR86-016-55,2.6,-0.007,0.051,31.33,1.0,,13.245,13.245,
2025-08-15T01:29:09.818Z,1,GR86-016-55,2.6,-0.008,0.022,31.27,1.0,,13.11,12.955,
2025-08-15T01:29:09.861Z,1,GR86-016-55,2.7,-0.018,0.051,31.05,1.0,,13.58,13.64,
2025-08-15T01:29:09.904Z,1,GR86-016-55,2.7,-0.011,0.034,30.94,1.0,6191.0,13.335,13.045,
2025-08-15T01:29:09.947Z,1,GR86-016-55,2.8000000000000003,-0.014,0.042,30.88,1.0,,13.58,13.765,83.54
2025-08-15T01:29:09.992Z,1,GR86-016-55,2.8000000000000003,-0.012,0.028,30.94,1.0,,13.245,13.335,
2025-08-15T01:29:10.036Z,1,GR86-016-55,2.8000000000000003,-0.023,0.049,31.1,1.0,,13.58,13.675,
2025-08-15T01:29:10.078Z,1,GR86-016-55,2.8000000000000003,-0.02,0.034,31.41,1.0,,13.245,13.335,
2025-08-15T01:29:10.122Z,1,GR86-016-55,2.8000000000000003,-0.021,0.044,32.46,1.0,6162.0,13.46,13.675,
2025-08-15T01:29:10.165Z,1,GR86-016-55,2.8000000000000003,-0.012,0.036,32.63,1.0,,13.045,13.245,83.24
2025-08-15T01:29:10.208Z,1,GR86-016-55,2.9000000000000004,0.017,0.044,32.7,1.0,,13.08,13.4,
2025-08-15T01:29:10.251Z,1,GR86-016-55,3.0,0.005,0.035,32.63,1.0,,13.245,13.045,
2025-08-15T01:29:10.294Z,1,GR86-016-55,3.0,-0.001,0.044,32.61,1.0,,13.58,13.795,
2025-08-15T01:29:10.337Z,1,GR86-016-55,3.2,0.019,0.051,32.59,1.0,6140.0,13.335,13.335,
2025-08-15T01:29:10.380Z,1,GR86-016-55,3.2,0.011,0.049,32.56,1.0,,13.64,13.705,82.92
2025-08-15T01:29:10.423Z,1,GR86-016-55,3.3000000000000003,0.002,0.056,32.59,1.0,,13.55,13.46,
2025-08-15T01:29:10.466Z,1,GR86-016-55,3.4000000000000004,0.003,0.048,32.67,1.0,,13.245,13.675,
2025-08-15T01:29:10.508Z,1,GR86-016-55,3.4000000000000004,0.005,0.063,32.94,1.0,,13.4,13.335,
2025-08-15T01:29:10.552Z,1,GR86-016-55,3.5,0.004,0.047,34.02,1.0,6123.0,13.11,13.49,
2025-08-15T01:29:10.595Z,1,GR86-016-55,3.6,0.021,0.052,34.22,1.0,,12.985,13.08,82.60000000000001
2025-08-15T01:29:10.638Z,1,GR86-016-55,3.6,0.033,0.064,34.25,1.0,,13.245,13.675,
2025-08-15T01:29:10.682Z,1,GR86-016-55,3.7,0.019,0.068,34.36,1.0,,13.55,13.46,
2025-08-15T01:29:10.726Z,1,GR86-016-55,3.7,0.018,0.045,34.72,1.0,,13.58,13.705,
2025-08-15T01:29:10.768Z,1,GR86-016-55,3.7,0.008,0.073,35.25,1.0,6100.0,13.245,13.43,
2025-08-15T01:29:10.812Z,1,GR86-016-55,3.7,0.038,0.066,35.96,1.0,,12.055,12.59,82.32000000000001
2025-08-15T01:29:10.855Z,1,GR86-016-55,3.7,0.058,0.066,36.08,1.0,,11.87,11.935,
2025-08-15T01:29:10.898Z,1,GR86-016-55,3.7,0.051,0.047,36.28,1.0,,11.84,12.3,
2025-08-15T01:29:10.941Z,1,GR86-016-55,3.7,0.043,0.063,38.77,1.0,,11.78,11.935,
2025-08-15T01:29:10.984Z,1,GR86-016-55,3.7,0.053,0.03,50.13,1.0,6098.0,10.085,10.53,
2025-08-15T01:29:11.027Z,1,GR86-016-55,3.7,0.126,0.035,61.71,1.0,,4.21,4.835,82.10000000000001
2025-08-15T01:29:11.070Z,1,GR86-016-55,3.6,0.3,0.058,58.620000000000005,1.0,,0.0,0.0,
2025-08-15T01:29:11.114Z,1,GR86-016-55,3.6,0.328,0.075,54.51,1.0,,0.0,0.0,
2025-08-15T01:29:11.158Z,1,GR86-016-55,3.6,0.36,0.08,43.14,1.0,,2.61,2.61,
2025-08-15T01:29:11.201Z,1,GR86-016-55,3.6,0.308,0.111,38.13,1.0,6075.0,7.325,7.08,
2025-08-15T01:29:11.244Z,1,GR86-016-55,3.6,0.141,0.087,37.94,1.0,,12.42,12.175,81.91
2025-08-15T01:29:11.287Z,1,GR86-016-55,3.6,0.01,0.083,37.96,1.0,,15.03,14.635,
2025-08-15T01:29:11.332Z,1,GR86-016-55,3.6,-0.039,0.061,37.93,1.0,,16.895,16.740000000000002,
2025-08-15T01:29:11.375Z,1,GR86-016-55,3.6,-0.061,0.052,38.01,1.0,,17.09,16.895,
2025-08-15T01:29:11.418Z,1,GR86-016-55,3.6,-0.025,0.026,38.21,1.0,6097.0,17.09,17.185,
2025-08-15T01:29:11.461Z,1,GR86-016-55,3.6,-0.011,0.025,38.74,1.0,,16.895,16.8,83.05
2025-08-15T01:29:11.505Z,1,GR86-016-55,3.6,0.004,0.032,38.97,1.0,,16.435,16.8,
2025-08-15T01:29:11.548Z,1,GR86-016-55,3.6,-0.009,0.028,38.97,1.0,,16.77,16.8,
2025-08-15T01:29:11.591Z,1,GR86-016-55,3.6,-0.027,0.045,39.01,1.0,,17.78,17.81,
2025-08-15T01:29:11.635Z,1,GR86-016-55,3.6,-0.028,0.061,39.06,1.0,6249.0,17.78,17.55,
2025-08-15T01:29:11.678Z,1,GR86-016-55,3.7,-0.024,0.059,39.07,1.0,,17.425,17.81,83.73
2025-08-15T01:29:11.721Z,1,GR86-016-55,3.9,-0.016,0.073,39.07,1.0,,17.425,17.490000000000002,
2025-08-15T01:29:11.764Z,1,GR86-016-55,4.3,-0.031,0.058,39.18,1.0,,17.215,17.490000000000002,
2025-08-15T01:29:11.807Z,1,GR86-016-55,4.5,-0.046,0.069,48.9,1.0,,16.71,17.0,
2025-08-15T01:29:11.850Z,1,GR86-016-55,4.6000000000000005,0.065,0.066,94.51,1.0,6199.0,6.545,7.11,
2025-08-15T01:29:11.893Z,1,GR86-016-55,4.4,0.265,0.089,100.09,1.0,,0.0,0.0,83.45
2025-08-15T01:29:11.937Z,1,GR86-016-55,4.4,0.312,0.093,100.16,1.0,,0.0,0.0,
2025-08-15T01:29:11.980Z,1,GR86-016-55,4.3,0.341,0.101,100.14,1.0,,0.0,0.0,
2025-08-15T01:29:12.026Z,1,GR86-016-55,4.3,0.337,0.097,100.14,1.0,,0.0,0.0,
2025-08-15T01:29:12.069Z,1,GR86-016-55,4.2,0.317,0.103,100.15,1.0,6147.0,0.0,0.0,
2025-08-15T01:29:12.112Z,1,GR86-016-55,4.1000000000000005,0.268,0.097,100.14,1.0,,0.0,0.0,83.08
2025-08-15T01:29:12.155Z,1,GR86-016-55,4.1000000000000005,0.269,0.103,100.16,1.0,,0.0,0.0,
2025-08-15T01:29:12.198Z,1,GR86-016-55,4.1000000000000005,0.28,0.091,100.15,1.0,,0.0,0.0,
2025-08-15T01:29:12.242Z,1,GR86-016-55,3.6,0.301,0.083,100.15,1.0,,0.0,0.0,
2025-08-15T01:29:12.286Z,1,GR86-016-55,1.8,0.313,0.064,100.16,1.0,6273.0,0.0,0.0,
2025-08-15T01:29:12.329Z,1,GR86-016-55,0.9,0.491,0.014,100.14,1.0,,0.0,0.0,83.75
2025-08-15T01:29:12.372Z,1,GR86-016-55,0.7000000000000001,0.994,-0.039,100.14,1.0,,0.0,0.0,
2025-08-15T01:29:12.415Z,1,GR86-016-55,0.7000000000000001,1.16,-0.024,100.14,1.0,,0.0,0.0,
2025-08-15T01:29:12.458Z,1,GR86-016-55,0.7000000000000001,0.499,0.035,100.15,1.0,,0.0,0.0,
2025-08-15T01:29:12.501Z,1,GR86-016-55,0.7000000000000001,0.279,0.077,100.16,1.0,6424.0,0.0,0.0,
2025-08-15T01:29:12.544Z,1,GR86-016-55,0.7000000000000001,0.33,0.043,100.15,1.0,,0.0,0.0,85.51
2025-08-15T01:29:12.587Z,1,GR86-016-55,0.9,0.38,0.029,100.15,1.0,,0.0,0.0,
2025-08-15T01:29:12.632Z,1,GR86-016-55,1.0,0.374,0.028,100.12,1.0,,0.0,0.0,
2025-08-15T01:29:12.675Z,1,GR86-016-55,1.4,0.312,0.055,100.12,1.0,,0.0,0.0,
2025-08-15T01:29:12.718Z,1,GR86-016-55,2.1,0.266,0.066,100.12,1.0,6630.0,0.0,0.0,
2025-08-15T01:29:12.761Z,1,GR86-016-55,2.2,0.251,0.089,100.11,1.0,,0.0,0.0,87.53
2025-08-15T01:29:12.804Z,1,GR86-016-55,2.2,0.292,0.093,100.12,1.0,,0.0,0.0,
2025-08-15T01:29:12.847Z,1,GR86-016-55,2.0,0.32,0.082,100.08,1.0,,0.0,0.0,
2025-08-15T01:29:12.890Z,1,GR86-016-55,1.2000000000000002,0.341,0.069,100.09,1.0,,0.0,0.0,
2025-08-15T01:29:12.933Z,1,GR86-016-55,0.9,0.311,0.049,100.09,1.0,6946.0,0.0,0.0,
2025-08-15T01:29:12.976Z,1,GR86-016-55,0.9,0.298,0.046,100.1,1.0,,0.0,0.0,91.93
2025-08-15T01:29:13.019Z,1,GR86-016-55,0.8,0.28,0.032,100.12,1.0,,0.0,0.0,
2025-08-15T01:29:13.062Z,1,GR86-016-55,0.7000000000000001,0.293,0.032,100.12,1.0,,0.0,0.0,
2025-08-15T01:29:13.105Z,1,GR86-016-55,0.6000000000000001,0.316,0.019,100.08,1.0,,0.0,0.0,
2025-08-15T01:29:13.148Z,1,GR86-016-55,0.5,0.305,0.009,100.08,1.0,7116.0,0.0,0.0,
2025-08-15T01:29:13.191Z,1,GR86-016-55,0.5,0.262,-0.006,100.08,1.0,,0.0,0.0,94.39
2025-08-15T01:29:13.235Z,1,GR86-016-55,0.5,0.203,-0.013,100.08,1.0,,0.0,0.0,
2025-08-15T01:29:13.278Z,1,GR86-016-55,0.5,-0.014,0.009,100.07,2.0,,0.0,0.0,
2025-08-15T01:29:13.321Z,1,GR86-016-55,0.4,0.762,0.071,100.07,2.0,,0.0,0.0,
2025-08-15T01:29:13.364Z,1,GR86-016-55,0.4,0.726,-0.113,100.09,2.0,7227.0,0.0,0.0,
2025-08-15T01:29:13.407Z,1,GR86-016-55,0.3,0.627,0.05,100.08,2.0,,0.0,0.0,96.35
2025-08-15T01:29:13.450Z,1,GR86-016-55,0.3,0.203,-0.092,100.09,2.0,,0.0,0.0,
2025-08-15T01:29:13.493Z,1,GR86-016-55,0.2,-0.005,0.031,100.08,2.0,,0.0,0.0,
2025-08-15T01:29:13.537Z,1,GR86-016-55,0.1,0.052,0.057,100.06,2.0,,0.0,0.0,
2025-08-15T01:29:13.580Z,1,GR86-016-55,0.1,0.315,-0.049,100.07,2.0,7291.0,0.0,0.0,
2025-08-15T01:29:13.623Z,1,GR86-016-55,0.1,0.473,0.074,100.06,2.0,,0.0,0.0,98.25
2025-08-15T01:29:13.666Z,1,GR86-016-55,-0.1,0.363,-0.005,100.05,2.0,,0.0,0.0,
2025-08-15T01:29:13.709Z,1,GR86-016-55,-0.1,0.226,0.018,100.05,2.0,,0.0,0.0,
2025-08-15T01:29:13.752Z,1,GR86-016-55,-0.2,0.185,0.018,100.06,2.0,,0.0,0.0,
2025-08-15T01:29:13.795Z,1,GR86-016-55,-0.2,0.268,-0.019,100.06,2.0,5667.0,0.0,0.0,
2025-08-15T01:29:13.838Z,1,GR86-016-55,-0.2,0.352,-0.001,100.06,2.0,,0.0,0.0,102.68
2025-08-15T01:29:13.881Z,1,GR86-016-55,-0.2,0.333,-0.01,100.05,2.0,,0.0,0.0,
2025-08-15T01:29:13.924Z,1,GR86-016-55,-0.2,0.248,0.008,100.05,2.0,,0.0,0.0,
2025-08-15T01:29:13.967Z,1,GR86-016-55,-0.2,0.231,0.018,100.03,2.0,,0.0,0.0,
2025-08-15T01:29:14.010Z,1,GR86-016-55,-0.2,0.277,0.011,100.04,2.0,5986.0,0.0,0.0,
2025-08-15T01:29:14.052Z,1,GR86-016-55,-0.2,0.301,0.022,100.06,2.0,,0.0,0.0,104.5
2025-08-15T01:29:14.096Z,1,GR86-016-55,-0.1,0.316,0.032,100.05,2.0,,0.0,0.0,
2025-08-15T01:29:14.139Z,1,GR86-016-55,-0.1,0.262,0.036,100.04,2.0,,0.0,0.0,
2025-08-15T01:29:14.182Z,1,GR86-016-55,-0.1,0.245,0.05,100.05,2.0,,0.0,0.0,
2025-08-15T01:29:14.268Z,1,GR86-016-55,-0.1,0.257,0.038,100.05,2.0,6105.0,0.0,0.0,106.27
2025-08-15T01:29:14.312Z,1,GR86-016-55,-0.1,0.287,0.037,100.04,2.0,,0.0,0.0,
2025-08-15T01:29:14.355Z,1,GR86-016-55,-0.1,0.285,0.032,99.99,2.0,,0.0,0.0,
2025-08-15T01:29:14.398Z,1,GR86-016-55,-0.1,0.251,-0.004,100.04,2.0,,0.0,0.0,
2025-08-15T01:29:14.441Z,1,GR86-016-55,-0.2,0.269,0.017,100.0,2.0,6243.0,0.0,0.0,
2025-08-15T01:29:14.485Z,1,GR86-016-55,-0.2,0.259,-0.025,100.0,2.0,,0.0,0.0,107.99
2025-08-15T01:29:14.528Z,1,GR86-016-55,-0.2,0.257,0.0,99.99,2.0,,0.0,0.0,
2025-08-15T01:29:14.571Z,1,GR86-016-55,-0.2,0.273,0.019,100.0,2.0,,0.0,0.0,
2025-08-15T01:29:14.614Z,1,GR86-016-55,-0.2,0.286,0.016,99.99,2.0,,0.0,0.0,
2025-08-15T01:29:14.657Z,1,GR86-016-55,-0.2,0.256,0.017,99.96,2.0,6325.0,0.0,0.0,
2025-08-15T01:29:14.700Z,1,GR86-016-55,-0.2,0.265,0.024,99.99,2.0,,0.0,0.0,109.6
2025-08-15T01:29:14.743Z,1,GR86-016-55,-0.2,0.246,-0.002,99.97,2.0,,0.0,0.0,
2025-08-15T01:29:14.786Z,1,GR86-016-55,-0.2,0.243,0.007,99.99,2.0,,0.0,0.0,
2025-08-15T01:29:14.828Z,1,GR86-016-55,-0.2,0.271,0.02,99.98,2.0,,0.0,0.0,
2025-08-15T01:29:14.872Z,1,GR86-016-55,0.2,0.262,0.025,100.0,2.0,6411.0,0.0,0.0,
2025-08-15T01:29:14.958Z,1,GR86-016-55,1.5,0.259,0.039,100.0,2.0,,0.0,0.0,111.34
2025-08-15T01:29:15.001Z,1,GR86-016-55,2.1,0.268,0.079,99.98,2.0,,0.0,0.0,
2025-08-15T01:29:15.044Z,1,GR86-016-55,2.1,0.255,0.098,100.0,2.0,,0.0,0.0,
2025-08-15T01:29:15.087Z,1,GR86-016-55,2.1,0.277,0.093,99.96,2.0,6523.0,0.0,0.0,
2025-08-15T01:29:15.132Z,1,GR86-016-55,1.8,0.26,0.079,99.97,2.0,,0.0,0.0,112.95
2025-08-15T01:29:15.175Z,1,GR86-016-55,1.7000000000000002,0.249,0.071,99.99,2.0,,0.0,0.0,
2025-08-15T01:29:15.218Z,1,GR86-016-55,1.4,0.265,0.073,100.02,2.0,,0.0,0.0,
2025-08-15T01:29:15.261Z,1,GR86-016-55,0.9,0.275,0.044,99.99,2.0,,0.0,0.0,
2025-08-15T01:29:15.304Z,1,GR86-016-55,0.5,0.263,0.032,100.0,2.0,6614.0,0.0,0.0,
2025-08-15T01:29:15.347Z,1,GR86-016-55,0.5,0.265,0.041,100.02,2.0,,0.0,0.0,114.74
2025-08-15T01:29:15.392Z,1,GR86-016-55,0.5,0.266,0.011,100.01,2.0,,0.0,0.0,
2025-08-15T01:29:15.436Z,1,GR86-016-55,0.5,0.261,-0.019,100.04,2.0,,0.0,0.0,
2025-08-15T01:29:15.478Z,1,GR86-016-55,0.7000000000000001,0.239,-0.003,100.02,2.0,,0.0,0.0,
2025-08-15T01:29:15.522Z,1,GR86-016-55,1.3,0.261,0.031,100.01,2.0,6712.0,0.0,0.0,
2025-08-15T01:29:15.565Z,1,GR86-016-55,1.3,0.269,0.033,99.99,2.0,,0.0,0.0,116.27
2025-08-15T01:29:15.608Z,1,GR86-016-55,1.2000000000000002,0.263,0.043,99.96,2.0,,0.0,0.0,
2025-08-15T01:29:15.651Z,1,GR86-016-55,1.2000000000000002,0.252,0.076,100.0,2.0,,0.0,0.0,
2025-08-15T01:29:15.694Z,1,GR86-016-55,1.2000000000000002,0.256,0.056,100.01,2.0,,0.0,0.0,
2025-08-15T01:29:15.737Z,1,GR86-016-55,1.2000000000000002,0.249,0.037,100.02,2.0,6794.0,0.0,0.0,
2025-08-15T01:29:15.780Z,1,GR86-016-55,1.2000000000000002,0.272,0.079,100.01,2.0,,0.0,0.0,117.91
2025-08-15T01:29:15.823Z,1,GR86-016-55,1.2000000000000002,0.261,0.068,99.99,2.0,,0.0,0.0,
2025-08-15T01:29:15.866Z,1,GR86-016-55,1.2000000000000002,0.231,0.053,100.01,2.0,,0.0,0.0,
2025-08-15T01:29:15.909Z,1,GR86-016-55,1.1,0.253,0.048,100.0,2.0,,0.0,0.0,
2025-08-15T01:29:15.952Z,1,GR86-016-55,1.1,0.266,0.044,100.0,2.0,6881.0,0.0,0.0,
2025-08-15T01:29:15.995Z,1,GR86-016-55,1.1,0.259,0.068,99.99,2.0,,0.0,0.0,119.57
2025-08-15T01:29:16.038Z,1,GR86-016-55,1.1,0.244,0.065,99.96,2.0,,0.0,0.0,
2025-08-15T01:29:16.082Z,1,GR86-016-55,1.1,0.238,0.038,99.99,2.0,,0.0,0.0,
2025-08-15T01:29:16.125Z,1,GR86-016-55,1.1,0.255,0.076,100.0,2.0,,0.0,0.0,
