timestamp,lap,vehicle_id,steering_angle,accx_can,accy_can,ath,gear,nmot,pbrake_f,pbrake_r,speed
2025-08-15T01:39:27.994Z,13,GR86-035-11,1.5,0.149,-0.065,99.63,5.0,,0.0,0.0,
2025-08-15T01:39:28.036Z,13,GR86-035-11,1.5,0.056,-0.079,99.62,5.0,6227.0,0.0,0.0,
2025-08-15T01:39:28.081Z,13,GR86-035-11,1.5,0.089,-0.075,99.62,5.0,,0.0,0.0,185.08
2025-08-15T01:39:28.124Z,13,GR86-035-11,1.5,0.112,-0.07,99.64,5.0,,0.0,0.0,
2025-08-15T01:39:28.210Z,13,GR86-035-11,1.5,0.083,-0.094,99.64,5.0,,0.0,0.0,
2025-08-15T01:39:28.254Z,13,GR86-035-11,1.5,0.097,-0.067,99.63,5.0,6324.0,0.0,0.0,
2025-08-15T01:39:28.297Z,13,GR86-035-11,1.5,0.076,-0.03,99.62,5.0,,0.0,0.0,185.69
2025-08-15T01:39:28.341Z,13,GR86-035-11,1.5,0.089,-0.073,99.63,5.0,,0.0,0.0,
2025-08-15T01:39:28.384Z,13,GR86-035-11,1.5,0.084,-0.052,99.63,5.0,,0.0,0.0,
2025-08-15T01:39:28.427Z,13,GR86-035-11,1.5,0.093,-0.051,99.63,5.0,,0.0,0.0,
2025-08-15T01:39:28.470Z,13,GR86-035-11,1.5,0.092,-0.016,99.64,5.0,6343.0,0.0,0.0,
2025-08-15T01:39:28.514Z,13,GR86-035-11,1.5,0.077,-0.061,99.64,5.0,,0.0,0.0,187.01
2025-08-15T01:39:28.557Z,13,GR86-035-11,1.5,0.085,-0.046,99.62,5.0,,0.0,0.0,
2025-08-15T01:39:28.600Z,13,GR86-035-11,1.5,0.099,-0.045,99.63,5.0,,0.0,0.0,
2025-08-15T01:39:28.643Z,13,GR86-035-11,1.5,0.083,-0.048,99.62,5.0,,0.0,0.0,
2025-08-15T01:39:28.687Z,13,GR86-035-11,1.5,0.084,-0.04,99.62,5.0,6366.0,0.0,0.0,
2025-08-15T01:39:28.730Z,13,GR86-035-11,1.5,0.086,-0.039,99.63,5.0,,0.0,0.0,187.74
2025-08-15T01:39:28.773Z,13,GR86-035-11,1.5,0.082,-0.025,99.63,5.0,,0.0,0.0,
2025-08-15T01:39:28.816Z,13,GR86-035-11,1.5,0.096,-0.06,99.64,5.0,,0.0,0.0,
2025-08-15T01:39:28.858Z,13,GR86-035-11,1.5,0.081,-0.037,99.61,5.0,,0.0,0.0,
2025-08-15T01:39:28.904Z,13,GR86-035-11,1.5,0.087,-0.075,99.63,5.0,6406.0,0.0,0.0,
2025-08-15T01:39:28.946Z,13,GR86-035-11,1.5,0.09,-0.04,99.64,5.0,,0.0,0.0,188.38
2025-08-15T01:39:28.990Z,13,GR86-035-11,1.5,0.101,-0.064,99.63,5.0,,0.0,0.0,
2025-08-15T01:39:29.033Z,13,GR86-035-11,1.5,0.08,-0.052,99.64,5.0,,0.0,0.0,
2025-08-15T01:39:29.076Z,13,GR86-035-11,1.5,0.092,-0.067,99.63,5.0,,0.0,0.0,
2025-08-15T01:39:29.118Z,13,GR86-035-11,1.5,0.085,-0.075,99.62,5.0,6435.0,0.0,0.0,
2025-08-15T01:39:29.162Z,13,GR86-035-11,1.5,0.089,-0.045,99.64,5.0,,0.0,0.0,189.1
2025-08-15T01:39:29.206Z,13,GR86-035-11,1.5,0.108,-0.044,99.61,5.0,,0.0,0.0,
2025-08-15T01:39:29.248Z,13,GR86-035-11,1.5,0.09,-0.053,99.63,5.0,,0.0,0.0,
2025-08-15T01:39:29.292Z,13,GR86-035-11,1.5,0.1,-0.069,99.63,5.0,,0.0,0.0,
2025-08-15T01:39:29.334Z,13,GR86-035-11,1.5,0.077,-0.068,99.63,5.0,6457.0,0.0,0.0,
2025-08-15T01:39:29.377Z,13,GR86-035-11,1.5,0.107,-0.053,99.64,5.0,,0.0,0.0,189.81
2025-08-15T01:39:29.420Z,13,GR86-035-11,1.5,0.071,-0.069,99.62,5.0,,0.0,0.0,
2025-08-15T01:39:29.464Z,13,GR86-035-11,1.5,0.068,-0.058,99.62,5.0,,0.0,0.0,
2025-08-15T01:39:29.506Z,13,GR86-035-11,1.5,0.115,-0.034,99.63,5.0,,0.0,0.0,
2025-08-15T01:39:29.550Z,13,GR86-035-11,1.5,0.082,-0.041,99.63,5.0,6476.0,0.0,0.0,
2025-08-15T01:39:29.593Z,13,GR86-035-11,1.5,0.101,-0.028,99.64,5.0,,0.0,0.0,190.49
2025-08-15T01:39:29.636Z,13,GR86-035-11,1.7000000000000002,0.089,-0.024,99.63,5.0,,0.0,0.0,
2025-08-15T01:39:29.678Z,13,GR86-035-11,2.1,0.101,-0.015,99.63,5.0,,0.0,0.0,
2025-08-15T01:39:29.724Z,13,GR86-035-11,2.1,0.101,-0.045,99.64,5.0,,0.0,0.0,
2025-08-15T01:39:29.766Z,13,GR86-035-11,2.1,0.065,-0.024,99.62,5.0,6512.0,0.0,0.0,
2025-08-15T01:39:29.810Z,13,GR86-035-11,2.0,0.091,-0.062,99.64,5.0,,0.0,0.0,191.14
2025-08-15T01:39:29.853Z,13,GR86-035-11,2.0,0.082,-0.012,99.64,5.0,,0.0,0.0,
2025-08-15T01:39:29.896Z,13,GR86-035-11,2.0,0.079,-0.033,99.63,5.0,,0.0,0.0,
2025-08-15T01:39:29.938Z,13,GR86-035-11,2.0,0.108,-0.051,99.62,5.0,,0.0,0.0,
2025-08-15T01:39:29.982Z,13,GR86-035-11,2.0,0.08,-0.049,99.63,5.0,6531.0,0.0,0.0,
2025-08-15T01:39:30.024Z,13,GR86-035-11,2.0,0.079,-0.029,99.63,5.0,,0.0,0.0,191.9
2025-08-15T01:39:30.067Z,13,GR86-035-11,2.0,0.074,-0.033,99.62,5.0,,0.0,0.0,
2025-08-15T01:39:30.110Z,13,GR86-035-11,2.0,0.075,-0.022,99.63,5.0,,0.0,0.0,
2025-08-15T01:39:30.154Z,13,GR86-035-11,2.0,0.097,-0.06,99.6,5.0,,0.0,0.0,
2025-08-15T01:39:30.196Z,13,GR86-035-11,2.0,0.08,-0.027,99.63,5.0,6552.0,0.0,0.0,
2025-08-15T01:39:30.241Z,13,GR86-035-11,2.0,0.109,-0.029,99.64,5.0,,0.0,0.0,192.56
2025-08-15T01:39:30.284Z,13,GR86-035-11,2.0,0.085,-0.029,99.63,5.0,,0.0,0.0,
2025-08-15T01:39:30.326Z,13,GR86-035-11,2.0,0.081,-0.035,99.63,5.0,,0.0,0.0,
2025-08-15T01:39:30.370Z,13,GR86-035-11,1.9,0.063,-0.048,99.63,5.0,,0.0,0.0,
2025-08-15T01:39:30.413Z,13,GR86-035-11,2.0,0.093,-0.021,99.63,5.0,6572.0,0.0,0.0,
2025-08-15T01:39:30.456Z,13,GR86-035-11,2.0,0.079,-0.044,99.64,5.0,,0.0,0.0,193.21
2025-08-15T01:39:30.500Z,13,GR86-035-11,1.9,0.093,-0.055,99.63,5.0,,0.0,0.0,
2025-08-15T01:39:30.543Z,13,GR86-035-11,1.9,0.077,-0.067,99.62,5.0,,0.0,0.0,
2025-08-15T01:39:30.586Z,13,GR86-035-11,1.9,0.075,-0.055,99.63,5.0,,0.0,0.0,
2025-08-15T01:39:30.630Z,13,GR86-035-11,2.0,0.075,-0.049,99.63,5.0,6596.0,0.0,0.0,
2025-08-15T01:39:30.673Z,13,GR86-035-11,2.0,0.068,-0.047,99.63,5.0,,0.0,0.0,193.99
2025-08-15T01:39:30.846Z,13,GR86-035-11,2.0,0.082,-0.034,99.63,5.0,6624.0,0.0,0.0,
2025-08-15T01:39:30.890Z,13,GR86-035-11,2.0,0.071,-0.036,99.62,5.0,,0.0,0.0,194.78
2025-08-15T01:39:30.933Z,13,GR86-035-11,2.0,0.067,-0.033,99.6,5.0,,0.0,0.0,
2025-08-15T01:39:30.976Z,13,GR86-035-11,2.0,0.061,-0.058,99.63,5.0,,0.0,0.0,
2025-08-15T01:39:31.019Z,13,GR86-035-11,2.0,0.089,-0.036,99.64,5.0,,0.0,0.0,
2025-08-15T01:39:31.064Z,13,GR86-035-11,2.3000000000000003,0.061,-0.036,99.62,5.0,6651.0,0.0,0.0,
2025-08-15T01:39:31.106Z,13,GR86-035-11,2.3000000000000003,0.07,-0.047,99.61,5.0,,0.0,0.0,196.23
2025-08-15T01:39:31.150Z,13,GR86-035-11,2.3000000000000003,0.063,-0.049,99.63,5.0,,0.0,0.0,
2025-08-15T01:39:31.193Z,13,GR86-035-11,2.4000000000000004,0.063,-0.048,99.64,5.0,,0.0,0.0,
2025-08-15T01:39:31.236Z,13,GR86-035-11,2.4000000000000004,0.087,-0.037,99.62,5.0,,0.0,0.0,
2025-08-15T01:39:31.278Z,13,GR86-035-11,2.4000000000000004,0.084,-0.04,99.63,5.0,6678.0,0.0,0.0,
2025-08-15T01:39:31.323Z,13,GR86-035-11,2.8000000000000003,0.058,0.011,99.63,5.0,,0.0,0.0,196.85
2025-08-15T01:39:31.366Z,13,GR86-035-11,2.9000000000000004,0.09,-0.019,99.63,5.0,,0.0,0.0,
2025-08-15T01:39:31.410Z,13,GR86-035-11,2.9000000000000004,0.055,-0.002,99.62,5.0,,0.0,0.0,
2025-08-15T01:39:31.453Z,13,GR86-035-11,2.9000000000000004,0.079,-0.002,99.61,5.0,,0.0,0.0,
2025-08-15T01:39:31.496Z,13,GR86-035-11,3.0,0.08,0.011,99.62,5.0,6708.0,0.0,0.0,
2025-08-15T01:39:31.538Z,13,GR86-035-11,3.0,0.087,0.017,99.63,5.0,,0.0,0.0,197.42
2025-08-15T01:39:31.582Z,13,GR86-035-11,3.0,0.066,0.024,99.63,5.0,,0.0,0.0,
2025-08-15T01:39:31.626Z,13,GR86-035-11,3.0,0.06,0.023,99.63,5.0,,0.0,0.0,
2025-08-15T01:39:31.670Z,13,GR86-035-11,3.0,0.053,0.024,99.64,5.0,,0.0,0.0,
2025-08-15T01:39:31.714Z,13,GR86-035-11,3.0,0.087,0.012,99.63,5.0,6741.0,0.0,0.0,
2025-08-15T01:39:31.756Z,13,GR86-035-11,3.0,0.067,-0.007,99.63,5.0,,0.0,0.0,198.17
2025-08-15T01:39:31.800Z,13,GR86-035-11,3.0,0.094,-0.001,99.63,5.0,,0.0,0.0,
2025-08-15T01:39:31.843Z,13,GR86-035-11,3.0,0.08,0.02,99.62,5.0,,0.0,0.0,
2025-08-15T01:39:31.887Z,13,GR86-035-11,3.0,0.069,0.014,99.61,5.0,,0.0,0.0,
2025-08-15T01:39:31.930Z,13,GR86-035-11,3.0,0.08,-0.003,99.6,5.0,6767.0,0.0,0.0,
2025-08-15T01:39:31.973Z,13,GR86-035-11,3.0,0.071,0.004,99.62,5.0,,0.0,0.0,198.87
2025-08-15T01:39:32.016Z,13,GR86-035-11,3.0,0.1,0.001,99.63,5.0,,0.0,0.0,
2025-08-15T01:39:32.059Z,13,GR86-035-11,3.0,0.07,0.029,99.62,5.0,,0.0,0.0,
2025-08-15T01:39:32.104Z,13,GR86-035-11,3.0,0.068,-0.007,99.63,5.0,,0.0,0.0,
2025-08-15T01:39:32.146Z,13,GR86-035-11,3.0,0.098,-0.021,99.64,5.0,6794.0,0.0,0.0,
2025-08-15T01:39:32.190Z,13,GR86-035-11,3.0,0.091,-0.013,99.61,5.0,,0.0,0.0,199.6
2025-08-15T01:39:32.234Z,13,GR86-035-11,3.0,0.082,0.005,99.61,5.0,,0.0,0.0,
2025-08-15T01:39:32.276Z,13,GR86-035-11,3.0,0.083,0.017,99.63,5.0,,0.0,0.0,
2025-08-15T01:39:32.320Z,13,GR86-035-11,3.0,0.092,0.025,99.63,5.0,,0.0,0.0,
2025-08-15T01:39:32.363Z,13,GR86-035-11,3.0,0.084,0.001,99.62,5.0,6824.0,0.0,0.0,
2025-08-15T01:39:32.406Z,13,GR86-035-11,3.0,0.087,-0.006,99.63,5.0,,0.0,0.0,200.22
2025-08-15T01:39:32.450Z,13,GR86-035-11,3.0,0.069,-0.029,99.62,5.0,,0.0,0.0,
2025-08-15T01:39:32.493Z,13,GR86-035-11,3.0,0.078,-0.02,99.61,5.0,,0.0,0.0,
2025-08-15T01:39:32.536Z,13,GR86-035-11,2.9000000000000004,0.054,-0.011,99.6,5.0,,0.0,0.0,
2025-08-15T01:39:32.578Z,13,GR86-035-11,2.9000000000000004,0.071,-0.025,99.63,5.0,6831.0,0.0,0.0,
2025-08-15T01:39:32.624Z,13,GR86-035-11,2.9000000000000004,0.093,0.021,99.61,5.0,,0.0,0.0,201.04
2025-08-15T01:39:32.666Z,13,GR86-035-11,2.9000000000000004,0.052,0.009,99.61,5.0,,0.0,0.0,
2025-08-15T01:39:32.710Z,13,GR86-035-11,2.9000000000000004,0.083,0.001,99.63,5.0,,0.0,0.0,
2025-08-15T01:39:32.753Z,13,GR86-035-11,2.9000000000000004,0.052,0.01,99.64,5.0,,0.0,0.0,
2025-08-15T01:39:32.796Z,13,GR86-035-11,2.9000000000000004,0.071,-0.029,99.63,5.0,6861.0,0.0,0.0,
2025-08-15T01:39:32.838Z,13,GR86-035-11,2.9000000000000004,0.074,-0.03,99.61,5.0,,0.0,0.0,201.71
2025-08-15T01:39:32.883Z,13,GR86-035-11,2.9000000000000004,0.065,-0.038,99.63,5.0,,0.0,0.0,
2025-08-15T01:39:32.926Z,13,GR86-035-11,2.9000000000000004,0.075,-0.047,99.64,5.0,,0.0,0.0,
2025-08-15T01:39:32.970Z,13,GR86-035-11,2.9000000000000004,0.084,-0.045,99.63,5.0,,0.0,0.0,
2025-08-15T01:39:33.014Z,13,GR86-035-11,2.9000000000000004,0.066,-0.045,99.64,5.0,6879.0,0.0,0.0,
2025-08-15T01:39:33.057Z,13,GR86-035-11,2.9000000000000004,0.081,-0.033,99.64,5.0,,0.0,0.0,202.49
2025-08-15T01:39:33.100Z,13,GR86-035-11,2.9000000000000004,0.091,-0.011,99.64,5.0,,0.0,0.0,
2025-08-15T01:39:33.143Z,13,GR86-035-11,2.9000000000000004,0.069,-0.017,99.64,5.0,,0.0,0.0,
2025-08-15T01:39:33.186Z,13,GR86-035-11,2.9000000000000004,0.074,-0.034,99.63,5.0,,0.0,0.0,
2025-08-15T01:39:33.230Z,13,GR86-035-11,2.8000000000000003,0.077,-0.011,99.64,5.0,6918.0,0.0,0.0,
2025-08-15T01:39:33.273Z,13,GR86-035-11,2.8000000000000003,0.085,-0.033,99.62,5.0,,0.0,0.0,203.12
2025-08-15T01:39:33.316Z,13,GR86-035-11,2.8000000000000003,0.068,-0.041,99.64,5.0,,0.0,0.0,
2025-08-15T01:39:33.358Z,13,GR86-035-11,2.8000000000000003,0.068,-0.036,99.62,5.0,,0.0,0.0,
2025-08-15T01:39:33.403Z,13,GR86-035-11,2.8000000000000003,0.079,-0.038,99.63,5.0,,0.0,0.0,
2025-08-15T01:39:33.446Z,13,GR86-035-11,2.8000000000000003,0.071,-0.036,99.62,5.0,6932.0,0.0,0.0,
2025-08-15T01:39:33.490Z,13,GR86-035-11,2.8000000000000003,0.068,-0.027,99.61,5.0,,0.0,0.0,203.87
2025-08-15T01:39:33.533Z,13,GR86-035-11,2.8000000000000003,0.048,-0.026,99.64,5.0,,0.0,0.0,
2025-08-15T01:39:33.576Z,13,GR86-035-11,2.8000000000000003,0.041,-0.017,99.65,5.0,,0.0,0.0,
2025-08-15T01:39:33.618Z,13,GR86-035-11,2.8000000000000003,0.078,-0.028,99.63,5.0,,0.0,0.0,
2025-08-15T01:39:33.662Z,13,GR86-035-11,2.8000000000000003,0.055,-0.054,99.61,5.0,6952.0,0.0,0.0,
2025-08-15T01:39:33.706Z,13,GR86-035-11,2.8000000000000003,0.051,-0.038,99.6,5.0,,0.0,0.0,205.2
2025-08-15T01:39:33.748Z,13,GR86-035-11,2.8000000000000003,0.075,-0.059,99.63,5.0,,0.0,0.0,
2025-08-15T01:39:33.792Z,13,GR86-035-11,2.8000000000000003,0.073,-0.039,99.61,5.0,,0.0,0.0,
2025-08-15T01:39:33.834Z,13,GR86-035-11,2.8000000000000003,0.086,-0.029,99.6,5.0,,0.0,0.0,
2025-08-15T01:39:33.877Z,13,GR86-035-11,2.8000000000000003,0.071,-0.02,99.62,5.0,6966.0,0.0,0.0,
2025-08-15T01:39:33.921Z,13,GR86-035-11,2.9000000000000004,0.07,-0.01,99.63,5.0,,0.0,0.0,205.7
2025-08-15T01:39:33.964Z,13,GR86-035-11,2.9000000000000004,0.075,-0.012,99.64,5.0,,0.0,0.0,
2025-08-15T01:39:34.006Z,13,GR86-035-11,3.0,0.076,-0.022,99.63,5.0,,0.0,0.0,
2025-08-15T01:39:34.050Z,13,GR86-035-11,3.0,0.082,-0.031,99.64,5.0,,0.0,0.0,
2025-08-15T01:39:34.093Z,13,GR86-035-11,3.0,0.051,-0.022,99.63,5.0,6999.0,0.0,0.0,
2025-08-15T01:39:34.136Z,13,GR86-035-11,3.0,0.083,-0.028,99.63,5.0,,0.0,0.0,206.32
2025-08-15T01:39:34.178Z,13,GR86-035-11,3.0,0.057,-0.023,99.64,5.0,,0.0,0.0,
2025-08-15T01:39:34.224Z,13,GR86-035-11,3.0,0.064,0.0,99.64,5.0,,0.0,0.0,
2025-08-15T01:39:34.267Z,13,GR86-035-11,3.0,0.061,0.002,99.6,5.0,,0.0,0.0,
2025-08-15T01:39:34.310Z,13,GR86-035-11,3.0,0.075,0.025,99.61,5.0,7029.0,0.0,0.0,
2025-08-15T01:39:34.354Z,13,GR86-035-11,3.0,0.072,0.029,99.63,5.0,,0.0,0.0,206.9
2025-08-15T01:39:34.396Z,13,GR86-035-11,3.0,0.082,0.026,99.6,5.0,,0.0,0.0,
2025-08-15T01:39:34.440Z,13,GR86-035-11,2.9000000000000004,0.077,0.002,99.64,5.0,,0.0,0.0,
2025-08-15T01:39:34.483Z,13,GR86-035-11,2.9000000000000004,0.065,0.002,99.64,5.0,,0.0,0.0,
2025-08-15T01:39:34.526Z,13,GR86-035-11,2.6,0.065,-0.006,99.61,5.0,7054.0,0.0,0.0,
2025-08-15T01:39:34.570Z,13,GR86-035-11,2.5,0.075,-0.025,99.62,5.0,,0.0,0.0,207.46
2025-08-15T01:39:34.613Z,13,GR86-035-11,2.5,0.044,-0.006,99.61,5.0,,0.0,0.0,
2025-08-15T01:39:34.656Z,13,GR86-035-11,2.5,0.07,0.007,99.63,5.0,,0.0,0.0,
2025-08-15T01:39:34.700Z,13,GR86-035-11,2.5,0.051,-0.015,99.63,5.0,,0.0,0.0,
2025-08-15T01:39:34.743Z,13,GR86-035-11,2.5,0.072,-0.058,99.62,5.0,7065.0,0.0,0.0,
2025-08-15T01:39:34.786Z,13,GR86-035-11,2.5,0.054,-0.066,99.62,5.0,,0.0,0.0,208.12
2025-08-15T01:39:34.830Z,13,GR86-035-11,2.5,0.054,-0.039,99.62,5.0,,0.0,0.0,
2025-08-15T01:39:34.873Z,13,GR86-035-11,2.5,0.087,-0.039,99.61,5.0,,0.0,0.0,
2025-08-15T01:39:34.916Z,13,GR86-035-11,2.5,0.07,-0.037,99.62,5.0,,0.0,0.0,
2025-08-15T01:39:34.960Z,13,GR86-035-11,2.5,0.083,-0.044,99.62,5.0,7096.0,0.0,0.0,
2025-08-15T01:39:35.004Z,13,GR86-035-11,2.5,0.065,-0.041,99.62,5.0,,0.0,0.0,208.57
2025-08-15T01:39:35.046Z,13,GR86-035-11,2.4000000000000004,0.08,-0.035,99.63,5.0,,0.0,0.0,
2025-08-15T01:39:35.090Z,13,GR86-035-11,2.3000000000000003,0.066,-0.041,99.61,5.0,,0.0,0.0,
2025-08-15T01:39:35.133Z,13,GR86-035-11,1.8,0.045,-0.029,99.62,5.0,,0.0,0.0,
2025-08-15T01:39:35.176Z,13,GR86-035-11,1.7000000000000002,0.07,-0.043,99.63,5.0,7116.0,0.0,0.0,
2025-08-15T01:39:35.219Z,13,GR86-035-11,1.7000000000000002,0.067,-0.021,99.64,5.0,,0.0,0.0,209.18
2025-08-15T01:39:35.264Z,13,GR86-035-11,1.6,0.076,-0.026,99.6,5.0,,0.0,0.0,
2025-08-15T01:39:35.307Z,13,GR86-035-11,1.6,0.032,-0.068,99.63,5.0,,0.0,0.0,
2025-08-15T01:39:35.350Z,13,GR86-035-11,1.6,0.067,-0.074,99.63,5.0,,0.0,0.0,
2025-08-15T01:39:35.393Z,13,GR86-035-11,1.6,0.068,-0.059,99.63,5.0,7132.0,0.0,0.0,
2025-08-15T01:39:35.436Z,13,GR86-035-11,1.6,0.054,-0.088,99.61,5.0,,0.0,0.0,209.71
2025-08-15T01:39:35.478Z,13,GR86-035-11,1.6,0.067,-0.07,99.62,5.0,,0.0,0.0,
2025-08-15T01:39:35.522Z,13,GR86-035-11,1.6,0.061,-0.089,99.62,5.0,,0.0,0.0,
2025-08-15T01:39:35.566Z,13,GR86-035-11,1.6,0.073,-0.056,99.64,5.0,,0.0,0.0,
2025-08-15T01:39:35.608Z,13,GR86-035-11,1.6,0.05,-0.083,99.61,5.0,7146.0,0.0,0.0,
2025-08-15T01:39:35.653Z,13,GR86-035-11,1.6,0.06,-0.04,99.61,5.0,,0.0,0.0,210.37
2025-08-15T01:39:35.696Z,13,GR86-035-11,1.5,0.056,-0.071,99.61,5.0,,0.0,0.0,
2025-08-15T01:39:35.738Z,13,GR86-035-11,1.5,0.034,-0.044,99.62,5.0,,0.0,0.0,
2025-08-15T01:39:35.783Z,13,GR86-035-11,2.1,0.052,-0.063,99.6,5.0,,0.0,0.0,
2025-08-15T01:39:35.826Z,13,GR86-035-11,3.0,0.04,-0.033,99.62,5.0,7164.0,0.0,0.0,
2025-08-15T01:39:35.870Z,13,GR86-035-11,3.0,0.056,-0.022,99.64,5.0,,0.0,0.0,210.87
2025-08-15T01:39:35.914Z,13,GR86-035-11,3.0,0.066,-0.024,99.64,5.0,,0.0,0.0,
2025-08-15T01:39:35.957Z,13,GR86-035-11,3.1,0.063,-0.03,99.62,5.0,,0.0,0.0,
2025-08-15T01:39:36.000Z,13,GR86-035-11,3.0,0.057,-0.025,99.59,5.0,,0.0,0.0,
2025-08-15T01:39:36.043Z,13,GR86-035-11,3.0,0.067,0.018,99.61,5.0,7182.0,0.0,0.0,
2025-08-15T01:39:36.087Z,13,GR86-035-11,2.9000000000000004,0.042,-0.013,99.6,5.0,,0.0,0.0,211.44
2025-08-15T01:39:36.130Z,13,GR86-035-11,2.9000000000000004,0.055,-0.018,99.63,5.0,,0.0,0.0,
2025-08-15T01:39:36.173Z,13,GR86-035-11,2.9000000000000004,0.04,-0.023,94.81,5.0,,0.0,0.0,
2025-08-15T01:39:36.216Z,13,GR86-035-11,2.9000000000000004,0.055,-0.029,35.63,5.0,,0.0,0.0,
2025-08-15T01:39:36.260Z,13,GR86-035-11,2.9000000000000004,0.068,-0.02,5.5,5.0,7201.0,0.0,0.0,
2025-08-15T01:39:36.304Z,13,GR86-035-11,2.9000000000000004,-0.101,-0.029,5.65,5.0,,0.0,0.0,212.41
2025-08-15T01:39:36.346Z,13,GR86-035-11,2.9000000000000004,-0.157,-0.026,5.37,5.0,,0.0,0.0,
2025-08-15T01:39:36.390Z,13,GR86-035-11,2.9000000000000004,-0.438,-0.039,4.76,5.0,,0.0,0.0,
2025-08-15T01:39:36.433Z,13,GR86-035-11,2.9000000000000004,-0.178,-0.02,4.38,5.0,,11.58,11.84,
2025-08-15T01:39:36.476Z,13,GR86-035-11,2.9000000000000004,-0.202,-0.009,4.11,5.0,7189.0,21.99,21.99,
2025-08-15T01:39:36.518Z,13,GR86-035-11,3.2,-0.485,-0.039,3.83,5.0,,27.56,27.405,212.29
2025-08-15T01:39:36.562Z,13,GR86-035-11,3.2,-0.801,0.025,3.0,5.0,,39.19,38.865,
2025-08-15T01:39:36.604Z,13,GR86-035-11,3.2,-0.888,0.007,2.68,5.0,,48.33,47.81,
2025-08-15T01:39:36.647Z,13,GR86-035-11,3.2,-1.072,0.022,2.58,5.0,,56.005,55.425,
2025-08-15T01:39:36.690Z,13,GR86-035-11,3.3000000000000003,-1.187,0.031,2.53,5.0,7137.0,60.23,59.865,
2025-08-15T01:39:36.734Z,13,GR86-035-11,4.0,-1.207,-0.021,2.5,5.0,,61.515,61.42,206.87
2025-08-15T01:39:36.776Z,13,GR86-035-11,4.2,-1.257,0.013,2.49,5.0,,62.535,62.245000000000005,
2025-08-15T01:39:36.820Z,13,GR86-035-11,4.3,-1.366,-0.01,2.47,5.0,,65.465,65.025,
2025-08-15T01:39:36.863Z,13,GR86-035-11,4.9,-1.296,0.0,2.48,5.0,,68.245,68.09,
2025-08-15T01:39:36.906Z,13,GR86-035-11,4.9,-1.245,-0.002,2.47,5.0,6449.0,68.685,68.535,
2025-08-15T01:39:36.950Z,13,GR86-035-11,4.9,-1.243,0.007,2.48,5.0,,68.565,68.47,199.54
2025-08-15T01:39:36.993Z,13,GR86-035-11,4.9,-1.243,-0.001,2.48,5.0,,69.615,71.14,
2025-08-15T01:39:37.036Z,13,GR86-035-11,4.9,-1.332,-0.019,2.47,5.0,,69.525,70.18,
2025-08-15T01:39:37.078Z,13,GR86-035-11,5.5,-1.27,-0.01,2.47,5.0,,69.19,69.13,
2025-08-15T01:39:37.124Z,13,GR86-035-11,5.5,-1.317,-0.009,4.94,5.0,5950.0,71.11,72.99,
2025-08-15T01:39:37.166Z,13,GR86-035-11,5.800000000000001,-1.296,-0.019,42.25,5.0,,69.13,69.37,188.81
2025-08-15T01:39:37.210Z,13,GR86-035-11,5.800000000000001,-1.208,0.016,79.8,4.0,,66.425,66.73,
2025-08-15T01:39:37.254Z,13,GR86-035-11,5.800000000000001,-1.211,0.006,36.16,4.0,,66.76,68.18,
2025-08-15T01:39:37.296Z,13,GR86-035-11,5.800000000000001,-1.252,0.005,4.24,4.0,,66.52,68.535,
2025-08-15T01:39:37.341Z,13,GR86-035-11,5.800000000000001,-1.251,0.05,3.92,4.0,6182.0,64.87,66.215,
2025-08-15T01:39:37.384Z,13,GR86-035-11,5.800000000000001,-1.229,-0.016,3.73,4.0,,60.4,61.24,180.73
2025-08-15T01:39:37.426Z,13,GR86-035-11,5.7,-1.101,0.065,3.46,4.0,,58.875,59.985,
2025-08-15T01:39:37.470Z,13,GR86-035-11,4.9,-1.051,0.019,2.97,4.0,,54.465,55.715,
2025-08-15T01:39:37.514Z,13,GR86-035-11,4.800000000000001,-1.082,0.033,2.73,4.0,,50.615,51.96,
2025-08-15T01:39:37.557Z,13,GR86-035-11,4.6000000000000005,-1.02,0.1,2.62,4.0,6461.0,46.77,48.45,
2025-08-15T01:39:37.600Z,13,GR86-035-11,2.5,-0.96,0.004,2.56,4.0,,43.49,45.125,173.25
2025-08-15T01:39:37.643Z,13,GR86-035-11,-0.4,-1.014,0.067,2.51,4.0,,45.215,45.69,
2025-08-15T01:39:37.687Z,13,GR86-035-11,-1.8,-1.026,0.015,2.49,4.0,,48.055,48.3,
2025-08-15T01:39:37.730Z,13,GR86-035-11,-2.3000000000000003,-1.053,-0.017,2.49,4.0,,50.465,50.615,
2025-08-15T01:39:37.773Z,13,GR86-035-11,-2.3000000000000003,-1.076,-0.032,2.49,4.0,6289.0,52.08,52.370000000000005,
2025-08-15T01:39:37.816Z,13,GR86-035-11,-2.4000000000000004,-1.082,-0.089,2.49,4.0,,53.15,53.365,166.45000000000002
2025-08-15T01:39:37.858Z,13,GR86-035-11,-2.4000000000000004,-1.096,-0.12,8.66,4.0,,53.515,53.745000000000005,
2025-08-15T01:39:37.904Z,13,GR86-035-11,-2.5,-1.096,-0.14,45.75,3.0,,52.435,53.21,
2025-08-15T01:39:37.946Z,13,GR86-035-11,-2.5,-1.132,-0.156,3.99,3.0,,47.64,49.17,
2025-08-15T01:39:37.990Z,13,GR86-035-11,-0.8,-0.921,-0.176,4.45,3.0,5916.0,39.495,41.25,
2025-08-15T01:39:38.033Z,13,GR86-035-11,0.5,-0.924,-0.329,4.3100000000000005,3.0,,34.245,35.375,159.25
2025-08-15T01:39:38.076Z,13,GR86-035-11,0.3,-1.073,-0.252,4.15,3.0,,33.345,34.275,
2025-08-15T01:39:38.118Z,13,GR86-035-11,0.2,-0.9,-0.312,3.89,3.0,,34.49,35.645,
2025-08-15T01:39:38.162Z,13,GR86-035-11,0.2,-0.864,-0.446,3.23,3.0,,34.96,35.375,
2025-08-15T01:39:38.206Z,13,GR86-035-11,-0.1,-0.791,-0.353,2.75,3.0,6533.0,35.34,35.615,
2025-08-15T01:39:38.248Z,13,GR86-035-11,-4.1000000000000005,-0.804,-0.383,2.6,3.0,,35.615,35.985,152.78
2025-08-15T01:39:38.292Z,13,GR86-035-11,-8.6,-0.8180000000000001,-0.445,2.53,3.0,,36.03,36.335,
2025-08-15T01:39:38.334Z,13,GR86-035-11,-11.8,-0.862,-0.345,2.5,3.0,,36.335,36.61,
2025-08-15T01:39:38.377Z,13,GR86-035-11,-15.5,-0.889,-0.424,2.49,3.0,,36.18,36.67,
2025-08-15T01:39:38.421Z,13,GR86-035-11,-19.5,-0.85,-0.457,2.47,3.0,6594.0,36.7,37.08,
2025-08-15T01:39:38.464Z,13,GR86-035-11,-21.200000000000003,-0.907,-0.541,2.47,3.0,,38.075,38.44,146.55
2025-08-15T01:39:38.506Z,13,GR86-035-11,-20.4,-0.872,-0.538,2.46,3.0,,38.47,38.775,
2025-08-15T01:39:38.550Z,13,GR86-035-11,-17.7,-0.8290000000000001,-0.59,2.47,3.0,,38.53,38.93,
2025-08-15T01:39:38.593Z,13,GR86-035-11,-14.6,-0.9,-0.644,2.46,3.0,,39.155,40.53,
2025-08-15T01:39:38.636Z,13,GR86-035-11,-11.8,-0.8280000000000001,-0.6960000000000001,2.46,3.0,6272.0,38.255,39.31,
2025-08-15T01:39:38.678Z,13,GR86-035-11,-10.8,-0.786,-0.775,2.47,3.0,,32.075,32.78,141.82
2025-08-15T01:39:38.724Z,13,GR86-035-11,-12.7,-0.655,-0.753,2.46,3.0,,23.485,24.585,
2025-08-15T01:39:38.766Z,13,GR86-035-11,-15.8,-0.542,-0.806,2.47,3.0,,18.77,19.61,
2025-08-15T01:39:38.810Z,13,GR86-035-11,-20.6,-0.477,-0.905,2.47,3.0,,11.675,12.42,
2025-08-15T01:39:38.853Z,13,GR86-035-11,-26.700000000000003,-0.315,-0.877,2.47,3.0,5912.0,5.22,5.9350000000000005,
2025-08-15T01:39:38.896Z,13,GR86-035-11,-32.5,-0.227,-1.003,2.46,3.0,,0.0,0.0,137.1
2025-08-15T01:39:38.938Z,13,GR86-035-11,-37.4,-0.227,-1.012,2.47,3.0,,0.0,0.0,
2025-08-15T01:39:39.024Z,13,GR86-035-11,-42.2,-0.213,-1.043,2.48,3.0,,0.0,0.0,
2025-08-15T01:39:39.067Z,13,GR86-035-11,-42.5,-0.197,-1.128,2.47,3.0,5953.0,0.0,0.0,
2025-08-15T01:39:39.110Z,13,GR86-035-11,-42.400000000000006,-0.205,-1.139,2.48,3.0,,0.0,0.0,130.72
2025-08-15T01:39:39.154Z,13,GR86-035-11,-41.5,-0.226,-1.1,2.48,3.0,,0.0,0.0,
2025-08-15T01:39:39.241Z,13,GR86-035-11,-40.6,-0.209,-1.126,2.48,3.0,,0.0,0.0,
2025-08-15T01:39:39.283Z,13,GR86-035-11,-41.2,-0.213,-1.171,2.48,3.0,5939.0,0.0,0.0,
2025-08-15T01:39:39.326Z,13,GR86-035-11,-42.0,-0.204,-1.2,2.49,3.0,,0.0,0.0,129.74
2025-08-15T01:39:39.370Z,13,GR86-035-11,-42.0,-0.227,-1.191,2.48,3.0,,0.0,0.0,
2025-08-15T01:39:39.413Z,13,GR86-035-11,-39.2,-0.209,-1.258,2.47,3.0,,0.0,0.0,
2025-08-15T01:39:39.500Z,13,GR86-035-11,-25.200000000000003,-0.2,-1.167,37.88,3.0,5865.0,0.0,0.0,
2025-08-15T01:39:39.543Z,13,GR86-035-11,-20.9,-0.175,-1.154,94.57,3.0,,0.0,0.0,128.49
2025-08-15T01:39:39.586Z,13,GR86-035-11,-21.200000000000003,-0.099,-1.148,98.34,3.0,,0.0,0.0,
2025-08-15T01:39:39.630Z,13,GR86-035-11,-21.3,-0.045,-1.151,98.81,3.0,,0.0,0.0,
2025-08-15T01:39:39.673Z,13,GR86-035-11,-21.5,0.373,-1.065,99.16,3.0,,0.0,0.0,
2025-08-15T01:39:39.716Z,13,GR86-035-11,-22.6,0.269,-1.089,99.26,3.0,6199.0,0.0,0.0,
2025-08-15T01:39:39.760Z,13,GR86-035-11,-24.9,0.208,-1.122,99.4,3.0,,0.0,0.0,126.62
2025-08-15T01:39:39.803Z,13,GR86-035-11,-33.800000000000004,0.108,-1.057,99.52,3.0,,0.0,0.0,
2025-08-15T01:39:39.846Z,13,GR86-035-11,-44.3,0.139,-1.067,85.23,3.0,,0.0,0.0,
2025-08-15T01:39:39.890Z,13,GR86-035-11,-54.5,0.152,-1.068,52.54,3.0,,0.0,0.0,
2025-08-15T01:39:39.933Z,13,GR86-035-11,-61.7,0.125,-1.037,43.18,3.0,6022.0,0.0,0.0,
2025-08-15T01:39:39.976Z,13,GR86-035-11,-64.4,0.086,-1.084,39.46,3.0,,0.0,0.0,126.84
2025-08-15T01:39:40.019Z,13,GR86-035-11,-64.60000000000001,0.053,-1.058,38.85,3.0,,0.0,0.0,
2025-08-15T01:39:40.064Z,13,GR86-035-11,-60.8,0.075,-1.185,37.37,3.0,,0.0,0.0,
2025-08-15T01:39:40.106Z,13,GR86-035-11,-55.3,0.14,-1.221,36.68,3.0,,0.0,0.0,
2025-08-15T01:39:40.150Z,13,GR86-035-11,-47.2,0.163,-1.248,36.66,3.0,6036.0,0.0,0.0,
2025-08-15T01:39:40.193Z,13,GR86-035-11,-37.1,0.206,-1.049,36.88,3.0,,0.0,0.0,128.22
2025-08-15T01:39:40.236Z,13,GR86-035-11,-26.5,0.192,-1.084,37.39,3.0,,0.0,0.0,
2025-08-15T01:39:40.278Z,13,GR86-035-11,-15.9,0.09,-0.988,38.1,3.0,,0.0,0.0,
2025-08-15T01:39:40.322Z,13,GR86-035-11,-5.2,0.177,-1.055,38.68,3.0,,0.0,0.0,
2025-08-15T01:39:40.366Z,13,GR86-035-11,-3.8,0.222,-0.954,38.9,3.0,6198.0,0.0,0.0,
2025-08-15T01:39:40.408Z,13,GR86-035-11,-6.2,0.247,-1.119,39.44,3.0,,0.0,0.0,129.76
2025-08-15T01:39:40.453Z,13,GR86-035-11,-15.0,0.173,-1.099,40.29,3.0,,0.0,0.0,
2025-08-15T01:39:40.496Z,13,GR86-035-11,-30.1,-0.011,-1.193,46.12,3.0,,0.0,0.0,
2025-08-15T01:39:40.538Z,13,GR86-035-11,-45.6,-0.11,-1.218,52.27,3.0,,0.0,0.0,
2025-08-15T01:39:40.583Z,13,GR86-035-11,-63.7,0.094,-1.157,53.57,3.0,6158.0,0.0,0.0,
2025-08-15T01:39:40.668Z,13,GR86-035-11,-69.0,0.098,-1.022,53.4,3.0,,0.0,0.0,130.04
2025-08-15T01:39:40.714Z,13,GR86-035-11,-71.8,0.147,-1.192,49.72,3.0,,0.0,0.0,
2025-08-15T01:39:40.757Z,13,GR86-035-11,-72.0,0.052,-1.099,46.0,3.0,,0.0,0.0,
2025-08-15T01:39:40.800Z,13,GR86-035-11,-72.0,-0.144,-1.363,48.67,3.0,6510.0,0.0,0.0,
2025-08-15T01:39:40.843Z,13,GR86-035-11,-72.0,0.183,-1.369,49.51,3.0,,0.0,0.0,128.68
2025-08-15T01:39:40.887Z,13,GR86-035-11,-71.9,0.139,-1.385,48.78,3.0,,0.0,0.0,
2025-08-15T01:39:40.930Z,13,GR86-035-11,-71.8,0.145,-1.246,47.67,3.0,,0.0,0.0,
2025-08-15T01:39:40.974Z,13,GR86-035-11,-71.8,0.105,-1.24,42.77,3.0,,0.0,0.0,
2025-08-15T01:39:41.016Z,13,GR86-035-11,-71.8,0.075,-1.189,38.31,3.0,6224.0,0.0,0.0,
2025-08-15T01:39:41.060Z,13,GR86-035-11,-71.8,0.101,-1.127,38.0,3.0,,0.0,0.0,129.18
2025-08-15T01:39:41.104Z,13,GR86-035-11,-71.8,0.073,-1.156,38.63,3.0,,0.0,0.0,
2025-08-15T01:39:41.190Z,13,GR86-035-11,-71.8,0.039,-1.292,37.38,3.0,,0.0,0.0,
2025-08-15T01:39:41.234Z,13,GR86-035-11,-71.8,0.056,-1.234,37.47,3.0,6158.0,0.0,0.0,
2025-08-15T01:39:41.276Z,13,GR86-035-11,-71.8,0.063,-1.221,37.71,3.0,,0.0,0.0,129.42000000000002
2025-08-15T01:39:41.320Z,13,GR86-035-11,-70.8,0.021,-1.24,38.39,3.0,,0.0,0.0,
2025-08-15T01:39:41.363Z,13,GR86-035-11,-66.10000000000001,0.052,-1.229,51.02,3.0,,0.0,0.0,
2025-08-15T01:39:41.406Z,13,GR86-035-11,-63.2,0.028,-1.21,59.04,3.0,,0.0,0.0,
2025-08-15T01:39:41.450Z,13,GR86-035-11,-60.6,0.07,-1.156,61.86,3.0,6159.0,0.0,0.0,
2025-08-15T01:39:41.493Z,13,GR86-035-11,-57.5,0.096,-1.251,57.06,3.0,,0.0,0.0,130.03
2025-08-15T01:39:41.536Z,13,GR86-035-11,-54.0,0.113,-1.239,53.7,3.0,,0.0,0.0,
2025-08-15T01:39:41.578Z,13,GR86-035-11,-49.2,0.113,-1.286,57.92,3.0,,0.0,0.0,
2025-08-15T01:39:41.624Z,13,GR86-035-11,-39.400000000000006,0.095,-1.243,70.88,3.0,,0.0,0.0,
2025-08-15T01:39:41.666Z,13,GR86-035-11,-34.5,0.114,-1.249,80.19,3.0,6242.0,0.0,0.0,
2025-08-15T01:39:41.710Z,13,GR86-035-11,-33.7,0.141,-1.256,99.68,3.0,,0.0,0.0,132.16
2025-08-15T01:39:41.753Z,13,GR86-035-11,-34.9,0.149,-1.242,99.57,3.0,,0.0,0.0,
2025-08-15T01:39:41.796Z,13,GR86-035-11,-37.9,0.115,-1.207,99.56,3.0,,0.0,0.0,
2025-08-15T01:39:41.838Z,13,GR86-035-11,-40.6,0.142,-1.222,99.57,3.0,,0.0,0.0,
2025-08-15T01:39:41.883Z,13,GR86-035-11,-42.400000000000006,0.101,-1.244,99.55,3.0,6269.0,0.0,0.0,
2025-08-15T01:39:41.926Z,13,GR86-035-11,-41.900000000000006,0.156,-1.269,99.6,3.0,,0.0,0.0,131.99
2025-08-15T01:39:41.970Z,13,GR86-035-11,-39.6,0.181,-1.258,99.59,3.0,,0.0,0.0,
2025-08-15T01:39:42.014Z,13,GR86-035-11,-38.900000000000006,0.13,-1.178,99.59,3.0,,0.0,0.0,
2025-08-15T01:39:42.057Z,13,GR86-035-11,-38.900000000000006,0.115,-1.155,99.56,3.0,,0.0,0.0,
2025-08-15T01:39:42.100Z,13,GR86-035-11,-38.7,0.153,-1.156,99.58,3.0,6334.0,0.0,0.0,
2025-08-15T01:39:42.143Z,13,GR86-035-11,-38.900000000000006,0.162,-1.178,99.58,3.0,,0.0,0.0,132.3
2025-08-15T01:39:42.186Z,13,GR86-035-11,-39.0,0.175,-1.13,99.6,3.0,,0.0,0.0,
2025-08-15T01:39:42.230Z,13,GR86-035-11,-39.0,0.129,-1.099,99.57,3.0,,0.0,0.0,
2025-08-15T01:39:42.273Z,13,GR86-035-11,-39.0,0.079,-1.07,99.61,3.0,,0.0,0.0,
2025-08-15T01:39:42.316Z,13,GR86-035-11,-38.7,0.106,-0.883,99.59,3.0,6382.0,0.0,0.0,
2025-08-15T01:39:42.358Z,13,GR86-035-11,-38.7,0.076,-0.743,99.56,3.0,,0.0,0.0,133.05
2025-08-15T01:39:42.403Z,13,GR86-035-11,-38.0,0.126,-0.775,99.6,3.0,,0.0,0.0,
2025-08-15T01:39:42.446Z,13,GR86-035-11,-34.9,0.045,-0.727,99.57,3.0,,0.0,0.0,
2025-08-15T01:39:42.490Z,13,GR86-035-11,-32.800000000000004,0.083,-1.026,99.6,3.0,,0.0,0.0,
2025-08-15T01:39:42.533Z,13,GR86-035-11,-31.8,0.181,-1.122,99.58,3.0,6437.0,0.0,0.0,
2025-08-15T01:39:42.576Z,13,GR86-035-11,-30.700000000000003,0.145,-1.114,99.6,3.0,,0.0,0.0,134.21
2025-08-15T01:39:42.618Z,13,GR86-035-11,-28.3,0.223,-0.732,76.27,3.0,,0.0,0.0,
2025-08-15T01:39:42.662Z,13,GR86-035-11,-23.1,0.224,-1.001,70.34,3.0,,0.0,0.0,
2025-08-15T01:39:42.706Z,13,GR86-035-11,-19.200000000000003,0.378,-0.936,92.46,3.0,,0.0,0.0,
2025-08-15T01:39:42.792Z,13,GR86-035-11,-9.5,0.125,-1.276,99.55,3.0,6532.0,0.0,0.0,135.2
2025-08-15T01:39:42.834Z,13,GR86-035-11,-4.1000000000000005,0.118,-1.132,99.57,3.0,,0.0,0.0,
2025-08-15T01:39:42.877Z,13,GR86-035-11,1.7000000000000002,0.169,-1.156,99.57,3.0,,0.0,0.0,
2025-08-15T01:39:42.921Z,13,GR86-035-11,4.2,0.279,-0.928,99.56,3.0,,0.0,0.0,
2025-08-15T01:39:42.964Z,13,GR86-035-11,-5.1000000000000005,0.194,-0.754,99.56,3.0,6536.0,0.0,0.0,
2025-08-15T01:39:43.006Z,13,GR86-035-11,-19.3,0.265,-0.678,99.57,3.0,,0.0,0.0,136.49
2025-08-15T01:39:43.050Z,13,GR86-035-11,-31.200000000000003,0.151,-0.781,99.56,3.0,,0.0,0.0,
2025-08-15T01:39:43.093Z,13,GR86-035-11,-38.400000000000006,0.07,-0.948,99.57,3.0,,0.0,0.0,
2025-08-15T01:39:43.136Z,13,GR86-035-11,-38.900000000000006,0.133,-0.933,99.57,3.0,,0.0,0.0,
2025-08-15T01:39:43.178Z,13,GR86-035-11,-35.6,0.193,-1.006,99.56,3.0,6571.0,0.0,0.0,
2025-08-15T01:39:43.224Z,13,GR86-035-11,-21.5,0.248,-0.947,99.57,3.0,,0.0,0.0,137.09
2025-08-15T01:39:43.267Z,13,GR86-035-11,-10.7,0.227,-0.928,99.57,3.0,,0.0,0.0,
2025-08-15T01:39:43.310Z,13,GR86-035-11,-4.3,0.141,-0.672,99.57,3.0,,0.0,0.0,
2025-08-15T01:39:43.354Z,13,GR86-035-11,-5.1000000000000005,0.041,-0.738,99.57,3.0,,0.0,0.0,
2025-08-15T01:39:43.396Z,13,GR86-035-11,-10.3,0.208,-0.587,99.56,3.0,6576.0,0.0,0.0,
2025-08-15T01:39:43.441Z,13,GR86-035-11,-13.6,0.16,-0.648,99.58,3.0,,0.0,0.0,138.77
2025-08-15T01:39:43.483Z,13,GR86-035-11,-13.8,0.324,-0.631,99.57,3.0,,0.0,0.0,
2025-08-15T01:39:43.526Z,13,GR86-035-11,-8.700000000000001,0.131,-0.577,99.57,3.0,,0.0,0.0,
2025-08-15T01:39:43.570Z,13,GR86-035-11,-4.6000000000000005,0.089,-0.602,99.58,3.0,,0.0,0.0,
2025-08-15T01:39:43.613Z,13,GR86-035-11,-4.0,0.234,-0.517,99.58,3.0,6698.0,0.0,0.0,
2025-08-15T01:39:43.656Z,13,GR86-035-11,-4.0,0.158,-0.479,99.57,3.0,,0.0,0.0,139.77
2025-08-15T01:39:43.700Z,13,GR86-035-11,-4.0,0.183,-0.506,99.55,3.0,,0.0,0.0,
2025-08-15T01:39:43.743Z,13,GR86-035-11,-3.9,0.165,-0.367,99.57,3.0,,0.0,0.0,
2025-08-15T01:39:43.786Z,13,GR86-035-11,-3.9,0.169,-0.289,99.58,3.0,,0.0,0.0,
2025-08-15T01:39:43.830Z,13,GR86-035-11,-2.9000000000000004,0.152,-0.332,99.57,3.0,6701.0,0.0,0.0,
2025-08-15T01:39:43.874Z,13,GR86-035-11,-1.3,0.139,-0.223,99.57,3.0,,0.0,0.0,141.37
2025-08-15T01:39:43.916Z,13,GR86-035-11,-0.6000000000000001,0.117,-0.308,99.57,3.0,,0.0,0.0,
2025-08-15T01:39:43.960Z,13,GR86-035-11,-0.6000000000000001,0.123,-0.223,99.57,3.0,,0.0,0.0,
2025-08-15T01:39:44.003Z,13,GR86-035-11,-0.5,0.249,-0.076,99.56,3.0,,0.0,0.0,
2025-08-15T01:39:44.046Z,13,GR86-035-11,1.2000000000000002,0.103,-0.044,99.57,3.0,6777.0,0.0,0.0,
2025-08-15T01:39:44.090Z,13,GR86-035-11,3.1,0.092,-0.052,99.58,3.0,,0.0,0.0,142.62
2025-08-15T01:39:44.133Z,13,GR86-035-11,6.0,0.233,-0.107,99.58,3.0,,0.0,0.0,
2025-08-15T01:39:44.176Z,13,GR86-035-11,8.6,0.276,-0.11,99.58,3.0,,0.0,0.0,
2025-08-15T01:39:44.219Z,13,GR86-035-11,10.2,0.159,-0.019,99.59,3.0,,0.0,0.0,
2025-08-15T01:39:44.264Z,13,GR86-035-11,10.4,0.154,-0.001,99.59,3.0,6907.0,0.0,0.0,
2025-08-15T01:39:44.307Z,13,GR86-035-11,10.3,0.13,0.056,99.59,3.0,,0.0,0.0,145.61
2025-08-15T01:39:44.350Z,13,GR86-035-11,10.2,0.244,0.161,99.6,3.0,,0.0,0.0,
2025-08-15T01:39:44.393Z,13,GR86-035-11,10.2,0.154,0.192,99.59,3.0,,0.0,0.0,
2025-08-15T01:39:44.436Z,13,GR86-035-11,10.0,0.128,0.234,99.59,3.0,,0.0,0.0,
2025-08-15T01:39:44.478Z,13,GR86-035-11,9.3,0.172,0.29,99.57,3.0,6845.0,0.0,0.0,
2025-08-15T01:39:44.522Z,13,GR86-035-11,9.0,0.195,0.308,99.6,3.0,,0.0,0.0,146.88
2025-08-15T01:39:44.566Z,13,GR86-035-11,8.8,0.158,0.413,99.56,3.0,,0.0,0.0,
2025-08-15T01:39:44.608Z,13,GR86-035-11,8.8,0.261,0.388,99.61,3.0,,0.0,0.0,
2025-08-15T01:39:44.653Z,13,GR86-035-11,8.700000000000001,0.185,0.341,99.6,3.0,,0.0,0.0,
2025-08-15T01:39:44.696Z,13,GR86-035-11,8.700000000000001,0.169,0.362,99.58,3.0,6962.0,0.0,0.0,
2025-08-15T01:39:44.738Z,13,GR86-035-11,8.3,0.168,0.323,99.6,3.0,,0.0,0.0,148.31
2025-08-15T01:39:44.783Z,13,GR86-035-11,8.200000000000001,0.21,0.242,99.58,3.0,,0.0,0.0,
2025-08-15T01:39:44.826Z,13,GR86-035-11,8.200000000000001,0.195,0.235,99.57,3.0,,0.0,0.0,
2025-08-15T01:39:44.870Z,13,GR86-035-11,8.1,0.191,0.216,99.58,3.0,,0.0,0.0,
2025-08-15T01:39:44.914Z,13,GR86-035-11,7.9,0.193,0.168,99.59,3.0,7025.0,0.0,0.0,
2025-08-15T01:39:44.956Z,13,GR86-035-11,7.800000000000001,0.187,0.154,99.6,3.0,,0.0,0.0,149.96
2025-08-15T01:39:45.000Z,13,GR86-035-11,7.7,0.184,0.145,99.61,3.0,,0.0,0.0,
2025-08-15T01:39:45.043Z,13,GR86-035-11,7.7,0.19,0.138,99.58,3.0,,0.0,0.0,
2025-08-15T01:39:45.087Z,13,GR86-035-11,7.7,0.181,0.138,99.58,3.0,,0.0,0.0,
2025-08-15T01:39:45.130Z,13,GR86-035-11,7.7,0.188,0.142,99.6,3.0,7111.0,0.0,0.0,
2025-08-15T01:39:45.174Z,13,GR86-035-11,7.7,0.183,0.159,99.61,3.0,,0.0,0.0,151.51
2025-08-15T01:39:45.216Z,13,GR86-035-11,7.7,0.186,0.155,99.6,3.0,,0.0,0.0,
2025-08-15T01:39:45.260Z,13,GR86-035-11,7.7,0.187,0.139,99.59,3.0,,0.0,0.0,
2025-08-15T01:39:45.304Z,13,GR86-035-11,7.7,0.172,0.151,99.6,3.0,,0.0,0.0,
2025-08-15T01:39:45.346Z,13,GR86-035-11,7.7,0.201,0.137,99.58,3.0,7196.0,0.0,0.0,
2025-08-15T01:39:45.390Z,13,GR86-035-11,7.7,0.191,0.131,99.57,3.0,,0.0,0.0,153.09
2025-08-15T01:39:45.433Z,13,GR86-035-11,7.7,0.192,0.122,99.59,3.0,,0.0,0.0,
2025-08-15T01:39:45.476Z,13,GR86-035-11,7.7,0.192,0.123,99.6,3.0,,0.0,0.0,
2025-08-15T01:39:45.518Z,13,GR86-035-11,7.7,0.173,0.132,99.57,3.0,,0.0,0.0,
2025-08-15T01:39:45.562Z,13,GR86-035-11,7.2,0.178,0.137,99.59,3.0,7263.0,0.0,0.0,
2025-08-15T01:39:45.606Z,13,GR86-035-11,6.0,0.129,0.138,99.58,3.0,,0.0,0.0,154.66
2025-08-15T01:39:45.648Z,13,GR86-035-11,5.7,0.103,0.13,99.62,3.0,,0.0,0.0,
2025-08-15T01:39:45.692Z,13,GR86-035-11,5.7,0.09,0.142,99.6,3.0,,0.0,0.0,
2025-08-15T01:39:45.736Z,13,GR86-035-11,5.7,0.076,0.122,99.61,3.0,,0.0,0.0,
2025-08-15T01:39:45.778Z,13,GR86-035-11,5.7,-0.03,0.105,99.59,4.0,7303.0,0.0,0.0,
2025-08-15T01:39:45.824Z,13,GR86-035-11,5.2,0.47,0.126,99.62,4.0,,0.0,0.0,156.29
2025-08-15T01:39:45.866Z,13,GR86-035-11,5.2,0.232,0.032,99.6,4.0,,0.0,0.0,
2025-08-15T01:39:45.910Z,13,GR86-035-11,5.1000000000000005,0.295,0.064,99.6,4.0,,0.0,0.0,
2025-08-15T01:39:45.953Z,13,GR86-035-11,5.1000000000000005,0.17,0.098,99.61,4.0,,0.0,0.0,
2025-08-15T01:39:45.996Z,13,GR86-035-11,5.1000000000000005,0.045,-0.018,99.6,4.0,6538.0,0.0,0.0,
2025-08-15T01:39:46.038Z,13,GR86-035-11,5.1000000000000005,0.121,0.025,99.6,4.0,,0.0,0.0,157.55
2025-08-15T01:39:46.083Z,13,GR86-035-11,5.1000000000000005,0.205,0.044,99.59,4.0,,0.0,0.0,
2025-08-15T01:39:46.126Z,13,GR86-035-11,5.1000000000000005,0.133,0.011,99.59,4.0,,0.0,0.0,
2025-08-15T01:39:46.170Z,13,GR86-035-11,5.0,0.113,0.059,99.6,4.0,,0.0,0.0,
2025-08-15T01:39:46.215Z,13,GR86-035-11,5.0,0.135,0.032,99.6,4.0,6332.0,0.0,0.0,
2025-08-15T01:39:46.257Z,13,GR86-035-11,5.0,0.176,0.041,99.59,4.0,,0.0,0.0,159.3
2025-08-15T01:39:46.301Z,13,GR86-035-11,5.0,0.161,0.046,99.59,4.0,,0.0,0.0,
2025-08-15T01:39:46.343Z,13,GR86-035-11,4.5,0.12,0.036,99.61,4.0,,0.0,0.0,
2025-08-15T01:39:46.386Z,13,GR86-035-11,3.3000000000000003,0.138,0.003,99.61,4.0,,0.0,0.0,
2025-08-15T01:39:46.430Z,13,GR86-035-11,3.0,0.16,0.02,99.58,4.0,6349.0,0.0,0.0,
2025-08-15T01:39:46.474Z,13,GR86-035-11,2.7,0.143,0.012,99.6,4.0,,0.0,0.0,160.93
2025-08-15T01:39:46.516Z,13,GR86-035-11,2.1,0.148,0.026,99.6,4.0,,0.0,0.0,
2025-08-15T01:39:46.560Z,13,GR86-035-11,1.4,0.133,0.022,99.6,4.0,,0.0,0.0,
2025-08-15T01:39:46.604Z,13,GR86-035-11,1.0,0.146,-0.043,99.61,4.0,,0.0,0.0,
2025-08-15T01:39:46.646Z,13,GR86-035-11,0.6000000000000001,0.145,-0.048,99.61,4.0,6401.0,0.0,0.0,
2025-08-15T01:39:46.733Z,13,GR86-035-11,0.2,0.149,-0.052,99.59,4.0,,0.0,0.0,162.5
2025-08-15T01:39:46.776Z,13,GR86-035-11,-1.2000000000000002,0.152,-0.085,99.6,4.0,,0.0,0.0,
2025-08-15T01:39:46.818Z,13,GR86-035-11,-1.2000000000000002,0.14,-0.105,99.6,4.0,,0.0,0.0,
2025-08-15T01:39:46.862Z,13,GR86-035-11,-1.2000000000000002,0.136,-0.135,99.6,4.0,6456.0,0.0,0.0,
2025-08-15T01:39:46.906Z,13,GR86-035-11,-1.3,0.134,-0.144,99.61,4.0,,0.0,0.0,165.64
2025-08-15T01:39:46.948Z,13,GR86-035-11,-1.3,0.152,-0.145,99.6,4.0,,0.0,0.0,
2025-08-15T01:39:46.992Z,13,GR86-035-11,-1.5,0.147,-0.162,99.59,4.0,,0.0,0.0,
2025-08-15T01:39:47.034Z,13,GR86-035-11,-2.4000000000000004,0.14,-0.166,99.59,4.0,,0.0,0.0,
2025-08-15T01:39:47.077Z,13,GR86-035-11,-3.3000000000000003,0.138,-0.176,99.61,4.0,6530.0,0.0,0.0,
2025-08-15T01:39:47.121Z,13,GR86-035-11,-3.4000000000000004,0.136,-0.192,99.62,4.0,,0.0,0.0,167.21
2025-08-15T01:39:47.164Z,13,GR86-035-11,-3.4000000000000004,0.131,-0.214,99.6,4.0,,0.0,0.0,
2025-08-15T01:39:47.206Z,13,GR86-035-11,-3.5,0.134,-0.226,99.61,4.0,,0.0,0.0,
2025-08-15T01:39:47.250Z,13,GR86-035-11,-3.5,0.145,-0.217,99.6,4.0,,0.0,0.0,
2025-08-15T01:39:47.378Z,13,GR86-035-11,-3.5,0.145,-0.201,99.59,4.0,6588.0,0.0,0.0,168.77
2025-08-15T01:39:47.424Z,13,GR86-035-11,-3.6,0.118,-0.26,99.6,4.0,,0.0,0.0,
2025-08-15T01:39:47.466Z,13,GR86-035-11,-3.7,0.134,-0.264,99.61,4.0,,0.0,0.0,
2025-08-15T01:39:47.510Z,13,GR86-035-11,-4.5,0.129,-0.272,99.6,4.0,6701.0,0.0,0.0,
2025-08-15T01:39:47.553Z,13,GR86-035-11,-5.4,0.131,-0.268,99.61,4.0,,0.0,0.0,170.27
2025-08-15T01:39:47.596Z,13,GR86-035-11,-5.800000000000001,0.138,-0.266,99.6,4.0,,0.0,0.0,
2025-08-15T01:39:47.638Z,13,GR86-035-11,-5.9,0.135,-0.26,99.6,4.0,,0.0,0.0,
2025-08-15T01:39:47.682Z,13,GR86-035-11,-6.2,0.117,-0.297,99.6,4.0,,0.0,0.0,
2025-08-15T01:39:47.724Z,13,GR86-035-11,-6.9,0.102,-0.317,99.6,4.0,6766.0,0.0,0.0,
2025-08-15T01:39:47.767Z,13,GR86-035-11,-7.0,0.108,-0.329,99.59,4.0,,0.0,0.0,171.66
2025-08-15T01:39:47.810Z,13,GR86-035-11,-7.0,0.12,-0.325,99.59,4.0,,0.0,0.0,
2025-08-15T01:39:47.854Z,13,GR86-035-11,-7.300000000000001,0.125,-0.343,99.58,4.0,,0.0,0.0,
2025-08-15T01:39:47.896Z,13,GR86-035-11,-7.5,0.134,-0.37,99.6,4.0,,0.0,0.0,
2025-08-15T01:39:47.940Z,13,GR86-035-11,-7.5,0.12,-0.381,99.61,4.0,6820.0,0.0,0.0,
2025-08-15T01:39:47.983Z,13,GR86-035-11,-7.5,0.097,-0.418,99.57,4.0,,0.0,0.0,172.94
2025-08-15T01:39:48.026Z,13,GR86-035-11,-7.6,0.097,-0.413,99.58,4.0,,0.0,0.0,
2025-08-15T01:39:48.070Z,13,GR86-035-11,-7.6,0.093,-0.417,99.6,4.0,,0.0,0.0,
2025-08-15T01:39:48.113Z,13,GR86-035-11,-7.7,0.088,-0.423,99.61,4.0,,0.0,0.0,
2025-08-15T01:39:48.157Z,13,GR86-035-11,-7.7,0.095,-0.404,99.61,4.0,6868.0,0.0,0.0,
2025-08-15T01:39:48.200Z,13,GR86-035-11,-8.4,0.1,-0.398,99.6,4.0,,0.0,0.0,174.47
2025-08-15T01:39:48.244Z,13,GR86-035-11,-9.7,0.107,-0.378,99.6,4.0,,0.0,0.0,
2025-08-15T01:39:48.287Z,13,GR86-035-11,-10.0,0.136,-0.389,99.6,4.0,,0.0,0.0,
2025-08-15T01:39:48.330Z,13,GR86-035-11,-10.0,0.11,-0.406,99.61,4.0,,0.0,0.0,
2025-08-15T01:39:48.373Z,13,GR86-035-11,-10.1,0.136,-0.43,99.61,4.0,6923.0,0.0,0.0,
2025-08-15T01:39:48.416Z,13,GR86-035-11,-10.1,0.114,-0.466,99.6,4.0,,0.0,0.0,175.79
2025-08-15T01:39:48.459Z,13,GR86-035-11,-10.1,0.114,-0.491,99.6,4.0,,0.0,0.0,
2025-08-15T01:39:48.504Z,13,GR86-035-11,-8.700000000000001,0.102,-0.487,99.57,4.0,,0.0,0.0,
2025-08-15T01:39:48.546Z,13,GR86-035-11,-8.0,0.128,-0.461,76.03,4.0,,0.0,0.0,
2025-08-15T01:39:48.590Z,13,GR86-035-11,-6.800000000000001,0.112,-0.484,6.44,4.0,6972.0,0.0,0.0,
2025-08-15T01:39:48.633Z,13,GR86-035-11,-4.7,0.116,-0.452,4.41,4.0,,0.0,0.0,177.11
2025-08-15T01:39:48.676Z,13,GR86-035-11,-2.7,-0.086,-0.386,4.34,4.0,,0.0,0.0,
2025-08-15T01:39:48.719Z,13,GR86-035-11,-0.5,-0.084,-0.287,4.2,4.0,,0.0,1.83,
2025-08-15T01:39:48.764Z,13,GR86-035-11,0.5,-0.391,-0.269,3.78,4.0,,27.56,27.59,
2025-08-15T01:39:48.806Z,13,GR86-035-11,0.5,-0.533,-0.153,3.29,4.0,6730.0,39.935,39.645,
2025-08-15T01:39:48.850Z,13,GR86-035-11,0.3,-0.919,-0.124,2.82,4.0,,53.775,53.275,178.53
2025-08-15T01:39:48.893Z,13,GR86-035-11,0.2,-1.105,-0.064,2.65,4.0,,65.65,64.99,
2025-08-15T01:39:48.936Z,13,GR86-035-11,0.2,-1.224,-0.046,2.59,4.0,,73.965,73.31,
2025-08-15T01:39:48.978Z,13,GR86-035-11,-0.6000000000000001,-1.317,-0.063,2.56,4.0,,79.69,79.11,
2025-08-15T01:39:49.022Z,13,GR86-035-11,-1.2000000000000002,-1.431,-0.079,2.54,4.0,6800.0,83.18,85.12,
2025-08-15T01:39:49.066Z,13,GR86-035-11,1.8,-1.409,-0.144,2.53,4.0,,82.65,83.9,177.26
2025-08-15T01:39:49.108Z,13,GR86-035-11,4.6000000000000005,-1.387,-0.137,2.52,4.0,,79.9,80.77,
2025-08-15T01:39:49.153Z,13,GR86-035-11,7.2,-1.354,-0.144,2.52,4.0,,70.9,72.895,
2025-08-15T01:39:49.196Z,13,GR86-035-11,8.700000000000001,-1.176,-0.131,2.53,4.0,,61.45,63.375,
2025-08-15T01:39:49.238Z,13,GR86-035-11,8.700000000000001,-1.313,-0.121,2.51,4.0,5818.0,57.53,58.370000000000005,
2025-08-15T01:39:49.283Z,13,GR86-035-11,8.1,-1.043,-0.12,2.5,4.0,,58.585,59.515,165.5
2025-08-15T01:39:49.326Z,13,GR86-035-11,7.4,-1.17,-0.094,2.5,4.0,,57.685,58.31,
2025-08-15T01:39:49.370Z,13,GR86-035-11,6.7,-1.217,-0.065,2.49,4.0,,57.685,58.34,
2025-08-15T01:39:49.414Z,13,GR86-035-11,4.5,-1.223,-0.006,2.49,4.0,,57.99,58.935,
2025-08-15T01:39:49.456Z,13,GR86-035-11,0.6000000000000001,-1.19,-0.018,8.63,4.0,6010.0,58.370000000000005,59.025,
2025-08-15T01:39:49.500Z,13,GR86-035-11,-2.1,-1.19,-0.003,48.45,3.0,,59.085,59.42,159.19
2025-08-15T01:39:49.543Z,13,GR86-035-11,-2.3000000000000003,-1.268,-0.049,3.88,3.0,,61.88,62.9,
2025-08-15T01:39:49.586Z,13,GR86-035-11,-2.4000000000000004,-1.343,-0.006,4.44,3.0,,66.67,68.365,
2025-08-15T01:39:49.630Z,13,GR86-035-11,-2.3000000000000003,-1.393,-0.063,4.3500000000000005,3.0,,68.775,69.05,
2025-08-15T01:39:49.674Z,13,GR86-035-11,-2.4000000000000004,-1.28,0.022,4.18,3.0,5724.0,67.815,68.47,
2025-08-15T01:39:49.716Z,13,GR86-035-11,-2.4000000000000004,-1.18,-0.072,3.95,3.0,,68.03,69.22,143.76
2025-08-15T01:39:49.759Z,13,GR86-035-11,-2.4000000000000004,-1.098,-0.187,3.61,3.0,,66.885,67.785,
2025-08-15T01:39:49.803Z,13,GR86-035-11,-2.4000000000000004,-1.082,-0.128,2.83,3.0,,57.99,59.805,
2025-08-15T01:39:49.846Z,13,GR86-035-11,-2.1,-1.016,-0.315,2.65,3.0,,49.335,51.0,
2025-08-15T01:39:49.890Z,13,GR86-035-11,-2.0,-1.04,-0.209,2.54,3.0,6379.0,40.3,41.89,
2025-08-15T01:39:49.933Z,13,GR86-035-11,-1.8,-0.798,-0.294,2.49,3.0,,33.525,35.050000000000004,135.33
2025-08-15T01:39:49.976Z,13,GR86-035-11,-0.6000000000000001,-0.743,-0.399,2.47,3.0,,30.55,31.62,
2025-08-15T01:39:50.018Z,13,GR86-035-11,-0.3,-0.809,-0.307,2.46,3.0,,29.62,30.675,
2025-08-15T01:39:50.062Z,13,GR86-035-11,-0.3,-0.678,-0.336,15.96,3.0,,25.18,26.355,
2025-08-15T01:39:50.104Z,13,GR86-035-11,-0.8,-0.668,-0.298,52.120000000000005,2.0,5922.0,25.605,26.325,
2025-08-15T01:39:50.147Z,13,GR86-035-11,-4.3,-0.996,-0.256,7.87,2.0,,29.24,29.74,130.95
2025-08-15T01:39:50.190Z,13,GR86-035-11,-9.0,-1.044,-0.201,4.45,2.0,,35.89,36.7,
2025-08-15T01:39:50.234Z,13,GR86-035-11,-10.8,-1.088,-0.311,4.3500000000000005,2.0,,41.965,43.05,
2025-08-15T01:39:50.276Z,13,GR86-035-11,-10.9,-1.281,-0.348,4.21,2.0,,43.705,44.285,
2025-08-15T01:39:50.320Z,13,GR86-035-11,-11.0,-0.991,-0.302,3.98,2.0,6636.0,44.055,45.155,
2025-08-15T01:39:50.363Z,13,GR86-035-11,-13.1,-0.96,-0.537,3.41,2.0,,40.24,40.775,125.77
2025-08-15T01:39:50.406Z,13,GR86-035-11,-17.7,-0.928,-0.471,2.83,2.0,,37.355,37.83,
2025-08-15T01:39:50.450Z,13,GR86-035-11,-21.0,-0.8250000000000001,-0.588,2.62,2.0,,33.97,34.96,
2025-08-15T01:39:50.493Z,13,GR86-035-11,-22.0,-0.749,-0.769,2.53,2.0,,27.68,28.935,
2025-08-15T01:39:50.536Z,13,GR86-035-11,-24.200000000000003,-0.653,-0.678,2.49,2.0,6561.0,22.965,24.08,
2025-08-15T01:39:50.578Z,13,GR86-035-11,-28.3,-0.687,-0.782,2.47,2.0,,20.755,21.625,119.55
2025-08-15T01:39:50.624Z,13,GR86-035-11,-34.2,-0.598,-0.796,2.46,2.0,,18.555,19.365,
2025-08-15T01:39:50.666Z,13,GR86-035-11,-35.5,-0.626,-0.898,2.46,2.0,,18.955,19.58,
2025-08-15T01:39:50.710Z,13,GR86-035-11,-35.5,-0.608,-0.935,2.46,2.0,,18.985,19.73,
2025-08-15T01:39:50.753Z,13,GR86-035-11,-35.5,-0.524,-0.925,2.46,2.0,6364.0,14.115,15.0,
2025-08-15T01:39:50.796Z,13,GR86-035-11,-35.5,-0.388,-1.007,2.47,2.0,,6.335,7.11,115.92
2025-08-15T01:39:50.838Z,13,GR86-035-11,-35.5,-0.285,-1.037,2.46,2.0,,0.0,0.0,
2025-08-15T01:39:50.883Z,13,GR86-035-11,-35.5,-0.224,-1.072,2.46,2.0,,0.0,0.0,
2025-08-15T01:39:50.926Z,13,GR86-035-11,-35.5,-0.207,-1.1,2.46,2.0,,0.0,0.0,
2025-08-15T01:39:50.970Z,13,GR86-035-11,-35.5,-0.202,-1.113,2.47,2.0,6223.0,0.0,0.0,
2025-08-15T01:39:51.014Z,13,GR86-035-11,-35.5,-0.223,-1.1,2.46,2.0,,0.0,0.0,113.22
2025-08-15T01:39:51.056Z,13,GR86-035-11,-35.5,-0.231,-1.085,2.46,2.0,,0.0,0.0,
2025-08-15T01:39:51.100Z,13,GR86-035-11,-36.7,-0.208,-1.093,2.47,2.0,,0.0,0.0,
2025-08-15T01:39:51.143Z,13,GR86-035-11,-38.2,-0.211,-1.078,2.46,2.0,,0.0,0.0,
2025-08-15T01:39:51.186Z,13,GR86-035-11,-39.5,-0.24,-1.056,2.46,2.0,6191.0,0.0,0.0,
2025-08-15T01:39:51.230Z,13,GR86-035-11,-41.1,-0.204,-1.05,2.46,2.0,,0.0,0.0,111.31
2025-08-15T01:39:51.273Z,13,GR86-035-11,-43.6,-0.213,-1.034,2.47,2.0,,0.0,0.0,
2025-08-15T01:39:51.316Z,13,GR86-035-11,-46.2,-0.212,-1.062,2.48,2.0,,0.0,0.0,
2025-08-15T01:39:51.359Z,13,GR86-035-11,-47.7,-0.222,-1.056,2.47,2.0,,0.0,0.0,
2025-08-15T01:39:51.403Z,13,GR86-035-11,-48.900000000000006,-0.231,-1.088,2.48,2.0,6132.0,0.0,0.0,
2025-08-15T01:39:51.446Z,13,GR86-035-11,-50.8,-0.236,-1.069,2.46,2.0,,0.0,0.0,109.93
2025-08-15T01:39:51.490Z,13,GR86-035-11,-53.2,-0.223,-1.13,2.47,2.0,,0.0,0.0,
2025-08-15T01:39:51.533Z,13,GR86-035-11,-55.0,-0.229,-1.13,2.47,2.0,,0.0,0.0,
2025-08-15T01:39:51.576Z,13,GR86-035-11,-55.6,-0.211,-1.188,2.47,2.0,,0.0,0.0,
2025-08-15T01:39:51.618Z,13,GR86-035-11,-55.6,-0.234,-1.241,2.47,2.0,6076.0,0.0,0.0,
2025-08-15T01:39:51.662Z,13,GR86-035-11,-54.2,-0.241,-1.22,2.48,2.0,,0.0,0.0,108.97
2025-08-15T01:39:51.706Z,13,GR86-035-11,-50.3,-0.228,-1.287,2.47,2.0,,0.0,0.0,
2025-08-15T01:39:51.748Z,13,GR86-035-11,-46.0,-0.228,-1.229,2.48,2.0,,0.0,0.0,
2025-08-15T01:39:51.792Z,13,GR86-035-11,-44.3,-0.217,-1.242,2.48,2.0,,0.0,0.0,
2025-08-15T01:39:51.834Z,13,GR86-035-11,-44.3,-0.209,-1.273,2.49,2.0,5981.0,0.0,0.0,
2025-08-15T01:39:51.877Z,13,GR86-035-11,-44.3,-0.247,-1.284,2.48,2.0,,0.0,0.0,108.3
2025-08-15T01:39:51.921Z,13,GR86-035-11,-44.8,-0.209,-1.212,2.49,2.0,,0.0,0.0,
2025-08-15T01:39:51.964Z,13,GR86-035-11,-47.900000000000006,-0.205,-1.224,2.49,2.0,,0.0,0.0,
2025-08-15T01:39:52.006Z,13,GR86-035-11,-50.5,-0.227,-1.165,2.48,2.0,,0.0,0.0,
2025-08-15T01:39:52.050Z,13,GR86-035-11,-53.7,-0.19,-1.121,2.48,2.0,5912.0,0.0,0.0,
2025-08-15T01:39:52.093Z,13,GR86-035-11,-57.3,-0.237,-1.009,2.48,2.0,,0.0,0.0,107.2
2025-08-15T01:39:52.136Z,13,GR86-035-11,-59.900000000000006,-0.283,-1.077,2.47,2.0,,0.0,0.0,
2025-08-15T01:39:52.178Z,13,GR86-035-11,-61.1,-0.267,-1.129,7.48,2.0,,0.0,0.0,
2025-08-15T01:39:52.224Z,13,GR86-035-11,-62.2,-0.225,-0.963,28.56,2.0,,0.0,0.0,
2025-08-15T01:39:52.267Z,13,GR86-035-11,-62.5,-0.275,-1.045,29.71,2.0,5840.0,0.0,0.0,
2025-08-15T01:39:52.310Z,13,GR86-035-11,-62.7,-0.229,-1.218,31.55,2.0,,0.0,0.0,104.09
2025-08-15T01:39:52.353Z,13,GR86-035-11,-63.0,-0.119,-1.164,35.18,2.0,,0.0,0.0,
2025-08-15T01:39:52.396Z,13,GR86-035-11,-63.0,0.125,-1.218,43.2,2.0,,0.0,0.0,
2025-08-15T01:39:52.438Z,13,GR86-035-11,-63.1,0.076,-1.081,48.88,2.0,,0.0,0.0,
2025-08-15T01:39:52.482Z,13,GR86-035-11,-63.0,0.333,-1.168,52.84,2.0,5787.0,0.0,0.0,
2025-08-15T01:39:52.524Z,13,GR86-035-11,-62.0,0.389,-1.127,43.25,2.0,,0.0,0.0,103.09
2025-08-15T01:39:52.567Z,13,GR86-035-11,-61.1,0.1,-1.165,39.23,2.0,,0.0,0.0,
2025-08-15T01:39:52.610Z,13,GR86-035-11,-60.2,-0.125,-1.072,42.47,2.0,,0.0,0.0,
2025-08-15T01:39:52.654Z,13,GR86-035-11,-58.0,-0.168,-1.177,43.33,2.0,,0.0,0.0,
2025-08-15T01:39:52.696Z,13,GR86-035-11,-54.6,0.143,-1.37,41.99,2.0,6198.0,0.0,0.0,
2025-08-15T01:39:52.740Z,13,GR86-035-11,-53.1,0.412,-1.174,41.88,2.0,,0.0,0.0,103.23
2025-08-15T01:39:52.783Z,13,GR86-035-11,-49.0,-0.046,-1.247,45.24,2.0,,0.0,0.0,
2025-08-15T01:39:52.826Z,13,GR86-035-11,-39.7,0.036,-1.034,51.24,2.0,,0.0,0.0,
2025-08-15T01:39:52.870Z,13,GR86-035-11,-29.0,0.219,-1.354,54.05,2.0,,0.0,0.0,
2025-08-15T01:39:52.913Z,13,GR86-035-11,-18.5,0.362,-1.118,53.63,2.0,6360.0,0.0,0.0,
2025-08-15T01:39:52.956Z,13,GR86-035-11,-8.4,0.227,-1.127,55.8,2.0,,0.0,0.0,103.76
2025-08-15T01:39:52.998Z,13,GR86-035-11,-1.7000000000000002,0.066,-1.098,79.86,2.0,,0.0,0.0,
2025-08-15T01:39:53.043Z,13,GR86-035-11,-3.7,0.287,-1.035,99.56,2.0,,0.0,0.0,
2025-08-15T01:39:53.086Z,13,GR86-035-11,-8.6,0.173,-1.148,99.54,2.0,,0.0,0.0,
2025-08-15T01:39:53.128Z,13,GR86-035-11,-7.1000000000000005,0.331,-1.33,99.53,2.0,6314.0,0.0,0.0,
2025-08-15T01:39:53.216Z,13,GR86-035-11,-0.5,0.302,-1.184,99.54,2.0,,0.0,0.0,104.77
2025-08-15T01:39:53.260Z,13,GR86-035-11,-8.9,0.153,-0.977,99.52,2.0,,0.0,0.0,
2025-08-15T01:39:53.304Z,13,GR86-035-11,-38.900000000000006,0.364,-0.845,99.52,2.0,,0.0,0.0,
2025-08-15T01:39:53.346Z,13,GR86-035-11,-62.900000000000006,0.288,-1.06,99.53,2.0,6349.0,0.0,0.0,
2025-08-15T01:39:53.390Z,13,GR86-035-11,-81.30000000000001,0.256,-0.986,99.53,2.0,,0.0,0.0,105.19
2025-08-15T01:39:53.433Z,13,GR86-035-11,-88.10000000000001,0.106,-0.987,99.53,2.0,,0.0,0.0,
2025-08-15T01:39:53.476Z,13,GR86-035-11,-86.2,0.12,-1.038,99.52,2.0,,0.0,0.0,
2025-08-15T01:39:53.519Z,13,GR86-035-11,-83.0,0.125,-1.117,84.81,2.0,,0.0,0.0,
2025-08-15T01:39:53.562Z,13,GR86-035-11,-81.10000000000001,0.137,-1.173,48.35,2.0,6243.0,0.0,0.0,
2025-08-15T01:39:53.606Z,13,GR86-035-11,-74.0,0.141,-1.222,46.76,2.0,,0.0,0.0,106.5
2025-08-15T01:39:53.650Z,13,GR86-035-11,-64.5,0.142,-1.171,60.48,2.0,,0.0,0.0,
2025-08-15T01:39:53.693Z,13,GR86-035-11,-54.2,0.144,-1.146,81.37,2.0,,0.0,0.0,
2025-08-15T01:39:53.736Z,13,GR86-035-11,-43.6,0.175,-1.137,82.87,2.0,,0.0,0.0,
2025-08-15T01:39:53.778Z,13,GR86-035-11,-35.800000000000004,0.156,-1.081,98.65,2.0,6385.0,0.0,0.0,
2025-08-15T01:39:53.822Z,13,GR86-035-11,-38.0,0.186,-1.107,99.53,2.0,,0.0,0.0,109.26
2025-08-15T01:39:53.866Z,13,GR86-035-11,-39.6,0.24,-1.148,99.53,2.0,,0.0,0.0,
2025-08-15T01:39:53.908Z,13,GR86-035-11,-34.0,0.207,-1.097,99.54,2.0,,0.0,0.0,
2025-08-15T01:39:53.953Z,13,GR86-035-11,-22.8,0.183,-1.073,99.54,2.0,,0.0,0.0,
2025-08-15T01:39:53.996Z,13,GR86-035-11,-13.8,0.237,-1.077,99.53,2.0,6536.0,0.0,0.0,
2025-08-15T01:39:54.038Z,13,GR86-035-11,-13.9,0.232,-1.02,99.53,2.0,,0.0,0.0,110.65
2025-08-15T01:39:54.083Z,13,GR86-035-11,-24.4,0.236,-1.035,99.53,2.0,,0.0,0.0,
2025-08-15T01:39:54.126Z,13,GR86-035-11,-30.200000000000003,0.226,-1.076,99.54,2.0,,0.0,0.0,
2025-08-15T01:39:54.170Z,13,GR86-035-11,-30.8,0.206,-1.047,99.54,2.0,,0.0,0.0,
2025-08-15T01:39:54.215Z,13,GR86-035-11,-30.9,0.176,-1.05,99.54,2.0,6592.0,0.0,0.0,
2025-08-15T01:39:54.257Z,13,GR86-035-11,-30.9,0.218,-1.042,99.53,2.0,,0.0,0.0,111.85
2025-08-15T01:39:54.300Z,13,GR86-035-11,-31.1,0.253,-1.011,99.53,2.0,,0.0,0.0,
2025-08-15T01:39:54.343Z,13,GR86-035-11,-30.700000000000003,0.232,-0.934,99.54,2.0,,0.0,0.0,
2025-08-15T01:39:54.386Z,13,GR86-035-11,-28.3,0.19,-1.006,99.54,2.0,,0.0,0.0,
2025-08-15T01:39:54.430Z,13,GR86-035-11,-25.5,0.226,-0.968,99.55,2.0,6674.0,0.0,0.0,
2025-08-15T01:39:54.516Z,13,GR86-035-11,-23.1,0.232,-0.878,99.55,2.0,,0.0,0.0,112.22
2025-08-15T01:39:54.559Z,13,GR86-035-11,-24.6,0.243,-0.872,99.53,2.0,,0.0,0.0,
2025-08-15T01:39:54.604Z,13,GR86-035-11,-30.5,0.22,-0.8240000000000001,99.53,2.0,,0.0,0.0,
2025-08-15T01:39:54.646Z,13,GR86-035-11,-33.9,0.212,-0.8310000000000001,99.55,2.0,6710.0,0.0,0.0,
2025-08-15T01:39:54.690Z,13,GR86-035-11,-35.9,0.22,-0.8140000000000001,99.56,2.0,,0.0,0.0,113.81
2025-08-15T01:39:54.733Z,13,GR86-035-11,-36.2,0.215,-0.81,99.53,2.0,,0.0,0.0,
2025-08-15T01:39:54.776Z,13,GR86-035-11,-36.2,0.185,-0.85,99.52,2.0,,0.0,0.0,
2025-08-15T01:39:54.818Z,13,GR86-035-11,-34.6,0.213,-0.8300000000000001,99.53,2.0,,0.0,0.0,
2025-08-15T01:39:54.862Z,13,GR86-035-11,-29.0,0.229,-0.8150000000000001,99.53,2.0,6760.0,0.0,0.0,
2025-08-15T01:39:54.904Z,13,GR86-035-11,-25.3,0.209,-0.749,99.53,2.0,,0.0,0.0,117.4
2025-08-15T01:39:54.947Z,13,GR86-035-11,-23.4,0.183,-0.752,99.53,2.0,,0.0,0.0,
2025-08-15T01:39:54.990Z,13,GR86-035-11,-22.0,0.197,-0.726,99.53,2.0,,0.0,0.0,
2025-08-15T01:39:55.034Z,13,GR86-035-11,-21.6,0.17,-0.581,99.56,2.0,,0.0,0.0,
2025-08-15T01:39:55.076Z,13,GR86-035-11,-21.8,0.18,-0.545,99.55,2.0,6864.0,0.0,0.0,
2025-08-15T01:39:55.120Z,13,GR86-035-11,-22.0,0.166,-0.43,99.53,2.0,,0.0,0.0,119.09
2025-08-15T01:39:55.163Z,13,GR86-035-11,-24.4,0.231,-0.482,99.53,2.0,,0.0,0.0,
2025-08-15T01:39:55.206Z,13,GR86-035-11,-25.3,0.257,-0.54,99.57,2.0,,0.0,0.0,
2025-08-15T01:39:55.250Z,13,GR86-035-11,-25.3,0.242,-0.434,99.56,2.0,,0.0,0.0,
2025-08-15T01:39:55.293Z,13,GR86-035-11,-25.1,0.265,-0.538,99.57,2.0,6952.0,0.0,0.0,
2025-08-15T01:39:55.336Z,13,GR86-035-11,-25.1,0.244,-0.618,99.56,2.0,,0.0,0.0,120.65
2025-08-15T01:39:55.378Z,13,GR86-035-11,-25.1,0.214,-0.658,99.57,2.0,,0.0,0.0,
2025-08-15T01:39:55.424Z,13,GR86-035-11,-25.1,0.193,-0.747,99.57,2.0,,0.0,0.0,
2025-08-15T01:39:55.466Z,13,GR86-035-11,-25.1,0.222,-0.686,99.57,2.0,,0.0,0.0,
2025-08-15T01:39:55.510Z,13,GR86-035-11,-25.0,0.214,-0.713,99.6,2.0,7148.0,0.0,0.0,
2025-08-15T01:39:55.553Z,13,GR86-035-11,-24.6,0.197,-0.746,99.56,2.0,,0.0,0.0,122.39
2025-08-15T01:39:55.596Z,13,GR86-035-11,-22.8,0.218,-0.728,99.56,2.0,,0.0,0.0,
2025-08-15T01:39:55.638Z,13,GR86-035-11,-20.200000000000003,0.229,-0.785,99.56,2.0,,0.0,0.0,
2025-08-15T01:39:55.726Z,13,GR86-035-11,-17.900000000000002,0.223,-0.6880000000000001,99.57,2.0,7223.0,0.0,0.0,
2025-08-15T01:39:55.770Z,13,GR86-035-11,-17.3,0.218,-0.377,99.59,2.0,,0.0,0.0,123.91
2025-08-15T01:39:55.814Z,13,GR86-035-11,-14.7,0.173,-0.581,99.56,2.0,,0.0,0.0,
2025-08-15T01:39:55.856Z,13,GR86-035-11,-10.1,0.213,-0.592,99.57,2.0,,0.0,0.0,
2025-08-15T01:39:55.900Z,13,GR86-035-11,-6.2,0.046,-0.447,99.56,2.0,,0.0,0.0,
2025-08-15T01:39:55.943Z,13,GR86-035-11,-2.9000000000000004,0.297,-0.214,99.57,3.0,7177.0,0.0,0.0,
2025-08-15T01:39:55.986Z,13,GR86-035-11,-0.5,0.329,-0.384,99.59,3.0,,0.0,0.0,125.54
2025-08-15T01:39:56.030Z,13,GR86-035-11,2.3000000000000003,0.35,-0.342,99.56,3.0,,0.0,0.0,
2025-08-15T01:39:56.074Z,13,GR86-035-11,2.5,0.363,-0.062,99.57,3.0,,0.0,0.0,
2025-08-15T01:39:56.116Z,13,GR86-035-11,2.4000000000000004,0.26,-0.257,99.57,3.0,,0.0,0.0,
2025-08-15T01:39:56.159Z,13,GR86-035-11,2.4000000000000004,0.071,0.115,99.56,3.0,6064.0,0.0,0.0,
2025-08-15T01:39:56.203Z,13,GR86-035-11,2.3000000000000003,0.126,0.106,99.57,3.0,,0.0,0.0,127.01
2025-08-15T01:39:56.246Z,13,GR86-035-11,2.3000000000000003,0.294,0.087,99.58,3.0,,0.0,0.0,
2025-08-15T01:39:56.290Z,13,GR86-035-11,2.5,0.244,0.068,99.56,3.0,,0.0,0.0,
2025-08-15T01:39:56.333Z,13,GR86-035-11,2.8000000000000003,0.184,0.112,99.58,3.0,,0.0,0.0,
2025-08-15T01:39:56.418Z,13,GR86-035-11,2.8000000000000003,0.235,0.062,99.59,3.0,,0.0,0.0,128.49
2025-08-15T01:39:56.462Z,13,GR86-035-11,2.8000000000000003,0.253,0.028,99.58,3.0,6092.0,0.0,0.0,
2025-08-15T01:39:56.506Z,13,GR86-035-11,2.8000000000000003,0.179,0.027,99.6,3.0,,0.0,0.0,
2025-08-15T01:39:56.548Z,13,GR86-035-11,2.8000000000000003,0.172,0.012,99.58,3.0,,0.0,0.0,
2025-08-15T01:39:56.592Z,13,GR86-035-11,2.8000000000000003,0.205,-0.002,99.57,3.0,6109.0,0.0,0.0,
2025-08-15T01:39:56.634Z,13,GR86-035-11,2.8000000000000003,0.228,-0.015,99.56,3.0,,0.0,0.0,130.5
2025-08-15T01:39:56.677Z,13,GR86-035-11,2.8000000000000003,0.187,0.005,99.56,3.0,,0.0,0.0,
2025-08-15T01:39:56.720Z,13,GR86-035-11,2.9000000000000004,0.181,0.003,99.57,3.0,,0.0,0.0,
2025-08-15T01:39:56.764Z,13,GR86-035-11,2.9000000000000004,0.175,0.016,99.57,3.0,,0.0,0.0,
2025-08-15T01:39:56.806Z,13,GR86-035-11,2.9000000000000004,0.207,-0.003,99.56,3.0,6188.0,0.0,0.0,
2025-08-15T01:39:56.850Z,13,GR86-035-11,2.9000000000000004,0.208,0.004,99.58,3.0,,0.0,0.0,131.82
2025-08-15T01:39:56.893Z,13,GR86-035-11,2.9000000000000004,0.192,0.025,99.57,3.0,,0.0,0.0,
2025-08-15T01:39:56.936Z,13,GR86-035-11,2.9000000000000004,0.171,0.03,99.57,3.0,,0.0,0.0,
2025-08-15T01:39:56.978Z,13,GR86-035-11,2.9000000000000004,0.206,0.011,99.6,3.0,,0.0,0.0,
2025-08-15T01:39:57.024Z,13,GR86-035-11,2.9000000000000004,0.198,0.014,99.58,3.0,6254.0,0.0,0.0,
2025-08-15T01:39:57.066Z,13,GR86-035-11,2.9000000000000004,0.213,0.001,99.6,3.0,,0.0,0.0,133.34
2025-08-15T01:39:57.110Z,13,GR86-035-11,2.9000000000000004,0.186,-0.001,99.57,3.0,,0.0,0.0,
2025-08-15T01:39:57.153Z,13,GR86-035-11,2.9000000000000004,0.172,0.023,99.58,3.0,,0.0,0.0,
2025-08-15T01:39:57.196Z,13,GR86-035-11,2.9000000000000004,0.179,0.006,99.56,3.0,,0.0,0.0,
2025-08-15T01:39:57.238Z,13,GR86-035-11,2.9000000000000004,0.219,0.004,99.57,3.0,6318.0,0.0,0.0,
2025-08-15T01:39:57.282Z,13,GR86-035-11,2.9000000000000004,0.195,-0.004,99.58,3.0,,0.0,0.0,134.81
2025-08-15T01:39:57.324Z,13,GR86-035-11,2.9000000000000004,0.19,-0.001,99.6,3.0,,0.0,0.0,
2025-08-15T01:39:57.367Z,13,GR86-035-11,2.9000000000000004,0.203,0.0,99.6,3.0,,0.0,0.0,
2025-08-15T01:39:57.410Z,13,GR86-035-11,2.9000000000000004,0.178,0.016,99.56,3.0,,0.0,0.0,
2025-08-15T01:39:57.454Z,13,GR86-035-11,2.9000000000000004,0.198,0.015,99.58,3.0,6375.0,0.0,0.0,
2025-08-15T01:39:57.496Z,13,GR86-035-11,2.9000000000000004,0.199,0.001,99.57,3.0,,0.0,0.0,136.24
2025-08-15T01:39:57.540Z,13,GR86-035-11,2.9000000000000004,0.21,0.018,99.58,3.0,,0.0,0.0,
2025-08-15T01:39:57.584Z,13,GR86-035-11,2.9000000000000004,0.199,-0.009,99.58,3.0,,0.0,0.0,
2025-08-15T01:39:57.626Z,13,GR86-035-11,2.9000000000000004,0.18,0.006,99.58,3.0,,0.0,0.0,
2025-08-15T01:39:57.670Z,13,GR86-035-11,2.9000000000000004,0.184,0.009,99.58,3.0,6446.0,0.0,0.0,
2025-08-15T01:39:57.713Z,13,GR86-035-11,2.9000000000000004,0.195,0.0,99.57,3.0,,0.0,0.0,138.93
2025-08-15T01:39:57.757Z,13,GR86-035-11,2.9000000000000004,0.203,0.003,99.59,3.0,,0.0,0.0,
2025-08-15T01:39:57.800Z,13,GR86-035-11,2.9000000000000004,0.186,0.01,99.58,3.0,,0.0,0.0,
2025-08-15T01:39:57.844Z,13,GR86-035-11,2.9000000000000004,0.178,0.006,99.58,3.0,,0.0,0.0,
2025-08-15T01:39:57.887Z,13,GR86-035-11,2.9000000000000004,0.212,0.006,99.58,3.0,6529.0,0.0,0.0,
2025-08-15T01:39:57.930Z,13,GR86-035-11,2.9000000000000004,0.182,-0.004,99.57,3.0,,0.0,0.0,140.36
2025-08-15T01:39:57.974Z,13,GR86-035-11,2.9000000000000004,0.193,-0.024,99.57,3.0,,0.0,0.0,
2025-08-15T01:39:58.016Z,13,GR86-035-11,2.9000000000000004,0.183,-0.015,99.59,3.0,,0.0,0.0,
2025-08-15T01:39:58.059Z,13,GR86-035-11,2.9000000000000004,0.199,-0.006,99.56,3.0,,0.0,0.0,
2025-08-15T01:39:58.104Z,13,GR86-035-11,2.9000000000000004,0.199,-0.01,99.56,3.0,6656.0,0.0,0.0,
2025-08-15T01:39:58.146Z,13,GR86-035-11,2.9000000000000004,0.194,0.018,99.59,3.0,,0.0,0.0,141.78
2025-08-15T01:39:58.190Z,13,GR86-035-11,2.9000000000000004,0.189,-0.005,99.59,3.0,,0.0,0.0,
2025-08-15T01:39:58.235Z,13,GR86-035-11,2.9000000000000004,0.166,0.0,99.57,3.0,,0.0,0.0,
2025-08-15T01:39:58.277Z,13,GR86-035-11,2.9000000000000004,0.178,0.003,99.58,3.0,,0.0,0.0,
2025-08-15T01:39:58.320Z,13,GR86-035-11,2.9000000000000004,0.198,0.006,99.59,3.0,6716.0,0.0,0.0,
2025-08-15T01:39:58.406Z,13,GR86-035-11,2.9000000000000004,0.187,0.012,99.59,3.0,,0.0,0.0,143.15
2025-08-15T01:39:58.493Z,13,GR86-035-11,2.9000000000000004,0.2,0.026,99.57,3.0,,0.0,0.0,
2025-08-15T01:39:58.536Z,13,GR86-035-11,2.9000000000000004,0.164,0.01,99.6,3.0,6761.0,0.0,0.0,
2025-08-15T01:39:58.578Z,13,GR86-035-11,2.9000000000000004,0.174,0.009,99.59,3.0,,0.0,0.0,144.49
2025-08-15T01:39:58.622Z,13,GR86-035-11,2.7,0.17,-0.012,99.59,3.0,,0.0,0.0,
2025-08-15T01:39:58.666Z,13,GR86-035-11,2.4000000000000004,0.162,0.008,99.59,3.0,,0.0,0.0,
2025-08-15T01:39:58.752Z,13,GR86-035-11,2.3000000000000003,0.213,0.0,99.58,3.0,6831.0,0.0,0.0,
2025-08-15T01:39:58.796Z,13,GR86-035-11,2.3000000000000003,0.192,-0.023,99.57,3.0,,0.0,0.0,145.75
2025-08-15T01:39:58.838Z,13,GR86-035-11,2.3000000000000003,0.175,0.011,99.57,3.0,,0.0,0.0,
2025-08-15T01:39:58.883Z,13,GR86-035-11,2.0,0.179,-0.059,99.59,3.0,,0.0,0.0,
2025-08-15T01:39:58.926Z,13,GR86-035-11,1.5,0.177,-0.041,99.57,3.0,,0.0,0.0,
2025-08-15T01:39:58.970Z,13,GR86-035-11,1.1,0.165,-0.066,99.56,3.0,6896.0,0.0,0.0,
2025-08-15T01:39:59.014Z,13,GR86-035-11,0.9,0.162,-0.061,99.57,3.0,,0.0,0.0,147.03
2025-08-15T01:39:59.056Z,13,GR86-035-11,0.8,0.183,-0.068,99.57,3.0,,0.0,0.0,
2025-08-15T01:39:59.100Z,13,GR86-035-11,0.7000000000000001,0.195,-0.075,99.58,3.0,,0.0,0.0,
2025-08-15T01:39:59.143Z,13,GR86-035-11,0.7000000000000001,0.165,-0.065,99.59,3.0,,0.0,0.0,
2025-08-15T01:39:59.186Z,13,GR86-035-11,0.7000000000000001,0.19,-0.078,99.57,3.0,6948.0,0.0,0.0,
2025-08-15T01:39:59.230Z,13,GR86-035-11,0.7000000000000001,0.18,-0.079,99.58,3.0,,0.0,0.0,148.31
2025-08-15T01:39:59.274Z,13,GR86-035-11,0.7000000000000001,0.182,-0.106,99.6,3.0,,0.0,0.0,
2025-08-15T01:39:59.316Z,13,GR86-035-11,0.7000000000000001,0.151,-0.071,99.58,3.0,,0.0,0.0,
2025-08-15T01:39:59.359Z,13,GR86-035-11,0.7000000000000001,0.175,-0.05,99.59,3.0,,0.0,0.0,
2025-08-15T01:39:59.404Z,13,GR86-035-11,0.7000000000000001,0.163,-0.081,99.58,3.0,7006.0,0.0,0.0,
2025-08-15T01:39:59.446Z,13,GR86-035-11,0.6000000000000001,0.149,-0.065,99.57,3.0,,0.0,0.0,149.54
2025-08-15T01:39:59.490Z,13,GR86-035-11,0.6000000000000001,0.175,-0.072,99.57,3.0,,0.0,0.0,
2025-08-15T01:39:59.533Z,13,GR86-035-11,0.6000000000000001,0.178,-0.077,99.57,3.0,,0.0,0.0,
2025-08-15T01:39:59.576Z,13,GR86-035-11,0.6000000000000001,0.19,-0.103,99.56,3.0,,0.0,0.0,
2025-08-15T01:39:59.618Z,13,GR86-035-11,0.5,0.172,-0.093,99.57,3.0,7066.0,0.0,0.0,
2025-08-15T01:39:59.662Z,13,GR86-035-11,0.5,0.157,-0.08,99.57,3.0,,0.0,0.0,150.73
2025-08-15T01:39:59.706Z,13,GR86-035-11,0.5,0.185,-0.091,99.57,3.0,,0.0,0.0,
2025-08-15T01:39:59.748Z,13,GR86-035-11,0.5,0.171,-0.089,99.57,3.0,,0.0,0.0,
2025-08-15T01:39:59.792Z,13,GR86-035-11,0.5,0.157,-0.08,99.6,3.0,,0.0,0.0,
2025-08-15T01:39:59.834Z,13,GR86-035-11,0.5,0.147,-0.057,99.58,3.0,7112.0,0.0,0.0,
2025-08-15T01:39:59.877Z,13,GR86-035-11,0.5,0.164,-0.059,99.61,3.0,,0.0,0.0,151.99
2025-08-15T01:39:59.921Z,13,GR86-035-11,0.5,0.163,-0.075,99.57,3.0,,0.0,0.0,
2025-08-15T01:39:59.966Z,13,GR86-035-11,0.4,0.147,-0.054,99.61,3.0,,0.0,0.0,
2025-08-15T01:40:00.010Z,13,GR86-035-11,0.4,0.157,-0.071,99.57,3.0,,0.0,0.0,
2025-08-15T01:40:00.053Z,13,GR86-035-11,0.4,0.156,-0.08,99.58,3.0,7165.0,0.0,0.0,
2025-08-15T01:40:00.096Z,13,GR86-035-11,0.4,0.168,-0.102,99.58,3.0,,0.0,0.0,153.20000000000002
2025-08-15T01:40:00.138Z,13,GR86-035-11,0.4,0.173,-0.087,99.58,3.0,,0.0,0.0,
2025-08-15T01:40:00.183Z,13,GR86-035-11,0.3,0.161,-0.081,99.6,3.0,,0.0,0.0,
2025-08-15T01:40:00.226Z,13,GR86-035-11,0.3,0.16,-0.083,99.57,3.0,,0.0,0.0,
2025-08-15T01:40:00.270Z,13,GR86-035-11,0.2,0.178,-0.104,99.56,3.0,7218.0,0.0,0.0,
2025-08-15T01:40:00.314Z,13,GR86-035-11,0.2,0.152,-0.098,99.57,3.0,,0.0,0.0,155.55
2025-08-15T01:40:00.356Z,13,GR86-035-11,0.2,0.146,-0.089,99.6,3.0,,0.0,0.0,
2025-08-15T01:40:00.400Z,13,GR86-035-11,0.2,-0.035,-0.075,99.6,3.0,,0.0,0.0,
2025-08-15T01:40:00.443Z,13,GR86-035-11,-0.2,0.143,-0.091,99.6,4.0,,0.0,0.0,
2025-08-15T01:40:00.487Z,13,GR86-035-11,-0.2,0.249,-0.167,99.58,4.0,7274.0,0.0,0.0,
2025-08-15T01:40:00.530Z,13,GR86-035-11,-0.2,0.25,-0.142,99.58,4.0,,0.0,0.0,156.66
2025-08-15T01:40:00.573Z,13,GR86-035-11,-0.2,0.143,-0.068,99.58,4.0,,0.0,0.0,
2025-08-15T01:40:00.616Z,13,GR86-035-11,-0.2,0.041,-0.178,99.57,4.0,,0.0,0.0,
2025-08-15T01:40:00.658Z,13,GR86-035-11,-0.2,0.085,-0.163,99.59,4.0,,0.0,0.0,
2025-08-15T01:40:00.704Z,13,GR86-035-11,-0.2,0.168,-0.149,99.57,4.0,6258.0,0.0,0.0,
2025-08-15T01:40:00.746Z,13,GR86-035-11,-0.2,0.118,-0.164,99.57,4.0,,0.0,0.0,157.71
2025-08-15T01:40:00.790Z,13,GR86-035-11,-0.3,0.077,-0.14,99.57,4.0,,0.0,0.0,
2025-08-15T01:40:00.833Z,13,GR86-035-11,-0.3,0.129,-0.159,99.59,4.0,,0.0,0.0,
2025-08-15T01:40:00.876Z,13,GR86-035-11,-0.3,0.157,-0.148,99.56,4.0,,0.0,0.0,
2025-08-15T01:40:00.918Z,13,GR86-035-11,-0.3,0.146,-0.111,99.57,4.0,6249.0,0.0,0.0,
2025-08-15T01:40:00.962Z,13,GR86-035-11,-0.3,0.122,-0.122,99.57,4.0,,0.0,0.0,158.72
2025-08-15T01:40:01.006Z,13,GR86-035-11,-0.3,0.14,-0.119,99.57,4.0,,0.0,0.0,
2025-08-15T01:40:01.048Z,13,GR86-035-11,-0.3,0.153,-0.11,99.57,4.0,,0.0,0.0,
2025-08-15T01:40:01.092Z,13,GR86-035-11,-0.3,0.149,-0.087,99.59,4.0,,0.0,0.0,
2025-08-15T01:40:01.134Z,13,GR86-035-11,-0.3,0.139,-0.081,99.59,4.0,6274.0,0.0,0.0,
2025-08-15T01:40:01.177Z,13,GR86-035-11,-0.3,0.122,-0.06,99.56,4.0,,0.0,0.0,159.64
2025-08-15T01:40:01.220Z,13,GR86-035-11,-0.3,0.119,-0.078,99.56,4.0,,0.0,0.0,
2025-08-15T01:40:01.264Z,13,GR86-035-11,-0.3,0.14,-0.086,99.57,4.0,,0.0,0.0,
2025-08-15T01:40:01.307Z,13,GR86-035-11,-0.3,0.129,-0.072,99.57,4.0,,0.0,0.0,
2025-08-15T01:40:01.350Z,13,GR86-035-11,-0.3,0.115,-0.059,99.58,4.0,6313.0,0.0,0.0,
2025-08-15T01:40:01.393Z,13,GR86-035-11,-0.3,0.12,-0.075,99.56,4.0,,0.0,0.0,160.56
2025-08-15T01:40:01.436Z,13,GR86-035-11,-0.3,0.1,-0.084,99.58,4.0,,0.0,0.0,
2025-08-15T01:40:01.478Z,13,GR86-035-11,-0.3,0.117,-0.119,99.6,4.0,,0.0,0.0,
2025-08-15T01:40:01.524Z,13,GR86-035-11,-0.3,0.131,-0.083,99.56,4.0,,0.0,0.0,
2025-08-15T01:40:01.566Z,13,GR86-035-11,-0.3,0.11,-0.084,99.57,4.0,6353.0,0.0,0.0,
2025-08-15T01:40:01.610Z,13,GR86-035-11,-0.3,0.109,-0.112,99.57,4.0,,0.0,0.0,161.47
2025-08-15T01:40:01.653Z,13,GR86-035-11,-0.4,0.106,-0.109,99.58,4.0,,0.0,0.0,
2025-08-15T01:40:01.696Z,13,GR86-035-11,-0.4,0.12,-0.122,99.57,4.0,,0.0,0.0,
2025-08-15T01:40:01.738Z,13,GR86-035-11,-0.4,0.125,-0.126,99.57,4.0,,0.0,0.0,
2025-08-15T01:40:01.782Z,13,GR86-035-11,-0.4,0.11,-0.091,99.59,4.0,6388.0,0.0,0.0,
2025-08-15T01:40:01.824Z,13,GR86-035-11,-0.4,0.101,-0.119,99.56,4.0,,0.0,0.0,162.44
2025-08-15T01:40:01.867Z,13,GR86-035-11,-0.4,0.096,-0.093,99.57,4.0,,0.0,0.0,
2025-08-15T01:40:01.910Z,13,GR86-035-11,-1.2000000000000002,0.097,-0.123,99.57,4.0,,0.0,0.0,
2025-08-15T01:40:01.954Z,13,GR86-035-11,-1.8,0.13,-0.108,99.58,4.0,,0.0,0.0,
2025-08-15T01:40:01.996Z,13,GR86-035-11,-1.9,0.138,-0.116,99.56,4.0,6416.0,0.0,0.0,
2025-08-15T01:40:02.041Z,13,GR86-035-11,-2.1,0.13,-0.107,99.58,4.0,,0.0,0.0,163.4
2025-08-15T01:40:02.084Z,13,GR86-035-11,-2.6,0.108,-0.152,99.58,4.0,,0.0,0.0,
2025-08-15T01:40:02.126Z,13,GR86-035-11,-2.7,0.113,-0.149,99.57,4.0,,0.0,0.0,
2025-08-15T01:40:02.170Z,13,GR86-035-11,-2.7,0.115,-0.168,99.56,4.0,,0.0,0.0,
2025-08-15T01:40:02.214Z,13,GR86-035-11,-2.8000000000000003,0.137,-0.177,99.58,4.0,6460.0,0.0,0.0,
2025-08-15T01:40:02.257Z,13,GR86-035-11,-2.8000000000000003,0.137,-0.184,99.55,4.0,,0.0,0.0,164.33
2025-08-15T01:40:02.300Z,13,GR86-035-11,-2.8000000000000003,0.133,-0.171,99.58,4.0,,0.0,0.0,
2025-08-15T01:40:02.343Z,13,GR86-035-11,-2.8000000000000003,0.097,-0.199,99.55,4.0,,0.0,0.0,
2025-08-15T01:40:02.386Z,13,GR86-035-11,-2.8000000000000003,0.106,-0.193,99.58,4.0,,0.0,0.0,
2025-08-15T01:40:02.430Z,13,GR86-035-11,-2.8000000000000003,0.125,-0.187,99.57,4.0,6496.0,0.0,0.0,
2025-08-15T01:40:02.516Z,13,GR86-035-11,-2.8000000000000003,0.141,-0.175,99.57,4.0,,0.0,0.0,165.27
2025-08-15T01:40:02.559Z,13,GR86-035-11,-2.9000000000000004,0.127,-0.175,99.58,4.0,,0.0,0.0,
2025-08-15T01:40:02.604Z,13,GR86-035-11,-2.9000000000000004,0.099,-0.186,99.57,4.0,,0.0,0.0,
2025-08-15T01:40:02.646Z,13,GR86-035-11,-2.9000000000000004,0.125,-0.198,99.58,4.0,6540.0,0.0,0.0,
2025-08-15T01:40:02.690Z,13,GR86-035-11,-2.9000000000000004,0.134,-0.211,99.57,4.0,,0.0,0.0,166.24
2025-08-15T01:40:02.733Z,13,GR86-035-11,-2.9000000000000004,0.126,-0.194,99.57,4.0,,0.0,0.0,
2025-08-15T01:40:02.776Z,13,GR86-035-11,-3.0,0.147,-0.198,99.57,4.0,,0.0,0.0,
2025-08-15T01:40:02.819Z,13,GR86-035-11,-3.0,0.133,-0.209,99.57,4.0,,0.0,0.0,
2025-08-15T01:40:02.864Z,13,GR86-035-11,-3.0,0.097,-0.223,99.57,4.0,6578.0,0.0,0.0,
2025-08-15T01:40:02.906Z,13,GR86-035-11,-3.0,0.107,-0.21,99.57,4.0,,0.0,0.0,168.18
2025-08-15T01:40:02.950Z,13,GR86-035-11,-3.0,0.114,-0.181,99.58,4.0,,0.0,0.0,
2025-08-15T01:40:02.993Z,13,GR86-035-11,-2.7,0.123,-0.2,99.57,4.0,,0.0,0.0,
2025-08-15T01:40:03.036Z,13,GR86-035-11,-0.8,0.136,-0.171,99.56,4.0,,0.0,0.0,
2025-08-15T01:40:03.078Z,13,GR86-035-11,0.3,0.132,-0.149,99.57,4.0,6620.0,0.0,0.0,
2025-08-15T01:40:03.122Z,13,GR86-035-11,0.4,0.106,-0.15,99.58,4.0,,0.0,0.0,169.13
2025-08-15T01:40:03.166Z,13,GR86-035-11,0.4,0.102,-0.13,99.57,4.0,,0.0,0.0,
2025-08-15T01:40:03.208Z,13,GR86-035-11,0.4,0.104,-0.096,99.55,4.0,,0.0,0.0,
2025-08-15T01:40:03.252Z,13,GR86-035-11,0.3,0.121,-0.064,99.57,4.0,,0.0,0.0,
2025-08-15T01:40:03.297Z,13,GR86-035-11,0.3,0.134,-0.059,99.58,4.0,6657.0,0.0,0.0,
2025-08-15T01:40:03.341Z,13,GR86-035-11,0.4,0.141,-0.035,99.55,4.0,,0.0,0.0,170.12
2025-08-15T01:40:03.383Z,13,GR86-035-11,0.3,0.092,-0.053,99.59,4.0,,0.0,0.0,
2025-08-15T01:40:03.426Z,13,GR86-035-11,0.1,0.097,-0.032,99.57,4.0,,0.0,0.0,
2025-08-15T01:40:03.470Z,13,GR86-035-11,-0.1,0.092,-0.036,99.59,4.0,,0.0,0.0,
2025-08-15T01:40:03.514Z,13,GR86-035-11,-0.1,0.1,-0.019,99.57,4.0,6725.0,0.0,0.0,
2025-08-15T01:40:03.556Z,13,GR86-035-11,-0.1,0.101,-0.024,99.57,4.0,,0.0,0.0,171.18
2025-08-15T01:40:03.600Z,13,GR86-035-11,-0.2,0.108,-0.052,99.56,4.0,,0.0,0.0,
2025-08-15T01:40:03.643Z,13,GR86-035-11,-0.2,0.095,-0.086,99.57,4.0,,0.0,0.0,
2025-08-15T01:40:03.686Z,13,GR86-035-11,-0.3,0.095,-0.089,99.57,4.0,,0.0,0.0,
2025-08-15T01:40:03.730Z,13,GR86-035-11,-0.7000000000000001,0.103,-0.099,99.57,4.0,6771.0,0.0,0.0,
2025-08-15T01:40:03.774Z,13,GR86-035-11,-0.8,0.092,-0.096,99.57,4.0,,0.0,0.0,172.16
2025-08-15T01:40:03.816Z,13,GR86-035-11,-0.8,0.078,-0.1,99.55,4.0,,0.0,0.0,
2025-08-15T01:40:03.859Z,13,GR86-035-11,-1.0,0.093,-0.114,99.55,4.0,,0.0,0.0,
2025-08-15T01:40:03.904Z,13,GR86-035-11,-1.3,0.128,-0.117,99.57,4.0,,0.0,0.0,
2025-08-15T01:40:03.990Z,13,GR86-035-11,-1.3,0.127,-0.139,99.57,4.0,6801.0,0.0,0.0,173.01
2025-08-15T01:40:04.033Z,13,GR86-035-11,-1.4,0.119,-0.145,99.56,4.0,,0.0,0.0,
2025-08-15T01:40:04.076Z,13,GR86-035-11,-1.4,0.096,-0.165,99.58,4.0,,0.0,0.0,
2025-08-15T01:40:04.118Z,13,GR86-035-11,-1.4,0.129,-0.151,99.58,4.0,,0.0,0.0,
2025-08-15T01:40:04.162Z,13,GR86-035-11,-1.5,0.115,-0.131,99.56,4.0,6843.0,0.0,0.0,
2025-08-15T01:40:04.206Z,13,GR86-035-11,-1.5,0.126,-0.141,99.57,4.0,,0.0,0.0,173.97
2025-08-15T01:40:04.248Z,13,GR86-035-11,-1.5,0.129,-0.171,99.59,4.0,,0.0,0.0,
2025-08-15T01:40:04.292Z,13,GR86-035-11,-1.7000000000000002,0.126,-0.178,99.58,4.0,,0.0,0.0,
2025-08-15T01:40:04.336Z,13,GR86-035-11,-1.9,0.136,-0.161,99.57,4.0,,0.0,0.0,
2025-08-15T01:40:04.378Z,13,GR86-035-11,-2.1,0.13,-0.173,99.55,4.0,6885.0,0.0,0.0,
2025-08-15T01:40:04.424Z,13,GR86-035-11,-2.1,0.108,-0.153,99.58,4.0,,0.0,0.0,175.04
2025-08-15T01:40:04.466Z,13,GR86-035-11,-2.1,0.089,-0.151,99.57,4.0,,0.0,0.0,
2025-08-15T01:40:04.510Z,13,GR86-035-11,-2.2,0.106,-0.132,99.57,4.0,,0.0,0.0,
2025-08-15T01:40:04.553Z,13,GR86-035-11,-2.2,0.087,-0.149,99.57,4.0,,0.0,0.0,
2025-08-15T01:40:04.596Z,13,GR86-035-11,-2.2,0.102,-0.149,99.57,4.0,6918.0,0.0,0.0,
2025-08-15T01:40:04.638Z,13,GR86-035-11,-2.3000000000000003,0.096,-0.179,99.54,4.0,,0.0,0.0,176.04
2025-08-15T01:40:04.683Z,13,GR86-035-11,-2.3000000000000003,0.126,-0.202,99.57,4.0,,0.0,0.0,
2025-08-15T01:40:04.726Z,13,GR86-035-11,-2.3000000000000003,0.108,-0.194,99.59,4.0,,0.0,0.0,
2025-08-15T01:40:04.770Z,13,GR86-035-11,-2.3000000000000003,0.127,-0.203,99.59,4.0,,0.0,0.0,
2025-08-15T01:40:04.814Z,13,GR86-035-11,-2.3000000000000003,0.112,-0.204,99.58,4.0,6957.0,0.0,0.0,
2025-08-15T01:40:04.857Z,13,GR86-035-11,-2.3000000000000003,0.105,-0.202,99.59,4.0,,0.0,0.0,176.94
2025-08-15T01:40:04.900Z,13,GR86-035-11,-2.3000000000000003,0.108,-0.2,99.58,4.0,,0.0,0.0,
2025-08-15T01:40:04.943Z,13,GR86-035-11,-2.2,0.102,-0.186,99.57,4.0,,0.0,0.0,
2025-08-15T01:40:04.986Z,13,GR86-035-11,-2.0,0.106,-0.17,99.57,4.0,,0.0,0.0,
2025-08-15T01:40:05.030Z,13,GR86-035-11,-1.8,0.115,-0.148,99.55,4.0,6992.0,0.0,0.0,
2025-08-15T01:40:05.073Z,13,GR86-035-11,-1.8,0.1,-0.154,99.57,4.0,,0.0,0.0,177.91
2025-08-15T01:40:05.116Z,13,GR86-035-11,-1.8,0.106,-0.137,99.56,4.0,,0.0,0.0,
2025-08-15T01:40:05.158Z,13,GR86-035-11,-1.8,0.106,-0.152,99.57,4.0,,0.0,0.0,
2025-08-15T01:40:05.203Z,13,GR86-035-11,-1.8,0.11,-0.103,99.58,4.0,,0.0,0.0,
2025-08-15T01:40:05.246Z,13,GR86-035-11,-1.8,0.097,-0.1,99.55,4.0,7023.0,0.0,0.0,
2025-08-15T01:40:05.290Z,13,GR86-035-11,-1.8,0.1,-0.107,99.57,4.0,,0.0,0.0,178.98
2025-08-15T01:40:05.333Z,13,GR86-035-11,-1.8,0.095,-0.126,99.57,4.0,,0.0,0.0,
2025-08-15T01:40:05.376Z,13,GR86-035-11,-1.8,0.085,-0.129,99.55,4.0,,0.0,0.0,
2025-08-15T01:40:05.418Z,13,GR86-035-11,-1.8,0.097,-0.115,99.57,4.0,,0.0,0.0,
2025-08-15T01:40:05.462Z,13,GR86-035-11,-1.8,0.098,-0.112,99.58,4.0,7065.0,0.0,0.0,
2025-08-15T01:40:05.506Z,13,GR86-035-11,-1.8,0.118,-0.131,99.57,4.0,,0.0,0.0,180.77
2025-08-15T01:40:05.548Z,13,GR86-035-11,-1.8,0.102,-0.131,99.56,4.0,,0.0,0.0,
2025-08-15T01:40:05.592Z,13,GR86-035-11,-1.8,0.113,-0.145,99.57,4.0,,0.0,0.0,
2025-08-15T01:40:05.634Z,13,GR86-035-11,-1.8,0.098,-0.137,99.57,4.0,,0.0,0.0,
2025-08-15T01:40:05.677Z,13,GR86-035-11,-1.8,0.111,-0.133,99.57,4.0,7106.0,0.0,0.0,
2025-08-15T01:40:05.721Z,13,GR86-035-11,-1.8,0.09,-0.14,99.56,4.0,,0.0,0.0,181.63
2025-08-15T01:40:05.764Z,13,GR86-035-11,-1.8,0.098,-0.134,99.57,4.0,,0.0,0.0,
2025-08-15T01:40:05.806Z,13,GR86-035-11,-1.8,0.1,-0.125,99.58,4.0,,0.0,0.0,
2025-08-15T01:40:05.850Z,13,GR86-035-11,-1.6,0.096,-0.116,99.61,4.0,,0.0,0.0,
2025-08-15T01:40:05.893Z,13,GR86-035-11,-1.4,0.1,-0.12,99.57,4.0,7142.0,0.0,0.0,
2025-08-15T01:40:05.936Z,13,GR86-035-11,-1.3,0.103,-0.136,99.57,4.0,,0.0,0.0,182.6
2025-08-15T01:40:05.978Z,13,GR86-035-11,-1.3,0.108,-0.099,99.54,4.0,,0.0,0.0,
2025-08-15T01:40:06.024Z,13,GR86-035-11,-1.3,0.075,-0.118,99.58,4.0,,0.0,0.0,
2025-08-15T01:40:06.066Z,13,GR86-035-11,-1.3,0.079,-0.08,99.56,4.0,,0.0,0.0,
2025-08-15T01:40:06.110Z,13,GR86-035-11,-1.1,0.084,-0.098,99.57,4.0,7203.0,0.0,0.0,
2025-08-15T01:40:06.196Z,13,GR86-035-11,-1.1,0.092,-0.093,99.57,4.0,,0.0,0.0,183.44
2025-08-15T01:40:06.238Z,13,GR86-035-11,-1.1,0.081,-0.088,99.56,4.0,,0.0,0.0,
2025-08-15T01:40:06.282Z,13,GR86-035-11,-1.1,0.106,-0.065,99.55,4.0,,0.0,0.0,
2025-08-15T01:40:06.324Z,13,GR86-035-11,-1.1,0.102,-0.053,99.58,4.0,7233.0,0.0,0.0,
2025-08-15T01:40:06.367Z,13,GR86-035-11,-1.1,0.111,-0.076,99.59,4.0,,0.0,0.0,184.33
2025-08-15T01:40:06.410Z,13,GR86-035-11,-1.0,0.095,-0.084,99.57,4.0,,0.0,0.0,
2025-08-15T01:40:06.454Z,13,GR86-035-11,-1.0,0.128,-0.095,99.57,4.0,,0.0,0.0,
2025-08-15T01:40:06.496Z,13,GR86-035-11,-1.0,0.089,-0.091,99.56,4.0,,0.0,0.0,
2025-08-15T01:40:06.541Z,13,GR86-035-11,-1.0,-0.141,-0.093,99.57,4.0,7270.0,0.0,0.0,
2025-08-15T01:40:06.583Z,13,GR86-035-11,-1.0,0.052,-0.084,99.57,5.0,,0.0,0.0,185.14
2025-08-15T01:40:06.626Z,13,GR86-035-11,-1.0,0.196,-0.127,99.57,5.0,,0.0,0.0,
2025-08-15T01:40:06.670Z,13,GR86-035-11,-1.0,0.11,-0.109,99.57,5.0,,0.0,0.0,
2025-08-15T01:40:06.713Z,13,GR86-035-11,-1.0,-0.034,-0.065,99.56,5.0,,0.0,0.0,
2025-08-15T01:40:06.756Z,13,GR86-035-11,-1.0,0.042,-0.119,99.57,5.0,6255.0,0.0,0.0,
2025-08-15T01:40:06.800Z,13,GR86-035-11,-0.8,0.135,-0.09,99.56,5.0,,0.0,0.0,185.6
2025-08-15T01:40:06.844Z,13,GR86-035-11,-0.2,0.045,-0.117,99.58,5.0,,0.0,0.0,
2025-08-15T01:40:06.887Z,13,GR86-035-11,-0.1,0.044,-0.086,99.58,5.0,,0.0,0.0,
2025-08-15T01:40:06.930Z,13,GR86-035-11,-0.1,0.065,-0.032,99.58,5.0,,0.0,0.0,
2025-08-15T01:40:06.973Z,13,GR86-035-11,-0.1,0.052,-0.06,99.56,5.0,6324.0,0.0,0.0,
2025-08-15T01:40:07.016Z,13,GR86-035-11,-0.1,0.055,-0.027,99.57,5.0,,0.0,0.0,186.47
2025-08-15T01:40:07.059Z,13,GR86-035-11,-0.1,0.051,-0.027,99.57,5.0,,0.0,0.0,
2025-08-15T01:40:07.104Z,13,GR86-035-11,-0.1,0.092,-0.026,99.56,5.0,,0.0,0.0,
2025-08-15T01:40:07.146Z,13,GR86-035-11,-0.1,0.099,-0.041,99.56,5.0,,0.0,0.0,
2025-08-15T01:40:07.190Z,13,GR86-035-11,-0.1,0.101,-0.037,99.57,5.0,6372.0,0.0,0.0,
2025-08-15T01:40:07.235Z,13,GR86-035-11,-0.1,0.097,-0.034,99.57,5.0,,0.0,0.0,187.09
2025-08-15T01:40:07.277Z,13,GR86-035-11,-0.1,0.068,-0.027,99.56,5.0,,0.0,0.0,
2025-08-15T01:40:07.321Z,13,GR86-035-11,-0.1,0.082,-0.042,99.56,5.0,,0.0,0.0,
2025-08-15T01:40:07.364Z,13,GR86-035-11,-0.1,0.091,-0.059,99.57,5.0,,0.0,0.0,
2025-08-15T01:40:07.406Z,13,GR86-035-11,-0.1,0.08,-0.053,99.56,5.0,6397.0,0.0,0.0,
2025-08-15T01:40:07.450Z,13,GR86-035-11,-0.1,0.102,-0.065,99.57,5.0,,0.0,0.0,187.8
2025-08-15T01:40:07.493Z,13,GR86-035-11,-0.1,0.105,-0.051,99.57,5.0,,0.0,0.0,
2025-08-15T01:40:07.536Z,13,GR86-035-11,-0.1,0.099,-0.05,99.58,5.0,,0.0,0.0,
2025-08-15T01:40:07.578Z,13,GR86-035-11,-0.1,0.097,-0.07,99.56,5.0,,0.0,0.0,
2025-08-15T01:40:07.622Z,13,GR86-035-11,-0.1,0.037,-0.08,99.57,5.0,6418.0,0.0,0.0,
2025-08-15T01:40:07.666Z,13,GR86-035-11,0.0,0.075,-0.095,99.57,5.0,,0.0,0.0,188.51
2025-08-15T01:40:07.708Z,13,GR86-035-11,0.1,0.046,-0.064,99.56,5.0,,0.0,0.0,
2025-08-15T01:40:07.752Z,13,GR86-035-11,0.2,0.077,-0.062,99.57,5.0,,0.0,0.0,
2025-08-15T01:40:07.796Z,13,GR86-035-11,0.2,0.068,-0.055,99.57,5.0,,0.0,0.0,
2025-08-15T01:40:07.838Z,13,GR86-035-11,0.3,0.091,-0.05,99.56,5.0,6441.0,0.0,0.0,
2025-08-15T01:40:07.883Z,13,GR86-035-11,0.3,0.06,-0.061,99.57,5.0,,0.0,0.0,189.3
2025-08-15T01:40:07.926Z,13,GR86-035-11,0.3,0.044,-0.073,99.58,5.0,,0.0,0.0,
2025-08-15T01:40:07.970Z,13,GR86-035-11,0.3,0.053,-0.088,99.56,5.0,,0.0,0.0,
2025-08-15T01:40:08.014Z,13,GR86-035-11,0.3,0.049,-0.092,99.59,5.0,,0.0,0.0,
2025-08-15T01:40:08.056Z,13,GR86-035-11,0.3,0.041,-0.091,99.59,5.0,6471.0,0.0,0.0,
2025-08-15T01:40:08.099Z,13,GR86-035-11,0.3,0.072,-0.059,99.55,5.0,,0.0,0.0,190.06
2025-08-15T01:40:08.143Z,13,GR86-035-11,0.7000000000000001,0.082,-0.039,99.57,5.0,,0.0,0.0,
2025-08-15T01:40:08.186Z,13,GR86-035-11,1.0,0.062,-0.054,99.57,5.0,,0.0,0.0,
2025-08-15T01:40:08.230Z,13,GR86-035-11,1.2000000000000002,0.063,-0.025,99.56,5.0,,0.0,0.0,
2025-08-15T01:40:08.273Z,13,GR86-035-11,1.4,0.041,-0.033,99.58,5.0,6486.0,0.0,0.0,
2025-08-15T01:40:08.316Z,13,GR86-035-11,1.5,0.047,-0.028,99.57,5.0,,0.0,0.0,191.43
2025-08-15T01:40:08.359Z,13,GR86-035-11,1.5,0.04,-0.022,99.57,5.0,,0.0,0.0,
2025-08-15T01:40:08.403Z,13,GR86-035-11,1.5,0.095,0.0,99.57,5.0,,0.0,0.0,
2025-08-15T01:40:08.446Z,13,GR86-035-11,1.6,0.1,0.0,99.57,5.0,,0.0,0.0,
2025-08-15T01:40:08.490Z,13,GR86-035-11,1.6,0.076,0.01,99.58,5.0,6509.0,0.0,0.0,
2025-08-15T01:40:08.533Z,13,GR86-035-11,1.6,0.071,-0.01,99.58,5.0,,0.0,0.0,192.12
2025-08-15T01:40:08.576Z,13,GR86-035-11,1.6,0.068,-0.008,99.56,5.0,,0.0,0.0,
2025-08-15T01:40:08.618Z,13,GR86-035-11,1.6,0.032,-0.01,99.55,5.0,,0.0,0.0,
2025-08-15T01:40:08.662Z,13,GR86-035-11,1.6,0.082,-0.024,99.57,5.0,,0.0,0.0,
2025-08-15T01:40:08.704Z,13,GR86-035-11,1.6,0.111,-0.005,99.57,5.0,6562.0,0.0,0.0,
2025-08-15T01:40:08.747Z,13,GR86-035-11,1.6,0.075,0.0,99.56,5.0,,0.0,0.0,192.76
2025-08-15T01:40:08.790Z,13,GR86-035-11,1.7000000000000002,0.082,0.005,99.57,5.0,,0.0,0.0,
2025-08-15T01:40:08.834Z,13,GR86-035-11,2.1,0.069,0.011,99.57,5.0,,0.0,0.0,
2025-08-15T01:40:08.876Z,13,GR86-035-11,2.7,0.057,0.03,99.56,5.0,,0.0,0.0,
2025-08-15T01:40:08.920Z,13,GR86-035-11,2.8000000000000003,0.047,0.009,99.57,5.0,6581.0,0.0,0.0,
2025-08-15T01:40:08.963Z,13,GR86-035-11,2.9000000000000004,0.075,0.016,99.56,5.0,,0.0,0.0,193.49
2025-08-15T01:40:09.006Z,13,GR86-035-11,2.9000000000000004,0.091,0.009,99.57,5.0,,0.0,0.0,
2025-08-15T01:40:09.050Z,13,GR86-035-11,2.9000000000000004,0.075,0.017,99.58,5.0,,0.0,0.0,
2025-08-15T01:40:09.093Z,13,GR86-035-11,2.9000000000000004,0.079,0.008,99.57,5.0,,0.0,0.0,
2025-08-15T01:40:09.136Z,13,GR86-035-11,2.9000000000000004,0.072,0.029,99.57,5.0,6602.0,0.0,0.0,
2025-08-15T01:40:09.178Z,13,GR86-035-11,2.9000000000000004,0.03,0.048,99.57,5.0,,0.0,0.0,194.1
2025-08-15T01:40:09.224Z,13,GR86-035-11,2.9000000000000004,0.087,0.03,99.57,5.0,,0.0,0.0,
2025-08-15T01:40:09.267Z,13,GR86-035-11,3.0,0.08,0.03,99.57,5.0,,0.0,0.0,
2025-08-15T01:40:09.310Z,13,GR86-035-11,3.0,0.078,0.022,99.58,5.0,,0.0,0.0,
2025-08-15T01:40:09.353Z,13,GR86-035-11,3.0,0.085,0.041,99.56,5.0,6627.0,0.0,0.0,
2025-08-15T01:40:09.396Z,13,GR86-035-11,3.0,0.049,0.022,99.57,5.0,,0.0,0.0,194.83
2025-08-15T01:40:09.438Z,13,GR86-035-11,3.0,0.073,0.02,99.58,5.0,,0.0,0.0,
2025-08-15T01:40:09.483Z,13,GR86-035-11,3.1,0.091,0.001,99.57,5.0,,0.0,0.0,
2025-08-15T01:40:09.526Z,13,GR86-035-11,3.2,0.088,-0.007,99.57,5.0,,0.0,0.0,
2025-08-15T01:40:09.570Z,13,GR86-035-11,3.2,0.068,0.023,99.57,5.0,6646.0,0.0,0.0,
2025-08-15T01:40:09.614Z,13,GR86-035-11,3.3000000000000003,0.052,0.027,99.58,5.0,,0.0,0.0,195.45
2025-08-15T01:40:09.657Z,13,GR86-035-11,3.3000000000000003,0.071,0.035,99.57,5.0,,0.0,0.0,
2025-08-15T01:40:09.700Z,13,GR86-035-11,3.3000000000000003,0.026,0.069,99.58,5.0,,0.0,0.0,
2025-08-15T01:40:09.743Z,13,GR86-035-11,3.4000000000000004,0.061,0.044,99.57,5.0,,0.0,0.0,
2025-08-15T01:40:09.786Z,13,GR86-035-11,3.6,0.078,0.058,99.58,5.0,6668.0,0.0,0.0,
2025-08-15T01:40:09.830Z,13,GR86-035-11,3.6,0.063,0.058,99.57,5.0,,0.0,0.0,196.07
2025-08-15T01:40:09.874Z,13,GR86-035-11,3.6,0.056,0.065,99.59,5.0,,0.0,0.0,
2025-08-15T01:40:09.916Z,13,GR86-035-11,3.6,0.04,0.082,99.57,5.0,,0.0,0.0,
2025-08-15T01:40:09.959Z,13,GR86-035-11,3.5,0.033,0.081,99.56,5.0,,0.0,0.0,
2025-08-15T01:40:10.004Z,13,GR86-035-11,3.5,0.073,0.077,99.57,5.0,6685.0,0.0,0.0,
2025-08-15T01:40:10.046Z,13,GR86-035-11,3.5,0.069,0.072,99.58,5.0,,0.0,0.0,196.62
2025-08-15T01:40:10.090Z,13,GR86-035-11,3.5,0.046,0.077,99.57,5.0,,0.0,0.0,
2025-08-15T01:40:10.133Z,13,GR86-035-11,3.4000000000000004,0.042,0.077,99.57,5.0,,0.0,0.0,
2025-08-15T01:40:10.176Z,13,GR86-035-11,3.4000000000000004,0.046,0.078,99.57,5.0,,0.0,0.0,
2025-08-15T01:40:10.218Z,13,GR86-035-11,3.4000000000000004,0.035,0.052,99.57,5.0,6711.0,0.0,0.0,
2025-08-15T01:40:10.262Z,13,GR86-035-11,3.4000000000000004,0.053,0.069,99.57,5.0,,0.0,0.0,197.16
2025-08-15T01:40:10.306Z,13,GR86-035-11,3.4000000000000004,0.06,0.051,99.58,5.0,,0.0,0.0,
2025-08-15T01:40:10.348Z,13,GR86-035-11,3.4000000000000004,0.041,0.09,99.58,5.0,,0.0,0.0,
2025-08-15T01:40:10.392Z,13,GR86-035-11,3.4000000000000004,0.037,0.084,99.57,5.0,,0.0,0.0,
2025-08-15T01:40:10.434Z,13,GR86-035-11,3.4000000000000004,0.04,0.085,99.57,5.0,6723.0,0.0,0.0,
2025-08-15T01:40:10.477Z,13,GR86-035-11,3.7,0.037,0.09,99.57,5.0,,0.0,0.0,197.71
2025-08-15T01:40:10.520Z,13,GR86-035-11,3.7,0.064,0.114,99.57,5.0,,0.0,0.0,
2025-08-15T01:40:10.564Z,13,GR86-035-11,3.7,0.039,0.146,99.56,5.0,,0.0,0.0,
2025-08-15T01:40:10.606Z,13,GR86-035-11,3.7,0.034,0.138,99.57,5.0,,0.0,0.0,
2025-08-15T01:40:10.650Z,13,GR86-035-11,3.7,0.04,0.141,99.55,5.0,6744.0,0.0,0.0,
2025-08-15T01:40:10.693Z,13,GR86-035-11,3.7,0.046,0.138,99.57,5.0,,0.0,0.0,198.25
2025-08-15T01:40:10.736Z,13,GR86-035-11,3.7,0.079,0.136,99.55,5.0,,0.0,0.0,
2025-08-15T01:40:10.778Z,13,GR86-035-11,3.6,0.074,0.118,99.56,5.0,,0.0,0.0,
2025-08-15T01:40:10.824Z,13,GR86-035-11,3.6,0.057,0.114,99.57,5.0,,0.0,0.0,
2025-08-15T01:40:10.866Z,13,GR86-035-11,3.3000000000000003,0.044,0.112,99.56,5.0,6760.0,0.0,0.0,
2025-08-15T01:40:10.910Z,13,GR86-035-11,2.3000000000000003,0.06,0.092,99.57,5.0,,0.0,0.0,199.44
2025-08-15T01:40:10.953Z,13,GR86-035-11,1.9,0.077,0.018,99.57,5.0,,0.0,0.0,
2025-08-15T01:40:10.996Z,13,GR86-035-11,1.3,0.084,0.014,99.56,5.0,,0.0,0.0,
2025-08-15T01:40:11.038Z,13,GR86-035-11,0.4,0.083,-0.006,99.56,5.0,,0.0,0.0,
2025-08-15T01:40:11.082Z,13,GR86-035-11,-0.1,0.07,-0.047,99.58,5.0,6783.0,0.0,0.0,
2025-08-15T01:40:11.124Z,13,GR86-035-11,-0.1,0.07,-0.069,99.57,5.0,,0.0,0.0,199.93
2025-08-15T01:40:11.167Z,13,GR86-035-11,-0.1,0.085,-0.104,99.57,5.0,,0.0,0.0,
2025-08-15T01:40:11.210Z,13,GR86-035-11,-0.1,0.076,-0.127,99.57,5.0,,0.0,0.0,
2025-08-15T01:40:11.255Z,13,GR86-035-11,-0.1,0.086,-0.13,99.57,5.0,,0.0,0.0,
2025-08-15T01:40:11.297Z,13,GR86-035-11,-0.1,0.031,-0.158,99.57,5.0,6801.0,0.0,0.0,
2025-08-15T01:40:11.341Z,13,GR86-035-11,-0.1,0.076,-0.13,99.56,5.0,,0.0,0.0,200.67
2025-08-15T01:40:11.383Z,13,GR86-035-11,0.7000000000000001,0.09,-0.122,99.57,5.0,,0.0,0.0,
2025-08-15T01:40:11.426Z,13,GR86-035-11,1.2000000000000002,0.064,-0.116,99.57,5.0,,0.0,0.0,
2025-08-15T01:40:11.470Z,13,GR86-035-11,1.4,0.05,-0.101,99.57,5.0,,0.0,0.0,
2025-08-15T01:40:11.513Z,13,GR86-035-11,1.8,0.038,-0.052,99.57,5.0,6843.0,0.0,0.0,
2025-08-15T01:40:11.556Z,13,GR86-035-11,2.1,0.028,-0.048,99.57,5.0,,0.0,0.0,201.28
2025-08-15T01:40:11.600Z,13,GR86-035-11,2.2,0.054,-0.032,99.57,5.0,,0.0,0.0,
2025-08-15T01:40:11.643Z,13,GR86-035-11,2.3000000000000003,0.046,-0.026,99.56,5.0,,0.0,0.0,
2025-08-15T01:40:11.686Z,13,GR86-035-11,2.3000000000000003,0.045,-0.012,99.56,5.0,,0.0,0.0,
2025-08-15T01:40:11.730Z,13,GR86-035-11,2.3000000000000003,0.034,-0.009,99.58,5.0,6860.0,0.0,0.0,
2025-08-15T01:40:11.773Z,13,GR86-035-11,2.5,0.038,0.01,99.57,5.0,,0.0,0.0,202.04
2025-08-15T01:40:11.816Z,13,GR86-035-11,2.9000000000000004,0.068,0.005,99.57,5.0,,0.0,0.0,
2025-08-15T01:40:11.858Z,13,GR86-035-11,3.3000000000000003,0.075,-0.007,99.56,5.0,,0.0,0.0,
2025-08-15T01:40:11.904Z,13,GR86-035-11,4.5,0.047,-0.007,99.56,5.0,,0.0,0.0,
2025-08-15T01:40:11.946Z,13,GR86-035-11,4.6000000000000005,0.044,0.028,99.57,5.0,6885.0,0.0,0.0,
2025-08-15T01:40:11.990Z,13,GR86-035-11,4.6000000000000005,0.084,0.058,99.57,5.0,,0.0,0.0,202.65
2025-08-15T01:40:12.033Z,13,GR86-035-11,4.6000000000000005,0.065,0.04,99.58,5.0,,0.0,0.0,
2025-08-15T01:40:12.076Z,13,GR86-035-11,4.6000000000000005,0.098,0.081,99.58,5.0,,0.0,0.0,
2025-08-15T01:40:12.119Z,13,GR86-035-11,4.7,0.073,0.083,99.57,5.0,,0.0,0.0,
2025-08-15T01:40:12.164Z,13,GR86-035-11,4.800000000000001,0.066,0.098,99.57,5.0,6910.0,0.0,0.0,
2025-08-15T01:40:12.206Z,13,GR86-035-11,4.9,0.079,0.073,99.57,5.0,,0.0,0.0,203.25
2025-08-15T01:40:12.250Z,13,GR86-035-11,5.2,0.094,0.106,99.58,5.0,,0.0,0.0,
2025-08-15T01:40:12.293Z,13,GR86-035-11,5.5,0.074,0.079,99.57,5.0,,0.0,0.0,
2025-08-15T01:40:12.336Z,13,GR86-035-11,6.0,0.065,0.112,99.57,5.0,,0.0,0.0,
2025-08-15T01:40:12.378Z,13,GR86-035-11,6.7,0.037,0.089,99.57,5.0,6930.0,0.0,0.0,
2025-08-15T01:40:12.422Z,13,GR86-035-11,7.5,0.086,0.123,99.57,5.0,,0.0,0.0,203.92
2025-08-15T01:40:12.466Z,13,GR86-035-11,7.6,0.068,0.15,99.57,5.0,,0.0,0.0,
2025-08-15T01:40:12.508Z,13,GR86-035-11,7.6,0.048,0.147,99.56,5.0,,0.0,0.0,
2025-08-15T01:40:12.553Z,13,GR86-035-11,7.7,0.052,0.164,99.56,5.0,,0.0,0.0,
2025-08-15T01:40:12.596Z,13,GR86-035-11,8.0,0.056,0.199,99.56,5.0,6951.0,0.0,0.0,
2025-08-15T01:40:12.638Z,13,GR86-035-11,8.0,0.088,0.218,99.57,5.0,,0.0,0.0,204.5
2025-08-15T01:40:12.682Z,13,GR86-035-11,8.0,0.046,0.232,99.56,5.0,,0.0,0.0,
2025-08-15T01:40:12.726Z,13,GR86-035-11,8.0,0.048,0.252,99.57,5.0,,0.0,0.0,
2025-08-15T01:40:12.768Z,13,GR86-035-11,8.0,0.059,0.254,99.57,5.0,,0.0,0.0,
2025-08-15T01:40:12.814Z,13,GR86-035-11,8.0,0.075,0.252,99.55,5.0,6983.0,0.0,0.0,
2025-08-15T01:40:12.856Z,13,GR86-035-11,8.0,0.093,0.26,99.57,5.0,,0.0,0.0,205.1
2025-08-15T01:40:12.900Z,13,GR86-035-11,8.0,0.059,0.215,99.56,5.0,,0.0,0.0,
2025-08-15T01:40:12.943Z,13,GR86-035-11,8.0,0.061,0.188,99.59,5.0,,0.0,0.0,
2025-08-15T01:40:12.986Z,13,GR86-035-11,8.0,0.102,0.185,99.57,5.0,,0.0,0.0,
2025-08-15T01:40:13.030Z,13,GR86-035-11,8.0,0.049,0.195,99.57,5.0,7003.0,0.0,0.0,
2025-08-15T01:40:13.074Z,13,GR86-035-11,8.0,0.053,0.193,99.56,5.0,,0.0,0.0,205.9
2025-08-15T01:40:13.116Z,13,GR86-035-11,8.0,0.049,0.186,99.58,5.0,,0.0,0.0,
2025-08-15T01:40:13.159Z,13,GR86-035-11,8.0,0.05,0.211,99.57,5.0,,0.0,0.0,
2025-08-15T01:40:13.203Z,13,GR86-035-11,8.0,0.045,0.215,99.57,5.0,,0.0,0.0,
2025-08-15T01:40:13.246Z,13,GR86-035-11,8.0,0.03,0.212,99.56,5.0,7018.0,0.0,0.0,
2025-08-15T01:40:13.290Z,13,GR86-035-11,8.0,0.046,0.22,99.56,5.0,,0.0,0.0,206.5
2025-08-15T01:40:13.333Z,13,GR86-035-11,7.9,0.054,0.19,99.55,5.0,,0.0,0.0,
2025-08-15T01:40:13.376Z,13,GR86-035-11,7.9,0.07,0.214,99.56,5.0,,0.0,0.0,
2025-08-15T01:40:13.418Z,13,GR86-035-11,7.9,0.073,0.234,99.57,5.0,,0.0,0.0,
2025-08-15T01:40:13.462Z,13,GR86-035-11,7.9,0.057,0.254,99.55,5.0,7053.0,0.0,0.0,
2025-08-15T01:40:13.504Z,13,GR86-035-11,7.300000000000001,0.08,0.277,99.54,5.0,,0.0,0.0,207.59
2025-08-15T01:40:13.547Z,13,GR86-035-11,7.0,0.064,0.269,99.57,5.0,,0.0,0.0,
2025-08-15T01:40:13.590Z,13,GR86-035-11,7.0,0.064,0.242,99.54,5.0,,0.0,0.0,
2025-08-15T01:40:13.634Z,13,GR86-035-11,7.0,0.041,0.22,99.57,5.0,,0.0,0.0,
2025-08-15T01:40:13.676Z,13,GR86-035-11,7.0,0.037,0.17,99.57,5.0,7063.0,0.0,0.0,
2025-08-15T01:40:13.720Z,13,GR86-035-11,7.0,0.04,0.153,99.58,5.0,,0.0,0.0,208.39
2025-08-15T01:40:13.763Z,13,GR86-035-11,6.9,0.021,0.158,99.55,5.0,,0.0,0.0,
2025-08-15T01:40:13.806Z,13,GR86-035-11,6.9,0.044,0.163,99.55,5.0,,0.0,0.0,
2025-08-15T01:40:13.850Z,13,GR86-035-11,6.9,0.041,0.156,99.57,5.0,,0.0,0.0,
2025-08-15T01:40:13.893Z,13,GR86-035-11,7.1000000000000005,0.069,0.153,99.57,5.0,7081.0,0.0,0.0,
2025-08-15T01:40:13.936Z,13,GR86-035-11,8.1,0.073,0.175,99.57,5.0,,0.0,0.0,209.13
2025-08-15T01:40:13.978Z,13,GR86-035-11,9.2,0.076,0.193,99.57,5.0,,0.0,0.0,
2025-08-15T01:40:14.024Z,13,GR86-035-11,9.1,0.082,0.206,99.57,5.0,,0.0,0.0,
2025-08-15T01:40:14.066Z,13,GR86-035-11,9.1,0.056,0.24,99.56,5.0,,0.0,0.0,
2025-08-15T01:40:14.110Z,13,GR86-035-11,8.8,0.069,0.25,99.57,5.0,7128.0,0.0,0.0,
2025-08-15T01:40:14.153Z,13,GR86-035-11,8.3,0.038,0.276,99.56,5.0,,0.0,0.0,209.74
2025-08-15T01:40:14.196Z,13,GR86-035-11,8.3,0.03,0.249,99.57,5.0,,0.0,0.0,
2025-08-15T01:40:14.238Z,13,GR86-035-11,8.3,0.052,0.255,99.55,5.0,,0.0,0.0,
2025-08-15T01:40:14.284Z,13,GR86-035-11,8.3,0.038,0.265,99.55,5.0,,0.0,0.0,
2025-08-15T01:40:14.326Z,13,GR86-035-11,8.8,0.038,0.274,99.55,5.0,7154.0,0.0,0.0,
2025-08-15T01:40:14.370Z,13,GR86-035-11,12.1,0.052,0.267,99.55,5.0,,0.0,0.0,210.49
2025-08-15T01:40:14.414Z,13,GR86-035-11,13.3,0.074,0.294,99.57,5.0,,0.0,0.0,
2025-08-15T01:40:14.456Z,13,GR86-035-11,12.7,0.072,0.342,99.18,5.0,,0.0,0.0,
2025-08-15T01:40:14.500Z,13,GR86-035-11,11.8,0.069,0.359,51.93,5.0,,0.0,0.0,
2025-08-15T01:40:14.543Z,13,GR86-035-11,11.7,0.082,0.336,4.88,5.0,7186.0,0.0,0.0,
2025-08-15T01:40:14.586Z,13,GR86-035-11,11.7,-0.122,0.375,4.8500000000000005,5.0,,0.0,0.0,211.08
2025-08-15T01:40:14.630Z,13,GR86-035-11,11.7,-0.156,0.395,4.68,5.0,,0.0,0.0,
2025-08-15T01:40:14.673Z,13,GR86-035-11,10.4,-0.445,0.38,4.41,5.0,,6.03,6.2700000000000005,
2025-08-15T01:40:14.716Z,13,GR86-035-11,9.1,-0.231,0.34,4.18,5.0,,21.745,21.87,
2025-08-15T01:40:14.758Z,13,GR86-035-11,6.6000000000000005,-0.475,0.415,3.89,5.0,7039.0,30.49,30.43,
2025-08-15T01:40:14.803Z,13,GR86-035-11,3.8,-0.898,0.276,3.11,5.0,,47.735,47.155,211.64
2025-08-15T01:40:14.846Z,13,GR86-035-11,6.0,-1.08,0.267,2.75,5.0,,58.370000000000005,57.715,
2025-08-15T01:40:14.890Z,13,GR86-035-11,7.9,-1.23,0.248,2.62,5.0,,66.61,66.015,
2025-08-15T01:40:14.933Z,13,GR86-035-11,7.9,-1.299,0.258,2.56,5.0,,73.78,73.11,
2025-08-15T01:40:14.976Z,13,GR86-035-11,7.9,-1.41,0.282,2.5500000000000003,5.0,6772.0,79.365,78.74,
2025-08-15T01:40:15.018Z,13,GR86-035-11,6.6000000000000005,-1.397,0.286,2.53,5.0,,83.455,83.09,207.72
2025-08-15T01:40:15.062Z,13,GR86-035-11,1.5,-1.401,0.286,2.49,5.0,,90.08,92.035,
2025-08-15T01:40:15.106Z,13,GR86-035-11,-1.0,-1.318,0.247,2.5,5.0,,93.24,94.305,
2025-08-15T01:40:15.148Z,13,GR86-035-11,-1.5,-1.367,0.263,2.5,5.0,,97.285,98.745,
2025-08-15T01:40:15.192Z,13,GR86-035-11,-1.6,-1.442,0.366,2.49,5.0,5969.0,99.345,99.8,
2025-08-15T01:40:15.234Z,13,GR86-035-11,-3.2,-1.38,0.289,2.5,5.0,,99.555,101.08,198.78
2025-08-15T01:40:15.277Z,13,GR86-035-11,-4.4,-1.401,0.362,2.49,5.0,,100.64,102.015,
2025-08-15T01:40:15.320Z,13,GR86-035-11,-5.2,-1.506,0.337,2.51,5.0,,98.365,98.685,
2025-08-15T01:40:15.364Z,13,GR86-035-11,-6.5,-1.32,0.388,2.49,5.0,,99.205,101.45,
2025-08-15T01:40:15.406Z,13,GR86-035-11,-2.9000000000000004,-1.313,0.334,2.49,5.0,5663.0,96.14,96.735,
2025-08-15T01:40:15.450Z,13,GR86-035-11,5.1000000000000005,-1.286,0.248,2.49,5.0,,97.13,98.305,187.25
2025-08-15T01:40:15.493Z,13,GR86-035-11,10.5,-1.263,0.282,2.49,5.0,,100.775,103.095,
2025-08-15T01:40:15.536Z,13,GR86-035-11,9.1,-1.198,0.214,2.48,5.0,,98.425,99.085,
2025-08-15T01:40:15.578Z,13,GR86-035-11,3.8,-1.376,0.139,2.49,5.0,,96.995,97.465,
2025-08-15T01:40:15.624Z,13,GR86-035-11,5.1000000000000005,-1.238,-0.077,2.49,5.0,5926.0,101.71,103.845,
2025-08-15T01:40:15.666Z,13,GR86-035-11,7.9,-1.31,-0.049,2.49,5.0,,100.61,101.495,180.7
2025-08-15T01:40:15.710Z,13,GR86-035-11,11.0,-1.393,-0.083,2.49,5.0,,101.8,102.775,
2025-08-15T01:40:15.753Z,13,GR86-035-11,14.6,-1.324,-0.038,2.49,5.0,,101.385,103.495,
2025-08-15T01:40:15.796Z,13,GR86-035-11,15.1,-1.389,-0.064,2.49,5.0,,100.87,102.395,
2025-08-15T01:40:15.838Z,13,GR86-035-11,15.1,-1.399,-0.032,2.49,5.0,5443.0,100.305,101.295,
2025-08-15T01:40:15.882Z,13,GR86-035-11,13.7,-1.415,0.057,27.86,4.0,,102.425,104.025,170.26
2025-08-15T01:40:15.924Z,13,GR86-035-11,10.8,-1.411,0.089,45.38,4.0,,102.835,103.585,
2025-08-15T01:40:15.967Z,13,GR86-035-11,9.0,-1.523,0.075,4.0200000000000005,4.0,,103.785,105.43,
2025-08-15T01:40:16.010Z,13,GR86-035-11,6.4,-1.434,0.138,4.47,4.0,,105.86,107.95,
2025-08-15T01:40:16.054Z,13,GR86-035-11,4.9,-1.293,0.17,4.36,4.0,5341.0,103.495,104.56,
2025-08-15T01:40:16.096Z,13,GR86-035-11,4.800000000000001,-1.376,0.182,4.22,4.0,,101.525,102.275,163.74
2025-08-15T01:40:16.141Z,13,GR86-035-11,4.800000000000001,-1.334,0.264,4.01,4.0,,103.125,104.44,
2025-08-15T01:40:16.183Z,13,GR86-035-11,4.4,-1.262,0.31,3.5700000000000003,4.0,,93.65,94.52,
2025-08-15T01:40:16.226Z,13,GR86-035-11,2.7,-1.313,0.304,2.92,4.0,,83.96000000000001,85.35000000000001,
2025-08-15T01:40:16.270Z,13,GR86-035-11,2.6,-1.253,0.204,4.11,4.0,5726.0,80.19,81.93,
2025-08-15T01:40:16.313Z,13,GR86-035-11,2.7,-1.181,0.244,40.17,3.0,,74.055,75.095,146.32
2025-08-15T01:40:16.356Z,13,GR86-035-11,2.7,-1.154,0.152,30.4,3.0,,68.18,68.775,
2025-08-15T01:40:16.398Z,13,GR86-035-11,4.3,-1.243,0.072,4.58,3.0,,65.465,66.93,
2025-08-15T01:40:16.442Z,13,GR86-035-11,12.7,-1.162,0.124,4.3100000000000005,3.0,,64.275,65.265,
2025-08-15T01:40:16.486Z,13,GR86-035-11,15.7,-1.261,0.157,4.15,3.0,5494.0,63.74,64.52,
2025-08-15T01:40:16.528Z,13,GR86-035-11,15.2,-1.069,0.211,3.89,3.0,,64.87,65.68,138.55
2025-08-15T01:40:16.573Z,13,GR86-035-11,11.8,-1.162,0.14,3.54,3.0,,66.305,66.67,
2025-08-15T01:40:16.659Z,13,GR86-035-11,9.6,-1.093,0.181,2.97,3.0,,67.845,67.97,
2025-08-15T01:40:16.704Z,13,GR86-035-11,9.6,-1.206,0.163,2.56,3.0,5767.0,70.99,71.265,
2025-08-15T01:40:16.746Z,13,GR86-035-11,9.7,-1.191,0.185,17.98,3.0,,70.96000000000001,71.265,130.73
2025-08-15T01:40:16.790Z,13,GR86-035-11,12.4,-1.198,0.152,51.76,2.0,,70.93,71.235,
2025-08-15T01:40:16.833Z,13,GR86-035-11,14.0,-1.303,0.217,6.48,2.0,,70.96000000000001,71.37,
2025-08-15T01:40:16.876Z,13,GR86-035-11,13.9,-1.228,0.217,4.41,2.0,,72.3,73.72,
2025-08-15T01:40:16.919Z,13,GR86-035-11,13.9,-1.322,0.266,4.33,2.0,5871.0,72.365,74.025,
2025-08-15T01:40:16.962Z,13,GR86-035-11,14.1,-1.312,0.282,4.08,2.0,,71.4,72.515,123.05
2025-08-15T01:40:17.006Z,13,GR86-035-11,14.1,-1.173,0.364,3.83,2.0,,72.425,74.055,
2025-08-15T01:40:17.050Z,13,GR86-035-11,14.1,-1.064,0.371,3.43,2.0,,71.265,72.395,
2025-08-15T01:40:17.093Z,13,GR86-035-11,14.3,-1.24,0.486,2.83,2.0,,71.02,71.92,
2025-08-15T01:40:17.136Z,13,GR86-035-11,14.5,-1.127,0.461,2.64,2.0,6053.0,72.485,73.69,
2025-08-15T01:40:17.178Z,13,GR86-035-11,14.5,-1.057,0.458,2.54,2.0,,73.78,74.44,115.41
2025-08-15T01:40:17.222Z,13,GR86-035-11,14.5,-1.094,0.521,21.91,2.0,,71.295,72.27,
2025-08-15T01:40:17.267Z,13,GR86-035-11,14.6,-1.109,0.445,49.66,1.0,,66.67,68.03,
2025-08-15T01:40:17.310Z,13,GR86-035-11,14.6,-1.176,0.372,4.26,1.0,,57.65,59.515,
2025-08-15T01:40:17.353Z,13,GR86-035-11,14.5,-1.1,0.353,4.48,1.0,5809.0,49.870000000000005,51.625,
2025-08-15T01:40:17.396Z,13,GR86-035-11,14.5,-1.142,0.327,4.36,1.0,,41.25,42.985,108.11
2025-08-15T01:40:17.438Z,13,GR86-035-11,15.0,-1.072,0.361,4.22,1.0,,33.19,34.06,
2025-08-15T01:40:17.483Z,13,GR86-035-11,16.1,-0.871,0.516,3.83,1.0,,28.72,29.955,
2025-08-15T01:40:17.526Z,13,GR86-035-11,21.8,-0.751,0.392,3.19,1.0,,24.02,24.92,
2025-08-15T01:40:17.570Z,13,GR86-035-11,30.1,-0.762,0.6960000000000001,2.68,1.0,6764.0,20.66,21.47,
2025-08-15T01:40:17.614Z,13,GR86-035-11,38.8,-0.7010000000000001,0.673,2.54,1.0,,21.685,22.34,101.06
2025-08-15T01:40:17.656Z,13,GR86-035-11,45.7,-0.602,0.628,2.48,1.0,,22.02,22.675,
2025-08-15T01:40:17.700Z,13,GR86-035-11,51.900000000000006,-0.554,0.849,2.46,1.0,,21.99,22.675,
2025-08-15T01:40:17.743Z,13,GR86-035-11,58.0,-0.5730000000000001,0.78,2.45,1.0,,22.735,23.365,
2025-08-15T01:40:17.786Z,13,GR86-035-11,59.1,-0.636,0.861,2.46,1.0,6864.0,23.365,23.745,
2025-08-15T01:40:17.830Z,13,GR86-035-11,60.3,-0.63,0.901,2.45,1.0,,23.775,24.37,95.23
2025-08-15T01:40:17.874Z,13,GR86-035-11,61.6,-0.643,0.917,2.44,1.0,,24.34,24.795,
2025-08-15T01:40:17.916Z,13,GR86-035-11,62.400000000000006,-0.616,0.949,2.44,1.0,,24.4,24.95,
2025-08-15T01:40:17.960Z,13,GR86-035-11,62.5,-0.589,1.015,2.45,1.0,,22.875,23.895,
2025-08-15T01:40:18.004Z,13,GR86-035-11,62.5,-0.558,0.992,2.45,1.0,6465.0,20.295,21.38,
2025-08-15T01:40:18.046Z,13,GR86-035-11,62.400000000000006,-0.522,1.035,2.46,1.0,,15.81,16.525,92.18
2025-08-15T01:40:18.090Z,13,GR86-035-11,60.5,-0.375,1.099,2.46,1.0,,7.205,8.09,
2025-08-15T01:40:18.133Z,13,GR86-035-11,59.8,-0.221,1.114,2.45,1.0,,0.0,2.015,
2025-08-15T01:40:18.176Z,13,GR86-035-11,60.0,-0.219,1.117,2.46,1.0,,0.0,0.0,
2025-08-15T01:40:18.218Z,13,GR86-035-11,62.0,-0.214,1.103,2.46,1.0,6118.0,0.0,0.0,
2025-08-15T01:40:18.262Z,13,GR86-035-11,67.2,-0.191,1.131,2.45,1.0,,0.0,0.0,88.4
2025-08-15T01:40:18.306Z,13,GR86-035-11,72.8,-0.146,1.145,2.46,1.0,,0.0,0.0,
2025-08-15T01:40:18.348Z,13,GR86-035-11,79.80000000000001,-0.17,1.16,2.46,1.0,,0.0,0.0,
2025-08-15T01:40:18.392Z,13,GR86-035-11,87.4,-0.173,1.193,2.46,1.0,,0.0,0.0,
2025-08-15T01:40:18.434Z,13,GR86-035-11,93.2,-0.217,1.17,2.46,1.0,6042.0,0.0,0.0,
2025-08-15T01:40:18.477Z,13,GR86-035-11,95.0,-0.195,1.222,2.46,1.0,,0.0,0.0,85.67
2025-08-15T01:40:18.521Z,13,GR86-035-11,95.4,-0.204,1.183,2.46,1.0,,0.0,0.0,
2025-08-15T01:40:18.566Z,13,GR86-035-11,95.4,-0.178,1.252,2.46,1.0,,0.0,0.0,
2025-08-15T01:40:18.610Z,13,GR86-035-11,95.4,-0.218,1.182,2.47,1.0,,0.0,0.0,
2025-08-15T01:40:18.653Z,13,GR86-035-11,95.4,-0.186,1.154,2.45,1.0,5926.0,0.0,0.0,
2025-08-15T01:40:18.696Z,13,GR86-035-11,94.1,-0.201,1.164,2.46,1.0,,0.0,0.0,83.74
2025-08-15T01:40:18.738Z,13,GR86-035-11,91.2,-0.206,1.24,2.52,1.0,,0.0,0.0,
2025-08-15T01:40:18.783Z,13,GR86-035-11,90.3,-0.186,1.273,25.6,1.0,,0.0,0.0,
2025-08-15T01:40:18.826Z,13,GR86-035-11,90.3,-0.19,1.309,24.2,1.0,,0.0,0.0,
2025-08-15T01:40:18.870Z,13,GR86-035-11,90.3,-0.166,1.318,27.19,1.0,5805.0,0.0,0.0,
2025-08-15T01:40:18.914Z,13,GR86-035-11,90.4,-0.108,1.263,33.21,1.0,,0.0,0.0,80.91
2025-08-15T01:40:18.956Z,13,GR86-035-11,90.4,-0.114,1.314,35.32,1.0,,0.0,0.0,
2025-08-15T01:40:19.000Z,13,GR86-035-11,88.7,0.1,1.209,33.52,1.0,,0.0,0.0,
2025-08-15T01:40:19.043Z,13,GR86-035-11,79.5,0.215,1.151,35.08,1.0,,0.0,0.0,
2025-08-15T01:40:19.086Z,13,GR86-035-11,73.10000000000001,0.276,1.099,36.77,1.0,5779.0,0.0,0.0,
2025-08-15T01:40:19.130Z,13,GR86-035-11,71.8,0.245,1.23,36.86,1.0,,0.0,0.0,79.66
2025-08-15T01:40:19.174Z,13,GR86-035-11,69.60000000000001,0.193,1.102,38.7,1.0,,0.0,0.0,
2025-08-15T01:40:19.216Z,13,GR86-035-11,64.5,0.168,1.245,42.77,1.0,,0.0,0.0,
2025-08-15T01:40:19.260Z,13,GR86-035-11,61.3,0.11,1.043,39.7,1.0,,0.0,0.0,
2025-08-15T01:40:19.346Z,13,GR86-035-11,61.2,0.233,1.224,38.23,1.0,6329.0,0.0,0.0,80.06
2025-08-15T01:40:19.390Z,13,GR86-035-11,59.7,0.304,1.341,38.49,1.0,,0.0,0.0,
2025-08-15T01:40:19.433Z,13,GR86-035-11,51.900000000000006,0.27,1.286,39.34,1.0,,0.0,0.0,
2025-08-15T01:40:19.476Z,13,GR86-035-11,42.0,0.154,1.255,39.82,1.0,,0.0,0.0,
2025-08-15T01:40:19.518Z,13,GR86-035-11,31.700000000000003,0.343,1.432,39.6,1.0,6458.0,0.0,0.0,
2025-08-15T01:40:19.562Z,13,GR86-035-11,26.9,0.353,1.348,39.12,1.0,,0.0,0.0,80.83
2025-08-15T01:40:19.606Z,13,GR86-035-11,34.6,0.475,1.144,37.93,1.0,,0.0,0.0,
2025-08-15T01:40:19.648Z,13,GR86-035-11,44.900000000000006,0.2,0.938,38.6,1.0,,0.0,0.0,
2025-08-15T01:40:19.692Z,13,GR86-035-11,57.2,0.125,1.126,39.44,1.0,,0.0,0.0,
2025-08-15T01:40:19.734Z,13,GR86-035-11,69.10000000000001,0.278,0.966,42.26,1.0,6354.0,0.0,0.0,
2025-08-15T01:40:19.777Z,13,GR86-035-11,78.9,-0.068,1.186,52.69,1.0,,0.0,0.0,82.39
2025-08-15T01:40:19.820Z,13,GR86-035-11,84.5,0.331,1.321,54.32,1.0,,0.0,0.0,
2025-08-15T01:40:19.864Z,13,GR86-035-11,81.30000000000001,0.404,1.298,77.24,1.0,,0.0,0.0,
2025-08-15T01:40:19.906Z,13,GR86-035-11,72.0,0.336,1.322,99.28,1.0,,0.0,0.0,
2025-08-15T01:40:19.950Z,13,GR86-035-11,62.0,0.37,1.198,99.52,1.0,6583.0,0.0,0.0,
2025-08-15T01:40:19.993Z,13,GR86-035-11,53.1,0.34,1.073,99.56,1.0,,0.0,0.0,82.81
2025-08-15T01:40:20.036Z,13,GR86-035-11,44.8,0.279,1.051,99.57,1.0,,0.0,0.0,
2025-08-15T01:40:20.078Z,13,GR86-035-11,40.6,0.308,1.078,99.57,1.0,,0.0,0.0,
2025-08-15T01:40:20.124Z,13,GR86-035-11,40.5,0.33,1.117,99.54,1.0,,0.0,0.0,
2025-08-15T01:40:20.166Z,13,GR86-035-11,39.400000000000006,0.333,1.101,99.56,1.0,6667.0,0.0,0.0,
2025-08-15T01:40:20.210Z,13,GR86-035-11,32.6,0.35,1.119,99.57,1.0,,0.0,0.0,85.0
2025-08-15T01:40:20.255Z,13,GR86-035-11,21.700000000000003,0.384,1.072,99.58,1.0,,0.0,0.0,
2025-08-15T01:40:20.297Z,13,GR86-035-11,9.6,0.347,0.993,99.56,1.0,,0.0,0.0,
2025-08-15T01:40:20.341Z,13,GR86-035-11,-0.4,0.377,0.959,99.57,1.0,,0.0,0.0,
2025-08-15T01:40:20.383Z,13,GR86-035-11,-4.9,0.33,0.883,99.56,1.0,6892.0,0.0,0.0,
2025-08-15T01:40:20.426Z,13,GR86-035-11,-4.9,0.361,0.923,99.57,1.0,,0.0,0.0,86.99
2025-08-15T01:40:20.469Z,13,GR86-035-11,-5.4,0.378,0.957,99.57,1.0,,0.0,0.0,
2025-08-15T01:40:20.513Z,13,GR86-035-11,-7.300000000000001,0.431,0.943,99.56,1.0,,0.0,0.0,
2025-08-15T01:40:20.556Z,13,GR86-035-11,-9.1,0.407,0.907,99.57,1.0,,0.0,0.0,
2025-08-15T01:40:20.600Z,13,GR86-035-11,-13.4,0.415,0.876,99.55,1.0,7069.0,0.0,0.0,
2025-08-15T01:40:20.643Z,13,GR86-035-11,-5.2,0.414,0.756,99.57,1.0,,0.0,0.0,88.82000000000001
2025-08-15T01:40:20.687Z,13,GR86-035-11,12.6,0.411,0.807,99.6,1.0,,0.0,0.0,
2025-08-15T01:40:20.730Z,13,GR86-035-11,29.9,0.441,0.805,99.58,1.0,,0.0,0.0,
2025-08-15T01:40:20.773Z,13,GR86-035-11,43.1,0.39,0.8130000000000001,99.57,1.0,,0.0,0.0,
2025-08-15T01:40:20.816Z,13,GR86-035-11,50.1,0.403,0.794,99.58,1.0,7063.0,0.0,0.0,
2025-08-15T01:40:20.858Z,13,GR86-035-11,51.2,0.349,0.761,99.57,1.0,,0.0,0.0,90.08
2025-08-15T01:40:20.904Z,13,GR86-035-11,49.1,0.29,0.735,99.59,1.0,,0.0,0.0,
2025-08-15T01:40:20.946Z,13,GR86-035-11,46.900000000000006,0.291,0.687,99.6,1.0,,0.0,0.0,
2025-08-15T01:40:20.990Z,13,GR86-035-11,46.0,0.31,0.6980000000000001,99.58,1.0,,0.0,0.0,
2025-08-15T01:40:21.033Z,13,GR86-035-11,45.900000000000006,0.316,0.63,99.58,1.0,7027.0,0.0,0.0,
2025-08-15T01:40:21.076Z,13,GR86-035-11,44.900000000000006,0.29,0.749,99.59,1.0,,0.0,0.0,92.42
2025-08-15T01:40:21.119Z,13,GR86-035-11,40.7,0.332,0.757,99.6,1.0,,0.0,0.0,
2025-08-15T01:40:21.162Z,13,GR86-035-11,36.0,0.227,0.625,99.59,1.0,,0.0,0.0,
2025-08-15T01:40:21.206Z,13,GR86-035-11,35.9,0.208,0.729,99.59,1.0,,0.0,0.0,
2025-08-15T01:40:21.250Z,13,GR86-035-11,35.800000000000004,0.198,0.623,99.58,1.0,7264.0,0.0,0.0,
2025-08-15T01:40:21.293Z,13,GR86-035-11,34.4,0.182,0.636,99.62,1.0,,0.0,0.0,94.97
2025-08-15T01:40:21.336Z,13,GR86-035-11,30.6,0.147,0.56,99.58,1.0,,0.0,0.0,
2025-08-15T01:40:21.378Z,13,GR86-035-11,24.8,-0.048,0.632,99.6,2.0,,0.0,0.0,
2025-08-15T01:40:21.422Z,13,GR86-035-11,17.2,0.757,0.551,99.6,2.0,,0.0,0.0,
2025-08-15T01:40:21.466Z,13,GR86-035-11,17.0,0.535,0.64,99.58,2.0,7320.0,0.0,0.0,
2025-08-15T01:40:21.508Z,13,GR86-035-11,16.900000000000002,0.5720000000000001,0.466,99.59,2.0,,0.0,0.0,98.45
2025-08-15T01:40:21.553Z,13,GR86-035-11,16.900000000000002,0.444,0.443,99.59,2.0,,0.0,0.0,
2025-08-15T01:40:21.596Z,13,GR86-035-11,16.900000000000002,0.342,0.207,99.6,2.0,,0.0,0.0,
2025-08-15T01:40:21.638Z,13,GR86-035-11,16.8,0.201,0.309,99.58,2.0,,0.0,0.0,
2025-08-15T01:40:21.682Z,13,GR86-035-11,16.7,0.277,0.153,99.59,2.0,6520.0,0.0,0.0,
2025-08-15T01:40:21.726Z,13,GR86-035-11,16.6,0.152,0.245,99.58,2.0,,0.0,0.0,100.58
2025-08-15T01:40:21.770Z,13,GR86-035-11,16.6,0.266,0.29,99.59,2.0,,0.0,0.0,
2025-08-15T01:40:21.814Z,13,GR86-035-11,16.6,0.235,0.248,99.59,2.0,,0.0,0.0,
2025-08-15T01:40:21.856Z,13,GR86-035-11,16.6,0.291,0.272,99.59,2.0,,0.0,0.0,
2025-08-15T01:40:21.900Z,13,GR86-035-11,15.8,0.227,0.263,99.59,2.0,5862.0,0.0,0.0,
2025-08-15T01:40:21.943Z,13,GR86-035-11,15.6,0.312,0.205,99.59,2.0,,0.0,0.0,102.86
2025-08-15T01:40:21.986Z,13,GR86-035-11,15.5,0.283,0.281,99.6,2.0,,0.0,0.0,
2025-08-15T01:40:22.030Z,13,GR86-035-11,15.2,0.278,0.19,99.6,2.0,,0.0,0.0,
2025-08-15T01:40:22.074Z,13,GR86-035-11,14.9,0.321,0.26,99.6,2.0,,0.0,0.0,
2025-08-15T01:40:22.116Z,13,GR86-035-11,14.4,0.238,0.191,99.58,2.0,6163.0,0.0,0.0,
2025-08-15T01:40:22.159Z,13,GR86-035-11,14.1,0.204,0.164,99.59,2.0,,0.0,0.0,104.77
2025-08-15T01:40:22.203Z,13,GR86-035-11,14.1,0.319,0.152,99.61,2.0,,0.0,0.0,
2025-08-15T01:40:22.246Z,13,GR86-035-11,14.0,0.317,0.098,99.59,2.0,,0.0,0.0,
2025-08-15T01:40:22.290Z,13,GR86-035-11,14.0,0.357,0.04,99.6,2.0,,0.0,0.0,
2025-08-15T01:40:22.333Z,13,GR86-035-11,13.8,0.352,0.042,99.6,2.0,6294.0,0.0,0.0,
2025-08-15T01:40:22.376Z,13,GR86-035-11,13.3,0.371,0.038,99.61,2.0,,0.0,0.0,106.67
2025-08-15T01:40:22.418Z,13,GR86-035-11,12.1,0.365,0.12,99.59,2.0,,0.0,0.0,
2025-08-15T01:40:22.462Z,13,GR86-035-11,11.4,0.24,0.069,99.6,2.0,,0.0,0.0,
2025-08-15T01:40:22.504Z,13,GR86-035-11,11.3,0.23,0.094,99.59,2.0,,0.0,0.0,
2025-08-15T01:40:22.547Z,13,GR86-035-11,11.2,0.293,0.111,99.6,2.0,6322.0,0.0,0.0,
2025-08-15T01:40:22.590Z,13,GR86-035-11,11.2,0.255,-0.038,99.59,2.0,,0.0,0.0,108.44
2025-08-15T01:40:22.634Z,13,GR86-035-11,11.1,0.302,0.049,99.6,2.0,,0.0,0.0,
2025-08-15T01:40:22.676Z,13,GR86-035-11,10.3,0.352,-0.006,99.6,2.0,,0.0,0.0,
2025-08-15T01:40:22.720Z,13,GR86-035-11,9.5,0.277,-0.023,99.59,2.0,,0.0,0.0,
2025-08-15T01:40:22.763Z,13,GR86-035-11,8.700000000000001,0.265,0.018,99.6,2.0,6475.0,0.0,0.0,
2025-08-15T01:40:22.806Z,13,GR86-035-11,8.0,0.256,0.042,99.6,2.0,,0.0,0.0,110.14
2025-08-15T01:40:22.850Z,13,GR86-035-11,7.7,0.233,0.044,99.6,2.0,,0.0,0.0,
2025-08-15T01:40:22.893Z,13,GR86-035-11,7.4,0.263,0.077,99.6,2.0,,0.0,0.0,
2025-08-15T01:40:22.936Z,13,GR86-035-11,7.2,0.291,-0.002,99.6,2.0,,0.0,0.0,
2025-08-15T01:40:22.978Z,13,GR86-035-11,7.0,0.241,-0.019,99.61,2.0,6528.0,0.0,0.0,
2025-08-15T01:40:23.024Z,13,GR86-035-11,6.6000000000000005,0.222,-0.009,99.58,2.0,,0.0,0.0,111.93
2025-08-15T01:40:23.066Z,13,GR86-035-11,6.4,0.301,-0.052,99.61,2.0,,0.0,0.0,
2025-08-15T01:40:23.110Z,13,GR86-035-11,6.0,0.297,0.003,99.6,2.0,,0.0,0.0,
2025-08-15T01:40:23.153Z,13,GR86-035-11,5.9,0.264,0.012,99.61,2.0,,0.0,0.0,
2025-08-15T01:40:23.196Z,13,GR86-035-11,5.6000000000000005,0.211,-0.005,99.6,2.0,6655.0,0.0,0.0,
2025-08-15T01:40:23.238Z,13,GR86-035-11,5.6000000000000005,0.203,0.035,99.59,2.0,,0.0,0.0,113.52
2025-08-15T01:40:23.282Z,13,GR86-035-11,5.6000000000000005,0.278,-0.013,99.61,2.0,,0.0,0.0,
2025-08-15T01:40:23.326Z,13,GR86-035-11,5.5,0.301,-0.017,99.6,2.0,,0.0,0.0,
2025-08-15T01:40:23.369Z,13,GR86-035-11,4.9,0.262,-0.02,99.61,2.0,,0.0,0.0,
2025-08-15T01:40:23.414Z,13,GR86-035-11,4.1000000000000005,0.218,-0.022,99.59,2.0,6698.0,0.0,0.0,
2025-08-15T01:40:23.457Z,13,GR86-035-11,3.6,0.247,-0.013,99.6,2.0,,0.0,0.0,115.1
2025-08-15T01:40:23.500Z,13,GR86-035-11,3.4000000000000004,0.281,0.01,99.61,2.0,,0.0,0.0,
2025-08-15T01:40:23.543Z,13,GR86-035-11,3.0,0.293,0.031,99.6,2.0,,0.0,0.0,
2025-08-15T01:40:23.586Z,13,GR86-035-11,2.0,0.237,0.032,99.6,2.0,,0.0,0.0,
2025-08-15T01:40:23.630Z,13,GR86-035-11,0.7000000000000001,0.24,0.01,99.61,2.0,6792.0,0.0,0.0,
2025-08-15T01:40:23.674Z,13,GR86-035-11,-0.7000000000000001,0.235,-0.024,99.6,2.0,,0.0,0.0,116.54
2025-08-15T01:40:23.716Z,13,GR86-035-11,-0.8,0.26,-0.031,99.61,2.0,,0.0,0.0,
2025-08-15T01:40:23.759Z,13,GR86-035-11,-0.8,0.281,-0.045,99.58,2.0,,0.0,0.0,
2025-08-15T01:40:23.803Z,13,GR86-035-11,-0.9,0.269,-0.069,99.61,2.0,,0.0,0.0,
2025-08-15T01:40:23.846Z,13,GR86-035-11,-0.9,0.24,-0.083,99.59,2.0,6857.0,0.0,0.0,
2025-08-15T01:40:23.890Z,13,GR86-035-11,-0.9,0.249,-0.095,99.58,2.0,,0.0,0.0,118.2
2025-08-15T01:40:23.933Z,13,GR86-035-11,-0.9,0.271,-0.106,99.6,2.0,,0.0,0.0,
2025-08-15T01:40:23.976Z,13,GR86-035-11,-0.9,0.262,-0.092,99.61,2.0,,0.0,0.0,
2025-08-15T01:40:24.018Z,13,GR86-035-11,-0.9,0.257,-0.087,99.58,2.0,,0.0,0.0,
2025-08-15T01:40:24.062Z,13,GR86-035-11,-0.9,0.244,-0.065,99.59,2.0,6924.0,0.0,0.0,
2025-08-15T01:40:24.106Z,13,GR86-035-11,-1.0,0.268,-0.088,99.61,2.0,,0.0,0.0,121.12
2025-08-15T01:40:24.148Z,13,GR86-035-11,-1.0,0.256,-0.087,99.61,2.0,,0.0,0.0,
2025-08-15T01:40:24.192Z,13,GR86-035-11,-1.0,0.255,-0.073,99.59,2.0,,0.0,0.0,
2025-08-15T01:40:24.234Z,13,GR86-035-11,-1.0,0.257,-0.067,99.61,2.0,,0.0,0.0,
2025-08-15T01:40:24.277Z,13,GR86-035-11,-1.0,0.262,-0.073,99.59,2.0,6999.0,0.0,0.0,
2025-08-15T01:40:24.320Z,13,GR86-035-11,-1.1,0.25,-0.05,99.61,2.0,,0.0,0.0,122.46
2025-08-15T01:40:24.364Z,13,GR86-035-11,-1.1,0.243,-0.055,99.62,2.0,,0.0,0.0,
2025-08-15T01:40:24.406Z,13,GR86-035-11,-1.1,0.248,-0.057,99.6,2.0,,0.0,0.0,
2025-08-15T01:40:24.450Z,13,GR86-035-11,-1.1,0.264,-0.06,99.6,2.0,,0.0,0.0,
2025-08-15T01:40:24.493Z,13,GR86-035-11,-1.1,0.26,-0.064,99.58,2.0,7080.0,0.0,0.0,
2025-08-15T01:40:24.536Z,13,GR86-035-11,-1.1,0.241,-0.051,99.59,2.0,,0.0,0.0,123.7
2025-08-15T01:40:24.578Z,13,GR86-035-11,-1.2000000000000002,0.256,-0.081,99.61,2.0,,0.0,0.0,
2025-08-15T01:40:24.624Z,13,GR86-035-11,-1.2000000000000002,0.267,-0.081,99.6,2.0,,0.0,0.0,
2025-08-15T01:40:24.666Z,13,GR86-035-11,-1.2000000000000002,0.248,-0.065,99.62,2.0,,0.0,0.0,
2025-08-15T01:40:24.710Z,13,GR86-035-11,-1.2000000000000002,0.262,-0.077,99.59,2.0,7224.0,0.0,0.0,
2025-08-15T01:40:24.753Z,13,GR86-035-11,-1.3,0.253,-0.101,99.6,2.0,,0.0,0.0,124.81
2025-08-15T01:40:24.796Z,13,GR86-035-11,-1.3,0.242,-0.079,99.59,2.0,,0.0,0.0,
2025-08-15T01:40:24.840Z,13,GR86-035-11,-1.3,0.239,-0.071,99.62,2.0,,0.0,0.0,
2025-08-15T01:40:24.883Z,13,GR86-035-11,0.5,0.23,-0.079,99.59,2.0,,0.0,0.0,
2025-08-15T01:40:24.926Z,13,GR86-035-11,0.7000000000000001,-0.042,-0.065,99.59,3.0,7282.0,0.0,0.0,
2025-08-15T01:40:24.970Z,13,GR86-035-11,0.8,0.069,-0.05,99.62,3.0,,0.0,0.0,126.0
2025-08-15T01:40:25.013Z,13,GR86-035-11,1.7000000000000002,0.463,-0.08,99.6,3.0,,0.0,0.0,
2025-08-15T01:40:25.056Z,13,GR86-035-11,2.1,0.39,-0.083,99.6,3.0,,0.0,0.0,
2025-08-15T01:40:25.100Z,13,GR86-035-11,2.5,0.335,0.025,99.59,3.0,,0.0,0.0,
2025-08-15T01:40:25.143Z,13,GR86-035-11,3.6,0.256,-0.072,99.59,3.0,6196.0,0.0,0.0,
2025-08-15T01:40:25.186Z,13,GR86-035-11,3.8,0.126,0.028,99.59,3.0,,0.0,0.0,126.82
2025-08-15T01:40:25.230Z,13,GR86-035-11,3.8,0.162,0.01,99.6,3.0,,0.0,0.0,
2025-08-15T01:40:25.273Z,13,GR86-035-11,3.8,0.236,0.009,99.59,3.0,,0.0,0.0,
2025-08-15T01:40:25.316Z,13,GR86-035-11,3.8,0.273,0.041,99.59,3.0,,0.0,0.0,
2025-08-15T01:40:25.358Z,13,GR86-035-11,3.7,0.211,0.036,99.58,3.0,6066.0,0.0,0.0,
2025-08-15T01:40:25.404Z,13,GR86-035-11,2.9000000000000004,0.166,0.059,99.59,3.0,,0.0,0.0,128.17000000000002
2025-08-15T01:40:25.446Z,13,GR86-035-11,2.9000000000000004,0.201,0.046,99.59,3.0,,0.0,0.0,
2025-08-15T01:40:25.490Z,13,GR86-035-11,2.9000000000000004,0.242,0.055,99.59,3.0,,0.0,0.0,
2025-08-15T01:40:25.533Z,13,GR86-035-11,2.9000000000000004,0.235,0.03,99.59,3.0,,0.0,0.0,
2025-08-15T01:40:25.576Z,13,GR86-035-11,2.9000000000000004,0.187,0.062,99.6,3.0,6065.0,0.0,0.0,
2025-08-15T01:40:25.619Z,13,GR86-035-11,2.9000000000000004,0.207,0.037,99.61,3.0,,0.0,0.0,129.07
2025-08-15T01:40:25.662Z,13,GR86-035-11,2.9000000000000004,0.221,0.026,99.6,3.0,,0.0,0.0,
2025-08-15T01:40:25.706Z,13,GR86-035-11,2.9000000000000004,0.225,0.014,99.6,3.0,,0.0,0.0,
2025-08-15T01:40:25.750Z,13,GR86-035-11,2.9000000000000004,0.22,0.006,99.59,3.0,,0.0,0.0,
2025-08-15T01:40:25.793Z,13,GR86-035-11,2.9000000000000004,0.195,0.019,99.59,3.0,6098.0,0.0,0.0,
2025-08-15T01:40:25.836Z,13,GR86-035-11,2.9000000000000004,0.212,0.012,99.6,3.0,,0.0,0.0,129.97
2025-08-15T01:40:25.878Z,13,GR86-035-11,2.9000000000000004,0.233,0.005,99.61,3.0,,0.0,0.0,
2025-08-15T01:40:25.922Z,13,GR86-035-11,2.9000000000000004,0.226,0.006,98.25,3.0,,0.0,0.0,
2025-08-15T01:40:25.964Z,13,GR86-035-11,2.9000000000000004,0.206,0.001,44.74,3.0,,0.0,0.0,
2025-08-15T01:40:26.007Z,13,GR86-035-11,2.9000000000000004,0.199,0.023,4.3,3.0,6131.0,0.0,0.0,
2025-08-15T01:40:26.050Z,13,GR86-035-11,2.9000000000000004,0.192,-0.008,4.47,3.0,,0.0,0.0,130.76
2025-08-15T01:40:26.094Z,13,GR86-035-11,2.9000000000000004,-0.063,0.025,4.38,3.0,,0.0,0.0,
2025-08-15T01:40:26.136Z,13,GR86-035-11,2.9000000000000004,-0.07,0.043,4.25,3.0,,0.0,0.0,
2025-08-15T01:40:26.180Z,13,GR86-035-11,2.9000000000000004,-0.4,-0.008,4.0200000000000005,3.0,,0.0,0.0,
2025-08-15T01:40:26.224Z,13,GR86-035-11,2.9000000000000004,-0.166,0.054,3.48,3.0,5899.0,7.555,7.585,
2025-08-15T01:40:26.267Z,13,GR86-035-11,2.9000000000000004,-0.139,-0.029,2.91,3.0,,10.865,10.895,131.65
2025-08-15T01:40:26.310Z,13,GR86-035-11,2.9000000000000004,-0.235,0.011,2.68,3.0,,14.575,14.48,
2025-08-15T01:40:26.353Z,13,GR86-035-11,2.9000000000000004,-0.315,0.041,2.56,3.0,,16.740000000000002,16.740000000000002,
2025-08-15T01:40:26.396Z,13,GR86-035-11,2.9000000000000004,-0.394,-0.009,2.51,3.0,,17.490000000000002,17.455000000000002,
2025-08-15T01:40:26.438Z,13,GR86-035-11,2.9000000000000004,-0.367,0.037,2.49,3.0,6037.0,19.58,19.455,
2025-08-15T01:40:26.526Z,13,GR86-035-11,2.9000000000000004,-0.43,0.001,2.49,3.0,,25.12,24.995,131.49
2025-08-15T01:40:26.568Z,13,GR86-035-11,3.1,-0.54,0.046,2.49,3.0,,29.62,29.39,
2025-08-15T01:40:26.614Z,13,GR86-035-11,3.5,-0.556,0.041,2.49,3.0,,30.365,30.275,
2025-08-15T01:40:26.656Z,13,GR86-035-11,3.4000000000000004,-0.537,0.047,15.91,3.0,5825.0,29.65,29.985,
2025-08-15T01:40:26.700Z,13,GR86-035-11,3.4000000000000004,-0.546,0.043,56.35,3.0,,28.155,28.81,128.61
2025-08-15T01:40:26.743Z,13,GR86-035-11,3.4000000000000004,-0.609,0.025,11.73,2.0,,26.46,27.285,
2025-08-15T01:40:26.786Z,13,GR86-035-11,3.4000000000000004,-0.6990000000000001,0.055,4.3100000000000005,2.0,,27.375,28.55,
2025-08-15T01:40:26.830Z,13,GR86-035-11,3.4000000000000004,-0.673,0.055,4.24,2.0,,27.97,29.175,
2025-08-15T01:40:26.874Z,13,GR86-035-11,3.4000000000000004,-0.732,-0.011,4.11,2.0,5578.0,27.62,28.065,
2025-08-15T01:40:26.916Z,13,GR86-035-11,3.4000000000000004,-0.729,0.125,3.92,2.0,,27.345,28.275,120.04
2025-08-15T01:40:26.959Z,13,GR86-035-11,8.5,-0.552,0.013,3.58,2.0,,27.97,28.69,
2025-08-15T01:40:27.003Z,13,GR86-035-11,21.9,-0.8,0.26,2.83,2.0,,26.935,26.965,
2025-08-15T01:40:27.046Z,13,GR86-035-11,31.0,-0.657,0.316,2.62,2.0,,27.56,27.59,
2025-08-15T01:40:27.090Z,13,GR86-035-11,34.2,-0.541,0.333,2.54,2.0,6015.0,27.62,27.59,
2025-08-15T01:40:27.133Z,13,GR86-035-11,37.1,-0.5660000000000001,0.5710000000000001,2.5,2.0,,27.62,27.745,115.59
2025-08-15T01:40:27.176Z,13,GR86-035-11,38.900000000000006,-0.56,0.599,2.46,2.0,,27.62,27.65,
2025-08-15T01:40:27.262Z,13,GR86-035-11,39.6,-0.5650000000000001,0.75,2.47,2.0,,26.14,26.81,
2025-08-15T01:40:27.304Z,13,GR86-035-11,40.8,-0.54,0.761,2.47,2.0,6092.0,23.99,25.055,
2025-08-15T01:40:27.347Z,13,GR86-035-11,41.5,-0.505,0.849,2.47,2.0,,21.835,22.875,111.46
2025-08-15T01:40:27.390Z,13,GR86-035-11,41.5,-0.479,0.9,2.46,2.0,,18.325,19.455,
2025-08-15T01:40:27.434Z,13,GR86-035-11,41.5,-0.387,0.946,2.46,2.0,,11.645,12.71,
2025-08-15T01:40:27.476Z,13,GR86-035-11,41.5,-0.281,0.993,2.46,2.0,,5.0200000000000005,5.83,
2025-08-15T01:40:27.520Z,13,GR86-035-11,41.6,-0.243,1.015,2.46,2.0,5777.0,0.0,0.0,
2025-08-15T01:40:27.563Z,13,GR86-035-11,38.1,-0.162,1.042,2.46,2.0,,0.0,0.0,108.38
2025-08-15T01:40:27.606Z,13,GR86-035-11,35.800000000000004,-0.149,1.062,2.46,2.0,,0.0,0.0,
2025-08-15T01:40:27.650Z,13,GR86-035-11,35.4,-0.159,1.111,2.46,2.0,,0.0,0.0,
2025-08-15T01:40:27.693Z,13,GR86-035-11,35.300000000000004,-0.148,1.094,2.46,2.0,,0.0,0.0,
2025-08-15T01:40:27.736Z,13,GR86-035-11,32.800000000000004,-0.138,1.094,2.46,2.0,5774.0,0.0,0.0,
2025-08-15T01:40:27.778Z,13,GR86-035-11,29.3,-0.13,1.101,2.47,2.0,,0.0,0.0,106.42
2025-08-15T01:40:27.824Z,13,GR86-035-11,22.3,-0.128,1.027,2.46,2.0,,0.0,0.0,
2025-08-15T01:40:27.866Z,13,GR86-035-11,19.700000000000003,-0.122,1.025,2.47,2.0,,0.0,0.0,
2025-08-15T01:40:27.910Z,13,GR86-035-11,19.8,-0.133,1.018,2.46,2.0,,0.0,0.0,
2025-08-15T01:40:27.953Z,13,GR86-035-11,25.4,-0.138,1.022,2.46,2.0,5697.0,0.0,0.0,
2025-08-15T01:40:27.996Z,13,GR86-035-11,29.1,-0.129,1.099,2.48,2.0,,0.0,0.0,104.66
2025-08-15T01:40:28.038Z,13,GR86-035-11,31.9,-0.15,1.122,2.48,2.0,,0.0,0.0,
2025-08-15T01:40:28.083Z,13,GR86-035-11,34.4,-0.127,1.139,2.46,2.0,,0.0,0.0,
2025-08-15T01:40:28.126Z,13,GR86-035-11,35.800000000000004,-0.145,1.167,2.48,2.0,,0.0,0.0,
2025-08-15T01:40:28.215Z,13,GR86-035-11,42.7,-0.152,1.136,2.47,2.0,5640.0,0.0,0.0,102.34
2025-08-15T01:40:28.257Z,13,GR86-035-11,49.3,-0.153,1.152,2.48,2.0,,0.0,0.0,
2025-08-15T01:40:28.301Z,13,GR86-035-11,55.3,-0.156,1.168,2.47,2.0,,0.0,0.0,
2025-08-15T01:40:28.343Z,13,GR86-035-11,69.2,-0.148,1.174,2.49,2.0,,0.0,0.0,
2025-08-15T01:40:28.386Z,13,GR86-035-11,78.30000000000001,-0.157,1.206,2.48,2.0,5580.0,0.0,0.0,
2025-08-15T01:40:28.430Z,13,GR86-035-11,81.9,-0.186,1.269,2.47,2.0,,0.0,0.0,100.88
2025-08-15T01:40:28.473Z,13,GR86-035-11,84.9,-0.198,1.217,2.47,2.0,,0.0,0.0,
2025-08-15T01:40:28.516Z,13,GR86-035-11,85.5,-0.184,1.24,2.47,2.0,,0.0,0.0,
2025-08-15T01:40:28.558Z,13,GR86-035-11,85.5,-0.176,1.219,2.49,2.0,,0.0,0.0,
2025-08-15T01:40:28.604Z,13,GR86-035-11,85.4,-0.164,1.194,2.48,2.0,5511.0,0.0,0.0,
2025-08-15T01:40:28.646Z,13,GR86-035-11,84.30000000000001,-0.171,1.181,2.48,2.0,,0.0,0.0,99.62
2025-08-15T01:40:28.690Z,13,GR86-035-11,80.4,-0.168,1.184,2.48,2.0,,0.0,0.0,
2025-08-15T01:40:28.733Z,13,GR86-035-11,77.5,-0.181,1.264,2.49,2.0,,0.0,0.0,
2025-08-15T01:40:28.776Z,13,GR86-035-11,75.2,-0.163,1.147,2.49,2.0,,0.0,0.0,
2025-08-15T01:40:28.818Z,13,GR86-035-11,75.10000000000001,-0.182,1.242,5.87,2.0,5423.0,0.0,0.0,
2025-08-15T01:40:28.862Z,13,GR86-035-11,74.4,-0.238,1.189,8.67,2.0,,0.0,0.0,98.66
2025-08-15T01:40:28.906Z,13,GR86-035-11,73.60000000000001,-0.235,1.325,18.95,2.0,,0.0,0.0,
2025-08-15T01:40:28.948Z,13,GR86-035-11,70.9,-0.098,1.426,25.24,2.0,,0.0,0.0,
2025-08-15T01:40:28.992Z,13,GR86-035-11,66.7,-0.073,1.403,28.45,2.0,,0.0,0.0,
2025-08-15T01:40:29.034Z,13,GR86-035-11,63.0,-0.144,1.182,28.29,2.0,5337.0,0.0,0.0,
2025-08-15T01:40:29.077Z,13,GR86-035-11,56.900000000000006,-0.128,1.18,30.84,2.0,,0.0,0.0,97.26
2025-08-15T01:40:29.121Z,13,GR86-035-11,55.6,-0.046,1.159,34.18,2.0,,0.0,0.0,
2025-08-15T01:40:29.164Z,13,GR86-035-11,55.5,0.301,1.099,32.76,2.0,,0.0,0.0,
2025-08-15T01:40:29.206Z,13,GR86-035-11,57.5,0.318,1.212,34.19,2.0,,0.0,0.0,
2025-08-15T01:40:29.250Z,13,GR86-035-11,62.7,0.226,1.227,38.75,2.0,5520.0,0.0,0.0,
2025-08-15T01:40:29.293Z,13,GR86-035-11,74.3,0.172,1.237,39.92,2.0,,0.0,0.0,96.05
2025-08-15T01:40:29.336Z,13,GR86-035-11,80.80000000000001,0.119,1.161,41.96,2.0,,0.0,0.0,
2025-08-15T01:40:29.378Z,13,GR86-035-11,87.0,0.164,1.126,43.51,2.0,,0.0,0.0,
2025-08-15T01:40:29.424Z,13,GR86-035-11,90.3,0.191,1.08,49.39,2.0,,0.0,0.0,
2025-08-15T01:40:29.466Z,13,GR86-035-11,90.3,0.146,1.196,73.07000000000001,2.0,5521.0,0.0,0.0,
2025-08-15T01:40:29.510Z,13,GR86-035-11,90.3,0.208,1.205,99.57,2.0,,0.0,0.0,95.12
2025-08-15T01:40:29.553Z,13,GR86-035-11,90.0,0.186,1.254,99.57,2.0,,0.0,0.0,
2025-08-15T01:40:29.596Z,13,GR86-035-11,89.80000000000001,0.24,1.187,99.56,2.0,,0.0,0.0,
2025-08-15T01:40:29.638Z,13,GR86-035-11,89.10000000000001,0.237,1.122,99.55,2.0,,0.0,0.0,
2025-08-15T01:40:29.682Z,13,GR86-035-11,86.7,0.244,1.094,99.58,2.0,5615.0,0.0,0.0,
2025-08-15T01:40:29.724Z,13,GR86-035-11,85.60000000000001,0.234,1.142,99.55,2.0,,0.0,0.0,96.46
2025-08-15T01:40:29.767Z,13,GR86-035-11,83.2,0.199,1.158,99.57,2.0,,0.0,0.0,
2025-08-15T01:40:29.810Z,13,GR86-035-11,78.60000000000001,0.237,1.167,99.58,2.0,,0.0,0.0,
2025-08-15T01:40:29.854Z,13,GR86-035-11,74.9,0.236,1.1,99.57,2.0,,0.0,0.0,
2025-08-15T01:40:29.896Z,13,GR86-035-11,74.3,0.282,1.11,99.56,2.0,5698.0,0.0,0.0,
2025-08-15T01:40:29.940Z,13,GR86-035-11,73.9,0.215,1.068,99.57,2.0,,0.0,0.0,97.94
2025-08-15T01:40:29.983Z,13,GR86-035-11,67.3,0.213,1.104,99.57,2.0,,0.0,0.0,
2025-08-15T01:40:30.026Z,13,GR86-035-11,60.7,0.251,1.086,99.59,2.0,,0.0,0.0,
2025-08-15T01:40:30.069Z,13,GR86-035-11,53.400000000000006,0.225,1.094,99.57,2.0,,0.0,0.0,
2025-08-15T01:40:30.113Z,13,GR86-035-11,46.2,0.226,1.057,99.58,2.0,5954.0,0.0,0.0,
2025-08-15T01:40:30.156Z,13,GR86-035-11,40.5,0.222,1.116,99.57,2.0,,0.0,0.0,99.43
2025-08-15T01:40:30.200Z,13,GR86-035-11,38.6,0.286,1.103,96.92,2.0,,0.0,0.0,
2025-08-15T01:40:30.243Z,13,GR86-035-11,36.8,0.282,1.177,66.85,2.0,,0.0,0.0,
2025-08-15T01:40:30.286Z,13,GR86-035-11,30.8,0.263,1.185,65.59,2.0,,0.0,0.0,
2025-08-15T01:40:30.330Z,13,GR86-035-11,19.700000000000003,0.269,1.183,64.92,2.0,6087.0,0.0,0.0,
2025-08-15T01:40:30.373Z,13,GR86-035-11,6.0,0.25,1.135,60.17,2.0,,0.0,0.0,101.24
2025-08-15T01:40:30.416Z,13,GR86-035-11,-6.9,0.259,1.123,58.94,2.0,,0.0,0.0,
