timestamp,lap,vehicle_id,steering_angle,accx_can,accy_can,ath,gear,nmot,pbrake_f,pbrake_r,speed
2025-08-15T02:16:53.330Z,5,GR86-036-98,-1.0,0.128,-0.06,99.98,5.0,,0.0,0.0,
2025-08-15T02:16:53.372Z,5,GR86-036-98,-1.0,0.099,-0.062,100.0,5.0,,0.0,0.0,
2025-08-15T02:16:53.415Z,5,GR86-036-98,-1.0,0.106,-0.052,100.0,5.0,,0.0,0.0,
2025-08-15T02:16:53.460Z,5,GR86-036-98,-1.0,0.166,-0.053,100.0,5.0,6453.0,0.0,0.0,
2025-08-15T02:16:53.502Z,5,GR86-036-98,-1.0,0.138,-0.02,100.03,5.0,,0.0,0.0,189.34
2025-08-15T02:16:53.545Z,5,GR86-036-98,-1.0,0.148,-0.002,100.01,5.0,,0.0,0.0,
2025-08-15T02:16:53.589Z,5,GR86-036-98,-1.0,0.147,-0.002,99.98,5.0,,0.0,0.0,
2025-08-15T02:16:53.632Z,5,GR86-036-98,-1.0,0.133,0.003,100.0,5.0,,0.0,0.0,
2025-08-15T02:16:53.675Z,5,GR86-036-98,-1.0,0.126,0.004,100.01,5.0,6470.0,0.0,0.0,
2025-08-15T02:16:53.720Z,5,GR86-036-98,-1.0,0.118,0.001,100.02,5.0,,0.0,0.0,190.18
2025-08-15T02:16:53.763Z,5,GR86-036-98,-1.0,0.144,-0.021,100.0,5.0,,0.0,0.0,
2025-08-15T02:16:53.806Z,5,GR86-036-98,-1.0,0.144,-0.036,100.0,5.0,,0.0,0.0,
2025-08-15T02:16:53.849Z,5,GR86-036-98,-1.0,0.138,-0.011,99.98,5.0,,0.0,0.0,
2025-08-15T02:16:53.892Z,5,GR86-036-98,-1.0,0.152,0.001,99.99,5.0,6505.0,0.0,0.0,
2025-08-15T02:16:53.935Z,5,GR86-036-98,-1.0,0.143,-0.003,100.0,5.0,,0.0,0.0,191.0
2025-08-15T02:16:53.979Z,5,GR86-036-98,-1.0,0.122,-0.002,100.01,5.0,,0.0,0.0,
2025-08-15T02:16:54.022Z,5,GR86-036-98,-1.0,0.115,-0.003,100.0,5.0,,0.0,0.0,
2025-08-15T02:16:54.065Z,5,GR86-036-98,-1.0,0.14,0.025,99.98,5.0,,0.0,0.0,
2025-08-15T02:16:54.109Z,5,GR86-036-98,-1.0,0.12,0.002,100.0,5.0,6527.0,0.0,0.0,
2025-08-15T02:16:54.152Z,5,GR86-036-98,-1.0,0.139,0.003,99.99,5.0,,0.0,0.0,191.85
2025-08-15T02:16:54.195Z,5,GR86-036-98,-0.9,0.146,0.031,100.0,5.0,,0.0,0.0,
2025-08-15T02:16:54.239Z,5,GR86-036-98,-0.9,0.104,0.018,100.0,5.0,,0.0,0.0,
2025-08-15T02:16:54.282Z,5,GR86-036-98,-1.0,0.109,0.027,99.97,5.0,,0.0,0.0,
2025-08-15T02:16:54.325Z,5,GR86-036-98,-1.0,0.106,0.005,100.0,5.0,6562.0,0.0,0.0,
2025-08-15T02:16:54.414Z,5,GR86-036-98,-1.0,0.123,0.024,100.01,5.0,,0.0,0.0,192.67
2025-08-15T02:16:54.459Z,5,GR86-036-98,-0.9,0.098,0.034,99.99,5.0,,0.0,0.0,
2025-08-15T02:16:54.502Z,5,GR86-036-98,-1.0,0.11,0.059,100.0,5.0,,0.0,0.0,
2025-08-15T02:16:54.545Z,5,GR86-036-98,-1.0,0.097,0.041,100.01,5.0,6587.0,0.0,0.0,
2025-08-15T02:16:54.589Z,5,GR86-036-98,-0.9,0.115,0.021,99.99,5.0,,0.0,0.0,193.62
2025-08-15T02:16:54.631Z,5,GR86-036-98,-0.9,0.106,0.051,99.99,5.0,,0.0,0.0,
2025-08-15T02:16:54.674Z,5,GR86-036-98,-0.9,0.12,0.014,99.99,5.0,,0.0,0.0,
2025-08-15T02:16:54.720Z,5,GR86-036-98,-1.0,0.108,0.064,100.0,5.0,,0.0,0.0,
2025-08-15T02:16:54.762Z,5,GR86-036-98,-0.9,0.109,0.051,99.98,5.0,6615.0,0.0,0.0,
2025-08-15T02:16:54.805Z,5,GR86-036-98,-0.9,0.111,0.037,100.01,5.0,,0.0,0.0,194.38
2025-08-15T02:16:54.849Z,5,GR86-036-98,-0.9,0.105,0.031,100.0,5.0,,0.0,0.0,
2025-08-15T02:16:54.892Z,5,GR86-036-98,-0.9,0.114,0.033,99.99,5.0,,0.0,0.0,
2025-08-15T02:16:54.935Z,5,GR86-036-98,-0.9,0.124,0.039,100.01,5.0,,0.0,0.0,
2025-08-15T02:16:54.980Z,5,GR86-036-98,-1.0,0.107,0.057,100.0,5.0,6638.0,0.0,0.0,
2025-08-15T02:16:55.022Z,5,GR86-036-98,-0.9,0.102,0.036,100.0,5.0,,0.0,0.0,195.24
2025-08-15T02:16:55.065Z,5,GR86-036-98,-0.9,0.097,0.065,100.0,5.0,,0.0,0.0,
2025-08-15T02:16:55.109Z,5,GR86-036-98,-0.7000000000000001,0.124,0.09,100.0,5.0,,0.0,0.0,
2025-08-15T02:16:55.151Z,5,GR86-036-98,-0.7000000000000001,0.123,0.092,100.0,5.0,,0.0,0.0,
2025-08-15T02:16:55.194Z,5,GR86-036-98,-0.7000000000000001,0.131,0.076,100.0,5.0,6670.0,0.0,0.0,
2025-08-15T02:16:55.239Z,5,GR86-036-98,-0.7000000000000001,0.108,0.058,91.14,5.0,,0.0,0.0,196.07
2025-08-15T02:16:55.282Z,5,GR86-036-98,-0.7000000000000001,0.089,0.059,56.16,5.0,,0.0,0.0,
2025-08-15T02:16:55.325Z,5,GR86-036-98,-0.7000000000000001,0.132,0.069,59.73,5.0,,0.0,0.0,
2025-08-15T02:16:55.372Z,5,GR86-036-98,-0.7000000000000001,0.11,0.073,71.16,5.0,,0.0,0.0,
2025-08-15T02:16:55.414Z,5,GR86-036-98,-0.5,0.094,0.064,71.54,5.0,6707.0,0.0,0.0,
2025-08-15T02:16:55.460Z,5,GR86-036-98,-0.5,0.097,0.09,53.79,5.0,,0.0,0.0,197.6
2025-08-15T02:16:55.502Z,5,GR86-036-98,-0.5,0.097,0.09,42.98,5.0,,0.0,0.0,
2025-08-15T02:16:55.545Z,5,GR86-036-98,-0.5,0.093,0.079,36.53,5.0,,0.0,0.0,
2025-08-15T02:16:55.589Z,5,GR86-036-98,-0.5,0.092,0.061,32.76,5.0,,0.0,0.0,
2025-08-15T02:16:55.631Z,5,GR86-036-98,-0.5,0.071,0.031,27.96,5.0,6722.0,0.0,0.0,
2025-08-15T02:16:55.674Z,5,GR86-036-98,-0.5,0.067,0.028,12.96,5.0,,0.0,0.0,198.4
2025-08-15T02:16:55.720Z,5,GR86-036-98,-0.5,-0.002,0.026,5.46,5.0,,0.0,0.0,
2025-08-15T02:16:55.762Z,5,GR86-036-98,-0.5,-0.083,-0.009,3.76,5.0,,0.0,0.0,
2025-08-15T02:16:55.805Z,5,GR86-036-98,-0.6000000000000001,-0.095,-0.001,3.46,5.0,,0.0,0.0,
2025-08-15T02:16:55.849Z,5,GR86-036-98,-0.6000000000000001,-0.158,-0.022,3.0700000000000003,5.0,6719.0,0.0,0.0,
2025-08-15T02:16:55.892Z,5,GR86-036-98,-0.6000000000000001,-0.268,-0.023,2.99,5.0,,0.0,0.0,198.89
2025-08-15T02:16:55.935Z,5,GR86-036-98,-0.6000000000000001,-0.088,-0.035,3.24,5.0,,0.0,0.0,
2025-08-15T02:16:55.980Z,5,GR86-036-98,-0.6000000000000001,-0.121,-0.011,19.63,5.0,,0.0,0.0,
2025-08-15T02:16:56.023Z,5,GR86-036-98,-0.6000000000000001,-0.185,0.001,27.72,5.0,,0.0,0.0,
2025-08-15T02:16:56.066Z,5,GR86-036-98,-0.6000000000000001,-0.153,0.018,29.88,5.0,6618.0,0.0,0.0,
2025-08-15T02:16:56.109Z,5,GR86-036-98,-0.6000000000000001,-0.067,0.022,30.2,5.0,,0.0,0.0,198.38
2025-08-15T02:16:56.152Z,5,GR86-036-98,-0.6000000000000001,0.043,0.019,30.39,5.0,,0.0,0.0,
2025-08-15T02:16:56.195Z,5,GR86-036-98,-0.6000000000000001,0.2,0.054,30.52,5.0,,0.0,0.0,
2025-08-15T02:16:56.239Z,5,GR86-036-98,-0.6000000000000001,-0.073,0.047,31.64,5.0,,0.0,0.0,
2025-08-15T02:16:56.282Z,5,GR86-036-98,-0.6000000000000001,0.005,0.086,31.71,5.0,6594.0,0.0,0.0,
2025-08-15T02:16:56.325Z,5,GR86-036-98,-0.6000000000000001,0.095,0.061,31.4,5.0,,0.0,0.0,197.56
2025-08-15T02:16:56.371Z,5,GR86-036-98,-0.6000000000000001,0.062,0.061,31.76,5.0,,0.0,0.0,
2025-08-15T02:16:56.413Z,5,GR86-036-98,-0.6000000000000001,0.023,0.06,32.56,5.0,,0.0,0.0,
2025-08-15T02:16:56.456Z,5,GR86-036-98,-0.6000000000000001,0.032,0.044,32.92,5.0,,0.0,0.0,
2025-08-15T02:16:56.499Z,5,GR86-036-98,-0.6000000000000001,0.059,0.07,33.11,5.0,6710.0,0.0,0.0,
2025-08-15T02:16:56.542Z,5,GR86-036-98,-0.6000000000000001,0.041,0.094,33.56,5.0,,0.0,0.0,197.76
2025-08-15T02:16:56.585Z,5,GR86-036-98,-0.6000000000000001,0.045,0.066,34.230000000000004,5.0,,0.0,0.0,
2025-08-15T02:16:56.630Z,5,GR86-036-98,-0.6000000000000001,0.059,0.062,37.41,5.0,,0.0,0.0,
2025-08-15T02:16:56.672Z,5,GR86-036-98,-0.6000000000000001,0.059,0.061,39.46,5.0,,0.0,0.0,
2025-08-15T02:16:56.715Z,5,GR86-036-98,-0.6000000000000001,0.052,0.052,44.47,5.0,6712.0,0.0,0.0,
2025-08-15T02:16:56.759Z,5,GR86-036-98,-0.6000000000000001,0.082,0.085,71.45,5.0,,0.0,0.0,197.96
2025-08-15T02:16:56.802Z,5,GR86-036-98,-0.6000000000000001,0.088,0.072,98.03,5.0,,0.0,0.0,
2025-08-15T02:16:56.845Z,5,GR86-036-98,-0.6000000000000001,0.124,0.076,100.13,5.0,,0.0,0.0,
2025-08-15T02:16:56.889Z,5,GR86-036-98,-0.6000000000000001,0.109,0.085,100.07,5.0,,0.0,0.0,
2025-08-15T02:16:56.975Z,5,GR86-036-98,-0.6000000000000001,0.106,0.061,100.06,5.0,6756.0,0.0,0.0,198.2
2025-08-15T02:16:57.020Z,5,GR86-036-98,-0.6000000000000001,0.124,0.027,100.1,5.0,,0.0,0.0,
2025-08-15T02:16:57.062Z,5,GR86-036-98,-0.6000000000000001,0.105,0.035,100.06,5.0,,0.0,0.0,
2025-08-15T02:16:57.105Z,5,GR86-036-98,-0.6000000000000001,0.122,0.047,100.08,5.0,,0.0,0.0,
2025-08-15T02:16:57.192Z,5,GR86-036-98,-0.6000000000000001,0.104,0.023,100.08,5.0,6765.0,0.0,0.0,199.04
2025-08-15T02:16:57.235Z,5,GR86-036-98,-0.6000000000000001,0.09,0.02,100.05,5.0,,0.0,0.0,
2025-08-15T02:16:57.279Z,5,GR86-036-98,-0.6000000000000001,0.116,0.007,100.08,5.0,,0.0,0.0,
2025-08-15T02:16:57.322Z,5,GR86-036-98,-0.6000000000000001,0.104,0.017,100.09,5.0,,0.0,0.0,
2025-08-15T02:16:57.365Z,5,GR86-036-98,-0.6000000000000001,0.085,0.008,100.08,5.0,6797.0,0.0,0.0,
2025-08-15T02:16:57.452Z,5,GR86-036-98,-0.6000000000000001,0.109,0.015,100.08,5.0,,0.0,0.0,199.88
2025-08-15T02:16:57.495Z,5,GR86-036-98,-0.6000000000000001,0.121,0.013,100.09,5.0,,0.0,0.0,
2025-08-15T02:16:57.539Z,5,GR86-036-98,-0.6000000000000001,0.107,0.012,100.08,5.0,,0.0,0.0,
2025-08-15T02:16:57.582Z,5,GR86-036-98,-0.6000000000000001,0.112,0.025,100.07,5.0,6831.0,0.0,0.0,
2025-08-15T02:16:57.625Z,5,GR86-036-98,-0.6000000000000001,0.095,0.036,100.09,5.0,,0.0,0.0,200.65
2025-08-15T02:16:57.671Z,5,GR86-036-98,-0.6000000000000001,0.125,0.042,100.07,5.0,,0.0,0.0,
2025-08-15T02:16:57.713Z,5,GR86-036-98,-0.6000000000000001,0.112,0.044,100.06,5.0,,0.0,0.0,
2025-08-15T02:16:57.756Z,5,GR86-036-98,-0.6000000000000001,0.131,0.051,100.07,5.0,,0.0,0.0,
2025-08-15T02:16:57.799Z,5,GR86-036-98,-0.6000000000000001,0.108,0.06,100.07,5.0,6859.0,0.0,0.0,
2025-08-15T02:16:57.842Z,5,GR86-036-98,-0.6000000000000001,0.121,0.059,100.08,5.0,,0.0,0.0,201.68
2025-08-15T02:16:57.885Z,5,GR86-036-98,-0.6000000000000001,0.132,0.053,100.08,5.0,,0.0,0.0,
2025-08-15T02:16:57.930Z,5,GR86-036-98,-0.6000000000000001,0.121,0.047,100.06,5.0,,0.0,0.0,
2025-08-15T02:16:57.972Z,5,GR86-036-98,-0.6000000000000001,0.108,0.051,100.06,5.0,,0.0,0.0,
2025-08-15T02:16:58.015Z,5,GR86-036-98,-0.6000000000000001,0.111,0.05,100.06,5.0,6893.0,0.0,0.0,
2025-08-15T02:16:58.060Z,5,GR86-036-98,-0.6000000000000001,0.126,0.046,100.05,5.0,,0.0,0.0,203.38
2025-08-15T02:16:58.102Z,5,GR86-036-98,-0.6000000000000001,0.131,0.052,100.07,5.0,,0.0,0.0,
2025-08-15T02:16:58.189Z,5,GR86-036-98,-0.6000000000000001,0.114,0.067,100.07,5.0,,0.0,0.0,
2025-08-15T02:16:58.231Z,5,GR86-036-98,-0.6000000000000001,0.11,0.106,100.06,5.0,6914.0,0.0,0.0,
2025-08-15T02:16:58.274Z,5,GR86-036-98,-0.6000000000000001,0.092,0.106,100.06,5.0,,0.0,0.0,204.3
2025-08-15T02:16:58.319Z,5,GR86-036-98,-0.6000000000000001,0.106,0.054,100.08,5.0,,0.0,0.0,
2025-08-15T02:16:58.362Z,5,GR86-036-98,-0.7000000000000001,0.097,0.03,100.07,5.0,,0.0,0.0,
2025-08-15T02:16:58.405Z,5,GR86-036-98,-1.0,0.089,0.006,100.08,5.0,,0.0,0.0,
2025-08-15T02:16:58.449Z,5,GR86-036-98,-1.0,0.139,-0.01,100.06,5.0,6942.0,0.0,0.0,
2025-08-15T02:16:58.492Z,5,GR86-036-98,-1.0,0.121,-0.003,100.06,5.0,,0.0,0.0,205.14
2025-08-15T02:16:58.535Z,5,GR86-036-98,-1.1,0.148,-0.04,100.06,5.0,,2.76,3.1,
2025-08-15T02:16:58.580Z,5,GR86-036-98,-1.2000000000000002,0.112,-0.082,100.04,5.0,,2.76,2.885,
2025-08-15T02:16:58.622Z,5,GR86-036-98,-1.2000000000000002,0.101,-0.068,100.07,5.0,,0.0,0.0,
2025-08-15T02:16:58.665Z,5,GR86-036-98,-1.3,0.142,-0.079,100.05,5.0,7003.0,0.0,0.0,
2025-08-15T02:16:58.709Z,5,GR86-036-98,-1.3,0.115,-0.103,100.03,5.0,,0.0,0.0,206.02
2025-08-15T02:16:58.751Z,5,GR86-036-98,-1.4,0.108,-0.113,100.04,5.0,,0.0,0.0,
2025-08-15T02:16:58.794Z,5,GR86-036-98,-1.4,0.118,-0.114,66.93,5.0,,0.0,0.0,
2025-08-15T02:16:58.839Z,5,GR86-036-98,-1.5,0.144,-0.09,35.5,5.0,,0.0,0.0,
2025-08-15T02:16:58.882Z,5,GR86-036-98,-1.5,0.074,-0.058,34.22,5.0,7043.0,0.0,0.0,
2025-08-15T02:16:58.925Z,5,GR86-036-98,-1.5,0.033,-0.031,34.13,5.0,,0.0,0.0,206.86
2025-08-15T02:16:58.971Z,5,GR86-036-98,-1.5,0.015,0.016,34.0,5.0,,0.0,0.0,
2025-08-15T02:16:59.013Z,5,GR86-036-98,-1.5,0.041,0.006,33.910000000000004,5.0,,0.0,0.0,
2025-08-15T02:16:59.056Z,5,GR86-036-98,-1.5,0.068,0.017,34.01,5.0,,0.0,0.0,
2025-08-15T02:16:59.099Z,5,GR86-036-98,-1.5,0.002,0.032,34.230000000000004,5.0,7029.0,0.0,0.0,
2025-08-15T02:16:59.185Z,5,GR86-036-98,-1.0,0.048,0.056,33.97,5.0,,0.0,0.0,207.76
2025-08-15T02:16:59.229Z,5,GR86-036-98,1.2000000000000002,0.083,0.068,26.94,5.0,,0.0,0.0,
2025-08-15T02:16:59.271Z,5,GR86-036-98,1.3,0.052,0.097,20.72,5.0,,0.0,0.0,
2025-08-15T02:16:59.314Z,5,GR86-036-98,1.3,0.023,0.116,18.78,5.0,7047.0,0.0,0.0,
2025-08-15T02:16:59.359Z,5,GR86-036-98,1.3,-0.021,0.159,22.07,5.0,,0.0,0.0,208.16
2025-08-15T02:16:59.402Z,5,GR86-036-98,1.3,-0.042,0.155,24.28,5.0,,0.0,0.0,
2025-08-15T02:16:59.445Z,5,GR86-036-98,1.4,-0.06,0.183,29.27,5.0,,0.0,0.0,
2025-08-15T02:16:59.489Z,5,GR86-036-98,1.4,-0.045,0.167,31.63,5.0,,0.0,0.0,
2025-08-15T02:16:59.574Z,5,GR86-036-98,1.4,0.002,0.119,31.84,5.0,7015.0,0.0,0.0,208.5
2025-08-15T02:16:59.620Z,5,GR86-036-98,1.4,-0.001,0.066,30.41,5.0,,0.0,0.0,
2025-08-15T02:16:59.662Z,5,GR86-036-98,1.4,0.019,0.046,27.12,5.0,,0.0,0.0,
2025-08-15T02:16:59.705Z,5,GR86-036-98,1.4,0.01,0.046,21.46,5.0,,0.0,0.0,
2025-08-15T02:16:59.749Z,5,GR86-036-98,1.4,0.016,0.054,18.11,5.0,7044.0,0.0,0.0,
2025-08-15T02:16:59.792Z,5,GR86-036-98,1.4,-0.001,0.077,14.9,5.0,,0.0,0.0,208.34
2025-08-15T02:16:59.835Z,5,GR86-036-98,1.4,-0.026,0.085,9.51,5.0,,0.0,0.0,
2025-08-15T02:16:59.880Z,5,GR86-036-98,1.4,-0.073,0.068,6.48,5.0,,0.0,0.0,
2025-08-15T02:16:59.923Z,5,GR86-036-98,1.4,-0.067,0.073,6.82,5.0,,0.0,0.0,
2025-08-15T02:16:59.966Z,5,GR86-036-98,1.2000000000000002,-0.076,0.044,18.06,5.0,7002.0,0.0,0.0,
2025-08-15T02:17:00.052Z,5,GR86-036-98,1.1,-0.208,0.023,21.74,5.0,,0.0,0.0,208.51
2025-08-15T02:17:00.095Z,5,GR86-036-98,1.1,-0.071,-0.021,26.01,5.0,,0.0,0.0,
2025-08-15T02:17:00.139Z,5,GR86-036-98,1.1,0.017,-0.041,22.5,5.0,,0.0,0.0,
2025-08-15T02:17:00.182Z,5,GR86-036-98,1.0,0.087,-0.067,17.77,5.0,6948.0,0.0,0.0,
2025-08-15T02:17:00.225Z,5,GR86-036-98,1.0,-0.094,-0.101,13.8,5.0,,0.0,0.0,208.19
2025-08-15T02:17:00.270Z,5,GR86-036-98,1.0,-0.099,-0.066,14.06,5.0,,0.0,0.0,
2025-08-15T02:17:00.313Z,5,GR86-036-98,1.0,-0.098,-0.075,11.72,5.0,,0.0,0.0,
2025-08-15T02:17:00.399Z,5,GR86-036-98,1.0,-0.074,-0.041,6.37,5.0,6923.0,0.0,0.0,
2025-08-15T02:17:00.442Z,5,GR86-036-98,1.0,-0.089,0.006,20.31,5.0,,0.0,0.0,207.44
2025-08-15T02:17:00.485Z,5,GR86-036-98,1.0,-0.181,0.037,26.86,5.0,,0.0,0.0,
2025-08-15T02:17:00.530Z,5,GR86-036-98,1.0,-0.198,0.077,28.7,5.0,,0.0,0.0,
2025-08-15T02:17:00.572Z,5,GR86-036-98,1.0,-0.016,0.071,28.72,5.0,,0.0,0.0,
2025-08-15T02:17:00.659Z,5,GR86-036-98,1.0,0.034,0.097,27.75,5.0,6881.0,0.0,0.0,206.55
2025-08-15T02:17:00.702Z,5,GR86-036-98,1.0,-0.058,0.101,27.82,5.0,,0.0,0.0,
2025-08-15T02:17:00.789Z,5,GR86-036-98,1.0,0.059,0.125,18.5,5.0,,0.0,0.0,
2025-08-15T02:17:00.832Z,5,GR86-036-98,1.0,-0.034,0.108,17.79,5.0,7034.0,0.0,0.0,
2025-08-15T02:17:00.875Z,5,GR86-036-98,1.0,-0.084,0.069,19.32,5.0,,0.0,0.0,206.37
2025-08-15T02:17:00.920Z,5,GR86-036-98,0.9,-0.049,0.038,19.22,5.0,,0.0,0.0,
2025-08-15T02:17:01.005Z,5,GR86-036-98,0.5,-0.084,-0.013,18.43,5.0,,0.0,0.0,
2025-08-15T02:17:01.049Z,5,GR86-036-98,0.5,-0.092,-0.037,16.7,5.0,6919.0,0.0,0.0,
2025-08-15T02:17:01.092Z,5,GR86-036-98,0.5,-0.058,-0.064,7.35,5.0,,0.0,0.0,206.21
2025-08-15T02:17:01.135Z,5,GR86-036-98,0.5,-0.073,-0.07,6.4,5.0,,0.0,0.0,
2025-08-15T02:17:01.179Z,5,GR86-036-98,0.4,-0.088,-0.079,3.83,5.0,,0.0,0.0,
2025-08-15T02:17:01.222Z,5,GR86-036-98,0.4,-0.114,-0.043,3.51,5.0,,0.0,0.0,
2025-08-15T02:17:01.265Z,5,GR86-036-98,0.4,-0.246,-0.023,3.15,5.0,6747.0,0.0,0.0,
2025-08-15T02:17:01.309Z,5,GR86-036-98,0.4,-0.181,-0.009,2.85,5.0,,0.0,0.0,205.89
2025-08-15T02:17:01.352Z,5,GR86-036-98,0.4,-0.082,0.004,2.69,5.0,,0.0,0.0,
2025-08-15T02:17:01.395Z,5,GR86-036-98,0.4,-0.132,0.016,2.59,5.0,,0.0,0.0,
2025-08-15T02:17:01.440Z,5,GR86-036-98,0.4,-0.181,0.02,2.54,5.0,,0.0,0.0,
2025-08-15T02:17:01.482Z,5,GR86-036-98,0.4,-0.137,0.035,2.52,5.0,6834.0,0.0,0.0,
2025-08-15T02:17:01.525Z,5,GR86-036-98,0.4,-0.144,0.042,2.51,5.0,,0.0,0.0,205.04
2025-08-15T02:17:01.571Z,5,GR86-036-98,0.4,-0.148,0.073,2.49,5.0,,4.775,4.775,
2025-08-15T02:17:01.614Z,5,GR86-036-98,0.4,-0.217,0.081,2.48,5.0,,9.035,9.005,
2025-08-15T02:17:01.659Z,5,GR86-036-98,0.4,-0.275,0.083,2.49,5.0,,12.62,12.56,
2025-08-15T02:17:01.702Z,5,GR86-036-98,0.4,-0.292,0.08,2.48,5.0,6816.0,14.145,14.025,
2025-08-15T02:17:01.745Z,5,GR86-036-98,0.4,-0.36,0.102,2.48,5.0,,15.335,15.215,204.0
2025-08-15T02:17:01.789Z,5,GR86-036-98,0.4,-0.365,0.097,2.48,5.0,,17.580000000000002,17.580000000000002,
2025-08-15T02:17:01.831Z,5,GR86-036-98,1.2000000000000002,-0.442,0.12,2.48,5.0,,20.48,20.325,
2025-08-15T02:17:01.874Z,5,GR86-036-98,2.0,-0.484,0.106,2.48,5.0,,24.83,24.43,
2025-08-15T02:17:01.920Z,5,GR86-036-98,2.2,-0.667,0.123,2.47,5.0,6692.0,38.745,38.15,
2025-08-15T02:17:01.962Z,5,GR86-036-98,2.2,-0.794,0.123,2.48,5.0,,49.335,48.59,201.57
2025-08-15T02:17:02.005Z,5,GR86-036-98,2.2,-0.97,0.135,2.48,5.0,,59.56,58.705,
2025-08-15T02:17:02.049Z,5,GR86-036-98,2.2,-1.078,0.103,2.48,5.0,,67.05,66.185,
2025-08-15T02:17:02.092Z,5,GR86-036-98,2.2,-1.192,0.113,2.49,5.0,,71.05,70.455,
2025-08-15T02:17:02.135Z,5,GR86-036-98,2.2,-1.265,0.111,2.49,5.0,6437.0,72.64,72.27,
2025-08-15T02:17:02.180Z,5,GR86-036-98,3.7,-1.238,0.095,2.49,5.0,,66.395,67.94,197.09
2025-08-15T02:17:02.222Z,5,GR86-036-98,6.1000000000000005,-1.054,0.106,2.49,5.0,,53.61,55.64,
2025-08-15T02:17:02.265Z,5,GR86-036-98,7.800000000000001,-0.967,0.132,2.49,5.0,,40.425,42.085,
2025-08-15T02:17:02.309Z,5,GR86-036-98,8.5,-0.746,0.169,2.49,5.0,,31.27,32.715,
2025-08-15T02:17:02.351Z,5,GR86-036-98,8.6,-0.724,0.194,2.5,5.0,5974.0,28.965,29.71,
2025-08-15T02:17:02.394Z,5,GR86-036-98,8.6,-0.7010000000000001,0.215,2.49,5.0,,30.11,30.61,189.13
2025-08-15T02:17:02.440Z,5,GR86-036-98,8.6,-0.75,0.215,2.48,5.0,,33.910000000000004,34.215,
2025-08-15T02:17:02.525Z,5,GR86-036-98,4.2,-0.758,0.208,2.49,5.0,,30.61,31.68,
2025-08-15T02:17:02.613Z,5,GR86-036-98,3.6,-0.673,0.204,2.49,5.0,6056.0,26.295,27.255,183.21
2025-08-15T02:17:02.656Z,5,GR86-036-98,2.2,-0.5710000000000001,0.174,4.34,5.0,,21.775,22.34,
2025-08-15T02:17:02.699Z,5,GR86-036-98,0.5,-0.628,0.169,70.29,5.0,,23.3,23.485,
2025-08-15T02:17:02.742Z,5,GR86-036-98,0.5,-0.637,0.091,99.74,5.0,,23.715,24.11,
2025-08-15T02:17:02.785Z,5,GR86-036-98,0.5,-0.603,0.049,91.11,4.0,5865.0,24.05,24.43,
2025-08-15T02:17:02.829Z,5,GR86-036-98,0.5,-0.611,-0.039,21.2,4.0,,24.08,24.43,177.8
2025-08-15T02:17:02.871Z,5,GR86-036-98,0.5,-0.741,0.011,4.58,4.0,,23.715,24.37,
2025-08-15T02:17:02.959Z,5,GR86-036-98,0.5,-0.7030000000000001,-0.011,3.97,4.0,,24.43,24.86,
2025-08-15T02:17:03.002Z,5,GR86-036-98,0.7000000000000001,-0.719,-0.018,3.1,4.0,6374.0,29.74,29.895,
2025-08-15T02:17:03.045Z,5,GR86-036-98,0.7000000000000001,-0.797,-0.052,2.8000000000000003,4.0,,31.3,31.575,174.01
2025-08-15T02:17:03.089Z,5,GR86-036-98,0.7000000000000001,-0.754,-0.033,2.64,4.0,,31.955,32.445,
2025-08-15T02:17:03.175Z,5,GR86-036-98,0.7000000000000001,-0.753,0.019,2.56,4.0,,32.505,32.96,
2025-08-15T02:17:03.220Z,5,GR86-036-98,-4.2,-0.84,0.03,2.5,4.0,6429.0,36.84,37.02,
2025-08-15T02:17:03.262Z,5,GR86-036-98,-7.800000000000001,-0.866,-0.029,2.48,4.0,,38.015,38.32,164.54
2025-08-15T02:17:03.305Z,5,GR86-036-98,-10.0,-0.843,-0.092,2.48,4.0,,39.785,39.935,
2025-08-15T02:17:03.349Z,5,GR86-036-98,-10.7,-0.892,-0.129,2.48,4.0,,42.68,42.775,
2025-08-15T02:17:03.392Z,5,GR86-036-98,-10.8,-0.948,-0.194,16.41,4.0,,46.62,46.65,
2025-08-15T02:17:03.435Z,5,GR86-036-98,-10.8,-1.0,-0.227,63.190000000000005,4.0,6226.0,51.215,51.03,
2025-08-15T02:17:03.480Z,5,GR86-036-98,-10.9,-1.064,-0.29,82.66,3.0,,59.15,58.645,158.68
2025-08-15T02:17:03.523Z,5,GR86-036-98,-10.9,-1.191,-0.37,11.6,3.0,,64.49,64.87,
2025-08-15T02:17:03.566Z,5,GR86-036-98,-10.1,-1.141,-0.224,3.44,3.0,,70.305,72.18,
2025-08-15T02:17:03.609Z,5,GR86-036-98,-5.300000000000001,-1.121,-0.547,2.8000000000000003,3.0,,72.605,73.46000000000001,
2025-08-15T02:17:03.652Z,5,GR86-036-98,0.3,-1.077,-0.466,2.66,3.0,5957.0,72.24,72.33,
2025-08-15T02:17:03.695Z,5,GR86-036-98,4.0,-1.028,-0.282,2.58,3.0,,74.41,75.46000000000001,151.77
2025-08-15T02:17:03.739Z,5,GR86-036-98,5.300000000000001,-0.8240000000000001,-0.718,2.52,3.0,,61.59,63.435,
2025-08-15T02:17:03.782Z,5,GR86-036-98,5.4,-0.847,-0.5730000000000001,2.59,3.0,,50.31,51.305,
2025-08-15T02:17:03.825Z,5,GR86-036-98,5.300000000000001,-0.988,-0.442,3.54,3.0,,44.47,45.9,
2025-08-15T02:17:03.871Z,5,GR86-036-98,-8.200000000000001,-0.777,-0.626,3.44,3.0,6358.0,42.36,43.4,
2025-08-15T02:17:03.956Z,5,GR86-036-98,-27.8,-0.899,-0.62,3.89,3.0,,39.935,40.835,145.11
2025-08-15T02:17:03.999Z,5,GR86-036-98,-35.1,-0.836,-0.6990000000000001,4.18,3.0,,40.655,41.765,
2025-08-15T02:17:04.042Z,5,GR86-036-98,-38.5,-0.769,-0.716,4.12,3.0,,39.785,40.835,
2025-08-15T02:17:04.085Z,5,GR86-036-98,-40.3,-0.916,-0.6890000000000001,4.57,3.0,6137.0,36.61,37.05,
2025-08-15T02:17:04.129Z,5,GR86-036-98,-43.1,-0.852,-0.646,4.8500000000000005,3.0,,37.83,38.655,139.25
2025-08-15T02:17:04.172Z,5,GR86-036-98,-44.900000000000006,-0.78,-0.81,4.97,3.0,,39.815,40.835,
2025-08-15T02:17:04.215Z,5,GR86-036-98,-45.1,-0.797,-0.85,4.99,3.0,,37.8,38.045,
2025-08-15T02:17:04.302Z,5,GR86-036-98,-46.2,-0.776,-0.837,5.0,3.0,5936.0,37.02,37.83,
2025-08-15T02:17:04.345Z,5,GR86-036-98,-47.5,-0.679,-1.065,4.8100000000000005,3.0,,28.275,29.24,134.27
2025-08-15T02:17:04.390Z,5,GR86-036-98,-47.6,-0.5700000000000001,-1.062,4.8100000000000005,3.0,,16.345,17.06,
2025-08-15T02:17:04.476Z,5,GR86-036-98,-48.5,-0.323,-1.212,4.32,3.0,,0.0,0.0,
2025-08-15T02:17:04.562Z,5,GR86-036-98,-50.6,-0.245,-1.206,3.0700000000000003,3.0,5705.0,0.0,0.0,129.87
2025-08-15T02:17:04.605Z,5,GR86-036-98,-51.400000000000006,-0.178,-1.3,3.5,3.0,,0.0,0.0,
2025-08-15T02:17:04.649Z,5,GR86-036-98,-51.5,-0.196,-1.297,13.82,3.0,,0.0,0.0,
2025-08-15T02:17:04.692Z,5,GR86-036-98,-44.7,-0.187,-1.3,24.94,3.0,,0.0,0.0,
2025-08-15T02:17:04.735Z,5,GR86-036-98,-38.6,-0.182,-1.281,32.55,3.0,5699.0,0.0,0.0,
2025-08-15T02:17:04.779Z,5,GR86-036-98,-34.4,-0.124,-1.345,40.44,3.0,,0.0,0.0,127.62
2025-08-15T02:17:04.822Z,5,GR86-036-98,-34.0,-0.112,-1.31,41.23,3.0,,0.0,0.0,
2025-08-15T02:17:04.865Z,5,GR86-036-98,-31.200000000000003,0.134,-1.237,39.64,3.0,,0.0,0.0,
2025-08-15T02:17:04.909Z,5,GR86-036-98,-28.0,0.124,-1.257,39.78,3.0,,0.0,0.0,
2025-08-15T02:17:05.039Z,5,GR86-036-98,-29.700000000000003,0.16,-1.227,40.14,3.0,6017.0,0.0,0.0,125.69
2025-08-15T02:17:05.082Z,5,GR86-036-98,-43.8,0.094,-1.319,51.9,3.0,,0.0,0.0,
2025-08-15T02:17:05.125Z,5,GR86-036-98,-49.3,0.116,-1.291,71.94,3.0,,0.0,0.0,
2025-08-15T02:17:05.213Z,5,GR86-036-98,-55.1,0.112,-1.241,99.26,3.0,5935.0,0.0,0.0,125.21
2025-08-15T02:17:05.256Z,5,GR86-036-98,-66.5,0.154,-1.268,100.05,3.0,,0.0,0.0,
2025-08-15T02:17:05.342Z,5,GR86-036-98,-73.4,0.148,-1.247,100.05,3.0,,0.0,0.0,
2025-08-15T02:17:05.385Z,5,GR86-036-98,-77.80000000000001,0.129,-1.23,65.95,3.0,5983.0,0.0,0.0,
2025-08-15T02:17:05.430Z,5,GR86-036-98,-78.0,0.141,-1.186,38.5,3.0,,0.0,0.0,123.89
2025-08-15T02:17:05.472Z,5,GR86-036-98,-78.2,0.135,-1.208,36.77,3.0,,0.0,0.0,
2025-08-15T02:17:05.559Z,5,GR86-036-98,-78.9,0.085,-1.216,35.99,3.0,,0.0,0.0,
2025-08-15T02:17:05.602Z,5,GR86-036-98,-80.5,0.026,-1.199,33.36,3.0,5975.0,0.0,0.0,
2025-08-15T02:17:05.645Z,5,GR86-036-98,-80.7,0.089,-1.176,32.46,3.0,,0.0,0.0,123.92
2025-08-15T02:17:05.689Z,5,GR86-036-98,-80.9,0.059,-1.22,31.78,3.0,,0.0,0.0,
2025-08-15T02:17:05.731Z,5,GR86-036-98,-81.2,0.007,-1.175,31.28,3.0,,0.0,0.0,
2025-08-15T02:17:05.774Z,5,GR86-036-98,-81.30000000000001,-0.084,-1.107,31.11,3.0,,0.0,0.0,
2025-08-15T02:17:05.819Z,5,GR86-036-98,-81.4,0.104,-1.134,30.95,3.0,5957.0,0.0,0.0,
2025-08-15T02:17:05.862Z,5,GR86-036-98,-81.4,0.064,-1.035,31.83,3.0,,0.0,0.0,126.35
2025-08-15T02:17:05.905Z,5,GR86-036-98,-81.4,-0.008,-1.088,37.77,3.0,,0.0,0.0,
2025-08-15T02:17:05.949Z,5,GR86-036-98,-72.2,-0.014,-1.215,68.3,3.0,,0.0,0.0,
2025-08-15T02:17:05.992Z,5,GR86-036-98,-54.5,0.032,-1.105,99.3,3.0,,0.0,0.0,
2025-08-15T02:17:06.035Z,5,GR86-036-98,-41.900000000000006,0.038,-1.347,100.05,3.0,6013.0,0.0,0.0,
2025-08-15T02:17:06.080Z,5,GR86-036-98,-40.8,0.175,-1.239,100.05,3.0,,0.0,0.0,126.09
2025-08-15T02:17:06.122Z,5,GR86-036-98,-44.400000000000006,0.19,-1.367,100.05,3.0,,0.0,0.0,
2025-08-15T02:17:06.165Z,5,GR86-036-98,-46.8,0.173,-1.323,100.05,3.0,,0.0,0.0,
2025-08-15T02:17:06.209Z,5,GR86-036-98,-50.0,0.158,-1.229,100.05,3.0,,0.0,0.0,
2025-08-15T02:17:06.251Z,5,GR86-036-98,-58.0,0.133,-1.18,100.05,3.0,6063.0,0.0,0.0,
2025-08-15T02:17:06.294Z,5,GR86-036-98,-67.8,0.16,-1.2,100.04,3.0,,0.0,0.0,127.12
2025-08-15T02:17:06.339Z,5,GR86-036-98,-75.5,0.146,-1.154,80.02,3.0,,0.0,0.0,
2025-08-15T02:17:06.382Z,5,GR86-036-98,-75.60000000000001,0.124,-1.224,79.04,3.0,,0.0,0.0,
2025-08-15T02:17:06.425Z,5,GR86-036-98,-75.60000000000001,0.122,-1.249,98.97,3.0,,0.0,0.0,
2025-08-15T02:17:06.471Z,5,GR86-036-98,-75.60000000000001,0.11,-1.297,99.95,3.0,6091.0,0.0,0.0,
2025-08-15T02:17:06.513Z,5,GR86-036-98,-74.60000000000001,0.132,-1.318,100.05,3.0,,0.0,0.0,126.44
2025-08-15T02:17:06.556Z,5,GR86-036-98,-68.60000000000001,0.14,-1.263,100.03,3.0,,0.0,0.0,
2025-08-15T02:17:06.599Z,5,GR86-036-98,-54.8,0.137,-1.216,100.03,3.0,,0.0,0.0,
2025-08-15T02:17:06.642Z,5,GR86-036-98,-45.8,0.149,-1.232,100.03,3.0,,0.0,0.0,
2025-08-15T02:17:06.685Z,5,GR86-036-98,-42.900000000000006,0.165,-1.16,100.03,3.0,6106.0,0.0,0.0,
2025-08-15T02:17:06.729Z,5,GR86-036-98,-42.900000000000006,0.16,-1.121,100.04,3.0,,0.0,0.0,127.13
2025-08-15T02:17:06.771Z,5,GR86-036-98,-42.900000000000006,0.155,-1.137,100.03,3.0,,0.0,0.0,
2025-08-15T02:17:06.814Z,5,GR86-036-98,-42.900000000000006,0.147,-1.162,100.02,3.0,,0.0,0.0,
2025-08-15T02:17:06.859Z,5,GR86-036-98,-42.900000000000006,0.155,-1.278,100.03,3.0,,0.0,0.0,
2025-08-15T02:17:06.902Z,5,GR86-036-98,-40.2,0.163,-1.254,100.03,3.0,6167.0,0.0,0.0,
2025-08-15T02:17:06.945Z,5,GR86-036-98,-34.9,0.162,-1.202,100.03,3.0,,0.0,0.0,128.27
2025-08-15T02:17:06.989Z,5,GR86-036-98,-28.700000000000003,0.17,-1.205,100.03,3.0,,0.0,0.0,
2025-08-15T02:17:07.031Z,5,GR86-036-98,-25.0,0.178,-1.138,100.02,3.0,,0.0,0.0,
2025-08-15T02:17:07.075Z,5,GR86-036-98,-24.9,0.173,-1.05,100.03,3.0,,0.0,0.0,
2025-08-15T02:17:07.120Z,5,GR86-036-98,-30.8,0.184,-1.032,100.04,3.0,6166.0,0.0,0.0,
2025-08-15T02:17:07.162Z,5,GR86-036-98,-35.300000000000004,0.176,-0.996,100.02,3.0,,0.0,0.0,129.56
2025-08-15T02:17:07.205Z,5,GR86-036-98,-37.7,0.174,-1.026,100.04,3.0,,0.0,0.0,
2025-08-15T02:17:07.249Z,5,GR86-036-98,-40.5,0.178,-0.992,100.03,3.0,,0.0,0.0,
2025-08-15T02:17:07.292Z,5,GR86-036-98,-43.1,0.159,-0.986,100.05,3.0,,0.0,0.0,
2025-08-15T02:17:07.335Z,5,GR86-036-98,-45.0,0.148,-0.967,100.03,3.0,6185.0,0.0,0.0,
2025-08-15T02:17:07.380Z,5,GR86-036-98,-48.400000000000006,0.147,-0.94,100.03,3.0,,0.0,0.0,130.72
2025-08-15T02:17:07.424Z,5,GR86-036-98,-49.1,0.139,-0.984,100.03,3.0,,0.0,0.0,
2025-08-15T02:17:07.466Z,5,GR86-036-98,-49.1,0.153,-1.037,100.02,3.0,,0.0,0.0,
2025-08-15T02:17:07.509Z,5,GR86-036-98,-45.400000000000006,0.151,-0.999,100.04,3.0,,0.0,0.0,
2025-08-15T02:17:07.552Z,5,GR86-036-98,-36.2,0.144,-1.006,100.03,3.0,6252.0,0.0,0.0,
2025-08-15T02:17:07.595Z,5,GR86-036-98,-29.0,0.146,-0.993,100.03,3.0,,0.0,0.0,131.81
2025-08-15T02:17:07.639Z,5,GR86-036-98,-26.4,0.154,-1.034,100.02,3.0,,0.0,0.0,
2025-08-15T02:17:07.682Z,5,GR86-036-98,-26.4,0.185,-1.059,100.03,3.0,,0.0,0.0,
2025-08-15T02:17:07.725Z,5,GR86-036-98,-26.4,0.19,-1.034,100.02,3.0,,0.0,0.0,
2025-08-15T02:17:07.771Z,5,GR86-036-98,-26.5,0.174,-1.049,100.03,3.0,6341.0,0.0,0.0,
2025-08-15T02:17:07.813Z,5,GR86-036-98,-26.5,0.16,-1.056,100.02,3.0,,0.0,0.0,132.65
2025-08-15T02:17:07.856Z,5,GR86-036-98,-26.5,0.173,-1.038,100.03,3.0,,0.0,0.0,
2025-08-15T02:17:07.899Z,5,GR86-036-98,-26.6,0.163,-0.934,100.02,3.0,,0.0,0.0,
2025-08-15T02:17:07.942Z,5,GR86-036-98,-28.0,0.172,-0.841,100.03,3.0,,0.0,0.0,
2025-08-15T02:17:07.985Z,5,GR86-036-98,-34.1,0.202,-0.738,100.03,3.0,6358.0,0.0,0.0,
2025-08-15T02:17:08.030Z,5,GR86-036-98,-40.3,0.133,-0.858,100.03,3.0,,0.0,0.0,133.95
2025-08-15T02:17:08.072Z,5,GR86-036-98,-43.900000000000006,0.154,-0.72,100.03,3.0,,0.0,0.0,
2025-08-15T02:17:08.115Z,5,GR86-036-98,-45.2,0.1,-0.875,100.02,3.0,,0.0,0.0,
2025-08-15T02:17:08.159Z,5,GR86-036-98,-45.900000000000006,0.093,-0.792,100.03,3.0,,0.0,0.0,
2025-08-15T02:17:08.202Z,5,GR86-036-98,-42.900000000000006,0.159,-0.658,100.03,3.0,6398.0,0.0,0.0,
2025-08-15T02:17:08.245Z,5,GR86-036-98,-35.4,0.146,-0.985,100.01,3.0,,0.0,0.0,135.07
2025-08-15T02:17:08.289Z,5,GR86-036-98,-29.3,0.205,-0.735,100.03,3.0,,0.0,0.0,
2025-08-15T02:17:08.332Z,5,GR86-036-98,-26.6,0.15,-0.666,100.02,3.0,,0.0,0.0,
2025-08-15T02:17:08.375Z,5,GR86-036-98,-25.9,0.151,-0.6880000000000001,100.0,3.0,,0.0,0.0,
2025-08-15T02:17:08.420Z,5,GR86-036-98,-23.700000000000003,0.187,-0.704,100.01,3.0,6456.0,0.0,0.0,
2025-08-15T02:17:08.462Z,5,GR86-036-98,-20.6,0.169,-0.919,100.02,3.0,,0.0,0.0,137.29
2025-08-15T02:17:08.505Z,5,GR86-036-98,-16.2,0.23,-1.077,100.03,3.0,,0.0,0.0,
2025-08-15T02:17:08.549Z,5,GR86-036-98,-11.8,0.24,-0.681,100.03,3.0,,0.0,0.0,
2025-08-15T02:17:08.592Z,5,GR86-036-98,-10.4,0.137,-0.796,100.02,3.0,,0.0,0.0,
2025-08-15T02:17:08.635Z,5,GR86-036-98,-9.8,0.227,-0.512,100.0,3.0,6561.0,0.0,0.0,
2025-08-15T02:17:08.679Z,5,GR86-036-98,-10.6,0.156,-0.464,100.01,3.0,,0.0,0.0,138.41
2025-08-15T02:17:08.722Z,5,GR86-036-98,-12.1,0.137,-0.52,100.02,3.0,,0.0,0.0,
2025-08-15T02:17:08.765Z,5,GR86-036-98,-12.4,0.216,-0.551,100.0,3.0,,0.0,0.0,
2025-08-15T02:17:08.809Z,5,GR86-036-98,-12.9,0.195,-0.484,100.02,3.0,,0.0,0.0,
2025-08-15T02:17:08.852Z,5,GR86-036-98,-12.8,0.19,-0.429,100.03,3.0,6570.0,0.0,0.0,
2025-08-15T02:17:08.895Z,5,GR86-036-98,-12.8,0.131,-0.468,100.01,3.0,,0.0,0.0,139.58
2025-08-15T02:17:08.939Z,5,GR86-036-98,-12.8,0.205,-0.375,100.02,3.0,,0.0,0.0,
2025-08-15T02:17:08.982Z,5,GR86-036-98,-13.7,0.174,-0.383,100.01,3.0,,0.0,0.0,
2025-08-15T02:17:09.025Z,5,GR86-036-98,-15.0,0.161,-0.294,100.01,3.0,,0.0,0.0,
2025-08-15T02:17:09.071Z,5,GR86-036-98,-15.2,0.129,-0.261,100.01,3.0,6641.0,0.0,0.0,
2025-08-15T02:17:09.113Z,5,GR86-036-98,-15.3,0.223,-0.281,100.01,3.0,,0.0,0.0,140.94
2025-08-15T02:17:09.156Z,5,GR86-036-98,-12.5,0.217,-0.307,100.01,3.0,,0.0,0.0,
2025-08-15T02:17:09.199Z,5,GR86-036-98,-11.5,0.207,-0.309,100.01,3.0,,0.0,0.0,
2025-08-15T02:17:09.242Z,5,GR86-036-98,-11.5,0.208,-0.359,100.0,3.0,,0.0,0.0,
2025-08-15T02:17:09.285Z,5,GR86-036-98,-11.3,0.17,-0.367,100.01,3.0,6692.0,0.0,0.0,
2025-08-15T02:17:09.330Z,5,GR86-036-98,-7.2,0.174,-0.318,100.01,3.0,,0.0,0.0,142.24
2025-08-15T02:17:09.372Z,5,GR86-036-98,-3.0,0.187,-0.233,100.01,3.0,,0.0,0.0,
2025-08-15T02:17:09.415Z,5,GR86-036-98,-0.8,0.193,-0.159,100.0,3.0,,0.0,0.0,
2025-08-15T02:17:09.459Z,5,GR86-036-98,0.6000000000000001,0.198,-0.062,99.99,3.0,,0.0,0.0,
2025-08-15T02:17:09.502Z,5,GR86-036-98,2.9000000000000004,0.202,-0.014,99.99,3.0,6755.0,0.0,0.0,
2025-08-15T02:17:09.545Z,5,GR86-036-98,5.7,0.207,0.025,100.01,3.0,,0.0,0.0,143.73
2025-08-15T02:17:09.589Z,5,GR86-036-98,7.300000000000001,0.187,0.09,100.03,3.0,,0.0,0.0,
2025-08-15T02:17:09.631Z,5,GR86-036-98,7.7,0.185,0.18,100.01,3.0,,0.0,0.0,
2025-08-15T02:17:09.674Z,5,GR86-036-98,7.7,0.2,0.236,100.0,3.0,,0.0,0.0,
2025-08-15T02:17:09.719Z,5,GR86-036-98,7.7,0.187,0.282,100.01,3.0,6822.0,0.0,0.0,
2025-08-15T02:17:09.762Z,5,GR86-036-98,7.7,0.2,0.334,100.0,3.0,,0.0,0.0,145.21
2025-08-15T02:17:09.805Z,5,GR86-036-98,7.7,0.219,0.305,100.0,3.0,,0.0,0.0,
2025-08-15T02:17:09.849Z,5,GR86-036-98,7.7,0.2,0.294,100.02,3.0,,0.0,0.0,
2025-08-15T02:17:09.892Z,5,GR86-036-98,8.5,0.191,0.278,100.0,3.0,,0.0,0.0,
2025-08-15T02:17:09.980Z,5,GR86-036-98,9.2,0.186,0.316,100.0,3.0,6893.0,0.0,0.0,146.73
2025-08-15T02:17:10.022Z,5,GR86-036-98,9.2,0.189,0.324,100.01,3.0,,0.0,0.0,
2025-08-15T02:17:10.065Z,5,GR86-036-98,7.7,0.2,0.323,100.01,3.0,,0.0,0.0,
2025-08-15T02:17:10.109Z,5,GR86-036-98,5.6000000000000005,0.212,0.295,100.03,3.0,,0.0,0.0,
2025-08-15T02:17:10.151Z,5,GR86-036-98,4.800000000000001,0.211,0.246,100.0,3.0,6968.0,0.0,0.0,
2025-08-15T02:17:10.194Z,5,GR86-036-98,4.800000000000001,0.187,0.207,100.0,3.0,,0.0,0.0,148.25
2025-08-15T02:17:10.239Z,5,GR86-036-98,4.6000000000000005,0.22,0.205,99.99,3.0,,0.0,0.0,
2025-08-15T02:17:10.282Z,5,GR86-036-98,6.1000000000000005,0.208,0.195,100.0,3.0,,0.0,0.0,
2025-08-15T02:17:10.325Z,5,GR86-036-98,6.2,0.176,0.197,100.01,3.0,,0.0,0.0,
2025-08-15T02:17:10.371Z,5,GR86-036-98,6.2,0.179,0.201,99.97,3.0,7037.0,0.0,0.0,
2025-08-15T02:17:10.414Z,5,GR86-036-98,6.1000000000000005,0.206,0.205,100.03,3.0,,0.0,0.0,149.83
2025-08-15T02:17:10.459Z,5,GR86-036-98,6.0,0.169,0.178,99.99,3.0,,0.0,0.0,
2025-08-15T02:17:10.545Z,5,GR86-036-98,7.300000000000001,0.207,0.255,100.02,3.0,,0.0,0.0,
2025-08-15T02:17:10.589Z,5,GR86-036-98,7.300000000000001,0.198,0.293,100.01,3.0,7099.0,0.0,0.0,
2025-08-15T02:17:10.631Z,5,GR86-036-98,7.300000000000001,0.225,0.291,100.02,3.0,,0.0,0.0,151.42000000000002
2025-08-15T02:17:10.675Z,5,GR86-036-98,7.300000000000001,0.196,0.296,100.0,3.0,,0.0,0.0,
2025-08-15T02:17:10.720Z,5,GR86-036-98,6.800000000000001,0.22,0.3,100.02,3.0,,0.0,0.0,
2025-08-15T02:17:10.762Z,5,GR86-036-98,6.800000000000001,0.217,0.285,99.98,3.0,,0.0,0.0,
2025-08-15T02:17:10.805Z,5,GR86-036-98,6.7,0.189,0.257,100.03,3.0,7187.0,0.0,0.0,
2025-08-15T02:17:10.849Z,5,GR86-036-98,5.9,0.171,0.259,100.03,3.0,,0.0,0.0,152.98
2025-08-15T02:17:10.892Z,5,GR86-036-98,5.4,0.18,0.248,100.0,3.0,,0.0,0.0,
2025-08-15T02:17:10.935Z,5,GR86-036-98,5.300000000000001,-0.007,0.223,100.0,4.0,,0.0,0.0,
2025-08-15T02:17:10.980Z,5,GR86-036-98,5.300000000000001,0.209,0.207,100.0,4.0,,0.0,0.0,
2025-08-15T02:17:11.023Z,5,GR86-036-98,5.300000000000001,0.291,0.072,100.0,4.0,7259.0,0.0,0.0,
2025-08-15T02:17:11.066Z,5,GR86-036-98,4.2,0.326,0.147,100.01,4.0,,0.0,0.0,155.99
2025-08-15T02:17:11.109Z,5,GR86-036-98,1.5,0.138,0.186,100.01,4.0,,0.0,0.0,
2025-08-15T02:17:11.152Z,5,GR86-036-98,0.1,0.085,0.039,99.99,4.0,,0.0,0.0,
2025-08-15T02:17:11.195Z,5,GR86-036-98,0.0,0.163,0.038,100.01,4.0,,0.0,0.0,
2025-08-15T02:17:11.239Z,5,GR86-036-98,-0.1,0.205,0.048,100.0,4.0,6401.0,0.0,0.0,
2025-08-15T02:17:11.282Z,5,GR86-036-98,0.0,0.153,-0.002,100.0,4.0,,0.0,0.0,157.69
2025-08-15T02:17:11.325Z,5,GR86-036-98,0.0,0.158,0.034,100.01,4.0,,0.0,0.0,
2025-08-15T02:17:11.371Z,5,GR86-036-98,-0.1,0.165,-0.007,100.0,4.0,,0.0,0.0,
2025-08-15T02:17:11.414Z,5,GR86-036-98,0.6000000000000001,0.175,-0.023,100.01,4.0,,0.0,0.0,
2025-08-15T02:17:11.460Z,5,GR86-036-98,1.0,0.176,0.08,100.02,4.0,6282.0,0.0,0.0,
2025-08-15T02:17:11.502Z,5,GR86-036-98,1.0,0.164,0.068,100.0,4.0,,0.0,0.0,159.38
2025-08-15T02:17:11.545Z,5,GR86-036-98,1.0,0.178,0.044,100.0,4.0,,0.0,0.0,
2025-08-15T02:17:11.589Z,5,GR86-036-98,1.0,0.158,0.075,99.98,4.0,,0.0,0.0,
2025-08-15T02:17:11.632Z,5,GR86-036-98,1.0,0.136,0.077,100.0,4.0,,0.0,0.0,
2025-08-15T02:17:11.675Z,5,GR86-036-98,1.0,0.134,0.094,99.99,4.0,6341.0,0.0,0.0,
2025-08-15T02:17:11.720Z,5,GR86-036-98,1.0,0.182,0.115,100.01,4.0,,0.0,0.0,161.0
2025-08-15T02:17:11.762Z,5,GR86-036-98,1.0,0.162,0.119,100.0,4.0,,0.0,0.0,
2025-08-15T02:17:11.805Z,5,GR86-036-98,1.0,0.14,0.107,100.02,4.0,,0.0,0.0,
2025-08-15T02:17:11.849Z,5,GR86-036-98,1.0,0.134,0.113,100.02,4.0,,0.0,0.0,
2025-08-15T02:17:11.892Z,5,GR86-036-98,1.0,0.139,0.123,99.98,4.0,6402.0,0.0,0.0,
2025-08-15T02:17:11.935Z,5,GR86-036-98,1.0,0.143,0.135,100.0,4.0,,0.0,0.0,162.58
2025-08-15T02:17:11.979Z,5,GR86-036-98,-0.8,0.162,0.053,100.02,4.0,,0.0,0.0,
2025-08-15T02:17:12.022Z,5,GR86-036-98,-2.7,0.134,0.033,100.0,4.0,,0.0,0.0,
2025-08-15T02:17:12.065Z,5,GR86-036-98,-3.5,0.133,-0.014,100.02,4.0,,0.0,0.0,
2025-08-15T02:17:12.109Z,5,GR86-036-98,-3.5,0.124,-0.052,100.0,4.0,6472.0,0.0,0.0,
2025-08-15T02:17:12.152Z,5,GR86-036-98,-3.5,0.133,-0.075,99.99,4.0,,0.0,0.0,164.19
2025-08-15T02:17:12.195Z,5,GR86-036-98,-3.5,0.142,-0.095,100.0,4.0,,0.0,0.0,
2025-08-15T02:17:12.239Z,5,GR86-036-98,-3.5,0.141,-0.144,99.99,4.0,,0.0,0.0,
2025-08-15T02:17:12.282Z,5,GR86-036-98,-3.8,0.13,-0.147,100.03,4.0,,0.0,0.0,
2025-08-15T02:17:12.325Z,5,GR86-036-98,-3.8,0.137,-0.169,100.01,4.0,6530.0,0.0,0.0,
2025-08-15T02:17:12.371Z,5,GR86-036-98,-3.8,0.127,-0.161,99.99,4.0,,0.0,0.0,165.74
2025-08-15T02:17:12.414Z,5,GR86-036-98,-3.8,0.147,-0.15,99.99,4.0,,0.0,0.0,
2025-08-15T02:17:12.460Z,5,GR86-036-98,-3.8,0.153,-0.136,100.0,4.0,,0.0,0.0,
2025-08-15T02:17:12.502Z,5,GR86-036-98,-3.9,0.137,-0.126,100.0,4.0,,0.0,0.0,
2025-08-15T02:17:12.545Z,5,GR86-036-98,-3.9,0.138,-0.123,100.0,4.0,6586.0,0.0,0.0,
2025-08-15T02:17:12.589Z,5,GR86-036-98,-4.6000000000000005,0.14,-0.136,99.99,4.0,,0.0,0.0,167.38
2025-08-15T02:17:12.631Z,5,GR86-036-98,-4.7,0.131,-0.141,100.0,4.0,,0.0,0.0,
2025-08-15T02:17:12.674Z,5,GR86-036-98,-4.7,0.147,-0.162,100.0,4.0,,3.37,3.525,
2025-08-15T02:17:12.719Z,5,GR86-036-98,-4.7,0.155,-0.133,100.0,4.0,,2.045,2.165,
2025-08-15T02:17:12.762Z,5,GR86-036-98,-4.7,0.126,-0.143,99.99,4.0,6648.0,0.0,0.0,
2025-08-15T02:17:12.805Z,5,GR86-036-98,-4.7,0.142,-0.159,99.99,4.0,,0.0,0.0,168.94
2025-08-15T02:17:12.849Z,5,GR86-036-98,-4.7,0.14,-0.166,99.99,4.0,,0.0,0.0,
2025-08-15T02:17:12.892Z,5,GR86-036-98,-4.7,0.135,-0.162,99.99,4.0,,7.140000000000001,7.4,
2025-08-15T02:17:12.935Z,5,GR86-036-98,-4.7,0.103,-0.175,100.0,4.0,,6.515000000000001,6.545,
2025-08-15T02:17:12.980Z,5,GR86-036-98,-4.800000000000001,0.108,-0.195,100.0,4.0,6712.0,0.0,0.0,
2025-08-15T02:17:13.022Z,5,GR86-036-98,-4.800000000000001,0.148,-0.2,100.0,4.0,,0.0,0.0,170.47
2025-08-15T02:17:13.065Z,5,GR86-036-98,-4.800000000000001,0.146,-0.189,100.01,4.0,,0.0,0.0,
2025-08-15T02:17:13.109Z,5,GR86-036-98,-4.9,0.142,-0.201,100.0,4.0,,3.19,3.495,
2025-08-15T02:17:13.151Z,5,GR86-036-98,-5.0,0.147,-0.185,100.0,4.0,,6.3,6.2700000000000005,
2025-08-15T02:17:13.194Z,5,GR86-036-98,-5.0,0.09,-0.166,100.0,4.0,6751.0,4.365,4.365,
2025-08-15T02:17:13.239Z,5,GR86-036-98,-5.1000000000000005,0.112,-0.18,99.99,4.0,,0.0,0.0,171.66
2025-08-15T02:17:13.282Z,5,GR86-036-98,-5.2,0.142,-0.195,99.99,4.0,,0.0,0.0,
2025-08-15T02:17:13.325Z,5,GR86-036-98,-5.300000000000001,0.151,-0.205,100.0,4.0,,0.0,0.0,
2025-08-15T02:17:13.371Z,5,GR86-036-98,-5.300000000000001,0.14,-0.194,100.02,4.0,,0.0,0.0,
2025-08-15T02:17:13.414Z,5,GR86-036-98,-5.300000000000001,0.151,-0.204,100.0,4.0,6821.0,0.0,0.0,
2025-08-15T02:17:13.459Z,5,GR86-036-98,-6.6000000000000005,0.135,-0.192,100.0,4.0,,0.0,0.0,174.44
2025-08-15T02:17:13.502Z,5,GR86-036-98,-8.1,0.124,-0.218,100.0,4.0,,0.0,0.0,
2025-08-15T02:17:13.545Z,5,GR86-036-98,-8.200000000000001,0.126,-0.261,99.99,4.0,,0.0,0.0,
2025-08-15T02:17:13.589Z,5,GR86-036-98,-8.200000000000001,0.13,-0.261,100.0,4.0,,0.0,0.0,
2025-08-15T02:17:13.631Z,5,GR86-036-98,-8.200000000000001,0.153,-0.271,100.0,4.0,6863.0,0.0,0.0,
2025-08-15T02:17:13.675Z,5,GR86-036-98,-8.200000000000001,0.128,-0.259,100.01,4.0,,0.0,0.0,175.87
2025-08-15T02:17:13.720Z,5,GR86-036-98,-8.6,0.122,-0.28,100.0,4.0,,0.0,0.0,
2025-08-15T02:17:13.762Z,5,GR86-036-98,-10.1,0.142,-0.271,100.0,4.0,,0.0,0.0,
2025-08-15T02:17:13.805Z,5,GR86-036-98,-10.1,0.123,-0.315,99.97,4.0,,0.0,0.0,
2025-08-15T02:17:13.849Z,5,GR86-036-98,-10.2,0.124,-0.311,100.01,4.0,6923.0,0.0,0.0,
2025-08-15T02:17:13.892Z,5,GR86-036-98,-9.2,0.134,-0.292,100.0,4.0,,0.0,0.0,177.21
2025-08-15T02:17:13.935Z,5,GR86-036-98,-9.1,0.137,-0.265,99.99,4.0,,0.0,0.0,
2025-08-15T02:17:13.980Z,5,GR86-036-98,-9.0,0.121,-0.278,99.97,4.0,,0.0,0.0,
2025-08-15T02:17:14.023Z,5,GR86-036-98,-9.1,0.129,-0.326,76.93,4.0,,0.0,0.0,
2025-08-15T02:17:14.066Z,5,GR86-036-98,-9.1,0.132,-0.325,35.29,4.0,7022.0,0.0,0.0,
2025-08-15T02:17:14.109Z,5,GR86-036-98,-9.0,0.114,-0.315,25.54,4.0,,2.045,1.985,178.52
2025-08-15T02:17:14.152Z,5,GR86-036-98,-9.0,0.046,-0.323,7.74,4.0,,2.915,2.915,
2025-08-15T02:17:14.195Z,5,GR86-036-98,-8.4,-0.022,-0.273,4.5600000000000005,4.0,,5.465,5.4,
2025-08-15T02:17:14.239Z,5,GR86-036-98,-7.4,-0.231,-0.222,3.64,4.0,,10.56,10.65,
2025-08-15T02:17:14.282Z,5,GR86-036-98,-6.9,-0.298,-0.181,3.37,4.0,6905.0,17.06,16.86,
2025-08-15T02:17:14.325Z,5,GR86-036-98,-6.0,-0.631,-0.171,3.0500000000000003,4.0,,26.57,26.26,179.70000000000002
2025-08-15T02:17:14.371Z,5,GR86-036-98,-5.5,-0.796,-0.108,2.82,4.0,,43.995,43.585,
2025-08-15T02:17:14.414Z,5,GR86-036-98,-5.5,-1.017,-0.08,2.69,4.0,,64.03,63.315000000000005,
2025-08-15T02:17:14.459Z,5,GR86-036-98,-5.5,-1.358,-0.107,3.0,4.0,,86.28,85.15,
2025-08-15T02:17:14.502Z,5,GR86-036-98,-5.4,-1.369,-0.127,3.06,4.0,6760.0,95.48,94.58,
2025-08-15T02:17:14.545Z,5,GR86-036-98,-5.0,-1.487,-0.123,3.1,4.0,,101.555,101.115,177.67000000000002
2025-08-15T02:17:14.589Z,5,GR86-036-98,-1.8,-1.435,-0.114,2.94,4.0,,106.515,107.4,
2025-08-15T02:17:14.632Z,5,GR86-036-98,1.8,-1.474,-0.143,2.79,4.0,,108.36,110.65,
2025-08-15T02:17:14.675Z,5,GR86-036-98,5.7,-1.372,-0.084,2.73,4.0,,106.055,107.325,
2025-08-15T02:17:14.720Z,5,GR86-036-98,10.9,-1.395,-0.078,3.2,4.0,5713.0,100.96,102.21,
2025-08-15T02:17:14.762Z,5,GR86-036-98,12.5,-1.471,-0.059,3.29,4.0,,98.93,99.175,167.95000000000002
2025-08-15T02:17:14.805Z,5,GR86-036-98,12.5,-1.404,0.033,3.35,4.0,,97.16,97.315,
2025-08-15T02:17:14.849Z,5,GR86-036-98,12.0,-1.397,-0.042,3.33,4.0,,98.215,98.99,
2025-08-15T02:17:14.892Z,5,GR86-036-98,8.6,-1.258,-0.156,2.97,4.0,,93.56,93.53,
2025-08-15T02:17:14.935Z,5,GR86-036-98,8.4,-1.332,-0.128,2.93,4.0,5759.0,77.58,78.985,
2025-08-15T02:17:14.979Z,5,GR86-036-98,8.3,-1.24,-0.077,3.04,4.0,,62.9,64.46000000000001,156.84
2025-08-15T02:17:15.022Z,5,GR86-036-98,8.3,-1.134,-0.039,3.0700000000000003,4.0,,58.43,58.905,
2025-08-15T02:17:15.065Z,5,GR86-036-98,6.4,-1.175,-0.024,3.17,4.0,,59.025,59.925,
2025-08-15T02:17:15.109Z,5,GR86-036-98,2.3000000000000003,-1.09,-0.047,20.99,4.0,,60.98,62.690000000000005,
2025-08-15T02:17:15.152Z,5,GR86-036-98,-0.9,-1.135,-0.132,59.22,3.0,5461.0,61.3,61.79,
2025-08-15T02:17:15.195Z,5,GR86-036-98,-3.5,-1.178,-0.134,8.290000000000001,3.0,,62.215,63.145,148.83
2025-08-15T02:17:15.239Z,5,GR86-036-98,-4.800000000000001,-1.185,-0.126,5.0,3.0,,65.525,67.08500000000001,
2025-08-15T02:17:15.282Z,5,GR86-036-98,-4.7,-1.157,-0.284,4.47,3.0,,64.43,64.84,
2025-08-15T02:17:15.325Z,5,GR86-036-98,-4.800000000000001,-1.312,-0.145,4.38,3.0,,65.025,66.365,
2025-08-15T02:17:15.371Z,5,GR86-036-98,-4.7,-1.153,-0.248,3.88,3.0,5669.0,68.47,69.71000000000001,
2025-08-15T02:17:15.414Z,5,GR86-036-98,-4.800000000000001,-1.041,-0.478,3.33,3.0,,69.58500000000001,70.395,141.38
2025-08-15T02:17:15.460Z,5,GR86-036-98,-8.4,-1.13,-0.322,2.85,3.0,,76.025,76.955,
2025-08-15T02:17:15.545Z,5,GR86-036-98,-13.1,-0.976,-0.541,59.78,2.0,,59.745000000000005,60.795,
2025-08-15T02:17:15.631Z,5,GR86-036-98,-13.1,-1.053,-0.48,12.55,2.0,5765.0,48.955,50.1,135.31
2025-08-15T02:17:15.674Z,5,GR86-036-98,6.1000000000000005,-1.05,-0.502,4.92,2.0,,43.295,43.855,
2025-08-15T02:17:15.762Z,5,GR86-036-98,6.4,-1.158,-0.09,5.61,2.0,,44.47,45.43,
2025-08-15T02:17:15.805Z,5,GR86-036-98,-22.6,-0.987,-0.606,5.45,2.0,6133.0,46.27,46.65,
2025-08-15T02:17:15.849Z,5,GR86-036-98,-28.4,-0.891,-0.522,5.16,2.0,,46.115,46.205,128.56
2025-08-15T02:17:15.892Z,5,GR86-036-98,-28.5,-0.867,-0.6930000000000001,4.86,2.0,,42.39,43.11,
2025-08-15T02:17:15.935Z,5,GR86-036-98,-32.9,-0.743,-0.735,4.53,2.0,,41.4,42.3,
2025-08-15T02:17:16.022Z,5,GR86-036-98,-38.6,-0.76,-0.672,4.5,2.0,6708.0,37.265,37.615,
2025-08-15T02:17:16.065Z,5,GR86-036-98,-38.6,-0.8310000000000001,-0.6930000000000001,4.75,2.0,,33.160000000000004,33.97,116.64
2025-08-15T02:17:16.109Z,5,GR86-036-98,-39.400000000000006,-0.8190000000000001,-0.731,4.8100000000000005,2.0,,29.5,30.155,
2025-08-15T02:17:16.151Z,5,GR86-036-98,-42.8,-0.79,-0.716,4.86,2.0,,29.5,30.015,
2025-08-15T02:17:16.194Z,5,GR86-036-98,-47.8,-0.795,-0.704,4.91,2.0,,31.025,31.48,
2025-08-15T02:17:16.239Z,5,GR86-036-98,-55.6,-0.742,-0.931,4.94,2.0,6294.0,32.625,32.84,
2025-08-15T02:17:16.282Z,5,GR86-036-98,-57.3,-0.754,-0.969,4.96,2.0,,32.93,33.465,111.96
2025-08-15T02:17:16.325Z,5,GR86-036-98,-58.0,-0.6990000000000001,-0.967,4.97,2.0,,31.65,32.505,
2025-08-15T02:17:16.372Z,5,GR86-036-98,-58.8,-0.78,-1.024,4.97,2.0,,32.305,32.685,
2025-08-15T02:17:16.414Z,5,GR86-036-98,-58.900000000000006,-0.759,-1.095,4.97,2.0,,32.99,33.68,
2025-08-15T02:17:16.460Z,5,GR86-036-98,-40.900000000000006,-0.662,-1.029,4.97,2.0,5695.0,30.365,31.27,
2025-08-15T02:17:16.502Z,5,GR86-036-98,-35.4,-0.642,-0.989,4.98,2.0,,28.095,28.58,107.86
2025-08-15T02:17:16.545Z,5,GR86-036-98,-35.4,-0.58,-0.956,5.28,2.0,,25.895,26.81,
2025-08-15T02:17:16.589Z,5,GR86-036-98,-40.1,-0.649,-1.04,5.8100000000000005,2.0,,20.235,21.0,
2025-08-15T02:17:16.631Z,5,GR86-036-98,-42.0,-0.595,-1.054,7.63,2.0,,13.49,14.115,
2025-08-15T02:17:16.675Z,5,GR86-036-98,-43.0,-0.363,-1.123,7.62,2.0,5575.0,4.595,5.08,
2025-08-15T02:17:16.720Z,5,GR86-036-98,-50.2,-0.2,-1.124,7.44,2.0,,0.0,0.0,102.98
2025-08-15T02:17:16.762Z,5,GR86-036-98,-59.1,-0.155,-1.124,7.69,2.0,,0.0,0.0,
2025-08-15T02:17:16.849Z,5,GR86-036-98,-67.4,-0.158,-1.154,15.66,2.0,,0.0,0.0,
2025-08-15T02:17:16.892Z,5,GR86-036-98,-70.5,-0.161,-1.22,21.35,2.0,5595.0,0.0,0.0,
2025-08-15T02:17:16.935Z,5,GR86-036-98,-73.0,-0.151,-1.108,21.71,2.0,,0.0,0.0,100.52
2025-08-15T02:17:16.980Z,5,GR86-036-98,-74.4,-0.12,-1.193,21.36,2.0,,0.0,0.0,
2025-08-15T02:17:17.023Z,5,GR86-036-98,-74.5,-0.146,-1.205,12.36,2.0,,0.0,0.0,
2025-08-15T02:17:17.066Z,5,GR86-036-98,-74.5,0.121,-1.162,6.04,2.0,,0.0,0.0,
2025-08-15T02:17:17.109Z,5,GR86-036-98,-75.2,0.109,-1.258,5.84,2.0,5841.0,0.0,0.0,
2025-08-15T02:17:17.152Z,5,GR86-036-98,-75.7,-0.009,-1.24,5.93,2.0,,0.0,0.0,99.42
2025-08-15T02:17:17.195Z,5,GR86-036-98,-76.10000000000001,-0.115,-1.15,6.76,2.0,,0.0,0.0,
2025-08-15T02:17:17.239Z,5,GR86-036-98,-76.5,-0.103,-1.212,5.99,2.0,,0.0,0.0,
2025-08-15T02:17:17.282Z,5,GR86-036-98,-77.5,-0.219,-1.064,18.52,2.0,,0.0,0.0,
2025-08-15T02:17:17.325Z,5,GR86-036-98,-80.0,-0.259,-1.188,20.58,2.0,5422.0,0.0,0.0,
2025-08-15T02:17:17.371Z,5,GR86-036-98,-85.80000000000001,-0.131,-1.321,20.7,2.0,,0.0,0.0,99.38
2025-08-15T02:17:17.413Z,5,GR86-036-98,-89.30000000000001,-0.14,-1.197,21.23,2.0,,0.0,0.0,
2025-08-15T02:17:17.456Z,5,GR86-036-98,-90.4,-0.104,-1.112,22.72,2.0,,0.0,0.0,
2025-08-15T02:17:17.499Z,5,GR86-036-98,-90.5,-0.02,-1.243,28.31,2.0,,0.0,0.0,
2025-08-15T02:17:17.542Z,5,GR86-036-98,-85.30000000000001,0.02,-1.14,30.9,2.0,5503.0,0.0,0.0,
2025-08-15T02:17:17.585Z,5,GR86-036-98,-68.2,-0.211,-1.125,33.43,2.0,,0.0,0.0,98.5
2025-08-15T02:17:17.630Z,5,GR86-036-98,-52.0,-0.004,-1.145,37.95,2.0,,0.0,0.0,
2025-08-15T02:17:17.672Z,5,GR86-036-98,-35.2,0.302,-1.212,41.45,2.0,,0.0,0.0,
2025-08-15T02:17:17.715Z,5,GR86-036-98,-27.6,0.251,-1.022,46.37,2.0,,0.0,0.0,
2025-08-15T02:17:17.759Z,5,GR86-036-98,-27.5,0.359,-1.051,75.62,2.0,5784.0,0.0,0.0,
2025-08-15T02:17:17.802Z,5,GR86-036-98,-27.5,0.258,-1.049,99.61,2.0,,0.0,0.0,97.4
2025-08-15T02:17:17.845Z,5,GR86-036-98,-27.5,0.034,-1.082,100.05,2.0,,0.0,0.0,
2025-08-15T02:17:17.889Z,5,GR86-036-98,-26.1,0.049,-1.024,100.03,2.0,,0.0,0.0,
2025-08-15T02:17:17.932Z,5,GR86-036-98,-22.3,0.26,-1.22,100.03,2.0,,0.0,0.0,
2025-08-15T02:17:17.975Z,5,GR86-036-98,-22.1,0.551,-1.229,100.03,2.0,6003.0,0.0,0.0,
2025-08-15T02:17:18.020Z,5,GR86-036-98,-24.9,0.356,-1.117,100.02,2.0,,0.0,0.0,97.44
2025-08-15T02:17:18.063Z,5,GR86-036-98,-32.5,0.535,-1.182,100.03,2.0,,0.0,0.0,
2025-08-15T02:17:18.106Z,5,GR86-036-98,-34.6,0.215,-1.021,100.03,2.0,,0.0,0.0,
2025-08-15T02:17:18.149Z,5,GR86-036-98,-34.6,-0.058,-1.076,100.02,2.0,,0.0,0.0,
2025-08-15T02:17:18.192Z,5,GR86-036-98,-29.200000000000003,-0.128,-1.088,100.03,2.0,6020.0,0.0,0.0,
2025-08-15T02:17:18.235Z,5,GR86-036-98,-26.3,0.285,-1.138,100.03,2.0,,0.0,0.0,97.8
2025-08-15T02:17:18.279Z,5,GR86-036-98,-31.200000000000003,0.104,-1.015,100.03,2.0,,0.0,0.0,
2025-08-15T02:17:18.322Z,5,GR86-036-98,-37.3,0.352,-0.983,100.03,2.0,,0.0,0.0,
2025-08-15T02:17:18.365Z,5,GR86-036-98,-40.900000000000006,0.363,-0.951,100.03,2.0,,0.0,0.0,
2025-08-15T02:17:18.409Z,5,GR86-036-98,-50.2,0.414,-1.071,100.02,2.0,6243.0,0.0,0.0,
2025-08-15T02:17:18.452Z,5,GR86-036-98,-62.0,0.367,-1.145,100.02,2.0,,0.0,0.0,98.71
2025-08-15T02:17:18.495Z,5,GR86-036-98,-66.5,0.125,-1.297,100.03,2.0,,0.0,0.0,
2025-08-15T02:17:18.539Z,5,GR86-036-98,-67.9,0.34,-1.126,100.03,2.0,,0.0,0.0,
2025-08-15T02:17:18.582Z,5,GR86-036-98,-63.0,0.3,-1.271,100.03,2.0,,0.0,0.0,
2025-08-15T02:17:18.625Z,5,GR86-036-98,-53.7,0.229,-0.943,100.03,2.0,6289.0,0.0,0.0,
2025-08-15T02:17:18.671Z,5,GR86-036-98,-42.400000000000006,0.216,-0.974,100.03,2.0,,0.0,0.0,102.5
2025-08-15T02:17:18.713Z,5,GR86-036-98,-39.7,0.332,-1.048,100.03,2.0,,0.0,0.0,
2025-08-15T02:17:18.756Z,5,GR86-036-98,-39.7,0.265,-0.959,100.02,2.0,,0.0,0.0,
2025-08-15T02:17:18.799Z,5,GR86-036-98,-43.0,0.215,-1.046,100.01,2.0,,0.0,0.0,
2025-08-15T02:17:18.842Z,5,GR86-036-98,-45.1,0.207,-1.084,100.01,2.0,6098.0,0.0,0.0,
2025-08-15T02:17:18.885Z,5,GR86-036-98,-45.2,0.228,-1.087,100.01,2.0,,0.0,0.0,103.77
2025-08-15T02:17:18.930Z,5,GR86-036-98,-45.900000000000006,0.237,-1.115,100.03,2.0,,0.0,0.0,
2025-08-15T02:17:18.972Z,5,GR86-036-98,-50.900000000000006,0.259,-1.103,100.03,2.0,,0.0,0.0,
2025-08-15T02:17:19.015Z,5,GR86-036-98,-57.3,0.246,-0.96,100.03,2.0,,0.0,0.0,
2025-08-15T02:17:19.059Z,5,GR86-036-98,-66.10000000000001,0.211,-0.995,100.01,2.0,6158.0,0.0,0.0,
2025-08-15T02:17:19.102Z,5,GR86-036-98,-68.9,0.188,-1.001,100.01,2.0,,0.0,0.0,105.4
2025-08-15T02:17:19.145Z,5,GR86-036-98,-68.9,0.155,-1.014,100.03,2.0,,0.0,0.0,
2025-08-15T02:17:19.189Z,5,GR86-036-98,-67.5,0.198,-1.075,100.01,2.0,,0.0,0.0,
2025-08-15T02:17:19.231Z,5,GR86-036-98,-60.8,0.218,-0.992,100.02,2.0,,0.0,0.0,
2025-08-15T02:17:19.274Z,5,GR86-036-98,-54.0,0.219,-1.044,100.01,2.0,6325.0,0.0,0.0,
2025-08-15T02:17:19.319Z,5,GR86-036-98,-49.3,0.222,-1.066,100.03,2.0,,0.0,0.0,106.79
2025-08-15T02:17:19.362Z,5,GR86-036-98,-49.3,0.226,-1.08,100.03,2.0,,0.0,0.0,
2025-08-15T02:17:19.405Z,5,GR86-036-98,-49.3,0.204,-1.094,100.03,2.0,,0.0,0.0,
2025-08-15T02:17:19.449Z,5,GR86-036-98,-49.3,0.218,-1.154,100.04,2.0,,0.0,0.0,
2025-08-15T02:17:19.492Z,5,GR86-036-98,-42.900000000000006,0.206,-1.152,100.01,2.0,6446.0,0.0,0.0,
2025-08-15T02:17:19.535Z,5,GR86-036-98,-34.0,0.204,-1.144,100.03,2.0,,0.0,0.0,109.58
2025-08-15T02:17:19.580Z,5,GR86-036-98,-15.9,0.266,-1.019,100.02,2.0,,0.0,0.0,
2025-08-15T02:17:19.622Z,5,GR86-036-98,-10.0,0.271,-0.948,100.03,2.0,,0.0,0.0,
2025-08-15T02:17:19.665Z,5,GR86-036-98,-7.5,0.253,-0.914,100.03,2.0,,0.0,0.0,
2025-08-15T02:17:19.709Z,5,GR86-036-98,-6.7,0.274,-0.865,100.02,2.0,6535.0,0.0,0.0,
2025-08-15T02:17:19.752Z,5,GR86-036-98,-7.7,0.288,-0.852,100.02,2.0,,0.0,0.0,111.05
2025-08-15T02:17:19.795Z,5,GR86-036-98,-18.2,0.272,-0.8290000000000001,100.03,2.0,,0.0,0.0,
2025-08-15T02:17:19.839Z,5,GR86-036-98,-29.0,0.28,-0.789,100.04,2.0,,0.0,0.0,
2025-08-15T02:17:19.882Z,5,GR86-036-98,-29.200000000000003,0.253,-0.764,100.04,2.0,,0.0,0.0,
2025-08-15T02:17:19.925Z,5,GR86-036-98,-28.1,0.221,-0.6950000000000001,100.01,2.0,6552.0,0.0,0.0,
2025-08-15T02:17:19.970Z,5,GR86-036-98,-23.5,0.247,-0.5710000000000001,100.01,2.0,,0.0,0.0,111.71
2025-08-15T02:17:20.013Z,5,GR86-036-98,-23.3,0.258,-0.529,100.03,2.0,,0.0,0.0,
2025-08-15T02:17:20.056Z,5,GR86-036-98,-25.6,0.254,-0.498,100.03,2.0,,0.0,0.0,
2025-08-15T02:17:20.099Z,5,GR86-036-98,-35.2,0.241,-0.5630000000000001,100.0,2.0,,0.0,0.0,
2025-08-15T02:17:20.142Z,5,GR86-036-98,-40.900000000000006,0.237,-0.632,100.02,2.0,6636.0,0.0,0.0,
2025-08-15T02:17:20.185Z,5,GR86-036-98,-41.1,0.231,-0.6970000000000001,100.03,2.0,,0.0,0.0,113.59
2025-08-15T02:17:20.229Z,5,GR86-036-98,-39.400000000000006,0.216,-0.714,100.03,2.0,,0.0,0.0,
2025-08-15T02:17:20.314Z,5,GR86-036-98,-29.3,0.237,-0.6980000000000001,100.01,2.0,,0.0,0.0,
2025-08-15T02:17:20.359Z,5,GR86-036-98,-25.1,0.254,-0.68,100.03,2.0,6741.0,0.0,0.0,
2025-08-15T02:17:20.402Z,5,GR86-036-98,-26.200000000000003,0.246,-0.661,100.01,2.0,,0.0,0.0,115.55
2025-08-15T02:17:20.445Z,5,GR86-036-98,-26.4,0.243,-0.6920000000000001,100.01,2.0,,0.0,0.0,
2025-08-15T02:17:20.489Z,5,GR86-036-98,-19.3,0.248,-0.669,100.03,2.0,,0.0,0.0,
2025-08-15T02:17:20.575Z,5,GR86-036-98,-16.6,0.27,-0.55,100.04,2.0,6859.0,0.0,0.0,
2025-08-15T02:17:20.620Z,5,GR86-036-98,-24.4,0.266,-0.522,100.02,2.0,,0.0,0.0,117.28
2025-08-15T02:17:20.662Z,5,GR86-036-98,-27.1,0.243,-0.54,100.01,2.0,,0.0,0.0,
2025-08-15T02:17:20.705Z,5,GR86-036-98,-27.5,0.223,-0.526,100.0,2.0,,0.0,0.0,
2025-08-15T02:17:20.749Z,5,GR86-036-98,-26.4,0.231,-0.547,100.03,2.0,,0.0,0.0,
2025-08-15T02:17:20.792Z,5,GR86-036-98,-18.7,0.245,-0.504,100.0,2.0,6929.0,0.0,0.0,
2025-08-15T02:17:20.835Z,5,GR86-036-98,-13.5,0.238,-0.451,100.01,2.0,,0.0,0.0,119.16
2025-08-15T02:17:20.880Z,5,GR86-036-98,-5.800000000000001,0.246,-0.379,100.04,2.0,,0.0,0.0,
2025-08-15T02:17:20.923Z,5,GR86-036-98,-4.5,0.258,-0.337,100.02,2.0,,0.0,0.0,
2025-08-15T02:17:20.966Z,5,GR86-036-98,-4.2,0.26,-0.31,100.03,2.0,,0.0,0.0,
2025-08-15T02:17:21.009Z,5,GR86-036-98,-4.2,0.259,-0.24,99.99,2.0,7054.0,0.0,0.0,
2025-08-15T02:17:21.052Z,5,GR86-036-98,-4.1000000000000005,0.214,-0.209,100.03,2.0,,0.0,0.0,120.89
2025-08-15T02:17:21.095Z,5,GR86-036-98,-4.1000000000000005,-0.103,-0.094,99.99,3.0,,0.0,0.0,
2025-08-15T02:17:21.139Z,5,GR86-036-98,-2.7,0.495,-0.006,100.03,3.0,,0.0,0.0,
2025-08-15T02:17:21.182Z,5,GR86-036-98,-2.3000000000000003,0.251,-0.015,100.03,3.0,,0.0,0.0,
2025-08-15T02:17:21.225Z,5,GR86-036-98,-2.3000000000000003,0.444,0.08,100.02,3.0,7072.0,0.0,0.0,
2025-08-15T02:17:21.271Z,5,GR86-036-98,-2.3000000000000003,0.301,0.088,100.01,3.0,,0.0,0.0,124.2
2025-08-15T02:17:21.313Z,5,GR86-036-98,-2.3000000000000003,0.149,0.002,100.01,3.0,,0.0,0.0,
2025-08-15T02:17:21.356Z,5,GR86-036-98,-2.3000000000000003,0.113,0.067,100.0,3.0,,0.0,0.0,
2025-08-15T02:17:21.399Z,5,GR86-036-98,-2.3000000000000003,0.243,-0.023,100.01,3.0,,0.0,0.0,
2025-08-15T02:17:21.442Z,5,GR86-036-98,-2.3000000000000003,0.277,-0.01,100.01,3.0,5967.0,0.0,0.0,
2025-08-15T02:17:21.485Z,5,GR86-036-98,-2.3000000000000003,0.209,0.029,100.03,3.0,,0.0,0.0,126.19
2025-08-15T02:17:21.530Z,5,GR86-036-98,-2.3000000000000003,0.181,-0.007,100.0,3.0,,0.0,0.0,
2025-08-15T02:17:21.572Z,5,GR86-036-98,-2.3000000000000003,0.201,-0.003,100.01,3.0,,0.0,0.0,
2025-08-15T02:17:21.615Z,5,GR86-036-98,-2.3000000000000003,0.223,0.01,100.0,3.0,,0.0,0.0,
2025-08-15T02:17:21.702Z,5,GR86-036-98,-2.3000000000000003,0.214,-0.029,100.03,3.0,6013.0,0.0,0.0,127.72
2025-08-15T02:17:21.745Z,5,GR86-036-98,-2.3000000000000003,0.196,-0.032,100.02,3.0,,0.0,0.0,
2025-08-15T02:17:21.789Z,5,GR86-036-98,-2.3000000000000003,0.217,-0.04,100.02,3.0,,0.0,0.0,
2025-08-15T02:17:21.832Z,5,GR86-036-98,-2.3000000000000003,0.212,-0.012,100.02,3.0,,0.0,0.0,
2025-08-15T02:17:21.875Z,5,GR86-036-98,-2.3000000000000003,0.215,-0.036,100.01,3.0,6073.0,0.0,0.0,
2025-08-15T02:17:21.920Z,5,GR86-036-98,-2.3000000000000003,0.216,-0.033,100.03,3.0,,0.0,0.0,129.38
2025-08-15T02:17:21.963Z,5,GR86-036-98,-2.7,0.207,-0.048,100.03,3.0,,0.0,0.0,
2025-08-15T02:17:22.006Z,5,GR86-036-98,-3.6,0.208,-0.063,100.03,3.0,,0.0,0.0,
2025-08-15T02:17:22.049Z,5,GR86-036-98,-3.7,0.207,-0.064,100.02,3.0,,0.0,0.0,
2025-08-15T02:17:22.092Z,5,GR86-036-98,-3.7,0.217,-0.103,100.03,3.0,6140.0,0.0,0.0,
2025-08-15T02:17:22.135Z,5,GR86-036-98,-3.7,0.211,-0.123,100.02,3.0,,0.0,0.0,130.84
2025-08-15T02:17:22.179Z,5,GR86-036-98,-3.7,0.217,-0.114,100.02,3.0,,0.0,0.0,
2025-08-15T02:17:22.222Z,5,GR86-036-98,-3.7,0.21,-0.114,100.0,3.0,,0.0,0.0,
2025-08-15T02:17:22.265Z,5,GR86-036-98,-3.7,0.207,-0.096,100.02,3.0,,0.0,0.0,
2025-08-15T02:17:22.309Z,5,GR86-036-98,-3.7,0.212,-0.102,100.03,3.0,6212.0,0.0,0.0,
2025-08-15T02:17:22.352Z,5,GR86-036-98,-3.7,0.211,-0.101,100.01,3.0,,0.0,0.0,132.39
2025-08-15T02:17:22.395Z,5,GR86-036-98,-3.7,0.207,-0.076,100.02,3.0,,0.0,0.0,
2025-08-15T02:17:22.440Z,5,GR86-036-98,-3.7,0.192,-0.074,100.01,3.0,,0.0,0.0,
2025-08-15T02:17:22.482Z,5,GR86-036-98,-3.7,0.199,-0.08,100.01,3.0,,0.0,0.0,
2025-08-15T02:17:22.525Z,5,GR86-036-98,-3.7,0.229,-0.091,100.03,3.0,6278.0,0.0,0.0,
2025-08-15T02:17:22.571Z,5,GR86-036-98,-3.7,0.233,-0.092,100.02,3.0,,0.0,0.0,133.91
2025-08-15T02:17:22.614Z,5,GR86-036-98,-3.7,0.191,-0.077,100.0,3.0,,0.0,0.0,
2025-08-15T02:17:22.660Z,5,GR86-036-98,-2.0,0.192,-0.064,100.02,3.0,,0.0,0.0,
2025-08-15T02:17:22.702Z,5,GR86-036-98,-0.8,0.206,-0.036,100.0,3.0,,0.0,0.0,
2025-08-15T02:17:22.745Z,5,GR86-036-98,0.2,0.224,0.022,100.01,3.0,6345.0,0.0,0.0,
2025-08-15T02:17:22.789Z,5,GR86-036-98,0.6000000000000001,0.234,0.019,100.01,3.0,,0.0,0.0,135.39
2025-08-15T02:17:22.831Z,5,GR86-036-98,0.6000000000000001,0.2,0.049,100.04,3.0,,0.0,0.0,
2025-08-15T02:17:22.874Z,5,GR86-036-98,0.6000000000000001,0.191,0.071,100.03,3.0,,0.0,0.0,
2025-08-15T02:17:22.919Z,5,GR86-036-98,0.6000000000000001,0.184,0.057,100.0,3.0,,0.0,0.0,
2025-08-15T02:17:22.962Z,5,GR86-036-98,0.6000000000000001,0.197,0.08,100.01,3.0,6422.0,0.0,0.0,
2025-08-15T02:17:23.005Z,5,GR86-036-98,0.6000000000000001,0.224,0.093,100.03,3.0,,0.0,0.0,136.81
2025-08-15T02:17:23.049Z,5,GR86-036-98,0.6000000000000001,0.234,0.067,100.0,3.0,,0.0,0.0,
2025-08-15T02:17:23.092Z,5,GR86-036-98,0.6000000000000001,0.202,0.068,100.03,3.0,,0.0,0.0,
2025-08-15T02:17:23.135Z,5,GR86-036-98,0.6000000000000001,0.188,0.077,100.01,3.0,,0.0,0.0,
2025-08-15T02:17:23.180Z,5,GR86-036-98,0.6000000000000001,0.195,0.052,100.01,3.0,6502.0,0.0,0.0,
2025-08-15T02:17:23.222Z,5,GR86-036-98,0.6000000000000001,0.198,0.092,100.02,3.0,,0.0,0.0,138.26
2025-08-15T02:17:23.265Z,5,GR86-036-98,0.6000000000000001,0.243,0.074,100.01,3.0,,0.0,0.0,
2025-08-15T02:17:23.309Z,5,GR86-036-98,0.6000000000000001,0.227,0.058,100.03,3.0,,0.0,0.0,
2025-08-15T02:17:23.352Z,5,GR86-036-98,0.6000000000000001,0.189,0.049,99.99,3.0,,0.0,0.0,
2025-08-15T02:17:23.395Z,5,GR86-036-98,0.6000000000000001,0.177,0.058,100.02,3.0,6559.0,0.0,0.0,
2025-08-15T02:17:23.440Z,5,GR86-036-98,0.6000000000000001,0.193,0.044,100.01,3.0,,0.0,0.0,139.74
2025-08-15T02:17:23.482Z,5,GR86-036-98,0.5,0.196,0.047,100.03,3.0,,0.0,0.0,
2025-08-15T02:17:23.525Z,5,GR86-036-98,0.5,0.238,0.034,100.02,3.0,,0.0,0.0,
2025-08-15T02:17:23.571Z,5,GR86-036-98,0.5,0.235,0.005,100.02,3.0,,0.0,0.0,
2025-08-15T02:17:23.613Z,5,GR86-036-98,0.5,0.188,-0.004,100.01,3.0,6621.0,0.0,0.0,
2025-08-15T02:17:23.656Z,5,GR86-036-98,0.5,0.169,-0.017,100.01,3.0,,0.0,0.0,141.21
2025-08-15T02:17:23.699Z,5,GR86-036-98,0.4,0.213,-0.004,100.0,3.0,,0.0,0.0,
2025-08-15T02:17:23.742Z,5,GR86-036-98,0.4,0.185,-0.003,99.99,3.0,,0.0,0.0,
2025-08-15T02:17:23.785Z,5,GR86-036-98,0.4,0.199,0.012,100.01,3.0,,0.0,0.0,
2025-08-15T02:17:23.829Z,5,GR86-036-98,0.2,0.23,0.015,100.01,3.0,6689.0,0.0,0.0,
2025-08-15T02:17:23.871Z,5,GR86-036-98,0.2,0.216,-0.002,100.0,3.0,,0.0,0.0,144.07
2025-08-15T02:17:23.914Z,5,GR86-036-98,0.1,0.19,-0.007,99.99,3.0,,0.0,0.0,
2025-08-15T02:17:23.959Z,5,GR86-036-98,0.1,0.218,-0.038,100.01,3.0,,0.0,0.0,
2025-08-15T02:17:24.002Z,5,GR86-036-98,0.0,0.186,-0.036,100.0,3.0,,0.0,0.0,
2025-08-15T02:17:24.045Z,5,GR86-036-98,0.0,0.167,-0.014,100.01,3.0,6752.0,0.0,0.0,
2025-08-15T02:17:24.089Z,5,GR86-036-98,0.0,0.207,-0.011,100.0,3.0,,0.0,0.0,145.42000000000002
2025-08-15T02:17:24.131Z,5,GR86-036-98,0.0,0.237,-0.007,100.01,3.0,,0.0,0.0,
2025-08-15T02:17:24.175Z,5,GR86-036-98,0.0,0.211,-0.018,100.0,3.0,,0.0,0.0,
2025-08-15T02:17:24.220Z,5,GR86-036-98,-0.1,0.211,-0.023,100.0,3.0,,0.0,0.0,
2025-08-15T02:17:24.262Z,5,GR86-036-98,-1.0,0.219,-0.029,100.01,3.0,6874.0,0.0,0.0,
2025-08-15T02:17:24.305Z,5,GR86-036-98,-2.7,0.189,-0.037,100.02,3.0,,0.0,0.0,146.79
2025-08-15T02:17:24.349Z,5,GR86-036-98,-3.3000000000000003,0.172,-0.073,100.02,3.0,,0.0,0.0,
2025-08-15T02:17:24.392Z,5,GR86-036-98,-3.3000000000000003,0.193,-0.092,100.0,3.0,,0.0,0.0,
2025-08-15T02:17:24.435Z,5,GR86-036-98,-3.3000000000000003,0.206,-0.094,99.99,3.0,,0.0,0.0,
2025-08-15T02:17:24.480Z,5,GR86-036-98,-3.5,0.186,-0.094,100.02,3.0,6933.0,0.0,0.0,
2025-08-15T02:17:24.523Z,5,GR86-036-98,-3.6,0.21,-0.108,100.02,3.0,,0.0,0.0,148.14
2025-08-15T02:17:24.566Z,5,GR86-036-98,-3.6,0.223,-0.129,100.02,3.0,,0.0,0.0,
2025-08-15T02:17:24.609Z,5,GR86-036-98,-3.7,0.205,-0.114,100.0,3.0,,0.0,0.0,
2025-08-15T02:17:24.652Z,5,GR86-036-98,-3.7,0.187,-0.105,100.02,3.0,,0.0,0.0,
2025-08-15T02:17:24.695Z,5,GR86-036-98,-3.7,0.184,-0.069,100.02,3.0,7000.0,0.0,0.0,
2025-08-15T02:17:24.739Z,5,GR86-036-98,-3.7,0.207,-0.084,100.01,3.0,,0.0,0.0,149.46
2025-08-15T02:17:24.782Z,5,GR86-036-98,-3.8,0.182,-0.059,99.99,3.0,,0.0,0.0,
2025-08-15T02:17:24.825Z,5,GR86-036-98,-3.8,0.186,-0.041,100.01,3.0,,0.0,0.0,
2025-08-15T02:17:24.913Z,5,GR86-036-98,-3.9,0.207,-0.04,100.02,3.0,7066.0,0.0,0.0,
2025-08-15T02:17:24.956Z,5,GR86-036-98,-3.9,0.204,-0.054,100.0,3.0,,0.0,0.0,150.76
2025-08-15T02:17:24.999Z,5,GR86-036-98,-3.9,0.206,-0.074,99.99,3.0,,0.0,0.0,
2025-08-15T02:17:25.042Z,5,GR86-036-98,-4.0,0.215,-0.083,100.02,3.0,,0.0,0.0,
2025-08-15T02:17:25.085Z,5,GR86-036-98,-4.0,0.212,-0.092,100.02,3.0,,0.0,0.0,
2025-08-15T02:17:25.172Z,5,GR86-036-98,-4.0,0.198,-0.083,100.0,3.0,7137.0,0.0,0.0,152.16
2025-08-15T02:17:25.215Z,5,GR86-036-98,-4.0,0.198,-0.075,99.97,3.0,,0.0,0.0,
2025-08-15T02:17:25.260Z,5,GR86-036-98,-4.0,0.193,-0.08,100.0,3.0,,0.0,0.0,
2025-08-15T02:17:25.302Z,5,GR86-036-98,-4.0,0.204,-0.071,99.97,3.0,,0.0,0.0,
2025-08-15T02:17:25.345Z,5,GR86-036-98,-4.1000000000000005,0.198,-0.062,100.0,3.0,7200.0,0.0,0.0,
2025-08-15T02:17:25.389Z,5,GR86-036-98,-4.1000000000000005,0.203,-0.049,100.02,3.0,,0.0,0.0,153.48
2025-08-15T02:17:25.431Z,5,GR86-036-98,-4.0,0.152,-0.044,100.0,3.0,,0.0,0.0,
2025-08-15T02:17:25.474Z,5,GR86-036-98,-4.1000000000000005,-0.118,0.003,100.0,4.0,,0.0,0.0,
2025-08-15T02:17:25.520Z,5,GR86-036-98,-4.1000000000000005,0.499,-0.025,100.0,4.0,,0.0,0.0,
2025-08-15T02:17:25.562Z,5,GR86-036-98,-4.1000000000000005,0.265,-0.08,100.01,4.0,7020.0,0.0,0.0,
2025-08-15T02:17:25.605Z,5,GR86-036-98,-4.0,0.25,0.013,100.01,4.0,,0.0,0.0,154.83
2025-08-15T02:17:25.649Z,5,GR86-036-98,-4.0,0.047,-0.044,100.02,4.0,,0.0,0.0,
2025-08-15T02:17:25.692Z,5,GR86-036-98,-4.0,0.145,-0.094,100.0,4.0,,0.0,0.0,
2025-08-15T02:17:25.735Z,5,GR86-036-98,-4.0,0.206,0.017,100.0,4.0,,0.0,0.0,
2025-08-15T02:17:25.779Z,5,GR86-036-98,-4.0,0.147,-0.08,100.0,4.0,6052.0,0.0,0.0,
2025-08-15T02:17:25.822Z,5,GR86-036-98,-4.0,0.129,-0.042,100.0,4.0,,0.0,0.0,155.98
2025-08-15T02:17:25.865Z,5,GR86-036-98,-4.0,0.169,-0.029,100.0,4.0,,0.0,0.0,
2025-08-15T02:17:25.909Z,5,GR86-036-98,-4.0,0.194,-0.054,100.0,4.0,,0.0,0.0,
2025-08-15T02:17:25.952Z,5,GR86-036-98,-4.0,0.184,-0.039,100.0,4.0,,0.0,0.0,
2025-08-15T02:17:25.995Z,5,GR86-036-98,-4.0,0.178,-0.067,100.0,4.0,6192.0,0.0,0.0,
2025-08-15T02:17:26.039Z,5,GR86-036-98,-4.0,0.181,-0.079,100.0,4.0,,0.0,0.0,157.35
2025-08-15T02:17:26.082Z,5,GR86-036-98,-4.0,0.191,-0.071,100.0,4.0,,0.0,0.0,
2025-08-15T02:17:26.125Z,5,GR86-036-98,-4.0,0.186,-0.099,100.0,4.0,,0.0,0.0,
2025-08-15T02:17:26.171Z,5,GR86-036-98,-4.0,0.174,-0.117,100.02,4.0,,0.0,0.0,
2025-08-15T02:17:26.213Z,5,GR86-036-98,-4.0,0.158,-0.113,100.01,4.0,6241.0,0.0,0.0,
2025-08-15T02:17:26.256Z,5,GR86-036-98,-4.0,0.16,-0.107,100.0,4.0,,0.0,0.0,158.55
2025-08-15T02:17:26.299Z,5,GR86-036-98,-4.0,0.18,-0.095,99.99,4.0,,0.0,0.0,
2025-08-15T02:17:26.342Z,5,GR86-036-98,-4.0,0.163,-0.105,100.0,4.0,,0.0,0.0,
2025-08-15T02:17:26.385Z,5,GR86-036-98,-4.0,0.15,-0.104,99.99,4.0,,0.0,0.0,
2025-08-15T02:17:26.430Z,5,GR86-036-98,-4.0,0.145,-0.09,100.01,4.0,6286.0,0.0,0.0,
2025-08-15T02:17:26.472Z,5,GR86-036-98,-4.0,0.156,-0.069,100.0,4.0,,0.0,0.0,160.84
2025-08-15T02:17:26.515Z,5,GR86-036-98,-4.0,0.155,-0.069,100.01,4.0,,0.0,0.0,
2025-08-15T02:17:26.560Z,5,GR86-036-98,-4.0,0.14,-0.072,100.0,4.0,,0.0,0.0,
2025-08-15T02:17:26.602Z,5,GR86-036-98,-4.0,0.152,-0.083,100.01,4.0,,0.0,0.0,
2025-08-15T02:17:26.645Z,5,GR86-036-98,-4.0,0.136,-0.074,99.99,4.0,6329.0,0.0,0.0,
2025-08-15T02:17:26.689Z,5,GR86-036-98,-4.0,0.159,-0.073,100.0,4.0,,0.0,0.0,161.96
2025-08-15T02:17:26.731Z,5,GR86-036-98,-4.0,0.163,-0.074,99.99,4.0,,0.0,0.0,
2025-08-15T02:17:26.774Z,5,GR86-036-98,-4.0,0.189,-0.075,100.0,4.0,,0.0,0.0,
2025-08-15T02:17:26.819Z,5,GR86-036-98,-4.0,0.146,-0.097,100.01,4.0,,0.0,0.0,
2025-08-15T02:17:26.862Z,5,GR86-036-98,-4.0,0.149,-0.123,100.0,4.0,6419.0,0.0,0.0,
2025-08-15T02:17:26.905Z,5,GR86-036-98,-4.6000000000000005,0.158,-0.132,99.99,4.0,,0.0,0.0,163.02
2025-08-15T02:17:26.949Z,5,GR86-036-98,-5.0,0.167,-0.16,100.0,4.0,,0.0,0.0,
2025-08-15T02:17:26.992Z,5,GR86-036-98,-5.0,0.191,-0.182,99.99,4.0,,0.0,0.0,
2025-08-15T02:17:27.035Z,5,GR86-036-98,-5.0,0.175,-0.189,100.0,4.0,,0.0,0.0,
2025-08-15T02:17:27.080Z,5,GR86-036-98,-5.0,0.148,-0.197,100.01,4.0,6460.0,0.0,0.0,
2025-08-15T02:17:27.122Z,5,GR86-036-98,-5.0,0.166,-0.168,100.01,4.0,,0.0,0.0,164.18
2025-08-15T02:17:27.165Z,5,GR86-036-98,-5.0,0.163,-0.15,99.99,4.0,,0.0,0.0,
2025-08-15T02:17:27.209Z,5,GR86-036-98,-5.0,0.193,-0.178,100.0,4.0,,0.0,0.0,
2025-08-15T02:17:27.251Z,5,GR86-036-98,-5.1000000000000005,0.176,-0.182,100.0,4.0,,0.0,0.0,
2025-08-15T02:17:27.294Z,5,GR86-036-98,-5.2,0.177,-0.207,99.99,4.0,6512.0,0.0,0.0,
2025-08-15T02:17:27.339Z,5,GR86-036-98,-5.2,0.157,-0.195,100.0,4.0,,0.0,0.0,165.3
2025-08-15T02:17:27.382Z,5,GR86-036-98,-5.2,0.159,-0.23,100.0,4.0,,0.0,0.0,
2025-08-15T02:17:27.425Z,5,GR86-036-98,-5.2,0.186,-0.225,100.0,4.0,,0.0,0.0,
2025-08-15T02:17:27.471Z,5,GR86-036-98,-5.2,0.175,-0.213,100.0,4.0,,0.0,0.0,
2025-08-15T02:17:27.513Z,5,GR86-036-98,-5.2,0.182,-0.219,100.0,4.0,6557.0,0.0,0.0,
2025-08-15T02:17:27.556Z,5,GR86-036-98,-5.2,0.174,-0.205,100.0,4.0,,0.0,0.0,166.46
2025-08-15T02:17:27.599Z,5,GR86-036-98,-5.2,0.16,-0.181,99.99,4.0,,0.0,0.0,
2025-08-15T02:17:27.642Z,5,GR86-036-98,-5.2,0.169,-0.192,99.99,4.0,,0.0,0.0,
2025-08-15T02:17:27.685Z,5,GR86-036-98,-5.2,0.176,-0.171,100.0,4.0,,0.0,0.0,
2025-08-15T02:17:27.729Z,5,GR86-036-98,-5.2,0.194,-0.175,100.0,4.0,6601.0,0.0,0.0,
2025-08-15T02:17:27.771Z,5,GR86-036-98,-5.2,0.166,-0.18,100.0,4.0,,0.0,0.0,167.59
2025-08-15T02:17:27.814Z,5,GR86-036-98,-5.300000000000001,0.187,-0.167,99.99,4.0,,0.0,0.0,
2025-08-15T02:17:27.859Z,5,GR86-036-98,-5.300000000000001,0.161,-0.16,100.0,4.0,,0.0,0.0,
2025-08-15T02:17:27.902Z,5,GR86-036-98,-5.300000000000001,0.139,-0.19,100.0,4.0,,0.0,0.0,
2025-08-15T02:17:27.945Z,5,GR86-036-98,-5.300000000000001,0.149,-0.177,100.01,4.0,6652.0,0.0,0.0,
2025-08-15T02:17:27.989Z,5,GR86-036-98,-5.300000000000001,0.178,-0.177,99.99,4.0,,0.0,0.0,168.83
2025-08-15T02:17:28.031Z,5,GR86-036-98,-5.300000000000001,0.188,-0.178,100.0,4.0,,0.0,0.0,
2025-08-15T02:17:28.075Z,5,GR86-036-98,-5.300000000000001,0.172,-0.152,100.0,4.0,,0.0,0.0,
2025-08-15T02:17:28.120Z,5,GR86-036-98,-5.800000000000001,0.114,-0.181,100.0,4.0,,0.0,0.0,
2025-08-15T02:17:28.162Z,5,GR86-036-98,-5.800000000000001,0.133,-0.202,100.0,4.0,6686.0,0.0,0.0,
2025-08-15T02:17:28.205Z,5,GR86-036-98,-5.800000000000001,0.154,-0.175,100.01,4.0,,0.0,0.0,170.01
2025-08-15T02:17:28.249Z,5,GR86-036-98,-5.800000000000001,0.152,-0.195,100.0,4.0,,0.0,0.0,
2025-08-15T02:17:28.292Z,5,GR86-036-98,-5.800000000000001,0.166,-0.197,100.01,4.0,,0.0,0.0,
2025-08-15T02:17:28.335Z,5,GR86-036-98,-5.9,0.162,-0.211,100.01,4.0,,0.0,0.0,
2025-08-15T02:17:28.380Z,5,GR86-036-98,-6.0,0.117,-0.252,99.98,4.0,6734.0,0.0,0.0,
2025-08-15T02:17:28.423Z,5,GR86-036-98,-6.0,0.117,-0.216,100.0,4.0,,0.0,0.0,171.20000000000002
2025-08-15T02:17:28.466Z,5,GR86-036-98,-6.0,0.11,-0.2,100.0,4.0,,0.0,0.0,
2025-08-15T02:17:28.509Z,5,GR86-036-98,-6.0,0.129,-0.219,100.0,4.0,,0.0,0.0,
2025-08-15T02:17:28.552Z,5,GR86-036-98,-6.0,0.134,-0.225,100.0,4.0,,0.0,0.0,
2025-08-15T02:17:28.595Z,5,GR86-036-98,-6.1000000000000005,0.122,-0.211,100.01,4.0,6784.0,0.0,0.0,
2025-08-15T02:17:28.639Z,5,GR86-036-98,-6.1000000000000005,0.136,-0.21,99.99,4.0,,0.0,0.0,172.27
2025-08-15T02:17:28.682Z,5,GR86-036-98,-6.1000000000000005,0.13,-0.19,100.0,4.0,,0.0,0.0,
2025-08-15T02:17:28.725Z,5,GR86-036-98,-6.2,0.113,-0.205,100.0,4.0,,0.0,0.0,
2025-08-15T02:17:28.771Z,5,GR86-036-98,-6.2,0.139,-0.168,100.0,4.0,,0.0,0.0,
2025-08-15T02:17:28.813Z,5,GR86-036-98,-6.2,0.103,-0.169,100.0,4.0,6834.0,0.0,0.0,
2025-08-15T02:17:28.856Z,5,GR86-036-98,-6.2,0.136,-0.178,100.0,4.0,,0.0,0.0,173.56
2025-08-15T02:17:28.899Z,5,GR86-036-98,-6.2,0.175,-0.19,100.0,4.0,,0.0,0.0,
2025-08-15T02:17:28.942Z,5,GR86-036-98,-6.2,0.159,-0.223,99.99,4.0,,0.0,0.0,
2025-08-15T02:17:28.985Z,5,GR86-036-98,-6.2,0.16,-0.189,100.0,4.0,,0.0,0.0,
2025-08-15T02:17:29.030Z,5,GR86-036-98,-5.1000000000000005,0.153,-0.197,100.0,4.0,6875.0,0.0,0.0,
2025-08-15T02:17:29.072Z,5,GR86-036-98,-3.8,0.166,-0.187,100.0,4.0,,0.0,0.0,175.81
2025-08-15T02:17:29.115Z,5,GR86-036-98,-3.6,0.145,-0.146,99.99,4.0,,0.0,0.0,
2025-08-15T02:17:29.159Z,5,GR86-036-98,-3.6,0.158,-0.108,100.0,4.0,,0.0,0.0,
2025-08-15T02:17:29.202Z,5,GR86-036-98,-3.6,0.138,-0.083,99.99,4.0,,0.0,0.0,
2025-08-15T02:17:29.245Z,5,GR86-036-98,-3.6,0.151,-0.087,100.0,4.0,6918.0,0.0,0.0,
2025-08-15T02:17:29.289Z,5,GR86-036-98,-3.6,0.15,-0.072,100.01,4.0,,0.0,0.0,176.84
2025-08-15T02:17:29.332Z,5,GR86-036-98,-3.6,0.155,-0.073,100.0,4.0,,0.0,0.0,
2025-08-15T02:17:29.375Z,5,GR86-036-98,-3.7,0.151,-0.095,100.0,4.0,,0.0,0.0,
2025-08-15T02:17:29.420Z,5,GR86-036-98,-3.7,0.147,-0.12,100.01,4.0,,0.0,0.0,
2025-08-15T02:17:29.463Z,5,GR86-036-98,-3.7,0.12,-0.101,100.0,4.0,6996.0,0.0,0.0,
2025-08-15T02:17:29.506Z,5,GR86-036-98,-3.8,0.148,-0.112,99.99,4.0,,0.0,0.0,177.92000000000002
2025-08-15T02:17:29.549Z,5,GR86-036-98,-3.8,0.125,-0.125,100.0,4.0,,0.0,0.0,
2025-08-15T02:17:29.592Z,5,GR86-036-98,-3.8,0.135,-0.119,100.0,4.0,,0.0,0.0,
2025-08-15T02:17:29.635Z,5,GR86-036-98,-3.8,0.136,-0.12,99.98,4.0,,0.0,0.0,
2025-08-15T02:17:29.679Z,5,GR86-036-98,-3.8,0.147,-0.123,99.98,4.0,7039.0,0.0,0.0,
2025-08-15T02:17:29.722Z,5,GR86-036-98,-3.8,0.16,-0.087,99.99,4.0,,0.0,0.0,179.18
2025-08-15T02:17:29.765Z,5,GR86-036-98,-3.9,0.137,-0.098,99.97,4.0,,0.0,0.0,
2025-08-15T02:17:29.809Z,5,GR86-036-98,-3.9,0.14,-0.087,100.0,4.0,,0.0,0.0,
2025-08-15T02:17:29.852Z,5,GR86-036-98,-3.9,0.139,-0.104,99.98,4.0,,0.0,0.0,
2025-08-15T02:17:29.895Z,5,GR86-036-98,-3.9,0.141,-0.132,100.01,4.0,7091.0,0.0,0.0,
2025-08-15T02:17:29.939Z,5,GR86-036-98,-4.1000000000000005,0.141,-0.136,99.98,4.0,,0.0,0.0,180.23
2025-08-15T02:17:29.982Z,5,GR86-036-98,-4.2,0.13,-0.173,99.98,4.0,,0.0,0.0,
2025-08-15T02:17:30.025Z,5,GR86-036-98,-4.2,0.127,-0.195,100.01,4.0,,0.0,0.0,
2025-08-15T02:17:30.071Z,5,GR86-036-98,-4.3,0.134,-0.221,99.99,4.0,,0.0,0.0,
2025-08-15T02:17:30.113Z,5,GR86-036-98,-4.3,0.131,-0.227,100.0,4.0,7128.0,0.0,0.0,
2025-08-15T02:17:30.156Z,5,GR86-036-98,-4.4,0.129,-0.201,100.01,4.0,,0.0,0.0,181.27
2025-08-15T02:17:30.199Z,5,GR86-036-98,-4.4,0.128,-0.201,100.0,4.0,,0.0,0.0,
2025-08-15T02:17:30.242Z,5,GR86-036-98,-4.4,0.138,-0.179,100.02,4.0,,0.0,0.0,
2025-08-15T02:17:30.285Z,5,GR86-036-98,-4.4,0.14,-0.167,100.02,4.0,,0.0,0.0,
2025-08-15T02:17:30.372Z,5,GR86-036-98,-4.5,0.131,-0.137,100.0,4.0,7171.0,0.0,0.0,182.32
2025-08-15T02:17:30.415Z,5,GR86-036-98,-4.4,0.137,-0.086,100.0,4.0,,0.0,0.0,
2025-08-15T02:17:30.460Z,5,GR86-036-98,-4.5,0.144,-0.11,99.96,4.0,,0.0,0.0,
2025-08-15T02:17:30.502Z,5,GR86-036-98,-4.5,0.138,-0.114,100.01,4.0,,0.0,0.0,
2025-08-15T02:17:30.545Z,5,GR86-036-98,-4.5,0.14,-0.136,100.01,4.0,7205.0,0.0,0.0,
2025-08-15T02:17:30.589Z,5,GR86-036-98,-4.5,0.138,-0.15,100.0,4.0,,0.0,0.0,183.39
2025-08-15T02:17:30.631Z,5,GR86-036-98,-4.5,0.142,-0.136,100.0,4.0,,0.0,0.0,
2025-08-15T02:17:30.674Z,5,GR86-036-98,-4.5,0.128,-0.138,100.0,4.0,,0.0,0.0,
2025-08-15T02:17:30.719Z,5,GR86-036-98,-4.5,0.038,-0.1,99.99,5.0,,0.0,0.0,
2025-08-15T02:17:30.762Z,5,GR86-036-98,-4.5,-0.133,-0.072,100.0,5.0,7247.0,0.0,0.0,
2025-08-15T02:17:30.805Z,5,GR86-036-98,-3.9,0.421,-0.055,100.01,5.0,,0.0,0.0,184.44
2025-08-15T02:17:30.849Z,5,GR86-036-98,-3.7,0.149,-0.144,99.99,5.0,,0.0,0.0,
2025-08-15T02:17:30.892Z,5,GR86-036-98,-3.7,0.071,-0.021,100.0,5.0,,0.0,0.0,
2025-08-15T02:17:30.935Z,5,GR86-036-98,-3.7,0.022,-0.042,100.0,5.0,,0.0,0.0,
2025-08-15T02:17:30.980Z,5,GR86-036-98,-3.7,0.144,-0.079,100.0,5.0,6375.0,0.0,0.0,
2025-08-15T02:17:31.065Z,5,GR86-036-98,-3.7,0.103,-0.038,100.0,5.0,,0.0,0.0,185.34
2025-08-15T02:17:31.151Z,5,GR86-036-98,-3.7,0.093,-0.112,100.0,5.0,,0.0,0.0,
2025-08-15T02:17:31.239Z,5,GR86-036-98,-3.7,0.078,-0.189,99.99,5.0,6308.0,0.0,0.0,186.33
2025-08-15T02:17:31.282Z,5,GR86-036-98,-3.7,0.124,-0.187,99.99,5.0,,0.0,0.0,
2025-08-15T02:17:31.325Z,5,GR86-036-98,-3.7,0.135,-0.189,100.0,5.0,,0.0,0.0,
2025-08-15T02:17:31.371Z,5,GR86-036-98,-3.7,0.097,-0.165,100.0,5.0,,0.0,0.0,
2025-08-15T02:17:31.414Z,5,GR86-036-98,-3.7,0.13,-0.172,100.0,5.0,6376.0,0.0,0.0,
2025-08-15T02:17:31.460Z,5,GR86-036-98,-3.7,0.119,-0.142,100.01,5.0,,0.0,0.0,188.11
2025-08-15T02:17:31.502Z,5,GR86-036-98,-3.7,0.105,-0.108,99.98,5.0,,0.0,0.0,
2025-08-15T02:17:31.545Z,5,GR86-036-98,-3.7,0.123,-0.105,100.01,5.0,,0.0,0.0,
2025-08-15T02:17:31.589Z,5,GR86-036-98,-3.7,0.116,-0.096,100.0,5.0,,0.0,0.0,
2025-08-15T02:17:31.631Z,5,GR86-036-98,-3.7,0.146,-0.058,99.99,5.0,6404.0,0.0,0.0,
2025-08-15T02:17:31.675Z,5,GR86-036-98,-3.7,0.132,-0.078,100.0,5.0,,0.0,0.0,188.95
2025-08-15T02:17:31.720Z,5,GR86-036-98,-3.7,0.097,-0.061,100.0,5.0,,0.0,0.0,
2025-08-15T02:17:31.762Z,5,GR86-036-98,-3.7,0.096,-0.074,100.0,5.0,,0.0,0.0,
2025-08-15T02:17:31.805Z,5,GR86-036-98,-3.7,0.088,-0.074,100.0,5.0,,0.0,0.0,
2025-08-15T02:17:31.849Z,5,GR86-036-98,-3.7,0.101,-0.067,100.0,5.0,6434.0,0.0,0.0,
2025-08-15T02:17:31.892Z,5,GR86-036-98,-3.7,0.112,-0.065,99.99,5.0,,0.0,0.0,189.78
2025-08-15T02:17:31.935Z,5,GR86-036-98,-3.7,0.112,-0.073,100.0,5.0,,0.0,0.0,
2025-08-15T02:17:31.980Z,5,GR86-036-98,-3.7,0.095,-0.049,100.01,5.0,,0.0,0.0,
2025-08-15T02:17:32.023Z,5,GR86-036-98,-3.6,0.079,-0.046,99.99,5.0,,0.0,0.0,
2025-08-15T02:17:32.066Z,5,GR86-036-98,-3.6,0.097,-0.03,100.0,5.0,6492.0,0.0,0.0,
2025-08-15T02:17:32.109Z,5,GR86-036-98,-3.6,0.095,0.006,100.01,5.0,,0.0,0.0,190.72
2025-08-15T02:17:32.152Z,5,GR86-036-98,-3.6,0.093,0.004,99.99,5.0,,0.0,0.0,
2025-08-15T02:17:32.195Z,5,GR86-036-98,-3.6,0.081,-0.007,100.01,5.0,,0.0,0.0,
2025-08-15T02:17:32.239Z,5,GR86-036-98,-3.6,0.12,0.007,100.0,5.0,,0.0,0.0,
2025-08-15T02:17:32.282Z,5,GR86-036-98,-3.6,0.118,0.002,100.0,5.0,6519.0,0.0,0.0,
2025-08-15T02:17:32.371Z,5,GR86-036-98,-3.6,0.117,-0.023,100.0,5.0,,0.0,0.0,191.67
2025-08-15T02:17:32.414Z,5,GR86-036-98,-3.6,0.108,-0.086,100.03,5.0,,0.0,0.0,
2025-08-15T02:17:32.459Z,5,GR86-036-98,-3.6,0.144,-0.12,99.99,5.0,,0.0,0.0,
2025-08-15T02:17:32.502Z,5,GR86-036-98,-3.6,0.117,-0.138,100.01,5.0,6547.0,0.0,0.0,
2025-08-15T02:17:32.545Z,5,GR86-036-98,-3.6,0.132,-0.161,100.0,5.0,,0.0,0.0,192.47
2025-08-15T02:17:32.589Z,5,GR86-036-98,-3.6,0.115,-0.142,100.0,5.0,,0.0,0.0,
2025-08-15T02:17:32.632Z,5,GR86-036-98,-3.6,0.104,-0.142,100.0,5.0,,0.0,0.0,
2025-08-15T02:17:32.675Z,5,GR86-036-98,-3.6,0.099,-0.143,99.99,5.0,,0.0,0.0,
2025-08-15T02:17:32.720Z,5,GR86-036-98,-3.6,0.14,-0.131,99.98,5.0,6584.0,0.0,0.0,
2025-08-15T02:17:32.762Z,5,GR86-036-98,-3.6,0.135,-0.129,100.01,5.0,,0.0,0.0,193.4
2025-08-15T02:17:32.805Z,5,GR86-036-98,-3.6,0.124,-0.127,100.0,5.0,,0.0,0.0,
2025-08-15T02:17:32.849Z,5,GR86-036-98,-3.6,0.118,-0.126,100.01,5.0,,0.0,0.0,
2025-08-15T02:17:32.892Z,5,GR86-036-98,-3.6,0.108,-0.108,100.0,5.0,,0.0,0.0,
2025-08-15T02:17:32.935Z,5,GR86-036-98,-3.6,0.103,-0.1,99.99,5.0,6614.0,0.0,0.0,
2025-08-15T02:17:32.979Z,5,GR86-036-98,-3.6,0.141,-0.076,100.0,5.0,,0.0,0.0,194.28
2025-08-15T02:17:33.022Z,5,GR86-036-98,-3.6,0.135,-0.069,100.01,5.0,,0.0,0.0,
2025-08-15T02:17:33.065Z,5,GR86-036-98,-3.6,0.151,-0.031,99.99,5.0,,0.0,0.0,
2025-08-15T02:17:33.109Z,5,GR86-036-98,-3.6,0.111,-0.027,99.99,5.0,,0.0,0.0,
2025-08-15T02:17:33.152Z,5,GR86-036-98,-3.6,0.109,-0.043,99.99,5.0,6640.0,0.0,0.0,
2025-08-15T02:17:33.195Z,5,GR86-036-98,-3.6,0.113,-0.03,100.0,5.0,,0.0,0.0,195.24
2025-08-15T02:17:33.239Z,5,GR86-036-98,-3.5,0.133,-0.045,99.99,5.0,,0.0,0.0,
2025-08-15T02:17:33.282Z,5,GR86-036-98,-3.6,0.114,-0.035,99.99,5.0,,0.0,0.0,
2025-08-15T02:17:33.325Z,5,GR86-036-98,-3.5,0.136,-0.037,100.0,5.0,,0.0,0.0,
2025-08-15T02:17:33.371Z,5,GR86-036-98,-3.5,0.105,-0.015,100.0,5.0,6665.0,0.0,0.0,
2025-08-15T02:17:33.414Z,5,GR86-036-98,-3.5,0.113,-0.048,99.99,5.0,,0.0,0.0,196.13
2025-08-15T02:17:33.460Z,5,GR86-036-98,-3.3000000000000003,0.143,-0.043,100.0,5.0,,0.0,0.0,
2025-08-15T02:17:33.502Z,5,GR86-036-98,-1.3,0.114,-0.035,100.0,5.0,,0.0,0.0,
2025-08-15T02:17:33.545Z,5,GR86-036-98,-0.2,0.139,0.003,100.0,5.0,,0.0,0.0,
2025-08-15T02:17:33.589Z,5,GR86-036-98,0.0,0.118,0.031,99.99,5.0,6708.0,0.0,0.0,
2025-08-15T02:17:33.631Z,5,GR86-036-98,0.0,0.106,0.067,100.0,5.0,,0.0,0.0,196.92
2025-08-15T02:17:33.674Z,5,GR86-036-98,0.0,0.082,0.08,100.0,5.0,,0.0,0.0,
2025-08-15T02:17:33.719Z,5,GR86-036-98,0.0,0.122,0.091,100.0,5.0,,0.0,0.0,
2025-08-15T02:17:33.762Z,5,GR86-036-98,0.0,0.138,0.095,100.01,5.0,,0.0,0.0,
2025-08-15T02:17:33.805Z,5,GR86-036-98,0.0,0.105,0.089,100.0,5.0,6726.0,0.0,0.0,
2025-08-15T02:17:33.849Z,5,GR86-036-98,0.0,0.103,0.08,100.0,5.0,,0.0,0.0,197.78
2025-08-15T02:17:33.892Z,5,GR86-036-98,-0.1,0.092,0.06,99.99,5.0,,0.0,0.0,
2025-08-15T02:17:33.935Z,5,GR86-036-98,-0.1,0.076,0.052,100.01,5.0,,0.0,0.0,
2025-08-15T02:17:33.980Z,5,GR86-036-98,-0.1,0.118,0.024,100.0,5.0,,0.0,0.0,
2025-08-15T02:17:34.022Z,5,GR86-036-98,-0.1,0.114,0.007,100.01,5.0,6762.0,0.0,0.0,
2025-08-15T02:17:34.065Z,5,GR86-036-98,-0.1,0.078,-0.008,100.0,5.0,,0.0,0.0,199.53
2025-08-15T02:17:34.109Z,5,GR86-036-98,-0.2,0.104,-0.013,100.01,5.0,,0.0,0.0,
2025-08-15T02:17:34.151Z,5,GR86-036-98,-0.2,0.082,-0.029,100.0,5.0,,0.0,0.0,
2025-08-15T02:17:34.194Z,5,GR86-036-98,-0.2,0.111,-0.03,99.99,5.0,,0.0,0.0,
2025-08-15T02:17:34.239Z,5,GR86-036-98,-0.2,0.109,0.012,100.0,5.0,6784.0,0.0,0.0,
2025-08-15T02:17:34.282Z,5,GR86-036-98,-0.2,0.079,0.031,100.0,5.0,,0.0,0.0,200.33
2025-08-15T02:17:34.325Z,5,GR86-036-98,-0.2,0.09,0.024,100.01,5.0,,0.0,0.0,
2025-08-15T02:17:34.372Z,5,GR86-036-98,-0.2,0.104,0.029,100.01,5.0,,0.0,0.0,
2025-08-15T02:17:34.414Z,5,GR86-036-98,-0.2,0.102,0.029,100.0,5.0,,0.0,0.0,
2025-08-15T02:17:34.460Z,5,GR86-036-98,-0.2,0.079,0.068,100.0,5.0,6841.0,0.0,0.0,
2025-08-15T02:17:34.502Z,5,GR86-036-98,1.3,0.103,0.091,100.01,5.0,,0.0,0.0,201.27
2025-08-15T02:17:34.545Z,5,GR86-036-98,1.7000000000000002,0.107,0.102,100.0,5.0,,0.0,0.0,
2025-08-15T02:17:34.589Z,5,GR86-036-98,1.8,0.106,0.114,100.0,5.0,,0.0,0.0,
2025-08-15T02:17:34.631Z,5,GR86-036-98,1.8,0.123,0.101,99.98,5.0,,0.0,0.0,
2025-08-15T02:17:34.675Z,5,GR86-036-98,1.1,0.124,0.134,99.98,5.0,6870.0,0.0,0.0,
2025-08-15T02:17:34.720Z,5,GR86-036-98,0.6000000000000001,0.084,0.089,100.0,5.0,,0.0,0.0,202.12
2025-08-15T02:17:34.762Z,5,GR86-036-98,0.6000000000000001,0.118,0.077,99.99,5.0,,0.0,0.0,
2025-08-15T02:17:34.805Z,5,GR86-036-98,0.5,0.122,0.064,100.0,5.0,,0.0,0.0,
2025-08-15T02:17:34.849Z,5,GR86-036-98,0.5,0.116,0.032,100.0,5.0,,0.0,0.0,
2025-08-15T02:17:34.892Z,5,GR86-036-98,0.4,0.109,0.06,99.99,5.0,6897.0,0.0,0.0,
2025-08-15T02:17:34.935Z,5,GR86-036-98,-0.2,0.092,0.006,100.0,5.0,,0.0,0.0,202.89
2025-08-15T02:17:34.980Z,5,GR86-036-98,-0.2,0.112,-0.034,100.0,5.0,,0.0,0.0,
2025-08-15T02:17:35.066Z,5,GR86-036-98,-0.4,0.116,-0.031,99.99,5.0,,0.0,0.0,
2025-08-15T02:17:35.109Z,5,GR86-036-98,-0.5,0.079,-0.027,100.0,5.0,6925.0,0.0,0.0,
2025-08-15T02:17:35.152Z,5,GR86-036-98,-0.5,0.073,-0.013,99.98,5.0,,0.0,0.0,203.67
2025-08-15T02:17:35.195Z,5,GR86-036-98,-0.6000000000000001,0.085,-0.027,99.98,5.0,,0.0,0.0,
2025-08-15T02:17:35.239Z,5,GR86-036-98,-2.2,0.074,-0.076,100.0,5.0,,0.0,0.0,
2025-08-15T02:17:35.282Z,5,GR86-036-98,-2.6,0.078,-0.081,100.0,5.0,,0.0,0.0,
2025-08-15T02:17:35.325Z,5,GR86-036-98,-2.7,0.091,-0.106,100.01,5.0,6949.0,0.0,0.0,
2025-08-15T02:17:35.414Z,5,GR86-036-98,-2.8000000000000003,0.075,-0.141,100.0,5.0,,0.0,0.0,204.42
2025-08-15T02:17:35.459Z,5,GR86-036-98,-3.0,0.071,-0.11,100.0,5.0,,0.0,0.0,
2025-08-15T02:17:35.502Z,5,GR86-036-98,-3.0,0.083,-0.119,100.01,5.0,,0.0,0.0,
2025-08-15T02:17:35.545Z,5,GR86-036-98,-3.1,0.096,-0.142,100.0,5.0,6979.0,0.0,0.0,
2025-08-15T02:17:35.589Z,5,GR86-036-98,-3.1,0.092,-0.173,100.0,5.0,,0.0,0.0,205.18
2025-08-15T02:17:35.632Z,5,GR86-036-98,-3.1,0.081,-0.131,100.01,5.0,,0.0,0.0,
2025-08-15T02:17:35.675Z,5,GR86-036-98,-3.1,0.109,-0.123,99.99,5.0,,0.0,0.0,
2025-08-15T02:17:35.720Z,5,GR86-036-98,-3.2,0.106,-0.11,100.0,5.0,,0.0,0.0,
2025-08-15T02:17:35.762Z,5,GR86-036-98,-4.800000000000001,0.083,-0.171,99.99,5.0,7001.0,0.0,0.0,
2025-08-15T02:17:35.849Z,5,GR86-036-98,-7.0,0.083,-0.188,100.0,5.0,,0.0,0.0,205.77
2025-08-15T02:17:35.892Z,5,GR86-036-98,-7.2,0.07,-0.211,100.0,5.0,,0.0,0.0,
2025-08-15T02:17:35.935Z,5,GR86-036-98,-6.800000000000001,0.082,-0.212,100.0,5.0,,0.0,0.0,
2025-08-15T02:17:35.979Z,5,GR86-036-98,-6.7,0.07,-0.211,99.99,5.0,7025.0,0.0,0.0,
2025-08-15T02:17:36.022Z,5,GR86-036-98,-6.7,0.092,-0.251,99.99,5.0,,0.0,0.0,206.62
2025-08-15T02:17:36.065Z,5,GR86-036-98,-7.1000000000000005,0.093,-0.288,100.0,5.0,,0.0,0.0,
2025-08-15T02:17:36.109Z,5,GR86-036-98,-7.1000000000000005,0.085,-0.338,99.34,5.0,,0.0,0.0,
2025-08-15T02:17:36.152Z,5,GR86-036-98,-7.2,0.106,-0.348,89.51,5.0,,0.0,0.0,
2025-08-15T02:17:36.195Z,5,GR86-036-98,-3.1,0.069,-0.344,82.41,5.0,7063.0,0.0,0.0,
2025-08-15T02:17:36.239Z,5,GR86-036-98,2.1,0.098,-0.23,98.49,5.0,,0.0,0.0,207.25
2025-08-15T02:17:36.282Z,5,GR86-036-98,2.4000000000000004,0.102,-0.169,100.0,5.0,,0.0,0.0,
2025-08-15T02:17:36.325Z,5,GR86-036-98,2.9000000000000004,0.082,-0.094,82.38,5.0,,0.0,0.0,
2025-08-15T02:17:36.371Z,5,GR86-036-98,4.1000000000000005,0.104,0.01,65.21000000000001,5.0,,0.0,0.0,
2025-08-15T02:17:36.460Z,5,GR86-036-98,4.4,0.087,0.231,48.45,5.0,7085.0,0.0,0.0,208.96
2025-08-15T02:17:36.502Z,5,GR86-036-98,6.0,0.055,0.29,45.12,5.0,,0.0,0.0,
2025-08-15T02:17:36.545Z,5,GR86-036-98,8.9,0.047,0.339,41.25,5.0,,0.0,0.0,
2025-08-15T02:17:36.589Z,5,GR86-036-98,11.3,0.057,0.405,39.5,5.0,,0.0,0.0,
2025-08-15T02:17:36.631Z,5,GR86-036-98,11.8,0.074,0.483,39.96,5.0,7096.0,0.0,0.0,
2025-08-15T02:17:36.674Z,5,GR86-036-98,11.8,0.073,0.468,43.43,5.0,,0.0,0.0,209.6
2025-08-15T02:17:36.719Z,5,GR86-036-98,11.8,0.051,0.466,45.13,5.0,,0.0,0.0,
2025-08-15T02:17:36.762Z,5,GR86-036-98,11.8,0.083,0.45,45.17,5.0,,0.0,0.0,
2025-08-15T02:17:36.805Z,5,GR86-036-98,11.8,0.096,0.433,46.12,5.0,,0.0,0.0,
2025-08-15T02:17:36.849Z,5,GR86-036-98,11.8,0.062,0.418,46.16,5.0,7115.0,0.0,0.0,
2025-08-15T02:17:36.892Z,5,GR86-036-98,11.8,0.049,0.413,46.25,5.0,,0.0,0.0,210.36
2025-08-15T02:17:36.935Z,5,GR86-036-98,11.8,0.065,0.411,46.72,5.0,,0.0,0.0,
2025-08-15T02:17:36.980Z,5,GR86-036-98,10.4,0.07,0.33,44.17,5.0,,0.0,0.0,
2025-08-15T02:17:37.022Z,5,GR86-036-98,10.3,0.049,0.332,40.83,5.0,,0.0,0.0,
2025-08-15T02:17:37.065Z,5,GR86-036-98,10.3,0.072,0.36,37.86,5.0,7149.0,0.0,0.0,
2025-08-15T02:17:37.109Z,5,GR86-036-98,10.3,0.065,0.357,35.59,5.0,,0.0,0.0,210.78
2025-08-15T02:17:37.152Z,5,GR86-036-98,10.3,0.083,0.363,34.14,5.0,,0.0,0.0,
2025-08-15T02:17:37.195Z,5,GR86-036-98,10.2,0.059,0.372,33.43,5.0,,0.0,0.0,
2025-08-15T02:17:37.239Z,5,GR86-036-98,9.4,0.066,0.284,32.8,5.0,,0.0,0.0,
2025-08-15T02:17:37.282Z,5,GR86-036-98,9.4,0.062,0.315,33.07,5.0,7151.0,0.0,0.0,
2025-08-15T02:17:37.325Z,5,GR86-036-98,9.3,0.04,0.265,33.46,5.0,,0.0,0.0,211.3
2025-08-15T02:17:37.372Z,5,GR86-036-98,9.3,0.022,0.269,33.62,5.0,,0.0,0.0,
2025-08-15T02:17:37.414Z,5,GR86-036-98,9.3,0.023,0.271,33.77,5.0,,0.0,0.0,
2025-08-15T02:17:37.460Z,5,GR86-036-98,9.3,0.036,0.233,33.87,5.0,,0.0,0.0,
2025-08-15T02:17:37.502Z,5,GR86-036-98,9.3,0.02,0.257,33.78,5.0,7164.0,0.0,0.0,
2025-08-15T02:17:37.545Z,5,GR86-036-98,8.9,0.033,0.236,33.5,5.0,,0.0,0.0,211.66
2025-08-15T02:17:37.589Z,5,GR86-036-98,8.8,0.038,0.241,32.51,5.0,,0.0,0.0,
2025-08-15T02:17:37.631Z,5,GR86-036-98,8.700000000000001,0.067,0.257,31.43,5.0,,0.0,0.0,
2025-08-15T02:17:37.675Z,5,GR86-036-98,8.6,0.04,0.254,29.4,5.0,,0.0,0.0,
2025-08-15T02:17:37.720Z,5,GR86-036-98,6.7,0.024,0.267,24.34,5.0,7172.0,9.875,10.025,
2025-08-15T02:17:37.762Z,5,GR86-036-98,6.300000000000001,-0.026,0.239,22.25,5.0,,8.545,8.88,211.79
2025-08-15T02:17:37.805Z,5,GR86-036-98,6.300000000000001,-0.105,0.232,22.1,5.0,,4.0600000000000005,4.595,
2025-08-15T02:17:37.849Z,5,GR86-036-98,6.2,-0.05,0.196,21.73,5.0,,0.0,0.0,
2025-08-15T02:17:37.892Z,5,GR86-036-98,6.2,-0.079,0.198,22.05,5.0,,0.0,0.0,
2025-08-15T02:17:37.935Z,5,GR86-036-98,6.2,-0.046,0.169,22.91,5.0,7136.0,4.99,5.22,
2025-08-15T02:17:37.980Z,5,GR86-036-98,6.1000000000000005,-0.055,0.117,24.59,5.0,,2.455,2.4250000000000003,212.1
2025-08-15T02:17:38.023Z,5,GR86-036-98,6.1000000000000005,-0.064,0.116,27.22,5.0,,0.0,0.0,
2025-08-15T02:17:38.066Z,5,GR86-036-98,6.1000000000000005,-0.029,0.107,25.92,5.0,,0.0,0.0,
2025-08-15T02:17:38.152Z,5,GR86-036-98,6.1000000000000005,0.03,0.153,19.93,5.0,7157.0,0.0,0.0,
2025-08-15T02:17:38.195Z,5,GR86-036-98,6.1000000000000005,-0.041,0.211,10.94,5.0,,0.0,0.0,212.12
2025-08-15T02:17:38.239Z,5,GR86-036-98,7.7,-0.046,0.21,6.49,5.0,,0.0,0.0,
2025-08-15T02:17:38.282Z,5,GR86-036-98,9.0,-0.082,0.259,6.33,5.0,,2.4250000000000003,2.5500000000000003,
2025-08-15T02:17:38.325Z,5,GR86-036-98,9.7,-0.136,0.308,6.11,5.0,,3.28,3.22,
2025-08-15T02:17:38.371Z,5,GR86-036-98,9.7,-0.219,0.307,5.86,5.0,7124.0,3.22,3.465,
2025-08-15T02:17:38.414Z,5,GR86-036-98,9.7,-0.297,0.369,7.35,5.0,,2.395,2.61,211.86
2025-08-15T02:17:38.459Z,5,GR86-036-98,9.8,-0.145,0.406,7.72,5.0,,0.0,0.0,
2025-08-15T02:17:38.502Z,5,GR86-036-98,9.8,-0.192,0.432,12.97,5.0,,0.0,0.0,
2025-08-15T02:17:38.545Z,5,GR86-036-98,9.8,-0.182,0.467,16.06,5.0,,0.0,0.0,
2025-08-15T02:17:38.589Z,5,GR86-036-98,8.1,-0.14,0.445,15.91,5.0,7090.0,0.0,0.0,
2025-08-15T02:17:38.631Z,5,GR86-036-98,4.6000000000000005,-0.097,0.395,12.76,5.0,,0.0,0.0,211.43
2025-08-15T02:17:38.674Z,5,GR86-036-98,1.5,-0.104,0.367,12.76,5.0,,0.0,0.0,
2025-08-15T02:17:38.720Z,5,GR86-036-98,-0.2,-0.104,0.157,9.89,5.0,,0.0,0.0,
2025-08-15T02:17:38.763Z,5,GR86-036-98,-0.2,-0.1,0.099,8.040000000000001,5.0,,0.0,0.0,
2025-08-15T02:17:38.806Z,5,GR86-036-98,-0.2,-0.127,0.023,7.85,5.0,7080.0,0.0,0.0,
2025-08-15T02:17:38.849Z,5,GR86-036-98,-0.2,-0.156,-0.078,7.61,5.0,,0.0,0.0,210.66
2025-08-15T02:17:38.892Z,5,GR86-036-98,-0.3,-0.167,-0.121,6.9,5.0,,0.0,0.0,
2025-08-15T02:17:38.935Z,5,GR86-036-98,-0.3,-0.189,-0.196,6.25,5.0,,0.0,0.0,
2025-08-15T02:17:38.979Z,5,GR86-036-98,-0.4,-0.141,-0.2,6.140000000000001,5.0,,0.0,0.0,
2025-08-15T02:17:39.022Z,5,GR86-036-98,-0.4,-0.175,-0.162,6.26,5.0,7021.0,0.0,0.0,
2025-08-15T02:17:39.065Z,5,GR86-036-98,-0.4,-0.169,-0.128,6.37,5.0,,0.0,0.0,209.19
2025-08-15T02:17:39.109Z,5,GR86-036-98,-0.4,-0.161,-0.093,6.25,5.0,,0.0,0.0,
2025-08-15T02:17:39.152Z,5,GR86-036-98,-0.4,-0.145,-0.071,5.63,5.0,,0.0,0.0,
2025-08-15T02:17:39.195Z,5,GR86-036-98,-0.4,-0.153,-0.029,3.5700000000000003,5.0,,2.4250000000000003,2.485,
2025-08-15T02:17:39.239Z,5,GR86-036-98,-0.4,-0.23,-0.024,2.56,5.0,7000.0,10.345,10.24,
2025-08-15T02:17:39.282Z,5,GR86-036-98,-0.4,-0.305,-0.039,2.48,5.0,,14.97,14.755,208.41
2025-08-15T02:17:39.325Z,5,GR86-036-98,-0.4,-0.376,-0.04,2.45,5.0,,22.645,22.34,
2025-08-15T02:17:39.371Z,5,GR86-036-98,-0.4,-0.553,-0.042,2.43,5.0,,32.93,32.335,
2025-08-15T02:17:39.414Z,5,GR86-036-98,-0.4,-0.729,-0.016,2.43,5.0,,43.11,42.425,
2025-08-15T02:17:39.459Z,5,GR86-036-98,0.1,-0.939,-0.025,2.44,5.0,6804.0,56.185,55.545,
2025-08-15T02:17:39.502Z,5,GR86-036-98,1.0,-1.088,0.007,2.43,5.0,,63.435,62.75,205.94
2025-08-15T02:17:39.545Z,5,GR86-036-98,1.2000000000000002,-1.157,0.015,2.44,5.0,,71.675,70.745,
2025-08-15T02:17:39.589Z,5,GR86-036-98,1.3,-1.15,-0.009,2.44,5.0,,80.65,79.625,
2025-08-15T02:17:39.631Z,5,GR86-036-98,1.6,-1.242,-0.014,2.47,5.0,,88.58500000000001,88.14,
2025-08-15T02:17:39.674Z,5,GR86-036-98,5.1000000000000005,-1.206,-0.015,2.44,5.0,6116.0,94.825,96.335,
2025-08-15T02:17:39.719Z,5,GR86-036-98,6.4,-1.277,0.007,2.46,5.0,,81.06,82.525,196.75
2025-08-15T02:17:39.762Z,5,GR86-036-98,7.300000000000001,-1.134,0.062,2.46,5.0,,70.305,72.01,
2025-08-15T02:17:39.805Z,5,GR86-036-98,9.9,-1.124,0.041,2.45,5.0,,57.925,58.905,
2025-08-15T02:17:39.849Z,5,GR86-036-98,11.2,-1.02,0.087,2.45,5.0,,49.075,49.73,
2025-08-15T02:17:39.892Z,5,GR86-036-98,11.2,-0.978,0.124,2.46,5.0,5874.0,46.74,47.49,
2025-08-15T02:17:39.935Z,5,GR86-036-98,11.2,-0.897,0.146,2.45,5.0,,47.245,47.64,183.76
2025-08-15T02:17:39.980Z,5,GR86-036-98,7.7,-1.025,0.15,2.46,5.0,,47.93,49.52,
2025-08-15T02:17:40.022Z,5,GR86-036-98,7.7,-1.096,0.164,2.46,5.0,,43.765,45.275,
2025-08-15T02:17:40.065Z,5,GR86-036-98,7.7,-0.94,0.2,2.47,5.0,,39.675,40.775,
2025-08-15T02:17:40.109Z,5,GR86-036-98,7.7,-0.905,0.268,2.45,5.0,5923.0,35.86,36.96,
2025-08-15T02:17:40.151Z,5,GR86-036-98,7.7,-0.774,0.3,2.45,5.0,,31.71,32.655,183.33
2025-08-15T02:17:40.194Z,5,GR86-036-98,7.7,-0.759,0.28,2.47,5.0,,30.705,31.3,
2025-08-15T02:17:40.239Z,5,GR86-036-98,10.4,-0.808,0.294,2.72,5.0,,31.65,32.075,
2025-08-15T02:17:40.282Z,5,GR86-036-98,10.6,-0.786,0.31,41.92,5.0,,29.435,30.275,
2025-08-15T02:17:40.325Z,5,GR86-036-98,10.6,-0.719,0.295,90.15,5.0,5866.0,27.055,27.805,
2025-08-15T02:17:40.371Z,5,GR86-036-98,10.6,-0.708,0.371,99.76,5.0,,25.7,26.325,178.12
2025-08-15T02:17:40.413Z,5,GR86-036-98,10.6,-0.638,0.291,61.68,4.0,,23.335,24.14,
2025-08-15T02:17:40.456Z,5,GR86-036-98,10.6,-0.6,0.304,6.29,4.0,,21.93,22.585,
2025-08-15T02:17:40.499Z,5,GR86-036-98,10.6,-0.741,0.392,4.12,4.0,,23.715,24.11,
2025-08-15T02:17:40.542Z,5,GR86-036-98,10.6,-0.612,0.297,3.8,4.0,6330.0,24.615,25.15,
2025-08-15T02:17:40.585Z,5,GR86-036-98,10.6,-0.666,0.353,3.48,4.0,,26.63,27.085,173.70000000000002
2025-08-15T02:17:40.629Z,5,GR86-036-98,10.3,-0.7020000000000001,0.334,3.09,4.0,,30.305,30.58,
2025-08-15T02:17:40.672Z,5,GR86-036-98,10.2,-0.835,0.236,2.81,4.0,,33.875,34.335,
2025-08-15T02:17:40.715Z,5,GR86-036-98,10.2,-0.838,0.29,2.65,4.0,,35.71,35.985,
2025-08-15T02:17:40.759Z,5,GR86-036-98,11.6,-0.85,0.312,2.5500000000000003,4.0,6403.0,36.67,37.42,
2025-08-15T02:17:40.802Z,5,GR86-036-98,14.2,-0.879,0.362,2.53,4.0,,37.08,37.645,169.46
2025-08-15T02:17:40.845Z,5,GR86-036-98,14.2,-0.856,0.401,14.23,4.0,,36.96,37.525,
2025-08-15T02:17:40.889Z,5,GR86-036-98,14.2,-0.8300000000000001,0.386,60.72,4.0,,37.295,37.705,
2025-08-15T02:17:40.931Z,5,GR86-036-98,14.2,-0.855,0.44,98.63,4.0,,37.705,38.045,
2025-08-15T02:17:40.974Z,5,GR86-036-98,14.2,-0.836,0.439,100.0,3.0,6165.0,37.77,38.38,
2025-08-15T02:17:41.020Z,5,GR86-036-98,10.8,-0.864,0.348,19.09,3.0,,38.715,39.035,164.09
2025-08-15T02:17:41.062Z,5,GR86-036-98,6.7,-1.091,0.413,3.61,3.0,,40.805,41.555,
2025-08-15T02:17:41.105Z,5,GR86-036-98,3.0,-0.882,0.28,2.82,3.0,,43.08,43.995,
2025-08-15T02:17:41.149Z,5,GR86-036-98,2.9000000000000004,-0.961,0.216,2.59,3.0,,43.43,43.675,
2025-08-15T02:17:41.192Z,5,GR86-036-98,2.9000000000000004,-0.921,0.258,2.53,3.0,6692.0,43.645,43.825,
2025-08-15T02:17:41.235Z,5,GR86-036-98,4.0,-0.951,0.105,2.52,3.0,,44.13,44.225,159.25
2025-08-15T02:17:41.280Z,5,GR86-036-98,14.5,-0.953,0.205,2.5,3.0,,44.315,44.68,
2025-08-15T02:17:41.366Z,5,GR86-036-98,16.6,-0.948,0.204,2.49,3.0,,44.315,44.71,
2025-08-15T02:17:41.409Z,5,GR86-036-98,16.900000000000002,-0.953,0.275,2.49,3.0,6829.0,46.27,46.835,
2025-08-15T02:17:41.452Z,5,GR86-036-98,15.7,-1.024,0.224,2.47,3.0,,50.615,50.875,152.56
2025-08-15T02:17:41.495Z,5,GR86-036-98,12.1,-1.111,0.198,2.48,3.0,,56.525,56.31,
2025-08-15T02:17:41.539Z,5,GR86-036-98,6.0,-1.153,0.236,2.47,3.0,,60.05,60.2,
2025-08-15T02:17:41.582Z,5,GR86-036-98,4.800000000000001,-1.12,0.201,2.48,3.0,,60.49,60.705,
2025-08-15T02:17:41.625Z,5,GR86-036-98,4.800000000000001,-1.057,0.233,7.24,3.0,6529.0,60.17,60.92,
2025-08-15T02:17:41.671Z,5,GR86-036-98,4.2,-1.085,0.206,51.24,2.0,,57.18,58.4,139.48
2025-08-15T02:17:41.713Z,5,GR86-036-98,2.2,-1.122,0.111,30.0,2.0,,51.93,52.92,
2025-08-15T02:17:41.756Z,5,GR86-036-98,1.5,-1.058,0.178,5.2,2.0,,51.775,53.24,
2025-08-15T02:17:41.799Z,5,GR86-036-98,2.9000000000000004,-1.119,0.055,4.03,2.0,,50.495000000000005,51.03,
2025-08-15T02:17:41.885Z,5,GR86-036-98,6.7,-1.116,0.244,3.7,2.0,6107.0,49.49,50.785,132.71
2025-08-15T02:17:41.930Z,5,GR86-036-98,9.5,-1.01,0.116,3.0700000000000003,2.0,,47.125,47.765,
2025-08-15T02:17:41.972Z,5,GR86-036-98,9.6,-1.139,0.316,2.79,2.0,,46.055,46.835,
2025-08-15T02:17:42.015Z,5,GR86-036-98,9.6,-0.931,0.17,2.65,2.0,,47.06,47.43,
2025-08-15T02:17:42.059Z,5,GR86-036-98,8.0,-1.025,0.218,2.56,2.0,6870.0,47.125,48.145,
2025-08-15T02:17:42.102Z,5,GR86-036-98,7.2,-0.935,0.154,2.53,2.0,,46.495,47.81,125.49
2025-08-15T02:17:42.145Z,5,GR86-036-98,7.2,-0.999,0.018,2.5,2.0,,45.595,46.495,
2025-08-15T02:17:42.189Z,5,GR86-036-98,12.1,-0.952,0.202,2.5,2.0,,45.245,46.115,
2025-08-15T02:17:42.232Z,5,GR86-036-98,17.2,-0.947,0.178,2.48,2.0,,43.46,44.68,
2025-08-15T02:17:42.275Z,5,GR86-036-98,22.700000000000003,-0.959,0.175,2.5,2.0,6497.0,43.02,43.52,
2025-08-15T02:17:42.320Z,5,GR86-036-98,24.3,-0.984,0.326,2.48,2.0,,44.315,44.775,118.72
2025-08-15T02:17:42.362Z,5,GR86-036-98,22.700000000000003,-0.975,0.282,2.48,2.0,,45.065,45.995,
2025-08-15T02:17:42.405Z,5,GR86-036-98,15.4,-1.012,0.318,2.47,2.0,,45.245,45.4,
2025-08-15T02:17:42.449Z,5,GR86-036-98,12.6,-0.979,0.263,2.48,2.0,,44.195,45.125,
2025-08-15T02:17:42.492Z,5,GR86-036-98,12.6,-0.974,0.204,2.48,2.0,6116.0,42.18,42.955,
2025-08-15T02:17:42.535Z,5,GR86-036-98,16.0,-0.941,0.265,2.48,2.0,,40.27,41.14,112.22
2025-08-15T02:17:42.579Z,5,GR86-036-98,27.4,-0.889,0.338,50.71,2.0,,38.255,39.22,
2025-08-15T02:17:42.622Z,5,GR86-036-98,29.9,-0.877,0.431,96.39,2.0,,38.53,38.865,
2025-08-15T02:17:42.665Z,5,GR86-036-98,32.7,-0.897,0.499,85.76,1.0,,39.065,39.585,
2025-08-15T02:17:42.709Z,5,GR86-036-98,35.9,-0.9,0.419,13.5,1.0,5835.0,39.065,39.46,
2025-08-15T02:17:42.795Z,5,GR86-036-98,36.1,-1.214,0.521,4.29,1.0,,39.905,40.865,106.34
2025-08-15T02:17:42.839Z,5,GR86-036-98,36.2,-0.944,0.755,3.77,1.0,,29.21,29.805,
2025-08-15T02:17:42.882Z,5,GR86-036-98,35.800000000000004,-0.711,0.749,3.79,1.0,,27.375,28.095,
2025-08-15T02:17:42.925Z,5,GR86-036-98,34.9,-0.708,0.596,3.74,1.0,6566.0,28.185,29.025,
2025-08-15T02:17:42.970Z,5,GR86-036-98,34.7,-0.748,0.806,3.77,1.0,,27.18,27.56,100.86
2025-08-15T02:17:43.013Z,5,GR86-036-98,34.6,-0.741,0.8250000000000001,4.1,1.0,,26.505,27.405,
2025-08-15T02:17:43.056Z,5,GR86-036-98,35.9,-0.733,0.74,4.37,1.0,,27.285,27.97,
2025-08-15T02:17:43.099Z,5,GR86-036-98,40.900000000000006,-0.738,0.844,4.47,1.0,,27.025,27.285,
2025-08-15T02:17:43.142Z,5,GR86-036-98,45.3,-0.687,0.71,4.72,1.0,6619.0,24.585,25.3,
2025-08-15T02:17:43.185Z,5,GR86-036-98,49.3,-0.62,0.736,4.8500000000000005,1.0,,20.205,21.09,95.55
2025-08-15T02:17:43.230Z,5,GR86-036-98,51.7,-0.502,0.851,4.91,1.0,,17.335,18.175,
2025-08-15T02:17:43.272Z,5,GR86-036-98,58.400000000000006,-0.517,0.765,4.96,1.0,,17.09,17.655,
2025-08-15T02:17:43.315Z,5,GR86-036-98,65.8,-0.528,0.755,5.0,1.0,,17.715,17.990000000000002,
2025-08-15T02:17:43.359Z,5,GR86-036-98,74.5,-0.5760000000000001,0.894,5.0,1.0,6315.0,19.15,19.455,
2025-08-15T02:17:43.402Z,5,GR86-036-98,77.0,-0.532,0.901,4.97,1.0,,19.73,20.115,90.34
2025-08-15T02:17:43.445Z,5,GR86-036-98,78.80000000000001,-0.531,0.959,4.94,1.0,,20.115,20.555,
2025-08-15T02:17:43.489Z,5,GR86-036-98,80.10000000000001,-0.51,0.983,4.91,1.0,,20.175,20.265,
2025-08-15T02:17:43.531Z,5,GR86-036-98,82.2,-0.544,0.97,4.87,1.0,,20.555,21.305,
2025-08-15T02:17:43.574Z,5,GR86-036-98,84.10000000000001,-0.521,1.032,4.9,1.0,6043.0,20.385,20.785,
2025-08-15T02:17:43.619Z,5,GR86-036-98,88.7,-0.542,1.092,4.94,1.0,,16.525,17.150000000000002,86.54
2025-08-15T02:17:43.662Z,5,GR86-036-98,89.4,-0.356,1.216,4.94,1.0,,7.615,8.27,
2025-08-15T02:17:43.705Z,5,GR86-036-98,90.3,-0.212,1.198,4.94,1.0,,0.0,1.86,
2025-08-15T02:17:43.749Z,5,GR86-036-98,92.0,-0.199,1.238,4.94,1.0,,0.0,0.0,
2025-08-15T02:17:43.792Z,5,GR86-036-98,93.1,-0.206,1.241,4.94,1.0,5695.0,0.0,0.0,
2025-08-15T02:17:43.835Z,5,GR86-036-98,93.1,-0.185,1.265,4.95,1.0,,0.0,0.0,83.48
2025-08-15T02:17:43.880Z,5,GR86-036-98,93.2,-0.201,1.352,4.97,1.0,,0.0,0.0,
2025-08-15T02:17:43.922Z,5,GR86-036-98,93.2,-0.185,1.335,4.96,1.0,,0.0,0.0,
2025-08-15T02:17:43.965Z,5,GR86-036-98,93.2,-0.159,1.274,4.97,1.0,,0.0,0.0,
2025-08-15T02:17:44.009Z,5,GR86-036-98,91.5,-0.167,1.288,4.97,1.0,5532.0,0.0,0.0,
2025-08-15T02:17:44.051Z,5,GR86-036-98,87.60000000000001,-0.205,1.313,5.22,1.0,,0.0,0.0,80.88
2025-08-15T02:17:44.094Z,5,GR86-036-98,79.5,-0.195,1.315,9.28,1.0,,0.0,0.0,
2025-08-15T02:17:44.182Z,5,GR86-036-98,50.1,-0.107,1.241,21.19,1.0,,0.0,0.0,
2025-08-15T02:17:44.225Z,5,GR86-036-98,47.8,-0.107,1.164,21.34,1.0,5423.0,0.0,0.0,
2025-08-15T02:17:44.271Z,5,GR86-036-98,49.8,-0.103,1.212,22.74,1.0,,0.0,0.0,77.75
2025-08-15T02:17:44.313Z,5,GR86-036-98,61.5,-0.061,1.262,26.02,1.0,,0.0,0.0,
2025-08-15T02:17:44.356Z,5,GR86-036-98,74.60000000000001,-0.059,1.316,29.14,1.0,,0.0,0.0,
2025-08-15T02:17:44.399Z,5,GR86-036-98,92.9,0.096,1.329,30.21,1.0,,0.0,0.0,
2025-08-15T02:17:44.442Z,5,GR86-036-98,96.3,0.146,1.325,30.53,1.0,5411.0,0.0,0.0,
2025-08-15T02:17:44.485Z,5,GR86-036-98,96.4,0.188,1.286,30.77,1.0,,0.0,0.0,76.4
2025-08-15T02:17:44.529Z,5,GR86-036-98,96.4,0.223,1.24,30.71,1.0,,0.0,0.0,
2025-08-15T02:17:44.571Z,5,GR86-036-98,96.5,0.248,1.283,30.4,1.0,,0.0,0.0,
2025-08-15T02:17:44.614Z,5,GR86-036-98,96.5,0.246,1.315,31.86,1.0,,0.0,0.0,
2025-08-15T02:17:44.660Z,5,GR86-036-98,96.5,0.209,1.273,39.28,1.0,5816.0,0.0,0.0,
2025-08-15T02:17:44.702Z,5,GR86-036-98,96.5,0.203,1.264,45.28,1.0,,0.0,0.0,75.88
2025-08-15T02:17:44.745Z,5,GR86-036-98,96.6,0.201,1.354,56.5,1.0,,0.0,0.0,
2025-08-15T02:17:44.789Z,5,GR86-036-98,96.6,0.214,1.312,67.45,1.0,,0.0,0.0,
2025-08-15T02:17:44.831Z,5,GR86-036-98,95.9,0.214,1.333,73.91,1.0,,0.0,0.0,
2025-08-15T02:17:44.874Z,5,GR86-036-98,94.4,0.256,1.27,82.71000000000001,1.0,5985.0,0.0,0.0,
2025-08-15T02:17:44.920Z,5,GR86-036-98,86.10000000000001,0.343,1.225,99.81,1.0,,0.0,0.0,76.91
2025-08-15T02:17:44.962Z,5,GR86-036-98,74.8,0.36,1.267,100.0,1.0,,0.0,0.0,
2025-08-15T02:17:45.005Z,5,GR86-036-98,62.900000000000006,0.349,1.257,100.0,1.0,,0.0,0.0,
2025-08-15T02:17:45.049Z,5,GR86-036-98,54.2,0.336,1.157,100.01,1.0,,0.0,0.0,
2025-08-15T02:17:45.092Z,5,GR86-036-98,52.400000000000006,0.364,1.183,100.0,1.0,6137.0,0.0,0.0,
2025-08-15T02:17:45.135Z,5,GR86-036-98,52.400000000000006,0.37,1.122,100.03,1.0,,0.0,0.0,78.69
2025-08-15T02:17:45.180Z,5,GR86-036-98,52.3,0.366,1.19,99.99,1.0,,0.0,0.0,
2025-08-15T02:17:45.223Z,5,GR86-036-98,48.400000000000006,0.371,1.179,100.02,1.0,,0.0,0.0,
2025-08-15T02:17:45.309Z,5,GR86-036-98,47.400000000000006,0.353,1.101,100.02,1.0,6277.0,0.0,0.0,
2025-08-15T02:17:45.352Z,5,GR86-036-98,54.8,0.365,1.143,100.02,1.0,,0.0,0.0,80.78
2025-08-15T02:17:45.395Z,5,GR86-036-98,61.900000000000006,0.349,1.153,100.03,1.0,,0.0,0.0,
2025-08-15T02:17:45.440Z,5,GR86-036-98,64.60000000000001,0.345,1.218,100.03,1.0,,0.0,0.0,
2025-08-15T02:17:45.482Z,5,GR86-036-98,60.3,0.34,1.184,100.02,1.0,,0.0,0.0,
2025-08-15T02:17:45.525Z,5,GR86-036-98,50.6,0.347,1.207,100.03,1.0,6416.0,0.0,0.0,
2025-08-15T02:17:45.571Z,5,GR86-036-98,48.8,0.383,1.106,100.03,1.0,,0.0,0.0,82.60000000000001
2025-08-15T02:17:45.613Z,5,GR86-036-98,49.5,0.392,1.083,100.03,1.0,,0.0,0.0,
2025-08-15T02:17:45.656Z,5,GR86-036-98,54.400000000000006,0.39,1.114,100.03,1.0,,0.0,0.0,
2025-08-15T02:17:45.699Z,5,GR86-036-98,54.1,0.345,1.135,100.02,1.0,,0.0,0.0,
2025-08-15T02:17:45.742Z,5,GR86-036-98,41.6,0.353,1.001,100.03,1.0,6555.0,0.0,0.0,
2025-08-15T02:17:45.785Z,5,GR86-036-98,29.5,0.389,0.9,100.02,1.0,,0.0,0.0,84.78
2025-08-15T02:17:45.830Z,5,GR86-036-98,24.200000000000003,0.397,0.891,100.03,1.0,,0.0,0.0,
2025-08-15T02:17:45.872Z,5,GR86-036-98,24.1,0.433,0.797,100.03,1.0,,0.0,0.0,
2025-08-15T02:17:45.915Z,5,GR86-036-98,28.3,0.535,0.635,100.02,1.0,,0.0,0.0,
2025-08-15T02:17:45.959Z,5,GR86-036-98,44.0,0.508,0.612,100.03,1.0,6707.0,0.0,0.0,
2025-08-15T02:17:46.002Z,5,GR86-036-98,51.5,0.387,0.346,100.03,1.0,,0.0,0.0,86.73
2025-08-15T02:17:46.045Z,5,GR86-036-98,52.3,0.168,0.468,100.03,1.0,,0.0,0.0,
2025-08-15T02:17:46.132Z,5,GR86-036-98,52.3,0.255,0.578,100.02,1.0,,0.0,0.0,
2025-08-15T02:17:46.175Z,5,GR86-036-98,42.0,0.65,0.5710000000000001,100.03,1.0,6898.0,0.0,0.0,
2025-08-15T02:17:46.220Z,5,GR86-036-98,39.1,0.517,0.649,100.07,1.0,,0.0,0.0,87.99
2025-08-15T02:17:46.262Z,5,GR86-036-98,38.5,0.787,0.726,100.03,1.0,,0.0,0.0,
2025-08-15T02:17:46.305Z,5,GR86-036-98,38.0,0.402,0.425,100.03,1.0,,0.0,0.0,
2025-08-15T02:17:46.349Z,5,GR86-036-98,37.8,-0.202,0.77,100.03,1.0,,0.0,0.0,
2025-08-15T02:17:46.392Z,5,GR86-036-98,37.8,-0.145,1.056,100.03,1.0,7156.0,0.0,0.0,
2025-08-15T02:17:46.435Z,5,GR86-036-98,37.8,-0.043,1.064,100.03,2.0,,0.0,0.0,89.60000000000001
2025-08-15T02:17:46.479Z,5,GR86-036-98,37.8,0.455,0.795,100.06,2.0,,0.0,0.0,
2025-08-15T02:17:46.565Z,5,GR86-036-98,38.3,0.652,0.811,100.04,2.0,,0.0,0.0,
2025-08-15T02:17:46.609Z,5,GR86-036-98,38.400000000000006,0.8170000000000001,0.644,100.03,2.0,6719.0,0.0,0.0,
2025-08-15T02:17:46.652Z,5,GR86-036-98,38.400000000000006,0.503,0.672,100.03,2.0,,0.0,0.0,92.67
2025-08-15T02:17:46.695Z,5,GR86-036-98,40.6,0.036,0.5730000000000001,100.03,2.0,,0.0,0.0,
2025-08-15T02:17:46.739Z,5,GR86-036-98,41.6,0.507,0.797,100.03,2.0,,0.0,0.0,
2025-08-15T02:17:46.782Z,5,GR86-036-98,41.5,0.236,0.733,100.03,2.0,,0.0,0.0,
2025-08-15T02:17:46.825Z,5,GR86-036-98,41.7,-0.004,0.8290000000000001,100.03,2.0,5826.0,0.0,0.0,
2025-08-15T02:17:46.871Z,5,GR86-036-98,41.400000000000006,0.187,0.637,100.04,2.0,,0.0,0.0,96.0
2025-08-15T02:17:46.913Z,5,GR86-036-98,33.0,0.093,0.555,100.02,2.0,,0.0,0.0,
2025-08-15T02:17:46.956Z,5,GR86-036-98,27.200000000000003,0.067,0.773,100.03,2.0,,0.0,0.0,
2025-08-15T02:17:47.042Z,5,GR86-036-98,24.9,0.125,0.548,100.03,2.0,5815.0,0.0,0.0,
2025-08-15T02:17:47.085Z,5,GR86-036-98,24.1,0.27,0.251,100.02,2.0,,0.0,0.0,98.82
2025-08-15T02:17:47.130Z,5,GR86-036-98,24.1,0.173,0.178,100.02,2.0,,0.0,0.0,
2025-08-15T02:17:47.172Z,5,GR86-036-98,23.9,0.352,0.355,100.03,2.0,,0.0,0.0,
2025-08-15T02:17:47.215Z,5,GR86-036-98,21.200000000000003,0.533,0.409,100.03,2.0,,0.0,0.0,
2025-08-15T02:17:47.260Z,5,GR86-036-98,11.2,0.062,0.217,100.03,2.0,6190.0,0.0,0.0,
2025-08-15T02:17:47.302Z,5,GR86-036-98,8.6,0.187,0.121,100.05,2.0,,0.0,0.0,99.97
2025-08-15T02:17:47.345Z,5,GR86-036-98,8.5,0.405,0.165,100.03,2.0,,0.0,0.0,
2025-08-15T02:17:47.389Z,5,GR86-036-98,8.6,0.445,0.206,100.03,2.0,,0.0,0.0,
2025-08-15T02:17:47.431Z,5,GR86-036-98,8.6,0.167,0.08,100.04,2.0,,0.0,0.0,
2025-08-15T02:17:47.474Z,5,GR86-036-98,8.5,0.279,0.307,100.03,2.0,6047.0,0.0,0.0,
2025-08-15T02:17:47.519Z,5,GR86-036-98,8.5,0.547,0.294,100.03,2.0,,0.0,0.0,101.65
2025-08-15T02:17:47.562Z,5,GR86-036-98,8.5,0.265,0.423,100.02,2.0,,0.0,0.0,
2025-08-15T02:17:47.605Z,5,GR86-036-98,9.2,0.251,0.254,100.03,2.0,,0.0,0.0,
2025-08-15T02:17:47.649Z,5,GR86-036-98,9.3,0.181,0.272,100.03,2.0,,0.0,0.0,
2025-08-15T02:17:47.692Z,5,GR86-036-98,7.0,0.307,0.121,100.02,2.0,5951.0,0.0,0.0,
2025-08-15T02:17:47.735Z,5,GR86-036-98,2.5,0.418,0.023,100.03,2.0,,0.0,0.0,103.94
2025-08-15T02:17:47.780Z,5,GR86-036-98,-0.1,-0.095,-0.091,100.03,2.0,,0.0,0.0,
2025-08-15T02:17:47.822Z,5,GR86-036-98,-2.5,0.079,-0.045,100.03,2.0,,0.0,0.0,
2025-08-15T02:17:47.865Z,5,GR86-036-98,-4.6000000000000005,0.255,-0.141,100.03,2.0,,0.0,0.0,
2025-08-15T02:17:47.909Z,5,GR86-036-98,-6.1000000000000005,0.346,-0.157,100.03,2.0,6444.0,0.0,0.0,
2025-08-15T02:17:47.951Z,5,GR86-036-98,-6.2,0.319,-0.094,100.03,2.0,,0.0,0.0,104.97
2025-08-15T02:17:47.994Z,5,GR86-036-98,-6.0,0.26,-0.157,100.01,2.0,,0.0,0.0,
2025-08-15T02:17:48.039Z,5,GR86-036-98,-2.3000000000000003,0.103,-0.15,100.03,2.0,,0.0,0.0,
2025-08-15T02:17:48.082Z,5,GR86-036-98,-2.3000000000000003,0.131,-0.117,100.02,2.0,,0.0,0.0,
2025-08-15T02:17:48.125Z,5,GR86-036-98,-2.4000000000000004,0.184,-0.184,100.03,2.0,6253.0,0.0,0.0,
2025-08-15T02:17:48.171Z,5,GR86-036-98,-4.9,0.169,-0.163,100.03,2.0,,0.0,0.0,107.31
2025-08-15T02:17:48.213Z,5,GR86-036-98,-5.2,0.122,-0.187,100.03,2.0,,0.0,0.0,
2025-08-15T02:17:48.256Z,5,GR86-036-98,-5.2,0.141,-0.186,100.03,2.0,,0.0,0.0,
2025-08-15T02:17:48.299Z,5,GR86-036-98,-5.300000000000001,0.393,-0.165,100.01,2.0,,0.0,0.0,
2025-08-15T02:17:48.385Z,5,GR86-036-98,-5.300000000000001,0.331,-0.196,100.02,2.0,6375.0,0.0,0.0,108.88
2025-08-15T02:17:48.429Z,5,GR86-036-98,-2.9000000000000004,0.314,-0.175,100.03,2.0,,0.0,0.0,
2025-08-15T02:17:48.471Z,5,GR86-036-98,-2.8000000000000003,0.329,-0.176,100.03,2.0,,0.0,0.0,
2025-08-15T02:17:48.514Z,5,GR86-036-98,-2.8000000000000003,0.302,-0.15,100.03,2.0,,0.0,0.0,
2025-08-15T02:17:48.559Z,5,GR86-036-98,-2.8000000000000003,0.263,-0.138,100.0,2.0,6427.0,0.0,0.0,
2025-08-15T02:17:48.602Z,5,GR86-036-98,-2.8000000000000003,0.283,-0.104,100.03,2.0,,0.0,0.0,110.65
2025-08-15T02:17:48.645Z,5,GR86-036-98,-2.5,0.275,-0.074,99.99,2.0,,0.0,0.0,
2025-08-15T02:17:48.689Z,5,GR86-036-98,-0.5,0.289,-0.032,83.16,2.0,,0.0,0.0,
2025-08-15T02:17:48.731Z,5,GR86-036-98,-0.2,0.275,0.0,27.94,2.0,,0.0,0.0,
2025-08-15T02:17:48.775Z,5,GR86-036-98,0.5,0.269,0.008,20.64,2.0,6527.0,0.0,0.0,
2025-08-15T02:17:48.820Z,5,GR86-036-98,7.800000000000001,0.177,0.057,57.98,2.0,,0.0,0.0,112.38
2025-08-15T02:17:48.862Z,5,GR86-036-98,14.7,0.062,0.163,97.5,2.0,,0.0,0.0,
2025-08-15T02:17:48.905Z,5,GR86-036-98,19.9,0.028,0.222,100.04,2.0,,0.0,0.0,
2025-08-15T02:17:48.949Z,5,GR86-036-98,21.200000000000003,0.187,0.321,100.04,2.0,,0.0,0.0,
2025-08-15T02:17:48.992Z,5,GR86-036-98,21.200000000000003,0.377,0.38,100.03,2.0,6460.0,0.0,0.0,
2025-08-15T02:17:49.035Z,5,GR86-036-98,21.0,0.42,0.418,100.06,2.0,,0.0,0.0,114.06
2025-08-15T02:17:49.080Z,5,GR86-036-98,18.3,0.268,0.408,100.05,2.0,,0.0,0.0,
2025-08-15T02:17:49.123Z,5,GR86-036-98,18.2,0.205,0.468,100.06,2.0,,0.0,0.0,
2025-08-15T02:17:49.209Z,5,GR86-036-98,9.8,0.23,0.451,100.03,2.0,6667.0,0.0,0.0,
2025-08-15T02:17:49.252Z,5,GR86-036-98,-29.3,0.342,0.159,88.77,2.0,,0.0,0.0,115.0
2025-08-15T02:17:49.295Z,5,GR86-036-98,-36.1,0.299,-0.179,35.32,2.0,,0.0,0.0,
2025-08-15T02:17:49.339Z,5,GR86-036-98,-26.5,0.222,-0.353,28.17,2.0,,0.0,0.0,
2025-08-15T02:17:49.382Z,5,GR86-036-98,-14.3,0.173,-0.379,33.36,2.0,,0.0,0.0,
2025-08-15T02:17:49.425Z,5,GR86-036-98,-12.0,0.115,-0.378,41.62,2.0,6790.0,0.0,0.0,
2025-08-15T02:17:49.471Z,5,GR86-036-98,-12.0,0.103,-0.446,80.06,2.0,,0.0,0.0,117.93
2025-08-15T02:17:49.513Z,5,GR86-036-98,-15.2,0.143,-0.477,100.03,2.0,,0.0,0.0,
2025-08-15T02:17:49.556Z,5,GR86-036-98,-16.900000000000002,0.253,-0.428,88.35000000000001,2.0,,0.0,0.0,
2025-08-15T02:17:49.602Z,5,GR86-036-98,-18.5,0.344,-0.401,16.89,2.0,,0.0,0.0,
2025-08-15T02:17:49.645Z,5,GR86-036-98,-18.9,0.287,-0.426,4.24,2.0,6738.0,0.0,0.0,
2025-08-15T02:17:49.689Z,5,GR86-036-98,-18.9,0.114,-0.397,4.04,2.0,,0.0,0.0,118.81
2025-08-15T02:17:49.731Z,5,GR86-036-98,-18.9,-0.119,-0.34,3.8,2.0,,0.0,0.0,
2025-08-15T02:17:49.774Z,5,GR86-036-98,-18.9,-0.207,-0.384,3.48,2.0,,0.0,0.0,
2025-08-15T02:17:49.820Z,5,GR86-036-98,-11.1,-0.354,-0.357,29.91,2.0,,0.0,0.0,
2025-08-15T02:17:49.863Z,5,GR86-036-98,-1.8,-0.154,-0.242,76.54,2.0,6728.0,0.0,0.0,
2025-08-15T02:17:49.906Z,5,GR86-036-98,5.800000000000001,-0.015,-0.245,98.59,2.0,,0.0,0.0,119.65
2025-08-15T02:17:49.949Z,5,GR86-036-98,7.800000000000001,-0.022,-0.107,99.94,2.0,,0.0,0.0,
2025-08-15T02:17:49.992Z,5,GR86-036-98,7.800000000000001,0.506,-0.032,99.97,2.0,,0.0,0.0,
2025-08-15T02:17:50.035Z,5,GR86-036-98,7.800000000000001,0.556,-0.021,99.98,2.0,,0.0,0.0,
2025-08-15T02:17:50.079Z,5,GR86-036-98,7.800000000000001,0.3,0.131,99.97,2.0,6882.0,0.0,0.0,
2025-08-15T02:17:50.122Z,5,GR86-036-98,7.800000000000001,0.142,0.204,99.97,2.0,,0.0,0.0,118.2
2025-08-15T02:17:50.165Z,5,GR86-036-98,7.800000000000001,0.181,0.249,99.97,2.0,,0.0,0.0,
2025-08-15T02:17:50.209Z,5,GR86-036-98,7.800000000000001,0.29,0.25,99.97,2.0,,0.0,0.0,
2025-08-15T02:17:50.252Z,5,GR86-036-98,7.800000000000001,0.361,0.262,99.96,2.0,,0.0,0.0,
2025-08-15T02:17:50.295Z,5,GR86-036-98,7.800000000000001,0.36,0.253,99.97,2.0,6991.0,0.0,0.0,
2025-08-15T02:17:50.339Z,5,GR86-036-98,7.800000000000001,0.282,0.259,99.97,2.0,,0.0,0.0,119.17
2025-08-15T02:17:50.382Z,5,GR86-036-98,7.800000000000001,0.251,0.225,99.98,2.0,,0.0,0.0,
2025-08-15T02:17:50.425Z,5,GR86-036-98,7.800000000000001,0.276,0.229,99.98,2.0,,0.0,0.0,
2025-08-15T02:17:50.471Z,5,GR86-036-98,7.800000000000001,0.309,0.24,99.98,2.0,,0.0,0.0,
2025-08-15T02:17:50.513Z,5,GR86-036-98,7.800000000000001,0.31,0.206,99.97,2.0,7001.0,0.0,0.0,
2025-08-15T02:17:50.556Z,5,GR86-036-98,6.800000000000001,0.289,0.212,99.97,2.0,,0.0,0.0,120.5
2025-08-15T02:17:50.599Z,5,GR86-036-98,2.2,-0.066,0.187,99.98,3.0,,0.0,0.0,
2025-08-15T02:17:50.642Z,5,GR86-036-98,0.3,0.164,0.177,99.97,3.0,,0.0,0.0,
2025-08-15T02:17:50.685Z,5,GR86-036-98,-0.9,0.525,-0.001,99.97,3.0,,0.0,0.0,
2025-08-15T02:17:50.730Z,5,GR86-036-98,-3.1,0.459,0.009,100.0,3.0,6548.0,0.0,0.0,
2025-08-15T02:17:50.772Z,5,GR86-036-98,-5.5,0.371,0.019,100.0,3.0,,0.0,0.0,121.83
2025-08-15T02:17:50.815Z,5,GR86-036-98,-7.0,0.191,-0.116,100.0,3.0,,0.0,0.0,
2025-08-15T02:17:50.860Z,5,GR86-036-98,-8.6,0.12,-0.144,99.99,3.0,,9.57,9.69,
2025-08-15T02:17:50.902Z,5,GR86-036-98,-9.7,0.178,-0.178,99.99,3.0,,7.675,7.98,
2025-08-15T02:17:50.945Z,5,GR86-036-98,-11.2,0.207,-0.268,99.99,3.0,5687.0,2.76,3.28,
2025-08-15T02:17:50.989Z,5,GR86-036-98,-13.1,0.218,-0.263,99.99,3.0,,0.0,0.0,122.92
2025-08-15T02:17:51.031Z,5,GR86-036-98,-15.7,0.182,-0.334,100.0,3.0,,0.0,0.0,
2025-08-15T02:17:51.074Z,5,GR86-036-98,-17.3,0.209,-0.394,99.98,3.0,,0.0,0.0,
2025-08-15T02:17:51.119Z,5,GR86-036-98,-17.3,0.244,-0.398,99.98,3.0,,0.0,0.0,
2025-08-15T02:17:51.162Z,5,GR86-036-98,-14.3,0.231,-0.419,100.0,3.0,5796.0,0.0,0.0,
2025-08-15T02:17:51.249Z,5,GR86-036-98,-7.300000000000001,0.226,-0.315,99.98,3.0,,0.0,0.0,123.74
2025-08-15T02:17:51.292Z,5,GR86-036-98,-7.300000000000001,0.24,-0.305,99.98,3.0,,0.0,0.0,
2025-08-15T02:17:51.335Z,5,GR86-036-98,-7.2,0.24,-0.274,99.97,3.0,,0.0,0.0,
2025-08-15T02:17:51.380Z,5,GR86-036-98,-5.4,0.228,-0.191,100.0,3.0,5851.0,0.0,0.0,
2025-08-15T02:17:51.422Z,5,GR86-036-98,-3.8,0.223,-0.14,100.0,3.0,,0.0,0.0,124.68
2025-08-15T02:17:51.465Z,5,GR86-036-98,-2.9000000000000004,0.236,-0.072,100.0,3.0,,0.0,0.0,
2025-08-15T02:17:51.509Z,5,GR86-036-98,-2.7,0.248,-0.04,100.0,3.0,,0.0,0.0,
2025-08-15T02:17:51.551Z,5,GR86-036-98,-2.6,0.225,-0.023,100.0,3.0,,0.0,0.0,
2025-08-15T02:17:51.594Z,5,GR86-036-98,-2.4000000000000004,0.227,0.015,99.99,3.0,5893.0,0.0,0.0,
2025-08-15T02:17:51.639Z,5,GR86-036-98,-2.4000000000000004,0.229,0.041,99.99,3.0,,0.0,0.0,125.59
2025-08-15T02:17:51.682Z,5,GR86-036-98,-2.4000000000000004,0.245,0.038,99.98,3.0,,0.0,0.0,
2025-08-15T02:17:51.725Z,5,GR86-036-98,-2.4000000000000004,0.237,0.047,59.05,3.0,,0.0,0.0,
2025-08-15T02:17:51.770Z,5,GR86-036-98,-2.2,0.228,0.06,29.06,3.0,,0.0,0.0,
2025-08-15T02:17:51.813Z,5,GR86-036-98,-1.5,0.225,0.06,3.99,3.0,5946.0,3.16,3.28,
2025-08-15T02:17:51.856Z,5,GR86-036-98,-0.3,0.146,0.057,3.62,3.0,,4.47,4.47,126.58
2025-08-15T02:17:51.899Z,5,GR86-036-98,2.2,-0.149,0.117,3.38,3.0,,9.065,8.76,
2025-08-15T02:17:51.942Z,5,GR86-036-98,4.0,-0.358,0.125,3.19,3.0,,13.95,13.735,
2025-08-15T02:17:51.985Z,5,GR86-036-98,5.2,-0.45,0.134,3.0,3.0,,18.235,18.055,
2025-08-15T02:17:52.071Z,5,GR86-036-98,5.300000000000001,-0.357,0.153,4.55,3.0,5936.0,21.24,21.18,127.27
2025-08-15T02:17:52.114Z,5,GR86-036-98,5.6000000000000005,-0.359,0.193,46.72,3.0,,23.835,23.59,
2025-08-15T02:17:52.159Z,5,GR86-036-98,5.7,-0.553,0.208,99.79,3.0,,35.615,34.9,
2025-08-15T02:17:52.202Z,5,GR86-036-98,5.7,-0.646,0.19,87.75,2.0,,43.675,42.775,
2025-08-15T02:17:52.245Z,5,GR86-036-98,5.7,-0.898,0.131,16.07,2.0,5815.0,47.125,46.865,
2025-08-15T02:17:52.289Z,5,GR86-036-98,5.7,-0.777,0.226,3.5500000000000003,2.0,,47.705,49.105,123.32
2025-08-15T02:17:52.331Z,5,GR86-036-98,5.7,-0.808,0.176,2.85,2.0,,44.285,45.72,
2025-08-15T02:17:52.375Z,5,GR86-036-98,5.7,-0.761,0.154,2.61,2.0,,38.105,38.56,
2025-08-15T02:17:52.420Z,5,GR86-036-98,5.7,-0.672,0.265,2.53,2.0,,29.925,31.085,
2025-08-15T02:17:52.462Z,5,GR86-036-98,5.7,-0.584,0.166,2.49,2.0,6298.0,27.285,27.68,
2025-08-15T02:17:52.505Z,5,GR86-036-98,6.0,-0.712,0.319,2.47,2.0,,27.18,27.56,116.96
2025-08-15T02:17:52.549Z,5,GR86-036-98,6.0,-0.627,0.327,2.47,2.0,,26.11,26.72,
2025-08-15T02:17:52.592Z,5,GR86-036-98,6.7,-0.623,0.218,2.47,2.0,,24.34,24.95,
2025-08-15T02:17:52.635Z,5,GR86-036-98,8.3,-0.587,0.338,2.47,2.0,,23.805,24.4,
2025-08-15T02:17:52.680Z,5,GR86-036-98,13.5,-0.5630000000000001,0.258,2.47,2.0,6216.0,23.62,24.11,
2025-08-15T02:17:52.723Z,5,GR86-036-98,17.7,-0.5760000000000001,0.312,2.47,2.0,,24.34,24.49,112.8
2025-08-15T02:17:52.766Z,5,GR86-036-98,20.4,-0.555,0.379,2.47,2.0,,24.735,25.33,
2025-08-15T02:17:52.809Z,5,GR86-036-98,22.200000000000003,-0.5740000000000001,0.345,2.48,2.0,,23.99,24.4,
2025-08-15T02:17:52.852Z,5,GR86-036-98,22.9,-0.562,0.408,2.47,2.0,,22.43,23.025,
2025-08-15T02:17:52.895Z,5,GR86-036-98,23.1,-0.537,0.449,2.48,2.0,5975.0,22.995,23.395,
2025-08-15T02:17:52.939Z,5,GR86-036-98,23.9,-0.56,0.458,2.47,2.0,,23.335,23.685,108.37
2025-08-15T02:17:52.982Z,5,GR86-036-98,24.4,-0.549,0.508,2.47,2.0,,23.685,24.05,
2025-08-15T02:17:53.025Z,5,GR86-036-98,24.9,-0.542,0.521,2.47,2.0,,23.425,23.775,
2025-08-15T02:17:53.070Z,5,GR86-036-98,26.3,-0.558,0.553,2.48,2.0,,22.965,23.62,
2025-08-15T02:17:53.113Z,5,GR86-036-98,29.9,-0.509,0.587,2.49,2.0,5726.0,22.16,22.645,
2025-08-15T02:17:53.156Z,5,GR86-036-98,35.9,-0.517,0.619,2.47,2.0,,22.31,22.735,104.72
2025-08-15T02:17:53.202Z,5,GR86-036-98,43.7,-0.523,0.717,2.48,2.0,,22.645,23.18,
2025-08-15T02:17:53.245Z,5,GR86-036-98,45.7,-0.525,0.755,2.48,2.0,,22.815,23.09,
2025-08-15T02:17:53.289Z,5,GR86-036-98,46.3,-0.526,0.771,2.47,2.0,,22.995,23.53,
2025-08-15T02:17:53.332Z,5,GR86-036-98,46.5,-0.522,0.812,2.48,2.0,5498.0,21.53,22.065,
2025-08-15T02:17:53.375Z,5,GR86-036-98,47.2,-0.487,0.859,2.58,2.0,,16.895,17.61,101.24
2025-08-15T02:17:53.420Z,5,GR86-036-98,52.5,-0.298,0.91,2.57,2.0,,8.975,9.72,
2025-08-15T02:17:53.463Z,5,GR86-036-98,57.8,-0.311,0.952,2.56,2.0,,6.515000000000001,6.775,
2025-08-15T02:17:53.506Z,5,GR86-036-98,63.3,-0.248,0.982,2.56,2.0,,2.64,3.16,
2025-08-15T02:17:53.549Z,5,GR86-036-98,67.60000000000001,-0.183,1.049,2.56,2.0,5250.0,0.0,0.0,
2025-08-15T02:17:53.592Z,5,GR86-036-98,68.4,-0.143,1.071,2.94,2.0,,0.0,0.0,97.89
2025-08-15T02:17:53.635Z,5,GR86-036-98,68.5,-0.135,1.098,3.19,2.0,,0.0,0.0,
2025-08-15T02:17:53.679Z,5,GR86-036-98,68.60000000000001,-0.139,1.181,3.45,2.0,,0.0,0.0,
2025-08-15T02:17:53.722Z,5,GR86-036-98,65.9,-0.132,1.157,3.7,2.0,,0.0,0.0,
2025-08-15T02:17:53.765Z,5,GR86-036-98,64.5,-0.112,1.175,3.7,2.0,5230.0,0.0,0.0,
2025-08-15T02:17:53.809Z,5,GR86-036-98,64.4,-0.135,1.206,3.71,2.0,,0.0,0.0,95.85
2025-08-15T02:17:53.852Z,5,GR86-036-98,64.4,-0.126,1.223,3.71,2.0,,0.0,0.0,
2025-08-15T02:17:53.895Z,5,GR86-036-98,63.8,-0.123,1.174,3.58,2.0,,0.0,0.0,
2025-08-15T02:17:53.939Z,5,GR86-036-98,63.7,-0.123,1.186,3.39,2.0,,0.0,0.0,
2025-08-15T02:17:53.982Z,5,GR86-036-98,63.3,-0.123,1.208,3.26,2.0,5165.0,0.0,0.0,
2025-08-15T02:17:54.025Z,5,GR86-036-98,61.900000000000006,-0.118,1.229,3.12,2.0,,0.0,0.0,94.66
2025-08-15T02:17:54.071Z,5,GR86-036-98,60.6,-0.121,1.242,3.01,2.0,,0.0,0.0,
2025-08-15T02:17:54.113Z,5,GR86-036-98,59.2,-0.132,1.232,3.18,2.0,,0.0,0.0,
2025-08-15T02:17:54.199Z,5,GR86-036-98,50.400000000000006,-0.112,1.214,20.15,2.0,5071.0,0.0,0.0,
2025-08-15T02:17:54.242Z,5,GR86-036-98,48.0,-0.112,1.275,22.31,2.0,,0.0,0.0,93.2
2025-08-15T02:17:54.285Z,5,GR86-036-98,47.900000000000006,-0.052,1.212,23.34,2.0,,0.0,0.0,
2025-08-15T02:17:54.330Z,5,GR86-036-98,47.900000000000006,-0.062,1.231,24.66,2.0,,0.0,0.0,
2025-08-15T02:17:54.372Z,5,GR86-036-98,53.8,-0.051,1.175,27.12,2.0,,0.0,0.0,
2025-08-15T02:17:54.415Z,5,GR86-036-98,56.5,0.12,1.201,27.71,2.0,4993.0,0.0,0.0,
2025-08-15T02:17:54.460Z,5,GR86-036-98,56.6,0.164,1.321,28.13,2.0,,0.0,0.0,90.53
2025-08-15T02:17:54.502Z,5,GR86-036-98,54.2,0.236,1.249,31.06,2.0,,0.0,0.0,
2025-08-15T02:17:54.545Z,5,GR86-036-98,50.900000000000006,0.183,1.126,32.89,2.0,,0.0,0.0,
2025-08-15T02:17:54.589Z,5,GR86-036-98,50.8,0.073,1.339,32.65,2.0,,0.0,0.0,
2025-08-15T02:17:54.631Z,5,GR86-036-98,58.5,0.249,1.328,30.98,2.0,5349.0,0.0,0.0,
2025-08-15T02:17:54.674Z,5,GR86-036-98,70.0,0.241,1.13,29.84,2.0,,0.0,0.0,90.16
2025-08-15T02:17:54.719Z,5,GR86-036-98,78.80000000000001,0.354,1.135,28.81,2.0,,0.0,0.0,
2025-08-15T02:17:54.762Z,5,GR86-036-98,79.30000000000001,-0.018,1.145,29.14,2.0,,0.0,0.0,
2025-08-15T02:17:54.805Z,5,GR86-036-98,78.30000000000001,0.087,1.399,29.15,2.0,,0.0,0.0,
2025-08-15T02:17:54.849Z,5,GR86-036-98,73.4,0.313,1.225,26.57,2.0,5329.0,0.0,0.0,
2025-08-15T02:17:54.892Z,5,GR86-036-98,71.10000000000001,0.3,1.009,24.97,2.0,,0.0,0.0,90.45
2025-08-15T02:17:54.935Z,5,GR86-036-98,70.4,0.054,1.034,26.43,2.0,,0.0,0.0,
2025-08-15T02:17:54.980Z,5,GR86-036-98,70.2,0.039,0.986,28.99,2.0,,0.0,0.0,
2025-08-15T02:17:55.022Z,5,GR86-036-98,70.10000000000001,-0.053,1.139,29.73,2.0,,0.0,0.0,
2025-08-15T02:17:55.065Z,5,GR86-036-98,70.3,0.203,1.205,28.61,2.0,5388.0,0.0,0.0,
2025-08-15T02:17:55.109Z,5,GR86-036-98,73.0,0.418,0.982,27.16,2.0,,0.0,0.0,91.1
2025-08-15T02:17:55.151Z,5,GR86-036-98,74.5,0.169,1.069,31.05,2.0,,0.0,0.0,
2025-08-15T02:17:55.194Z,5,GR86-036-98,74.8,-0.103,1.123,39.28,2.0,,0.0,0.0,
2025-08-15T02:17:55.239Z,5,GR86-036-98,72.10000000000001,-0.059,1.061,41.33,2.0,,0.0,0.0,
2025-08-15T02:17:55.282Z,5,GR86-036-98,65.60000000000001,0.116,1.378,52.66,2.0,5436.0,0.0,0.0,
2025-08-15T02:17:55.325Z,5,GR86-036-98,59.5,0.47,1.107,52.35,2.0,,0.0,0.0,92.03
2025-08-15T02:17:55.371Z,5,GR86-036-98,55.8,0.298,1.105,51.53,2.0,,0.0,0.0,
2025-08-15T02:17:55.414Z,5,GR86-036-98,55.5,0.269,1.18,52.09,2.0,,0.0,0.0,
2025-08-15T02:17:55.459Z,5,GR86-036-98,56.2,0.268,1.064,67.7,2.0,,0.0,0.0,
2025-08-15T02:17:55.502Z,5,GR86-036-98,58.7,0.326,1.061,98.36,2.0,5488.0,0.0,0.0,
2025-08-15T02:17:55.545Z,5,GR86-036-98,58.900000000000006,0.242,0.985,99.98,2.0,,0.0,0.0,93.4
2025-08-15T02:17:55.589Z,5,GR86-036-98,58.900000000000006,0.283,0.997,100.02,2.0,,0.0,0.0,
2025-08-15T02:17:55.631Z,5,GR86-036-98,58.3,0.275,0.963,100.04,2.0,,0.0,0.0,
2025-08-15T02:17:55.675Z,5,GR86-036-98,56.1,0.284,0.942,100.04,2.0,,0.0,0.0,
2025-08-15T02:17:55.720Z,5,GR86-036-98,55.5,0.311,0.929,100.03,2.0,5559.0,0.0,0.0,
2025-08-15T02:17:55.762Z,5,GR86-036-98,55.5,0.29,0.907,100.06,2.0,,0.0,0.0,94.61
2025-08-15T02:17:55.805Z,5,GR86-036-98,55.5,0.284,0.951,100.03,2.0,,0.0,0.0,
2025-08-15T02:17:55.849Z,5,GR86-036-98,55.6,0.273,0.938,100.03,2.0,,0.0,0.0,
2025-08-15T02:17:55.892Z,5,GR86-036-98,55.7,0.263,0.96,100.05,2.0,,0.0,0.0,
2025-08-15T02:17:55.935Z,5,GR86-036-98,55.7,0.268,0.938,100.03,2.0,5644.0,0.0,0.0,
2025-08-15T02:17:55.980Z,5,GR86-036-98,50.7,0.283,0.944,100.03,2.0,,0.0,0.0,96.58
2025-08-15T02:17:56.023Z,5,GR86-036-98,48.2,0.304,0.953,100.04,2.0,,0.0,0.0,
2025-08-15T02:17:56.066Z,5,GR86-036-98,46.400000000000006,0.29,0.908,100.04,2.0,,0.0,0.0,
2025-08-15T02:17:56.109Z,5,GR86-036-98,43.6,0.302,0.951,100.06,2.0,,0.0,0.0,
2025-08-15T02:17:56.152Z,5,GR86-036-98,40.0,0.289,0.91,100.07,2.0,5791.0,0.0,0.0,
2025-08-15T02:17:56.195Z,5,GR86-036-98,38.3,0.283,0.908,100.07,2.0,,0.0,0.0,98.36
2025-08-15T02:17:56.239Z,5,GR86-036-98,38.2,0.304,0.87,100.06,2.0,,0.0,0.0,
2025-08-15T02:17:56.282Z,5,GR86-036-98,44.5,0.306,0.858,100.06,2.0,,0.0,0.0,
2025-08-15T02:17:56.325Z,5,GR86-036-98,51.8,0.274,0.893,100.06,2.0,,0.0,0.0,
2025-08-15T02:17:56.371Z,5,GR86-036-98,55.900000000000006,0.277,0.903,100.06,2.0,5879.0,0.0,0.0,
2025-08-15T02:17:56.414Z,5,GR86-036-98,57.5,0.253,0.925,100.05,2.0,,0.0,0.0,99.94
2025-08-15T02:17:56.460Z,5,GR86-036-98,57.6,0.252,0.931,100.06,2.0,,0.0,0.0,
2025-08-15T02:17:56.502Z,5,GR86-036-98,57.6,0.281,0.942,100.06,2.0,,0.0,0.0,
2025-08-15T02:17:56.545Z,5,GR86-036-98,57.7,0.259,0.949,100.04,2.0,,0.0,0.0,
2025-08-15T02:17:56.589Z,5,GR86-036-98,55.8,0.268,0.958,100.06,2.0,5970.0,0.0,0.0,
2025-08-15T02:17:56.631Z,5,GR86-036-98,50.5,0.266,0.936,100.04,2.0,,0.0,0.0,101.48
2025-08-15T02:17:56.674Z,5,GR86-036-98,44.3,0.273,0.855,100.04,2.0,,0.0,0.0,
2025-08-15T02:17:56.720Z,5,GR86-036-98,36.8,0.364,0.899,100.04,2.0,,0.0,0.0,
2025-08-15T02:17:56.762Z,5,GR86-036-98,35.1,0.375,0.8140000000000001,100.03,2.0,,0.0,0.0,
2025-08-15T02:17:56.805Z,5,GR86-036-98,35.1,0.362,0.803,100.03,2.0,6112.0,0.0,0.0,
2025-08-15T02:17:56.849Z,5,GR86-036-98,35.1,0.277,0.711,100.03,2.0,,0.0,0.0,104.09
2025-08-15T02:17:56.892Z,5,GR86-036-98,35.5,0.184,0.6880000000000001,100.03,2.0,,0.0,0.0,
2025-08-15T02:17:56.935Z,5,GR86-036-98,38.0,0.159,0.61,100.03,2.0,,0.0,0.0,
2025-08-15T02:17:56.979Z,5,GR86-036-98,39.5,0.36,0.561,100.02,2.0,,0.0,0.0,
2025-08-15T02:17:57.022Z,5,GR86-036-98,39.5,0.248,0.683,100.03,2.0,6210.0,0.0,0.0,
2025-08-15T02:17:57.065Z,5,GR86-036-98,35.1,0.213,0.593,100.03,2.0,,0.0,0.0,107.03
2025-08-15T02:17:57.109Z,5,GR86-036-98,31.700000000000003,0.28,0.534,100.03,2.0,,0.0,0.0,
2025-08-15T02:17:57.152Z,5,GR86-036-98,31.4,0.176,0.667,100.03,2.0,,0.0,0.0,
2025-08-15T02:17:57.195Z,5,GR86-036-98,31.3,0.171,0.545,100.04,2.0,,0.0,0.0,
2025-08-15T02:17:57.239Z,5,GR86-036-98,30.8,0.392,0.856,100.03,2.0,6327.0,0.0,0.0,
2025-08-15T02:17:57.282Z,5,GR86-036-98,27.200000000000003,0.339,0.504,100.03,2.0,,0.0,0.0,109.04
2025-08-15T02:17:57.325Z,5,GR86-036-98,22.1,0.378,0.613,100.03,2.0,,0.0,0.0,
2025-08-15T02:17:57.371Z,5,GR86-036-98,17.400000000000002,0.25,0.595,100.04,2.0,,0.0,0.0,
2025-08-15T02:17:57.414Z,5,GR86-036-98,14.4,0.204,0.5680000000000001,100.03,2.0,,0.0,0.0,
2025-08-15T02:17:57.459Z,5,GR86-036-98,11.8,0.407,0.73,100.03,2.0,6536.0,0.0,0.0,
2025-08-15T02:17:57.502Z,5,GR86-036-98,10.5,0.383,0.6,100.0,2.0,,0.0,0.0,111.12
2025-08-15T02:17:57.545Z,5,GR86-036-98,9.7,0.353,0.507,100.03,2.0,,0.0,0.0,
