timestamp,lap,vehicle_id,steering_angle,accx_can,accy_can,ath,gear,nmot,pbrake_f,pbrake_r,speed
2025-08-15T04:46:53.952Z,10,GR86-065-5,-1.7000000000000002,0.127,-0.008,99.99,4.0,,0.0,0.0,184.34
2025-08-15T04:46:53.995Z,10,GR86-065-5,-1.7000000000000002,0.091,-0.002,100.01,4.0,,0.0,0.0,
2025-08-15T04:46:54.038Z,10,GR86-065-5,-1.7000000000000002,0.116,-0.012,99.97,4.0,,0.0,0.0,
2025-08-15T04:46:54.081Z,10,GR86-065-5,-1.7000000000000002,0.093,-0.001,99.98,4.0,,0.0,0.0,
2025-08-15T04:46:54.124Z,10,GR86-065-5,-1.7000000000000002,0.109,-0.008,99.99,4.0,7245.0,0.0,0.0,
2025-08-15T04:46:54.168Z,10,GR86-065-5,-1.7000000000000002,0.122,0.008,99.98,4.0,,0.0,0.0,184.34
2025-08-15T04:46:54.211Z,10,GR86-065-5,-1.7000000000000002,0.098,0.014,100.0,4.0,,0.0,0.0,
2025-08-15T04:46:54.254Z,10,GR86-065-5,-1.7000000000000002,0.104,0.012,100.0,4.0,,0.0,0.0,
2025-08-15T04:46:54.297Z,10,GR86-065-5,-1.7000000000000002,0.119,0.024,99.99,4.0,,0.0,0.0,
2025-08-15T04:46:54.385Z,10,GR86-065-5,-1.7000000000000002,0.109,0.005,99.99,4.0,7272.0,0.0,0.0,185.07
2025-08-15T04:46:54.428Z,10,GR86-065-5,-1.7000000000000002,-0.162,0.016,99.97,5.0,,0.0,0.0,
2025-08-15T04:46:54.471Z,10,GR86-065-5,-1.7000000000000002,0.211,0.027,100.0,5.0,,0.0,0.0,
2025-08-15T04:46:54.514Z,10,GR86-065-5,-1.7000000000000002,0.27,-0.049,99.99,5.0,,0.0,0.0,
2025-08-15T04:46:54.557Z,10,GR86-065-5,-1.7000000000000002,0.078,0.012,100.01,5.0,7292.0,0.0,0.0,
2025-08-15T04:46:54.643Z,10,GR86-065-5,-1.7000000000000002,0.152,0.014,99.99,5.0,,0.0,0.0,185.88
2025-08-15T04:46:54.686Z,10,GR86-065-5,-1.7000000000000002,0.143,0.089,100.0,5.0,,0.0,0.0,
2025-08-15T04:46:54.728Z,10,GR86-065-5,-1.7000000000000002,0.099,0.048,99.99,5.0,,0.0,0.0,
2025-08-15T04:46:54.772Z,10,GR86-065-5,-1.7000000000000002,0.062,0.033,100.0,5.0,6229.0,0.0,0.0,
2025-08-15T04:46:54.815Z,10,GR86-065-5,-1.7000000000000002,0.096,0.029,100.0,5.0,,0.0,0.0,186.53
2025-08-15T04:46:54.858Z,10,GR86-065-5,-1.7000000000000002,0.107,-0.021,100.0,5.0,,0.0,0.0,
2025-08-15T04:46:54.901Z,10,GR86-065-5,-1.7000000000000002,0.073,-0.022,100.0,5.0,,0.0,0.0,
2025-08-15T04:46:54.987Z,10,GR86-065-5,-1.7000000000000002,0.082,-0.012,100.0,5.0,6328.0,0.0,0.0,
2025-08-15T04:46:55.030Z,10,GR86-065-5,-1.7000000000000002,0.092,0.02,100.0,5.0,,0.0,0.0,187.34
2025-08-15T04:46:55.072Z,10,GR86-065-5,-1.7000000000000002,0.081,0.02,100.0,5.0,,0.0,0.0,
2025-08-15T04:46:55.116Z,10,GR86-065-5,-1.7000000000000002,0.101,0.014,99.99,5.0,,0.0,0.0,
2025-08-15T04:46:55.158Z,10,GR86-065-5,-1.7000000000000002,0.085,0.027,100.0,5.0,,0.0,0.0,
2025-08-15T04:46:55.202Z,10,GR86-065-5,-1.7000000000000002,0.077,0.008,100.0,5.0,6391.0,0.0,0.0,
2025-08-15T04:46:55.245Z,10,GR86-065-5,-1.7000000000000002,0.084,0.019,99.99,5.0,,0.0,0.0,188.04
2025-08-15T04:46:55.288Z,10,GR86-065-5,-1.7000000000000002,0.086,0.027,100.0,5.0,,0.0,0.0,
2025-08-15T04:46:55.331Z,10,GR86-065-5,-1.7000000000000002,0.079,0.034,99.99,5.0,,0.0,0.0,
2025-08-15T04:46:55.374Z,10,GR86-065-5,-1.7000000000000002,0.085,0.028,100.01,5.0,,0.0,0.0,
2025-08-15T04:46:55.417Z,10,GR86-065-5,-1.7000000000000002,0.084,0.044,99.99,5.0,6408.0,0.0,0.0,
2025-08-15T04:46:55.460Z,10,GR86-065-5,-1.7000000000000002,0.089,0.053,100.01,5.0,,0.0,0.0,188.79
2025-08-15T04:46:55.503Z,10,GR86-065-5,-1.7000000000000002,0.092,0.061,100.0,5.0,,0.0,0.0,
2025-08-15T04:46:55.546Z,10,GR86-065-5,-1.7000000000000002,0.089,0.049,99.99,5.0,,0.0,0.0,
2025-08-15T04:46:55.590Z,10,GR86-065-5,-1.7000000000000002,0.087,0.034,99.99,5.0,,0.0,0.0,
2025-08-15T04:46:55.633Z,10,GR86-065-5,-1.7000000000000002,0.087,0.006,100.01,5.0,6429.0,0.0,0.0,
2025-08-15T04:46:55.676Z,10,GR86-065-5,-1.7000000000000002,0.093,0.015,100.0,5.0,,0.0,0.0,189.39
2025-08-15T04:46:55.718Z,10,GR86-065-5,-1.7000000000000002,0.098,0.03,100.0,5.0,,0.0,0.0,
2025-08-15T04:46:55.762Z,10,GR86-065-5,-1.7000000000000002,0.087,0.072,100.0,5.0,,0.0,0.0,
2025-08-15T04:46:55.805Z,10,GR86-065-5,-1.7000000000000002,0.08,0.073,99.99,5.0,,0.0,0.0,
2025-08-15T04:46:55.848Z,10,GR86-065-5,-1.7000000000000002,0.088,0.061,99.99,5.0,6462.0,0.0,0.0,
2025-08-15T04:46:55.891Z,10,GR86-065-5,-1.7000000000000002,0.07,0.022,100.0,5.0,,0.0,0.0,190.08
2025-08-15T04:46:55.934Z,10,GR86-065-5,-1.7000000000000002,0.091,0.015,100.0,5.0,,0.0,0.0,
2025-08-15T04:46:55.977Z,10,GR86-065-5,-1.7000000000000002,0.098,-0.002,99.99,5.0,,0.0,0.0,
2025-08-15T04:46:56.020Z,10,GR86-065-5,-1.7000000000000002,0.089,0.058,100.0,5.0,,0.0,0.0,
2025-08-15T04:46:56.064Z,10,GR86-065-5,-1.7000000000000002,0.08,0.062,99.99,5.0,6481.0,0.0,0.0,
2025-08-15T04:46:56.107Z,10,GR86-065-5,-1.7000000000000002,0.07,0.041,100.0,5.0,,0.0,0.0,190.77
2025-08-15T04:46:56.150Z,10,GR86-065-5,-1.7000000000000002,0.072,0.033,100.0,5.0,,0.0,0.0,
2025-08-15T04:46:56.192Z,10,GR86-065-5,-1.7000000000000002,0.08,0.013,100.0,5.0,,0.0,0.0,
2025-08-15T04:46:56.236Z,10,GR86-065-5,-1.7000000000000002,0.101,0.028,100.0,5.0,,0.0,0.0,
2025-08-15T04:46:56.279Z,10,GR86-065-5,-1.7000000000000002,0.092,0.034,100.0,5.0,6505.0,0.0,0.0,
2025-08-15T04:46:56.322Z,10,GR86-065-5,-1.7000000000000002,0.059,0.014,100.0,5.0,,0.0,0.0,191.39
2025-08-15T04:46:56.365Z,10,GR86-065-5,-1.7000000000000002,0.061,0.014,99.99,5.0,,0.0,0.0,
2025-08-15T04:46:56.408Z,10,GR86-065-5,-1.7000000000000002,0.073,0.014,100.0,5.0,,0.0,0.0,
2025-08-15T04:46:56.451Z,10,GR86-065-5,-1.7000000000000002,0.073,0.023,100.0,5.0,,0.0,0.0,
2025-08-15T04:46:56.494Z,10,GR86-065-5,-1.7000000000000002,0.081,0.028,100.0,5.0,6521.0,0.0,0.0,
2025-08-15T04:46:56.537Z,10,GR86-065-5,-1.7000000000000002,0.089,0.024,99.98,5.0,,0.0,0.0,192.03
2025-08-15T04:46:56.580Z,10,GR86-065-5,-1.7000000000000002,0.068,0.01,100.0,5.0,,0.0,0.0,
2025-08-15T04:46:56.622Z,10,GR86-065-5,-1.7000000000000002,0.063,0.025,99.99,5.0,,0.0,0.0,
2025-08-15T04:46:56.666Z,10,GR86-065-5,-1.7000000000000002,0.057,0.032,99.99,5.0,,0.0,0.0,
2025-08-15T04:46:56.708Z,10,GR86-065-5,-1.7000000000000002,0.073,0.042,99.99,5.0,6547.0,0.0,0.0,
2025-08-15T04:46:56.752Z,10,GR86-065-5,-1.7000000000000002,0.077,0.055,100.0,5.0,,0.0,0.0,193.38
2025-08-15T04:46:56.795Z,10,GR86-065-5,-1.7000000000000002,0.078,0.062,99.99,5.0,,0.0,0.0,
2025-08-15T04:46:56.838Z,10,GR86-065-5,-1.7000000000000002,0.089,0.061,99.99,5.0,,0.0,0.0,
2025-08-15T04:46:56.881Z,10,GR86-065-5,-1.7000000000000002,0.06,0.017,100.0,5.0,,0.0,0.0,
2025-08-15T04:46:56.924Z,10,GR86-065-5,-1.7000000000000002,0.06,0.033,99.99,5.0,6570.0,0.0,0.0,
2025-08-15T04:46:56.968Z,10,GR86-065-5,-1.7000000000000002,0.059,0.03,99.99,5.0,,0.0,0.0,194.07
2025-08-15T04:46:57.011Z,10,GR86-065-5,-1.7000000000000002,0.067,0.059,99.99,5.0,,0.0,0.0,
2025-08-15T04:46:57.054Z,10,GR86-065-5,-1.7000000000000002,0.074,0.045,99.98,5.0,,0.0,0.0,
2025-08-15T04:46:57.097Z,10,GR86-065-5,-1.7000000000000002,0.073,0.028,100.0,5.0,,0.0,0.0,
2025-08-15T04:46:57.142Z,10,GR86-065-5,-1.7000000000000002,0.069,-0.007,100.0,5.0,6616.0,0.0,0.0,
2025-08-15T04:46:57.185Z,10,GR86-065-5,-1.7000000000000002,0.051,-0.005,100.0,5.0,,0.0,0.0,194.71
2025-08-15T04:46:57.228Z,10,GR86-065-5,-1.7000000000000002,0.059,0.013,100.0,5.0,,0.0,0.0,
2025-08-15T04:46:57.271Z,10,GR86-065-5,-1.7000000000000002,0.067,0.036,100.0,5.0,,0.0,0.0,
2025-08-15T04:46:57.315Z,10,GR86-065-5,-1.7000000000000002,0.066,0.01,100.0,5.0,,0.0,0.0,
2025-08-15T04:46:57.358Z,10,GR86-065-5,-1.7000000000000002,0.066,-0.005,99.99,5.0,6637.0,0.0,0.0,
2025-08-15T04:46:57.402Z,10,GR86-065-5,-1.7000000000000002,0.053,-0.028,100.0,5.0,,0.0,0.0,195.46
2025-08-15T04:46:57.445Z,10,GR86-065-5,-1.7000000000000002,0.047,-0.025,100.0,5.0,,0.0,0.0,
2025-08-15T04:46:57.488Z,10,GR86-065-5,-1.7000000000000002,0.041,-0.016,99.99,5.0,,0.0,0.0,
2025-08-15T04:46:57.531Z,10,GR86-065-5,-1.7000000000000002,0.061,-0.017,99.99,5.0,,0.0,0.0,
2025-08-15T04:46:57.574Z,10,GR86-065-5,-1.7000000000000002,0.077,-0.021,100.0,5.0,6655.0,0.0,0.0,
2025-08-15T04:46:57.617Z,10,GR86-065-5,-1.7000000000000002,0.071,-0.011,99.99,5.0,,0.0,0.0,196.03
2025-08-15T04:46:57.660Z,10,GR86-065-5,-1.7000000000000002,0.041,-0.053,99.99,5.0,,0.0,0.0,
2025-08-15T04:46:57.704Z,10,GR86-065-5,-1.7000000000000002,0.049,-0.03,100.0,5.0,,0.0,0.0,
2025-08-15T04:46:57.747Z,10,GR86-065-5,-1.7000000000000002,0.052,-0.012,100.0,5.0,,0.0,0.0,
2025-08-15T04:46:57.790Z,10,GR86-065-5,-1.7000000000000002,0.065,0.01,99.99,5.0,6688.0,0.0,0.0,
2025-08-15T04:46:57.833Z,10,GR86-065-5,-1.7000000000000002,0.093,0.005,99.99,5.0,,0.0,0.0,196.61
2025-08-15T04:46:57.876Z,10,GR86-065-5,-1.7000000000000002,0.099,0.003,100.0,5.0,,0.0,0.0,
2025-08-15T04:46:57.918Z,10,GR86-065-5,-1.7000000000000002,0.1,-0.008,99.99,5.0,,0.0,0.0,
2025-08-15T04:46:57.962Z,10,GR86-065-5,-1.7000000000000002,0.053,0.026,100.0,5.0,,0.0,0.0,
2025-08-15T04:46:58.005Z,10,GR86-065-5,-1.7000000000000002,0.066,0.018,99.98,5.0,6703.0,0.0,0.0,
2025-08-15T04:46:58.048Z,10,GR86-065-5,-1.7000000000000002,0.097,0.018,100.01,5.0,,0.0,0.0,197.38
2025-08-15T04:46:58.091Z,10,GR86-065-5,-1.7000000000000002,0.097,-0.009,99.99,5.0,,0.0,0.0,
2025-08-15T04:46:58.134Z,10,GR86-065-5,-1.7000000000000002,0.087,-0.026,100.0,5.0,,0.0,0.0,
2025-08-15T04:46:58.177Z,10,GR86-065-5,-1.7000000000000002,0.095,-0.027,99.99,5.0,,0.0,0.0,
2025-08-15T04:46:58.220Z,10,GR86-065-5,-1.7000000000000002,0.07,-0.033,99.99,5.0,6723.0,0.0,0.0,
2025-08-15T04:46:58.262Z,10,GR86-065-5,-1.7000000000000002,0.084,-0.023,100.0,5.0,,0.0,0.0,198.01
2025-08-15T04:46:58.306Z,10,GR86-065-5,-1.7000000000000002,0.098,-0.001,99.99,5.0,,0.0,0.0,
2025-08-15T04:46:58.348Z,10,GR86-065-5,-1.7000000000000002,0.099,0.003,100.0,5.0,,0.0,0.0,
2025-08-15T04:46:58.392Z,10,GR86-065-5,-1.7000000000000002,0.094,0.002,99.99,5.0,,0.0,0.0,
2025-08-15T04:46:58.435Z,10,GR86-065-5,-1.7000000000000002,0.055,-0.021,100.0,5.0,6755.0,0.0,0.0,
2025-08-15T04:46:58.478Z,10,GR86-065-5,-1.7000000000000002,0.057,-0.045,100.0,5.0,,0.0,0.0,198.7
2025-08-15T04:46:58.521Z,10,GR86-065-5,-1.7000000000000002,0.093,-0.012,100.0,5.0,,0.0,0.0,
2025-08-15T04:46:58.564Z,10,GR86-065-5,-1.7000000000000002,0.078,0.001,99.98,5.0,,0.0,0.0,
2025-08-15T04:46:58.607Z,10,GR86-065-5,-1.7000000000000002,0.072,-0.001,99.99,5.0,,0.0,0.0,
2025-08-15T04:46:58.650Z,10,GR86-065-5,-1.7000000000000002,0.055,-0.015,100.0,5.0,6774.0,0.0,0.0,
2025-08-15T04:46:58.693Z,10,GR86-065-5,-1.7000000000000002,0.031,-0.021,100.0,5.0,,0.0,0.0,199.46
2025-08-15T04:46:58.736Z,10,GR86-065-5,-1.7000000000000002,0.047,-0.032,99.98,5.0,,0.0,0.0,
2025-08-15T04:46:58.779Z,10,GR86-065-5,-1.7000000000000002,0.044,-0.011,100.0,5.0,,0.0,0.0,
2025-08-15T04:46:58.822Z,10,GR86-065-5,-1.7000000000000002,0.056,-0.023,99.99,5.0,,0.0,0.0,
2025-08-15T04:46:58.865Z,10,GR86-065-5,-1.7000000000000002,0.036,-0.028,100.0,5.0,6793.0,0.0,0.0,
2025-08-15T04:46:58.908Z,10,GR86-065-5,-1.7000000000000002,0.043,-0.017,99.99,5.0,,0.0,0.0,200.03
2025-08-15T04:46:58.951Z,10,GR86-065-5,-1.7000000000000002,0.04,0.022,99.98,5.0,,0.0,0.0,
2025-08-15T04:46:58.994Z,10,GR86-065-5,-1.7000000000000002,0.055,0.028,99.98,5.0,,0.0,0.0,
2025-08-15T04:46:59.037Z,10,GR86-065-5,-1.7000000000000002,0.074,0.046,99.97,5.0,,0.0,0.0,
2025-08-15T04:46:59.080Z,10,GR86-065-5,-1.7000000000000002,0.045,0.003,99.98,5.0,6820.0,0.0,0.0,
2025-08-15T04:46:59.122Z,10,GR86-065-5,-1.7000000000000002,0.048,0.011,99.98,5.0,,0.0,0.0,200.74
2025-08-15T04:46:59.166Z,10,GR86-065-5,-1.7000000000000002,0.046,0.046,99.97,5.0,,0.0,0.0,
2025-08-15T04:46:59.208Z,10,GR86-065-5,-1.7000000000000002,0.07,0.058,99.98,5.0,,0.0,0.0,
2025-08-15T04:46:59.252Z,10,GR86-065-5,-1.7000000000000002,0.099,0.055,99.99,5.0,,0.0,0.0,
2025-08-15T04:46:59.295Z,10,GR86-065-5,-1.7000000000000002,0.091,0.033,99.98,5.0,6837.0,0.0,0.0,
2025-08-15T04:46:59.338Z,10,GR86-065-5,-1.7000000000000002,0.082,0.049,100.0,5.0,,0.0,0.0,201.34
2025-08-15T04:46:59.381Z,10,GR86-065-5,-1.7000000000000002,0.084,0.072,99.99,5.0,,0.0,0.0,
2025-08-15T04:46:59.424Z,10,GR86-065-5,-1.7000000000000002,0.097,0.057,100.01,5.0,,0.0,0.0,
2025-08-15T04:46:59.468Z,10,GR86-065-5,-1.7000000000000002,0.098,0.04,100.0,5.0,,0.0,0.0,
2025-08-15T04:46:59.511Z,10,GR86-065-5,-1.7000000000000002,0.092,0.037,99.96,5.0,6851.0,0.0,0.0,
2025-08-15T04:46:59.554Z,10,GR86-065-5,-1.7000000000000002,0.069,0.034,99.98,5.0,,0.0,0.0,202.61
2025-08-15T04:46:59.597Z,10,GR86-065-5,-1.7000000000000002,0.06,0.028,99.99,5.0,,0.0,0.0,
2025-08-15T04:46:59.641Z,10,GR86-065-5,-1.7000000000000002,0.081,0.035,99.99,5.0,,0.0,0.0,
2025-08-15T04:46:59.685Z,10,GR86-065-5,-1.7000000000000002,0.08,0.023,100.0,5.0,,0.0,0.0,
2025-08-15T04:46:59.728Z,10,GR86-065-5,-1.7000000000000002,0.06,0.023,99.99,5.0,6879.0,0.0,0.0,
2025-08-15T04:46:59.771Z,10,GR86-065-5,-1.7000000000000002,0.038,0.025,99.98,5.0,,0.0,0.0,203.24
2025-08-15T04:46:59.815Z,10,GR86-065-5,-1.7000000000000002,0.055,0.034,99.99,5.0,,0.0,0.0,
2025-08-15T04:46:59.858Z,10,GR86-065-5,-1.7000000000000002,0.065,0.037,99.99,5.0,,0.0,0.0,
2025-08-15T04:46:59.901Z,10,GR86-065-5,-1.7000000000000002,0.048,0.031,100.0,5.0,,0.0,0.0,
2025-08-15T04:46:59.944Z,10,GR86-065-5,-1.7000000000000002,0.034,0.033,100.0,5.0,6925.0,0.0,0.0,
2025-08-15T04:46:59.987Z,10,GR86-065-5,-1.7000000000000002,0.055,0.04,100.0,5.0,,0.0,0.0,204.0
2025-08-15T04:47:00.030Z,10,GR86-065-5,-1.7000000000000002,0.073,0.046,99.99,5.0,,0.0,0.0,
2025-08-15T04:47:00.072Z,10,GR86-065-5,-1.7000000000000002,0.076,0.074,100.0,5.0,,0.0,0.0,
2025-08-15T04:47:00.116Z,10,GR86-065-5,-1.7000000000000002,0.091,0.029,99.98,5.0,,0.0,0.0,
2025-08-15T04:47:00.158Z,10,GR86-065-5,-1.7000000000000002,0.078,0.052,99.99,5.0,6943.0,0.0,0.0,
2025-08-15T04:47:00.202Z,10,GR86-065-5,-1.7000000000000002,0.076,0.09,99.99,5.0,,0.0,0.0,204.58
2025-08-15T04:47:00.245Z,10,GR86-065-5,-1.7000000000000002,0.086,0.076,99.97,5.0,,0.0,0.0,
2025-08-15T04:47:00.288Z,10,GR86-065-5,-1.7000000000000002,0.084,0.032,100.0,5.0,,0.0,0.0,
2025-08-15T04:47:00.331Z,10,GR86-065-5,-1.7000000000000002,0.059,0.026,100.0,5.0,,0.0,0.0,
2025-08-15T04:47:00.460Z,10,GR86-065-5,-1.7000000000000002,0.061,0.024,100.0,5.0,6966.0,0.0,0.0,205.1
2025-08-15T04:47:00.502Z,10,GR86-065-5,-1.7000000000000002,0.064,0.033,99.99,5.0,,0.0,0.0,
2025-08-15T04:47:00.588Z,10,GR86-065-5,-1.7000000000000002,0.06,0.054,99.98,5.0,6985.0,0.0,0.0,
2025-08-15T04:47:00.632Z,10,GR86-065-5,-1.7000000000000002,0.055,0.042,99.98,5.0,,0.0,0.0,205.73
2025-08-15T04:47:00.675Z,10,GR86-065-5,-1.7000000000000002,0.074,0.036,99.97,5.0,,0.0,0.0,
2025-08-15T04:47:00.718Z,10,GR86-065-5,-1.7000000000000002,0.071,0.043,100.0,5.0,,0.0,0.0,
2025-08-15T04:47:00.761Z,10,GR86-065-5,-1.7000000000000002,0.053,0.042,100.0,5.0,,0.0,0.0,
2025-08-15T04:47:00.805Z,10,GR86-065-5,-1.7000000000000002,0.075,0.045,99.99,5.0,7001.0,0.0,0.0,
2025-08-15T04:47:00.848Z,10,GR86-065-5,-1.7000000000000002,0.083,0.033,99.98,5.0,,0.0,0.0,206.18
2025-08-15T04:47:00.891Z,10,GR86-065-5,-1.7000000000000002,0.071,0.045,99.99,5.0,,0.0,0.0,
2025-08-15T04:47:00.934Z,10,GR86-065-5,-1.7000000000000002,0.045,0.032,99.97,5.0,,0.0,0.0,
2025-08-15T04:47:00.977Z,10,GR86-065-5,-1.7000000000000002,0.048,0.036,99.98,5.0,,0.0,0.0,
2025-08-15T04:47:01.020Z,10,GR86-065-5,-1.7000000000000002,0.065,0.046,99.99,5.0,7021.0,0.0,0.0,
2025-08-15T04:47:01.065Z,10,GR86-065-5,-1.7000000000000002,0.05,0.035,99.99,5.0,,0.0,0.0,206.79
2025-08-15T04:47:01.108Z,10,GR86-065-5,-1.7000000000000002,0.053,0.027,100.0,5.0,,0.0,0.0,
2025-08-15T04:47:01.152Z,10,GR86-065-5,-1.7000000000000002,0.052,0.017,100.0,5.0,,0.0,0.0,
2025-08-15T04:47:01.195Z,10,GR86-065-5,-1.7000000000000002,0.05,0.018,99.97,5.0,,0.0,0.0,
2025-08-15T04:47:01.238Z,10,GR86-065-5,-1.7000000000000002,0.066,0.011,99.99,5.0,7047.0,0.0,0.0,
2025-08-15T04:47:01.281Z,10,GR86-065-5,-1.7000000000000002,0.069,0.026,99.99,5.0,,0.0,0.0,207.21
2025-08-15T04:47:01.324Z,10,GR86-065-5,-1.7000000000000002,0.062,0.028,100.0,5.0,,0.0,0.0,
2025-08-15T04:47:01.368Z,10,GR86-065-5,-1.7000000000000002,0.055,0.025,100.01,5.0,,0.0,0.0,
2025-08-15T04:47:01.411Z,10,GR86-065-5,-1.7000000000000002,0.052,0.034,99.99,5.0,,0.0,0.0,
2025-08-15T04:47:01.454Z,10,GR86-065-5,-1.7000000000000002,0.044,0.018,100.0,5.0,7051.0,0.0,0.0,
2025-08-15T04:47:01.497Z,10,GR86-065-5,-1.7000000000000002,0.045,0.017,99.98,5.0,,0.0,0.0,207.8
2025-08-15T04:47:01.542Z,10,GR86-065-5,-1.7000000000000002,0.058,0.009,99.97,5.0,,0.0,0.0,
2025-08-15T04:47:01.585Z,10,GR86-065-5,-1.7000000000000002,0.054,0.019,99.99,5.0,,0.0,0.0,
2025-08-15T04:47:01.628Z,10,GR86-065-5,-1.7000000000000002,0.041,0.003,99.98,5.0,,0.0,0.0,
2025-08-15T04:47:01.671Z,10,GR86-065-5,-1.7000000000000002,0.061,-0.026,100.0,5.0,7074.0,0.0,0.0,
2025-08-15T04:47:01.714Z,10,GR86-065-5,-1.7000000000000002,0.054,-0.024,99.97,5.0,,0.0,0.0,208.34
2025-08-15T04:47:01.757Z,10,GR86-065-5,-1.7000000000000002,0.049,-0.004,99.99,5.0,,0.0,0.0,
2025-08-15T04:47:01.800Z,10,GR86-065-5,-1.7000000000000002,0.054,0.002,100.0,5.0,,0.0,0.0,
2025-08-15T04:47:01.842Z,10,GR86-065-5,-1.7000000000000002,0.067,-0.033,99.98,5.0,,0.0,0.0,
2025-08-15T04:47:01.886Z,10,GR86-065-5,-1.7000000000000002,0.038,-0.041,100.0,5.0,7090.0,0.0,0.0,
2025-08-15T04:47:01.929Z,10,GR86-065-5,-1.7000000000000002,0.056,-0.032,99.97,5.0,,0.0,0.0,208.84
2025-08-15T04:47:01.972Z,10,GR86-065-5,-1.7000000000000002,0.035,-0.03,99.99,5.0,,0.0,0.0,
2025-08-15T04:47:02.015Z,10,GR86-065-5,-1.7000000000000002,0.03,-0.05,99.98,5.0,,0.0,0.0,
2025-08-15T04:47:02.058Z,10,GR86-065-5,-1.7000000000000002,0.051,-0.068,99.98,5.0,,0.0,0.0,
2025-08-15T04:47:02.101Z,10,GR86-065-5,-1.7000000000000002,0.045,-0.05,99.98,5.0,7104.0,0.0,0.0,
2025-08-15T04:47:02.144Z,10,GR86-065-5,-1.7000000000000002,0.023,-0.055,99.98,5.0,,0.0,0.0,209.84
2025-08-15T04:47:02.187Z,10,GR86-065-5,-1.8,0.059,-0.072,99.97,5.0,,0.0,0.0,
2025-08-15T04:47:02.230Z,10,GR86-065-5,-1.8,0.058,-0.066,99.99,5.0,,0.0,0.0,
2025-08-15T04:47:02.273Z,10,GR86-065-5,-1.8,0.042,-0.062,100.0,5.0,,0.0,0.0,
2025-08-15T04:47:02.316Z,10,GR86-065-5,-1.8,0.045,-0.04,99.99,5.0,7127.0,0.0,0.0,
2025-08-15T04:47:02.358Z,10,GR86-065-5,-1.8,0.034,-0.04,99.98,5.0,,0.0,0.0,210.28
2025-08-15T04:47:02.402Z,10,GR86-065-5,-1.8,0.036,-0.06,99.99,5.0,,0.0,0.0,
2025-08-15T04:47:02.445Z,10,GR86-065-5,-1.8,0.042,-0.047,99.99,5.0,,0.0,0.0,
2025-08-15T04:47:02.488Z,10,GR86-065-5,-1.8,0.032,-0.047,99.97,5.0,,0.0,0.0,
2025-08-15T04:47:02.531Z,10,GR86-065-5,-1.8,0.067,-0.087,99.98,5.0,7139.0,0.0,0.0,
2025-08-15T04:47:02.574Z,10,GR86-065-5,-1.8,0.06,-0.079,99.97,5.0,,0.0,0.0,210.7
2025-08-15T04:47:02.617Z,10,GR86-065-5,-1.8,0.062,-0.076,99.99,5.0,,0.0,0.0,
2025-08-15T04:47:02.660Z,10,GR86-065-5,-1.8,0.046,-0.058,99.98,5.0,,0.0,0.0,
2025-08-15T04:47:02.702Z,10,GR86-065-5,-1.8,0.071,-0.059,97.43,5.0,,3.1,2.67,
2025-08-15T04:47:02.746Z,10,GR86-065-5,-1.8,0.043,-0.06,40.76,5.0,7167.0,14.3,13.675,
2025-08-15T04:47:02.790Z,10,GR86-065-5,-1.9,-0.08,-0.044,31.89,5.0,,28.185,27.53,211.03
2025-08-15T04:47:02.833Z,10,GR86-065-5,-1.9,-0.365,-0.01,17.26,5.0,,45.245,45.03,
2025-08-15T04:47:02.876Z,10,GR86-065-5,-2.0,-0.8310000000000001,0.003,7.24,5.0,,64.0,64.06,
2025-08-15T04:47:02.918Z,10,GR86-065-5,-2.0,-1.194,0.015,7.0600000000000005,5.0,,79.87,80.055,
2025-08-15T04:47:02.962Z,10,GR86-065-5,-2.0,-1.43,0.038,5.32,5.0,7175.0,94.37,94.045,
2025-08-15T04:47:03.005Z,10,GR86-065-5,-2.0,-1.426,0.035,3.92,5.0,,99.71,97.88,211.44
2025-08-15T04:47:03.048Z,10,GR86-065-5,-3.0,-1.508,0.026,3.44,5.0,,100.0,99.02,
2025-08-15T04:47:03.091Z,10,GR86-065-5,-3.1,-1.486,0.004,2.99,5.0,,96.46,96.015,
2025-08-15T04:47:03.134Z,10,GR86-065-5,-3.1,-1.249,-0.019,2.82,5.0,,95.62,93.71,
2025-08-15T04:47:03.177Z,10,GR86-065-5,-2.1,-1.373,0.007,2.73,5.0,6792.0,80.62,80.25,
2025-08-15T04:47:03.220Z,10,GR86-065-5,-0.3,-1.253,0.028,2.63,5.0,,70.395,69.875,210.29
2025-08-15T04:47:03.262Z,10,GR86-065-5,-2.6,-1.089,0.09,2.57,5.0,,71.205,69.37,
2025-08-15T04:47:03.306Z,10,GR86-065-5,-7.9,-1.216,0.052,19.82,5.0,,68.305,68.03,
2025-08-15T04:47:03.348Z,10,GR86-065-5,-10.3,-1.206,0.027,64.88,5.0,,67.02,66.58,
2025-08-15T04:47:03.392Z,10,GR86-065-5,-10.6,-1.209,-0.018,99.47,5.0,6369.0,70.0,68.275,
2025-08-15T04:47:03.435Z,10,GR86-065-5,-8.3,-1.175,-0.011,87.21000000000001,4.0,,71.645,70.33500000000001,198.96
2025-08-15T04:47:03.478Z,10,GR86-065-5,-5.6000000000000005,-1.113,0.014,16.03,4.0,,70.425,69.77,
2025-08-15T04:47:03.521Z,10,GR86-065-5,-5.2,-1.18,0.118,3.48,4.0,,74.24,72.3,
2025-08-15T04:47:03.564Z,10,GR86-065-5,-5.800000000000001,-1.217,-0.027,3.0,4.0,,73.2,72.545,
2025-08-15T04:47:03.607Z,10,GR86-065-5,-7.1000000000000005,-1.166,-0.013,2.86,4.0,6018.0,72.605,71.89,
2025-08-15T04:47:03.650Z,10,GR86-065-5,-7.2,-1.259,-0.04,2.78,4.0,,74.895,73.14,187.64
2025-08-15T04:47:03.692Z,10,GR86-065-5,-7.2,-1.231,-0.107,2.7,4.0,,76.3,75.005,
2025-08-15T04:47:03.736Z,10,GR86-065-5,-6.800000000000001,-1.186,-0.04,2.64,4.0,,75.34,74.5,
2025-08-15T04:47:03.779Z,10,GR86-065-5,-6.800000000000001,-1.21,-0.024,2.6,4.0,,77.14,75.52,
2025-08-15T04:47:03.822Z,10,GR86-065-5,-6.9,-1.238,-0.136,2.54,4.0,6813.0,77.675,76.745,
2025-08-15T04:47:03.865Z,10,GR86-065-5,-6.9,-1.159,-0.18,2.54,4.0,,76.115,75.84,182.48
2025-08-15T04:47:03.909Z,10,GR86-065-5,-6.9,-1.214,-0.15,2.5,4.0,,76.42,75.78,
2025-08-15T04:47:03.952Z,10,GR86-065-5,-6.9,-1.196,-0.137,2.5,4.0,,78.175,76.895,
2025-08-15T04:47:03.995Z,10,GR86-065-5,-6.9,-1.241,-0.159,22.05,4.0,,76.055,75.905,
2025-08-15T04:47:04.039Z,10,GR86-065-5,-6.9,-1.236,-0.196,67.37,4.0,6402.0,75.005,75.005,
2025-08-15T04:47:04.082Z,10,GR86-065-5,-6.9,-1.171,-0.181,99.99,4.0,,73.815,73.78,174.12
2025-08-15T04:47:04.125Z,10,GR86-065-5,-7.0,-1.209,-0.268,93.01,3.0,,72.01,71.58500000000001,
2025-08-15T04:47:04.168Z,10,GR86-065-5,-7.4,-1.213,-0.265,25.38,3.0,,66.045,64.64,
2025-08-15T04:47:04.211Z,10,GR86-065-5,-7.5,-1.186,-0.213,3.5,3.0,,57.24,55.575,
2025-08-15T04:47:04.254Z,10,GR86-065-5,-7.5,-1.015,-0.376,2.92,3.0,6164.0,46.71,45.81,
2025-08-15T04:47:04.297Z,10,GR86-065-5,-7.2,-0.955,-0.373,2.73,3.0,,38.35,37.205,166.23
2025-08-15T04:47:04.342Z,10,GR86-065-5,-6.7,-0.87,-0.338,2.62,3.0,,31.33,30.275,
2025-08-15T04:47:04.428Z,10,GR86-065-5,-6.7,-0.775,-0.415,2.59,3.0,,29.465,28.46,
2025-08-15T04:47:04.471Z,10,GR86-065-5,-12.5,-0.807,-0.424,2.54,3.0,6279.0,29.59,28.87,
2025-08-15T04:47:04.515Z,10,GR86-065-5,-15.4,-0.808,-0.462,2.53,3.0,,30.155,29.65,158.77
2025-08-15T04:47:04.558Z,10,GR86-065-5,-17.400000000000002,-0.8180000000000001,-0.472,2.5,3.0,,31.025,30.305,
2025-08-15T04:47:04.602Z,10,GR86-065-5,-21.6,-0.809,-0.444,2.51,3.0,,31.77,31.235,
2025-08-15T04:47:04.645Z,10,GR86-065-5,-24.8,-0.834,-0.478,2.5,3.0,,32.38,31.65,
2025-08-15T04:47:04.688Z,10,GR86-065-5,-25.9,-0.8310000000000001,-0.555,2.5,3.0,6710.0,32.335,31.39,
2025-08-15T04:47:04.731Z,10,GR86-065-5,-27.0,-0.835,-0.638,2.5,3.0,,32.230000000000004,31.65,152.4
2025-08-15T04:47:04.774Z,10,GR86-065-5,-28.8,-0.8310000000000001,-0.64,2.5,3.0,,32.78,31.985,
2025-08-15T04:47:04.817Z,10,GR86-065-5,-30.5,-0.8230000000000001,-0.6920000000000001,2.5,3.0,,33.25,32.475,
2025-08-15T04:47:04.860Z,10,GR86-065-5,-30.6,-0.8270000000000001,-0.789,2.51,3.0,,33.1,32.335,
2025-08-15T04:47:04.904Z,10,GR86-065-5,-27.6,-0.848,-0.8240000000000001,2.51,3.0,6523.0,32.78,31.985,
2025-08-15T04:47:04.947Z,10,GR86-065-5,-26.6,-0.8130000000000001,-0.811,2.51,3.0,,32.445,31.65,141.19
2025-08-15T04:47:04.990Z,10,GR86-065-5,-27.0,-0.797,-0.812,2.51,3.0,,31.925,31.025,
2025-08-15T04:47:05.032Z,10,GR86-065-5,-31.0,-0.798,-0.864,2.5,3.0,,30.52,29.36,
2025-08-15T04:47:05.076Z,10,GR86-065-5,-32.5,-0.761,-0.924,2.49,3.0,,27.895,26.69,
2025-08-15T04:47:05.118Z,10,GR86-065-5,-32.5,-0.683,-0.967,2.5,3.0,6220.0,23.425,22.37,
2025-08-15T04:47:05.162Z,10,GR86-065-5,-31.1,-0.588,-1.01,2.51,3.0,,14.575,13.64,136.54
2025-08-15T04:47:05.205Z,10,GR86-065-5,-31.0,-0.5660000000000001,-1.074,2.5,3.0,,10.055,9.215,
2025-08-15T04:47:05.248Z,10,GR86-065-5,-33.2,-0.447,-1.179,2.5,3.0,,6.24,5.675,
2025-08-15T04:47:05.291Z,10,GR86-065-5,-37.4,-0.333,-1.195,2.5,3.0,,2.73,2.275,
2025-08-15T04:47:05.334Z,10,GR86-065-5,-43.3,-0.283,-1.258,2.5,3.0,5958.0,0.0,0.0,
2025-08-15T04:47:05.377Z,10,GR86-065-5,-48.5,-0.217,-1.273,2.5,3.0,,0.0,0.0,131.31
2025-08-15T04:47:05.420Z,10,GR86-065-5,-51.900000000000006,-0.197,-1.31,2.49,3.0,,0.0,0.0,
2025-08-15T04:47:05.462Z,10,GR86-065-5,-52.1,-0.186,-1.304,2.51,3.0,,0.0,0.0,
2025-08-15T04:47:05.506Z,10,GR86-065-5,-53.0,-0.223,-1.36,2.96,3.0,,0.0,0.0,
2025-08-15T04:47:05.548Z,10,GR86-065-5,-55.2,-0.212,-1.347,4.78,3.0,5661.0,0.0,0.0,
2025-08-15T04:47:05.592Z,10,GR86-065-5,-55.6,-0.18,-1.292,18.25,3.0,,0.0,0.0,127.86
2025-08-15T04:47:05.635Z,10,GR86-065-5,-55.7,-0.216,-1.359,20.64,3.0,,0.0,0.0,
2025-08-15T04:47:05.678Z,10,GR86-065-5,-52.0,-0.207,-1.395,24.15,3.0,,0.0,0.0,
2025-08-15T04:47:05.721Z,10,GR86-065-5,-35.1,-0.155,-1.285,36.41,3.0,,0.0,0.0,
2025-08-15T04:47:05.764Z,10,GR86-065-5,-31.1,-0.125,-1.334,46.97,3.0,5609.0,0.0,0.0,
2025-08-15T04:47:05.807Z,10,GR86-065-5,-30.5,-0.103,-1.298,53.52,3.0,,0.0,0.0,125.45
2025-08-15T04:47:05.850Z,10,GR86-065-5,-31.200000000000003,0.056,-1.213,55.59,3.0,,0.0,0.0,
2025-08-15T04:47:05.892Z,10,GR86-065-5,-32.800000000000004,0.129,-1.284,58.92,3.0,,0.0,0.0,
2025-08-15T04:47:05.936Z,10,GR86-065-5,-33.0,0.077,-1.197,72.17,3.0,,0.0,0.0,
2025-08-15T04:47:05.979Z,10,GR86-065-5,-33.0,0.125,-1.297,77.55,3.0,5602.0,0.0,0.0,
2025-08-15T04:47:06.022Z,10,GR86-065-5,-22.4,0.108,-1.215,90.8,3.0,,0.0,0.0,123.7
2025-08-15T04:47:06.065Z,10,GR86-065-5,-10.6,0.112,-1.288,96.87,3.0,,0.0,0.0,
2025-08-15T04:47:06.108Z,10,GR86-065-5,-0.1,0.153,-1.139,99.75,3.0,,0.0,0.0,
2025-08-15T04:47:06.151Z,10,GR86-065-5,9.3,0.139,-1.096,99.92,3.0,,0.0,0.0,
2025-08-15T04:47:06.194Z,10,GR86-065-5,13.6,0.19,-1.134,99.92,3.0,5982.0,0.0,0.0,
2025-08-15T04:47:06.238Z,10,GR86-065-5,18.8,0.172,-0.955,99.93,3.0,,0.0,0.0,122.57
2025-08-15T04:47:06.281Z,10,GR86-065-5,23.4,0.182,-1.107,99.96,3.0,,0.0,0.0,
2025-08-15T04:47:06.324Z,10,GR86-065-5,23.4,0.212,-1.304,99.97,3.0,,0.0,0.0,
2025-08-15T04:47:06.368Z,10,GR86-065-5,19.0,0.208,-1.341,99.96,3.0,,0.0,0.0,
2025-08-15T04:47:06.411Z,10,GR86-065-5,11.5,0.366,-1.246,99.96,3.0,6248.0,0.0,0.0,
2025-08-15T04:47:06.454Z,10,GR86-065-5,10.3,0.156,-1.268,99.97,3.0,,0.0,0.0,123.44
2025-08-15T04:47:06.497Z,10,GR86-065-5,20.8,0.052,-1.068,99.97,3.0,,0.0,0.0,
2025-08-15T04:47:06.585Z,10,GR86-065-5,71.0,0.293,-1.036,61.42,3.0,,0.0,0.0,
2025-08-15T04:47:06.628Z,10,GR86-065-5,86.5,0.328,-0.957,58.47,3.0,6476.0,0.0,0.0,
2025-08-15T04:47:06.671Z,10,GR86-065-5,100.7,0.332,-1.106,53.31,3.0,,0.0,0.0,123.67
2025-08-15T04:47:06.714Z,10,GR86-065-5,110.7,0.343,-0.913,45.21,3.0,,0.0,0.0,
2025-08-15T04:47:06.757Z,10,GR86-065-5,117.3,0.295,-0.919,41.04,3.0,,0.0,0.0,
2025-08-15T04:47:06.800Z,10,GR86-065-5,117.2,0.31,-0.861,40.23,3.0,,0.0,0.0,
2025-08-15T04:47:06.844Z,10,GR86-065-5,117.2,0.261,-1.026,40.54,3.0,6805.0,0.0,0.0,
2025-08-15T04:47:06.887Z,10,GR86-065-5,117.5,0.25,-0.947,41.17,3.0,,0.0,0.0,126.67
2025-08-15T04:47:06.930Z,10,GR86-065-5,109.4,0.201,-0.855,44.21,3.0,,0.0,0.0,
2025-08-15T04:47:06.973Z,10,GR86-065-5,78.9,0.201,-0.863,51.38,3.0,,0.0,0.0,
2025-08-15T04:47:07.058Z,10,GR86-065-5,5.2,0.197,-1.136,58.44,3.0,6354.0,0.0,0.0,
2025-08-15T04:47:07.102Z,10,GR86-065-5,-45.7,0.14,-1.233,98.68,3.0,,0.0,0.0,124.63
2025-08-15T04:47:07.145Z,10,GR86-065-5,-73.60000000000001,0.148,-1.26,99.97,3.0,,0.0,0.0,
2025-08-15T04:47:07.188Z,10,GR86-065-5,-85.30000000000001,0.192,-1.218,99.92,3.0,,0.0,0.0,
2025-08-15T04:47:07.231Z,10,GR86-065-5,-85.60000000000001,0.185,-1.095,99.94,3.0,,0.0,0.0,
2025-08-15T04:47:07.274Z,10,GR86-065-5,-84.0,0.142,-1.052,99.93,3.0,6012.0,0.0,0.0,
2025-08-15T04:47:07.317Z,10,GR86-065-5,-78.7,0.115,-1.004,99.93,3.0,,0.0,0.0,124.4
2025-08-15T04:47:07.360Z,10,GR86-065-5,-65.3,0.102,-0.981,99.93,3.0,,0.0,0.0,
2025-08-15T04:47:07.402Z,10,GR86-065-5,-54.8,0.119,-0.94,99.93,3.0,,0.0,0.0,
2025-08-15T04:47:07.446Z,10,GR86-065-5,-45.8,0.127,-0.952,99.94,3.0,,0.0,0.0,
2025-08-15T04:47:07.488Z,10,GR86-065-5,-39.6,0.147,-1.006,99.93,3.0,5946.0,0.0,0.0,
2025-08-15T04:47:07.532Z,10,GR86-065-5,-34.7,0.179,-1.015,99.92,3.0,,0.0,0.0,123.97
2025-08-15T04:47:07.575Z,10,GR86-065-5,-30.3,0.168,-1.053,99.92,3.0,,0.0,0.0,
2025-08-15T04:47:07.618Z,10,GR86-065-5,-24.5,0.174,-1.066,99.93,3.0,,0.0,0.0,
2025-08-15T04:47:07.661Z,10,GR86-065-5,-20.0,0.171,-1.019,99.95,3.0,,0.0,0.0,
2025-08-15T04:47:07.704Z,10,GR86-065-5,-20.200000000000003,0.196,-1.014,99.96,3.0,5818.0,0.0,0.0,
2025-08-15T04:47:07.747Z,10,GR86-065-5,-28.6,0.2,-1.005,99.96,3.0,,0.0,0.0,126.36
2025-08-15T04:47:07.790Z,10,GR86-065-5,-38.0,0.169,-1.04,99.96,3.0,,0.0,0.0,
2025-08-15T04:47:07.832Z,10,GR86-065-5,-45.5,0.173,-1.072,99.96,3.0,,0.0,0.0,
2025-08-15T04:47:07.876Z,10,GR86-065-5,-50.6,0.165,-1.095,99.97,3.0,,0.0,0.0,
2025-08-15T04:47:07.918Z,10,GR86-065-5,-52.900000000000006,0.131,-1.122,99.95,3.0,5989.0,0.0,0.0,
2025-08-15T04:47:07.962Z,10,GR86-065-5,-53.5,0.152,-1.122,99.95,3.0,,0.0,0.0,127.05
2025-08-15T04:47:08.005Z,10,GR86-065-5,-53.5,0.129,-1.099,99.96,3.0,,0.0,0.0,
2025-08-15T04:47:08.048Z,10,GR86-065-5,-53.5,0.14,-1.116,99.95,3.0,,0.0,0.0,
2025-08-15T04:47:08.091Z,10,GR86-065-5,-53.5,0.135,-1.105,99.94,3.0,,0.0,0.0,
2025-08-15T04:47:08.134Z,10,GR86-065-5,-50.400000000000006,0.108,-1.161,99.92,3.0,6017.0,0.0,0.0,
2025-08-15T04:47:08.177Z,10,GR86-065-5,-43.8,0.135,-1.163,99.93,3.0,,0.0,0.0,127.6
2025-08-15T04:47:08.222Z,10,GR86-065-5,-34.300000000000004,0.147,-1.069,99.93,3.0,,0.0,0.0,
2025-08-15T04:47:08.265Z,10,GR86-065-5,-29.0,0.139,-0.984,99.94,3.0,,0.0,0.0,
2025-08-15T04:47:08.308Z,10,GR86-065-5,-26.5,0.146,-0.635,99.94,3.0,,0.0,0.0,
2025-08-15T04:47:08.352Z,10,GR86-065-5,-23.5,0.071,-0.808,99.96,3.0,6119.0,0.0,0.0,
2025-08-15T04:47:08.395Z,10,GR86-065-5,-19.3,0.152,-0.764,99.96,3.0,,0.0,0.0,129.33
2025-08-15T04:47:08.438Z,10,GR86-065-5,-15.2,0.219,-0.958,99.96,3.0,,0.0,0.0,
2025-08-15T04:47:08.481Z,10,GR86-065-5,-11.0,0.111,-0.894,99.93,3.0,,0.0,0.0,
2025-08-15T04:47:08.524Z,10,GR86-065-5,-9.6,0.18,-1.137,99.93,3.0,,0.0,0.0,
2025-08-15T04:47:08.568Z,10,GR86-065-5,-8.4,0.283,-1.077,99.97,3.0,6235.0,0.0,0.0,
2025-08-15T04:47:08.611Z,10,GR86-065-5,-6.1000000000000005,0.286,-0.956,99.93,3.0,,0.0,0.0,130.58
2025-08-15T04:47:08.654Z,10,GR86-065-5,-1.4,0.257,-0.763,99.93,3.0,,0.0,0.0,
2025-08-15T04:47:08.697Z,10,GR86-065-5,3.0,0.177,-0.97,99.96,3.0,,0.0,0.0,
2025-08-15T04:47:08.742Z,10,GR86-065-5,8.200000000000001,0.388,-1.172,99.93,3.0,,0.0,0.0,
2025-08-15T04:47:08.785Z,10,GR86-065-5,12.3,0.227,-1.117,99.94,3.0,6289.0,0.0,0.0,
2025-08-15T04:47:08.828Z,10,GR86-065-5,17.400000000000002,0.111,-1.18,99.94,3.0,,0.0,0.0,130.31
2025-08-15T04:47:08.871Z,10,GR86-065-5,21.700000000000003,0.099,-1.042,99.94,3.0,,0.0,0.0,
2025-08-15T04:47:08.914Z,10,GR86-065-5,23.1,0.074,-1.154,99.94,3.0,,0.0,0.0,
2025-08-15T04:47:08.957Z,10,GR86-065-5,23.200000000000003,0.267,-0.897,99.96,3.0,,0.0,0.0,
2025-08-15T04:47:09.000Z,10,GR86-065-5,13.3,0.065,-0.687,99.97,3.0,6377.0,0.0,0.0,
2025-08-15T04:47:09.042Z,10,GR86-065-5,1.0,0.082,-0.758,99.97,3.0,,0.0,0.0,131.57
2025-08-15T04:47:09.086Z,10,GR86-065-5,-10.7,0.21,-0.906,99.96,3.0,,0.0,0.0,
2025-08-15T04:47:09.130Z,10,GR86-065-5,-18.5,0.297,-0.845,99.96,3.0,,0.0,0.0,
2025-08-15T04:47:09.173Z,10,GR86-065-5,-20.8,0.209,-0.739,99.96,3.0,,0.0,0.0,
2025-08-15T04:47:09.216Z,10,GR86-065-5,-20.8,0.113,-0.777,99.94,3.0,6279.0,0.0,0.0,
2025-08-15T04:47:09.258Z,10,GR86-065-5,-18.6,0.159,-0.65,99.92,3.0,,0.0,0.0,132.06
2025-08-15T04:47:09.302Z,10,GR86-065-5,-15.9,0.209,-0.518,99.96,3.0,,0.0,0.0,
2025-08-15T04:47:09.345Z,10,GR86-065-5,-15.9,0.202,-0.384,99.96,3.0,,0.0,0.0,
2025-08-15T04:47:09.388Z,10,GR86-065-5,-15.9,0.164,-0.351,99.96,3.0,,0.0,0.0,
2025-08-15T04:47:09.431Z,10,GR86-065-5,-15.9,0.141,-0.32,99.97,3.0,6315.0,0.0,0.0,
2025-08-15T04:47:09.474Z,10,GR86-065-5,-15.9,0.201,-0.335,99.96,3.0,,0.0,0.0,132.35
2025-08-15T04:47:09.517Z,10,GR86-065-5,-15.9,0.147,-0.288,99.94,3.0,,0.0,0.0,
2025-08-15T04:47:09.560Z,10,GR86-065-5,-12.5,0.133,-0.31,99.96,3.0,,0.0,0.0,
2025-08-15T04:47:09.602Z,10,GR86-065-5,-11.9,0.086,-0.324,99.96,3.0,,0.0,0.0,
2025-08-15T04:47:09.646Z,10,GR86-065-5,-11.7,0.147,-0.366,99.96,3.0,6287.0,0.0,0.0,
2025-08-15T04:47:09.689Z,10,GR86-065-5,-11.7,0.316,-0.254,99.97,3.0,,0.0,0.0,134.38
2025-08-15T04:47:09.732Z,10,GR86-065-5,-11.7,0.187,-0.319,99.96,3.0,,0.0,0.0,
2025-08-15T04:47:09.775Z,10,GR86-065-5,-11.7,0.1,-0.396,99.97,3.0,,0.0,0.0,
2025-08-15T04:47:09.818Z,10,GR86-065-5,-11.7,0.193,-0.428,99.96,3.0,,0.0,0.0,
2025-08-15T04:47:09.861Z,10,GR86-065-5,-11.7,0.133,-0.304,99.97,3.0,6399.0,0.0,0.0,
2025-08-15T04:47:09.904Z,10,GR86-065-5,-10.9,0.158,-0.342,99.96,3.0,,0.0,0.0,135.43
2025-08-15T04:47:09.947Z,10,GR86-065-5,-9.1,0.213,-0.225,99.97,3.0,,0.0,0.0,
2025-08-15T04:47:09.990Z,10,GR86-065-5,-8.8,0.085,-0.273,99.96,3.0,,0.0,0.0,
2025-08-15T04:47:10.032Z,10,GR86-065-5,-8.8,0.19,-0.321,99.97,3.0,,0.0,0.0,
2025-08-15T04:47:10.076Z,10,GR86-065-5,-8.8,0.23,-0.157,99.96,3.0,6447.0,0.0,0.0,
2025-08-15T04:47:10.119Z,10,GR86-065-5,-8.8,0.181,-0.163,99.96,3.0,,0.0,0.0,136.69
2025-08-15T04:47:10.162Z,10,GR86-065-5,-8.6,0.224,-0.215,99.97,3.0,,0.0,0.0,
2025-08-15T04:47:10.205Z,10,GR86-065-5,-8.1,0.271,-0.279,99.96,3.0,,0.0,0.0,
2025-08-15T04:47:10.248Z,10,GR86-065-5,-7.9,0.237,-0.247,99.96,3.0,,0.0,0.0,
2025-08-15T04:47:10.291Z,10,GR86-065-5,-7.9,0.144,-0.267,99.97,3.0,6519.0,0.0,0.0,
2025-08-15T04:47:10.334Z,10,GR86-065-5,-7.9,0.142,-0.395,99.97,3.0,,0.0,0.0,138.0
2025-08-15T04:47:10.377Z,10,GR86-065-5,-8.0,0.152,-0.149,99.97,3.0,,0.0,0.0,
2025-08-15T04:47:10.420Z,10,GR86-065-5,-8.200000000000001,0.159,-0.116,99.96,3.0,,0.0,0.0,
2025-08-15T04:47:10.462Z,10,GR86-065-5,-8.200000000000001,0.122,0.005,99.96,3.0,,0.0,0.0,
2025-08-15T04:47:10.506Z,10,GR86-065-5,-7.800000000000001,0.115,-0.131,99.97,3.0,6596.0,0.0,0.0,
2025-08-15T04:47:10.548Z,10,GR86-065-5,-5.2,0.172,-0.081,99.93,3.0,,0.0,0.0,140.92000000000002
2025-08-15T04:47:10.592Z,10,GR86-065-5,-3.3000000000000003,0.154,-0.011,99.95,3.0,,0.0,0.0,
2025-08-15T04:47:10.635Z,10,GR86-065-5,-1.4,0.145,-0.043,99.96,3.0,,0.0,0.0,
2025-08-15T04:47:10.678Z,10,GR86-065-5,0.1,0.139,-0.021,99.97,3.0,,0.0,0.0,
2025-08-15T04:47:10.721Z,10,GR86-065-5,1.5,0.185,0.008,99.97,3.0,6605.0,0.0,0.0,
2025-08-15T04:47:10.765Z,10,GR86-065-5,1.6,0.086,0.063,99.97,3.0,,0.0,0.0,142.24
2025-08-15T04:47:10.808Z,10,GR86-065-5,2.1,-0.015,0.207,99.97,3.0,,0.0,0.0,
2025-08-15T04:47:10.851Z,10,GR86-065-5,3.1,-0.083,0.291,99.97,3.0,,0.0,0.0,
2025-08-15T04:47:10.894Z,10,GR86-065-5,3.8,0.032,0.343,99.97,3.0,,0.0,0.0,
2025-08-15T04:47:10.938Z,10,GR86-065-5,4.0,0.236,0.47,99.97,3.0,6776.0,0.0,0.0,
2025-08-15T04:47:10.981Z,10,GR86-065-5,2.9000000000000004,0.427,0.302,99.97,3.0,,0.0,0.0,143.52
2025-08-15T04:47:11.024Z,10,GR86-065-5,1.3,0.162,0.377,99.97,3.0,,0.0,0.0,
2025-08-15T04:47:11.068Z,10,GR86-065-5,1.3,0.076,0.424,99.97,3.0,,0.0,0.0,
2025-08-15T04:47:11.111Z,10,GR86-065-5,1.3,-0.047,0.374,99.96,3.0,,0.0,0.0,
2025-08-15T04:47:11.154Z,10,GR86-065-5,2.3000000000000003,0.07,0.32,99.98,3.0,7095.0,0.0,0.0,
2025-08-15T04:47:11.197Z,10,GR86-065-5,3.3000000000000003,0.175,0.345,99.97,3.0,,0.0,0.0,144.86
2025-08-15T04:47:11.242Z,10,GR86-065-5,3.7,0.281,0.195,99.97,3.0,,0.0,0.0,
2025-08-15T04:47:11.285Z,10,GR86-065-5,3.7,0.169,0.336,99.97,3.0,,0.0,0.0,
2025-08-15T04:47:11.328Z,10,GR86-065-5,3.7,0.069,0.385,99.97,3.0,,0.0,0.0,
2025-08-15T04:47:11.372Z,10,GR86-065-5,3.7,0.155,0.304,99.99,3.0,7006.0,0.0,0.0,
2025-08-15T04:47:11.415Z,10,GR86-065-5,3.7,0.214,0.296,99.97,3.0,,0.0,0.0,146.39
2025-08-15T04:47:11.458Z,10,GR86-065-5,3.7,0.199,0.29,99.98,3.0,,0.0,0.0,
2025-08-15T04:47:11.502Z,10,GR86-065-5,3.0,0.18,0.266,99.97,3.0,,0.0,0.0,
2025-08-15T04:47:11.545Z,10,GR86-065-5,2.6,0.143,0.271,99.97,3.0,,0.0,0.0,
2025-08-15T04:47:11.588Z,10,GR86-065-5,2.3000000000000003,0.159,0.22,99.96,3.0,6912.0,0.0,0.0,
2025-08-15T04:47:11.631Z,10,GR86-065-5,1.9,0.178,0.199,99.98,3.0,,0.0,0.0,147.99
2025-08-15T04:47:11.674Z,10,GR86-065-5,1.8,0.185,0.21,99.97,3.0,,0.0,0.0,
2025-08-15T04:47:11.717Z,10,GR86-065-5,1.7000000000000002,0.179,0.187,99.99,3.0,,0.0,0.0,
2025-08-15T04:47:11.760Z,10,GR86-065-5,1.5,0.195,0.147,99.98,3.0,,0.0,0.0,
2025-08-15T04:47:11.804Z,10,GR86-065-5,1.3,0.186,0.151,99.96,3.0,7012.0,0.0,0.0,
2025-08-15T04:47:11.847Z,10,GR86-065-5,1.1,0.169,0.133,99.97,3.0,,0.0,0.0,149.24
2025-08-15T04:47:11.890Z,10,GR86-065-5,0.2,0.153,0.101,99.97,3.0,,0.0,0.0,
2025-08-15T04:47:11.933Z,10,GR86-065-5,-0.8,0.136,0.071,99.98,3.0,,0.0,0.0,
2025-08-15T04:47:11.976Z,10,GR86-065-5,-1.4,0.155,0.05,99.97,3.0,,0.0,0.0,
2025-08-15T04:47:12.018Z,10,GR86-065-5,-1.4,0.179,0.055,99.97,3.0,7110.0,0.0,0.0,
2025-08-15T04:47:12.062Z,10,GR86-065-5,-1.4,0.147,0.017,99.97,3.0,,0.0,0.0,150.88
2025-08-15T04:47:12.105Z,10,GR86-065-5,-1.4,0.15,0.0,99.96,3.0,,0.0,0.0,
2025-08-15T04:47:12.148Z,10,GR86-065-5,-1.4,0.177,0.002,99.99,3.0,,0.0,0.0,
2025-08-15T04:47:12.191Z,10,GR86-065-5,-1.4,0.173,0.008,100.0,3.0,,0.0,0.0,
2025-08-15T04:47:12.234Z,10,GR86-065-5,-1.4,0.158,0.004,99.97,3.0,7169.0,0.0,0.0,
2025-08-15T04:47:12.277Z,10,GR86-065-5,-1.4,0.134,-0.005,99.97,3.0,,0.0,0.0,152.57
2025-08-15T04:47:12.320Z,10,GR86-065-5,-1.6,0.182,-0.01,99.96,3.0,,0.0,0.0,
2025-08-15T04:47:12.362Z,10,GR86-065-5,-2.0,0.142,0.007,99.97,3.0,,0.0,0.0,
2025-08-15T04:47:12.406Z,10,GR86-065-5,-2.1,-0.02,-0.022,99.94,4.0,,0.0,0.0,
2025-08-15T04:47:12.448Z,10,GR86-065-5,-2.1,-0.124,-0.003,99.96,4.0,7235.0,0.0,0.0,
2025-08-15T04:47:12.492Z,10,GR86-065-5,-2.1,0.547,-0.055,99.97,4.0,,0.0,0.0,154.26
2025-08-15T04:47:12.535Z,10,GR86-065-5,-2.1,0.288,-0.094,99.99,4.0,,0.0,0.0,
2025-08-15T04:47:12.578Z,10,GR86-065-5,-2.6,0.134,0.02,99.97,4.0,,0.0,0.0,
2025-08-15T04:47:12.621Z,10,GR86-065-5,-4.7,-0.021,-0.089,99.96,4.0,,0.0,0.0,
2025-08-15T04:47:12.664Z,10,GR86-065-5,-5.800000000000001,0.119,-0.077,99.97,4.0,7292.0,0.0,0.0,
2025-08-15T04:47:12.707Z,10,GR86-065-5,-6.300000000000001,0.207,-0.068,99.97,4.0,,0.0,0.0,155.91
2025-08-15T04:47:12.750Z,10,GR86-065-5,-6.300000000000001,0.173,-0.14,99.97,4.0,,0.0,0.0,
2025-08-15T04:47:12.793Z,10,GR86-065-5,-6.300000000000001,0.146,-0.111,99.97,4.0,,0.0,0.0,
2025-08-15T04:47:12.836Z,10,GR86-065-5,-6.300000000000001,0.127,-0.137,99.97,4.0,,0.0,0.0,
2025-08-15T04:47:12.880Z,10,GR86-065-5,-6.300000000000001,0.162,-0.17,99.97,4.0,6151.0,0.0,0.0,
2025-08-15T04:47:12.966Z,10,GR86-065-5,-6.300000000000001,0.164,-0.177,99.97,4.0,,0.0,0.0,157.35
2025-08-15T04:47:13.008Z,10,GR86-065-5,-6.300000000000001,0.134,-0.175,99.96,4.0,,0.0,0.0,
2025-08-15T04:47:13.052Z,10,GR86-065-5,-6.5,0.105,-0.178,99.98,4.0,,0.0,0.0,
2025-08-15T04:47:13.095Z,10,GR86-065-5,-6.7,0.084,-0.185,99.97,4.0,6257.0,0.0,0.0,
2025-08-15T04:47:13.138Z,10,GR86-065-5,-7.0,0.08,-0.2,99.97,4.0,,0.0,0.0,158.96
2025-08-15T04:47:13.181Z,10,GR86-065-5,-7.1000000000000005,0.144,-0.208,99.97,4.0,,0.0,0.0,
2025-08-15T04:47:13.224Z,10,GR86-065-5,-7.1000000000000005,0.123,-0.222,99.96,4.0,,0.0,0.0,
2025-08-15T04:47:13.268Z,10,GR86-065-5,-7.4,0.089,-0.234,99.98,4.0,,0.0,0.0,
2025-08-15T04:47:13.311Z,10,GR86-065-5,-8.4,0.069,-0.253,99.97,4.0,6311.0,0.0,0.0,
2025-08-15T04:47:13.354Z,10,GR86-065-5,-9.3,0.059,-0.278,99.97,4.0,,0.0,0.0,162.02
2025-08-15T04:47:13.397Z,10,GR86-065-5,-9.6,0.091,-0.297,99.97,4.0,,0.0,0.0,
2025-08-15T04:47:13.442Z,10,GR86-065-5,-9.6,0.107,-0.3,99.97,4.0,,0.0,0.0,
2025-08-15T04:47:13.485Z,10,GR86-065-5,-9.6,0.087,-0.307,99.97,4.0,,0.0,0.0,
2025-08-15T04:47:13.528Z,10,GR86-065-5,-9.6,0.057,-0.313,99.98,4.0,6381.0,0.0,0.0,
2025-08-15T04:47:13.571Z,10,GR86-065-5,-9.6,0.069,-0.318,99.97,4.0,,0.0,0.0,163.5
2025-08-15T04:47:13.614Z,10,GR86-065-5,-9.6,0.093,-0.318,99.99,4.0,,0.0,0.0,
2025-08-15T04:47:13.657Z,10,GR86-065-5,-9.6,0.117,-0.318,99.98,4.0,,0.0,0.0,
2025-08-15T04:47:13.700Z,10,GR86-065-5,-9.6,0.084,-0.299,99.97,4.0,,0.0,0.0,
2025-08-15T04:47:13.744Z,10,GR86-065-5,-9.6,0.071,-0.299,99.98,4.0,6481.0,0.0,0.0,
2025-08-15T04:47:13.787Z,10,GR86-065-5,-9.6,0.075,-0.289,99.97,4.0,,0.0,0.0,164.91
2025-08-15T04:47:13.830Z,10,GR86-065-5,-9.6,0.084,-0.276,99.98,4.0,,0.0,0.0,
2025-08-15T04:47:13.872Z,10,GR86-065-5,-9.6,0.106,-0.261,99.97,4.0,,0.0,0.0,
2025-08-15T04:47:13.916Z,10,GR86-065-5,-9.6,0.124,-0.259,99.98,4.0,,0.0,0.0,
2025-08-15T04:47:13.960Z,10,GR86-065-5,-9.6,0.076,-0.253,99.99,4.0,6533.0,0.0,0.0,
2025-08-15T04:47:14.002Z,10,GR86-065-5,-9.6,0.066,-0.266,99.97,4.0,,0.0,0.0,166.28
2025-08-15T04:47:14.046Z,10,GR86-065-5,-9.6,0.076,-0.267,99.98,4.0,,0.0,0.0,
2025-08-15T04:47:14.088Z,10,GR86-065-5,-9.6,0.088,-0.27,99.97,4.0,,0.0,0.0,
2025-08-15T04:47:14.132Z,10,GR86-065-5,-9.6,0.1,-0.272,99.96,4.0,,0.0,0.0,
2025-08-15T04:47:14.175Z,10,GR86-065-5,-9.6,0.118,-0.258,99.97,4.0,6588.0,0.0,0.0,
2025-08-15T04:47:14.218Z,10,GR86-065-5,-9.6,0.141,-0.24,99.98,4.0,,0.0,0.0,167.5
2025-08-15T04:47:14.261Z,10,GR86-065-5,-9.6,0.078,-0.202,99.97,4.0,,0.0,0.0,
2025-08-15T04:47:14.304Z,10,GR86-065-5,-9.6,0.07,-0.202,99.96,4.0,,0.0,0.0,
2025-08-15T04:47:14.347Z,10,GR86-065-5,-9.6,0.083,-0.209,99.97,4.0,,0.0,0.0,
2025-08-15T04:47:14.390Z,10,GR86-065-5,-9.6,0.068,-0.218,99.97,4.0,6635.0,0.0,0.0,
2025-08-15T04:47:14.432Z,10,GR86-065-5,-9.6,0.099,-0.226,99.95,4.0,,0.0,0.0,168.77
2025-08-15T04:47:14.476Z,10,GR86-065-5,-9.6,0.112,-0.221,99.95,4.0,,0.0,0.0,
2025-08-15T04:47:14.522Z,10,GR86-065-5,-9.6,0.085,-0.212,99.97,4.0,,0.0,0.0,
2025-08-15T04:47:14.565Z,10,GR86-065-5,-9.5,0.081,-0.214,99.97,4.0,,0.0,0.0,
2025-08-15T04:47:14.608Z,10,GR86-065-5,-9.2,0.079,-0.232,99.97,4.0,6691.0,0.0,0.0,
2025-08-15T04:47:14.652Z,10,GR86-065-5,-9.1,0.064,-0.225,99.97,4.0,,0.0,0.0,170.18
2025-08-15T04:47:14.695Z,10,GR86-065-5,-9.1,0.071,-0.226,99.97,4.0,,0.0,0.0,
2025-08-15T04:47:14.738Z,10,GR86-065-5,-9.1,0.063,-0.218,99.97,4.0,,0.0,0.0,
2025-08-15T04:47:14.781Z,10,GR86-065-5,-9.1,0.126,-0.205,99.96,4.0,,0.0,0.0,
2025-08-15T04:47:14.824Z,10,GR86-065-5,-9.1,0.134,-0.208,99.97,4.0,6743.0,0.0,0.0,
2025-08-15T04:47:14.868Z,10,GR86-065-5,-9.1,0.107,-0.201,99.98,4.0,,0.0,0.0,171.45000000000002
2025-08-15T04:47:14.911Z,10,GR86-065-5,-9.1,0.1,-0.203,99.98,4.0,,0.0,0.0,
2025-08-15T04:47:14.954Z,10,GR86-065-5,-9.1,0.097,-0.213,99.97,4.0,,0.0,0.0,
2025-08-15T04:47:14.997Z,10,GR86-065-5,-9.1,0.084,-0.219,99.97,4.0,,0.0,0.0,
2025-08-15T04:47:15.041Z,10,GR86-065-5,-9.2,0.154,-0.237,99.98,4.0,6786.0,0.0,0.0,
2025-08-15T04:47:15.085Z,10,GR86-065-5,-10.0,0.129,-0.256,99.97,4.0,,0.0,0.0,172.81
2025-08-15T04:47:15.128Z,10,GR86-065-5,-10.1,0.156,-0.289,86.95,4.0,,3.435,3.005,
2025-08-15T04:47:15.171Z,10,GR86-065-5,-10.1,0.148,-0.285,34.89,4.0,,10.925,10.53,
2025-08-15T04:47:15.214Z,10,GR86-065-5,-7.0,0.059,-0.253,23.68,4.0,,21.0,20.51,
2025-08-15T04:47:15.257Z,10,GR86-065-5,-5.5,-0.133,-0.187,5.16,4.0,6836.0,32.96,32.625,
2025-08-15T04:47:15.300Z,10,GR86-065-5,-5.5,-0.779,-0.151,4.8,4.0,,54.8,54.86,174.09
2025-08-15T04:47:15.344Z,10,GR86-065-5,-8.4,-1.085,-0.14,4.49,4.0,,69.28,69.525,
2025-08-15T04:47:15.387Z,10,GR86-065-5,-10.1,-1.376,-0.204,4.23,4.0,,80.56,80.8,
2025-08-15T04:47:15.430Z,10,GR86-065-5,-10.1,-1.481,-0.197,3.98,4.0,,89.605,88.615,
2025-08-15T04:47:15.473Z,10,GR86-065-5,-8.200000000000001,-1.529,-0.175,3.63,4.0,6891.0,95.24,92.75,
2025-08-15T04:47:15.516Z,10,GR86-065-5,-6.5,-1.509,-0.104,3.16,4.0,,95.955,94.49,175.06
2025-08-15T04:47:15.558Z,10,GR86-065-5,-6.5,-1.436,-0.103,2.9,4.0,,92.72,92.965,
2025-08-15T04:47:15.602Z,10,GR86-065-5,-8.9,-1.489,-0.179,2.75,4.0,,92.87,91.835,
2025-08-15T04:47:15.645Z,10,GR86-065-5,-9.0,-1.451,-0.304,2.7,4.0,,89.395,88.765,
2025-08-15T04:47:15.688Z,10,GR86-065-5,-5.7,-1.475,-0.263,2.66,4.0,6467.0,86.615,85.21000000000001,
2025-08-15T04:47:15.731Z,10,GR86-065-5,-2.0,-1.393,-0.162,17.73,4.0,,82.235,81.155,175.0
2025-08-15T04:47:15.774Z,10,GR86-065-5,-1.9,-1.388,-0.177,62.84,4.0,,78.24,77.795,
2025-08-15T04:47:15.817Z,10,GR86-065-5,-4.4,-1.378,-0.205,99.2,4.0,,76.83500000000001,75.34,
2025-08-15T04:47:15.860Z,10,GR86-065-5,-7.800000000000001,-1.336,-0.32,48.95,3.0,,73.63,72.93,
2025-08-15T04:47:15.902Z,10,GR86-065-5,-6.7,-1.337,-0.266,4.11,3.0,5912.0,75.065,73.14,
2025-08-15T04:47:15.947Z,10,GR86-065-5,1.4,-1.275,-0.271,2.98,3.0,,74.805,72.96000000000001,156.11
2025-08-15T04:47:15.990Z,10,GR86-065-5,7.9,-1.229,-0.374,2.79,3.0,,69.13,68.87,
2025-08-15T04:47:16.076Z,10,GR86-065-5,9.3,-1.094,-0.196,2.62,3.0,,55.575,53.805,
2025-08-15T04:47:16.119Z,10,GR86-065-5,5.1000000000000005,-1.049,-0.361,2.59,3.0,5741.0,51.215,50.435,
2025-08-15T04:47:16.162Z,10,GR86-065-5,-3.4000000000000004,-1.121,-0.363,2.56,3.0,,51.425,49.93,147.79
2025-08-15T04:47:16.205Z,10,GR86-065-5,-8.6,-1.053,-0.428,2.5500000000000003,3.0,,53.515,51.655,
2025-08-15T04:47:16.248Z,10,GR86-065-5,-11.1,-1.093,-0.477,2.54,3.0,,54.295,52.965,
2025-08-15T04:47:16.291Z,10,GR86-065-5,-11.3,-1.17,-0.439,2.53,3.0,,53.515,52.965,
2025-08-15T04:47:16.334Z,10,GR86-065-5,-11.3,-1.132,-0.407,2.53,3.0,6102.0,53.745000000000005,53.305,
2025-08-15T04:47:16.377Z,10,GR86-065-5,-11.2,-1.115,-0.409,3.3000000000000003,3.0,,53.58,53.305,140.35
2025-08-15T04:47:16.420Z,10,GR86-065-5,-11.3,-1.076,-0.428,65.17,3.0,,49.49,48.025,
2025-08-15T04:47:16.462Z,10,GR86-065-5,-11.3,-0.995,-0.458,99.51,3.0,,42.33,40.62,
2025-08-15T04:47:16.506Z,10,GR86-065-5,-11.3,-0.855,-0.478,99.54,2.0,,35.205,33.875,
2025-08-15T04:47:16.548Z,10,GR86-065-5,-11.1,-0.8220000000000001,-0.5650000000000001,48.52,2.0,5838.0,30.765,29.39,
2025-08-15T04:47:16.592Z,10,GR86-065-5,-10.8,-1.067,-0.379,4.03,2.0,,28.78,27.375,133.33
2025-08-15T04:47:16.635Z,10,GR86-065-5,-9.0,-0.93,-0.373,2.97,2.0,,27.65,26.43,
2025-08-15T04:47:16.678Z,10,GR86-065-5,-8.4,-0.758,-0.608,2.79,2.0,,26.11,25.395,
2025-08-15T04:47:16.722Z,10,GR86-065-5,-8.4,-0.811,-0.39,2.66,2.0,,25.425,24.92,
2025-08-15T04:47:16.765Z,10,GR86-065-5,-12.3,-0.73,-0.478,2.63,2.0,5882.0,26.11,25.36,
2025-08-15T04:47:16.808Z,10,GR86-065-5,-19.3,-0.743,-0.511,2.6,2.0,,25.865,25.36,126.83
2025-08-15T04:47:16.851Z,10,GR86-065-5,-24.200000000000003,-0.737,-0.539,2.5500000000000003,2.0,,25.865,24.95,
2025-08-15T04:47:16.894Z,10,GR86-065-5,-25.8,-0.764,-0.556,2.53,2.0,,25.085,24.02,
2025-08-15T04:47:16.937Z,10,GR86-065-5,-27.6,-0.762,-0.523,2.53,2.0,,24.615,23.62,
2025-08-15T04:47:16.980Z,10,GR86-065-5,-31.5,-0.755,-0.58,2.51,2.0,6687.0,24.2,23.27,
2025-08-15T04:47:17.022Z,10,GR86-065-5,-33.800000000000004,-0.73,-0.605,2.5,2.0,,23.93,22.875,120.72
2025-08-15T04:47:17.066Z,10,GR86-065-5,-35.9,-0.6970000000000001,-0.669,2.51,2.0,,23.335,22.34,
2025-08-15T04:47:17.108Z,10,GR86-065-5,-38.2,-0.6950000000000001,-0.738,2.5,2.0,,23.335,22.555,
2025-08-15T04:47:17.152Z,10,GR86-065-5,-40.5,-0.739,-0.744,2.51,2.0,,23.365,22.615,
2025-08-15T04:47:17.195Z,10,GR86-065-5,-41.2,-0.728,-0.8170000000000001,2.5,2.0,6346.0,23.655,22.935,
2025-08-15T04:47:17.238Z,10,GR86-065-5,-41.2,-0.711,-0.862,2.51,2.0,,23.395,22.585,115.45
2025-08-15T04:47:17.281Z,10,GR86-065-5,-40.8,-0.674,-0.901,2.5,2.0,,20.785,19.58,
2025-08-15T04:47:17.324Z,10,GR86-065-5,-40.7,-0.603,-0.914,2.5,2.0,,17.745,16.68,
2025-08-15T04:47:17.368Z,10,GR86-065-5,-40.7,-0.5730000000000001,-0.943,2.5,2.0,,14.27,13.305,
2025-08-15T04:47:17.411Z,10,GR86-065-5,-44.5,-0.518,-1.001,2.5,2.0,6077.0,10.68,9.75,
2025-08-15T04:47:17.454Z,10,GR86-065-5,-48.1,-0.428,-1.083,2.5,2.0,,7.05,6.24,111.71
2025-08-15T04:47:17.497Z,10,GR86-065-5,-50.6,-0.345,-1.12,2.51,2.0,,4.0,3.34,
2025-08-15T04:47:17.542Z,10,GR86-065-5,-52.900000000000006,-0.278,-1.165,2.5,2.0,,3.34,2.4250000000000003,
2025-08-15T04:47:17.585Z,10,GR86-065-5,-54.7,-0.273,-1.193,2.5,2.0,,2.4250000000000003,1.86,
2025-08-15T04:47:17.628Z,10,GR86-065-5,-57.1,-0.247,-1.179,2.5,2.0,5816.0,0.0,0.0,
2025-08-15T04:47:17.672Z,10,GR86-065-5,-60.1,-0.219,-1.239,2.51,2.0,,0.0,0.0,107.59
2025-08-15T04:47:17.715Z,10,GR86-065-5,-63.8,-0.214,-1.189,2.51,2.0,,0.0,0.0,
2025-08-15T04:47:17.758Z,10,GR86-065-5,-67.7,-0.215,-1.23,2.51,2.0,,0.0,0.0,
2025-08-15T04:47:17.802Z,10,GR86-065-5,-73.0,-0.2,-1.244,2.51,2.0,,0.0,0.0,
2025-08-15T04:47:17.845Z,10,GR86-065-5,-75.7,-0.195,-1.278,3.15,2.0,5710.0,0.0,0.0,
2025-08-15T04:47:17.888Z,10,GR86-065-5,-77.5,-0.22,-1.282,4.36,2.0,,0.0,0.0,104.41
2025-08-15T04:47:17.932Z,10,GR86-065-5,-78.4,-0.229,-1.298,4.49,2.0,,0.0,0.0,
2025-08-15T04:47:17.975Z,10,GR86-065-5,-78.4,-0.23,-1.339,4.83,2.0,,0.0,0.0,
2025-08-15T04:47:18.018Z,10,GR86-065-5,-78.2,-0.236,-1.341,15.14,2.0,,0.0,0.0,
2025-08-15T04:47:18.062Z,10,GR86-065-5,-65.60000000000001,-0.203,-1.337,20.73,2.0,5641.0,0.0,0.0,
2025-08-15T04:47:18.105Z,10,GR86-065-5,-54.8,-0.157,-1.347,22.72,2.0,,0.0,0.0,102.49
2025-08-15T04:47:18.148Z,10,GR86-065-5,-45.7,-0.13,-1.259,26.33,2.0,,0.0,0.0,
2025-08-15T04:47:18.191Z,10,GR86-065-5,-40.3,-0.104,-1.291,29.94,2.0,,0.0,0.0,
2025-08-15T04:47:18.235Z,10,GR86-065-5,-38.900000000000006,-0.093,-1.246,33.42,2.0,,0.0,0.0,
2025-08-15T04:47:18.321Z,10,GR86-065-5,-39.3,0.196,-1.199,34.14,2.0,5547.0,0.0,0.0,101.09
2025-08-15T04:47:18.365Z,10,GR86-065-5,-42.8,0.234,-1.198,36.44,2.0,,0.0,0.0,
2025-08-15T04:47:18.408Z,10,GR86-065-5,-45.900000000000006,0.196,-1.214,40.08,2.0,,0.0,0.0,
2025-08-15T04:47:18.451Z,10,GR86-065-5,-47.1,0.153,-1.203,43.6,2.0,,0.0,0.0,
2025-08-15T04:47:18.494Z,10,GR86-065-5,-47.2,0.154,-1.169,46.64,2.0,5517.0,0.0,0.0,
2025-08-15T04:47:18.537Z,10,GR86-065-5,-47.2,0.167,-1.135,53.26,2.0,,0.0,0.0,99.8
2025-08-15T04:47:18.580Z,10,GR86-065-5,-47.2,0.204,-1.035,69.36,2.0,,0.0,0.0,
2025-08-15T04:47:18.622Z,10,GR86-065-5,-47.2,0.177,-1.08,81.0,2.0,,0.0,0.0,
2025-08-15T04:47:18.666Z,10,GR86-065-5,-47.2,0.138,-1.09,98.23,2.0,,0.0,0.0,
2025-08-15T04:47:18.708Z,10,GR86-065-5,-48.1,0.245,-1.227,99.97,2.0,5828.0,0.0,0.0,
2025-08-15T04:47:18.752Z,10,GR86-065-5,-49.1,0.372,-0.956,99.9,2.0,,0.0,0.0,98.33
2025-08-15T04:47:18.795Z,10,GR86-065-5,-49.5,0.274,-1.006,99.89,2.0,,0.0,0.0,
2025-08-15T04:47:18.838Z,10,GR86-065-5,-49.5,0.119,-0.963,99.89,2.0,,0.0,0.0,
2025-08-15T04:47:18.881Z,10,GR86-065-5,-48.400000000000006,0.341,-1.026,99.9,2.0,,0.0,0.0,
2025-08-15T04:47:18.924Z,10,GR86-065-5,-45.3,0.258,-0.991,99.89,2.0,5754.0,0.0,0.0,
2025-08-15T04:47:18.968Z,10,GR86-065-5,-42.1,0.043,-0.967,99.89,2.0,,0.0,0.0,99.27
2025-08-15T04:47:19.011Z,10,GR86-065-5,-39.3,0.06,-0.959,99.9,2.0,,0.0,0.0,
2025-08-15T04:47:19.054Z,10,GR86-065-5,-37.3,0.269,-0.887,99.9,2.0,,0.0,0.0,
2025-08-15T04:47:19.097Z,10,GR86-065-5,-35.9,0.316,-0.953,99.89,2.0,,0.0,0.0,
2025-08-15T04:47:19.142Z,10,GR86-065-5,-35.7,0.024,-0.933,99.9,2.0,5997.0,0.0,0.0,
2025-08-15T04:47:19.185Z,10,GR86-065-5,-35.6,0.234,-1.064,99.9,2.0,,0.0,0.0,100.56
2025-08-15T04:47:19.228Z,10,GR86-065-5,-35.6,0.501,-0.876,99.9,2.0,,0.0,0.0,
2025-08-15T04:47:19.271Z,10,GR86-065-5,-35.6,0.467,-0.864,99.92,2.0,,0.0,0.0,
2025-08-15T04:47:19.315Z,10,GR86-065-5,-36.5,0.146,-0.794,99.9,2.0,,0.0,0.0,
2025-08-15T04:47:19.358Z,10,GR86-065-5,-40.1,0.061,-0.803,99.93,2.0,6083.0,0.0,0.0,
2025-08-15T04:47:19.401Z,10,GR86-065-5,-46.0,0.366,-0.95,99.92,2.0,,0.0,0.0,101.52
2025-08-15T04:47:19.444Z,10,GR86-065-5,-48.6,0.19,-0.93,99.93,2.0,,0.0,0.0,
2025-08-15T04:47:19.487Z,10,GR86-065-5,-49.900000000000006,0.054,-0.804,99.93,2.0,,0.0,0.0,
2025-08-15T04:47:19.530Z,10,GR86-065-5,-49.900000000000006,-0.067,-0.889,99.9,2.0,,0.0,0.0,
2025-08-15T04:47:19.573Z,10,GR86-065-5,-49.900000000000006,0.025,-0.833,99.93,2.0,6103.0,0.0,0.0,
2025-08-15T04:47:19.616Z,10,GR86-065-5,-49.900000000000006,0.248,-0.88,99.92,2.0,,0.0,0.0,103.49
2025-08-15T04:47:19.658Z,10,GR86-065-5,-49.5,0.314,-0.998,99.93,2.0,,0.0,0.0,
2025-08-15T04:47:19.702Z,10,GR86-065-5,-47.400000000000006,0.26,-1.067,99.92,2.0,,0.0,0.0,
2025-08-15T04:47:19.745Z,10,GR86-065-5,-44.6,0.217,-1.032,99.92,2.0,,0.0,0.0,
2025-08-15T04:47:19.788Z,10,GR86-065-5,-42.400000000000006,0.149,-1.078,99.93,2.0,6163.0,0.0,0.0,
2025-08-15T04:47:19.831Z,10,GR86-065-5,-41.6,0.268,-1.124,99.94,2.0,,0.0,0.0,104.77
2025-08-15T04:47:19.874Z,10,GR86-065-5,-41.6,0.212,-1.119,99.93,2.0,,0.0,0.0,
2025-08-15T04:47:19.917Z,10,GR86-065-5,-41.6,0.232,-1.079,99.92,2.0,,0.0,0.0,
2025-08-15T04:47:19.960Z,10,GR86-065-5,-41.6,0.258,-0.96,99.94,2.0,,0.0,0.0,
2025-08-15T04:47:20.002Z,10,GR86-065-5,-41.6,0.233,-0.922,99.94,2.0,6285.0,0.0,0.0,
2025-08-15T04:47:20.046Z,10,GR86-065-5,-41.6,0.18,-0.837,99.92,2.0,,0.0,0.0,107.21
2025-08-15T04:47:20.088Z,10,GR86-065-5,-41.6,0.215,-0.854,99.93,2.0,,0.0,0.0,
2025-08-15T04:47:20.132Z,10,GR86-065-5,-41.6,0.215,-0.8270000000000001,99.93,2.0,,0.0,0.0,
2025-08-15T04:47:20.175Z,10,GR86-065-5,-41.8,0.245,-0.8,99.94,2.0,,0.0,0.0,
2025-08-15T04:47:20.218Z,10,GR86-065-5,-42.7,0.244,-0.8140000000000001,99.92,2.0,6328.0,0.0,0.0,
2025-08-15T04:47:20.261Z,10,GR86-065-5,-44.3,0.219,-0.85,99.93,2.0,,0.0,0.0,109.14
2025-08-15T04:47:20.305Z,10,GR86-065-5,-44.7,0.184,-0.863,99.93,2.0,,0.0,0.0,
2025-08-15T04:47:20.348Z,10,GR86-065-5,-44.7,0.221,-0.9,99.93,2.0,,0.0,0.0,
2025-08-15T04:47:20.391Z,10,GR86-065-5,-44.7,0.215,-0.895,99.93,2.0,,0.0,0.0,
2025-08-15T04:47:20.434Z,10,GR86-065-5,-44.7,0.204,-0.922,99.92,2.0,6420.0,0.0,0.0,
2025-08-15T04:47:20.477Z,10,GR86-065-5,-44.7,0.204,-0.957,99.95,2.0,,0.0,0.0,109.44
2025-08-15T04:47:20.522Z,10,GR86-065-5,-44.7,0.225,-0.921,99.92,2.0,,0.0,0.0,
2025-08-15T04:47:20.565Z,10,GR86-065-5,-44.7,0.193,-0.985,99.92,2.0,,0.0,0.0,
2025-08-15T04:47:20.608Z,10,GR86-065-5,-44.2,0.203,-0.976,99.94,2.0,,0.0,0.0,
2025-08-15T04:47:20.652Z,10,GR86-065-5,-42.3,0.204,-1.047,99.93,2.0,6530.0,0.0,0.0,
2025-08-15T04:47:20.695Z,10,GR86-065-5,-40.7,0.203,-1.088,99.92,2.0,,0.0,0.0,111.09
2025-08-15T04:47:20.738Z,10,GR86-065-5,-40.1,0.233,-1.092,99.93,2.0,,0.0,0.0,
2025-08-15T04:47:20.781Z,10,GR86-065-5,-40.1,0.219,-1.087,99.96,2.0,,0.0,0.0,
2025-08-15T04:47:20.824Z,10,GR86-065-5,-40.1,0.213,-1.064,99.94,2.0,,0.0,0.0,
2025-08-15T04:47:20.868Z,10,GR86-065-5,-40.1,0.207,-1.067,99.95,2.0,6650.0,0.0,0.0,
2025-08-15T04:47:20.912Z,10,GR86-065-5,-40.1,0.218,-1.08,99.95,2.0,,0.0,0.0,112.67
2025-08-15T04:47:20.955Z,10,GR86-065-5,-40.0,0.225,-1.026,99.96,2.0,,0.0,0.0,
2025-08-15T04:47:20.998Z,10,GR86-065-5,-39.3,0.206,-1.067,99.93,2.0,,0.0,0.0,
2025-08-15T04:47:21.042Z,10,GR86-065-5,-38.900000000000006,0.225,-1.09,99.94,2.0,,0.0,0.0,
2025-08-15T04:47:21.085Z,10,GR86-065-5,-38.8,0.259,-1.083,99.94,2.0,6741.0,0.0,0.0,
2025-08-15T04:47:21.128Z,10,GR86-065-5,-38.400000000000006,0.288,-0.987,99.93,2.0,,0.0,0.0,115.19
2025-08-15T04:47:21.171Z,10,GR86-065-5,-38.7,0.314,-0.877,99.93,2.0,,0.0,0.0,
2025-08-15T04:47:21.214Z,10,GR86-065-5,-39.8,0.295,-0.779,99.95,2.0,,0.0,0.0,
2025-08-15T04:47:21.300Z,10,GR86-065-5,-39.0,0.116,-0.748,99.93,2.0,6816.0,0.0,0.0,
2025-08-15T04:47:21.343Z,10,GR86-065-5,-35.0,0.199,-0.846,99.94,2.0,,0.0,0.0,117.48
2025-08-15T04:47:21.386Z,10,GR86-065-5,-31.6,0.254,-0.872,99.95,2.0,,0.0,0.0,
2025-08-15T04:47:21.428Z,10,GR86-065-5,-30.200000000000003,0.251,-0.847,99.95,2.0,,0.0,0.0,
2025-08-15T04:47:21.472Z,10,GR86-065-5,-29.5,0.238,-0.981,99.96,2.0,,0.0,0.0,
2025-08-15T04:47:21.515Z,10,GR86-065-5,-28.8,0.227,-0.802,99.97,2.0,6868.0,0.0,0.0,
2025-08-15T04:47:21.558Z,10,GR86-065-5,-28.4,0.205,-0.8320000000000001,99.96,2.0,,0.0,0.0,118.25
2025-08-15T04:47:21.601Z,10,GR86-065-5,-27.6,0.232,-0.786,99.94,2.0,,0.0,0.0,
2025-08-15T04:47:21.644Z,10,GR86-065-5,-26.6,0.193,-0.8210000000000001,99.96,2.0,,0.0,0.0,
2025-08-15T04:47:21.687Z,10,GR86-065-5,-25.9,0.189,-0.725,99.96,2.0,,0.0,0.0,
2025-08-15T04:47:21.730Z,10,GR86-065-5,-24.200000000000003,0.228,-0.6950000000000001,99.96,2.0,7039.0,0.0,0.0,
2025-08-15T04:47:21.773Z,10,GR86-065-5,-24.1,0.211,-0.531,99.96,2.0,,0.0,0.0,120.1
2025-08-15T04:47:21.816Z,10,GR86-065-5,-23.700000000000003,0.216,-0.64,99.97,2.0,,0.0,0.0,
2025-08-15T04:47:21.858Z,10,GR86-065-5,-23.1,0.175,-0.596,99.94,2.0,,0.0,0.0,
2025-08-15T04:47:21.902Z,10,GR86-065-5,-21.3,0.224,-0.721,99.95,2.0,,0.0,0.0,
2025-08-15T04:47:21.945Z,10,GR86-065-5,-19.3,0.321,-0.52,99.94,2.0,7134.0,0.0,0.0,
2025-08-15T04:47:21.988Z,10,GR86-065-5,-19.1,0.206,-0.414,99.96,2.0,,0.0,0.0,121.83
2025-08-15T04:47:22.031Z,10,GR86-065-5,-18.5,0.13,-0.309,99.96,2.0,,0.0,0.0,
2025-08-15T04:47:22.074Z,10,GR86-065-5,-17.0,0.065,-0.316,99.95,2.0,,0.0,0.0,
2025-08-15T04:47:22.117Z,10,GR86-065-5,-12.3,0.111,-0.237,99.95,2.0,,0.0,0.0,
2025-08-15T04:47:22.160Z,10,GR86-065-5,-7.0,-0.067,-0.158,99.97,3.0,7219.0,0.0,0.0,
2025-08-15T04:47:22.202Z,10,GR86-065-5,-5.2,0.619,-0.076,99.97,3.0,,0.0,0.0,123.21
2025-08-15T04:47:22.247Z,10,GR86-065-5,-4.5,0.496,-0.185,99.97,3.0,,0.0,0.0,
2025-08-15T04:47:22.290Z,10,GR86-065-5,-3.5,0.438,-0.177,99.97,3.0,,0.0,0.0,
2025-08-15T04:47:22.333Z,10,GR86-065-5,-2.5,0.201,-0.099,99.97,3.0,,0.0,0.0,
2025-08-15T04:47:22.376Z,10,GR86-065-5,-2.5,0.049,-0.144,99.96,3.0,6945.0,0.0,0.0,
2025-08-15T04:47:22.419Z,10,GR86-065-5,-2.5,0.178,-0.031,99.96,3.0,,0.0,0.0,124.88
2025-08-15T04:47:22.462Z,10,GR86-065-5,-2.4000000000000004,0.268,0.135,99.96,3.0,,0.0,0.0,
2025-08-15T04:47:22.505Z,10,GR86-065-5,-2.1,0.209,0.194,99.96,3.0,,0.0,0.0,
2025-08-15T04:47:22.548Z,10,GR86-065-5,-1.1,0.163,0.235,99.96,3.0,,0.0,0.0,
2025-08-15T04:47:22.591Z,10,GR86-065-5,-1.1,0.195,0.216,99.95,3.0,5837.0,0.0,0.0,
2025-08-15T04:47:22.634Z,10,GR86-065-5,-1.0,0.198,0.217,99.97,3.0,,0.0,0.0,126.27
2025-08-15T04:47:22.677Z,10,GR86-065-5,-1.0,0.181,0.205,99.97,3.0,,0.0,0.0,
2025-08-15T04:47:22.720Z,10,GR86-065-5,-1.1,0.174,0.186,99.96,3.0,,0.0,0.0,
2025-08-15T04:47:22.765Z,10,GR86-065-5,-1.0,0.181,0.121,99.97,3.0,,0.0,0.0,
2025-08-15T04:47:22.808Z,10,GR86-065-5,-1.1,0.212,0.09,99.98,3.0,6038.0,0.0,0.0,
2025-08-15T04:47:22.851Z,10,GR86-065-5,-1.1,0.187,0.07,99.96,3.0,,0.0,0.0,127.76
2025-08-15T04:47:22.894Z,10,GR86-065-5,-1.0,0.16,0.069,99.96,3.0,,0.0,0.0,
2025-08-15T04:47:22.937Z,10,GR86-065-5,-1.1,0.188,0.019,99.95,3.0,,0.0,0.0,
2025-08-15T04:47:22.980Z,10,GR86-065-5,-1.1,0.168,0.025,99.97,3.0,,0.0,0.0,
2025-08-15T04:47:23.022Z,10,GR86-065-5,-1.0,0.22,-0.013,99.98,3.0,6065.0,0.0,0.0,
2025-08-15T04:47:23.066Z,10,GR86-065-5,-1.1,0.206,0.034,99.97,3.0,,0.0,0.0,129.66
2025-08-15T04:47:23.108Z,10,GR86-065-5,-1.1,0.17,0.036,99.97,3.0,,0.0,0.0,
2025-08-15T04:47:23.152Z,10,GR86-065-5,-1.1,0.182,0.018,99.97,3.0,,0.0,0.0,
2025-08-15T04:47:23.195Z,10,GR86-065-5,-1.2000000000000002,0.22,0.028,99.95,3.0,,0.0,0.0,
2025-08-15T04:47:23.238Z,10,GR86-065-5,-1.5,0.187,0.04,99.96,3.0,6140.0,0.0,0.0,
2025-08-15T04:47:23.281Z,10,GR86-065-5,-1.9,0.215,0.024,99.97,3.0,,0.0,0.0,130.85
2025-08-15T04:47:23.324Z,10,GR86-065-5,-1.9,0.173,0.01,99.97,3.0,,0.0,0.0,
2025-08-15T04:47:23.368Z,10,GR86-065-5,-2.1,0.17,-0.035,99.97,3.0,,0.0,0.0,
2025-08-15T04:47:23.411Z,10,GR86-065-5,-2.1,0.215,-0.051,99.96,3.0,,0.0,0.0,
2025-08-15T04:47:23.454Z,10,GR86-065-5,-2.1,0.215,-0.022,99.97,3.0,6203.0,0.0,0.0,
2025-08-15T04:47:23.497Z,10,GR86-065-5,-2.1,0.178,-0.027,99.98,3.0,,0.0,0.0,132.31
2025-08-15T04:47:23.542Z,10,GR86-065-5,-2.1,0.189,-0.009,99.97,3.0,,0.0,0.0,
2025-08-15T04:47:23.585Z,10,GR86-065-5,-2.1,0.149,-0.036,99.96,3.0,,0.0,0.0,
2025-08-15T04:47:23.628Z,10,GR86-065-5,-2.1,0.197,-0.059,99.97,3.0,,0.0,0.0,
2025-08-15T04:47:23.672Z,10,GR86-065-5,-2.1,0.23,-0.032,99.96,3.0,6262.0,0.0,0.0,
2025-08-15T04:47:23.715Z,10,GR86-065-5,-2.1,0.191,-0.023,99.97,3.0,,0.0,0.0,133.72
2025-08-15T04:47:23.758Z,10,GR86-065-5,-2.1,0.147,-0.033,99.95,3.0,,0.0,0.0,
2025-08-15T04:47:23.802Z,10,GR86-065-5,-2.1,0.159,-0.014,99.97,3.0,,0.0,0.0,
2025-08-15T04:47:23.845Z,10,GR86-065-5,-2.1,0.165,-0.04,99.97,3.0,,0.0,0.0,
2025-08-15T04:47:23.888Z,10,GR86-065-5,-2.1,0.224,-0.048,99.96,3.0,6324.0,0.0,0.0,
2025-08-15T04:47:23.931Z,10,GR86-065-5,-2.1,0.208,-0.023,99.96,3.0,,0.0,0.0,135.15
2025-08-15T04:47:23.974Z,10,GR86-065-5,-2.1,0.15,-0.013,99.97,3.0,,0.0,0.0,
2025-08-15T04:47:24.017Z,10,GR86-065-5,-2.1,0.143,-0.03,99.96,3.0,,0.0,0.0,
2025-08-15T04:47:24.060Z,10,GR86-065-5,-2.1,0.145,-0.014,99.96,3.0,,0.0,0.0,
2025-08-15T04:47:24.104Z,10,GR86-065-5,-2.1,0.175,-0.035,99.97,3.0,6388.0,0.0,0.0,
2025-08-15T04:47:24.147Z,10,GR86-065-5,-2.1,0.215,-0.026,99.96,3.0,,0.0,0.0,137.8
2025-08-15T04:47:24.190Z,10,GR86-065-5,-2.2,0.205,-0.014,99.97,3.0,,0.0,0.0,
2025-08-15T04:47:24.232Z,10,GR86-065-5,-2.2,0.16,-0.03,99.97,3.0,,0.0,0.0,
2025-08-15T04:47:24.276Z,10,GR86-065-5,-2.2,0.15,-0.063,99.97,3.0,,0.0,0.0,
2025-08-15T04:47:24.318Z,10,GR86-065-5,-2.3000000000000003,0.208,-0.059,99.97,3.0,6462.0,0.0,0.0,
2025-08-15T04:47:24.362Z,10,GR86-065-5,-2.6,0.166,-0.074,99.97,3.0,,0.0,0.0,139.21
2025-08-15T04:47:24.405Z,10,GR86-065-5,-2.6,0.226,-0.072,99.97,3.0,,0.0,0.0,
2025-08-15T04:47:24.448Z,10,GR86-065-5,-2.7,0.217,-0.043,99.97,3.0,,0.0,0.0,
2025-08-15T04:47:24.491Z,10,GR86-065-5,-2.7,0.166,-0.047,99.96,3.0,,0.0,0.0,
2025-08-15T04:47:24.535Z,10,GR86-065-5,-2.7,0.143,-0.059,99.97,3.0,6520.0,0.0,0.0,
2025-08-15T04:47:24.577Z,10,GR86-065-5,-2.7,0.184,-0.069,99.96,3.0,,0.0,0.0,140.57
2025-08-15T04:47:24.621Z,10,GR86-065-5,-2.7,0.151,-0.066,99.95,3.0,,0.0,0.0,
2025-08-15T04:47:24.664Z,10,GR86-065-5,-2.7,0.202,-0.065,99.96,3.0,,0.0,0.0,
2025-08-15T04:47:24.707Z,10,GR86-065-5,-2.7,0.214,-0.041,99.96,3.0,,0.0,0.0,
2025-08-15T04:47:24.750Z,10,GR86-065-5,-2.7,0.182,-0.024,99.97,3.0,6638.0,0.0,0.0,
2025-08-15T04:47:24.792Z,10,GR86-065-5,-2.7,0.145,-0.03,99.97,3.0,,0.0,0.0,141.91
2025-08-15T04:47:24.836Z,10,GR86-065-5,-2.7,0.156,-0.054,99.97,3.0,,0.0,0.0,
2025-08-15T04:47:24.879Z,10,GR86-065-5,-2.7,0.207,-0.042,99.96,3.0,,0.0,0.0,
2025-08-15T04:47:24.922Z,10,GR86-065-5,-2.7,0.163,-0.046,99.96,3.0,,0.0,0.0,
2025-08-15T04:47:24.966Z,10,GR86-065-5,-2.7,0.212,-0.028,99.97,3.0,6701.0,0.0,0.0,
2025-08-15T04:47:25.008Z,10,GR86-065-5,-2.7,0.214,-0.024,99.97,3.0,,0.0,0.0,143.22
2025-08-15T04:47:25.052Z,10,GR86-065-5,-2.7,0.178,-0.034,99.97,3.0,,0.0,0.0,
2025-08-15T04:47:25.095Z,10,GR86-065-5,-2.7,0.14,-0.05,99.97,3.0,,0.0,0.0,
2025-08-15T04:47:25.138Z,10,GR86-065-5,-2.7,0.167,-0.068,99.98,3.0,,0.0,0.0,
2025-08-15T04:47:25.181Z,10,GR86-065-5,-2.7,0.138,-0.059,99.97,3.0,6759.0,0.0,0.0,
2025-08-15T04:47:25.225Z,10,GR86-065-5,-2.7,0.149,-0.078,99.97,3.0,,0.0,0.0,144.48
2025-08-15T04:47:25.268Z,10,GR86-065-5,-2.7,0.187,-0.064,99.97,3.0,,0.0,0.0,
2025-08-15T04:47:25.311Z,10,GR86-065-5,-2.8000000000000003,0.191,-0.051,99.95,3.0,,0.0,0.0,
2025-08-15T04:47:25.354Z,10,GR86-065-5,-2.8000000000000003,0.164,-0.049,99.94,3.0,,0.0,0.0,
2025-08-15T04:47:25.397Z,10,GR86-065-5,-2.8000000000000003,0.145,-0.072,99.97,3.0,6817.0,0.0,0.0,
2025-08-15T04:47:25.442Z,10,GR86-065-5,-2.8000000000000003,0.161,-0.04,99.94,3.0,,0.0,0.0,145.74
2025-08-15T04:47:25.485Z,10,GR86-065-5,-2.8000000000000003,0.167,-0.063,99.95,3.0,,0.0,0.0,
2025-08-15T04:47:25.528Z,10,GR86-065-5,-2.8000000000000003,0.154,-0.087,99.97,3.0,,0.0,0.0,
2025-08-15T04:47:25.571Z,10,GR86-065-5,-2.8000000000000003,0.167,-0.087,99.97,3.0,,0.0,0.0,
2025-08-15T04:47:25.615Z,10,GR86-065-5,-2.8000000000000003,0.184,-0.048,99.95,3.0,6882.0,0.0,0.0,
2025-08-15T04:47:25.658Z,10,GR86-065-5,-2.8000000000000003,0.174,-0.046,99.96,3.0,,0.0,0.0,146.98
2025-08-15T04:47:25.701Z,10,GR86-065-5,-2.8000000000000003,0.195,-0.046,99.96,3.0,,0.0,0.0,
2025-08-15T04:47:25.745Z,10,GR86-065-5,-2.8000000000000003,0.174,-0.035,99.96,3.0,,0.0,0.0,
2025-08-15T04:47:25.788Z,10,GR86-065-5,-2.8000000000000003,0.158,-0.046,99.97,3.0,,0.0,0.0,
2025-08-15T04:47:25.831Z,10,GR86-065-5,-2.8000000000000003,0.154,-0.076,99.97,3.0,6930.0,0.0,0.0,
2025-08-15T04:47:25.874Z,10,GR86-065-5,-2.8000000000000003,0.16,-0.081,99.97,3.0,,0.0,0.0,148.21
2025-08-15T04:47:25.917Z,10,GR86-065-5,-2.8000000000000003,0.17,-0.06,99.97,3.0,,0.0,0.0,
2025-08-15T04:47:26.002Z,10,GR86-065-5,-2.9000000000000004,0.171,-0.068,99.97,3.0,,0.0,0.0,
2025-08-15T04:47:26.046Z,10,GR86-065-5,-2.9000000000000004,0.152,-0.071,99.95,3.0,6993.0,0.0,0.0,
2025-08-15T04:47:26.088Z,10,GR86-065-5,-2.9000000000000004,0.153,-0.042,99.96,3.0,,0.0,0.0,149.36
2025-08-15T04:47:26.132Z,10,GR86-065-5,-2.9000000000000004,0.148,-0.047,99.96,3.0,,0.0,0.0,
2025-08-15T04:47:26.175Z,10,GR86-065-5,-2.9000000000000004,0.148,-0.083,99.97,3.0,,0.0,0.0,
2025-08-15T04:47:26.218Z,10,GR86-065-5,-2.9000000000000004,0.159,-0.102,99.96,3.0,,0.0,0.0,
2025-08-15T04:47:26.261Z,10,GR86-065-5,-2.9000000000000004,0.145,-0.073,99.96,3.0,7038.0,0.0,0.0,
2025-08-15T04:47:26.305Z,10,GR86-065-5,-2.9000000000000004,0.152,-0.083,99.96,3.0,,0.0,0.0,150.57
2025-08-15T04:47:26.348Z,10,GR86-065-5,-2.9000000000000004,0.157,-0.09,99.97,3.0,,0.0,0.0,
2025-08-15T04:47:26.391Z,10,GR86-065-5,-2.9000000000000004,0.164,-0.088,99.97,3.0,,0.0,0.0,
2025-08-15T04:47:26.434Z,10,GR86-065-5,-2.9000000000000004,0.158,-0.067,99.96,3.0,,0.0,0.0,
2025-08-15T04:47:26.477Z,10,GR86-065-5,-2.9000000000000004,0.151,-0.042,99.95,3.0,7094.0,0.0,0.0,
2025-08-15T04:47:26.520Z,10,GR86-065-5,-2.9000000000000004,0.178,-0.055,99.94,3.0,,0.0,0.0,151.72
2025-08-15T04:47:26.565Z,10,GR86-065-5,-2.9000000000000004,0.163,-0.037,99.95,3.0,,0.0,0.0,
2025-08-15T04:47:26.608Z,10,GR86-065-5,-2.9000000000000004,0.127,-0.026,99.97,3.0,,0.0,0.0,
2025-08-15T04:47:26.652Z,10,GR86-065-5,-2.9000000000000004,0.129,-0.028,99.97,3.0,,0.0,0.0,
2025-08-15T04:47:26.695Z,10,GR86-065-5,-2.9000000000000004,0.144,-0.042,99.96,3.0,7144.0,0.0,0.0,
2025-08-15T04:47:26.738Z,10,GR86-065-5,-2.9000000000000004,0.159,-0.05,99.95,3.0,,0.0,0.0,152.83
2025-08-15T04:47:26.781Z,10,GR86-065-5,-2.9000000000000004,0.129,-0.01,99.94,3.0,,0.0,0.0,
2025-08-15T04:47:26.824Z,10,GR86-065-5,-2.9000000000000004,0.139,-0.017,99.95,3.0,,0.0,0.0,
2025-08-15T04:47:26.868Z,10,GR86-065-5,-2.9000000000000004,0.173,-0.021,99.96,3.0,,0.0,0.0,
2025-08-15T04:47:26.912Z,10,GR86-065-5,-2.9000000000000004,0.184,-0.014,99.93,3.0,7189.0,0.0,0.0,
2025-08-15T04:47:26.955Z,10,GR86-065-5,-2.9000000000000004,-0.09,0.029,99.94,4.0,,0.0,0.0,155.03
2025-08-15T04:47:26.998Z,10,GR86-065-5,-2.9000000000000004,0.224,0.047,99.96,4.0,,0.0,0.0,
2025-08-15T04:47:27.042Z,10,GR86-065-5,-2.9000000000000004,0.288,-0.093,99.97,4.0,,0.0,0.0,
2025-08-15T04:47:27.085Z,10,GR86-065-5,-2.9000000000000004,0.128,0.028,99.97,4.0,,0.0,0.0,
2025-08-15T04:47:27.128Z,10,GR86-065-5,-2.9000000000000004,-0.004,0.023,99.94,4.0,7244.0,0.0,0.0,
2025-08-15T04:47:27.171Z,10,GR86-065-5,-2.9000000000000004,0.063,-0.038,99.95,4.0,,0.0,0.0,156.07
2025-08-15T04:47:27.214Z,10,GR86-065-5,-2.9000000000000004,0.153,0.036,99.97,4.0,,0.0,0.0,
2025-08-15T04:47:27.257Z,10,GR86-065-5,-2.9000000000000004,0.158,-0.031,99.96,4.0,,0.0,0.0,
2025-08-15T04:47:27.300Z,10,GR86-065-5,-2.9000000000000004,0.073,0.024,99.95,4.0,,0.0,0.0,
2025-08-15T04:47:27.342Z,10,GR86-065-5,-2.9000000000000004,0.06,0.008,99.95,4.0,6146.0,0.0,0.0,
2025-08-15T04:47:27.386Z,10,GR86-065-5,-2.9000000000000004,0.106,-0.03,99.96,4.0,,0.0,0.0,157.11
2025-08-15T04:47:27.428Z,10,GR86-065-5,-2.9000000000000004,0.12,-0.041,99.96,4.0,,0.0,0.0,
2025-08-15T04:47:27.472Z,10,GR86-065-5,-2.9000000000000004,0.153,-0.064,99.96,4.0,,0.0,0.0,
2025-08-15T04:47:27.515Z,10,GR86-065-5,-2.9000000000000004,0.149,-0.032,99.95,4.0,,0.0,0.0,
2025-08-15T04:47:27.558Z,10,GR86-065-5,-2.9000000000000004,0.157,-0.012,99.97,4.0,6202.0,0.0,0.0,
2025-08-15T04:47:27.601Z,10,GR86-065-5,-2.9000000000000004,0.128,-0.018,99.97,4.0,,0.0,0.0,158.17000000000002
2025-08-15T04:47:27.644Z,10,GR86-065-5,-2.9000000000000004,0.158,-0.033,99.95,4.0,,0.0,0.0,
2025-08-15T04:47:27.687Z,10,GR86-065-5,-2.9000000000000004,0.158,-0.021,99.94,4.0,,0.0,0.0,
2025-08-15T04:47:27.730Z,10,GR86-065-5,-2.9000000000000004,0.151,-0.015,99.95,4.0,,0.0,0.0,
2025-08-15T04:47:27.773Z,10,GR86-065-5,-2.9000000000000004,0.12,-0.003,99.95,4.0,6249.0,0.0,0.0,
2025-08-15T04:47:27.816Z,10,GR86-065-5,-2.9000000000000004,0.078,-0.004,99.97,4.0,,0.0,0.0,158.99
2025-08-15T04:47:27.858Z,10,GR86-065-5,-2.9000000000000004,0.069,-0.025,99.93,4.0,,0.0,0.0,
2025-08-15T04:47:27.945Z,10,GR86-065-5,-3.0,0.139,-0.034,99.95,4.0,,0.0,0.0,
2025-08-15T04:47:27.988Z,10,GR86-065-5,-3.0,0.087,-0.041,99.97,4.0,6278.0,0.0,0.0,
2025-08-15T04:47:28.031Z,10,GR86-065-5,-3.0,0.074,-0.055,99.96,4.0,,0.0,0.0,159.81
2025-08-15T04:47:28.074Z,10,GR86-065-5,-3.0,0.071,-0.064,99.96,4.0,,0.0,0.0,
2025-08-15T04:47:28.117Z,10,GR86-065-5,-3.0,0.102,-0.1,99.96,4.0,,0.0,0.0,
2025-08-15T04:47:28.160Z,10,GR86-065-5,-3.1,0.078,-0.057,99.97,4.0,,0.0,0.0,
2025-08-15T04:47:28.202Z,10,GR86-065-5,-3.1,0.066,-0.065,99.96,4.0,6317.0,0.0,0.0,
2025-08-15T04:47:28.247Z,10,GR86-065-5,-3.1,0.079,-0.073,99.96,4.0,,0.0,0.0,160.65
2025-08-15T04:47:28.290Z,10,GR86-065-5,-3.1,0.104,-0.094,99.96,4.0,,0.0,0.0,
2025-08-15T04:47:28.333Z,10,GR86-065-5,-3.2,0.115,-0.084,99.97,4.0,,0.0,0.0,
2025-08-15T04:47:28.376Z,10,GR86-065-5,-3.2,0.14,-0.075,99.95,4.0,,0.0,0.0,
2025-08-15T04:47:28.418Z,10,GR86-065-5,-3.2,0.165,-0.06,99.95,4.0,6348.0,0.0,0.0,
2025-08-15T04:47:28.462Z,10,GR86-065-5,-3.3000000000000003,0.084,-0.085,99.95,4.0,,0.0,0.0,161.57
2025-08-15T04:47:28.505Z,10,GR86-065-5,-3.3000000000000003,0.123,-0.095,99.95,4.0,,0.0,0.0,
2025-08-15T04:47:28.548Z,10,GR86-065-5,-3.3000000000000003,0.144,-0.092,99.96,4.0,,0.0,0.0,
2025-08-15T04:47:28.591Z,10,GR86-065-5,-3.4000000000000004,0.153,-0.095,99.96,4.0,,0.0,0.0,
2025-08-15T04:47:28.634Z,10,GR86-065-5,-3.4000000000000004,0.152,-0.077,99.93,4.0,6383.0,0.0,0.0,
2025-08-15T04:47:28.677Z,10,GR86-065-5,-3.5,0.142,-0.076,99.95,4.0,,0.0,0.0,162.5
2025-08-15T04:47:28.720Z,10,GR86-065-5,-3.5,0.129,-0.112,99.95,4.0,,0.0,0.0,
2025-08-15T04:47:28.765Z,10,GR86-065-5,-3.5,0.142,-0.101,99.95,4.0,,0.0,0.0,
2025-08-15T04:47:28.808Z,10,GR86-065-5,-3.5,0.153,-0.083,99.97,4.0,,0.0,0.0,
2025-08-15T04:47:28.851Z,10,GR86-065-5,-3.6,0.154,-0.078,99.97,4.0,6410.0,0.0,0.0,
2025-08-15T04:47:28.894Z,10,GR86-065-5,-3.6,0.127,-0.071,99.95,4.0,,0.0,0.0,163.41
2025-08-15T04:47:28.937Z,10,GR86-065-5,-3.6,0.106,-0.084,99.96,4.0,,0.0,0.0,
2025-08-15T04:47:28.980Z,10,GR86-065-5,-3.7,0.152,-0.123,99.97,4.0,,0.0,0.0,
2025-08-15T04:47:29.022Z,10,GR86-065-5,-3.7,0.15,-0.119,99.95,4.0,,0.0,0.0,
2025-08-15T04:47:29.066Z,10,GR86-065-5,-3.8,0.154,-0.108,99.97,4.0,6454.0,0.0,0.0,
2025-08-15T04:47:29.108Z,10,GR86-065-5,-3.8,0.128,-0.108,99.95,4.0,,0.0,0.0,164.37
2025-08-15T04:47:29.152Z,10,GR86-065-5,-3.9,0.111,-0.106,99.96,4.0,,0.0,0.0,
2025-08-15T04:47:29.195Z,10,GR86-065-5,-4.2,0.091,-0.12,99.93,4.0,,0.0,0.0,
2025-08-15T04:47:29.238Z,10,GR86-065-5,-4.5,0.076,-0.13,99.96,4.0,,0.0,0.0,
2025-08-15T04:47:29.281Z,10,GR86-065-5,-4.6000000000000005,0.159,-0.148,99.96,4.0,6495.0,0.0,0.0,
2025-08-15T04:47:29.325Z,10,GR86-065-5,-4.6000000000000005,0.144,-0.141,99.96,4.0,,0.0,0.0,165.24
2025-08-15T04:47:29.368Z,10,GR86-065-5,-4.6000000000000005,0.12,-0.132,99.95,4.0,,0.0,0.0,
2025-08-15T04:47:29.411Z,10,GR86-065-5,-4.6000000000000005,0.114,-0.134,99.94,4.0,,0.0,0.0,
2025-08-15T04:47:29.454Z,10,GR86-065-5,-4.7,0.091,-0.122,99.95,4.0,,0.0,0.0,
2025-08-15T04:47:29.497Z,10,GR86-065-5,-4.6000000000000005,0.062,-0.125,99.97,4.0,6526.0,0.0,0.0,
2025-08-15T04:47:29.542Z,10,GR86-065-5,-4.7,0.144,-0.13,99.93,4.0,,0.0,0.0,167.1
2025-08-15T04:47:29.585Z,10,GR86-065-5,-4.7,0.154,-0.116,99.95,4.0,,0.0,0.0,
2025-08-15T04:47:29.628Z,10,GR86-065-5,-4.7,0.116,-0.113,99.96,4.0,,0.0,0.0,
2025-08-15T04:47:29.671Z,10,GR86-065-5,-4.7,0.117,-0.094,99.96,4.0,,0.0,0.0,
2025-08-15T04:47:29.715Z,10,GR86-065-5,-4.7,0.082,-0.083,99.97,4.0,6563.0,0.0,0.0,
2025-08-15T04:47:29.758Z,10,GR86-065-5,-4.7,0.086,-0.093,99.95,4.0,,0.0,0.0,168.08
2025-08-15T04:47:29.802Z,10,GR86-065-5,-4.7,0.156,-0.087,99.96,4.0,,0.0,0.0,
2025-08-15T04:47:29.845Z,10,GR86-065-5,-4.7,0.144,-0.059,99.94,4.0,,0.0,0.0,
2025-08-15T04:47:29.888Z,10,GR86-065-5,-4.7,0.134,-0.055,99.96,4.0,,0.0,0.0,
2025-08-15T04:47:29.931Z,10,GR86-065-5,-4.7,0.127,-0.064,99.95,4.0,6599.0,0.0,0.0,
2025-08-15T04:47:29.974Z,10,GR86-065-5,-4.7,0.099,-0.092,99.93,4.0,,0.0,0.0,169.1
2025-08-15T04:47:30.017Z,10,GR86-065-5,-4.7,0.099,-0.099,99.94,4.0,,0.0,0.0,
2025-08-15T04:47:30.060Z,10,GR86-065-5,-4.7,0.149,-0.116,99.96,4.0,,0.0,0.0,
2025-08-15T04:47:30.104Z,10,GR86-065-5,-4.7,0.149,-0.117,99.96,4.0,,0.0,0.0,
2025-08-15T04:47:30.147Z,10,GR86-065-5,-4.7,0.135,-0.112,99.95,4.0,6674.0,0.0,0.0,
2025-08-15T04:47:30.190Z,10,GR86-065-5,-4.7,0.147,-0.109,99.93,4.0,,0.0,0.0,170.08
2025-08-15T04:47:30.233Z,10,GR86-065-5,-4.7,0.124,-0.102,99.96,4.0,,0.0,0.0,
2025-08-15T04:47:30.276Z,10,GR86-065-5,-4.7,0.12,-0.133,99.96,4.0,,0.0,0.0,
2025-08-15T04:47:30.318Z,10,GR86-065-5,-4.7,0.104,-0.144,99.94,4.0,,0.0,0.0,
2025-08-15T04:47:30.362Z,10,GR86-065-5,-4.7,0.116,-0.161,99.96,4.0,6711.0,0.0,0.0,
2025-08-15T04:47:30.405Z,10,GR86-065-5,-4.800000000000001,0.122,-0.136,99.95,4.0,,0.0,0.0,170.86
2025-08-15T04:47:30.448Z,10,GR86-065-5,-4.800000000000001,0.128,-0.134,99.97,4.0,,0.0,0.0,
2025-08-15T04:47:30.491Z,10,GR86-065-5,-4.800000000000001,0.129,-0.111,99.97,4.0,,0.0,0.0,
2025-08-15T04:47:30.535Z,10,GR86-065-5,-4.800000000000001,0.128,-0.104,99.96,4.0,,0.0,0.0,
2025-08-15T04:47:30.578Z,10,GR86-065-5,-4.800000000000001,0.129,-0.105,99.94,4.0,6749.0,0.0,0.0,
2025-08-15T04:47:30.621Z,10,GR86-065-5,-4.800000000000001,0.1,-0.142,99.96,4.0,,0.0,0.0,171.73
2025-08-15T04:47:30.664Z,10,GR86-065-5,-4.800000000000001,0.096,-0.138,99.96,4.0,,0.0,0.0,
2025-08-15T04:47:30.707Z,10,GR86-065-5,-4.800000000000001,0.108,-0.134,99.95,4.0,,0.0,0.0,
2025-08-15T04:47:30.750Z,10,GR86-065-5,-4.800000000000001,0.11,-0.128,99.93,4.0,,0.0,0.0,
2025-08-15T04:47:30.792Z,10,GR86-065-5,-4.800000000000001,0.123,-0.134,99.96,4.0,6780.0,0.0,0.0,
2025-08-15T04:47:30.836Z,10,GR86-065-5,-4.800000000000001,0.134,-0.121,99.94,4.0,,0.0,0.0,172.82
2025-08-15T04:47:30.880Z,10,GR86-065-5,-4.800000000000001,0.086,-0.116,99.94,4.0,,0.0,0.0,
2025-08-15T04:47:30.922Z,10,GR86-065-5,-4.800000000000001,0.091,-0.136,99.95,4.0,,0.0,0.0,
2025-08-15T04:47:30.966Z,10,GR86-065-5,-4.800000000000001,0.071,-0.137,99.94,4.0,,0.0,0.0,
2025-08-15T04:47:31.008Z,10,GR86-065-5,-4.800000000000001,0.083,-0.138,99.94,4.0,6823.0,0.0,0.0,
2025-08-15T04:47:31.052Z,10,GR86-065-5,-4.800000000000001,0.101,-0.127,99.95,4.0,,0.0,0.0,173.71
2025-08-15T04:47:31.095Z,10,GR86-065-5,-4.800000000000001,0.092,-0.108,99.94,4.0,,0.0,0.0,
2025-08-15T04:47:31.138Z,10,GR86-065-5,-4.9,0.087,-0.128,99.94,4.0,,0.0,0.0,
2025-08-15T04:47:31.181Z,10,GR86-065-5,-4.800000000000001,0.089,-0.12,99.95,4.0,,0.0,0.0,
2025-08-15T04:47:31.225Z,10,GR86-065-5,-4.9,0.086,-0.113,99.93,4.0,6848.0,0.0,0.0,
2025-08-15T04:47:31.268Z,10,GR86-065-5,-4.9,0.073,-0.096,99.93,4.0,,0.0,0.0,174.64
2025-08-15T04:47:31.311Z,10,GR86-065-5,-4.9,0.075,-0.123,99.91,4.0,,0.0,0.0,
2025-08-15T04:47:31.354Z,10,GR86-065-5,-4.9,0.088,-0.103,99.93,4.0,,0.0,0.0,
2025-08-15T04:47:31.397Z,10,GR86-065-5,-4.9,0.07,-0.11,99.94,4.0,,0.0,0.0,
2025-08-15T04:47:31.441Z,10,GR86-065-5,-4.9,0.099,-0.065,99.95,4.0,6883.0,0.0,0.0,
2025-08-15T04:47:31.485Z,10,GR86-065-5,-4.9,0.097,-0.068,99.93,4.0,,0.0,0.0,175.43
2025-08-15T04:47:31.528Z,10,GR86-065-5,-4.9,0.101,-0.073,99.93,4.0,,0.0,0.0,
2025-08-15T04:47:31.571Z,10,GR86-065-5,-4.9,0.112,-0.074,99.94,4.0,,0.0,0.0,
2025-08-15T04:47:31.615Z,10,GR86-065-5,-4.9,0.101,-0.084,99.95,4.0,,0.0,0.0,
2025-08-15T04:47:31.658Z,10,GR86-065-5,-4.9,0.084,-0.088,99.92,4.0,6917.0,0.0,0.0,
2025-08-15T04:47:31.701Z,10,GR86-065-5,-4.9,0.082,-0.108,99.95,4.0,,0.0,0.0,176.32
2025-08-15T04:47:31.745Z,10,GR86-065-5,-4.9,0.081,-0.115,99.94,4.0,,0.0,0.0,
2025-08-15T04:47:31.788Z,10,GR86-065-5,-4.9,0.094,-0.113,99.96,4.0,,0.0,0.0,
2025-08-15T04:47:31.831Z,10,GR86-065-5,-4.9,0.094,-0.126,99.93,4.0,,0.0,0.0,
2025-08-15T04:47:31.874Z,10,GR86-065-5,-4.9,0.108,-0.119,99.96,4.0,6957.0,0.0,0.0,
2025-08-15T04:47:31.917Z,10,GR86-065-5,-4.9,0.104,-0.116,99.96,4.0,,0.0,0.0,177.17000000000002
2025-08-15T04:47:31.960Z,10,GR86-065-5,-4.9,0.071,-0.101,99.95,4.0,,0.0,0.0,
2025-08-15T04:47:32.002Z,10,GR86-065-5,-4.9,0.047,-0.101,99.92,4.0,,0.0,0.0,
2025-08-15T04:47:32.046Z,10,GR86-065-5,-4.9,0.069,-0.121,99.93,4.0,,0.0,0.0,
2025-08-15T04:47:32.088Z,10,GR86-065-5,-4.9,0.072,-0.124,99.94,4.0,6989.0,0.0,0.0,
2025-08-15T04:47:32.132Z,10,GR86-065-5,-4.9,0.063,-0.127,99.93,4.0,,0.0,0.0,178.02
2025-08-15T04:47:32.175Z,10,GR86-065-5,-4.9,0.064,-0.123,99.95,4.0,,0.0,0.0,
2025-08-15T04:47:32.218Z,10,GR86-065-5,-4.9,0.051,-0.111,99.94,4.0,,0.0,0.0,
2025-08-15T04:47:32.261Z,10,GR86-065-5,-4.9,0.101,-0.115,99.93,4.0,,0.0,0.0,
2025-08-15T04:47:32.305Z,10,GR86-065-5,-4.9,0.115,-0.104,99.94,4.0,7016.0,0.0,0.0,
2025-08-15T04:47:32.348Z,10,GR86-065-5,-4.9,0.109,-0.096,99.93,4.0,,0.0,0.0,179.56
2025-08-15T04:47:32.391Z,10,GR86-065-5,-4.9,0.098,-0.103,99.94,4.0,,0.0,0.0,
2025-08-15T04:47:32.434Z,10,GR86-065-5,-4.9,0.121,-0.1,99.94,4.0,,0.0,0.0,
2025-08-15T04:47:32.477Z,10,GR86-065-5,-4.9,0.112,-0.088,99.94,4.0,,0.0,0.0,
2025-08-15T04:47:32.520Z,10,GR86-065-5,-4.9,0.07,-0.088,99.94,4.0,7046.0,0.0,0.0,
2025-08-15T04:47:32.608Z,10,GR86-065-5,-4.9,0.056,-0.091,99.94,4.0,,0.0,0.0,180.4
2025-08-15T04:47:32.652Z,10,GR86-065-5,-4.9,0.069,-0.08,99.94,4.0,,0.0,0.0,
2025-08-15T04:47:32.695Z,10,GR86-065-5,-4.9,0.062,-0.074,99.96,4.0,,0.0,0.0,
2025-08-15T04:47:32.738Z,10,GR86-065-5,-4.9,0.062,-0.072,99.94,4.0,7071.0,0.0,0.0,
2025-08-15T04:47:32.781Z,10,GR86-065-5,-4.9,0.104,-0.089,99.96,4.0,,0.0,0.0,181.15
2025-08-15T04:47:32.824Z,10,GR86-065-5,-4.9,0.126,-0.087,99.95,4.0,,0.0,0.0,
2025-08-15T04:47:32.868Z,10,GR86-065-5,-4.9,0.105,-0.069,99.95,4.0,,0.0,0.0,
2025-08-15T04:47:32.911Z,10,GR86-065-5,-4.9,0.115,-0.082,99.93,4.0,,0.0,0.0,
2025-08-15T04:47:32.954Z,10,GR86-065-5,-4.9,0.116,-0.08,99.95,4.0,7133.0,0.0,0.0,
2025-08-15T04:47:32.997Z,10,GR86-065-5,-4.9,0.1,-0.099,99.93,4.0,,0.0,0.0,181.89
2025-08-15T04:47:33.042Z,10,GR86-065-5,-4.9,0.046,-0.08,99.93,4.0,,0.0,0.0,
2025-08-15T04:47:33.085Z,10,GR86-065-5,-4.9,0.061,-0.062,99.93,4.0,,0.0,0.0,
2025-08-15T04:47:33.128Z,10,GR86-065-5,-4.9,0.055,-0.054,99.94,4.0,,0.0,0.0,
2025-08-15T04:47:33.171Z,10,GR86-065-5,-4.9,0.048,-0.054,99.95,4.0,7169.0,0.0,0.0,
2025-08-15T04:47:33.214Z,10,GR86-065-5,-4.9,0.043,-0.048,99.94,4.0,,0.0,0.0,182.59
2025-08-15T04:47:33.257Z,10,GR86-065-5,-4.9,0.051,-0.066,99.93,4.0,,0.0,0.0,
2025-08-15T04:47:33.300Z,10,GR86-065-5,-4.9,0.105,-0.034,99.92,4.0,,0.0,0.0,
2025-08-15T04:47:33.342Z,10,GR86-065-5,-4.9,0.117,-0.018,99.94,4.0,,0.0,0.0,
2025-08-15T04:47:33.386Z,10,GR86-065-5,-4.9,0.123,-0.004,99.95,4.0,7188.0,0.0,0.0,
2025-08-15T04:47:33.429Z,10,GR86-065-5,-4.9,0.12,-0.014,99.94,4.0,,0.0,0.0,183.44
2025-08-15T04:47:33.472Z,10,GR86-065-5,-4.9,0.101,-0.023,99.96,4.0,,0.0,0.0,
2025-08-15T04:47:33.515Z,10,GR86-065-5,-4.9,0.097,-0.053,99.9,4.0,,0.0,0.0,
2025-08-15T04:47:33.558Z,10,GR86-065-5,-4.9,0.11,-0.045,99.94,4.0,,0.0,0.0,
2025-08-15T04:47:33.601Z,10,GR86-065-5,-4.9,0.062,-0.016,99.92,4.0,7219.0,0.0,0.0,
2025-08-15T04:47:33.645Z,10,GR86-065-5,-4.9,0.054,-0.003,99.95,4.0,,0.0,0.0,184.28
2025-08-15T04:47:33.688Z,10,GR86-065-5,-4.9,0.078,-0.015,99.94,4.0,,0.0,0.0,
2025-08-15T04:47:33.731Z,10,GR86-065-5,-4.9,0.042,-0.015,99.93,4.0,,0.0,0.0,
2025-08-15T04:47:33.774Z,10,GR86-065-5,-4.9,-0.187,0.007,99.94,5.0,,0.0,0.0,
2025-08-15T04:47:33.817Z,10,GR86-065-5,-4.9,0.173,-0.004,99.93,5.0,7259.0,0.0,0.0,
2025-08-15T04:47:33.860Z,10,GR86-065-5,-4.9,0.113,-0.122,99.93,5.0,,0.0,0.0,184.81
2025-08-15T04:47:33.902Z,10,GR86-065-5,-4.9,-0.005,-0.013,99.94,5.0,,0.0,0.0,
2025-08-15T04:47:33.946Z,10,GR86-065-5,-4.9,-0.031,-0.076,99.93,5.0,,0.0,0.0,
2025-08-15T04:47:33.990Z,10,GR86-065-5,-4.9,0.08,-0.097,99.93,5.0,,0.0,0.0,
2025-08-15T04:47:34.032Z,10,GR86-065-5,-4.9,0.103,-0.029,99.92,5.0,7075.0,0.0,0.0,
2025-08-15T04:47:34.076Z,10,GR86-065-5,-4.9,0.031,-0.073,99.93,5.0,,0.0,0.0,185.64
2025-08-15T04:47:34.119Z,10,GR86-065-5,-4.9,0.013,-0.061,99.94,5.0,,0.0,0.0,
2025-08-15T04:47:34.162Z,10,GR86-065-5,-4.9,0.122,-0.039,99.93,5.0,,0.0,0.0,
2025-08-15T04:47:34.205Z,10,GR86-065-5,-4.9,0.122,-0.021,99.92,5.0,,0.0,0.0,
2025-08-15T04:47:34.248Z,10,GR86-065-5,-4.9,0.096,-0.006,99.93,5.0,6313.0,0.0,0.0,
2025-08-15T04:47:34.291Z,10,GR86-065-5,-4.9,0.09,-0.024,99.93,5.0,,0.0,0.0,186.15
2025-08-15T04:47:34.334Z,10,GR86-065-5,-4.9,0.102,-0.043,99.94,5.0,,0.0,0.0,
2025-08-15T04:47:34.377Z,10,GR86-065-5,-4.9,0.088,-0.043,99.94,5.0,,0.0,0.0,
2025-08-15T04:47:34.420Z,10,GR86-065-5,-4.9,0.061,-0.017,99.94,5.0,,0.0,0.0,
2025-08-15T04:47:34.462Z,10,GR86-065-5,-4.9,0.065,-0.026,99.95,5.0,6370.0,0.0,0.0,
2025-08-15T04:47:34.506Z,10,GR86-065-5,-4.9,0.079,-0.026,99.92,5.0,,0.0,0.0,187.08
2025-08-15T04:47:34.548Z,10,GR86-065-5,-4.9,0.077,-0.03,99.93,5.0,,0.0,0.0,
2025-08-15T04:47:34.592Z,10,GR86-065-5,-4.9,0.091,-0.027,99.93,5.0,,0.0,0.0,
2025-08-15T04:47:34.635Z,10,GR86-065-5,-4.9,0.095,-0.02,99.93,5.0,,0.0,0.0,
2025-08-15T04:47:34.679Z,10,GR86-065-5,-4.9,0.099,-0.037,99.94,5.0,6380.0,0.0,0.0,
2025-08-15T04:47:34.722Z,10,GR86-065-5,-4.9,0.053,-0.052,99.94,5.0,,0.0,0.0,187.72
2025-08-15T04:47:34.765Z,10,GR86-065-5,-4.9,0.039,-0.04,99.92,5.0,,0.0,0.0,
2025-08-15T04:47:34.808Z,10,GR86-065-5,-4.9,0.046,-0.043,99.93,5.0,,0.0,0.0,
2025-08-15T04:47:34.851Z,10,GR86-065-5,-4.9,0.048,-0.038,99.94,5.0,,0.0,0.0,
2025-08-15T04:47:34.894Z,10,GR86-065-5,-4.9,0.061,-0.045,99.94,5.0,6405.0,0.0,0.0,
2025-08-15T04:47:34.938Z,10,GR86-065-5,-4.9,0.045,-0.039,99.93,5.0,,0.0,0.0,188.35
2025-08-15T04:47:34.981Z,10,GR86-065-5,-4.9,0.073,-0.056,99.95,5.0,,0.0,0.0,
2025-08-15T04:47:35.025Z,10,GR86-065-5,-4.9,0.054,-0.059,99.94,5.0,,0.0,0.0,
2025-08-15T04:47:35.068Z,10,GR86-065-5,-4.9,0.057,-0.047,99.93,5.0,,0.0,0.0,
2025-08-15T04:47:35.111Z,10,GR86-065-5,-4.9,0.053,-0.055,99.93,5.0,6425.0,0.0,0.0,
2025-08-15T04:47:35.155Z,10,GR86-065-5,-4.9,0.06,-0.042,99.94,5.0,,0.0,0.0,189.7
2025-08-15T04:47:35.198Z,10,GR86-065-5,-4.9,0.052,-0.038,99.93,5.0,,0.0,0.0,
2025-08-15T04:47:35.242Z,10,GR86-065-5,-4.9,0.089,-0.019,99.94,5.0,,0.0,0.0,
2025-08-15T04:47:35.285Z,10,GR86-065-5,-4.9,0.084,0.001,99.94,5.0,,0.0,0.0,
2025-08-15T04:47:35.328Z,10,GR86-065-5,-4.7,0.088,0.004,99.93,5.0,6440.0,0.0,0.0,
2025-08-15T04:47:35.372Z,10,GR86-065-5,-4.5,0.064,-0.003,99.93,5.0,,0.0,0.0,190.32
2025-08-15T04:47:35.415Z,10,GR86-065-5,-4.5,0.063,-0.014,99.93,5.0,,0.0,0.0,
2025-08-15T04:47:35.458Z,10,GR86-065-5,-4.5,0.071,-0.016,99.94,5.0,,0.0,0.0,
2025-08-15T04:47:35.502Z,10,GR86-065-5,-4.5,0.082,0.017,99.94,5.0,,0.0,0.0,
2025-08-15T04:47:35.545Z,10,GR86-065-5,-4.5,0.087,0.01,99.93,5.0,6499.0,0.0,0.0,
2025-08-15T04:47:35.588Z,10,GR86-065-5,-4.5,0.076,0.015,99.94,5.0,,0.0,0.0,190.98
2025-08-15T04:47:35.631Z,10,GR86-065-5,-4.3,0.094,0.013,99.95,5.0,,0.0,0.0,
2025-08-15T04:47:35.674Z,10,GR86-065-5,-3.9,0.081,0.023,99.93,5.0,,0.0,0.0,
2025-08-15T04:47:35.717Z,10,GR86-065-5,-3.8,0.083,0.007,99.94,5.0,,0.0,0.0,
2025-08-15T04:47:35.760Z,10,GR86-065-5,-3.8,0.076,0.019,99.93,5.0,6511.0,0.0,0.0,
2025-08-15T04:47:35.804Z,10,GR86-065-5,-3.8,0.064,0.027,99.94,5.0,,0.0,0.0,191.68
2025-08-15T04:47:35.847Z,10,GR86-065-5,-3.8,0.094,0.023,99.94,5.0,,0.0,0.0,
2025-08-15T04:47:35.890Z,10,GR86-065-5,-3.8,0.089,0.029,99.93,5.0,,0.0,0.0,
2025-08-15T04:47:35.932Z,10,GR86-065-5,-3.8,0.091,0.019,99.94,5.0,,0.0,0.0,
2025-08-15T04:47:35.976Z,10,GR86-065-5,-3.7,0.085,0.022,99.93,5.0,6534.0,0.0,0.0,
2025-08-15T04:47:36.018Z,10,GR86-065-5,-3.4000000000000004,0.087,0.023,99.93,5.0,,0.0,0.0,192.32
2025-08-15T04:47:36.062Z,10,GR86-065-5,-3.1,0.059,0.052,99.94,5.0,,0.0,0.0,
2025-08-15T04:47:36.105Z,10,GR86-065-5,-3.0,0.068,0.055,99.93,5.0,,0.0,0.0,
2025-08-15T04:47:36.148Z,10,GR86-065-5,-2.9000000000000004,0.079,0.073,99.93,5.0,,0.0,0.0,
2025-08-15T04:47:36.191Z,10,GR86-065-5,-2.9000000000000004,0.084,0.079,99.93,5.0,6556.0,0.0,0.0,
2025-08-15T04:47:36.235Z,10,GR86-065-5,-2.9000000000000004,0.075,0.075,99.93,5.0,,0.0,0.0,192.97
2025-08-15T04:47:36.278Z,10,GR86-065-5,-2.9000000000000004,0.087,0.088,99.94,5.0,,0.0,0.0,
2025-08-15T04:47:36.321Z,10,GR86-065-5,-2.9000000000000004,0.073,0.08,99.94,5.0,,0.0,0.0,
2025-08-15T04:47:36.364Z,10,GR86-065-5,-2.9000000000000004,0.054,0.096,99.94,5.0,,0.0,0.0,
2025-08-15T04:47:36.407Z,10,GR86-065-5,-2.9000000000000004,0.051,0.108,99.95,5.0,6573.0,0.0,0.0,
2025-08-15T04:47:36.450Z,10,GR86-065-5,-2.9000000000000004,0.09,0.114,99.93,5.0,,0.0,0.0,193.66
2025-08-15T04:47:36.492Z,10,GR86-065-5,-2.9000000000000004,0.071,0.083,99.93,5.0,,0.0,0.0,
2025-08-15T04:47:36.536Z,10,GR86-065-5,-2.9000000000000004,0.077,0.062,99.93,5.0,,0.0,0.0,
2025-08-15T04:47:36.579Z,10,GR86-065-5,-2.9000000000000004,0.079,0.05,99.93,5.0,,0.0,0.0,
2025-08-15T04:47:36.622Z,10,GR86-065-5,-2.9000000000000004,0.056,0.053,99.93,5.0,6596.0,0.0,0.0,
2025-08-15T04:47:36.665Z,10,GR86-065-5,-2.9000000000000004,0.055,0.066,99.93,5.0,,0.0,0.0,194.28
2025-08-15T04:47:36.708Z,10,GR86-065-5,-2.9000000000000004,0.065,0.056,99.93,5.0,,0.0,0.0,
2025-08-15T04:47:36.751Z,10,GR86-065-5,-2.9000000000000004,0.061,0.051,99.94,5.0,,0.0,0.0,
2025-08-15T04:47:36.794Z,10,GR86-065-5,-2.9000000000000004,0.088,0.048,99.95,5.0,,0.0,0.0,
2025-08-15T04:47:36.837Z,10,GR86-065-5,-2.9000000000000004,0.06,0.035,99.94,5.0,6624.0,0.0,0.0,
2025-08-15T04:47:36.880Z,10,GR86-065-5,-2.9000000000000004,0.064,0.041,99.94,5.0,,0.0,0.0,194.9
2025-08-15T04:47:36.923Z,10,GR86-065-5,-2.9000000000000004,0.066,0.049,99.95,5.0,,0.0,0.0,
2025-08-15T04:47:36.966Z,10,GR86-065-5,-2.9000000000000004,0.07,0.071,99.93,5.0,,0.0,0.0,
2025-08-15T04:47:37.008Z,10,GR86-065-5,-2.9000000000000004,0.07,0.089,99.94,5.0,,0.0,0.0,
2025-08-15T04:47:37.052Z,10,GR86-065-5,-2.9000000000000004,0.067,0.088,99.93,5.0,6642.0,0.0,0.0,
2025-08-15T04:47:37.095Z,10,GR86-065-5,-2.9000000000000004,0.077,0.084,99.95,5.0,,0.0,0.0,195.53
2025-08-15T04:47:37.138Z,10,GR86-065-5,-2.9000000000000004,0.082,0.103,99.93,5.0,,0.0,0.0,
2025-08-15T04:47:37.181Z,10,GR86-065-5,-2.9000000000000004,0.062,0.107,99.93,5.0,,0.0,0.0,
2025-08-15T04:47:37.225Z,10,GR86-065-5,-2.9000000000000004,0.065,0.105,99.93,5.0,,0.0,0.0,
2025-08-15T04:47:37.268Z,10,GR86-065-5,-2.8000000000000003,0.058,0.11,99.93,5.0,6666.0,0.0,0.0,
2025-08-15T04:47:37.311Z,10,GR86-065-5,-2.7,0.068,0.13,99.93,5.0,,0.0,0.0,196.11
2025-08-15T04:47:37.354Z,10,GR86-065-5,-2.7,0.059,0.125,99.93,5.0,,0.0,0.0,
2025-08-15T04:47:37.397Z,10,GR86-065-5,-2.7,0.099,0.106,99.92,5.0,,0.0,0.0,
2025-08-15T04:47:37.441Z,10,GR86-065-5,-2.7,0.071,0.124,99.94,5.0,,0.0,0.0,
2025-08-15T04:47:37.485Z,10,GR86-065-5,-2.7,0.06,0.105,99.93,5.0,6695.0,0.0,0.0,
2025-08-15T04:47:37.528Z,10,GR86-065-5,-2.7,0.063,0.081,99.94,5.0,,0.0,0.0,196.92
2025-08-15T04:47:37.571Z,10,GR86-065-5,-2.7,0.08,0.042,99.93,5.0,,0.0,0.0,
2025-08-15T04:47:37.615Z,10,GR86-065-5,-2.7,0.078,0.028,99.93,5.0,,0.0,0.0,
2025-08-15T04:47:37.658Z,10,GR86-065-5,-2.7,0.079,0.005,99.94,5.0,,0.0,0.0,
2025-08-15T04:47:37.701Z,10,GR86-065-5,-2.7,0.058,0.004,99.93,5.0,6719.0,0.0,0.0,
2025-08-15T04:47:37.745Z,10,GR86-065-5,-2.7,0.066,-0.003,99.94,5.0,,0.0,0.0,198.26
2025-08-15T04:47:37.788Z,10,GR86-065-5,-2.7,0.08,-0.016,99.93,5.0,,0.0,0.0,
2025-08-15T04:47:37.831Z,10,GR86-065-5,-2.7,0.089,-0.022,99.93,5.0,,0.0,0.0,
2025-08-15T04:47:37.874Z,10,GR86-065-5,-2.7,0.082,-0.024,99.93,5.0,,0.0,0.0,
2025-08-15T04:47:37.917Z,10,GR86-065-5,-2.7,0.082,-0.016,99.95,5.0,6734.0,0.0,0.0,
2025-08-15T04:47:37.960Z,10,GR86-065-5,-2.7,0.077,0.041,99.93,5.0,,0.0,0.0,198.93
2025-08-15T04:47:38.002Z,10,GR86-065-5,-2.4000000000000004,0.081,0.057,99.93,5.0,,0.0,0.0,
2025-08-15T04:47:38.046Z,10,GR86-065-5,-1.8,0.084,0.036,99.94,5.0,,0.0,0.0,
2025-08-15T04:47:38.088Z,10,GR86-065-5,-1.7000000000000002,0.082,0.054,99.93,5.0,,0.0,0.0,
2025-08-15T04:47:38.132Z,10,GR86-065-5,-1.7000000000000002,0.082,0.071,99.93,5.0,6757.0,0.0,0.0,
2025-08-15T04:47:38.175Z,10,GR86-065-5,-1.7000000000000002,0.06,0.081,99.93,5.0,,0.0,0.0,199.61
2025-08-15T04:47:38.218Z,10,GR86-065-5,-1.7000000000000002,0.051,0.093,99.94,5.0,,0.0,0.0,
2025-08-15T04:47:38.261Z,10,GR86-065-5,-1.7000000000000002,0.079,0.061,99.92,5.0,,0.0,0.0,
2025-08-15T04:47:38.305Z,10,GR86-065-5,-1.7000000000000002,0.088,0.047,99.92,5.0,,0.0,0.0,
2025-08-15T04:47:38.348Z,10,GR86-065-5,-1.7000000000000002,0.08,0.073,99.93,5.0,6801.0,0.0,0.0,
2025-08-15T04:47:38.391Z,10,GR86-065-5,-1.7000000000000002,0.062,0.096,99.93,5.0,,0.0,0.0,200.39
2025-08-15T04:47:38.434Z,10,GR86-065-5,-1.3,0.046,0.108,99.94,5.0,,0.0,0.0,
2025-08-15T04:47:38.477Z,10,GR86-065-5,-0.9,0.05,0.105,99.93,5.0,,0.0,0.0,
2025-08-15T04:47:38.522Z,10,GR86-065-5,-0.5,0.075,0.084,99.93,5.0,,0.0,0.0,
2025-08-15T04:47:38.565Z,10,GR86-065-5,-0.3,0.087,0.114,99.92,5.0,6825.0,0.0,0.0,
2025-08-15T04:47:38.608Z,10,GR86-065-5,-0.3,0.03,0.128,99.93,5.0,,0.0,0.0,200.97
2025-08-15T04:47:38.652Z,10,GR86-065-5,-0.3,0.039,0.153,99.93,5.0,,0.0,0.0,
2025-08-15T04:47:38.695Z,10,GR86-065-5,-0.3,0.056,0.172,99.94,5.0,,0.0,0.0,
2025-08-15T04:47:38.738Z,10,GR86-065-5,-0.3,0.076,0.177,99.93,5.0,,0.0,0.0,
2025-08-15T04:47:38.781Z,10,GR86-065-5,-0.3,0.059,0.169,99.94,5.0,6856.0,0.0,0.0,
2025-08-15T04:47:38.825Z,10,GR86-065-5,-0.2,0.038,0.151,99.93,5.0,,0.0,0.0,201.61
2025-08-15T04:47:38.868Z,10,GR86-065-5,-0.2,0.059,0.171,99.92,5.0,,0.0,0.0,
2025-08-15T04:47:38.911Z,10,GR86-065-5,-0.2,0.078,0.169,99.94,5.0,,0.0,0.0,
2025-08-15T04:47:38.954Z,10,GR86-065-5,-0.2,0.085,0.169,99.93,5.0,,0.0,0.0,
2025-08-15T04:47:38.997Z,10,GR86-065-5,-0.2,0.075,0.183,99.93,5.0,6872.0,0.0,0.0,
2025-08-15T04:47:39.042Z,10,GR86-065-5,-0.1,0.046,0.21,99.94,5.0,,0.0,0.0,202.32
2025-08-15T04:47:39.085Z,10,GR86-065-5,-0.1,0.085,0.208,99.94,5.0,,0.0,0.0,
2025-08-15T04:47:39.128Z,10,GR86-065-5,-0.1,0.083,0.222,99.93,5.0,,0.0,0.0,
2025-08-15T04:47:39.171Z,10,GR86-065-5,0.0,0.102,0.23,99.93,5.0,,0.0,0.0,
2025-08-15T04:47:39.214Z,10,GR86-065-5,0.1,0.085,0.249,99.93,5.0,6898.0,0.0,0.0,
2025-08-15T04:47:39.257Z,10,GR86-065-5,0.3,0.08,0.222,99.93,5.0,,0.0,0.0,202.91
2025-08-15T04:47:39.300Z,10,GR86-065-5,0.8,0.117,0.221,99.92,5.0,,0.0,0.0,
2025-08-15T04:47:39.343Z,10,GR86-065-5,1.0,0.081,0.242,99.93,5.0,,0.0,0.0,
2025-08-15T04:47:39.386Z,10,GR86-065-5,1.0,0.067,0.212,99.93,5.0,,0.0,0.0,
2025-08-15T04:47:39.428Z,10,GR86-065-5,1.0,0.042,0.211,99.93,5.0,6915.0,0.0,0.0,
2025-08-15T04:47:39.472Z,10,GR86-065-5,1.0,0.028,0.203,99.93,5.0,,0.0,0.0,203.53
2025-08-15T04:47:39.515Z,10,GR86-065-5,1.0,0.026,0.235,99.93,5.0,,0.0,0.0,
2025-08-15T04:47:39.558Z,10,GR86-065-5,1.0,0.062,0.242,99.94,5.0,,0.0,0.0,
2025-08-15T04:47:39.601Z,10,GR86-065-5,1.0,0.067,0.241,99.9,5.0,,0.0,0.0,
2025-08-15T04:47:39.645Z,10,GR86-065-5,1.0,0.008,0.225,99.94,5.0,6952.0,0.0,0.0,
2025-08-15T04:47:39.688Z,10,GR86-065-5,1.3,0.045,0.236,99.93,5.0,,0.0,0.0,204.34
2025-08-15T04:47:39.731Z,10,GR86-065-5,1.4,0.063,0.226,99.9,5.0,,0.0,0.0,
2025-08-15T04:47:39.774Z,10,GR86-065-5,1.4,0.069,0.214,99.93,5.0,,0.0,0.0,
2025-08-15T04:47:39.817Z,10,GR86-065-5,1.4,0.078,0.232,99.93,5.0,,0.0,0.0,
2025-08-15T04:47:39.860Z,10,GR86-065-5,1.4,0.054,0.275,99.93,5.0,6970.0,0.0,0.0,
2025-08-15T04:47:39.902Z,10,GR86-065-5,1.4,0.065,0.3,99.93,5.0,,0.0,0.0,205.03
2025-08-15T04:47:39.946Z,10,GR86-065-5,1.4,0.075,0.299,99.93,5.0,,0.0,0.0,
2025-08-15T04:47:39.990Z,10,GR86-065-5,1.4,0.056,0.296,99.93,5.0,,0.0,0.0,
2025-08-15T04:47:40.032Z,10,GR86-065-5,1.8,0.028,0.316,99.94,5.0,,0.0,0.0,
2025-08-15T04:47:40.076Z,10,GR86-065-5,1.8,0.023,0.321,99.93,5.0,6999.0,0.0,0.0,
2025-08-15T04:47:40.119Z,10,GR86-065-5,1.8,0.019,0.314,99.92,5.0,,0.0,0.0,205.59
2025-08-15T04:47:40.162Z,10,GR86-065-5,1.8,0.038,0.274,99.9,5.0,,0.0,0.0,
2025-08-15T04:47:40.205Z,10,GR86-065-5,1.8,0.021,0.269,99.94,5.0,,0.0,0.0,
2025-08-15T04:47:40.248Z,10,GR86-065-5,1.8,0.029,0.263,99.93,5.0,,0.0,0.0,
2025-08-15T04:47:40.291Z,10,GR86-065-5,1.8,0.035,0.285,99.92,5.0,7012.0,0.0,0.0,
2025-08-15T04:47:40.334Z,10,GR86-065-5,1.8,0.061,0.273,99.94,5.0,,0.0,0.0,206.08
2025-08-15T04:47:40.377Z,10,GR86-065-5,1.8,0.079,0.251,99.93,5.0,,0.0,0.0,
2025-08-15T04:47:40.420Z,10,GR86-065-5,1.8,0.039,0.238,99.9,5.0,,0.0,0.0,
2025-08-15T04:47:40.462Z,10,GR86-065-5,-0.1,0.059,0.206,99.92,5.0,,0.0,0.0,
2025-08-15T04:47:40.506Z,10,GR86-065-5,-5.300000000000001,0.073,0.159,99.89,5.0,7027.0,0.0,0.0,
2025-08-15T04:47:40.548Z,10,GR86-065-5,-8.4,0.041,0.12,99.92,5.0,,0.0,0.0,207.43
2025-08-15T04:47:40.592Z,10,GR86-065-5,-11.7,0.034,0.017,99.92,5.0,,0.0,0.0,
2025-08-15T04:47:40.635Z,10,GR86-065-5,-14.3,0.016,-0.112,99.92,5.0,,0.0,0.0,
2025-08-15T04:47:40.678Z,10,GR86-065-5,-15.1,-0.01,-0.23,99.91,5.0,,0.0,0.0,
2025-08-15T04:47:40.722Z,10,GR86-065-5,-15.3,0.006,-0.427,99.9,5.0,7045.0,0.0,0.0,
2025-08-15T04:47:40.765Z,10,GR86-065-5,-15.3,-0.001,-0.523,99.91,5.0,,0.0,0.0,208.05
2025-08-15T04:47:40.808Z,10,GR86-065-5,-11.0,0.012,-0.556,99.91,5.0,,0.0,0.0,
2025-08-15T04:47:40.851Z,10,GR86-065-5,-7.4,0.03,-0.5690000000000001,99.93,5.0,,0.0,0.0,
2025-08-15T04:47:40.894Z,10,GR86-065-5,-3.4000000000000004,0.033,-0.525,99.91,5.0,,0.0,0.0,
2025-08-15T04:47:40.937Z,10,GR86-065-5,-0.4,0.039,-0.453,99.94,5.0,7074.0,0.0,0.0,
2025-08-15T04:47:40.980Z,10,GR86-065-5,2.2,0.047,-0.341,70.08,5.0,,0.0,0.0,208.75
2025-08-15T04:47:41.022Z,10,GR86-065-5,4.1000000000000005,0.058,-0.235,39.35,5.0,,1.83,0.0,
2025-08-15T04:47:41.066Z,10,GR86-065-5,6.7,0.033,-0.124,33.25,5.0,,11.31,10.62,
2025-08-15T04:47:41.108Z,10,GR86-065-5,7.7,-0.081,0.045,17.32,5.0,,19.075,18.71,
2025-08-15T04:47:41.152Z,10,GR86-065-5,7.7,-0.254,0.198,4.8,5.0,7119.0,27.745,27.5,
2025-08-15T04:47:41.195Z,10,GR86-065-5,2.8000000000000003,-0.498,0.245,4.72,5.0,,38.21,38.075,209.37
2025-08-15T04:47:41.238Z,10,GR86-065-5,-3.3000000000000003,-0.806,0.223,4.49,5.0,,48.955,49.045,
2025-08-15T04:47:41.281Z,10,GR86-065-5,-1.2000000000000002,-1.013,0.164,4.14,5.0,,60.02,60.31,
2025-08-15T04:47:41.324Z,10,GR86-065-5,4.4,-1.092,0.227,3.83,5.0,,66.245,64.93,
2025-08-15T04:47:41.368Z,10,GR86-065-5,5.5,-1.273,0.374,3.34,5.0,7058.0,71.92,70.09,
2025-08-15T04:47:41.411Z,10,GR86-065-5,5.5,-1.212,0.422,2.99,5.0,,72.545,71.83,209.73
2025-08-15T04:47:41.454Z,10,GR86-065-5,5.5,-1.244,0.405,2.82,5.0,,73.49,72.805,
2025-08-15T04:47:41.497Z,10,GR86-065-5,5.5,-1.154,0.489,2.73,5.0,,76.055,74.62,
2025-08-15T04:47:41.542Z,10,GR86-065-5,1.7000000000000002,-1.201,0.458,2.62,5.0,,74.15,73.965,
2025-08-15T04:47:41.585Z,10,GR86-065-5,1.1,-1.166,0.406,2.57,5.0,6532.0,73.02,73.08,
2025-08-15T04:47:41.628Z,10,GR86-065-5,1.1,-1.287,0.406,2.54,5.0,,76.53,75.005,206.11
2025-08-15T04:47:41.671Z,10,GR86-065-5,1.1,-1.146,0.427,2.54,5.0,,74.47,72.545,
2025-08-15T04:47:41.715Z,10,GR86-065-5,1.1,-1.19,0.558,2.5,5.0,,67.36,67.08500000000001,
2025-08-15T04:47:41.758Z,10,GR86-065-5,1.1,-1.25,0.491,2.51,5.0,,61.42,60.825,
2025-08-15T04:47:41.802Z,10,GR86-065-5,6.1000000000000005,-1.106,0.611,46.74,5.0,6416.0,57.925,56.43,
2025-08-15T04:47:41.845Z,10,GR86-065-5,7.7,-1.091,0.626,92.58,5.0,,56.005,55.455,199.6
2025-08-15T04:47:41.888Z,10,GR86-065-5,7.7,-1.13,0.595,99.25,5.0,,55.15,54.74,
2025-08-15T04:47:41.931Z,10,GR86-065-5,7.2,-1.028,0.469,53.6,5.0,,55.865,55.24,
2025-08-15T04:47:41.974Z,10,GR86-065-5,6.0,-1.108,0.42,6.0600000000000005,5.0,,58.185,56.69,
2025-08-15T04:47:42.017Z,10,GR86-065-5,6.0,-1.138,0.473,5.0600000000000005,4.0,5977.0,58.675,57.925,
2025-08-15T04:47:42.060Z,10,GR86-065-5,6.0,-1.053,0.434,4.3500000000000005,4.0,,56.585,56.43,191.56
2025-08-15T04:47:42.104Z,10,GR86-065-5,4.7,-1.03,0.485,4.09,4.0,,57.745000000000005,56.815,
2025-08-15T04:47:42.147Z,10,GR86-065-5,1.2000000000000002,-1.076,0.469,3.77,4.0,,59.925,58.215,
2025-08-15T04:47:42.190Z,10,GR86-065-5,-2.2,-1.186,0.393,3.3000000000000003,4.0,,59.515,58.905,
2025-08-15T04:47:42.232Z,10,GR86-065-5,-5.9,-1.154,0.371,2.93,4.0,6503.0,59.085,58.765,
2025-08-15T04:47:42.276Z,10,GR86-065-5,-7.0,-1.123,0.366,2.79,4.0,,60.55,60.23,185.17
2025-08-15T04:47:42.318Z,10,GR86-065-5,-7.0,-1.15,0.323,2.7,4.0,,62.81,62.84,
2025-08-15T04:47:42.362Z,10,GR86-065-5,0.2,-1.199,0.336,2.61,4.0,,66.67,66.395,
2025-08-15T04:47:42.405Z,10,GR86-065-5,3.5,-1.229,0.318,2.57,4.0,,69.31,69.22,
2025-08-15T04:47:42.448Z,10,GR86-065-5,3.9,-1.235,0.315,2.53,4.0,6415.0,71.92,72.01,
2025-08-15T04:47:42.491Z,10,GR86-065-5,3.9,-1.201,0.254,2.52,4.0,,74.285,74.53,177.24
2025-08-15T04:47:42.535Z,10,GR86-065-5,3.0,-1.173,0.162,2.51,4.0,,75.75,75.705,
2025-08-15T04:47:42.578Z,10,GR86-065-5,1.2000000000000002,-1.139,0.121,26.35,4.0,,76.455,76.145,
2025-08-15T04:47:42.621Z,10,GR86-065-5,0.1,-1.204,0.079,94.4,4.0,,79.245,77.4,
2025-08-15T04:47:42.664Z,10,GR86-065-5,0.1,-1.165,0.131,87.69,3.0,6276.0,74.745,74.44,
2025-08-15T04:47:42.707Z,10,GR86-065-5,0.1,-1.282,0.089,16.16,3.0,,67.265,66.885,169.81
2025-08-15T04:47:42.750Z,10,GR86-065-5,0.2,-1.193,0.213,3.44,3.0,,65.39,63.8,
2025-08-15T04:47:42.793Z,10,GR86-065-5,0.9,-1.234,0.197,2.93,3.0,,64.245,63.205,
2025-08-15T04:47:42.836Z,10,GR86-065-5,1.2000000000000002,-1.138,0.237,2.79,3.0,,61.175,60.675,
2025-08-15T04:47:42.879Z,10,GR86-065-5,1.2000000000000002,-1.234,0.282,2.7,3.0,6005.0,62.9,61.45,
2025-08-15T04:47:42.922Z,10,GR86-065-5,-1.7000000000000002,-1.04,0.193,2.62,3.0,,61.97,61.33,161.8
2025-08-15T04:47:42.965Z,10,GR86-065-5,-2.9000000000000004,-1.125,0.246,2.57,3.0,,63.59,62.215,
2025-08-15T04:47:43.008Z,10,GR86-065-5,-3.0,-1.141,0.186,2.54,3.0,,65.71000000000001,64.0,
2025-08-15T04:47:43.051Z,10,GR86-065-5,-1.8,-1.139,0.162,2.53,3.0,,65.955,65.175,
2025-08-15T04:47:43.094Z,10,GR86-065-5,2.5,-1.165,0.242,2.52,3.0,6354.0,67.875,67.725,
2025-08-15T04:47:43.137Z,10,GR86-065-5,4.7,-1.149,0.223,2.5,3.0,,70.18,69.875,153.84
2025-08-15T04:47:43.180Z,10,GR86-065-5,4.7,-1.162,0.248,2.5,3.0,,71.58500000000001,71.175,
2025-08-15T04:47:43.222Z,10,GR86-065-5,2.9000000000000004,-1.204,0.226,2.5,3.0,,71.675,71.4,
2025-08-15T04:47:43.266Z,10,GR86-065-5,1.3,-1.248,0.183,2.5,3.0,,71.265,71.14,
2025-08-15T04:47:43.308Z,10,GR86-065-5,1.2000000000000002,-1.197,0.157,2.5,3.0,6497.0,71.525,71.11,
2025-08-15T04:47:43.352Z,10,GR86-065-5,1.2000000000000002,-1.185,0.105,2.51,3.0,,71.58500000000001,71.11,138.84
2025-08-15T04:47:43.395Z,10,GR86-065-5,1.3,-1.206,0.177,37.98,3.0,,71.02,71.08,
2025-08-15T04:47:43.438Z,10,GR86-065-5,3.3000000000000003,-1.152,0.206,83.69,3.0,,71.34,71.175,
2025-08-15T04:47:43.481Z,10,GR86-065-5,4.2,-1.173,0.216,97.58,2.0,,71.555,71.58500000000001,
2025-08-15T04:47:43.525Z,10,GR86-065-5,4.2,-1.216,0.154,37.21,2.0,6093.0,71.8,71.8,
2025-08-15T04:47:43.568Z,10,GR86-065-5,4.800000000000001,-1.307,0.22,3.82,2.0,,74.44,72.96000000000001,131.15
2025-08-15T04:47:43.611Z,10,GR86-065-5,7.7,-1.237,0.175,2.99,2.0,,77.11,75.065,
2025-08-15T04:47:43.654Z,10,GR86-065-5,10.9,-1.232,0.146,2.78,2.0,,72.805,72.575,
2025-08-15T04:47:43.697Z,10,GR86-065-5,13.2,-1.192,0.334,2.68,2.0,,73.4,72.27,
2025-08-15T04:47:43.742Z,10,GR86-065-5,19.6,-1.092,0.34,2.59,2.0,5975.0,71.86,71.08,
2025-08-15T04:47:43.785Z,10,GR86-065-5,25.0,-1.181,0.518,2.56,2.0,,70.805,69.71000000000001,122.92
2025-08-15T04:47:43.828Z,10,GR86-065-5,31.4,-1.254,0.504,2.54,2.0,,71.08,70.06,
2025-08-15T04:47:43.871Z,10,GR86-065-5,37.7,-1.156,0.636,2.54,2.0,,71.175,69.77,
2025-08-15T04:47:43.914Z,10,GR86-065-5,39.400000000000006,-1.183,0.761,2.53,2.0,,72.01,70.06,
2025-08-15T04:47:43.957Z,10,GR86-065-5,39.400000000000006,-1.052,0.704,2.53,2.0,6188.0,69.74,69.28,
2025-08-15T04:47:44.000Z,10,GR86-065-5,36.8,-1.037,0.954,2.52,2.0,,66.075,65.39,114.86
2025-08-15T04:47:44.044Z,10,GR86-065-5,33.800000000000004,-0.966,0.922,2.5,2.0,,64.06,62.46,
2025-08-15T04:47:44.087Z,10,GR86-065-5,31.200000000000003,-0.966,0.871,2.52,2.0,,63.925,62.185,
2025-08-15T04:47:44.130Z,10,GR86-065-5,30.4,-0.943,0.8220000000000001,2.51,2.0,,61.24,61.025,
2025-08-15T04:47:44.173Z,10,GR86-065-5,30.700000000000003,-0.995,0.901,2.52,2.0,5758.0,60.31,59.24,
2025-08-15T04:47:44.216Z,10,GR86-065-5,35.800000000000004,-0.863,0.903,2.53,2.0,,57.620000000000005,56.185,107.98
2025-08-15T04:47:44.258Z,10,GR86-065-5,42.900000000000006,-0.937,0.798,2.52,2.0,,58.905,57.21,
2025-08-15T04:47:44.302Z,10,GR86-065-5,50.1,-0.919,1.02,2.51,2.0,,57.895,57.025,
2025-08-15T04:47:44.345Z,10,GR86-065-5,51.8,-0.877,0.864,2.51,2.0,,58.4,57.44,
2025-08-15T04:47:44.388Z,10,GR86-065-5,53.5,-0.898,0.851,2.52,2.0,5337.0,60.825,59.055,
2025-08-15T04:47:44.431Z,10,GR86-065-5,56.8,-0.982,0.861,2.51,2.0,,60.49,59.835,101.84
2025-08-15T04:47:44.474Z,10,GR86-065-5,60.2,-0.8130000000000001,0.979,2.51,2.0,,56.43,56.155,
2025-08-15T04:47:44.517Z,10,GR86-065-5,64.3,-0.864,0.87,2.52,2.0,,54.74,54.495000000000005,
2025-08-15T04:47:44.560Z,10,GR86-065-5,68.60000000000001,-0.844,0.866,2.51,2.0,,55.365,53.870000000000005,
2025-08-15T04:47:44.602Z,10,GR86-065-5,68.7,-0.848,0.93,2.51,2.0,5038.0,50.345,48.865,
2025-08-15T04:47:44.646Z,10,GR86-065-5,61.7,-0.841,0.966,2.5,2.0,,45.245,44.91,94.88
2025-08-15T04:47:44.688Z,10,GR86-065-5,51.1,-0.784,0.856,2.51,2.0,,46.59,45.9,
2025-08-15T04:47:44.732Z,10,GR86-065-5,39.6,-0.776,0.868,2.51,2.0,,47.84,46.62,
2025-08-15T04:47:44.775Z,10,GR86-065-5,26.8,-0.737,0.782,2.5,2.0,,43.645,42.715,
2025-08-15T04:47:44.818Z,10,GR86-065-5,19.700000000000003,-0.792,0.606,2.5,2.0,4658.0,39.75,39.585,
2025-08-15T04:47:44.861Z,10,GR86-065-5,32.6,-0.717,0.5700000000000001,2.53,2.0,,35.085,33.875,88.82000000000001
2025-08-15T04:47:44.905Z,10,GR86-065-5,55.6,-0.643,0.707,2.53,2.0,,24.705,23.56,
2025-08-15T04:47:44.948Z,10,GR86-065-5,76.10000000000001,-0.474,0.8280000000000001,2.52,2.0,,14.025,13.2,
2025-08-15T04:47:44.991Z,10,GR86-065-5,85.9,-0.352,0.929,2.5,2.0,,5.525,4.96,
2025-08-15T04:47:45.034Z,10,GR86-065-5,86.9,-0.261,1.031,2.5,2.0,4415.0,0.0,0.0,
2025-08-15T04:47:45.077Z,10,GR86-065-5,86.9,-0.212,1.06,2.5,2.0,,0.0,0.0,83.17
2025-08-15T04:47:45.120Z,10,GR86-065-5,91.7,-0.157,1.156,2.5,2.0,,0.0,0.0,
2025-08-15T04:47:45.165Z,10,GR86-065-5,93.1,-0.139,1.196,2.5,2.0,,0.0,0.0,
2025-08-15T04:47:45.208Z,10,GR86-065-5,93.1,-0.165,1.178,2.51,2.0,,0.0,0.0,
2025-08-15T04:47:45.252Z,10,GR86-065-5,91.7,-0.196,1.207,2.75,2.0,4160.0,0.0,0.0,
2025-08-15T04:47:45.295Z,10,GR86-065-5,90.8,-0.198,1.254,4.9,2.0,,0.0,0.0,77.83
2025-08-15T04:47:45.338Z,10,GR86-065-5,90.8,-0.176,1.234,14.71,2.0,,0.0,0.0,
2025-08-15T04:47:45.381Z,10,GR86-065-5,98.6,-0.192,1.296,20.4,2.0,,0.0,0.0,
2025-08-15T04:47:45.425Z,10,GR86-065-5,103.3,-0.174,1.3,24.07,2.0,,0.0,0.0,
2025-08-15T04:47:45.468Z,10,GR86-065-5,104.8,-0.125,1.32,25.0,2.0,4137.0,0.0,0.0,
2025-08-15T04:47:45.511Z,10,GR86-065-5,104.8,-0.145,1.361,25.85,2.0,,0.0,0.0,75.27
2025-08-15T04:47:45.554Z,10,GR86-065-5,104.8,-0.181,1.143,26.11,2.0,,0.0,0.0,
2025-08-15T04:47:45.597Z,10,GR86-065-5,104.8,-0.021,0.53,26.12,2.0,,0.0,0.0,
2025-08-15T04:47:45.642Z,10,GR86-065-5,104.8,0.183,1.145,26.12,2.0,,0.0,0.0,
2025-08-15T04:47:45.685Z,10,GR86-065-5,104.5,0.243,0.846,26.51,2.0,4045.0,0.0,0.0,
2025-08-15T04:47:45.728Z,10,GR86-065-5,104.6,0.146,1.17,27.05,2.0,,0.0,0.0,74.53
2025-08-15T04:47:45.771Z,10,GR86-065-5,104.6,0.126,1.066,27.4,2.0,,0.0,0.0,
2025-08-15T04:47:45.814Z,10,GR86-065-5,104.6,-0.045,0.859,27.53,2.0,,0.0,0.0,
2025-08-15T04:47:45.857Z,10,GR86-065-5,104.6,0.33,-0.011,27.31,2.0,,0.0,0.0,
2025-08-15T04:47:45.900Z,10,GR86-065-5,104.7,0.417,1.051,28.32,2.0,4213.0,0.0,0.0,
2025-08-15T04:47:45.986Z,10,GR86-065-5,104.9,0.187,0.348,31.28,2.0,,0.0,0.0,71.91
2025-08-15T04:47:46.030Z,10,GR86-065-5,104.9,0.056,0.928,32.68,2.0,,0.0,0.0,
2025-08-15T04:47:46.072Z,10,GR86-065-5,105.0,0.069,0.843,23.5,2.0,,0.0,0.0,
2025-08-15T04:47:46.116Z,10,GR86-065-5,105.0,0.063,1.231,22.0,2.0,4061.0,0.0,0.0,
2025-08-15T04:47:46.158Z,10,GR86-065-5,103.2,0.044,1.133,15.09,2.0,,0.0,0.0,72.43
2025-08-15T04:47:46.202Z,10,GR86-065-5,96.2,0.057,1.344,8.43,2.0,,0.0,0.0,
2025-08-15T04:47:46.245Z,10,GR86-065-5,90.4,0.062,1.32,19.84,2.0,,0.0,0.0,
2025-08-15T04:47:46.288Z,10,GR86-065-5,86.5,-0.007,1.195,21.89,2.0,,0.0,0.0,
2025-08-15T04:47:46.331Z,10,GR86-065-5,85.9,-0.033,1.23,24.48,2.0,4240.0,0.0,0.0,
2025-08-15T04:47:46.374Z,10,GR86-065-5,85.9,-0.045,1.279,30.65,2.0,,0.0,0.0,75.25
2025-08-15T04:47:46.417Z,10,GR86-065-5,85.9,-0.013,1.261,36.28,2.0,,0.0,0.0,
2025-08-15T04:47:46.460Z,10,GR86-065-5,85.9,0.084,1.282,38.27,2.0,,0.0,0.0,
2025-08-15T04:47:46.502Z,10,GR86-065-5,85.9,0.138,1.283,46.03,2.0,,0.0,0.0,
2025-08-15T04:47:46.546Z,10,GR86-065-5,84.60000000000001,0.194,1.239,59.63,2.0,4297.0,0.0,0.0,
2025-08-15T04:47:46.590Z,10,GR86-065-5,81.0,0.241,1.298,83.23,2.0,,0.0,0.0,76.56
2025-08-15T04:47:46.632Z,10,GR86-065-5,74.5,0.243,1.224,100.02,2.0,,0.0,0.0,
2025-08-15T04:47:46.676Z,10,GR86-065-5,66.2,0.232,1.222,99.9,2.0,,0.0,0.0,
2025-08-15T04:47:46.718Z,10,GR86-065-5,58.5,0.219,1.202,99.9,2.0,,0.0,0.0,
2025-08-15T04:47:46.762Z,10,GR86-065-5,46.6,0.224,1.16,99.9,2.0,4551.0,0.0,0.0,
2025-08-15T04:47:46.805Z,10,GR86-065-5,40.6,0.256,1.128,99.92,2.0,,0.0,0.0,76.44
2025-08-15T04:47:46.848Z,10,GR86-065-5,37.2,0.272,1.063,99.9,2.0,,0.0,0.0,
2025-08-15T04:47:46.891Z,10,GR86-065-5,37.0,0.328,1.04,99.93,2.0,,0.0,0.0,
2025-08-15T04:47:46.934Z,10,GR86-065-5,39.2,0.311,1.033,99.93,2.0,,0.0,0.0,
2025-08-15T04:47:46.977Z,10,GR86-065-5,48.0,0.278,0.977,99.94,2.0,4541.0,0.0,0.0,
2025-08-15T04:47:47.020Z,10,GR86-065-5,58.5,0.229,0.967,99.93,2.0,,0.0,0.0,77.33
2025-08-15T04:47:47.062Z,10,GR86-065-5,62.3,0.262,0.932,99.95,2.0,,0.0,0.0,
2025-08-15T04:47:47.106Z,10,GR86-065-5,64.2,0.269,0.925,99.92,2.0,,0.0,0.0,
2025-08-15T04:47:47.148Z,10,GR86-065-5,64.8,0.248,0.908,99.93,2.0,,0.0,0.0,
2025-08-15T04:47:47.192Z,10,GR86-065-5,64.8,0.24,0.867,99.9,2.0,4570.0,0.0,0.0,
2025-08-15T04:47:47.235Z,10,GR86-065-5,64.2,0.139,0.922,99.93,2.0,,0.0,0.0,78.65
2025-08-15T04:47:47.279Z,10,GR86-065-5,62.7,0.239,0.58,99.93,2.0,,0.0,0.0,
2025-08-15T04:47:47.322Z,10,GR86-065-5,56.6,0.346,0.473,99.91,2.0,,0.0,0.0,
2025-08-15T04:47:47.365Z,10,GR86-065-5,52.0,0.178,0.465,99.89,2.0,,0.0,0.0,
2025-08-15T04:47:47.408Z,10,GR86-065-5,47.5,0.087,0.761,99.93,2.0,4632.0,0.0,0.0,
2025-08-15T04:47:47.451Z,10,GR86-065-5,43.900000000000006,0.314,0.527,99.93,2.0,,0.0,0.0,79.88
2025-08-15T04:47:47.494Z,10,GR86-065-5,39.1,0.165,0.592,99.91,2.0,,0.0,0.0,
2025-08-15T04:47:47.537Z,10,GR86-065-5,31.5,0.153,0.444,99.9,2.0,,0.0,0.0,
2025-08-15T04:47:47.580Z,10,GR86-065-5,20.1,0.292,0.392,99.9,2.0,,0.0,0.0,
2025-08-15T04:47:47.622Z,10,GR86-065-5,14.7,0.176,0.683,99.91,2.0,4773.0,0.0,0.0,
2025-08-15T04:47:47.666Z,10,GR86-065-5,9.3,0.353,0.649,99.93,2.0,,0.0,0.0,81.78
2025-08-15T04:47:47.708Z,10,GR86-065-5,5.2,0.427,0.451,99.94,2.0,,0.0,0.0,
2025-08-15T04:47:47.752Z,10,GR86-065-5,3.7,0.184,0.209,99.91,2.0,,0.0,0.0,
2025-08-15T04:47:47.795Z,10,GR86-065-5,6.4,-0.053,0.401,99.93,2.0,,0.0,0.0,
2025-08-15T04:47:47.838Z,10,GR86-065-5,14.8,0.423,0.609,99.93,2.0,4938.0,0.0,0.0,
2025-08-15T04:47:47.881Z,10,GR86-065-5,26.9,0.147,0.848,99.93,2.0,,0.0,0.0,83.58
2025-08-15T04:47:47.924Z,10,GR86-065-5,29.3,0.411,0.98,99.93,2.0,,0.0,0.0,
2025-08-15T04:47:47.968Z,10,GR86-065-5,28.9,0.359,1.079,99.93,2.0,,0.0,0.0,
2025-08-15T04:47:48.011Z,10,GR86-065-5,19.5,0.112,0.972,99.9,2.0,,0.0,0.0,
2025-08-15T04:47:48.055Z,10,GR86-065-5,8.0,0.192,0.6900000000000001,99.9,2.0,5113.0,0.0,0.0,
2025-08-15T04:47:48.098Z,10,GR86-065-5,-2.6,0.369,0.592,99.92,2.0,,0.0,0.0,84.64
2025-08-15T04:47:48.142Z,10,GR86-065-5,-5.7,0.155,0.309,99.93,2.0,,0.0,0.0,
2025-08-15T04:47:48.185Z,10,GR86-065-5,7.4,0.408,0.253,99.94,2.0,,0.0,0.0,
2025-08-15T04:47:48.228Z,10,GR86-065-5,24.700000000000003,0.439,0.434,99.93,2.0,,0.0,0.0,
2025-08-15T04:47:48.272Z,10,GR86-065-5,37.8,0.363,0.479,99.94,2.0,5184.0,0.0,0.0,
2025-08-15T04:47:48.315Z,10,GR86-065-5,43.0,0.308,0.458,99.92,2.0,,0.0,0.0,85.82000000000001
2025-08-15T04:47:48.358Z,10,GR86-065-5,43.3,0.041,0.502,99.93,2.0,,0.0,0.0,
2025-08-15T04:47:48.402Z,10,GR86-065-5,38.0,0.105,0.645,99.94,2.0,,0.0,0.0,
2025-08-15T04:47:48.445Z,10,GR86-065-5,29.5,0.186,0.433,99.94,2.0,,0.0,0.0,
2025-08-15T04:47:48.488Z,10,GR86-065-5,20.8,0.36,0.418,99.92,2.0,5186.0,0.0,0.0,
2025-08-15T04:47:48.531Z,10,GR86-065-5,13.6,0.355,0.548,99.93,2.0,,0.0,0.0,87.13
2025-08-15T04:47:48.574Z,10,GR86-065-5,6.300000000000001,0.259,0.448,99.93,2.0,,0.0,0.0,
2025-08-15T04:47:48.617Z,10,GR86-065-5,0.5,-0.053,0.297,99.93,2.0,,0.0,0.0,
2025-08-15T04:47:48.660Z,10,GR86-065-5,-7.4,0.528,0.198,99.93,2.0,,0.0,0.0,
2025-08-15T04:47:48.704Z,10,GR86-065-5,-8.8,0.358,0.205,99.94,2.0,5186.0,0.0,0.0,
2025-08-15T04:47:48.747Z,10,GR86-065-5,-8.9,0.123,0.274,99.94,2.0,,0.0,0.0,91.48
2025-08-15T04:47:48.790Z,10,GR86-065-5,-8.8,0.088,0.258,99.93,2.0,,0.0,0.0,
2025-08-15T04:47:48.832Z,10,GR86-065-5,-8.6,0.078,0.171,99.93,2.0,,0.0,0.0,
2025-08-15T04:47:48.876Z,10,GR86-065-5,-8.6,0.316,0.204,99.93,2.0,,0.0,0.0,
2025-08-15T04:47:48.918Z,10,GR86-065-5,-8.6,0.384,0.272,99.94,2.0,5385.0,0.0,0.0,
2025-08-15T04:47:48.962Z,10,GR86-065-5,-8.6,0.249,0.047,99.94,2.0,,0.0,0.0,92.51
2025-08-15T04:47:49.005Z,10,GR86-065-5,-8.4,0.389,0.021,99.93,2.0,,0.0,0.0,
2025-08-15T04:47:49.048Z,10,GR86-065-5,-6.7,0.424,-0.053,99.93,2.0,,0.0,0.0,
2025-08-15T04:47:49.091Z,10,GR86-065-5,-5.0,0.294,-0.068,99.94,2.0,,0.0,0.0,
2025-08-15T04:47:49.135Z,10,GR86-065-5,-5.0,0.187,-0.099,99.94,2.0,5543.0,0.0,0.0,
2025-08-15T04:47:49.178Z,10,GR86-065-5,-5.0,0.123,-0.144,99.92,2.0,,0.0,0.0,94.55
2025-08-15T04:47:49.221Z,10,GR86-065-5,-6.800000000000001,0.343,-0.266,99.95,2.0,,0.0,0.0,
2025-08-15T04:47:49.264Z,10,GR86-065-5,-7.5,0.257,-0.262,99.93,2.0,,0.0,0.0,
2025-08-15T04:47:49.307Z,10,GR86-065-5,-7.800000000000001,0.236,-0.231,99.93,2.0,,0.0,0.0,
2025-08-15T04:47:49.350Z,10,GR86-065-5,-7.9,0.22,-0.189,99.94,2.0,5632.0,0.0,0.0,
2025-08-15T04:47:49.392Z,10,GR86-065-5,-7.9,0.205,-0.157,99.94,2.0,,0.0,0.0,96.4
2025-08-15T04:47:49.436Z,10,GR86-065-5,-7.9,0.216,-0.181,99.93,2.0,,0.0,0.0,
2025-08-15T04:47:49.479Z,10,GR86-065-5,-7.9,0.254,-0.19,99.94,2.0,,0.0,0.0,
2025-08-15T04:47:49.522Z,10,GR86-065-5,-7.9,0.255,-0.199,99.93,2.0,,0.0,0.0,
2025-08-15T04:47:49.565Z,10,GR86-065-5,-7.9,0.248,-0.173,99.94,2.0,5756.0,0.0,0.0,
2025-08-15T04:47:49.608Z,10,GR86-065-5,-7.300000000000001,0.261,-0.15,99.92,2.0,,0.0,0.0,98.17
2025-08-15T04:47:49.651Z,10,GR86-065-5,-6.6000000000000005,0.298,-0.143,99.94,2.0,,0.0,0.0,
2025-08-15T04:47:49.694Z,10,GR86-065-5,-6.5,0.276,-0.111,99.94,2.0,,0.0,0.0,
2025-08-15T04:47:49.737Z,10,GR86-065-5,-6.5,0.293,-0.101,99.94,2.0,,0.0,0.0,
2025-08-15T04:47:49.780Z,10,GR86-065-5,-6.5,0.266,-0.068,99.94,2.0,5845.0,0.0,0.0,
2025-08-15T04:47:49.822Z,10,GR86-065-5,-6.5,0.254,-0.063,99.93,2.0,,0.0,0.0,99.93
2025-08-15T04:47:49.866Z,10,GR86-065-5,-6.5,0.276,-0.058,99.93,2.0,,0.0,0.0,
2025-08-15T04:47:49.909Z,10,GR86-065-5,-6.5,0.272,-0.051,99.94,2.0,,0.0,0.0,
2025-08-15T04:47:49.952Z,10,GR86-065-5,-6.5,0.297,-0.075,99.93,2.0,,0.0,0.0,
2025-08-15T04:47:49.995Z,10,GR86-065-5,-6.5,0.287,-0.048,99.92,2.0,5893.0,0.0,0.0,
2025-08-15T04:47:50.038Z,10,GR86-065-5,-6.5,0.264,-0.068,99.93,2.0,,0.0,0.0,101.82
2025-08-15T04:47:50.081Z,10,GR86-065-5,-6.5,0.274,-0.069,99.93,2.0,,0.0,0.0,
2025-08-15T04:47:50.125Z,10,GR86-065-5,-6.5,0.283,-0.069,99.93,2.0,,0.0,0.0,
2025-08-15T04:47:50.168Z,10,GR86-065-5,-6.5,0.27,-0.065,99.93,2.0,,0.0,0.0,
2025-08-15T04:47:50.211Z,10,GR86-065-5,-6.5,0.275,-0.065,99.94,2.0,6009.0,0.0,0.0,
2025-08-15T04:47:50.254Z,10,GR86-065-5,-6.5,0.258,-0.064,99.94,2.0,,0.0,0.0,103.54
2025-08-15T04:47:50.297Z,10,GR86-065-5,-6.5,0.272,-0.078,99.93,2.0,,0.0,0.0,
2025-08-15T04:47:50.342Z,10,GR86-065-5,-6.5,0.27,-0.072,99.95,2.0,,0.0,0.0,
2025-08-15T04:47:50.385Z,10,GR86-065-5,-6.5,0.262,-0.094,99.96,2.0,,0.0,0.0,
2025-08-15T04:47:50.428Z,10,GR86-065-5,-6.5,0.282,-0.124,99.95,2.0,6105.0,0.0,0.0,
2025-08-15T04:47:50.471Z,10,GR86-065-5,-6.6000000000000005,0.278,-0.113,99.94,2.0,,0.0,0.0,105.28
2025-08-15T04:47:50.515Z,10,GR86-065-5,-6.7,0.248,-0.135,99.95,2.0,,0.0,0.0,
2025-08-15T04:47:50.558Z,10,GR86-065-5,-6.7,0.266,-0.117,99.93,2.0,,0.0,0.0,
2025-08-15T04:47:50.601Z,10,GR86-065-5,-6.7,0.274,-0.128,99.94,2.0,,0.0,0.0,
2025-08-15T04:47:50.644Z,10,GR86-065-5,-6.7,0.251,-0.137,99.94,2.0,6191.0,0.0,0.0,
2025-08-15T04:47:50.687Z,10,GR86-065-5,-6.7,0.275,-0.142,99.97,2.0,,0.0,0.0,106.98
2025-08-15T04:47:50.730Z,10,GR86-065-5,-6.7,0.271,-0.125,99.93,2.0,,0.0,0.0,
2025-08-15T04:47:50.773Z,10,GR86-065-5,-6.7,0.262,-0.128,99.95,2.0,,0.0,0.0,
2025-08-15T04:47:50.816Z,10,GR86-065-5,-6.7,0.267,-0.104,99.95,2.0,,0.0,0.0,
2025-08-15T04:47:50.858Z,10,GR86-065-5,-6.7,0.264,-0.1,99.93,2.0,6302.0,0.0,0.0,
2025-08-15T04:47:50.902Z,10,GR86-065-5,-6.7,0.254,-0.074,99.95,2.0,,0.0,0.0,108.53
2025-08-15T04:47:50.945Z,10,GR86-065-5,-6.7,0.277,-0.072,99.95,2.0,,0.0,0.0,
2025-08-15T04:47:50.988Z,10,GR86-065-5,-6.7,0.284,-0.06,99.96,2.0,,0.0,0.0,
2025-08-15T04:47:51.031Z,10,GR86-065-5,-6.7,0.26,-0.062,99.97,2.0,,0.0,0.0,
2025-08-15T04:47:51.074Z,10,GR86-065-5,-6.7,0.274,-0.035,99.97,2.0,6365.0,0.0,0.0,
2025-08-15T04:47:51.117Z,10,GR86-065-5,-6.7,0.27,-0.029,99.95,2.0,,0.0,0.0,110.11
2025-08-15T04:47:51.160Z,10,GR86-065-5,-6.7,0.258,-0.013,99.95,2.0,,0.0,0.0,
2025-08-15T04:47:51.202Z,10,GR86-065-5,-6.7,0.274,-0.033,99.95,2.0,,0.0,0.0,
2025-08-15T04:47:51.246Z,10,GR86-065-5,-6.7,0.279,-0.01,99.96,2.0,,0.0,0.0,
2025-08-15T04:47:51.288Z,10,GR86-065-5,-6.7,0.257,-0.01,99.95,2.0,6457.0,0.0,0.0,
2025-08-15T04:47:51.332Z,10,GR86-065-5,-6.7,0.283,-0.005,99.97,2.0,,0.0,0.0,111.64
2025-08-15T04:47:51.375Z,10,GR86-065-5,-6.5,0.279,0.005,99.97,2.0,,0.0,0.0,
2025-08-15T04:47:51.418Z,10,GR86-065-5,-6.2,0.258,0.003,99.97,2.0,,0.0,0.0,
2025-08-15T04:47:51.461Z,10,GR86-065-5,-5.300000000000001,0.259,0.001,99.97,2.0,,0.0,0.0,
2025-08-15T04:47:51.505Z,10,GR86-065-5,-4.800000000000001,0.281,0.03,99.97,2.0,6544.0,0.0,0.0,
2025-08-15T04:47:51.548Z,10,GR86-065-5,-4.7,0.271,0.035,99.97,2.0,,0.0,0.0,114.6
2025-08-15T04:47:51.591Z,10,GR86-065-5,-4.7,0.269,0.026,99.97,2.0,,0.0,0.0,
2025-08-15T04:47:51.634Z,10,GR86-065-5,-4.7,0.27,0.04,99.98,2.0,,0.0,0.0,
2025-08-15T04:47:51.677Z,10,GR86-065-5,-4.7,0.256,0.03,99.98,2.0,,0.0,0.0,
2025-08-15T04:47:51.722Z,10,GR86-065-5,-4.7,0.274,0.035,99.97,2.0,6623.0,0.0,0.0,
2025-08-15T04:47:51.765Z,10,GR86-065-5,-4.7,0.276,0.034,99.97,2.0,,0.0,0.0,115.9
2025-08-15T04:47:51.808Z,10,GR86-065-5,-4.7,0.281,0.021,99.97,2.0,,0.0,0.0,
2025-08-15T04:47:51.852Z,10,GR86-065-5,-4.7,0.261,-0.005,99.97,2.0,,0.0,0.0,
2025-08-15T04:47:51.895Z,10,GR86-065-5,-4.7,0.262,-0.002,99.97,2.0,,0.0,0.0,
2025-08-15T04:47:51.938Z,10,GR86-065-5,-4.7,0.282,-0.012,99.96,2.0,6702.0,0.0,0.0,
2025-08-15T04:47:51.981Z,10,GR86-065-5,-4.7,0.281,-0.043,99.98,2.0,,0.0,0.0,117.17
2025-08-15T04:47:52.024Z,10,GR86-065-5,-4.9,0.257,-0.069,99.97,2.0,,0.0,0.0,
2025-08-15T04:47:52.068Z,10,GR86-065-5,-5.1000000000000005,0.263,-0.068,99.96,2.0,,0.0,0.0,
2025-08-15T04:47:52.111Z,10,GR86-065-5,-5.2,0.278,-0.1,99.97,2.0,,0.0,0.0,
2025-08-15T04:47:52.154Z,10,GR86-065-5,-5.5,0.265,-0.104,99.96,2.0,6853.0,0.0,0.0,
2025-08-15T04:47:52.197Z,10,GR86-065-5,-5.6000000000000005,0.263,-0.109,99.97,2.0,,0.0,0.0,118.48
2025-08-15T04:47:52.242Z,10,GR86-065-5,-5.6000000000000005,0.261,-0.107,99.98,2.0,,0.0,0.0,
2025-08-15T04:47:52.285Z,10,GR86-065-5,-5.6000000000000005,0.271,-0.131,99.97,2.0,,0.0,0.0,
2025-08-15T04:47:52.328Z,10,GR86-065-5,-5.6000000000000005,0.263,-0.132,99.95,2.0,,0.0,0.0,
2025-08-15T04:47:52.371Z,10,GR86-065-5,-5.7,0.26,-0.136,99.99,2.0,6926.0,0.0,0.0,
2025-08-15T04:47:52.414Z,10,GR86-065-5,-5.7,0.268,-0.139,99.99,2.0,,0.0,0.0,119.77
2025-08-15T04:47:52.457Z,10,GR86-065-5,-6.0,0.261,-0.142,99.97,2.0,,0.0,0.0,
2025-08-15T04:47:52.500Z,10,GR86-065-5,-6.0,0.257,-0.135,99.98,2.0,,0.0,0.0,
2025-08-15T04:47:52.542Z,10,GR86-065-5,-6.0,0.244,-0.111,99.96,2.0,,0.0,0.0,
2025-08-15T04:47:52.586Z,10,GR86-065-5,-6.0,0.257,-0.113,99.95,2.0,6996.0,0.0,0.0,
2025-08-15T04:47:52.628Z,10,GR86-065-5,-5.800000000000001,0.262,-0.096,99.98,2.0,,0.0,0.0,121.04
2025-08-15T04:47:52.672Z,10,GR86-065-5,-5.0,0.268,-0.047,99.97,2.0,,0.0,0.0,
2025-08-15T04:47:52.715Z,10,GR86-065-5,-4.5,0.272,-0.038,99.97,2.0,,0.0,0.0,
2025-08-15T04:47:52.758Z,10,GR86-065-5,-3.9,0.263,-0.02,99.99,2.0,,0.0,0.0,
2025-08-15T04:47:52.801Z,10,GR86-065-5,-2.9000000000000004,0.257,0.018,99.99,2.0,7064.0,0.0,0.0,
2025-08-15T04:47:52.845Z,10,GR86-065-5,-2.0,0.246,0.054,100.0,2.0,,0.0,0.0,122.27
2025-08-15T04:47:52.888Z,10,GR86-065-5,-1.1,0.259,0.075,99.99,2.0,,0.0,0.0,
2025-08-15T04:47:52.931Z,10,GR86-065-5,-0.6000000000000001,0.272,0.082,99.97,2.0,,0.0,0.0,
2025-08-15T04:47:52.974Z,10,GR86-065-5,-0.5,0.258,0.113,99.96,2.0,,0.0,0.0,
2025-08-15T04:47:53.017Z,10,GR86-065-5,-0.5,0.242,0.132,99.99,2.0,7130.0,0.0,0.0,
2025-08-15T04:47:53.060Z,10,GR86-065-5,-0.5,0.238,0.139,99.98,2.0,,0.0,0.0,123.49
2025-08-15T04:47:53.102Z,10,GR86-065-5,-0.5,0.247,0.13,99.97,2.0,,0.0,0.0,
2025-08-15T04:47:53.146Z,10,GR86-065-5,-0.5,0.264,0.124,99.99,2.0,,0.0,0.0,
2025-08-15T04:47:53.190Z,10,GR86-065-5,-0.4,0.234,0.159,99.97,2.0,,0.0,0.0,
2025-08-15T04:47:53.232Z,10,GR86-065-5,0.0,0.231,0.148,99.98,2.0,7207.0,0.0,0.0,
2025-08-15T04:47:53.276Z,10,GR86-065-5,0.5,0.24,0.157,99.97,2.0,,0.0,0.0,124.62
2025-08-15T04:47:53.318Z,10,GR86-065-5,0.9,0.203,0.181,99.98,2.0,,0.0,0.0,
2025-08-15T04:47:53.362Z,10,GR86-065-5,1.0,0.168,0.202,99.95,2.0,,0.0,0.0,
2025-08-15T04:47:53.405Z,10,GR86-065-5,1.0,0.126,0.195,99.98,2.0,,0.0,0.0,
2025-08-15T04:47:53.448Z,10,GR86-065-5,1.0,0.127,0.191,99.85,2.0,7280.0,0.0,0.0,
2025-08-15T04:47:53.491Z,10,GR86-065-5,1.0,0.153,0.187,55.76,2.0,,0.0,0.0,125.8
2025-08-15T04:47:53.534Z,10,GR86-065-5,1.0,0.084,0.181,36.18,2.0,,0.0,0.0,
2025-08-15T04:47:53.577Z,10,GR86-065-5,1.0,0.078,0.157,27.17,2.0,,3.22,2.855,
2025-08-15T04:47:53.620Z,10,GR86-065-5,1.0,0.01,0.132,6.97,2.0,,14.24,13.825,
2025-08-15T04:47:53.662Z,10,GR86-065-5,1.0,-0.067,0.123,4.71,2.0,7267.0,21.44,21.15,
2025-08-15T04:47:53.706Z,10,GR86-065-5,1.0,-0.323,0.152,4.5200000000000005,2.0,,27.775,27.775,126.92
2025-08-15T04:47:53.750Z,10,GR86-065-5,1.0,-0.424,0.144,4.24,2.0,,32.105000000000004,32.045,
2025-08-15T04:47:53.793Z,10,GR86-065-5,1.0,-0.507,0.119,4.01,2.0,,33.465,33.315,
2025-08-15T04:47:53.836Z,10,GR86-065-5,1.0,-0.593,0.12,3.63,2.0,,33.465,33.055,
2025-08-15T04:47:53.879Z,10,GR86-065-5,1.0,-0.624,0.143,3.14,2.0,7328.0,33.13,32.715,
2025-08-15T04:47:53.922Z,10,GR86-065-5,1.0,-0.613,0.143,2.82,2.0,,33.055,32.625,127.74
2025-08-15T04:47:53.965Z,10,GR86-065-5,1.0,-0.616,0.166,2.73,2.0,,33.160000000000004,32.715,
2025-08-15T04:47:54.008Z,10,GR86-065-5,1.0,-0.617,0.181,2.64,2.0,,33.71,33.405,
2025-08-15T04:47:54.051Z,10,GR86-065-5,1.0,-0.66,0.184,2.6,2.0,,34.06,34.0,
2025-08-15T04:47:54.094Z,10,GR86-065-5,1.0,-0.64,0.215,2.57,2.0,6961.0,34.52,34.455,
2025-08-15T04:47:54.138Z,10,GR86-065-5,1.0,-0.648,0.221,2.53,2.0,,35.175000000000004,34.685,127.55
2025-08-15T04:47:54.181Z,10,GR86-065-5,3.3000000000000003,-0.687,0.264,2.5,2.0,,35.555,35.145,
2025-08-15T04:47:54.224Z,10,GR86-065-5,5.0,-0.6900000000000001,0.288,2.51,2.0,,35.555,35.175000000000004,
2025-08-15T04:47:54.268Z,10,GR86-065-5,7.6,-0.662,0.295,2.51,2.0,,35.985,35.555,
2025-08-15T04:47:54.311Z,10,GR86-065-5,11.1,-0.672,0.336,2.5,2.0,6684.0,36.18,36.09,
2025-08-15T04:47:54.354Z,10,GR86-065-5,14.5,-0.657,0.37,2.5,2.0,,36.61,36.485,119.49
2025-08-15T04:47:54.397Z,10,GR86-065-5,15.6,-0.651,0.414,2.49,2.0,,37.355,36.9,
2025-08-15T04:47:54.441Z,10,GR86-065-5,15.6,-0.686,0.467,2.49,2.0,,37.83,37.45,
2025-08-15T04:47:54.485Z,10,GR86-065-5,14.3,-0.7030000000000001,0.439,2.48,2.0,,37.77,37.555,
2025-08-15T04:47:54.528Z,10,GR86-065-5,14.2,-0.685,0.465,2.49,2.0,6516.0,38.015,37.385,
2025-08-15T04:47:54.572Z,10,GR86-065-5,19.4,-0.6940000000000001,0.523,2.49,2.0,,37.355,36.9,114.93
2025-08-15T04:47:54.615Z,10,GR86-065-5,24.0,-0.684,0.622,2.49,2.0,,37.355,36.84,
2025-08-15T04:47:54.658Z,10,GR86-065-5,24.700000000000003,-0.663,0.684,2.49,2.0,,37.175,36.245,
2025-08-15T04:47:54.702Z,10,GR86-065-5,22.8,-0.656,0.6980000000000001,2.49,2.0,,34.0,32.475,
2025-08-15T04:47:54.745Z,10,GR86-065-5,19.5,-0.667,0.706,2.49,2.0,5980.0,29.145,27.56,
2025-08-15T04:47:54.788Z,10,GR86-065-5,19.1,-0.602,0.724,2.48,2.0,,24.08,22.675,110.54
2025-08-15T04:47:54.831Z,10,GR86-065-5,19.8,-0.56,0.753,2.49,2.0,,19.335,18.02,
2025-08-15T04:47:54.874Z,10,GR86-065-5,26.200000000000003,-0.484,0.8180000000000001,2.5,2.0,,16.055,14.755,
2025-08-15T04:47:54.917Z,10,GR86-065-5,32.9,-0.434,0.868,2.51,2.0,,14.025,13.045,
2025-08-15T04:47:54.960Z,10,GR86-065-5,37.1,-0.452,0.99,2.49,2.0,5609.0,12.24,11.52,
2025-08-15T04:47:55.004Z,10,GR86-065-5,37.1,-0.428,0.994,2.48,2.0,,11.46,10.65,105.95
2025-08-15T04:47:55.047Z,10,GR86-065-5,34.300000000000004,-0.391,0.973,2.49,2.0,,8.36,7.675,
2025-08-15T04:47:55.090Z,10,GR86-065-5,32.9,-0.35,0.989,2.49,2.0,,3.25,2.67,
2025-08-15T04:47:55.133Z,10,GR86-065-5,32.9,-0.222,1.02,2.49,2.0,,0.0,0.0,
2025-08-15T04:47:55.176Z,10,GR86-065-5,34.300000000000004,-0.178,1.019,2.48,2.0,5450.0,0.0,0.0,
2025-08-15T04:47:55.218Z,10,GR86-065-5,36.6,-0.147,1.085,2.51,2.0,,0.0,0.0,101.9
2025-08-15T04:47:55.262Z,10,GR86-065-5,39.6,-0.163,1.105,2.68,2.0,,0.0,0.0,
2025-08-15T04:47:55.305Z,10,GR86-065-5,41.7,-0.168,1.139,3.7,2.0,,0.0,0.0,
2025-08-15T04:47:55.348Z,10,GR86-065-5,43.900000000000006,-0.161,1.155,6.44,2.0,,0.0,0.0,
2025-08-15T04:47:55.392Z,10,GR86-065-5,46.400000000000006,-0.179,1.193,16.5,2.0,5326.0,0.0,0.0,
2025-08-15T04:47:55.435Z,10,GR86-065-5,49.400000000000006,-0.159,1.169,20.31,2.0,,0.0,0.0,98.66
2025-08-15T04:47:55.479Z,10,GR86-065-5,52.5,-0.15,1.191,20.67,2.0,,0.0,0.0,
2025-08-15T04:47:55.522Z,10,GR86-065-5,57.5,-0.103,1.165,21.08,2.0,,0.0,0.0,
2025-08-15T04:47:55.565Z,10,GR86-065-5,61.0,-0.09,1.229,22.13,2.0,,0.0,0.0,
2025-08-15T04:47:55.608Z,10,GR86-065-5,64.3,-0.104,1.211,23.08,2.0,5301.0,0.0,0.0,
