timestamp,lap,vehicle_id,steering_angle,accx_can,accy_can,ath,gear,nmot,pbrake_f,pbrake_r,speed
2025-08-15T03:36:16.033Z,10,GR86-063-113,7.1000000000000005,0.175,0.038,99.91,5.0,,0.0,0.0,186.97
2025-08-15T03:36:16.077Z,10,GR86-063-113,7.1000000000000005,0.107,0.107,99.92,5.0,,0.0,0.0,
2025-08-15T03:36:16.120Z,10,GR86-063-113,7.1000000000000005,0.037,0.054,99.92,5.0,,0.0,0.0,
2025-08-15T03:36:16.164Z,10,GR86-063-113,7.1000000000000005,0.097,0.033,99.92,5.0,,0.0,0.0,
2025-08-15T03:36:16.207Z,10,GR86-063-113,7.2,0.1,0.062,99.9,5.0,6409.0,0.0,0.0,
2025-08-15T03:36:16.250Z,10,GR86-063-113,7.2,0.118,0.031,99.93,5.0,,0.0,0.0,187.84
2025-08-15T03:36:16.294Z,10,GR86-063-113,7.1000000000000005,0.115,0.056,99.92,5.0,,0.0,0.0,
2025-08-15T03:36:16.337Z,10,GR86-063-113,7.1000000000000005,0.112,0.055,99.91,5.0,,0.0,0.0,
2025-08-15T03:36:16.380Z,10,GR86-063-113,7.1000000000000005,0.124,0.054,99.92,5.0,,0.0,0.0,
2025-08-15T03:36:16.425Z,10,GR86-063-113,7.0,0.094,0.053,99.91,5.0,6404.0,0.0,0.0,
2025-08-15T03:36:16.468Z,10,GR86-063-113,7.0,0.105,0.057,99.91,5.0,,0.0,0.0,188.6
2025-08-15T03:36:16.511Z,10,GR86-063-113,6.9,0.102,0.061,99.91,5.0,,0.0,0.0,
2025-08-15T03:36:16.554Z,10,GR86-063-113,6.800000000000001,0.107,0.034,99.91,5.0,,0.0,0.0,
2025-08-15T03:36:16.597Z,10,GR86-063-113,6.4,0.118,0.02,99.92,5.0,,0.0,0.0,
2025-08-15T03:36:16.640Z,10,GR86-063-113,6.300000000000001,0.111,0.038,99.93,5.0,6436.0,0.0,0.0,
2025-08-15T03:36:16.684Z,10,GR86-063-113,6.4,0.13,0.038,99.91,5.0,,0.0,0.0,189.36
2025-08-15T03:36:16.727Z,10,GR86-063-113,6.5,0.113,0.013,99.93,5.0,,0.0,0.0,
2025-08-15T03:36:16.770Z,10,GR86-063-113,6.4,0.124,0.042,99.91,5.0,,0.0,0.0,
2025-08-15T03:36:16.814Z,10,GR86-063-113,6.300000000000001,0.1,0.022,99.91,5.0,,0.0,0.0,
2025-08-15T03:36:16.857Z,10,GR86-063-113,6.4,0.089,0.043,99.93,5.0,6466.0,0.0,0.0,
2025-08-15T03:36:16.900Z,10,GR86-063-113,6.4,0.115,0.008,99.92,5.0,,0.0,0.0,190.09
2025-08-15T03:36:16.944Z,10,GR86-063-113,6.4,0.09,-0.006,99.91,5.0,,0.0,0.0,
2025-08-15T03:36:16.986Z,10,GR86-063-113,6.300000000000001,0.113,-0.004,99.91,5.0,,0.0,0.0,
2025-08-15T03:36:17.029Z,10,GR86-063-113,6.300000000000001,0.091,-0.01,99.92,5.0,,0.0,0.0,
2025-08-15T03:36:17.074Z,10,GR86-063-113,6.4,0.094,0.002,99.92,5.0,6485.0,0.0,0.0,
2025-08-15T03:36:17.117Z,10,GR86-063-113,6.5,0.099,0.012,99.91,5.0,,0.0,0.0,190.85
2025-08-15T03:36:17.160Z,10,GR86-063-113,6.5,0.077,0.018,99.91,5.0,,0.0,0.0,
2025-08-15T03:36:17.204Z,10,GR86-063-113,6.6000000000000005,0.102,0.019,99.91,5.0,,0.0,0.0,
2025-08-15T03:36:17.247Z,10,GR86-063-113,6.6000000000000005,0.094,0.017,99.9,5.0,,0.0,0.0,
2025-08-15T03:36:17.290Z,10,GR86-063-113,6.6000000000000005,0.111,0.018,99.91,5.0,6520.0,0.0,0.0,
2025-08-15T03:36:17.334Z,10,GR86-063-113,6.6000000000000005,0.11,0.043,99.91,5.0,,0.0,0.0,191.69
2025-08-15T03:36:17.377Z,10,GR86-063-113,6.6000000000000005,0.089,0.056,99.92,5.0,,0.0,0.0,
2025-08-15T03:36:17.420Z,10,GR86-063-113,6.5,0.1,0.044,99.92,5.0,,0.0,0.0,
2025-08-15T03:36:17.465Z,10,GR86-063-113,6.5,0.088,0.044,99.91,5.0,,0.0,0.0,
2025-08-15T03:36:17.507Z,10,GR86-063-113,6.5,0.088,0.044,99.92,5.0,6541.0,0.0,0.0,
2025-08-15T03:36:17.550Z,10,GR86-063-113,6.5,0.091,0.045,99.93,5.0,,0.0,0.0,192.43
2025-08-15T03:36:17.594Z,10,GR86-063-113,6.6000000000000005,0.107,0.042,99.92,5.0,,0.0,0.0,
2025-08-15T03:36:17.637Z,10,GR86-063-113,6.7,0.113,0.045,99.91,5.0,,0.0,0.0,
2025-08-15T03:36:17.680Z,10,GR86-063-113,6.800000000000001,0.094,0.049,99.91,5.0,,0.0,0.0,
2025-08-15T03:36:17.726Z,10,GR86-063-113,6.7,0.1,0.037,99.91,5.0,6565.0,0.0,0.0,
2025-08-15T03:36:17.769Z,10,GR86-063-113,6.6000000000000005,0.091,0.061,99.91,5.0,,0.0,0.0,193.21
2025-08-15T03:36:17.814Z,10,GR86-063-113,6.6000000000000005,0.129,0.054,99.91,5.0,,0.0,0.0,
2025-08-15T03:36:17.857Z,10,GR86-063-113,6.7,0.124,0.072,99.92,5.0,,0.0,0.0,
2025-08-15T03:36:17.900Z,10,GR86-063-113,6.800000000000001,0.119,0.092,99.92,5.0,,0.0,0.0,
2025-08-15T03:36:17.944Z,10,GR86-063-113,6.800000000000001,0.101,0.091,99.91,5.0,6592.0,0.0,0.0,
2025-08-15T03:36:17.986Z,10,GR86-063-113,6.7,0.097,0.081,99.92,5.0,,0.0,0.0,194.02
2025-08-15T03:36:18.029Z,10,GR86-063-113,6.6000000000000005,0.096,0.041,99.91,5.0,,0.0,0.0,
2025-08-15T03:36:18.074Z,10,GR86-063-113,6.5,0.118,0.043,99.92,5.0,,0.0,0.0,
2025-08-15T03:36:18.117Z,10,GR86-063-113,6.5,0.125,0.061,99.91,5.0,,0.0,0.0,
2025-08-15T03:36:18.160Z,10,GR86-063-113,6.5,0.117,0.044,99.91,5.0,6621.0,0.0,0.0,
2025-08-15T03:36:18.204Z,10,GR86-063-113,6.4,0.112,0.044,99.91,5.0,,0.0,0.0,194.8
2025-08-15T03:36:18.246Z,10,GR86-063-113,6.4,0.1,0.007,99.91,5.0,,0.0,0.0,
2025-08-15T03:36:18.289Z,10,GR86-063-113,6.4,0.09,0.007,99.91,5.0,,0.0,0.0,
2025-08-15T03:36:18.334Z,10,GR86-063-113,6.4,0.117,0.009,99.91,5.0,,0.0,0.0,
2025-08-15T03:36:18.377Z,10,GR86-063-113,6.4,0.128,0.02,99.91,5.0,6641.0,0.0,0.0,
2025-08-15T03:36:18.420Z,10,GR86-063-113,6.5,0.112,-0.013,99.91,5.0,,0.0,0.0,196.22
2025-08-15T03:36:18.464Z,10,GR86-063-113,6.5,0.102,-0.007,99.92,5.0,,0.0,0.0,
2025-08-15T03:36:18.506Z,10,GR86-063-113,6.6000000000000005,0.104,-0.008,99.93,5.0,,0.0,0.0,
2025-08-15T03:36:18.549Z,10,GR86-063-113,6.6000000000000005,0.069,0.025,99.91,5.0,,0.0,0.0,
2025-08-15T03:36:18.595Z,10,GR86-063-113,6.800000000000001,0.111,0.024,99.9,5.0,6680.0,0.0,0.0,
2025-08-15T03:36:18.637Z,10,GR86-063-113,7.2,0.117,0.032,99.92,5.0,,0.0,0.0,197.02
2025-08-15T03:36:18.680Z,10,GR86-063-113,7.6,0.11,0.044,99.91,5.0,,0.0,0.0,
2025-08-15T03:36:18.726Z,10,GR86-063-113,7.800000000000001,0.101,0.07,99.91,5.0,,0.0,0.0,
2025-08-15T03:36:18.768Z,10,GR86-063-113,7.800000000000001,0.07,0.102,99.91,5.0,,0.0,0.0,
2025-08-15T03:36:18.811Z,10,GR86-063-113,7.6,0.069,0.111,99.91,5.0,6704.0,0.0,0.0,
2025-08-15T03:36:18.854Z,10,GR86-063-113,7.7,0.121,0.123,99.92,5.0,,0.0,0.0,197.87
2025-08-15T03:36:18.897Z,10,GR86-063-113,7.9,0.104,0.102,99.91,5.0,,0.0,0.0,
2025-08-15T03:36:18.940Z,10,GR86-063-113,7.800000000000001,0.101,0.113,99.92,5.0,,0.0,0.0,
2025-08-15T03:36:18.984Z,10,GR86-063-113,7.7,0.083,0.122,99.92,5.0,,0.0,0.0,
2025-08-15T03:36:19.026Z,10,GR86-063-113,7.5,0.073,0.142,99.92,5.0,6744.0,0.0,0.0,
2025-08-15T03:36:19.069Z,10,GR86-063-113,7.4,0.078,0.144,99.91,5.0,,0.0,0.0,198.58
2025-08-15T03:36:19.115Z,10,GR86-063-113,7.4,0.115,0.105,99.92,5.0,,0.0,0.0,
2025-08-15T03:36:19.158Z,10,GR86-063-113,7.4,0.091,0.103,99.92,5.0,,0.0,0.0,
2025-08-15T03:36:19.201Z,10,GR86-063-113,7.4,0.077,0.103,99.91,5.0,,0.0,0.0,
2025-08-15T03:36:19.244Z,10,GR86-063-113,7.300000000000001,0.071,0.062,99.9,5.0,6767.0,0.0,0.0,
2025-08-15T03:36:19.287Z,10,GR86-063-113,7.2,0.069,0.071,99.91,5.0,,0.0,0.0,199.37
2025-08-15T03:36:19.330Z,10,GR86-063-113,6.5,0.068,0.045,99.91,5.0,,0.0,0.0,
2025-08-15T03:36:19.374Z,10,GR86-063-113,5.5,0.088,0.033,99.92,5.0,,0.0,0.0,
2025-08-15T03:36:19.417Z,10,GR86-063-113,5.300000000000001,0.072,0.02,99.91,5.0,,0.0,0.0,
2025-08-15T03:36:19.460Z,10,GR86-063-113,5.2,0.067,0.029,99.92,5.0,6805.0,0.0,0.0,
2025-08-15T03:36:19.504Z,10,GR86-063-113,5.1000000000000005,0.066,0.004,99.91,5.0,,0.0,0.0,199.96
2025-08-15T03:36:19.547Z,10,GR86-063-113,5.1000000000000005,0.071,-0.033,99.91,5.0,,0.0,0.0,
2025-08-15T03:36:19.590Z,10,GR86-063-113,5.1000000000000005,0.099,-0.036,99.91,5.0,,0.0,0.0,
2025-08-15T03:36:19.634Z,10,GR86-063-113,5.300000000000001,0.069,-0.023,99.91,5.0,,0.0,0.0,
2025-08-15T03:36:19.677Z,10,GR86-063-113,5.4,0.073,-0.057,99.91,5.0,6831.0,0.0,0.0,
2025-08-15T03:36:19.720Z,10,GR86-063-113,5.4,0.078,-0.047,99.91,5.0,,0.0,0.0,200.64
2025-08-15T03:36:19.764Z,10,GR86-063-113,5.4,0.083,-0.05,99.91,5.0,,0.0,0.0,
2025-08-15T03:36:19.807Z,10,GR86-063-113,5.4,0.122,-0.04,99.92,5.0,,0.0,0.0,
2025-08-15T03:36:19.850Z,10,GR86-063-113,5.5,0.09,-0.04,99.91,5.0,,0.0,0.0,
2025-08-15T03:36:19.894Z,10,GR86-063-113,5.5,0.079,-0.013,99.92,5.0,6840.0,0.0,0.0,
2025-08-15T03:36:19.937Z,10,GR86-063-113,5.6000000000000005,0.092,-0.012,99.91,5.0,,0.0,0.0,201.5
2025-08-15T03:36:19.980Z,10,GR86-063-113,5.6000000000000005,0.1,-0.023,99.91,5.0,,0.0,0.0,
2025-08-15T03:36:20.025Z,10,GR86-063-113,5.7,0.115,-0.003,99.92,5.0,,0.0,0.0,
2025-08-15T03:36:20.068Z,10,GR86-063-113,5.7,0.102,-0.017,99.91,5.0,,0.0,0.0,
2025-08-15T03:36:20.111Z,10,GR86-063-113,5.7,0.081,-0.005,99.91,5.0,6874.0,0.0,0.0,
2025-08-15T03:36:20.154Z,10,GR86-063-113,5.6000000000000005,0.109,-0.027,99.92,5.0,,0.0,0.0,202.23
2025-08-15T03:36:20.197Z,10,GR86-063-113,5.5,0.101,-0.033,99.91,5.0,,0.0,0.0,
2025-08-15T03:36:20.240Z,10,GR86-063-113,5.4,0.105,-0.028,99.92,5.0,,0.0,0.0,
2025-08-15T03:36:20.284Z,10,GR86-063-113,5.5,0.078,-0.022,99.92,5.0,,0.0,0.0,
2025-08-15T03:36:20.327Z,10,GR86-063-113,5.6000000000000005,0.087,-0.003,99.91,5.0,6893.0,0.0,0.0,
2025-08-15T03:36:20.370Z,10,GR86-063-113,5.6000000000000005,0.052,0.007,99.91,5.0,,0.0,0.0,203.05
2025-08-15T03:36:20.414Z,10,GR86-063-113,5.6000000000000005,0.08,-0.046,99.92,5.0,,0.0,0.0,
2025-08-15T03:36:20.457Z,10,GR86-063-113,5.5,0.078,-0.04,99.91,5.0,,0.0,0.0,
2025-08-15T03:36:20.500Z,10,GR86-063-113,5.4,0.081,-0.054,99.92,5.0,,0.0,0.0,
2025-08-15T03:36:20.544Z,10,GR86-063-113,5.4,0.068,-0.014,99.92,5.0,6925.0,0.0,0.0,
2025-08-15T03:36:20.586Z,10,GR86-063-113,5.4,0.052,-0.052,99.91,5.0,,0.0,0.0,203.75
2025-08-15T03:36:20.629Z,10,GR86-063-113,5.5,0.093,-0.051,99.9,5.0,,0.0,0.0,
2025-08-15T03:36:20.674Z,10,GR86-063-113,5.7,0.082,-0.008,99.91,5.0,,0.0,0.0,
2025-08-15T03:36:20.717Z,10,GR86-063-113,5.800000000000001,0.055,-0.047,99.91,5.0,,0.0,0.0,
2025-08-15T03:36:20.760Z,10,GR86-063-113,5.7,0.073,-0.021,99.92,5.0,6945.0,0.0,0.0,
2025-08-15T03:36:20.804Z,10,GR86-063-113,5.5,0.084,-0.05,99.92,5.0,,0.0,0.0,204.55
2025-08-15T03:36:20.847Z,10,GR86-063-113,5.4,0.109,-0.015,99.91,5.0,,0.0,0.0,
2025-08-15T03:36:20.890Z,10,GR86-063-113,5.300000000000001,0.087,-0.043,99.92,5.0,,0.0,0.0,
2025-08-15T03:36:20.934Z,10,GR86-063-113,5.1000000000000005,0.086,-0.078,99.91,5.0,,0.0,0.0,
2025-08-15T03:36:20.977Z,10,GR86-063-113,4.9,0.089,-0.056,99.91,5.0,6984.0,0.0,0.0,
2025-08-15T03:36:21.020Z,10,GR86-063-113,4.800000000000001,0.083,-0.065,99.92,5.0,,0.0,0.0,206.0
2025-08-15T03:36:21.065Z,10,GR86-063-113,4.800000000000001,0.083,-0.037,99.92,5.0,,0.0,0.0,
2025-08-15T03:36:21.107Z,10,GR86-063-113,4.9,0.078,-0.068,99.91,5.0,,0.0,0.0,
2025-08-15T03:36:21.150Z,10,GR86-063-113,4.9,0.075,-0.035,99.91,5.0,,0.0,0.0,
2025-08-15T03:36:21.194Z,10,GR86-063-113,4.9,0.087,-0.078,99.92,5.0,7006.0,0.0,0.0,
2025-08-15T03:36:21.237Z,10,GR86-063-113,4.9,0.073,-0.07,99.92,5.0,,0.0,0.0,206.73
2025-08-15T03:36:21.280Z,10,GR86-063-113,5.0,0.076,-0.072,99.92,5.0,,0.0,0.0,
2025-08-15T03:36:21.326Z,10,GR86-063-113,5.0,0.077,-0.064,99.91,5.0,,0.0,0.0,
2025-08-15T03:36:21.414Z,10,GR86-063-113,5.0,0.088,-0.071,99.92,5.0,7052.0,0.0,0.0,
2025-08-15T03:36:21.457Z,10,GR86-063-113,4.9,0.082,-0.063,99.92,5.0,,0.0,0.0,207.43
2025-08-15T03:36:21.500Z,10,GR86-063-113,5.0,0.077,-0.05,99.91,5.0,,0.0,0.0,
2025-08-15T03:36:21.544Z,10,GR86-063-113,5.1000000000000005,0.089,-0.038,99.91,5.0,,0.0,0.0,
2025-08-15T03:36:21.586Z,10,GR86-063-113,5.1000000000000005,0.09,-0.042,99.92,5.0,,0.0,0.0,
2025-08-15T03:36:21.674Z,10,GR86-063-113,5.2,0.09,-0.046,99.91,5.0,7069.0,0.0,0.0,208.12
2025-08-15T03:36:21.717Z,10,GR86-063-113,5.0,0.101,-0.056,99.92,5.0,,0.0,0.0,
2025-08-15T03:36:21.760Z,10,GR86-063-113,4.9,0.087,-0.055,99.91,5.0,,0.0,0.0,
2025-08-15T03:36:21.804Z,10,GR86-063-113,4.800000000000001,0.083,-0.054,99.91,5.0,,0.0,0.0,
2025-08-15T03:36:21.846Z,10,GR86-063-113,4.800000000000001,0.068,-0.038,99.92,5.0,7094.0,0.0,0.0,
2025-08-15T03:36:21.889Z,10,GR86-063-113,4.9,0.085,-0.048,99.92,5.0,,0.0,0.0,208.93
2025-08-15T03:36:21.934Z,10,GR86-063-113,5.0,0.097,-0.047,99.92,5.0,,0.0,0.0,
2025-08-15T03:36:21.977Z,10,GR86-063-113,5.0,0.078,-0.065,99.91,5.0,,0.0,0.0,
2025-08-15T03:36:22.020Z,10,GR86-063-113,5.0,0.087,-0.057,99.91,5.0,,0.0,0.0,
2025-08-15T03:36:22.064Z,10,GR86-063-113,5.0,0.063,-0.073,99.92,5.0,7110.0,0.0,0.0,
2025-08-15T03:36:22.149Z,10,GR86-063-113,5.0,0.106,-0.069,99.91,5.0,,0.0,0.0,209.55
2025-08-15T03:36:22.194Z,10,GR86-063-113,4.2,0.071,-0.073,99.92,5.0,,0.0,0.0,
2025-08-15T03:36:22.237Z,10,GR86-063-113,3.9,0.112,-0.073,99.91,5.0,,0.0,0.0,
2025-08-15T03:36:22.280Z,10,GR86-063-113,4.0,0.071,-0.045,99.91,5.0,7133.0,0.0,0.0,
2025-08-15T03:36:22.326Z,10,GR86-063-113,4.1000000000000005,0.11,-0.065,99.9,5.0,,0.0,0.0,210.22
2025-08-15T03:36:22.368Z,10,GR86-063-113,4.3,0.08,-0.067,99.93,5.0,,0.0,0.0,
2025-08-15T03:36:22.411Z,10,GR86-063-113,4.3,0.091,-0.052,99.91,5.0,,0.0,0.0,
2025-08-15T03:36:22.454Z,10,GR86-063-113,4.3,0.094,-0.089,99.91,5.0,,0.0,0.0,
2025-08-15T03:36:22.497Z,10,GR86-063-113,4.3,0.074,-0.073,99.91,5.0,7163.0,0.0,0.0,
2025-08-15T03:36:22.540Z,10,GR86-063-113,4.4,0.092,-0.079,99.92,5.0,,0.0,0.0,210.81
2025-08-15T03:36:22.584Z,10,GR86-063-113,4.4,0.077,-0.071,99.93,5.0,,0.0,0.0,
2025-08-15T03:36:22.626Z,10,GR86-063-113,4.6000000000000005,0.078,-0.053,96.3,5.0,,0.0,0.0,
2025-08-15T03:36:22.715Z,10,GR86-063-113,4.9,0.113,-0.016,50.61,5.0,7190.0,0.0,0.0,
2025-08-15T03:36:22.758Z,10,GR86-063-113,5.7,0.072,-0.01,31.31,5.0,,0.0,0.0,211.48
2025-08-15T03:36:22.801Z,10,GR86-063-113,5.5,0.023,-0.005,19.71,5.0,,0.0,0.0,
2025-08-15T03:36:22.844Z,10,GR86-063-113,5.2,0.014,0.005,18.09,5.0,,0.0,0.0,
2025-08-15T03:36:22.887Z,10,GR86-063-113,5.1000000000000005,-0.032,0.01,18.43,5.0,,0.0,0.0,
2025-08-15T03:36:22.930Z,10,GR86-063-113,5.0,-0.103,0.039,17.990000000000002,5.0,7177.0,0.0,0.0,
2025-08-15T03:36:22.974Z,10,GR86-063-113,4.7,-0.103,0.007,17.36,5.0,,0.0,0.0,212.23
2025-08-15T03:36:23.017Z,10,GR86-063-113,4.4,-0.102,-0.006,16.990000000000002,5.0,,0.0,0.0,
2025-08-15T03:36:23.060Z,10,GR86-063-113,4.3,-0.099,-0.042,14.2,5.0,,0.0,0.0,
2025-08-15T03:36:23.104Z,10,GR86-063-113,4.4,-0.096,-0.052,13.34,5.0,,0.0,0.0,
2025-08-15T03:36:23.146Z,10,GR86-063-113,4.5,-0.081,-0.078,8.49,5.0,7147.0,0.0,0.0,
2025-08-15T03:36:23.189Z,10,GR86-063-113,4.4,-0.097,-0.051,7.85,5.0,,0.0,0.0,212.61
2025-08-15T03:36:23.234Z,10,GR86-063-113,3.5,-0.103,-0.082,8.05,5.0,,0.0,0.0,
2025-08-15T03:36:23.277Z,10,GR86-063-113,3.2,-0.183,-0.082,9.72,5.0,,0.0,0.0,
2025-08-15T03:36:23.320Z,10,GR86-063-113,3.0,-0.248,-0.136,8.98,5.0,,0.0,0.0,
2025-08-15T03:36:23.364Z,10,GR86-063-113,2.9000000000000004,-0.153,-0.126,7.91,5.0,7084.0,0.0,0.0,
2025-08-15T03:36:23.407Z,10,GR86-063-113,2.9000000000000004,-0.139,-0.158,8.74,5.0,,0.0,0.0,212.26
2025-08-15T03:36:23.450Z,10,GR86-063-113,3.2,-0.166,-0.151,9.52,5.0,,0.0,0.0,
2025-08-15T03:36:23.494Z,10,GR86-063-113,3.4000000000000004,-0.157,-0.135,9.37,5.0,,0.0,0.0,
2025-08-15T03:36:23.537Z,10,GR86-063-113,3.4000000000000004,-0.147,-0.117,10.2,5.0,,0.0,0.0,
2025-08-15T03:36:23.580Z,10,GR86-063-113,3.5,-0.143,-0.089,10.49,5.0,7085.0,0.0,0.0,
2025-08-15T03:36:23.625Z,10,GR86-063-113,3.5,-0.158,-0.099,11.74,5.0,,0.0,0.0,210.57
2025-08-15T03:36:23.668Z,10,GR86-063-113,3.4000000000000004,-0.143,-0.075,12.82,5.0,,0.0,0.0,
2025-08-15T03:36:23.711Z,10,GR86-063-113,3.5,-0.137,-0.069,12.96,5.0,,0.0,0.0,
2025-08-15T03:36:23.754Z,10,GR86-063-113,5.7,-0.153,-0.043,19.63,5.0,,0.0,0.0,
2025-08-15T03:36:23.840Z,10,GR86-063-113,7.2,-0.156,-0.007,24.35,5.0,7040.0,0.0,0.0,209.61
2025-08-15T03:36:23.884Z,10,GR86-063-113,8.3,-0.113,0.045,27.42,5.0,,0.0,0.0,
2025-08-15T03:36:23.927Z,10,GR86-063-113,7.4,-0.111,0.078,29.1,5.0,,0.0,0.0,
2025-08-15T03:36:23.970Z,10,GR86-063-113,6.9,0.108,0.086,28.89,5.0,,0.0,0.0,
2025-08-15T03:36:24.014Z,10,GR86-063-113,7.2,-0.058,0.113,31.48,5.0,6994.0,0.0,0.0,
2025-08-15T03:36:24.057Z,10,GR86-063-113,8.0,-0.082,0.097,31.87,5.0,,0.0,0.0,208.82
2025-08-15T03:36:24.100Z,10,GR86-063-113,9.0,0.002,0.117,31.92,5.0,,0.0,0.0,
2025-08-15T03:36:24.186Z,10,GR86-063-113,9.9,0.05,0.138,32.0,5.0,,0.0,0.0,
2025-08-15T03:36:24.229Z,10,GR86-063-113,9.0,-0.004,0.133,32.44,5.0,7031.0,0.0,0.0,
2025-08-15T03:36:24.274Z,10,GR86-063-113,8.4,0.016,0.125,32.34,5.0,,0.0,0.0,208.6
2025-08-15T03:36:24.317Z,10,GR86-063-113,8.0,0.019,0.124,32.38,5.0,,0.0,0.0,
2025-08-15T03:36:24.360Z,10,GR86-063-113,6.1000000000000005,-0.006,0.09,31.91,5.0,,0.0,0.0,
2025-08-15T03:36:24.404Z,10,GR86-063-113,5.0,0.029,0.072,19.92,5.0,,2.015,2.045,
2025-08-15T03:36:24.447Z,10,GR86-063-113,4.4,-0.028,0.042,4.34,5.0,7057.0,2.015,2.275,
2025-08-15T03:36:24.490Z,10,GR86-063-113,4.5,-0.048,0.01,4.3100000000000005,5.0,,2.67,2.825,208.58
2025-08-15T03:36:24.534Z,10,GR86-063-113,6.800000000000001,-0.18,-0.005,4.04,5.0,,9.905,9.905,
2025-08-15T03:36:24.577Z,10,GR86-063-113,6.800000000000001,-0.462,-0.005,3.83,5.0,,17.455000000000002,17.455000000000002,
2025-08-15T03:36:24.620Z,10,GR86-063-113,5.2,-0.451,-0.02,3.62,5.0,,25.15,24.92,
2025-08-15T03:36:24.665Z,10,GR86-063-113,4.800000000000001,-0.527,-0.022,3.4,5.0,6896.0,29.68,29.39,
2025-08-15T03:36:24.707Z,10,GR86-063-113,5.1000000000000005,-0.626,-0.049,3.14,5.0,,31.985,31.77,208.39
2025-08-15T03:36:24.750Z,10,GR86-063-113,7.6,-0.71,-0.014,2.85,5.0,,32.17,32.305,
2025-08-15T03:36:24.794Z,10,GR86-063-113,8.9,-0.687,0.018,2.57,5.0,,33.28,33.315,
2025-08-15T03:36:24.837Z,10,GR86-063-113,8.5,-0.707,0.027,2.5,5.0,,35.02,34.99,
2025-08-15T03:36:24.926Z,10,GR86-063-113,7.9,-0.743,0.042,31.97,5.0,6769.0,38.775,38.5,204.73
2025-08-15T03:36:24.969Z,10,GR86-063-113,4.1000000000000005,-0.8170000000000001,0.069,99.67,4.0,,44.405,44.375,
2025-08-15T03:36:25.014Z,10,GR86-063-113,1.3,-0.926,-0.028,12.46,4.0,,44.775,44.91,
2025-08-15T03:36:25.057Z,10,GR86-063-113,-0.9,-0.977,0.063,3.29,4.0,,47.275,48.68,
2025-08-15T03:36:25.100Z,10,GR86-063-113,-1.2000000000000002,-0.81,-0.036,3.04,4.0,6727.0,50.16,50.845,
2025-08-15T03:36:25.144Z,10,GR86-063-113,0.3,-1.079,-0.061,2.82,4.0,,52.435,52.115,199.49
2025-08-15T03:36:25.186Z,10,GR86-063-113,2.5,-0.908,0.007,2.72,4.0,,54.705,54.295,
2025-08-15T03:36:25.229Z,10,GR86-063-113,5.9,-1.016,-0.078,2.66,4.0,,57.120000000000005,56.72,
2025-08-15T03:36:25.274Z,10,GR86-063-113,7.6,-1.072,-0.024,2.63,4.0,,60.645,60.2,
2025-08-15T03:36:25.317Z,10,GR86-063-113,8.0,-1.122,-0.077,2.6,4.0,7296.0,63.865,63.255,
2025-08-15T03:36:25.360Z,10,GR86-063-113,7.9,-1.186,-0.055,2.57,4.0,,67.555,66.93,192.94
2025-08-15T03:36:25.404Z,10,GR86-063-113,7.800000000000001,-1.239,-0.064,2.54,4.0,,69.965,69.495,
2025-08-15T03:36:25.446Z,10,GR86-063-113,8.0,-1.215,-0.097,2.53,4.0,,70.865,70.715,
2025-08-15T03:36:25.489Z,10,GR86-063-113,8.5,-1.218,-0.07,2.53,4.0,,71.705,73.235,
2025-08-15T03:36:25.534Z,10,GR86-063-113,8.9,-1.18,-0.062,2.5,4.0,6730.0,70.515,71.08,
2025-08-15T03:36:25.577Z,10,GR86-063-113,8.9,-1.225,-0.02,7.82,4.0,,68.44,69.965,185.12
2025-08-15T03:36:25.620Z,10,GR86-063-113,8.8,-1.127,-0.053,50.11,3.0,,65.62,67.525,
2025-08-15T03:36:25.664Z,10,GR86-063-113,8.1,-1.095,0.0,24.87,3.0,,62.0,62.4,
2025-08-15T03:36:25.707Z,10,GR86-063-113,-0.3,-1.199,0.065,4.78,3.0,,63.175,64.61,
2025-08-15T03:36:25.750Z,10,GR86-063-113,-8.200000000000001,-1.073,-0.019,4.19,3.0,6530.0,65.42,67.205,
2025-08-15T03:36:25.794Z,10,GR86-063-113,-11.2,-1.378,-0.158,3.74,3.0,,65.895,67.02,177.12
2025-08-15T03:36:25.837Z,10,GR86-063-113,-9.2,-1.053,-0.144,3.5500000000000003,3.0,,68.06,69.875,
2025-08-15T03:36:25.880Z,10,GR86-063-113,-1.3,-1.036,-0.308,3.3200000000000003,3.0,,67.42,67.905,
2025-08-15T03:36:25.925Z,10,GR86-063-113,2.7,-1.345,-0.083,3.04,3.0,,66.455,67.265,
2025-08-15T03:36:25.968Z,10,GR86-063-113,4.800000000000001,-1.06,-0.059,2.72,3.0,6733.0,67.39,69.19,
2025-08-15T03:36:26.011Z,10,GR86-063-113,6.9,-1.056,-0.304,2.6,3.0,,65.145,65.985,169.41
2025-08-15T03:36:26.054Z,10,GR86-063-113,10.2,-1.185,-0.127,2.5,3.0,,59.805,60.95,
2025-08-15T03:36:26.097Z,10,GR86-063-113,9.0,-1.08,-0.278,2.47,3.0,,56.46,57.925,
2025-08-15T03:36:26.140Z,10,GR86-063-113,5.5,-1.008,-0.316,2.44,3.0,,51.120000000000005,51.96,
2025-08-15T03:36:26.184Z,10,GR86-063-113,2.3000000000000003,-0.948,-0.289,2.44,3.0,6954.0,45.43,46.71,
2025-08-15T03:36:26.226Z,10,GR86-063-113,-1.3,-0.883,-0.357,2.44,3.0,,40.025,41.43,154.14
2025-08-15T03:36:26.269Z,10,GR86-063-113,-7.9,-0.8300000000000001,-0.336,2.44,3.0,,35.800000000000004,37.145,
2025-08-15T03:36:26.315Z,10,GR86-063-113,-20.9,-0.736,-0.438,2.44,3.0,,32.99,33.94,
2025-08-15T03:36:26.358Z,10,GR86-063-113,-28.9,-0.745,-0.531,2.44,3.0,,32.78,33.845,
2025-08-15T03:36:26.401Z,10,GR86-063-113,-34.5,-0.778,-0.614,2.44,3.0,6856.0,33.28,33.97,
2025-08-15T03:36:26.444Z,10,GR86-063-113,-35.300000000000004,-0.764,-0.642,2.45,3.0,,34.18,34.565,148.86
2025-08-15T03:36:26.487Z,10,GR86-063-113,-32.300000000000004,-0.704,-0.739,2.44,3.0,,35.050000000000004,35.985,
2025-08-15T03:36:26.530Z,10,GR86-063-113,-22.6,-0.743,-0.8200000000000001,2.44,3.0,,36.305,37.355,
2025-08-15T03:36:26.574Z,10,GR86-063-113,-7.4,-0.728,-0.839,2.47,3.0,,36.425,36.9,
2025-08-15T03:36:26.617Z,10,GR86-063-113,-0.8,-0.835,-0.751,2.63,3.0,6254.0,35.205,35.800000000000004,
2025-08-15T03:36:26.660Z,10,GR86-063-113,1.8,-0.733,-0.731,2.6,3.0,,35.145,36.03,145.6
2025-08-15T03:36:26.704Z,10,GR86-063-113,2.0,-0.725,-0.896,2.62,3.0,,32.565,33.465,
2025-08-15T03:36:26.746Z,10,GR86-063-113,0.6000000000000001,-0.615,-0.876,2.63,3.0,,28.75,29.39,
2025-08-15T03:36:26.789Z,10,GR86-063-113,-0.6000000000000001,-0.588,-0.871,2.6,3.0,,25.24,25.955,
2025-08-15T03:36:26.877Z,10,GR86-063-113,-19.9,-0.436,-1.093,2.57,3.0,6133.0,17.490000000000002,18.295,140.38
2025-08-15T03:36:26.920Z,10,GR86-063-113,-31.8,-0.588,-1.089,2.6,3.0,,13.675,14.33,
2025-08-15T03:36:26.964Z,10,GR86-063-113,-42.8,-0.426,-1.203,2.57,3.0,,9.66,10.315,
2025-08-15T03:36:27.007Z,10,GR86-063-113,-49.1,-0.322,-1.245,2.57,3.0,,4.275,4.775,
2025-08-15T03:36:27.094Z,10,GR86-063-113,-48.400000000000006,-0.269,-1.29,2.57,3.0,5964.0,0.0,0.0,136.77
2025-08-15T03:36:27.137Z,10,GR86-063-113,-15.3,-0.201,-1.184,3.79,3.0,,0.0,0.0,
2025-08-15T03:36:27.180Z,10,GR86-063-113,-5.0,-0.209,-1.208,4.64,3.0,,0.0,0.0,
2025-08-15T03:36:27.225Z,10,GR86-063-113,-0.6000000000000001,-0.172,-1.263,8.8,3.0,,0.0,0.0,
2025-08-15T03:36:27.268Z,10,GR86-063-113,-0.1,-0.167,-1.235,21.55,3.0,5957.0,0.0,0.0,
2025-08-15T03:36:27.311Z,10,GR86-063-113,-0.1,-0.196,-1.243,23.95,3.0,,0.0,0.0,134.4
2025-08-15T03:36:27.354Z,10,GR86-063-113,0.7000000000000001,-0.147,-1.191,25.87,3.0,,0.0,0.0,
2025-08-15T03:36:27.397Z,10,GR86-063-113,4.6000000000000005,-0.096,-1.224,26.55,3.0,,0.0,0.0,
2025-08-15T03:36:27.440Z,10,GR86-063-113,7.800000000000001,-0.071,-1.252,27.07,3.0,,0.0,0.0,
2025-08-15T03:36:27.484Z,10,GR86-063-113,7.0,0.029,-1.202,27.84,3.0,6041.0,0.0,0.0,
2025-08-15T03:36:27.527Z,10,GR86-063-113,-1.4,0.064,-1.206,29.99,3.0,,0.0,0.0,133.26
2025-08-15T03:36:27.570Z,10,GR86-063-113,-14.2,0.072,-1.257,31.55,3.0,,0.0,0.0,
2025-08-15T03:36:27.614Z,10,GR86-063-113,-31.1,0.064,-1.261,31.74,3.0,,0.0,0.0,
2025-08-15T03:36:27.657Z,10,GR86-063-113,-39.3,0.07,-1.364,31.74,3.0,,0.0,0.0,
2025-08-15T03:36:27.700Z,10,GR86-063-113,-47.8,0.045,-1.276,31.74,3.0,6222.0,0.0,0.0,
2025-08-15T03:36:27.744Z,10,GR86-063-113,-56.8,0.061,-1.289,31.71,3.0,,0.0,0.0,131.8
2025-08-15T03:36:27.786Z,10,GR86-063-113,-64.5,0.072,-1.251,31.73,3.0,,0.0,0.0,
2025-08-15T03:36:27.829Z,10,GR86-063-113,-68.8,0.05,-1.192,31.75,3.0,,0.0,0.0,
2025-08-15T03:36:27.874Z,10,GR86-063-113,-70.9,0.058,-1.261,31.73,3.0,,0.0,0.0,
2025-08-15T03:36:27.917Z,10,GR86-063-113,-71.5,0.014,-1.232,31.74,3.0,6189.0,0.0,0.0,
2025-08-15T03:36:27.960Z,10,GR86-063-113,-72.3,0.031,-1.245,31.73,3.0,,0.0,0.0,129.87
2025-08-15T03:36:28.004Z,10,GR86-063-113,-73.2,0.035,-1.23,31.73,3.0,,0.0,0.0,
2025-08-15T03:36:28.047Z,10,GR86-063-113,-73.8,0.042,-1.207,31.77,3.0,,0.0,0.0,
2025-08-15T03:36:28.090Z,10,GR86-063-113,-74.10000000000001,0.043,-1.156,31.87,3.0,,0.0,0.0,
2025-08-15T03:36:28.134Z,10,GR86-063-113,-74.10000000000001,0.027,-1.25,32.02,3.0,6173.0,0.0,0.0,
2025-08-15T03:36:28.177Z,10,GR86-063-113,-74.9,0.064,-1.114,32.11,3.0,,0.0,0.0,129.76
2025-08-15T03:36:28.220Z,10,GR86-063-113,-75.5,0.02,-1.201,32.160000000000004,3.0,,0.0,0.0,
2025-08-15T03:36:28.265Z,10,GR86-063-113,-75.8,0.052,-1.112,32.21,3.0,,0.0,0.0,
2025-08-15T03:36:28.307Z,10,GR86-063-113,-76.3,0.03,-1.217,32.28,3.0,,0.0,0.0,
2025-08-15T03:36:28.350Z,10,GR86-063-113,-76.3,-0.033,-1.284,32.37,3.0,6161.0,0.0,0.0,
2025-08-15T03:36:28.394Z,10,GR86-063-113,-76.2,0.061,-1.213,32.53,3.0,,0.0,0.0,130.52
2025-08-15T03:36:28.437Z,10,GR86-063-113,-75.9,0.033,-1.151,32.82,3.0,,0.0,0.0,
2025-08-15T03:36:28.480Z,10,GR86-063-113,-73.60000000000001,0.034,-1.167,35.44,3.0,,0.0,0.0,
2025-08-15T03:36:28.526Z,10,GR86-063-113,-64.0,0.031,-1.24,44.9,3.0,,0.0,0.0,
2025-08-15T03:36:28.569Z,10,GR86-063-113,-49.3,0.004,-1.306,78.11,3.0,6189.0,0.0,0.0,
2025-08-15T03:36:28.614Z,10,GR86-063-113,-25.5,0.081,-1.265,99.77,3.0,,0.0,0.0,130.78
2025-08-15T03:36:28.657Z,10,GR86-063-113,-16.5,0.136,-1.209,99.85,3.0,,0.0,0.0,
2025-08-15T03:36:28.700Z,10,GR86-063-113,-15.9,0.175,-1.196,99.85,3.0,,0.0,0.0,
2025-08-15T03:36:28.744Z,10,GR86-063-113,-20.5,0.185,-1.209,99.86,3.0,,0.0,0.0,
2025-08-15T03:36:28.786Z,10,GR86-063-113,-26.8,0.14,-1.215,99.86,3.0,6223.0,0.0,0.0,
2025-08-15T03:36:28.829Z,10,GR86-063-113,-31.1,0.168,-1.203,99.85,3.0,,0.0,0.0,131.9
2025-08-15T03:36:28.874Z,10,GR86-063-113,-31.1,0.141,-1.218,99.87,3.0,,0.0,0.0,
2025-08-15T03:36:28.917Z,10,GR86-063-113,-30.200000000000003,0.136,-1.196,99.87,3.0,,0.0,0.0,
2025-08-15T03:36:28.960Z,10,GR86-063-113,-30.700000000000003,0.173,-1.228,99.86,3.0,,0.0,0.0,
2025-08-15T03:36:29.004Z,10,GR86-063-113,-31.8,0.164,-1.258,99.87,3.0,6270.0,0.0,0.0,
2025-08-15T03:36:29.047Z,10,GR86-063-113,-34.300000000000004,0.155,-1.254,99.88,3.0,,0.0,0.0,132.31
2025-08-15T03:36:29.090Z,10,GR86-063-113,-37.3,0.132,-1.288,99.86,3.0,,0.0,0.0,
2025-08-15T03:36:29.134Z,10,GR86-063-113,-41.0,0.148,-1.251,99.87,3.0,,0.0,0.0,
2025-08-15T03:36:29.177Z,10,GR86-063-113,-43.6,0.145,-1.207,99.88,3.0,,0.0,0.0,
2025-08-15T03:36:29.264Z,10,GR86-063-113,-46.0,0.152,-1.186,99.88,3.0,6342.0,0.0,0.0,133.17000000000002
2025-08-15T03:36:29.307Z,10,GR86-063-113,-48.3,0.125,-1.133,99.85,3.0,,0.0,0.0,
2025-08-15T03:36:29.350Z,10,GR86-063-113,-46.1,0.093,-1.196,99.86,3.0,,0.0,0.0,
2025-08-15T03:36:29.394Z,10,GR86-063-113,-37.1,0.11,-1.251,99.85,3.0,,0.0,0.0,
2025-08-15T03:36:29.437Z,10,GR86-063-113,-29.4,0.176,-1.29,99.87,3.0,6434.0,0.0,0.0,
2025-08-15T03:36:29.526Z,10,GR86-063-113,-20.700000000000003,0.147,-1.184,99.89,3.0,,0.0,0.0,133.48
2025-08-15T03:36:29.569Z,10,GR86-063-113,-18.9,0.134,-1.198,99.9,3.0,,0.0,0.0,
2025-08-15T03:36:29.615Z,10,GR86-063-113,-16.5,0.137,-1.214,99.87,3.0,,0.0,0.0,
2025-08-15T03:36:29.658Z,10,GR86-063-113,-15.5,0.175,-1.211,99.88,3.0,6436.0,0.0,0.0,
2025-08-15T03:36:29.701Z,10,GR86-063-113,-14.6,0.196,-1.202,99.89,3.0,,0.0,0.0,134.8
2025-08-15T03:36:29.744Z,10,GR86-063-113,-13.0,0.172,-1.165,99.87,3.0,,0.0,0.0,
2025-08-15T03:36:29.787Z,10,GR86-063-113,-10.6,0.162,-1.177,99.89,3.0,,0.0,0.0,
2025-08-15T03:36:29.830Z,10,GR86-063-113,-9.7,0.196,-1.136,99.89,3.0,,0.0,0.0,
2025-08-15T03:36:29.874Z,10,GR86-063-113,-12.3,0.169,-1.079,99.87,3.0,6457.0,0.0,0.0,
2025-08-15T03:36:29.917Z,10,GR86-063-113,-18.9,0.202,-1.117,99.88,3.0,,0.0,0.0,135.72
2025-08-15T03:36:29.960Z,10,GR86-063-113,-26.0,0.197,-1.072,99.88,3.0,,0.0,0.0,
2025-08-15T03:36:30.004Z,10,GR86-063-113,-32.300000000000004,0.154,-1.063,99.89,3.0,,0.0,0.0,
2025-08-15T03:36:30.046Z,10,GR86-063-113,-37.5,0.145,-1.039,99.88,3.0,,0.0,0.0,
2025-08-15T03:36:30.089Z,10,GR86-063-113,-42.1,0.177,-0.8300000000000001,99.89,3.0,6443.0,0.0,0.0,
2025-08-15T03:36:30.134Z,10,GR86-063-113,-43.900000000000006,0.202,-0.8210000000000001,99.89,3.0,,0.0,0.0,135.4
2025-08-15T03:36:30.177Z,10,GR86-063-113,-42.8,0.051,-0.602,99.87,3.0,,0.0,0.0,
2025-08-15T03:36:30.220Z,10,GR86-063-113,-36.9,0.083,-0.612,99.88,3.0,,0.0,0.0,
2025-08-15T03:36:30.264Z,10,GR86-063-113,-29.9,0.121,-0.737,99.88,3.0,,0.0,0.0,
2025-08-15T03:36:30.307Z,10,GR86-063-113,-21.6,0.196,-0.864,99.88,3.0,6512.0,0.0,0.0,
2025-08-15T03:36:30.350Z,10,GR86-063-113,-13.2,0.306,-0.585,99.88,3.0,,0.0,0.0,135.95
2025-08-15T03:36:30.394Z,10,GR86-063-113,-5.1000000000000005,0.246,-0.877,99.86,3.0,,0.0,0.0,
2025-08-15T03:36:30.437Z,10,GR86-063-113,-2.2,0.285,-0.748,99.88,3.0,,0.0,0.0,
2025-08-15T03:36:30.480Z,10,GR86-063-113,-1.6,0.295,-0.8290000000000001,99.88,3.0,,0.0,0.0,
2025-08-15T03:36:30.526Z,10,GR86-063-113,-2.8000000000000003,0.17,-1.108,99.88,3.0,6583.0,0.0,0.0,
2025-08-15T03:36:30.569Z,10,GR86-063-113,-5.2,0.167,-1.18,99.89,3.0,,0.0,0.0,137.47
2025-08-15T03:36:30.614Z,10,GR86-063-113,-10.1,0.205,-1.235,99.89,3.0,,0.0,0.0,
2025-08-15T03:36:30.657Z,10,GR86-063-113,-15.1,0.154,-1.205,99.89,3.0,,0.0,0.0,
2025-08-15T03:36:30.700Z,10,GR86-063-113,-20.5,0.203,-1.101,99.89,3.0,,0.0,0.0,
2025-08-15T03:36:30.744Z,10,GR86-063-113,-25.200000000000003,0.245,-1.008,99.88,3.0,6651.0,0.0,0.0,
2025-08-15T03:36:30.786Z,10,GR86-063-113,-28.6,0.182,-0.931,99.86,3.0,,0.0,0.0,138.48
2025-08-15T03:36:30.829Z,10,GR86-063-113,-29.1,0.099,-0.965,99.88,3.0,,0.0,0.0,
2025-08-15T03:36:30.874Z,10,GR86-063-113,-28.4,0.213,-0.923,99.89,3.0,,0.0,0.0,
2025-08-15T03:36:30.917Z,10,GR86-063-113,-28.1,0.192,-0.899,99.89,3.0,,0.0,0.0,
2025-08-15T03:36:30.960Z,10,GR86-063-113,-28.0,0.155,-0.9,99.87,3.0,6611.0,0.0,0.0,
2025-08-15T03:36:31.004Z,10,GR86-063-113,-27.0,0.149,-1.04,99.88,3.0,,0.0,0.0,139.34
2025-08-15T03:36:31.047Z,10,GR86-063-113,-24.0,0.185,-1.108,99.89,3.0,,0.0,0.0,
2025-08-15T03:36:31.090Z,10,GR86-063-113,-20.3,0.189,-1.058,99.88,3.0,,0.0,0.0,
2025-08-15T03:36:31.134Z,10,GR86-063-113,-17.7,0.199,-0.947,99.88,3.0,,0.0,0.0,
2025-08-15T03:36:31.177Z,10,GR86-063-113,-17.900000000000002,0.157,-0.871,99.88,3.0,6652.0,0.0,0.0,
2025-08-15T03:36:31.220Z,10,GR86-063-113,-18.6,0.15,-0.87,99.89,3.0,,0.0,0.0,141.91
2025-08-15T03:36:31.265Z,10,GR86-063-113,-19.0,0.222,-0.744,99.88,3.0,,0.0,0.0,
2025-08-15T03:36:31.307Z,10,GR86-063-113,-18.6,0.158,-0.841,99.86,3.0,,0.0,0.0,
2025-08-15T03:36:31.350Z,10,GR86-063-113,-17.5,0.197,-0.758,99.88,3.0,,0.0,0.0,
2025-08-15T03:36:31.394Z,10,GR86-063-113,-14.7,0.223,-0.669,99.88,3.0,6696.0,0.0,0.0,
2025-08-15T03:36:31.437Z,10,GR86-063-113,-11.7,0.168,-0.724,99.89,3.0,,0.0,0.0,142.78
2025-08-15T03:36:31.480Z,10,GR86-063-113,-7.6,0.127,-0.601,99.89,3.0,,0.0,0.0,
2025-08-15T03:36:31.526Z,10,GR86-063-113,-4.800000000000001,0.202,-0.609,99.88,3.0,,0.0,0.0,
2025-08-15T03:36:31.569Z,10,GR86-063-113,-2.8000000000000003,0.203,-0.626,99.87,3.0,,0.0,0.0,
2025-08-15T03:36:31.614Z,10,GR86-063-113,-2.4000000000000004,0.173,-0.377,99.89,3.0,6779.0,0.0,0.0,
2025-08-15T03:36:31.657Z,10,GR86-063-113,-2.7,0.161,-0.514,99.89,3.0,,0.0,0.0,144.35
2025-08-15T03:36:31.700Z,10,GR86-063-113,-2.2,0.167,-0.432,99.88,3.0,,0.0,0.0,
2025-08-15T03:36:31.744Z,10,GR86-063-113,0.4,0.126,-0.247,99.88,3.0,,0.0,0.0,
2025-08-15T03:36:31.786Z,10,GR86-063-113,5.0,0.203,-0.184,99.88,3.0,,0.0,0.0,
2025-08-15T03:36:31.829Z,10,GR86-063-113,7.2,0.249,-0.161,99.88,3.0,6879.0,0.0,0.0,
2025-08-15T03:36:31.874Z,10,GR86-063-113,8.6,-0.002,-0.005,99.86,3.0,,0.0,0.0,145.53
2025-08-15T03:36:31.917Z,10,GR86-063-113,9.8,0.217,-0.096,99.9,3.0,,0.0,0.0,
2025-08-15T03:36:31.960Z,10,GR86-063-113,11.3,0.31,-0.076,99.88,3.0,,0.0,0.0,
2025-08-15T03:36:32.004Z,10,GR86-063-113,11.9,0.36,-0.104,99.89,3.0,,0.0,0.0,
2025-08-15T03:36:32.047Z,10,GR86-063-113,12.0,0.164,-0.041,99.89,3.0,6974.0,0.0,0.0,
2025-08-15T03:36:32.090Z,10,GR86-063-113,12.0,0.14,-0.036,99.88,3.0,,0.0,0.0,146.55
2025-08-15T03:36:32.134Z,10,GR86-063-113,11.6,0.093,0.035,99.89,3.0,,0.0,0.0,
2025-08-15T03:36:32.177Z,10,GR86-063-113,11.3,0.313,0.129,99.89,3.0,,0.0,0.0,
2025-08-15T03:36:32.220Z,10,GR86-063-113,11.4,0.232,0.084,99.89,3.0,,0.0,0.0,
2025-08-15T03:36:32.306Z,10,GR86-063-113,10.9,0.112,0.064,99.88,3.0,7020.0,0.0,0.0,149.08
2025-08-15T03:36:32.349Z,10,GR86-063-113,8.6,0.206,0.157,99.88,3.0,,0.0,0.0,
2025-08-15T03:36:32.394Z,10,GR86-063-113,8.5,0.192,0.16,99.89,3.0,,0.0,0.0,
2025-08-15T03:36:32.437Z,10,GR86-063-113,9.0,0.252,0.237,99.89,3.0,,0.0,0.0,
2025-08-15T03:36:32.480Z,10,GR86-063-113,10.0,0.188,0.149,99.88,3.0,7191.0,0.0,0.0,
2025-08-15T03:36:32.526Z,10,GR86-063-113,10.0,0.072,0.202,99.88,3.0,,0.0,0.0,149.63
2025-08-15T03:36:32.568Z,10,GR86-063-113,9.5,0.018,0.303,99.88,3.0,,0.0,0.0,
2025-08-15T03:36:32.611Z,10,GR86-063-113,9.0,0.015,0.276,99.89,3.0,,0.0,0.0,
2025-08-15T03:36:32.654Z,10,GR86-063-113,9.8,0.23,0.366,99.88,3.0,,0.0,0.0,
2025-08-15T03:36:32.697Z,10,GR86-063-113,11.7,0.349,0.202,99.92,3.0,7271.0,0.0,0.0,
2025-08-15T03:36:32.740Z,10,GR86-063-113,11.7,0.157,0.096,99.9,3.0,,0.0,0.0,151.03
2025-08-15T03:36:32.784Z,10,GR86-063-113,11.7,0.107,0.307,99.89,3.0,,0.0,0.0,
2025-08-15T03:36:32.827Z,10,GR86-063-113,11.7,0.054,0.247,99.88,3.0,,0.0,0.0,
2025-08-15T03:36:32.870Z,10,GR86-063-113,11.6,0.032,0.293,99.89,3.0,,0.0,0.0,
2025-08-15T03:36:32.915Z,10,GR86-063-113,10.9,0.306,0.17,99.89,3.0,7170.0,0.0,0.0,
2025-08-15T03:36:32.958Z,10,GR86-063-113,9.4,0.189,0.086,99.89,3.0,,0.0,0.0,152.6
2025-08-15T03:36:33.001Z,10,GR86-063-113,8.700000000000001,0.154,0.246,99.91,3.0,,0.0,0.0,
2025-08-15T03:36:33.044Z,10,GR86-063-113,8.5,0.083,0.237,99.91,3.0,,0.0,0.0,
2025-08-15T03:36:33.087Z,10,GR86-063-113,8.3,-0.131,0.162,99.91,4.0,,0.0,0.0,
2025-08-15T03:36:33.130Z,10,GR86-063-113,7.7,0.446,0.162,99.89,4.0,7190.0,0.0,0.0,
2025-08-15T03:36:33.174Z,10,GR86-063-113,7.6,0.249,0.042,99.89,4.0,,0.0,0.0,154.24
2025-08-15T03:36:33.217Z,10,GR86-063-113,7.300000000000001,0.082,0.123,99.89,4.0,,0.0,0.0,
2025-08-15T03:36:33.260Z,10,GR86-063-113,6.9,0.065,0.051,99.91,4.0,,0.0,0.0,
2025-08-15T03:36:33.304Z,10,GR86-063-113,6.800000000000001,0.2,-0.035,99.91,4.0,,0.0,0.0,
2025-08-15T03:36:33.346Z,10,GR86-063-113,6.800000000000001,0.194,0.028,99.91,4.0,6033.0,0.0,0.0,
2025-08-15T03:36:33.389Z,10,GR86-063-113,6.9,0.132,-0.014,99.89,4.0,,0.0,0.0,155.13
2025-08-15T03:36:33.434Z,10,GR86-063-113,7.0,0.164,-0.005,99.9,4.0,,0.0,0.0,
2025-08-15T03:36:33.476Z,10,GR86-063-113,7.1000000000000005,0.152,-0.01,99.88,4.0,,0.0,0.0,
2025-08-15T03:36:33.519Z,10,GR86-063-113,7.1000000000000005,0.16,-0.005,99.89,4.0,,0.0,0.0,
2025-08-15T03:36:33.564Z,10,GR86-063-113,7.0,0.12,0.017,99.91,4.0,6167.0,0.0,0.0,
2025-08-15T03:36:33.607Z,10,GR86-063-113,6.9,0.115,0.035,99.88,4.0,,0.0,0.0,156.83
2025-08-15T03:36:33.650Z,10,GR86-063-113,6.6000000000000005,0.138,0.039,99.88,4.0,,0.0,0.0,
2025-08-15T03:36:33.694Z,10,GR86-063-113,5.4,0.11,0.03,99.89,4.0,,0.0,0.0,
2025-08-15T03:36:33.737Z,10,GR86-063-113,4.7,0.136,0.023,99.89,4.0,,0.0,0.0,
2025-08-15T03:36:33.780Z,10,GR86-063-113,3.6,0.114,0.016,99.9,4.0,6245.0,0.0,0.0,
2025-08-15T03:36:33.825Z,10,GR86-063-113,2.4000000000000004,0.133,-0.015,99.89,4.0,,0.0,0.0,159.9
2025-08-15T03:36:33.868Z,10,GR86-063-113,1.2000000000000002,0.129,-0.06,99.89,4.0,,0.0,0.0,
2025-08-15T03:36:33.911Z,10,GR86-063-113,0.6000000000000001,0.163,-0.098,99.88,4.0,,0.0,0.0,
2025-08-15T03:36:33.954Z,10,GR86-063-113,0.4,0.136,-0.131,99.9,4.0,,0.0,0.0,
2025-08-15T03:36:33.997Z,10,GR86-063-113,0.4,0.12,-0.147,99.88,4.0,6297.0,0.0,0.0,
2025-08-15T03:36:34.040Z,10,GR86-063-113,0.4,0.141,-0.185,99.89,4.0,,0.0,0.0,161.36
2025-08-15T03:36:34.084Z,10,GR86-063-113,0.5,0.152,-0.201,99.9,4.0,,0.0,0.0,
2025-08-15T03:36:34.127Z,10,GR86-063-113,0.7000000000000001,0.137,-0.213,99.9,4.0,,0.0,0.0,
2025-08-15T03:36:34.170Z,10,GR86-063-113,0.9,0.126,-0.234,99.91,4.0,,0.0,0.0,
2025-08-15T03:36:34.214Z,10,GR86-063-113,1.0,0.157,-0.192,99.89,4.0,6427.0,0.0,0.0,
2025-08-15T03:36:34.257Z,10,GR86-063-113,0.9,0.142,-0.185,99.89,4.0,,0.0,0.0,162.83
2025-08-15T03:36:34.300Z,10,GR86-063-113,0.8,0.151,-0.181,99.9,4.0,,0.0,0.0,
2025-08-15T03:36:34.344Z,10,GR86-063-113,0.6000000000000001,0.127,-0.195,99.89,4.0,,0.0,0.0,
2025-08-15T03:36:34.386Z,10,GR86-063-113,0.7000000000000001,0.127,-0.226,99.91,4.0,,0.0,0.0,
2025-08-15T03:36:34.429Z,10,GR86-063-113,1.1,0.124,-0.209,99.89,4.0,6497.0,0.0,0.0,
2025-08-15T03:36:34.474Z,10,GR86-063-113,3.4000000000000004,0.142,-0.19,99.9,4.0,,0.0,0.0,164.24
2025-08-15T03:36:34.517Z,10,GR86-063-113,4.7,0.125,-0.168,99.88,4.0,,0.0,0.0,
2025-08-15T03:36:34.560Z,10,GR86-063-113,5.800000000000001,0.137,-0.147,99.89,4.0,,0.0,0.0,
2025-08-15T03:36:34.604Z,10,GR86-063-113,7.0,0.141,-0.11,99.9,4.0,,0.0,0.0,
2025-08-15T03:36:34.647Z,10,GR86-063-113,7.800000000000001,0.132,-0.044,99.91,4.0,6541.0,0.0,0.0,
2025-08-15T03:36:34.690Z,10,GR86-063-113,8.0,0.123,0.007,99.88,4.0,,0.0,0.0,166.05
2025-08-15T03:36:34.734Z,10,GR86-063-113,8.3,0.153,0.048,99.89,4.0,,0.0,0.0,
2025-08-15T03:36:34.777Z,10,GR86-063-113,8.8,0.157,0.08,99.89,4.0,,0.0,0.0,
2025-08-15T03:36:34.820Z,10,GR86-063-113,9.4,0.134,0.128,99.88,4.0,,0.0,0.0,
2025-08-15T03:36:34.907Z,10,GR86-063-113,10.2,0.117,0.217,99.91,4.0,6596.0,0.0,0.0,167.51
2025-08-15T03:36:34.950Z,10,GR86-063-113,10.2,0.133,0.229,99.89,4.0,,0.0,0.0,
2025-08-15T03:36:34.994Z,10,GR86-063-113,9.8,0.168,0.198,99.89,4.0,,0.0,0.0,
2025-08-15T03:36:35.037Z,10,GR86-063-113,9.8,0.142,0.207,99.89,4.0,,0.0,0.0,
2025-08-15T03:36:35.080Z,10,GR86-063-113,9.7,0.139,0.189,99.9,4.0,6658.0,0.0,0.0,
2025-08-15T03:36:35.126Z,10,GR86-063-113,9.6,0.125,0.191,99.9,4.0,,0.0,0.0,169.04
2025-08-15T03:36:35.168Z,10,GR86-063-113,9.4,0.115,0.177,99.89,4.0,,0.0,0.0,
2025-08-15T03:36:35.211Z,10,GR86-063-113,9.4,0.115,0.174,99.91,4.0,,0.0,0.0,
2025-08-15T03:36:35.254Z,10,GR86-063-113,9.6,0.16,0.15,99.88,4.0,,0.0,0.0,
2025-08-15T03:36:35.297Z,10,GR86-063-113,9.6,0.155,0.143,99.9,4.0,6708.0,0.0,0.0,
2025-08-15T03:36:35.340Z,10,GR86-063-113,9.3,0.143,0.139,99.88,4.0,,0.0,0.0,170.68
2025-08-15T03:36:35.384Z,10,GR86-063-113,8.9,0.13,0.134,99.88,4.0,,0.0,0.0,
2025-08-15T03:36:35.426Z,10,GR86-063-113,7.2,0.137,0.116,99.88,4.0,,0.0,0.0,
2025-08-15T03:36:35.469Z,10,GR86-063-113,5.800000000000001,0.124,0.094,99.89,4.0,,0.0,0.0,
2025-08-15T03:36:35.514Z,10,GR86-063-113,4.5,0.16,0.086,99.88,4.0,6776.0,0.0,0.0,
2025-08-15T03:36:35.557Z,10,GR86-063-113,3.6,0.146,0.065,99.89,4.0,,0.0,0.0,172.06
2025-08-15T03:36:35.600Z,10,GR86-063-113,2.5,0.158,0.031,99.89,4.0,,0.0,0.0,
2025-08-15T03:36:35.644Z,10,GR86-063-113,1.4,0.144,-0.024,99.89,4.0,,0.0,0.0,
2025-08-15T03:36:35.686Z,10,GR86-063-113,0.2,0.144,-0.062,99.88,4.0,,0.0,0.0,
2025-08-15T03:36:35.729Z,10,GR86-063-113,-0.5,0.141,-0.113,99.91,4.0,6820.0,0.0,0.0,
2025-08-15T03:36:35.774Z,10,GR86-063-113,-0.7000000000000001,0.099,-0.146,99.9,4.0,,0.0,0.0,173.44
2025-08-15T03:36:35.817Z,10,GR86-063-113,-0.3,0.092,-0.177,99.89,4.0,,0.0,0.0,
2025-08-15T03:36:35.860Z,10,GR86-063-113,-0.1,0.122,-0.181,99.89,4.0,,0.0,0.0,
2025-08-15T03:36:35.904Z,10,GR86-063-113,0.0,0.116,-0.192,99.9,4.0,,0.0,0.0,
2025-08-15T03:36:35.946Z,10,GR86-063-113,-0.1,0.13,-0.199,99.88,4.0,6872.0,0.0,0.0,
2025-08-15T03:36:35.989Z,10,GR86-063-113,-0.3,0.134,-0.202,99.88,4.0,,0.0,0.0,174.82
2025-08-15T03:36:36.034Z,10,GR86-063-113,-1.0,0.092,-0.207,99.88,4.0,,0.0,0.0,
2025-08-15T03:36:36.077Z,10,GR86-063-113,-2.0,0.084,-0.196,99.89,4.0,,0.0,0.0,
2025-08-15T03:36:36.120Z,10,GR86-063-113,-2.7,0.081,-0.197,99.9,4.0,,0.0,0.0,
2025-08-15T03:36:36.164Z,10,GR86-063-113,-2.7,0.076,-0.22,99.89,4.0,6928.0,0.0,0.0,
2025-08-15T03:36:36.207Z,10,GR86-063-113,-2.0,0.078,-0.225,99.88,4.0,,0.0,0.0,176.13
2025-08-15T03:36:36.250Z,10,GR86-063-113,-1.7000000000000002,0.084,-0.234,99.89,4.0,,0.0,0.0,
2025-08-15T03:36:36.294Z,10,GR86-063-113,-1.3,0.15,-0.26,99.9,4.0,,0.0,0.0,
2025-08-15T03:36:36.337Z,10,GR86-063-113,-1.4,0.15,-0.272,99.88,4.0,,0.0,0.0,
2025-08-15T03:36:36.380Z,10,GR86-063-113,-1.5,0.144,-0.271,99.89,4.0,6976.0,0.0,0.0,
2025-08-15T03:36:36.426Z,10,GR86-063-113,-1.5,0.142,-0.27,99.89,4.0,,0.0,0.0,178.81
2025-08-15T03:36:36.468Z,10,GR86-063-113,-1.3,0.142,-0.285,99.88,4.0,,1.985,2.135,
2025-08-15T03:36:36.554Z,10,GR86-063-113,-1.1,0.152,-0.295,99.89,4.0,,5.6450000000000005,5.705,
2025-08-15T03:36:36.597Z,10,GR86-063-113,-1.1,-0.079,-0.233,13.12,4.0,7028.0,14.605,14.605,
2025-08-15T03:36:36.640Z,10,GR86-063-113,-0.4,-0.187,-0.225,5.23,4.0,,19.015,18.89,179.88
2025-08-15T03:36:36.684Z,10,GR86-063-113,0.8,-0.341,-0.197,5.0200000000000005,4.0,,24.11,24.08,
2025-08-15T03:36:36.727Z,10,GR86-063-113,1.4,-0.593,-0.138,4.63,4.0,,32.2,31.895,
2025-08-15T03:36:36.770Z,10,GR86-063-113,1.3,-0.857,-0.139,4.2,4.0,,42.575,41.995,
2025-08-15T03:36:36.815Z,10,GR86-063-113,-0.1,-0.982,-0.137,26.39,4.0,6713.0,56.495000000000005,55.745000000000005,
2025-08-15T03:36:36.858Z,10,GR86-063-113,-1.3,-1.077,-0.214,53.24,3.0,,60.98,60.46,178.42000000000002
2025-08-15T03:36:36.901Z,10,GR86-063-113,-1.4,-1.151,-0.202,5.93,3.0,,63.145,63.375,
2025-08-15T03:36:36.944Z,10,GR86-063-113,-1.3,-1.242,-0.165,5.26,3.0,,64.75,66.395,
2025-08-15T03:36:36.987Z,10,GR86-063-113,-0.8,-1.241,-0.343,4.68,3.0,,65.71000000000001,66.67,
2025-08-15T03:36:37.030Z,10,GR86-063-113,1.2000000000000002,-1.375,-0.254,4.2,3.0,6712.0,65.985,66.93,
2025-08-15T03:36:37.074Z,10,GR86-063-113,6.2,-1.18,-0.26,3.77,3.0,,69.465,70.485,171.86
2025-08-15T03:36:37.117Z,10,GR86-063-113,8.200000000000001,-1.088,-0.401,3.58,3.0,,69.74,70.83500000000001,
2025-08-15T03:36:37.160Z,10,GR86-063-113,8.8,-1.221,-0.192,3.3200000000000003,3.0,,73.02,74.68,
2025-08-15T03:36:37.204Z,10,GR86-063-113,9.2,-1.136,-0.397,3.04,3.0,,75.49,76.865,
2025-08-15T03:36:37.246Z,10,GR86-063-113,9.3,-1.153,-0.324,2.78,3.0,7285.0,76.56,78.025,
2025-08-15T03:36:37.289Z,10,GR86-063-113,8.9,-1.217,-0.275,2.63,3.0,,76.33,77.11,163.92000000000002
2025-08-15T03:36:37.334Z,10,GR86-063-113,3.7,-1.17,-0.296,2.5,3.0,,71.86,71.735,
2025-08-15T03:36:37.377Z,10,GR86-063-113,1.3,-1.195,-0.258,2.47,3.0,,68.685,68.41,
2025-08-15T03:36:37.420Z,10,GR86-063-113,0.5,-1.168,-0.28,2.47,3.0,,67.02,67.905,
2025-08-15T03:36:37.464Z,10,GR86-063-113,0.6000000000000001,-1.106,-0.26,2.66,3.0,6940.0,67.325,68.21000000000001,
2025-08-15T03:36:37.507Z,10,GR86-063-113,-1.3,-1.185,-0.219,39.14,2.0,,66.305,66.305,157.0
2025-08-15T03:36:37.550Z,10,GR86-063-113,-3.5,-1.152,-0.228,40.22,2.0,,66.99,67.58500000000001,
2025-08-15T03:36:37.595Z,10,GR86-063-113,-4.2,-1.148,-0.137,4.54,2.0,,71.86,73.54,
2025-08-15T03:36:37.637Z,10,GR86-063-113,-3.8,-1.386,-0.384,4.07,2.0,,75.125,76.53,
2025-08-15T03:36:37.680Z,10,GR86-063-113,-2.8000000000000003,-1.433,-0.23,3.8,2.0,6862.0,77.11,78.205,
2025-08-15T03:36:37.725Z,10,GR86-063-113,-0.6000000000000001,-1.144,-0.213,3.58,2.0,,78.985,80.71000000000001,147.78
2025-08-15T03:36:37.768Z,10,GR86-063-113,2.8000000000000003,-1.184,-0.52,3.37,2.0,,76.71000000000001,77.015,
2025-08-15T03:36:37.811Z,10,GR86-063-113,7.2,-1.387,-0.292,3.1,2.0,,71.705,72.365,
2025-08-15T03:36:37.857Z,10,GR86-063-113,11.1,-1.156,-0.47,2.72,2.0,,69.525,70.545,
2025-08-15T03:36:37.900Z,10,GR86-063-113,11.1,-1.173,-0.607,2.59,2.0,6868.0,67.265,68.09,
2025-08-15T03:36:37.944Z,10,GR86-063-113,8.3,-1.093,-0.338,2.52,2.0,,66.58,68.0,140.04
2025-08-15T03:36:37.986Z,10,GR86-063-113,1.3,-1.031,-0.6880000000000001,2.47,2.0,,65.62,66.455,
2025-08-15T03:36:38.029Z,10,GR86-063-113,-7.7,-1.103,-0.958,2.46,2.0,,62.46,63.495000000000005,
2025-08-15T03:36:38.074Z,10,GR86-063-113,-6.4,-1.053,-0.736,2.44,2.0,,56.875,58.095,
2025-08-15T03:36:38.117Z,10,GR86-063-113,5.5,-0.836,-0.886,2.44,2.0,6524.0,55.24,56.125,
2025-08-15T03:36:38.160Z,10,GR86-063-113,16.8,-1.017,-0.712,2.44,2.0,,53.120000000000005,53.715,133.4
2025-08-15T03:36:38.204Z,10,GR86-063-113,18.5,-0.891,-0.643,2.44,2.0,,49.55,49.825,
2025-08-15T03:36:38.247Z,10,GR86-063-113,15.8,-0.966,-0.647,2.44,2.0,,45.335,46.405,
2025-08-15T03:36:38.290Z,10,GR86-063-113,9.6,-0.875,-0.597,2.44,2.0,,42.27,43.08,
2025-08-15T03:36:38.334Z,10,GR86-063-113,-5.6000000000000005,-0.8260000000000001,-0.744,2.44,2.0,6517.0,32.275,32.75,
2025-08-15T03:36:38.377Z,10,GR86-063-113,-12.4,-0.764,-0.7020000000000001,2.44,2.0,,26.2,27.025,127.0
2025-08-15T03:36:38.420Z,10,GR86-063-113,-21.1,-0.656,-0.76,2.46,2.0,,22.615,23.365,
2025-08-15T03:36:38.465Z,10,GR86-063-113,-31.700000000000003,-0.644,-0.798,2.45,2.0,,19.245,19.7,
2025-08-15T03:36:38.507Z,10,GR86-063-113,-37.4,-0.669,-0.761,2.46,2.0,,18.085,18.77,
2025-08-15T03:36:38.550Z,10,GR86-063-113,-44.7,-0.628,-0.8180000000000001,2.46,2.0,6521.0,18.465,18.83,
2025-08-15T03:36:38.594Z,10,GR86-063-113,-50.7,-0.584,-0.92,2.47,2.0,,18.955,19.395,120.86
2025-08-15T03:36:38.637Z,10,GR86-063-113,-52.6,-0.5710000000000001,-0.92,2.47,2.0,,18.435,19.045,
2025-08-15T03:36:38.680Z,10,GR86-063-113,-52.5,-0.587,-0.989,2.47,2.0,,18.085,18.495,
2025-08-15T03:36:38.726Z,10,GR86-063-113,-50.5,-0.61,-1.03,2.46,2.0,,17.580000000000002,18.175,
2025-08-15T03:36:38.769Z,10,GR86-063-113,-37.4,-0.5640000000000001,-1.092,2.47,2.0,6413.0,12.115,12.71,
2025-08-15T03:36:38.814Z,10,GR86-063-113,-25.0,-0.245,-1.09,2.47,2.0,,0.0,0.0,113.57
2025-08-15T03:36:38.857Z,10,GR86-063-113,-21.0,-0.25,-1.042,2.7,2.0,,0.0,0.0,
2025-08-15T03:36:38.900Z,10,GR86-063-113,-23.0,-0.226,-1.105,3.38,2.0,,0.0,0.0,
2025-08-15T03:36:38.944Z,10,GR86-063-113,-27.5,-0.186,-1.121,3.86,2.0,,0.0,0.0,
2025-08-15T03:36:38.986Z,10,GR86-063-113,-33.300000000000004,-0.197,-1.198,4.16,2.0,6146.0,0.0,0.0,
2025-08-15T03:36:39.029Z,10,GR86-063-113,-39.400000000000006,-0.18,-1.217,4.61,2.0,,0.0,0.0,111.84
2025-08-15T03:36:39.074Z,10,GR86-063-113,-48.6,-0.198,-1.247,4.96,2.0,,0.0,0.0,
2025-08-15T03:36:39.117Z,10,GR86-063-113,-53.8,-0.241,-1.257,5.03,2.0,,0.0,0.0,
2025-08-15T03:36:39.160Z,10,GR86-063-113,-58.8,-0.217,-1.26,5.07,2.0,,0.0,0.0,
2025-08-15T03:36:39.204Z,10,GR86-063-113,-64.2,-0.22,-1.232,5.08,2.0,6145.0,0.0,0.0,
2025-08-15T03:36:39.246Z,10,GR86-063-113,-69.2,-0.226,-1.321,5.08,2.0,,0.0,0.0,109.96
2025-08-15T03:36:39.289Z,10,GR86-063-113,-73.10000000000001,-0.216,-1.341,5.09,2.0,,0.0,0.0,
2025-08-15T03:36:39.334Z,10,GR86-063-113,-75.9,-0.23,-1.299,5.08,2.0,,0.0,0.0,
2025-08-15T03:36:39.377Z,10,GR86-063-113,-76.0,-0.25,-1.395,5.16,2.0,,0.0,0.0,
2025-08-15T03:36:39.420Z,10,GR86-063-113,-75.3,-0.225,-1.347,6.62,2.0,5978.0,0.0,0.0,
2025-08-15T03:36:39.506Z,10,GR86-063-113,-69.8,-0.238,-1.428,11.27,2.0,,0.0,0.0,108.57
2025-08-15T03:36:39.549Z,10,GR86-063-113,-51.0,-0.215,-1.382,24.23,2.0,,0.0,0.0,
2025-08-15T03:36:39.595Z,10,GR86-063-113,-37.5,-0.172,-1.381,30.83,2.0,,0.0,0.0,
2025-08-15T03:36:39.637Z,10,GR86-063-113,-30.0,-0.093,-1.261,32.28,2.0,5930.0,0.0,0.0,
2025-08-15T03:36:39.680Z,10,GR86-063-113,-23.700000000000003,-0.115,-1.348,33.76,2.0,,0.0,0.0,107.28
2025-08-15T03:36:39.726Z,10,GR86-063-113,-17.2,0.122,-1.307,34.5,2.0,,0.0,0.0,
2025-08-15T03:36:39.768Z,10,GR86-063-113,-11.9,0.202,-1.201,36.26,2.0,,0.0,0.0,
2025-08-15T03:36:39.811Z,10,GR86-063-113,-8.5,0.182,-1.187,38.43,2.0,,0.0,0.0,
2025-08-15T03:36:39.854Z,10,GR86-063-113,-5.7,0.243,-1.279,39.44,2.0,6279.0,0.0,0.0,
2025-08-15T03:36:39.897Z,10,GR86-063-113,-3.4000000000000004,0.26,-1.208,39.44,2.0,,0.0,0.0,106.04
2025-08-15T03:36:39.940Z,10,GR86-063-113,-2.8000000000000003,0.221,-1.108,39.3,2.0,,0.0,0.0,
2025-08-15T03:36:39.984Z,10,GR86-063-113,-3.4000000000000004,0.049,-0.995,39.3,2.0,,0.0,0.0,
2025-08-15T03:36:40.027Z,10,GR86-063-113,-6.4,0.001,-1.013,39.34,2.0,,0.0,0.0,
2025-08-15T03:36:40.070Z,10,GR86-063-113,-12.9,-0.002,-1.068,39.22,2.0,6265.0,0.0,0.0,
2025-08-15T03:36:40.115Z,10,GR86-063-113,-25.5,-0.033,-1.019,39.23,2.0,,0.0,0.0,105.86
2025-08-15T03:36:40.158Z,10,GR86-063-113,-34.9,-0.088,-1.004,39.72,2.0,,0.0,0.0,
2025-08-15T03:36:40.201Z,10,GR86-063-113,-42.2,0.004,-1.023,40.87,2.0,,0.0,0.0,
2025-08-15T03:36:40.244Z,10,GR86-063-113,-47.7,0.057,-1.092,45.01,2.0,,0.0,0.0,
2025-08-15T03:36:40.287Z,10,GR86-063-113,-53.1,0.252,-1.204,47.96,2.0,6417.0,0.0,0.0,
2025-08-15T03:36:40.330Z,10,GR86-063-113,-57.8,0.35,-1.413,49.56,2.0,,0.0,0.0,106.22
2025-08-15T03:36:40.374Z,10,GR86-063-113,-65.4,-0.067,-1.05,83.13,2.0,,0.0,0.0,
2025-08-15T03:36:40.417Z,10,GR86-063-113,-67.0,0.203,-1.038,99.89,2.0,,0.0,0.0,
2025-08-15T03:36:40.460Z,10,GR86-063-113,-63.7,0.175,-1.014,99.81,2.0,,0.0,0.0,
2025-08-15T03:36:40.504Z,10,GR86-063-113,-50.7,0.38,-1.224,99.82,2.0,6344.0,0.0,0.0,
2025-08-15T03:36:40.546Z,10,GR86-063-113,-35.6,0.51,-1.277,99.82,2.0,,0.0,0.0,106.57
2025-08-15T03:36:40.589Z,10,GR86-063-113,-27.5,0.18,-1.16,99.83,2.0,,0.0,0.0,
2025-08-15T03:36:40.633Z,10,GR86-063-113,-33.0,0.204,-1.17,99.84,2.0,,0.0,0.0,
2025-08-15T03:36:40.676Z,10,GR86-063-113,-44.400000000000006,0.302,-1.143,99.84,2.0,,0.0,0.0,
2025-08-15T03:36:40.719Z,10,GR86-063-113,-55.2,0.248,-1.078,99.82,2.0,6399.0,0.0,0.0,
2025-08-15T03:36:40.764Z,10,GR86-063-113,-61.1,0.235,-1.1,99.82,2.0,,0.0,0.0,107.58
2025-08-15T03:36:40.807Z,10,GR86-063-113,-61.6,0.178,-1.066,99.84,2.0,,0.0,0.0,
2025-08-15T03:36:40.850Z,10,GR86-063-113,-61.400000000000006,0.158,-1.086,99.83,2.0,,0.0,0.0,
2025-08-15T03:36:40.894Z,10,GR86-063-113,-60.900000000000006,0.202,-1.114,99.84,2.0,,0.0,0.0,
2025-08-15T03:36:40.937Z,10,GR86-063-113,-59.6,0.219,-1.09,99.84,2.0,6462.0,0.0,0.0,
2025-08-15T03:36:40.980Z,10,GR86-063-113,-55.3,0.223,-1.077,99.85,2.0,,0.0,0.0,109.31
2025-08-15T03:36:41.025Z,10,GR86-063-113,-46.900000000000006,0.203,-1.128,99.85,2.0,,0.0,0.0,
2025-08-15T03:36:41.111Z,10,GR86-063-113,-34.6,0.207,-1.15,99.85,2.0,,0.0,0.0,
2025-08-15T03:36:41.197Z,10,GR86-063-113,-16.0,0.25,-1.193,99.85,2.0,6586.0,0.0,0.0,110.19
2025-08-15T03:36:41.240Z,10,GR86-063-113,-18.1,0.259,-1.252,99.85,2.0,,0.0,0.0,
2025-08-15T03:36:41.284Z,10,GR86-063-113,-20.9,0.232,-1.19,99.86,2.0,,0.0,0.0,
2025-08-15T03:36:41.327Z,10,GR86-063-113,-21.6,0.255,-1.102,99.86,2.0,,0.0,0.0,
2025-08-15T03:36:41.370Z,10,GR86-063-113,-20.3,0.235,-1.11,99.85,2.0,6667.0,0.0,0.0,
2025-08-15T03:36:41.414Z,10,GR86-063-113,-20.200000000000003,0.19,-1.124,99.85,2.0,,0.0,0.0,113.15
2025-08-15T03:36:41.457Z,10,GR86-063-113,-24.0,0.218,-1.141,99.86,2.0,,0.0,0.0,
2025-08-15T03:36:41.500Z,10,GR86-063-113,-30.200000000000003,0.246,-1.129,99.86,2.0,,0.0,0.0,
2025-08-15T03:36:41.544Z,10,GR86-063-113,-34.4,0.188,-1.043,99.86,2.0,,0.0,0.0,
2025-08-15T03:36:41.586Z,10,GR86-063-113,-34.6,0.163,-1.139,99.85,2.0,6716.0,0.0,0.0,
2025-08-15T03:36:41.629Z,10,GR86-063-113,-32.6,0.159,-1.176,99.86,2.0,,0.0,0.0,113.1
2025-08-15T03:36:41.674Z,10,GR86-063-113,-30.6,0.223,-1.131,99.85,2.0,,0.0,0.0,
2025-08-15T03:36:41.717Z,10,GR86-063-113,-29.6,0.22,-1.108,99.85,2.0,,0.0,0.0,
2025-08-15T03:36:41.760Z,10,GR86-063-113,-27.700000000000003,0.23,-1.066,99.85,2.0,,0.0,0.0,
2025-08-15T03:36:41.804Z,10,GR86-063-113,-25.1,0.22,-1.101,99.84,2.0,6909.0,0.0,0.0,
2025-08-15T03:36:41.847Z,10,GR86-063-113,-22.0,0.207,-1.138,99.86,2.0,,0.0,0.0,115.15
2025-08-15T03:36:41.890Z,10,GR86-063-113,-19.0,0.236,-1.173,99.85,2.0,,0.0,0.0,
2025-08-15T03:36:41.934Z,10,GR86-063-113,-16.5,0.248,-1.193,99.86,2.0,,0.0,0.0,
2025-08-15T03:36:41.977Z,10,GR86-063-113,-15.9,0.258,-1.209,99.86,2.0,,0.0,0.0,
2025-08-15T03:36:42.020Z,10,GR86-063-113,-15.1,0.269,-1.163,99.85,2.0,7126.0,0.0,0.0,
2025-08-15T03:36:42.065Z,10,GR86-063-113,-13.9,0.272,-1.171,99.87,2.0,,0.0,0.0,116.64
2025-08-15T03:36:42.107Z,10,GR86-063-113,-12.2,0.252,-1.104,99.84,2.0,,0.0,0.0,
2025-08-15T03:36:42.150Z,10,GR86-063-113,-9.2,0.194,-1.172,99.86,2.0,,0.0,0.0,
2025-08-15T03:36:42.194Z,10,GR86-063-113,-3.1,0.185,-1.069,99.86,2.0,,0.0,0.0,
2025-08-15T03:36:42.237Z,10,GR86-063-113,-0.6000000000000001,0.17,-1.035,99.84,2.0,7112.0,0.0,0.0,
2025-08-15T03:36:42.280Z,10,GR86-063-113,-0.2,0.202,-0.888,99.85,2.0,,0.0,0.0,118.01
2025-08-15T03:36:42.326Z,10,GR86-063-113,-5.4,0.158,-0.789,99.85,2.0,,0.0,0.0,
2025-08-15T03:36:42.369Z,10,GR86-063-113,-13.8,0.167,-1.032,99.85,2.0,,0.0,0.0,
2025-08-15T03:36:42.414Z,10,GR86-063-113,-22.5,0.187,-1.042,99.85,2.0,,0.0,0.0,
2025-08-15T03:36:42.457Z,10,GR86-063-113,-22.5,0.209,-1.148,99.85,2.0,7098.0,0.0,0.0,
2025-08-15T03:36:42.500Z,10,GR86-063-113,-18.2,0.181,-1.264,99.86,2.0,,0.0,0.0,118.61
2025-08-15T03:36:42.544Z,10,GR86-063-113,-13.3,0.385,-1.12,99.86,2.0,,0.0,0.0,
2025-08-15T03:36:42.586Z,10,GR86-063-113,-9.5,0.387,-1.204,99.85,2.0,,0.0,0.0,
2025-08-15T03:36:42.629Z,10,GR86-063-113,-8.5,0.329,-0.97,99.86,2.0,,0.0,0.0,
2025-08-15T03:36:42.674Z,10,GR86-063-113,-9.2,0.112,-0.799,99.85,2.0,7113.0,0.0,0.0,
2025-08-15T03:36:42.717Z,10,GR86-063-113,-9.3,0.076,-0.744,99.86,2.0,,0.0,0.0,119.52
2025-08-15T03:36:42.760Z,10,GR86-063-113,-9.5,0.122,-0.608,99.85,2.0,,0.0,0.0,
2025-08-15T03:36:42.804Z,10,GR86-063-113,-9.4,0.095,-0.865,99.86,2.0,,0.0,0.0,
2025-08-15T03:36:42.846Z,10,GR86-063-113,-8.8,0.091,-0.776,99.85,2.0,,0.0,0.0,
2025-08-15T03:36:42.889Z,10,GR86-063-113,-8.4,0.184,-0.935,99.86,2.0,7212.0,0.0,0.0,
2025-08-15T03:36:42.934Z,10,GR86-063-113,-7.800000000000001,-0.09,-0.524,99.87,3.0,,0.0,0.0,121.07
2025-08-15T03:36:42.977Z,10,GR86-063-113,-8.0,0.406,-0.502,99.86,3.0,,0.0,0.0,
2025-08-15T03:36:43.020Z,10,GR86-063-113,-8.3,0.291,-0.5670000000000001,99.87,3.0,,0.0,0.0,
2025-08-15T03:36:43.064Z,10,GR86-063-113,-8.700000000000001,0.13,-0.465,99.86,3.0,,0.0,0.0,
2025-08-15T03:36:43.106Z,10,GR86-063-113,-9.9,-0.041,-0.4,99.86,3.0,6355.0,0.0,0.0,
2025-08-15T03:36:43.149Z,10,GR86-063-113,-12.0,0.11,-0.445,99.86,3.0,,0.0,0.0,122.89
2025-08-15T03:36:43.194Z,10,GR86-063-113,-11.8,0.157,-0.348,99.85,3.0,,0.0,0.0,
2025-08-15T03:36:43.237Z,10,GR86-063-113,-8.1,0.172,-0.438,99.87,3.0,,0.0,0.0,
2025-08-15T03:36:43.280Z,10,GR86-063-113,-2.3000000000000003,0.206,-0.338,99.87,3.0,,0.0,0.0,
2025-08-15T03:36:43.326Z,10,GR86-063-113,0.7000000000000001,0.101,-0.388,99.85,3.0,5956.0,0.0,0.0,
2025-08-15T03:36:43.368Z,10,GR86-063-113,1.8,0.133,-0.174,99.89,3.0,,0.0,0.0,124.19
2025-08-15T03:36:43.411Z,10,GR86-063-113,2.4000000000000004,0.071,-0.332,99.88,3.0,,0.0,0.0,
2025-08-15T03:36:43.454Z,10,GR86-063-113,2.5,0.276,-0.303,99.88,3.0,,0.0,0.0,
2025-08-15T03:36:43.497Z,10,GR86-063-113,1.9,0.227,-0.236,99.87,3.0,,0.0,0.0,
2025-08-15T03:36:43.540Z,10,GR86-063-113,1.5,0.047,-0.056,99.87,3.0,6060.0,0.0,0.0,
2025-08-15T03:36:43.584Z,10,GR86-063-113,1.8,0.095,-0.02,99.89,3.0,,0.0,0.0,126.24
2025-08-15T03:36:43.627Z,10,GR86-063-113,4.6000000000000005,0.08,0.031,99.89,3.0,,0.0,0.0,
2025-08-15T03:36:43.670Z,10,GR86-063-113,6.300000000000001,0.267,0.074,99.85,3.0,,0.0,0.0,
2025-08-15T03:36:43.715Z,10,GR86-063-113,6.2,0.064,0.084,99.87,3.0,,0.0,0.0,
2025-08-15T03:36:43.758Z,10,GR86-063-113,6.0,0.148,0.106,99.88,3.0,6060.0,0.0,0.0,
2025-08-15T03:36:43.801Z,10,GR86-063-113,6.2,0.245,0.177,99.86,3.0,,0.0,0.0,127.45
2025-08-15T03:36:43.844Z,10,GR86-063-113,6.5,0.38,-0.223,99.86,3.0,,0.0,0.0,
2025-08-15T03:36:43.887Z,10,GR86-063-113,5.800000000000001,0.273,-0.032,99.87,3.0,,0.0,0.0,
2025-08-15T03:36:43.930Z,10,GR86-063-113,4.6000000000000005,0.158,0.045,99.88,3.0,,0.0,0.0,
2025-08-15T03:36:43.974Z,10,GR86-063-113,4.4,0.173,0.167,99.88,3.0,6374.0,0.0,0.0,
2025-08-15T03:36:44.017Z,10,GR86-063-113,4.9,0.299,0.139,99.88,3.0,,0.0,0.0,130.54
2025-08-15T03:36:44.060Z,10,GR86-063-113,4.9,0.253,0.135,99.87,3.0,,0.0,0.0,
2025-08-15T03:36:44.104Z,10,GR86-063-113,4.9,0.217,0.103,99.86,3.0,,0.0,0.0,
2025-08-15T03:36:44.146Z,10,GR86-063-113,4.800000000000001,0.207,0.09,99.86,3.0,,0.0,0.0,
2025-08-15T03:36:44.189Z,10,GR86-063-113,4.7,0.175,0.046,99.87,3.0,6214.0,0.0,0.0,
2025-08-15T03:36:44.233Z,10,GR86-063-113,4.7,0.267,0.002,99.86,3.0,,0.0,0.0,131.82
2025-08-15T03:36:44.277Z,10,GR86-063-113,4.7,0.201,0.0,99.89,3.0,,0.0,0.0,
2025-08-15T03:36:44.320Z,10,GR86-063-113,4.7,0.216,0.006,99.89,3.0,,0.0,0.0,
2025-08-15T03:36:44.364Z,10,GR86-063-113,4.800000000000001,0.211,0.04,99.88,3.0,,0.0,0.0,
2025-08-15T03:36:44.407Z,10,GR86-063-113,4.800000000000001,0.199,0.016,99.87,3.0,6213.0,0.0,0.0,
2025-08-15T03:36:44.450Z,10,GR86-063-113,4.800000000000001,0.183,0.013,99.87,3.0,,0.0,0.0,133.38
2025-08-15T03:36:44.494Z,10,GR86-063-113,4.800000000000001,0.19,-0.002,99.86,3.0,,0.0,0.0,
2025-08-15T03:36:44.537Z,10,GR86-063-113,4.800000000000001,0.183,0.016,99.87,3.0,,0.0,0.0,
2025-08-15T03:36:44.580Z,10,GR86-063-113,4.9,0.216,0.012,99.86,3.0,,0.0,0.0,
2025-08-15T03:36:44.625Z,10,GR86-063-113,4.9,0.225,-0.007,99.87,3.0,6332.0,0.0,0.0,
2025-08-15T03:36:44.668Z,10,GR86-063-113,4.9,0.193,0.007,99.86,3.0,,0.0,0.0,134.89
2025-08-15T03:36:44.711Z,10,GR86-063-113,4.9,0.187,0.002,99.88,3.0,,0.0,0.0,
2025-08-15T03:36:44.754Z,10,GR86-063-113,4.9,0.159,0.005,99.88,3.0,,0.0,0.0,
2025-08-15T03:36:44.797Z,10,GR86-063-113,4.9,0.224,0.011,99.86,3.0,,0.0,0.0,
2025-08-15T03:36:44.840Z,10,GR86-063-113,4.800000000000001,0.226,0.007,99.87,3.0,6406.0,0.0,0.0,
2025-08-15T03:36:44.884Z,10,GR86-063-113,4.7,0.196,-0.011,99.85,3.0,,0.0,0.0,136.47
2025-08-15T03:36:44.927Z,10,GR86-063-113,4.7,0.15,-0.014,99.87,3.0,,0.0,0.0,
2025-08-15T03:36:44.970Z,10,GR86-063-113,4.7,0.216,0.006,99.88,3.0,,0.0,0.0,
2025-08-15T03:36:45.014Z,10,GR86-063-113,4.6000000000000005,0.181,-0.005,99.88,3.0,,0.0,0.0,
2025-08-15T03:36:45.057Z,10,GR86-063-113,4.3,0.22,-0.016,99.85,3.0,6460.0,0.0,0.0,
2025-08-15T03:36:45.100Z,10,GR86-063-113,4.1000000000000005,0.232,-0.026,99.87,3.0,,0.0,0.0,137.89
2025-08-15T03:36:45.144Z,10,GR86-063-113,3.9,0.182,-0.045,99.88,3.0,,0.0,0.0,
2025-08-15T03:36:45.186Z,10,GR86-063-113,3.7,0.165,-0.036,99.87,3.0,,0.0,0.0,
2025-08-15T03:36:45.229Z,10,GR86-063-113,3.4000000000000004,0.216,-0.055,99.87,3.0,,0.0,0.0,
2025-08-15T03:36:45.274Z,10,GR86-063-113,3.1,0.173,-0.053,99.86,3.0,6532.0,0.0,0.0,
2025-08-15T03:36:45.317Z,10,GR86-063-113,3.1,0.247,-0.071,99.88,3.0,,0.0,0.0,139.24
2025-08-15T03:36:45.360Z,10,GR86-063-113,2.9000000000000004,0.235,-0.082,99.87,3.0,,0.0,0.0,
2025-08-15T03:36:45.404Z,10,GR86-063-113,2.5,0.189,-0.1,99.87,3.0,,0.0,0.0,
2025-08-15T03:36:45.447Z,10,GR86-063-113,2.4000000000000004,0.123,-0.09,99.87,3.0,,0.0,0.0,
2025-08-15T03:36:45.490Z,10,GR86-063-113,2.4000000000000004,0.217,-0.086,99.86,3.0,6596.0,0.0,0.0,
2025-08-15T03:36:45.534Z,10,GR86-063-113,2.6,0.162,-0.113,99.89,3.0,,0.0,0.0,140.75
2025-08-15T03:36:45.577Z,10,GR86-063-113,2.7,0.229,-0.112,99.88,3.0,,0.0,0.0,
2025-08-15T03:36:45.620Z,10,GR86-063-113,2.7,0.236,-0.127,99.86,3.0,,0.0,0.0,
2025-08-15T03:36:45.665Z,10,GR86-063-113,2.8000000000000003,0.19,-0.128,99.85,3.0,,0.0,0.0,
2025-08-15T03:36:45.707Z,10,GR86-063-113,2.9000000000000004,0.152,-0.082,99.86,3.0,6664.0,0.0,0.0,
2025-08-15T03:36:45.750Z,10,GR86-063-113,3.4000000000000004,0.164,-0.052,99.85,3.0,,0.0,0.0,142.18
2025-08-15T03:36:45.794Z,10,GR86-063-113,3.7,0.142,-0.039,99.89,3.0,,0.0,0.0,
2025-08-15T03:36:45.837Z,10,GR86-063-113,3.9,0.181,-0.016,99.88,3.0,,0.0,0.0,
2025-08-15T03:36:45.880Z,10,GR86-063-113,4.2,0.236,-0.01,99.88,3.0,,0.0,0.0,
2025-08-15T03:36:45.926Z,10,GR86-063-113,4.4,0.23,-0.017,99.88,3.0,6727.0,0.0,0.0,
2025-08-15T03:36:45.969Z,10,GR86-063-113,4.3,0.172,-0.005,99.85,3.0,,0.0,0.0,143.62
2025-08-15T03:36:46.014Z,10,GR86-063-113,4.2,0.234,0.001,99.86,3.0,,0.0,0.0,
2025-08-15T03:36:46.057Z,10,GR86-063-113,4.2,0.17,0.013,99.88,3.0,,0.0,0.0,
2025-08-15T03:36:46.100Z,10,GR86-063-113,4.3,0.142,0.028,99.88,3.0,,0.0,0.0,
2025-08-15T03:36:46.144Z,10,GR86-063-113,4.4,0.193,0.037,99.86,3.0,6796.0,0.0,0.0,
2025-08-15T03:36:46.186Z,10,GR86-063-113,4.3,0.236,0.024,99.88,3.0,,0.0,0.0,144.99
2025-08-15T03:36:46.229Z,10,GR86-063-113,4.1000000000000005,0.23,-0.009,99.87,3.0,,0.0,0.0,
2025-08-15T03:36:46.274Z,10,GR86-063-113,4.1000000000000005,0.236,0.013,99.88,3.0,,0.0,0.0,
2025-08-15T03:36:46.317Z,10,GR86-063-113,4.0,0.232,-0.023,99.88,3.0,,0.0,0.0,
2025-08-15T03:36:46.360Z,10,GR86-063-113,4.0,0.187,-0.017,99.87,3.0,6852.0,0.0,0.0,
2025-08-15T03:36:46.404Z,10,GR86-063-113,3.8,0.155,-0.023,99.87,3.0,,0.0,0.0,146.35
2025-08-15T03:36:46.446Z,10,GR86-063-113,3.4000000000000004,0.152,-0.027,99.87,3.0,,0.0,0.0,
2025-08-15T03:36:46.489Z,10,GR86-063-113,3.1,0.215,-0.039,99.88,3.0,,0.0,0.0,
2025-08-15T03:36:46.534Z,10,GR86-063-113,2.9000000000000004,0.158,-0.06,99.86,3.0,,0.0,0.0,
2025-08-15T03:36:46.577Z,10,GR86-063-113,2.9000000000000004,0.194,-0.042,99.87,3.0,6917.0,0.0,0.0,
2025-08-15T03:36:46.620Z,10,GR86-063-113,2.9000000000000004,0.229,-0.088,99.89,3.0,,0.0,0.0,149.09
2025-08-15T03:36:46.664Z,10,GR86-063-113,2.7,0.219,-0.128,99.87,3.0,,0.0,0.0,
2025-08-15T03:36:46.706Z,10,GR86-063-113,2.5,0.166,-0.142,99.86,3.0,,0.0,0.0,
2025-08-15T03:36:46.749Z,10,GR86-063-113,2.7,0.141,-0.115,99.88,3.0,,0.0,0.0,
2025-08-15T03:36:46.794Z,10,GR86-063-113,3.0,0.203,-0.128,99.88,3.0,6982.0,0.0,0.0,
2025-08-15T03:36:46.837Z,10,GR86-063-113,3.1,0.151,-0.091,99.88,3.0,,0.0,0.0,150.4
2025-08-15T03:36:46.880Z,10,GR86-063-113,3.1,0.143,-0.051,99.88,3.0,,0.0,0.0,
2025-08-15T03:36:46.926Z,10,GR86-063-113,3.2,0.17,-0.057,99.88,3.0,,0.0,0.0,
2025-08-15T03:36:46.968Z,10,GR86-063-113,3.2,0.215,-0.068,99.89,3.0,,0.0,0.0,
2025-08-15T03:36:47.011Z,10,GR86-063-113,3.3000000000000003,0.207,-0.074,99.87,3.0,7052.0,0.0,0.0,
2025-08-15T03:36:47.054Z,10,GR86-063-113,3.4000000000000004,0.188,-0.038,99.88,3.0,,0.0,0.0,151.62
2025-08-15T03:36:47.097Z,10,GR86-063-113,3.4000000000000004,0.213,-0.062,99.89,3.0,,0.0,0.0,
2025-08-15T03:36:47.140Z,10,GR86-063-113,3.4000000000000004,0.198,-0.061,99.87,3.0,,0.0,0.0,
2025-08-15T03:36:47.184Z,10,GR86-063-113,3.3000000000000003,0.159,-0.052,99.88,3.0,,0.0,0.0,
2025-08-15T03:36:47.227Z,10,GR86-063-113,3.4000000000000004,0.144,-0.02,99.87,3.0,7155.0,0.0,0.0,
2025-08-15T03:36:47.270Z,10,GR86-063-113,3.5,0.165,-0.003,99.88,3.0,,0.0,0.0,152.92000000000002
2025-08-15T03:36:47.315Z,10,GR86-063-113,3.8,0.162,-0.029,99.85,3.0,,0.0,0.0,
2025-08-15T03:36:47.358Z,10,GR86-063-113,3.9,0.147,-0.006,99.87,3.0,,0.0,0.0,
2025-08-15T03:36:47.401Z,10,GR86-063-113,3.9,0.155,-0.004,99.88,3.0,,0.0,0.0,
2025-08-15T03:36:47.444Z,10,GR86-063-113,4.1000000000000005,0.186,0.005,99.88,3.0,7207.0,0.0,0.0,
2025-08-15T03:36:47.487Z,10,GR86-063-113,4.2,0.195,-0.015,99.87,3.0,,0.0,0.0,154.16
2025-08-15T03:36:47.530Z,10,GR86-063-113,4.4,0.191,-0.012,99.88,3.0,,0.0,0.0,
2025-08-15T03:36:47.574Z,10,GR86-063-113,4.4,0.172,0.036,99.85,3.0,,0.0,0.0,
2025-08-15T03:36:47.617Z,10,GR86-063-113,4.4,0.188,0.019,99.88,3.0,,0.0,0.0,
2025-08-15T03:36:47.660Z,10,GR86-063-113,4.4,0.184,0.001,99.88,3.0,7257.0,0.0,0.0,
2025-08-15T03:36:47.704Z,10,GR86-063-113,4.4,0.168,0.008,99.86,3.0,,0.0,0.0,155.28
2025-08-15T03:36:47.746Z,10,GR86-063-113,4.5,0.14,0.013,99.89,3.0,,0.0,0.0,
2025-08-15T03:36:47.789Z,10,GR86-063-113,4.6000000000000005,0.043,0.023,99.85,4.0,,0.0,0.0,
2025-08-15T03:36:47.834Z,10,GR86-063-113,4.4,0.101,0.043,99.87,4.0,,0.0,0.0,
2025-08-15T03:36:47.876Z,10,GR86-063-113,4.5,0.501,-0.035,99.87,4.0,7020.0,0.0,0.0,
2025-08-15T03:36:47.919Z,10,GR86-063-113,4.6000000000000005,0.241,0.002,99.88,4.0,,0.0,0.0,156.46
2025-08-15T03:36:47.964Z,10,GR86-063-113,4.4,0.012,0.092,99.87,4.0,,0.0,0.0,
2025-08-15T03:36:48.007Z,10,GR86-063-113,4.4,0.039,-0.022,99.86,4.0,,0.0,0.0,
2025-08-15T03:36:48.050Z,10,GR86-063-113,4.5,0.21,0.003,99.87,4.0,,0.0,0.0,
2025-08-15T03:36:48.094Z,10,GR86-063-113,4.7,0.164,0.051,99.85,4.0,6186.0,0.0,0.0,
2025-08-15T03:36:48.137Z,10,GR86-063-113,4.800000000000001,0.102,0.012,99.88,4.0,,0.0,0.0,157.53
2025-08-15T03:36:48.180Z,10,GR86-063-113,4.9,0.136,0.068,99.86,4.0,,0.0,0.0,
2025-08-15T03:36:48.225Z,10,GR86-063-113,5.0,0.179,0.001,99.88,4.0,,0.0,0.0,
2025-08-15T03:36:48.268Z,10,GR86-063-113,5.300000000000001,0.167,0.006,99.85,4.0,,0.0,0.0,
2025-08-15T03:36:48.311Z,10,GR86-063-113,5.4,0.126,0.03,99.87,4.0,6269.0,0.0,0.0,
2025-08-15T03:36:48.354Z,10,GR86-063-113,5.300000000000001,0.157,0.051,99.88,4.0,,0.0,0.0,158.66
2025-08-15T03:36:48.397Z,10,GR86-063-113,5.2,0.16,0.044,99.87,4.0,,0.0,0.0,
2025-08-15T03:36:48.440Z,10,GR86-063-113,5.2,0.155,0.041,99.87,4.0,,0.0,0.0,
2025-08-15T03:36:48.484Z,10,GR86-063-113,5.300000000000001,0.129,0.045,99.89,4.0,,0.0,0.0,
2025-08-15T03:36:48.527Z,10,GR86-063-113,5.300000000000001,0.125,0.058,99.89,4.0,6283.0,0.0,0.0,
2025-08-15T03:36:48.570Z,10,GR86-063-113,5.4,0.127,0.065,99.86,4.0,,0.0,0.0,159.67000000000002
2025-08-15T03:36:48.614Z,10,GR86-063-113,5.300000000000001,0.14,0.027,99.88,4.0,,0.0,0.0,
2025-08-15T03:36:48.657Z,10,GR86-063-113,5.2,0.118,0.045,99.85,4.0,,0.0,0.0,
2025-08-15T03:36:48.700Z,10,GR86-063-113,5.1000000000000005,0.121,0.03,99.88,4.0,,0.0,0.0,
2025-08-15T03:36:48.744Z,10,GR86-063-113,5.1000000000000005,0.122,0.048,99.85,4.0,6311.0,0.0,0.0,
2025-08-15T03:36:48.786Z,10,GR86-063-113,5.2,0.14,0.048,99.89,4.0,,0.0,0.0,160.74
2025-08-15T03:36:48.829Z,10,GR86-063-113,5.2,0.155,0.045,99.88,4.0,,0.0,0.0,
2025-08-15T03:36:48.874Z,10,GR86-063-113,5.0,0.127,0.046,99.89,4.0,,0.0,0.0,
2025-08-15T03:36:48.917Z,10,GR86-063-113,5.0,0.117,0.062,99.88,4.0,,0.0,0.0,
2025-08-15T03:36:48.960Z,10,GR86-063-113,5.0,0.14,0.048,99.86,4.0,6355.0,0.0,0.0,
2025-08-15T03:36:49.004Z,10,GR86-063-113,4.9,0.163,0.051,99.89,4.0,,0.0,0.0,161.64
2025-08-15T03:36:49.047Z,10,GR86-063-113,4.9,0.152,0.015,99.87,4.0,,0.0,0.0,
2025-08-15T03:36:49.090Z,10,GR86-063-113,4.800000000000001,0.158,0.011,99.87,4.0,,0.0,0.0,
2025-08-15T03:36:49.134Z,10,GR86-063-113,4.3,0.125,0.011,99.89,4.0,,0.0,0.0,
2025-08-15T03:36:49.177Z,10,GR86-063-113,4.2,0.139,0.022,99.86,4.0,6403.0,0.0,0.0,
2025-08-15T03:36:49.220Z,10,GR86-063-113,4.1000000000000005,0.154,0.005,99.88,4.0,,0.0,0.0,163.55
2025-08-15T03:36:49.265Z,10,GR86-063-113,4.1000000000000005,0.159,-0.011,99.86,4.0,,0.0,0.0,
2025-08-15T03:36:49.307Z,10,GR86-063-113,4.2,0.16,-0.022,99.88,4.0,,0.0,0.0,
2025-08-15T03:36:49.394Z,10,GR86-063-113,4.2,0.121,-0.047,99.89,4.0,6434.0,0.0,0.0,
2025-08-15T03:36:49.437Z,10,GR86-063-113,3.7,0.159,-0.024,99.88,4.0,,0.0,0.0,164.59
2025-08-15T03:36:49.480Z,10,GR86-063-113,3.6,0.16,-0.045,99.86,4.0,,0.0,0.0,
2025-08-15T03:36:49.526Z,10,GR86-063-113,3.6,0.158,-0.056,99.88,4.0,,0.0,0.0,
2025-08-15T03:36:49.569Z,10,GR86-063-113,3.7,0.132,-0.063,99.86,4.0,,0.0,0.0,
2025-08-15T03:36:49.614Z,10,GR86-063-113,3.8,0.136,-0.018,99.87,4.0,6506.0,0.0,0.0,
2025-08-15T03:36:49.657Z,10,GR86-063-113,3.9,0.164,-0.008,99.88,4.0,,0.0,0.0,165.63
2025-08-15T03:36:49.700Z,10,GR86-063-113,3.7,0.153,-0.015,99.89,4.0,,0.0,0.0,
2025-08-15T03:36:49.744Z,10,GR86-063-113,3.6,0.135,-0.027,99.86,4.0,,0.0,0.0,
2025-08-15T03:36:49.786Z,10,GR86-063-113,3.3000000000000003,0.146,-0.059,99.85,4.0,,0.0,0.0,
2025-08-15T03:36:49.829Z,10,GR86-063-113,2.8000000000000003,0.122,-0.057,99.88,4.0,6552.0,0.0,0.0,
2025-08-15T03:36:49.874Z,10,GR86-063-113,1.8,0.15,-0.037,99.87,4.0,,0.0,0.0,166.61
2025-08-15T03:36:49.917Z,10,GR86-063-113,1.2000000000000002,0.155,-0.06,99.87,4.0,,0.0,0.0,
2025-08-15T03:36:49.960Z,10,GR86-063-113,0.9,0.143,-0.087,99.87,4.0,,0.0,0.0,
2025-08-15T03:36:50.004Z,10,GR86-063-113,0.9,0.162,-0.104,99.85,4.0,,0.0,0.0,
2025-08-15T03:36:50.047Z,10,GR86-063-113,1.0,0.105,-0.15,99.86,4.0,6586.0,0.0,0.0,
2025-08-15T03:36:50.090Z,10,GR86-063-113,1.2000000000000002,0.112,-0.128,99.85,4.0,,0.0,0.0,167.69
2025-08-15T03:36:50.134Z,10,GR86-063-113,1.3,0.168,-0.121,99.86,4.0,,0.0,0.0,
2025-08-15T03:36:50.177Z,10,GR86-063-113,1.3,0.166,-0.123,99.85,4.0,,0.0,0.0,
2025-08-15T03:36:50.220Z,10,GR86-063-113,1.3,0.171,-0.117,99.88,4.0,,0.0,0.0,
2025-08-15T03:36:50.264Z,10,GR86-063-113,1.3,0.12,-0.136,99.88,4.0,6630.0,0.0,0.0,
2025-08-15T03:36:50.306Z,10,GR86-063-113,1.3,0.122,-0.125,99.86,4.0,,0.0,0.0,168.63
2025-08-15T03:36:50.349Z,10,GR86-063-113,1.2000000000000002,0.136,-0.141,99.86,4.0,,0.0,0.0,
2025-08-15T03:36:50.394Z,10,GR86-063-113,1.0,0.145,-0.107,99.86,4.0,,0.0,0.0,
2025-08-15T03:36:50.437Z,10,GR86-063-113,1.0,0.16,-0.13,99.88,4.0,,0.0,0.0,
2025-08-15T03:36:50.480Z,10,GR86-063-113,1.0,0.153,-0.133,99.88,4.0,6663.0,0.0,0.0,
2025-08-15T03:36:50.526Z,10,GR86-063-113,1.1,0.168,-0.134,99.88,4.0,,0.0,0.0,169.6
2025-08-15T03:36:50.569Z,10,GR86-063-113,1.2000000000000002,0.149,-0.13,99.88,4.0,,0.0,0.0,
2025-08-15T03:36:50.615Z,10,GR86-063-113,1.2000000000000002,0.113,-0.128,99.86,4.0,,0.0,0.0,
2025-08-15T03:36:50.658Z,10,GR86-063-113,1.2000000000000002,0.14,-0.109,99.84,4.0,,0.0,0.0,
2025-08-15T03:36:50.701Z,10,GR86-063-113,1.1,0.131,-0.117,99.86,4.0,6707.0,0.0,0.0,
2025-08-15T03:36:50.744Z,10,GR86-063-113,1.1,0.16,-0.125,99.87,4.0,,0.0,0.0,170.62
2025-08-15T03:36:50.787Z,10,GR86-063-113,1.2000000000000002,0.162,-0.128,99.85,4.0,,0.0,0.0,
2025-08-15T03:36:50.830Z,10,GR86-063-113,1.2000000000000002,0.159,-0.136,99.85,4.0,,0.0,0.0,
2025-08-15T03:36:50.874Z,10,GR86-063-113,1.3,0.088,-0.095,99.86,4.0,,0.0,0.0,
2025-08-15T03:36:50.917Z,10,GR86-063-113,1.4,0.097,-0.1,99.86,4.0,6751.0,0.0,0.0,
2025-08-15T03:36:50.960Z,10,GR86-063-113,1.4,0.107,-0.096,99.86,4.0,,0.0,0.0,171.63
2025-08-15T03:36:51.004Z,10,GR86-063-113,1.4,0.121,-0.098,99.88,4.0,,0.0,0.0,
2025-08-15T03:36:51.046Z,10,GR86-063-113,1.4,0.125,-0.086,99.87,4.0,,0.0,0.0,
2025-08-15T03:36:51.089Z,10,GR86-063-113,1.4,0.147,-0.087,99.86,4.0,,0.0,0.0,
2025-08-15T03:36:51.134Z,10,GR86-063-113,1.6,0.093,-0.07,99.87,4.0,6791.0,0.0,0.0,
2025-08-15T03:36:51.177Z,10,GR86-063-113,1.7000000000000002,0.083,-0.085,99.88,4.0,,0.0,0.0,172.73
2025-08-15T03:36:51.220Z,10,GR86-063-113,1.8,0.092,-0.084,99.87,4.0,,0.0,0.0,
2025-08-15T03:36:51.264Z,10,GR86-063-113,2.0,0.092,-0.078,99.87,4.0,,0.0,0.0,
2025-08-15T03:36:51.307Z,10,GR86-063-113,2.3000000000000003,0.083,-0.051,99.85,4.0,,0.0,0.0,
2025-08-15T03:36:51.350Z,10,GR86-063-113,2.6,0.1,-0.054,99.86,4.0,6828.0,0.0,0.0,
2025-08-15T03:36:51.394Z,10,GR86-063-113,2.9000000000000004,0.147,-0.075,99.86,4.0,,0.0,0.0,173.73
2025-08-15T03:36:51.437Z,10,GR86-063-113,2.9000000000000004,0.13,-0.068,99.85,4.0,,0.0,0.0,
2025-08-15T03:36:51.480Z,10,GR86-063-113,2.8000000000000003,0.12,-0.041,99.85,4.0,,0.0,0.0,
2025-08-15T03:36:51.526Z,10,GR86-063-113,2.2,0.111,-0.033,99.88,4.0,,0.0,0.0,
2025-08-15T03:36:51.568Z,10,GR86-063-113,1.4,0.109,-0.034,99.88,4.0,6864.0,0.0,0.0,
2025-08-15T03:36:51.611Z,10,GR86-063-113,0.4,0.103,-0.043,99.85,4.0,,0.0,0.0,174.63
2025-08-15T03:36:51.654Z,10,GR86-063-113,-1.1,0.148,-0.086,99.88,4.0,,0.0,0.0,
2025-08-15T03:36:51.697Z,10,GR86-063-113,-2.0,0.137,-0.147,99.86,4.0,,0.0,0.0,
2025-08-15T03:36:51.740Z,10,GR86-063-113,-3.2,0.152,-0.189,99.87,4.0,,0.0,0.0,
2025-08-15T03:36:51.784Z,10,GR86-063-113,-3.3000000000000003,0.15,-0.231,99.87,4.0,6909.0,0.0,0.0,
2025-08-15T03:36:51.827Z,10,GR86-063-113,-3.2,0.14,-0.278,99.87,4.0,,0.0,0.0,176.74
2025-08-15T03:36:51.870Z,10,GR86-063-113,-3.0,0.15,-0.289,99.87,4.0,,0.0,0.0,
2025-08-15T03:36:51.914Z,10,GR86-063-113,-2.4000000000000004,0.079,-0.296,99.86,4.0,,0.0,0.0,
2025-08-15T03:36:51.957Z,10,GR86-063-113,-1.9,0.091,-0.305,99.85,4.0,,0.0,0.0,
2025-08-15T03:36:52.000Z,10,GR86-063-113,-1.1,0.089,-0.305,99.86,4.0,6941.0,0.0,0.0,
2025-08-15T03:36:52.044Z,10,GR86-063-113,-1.0,0.104,-0.272,99.85,4.0,,0.0,0.0,177.73
2025-08-15T03:36:52.086Z,10,GR86-063-113,-1.1,0.092,-0.259,99.86,4.0,,0.0,0.0,
2025-08-15T03:36:52.129Z,10,GR86-063-113,-1.1,0.102,-0.252,99.87,4.0,,0.0,0.0,
2025-08-15T03:36:52.174Z,10,GR86-063-113,-1.1,0.129,-0.267,99.88,4.0,,0.0,0.0,
2025-08-15T03:36:52.217Z,10,GR86-063-113,-1.3,0.106,-0.249,99.88,4.0,7023.0,0.0,0.0,
2025-08-15T03:36:52.260Z,10,GR86-063-113,-1.2000000000000002,0.12,-0.219,99.88,4.0,,0.0,0.0,178.66
2025-08-15T03:36:52.304Z,10,GR86-063-113,-1.1,0.109,-0.253,99.87,4.0,,0.0,0.0,
2025-08-15T03:36:52.347Z,10,GR86-063-113,-0.8,0.136,-0.239,99.87,4.0,,0.0,0.0,
2025-08-15T03:36:52.390Z,10,GR86-063-113,-0.7000000000000001,0.102,-0.215,99.89,4.0,,0.0,0.0,
2025-08-15T03:36:52.434Z,10,GR86-063-113,-0.6000000000000001,0.107,-0.232,99.87,4.0,7054.0,0.0,0.0,
2025-08-15T03:36:52.477Z,10,GR86-063-113,-0.4,0.141,-0.237,99.88,4.0,,0.0,0.0,179.66
2025-08-15T03:36:52.520Z,10,GR86-063-113,-0.2,0.129,-0.229,99.87,4.0,,0.0,0.0,
2025-08-15T03:36:52.565Z,10,GR86-063-113,0.0,0.134,-0.192,99.88,4.0,,0.0,0.0,
2025-08-15T03:36:52.607Z,10,GR86-063-113,0.1,0.134,-0.194,99.89,4.0,,0.0,0.0,
2025-08-15T03:36:52.650Z,10,GR86-063-113,0.2,0.121,-0.164,99.86,4.0,7095.0,0.0,0.0,
2025-08-15T03:36:52.694Z,10,GR86-063-113,0.4,0.098,-0.165,99.88,4.0,,0.0,0.0,180.73
2025-08-15T03:36:52.737Z,10,GR86-063-113,0.5,0.098,-0.156,99.88,4.0,,0.0,0.0,
2025-08-15T03:36:52.780Z,10,GR86-063-113,0.3,0.091,-0.156,99.86,4.0,,0.0,0.0,
2025-08-15T03:36:52.826Z,10,GR86-063-113,-0.1,0.097,-0.184,99.88,4.0,,0.0,0.0,
2025-08-15T03:36:52.869Z,10,GR86-063-113,-0.5,0.101,-0.173,99.85,4.0,7135.0,0.0,0.0,
2025-08-15T03:36:52.914Z,10,GR86-063-113,-0.8,0.118,-0.152,99.89,4.0,,0.0,0.0,181.6
2025-08-15T03:36:52.957Z,10,GR86-063-113,-0.8,0.13,-0.183,99.86,4.0,,0.0,0.0,
2025-08-15T03:36:53.000Z,10,GR86-063-113,-0.7000000000000001,0.128,-0.185,99.86,4.0,,0.0,0.0,
2025-08-15T03:36:53.044Z,10,GR86-063-113,-0.6000000000000001,0.12,-0.217,99.86,4.0,,0.0,0.0,
2025-08-15T03:36:53.086Z,10,GR86-063-113,-0.5,0.122,-0.211,99.87,4.0,7175.0,0.0,0.0,
2025-08-15T03:36:53.129Z,10,GR86-063-113,-0.5,0.12,-0.228,99.89,4.0,,0.0,0.0,182.55
2025-08-15T03:36:53.174Z,10,GR86-063-113,-0.7000000000000001,0.076,-0.242,99.87,4.0,,0.0,0.0,
2025-08-15T03:36:53.217Z,10,GR86-063-113,-0.6000000000000001,0.105,-0.253,99.89,4.0,,0.0,0.0,
2025-08-15T03:36:53.260Z,10,GR86-063-113,-0.3,0.086,-0.231,99.86,4.0,,0.0,0.0,
2025-08-15T03:36:53.304Z,10,GR86-063-113,0.1,0.109,-0.263,99.87,4.0,7209.0,0.0,0.0,
2025-08-15T03:36:53.346Z,10,GR86-063-113,0.2,0.101,-0.236,99.87,4.0,,0.0,0.0,183.5
2025-08-15T03:36:53.389Z,10,GR86-063-113,0.3,0.102,-0.211,99.88,4.0,,0.0,0.0,
2025-08-15T03:36:53.434Z,10,GR86-063-113,0.1,0.113,-0.189,99.89,4.0,,0.0,0.0,
2025-08-15T03:36:53.477Z,10,GR86-063-113,-0.1,0.109,-0.179,99.87,4.0,,0.0,0.0,
2025-08-15T03:36:53.520Z,10,GR86-063-113,-0.3,0.119,-0.186,99.87,4.0,7238.0,0.0,0.0,
2025-08-15T03:36:53.564Z,10,GR86-063-113,-0.4,0.107,-0.181,99.86,4.0,,0.0,0.0,184.49
2025-08-15T03:36:53.606Z,10,GR86-063-113,-0.4,0.109,-0.18,99.89,4.0,,0.0,0.0,
2025-08-15T03:36:53.649Z,10,GR86-063-113,-0.3,0.101,-0.2,99.86,4.0,,0.0,0.0,
2025-08-15T03:36:53.694Z,10,GR86-063-113,0.1,0.096,-0.212,99.89,4.0,,0.0,0.0,
2025-08-15T03:36:53.737Z,10,GR86-063-113,0.1,0.104,-0.234,99.86,4.0,7276.0,0.0,0.0,
2025-08-15T03:36:53.780Z,10,GR86-063-113,0.2,0.089,-0.2,99.88,4.0,,0.0,0.0,185.39
2025-08-15T03:36:53.825Z,10,GR86-063-113,0.3,0.089,-0.204,99.86,4.0,,0.0,0.0,
2025-08-15T03:36:53.868Z,10,GR86-063-113,0.4,-0.049,-0.215,99.88,5.0,,0.0,0.0,
2025-08-15T03:36:53.911Z,10,GR86-063-113,0.5,-0.043,-0.172,99.88,5.0,,0.0,0.0,
2025-08-15T03:36:53.958Z,10,GR86-063-113,0.7000000000000001,0.256,-0.214,99.85,5.0,7300.0,0.0,0.0,
2025-08-15T03:36:54.001Z,10,GR86-063-113,0.8,0.005,-0.156,99.87,5.0,,0.0,0.0,186.32
2025-08-15T03:36:54.044Z,10,GR86-063-113,0.6000000000000001,-0.031,-0.112,99.86,5.0,,0.0,0.0,
2025-08-15T03:36:54.087Z,10,GR86-063-113,0.8,0.079,-0.166,99.87,5.0,,0.0,0.0,
2025-08-15T03:36:54.130Z,10,GR86-063-113,1.1,0.142,-0.108,99.87,5.0,,0.0,0.0,
2025-08-15T03:36:54.174Z,10,GR86-063-113,1.6,0.091,-0.135,99.87,5.0,6216.0,0.0,0.0,
2025-08-15T03:36:54.217Z,10,GR86-063-113,1.6,0.1,-0.136,99.88,5.0,,0.0,0.0,187.77
2025-08-15T03:36:54.260Z,10,GR86-063-113,1.8,0.114,-0.09,99.86,5.0,,0.0,0.0,
2025-08-15T03:36:54.304Z,10,GR86-063-113,1.9,0.122,-0.095,99.85,5.0,,0.0,0.0,
2025-08-15T03:36:54.346Z,10,GR86-063-113,2.3000000000000003,0.077,-0.066,99.86,5.0,,0.0,0.0,
2025-08-15T03:36:54.389Z,10,GR86-063-113,2.4000000000000004,0.103,-0.057,99.87,5.0,6381.0,0.0,0.0,
2025-08-15T03:36:54.433Z,10,GR86-063-113,2.4000000000000004,0.101,-0.04,99.88,5.0,,0.0,0.0,188.69
2025-08-15T03:36:54.476Z,10,GR86-063-113,2.3000000000000003,0.11,-0.035,99.87,5.0,,0.0,0.0,
2025-08-15T03:36:54.519Z,10,GR86-063-113,2.4000000000000004,0.1,0.002,99.87,5.0,,0.0,0.0,
2025-08-15T03:36:54.564Z,10,GR86-063-113,2.4000000000000004,0.123,-0.002,99.89,5.0,,0.0,0.0,
2025-08-15T03:36:54.607Z,10,GR86-063-113,2.5,0.123,-0.015,99.85,5.0,6411.0,0.0,0.0,
2025-08-15T03:36:54.650Z,10,GR86-063-113,2.5,0.133,-0.003,99.86,5.0,,0.0,0.0,189.33
2025-08-15T03:36:54.694Z,10,GR86-063-113,2.5,0.062,-0.028,99.88,5.0,,0.0,0.0,
2025-08-15T03:36:54.737Z,10,GR86-063-113,2.5,0.079,0.004,99.87,5.0,,0.0,0.0,
2025-08-15T03:36:54.780Z,10,GR86-063-113,2.4000000000000004,0.089,-0.027,99.86,5.0,,0.0,0.0,
2025-08-15T03:36:54.825Z,10,GR86-063-113,2.4000000000000004,0.074,-0.033,99.87,5.0,6463.0,0.0,0.0,
2025-08-15T03:36:54.911Z,10,GR86-063-113,2.3000000000000003,0.1,-0.013,99.86,5.0,,0.0,0.0,190.14
2025-08-15T03:36:54.954Z,10,GR86-063-113,2.2,0.063,-0.034,99.86,5.0,,0.0,0.0,
2025-08-15T03:36:54.997Z,10,GR86-063-113,2.3000000000000003,0.073,-0.056,99.89,5.0,,0.0,0.0,
2025-08-15T03:36:55.040Z,10,GR86-063-113,2.5,0.071,-0.061,99.87,5.0,6499.0,0.0,0.0,
2025-08-15T03:36:55.084Z,10,GR86-063-113,2.3000000000000003,0.068,-0.05,99.85,5.0,,0.0,0.0,190.91
2025-08-15T03:36:55.127Z,10,GR86-063-113,2.2,0.065,-0.061,99.87,5.0,,0.0,0.0,
2025-08-15T03:36:55.170Z,10,GR86-063-113,2.1,0.069,-0.087,99.86,5.0,,0.0,0.0,
2025-08-15T03:36:55.214Z,10,GR86-063-113,2.0,0.103,-0.067,99.86,5.0,,0.0,0.0,
2025-08-15T03:36:55.257Z,10,GR86-063-113,2.1,0.101,-0.084,99.88,5.0,6518.0,0.0,0.0,
2025-08-15T03:36:55.300Z,10,GR86-063-113,2.2,0.074,-0.053,99.87,5.0,,0.0,0.0,191.82
2025-08-15T03:36:55.344Z,10,GR86-063-113,2.2,0.084,-0.075,99.87,5.0,,0.0,0.0,
2025-08-15T03:36:55.386Z,10,GR86-063-113,2.2,0.068,-0.068,99.86,5.0,,0.0,0.0,
2025-08-15T03:36:55.429Z,10,GR86-063-113,2.3000000000000003,0.063,-0.098,99.88,5.0,,0.0,0.0,
2025-08-15T03:36:55.474Z,10,GR86-063-113,2.3000000000000003,0.108,-0.083,99.87,5.0,6546.0,0.0,0.0,
2025-08-15T03:36:55.517Z,10,GR86-063-113,2.4000000000000004,0.115,-0.082,99.86,5.0,,0.0,0.0,192.62
2025-08-15T03:36:55.560Z,10,GR86-063-113,2.5,0.093,-0.067,99.86,5.0,,0.0,0.0,
2025-08-15T03:36:55.604Z,10,GR86-063-113,2.9000000000000004,0.088,-0.064,99.86,5.0,,0.0,0.0,
2025-08-15T03:36:55.647Z,10,GR86-063-113,3.3000000000000003,0.075,-0.059,99.86,5.0,,0.0,0.0,
2025-08-15T03:36:55.690Z,10,GR86-063-113,3.5,0.062,-0.041,99.89,5.0,6581.0,0.0,0.0,
2025-08-15T03:36:55.734Z,10,GR86-063-113,3.6,0.118,-0.016,99.87,5.0,,0.0,0.0,193.38
2025-08-15T03:36:55.777Z,10,GR86-063-113,3.7,0.103,-0.03,99.86,5.0,,0.0,0.0,
2025-08-15T03:36:55.820Z,10,GR86-063-113,3.9,0.096,-0.009,99.87,5.0,,0.0,0.0,
2025-08-15T03:36:55.865Z,10,GR86-063-113,4.0,0.088,0.024,99.89,5.0,,0.0,0.0,
2025-08-15T03:36:55.907Z,10,GR86-063-113,4.0,0.075,0.017,99.88,5.0,6604.0,0.0,0.0,
2025-08-15T03:36:55.950Z,10,GR86-063-113,4.0,0.079,0.029,99.86,5.0,,0.0,0.0,194.17
2025-08-15T03:36:55.994Z,10,GR86-063-113,4.0,0.115,0.024,99.88,5.0,,0.0,0.0,
2025-08-15T03:36:56.037Z,10,GR86-063-113,4.0,0.107,0.016,99.89,5.0,,0.0,0.0,
2025-08-15T03:36:56.080Z,10,GR86-063-113,4.0,0.122,0.041,99.88,5.0,,0.0,0.0,
2025-08-15T03:36:56.126Z,10,GR86-063-113,4.1000000000000005,0.101,0.019,99.86,5.0,6624.0,0.0,0.0,
2025-08-15T03:36:56.169Z,10,GR86-063-113,4.0,0.068,0.029,99.86,5.0,,0.0,0.0,194.94
2025-08-15T03:36:56.214Z,10,GR86-063-113,4.0,0.111,0.024,99.87,5.0,,0.0,0.0,
2025-08-15T03:36:56.257Z,10,GR86-063-113,3.9,0.122,0.027,99.88,5.0,,0.0,0.0,
2025-08-15T03:36:56.300Z,10,GR86-063-113,3.9,0.1,0.036,99.85,5.0,,0.0,0.0,
2025-08-15T03:36:56.344Z,10,GR86-063-113,4.0,0.112,0.018,99.86,5.0,6654.0,0.0,0.0,
2025-08-15T03:36:56.386Z,10,GR86-063-113,3.9,0.099,0.024,99.85,5.0,,0.0,0.0,195.64
2025-08-15T03:36:56.429Z,10,GR86-063-113,3.9,0.087,0.015,99.88,5.0,,0.0,0.0,
2025-08-15T03:36:56.474Z,10,GR86-063-113,3.9,0.105,-0.011,99.85,5.0,,0.0,0.0,
2025-08-15T03:36:56.517Z,10,GR86-063-113,3.9,0.11,-0.012,99.84,5.0,,0.0,0.0,
2025-08-15T03:36:56.560Z,10,GR86-063-113,3.9,0.114,-0.004,99.86,5.0,6680.0,0.0,0.0,
2025-08-15T03:36:56.604Z,10,GR86-063-113,3.9,0.094,-0.002,99.87,5.0,,0.0,0.0,196.43
2025-08-15T03:36:56.646Z,10,GR86-063-113,4.0,0.074,0.012,99.85,5.0,,0.0,0.0,
2025-08-15T03:36:56.689Z,10,GR86-063-113,4.1000000000000005,0.084,0.016,99.88,5.0,,0.0,0.0,
2025-08-15T03:36:56.734Z,10,GR86-063-113,4.0,0.118,-0.002,99.88,5.0,,0.0,0.0,
2025-08-15T03:36:56.777Z,10,GR86-063-113,4.0,0.105,-0.019,99.86,5.0,6703.0,0.0,0.0,
2025-08-15T03:36:56.820Z,10,GR86-063-113,4.0,0.12,-0.004,99.85,5.0,,0.0,0.0,198.04
2025-08-15T03:36:56.864Z,10,GR86-063-113,4.0,0.077,0.009,99.84,5.0,,0.0,0.0,
2025-08-15T03:36:56.906Z,10,GR86-063-113,3.9,0.088,0.035,99.86,5.0,,0.0,0.0,
2025-08-15T03:36:56.949Z,10,GR86-063-113,4.0,0.052,0.0,99.86,5.0,,0.0,0.0,
2025-08-15T03:36:56.994Z,10,GR86-063-113,4.0,0.088,-0.034,99.87,5.0,6730.0,0.0,0.0,
2025-08-15T03:36:57.037Z,10,GR86-063-113,4.0,0.108,-0.036,99.88,5.0,,0.0,0.0,198.8
2025-08-15T03:36:57.080Z,10,GR86-063-113,4.0,0.073,-0.008,99.87,5.0,,0.0,0.0,
2025-08-15T03:36:57.125Z,10,GR86-063-113,4.1000000000000005,0.09,-0.005,99.86,5.0,,0.0,0.0,
2025-08-15T03:36:57.168Z,10,GR86-063-113,4.2,0.063,0.019,99.87,5.0,,0.0,0.0,
2025-08-15T03:36:57.211Z,10,GR86-063-113,4.3,0.06,-0.006,99.87,5.0,6769.0,0.0,0.0,
2025-08-15T03:36:57.254Z,10,GR86-063-113,4.5,0.101,-0.001,99.88,5.0,,0.0,0.0,199.61
2025-08-15T03:36:57.297Z,10,GR86-063-113,4.6000000000000005,0.084,-0.011,99.86,5.0,,0.0,0.0,
2025-08-15T03:36:57.340Z,10,GR86-063-113,4.7,0.063,0.013,99.88,5.0,,0.0,0.0,
2025-08-15T03:36:57.384Z,10,GR86-063-113,4.800000000000001,0.054,0.036,99.88,5.0,,0.0,0.0,
2025-08-15T03:36:57.426Z,10,GR86-063-113,5.0,0.09,0.074,99.88,5.0,6811.0,0.0,0.0,
2025-08-15T03:36:57.515Z,10,GR86-063-113,5.7,0.074,0.072,99.88,5.0,,0.0,0.0,200.33
2025-08-15T03:36:57.558Z,10,GR86-063-113,5.800000000000001,0.061,0.063,99.85,5.0,,0.0,0.0,
2025-08-15T03:36:57.601Z,10,GR86-063-113,5.800000000000001,0.075,0.083,99.88,5.0,,0.0,0.0,
2025-08-15T03:36:57.644Z,10,GR86-063-113,5.800000000000001,0.078,0.112,99.85,5.0,6844.0,0.0,0.0,
2025-08-15T03:36:57.687Z,10,GR86-063-113,5.9,0.1,0.079,99.87,5.0,,0.0,0.0,201.03
2025-08-15T03:36:57.730Z,10,GR86-063-113,6.0,0.097,0.098,99.85,5.0,,0.0,0.0,
2025-08-15T03:36:57.774Z,10,GR86-063-113,6.1000000000000005,0.057,0.068,99.86,5.0,,0.0,0.0,
2025-08-15T03:36:57.817Z,10,GR86-063-113,6.2,0.078,0.11,99.87,5.0,,0.0,0.0,
2025-08-15T03:36:57.860Z,10,GR86-063-113,6.300000000000001,0.094,0.092,99.86,5.0,6857.0,0.0,0.0,
2025-08-15T03:36:57.904Z,10,GR86-063-113,6.5,0.098,0.126,99.87,5.0,,0.0,0.0,201.74
2025-08-15T03:36:57.946Z,10,GR86-063-113,6.7,0.096,0.125,99.85,5.0,,0.0,0.0,
2025-08-15T03:36:58.033Z,10,GR86-063-113,6.9,0.069,0.118,99.87,5.0,,0.0,0.0,
2025-08-15T03:36:58.119Z,10,GR86-063-113,6.800000000000001,0.087,0.105,99.87,5.0,6880.0,0.0,0.0,202.46
2025-08-15T03:36:58.164Z,10,GR86-063-113,7.4,0.098,0.167,99.85,5.0,,0.0,0.0,
2025-08-15T03:36:58.207Z,10,GR86-063-113,7.4,0.09,0.117,99.86,5.0,,0.0,0.0,
2025-08-15T03:36:58.250Z,10,GR86-063-113,7.6,0.071,0.124,99.88,5.0,,0.0,0.0,
2025-08-15T03:36:58.337Z,10,GR86-063-113,8.5,0.094,0.136,99.88,5.0,6907.0,0.0,0.0,203.21
2025-08-15T03:36:58.380Z,10,GR86-063-113,9.6,0.096,0.192,99.85,5.0,,0.0,0.0,
2025-08-15T03:36:58.425Z,10,GR86-063-113,9.6,0.065,0.217,99.86,5.0,,0.0,0.0,
2025-08-15T03:36:58.511Z,10,GR86-063-113,9.3,0.075,0.215,99.87,5.0,6930.0,0.0,0.0,
2025-08-15T03:36:58.554Z,10,GR86-063-113,9.5,0.091,0.228,99.88,5.0,,0.0,0.0,203.88
2025-08-15T03:36:58.597Z,10,GR86-063-113,9.6,0.07,0.263,99.88,5.0,,0.0,0.0,
2025-08-15T03:36:58.640Z,10,GR86-063-113,9.4,0.062,0.253,99.85,5.0,,0.0,0.0,
2025-08-15T03:36:58.684Z,10,GR86-063-113,9.3,0.082,0.278,99.87,5.0,,0.0,0.0,
2025-08-15T03:36:58.770Z,10,GR86-063-113,9.6,0.072,0.213,99.85,5.0,,0.0,0.0,204.77
2025-08-15T03:36:58.814Z,10,GR86-063-113,9.4,0.082,0.229,99.87,5.0,6966.0,0.0,0.0,
2025-08-15T03:36:58.857Z,10,GR86-063-113,9.9,0.062,0.257,99.88,5.0,,0.0,0.0,
2025-08-15T03:36:58.944Z,10,GR86-063-113,9.9,0.076,0.27,99.87,5.0,6991.0,0.0,0.0,
2025-08-15T03:36:58.986Z,10,GR86-063-113,9.9,0.078,0.244,99.88,5.0,,0.0,0.0,205.59
2025-08-15T03:36:59.029Z,10,GR86-063-113,9.8,0.088,0.23,99.88,5.0,,0.0,0.0,
2025-08-15T03:36:59.074Z,10,GR86-063-113,9.7,0.081,0.227,99.88,5.0,,0.0,0.0,
2025-08-15T03:36:59.160Z,10,GR86-063-113,9.5,0.087,0.212,99.87,5.0,7006.0,0.0,0.0,
2025-08-15T03:36:59.247Z,10,GR86-063-113,9.5,0.088,0.183,99.88,5.0,,0.0,0.0,206.29
2025-08-15T03:36:59.290Z,10,GR86-063-113,9.4,0.079,0.171,99.88,5.0,,0.0,0.0,
2025-08-15T03:36:59.377Z,10,GR86-063-113,9.1,0.1,0.144,99.86,5.0,7034.0,0.0,0.0,
2025-08-15T03:36:59.420Z,10,GR86-063-113,8.6,0.094,0.13,99.86,5.0,,0.0,0.0,207.57
2025-08-15T03:36:59.465Z,10,GR86-063-113,8.6,0.062,0.125,99.85,5.0,,0.0,0.0,
2025-08-15T03:36:59.507Z,10,GR86-063-113,8.6,0.086,0.097,99.87,5.0,,0.0,0.0,
2025-08-15T03:36:59.550Z,10,GR86-063-113,8.700000000000001,0.073,0.1,99.87,5.0,,0.0,0.0,
2025-08-15T03:36:59.594Z,10,GR86-063-113,8.8,0.07,0.053,99.85,5.0,7064.0,0.0,0.0,
2025-08-15T03:36:59.637Z,10,GR86-063-113,8.700000000000001,0.073,0.076,99.86,5.0,,0.0,0.0,208.35
2025-08-15T03:36:59.680Z,10,GR86-063-113,8.5,0.098,0.066,99.85,5.0,,0.0,0.0,
2025-08-15T03:36:59.726Z,10,GR86-063-113,8.6,0.092,0.092,99.87,5.0,,0.0,0.0,
2025-08-15T03:36:59.769Z,10,GR86-063-113,8.6,0.087,0.092,99.85,5.0,,0.0,0.0,
2025-08-15T03:36:59.814Z,10,GR86-063-113,8.6,0.082,0.078,99.85,5.0,7093.0,0.0,0.0,
2025-08-15T03:36:59.857Z,10,GR86-063-113,8.700000000000001,0.092,0.093,99.87,5.0,,0.0,0.0,208.99
2025-08-15T03:36:59.900Z,10,GR86-063-113,8.700000000000001,0.081,0.091,99.85,5.0,,0.0,0.0,
2025-08-15T03:36:59.944Z,10,GR86-063-113,8.700000000000001,0.054,0.112,99.87,5.0,,0.0,0.0,
2025-08-15T03:36:59.986Z,10,GR86-063-113,8.9,0.052,0.103,99.88,5.0,,0.0,0.0,
2025-08-15T03:37:00.029Z,10,GR86-063-113,8.9,0.069,0.148,99.88,5.0,7139.0,0.0,0.0,
2025-08-15T03:37:00.074Z,10,GR86-063-113,8.700000000000001,0.046,0.179,99.86,5.0,,0.0,0.0,209.48
2025-08-15T03:37:00.117Z,10,GR86-063-113,8.700000000000001,0.051,0.174,99.86,5.0,,0.0,0.0,
2025-08-15T03:37:00.160Z,10,GR86-063-113,8.700000000000001,0.06,0.188,99.88,5.0,,0.0,0.0,
2025-08-15T03:37:00.204Z,10,GR86-063-113,8.8,0.081,0.148,99.89,5.0,,0.0,0.0,
2025-08-15T03:37:00.246Z,10,GR86-063-113,8.8,0.089,0.128,99.86,5.0,7150.0,0.0,0.0,
2025-08-15T03:37:00.289Z,10,GR86-063-113,8.6,0.077,0.128,99.87,5.0,,0.0,0.0,210.34
2025-08-15T03:37:00.334Z,10,GR86-063-113,8.4,0.103,0.128,99.86,5.0,,0.0,0.0,
2025-08-15T03:37:00.377Z,10,GR86-063-113,8.3,0.08,0.073,99.86,5.0,,0.0,0.0,
2025-08-15T03:37:00.420Z,10,GR86-063-113,8.200000000000001,0.057,0.028,99.85,5.0,,0.0,0.0,
2025-08-15T03:37:00.464Z,10,GR86-063-113,8.200000000000001,0.029,0.054,99.87,5.0,7170.0,0.0,0.0,
2025-08-15T03:37:00.507Z,10,GR86-063-113,8.200000000000001,0.022,0.058,99.88,5.0,,0.0,0.0,211.04
2025-08-15T03:37:00.550Z,10,GR86-063-113,8.200000000000001,0.061,0.075,99.86,5.0,,0.0,0.0,
2025-08-15T03:37:00.595Z,10,GR86-063-113,8.5,0.029,0.061,99.88,5.0,,0.0,0.0,
2025-08-15T03:37:00.637Z,10,GR86-063-113,8.9,0.055,0.036,99.86,5.0,,0.0,0.0,
2025-08-15T03:37:00.680Z,10,GR86-063-113,9.1,0.065,0.083,99.86,5.0,7189.0,0.0,0.0,
2025-08-15T03:37:00.726Z,10,GR86-063-113,9.3,0.087,0.071,99.85,5.0,,0.0,0.0,211.75
2025-08-15T03:37:00.768Z,10,GR86-063-113,9.5,0.069,0.133,99.87,5.0,,0.0,0.0,
2025-08-15T03:37:00.811Z,10,GR86-063-113,10.0,0.04,0.126,99.88,5.0,,0.0,0.0,
2025-08-15T03:37:00.854Z,10,GR86-063-113,10.9,0.077,0.162,99.86,5.0,,0.0,0.0,
2025-08-15T03:37:00.897Z,10,GR86-063-113,11.1,0.051,0.239,99.88,5.0,7224.0,0.0,0.0,
2025-08-15T03:37:00.940Z,10,GR86-063-113,11.1,0.014,0.246,99.87,5.0,,0.0,0.0,212.19
2025-08-15T03:37:00.984Z,10,GR86-063-113,11.1,0.068,0.25,99.87,5.0,,0.0,0.0,
2025-08-15T03:37:01.027Z,10,GR86-063-113,11.1,0.039,0.24,99.86,5.0,,0.0,0.0,
2025-08-15T03:37:01.070Z,10,GR86-063-113,11.1,0.085,0.273,99.85,5.0,,0.0,0.0,
2025-08-15T03:37:01.115Z,10,GR86-063-113,11.2,0.045,0.296,99.86,5.0,7242.0,0.0,0.0,
2025-08-15T03:37:01.158Z,10,GR86-063-113,11.3,0.076,0.313,99.87,5.0,,0.0,0.0,212.95
2025-08-15T03:37:01.201Z,10,GR86-063-113,11.6,0.097,0.309,99.87,5.0,,0.0,0.0,
2025-08-15T03:37:01.244Z,10,GR86-063-113,12.6,0.059,0.316,99.86,5.0,,0.0,0.0,
2025-08-15T03:37:01.287Z,10,GR86-063-113,13.7,0.034,0.344,99.88,5.0,,0.0,0.0,
2025-08-15T03:37:01.330Z,10,GR86-063-113,14.7,0.04,0.347,99.86,5.0,7265.0,0.0,0.0,
2025-08-15T03:37:01.374Z,10,GR86-063-113,14.4,0.038,0.386,99.89,5.0,,0.0,0.0,213.66
2025-08-15T03:37:01.417Z,10,GR86-063-113,14.1,0.03,0.374,99.86,5.0,,0.0,0.0,
2025-08-15T03:37:01.504Z,10,GR86-063-113,13.9,0.045,0.388,99.85,5.0,,0.0,0.0,
2025-08-15T03:37:01.547Z,10,GR86-063-113,13.8,0.056,0.406,99.86,5.0,7288.0,0.0,0.0,
2025-08-15T03:37:01.590Z,10,GR86-063-113,13.6,0.044,0.413,99.85,5.0,,0.0,0.0,214.23
2025-08-15T03:37:01.634Z,10,GR86-063-113,13.5,0.067,0.392,99.86,5.0,,0.0,0.0,
2025-08-15T03:37:01.677Z,10,GR86-063-113,13.9,0.016,0.377,99.87,5.0,,0.0,0.0,
2025-08-15T03:37:01.720Z,10,GR86-063-113,14.4,-0.007,0.364,99.85,5.0,,0.0,0.0,
2025-08-15T03:37:01.764Z,10,GR86-063-113,14.8,-0.011,0.375,99.86,5.0,7287.0,0.0,0.0,
2025-08-15T03:37:01.807Z,10,GR86-063-113,14.9,0.004,0.367,99.87,5.0,,3.935,4.15,214.95
2025-08-15T03:37:01.850Z,10,GR86-063-113,14.6,-0.011,0.392,96.55,5.0,,9.69,9.845,
2025-08-15T03:37:01.894Z,10,GR86-063-113,14.2,-0.19,0.356,13.94,5.0,,21.56,21.5,
2025-08-15T03:37:01.937Z,10,GR86-063-113,12.4,-0.312,0.337,5.3500000000000005,5.0,,34.49,34.18,
2025-08-15T03:37:02.025Z,10,GR86-063-113,9.0,-0.62,0.32,5.09,5.0,7313.0,53.305,52.68,214.85
2025-08-15T03:37:02.068Z,10,GR86-063-113,3.3000000000000003,-1.276,0.181,4.18,5.0,,84.985,85.06,
2025-08-15T03:37:02.111Z,10,GR86-063-113,2.9000000000000004,-1.414,0.205,3.83,5.0,,93.805,94.995,
2025-08-15T03:37:02.154Z,10,GR86-063-113,2.7,-1.35,0.177,3.45,5.0,,98.99,100.12,
2025-08-15T03:37:02.197Z,10,GR86-063-113,2.0,-1.254,0.178,34.17,5.0,7016.0,100.335,102.485,
2025-08-15T03:37:02.240Z,10,GR86-063-113,1.8,-1.364,0.296,78.73,5.0,,97.22,97.815,206.79
2025-08-15T03:37:02.284Z,10,GR86-063-113,1.3,-1.177,0.326,99.65,5.0,,93.895,94.765,
2025-08-15T03:37:02.327Z,10,GR86-063-113,-2.3000000000000003,-1.189,0.213,88.9,4.0,,91.805,93.145,
2025-08-15T03:37:02.370Z,10,GR86-063-113,-5.9,-1.241,0.132,18.97,4.0,,87.865,89.895,
2025-08-15T03:37:02.414Z,10,GR86-063-113,-6.2,-1.287,0.248,3.14,4.0,6912.0,86.675,88.37,
2025-08-15T03:37:02.457Z,10,GR86-063-113,-0.3,-1.183,0.122,2.82,4.0,,83.09,83.84,198.81
2025-08-15T03:37:02.500Z,10,GR86-063-113,3.1,-1.33,0.198,2.7,4.0,,83.485,85.275,
2025-08-15T03:37:02.544Z,10,GR86-063-113,7.5,-1.277,0.164,2.63,4.0,,85.09,86.4,
2025-08-15T03:37:02.586Z,10,GR86-063-113,11.1,-1.196,0.207,2.6,4.0,,84.48,85.06,
2025-08-15T03:37:02.629Z,10,GR86-063-113,10.9,-1.283,0.281,2.57,4.0,6811.0,86.22,87.715,
2025-08-15T03:37:02.674Z,10,GR86-063-113,5.9,-1.118,0.16,2.57,4.0,,86.905,88.11,188.49
2025-08-15T03:37:02.717Z,10,GR86-063-113,3.2,-1.295,0.168,2.53,4.0,,86.37,87.56,
2025-08-15T03:37:02.760Z,10,GR86-063-113,1.8,-1.274,0.066,2.53,4.0,,86.28,86.675,
2025-08-15T03:37:02.804Z,10,GR86-063-113,1.8,-1.184,0.013,2.51,4.0,,85.805,85.93,
2025-08-15T03:37:02.847Z,10,GR86-063-113,2.0,-1.213,0.044,2.5,4.0,6890.0,85.805,85.93,
2025-08-15T03:37:02.890Z,10,GR86-063-113,3.1,-1.16,-0.003,10.92,4.0,,86.935,87.99,181.94
2025-08-15T03:37:02.934Z,10,GR86-063-113,10.5,-1.21,0.061,47.16,3.0,,86.935,87.33500000000001,
2025-08-15T03:37:02.977Z,10,GR86-063-113,13.1,-1.35,0.086,5.1000000000000005,3.0,,87.865,89.15,
2025-08-15T03:37:03.020Z,10,GR86-063-113,13.6,-1.128,0.143,4.38,3.0,,90.295,92.185,
2025-08-15T03:37:03.065Z,10,GR86-063-113,12.5,-1.301,0.05,3.96,3.0,6917.0,91.865,92.87,
2025-08-15T03:37:03.107Z,10,GR86-063-113,10.6,-1.456,0.113,3.7,3.0,,91.97,93.59,173.31
2025-08-15T03:37:03.150Z,10,GR86-063-113,9.0,-1.234,0.126,3.49,3.0,,93.3,95.145,
2025-08-15T03:37:03.194Z,10,GR86-063-113,8.9,-1.249,0.125,3.14,3.0,,85.565,85.99,
2025-08-15T03:37:03.237Z,10,GR86-063-113,6.9,-1.208,0.158,2.86,3.0,,83.58,84.985,
2025-08-15T03:37:03.280Z,10,GR86-063-113,5.0,-1.254,0.07,2.7,3.0,7042.0,83.045,84.325,
2025-08-15T03:37:03.326Z,10,GR86-063-113,4.9,-1.274,0.207,2.6,3.0,,80.94,81.52,165.56
2025-08-15T03:37:03.369Z,10,GR86-063-113,4.9,-1.258,0.197,2.53,3.0,,79.625,80.65,
2025-08-15T03:37:03.414Z,10,GR86-063-113,5.0,-1.157,0.166,2.5,3.0,,80.375,81.33500000000001,
2025-08-15T03:37:03.500Z,10,GR86-063-113,5.2,-1.192,0.118,2.47,3.0,6915.0,82.58500000000001,84.05,
2025-08-15T03:37:03.544Z,10,GR86-063-113,5.7,-1.11,0.185,29.85,3.0,,83.455,84.235,158.18
2025-08-15T03:37:03.629Z,10,GR86-063-113,6.6000000000000005,-1.258,0.239,49.03,2.0,,83.09,83.64,
2025-08-15T03:37:03.674Z,10,GR86-063-113,3.9,-1.327,0.161,4.17,2.0,,86.935,88.46000000000001,
2025-08-15T03:37:03.717Z,10,GR86-063-113,2.4000000000000004,-1.296,0.115,3.84,2.0,6500.0,85.18,86.435,
2025-08-15T03:37:03.760Z,10,GR86-063-113,0.4,-1.178,0.2,3.63,2.0,,86.125,87.685,150.06
2025-08-15T03:37:03.804Z,10,GR86-063-113,0.3,-1.199,0.081,3.46,2.0,,87.865,89.21000000000001,
2025-08-15T03:37:03.846Z,10,GR86-063-113,1.9,-1.392,0.202,3.14,2.0,,86.34,86.965,
2025-08-15T03:37:03.934Z,10,GR86-063-113,9.8,-1.05,0.184,2.63,2.0,6961.0,88.735,89.545,
2025-08-15T03:37:03.977Z,10,GR86-063-113,11.5,-1.367,0.413,2.53,2.0,,87.775,88.705,142.5
2025-08-15T03:37:04.020Z,10,GR86-063-113,11.1,-1.262,0.223,2.47,2.0,,90.355,91.97,
2025-08-15T03:37:04.064Z,10,GR86-063-113,10.7,-1.16,0.263,2.46,2.0,,90.995,91.835,
2025-08-15T03:37:04.106Z,10,GR86-063-113,10.5,-1.323,0.373,2.44,2.0,,89.025,89.455,
2025-08-15T03:37:04.149Z,10,GR86-063-113,10.7,-1.269,0.204,2.44,2.0,6968.0,90.905,92.185,
2025-08-15T03:37:04.194Z,10,GR86-063-113,13.3,-1.194,0.278,2.68,2.0,,90.645,91.44,134.57
2025-08-15T03:37:04.237Z,10,GR86-063-113,14.0,-1.196,0.302,39.13,1.0,,89.455,89.99,
2025-08-15T03:37:04.325Z,10,GR86-063-113,13.7,-1.236,0.151,39.98,1.0,,88.89,89.455,
2025-08-15T03:37:04.368Z,10,GR86-063-113,11.4,-1.262,0.25,4.3500000000000005,1.0,6870.0,92.66,94.55,
2025-08-15T03:37:04.411Z,10,GR86-063-113,9.1,-1.244,0.049,3.89,1.0,,91.055,92.37,127.32
2025-08-15T03:37:04.454Z,10,GR86-063-113,7.0,-1.156,0.316,3.58,1.0,,85.565,87.24,
2025-08-15T03:37:04.497Z,10,GR86-063-113,8.700000000000001,-1.1,0.032,3.36,1.0,,81.99,82.89,
2025-08-15T03:37:04.540Z,10,GR86-063-113,15.7,-1.35,0.313,3.11,1.0,,77.645,78.45,
2025-08-15T03:37:04.584Z,10,GR86-063-113,21.1,-1.213,0.391,2.82,1.0,6954.0,77.645,79.185,
2025-08-15T03:37:04.669Z,10,GR86-063-113,32.1,-1.001,0.313,2.63,1.0,,77.275,78.145,109.57
2025-08-15T03:37:04.715Z,10,GR86-063-113,41.6,-1.043,0.524,2.46,1.0,,71.495,72.12,
2025-08-15T03:37:04.758Z,10,GR86-063-113,42.8,-1.072,0.726,2.45,1.0,,68.715,69.28,
2025-08-15T03:37:04.801Z,10,GR86-063-113,44.2,-0.969,0.8300000000000001,2.44,1.0,7340.0,64.87,65.62,
2025-08-15T03:37:04.844Z,10,GR86-063-113,44.900000000000006,-0.958,0.596,2.44,1.0,,62.275,62.78,103.71
2025-08-15T03:37:04.887Z,10,GR86-063-113,45.900000000000006,-0.904,0.802,2.45,1.0,,61.71,61.85,
2025-08-15T03:37:04.930Z,10,GR86-063-113,48.7,-0.864,0.898,2.44,1.0,,56.995000000000005,57.745000000000005,
2025-08-15T03:37:04.974Z,10,GR86-063-113,57.7,-0.869,0.747,2.44,1.0,,50.555,51.655,
2025-08-15T03:37:05.017Z,10,GR86-063-113,64.9,-0.792,1.016,2.44,1.0,6798.0,49.64,50.555,
2025-08-15T03:37:05.060Z,10,GR86-063-113,71.3,-0.834,0.935,2.45,1.0,,47.365,48.265,97.69
2025-08-15T03:37:05.104Z,10,GR86-063-113,77.60000000000001,-0.779,0.863,2.45,1.0,,43.825,44.805,
2025-08-15T03:37:05.146Z,10,GR86-063-113,83.5,-0.777,1.01,2.44,1.0,,38.715,39.965,
2025-08-15T03:37:05.189Z,10,GR86-063-113,87.10000000000001,-0.704,1.066,2.47,1.0,,35.83,36.84,
2025-08-15T03:37:05.233Z,10,GR86-063-113,89.60000000000001,-0.627,1.142,2.44,1.0,6341.0,33.160000000000004,34.425000000000004,
2025-08-15T03:37:05.276Z,10,GR86-063-113,89.7,-0.615,1.104,2.47,1.0,,27.5,28.46,92.57
2025-08-15T03:37:05.319Z,10,GR86-063-113,84.5,-0.581,1.101,2.47,1.0,,21.685,22.675,
2025-08-15T03:37:05.364Z,10,GR86-063-113,72.0,-0.513,1.14,2.47,1.0,,14.635,15.685,
2025-08-15T03:37:05.407Z,10,GR86-063-113,58.0,-0.438,1.126,2.45,1.0,,8.73,9.63,
2025-08-15T03:37:05.450Z,10,GR86-063-113,50.3,-0.367,1.079,2.47,1.0,5956.0,3.875,4.565,
2025-08-15T03:37:05.494Z,10,GR86-063-113,53.8,-0.248,1.09,2.47,1.0,,0.0,0.0,88.49
2025-08-15T03:37:05.537Z,10,GR86-063-113,56.6,-0.242,1.099,2.47,1.0,,0.0,0.0,
2025-08-15T03:37:05.580Z,10,GR86-063-113,52.8,-0.216,1.191,2.47,1.0,,0.0,0.0,
2025-08-15T03:37:05.625Z,10,GR86-063-113,41.6,-0.181,1.118,2.47,1.0,,0.0,0.0,
2025-08-15T03:37:05.668Z,10,GR86-063-113,36.7,-0.147,1.102,2.47,1.0,5933.0,0.0,0.0,
2025-08-15T03:37:05.754Z,10,GR86-063-113,44.5,-0.187,1.085,2.47,1.0,,0.0,0.0,85.61
2025-08-15T03:37:05.797Z,10,GR86-063-113,77.80000000000001,-0.208,1.219,4.43,1.0,,0.0,0.0,
2025-08-15T03:37:05.840Z,10,GR86-063-113,87.0,-0.197,1.246,4.64,1.0,,0.0,0.0,
2025-08-15T03:37:05.884Z,10,GR86-063-113,93.3,-0.21,1.229,5.8500000000000005,1.0,5835.0,0.0,0.0,
2025-08-15T03:37:05.927Z,10,GR86-063-113,97.7,-0.21,1.212,14.5,1.0,,0.0,0.0,83.64
2025-08-15T03:37:05.970Z,10,GR86-063-113,99.9,-0.228,1.131,20.05,1.0,,0.0,0.0,
2025-08-15T03:37:06.014Z,10,GR86-063-113,100.3,-0.213,1.243,24.74,1.0,,0.0,0.0,
2025-08-15T03:37:06.057Z,10,GR86-063-113,100.2,-0.178,1.285,28.3,1.0,,0.0,0.0,
2025-08-15T03:37:06.100Z,10,GR86-063-113,100.0,-0.13,1.236,30.0,1.0,5739.0,0.0,0.0,
2025-08-15T03:37:06.144Z,10,GR86-063-113,100.1,-0.113,1.208,31.31,1.0,,0.0,0.0,81.67
2025-08-15T03:37:06.186Z,10,GR86-063-113,100.2,0.056,1.282,31.87,1.0,,0.0,0.0,
2025-08-15T03:37:06.274Z,10,GR86-063-113,97.6,0.28,1.222,33.5,1.0,,0.0,0.0,
2025-08-15T03:37:06.317Z,10,GR86-063-113,95.2,0.246,1.124,33.660000000000004,1.0,6230.0,0.0,0.0,
2025-08-15T03:37:06.360Z,10,GR86-063-113,92.3,0.188,1.27,33.910000000000004,1.0,,0.0,0.0,80.3
2025-08-15T03:37:06.404Z,10,GR86-063-113,88.10000000000001,0.167,1.282,34.34,1.0,,0.0,0.0,
2025-08-15T03:37:06.447Z,10,GR86-063-113,83.60000000000001,0.161,1.134,34.83,1.0,,0.0,0.0,
2025-08-15T03:37:06.490Z,10,GR86-063-113,80.7,0.206,1.099,34.99,1.0,,0.0,0.0,
2025-08-15T03:37:06.534Z,10,GR86-063-113,74.5,0.092,0.998,35.06,1.0,6091.0,0.0,0.0,
2025-08-15T03:37:06.577Z,10,GR86-063-113,70.60000000000001,0.122,0.974,35.17,1.0,,0.0,0.0,80.35000000000001
2025-08-15T03:37:06.620Z,10,GR86-063-113,63.5,0.19,1.016,35.18,1.0,,0.0,0.0,
2025-08-15T03:37:06.665Z,10,GR86-063-113,59.5,0.325,0.931,35.160000000000004,1.0,,0.0,0.0,
2025-08-15T03:37:06.707Z,10,GR86-063-113,59.7,0.223,0.954,35.51,1.0,,0.0,0.0,
2025-08-15T03:37:06.750Z,10,GR86-063-113,66.0,0.322,1.025,35.88,1.0,6368.0,0.0,0.0,
2025-08-15T03:37:06.794Z,10,GR86-063-113,81.30000000000001,0.166,1.044,37.61,1.0,,0.0,0.0,81.33
2025-08-15T03:37:06.837Z,10,GR86-063-113,93.7,0.09,1.152,37.48,1.0,,0.0,0.0,
2025-08-15T03:37:06.880Z,10,GR86-063-113,103.4,0.232,1.135,37.33,1.0,,0.0,0.0,
2025-08-15T03:37:06.925Z,10,GR86-063-113,109.5,0.272,1.101,37.33,1.0,,0.0,0.0,
2025-08-15T03:37:06.968Z,10,GR86-063-113,112.8,0.243,1.003,37.27,1.0,6317.0,0.0,0.0,
2025-08-15T03:37:07.011Z,10,GR86-063-113,115.8,0.05,1.08,37.3,1.0,,0.0,0.0,82.54
2025-08-15T03:37:07.054Z,10,GR86-063-113,120.2,-0.004,0.977,36.93,1.0,,0.0,0.0,
2025-08-15T03:37:07.097Z,10,GR86-063-113,122.6,0.324,1.243,37.11,1.0,,0.0,0.0,
2025-08-15T03:37:07.140Z,10,GR86-063-113,123.0,0.2,1.394,37.17,1.0,,0.0,0.0,
2025-08-15T03:37:07.184Z,10,GR86-063-113,123.1,0.173,1.498,37.23,1.0,6520.0,0.0,0.0,
2025-08-15T03:37:07.226Z,10,GR86-063-113,123.1,0.307,1.271,37.15,1.0,,0.0,0.0,84.3
2025-08-15T03:37:07.269Z,10,GR86-063-113,123.1,0.16,1.333,37.38,1.0,,0.0,0.0,
2025-08-15T03:37:07.314Z,10,GR86-063-113,122.3,0.187,1.061,65.82000000000001,1.0,,0.0,0.0,
2025-08-15T03:37:07.357Z,10,GR86-063-113,115.6,0.212,1.065,98.89,1.0,,0.0,0.0,
2025-08-15T03:37:07.400Z,10,GR86-063-113,102.7,0.219,1.222,99.85,1.0,6581.0,0.0,0.0,
2025-08-15T03:37:07.444Z,10,GR86-063-113,86.80000000000001,0.262,1.12,99.83,1.0,,0.0,0.0,85.89
2025-08-15T03:37:07.486Z,10,GR86-063-113,75.10000000000001,0.311,1.175,99.85,1.0,,0.0,0.0,
2025-08-15T03:37:07.529Z,10,GR86-063-113,72.10000000000001,0.321,1.096,99.86,1.0,,0.0,0.0,
2025-08-15T03:37:07.574Z,10,GR86-063-113,73.4,0.312,1.062,99.85,1.0,,0.0,0.0,
2025-08-15T03:37:07.617Z,10,GR86-063-113,73.2,0.33,1.051,99.86,1.0,6839.0,0.0,0.0,
2025-08-15T03:37:07.660Z,10,GR86-063-113,63.8,0.288,1.1,99.86,1.0,,0.0,0.0,87.18
2025-08-15T03:37:07.704Z,10,GR86-063-113,48.3,0.286,1.14,99.86,1.0,,0.0,0.0,
2025-08-15T03:37:07.747Z,10,GR86-063-113,32.6,0.299,1.097,99.85,1.0,,0.0,0.0,
2025-08-15T03:37:07.790Z,10,GR86-063-113,23.6,0.322,1.084,99.89,1.0,,0.0,0.0,
2025-08-15T03:37:07.834Z,10,GR86-063-113,21.9,0.357,1.026,99.88,1.0,7038.0,0.0,0.0,
2025-08-15T03:37:07.920Z,10,GR86-063-113,26.4,0.354,1.093,99.88,1.0,,0.0,0.0,89.21000000000001
2025-08-15T03:37:07.964Z,10,GR86-063-113,23.5,0.323,1.099,99.87,1.0,,0.0,0.0,
2025-08-15T03:37:08.007Z,10,GR86-063-113,18.5,0.369,1.036,99.88,1.0,,0.0,0.0,
2025-08-15T03:37:08.050Z,10,GR86-063-113,16.5,0.32,0.989,99.87,1.0,7140.0,0.0,0.0,
2025-08-15T03:37:08.094Z,10,GR86-063-113,21.6,0.348,1.012,99.89,1.0,,0.0,0.0,91.14
2025-08-15T03:37:08.137Z,10,GR86-063-113,30.3,0.387,1.011,99.88,1.0,,0.0,0.0,
2025-08-15T03:37:08.180Z,10,GR86-063-113,36.7,0.341,1.082,99.89,1.0,,0.0,0.0,
2025-08-15T03:37:08.226Z,10,GR86-063-113,40.6,0.314,0.649,99.89,1.0,,0.0,0.0,
2025-08-15T03:37:08.268Z,10,GR86-063-113,40.8,0.27,0.61,99.88,1.0,7238.0,0.0,0.0,
2025-08-15T03:37:08.311Z,10,GR86-063-113,39.900000000000006,0.29,0.885,99.86,1.0,,0.0,0.0,92.71
2025-08-15T03:37:08.354Z,10,GR86-063-113,32.1,0.248,0.354,99.9,1.0,,0.0,0.0,
2025-08-15T03:37:08.397Z,10,GR86-063-113,24.6,0.179,0.8290000000000001,99.89,1.0,,0.0,0.0,
2025-08-15T03:37:08.484Z,10,GR86-063-113,14.2,0.139,0.686,99.9,1.0,7313.0,0.0,0.0,
2025-08-15T03:37:08.527Z,10,GR86-063-113,13.3,-0.014,0.743,99.9,2.0,,0.0,0.0,94.3
2025-08-15T03:37:08.570Z,10,GR86-063-113,16.3,0.254,0.452,99.89,2.0,,0.0,0.0,
2025-08-15T03:37:08.658Z,10,GR86-063-113,25.5,0.76,0.728,99.89,2.0,,0.0,0.0,
2025-08-15T03:37:08.701Z,10,GR86-063-113,24.3,0.384,0.665,99.88,2.0,6471.0,0.0,0.0,
2025-08-15T03:37:08.744Z,10,GR86-063-113,21.3,0.607,0.664,99.88,2.0,,0.0,0.0,96.03
2025-08-15T03:37:08.787Z,10,GR86-063-113,18.5,0.23,0.589,99.89,2.0,,0.0,0.0,
2025-08-15T03:37:08.830Z,10,GR86-063-113,15.7,0.084,0.329,99.88,2.0,,0.0,0.0,
2025-08-15T03:37:08.874Z,10,GR86-063-113,14.8,0.535,0.587,99.88,2.0,,0.0,0.0,
2025-08-15T03:37:08.960Z,10,GR86-063-113,18.4,0.408,0.454,99.88,2.0,5786.0,0.0,0.0,97.68
2025-08-15T03:37:09.004Z,10,GR86-063-113,21.9,-0.174,0.258,99.89,2.0,,0.0,0.0,
2025-08-15T03:37:09.046Z,10,GR86-063-113,21.4,-0.088,0.372,99.88,2.0,,0.0,0.0,
2025-08-15T03:37:09.090Z,10,GR86-063-113,17.6,-0.051,0.519,99.89,2.0,,0.0,0.0,
2025-08-15T03:37:09.176Z,10,GR86-063-113,6.300000000000001,0.11,0.493,99.88,2.0,,0.0,0.0,99.87
2025-08-15T03:37:09.219Z,10,GR86-063-113,3.5,0.068,0.532,99.89,2.0,5952.0,0.0,0.0,
2025-08-15T03:37:09.264Z,10,GR86-063-113,1.2000000000000002,-0.12,0.102,99.89,2.0,,0.0,0.0,
2025-08-15T03:37:09.350Z,10,GR86-063-113,-4.3,-0.15,0.391,99.91,2.0,6045.0,0.0,0.0,
2025-08-15T03:37:09.394Z,10,GR86-063-113,-3.6,0.483,0.298,99.88,2.0,,0.0,0.0,101.46
2025-08-15T03:37:09.437Z,10,GR86-063-113,3.3000000000000003,0.247,0.143,99.89,2.0,,0.0,0.0,
2025-08-15T03:37:09.480Z,10,GR86-063-113,11.0,0.147,0.191,99.89,2.0,,0.0,0.0,
2025-08-15T03:37:09.526Z,10,GR86-063-113,15.9,0.002,0.109,99.89,2.0,,0.0,0.0,
2025-08-15T03:37:09.611Z,10,GR86-063-113,16.6,-0.044,0.095,99.89,2.0,6172.0,0.0,0.0,103.21
2025-08-15T03:37:09.654Z,10,GR86-063-113,10.5,0.359,-0.029,99.89,2.0,,0.0,0.0,
2025-08-15T03:37:09.697Z,10,GR86-063-113,7.2,0.398,-0.06,99.9,2.0,,0.0,0.0,
2025-08-15T03:37:09.740Z,10,GR86-063-113,6.300000000000001,0.437,-0.026,99.89,2.0,,0.0,0.0,
2025-08-15T03:37:09.784Z,10,GR86-063-113,6.6000000000000005,0.268,0.032,99.88,2.0,6230.0,0.0,0.0,
2025-08-15T03:37:09.827Z,10,GR86-063-113,6.300000000000001,0.22,0.046,99.89,2.0,,0.0,0.0,106.86
2025-08-15T03:37:09.870Z,10,GR86-063-113,6.1000000000000005,0.206,0.051,99.88,2.0,,0.0,0.0,
2025-08-15T03:37:09.957Z,10,GR86-063-113,5.2,0.317,-0.053,99.89,2.0,,0.0,0.0,
2025-08-15T03:37:10.000Z,10,GR86-063-113,4.3,0.428,-0.058,99.89,2.0,6204.0,0.0,0.0,
2025-08-15T03:37:10.044Z,10,GR86-063-113,4.1000000000000005,0.369,-0.113,99.89,2.0,,0.0,0.0,108.65
2025-08-15T03:37:10.086Z,10,GR86-063-113,4.0,0.403,-0.063,99.89,2.0,,0.0,0.0,
2025-08-15T03:37:10.129Z,10,GR86-063-113,4.0,0.329,-0.109,99.88,2.0,,0.0,0.0,
2025-08-15T03:37:10.174Z,10,GR86-063-113,4.5,0.155,-0.032,99.89,2.0,,0.0,0.0,
2025-08-15T03:37:10.217Z,10,GR86-063-113,4.6000000000000005,0.249,-0.028,99.9,2.0,6423.0,0.0,0.0,
2025-08-15T03:37:10.260Z,10,GR86-063-113,4.6000000000000005,0.245,-0.045,99.89,2.0,,0.0,0.0,110.41
2025-08-15T03:37:10.304Z,10,GR86-063-113,4.4,0.224,-0.052,99.89,2.0,,0.0,0.0,
2025-08-15T03:37:10.347Z,10,GR86-063-113,4.2,0.192,-0.105,99.89,2.0,,0.0,0.0,
2025-08-15T03:37:10.390Z,10,GR86-063-113,3.3000000000000003,0.203,-0.084,99.88,2.0,,0.0,0.0,
2025-08-15T03:37:10.434Z,10,GR86-063-113,2.5,0.311,-0.076,99.89,2.0,6543.0,0.0,0.0,
2025-08-15T03:37:10.477Z,10,GR86-063-113,2.2,0.297,-0.069,99.88,2.0,,0.0,0.0,112.02
2025-08-15T03:37:10.520Z,10,GR86-063-113,2.1,0.295,-0.097,99.9,2.0,,0.0,0.0,
2025-08-15T03:37:10.565Z,10,GR86-063-113,2.1,0.26,-0.087,99.89,2.0,,0.0,0.0,
2025-08-15T03:37:10.607Z,10,GR86-063-113,2.1,0.306,-0.078,99.9,2.0,,0.0,0.0,
2025-08-15T03:37:10.650Z,10,GR86-063-113,2.0,0.286,-0.106,99.89,2.0,6607.0,0.0,0.0,
2025-08-15T03:37:10.694Z,10,GR86-063-113,1.9,0.261,-0.12,99.89,2.0,,0.0,0.0,113.78
2025-08-15T03:37:10.736Z,10,GR86-063-113,2.1,0.251,-0.114,99.89,2.0,,0.0,0.0,
2025-08-15T03:37:10.780Z,10,GR86-063-113,2.3000000000000003,0.278,-0.104,99.89,2.0,,0.0,0.0,
2025-08-15T03:37:10.826Z,10,GR86-063-113,2.7,0.269,-0.079,99.89,2.0,,0.0,0.0,
2025-08-15T03:37:10.868Z,10,GR86-063-113,3.7,0.283,-0.043,99.89,2.0,6695.0,0.0,0.0,
2025-08-15T03:37:10.911Z,10,GR86-063-113,4.0,0.295,-0.041,99.89,2.0,,0.0,0.0,115.26
2025-08-15T03:37:10.954Z,10,GR86-063-113,3.6,0.277,-0.024,99.89,2.0,,0.0,0.0,
2025-08-15T03:37:10.997Z,10,GR86-063-113,3.2,0.249,0.0,99.88,2.0,,0.0,0.0,
2025-08-15T03:37:11.040Z,10,GR86-063-113,3.2,0.269,-0.004,99.88,2.0,,0.0,0.0,
2025-08-15T03:37:11.084Z,10,GR86-063-113,3.0,0.287,-0.011,99.88,2.0,6761.0,0.0,0.0,
2025-08-15T03:37:11.126Z,10,GR86-063-113,2.9000000000000004,0.256,-0.013,99.88,2.0,,0.0,0.0,116.85
2025-08-15T03:37:11.169Z,10,GR86-063-113,2.5,0.278,-0.009,99.88,2.0,,0.0,0.0,
2025-08-15T03:37:11.214Z,10,GR86-063-113,1.7000000000000002,0.265,-0.046,99.89,2.0,,0.0,0.0,
2025-08-15T03:37:11.257Z,10,GR86-063-113,1.5,0.273,-0.073,99.89,2.0,,0.0,0.0,
2025-08-15T03:37:11.300Z,10,GR86-063-113,1.4,0.257,-0.065,99.9,2.0,6850.0,0.0,0.0,
2025-08-15T03:37:11.344Z,10,GR86-063-113,1.6,0.275,-0.073,99.89,2.0,,0.0,0.0,118.39
2025-08-15T03:37:11.386Z,10,GR86-063-113,1.8,0.28,-0.07,99.88,2.0,,0.0,0.0,
2025-08-15T03:37:11.429Z,10,GR86-063-113,2.3000000000000003,0.254,-0.05,99.88,2.0,,0.0,0.0,
2025-08-15T03:37:11.474Z,10,GR86-063-113,2.3000000000000003,0.244,-0.045,99.88,2.0,,0.0,0.0,
2025-08-15T03:37:11.517Z,10,GR86-063-113,2.3000000000000003,0.269,-0.048,99.89,2.0,6939.0,0.0,0.0,
2025-08-15T03:37:11.560Z,10,GR86-063-113,2.2,0.274,-0.039,99.89,2.0,,0.0,0.0,119.92
2025-08-15T03:37:11.604Z,10,GR86-063-113,2.2,0.252,-0.017,99.88,2.0,,0.0,0.0,
2025-08-15T03:37:11.646Z,10,GR86-063-113,2.2,0.263,-0.025,99.89,2.0,,0.0,0.0,
2025-08-15T03:37:11.689Z,10,GR86-063-113,2.2,0.256,-0.029,99.89,2.0,,0.0,0.0,
2025-08-15T03:37:11.734Z,10,GR86-063-113,2.1,0.278,-0.031,99.88,2.0,6998.0,0.0,0.0,
2025-08-15T03:37:11.777Z,10,GR86-063-113,2.2,0.25,-0.015,99.89,2.0,,0.0,0.0,121.32
2025-08-15T03:37:11.820Z,10,GR86-063-113,2.2,0.263,-0.033,99.88,2.0,,0.0,0.0,
2025-08-15T03:37:11.864Z,10,GR86-063-113,2.3000000000000003,0.269,-0.054,99.89,2.0,,0.0,0.0,
2025-08-15T03:37:11.906Z,10,GR86-063-113,2.3000000000000003,0.238,-0.03,99.89,2.0,,0.0,0.0,
2025-08-15T03:37:11.949Z,10,GR86-063-113,2.3000000000000003,0.247,-0.039,99.89,2.0,7083.0,0.0,0.0,
2025-08-15T03:37:11.994Z,10,GR86-063-113,2.4000000000000004,0.251,-0.034,99.89,2.0,,0.0,0.0,122.56
2025-08-15T03:37:12.037Z,10,GR86-063-113,2.3000000000000003,0.273,-0.061,99.9,2.0,,0.0,0.0,
2025-08-15T03:37:12.080Z,10,GR86-063-113,2.3000000000000003,0.247,-0.045,99.88,2.0,,0.0,0.0,
2025-08-15T03:37:12.126Z,10,GR86-063-113,2.2,0.228,-0.045,99.92,2.0,,0.0,0.0,
2025-08-15T03:37:12.168Z,10,GR86-063-113,2.2,0.262,-0.056,99.89,2.0,7155.0,0.0,0.0,
2025-08-15T03:37:12.211Z,10,GR86-063-113,2.1,0.253,-0.049,99.88,2.0,,0.0,0.0,123.71
2025-08-15T03:37:12.254Z,10,GR86-063-113,1.9,0.254,-0.055,99.9,2.0,,0.0,0.0,
2025-08-15T03:37:12.297Z,10,GR86-063-113,1.7000000000000002,0.234,-0.053,99.89,2.0,,0.0,0.0,
2025-08-15T03:37:12.340Z,10,GR86-063-113,1.6,0.245,-0.09,99.9,2.0,,0.0,0.0,
2025-08-15T03:37:12.384Z,10,GR86-063-113,1.6,0.254,-0.09,99.88,2.0,7218.0,0.0,0.0,
2025-08-15T03:37:12.426Z,10,GR86-063-113,1.6,0.243,-0.076,99.88,2.0,,0.0,0.0,126.02
2025-08-15T03:37:12.469Z,10,GR86-063-113,1.8,0.23,-0.082,99.89,2.0,,0.0,0.0,
2025-08-15T03:37:12.515Z,10,GR86-063-113,1.9,0.208,-0.072,99.89,2.0,,0.0,0.0,
2025-08-15T03:37:12.558Z,10,GR86-063-113,1.9,0.215,-0.106,99.9,2.0,,0.0,0.0,
2025-08-15T03:37:12.601Z,10,GR86-063-113,2.0,0.179,-0.075,99.89,2.0,7283.0,0.0,0.0,
2025-08-15T03:37:12.644Z,10,GR86-063-113,2.0,0.083,-0.071,99.89,2.0,,0.0,0.0,127.13
2025-08-15T03:37:12.687Z,10,GR86-063-113,1.9,-0.096,-0.059,99.89,3.0,,0.0,0.0,
2025-08-15T03:37:12.730Z,10,GR86-063-113,1.9,0.606,-0.05,99.88,3.0,,0.0,0.0,
2025-08-15T03:37:12.774Z,10,GR86-063-113,2.5,0.476,-0.1,99.89,3.0,,0.0,0.0,
2025-08-15T03:37:12.817Z,10,GR86-063-113,2.5,0.25,0.022,99.89,3.0,5983.0,0.0,0.0,
2025-08-15T03:37:12.860Z,10,GR86-063-113,2.5,0.039,-0.076,99.88,3.0,,0.0,0.0,127.72
2025-08-15T03:37:12.904Z,10,GR86-063-113,2.6,0.128,-0.071,99.9,3.0,,0.0,0.0,
2025-08-15T03:37:12.946Z,10,GR86-063-113,2.6,0.25,0.023,99.91,3.0,,0.0,0.0,
2025-08-15T03:37:12.989Z,10,GR86-063-113,2.6,0.282,-0.054,99.9,3.0,,0.0,0.0,
2025-08-15T03:37:13.034Z,10,GR86-063-113,2.6,0.182,0.022,99.91,3.0,6035.0,0.0,0.0,
2025-08-15T03:37:13.076Z,10,GR86-063-113,2.7,0.179,-0.038,99.9,3.0,,0.0,0.0,129.1
2025-08-15T03:37:13.119Z,10,GR86-063-113,3.1,0.223,-0.026,99.89,3.0,,0.0,0.0,
2025-08-15T03:37:13.164Z,10,GR86-063-113,3.6,0.22,0.011,99.9,3.0,,0.0,0.0,
2025-08-15T03:37:13.250Z,10,GR86-063-113,3.6,0.232,-0.006,99.89,3.0,6086.0,0.0,0.0,
2025-08-15T03:37:13.294Z,10,GR86-063-113,3.6,0.217,-0.017,99.9,3.0,,0.0,0.0,129.92000000000002
2025-08-15T03:37:13.337Z,10,GR86-063-113,3.6,0.213,-0.006,99.88,3.0,,0.0,0.0,
2025-08-15T03:37:13.380Z,10,GR86-063-113,3.6,0.206,0.019,99.88,3.0,,0.0,0.0,
2025-08-15T03:37:13.425Z,10,GR86-063-113,3.7,0.214,0.015,99.88,3.0,,0.0,0.0,
2025-08-15T03:37:13.468Z,10,GR86-063-113,3.9,0.232,0.01,99.89,3.0,6139.0,0.0,0.0,
2025-08-15T03:37:13.511Z,10,GR86-063-113,4.0,0.197,0.031,99.88,3.0,,0.0,0.0,130.8
2025-08-15T03:37:13.554Z,10,GR86-063-113,4.0,0.2,0.039,99.89,3.0,,0.0,0.0,
2025-08-15T03:37:13.597Z,10,GR86-063-113,4.2,0.208,0.047,99.88,3.0,,4.44,4.625,
2025-08-15T03:37:13.640Z,10,GR86-063-113,4.5,0.189,0.049,63.620000000000005,3.0,,9.845,10.025,
2025-08-15T03:37:13.684Z,10,GR86-063-113,4.7,0.088,0.041,15.88,3.0,6174.0,14.85,14.91,
2025-08-15T03:37:13.727Z,10,GR86-063-113,5.0,-0.002,0.055,5.22,3.0,,19.61,19.485,131.73
2025-08-15T03:37:13.770Z,10,GR86-063-113,5.1000000000000005,-0.143,0.058,5.1000000000000005,3.0,,23.655,23.62,
2025-08-15T03:37:13.814Z,10,GR86-063-113,5.1000000000000005,-0.416,0.097,9.45,3.0,,29.27,29.055,
2025-08-15T03:37:13.857Z,10,GR86-063-113,5.2,-0.634,0.044,50.61,3.0,,33.62,33.28,
2025-08-15T03:37:13.900Z,10,GR86-063-113,5.300000000000001,-0.725,0.081,95.75,3.0,5812.0,38.285,37.83,
2025-08-15T03:37:13.944Z,10,GR86-063-113,5.7,-0.72,0.119,95.25,2.0,,41.555,41.37,131.77
2025-08-15T03:37:13.986Z,10,GR86-063-113,6.4,-0.765,0.031,31.74,2.0,,42.895,42.545,
2025-08-15T03:37:14.029Z,10,GR86-063-113,6.5,-0.806,0.108,3.43,2.0,,44.085,45.37,
2025-08-15T03:37:14.074Z,10,GR86-063-113,6.5,-0.786,0.046,2.88,2.0,,43.92,44.435,
2025-08-15T03:37:14.117Z,10,GR86-063-113,6.6000000000000005,-0.918,0.115,2.76,2.0,6248.0,42.605,43.17,
2025-08-15T03:37:14.160Z,10,GR86-063-113,6.7,-0.774,0.23,2.7,2.0,,43.795,45.155,128.09
2025-08-15T03:37:14.204Z,10,GR86-063-113,8.5,-0.8200000000000001,0.117,2.63,2.0,,43.585,43.95,
2025-08-15T03:37:14.247Z,10,GR86-063-113,12.2,-0.91,0.271,2.58,2.0,,42.575,42.835,
2025-08-15T03:37:14.290Z,10,GR86-063-113,14.1,-0.907,0.338,2.54,2.0,,43.765,44.94,
2025-08-15T03:37:14.334Z,10,GR86-063-113,14.4,-0.963,0.345,2.52,2.0,6323.0,42.055,42.36,
2025-08-15T03:37:14.377Z,10,GR86-063-113,14.6,-0.843,0.437,2.5,2.0,,39.75,40.18,121.43
2025-08-15T03:37:14.420Z,10,GR86-063-113,15.3,-0.778,0.43,2.5,2.0,,35.31,36.61,
2025-08-15T03:37:14.465Z,10,GR86-063-113,18.8,-0.739,0.461,2.47,2.0,,32.595,33.845,
2025-08-15T03:37:14.507Z,10,GR86-063-113,24.3,-0.741,0.552,2.47,2.0,,31.205,32.17,
2025-08-15T03:37:14.594Z,10,GR86-063-113,36.7,-0.648,0.633,2.48,2.0,6338.0,28.69,29.865,117.14
2025-08-15T03:37:14.636Z,10,GR86-063-113,39.0,-0.654,0.655,2.47,2.0,,25.805,26.905,
2025-08-15T03:37:14.680Z,10,GR86-063-113,40.2,-0.599,0.724,2.47,2.0,,21.15,22.22,
2025-08-15T03:37:14.769Z,10,GR86-063-113,41.0,-0.488,0.803,2.47,2.0,6052.0,14.51,15.43,
2025-08-15T03:37:14.814Z,10,GR86-063-113,44.900000000000006,-0.24,0.876,2.48,2.0,,0.0,0.0,107.61
2025-08-15T03:37:14.857Z,10,GR86-063-113,46.1,-0.19,0.902,2.47,2.0,,0.0,0.0,
2025-08-15T03:37:14.900Z,10,GR86-063-113,46.0,-0.158,0.937,2.47,2.0,,0.0,0.0,
2025-08-15T03:37:14.944Z,10,GR86-063-113,45.6,-0.135,0.97,2.47,2.0,,0.0,0.0,
2025-08-15T03:37:14.986Z,10,GR86-063-113,47.3,-0.16,0.972,2.47,2.0,5822.0,0.0,0.0,
2025-08-15T03:37:15.029Z,10,GR86-063-113,53.400000000000006,-0.158,0.99,2.47,2.0,,0.0,0.0,105.86
2025-08-15T03:37:15.074Z,10,GR86-063-113,66.7,-0.158,1.024,2.48,2.0,,0.0,0.0,
2025-08-15T03:37:15.117Z,10,GR86-063-113,74.10000000000001,-0.163,1.082,2.47,2.0,,0.0,0.0,
2025-08-15T03:37:15.160Z,10,GR86-063-113,77.60000000000001,-0.168,1.064,2.47,2.0,,0.0,0.0,
2025-08-15T03:37:15.204Z,10,GR86-063-113,77.4,-0.164,1.054,2.48,2.0,5807.0,0.0,0.0,
2025-08-15T03:37:15.246Z,10,GR86-063-113,72.2,-0.171,1.087,2.48,2.0,,0.0,0.0,104.22
2025-08-15T03:37:15.289Z,10,GR86-063-113,63.0,-0.17,1.059,2.48,2.0,,0.0,0.0,
2025-08-15T03:37:15.334Z,10,GR86-063-113,49.900000000000006,-0.159,1.102,2.48,2.0,,0.0,0.0,
2025-08-15T03:37:15.377Z,10,GR86-063-113,45.400000000000006,-0.16,1.12,2.48,2.0,,0.0,0.0,
2025-08-15T03:37:15.420Z,10,GR86-063-113,44.3,-0.146,1.122,2.47,2.0,5629.0,0.0,0.0,
2025-08-15T03:37:15.464Z,10,GR86-063-113,45.1,-0.163,1.146,2.49,2.0,,0.0,0.0,102.79
2025-08-15T03:37:15.506Z,10,GR86-063-113,48.7,-0.15,1.19,2.48,2.0,,0.0,0.0,
2025-08-15T03:37:15.594Z,10,GR86-063-113,59.2,-0.164,1.211,2.49,2.0,,0.0,0.0,
2025-08-15T03:37:15.637Z,10,GR86-063-113,53.3,-0.157,1.149,2.48,2.0,5552.0,0.0,0.0,
2025-08-15T03:37:15.726Z,10,GR86-063-113,53.2,-0.178,1.253,2.51,2.0,,0.0,0.0,101.66
2025-08-15T03:37:15.768Z,10,GR86-063-113,45.5,-0.166,1.235,2.62,2.0,,0.0,0.0,
2025-08-15T03:37:15.811Z,10,GR86-063-113,52.0,-0.162,1.233,2.73,2.0,,0.0,0.0,
2025-08-15T03:37:15.854Z,10,GR86-063-113,67.60000000000001,-0.16,1.22,2.89,2.0,5446.0,0.0,0.0,
2025-08-15T03:37:15.897Z,10,GR86-063-113,77.30000000000001,-0.185,1.271,2.98,2.0,,0.0,0.0,99.98
2025-08-15T03:37:15.940Z,10,GR86-063-113,84.0,-0.168,1.197,3.42,2.0,,0.0,0.0,
2025-08-15T03:37:15.984Z,10,GR86-063-113,87.80000000000001,-0.192,1.262,4.72,2.0,,0.0,0.0,
2025-08-15T03:37:16.026Z,10,GR86-063-113,89.4,-0.182,1.196,9.06,2.0,,0.0,0.0,
2025-08-15T03:37:16.069Z,10,GR86-063-113,89.9,-0.2,1.233,19.15,2.0,5366.0,0.0,0.0,
2025-08-15T03:37:16.115Z,10,GR86-063-113,90.1,-0.18,1.312,23.32,2.0,,0.0,0.0,98.34
2025-08-15T03:37:16.158Z,10,GR86-063-113,89.80000000000001,-0.168,1.34,28.94,2.0,,0.0,0.0,
2025-08-15T03:37:16.201Z,10,GR86-063-113,86.60000000000001,-0.153,1.386,38.41,2.0,,0.0,0.0,
2025-08-15T03:37:16.244Z,10,GR86-063-113,80.7,-0.126,1.272,57.57,2.0,,0.0,0.0,
2025-08-15T03:37:16.287Z,10,GR86-063-113,73.60000000000001,-0.076,1.371,93.17,2.0,5365.0,0.0,0.0,
2025-08-15T03:37:16.330Z,10,GR86-063-113,65.60000000000001,0.196,1.296,99.53,2.0,,0.0,0.0,96.48
2025-08-15T03:37:16.374Z,10,GR86-063-113,53.400000000000006,0.277,1.179,99.84,2.0,,0.0,0.0,
2025-08-15T03:37:16.460Z,10,GR86-063-113,39.400000000000006,0.27,1.1,99.85,2.0,,0.0,0.0,
2025-08-15T03:37:16.504Z,10,GR86-063-113,36.6,0.263,1.167,99.86,2.0,5776.0,0.0,0.0,
2025-08-15T03:37:16.546Z,10,GR86-063-113,45.900000000000006,0.344,1.245,99.85,2.0,,0.0,0.0,95.55
2025-08-15T03:37:16.589Z,10,GR86-063-113,32.5,0.247,1.189,99.85,2.0,,0.0,0.0,
2025-08-15T03:37:16.634Z,10,GR86-063-113,30.6,0.284,1.208,99.86,2.0,,0.0,0.0,
2025-08-15T03:37:16.677Z,10,GR86-063-113,32.800000000000004,0.282,1.152,99.87,2.0,,0.0,0.0,
2025-08-15T03:37:16.720Z,10,GR86-063-113,36.0,0.295,1.151,99.86,2.0,5784.0,0.0,0.0,
2025-08-15T03:37:16.764Z,10,GR86-063-113,33.9,0.246,1.123,99.85,2.0,,0.0,0.0,96.24
2025-08-15T03:37:16.807Z,10,GR86-063-113,15.5,0.232,1.19,99.85,2.0,,0.0,0.0,
2025-08-15T03:37:16.850Z,10,GR86-063-113,3.7,0.279,1.146,99.86,2.0,,0.0,0.0,
2025-08-15T03:37:16.894Z,10,GR86-063-113,2.3000000000000003,0.313,1.088,99.88,2.0,,0.0,0.0,
2025-08-15T03:37:16.937Z,10,GR86-063-113,19.6,0.294,1.089,99.88,2.0,5858.0,0.0,0.0,
2025-08-15T03:37:16.980Z,10,GR86-063-113,32.800000000000004,0.299,1.119,99.88,2.0,,0.0,0.0,97.51
2025-08-15T03:37:17.025Z,10,GR86-063-113,49.1,0.277,1.21,99.88,2.0,,0.0,0.0,
2025-08-15T03:37:17.068Z,10,GR86-063-113,62.1,0.267,1.21,99.88,2.0,,0.0,0.0,
2025-08-15T03:37:17.111Z,10,GR86-063-113,73.9,0.249,1.236,99.88,2.0,,0.0,0.0,
2025-08-15T03:37:17.154Z,10,GR86-063-113,82.10000000000001,0.261,1.167,99.88,2.0,5886.0,0.0,0.0,
2025-08-15T03:37:17.197Z,10,GR86-063-113,86.4,0.268,1.124,99.86,2.0,,0.0,0.0,98.96
2025-08-15T03:37:17.240Z,10,GR86-063-113,89.80000000000001,0.245,1.129,99.86,2.0,,0.0,0.0,
2025-08-15T03:37:17.284Z,10,GR86-063-113,90.9,0.204,1.127,96.42,2.0,,0.0,0.0,
2025-08-15T03:37:17.327Z,10,GR86-063-113,91.5,0.219,1.107,37.35,2.0,,0.0,0.0,
2025-08-15T03:37:17.370Z,10,GR86-063-113,91.5,0.219,1.077,3.16,2.0,5936.0,0.0,0.0,
2025-08-15T03:37:17.457Z,10,GR86-063-113,89.4,0.169,1.061,6.71,2.0,,0.0,0.0,101.22
2025-08-15T03:37:17.500Z,10,GR86-063-113,74.7,-0.116,1.219,26.18,2.0,,0.0,0.0,
2025-08-15T03:37:17.544Z,10,GR86-063-113,69.8,-0.133,1.2,28.66,2.0,,0.0,0.0,
2025-08-15T03:37:17.586Z,10,GR86-063-113,68.9,-0.136,1.265,32.07,2.0,6007.0,0.0,0.0,
2025-08-15T03:37:17.629Z,10,GR86-063-113,68.9,-0.11,1.308,34.38,2.0,,0.0,0.0,102.74
2025-08-15T03:37:17.674Z,10,GR86-063-113,65.9,0.186,1.257,66.94,2.0,,0.0,0.0,
2025-08-15T03:37:17.717Z,10,GR86-063-113,60.7,0.223,1.214,99.04,2.0,,0.0,0.0,
2025-08-15T03:37:17.760Z,10,GR86-063-113,55.8,0.28,1.148,99.85,2.0,,0.0,0.0,
2025-08-15T03:37:17.804Z,10,GR86-063-113,54.3,0.228,0.991,99.86,2.0,5837.0,0.0,0.0,
2025-08-15T03:37:17.847Z,10,GR86-063-113,56.900000000000006,0.278,1.056,99.86,2.0,,0.0,0.0,102.87
2025-08-15T03:37:17.890Z,10,GR86-063-113,59.900000000000006,0.264,0.627,99.86,2.0,,0.0,0.0,
2025-08-15T03:37:17.934Z,10,GR86-063-113,72.10000000000001,0.335,0.599,99.86,2.0,,0.0,0.0,
2025-08-15T03:37:17.977Z,10,GR86-063-113,74.3,0.155,0.936,99.88,2.0,,0.0,0.0,
2025-08-15T03:37:18.020Z,10,GR86-063-113,74.60000000000001,0.18,1.131,99.88,2.0,6164.0,0.0,0.0,
2025-08-15T03:37:18.065Z,10,GR86-063-113,65.8,0.236,1.211,99.86,2.0,,0.0,0.0,103.52
2025-08-15T03:37:18.107Z,10,GR86-063-113,57.5,0.187,1.184,99.85,2.0,,0.0,0.0,
2025-08-15T03:37:18.150Z,10,GR86-063-113,47.5,0.232,1.164,99.89,2.0,,0.0,0.0,
2025-08-15T03:37:18.194Z,10,GR86-063-113,34.6,0.048,1.032,99.89,2.0,,0.0,0.0,
2025-08-15T03:37:18.237Z,10,GR86-063-113,24.1,-0.117,0.944,99.88,2.0,6322.0,0.0,0.0,
2025-08-15T03:37:18.280Z,10,GR86-063-113,14.4,0.055,0.937,99.88,2.0,,0.0,0.0,105.2
2025-08-15T03:37:18.326Z,10,GR86-063-113,6.1000000000000005,0.239,0.922,99.89,2.0,,0.0,0.0,
2025-08-15T03:37:18.368Z,10,GR86-063-113,2.5,0.493,0.868,99.89,2.0,,0.0,0.0,
2025-08-15T03:37:18.411Z,10,GR86-063-113,6.9,0.659,0.839,99.89,2.0,,0.0,0.0,
2025-08-15T03:37:18.454Z,10,GR86-063-113,27.8,0.153,0.711,99.89,2.0,6321.0,0.0,0.0,
2025-08-15T03:37:18.497Z,10,GR86-063-113,34.6,0.212,0.6960000000000001,99.89,2.0,,0.0,0.0,107.03
2025-08-15T03:37:18.540Z,10,GR86-063-113,33.5,0.297,0.753,99.87,2.0,,0.0,0.0,
2025-08-15T03:37:18.583Z,10,GR86-063-113,28.5,0.257,0.74,99.89,2.0,,0.0,0.0,
2025-08-15T03:37:18.626Z,10,GR86-063-113,26.0,0.308,0.733,99.89,2.0,,0.0,0.0,
2025-08-15T03:37:18.669Z,10,GR86-063-113,27.4,0.355,0.605,99.89,2.0,6362.0,0.0,0.0,
2025-08-15T03:37:18.714Z,10,GR86-063-113,37.7,0.182,0.582,99.88,2.0,,0.0,0.0,107.25
2025-08-15T03:37:18.757Z,10,GR86-063-113,43.400000000000006,0.148,0.458,99.88,2.0,,0.0,0.0,
2025-08-15T03:37:18.800Z,10,GR86-063-113,44.5,0.207,0.599,99.89,2.0,,0.0,0.0,
2025-08-15T03:37:18.844Z,10,GR86-063-113,42.3,0.216,0.6980000000000001,99.87,2.0,,0.0,0.0,
2025-08-15T03:37:18.886Z,10,GR86-063-113,34.5,0.33,0.67,99.88,2.0,6444.0,0.0,0.0,
2025-08-15T03:37:18.929Z,10,GR86-063-113,25.0,0.446,0.769,99.9,2.0,,0.0,0.0,109.6
2025-08-15T03:37:18.974Z,10,GR86-063-113,18.8,0.006,0.5700000000000001,99.89,2.0,,0.0,0.0,
2025-08-15T03:37:19.017Z,10,GR86-063-113,20.0,0.048,0.625,99.91,2.0,,0.0,0.0,
2025-08-15T03:37:19.060Z,10,GR86-063-113,26.0,0.179,0.5680000000000001,99.88,2.0,,0.0,0.0,
2025-08-15T03:37:19.104Z,10,GR86-063-113,29.4,0.231,0.66,99.88,2.0,6532.0,0.0,0.0,
2025-08-15T03:37:19.146Z,10,GR86-063-113,30.0,0.296,0.527,99.9,2.0,,0.0,0.0,111.66
2025-08-15T03:37:19.189Z,10,GR86-063-113,25.700000000000003,0.272,0.66,99.88,2.0,,0.0,0.0,
2025-08-15T03:37:19.234Z,10,GR86-063-113,13.8,0.252,0.398,99.89,2.0,,0.0,0.0,
2025-08-15T03:37:19.277Z,10,GR86-063-113,11.8,0.261,0.518,99.89,2.0,,0.0,0.0,
2025-08-15T03:37:19.320Z,10,GR86-063-113,12.1,0.17,0.243,99.89,2.0,6733.0,0.0,0.0,
2025-08-15T03:37:19.364Z,10,GR86-063-113,12.3,0.157,0.289,99.89,2.0,,0.0,0.0,113.74
