timestamp,lap,vehicle_id,steering_angle,accx_can,accy_can,ath,gear,nmot,pbrake_f,pbrake_r,speed
2025-08-15T02:10:39.148Z,9,GR86-006-7,9.2,0.114,0.152,99.84,5.0,6343.0,0.0,0.0,
2025-08-15T02:10:39.191Z,9,GR86-006-7,9.5,0.103,0.22,99.83,5.0,,0.0,0.0,186.71
2025-08-15T02:10:39.234Z,9,GR86-006-7,10.8,0.105,0.276,99.83,5.0,,0.0,0.0,
2025-08-15T02:10:39.277Z,9,GR86-006-7,12.6,0.1,0.317,99.85,5.0,,0.0,0.0,
2025-08-15T02:10:39.320Z,9,GR86-006-7,13.7,0.107,0.356,99.86,5.0,,0.0,0.0,
2025-08-15T02:10:39.363Z,9,GR86-006-7,14.7,0.076,0.401,99.87,5.0,6366.0,0.0,0.0,
2025-08-15T02:10:39.406Z,9,GR86-006-7,14.3,0.105,0.438,99.86,5.0,,0.0,0.0,187.35
2025-08-15T02:10:39.449Z,9,GR86-006-7,13.5,0.096,0.451,99.86,5.0,,0.0,0.0,
2025-08-15T02:10:39.492Z,9,GR86-006-7,12.8,0.112,0.44,99.83,5.0,,0.0,0.0,
2025-08-15T02:10:39.535Z,9,GR86-006-7,12.5,0.094,0.416,99.82,5.0,,0.0,0.0,
2025-08-15T02:10:39.579Z,9,GR86-006-7,12.5,0.105,0.413,99.86,5.0,6393.0,0.0,0.0,
2025-08-15T02:10:39.622Z,9,GR86-006-7,12.5,0.125,0.392,99.85,5.0,,0.0,0.0,188.12
2025-08-15T02:10:39.665Z,9,GR86-006-7,12.4,0.112,0.334,99.85,5.0,,0.0,0.0,
2025-08-15T02:10:39.708Z,9,GR86-006-7,12.4,0.106,0.341,99.85,5.0,,0.0,0.0,
2025-08-15T02:10:39.751Z,9,GR86-006-7,12.4,0.11,0.336,99.83,5.0,,0.0,0.0,
2025-08-15T02:10:39.794Z,9,GR86-006-7,12.2,0.104,0.303,99.86,5.0,6421.0,0.0,0.0,
2025-08-15T02:10:39.837Z,9,GR86-006-7,12.1,0.119,0.312,99.84,5.0,,0.0,0.0,188.89
2025-08-15T02:10:39.880Z,9,GR86-006-7,12.1,0.097,0.286,99.86,5.0,,0.0,0.0,
2025-08-15T02:10:39.923Z,9,GR86-006-7,12.0,0.109,0.337,99.87,5.0,,0.0,0.0,
2025-08-15T02:10:39.966Z,9,GR86-006-7,12.0,0.112,0.329,99.87,5.0,,0.0,0.0,
2025-08-15T02:10:40.009Z,9,GR86-006-7,11.9,0.112,0.28,99.82,5.0,6443.0,0.0,0.0,
2025-08-15T02:10:40.052Z,9,GR86-006-7,11.8,0.115,0.275,99.83,5.0,,0.0,0.0,189.58
2025-08-15T02:10:40.095Z,9,GR86-006-7,11.8,0.088,0.255,99.86,5.0,,0.0,0.0,
2025-08-15T02:10:40.138Z,9,GR86-006-7,11.7,0.117,0.262,99.86,5.0,,0.0,0.0,
2025-08-15T02:10:40.181Z,9,GR86-006-7,11.6,0.099,0.283,99.85,5.0,,0.0,0.0,
2025-08-15T02:10:40.224Z,9,GR86-006-7,11.6,0.102,0.268,99.86,5.0,6460.0,0.0,0.0,
2025-08-15T02:10:40.311Z,9,GR86-006-7,11.6,0.102,0.248,99.83,5.0,,0.0,0.0,190.3
2025-08-15T02:10:40.354Z,9,GR86-006-7,11.5,0.108,0.262,99.86,5.0,,0.0,0.0,
2025-08-15T02:10:40.398Z,9,GR86-006-7,11.5,0.101,0.242,99.87,5.0,,0.0,0.0,
2025-08-15T02:10:40.441Z,9,GR86-006-7,11.4,0.104,0.244,99.86,5.0,6498.0,0.0,0.0,
2025-08-15T02:10:40.484Z,9,GR86-006-7,11.3,0.095,0.231,99.83,5.0,,0.0,0.0,191.0
2025-08-15T02:10:40.527Z,9,GR86-006-7,11.3,0.099,0.241,99.82,5.0,,0.0,0.0,
2025-08-15T02:10:40.570Z,9,GR86-006-7,11.3,0.102,0.262,99.86,5.0,,0.0,0.0,
2025-08-15T02:10:40.614Z,9,GR86-006-7,11.3,0.114,0.263,99.87,5.0,,0.0,0.0,
2025-08-15T02:10:40.657Z,9,GR86-006-7,11.3,0.091,0.249,99.84,5.0,6511.0,0.0,0.0,
2025-08-15T02:10:40.700Z,9,GR86-006-7,11.3,0.102,0.277,99.84,5.0,,0.0,0.0,191.88
2025-08-15T02:10:40.743Z,9,GR86-006-7,11.3,0.11,0.268,99.82,5.0,,0.0,0.0,
2025-08-15T02:10:40.786Z,9,GR86-006-7,11.2,0.104,0.297,99.85,5.0,,0.0,0.0,
2025-08-15T02:10:40.829Z,9,GR86-006-7,11.1,0.097,0.284,99.88,5.0,,0.0,0.0,
2025-08-15T02:10:40.874Z,9,GR86-006-7,11.1,0.11,0.312,99.86,5.0,6547.0,0.0,0.0,
2025-08-15T02:10:40.918Z,9,GR86-006-7,11.0,0.104,0.325,99.84,5.0,,0.0,0.0,193.27
2025-08-15T02:10:40.961Z,9,GR86-006-7,10.9,0.108,0.313,99.86,5.0,,0.0,0.0,
2025-08-15T02:10:41.004Z,9,GR86-006-7,10.7,0.112,0.319,99.86,5.0,,0.0,0.0,
2025-08-15T02:10:41.047Z,9,GR86-006-7,10.7,0.122,0.281,99.87,5.0,,0.0,0.0,
2025-08-15T02:10:41.090Z,9,GR86-006-7,10.6,0.078,0.247,99.86,5.0,6566.0,0.0,0.0,
2025-08-15T02:10:41.133Z,9,GR86-006-7,10.5,0.107,0.212,99.83,5.0,,0.0,0.0,193.99
2025-08-15T02:10:41.176Z,9,GR86-006-7,10.2,0.136,0.212,99.86,5.0,,0.0,0.0,
2025-08-15T02:10:41.219Z,9,GR86-006-7,10.1,0.108,0.205,99.87,5.0,,0.0,0.0,
2025-08-15T02:10:41.263Z,9,GR86-006-7,10.0,0.1,0.184,99.84,5.0,,0.0,0.0,
2025-08-15T02:10:41.349Z,9,GR86-006-7,9.1,0.09,0.142,99.86,5.0,6591.0,0.0,0.0,194.65
2025-08-15T02:10:41.392Z,9,GR86-006-7,6.5,0.108,0.082,99.87,5.0,,0.0,0.0,
2025-08-15T02:10:41.435Z,9,GR86-006-7,4.4,0.106,0.085,99.86,5.0,,0.0,0.0,
2025-08-15T02:10:41.479Z,9,GR86-006-7,2.0,0.095,0.055,99.84,5.0,,0.0,0.0,
2025-08-15T02:10:41.522Z,9,GR86-006-7,-0.7000000000000001,0.113,-0.019,99.86,5.0,6640.0,0.0,0.0,
2025-08-15T02:10:41.565Z,9,GR86-006-7,-3.2,0.089,-0.062,99.86,5.0,,0.0,0.0,195.35
2025-08-15T02:10:41.608Z,9,GR86-006-7,-5.4,0.09,-0.147,99.86,5.0,,0.0,0.0,
2025-08-15T02:10:41.651Z,9,GR86-006-7,-6.300000000000001,0.096,-0.232,99.82,5.0,,0.0,0.0,
2025-08-15T02:10:41.737Z,9,GR86-006-7,-6.300000000000001,0.107,-0.343,99.86,5.0,6658.0,0.0,0.0,
2025-08-15T02:10:41.780Z,9,GR86-006-7,-6.9,0.103,-0.478,99.83,5.0,,0.0,0.0,196.08
2025-08-15T02:10:41.823Z,9,GR86-006-7,-6.7,0.092,-0.524,99.82,5.0,,0.0,0.0,
2025-08-15T02:10:41.866Z,9,GR86-006-7,-6.5,0.083,-0.562,99.83,5.0,,0.0,0.0,
2025-08-15T02:10:41.909Z,9,GR86-006-7,-6.4,0.099,-0.555,99.85,5.0,,0.0,0.0,
2025-08-15T02:10:41.954Z,9,GR86-006-7,-6.300000000000001,0.105,-0.536,99.86,5.0,6685.0,0.0,0.0,
2025-08-15T02:10:41.998Z,9,GR86-006-7,-6.2,0.105,-0.538,99.85,5.0,,0.0,0.0,196.79
2025-08-15T02:10:42.041Z,9,GR86-006-7,-6.2,0.097,-0.524,99.86,5.0,,0.0,0.0,
2025-08-15T02:10:42.127Z,9,GR86-006-7,-6.1000000000000005,0.095,-0.514,99.86,5.0,,0.0,0.0,
2025-08-15T02:10:42.170Z,9,GR86-006-7,-4.1000000000000005,0.108,-0.45,99.83,5.0,6717.0,0.0,0.0,
2025-08-15T02:10:42.213Z,9,GR86-006-7,-2.1,0.111,-0.351,99.83,5.0,,0.0,0.0,197.58
2025-08-15T02:10:42.257Z,9,GR86-006-7,-1.5,0.096,-0.311,99.86,5.0,,0.0,0.0,
2025-08-15T02:10:42.300Z,9,GR86-006-7,-1.4,0.094,-0.261,99.83,5.0,,0.0,0.0,
2025-08-15T02:10:42.343Z,9,GR86-006-7,-1.4,0.083,-0.216,99.83,5.0,,0.0,0.0,
2025-08-15T02:10:42.386Z,9,GR86-006-7,-1.3,0.082,-0.176,99.84,5.0,6740.0,0.0,0.0,
2025-08-15T02:10:42.429Z,9,GR86-006-7,-1.3,0.08,-0.125,99.84,5.0,,0.0,0.0,198.22
2025-08-15T02:10:42.472Z,9,GR86-006-7,-1.3,0.092,-0.078,99.86,5.0,,0.0,0.0,
2025-08-15T02:10:42.516Z,9,GR86-006-7,-1.3,0.088,-0.033,99.85,5.0,,0.0,0.0,
2025-08-15T02:10:42.561Z,9,GR86-006-7,-1.3,0.083,-0.02,99.86,5.0,,0.0,0.0,
2025-08-15T02:10:42.647Z,9,GR86-006-7,-1.3,0.08,-0.075,99.84,5.0,6760.0,0.0,0.0,198.95
2025-08-15T02:10:42.690Z,9,GR86-006-7,-1.3,0.103,-0.072,99.86,5.0,,0.0,0.0,
2025-08-15T02:10:42.733Z,9,GR86-006-7,-1.2000000000000002,0.097,-0.106,99.84,5.0,,0.0,0.0,
2025-08-15T02:10:42.776Z,9,GR86-006-7,-1.1,0.081,-0.123,99.86,5.0,,0.0,0.0,
2025-08-15T02:10:42.819Z,9,GR86-006-7,-1.1,0.088,-0.135,99.84,5.0,6774.0,0.0,0.0,
2025-08-15T02:10:42.862Z,9,GR86-006-7,-1.1,0.087,-0.145,99.87,5.0,,0.0,0.0,199.49
2025-08-15T02:10:42.905Z,9,GR86-006-7,-1.1,0.102,-0.153,99.83,5.0,,0.0,0.0,
2025-08-15T02:10:42.948Z,9,GR86-006-7,-1.1,0.099,-0.161,99.83,5.0,,0.0,0.0,
2025-08-15T02:10:42.991Z,9,GR86-006-7,-1.0,0.093,-0.148,99.83,5.0,,0.0,0.0,
2025-08-15T02:10:43.034Z,9,GR86-006-7,-1.0,0.09,-0.143,99.84,5.0,6805.0,0.0,0.0,
2025-08-15T02:10:43.077Z,9,GR86-006-7,-0.7000000000000001,0.09,-0.145,99.83,5.0,,0.0,0.0,200.19
2025-08-15T02:10:43.120Z,9,GR86-006-7,-0.2,0.089,-0.124,99.83,5.0,,0.0,0.0,
2025-08-15T02:10:43.163Z,9,GR86-006-7,-0.1,0.099,-0.094,99.84,5.0,,0.0,0.0,
2025-08-15T02:10:43.249Z,9,GR86-006-7,-0.1,0.098,-0.09,99.84,5.0,6829.0,0.0,0.0,
2025-08-15T02:10:43.292Z,9,GR86-006-7,-0.1,0.092,-0.072,99.86,5.0,,0.0,0.0,201.08
2025-08-15T02:10:43.335Z,9,GR86-006-7,-0.1,0.098,-0.049,99.84,5.0,,0.0,0.0,
2025-08-15T02:10:43.378Z,9,GR86-006-7,-0.1,0.084,-0.07,99.83,5.0,,0.0,0.0,
2025-08-15T02:10:43.422Z,9,GR86-006-7,0.0,0.082,-0.044,99.82,5.0,,0.0,0.0,
2025-08-15T02:10:43.468Z,9,GR86-006-7,0.7000000000000001,0.082,-0.062,99.83,5.0,6854.0,0.0,0.0,
2025-08-15T02:10:43.511Z,9,GR86-006-7,1.3,0.056,-0.054,99.83,5.0,,0.0,0.0,201.84
2025-08-15T02:10:43.554Z,9,GR86-006-7,1.6,0.078,-0.038,99.83,5.0,,0.0,0.0,
2025-08-15T02:10:43.598Z,9,GR86-006-7,1.8,0.081,-0.04,99.86,5.0,,0.0,0.0,
2025-08-15T02:10:43.641Z,9,GR86-006-7,1.8,0.074,-0.012,99.83,5.0,,0.0,0.0,
2025-08-15T02:10:43.684Z,9,GR86-006-7,1.8,0.064,0.001,99.86,5.0,6876.0,0.0,0.0,
2025-08-15T02:10:43.727Z,9,GR86-006-7,1.9,0.075,0.024,99.83,5.0,,0.0,0.0,203.33
2025-08-15T02:10:43.770Z,9,GR86-006-7,2.1,0.102,0.03,99.84,5.0,,0.0,0.0,
2025-08-15T02:10:43.813Z,9,GR86-006-7,2.3000000000000003,0.065,0.022,99.84,5.0,,0.0,0.0,
2025-08-15T02:10:43.857Z,9,GR86-006-7,2.3000000000000003,0.068,0.049,99.83,5.0,,0.0,0.0,
2025-08-15T02:10:43.900Z,9,GR86-006-7,2.3000000000000003,0.098,0.078,99.84,5.0,6903.0,0.0,0.0,
2025-08-15T02:10:43.943Z,9,GR86-006-7,2.3000000000000003,0.106,0.045,99.83,5.0,,0.0,0.0,204.03
2025-08-15T02:10:43.986Z,9,GR86-006-7,2.2,0.085,0.056,99.83,5.0,,0.0,0.0,
2025-08-15T02:10:44.072Z,9,GR86-006-7,2.3000000000000003,0.095,0.057,99.83,5.0,,0.0,0.0,
2025-08-15T02:10:44.115Z,9,GR86-006-7,3.7,0.105,0.095,99.83,5.0,6949.0,0.0,0.0,
2025-08-15T02:10:44.158Z,9,GR86-006-7,4.800000000000001,0.091,0.089,99.83,5.0,,0.0,0.0,204.77
2025-08-15T02:10:44.201Z,9,GR86-006-7,5.300000000000001,0.07,0.08,99.85,5.0,,0.0,0.0,
2025-08-15T02:10:44.244Z,9,GR86-006-7,5.2,0.096,0.1,99.83,5.0,,0.0,0.0,
2025-08-15T02:10:44.287Z,9,GR86-006-7,5.0,0.071,0.096,99.83,5.0,,0.0,0.0,
2025-08-15T02:10:44.330Z,9,GR86-006-7,4.9,0.079,0.129,99.85,5.0,6976.0,0.0,0.0,
2025-08-15T02:10:44.373Z,9,GR86-006-7,5.0,0.084,0.166,99.84,5.0,,0.0,0.0,205.49
2025-08-15T02:10:44.417Z,9,GR86-006-7,5.0,0.085,0.156,99.87,5.0,,0.0,0.0,
2025-08-15T02:10:44.460Z,9,GR86-006-7,5.0,0.087,0.185,99.84,5.0,,0.0,0.0,
2025-08-15T02:10:44.503Z,9,GR86-006-7,5.0,0.082,0.169,99.83,5.0,,0.0,0.0,
2025-08-15T02:10:44.547Z,9,GR86-006-7,5.0,0.09,0.174,99.83,5.0,6996.0,0.0,0.0,
2025-08-15T02:10:44.590Z,9,GR86-006-7,4.800000000000001,0.09,0.156,99.84,5.0,,0.0,0.0,206.27
2025-08-15T02:10:44.633Z,9,GR86-006-7,4.7,0.098,0.158,99.87,5.0,,0.0,0.0,
2025-08-15T02:10:44.676Z,9,GR86-006-7,4.7,0.075,0.112,99.84,5.0,,0.0,0.0,
2025-08-15T02:10:44.719Z,9,GR86-006-7,4.7,0.104,0.125,99.83,5.0,,0.0,0.0,
2025-08-15T02:10:44.762Z,9,GR86-006-7,4.7,0.078,0.115,99.87,5.0,7021.0,0.0,0.0,
2025-08-15T02:10:44.805Z,9,GR86-006-7,4.800000000000001,0.079,0.106,99.84,5.0,,0.0,0.0,206.96
2025-08-15T02:10:44.849Z,9,GR86-006-7,5.7,0.065,0.134,99.87,5.0,,0.0,0.0,
2025-08-15T02:10:44.892Z,9,GR86-006-7,6.800000000000001,0.059,0.108,99.84,5.0,,0.0,0.0,
2025-08-15T02:10:44.978Z,9,GR86-006-7,7.2,0.07,0.163,99.84,5.0,7049.0,0.0,0.0,
2025-08-15T02:10:45.021Z,9,GR86-006-7,8.6,0.068,0.187,99.84,5.0,,0.0,0.0,207.66
2025-08-15T02:10:45.064Z,9,GR86-006-7,10.6,0.086,0.234,99.83,5.0,,0.0,0.0,
2025-08-15T02:10:45.107Z,9,GR86-006-7,12.2,0.073,0.268,99.85,5.0,,0.0,0.0,
2025-08-15T02:10:45.150Z,9,GR86-006-7,12.4,0.077,0.293,99.84,5.0,,0.0,0.0,
2025-08-15T02:10:45.194Z,9,GR86-006-7,11.8,0.068,0.361,99.84,5.0,7062.0,0.0,0.0,
2025-08-15T02:10:45.237Z,9,GR86-006-7,11.7,0.08,0.372,99.84,5.0,,0.0,0.0,208.34
2025-08-15T02:10:45.280Z,9,GR86-006-7,11.7,0.082,0.42,99.84,5.0,,0.0,0.0,
2025-08-15T02:10:45.323Z,9,GR86-006-7,11.8,0.062,0.45,99.83,5.0,,0.0,0.0,
2025-08-15T02:10:45.366Z,9,GR86-006-7,12.1,0.065,0.443,99.83,5.0,,0.0,0.0,
2025-08-15T02:10:45.409Z,9,GR86-006-7,12.1,0.06,0.405,99.84,5.0,7088.0,0.0,0.0,
2025-08-15T02:10:45.452Z,9,GR86-006-7,11.6,0.069,0.382,99.83,5.0,,0.0,0.0,208.95
2025-08-15T02:10:45.495Z,9,GR86-006-7,11.4,0.083,0.377,99.83,5.0,,0.0,0.0,
2025-08-15T02:10:45.538Z,9,GR86-006-7,11.2,0.088,0.33,99.85,5.0,,0.0,0.0,
2025-08-15T02:10:45.581Z,9,GR86-006-7,11.1,0.073,0.34,99.86,5.0,,0.0,0.0,
2025-08-15T02:10:45.624Z,9,GR86-006-7,10.9,0.083,0.379,99.82,5.0,7109.0,0.0,0.0,
2025-08-15T02:10:45.668Z,9,GR86-006-7,10.8,0.062,0.342,99.84,5.0,,5.0200000000000005,5.34,209.56
2025-08-15T02:10:45.711Z,9,GR86-006-7,10.7,0.019,0.308,99.83,5.0,,5.9350000000000005,6.3950000000000005,
2025-08-15T02:10:45.754Z,9,GR86-006-7,10.5,-0.011,0.216,99.84,5.0,,4.335,5.0200000000000005,
2025-08-15T02:10:45.797Z,9,GR86-006-7,10.1,0.033,0.157,99.84,5.0,,0.0,0.0,
2025-08-15T02:10:45.841Z,9,GR86-006-7,9.6,0.075,0.174,99.84,5.0,7131.0,0.0,0.0,
2025-08-15T02:10:45.884Z,9,GR86-006-7,9.5,0.065,0.126,99.82,5.0,,0.0,0.0,210.07
2025-08-15T02:10:45.927Z,9,GR86-006-7,9.3,0.1,0.091,99.84,5.0,,0.0,0.0,
2025-08-15T02:10:45.970Z,9,GR86-006-7,8.3,0.086,0.114,99.83,5.0,,0.0,1.89,
2025-08-15T02:10:46.013Z,9,GR86-006-7,5.6000000000000005,0.04,0.04,99.84,5.0,,1.8,2.215,
2025-08-15T02:10:46.057Z,9,GR86-006-7,4.2,0.046,0.077,99.83,5.0,7144.0,0.0,0.0,
2025-08-15T02:10:46.100Z,9,GR86-006-7,3.5,0.064,-0.01,99.84,5.0,,0.0,0.0,210.69
2025-08-15T02:10:46.143Z,9,GR86-006-7,3.3000000000000003,0.059,-0.007,99.83,5.0,,0.0,0.0,
2025-08-15T02:10:46.186Z,9,GR86-006-7,3.2,0.095,-0.048,99.85,5.0,,0.0,0.0,
2025-08-15T02:10:46.229Z,9,GR86-006-7,2.7,0.055,-0.084,99.85,5.0,,0.0,0.0,
2025-08-15T02:10:46.274Z,9,GR86-006-7,1.7000000000000002,0.068,-0.158,99.83,5.0,7163.0,0.0,0.0,
2025-08-15T02:10:46.317Z,9,GR86-006-7,1.4,0.069,-0.186,99.83,5.0,,0.0,0.0,211.22
2025-08-15T02:10:46.361Z,9,GR86-006-7,1.0,0.078,-0.189,99.84,5.0,,0.0,0.0,
2025-08-15T02:10:46.404Z,9,GR86-006-7,0.6000000000000001,0.072,-0.198,99.84,5.0,,0.0,0.0,
2025-08-15T02:10:46.447Z,9,GR86-006-7,0.6000000000000001,0.077,-0.229,99.82,5.0,,0.0,0.0,
2025-08-15T02:10:46.490Z,9,GR86-006-7,0.6000000000000001,0.07,-0.247,99.84,5.0,7174.0,0.0,0.0,
2025-08-15T02:10:46.533Z,9,GR86-006-7,0.7000000000000001,0.034,-0.28,99.84,5.0,,3.845,3.97,211.83
2025-08-15T02:10:46.576Z,9,GR86-006-7,0.7000000000000001,0.019,-0.276,99.83,5.0,,4.0600000000000005,4.44,
2025-08-15T02:10:46.619Z,9,GR86-006-7,0.7000000000000001,0.004,-0.249,99.85,5.0,,3.845,4.275,
2025-08-15T02:10:46.662Z,9,GR86-006-7,0.7000000000000001,-0.001,-0.241,99.84,5.0,,2.245,2.76,
2025-08-15T02:10:46.705Z,9,GR86-006-7,0.7000000000000001,0.051,-0.203,99.86,5.0,7186.0,0.0,0.0,
2025-08-15T02:10:46.792Z,9,GR86-006-7,0.9,0.071,-0.164,99.86,5.0,,0.0,0.0,212.31
2025-08-15T02:10:46.835Z,9,GR86-006-7,0.9,0.063,-0.158,99.84,5.0,,0.0,0.0,
2025-08-15T02:10:46.879Z,9,GR86-006-7,0.9,0.08,-0.133,99.84,5.0,,0.0,0.0,
2025-08-15T02:10:46.922Z,9,GR86-006-7,0.9,0.075,-0.122,99.84,5.0,7217.0,0.0,0.0,
2025-08-15T02:10:46.965Z,9,GR86-006-7,0.9,0.077,-0.101,99.83,5.0,,0.0,0.0,212.59
2025-08-15T02:10:47.008Z,9,GR86-006-7,1.0,0.059,-0.074,99.86,5.0,,0.0,0.0,
2025-08-15T02:10:47.051Z,9,GR86-006-7,1.5,0.075,-0.062,99.85,5.0,,0.0,0.0,
2025-08-15T02:10:47.094Z,9,GR86-006-7,1.5,0.069,-0.045,99.82,5.0,,0.0,0.0,
2025-08-15T02:10:47.137Z,9,GR86-006-7,1.4,0.071,-0.042,99.85,5.0,7244.0,0.0,0.0,
2025-08-15T02:10:47.223Z,9,GR86-006-7,1.3,0.065,-0.081,99.83,5.0,,0.0,0.0,213.11
2025-08-15T02:10:47.266Z,9,GR86-006-7,1.4,0.082,-0.094,99.84,5.0,,0.0,0.0,
2025-08-15T02:10:47.309Z,9,GR86-006-7,1.5,0.052,-0.136,99.85,5.0,,0.0,0.0,
2025-08-15T02:10:47.354Z,9,GR86-006-7,1.5,0.045,-0.133,99.83,5.0,7256.0,0.0,0.0,
2025-08-15T02:10:47.397Z,9,GR86-006-7,1.5,0.086,-0.16,99.83,5.0,,0.0,0.0,213.76
2025-08-15T02:10:47.440Z,9,GR86-006-7,1.5,0.051,-0.186,99.86,5.0,,0.0,0.0,
2025-08-15T02:10:47.483Z,9,GR86-006-7,1.5,0.077,-0.161,99.83,5.0,,0.0,0.0,
2025-08-15T02:10:47.526Z,9,GR86-006-7,1.5,0.039,-0.164,62.6,5.0,,2.61,2.73,
2025-08-15T02:10:47.569Z,9,GR86-006-7,1.5,0.018,-0.141,37.97,5.0,7277.0,6.715,6.805,
2025-08-15T02:10:47.613Z,9,GR86-006-7,1.5,-0.136,-0.099,28.38,5.0,,14.3,14.175,214.28
2025-08-15T02:10:47.657Z,9,GR86-006-7,2.5,-0.315,-0.06,4.61,5.0,,21.18,21.03,
2025-08-15T02:10:47.700Z,9,GR86-006-7,2.5,-0.472,-0.019,5.15,5.0,,30.46,30.075,
2025-08-15T02:10:47.743Z,9,GR86-006-7,2.4000000000000004,-0.762,-0.021,4.89,5.0,,39.37,38.93,
2025-08-15T02:10:47.786Z,9,GR86-006-7,2.3000000000000003,-0.851,-0.05,4.68,5.0,7285.0,46.435,45.87,
2025-08-15T02:10:47.829Z,9,GR86-006-7,2.4000000000000004,-1.065,-0.021,4.63,5.0,,51.84,51.275,214.7
2025-08-15T02:10:47.872Z,9,GR86-006-7,2.4000000000000004,-1.109,-0.017,4.3100000000000005,5.0,,55.975,55.67,
2025-08-15T02:10:47.916Z,9,GR86-006-7,2.5,-1.084,-0.046,3.49,5.0,,52.34,53.715,
2025-08-15T02:10:47.960Z,9,GR86-006-7,2.7,-0.996,-0.066,2.93,5.0,,44.345,46.405,
2025-08-15T02:10:48.003Z,9,GR86-006-7,3.2,-0.854,-0.015,2.77,5.0,7146.0,36.775,38.655,
2025-08-15T02:10:48.046Z,9,GR86-006-7,3.4000000000000004,-0.771,-0.014,2.67,5.0,,33.19,34.78,214.02
2025-08-15T02:10:48.089Z,9,GR86-006-7,3.5,-0.756,-0.01,2.63,5.0,,33.315,34.09,
2025-08-15T02:10:48.132Z,9,GR86-006-7,3.5,-0.812,0.006,15.26,5.0,,37.74,37.8,
2025-08-15T02:10:48.175Z,9,GR86-006-7,3.5,-0.911,0.017,59.52,5.0,,45.69,45.275,
2025-08-15T02:10:48.218Z,9,GR86-006-7,3.2,-1.06,-0.016,81.0,4.0,6756.0,53.09,52.435,
2025-08-15T02:10:48.261Z,9,GR86-006-7,3.2,-1.218,-0.013,17.95,4.0,,55.27,55.18,208.87
2025-08-15T02:10:48.304Z,9,GR86-006-7,3.2,-1.049,-0.002,3.56,4.0,,56.585,58.05,
2025-08-15T02:10:48.347Z,9,GR86-006-7,3.2,-1.061,-0.004,3.1,4.0,,57.805,59.455,
2025-08-15T02:10:48.390Z,9,GR86-006-7,2.4000000000000004,-1.187,-0.057,2.93,4.0,,56.965,57.41,
2025-08-15T02:10:48.433Z,9,GR86-006-7,0.3,-1.053,-0.046,2.81,4.0,6657.0,59.56,61.175,
2025-08-15T02:10:48.477Z,9,GR86-006-7,0.7000000000000001,-1.027,-0.165,2.77,4.0,,60.08,60.11,202.83
2025-08-15T02:10:48.520Z,9,GR86-006-7,0.9,-1.177,-0.091,2.72,4.0,,61.71,61.65,
2025-08-15T02:10:48.563Z,9,GR86-006-7,1.0,-1.156,-0.106,2.69,4.0,,65.62,67.02,
2025-08-15T02:10:48.606Z,9,GR86-006-7,1.0,-1.163,-0.193,2.68,4.0,,66.365,66.425,
2025-08-15T02:10:48.649Z,9,GR86-006-7,1.0,-1.199,-0.153,2.67,4.0,6919.0,67.58500000000001,67.845,
2025-08-15T02:10:48.692Z,9,GR86-006-7,1.1,-1.191,-0.222,2.67,4.0,,70.12,71.14,195.83
2025-08-15T02:10:48.735Z,9,GR86-006-7,2.5,-1.158,-0.218,2.66,4.0,,69.555,69.58500000000001,
2025-08-15T02:10:48.779Z,9,GR86-006-7,4.0,-1.195,-0.207,2.67,4.0,,69.05,68.93,
2025-08-15T02:10:48.822Z,9,GR86-006-7,3.9,-1.214,-0.181,2.68,4.0,,68.595,68.535,
2025-08-15T02:10:48.867Z,9,GR86-006-7,3.9,-1.214,-0.216,2.68,4.0,6930.0,67.755,67.815,
2025-08-15T02:10:48.910Z,9,GR86-006-7,3.9,-1.173,-0.223,2.67,4.0,,65.985,66.245,188.38
2025-08-15T02:10:48.953Z,9,GR86-006-7,3.2,-1.155,-0.248,21.93,4.0,,63.315000000000005,64.43,
2025-08-15T02:10:48.996Z,9,GR86-006-7,2.0,-1.193,-0.284,66.78,4.0,,62.965,63.65,
2025-08-15T02:10:49.039Z,9,GR86-006-7,2.0,-1.202,-0.285,99.6,4.0,,62.245000000000005,62.305,
2025-08-15T02:10:49.082Z,9,GR86-006-7,2.0,-1.124,-0.303,84.53,3.0,6692.0,62.66,63.285,
2025-08-15T02:10:49.126Z,9,GR86-006-7,0.7000000000000001,-1.229,-0.373,12.6,3.0,,63.435,65.145,172.13
2025-08-15T02:10:49.169Z,9,GR86-006-7,-2.0,-1.192,-0.245,3.37,3.0,,64.64,66.455,
2025-08-15T02:10:49.213Z,9,GR86-006-7,-3.5,-1.059,-0.625,2.75,3.0,,60.26,60.675,
2025-08-15T02:10:49.257Z,9,GR86-006-7,-3.3000000000000003,-1.015,-0.421,2.68,3.0,,57.21,58.46,
2025-08-15T02:10:49.300Z,9,GR86-006-7,-2.8000000000000003,-0.996,-0.423,2.66,3.0,6278.0,54.265,56.035,
2025-08-15T02:10:49.343Z,9,GR86-006-7,-2.6,-0.935,-0.632,2.63,3.0,,50.405,51.06,164.29
2025-08-15T02:10:49.386Z,9,GR86-006-7,-2.7,-0.94,-0.5630000000000001,2.61,3.0,,46.375,47.185,
2025-08-15T02:10:49.429Z,9,GR86-006-7,-4.3,-0.869,-0.591,2.6,3.0,,42.985,44.47,
2025-08-15T02:10:49.515Z,9,GR86-006-7,-12.7,-0.771,-0.675,2.5500000000000003,3.0,6936.0,32.99,33.845,
2025-08-15T02:10:49.558Z,9,GR86-006-7,-15.1,-0.62,-0.89,2.53,3.0,,28.4,29.5,157.89
2025-08-15T02:10:49.601Z,9,GR86-006-7,-15.1,-0.62,-0.932,2.51,3.0,,25.805,26.935,
2025-08-15T02:10:49.644Z,9,GR86-006-7,-14.8,-0.7020000000000001,-0.929,2.5,3.0,,23.775,24.4,
2025-08-15T02:10:49.730Z,9,GR86-006-7,-14.7,-0.602,-0.915,2.5,3.0,6648.0,23.12,23.655,
2025-08-15T02:10:49.773Z,9,GR86-006-7,-12.8,-0.626,-0.972,2.48,3.0,,20.965,21.38,151.91
2025-08-15T02:10:49.817Z,9,GR86-006-7,-11.8,-0.558,-0.912,2.49,3.0,,19.825,20.355,
2025-08-15T02:10:49.860Z,9,GR86-006-7,-11.1,-0.5700000000000001,-0.98,2.49,3.0,,18.615,19.485,
2025-08-15T02:10:49.904Z,9,GR86-006-7,-12.5,-0.51,-1.035,2.48,3.0,,17.55,18.435,
2025-08-15T02:10:49.947Z,9,GR86-006-7,-13.9,-0.522,-1.021,2.47,3.0,6506.0,17.305,18.055,
2025-08-15T02:10:49.990Z,9,GR86-006-7,-13.1,-0.577,-1.103,2.48,3.0,,17.455000000000002,18.115,147.52
2025-08-15T02:10:50.033Z,9,GR86-006-7,-9.9,-0.513,-1.123,2.48,3.0,,17.490000000000002,17.990000000000002,
2025-08-15T02:10:50.076Z,9,GR86-006-7,-9.5,-0.528,-1.146,2.48,3.0,,16.62,17.55,
2025-08-15T02:10:50.119Z,9,GR86-006-7,-8.8,-0.501,-1.081,2.48,3.0,,15.0,15.96,
2025-08-15T02:10:50.162Z,9,GR86-006-7,-6.5,-0.428,-1.087,2.48,3.0,6224.0,11.995,12.71,
2025-08-15T02:10:50.205Z,9,GR86-006-7,-4.2,-0.415,-1.163,2.48,3.0,,7.86,8.575000000000001,143.05
2025-08-15T02:10:50.249Z,9,GR86-006-7,-2.1,-0.354,-1.247,2.48,3.0,,4.03,4.87,
2025-08-15T02:10:50.292Z,9,GR86-006-7,1.6,-0.211,-1.261,2.49,3.0,,0.0,0.0,
2025-08-15T02:10:50.335Z,9,GR86-006-7,5.6000000000000005,-0.176,-1.228,2.48,3.0,,0.0,0.0,
2025-08-15T02:10:50.379Z,9,GR86-006-7,7.7,-0.156,-1.214,2.48,3.0,6057.0,0.0,0.0,
2025-08-15T02:10:50.422Z,9,GR86-006-7,8.4,-0.14,-1.253,2.48,3.0,,0.0,0.0,139.34
2025-08-15T02:10:50.465Z,9,GR86-006-7,8.5,-0.137,-1.27,2.48,3.0,,0.0,0.0,
2025-08-15T02:10:50.508Z,9,GR86-006-7,8.5,-0.135,-1.246,2.49,3.0,,0.0,0.0,
2025-08-15T02:10:50.551Z,9,GR86-006-7,8.5,-0.124,-1.275,2.5,3.0,,0.0,0.0,
2025-08-15T02:10:50.594Z,9,GR86-006-7,-6.300000000000001,-0.15,-1.28,4.3500000000000005,3.0,5978.0,0.0,0.0,
2025-08-15T02:10:50.637Z,9,GR86-006-7,-27.1,-0.155,-1.336,11.63,3.0,,0.0,0.0,136.14
2025-08-15T02:10:50.680Z,9,GR86-006-7,-44.1,-0.173,-1.339,20.45,3.0,,0.0,0.0,
2025-08-15T02:10:50.723Z,9,GR86-006-7,-49.400000000000006,-0.197,-1.303,30.06,3.0,,0.0,0.0,
2025-08-15T02:10:50.766Z,9,GR86-006-7,-49.6,-0.131,-1.314,45.41,3.0,,0.0,0.0,
2025-08-15T02:10:50.809Z,9,GR86-006-7,-50.2,-0.134,-1.256,88.35000000000001,3.0,5951.0,0.0,0.0,
2025-08-15T02:10:50.852Z,9,GR86-006-7,-57.400000000000006,-0.113,-1.336,99.73,3.0,,0.0,0.0,134.24
2025-08-15T02:10:50.896Z,9,GR86-006-7,-62.900000000000006,0.185,-1.27,99.76,3.0,,0.0,0.0,
2025-08-15T02:10:50.939Z,9,GR86-006-7,-67.5,0.189,-1.204,99.73,3.0,,0.0,0.0,
2025-08-15T02:10:50.983Z,9,GR86-006-7,-70.60000000000001,0.221,-1.173,99.77,3.0,,0.0,0.0,
2025-08-15T02:10:51.026Z,9,GR86-006-7,-73.60000000000001,0.2,-1.169,99.76,3.0,5881.0,0.0,0.0,
2025-08-15T02:10:51.069Z,9,GR86-006-7,-75.4,0.166,-1.179,99.74,3.0,,0.0,0.0,131.15
2025-08-15T02:10:51.114Z,9,GR86-006-7,-76.5,0.122,-1.269,99.76,3.0,,0.0,0.0,
2025-08-15T02:10:51.200Z,9,GR86-006-7,-77.9,0.168,-1.177,99.77,3.0,,0.0,0.0,
2025-08-15T02:10:51.243Z,9,GR86-006-7,-78.80000000000001,0.168,-1.13,99.77,3.0,6347.0,0.0,0.0,
2025-08-15T02:10:51.286Z,9,GR86-006-7,-79.30000000000001,0.181,-1.151,99.76,3.0,,0.0,0.0,128.74
2025-08-15T02:10:51.329Z,9,GR86-006-7,-80.10000000000001,0.211,-1.123,99.78,3.0,,0.0,0.0,
2025-08-15T02:10:51.372Z,9,GR86-006-7,-80.5,0.16,-1.23,99.76,3.0,,0.0,0.0,
2025-08-15T02:10:51.461Z,9,GR86-006-7,-80.7,0.161,-1.169,99.78,3.0,6174.0,0.0,0.0,
2025-08-15T02:10:51.504Z,9,GR86-006-7,-80.80000000000001,0.125,-1.128,99.81,3.0,,0.0,0.0,128.73
2025-08-15T02:10:51.547Z,9,GR86-006-7,-80.80000000000001,0.164,-1.201,99.78,3.0,,0.0,0.0,
2025-08-15T02:10:51.590Z,9,GR86-006-7,-80.80000000000001,0.14,-1.271,99.8,3.0,,0.0,0.0,
2025-08-15T02:10:51.633Z,9,GR86-006-7,-80.80000000000001,0.134,-1.294,99.76,3.0,,0.0,0.0,
2025-08-15T02:10:51.676Z,9,GR86-006-7,-80.4,0.13,-1.251,99.79,3.0,6198.0,0.0,0.0,
2025-08-15T02:10:51.719Z,9,GR86-006-7,-75.0,0.125,-1.238,99.8,3.0,,0.0,0.0,130.68
2025-08-15T02:10:51.762Z,9,GR86-006-7,-69.3,0.17,-1.243,99.77,3.0,,0.0,0.0,
2025-08-15T02:10:51.805Z,9,GR86-006-7,-63.5,0.149,-1.255,99.8,3.0,,0.0,0.0,
2025-08-15T02:10:51.848Z,9,GR86-006-7,-57.0,0.148,-1.23,99.8,3.0,,0.0,0.0,
2025-08-15T02:10:51.891Z,9,GR86-006-7,-48.0,0.164,-1.217,99.8,3.0,6227.0,0.0,0.0,
2025-08-15T02:10:51.934Z,9,GR86-006-7,-41.5,0.168,-1.172,99.8,3.0,,0.0,0.0,131.6
2025-08-15T02:10:51.977Z,9,GR86-006-7,-39.5,0.182,-1.178,99.8,3.0,,0.0,0.0,
2025-08-15T02:10:52.020Z,9,GR86-006-7,-37.9,0.163,-1.293,99.79,3.0,,0.0,0.0,
2025-08-15T02:10:52.063Z,9,GR86-006-7,-36.9,0.185,-1.274,99.79,3.0,,0.0,0.0,
2025-08-15T02:10:52.106Z,9,GR86-006-7,-36.6,0.175,-1.268,99.81,3.0,6267.0,0.0,0.0,
2025-08-15T02:10:52.149Z,9,GR86-006-7,-39.3,0.173,-1.274,99.79,3.0,,0.0,0.0,132.55
2025-08-15T02:10:52.192Z,9,GR86-006-7,-46.1,0.178,-1.201,99.81,3.0,,0.0,0.0,
2025-08-15T02:10:52.235Z,9,GR86-006-7,-48.0,0.158,-1.2,99.8,3.0,,0.0,0.0,
2025-08-15T02:10:52.279Z,9,GR86-006-7,-50.0,0.17,-1.152,99.81,3.0,,0.0,0.0,
2025-08-15T02:10:52.322Z,9,GR86-006-7,-52.2,0.167,-1.148,99.8,3.0,6333.0,0.0,0.0,
2025-08-15T02:10:52.365Z,9,GR86-006-7,-53.5,0.144,-1.204,99.8,3.0,,0.0,0.0,133.67000000000002
2025-08-15T02:10:52.408Z,9,GR86-006-7,-53.5,0.144,-1.276,99.81,3.0,,0.0,0.0,
2025-08-15T02:10:52.451Z,9,GR86-006-7,-53.2,0.159,-1.295,99.8,3.0,,0.0,0.0,
2025-08-15T02:10:52.494Z,9,GR86-006-7,-52.7,0.151,-1.211,99.82,3.0,,0.0,0.0,
2025-08-15T02:10:52.537Z,9,GR86-006-7,-52.400000000000006,0.157,-1.226,99.8,3.0,6361.0,0.0,0.0,
2025-08-15T02:10:52.580Z,9,GR86-006-7,-50.8,0.158,-1.253,99.81,3.0,,0.0,0.0,134.38
2025-08-15T02:10:52.623Z,9,GR86-006-7,-46.8,0.151,-1.27,99.8,3.0,,0.0,0.0,
2025-08-15T02:10:52.666Z,9,GR86-006-7,-43.1,0.157,-1.257,99.79,3.0,,0.0,0.0,
2025-08-15T02:10:52.709Z,9,GR86-006-7,-41.0,0.196,-1.24,99.82,3.0,,0.0,0.0,
2025-08-15T02:10:52.754Z,9,GR86-006-7,-39.400000000000006,0.171,-1.25,99.81,3.0,6391.0,0.0,0.0,
2025-08-15T02:10:52.797Z,9,GR86-006-7,-38.7,0.208,-1.233,99.8,3.0,,0.0,0.0,135.07
2025-08-15T02:10:52.840Z,9,GR86-006-7,-38.1,0.193,-1.196,99.81,3.0,,0.0,0.0,
2025-08-15T02:10:52.883Z,9,GR86-006-7,-37.1,0.155,-1.186,99.8,3.0,,0.0,0.0,
2025-08-15T02:10:52.926Z,9,GR86-006-7,-36.3,0.165,-1.183,99.79,3.0,,0.0,0.0,
2025-08-15T02:10:52.969Z,9,GR86-006-7,-35.800000000000004,0.206,-1.146,99.8,3.0,6450.0,0.0,0.0,
2025-08-15T02:10:53.013Z,9,GR86-006-7,-35.4,0.163,-1.14,99.8,3.0,,0.0,0.0,136.19
2025-08-15T02:10:53.057Z,9,GR86-006-7,-35.800000000000004,0.225,-0.909,99.8,3.0,,0.0,0.0,
2025-08-15T02:10:53.100Z,9,GR86-006-7,-35.4,0.202,-0.84,99.8,3.0,,0.0,0.0,
2025-08-15T02:10:53.143Z,9,GR86-006-7,-33.4,0.204,-0.911,99.8,3.0,,0.0,0.0,
2025-08-15T02:10:53.186Z,9,GR86-006-7,-30.700000000000003,0.188,-0.625,99.8,3.0,6475.0,0.0,0.0,
2025-08-15T02:10:53.229Z,9,GR86-006-7,-27.4,0.169,-0.608,99.81,3.0,,0.0,0.0,137.04
2025-08-15T02:10:53.272Z,9,GR86-006-7,-22.8,0.192,-0.513,99.8,3.0,,0.0,0.0,
2025-08-15T02:10:53.318Z,9,GR86-006-7,-20.4,0.039,-0.475,99.8,3.0,,0.0,0.0,
2025-08-15T02:10:53.362Z,9,GR86-006-7,-17.2,-0.008,-0.796,99.8,3.0,,0.0,0.0,
2025-08-15T02:10:53.405Z,9,GR86-006-7,-14.7,0.126,-1.054,99.8,3.0,6516.0,0.0,0.0,
2025-08-15T02:10:53.449Z,9,GR86-006-7,-15.0,0.297,-1.011,99.8,3.0,,0.0,0.0,137.21
2025-08-15T02:10:53.492Z,9,GR86-006-7,-22.1,0.045,-1.148,99.8,3.0,,0.0,0.0,
2025-08-15T02:10:53.535Z,9,GR86-006-7,-25.6,0.197,-1.172,99.8,3.0,,0.0,0.0,
2025-08-15T02:10:53.579Z,9,GR86-006-7,-28.4,0.312,-1.147,99.8,3.0,,0.0,0.0,
2025-08-15T02:10:53.622Z,9,GR86-006-7,-29.6,0.1,-1.296,99.8,3.0,6601.0,0.0,0.0,
2025-08-15T02:10:53.667Z,9,GR86-006-7,-30.6,0.113,-1.364,99.81,3.0,,0.0,0.0,137.61
2025-08-15T02:10:53.710Z,9,GR86-006-7,-31.700000000000003,0.22,-1.184,99.8,3.0,,0.0,0.0,
2025-08-15T02:10:53.753Z,9,GR86-006-7,-33.6,0.141,-0.996,99.8,3.0,,0.0,0.0,
2025-08-15T02:10:53.796Z,9,GR86-006-7,-34.300000000000004,0.188,-0.884,99.8,3.0,,0.0,0.0,
2025-08-15T02:10:53.839Z,9,GR86-006-7,-33.800000000000004,0.146,-0.954,99.8,3.0,6664.0,0.0,0.0,
2025-08-15T02:10:53.882Z,9,GR86-006-7,-33.0,0.22,-0.924,99.8,3.0,,0.0,0.0,138.81
2025-08-15T02:10:53.926Z,9,GR86-006-7,-32.5,0.207,-0.94,99.8,3.0,,0.0,0.0,
2025-08-15T02:10:53.969Z,9,GR86-006-7,-31.8,0.18,-0.997,99.8,3.0,,0.0,0.0,
2025-08-15T02:10:54.013Z,9,GR86-006-7,-30.8,0.118,-1.167,99.8,3.0,,0.0,0.0,
2025-08-15T02:10:54.057Z,9,GR86-006-7,-30.1,0.2,-1.158,99.79,3.0,6622.0,0.0,0.0,
2025-08-15T02:10:54.100Z,9,GR86-006-7,-28.8,0.209,-1.07,99.8,3.0,,0.0,0.0,139.79
2025-08-15T02:10:54.143Z,9,GR86-006-7,-25.9,0.212,-1.04,99.8,3.0,,0.0,0.0,
2025-08-15T02:10:54.186Z,9,GR86-006-7,-22.6,0.179,-0.927,99.8,3.0,,0.0,0.0,
2025-08-15T02:10:54.229Z,9,GR86-006-7,-21.0,0.21,-0.934,99.8,3.0,,0.0,0.0,
2025-08-15T02:10:54.272Z,9,GR86-006-7,-20.3,0.224,-0.758,99.8,3.0,6700.0,0.0,0.0,
2025-08-15T02:10:54.315Z,9,GR86-006-7,-20.0,0.171,-0.782,99.81,3.0,,0.0,0.0,141.94
2025-08-15T02:10:54.358Z,9,GR86-006-7,-19.9,0.196,-0.675,99.8,3.0,,0.0,0.0,
2025-08-15T02:10:54.401Z,9,GR86-006-7,-19.6,0.226,-0.615,99.81,3.0,,0.0,0.0,
2025-08-15T02:10:54.444Z,9,GR86-006-7,-19.3,0.181,-0.7020000000000001,99.81,3.0,,0.0,0.0,
2025-08-15T02:10:54.487Z,9,GR86-006-7,-18.7,0.141,-0.631,99.81,3.0,6712.0,0.0,0.0,
2025-08-15T02:10:54.530Z,9,GR86-006-7,-17.2,0.223,-0.625,99.8,3.0,,0.0,0.0,142.84
2025-08-15T02:10:54.573Z,9,GR86-006-7,-16.400000000000002,0.255,-0.639,99.81,3.0,,0.0,0.0,
2025-08-15T02:10:54.661Z,9,GR86-006-7,-16.3,0.188,-0.455,99.82,3.0,,0.0,0.0,
2025-08-15T02:10:54.704Z,9,GR86-006-7,-12.1,0.178,-0.577,99.8,3.0,6748.0,0.0,0.0,
2025-08-15T02:10:54.748Z,9,GR86-006-7,-8.200000000000001,0.081,-0.349,99.8,3.0,,0.0,0.0,144.37
2025-08-15T02:10:54.791Z,9,GR86-006-7,-5.4,0.223,-0.357,99.82,3.0,,0.0,0.0,
2025-08-15T02:10:54.834Z,9,GR86-006-7,-3.4000000000000004,0.065,-0.22,99.8,3.0,,0.0,0.0,
2025-08-15T02:10:54.877Z,9,GR86-006-7,-2.4000000000000004,0.023,-0.171,99.82,3.0,,0.0,0.0,
2025-08-15T02:10:54.920Z,9,GR86-006-7,-0.5,0.2,-0.241,99.8,3.0,6872.0,0.0,0.0,
2025-08-15T02:10:54.963Z,9,GR86-006-7,1.9,0.348,-0.397,99.8,3.0,,0.0,0.0,145.75
2025-08-15T02:10:55.006Z,9,GR86-006-7,5.800000000000001,0.35,-0.257,99.83,3.0,,0.0,0.0,
2025-08-15T02:10:55.049Z,9,GR86-006-7,10.6,0.134,-0.233,99.8,3.0,,0.0,0.0,
2025-08-15T02:10:55.092Z,9,GR86-006-7,16.8,0.083,-0.166,99.8,3.0,,0.0,0.0,
2025-08-15T02:10:55.135Z,9,GR86-006-7,17.900000000000002,0.217,0.019,99.84,3.0,7116.0,0.0,0.0,
2025-08-15T02:10:55.222Z,9,GR86-006-7,17.3,0.163,0.219,99.81,3.0,,0.0,0.0,146.66
2025-08-15T02:10:55.265Z,9,GR86-006-7,16.7,0.13,0.317,99.81,3.0,,0.0,0.0,
2025-08-15T02:10:55.308Z,9,GR86-006-7,15.8,0.19,0.419,99.8,3.0,,0.0,0.0,
2025-08-15T02:10:55.352Z,9,GR86-006-7,14.0,0.177,0.501,99.81,3.0,7031.0,0.0,0.0,
2025-08-15T02:10:55.396Z,9,GR86-006-7,13.5,0.25,0.5690000000000001,99.8,3.0,,0.0,0.0,148.99
2025-08-15T02:10:55.439Z,9,GR86-006-7,13.2,0.273,0.591,99.82,3.0,,0.0,0.0,
2025-08-15T02:10:55.483Z,9,GR86-006-7,12.5,0.173,0.443,99.8,3.0,,0.0,0.0,
2025-08-15T02:10:55.526Z,9,GR86-006-7,11.7,-0.019,0.449,99.8,3.0,,0.0,0.0,
2025-08-15T02:10:55.569Z,9,GR86-006-7,11.3,0.125,0.522,99.83,3.0,7128.0,0.0,0.0,
2025-08-15T02:10:55.613Z,9,GR86-006-7,11.6,0.206,0.521,99.8,3.0,,0.0,0.0,150.02
2025-08-15T02:10:55.657Z,9,GR86-006-7,12.1,0.241,0.528,99.83,3.0,,0.0,0.0,
2025-08-15T02:10:55.700Z,9,GR86-006-7,12.1,0.211,0.424,99.81,3.0,,0.0,0.0,
2025-08-15T02:10:55.743Z,9,GR86-006-7,11.9,0.166,0.358,99.83,3.0,,0.0,0.0,
2025-08-15T02:10:55.786Z,9,GR86-006-7,11.8,0.181,0.373,99.8,3.0,7123.0,0.0,0.0,
2025-08-15T02:10:55.829Z,9,GR86-006-7,11.6,0.207,0.341,99.81,3.0,,0.0,0.0,151.44
2025-08-15T02:10:55.872Z,9,GR86-006-7,11.4,0.199,0.31,99.81,3.0,,0.0,0.0,
2025-08-15T02:10:55.917Z,9,GR86-006-7,11.2,0.2,0.287,99.82,3.0,,0.0,0.0,
2025-08-15T02:10:55.960Z,9,GR86-006-7,11.1,0.091,0.27,99.83,4.0,,0.0,0.0,
2025-08-15T02:10:56.003Z,9,GR86-006-7,11.0,-0.041,0.296,99.8,4.0,7152.0,0.0,0.0,
2025-08-15T02:10:56.046Z,9,GR86-006-7,10.9,0.421,0.242,99.84,4.0,,0.0,0.0,152.76
2025-08-15T02:10:56.089Z,9,GR86-006-7,10.9,0.3,0.188,99.83,4.0,,0.0,0.0,
2025-08-15T02:10:56.132Z,9,GR86-006-7,10.8,0.111,0.319,99.81,4.0,,0.0,0.0,
2025-08-15T02:10:56.176Z,9,GR86-006-7,10.7,0.034,0.201,99.81,4.0,,0.0,0.0,
2025-08-15T02:10:56.219Z,9,GR86-006-7,10.6,0.166,0.203,99.83,4.0,7259.0,0.0,0.0,
2025-08-15T02:10:56.262Z,9,GR86-006-7,10.6,0.21,0.267,99.82,4.0,,0.0,0.0,154.63
2025-08-15T02:10:56.305Z,9,GR86-006-7,10.6,0.195,0.16,99.82,4.0,,0.0,0.0,
2025-08-15T02:10:56.349Z,9,GR86-006-7,10.6,0.139,0.188,99.83,4.0,,0.0,0.0,
2025-08-15T02:10:56.392Z,9,GR86-006-7,10.5,0.134,0.177,99.82,4.0,,0.0,0.0,
2025-08-15T02:10:56.435Z,9,GR86-006-7,10.5,0.197,0.16,99.84,4.0,6119.0,0.0,0.0,
2025-08-15T02:10:56.479Z,9,GR86-006-7,10.5,0.162,0.188,99.82,4.0,,0.0,0.0,155.98
2025-08-15T02:10:56.522Z,9,GR86-006-7,10.5,0.161,0.158,99.8,4.0,,0.0,0.0,
2025-08-15T02:10:56.565Z,9,GR86-006-7,10.5,0.164,0.145,99.83,4.0,,0.0,0.0,
2025-08-15T02:10:56.608Z,9,GR86-006-7,10.4,0.142,0.148,99.83,4.0,,0.0,0.0,
2025-08-15T02:10:56.651Z,9,GR86-006-7,10.4,0.137,0.147,99.82,4.0,6186.0,0.0,0.0,
2025-08-15T02:10:56.694Z,9,GR86-006-7,10.2,0.148,0.146,99.82,4.0,,0.0,0.0,157.64
2025-08-15T02:10:56.737Z,9,GR86-006-7,8.8,0.153,0.129,99.83,4.0,,0.0,0.0,
2025-08-15T02:10:56.780Z,9,GR86-006-7,7.300000000000001,0.138,0.086,99.82,4.0,,0.0,0.0,
2025-08-15T02:10:56.823Z,9,GR86-006-7,6.5,0.134,0.074,99.83,4.0,,0.0,0.0,
2025-08-15T02:10:56.866Z,9,GR86-006-7,6.4,0.14,0.054,99.82,4.0,6270.0,0.0,0.0,
2025-08-15T02:10:56.909Z,9,GR86-006-7,6.4,0.172,0.02,99.83,4.0,,0.0,0.0,159.14
2025-08-15T02:10:56.954Z,9,GR86-006-7,6.300000000000001,0.144,0.014,99.83,4.0,,0.0,0.0,
2025-08-15T02:10:56.998Z,9,GR86-006-7,6.300000000000001,0.139,-0.019,99.83,4.0,,0.0,0.0,
2025-08-15T02:10:57.042Z,9,GR86-006-7,6.300000000000001,0.145,-0.008,99.84,4.0,,0.0,0.0,
2025-08-15T02:10:57.085Z,9,GR86-006-7,6.300000000000001,0.155,-0.03,99.81,4.0,6332.0,0.0,0.0,
2025-08-15T02:10:57.128Z,9,GR86-006-7,5.9,0.146,-0.053,99.81,4.0,,0.0,0.0,162.25
2025-08-15T02:10:57.171Z,9,GR86-006-7,5.5,0.141,-0.055,99.82,4.0,,0.0,0.0,
2025-08-15T02:10:57.214Z,9,GR86-006-7,5.0,0.134,-0.055,99.81,4.0,,0.0,0.0,
2025-08-15T02:10:57.257Z,9,GR86-006-7,4.800000000000001,0.126,-0.052,99.82,4.0,,0.0,0.0,
2025-08-15T02:10:57.300Z,9,GR86-006-7,4.800000000000001,0.147,-0.052,99.84,4.0,6395.0,0.0,0.0,
2025-08-15T02:10:57.343Z,9,GR86-006-7,4.800000000000001,0.142,-0.06,99.83,4.0,,0.0,0.0,163.82
2025-08-15T02:10:57.386Z,9,GR86-006-7,4.800000000000001,0.163,-0.088,99.81,4.0,,0.0,0.0,
2025-08-15T02:10:57.429Z,9,GR86-006-7,4.800000000000001,0.174,-0.081,99.81,4.0,,0.0,0.0,
2025-08-15T02:10:57.472Z,9,GR86-006-7,4.800000000000001,0.137,-0.098,99.83,4.0,,0.0,0.0,
2025-08-15T02:10:57.517Z,9,GR86-006-7,4.800000000000001,0.134,-0.081,99.83,4.0,6504.0,0.0,0.0,
2025-08-15T02:10:57.561Z,9,GR86-006-7,4.7,0.143,-0.088,99.83,4.0,,0.0,0.0,165.31
2025-08-15T02:10:57.604Z,9,GR86-006-7,4.4,0.158,-0.078,99.8,4.0,,0.0,0.0,
2025-08-15T02:10:57.647Z,9,GR86-006-7,4.2,0.149,-0.091,99.8,4.0,,0.0,0.0,
2025-08-15T02:10:57.690Z,9,GR86-006-7,4.1000000000000005,0.142,-0.091,99.81,4.0,,0.0,0.0,
2025-08-15T02:10:57.776Z,9,GR86-006-7,3.5,0.158,-0.11,99.8,4.0,6564.0,0.0,0.0,166.87
2025-08-15T02:10:57.819Z,9,GR86-006-7,2.8000000000000003,0.15,-0.131,99.8,4.0,,0.0,0.0,
2025-08-15T02:10:57.862Z,9,GR86-006-7,2.0,0.136,-0.147,99.82,4.0,,0.0,0.0,
2025-08-15T02:10:57.905Z,9,GR86-006-7,1.4,0.148,-0.128,99.83,4.0,,0.0,0.0,
2025-08-15T02:10:57.949Z,9,GR86-006-7,1.1,0.144,-0.167,99.82,4.0,6627.0,0.0,0.0,
2025-08-15T02:10:57.992Z,9,GR86-006-7,1.1,0.13,-0.172,99.81,4.0,,0.0,0.0,168.36
2025-08-15T02:10:58.035Z,9,GR86-006-7,1.1,0.138,-0.186,99.83,4.0,,0.0,0.0,
2025-08-15T02:10:58.079Z,9,GR86-006-7,1.1,0.15,-0.185,99.83,4.0,,0.0,0.0,
2025-08-15T02:10:58.122Z,9,GR86-006-7,1.1,0.141,-0.19,99.8,4.0,,0.0,0.0,
2025-08-15T02:10:58.168Z,9,GR86-006-7,1.2000000000000002,0.125,-0.204,99.8,4.0,6680.0,0.0,0.0,
2025-08-15T02:10:58.211Z,9,GR86-006-7,1.2000000000000002,0.153,-0.228,99.8,4.0,,0.0,0.0,169.92000000000002
2025-08-15T02:10:58.254Z,9,GR86-006-7,0.7000000000000001,0.113,-0.217,99.81,4.0,,2.305,2.52,
2025-08-15T02:10:58.297Z,9,GR86-006-7,-0.1,0.094,-0.22,99.81,4.0,,2.275,2.52,
2025-08-15T02:10:58.340Z,9,GR86-006-7,-1.1,0.087,-0.247,99.82,4.0,,0.0,2.045,
2025-08-15T02:10:58.383Z,9,GR86-006-7,-2.3000000000000003,0.088,-0.234,99.83,4.0,6734.0,0.0,0.0,
2025-08-15T02:10:58.426Z,9,GR86-006-7,-3.3000000000000003,0.118,-0.276,99.81,4.0,,0.0,0.0,171.44
2025-08-15T02:10:58.469Z,9,GR86-006-7,-4.3,0.125,-0.288,99.81,4.0,,0.0,0.0,
2025-08-15T02:10:58.514Z,9,GR86-006-7,-5.6000000000000005,0.135,-0.297,99.82,4.0,,0.0,0.0,
2025-08-15T02:10:58.557Z,9,GR86-006-7,-6.300000000000001,0.129,-0.36,99.8,4.0,,0.0,0.0,
2025-08-15T02:10:58.600Z,9,GR86-006-7,-6.5,0.104,-0.376,99.81,4.0,6791.0,0.0,0.0,
2025-08-15T02:10:58.643Z,9,GR86-006-7,-6.300000000000001,0.118,-0.414,99.83,4.0,,0.0,0.0,172.87
2025-08-15T02:10:58.686Z,9,GR86-006-7,-6.0,0.114,-0.43,99.82,4.0,,0.0,0.0,
2025-08-15T02:10:58.815Z,9,GR86-006-7,-6.2,0.148,-0.505,99.8,4.0,6845.0,0.0,0.0,
2025-08-15T02:10:58.858Z,9,GR86-006-7,-6.300000000000001,0.155,-0.481,99.8,4.0,,0.0,0.0,174.06
2025-08-15T02:10:58.901Z,9,GR86-006-7,-6.1000000000000005,0.128,-0.477,99.83,4.0,,0.0,0.0,
2025-08-15T02:10:58.944Z,9,GR86-006-7,-6.0,0.134,-0.488,99.81,4.0,,0.0,0.0,
2025-08-15T02:10:58.987Z,9,GR86-006-7,-5.9,0.149,-0.427,99.81,4.0,,0.0,0.0,
2025-08-15T02:10:59.030Z,9,GR86-006-7,-5.800000000000001,0.12,-0.399,99.83,4.0,6903.0,0.0,0.0,
2025-08-15T02:10:59.073Z,9,GR86-006-7,-5.0,0.154,-0.337,99.82,4.0,,0.0,0.0,175.34
2025-08-15T02:10:59.117Z,9,GR86-006-7,-5.0,0.13,-0.308,99.82,4.0,,0.0,0.0,
2025-08-15T02:10:59.160Z,9,GR86-006-7,-5.0,0.152,-0.297,99.84,4.0,,0.0,0.0,
2025-08-15T02:10:59.204Z,9,GR86-006-7,-5.0,0.133,-0.312,99.82,4.0,,0.0,0.0,
2025-08-15T02:10:59.247Z,9,GR86-006-7,-4.800000000000001,0.145,-0.317,99.8,4.0,6952.0,0.0,0.0,
2025-08-15T02:10:59.290Z,9,GR86-006-7,-4.7,0.136,-0.302,99.84,4.0,,0.0,0.0,176.76
2025-08-15T02:10:59.333Z,9,GR86-006-7,-4.5,0.109,-0.257,99.81,4.0,,0.0,0.0,
2025-08-15T02:10:59.377Z,9,GR86-006-7,-4.4,0.114,-0.265,99.83,4.0,,0.0,0.0,
2025-08-15T02:10:59.420Z,9,GR86-006-7,-4.3,0.094,-0.258,99.81,4.0,,0.0,0.0,
2025-08-15T02:10:59.463Z,9,GR86-006-7,-4.3,0.1,-0.221,99.8,4.0,7008.0,2.855,3.16,
2025-08-15T02:10:59.506Z,9,GR86-006-7,-4.3,0.076,-0.208,73.10000000000001,4.0,,9.005,9.155,178.03
2025-08-15T02:10:59.549Z,9,GR86-006-7,-4.2,-0.046,-0.207,34.87,4.0,,17.0,16.97,
2025-08-15T02:10:59.592Z,9,GR86-006-7,-3.5,-0.36,-0.164,5.22,4.0,,28.245,28.125,
2025-08-15T02:10:59.635Z,9,GR86-006-7,-2.1,-0.489,-0.125,4.89,4.0,,34.84,34.49,
2025-08-15T02:10:59.679Z,9,GR86-006-7,-1.7000000000000002,-0.747,-0.091,4.76,4.0,7045.0,40.06,39.785,
2025-08-15T02:10:59.722Z,9,GR86-006-7,-1.7000000000000002,-0.762,-0.057,4.5600000000000005,4.0,,42.985,42.835,180.75
2025-08-15T02:10:59.765Z,9,GR86-006-7,-1.7000000000000002,-0.879,-0.12,4.18,4.0,,44.405,44.285,
2025-08-15T02:10:59.808Z,9,GR86-006-7,-1.7000000000000002,-0.977,-0.09,3.67,4.0,,46.375,46.175,
2025-08-15T02:10:59.851Z,9,GR86-006-7,-1.6,-0.959,-0.083,3.3200000000000003,4.0,,50.345,49.73,
2025-08-15T02:10:59.894Z,9,GR86-006-7,-1.3,-1.152,-0.122,2.95,4.0,7097.0,57.65,56.995000000000005,
2025-08-15T02:10:59.937Z,9,GR86-006-7,-1.1,-1.184,-0.096,2.83,4.0,,61.055,60.34,179.01
2025-08-15T02:10:59.980Z,9,GR86-006-7,-0.5,-1.201,-0.168,2.76,4.0,,62.81,62.275,
2025-08-15T02:11:00.023Z,9,GR86-006-7,-0.2,-1.207,-0.126,11.62,4.0,,64.155,63.65,
2025-08-15T02:11:00.066Z,9,GR86-006-7,-0.2,-1.205,-0.097,55.77,4.0,,65.985,65.33,
2025-08-15T02:11:00.109Z,9,GR86-006-7,-0.2,-1.208,-0.103,97.66,4.0,6656.0,68.745,67.97,
2025-08-15T02:11:00.152Z,9,GR86-006-7,-0.2,-1.317,-0.133,45.94,3.0,,72.805,71.89,174.04
2025-08-15T02:11:00.195Z,9,GR86-006-7,-0.6000000000000001,-1.379,-0.164,4.3100000000000005,3.0,,74.83500000000001,75.215,
2025-08-15T02:11:00.238Z,9,GR86-006-7,-0.5,-1.321,-0.084,3.0700000000000003,3.0,,77.11,79.045,
2025-08-15T02:11:00.281Z,9,GR86-006-7,0.0,-1.209,-0.23,2.86,3.0,,76.895,77.215,
2025-08-15T02:11:00.325Z,9,GR86-006-7,0.1,-1.416,-0.154,2.78,3.0,6176.0,75.58500000000001,76.59,
2025-08-15T02:11:00.368Z,9,GR86-006-7,0.1,-1.211,-0.111,2.74,3.0,,76.39,77.995,166.88
2025-08-15T02:11:00.414Z,9,GR86-006-7,0.1,-1.224,-0.262,2.67,3.0,,71.14,71.645,
2025-08-15T02:11:00.457Z,9,GR86-006-7,0.0,-1.189,-0.119,2.67,3.0,,68.18,69.465,
2025-08-15T02:11:00.500Z,9,GR86-006-7,0.0,-1.159,-0.286,2.63,3.0,,66.075,67.905,
2025-08-15T02:11:00.586Z,9,GR86-006-7,0.2,-1.2,-0.226,2.6,3.0,6761.0,61.45,62.305,158.01
2025-08-15T02:11:00.629Z,9,GR86-006-7,0.2,-1.147,-0.293,2.58,3.0,,61.27,63.205,
2025-08-15T02:11:00.672Z,9,GR86-006-7,0.3,-1.141,-0.249,40.1,2.0,,60.705,61.085,
2025-08-15T02:11:00.717Z,9,GR86-006-7,0.4,-1.128,-0.303,40.6,2.0,,59.895,60.370000000000005,
2025-08-15T02:11:00.760Z,9,GR86-006-7,0.6000000000000001,-1.216,-0.207,5.51,2.0,6400.0,60.52,62.155,
2025-08-15T02:11:00.803Z,9,GR86-006-7,0.6000000000000001,-1.146,-0.203,4.14,2.0,,61.025,62.565000000000005,147.82
2025-08-15T02:11:00.846Z,9,GR86-006-7,0.9,-1.18,-0.474,3.75,2.0,,58.705,59.485,
2025-08-15T02:11:00.889Z,9,GR86-006-7,2.5,-1.158,-0.269,3.42,2.0,,54.95,56.185,
2025-08-15T02:11:00.932Z,9,GR86-006-7,4.4,-1.027,-0.594,3.06,2.0,,52.435,53.305,
2025-08-15T02:11:00.976Z,9,GR86-006-7,4.2,-1.163,-0.542,2.91,2.0,6079.0,48.265,49.2,
2025-08-15T02:11:01.019Z,9,GR86-006-7,4.1000000000000005,-0.971,-0.234,2.8000000000000003,2.0,,46.115,47.215,140.51
2025-08-15T02:11:01.062Z,9,GR86-006-7,3.1,-0.97,-0.744,2.73,2.0,,45.43,46.115,
2025-08-15T02:11:01.105Z,9,GR86-006-7,-0.2,-0.965,-0.734,2.68,2.0,,42.085,42.925,
2025-08-15T02:11:01.149Z,9,GR86-006-7,-2.7,-0.949,-0.469,2.63,2.0,,40.47,41.49,
2025-08-15T02:11:01.192Z,9,GR86-006-7,-11.4,-0.859,-0.801,2.61,2.0,6605.0,38.015,38.5,
2025-08-15T02:11:01.235Z,9,GR86-006-7,-17.8,-0.944,-0.722,2.58,2.0,,34.18,34.93,133.48
2025-08-15T02:11:01.279Z,9,GR86-006-7,-20.8,-0.76,-0.766,2.57,2.0,,30.365,31.27,
2025-08-15T02:11:01.322Z,9,GR86-006-7,-23.200000000000003,-0.651,-0.853,2.5500000000000003,2.0,,24.95,25.955,
2025-08-15T02:11:01.365Z,9,GR86-006-7,-26.8,-0.615,-0.857,2.53,2.0,,20.66,21.745,
2025-08-15T02:11:01.408Z,9,GR86-006-7,-29.8,-0.583,-0.854,2.53,2.0,6644.0,19.245,20.05,
2025-08-15T02:11:01.451Z,9,GR86-006-7,-30.5,-0.634,-0.926,2.5,2.0,,19.245,19.93,128.05
2025-08-15T02:11:01.494Z,9,GR86-006-7,-30.0,-0.62,-0.922,2.51,2.0,,19.79,20.295,
2025-08-15T02:11:01.537Z,9,GR86-006-7,-28.6,-0.611,-0.967,2.5,2.0,,20.325,20.875,
2025-08-15T02:11:01.580Z,9,GR86-006-7,-25.700000000000003,-0.594,-0.961,2.48,2.0,,20.695,21.38,
2025-08-15T02:11:01.623Z,9,GR86-006-7,-23.200000000000003,-0.591,-0.961,2.5,2.0,6647.0,21.03,21.56,
2025-08-15T02:11:01.666Z,9,GR86-006-7,-22.3,-0.597,-0.918,2.49,2.0,,20.555,21.305,122.43
2025-08-15T02:11:01.709Z,9,GR86-006-7,-22.200000000000003,-0.63,-0.933,2.5,2.0,,20.02,20.845,
2025-08-15T02:11:01.754Z,9,GR86-006-7,-23.4,-0.643,-1.004,2.48,2.0,,16.465,17.455000000000002,
2025-08-15T02:11:01.797Z,9,GR86-006-7,-26.5,-0.543,-1.066,2.49,2.0,,12.71,13.49,
2025-08-15T02:11:01.840Z,9,GR86-006-7,-34.1,-0.431,-1.063,2.49,2.0,6438.0,8.455,9.43,
2025-08-15T02:11:01.883Z,9,GR86-006-7,-41.900000000000006,-0.346,-1.141,2.48,2.0,,5.6450000000000005,6.3950000000000005,118.28
2025-08-15T02:11:01.926Z,9,GR86-006-7,-48.1,-0.321,-1.148,2.72,2.0,,4.335,4.835,
2025-08-15T02:11:01.969Z,9,GR86-006-7,-52.1,-0.32,-1.254,3.3000000000000003,2.0,,0.0,2.165,
2025-08-15T02:11:02.013Z,9,GR86-006-7,-57.0,-0.214,-1.245,4.45,2.0,,0.0,0.0,
2025-08-15T02:11:02.100Z,9,GR86-006-7,-60.1,-0.211,-1.28,4.7,2.0,6166.0,0.0,0.0,114.51
2025-08-15T02:11:02.143Z,9,GR86-006-7,-64.3,-0.211,-1.295,24.2,2.0,,0.0,0.0,
2025-08-15T02:11:02.186Z,9,GR86-006-7,-65.60000000000001,-0.199,-1.281,29.95,2.0,,0.0,0.0,
2025-08-15T02:11:02.229Z,9,GR86-006-7,-66.7,-0.156,-1.267,30.95,2.0,,0.0,0.0,
2025-08-15T02:11:02.272Z,9,GR86-006-7,-69.8,-0.122,-1.269,31.46,2.0,6009.0,0.0,0.0,
2025-08-15T02:11:02.317Z,9,GR86-006-7,-71.4,-0.118,-1.325,31.69,2.0,,0.0,0.0,108.47
2025-08-15T02:11:02.360Z,9,GR86-006-7,-72.8,0.197,-1.227,31.88,2.0,,0.0,0.0,
2025-08-15T02:11:02.403Z,9,GR86-006-7,-73.60000000000001,0.189,-1.317,31.97,2.0,,0.0,0.0,
2025-08-15T02:11:02.446Z,9,GR86-006-7,-75.0,0.166,-1.29,32.1,2.0,,0.0,0.0,
2025-08-15T02:11:02.489Z,9,GR86-006-7,-75.60000000000001,0.099,-1.346,32.230000000000004,2.0,5970.0,0.0,0.0,
2025-08-15T02:11:02.532Z,9,GR86-006-7,-75.60000000000001,0.063,-1.441,32.82,2.0,,0.0,0.0,106.85
2025-08-15T02:11:02.575Z,9,GR86-006-7,-75.60000000000001,0.084,-1.345,33.06,2.0,,0.0,0.0,
2025-08-15T02:11:02.618Z,9,GR86-006-7,-75.3,0.076,-1.356,34.910000000000004,2.0,,0.0,0.0,
2025-08-15T02:11:02.661Z,9,GR86-006-7,-75.0,0.125,-1.323,41.81,2.0,,0.0,0.0,
2025-08-15T02:11:02.704Z,9,GR86-006-7,-73.9,0.118,-1.263,79.27,2.0,6270.0,0.0,0.0,
2025-08-15T02:11:02.747Z,9,GR86-006-7,-73.0,0.119,-1.258,99.65,2.0,,0.0,0.0,106.23
2025-08-15T02:11:02.790Z,9,GR86-006-7,-72.3,0.15,-1.225,99.74,2.0,,0.0,0.0,
2025-08-15T02:11:02.833Z,9,GR86-006-7,-71.7,0.217,-1.232,99.74,2.0,,0.0,0.0,
2025-08-15T02:11:02.876Z,9,GR86-006-7,-70.9,0.209,-1.194,99.76,2.0,,0.0,0.0,
2025-08-15T02:11:02.919Z,9,GR86-006-7,-70.3,0.268,-1.173,99.76,2.0,6206.0,0.0,0.0,
2025-08-15T02:11:02.962Z,9,GR86-006-7,-69.7,0.193,-1.172,99.77,2.0,,0.0,0.0,106.46
2025-08-15T02:11:03.005Z,9,GR86-006-7,-69.5,0.208,-1.146,99.77,2.0,,0.0,0.0,
2025-08-15T02:11:03.048Z,9,GR86-006-7,-69.5,0.206,-1.203,99.77,2.0,,0.0,0.0,
2025-08-15T02:11:03.092Z,9,GR86-006-7,-69.5,0.198,-1.164,99.77,2.0,,0.0,0.0,
2025-08-15T02:11:03.135Z,9,GR86-006-7,-69.5,0.212,-1.166,91.28,2.0,6327.0,0.0,0.0,
2025-08-15T02:11:03.179Z,9,GR86-006-7,-69.5,0.234,-1.11,40.9,2.0,,0.0,0.0,106.62
2025-08-15T02:11:03.222Z,9,GR86-006-7,-69.7,0.185,-1.139,36.82,2.0,,0.0,0.0,
2025-08-15T02:11:03.268Z,9,GR86-006-7,-69.60000000000001,0.22,-1.145,36.69,2.0,,0.0,0.0,
2025-08-15T02:11:03.314Z,9,GR86-006-7,-69.60000000000001,0.176,-1.154,38.56,2.0,,0.0,0.0,
2025-08-15T02:11:03.357Z,9,GR86-006-7,-69.5,0.102,-1.234,38.68,2.0,6387.0,0.0,0.0,
2025-08-15T02:11:03.400Z,9,GR86-006-7,-69.60000000000001,0.152,-1.123,40.53,2.0,,0.0,0.0,107.56
2025-08-15T02:11:03.443Z,9,GR86-006-7,-69.4,0.118,-1.209,52.42,2.0,,0.0,0.0,
2025-08-15T02:11:03.486Z,9,GR86-006-7,-68.7,0.133,-1.133,86.03,2.0,,0.0,0.0,
2025-08-15T02:11:03.529Z,9,GR86-006-7,-65.4,0.155,-1.256,99.49,2.0,,0.0,0.0,
2025-08-15T02:11:03.572Z,9,GR86-006-7,-56.400000000000006,0.201,-1.237,99.77,2.0,6396.0,0.0,0.0,
2025-08-15T02:11:03.615Z,9,GR86-006-7,-47.7,0.25,-1.183,99.77,2.0,,0.0,0.0,108.66
2025-08-15T02:11:03.658Z,9,GR86-006-7,-43.1,0.243,-1.143,99.76,2.0,,0.0,0.0,
2025-08-15T02:11:03.701Z,9,GR86-006-7,-42.5,0.248,-1.09,99.77,2.0,,0.0,0.0,
2025-08-15T02:11:03.744Z,9,GR86-006-7,-43.900000000000006,0.229,-1.0,99.77,2.0,,0.0,0.0,
2025-08-15T02:11:03.787Z,9,GR86-006-7,-47.7,0.222,-1.124,99.76,2.0,6474.0,0.0,0.0,
2025-08-15T02:11:03.830Z,9,GR86-006-7,-49.8,0.227,-1.081,99.76,2.0,,0.0,0.0,109.55
2025-08-15T02:11:03.873Z,9,GR86-006-7,-51.8,0.212,-1.173,99.78,2.0,,0.0,0.0,
2025-08-15T02:11:03.962Z,9,GR86-006-7,-53.1,0.229,-1.168,99.77,2.0,,0.0,0.0,
2025-08-15T02:11:04.005Z,9,GR86-006-7,-54.0,0.235,-1.093,99.76,2.0,6557.0,0.0,0.0,
2025-08-15T02:11:04.048Z,9,GR86-006-7,-53.3,0.195,-1.135,99.77,2.0,,0.0,0.0,110.6
2025-08-15T02:11:04.091Z,9,GR86-006-7,-52.6,0.22,-1.194,99.78,2.0,,0.0,0.0,
2025-08-15T02:11:04.134Z,9,GR86-006-7,-51.8,0.226,-1.264,99.79,2.0,,0.0,0.0,
2025-08-15T02:11:04.177Z,9,GR86-006-7,-49.0,0.229,-1.32,99.8,2.0,,0.0,0.0,
2025-08-15T02:11:04.220Z,9,GR86-006-7,-44.900000000000006,0.208,-1.296,99.79,2.0,6668.0,0.0,0.0,
2025-08-15T02:11:04.263Z,9,GR86-006-7,-43.5,0.251,-1.291,99.79,2.0,,0.0,0.0,111.62
2025-08-15T02:11:04.306Z,9,GR86-006-7,-43.1,0.251,-1.189,99.78,2.0,,0.0,0.0,
2025-08-15T02:11:04.349Z,9,GR86-006-7,-41.900000000000006,0.244,-1.113,99.8,2.0,,0.0,0.0,
2025-08-15T02:11:04.392Z,9,GR86-006-7,-38.0,0.203,-1.085,99.77,2.0,,0.0,0.0,
2025-08-15T02:11:04.435Z,9,GR86-006-7,-34.800000000000004,0.216,-1.135,99.8,2.0,6720.0,0.0,0.0,
2025-08-15T02:11:04.478Z,9,GR86-006-7,-31.0,0.253,-1.119,99.78,2.0,,0.0,0.0,112.79
2025-08-15T02:11:04.521Z,9,GR86-006-7,-28.3,0.262,-1.115,99.8,2.0,,0.0,0.0,
2025-08-15T02:11:04.564Z,9,GR86-006-7,-26.5,0.243,-1.073,99.8,2.0,,0.0,0.0,
2025-08-15T02:11:04.607Z,9,GR86-006-7,-24.9,0.235,-1.075,99.79,2.0,,0.0,0.0,
2025-08-15T02:11:04.651Z,9,GR86-006-7,-24.0,0.235,-1.145,99.78,2.0,6757.0,0.0,0.0,
2025-08-15T02:11:04.694Z,9,GR86-006-7,-23.200000000000003,0.281,-1.082,99.8,2.0,,0.0,0.0,114.46
2025-08-15T02:11:04.737Z,9,GR86-006-7,-22.8,0.266,-1.078,99.78,2.0,,0.0,0.0,
2025-08-15T02:11:04.780Z,9,GR86-006-7,-22.4,0.231,-1.054,99.79,2.0,,0.0,0.0,
2025-08-15T02:11:04.823Z,9,GR86-006-7,-27.0,0.242,-1.082,99.8,2.0,,0.0,0.0,
2025-08-15T02:11:04.866Z,9,GR86-006-7,-37.9,0.258,-1.165,99.8,2.0,6870.0,0.0,0.0,
2025-08-15T02:11:04.909Z,9,GR86-006-7,-41.900000000000006,0.252,-1.192,99.8,2.0,,0.0,0.0,115.41
2025-08-15T02:11:04.952Z,9,GR86-006-7,-38.3,0.227,-1.188,99.77,2.0,,0.0,0.0,
2025-08-15T02:11:04.996Z,9,GR86-006-7,-36.4,0.238,-1.191,99.77,2.0,,0.0,0.0,
2025-08-15T02:11:05.039Z,9,GR86-006-7,-35.6,0.267,-1.146,99.79,2.0,,0.0,0.0,
2025-08-15T02:11:05.083Z,9,GR86-006-7,-35.0,0.259,-1.134,99.78,2.0,6936.0,0.0,0.0,
2025-08-15T02:11:05.126Z,9,GR86-006-7,-34.1,0.224,-1.119,99.77,2.0,,0.0,0.0,118.3
2025-08-15T02:11:05.169Z,9,GR86-006-7,-33.4,0.227,-1.087,99.8,2.0,,0.0,0.0,
2025-08-15T02:11:05.213Z,9,GR86-006-7,-34.300000000000004,0.224,-1.186,99.81,2.0,,0.0,0.0,
2025-08-15T02:11:05.257Z,9,GR86-006-7,-33.1,0.206,-1.059,99.77,2.0,,0.0,0.0,
2025-08-15T02:11:05.300Z,9,GR86-006-7,-30.3,0.181,-0.746,99.8,2.0,6989.0,0.0,0.0,
2025-08-15T02:11:05.343Z,9,GR86-006-7,-28.3,0.234,-0.8280000000000001,99.77,2.0,,0.0,0.0,119.77
2025-08-15T02:11:05.386Z,9,GR86-006-7,-28.200000000000003,0.169,-0.779,99.8,2.0,,0.0,0.0,
2025-08-15T02:11:05.429Z,9,GR86-006-7,-26.700000000000003,0.166,-0.8290000000000001,99.79,2.0,,0.0,0.0,
2025-08-15T02:11:05.474Z,9,GR86-006-7,-24.9,0.232,-0.906,99.81,2.0,,0.0,0.0,
2025-08-15T02:11:05.517Z,9,GR86-006-7,-24.200000000000003,0.272,-0.886,99.8,2.0,7074.0,0.0,0.0,
2025-08-15T02:11:05.562Z,9,GR86-006-7,-23.8,0.252,-0.88,99.8,2.0,,0.0,0.0,121.43
2025-08-15T02:11:05.605Z,9,GR86-006-7,-22.4,0.23,-0.932,99.81,2.0,,0.0,0.0,
2025-08-15T02:11:05.649Z,9,GR86-006-7,-21.0,0.178,-0.948,99.78,2.0,,0.0,0.0,
2025-08-15T02:11:05.692Z,9,GR86-006-7,-19.1,0.212,-0.752,99.81,2.0,,0.0,0.0,
2025-08-15T02:11:05.735Z,9,GR86-006-7,-17.7,0.223,-0.6890000000000001,99.78,2.0,7195.0,0.0,0.0,
2025-08-15T02:11:05.822Z,9,GR86-006-7,-17.0,0.24,-0.836,99.8,2.0,,0.0,0.0,121.58
2025-08-15T02:11:05.865Z,9,GR86-006-7,-22.5,-0.116,-0.911,99.8,3.0,,0.0,0.0,
2025-08-15T02:11:05.908Z,9,GR86-006-7,-23.1,0.442,-0.605,99.8,3.0,,0.0,0.0,
2025-08-15T02:11:05.951Z,9,GR86-006-7,-22.9,0.548,-0.778,99.8,3.0,7238.0,0.0,0.0,
2025-08-15T02:11:05.994Z,9,GR86-006-7,-22.200000000000003,0.364,-0.763,99.8,3.0,,0.0,0.0,123.41
2025-08-15T02:11:06.037Z,9,GR86-006-7,-21.4,0.285,-0.723,99.8,3.0,,0.0,0.0,
2025-08-15T02:11:06.080Z,9,GR86-006-7,-21.3,0.106,-0.861,99.79,3.0,,0.0,0.0,
2025-08-15T02:11:06.123Z,9,GR86-006-7,-21.3,0.258,-0.763,99.8,3.0,,0.0,0.0,
2025-08-15T02:11:06.166Z,9,GR86-006-7,-19.5,0.303,-0.6880000000000001,99.79,3.0,6585.0,0.0,0.0,
2025-08-15T02:11:06.209Z,9,GR86-006-7,-8.700000000000001,0.279,-0.769,99.8,3.0,,0.0,0.0,124.92
2025-08-15T02:11:06.254Z,9,GR86-006-7,-1.6,0.294,-0.5750000000000001,99.8,3.0,,0.0,0.0,
2025-08-15T02:11:06.297Z,9,GR86-006-7,-1.5,0.107,-0.554,99.8,3.0,,0.0,0.0,
2025-08-15T02:11:06.383Z,9,GR86-006-7,-1.3,0.273,-0.421,99.82,3.0,6031.0,0.0,0.0,
2025-08-15T02:11:06.426Z,9,GR86-006-7,-0.5,0.336,-0.458,99.8,3.0,,0.0,0.0,126.2
2025-08-15T02:11:06.469Z,9,GR86-006-7,-0.6000000000000001,0.2,-0.278,99.8,3.0,,0.0,0.0,
2025-08-15T02:11:06.514Z,9,GR86-006-7,-1.1,0.186,-0.121,99.8,3.0,,0.0,0.0,
2025-08-15T02:11:06.557Z,9,GR86-006-7,-0.8,0.267,-0.1,99.8,3.0,,0.0,0.0,
2025-08-15T02:11:06.600Z,9,GR86-006-7,2.6,0.331,0.008,99.8,3.0,6028.0,0.0,0.0,
2025-08-15T02:11:06.643Z,9,GR86-006-7,4.6000000000000005,0.224,0.199,99.8,3.0,,0.0,0.0,128.01
2025-08-15T02:11:06.686Z,9,GR86-006-7,4.5,0.155,0.018,99.8,3.0,,0.0,0.0,
2025-08-15T02:11:06.729Z,9,GR86-006-7,4.4,-0.028,0.207,99.8,3.0,,0.0,0.0,
2025-08-15T02:11:06.772Z,9,GR86-006-7,4.4,0.489,-0.09,99.81,3.0,,0.0,0.0,
2025-08-15T02:11:06.817Z,9,GR86-006-7,4.2,0.343,0.0,99.8,3.0,6083.0,0.0,0.0,
2025-08-15T02:11:06.860Z,9,GR86-006-7,4.2,0.122,0.178,99.8,3.0,,0.0,0.0,129.53
2025-08-15T02:11:06.903Z,9,GR86-006-7,4.1000000000000005,0.072,0.181,99.8,3.0,,0.0,0.0,
2025-08-15T02:11:06.946Z,9,GR86-006-7,4.1000000000000005,0.17,0.196,99.8,3.0,,0.0,0.0,
2025-08-15T02:11:06.989Z,9,GR86-006-7,4.1000000000000005,0.266,0.225,99.8,3.0,,0.0,0.0,
2025-08-15T02:11:07.032Z,9,GR86-006-7,4.0,0.264,0.171,99.81,3.0,6251.0,0.0,0.0,
2025-08-15T02:11:07.075Z,9,GR86-006-7,3.9,0.163,0.156,99.8,3.0,,0.0,0.0,130.9
2025-08-15T02:11:07.118Z,9,GR86-006-7,3.9,0.179,0.134,99.8,3.0,,0.0,0.0,
2025-08-15T02:11:07.161Z,9,GR86-006-7,3.9,0.203,0.136,99.8,3.0,,0.0,0.0,
2025-08-15T02:11:07.204Z,9,GR86-006-7,3.9,0.235,0.098,99.8,3.0,,0.0,0.0,
2025-08-15T02:11:07.247Z,9,GR86-006-7,3.9,0.193,0.094,99.8,3.0,6224.0,0.0,0.0,
2025-08-15T02:11:07.290Z,9,GR86-006-7,3.8,0.203,0.063,99.8,3.0,,0.0,0.0,132.54
2025-08-15T02:11:07.333Z,9,GR86-006-7,3.8,0.206,0.054,99.82,3.0,,0.0,0.0,
2025-08-15T02:11:07.376Z,9,GR86-006-7,3.9,0.194,0.049,99.8,3.0,,0.0,0.0,
2025-08-15T02:11:07.419Z,9,GR86-006-7,3.9,0.201,0.047,99.8,3.0,,0.0,0.0,
2025-08-15T02:11:07.462Z,9,GR86-006-7,3.9,0.198,0.07,99.8,3.0,6273.0,0.0,0.0,
2025-08-15T02:11:07.505Z,9,GR86-006-7,3.8,0.194,0.046,99.81,3.0,,0.0,0.0,134.01
2025-08-15T02:11:07.548Z,9,GR86-006-7,3.8,0.205,0.045,99.81,3.0,,0.0,0.0,
2025-08-15T02:11:07.591Z,9,GR86-006-7,3.8,0.206,0.047,99.8,3.0,,0.0,0.0,
2025-08-15T02:11:07.634Z,9,GR86-006-7,3.7,0.196,0.022,99.81,3.0,,0.0,0.0,
2025-08-15T02:11:07.677Z,9,GR86-006-7,3.7,0.21,0.023,99.81,3.0,6345.0,0.0,0.0,
2025-08-15T02:11:07.720Z,9,GR86-006-7,3.7,0.192,0.001,99.79,3.0,,0.0,0.0,136.87
2025-08-15T02:11:07.763Z,9,GR86-006-7,3.7,0.207,-0.021,99.8,3.0,,0.0,0.0,
2025-08-15T02:11:07.806Z,9,GR86-006-7,3.7,0.203,-0.041,99.82,3.0,,0.0,0.0,
2025-08-15T02:11:07.849Z,9,GR86-006-7,3.7,0.208,-0.04,99.8,3.0,,0.0,0.0,
2025-08-15T02:11:07.892Z,9,GR86-006-7,3.7,0.216,-0.054,99.8,3.0,6424.0,0.0,0.0,
2025-08-15T02:11:07.935Z,9,GR86-006-7,3.8,0.223,-0.055,99.79,3.0,,0.0,0.0,138.37
2025-08-15T02:11:07.978Z,9,GR86-006-7,3.8,0.198,-0.024,99.8,3.0,,0.0,0.0,
2025-08-15T02:11:08.021Z,9,GR86-006-7,3.8,0.175,-0.02,99.8,3.0,,0.0,0.0,
2025-08-15T02:11:08.064Z,9,GR86-006-7,3.8,0.209,0.007,99.8,3.0,,0.0,0.0,
2025-08-15T02:11:08.107Z,9,GR86-006-7,3.8,0.211,0.011,99.82,3.0,6491.0,0.0,0.0,
2025-08-15T02:11:08.150Z,9,GR86-006-7,3.8,0.203,0.013,99.8,3.0,,0.0,0.0,139.74
2025-08-15T02:11:08.194Z,9,GR86-006-7,3.8,0.206,0.028,99.81,3.0,,0.0,0.0,
2025-08-15T02:11:08.237Z,9,GR86-006-7,3.8,0.195,0.052,99.8,3.0,,0.0,0.0,
2025-08-15T02:11:08.280Z,9,GR86-006-7,3.7,0.169,0.051,99.8,3.0,,0.0,0.0,
2025-08-15T02:11:08.324Z,9,GR86-006-7,3.7,0.189,0.047,99.79,3.0,6612.0,0.0,0.0,
2025-08-15T02:11:08.368Z,9,GR86-006-7,3.7,0.212,0.031,99.8,3.0,,0.0,0.0,141.09
2025-08-15T02:11:08.411Z,9,GR86-006-7,3.7,0.199,0.04,99.79,3.0,,0.0,0.0,
2025-08-15T02:11:08.454Z,9,GR86-006-7,3.6,0.208,0.016,99.8,3.0,,0.0,0.0,
2025-08-15T02:11:08.498Z,9,GR86-006-7,3.6,0.208,0.013,99.8,3.0,,0.0,0.0,
2025-08-15T02:11:08.541Z,9,GR86-006-7,3.5,0.183,0.014,99.81,3.0,6666.0,0.0,0.0,
2025-08-15T02:11:08.584Z,9,GR86-006-7,3.5,0.171,-0.006,99.8,3.0,,0.0,0.0,142.52
2025-08-15T02:11:08.627Z,9,GR86-006-7,3.5,0.204,-0.011,99.81,3.0,,0.0,0.0,
2025-08-15T02:11:08.670Z,9,GR86-006-7,3.5,0.215,0.022,99.8,3.0,,0.0,0.0,
2025-08-15T02:11:08.714Z,9,GR86-006-7,3.5,0.203,-0.017,99.79,3.0,,0.0,0.0,
2025-08-15T02:11:08.757Z,9,GR86-006-7,3.5,0.204,-0.003,99.8,3.0,6732.0,0.0,0.0,
2025-08-15T02:11:08.800Z,9,GR86-006-7,3.5,0.197,-0.003,99.8,3.0,,0.0,0.0,143.87
2025-08-15T02:11:08.843Z,9,GR86-006-7,3.4000000000000004,0.175,-0.017,99.8,3.0,,0.0,0.0,
2025-08-15T02:11:08.886Z,9,GR86-006-7,3.4000000000000004,0.176,-0.011,99.82,3.0,,0.0,0.0,
2025-08-15T02:11:08.929Z,9,GR86-006-7,3.4000000000000004,0.185,-0.034,99.8,3.0,,0.0,0.0,
2025-08-15T02:11:09.015Z,9,GR86-006-7,3.1,0.202,-0.086,99.81,3.0,6790.0,0.0,0.0,145.25
2025-08-15T02:11:09.058Z,9,GR86-006-7,3.0,0.199,-0.098,99.79,3.0,,0.0,0.0,
2025-08-15T02:11:09.101Z,9,GR86-006-7,2.9000000000000004,0.2,-0.097,99.8,3.0,,0.0,0.0,
2025-08-15T02:11:09.144Z,9,GR86-006-7,2.1,0.182,-0.097,99.8,3.0,,0.0,0.0,
2025-08-15T02:11:09.187Z,9,GR86-006-7,2.0,0.173,-0.117,99.8,3.0,6852.0,0.0,0.0,
2025-08-15T02:11:09.230Z,9,GR86-006-7,2.0,0.176,-0.137,99.79,3.0,,0.0,0.0,146.56
2025-08-15T02:11:09.273Z,9,GR86-006-7,2.0,0.155,-0.116,99.81,3.0,,0.0,0.0,
2025-08-15T02:11:09.316Z,9,GR86-006-7,2.0,0.185,-0.138,99.8,3.0,,0.0,0.0,
2025-08-15T02:11:09.359Z,9,GR86-006-7,2.0,0.184,-0.121,99.8,3.0,,0.0,0.0,
2025-08-15T02:11:09.447Z,9,GR86-006-7,2.0,0.201,-0.102,99.8,3.0,6915.0,0.0,0.0,147.86
2025-08-15T02:11:09.490Z,9,GR86-006-7,2.0,0.172,-0.109,99.8,3.0,,0.0,0.0,
2025-08-15T02:11:09.533Z,9,GR86-006-7,2.0,0.193,-0.084,99.79,3.0,,0.0,0.0,
2025-08-15T02:11:09.576Z,9,GR86-006-7,2.0,0.175,-0.076,99.8,3.0,,0.0,0.0,
2025-08-15T02:11:09.619Z,9,GR86-006-7,2.0,0.164,-0.071,99.8,3.0,6978.0,0.0,0.0,
2025-08-15T02:11:09.662Z,9,GR86-006-7,1.9,0.165,-0.068,99.79,3.0,,0.0,0.0,149.09
2025-08-15T02:11:09.705Z,9,GR86-006-7,1.8,0.173,-0.083,99.81,3.0,,0.0,0.0,
2025-08-15T02:11:09.748Z,9,GR86-006-7,1.9,0.185,-0.079,99.82,3.0,,0.0,0.0,
2025-08-15T02:11:09.792Z,9,GR86-006-7,2.0,0.159,-0.085,99.8,3.0,,0.0,0.0,
2025-08-15T02:11:09.835Z,9,GR86-006-7,2.0,0.178,-0.083,99.81,3.0,7031.0,0.0,0.0,
2025-08-15T02:11:09.878Z,9,GR86-006-7,2.0,0.199,-0.082,99.79,3.0,,0.0,0.0,150.37
2025-08-15T02:11:09.922Z,9,GR86-006-7,2.0,0.183,-0.094,99.8,3.0,,0.0,0.0,
2025-08-15T02:11:09.965Z,9,GR86-006-7,2.0,0.163,-0.103,99.8,3.0,,0.0,0.0,
2025-08-15T02:11:10.008Z,9,GR86-006-7,2.0,0.162,-0.099,99.8,3.0,,0.0,0.0,
2025-08-15T02:11:10.051Z,9,GR86-006-7,1.9,0.161,-0.102,99.8,3.0,7086.0,0.0,0.0,
2025-08-15T02:11:10.094Z,9,GR86-006-7,1.8,0.161,-0.1,99.82,3.0,,0.0,0.0,151.6
2025-08-15T02:11:10.137Z,9,GR86-006-7,1.8,0.157,-0.116,99.8,3.0,,0.0,0.0,
2025-08-15T02:11:10.180Z,9,GR86-006-7,1.9,0.175,-0.112,99.8,3.0,,0.0,0.0,
2025-08-15T02:11:10.223Z,9,GR86-006-7,1.9,0.159,-0.125,99.8,3.0,,0.0,0.0,
2025-08-15T02:11:10.266Z,9,GR86-006-7,1.9,0.179,-0.135,99.81,3.0,7144.0,0.0,0.0,
2025-08-15T02:11:10.309Z,9,GR86-006-7,2.0,0.182,-0.141,99.8,3.0,,0.0,0.0,152.77
2025-08-15T02:11:10.352Z,9,GR86-006-7,2.0,-0.028,-0.141,99.82,4.0,,0.0,0.0,
2025-08-15T02:11:10.395Z,9,GR86-006-7,2.0,0.072,-0.1,99.81,4.0,,0.0,0.0,
2025-08-15T02:11:10.438Z,9,GR86-006-7,2.0,0.442,-0.181,99.8,4.0,,0.0,0.0,
2025-08-15T02:11:10.481Z,9,GR86-006-7,2.0,0.3,-0.18,99.8,4.0,7207.0,0.0,0.0,
2025-08-15T02:11:10.524Z,9,GR86-006-7,2.0,0.113,-0.069,99.8,4.0,,0.0,0.0,155.19
2025-08-15T02:11:10.568Z,9,GR86-006-7,2.0,0.004,-0.139,99.8,4.0,,0.0,0.0,
2025-08-15T02:11:10.611Z,9,GR86-006-7,2.0,0.17,-0.162,99.8,4.0,,0.0,0.0,
2025-08-15T02:11:10.654Z,9,GR86-006-7,2.0,0.195,-0.068,99.8,4.0,,0.0,0.0,
2025-08-15T02:11:10.697Z,9,GR86-006-7,2.0,0.109,-0.115,99.8,4.0,7254.0,0.0,0.0,
2025-08-15T02:11:10.741Z,9,GR86-006-7,2.1,0.109,-0.044,99.8,4.0,,0.0,0.0,156.14
2025-08-15T02:11:10.784Z,9,GR86-006-7,2.1,0.152,-0.066,99.81,4.0,,0.0,0.0,
2025-08-15T02:11:10.827Z,9,GR86-006-7,2.1,0.175,-0.068,99.8,4.0,,0.0,0.0,
2025-08-15T02:11:10.871Z,9,GR86-006-7,2.1,0.138,-0.03,99.8,4.0,,0.0,0.0,
2025-08-15T02:11:10.914Z,9,GR86-006-7,2.0,0.136,-0.026,99.81,4.0,6157.0,0.0,0.0,
2025-08-15T02:11:10.957Z,9,GR86-006-7,2.0,0.15,-0.01,99.81,4.0,,0.0,0.0,157.35
2025-08-15T02:11:11.000Z,9,GR86-006-7,2.1,0.15,0.016,99.8,4.0,,0.0,0.0,
2025-08-15T02:11:11.043Z,9,GR86-006-7,2.1,0.143,-0.007,99.81,4.0,,0.0,0.0,
2025-08-15T02:11:11.086Z,9,GR86-006-7,2.1,0.143,-0.003,99.8,4.0,,0.0,0.0,
2025-08-15T02:11:11.129Z,9,GR86-006-7,2.0,0.134,0.017,99.8,4.0,6223.0,0.0,0.0,
2025-08-15T02:11:11.172Z,9,GR86-006-7,2.2,0.146,-0.005,99.8,4.0,,0.0,0.0,158.41
2025-08-15T02:11:11.218Z,9,GR86-006-7,2.2,0.15,0.018,99.8,4.0,,0.0,0.0,
2025-08-15T02:11:11.261Z,9,GR86-006-7,2.1,0.135,-0.006,99.81,4.0,,0.0,0.0,
2025-08-15T02:11:11.304Z,9,GR86-006-7,2.1,0.142,0.028,99.8,4.0,,0.0,0.0,
2025-08-15T02:11:11.347Z,9,GR86-006-7,2.0,0.135,0.007,99.8,4.0,6263.0,0.0,0.0,
2025-08-15T02:11:11.390Z,9,GR86-006-7,2.0,0.146,0.011,99.81,4.0,,0.0,0.0,159.32
2025-08-15T02:11:11.433Z,9,GR86-006-7,2.1,0.156,0.031,99.8,4.0,,0.0,0.0,
2025-08-15T02:11:11.476Z,9,GR86-006-7,2.1,0.129,0.031,99.81,4.0,,0.0,0.0,
2025-08-15T02:11:11.519Z,9,GR86-006-7,2.1,0.141,0.001,99.8,4.0,,0.0,0.0,
2025-08-15T02:11:11.562Z,9,GR86-006-7,2.1,0.135,0.017,99.81,4.0,6298.0,0.0,0.0,
2025-08-15T02:11:11.605Z,9,GR86-006-7,2.1,0.14,0.0,99.8,4.0,,0.0,0.0,160.32
2025-08-15T02:11:11.648Z,9,GR86-006-7,2.0,0.143,0.008,99.8,4.0,,0.0,0.0,
2025-08-15T02:11:11.691Z,9,GR86-006-7,2.0,0.149,0.022,99.79,4.0,,0.0,0.0,
2025-08-15T02:11:11.734Z,9,GR86-006-7,2.2,0.139,0.021,99.8,4.0,,0.0,0.0,
2025-08-15T02:11:11.777Z,9,GR86-006-7,2.4000000000000004,0.145,0.032,99.81,4.0,6332.0,0.0,0.0,
2025-08-15T02:11:11.820Z,9,GR86-006-7,2.5,0.136,0.043,99.79,4.0,,0.0,0.0,161.31
2025-08-15T02:11:11.863Z,9,GR86-006-7,2.3000000000000003,0.147,0.057,99.81,4.0,,0.0,0.0,
2025-08-15T02:11:11.906Z,9,GR86-006-7,2.3000000000000003,0.141,0.029,99.8,4.0,,0.0,0.0,
2025-08-15T02:11:11.949Z,9,GR86-006-7,2.3000000000000003,0.132,0.046,99.8,4.0,,0.0,0.0,
2025-08-15T02:11:11.992Z,9,GR86-006-7,2.2,0.14,0.041,99.82,4.0,6372.0,0.0,0.0,
2025-08-15T02:11:12.035Z,9,GR86-006-7,2.2,0.132,0.018,99.8,4.0,,0.0,0.0,162.22
2025-08-15T02:11:12.079Z,9,GR86-006-7,2.2,0.144,0.037,99.8,4.0,,0.0,0.0,
2025-08-15T02:11:12.122Z,9,GR86-006-7,2.2,0.14,-0.01,99.8,4.0,,0.0,0.0,
2025-08-15T02:11:12.165Z,9,GR86-006-7,2.2,0.113,0.009,99.8,4.0,,0.0,0.0,
2025-08-15T02:11:12.208Z,9,GR86-006-7,2.2,0.134,-0.004,99.81,4.0,6411.0,0.0,0.0,
2025-08-15T02:11:12.251Z,9,GR86-006-7,2.2,0.145,-0.028,99.8,4.0,,0.0,0.0,163.12
2025-08-15T02:11:12.294Z,9,GR86-006-7,2.2,0.118,-0.041,99.8,4.0,,0.0,0.0,
2025-08-15T02:11:12.337Z,9,GR86-006-7,2.2,0.125,-0.041,99.8,4.0,,0.0,0.0,
2025-08-15T02:11:12.380Z,9,GR86-006-7,2.2,0.138,-0.052,99.81,4.0,,0.0,0.0,
2025-08-15T02:11:12.423Z,9,GR86-006-7,2.2,0.139,-0.05,99.8,4.0,6450.0,0.0,0.0,
2025-08-15T02:11:12.466Z,9,GR86-006-7,2.2,0.115,-0.047,99.8,4.0,,0.0,0.0,164.08
2025-08-15T02:11:12.509Z,9,GR86-006-7,2.2,0.127,-0.049,99.82,4.0,,0.0,0.0,
2025-08-15T02:11:12.554Z,9,GR86-006-7,2.2,0.152,-0.022,99.8,4.0,,0.0,0.0,
2025-08-15T02:11:12.597Z,9,GR86-006-7,2.2,0.123,-0.03,99.8,4.0,,0.0,0.0,
2025-08-15T02:11:12.641Z,9,GR86-006-7,2.2,0.122,-0.008,99.8,4.0,6488.0,0.0,0.0,
2025-08-15T02:11:12.684Z,9,GR86-006-7,2.2,0.122,-0.018,99.8,4.0,,0.0,0.0,165.08
2025-08-15T02:11:12.727Z,9,GR86-006-7,2.1,0.134,-0.03,99.82,4.0,,0.0,0.0,
2025-08-15T02:11:12.770Z,9,GR86-006-7,2.1,0.122,-0.021,99.8,4.0,,0.0,0.0,
2025-08-15T02:11:12.813Z,9,GR86-006-7,2.1,0.107,-0.04,99.81,4.0,,0.0,0.0,
2025-08-15T02:11:12.857Z,9,GR86-006-7,2.1,0.149,-0.043,99.8,4.0,6524.0,0.0,0.0,
2025-08-15T02:11:12.900Z,9,GR86-006-7,2.1,0.114,-0.05,99.8,4.0,,0.0,0.0,166.12
2025-08-15T02:11:12.943Z,9,GR86-006-7,2.1,0.112,-0.059,99.8,4.0,,0.0,0.0,
2025-08-15T02:11:12.986Z,9,GR86-006-7,2.1,0.142,-0.07,99.8,4.0,,0.0,0.0,
2025-08-15T02:11:13.029Z,9,GR86-006-7,2.1,0.121,-0.072,99.8,4.0,,0.0,0.0,
2025-08-15T02:11:13.072Z,9,GR86-006-7,2.1,0.122,-0.077,99.8,4.0,6562.0,0.0,0.0,
2025-08-15T02:11:13.117Z,9,GR86-006-7,2.1,0.116,-0.09,99.8,4.0,,0.0,0.0,168.23
2025-08-15T02:11:13.160Z,9,GR86-006-7,2.1,0.109,-0.089,99.8,4.0,,0.0,0.0,
2025-08-15T02:11:13.203Z,9,GR86-006-7,2.1,0.135,-0.102,99.8,4.0,,0.0,0.0,
2025-08-15T02:11:13.246Z,9,GR86-006-7,2.1,0.123,-0.123,99.8,4.0,,0.0,0.0,
2025-08-15T02:11:13.289Z,9,GR86-006-7,2.1,0.101,-0.112,99.81,4.0,6598.0,0.0,0.0,
2025-08-15T02:11:13.332Z,9,GR86-006-7,2.1,0.123,-0.124,99.79,4.0,,0.0,0.0,169.20000000000002
2025-08-15T02:11:13.376Z,9,GR86-006-7,2.1,0.12,-0.132,99.8,4.0,,0.0,0.0,
2025-08-15T02:11:13.419Z,9,GR86-006-7,2.1,0.105,-0.123,99.8,4.0,,0.0,0.0,
2025-08-15T02:11:13.462Z,9,GR86-006-7,2.1,0.116,-0.141,99.8,4.0,,0.0,0.0,
2025-08-15T02:11:13.505Z,9,GR86-006-7,2.0,0.128,-0.14,99.79,4.0,6642.0,0.0,0.0,
2025-08-15T02:11:13.548Z,9,GR86-006-7,1.6,0.109,-0.117,99.81,4.0,,0.0,0.0,170.19
2025-08-15T02:11:13.592Z,9,GR86-006-7,1.2000000000000002,0.136,-0.151,99.8,4.0,,0.0,0.0,
2025-08-15T02:11:13.635Z,9,GR86-006-7,1.2000000000000002,0.139,-0.144,99.8,4.0,,0.0,0.0,
2025-08-15T02:11:13.679Z,9,GR86-006-7,1.2000000000000002,0.114,-0.164,99.8,4.0,,0.0,0.0,
2025-08-15T02:11:13.722Z,9,GR86-006-7,0.9,0.112,-0.184,99.81,4.0,6723.0,0.0,0.0,
2025-08-15T02:11:13.768Z,9,GR86-006-7,0.6000000000000001,0.121,-0.165,99.8,4.0,,0.0,0.0,171.26
2025-08-15T02:11:13.811Z,9,GR86-006-7,0.6000000000000001,0.108,-0.171,99.8,4.0,,0.0,0.0,
2025-08-15T02:11:13.854Z,9,GR86-006-7,0.6000000000000001,0.16,-0.18,99.8,4.0,,0.0,0.0,
2025-08-15T02:11:13.897Z,9,GR86-006-7,0.6000000000000001,0.142,-0.177,99.8,4.0,,0.0,0.0,
2025-08-15T02:11:13.940Z,9,GR86-006-7,0.6000000000000001,0.154,-0.167,99.8,4.0,6766.0,0.0,0.0,
2025-08-15T02:11:13.983Z,9,GR86-006-7,0.6000000000000001,0.146,-0.147,99.8,4.0,,0.0,0.0,172.25
2025-08-15T02:11:14.026Z,9,GR86-006-7,0.6000000000000001,0.13,-0.147,99.82,4.0,,0.0,0.0,
2025-08-15T02:11:14.069Z,9,GR86-006-7,0.6000000000000001,0.149,-0.154,99.81,4.0,,0.0,0.0,
2025-08-15T02:11:14.114Z,9,GR86-006-7,0.6000000000000001,0.136,-0.159,99.79,4.0,,0.0,0.0,
2025-08-15T02:11:14.157Z,9,GR86-006-7,0.4,0.124,-0.149,99.8,4.0,6800.0,0.0,0.0,
2025-08-15T02:11:14.243Z,9,GR86-006-7,0.4,0.129,-0.163,99.81,4.0,,0.0,0.0,173.32
2025-08-15T02:11:14.286Z,9,GR86-006-7,0.4,0.147,-0.208,99.8,4.0,,0.0,0.0,
2025-08-15T02:11:14.329Z,9,GR86-006-7,0.4,0.14,-0.198,99.8,4.0,,0.0,0.0,
2025-08-15T02:11:14.372Z,9,GR86-006-7,0.2,0.12,-0.196,99.8,4.0,6840.0,0.0,0.0,
2025-08-15T02:11:14.415Z,9,GR86-006-7,0.1,0.1,-0.223,99.8,4.0,,0.0,0.0,174.3
2025-08-15T02:11:14.458Z,9,GR86-006-7,0.2,0.088,-0.254,99.79,4.0,,0.0,0.0,
2025-08-15T02:11:14.501Z,9,GR86-006-7,0.2,0.101,-0.208,99.81,4.0,,0.0,0.0,
2025-08-15T02:11:14.544Z,9,GR86-006-7,0.2,0.098,-0.22,99.81,4.0,,0.0,0.0,
2025-08-15T02:11:14.587Z,9,GR86-006-7,0.3,0.113,-0.215,99.8,4.0,6884.0,0.0,0.0,
2025-08-15T02:11:14.630Z,9,GR86-006-7,0.3,0.113,-0.231,99.8,4.0,,0.0,0.0,175.17000000000002
2025-08-15T02:11:14.673Z,9,GR86-006-7,0.4,0.129,-0.215,99.8,4.0,,0.0,0.0,
2025-08-15T02:11:14.718Z,9,GR86-006-7,0.4,0.142,-0.2,99.8,4.0,,0.0,0.0,
2025-08-15T02:11:14.761Z,9,GR86-006-7,0.4,0.125,-0.19,99.8,4.0,,0.0,0.0,
2025-08-15T02:11:14.804Z,9,GR86-006-7,0.4,0.13,-0.21,99.8,4.0,6921.0,0.0,0.0,
2025-08-15T02:11:14.847Z,9,GR86-006-7,0.4,0.143,-0.206,99.8,4.0,,0.0,0.0,176.19
2025-08-15T02:11:14.890Z,9,GR86-006-7,0.4,0.116,-0.173,99.79,4.0,,0.0,0.0,
2025-08-15T02:11:14.933Z,9,GR86-006-7,0.5,0.129,-0.164,99.8,4.0,,0.0,0.0,
2025-08-15T02:11:14.977Z,9,GR86-006-7,0.6000000000000001,0.14,-0.132,99.8,4.0,,0.0,0.0,
2025-08-15T02:11:15.020Z,9,GR86-006-7,0.6000000000000001,0.127,-0.172,99.8,4.0,6960.0,0.0,0.0,
2025-08-15T02:11:15.106Z,9,GR86-006-7,0.6000000000000001,0.147,-0.145,99.8,4.0,,0.0,0.0,177.26
2025-08-15T02:11:15.149Z,9,GR86-006-7,0.5,0.15,-0.145,99.81,4.0,,0.0,0.0,
2025-08-15T02:11:15.192Z,9,GR86-006-7,0.5,0.127,-0.132,99.81,4.0,,0.0,0.0,
2025-08-15T02:11:15.235Z,9,GR86-006-7,0.5,0.108,-0.155,99.79,4.0,6998.0,0.0,0.0,
2025-08-15T02:11:15.279Z,9,GR86-006-7,0.5,0.112,-0.131,99.8,4.0,,0.0,0.0,178.29
2025-08-15T02:11:15.322Z,9,GR86-006-7,0.6000000000000001,0.105,-0.154,99.8,4.0,,0.0,0.0,
2025-08-15T02:11:15.365Z,9,GR86-006-7,0.6000000000000001,0.1,-0.148,99.81,4.0,,0.0,0.0,
2025-08-15T02:11:15.408Z,9,GR86-006-7,0.6000000000000001,0.112,-0.158,99.79,4.0,,0.0,0.0,
2025-08-15T02:11:15.451Z,9,GR86-006-7,0.6000000000000001,0.094,-0.155,99.81,4.0,7039.0,0.0,0.0,
2025-08-15T02:11:15.494Z,9,GR86-006-7,0.6000000000000001,0.139,-0.165,99.8,4.0,,0.0,0.0,179.17000000000002
2025-08-15T02:11:15.537Z,9,GR86-006-7,0.6000000000000001,0.128,-0.142,99.8,4.0,,0.0,0.0,
2025-08-15T02:11:15.580Z,9,GR86-006-7,0.6000000000000001,0.133,-0.159,99.81,4.0,,0.0,0.0,
2025-08-15T02:11:15.623Z,9,GR86-006-7,0.6000000000000001,0.137,-0.144,99.79,4.0,,0.0,0.0,
2025-08-15T02:11:15.666Z,9,GR86-006-7,0.6000000000000001,0.14,-0.132,99.8,4.0,7084.0,0.0,0.0,
2025-08-15T02:11:15.752Z,9,GR86-006-7,0.6000000000000001,0.091,-0.124,99.8,4.0,,0.0,0.0,180.13
2025-08-15T02:11:15.795Z,9,GR86-006-7,0.6000000000000001,0.108,-0.128,99.8,4.0,,0.0,0.0,
2025-08-15T02:11:15.838Z,9,GR86-006-7,0.6000000000000001,0.114,-0.108,99.81,4.0,,0.0,0.0,
2025-08-15T02:11:15.881Z,9,GR86-006-7,0.7000000000000001,0.102,-0.076,99.8,4.0,7108.0,0.0,0.0,
2025-08-15T02:11:15.924Z,9,GR86-006-7,0.6000000000000001,0.112,-0.093,99.79,4.0,,0.0,0.0,182.12
2025-08-15T02:11:15.968Z,9,GR86-006-7,0.6000000000000001,0.11,-0.078,99.81,4.0,,0.0,0.0,
2025-08-15T02:11:16.011Z,9,GR86-006-7,0.6000000000000001,0.103,-0.077,99.8,4.0,,0.0,0.0,
2025-08-15T02:11:16.054Z,9,GR86-006-7,0.6000000000000001,0.113,-0.073,99.81,4.0,,0.0,0.0,
2025-08-15T02:11:16.097Z,9,GR86-006-7,0.6000000000000001,0.128,-0.09,99.79,4.0,7155.0,0.0,0.0,
2025-08-15T02:11:16.141Z,9,GR86-006-7,0.6000000000000001,0.118,-0.104,99.81,4.0,,0.0,0.0,183.14
2025-08-15T02:11:16.184Z,9,GR86-006-7,0.6000000000000001,0.114,-0.095,99.8,4.0,,0.0,0.0,
2025-08-15T02:11:16.227Z,9,GR86-006-7,0.6000000000000001,0.108,-0.104,99.8,4.0,,0.0,0.0,
2025-08-15T02:11:16.270Z,9,GR86-006-7,0.6000000000000001,-0.134,-0.085,99.82,5.0,,0.0,0.0,
2025-08-15T02:11:16.314Z,9,GR86-006-7,0.7000000000000001,0.373,-0.109,99.81,5.0,7234.0,0.0,0.0,
2025-08-15T02:11:16.357Z,9,GR86-006-7,0.7000000000000001,0.192,-0.162,99.79,5.0,,0.0,0.0,184.01
2025-08-15T02:11:16.400Z,9,GR86-006-7,0.6000000000000001,0.056,-0.052,99.8,5.0,,0.0,0.0,
2025-08-15T02:11:16.443Z,9,GR86-006-7,0.6000000000000001,-0.003,-0.089,99.8,5.0,,0.0,0.0,
2025-08-15T02:11:16.486Z,9,GR86-006-7,0.7000000000000001,0.178,-0.116,99.8,5.0,,0.0,0.0,
2025-08-15T02:11:16.529Z,9,GR86-006-7,0.7000000000000001,0.131,-0.04,99.81,5.0,6650.0,0.0,0.0,
2025-08-15T02:11:16.574Z,9,GR86-006-7,0.6000000000000001,0.055,-0.125,99.79,5.0,,0.0,0.0,185.05
2025-08-15T02:11:16.618Z,9,GR86-006-7,0.7000000000000001,0.088,-0.06,99.81,5.0,,0.0,0.0,
2025-08-15T02:11:16.661Z,9,GR86-006-7,0.7000000000000001,0.095,-0.086,99.8,5.0,,0.0,0.0,
2025-08-15T02:11:16.704Z,9,GR86-006-7,0.7000000000000001,0.091,-0.056,99.81,5.0,,0.0,0.0,
2025-08-15T02:11:16.790Z,9,GR86-006-7,0.7000000000000001,0.079,-0.085,99.81,5.0,6321.0,0.0,0.0,185.89
2025-08-15T02:11:16.833Z,9,GR86-006-7,0.6000000000000001,0.11,-0.061,99.8,5.0,,0.0,0.0,
2025-08-15T02:11:16.876Z,9,GR86-006-7,0.6000000000000001,0.107,-0.086,99.8,5.0,,0.0,0.0,
2025-08-15T02:11:16.919Z,9,GR86-006-7,0.6000000000000001,0.1,-0.082,99.8,5.0,,0.0,0.0,
2025-08-15T02:11:16.962Z,9,GR86-006-7,0.6000000000000001,0.094,-0.114,99.81,5.0,6338.0,0.0,0.0,
2025-08-15T02:11:17.005Z,9,GR86-006-7,0.6000000000000001,0.095,-0.127,99.81,5.0,,0.0,0.0,186.72
2025-08-15T02:11:17.048Z,9,GR86-006-7,0.7000000000000001,0.112,-0.121,99.8,5.0,,0.0,0.0,
2025-08-15T02:11:17.091Z,9,GR86-006-7,0.7000000000000001,0.099,-0.14,99.8,5.0,,0.0,0.0,
2025-08-15T02:11:17.134Z,9,GR86-006-7,0.7000000000000001,0.09,-0.124,99.8,5.0,,0.0,0.0,
2025-08-15T02:11:17.177Z,9,GR86-006-7,0.7000000000000001,0.096,-0.148,99.8,5.0,6371.0,0.0,0.0,
2025-08-15T02:11:17.220Z,9,GR86-006-7,0.7000000000000001,0.105,-0.114,99.8,5.0,,0.0,0.0,187.45
2025-08-15T02:11:17.263Z,9,GR86-006-7,0.7000000000000001,0.1,-0.112,99.81,5.0,,0.0,0.0,
2025-08-15T02:11:17.306Z,9,GR86-006-7,0.7000000000000001,0.112,-0.11,99.8,5.0,,0.0,0.0,
2025-08-15T02:11:17.349Z,9,GR86-006-7,0.6000000000000001,0.09,-0.069,99.8,5.0,,0.0,0.0,
2025-08-15T02:11:17.392Z,9,GR86-006-7,0.6000000000000001,0.1,-0.06,99.8,5.0,6400.0,0.0,0.0,
2025-08-15T02:11:17.435Z,9,GR86-006-7,0.6000000000000001,0.095,-0.032,99.8,5.0,,0.0,0.0,188.24
2025-08-15T02:11:17.479Z,9,GR86-006-7,0.6000000000000001,0.09,-0.064,99.79,5.0,,0.0,0.0,
2025-08-15T02:11:17.522Z,9,GR86-006-7,0.6000000000000001,0.089,-0.097,99.81,5.0,,0.0,0.0,
2025-08-15T02:11:17.565Z,9,GR86-006-7,0.6000000000000001,0.105,-0.072,99.81,5.0,,0.0,0.0,
2025-08-15T02:11:17.608Z,9,GR86-006-7,0.6000000000000001,0.092,-0.096,99.8,5.0,6425.0,0.0,0.0,
2025-08-15T02:11:17.651Z,9,GR86-006-7,0.7000000000000001,0.099,-0.091,99.8,5.0,,0.0,0.0,189.16
2025-08-15T02:11:17.694Z,9,GR86-006-7,0.7000000000000001,0.107,-0.068,99.81,5.0,,0.0,0.0,
2025-08-15T02:11:17.737Z,9,GR86-006-7,0.7000000000000001,0.096,-0.109,99.79,5.0,,0.0,0.0,
2025-08-15T02:11:17.823Z,9,GR86-006-7,0.7000000000000001,0.076,-0.073,99.82,5.0,6456.0,0.0,0.0,
2025-08-15T02:11:17.866Z,9,GR86-006-7,0.7000000000000001,0.095,-0.089,99.8,5.0,,0.0,0.0,189.8
2025-08-15T02:11:17.909Z,9,GR86-006-7,0.6000000000000001,0.1,-0.082,99.8,5.0,,0.0,0.0,
2025-08-15T02:11:17.954Z,9,GR86-006-7,0.7000000000000001,0.093,-0.097,99.8,5.0,,0.0,0.0,
2025-08-15T02:11:17.998Z,9,GR86-006-7,0.7000000000000001,0.073,-0.103,99.81,5.0,,0.0,0.0,
2025-08-15T02:11:18.041Z,9,GR86-006-7,0.6000000000000001,0.081,-0.086,99.8,5.0,6477.0,0.0,0.0,
2025-08-15T02:11:18.084Z,9,GR86-006-7,0.7000000000000001,0.102,-0.085,99.8,5.0,,0.0,0.0,190.62
2025-08-15T02:11:18.127Z,9,GR86-006-7,0.7000000000000001,0.086,-0.076,99.81,5.0,,0.0,0.0,
2025-08-15T02:11:18.170Z,9,GR86-006-7,0.7000000000000001,0.096,-0.078,99.81,5.0,,0.0,0.0,
2025-08-15T02:11:18.213Z,9,GR86-006-7,0.7000000000000001,0.095,-0.067,99.8,5.0,,0.0,0.0,
2025-08-15T02:11:18.257Z,9,GR86-006-7,0.7000000000000001,0.077,-0.058,99.8,5.0,6509.0,0.0,0.0,
2025-08-15T02:11:18.300Z,9,GR86-006-7,0.7000000000000001,0.093,-0.062,99.8,5.0,,0.0,0.0,191.3
2025-08-15T02:11:18.343Z,9,GR86-006-7,0.7000000000000001,0.088,-0.096,99.8,5.0,,0.0,0.0,
2025-08-15T02:11:18.386Z,9,GR86-006-7,0.8,0.106,-0.097,99.81,5.0,,0.0,0.0,
2025-08-15T02:11:18.429Z,9,GR86-006-7,0.8,0.087,-0.064,99.8,5.0,,0.0,0.0,
2025-08-15T02:11:18.472Z,9,GR86-006-7,0.8,0.076,-0.057,99.81,5.0,6528.0,0.0,0.0,
2025-08-15T02:11:18.517Z,9,GR86-006-7,0.9,0.096,-0.052,99.8,5.0,,0.0,0.0,192.95
2025-08-15T02:11:18.560Z,9,GR86-006-7,0.9,0.082,-0.043,99.8,5.0,,0.0,0.0,
2025-08-15T02:11:18.603Z,9,GR86-006-7,1.0,0.091,-0.01,99.8,5.0,,0.0,0.0,
2025-08-15T02:11:18.646Z,9,GR86-006-7,0.9,0.088,-0.001,99.81,5.0,,0.0,0.0,
2025-08-15T02:11:18.689Z,9,GR86-006-7,1.0,0.074,0.017,99.8,5.0,6557.0,0.0,0.0,
2025-08-15T02:11:18.732Z,9,GR86-006-7,1.4,0.065,0.052,99.8,5.0,,0.0,0.0,193.61
2025-08-15T02:11:18.775Z,9,GR86-006-7,1.4,0.102,0.061,99.81,5.0,,0.0,0.0,
2025-08-15T02:11:18.818Z,9,GR86-006-7,1.3,0.078,0.051,99.8,5.0,,0.0,0.0,
2025-08-15T02:11:18.861Z,9,GR86-006-7,1.2000000000000002,0.088,0.063,99.8,5.0,,0.0,0.0,
2025-08-15T02:11:18.904Z,9,GR86-006-7,1.2000000000000002,0.094,0.052,99.8,5.0,6582.0,0.0,0.0,
2025-08-15T02:11:18.947Z,9,GR86-006-7,1.2000000000000002,0.089,0.045,99.81,5.0,,0.0,0.0,194.4
2025-08-15T02:11:18.990Z,9,GR86-006-7,1.2000000000000002,0.085,0.022,99.8,5.0,,0.0,0.0,
2025-08-15T02:11:19.033Z,9,GR86-006-7,1.2000000000000002,0.075,0.022,99.8,5.0,,0.0,0.0,
2025-08-15T02:11:19.077Z,9,GR86-006-7,1.2000000000000002,0.093,0.026,99.8,5.0,,0.0,0.0,
2025-08-15T02:11:19.120Z,9,GR86-006-7,1.2000000000000002,0.074,0.034,99.8,5.0,6631.0,0.0,0.0,
2025-08-15T02:11:19.163Z,9,GR86-006-7,1.2000000000000002,0.081,0.03,99.81,5.0,,0.0,0.0,195.12
2025-08-15T02:11:19.206Z,9,GR86-006-7,1.2000000000000002,0.118,0.031,99.8,5.0,,0.0,0.0,
2025-08-15T02:11:19.249Z,9,GR86-006-7,1.2000000000000002,0.076,0.003,99.8,5.0,,0.0,0.0,
2025-08-15T02:11:19.292Z,9,GR86-006-7,1.2000000000000002,0.058,0.017,99.8,5.0,,0.0,0.0,
2025-08-15T02:11:19.335Z,9,GR86-006-7,1.2000000000000002,0.075,0.003,99.81,5.0,6651.0,0.0,0.0,
2025-08-15T02:11:19.379Z,9,GR86-006-7,1.2000000000000002,0.092,-0.003,99.81,5.0,,0.0,0.0,195.81
2025-08-15T02:11:19.422Z,9,GR86-006-7,1.2000000000000002,0.091,0.018,99.82,5.0,,0.0,0.0,
2025-08-15T02:11:19.468Z,9,GR86-006-7,1.2000000000000002,0.078,-0.019,99.8,5.0,,0.0,0.0,
2025-08-15T02:11:19.511Z,9,GR86-006-7,1.2000000000000002,0.085,-0.018,99.8,5.0,,0.0,0.0,
2025-08-15T02:11:19.554Z,9,GR86-006-7,1.2000000000000002,0.082,0.005,99.81,5.0,6679.0,0.0,0.0,
2025-08-15T02:11:19.598Z,9,GR86-006-7,1.2000000000000002,0.093,0.031,99.81,5.0,,0.0,0.0,196.51
2025-08-15T02:11:19.641Z,9,GR86-006-7,1.2000000000000002,0.079,0.032,99.8,5.0,,0.0,0.0,
2025-08-15T02:11:19.684Z,9,GR86-006-7,1.2000000000000002,0.103,-0.007,99.8,5.0,,0.0,0.0,
2025-08-15T02:11:19.727Z,9,GR86-006-7,1.2000000000000002,0.101,0.008,99.81,5.0,,0.0,0.0,
2025-08-15T02:11:19.770Z,9,GR86-006-7,1.2000000000000002,0.073,-0.018,99.8,5.0,6695.0,0.0,0.0,
2025-08-15T02:11:19.813Z,9,GR86-006-7,1.2000000000000002,0.08,0.019,99.8,5.0,,0.0,0.0,197.23
2025-08-15T02:11:19.857Z,9,GR86-006-7,1.2000000000000002,0.078,-0.02,99.8,5.0,,0.0,0.0,
2025-08-15T02:11:19.900Z,9,GR86-006-7,1.2000000000000002,0.099,-0.009,99.8,5.0,,0.0,0.0,
2025-08-15T02:11:19.943Z,9,GR86-006-7,1.3,0.102,-0.023,99.8,5.0,,0.0,0.0,
2025-08-15T02:11:19.986Z,9,GR86-006-7,1.3,0.065,-0.012,99.8,5.0,6720.0,0.0,0.0,
2025-08-15T02:11:20.029Z,9,GR86-006-7,1.3,0.093,-0.023,99.8,5.0,,0.0,0.0,197.95
2025-08-15T02:11:20.072Z,9,GR86-006-7,1.2000000000000002,0.096,0.028,99.81,5.0,,0.0,0.0,
2025-08-15T02:11:20.115Z,9,GR86-006-7,1.3,0.09,0.013,99.8,5.0,,0.0,0.0,
2025-08-15T02:11:20.158Z,9,GR86-006-7,1.3,0.092,0.013,99.81,5.0,,0.0,0.0,
2025-08-15T02:11:20.201Z,9,GR86-006-7,1.2000000000000002,0.093,-0.028,99.82,5.0,6746.0,0.0,0.0,
2025-08-15T02:11:20.244Z,9,GR86-006-7,1.2000000000000002,0.061,0.012,99.8,5.0,,0.0,0.0,198.61
2025-08-15T02:11:20.287Z,9,GR86-006-7,1.1,0.072,-0.002,99.8,5.0,,0.0,0.0,
2025-08-15T02:11:20.330Z,9,GR86-006-7,1.2000000000000002,0.085,0.004,99.8,5.0,,0.0,0.0,
2025-08-15T02:11:20.373Z,9,GR86-006-7,1.2000000000000002,0.089,-0.003,99.8,5.0,,0.0,0.0,
2025-08-15T02:11:20.416Z,9,GR86-006-7,1.2000000000000002,0.059,-0.027,99.81,5.0,6769.0,0.0,0.0,
2025-08-15T02:11:20.459Z,9,GR86-006-7,1.2000000000000002,0.077,-0.034,99.81,5.0,,0.0,0.0,199.35
2025-08-15T02:11:20.502Z,9,GR86-006-7,1.2000000000000002,0.07,-0.015,99.8,5.0,,0.0,0.0,
2025-08-15T02:11:20.547Z,9,GR86-006-7,1.2000000000000002,0.067,-0.049,99.8,5.0,,0.0,0.0,
2025-08-15T02:11:20.590Z,9,GR86-006-7,1.2000000000000002,0.071,-0.019,99.8,5.0,,0.0,0.0,
2025-08-15T02:11:20.633Z,9,GR86-006-7,1.3,0.063,-0.044,99.8,5.0,6789.0,0.0,0.0,
2025-08-15T02:11:20.676Z,9,GR86-006-7,1.3,0.05,-0.055,99.8,5.0,,0.0,0.0,199.98
2025-08-15T02:11:20.719Z,9,GR86-006-7,1.3,0.078,-0.047,99.8,5.0,,0.0,0.0,
2025-08-15T02:11:20.762Z,9,GR86-006-7,1.3,0.061,-0.019,99.8,5.0,,0.0,0.0,
2025-08-15T02:11:20.848Z,9,GR86-006-7,1.4,0.088,-0.003,99.79,5.0,6810.0,0.0,0.0,
2025-08-15T02:11:20.891Z,9,GR86-006-7,1.4,0.072,-0.013,99.8,5.0,,0.0,0.0,200.57
2025-08-15T02:11:20.934Z,9,GR86-006-7,1.4,0.078,0.014,99.8,5.0,,0.0,0.0,
2025-08-15T02:11:20.977Z,9,GR86-006-7,1.3,0.08,0.041,99.79,5.0,,0.0,0.0,
2025-08-15T02:11:21.020Z,9,GR86-006-7,1.4,0.077,0.012,99.8,5.0,,0.0,0.0,
2025-08-15T02:11:21.063Z,9,GR86-006-7,2.1,0.099,0.034,99.8,5.0,6835.0,0.0,0.0,
2025-08-15T02:11:21.106Z,9,GR86-006-7,2.7,0.087,0.032,99.8,5.0,,0.0,0.0,201.16
2025-08-15T02:11:21.149Z,9,GR86-006-7,2.8000000000000003,0.084,0.04,99.8,5.0,,0.0,0.0,
2025-08-15T02:11:21.192Z,9,GR86-006-7,2.8000000000000003,0.075,0.069,99.81,5.0,,0.0,0.0,
2025-08-15T02:11:21.235Z,9,GR86-006-7,3.0,0.096,0.091,99.8,5.0,,0.0,0.0,
2025-08-15T02:11:21.279Z,9,GR86-006-7,3.5,0.073,0.133,99.8,5.0,6849.0,0.0,0.0,
2025-08-15T02:11:21.322Z,9,GR86-006-7,4.4,0.077,0.107,99.8,5.0,,0.0,0.0,202.42
2025-08-15T02:11:21.365Z,9,GR86-006-7,5.9,0.063,0.119,99.8,5.0,,0.0,0.0,
2025-08-15T02:11:21.408Z,9,GR86-006-7,6.6000000000000005,0.063,0.165,99.8,5.0,,0.0,0.0,
2025-08-15T02:11:21.451Z,9,GR86-006-7,6.4,0.07,0.164,99.8,5.0,,0.0,0.0,
2025-08-15T02:11:21.494Z,9,GR86-006-7,6.2,0.051,0.204,99.81,5.0,6871.0,0.0,0.0,
2025-08-15T02:11:21.537Z,9,GR86-006-7,6.2,0.075,0.221,99.8,5.0,,0.0,0.0,203.08
2025-08-15T02:11:21.580Z,9,GR86-006-7,6.6000000000000005,0.052,0.226,99.79,5.0,,0.0,0.0,
2025-08-15T02:11:21.623Z,9,GR86-006-7,6.800000000000001,0.071,0.246,99.8,5.0,,0.0,0.0,
2025-08-15T02:11:21.666Z,9,GR86-006-7,6.5,0.088,0.264,99.8,5.0,,0.0,0.0,
2025-08-15T02:11:21.709Z,9,GR86-006-7,6.4,0.071,0.229,99.8,5.0,6895.0,0.0,0.0,
2025-08-15T02:11:21.752Z,9,GR86-006-7,6.4,0.055,0.273,99.79,5.0,,0.0,0.0,203.8
2025-08-15T02:11:21.795Z,9,GR86-006-7,6.5,0.077,0.274,99.8,5.0,,0.0,0.0,
2025-08-15T02:11:21.838Z,9,GR86-006-7,6.6000000000000005,0.076,0.276,99.8,5.0,,0.0,0.0,
2025-08-15T02:11:21.881Z,9,GR86-006-7,6.9,0.086,0.259,99.8,5.0,,0.0,0.0,
2025-08-15T02:11:21.924Z,9,GR86-006-7,6.9,0.067,0.24,99.8,5.0,6943.0,0.0,0.0,
2025-08-15T02:11:21.968Z,9,GR86-006-7,6.800000000000001,0.047,0.232,99.8,5.0,,0.0,0.0,204.63
2025-08-15T02:11:22.011Z,9,GR86-006-7,6.6000000000000005,0.069,0.233,99.8,5.0,,0.0,0.0,
2025-08-15T02:11:22.054Z,9,GR86-006-7,6.6000000000000005,0.089,0.246,99.81,5.0,,0.0,0.0,
2025-08-15T02:11:22.097Z,9,GR86-006-7,7.2,0.037,0.208,99.8,5.0,,0.0,0.0,
2025-08-15T02:11:22.140Z,9,GR86-006-7,7.5,0.075,0.229,99.79,5.0,6975.0,0.0,0.0,
2025-08-15T02:11:22.183Z,9,GR86-006-7,7.5,0.041,0.255,99.81,5.0,,0.0,0.0,205.35
2025-08-15T02:11:22.226Z,9,GR86-006-7,7.5,0.056,0.246,99.8,5.0,,0.0,0.0,
2025-08-15T02:11:22.314Z,9,GR86-006-7,7.6,0.05,0.275,99.8,5.0,,0.0,0.0,
2025-08-15T02:11:22.357Z,9,GR86-006-7,8.0,0.044,0.243,99.8,5.0,6993.0,0.0,0.0,
2025-08-15T02:11:22.400Z,9,GR86-006-7,8.200000000000001,0.05,0.27,99.8,5.0,,0.0,0.0,205.91
2025-08-15T02:11:22.443Z,9,GR86-006-7,8.3,0.071,0.258,99.79,5.0,,0.0,0.0,
2025-08-15T02:11:22.486Z,9,GR86-006-7,8.3,0.074,0.27,99.8,5.0,,0.0,0.0,
2025-08-15T02:11:22.529Z,9,GR86-006-7,8.700000000000001,0.064,0.272,99.8,5.0,,0.0,0.0,
2025-08-15T02:11:22.574Z,9,GR86-006-7,9.5,0.075,0.306,99.8,5.0,7006.0,0.0,0.0,
2025-08-15T02:11:22.618Z,9,GR86-006-7,10.0,0.089,0.301,99.8,5.0,,0.0,0.0,206.47
2025-08-15T02:11:22.662Z,9,GR86-006-7,10.1,0.06,0.318,99.8,5.0,,0.0,0.0,
2025-08-15T02:11:22.705Z,9,GR86-006-7,9.9,0.062,0.33,99.8,5.0,,0.0,0.0,
2025-08-15T02:11:22.748Z,9,GR86-006-7,9.8,0.065,0.326,99.8,5.0,,0.0,0.0,
2025-08-15T02:11:22.791Z,9,GR86-006-7,10.0,0.047,0.323,99.79,5.0,7022.0,0.0,0.0,
2025-08-15T02:11:22.834Z,9,GR86-006-7,10.0,0.061,0.33,99.79,5.0,,0.0,0.0,207.07
2025-08-15T02:11:22.877Z,9,GR86-006-7,9.8,0.065,0.341,99.8,5.0,,0.0,0.0,
2025-08-15T02:11:22.920Z,9,GR86-006-7,9.6,0.055,0.378,99.8,5.0,,0.0,0.0,
2025-08-15T02:11:22.963Z,9,GR86-006-7,9.5,0.073,0.392,99.8,5.0,,0.0,0.0,
2025-08-15T02:11:23.006Z,9,GR86-006-7,9.4,0.043,0.407,99.8,5.0,7051.0,0.0,0.0,
2025-08-15T02:11:23.049Z,9,GR86-006-7,9.5,0.081,0.412,99.8,5.0,,0.0,0.0,207.6
2025-08-15T02:11:23.092Z,9,GR86-006-7,10.0,0.088,0.367,99.8,5.0,,0.0,0.0,
2025-08-15T02:11:23.135Z,9,GR86-006-7,9.8,0.07,0.376,99.8,5.0,,0.0,0.0,
2025-08-15T02:11:23.178Z,9,GR86-006-7,9.5,0.058,0.351,99.8,5.0,,0.0,0.0,
2025-08-15T02:11:23.221Z,9,GR86-006-7,9.3,0.088,0.328,99.8,5.0,7082.0,0.0,0.0,
2025-08-15T02:11:23.264Z,9,GR86-006-7,9.1,0.055,0.307,99.81,5.0,,0.0,0.0,208.02
2025-08-15T02:11:23.307Z,9,GR86-006-7,9.0,0.045,0.251,99.81,5.0,,0.0,0.0,
2025-08-15T02:11:23.350Z,9,GR86-006-7,8.9,0.079,0.229,99.8,5.0,,0.0,0.0,
2025-08-15T02:11:23.394Z,9,GR86-006-7,8.9,0.084,0.213,99.8,5.0,,0.0,0.0,
2025-08-15T02:11:23.437Z,9,GR86-006-7,8.9,0.039,0.184,99.8,5.0,7087.0,0.0,0.0,
2025-08-15T02:11:23.480Z,9,GR86-006-7,8.9,0.065,0.179,99.8,5.0,,0.0,0.0,208.84
2025-08-15T02:11:23.523Z,9,GR86-006-7,8.9,0.082,0.16,99.8,5.0,,0.0,0.0,
2025-08-15T02:11:23.566Z,9,GR86-006-7,8.8,0.081,0.128,99.8,5.0,,0.0,0.0,
2025-08-15T02:11:23.609Z,9,GR86-006-7,8.8,0.063,0.127,99.79,5.0,,0.0,0.0,
2025-08-15T02:11:23.654Z,9,GR86-006-7,8.700000000000001,0.046,0.123,99.8,5.0,7118.0,0.0,0.0,
2025-08-15T02:11:23.698Z,9,GR86-006-7,8.700000000000001,0.076,0.155,99.78,5.0,,0.0,0.0,209.41
2025-08-15T02:11:23.741Z,9,GR86-006-7,8.6,0.063,0.183,99.8,5.0,,0.0,0.0,
2025-08-15T02:11:23.784Z,9,GR86-006-7,8.5,0.058,0.182,99.8,5.0,,0.0,0.0,
2025-08-15T02:11:23.827Z,9,GR86-006-7,8.4,0.026,0.199,99.8,5.0,,0.0,0.0,
2025-08-15T02:11:23.870Z,9,GR86-006-7,8.4,0.054,0.24,99.79,5.0,7126.0,0.0,0.0,
2025-08-15T02:11:23.914Z,9,GR86-006-7,8.200000000000001,0.058,0.219,99.8,5.0,,0.0,0.0,210.53
2025-08-15T02:11:23.957Z,9,GR86-006-7,8.1,0.014,0.216,99.8,5.0,,5.705,5.965,
2025-08-15T02:11:24.000Z,9,GR86-006-7,8.1,-0.008,0.188,99.81,5.0,,6.805,7.08,
2025-08-15T02:11:24.043Z,9,GR86-006-7,8.1,-0.04,0.182,99.8,5.0,,5.675,6.335,
2025-08-15T02:11:24.086Z,9,GR86-006-7,8.0,-0.041,0.163,99.8,5.0,7170.0,1.8,2.395,
2025-08-15T02:11:24.129Z,9,GR86-006-7,8.0,0.057,0.151,99.8,5.0,,0.0,0.0,211.25
2025-08-15T02:11:24.172Z,9,GR86-006-7,7.9,0.062,0.122,99.79,5.0,,0.0,0.0,
2025-08-15T02:11:24.217Z,9,GR86-006-7,7.9,0.044,0.092,99.79,5.0,,0.0,0.0,
2025-08-15T02:11:24.261Z,9,GR86-006-7,7.9,0.034,0.065,99.79,5.0,,0.0,0.0,
2025-08-15T02:11:24.305Z,9,GR86-006-7,7.800000000000001,0.054,0.065,99.8,5.0,7176.0,0.0,0.0,
2025-08-15T02:11:24.349Z,9,GR86-006-7,7.800000000000001,0.031,0.089,99.79,5.0,,0.0,0.0,211.54
2025-08-15T02:11:24.392Z,9,GR86-006-7,7.800000000000001,0.034,0.09,99.79,5.0,,0.0,0.0,
2025-08-15T02:11:24.435Z,9,GR86-006-7,7.800000000000001,0.029,0.124,99.79,5.0,,0.0,0.0,
2025-08-15T02:11:24.478Z,9,GR86-006-7,7.7,0.022,0.12,99.81,5.0,,0.0,0.0,
2025-08-15T02:11:24.522Z,9,GR86-006-7,7.6,0.04,0.139,99.81,5.0,7201.0,0.0,0.0,
2025-08-15T02:11:24.567Z,9,GR86-006-7,7.5,0.033,0.142,99.68,5.0,,0.0,1.86,212.1
2025-08-15T02:11:24.610Z,9,GR86-006-7,7.5,0.032,0.109,56.91,5.0,,2.915,3.005,
2025-08-15T02:11:24.653Z,9,GR86-006-7,7.5,0.017,0.1,36.82,5.0,,4.87,4.99,
2025-08-15T02:11:24.696Z,9,GR86-006-7,7.5,-0.088,0.08,31.12,5.0,,6.99,7.05,
2025-08-15T02:11:24.739Z,9,GR86-006-7,7.4,-0.132,0.098,4.17,5.0,7218.0,12.055,12.085,
2025-08-15T02:11:24.782Z,9,GR86-006-7,7.4,-0.293,0.084,4.7,5.0,,18.955,18.71,212.72
2025-08-15T02:11:24.826Z,9,GR86-006-7,7.300000000000001,-0.541,0.098,4.53,5.0,,26.355,26.11,
2025-08-15T02:11:24.869Z,9,GR86-006-7,7.300000000000001,-0.629,0.129,4.32,5.0,,35.265,34.87,
2025-08-15T02:11:24.914Z,9,GR86-006-7,7.2,-0.988,0.062,3.7,5.0,,45.965,45.37,
2025-08-15T02:11:24.957Z,9,GR86-006-7,6.5,-0.914,0.114,3.35,5.0,7184.0,47.995000000000005,47.870000000000005,
2025-08-15T02:11:25.000Z,9,GR86-006-7,5.9,-0.977,0.07,3.0500000000000003,5.0,,47.870000000000005,48.265,213.12
2025-08-15T02:11:25.043Z,9,GR86-006-7,5.7,-1.074,0.116,2.88,5.0,,47.870000000000005,48.175,
2025-08-15T02:11:25.086Z,9,GR86-006-7,5.7,-0.963,0.124,2.79,5.0,,47.765,47.96,
2025-08-15T02:11:25.129Z,9,GR86-006-7,4.9,-1.009,0.079,2.73,5.0,,47.4,47.93,
2025-08-15T02:11:25.172Z,9,GR86-006-7,3.4000000000000004,-0.998,0.076,2.67,5.0,6872.0,47.155,47.58,
2025-08-15T02:11:25.215Z,9,GR86-006-7,2.8000000000000003,-1.065,0.069,2.63,5.0,,47.52,47.93,211.26
2025-08-15T02:11:25.258Z,9,GR86-006-7,2.7,-1.023,0.041,5.51,5.0,,49.015,48.985,
2025-08-15T02:11:25.301Z,9,GR86-006-7,2.6,-1.022,-0.006,46.59,5.0,,53.485,52.92,
2025-08-15T02:11:25.344Z,9,GR86-006-7,2.7,-1.11,-0.038,47.51,4.0,,58.875,58.095,
2025-08-15T02:11:25.387Z,9,GR86-006-7,2.6,-1.146,-0.054,4.63,4.0,6587.0,64.84,65.3,
2025-08-15T02:11:25.430Z,9,GR86-006-7,3.4000000000000004,-1.112,-0.051,4.16,4.0,,70.395,72.09,204.94
2025-08-15T02:11:25.473Z,9,GR86-006-7,8.9,-1.308,-0.153,3.6,4.0,,74.315,74.715,
2025-08-15T02:11:25.516Z,9,GR86-006-7,11.4,-1.25,-0.021,3.3200000000000003,4.0,,74.775,75.995,
2025-08-15T02:11:25.559Z,9,GR86-006-7,12.2,-1.232,-0.063,3.0700000000000003,4.0,,77.215,78.74,
2025-08-15T02:11:25.602Z,9,GR86-006-7,12.3,-1.1,-0.133,2.93,4.0,6422.0,76.71000000000001,77.14,
2025-08-15T02:11:25.647Z,9,GR86-006-7,12.2,-1.336,0.025,2.84,4.0,,78.45,79.4,198.63
2025-08-15T02:11:25.690Z,9,GR86-006-7,12.2,-1.235,-0.002,2.77,4.0,,81.9,83.425,
2025-08-15T02:11:25.733Z,9,GR86-006-7,10.5,-1.287,0.03,2.75,4.0,,82.83,83.87,
2025-08-15T02:11:25.776Z,9,GR86-006-7,7.800000000000001,-1.252,0.062,2.74,4.0,,84.615,86.31,
2025-08-15T02:11:25.819Z,9,GR86-006-7,6.1000000000000005,-1.291,0.073,2.78,4.0,6909.0,86.845,88.37,
2025-08-15T02:11:25.862Z,9,GR86-006-7,5.9,-1.288,0.092,2.82,4.0,,87.96000000000001,87.865,190.71
2025-08-15T02:11:25.905Z,9,GR86-006-7,5.800000000000001,-1.317,0.142,2.84,4.0,,89.33,88.8,
2025-08-15T02:11:25.948Z,9,GR86-006-7,5.300000000000001,-1.356,0.103,8.2,4.0,,90.46,91.085,
2025-08-15T02:11:25.991Z,9,GR86-006-7,4.1000000000000005,-1.322,0.127,51.48,4.0,,90.83,91.375,
2025-08-15T02:11:26.034Z,9,GR86-006-7,3.3000000000000003,-1.343,0.134,74.45,3.0,6776.0,89.805,89.425,
2025-08-15T02:11:26.077Z,9,GR86-006-7,3.3000000000000003,-1.424,0.088,7.27,3.0,,90.05,91.255,182.36
2025-08-15T02:11:26.120Z,9,GR86-006-7,3.3000000000000003,-1.33,0.11,3.7,3.0,,91.375,93.27,
2025-08-15T02:11:26.163Z,9,GR86-006-7,3.3000000000000003,-1.435,0.111,3.3000000000000003,3.0,,91.15,91.97,
2025-08-15T02:11:26.206Z,9,GR86-006-7,3.7,-1.485,0.079,3.0,3.0,,88.205,89.3,
2025-08-15T02:11:26.249Z,9,GR86-006-7,3.7,-1.28,0.202,2.78,3.0,6340.0,89.055,91.375,
2025-08-15T02:11:26.292Z,9,GR86-006-7,3.7,-1.179,0.059,2.68,3.0,,86.16,86.935,172.33
2025-08-15T02:11:26.335Z,9,GR86-006-7,3.7,-1.354,0.159,2.64,3.0,,85.38,86.74,
2025-08-15T02:11:26.378Z,9,GR86-006-7,5.6000000000000005,-1.335,0.076,2.62,3.0,,85.96000000000001,87.59,
2025-08-15T02:11:26.421Z,9,GR86-006-7,7.0,-1.276,0.017,2.61,3.0,,86.065,87.425,
2025-08-15T02:11:26.464Z,9,GR86-006-7,7.1000000000000005,-1.277,0.171,2.57,3.0,6554.0,85.53,86.675,
2025-08-15T02:11:26.507Z,9,GR86-006-7,7.0,-1.259,0.107,2.56,3.0,,84.58500000000001,85.41,165.32
2025-08-15T02:11:26.550Z,9,GR86-006-7,6.9,-1.241,0.098,2.54,3.0,,82.83,83.84,
2025-08-15T02:11:26.594Z,9,GR86-006-7,6.800000000000001,-1.287,0.101,2.53,3.0,,79.96000000000001,80.68,
2025-08-15T02:11:26.637Z,9,GR86-006-7,6.800000000000001,-1.253,0.08,28.52,3.0,,77.735,78.27,
2025-08-15T02:11:26.680Z,9,GR86-006-7,6.800000000000001,-1.214,0.099,52.21,2.0,6697.0,74.315,75.155,
2025-08-15T02:11:26.723Z,9,GR86-006-7,6.800000000000001,-1.256,0.097,5.04,2.0,,70.06,71.735,146.78
2025-08-15T02:11:26.766Z,9,GR86-006-7,6.7,-1.159,0.153,4.29,2.0,,68.99,71.05,
2025-08-15T02:11:26.809Z,9,GR86-006-7,6.7,-1.315,0.111,3.89,2.0,,69.34,70.595,
2025-08-15T02:11:26.852Z,9,GR86-006-7,6.4,-1.167,0.155,3.29,2.0,,64.9,66.49,
2025-08-15T02:11:26.895Z,9,GR86-006-7,7.2,-1.122,0.17,3.09,2.0,6457.0,62.81,64.64,
2025-08-15T02:11:26.938Z,9,GR86-006-7,10.1,-0.905,0.104,2.93,2.0,,60.49,61.115,139.08
2025-08-15T02:11:26.981Z,9,GR86-006-7,11.9,-1.293,0.328,2.79,2.0,,60.11,61.145,
2025-08-15T02:11:27.024Z,9,GR86-006-7,13.0,-1.127,0.281,2.74,2.0,,60.370000000000005,61.145,
2025-08-15T02:11:27.068Z,9,GR86-006-7,14.0,-1.096,0.192,2.7,2.0,,60.49,60.825,
2025-08-15T02:11:27.111Z,9,GR86-006-7,14.1,-1.232,0.407,2.65,2.0,6199.0,63.65,63.71,
2025-08-15T02:11:27.198Z,9,GR86-006-7,15.3,-1.223,0.328,2.61,2.0,,66.015,66.075,131.73
2025-08-15T02:11:27.284Z,9,GR86-006-7,17.8,-1.196,0.344,2.56,2.0,,65.74,66.075,
2025-08-15T02:11:27.327Z,9,GR86-006-7,17.400000000000002,-1.157,0.416,2.56,2.0,6737.0,65.465,66.045,
2025-08-15T02:11:27.370Z,9,GR86-006-7,17.1,-1.171,0.451,2.5500000000000003,2.0,,63.405,64.72,124.18
2025-08-15T02:11:27.413Z,9,GR86-006-7,16.5,-1.136,0.407,2.54,2.0,,58.965,61.115,
2025-08-15T02:11:27.457Z,9,GR86-006-7,15.3,-1.136,0.406,2.54,2.0,,57.56,59.485,
2025-08-15T02:11:27.543Z,9,GR86-006-7,14.7,-1.16,0.367,57.38,1.0,6241.0,57.21,58.735,
2025-08-15T02:11:27.586Z,9,GR86-006-7,13.4,-1.188,0.313,12.76,1.0,,56.065,57.56,117.57
2025-08-15T02:11:27.629Z,9,GR86-006-7,12.5,-1.153,0.288,4.33,1.0,,51.535,53.305,
2025-08-15T02:11:27.672Z,9,GR86-006-7,12.9,-0.139,0.132,3.9,1.0,,37.95,39.4,
2025-08-15T02:11:27.717Z,9,GR86-006-7,12.6,0.246,-0.146,3.54,1.0,,28.72,29.74,
2025-08-15T02:11:27.760Z,9,GR86-006-7,12.4,-0.144,0.478,3.26,1.0,5707.0,21.305,22.465,
2025-08-15T02:11:27.803Z,9,GR86-006-7,14.4,-0.447,0.679,2.96,1.0,,22.995,23.96,109.99
2025-08-15T02:11:27.846Z,9,GR86-006-7,26.3,-0.894,0.65,2.8000000000000003,1.0,,41.86,42.15,
2025-08-15T02:11:27.889Z,9,GR86-006-7,33.800000000000004,-1.076,0.919,2.7,1.0,,64.84,65.235,
2025-08-15T02:11:27.976Z,9,GR86-006-7,33.1,-1.273,0.786,2.65,1.0,6054.0,84.58500000000001,85.06,
2025-08-15T02:11:28.019Z,9,GR86-006-7,13.6,-0.845,0.836,2.57,1.0,,83.96000000000001,85.44,102.08
2025-08-15T02:11:28.062Z,9,GR86-006-7,12.5,-0.956,0.783,2.58,1.0,,85.565,86.125,
2025-08-15T02:11:28.105Z,9,GR86-006-7,27.0,-1.045,0.933,2.54,1.0,,84.265,84.555,
2025-08-15T02:11:28.149Z,9,GR86-006-7,54.3,-1.127,0.6940000000000001,2.52,1.0,,83.7,83.84,
2025-08-15T02:11:28.192Z,9,GR86-006-7,79.9,-0.888,1.106,2.49,1.0,6324.0,86.875,86.995,
2025-08-15T02:11:28.235Z,9,GR86-006-7,80.9,-0.96,0.738,2.51,1.0,,84.05,84.45,100.55
2025-08-15T02:11:28.279Z,9,GR86-006-7,77.5,-0.874,0.884,2.48,1.0,,85.38,86.675,
2025-08-15T02:11:28.322Z,9,GR86-006-7,77.10000000000001,-0.8200000000000001,0.678,2.48,1.0,,76.025,77.05,
2025-08-15T02:11:28.365Z,9,GR86-006-7,78.30000000000001,-0.859,0.627,2.47,1.0,,58.095,59.955,
2025-08-15T02:11:28.408Z,9,GR86-006-7,79.60000000000001,-0.839,0.854,2.47,1.0,6273.0,46.65,48.145,
2025-08-15T02:11:28.451Z,9,GR86-006-7,81.7,-0.934,0.66,2.48,1.0,,40.025,41.46,92.86
2025-08-15T02:11:28.494Z,9,GR86-006-7,86.0,-0.757,0.954,2.47,1.0,,30.61,31.865,
2025-08-15T02:11:28.537Z,9,GR86-006-7,89.60000000000001,-0.608,0.877,2.48,1.0,,18.205,19.455,
2025-08-15T02:11:28.580Z,9,GR86-006-7,94.0,-0.441,0.964,2.48,1.0,,8.395,9.43,
2025-08-15T02:11:28.623Z,9,GR86-006-7,97.3,-0.319,1.072,2.47,1.0,5881.0,3.34,4.305,
2025-08-15T02:11:28.666Z,9,GR86-006-7,97.5,-0.272,1.066,2.48,1.0,,0.0,0.0,86.54
2025-08-15T02:11:28.709Z,9,GR86-006-7,97.3,-0.232,1.135,4.37,1.0,,0.0,0.0,
2025-08-15T02:11:28.754Z,9,GR86-006-7,91.5,-0.202,1.123,20.11,1.0,,0.0,0.0,
2025-08-15T02:11:28.797Z,9,GR86-006-7,86.2,-0.212,1.179,20.16,1.0,,0.0,0.0,
2025-08-15T02:11:28.840Z,9,GR86-006-7,83.7,-0.153,1.148,24.97,1.0,5579.0,0.0,0.0,
2025-08-15T02:11:28.883Z,9,GR86-006-7,83.7,-0.131,1.166,28.54,1.0,,0.0,0.0,80.99
2025-08-15T02:11:28.926Z,9,GR86-006-7,83.80000000000001,-0.115,1.179,31.6,1.0,,0.0,0.0,
2025-08-15T02:11:28.969Z,9,GR86-006-7,83.80000000000001,-0.1,1.156,33.0,1.0,,0.0,0.0,
2025-08-15T02:11:29.057Z,9,GR86-006-7,87.60000000000001,0.221,1.092,33.05,1.0,5479.0,0.0,0.0,
2025-08-15T02:11:29.143Z,9,GR86-006-7,96.5,0.22,1.167,32.13,1.0,,0.0,0.0,78.13
2025-08-15T02:11:29.186Z,9,GR86-006-7,99.5,0.167,1.149,32.21,1.0,,0.0,0.0,
2025-08-15T02:11:29.229Z,9,GR86-006-7,99.9,0.14,1.168,32.52,1.0,,0.0,0.0,
2025-08-15T02:11:29.273Z,9,GR86-006-7,98.6,0.16,1.269,32.82,1.0,5563.0,0.0,0.0,
2025-08-15T02:11:29.318Z,9,GR86-006-7,93.1,0.165,1.237,32.97,1.0,,0.0,0.0,75.75
2025-08-15T02:11:29.361Z,9,GR86-006-7,90.1,0.161,1.206,33.26,1.0,,0.0,0.0,
2025-08-15T02:11:29.404Z,9,GR86-006-7,90.0,0.181,1.149,33.53,1.0,,0.0,0.0,
2025-08-15T02:11:29.447Z,9,GR86-006-7,90.5,0.19,1.337,33.58,1.0,,0.0,0.0,
2025-08-15T02:11:29.490Z,9,GR86-006-7,90.7,0.216,1.073,33.67,1.0,5819.0,0.0,0.0,
2025-08-15T02:11:29.533Z,9,GR86-006-7,90.6,0.118,1.207,34.24,1.0,,0.0,0.0,76.5
2025-08-15T02:11:29.576Z,9,GR86-006-7,90.3,0.17,1.135,34.43,1.0,,0.0,0.0,
2025-08-15T02:11:29.619Z,9,GR86-006-7,89.30000000000001,0.264,1.06,34.43,1.0,,0.0,0.0,
2025-08-15T02:11:29.662Z,9,GR86-006-7,88.30000000000001,0.099,1.098,34.4,1.0,,0.0,0.0,
2025-08-15T02:11:29.748Z,9,GR86-006-7,82.10000000000001,0.188,1.113,34.61,1.0,5864.0,0.0,0.0,77.82000000000001
2025-08-15T02:11:29.791Z,9,GR86-006-7,79.30000000000001,0.254,0.885,35.1,1.0,,0.0,0.0,
2025-08-15T02:11:29.834Z,9,GR86-006-7,77.30000000000001,0.375,1.009,37.31,1.0,,0.0,0.0,
2025-08-15T02:11:29.877Z,9,GR86-006-7,76.7,0.112,0.975,46.22,1.0,,0.0,0.0,
2025-08-15T02:11:29.920Z,9,GR86-006-7,76.3,0.058,1.087,59.870000000000005,1.0,6172.0,0.0,0.0,
2025-08-15T02:11:29.963Z,9,GR86-006-7,76.60000000000001,0.065,1.113,72.35000000000001,1.0,,0.0,0.0,78.7
2025-08-15T02:11:30.006Z,9,GR86-006-7,76.5,0.226,1.154,80.07000000000001,1.0,,0.0,0.0,
2025-08-15T02:11:30.049Z,9,GR86-006-7,75.7,0.443,0.914,97.01,1.0,,0.0,0.0,
2025-08-15T02:11:30.092Z,9,GR86-006-7,73.60000000000001,0.282,0.963,99.72,1.0,,0.0,0.0,
2025-08-15T02:11:30.135Z,9,GR86-006-7,72.7,0.281,0.991,96.25,1.0,6177.0,0.0,0.0,
2025-08-15T02:11:30.179Z,9,GR86-006-7,71.5,0.19,0.852,85.63,1.0,,0.0,0.0,79.82000000000001
2025-08-15T02:11:30.222Z,9,GR86-006-7,69.9,0.029,0.902,82.03,1.0,,0.0,0.0,
2025-08-15T02:11:30.267Z,9,GR86-006-7,67.3,0.303,1.417,81.38,1.0,,0.0,0.0,
2025-08-15T02:11:30.310Z,9,GR86-006-7,59.1,0.364,1.235,88.49,1.0,,0.0,0.0,
2025-08-15T02:11:30.353Z,9,GR86-006-7,37.7,0.283,1.223,99.53,1.0,6509.0,0.0,0.0,
2025-08-15T02:11:30.396Z,9,GR86-006-7,27.3,0.432,1.375,99.76,1.0,,0.0,0.0,81.34
2025-08-15T02:11:30.439Z,9,GR86-006-7,24.200000000000003,0.582,0.885,99.77,1.0,,0.0,0.0,
2025-08-15T02:11:30.482Z,9,GR86-006-7,24.0,0.412,0.951,99.75,1.0,,0.0,0.0,
2025-08-15T02:11:30.526Z,9,GR86-006-7,23.9,0.483,1.083,99.77,1.0,,0.0,0.0,
2025-08-15T02:11:30.569Z,9,GR86-006-7,36.3,0.297,1.0,99.77,1.0,6884.0,0.0,0.0,
2025-08-15T02:11:30.613Z,9,GR86-006-7,58.0,0.305,1.07,99.78,1.0,,0.0,0.0,82.59
2025-08-15T02:11:30.657Z,9,GR86-006-7,58.5,0.327,1.213,99.77,1.0,,0.0,0.0,
2025-08-15T02:11:30.700Z,9,GR86-006-7,53.900000000000006,0.289,1.063,99.76,1.0,,0.0,0.0,
2025-08-15T02:11:30.743Z,9,GR86-006-7,48.1,0.354,1.012,99.76,1.0,,0.0,0.0,
2025-08-15T02:11:30.786Z,9,GR86-006-7,43.2,0.345,1.089,99.77,1.0,6658.0,0.0,0.0,
2025-08-15T02:11:30.829Z,9,GR86-006-7,41.0,0.322,1.016,99.8,1.0,,0.0,0.0,85.33
2025-08-15T02:11:30.872Z,9,GR86-006-7,37.9,0.333,1.064,99.78,1.0,,0.0,0.0,
2025-08-15T02:11:30.915Z,9,GR86-006-7,34.0,0.361,1.066,99.81,1.0,,0.0,0.0,
2025-08-15T02:11:30.958Z,9,GR86-006-7,26.1,0.351,0.96,99.79,1.0,,0.0,0.0,
2025-08-15T02:11:31.001Z,9,GR86-006-7,21.8,0.365,0.968,99.79,1.0,6815.0,0.0,0.0,
2025-08-15T02:11:31.044Z,9,GR86-006-7,21.5,0.37,0.921,99.8,1.0,,0.0,0.0,87.04
2025-08-15T02:11:31.087Z,9,GR86-006-7,29.1,0.354,0.924,99.8,1.0,,0.0,0.0,
2025-08-15T02:11:31.131Z,9,GR86-006-7,41.3,0.366,0.994,99.8,1.0,,0.0,0.0,
2025-08-15T02:11:31.174Z,9,GR86-006-7,47.900000000000006,0.358,1.004,99.8,1.0,,0.0,0.0,
2025-08-15T02:11:31.217Z,9,GR86-006-7,46.8,0.36,0.982,99.81,1.0,6975.0,0.0,0.0,
2025-08-15T02:11:31.261Z,9,GR86-006-7,45.0,0.341,0.965,99.82,1.0,,0.0,0.0,89.24
2025-08-15T02:11:31.304Z,9,GR86-006-7,42.2,0.331,0.969,99.8,1.0,,0.0,0.0,
2025-08-15T02:11:31.348Z,9,GR86-006-7,41.5,0.322,0.902,99.82,1.0,,0.0,0.0,
2025-08-15T02:11:31.391Z,9,GR86-006-7,41.5,0.346,0.809,99.8,1.0,,0.0,0.0,
2025-08-15T02:11:31.477Z,9,GR86-006-7,37.1,0.313,0.551,99.81,1.0,7076.0,0.0,0.0,91.44
2025-08-15T02:11:31.520Z,9,GR86-006-7,32.5,0.118,0.64,99.83,1.0,,0.0,0.0,
2025-08-15T02:11:31.563Z,9,GR86-006-7,28.6,-0.125,0.553,99.81,2.0,,0.0,0.0,
2025-08-15T02:11:31.606Z,9,GR86-006-7,27.1,0.329,0.68,99.84,2.0,,0.0,0.0,
2025-08-15T02:11:31.649Z,9,GR86-006-7,26.1,0.72,0.5680000000000001,99.81,2.0,7139.0,0.0,0.0,
2025-08-15T02:11:31.692Z,9,GR86-006-7,21.8,0.226,0.562,99.82,2.0,,0.0,0.0,93.08
2025-08-15T02:11:31.735Z,9,GR86-006-7,19.1,0.226,0.716,99.8,2.0,,0.0,0.0,
2025-08-15T02:11:31.779Z,9,GR86-006-7,15.3,0.279,0.641,99.81,2.0,,0.0,0.0,
2025-08-15T02:11:31.822Z,9,GR86-006-7,12.1,0.309,0.8130000000000001,99.83,2.0,,0.0,0.0,
2025-08-15T02:11:31.908Z,9,GR86-006-7,8.8,0.45,0.669,99.83,2.0,7054.0,0.0,0.0,95.05
2025-08-15T02:11:31.952Z,9,GR86-006-7,7.1000000000000005,0.112,0.725,99.83,2.0,,0.0,0.0,
2025-08-15T02:11:32.039Z,9,GR86-006-7,12.9,0.581,0.536,99.83,2.0,,0.0,0.0,
2025-08-15T02:11:32.083Z,9,GR86-006-7,16.5,0.599,0.6940000000000001,99.82,2.0,5887.0,0.0,0.0,
2025-08-15T02:11:32.126Z,9,GR86-006-7,16.3,0.244,0.494,99.83,2.0,,0.0,0.0,99.25
2025-08-15T02:11:32.169Z,9,GR86-006-7,14.3,0.27,0.545,99.83,2.0,,0.0,0.0,
2025-08-15T02:11:32.213Z,9,GR86-006-7,13.3,0.553,0.675,99.82,2.0,,0.0,0.0,
2025-08-15T02:11:32.257Z,9,GR86-006-7,12.8,0.621,0.646,99.81,2.0,,0.0,0.0,
2025-08-15T02:11:32.300Z,9,GR86-006-7,12.9,0.537,0.502,99.82,2.0,5920.0,0.0,0.0,
2025-08-15T02:11:32.343Z,9,GR86-006-7,12.0,0.441,0.686,99.83,2.0,,0.0,0.0,101.01
2025-08-15T02:11:32.386Z,9,GR86-006-7,10.5,0.333,0.321,99.82,2.0,,0.0,0.0,
2025-08-15T02:11:32.429Z,9,GR86-006-7,9.2,0.288,0.466,99.8,2.0,,0.0,0.0,
2025-08-15T02:11:32.472Z,9,GR86-006-7,8.200000000000001,0.371,0.373,99.82,2.0,,0.0,0.0,
2025-08-15T02:11:32.518Z,9,GR86-006-7,8.0,0.429,0.328,99.82,2.0,6004.0,0.0,0.0,
2025-08-15T02:11:32.562Z,9,GR86-006-7,8.4,0.387,0.271,99.82,2.0,,0.0,0.0,102.6
2025-08-15T02:11:32.605Z,9,GR86-006-7,8.700000000000001,0.373,0.235,99.84,2.0,,0.0,0.0,
2025-08-15T02:11:32.648Z,9,GR86-006-7,8.5,0.367,0.115,99.84,2.0,,0.0,0.0,
2025-08-15T02:11:32.691Z,9,GR86-006-7,6.9,0.376,0.037,99.84,2.0,,0.0,0.0,
2025-08-15T02:11:32.734Z,9,GR86-006-7,3.8,0.181,-0.004,99.82,2.0,6148.0,0.0,0.0,
2025-08-15T02:11:32.777Z,9,GR86-006-7,3.3000000000000003,0.293,0.006,99.83,2.0,,0.0,0.0,104.54
2025-08-15T02:11:32.820Z,9,GR86-006-7,3.2,0.31,-0.067,99.82,2.0,,0.0,0.0,
2025-08-15T02:11:32.863Z,9,GR86-006-7,3.5,0.359,0.005,99.83,2.0,,0.0,0.0,
2025-08-15T02:11:32.906Z,9,GR86-006-7,3.7,0.301,-0.03,99.84,2.0,,0.0,0.0,
2025-08-15T02:11:32.949Z,9,GR86-006-7,4.2,0.345,-0.052,99.83,2.0,6306.0,0.0,0.0,
2025-08-15T02:11:32.992Z,9,GR86-006-7,4.6000000000000005,0.223,-0.06,99.84,2.0,,0.0,0.0,106.3
2025-08-15T02:11:33.035Z,9,GR86-006-7,4.6000000000000005,0.186,-0.104,99.84,2.0,,0.0,0.0,
2025-08-15T02:11:33.078Z,9,GR86-006-7,4.5,0.222,-0.042,99.82,2.0,,0.0,0.0,
2025-08-15T02:11:33.121Z,9,GR86-006-7,4.5,0.191,-0.068,99.83,2.0,,0.0,0.0,
2025-08-15T02:11:33.164Z,9,GR86-006-7,4.6000000000000005,0.205,-0.036,99.83,2.0,6312.0,0.0,0.0,
2025-08-15T02:11:33.207Z,9,GR86-006-7,4.6000000000000005,0.235,0.004,99.83,2.0,,0.0,0.0,108.11
2025-08-15T02:11:33.251Z,9,GR86-006-7,5.0,0.281,0.028,99.83,2.0,,0.0,0.0,
2025-08-15T02:11:33.294Z,9,GR86-006-7,5.6000000000000005,0.278,0.047,99.83,2.0,,0.0,0.0,
2025-08-15T02:11:33.337Z,9,GR86-006-7,5.6000000000000005,0.336,0.085,99.81,2.0,,0.0,0.0,
2025-08-15T02:11:33.380Z,9,GR86-006-7,5.4,0.277,0.049,99.84,2.0,6413.0,0.0,0.0,
2025-08-15T02:11:33.423Z,9,GR86-006-7,5.2,0.287,0.022,99.83,2.0,,0.0,0.0,109.8
2025-08-15T02:11:33.466Z,9,GR86-006-7,5.1000000000000005,0.298,0.054,99.83,2.0,,0.0,0.0,
2025-08-15T02:11:33.509Z,9,GR86-006-7,5.0,0.296,0.011,99.83,2.0,,0.0,0.0,
2025-08-15T02:11:33.554Z,9,GR86-006-7,5.0,0.278,0.032,99.8,2.0,,0.0,0.0,
2025-08-15T02:11:33.597Z,9,GR86-006-7,5.0,0.28,0.022,99.83,2.0,6480.0,0.0,0.0,
2025-08-15T02:11:33.640Z,9,GR86-006-7,4.9,0.269,0.007,99.83,2.0,,0.0,0.0,111.6
2025-08-15T02:11:33.683Z,9,GR86-006-7,4.9,0.259,0.017,99.84,2.0,,0.0,0.0,
2025-08-15T02:11:33.726Z,9,GR86-006-7,4.6000000000000005,0.284,-0.004,99.83,2.0,,0.0,0.0,
2025-08-15T02:11:33.769Z,9,GR86-006-7,3.2,0.286,-0.014,99.84,2.0,,0.0,0.0,
2025-08-15T02:11:33.813Z,9,GR86-006-7,0.9,0.269,-0.04,99.83,2.0,6580.0,0.0,0.0,
2025-08-15T02:11:33.857Z,9,GR86-006-7,0.3,0.269,-0.071,99.83,2.0,,0.0,0.0,113.29
2025-08-15T02:11:33.900Z,9,GR86-006-7,-0.1,0.269,-0.089,99.81,2.0,,0.0,0.0,
2025-08-15T02:11:33.943Z,9,GR86-006-7,-0.4,0.262,-0.09,99.81,2.0,,0.0,0.0,
2025-08-15T02:11:33.986Z,9,GR86-006-7,-0.5,0.28,-0.129,99.82,2.0,,0.0,0.0,
2025-08-15T02:11:34.029Z,9,GR86-006-7,-0.6000000000000001,0.284,-0.13,99.83,2.0,6661.0,0.0,0.0,
2025-08-15T02:11:34.072Z,9,GR86-006-7,-0.5,0.271,-0.15,99.83,2.0,,0.0,0.0,114.98
2025-08-15T02:11:34.117Z,9,GR86-006-7,-0.4,0.257,-0.162,99.81,2.0,,0.0,0.0,
2025-08-15T02:11:34.160Z,9,GR86-006-7,-0.4,0.281,-0.146,99.83,2.0,,0.0,0.0,
2025-08-15T02:11:34.203Z,9,GR86-006-7,-0.3,0.273,-0.151,99.83,2.0,,0.0,0.0,
2025-08-15T02:11:34.246Z,9,GR86-006-7,-0.3,0.268,-0.134,99.83,2.0,6754.0,0.0,0.0,
2025-08-15T02:11:34.289Z,9,GR86-006-7,-0.3,0.273,-0.107,99.84,2.0,,0.0,0.0,116.55
2025-08-15T02:11:34.332Z,9,GR86-006-7,-0.3,0.276,-0.102,99.84,2.0,,0.0,0.0,
2025-08-15T02:11:34.375Z,9,GR86-006-7,-0.3,0.278,-0.093,99.83,2.0,,0.0,0.0,
2025-08-15T02:11:34.418Z,9,GR86-006-7,-0.3,0.258,-0.087,99.82,2.0,,0.0,0.0,
2025-08-15T02:11:34.461Z,9,GR86-006-7,-0.2,0.278,-0.085,99.84,2.0,6829.0,0.0,0.0,
2025-08-15T02:11:34.504Z,9,GR86-006-7,-0.1,0.28,-0.069,99.83,2.0,,0.0,0.0,118.1
2025-08-15T02:11:34.547Z,9,GR86-006-7,-0.1,0.257,-0.086,99.83,2.0,,0.0,0.0,
2025-08-15T02:11:34.590Z,9,GR86-006-7,-0.1,0.275,-0.091,99.83,2.0,,0.0,0.0,
2025-08-15T02:11:34.633Z,9,GR86-006-7,-0.1,0.282,-0.071,99.83,2.0,,0.0,0.0,
2025-08-15T02:11:34.676Z,9,GR86-006-7,0.0,0.281,-0.073,99.8,2.0,6914.0,0.0,0.0,
2025-08-15T02:11:34.719Z,9,GR86-006-7,0.1,0.26,-0.061,99.82,2.0,,0.0,0.0,121.1
2025-08-15T02:11:34.762Z,9,GR86-006-7,0.1,0.262,-0.057,99.83,2.0,,0.0,0.0,
2025-08-15T02:11:34.805Z,9,GR86-006-7,0.1,0.268,-0.057,99.83,2.0,,0.0,0.0,
2025-08-15T02:11:34.848Z,9,GR86-006-7,0.1,0.266,-0.037,99.82,2.0,,0.0,0.0,
2025-08-15T02:11:34.891Z,9,GR86-006-7,0.1,0.276,-0.027,99.83,2.0,6988.0,0.0,0.0,
2025-08-15T02:11:34.934Z,9,GR86-006-7,0.1,0.26,-0.03,99.83,2.0,,0.0,0.0,122.49
2025-08-15T02:11:34.977Z,9,GR86-006-7,0.1,0.269,-0.035,99.84,2.0,,0.0,0.0,
2025-08-15T02:11:35.020Z,9,GR86-006-7,0.1,0.266,-0.045,99.82,2.0,,0.0,0.0,
2025-08-15T02:11:35.063Z,9,GR86-006-7,0.2,0.198,-0.065,99.82,2.0,,0.0,0.0,
2025-08-15T02:11:35.106Z,9,GR86-006-7,0.2,-0.098,-0.033,99.86,3.0,7072.0,0.0,0.0,
2025-08-15T02:11:35.149Z,9,GR86-006-7,0.2,0.383,-0.027,99.83,3.0,,0.0,0.0,123.76
2025-08-15T02:11:35.192Z,9,GR86-006-7,0.2,0.383,-0.147,99.82,3.0,,0.0,0.0,
2025-08-15T02:11:35.235Z,9,GR86-006-7,0.2,0.392,-0.033,99.83,3.0,,0.0,0.0,
2025-08-15T02:11:35.279Z,9,GR86-006-7,0.2,0.17,-0.105,99.83,3.0,,0.0,0.0,
2025-08-15T02:11:35.367Z,9,GR86-006-7,0.2,0.103,-0.157,99.84,3.0,6749.0,0.0,0.0,124.93
2025-08-15T02:11:35.410Z,9,GR86-006-7,0.2,0.315,-0.144,99.84,3.0,,0.0,0.0,
2025-08-15T02:11:35.453Z,9,GR86-006-7,0.3,0.232,-0.111,99.82,3.0,,0.0,0.0,
2025-08-15T02:11:35.498Z,9,GR86-006-7,0.4,0.198,-0.112,99.83,3.0,,0.0,0.0,
2025-08-15T02:11:35.541Z,9,GR86-006-7,0.4,0.198,-0.133,99.83,3.0,5819.0,0.0,0.0,
2025-08-15T02:11:35.584Z,9,GR86-006-7,0.4,0.223,-0.094,99.82,3.0,,0.0,0.0,126.0
2025-08-15T02:11:35.627Z,9,GR86-006-7,0.4,0.259,-0.11,99.82,3.0,,0.0,0.0,
2025-08-15T02:11:35.670Z,9,GR86-006-7,0.4,0.236,-0.13,99.82,3.0,,0.0,0.0,
2025-08-15T02:11:35.714Z,9,GR86-006-7,0.5,0.231,-0.079,99.82,3.0,,0.0,0.0,
2025-08-15T02:11:35.757Z,9,GR86-006-7,0.5,0.214,-0.085,99.83,3.0,5935.0,0.0,0.0,
2025-08-15T02:11:35.800Z,9,GR86-006-7,0.5,0.223,-0.068,99.83,3.0,,0.0,0.0,127.16
2025-08-15T02:11:35.843Z,9,GR86-006-7,0.5,0.237,-0.062,99.82,3.0,,0.0,0.0,
2025-08-15T02:11:35.929Z,9,GR86-006-7,0.5,0.227,-0.053,99.83,3.0,,0.0,0.0,
2025-08-15T02:11:35.972Z,9,GR86-006-7,0.6000000000000001,0.21,-0.031,99.83,3.0,5988.0,0.0,0.0,
2025-08-15T02:11:36.015Z,9,GR86-006-7,0.6000000000000001,0.225,-0.036,99.84,3.0,,0.0,0.0,128.11
2025-08-15T02:11:36.058Z,9,GR86-006-7,0.6000000000000001,0.23,-0.034,99.84,3.0,,0.0,0.0,
2025-08-15T02:11:36.101Z,9,GR86-006-7,0.6000000000000001,0.217,-0.034,99.84,3.0,,0.0,0.0,
2025-08-15T02:11:36.144Z,9,GR86-006-7,0.6000000000000001,0.208,-0.029,99.84,3.0,,0.0,0.0,
2025-08-15T02:11:36.187Z,9,GR86-006-7,0.6000000000000001,0.237,-0.023,99.84,3.0,6039.0,0.0,0.0,
2025-08-15T02:11:36.230Z,9,GR86-006-7,0.6000000000000001,0.229,-0.021,99.83,3.0,,0.0,0.0,128.97
2025-08-15T02:11:36.273Z,9,GR86-006-7,0.6000000000000001,0.24,-0.033,99.83,3.0,,0.0,0.0,
2025-08-15T02:11:36.316Z,9,GR86-006-7,1.4,0.213,-0.023,99.83,3.0,,0.0,0.0,
2025-08-15T02:11:36.359Z,9,GR86-006-7,2.8000000000000003,0.217,-0.011,99.83,3.0,,0.0,0.0,
2025-08-15T02:11:36.402Z,9,GR86-006-7,3.1,0.23,0.015,99.82,3.0,6082.0,0.0,0.0,
2025-08-15T02:11:36.447Z,9,GR86-006-7,3.1,0.222,0.029,99.82,3.0,,0.0,0.0,129.89
2025-08-15T02:11:36.490Z,9,GR86-006-7,3.1,0.203,0.044,99.83,3.0,,0.0,0.0,
2025-08-15T02:11:36.533Z,9,GR86-006-7,3.1,0.219,0.055,99.82,3.0,,0.0,0.0,
2025-08-15T02:11:36.576Z,9,GR86-006-7,3.1,0.198,0.077,99.82,3.0,,0.0,0.0,
2025-08-15T02:11:36.619Z,9,GR86-006-7,3.1,0.229,0.074,99.82,3.0,6124.0,2.61,2.915,
2025-08-15T02:11:36.662Z,9,GR86-006-7,3.1,0.202,0.082,63.83,3.0,,8.85,8.975,130.75
2025-08-15T02:11:36.705Z,9,GR86-006-7,3.1,0.075,0.096,29.53,3.0,,16.65,16.59,
2025-08-15T02:11:36.749Z,9,GR86-006-7,3.1,-0.103,0.091,5.15,3.0,,25.33,25.21,
2025-08-15T02:11:36.792Z,9,GR86-006-7,3.1,-0.421,0.074,4.8,3.0,,33.910000000000004,33.71,
2025-08-15T02:11:36.835Z,9,GR86-006-7,3.1,-0.704,0.093,4.6000000000000005,3.0,6169.0,35.235,35.175000000000004,
2025-08-15T02:11:36.878Z,9,GR86-006-7,3.3000000000000003,-0.647,0.065,4.34,3.0,,35.235,35.495,131.65
2025-08-15T02:11:36.921Z,9,GR86-006-7,3.7,-0.789,0.036,3.89,3.0,,34.96,35.34,
2025-08-15T02:11:36.964Z,9,GR86-006-7,4.5,-0.7020000000000001,0.114,3.51,3.0,,34.96,35.375,
2025-08-15T02:11:37.007Z,9,GR86-006-7,6.1000000000000005,-0.77,0.063,3.25,3.0,,35.31,35.71,
2025-08-15T02:11:37.050Z,9,GR86-006-7,7.0,-0.737,0.086,3.01,3.0,6192.0,35.585,35.71,
2025-08-15T02:11:37.093Z,9,GR86-006-7,7.300000000000001,-0.704,0.123,2.81,3.0,,35.645,36.06,132.54
2025-08-15T02:11:37.136Z,9,GR86-006-7,7.300000000000001,-0.75,0.128,7.34,3.0,,35.645,36.06,
2025-08-15T02:11:37.222Z,9,GR86-006-7,7.2,-0.761,0.174,49.25,3.0,,35.645,36.06,
2025-08-15T02:11:37.265Z,9,GR86-006-7,7.2,-0.807,0.173,21.62,2.0,5660.0,35.235,35.495,
2025-08-15T02:11:37.308Z,9,GR86-006-7,7.2,-0.874,0.152,3.7,2.0,,35.77,36.73,130.5
2025-08-15T02:11:37.351Z,9,GR86-006-7,7.2,-0.863,0.246,3.37,2.0,,37.05,38.15,
2025-08-15T02:11:37.394Z,9,GR86-006-7,13.6,-1.062,0.253,2.99,2.0,,35.555,36.455,
2025-08-15T02:11:37.437Z,9,GR86-006-7,17.7,-0.788,0.435,2.87,2.0,,35.86,36.805,
2025-08-15T02:11:37.480Z,9,GR86-006-7,19.4,-0.724,0.445,2.78,2.0,5499.0,34.81,35.525,
2025-08-15T02:11:37.523Z,9,GR86-006-7,19.0,-0.942,0.477,2.72,2.0,,32.475,32.75,118.77
2025-08-15T02:11:37.566Z,9,GR86-006-7,18.8,-0.752,0.624,2.7,2.0,,31.33,32.2,
2025-08-15T02:11:37.609Z,9,GR86-006-7,21.4,-0.6970000000000001,0.454,2.65,2.0,,28.035,28.52,
2025-08-15T02:11:37.652Z,9,GR86-006-7,28.700000000000003,-0.635,0.706,2.64,2.0,,24.555,25.24,
2025-08-15T02:11:37.696Z,9,GR86-006-7,33.1,-0.5710000000000001,0.62,2.61,2.0,5747.0,23.27,24.2,
2025-08-15T02:11:37.739Z,9,GR86-006-7,34.7,-0.5730000000000001,0.588,2.58,2.0,,21.27,22.31,113.94
2025-08-15T02:11:37.783Z,9,GR86-006-7,35.1,-0.5630000000000001,0.737,2.57,2.0,,19.58,20.6,
2025-08-15T02:11:37.826Z,9,GR86-006-7,34.9,-0.55,0.717,2.57,2.0,,19.015,19.76,
2025-08-15T02:11:37.869Z,9,GR86-006-7,35.6,-0.518,0.711,2.5500000000000003,2.0,,16.97,17.84,
2025-08-15T02:11:37.914Z,9,GR86-006-7,37.5,-0.424,0.742,2.54,2.0,5927.0,14.39,15.365,
2025-08-15T02:11:37.957Z,9,GR86-006-7,38.0,-0.467,0.773,2.5500000000000003,2.0,,14.33,14.785,109.18
2025-08-15T02:11:38.000Z,9,GR86-006-7,37.3,-0.445,0.798,2.53,2.0,,13.915,14.39,
2025-08-15T02:11:38.043Z,9,GR86-006-7,36.7,-0.43,0.837,2.54,2.0,,14.145,14.545,
2025-08-15T02:11:38.086Z,9,GR86-006-7,36.4,-0.446,0.876,2.54,2.0,,13.64,14.36,
2025-08-15T02:11:38.129Z,9,GR86-006-7,35.9,-0.427,0.867,2.54,2.0,5669.0,13.55,14.055,
2025-08-15T02:11:38.174Z,9,GR86-006-7,35.300000000000004,-0.414,0.887,2.54,2.0,,10.56,11.4,104.77
2025-08-15T02:11:38.217Z,9,GR86-006-7,37.1,-0.32,0.904,2.51,2.0,,6.2700000000000005,7.140000000000001,
2025-08-15T02:11:38.260Z,9,GR86-006-7,42.2,-0.237,0.928,2.51,2.0,,3.065,3.645,
2025-08-15T02:11:38.303Z,9,GR86-006-7,50.1,-0.208,0.948,2.5,2.0,,2.105,2.825,
2025-08-15T02:11:38.346Z,9,GR86-006-7,56.1,-0.212,0.986,2.5,2.0,5467.0,2.105,2.52,
2025-08-15T02:11:38.432Z,9,GR86-006-7,61.2,-0.181,0.996,2.5,2.0,,0.0,1.8,101.46
2025-08-15T02:11:38.476Z,9,GR86-006-7,63.5,-0.189,1.092,2.49,2.0,,0.0,0.0,
2025-08-15T02:11:38.519Z,9,GR86-006-7,65.9,-0.184,1.089,2.5,2.0,,0.0,0.0,
2025-08-15T02:11:38.562Z,9,GR86-006-7,68.2,-0.175,1.111,2.5,2.0,5377.0,0.0,0.0,
2025-08-15T02:11:38.605Z,9,GR86-006-7,70.4,-0.168,1.124,3.18,2.0,,0.0,0.0,98.83
2025-08-15T02:11:38.648Z,9,GR86-006-7,72.3,-0.185,1.16,4.0,2.0,,0.0,0.0,
2025-08-15T02:11:38.691Z,9,GR86-006-7,73.3,-0.182,1.145,4.76,2.0,,0.0,0.0,
2025-08-15T02:11:38.734Z,9,GR86-006-7,73.7,-0.163,1.164,20.26,2.0,,0.0,0.0,
2025-08-15T02:11:38.777Z,9,GR86-006-7,74.0,-0.169,1.147,20.37,2.0,5305.0,0.0,0.0,
2025-08-15T02:11:38.820Z,9,GR86-006-7,74.0,-0.125,1.169,21.31,2.0,,0.0,0.0,96.82
2025-08-15T02:11:38.863Z,9,GR86-006-7,74.0,-0.122,1.181,24.91,2.0,,0.0,0.0,
2025-08-15T02:11:38.906Z,9,GR86-006-7,74.2,-0.106,1.202,29.43,2.0,,0.0,0.0,
2025-08-15T02:11:38.949Z,9,GR86-006-7,74.7,-0.112,1.213,41.42,2.0,,0.0,0.0,
2025-08-15T02:11:38.992Z,9,GR86-006-7,74.7,0.168,1.16,49.03,2.0,5256.0,0.0,0.0,
2025-08-15T02:11:39.035Z,9,GR86-006-7,74.60000000000001,0.197,1.183,49.31,2.0,,0.0,0.0,95.71
2025-08-15T02:11:39.079Z,9,GR86-006-7,75.0,0.258,1.108,49.06,2.0,,0.0,0.0,
2025-08-15T02:11:39.122Z,9,GR86-006-7,75.4,0.235,1.158,49.02,2.0,,0.0,0.0,
2025-08-15T02:11:39.165Z,9,GR86-006-7,75.7,0.238,1.113,48.99,2.0,,0.0,0.0,
2025-08-15T02:11:39.208Z,9,GR86-006-7,76.10000000000001,0.204,1.114,48.89,2.0,5386.0,0.0,0.0,
2025-08-15T02:11:39.251Z,9,GR86-006-7,76.10000000000001,0.181,1.138,49.15,2.0,,0.0,0.0,94.4
2025-08-15T02:11:39.294Z,9,GR86-006-7,75.9,0.208,1.146,49.32,2.0,,0.0,0.0,
2025-08-15T02:11:39.337Z,9,GR86-006-7,75.8,0.223,1.216,49.01,2.0,,0.0,0.0,
2025-08-15T02:11:39.380Z,9,GR86-006-7,76.0,0.207,1.24,48.29,2.0,,0.0,0.0,
2025-08-15T02:11:39.423Z,9,GR86-006-7,76.0,0.195,1.395,48.3,2.0,5544.0,0.0,0.0,
2025-08-15T02:11:39.466Z,9,GR86-006-7,76.0,0.283,1.169,48.66,2.0,,0.0,0.0,93.63
2025-08-15T02:11:39.509Z,9,GR86-006-7,75.9,0.226,1.17,48.3,2.0,,0.0,0.0,
2025-08-15T02:11:39.554Z,9,GR86-006-7,75.60000000000001,0.244,1.128,48.16,2.0,,0.0,0.0,
2025-08-15T02:11:39.598Z,9,GR86-006-7,76.0,0.074,1.076,45.72,2.0,,0.0,0.0,
2025-08-15T02:11:39.641Z,9,GR86-006-7,76.3,0.006,1.078,44.08,2.0,5613.0,0.0,0.0,
2025-08-15T02:11:39.684Z,9,GR86-006-7,76.3,0.228,1.176,43.03,2.0,,0.0,0.0,94.03
2025-08-15T02:11:39.727Z,9,GR86-006-7,76.4,0.424,0.994,39.3,2.0,,0.0,0.0,
2025-08-15T02:11:39.770Z,9,GR86-006-7,77.0,0.221,1.051,36.93,2.0,,0.0,0.0,
2025-08-15T02:11:39.813Z,9,GR86-006-7,77.2,0.404,1.131,36.43,2.0,,0.0,0.0,
2025-08-15T02:11:39.857Z,9,GR86-006-7,77.9,0.21,1.214,34.07,2.0,5626.0,0.0,0.0,
2025-08-15T02:11:39.900Z,9,GR86-006-7,78.9,0.168,1.177,30.72,2.0,,0.0,0.0,95.48
2025-08-15T02:11:39.943Z,9,GR86-006-7,80.0,0.149,1.108,28.48,2.0,,0.0,0.0,
2025-08-15T02:11:39.986Z,9,GR86-006-7,80.5,0.073,1.128,28.68,2.0,,0.0,0.0,
2025-08-15T02:11:40.029Z,9,GR86-006-7,80.60000000000001,0.129,1.184,33.15,2.0,,0.0,0.0,
2025-08-15T02:11:40.072Z,9,GR86-006-7,80.60000000000001,0.115,1.246,38.84,2.0,5724.0,0.0,0.0,
2025-08-15T02:11:40.117Z,9,GR86-006-7,81.0,0.087,1.188,39.2,2.0,,0.0,0.0,97.5
2025-08-15T02:11:40.161Z,9,GR86-006-7,81.4,0.157,1.151,39.18,2.0,,0.0,0.0,
2025-08-15T02:11:40.204Z,9,GR86-006-7,81.80000000000001,0.151,1.101,39.09,2.0,,0.0,0.0,
2025-08-15T02:11:40.247Z,9,GR86-006-7,81.7,0.184,1.148,39.16,2.0,,0.0,0.0,
2025-08-15T02:11:40.290Z,9,GR86-006-7,81.60000000000001,0.135,1.143,44.86,2.0,5694.0,0.0,0.0,
2025-08-15T02:11:40.333Z,9,GR86-006-7,81.60000000000001,0.136,1.088,58.51,2.0,,0.0,0.0,98.6
2025-08-15T02:11:40.376Z,9,GR86-006-7,81.60000000000001,0.179,1.12,63.6,2.0,,0.0,0.0,
2025-08-15T02:11:40.419Z,9,GR86-006-7,81.5,0.145,1.074,74.28,2.0,,0.0,0.0,
2025-08-15T02:11:40.462Z,9,GR86-006-7,81.5,0.189,1.118,99.28,2.0,,0.0,0.0,
2025-08-15T02:11:40.505Z,9,GR86-006-7,81.4,0.204,1.107,99.77,2.0,5747.0,0.0,0.0,
2025-08-15T02:11:40.548Z,9,GR86-006-7,80.60000000000001,0.221,1.09,99.8,2.0,,0.0,0.0,99.46
2025-08-15T02:11:40.592Z,9,GR86-006-7,77.4,0.203,1.035,99.8,2.0,,0.0,0.0,
2025-08-15T02:11:40.635Z,9,GR86-006-7,69.5,0.184,1.098,99.77,2.0,,0.0,0.0,
2025-08-15T02:11:40.679Z,9,GR86-006-7,56.7,0.232,1.134,99.77,2.0,,0.0,0.0,
2025-08-15T02:11:40.722Z,9,GR86-006-7,44.400000000000006,0.246,1.129,99.78,2.0,5983.0,0.0,0.0,
2025-08-15T02:11:40.767Z,9,GR86-006-7,36.9,0.252,1.177,99.78,2.0,,0.0,0.0,100.28
2025-08-15T02:11:40.810Z,9,GR86-006-7,35.1,0.268,1.147,99.79,2.0,,0.0,0.0,
2025-08-15T02:11:40.853Z,9,GR86-006-7,35.0,0.252,1.169,99.8,2.0,,0.0,0.0,
2025-08-15T02:11:40.896Z,9,GR86-006-7,36.3,0.237,1.199,99.8,2.0,,0.0,0.0,
2025-08-15T02:11:40.940Z,9,GR86-006-7,35.7,0.256,1.191,99.81,2.0,6142.0,0.0,0.0,
2025-08-15T02:11:40.983Z,9,GR86-006-7,32.2,0.223,1.142,99.8,2.0,,0.0,0.0,101.61
2025-08-15T02:11:41.026Z,9,GR86-006-7,27.6,0.199,1.106,99.79,2.0,,0.0,0.0,
2025-08-15T02:11:41.069Z,9,GR86-006-7,18.8,0.212,1.226,99.81,2.0,,0.0,0.0,
2025-08-15T02:11:41.114Z,9,GR86-006-7,13.0,0.096,0.875,99.8,2.0,,0.0,0.0,
2025-08-15T02:11:41.157Z,9,GR86-006-7,11.6,0.214,0.985,99.82,2.0,6184.0,0.0,0.0,
2025-08-15T02:11:41.200Z,9,GR86-006-7,11.2,0.323,0.762,99.8,2.0,,0.0,0.0,103.59
2025-08-15T02:11:41.243Z,9,GR86-006-7,10.8,0.375,0.946,99.8,2.0,,0.0,0.0,
2025-08-15T02:11:41.286Z,9,GR86-006-7,19.0,0.263,1.068,99.8,2.0,,0.0,0.0,
2025-08-15T02:11:41.329Z,9,GR86-006-7,25.4,0.248,1.089,99.8,2.0,,0.0,0.0,
2025-08-15T02:11:41.372Z,9,GR86-006-7,24.0,0.265,1.105,99.8,2.0,6342.0,0.0,0.0,
2025-08-15T02:11:41.415Z,9,GR86-006-7,22.4,0.382,1.361,99.82,2.0,,0.0,0.0,104.77
2025-08-15T02:11:41.458Z,9,GR86-006-7,24.8,0.58,1.191,99.82,2.0,,0.0,0.0,
2025-08-15T02:11:41.502Z,9,GR86-006-7,26.5,0.53,1.177,99.8,2.0,,0.0,0.0,
2025-08-15T02:11:41.547Z,9,GR86-006-7,25.4,0.359,1.035,99.8,2.0,,0.0,0.0,
2025-08-15T02:11:41.590Z,9,GR86-006-7,21.9,0.112,0.877,99.8,2.0,6369.0,0.0,0.0,
2025-08-15T02:11:41.633Z,9,GR86-006-7,8.9,0.5650000000000001,0.758,99.8,2.0,,0.0,0.0,105.33
2025-08-15T02:11:41.676Z,9,GR86-006-7,5.4,0.472,0.644,99.8,2.0,,0.0,0.0,
2025-08-15T02:11:41.719Z,9,GR86-006-7,5.1000000000000005,0.403,0.562,99.81,2.0,,0.0,0.0,
2025-08-15T02:11:41.762Z,9,GR86-006-7,9.9,0.269,0.615,99.81,2.0,,0.0,0.0,
2025-08-15T02:11:41.805Z,9,GR86-006-7,15.8,0.341,0.584,99.8,2.0,6371.0,0.0,0.0,
2025-08-15T02:11:41.848Z,9,GR86-006-7,19.8,0.315,0.5660000000000001,99.8,2.0,,0.0,0.0,107.15
2025-08-15T02:11:41.891Z,9,GR86-006-7,21.9,0.223,0.55,99.8,2.0,,0.0,0.0,
2025-08-15T02:11:41.934Z,9,GR86-006-7,22.6,0.393,0.489,99.81,2.0,,0.0,0.0,
2025-08-15T02:11:41.977Z,9,GR86-006-7,22.5,0.37,0.54,99.8,2.0,,0.0,0.0,
2025-08-15T02:11:42.020Z,9,GR86-006-7,24.700000000000003,0.403,0.457,99.8,2.0,6438.0,0.0,0.0,
2025-08-15T02:11:42.063Z,9,GR86-006-7,26.8,0.396,0.577,99.8,2.0,,0.0,0.0,108.5
2025-08-15T02:11:42.106Z,9,GR86-006-7,27.4,0.355,0.5710000000000001,99.8,2.0,,0.0,0.0,
2025-08-15T02:11:42.149Z,9,GR86-006-7,26.700000000000003,0.286,0.588,99.82,2.0,,0.0,0.0,
2025-08-15T02:11:42.192Z,9,GR86-006-7,23.9,0.287,0.585,99.81,2.0,,0.0,0.0,
2025-08-15T02:11:42.235Z,9,GR86-006-7,22.4,0.293,0.55,99.82,2.0,6436.0,0.0,0.0,
2025-08-15T02:11:42.278Z,9,GR86-006-7,21.5,0.32,0.537,99.8,2.0,,0.0,0.0,110.42
2025-08-15T02:11:42.321Z,9,GR86-006-7,20.700000000000003,0.275,0.538,99.82,2.0,,0.0,0.0,
2025-08-15T02:11:42.364Z,9,GR86-006-7,20.0,0.389,0.629,99.81,2.0,,0.0,0.0,
2025-08-15T02:11:42.407Z,9,GR86-006-7,19.700000000000003,0.359,0.561,99.81,2.0,,0.0,0.0,
2025-08-15T02:11:42.450Z,9,GR86-006-7,19.4,0.431,0.66,99.81,2.0,6570.0,0.0,0.0,
2025-08-15T02:11:42.493Z,9,GR86-006-7,19.0,0.095,0.454,99.83,2.0,,0.0,0.0,112.61
2025-08-15T02:11:42.536Z,9,GR86-006-7,18.5,0.162,0.362,99.81,2.0,,0.0,0.0,
2025-08-15T02:11:42.579Z,9,GR86-006-7,18.1,0.187,0.313,99.82,2.0,,0.0,0.0,
2025-08-15T02:11:42.622Z,9,GR86-006-7,17.8,0.363,0.334,99.83,2.0,,0.0,0.0,
2025-08-15T02:11:42.665Z,9,GR86-006-7,17.6,0.34,0.395,99.8,2.0,6716.0,0.0,0.0,
2025-08-15T02:11:42.708Z,9,GR86-006-7,17.400000000000002,0.333,0.445,99.81,2.0,,0.0,0.0,114.69
2025-08-15T02:11:42.751Z,9,GR86-006-7,17.3,0.255,0.481,99.83,2.0,,0.0,0.0,
2025-08-15T02:11:42.794Z,9,GR86-006-7,16.8,0.224,0.302,99.83,2.0,,0.0,0.0,
2025-08-15T02:11:42.837Z,9,GR86-006-7,16.6,0.263,0.311,99.83,2.0,,0.0,0.0,
2025-08-15T02:11:42.880Z,9,GR86-006-7,15.8,0.287,0.313,99.84,2.0,6790.0,0.0,0.0,
2025-08-15T02:11:42.923Z,9,GR86-006-7,13.8,0.289,0.24,99.83,2.0,,0.0,0.0,118.47
2025-08-15T02:11:42.966Z,9,GR86-006-7,12.0,0.253,0.23,99.83,2.0,,0.0,0.0,
2025-08-15T02:11:43.009Z,9,GR86-006-7,8.5,0.274,0.234,99.84,2.0,,0.0,0.0,
2025-08-15T02:11:43.052Z,9,GR86-006-7,3.0,0.269,0.168,99.82,2.0,,0.0,0.0,
2025-08-15T02:11:43.095Z,9,GR86-006-7,0.7000000000000001,0.255,0.129,99.84,2.0,6895.0,0.0,0.0,
2025-08-15T02:11:43.138Z,9,GR86-006-7,-0.2,0.264,0.041,99.82,2.0,,0.0,0.0,120.29
2025-08-15T02:11:43.181Z,9,GR86-006-7,-1.2000000000000002,0.259,-0.02,99.83,2.0,,0.0,0.0,
2025-08-15T02:11:43.224Z,9,GR86-006-7,-2.2,0.266,-0.056,99.85,2.0,,0.0,0.0,
2025-08-15T02:11:43.268Z,9,GR86-006-7,-2.9000000000000004,0.24,-0.131,99.83,2.0,,0.0,0.0,
2025-08-15T02:11:43.311Z,9,GR86-006-7,-3.1,0.258,-0.193,99.84,2.0,7000.0,0.0,0.0,
2025-08-15T02:11:43.354Z,9,GR86-006-7,-3.1,0.254,-0.213,99.82,2.0,,0.0,0.0,122.24
2025-08-15T02:11:43.397Z,9,GR86-006-7,-3.0,0.255,-0.252,99.85,2.0,,0.0,0.0,
2025-08-15T02:11:43.440Z,9,GR86-006-7,-3.0,0.24,-0.259,99.82,2.0,,0.0,0.0,
2025-08-15T02:11:43.483Z,9,GR86-006-7,-3.0,0.205,-0.286,99.83,2.0,,0.0,0.0,
2025-08-15T02:11:43.526Z,9,GR86-006-7,-4.0,-0.074,-0.269,99.85,3.0,7206.0,0.0,0.0,
2025-08-15T02:11:43.569Z,9,GR86-006-7,-5.300000000000001,0.36,-0.236,99.86,3.0,,0.0,0.0,124.11
2025-08-15T02:11:43.613Z,9,GR86-006-7,-6.300000000000001,0.405,-0.388,99.86,3.0,,0.0,0.0,
2025-08-15T02:11:43.657Z,9,GR86-006-7,-6.5,0.329,-0.303,99.87,3.0,,0.0,0.0,
2025-08-15T02:11:43.700Z,9,GR86-006-7,-6.5,0.168,-0.33,99.86,3.0,,0.0,0.0,
2025-08-15T02:11:43.743Z,9,GR86-006-7,-6.300000000000001,0.119,-0.423,99.86,3.0,6906.0,0.0,0.0,
2025-08-15T02:11:43.786Z,9,GR86-006-7,-6.2,0.162,-0.352,99.85,3.0,,0.0,0.0,126.07
2025-08-15T02:11:43.829Z,9,GR86-006-7,-6.1000000000000005,0.275,-0.367,99.84,3.0,,0.0,0.0,
2025-08-15T02:11:43.874Z,9,GR86-006-7,-6.0,0.222,-0.39,99.85,3.0,,0.0,0.0,
2025-08-15T02:11:43.917Z,9,GR86-006-7,-6.0,0.208,-0.332,99.84,3.0,,0.0,0.0,
