timestamp,lap,vehicle_id,steering_angle,accx_can,accy_can,ath,gear,nmot,pbrake_f,pbrake_r,speed
2025-08-15T04:47:13.352Z,5,GR86-021-86,-2.0,-0.11,-0.006,16.96,5.0,,0.0,0.0,174.68
2025-08-15T04:47:13.396Z,5,GR86-021-86,-1.9,-0.123,-0.008,18.89,5.0,,0.0,0.0,
2025-08-15T04:47:13.439Z,5,GR86-021-86,-1.8,-0.092,-0.007,21.41,5.0,,0.0,0.0,
2025-08-15T04:47:13.482Z,5,GR86-021-86,-1.8,-0.108,-0.026,22.28,5.0,,0.0,0.0,
2025-08-15T04:47:13.526Z,5,GR86-021-86,-1.9,-0.084,-0.027,22.33,5.0,5864.0,0.0,0.0,
2025-08-15T04:47:13.570Z,5,GR86-021-86,-1.6,0.082,0.004,21.65,5.0,,0.0,0.0,173.76
2025-08-15T04:47:13.613Z,5,GR86-021-86,-1.6,-0.071,-0.001,21.96,5.0,,0.0,0.0,
2025-08-15T04:47:13.656Z,5,GR86-021-86,-1.8,-0.055,-0.013,22.03,5.0,,0.0,0.0,
2025-08-15T04:47:13.700Z,5,GR86-021-86,-1.8,0.018,-0.013,20.6,5.0,,0.0,0.0,
2025-08-15T04:47:13.742Z,5,GR86-021-86,-1.5,0.007,0.017,20.08,5.0,5809.0,0.0,0.0,
2025-08-15T04:47:13.786Z,5,GR86-021-86,-1.4,-0.042,0.009,20.26,5.0,,0.0,0.0,173.08
2025-08-15T04:47:13.829Z,5,GR86-021-86,-1.1,-0.044,0.016,20.07,5.0,,0.0,0.0,
2025-08-15T04:47:13.872Z,5,GR86-021-86,-0.7000000000000001,-0.025,0.033,19.38,5.0,,0.0,0.0,
2025-08-15T04:47:13.916Z,5,GR86-021-86,-0.5,-0.033,0.04,19.44,5.0,,0.0,0.0,
2025-08-15T04:47:13.960Z,5,GR86-021-86,-0.4,-0.042,0.049,20.0,5.0,5836.0,0.0,0.0,
2025-08-15T04:47:14.002Z,5,GR86-021-86,-0.4,-0.025,0.049,20.13,5.0,,0.0,0.0,172.83
2025-08-15T04:47:14.046Z,5,GR86-021-86,-0.4,-0.019,0.05,20.38,5.0,,0.0,0.0,
2025-08-15T04:47:14.089Z,5,GR86-021-86,-0.8,-0.047,0.044,22.03,5.0,,0.0,0.0,
2025-08-15T04:47:14.132Z,5,GR86-021-86,-0.8,-0.044,0.047,22.86,5.0,,0.0,0.0,
2025-08-15T04:47:14.176Z,5,GR86-021-86,-0.8,-0.028,0.068,24.22,5.0,5816.0,0.0,0.0,
2025-08-15T04:47:14.220Z,5,GR86-021-86,-0.8,-0.026,0.071,25.33,5.0,,0.0,0.0,172.62
2025-08-15T04:47:14.263Z,5,GR86-021-86,-0.5,-0.013,0.062,26.76,5.0,,0.0,0.0,
2025-08-15T04:47:14.306Z,5,GR86-021-86,-0.5,0.02,0.052,27.72,5.0,,0.0,0.0,
2025-08-15T04:47:14.350Z,5,GR86-021-86,-0.5,0.002,0.045,28.57,5.0,,0.0,0.0,
2025-08-15T04:47:14.392Z,5,GR86-021-86,-0.5,0.003,0.037,28.75,5.0,5821.0,0.0,0.0,
2025-08-15T04:47:14.436Z,5,GR86-021-86,-0.5,0.012,0.04,28.78,5.0,,0.0,0.0,172.39
2025-08-15T04:47:14.481Z,5,GR86-021-86,-0.7000000000000001,0.025,0.043,28.75,5.0,,0.0,0.0,
2025-08-15T04:47:14.523Z,5,GR86-021-86,-0.9,0.012,0.049,28.71,5.0,,0.0,0.0,
2025-08-15T04:47:14.566Z,5,GR86-021-86,-1.0,0.018,0.044,28.81,5.0,,0.0,0.0,
2025-08-15T04:47:14.610Z,5,GR86-021-86,-1.2000000000000002,0.027,0.034,29.8,5.0,5826.0,0.0,0.0,
2025-08-15T04:47:14.652Z,5,GR86-021-86,-1.2000000000000002,0.029,0.019,30.32,5.0,,0.0,0.0,172.36
2025-08-15T04:47:14.696Z,5,GR86-021-86,-1.6,0.033,0.014,30.41,5.0,,0.0,0.0,
2025-08-15T04:47:14.739Z,5,GR86-021-86,-2.3000000000000003,0.026,0.009,30.5,5.0,,0.0,0.0,
2025-08-15T04:47:14.782Z,5,GR86-021-86,-2.5,0.022,0.004,31.2,5.0,,0.0,0.0,
2025-08-15T04:47:14.824Z,5,GR86-021-86,-2.4000000000000004,0.024,0.003,32.84,5.0,5835.0,0.0,0.0,
2025-08-15T04:47:14.870Z,5,GR86-021-86,-1.9,0.042,0.003,33.44,5.0,,0.0,0.0,172.61
2025-08-15T04:47:14.912Z,5,GR86-021-86,-1.9,0.048,0.003,33.4,5.0,,0.0,0.0,
2025-08-15T04:47:14.956Z,5,GR86-021-86,-2.2,0.042,0.001,33.480000000000004,5.0,,0.0,0.0,
2025-08-15T04:47:15.000Z,5,GR86-021-86,-2.3000000000000003,0.036,-0.016,34.480000000000004,5.0,,0.0,0.0,
2025-08-15T04:47:15.042Z,5,GR86-021-86,-2.3000000000000003,0.038,-0.017,36.13,5.0,5841.0,0.0,0.0,
2025-08-15T04:47:15.085Z,5,GR86-021-86,-2.2,0.036,-0.001,36.47,5.0,,0.0,0.0,172.83
2025-08-15T04:47:15.130Z,5,GR86-021-86,-2.1,0.064,0.035,36.33,5.0,,0.0,0.0,
2025-08-15T04:47:15.172Z,5,GR86-021-86,-2.0,0.065,0.017,36.21,5.0,,0.0,0.0,
2025-08-15T04:47:15.216Z,5,GR86-021-86,-2.0,0.056,0.008,36.17,5.0,,0.0,0.0,
2025-08-15T04:47:15.260Z,5,GR86-021-86,-2.2,0.055,0.016,36.16,5.0,5852.0,0.0,0.0,
2025-08-15T04:47:15.302Z,5,GR86-021-86,-2.3000000000000003,0.057,0.021,36.12,5.0,,0.0,0.0,173.24
2025-08-15T04:47:15.346Z,5,GR86-021-86,-2.3000000000000003,0.049,0.016,36.1,5.0,,0.0,0.0,
2025-08-15T04:47:15.389Z,5,GR86-021-86,-2.6,0.055,0.018,36.1,5.0,,0.0,0.0,
2025-08-15T04:47:15.432Z,5,GR86-021-86,-2.9000000000000004,0.056,0.016,36.1,5.0,,0.0,0.0,
2025-08-15T04:47:15.476Z,5,GR86-021-86,-3.1,0.059,0.017,36.09,5.0,5878.0,0.0,0.0,
2025-08-15T04:47:15.520Z,5,GR86-021-86,-3.1,0.061,0.009,36.06,5.0,,0.0,0.0,173.61
2025-08-15T04:47:15.562Z,5,GR86-021-86,-3.1,0.061,-0.007,36.06,5.0,,0.0,0.0,
2025-08-15T04:47:15.606Z,5,GR86-021-86,-3.2,0.057,-0.023,36.15,5.0,,0.0,0.0,
2025-08-15T04:47:15.650Z,5,GR86-021-86,-3.2,0.046,-0.029,37.57,5.0,,0.0,0.0,
2025-08-15T04:47:15.692Z,5,GR86-021-86,-3.2,0.044,-0.029,41.46,5.0,5894.0,0.0,0.0,
2025-08-15T04:47:15.736Z,5,GR86-021-86,-3.2,0.051,-0.032,47.870000000000005,5.0,,0.0,0.0,173.92000000000002
2025-08-15T04:47:15.781Z,5,GR86-021-86,-3.2,0.055,-0.023,50.98,5.0,,0.0,0.0,
2025-08-15T04:47:15.824Z,5,GR86-021-86,-3.1,0.069,-0.026,51.46,5.0,,0.0,0.0,
2025-08-15T04:47:15.866Z,5,GR86-021-86,-3.1,0.085,-0.022,53.120000000000005,5.0,,0.0,0.0,
2025-08-15T04:47:15.910Z,5,GR86-021-86,-2.8000000000000003,0.08,-0.038,63.11,5.0,5914.0,0.0,0.0,
2025-08-15T04:47:15.952Z,5,GR86-021-86,-2.4000000000000004,0.082,-0.021,71.22,5.0,,0.0,0.0,174.27
2025-08-15T04:47:15.996Z,5,GR86-021-86,-2.2,0.084,-0.019,72.64,5.0,,0.0,0.0,
2025-08-15T04:47:16.039Z,5,GR86-021-86,-2.2,0.096,-0.006,72.25,5.0,,0.0,0.0,
2025-08-15T04:47:16.082Z,5,GR86-021-86,-2.0,0.092,-0.024,72.32000000000001,5.0,,0.0,0.0,
2025-08-15T04:47:16.125Z,5,GR86-021-86,-1.8,0.084,-0.023,72.79,5.0,5939.0,0.0,0.0,
2025-08-15T04:47:16.170Z,5,GR86-021-86,-1.1,0.106,-0.004,68.62,5.0,,0.0,0.0,174.85
2025-08-15T04:47:16.212Z,5,GR86-021-86,-1.1,0.098,0.014,63.45,5.0,,0.0,0.0,
2025-08-15T04:47:16.256Z,5,GR86-021-86,-1.1,0.093,0.03,59.870000000000005,5.0,,0.0,0.0,
2025-08-15T04:47:16.300Z,5,GR86-021-86,-0.9,0.098,0.04,58.66,5.0,,0.0,0.0,
2025-08-15T04:47:16.342Z,5,GR86-021-86,-0.4,0.088,0.047,54.97,5.0,5962.0,0.0,0.0,
2025-08-15T04:47:16.386Z,5,GR86-021-86,0.0,0.077,0.042,50.56,5.0,,0.0,0.0,175.58
2025-08-15T04:47:16.430Z,5,GR86-021-86,-0.8,0.087,0.061,50.81,5.0,,0.0,0.0,
2025-08-15T04:47:16.472Z,5,GR86-021-86,-1.9,0.09,0.066,53.120000000000005,5.0,,0.0,0.0,
2025-08-15T04:47:16.516Z,5,GR86-021-86,-2.9000000000000004,0.086,0.058,53.51,5.0,,0.0,0.0,
2025-08-15T04:47:16.559Z,5,GR86-021-86,-3.5,0.071,0.037,51.79,5.0,5979.0,0.0,0.0,
2025-08-15T04:47:16.602Z,5,GR86-021-86,-3.7,0.108,0.0,50.63,5.0,,0.0,0.0,176.23
2025-08-15T04:47:16.646Z,5,GR86-021-86,-3.7,0.084,0.015,50.91,5.0,,0.0,0.0,
2025-08-15T04:47:16.689Z,5,GR86-021-86,-4.0,0.071,-0.022,51.19,5.0,,0.0,0.0,
2025-08-15T04:47:16.732Z,5,GR86-021-86,-4.2,0.076,-0.051,50.46,5.0,,0.0,0.0,
2025-08-15T04:47:16.776Z,5,GR86-021-86,-4.5,0.085,-0.078,50.19,5.0,5996.0,0.0,0.0,
2025-08-15T04:47:16.819Z,5,GR86-021-86,-4.7,0.089,-0.084,51.07,5.0,,0.0,0.0,176.92000000000002
2025-08-15T04:47:16.863Z,5,GR86-021-86,-4.7,0.081,-0.068,52.52,5.0,,0.0,0.0,
2025-08-15T04:47:16.906Z,5,GR86-021-86,-4.7,0.075,-0.072,53.56,5.0,,0.0,0.0,
2025-08-15T04:47:16.950Z,5,GR86-021-86,-4.5,0.074,-0.082,55.59,5.0,,0.0,0.0,
2025-08-15T04:47:16.992Z,5,GR86-021-86,-4.5,0.089,-0.074,58.71,5.0,6022.0,0.0,0.0,
2025-08-15T04:47:17.036Z,5,GR86-021-86,-4.3,0.071,-0.062,62.7,5.0,,0.0,0.0,177.56
2025-08-15T04:47:17.081Z,5,GR86-021-86,-4.2,0.07,-0.059,65.73,5.0,,0.0,0.0,
2025-08-15T04:47:17.166Z,5,GR86-021-86,-4.2,0.091,-0.064,69.49,5.0,,0.0,0.0,
2025-08-15T04:47:17.252Z,5,GR86-021-86,-4.2,0.094,-0.058,84.94,5.0,6047.0,0.0,0.0,178.05
2025-08-15T04:47:17.295Z,5,GR86-021-86,-4.3,0.099,-0.06,100.11,5.0,,0.0,0.0,
2025-08-15T04:47:17.339Z,5,GR86-021-86,-4.3,0.103,-0.054,100.03,5.0,,0.0,0.0,
2025-08-15T04:47:17.382Z,5,GR86-021-86,-4.3,0.091,-0.058,100.03,5.0,,0.0,0.0,
2025-08-15T04:47:17.426Z,5,GR86-021-86,-4.2,0.097,-0.063,100.03,5.0,6078.0,0.0,0.0,
2025-08-15T04:47:17.470Z,5,GR86-021-86,-4.2,0.084,-0.097,100.05,5.0,,0.0,0.0,179.53
2025-08-15T04:47:17.512Z,5,GR86-021-86,-4.4,0.088,-0.091,100.03,5.0,,0.0,0.0,
2025-08-15T04:47:17.556Z,5,GR86-021-86,-4.6000000000000005,0.08,-0.086,100.03,5.0,,0.0,0.0,
2025-08-15T04:47:17.600Z,5,GR86-021-86,-4.5,0.078,-0.071,100.03,5.0,,0.0,0.0,
2025-08-15T04:47:17.642Z,5,GR86-021-86,-4.0,0.093,-0.055,100.04,5.0,6101.0,0.0,0.0,
2025-08-15T04:47:17.686Z,5,GR86-021-86,-3.7,0.086,-0.064,100.03,5.0,,0.0,0.0,180.2
2025-08-15T04:47:17.729Z,5,GR86-021-86,-3.6,0.089,-0.078,100.02,5.0,,0.0,0.0,
2025-08-15T04:47:17.772Z,5,GR86-021-86,-3.6,0.092,-0.069,100.03,5.0,,0.0,0.0,
2025-08-15T04:47:17.816Z,5,GR86-021-86,-3.6,0.099,-0.06,100.03,5.0,,0.0,0.0,
2025-08-15T04:47:17.860Z,5,GR86-021-86,-3.5,0.096,-0.057,100.03,5.0,6130.0,0.0,0.0,
2025-08-15T04:47:17.902Z,5,GR86-021-86,-3.5,0.09,-0.069,100.03,5.0,,0.0,0.0,181.01
2025-08-15T04:47:17.946Z,5,GR86-021-86,-3.8,0.086,-0.061,100.03,5.0,,0.0,0.0,
2025-08-15T04:47:17.989Z,5,GR86-021-86,-4.2,0.066,-0.034,100.03,5.0,,0.0,0.0,
2025-08-15T04:47:18.032Z,5,GR86-021-86,-4.1000000000000005,0.098,-0.031,100.04,5.0,,0.0,0.0,
2025-08-15T04:47:18.076Z,5,GR86-021-86,-3.7,0.079,-0.022,100.03,5.0,6176.0,0.0,0.0,
2025-08-15T04:47:18.120Z,5,GR86-021-86,-3.4000000000000004,0.079,-0.035,100.01,5.0,,0.0,0.0,181.64
2025-08-15T04:47:18.162Z,5,GR86-021-86,-3.3000000000000003,0.079,-0.031,100.02,5.0,,0.0,0.0,
2025-08-15T04:47:18.206Z,5,GR86-021-86,-3.2,0.082,-0.039,100.03,5.0,,0.0,0.0,
2025-08-15T04:47:18.250Z,5,GR86-021-86,-3.1,0.075,-0.069,100.03,5.0,,0.0,0.0,
2025-08-15T04:47:18.292Z,5,GR86-021-86,-3.1,0.104,-0.069,100.03,5.0,6195.0,0.0,0.0,
2025-08-15T04:47:18.336Z,5,GR86-021-86,-3.2,0.076,-0.062,100.03,5.0,,0.0,0.0,182.47
2025-08-15T04:47:18.381Z,5,GR86-021-86,-3.6,0.095,-0.054,100.02,5.0,,0.0,0.0,
2025-08-15T04:47:18.424Z,5,GR86-021-86,-3.7,0.092,-0.038,80.41,5.0,,0.0,0.0,
2025-08-15T04:47:18.470Z,5,GR86-021-86,-3.2,0.071,-0.033,66.38,5.0,,0.0,0.0,
2025-08-15T04:47:18.513Z,5,GR86-021-86,-3.1,0.083,-0.029,54.76,5.0,6224.0,0.0,0.0,
2025-08-15T04:47:18.556Z,5,GR86-021-86,-3.2,0.065,-0.042,45.04,5.0,,0.0,0.0,183.13
2025-08-15T04:47:18.599Z,5,GR86-021-86,-3.3000000000000003,0.054,-0.041,41.31,5.0,,0.0,0.0,
2025-08-15T04:47:18.642Z,5,GR86-021-86,-3.1,0.051,-0.048,41.0,5.0,,0.0,0.0,
2025-08-15T04:47:18.686Z,5,GR86-021-86,-2.9000000000000004,0.039,-0.038,41.0,5.0,,0.0,0.0,
2025-08-15T04:47:18.730Z,5,GR86-021-86,-2.9000000000000004,0.063,-0.071,38.15,5.0,6226.0,0.0,0.0,
2025-08-15T04:47:18.772Z,5,GR86-021-86,-3.2,0.057,-0.052,36.59,5.0,,0.0,0.0,183.87
2025-08-15T04:47:18.815Z,5,GR86-021-86,-3.2,0.042,-0.038,36.22,5.0,,0.0,0.0,
2025-08-15T04:47:18.860Z,5,GR86-021-86,-3.2,0.044,-0.026,36.2,5.0,,0.0,0.0,
2025-08-15T04:47:18.902Z,5,GR86-021-86,-2.8000000000000003,0.049,-0.008,36.22,5.0,,0.0,0.0,
2025-08-15T04:47:18.946Z,5,GR86-021-86,-2.5,0.041,-0.001,36.36,5.0,6245.0,0.0,0.0,
2025-08-15T04:47:18.989Z,5,GR86-021-86,-2.3000000000000003,-0.003,-0.016,36.89,5.0,,0.0,0.0,184.41
2025-08-15T04:47:19.032Z,5,GR86-021-86,-2.3000000000000003,0.023,-0.021,37.44,5.0,,0.0,0.0,
2025-08-15T04:47:19.075Z,5,GR86-021-86,-2.3000000000000003,0.019,-0.004,38.33,5.0,,0.0,0.0,
2025-08-15T04:47:19.120Z,5,GR86-021-86,-2.3000000000000003,0.012,0.008,41.83,5.0,,0.0,0.0,
2025-08-15T04:47:19.162Z,5,GR86-021-86,-2.3000000000000003,0.028,0.005,45.53,5.0,6256.0,0.0,0.0,
2025-08-15T04:47:19.206Z,5,GR86-021-86,-2.4000000000000004,0.023,-0.005,44.67,5.0,,0.0,0.0,184.8
2025-08-15T04:47:19.250Z,5,GR86-021-86,-3.0,0.058,0.002,42.42,5.0,,0.0,0.0,
2025-08-15T04:47:19.292Z,5,GR86-021-86,-3.1,0.049,0.015,42.45,5.0,,0.0,0.0,
2025-08-15T04:47:19.336Z,5,GR86-021-86,-3.1,0.042,0.018,42.54,5.0,,0.0,0.0,
2025-08-15T04:47:19.381Z,5,GR86-021-86,-2.8000000000000003,0.057,0.009,42.5,5.0,6274.0,0.0,0.0,
2025-08-15T04:47:19.423Z,5,GR86-021-86,-2.7,0.054,0.006,42.45,5.0,,0.0,0.0,185.12
2025-08-15T04:47:19.466Z,5,GR86-021-86,-2.7,0.044,0.004,42.56,5.0,,0.0,0.0,
2025-08-15T04:47:19.510Z,5,GR86-021-86,-2.7,0.046,-0.025,43.15,5.0,,0.0,0.0,
2025-08-15T04:47:19.552Z,5,GR86-021-86,-2.5,0.052,-0.026,44.41,5.0,,0.0,0.0,
2025-08-15T04:47:19.596Z,5,GR86-021-86,-2.4000000000000004,0.046,-0.027,47.6,5.0,6276.0,0.0,0.0,
2025-08-15T04:47:19.639Z,5,GR86-021-86,-2.4000000000000004,0.057,-0.028,50.27,5.0,,0.0,0.0,185.46
2025-08-15T04:47:19.682Z,5,GR86-021-86,-2.4000000000000004,0.065,-0.034,50.620000000000005,5.0,,0.0,0.0,
2025-08-15T04:47:19.725Z,5,GR86-021-86,-2.6,0.076,-0.031,50.52,5.0,,0.0,0.0,
2025-08-15T04:47:19.770Z,5,GR86-021-86,-2.5,0.062,-0.003,51.36,5.0,,0.0,0.0,
2025-08-15T04:47:19.812Z,5,GR86-021-86,-2.0,0.068,-0.005,53.370000000000005,5.0,6300.0,0.0,0.0,
2025-08-15T04:47:19.856Z,5,GR86-021-86,-1.5,0.051,-0.007,53.56,5.0,,0.0,0.0,185.93
2025-08-15T04:47:19.899Z,5,GR86-021-86,-1.5,0.075,-0.021,52.03,5.0,,0.0,0.0,
2025-08-15T04:47:19.942Z,5,GR86-021-86,-1.6,0.065,-0.015,50.89,5.0,,0.0,0.0,
2025-08-15T04:47:19.986Z,5,GR86-021-86,-1.8,0.046,-0.018,50.620000000000005,5.0,,0.0,0.0,
2025-08-15T04:47:20.030Z,5,GR86-021-86,-1.6,0.077,0.007,50.83,5.0,6318.0,0.0,0.0,
2025-08-15T04:47:20.072Z,5,GR86-021-86,-1.1,0.076,0.01,51.3,5.0,,0.0,0.0,186.8
2025-08-15T04:47:20.116Z,5,GR86-021-86,-0.7000000000000001,0.093,-0.014,51.31,5.0,,0.0,0.0,
2025-08-15T04:47:20.159Z,5,GR86-021-86,-0.6000000000000001,0.085,0.008,50.66,5.0,,0.0,0.0,
2025-08-15T04:47:20.202Z,5,GR86-021-86,-0.4,0.088,0.017,51.89,5.0,,0.0,0.0,
2025-08-15T04:47:20.245Z,5,GR86-021-86,0.2,0.069,0.061,54.48,5.0,6338.0,0.0,0.0,
2025-08-15T04:47:20.289Z,5,GR86-021-86,1.3,0.067,0.049,57.68,5.0,,0.0,0.0,187.34
2025-08-15T04:47:20.332Z,5,GR86-021-86,1.7000000000000002,0.076,0.048,58.67,5.0,,0.0,0.0,
2025-08-15T04:47:20.376Z,5,GR86-021-86,1.7000000000000002,0.086,0.066,63.01,5.0,,0.0,0.0,
2025-08-15T04:47:20.420Z,5,GR86-021-86,1.7000000000000002,0.081,0.087,71.69,5.0,,0.0,0.0,
2025-08-15T04:47:20.463Z,5,GR86-021-86,1.7000000000000002,0.088,0.097,77.29,5.0,6350.0,0.0,0.0,
2025-08-15T04:47:20.506Z,5,GR86-021-86,1.4,0.09,0.107,87.82000000000001,5.0,,0.0,0.0,187.86
2025-08-15T04:47:20.550Z,5,GR86-021-86,0.7000000000000001,0.064,0.108,99.92,5.0,,0.0,0.0,
2025-08-15T04:47:20.592Z,5,GR86-021-86,-0.2,0.082,0.126,100.03,5.0,,0.0,0.0,
2025-08-15T04:47:20.636Z,5,GR86-021-86,0.5,0.048,0.152,100.02,5.0,,0.0,0.0,
2025-08-15T04:47:20.681Z,5,GR86-021-86,2.3000000000000003,0.081,0.121,100.04,5.0,6405.0,0.0,0.0,
2025-08-15T04:47:20.725Z,5,GR86-021-86,3.5,0.062,0.1,100.04,5.0,,0.0,0.0,188.43
2025-08-15T04:47:20.770Z,5,GR86-021-86,1.9,0.093,0.1,100.01,5.0,,0.0,0.0,
2025-08-15T04:47:20.812Z,5,GR86-021-86,0.2,0.078,0.094,100.02,5.0,,0.0,0.0,
2025-08-15T04:47:20.856Z,5,GR86-021-86,-0.5,0.083,0.11,100.03,5.0,,0.0,0.0,
2025-08-15T04:47:20.900Z,5,GR86-021-86,-0.5,0.086,0.105,100.03,5.0,6417.0,0.0,0.0,
2025-08-15T04:47:20.942Z,5,GR86-021-86,-0.2,0.085,0.107,100.04,5.0,,0.0,0.0,188.99
2025-08-15T04:47:20.986Z,5,GR86-021-86,-0.2,0.072,0.096,100.03,5.0,,0.0,0.0,
2025-08-15T04:47:21.029Z,5,GR86-021-86,-0.4,0.088,0.08,100.03,5.0,,0.0,0.0,
2025-08-15T04:47:21.072Z,5,GR86-021-86,-0.5,0.085,0.058,100.03,5.0,,0.0,0.0,
2025-08-15T04:47:21.114Z,5,GR86-021-86,-0.6000000000000001,0.093,0.048,100.03,5.0,6435.0,0.0,0.0,
2025-08-15T04:47:21.160Z,5,GR86-021-86,-0.6000000000000001,0.093,0.052,100.05,5.0,,0.0,0.0,189.61
2025-08-15T04:47:21.202Z,5,GR86-021-86,-0.6000000000000001,0.097,0.044,100.02,5.0,,0.0,0.0,
2025-08-15T04:47:21.246Z,5,GR86-021-86,-0.6000000000000001,0.079,0.034,100.03,5.0,,0.0,0.0,
2025-08-15T04:47:21.289Z,5,GR86-021-86,-0.7000000000000001,0.091,0.053,100.02,5.0,,0.0,0.0,
2025-08-15T04:47:21.332Z,5,GR86-021-86,-0.7000000000000001,0.078,0.054,100.03,5.0,6456.0,0.0,0.0,
2025-08-15T04:47:21.376Z,5,GR86-021-86,-0.7000000000000001,0.08,0.028,100.03,5.0,,0.0,0.0,190.23
2025-08-15T04:47:21.420Z,5,GR86-021-86,-0.8,0.087,0.032,100.05,5.0,,0.0,0.0,
2025-08-15T04:47:21.463Z,5,GR86-021-86,-0.9,0.091,0.051,100.03,5.0,,0.0,0.0,
2025-08-15T04:47:21.506Z,5,GR86-021-86,-1.1,0.083,0.058,100.03,5.0,,0.0,0.0,
2025-08-15T04:47:21.550Z,5,GR86-021-86,-1.1,0.068,0.042,100.02,5.0,6477.0,0.0,0.0,
2025-08-15T04:47:21.592Z,5,GR86-021-86,-1.3,0.072,0.026,100.03,5.0,,0.0,0.0,190.79
2025-08-15T04:47:21.635Z,5,GR86-021-86,-1.7000000000000002,0.082,0.022,100.03,5.0,,0.0,0.0,
2025-08-15T04:47:21.681Z,5,GR86-021-86,-2.2,0.069,0.031,100.03,5.0,,0.0,0.0,
2025-08-15T04:47:21.725Z,5,GR86-021-86,-2.6,0.084,0.011,100.03,5.0,,0.0,0.0,
2025-08-15T04:47:21.770Z,5,GR86-021-86,-2.9000000000000004,0.084,0.016,100.03,5.0,6494.0,0.0,0.0,
2025-08-15T04:47:21.812Z,5,GR86-021-86,-2.9000000000000004,0.06,0.001,100.03,5.0,,0.0,0.0,191.48
2025-08-15T04:47:21.856Z,5,GR86-021-86,-3.1,0.066,-0.02,100.03,5.0,,0.0,0.0,
2025-08-15T04:47:21.899Z,5,GR86-021-86,-3.3000000000000003,0.059,-0.017,100.03,5.0,,0.0,0.0,
2025-08-15T04:47:21.942Z,5,GR86-021-86,-3.3000000000000003,0.075,-0.032,100.04,5.0,,0.0,0.0,
2025-08-15T04:47:21.986Z,5,GR86-021-86,-3.2,0.077,-0.039,100.03,5.0,6515.0,0.0,0.0,
2025-08-15T04:47:22.030Z,5,GR86-021-86,-2.5,0.08,-0.026,100.02,5.0,,0.0,0.0,192.03
2025-08-15T04:47:22.072Z,5,GR86-021-86,-2.5,0.066,-0.034,100.03,5.0,,0.0,0.0,
2025-08-15T04:47:22.115Z,5,GR86-021-86,-2.7,0.081,-0.033,100.03,5.0,,0.0,0.0,
2025-08-15T04:47:22.160Z,5,GR86-021-86,-3.0,0.078,-0.035,100.03,5.0,,0.0,0.0,
2025-08-15T04:47:22.202Z,5,GR86-021-86,-3.4000000000000004,0.07,-0.036,100.03,5.0,6538.0,0.0,0.0,
2025-08-15T04:47:22.246Z,5,GR86-021-86,-3.9,0.079,-0.037,100.02,5.0,,0.0,0.0,192.64
2025-08-15T04:47:22.289Z,5,GR86-021-86,-4.800000000000001,0.072,-0.073,100.02,5.0,,0.0,0.0,
2025-08-15T04:47:22.332Z,5,GR86-021-86,-4.9,0.079,-0.078,100.03,5.0,,0.0,0.0,
2025-08-15T04:47:22.375Z,5,GR86-021-86,-4.4,0.066,-0.082,100.04,5.0,,0.0,0.0,
2025-08-15T04:47:22.420Z,5,GR86-021-86,-4.2,0.073,-0.085,100.04,5.0,6561.0,0.0,0.0,
2025-08-15T04:47:22.463Z,5,GR86-021-86,-4.3,0.063,-0.069,100.03,5.0,,0.0,0.0,193.25
2025-08-15T04:47:22.506Z,5,GR86-021-86,-4.5,0.065,-0.091,100.03,5.0,,0.0,0.0,
2025-08-15T04:47:22.550Z,5,GR86-021-86,-4.3,0.078,-0.107,100.03,5.0,,0.0,0.0,
2025-08-15T04:47:22.592Z,5,GR86-021-86,-4.2,0.087,-0.104,100.04,5.0,,0.0,0.0,
2025-08-15T04:47:22.636Z,5,GR86-021-86,-4.2,0.074,-0.086,100.02,5.0,6578.0,0.0,0.0,
2025-08-15T04:47:22.681Z,5,GR86-021-86,-4.3,0.067,-0.074,100.03,5.0,,0.0,0.0,194.31
2025-08-15T04:47:22.724Z,5,GR86-021-86,-4.3,0.072,-0.099,100.03,5.0,,0.0,0.0,
2025-08-15T04:47:22.766Z,5,GR86-021-86,-4.2,0.084,-0.076,100.03,5.0,,0.0,0.0,
2025-08-15T04:47:22.810Z,5,GR86-021-86,-4.1000000000000005,0.078,-0.103,100.03,5.0,,0.0,0.0,
2025-08-15T04:47:22.896Z,5,GR86-021-86,-4.3,0.073,-0.078,96.76,5.0,6595.0,0.0,0.0,194.77
2025-08-15T04:47:22.939Z,5,GR86-021-86,-3.7,0.078,-0.076,6.3100000000000005,5.0,,0.0,0.0,
2025-08-15T04:47:22.982Z,5,GR86-021-86,-3.3000000000000003,0.038,-0.09,4.07,5.0,,0.0,0.0,
2025-08-15T04:47:23.024Z,5,GR86-021-86,-3.2,-0.188,-0.085,3.64,5.0,,0.0,0.0,
2025-08-15T04:47:23.070Z,5,GR86-021-86,-3.2,-0.431,-0.099,3.09,5.0,6318.0,0.0,0.0,
2025-08-15T04:47:23.112Z,5,GR86-021-86,-3.2,-0.2,-0.098,2.9,5.0,,9.43,9.905,195.45
2025-08-15T04:47:23.156Z,5,GR86-021-86,-2.8000000000000003,-0.224,-0.04,2.81,5.0,,17.03,17.395,
2025-08-15T04:47:23.199Z,5,GR86-021-86,-2.7,-0.367,-0.056,2.74,5.0,,22.465,22.675,
2025-08-15T04:47:23.242Z,5,GR86-021-86,-2.7,-0.504,-0.009,2.68,5.0,,29.465,29.53,
2025-08-15T04:47:23.286Z,5,GR86-021-86,-2.8000000000000003,-0.763,-0.006,2.65,5.0,6351.0,37.98,38.015,
2025-08-15T04:47:23.330Z,5,GR86-021-86,-3.1,-0.857,0.008,2.65,5.0,,47.995000000000005,47.84,194.34
2025-08-15T04:47:23.372Z,5,GR86-021-86,-3.5,-0.938,0.015,2.61,5.0,,50.905,50.755,
2025-08-15T04:47:23.415Z,5,GR86-021-86,-4.1000000000000005,-0.972,0.011,2.61,5.0,,51.745000000000005,51.745000000000005,
2025-08-15T04:47:23.460Z,5,GR86-021-86,-4.3,-1.032,0.012,2.58,5.0,,52.05,52.08,
2025-08-15T04:47:23.502Z,5,GR86-021-86,-3.9,-1.032,0.018,2.58,5.0,6064.0,53.745000000000005,53.515,
2025-08-15T04:47:23.546Z,5,GR86-021-86,-3.6,-1.038,0.024,2.59,5.0,,55.3,55.18,188.56
2025-08-15T04:47:23.589Z,5,GR86-021-86,-4.7,-1.122,0.017,2.5500000000000003,5.0,,56.28,56.28,
2025-08-15T04:47:23.632Z,5,GR86-021-86,-5.2,-1.14,0.005,2.5500000000000003,5.0,,56.905,56.905,
2025-08-15T04:47:23.675Z,5,GR86-021-86,-4.9,-1.191,-0.016,2.5500000000000003,5.0,,56.995000000000005,56.995000000000005,
2025-08-15T04:47:23.719Z,5,GR86-021-86,-4.0,-1.168,-0.015,3.3200000000000003,5.0,5781.0,56.63,56.965,
2025-08-15T04:47:23.762Z,5,GR86-021-86,-3.3000000000000003,-1.137,-0.024,43.71,5.0,,56.585,56.965,181.44
2025-08-15T04:47:23.806Z,5,GR86-021-86,-3.1,-1.123,-0.012,91.03,5.0,,56.525,56.935,
2025-08-15T04:47:23.850Z,5,GR86-021-86,-3.5,-1.134,-0.059,40.89,4.0,,56.66,56.815,
2025-08-15T04:47:23.892Z,5,GR86-021-86,-3.1,-1.177,0.027,4.11,4.0,,58.185,59.59,
2025-08-15T04:47:23.936Z,5,GR86-021-86,-2.9000000000000004,-1.153,-0.059,2.71,4.0,5622.0,61.21,62.93,
2025-08-15T04:47:23.982Z,5,GR86-021-86,-2.0,-1.181,-0.047,2.59,4.0,,61.45,61.82,173.63
2025-08-15T04:47:24.024Z,5,GR86-021-86,-2.0,-1.205,0.02,2.54,4.0,,63.055,64.49,
2025-08-15T04:47:24.070Z,5,GR86-021-86,-2.5,-1.111,-0.045,2.52,4.0,,62.125,62.335,
2025-08-15T04:47:24.112Z,5,GR86-021-86,-3.1,-1.092,0.015,2.52,4.0,,60.43,60.825,
2025-08-15T04:47:24.156Z,5,GR86-021-86,-3.9,-1.155,-0.007,2.51,4.0,6214.0,59.925,60.98,
2025-08-15T04:47:24.199Z,5,GR86-021-86,-5.300000000000001,-1.15,-0.003,36.66,3.0,,59.515,60.735,165.46
2025-08-15T04:47:24.242Z,5,GR86-021-86,-7.300000000000001,-1.225,-0.025,46.68,3.0,,59.42,60.49,
2025-08-15T04:47:24.286Z,5,GR86-021-86,-10.1,-1.3,-0.032,5.98,3.0,,59.59,61.145,
2025-08-15T04:47:24.329Z,5,GR86-021-86,-14.3,-1.358,-0.2,3.98,3.0,,59.775,61.68,
2025-08-15T04:47:24.372Z,5,GR86-021-86,-16.3,-1.387,-0.142,3.52,3.0,5745.0,56.035,56.63,
2025-08-15T04:47:24.415Z,5,GR86-021-86,-18.1,-1.02,-0.192,3.18,3.0,,52.495000000000005,53.96,157.25
2025-08-15T04:47:24.460Z,5,GR86-021-86,-18.8,-0.946,-0.383,2.96,3.0,,45.965,46.65,
2025-08-15T04:47:24.502Z,5,GR86-021-86,-19.5,-1.047,-0.303,2.84,3.0,,39.785,41.05,
2025-08-15T04:47:24.546Z,5,GR86-021-86,-20.3,-0.874,-0.412,2.75,3.0,,36.55,37.8,
2025-08-15T04:47:24.589Z,5,GR86-021-86,-22.1,-0.75,-0.513,2.67,3.0,6442.0,30.825,31.68,
2025-08-15T04:47:24.632Z,5,GR86-021-86,-23.8,-0.682,-0.589,2.65,3.0,,28.065,29.115,149.89
2025-08-15T04:47:24.676Z,5,GR86-021-86,-25.9,-0.686,-0.64,2.62,3.0,,26.63,27.805,
2025-08-15T04:47:24.720Z,5,GR86-021-86,-28.6,-0.663,-0.655,2.61,3.0,,25.025,26.325,
2025-08-15T04:47:24.762Z,5,GR86-021-86,-31.5,-0.614,-0.719,2.61,3.0,,23.12,24.31,
2025-08-15T04:47:24.850Z,5,GR86-021-86,-33.1,-0.578,-0.8160000000000001,2.59,3.0,6400.0,21.21,22.22,143.41
2025-08-15T04:47:24.892Z,5,GR86-021-86,-31.5,-0.542,-0.9,2.56,3.0,,14.545,15.535,
2025-08-15T04:47:24.935Z,5,GR86-021-86,-31.0,-0.419,-0.898,2.5500000000000003,3.0,,9.035,9.72,
2025-08-15T04:47:24.982Z,5,GR86-021-86,-32.5,-0.242,-0.967,2.5500000000000003,3.0,,2.58,3.16,
2025-08-15T04:47:25.024Z,5,GR86-021-86,-36.3,-0.195,-0.928,2.52,3.0,6167.0,0.0,0.0,
2025-08-15T04:47:25.070Z,5,GR86-021-86,-43.2,-0.172,-0.999,2.52,3.0,,0.0,0.0,137.38
2025-08-15T04:47:25.112Z,5,GR86-021-86,-47.2,-0.184,-1.03,2.52,3.0,,0.0,0.0,
2025-08-15T04:47:25.156Z,5,GR86-021-86,-49.400000000000006,-0.195,-1.085,2.51,3.0,,0.0,0.0,
2025-08-15T04:47:25.200Z,5,GR86-021-86,-50.2,-0.195,-1.078,2.52,3.0,,0.0,0.0,
2025-08-15T04:47:25.242Z,5,GR86-021-86,-50.2,-0.203,-1.1,2.5,3.0,6177.0,0.0,0.0,
2025-08-15T04:47:25.285Z,5,GR86-021-86,-50.3,-0.207,-1.135,2.52,3.0,,0.0,0.0,135.17000000000002
2025-08-15T04:47:25.330Z,5,GR86-021-86,-51.2,-0.201,-1.112,2.51,3.0,,0.0,0.0,
2025-08-15T04:47:25.372Z,5,GR86-021-86,-52.400000000000006,-0.193,-1.1,2.52,3.0,,0.0,0.0,
2025-08-15T04:47:25.416Z,5,GR86-021-86,-53.7,-0.179,-1.119,2.61,3.0,,0.0,0.0,
2025-08-15T04:47:25.460Z,5,GR86-021-86,-54.6,-0.186,-1.115,2.75,3.0,6132.0,0.0,0.0,
2025-08-15T04:47:25.502Z,5,GR86-021-86,-54.7,-0.2,-1.166,3.12,3.0,,0.0,0.0,134.02
2025-08-15T04:47:25.546Z,5,GR86-021-86,-54.2,-0.198,-1.209,4.3100000000000005,3.0,,0.0,0.0,
2025-08-15T04:47:25.589Z,5,GR86-021-86,-53.900000000000006,-0.201,-1.199,6.29,3.0,,0.0,0.0,
2025-08-15T04:47:25.632Z,5,GR86-021-86,-53.900000000000006,-0.197,-1.173,8.2,3.0,,0.0,0.0,
2025-08-15T04:47:25.676Z,5,GR86-021-86,-53.900000000000006,-0.188,-1.162,13.86,3.0,6004.0,0.0,0.0,
2025-08-15T04:47:25.720Z,5,GR86-021-86,-53.900000000000006,-0.178,-1.208,17.0,3.0,,0.0,0.0,132.65
2025-08-15T04:47:25.762Z,5,GR86-021-86,-53.900000000000006,-0.15,-1.244,17.990000000000002,3.0,,0.0,0.0,
2025-08-15T04:47:25.806Z,5,GR86-021-86,-53.900000000000006,-0.161,-1.198,19.47,3.0,,0.0,0.0,
2025-08-15T04:47:25.850Z,5,GR86-021-86,-53.8,-0.119,-1.232,21.65,3.0,,0.0,0.0,
2025-08-15T04:47:25.892Z,5,GR86-021-86,-54.0,-0.141,-1.212,26.28,3.0,5993.0,0.0,0.0,
2025-08-15T04:47:25.936Z,5,GR86-021-86,-54.400000000000006,-0.137,-1.296,30.72,3.0,,0.0,0.0,131.43
2025-08-15T04:47:25.982Z,5,GR86-021-86,-55.0,-0.024,-1.265,31.51,3.0,,0.0,0.0,
2025-08-15T04:47:26.024Z,5,GR86-021-86,-55.900000000000006,0.107,-1.232,31.58,3.0,,0.0,0.0,
2025-08-15T04:47:26.070Z,5,GR86-021-86,-58.1,0.077,-1.175,31.61,3.0,,0.0,0.0,
2025-08-15T04:47:26.112Z,5,GR86-021-86,-59.6,0.03,-1.187,31.64,3.0,6116.0,0.0,0.0,
2025-08-15T04:47:26.156Z,5,GR86-021-86,-60.5,0.041,-1.24,31.58,3.0,,0.0,0.0,129.6
2025-08-15T04:47:26.199Z,5,GR86-021-86,-61.0,0.05,-1.223,31.52,3.0,,0.0,0.0,
2025-08-15T04:47:26.242Z,5,GR86-021-86,-61.6,0.031,-1.191,31.61,3.0,,0.0,0.0,
2025-08-15T04:47:26.286Z,5,GR86-021-86,-62.8,0.047,-1.162,31.73,3.0,,0.0,0.0,
2025-08-15T04:47:26.329Z,5,GR86-021-86,-65.9,0.033,-1.137,31.75,3.0,6077.0,0.0,0.0,
2025-08-15T04:47:26.372Z,5,GR86-021-86,-68.2,0.065,-1.144,31.74,3.0,,0.0,0.0,128.94
2025-08-15T04:47:26.416Z,5,GR86-021-86,-69.3,0.055,-1.173,31.77,3.0,,0.0,0.0,
2025-08-15T04:47:26.460Z,5,GR86-021-86,-69.0,0.014,-1.238,31.92,3.0,,0.0,0.0,
2025-08-15T04:47:26.502Z,5,GR86-021-86,-68.7,0.061,-1.117,32.26,3.0,,0.0,0.0,
2025-08-15T04:47:26.546Z,5,GR86-021-86,-68.3,0.104,-1.139,32.63,3.0,6087.0,0.0,0.0,
2025-08-15T04:47:26.589Z,5,GR86-021-86,-68.5,0.053,-1.224,32.94,3.0,,0.0,0.0,129.21
2025-08-15T04:47:26.632Z,5,GR86-021-86,-68.2,0.046,-1.203,33.07,3.0,,0.0,0.0,
2025-08-15T04:47:26.676Z,5,GR86-021-86,-67.5,0.041,-1.239,33.24,3.0,,0.0,0.0,
2025-08-15T04:47:26.719Z,5,GR86-021-86,-67.10000000000001,0.062,-1.195,33.63,3.0,,0.0,0.0,
2025-08-15T04:47:26.762Z,5,GR86-021-86,-66.8,0.076,-1.164,33.84,3.0,6106.0,0.0,0.0,
2025-08-15T04:47:26.806Z,5,GR86-021-86,-66.8,0.051,-1.165,34.01,3.0,,0.0,0.0,129.37
2025-08-15T04:47:26.850Z,5,GR86-021-86,-67.5,0.046,-1.275,34.71,3.0,,0.0,0.0,
2025-08-15T04:47:26.892Z,5,GR86-021-86,-67.7,0.034,-1.263,36.26,3.0,,0.0,0.0,
2025-08-15T04:47:26.936Z,5,GR86-021-86,-67.8,0.05,-1.293,38.14,3.0,,0.0,0.0,
2025-08-15T04:47:26.981Z,5,GR86-021-86,-68.10000000000001,0.068,-1.256,39.92,3.0,6126.0,0.0,0.0,
2025-08-15T04:47:27.023Z,5,GR86-021-86,-68.5,0.068,-1.234,47.68,3.0,,0.0,0.0,130.38
2025-08-15T04:47:27.066Z,5,GR86-021-86,-68.7,0.076,-1.247,55.78,3.0,,0.0,0.0,
2025-08-15T04:47:27.110Z,5,GR86-021-86,-68.3,0.073,-1.225,62.03,3.0,,0.0,0.0,
2025-08-15T04:47:27.152Z,5,GR86-021-86,-68.2,0.122,-1.227,63.56,3.0,,0.0,0.0,
2025-08-15T04:47:27.196Z,5,GR86-021-86,-68.2,0.147,-1.236,66.97,3.0,6154.0,0.0,0.0,
2025-08-15T04:47:27.239Z,5,GR86-021-86,-68.0,0.128,-1.185,69.64,3.0,,0.0,0.0,129.8
2025-08-15T04:47:27.282Z,5,GR86-021-86,-67.9,0.115,-1.213,69.84,3.0,,0.0,0.0,
2025-08-15T04:47:27.326Z,5,GR86-021-86,-67.9,0.135,-1.284,69.92,3.0,,0.0,0.0,
2025-08-15T04:47:27.370Z,5,GR86-021-86,-67.60000000000001,0.126,-1.323,78.84,3.0,,0.0,0.0,
2025-08-15T04:47:27.412Z,5,GR86-021-86,-67.3,0.149,-1.302,90.25,3.0,6190.0,0.0,0.0,
2025-08-15T04:47:27.456Z,5,GR86-021-86,-66.9,0.154,-1.255,98.8,3.0,,0.0,0.0,130.3
2025-08-15T04:47:27.499Z,5,GR86-021-86,-66.7,0.115,-1.231,99.98,3.0,,0.0,0.0,
2025-08-15T04:47:27.542Z,5,GR86-021-86,-66.10000000000001,0.12,-1.234,100.03,3.0,,0.0,0.0,
2025-08-15T04:47:27.586Z,5,GR86-021-86,-64.8,0.164,-1.204,100.03,3.0,,0.0,0.0,
2025-08-15T04:47:27.629Z,5,GR86-021-86,-62.3,0.123,-1.2,100.02,3.0,6219.0,0.0,0.0,
2025-08-15T04:47:27.672Z,5,GR86-021-86,-60.8,0.134,-1.239,100.04,3.0,,0.0,0.0,132.36
2025-08-15T04:47:27.716Z,5,GR86-021-86,-60.2,0.13,-1.295,100.03,3.0,,0.0,0.0,
2025-08-15T04:47:27.760Z,5,GR86-021-86,-59.8,0.134,-1.317,100.03,3.0,,0.0,0.0,
2025-08-15T04:47:27.802Z,5,GR86-021-86,-59.8,0.169,-1.256,100.03,3.0,,0.0,0.0,
2025-08-15T04:47:27.846Z,5,GR86-021-86,-59.7,0.164,-1.265,100.03,3.0,6266.0,0.0,0.0,
2025-08-15T04:47:27.889Z,5,GR86-021-86,-57.8,0.148,-1.289,100.04,3.0,,0.0,0.0,132.7
2025-08-15T04:47:27.932Z,5,GR86-021-86,-56.3,0.124,-1.311,100.03,3.0,,0.0,0.0,
2025-08-15T04:47:27.976Z,5,GR86-021-86,-54.400000000000006,0.13,-1.289,100.03,3.0,,0.0,0.0,
2025-08-15T04:47:28.019Z,5,GR86-021-86,-53.5,0.149,-1.274,100.02,3.0,,0.0,0.0,
2025-08-15T04:47:28.063Z,5,GR86-021-86,-53.3,0.169,-1.267,100.03,3.0,6281.0,0.0,0.0,
2025-08-15T04:47:28.106Z,5,GR86-021-86,-53.400000000000006,0.15,-1.265,100.03,3.0,,0.0,0.0,133.84
2025-08-15T04:47:28.150Z,5,GR86-021-86,-53.6,0.181,-1.215,100.03,3.0,,0.0,0.0,
2025-08-15T04:47:28.192Z,5,GR86-021-86,-53.3,0.137,-1.189,100.03,3.0,,0.0,0.0,
2025-08-15T04:47:28.236Z,5,GR86-021-86,-51.8,0.122,-1.17,100.03,3.0,,0.0,0.0,
2025-08-15T04:47:28.281Z,5,GR86-021-86,-50.0,0.159,-1.17,100.04,3.0,6342.0,0.0,0.0,
2025-08-15T04:47:28.323Z,5,GR86-021-86,-48.2,0.175,-1.17,100.03,3.0,,0.0,0.0,133.69
2025-08-15T04:47:28.366Z,5,GR86-021-86,-45.6,0.142,-1.112,100.03,3.0,,0.0,0.0,
2025-08-15T04:47:28.410Z,5,GR86-021-86,-44.400000000000006,0.171,-1.03,100.03,3.0,,0.0,0.0,
2025-08-15T04:47:28.452Z,5,GR86-021-86,-44.400000000000006,0.135,-0.993,96.83,3.0,,0.0,0.0,
2025-08-15T04:47:28.539Z,5,GR86-021-86,-44.5,0.206,-0.92,95.48,3.0,6374.0,0.0,0.0,134.03
2025-08-15T04:47:28.582Z,5,GR86-021-86,-44.1,0.18,-0.743,94.49,3.0,,0.0,0.0,
2025-08-15T04:47:28.624Z,5,GR86-021-86,-43.8,0.116,-0.553,91.64,3.0,,0.0,0.0,
2025-08-15T04:47:28.670Z,5,GR86-021-86,-39.6,0.257,-0.876,89.65,3.0,,0.0,0.0,
2025-08-15T04:47:28.712Z,5,GR86-021-86,-37.4,0.078,-0.602,93.64,3.0,6453.0,0.0,0.0,
2025-08-15T04:47:28.756Z,5,GR86-021-86,-33.5,0.03,-0.8280000000000001,91.66,3.0,,0.0,0.0,135.16
2025-08-15T04:47:28.799Z,5,GR86-021-86,-30.700000000000003,0.207,-0.943,85.02,3.0,,0.0,0.0,
2025-08-15T04:47:28.842Z,5,GR86-021-86,-29.200000000000003,0.275,-0.66,84.69,3.0,,0.0,0.0,
2025-08-15T04:47:28.885Z,5,GR86-021-86,-28.8,0.297,-0.927,73.26,3.0,,0.0,0.0,
2025-08-15T04:47:28.930Z,5,GR86-021-86,-28.6,0.028,-1.174,71.61,3.0,6522.0,0.0,0.0,
2025-08-15T04:47:28.972Z,5,GR86-021-86,-26.8,0.293,-1.066,95.94,3.0,,0.0,0.0,136.3
2025-08-15T04:47:29.016Z,5,GR86-021-86,-24.700000000000003,0.076,-1.134,99.91,3.0,,0.0,0.0,
2025-08-15T04:47:29.060Z,5,GR86-021-86,-20.8,0.091,-1.11,100.0,3.0,,0.0,0.0,
2025-08-15T04:47:29.102Z,5,GR86-021-86,-19.3,0.235,-1.015,99.99,3.0,,0.0,0.0,
2025-08-15T04:47:29.146Z,5,GR86-021-86,-19.6,0.245,-0.8320000000000001,99.99,3.0,6503.0,0.0,0.0,
2025-08-15T04:47:29.189Z,5,GR86-021-86,-24.6,0.173,-0.785,100.01,3.0,,0.0,0.0,137.29
2025-08-15T04:47:29.232Z,5,GR86-021-86,-27.0,0.192,-0.732,100.0,3.0,,0.0,0.0,
2025-08-15T04:47:29.275Z,5,GR86-021-86,-27.3,0.198,-0.737,100.0,3.0,,0.0,0.0,
2025-08-15T04:47:29.320Z,5,GR86-021-86,-25.9,0.135,-0.716,100.0,3.0,,0.0,0.0,
2025-08-15T04:47:29.362Z,5,GR86-021-86,-22.0,0.186,-0.751,99.99,3.0,6591.0,0.0,0.0,
2025-08-15T04:47:29.406Z,5,GR86-021-86,-18.6,0.239,-0.709,100.0,3.0,,0.0,0.0,137.74
2025-08-15T04:47:29.450Z,5,GR86-021-86,-18.3,0.255,-0.6970000000000001,99.98,3.0,,0.0,0.0,
2025-08-15T04:47:29.492Z,5,GR86-021-86,-22.1,0.184,-0.428,100.0,3.0,,0.0,0.0,
2025-08-15T04:47:29.536Z,5,GR86-021-86,-25.200000000000003,0.093,-0.463,99.99,3.0,,0.0,0.0,
2025-08-15T04:47:29.581Z,5,GR86-021-86,-26.9,0.096,-0.522,100.0,3.0,6551.0,0.0,0.0,
2025-08-15T04:47:29.624Z,5,GR86-021-86,-26.5,0.107,-0.527,100.0,3.0,,0.0,0.0,139.4
2025-08-15T04:47:29.666Z,5,GR86-021-86,-24.8,0.232,-0.351,100.01,3.0,,0.0,0.0,
2025-08-15T04:47:29.710Z,5,GR86-021-86,-19.6,0.242,-0.349,100.0,3.0,,0.0,0.0,
2025-08-15T04:47:29.752Z,5,GR86-021-86,-16.3,0.206,-0.483,100.0,3.0,,0.0,0.0,
2025-08-15T04:47:29.796Z,5,GR86-021-86,-14.1,0.154,-0.46,100.0,3.0,6667.0,0.0,0.0,
2025-08-15T04:47:29.839Z,5,GR86-021-86,-13.1,0.069,-0.508,100.0,3.0,,0.0,0.0,140.35
2025-08-15T04:47:29.882Z,5,GR86-021-86,-12.3,0.266,-0.388,100.0,3.0,,0.0,0.0,
2025-08-15T04:47:29.925Z,5,GR86-021-86,-11.7,0.181,-0.442,100.0,3.0,,0.0,0.0,
2025-08-15T04:47:29.970Z,5,GR86-021-86,-11.0,0.168,-0.285,99.99,3.0,,0.0,0.0,
2025-08-15T04:47:30.012Z,5,GR86-021-86,-10.7,0.163,-0.394,100.0,3.0,6715.0,0.0,0.0,
2025-08-15T04:47:30.056Z,5,GR86-021-86,-10.1,0.19,-0.277,99.99,3.0,,0.0,0.0,141.79
2025-08-15T04:47:30.100Z,5,GR86-021-86,-9.7,0.132,-0.256,100.0,3.0,,0.0,0.0,
2025-08-15T04:47:30.142Z,5,GR86-021-86,-10.0,0.161,-0.264,100.0,3.0,,0.0,0.0,
2025-08-15T04:47:30.186Z,5,GR86-021-86,-10.8,0.218,-0.098,100.0,3.0,,0.0,0.0,
2025-08-15T04:47:30.230Z,5,GR86-021-86,-11.1,0.083,-0.244,99.99,3.0,6762.0,0.0,0.0,
2025-08-15T04:47:30.272Z,5,GR86-021-86,-10.7,0.171,-0.146,99.99,3.0,,0.0,0.0,144.24
2025-08-15T04:47:30.315Z,5,GR86-021-86,-10.2,0.263,-0.226,100.0,3.0,,0.0,0.0,
2025-08-15T04:47:30.359Z,5,GR86-021-86,-10.0,0.307,-0.21,100.0,3.0,,0.0,0.0,
2025-08-15T04:47:30.402Z,5,GR86-021-86,-10.1,0.144,-0.198,100.0,3.0,,0.0,0.0,
2025-08-15T04:47:30.446Z,5,GR86-021-86,-10.2,0.123,-0.236,100.0,3.0,6825.0,0.0,0.0,
2025-08-15T04:47:30.489Z,5,GR86-021-86,-11.2,0.194,-0.248,99.99,3.0,,0.0,0.0,146.07
2025-08-15T04:47:30.532Z,5,GR86-021-86,-11.8,0.188,-0.182,100.0,3.0,,0.0,0.0,
2025-08-15T04:47:30.575Z,5,GR86-021-86,-12.2,0.148,-0.117,100.02,3.0,,0.0,0.0,
2025-08-15T04:47:30.619Z,5,GR86-021-86,-11.5,0.11,-0.238,100.0,3.0,,0.0,0.0,
2025-08-15T04:47:30.663Z,5,GR86-021-86,-10.1,0.201,-0.123,100.0,3.0,6885.0,0.0,0.0,
2025-08-15T04:47:30.706Z,5,GR86-021-86,-8.200000000000001,0.203,-0.279,100.0,3.0,,0.0,0.0,147.26
2025-08-15T04:47:30.750Z,5,GR86-021-86,-2.5,0.143,-0.195,99.98,3.0,,0.0,0.0,
2025-08-15T04:47:30.792Z,5,GR86-021-86,1.0,0.298,-0.279,99.99,3.0,,0.0,0.0,
2025-08-15T04:47:30.836Z,5,GR86-021-86,3.1,0.333,-0.135,100.0,3.0,,0.0,0.0,
2025-08-15T04:47:30.881Z,5,GR86-021-86,3.9,0.152,-0.061,100.0,3.0,6951.0,0.0,0.0,
2025-08-15T04:47:30.923Z,5,GR86-021-86,4.0,0.106,0.042,99.99,3.0,,0.0,0.0,148.56
2025-08-15T04:47:30.966Z,5,GR86-021-86,4.5,0.093,0.025,99.99,3.0,,0.0,0.0,
2025-08-15T04:47:31.010Z,5,GR86-021-86,6.300000000000001,0.105,0.185,100.0,3.0,,0.0,0.0,
2025-08-15T04:47:31.052Z,5,GR86-021-86,6.9,0.165,0.221,100.0,3.0,,0.0,0.0,
2025-08-15T04:47:31.096Z,5,GR86-021-86,7.0,0.187,0.226,100.01,3.0,7059.0,0.0,0.0,
2025-08-15T04:47:31.139Z,5,GR86-021-86,6.800000000000001,0.221,0.333,99.99,3.0,,0.0,0.0,149.77
2025-08-15T04:47:31.182Z,5,GR86-021-86,6.800000000000001,0.21,0.238,100.0,3.0,,0.0,0.0,
2025-08-15T04:47:31.226Z,5,GR86-021-86,6.800000000000001,0.204,0.323,100.0,3.0,,0.0,0.0,
2025-08-15T04:47:31.270Z,5,GR86-021-86,6.7,0.186,0.307,100.01,3.0,,0.0,0.0,
2025-08-15T04:47:31.312Z,5,GR86-021-86,6.5,0.203,0.309,100.0,3.0,7087.0,0.0,0.0,
2025-08-15T04:47:31.356Z,5,GR86-021-86,6.6000000000000005,0.187,0.299,99.99,3.0,,0.0,0.0,151.54
2025-08-15T04:47:31.400Z,5,GR86-021-86,6.800000000000001,0.158,0.293,99.99,3.0,,0.0,0.0,
2025-08-15T04:47:31.442Z,5,GR86-021-86,6.800000000000001,0.136,0.268,100.0,3.0,,0.0,0.0,
2025-08-15T04:47:31.486Z,5,GR86-021-86,6.6000000000000005,0.161,0.26,99.99,3.0,,0.0,0.0,
2025-08-15T04:47:31.529Z,5,GR86-021-86,6.6000000000000005,0.159,0.249,100.0,3.0,7162.0,0.0,0.0,
2025-08-15T04:47:31.572Z,5,GR86-021-86,6.6000000000000005,0.141,0.267,100.0,3.0,,0.0,0.0,152.9
2025-08-15T04:47:31.615Z,5,GR86-021-86,6.5,0.147,0.281,100.0,3.0,,0.0,0.0,
2025-08-15T04:47:31.660Z,5,GR86-021-86,6.5,0.197,0.26,100.0,3.0,,0.0,0.0,
2025-08-15T04:47:31.702Z,5,GR86-021-86,6.5,0.195,0.263,99.97,3.0,,0.0,0.0,
2025-08-15T04:47:31.746Z,5,GR86-021-86,6.2,0.188,0.268,100.0,3.0,7240.0,0.0,0.0,
2025-08-15T04:47:31.789Z,5,GR86-021-86,5.6000000000000005,0.165,0.272,99.99,3.0,,0.0,0.0,154.31
2025-08-15T04:47:31.832Z,5,GR86-021-86,5.4,0.186,0.27,100.0,3.0,,0.0,0.0,
2025-08-15T04:47:31.876Z,5,GR86-021-86,5.300000000000001,0.168,0.268,99.97,3.0,,0.0,0.0,
2025-08-15T04:47:31.920Z,5,GR86-021-86,5.2,0.113,0.258,100.0,3.0,,0.0,0.0,
2025-08-15T04:47:31.962Z,5,GR86-021-86,4.7,0.05,0.252,100.0,3.0,7300.0,0.0,0.0,
2025-08-15T04:47:32.006Z,5,GR86-021-86,4.1000000000000005,0.031,0.229,100.0,3.0,,0.0,0.0,155.8
2025-08-15T04:47:32.050Z,5,GR86-021-86,3.6,0.066,0.217,99.99,3.0,,0.0,0.0,
2025-08-15T04:47:32.135Z,5,GR86-021-86,3.4000000000000004,0.029,0.198,100.0,3.0,,0.0,0.0,
2025-08-15T04:47:32.182Z,5,GR86-021-86,3.3000000000000003,-0.039,0.162,99.98,3.0,7337.0,0.0,0.0,
2025-08-15T04:47:32.224Z,5,GR86-021-86,3.5,-0.078,0.149,99.97,4.0,,0.0,0.0,157.27
2025-08-15T04:47:32.270Z,5,GR86-021-86,4.0,0.503,0.181,100.0,4.0,,0.0,0.0,
2025-08-15T04:47:32.312Z,5,GR86-021-86,4.7,0.256,0.079,100.0,4.0,,0.0,0.0,
2025-08-15T04:47:32.356Z,5,GR86-021-86,4.9,0.271,0.184,100.0,4.0,,0.0,0.0,
2025-08-15T04:47:32.399Z,5,GR86-021-86,4.9,0.089,0.172,100.0,4.0,7099.0,0.0,0.0,
2025-08-15T04:47:32.442Z,5,GR86-021-86,4.6000000000000005,0.064,0.136,99.99,4.0,,0.0,0.0,158.25
2025-08-15T04:47:32.486Z,5,GR86-021-86,4.4,0.174,0.222,100.01,4.0,,0.0,0.0,
2025-08-15T04:47:32.530Z,5,GR86-021-86,4.1000000000000005,0.16,0.153,99.99,4.0,,0.0,0.0,
2025-08-15T04:47:32.572Z,5,GR86-021-86,3.1,0.093,0.179,99.99,4.0,,0.0,0.0,
2025-08-15T04:47:32.615Z,5,GR86-021-86,1.5,0.14,0.154,100.0,4.0,6265.0,0.0,0.0,
2025-08-15T04:47:32.660Z,5,GR86-021-86,0.5,0.179,0.153,100.0,4.0,,0.0,0.0,159.51
2025-08-15T04:47:32.702Z,5,GR86-021-86,-0.2,0.178,0.14,99.99,4.0,,0.0,0.0,
2025-08-15T04:47:32.746Z,5,GR86-021-86,-0.8,0.126,0.12,100.0,4.0,,0.0,0.0,
2025-08-15T04:47:32.789Z,5,GR86-021-86,-1.1,0.154,0.078,100.0,4.0,,0.0,0.0,
2025-08-15T04:47:32.832Z,5,GR86-021-86,-1.1,0.184,0.08,100.0,4.0,6362.0,0.0,0.0,
2025-08-15T04:47:32.875Z,5,GR86-021-86,-1.1,0.165,0.035,100.0,4.0,,0.0,0.0,162.48
2025-08-15T04:47:32.920Z,5,GR86-021-86,-1.4,0.145,0.024,100.01,4.0,,0.0,0.0,
2025-08-15T04:47:32.962Z,5,GR86-021-86,-2.0,0.137,0.007,100.01,4.0,,0.0,0.0,
2025-08-15T04:47:33.006Z,5,GR86-021-86,-2.7,0.129,-0.009,99.98,4.0,,0.0,0.0,
2025-08-15T04:47:33.050Z,5,GR86-021-86,-4.1000000000000005,0.169,-0.047,99.99,4.0,6399.0,0.0,0.0,
2025-08-15T04:47:33.093Z,5,GR86-021-86,-4.800000000000001,0.165,-0.067,100.0,4.0,,0.0,0.0,164.01
2025-08-15T04:47:33.136Z,5,GR86-021-86,-5.300000000000001,0.148,-0.063,99.99,4.0,,0.0,0.0,
2025-08-15T04:47:33.181Z,5,GR86-021-86,-5.5,0.138,-0.071,100.01,4.0,,0.0,0.0,
2025-08-15T04:47:33.223Z,5,GR86-021-86,-6.1000000000000005,0.109,-0.099,100.01,4.0,,0.0,0.0,
2025-08-15T04:47:33.266Z,5,GR86-021-86,-6.9,0.093,-0.127,99.98,4.0,6441.0,0.0,0.0,
2025-08-15T04:47:33.310Z,5,GR86-021-86,-8.6,0.152,-0.181,100.0,4.0,,0.0,0.0,165.41
2025-08-15T04:47:33.352Z,5,GR86-021-86,-9.4,0.152,-0.192,100.0,4.0,,0.0,0.0,
2025-08-15T04:47:33.396Z,5,GR86-021-86,-9.8,0.131,-0.216,100.01,4.0,,0.0,0.0,
2025-08-15T04:47:33.439Z,5,GR86-021-86,-9.8,0.113,-0.23,100.0,4.0,,0.0,0.0,
2025-08-15T04:47:33.482Z,5,GR86-021-86,-9.8,0.107,-0.257,99.99,4.0,6557.0,0.0,0.0,
2025-08-15T04:47:33.525Z,5,GR86-021-86,-10.0,0.094,-0.262,99.99,4.0,,0.0,0.0,166.82
2025-08-15T04:47:33.570Z,5,GR86-021-86,-10.3,0.149,-0.293,99.99,4.0,,0.0,0.0,
2025-08-15T04:47:33.613Z,5,GR86-021-86,-10.8,0.146,-0.301,100.0,4.0,,0.0,0.0,
2025-08-15T04:47:33.656Z,5,GR86-021-86,-11.4,0.128,-0.311,100.0,4.0,,0.0,0.0,
2025-08-15T04:47:33.699Z,5,GR86-021-86,-12.1,0.111,-0.315,100.0,4.0,6606.0,0.0,0.0,
2025-08-15T04:47:33.742Z,5,GR86-021-86,-12.7,0.106,-0.346,100.0,4.0,,0.0,0.0,168.16
2025-08-15T04:47:33.786Z,5,GR86-021-86,-13.5,0.104,-0.344,100.0,4.0,,0.0,0.0,
2025-08-15T04:47:33.829Z,5,GR86-021-86,-15.1,0.152,-0.347,100.0,4.0,,0.0,0.0,
2025-08-15T04:47:33.872Z,5,GR86-021-86,-16.0,0.144,-0.359,100.0,4.0,,0.0,0.0,
2025-08-15T04:47:33.915Z,5,GR86-021-86,-16.400000000000002,0.138,-0.39,100.0,4.0,6654.0,0.0,0.0,
2025-08-15T04:47:33.959Z,5,GR86-021-86,-16.6,0.132,-0.405,100.0,4.0,,0.0,0.0,169.42000000000002
2025-08-15T04:47:34.002Z,5,GR86-021-86,-16.900000000000002,0.116,-0.435,100.0,4.0,,0.0,0.0,
2025-08-15T04:47:34.046Z,5,GR86-021-86,-17.3,0.113,-0.461,99.99,4.0,,0.0,0.0,
2025-08-15T04:47:34.089Z,5,GR86-021-86,-17.400000000000002,0.13,-0.5,99.99,4.0,,0.0,0.0,
2025-08-15T04:47:34.132Z,5,GR86-021-86,-17.5,0.136,-0.51,100.0,4.0,6717.0,0.0,0.0,
2025-08-15T04:47:34.175Z,5,GR86-021-86,-17.7,0.141,-0.535,100.0,4.0,,0.0,0.0,170.48
2025-08-15T04:47:34.219Z,5,GR86-021-86,-17.900000000000002,0.131,-0.545,100.0,4.0,,0.0,0.0,
2025-08-15T04:47:34.263Z,5,GR86-021-86,-18.1,0.13,-0.557,99.99,4.0,,0.0,0.0,
2025-08-15T04:47:34.306Z,5,GR86-021-86,-18.3,0.128,-0.54,100.0,4.0,,0.0,0.0,
2025-08-15T04:47:34.350Z,5,GR86-021-86,-18.6,0.115,-0.54,100.0,4.0,6750.0,0.0,0.0,
2025-08-15T04:47:34.392Z,5,GR86-021-86,-18.8,0.102,-0.54,100.0,4.0,,0.0,0.0,171.82
2025-08-15T04:47:34.436Z,5,GR86-021-86,-19.1,0.121,-0.523,100.0,4.0,,0.0,0.0,
2025-08-15T04:47:34.481Z,5,GR86-021-86,-19.1,0.115,-0.527,100.0,4.0,,0.0,0.0,
2025-08-15T04:47:34.525Z,5,GR86-021-86,-18.0,0.126,-0.52,100.0,4.0,,0.0,0.0,
2025-08-15T04:47:34.570Z,5,GR86-021-86,-15.9,0.096,-0.524,99.99,4.0,6797.0,0.0,0.0,
2025-08-15T04:47:34.613Z,5,GR86-021-86,-14.5,0.099,-0.517,100.0,4.0,,0.0,0.0,173.04
2025-08-15T04:47:34.656Z,5,GR86-021-86,-13.3,0.087,-0.517,100.0,4.0,,0.0,0.0,
2025-08-15T04:47:34.700Z,5,GR86-021-86,-12.2,0.1,-0.511,100.0,4.0,,0.0,0.0,
2025-08-15T04:47:34.742Z,5,GR86-021-86,-11.2,0.09,-0.47,99.99,4.0,,0.0,0.0,
2025-08-15T04:47:34.786Z,5,GR86-021-86,-10.5,0.099,-0.448,100.0,4.0,6855.0,0.0,0.0,
2025-08-15T04:47:34.829Z,5,GR86-021-86,-9.8,0.13,-0.376,99.99,4.0,,0.0,0.0,174.15
2025-08-15T04:47:34.872Z,5,GR86-021-86,-9.5,0.122,-0.325,100.0,4.0,,0.0,0.0,
2025-08-15T04:47:34.916Z,5,GR86-021-86,-9.1,0.117,-0.28,100.0,4.0,,0.0,0.0,
2025-08-15T04:47:34.960Z,5,GR86-021-86,-9.0,0.116,-0.244,100.0,4.0,,0.0,0.0,
2025-08-15T04:47:35.002Z,5,GR86-021-86,-8.9,0.124,-0.236,100.0,4.0,6882.0,0.0,0.0,
2025-08-15T04:47:35.046Z,5,GR86-021-86,-8.8,0.108,-0.234,99.97,4.0,,0.0,0.0,175.51
2025-08-15T04:47:35.089Z,5,GR86-021-86,-9.5,0.107,-0.229,99.99,4.0,,0.0,0.0,
2025-08-15T04:47:35.132Z,5,GR86-021-86,-9.4,0.103,-0.215,100.0,4.0,,0.0,0.0,
2025-08-15T04:47:35.176Z,5,GR86-021-86,-8.700000000000001,0.109,-0.221,100.0,4.0,,0.0,0.0,
2025-08-15T04:47:35.220Z,5,GR86-021-86,-7.300000000000001,0.103,-0.236,100.0,4.0,6925.0,0.0,0.0,
2025-08-15T04:47:35.263Z,5,GR86-021-86,-4.9,0.104,-0.223,100.0,4.0,,0.0,0.0,176.51
2025-08-15T04:47:35.306Z,5,GR86-021-86,-2.5,0.103,-0.215,81.5,4.0,,0.0,0.0,
2025-08-15T04:47:35.350Z,5,GR86-021-86,-0.4,0.109,-0.166,4.7700000000000005,4.0,,0.0,0.0,
2025-08-15T04:47:35.392Z,5,GR86-021-86,-0.2,0.059,-0.143,3.53,4.0,,0.0,0.0,
2025-08-15T04:47:35.436Z,5,GR86-021-86,-0.5,-0.217,-0.072,3.23,4.0,6981.0,0.0,0.0,
2025-08-15T04:47:35.482Z,5,GR86-021-86,-1.1,-0.272,-0.026,2.98,4.0,,10.115,10.65,178.64
2025-08-15T04:47:35.525Z,5,GR86-021-86,-1.9,-0.533,-0.039,2.86,4.0,,33.875,34.395,
2025-08-15T04:47:35.570Z,5,GR86-021-86,-4.2,-0.955,0.047,2.77,4.0,,60.675,60.49,
2025-08-15T04:47:35.613Z,5,GR86-021-86,-6.5,-1.294,0.024,2.73,4.0,,73.78,73.37,
2025-08-15T04:47:35.656Z,5,GR86-021-86,-7.6,-1.343,0.008,2.69,4.0,6686.0,82.055,81.58,
2025-08-15T04:47:35.699Z,5,GR86-021-86,-7.7,-1.468,-0.022,2.69,4.0,,86.22,85.87,176.75
2025-08-15T04:47:35.742Z,5,GR86-021-86,-7.6,-1.471,-0.012,2.65,4.0,,88.555,89.545,
2025-08-15T04:47:35.786Z,5,GR86-021-86,-7.6,-1.467,-0.04,2.62,4.0,,91.055,93.33,
2025-08-15T04:47:35.830Z,5,GR86-021-86,-8.0,-1.455,-0.058,2.6,4.0,,90.2,91.285,
2025-08-15T04:47:35.872Z,5,GR86-021-86,-9.4,-1.355,-0.084,2.58,4.0,6087.0,92.905,94.87,
2025-08-15T04:47:35.960Z,5,GR86-021-86,-12.9,-1.364,-0.119,2.58,4.0,,88.765,89.365,166.65
2025-08-15T04:47:36.002Z,5,GR86-021-86,-12.5,-1.349,-0.131,18.18,4.0,,90.385,92.46,
2025-08-15T04:47:36.046Z,5,GR86-021-86,-12.8,-1.347,-0.184,63.67,3.0,,90.83,91.59,
2025-08-15T04:47:36.089Z,5,GR86-021-86,-15.5,-1.303,-0.168,7.66,3.0,5608.0,85.775,86.645,
2025-08-15T04:47:36.132Z,5,GR86-021-86,-16.3,-1.274,-0.182,4.1,3.0,,86.74,88.995,152.97
2025-08-15T04:47:36.175Z,5,GR86-021-86,-16.6,-1.448,-0.366,3.59,3.0,,87.655,89.33,
2025-08-15T04:47:36.220Z,5,GR86-021-86,-17.6,-1.457,-0.268,3.23,3.0,,88.995,89.99,
2025-08-15T04:47:36.263Z,5,GR86-021-86,-19.6,-1.211,-0.362,2.99,3.0,,87.93,89.99,
2025-08-15T04:47:36.306Z,5,GR86-021-86,-21.5,-1.364,-0.59,2.86,3.0,6097.0,84.615,85.47,
2025-08-15T04:47:36.350Z,5,GR86-021-86,-22.8,-1.33,-0.453,2.74,3.0,,85.595,87.455,145.84
2025-08-15T04:47:36.392Z,5,GR86-021-86,-23.3,-0.996,-0.769,2.71,3.0,,88.25,90.02,
2025-08-15T04:47:36.436Z,5,GR86-021-86,-23.3,-0.955,-0.776,2.68,3.0,,85.12,85.53,
2025-08-15T04:47:36.481Z,5,GR86-021-86,-23.0,-1.152,-0.654,2.67,3.0,,82.495,82.495,
2025-08-15T04:47:36.524Z,5,GR86-021-86,-22.9,-1.146,-0.682,2.65,3.0,5755.0,83.58,84.58500000000001,
2025-08-15T04:47:36.566Z,5,GR86-021-86,-23.8,-1.218,-0.741,25.03,3.0,,85.53,86.875,139.91
2025-08-15T04:47:36.610Z,5,GR86-021-86,-26.700000000000003,-1.091,-0.8190000000000001,31.81,2.0,,80.71000000000001,81.46000000000001,
2025-08-15T04:47:36.652Z,5,GR86-021-86,-27.1,-1.292,-0.476,5.01,2.0,,81.46000000000001,82.925,
2025-08-15T04:47:36.696Z,5,GR86-021-86,-29.200000000000003,-1.136,-0.873,4.22,2.0,,84.115,85.87,
2025-08-15T04:47:36.739Z,5,GR86-021-86,-32.2,-0.987,-0.972,3.84,2.0,5646.0,77.37,78.48,
2025-08-15T04:47:36.782Z,5,GR86-021-86,-34.7,-1.176,-0.589,3.37,2.0,,74.18,75.84,131.92000000000002
2025-08-15T04:47:36.824Z,5,GR86-021-86,-37.0,-1.006,-0.931,3.09,2.0,,71.4,72.545,
2025-08-15T04:47:36.870Z,5,GR86-021-86,-37.7,-1.114,-0.898,2.84,2.0,,61.3,62.275,
2025-08-15T04:47:36.912Z,5,GR86-021-86,-35.0,-0.861,-1.163,2.77,2.0,,56.31,57.44,
2025-08-15T04:47:36.956Z,5,GR86-021-86,-30.3,-0.88,-1.147,2.71,2.0,5944.0,54.645,55.805,
2025-08-15T04:47:36.999Z,5,GR86-021-86,-24.4,-0.844,-1.058,2.67,2.0,,53.545,54.555,124.61
2025-08-15T04:47:37.042Z,5,GR86-021-86,-19.1,-0.849,-1.082,2.65,2.0,,48.42,48.925,
2025-08-15T04:47:37.086Z,5,GR86-021-86,-11.0,-0.771,-1.096,2.61,2.0,,40.62,41.185,
2025-08-15T04:47:37.129Z,5,GR86-021-86,3.5,-0.655,-1.278,2.58,2.0,,32.015,32.505,
2025-08-15T04:47:37.172Z,5,GR86-021-86,16.1,-0.5710000000000001,-1.25,2.58,2.0,6117.0,29.835,30.675,
2025-08-15T04:47:37.216Z,5,GR86-021-86,26.8,-0.579,-1.149,2.58,2.0,,29.895,30.64,117.76
2025-08-15T04:47:37.260Z,5,GR86-021-86,30.6,-0.599,-1.12,2.58,2.0,,31.74,32.535000000000004,
2025-08-15T04:47:37.302Z,5,GR86-021-86,28.1,-0.7010000000000001,-1.168,2.58,2.0,,34.15,34.745,
2025-08-15T04:47:37.346Z,5,GR86-021-86,22.6,-0.65,-1.276,2.57,2.0,,35.375,36.03,
2025-08-15T04:47:37.389Z,5,GR86-021-86,24.3,-0.561,-1.291,2.5500000000000003,2.0,5823.0,29.71,30.305,
2025-08-15T04:47:37.432Z,5,GR86-021-86,38.900000000000006,-0.493,-1.229,2.52,2.0,,27.15,28.095,113.03
2025-08-15T04:47:37.476Z,5,GR86-021-86,59.0,-0.528,-1.173,2.52,2.0,,25.515,26.355,
2025-08-15T04:47:37.519Z,5,GR86-021-86,72.9,-0.52,-1.122,2.52,2.0,,25.955,26.66,
2025-08-15T04:47:37.562Z,5,GR86-021-86,79.30000000000001,-0.591,-1.072,2.52,2.0,,26.17,26.57,
2025-08-15T04:47:37.606Z,5,GR86-021-86,78.80000000000001,-0.487,-1.067,2.52,2.0,5632.0,25.545,26.2,
2025-08-15T04:47:37.650Z,5,GR86-021-86,77.60000000000001,-0.501,-1.083,2.52,2.0,,24.645,25.36,108.62
2025-08-15T04:47:37.692Z,5,GR86-021-86,78.9,-0.556,-1.055,2.52,2.0,,24.83,25.835,
2025-08-15T04:47:37.736Z,5,GR86-021-86,75.3,-0.595,-0.979,2.53,2.0,,24.17,24.795,
2025-08-15T04:47:37.782Z,5,GR86-021-86,61.7,-0.631,-1.012,2.5500000000000003,2.0,,20.295,20.725,
2025-08-15T04:47:37.824Z,5,GR86-021-86,42.2,-0.411,-1.142,2.56,2.0,5407.0,10.955,11.58,
2025-08-15T04:47:37.870Z,5,GR86-021-86,2.0,-0.229,-1.244,2.52,2.0,,0.0,0.0,100.21
2025-08-15T04:47:37.912Z,5,GR86-021-86,-27.4,-0.24,-1.26,2.49,2.0,,0.0,0.0,
2025-08-15T04:47:37.956Z,5,GR86-021-86,-52.400000000000006,-0.221,-1.313,18.29,2.0,,0.0,0.0,
2025-08-15T04:47:37.999Z,5,GR86-021-86,-66.5,-0.219,-1.32,31.76,2.0,,0.0,0.0,
2025-08-15T04:47:38.086Z,5,GR86-021-86,-70.9,-0.247,-1.344,47.75,2.0,5174.0,0.0,0.0,96.68
2025-08-15T04:47:38.129Z,5,GR86-021-86,-68.60000000000001,-0.141,-1.182,60.53,2.0,,0.0,0.0,
2025-08-15T04:47:38.172Z,5,GR86-021-86,-72.3,0.154,-1.076,58.21,2.0,,0.0,0.0,
2025-08-15T04:47:38.215Z,5,GR86-021-86,-78.10000000000001,0.394,-0.983,55.44,2.0,,0.0,0.0,
2025-08-15T04:47:38.302Z,5,GR86-021-86,-92.1,0.308,-1.006,54.88,2.0,5306.0,0.0,0.0,94.9
2025-08-15T04:47:38.346Z,5,GR86-021-86,-94.2,0.116,-1.065,58.41,2.0,,0.0,0.0,
2025-08-15T04:47:38.389Z,5,GR86-021-86,-91.3,0.091,-1.103,75.23,2.0,,0.0,0.0,
2025-08-15T04:47:38.562Z,5,GR86-021-86,-77.60000000000001,0.239,-1.08,99.96,2.0,5717.0,0.0,0.0,96.82
2025-08-15T04:47:38.606Z,5,GR86-021-86,-64.4,0.214,-1.07,100.0,2.0,,0.0,0.0,
2025-08-15T04:47:38.650Z,5,GR86-021-86,-59.400000000000006,0.19,-1.12,100.0,2.0,,0.0,0.0,
2025-08-15T04:47:38.692Z,5,GR86-021-86,-59.8,0.188,-1.141,99.99,2.0,5787.0,0.0,0.0,
2025-08-15T04:47:38.781Z,5,GR86-021-86,-62.2,0.218,-1.15,100.0,2.0,,0.0,0.0,98.72
2025-08-15T04:47:38.824Z,5,GR86-021-86,-60.3,0.235,-1.146,99.99,2.0,,0.0,0.0,
2025-08-15T04:47:38.870Z,5,GR86-021-86,-54.7,0.219,-1.163,99.99,2.0,,0.0,0.0,
2025-08-15T04:47:38.912Z,5,GR86-021-86,-50.900000000000006,0.198,-1.187,99.99,2.0,5890.0,0.0,0.0,
2025-08-15T04:47:38.956Z,5,GR86-021-86,-47.900000000000006,0.225,-1.173,99.99,2.0,,0.0,0.0,100.08
2025-08-15T04:47:38.999Z,5,GR86-021-86,-47.2,0.238,-1.173,99.99,2.0,,0.0,0.0,
2025-08-15T04:47:39.042Z,5,GR86-021-86,-48.900000000000006,0.239,-1.118,100.0,2.0,,0.0,0.0,
2025-08-15T04:47:39.086Z,5,GR86-021-86,-51.8,0.252,-1.126,99.99,2.0,,0.0,0.0,
2025-08-15T04:47:39.130Z,5,GR86-021-86,-53.7,0.233,-1.1,99.99,2.0,5951.0,0.0,0.0,
2025-08-15T04:47:39.172Z,5,GR86-021-86,-51.8,0.21,-1.069,99.99,2.0,,0.0,0.0,101.35
2025-08-15T04:47:39.215Z,5,GR86-021-86,-49.900000000000006,0.238,-1.042,99.99,2.0,,0.0,0.0,
2025-08-15T04:47:39.260Z,5,GR86-021-86,-49.7,0.229,-1.045,99.99,2.0,,0.0,0.0,
2025-08-15T04:47:39.302Z,5,GR86-021-86,-49.900000000000006,0.25,-1.02,100.0,2.0,,0.0,0.0,
2025-08-15T04:47:39.346Z,5,GR86-021-86,-50.2,0.222,-1.016,100.0,2.0,6016.0,0.0,0.0,
2025-08-15T04:47:39.389Z,5,GR86-021-86,-49.1,0.215,-0.938,99.99,2.0,,0.0,0.0,102.52
2025-08-15T04:47:39.432Z,5,GR86-021-86,-46.400000000000006,0.242,-0.94,99.99,2.0,,0.0,0.0,
2025-08-15T04:47:39.475Z,5,GR86-021-86,-44.0,0.238,-0.905,99.99,2.0,,0.0,0.0,
2025-08-15T04:47:39.520Z,5,GR86-021-86,-43.7,0.229,-0.897,100.0,2.0,,0.0,0.0,
2025-08-15T04:47:39.563Z,5,GR86-021-86,-45.8,0.232,-0.892,100.0,2.0,6078.0,0.0,0.0,
2025-08-15T04:47:39.606Z,5,GR86-021-86,-49.2,0.229,-0.879,100.01,2.0,,0.0,0.0,104.14
2025-08-15T04:47:39.650Z,5,GR86-021-86,-55.400000000000006,0.227,-0.926,100.0,2.0,,0.0,0.0,
2025-08-15T04:47:39.692Z,5,GR86-021-86,-58.1,0.211,-0.949,100.0,2.0,,0.0,0.0,
2025-08-15T04:47:39.736Z,5,GR86-021-86,-58.900000000000006,0.202,-0.976,100.0,2.0,,0.0,0.0,
2025-08-15T04:47:39.781Z,5,GR86-021-86,-58.6,0.221,-0.958,99.99,2.0,6151.0,0.0,0.0,
2025-08-15T04:47:39.823Z,5,GR86-021-86,-58.3,0.22,-0.905,99.99,2.0,,0.0,0.0,104.99
2025-08-15T04:47:39.866Z,5,GR86-021-86,-58.900000000000006,0.211,-0.933,100.0,2.0,,0.0,0.0,
2025-08-15T04:47:39.910Z,5,GR86-021-86,-61.7,0.188,-0.977,99.99,2.0,,0.0,0.0,
2025-08-15T04:47:39.952Z,5,GR86-021-86,-64.0,0.192,-1.035,100.0,2.0,,0.0,0.0,
2025-08-15T04:47:39.996Z,5,GR86-021-86,-65.60000000000001,0.19,-1.009,100.0,2.0,6249.0,0.0,0.0,
2025-08-15T04:47:40.039Z,5,GR86-021-86,-65.8,0.222,-1.068,100.01,2.0,,0.0,0.0,106.65
2025-08-15T04:47:40.082Z,5,GR86-021-86,-64.60000000000001,0.183,-1.07,100.0,2.0,,0.0,0.0,
2025-08-15T04:47:40.125Z,5,GR86-021-86,-62.3,0.187,-1.138,99.99,2.0,,0.0,0.0,
2025-08-15T04:47:40.170Z,5,GR86-021-86,-55.900000000000006,0.202,-1.18,99.98,2.0,,0.0,0.0,
2025-08-15T04:47:40.212Z,5,GR86-021-86,-49.8,0.201,-1.128,100.0,2.0,6386.0,0.0,0.0,
2025-08-15T04:47:40.256Z,5,GR86-021-86,-44.8,0.211,-1.134,100.0,2.0,,0.0,0.0,108.26
2025-08-15T04:47:40.300Z,5,GR86-021-86,-43.5,0.251,-1.14,100.0,2.0,,0.0,0.0,
2025-08-15T04:47:40.342Z,5,GR86-021-86,-44.900000000000006,0.246,-1.11,100.0,2.0,,0.0,0.0,
2025-08-15T04:47:40.386Z,5,GR86-021-86,-46.5,0.188,-1.16,100.0,2.0,,0.0,0.0,
2025-08-15T04:47:40.429Z,5,GR86-021-86,-45.400000000000006,0.212,-1.207,99.99,2.0,6528.0,0.0,0.0,
2025-08-15T04:47:40.472Z,5,GR86-021-86,-41.6,0.246,-1.213,100.01,2.0,,0.0,0.0,111.9
2025-08-15T04:47:40.515Z,5,GR86-021-86,-37.2,0.25,-1.188,100.0,2.0,,0.0,0.0,
2025-08-15T04:47:40.559Z,5,GR86-021-86,-34.800000000000004,0.241,-1.14,99.99,2.0,,0.0,0.0,
2025-08-15T04:47:40.602Z,5,GR86-021-86,-36.0,0.259,-1.114,100.0,2.0,,0.0,0.0,
2025-08-15T04:47:40.646Z,5,GR86-021-86,-39.2,0.226,-1.062,100.0,2.0,6611.0,0.0,0.0,
2025-08-15T04:47:40.689Z,5,GR86-021-86,-43.1,0.199,-1.087,100.0,2.0,,0.0,0.0,113.23
2025-08-15T04:47:40.732Z,5,GR86-021-86,-44.3,0.222,-1.058,99.99,2.0,,0.0,0.0,
2025-08-15T04:47:40.775Z,5,GR86-021-86,-44.400000000000006,0.278,-1.064,99.99,2.0,,0.0,0.0,
2025-08-15T04:47:40.819Z,5,GR86-021-86,-44.0,0.256,-0.999,100.0,2.0,,0.0,0.0,
2025-08-15T04:47:40.863Z,5,GR86-021-86,-43.400000000000006,0.286,-0.898,100.0,2.0,6610.0,0.0,0.0,
2025-08-15T04:47:40.906Z,5,GR86-021-86,-43.0,0.405,-0.738,100.0,2.0,,0.0,0.0,113.68
2025-08-15T04:47:40.950Z,5,GR86-021-86,-42.5,0.288,-0.648,99.98,2.0,,0.0,0.0,
2025-08-15T04:47:40.992Z,5,GR86-021-86,-42.1,0.257,-0.733,99.99,2.0,,0.0,0.0,
2025-08-15T04:47:41.036Z,5,GR86-021-86,-40.900000000000006,0.264,-0.739,100.0,2.0,,0.0,0.0,
2025-08-15T04:47:41.081Z,5,GR86-021-86,-38.2,0.24,-0.811,100.0,2.0,6783.0,0.0,0.0,
2025-08-15T04:47:41.124Z,5,GR86-021-86,-34.9,0.243,-0.749,99.99,2.0,,0.0,0.0,115.05
2025-08-15T04:47:41.166Z,5,GR86-021-86,-31.5,0.247,-0.8300000000000001,99.98,2.0,,0.0,0.0,
2025-08-15T04:47:41.210Z,5,GR86-021-86,-27.6,0.237,-0.787,99.99,2.0,,0.0,0.0,
2025-08-15T04:47:41.252Z,5,GR86-021-86,-26.0,0.223,-0.785,99.98,2.0,,0.0,0.0,
2025-08-15T04:47:41.296Z,5,GR86-021-86,-25.6,0.254,-0.797,100.0,2.0,6843.0,0.0,0.0,
2025-08-15T04:47:41.339Z,5,GR86-021-86,-26.6,0.262,-0.6930000000000001,100.0,2.0,,0.0,0.0,116.61
2025-08-15T04:47:41.382Z,5,GR86-021-86,-26.0,0.257,-0.731,100.0,2.0,,0.0,0.0,
2025-08-15T04:47:41.426Z,5,GR86-021-86,-25.0,0.237,-0.608,99.99,2.0,,0.0,0.0,
2025-08-15T04:47:41.470Z,5,GR86-021-86,-20.5,0.242,-0.623,99.99,2.0,,0.0,0.0,
2025-08-15T04:47:41.512Z,5,GR86-021-86,-19.0,0.275,-0.533,99.99,2.0,6908.0,0.0,0.0,
2025-08-15T04:47:41.556Z,5,GR86-021-86,-17.900000000000002,0.235,-0.52,100.0,2.0,,0.0,0.0,118.38
2025-08-15T04:47:41.600Z,5,GR86-021-86,-17.900000000000002,0.233,-0.463,99.99,2.0,,0.0,0.0,
2025-08-15T04:47:41.642Z,5,GR86-021-86,-17.900000000000002,0.255,-0.469,99.99,2.0,,0.0,0.0,
2025-08-15T04:47:41.686Z,5,GR86-021-86,-18.4,0.211,-0.298,100.0,2.0,,0.0,0.0,
2025-08-15T04:47:41.729Z,5,GR86-021-86,-17.400000000000002,0.204,-0.356,100.0,2.0,6978.0,0.0,0.0,
2025-08-15T04:47:41.772Z,5,GR86-021-86,-15.0,0.236,-0.357,100.0,2.0,,0.0,0.0,120.19
2025-08-15T04:47:41.815Z,5,GR86-021-86,-13.0,0.294,-0.432,100.0,2.0,,0.0,0.0,
2025-08-15T04:47:41.860Z,5,GR86-021-86,-11.9,0.079,-0.308,99.98,3.0,,0.0,0.0,
2025-08-15T04:47:41.902Z,5,GR86-021-86,-12.3,0.127,-0.251,100.0,3.0,,0.0,0.0,
2025-08-15T04:47:41.946Z,5,GR86-021-86,-11.8,0.319,-0.219,99.99,3.0,6788.0,0.0,0.0,
2025-08-15T04:47:41.989Z,5,GR86-021-86,-9.3,0.481,-0.182,99.99,3.0,,0.0,0.0,121.91
2025-08-15T04:47:42.032Z,5,GR86-021-86,-7.5,0.253,-0.218,100.01,3.0,,0.0,0.0,
2025-08-15T04:47:42.076Z,5,GR86-021-86,-7.5,0.118,-0.233,99.99,3.0,,0.0,0.0,
2025-08-15T04:47:42.120Z,5,GR86-021-86,-7.7,0.082,-0.143,100.0,3.0,,0.0,0.0,
2025-08-15T04:47:42.162Z,5,GR86-021-86,-7.7,0.234,-0.112,100.0,3.0,5702.0,0.0,0.0,
2025-08-15T04:47:42.206Z,5,GR86-021-86,-6.300000000000001,0.298,-0.188,99.99,3.0,,0.0,0.0,123.37
2025-08-15T04:47:42.250Z,5,GR86-021-86,-3.9,0.177,0.013,100.0,3.0,,0.0,0.0,
2025-08-15T04:47:42.292Z,5,GR86-021-86,-3.3000000000000003,0.095,-0.149,100.0,3.0,,0.0,0.0,
2025-08-15T04:47:42.335Z,5,GR86-021-86,-3.6,0.194,0.053,100.0,3.0,,0.0,0.0,
2025-08-15T04:47:42.424Z,5,GR86-021-86,-1.5,0.207,-0.036,100.0,3.0,,0.0,0.0,125.31
2025-08-15T04:47:42.470Z,5,GR86-021-86,1.0,0.204,-0.038,99.99,3.0,5843.0,0.0,0.0,
2025-08-15T04:47:42.512Z,5,GR86-021-86,1.0,0.191,-0.033,99.99,3.0,,0.0,0.0,
2025-08-15T04:47:42.556Z,5,GR86-021-86,1.1,0.197,0.008,99.99,3.0,,0.0,0.0,
2025-08-15T04:47:42.600Z,5,GR86-021-86,1.4,0.218,0.039,100.0,3.0,5951.0,0.0,0.0,
2025-08-15T04:47:42.642Z,5,GR86-021-86,1.6,0.196,0.048,100.0,3.0,,0.0,0.0,126.62
2025-08-15T04:47:42.686Z,5,GR86-021-86,1.6,0.2,0.056,99.99,3.0,,0.0,0.0,
2025-08-15T04:47:42.730Z,5,GR86-021-86,1.7000000000000002,0.203,0.046,100.0,3.0,,0.0,0.0,
2025-08-15T04:47:42.772Z,5,GR86-021-86,0.9,0.198,0.069,100.0,3.0,,0.0,0.0,
2025-08-15T04:47:42.815Z,5,GR86-021-86,0.4,0.2,0.062,100.01,3.0,6010.0,0.0,0.0,
2025-08-15T04:47:42.860Z,5,GR86-021-86,-0.2,0.208,0.049,100.0,3.0,,0.0,0.0,128.31
2025-08-15T04:47:42.902Z,5,GR86-021-86,-0.6000000000000001,0.198,0.049,99.99,3.0,,0.0,0.0,
2025-08-15T04:47:42.946Z,5,GR86-021-86,-0.7000000000000001,0.212,0.032,100.0,3.0,,0.0,0.0,
2025-08-15T04:47:42.989Z,5,GR86-021-86,-0.8,0.207,0.02,100.0,3.0,,0.0,0.0,
2025-08-15T04:47:43.032Z,5,GR86-021-86,-0.8,0.187,0.029,100.01,3.0,6082.0,0.0,0.0,
2025-08-15T04:47:43.075Z,5,GR86-021-86,-0.9,0.193,0.012,100.0,3.0,,0.0,0.0,131.02
2025-08-15T04:47:43.120Z,5,GR86-021-86,-0.8,0.192,0.022,99.97,3.0,,0.0,0.0,
2025-08-15T04:47:43.162Z,5,GR86-021-86,-0.4,0.213,0.016,99.99,3.0,,0.0,0.0,
2025-08-15T04:47:43.206Z,5,GR86-021-86,-0.2,0.193,0.006,100.0,3.0,,0.0,0.0,
2025-08-15T04:47:43.250Z,5,GR86-021-86,-0.1,0.199,0.008,100.0,3.0,6141.0,0.0,0.0,
2025-08-15T04:47:43.292Z,5,GR86-021-86,0.2,0.186,-0.002,100.0,3.0,,0.0,0.0,132.44
2025-08-15T04:47:43.336Z,5,GR86-021-86,0.4,0.186,0.0,100.0,3.0,,0.0,0.0,
2025-08-15T04:47:43.381Z,5,GR86-021-86,0.5,0.198,0.015,99.99,3.0,,0.0,0.0,
2025-08-15T04:47:43.424Z,5,GR86-021-86,0.6000000000000001,0.204,0.01,99.99,3.0,,0.0,0.0,
2025-08-15T04:47:43.466Z,5,GR86-021-86,0.6000000000000001,0.192,0.019,100.01,3.0,6200.0,0.0,0.0,
2025-08-15T04:47:43.510Z,5,GR86-021-86,0.4,0.186,0.027,100.0,3.0,,0.0,0.0,133.82
2025-08-15T04:47:43.552Z,5,GR86-021-86,0.1,0.179,0.028,100.01,3.0,,0.0,0.0,
2025-08-15T04:47:43.596Z,5,GR86-021-86,-0.2,0.199,0.039,99.99,3.0,,0.0,0.0,
2025-08-15T04:47:43.639Z,5,GR86-021-86,-0.3,0.202,0.02,99.99,3.0,,0.0,0.0,
2025-08-15T04:47:43.682Z,5,GR86-021-86,-0.4,0.193,0.01,100.0,3.0,6331.0,0.0,0.0,
2025-08-15T04:47:43.725Z,5,GR86-021-86,-0.6000000000000001,0.173,0.014,100.0,3.0,,0.0,0.0,135.11
2025-08-15T04:47:43.770Z,5,GR86-021-86,-1.0,0.176,0.005,99.98,3.0,,0.0,0.0,
2025-08-15T04:47:43.812Z,5,GR86-021-86,-1.1,0.192,0.004,100.01,3.0,,0.0,0.0,
2025-08-15T04:47:43.856Z,5,GR86-021-86,-1.1,0.196,0.001,100.0,3.0,,0.0,0.0,
2025-08-15T04:47:43.899Z,5,GR86-021-86,-1.1,0.192,-0.003,100.0,3.0,6387.0,0.0,0.0,
2025-08-15T04:47:43.942Z,5,GR86-021-86,-0.8,0.178,-0.01,100.0,3.0,,0.0,0.0,136.39
2025-08-15T04:47:43.986Z,5,GR86-021-86,-0.8,0.185,-0.013,100.0,3.0,,0.0,0.0,
2025-08-15T04:47:44.030Z,5,GR86-021-86,-0.9,0.168,-0.018,100.0,3.0,,0.0,0.0,
2025-08-15T04:47:44.072Z,5,GR86-021-86,-0.9,0.17,0.006,99.99,3.0,,0.0,0.0,
2025-08-15T04:47:44.115Z,5,GR86-021-86,-0.5,0.204,-0.015,99.99,3.0,6441.0,0.0,0.0,
2025-08-15T04:47:44.159Z,5,GR86-021-86,-0.1,0.193,-0.012,100.0,3.0,,0.0,0.0,137.76
2025-08-15T04:47:44.202Z,5,GR86-021-86,-0.1,0.17,0.001,100.0,3.0,,0.0,0.0,
2025-08-15T04:47:44.246Z,5,GR86-021-86,-0.2,0.179,-0.002,100.0,3.0,,0.0,0.0,
2025-08-15T04:47:44.289Z,5,GR86-021-86,-0.2,0.178,0.002,99.99,3.0,,0.0,0.0,
2025-08-15T04:47:44.332Z,5,GR86-021-86,-0.3,0.189,0.016,99.99,3.0,6499.0,0.0,0.0,
2025-08-15T04:47:44.375Z,5,GR86-021-86,-0.2,0.199,-0.002,100.01,3.0,,0.0,0.0,139.05
2025-08-15T04:47:44.420Z,5,GR86-021-86,0.2,0.187,0.003,99.99,3.0,,0.0,0.0,
2025-08-15T04:47:44.463Z,5,GR86-021-86,0.2,0.169,0.013,100.0,3.0,,0.0,0.0,
2025-08-15T04:47:44.506Z,5,GR86-021-86,0.3,0.179,0.026,99.99,3.0,,0.0,0.0,
2025-08-15T04:47:44.550Z,5,GR86-021-86,0.3,0.17,0.032,100.0,3.0,6564.0,0.0,0.0,
2025-08-15T04:47:44.592Z,5,GR86-021-86,0.4,0.179,0.037,99.99,3.0,,0.0,0.0,140.38
2025-08-15T04:47:44.636Z,5,GR86-021-86,0.5,0.198,0.041,100.0,3.0,,0.0,0.0,
2025-08-15T04:47:44.681Z,5,GR86-021-86,0.5,0.191,0.031,100.0,3.0,,0.0,0.0,
2025-08-15T04:47:44.723Z,5,GR86-021-86,0.6000000000000001,0.172,0.048,99.99,3.0,,0.0,0.0,
2025-08-15T04:47:44.766Z,5,GR86-021-86,0.7000000000000001,0.166,0.056,100.0,3.0,6622.0,0.0,0.0,
2025-08-15T04:47:44.810Z,5,GR86-021-86,0.7000000000000001,0.173,0.046,99.99,3.0,,0.0,0.0,141.6
2025-08-15T04:47:44.852Z,5,GR86-021-86,0.8,0.183,0.039,100.0,3.0,,0.0,0.0,
2025-08-15T04:47:44.896Z,5,GR86-021-86,0.8,0.188,0.054,99.99,3.0,,0.0,0.0,
2025-08-15T04:47:44.939Z,5,GR86-021-86,0.8,0.197,0.047,100.0,3.0,,0.0,0.0,
2025-08-15T04:47:44.982Z,5,GR86-021-86,0.9,0.179,0.033,99.99,3.0,6674.0,0.0,0.0,
2025-08-15T04:47:45.026Z,5,GR86-021-86,0.9,0.162,0.054,100.01,3.0,,0.0,0.0,142.82
2025-08-15T04:47:45.070Z,5,GR86-021-86,0.9,0.176,0.047,100.0,3.0,,0.0,0.0,
2025-08-15T04:47:45.112Z,5,GR86-021-86,0.9,0.164,0.06,100.0,3.0,,0.0,0.0,
2025-08-15T04:47:45.156Z,5,GR86-021-86,0.9,0.164,0.062,99.99,3.0,,0.0,0.0,
2025-08-15T04:47:45.200Z,5,GR86-021-86,1.0,0.183,0.06,99.99,3.0,6733.0,0.0,0.0,
2025-08-15T04:47:45.242Z,5,GR86-021-86,1.1,0.178,0.053,100.0,3.0,,0.0,0.0,144.02
2025-08-15T04:47:45.286Z,5,GR86-021-86,1.1,0.17,0.051,99.99,3.0,,0.0,0.0,
2025-08-15T04:47:45.329Z,5,GR86-021-86,0.8,0.18,0.051,100.0,3.0,,0.0,0.0,
2025-08-15T04:47:45.415Z,5,GR86-021-86,0.1,0.154,0.065,100.0,3.0,6785.0,0.0,0.0,
2025-08-15T04:47:45.460Z,5,GR86-021-86,0.5,0.17,0.06,100.0,3.0,,0.0,0.0,145.19
2025-08-15T04:47:45.502Z,5,GR86-021-86,-1.1,0.178,0.054,99.99,3.0,,0.0,0.0,
2025-08-15T04:47:45.546Z,5,GR86-021-86,-1.6,0.176,0.04,100.0,3.0,,0.0,0.0,
2025-08-15T04:47:45.589Z,5,GR86-021-86,-2.1,0.174,0.032,100.01,3.0,,0.0,0.0,
2025-08-15T04:47:45.720Z,5,GR86-021-86,-2.4000000000000004,0.175,0.001,100.0,3.0,6835.0,0.0,0.0,147.41
2025-08-15T04:47:45.762Z,5,GR86-021-86,-2.6,0.166,-0.003,100.0,3.0,,0.0,0.0,
2025-08-15T04:47:45.806Z,5,GR86-021-86,-2.6,0.169,-0.006,100.0,3.0,,0.0,0.0,
2025-08-15T04:47:45.892Z,5,GR86-021-86,-2.8000000000000003,0.152,-0.021,100.0,3.0,6886.0,0.0,0.0,148.53
2025-08-15T04:47:45.935Z,5,GR86-021-86,-2.8000000000000003,0.188,-0.028,100.0,3.0,,0.0,0.0,
2025-08-15T04:47:45.982Z,5,GR86-021-86,-3.0,0.181,-0.04,99.99,3.0,,0.0,0.0,
2025-08-15T04:47:46.024Z,5,GR86-021-86,-3.1,0.177,-0.043,100.0,3.0,,0.0,0.0,
2025-08-15T04:47:46.070Z,5,GR86-021-86,-3.4000000000000004,0.18,-0.028,100.0,3.0,6989.0,0.0,0.0,
2025-08-15T04:47:46.112Z,5,GR86-021-86,-3.6,0.17,-0.047,100.0,3.0,,0.0,0.0,149.66
2025-08-15T04:47:46.156Z,5,GR86-021-86,-3.6,0.161,-0.053,100.0,3.0,,0.0,0.0,
2025-08-15T04:47:46.199Z,5,GR86-021-86,-3.6,0.156,-0.056,99.99,3.0,,0.0,0.0,
2025-08-15T04:47:46.242Z,5,GR86-021-86,-3.6,0.158,-0.039,100.0,3.0,,0.0,0.0,
2025-08-15T04:47:46.286Z,5,GR86-021-86,-3.6,0.178,-0.033,100.02,3.0,7043.0,0.0,0.0,
2025-08-15T04:47:46.330Z,5,GR86-021-86,-3.6,0.156,-0.04,100.0,3.0,,0.0,0.0,150.76
2025-08-15T04:47:46.373Z,5,GR86-021-86,-3.6,0.157,-0.038,100.0,3.0,,0.0,0.0,
2025-08-15T04:47:46.416Z,5,GR86-021-86,-3.4000000000000004,0.173,-0.058,100.0,3.0,,0.0,0.0,
2025-08-15T04:47:46.460Z,5,GR86-021-86,-3.4000000000000004,0.164,-0.055,100.0,3.0,,0.0,0.0,
2025-08-15T04:47:46.502Z,5,GR86-021-86,-3.4000000000000004,0.166,-0.062,100.0,3.0,7101.0,0.0,0.0,
2025-08-15T04:47:46.546Z,5,GR86-021-86,-3.4000000000000004,0.155,-0.068,100.0,3.0,,0.0,0.0,151.87
2025-08-15T04:47:46.589Z,5,GR86-021-86,-3.4000000000000004,0.159,-0.066,99.99,3.0,,0.0,0.0,
2025-08-15T04:47:46.632Z,5,GR86-021-86,-3.3000000000000003,0.165,-0.07,100.02,3.0,,0.0,0.0,
2025-08-15T04:47:46.675Z,5,GR86-021-86,-3.3000000000000003,0.154,-0.061,99.99,3.0,,0.0,0.0,
2025-08-15T04:47:46.720Z,5,GR86-021-86,-3.2,0.161,-0.056,100.0,3.0,7152.0,0.0,0.0,
2025-08-15T04:47:46.763Z,5,GR86-021-86,-3.2,0.158,-0.042,99.99,3.0,,0.0,0.0,152.96
2025-08-15T04:47:46.806Z,5,GR86-021-86,-3.1,0.166,-0.057,100.01,3.0,,0.0,0.0,
2025-08-15T04:47:46.850Z,5,GR86-021-86,-2.6,0.159,-0.038,100.0,3.0,,0.0,0.0,
2025-08-15T04:47:46.892Z,5,GR86-021-86,-2.4000000000000004,0.16,-0.038,100.01,3.0,,0.0,0.0,
2025-08-15T04:47:46.936Z,5,GR86-021-86,-2.4000000000000004,0.16,-0.048,99.98,3.0,7195.0,0.0,0.0,
2025-08-15T04:47:46.982Z,5,GR86-021-86,-2.4000000000000004,0.164,-0.058,99.99,3.0,,0.0,0.0,154.04
2025-08-15T04:47:47.024Z,5,GR86-021-86,-2.5,0.157,-0.056,99.99,3.0,,0.0,0.0,
2025-08-15T04:47:47.070Z,5,GR86-021-86,-2.5,0.162,-0.043,99.99,3.0,,0.0,0.0,
2025-08-15T04:47:47.112Z,5,GR86-021-86,-2.5,0.146,-0.027,99.99,3.0,,0.0,0.0,
2025-08-15T04:47:47.156Z,5,GR86-021-86,-2.3000000000000003,0.164,-0.038,100.0,3.0,7239.0,0.0,0.0,
2025-08-15T04:47:47.200Z,5,GR86-021-86,-2.0,0.164,-0.026,100.01,3.0,,0.0,0.0,155.16
2025-08-15T04:47:47.242Z,5,GR86-021-86,-1.6,0.154,-0.032,99.98,3.0,,0.0,0.0,
2025-08-15T04:47:47.286Z,5,GR86-021-86,-1.3,0.089,-0.037,99.98,4.0,,0.0,0.0,
2025-08-15T04:47:47.330Z,5,GR86-021-86,-1.3,0.079,-0.006,100.01,4.0,,0.0,0.0,
2025-08-15T04:47:47.372Z,5,GR86-021-86,-0.7000000000000001,0.34,-0.064,100.0,4.0,7293.0,0.0,0.0,
2025-08-15T04:47:47.415Z,5,GR86-021-86,-0.8,0.341,-0.04,99.99,4.0,,0.0,0.0,156.27
2025-08-15T04:47:47.460Z,5,GR86-021-86,-1.3,0.155,0.048,99.99,4.0,,0.0,0.0,
2025-08-15T04:47:47.502Z,5,GR86-021-86,-1.3,0.025,-0.062,100.0,4.0,,0.0,0.0,
2025-08-15T04:47:47.546Z,5,GR86-021-86,-1.1,0.102,0.005,100.0,4.0,,0.0,0.0,
2025-08-15T04:47:47.589Z,5,GR86-021-86,-1.0,0.213,0.009,100.01,4.0,6101.0,0.0,0.0,
2025-08-15T04:47:47.632Z,5,GR86-021-86,-1.3,0.123,0.011,100.0,4.0,,0.0,0.0,157.08
2025-08-15T04:47:47.675Z,5,GR86-021-86,-2.0,0.101,0.017,99.99,4.0,,0.0,0.0,
2025-08-15T04:47:47.719Z,5,GR86-021-86,-2.5,0.134,-0.006,99.99,4.0,,0.0,0.0,
2025-08-15T04:47:47.762Z,5,GR86-021-86,-2.9000000000000004,0.154,0.006,100.0,4.0,,0.0,0.0,
2025-08-15T04:47:47.806Z,5,GR86-021-86,-3.1,0.127,-0.004,100.01,4.0,6183.0,0.0,0.0,
2025-08-15T04:47:47.850Z,5,GR86-021-86,-3.2,0.122,-0.04,100.0,4.0,,0.0,0.0,158.23
2025-08-15T04:47:47.892Z,5,GR86-021-86,-3.2,0.141,-0.041,100.0,4.0,,0.0,0.0,
2025-08-15T04:47:47.936Z,5,GR86-021-86,-3.3000000000000003,0.132,-0.039,99.99,4.0,,0.0,0.0,
2025-08-15T04:47:47.981Z,5,GR86-021-86,-3.3000000000000003,0.123,-0.045,100.01,4.0,,0.0,0.0,
2025-08-15T04:47:48.023Z,5,GR86-021-86,-3.3000000000000003,0.137,-0.044,100.0,4.0,6257.0,0.0,0.0,
2025-08-15T04:47:48.066Z,5,GR86-021-86,-3.3000000000000003,0.135,-0.062,99.99,4.0,,0.0,0.0,159.13
2025-08-15T04:47:48.110Z,5,GR86-021-86,-3.3000000000000003,0.13,-0.079,100.0,4.0,,0.0,0.0,
2025-08-15T04:47:48.152Z,5,GR86-021-86,-4.1000000000000005,0.131,-0.068,99.99,4.0,,0.0,0.0,
2025-08-15T04:47:48.196Z,5,GR86-021-86,-5.1000000000000005,0.131,-0.07,100.02,4.0,,0.0,0.0,
2025-08-15T04:47:48.239Z,5,GR86-021-86,-5.7,0.144,-0.089,99.99,4.0,6291.0,0.0,0.0,
2025-08-15T04:47:48.282Z,5,GR86-021-86,-5.800000000000001,0.135,-0.107,99.99,4.0,,0.0,0.0,161.03
2025-08-15T04:47:48.326Z,5,GR86-021-86,-5.800000000000001,0.128,-0.108,99.98,4.0,,0.0,0.0,
2025-08-15T04:47:48.370Z,5,GR86-021-86,-5.7,0.137,-0.112,100.0,4.0,,0.0,0.0,
2025-08-15T04:47:48.413Z,5,GR86-021-86,-5.800000000000001,0.138,-0.13,99.99,4.0,,0.0,0.0,
2025-08-15T04:47:48.456Z,5,GR86-021-86,-5.800000000000001,0.136,-0.142,100.0,4.0,6330.0,0.0,0.0,
2025-08-15T04:47:48.500Z,5,GR86-021-86,-5.9,0.124,-0.161,100.0,4.0,,0.0,0.0,162.05
2025-08-15T04:47:48.542Z,5,GR86-021-86,-5.800000000000001,0.114,-0.169,100.0,4.0,,0.0,0.0,
2025-08-15T04:47:48.586Z,5,GR86-021-86,-5.7,0.13,-0.17,100.0,4.0,,0.0,0.0,
2025-08-15T04:47:48.629Z,5,GR86-021-86,-5.6000000000000005,0.132,-0.153,100.0,4.0,,0.0,0.0,
2025-08-15T04:47:48.672Z,5,GR86-021-86,-5.6000000000000005,0.125,-0.159,100.01,4.0,6405.0,0.0,0.0,
2025-08-15T04:47:48.715Z,5,GR86-021-86,-5.6000000000000005,0.122,-0.161,99.98,4.0,,0.0,0.0,163.03
2025-08-15T04:47:48.760Z,5,GR86-021-86,-5.6000000000000005,0.125,-0.145,99.99,4.0,,0.0,0.0,
2025-08-15T04:47:48.802Z,5,GR86-021-86,-5.6000000000000005,0.114,-0.141,100.0,4.0,,0.0,0.0,
2025-08-15T04:47:48.846Z,5,GR86-021-86,-5.6000000000000005,0.123,-0.121,100.0,4.0,,0.0,0.0,
2025-08-15T04:47:48.889Z,5,GR86-021-86,-5.5,0.135,-0.132,100.0,4.0,6440.0,0.0,0.0,
2025-08-15T04:47:48.932Z,5,GR86-021-86,-5.5,0.122,-0.126,100.0,4.0,,0.0,0.0,163.99
2025-08-15T04:47:48.976Z,5,GR86-021-86,-5.4,0.116,-0.139,99.99,4.0,,0.0,0.0,
2025-08-15T04:47:49.020Z,5,GR86-021-86,-5.4,0.113,-0.141,100.0,4.0,,0.0,0.0,
2025-08-15T04:47:49.063Z,5,GR86-021-86,-5.800000000000001,0.106,-0.125,99.99,4.0,,0.0,0.0,
2025-08-15T04:47:49.106Z,5,GR86-021-86,-6.0,0.122,-0.145,100.0,4.0,6479.0,0.0,0.0,
2025-08-15T04:47:49.150Z,5,GR86-021-86,-6.0,0.121,-0.179,99.97,4.0,,0.0,0.0,164.95000000000002
2025-08-15T04:47:49.192Z,5,GR86-021-86,-6.0,0.115,-0.18,100.0,4.0,,0.0,0.0,
2025-08-15T04:47:49.235Z,5,GR86-021-86,-6.1000000000000005,0.118,-0.175,100.0,4.0,,0.0,0.0,
2025-08-15T04:47:49.282Z,5,GR86-021-86,-6.2,0.123,-0.152,99.99,4.0,,0.0,0.0,
2025-08-15T04:47:49.325Z,5,GR86-021-86,-6.2,0.112,-0.145,100.01,4.0,6517.0,0.0,0.0,
2025-08-15T04:47:49.370Z,5,GR86-021-86,-6.2,0.124,-0.184,99.99,4.0,,0.0,0.0,165.9
2025-08-15T04:47:49.412Z,5,GR86-021-86,-6.1000000000000005,0.109,-0.169,100.0,4.0,,0.0,0.0,
2025-08-15T04:47:49.456Z,5,GR86-021-86,-6.1000000000000005,0.108,-0.17,100.0,4.0,,0.0,0.0,
2025-08-15T04:47:49.499Z,5,GR86-021-86,-6.0,0.117,-0.148,99.99,4.0,,0.0,0.0,
2025-08-15T04:47:49.542Z,5,GR86-021-86,-5.800000000000001,0.11,-0.159,100.0,4.0,6549.0,0.0,0.0,
2025-08-15T04:47:49.630Z,5,GR86-021-86,-5.7,0.121,-0.159,99.99,4.0,,0.0,0.0,166.85
2025-08-15T04:47:49.672Z,5,GR86-021-86,-5.800000000000001,0.109,-0.151,99.99,4.0,,0.0,0.0,
2025-08-15T04:47:49.716Z,5,GR86-021-86,-5.800000000000001,0.112,-0.145,100.01,4.0,,0.0,0.0,
2025-08-15T04:47:49.760Z,5,GR86-021-86,-5.800000000000001,0.111,-0.129,100.0,4.0,6583.0,0.0,0.0,
2025-08-15T04:47:49.802Z,5,GR86-021-86,-5.7,0.111,-0.123,99.98,4.0,,0.0,0.0,167.82
2025-08-15T04:47:49.846Z,5,GR86-021-86,-5.7,0.104,-0.11,99.99,4.0,,0.0,0.0,
2025-08-15T04:47:49.889Z,5,GR86-021-86,-5.7,0.122,-0.134,100.0,4.0,,0.0,0.0,
2025-08-15T04:47:49.932Z,5,GR86-021-86,-5.7,0.123,-0.128,100.0,4.0,,0.0,0.0,
2025-08-15T04:47:49.976Z,5,GR86-021-86,-5.7,0.101,-0.143,99.99,4.0,6621.0,0.0,0.0,
2025-08-15T04:47:50.020Z,5,GR86-021-86,-5.7,0.113,-0.142,99.99,4.0,,0.0,0.0,168.8
2025-08-15T04:47:50.063Z,5,GR86-021-86,-5.800000000000001,0.111,-0.151,99.98,4.0,,0.0,0.0,
2025-08-15T04:47:50.106Z,5,GR86-021-86,-5.800000000000001,0.107,-0.135,100.01,4.0,,0.0,0.0,
2025-08-15T04:47:50.150Z,5,GR86-021-86,-5.9,0.128,-0.184,99.97,4.0,,0.0,0.0,
2025-08-15T04:47:50.192Z,5,GR86-021-86,-5.9,0.115,-0.186,99.98,4.0,6658.0,0.0,0.0,
2025-08-15T04:47:50.236Z,5,GR86-021-86,-5.9,0.106,-0.19,99.99,4.0,,0.0,0.0,169.65
2025-08-15T04:47:50.281Z,5,GR86-021-86,-5.9,0.109,-0.182,100.0,4.0,,0.0,0.0,
2025-08-15T04:47:50.324Z,5,GR86-021-86,-5.800000000000001,0.109,-0.174,99.99,4.0,,0.0,0.0,
2025-08-15T04:47:50.366Z,5,GR86-021-86,-5.7,0.109,-0.162,99.99,4.0,,0.0,0.0,
2025-08-15T04:47:50.410Z,5,GR86-021-86,-5.6000000000000005,0.13,-0.161,99.99,4.0,6697.0,0.0,0.0,
2025-08-15T04:47:50.452Z,5,GR86-021-86,-5.5,0.126,-0.169,100.0,4.0,,0.0,0.0,170.46
2025-08-15T04:47:50.496Z,5,GR86-021-86,-5.5,0.124,-0.176,99.99,4.0,,0.0,0.0,
2025-08-15T04:47:50.539Z,5,GR86-021-86,-5.5,0.131,-0.177,100.0,4.0,,0.0,0.0,
2025-08-15T04:47:50.582Z,5,GR86-021-86,-5.6000000000000005,0.107,-0.18,99.99,4.0,,0.0,0.0,
2025-08-15T04:47:50.624Z,5,GR86-021-86,-5.7,0.124,-0.163,100.0,4.0,6729.0,0.0,0.0,
2025-08-15T04:47:50.670Z,5,GR86-021-86,-5.7,0.132,-0.161,99.99,4.0,,0.0,0.0,172.4
2025-08-15T04:47:50.712Z,5,GR86-021-86,-5.5,0.116,-0.175,100.0,4.0,,0.0,0.0,
2025-08-15T04:47:50.756Z,5,GR86-021-86,-5.5,0.139,-0.168,100.0,4.0,,0.0,0.0,
2025-08-15T04:47:50.800Z,5,GR86-021-86,-5.4,0.117,-0.142,99.98,4.0,,0.0,0.0,
2025-08-15T04:47:50.842Z,5,GR86-021-86,-5.4,0.131,-0.139,99.98,4.0,6767.0,0.0,0.0,
2025-08-15T04:47:50.886Z,5,GR86-021-86,-5.2,0.125,-0.143,99.99,4.0,,0.0,0.0,173.34
2025-08-15T04:47:50.930Z,5,GR86-021-86,-4.9,0.099,-0.141,99.99,4.0,,0.0,0.0,
2025-08-15T04:47:50.972Z,5,GR86-021-86,-4.9,0.118,-0.113,100.0,4.0,,0.0,0.0,
2025-08-15T04:47:51.015Z,5,GR86-021-86,-4.9,0.104,-0.112,100.0,4.0,,0.0,0.0,
2025-08-15T04:47:51.146Z,5,GR86-021-86,-4.7,0.125,-0.128,99.99,4.0,6803.0,0.0,0.0,174.09
2025-08-15T04:47:51.189Z,5,GR86-021-86,-4.6000000000000005,0.102,-0.135,100.0,4.0,,0.0,0.0,
2025-08-15T04:47:51.232Z,5,GR86-021-86,-4.6000000000000005,0.096,-0.113,100.0,4.0,,0.0,0.0,
2025-08-15T04:47:51.275Z,5,GR86-021-86,-4.4,0.092,-0.121,100.01,4.0,6869.0,0.0,0.0,
2025-08-15T04:47:51.319Z,5,GR86-021-86,-4.0,0.105,-0.11,100.0,4.0,,0.0,0.0,174.94
2025-08-15T04:47:51.362Z,5,GR86-021-86,-3.6,0.091,-0.099,99.98,4.0,,0.0,0.0,
2025-08-15T04:47:51.406Z,5,GR86-021-86,-3.4000000000000004,0.099,-0.096,99.98,4.0,,0.0,0.0,
2025-08-15T04:47:51.450Z,5,GR86-021-86,-3.4000000000000004,0.115,-0.098,99.99,4.0,,0.0,0.0,
2025-08-15T04:47:51.492Z,5,GR86-021-86,-3.6,0.11,-0.093,100.0,4.0,6898.0,0.0,0.0,
2025-08-15T04:47:51.536Z,5,GR86-021-86,-3.7,0.115,-0.09,100.0,4.0,,0.0,0.0,175.97
2025-08-15T04:47:51.582Z,5,GR86-021-86,-3.7,0.103,-0.071,99.99,4.0,,0.0,0.0,
2025-08-15T04:47:51.624Z,5,GR86-021-86,-3.7,0.112,-0.078,99.98,4.0,,0.0,0.0,
2025-08-15T04:47:51.670Z,5,GR86-021-86,-3.7,0.103,-0.07,100.0,4.0,,0.0,0.0,
2025-08-15T04:47:51.712Z,5,GR86-021-86,-3.7,0.106,-0.078,100.0,4.0,6933.0,0.0,0.0,
2025-08-15T04:47:51.756Z,5,GR86-021-86,-3.9,0.108,-0.088,99.97,4.0,,0.0,0.0,176.73
2025-08-15T04:47:51.800Z,5,GR86-021-86,-4.0,0.112,-0.078,100.0,4.0,,0.0,0.0,
2025-08-15T04:47:51.842Z,5,GR86-021-86,-4.1000000000000005,0.102,-0.084,100.0,4.0,,0.0,0.0,
2025-08-15T04:47:51.886Z,5,GR86-021-86,-4.1000000000000005,0.112,-0.093,99.99,4.0,,0.0,0.0,
2025-08-15T04:47:51.929Z,5,GR86-021-86,-4.1000000000000005,0.102,-0.095,99.99,4.0,6965.0,0.0,0.0,
2025-08-15T04:47:51.972Z,5,GR86-021-86,-4.2,0.102,-0.098,100.0,4.0,,0.0,0.0,177.61
2025-08-15T04:47:52.016Z,5,GR86-021-86,-4.2,0.084,-0.093,100.01,4.0,,0.0,0.0,
2025-08-15T04:47:52.060Z,5,GR86-021-86,-4.2,0.095,-0.119,99.99,4.0,,0.0,0.0,
2025-08-15T04:47:52.102Z,5,GR86-021-86,-4.3,0.102,-0.111,100.0,4.0,,0.0,0.0,
2025-08-15T04:47:52.146Z,5,GR86-021-86,-4.4,0.093,-0.113,100.0,4.0,7001.0,0.0,0.0,
2025-08-15T04:47:52.189Z,5,GR86-021-86,-4.4,0.108,-0.116,99.99,4.0,,0.0,0.0,178.38
2025-08-15T04:47:52.232Z,5,GR86-021-86,-4.1000000000000005,0.122,-0.116,99.99,4.0,,0.0,0.0,
2025-08-15T04:47:52.276Z,5,GR86-021-86,-4.0,0.11,-0.113,100.01,4.0,,0.0,0.0,
2025-08-15T04:47:52.320Z,5,GR86-021-86,-4.0,0.107,-0.122,99.99,4.0,,0.0,0.0,
2025-08-15T04:47:52.363Z,5,GR86-021-86,-3.9,0.113,-0.114,100.0,4.0,7033.0,0.0,0.0,
2025-08-15T04:47:52.406Z,5,GR86-021-86,-3.8,0.1,-0.1,100.0,4.0,,0.0,0.0,179.31
2025-08-15T04:47:52.450Z,5,GR86-021-86,-3.7,0.083,-0.059,99.97,4.0,,0.0,0.0,
2025-08-15T04:47:52.492Z,5,GR86-021-86,-3.6,0.092,-0.068,99.98,4.0,,0.0,0.0,
2025-08-15T04:47:52.535Z,5,GR86-021-86,-3.5,0.086,-0.062,100.0,4.0,,0.0,0.0,
2025-08-15T04:47:52.581Z,5,GR86-021-86,-3.5,0.085,-0.056,100.0,4.0,7062.0,0.0,0.0,
2025-08-15T04:47:52.624Z,5,GR86-021-86,-3.5,0.085,-0.059,100.0,4.0,,0.0,0.0,180.09
2025-08-15T04:47:52.670Z,5,GR86-021-86,-3.5,0.1,-0.066,100.0,4.0,,0.0,0.0,
2025-08-15T04:47:52.712Z,5,GR86-021-86,-3.5,0.11,-0.06,100.0,4.0,,0.0,0.0,
2025-08-15T04:47:52.756Z,5,GR86-021-86,-3.5,0.108,-0.059,100.0,4.0,,0.0,0.0,
2025-08-15T04:47:52.800Z,5,GR86-021-86,-3.6,0.104,-0.072,100.0,4.0,7090.0,0.0,0.0,
2025-08-15T04:47:52.842Z,5,GR86-021-86,-3.7,0.115,-0.08,100.0,4.0,,0.0,0.0,180.86
2025-08-15T04:47:52.886Z,5,GR86-021-86,-3.9,0.099,-0.071,100.0,4.0,,0.0,0.0,
2025-08-15T04:47:52.930Z,5,GR86-021-86,-4.0,0.084,-0.077,100.0,4.0,,0.0,0.0,
2025-08-15T04:47:52.972Z,5,GR86-021-86,-4.1000000000000005,0.091,-0.086,100.01,4.0,,0.0,0.0,
2025-08-15T04:47:53.015Z,5,GR86-021-86,-4.1000000000000005,0.096,-0.086,100.0,4.0,7120.0,0.0,0.0,
2025-08-15T04:47:53.060Z,5,GR86-021-86,-4.1000000000000005,0.088,-0.085,100.0,4.0,,0.0,0.0,181.59
2025-08-15T04:47:53.102Z,5,GR86-021-86,-4.1000000000000005,0.086,-0.084,99.99,4.0,,0.0,0.0,
2025-08-15T04:47:53.146Z,5,GR86-021-86,-4.1000000000000005,0.093,-0.097,99.98,4.0,,0.0,0.0,
2025-08-15T04:47:53.189Z,5,GR86-021-86,-4.1000000000000005,0.099,-0.119,100.0,4.0,,0.0,0.0,
2025-08-15T04:47:53.232Z,5,GR86-021-86,-3.6,0.106,-0.122,99.99,4.0,7152.0,0.0,0.0,
2025-08-15T04:47:53.275Z,5,GR86-021-86,-3.0,0.102,-0.104,100.0,4.0,,0.0,0.0,183.22
2025-08-15T04:47:53.320Z,5,GR86-021-86,-2.9000000000000004,0.09,-0.09,99.99,4.0,,0.0,0.0,
2025-08-15T04:47:53.362Z,5,GR86-021-86,-3.3000000000000003,0.106,-0.067,99.99,4.0,,0.0,0.0,
2025-08-15T04:47:53.406Z,5,GR86-021-86,-3.6,0.105,-0.049,100.0,4.0,,0.0,0.0,
2025-08-15T04:47:53.450Z,5,GR86-021-86,-3.9,0.091,-0.048,99.98,4.0,7184.0,0.0,0.0,
2025-08-15T04:47:53.492Z,5,GR86-021-86,-4.2,0.091,-0.061,100.0,4.0,,0.0,0.0,183.96
2025-08-15T04:47:53.536Z,5,GR86-021-86,-4.5,0.094,-0.062,99.98,4.0,,0.0,0.0,
2025-08-15T04:47:53.581Z,5,GR86-021-86,-4.6000000000000005,0.087,-0.069,100.0,4.0,,0.0,0.0,
2025-08-15T04:47:53.623Z,5,GR86-021-86,-4.4,0.087,-0.055,100.0,4.0,,0.0,0.0,
2025-08-15T04:47:53.666Z,5,GR86-021-86,-4.1000000000000005,0.089,-0.068,99.99,4.0,7216.0,0.0,0.0,
2025-08-15T04:47:53.710Z,5,GR86-021-86,-4.1000000000000005,0.084,-0.08,100.0,4.0,,0.0,0.0,184.64
2025-08-15T04:47:53.752Z,5,GR86-021-86,-4.1000000000000005,0.089,-0.091,100.0,4.0,,0.0,0.0,
2025-08-15T04:47:53.796Z,5,GR86-021-86,-4.2,0.086,-0.106,99.98,4.0,,0.0,0.0,
2025-08-15T04:47:53.839Z,5,GR86-021-86,-4.4,0.091,-0.11,99.99,4.0,,0.0,0.0,
2025-08-15T04:47:53.882Z,5,GR86-021-86,-4.5,0.079,-0.118,100.0,4.0,7267.0,0.0,0.0,
2025-08-15T04:47:53.925Z,5,GR86-021-86,-4.5,0.094,-0.117,99.98,4.0,,0.0,0.0,185.39
2025-08-15T04:47:53.970Z,5,GR86-021-86,-4.1000000000000005,0.097,-0.109,99.97,4.0,,0.0,0.0,
2025-08-15T04:47:54.012Z,5,GR86-021-86,-3.6,0.087,-0.111,99.99,4.0,,0.0,0.0,
2025-08-15T04:47:54.056Z,5,GR86-021-86,-2.9000000000000004,0.07,-0.103,99.97,4.0,,0.0,0.0,
2025-08-15T04:47:54.099Z,5,GR86-021-86,-2.5,-0.16,-0.077,99.98,5.0,7288.0,0.0,0.0,
2025-08-15T04:47:54.142Z,5,GR86-021-86,-2.0,0.401,-0.033,100.0,5.0,,0.0,0.0,186.14
2025-08-15T04:47:54.186Z,5,GR86-021-86,-1.2000000000000002,0.16,-0.146,99.98,5.0,,0.0,0.0,
2025-08-15T04:47:54.229Z,5,GR86-021-86,-1.0,0.012,0.026,100.0,5.0,,0.0,0.0,
2025-08-15T04:47:54.272Z,5,GR86-021-86,-0.8,-0.023,-0.041,100.0,5.0,,0.0,0.0,
2025-08-15T04:47:54.315Z,5,GR86-021-86,0.1,0.127,-0.023,100.01,5.0,6264.0,0.0,0.0,
2025-08-15T04:47:54.359Z,5,GR86-021-86,0.4,0.144,0.036,100.0,5.0,,0.0,0.0,186.88
2025-08-15T04:47:54.402Z,5,GR86-021-86,-0.1,0.047,-0.02,99.99,5.0,,0.0,0.0,
2025-08-15T04:47:54.446Z,5,GR86-021-86,-0.5,0.058,0.019,99.99,5.0,,0.0,0.0,
2025-08-15T04:47:54.489Z,5,GR86-021-86,-0.7000000000000001,0.104,0.017,99.98,5.0,,0.0,0.0,
2025-08-15T04:47:54.532Z,5,GR86-021-86,-0.7000000000000001,0.067,0.031,100.01,5.0,6398.0,0.0,0.0,
2025-08-15T04:47:54.575Z,5,GR86-021-86,-0.6000000000000001,0.059,0.036,99.99,5.0,,0.0,0.0,187.6
2025-08-15T04:47:54.619Z,5,GR86-021-86,-0.4,0.088,0.038,100.0,5.0,,0.0,0.0,
2025-08-15T04:47:54.663Z,5,GR86-021-86,-0.3,0.09,0.049,100.0,5.0,,0.0,0.0,
2025-08-15T04:47:54.706Z,5,GR86-021-86,-0.4,0.073,0.036,99.99,5.0,,0.0,0.0,
2025-08-15T04:47:54.750Z,5,GR86-021-86,-0.7000000000000001,0.067,0.037,100.0,5.0,6397.0,0.0,0.0,
2025-08-15T04:47:54.792Z,5,GR86-021-86,-0.7000000000000001,0.075,0.04,100.0,5.0,,0.0,0.0,188.28
2025-08-15T04:47:54.836Z,5,GR86-021-86,-0.4,0.068,0.036,100.0,5.0,,0.0,0.0,
2025-08-15T04:47:54.881Z,5,GR86-021-86,-0.1,0.061,0.047,100.0,5.0,,0.0,0.0,
2025-08-15T04:47:54.925Z,5,GR86-021-86,0.1,0.062,0.048,100.01,5.0,,0.0,0.0,
2025-08-15T04:47:54.970Z,5,GR86-021-86,-0.4,0.092,0.032,100.0,5.0,6416.0,0.0,0.0,
2025-08-15T04:47:55.012Z,5,GR86-021-86,-0.8,0.081,0.033,99.98,5.0,,0.0,0.0,188.87
2025-08-15T04:47:55.056Z,5,GR86-021-86,-1.1,0.085,0.028,99.99,5.0,,0.0,0.0,
2025-08-15T04:47:55.100Z,5,GR86-021-86,-1.2000000000000002,0.076,0.037,100.0,5.0,,0.0,0.0,
2025-08-15T04:47:55.142Z,5,GR86-021-86,-1.2000000000000002,0.078,0.038,99.99,5.0,,0.0,0.0,
2025-08-15T04:47:55.186Z,5,GR86-021-86,-0.9,0.065,0.036,100.01,5.0,6444.0,0.0,0.0,
2025-08-15T04:47:55.229Z,5,GR86-021-86,-0.8,0.09,0.01,100.0,5.0,,0.0,0.0,189.49
2025-08-15T04:47:55.272Z,5,GR86-021-86,-1.1,0.084,0.015,99.99,5.0,,0.0,0.0,
2025-08-15T04:47:55.315Z,5,GR86-021-86,-1.2000000000000002,0.081,-0.001,100.0,5.0,,0.0,0.0,
2025-08-15T04:47:55.360Z,5,GR86-021-86,-1.2000000000000002,0.092,0.003,99.99,5.0,,0.0,0.0,
2025-08-15T04:47:55.402Z,5,GR86-021-86,-1.2000000000000002,0.089,0.011,99.99,5.0,6455.0,0.0,0.0,
2025-08-15T04:47:55.446Z,5,GR86-021-86,-0.8,0.085,-0.003,100.01,5.0,,0.0,0.0,190.24
2025-08-15T04:47:55.489Z,5,GR86-021-86,-0.5,0.07,-0.009,100.0,5.0,,0.0,0.0,
2025-08-15T04:47:55.532Z,5,GR86-021-86,-0.5,0.073,0.003,99.99,5.0,,0.0,0.0,
2025-08-15T04:47:55.576Z,5,GR86-021-86,-0.5,0.094,0.008,99.98,5.0,,0.0,0.0,
2025-08-15T04:47:55.620Z,5,GR86-021-86,-0.5,0.088,0.017,99.99,5.0,6485.0,0.0,0.0,
2025-08-15T04:47:55.663Z,5,GR86-021-86,-0.5,0.088,0.022,99.99,5.0,,0.0,0.0,190.75
2025-08-15T04:47:55.706Z,5,GR86-021-86,-0.5,0.082,0.031,100.0,5.0,,0.0,0.0,
2025-08-15T04:47:55.750Z,5,GR86-021-86,-0.5,0.05,0.016,99.97,5.0,,0.0,0.0,
2025-08-15T04:47:55.792Z,5,GR86-021-86,-0.5,0.074,0.022,100.01,5.0,,0.0,0.0,
2025-08-15T04:47:55.835Z,5,GR86-021-86,-0.9,0.06,0.023,100.01,5.0,6497.0,0.0,0.0,
2025-08-15T04:47:55.882Z,5,GR86-021-86,-1.2000000000000002,0.077,0.012,99.99,5.0,,0.0,0.0,192.15
2025-08-15T04:47:55.925Z,5,GR86-021-86,-1.3,0.079,0.004,100.0,5.0,,0.0,0.0,
2025-08-15T04:47:55.970Z,5,GR86-021-86,-2.0,0.049,0.0,99.99,5.0,,0.0,0.0,
2025-08-15T04:47:56.012Z,5,GR86-021-86,-2.2,0.057,0.004,100.0,5.0,,0.0,0.0,
2025-08-15T04:47:56.056Z,5,GR86-021-86,-2.2,0.043,0.007,100.0,5.0,6521.0,0.0,0.0,
2025-08-15T04:47:56.100Z,5,GR86-021-86,-2.1,0.064,0.008,99.99,5.0,,0.0,0.0,192.71
2025-08-15T04:47:56.142Z,5,GR86-021-86,-2.0,0.06,-0.002,100.0,5.0,,0.0,0.0,
2025-08-15T04:47:56.186Z,5,GR86-021-86,-2.0,0.076,-0.005,100.0,5.0,,0.0,0.0,
2025-08-15T04:47:56.230Z,5,GR86-021-86,-2.2,0.056,-0.017,100.0,5.0,,0.0,0.0,
2025-08-15T04:47:56.272Z,5,GR86-021-86,-2.2,0.064,-0.022,100.01,5.0,6562.0,0.0,0.0,
2025-08-15T04:47:56.316Z,5,GR86-021-86,-2.1,0.053,-0.026,99.99,5.0,,0.0,0.0,193.34
2025-08-15T04:47:56.360Z,5,GR86-021-86,-1.7000000000000002,0.052,0.002,100.0,5.0,,0.0,0.0,
2025-08-15T04:47:56.402Z,5,GR86-021-86,-1.2000000000000002,0.049,0.006,100.0,5.0,,0.0,0.0,
2025-08-15T04:47:56.446Z,5,GR86-021-86,-1.0,0.06,-0.003,100.0,5.0,,0.0,0.0,
2025-08-15T04:47:56.489Z,5,GR86-021-86,-1.0,0.065,0.011,99.99,5.0,6584.0,0.0,0.0,
2025-08-15T04:47:56.532Z,5,GR86-021-86,-1.0,0.062,-0.003,100.02,5.0,,0.0,0.0,193.97
2025-08-15T04:47:56.576Z,5,GR86-021-86,-1.0,0.048,0.013,100.0,5.0,,0.0,0.0,
2025-08-15T04:47:56.620Z,5,GR86-021-86,-1.0,0.054,0.024,99.97,5.0,,0.0,0.0,
2025-08-15T04:47:56.663Z,5,GR86-021-86,-1.0,0.048,0.031,99.97,5.0,,0.0,0.0,
2025-08-15T04:47:56.706Z,5,GR86-021-86,-1.1,0.055,0.037,100.0,5.0,6606.0,0.0,0.0,
2025-08-15T04:47:56.750Z,5,GR86-021-86,-1.7000000000000002,0.077,0.0,99.99,5.0,,0.0,0.0,194.48
2025-08-15T04:47:56.792Z,5,GR86-021-86,-2.2,0.061,0.007,99.97,5.0,,0.0,0.0,
2025-08-15T04:47:56.836Z,5,GR86-021-86,-2.6,0.05,0.005,100.0,5.0,,0.0,0.0,
2025-08-15T04:47:56.881Z,5,GR86-021-86,-2.8000000000000003,0.055,0.01,100.01,5.0,,0.0,0.0,
2025-08-15T04:47:56.923Z,5,GR86-021-86,-2.8000000000000003,0.044,0.001,99.99,5.0,6630.0,0.0,0.0,
2025-08-15T04:47:56.966Z,5,GR86-021-86,-2.7,0.041,-0.016,100.0,5.0,,0.0,0.0,195.0
2025-08-15T04:47:57.010Z,5,GR86-021-86,-2.2,0.075,-0.051,99.99,5.0,,0.0,0.0,
2025-08-15T04:47:57.052Z,5,GR86-021-86,-2.1,0.051,-0.038,99.98,5.0,,0.0,0.0,
2025-08-15T04:47:57.096Z,5,GR86-021-86,-2.1,0.045,-0.051,100.0,5.0,,0.0,0.0,
2025-08-15T04:47:57.139Z,5,GR86-021-86,-1.9,0.045,-0.055,100.0,5.0,6640.0,0.0,0.0,
2025-08-15T04:47:57.182Z,5,GR86-021-86,-1.6,0.049,-0.053,99.97,5.0,,0.0,0.0,195.59
2025-08-15T04:47:57.224Z,5,GR86-021-86,-1.3,0.054,-0.042,100.0,5.0,,0.0,0.0,
2025-08-15T04:47:57.270Z,5,GR86-021-86,-1.3,0.071,-0.034,99.99,5.0,,0.0,0.0,
2025-08-15T04:47:57.312Z,5,GR86-021-86,-1.1,0.066,-0.034,100.0,5.0,,0.0,0.0,
2025-08-15T04:47:57.356Z,5,GR86-021-86,-0.4,0.055,0.017,99.97,5.0,6656.0,0.0,0.0,
2025-08-15T04:47:57.400Z,5,GR86-021-86,0.2,0.04,0.029,99.99,5.0,,0.0,0.0,196.19
2025-08-15T04:47:57.442Z,5,GR86-021-86,0.7000000000000001,0.037,0.041,100.0,5.0,,0.0,0.0,
2025-08-15T04:47:57.486Z,5,GR86-021-86,1.1,0.054,0.035,100.0,5.0,,0.0,0.0,
2025-08-15T04:47:57.529Z,5,GR86-021-86,1.6,0.063,0.05,99.99,5.0,,0.0,0.0,
2025-08-15T04:47:57.572Z,5,GR86-021-86,1.8,0.052,0.065,100.0,5.0,6687.0,0.0,0.0,
2025-08-15T04:47:57.615Z,5,GR86-021-86,1.9,0.042,0.086,99.97,5.0,,0.0,0.0,196.72
2025-08-15T04:47:57.660Z,5,GR86-021-86,1.9,0.039,0.099,100.0,5.0,,0.0,0.0,
2025-08-15T04:47:57.702Z,5,GR86-021-86,1.9,0.05,0.121,99.99,5.0,,0.0,0.0,
2025-08-15T04:47:57.746Z,5,GR86-021-86,2.2,0.055,0.118,99.99,5.0,,0.0,0.0,
2025-08-15T04:47:57.789Z,5,GR86-021-86,2.6,0.048,0.113,99.98,5.0,6700.0,0.0,0.0,
2025-08-15T04:47:57.832Z,5,GR86-021-86,2.6,0.04,0.125,100.0,5.0,,0.0,0.0,197.41
2025-08-15T04:47:57.875Z,5,GR86-021-86,2.6,0.044,0.146,99.99,5.0,,0.0,0.0,
2025-08-15T04:47:57.919Z,5,GR86-021-86,2.8000000000000003,0.047,0.14,99.99,5.0,,0.0,0.0,
2025-08-15T04:47:57.962Z,5,GR86-021-86,3.4000000000000004,0.055,0.149,99.98,5.0,,0.0,0.0,
2025-08-15T04:47:58.006Z,5,GR86-021-86,4.1000000000000005,0.068,0.156,100.0,5.0,6723.0,0.0,0.0,
2025-08-15T04:47:58.050Z,5,GR86-021-86,4.6000000000000005,0.033,0.169,99.99,5.0,,0.0,0.0,198.13
2025-08-15T04:47:58.092Z,5,GR86-021-86,4.6000000000000005,0.05,0.171,99.99,5.0,,0.0,0.0,
2025-08-15T04:47:58.136Z,5,GR86-021-86,4.6000000000000005,0.043,0.157,100.0,5.0,,0.0,0.0,
2025-08-15T04:47:58.181Z,5,GR86-021-86,4.7,0.048,0.18,99.98,5.0,,0.0,0.0,
2025-08-15T04:47:58.223Z,5,GR86-021-86,5.1000000000000005,0.074,0.195,99.99,5.0,6748.0,0.0,0.0,
2025-08-15T04:47:58.266Z,5,GR86-021-86,5.5,0.083,0.202,100.0,5.0,,0.0,0.0,198.77
2025-08-15T04:47:58.310Z,5,GR86-021-86,6.0,0.038,0.224,100.0,5.0,,0.0,0.0,
2025-08-15T04:47:58.352Z,5,GR86-021-86,6.2,0.043,0.245,99.98,5.0,,0.0,0.0,
2025-08-15T04:47:58.396Z,5,GR86-021-86,6.2,0.064,0.245,99.99,5.0,,0.0,0.0,
2025-08-15T04:47:58.439Z,5,GR86-021-86,6.2,0.064,0.258,100.0,5.0,6768.0,0.0,0.0,
2025-08-15T04:47:58.482Z,5,GR86-021-86,6.2,0.083,0.255,100.01,5.0,,0.0,0.0,199.89
2025-08-15T04:47:58.526Z,5,GR86-021-86,5.9,0.078,0.256,100.0,5.0,,0.0,0.0,
2025-08-15T04:47:58.570Z,5,GR86-021-86,5.4,0.055,0.258,100.0,5.0,,0.0,0.0,
2025-08-15T04:47:58.613Z,5,GR86-021-86,5.4,0.068,0.233,100.01,5.0,,0.0,0.0,
2025-08-15T04:47:58.656Z,5,GR86-021-86,5.300000000000001,0.082,0.246,99.97,5.0,6788.0,0.0,0.0,
2025-08-15T04:47:58.699Z,5,GR86-021-86,5.1000000000000005,0.064,0.24,100.01,5.0,,0.0,0.0,200.45
2025-08-15T04:47:58.742Z,5,GR86-021-86,5.0,0.08,0.253,100.0,5.0,,0.0,0.0,
2025-08-15T04:47:58.829Z,5,GR86-021-86,5.0,0.065,0.226,100.0,5.0,,0.0,0.0,
2025-08-15T04:47:58.872Z,5,GR86-021-86,5.1000000000000005,0.084,0.221,99.97,5.0,6817.0,0.0,0.0,
2025-08-15T04:47:58.915Z,5,GR86-021-86,4.9,0.077,0.194,100.0,5.0,,0.0,0.0,200.98
2025-08-15T04:47:58.960Z,5,GR86-021-86,4.9,0.076,0.203,99.98,5.0,,0.0,0.0,
2025-08-15T04:47:59.002Z,5,GR86-021-86,4.800000000000001,0.059,0.184,99.98,5.0,,0.0,0.0,
2025-08-15T04:47:59.046Z,5,GR86-021-86,4.800000000000001,0.032,0.2,100.0,5.0,,0.0,0.0,
2025-08-15T04:47:59.089Z,5,GR86-021-86,5.300000000000001,0.076,0.203,99.98,5.0,6850.0,0.0,0.0,
2025-08-15T04:47:59.132Z,5,GR86-021-86,5.9,0.051,0.215,100.0,5.0,,0.0,0.0,201.37
2025-08-15T04:47:59.176Z,5,GR86-021-86,6.4,0.038,0.198,99.99,5.0,,0.0,0.0,
2025-08-15T04:47:59.220Z,5,GR86-021-86,6.6000000000000005,0.029,0.218,99.97,5.0,,0.0,0.0,
2025-08-15T04:47:59.263Z,5,GR86-021-86,6.4,0.036,0.217,99.96,5.0,,0.0,0.0,
2025-08-15T04:47:59.306Z,5,GR86-021-86,6.300000000000001,0.034,0.24,99.98,5.0,6860.0,0.0,0.0,
2025-08-15T04:47:59.350Z,5,GR86-021-86,6.9,0.033,0.236,99.96,5.0,,0.0,0.0,201.98
2025-08-15T04:47:59.392Z,5,GR86-021-86,7.7,0.033,0.246,99.97,5.0,,0.0,0.0,
2025-08-15T04:47:59.435Z,5,GR86-021-86,8.5,0.035,0.255,99.97,5.0,,0.0,0.0,
2025-08-15T04:47:59.482Z,5,GR86-021-86,9.0,0.03,0.274,100.0,5.0,,0.0,0.0,
2025-08-15T04:47:59.524Z,5,GR86-021-86,9.0,0.052,0.289,99.97,5.0,6871.0,0.0,0.0,
2025-08-15T04:47:59.570Z,5,GR86-021-86,9.0,0.029,0.305,99.99,5.0,,0.0,0.0,202.49
2025-08-15T04:47:59.612Z,5,GR86-021-86,8.9,0.026,0.311,99.97,5.0,,0.0,0.0,
2025-08-15T04:47:59.656Z,5,GR86-021-86,8.9,0.039,0.341,99.97,5.0,,0.0,0.0,
2025-08-15T04:47:59.699Z,5,GR86-021-86,8.8,0.04,0.353,99.97,5.0,,0.0,0.0,
2025-08-15T04:47:59.742Z,5,GR86-021-86,8.5,0.05,0.338,100.0,5.0,6897.0,0.0,0.0,
2025-08-15T04:47:59.785Z,5,GR86-021-86,8.3,0.062,0.365,99.99,5.0,,0.0,0.0,202.98
2025-08-15T04:47:59.830Z,5,GR86-021-86,8.1,0.043,0.355,99.97,5.0,,0.0,0.0,
2025-08-15T04:47:59.872Z,5,GR86-021-86,8.1,0.05,0.352,100.01,5.0,,0.0,0.0,
2025-08-15T04:47:59.916Z,5,GR86-021-86,8.1,0.062,0.367,99.97,5.0,,0.0,0.0,
2025-08-15T04:47:59.960Z,5,GR86-021-86,8.200000000000001,0.051,0.36,99.98,5.0,6910.0,0.0,0.0,
2025-08-15T04:48:00.002Z,5,GR86-021-86,8.200000000000001,0.049,0.354,100.0,5.0,,0.0,0.0,203.48
2025-08-15T04:48:00.046Z,5,GR86-021-86,8.1,0.039,0.349,99.97,5.0,,0.0,0.0,
2025-08-15T04:48:00.089Z,5,GR86-021-86,7.4,0.065,0.367,99.98,5.0,,0.0,0.0,
2025-08-15T04:48:00.132Z,5,GR86-021-86,7.1000000000000005,0.043,0.359,100.0,5.0,,0.0,0.0,
2025-08-15T04:48:00.176Z,5,GR86-021-86,7.0,0.057,0.376,99.97,5.0,6941.0,0.0,0.0,
2025-08-15T04:48:00.220Z,5,GR86-021-86,7.0,0.038,0.371,99.96,5.0,,0.0,0.0,203.9
2025-08-15T04:48:00.263Z,5,GR86-021-86,7.0,0.038,0.354,100.0,5.0,,0.0,0.0,
2025-08-15T04:48:00.306Z,5,GR86-021-86,7.0,0.048,0.365,99.97,5.0,,0.0,0.0,
2025-08-15T04:48:00.350Z,5,GR86-021-86,7.2,0.039,0.343,99.98,5.0,,0.0,0.0,
2025-08-15T04:48:00.392Z,5,GR86-021-86,7.4,0.043,0.315,99.97,5.0,6952.0,0.0,0.0,
2025-08-15T04:48:00.436Z,5,GR86-021-86,7.5,0.058,0.287,99.97,5.0,,0.0,0.0,204.53
2025-08-15T04:48:00.481Z,5,GR86-021-86,7.1000000000000005,0.048,0.25,100.0,5.0,,0.0,0.0,
2025-08-15T04:48:00.524Z,5,GR86-021-86,6.6000000000000005,0.057,0.241,99.99,5.0,,0.0,0.0,
2025-08-15T04:48:00.566Z,5,GR86-021-86,6.300000000000001,0.062,0.253,99.96,5.0,,0.0,0.0,
2025-08-15T04:48:00.610Z,5,GR86-021-86,6.2,0.039,0.258,99.98,5.0,6965.0,0.0,0.0,
2025-08-15T04:48:00.652Z,5,GR86-021-86,5.9,0.04,0.264,99.98,5.0,,0.0,0.0,205.33
2025-08-15T04:48:00.696Z,5,GR86-021-86,5.300000000000001,0.039,0.256,99.99,5.0,,0.0,0.0,
2025-08-15T04:48:00.739Z,5,GR86-021-86,4.7,0.048,0.249,99.97,5.0,,0.0,0.0,
2025-08-15T04:48:00.782Z,5,GR86-021-86,5.0,0.031,0.252,99.97,5.0,,0.0,0.0,
2025-08-15T04:48:00.824Z,5,GR86-021-86,6.2,0.032,0.238,99.99,5.0,6989.0,0.0,0.0,
2025-08-15T04:48:00.870Z,5,GR86-021-86,7.800000000000001,0.045,0.234,99.98,5.0,,0.0,0.0,206.45
2025-08-15T04:48:00.912Z,5,GR86-021-86,8.1,0.028,0.233,99.97,5.0,,0.0,0.0,
2025-08-15T04:48:00.956Z,5,GR86-021-86,7.9,0.039,0.238,100.0,5.0,,0.0,0.0,
2025-08-15T04:48:00.999Z,5,GR86-021-86,7.7,0.046,0.231,99.98,5.0,,0.0,0.0,
2025-08-15T04:48:01.042Z,5,GR86-021-86,7.6,0.046,0.254,99.97,5.0,7009.0,0.0,0.0,
2025-08-15T04:48:01.086Z,5,GR86-021-86,7.5,0.05,0.244,100.01,5.0,,0.0,0.0,206.9
2025-08-15T04:48:01.129Z,5,GR86-021-86,7.2,0.043,0.274,100.0,5.0,,0.0,0.0,
2025-08-15T04:48:01.172Z,5,GR86-021-86,7.1000000000000005,0.043,0.277,99.55,5.0,,0.0,0.0,
2025-08-15T04:48:01.216Z,5,GR86-021-86,7.1000000000000005,0.042,0.321,50.06,5.0,,0.0,0.0,
2025-08-15T04:48:01.259Z,5,GR86-021-86,7.1000000000000005,0.037,0.327,5.04,5.0,7032.0,0.0,0.0,
2025-08-15T04:48:01.302Z,5,GR86-021-86,7.1000000000000005,0.012,0.308,4.46,5.0,,0.0,0.0,207.49
2025-08-15T04:48:01.346Z,5,GR86-021-86,6.0,-0.201,0.306,4.2,5.0,,0.0,0.0,
2025-08-15T04:48:01.389Z,5,GR86-021-86,3.5,-0.451,0.271,3.56,5.0,,7.585,8.040000000000001,
2025-08-15T04:48:01.432Z,5,GR86-021-86,2.1,-0.3,0.232,3.18,5.0,,24.675,25.27,
2025-08-15T04:48:01.476Z,5,GR86-021-86,1.4,-0.454,0.244,2.96,5.0,7040.0,36.425,36.67,
2025-08-15T04:48:01.519Z,5,GR86-021-86,0.0,-0.805,0.184,2.85,5.0,,47.335,47.275,207.94
2025-08-15T04:48:01.562Z,5,GR86-021-86,-1.6,-0.989,0.172,2.77,5.0,,57.715,57.44,
2025-08-15T04:48:01.606Z,5,GR86-021-86,-2.5,-1.128,0.124,2.71,5.0,,65.525,65.205,
2025-08-15T04:48:01.650Z,5,GR86-021-86,-2.5,-1.209,0.105,2.68,5.0,,76.08500000000001,77.305,
2025-08-15T04:48:01.692Z,5,GR86-021-86,-2.1,-1.236,0.131,2.64,5.0,6499.0,83.305,85.35000000000001,
2025-08-15T04:48:01.736Z,5,GR86-021-86,-2.0,-1.427,0.145,2.62,5.0,,89.12,89.775,202.93
2025-08-15T04:48:01.781Z,5,GR86-021-86,-2.7,-1.533,0.105,2.61,5.0,,96.46,98.49,
2025-08-15T04:48:01.824Z,5,GR86-021-86,-3.6,-1.548,0.137,2.58,5.0,,100.52,101.385,
2025-08-15T04:48:01.866Z,5,GR86-021-86,-3.8,-1.467,0.169,2.58,5.0,,101.74,102.045,
2025-08-15T04:48:01.910Z,5,GR86-021-86,-4.0,-1.391,0.126,2.5500000000000003,5.0,6065.0,105.935,108.18,
2025-08-15T04:48:01.952Z,5,GR86-021-86,-4.1000000000000005,-1.359,0.155,2.5500000000000003,5.0,,105.22,106.27,192.54
2025-08-15T04:48:01.996Z,5,GR86-021-86,-4.1000000000000005,-1.253,0.089,4.22,5.0,,106.745,107.49,
2025-08-15T04:48:02.039Z,5,GR86-021-86,-4.0,-1.332,0.075,45.08,4.0,,110.62,112.985,
2025-08-15T04:48:02.082Z,5,GR86-021-86,-2.5,-1.405,0.146,34.43,4.0,,106.515,109.155,
2025-08-15T04:48:02.124Z,5,GR86-021-86,-1.7000000000000002,-1.471,0.068,5.29,4.0,5853.0,105.8,108.085,
2025-08-15T04:48:02.170Z,5,GR86-021-86,-3.4000000000000004,-1.599,0.099,3.92,4.0,,110.375,111.78,181.73
2025-08-15T04:48:02.212Z,5,GR86-021-86,-4.0,-1.676,0.068,3.49,4.0,,109.87,111.185,
2025-08-15T04:48:02.256Z,5,GR86-021-86,-4.1000000000000005,-1.318,0.078,3.14,4.0,,112.33,114.585,
2025-08-15T04:48:02.300Z,5,GR86-021-86,-3.7,-1.325,0.025,2.93,4.0,,110.895,112.495,
2025-08-15T04:48:02.342Z,5,GR86-021-86,-2.7,-1.458,0.031,2.83,4.0,6539.0,110.375,111.705,
2025-08-15T04:48:02.386Z,5,GR86-021-86,-2.1,-1.489,0.018,2.77,4.0,,113.075,115.09,173.48
2025-08-15T04:48:02.429Z,5,GR86-021-86,-1.4,-1.359,0.034,61.7,4.0,,111.58,112.525,
2025-08-15T04:48:02.472Z,5,GR86-021-86,-0.8,-1.439,0.054,98.72,4.0,,110.055,110.435,
2025-08-15T04:48:02.516Z,5,GR86-021-86,0.0,-1.386,0.067,85.19,3.0,,110.62,110.925,
2025-08-15T04:48:02.560Z,5,GR86-021-86,-0.2,-1.371,0.001,14.52,3.0,6192.0,111.185,111.735,
2025-08-15T04:48:02.602Z,5,GR86-021-86,-1.2000000000000002,-1.441,0.182,3.14,3.0,,112.895,115.305,162.65
2025-08-15T04:48:02.646Z,5,GR86-021-86,-0.6000000000000001,-1.366,-0.038,2.74,3.0,,110.025,111.43,
2025-08-15T04:48:02.689Z,5,GR86-021-86,0.2,-1.542,0.108,2.61,3.0,,111.735,113.015,
2025-08-15T04:48:02.776Z,5,GR86-021-86,-0.4,-1.396,0.031,2.59,3.0,6796.0,113.945,115.93,
2025-08-15T04:48:02.820Z,5,GR86-021-86,0.1,-1.4,0.044,2.5500000000000003,3.0,,111.84,112.525,154.88
2025-08-15T04:48:02.863Z,5,GR86-021-86,1.6,-1.491,-0.004,18.13,3.0,,111.49,111.9,
2025-08-15T04:48:02.906Z,5,GR86-021-86,2.6,-1.464,0.039,63.96,2.0,,111.43,111.84,
2025-08-15T04:48:02.950Z,5,GR86-021-86,3.4000000000000004,-1.449,0.02,7.75,2.0,,111.81,113.335,
2025-08-15T04:48:02.992Z,5,GR86-021-86,2.9000000000000004,-1.432,0.12,4.21,2.0,6512.0,112.895,115.335,
2025-08-15T04:48:03.036Z,5,GR86-021-86,2.5,-1.616,-0.032,3.69,2.0,,112.56,114.875,146.35
2025-08-15T04:48:03.082Z,5,GR86-021-86,2.8000000000000003,-1.602,0.041,3.28,2.0,,107.14,107.765,
2025-08-15T04:48:03.124Z,5,GR86-021-86,4.1000000000000005,-1.364,0.134,3.01,2.0,,107.325,109.46,
2025-08-15T04:48:03.170Z,5,GR86-021-86,7.300000000000001,-1.265,-0.05,2.84,2.0,,106.21,107.11,
2025-08-15T04:48:03.212Z,5,GR86-021-86,7.2,-1.51,0.143,2.78,2.0,6552.0,105.25,106.925,
2025-08-15T04:48:03.256Z,5,GR86-021-86,7.1000000000000005,-1.523,0.064,2.72,2.0,,106.65,108.85,136.49
2025-08-15T04:48:03.300Z,5,GR86-021-86,8.9,-1.262,0.061,2.68,2.0,,105.585,106.745,
2025-08-15T04:48:03.342Z,5,GR86-021-86,10.8,-1.485,0.163,2.64,2.0,,104.56,105.8,
2025-08-15T04:48:03.386Z,5,GR86-021-86,11.4,-1.414,0.144,2.62,2.0,,103.995,105.02,
2025-08-15T04:48:03.430Z,5,GR86-021-86,11.0,-1.355,0.245,2.59,2.0,6792.0,101.92,102.275,
2025-08-15T04:48:03.472Z,5,GR86-021-86,10.9,-1.344,0.251,2.58,2.0,,100.395,100.64,117.95
2025-08-15T04:48:03.515Z,5,GR86-021-86,12.1,-1.315,0.272,8.120000000000001,2.0,,96.81,97.435,
2025-08-15T04:48:03.560Z,5,GR86-021-86,13.9,-1.189,0.313,52.32,2.0,,90.325,92.34,
2025-08-15T04:48:03.602Z,5,GR86-021-86,15.1,-1.269,0.35,63.55,1.0,,85.53,87.715,
2025-08-15T04:48:03.646Z,5,GR86-021-86,16.900000000000002,-1.313,0.324,6.08,1.0,6510.0,84.115,86.035,
2025-08-15T04:48:03.689Z,5,GR86-021-86,21.4,-1.338,0.428,3.83,1.0,,82.68,84.51,111.45
2025-08-15T04:48:03.732Z,5,GR86-021-86,24.1,-1.405,0.343,3.33,1.0,,81.84,84.115,
2025-08-15T04:48:03.775Z,5,GR86-021-86,26.200000000000003,-1.285,0.615,3.03,1.0,,75.49,76.53,
2025-08-15T04:48:03.820Z,5,GR86-021-86,27.1,-1.195,0.516,2.88,1.0,,67.525,68.99,
2025-08-15T04:48:03.863Z,5,GR86-021-86,29.200000000000003,-1.038,0.59,2.78,1.0,5869.0,57.44,58.555,
2025-08-15T04:48:03.906Z,5,GR86-021-86,29.8,-0.935,0.854,2.71,1.0,,44.835,45.935,103.64
2025-08-15T04:48:03.950Z,5,GR86-021-86,29.9,-0.953,0.719,2.65,1.0,,37.145,38.41,
2025-08-15T04:48:03.992Z,5,GR86-021-86,29.0,-0.839,0.8200000000000001,2.62,1.0,,30.4,31.575,
2025-08-15T04:48:04.036Z,5,GR86-021-86,27.5,-0.788,0.953,2.61,1.0,,24.34,25.055,
2025-08-15T04:48:04.081Z,5,GR86-021-86,26.6,-0.681,0.856,2.58,1.0,6675.0,20.845,21.775,
2025-08-15T04:48:04.123Z,5,GR86-021-86,27.0,-0.578,0.771,2.59,1.0,,17.81,18.77,97.54
2025-08-15T04:48:04.166Z,5,GR86-021-86,28.4,-0.513,0.803,2.56,1.0,,15.685,16.62,
2025-08-15T04:48:04.210Z,5,GR86-021-86,33.7,-0.466,0.6910000000000001,2.5500000000000003,1.0,,13.4,14.45,
2025-08-15T04:48:04.252Z,5,GR86-021-86,38.3,-0.447,0.6920000000000001,2.52,1.0,,12.33,13.305,
2025-08-15T04:48:04.296Z,5,GR86-021-86,43.8,-0.453,0.666,2.52,1.0,6527.0,12.68,13.52,
2025-08-15T04:48:04.339Z,5,GR86-021-86,50.0,-0.46,0.6940000000000001,2.52,1.0,,13.305,14.055,92.53
2025-08-15T04:48:04.382Z,5,GR86-021-86,55.6,-0.45,0.736,2.52,1.0,,13.765,14.45,
2025-08-15T04:48:04.424Z,5,GR86-021-86,59.6,-0.449,0.792,2.52,1.0,,14.27,14.97,
2025-08-15T04:48:04.470Z,5,GR86-021-86,62.1,-0.42,0.852,2.52,1.0,,14.36,15.125,
2025-08-15T04:48:04.512Z,5,GR86-021-86,62.0,-0.439,0.901,2.51,1.0,6346.0,14.27,15.03,
2025-08-15T04:48:04.556Z,5,GR86-021-86,61.400000000000006,-0.444,0.921,2.51,1.0,,13.995,14.97,89.06
2025-08-15T04:48:04.600Z,5,GR86-021-86,60.8,-0.442,0.953,2.51,1.0,,13.64,14.545,
2025-08-15T04:48:04.642Z,5,GR86-021-86,58.1,-0.442,0.965,2.49,1.0,,13.52,14.33,
2025-08-15T04:48:04.686Z,5,GR86-021-86,50.5,-0.422,0.981,2.5,1.0,,13.015,13.95,
2025-08-15T04:48:04.730Z,5,GR86-021-86,37.1,-0.41,0.898,2.52,1.0,6102.0,11.905,12.925,
2025-08-15T04:48:04.772Z,5,GR86-021-86,34.7,-0.403,0.846,2.51,1.0,,11.215,11.965,86.87
2025-08-15T04:48:04.815Z,5,GR86-021-86,38.400000000000006,-0.375,0.8280000000000001,2.52,1.0,,9.005,9.995,
2025-08-15T04:48:04.859Z,5,GR86-021-86,50.0,-0.312,0.852,2.52,1.0,,5.05,5.83,
2025-08-15T04:48:04.902Z,5,GR86-021-86,67.10000000000001,-0.272,0.931,2.52,1.0,,0.0,1.985,
2025-08-15T04:48:04.946Z,5,GR86-021-86,86.5,-0.264,0.999,2.52,1.0,5900.0,0.0,0.0,
2025-08-15T04:48:04.989Z,5,GR86-021-86,111.8,-0.252,1.129,2.5,1.0,,0.0,0.0,84.09
2025-08-15T04:48:05.032Z,5,GR86-021-86,122.2,-0.25,1.173,2.49,1.0,,0.0,0.0,
2025-08-15T04:48:05.074Z,5,GR86-021-86,125.5,-0.248,1.211,2.5,1.0,,0.0,0.0,
2025-08-15T04:48:05.120Z,5,GR86-021-86,123.3,-0.253,1.224,2.49,1.0,,0.0,0.0,
2025-08-15T04:48:05.162Z,5,GR86-021-86,117.2,-0.259,1.198,2.49,1.0,5830.0,0.0,0.0,
2025-08-15T04:48:05.206Z,5,GR86-021-86,109.8,-0.263,1.216,2.49,1.0,,0.0,0.0,81.8
2025-08-15T04:48:05.250Z,5,GR86-021-86,101.4,-0.245,1.247,2.49,1.0,,0.0,0.0,
2025-08-15T04:48:05.292Z,5,GR86-021-86,91.4,-0.25,1.31,2.79,1.0,,0.0,0.0,
2025-08-15T04:48:05.336Z,5,GR86-021-86,77.60000000000001,-0.242,1.291,4.36,1.0,,0.0,0.0,
2025-08-15T04:48:05.381Z,5,GR86-021-86,60.0,-0.246,1.338,12.56,1.0,5670.0,0.0,0.0,
2025-08-15T04:48:05.424Z,5,GR86-021-86,40.0,-0.222,1.304,14.82,1.0,,0.0,0.0,80.63
2025-08-15T04:48:05.466Z,5,GR86-021-86,25.3,-0.168,1.07,14.83,1.0,,0.0,0.0,
2025-08-15T04:48:05.510Z,5,GR86-021-86,21.8,-0.129,0.922,22.5,1.0,,0.0,0.0,
2025-08-15T04:48:05.552Z,5,GR86-021-86,30.3,-0.143,1.227,25.39,1.0,,0.0,0.0,
2025-08-15T04:48:05.596Z,5,GR86-021-86,44.5,-0.081,1.0,28.4,1.0,5525.0,0.0,0.0,
2025-08-15T04:48:05.639Z,5,GR86-021-86,61.900000000000006,-0.119,1.069,32.59,1.0,,0.0,0.0,79.76
2025-08-15T04:48:05.682Z,5,GR86-021-86,80.10000000000001,0.069,1.129,34.76,1.0,,0.0,0.0,
2025-08-15T04:48:05.726Z,5,GR86-021-86,94.4,0.032,1.085,36.47,1.0,,0.0,0.0,
2025-08-15T04:48:05.770Z,5,GR86-021-86,103.3,0.163,1.13,37.21,1.0,,0.0,0.0,
2025-08-15T04:48:05.812Z,5,GR86-021-86,100.2,0.293,0.976,38.32,1.0,5832.0,0.0,0.0,
2025-08-15T04:48:05.856Z,5,GR86-021-86,96.9,0.349,0.8310000000000001,38.32,1.0,,0.0,0.0,77.85000000000001
2025-08-15T04:48:05.900Z,5,GR86-021-86,94.7,0.293,0.872,43.25,1.0,,0.0,0.0,
2025-08-15T04:48:05.986Z,5,GR86-021-86,92.1,0.292,0.976,56.01,1.0,,0.0,0.0,
2025-08-15T04:48:06.072Z,5,GR86-021-86,75.8,0.116,1.083,59.3,1.0,6256.0,0.0,0.0,77.83
2025-08-15T04:48:06.116Z,5,GR86-021-86,73.0,0.328,1.023,48.46,1.0,,0.0,0.0,
2025-08-15T04:48:06.160Z,5,GR86-021-86,70.3,0.374,1.015,38.62,1.0,,0.0,0.0,
2025-08-15T04:48:06.202Z,5,GR86-021-86,70.4,0.296,1.045,36.78,1.0,,0.0,0.0,
2025-08-15T04:48:06.246Z,5,GR86-021-86,72.9,0.082,1.0,36.51,1.0,6098.0,0.0,0.0,
2025-08-15T04:48:06.289Z,5,GR86-021-86,74.8,0.271,1.133,36.72,1.0,,0.0,0.0,80.19
2025-08-15T04:48:06.332Z,5,GR86-021-86,74.9,0.28,1.248,37.87,1.0,,0.0,0.0,
2025-08-15T04:48:06.376Z,5,GR86-021-86,74.4,-0.038,1.529,52.43,1.0,,0.0,0.0,
2025-08-15T04:48:06.420Z,5,GR86-021-86,71.10000000000001,0.232,1.378,52.16,1.0,,0.0,0.0,
2025-08-15T04:48:06.463Z,5,GR86-021-86,62.5,0.158,1.399,50.14,1.0,6264.0,0.0,0.0,
2025-08-15T04:48:06.506Z,5,GR86-021-86,51.6,0.272,1.294,45.52,1.0,,0.0,0.0,81.48
2025-08-15T04:48:06.550Z,5,GR86-021-86,42.2,0.327,1.157,44.53,1.0,,0.0,0.0,
2025-08-15T04:48:06.592Z,5,GR86-021-86,41.400000000000006,0.294,1.108,50.49,1.0,,0.0,0.0,
2025-08-15T04:48:06.635Z,5,GR86-021-86,39.3,0.229,1.103,58.93,1.0,,0.0,0.0,
2025-08-15T04:48:06.682Z,5,GR86-021-86,31.9,0.251,1.144,67.74,1.0,6434.0,0.0,0.0,
2025-08-15T04:48:06.724Z,5,GR86-021-86,21.8,0.258,1.107,68.9,1.0,,0.0,0.0,82.95
2025-08-15T04:48:06.770Z,5,GR86-021-86,1.7000000000000002,0.339,1.069,59.21,1.0,,0.0,0.0,
2025-08-15T04:48:06.812Z,5,GR86-021-86,-12.1,0.358,0.987,42.52,1.0,,0.0,0.0,
2025-08-15T04:48:06.856Z,5,GR86-021-86,-23.8,0.36,0.891,33.84,1.0,,0.0,0.0,
2025-08-15T04:48:06.899Z,5,GR86-021-86,-30.200000000000003,0.36,0.789,33.43,1.0,6646.0,0.0,0.0,
2025-08-15T04:48:06.942Z,5,GR86-021-86,-30.8,0.322,0.739,36.93,1.0,,0.0,0.0,84.36
2025-08-15T04:48:06.986Z,5,GR86-021-86,-23.1,0.285,0.731,50.68,1.0,,0.0,0.0,
2025-08-15T04:48:07.030Z,5,GR86-021-86,5.6000000000000005,0.288,0.786,83.75,1.0,,0.0,0.0,
2025-08-15T04:48:07.072Z,5,GR86-021-86,30.0,0.322,0.784,100.1,1.0,,0.0,0.0,
2025-08-15T04:48:07.115Z,5,GR86-021-86,50.2,0.356,0.793,100.03,1.0,6522.0,0.0,0.0,
2025-08-15T04:48:07.160Z,5,GR86-021-86,64.10000000000001,0.369,0.786,100.02,1.0,,0.0,0.0,85.12
2025-08-15T04:48:07.202Z,5,GR86-021-86,72.9,0.354,0.798,100.03,1.0,,0.0,0.0,
2025-08-15T04:48:07.246Z,5,GR86-021-86,76.10000000000001,0.303,0.793,100.01,1.0,,0.0,0.0,
2025-08-15T04:48:07.289Z,5,GR86-021-86,75.2,0.249,0.86,66.05,1.0,,0.0,0.0,
2025-08-15T04:48:07.332Z,5,GR86-021-86,71.4,0.227,0.901,54.13,1.0,6593.0,0.0,0.0,
2025-08-15T04:48:07.375Z,5,GR86-021-86,66.7,0.204,0.909,49.77,1.0,,0.0,0.0,86.84
2025-08-15T04:48:07.420Z,5,GR86-021-86,61.3,0.269,0.859,46.15,1.0,,0.0,0.0,
2025-08-15T04:48:07.463Z,5,GR86-021-86,55.2,0.246,0.924,45.19,1.0,,0.0,0.0,
2025-08-15T04:48:07.506Z,5,GR86-021-86,47.400000000000006,0.222,0.994,43.96,1.0,,0.0,0.0,
2025-08-15T04:48:07.550Z,5,GR86-021-86,37.6,0.156,0.7010000000000001,40.66,1.0,6907.0,0.0,0.0,
2025-08-15T04:48:07.592Z,5,GR86-021-86,32.4,0.149,0.932,40.93,1.0,,0.0,0.0,90.17
2025-08-15T04:48:07.636Z,5,GR86-021-86,28.6,0.328,0.834,41.43,1.0,,0.0,0.0,
2025-08-15T04:48:07.681Z,5,GR86-021-86,25.9,0.284,0.646,42.17,1.0,,0.0,0.0,
2025-08-15T04:48:07.723Z,5,GR86-021-86,23.4,0.167,0.662,44.06,1.0,,0.0,0.0,
2025-08-15T04:48:07.766Z,5,GR86-021-86,19.4,0.064,0.455,44.03,1.0,7040.0,0.0,0.0,
2025-08-15T04:48:07.810Z,5,GR86-021-86,10.4,0.297,0.626,43.43,1.0,,0.0,0.0,92.23
2025-08-15T04:48:07.852Z,5,GR86-021-86,4.9,0.001,0.101,44.02,1.0,,0.0,0.0,
2025-08-15T04:48:07.896Z,5,GR86-021-86,1.2000000000000002,-0.125,0.482,46.21,1.0,,0.0,0.0,
2025-08-15T04:48:07.939Z,5,GR86-021-86,-0.9,0.196,0.979,57.35,1.0,,0.0,0.0,
2025-08-15T04:48:07.982Z,5,GR86-021-86,-1.8,0.585,0.932,69.25,1.0,7193.0,0.0,0.0,
2025-08-15T04:48:08.024Z,5,GR86-021-86,-3.7,0.395,0.787,93.06,1.0,,0.0,0.0,93.4
2025-08-15T04:48:08.070Z,5,GR86-021-86,-3.3000000000000003,0.279,1.274,99.95,1.0,,0.0,0.0,
2025-08-15T04:48:08.156Z,5,GR86-021-86,-2.9000000000000004,0.542,1.012,100.06,1.0,,0.0,0.0,
2025-08-15T04:48:08.200Z,5,GR86-021-86,-2.3000000000000003,0.245,0.942,100.03,1.0,7265.0,0.0,0.0,
2025-08-15T04:48:08.242Z,5,GR86-021-86,0.9,0.142,0.646,100.04,1.0,,0.0,0.0,93.78
2025-08-15T04:48:08.286Z,5,GR86-021-86,5.1000000000000005,0.201,0.253,100.03,1.0,,0.0,0.0,
2025-08-15T04:48:08.330Z,5,GR86-021-86,13.9,0.251,0.148,100.03,1.0,,0.0,0.0,
2025-08-15T04:48:08.372Z,5,GR86-021-86,18.2,-0.115,0.086,100.02,1.0,,0.0,0.0,
2025-08-15T04:48:08.415Z,5,GR86-021-86,21.4,0.021,0.1,99.99,1.0,7271.0,0.0,0.0,
2025-08-15T04:48:08.460Z,5,GR86-021-86,22.8,0.094,0.185,100.01,2.0,,0.0,0.0,95.31
2025-08-15T04:48:08.502Z,5,GR86-021-86,22.8,0.089,-0.025,100.03,2.0,,0.0,0.0,
2025-08-15T04:48:08.546Z,5,GR86-021-86,24.0,1.114,0.072,100.03,2.0,,0.0,0.0,
2025-08-15T04:48:08.589Z,5,GR86-021-86,23.700000000000003,0.177,0.079,100.02,2.0,,0.0,0.0,
2025-08-15T04:48:08.632Z,5,GR86-021-86,22.5,0.204,0.248,100.02,2.0,7204.0,0.0,0.0,
2025-08-15T04:48:08.675Z,5,GR86-021-86,21.4,0.533,0.197,100.03,2.0,,0.0,0.0,98.17
2025-08-15T04:48:08.719Z,5,GR86-021-86,22.200000000000003,0.657,0.359,100.03,2.0,,0.0,0.0,
2025-08-15T04:48:08.762Z,5,GR86-021-86,22.3,0.59,0.523,100.02,2.0,,0.0,0.0,
2025-08-15T04:48:08.806Z,5,GR86-021-86,21.5,0.59,0.616,100.03,2.0,,0.0,0.0,
2025-08-15T04:48:08.850Z,5,GR86-021-86,22.0,0.192,0.484,100.0,2.0,6312.0,0.0,0.0,
2025-08-15T04:48:08.892Z,5,GR86-021-86,21.700000000000003,0.5680000000000001,0.508,100.01,2.0,,0.0,0.0,100.88
2025-08-15T04:48:08.935Z,5,GR86-021-86,16.1,0.748,0.402,100.03,2.0,,0.0,0.0,
2025-08-15T04:48:08.982Z,5,GR86-021-86,10.2,0.537,0.457,100.03,2.0,,0.0,0.0,
2025-08-15T04:48:09.024Z,5,GR86-021-86,4.9,0.195,0.36,100.03,2.0,,0.0,0.0,
2025-08-15T04:48:09.070Z,5,GR86-021-86,-4.3,0.61,0.393,100.03,2.0,6221.0,0.0,0.0,
2025-08-15T04:48:09.112Z,5,GR86-021-86,-7.6,0.619,0.427,100.02,2.0,,0.0,0.0,101.75
2025-08-15T04:48:09.156Z,5,GR86-021-86,-11.6,0.639,0.431,100.03,2.0,,0.0,0.0,
2025-08-15T04:48:09.200Z,5,GR86-021-86,-11.3,0.542,0.442,100.04,2.0,,0.0,0.0,
2025-08-15T04:48:09.242Z,5,GR86-021-86,-8.700000000000001,0.439,0.314,100.04,2.0,,0.0,0.0,
2025-08-15T04:48:09.286Z,5,GR86-021-86,-7.0,0.421,0.082,100.03,2.0,6072.0,0.0,0.0,
2025-08-15T04:48:09.329Z,5,GR86-021-86,-6.5,0.231,0.09,100.03,2.0,,0.0,0.0,104.04
2025-08-15T04:48:09.372Z,5,GR86-021-86,-5.9,0.352,0.026,100.03,2.0,,0.0,0.0,
2025-08-15T04:48:09.415Z,5,GR86-021-86,-4.9,0.41,-0.028,100.03,2.0,,0.0,0.0,
2025-08-15T04:48:09.460Z,5,GR86-021-86,-3.4000000000000004,0.479,-0.086,100.03,2.0,,0.0,0.0,
2025-08-15T04:48:09.502Z,5,GR86-021-86,-2.6,0.485,-0.156,100.04,2.0,6236.0,0.0,0.0,
2025-08-15T04:48:09.546Z,5,GR86-021-86,-0.1,0.486,-0.178,100.03,2.0,,0.0,0.0,105.51
2025-08-15T04:48:09.589Z,5,GR86-021-86,0.1,0.168,-0.112,100.0,2.0,,0.0,0.0,
2025-08-15T04:48:09.632Z,5,GR86-021-86,0.4,0.193,-0.105,100.03,2.0,,0.0,0.0,
2025-08-15T04:48:09.676Z,5,GR86-021-86,0.5,0.218,-0.101,100.03,2.0,,0.0,0.0,
2025-08-15T04:48:09.720Z,5,GR86-021-86,0.1,0.195,-0.116,100.0,2.0,6224.0,0.0,0.0,
2025-08-15T04:48:09.762Z,5,GR86-021-86,-1.9,0.249,-0.065,100.03,2.0,,0.0,0.0,107.27
2025-08-15T04:48:09.806Z,5,GR86-021-86,-2.8000000000000003,0.291,-0.065,100.02,2.0,,0.0,0.0,
2025-08-15T04:48:09.892Z,5,GR86-021-86,-4.4,0.315,-0.045,100.03,2.0,,0.0,0.0,
2025-08-15T04:48:09.935Z,5,GR86-021-86,-5.7,0.261,-0.056,100.03,2.0,6331.0,0.0,0.0,
2025-08-15T04:48:09.982Z,5,GR86-021-86,-5.4,0.211,-0.111,100.01,2.0,,0.0,0.0,108.76
2025-08-15T04:48:10.024Z,5,GR86-021-86,-4.3,0.297,-0.107,100.03,2.0,,0.0,0.0,
2025-08-15T04:48:10.070Z,5,GR86-021-86,-0.9,0.295,-0.128,100.03,2.0,,0.0,0.0,
2025-08-15T04:48:10.112Z,5,GR86-021-86,-0.8,0.25,-0.097,100.03,2.0,,0.0,0.0,
2025-08-15T04:48:10.156Z,5,GR86-021-86,-1.3,0.261,-0.096,100.04,2.0,6387.0,0.0,0.0,
2025-08-15T04:48:10.200Z,5,GR86-021-86,-2.1,0.272,-0.068,100.03,2.0,,0.0,0.0,110.39
2025-08-15T04:48:10.242Z,5,GR86-021-86,-2.4000000000000004,0.257,-0.029,100.0,2.0,,0.0,0.0,
2025-08-15T04:48:10.285Z,5,GR86-021-86,-2.4000000000000004,0.301,-0.027,100.03,2.0,,0.0,0.0,
2025-08-15T04:48:10.330Z,5,GR86-021-86,-2.6,0.275,-0.003,100.03,2.0,,0.0,0.0,
2025-08-15T04:48:10.372Z,5,GR86-021-86,-3.1,0.248,-0.018,100.02,2.0,6485.0,0.0,0.0,
2025-08-15T04:48:10.416Z,5,GR86-021-86,-3.6,0.259,-0.014,100.02,2.0,,0.0,0.0,111.85
2025-08-15T04:48:10.460Z,5,GR86-021-86,-3.8,0.28,-0.02,100.0,2.0,,0.0,0.0,
2025-08-15T04:48:10.502Z,5,GR86-021-86,-4.2,0.257,-0.028,100.03,2.0,,0.0,0.0,
2025-08-15T04:48:10.546Z,5,GR86-021-86,-4.6000000000000005,0.284,-0.048,100.03,2.0,,0.0,0.0,
2025-08-15T04:48:10.589Z,5,GR86-021-86,-5.2,0.273,-0.053,100.03,2.0,6561.0,0.0,0.0,
2025-08-15T04:48:10.632Z,5,GR86-021-86,-5.4,0.256,-0.065,100.04,2.0,,0.0,0.0,113.35
2025-08-15T04:48:10.676Z,5,GR86-021-86,-5.5,0.238,-0.073,100.01,2.0,,0.0,0.0,
2025-08-15T04:48:10.720Z,5,GR86-021-86,-5.7,0.283,-0.084,100.01,2.0,,0.0,0.0,
2025-08-15T04:48:10.806Z,5,GR86-021-86,-6.1000000000000005,0.26,-0.078,100.03,2.0,6630.0,0.0,0.0,
2025-08-15T04:48:10.850Z,5,GR86-021-86,-6.2,0.261,-0.099,100.01,2.0,,0.0,0.0,114.83
2025-08-15T04:48:10.892Z,5,GR86-021-86,-6.2,0.273,-0.11,100.02,2.0,,0.0,0.0,
2025-08-15T04:48:10.936Z,5,GR86-021-86,-6.2,0.252,-0.106,100.02,2.0,,0.0,0.0,
2025-08-15T04:48:10.982Z,5,GR86-021-86,-6.2,0.28,-0.106,100.03,2.0,,0.0,0.0,
2025-08-15T04:48:11.024Z,5,GR86-021-86,-6.2,0.282,-0.098,100.0,2.0,6712.0,0.0,0.0,
2025-08-15T04:48:11.070Z,5,GR86-021-86,-6.300000000000001,0.268,-0.104,100.0,2.0,,0.0,0.0,117.53
2025-08-15T04:48:11.112Z,5,GR86-021-86,-6.4,0.227,-0.103,100.0,2.0,,0.0,0.0,
2025-08-15T04:48:11.156Z,5,GR86-021-86,-6.4,0.283,-0.099,100.0,2.0,,0.0,0.0,
2025-08-15T04:48:11.200Z,5,GR86-021-86,-6.4,0.275,-0.095,100.01,2.0,,0.0,0.0,
2025-08-15T04:48:11.242Z,5,GR86-021-86,-6.4,0.252,-0.09,100.02,2.0,6777.0,0.0,0.0,
2025-08-15T04:48:11.286Z,5,GR86-021-86,-6.4,0.296,-0.099,99.99,2.0,,0.0,0.0,118.72
2025-08-15T04:48:11.329Z,5,GR86-021-86,-6.5,0.272,-0.113,100.04,2.0,,0.0,0.0,
2025-08-15T04:48:11.372Z,5,GR86-021-86,-6.5,0.258,-0.129,100.01,2.0,,0.0,0.0,
2025-08-15T04:48:11.460Z,5,GR86-021-86,-6.1000000000000005,0.284,-0.121,100.0,2.0,6854.0,0.0,0.0,
2025-08-15T04:48:11.502Z,5,GR86-021-86,-5.800000000000001,0.269,-0.13,100.0,2.0,,0.0,0.0,119.86
2025-08-15T04:48:11.546Z,5,GR86-021-86,-5.5,0.23,-0.122,99.99,2.0,,0.0,0.0,
2025-08-15T04:48:11.589Z,5,GR86-021-86,-5.4,0.235,-0.106,100.0,2.0,,0.0,0.0,
2025-08-15T04:48:11.632Z,5,GR86-021-86,-5.300000000000001,0.279,-0.114,100.03,2.0,,0.0,0.0,
2025-08-15T04:48:11.676Z,5,GR86-021-86,-5.1000000000000005,0.267,-0.121,100.04,2.0,6984.0,0.0,0.0,
2025-08-15T04:48:11.719Z,5,GR86-021-86,-5.1000000000000005,0.232,-0.104,100.0,2.0,,0.0,0.0,121.04
2025-08-15T04:48:11.762Z,5,GR86-021-86,-5.0,0.266,-0.103,100.03,2.0,,0.0,0.0,
2025-08-15T04:48:11.806Z,5,GR86-021-86,-5.0,0.261,-0.106,100.02,2.0,,0.0,0.0,
2025-08-15T04:48:11.850Z,5,GR86-021-86,-4.0,0.258,-0.11,100.01,2.0,,0.0,0.0,
2025-08-15T04:48:11.892Z,5,GR86-021-86,-3.0,0.225,-0.082,99.99,2.0,7047.0,0.0,0.0,
2025-08-15T04:48:11.936Z,5,GR86-021-86,-2.2,0.26,-0.064,100.0,2.0,,0.0,0.0,122.16
2025-08-15T04:48:11.982Z,5,GR86-021-86,-1.9,0.266,-0.067,100.03,2.0,,0.0,0.0,
2025-08-15T04:48:12.024Z,5,GR86-021-86,-1.6,0.218,-0.064,100.0,2.0,,0.0,0.0,
2025-08-15T04:48:12.070Z,5,GR86-021-86,-1.2000000000000002,0.225,-0.038,100.02,2.0,,0.0,0.0,
2025-08-15T04:48:12.112Z,5,GR86-021-86,-1.2000000000000002,0.251,-0.016,100.01,2.0,7111.0,0.0,0.0,
2025-08-15T04:48:12.156Z,5,GR86-021-86,-1.2000000000000002,0.263,-0.021,100.0,2.0,,0.0,0.0,123.25
2025-08-15T04:48:12.200Z,5,GR86-021-86,-1.1,0.24,-0.005,100.03,2.0,,0.0,0.0,
2025-08-15T04:48:12.242Z,5,GR86-021-86,-0.9,0.226,0.013,100.01,2.0,,0.0,0.0,
2025-08-15T04:48:12.286Z,5,GR86-021-86,-0.6000000000000001,0.263,0.016,100.02,2.0,,0.0,0.0,
2025-08-15T04:48:12.329Z,5,GR86-021-86,-0.4,0.274,0.03,100.0,2.0,7173.0,0.0,0.0,
2025-08-15T04:48:12.372Z,5,GR86-021-86,-0.4,0.243,0.02,100.01,2.0,,0.0,0.0,124.27
2025-08-15T04:48:12.415Z,5,GR86-021-86,-0.4,0.227,0.04,100.0,2.0,,0.0,0.0,
2025-08-15T04:48:12.460Z,5,GR86-021-86,-0.4,0.245,0.031,100.0,2.0,,0.0,0.0,
2025-08-15T04:48:12.502Z,5,GR86-021-86,-0.4,0.236,0.021,100.02,2.0,,0.0,0.0,
2025-08-15T04:48:12.546Z,5,GR86-021-86,-0.4,0.22,0.034,100.0,2.0,7220.0,0.0,0.0,
2025-08-15T04:48:12.589Z,5,GR86-021-86,-0.2,0.232,0.035,100.0,2.0,,0.0,0.0,125.36
2025-08-15T04:48:12.632Z,5,GR86-021-86,0.0,0.23,0.031,99.97,2.0,,0.0,0.0,
2025-08-15T04:48:12.676Z,5,GR86-021-86,0.0,0.146,0.02,99.99,2.0,,0.0,0.0,
2025-08-15T04:48:12.720Z,5,GR86-021-86,-0.2,-0.164,0.051,100.01,3.0,,0.0,0.0,
2025-08-15T04:48:12.762Z,5,GR86-021-86,0.9,0.608,0.068,99.99,3.0,7289.0,0.0,0.0,
2025-08-15T04:48:12.806Z,5,GR86-021-86,1.6,0.296,-0.045,99.99,3.0,,0.0,0.0,126.3
2025-08-15T04:48:12.850Z,5,GR86-021-86,1.2000000000000002,0.396,0.13,99.99,3.0,,0.0,0.0,
2025-08-15T04:48:12.892Z,5,GR86-021-86,1.3,0.219,0.008,99.99,3.0,,0.0,0.0,
2025-08-15T04:48:12.935Z,5,GR86-021-86,1.3,0.085,0.058,99.99,3.0,,0.0,0.0,
2025-08-15T04:48:12.982Z,5,GR86-021-86,1.1,0.137,0.124,99.99,3.0,6042.0,0.0,0.0,
2025-08-15T04:48:13.024Z,5,GR86-021-86,1.0,0.254,0.033,100.0,3.0,,0.0,0.0,127.03
2025-08-15T04:48:13.070Z,5,GR86-021-86,1.1,0.244,0.093,100.0,3.0,,0.0,0.0,
2025-08-15T04:48:13.112Z,5,GR86-021-86,1.1,0.197,0.076,99.99,3.0,,0.0,0.0,
2025-08-15T04:48:13.156Z,5,GR86-021-86,1.5,0.151,0.098,99.99,3.0,,0.0,0.0,
2025-08-15T04:48:13.200Z,5,GR86-021-86,2.6,0.208,0.107,99.99,3.0,6039.0,0.0,0.0,
2025-08-15T04:48:13.242Z,5,GR86-021-86,4.2,0.23,0.084,97.65,3.0,,0.0,0.0,128.29
2025-08-15T04:48:13.285Z,5,GR86-021-86,4.9,0.208,0.117,43.17,3.0,,0.0,0.0,
2025-08-15T04:48:13.330Z,5,GR86-021-86,5.0,0.193,0.132,5.69,3.0,,0.0,0.0,
2025-08-15T04:48:13.372Z,5,GR86-021-86,4.6000000000000005,0.158,0.166,4.23,3.0,,0.0,0.0,
2025-08-15T04:48:13.416Z,5,GR86-021-86,4.4,0.041,0.138,3.95,3.0,6058.0,0.0,0.0,
2025-08-15T04:48:13.460Z,5,GR86-021-86,4.1000000000000005,-0.091,0.175,3.53,3.0,,0.0,0.0,129.17000000000002
2025-08-15T04:48:13.546Z,5,GR86-021-86,4.1000000000000005,-0.256,0.148,3.19,3.0,,10.985,11.4,
2025-08-15T04:48:13.589Z,5,GR86-021-86,3.4000000000000004,-0.451,0.185,2.81,3.0,,35.92,36.03,
2025-08-15T04:48:13.632Z,5,GR86-021-86,3.3000000000000003,-0.585,0.183,2.74,3.0,5740.0,43.52,43.43,
2025-08-15T04:48:13.676Z,5,GR86-021-86,3.1,-0.762,0.21,2.72,3.0,,50.31,50.16,128.78
2025-08-15T04:48:13.720Z,5,GR86-021-86,3.1,-0.835,0.214,2.68,3.0,,55.18,55.01,
2025-08-15T04:48:13.762Z,5,GR86-021-86,3.1,-0.923,0.232,2.65,3.0,,57.805,57.65,
2025-08-15T04:48:13.806Z,5,GR86-021-86,3.2,-0.983,0.265,2.65,3.0,,59.21,58.965,
2025-08-15T04:48:13.892Z,5,GR86-021-86,3.3000000000000003,-1.057,0.295,2.62,3.0,5716.0,61.025,60.795,122.4
2025-08-15T04:48:13.936Z,5,GR86-021-86,4.9,-1.098,0.322,2.61,3.0,,61.85,61.88,
2025-08-15T04:48:13.982Z,5,GR86-021-86,7.300000000000001,-1.083,0.32,38.13,3.0,,61.68,61.74,
2025-08-15T04:48:14.070Z,5,GR86-021-86,17.1,-1.227,0.379,4.49,2.0,4930.0,63.620000000000005,65.71000000000001,
2025-08-15T04:48:14.112Z,5,GR86-021-86,19.1,-1.137,0.417,4.11,2.0,,61.27,63.085,116.17
2025-08-15T04:48:14.156Z,5,GR86-021-86,20.0,-1.039,0.531,3.62,2.0,,51.9,52.8,
2025-08-15T04:48:14.200Z,5,GR86-021-86,18.4,-0.93,0.546,3.22,2.0,,43.23,44.225,
2025-08-15T04:48:14.242Z,5,GR86-021-86,16.3,-0.7000000000000001,0.686,3.06,2.0,,33.910000000000004,34.87,
2025-08-15T04:48:14.286Z,5,GR86-021-86,15.4,-0.709,0.839,2.9,2.0,5345.0,25.575,26.46,
2025-08-15T04:48:14.329Z,5,GR86-021-86,13.1,-0.708,0.762,2.78,2.0,,18.86,19.7,108.34
2025-08-15T04:48:14.372Z,5,GR86-021-86,11.3,-0.322,0.859,2.74,2.0,,15.245,15.84,
2025-08-15T04:48:14.415Z,5,GR86-021-86,9.6,-0.451,0.946,2.74,2.0,,10.53,11.275,
2025-08-15T04:48:14.460Z,5,GR86-021-86,9.6,-0.419,0.944,2.69,2.0,,7.46,8.040000000000001,
2025-08-15T04:48:14.502Z,5,GR86-021-86,14.2,-0.374,0.892,2.67,2.0,5351.0,6.9,7.325,
2025-08-15T04:48:14.546Z,5,GR86-021-86,21.1,-0.283,0.99,2.65,2.0,,7.17,7.92,104.43
2025-08-15T04:48:14.589Z,5,GR86-021-86,31.0,-0.32,1.032,2.61,2.0,,7.735,8.395,
2025-08-15T04:48:14.632Z,5,GR86-021-86,37.5,-0.324,1.008,2.59,2.0,,7.735,8.21,
2025-08-15T04:48:14.675Z,5,GR86-021-86,42.900000000000006,-0.289,1.046,2.56,2.0,,6.9,7.525,
2025-08-15T04:48:14.762Z,5,GR86-021-86,47.900000000000006,-0.28,1.041,2.5500000000000003,2.0,5502.0,4.18,4.745,101.32
2025-08-15T04:48:14.806Z,5,GR86-021-86,60.2,-0.221,1.032,2.52,2.0,,0.0,0.0,
2025-08-15T04:48:14.850Z,5,GR86-021-86,71.8,-0.228,1.119,2.52,2.0,,0.0,0.0,
2025-08-15T04:48:14.892Z,5,GR86-021-86,78.80000000000001,-0.198,1.162,2.53,2.0,,0.0,0.0,
2025-08-15T04:48:14.936Z,5,GR86-021-86,83.5,-0.206,1.145,2.49,2.0,5421.0,0.0,0.0,
2025-08-15T04:48:14.982Z,5,GR86-021-86,83.60000000000001,-0.214,1.207,2.49,2.0,,0.0,0.0,98.69
2025-08-15T04:48:15.024Z,5,GR86-021-86,76.5,-0.23,1.214,3.9,2.0,,0.0,0.0,
2025-08-15T04:48:15.070Z,5,GR86-021-86,59.0,-0.199,1.183,4.36,2.0,,0.0,0.0,
2025-08-15T04:48:15.112Z,5,GR86-021-86,52.0,-0.195,1.191,5.78,2.0,,0.0,0.0,
2025-08-15T04:48:15.156Z,5,GR86-021-86,52.8,-0.194,1.152,18.52,2.0,5344.0,0.0,0.0,
2025-08-15T04:48:15.200Z,5,GR86-021-86,61.6,-0.185,1.185,20.38,2.0,,0.0,0.0,97.2
2025-08-15T04:48:15.242Z,5,GR86-021-86,74.4,-0.169,1.203,20.64,2.0,,0.0,0.0,
2025-08-15T04:48:15.286Z,5,GR86-021-86,86.4,-0.159,1.279,20.92,2.0,,0.0,0.0,
2025-08-15T04:48:15.329Z,5,GR86-021-86,93.3,-0.145,1.247,21.49,2.0,,0.0,0.0,
2025-08-15T04:48:15.372Z,5,GR86-021-86,89.80000000000001,-0.14,1.27,21.87,2.0,5309.0,0.0,0.0,
2025-08-15T04:48:15.415Z,5,GR86-021-86,83.9,0.057,1.264,21.9,2.0,,0.0,0.0,96.14
2025-08-15T04:48:15.460Z,5,GR86-021-86,81.2,0.052,1.206,21.93,2.0,,0.0,0.0,
2025-08-15T04:48:15.502Z,5,GR86-021-86,80.9,0.064,1.224,21.93,2.0,,0.0,0.0,
2025-08-15T04:48:15.546Z,5,GR86-021-86,80.60000000000001,0.019,1.161,21.97,2.0,,0.0,0.0,
2025-08-15T04:48:15.589Z,5,GR86-021-86,79.10000000000001,0.007,1.265,23.62,2.0,5489.0,0.0,0.0,
2025-08-15T04:48:15.632Z,5,GR86-021-86,79.30000000000001,0.004,1.246,24.88,2.0,,0.0,0.0,94.63
2025-08-15T04:48:15.676Z,5,GR86-021-86,81.4,0.016,1.28,25.11,2.0,,0.0,0.0,
2025-08-15T04:48:15.720Z,5,GR86-021-86,84.7,0.023,1.287,25.25,2.0,,0.0,0.0,
2025-08-15T04:48:15.762Z,5,GR86-021-86,88.2,0.055,1.255,25.33,2.0,,0.0,0.0,
2025-08-15T04:48:15.806Z,5,GR86-021-86,90.5,0.062,1.267,25.53,2.0,5413.0,0.0,0.0,
2025-08-15T04:48:15.850Z,5,GR86-021-86,89.60000000000001,0.05,1.252,28.62,2.0,,0.0,0.0,93.68
2025-08-15T04:48:15.892Z,5,GR86-021-86,87.7,0.042,1.232,30.09,2.0,,0.0,0.0,
2025-08-15T04:48:15.935Z,5,GR86-021-86,86.30000000000001,0.065,1.204,32.45,2.0,,0.0,0.0,
2025-08-15T04:48:15.982Z,5,GR86-021-86,85.60000000000001,0.073,1.235,36.13,2.0,,0.0,0.0,
2025-08-15T04:48:16.024Z,5,GR86-021-86,85.30000000000001,0.092,1.149,41.42,2.0,5431.0,0.0,0.0,
2025-08-15T04:48:16.070Z,5,GR86-021-86,84.7,0.141,1.142,61.57,2.0,,0.0,0.0,93.54
2025-08-15T04:48:16.112Z,5,GR86-021-86,83.80000000000001,0.163,1.144,93.85,2.0,,0.0,0.0,
2025-08-15T04:48:16.156Z,5,GR86-021-86,82.4,0.141,1.173,99.76,2.0,,0.0,0.0,
2025-08-15T04:48:16.200Z,5,GR86-021-86,81.5,0.201,1.13,100.02,2.0,,0.0,0.0,
2025-08-15T04:48:16.242Z,5,GR86-021-86,81.30000000000001,0.219,1.066,100.03,2.0,5471.0,0.0,0.0,
2025-08-15T04:48:16.285Z,5,GR86-021-86,81.30000000000001,0.218,1.072,100.03,2.0,,0.0,0.0,94.51
2025-08-15T04:48:16.330Z,5,GR86-021-86,81.30000000000001,0.219,1.115,93.11,2.0,,0.0,0.0,
2025-08-15T04:48:16.372Z,5,GR86-021-86,81.30000000000001,0.172,1.188,57.42,2.0,,0.0,0.0,
2025-08-15T04:48:16.416Z,5,GR86-021-86,81.30000000000001,0.191,1.208,44.77,2.0,,0.0,0.0,
2025-08-15T04:48:16.460Z,5,GR86-021-86,81.30000000000001,0.201,1.215,38.16,2.0,5561.0,0.0,0.0,
2025-08-15T04:48:16.502Z,5,GR86-021-86,81.30000000000001,0.19,1.189,38.01,2.0,,0.0,0.0,96.07
2025-08-15T04:48:16.546Z,5,GR86-021-86,81.10000000000001,0.156,1.156,38.63,2.0,,0.0,0.0,
2025-08-15T04:48:16.589Z,5,GR86-021-86,79.0,0.107,1.16,45.6,2.0,,0.0,0.0,
2025-08-15T04:48:16.632Z,5,GR86-021-86,75.4,0.101,1.219,60.36,2.0,,0.0,0.0,
2025-08-15T04:48:16.676Z,5,GR86-021-86,71.10000000000001,0.117,1.212,84.3,2.0,5703.0,0.0,0.0,
