timestamp,lap,vehicle_id,steering_angle,accx_can,accy_can,ath,gear,nmot,pbrake_f,pbrake_r,speed
2025-08-15T03:54:06.828Z,17,GR86-063-113,6.4,0.125,0.042,99.77,4.0,,0.0,0.0,183.0
2025-08-15T03:54:06.871Z,17,GR86-063-113,6.5,0.157,0.072,99.78,4.0,,0.0,0.0,
2025-08-15T03:54:06.915Z,17,GR86-063-113,6.6000000000000005,0.078,0.069,99.76,4.0,,0.0,0.0,
2025-08-15T03:54:06.957Z,17,GR86-063-113,6.6000000000000005,0.055,0.057,99.78,4.0,,0.0,0.0,
2025-08-15T03:54:07.000Z,17,GR86-063-113,6.6000000000000005,0.068,0.059,99.78,4.0,7183.0,0.0,0.0,
2025-08-15T03:54:07.044Z,17,GR86-063-113,6.6000000000000005,0.061,0.057,99.78,4.0,,0.0,0.0,183.71
2025-08-15T03:54:07.086Z,17,GR86-063-113,6.7,0.088,0.07,99.76,4.0,,0.0,0.0,
2025-08-15T03:54:07.129Z,17,GR86-063-113,6.7,0.073,0.055,99.75,4.0,,0.0,0.0,
2025-08-15T03:54:07.174Z,17,GR86-063-113,6.7,0.136,0.071,99.78,4.0,,0.0,0.0,
2025-08-15T03:54:07.217Z,17,GR86-063-113,6.800000000000001,0.125,0.075,99.75,4.0,7240.0,0.0,0.0,
2025-08-15T03:54:07.260Z,17,GR86-063-113,6.800000000000001,0.133,0.073,99.77,4.0,,0.0,0.0,184.44
2025-08-15T03:54:07.304Z,17,GR86-063-113,6.800000000000001,0.125,0.073,99.78,4.0,,0.0,0.0,
2025-08-15T03:54:07.347Z,17,GR86-063-113,6.7,0.118,0.059,99.74,4.0,,0.0,0.0,
2025-08-15T03:54:07.390Z,17,GR86-063-113,6.7,0.097,0.068,99.78,4.0,,0.0,0.0,
2025-08-15T03:54:07.434Z,17,GR86-063-113,6.800000000000001,0.094,0.06,99.77,4.0,7269.0,0.0,0.0,
2025-08-15T03:54:07.477Z,17,GR86-063-113,6.800000000000001,0.099,0.069,99.78,4.0,,0.0,0.0,185.24
2025-08-15T03:54:07.520Z,17,GR86-063-113,6.800000000000001,0.103,0.07,99.78,4.0,,0.0,0.0,
2025-08-15T03:54:07.565Z,17,GR86-063-113,6.800000000000001,0.012,0.063,99.78,4.0,,0.0,0.0,
2025-08-15T03:54:07.607Z,17,GR86-063-113,6.800000000000001,-0.134,0.097,99.78,5.0,,0.0,0.0,
2025-08-15T03:54:07.650Z,17,GR86-063-113,6.800000000000001,0.433,0.074,99.78,5.0,6965.0,0.0,0.0,
2025-08-15T03:54:07.694Z,17,GR86-063-113,6.9,0.04,0.063,99.78,5.0,,0.0,0.0,185.94
2025-08-15T03:54:07.737Z,17,GR86-063-113,6.800000000000001,-0.082,0.109,99.78,5.0,,0.0,0.0,
2025-08-15T03:54:07.780Z,17,GR86-063-113,6.7,0.075,0.034,99.78,5.0,,0.0,0.0,
2025-08-15T03:54:07.826Z,17,GR86-063-113,6.800000000000001,0.121,0.069,99.78,5.0,,0.0,0.0,
2025-08-15T03:54:07.868Z,17,GR86-063-113,6.7,0.066,0.095,99.77,5.0,6422.0,0.0,0.0,
2025-08-15T03:54:07.911Z,17,GR86-063-113,6.6000000000000005,0.001,0.014,99.78,5.0,,0.0,0.0,186.6
2025-08-15T03:54:07.954Z,17,GR86-063-113,6.6000000000000005,0.134,0.054,99.78,5.0,,0.0,0.0,
2025-08-15T03:54:07.997Z,17,GR86-063-113,6.7,0.119,0.006,99.78,5.0,,0.0,0.0,
2025-08-15T03:54:08.040Z,17,GR86-063-113,6.7,0.083,0.018,99.78,5.0,,0.0,0.0,
2025-08-15T03:54:08.084Z,17,GR86-063-113,6.6000000000000005,0.109,0.032,99.78,5.0,6358.0,0.0,0.0,
2025-08-15T03:54:08.126Z,17,GR86-063-113,6.6000000000000005,0.087,0.03,99.76,5.0,,0.0,0.0,187.31
2025-08-15T03:54:08.169Z,17,GR86-063-113,6.6000000000000005,0.073,0.024,99.78,5.0,,0.0,0.0,
2025-08-15T03:54:08.214Z,17,GR86-063-113,6.6000000000000005,0.079,0.036,99.78,5.0,,0.0,0.0,
2025-08-15T03:54:08.257Z,17,GR86-063-113,6.6000000000000005,0.086,0.012,99.77,5.0,,0.0,0.0,
2025-08-15T03:54:08.300Z,17,GR86-063-113,6.6000000000000005,0.092,0.019,99.78,5.0,6386.0,0.0,0.0,
2025-08-15T03:54:08.344Z,17,GR86-063-113,6.5,0.078,0.019,99.77,5.0,,0.0,0.0,187.94
2025-08-15T03:54:08.386Z,17,GR86-063-113,6.5,0.095,0.03,99.78,5.0,,0.0,0.0,
2025-08-15T03:54:08.429Z,17,GR86-063-113,6.6000000000000005,0.095,0.047,99.78,5.0,,0.0,0.0,
2025-08-15T03:54:08.474Z,17,GR86-063-113,6.6000000000000005,0.06,0.046,99.77,5.0,,0.0,0.0,
2025-08-15T03:54:08.560Z,17,GR86-063-113,6.5,0.081,0.041,99.78,5.0,6406.0,0.0,0.0,188.57
2025-08-15T03:54:08.604Z,17,GR86-063-113,6.5,0.069,0.038,99.77,5.0,,0.0,0.0,
2025-08-15T03:54:08.646Z,17,GR86-063-113,6.5,0.067,0.042,99.78,5.0,,0.0,0.0,
2025-08-15T03:54:08.689Z,17,GR86-063-113,6.4,0.074,0.027,99.77,5.0,,0.0,0.0,
2025-08-15T03:54:08.734Z,17,GR86-063-113,6.4,0.062,0.017,99.78,5.0,6421.0,0.0,0.0,
2025-08-15T03:54:08.777Z,17,GR86-063-113,6.300000000000001,0.08,0.007,99.77,5.0,,0.0,0.0,189.22
2025-08-15T03:54:08.820Z,17,GR86-063-113,6.300000000000001,0.06,0.018,99.77,5.0,,0.0,0.0,
2025-08-15T03:54:08.864Z,17,GR86-063-113,6.300000000000001,0.085,-0.002,99.78,5.0,,0.0,0.0,
2025-08-15T03:54:08.907Z,17,GR86-063-113,6.2,0.059,0.01,99.78,5.0,,0.0,0.0,
2025-08-15T03:54:08.950Z,17,GR86-063-113,6.1000000000000005,0.071,0.004,99.77,5.0,6449.0,0.0,0.0,
2025-08-15T03:54:08.994Z,17,GR86-063-113,6.0,0.079,-0.017,99.78,5.0,,0.0,0.0,189.8
2025-08-15T03:54:09.037Z,17,GR86-063-113,6.0,0.083,-0.012,99.78,5.0,,0.0,0.0,
2025-08-15T03:54:09.080Z,17,GR86-063-113,5.9,0.066,-0.009,99.78,5.0,,0.0,0.0,
2025-08-15T03:54:09.125Z,17,GR86-063-113,5.800000000000001,0.083,-0.017,99.78,5.0,,0.0,0.0,
2025-08-15T03:54:09.168Z,17,GR86-063-113,5.800000000000001,0.07,-0.016,99.78,5.0,6470.0,0.0,0.0,
2025-08-15T03:54:09.211Z,17,GR86-063-113,5.800000000000001,0.076,-0.014,99.78,5.0,,0.0,0.0,190.32
2025-08-15T03:54:09.254Z,17,GR86-063-113,5.6000000000000005,0.069,-0.02,99.78,5.0,,0.0,0.0,
2025-08-15T03:54:09.297Z,17,GR86-063-113,5.5,0.06,-0.027,99.78,5.0,,0.0,0.0,
2025-08-15T03:54:09.340Z,17,GR86-063-113,5.5,0.073,-0.042,99.78,5.0,,0.0,0.0,
2025-08-15T03:54:09.384Z,17,GR86-063-113,5.4,0.07,-0.058,99.77,5.0,6486.0,0.0,0.0,
2025-08-15T03:54:09.427Z,17,GR86-063-113,5.4,0.062,-0.062,99.78,5.0,,0.0,0.0,191.44
2025-08-15T03:54:09.470Z,17,GR86-063-113,5.4,0.066,-0.049,99.78,5.0,,0.0,0.0,
2025-08-15T03:54:09.515Z,17,GR86-063-113,5.4,0.058,-0.058,99.78,5.0,,0.0,0.0,
2025-08-15T03:54:09.558Z,17,GR86-063-113,5.4,0.068,-0.052,99.78,5.0,,0.0,0.0,
2025-08-15T03:54:09.601Z,17,GR86-063-113,5.300000000000001,0.054,-0.049,99.77,5.0,6509.0,0.0,0.0,
2025-08-15T03:54:09.644Z,17,GR86-063-113,5.2,0.051,-0.06,99.78,5.0,,0.0,0.0,192.07
2025-08-15T03:54:09.687Z,17,GR86-063-113,5.1000000000000005,0.053,-0.066,99.78,5.0,,0.0,0.0,
2025-08-15T03:54:09.730Z,17,GR86-063-113,5.1000000000000005,0.047,-0.082,99.77,5.0,,0.0,0.0,
2025-08-15T03:54:09.774Z,17,GR86-063-113,5.0,0.074,-0.049,99.77,5.0,,0.0,0.0,
2025-08-15T03:54:09.817Z,17,GR86-063-113,5.1000000000000005,0.052,-0.053,99.76,5.0,6548.0,0.0,0.0,
2025-08-15T03:54:09.860Z,17,GR86-063-113,5.1000000000000005,0.052,-0.065,99.78,5.0,,0.0,0.0,192.59
2025-08-15T03:54:09.904Z,17,GR86-063-113,5.1000000000000005,0.042,-0.072,99.77,5.0,,0.0,0.0,
2025-08-15T03:54:09.946Z,17,GR86-063-113,5.1000000000000005,0.054,-0.052,99.78,5.0,,0.0,0.0,
2025-08-15T03:54:09.989Z,17,GR86-063-113,5.300000000000001,0.042,-0.046,99.78,5.0,,0.0,0.0,
2025-08-15T03:54:10.034Z,17,GR86-063-113,5.300000000000001,0.068,-0.048,99.77,5.0,6562.0,0.0,0.0,
2025-08-15T03:54:10.076Z,17,GR86-063-113,5.300000000000001,0.076,-0.053,99.78,5.0,,0.0,0.0,193.2
2025-08-15T03:54:10.119Z,17,GR86-063-113,5.2,0.056,-0.04,99.78,5.0,,0.0,0.0,
2025-08-15T03:54:10.164Z,17,GR86-063-113,5.1000000000000005,0.049,-0.053,99.78,5.0,,0.0,0.0,
2025-08-15T03:54:10.207Z,17,GR86-063-113,5.1000000000000005,0.036,-0.048,99.77,5.0,,0.0,0.0,
2025-08-15T03:54:10.250Z,17,GR86-063-113,5.0,0.078,-0.04,99.77,5.0,6584.0,0.0,0.0,
2025-08-15T03:54:10.294Z,17,GR86-063-113,5.1000000000000005,0.083,-0.034,99.78,5.0,,0.0,0.0,193.69
2025-08-15T03:54:10.337Z,17,GR86-063-113,5.2,0.055,-0.051,99.77,5.0,,0.0,0.0,
2025-08-15T03:54:10.380Z,17,GR86-063-113,5.2,0.089,-0.046,99.78,5.0,,0.0,0.0,
2025-08-15T03:54:10.425Z,17,GR86-063-113,5.1000000000000005,0.051,-0.035,99.78,5.0,,0.0,0.0,
2025-08-15T03:54:10.468Z,17,GR86-063-113,5.1000000000000005,0.045,-0.042,99.77,5.0,6607.0,0.0,0.0,
2025-08-15T03:54:10.511Z,17,GR86-063-113,5.2,0.03,-0.038,99.78,5.0,,0.0,0.0,194.16
2025-08-15T03:54:10.554Z,17,GR86-063-113,5.300000000000001,0.084,-0.044,99.78,5.0,,0.0,0.0,
2025-08-15T03:54:10.597Z,17,GR86-063-113,5.4,0.071,-0.042,99.78,5.0,,0.0,0.0,
2025-08-15T03:54:10.640Z,17,GR86-063-113,5.300000000000001,0.074,-0.062,99.77,5.0,,0.0,0.0,
2025-08-15T03:54:10.684Z,17,GR86-063-113,5.300000000000001,0.059,-0.046,99.77,5.0,6616.0,0.0,0.0,
2025-08-15T03:54:10.727Z,17,GR86-063-113,5.2,0.052,-0.041,99.78,5.0,,0.0,0.0,194.75
2025-08-15T03:54:10.770Z,17,GR86-063-113,5.2,0.021,-0.037,99.78,5.0,,0.0,0.0,
2025-08-15T03:54:10.814Z,17,GR86-063-113,5.4,0.084,-0.032,99.76,5.0,,0.0,0.0,
2025-08-15T03:54:10.857Z,17,GR86-063-113,5.4,0.087,-0.034,99.78,5.0,,0.0,0.0,
2025-08-15T03:54:10.900Z,17,GR86-063-113,5.4,0.067,-0.035,99.77,5.0,6644.0,0.0,0.0,
2025-08-15T03:54:10.944Z,17,GR86-063-113,5.300000000000001,0.068,-0.039,99.78,5.0,,0.0,0.0,195.38
2025-08-15T03:54:10.986Z,17,GR86-063-113,5.300000000000001,0.034,-0.011,99.78,5.0,,0.0,0.0,
2025-08-15T03:54:11.029Z,17,GR86-063-113,5.300000000000001,0.038,-0.036,99.77,5.0,,0.0,0.0,
2025-08-15T03:54:11.074Z,17,GR86-063-113,5.300000000000001,0.102,-0.05,99.78,5.0,,0.0,0.0,
2025-08-15T03:54:11.117Z,17,GR86-063-113,5.2,0.066,-0.041,99.77,5.0,6656.0,0.0,0.0,
2025-08-15T03:54:11.160Z,17,GR86-063-113,5.2,0.057,-0.015,99.78,5.0,,0.0,0.0,196.0
2025-08-15T03:54:11.204Z,17,GR86-063-113,5.300000000000001,0.075,-0.008,99.78,5.0,,0.0,0.0,
2025-08-15T03:54:11.247Z,17,GR86-063-113,5.4,0.033,0.0,99.78,5.0,,0.0,0.0,
2025-08-15T03:54:11.290Z,17,GR86-063-113,5.4,0.028,-0.023,99.78,5.0,,0.0,0.0,
2025-08-15T03:54:11.334Z,17,GR86-063-113,5.300000000000001,0.089,-0.015,99.77,5.0,6700.0,0.0,0.0,
2025-08-15T03:54:11.377Z,17,GR86-063-113,5.300000000000001,0.084,-0.023,99.78,5.0,,0.0,0.0,196.54
2025-08-15T03:54:11.420Z,17,GR86-063-113,5.2,0.058,-0.034,99.77,5.0,,0.0,0.0,
2025-08-15T03:54:11.465Z,17,GR86-063-113,5.1000000000000005,0.052,-0.023,99.78,5.0,,0.0,0.0,
2025-08-15T03:54:11.507Z,17,GR86-063-113,5.1000000000000005,0.034,-0.022,99.78,5.0,,0.0,0.0,
2025-08-15T03:54:11.550Z,17,GR86-063-113,5.300000000000001,0.022,-0.019,99.78,5.0,6704.0,0.0,0.0,
2025-08-15T03:54:11.594Z,17,GR86-063-113,5.300000000000001,0.095,-0.003,99.78,5.0,,0.0,0.0,197.18
2025-08-15T03:54:11.637Z,17,GR86-063-113,5.300000000000001,0.076,-0.015,99.78,5.0,,0.0,0.0,
2025-08-15T03:54:11.680Z,17,GR86-063-113,5.2,0.043,-0.011,99.77,5.0,,0.0,0.0,
2025-08-15T03:54:11.726Z,17,GR86-063-113,5.1000000000000005,0.043,-0.017,99.78,5.0,,0.0,0.0,
2025-08-15T03:54:11.769Z,17,GR86-063-113,5.1000000000000005,0.026,-0.035,99.77,5.0,6721.0,0.0,0.0,
2025-08-15T03:54:11.857Z,17,GR86-063-113,5.0,0.058,-0.056,99.78,5.0,,0.0,0.0,
2025-08-15T03:54:11.900Z,17,GR86-063-113,5.0,0.048,-0.049,99.77,5.0,,0.0,0.0,
2025-08-15T03:54:11.986Z,17,GR86-063-113,5.2,0.026,-0.033,99.78,5.0,6739.0,0.0,0.0,
2025-08-15T03:54:12.029Z,17,GR86-063-113,5.300000000000001,0.037,-0.023,99.77,5.0,,0.0,0.0,198.97
2025-08-15T03:54:12.074Z,17,GR86-063-113,5.4,0.067,-0.009,99.78,5.0,,0.0,0.0,
2025-08-15T03:54:12.160Z,17,GR86-063-113,5.300000000000001,0.023,-0.009,99.78,5.0,,0.0,0.0,
2025-08-15T03:54:12.204Z,17,GR86-063-113,5.4,0.052,-0.023,99.78,5.0,6758.0,0.0,0.0,198.4
2025-08-15T03:54:12.246Z,17,GR86-063-113,5.300000000000001,0.039,-0.02,99.78,5.0,,0.0,0.0,199.58
2025-08-15T03:54:12.289Z,17,GR86-063-113,5.2,0.056,-0.026,99.77,5.0,,0.0,0.0,
2025-08-15T03:54:12.334Z,17,GR86-063-113,4.800000000000001,0.05,-0.003,99.78,5.0,,0.0,0.0,
2025-08-15T03:54:12.377Z,17,GR86-063-113,4.4,0.019,0.003,99.78,5.0,,0.0,0.0,
2025-08-15T03:54:12.420Z,17,GR86-063-113,4.3,0.032,-0.035,99.78,5.0,6801.0,0.0,0.0,
2025-08-15T03:54:12.507Z,17,GR86-063-113,4.4,0.055,-0.021,99.77,5.0,,0.0,0.0,200.14
2025-08-15T03:54:12.550Z,17,GR86-063-113,4.4,0.077,-0.046,99.77,5.0,,0.0,0.0,
2025-08-15T03:54:12.594Z,17,GR86-063-113,4.3,0.01,-0.081,99.77,5.0,,0.0,0.0,
2025-08-15T03:54:12.637Z,17,GR86-063-113,4.4,0.042,-0.086,99.78,5.0,6818.0,0.0,0.0,
2025-08-15T03:54:12.680Z,17,GR86-063-113,4.5,0.062,-0.088,99.77,5.0,,0.0,0.0,200.75
2025-08-15T03:54:12.725Z,17,GR86-063-113,4.6000000000000005,0.075,-0.111,99.77,5.0,,0.0,0.0,
2025-08-15T03:54:12.768Z,17,GR86-063-113,4.4,0.091,-0.078,99.77,5.0,,0.0,0.0,
2025-08-15T03:54:12.811Z,17,GR86-063-113,4.4,0.066,-0.062,99.77,5.0,,0.0,0.0,
2025-08-15T03:54:12.854Z,17,GR86-063-113,4.6000000000000005,0.057,-0.073,99.77,5.0,6843.0,0.0,0.0,
2025-08-15T03:54:12.897Z,17,GR86-063-113,4.800000000000001,0.083,-0.082,99.77,5.0,,0.0,0.0,201.3
2025-08-15T03:54:12.940Z,17,GR86-063-113,4.800000000000001,0.076,-0.068,99.77,5.0,,0.0,0.0,
2025-08-15T03:54:12.984Z,17,GR86-063-113,4.800000000000001,0.084,-0.044,99.78,5.0,,0.0,0.0,
2025-08-15T03:54:13.026Z,17,GR86-063-113,4.9,0.057,-0.05,99.78,5.0,,0.0,0.0,
2025-08-15T03:54:13.069Z,17,GR86-063-113,4.9,0.044,-0.046,99.79,5.0,6856.0,0.0,0.0,
2025-08-15T03:54:13.115Z,17,GR86-063-113,5.1000000000000005,0.112,-0.06,99.78,5.0,,0.0,0.0,201.84
2025-08-15T03:54:13.158Z,17,GR86-063-113,5.1000000000000005,0.062,-0.044,99.78,5.0,,0.0,0.0,
2025-08-15T03:54:13.201Z,17,GR86-063-113,5.1000000000000005,0.068,-0.028,99.78,5.0,,0.0,0.0,
2025-08-15T03:54:13.244Z,17,GR86-063-113,5.1000000000000005,0.039,0.004,99.77,5.0,,0.0,0.0,
2025-08-15T03:54:13.287Z,17,GR86-063-113,5.300000000000001,0.045,0.004,99.77,5.0,6859.0,0.0,0.0,
2025-08-15T03:54:13.330Z,17,GR86-063-113,5.5,0.015,0.009,99.77,5.0,,0.0,0.0,202.3
2025-08-15T03:54:13.374Z,17,GR86-063-113,5.6000000000000005,0.055,0.016,99.77,5.0,,0.0,0.0,
2025-08-15T03:54:13.417Z,17,GR86-063-113,5.6000000000000005,0.043,0.0,99.78,5.0,,0.0,0.0,
2025-08-15T03:54:13.460Z,17,GR86-063-113,5.5,0.033,0.01,99.77,5.0,,0.0,0.0,
2025-08-15T03:54:13.504Z,17,GR86-063-113,5.4,0.046,0.017,99.78,5.0,6881.0,0.0,0.0,
2025-08-15T03:54:13.547Z,17,GR86-063-113,5.4,0.024,-0.013,99.78,5.0,,0.0,0.0,202.69
2025-08-15T03:54:13.590Z,17,GR86-063-113,5.5,0.086,0.037,99.76,5.0,,0.0,0.0,
2025-08-15T03:54:13.634Z,17,GR86-063-113,5.7,0.056,0.054,99.77,5.0,,0.0,0.0,
2025-08-15T03:54:13.677Z,17,GR86-063-113,5.9,0.027,0.054,99.77,5.0,,0.0,0.0,
2025-08-15T03:54:13.720Z,17,GR86-063-113,6.0,0.048,0.024,99.77,5.0,6905.0,0.0,0.0,
2025-08-15T03:54:13.764Z,17,GR86-063-113,6.0,0.065,0.021,99.78,5.0,,0.0,0.0,203.17
2025-08-15T03:54:13.807Z,17,GR86-063-113,5.9,0.082,0.032,99.77,5.0,,0.0,0.0,
2025-08-15T03:54:13.850Z,17,GR86-063-113,5.800000000000001,0.08,0.038,99.77,5.0,,0.0,0.0,
2025-08-15T03:54:13.894Z,17,GR86-063-113,5.6000000000000005,0.058,0.04,99.77,5.0,,0.0,0.0,
2025-08-15T03:54:13.937Z,17,GR86-063-113,5.5,0.074,0.044,99.77,5.0,6920.0,0.0,0.0,
2025-08-15T03:54:13.980Z,17,GR86-063-113,5.4,0.075,0.035,99.77,5.0,,0.0,0.0,203.63
2025-08-15T03:54:14.025Z,17,GR86-063-113,5.4,0.062,0.019,99.78,5.0,,0.0,0.0,
2025-08-15T03:54:14.068Z,17,GR86-063-113,5.300000000000001,0.051,0.016,99.78,5.0,,0.0,0.0,
2025-08-15T03:54:14.111Z,17,GR86-063-113,5.2,0.036,0.016,99.77,5.0,,0.0,0.0,
2025-08-15T03:54:14.154Z,17,GR86-063-113,5.2,0.071,0.014,99.77,5.0,6925.0,0.0,0.0,
2025-08-15T03:54:14.197Z,17,GR86-063-113,5.300000000000001,0.06,0.009,99.77,5.0,,0.0,0.0,204.11
2025-08-15T03:54:14.240Z,17,GR86-063-113,5.300000000000001,0.032,0.012,99.77,5.0,,0.0,0.0,
2025-08-15T03:54:14.284Z,17,GR86-063-113,5.2,0.063,0.009,99.78,5.0,,0.0,0.0,
2025-08-15T03:54:14.327Z,17,GR86-063-113,5.1000000000000005,0.023,-0.022,99.78,5.0,,0.0,0.0,
2025-08-15T03:54:14.370Z,17,GR86-063-113,4.9,0.065,-0.026,99.78,5.0,6952.0,0.0,0.0,
2025-08-15T03:54:14.414Z,17,GR86-063-113,4.6000000000000005,0.063,-0.007,99.78,5.0,,0.0,0.0,205.06
2025-08-15T03:54:14.457Z,17,GR86-063-113,4.6000000000000005,0.029,-0.027,99.78,5.0,,0.0,0.0,
2025-08-15T03:54:14.500Z,17,GR86-063-113,4.800000000000001,0.032,-0.013,99.77,5.0,,0.0,0.0,
2025-08-15T03:54:14.543Z,17,GR86-063-113,4.9,0.078,-0.035,99.77,5.0,,0.0,0.0,
2025-08-15T03:54:14.586Z,17,GR86-063-113,5.0,0.042,-0.048,99.78,5.0,6974.0,0.0,0.0,
2025-08-15T03:54:14.629Z,17,GR86-063-113,4.9,0.051,-0.045,99.78,5.0,,0.0,0.0,205.57
2025-08-15T03:54:14.674Z,17,GR86-063-113,4.9,0.049,-0.031,99.78,5.0,,0.0,0.0,
2025-08-15T03:54:14.717Z,17,GR86-063-113,4.800000000000001,0.064,-0.015,99.76,5.0,,0.0,0.0,
2025-08-15T03:54:14.760Z,17,GR86-063-113,4.800000000000001,0.036,-0.038,99.77,5.0,,0.0,0.0,
2025-08-15T03:54:14.804Z,17,GR86-063-113,4.800000000000001,0.055,-0.03,99.79,5.0,6977.0,0.0,0.0,
2025-08-15T03:54:14.847Z,17,GR86-063-113,4.7,0.038,-0.039,99.75,5.0,,0.0,0.0,205.99
2025-08-15T03:54:14.890Z,17,GR86-063-113,4.7,0.044,-0.026,99.77,5.0,,0.0,0.0,
2025-08-15T03:54:14.934Z,17,GR86-063-113,4.7,0.041,-0.027,99.78,5.0,,0.0,0.0,
2025-08-15T03:54:14.977Z,17,GR86-063-113,4.7,0.055,-0.046,99.77,5.0,,0.0,0.0,
2025-08-15T03:54:15.020Z,17,GR86-063-113,4.7,0.044,-0.027,99.77,5.0,7020.0,0.0,0.0,
2025-08-15T03:54:15.065Z,17,GR86-063-113,4.800000000000001,0.052,-0.053,99.78,5.0,,0.0,0.0,206.51
2025-08-15T03:54:15.107Z,17,GR86-063-113,4.800000000000001,0.047,-0.049,99.78,5.0,,0.0,0.0,
2025-08-15T03:54:15.150Z,17,GR86-063-113,4.800000000000001,0.042,-0.083,99.77,5.0,,0.0,0.0,
2025-08-15T03:54:15.194Z,17,GR86-063-113,4.6000000000000005,0.059,-0.062,99.78,5.0,,0.0,0.0,
2025-08-15T03:54:15.237Z,17,GR86-063-113,4.6000000000000005,0.042,-0.068,99.78,5.0,7024.0,0.0,0.0,
2025-08-15T03:54:15.280Z,17,GR86-063-113,4.7,0.034,-0.077,99.77,5.0,,0.0,0.0,206.94
2025-08-15T03:54:15.326Z,17,GR86-063-113,4.9,0.028,-0.061,99.78,5.0,,0.0,0.0,
2025-08-15T03:54:15.368Z,17,GR86-063-113,5.1000000000000005,0.029,-0.088,99.78,5.0,,0.0,0.0,
2025-08-15T03:54:15.411Z,17,GR86-063-113,5.300000000000001,0.037,-0.081,99.77,5.0,,0.0,0.0,
2025-08-15T03:54:15.454Z,17,GR86-063-113,5.300000000000001,0.02,-0.055,99.76,5.0,7040.0,0.0,0.0,
2025-08-15T03:54:15.497Z,17,GR86-063-113,5.300000000000001,0.042,-0.038,99.78,5.0,,0.0,0.0,207.2
2025-08-15T03:54:15.540Z,17,GR86-063-113,5.4,0.04,-0.022,99.78,5.0,,0.0,0.0,
2025-08-15T03:54:15.583Z,17,GR86-063-113,5.6000000000000005,0.041,-0.027,99.77,5.0,,0.0,0.0,
2025-08-15T03:54:15.626Z,17,GR86-063-113,5.4,0.048,-0.011,99.78,5.0,,0.0,0.0,
2025-08-15T03:54:15.669Z,17,GR86-063-113,5.300000000000001,0.042,-0.02,99.75,5.0,7050.0,5.37,5.555,
2025-08-15T03:54:15.714Z,17,GR86-063-113,5.7,-0.041,0.017,32.4,5.0,,15.03,15.125,207.52
2025-08-15T03:54:15.757Z,17,GR86-063-113,6.300000000000001,-0.162,0.039,5.68,5.0,,23.62,23.53,
2025-08-15T03:54:15.800Z,17,GR86-063-113,7.300000000000001,-0.397,0.025,4.65,5.0,,32.87,32.505,
2025-08-15T03:54:15.844Z,17,GR86-063-113,7.800000000000001,-0.756,0.043,4.59,5.0,,42.3,41.965,
2025-08-15T03:54:15.886Z,17,GR86-063-113,7.800000000000001,-0.856,0.067,4.6000000000000005,5.0,6980.0,51.595,51.03,
2025-08-15T03:54:15.929Z,17,GR86-063-113,7.4,-1.217,0.023,37.8,5.0,,59.42,58.795,207.66
2025-08-15T03:54:15.974Z,17,GR86-063-113,6.300000000000001,-1.16,0.05,87.39,4.0,,66.425,68.0,
2025-08-15T03:54:16.017Z,17,GR86-063-113,6.2,-1.268,-0.03,31.83,4.0,,68.245,69.645,
2025-08-15T03:54:16.060Z,17,GR86-063-113,5.7,-1.207,0.047,3.56,4.0,,70.425,72.3,
2025-08-15T03:54:16.104Z,17,GR86-063-113,4.9,-1.194,-0.007,3.1,4.0,6572.0,70.805,71.675,
2025-08-15T03:54:16.146Z,17,GR86-063-113,5.0,-1.191,-0.011,2.95,4.0,,67.175,66.99,202.97
2025-08-15T03:54:16.189Z,17,GR86-063-113,4.9,-1.171,0.029,2.82,4.0,,66.73,68.18,
2025-08-15T03:54:16.234Z,17,GR86-063-113,5.1000000000000005,-1.154,-0.019,2.75,4.0,,64.81,65.555,
2025-08-15T03:54:16.277Z,17,GR86-063-113,5.300000000000001,-1.115,0.059,2.72,4.0,,62.46,63.205,
2025-08-15T03:54:16.320Z,17,GR86-063-113,5.300000000000001,-1.248,-0.013,2.67,4.0,7315.0,61.485,62.335,
2025-08-15T03:54:16.364Z,17,GR86-063-113,4.800000000000001,-1.194,-0.033,2.62,4.0,,61.24,62.0,193.92
2025-08-15T03:54:16.407Z,17,GR86-063-113,4.0,-1.234,-0.011,2.61,4.0,,60.34,60.825,
2025-08-15T03:54:16.450Z,17,GR86-063-113,3.8,-1.228,-0.061,2.58,4.0,,60.11,60.58,
2025-08-15T03:54:16.494Z,17,GR86-063-113,3.9,-1.173,-0.085,2.5500000000000003,4.0,,60.11,60.2,
2025-08-15T03:54:16.537Z,17,GR86-063-113,4.0,-1.183,-0.117,2.54,4.0,6863.0,60.11,60.49,
2025-08-15T03:54:16.580Z,17,GR86-063-113,3.9,-1.187,-0.127,2.52,4.0,,60.08,60.49,185.47
2025-08-15T03:54:16.626Z,17,GR86-063-113,4.2,-1.193,-0.134,2.52,4.0,,60.08,60.34,
2025-08-15T03:54:16.668Z,17,GR86-063-113,4.9,-1.157,-0.135,6.36,4.0,,60.765,62.125,
2025-08-15T03:54:16.711Z,17,GR86-063-113,8.9,-1.194,-0.128,45.76,4.0,,60.825,62.275,
2025-08-15T03:54:16.754Z,17,GR86-063-113,10.4,-1.166,-0.078,99.72,4.0,6517.0,57.865,58.735,
2025-08-15T03:54:16.797Z,17,GR86-063-113,10.7,-1.082,-0.151,97.75,3.0,,54.555,55.395,178.14
2025-08-15T03:54:16.840Z,17,GR86-063-113,10.9,-1.117,-0.161,39.88,3.0,,51.06,51.9,
2025-08-15T03:54:16.884Z,17,GR86-063-113,10.6,-1.096,0.017,3.39,3.0,,50.005,51.335,
2025-08-15T03:54:16.926Z,17,GR86-063-113,8.5,-1.106,-0.132,2.95,3.0,,48.895,49.73,
2025-08-15T03:54:16.969Z,17,GR86-063-113,5.300000000000001,-1.038,-0.155,2.84,3.0,6369.0,46.465,46.835,
2025-08-15T03:54:17.058Z,17,GR86-063-113,-2.9000000000000004,-0.925,-0.175,2.77,3.0,,46.3,46.925,163.1
2025-08-15T03:54:17.101Z,17,GR86-063-113,-13.2,-0.998,-0.213,2.69,3.0,,46.115,47.015,
2025-08-15T03:54:17.144Z,17,GR86-063-113,-14.2,-0.934,-0.412,2.65,3.0,,46.405,47.215,
2025-08-15T03:54:17.187Z,17,GR86-063-113,-14.2,-0.955,-0.443,2.63,3.0,7218.0,46.465,47.215,
2025-08-15T03:54:17.230Z,17,GR86-063-113,-13.8,-1.013,-0.476,2.59,3.0,,46.465,46.865,156.75
2025-08-15T03:54:17.274Z,17,GR86-063-113,-13.3,-0.959,-0.5680000000000001,2.57,3.0,,45.78,46.27,
2025-08-15T03:54:17.317Z,17,GR86-063-113,-11.5,-0.889,-0.595,2.56,3.0,,43.705,45.03,
2025-08-15T03:54:17.360Z,17,GR86-063-113,-9.3,-0.896,-0.6910000000000001,2.54,3.0,,39.72,40.99,
2025-08-15T03:54:17.404Z,17,GR86-063-113,-8.0,-0.799,-0.7010000000000001,2.52,3.0,6933.0,33.845,34.595,
2025-08-15T03:54:17.446Z,17,GR86-063-113,-7.9,-0.777,-0.6940000000000001,2.52,3.0,,29.925,30.58,151.48
2025-08-15T03:54:17.489Z,17,GR86-063-113,-7.2,-0.598,-0.802,2.52,3.0,,28.0,28.81,
2025-08-15T03:54:17.534Z,17,GR86-063-113,-0.6000000000000001,-0.607,-0.917,2.5,3.0,,18.8,19.55,
2025-08-15T03:54:17.576Z,17,GR86-063-113,8.200000000000001,-0.388,-0.967,2.49,3.0,,9.065,9.66,
2025-08-15T03:54:17.619Z,17,GR86-063-113,18.5,-0.45,-0.917,2.51,3.0,6245.0,2.305,2.795,
2025-08-15T03:54:17.664Z,17,GR86-063-113,19.700000000000003,-0.293,-0.85,2.49,3.0,,0.0,0.0,146.88
2025-08-15T03:54:17.707Z,17,GR86-063-113,12.3,-0.209,-0.962,2.5,3.0,,0.0,0.0,
2025-08-15T03:54:17.794Z,17,GR86-063-113,-2.5,-0.168,-1.034,2.5,3.0,,0.0,0.0,
2025-08-15T03:54:17.837Z,17,GR86-063-113,-39.0,-0.156,-1.164,2.5,3.0,6503.0,0.0,0.0,
2025-08-15T03:54:17.880Z,17,GR86-063-113,-45.7,-0.224,-1.179,2.5,3.0,,0.0,0.0,144.22
2025-08-15T03:54:17.925Z,17,GR86-063-113,-49.8,-0.281,-1.16,2.5,3.0,,0.0,0.0,
2025-08-15T03:54:17.968Z,17,GR86-063-113,-49.900000000000006,-0.286,-1.238,2.5,3.0,,0.0,0.0,
2025-08-15T03:54:18.054Z,17,GR86-063-113,-43.2,-0.248,-1.23,2.48,3.0,6436.0,0.0,0.0,
2025-08-15T03:54:18.097Z,17,GR86-063-113,-38.1,-0.182,-1.188,2.5,3.0,,0.0,0.0,142.20000000000002
2025-08-15T03:54:18.140Z,17,GR86-063-113,-31.6,-0.212,-1.196,2.5,3.0,,0.0,0.0,
2025-08-15T03:54:18.184Z,17,GR86-063-113,-24.6,-0.24,-1.175,2.49,3.0,,0.0,0.0,
2025-08-15T03:54:18.227Z,17,GR86-063-113,-17.0,-0.237,-1.234,2.5,3.0,,0.0,0.0,
2025-08-15T03:54:18.270Z,17,GR86-063-113,-9.5,-0.174,-1.214,2.5,3.0,6361.0,0.0,0.0,
2025-08-15T03:54:18.314Z,17,GR86-063-113,-0.9,-0.187,-1.168,2.5,3.0,,0.0,0.0,141.12
2025-08-15T03:54:18.357Z,17,GR86-063-113,4.9,-0.164,-1.157,2.53,3.0,,0.0,0.0,
2025-08-15T03:54:18.400Z,17,GR86-063-113,9.9,-0.178,-1.144,2.56,3.0,,0.0,0.0,
2025-08-15T03:54:18.444Z,17,GR86-063-113,10.1,-0.208,-1.111,2.93,3.0,,0.0,0.0,
2025-08-15T03:54:18.486Z,17,GR86-063-113,4.800000000000001,-0.177,-1.116,5.04,3.0,6274.0,0.0,0.0,
2025-08-15T03:54:18.529Z,17,GR86-063-113,-7.7,-0.168,-1.197,7.8,3.0,,0.0,0.0,140.54
2025-08-15T03:54:18.574Z,17,GR86-063-113,-35.9,-0.199,-1.239,10.85,3.0,,0.0,0.0,
2025-08-15T03:54:18.617Z,17,GR86-063-113,-48.8,-0.214,-1.351,9.62,3.0,,0.0,0.0,
2025-08-15T03:54:18.660Z,17,GR86-063-113,-56.3,-0.213,-1.332,7.98,3.0,,0.0,0.0,
2025-08-15T03:54:18.704Z,17,GR86-063-113,-58.2,-0.223,-1.315,9.54,3.0,6203.0,0.0,0.0,
2025-08-15T03:54:18.747Z,17,GR86-063-113,-58.1,-0.197,-1.28,10.25,3.0,,0.0,0.0,137.74
2025-08-15T03:54:18.790Z,17,GR86-063-113,-57.5,-0.191,-1.243,12.63,3.0,,0.0,0.0,
2025-08-15T03:54:18.834Z,17,GR86-063-113,-53.6,-0.187,-1.294,17.62,3.0,,0.0,0.0,
2025-08-15T03:54:18.877Z,17,GR86-063-113,-48.5,-0.22,-1.246,18.06,3.0,,0.0,0.0,
2025-08-15T03:54:18.920Z,17,GR86-063-113,-41.8,-0.185,-1.213,19.02,3.0,6182.0,0.0,0.0,
2025-08-15T03:54:19.007Z,17,GR86-063-113,-34.9,-0.143,-1.223,21.65,3.0,,0.0,0.0,135.78
2025-08-15T03:54:19.050Z,17,GR86-063-113,-22.5,-0.108,-1.172,30.94,3.0,,0.0,0.0,
2025-08-15T03:54:19.094Z,17,GR86-063-113,-15.6,0.028,-1.282,31.89,3.0,,0.0,0.0,
2025-08-15T03:54:19.137Z,17,GR86-063-113,-12.8,0.063,-1.149,33.79,3.0,6245.0,0.0,0.0,
2025-08-15T03:54:19.180Z,17,GR86-063-113,-11.4,0.082,-1.176,35.95,3.0,,0.0,0.0,134.96
2025-08-15T03:54:19.225Z,17,GR86-063-113,-11.1,0.091,-1.16,38.82,3.0,,0.0,0.0,
2025-08-15T03:54:19.268Z,17,GR86-063-113,-13.6,0.103,-1.169,45.41,3.0,,0.0,0.0,
2025-08-15T03:54:19.311Z,17,GR86-063-113,-21.0,0.082,-1.295,52.66,3.0,,0.0,0.0,
2025-08-15T03:54:19.354Z,17,GR86-063-113,-34.300000000000004,0.134,-1.203,69.32000000000001,3.0,6335.0,0.0,0.0,
2025-08-15T03:54:19.397Z,17,GR86-063-113,-40.400000000000006,0.131,-1.19,81.97,3.0,,0.0,0.0,134.38
2025-08-15T03:54:19.440Z,17,GR86-063-113,-41.1,0.082,-1.212,96.98,3.0,,0.0,0.0,
2025-08-15T03:54:19.484Z,17,GR86-063-113,-39.1,0.136,-1.302,99.72,3.0,,0.0,0.0,
2025-08-15T03:54:19.526Z,17,GR86-063-113,-36.5,0.185,-1.308,99.73,3.0,,0.0,0.0,
2025-08-15T03:54:19.569Z,17,GR86-063-113,-36.7,0.149,-1.295,99.73,3.0,6373.0,0.0,0.0,
2025-08-15T03:54:19.614Z,17,GR86-063-113,-39.2,0.168,-1.253,99.74,3.0,,0.0,0.0,133.79
2025-08-15T03:54:19.657Z,17,GR86-063-113,-41.2,0.112,-1.248,99.75,3.0,,0.0,0.0,
2025-08-15T03:54:19.700Z,17,GR86-063-113,-42.2,0.119,-1.297,99.75,3.0,,0.0,0.0,
2025-08-15T03:54:19.744Z,17,GR86-063-113,-43.2,0.164,-1.257,99.75,3.0,,0.0,0.0,
2025-08-15T03:54:19.786Z,17,GR86-063-113,-44.6,0.127,-1.264,99.74,3.0,6407.0,0.0,0.0,
2025-08-15T03:54:19.829Z,17,GR86-063-113,-45.8,0.093,-1.264,99.75,3.0,,0.0,0.0,134.54
2025-08-15T03:54:19.874Z,17,GR86-063-113,-45.7,0.119,-1.268,99.74,3.0,,0.0,0.0,
2025-08-15T03:54:19.917Z,17,GR86-063-113,-44.1,0.113,-1.334,99.75,3.0,,0.0,0.0,
2025-08-15T03:54:19.960Z,17,GR86-063-113,-38.400000000000006,0.137,-1.34,99.75,3.0,,0.0,0.0,
2025-08-15T03:54:20.004Z,17,GR86-063-113,-29.9,0.121,-1.351,99.75,3.0,6447.0,0.0,0.0,
2025-08-15T03:54:20.047Z,17,GR86-063-113,-22.700000000000003,0.123,-1.31,99.75,3.0,,0.0,0.0,135.16
2025-08-15T03:54:20.090Z,17,GR86-063-113,-19.200000000000003,0.148,-1.259,99.74,3.0,,0.0,0.0,
2025-08-15T03:54:20.134Z,17,GR86-063-113,-17.400000000000002,0.133,-1.238,99.76,3.0,,0.0,0.0,
2025-08-15T03:54:20.177Z,17,GR86-063-113,-15.5,0.145,-1.203,99.75,3.0,,0.0,0.0,
2025-08-15T03:54:20.220Z,17,GR86-063-113,-13.3,0.154,-1.219,99.74,3.0,6531.0,0.0,0.0,
2025-08-15T03:54:20.264Z,17,GR86-063-113,-11.5,0.103,-1.231,99.76,3.0,,0.0,0.0,136.3
2025-08-15T03:54:20.307Z,17,GR86-063-113,-9.7,0.112,-1.317,99.75,3.0,,0.0,0.0,
2025-08-15T03:54:20.350Z,17,GR86-063-113,-6.2,0.148,-1.311,99.76,3.0,,0.0,0.0,
2025-08-15T03:54:20.394Z,17,GR86-063-113,4.800000000000001,0.168,-1.255,99.75,3.0,,0.0,0.0,
2025-08-15T03:54:20.437Z,17,GR86-063-113,15.2,0.167,-1.265,99.74,3.0,6662.0,0.0,0.0,
2025-08-15T03:54:20.480Z,17,GR86-063-113,25.3,0.162,-1.191,99.75,3.0,,0.0,0.0,136.85
2025-08-15T03:54:20.526Z,17,GR86-063-113,32.0,0.194,-1.18,99.74,3.0,,0.0,0.0,
2025-08-15T03:54:20.568Z,17,GR86-063-113,36.4,0.227,-1.147,99.76,3.0,,0.0,0.0,
2025-08-15T03:54:20.611Z,17,GR86-063-113,38.400000000000006,0.222,-1.128,99.74,3.0,,0.0,0.0,
2025-08-15T03:54:20.654Z,17,GR86-063-113,34.800000000000004,0.237,-1.126,99.76,3.0,6684.0,0.0,0.0,
2025-08-15T03:54:20.697Z,17,GR86-063-113,21.4,0.197,-1.115,99.74,3.0,,0.0,0.0,137.58
2025-08-15T03:54:20.740Z,17,GR86-063-113,2.7,0.185,-1.18,99.75,3.0,,0.0,0.0,
2025-08-15T03:54:20.784Z,17,GR86-063-113,-17.5,0.211,-1.256,99.75,3.0,,0.0,0.0,
2025-08-15T03:54:20.826Z,17,GR86-063-113,-34.800000000000004,0.15,-1.219,99.75,3.0,,0.0,0.0,
2025-08-15T03:54:20.869Z,17,GR86-063-113,-45.3,0.101,-1.204,99.75,3.0,6572.0,0.0,0.0,
2025-08-15T03:54:20.915Z,17,GR86-063-113,-49.0,0.247,-0.885,99.75,3.0,,0.0,0.0,137.14
2025-08-15T03:54:20.958Z,17,GR86-063-113,-48.8,0.177,-0.888,99.75,3.0,,0.0,0.0,
2025-08-15T03:54:21.001Z,17,GR86-063-113,-47.6,0.263,-0.704,99.75,3.0,,0.0,0.0,
2025-08-15T03:54:21.044Z,17,GR86-063-113,-44.3,0.159,-0.615,99.75,3.0,,0.0,0.0,
2025-08-15T03:54:21.087Z,17,GR86-063-113,-37.5,0.163,-0.346,99.75,3.0,6549.0,0.0,0.0,
2025-08-15T03:54:21.130Z,17,GR86-063-113,-28.4,0.112,-0.607,99.75,3.0,,0.0,0.0,136.91
2025-08-15T03:54:21.174Z,17,GR86-063-113,-16.8,-0.011,-0.584,99.75,3.0,,0.0,0.0,
2025-08-15T03:54:21.217Z,17,GR86-063-113,-11.2,0.02,-1.072,99.73,3.0,,0.0,0.0,
2025-08-15T03:54:21.260Z,17,GR86-063-113,-8.0,0.22,-1.122,99.74,3.0,,0.0,0.0,
2025-08-15T03:54:21.304Z,17,GR86-063-113,-7.2,0.308,-1.102,99.75,3.0,6676.0,0.0,0.0,
2025-08-15T03:54:21.346Z,17,GR86-063-113,-8.8,0.223,-1.04,99.74,3.0,,0.0,0.0,138.25
2025-08-15T03:54:21.389Z,17,GR86-063-113,-13.3,0.08,-1.094,99.74,3.0,,0.0,0.0,
2025-08-15T03:54:21.434Z,17,GR86-063-113,-21.200000000000003,0.128,-1.423,99.75,3.0,,0.0,0.0,
2025-08-15T03:54:21.477Z,17,GR86-063-113,-25.4,0.198,-1.513,99.75,3.0,,0.0,0.0,
2025-08-15T03:54:21.520Z,17,GR86-063-113,-24.200000000000003,0.2,-1.446,99.73,3.0,6672.0,0.0,0.0,
2025-08-15T03:54:21.564Z,17,GR86-063-113,-16.8,0.11,-1.258,99.74,3.0,,0.0,0.0,140.85
2025-08-15T03:54:21.607Z,17,GR86-063-113,-8.0,0.132,-1.038,99.74,3.0,,0.0,0.0,
2025-08-15T03:54:21.650Z,17,GR86-063-113,-5.2,0.158,-0.931,99.74,3.0,,0.0,0.0,
2025-08-15T03:54:21.694Z,17,GR86-063-113,-13.3,0.215,-0.914,99.76,3.0,,0.0,0.0,
2025-08-15T03:54:21.736Z,17,GR86-063-113,-23.6,0.242,-0.984,99.75,3.0,6671.0,0.0,0.0,
2025-08-15T03:54:21.779Z,17,GR86-063-113,-32.4,0.114,-0.983,99.75,3.0,,0.0,0.0,140.96
2025-08-15T03:54:21.823Z,17,GR86-063-113,-37.5,0.082,-0.879,99.74,3.0,,0.0,0.0,
2025-08-15T03:54:21.865Z,17,GR86-063-113,-36.6,0.096,-1.132,99.75,3.0,,0.0,0.0,
2025-08-15T03:54:21.908Z,17,GR86-063-113,-32.0,0.176,-1.016,99.74,3.0,,0.0,0.0,
2025-08-15T03:54:21.951Z,17,GR86-063-113,-26.5,0.212,-1.218,99.75,3.0,6734.0,0.0,0.0,
2025-08-15T03:54:21.994Z,17,GR86-063-113,-23.8,0.217,-1.226,99.75,3.0,,0.0,0.0,140.97
2025-08-15T03:54:22.037Z,17,GR86-063-113,-24.8,0.215,-1.095,99.74,3.0,,0.0,0.0,
2025-08-15T03:54:22.080Z,17,GR86-063-113,-22.5,0.142,-1.148,99.74,3.0,,0.0,0.0,
2025-08-15T03:54:22.125Z,17,GR86-063-113,-14.3,0.126,-1.048,99.71,3.0,,0.0,0.0,
2025-08-15T03:54:22.168Z,17,GR86-063-113,-4.6000000000000005,0.16,-1.062,99.74,3.0,6831.0,0.0,0.0,
2025-08-15T03:54:22.211Z,17,GR86-063-113,-1.5,0.215,-0.966,99.73,3.0,,0.0,0.0,141.72
2025-08-15T03:54:22.254Z,17,GR86-063-113,-8.5,0.196,-0.862,99.74,3.0,,0.0,0.0,
2025-08-15T03:54:22.297Z,17,GR86-063-113,-16.0,0.222,-0.773,99.74,3.0,,0.0,0.0,
2025-08-15T03:54:22.340Z,17,GR86-063-113,-21.1,0.132,-0.8170000000000001,99.73,3.0,,0.0,0.0,
2025-08-15T03:54:22.384Z,17,GR86-063-113,-21.9,0.17,-0.957,99.74,3.0,6834.0,0.0,0.0,
2025-08-15T03:54:22.427Z,17,GR86-063-113,-21.0,0.062,-0.881,99.75,3.0,,0.0,0.0,144.06
2025-08-15T03:54:22.470Z,17,GR86-063-113,-16.8,0.2,-1.006,99.73,3.0,,0.0,0.0,
2025-08-15T03:54:22.514Z,17,GR86-063-113,-5.4,0.278,-0.85,99.73,3.0,,0.0,0.0,
2025-08-15T03:54:22.557Z,17,GR86-063-113,0.0,0.183,-0.793,99.74,3.0,,0.0,0.0,
2025-08-15T03:54:22.600Z,17,GR86-063-113,1.9,0.155,-0.853,99.73,3.0,6870.0,0.0,0.0,
2025-08-15T03:54:22.644Z,17,GR86-063-113,2.0,0.174,-0.679,99.75,3.0,,0.0,0.0,145.57
2025-08-15T03:54:22.686Z,17,GR86-063-113,1.6,0.19,-0.513,99.74,3.0,,0.0,0.0,
2025-08-15T03:54:22.729Z,17,GR86-063-113,1.3,0.203,-0.298,99.74,3.0,,0.0,0.0,
2025-08-15T03:54:22.774Z,17,GR86-063-113,0.0,-0.012,-0.167,99.74,3.0,,0.0,0.0,
2025-08-15T03:54:22.817Z,17,GR86-063-113,0.1,0.037,-0.163,99.72,3.0,6964.0,0.0,0.0,
2025-08-15T03:54:22.860Z,17,GR86-063-113,2.2,0.203,-0.097,99.75,3.0,,0.0,0.0,146.5
2025-08-15T03:54:22.904Z,17,GR86-063-113,8.5,0.347,0.006,99.73,3.0,,0.0,0.0,
2025-08-15T03:54:22.947Z,17,GR86-063-113,12.2,-0.001,0.07,99.72,3.0,,0.0,0.0,
2025-08-15T03:54:22.990Z,17,GR86-063-113,13.3,0.096,-0.114,99.75,3.0,,0.0,0.0,
2025-08-15T03:54:23.034Z,17,GR86-063-113,14.1,0.3,-0.004,99.74,3.0,6965.0,0.0,0.0,
2025-08-15T03:54:23.077Z,17,GR86-063-113,17.2,0.023,0.201,99.74,3.0,,0.0,0.0,148.27
2025-08-15T03:54:23.120Z,17,GR86-063-113,20.4,0.112,0.279,99.74,3.0,,0.0,0.0,
2025-08-15T03:54:23.165Z,17,GR86-063-113,23.200000000000003,0.323,0.102,99.75,3.0,,0.0,0.0,
2025-08-15T03:54:23.207Z,17,GR86-063-113,22.4,0.379,0.082,99.75,3.0,,0.0,0.0,
2025-08-15T03:54:23.250Z,17,GR86-063-113,18.6,0.146,0.167,99.75,3.0,7125.0,0.0,0.0,
2025-08-15T03:54:23.294Z,17,GR86-063-113,9.4,0.266,0.376,99.75,3.0,,0.0,0.0,149.99
2025-08-15T03:54:23.337Z,17,GR86-063-113,7.300000000000001,0.325,0.412,99.74,3.0,,0.0,0.0,
2025-08-15T03:54:23.380Z,17,GR86-063-113,9.0,0.273,0.488,99.74,3.0,,0.0,0.0,
2025-08-15T03:54:23.425Z,17,GR86-063-113,10.6,0.054,0.478,99.77,3.0,,0.0,0.0,
2025-08-15T03:54:23.468Z,17,GR86-063-113,9.7,0.106,0.489,99.74,3.0,7100.0,0.0,0.0,
2025-08-15T03:54:23.511Z,17,GR86-063-113,9.2,0.225,0.527,99.76,3.0,,0.0,0.0,150.23
2025-08-15T03:54:23.554Z,17,GR86-063-113,14.5,0.257,0.455,99.75,3.0,,0.0,0.0,
2025-08-15T03:54:23.597Z,17,GR86-063-113,17.8,0.13,0.606,99.74,3.0,,0.0,0.0,
2025-08-15T03:54:23.640Z,17,GR86-063-113,17.400000000000002,0.185,0.579,99.75,3.0,,0.0,0.0,
2025-08-15T03:54:23.684Z,17,GR86-063-113,16.1,0.23,0.521,99.74,3.0,7195.0,0.0,0.0,
2025-08-15T03:54:23.726Z,17,GR86-063-113,15.8,0.202,0.481,99.75,3.0,,0.0,0.0,151.18
2025-08-15T03:54:23.769Z,17,GR86-063-113,15.7,0.202,0.414,99.74,3.0,,0.0,0.0,
2025-08-15T03:54:23.814Z,17,GR86-063-113,14.9,0.208,0.393,99.76,3.0,,0.0,0.0,
2025-08-15T03:54:23.857Z,17,GR86-063-113,13.8,0.171,0.335,99.74,3.0,,0.0,0.0,
2025-08-15T03:54:23.900Z,17,GR86-063-113,13.0,0.169,0.322,99.75,3.0,7186.0,0.0,0.0,
2025-08-15T03:54:23.944Z,17,GR86-063-113,12.7,0.126,0.297,99.74,3.0,,0.0,0.0,153.21
2025-08-15T03:54:23.986Z,17,GR86-063-113,12.4,-0.133,0.299,99.74,4.0,,0.0,0.0,
2025-08-15T03:54:24.029Z,17,GR86-063-113,12.3,0.079,0.304,99.76,4.0,,0.0,0.0,
2025-08-15T03:54:24.074Z,17,GR86-063-113,12.5,0.297,0.178,99.73,4.0,,0.0,0.0,
2025-08-15T03:54:24.117Z,17,GR86-063-113,12.5,0.123,0.28,99.75,4.0,6886.0,0.0,0.0,
2025-08-15T03:54:24.160Z,17,GR86-063-113,12.5,0.032,0.27,99.77,4.0,,0.0,0.0,154.53
2025-08-15T03:54:24.204Z,17,GR86-063-113,12.4,0.137,0.196,99.76,4.0,,0.0,0.0,
2025-08-15T03:54:24.246Z,17,GR86-063-113,12.3,0.217,0.247,99.75,4.0,,0.0,0.0,
2025-08-15T03:54:24.289Z,17,GR86-063-113,12.2,0.179,0.24,99.75,4.0,,0.0,0.0,
2025-08-15T03:54:24.334Z,17,GR86-063-113,11.8,0.133,0.237,99.76,4.0,6204.0,0.0,0.0,
2025-08-15T03:54:24.377Z,17,GR86-063-113,10.9,0.167,0.241,99.74,4.0,,0.0,0.0,155.85
2025-08-15T03:54:24.420Z,17,GR86-063-113,10.3,0.159,0.211,99.75,4.0,,0.0,0.0,
2025-08-15T03:54:24.464Z,17,GR86-063-113,10.1,0.126,0.218,99.76,4.0,,0.0,0.0,
2025-08-15T03:54:24.507Z,17,GR86-063-113,9.9,0.115,0.213,99.74,4.0,,0.0,0.0,
2025-08-15T03:54:24.550Z,17,GR86-063-113,9.6,0.107,0.212,99.75,4.0,6242.0,0.0,0.0,
2025-08-15T03:54:24.594Z,17,GR86-063-113,9.2,0.147,0.164,99.74,4.0,,0.0,0.0,157.3
2025-08-15T03:54:24.637Z,17,GR86-063-113,9.2,0.132,0.158,99.74,4.0,,0.0,0.0,
2025-08-15T03:54:24.680Z,17,GR86-063-113,9.1,0.11,0.126,99.76,4.0,,0.0,0.0,
2025-08-15T03:54:24.725Z,17,GR86-063-113,8.9,0.129,0.132,99.75,4.0,,0.0,0.0,
2025-08-15T03:54:24.768Z,17,GR86-063-113,8.700000000000001,0.136,0.1,99.76,4.0,6276.0,0.0,0.0,
2025-08-15T03:54:24.811Z,17,GR86-063-113,8.4,0.159,0.089,99.75,4.0,,0.0,0.0,158.79
2025-08-15T03:54:24.854Z,17,GR86-063-113,8.1,0.111,0.067,99.76,4.0,,0.0,0.0,
2025-08-15T03:54:24.897Z,17,GR86-063-113,8.0,0.132,0.082,99.75,4.0,,0.0,0.0,
2025-08-15T03:54:24.940Z,17,GR86-063-113,7.7,0.137,0.074,99.75,4.0,,0.0,0.0,
2025-08-15T03:54:24.984Z,17,GR86-063-113,7.5,0.154,0.057,99.74,4.0,6338.0,0.0,0.0,
2025-08-15T03:54:25.026Z,17,GR86-063-113,7.300000000000001,0.157,0.052,99.76,4.0,,0.0,0.0,161.83
2025-08-15T03:54:25.069Z,17,GR86-063-113,7.0,0.146,0.023,99.75,4.0,,0.0,0.0,
2025-08-15T03:54:25.115Z,17,GR86-063-113,6.300000000000001,0.124,0.023,99.73,4.0,,0.0,0.0,
2025-08-15T03:54:25.158Z,17,GR86-063-113,5.7,0.164,0.023,99.76,4.0,,0.0,0.0,
2025-08-15T03:54:25.201Z,17,GR86-063-113,5.1000000000000005,0.143,-0.005,99.75,4.0,6383.0,0.0,0.0,
2025-08-15T03:54:25.244Z,17,GR86-063-113,5.0,0.12,-0.031,99.74,4.0,,0.0,0.0,163.35
2025-08-15T03:54:25.287Z,17,GR86-063-113,4.9,0.107,-0.036,99.76,4.0,,0.0,0.0,
2025-08-15T03:54:25.330Z,17,GR86-063-113,4.800000000000001,0.126,-0.048,99.75,4.0,,0.0,0.0,
2025-08-15T03:54:25.374Z,17,GR86-063-113,4.2,0.147,-0.045,99.74,4.0,,0.0,0.0,
2025-08-15T03:54:25.417Z,17,GR86-063-113,3.7,0.138,-0.078,99.75,4.0,6489.0,0.0,0.0,
2025-08-15T03:54:25.460Z,17,GR86-063-113,3.3000000000000003,0.128,-0.075,99.75,4.0,,0.0,0.0,164.78
2025-08-15T03:54:25.504Z,17,GR86-063-113,3.1,0.134,-0.098,99.75,4.0,,0.0,0.0,
2025-08-15T03:54:25.547Z,17,GR86-063-113,2.9000000000000004,0.1,-0.093,99.75,4.0,,0.0,0.0,
2025-08-15T03:54:25.590Z,17,GR86-063-113,2.7,0.11,-0.104,99.74,4.0,,0.0,0.0,
2025-08-15T03:54:25.634Z,17,GR86-063-113,2.4000000000000004,0.15,-0.107,99.75,4.0,6548.0,0.0,0.0,
2025-08-15T03:54:25.677Z,17,GR86-063-113,2.2,0.152,-0.123,99.75,4.0,,0.0,0.0,166.33
2025-08-15T03:54:25.720Z,17,GR86-063-113,1.8,0.128,-0.137,99.76,4.0,,0.0,0.0,
2025-08-15T03:54:25.764Z,17,GR86-063-113,1.3,0.102,-0.159,99.75,4.0,,0.0,0.0,
2025-08-15T03:54:25.807Z,17,GR86-063-113,0.8,0.108,-0.18,99.75,4.0,,0.0,0.0,
2025-08-15T03:54:25.850Z,17,GR86-063-113,0.3,0.094,-0.179,99.75,4.0,6605.0,0.0,0.0,
2025-08-15T03:54:25.894Z,17,GR86-063-113,0.0,0.151,-0.195,99.75,4.0,,0.0,0.0,167.83
2025-08-15T03:54:25.937Z,17,GR86-063-113,-0.4,0.146,-0.208,99.74,4.0,,0.0,0.0,
2025-08-15T03:54:25.980Z,17,GR86-063-113,-0.8,0.132,-0.228,99.75,4.0,,0.0,0.0,
2025-08-15T03:54:26.025Z,17,GR86-063-113,-1.3,0.107,-0.24,99.75,4.0,,0.0,0.0,
2025-08-15T03:54:26.068Z,17,GR86-063-113,-1.6,0.105,-0.245,99.76,4.0,6672.0,0.0,0.0,
2025-08-15T03:54:26.111Z,17,GR86-063-113,-1.8,0.092,-0.259,99.76,4.0,,0.0,0.0,169.33
2025-08-15T03:54:26.154Z,17,GR86-063-113,-2.1,0.169,-0.279,99.75,4.0,,0.0,0.0,
2025-08-15T03:54:26.197Z,17,GR86-063-113,-2.4000000000000004,0.171,-0.293,99.74,4.0,,0.0,0.0,
2025-08-15T03:54:26.240Z,17,GR86-063-113,-2.9000000000000004,0.145,-0.316,99.75,4.0,,0.0,0.0,
2025-08-15T03:54:26.284Z,17,GR86-063-113,-3.3000000000000003,0.133,-0.338,99.75,4.0,6731.0,0.0,0.0,
2025-08-15T03:54:26.327Z,17,GR86-063-113,-3.7,0.133,-0.337,99.75,4.0,,0.0,0.0,170.79
2025-08-15T03:54:26.370Z,17,GR86-063-113,-3.9,0.1,-0.336,99.75,4.0,,0.0,0.0,
2025-08-15T03:54:26.414Z,17,GR86-063-113,-3.9,0.145,-0.331,99.75,4.0,,0.0,0.0,
2025-08-15T03:54:26.457Z,17,GR86-063-113,-3.9,0.165,-0.333,99.74,4.0,,0.0,0.0,
2025-08-15T03:54:26.500Z,17,GR86-063-113,-3.9,0.149,-0.351,99.75,4.0,6770.0,0.0,0.0,
2025-08-15T03:54:26.544Z,17,GR86-063-113,-3.9,0.166,-0.361,99.74,4.0,,0.0,0.0,172.1
2025-08-15T03:54:26.586Z,17,GR86-063-113,-3.7,0.153,-0.394,99.75,4.0,,0.0,0.0,
2025-08-15T03:54:26.629Z,17,GR86-063-113,-3.5,0.164,-0.408,99.75,4.0,,0.0,0.0,
2025-08-15T03:54:26.674Z,17,GR86-063-113,-3.4000000000000004,0.104,-0.425,99.74,4.0,,0.0,0.0,
2025-08-15T03:54:26.717Z,17,GR86-063-113,-3.4000000000000004,0.097,-0.424,99.76,4.0,6838.0,0.0,0.0,
2025-08-15T03:54:26.760Z,17,GR86-063-113,-3.4000000000000004,0.118,-0.407,99.75,4.0,,0.0,0.0,173.31
2025-08-15T03:54:26.804Z,17,GR86-063-113,-3.3000000000000003,0.12,-0.383,99.75,4.0,,0.0,0.0,
2025-08-15T03:54:26.847Z,17,GR86-063-113,-3.3000000000000003,0.126,-0.394,99.75,4.0,,0.0,0.0,
2025-08-15T03:54:26.890Z,17,GR86-063-113,-3.5,0.142,-0.383,99.74,4.0,,0.0,0.0,
2025-08-15T03:54:26.934Z,17,GR86-063-113,-3.9,0.098,-0.375,99.76,4.0,6887.0,0.0,0.0,
2025-08-15T03:54:26.977Z,17,GR86-063-113,-3.8,0.068,-0.365,99.75,4.0,,0.0,0.0,174.81
2025-08-15T03:54:27.020Z,17,GR86-063-113,-3.4000000000000004,0.082,-0.354,99.75,4.0,,0.0,0.0,
2025-08-15T03:54:27.065Z,17,GR86-063-113,-3.0,0.071,-0.346,99.74,4.0,,0.0,0.0,
2025-08-15T03:54:27.107Z,17,GR86-063-113,-2.4000000000000004,0.08,-0.341,99.74,4.0,,0.0,0.0,
2025-08-15T03:54:27.150Z,17,GR86-063-113,-1.8,0.066,-0.344,99.74,4.0,6937.0,0.0,0.0,
2025-08-15T03:54:27.194Z,17,GR86-063-113,-1.3,0.161,-0.343,99.75,4.0,,0.0,0.0,176.08
2025-08-15T03:54:27.237Z,17,GR86-063-113,-1.2000000000000002,0.156,-0.333,99.76,4.0,,0.0,0.0,
2025-08-15T03:54:27.280Z,17,GR86-063-113,-1.2000000000000002,0.155,-0.317,99.73,4.0,,0.0,0.0,
2025-08-15T03:54:27.326Z,17,GR86-063-113,-1.0,0.153,-0.302,99.76,4.0,,0.0,0.0,
2025-08-15T03:54:27.368Z,17,GR86-063-113,-0.4,0.141,-0.283,99.75,4.0,6986.0,0.0,0.0,
2025-08-15T03:54:27.411Z,17,GR86-063-113,0.3,0.154,-0.237,99.74,4.0,,0.0,0.0,177.35
2025-08-15T03:54:27.454Z,17,GR86-063-113,1.6,0.099,-0.165,99.74,4.0,,4.595,4.87,
2025-08-15T03:54:27.497Z,17,GR86-063-113,1.7000000000000002,0.068,-0.156,69.41,4.0,,12.68,13.015,
2025-08-15T03:54:27.540Z,17,GR86-063-113,1.7000000000000002,-0.047,-0.131,11.32,4.0,,22.465,22.465,
2025-08-15T03:54:27.583Z,17,GR86-063-113,2.0,-0.279,-0.112,5.0200000000000005,4.0,7037.0,32.9,32.75,
2025-08-15T03:54:27.626Z,17,GR86-063-113,2.4000000000000004,-0.652,-0.075,4.88,4.0,,43.55,43.17,179.5
2025-08-15T03:54:27.669Z,17,GR86-063-113,3.7,-0.977,-0.003,6.07,4.0,,55.395,54.77,
2025-08-15T03:54:27.714Z,17,GR86-063-113,4.1000000000000005,-1.181,-0.048,52.42,3.0,,68.06,68.99,
2025-08-15T03:54:27.757Z,17,GR86-063-113,2.6,-1.312,-0.031,6.73,3.0,,71.83,73.63,
2025-08-15T03:54:27.800Z,17,GR86-063-113,2.6,-1.25,-0.042,5.38,3.0,6981.0,73.49,75.4,
2025-08-15T03:54:27.844Z,17,GR86-063-113,2.9000000000000004,-1.371,-0.148,5.04,3.0,,73.46000000000001,74.41,173.28
2025-08-15T03:54:27.886Z,17,GR86-063-113,4.2,-1.412,0.003,4.44,3.0,,70.99,72.18,
2025-08-15T03:54:27.929Z,17,GR86-063-113,4.9,-1.216,-0.098,4.12,3.0,,70.485,72.06,
2025-08-15T03:54:27.974Z,17,GR86-063-113,5.0,-1.187,-0.115,3.73,3.0,,64.43,64.75,
2025-08-15T03:54:28.017Z,17,GR86-063-113,5.1000000000000005,-1.248,-0.066,3.49,3.0,7079.0,62.46,63.495000000000005,
2025-08-15T03:54:28.104Z,17,GR86-063-113,5.300000000000001,-1.162,-0.219,3.23,3.0,,62.46,63.895,166.15
2025-08-15T03:54:28.146Z,17,GR86-063-113,3.9,-1.244,-0.13,2.72,3.0,,61.91,62.4,
2025-08-15T03:54:28.189Z,17,GR86-063-113,1.2000000000000002,-1.203,-0.1,2.58,3.0,,60.46,60.675,
2025-08-15T03:54:28.234Z,17,GR86-063-113,-3.9,-1.195,-0.09,2.46,3.0,7152.0,59.36,59.42,
2025-08-15T03:54:28.277Z,17,GR86-063-113,-5.5,-1.214,-0.119,2.45,3.0,,59.025,59.24,158.29
2025-08-15T03:54:28.320Z,17,GR86-063-113,-5.4,-1.114,-0.107,2.43,3.0,,59.025,59.42,
2025-08-15T03:54:28.364Z,17,GR86-063-113,-4.7,-1.151,-0.137,2.44,3.0,,59.025,59.835,
2025-08-15T03:54:28.407Z,17,GR86-063-113,-2.8000000000000003,-1.138,-0.116,2.44,3.0,,59.24,60.14,
2025-08-15T03:54:28.450Z,17,GR86-063-113,0.0,-1.219,-0.134,2.46,3.0,6560.0,59.025,59.865,
2025-08-15T03:54:28.494Z,17,GR86-063-113,3.2,-1.14,-0.135,56.370000000000005,2.0,,58.585,59.59,150.20000000000002
2025-08-15T03:54:28.537Z,17,GR86-063-113,5.1000000000000005,-1.178,-0.161,27.86,2.0,,58.02,59.42,
2025-08-15T03:54:28.580Z,17,GR86-063-113,6.6000000000000005,-1.287,-0.099,4.55,2.0,,57.3,58.965,
2025-08-15T03:54:28.625Z,17,GR86-063-113,7.0,-1.152,-0.186,4.15,2.0,,55.915,57.21,
2025-08-15T03:54:28.711Z,17,GR86-063-113,7.7,-1.095,-0.157,3.74,2.0,6594.0,47.4,48.39,142.38
2025-08-15T03:54:28.754Z,17,GR86-063-113,10.5,-0.874,-0.551,3.49,2.0,,41.705,42.485,
2025-08-15T03:54:28.797Z,17,GR86-063-113,11.0,-1.072,-0.334,3.21,2.0,,38.255,39.065,
2025-08-15T03:54:28.840Z,17,GR86-063-113,10.5,-0.972,-0.276,2.89,2.0,,37.98,38.835,
2025-08-15T03:54:28.884Z,17,GR86-063-113,7.6,-0.838,-0.648,2.66,2.0,6704.0,37.675,38.5,
2025-08-15T03:54:28.927Z,17,GR86-063-113,1.8,-1.056,-0.463,2.56,2.0,,37.8,38.775,135.34
2025-08-15T03:54:28.970Z,17,GR86-063-113,-5.9,-0.972,-0.549,2.48,2.0,,37.325,38.285,
2025-08-15T03:54:29.015Z,17,GR86-063-113,-20.5,-0.8290000000000001,-0.718,2.44,2.0,,34.335,34.81,
2025-08-15T03:54:29.058Z,17,GR86-063-113,-30.0,-0.774,-0.723,2.42,2.0,,32.015,32.505,
2025-08-15T03:54:29.101Z,17,GR86-063-113,-35.4,-0.6910000000000001,-0.8300000000000001,2.43,2.0,7120.0,30.52,31.27,
2025-08-15T03:54:29.144Z,17,GR86-063-113,-35.0,-0.775,-0.8200000000000001,2.41,2.0,,28.215,28.995,129.77
2025-08-15T03:54:29.187Z,17,GR86-063-113,-31.1,-0.6960000000000001,-0.8280000000000001,2.43,2.0,,23.21,24.02,
2025-08-15T03:54:29.230Z,17,GR86-063-113,-23.200000000000003,-0.608,-0.87,2.43,2.0,,18.115,18.89,
2025-08-15T03:54:29.274Z,17,GR86-063-113,-13.8,-0.514,-0.785,2.42,2.0,,15.685,16.465,
2025-08-15T03:54:29.317Z,17,GR86-063-113,-12.7,-0.585,-0.875,2.43,2.0,6756.0,15.685,16.28,
2025-08-15T03:54:29.360Z,17,GR86-063-113,-14.0,-0.542,-0.862,2.43,2.0,,16.22,16.65,125.46
2025-08-15T03:54:29.404Z,17,GR86-063-113,-17.2,-0.496,-0.917,2.43,2.0,,15.215,15.75,
2025-08-15T03:54:29.446Z,17,GR86-063-113,-19.1,-0.517,-0.965,2.44,2.0,,12.65,13.46,
2025-08-15T03:54:29.489Z,17,GR86-063-113,-20.8,-0.44,-1.015,2.45,2.0,,10.745,11.34,
2025-08-15T03:54:29.534Z,17,GR86-063-113,-21.8,-0.395,-1.088,2.45,2.0,6616.0,7.46,8.120000000000001,
2025-08-15T03:54:29.576Z,17,GR86-063-113,-21.6,-0.393,-1.119,2.46,2.0,,6.15,6.745,122.11
2025-08-15T03:54:29.619Z,17,GR86-063-113,-20.8,-0.412,-1.091,2.47,2.0,,5.555,5.965,
2025-08-15T03:54:29.664Z,17,GR86-063-113,-19.1,-0.344,-1.113,2.46,2.0,,5.0200000000000005,5.465,
2025-08-15T03:54:29.707Z,17,GR86-063-113,-17.6,-0.345,-1.071,2.46,2.0,,4.335,4.835,
2025-08-15T03:54:29.750Z,17,GR86-063-113,-17.8,-0.316,-1.124,2.46,2.0,6400.0,3.875,4.305,
2025-08-15T03:54:29.794Z,17,GR86-063-113,-24.1,-0.317,-1.117,2.47,2.0,,3.815,3.935,118.98
2025-08-15T03:54:29.836Z,17,GR86-063-113,-33.9,-0.295,-1.152,2.46,2.0,,3.755,4.12,
2025-08-15T03:54:29.879Z,17,GR86-063-113,-39.1,-0.329,-1.171,2.47,2.0,,3.845,4.275,
2025-08-15T03:54:29.923Z,17,GR86-063-113,-44.1,-0.309,-1.225,2.47,2.0,,3.845,4.3950000000000005,
2025-08-15T03:54:29.968Z,17,GR86-063-113,-46.400000000000006,-0.332,-1.236,2.47,2.0,6365.0,3.875,4.24,
2025-08-15T03:54:30.011Z,17,GR86-063-113,-46.8,-0.331,-1.276,2.47,2.0,,3.815,4.24,116.6
2025-08-15T03:54:30.057Z,17,GR86-063-113,-46.7,-0.325,-1.25,2.47,2.0,,3.465,3.695,
2025-08-15T03:54:30.100Z,17,GR86-063-113,-46.5,-0.306,-1.238,2.47,2.0,,3.065,3.525,
2025-08-15T03:54:30.144Z,17,GR86-063-113,-45.7,-0.309,-1.239,2.48,2.0,,2.365,2.61,
2025-08-15T03:54:30.186Z,17,GR86-063-113,-43.6,-0.273,-1.266,2.49,2.0,6253.0,0.0,0.0,
2025-08-15T03:54:30.229Z,17,GR86-063-113,-38.6,-0.27,-1.309,2.49,2.0,,0.0,0.0,112.31
2025-08-15T03:54:30.274Z,17,GR86-063-113,-28.8,-0.221,-1.285,2.49,2.0,,0.0,0.0,
2025-08-15T03:54:30.317Z,17,GR86-063-113,-22.4,-0.205,-1.298,2.49,2.0,,0.0,0.0,
2025-08-15T03:54:30.360Z,17,GR86-063-113,-15.0,-0.222,-1.275,2.5,2.0,,0.0,0.0,
2025-08-15T03:54:30.404Z,17,GR86-063-113,-10.8,-0.208,-1.284,2.76,2.0,6130.0,0.0,0.0,
2025-08-15T03:54:30.447Z,17,GR86-063-113,-9.3,-0.206,-1.279,3.67,2.0,,0.0,0.0,110.94
2025-08-15T03:54:30.490Z,17,GR86-063-113,-9.6,-0.19,-1.264,4.53,2.0,,0.0,0.0,
2025-08-15T03:54:30.534Z,17,GR86-063-113,-15.1,-0.192,-1.258,9.95,2.0,,0.0,0.0,
2025-08-15T03:54:30.576Z,17,GR86-063-113,-19.700000000000003,-0.209,-1.272,16.97,2.0,,0.0,0.0,
2025-08-15T03:54:30.619Z,17,GR86-063-113,-29.9,-0.196,-1.278,18.33,2.0,5949.0,0.0,0.0,
2025-08-15T03:54:30.665Z,17,GR86-063-113,-39.1,-0.139,-1.253,21.09,2.0,,0.0,0.0,109.17
2025-08-15T03:54:30.707Z,17,GR86-063-113,-45.3,-0.161,-1.263,22.5,2.0,,0.0,0.0,
2025-08-15T03:54:30.750Z,17,GR86-063-113,-53.1,-0.138,-1.247,24.48,2.0,,0.0,0.0,
2025-08-15T03:54:30.794Z,17,GR86-063-113,-58.8,-0.137,-1.24,31.51,2.0,,0.0,0.0,
2025-08-15T03:54:30.837Z,17,GR86-063-113,-61.0,-0.021,-1.215,32.33,2.0,6145.0,0.0,0.0,
2025-08-15T03:54:30.880Z,17,GR86-063-113,-61.7,0.1,-1.191,32.87,2.0,,0.0,0.0,107.02
2025-08-15T03:54:30.926Z,17,GR86-063-113,-62.400000000000006,0.118,-1.18,33.93,2.0,,0.0,0.0,
2025-08-15T03:54:30.969Z,17,GR86-063-113,-62.6,0.134,-1.197,37.53,2.0,,0.0,0.0,
2025-08-15T03:54:31.014Z,17,GR86-063-113,-62.6,0.107,-1.135,45.37,2.0,,0.0,0.0,
2025-08-15T03:54:31.057Z,17,GR86-063-113,-62.6,0.077,-1.166,47.44,2.0,6177.0,0.0,0.0,
2025-08-15T03:54:31.100Z,17,GR86-063-113,-62.7,0.109,-1.159,48.07,2.0,,0.0,0.0,105.96
2025-08-15T03:54:31.144Z,17,GR86-063-113,-62.8,0.121,-1.128,48.57,2.0,,0.0,0.0,
2025-08-15T03:54:31.186Z,17,GR86-063-113,-62.8,0.156,-1.168,48.54,2.0,,0.0,0.0,
2025-08-15T03:54:31.229Z,17,GR86-063-113,-62.8,0.153,-1.15,48.51,2.0,,0.0,0.0,
2025-08-15T03:54:31.274Z,17,GR86-063-113,-61.7,0.142,-1.139,49.22,2.0,6295.0,0.0,0.0,
2025-08-15T03:54:31.317Z,17,GR86-063-113,-56.400000000000006,0.186,-1.171,49.7,2.0,,0.0,0.0,106.11
2025-08-15T03:54:31.360Z,17,GR86-063-113,-49.2,0.165,-1.181,50.23,2.0,,0.0,0.0,
2025-08-15T03:54:31.404Z,17,GR86-063-113,-40.0,0.162,-1.185,50.91,2.0,,0.0,0.0,
2025-08-15T03:54:31.446Z,17,GR86-063-113,-29.700000000000003,0.175,-1.22,51.73,2.0,,0.0,0.0,
2025-08-15T03:54:31.489Z,17,GR86-063-113,-18.9,0.184,-1.224,53.54,2.0,6365.0,0.0,0.0,
2025-08-15T03:54:31.534Z,17,GR86-063-113,-5.5,0.201,-1.151,60.67,2.0,,0.0,0.0,106.92
2025-08-15T03:54:31.577Z,17,GR86-063-113,0.4,0.233,-1.107,71.31,2.0,,0.0,0.0,
2025-08-15T03:54:31.620Z,17,GR86-063-113,3.8,0.208,-1.084,77.96000000000001,2.0,,0.0,0.0,
2025-08-15T03:54:31.664Z,17,GR86-063-113,5.1000000000000005,0.22,-1.036,90.21,2.0,,0.0,0.0,
2025-08-15T03:54:31.794Z,17,GR86-063-113,7.1000000000000005,0.227,-1.096,99.71,2.0,6465.0,0.0,0.0,108.29
2025-08-15T03:54:31.837Z,17,GR86-063-113,6.7,0.269,-1.126,99.71,2.0,,0.0,0.0,
2025-08-15T03:54:31.880Z,17,GR86-063-113,-3.0,0.286,-1.069,99.72,2.0,,0.0,0.0,
2025-08-15T03:54:31.968Z,17,GR86-063-113,-23.8,0.216,-1.137,99.72,2.0,6593.0,0.0,0.0,109.22
2025-08-15T03:54:32.011Z,17,GR86-063-113,-26.5,0.198,-1.204,99.71,2.0,,0.0,0.0,
2025-08-15T03:54:32.054Z,17,GR86-063-113,-25.4,0.206,-1.217,99.72,2.0,,0.0,0.0,
2025-08-15T03:54:32.097Z,17,GR86-063-113,-23.5,0.202,-1.313,99.72,2.0,,0.0,0.0,
2025-08-15T03:54:32.140Z,17,GR86-063-113,-17.7,0.222,-1.23,99.72,2.0,6645.0,0.0,0.0,
2025-08-15T03:54:32.184Z,17,GR86-063-113,-8.0,0.221,-1.266,99.71,2.0,,0.0,0.0,110.28
2025-08-15T03:54:32.226Z,17,GR86-063-113,4.3,0.256,-1.201,99.72,2.0,,0.0,0.0,
2025-08-15T03:54:32.269Z,17,GR86-063-113,13.5,0.272,-1.038,99.72,2.0,,0.0,0.0,
2025-08-15T03:54:32.358Z,17,GR86-063-113,16.8,0.25,-1.031,99.72,2.0,6761.0,0.0,0.0,
2025-08-15T03:54:32.401Z,17,GR86-063-113,17.3,0.243,-1.048,99.73,2.0,,0.0,0.0,111.37
2025-08-15T03:54:32.444Z,17,GR86-063-113,19.4,0.229,-1.043,99.72,2.0,,0.0,0.0,
2025-08-15T03:54:32.487Z,17,GR86-063-113,25.0,0.227,-1.028,99.72,2.0,,0.0,0.0,
2025-08-15T03:54:32.530Z,17,GR86-063-113,30.200000000000003,0.231,-1.018,97.59,2.0,,0.0,0.0,
2025-08-15T03:54:32.574Z,17,GR86-063-113,32.4,0.274,-0.995,43.12,2.0,6802.0,0.0,0.0,
2025-08-15T03:54:32.617Z,17,GR86-063-113,27.700000000000003,0.272,-0.974,41.7,2.0,,0.0,0.0,113.83
2025-08-15T03:54:32.660Z,17,GR86-063-113,16.3,0.239,-1.016,42.63,2.0,,0.0,0.0,
2025-08-15T03:54:32.704Z,17,GR86-063-113,2.0,0.274,-1.109,42.79,2.0,,0.0,0.0,
2025-08-15T03:54:32.746Z,17,GR86-063-113,-14.4,0.199,-1.141,45.64,2.0,,0.0,0.0,
2025-08-15T03:54:32.789Z,17,GR86-063-113,-31.8,0.102,-1.175,51.18,2.0,6991.0,0.0,0.0,
2025-08-15T03:54:32.834Z,17,GR86-063-113,-52.5,0.09,-1.3,59.08,2.0,,0.0,0.0,113.87
2025-08-15T03:54:32.877Z,17,GR86-063-113,-57.3,0.129,-1.304,77.2,2.0,,0.0,0.0,
2025-08-15T03:54:32.920Z,17,GR86-063-113,-54.6,0.158,-1.284,99.66,2.0,,0.0,0.0,
2025-08-15T03:54:32.964Z,17,GR86-063-113,-43.900000000000006,0.205,-1.26,99.68,2.0,,0.0,0.0,
2025-08-15T03:54:33.007Z,17,GR86-063-113,-29.6,0.218,-1.157,99.71,2.0,6877.0,0.0,0.0,
2025-08-15T03:54:33.050Z,17,GR86-063-113,-16.2,0.228,-1.131,99.68,2.0,,0.0,0.0,114.73
2025-08-15T03:54:33.094Z,17,GR86-063-113,-3.8,0.234,-1.157,99.72,2.0,,0.0,0.0,
2025-08-15T03:54:33.137Z,17,GR86-063-113,0.9,0.348,-0.97,99.72,2.0,,0.0,0.0,
2025-08-15T03:54:33.180Z,17,GR86-063-113,5.300000000000001,0.361,-1.025,99.72,2.0,,0.0,0.0,
2025-08-15T03:54:33.225Z,17,GR86-063-113,7.5,0.291,-0.624,99.72,2.0,7015.0,0.0,0.0,
2025-08-15T03:54:33.268Z,17,GR86-063-113,8.1,0.188,-0.73,99.72,2.0,,0.0,0.0,117.11
2025-08-15T03:54:33.311Z,17,GR86-063-113,8.6,0.366,-0.952,99.72,2.0,,0.0,0.0,
2025-08-15T03:54:33.357Z,17,GR86-063-113,10.5,0.231,-0.94,99.72,2.0,,0.0,0.0,
2025-08-15T03:54:33.400Z,17,GR86-063-113,13.5,0.213,-1.047,99.72,2.0,,0.0,0.0,
2025-08-15T03:54:33.444Z,17,GR86-063-113,16.7,0.259,-0.995,99.75,2.0,7118.0,0.0,0.0,
2025-08-15T03:54:33.486Z,17,GR86-063-113,17.6,0.312,-0.963,99.73,2.0,,0.0,0.0,117.53
2025-08-15T03:54:33.529Z,17,GR86-063-113,16.400000000000002,0.235,-0.8320000000000001,99.72,2.0,,0.0,0.0,
2025-08-15T03:54:33.574Z,17,GR86-063-113,8.3,0.224,-0.8160000000000001,99.72,2.0,,0.0,0.0,
2025-08-15T03:54:33.617Z,17,GR86-063-113,0.2,0.178,-0.866,99.73,2.0,,0.0,0.0,
2025-08-15T03:54:33.660Z,17,GR86-063-113,-7.0,0.355,-0.959,99.74,2.0,7030.0,0.0,0.0,
2025-08-15T03:54:33.704Z,17,GR86-063-113,-12.0,0.385,-0.788,99.72,2.0,,0.0,0.0,118.66
2025-08-15T03:54:33.747Z,17,GR86-063-113,-16.1,0.414,-0.791,99.72,2.0,,0.0,0.0,
2025-08-15T03:54:33.790Z,17,GR86-063-113,-16.5,0.462,-0.804,99.71,2.0,,0.0,0.0,
2025-08-15T03:54:33.834Z,17,GR86-063-113,-13.9,0.052,-0.657,99.73,2.0,,0.0,0.0,
2025-08-15T03:54:33.877Z,17,GR86-063-113,-9.3,0.193,-0.621,99.74,2.0,7096.0,0.0,0.0,
2025-08-15T03:54:33.920Z,17,GR86-063-113,-5.1000000000000005,0.197,-0.5650000000000001,99.72,2.0,,0.0,0.0,120.13
2025-08-15T03:54:33.965Z,17,GR86-063-113,-4.7,0.297,-0.513,99.73,2.0,,0.0,0.0,
2025-08-15T03:54:34.007Z,17,GR86-063-113,-5.4,0.247,-0.524,99.71,2.0,,0.0,0.0,
2025-08-15T03:54:34.050Z,17,GR86-063-113,-7.7,0.312,-0.457,99.72,2.0,,0.0,0.0,
2025-08-15T03:54:34.094Z,17,GR86-063-113,-11.4,0.228,-0.378,99.71,2.0,7136.0,0.0,0.0,
2025-08-15T03:54:34.137Z,17,GR86-063-113,-11.8,0.082,-0.503,99.72,2.0,,0.0,0.0,122.06
2025-08-15T03:54:34.180Z,17,GR86-063-113,-10.8,0.115,-0.412,99.73,2.0,,0.0,0.0,
2025-08-15T03:54:34.226Z,17,GR86-063-113,-7.4,0.143,-0.541,99.72,2.0,,0.0,0.0,
2025-08-15T03:54:34.268Z,17,GR86-063-113,-6.300000000000001,0.321,-0.466,99.72,2.0,,0.0,0.0,
2025-08-15T03:54:34.311Z,17,GR86-063-113,-6.5,0.179,-0.508,99.74,2.0,7273.0,0.0,0.0,
2025-08-15T03:54:34.354Z,17,GR86-063-113,-6.4,-0.159,-0.383,99.74,2.0,,0.0,0.0,123.5
2025-08-15T03:54:34.397Z,17,GR86-063-113,-3.4000000000000004,-0.057,-0.254,99.75,3.0,,0.0,0.0,
2025-08-15T03:54:34.440Z,17,GR86-063-113,-0.1,0.596,-0.314,99.71,3.0,,0.0,0.0,
2025-08-15T03:54:34.484Z,17,GR86-063-113,1.6,0.495,-0.289,99.73,3.0,,0.0,0.0,
2025-08-15T03:54:34.526Z,17,GR86-063-113,2.4000000000000004,0.41,-0.127,99.74,3.0,7003.0,0.0,0.0,
2025-08-15T03:54:34.569Z,17,GR86-063-113,4.1000000000000005,0.271,-0.145,99.74,3.0,,0.0,0.0,125.56
2025-08-15T03:54:34.614Z,17,GR86-063-113,8.8,0.2,-0.176,99.74,3.0,,0.0,0.0,
2025-08-15T03:54:34.657Z,17,GR86-063-113,10.6,0.195,-0.234,99.73,3.0,,0.0,0.0,
2025-08-15T03:54:34.700Z,17,GR86-063-113,10.3,0.077,0.0,99.74,3.0,,0.0,0.0,
2025-08-15T03:54:34.744Z,17,GR86-063-113,9.9,-0.028,-0.04,99.74,3.0,6007.0,0.0,0.0,
2025-08-15T03:54:34.786Z,17,GR86-063-113,9.9,0.355,-0.093,99.74,3.0,,0.0,0.0,126.36
2025-08-15T03:54:34.829Z,17,GR86-063-113,10.1,0.332,-0.032,99.74,3.0,,0.0,0.0,
2025-08-15T03:54:34.874Z,17,GR86-063-113,9.5,0.081,0.153,99.72,3.0,,0.0,0.0,
2025-08-15T03:54:34.960Z,17,GR86-063-113,9.1,0.102,0.212,99.73,3.0,6169.0,0.0,0.0,
2025-08-15T03:54:35.004Z,17,GR86-063-113,8.200000000000001,0.259,0.254,99.75,3.0,,0.0,0.0,128.7
2025-08-15T03:54:35.047Z,17,GR86-063-113,7.800000000000001,0.216,0.166,99.73,3.0,,0.0,0.0,
2025-08-15T03:54:35.090Z,17,GR86-063-113,7.5,0.17,0.17,99.75,3.0,,0.0,0.0,
2025-08-15T03:54:35.134Z,17,GR86-063-113,7.1000000000000005,0.153,0.112,99.74,3.0,,0.0,0.0,
2025-08-15T03:54:35.177Z,17,GR86-063-113,7.300000000000001,0.207,0.077,99.74,3.0,6144.0,0.0,0.0,
2025-08-15T03:54:35.220Z,17,GR86-063-113,7.300000000000001,0.244,0.032,99.76,3.0,,0.0,0.0,131.38
2025-08-15T03:54:35.264Z,17,GR86-063-113,7.300000000000001,0.187,0.027,99.75,3.0,,0.0,0.0,
2025-08-15T03:54:35.307Z,17,GR86-063-113,7.300000000000001,0.178,0.026,99.74,3.0,,0.0,0.0,
2025-08-15T03:54:35.350Z,17,GR86-063-113,7.300000000000001,0.221,0.017,99.75,3.0,,0.0,0.0,
2025-08-15T03:54:35.394Z,17,GR86-063-113,7.300000000000001,0.215,0.036,99.73,3.0,6184.0,0.0,0.0,
2025-08-15T03:54:35.437Z,17,GR86-063-113,7.300000000000001,0.218,0.023,99.74,3.0,,0.0,0.0,132.88
2025-08-15T03:54:35.480Z,17,GR86-063-113,7.2,0.161,0.046,99.74,3.0,,0.0,0.0,
2025-08-15T03:54:35.526Z,17,GR86-063-113,7.2,0.164,0.058,99.74,3.0,,0.0,0.0,
2025-08-15T03:54:35.568Z,17,GR86-063-113,7.2,0.222,0.045,99.75,3.0,,0.0,0.0,
2025-08-15T03:54:35.611Z,17,GR86-063-113,7.1000000000000005,0.235,0.033,99.73,3.0,6246.0,0.0,0.0,
2025-08-15T03:54:35.654Z,17,GR86-063-113,7.2,0.226,0.041,99.75,3.0,,0.0,0.0,134.32
2025-08-15T03:54:35.697Z,17,GR86-063-113,7.300000000000001,0.196,0.025,99.75,3.0,,0.0,0.0,
2025-08-15T03:54:35.740Z,17,GR86-063-113,7.300000000000001,0.145,0.051,99.75,3.0,,0.0,0.0,
2025-08-15T03:54:35.784Z,17,GR86-063-113,7.300000000000001,0.216,0.037,99.74,3.0,,0.0,0.0,
2025-08-15T03:54:35.826Z,17,GR86-063-113,7.2,0.231,0.034,99.75,3.0,6372.0,0.0,0.0,
2025-08-15T03:54:35.869Z,17,GR86-063-113,7.1000000000000005,0.184,0.032,99.73,3.0,,0.0,0.0,135.76
2025-08-15T03:54:35.915Z,17,GR86-063-113,7.1000000000000005,0.224,0.022,99.75,3.0,,0.0,0.0,
2025-08-15T03:54:35.958Z,17,GR86-063-113,7.2,0.16,0.043,99.75,3.0,,0.0,0.0,
2025-08-15T03:54:36.001Z,17,GR86-063-113,7.2,0.166,0.057,99.75,3.0,,0.0,0.0,
2025-08-15T03:54:36.044Z,17,GR86-063-113,7.1000000000000005,0.221,0.044,99.74,3.0,6430.0,0.0,0.0,
2025-08-15T03:54:36.087Z,17,GR86-063-113,7.0,0.222,0.016,99.75,3.0,,0.0,0.0,137.1
2025-08-15T03:54:36.130Z,17,GR86-063-113,7.0,0.165,0.015,99.72,3.0,,0.0,0.0,
2025-08-15T03:54:36.174Z,17,GR86-063-113,6.800000000000001,0.208,0.003,99.73,3.0,,0.0,0.0,
2025-08-15T03:54:36.217Z,17,GR86-063-113,6.9,0.147,0.028,99.74,3.0,,0.0,0.0,
2025-08-15T03:54:36.260Z,17,GR86-063-113,7.0,0.179,0.033,99.75,3.0,6498.0,0.0,0.0,
2025-08-15T03:54:36.304Z,17,GR86-063-113,7.0,0.25,0.027,99.74,3.0,,0.0,0.0,138.42000000000002
2025-08-15T03:54:36.346Z,17,GR86-063-113,7.0,0.217,0.006,99.73,3.0,,0.0,0.0,
2025-08-15T03:54:36.389Z,17,GR86-063-113,6.9,0.158,0.018,99.75,3.0,,0.0,0.0,
2025-08-15T03:54:36.433Z,17,GR86-063-113,6.800000000000001,0.2,0.013,99.75,3.0,,0.0,0.0,
2025-08-15T03:54:36.477Z,17,GR86-063-113,6.7,0.151,0.026,99.75,3.0,6550.0,0.0,0.0,
2025-08-15T03:54:36.520Z,17,GR86-063-113,6.6000000000000005,0.163,0.029,99.75,3.0,,0.0,0.0,139.87
2025-08-15T03:54:36.564Z,17,GR86-063-113,6.5,0.22,0.013,99.72,3.0,,0.0,0.0,
2025-08-15T03:54:36.607Z,17,GR86-063-113,6.300000000000001,0.227,-0.01,99.74,3.0,,0.0,0.0,
2025-08-15T03:54:36.650Z,17,GR86-063-113,6.0,0.171,-0.008,99.73,3.0,,0.0,0.0,
2025-08-15T03:54:36.694Z,17,GR86-063-113,5.9,0.229,-0.014,99.74,3.0,6616.0,0.0,0.0,
2025-08-15T03:54:36.737Z,17,GR86-063-113,5.800000000000001,0.153,0.001,99.74,3.0,,0.0,0.0,141.23
2025-08-15T03:54:36.780Z,17,GR86-063-113,5.800000000000001,0.142,0.012,99.72,3.0,,0.0,0.0,
2025-08-15T03:54:36.825Z,17,GR86-063-113,5.7,0.189,-0.003,99.74,3.0,,0.0,0.0,
2025-08-15T03:54:36.868Z,17,GR86-063-113,5.6000000000000005,0.245,-0.026,99.74,3.0,,0.0,0.0,
2025-08-15T03:54:36.911Z,17,GR86-063-113,5.7,0.204,-0.016,99.72,3.0,6682.0,0.0,0.0,
2025-08-15T03:54:36.954Z,17,GR86-063-113,5.5,0.235,-0.024,99.75,3.0,,0.0,0.0,142.65
2025-08-15T03:54:36.997Z,17,GR86-063-113,5.4,0.192,-0.019,99.76,3.0,,0.0,0.0,
2025-08-15T03:54:37.040Z,17,GR86-063-113,5.300000000000001,0.152,0.003,99.74,3.0,,0.0,0.0,
2025-08-15T03:54:37.084Z,17,GR86-063-113,5.4,0.161,0.011,99.77,3.0,,0.0,0.0,
2025-08-15T03:54:37.127Z,17,GR86-063-113,5.4,0.205,-0.006,99.74,3.0,6744.0,0.0,0.0,
2025-08-15T03:54:37.170Z,17,GR86-063-113,5.300000000000001,0.211,-0.015,99.74,3.0,,0.0,0.0,143.99
2025-08-15T03:54:37.214Z,17,GR86-063-113,5.1000000000000005,0.196,-0.02,99.72,3.0,,0.0,0.0,
2025-08-15T03:54:37.257Z,17,GR86-063-113,5.0,0.225,-0.022,99.75,3.0,,0.0,0.0,
2025-08-15T03:54:37.300Z,17,GR86-063-113,5.0,0.205,-0.036,99.75,3.0,,0.0,0.0,
2025-08-15T03:54:37.344Z,17,GR86-063-113,5.0,0.162,-0.011,99.74,3.0,6809.0,0.0,0.0,
2025-08-15T03:54:37.386Z,17,GR86-063-113,4.9,0.164,-0.009,99.74,3.0,,0.0,0.0,145.27
2025-08-15T03:54:37.429Z,17,GR86-063-113,4.9,0.183,-0.041,99.74,3.0,,0.0,0.0,
2025-08-15T03:54:37.474Z,17,GR86-063-113,4.800000000000001,0.15,-0.022,99.73,3.0,,0.0,0.0,
2025-08-15T03:54:37.517Z,17,GR86-063-113,4.800000000000001,0.187,-0.042,99.73,3.0,,0.0,0.0,
2025-08-15T03:54:37.560Z,17,GR86-063-113,4.800000000000001,0.202,-0.047,99.75,3.0,6859.0,0.0,0.0,
2025-08-15T03:54:37.604Z,17,GR86-063-113,4.7,0.209,-0.052,99.74,3.0,,0.0,0.0,146.56
2025-08-15T03:54:37.647Z,17,GR86-063-113,4.6000000000000005,0.168,-0.037,99.74,3.0,,0.0,0.0,
2025-08-15T03:54:37.690Z,17,GR86-063-113,4.5,0.162,-0.023,99.73,3.0,,0.0,0.0,
2025-08-15T03:54:37.734Z,17,GR86-063-113,4.4,0.174,-0.047,99.72,3.0,,0.0,0.0,
2025-08-15T03:54:37.777Z,17,GR86-063-113,4.4,0.159,-0.024,99.73,3.0,6924.0,0.0,0.0,
2025-08-15T03:54:37.820Z,17,GR86-063-113,4.4,0.156,-0.031,99.73,3.0,,0.0,0.0,149.17000000000002
2025-08-15T03:54:37.865Z,17,GR86-063-113,4.3,0.18,-0.03,99.71,3.0,,0.0,0.0,
2025-08-15T03:54:37.908Z,17,GR86-063-113,4.2,0.184,-0.044,99.74,3.0,,0.0,0.0,
2025-08-15T03:54:37.951Z,17,GR86-063-113,4.2,0.181,-0.053,99.73,3.0,,0.0,0.0,
2025-08-15T03:54:37.994Z,17,GR86-063-113,4.1000000000000005,0.189,-0.047,99.76,3.0,6985.0,0.0,0.0,
2025-08-15T03:54:38.037Z,17,GR86-063-113,4.1000000000000005,0.173,-0.055,99.75,3.0,,0.0,0.0,150.38
2025-08-15T03:54:38.080Z,17,GR86-063-113,4.1000000000000005,0.161,-0.05,99.75,3.0,,0.0,0.0,
2025-08-15T03:54:38.125Z,17,GR86-063-113,4.0,0.162,-0.042,99.73,3.0,,0.0,0.0,
2025-08-15T03:54:38.168Z,17,GR86-063-113,3.8,0.149,-0.042,99.75,3.0,,0.0,0.0,
2025-08-15T03:54:38.211Z,17,GR86-063-113,3.8,0.173,-0.048,99.72,3.0,7051.0,0.0,0.0,
2025-08-15T03:54:38.254Z,17,GR86-063-113,3.9,0.157,-0.048,99.75,3.0,,0.0,0.0,151.61
2025-08-15T03:54:38.297Z,17,GR86-063-113,3.9,0.17,-0.057,99.74,3.0,,0.0,0.0,
2025-08-15T03:54:38.340Z,17,GR86-063-113,3.8,0.171,-0.059,99.74,3.0,,0.0,0.0,
2025-08-15T03:54:38.384Z,17,GR86-063-113,3.6,0.168,-0.07,99.73,3.0,,0.0,0.0,
2025-08-15T03:54:38.426Z,17,GR86-063-113,3.5,0.151,-0.071,99.74,3.0,7140.0,0.0,0.0,
2025-08-15T03:54:38.469Z,17,GR86-063-113,3.5,0.139,-0.064,99.74,3.0,,0.0,0.0,152.77
2025-08-15T03:54:38.514Z,17,GR86-063-113,3.6,0.172,-0.089,99.76,3.0,,0.0,0.0,
2025-08-15T03:54:38.557Z,17,GR86-063-113,3.5,0.151,-0.065,99.73,3.0,,0.0,0.0,
2025-08-15T03:54:38.600Z,17,GR86-063-113,3.5,0.14,-0.059,99.74,3.0,,0.0,0.0,
2025-08-15T03:54:38.644Z,17,GR86-063-113,3.7,0.145,-0.052,99.73,3.0,7193.0,0.0,0.0,
2025-08-15T03:54:38.686Z,17,GR86-063-113,3.7,0.155,-0.057,99.73,3.0,,0.0,0.0,153.88
2025-08-15T03:54:38.729Z,17,GR86-063-113,3.9,0.18,-0.056,99.75,3.0,,0.0,0.0,
2025-08-15T03:54:38.774Z,17,GR86-063-113,4.0,0.158,-0.045,99.71,3.0,,0.0,0.0,
2025-08-15T03:54:38.817Z,17,GR86-063-113,4.0,0.169,-0.055,99.75,3.0,,0.0,0.0,
2025-08-15T03:54:38.860Z,17,GR86-063-113,3.9,0.174,-0.057,99.75,3.0,7239.0,0.0,0.0,
2025-08-15T03:54:38.904Z,17,GR86-063-113,3.9,0.161,-0.068,99.74,3.0,,0.0,0.0,154.99
2025-08-15T03:54:38.946Z,17,GR86-063-113,3.9,0.136,-0.061,99.74,3.0,,0.0,0.0,
2025-08-15T03:54:38.989Z,17,GR86-063-113,3.7,-0.15,-0.042,99.74,4.0,,0.0,0.0,
2025-08-15T03:54:39.034Z,17,GR86-063-113,3.5,0.482,-0.042,99.74,4.0,,0.0,0.0,
2025-08-15T03:54:39.077Z,17,GR86-063-113,3.7,0.294,-0.12,99.74,4.0,6930.0,0.0,0.0,
2025-08-15T03:54:39.120Z,17,GR86-063-113,3.7,0.136,-0.022,99.74,4.0,,0.0,0.0,156.11
2025-08-15T03:54:39.164Z,17,GR86-063-113,3.6,-0.038,-0.024,99.74,4.0,,0.0,0.0,
2025-08-15T03:54:39.207Z,17,GR86-063-113,3.8,0.088,-0.092,99.73,4.0,,0.0,0.0,
2025-08-15T03:54:39.250Z,17,GR86-063-113,3.9,0.223,-0.01,99.75,4.0,,0.0,0.0,
2025-08-15T03:54:39.294Z,17,GR86-063-113,3.9,0.09,-0.098,99.74,4.0,6206.0,0.0,0.0,
2025-08-15T03:54:39.337Z,17,GR86-063-113,3.8,0.078,-0.048,99.74,4.0,,0.0,0.0,157.08
2025-08-15T03:54:39.380Z,17,GR86-063-113,3.7,0.145,-0.035,99.76,4.0,,0.0,0.0,
2025-08-15T03:54:39.426Z,17,GR86-063-113,3.9,0.181,-0.069,99.75,4.0,,0.0,0.0,
2025-08-15T03:54:39.468Z,17,GR86-063-113,3.9,0.163,-0.045,99.75,4.0,,0.0,0.0,
2025-08-15T03:54:39.511Z,17,GR86-063-113,3.9,0.132,-0.055,99.74,4.0,6235.0,0.0,0.0,
2025-08-15T03:54:39.554Z,17,GR86-063-113,3.9,0.156,-0.038,99.72,4.0,,0.0,0.0,158.12
2025-08-15T03:54:39.597Z,17,GR86-063-113,3.9,0.173,-0.039,99.74,4.0,,0.0,0.0,
2025-08-15T03:54:39.640Z,17,GR86-063-113,3.8,0.151,-0.039,99.75,4.0,,0.0,0.0,
2025-08-15T03:54:39.684Z,17,GR86-063-113,3.8,0.116,-0.035,99.74,4.0,,0.0,0.0,
2025-08-15T03:54:39.727Z,17,GR86-063-113,3.7,0.095,-0.022,99.75,4.0,6260.0,0.0,0.0,
2025-08-15T03:54:39.770Z,17,GR86-063-113,3.7,0.087,-0.029,99.74,4.0,,0.0,0.0,159.03
2025-08-15T03:54:39.815Z,17,GR86-063-113,3.7,0.145,-0.046,99.74,4.0,,0.0,0.0,
2025-08-15T03:54:39.901Z,17,GR86-063-113,3.5,0.097,-0.024,99.75,4.0,,0.0,0.0,
2025-08-15T03:54:39.944Z,17,GR86-063-113,3.7,0.087,-0.023,99.75,4.0,6284.0,0.0,0.0,
2025-08-15T03:54:39.987Z,17,GR86-063-113,3.8,0.108,-0.031,99.73,4.0,,0.0,0.0,159.81
2025-08-15T03:54:40.030Z,17,GR86-063-113,3.7,0.137,-0.04,99.74,4.0,,0.0,0.0,
2025-08-15T03:54:40.074Z,17,GR86-063-113,3.5,0.077,-0.042,99.72,4.0,,0.0,0.0,
2025-08-15T03:54:40.117Z,17,GR86-063-113,3.5,0.081,-0.041,99.74,4.0,,0.0,0.0,
2025-08-15T03:54:40.160Z,17,GR86-063-113,3.7,0.104,-0.05,99.74,4.0,6327.0,0.0,0.0,
2025-08-15T03:54:40.204Z,17,GR86-063-113,3.7,0.131,-0.06,99.76,4.0,,0.0,0.0,160.63
2025-08-15T03:54:40.246Z,17,GR86-063-113,3.5,0.167,-0.059,99.74,4.0,,0.0,0.0,
2025-08-15T03:54:40.289Z,17,GR86-063-113,3.4000000000000004,0.174,-0.065,99.75,4.0,,0.0,0.0,
2025-08-15T03:54:40.334Z,17,GR86-063-113,3.3000000000000003,0.083,-0.049,99.74,4.0,,0.0,0.0,
2025-08-15T03:54:40.376Z,17,GR86-063-113,3.4000000000000004,0.127,-0.066,99.72,4.0,6357.0,0.0,0.0,
2025-08-15T03:54:40.419Z,17,GR86-063-113,3.5,0.161,-0.068,99.74,4.0,,0.0,0.0,162.52
2025-08-15T03:54:40.464Z,17,GR86-063-113,3.4000000000000004,0.165,-0.088,99.74,4.0,,0.0,0.0,
2025-08-15T03:54:40.507Z,17,GR86-063-113,3.2,0.161,-0.089,99.74,4.0,,0.0,0.0,
2025-08-15T03:54:40.550Z,17,GR86-063-113,3.2,0.15,-0.096,99.75,4.0,,0.0,0.0,
2025-08-15T03:54:40.594Z,17,GR86-063-113,3.1,0.136,-0.06,99.73,4.0,6397.0,0.0,0.0,
2025-08-15T03:54:40.637Z,17,GR86-063-113,3.0,0.162,-0.073,99.75,4.0,,0.0,0.0,163.49
2025-08-15T03:54:40.680Z,17,GR86-063-113,2.9000000000000004,0.17,-0.088,99.73,4.0,,0.0,0.0,
2025-08-15T03:54:40.725Z,17,GR86-063-113,2.8000000000000003,0.169,-0.084,99.74,4.0,,0.0,0.0,
2025-08-15T03:54:40.768Z,17,GR86-063-113,2.7,0.129,-0.09,99.75,4.0,,0.0,0.0,
2025-08-15T03:54:40.811Z,17,GR86-063-113,2.7,0.112,-0.087,99.74,4.0,6436.0,0.0,0.0,
2025-08-15T03:54:40.854Z,17,GR86-063-113,2.6,0.16,-0.084,99.74,4.0,,0.0,0.0,164.46
2025-08-15T03:54:40.897Z,17,GR86-063-113,2.5,0.169,-0.097,99.75,4.0,,0.0,0.0,
2025-08-15T03:54:40.940Z,17,GR86-063-113,2.4000000000000004,0.156,-0.12,99.75,4.0,,0.0,0.0,
2025-08-15T03:54:40.984Z,17,GR86-063-113,2.2,0.133,-0.129,99.74,4.0,,0.0,0.0,
2025-08-15T03:54:41.027Z,17,GR86-063-113,2.0,0.123,-0.121,99.75,4.0,6509.0,0.0,0.0,
2025-08-15T03:54:41.070Z,17,GR86-063-113,1.7000000000000002,0.082,-0.108,99.75,4.0,,0.0,0.0,165.51
2025-08-15T03:54:41.114Z,17,GR86-063-113,1.4,0.149,-0.136,99.74,4.0,,0.0,0.0,
2025-08-15T03:54:41.157Z,17,GR86-063-113,1.3,0.172,-0.143,99.74,4.0,,0.0,0.0,
2025-08-15T03:54:41.200Z,17,GR86-063-113,1.3,0.157,-0.155,99.73,4.0,,0.0,0.0,
2025-08-15T03:54:41.244Z,17,GR86-063-113,1.4,0.131,-0.165,99.76,4.0,6553.0,0.0,0.0,
2025-08-15T03:54:41.286Z,17,GR86-063-113,1.4,0.092,-0.155,99.74,4.0,,0.0,0.0,166.4
2025-08-15T03:54:41.329Z,17,GR86-063-113,1.4,0.085,-0.144,99.73,4.0,,0.0,0.0,
2025-08-15T03:54:41.374Z,17,GR86-063-113,1.2000000000000002,0.171,-0.189,99.74,4.0,,0.0,0.0,
2025-08-15T03:54:41.417Z,17,GR86-063-113,1.3,0.159,-0.211,99.75,4.0,,0.0,0.0,
2025-08-15T03:54:41.460Z,17,GR86-063-113,1.2000000000000002,0.133,-0.202,99.74,4.0,6583.0,0.0,0.0,
2025-08-15T03:54:41.504Z,17,GR86-063-113,1.1,0.109,-0.186,99.74,4.0,,0.0,0.0,167.41
2025-08-15T03:54:41.547Z,17,GR86-063-113,1.0,0.102,-0.162,99.75,4.0,,0.0,0.0,
2025-08-15T03:54:41.590Z,17,GR86-063-113,1.0,0.073,-0.158,99.74,4.0,,0.0,0.0,
2025-08-15T03:54:41.634Z,17,GR86-063-113,1.0,0.154,-0.196,99.75,4.0,,0.0,0.0,
2025-08-15T03:54:41.677Z,17,GR86-063-113,0.9,0.152,-0.202,99.73,4.0,6620.0,0.0,0.0,
2025-08-15T03:54:41.720Z,17,GR86-063-113,0.8,0.128,-0.196,99.75,4.0,,0.0,0.0,168.39
2025-08-15T03:54:41.765Z,17,GR86-063-113,0.6000000000000001,0.129,-0.205,99.74,4.0,,0.0,0.0,
2025-08-15T03:54:41.807Z,17,GR86-063-113,0.6000000000000001,0.096,-0.2,99.72,4.0,,0.0,0.0,
2025-08-15T03:54:41.850Z,17,GR86-063-113,0.7000000000000001,0.099,-0.19,99.74,4.0,,0.0,0.0,
2025-08-15T03:54:41.894Z,17,GR86-063-113,0.9,0.154,-0.201,99.73,4.0,6658.0,0.0,0.0,
2025-08-15T03:54:41.937Z,17,GR86-063-113,0.9,0.141,-0.192,99.75,4.0,,0.0,0.0,169.36
2025-08-15T03:54:41.980Z,17,GR86-063-113,1.0,0.141,-0.201,99.74,4.0,,0.0,0.0,
2025-08-15T03:54:42.026Z,17,GR86-063-113,1.1,0.134,-0.175,99.73,4.0,,0.0,0.0,
2025-08-15T03:54:42.068Z,17,GR86-063-113,1.1,0.125,-0.159,99.73,4.0,,0.0,0.0,
2025-08-15T03:54:42.111Z,17,GR86-063-113,1.1,0.118,-0.133,99.74,4.0,6696.0,0.0,0.0,
2025-08-15T03:54:42.154Z,17,GR86-063-113,1.1,0.118,-0.127,99.75,4.0,,0.0,0.0,170.35
2025-08-15T03:54:42.197Z,17,GR86-063-113,1.0,0.135,-0.139,99.72,4.0,,0.0,0.0,
2025-08-15T03:54:42.240Z,17,GR86-063-113,1.0,0.145,-0.145,99.74,4.0,,0.0,0.0,
2025-08-15T03:54:42.284Z,17,GR86-063-113,0.9,0.127,-0.152,99.74,4.0,,0.0,0.0,
2025-08-15T03:54:42.326Z,17,GR86-063-113,0.9,0.132,-0.152,99.73,4.0,6730.0,0.0,0.0,
2025-08-15T03:54:42.369Z,17,GR86-063-113,0.9,0.132,-0.147,99.74,4.0,,0.0,0.0,171.32
2025-08-15T03:54:42.414Z,17,GR86-063-113,0.9,0.106,-0.149,99.73,4.0,,0.0,0.0,
2025-08-15T03:54:42.457Z,17,GR86-063-113,0.9,0.09,-0.17,99.75,4.0,,0.0,0.0,
2025-08-15T03:54:42.500Z,17,GR86-063-113,0.8,0.111,-0.181,99.75,4.0,,0.0,0.0,
2025-08-15T03:54:42.544Z,17,GR86-063-113,0.8,0.114,-0.189,99.73,4.0,6780.0,0.0,0.0,
2025-08-15T03:54:42.629Z,17,GR86-063-113,0.8,0.131,-0.186,99.74,4.0,,0.0,0.0,172.14
2025-08-15T03:54:42.674Z,17,GR86-063-113,1.0,0.089,-0.168,99.74,4.0,,0.0,0.0,
2025-08-15T03:54:42.717Z,17,GR86-063-113,1.1,0.103,-0.167,99.74,4.0,,0.0,0.0,
2025-08-15T03:54:42.760Z,17,GR86-063-113,1.0,0.108,-0.174,99.75,4.0,6806.0,0.0,0.0,
2025-08-15T03:54:42.804Z,17,GR86-063-113,1.0,0.089,-0.171,99.74,4.0,,0.0,0.0,173.01
2025-08-15T03:54:42.846Z,17,GR86-063-113,1.0,0.115,-0.149,99.71,4.0,,0.0,0.0,
2025-08-15T03:54:42.889Z,17,GR86-063-113,1.0,0.094,-0.148,99.73,4.0,,0.0,0.0,
2025-08-15T03:54:42.934Z,17,GR86-063-113,1.0,0.107,-0.134,99.72,4.0,,0.0,0.0,
2025-08-15T03:54:42.977Z,17,GR86-063-113,1.0,0.113,-0.12,99.72,4.0,6837.0,0.0,0.0,
2025-08-15T03:54:43.064Z,17,GR86-063-113,1.1,0.093,-0.117,99.72,4.0,,0.0,0.0,175.02
2025-08-15T03:54:43.107Z,17,GR86-063-113,1.3,0.089,-0.093,99.73,4.0,,0.0,0.0,
2025-08-15T03:54:43.150Z,17,GR86-063-113,1.4,0.108,-0.106,99.71,4.0,,0.0,0.0,
2025-08-15T03:54:43.194Z,17,GR86-063-113,1.4,0.118,-0.13,99.75,4.0,6889.0,0.0,0.0,
2025-08-15T03:54:43.237Z,17,GR86-063-113,1.4,0.099,-0.126,99.74,4.0,,0.0,0.0,175.93
2025-08-15T03:54:43.280Z,17,GR86-063-113,1.5,0.113,-0.112,99.73,4.0,,0.0,0.0,
2025-08-15T03:54:43.326Z,17,GR86-063-113,1.5,0.1,-0.113,99.74,4.0,,0.0,0.0,
2025-08-15T03:54:43.368Z,17,GR86-063-113,1.6,0.097,-0.115,99.75,4.0,,0.0,0.0,
2025-08-15T03:54:43.411Z,17,GR86-063-113,1.6,0.1,-0.127,99.73,4.0,6915.0,0.0,0.0,
2025-08-15T03:54:43.454Z,17,GR86-063-113,1.6,0.103,-0.102,99.74,4.0,,0.0,0.0,176.73
2025-08-15T03:54:43.497Z,17,GR86-063-113,1.8,0.115,-0.105,99.72,4.0,,0.0,0.0,
2025-08-15T03:54:43.540Z,17,GR86-063-113,1.9,0.119,-0.101,99.72,4.0,,0.0,0.0,
2025-08-15T03:54:43.584Z,17,GR86-063-113,2.0,0.118,-0.086,99.74,4.0,,0.0,0.0,
2025-08-15T03:54:43.626Z,17,GR86-063-113,1.8,0.124,-0.085,99.72,4.0,6979.0,0.0,0.0,
2025-08-15T03:54:43.669Z,17,GR86-063-113,1.6,0.097,-0.073,99.72,4.0,,0.0,0.0,177.70000000000002
2025-08-15T03:54:43.715Z,17,GR86-063-113,1.3,0.075,-0.065,99.74,4.0,,0.0,0.0,
2025-08-15T03:54:43.758Z,17,GR86-063-113,1.3,0.082,-0.07,99.73,4.0,,0.0,0.0,
2025-08-15T03:54:43.801Z,17,GR86-063-113,1.6,0.085,-0.059,99.74,4.0,,0.0,0.0,
2025-08-15T03:54:43.844Z,17,GR86-063-113,2.0,0.097,-0.069,99.73,4.0,7026.0,0.0,0.0,
2025-08-15T03:54:43.887Z,17,GR86-063-113,1.9,0.077,-0.086,99.75,4.0,,0.0,0.0,178.5
2025-08-15T03:54:43.930Z,17,GR86-063-113,1.8,0.087,-0.086,99.74,4.0,,0.0,0.0,
2025-08-15T03:54:43.974Z,17,GR86-063-113,2.0,0.093,-0.099,99.71,4.0,,0.0,0.0,
2025-08-15T03:54:44.017Z,17,GR86-063-113,2.0,0.086,-0.09,99.73,4.0,,0.0,0.0,
2025-08-15T03:54:44.060Z,17,GR86-063-113,2.0,0.078,-0.102,99.72,4.0,7052.0,0.0,0.0,
2025-08-15T03:54:44.104Z,17,GR86-063-113,2.0,0.086,-0.108,99.74,4.0,,0.0,0.0,179.4
2025-08-15T03:54:44.146Z,17,GR86-063-113,1.8,0.085,-0.101,99.74,4.0,,0.0,0.0,
2025-08-15T03:54:44.189Z,17,GR86-063-113,1.8,0.093,-0.093,99.73,4.0,,0.0,0.0,
2025-08-15T03:54:44.233Z,17,GR86-063-113,2.0,0.093,-0.106,99.72,4.0,,0.0,0.0,
2025-08-15T03:54:44.277Z,17,GR86-063-113,2.0,0.09,-0.11,99.72,4.0,7073.0,0.0,0.0,
2025-08-15T03:54:44.320Z,17,GR86-063-113,2.0,0.105,-0.113,99.73,4.0,,0.0,0.0,180.19
2025-08-15T03:54:44.364Z,17,GR86-063-113,2.2,0.092,-0.104,99.73,4.0,,0.0,0.0,
2025-08-15T03:54:44.407Z,17,GR86-063-113,2.3000000000000003,0.106,-0.104,99.73,4.0,,0.0,0.0,
2025-08-15T03:54:44.450Z,17,GR86-063-113,2.3000000000000003,0.102,-0.098,99.74,4.0,,0.0,0.0,
2025-08-15T03:54:44.494Z,17,GR86-063-113,2.2,0.076,-0.102,99.72,4.0,7104.0,0.0,0.0,
2025-08-15T03:54:44.537Z,17,GR86-063-113,2.1,0.061,-0.104,99.72,4.0,,0.0,0.0,181.0
2025-08-15T03:54:44.580Z,17,GR86-063-113,2.1,0.081,-0.09,99.75,4.0,,0.0,0.0,
2025-08-15T03:54:44.625Z,17,GR86-063-113,2.2,0.082,-0.072,99.74,4.0,,0.0,0.0,
2025-08-15T03:54:44.668Z,17,GR86-063-113,2.4000000000000004,0.083,-0.066,99.73,4.0,,0.0,0.0,
2025-08-15T03:54:44.711Z,17,GR86-063-113,2.4000000000000004,0.074,-0.077,99.74,4.0,7144.0,0.0,0.0,
2025-08-15T03:54:44.754Z,17,GR86-063-113,2.4000000000000004,0.088,-0.061,99.72,4.0,,0.0,0.0,181.8
2025-08-15T03:54:44.797Z,17,GR86-063-113,2.4000000000000004,0.103,-0.075,99.74,4.0,,0.0,0.0,
2025-08-15T03:54:44.840Z,17,GR86-063-113,2.4000000000000004,0.09,-0.063,99.72,4.0,,0.0,0.0,
2025-08-15T03:54:44.884Z,17,GR86-063-113,2.3000000000000003,0.089,-0.065,99.73,4.0,,0.0,0.0,
2025-08-15T03:54:44.927Z,17,GR86-063-113,2.4000000000000004,0.091,-0.061,99.73,4.0,7170.0,0.0,0.0,
2025-08-15T03:54:44.970Z,17,GR86-063-113,2.4000000000000004,0.095,-0.065,99.74,4.0,,0.0,0.0,182.62
2025-08-15T03:54:45.014Z,17,GR86-063-113,2.2,0.093,-0.092,99.73,4.0,,0.0,0.0,
2025-08-15T03:54:45.057Z,17,GR86-063-113,2.0,0.077,-0.092,99.74,4.0,,0.0,0.0,
2025-08-15T03:54:45.100Z,17,GR86-063-113,1.8,0.099,-0.097,99.73,4.0,,0.0,0.0,
2025-08-15T03:54:45.144Z,17,GR86-063-113,1.8,0.086,-0.107,99.72,4.0,7199.0,0.0,0.0,
2025-08-15T03:54:45.186Z,17,GR86-063-113,1.9,0.102,-0.116,99.73,4.0,,0.0,0.0,183.37
2025-08-15T03:54:45.229Z,17,GR86-063-113,2.0,0.11,-0.124,99.74,4.0,,0.0,0.0,
2025-08-15T03:54:45.274Z,17,GR86-063-113,2.2,0.073,-0.092,99.74,4.0,,0.0,0.0,
2025-08-15T03:54:45.317Z,17,GR86-063-113,2.2,0.056,-0.112,99.72,4.0,,0.0,0.0,
2025-08-15T03:54:45.360Z,17,GR86-063-113,2.2,0.057,-0.121,99.73,4.0,7238.0,0.0,0.0,
2025-08-15T03:54:45.404Z,17,GR86-063-113,2.4000000000000004,0.066,-0.107,99.72,4.0,,0.0,0.0,184.01
2025-08-15T03:54:45.447Z,17,GR86-063-113,2.6,0.048,-0.098,99.73,4.0,,0.0,0.0,
2025-08-15T03:54:45.490Z,17,GR86-063-113,2.6,0.064,-0.076,99.75,4.0,,0.0,0.0,
2025-08-15T03:54:45.534Z,17,GR86-063-113,2.5,0.127,-0.075,99.74,4.0,,0.0,0.0,
2025-08-15T03:54:45.577Z,17,GR86-063-113,2.4000000000000004,0.121,-0.063,99.74,4.0,7260.0,0.0,0.0,
2025-08-15T03:54:45.620Z,17,GR86-063-113,2.5,0.113,-0.032,99.72,4.0,,0.0,0.0,185.7
2025-08-15T03:54:45.665Z,17,GR86-063-113,2.6,0.127,-0.046,99.74,4.0,,0.0,0.0,
2025-08-15T03:54:45.707Z,17,GR86-063-113,2.4000000000000004,0.085,-0.079,99.75,4.0,,0.0,0.0,
2025-08-15T03:54:45.750Z,17,GR86-063-113,2.2,-0.103,-0.075,99.74,5.0,,0.0,0.0,
2025-08-15T03:54:45.794Z,17,GR86-063-113,2.3000000000000003,0.162,-0.027,99.73,5.0,7279.0,0.0,0.0,
2025-08-15T03:54:45.837Z,17,GR86-063-113,2.7,0.281,-0.096,99.74,5.0,,0.0,0.0,186.27
2025-08-15T03:54:45.880Z,17,GR86-063-113,2.7,0.011,-0.039,99.73,5.0,,0.0,0.0,
2025-08-15T03:54:45.926Z,17,GR86-063-113,2.4000000000000004,-0.068,-0.041,99.73,5.0,,0.0,0.0,
2025-08-15T03:54:45.969Z,17,GR86-063-113,2.4000000000000004,0.11,-0.104,99.71,5.0,,0.0,0.0,
2025-08-15T03:54:46.014Z,17,GR86-063-113,2.5,0.081,-0.044,99.72,5.0,6389.0,0.0,0.0,
2025-08-15T03:54:46.057Z,17,GR86-063-113,2.2,0.009,-0.1,99.72,5.0,,0.0,0.0,186.91
2025-08-15T03:54:46.100Z,17,GR86-063-113,2.2,0.055,-0.09,99.75,5.0,,0.0,0.0,
2025-08-15T03:54:46.144Z,17,GR86-063-113,2.3000000000000003,0.068,-0.065,99.72,5.0,,0.0,0.0,
2025-08-15T03:54:46.186Z,17,GR86-063-113,2.6,0.045,-0.098,99.73,5.0,,0.0,0.0,
2025-08-15T03:54:46.229Z,17,GR86-063-113,2.7,0.039,-0.069,99.72,5.0,6373.0,0.0,0.0,
2025-08-15T03:54:46.274Z,17,GR86-063-113,2.8000000000000003,0.108,-0.086,99.72,5.0,,0.0,0.0,187.53
2025-08-15T03:54:46.317Z,17,GR86-063-113,2.8000000000000003,0.092,-0.078,99.72,5.0,,0.0,0.0,
2025-08-15T03:54:46.360Z,17,GR86-063-113,2.9000000000000004,0.098,-0.065,99.74,5.0,,0.0,0.0,
2025-08-15T03:54:46.404Z,17,GR86-063-113,3.0,0.086,-0.039,99.75,5.0,,0.0,0.0,
2025-08-15T03:54:46.446Z,17,GR86-063-113,2.9000000000000004,0.096,-0.039,99.72,5.0,6404.0,0.0,0.0,
2025-08-15T03:54:46.489Z,17,GR86-063-113,2.8000000000000003,0.072,-0.033,99.75,5.0,,0.0,0.0,188.35
2025-08-15T03:54:46.534Z,17,GR86-063-113,2.7,0.069,-0.043,99.72,5.0,,0.0,0.0,
2025-08-15T03:54:46.577Z,17,GR86-063-113,2.6,0.088,-0.059,99.72,5.0,,0.0,0.0,
2025-08-15T03:54:46.620Z,17,GR86-063-113,2.6,0.078,-0.055,99.75,5.0,,0.0,0.0,
2025-08-15T03:54:46.664Z,17,GR86-063-113,2.7,0.094,-0.063,99.73,5.0,6419.0,0.0,0.0,
2025-08-15T03:54:46.707Z,17,GR86-063-113,2.8000000000000003,0.086,-0.055,99.75,5.0,,0.0,0.0,188.98
2025-08-15T03:54:46.750Z,17,GR86-063-113,2.9000000000000004,0.097,-0.059,99.75,5.0,,0.0,0.0,
2025-08-15T03:54:46.794Z,17,GR86-063-113,3.0,0.058,-0.03,99.72,5.0,,0.0,0.0,
2025-08-15T03:54:46.837Z,17,GR86-063-113,3.0,0.054,-0.036,99.73,5.0,,0.0,0.0,
2025-08-15T03:54:46.880Z,17,GR86-063-113,3.0,0.056,-0.041,99.72,5.0,6451.0,0.0,0.0,
2025-08-15T03:54:46.925Z,17,GR86-063-113,2.9000000000000004,0.062,-0.043,99.74,5.0,,0.0,0.0,189.61
2025-08-15T03:54:46.968Z,17,GR86-063-113,3.0,0.056,-0.025,99.75,5.0,,0.0,0.0,
2025-08-15T03:54:47.011Z,17,GR86-063-113,3.0,0.073,-0.029,99.74,5.0,,0.0,0.0,
2025-08-15T03:54:47.054Z,17,GR86-063-113,3.2,0.073,-0.034,99.73,5.0,,0.0,0.0,
2025-08-15T03:54:47.097Z,17,GR86-063-113,3.2,0.055,-0.027,99.72,5.0,6471.0,0.0,0.0,
2025-08-15T03:54:47.140Z,17,GR86-063-113,3.2,0.052,-0.037,99.73,5.0,,0.0,0.0,190.25
2025-08-15T03:54:47.184Z,17,GR86-063-113,3.2,0.051,-0.032,99.76,5.0,,0.0,0.0,
2025-08-15T03:54:47.227Z,17,GR86-063-113,3.2,0.058,-0.02,99.74,5.0,,0.0,0.0,
2025-08-15T03:54:47.270Z,17,GR86-063-113,3.2,0.053,-0.007,99.74,5.0,,0.0,0.0,
2025-08-15T03:54:47.315Z,17,GR86-063-113,3.3000000000000003,0.08,-0.04,99.75,5.0,6494.0,0.0,0.0,
2025-08-15T03:54:47.358Z,17,GR86-063-113,3.4000000000000004,0.062,-0.02,99.73,5.0,,0.0,0.0,190.92
2025-08-15T03:54:47.401Z,17,GR86-063-113,3.2,0.064,-0.018,99.72,5.0,,0.0,0.0,
2025-08-15T03:54:47.444Z,17,GR86-063-113,3.1,0.052,-0.011,99.76,5.0,,0.0,0.0,
2025-08-15T03:54:47.487Z,17,GR86-063-113,3.0,0.069,-0.027,99.75,5.0,,0.0,0.0,
2025-08-15T03:54:47.530Z,17,GR86-063-113,3.0,0.065,-0.032,99.73,5.0,6509.0,0.0,0.0,
2025-08-15T03:54:47.574Z,17,GR86-063-113,2.9000000000000004,0.085,-0.067,99.73,5.0,,0.0,0.0,191.63
2025-08-15T03:54:47.617Z,17,GR86-063-113,2.8000000000000003,0.081,-0.079,99.73,5.0,,0.0,0.0,
2025-08-15T03:54:47.660Z,17,GR86-063-113,2.7,0.068,-0.091,99.76,5.0,,0.0,0.0,
2025-08-15T03:54:47.704Z,17,GR86-063-113,2.8000000000000003,0.07,-0.074,99.75,5.0,,0.0,0.0,
2025-08-15T03:54:47.746Z,17,GR86-063-113,3.0,0.079,-0.082,99.73,5.0,6537.0,0.0,0.0,
2025-08-15T03:54:47.789Z,17,GR86-063-113,3.1,0.055,-0.078,99.72,5.0,,0.0,0.0,192.13
2025-08-15T03:54:47.834Z,17,GR86-063-113,3.3000000000000003,0.076,-0.052,99.72,5.0,,0.0,0.0,
2025-08-15T03:54:47.877Z,17,GR86-063-113,3.4000000000000004,0.072,-0.048,99.75,5.0,,0.0,0.0,
2025-08-15T03:54:47.920Z,17,GR86-063-113,3.3000000000000003,0.067,-0.054,99.74,5.0,,0.0,0.0,
2025-08-15T03:54:47.964Z,17,GR86-063-113,3.3000000000000003,0.085,-0.043,99.72,5.0,6556.0,0.0,0.0,
2025-08-15T03:54:48.007Z,17,GR86-063-113,3.3000000000000003,0.05,-0.032,99.71,5.0,,0.0,0.0,193.01
2025-08-15T03:54:48.050Z,17,GR86-063-113,3.2,0.066,-0.045,99.74,5.0,,0.0,0.0,
2025-08-15T03:54:48.094Z,17,GR86-063-113,3.2,0.071,-0.031,99.72,5.0,,0.0,0.0,
2025-08-15T03:54:48.137Z,17,GR86-063-113,3.2,0.074,-0.04,99.74,5.0,,0.0,0.0,
2025-08-15T03:54:48.180Z,17,GR86-063-113,3.2,0.058,-0.039,99.74,5.0,6581.0,0.0,0.0,
2025-08-15T03:54:48.225Z,17,GR86-063-113,3.3000000000000003,0.05,-0.037,99.75,5.0,,0.0,0.0,194.24
2025-08-15T03:54:48.268Z,17,GR86-063-113,3.4000000000000004,0.077,-0.031,99.74,5.0,,0.0,0.0,
2025-08-15T03:54:48.311Z,17,GR86-063-113,3.5,0.047,-0.035,99.74,5.0,,0.0,0.0,
2025-08-15T03:54:48.354Z,17,GR86-063-113,3.6,0.055,-0.019,99.72,5.0,,0.0,0.0,
2025-08-15T03:54:48.397Z,17,GR86-063-113,3.6,0.063,-0.033,99.72,5.0,6608.0,0.0,0.0,
2025-08-15T03:54:48.440Z,17,GR86-063-113,3.6,0.061,-0.023,99.73,5.0,,0.0,0.0,194.93
2025-08-15T03:54:48.484Z,17,GR86-063-113,3.5,0.049,-0.016,99.74,5.0,,0.0,0.0,
2025-08-15T03:54:48.527Z,17,GR86-063-113,3.6,0.067,0.002,99.73,5.0,,0.0,0.0,
2025-08-15T03:54:48.570Z,17,GR86-063-113,3.6,0.05,0.013,99.74,5.0,,0.0,0.0,
2025-08-15T03:54:48.614Z,17,GR86-063-113,3.6,0.052,0.013,99.72,5.0,6637.0,0.0,0.0,
2025-08-15T03:54:48.657Z,17,GR86-063-113,3.5,0.059,0.028,99.75,5.0,,0.0,0.0,195.57
2025-08-15T03:54:48.700Z,17,GR86-063-113,3.5,0.055,0.009,99.74,5.0,,0.0,0.0,
2025-08-15T03:54:48.744Z,17,GR86-063-113,3.5,0.052,0.001,99.73,5.0,,0.0,0.0,
2025-08-15T03:54:48.786Z,17,GR86-063-113,3.5,0.065,-0.002,99.74,5.0,,0.0,0.0,
2025-08-15T03:54:48.829Z,17,GR86-063-113,3.5,0.051,-0.007,99.74,5.0,6659.0,0.0,0.0,
2025-08-15T03:54:48.874Z,17,GR86-063-113,3.5,0.054,-0.025,99.75,5.0,,0.0,0.0,196.05
2025-08-15T03:54:48.917Z,17,GR86-063-113,3.5,0.058,-0.034,99.75,5.0,,0.0,0.0,
2025-08-15T03:54:48.960Z,17,GR86-063-113,3.5,0.066,-0.038,99.74,5.0,,0.0,0.0,
2025-08-15T03:54:49.004Z,17,GR86-063-113,3.7,0.042,-0.033,99.74,5.0,,0.0,0.0,
2025-08-15T03:54:49.047Z,17,GR86-063-113,3.8,0.069,-0.039,99.74,5.0,6690.0,0.0,0.0,
2025-08-15T03:54:49.090Z,17,GR86-063-113,4.0,0.063,-0.013,99.73,5.0,,0.0,0.0,196.55
2025-08-15T03:54:49.134Z,17,GR86-063-113,4.1000000000000005,0.048,0.004,99.72,5.0,,0.0,0.0,
2025-08-15T03:54:49.177Z,17,GR86-063-113,4.2,0.056,-0.007,99.75,5.0,,0.0,0.0,
2025-08-15T03:54:49.220Z,17,GR86-063-113,4.2,0.056,0.012,99.73,5.0,,0.0,0.0,
2025-08-15T03:54:49.265Z,17,GR86-063-113,4.3,0.059,0.011,99.74,5.0,6709.0,0.0,0.0,
2025-08-15T03:54:49.307Z,17,GR86-063-113,4.4,0.062,0.002,99.73,5.0,,0.0,0.0,197.21
2025-08-15T03:54:49.350Z,17,GR86-063-113,4.5,0.076,0.005,99.75,5.0,,0.0,0.0,
2025-08-15T03:54:49.394Z,17,GR86-063-113,4.6000000000000005,0.046,0.017,99.74,5.0,,0.0,0.0,
2025-08-15T03:54:49.437Z,17,GR86-063-113,4.6000000000000005,0.036,0.036,99.73,5.0,,0.0,0.0,
2025-08-15T03:54:49.480Z,17,GR86-063-113,4.800000000000001,0.047,0.044,99.73,5.0,6722.0,0.0,0.0,
2025-08-15T03:54:49.526Z,17,GR86-063-113,5.0,0.055,0.062,99.74,5.0,,0.0,0.0,197.84
2025-08-15T03:54:49.569Z,17,GR86-063-113,5.4,0.055,0.062,99.73,5.0,,0.0,0.0,
2025-08-15T03:54:49.614Z,17,GR86-063-113,6.1000000000000005,0.026,0.084,99.72,5.0,,0.0,0.0,
2025-08-15T03:54:49.657Z,17,GR86-063-113,6.300000000000001,0.051,0.089,99.74,5.0,,0.0,0.0,
2025-08-15T03:54:49.700Z,17,GR86-063-113,6.2,0.039,0.093,99.75,5.0,6748.0,0.0,0.0,
2025-08-15T03:54:49.744Z,17,GR86-063-113,6.2,0.051,0.09,99.72,5.0,,0.0,0.0,198.45
2025-08-15T03:54:49.786Z,17,GR86-063-113,6.300000000000001,0.069,0.096,99.74,5.0,,0.0,0.0,
2025-08-15T03:54:49.829Z,17,GR86-063-113,6.4,0.082,0.098,99.76,5.0,,0.0,0.0,
2025-08-15T03:54:49.874Z,17,GR86-063-113,6.800000000000001,0.048,0.123,99.71,5.0,,0.0,0.0,
2025-08-15T03:54:49.917Z,17,GR86-063-113,7.5,0.05,0.119,99.71,5.0,6765.0,0.0,0.0,
2025-08-15T03:54:49.960Z,17,GR86-063-113,8.4,0.055,0.125,99.73,5.0,,0.0,0.0,199.04
2025-08-15T03:54:50.004Z,17,GR86-063-113,9.1,0.068,0.137,99.74,5.0,,0.0,0.0,
2025-08-15T03:54:50.047Z,17,GR86-063-113,9.4,0.089,0.162,99.73,5.0,,0.0,0.0,
2025-08-15T03:54:50.090Z,17,GR86-063-113,9.3,0.065,0.213,99.72,5.0,,0.0,0.0,
2025-08-15T03:54:50.134Z,17,GR86-063-113,9.7,0.045,0.201,99.73,5.0,6788.0,0.0,0.0,
2025-08-15T03:54:50.177Z,17,GR86-063-113,10.4,0.069,0.216,99.74,5.0,,0.0,0.0,199.68
2025-08-15T03:54:50.220Z,17,GR86-063-113,11.4,0.075,0.245,99.72,5.0,,0.0,0.0,
2025-08-15T03:54:50.264Z,17,GR86-063-113,12.3,0.057,0.274,99.72,5.0,,0.0,0.0,
2025-08-15T03:54:50.307Z,17,GR86-063-113,12.6,0.064,0.306,99.74,5.0,,0.0,0.0,
2025-08-15T03:54:50.350Z,17,GR86-063-113,12.8,0.05,0.312,99.72,5.0,6804.0,0.0,0.0,
2025-08-15T03:54:50.394Z,17,GR86-063-113,12.9,0.069,0.353,99.74,5.0,,0.0,0.0,200.34
2025-08-15T03:54:50.437Z,17,GR86-063-113,12.8,0.063,0.373,99.72,5.0,,0.0,0.0,
2025-08-15T03:54:50.480Z,17,GR86-063-113,12.9,0.069,0.356,99.72,5.0,,0.0,0.0,
2025-08-15T03:54:50.526Z,17,GR86-063-113,13.0,0.053,0.371,99.73,5.0,,0.0,0.0,
2025-08-15T03:54:50.568Z,17,GR86-063-113,13.2,0.042,0.383,99.74,5.0,6820.0,0.0,0.0,
2025-08-15T03:54:50.611Z,17,GR86-063-113,13.1,0.031,0.395,99.75,5.0,,0.0,0.0,200.82
2025-08-15T03:54:50.654Z,17,GR86-063-113,13.1,0.063,0.374,99.72,5.0,,0.0,0.0,
2025-08-15T03:54:50.697Z,17,GR86-063-113,13.2,0.045,0.39,99.75,5.0,,0.0,0.0,
2025-08-15T03:54:50.740Z,17,GR86-063-113,13.3,0.038,0.396,99.75,5.0,,0.0,0.0,
2025-08-15T03:54:50.784Z,17,GR86-063-113,13.3,0.039,0.405,99.74,5.0,6848.0,0.0,0.0,
2025-08-15T03:54:50.826Z,17,GR86-063-113,13.3,0.033,0.391,99.73,5.0,,0.0,0.0,201.83
2025-08-15T03:54:50.869Z,17,GR86-063-113,13.3,0.057,0.385,99.75,5.0,,0.0,0.0,
2025-08-15T03:54:50.915Z,17,GR86-063-113,13.3,0.04,0.356,99.73,5.0,,0.0,0.0,
2025-08-15T03:54:50.958Z,17,GR86-063-113,13.1,0.027,0.377,99.74,5.0,,0.0,0.0,
2025-08-15T03:54:51.001Z,17,GR86-063-113,12.9,0.047,0.364,99.74,5.0,6866.0,0.0,0.0,
2025-08-15T03:54:51.044Z,17,GR86-063-113,13.0,0.041,0.368,99.73,5.0,,0.0,0.0,202.34
2025-08-15T03:54:51.087Z,17,GR86-063-113,13.0,0.071,0.346,99.72,5.0,,0.0,0.0,
2025-08-15T03:54:51.130Z,17,GR86-063-113,13.0,0.072,0.326,99.73,5.0,,0.0,0.0,
2025-08-15T03:54:51.174Z,17,GR86-063-113,12.8,0.03,0.327,99.72,5.0,,0.0,0.0,
2025-08-15T03:54:51.217Z,17,GR86-063-113,12.7,0.061,0.337,99.72,5.0,6913.0,0.0,0.0,
2025-08-15T03:54:51.260Z,17,GR86-063-113,12.7,0.061,0.34,99.74,5.0,,0.0,0.0,202.73
2025-08-15T03:54:51.304Z,17,GR86-063-113,12.5,0.085,0.347,99.71,5.0,,0.0,0.0,
2025-08-15T03:54:51.346Z,17,GR86-063-113,12.4,0.057,0.351,99.72,5.0,,0.0,0.0,
2025-08-15T03:54:51.389Z,17,GR86-063-113,12.4,0.054,0.369,99.75,5.0,,0.0,0.0,
2025-08-15T03:54:51.434Z,17,GR86-063-113,12.3,0.076,0.357,99.72,5.0,6921.0,0.0,0.0,
2025-08-15T03:54:51.477Z,17,GR86-063-113,12.1,0.075,0.348,99.75,5.0,,0.0,0.0,203.38
2025-08-15T03:54:51.520Z,17,GR86-063-113,11.8,0.068,0.321,99.72,5.0,,0.0,0.0,
2025-08-15T03:54:51.564Z,17,GR86-063-113,11.6,0.05,0.288,99.72,5.0,,0.0,0.0,
2025-08-15T03:54:51.607Z,17,GR86-063-113,11.6,0.039,0.274,99.71,5.0,,0.0,0.0,
2025-08-15T03:54:51.650Z,17,GR86-063-113,11.6,0.024,0.257,99.73,5.0,6942.0,0.0,0.0,
2025-08-15T03:54:51.694Z,17,GR86-063-113,11.4,0.066,0.239,99.72,5.0,,0.0,0.0,204.0
2025-08-15T03:54:51.737Z,17,GR86-063-113,11.3,0.041,0.238,99.74,5.0,,0.0,0.0,
2025-08-15T03:54:51.780Z,17,GR86-063-113,11.2,0.026,0.256,99.73,5.0,,0.0,0.0,
2025-08-15T03:54:51.825Z,17,GR86-063-113,11.2,0.014,0.273,99.72,5.0,,0.0,0.0,
2025-08-15T03:54:51.868Z,17,GR86-063-113,11.0,0.04,0.247,99.75,5.0,6952.0,0.0,0.0,
2025-08-15T03:54:51.911Z,17,GR86-063-113,11.0,0.065,0.243,99.72,5.0,,0.0,0.0,204.45
2025-08-15T03:54:51.954Z,17,GR86-063-113,10.9,0.024,0.235,99.73,5.0,,0.0,0.0,
2025-08-15T03:54:51.997Z,17,GR86-063-113,10.9,0.034,0.22,99.73,5.0,,0.0,0.0,
2025-08-15T03:54:52.040Z,17,GR86-063-113,10.9,0.058,0.231,99.74,5.0,,0.0,0.0,
2025-08-15T03:54:52.084Z,17,GR86-063-113,11.0,0.066,0.217,99.75,5.0,6969.0,0.0,0.0,
2025-08-15T03:54:52.127Z,17,GR86-063-113,11.0,0.073,0.209,99.74,5.0,,0.0,0.0,205.05
2025-08-15T03:54:52.170Z,17,GR86-063-113,11.1,0.039,0.209,99.74,5.0,,0.0,0.0,
2025-08-15T03:54:52.214Z,17,GR86-063-113,11.0,0.06,0.211,99.72,5.0,,0.0,0.0,
2025-08-15T03:54:52.257Z,17,GR86-063-113,10.9,0.06,0.254,99.72,5.0,,0.0,0.0,
2025-08-15T03:54:52.300Z,17,GR86-063-113,10.7,0.068,0.264,99.72,5.0,7002.0,0.0,0.0,
2025-08-15T03:54:52.344Z,17,GR86-063-113,10.5,0.042,0.273,99.71,5.0,,0.0,0.0,205.41
2025-08-15T03:54:52.386Z,17,GR86-063-113,10.7,0.018,0.313,99.73,5.0,,0.0,0.0,
2025-08-15T03:54:52.429Z,17,GR86-063-113,10.7,0.035,0.321,99.71,5.0,,0.0,0.0,
2025-08-15T03:54:52.474Z,17,GR86-063-113,10.5,0.053,0.308,99.72,5.0,,0.0,0.0,
2025-08-15T03:54:52.517Z,17,GR86-063-113,10.5,0.037,0.259,99.74,5.0,7012.0,0.0,0.0,
2025-08-15T03:54:52.560Z,17,GR86-063-113,10.6,0.041,0.228,99.74,5.0,,0.0,0.0,206.2
2025-08-15T03:54:52.604Z,17,GR86-063-113,10.7,0.015,0.208,99.72,5.0,,0.0,0.0,
2025-08-15T03:54:52.647Z,17,GR86-063-113,10.9,0.06,0.197,99.74,5.0,,0.0,0.0,
2025-08-15T03:54:52.690Z,17,GR86-063-113,11.0,0.072,0.23,99.73,5.0,,0.0,0.0,
2025-08-15T03:54:52.734Z,17,GR86-063-113,10.9,0.028,0.253,99.75,5.0,7027.0,0.0,0.0,
2025-08-15T03:54:52.777Z,17,GR86-063-113,10.9,0.05,0.26,99.74,5.0,,0.0,0.0,206.98
2025-08-15T03:54:52.820Z,17,GR86-063-113,10.8,0.069,0.286,99.72,5.0,,0.0,0.0,
2025-08-15T03:54:52.865Z,17,GR86-063-113,10.7,0.062,0.291,99.74,5.0,,0.0,0.0,
2025-08-15T03:54:52.907Z,17,GR86-063-113,10.7,0.04,0.307,99.74,5.0,,0.0,0.0,
2025-08-15T03:54:52.950Z,17,GR86-063-113,10.7,0.046,0.294,99.73,5.0,7065.0,0.0,0.0,
2025-08-15T03:54:52.994Z,17,GR86-063-113,10.7,0.069,0.27,99.73,5.0,,0.0,0.0,207.4
2025-08-15T03:54:53.037Z,17,GR86-063-113,10.7,0.034,0.26,99.75,5.0,,0.0,0.0,
2025-08-15T03:54:53.080Z,17,GR86-063-113,10.7,0.038,0.228,99.74,5.0,,0.0,0.0,
2025-08-15T03:54:53.126Z,17,GR86-063-113,10.7,0.028,0.224,99.75,5.0,,0.0,0.0,
2025-08-15T03:54:53.168Z,17,GR86-063-113,10.5,0.04,0.211,99.72,5.0,7071.0,0.0,0.0,
2025-08-15T03:54:53.211Z,17,GR86-063-113,10.2,0.046,0.176,99.73,5.0,,2.215,2.4250000000000003,208.2
2025-08-15T03:54:53.254Z,17,GR86-063-113,9.2,-0.028,0.162,58.98,5.0,,12.925,13.14,
2025-08-15T03:54:53.297Z,17,GR86-063-113,8.8,-0.13,0.168,16.42,5.0,,22.095,22.065,
2025-08-15T03:54:53.340Z,17,GR86-063-113,8.5,-0.344,0.168,4.91,5.0,,33.495,33.22,
2025-08-15T03:54:53.384Z,17,GR86-063-113,8.5,-0.6920000000000001,0.14,4.8100000000000005,5.0,7104.0,45.66,45.215,
2025-08-15T03:54:53.426Z,17,GR86-063-113,8.3,-0.96,0.138,4.54,5.0,,57.055,56.4,208.41
2025-08-15T03:54:53.469Z,17,GR86-063-113,8.1,-1.235,0.06,4.28,5.0,,65.86,65.525,
2025-08-15T03:54:53.514Z,17,GR86-063-113,7.300000000000001,-1.251,0.085,3.84,5.0,,74.53,76.33,
2025-08-15T03:54:53.557Z,17,GR86-063-113,7.5,-1.242,0.069,3.6,5.0,,75.58500000000001,76.24,
2025-08-15T03:54:53.644Z,17,GR86-063-113,7.2,-1.192,0.07,3.09,5.0,6781.0,77.305,78.27,201.38
2025-08-15T03:54:53.686Z,17,GR86-063-113,6.6000000000000005,-1.207,0.072,24.41,5.0,,75.875,76.36,
2025-08-15T03:54:53.729Z,17,GR86-063-113,6.6000000000000005,-1.229,0.064,51.07,4.0,,74.895,75.125,
2025-08-15T03:54:53.774Z,17,GR86-063-113,6.800000000000001,-1.239,0.071,4.78,4.0,,76.83500000000001,78.545,
2025-08-15T03:54:53.817Z,17,GR86-063-113,6.800000000000001,-1.389,0.085,4.3100000000000005,4.0,6656.0,77.52,79.185,
2025-08-15T03:54:53.860Z,17,GR86-063-113,6.800000000000001,-1.331,0.132,4.0200000000000005,4.0,,74.08500000000001,74.5,191.37
2025-08-15T03:54:53.904Z,17,GR86-063-113,6.5,-1.217,0.166,3.76,4.0,,73.31,74.775,
2025-08-15T03:54:53.946Z,17,GR86-063-113,4.2,-1.254,0.184,3.59,4.0,,72.01,73.17,
2025-08-15T03:54:53.989Z,17,GR86-063-113,3.5,-1.238,0.253,3.34,4.0,,67.08500000000001,67.555,
2025-08-15T03:54:54.034Z,17,GR86-063-113,0.7000000000000001,-1.124,0.17,2.9,4.0,6627.0,64.72,66.33500000000001,
2025-08-15T03:54:54.077Z,17,GR86-063-113,0.2,-1.03,0.211,2.67,4.0,,61.68,62.305,184.53
2025-08-15T03:54:54.120Z,17,GR86-063-113,0.3,-1.092,0.188,2.56,4.0,,60.08,60.795,
2025-08-15T03:54:54.164Z,17,GR86-063-113,1.4,-1.139,0.074,2.49,4.0,,59.71,60.58,
2025-08-15T03:54:54.207Z,17,GR86-063-113,6.1000000000000005,-1.073,0.081,2.46,4.0,,60.02,60.23,
2025-08-15T03:54:54.250Z,17,GR86-063-113,9.8,-1.138,0.083,2.44,4.0,6675.0,59.65,60.02,
2025-08-15T03:54:54.294Z,17,GR86-063-113,13.6,-1.15,0.126,26.56,4.0,,60.735,61.91,177.25
2025-08-15T03:54:54.337Z,17,GR86-063-113,13.2,-1.097,0.147,49.6,3.0,,60.17,60.765,
2025-08-15T03:54:54.380Z,17,GR86-063-113,10.7,-1.276,0.099,4.21,3.0,,61.055,62.535,
2025-08-15T03:54:54.426Z,17,GR86-063-113,8.0,-1.17,0.092,4.3100000000000005,3.0,,62.4,63.895,
2025-08-15T03:54:54.554Z,17,GR86-063-113,6.1000000000000005,-1.109,0.113,3.48,3.0,6745.0,62.185,62.965,170.54
2025-08-15T03:54:54.597Z,17,GR86-063-113,6.1000000000000005,-1.142,0.247,3.21,3.0,,60.645,61.085,
2025-08-15T03:54:54.640Z,17,GR86-063-113,6.1000000000000005,-1.207,0.209,2.96,3.0,,60.92,61.82,
2025-08-15T03:54:54.684Z,17,GR86-063-113,6.0,-1.01,0.139,2.72,3.0,6990.0,61.115,61.45,
2025-08-15T03:54:54.727Z,17,GR86-063-113,5.800000000000001,-1.153,0.215,2.59,3.0,,60.735,61.175,163.31
2025-08-15T03:54:54.770Z,17,GR86-063-113,5.800000000000001,-1.132,0.148,2.52,3.0,,60.795,61.175,
2025-08-15T03:54:54.815Z,17,GR86-063-113,5.7,-1.118,0.163,2.49,3.0,,61.115,61.515,
2025-08-15T03:54:54.858Z,17,GR86-063-113,5.800000000000001,-1.201,0.154,2.47,3.0,,61.145,61.485,
2025-08-15T03:54:54.901Z,17,GR86-063-113,6.0,-1.188,0.143,2.47,3.0,6886.0,61.115,61.36,
2025-08-15T03:54:54.944Z,17,GR86-063-113,6.5,-1.189,0.172,18.11,3.0,,61.115,61.45,155.13
2025-08-15T03:54:54.987Z,17,GR86-063-113,7.6,-1.152,0.15,60.55,3.0,,60.735,61.175,
2025-08-15T03:54:55.030Z,17,GR86-063-113,8.700000000000001,-1.161,0.165,95.41,2.0,,60.4,60.825,
2025-08-15T03:54:55.074Z,17,GR86-063-113,8.4,-1.256,0.122,9.1,2.0,,61.85,63.145,
2025-08-15T03:54:55.117Z,17,GR86-063-113,6.9,-1.195,0.212,2.56,2.0,6551.0,63.56,64.75,
2025-08-15T03:54:55.160Z,17,GR86-063-113,6.300000000000001,-1.055,0.07,2.54,2.0,,62.06,62.625,148.23
2025-08-15T03:54:55.204Z,17,GR86-063-113,5.800000000000001,-1.235,0.213,2.53,2.0,,61.42,62.46,
2025-08-15T03:54:55.246Z,17,GR86-063-113,5.2,-1.142,0.137,2.53,2.0,,62.690000000000005,64.125,
2025-08-15T03:54:55.289Z,17,GR86-063-113,5.300000000000001,-0.966,0.171,2.52,2.0,,61.36,61.71,
2025-08-15T03:54:55.334Z,17,GR86-063-113,5.300000000000001,-1.257,0.219,2.52,2.0,7144.0,62.125,63.495000000000005,
2025-08-15T03:54:55.377Z,17,GR86-063-113,5.7,-1.021,0.104,2.52,2.0,,62.185,62.9,140.8
2025-08-15T03:54:55.420Z,17,GR86-063-113,8.8,-1.335,0.288,2.53,2.0,,61.82,62.625,
2025-08-15T03:54:55.464Z,17,GR86-063-113,12.2,-1.19,0.239,2.52,2.0,,62.93,64.185,
2025-08-15T03:54:55.507Z,17,GR86-063-113,14.3,-1.102,0.161,2.52,2.0,,62.690000000000005,63.525,
2025-08-15T03:54:55.550Z,17,GR86-063-113,14.3,-1.153,0.318,2.51,2.0,7042.0,62.125,62.595,
2025-08-15T03:54:55.595Z,17,GR86-063-113,13.9,-1.166,0.187,2.5,2.0,,61.24,61.59,133.08
2025-08-15T03:54:55.637Z,17,GR86-063-113,13.8,-1.154,0.258,2.52,2.0,,60.08,60.55,
2025-08-15T03:54:55.680Z,17,GR86-063-113,14.0,-1.11,0.232,8.78,2.0,,58.46,59.21,
2025-08-15T03:54:55.725Z,17,GR86-063-113,15.6,-1.134,0.222,50.38,1.0,,56.905,57.56,
2025-08-15T03:54:55.768Z,17,GR86-063-113,17.6,-1.202,0.252,21.26,1.0,6812.0,56.005,57.09,
2025-08-15T03:54:55.811Z,17,GR86-063-113,19.200000000000003,-1.096,0.334,4.83,1.0,,56.72,58.05,125.11
2025-08-15T03:54:55.854Z,17,GR86-063-113,22.4,-1.151,0.354,4.34,1.0,,56.875,57.44,
2025-08-15T03:54:55.897Z,17,GR86-063-113,24.4,-1.107,0.448,4.0200000000000005,1.0,,56.4,57.685,
2025-08-15T03:54:55.940Z,17,GR86-063-113,25.9,-1.176,0.504,3.82,1.0,,56.935,58.185,
2025-08-15T03:54:55.984Z,17,GR86-063-113,26.9,-0.964,0.657,3.54,1.0,6754.0,55.075,55.515,
2025-08-15T03:54:56.027Z,17,GR86-063-113,27.9,-1.129,0.645,3.2,1.0,,52.965,54.02,111.37
2025-08-15T03:54:56.070Z,17,GR86-063-113,28.5,-0.976,0.668,2.81,1.0,,51.365,52.115,
2025-08-15T03:54:56.114Z,17,GR86-063-113,33.2,-0.774,1.005,2.58,1.0,,48.45,49.46,
2025-08-15T03:54:56.157Z,17,GR86-063-113,35.5,-0.795,0.95,2.49,1.0,,44.345,45.335,
2025-08-15T03:54:56.200Z,17,GR86-063-113,37.0,-0.842,0.926,2.46,1.0,6915.0,40.09,41.31,
2025-08-15T03:54:56.244Z,17,GR86-063-113,39.400000000000006,-0.777,1.078,2.46,1.0,,38.655,39.43,105.01
2025-08-15T03:54:56.286Z,17,GR86-063-113,43.5,-0.979,1.016,2.44,1.0,,38.655,39.645,
2025-08-15T03:54:56.329Z,17,GR86-063-113,47.7,-0.79,1.085,2.43,1.0,,37.295,38.44,
2025-08-15T03:54:56.374Z,17,GR86-063-113,53.900000000000006,-0.757,1.072,2.44,1.0,,33.25,33.94,
2025-08-15T03:54:56.417Z,17,GR86-063-113,57.8,-0.736,1.128,2.44,1.0,6590.0,32.410000000000004,33.13,
2025-08-15T03:54:56.460Z,17,GR86-063-113,61.1,-0.6890000000000001,1.116,2.45,1.0,,30.335,31.33,99.18
2025-08-15T03:54:56.504Z,17,GR86-063-113,63.0,-0.6,1.096,2.43,1.0,,26.6,27.53,
2025-08-15T03:54:56.590Z,17,GR86-063-113,66.3,-0.602,1.155,2.46,1.0,,21.5,21.99,
2025-08-15T03:54:56.634Z,17,GR86-063-113,65.10000000000001,-0.496,1.18,2.46,1.0,6483.0,17.245,17.900000000000002,
2025-08-15T03:54:56.677Z,17,GR86-063-113,57.1,-0.377,1.156,2.46,1.0,,14.175,14.815,93.73
2025-08-15T03:54:56.720Z,17,GR86-063-113,49.7,-0.36,1.153,2.46,1.0,,10.44,10.955,
2025-08-15T03:54:56.765Z,17,GR86-063-113,48.3,-0.378,1.078,2.46,1.0,,7.265000000000001,7.95,
2025-08-15T03:54:56.807Z,17,GR86-063-113,52.0,-0.333,1.095,2.47,1.0,,4.53,5.08,
2025-08-15T03:54:56.850Z,17,GR86-063-113,58.6,-0.318,1.122,2.46,1.0,6248.0,2.395,2.73,
2025-08-15T03:54:56.894Z,17,GR86-063-113,67.2,-0.226,1.211,2.46,1.0,,0.0,0.0,90.35
2025-08-15T03:54:56.937Z,17,GR86-063-113,71.4,-0.19,1.187,2.47,1.0,,0.0,0.0,
2025-08-15T03:54:57.025Z,17,GR86-063-113,74.4,-0.219,1.236,2.47,1.0,,0.0,0.0,
2025-08-15T03:54:57.068Z,17,GR86-063-113,75.4,-0.211,1.295,2.46,1.0,6138.0,0.0,0.0,
2025-08-15T03:54:57.111Z,17,GR86-063-113,66.2,-0.207,1.259,2.47,1.0,,0.0,0.0,88.37
2025-08-15T03:54:57.154Z,17,GR86-063-113,50.7,-0.19,1.205,2.69,1.0,,0.0,0.0,
2025-08-15T03:54:57.197Z,17,GR86-063-113,46.900000000000006,-0.18,1.118,4.46,1.0,,0.0,0.0,
2025-08-15T03:54:57.240Z,17,GR86-063-113,46.900000000000006,-0.199,1.227,9.32,1.0,,0.0,0.0,
2025-08-15T03:54:57.284Z,17,GR86-063-113,50.8,-0.183,1.224,12.61,1.0,6025.0,0.0,0.0,
2025-08-15T03:54:57.326Z,17,GR86-063-113,56.2,-0.16,1.268,17.56,1.0,,0.0,0.0,86.64
2025-08-15T03:54:57.369Z,17,GR86-063-113,62.3,-0.153,1.244,18.13,1.0,,0.0,0.0,
2025-08-15T03:54:57.414Z,17,GR86-063-113,71.0,-0.139,1.361,21.39,1.0,,0.0,0.0,
2025-08-15T03:54:57.457Z,17,GR86-063-113,75.4,-0.126,1.314,21.89,1.0,,0.0,0.0,
2025-08-15T03:54:57.500Z,17,GR86-063-113,78.60000000000001,-0.107,1.338,22.1,1.0,5966.0,0.0,0.0,
2025-08-15T03:54:57.586Z,17,GR86-063-113,80.2,-0.125,1.285,22.79,1.0,,0.0,0.0,85.08
2025-08-15T03:54:57.629Z,17,GR86-063-113,81.9,0.075,1.336,23.38,1.0,,0.0,0.0,
2025-08-15T03:54:57.674Z,17,GR86-063-113,82.60000000000001,0.104,1.357,25.37,1.0,,0.0,0.0,
2025-08-15T03:54:57.717Z,17,GR86-063-113,83.5,0.07,1.093,25.82,1.0,6322.0,0.0,0.0,
2025-08-15T03:54:57.760Z,17,GR86-063-113,85.60000000000001,0.019,1.137,25.78,1.0,,0.0,0.0,83.68
2025-08-15T03:54:57.804Z,17,GR86-063-113,87.2,-0.001,1.278,28.93,1.0,,0.0,0.0,
2025-08-15T03:54:57.846Z,17,GR86-063-113,88.30000000000001,0.204,1.124,29.5,1.0,,0.0,0.0,
2025-08-15T03:54:57.934Z,17,GR86-063-113,87.7,0.032,1.247,30.13,1.0,6349.0,0.0,0.0,
2025-08-15T03:54:57.977Z,17,GR86-063-113,77.80000000000001,0.002,1.315,31.76,1.0,,0.0,0.0,82.47
2025-08-15T03:54:58.020Z,17,GR86-063-113,77.30000000000001,0.113,1.595,31.92,1.0,,0.0,0.0,
2025-08-15T03:54:58.064Z,17,GR86-063-113,78.60000000000001,0.07,1.116,32.46,1.0,,0.0,0.0,
2025-08-15T03:54:58.150Z,17,GR86-063-113,77.80000000000001,0.279,1.179,37.0,1.0,6423.0,0.0,0.0,
2025-08-15T03:54:58.194Z,17,GR86-063-113,68.7,0.251,1.061,44.92,1.0,,0.0,0.0,82.32000000000001
2025-08-15T03:54:58.237Z,17,GR86-063-113,64.60000000000001,0.119,0.927,53.89,1.0,,0.0,0.0,
2025-08-15T03:54:58.280Z,17,GR86-063-113,66.10000000000001,0.101,1.129,57.1,1.0,,0.0,0.0,
2025-08-15T03:54:58.325Z,17,GR86-063-113,70.8,0.324,1.377,65.08,1.0,,0.0,0.0,
2025-08-15T03:54:58.368Z,17,GR86-063-113,74.4,0.361,1.362,67.57000000000001,1.0,6401.0,0.0,0.0,
2025-08-15T03:54:58.411Z,17,GR86-063-113,76.80000000000001,0.341,1.201,68.96000000000001,1.0,,0.0,0.0,83.11
2025-08-15T03:54:58.454Z,17,GR86-063-113,77.5,0.34,1.221,95.2,1.0,,0.0,0.0,
2025-08-15T03:54:58.497Z,17,GR86-063-113,77.30000000000001,0.319,1.057,99.69,1.0,,0.0,0.0,
2025-08-15T03:54:58.540Z,17,GR86-063-113,77.7,0.282,1.096,99.7,1.0,,0.0,0.0,
2025-08-15T03:54:58.584Z,17,GR86-063-113,79.4,0.273,1.133,99.71,1.0,6629.0,0.0,0.0,
2025-08-15T03:54:58.626Z,17,GR86-063-113,79.5,0.277,1.183,99.72,1.0,,0.0,0.0,85.45
2025-08-15T03:54:58.669Z,17,GR86-063-113,75.3,0.29,1.137,99.74,1.0,,0.0,0.0,
2025-08-15T03:54:58.715Z,17,GR86-063-113,56.6,0.313,1.097,99.71,1.0,,0.0,0.0,
2025-08-15T03:54:58.758Z,17,GR86-063-113,43.1,0.326,1.067,99.75,1.0,,0.0,0.0,
2025-08-15T03:54:58.801Z,17,GR86-063-113,32.0,0.333,1.073,99.75,1.0,6723.0,0.0,0.0,
2025-08-15T03:54:58.844Z,17,GR86-063-113,23.9,0.327,0.995,99.72,1.0,,0.0,0.0,87.14
2025-08-15T03:54:58.887Z,17,GR86-063-113,18.0,0.329,1.054,99.73,1.0,,0.0,0.0,
2025-08-15T03:54:58.930Z,17,GR86-063-113,11.3,0.329,1.059,99.73,1.0,,0.0,0.0,
2025-08-15T03:54:58.974Z,17,GR86-063-113,-1.8,0.32,1.01,99.76,1.0,,0.0,0.0,
2025-08-15T03:54:59.017Z,17,GR86-063-113,-11.5,0.347,1.038,99.73,1.0,7177.0,0.0,0.0,
2025-08-15T03:54:59.060Z,17,GR86-063-113,-18.8,0.341,0.991,99.74,1.0,,0.0,0.0,89.24
2025-08-15T03:54:59.104Z,17,GR86-063-113,-23.5,0.373,0.938,99.76,1.0,,0.0,0.0,
2025-08-15T03:54:59.146Z,17,GR86-063-113,-25.5,0.32,0.944,99.75,1.0,,0.0,0.0,
2025-08-15T03:54:59.189Z,17,GR86-063-113,-25.9,0.336,0.982,99.74,1.0,,0.0,0.0,
2025-08-15T03:54:59.233Z,17,GR86-063-113,-28.200000000000003,0.343,0.94,99.74,1.0,7294.0,0.0,0.0,
2025-08-15T03:54:59.277Z,17,GR86-063-113,-32.4,0.31,0.926,99.74,1.0,,0.0,0.0,90.94
2025-08-15T03:54:59.320Z,17,GR86-063-113,-36.2,0.293,0.897,99.75,1.0,,0.0,0.0,
2025-08-15T03:54:59.364Z,17,GR86-063-113,-38.1,0.313,0.899,99.74,1.0,,0.0,0.0,
2025-08-15T03:54:59.450Z,17,GR86-063-113,-38.6,0.308,0.913,99.75,1.0,7294.0,0.0,0.0,
2025-08-15T03:54:59.494Z,17,GR86-063-113,-34.7,0.453,0.736,99.74,1.0,,0.0,0.0,92.11
2025-08-15T03:54:59.537Z,17,GR86-063-113,-26.0,0.287,0.44,99.77,1.0,,0.0,0.0,
2025-08-15T03:54:59.580Z,17,GR86-063-113,-7.4,0.136,0.415,99.76,1.0,,0.0,0.0,
2025-08-15T03:54:59.625Z,17,GR86-063-113,14.9,0.052,0.761,99.75,1.0,,0.0,0.0,
2025-08-15T03:54:59.668Z,17,GR86-063-113,32.2,-0.035,0.843,99.75,2.0,7139.0,0.0,0.0,
2025-08-15T03:54:59.711Z,17,GR86-063-113,38.3,0.5710000000000001,0.625,99.74,2.0,,0.0,0.0,92.77
2025-08-15T03:54:59.754Z,17,GR86-063-113,36.8,0.617,0.678,99.74,2.0,,0.0,0.0,
2025-08-15T03:54:59.797Z,17,GR86-063-113,34.5,0.641,0.547,99.74,2.0,,0.0,0.0,
2025-08-15T03:54:59.840Z,17,GR86-063-113,30.8,0.549,0.664,99.74,2.0,,0.0,0.0,
2025-08-15T03:54:59.884Z,17,GR86-063-113,23.3,0.394,0.378,99.73,2.0,5893.0,0.0,0.0,
2025-08-15T03:54:59.927Z,17,GR86-063-113,15.3,0.056,0.408,99.74,2.0,,0.0,0.0,94.5
2025-08-15T03:54:59.970Z,17,GR86-063-113,9.4,0.232,0.461,99.75,2.0,,0.0,0.0,
2025-08-15T03:55:00.014Z,17,GR86-063-113,8.9,0.521,0.506,99.74,2.0,,0.0,0.0,
2025-08-15T03:55:00.057Z,17,GR86-063-113,14.5,0.522,0.408,99.75,2.0,,0.0,0.0,
2025-08-15T03:55:00.100Z,17,GR86-063-113,21.6,0.268,0.431,99.77,2.0,5814.0,0.0,0.0,
2025-08-15T03:55:00.144Z,17,GR86-063-113,28.4,0.088,0.184,99.75,2.0,,0.0,0.0,97.06
2025-08-15T03:55:00.186Z,17,GR86-063-113,31.200000000000003,-0.035,0.329,99.75,2.0,,0.0,0.0,
2025-08-15T03:55:00.229Z,17,GR86-063-113,30.3,-0.078,0.191,99.73,2.0,,0.0,0.0,
2025-08-15T03:55:00.274Z,17,GR86-063-113,24.4,0.126,0.475,99.75,2.0,,0.0,0.0,
2025-08-15T03:55:00.317Z,17,GR86-063-113,19.3,0.114,0.289,99.75,2.0,5851.0,0.0,0.0,
2025-08-15T03:55:00.360Z,17,GR86-063-113,15.0,-0.178,0.429,99.75,2.0,,0.0,0.0,99.24
2025-08-15T03:55:00.404Z,17,GR86-063-113,12.4,-0.038,0.336,99.74,2.0,,0.0,0.0,
2025-08-15T03:55:00.447Z,17,GR86-063-113,11.6,0.075,0.354,99.77,2.0,,0.0,0.0,
2025-08-15T03:55:00.490Z,17,GR86-063-113,12.4,0.231,0.385,99.75,2.0,,0.0,0.0,
2025-08-15T03:55:00.534Z,17,GR86-063-113,11.1,-0.166,0.401,99.75,2.0,6006.0,0.0,0.0,
2025-08-15T03:55:00.620Z,17,GR86-063-113,10.2,0.052,0.311,99.75,2.0,,0.0,0.0,100.58
2025-08-15T03:55:00.665Z,17,GR86-063-113,14.3,0.028,0.257,99.74,2.0,,0.0,0.0,
2025-08-15T03:55:00.707Z,17,GR86-063-113,17.5,-0.005,0.28,99.73,2.0,,0.0,0.0,
2025-08-15T03:55:00.750Z,17,GR86-063-113,19.1,0.106,0.197,99.74,2.0,6194.0,0.0,0.0,
2025-08-15T03:55:00.794Z,17,GR86-063-113,19.5,0.137,0.179,99.76,2.0,,0.0,0.0,102.45
2025-08-15T03:55:00.837Z,17,GR86-063-113,18.6,-0.106,0.132,99.75,2.0,,0.0,0.0,
2025-08-15T03:55:00.880Z,17,GR86-063-113,16.1,-0.204,0.175,99.77,2.0,,0.0,0.0,
2025-08-15T03:55:00.926Z,17,GR86-063-113,13.7,-0.242,0.138,99.76,2.0,,0.0,0.0,
2025-08-15T03:55:00.968Z,17,GR86-063-113,11.0,-0.049,0.282,99.77,2.0,6166.0,0.0,0.0,
2025-08-15T03:55:01.011Z,17,GR86-063-113,8.0,0.006,0.194,99.76,2.0,,0.0,0.0,104.43
2025-08-15T03:55:01.054Z,17,GR86-063-113,6.2,0.4,0.302,99.75,2.0,,0.0,0.0,
2025-08-15T03:55:01.097Z,17,GR86-063-113,6.0,0.321,0.222,99.73,2.0,,0.0,0.0,
2025-08-15T03:55:01.140Z,17,GR86-063-113,6.0,0.326,0.099,99.76,2.0,,0.0,0.0,
2025-08-15T03:55:01.184Z,17,GR86-063-113,5.7,0.239,0.135,99.75,2.0,6312.0,0.0,0.0,
2025-08-15T03:55:01.226Z,17,GR86-063-113,5.0,0.284,0.019,99.74,2.0,,0.0,0.0,107.99
2025-08-15T03:55:01.269Z,17,GR86-063-113,4.4,0.24,0.017,99.75,2.0,,0.0,0.0,
2025-08-15T03:55:01.314Z,17,GR86-063-113,4.2,0.304,0.019,99.76,2.0,,0.0,0.0,
2025-08-15T03:55:01.357Z,17,GR86-063-113,4.1000000000000005,0.319,-0.023,99.73,2.0,,0.0,0.0,
2025-08-15T03:55:01.400Z,17,GR86-063-113,4.4,0.325,-0.009,99.75,2.0,6341.0,0.0,0.0,
2025-08-15T03:55:01.444Z,17,GR86-063-113,4.5,0.261,-0.023,99.74,2.0,,0.0,0.0,109.49
2025-08-15T03:55:01.486Z,17,GR86-063-113,4.7,0.308,-0.06,99.74,2.0,,0.0,0.0,
2025-08-15T03:55:01.529Z,17,GR86-063-113,4.800000000000001,0.27,-0.105,99.74,2.0,,0.0,0.0,
2025-08-15T03:55:01.574Z,17,GR86-063-113,4.6000000000000005,0.146,-0.126,99.77,2.0,,0.0,0.0,
2025-08-15T03:55:01.617Z,17,GR86-063-113,4.5,0.221,-0.116,99.74,2.0,6483.0,0.0,0.0,
2025-08-15T03:55:01.660Z,17,GR86-063-113,4.5,0.22,-0.116,99.75,2.0,,0.0,0.0,111.2
2025-08-15T03:55:01.704Z,17,GR86-063-113,4.6000000000000005,0.328,-0.031,99.75,2.0,,0.0,0.0,
2025-08-15T03:55:01.746Z,17,GR86-063-113,4.6000000000000005,0.233,-0.127,99.74,2.0,,0.0,0.0,
2025-08-15T03:55:01.789Z,17,GR86-063-113,4.6000000000000005,0.258,-0.068,99.76,2.0,,0.0,0.0,
2025-08-15T03:55:01.834Z,17,GR86-063-113,4.6000000000000005,0.283,-0.058,99.76,2.0,6547.0,0.0,0.0,
2025-08-15T03:55:01.877Z,17,GR86-063-113,4.6000000000000005,0.287,-0.032,99.75,2.0,,0.0,0.0,112.69
2025-08-15T03:55:01.920Z,17,GR86-063-113,4.5,0.294,-0.079,99.75,2.0,,0.0,0.0,
2025-08-15T03:55:01.964Z,17,GR86-063-113,4.4,0.239,-0.056,99.77,2.0,,0.0,0.0,
2025-08-15T03:55:02.007Z,17,GR86-063-113,4.2,0.256,-0.044,99.78,2.0,,0.0,0.0,
2025-08-15T03:55:02.094Z,17,GR86-063-113,4.1000000000000005,0.289,-0.019,99.75,2.0,6627.0,0.0,0.0,114.41
2025-08-15T03:55:02.137Z,17,GR86-063-113,4.1000000000000005,0.283,-0.035,99.76,2.0,,0.0,0.0,
2025-08-15T03:55:02.180Z,17,GR86-063-113,4.1000000000000005,0.264,-0.047,99.75,2.0,,0.0,0.0,
2025-08-15T03:55:02.226Z,17,GR86-063-113,4.0,0.241,-0.046,99.78,2.0,,0.0,0.0,
2025-08-15T03:55:02.268Z,17,GR86-063-113,4.0,0.251,-0.032,99.77,2.0,6697.0,0.0,0.0,
2025-08-15T03:55:02.311Z,17,GR86-063-113,3.9,0.289,-0.04,99.76,2.0,,0.0,0.0,115.95
2025-08-15T03:55:02.354Z,17,GR86-063-113,3.5,0.287,-0.059,99.76,2.0,,0.0,0.0,
2025-08-15T03:55:02.397Z,17,GR86-063-113,3.4000000000000004,0.263,-0.026,99.75,2.0,,0.0,0.0,
2025-08-15T03:55:02.440Z,17,GR86-063-113,3.2,0.248,-0.037,99.75,2.0,,0.0,0.0,
2025-08-15T03:55:02.484Z,17,GR86-063-113,3.1,0.264,-0.06,99.76,2.0,6799.0,0.0,0.0,
2025-08-15T03:55:02.527Z,17,GR86-063-113,2.9000000000000004,0.269,-0.055,99.76,2.0,,0.0,0.0,117.47
2025-08-15T03:55:02.570Z,17,GR86-063-113,2.6,0.258,-0.035,99.75,2.0,,0.0,0.0,
2025-08-15T03:55:02.615Z,17,GR86-063-113,2.4000000000000004,0.261,-0.05,99.74,2.0,,0.0,0.0,
2025-08-15T03:55:02.701Z,17,GR86-063-113,1.8,0.265,-0.073,99.74,2.0,6882.0,0.0,0.0,
2025-08-15T03:55:02.787Z,17,GR86-063-113,1.3,0.264,-0.08,99.77,2.0,,0.0,0.0,119.0
2025-08-15T03:55:02.830Z,17,GR86-063-113,0.3,0.265,-0.088,99.76,2.0,,0.0,0.0,
2025-08-15T03:55:02.874Z,17,GR86-063-113,-0.3,0.264,-0.105,99.74,2.0,,0.0,0.0,
2025-08-15T03:55:02.917Z,17,GR86-063-113,-0.5,0.245,-0.119,99.76,2.0,6971.0,0.0,0.0,
2025-08-15T03:55:02.960Z,17,GR86-063-113,-0.6000000000000001,0.263,-0.146,99.75,2.0,,0.0,0.0,120.38
2025-08-15T03:55:03.004Z,17,GR86-063-113,-0.6000000000000001,0.266,-0.132,99.75,2.0,,0.0,0.0,
2025-08-15T03:55:03.046Z,17,GR86-063-113,-0.6000000000000001,0.26,-0.136,99.77,2.0,,0.0,0.0,
2025-08-15T03:55:03.089Z,17,GR86-063-113,-0.7000000000000001,0.262,-0.163,99.78,2.0,,0.0,0.0,
2025-08-15T03:55:03.134Z,17,GR86-063-113,-0.8,0.255,-0.179,99.74,2.0,7034.0,0.0,0.0,
2025-08-15T03:55:03.177Z,17,GR86-063-113,-0.7000000000000001,0.253,-0.174,99.77,2.0,,0.0,0.0,121.61
2025-08-15T03:55:03.220Z,17,GR86-063-113,-0.7000000000000001,0.255,-0.167,99.74,2.0,,0.0,0.0,
2025-08-15T03:55:03.264Z,17,GR86-063-113,-0.6000000000000001,0.252,-0.177,99.77,2.0,,0.0,0.0,
2025-08-15T03:55:03.307Z,17,GR86-063-113,-0.5,0.252,-0.164,99.78,2.0,,0.0,0.0,
2025-08-15T03:55:03.350Z,17,GR86-063-113,-0.4,0.257,-0.177,99.76,2.0,7114.0,0.0,0.0,
2025-08-15T03:55:03.394Z,17,GR86-063-113,-0.3,0.26,-0.15,99.78,2.0,,0.0,0.0,122.82
2025-08-15T03:55:03.437Z,17,GR86-063-113,-0.2,0.243,-0.184,99.76,2.0,,0.0,0.0,
2025-08-15T03:55:03.480Z,17,GR86-063-113,-0.2,0.246,-0.162,99.76,2.0,,0.0,0.0,
2025-08-15T03:55:03.526Z,17,GR86-063-113,-0.2,0.256,-0.156,99.74,2.0,,0.0,0.0,
2025-08-15T03:55:03.568Z,17,GR86-063-113,-0.2,0.246,-0.172,99.75,2.0,7172.0,0.0,0.0,
2025-08-15T03:55:03.611Z,17,GR86-063-113,0.0,0.243,-0.147,99.78,2.0,,0.0,0.0,124.03
2025-08-15T03:55:03.654Z,17,GR86-063-113,0.4,0.246,-0.152,99.74,2.0,,0.0,0.0,
2025-08-15T03:55:03.697Z,17,GR86-063-113,0.9,0.253,-0.115,99.76,2.0,,0.0,0.0,
2025-08-15T03:55:03.740Z,17,GR86-063-113,1.3,0.25,-0.124,99.74,2.0,,0.0,0.0,
2025-08-15T03:55:03.784Z,17,GR86-063-113,1.6,0.231,-0.112,99.76,2.0,7237.0,0.0,0.0,
2025-08-15T03:55:03.827Z,17,GR86-063-113,1.7000000000000002,0.232,-0.098,99.78,2.0,,0.0,0.0,126.34
2025-08-15T03:55:03.870Z,17,GR86-063-113,1.8,0.182,-0.089,99.75,2.0,,0.0,0.0,
2025-08-15T03:55:03.914Z,17,GR86-063-113,2.2,-0.112,-0.031,99.75,3.0,,0.0,0.0,
2025-08-15T03:55:03.957Z,17,GR86-063-113,2.6,0.489,-0.054,99.75,3.0,,0.0,0.0,
2025-08-15T03:55:04.044Z,17,GR86-063-113,7.1000000000000005,0.415,0.02,99.73,3.0,7293.0,0.0,0.0,127.2
2025-08-15T03:55:04.086Z,17,GR86-063-113,7.300000000000001,0.139,0.028,99.74,3.0,,0.0,0.0,
2025-08-15T03:55:04.129Z,17,GR86-063-113,7.2,0.026,0.012,99.74,3.0,,0.0,0.0,
2025-08-15T03:55:04.174Z,17,GR86-063-113,7.1000000000000005,0.238,0.099,99.74,3.0,,0.0,0.0,
2025-08-15T03:55:04.217Z,17,GR86-063-113,7.1000000000000005,0.281,0.063,99.74,3.0,6112.0,0.0,0.0,
2025-08-15T03:55:04.260Z,17,GR86-063-113,7.1000000000000005,0.238,0.081,99.74,3.0,,0.0,0.0,128.39
2025-08-15T03:55:04.304Z,17,GR86-063-113,6.800000000000001,0.166,0.093,99.74,3.0,,0.0,0.0,
2025-08-15T03:55:04.346Z,17,GR86-063-113,6.6000000000000005,0.162,0.084,99.75,3.0,,0.0,0.0,
2025-08-15T03:55:04.389Z,17,GR86-063-113,6.5,0.238,0.104,99.76,3.0,,0.0,0.0,
2025-08-15T03:55:04.434Z,17,GR86-063-113,6.300000000000001,0.237,0.07,99.75,3.0,6080.0,0.0,0.0,
2025-08-15T03:55:04.520Z,17,GR86-063-113,6.2,0.202,0.056,99.76,3.0,,0.0,0.0,129.19
2025-08-15T03:55:04.565Z,17,GR86-063-113,6.2,0.18,0.052,99.75,3.0,,0.0,0.0,
2025-08-15T03:55:04.607Z,17,GR86-063-113,6.2,0.224,0.042,99.75,3.0,,0.0,0.0,
2025-08-15T03:55:04.651Z,17,GR86-063-113,6.1000000000000005,0.234,0.031,99.75,3.0,6098.0,0.0,0.0,
2025-08-15T03:55:04.694Z,17,GR86-063-113,6.2,0.245,0.03,99.76,3.0,,0.0,0.0,130.06
2025-08-15T03:55:04.737Z,17,GR86-063-113,6.2,0.177,0.035,99.75,3.0,,0.0,0.0,
2025-08-15T03:55:04.780Z,17,GR86-063-113,6.300000000000001,0.183,0.041,99.74,3.0,,0.0,0.0,
2025-08-15T03:55:04.826Z,17,GR86-063-113,6.300000000000001,0.235,0.042,99.74,3.0,,0.0,0.0,
2025-08-15T03:55:04.868Z,17,GR86-063-113,6.300000000000001,0.24,0.043,99.75,3.0,6145.0,0.0,0.0,
2025-08-15T03:55:04.911Z,17,GR86-063-113,6.300000000000001,0.171,0.052,84.39,3.0,,4.565,4.745,130.92000000000002
2025-08-15T03:55:04.954Z,17,GR86-063-113,6.4,0.11,0.051,15.45,3.0,,11.645,11.78,
2025-08-15T03:55:04.997Z,17,GR86-063-113,6.5,-0.002,0.055,5.1000000000000005,3.0,,16.77,16.68,
2025-08-15T03:55:05.040Z,17,GR86-063-113,6.5,-0.156,0.05,5.03,3.0,,21.685,21.56,
2025-08-15T03:55:05.126Z,17,GR86-063-113,6.800000000000001,-0.554,0.078,23.44,2.0,6159.0,31.895,31.575,131.8
2025-08-15T03:55:05.169Z,17,GR86-063-113,7.4,-0.553,0.068,53.44,2.0,,35.02,34.93,
2025-08-15T03:55:05.214Z,17,GR86-063-113,8.3,-0.7020000000000001,0.124,5.66,2.0,,37.675,38.775,
2025-08-15T03:55:05.257Z,17,GR86-063-113,8.3,-0.751,0.044,5.16,2.0,,38.5,39.43,
2025-08-15T03:55:05.300Z,17,GR86-063-113,8.3,-0.943,0.029,4.69,2.0,5782.0,37.325,38.105,
2025-08-15T03:55:05.344Z,17,GR86-063-113,8.3,-0.641,0.216,4.28,2.0,,37.675,38.775,129.85
2025-08-15T03:55:05.386Z,17,GR86-063-113,8.5,-0.767,0.0,3.99,2.0,,38.38,39.125,
2025-08-15T03:55:05.429Z,17,GR86-063-113,9.0,-0.872,0.107,3.74,2.0,,36.87,37.355,
2025-08-15T03:55:05.474Z,17,GR86-063-113,11.8,-0.728,0.216,3.38,2.0,,38.44,39.31,
2025-08-15T03:55:05.517Z,17,GR86-063-113,15.6,-0.6980000000000001,0.198,3.13,2.0,5882.0,37.74,38.18,
2025-08-15T03:55:05.560Z,17,GR86-063-113,19.4,-1.001,0.386,2.78,2.0,,36.425,36.96,123.94
2025-08-15T03:55:05.604Z,17,GR86-063-113,22.0,-0.856,0.404,2.59,2.0,,37.145,38.015,
2025-08-15T03:55:05.646Z,17,GR86-063-113,24.700000000000003,-0.741,0.45,2.48,2.0,,36.18,36.7,
2025-08-15T03:55:05.689Z,17,GR86-063-113,28.700000000000003,-0.8150000000000001,0.5630000000000001,2.43,2.0,,35.405,35.645,
2025-08-15T03:55:05.734Z,17,GR86-063-113,35.5,-0.724,0.584,2.41,2.0,6315.0,35.175000000000004,35.265,
2025-08-15T03:55:05.777Z,17,GR86-063-113,37.1,-0.72,0.739,2.4,2.0,,34.565,34.685,118.71
2025-08-15T03:55:05.820Z,17,GR86-063-113,36.3,-0.648,0.718,2.39,2.0,,29.985,30.64,
2025-08-15T03:55:05.864Z,17,GR86-063-113,32.7,-0.658,0.722,2.4,2.0,,21.21,22.37,
2025-08-15T03:55:05.907Z,17,GR86-063-113,28.3,-0.413,0.796,2.4,2.0,,13.705,14.575,
2025-08-15T03:55:05.950Z,17,GR86-063-113,27.3,-0.456,0.774,2.4,2.0,6202.0,7.235,7.92,
2025-08-15T03:55:05.994Z,17,GR86-063-113,29.3,-0.291,0.8270000000000001,2.41,2.0,,0.0,0.0,114.37
2025-08-15T03:55:06.037Z,17,GR86-063-113,33.1,-0.174,0.876,2.4,2.0,,0.0,0.0,
2025-08-15T03:55:06.080Z,17,GR86-063-113,39.6,-0.192,0.895,2.41,2.0,,0.0,0.0,
2025-08-15T03:55:06.126Z,17,GR86-063-113,47.3,-0.142,0.939,2.42,2.0,,0.0,0.0,
2025-08-15T03:55:06.168Z,17,GR86-063-113,55.5,-0.158,0.971,2.43,2.0,5928.0,0.0,0.0,
2025-08-15T03:55:06.211Z,17,GR86-063-113,64.8,-0.184,1.029,2.42,2.0,,0.0,0.0,110.06
2025-08-15T03:55:06.254Z,17,GR86-063-113,69.5,-0.198,1.043,2.43,2.0,,3.495,3.645,
2025-08-15T03:55:06.297Z,17,GR86-063-113,68.8,-0.218,1.053,2.44,2.0,,5.11,5.19,
2025-08-15T03:55:06.340Z,17,GR86-063-113,62.400000000000006,-0.264,1.052,2.43,2.0,,7.585,7.615,
2025-08-15T03:55:06.384Z,17,GR86-063-113,50.0,-0.275,1.047,2.44,2.0,5932.0,9.25,9.215,
2025-08-15T03:55:06.427Z,17,GR86-063-113,37.4,-0.304,0.961,2.43,2.0,,10.47,10.53,106.0
2025-08-15T03:55:06.470Z,17,GR86-063-113,29.3,-0.318,0.934,2.43,2.0,,10.805,10.985,
2025-08-15T03:55:06.515Z,17,GR86-063-113,27.0,-0.33,0.938,2.43,2.0,,10.27,10.59,
2025-08-15T03:55:06.558Z,17,GR86-063-113,26.9,-0.307,0.929,2.43,2.0,,6.655,6.93,
2025-08-15T03:55:06.601Z,17,GR86-063-113,26.700000000000003,-0.252,1.069,2.43,2.0,5797.0,0.0,0.0,
2025-08-15T03:55:06.644Z,17,GR86-063-113,26.9,-0.166,1.034,2.45,2.0,,0.0,0.0,103.94
2025-08-15T03:55:06.687Z,17,GR86-063-113,34.5,-0.178,1.084,2.44,2.0,,0.0,0.0,
2025-08-15T03:55:06.730Z,17,GR86-063-113,46.7,-0.171,1.144,2.44,2.0,,0.0,0.0,
2025-08-15T03:55:06.774Z,17,GR86-063-113,64.10000000000001,-0.168,1.173,2.45,2.0,,0.0,0.0,
2025-08-15T03:55:06.817Z,17,GR86-063-113,71.3,-0.173,1.251,2.44,2.0,5575.0,0.0,0.0,
2025-08-15T03:55:06.860Z,17,GR86-063-113,73.9,-0.172,1.209,2.44,2.0,,0.0,0.0,102.05
2025-08-15T03:55:06.904Z,17,GR86-063-113,74.5,-0.198,1.225,2.46,2.0,,0.0,0.0,
2025-08-15T03:55:06.946Z,17,GR86-063-113,74.7,-0.174,1.213,2.46,2.0,,0.0,0.0,
2025-08-15T03:55:06.989Z,17,GR86-063-113,75.8,-0.199,1.224,2.46,2.0,,0.0,0.0,
2025-08-15T03:55:07.033Z,17,GR86-063-113,76.9,-0.196,1.274,2.5,2.0,5468.0,0.0,0.0,
2025-08-15T03:55:07.076Z,17,GR86-063-113,76.7,-0.174,1.195,2.5500000000000003,2.0,,0.0,0.0,99.93
2025-08-15T03:55:07.119Z,17,GR86-063-113,69.10000000000001,-0.189,1.285,2.85,2.0,,0.0,0.0,
2025-08-15T03:55:07.164Z,17,GR86-063-113,57.8,-0.166,1.19,3.29,2.0,,0.0,0.0,
2025-08-15T03:55:07.207Z,17,GR86-063-113,47.6,-0.179,1.225,3.74,2.0,,0.0,0.0,
2025-08-15T03:55:07.250Z,17,GR86-063-113,44.2,-0.143,1.177,4.75,2.0,5372.0,0.0,0.0,
2025-08-15T03:55:07.294Z,17,GR86-063-113,43.7,-0.155,1.181,5.37,2.0,,0.0,0.0,98.42
2025-08-15T03:55:07.337Z,17,GR86-063-113,43.6,-0.145,1.264,7.04,2.0,,0.0,0.0,
2025-08-15T03:55:07.380Z,17,GR86-063-113,43.8,-0.155,1.259,13.93,2.0,,0.0,0.0,
2025-08-15T03:55:07.425Z,17,GR86-063-113,45.400000000000006,-0.138,1.289,15.01,2.0,,0.0,0.0,
2025-08-15T03:55:07.468Z,17,GR86-063-113,48.900000000000006,-0.126,1.238,16.34,2.0,5298.0,0.0,0.0,
2025-08-15T03:55:07.511Z,17,GR86-063-113,54.3,-0.119,1.297,18.93,2.0,,0.0,0.0,97.14
2025-08-15T03:55:07.554Z,17,GR86-063-113,61.400000000000006,-0.094,1.288,21.71,2.0,,0.0,0.0,
2025-08-15T03:55:07.597Z,17,GR86-063-113,66.10000000000001,-0.118,1.311,21.8,2.0,,0.0,0.0,
2025-08-15T03:55:07.640Z,17,GR86-063-113,70.3,-0.092,1.27,28.21,2.0,,0.0,0.0,
2025-08-15T03:55:07.684Z,17,GR86-063-113,71.5,-0.064,1.309,36.72,2.0,5343.0,0.0,0.0,
2025-08-15T03:55:07.727Z,17,GR86-063-113,72.5,0.155,1.22,44.4,2.0,,0.0,0.0,95.7
2025-08-15T03:55:07.770Z,17,GR86-063-113,73.2,0.171,1.189,53.870000000000005,2.0,,0.0,0.0,
2025-08-15T03:55:07.814Z,17,GR86-063-113,76.3,0.221,1.196,64.69,2.0,,0.0,0.0,
2025-08-15T03:55:07.857Z,17,GR86-063-113,79.4,0.22,1.241,67.5,2.0,,0.0,0.0,
2025-08-15T03:55:07.900Z,17,GR86-063-113,81.30000000000001,0.2,1.232,67.53,2.0,5581.0,0.0,0.0,
2025-08-15T03:55:07.944Z,17,GR86-063-113,85.4,0.249,1.179,70.47,2.0,,0.0,0.0,94.5
2025-08-15T03:55:07.986Z,17,GR86-063-113,87.30000000000001,0.224,1.165,75.43,2.0,,0.0,0.0,
2025-08-15T03:55:08.029Z,17,GR86-063-113,88.80000000000001,0.232,1.154,83.4,2.0,,0.0,0.0,
2025-08-15T03:55:08.074Z,17,GR86-063-113,89.10000000000001,0.225,1.191,99.82,2.0,,0.0,0.0,
2025-08-15T03:55:08.117Z,17,GR86-063-113,88.9,0.198,1.255,99.71,2.0,5624.0,0.0,0.0,
2025-08-15T03:55:08.160Z,17,GR86-063-113,86.80000000000001,0.231,1.259,99.72,2.0,,0.0,0.0,94.85
2025-08-15T03:55:08.204Z,17,GR86-063-113,82.80000000000001,0.191,1.284,99.72,2.0,,0.0,0.0,
2025-08-15T03:55:08.247Z,17,GR86-063-113,74.7,0.25,1.244,99.72,2.0,,0.0,0.0,
2025-08-15T03:55:08.290Z,17,GR86-063-113,68.8,0.227,1.227,99.72,2.0,,0.0,0.0,
2025-08-15T03:55:08.334Z,17,GR86-063-113,51.0,0.206,1.189,99.73,2.0,5726.0,0.0,0.0,
2025-08-15T03:55:08.377Z,17,GR86-063-113,38.400000000000006,0.246,1.151,99.72,2.0,,0.0,0.0,96.17
2025-08-15T03:55:08.420Z,17,GR86-063-113,29.3,0.225,1.115,99.72,2.0,,0.0,0.0,
2025-08-15T03:55:08.465Z,17,GR86-063-113,17.8,0.281,1.07,99.71,2.0,,0.0,0.0,
2025-08-15T03:55:08.507Z,17,GR86-063-113,13.6,0.295,1.042,99.73,2.0,,0.0,0.0,
2025-08-15T03:55:08.550Z,17,GR86-063-113,12.7,0.299,0.983,99.73,2.0,5827.0,0.0,0.0,
2025-08-15T03:55:08.594Z,17,GR86-063-113,10.3,0.301,0.968,99.71,2.0,,0.0,0.0,97.93
2025-08-15T03:55:08.637Z,17,GR86-063-113,8.700000000000001,0.282,0.946,99.74,2.0,,0.0,0.0,
2025-08-15T03:55:08.680Z,17,GR86-063-113,9.9,0.298,0.957,99.72,2.0,,0.0,0.0,
2025-08-15T03:55:08.726Z,17,GR86-063-113,22.0,0.315,0.959,99.73,2.0,,0.0,0.0,
2025-08-15T03:55:08.769Z,17,GR86-063-113,39.7,0.293,1.101,99.74,2.0,5943.0,0.0,0.0,
2025-08-15T03:55:08.814Z,17,GR86-063-113,66.4,0.274,1.229,99.73,2.0,,0.0,0.0,100.74
2025-08-15T03:55:08.857Z,17,GR86-063-113,78.5,0.239,1.231,99.73,2.0,,0.0,0.0,
2025-08-15T03:55:08.900Z,17,GR86-063-113,83.30000000000001,0.219,1.303,99.72,2.0,,0.0,0.0,
2025-08-15T03:55:08.944Z,17,GR86-063-113,84.0,0.239,1.263,99.72,2.0,,0.0,0.0,
2025-08-15T03:55:08.986Z,17,GR86-063-113,83.80000000000001,0.245,1.23,99.72,2.0,6005.0,0.0,0.0,
2025-08-15T03:55:09.029Z,17,GR86-063-113,83.2,0.258,1.163,99.74,2.0,,0.0,0.0,102.39
2025-08-15T03:55:09.074Z,17,GR86-063-113,79.0,0.17,1.213,99.74,2.0,,0.0,0.0,
