timestamp,lap,vehicle_id,steering_angle,accx_can,accy_can,ath,gear,nmot,pbrake_f,pbrake_r,speed
2025-08-15T04:30:57.552Z,14,GR86-037-03,1.4,0.13,0.103,99.94,4.0,,0.0,0.0,182.12
2025-08-15T04:30:57.595Z,14,GR86-037-03,1.4,0.148,0.097,99.95,4.0,,0.0,0.0,
2025-08-15T04:30:57.638Z,14,GR86-037-03,1.4,0.141,0.052,99.94,4.0,,0.0,0.0,
2025-08-15T04:30:57.681Z,14,GR86-037-03,1.4,0.154,0.039,99.93,4.0,,0.0,0.0,
2025-08-15T04:30:57.724Z,14,GR86-037-03,1.4,0.114,0.034,99.95,4.0,7164.0,0.0,0.0,
2025-08-15T04:30:57.767Z,14,GR86-037-03,1.4,0.106,0.01,99.91,4.0,,0.0,0.0,183.06
2025-08-15T04:30:57.810Z,14,GR86-037-03,2.5,0.097,0.006,99.94,4.0,,0.0,0.0,
2025-08-15T04:30:57.853Z,14,GR86-037-03,2.9000000000000004,0.096,0.005,99.95,4.0,,0.0,0.0,
2025-08-15T04:30:57.896Z,14,GR86-037-03,2.9000000000000004,0.112,0.008,99.92,4.0,,0.0,0.0,
2025-08-15T04:30:57.939Z,14,GR86-037-03,2.9000000000000004,0.117,-0.012,99.94,4.0,7190.0,0.0,0.0,
2025-08-15T04:30:57.983Z,14,GR86-037-03,2.9000000000000004,0.123,-0.011,99.93,4.0,,0.0,0.0,183.91
2025-08-15T04:30:58.026Z,14,GR86-037-03,2.8000000000000003,-0.144,0.001,99.93,5.0,,0.0,0.0,
2025-08-15T04:30:58.069Z,14,GR86-037-03,2.8000000000000003,0.341,0.052,99.95,5.0,,0.0,0.0,
2025-08-15T04:30:58.113Z,14,GR86-037-03,3.3000000000000003,0.228,-0.057,99.94,5.0,,0.0,0.0,
2025-08-15T04:30:58.156Z,14,GR86-037-03,3.6,0.213,0.028,99.95,5.0,7259.0,0.0,0.0,
2025-08-15T04:30:58.199Z,14,GR86-037-03,3.6,0.121,0.096,99.94,5.0,,0.0,0.0,184.71
2025-08-15T04:30:58.244Z,14,GR86-037-03,3.6,0.068,-0.003,99.95,5.0,,0.0,0.0,
2025-08-15T04:30:58.287Z,14,GR86-037-03,3.6,0.142,0.102,99.93,5.0,,0.0,0.0,
2025-08-15T04:30:58.330Z,14,GR86-037-03,3.6,0.119,0.024,99.95,5.0,,0.0,0.0,
2025-08-15T04:30:58.373Z,14,GR86-037-03,3.6,0.09,0.052,99.94,5.0,6400.0,0.0,0.0,
2025-08-15T04:30:58.416Z,14,GR86-037-03,3.6,0.117,0.03,99.95,5.0,,0.0,0.0,185.42
2025-08-15T04:30:58.459Z,14,GR86-037-03,3.6,0.121,0.034,99.94,5.0,,0.0,0.0,
2025-08-15T04:30:58.504Z,14,GR86-037-03,3.6,0.093,0.076,99.93,5.0,,0.0,0.0,
2025-08-15T04:30:58.547Z,14,GR86-037-03,3.6,0.086,0.071,99.94,5.0,,0.0,0.0,
2025-08-15T04:30:58.590Z,14,GR86-037-03,3.6,0.095,0.037,99.94,5.0,6324.0,0.0,0.0,
2025-08-15T04:30:58.633Z,14,GR86-037-03,2.7,0.086,0.055,99.94,5.0,,0.0,0.0,186.31
2025-08-15T04:30:58.676Z,14,GR86-037-03,1.9,0.088,0.062,99.94,5.0,,0.0,0.0,
2025-08-15T04:30:58.719Z,14,GR86-037-03,1.9,0.092,0.027,99.95,5.0,,0.0,0.0,
2025-08-15T04:30:58.849Z,14,GR86-037-03,1.9,0.104,0.017,99.95,5.0,6369.0,0.0,0.0,187.11
2025-08-15T04:30:58.893Z,14,GR86-037-03,1.9,0.114,-0.026,99.95,5.0,,0.0,0.0,
2025-08-15T04:30:58.935Z,14,GR86-037-03,1.9,0.114,-0.031,99.94,5.0,,0.0,0.0,
2025-08-15T04:30:58.979Z,14,GR86-037-03,1.9,0.097,-0.011,99.94,5.0,,0.0,0.0,
2025-08-15T04:30:59.023Z,14,GR86-037-03,1.9,0.113,-0.051,99.95,5.0,6395.0,0.0,0.0,
2025-08-15T04:30:59.065Z,14,GR86-037-03,2.5,0.13,-0.037,99.96,5.0,,0.0,0.0,187.86
2025-08-15T04:30:59.108Z,14,GR86-037-03,2.5,0.108,-0.021,99.93,5.0,,0.0,0.0,
2025-08-15T04:30:59.151Z,14,GR86-037-03,2.5,0.129,-0.038,99.94,5.0,,0.0,0.0,
2025-08-15T04:30:59.194Z,14,GR86-037-03,2.5,0.119,-0.02,99.95,5.0,,0.0,0.0,
2025-08-15T04:30:59.237Z,14,GR86-037-03,2.5,0.112,0.004,99.95,5.0,6415.0,0.0,0.0,
2025-08-15T04:30:59.280Z,14,GR86-037-03,2.5,0.12,0.012,99.96,5.0,,0.0,0.0,188.55
2025-08-15T04:30:59.324Z,14,GR86-037-03,2.5,0.113,0.033,99.96,5.0,,0.0,0.0,
2025-08-15T04:30:59.366Z,14,GR86-037-03,2.5,0.096,0.048,99.95,5.0,,0.0,0.0,
2025-08-15T04:30:59.409Z,14,GR86-037-03,2.5,0.098,0.04,99.95,5.0,,0.0,0.0,
2025-08-15T04:30:59.452Z,14,GR86-037-03,2.5,0.102,0.02,99.95,5.0,6450.0,0.0,0.0,
2025-08-15T04:30:59.495Z,14,GR86-037-03,2.5,0.124,0.023,99.94,5.0,,0.0,0.0,189.32
2025-08-15T04:30:59.538Z,14,GR86-037-03,2.5,0.107,0.036,99.96,5.0,,0.0,0.0,
2025-08-15T04:30:59.581Z,14,GR86-037-03,2.5,0.105,0.036,99.95,5.0,,0.0,0.0,
2025-08-15T04:30:59.624Z,14,GR86-037-03,2.5,0.086,0.037,99.94,5.0,,0.0,0.0,
2025-08-15T04:30:59.667Z,14,GR86-037-03,2.5,0.096,0.001,99.94,5.0,6465.0,0.0,0.0,
2025-08-15T04:30:59.710Z,14,GR86-037-03,2.5,0.091,0.022,99.95,5.0,,0.0,0.0,190.1
2025-08-15T04:30:59.753Z,14,GR86-037-03,2.5,0.097,0.015,99.94,5.0,,0.0,0.0,
2025-08-15T04:30:59.796Z,14,GR86-037-03,2.6,0.096,0.009,99.94,5.0,,0.0,0.0,
2025-08-15T04:30:59.839Z,14,GR86-037-03,2.5,0.081,0.013,99.94,5.0,,0.0,0.0,
2025-08-15T04:30:59.884Z,14,GR86-037-03,2.5,0.091,0.013,99.94,5.0,6497.0,0.0,0.0,
2025-08-15T04:30:59.927Z,14,GR86-037-03,2.5,0.092,0.011,99.94,5.0,,0.0,0.0,190.82
2025-08-15T04:30:59.970Z,14,GR86-037-03,2.4000000000000004,0.097,0.017,99.94,5.0,,0.0,0.0,
2025-08-15T04:31:00.013Z,14,GR86-037-03,2.0,0.075,-0.019,99.94,5.0,,0.0,0.0,
2025-08-15T04:31:00.056Z,14,GR86-037-03,1.9,0.1,0.022,99.94,5.0,,0.0,0.0,
2025-08-15T04:31:00.099Z,14,GR86-037-03,1.9,0.082,0.01,99.96,5.0,6519.0,0.0,0.0,
2025-08-15T04:31:00.144Z,14,GR86-037-03,1.9,0.102,0.009,99.95,5.0,,0.0,0.0,192.28
2025-08-15T04:31:00.187Z,14,GR86-037-03,1.9,0.086,0.014,99.95,5.0,,0.0,0.0,
2025-08-15T04:31:00.230Z,14,GR86-037-03,1.9,0.094,-0.007,99.94,5.0,,0.0,0.0,
2025-08-15T04:31:00.273Z,14,GR86-037-03,1.9,0.097,0.008,99.93,5.0,,0.0,0.0,
2025-08-15T04:31:00.316Z,14,GR86-037-03,1.9,0.088,0.01,99.94,5.0,6539.0,0.0,0.0,
2025-08-15T04:31:00.359Z,14,GR86-037-03,1.9,0.083,-0.008,99.95,5.0,,0.0,0.0,193.03
2025-08-15T04:31:00.403Z,14,GR86-037-03,2.9000000000000004,0.104,0.003,99.95,5.0,,0.0,0.0,
2025-08-15T04:31:00.446Z,14,GR86-037-03,3.9,0.098,0.0,99.95,5.0,,0.0,0.0,
2025-08-15T04:31:00.489Z,14,GR86-037-03,4.7,0.094,0.052,99.95,5.0,,0.0,0.0,
2025-08-15T04:31:00.532Z,14,GR86-037-03,4.800000000000001,0.079,0.048,99.94,5.0,6563.0,0.0,0.0,
2025-08-15T04:31:00.575Z,14,GR86-037-03,4.9,0.103,0.061,99.93,5.0,,0.0,0.0,193.79
2025-08-15T04:31:00.618Z,14,GR86-037-03,4.9,0.096,0.057,99.95,5.0,,0.0,0.0,
2025-08-15T04:31:00.663Z,14,GR86-037-03,3.6,0.085,0.114,99.94,5.0,,0.0,0.0,
2025-08-15T04:31:00.706Z,14,GR86-037-03,3.6,0.106,0.099,99.95,5.0,,0.0,0.0,
2025-08-15T04:31:00.749Z,14,GR86-037-03,3.6,0.086,0.079,99.94,5.0,6616.0,0.0,0.0,
2025-08-15T04:31:00.793Z,14,GR86-037-03,4.3,0.08,0.098,99.95,5.0,,0.0,0.0,194.44
2025-08-15T04:31:00.835Z,14,GR86-037-03,5.1000000000000005,0.077,0.088,99.96,5.0,,0.0,0.0,
2025-08-15T04:31:00.878Z,14,GR86-037-03,5.1000000000000005,0.081,0.132,99.95,5.0,,0.0,0.0,
2025-08-15T04:31:00.921Z,14,GR86-037-03,5.1000000000000005,0.078,0.104,99.96,5.0,,0.0,0.0,
2025-08-15T04:31:00.964Z,14,GR86-037-03,5.0,0.088,0.156,99.96,5.0,6637.0,0.0,0.0,
2025-08-15T04:31:01.007Z,14,GR86-037-03,4.1000000000000005,0.087,0.108,99.95,5.0,,0.0,0.0,195.13
2025-08-15T04:31:01.050Z,14,GR86-037-03,3.9,0.093,0.135,99.94,5.0,,0.0,0.0,
2025-08-15T04:31:01.093Z,14,GR86-037-03,3.8,0.087,0.092,99.95,5.0,,0.0,0.0,
2025-08-15T04:31:01.136Z,14,GR86-037-03,3.8,0.093,0.135,99.95,5.0,,0.0,0.0,
2025-08-15T04:31:01.179Z,14,GR86-037-03,3.8,0.072,0.124,99.95,5.0,6662.0,0.0,0.0,
2025-08-15T04:31:01.223Z,14,GR86-037-03,3.8,0.097,0.126,99.94,5.0,,0.0,0.0,195.7
2025-08-15T04:31:01.265Z,14,GR86-037-03,3.8,0.075,0.091,99.96,5.0,,0.0,0.0,
2025-08-15T04:31:01.308Z,14,GR86-037-03,3.8,0.082,0.114,99.95,5.0,,0.0,0.0,
2025-08-15T04:31:01.351Z,14,GR86-037-03,3.8,0.075,0.086,99.95,5.0,,0.0,0.0,
2025-08-15T04:31:01.394Z,14,GR86-037-03,3.8,0.084,0.103,99.94,5.0,6688.0,0.0,0.0,
2025-08-15T04:31:01.437Z,14,GR86-037-03,3.7,0.068,0.078,99.95,5.0,,0.0,0.0,196.32
2025-08-15T04:31:01.480Z,14,GR86-037-03,3.8,0.07,0.087,99.94,5.0,,0.0,0.0,
2025-08-15T04:31:01.524Z,14,GR86-037-03,3.8,0.092,0.079,99.94,5.0,,0.0,0.0,
2025-08-15T04:31:01.567Z,14,GR86-037-03,3.8,0.079,0.105,99.95,5.0,,0.0,0.0,
2025-08-15T04:31:01.610Z,14,GR86-037-03,3.7,0.072,0.078,99.94,5.0,6699.0,0.0,0.0,
2025-08-15T04:31:01.654Z,14,GR86-037-03,3.8,0.075,0.104,99.96,5.0,,0.0,0.0,197.08
2025-08-15T04:31:01.697Z,14,GR86-037-03,3.4000000000000004,0.057,0.051,99.94,5.0,,0.0,0.0,
2025-08-15T04:31:01.740Z,14,GR86-037-03,2.4000000000000004,0.061,0.102,99.95,5.0,,0.0,0.0,
2025-08-15T04:31:01.784Z,14,GR86-037-03,1.7000000000000002,0.069,0.079,99.94,5.0,,0.0,0.0,
2025-08-15T04:31:01.826Z,14,GR86-037-03,1.7000000000000002,0.076,0.092,99.94,5.0,6721.0,0.0,0.0,
2025-08-15T04:31:01.869Z,14,GR86-037-03,1.7000000000000002,0.062,0.07,99.94,5.0,,0.0,0.0,197.67
2025-08-15T04:31:01.913Z,14,GR86-037-03,1.7000000000000002,0.05,0.073,99.94,5.0,,0.0,0.0,
2025-08-15T04:31:01.956Z,14,GR86-037-03,1.7000000000000002,0.063,0.042,99.94,5.0,,0.0,0.0,
2025-08-15T04:31:01.999Z,14,GR86-037-03,1.7000000000000002,0.058,0.036,99.95,5.0,,0.0,0.0,
2025-08-15T04:31:02.044Z,14,GR86-037-03,1.7000000000000002,0.062,0.025,99.94,5.0,6749.0,0.0,0.0,
2025-08-15T04:31:02.087Z,14,GR86-037-03,1.7000000000000002,0.056,-0.012,99.95,5.0,,0.0,0.0,198.29
2025-08-15T04:31:02.130Z,14,GR86-037-03,1.7000000000000002,0.069,0.029,99.95,5.0,,0.0,0.0,
2025-08-15T04:31:02.173Z,14,GR86-037-03,1.7000000000000002,0.038,0.013,99.94,5.0,,0.0,0.0,
2025-08-15T04:31:02.216Z,14,GR86-037-03,1.7000000000000002,0.08,0.034,99.94,5.0,,0.0,0.0,
2025-08-15T04:31:02.259Z,14,GR86-037-03,1.7000000000000002,0.049,-0.019,99.95,5.0,6759.0,0.0,0.0,
2025-08-15T04:31:02.302Z,14,GR86-037-03,1.7000000000000002,0.049,0.01,99.95,5.0,,0.0,0.0,198.97
2025-08-15T04:31:02.345Z,14,GR86-037-03,1.7000000000000002,0.068,0.05,99.95,5.0,,0.0,0.0,
2025-08-15T04:31:02.388Z,14,GR86-037-03,1.7000000000000002,0.052,0.003,99.94,5.0,,0.0,0.0,
2025-08-15T04:31:02.431Z,14,GR86-037-03,1.7000000000000002,0.057,0.022,99.95,5.0,,0.0,0.0,
2025-08-15T04:31:02.474Z,14,GR86-037-03,1.7000000000000002,0.054,-0.013,99.94,5.0,6784.0,0.0,0.0,
2025-08-15T04:31:02.517Z,14,GR86-037-03,1.7000000000000002,0.057,0.027,99.93,5.0,,0.0,0.0,199.53
2025-08-15T04:31:02.560Z,14,GR86-037-03,1.0,0.065,-0.005,99.94,5.0,,0.0,0.0,
2025-08-15T04:31:02.604Z,14,GR86-037-03,0.2,0.05,0.0,99.94,5.0,,0.0,0.0,
2025-08-15T04:31:02.647Z,14,GR86-037-03,0.1,0.057,0.036,99.94,5.0,,0.0,0.0,
2025-08-15T04:31:02.690Z,14,GR86-037-03,0.1,0.061,-0.003,99.94,5.0,6816.0,0.0,0.0,
2025-08-15T04:31:02.734Z,14,GR86-037-03,0.1,0.081,0.002,99.94,5.0,,0.0,0.0,200.13
2025-08-15T04:31:02.777Z,14,GR86-037-03,-0.1,0.04,-0.043,99.94,5.0,,0.0,0.0,
2025-08-15T04:31:02.820Z,14,GR86-037-03,-0.1,0.056,-0.007,99.94,5.0,,0.0,0.0,
2025-08-15T04:31:02.864Z,14,GR86-037-03,-0.1,0.063,-0.037,99.94,5.0,,0.0,0.0,
2025-08-15T04:31:02.906Z,14,GR86-037-03,-0.1,0.061,-0.054,99.94,5.0,6820.0,0.0,0.0,
2025-08-15T04:31:02.949Z,14,GR86-037-03,-0.1,0.044,-0.042,99.95,5.0,,0.0,0.0,201.16
2025-08-15T04:31:02.992Z,14,GR86-037-03,-0.6000000000000001,0.04,-0.048,99.94,5.0,,0.0,0.0,
2025-08-15T04:31:03.035Z,14,GR86-037-03,-1.6,0.041,-0.033,99.95,5.0,,0.0,0.0,
2025-08-15T04:31:03.078Z,14,GR86-037-03,-1.8,0.035,-0.05,99.95,5.0,,0.0,0.0,
2025-08-15T04:31:03.121Z,14,GR86-037-03,-1.8,0.027,-0.064,99.94,5.0,6830.0,0.0,0.0,
2025-08-15T04:31:03.164Z,14,GR86-037-03,-1.8,0.029,-0.068,99.94,5.0,,0.0,0.0,201.61
2025-08-15T04:31:03.207Z,14,GR86-037-03,-1.8,0.043,-0.096,99.95,5.0,,0.0,0.0,
2025-08-15T04:31:03.250Z,14,GR86-037-03,-1.8,0.04,-0.117,99.94,5.0,,0.0,0.0,
2025-08-15T04:31:03.293Z,14,GR86-037-03,-1.8,0.036,-0.103,99.95,5.0,,0.0,0.0,
2025-08-15T04:31:03.336Z,14,GR86-037-03,-1.8,0.019,-0.124,99.95,5.0,6855.0,0.0,0.0,
2025-08-15T04:31:03.379Z,14,GR86-037-03,-1.8,0.054,-0.103,99.95,5.0,,0.0,0.0,201.99
2025-08-15T04:31:03.423Z,14,GR86-037-03,-1.8,0.032,-0.082,99.94,5.0,,0.0,0.0,
2025-08-15T04:31:03.466Z,14,GR86-037-03,-1.8,0.015,-0.113,99.95,5.0,,0.0,0.0,
2025-08-15T04:31:03.509Z,14,GR86-037-03,-1.8,0.036,-0.099,99.95,5.0,,0.0,0.0,
2025-08-15T04:31:03.552Z,14,GR86-037-03,-1.8,0.04,-0.115,99.96,5.0,6879.0,0.0,0.0,
2025-08-15T04:31:03.595Z,14,GR86-037-03,-1.8,0.054,-0.097,99.95,5.0,,0.0,0.0,202.42
2025-08-15T04:31:03.638Z,14,GR86-037-03,-1.8,0.035,-0.113,99.93,5.0,,0.0,0.0,
2025-08-15T04:31:03.681Z,14,GR86-037-03,-1.8,0.045,-0.105,99.94,5.0,,0.0,0.0,
2025-08-15T04:31:03.724Z,14,GR86-037-03,-1.8,0.057,-0.116,99.94,5.0,,0.0,0.0,
2025-08-15T04:31:03.767Z,14,GR86-037-03,-1.8,0.03,-0.111,99.95,5.0,6881.0,0.0,0.0,
2025-08-15T04:31:03.810Z,14,GR86-037-03,-2.1,0.057,-0.092,99.94,5.0,,0.0,0.0,202.71
2025-08-15T04:31:03.853Z,14,GR86-037-03,-2.3000000000000003,0.03,-0.078,99.94,5.0,,0.0,0.0,
2025-08-15T04:31:03.896Z,14,GR86-037-03,-2.3000000000000003,0.044,-0.086,99.94,5.0,,0.0,0.0,
2025-08-15T04:31:03.939Z,14,GR86-037-03,-2.2,0.034,-0.09,99.93,5.0,,0.0,0.0,
2025-08-15T04:31:03.983Z,14,GR86-037-03,-2.2,0.043,-0.103,99.94,5.0,6892.0,0.0,0.0,
2025-08-15T04:31:04.026Z,14,GR86-037-03,-2.2,0.028,-0.131,99.94,5.0,,0.0,0.0,202.99
2025-08-15T04:31:04.069Z,14,GR86-037-03,-2.2,0.039,-0.126,99.95,5.0,,0.0,0.0,
2025-08-15T04:31:04.113Z,14,GR86-037-03,-1.7000000000000002,0.054,-0.134,99.96,5.0,,0.0,0.0,
2025-08-15T04:31:04.155Z,14,GR86-037-03,-0.5,-0.002,-0.159,99.95,5.0,,0.0,0.0,
2025-08-15T04:31:04.199Z,14,GR86-037-03,0.7000000000000001,0.068,-0.114,99.93,5.0,6906.0,0.0,0.0,
2025-08-15T04:31:04.244Z,14,GR86-037-03,1.1,0.055,-0.055,99.94,5.0,,0.0,0.0,203.2
2025-08-15T04:31:04.287Z,14,GR86-037-03,1.1,0.047,-0.032,99.94,5.0,,0.0,0.0,
2025-08-15T04:31:04.330Z,14,GR86-037-03,1.1,0.034,-0.037,99.94,5.0,,0.0,0.0,
2025-08-15T04:31:04.373Z,14,GR86-037-03,0.4,0.058,-0.029,99.95,5.0,,0.0,0.0,
2025-08-15T04:31:04.416Z,14,GR86-037-03,-0.8,0.052,-0.028,99.95,5.0,6908.0,0.0,0.0,
2025-08-15T04:31:04.459Z,14,GR86-037-03,-1.1,0.059,0.012,99.94,5.0,,0.0,0.0,203.54
2025-08-15T04:31:04.503Z,14,GR86-037-03,-1.1,0.048,-0.005,99.94,5.0,,0.0,0.0,
2025-08-15T04:31:04.547Z,14,GR86-037-03,-1.1,0.062,-0.019,99.94,5.0,,0.0,0.0,
2025-08-15T04:31:04.590Z,14,GR86-037-03,-1.1,0.069,-0.049,99.95,5.0,,0.0,0.0,
2025-08-15T04:31:04.676Z,14,GR86-037-03,-1.1,0.062,-0.044,99.95,5.0,6925.0,0.0,0.0,203.91
2025-08-15T04:31:04.719Z,14,GR86-037-03,-1.1,0.042,-0.075,99.93,5.0,,0.0,0.0,
2025-08-15T04:31:04.763Z,14,GR86-037-03,-1.1,0.044,-0.072,99.93,5.0,,0.0,0.0,
2025-08-15T04:31:04.806Z,14,GR86-037-03,-1.1,0.047,-0.069,99.95,5.0,,0.0,0.0,
2025-08-15T04:31:04.849Z,14,GR86-037-03,-0.9,0.039,-0.069,99.95,5.0,6950.0,0.0,0.0,
2025-08-15T04:31:04.893Z,14,GR86-037-03,0.0,0.054,-0.082,99.95,5.0,,0.0,0.0,204.16
2025-08-15T04:31:04.935Z,14,GR86-037-03,0.6000000000000001,0.016,-0.092,99.94,5.0,,0.0,0.0,
2025-08-15T04:31:04.979Z,14,GR86-037-03,0.6000000000000001,0.058,-0.08,99.95,5.0,,0.0,0.0,
2025-08-15T04:31:05.023Z,14,GR86-037-03,0.6000000000000001,0.056,-0.076,99.95,5.0,,0.0,0.0,
2025-08-15T04:31:05.065Z,14,GR86-037-03,0.6000000000000001,0.055,-0.073,99.95,5.0,6954.0,0.0,0.0,
2025-08-15T04:31:05.108Z,14,GR86-037-03,0.6000000000000001,0.044,-0.058,99.95,5.0,,0.0,0.0,204.62
2025-08-15T04:31:05.151Z,14,GR86-037-03,0.6000000000000001,0.07,-0.038,99.94,5.0,,0.0,0.0,
2025-08-15T04:31:05.194Z,14,GR86-037-03,0.6000000000000001,0.033,-0.043,99.95,5.0,,0.0,0.0,
2025-08-15T04:31:05.237Z,14,GR86-037-03,0.6000000000000001,0.051,-0.027,99.95,5.0,,0.0,0.0,
2025-08-15T04:31:05.280Z,14,GR86-037-03,0.6000000000000001,0.065,-0.012,99.94,5.0,6974.0,0.0,0.0,
2025-08-15T04:31:05.324Z,14,GR86-037-03,0.6000000000000001,0.063,-0.016,99.93,5.0,,0.0,0.0,204.93
2025-08-15T04:31:05.366Z,14,GR86-037-03,0.6000000000000001,0.074,-0.012,99.94,5.0,,0.0,0.0,
2025-08-15T04:31:05.409Z,14,GR86-037-03,0.6000000000000001,0.054,-0.018,99.95,5.0,,0.0,0.0,
2025-08-15T04:31:05.452Z,14,GR86-037-03,0.6000000000000001,0.052,-0.018,99.92,5.0,,0.0,0.0,
2025-08-15T04:31:05.495Z,14,GR86-037-03,0.6000000000000001,0.074,-0.011,99.95,5.0,6970.0,0.0,0.0,
2025-08-15T04:31:05.538Z,14,GR86-037-03,0.6000000000000001,0.052,-0.027,99.94,5.0,,0.0,0.0,205.42
2025-08-15T04:31:05.581Z,14,GR86-037-03,0.6000000000000001,0.067,-0.034,99.94,5.0,,0.0,0.0,
2025-08-15T04:31:05.624Z,14,GR86-037-03,0.6000000000000001,0.047,-0.043,99.94,5.0,,0.0,0.0,
2025-08-15T04:31:05.667Z,14,GR86-037-03,0.6000000000000001,0.067,-0.064,99.95,5.0,,0.0,0.0,
2025-08-15T04:31:05.710Z,14,GR86-037-03,1.4,0.049,-0.067,99.94,5.0,6986.0,0.0,0.0,
2025-08-15T04:31:05.753Z,14,GR86-037-03,2.6,0.059,-0.066,99.94,5.0,,0.0,0.0,206.24
2025-08-15T04:31:05.796Z,14,GR86-037-03,3.2,0.059,-0.047,99.94,5.0,,0.0,0.0,
2025-08-15T04:31:05.839Z,14,GR86-037-03,3.2,0.066,-0.016,99.95,5.0,,0.0,0.0,
2025-08-15T04:31:05.884Z,14,GR86-037-03,3.2,0.063,-0.01,99.94,5.0,,0.0,0.0,
2025-08-15T04:31:05.927Z,14,GR86-037-03,3.2,0.061,0.008,99.94,5.0,7011.0,0.0,0.0,
2025-08-15T04:31:05.970Z,14,GR86-037-03,3.2,0.071,0.03,99.95,5.0,,0.0,0.0,206.74
2025-08-15T04:31:06.013Z,14,GR86-037-03,2.5,0.05,0.036,99.94,5.0,,0.0,0.0,
2025-08-15T04:31:06.056Z,14,GR86-037-03,1.0,0.071,0.048,99.95,5.0,,0.0,0.0,
2025-08-15T04:31:06.099Z,14,GR86-037-03,0.6000000000000001,0.049,0.035,99.91,5.0,,0.0,0.0,
2025-08-15T04:31:06.144Z,14,GR86-037-03,0.6000000000000001,0.057,0.014,99.93,5.0,7039.0,0.0,0.0,
2025-08-15T04:31:06.187Z,14,GR86-037-03,0.6000000000000001,0.071,0.0,99.95,5.0,,0.0,0.0,207.09
2025-08-15T04:31:06.230Z,14,GR86-037-03,0.6000000000000001,0.057,-0.018,99.92,5.0,,0.0,0.0,
2025-08-15T04:31:06.273Z,14,GR86-037-03,0.6000000000000001,0.066,-0.026,99.95,5.0,,0.0,0.0,
2025-08-15T04:31:06.316Z,14,GR86-037-03,0.6000000000000001,0.069,-0.036,99.94,5.0,,0.0,0.0,
2025-08-15T04:31:06.359Z,14,GR86-037-03,0.9,0.065,-0.039,67.96000000000001,5.0,7056.0,0.0,0.0,
2025-08-15T04:31:06.403Z,14,GR86-037-03,4.7,0.064,-0.079,4.61,5.0,,0.0,0.0,207.51
2025-08-15T04:31:06.446Z,14,GR86-037-03,7.6,-0.008,-0.059,4.32,5.0,,0.0,0.0,
2025-08-15T04:31:06.489Z,14,GR86-037-03,8.200000000000001,-0.199,0.038,4.16,5.0,,18.89,19.52,
2025-08-15T04:31:06.532Z,14,GR86-037-03,8.200000000000001,-0.58,0.068,3.87,5.0,,40.99,41.46,
2025-08-15T04:31:06.575Z,14,GR86-037-03,7.5,-0.809,0.065,3.52,5.0,7066.0,62.995000000000005,62.84,
2025-08-15T04:31:06.618Z,14,GR86-037-03,3.7,-1.11,0.185,3.18,5.0,,81.99,81.425,207.87
2025-08-15T04:31:06.661Z,14,GR86-037-03,-1.9,-1.25,0.131,2.92,5.0,,95.33,94.61,
2025-08-15T04:31:06.704Z,14,GR86-037-03,-8.700000000000001,-1.369,0.143,2.73,5.0,,107.49,108.745,
2025-08-15T04:31:06.747Z,14,GR86-037-03,-8.4,-1.538,0.105,2.67,5.0,,110.145,112.985,
2025-08-15T04:31:06.790Z,14,GR86-037-03,-6.7,-1.455,0.023,2.59,5.0,6895.0,105.905,106.485,
2025-08-15T04:31:06.833Z,14,GR86-037-03,-6.7,-1.461,0.111,2.54,5.0,,97.88,100.06,208.5
2025-08-15T04:31:06.876Z,14,GR86-037-03,-5.0,-1.379,0.117,2.51,5.0,,70.06,71.92,
2025-08-15T04:31:06.919Z,14,GR86-037-03,-3.5,-0.985,0.028,2.51,5.0,,47.155,48.085,
2025-08-15T04:31:06.963Z,14,GR86-037-03,-7.300000000000001,-0.879,0.018,2.5,5.0,,42.68,43.585,
2025-08-15T04:31:07.005Z,14,GR86-037-03,-9.1,-0.941,-0.107,2.48,5.0,5934.0,45.52,46.24,
2025-08-15T04:31:07.048Z,14,GR86-037-03,-7.4,-1.1,-0.128,2.48,5.0,,50.16,51.535,200.35
2025-08-15T04:31:07.091Z,14,GR86-037-03,-0.3,-1.109,-0.151,9.28,5.0,,54.14,55.745000000000005,
2025-08-15T04:31:07.134Z,14,GR86-037-03,8.9,-1.161,-0.185,50.89,5.0,,59.15,59.925,
2025-08-15T04:31:07.177Z,14,GR86-037-03,12.8,-1.231,-0.066,72.10000000000001,4.0,,64.72,64.87,
2025-08-15T04:31:07.220Z,14,GR86-037-03,11.3,-1.35,-0.01,10.25,4.0,6217.0,69.675,70.545,
2025-08-15T04:31:07.264Z,14,GR86-037-03,3.4000000000000004,-1.356,-0.022,3.88,4.0,,77.215,78.985,188.43
2025-08-15T04:31:07.307Z,14,GR86-037-03,-0.5,-1.293,-0.158,3.65,4.0,,78.805,79.365,
2025-08-15T04:31:07.350Z,14,GR86-037-03,-2.1,-1.324,-0.186,3.38,4.0,,80.22,81.55,
2025-08-15T04:31:07.393Z,14,GR86-037-03,-4.2,-1.25,-0.184,3.14,4.0,,82.8,84.555,
2025-08-15T04:31:07.436Z,14,GR86-037-03,-6.5,-1.178,-0.315,2.97,4.0,5988.0,83.305,83.61,
2025-08-15T04:31:07.479Z,14,GR86-037-03,-8.3,-1.266,-0.204,2.8000000000000003,4.0,,85.24,86.4,184.08
2025-08-15T04:31:07.523Z,14,GR86-037-03,-10.7,-1.324,-0.378,2.67,4.0,,82.055,83.455,
2025-08-15T04:31:07.565Z,14,GR86-037-03,-10.7,-1.107,-0.423,3.47,4.0,,70.425,71.86,
2025-08-15T04:31:07.608Z,14,GR86-037-03,-10.7,-1.268,-0.352,39.89,4.0,,64.99,66.855,
2025-08-15T04:31:07.651Z,14,GR86-037-03,-10.7,-1.013,-0.486,83.73,4.0,6325.0,61.68,62.965,
2025-08-15T04:31:07.694Z,14,GR86-037-03,-5.6000000000000005,-1.021,-0.518,99.75,4.0,,56.63,57.53,174.49
2025-08-15T04:31:07.737Z,14,GR86-037-03,2.9000000000000004,-1.018,-0.449,98.65,4.0,,54.675,55.045,
2025-08-15T04:31:07.780Z,14,GR86-037-03,7.1000000000000005,-1.085,-0.473,42.96,3.0,,54.205,54.675,
2025-08-15T04:31:07.824Z,14,GR86-037-03,6.7,-1.045,-0.321,2.99,3.0,,48.3,50.005,
2025-08-15T04:31:07.867Z,14,GR86-037-03,5.9,-1.128,-0.291,2.86,3.0,6038.0,46.205,47.81,
2025-08-15T04:31:07.910Z,14,GR86-037-03,0.2,-1.036,-0.371,2.79,3.0,,42.715,43.52,164.8
2025-08-15T04:31:07.954Z,14,GR86-037-03,-14.2,-0.995,-0.334,2.74,3.0,,36.335,37.355,
2025-08-15T04:31:07.997Z,14,GR86-037-03,-30.1,-0.809,-0.534,2.7,3.0,,33.71,34.9,
2025-08-15T04:31:08.040Z,14,GR86-037-03,-40.3,-0.747,-0.593,2.7,3.0,,35.265,35.77,
2025-08-15T04:31:08.083Z,14,GR86-037-03,-38.7,-0.768,-0.666,2.64,3.0,6340.0,40.24,41.25,
2025-08-15T04:31:08.126Z,14,GR86-037-03,-29.8,-0.948,-0.812,2.61,3.0,,43.08,44.225,159.52
2025-08-15T04:31:08.170Z,14,GR86-037-03,-21.1,-0.868,-0.838,2.61,3.0,,41.675,42.925,
2025-08-15T04:31:08.213Z,14,GR86-037-03,-16.6,-0.961,-0.779,2.58,3.0,,37.235,38.56,
2025-08-15T04:31:08.256Z,14,GR86-037-03,-15.5,-0.768,-0.6940000000000001,2.57,3.0,,31.955,33.315,
2025-08-15T04:31:08.299Z,14,GR86-037-03,-15.4,-0.705,-0.778,2.5500000000000003,3.0,6770.0,21.99,23.09,
2025-08-15T04:31:08.344Z,14,GR86-037-03,-15.4,-0.519,-0.892,2.54,3.0,,11.84,13.015,146.92000000000002
2025-08-15T04:31:08.387Z,14,GR86-037-03,-15.4,-0.439,-0.899,2.54,3.0,,11.37,12.145,
2025-08-15T04:31:08.430Z,14,GR86-037-03,-15.8,-0.453,-0.914,2.5500000000000003,3.0,,11.705,12.5,
2025-08-15T04:31:08.473Z,14,GR86-037-03,-15.6,-0.453,-0.936,2.52,3.0,,9.995,10.835,
2025-08-15T04:31:08.516Z,14,GR86-037-03,-10.1,-0.429,-0.97,2.51,3.0,6421.0,4.96,5.7700000000000005,
2025-08-15T04:31:08.559Z,14,GR86-037-03,-4.0,-0.271,-0.949,2.51,3.0,,0.0,1.89,142.12
2025-08-15T04:31:08.603Z,14,GR86-037-03,-12.0,-0.195,-0.902,2.51,3.0,,0.0,0.0,
2025-08-15T04:31:08.645Z,14,GR86-037-03,-27.6,-0.191,-0.916,2.51,3.0,,0.0,0.0,
2025-08-15T04:31:08.688Z,14,GR86-037-03,-44.8,-0.197,-0.928,2.51,3.0,,0.0,0.0,
2025-08-15T04:31:08.731Z,14,GR86-037-03,-56.900000000000006,-0.204,-0.976,2.51,3.0,6275.0,0.0,0.0,
2025-08-15T04:31:08.774Z,14,GR86-037-03,-62.1,-0.212,-1.001,2.51,3.0,,0.0,1.985,139.01
2025-08-15T04:31:08.817Z,14,GR86-037-03,-62.7,-0.259,-1.064,2.51,3.0,,3.035,3.435,
2025-08-15T04:31:08.860Z,14,GR86-037-03,-61.3,-0.296,-1.083,2.51,3.0,,4.655,4.93,
2025-08-15T04:31:08.904Z,14,GR86-037-03,-56.0,-0.333,-1.112,2.51,3.0,,6.12,6.485,
2025-08-15T04:31:08.947Z,14,GR86-037-03,-52.0,-0.321,-1.127,2.51,3.0,6236.0,3.585,4.0600000000000005,
2025-08-15T04:31:08.990Z,14,GR86-037-03,-50.8,-0.253,-1.195,2.51,3.0,,0.0,0.0,136.68
2025-08-15T04:31:09.034Z,14,GR86-037-03,-50.5,-0.229,-1.234,2.51,3.0,,0.0,0.0,
2025-08-15T04:31:09.077Z,14,GR86-037-03,-45.400000000000006,-0.233,-1.228,2.58,3.0,,0.0,0.0,
2025-08-15T04:31:09.120Z,14,GR86-037-03,-33.5,-0.214,-1.273,4.48,3.0,,0.0,0.0,
2025-08-15T04:31:09.164Z,14,GR86-037-03,-15.1,-0.198,-1.206,16.86,3.0,6129.0,0.0,0.0,
2025-08-15T04:31:09.206Z,14,GR86-037-03,-14.1,-0.185,-1.253,18.07,3.0,,0.0,0.0,134.68
2025-08-15T04:31:09.249Z,14,GR86-037-03,-20.700000000000003,-0.169,-1.269,19.45,3.0,,0.0,0.0,
2025-08-15T04:31:09.292Z,14,GR86-037-03,-27.8,-0.153,-1.296,28.55,3.0,,0.0,0.0,
2025-08-15T04:31:09.335Z,14,GR86-037-03,-29.3,-0.141,-1.284,30.98,3.0,,0.0,0.0,
2025-08-15T04:31:09.378Z,14,GR86-037-03,-26.8,-0.115,-1.241,32.82,3.0,6023.0,0.0,0.0,
2025-08-15T04:31:09.421Z,14,GR86-037-03,-25.1,-0.115,-1.289,33.96,3.0,,0.0,0.0,134.23
2025-08-15T04:31:09.464Z,14,GR86-037-03,-33.800000000000004,0.15,-1.329,34.19,3.0,,0.0,0.0,
2025-08-15T04:31:09.507Z,14,GR86-037-03,-48.3,0.076,-1.311,34.36,3.0,,0.0,0.0,
2025-08-15T04:31:09.550Z,14,GR86-037-03,-54.5,0.059,-1.289,39.05,3.0,,0.0,0.0,
2025-08-15T04:31:09.593Z,14,GR86-037-03,-58.2,0.083,-1.221,57.29,3.0,5995.0,0.0,0.0,
2025-08-15T04:31:09.636Z,14,GR86-037-03,-59.900000000000006,0.086,-1.289,78.23,3.0,,0.0,0.0,132.42000000000002
2025-08-15T04:31:09.679Z,14,GR86-037-03,-61.5,0.088,-1.264,99.9,3.0,,0.0,0.0,
2025-08-15T04:31:09.723Z,14,GR86-037-03,-64.10000000000001,0.108,-1.351,99.91,3.0,,0.0,0.0,
2025-08-15T04:31:09.766Z,14,GR86-037-03,-64.60000000000001,0.153,-1.152,99.92,3.0,,0.0,0.0,
2025-08-15T04:31:09.809Z,14,GR86-037-03,-66.10000000000001,0.13,-1.303,99.92,3.0,6225.0,0.0,0.0,
2025-08-15T04:31:09.852Z,14,GR86-037-03,-67.4,0.145,-1.083,99.91,3.0,,0.0,0.0,130.01
2025-08-15T04:31:09.895Z,14,GR86-037-03,-68.4,0.111,-1.232,99.92,3.0,,0.0,0.0,
2025-08-15T04:31:09.938Z,14,GR86-037-03,-68.4,0.141,-1.241,99.9,3.0,,0.0,0.0,
2025-08-15T04:31:09.981Z,14,GR86-037-03,-68.4,0.119,-1.274,99.91,3.0,,0.0,0.0,
2025-08-15T04:31:10.024Z,14,GR86-037-03,-68.4,0.116,-1.219,99.93,3.0,6242.0,0.0,0.0,
2025-08-15T04:31:10.067Z,14,GR86-037-03,-68.4,0.122,-1.228,99.91,3.0,,0.0,0.0,128.39
2025-08-15T04:31:10.110Z,14,GR86-037-03,-68.4,0.144,-1.232,99.92,3.0,,0.0,0.0,
2025-08-15T04:31:10.153Z,14,GR86-037-03,-68.4,0.116,-1.292,99.92,3.0,,0.0,0.0,
2025-08-15T04:31:10.196Z,14,GR86-037-03,-68.4,0.127,-1.243,99.91,3.0,,0.0,0.0,
2025-08-15T04:31:10.239Z,14,GR86-037-03,-68.4,0.132,-1.19,99.91,3.0,6264.0,0.0,0.0,
2025-08-15T04:31:10.283Z,14,GR86-037-03,-68.4,0.182,-0.892,99.92,3.0,,0.0,0.0,128.69
2025-08-15T04:31:10.326Z,14,GR86-037-03,-67.9,-0.039,-1.055,99.92,3.0,,0.0,0.0,
2025-08-15T04:31:10.370Z,14,GR86-037-03,-62.3,-0.05,-1.37,99.92,3.0,,0.0,0.0,
2025-08-15T04:31:10.456Z,14,GR86-037-03,-40.400000000000006,-0.071,-1.336,99.91,3.0,6235.0,0.0,0.0,
2025-08-15T04:31:10.499Z,14,GR86-037-03,-4.3,-0.043,-1.138,99.91,3.0,,0.0,0.0,129.28
2025-08-15T04:31:10.544Z,14,GR86-037-03,-4.7,0.154,-1.078,99.9,3.0,,0.0,0.0,
2025-08-15T04:31:10.587Z,14,GR86-037-03,-16.2,0.248,-1.127,99.91,3.0,,0.0,0.0,
2025-08-15T04:31:10.630Z,14,GR86-037-03,-26.200000000000003,0.179,-1.154,99.91,3.0,,0.0,0.0,
2025-08-15T04:31:10.673Z,14,GR86-037-03,-31.200000000000003,0.093,-1.208,99.91,3.0,6145.0,0.0,0.0,
2025-08-15T04:31:10.716Z,14,GR86-037-03,-31.5,0.096,-1.212,99.92,3.0,,0.0,0.0,129.91
2025-08-15T04:31:10.759Z,14,GR86-037-03,-32.4,0.106,-1.23,99.91,3.0,,0.0,0.0,
2025-08-15T04:31:10.804Z,14,GR86-037-03,-48.2,0.175,-1.175,99.93,3.0,,0.0,0.0,
2025-08-15T04:31:10.847Z,14,GR86-037-03,-56.0,0.194,-1.142,99.91,3.0,,0.0,0.0,
2025-08-15T04:31:10.890Z,14,GR86-037-03,-61.6,0.194,-1.083,99.91,3.0,6168.0,0.0,0.0,
2025-08-15T04:31:10.933Z,14,GR86-037-03,-61.900000000000006,0.146,-1.129,99.91,3.0,,0.0,0.0,131.79
2025-08-15T04:31:10.976Z,14,GR86-037-03,-61.900000000000006,0.121,-1.115,99.91,3.0,,0.0,0.0,
2025-08-15T04:31:11.019Z,14,GR86-037-03,-62.0,0.133,-1.164,99.91,3.0,,0.0,0.0,
2025-08-15T04:31:11.063Z,14,GR86-037-03,-62.0,0.135,-1.105,99.92,3.0,,0.0,0.0,
2025-08-15T04:31:11.106Z,14,GR86-037-03,-62.0,0.165,-1.087,99.91,3.0,6233.0,0.0,0.0,
2025-08-15T04:31:11.149Z,14,GR86-037-03,-62.0,0.13,-1.13,99.91,3.0,,0.0,0.0,131.1
2025-08-15T04:31:11.193Z,14,GR86-037-03,-62.0,0.099,-1.167,99.91,3.0,,0.0,0.0,
2025-08-15T04:31:11.235Z,14,GR86-037-03,-62.0,0.136,-1.231,99.91,3.0,,0.0,0.0,
2025-08-15T04:31:11.279Z,14,GR86-037-03,-62.0,0.152,-1.2,99.91,3.0,,0.0,0.0,
2025-08-15T04:31:11.323Z,14,GR86-037-03,-62.0,0.153,-1.201,99.91,3.0,6231.0,0.0,0.0,
2025-08-15T04:31:11.366Z,14,GR86-037-03,-62.0,0.142,-1.201,99.91,3.0,,0.0,0.0,132.12
2025-08-15T04:31:11.409Z,14,GR86-037-03,-61.900000000000006,0.118,-1.253,99.92,3.0,,0.0,0.0,
2025-08-15T04:31:11.452Z,14,GR86-037-03,-61.6,0.144,-1.047,99.91,3.0,,0.0,0.0,
2025-08-15T04:31:11.495Z,14,GR86-037-03,-60.2,0.158,-0.899,99.91,3.0,,0.0,0.0,
2025-08-15T04:31:11.538Z,14,GR86-037-03,-57.8,0.15,-0.731,99.92,3.0,6271.0,0.0,0.0,
2025-08-15T04:31:11.581Z,14,GR86-037-03,-55.6,0.161,-0.8230000000000001,99.92,3.0,,0.0,0.0,133.09
2025-08-15T04:31:11.624Z,14,GR86-037-03,-51.8,0.102,-0.478,99.91,3.0,,0.0,0.0,
2025-08-15T04:31:11.667Z,14,GR86-037-03,-47.6,0.065,-0.663,99.91,3.0,,0.0,0.0,
2025-08-15T04:31:11.710Z,14,GR86-037-03,-39.5,0.251,-0.516,99.91,3.0,,0.0,0.0,
2025-08-15T04:31:11.753Z,14,GR86-037-03,-31.4,0.161,-0.81,99.91,3.0,6372.0,0.0,0.0,
2025-08-15T04:31:11.796Z,14,GR86-037-03,-13.0,0.158,-1.106,99.91,3.0,,0.0,0.0,133.74
2025-08-15T04:31:11.839Z,14,GR86-037-03,-2.9000000000000004,0.125,-1.239,99.92,3.0,,0.0,0.0,
2025-08-15T04:31:11.884Z,14,GR86-037-03,-1.0,0.382,-1.254,99.91,3.0,,0.0,0.0,
2025-08-15T04:31:11.927Z,14,GR86-037-03,-2.4000000000000004,0.279,-1.294,99.92,3.0,,0.0,0.0,
2025-08-15T04:31:11.970Z,14,GR86-037-03,-2.2,0.089,-1.448,99.91,3.0,6612.0,0.0,0.0,
2025-08-15T04:31:12.013Z,14,GR86-037-03,8.200000000000001,0.267,-1.465,99.9,3.0,,0.0,0.0,134.18
2025-08-15T04:31:12.056Z,14,GR86-037-03,28.700000000000003,0.237,-1.258,99.91,3.0,,0.0,0.0,
2025-08-15T04:31:12.099Z,14,GR86-037-03,45.1,0.099,-1.102,99.91,3.0,,0.0,0.0,
2025-08-15T04:31:12.144Z,14,GR86-037-03,49.3,0.212,-1.094,99.91,3.0,,0.0,0.0,
2025-08-15T04:31:12.187Z,14,GR86-037-03,29.700000000000003,0.303,-1.14,99.91,3.0,6733.0,0.0,0.0,
2025-08-15T04:31:12.230Z,14,GR86-037-03,0.4,0.274,-1.177,99.91,3.0,,0.0,0.0,136.69
2025-08-15T04:31:12.273Z,14,GR86-037-03,-3.9,0.228,-1.205,99.91,3.0,,0.0,0.0,
2025-08-15T04:31:12.316Z,14,GR86-037-03,9.5,0.214,-1.095,99.91,3.0,,0.0,0.0,
2025-08-15T04:31:12.359Z,14,GR86-037-03,21.200000000000003,0.129,-1.04,99.91,3.0,,0.0,0.0,
2025-08-15T04:31:12.403Z,14,GR86-037-03,1.4,0.232,-0.872,99.93,3.0,6704.0,0.0,0.0,
2025-08-15T04:31:12.446Z,14,GR86-037-03,-26.1,0.346,-1.001,99.93,3.0,,0.0,0.0,136.41
2025-08-15T04:31:12.489Z,14,GR86-037-03,-50.1,0.27,-1.007,99.91,3.0,,0.0,0.0,
2025-08-15T04:31:12.532Z,14,GR86-037-03,-62.900000000000006,0.186,-1.013,99.92,3.0,,0.0,0.0,
2025-08-15T04:31:12.575Z,14,GR86-037-03,-64.60000000000001,0.139,-0.999,99.92,3.0,,0.0,0.0,
2025-08-15T04:31:12.618Z,14,GR86-037-03,-64.60000000000001,0.132,-1.07,99.91,3.0,6579.0,0.0,0.0,
2025-08-15T04:31:12.663Z,14,GR86-037-03,-64.60000000000001,0.141,-1.113,99.91,3.0,,0.0,0.0,136.92000000000002
2025-08-15T04:31:12.706Z,14,GR86-037-03,-64.5,0.176,-1.167,99.91,3.0,,0.0,0.0,
2025-08-15T04:31:12.749Z,14,GR86-037-03,-62.5,0.134,-1.167,99.91,3.0,,0.0,0.0,
2025-08-15T04:31:12.792Z,14,GR86-037-03,-57.400000000000006,0.139,-1.095,99.91,3.0,,0.0,0.0,
2025-08-15T04:31:12.835Z,14,GR86-037-03,-46.5,0.117,-1.177,99.92,3.0,6527.0,0.0,0.0,
2025-08-15T04:31:12.878Z,14,GR86-037-03,-29.8,0.145,-1.066,99.92,3.0,,0.0,0.0,137.17000000000002
2025-08-15T04:31:12.921Z,14,GR86-037-03,-12.7,0.156,-1.142,99.92,3.0,,0.0,0.0,
2025-08-15T04:31:12.964Z,14,GR86-037-03,3.8,0.214,-0.953,99.91,3.0,,0.0,0.0,
2025-08-15T04:31:13.007Z,14,GR86-037-03,6.9,0.226,-0.895,99.91,3.0,,0.0,0.0,
2025-08-15T04:31:13.050Z,14,GR86-037-03,6.9,0.175,-0.72,99.92,3.0,6566.0,0.0,0.0,
2025-08-15T04:31:13.093Z,14,GR86-037-03,1.7000000000000002,0.17,-0.855,99.91,3.0,,0.0,0.0,138.71
2025-08-15T04:31:13.136Z,14,GR86-037-03,-7.9,0.214,-0.847,99.91,3.0,,0.0,0.0,
2025-08-15T04:31:13.179Z,14,GR86-037-03,-17.7,0.214,-0.834,99.91,3.0,,0.0,0.0,
2025-08-15T04:31:13.223Z,14,GR86-037-03,-18.4,0.183,-1.087,99.92,3.0,,0.0,0.0,
2025-08-15T04:31:13.266Z,14,GR86-037-03,-11.9,0.258,-0.941,99.91,3.0,6695.0,0.0,0.0,
2025-08-15T04:31:13.309Z,14,GR86-037-03,-5.1000000000000005,0.226,-0.924,99.9,3.0,,0.0,0.0,140.44
2025-08-15T04:31:13.353Z,14,GR86-037-03,-0.5,0.203,-0.8170000000000001,99.91,3.0,,0.0,0.0,
2025-08-15T04:31:13.397Z,14,GR86-037-03,5.2,0.192,-0.73,99.92,3.0,,0.0,0.0,
2025-08-15T04:31:13.440Z,14,GR86-037-03,12.4,0.192,-0.417,99.92,3.0,,0.0,0.0,
2025-08-15T04:31:13.484Z,14,GR86-037-03,25.200000000000003,0.187,-0.082,99.92,3.0,6752.0,0.0,0.0,
2025-08-15T04:31:13.526Z,14,GR86-037-03,29.8,0.074,0.162,99.91,3.0,,0.0,0.0,140.68
2025-08-15T04:31:13.569Z,14,GR86-037-03,28.8,0.014,0.378,99.9,3.0,,0.0,0.0,
2025-08-15T04:31:13.613Z,14,GR86-037-03,22.8,0.172,0.297,99.91,3.0,,0.0,0.0,
2025-08-15T04:31:13.655Z,14,GR86-037-03,15.1,0.401,0.783,99.91,3.0,,0.0,0.0,
2025-08-15T04:31:13.699Z,14,GR86-037-03,9.2,0.332,0.509,99.91,3.0,6693.0,0.0,0.0,
2025-08-15T04:31:13.741Z,14,GR86-037-03,8.3,0.323,0.45,99.91,3.0,,0.0,0.0,142.29
2025-08-15T04:31:13.784Z,14,GR86-037-03,13.7,0.075,0.273,99.92,3.0,,0.0,0.0,
2025-08-15T04:31:13.828Z,14,GR86-037-03,19.1,-0.12,0.5660000000000001,99.91,3.0,,0.0,0.0,
2025-08-15T04:31:13.871Z,14,GR86-037-03,22.1,0.055,0.374,99.91,3.0,,0.0,0.0,
2025-08-15T04:31:13.914Z,14,GR86-037-03,19.6,0.064,0.284,99.92,3.0,6782.0,0.0,0.0,
2025-08-15T04:31:13.957Z,14,GR86-037-03,9.8,0.159,0.276,99.92,3.0,,0.0,0.0,144.99
2025-08-15T04:31:14.000Z,14,GR86-037-03,1.0,0.138,0.127,99.92,3.0,,0.0,0.0,
2025-08-15T04:31:14.044Z,14,GR86-037-03,-2.8000000000000003,0.027,0.294,99.9,3.0,,0.0,0.0,
2025-08-15T04:31:14.087Z,14,GR86-037-03,-3.4000000000000004,0.13,0.4,99.92,3.0,,0.0,0.0,
2025-08-15T04:31:14.130Z,14,GR86-037-03,-6.4,0.333,0.498,99.92,3.0,6817.0,0.0,0.0,
2025-08-15T04:31:14.173Z,14,GR86-037-03,-8.1,0.336,0.315,99.91,3.0,,0.0,0.0,146.72
2025-08-15T04:31:14.216Z,14,GR86-037-03,-4.3,0.215,0.34,99.92,3.0,,0.0,0.0,
2025-08-15T04:31:14.259Z,14,GR86-037-03,6.0,0.055,0.299,99.91,3.0,,0.0,0.0,
2025-08-15T04:31:14.303Z,14,GR86-037-03,22.700000000000003,0.102,0.403,99.92,3.0,,0.0,0.0,
2025-08-15T04:31:14.346Z,14,GR86-037-03,25.1,0.162,0.548,99.94,3.0,7070.0,0.0,0.0,
2025-08-15T04:31:14.389Z,14,GR86-037-03,19.700000000000003,0.332,0.452,99.91,3.0,,0.0,0.0,147.21
2025-08-15T04:31:14.433Z,14,GR86-037-03,12.5,0.194,0.31,99.92,3.0,,0.0,0.0,
2025-08-15T04:31:14.477Z,14,GR86-037-03,9.4,0.198,0.466,99.91,3.0,,0.0,0.0,
2025-08-15T04:31:14.520Z,14,GR86-037-03,8.8,0.078,0.282,99.93,3.0,,0.0,0.0,
2025-08-15T04:31:14.564Z,14,GR86-037-03,8.3,0.166,0.426,99.93,3.0,7264.0,0.0,0.0,
2025-08-15T04:31:14.606Z,14,GR86-037-03,7.7,0.372,0.346,99.93,3.0,,0.0,0.0,148.29
2025-08-15T04:31:14.649Z,14,GR86-037-03,7.5,0.259,0.297,99.91,3.0,,0.0,0.0,
2025-08-15T04:31:14.693Z,14,GR86-037-03,7.5,0.109,0.336,99.94,3.0,,0.0,0.0,
2025-08-15T04:31:14.735Z,14,GR86-037-03,7.4,0.153,0.318,99.9,3.0,,0.0,0.0,
2025-08-15T04:31:14.778Z,14,GR86-037-03,7.5,0.165,0.288,99.92,3.0,7134.0,0.0,0.0,
2025-08-15T04:31:14.821Z,14,GR86-037-03,7.4,0.212,0.274,99.9,3.0,,0.0,0.0,150.31
2025-08-15T04:31:14.864Z,14,GR86-037-03,5.6000000000000005,0.175,0.218,99.92,3.0,,0.0,0.0,
2025-08-15T04:31:14.907Z,14,GR86-037-03,4.5,0.181,0.174,99.91,3.0,,0.0,0.0,
2025-08-15T04:31:14.950Z,14,GR86-037-03,4.4,0.186,0.159,99.91,3.0,,0.0,0.0,
2025-08-15T04:31:14.993Z,14,GR86-037-03,4.4,0.205,0.121,99.95,3.0,7150.0,0.0,0.0,
2025-08-15T04:31:15.036Z,14,GR86-037-03,4.4,0.187,0.092,99.91,3.0,,0.0,0.0,151.75
2025-08-15T04:31:15.079Z,14,GR86-037-03,4.4,0.162,0.082,99.92,3.0,,0.0,0.0,
2025-08-15T04:31:15.123Z,14,GR86-037-03,4.4,0.194,0.059,99.91,3.0,,0.0,0.0,
2025-08-15T04:31:15.166Z,14,GR86-037-03,4.4,0.194,0.046,99.91,3.0,,0.0,0.0,
2025-08-15T04:31:15.209Z,14,GR86-037-03,4.4,-0.013,0.041,99.9,4.0,7219.0,0.0,0.0,
2025-08-15T04:31:15.252Z,14,GR86-037-03,4.4,-0.047,0.069,99.92,4.0,,0.0,0.0,153.20000000000002
2025-08-15T04:31:15.295Z,14,GR86-037-03,4.4,0.301,0.036,99.92,4.0,,0.0,0.0,
2025-08-15T04:31:15.338Z,14,GR86-037-03,4.4,0.262,-0.023,99.92,4.0,,0.0,0.0,
2025-08-15T04:31:15.381Z,14,GR86-037-03,4.4,0.254,0.108,99.91,4.0,,0.0,0.0,
2025-08-15T04:31:15.424Z,14,GR86-037-03,4.4,0.047,-0.005,99.91,4.0,7293.0,0.0,0.0,
2025-08-15T04:31:15.467Z,14,GR86-037-03,4.2,0.108,0.065,99.93,4.0,,0.0,0.0,154.8
2025-08-15T04:31:15.510Z,14,GR86-037-03,3.1,0.183,0.033,99.91,4.0,,0.0,0.0,
2025-08-15T04:31:15.553Z,14,GR86-037-03,2.3000000000000003,0.184,0.017,99.92,4.0,,0.0,0.0,
2025-08-15T04:31:15.596Z,14,GR86-037-03,2.1,0.148,0.019,99.91,4.0,,0.0,0.0,
2025-08-15T04:31:15.639Z,14,GR86-037-03,2.1,0.164,0.004,99.91,4.0,6318.0,0.0,0.0,
2025-08-15T04:31:15.683Z,14,GR86-037-03,2.1,0.158,-0.001,99.92,4.0,,0.0,0.0,156.27
2025-08-15T04:31:15.725Z,14,GR86-037-03,2.1,0.164,-0.002,99.92,4.0,,0.0,0.0,
2025-08-15T04:31:15.768Z,14,GR86-037-03,1.5,0.164,-0.027,99.92,4.0,,0.0,0.0,
2025-08-15T04:31:15.811Z,14,GR86-037-03,1.3,0.162,-0.049,99.92,4.0,,0.0,0.0,
2025-08-15T04:31:15.854Z,14,GR86-037-03,1.3,0.155,-0.048,99.91,4.0,6236.0,0.0,0.0,
2025-08-15T04:31:15.897Z,14,GR86-037-03,1.3,0.139,-0.073,99.92,4.0,,0.0,0.0,158.08
2025-08-15T04:31:15.940Z,14,GR86-037-03,1.3,0.125,-0.06,99.91,4.0,,0.0,0.0,
2025-08-15T04:31:15.984Z,14,GR86-037-03,1.3,0.142,-0.074,99.91,4.0,,0.0,0.0,
2025-08-15T04:31:16.027Z,14,GR86-037-03,1.3,0.154,-0.057,99.92,4.0,,0.0,0.0,
2025-08-15T04:31:16.070Z,14,GR86-037-03,1.3,0.139,-0.077,99.91,4.0,6299.0,0.0,0.0,
2025-08-15T04:31:16.113Z,14,GR86-037-03,1.3,0.15,-0.069,99.92,4.0,,0.0,0.0,159.63
2025-08-15T04:31:16.156Z,14,GR86-037-03,1.3,0.139,-0.062,99.92,4.0,,0.0,0.0,
2025-08-15T04:31:16.199Z,14,GR86-037-03,1.3,0.139,-0.057,99.91,4.0,,0.0,0.0,
2025-08-15T04:31:16.244Z,14,GR86-037-03,1.3,0.149,-0.074,99.91,4.0,,0.0,0.0,
2025-08-15T04:31:16.287Z,14,GR86-037-03,1.4,0.145,-0.086,99.91,4.0,6357.0,0.0,0.0,
2025-08-15T04:31:16.330Z,14,GR86-037-03,1.7000000000000002,0.143,-0.074,99.92,4.0,,0.0,0.0,161.19
2025-08-15T04:31:16.373Z,14,GR86-037-03,1.7000000000000002,0.134,-0.055,99.92,4.0,,0.0,0.0,
2025-08-15T04:31:16.416Z,14,GR86-037-03,1.7000000000000002,0.128,-0.055,99.92,4.0,,0.0,0.0,
2025-08-15T04:31:16.459Z,14,GR86-037-03,1.7000000000000002,0.14,-0.044,99.91,4.0,,0.0,0.0,
2025-08-15T04:31:16.503Z,14,GR86-037-03,1.7000000000000002,0.158,-0.051,99.91,4.0,6428.0,0.0,0.0,
2025-08-15T04:31:16.547Z,14,GR86-037-03,1.7000000000000002,0.151,-0.056,99.91,4.0,,0.0,0.0,164.36
2025-08-15T04:31:16.590Z,14,GR86-037-03,1.7000000000000002,0.141,-0.064,99.92,4.0,,0.0,0.0,
2025-08-15T04:31:16.633Z,14,GR86-037-03,1.7000000000000002,0.143,-0.059,99.91,4.0,,0.0,0.0,
2025-08-15T04:31:16.676Z,14,GR86-037-03,1.7000000000000002,0.138,-0.054,99.91,4.0,,0.0,0.0,
2025-08-15T04:31:16.719Z,14,GR86-037-03,1.7000000000000002,0.135,-0.047,99.91,4.0,6467.0,0.0,0.0,
2025-08-15T04:31:16.764Z,14,GR86-037-03,1.7000000000000002,0.15,-0.046,99.92,4.0,,0.0,0.0,165.91
2025-08-15T04:31:16.806Z,14,GR86-037-03,1.7000000000000002,0.148,-0.039,99.91,4.0,,0.0,0.0,
2025-08-15T04:31:16.849Z,14,GR86-037-03,1.7000000000000002,0.144,-0.046,99.92,4.0,,0.0,0.0,
2025-08-15T04:31:16.893Z,14,GR86-037-03,1.7000000000000002,0.139,-0.033,99.91,4.0,,0.0,0.0,
2025-08-15T04:31:16.935Z,14,GR86-037-03,1.7000000000000002,0.137,-0.036,99.92,4.0,6543.0,0.0,0.0,
2025-08-15T04:31:16.979Z,14,GR86-037-03,1.7000000000000002,0.131,-0.043,99.91,4.0,,0.0,0.0,167.55
2025-08-15T04:31:17.021Z,14,GR86-037-03,1.7000000000000002,0.141,-0.028,99.9,4.0,,0.0,0.0,
2025-08-15T04:31:17.064Z,14,GR86-037-03,1.7000000000000002,0.158,-0.05,99.91,4.0,,0.0,0.0,
2025-08-15T04:31:17.107Z,14,GR86-037-03,1.7000000000000002,0.133,-0.041,99.91,4.0,,0.0,0.0,
2025-08-15T04:31:17.150Z,14,GR86-037-03,1.4,0.146,-0.041,99.91,4.0,6658.0,0.0,0.0,
2025-08-15T04:31:17.193Z,14,GR86-037-03,-0.3,0.131,-0.036,99.93,4.0,,0.0,0.0,169.13
2025-08-15T04:31:17.236Z,14,GR86-037-03,-1.6,0.14,-0.036,99.92,4.0,,0.0,0.0,
2025-08-15T04:31:17.279Z,14,GR86-037-03,-1.7000000000000002,0.139,-0.056,99.92,4.0,,0.0,0.0,
2025-08-15T04:31:17.323Z,14,GR86-037-03,-1.7000000000000002,0.153,-0.091,99.91,4.0,,0.0,0.0,
2025-08-15T04:31:17.366Z,14,GR86-037-03,-1.7000000000000002,0.17,-0.107,99.91,4.0,6711.0,0.0,0.0,
2025-08-15T04:31:17.409Z,14,GR86-037-03,-1.7000000000000002,0.156,-0.125,99.92,4.0,,0.0,0.0,170.55
2025-08-15T04:31:17.452Z,14,GR86-037-03,-1.8,0.138,-0.133,99.91,4.0,,0.0,0.0,
2025-08-15T04:31:17.495Z,14,GR86-037-03,-2.3000000000000003,0.146,-0.143,99.92,4.0,,0.0,0.0,
2025-08-15T04:31:17.538Z,14,GR86-037-03,-2.8000000000000003,0.14,-0.172,99.91,4.0,,0.0,0.0,
2025-08-15T04:31:17.581Z,14,GR86-037-03,-2.9000000000000004,0.137,-0.195,99.92,4.0,6780.0,0.0,0.0,
2025-08-15T04:31:17.624Z,14,GR86-037-03,-4.1000000000000005,0.131,-0.208,99.91,4.0,,0.0,0.0,171.9
2025-08-15T04:31:17.667Z,14,GR86-037-03,-6.2,0.142,-0.237,99.92,4.0,,0.0,0.0,
2025-08-15T04:31:17.710Z,14,GR86-037-03,-7.9,0.127,-0.269,99.91,4.0,,0.0,0.0,
2025-08-15T04:31:17.754Z,14,GR86-037-03,-8.3,0.148,-0.299,99.92,4.0,,0.0,0.0,
2025-08-15T04:31:17.796Z,14,GR86-037-03,-8.3,0.137,-0.304,99.91,4.0,6815.0,0.0,0.0,
2025-08-15T04:31:17.839Z,14,GR86-037-03,-6.7,0.152,-0.337,99.91,4.0,,0.0,0.0,173.35
2025-08-15T04:31:17.884Z,14,GR86-037-03,-5.4,0.12,-0.354,99.91,4.0,,0.0,0.0,
2025-08-15T04:31:17.927Z,14,GR86-037-03,-5.0,0.115,-0.366,99.92,4.0,,0.0,0.0,
2025-08-15T04:31:17.970Z,14,GR86-037-03,-4.5,0.106,-0.381,99.91,4.0,,0.0,0.0,
2025-08-15T04:31:18.013Z,14,GR86-037-03,-3.5,0.12,-0.384,99.91,4.0,6878.0,0.0,0.0,
2025-08-15T04:31:18.056Z,14,GR86-037-03,-3.3000000000000003,0.106,-0.37,99.92,4.0,,0.0,0.0,174.72
2025-08-15T04:31:18.099Z,14,GR86-037-03,-3.4000000000000004,0.12,-0.356,99.91,4.0,,0.0,0.0,
2025-08-15T04:31:18.144Z,14,GR86-037-03,-3.3000000000000003,0.148,-0.334,99.92,4.0,,0.0,0.0,
2025-08-15T04:31:18.187Z,14,GR86-037-03,-3.3000000000000003,0.123,-0.299,99.91,4.0,,0.0,0.0,
2025-08-15T04:31:18.230Z,14,GR86-037-03,-3.3000000000000003,0.144,-0.263,99.91,4.0,6934.0,0.0,0.0,
2025-08-15T04:31:18.273Z,14,GR86-037-03,-3.3000000000000003,0.129,-0.225,99.91,4.0,,0.0,0.0,176.03
2025-08-15T04:31:18.316Z,14,GR86-037-03,-3.3000000000000003,0.122,-0.217,99.29,4.0,,0.0,0.0,
2025-08-15T04:31:18.359Z,14,GR86-037-03,-3.3000000000000003,0.145,-0.201,48.39,4.0,,0.0,0.0,
2025-08-15T04:31:18.403Z,14,GR86-037-03,-3.3000000000000003,0.128,-0.2,4.23,4.0,,0.0,0.0,
2025-08-15T04:31:18.446Z,14,GR86-037-03,-2.1,-0.008,-0.204,4.1,4.0,6977.0,0.0,0.0,
2025-08-15T04:31:18.489Z,14,GR86-037-03,0.3,-0.125,-0.173,3.91,4.0,,0.0,0.0,177.49
2025-08-15T04:31:18.532Z,14,GR86-037-03,0.9,-0.395,-0.169,3.62,4.0,,15.215,15.72,
2025-08-15T04:31:18.575Z,14,GR86-037-03,-0.2,-0.354,-0.172,3.24,4.0,,35.71,36.12,
2025-08-15T04:31:18.618Z,14,GR86-037-03,-3.5,-0.556,-0.106,2.89,4.0,,57.895,57.715,
2025-08-15T04:31:18.663Z,14,GR86-037-03,-10.2,-1.271,-0.176,2.7,4.0,7030.0,81.425,80.71000000000001,
2025-08-15T04:31:18.706Z,14,GR86-037-03,-13.1,-1.388,-0.178,2.63,4.0,,86.065,85.87,178.71
2025-08-15T04:31:18.749Z,14,GR86-037-03,-13.0,-1.465,-0.269,2.61,4.0,,79.625,81.46000000000001,
2025-08-15T04:31:18.792Z,14,GR86-037-03,-11.4,-1.307,-0.345,2.57,4.0,,69.02,71.705,
2025-08-15T04:31:18.835Z,14,GR86-037-03,-11.2,-1.274,-0.355,2.57,4.0,,63.055,65.525,
2025-08-15T04:31:18.878Z,14,GR86-037-03,-11.2,-1.356,-0.382,2.54,4.0,6810.0,61.79,63.925,
2025-08-15T04:31:18.921Z,14,GR86-037-03,-8.3,-1.298,-0.41,2.51,4.0,,63.205,65.235,179.71
2025-08-15T04:31:18.964Z,14,GR86-037-03,3.7,-1.274,-0.47,2.51,4.0,,62.03,62.275,
2025-08-15T04:31:19.007Z,14,GR86-037-03,11.6,-1.141,-0.376,2.51,4.0,,61.71,62.505,
2025-08-15T04:31:19.093Z,14,GR86-037-03,15.2,-1.12,-0.317,57.59,4.0,6348.0,57.865,58.905,
2025-08-15T04:31:19.136Z,14,GR86-037-03,15.2,-1.075,-0.242,98.03,4.0,,50.19,52.02,174.48
2025-08-15T04:31:19.179Z,14,GR86-037-03,15.2,-0.996,-0.198,99.86,4.0,,47.49,48.955,
2025-08-15T04:31:19.223Z,14,GR86-037-03,6.0,-1.037,-0.18,50.89,3.0,,51.535,51.870000000000005,
2025-08-15T04:31:19.265Z,14,GR86-037-03,-1.8,-1.184,-0.118,3.09,3.0,,53.120000000000005,54.525,
2025-08-15T04:31:19.308Z,14,GR86-037-03,-6.4,-1.091,-0.142,2.92,3.0,6192.0,53.64,55.3,
2025-08-15T04:31:19.351Z,14,GR86-037-03,-9.8,-0.98,-0.268,2.86,3.0,,54.08,55.075,158.63
2025-08-15T04:31:19.394Z,14,GR86-037-03,-16.2,-1.133,-0.204,2.77,3.0,,56.875,57.15,
2025-08-15T04:31:19.437Z,14,GR86-037-03,-23.6,-1.112,-0.204,2.73,3.0,,60.55,60.645,
2025-08-15T04:31:19.480Z,14,GR86-037-03,-27.1,-1.213,-0.348,2.7,3.0,,63.865,64.0,
2025-08-15T04:31:19.524Z,14,GR86-037-03,-23.1,-1.145,-0.361,2.67,3.0,5825.0,67.36,67.525,
2025-08-15T04:31:19.566Z,14,GR86-037-03,-15.1,-1.15,-0.43,2.64,3.0,,69.74,71.34,150.09
2025-08-15T04:31:19.609Z,14,GR86-037-03,-8.0,-1.226,-0.493,2.63,3.0,,71.495,73.66,
2025-08-15T04:31:19.653Z,14,GR86-037-03,-4.2,-1.038,-0.482,2.6,3.0,,66.58,67.495,
2025-08-15T04:31:19.697Z,14,GR86-037-03,-1.0,-1.129,-0.5,16.72,3.0,,58.765,60.23,
2025-08-15T04:31:19.740Z,14,GR86-037-03,3.0,-1.022,-0.5700000000000001,58.9,3.0,6645.0,55.01,56.905,
2025-08-15T04:31:19.784Z,14,GR86-037-03,4.800000000000001,-1.005,-0.5730000000000001,99.69,3.0,,42.025,43.52,140.9
2025-08-15T04:31:19.828Z,14,GR86-037-03,2.9000000000000004,-0.716,-0.622,98.0,2.0,,30.365,31.54,
2025-08-15T04:31:19.871Z,14,GR86-037-03,-0.4,-0.631,-0.655,39.2,2.0,,26.08,27.315,
2025-08-15T04:31:19.914Z,14,GR86-037-03,-9.2,-1.0,-0.5630000000000001,3.54,2.0,,29.435,30.765,
2025-08-15T04:31:19.957Z,14,GR86-037-03,-20.0,-0.849,-0.656,2.94,2.0,5880.0,35.77,37.265,
2025-08-15T04:31:20.000Z,14,GR86-037-03,-27.9,-0.875,-0.905,2.8000000000000003,2.0,,38.075,38.775,135.73
2025-08-15T04:31:20.044Z,14,GR86-037-03,-34.300000000000004,-0.743,-0.722,2.7,2.0,,39.935,40.395,
2025-08-15T04:31:20.087Z,14,GR86-037-03,-37.4,-0.8270000000000001,-0.845,2.69,2.0,,43.615,44.74,
2025-08-15T04:31:20.130Z,14,GR86-037-03,-39.2,-0.908,-0.986,2.67,2.0,,47.58,48.83,
2025-08-15T04:31:20.173Z,14,GR86-037-03,-39.400000000000006,-0.8,-0.8230000000000001,2.64,2.0,7042.0,47.275,48.235,
2025-08-15T04:31:20.216Z,14,GR86-037-03,-39.5,-0.792,-0.897,2.63,2.0,,46.955,47.185,131.63
2025-08-15T04:31:20.259Z,14,GR86-037-03,-41.8,-0.897,-0.914,2.61,2.0,,48.45,49.2,
2025-08-15T04:31:20.302Z,14,GR86-037-03,-51.8,-0.881,-1.022,2.59,2.0,,48.865,50.375,
2025-08-15T04:31:20.345Z,14,GR86-037-03,-58.3,-0.896,-1.051,2.57,2.0,,45.43,45.995,
2025-08-15T04:31:20.388Z,14,GR86-037-03,-61.400000000000006,-0.796,-0.914,2.54,2.0,6787.0,38.715,39.995,
2025-08-15T04:31:20.431Z,14,GR86-037-03,-62.3,-0.667,-0.961,2.54,2.0,,25.7,26.935,125.48
2025-08-15T04:31:20.474Z,14,GR86-037-03,-62.3,-0.5670000000000001,-1.21,2.54,2.0,,17.990000000000002,19.045,
2025-08-15T04:31:20.517Z,14,GR86-037-03,-61.900000000000006,-0.609,-1.111,2.54,2.0,,18.405,19.045,
2025-08-15T04:31:20.560Z,14,GR86-037-03,-58.900000000000006,-0.555,-1.186,2.54,2.0,,20.875,21.38,
2025-08-15T04:31:20.604Z,14,GR86-037-03,-54.2,-0.508,-1.169,2.51,2.0,6410.0,23.56,23.895,
2025-08-15T04:31:20.647Z,14,GR86-037-03,-54.2,-0.551,-1.249,2.51,2.0,,23.56,24.2,120.15
2025-08-15T04:31:20.690Z,14,GR86-037-03,-51.900000000000006,-0.541,-1.249,2.51,2.0,,14.635,15.535,
2025-08-15T04:31:20.734Z,14,GR86-037-03,-42.5,-0.343,-1.273,2.53,2.0,,3.495,4.21,
2025-08-15T04:31:20.777Z,14,GR86-037-03,-33.800000000000004,-0.285,-1.253,2.51,2.0,,0.0,0.0,
2025-08-15T04:31:20.820Z,14,GR86-037-03,-35.4,-0.231,-1.243,2.52,2.0,6243.0,0.0,0.0,
2025-08-15T04:31:20.864Z,14,GR86-037-03,-51.6,-0.189,-1.272,2.51,2.0,,0.0,0.0,115.33
2025-08-15T04:31:20.906Z,14,GR86-037-03,-59.5,-0.206,-1.292,2.51,2.0,,0.0,0.0,
2025-08-15T04:31:20.949Z,14,GR86-037-03,-62.3,-0.186,-1.335,2.51,2.0,,0.0,0.0,
2025-08-15T04:31:20.992Z,14,GR86-037-03,-63.2,-0.216,-1.366,3.97,2.0,,0.0,0.0,
2025-08-15T04:31:21.035Z,14,GR86-037-03,-63.6,-0.193,-1.322,5.46,2.0,6002.0,0.0,0.0,
2025-08-15T04:31:21.078Z,14,GR86-037-03,-64.10000000000001,-0.198,-1.389,20.15,2.0,,0.0,0.0,111.77
2025-08-15T04:31:21.121Z,14,GR86-037-03,-64.2,-0.229,-1.359,29.01,2.0,,0.0,0.0,
2025-08-15T04:31:21.164Z,14,GR86-037-03,-64.2,-0.165,-1.404,36.83,2.0,,0.0,0.0,
2025-08-15T04:31:21.207Z,14,GR86-037-03,-64.2,-0.145,-1.417,53.26,2.0,,0.0,0.0,
2025-08-15T04:31:21.250Z,14,GR86-037-03,-64.60000000000001,-0.138,-1.378,57.8,2.0,6011.0,0.0,0.0,
2025-08-15T04:31:21.293Z,14,GR86-037-03,-65.4,-0.012,-1.375,56.55,2.0,,0.0,0.0,109.86
2025-08-15T04:31:21.336Z,14,GR86-037-03,-65.60000000000001,0.212,-1.295,53.94,2.0,,0.0,0.0,
2025-08-15T04:31:21.379Z,14,GR86-037-03,-65.60000000000001,0.192,-1.29,53.98,2.0,,0.0,0.0,
2025-08-15T04:31:21.423Z,14,GR86-037-03,-61.3,0.235,-1.232,54.21,2.0,,0.0,0.0,
2025-08-15T04:31:21.466Z,14,GR86-037-03,-50.5,0.235,-1.237,54.42,2.0,5921.0,0.0,0.0,
2025-08-15T04:31:21.509Z,14,GR86-037-03,-35.4,0.199,-1.225,55.02,2.0,,0.0,0.0,107.54
2025-08-15T04:31:21.552Z,14,GR86-037-03,-20.8,0.2,-1.216,55.2,2.0,,0.0,0.0,
2025-08-15T04:31:21.595Z,14,GR86-037-03,-7.7,0.215,-1.224,54.5,2.0,,0.0,0.0,
2025-08-15T04:31:21.638Z,14,GR86-037-03,6.0,0.213,-1.2,51.71,2.0,,0.0,0.0,
2025-08-15T04:31:21.681Z,14,GR86-037-03,18.5,0.242,-1.186,47.61,2.0,6425.0,0.0,0.0,
2025-08-15T04:31:21.724Z,14,GR86-037-03,31.4,0.251,-1.184,38.77,2.0,,0.0,0.0,105.96
2025-08-15T04:31:21.767Z,14,GR86-037-03,38.3,0.245,-1.114,36.79,2.0,,0.0,0.0,
2025-08-15T04:31:21.810Z,14,GR86-037-03,46.1,0.238,-1.113,33.64,2.0,,0.0,0.0,
2025-08-15T04:31:21.853Z,14,GR86-037-03,52.0,0.243,-1.088,33.13,2.0,,0.0,0.0,
2025-08-15T04:31:21.896Z,14,GR86-037-03,53.900000000000006,0.219,-1.06,33.02,2.0,6406.0,0.0,0.0,
2025-08-15T04:31:21.939Z,14,GR86-037-03,54.0,0.198,-1.078,32.89,2.0,,0.0,0.0,104.87
2025-08-15T04:31:21.983Z,14,GR86-037-03,54.0,0.192,-1.111,32.88,2.0,,0.0,0.0,
2025-08-15T04:31:22.025Z,14,GR86-037-03,52.7,0.204,-1.092,33.02,2.0,,0.0,0.0,
2025-08-15T04:31:22.068Z,14,GR86-037-03,44.400000000000006,0.181,-1.102,33.17,2.0,,0.0,0.0,
2025-08-15T04:31:22.111Z,14,GR86-037-03,36.9,0.205,-1.147,33.22,2.0,6494.0,0.0,0.0,
2025-08-15T04:31:22.154Z,14,GR86-037-03,36.6,0.166,-1.181,33.22,2.0,,0.0,0.0,107.17
2025-08-15T04:31:22.197Z,14,GR86-037-03,40.2,0.185,-1.195,33.24,2.0,,0.0,0.0,
2025-08-15T04:31:22.240Z,14,GR86-037-03,35.0,0.197,-1.184,33.480000000000004,2.0,,0.0,0.0,
2025-08-15T04:31:22.284Z,14,GR86-037-03,2.9000000000000004,0.196,-1.183,40.69,2.0,,0.0,0.0,
2025-08-15T04:31:22.327Z,14,GR86-037-03,-25.8,0.169,-1.22,73.29,2.0,6426.0,0.0,0.0,
2025-08-15T04:31:22.370Z,14,GR86-037-03,-51.7,0.165,-1.184,99.91,2.0,,0.0,0.0,106.86
2025-08-15T04:31:22.413Z,14,GR86-037-03,-68.4,0.143,-1.144,99.88,2.0,,0.0,0.0,
2025-08-15T04:31:22.456Z,14,GR86-037-03,-73.9,0.186,-1.108,99.9,2.0,,0.0,0.0,
2025-08-15T04:31:22.499Z,14,GR86-037-03,-73.9,0.204,-1.174,99.89,2.0,,0.0,0.0,
2025-08-15T04:31:22.544Z,14,GR86-037-03,-69.7,0.224,-1.174,99.89,2.0,6389.0,0.0,0.0,
2025-08-15T04:31:22.587Z,14,GR86-037-03,-64.10000000000001,0.242,-1.164,99.88,2.0,,0.0,0.0,107.03
2025-08-15T04:31:22.630Z,14,GR86-037-03,-59.0,0.246,-1.119,99.88,2.0,,0.0,0.0,
2025-08-15T04:31:22.673Z,14,GR86-037-03,-54.400000000000006,0.242,-1.132,99.9,2.0,,0.0,0.0,
2025-08-15T04:31:22.716Z,14,GR86-037-03,-46.7,0.242,-1.142,99.89,2.0,,0.0,0.0,
2025-08-15T04:31:22.759Z,14,GR86-037-03,-35.5,0.212,-1.207,99.88,2.0,6552.0,0.0,0.0,
2025-08-15T04:31:22.803Z,14,GR86-037-03,-25.0,0.231,-1.197,99.89,2.0,,0.0,0.0,106.37
2025-08-15T04:31:22.847Z,14,GR86-037-03,-28.200000000000003,0.26,-1.205,99.88,2.0,,0.0,0.0,
2025-08-15T04:31:22.890Z,14,GR86-037-03,-35.0,0.245,-1.25,99.9,2.0,,0.0,0.0,
2025-08-15T04:31:22.933Z,14,GR86-037-03,-39.1,0.237,-1.232,99.89,2.0,,0.0,0.0,
2025-08-15T04:31:22.976Z,14,GR86-037-03,-38.2,0.234,-1.248,99.88,2.0,6527.0,0.0,0.0,
2025-08-15T04:31:23.019Z,14,GR86-037-03,-33.5,0.233,-1.195,99.89,2.0,,0.0,0.0,107.8
2025-08-15T04:31:23.063Z,14,GR86-037-03,-26.0,0.23,-1.111,99.89,2.0,,0.0,0.0,
2025-08-15T04:31:23.106Z,14,GR86-037-03,-22.4,0.221,-1.082,99.9,2.0,,0.0,0.0,
2025-08-15T04:31:23.149Z,14,GR86-037-03,-18.8,0.198,-1.134,99.89,2.0,,0.0,0.0,
2025-08-15T04:31:23.193Z,14,GR86-037-03,-16.3,0.243,-1.081,99.88,2.0,6574.0,0.0,0.0,
2025-08-15T04:31:23.235Z,14,GR86-037-03,-16.6,0.245,-1.074,99.89,2.0,,0.0,0.0,110.27
2025-08-15T04:31:23.278Z,14,GR86-037-03,-20.5,0.242,-1.059,99.91,2.0,,0.0,0.0,
2025-08-15T04:31:23.323Z,14,GR86-037-03,-27.3,0.247,-1.146,99.89,2.0,,0.0,0.0,
2025-08-15T04:31:23.365Z,14,GR86-037-03,-27.8,0.235,-1.167,99.88,2.0,,0.0,0.0,
2025-08-15T04:31:23.408Z,14,GR86-037-03,-22.6,0.216,-1.133,99.89,2.0,6634.0,0.0,0.0,
2025-08-15T04:31:23.451Z,14,GR86-037-03,-13.0,0.248,-1.121,99.89,2.0,,0.0,0.0,111.57
2025-08-15T04:31:23.494Z,14,GR86-037-03,-3.4000000000000004,0.259,-1.078,99.89,2.0,,0.0,0.0,
2025-08-15T04:31:23.537Z,14,GR86-037-03,1.1,0.267,-1.031,99.9,2.0,,0.0,0.0,
2025-08-15T04:31:23.580Z,14,GR86-037-03,-1.0,0.273,-1.017,99.9,2.0,,0.0,0.0,
2025-08-15T04:31:23.624Z,14,GR86-037-03,-14.4,0.275,-1.049,99.89,2.0,6764.0,0.0,0.0,
2025-08-15T04:31:23.666Z,14,GR86-037-03,-25.8,0.251,-1.099,99.9,2.0,,0.0,0.0,112.05
2025-08-15T04:31:23.709Z,14,GR86-037-03,-35.300000000000004,0.258,-1.149,99.89,2.0,,0.0,0.0,
2025-08-15T04:31:23.752Z,14,GR86-037-03,-40.900000000000006,0.25,-1.15,99.89,2.0,,0.0,0.0,
2025-08-15T04:31:23.795Z,14,GR86-037-03,-41.900000000000006,0.233,-1.115,99.88,2.0,,0.0,0.0,
2025-08-15T04:31:23.838Z,14,GR86-037-03,-41.900000000000006,0.253,-1.08,99.89,2.0,6820.0,0.0,0.0,
2025-08-15T04:31:23.881Z,14,GR86-037-03,-41.900000000000006,0.209,-1.101,99.89,2.0,,0.0,0.0,114.31
2025-08-15T04:31:23.924Z,14,GR86-037-03,-41.900000000000006,0.214,-1.047,99.88,2.0,,0.0,0.0,
2025-08-15T04:31:23.967Z,14,GR86-037-03,-41.900000000000006,0.215,-1.061,99.89,2.0,,0.0,0.0,
2025-08-15T04:31:24.010Z,14,GR86-037-03,-41.8,0.186,-0.965,99.9,2.0,,0.0,0.0,
2025-08-15T04:31:24.053Z,14,GR86-037-03,-40.5,0.121,-0.895,99.89,2.0,6830.0,0.0,0.0,
2025-08-15T04:31:24.096Z,14,GR86-037-03,-36.8,0.151,-0.803,99.88,2.0,,0.0,0.0,115.09
2025-08-15T04:31:24.139Z,14,GR86-037-03,-31.3,0.146,-0.706,99.88,2.0,,0.0,0.0,
2025-08-15T04:31:24.184Z,14,GR86-037-03,-21.6,0.304,-0.62,99.89,2.0,,0.0,0.0,
2025-08-15T04:31:24.227Z,14,GR86-037-03,-16.1,0.263,-0.8310000000000001,99.9,2.0,,0.0,0.0,
2025-08-15T04:31:24.270Z,14,GR86-037-03,-13.6,0.273,-0.745,99.88,2.0,6897.0,0.0,0.0,
2025-08-15T04:31:24.313Z,14,GR86-037-03,-13.6,0.267,-0.896,99.89,2.0,,0.0,0.0,116.33
2025-08-15T04:31:24.356Z,14,GR86-037-03,-13.5,0.305,-0.799,99.9,2.0,,0.0,0.0,
2025-08-15T04:31:24.399Z,14,GR86-037-03,-13.5,0.243,-0.789,99.91,2.0,,0.0,0.0,
2025-08-15T04:31:24.444Z,14,GR86-037-03,-13.5,0.218,-0.796,99.91,2.0,,0.0,0.0,
2025-08-15T04:31:24.487Z,14,GR86-037-03,-14.2,0.261,-0.672,99.88,2.0,6978.0,0.0,0.0,
2025-08-15T04:31:24.530Z,14,GR86-037-03,-14.5,0.254,-0.677,99.89,2.0,,0.0,0.0,118.14
2025-08-15T04:31:24.573Z,14,GR86-037-03,-14.5,0.257,-0.5630000000000001,99.91,2.0,,0.0,0.0,
2025-08-15T04:31:24.616Z,14,GR86-037-03,-14.5,0.199,-0.62,99.91,2.0,,0.0,0.0,
2025-08-15T04:31:24.659Z,14,GR86-037-03,-14.4,0.223,-0.55,99.88,2.0,,0.0,0.0,
2025-08-15T04:31:24.703Z,14,GR86-037-03,-12.8,0.244,-0.433,99.91,2.0,7073.0,0.0,0.0,
2025-08-15T04:31:24.745Z,14,GR86-037-03,-12.6,0.191,-0.465,99.9,2.0,,0.0,0.0,121.48
2025-08-15T04:31:24.788Z,14,GR86-037-03,-12.6,0.239,-0.434,99.89,2.0,,0.0,0.0,
2025-08-15T04:31:24.831Z,14,GR86-037-03,-12.4,0.223,-0.398,99.9,2.0,,0.0,0.0,
2025-08-15T04:31:24.874Z,14,GR86-037-03,-12.4,0.256,-0.413,99.9,2.0,,0.0,0.0,
2025-08-15T04:31:24.917Z,14,GR86-037-03,-11.3,0.242,-0.438,99.91,2.0,7102.0,0.0,0.0,
2025-08-15T04:31:24.960Z,14,GR86-037-03,-8.6,0.28,-0.45,99.89,2.0,,0.0,0.0,123.21
2025-08-15T04:31:25.004Z,14,GR86-037-03,-4.1000000000000005,0.289,-0.314,99.9,2.0,,0.0,0.0,
2025-08-15T04:31:25.047Z,14,GR86-037-03,-3.1,-0.005,-0.281,99.91,3.0,,0.0,0.0,
2025-08-15T04:31:25.090Z,14,GR86-037-03,-2.5,0.13,-0.079,99.91,3.0,,0.0,0.0,
2025-08-15T04:31:25.133Z,14,GR86-037-03,-0.7000000000000001,0.478,-0.149,99.9,3.0,7200.0,0.0,0.0,
2025-08-15T04:31:25.176Z,14,GR86-037-03,0.2,0.449,-0.219,99.89,3.0,,0.0,0.0,124.95
2025-08-15T04:31:25.219Z,14,GR86-037-03,0.3,0.418,-0.056,99.91,3.0,,0.0,0.0,
2025-08-15T04:31:25.263Z,14,GR86-037-03,0.3,0.095,-0.028,99.91,3.0,,0.0,0.0,
2025-08-15T04:31:25.306Z,14,GR86-037-03,0.3,0.079,0.018,99.89,3.0,,0.0,0.0,
2025-08-15T04:31:25.349Z,14,GR86-037-03,1.0,0.201,-0.068,99.88,3.0,6473.0,0.0,0.0,
2025-08-15T04:31:25.392Z,14,GR86-037-03,2.3000000000000003,0.211,-0.014,99.88,3.0,,0.0,0.0,126.62
2025-08-15T04:31:25.435Z,14,GR86-037-03,2.7,0.272,-0.129,99.88,3.0,,0.0,0.0,
2025-08-15T04:31:25.478Z,14,GR86-037-03,2.7,0.161,0.03,99.88,3.0,,0.0,0.0,
2025-08-15T04:31:25.521Z,14,GR86-037-03,2.7,0.167,0.083,99.88,3.0,,0.0,0.0,
2025-08-15T04:31:25.564Z,14,GR86-037-03,3.5,0.243,0.034,99.89,3.0,6100.0,0.0,0.0,
2025-08-15T04:31:25.607Z,14,GR86-037-03,4.2,0.253,0.079,99.88,3.0,,0.0,0.0,128.27
2025-08-15T04:31:25.650Z,14,GR86-037-03,4.3,0.256,0.033,99.89,3.0,,0.0,0.0,
2025-08-15T04:31:25.693Z,14,GR86-037-03,4.3,0.185,0.103,99.89,3.0,,0.0,0.0,
2025-08-15T04:31:25.736Z,14,GR86-037-03,4.3,0.193,0.135,99.89,3.0,,0.0,0.0,
2025-08-15T04:31:25.779Z,14,GR86-037-03,4.3,0.212,0.105,99.9,3.0,6179.0,0.0,0.0,
2025-08-15T04:31:25.823Z,14,GR86-037-03,4.3,0.193,0.089,99.89,3.0,,0.0,0.0,130.22
2025-08-15T04:31:25.866Z,14,GR86-037-03,4.3,0.22,0.059,99.89,3.0,,0.0,0.0,
2025-08-15T04:31:25.909Z,14,GR86-037-03,4.3,0.212,0.097,99.9,3.0,,0.0,0.0,
2025-08-15T04:31:25.953Z,14,GR86-037-03,4.3,0.202,0.068,99.9,3.0,,0.0,0.0,
2025-08-15T04:31:25.997Z,14,GR86-037-03,4.3,0.205,0.073,99.88,3.0,6211.0,0.0,0.0,
2025-08-15T04:31:26.040Z,14,GR86-037-03,4.3,0.216,0.027,99.91,3.0,,0.0,0.0,131.7
2025-08-15T04:31:26.083Z,14,GR86-037-03,4.3,0.209,0.06,99.89,3.0,,0.0,0.0,
2025-08-15T04:31:26.126Z,14,GR86-037-03,4.3,0.22,0.045,99.89,3.0,,0.0,0.0,
2025-08-15T04:31:26.169Z,14,GR86-037-03,4.3,0.202,0.068,99.9,3.0,,0.0,0.0,
2025-08-15T04:31:26.213Z,14,GR86-037-03,4.3,0.216,0.051,99.9,3.0,6271.0,0.0,0.0,
2025-08-15T04:31:26.256Z,14,GR86-037-03,4.3,0.212,0.028,99.91,3.0,,0.0,0.0,133.3
2025-08-15T04:31:26.299Z,14,GR86-037-03,4.3,0.223,0.028,99.91,3.0,,0.0,0.0,
2025-08-15T04:31:26.344Z,14,GR86-037-03,4.3,0.211,0.016,99.89,3.0,,0.0,0.0,
2025-08-15T04:31:26.387Z,14,GR86-037-03,4.3,0.21,0.009,99.91,3.0,,0.0,0.0,
2025-08-15T04:31:26.430Z,14,GR86-037-03,4.3,0.207,0.027,99.9,3.0,6322.0,0.0,0.0,
2025-08-15T04:31:26.473Z,14,GR86-037-03,4.3,0.188,0.012,99.9,3.0,,0.0,0.0,134.69
2025-08-15T04:31:26.516Z,14,GR86-037-03,4.2,0.232,0.003,99.9,3.0,,0.0,0.0,
2025-08-15T04:31:26.559Z,14,GR86-037-03,4.2,0.209,0.028,99.91,3.0,,0.0,0.0,
2025-08-15T04:31:26.603Z,14,GR86-037-03,4.2,0.208,-0.003,99.88,3.0,,0.0,0.0,
2025-08-15T04:31:26.645Z,14,GR86-037-03,4.2,0.227,0.0,99.92,3.0,6399.0,0.0,0.0,
2025-08-15T04:31:26.688Z,14,GR86-037-03,4.2,0.202,0.008,99.9,3.0,,0.0,0.0,136.22
2025-08-15T04:31:26.731Z,14,GR86-037-03,4.2,0.21,-0.014,99.88,3.0,,0.0,0.0,
2025-08-15T04:31:26.774Z,14,GR86-037-03,4.1000000000000005,0.203,-0.021,99.91,3.0,,0.0,0.0,
2025-08-15T04:31:26.817Z,14,GR86-037-03,3.9,0.206,0.014,99.9,3.0,,0.0,0.0,
2025-08-15T04:31:26.860Z,14,GR86-037-03,3.8,0.203,0.02,99.91,3.0,6452.0,0.0,0.0,
2025-08-15T04:31:26.904Z,14,GR86-037-03,3.7,0.209,-0.002,99.9,3.0,,0.0,0.0,137.75
2025-08-15T04:31:26.947Z,14,GR86-037-03,3.7,0.193,0.008,99.91,3.0,,0.0,0.0,
2025-08-15T04:31:26.990Z,14,GR86-037-03,3.7,0.195,0.012,99.91,3.0,,0.0,0.0,
2025-08-15T04:31:27.034Z,14,GR86-037-03,3.7,0.213,-0.016,99.88,3.0,,0.0,0.0,
2025-08-15T04:31:27.077Z,14,GR86-037-03,3.7,0.213,0.008,99.9,3.0,6523.0,0.0,0.0,
2025-08-15T04:31:27.120Z,14,GR86-037-03,3.0,0.215,-0.001,99.9,3.0,,0.0,0.0,139.19
2025-08-15T04:31:27.164Z,14,GR86-037-03,1.7000000000000002,0.217,-0.036,99.91,3.0,,0.0,0.0,
2025-08-15T04:31:27.206Z,14,GR86-037-03,1.4,0.209,-0.016,99.89,3.0,,0.0,0.0,
2025-08-15T04:31:27.249Z,14,GR86-037-03,1.4,0.193,-0.028,99.88,3.0,,0.0,0.0,
2025-08-15T04:31:27.292Z,14,GR86-037-03,1.4,0.189,-0.06,99.89,3.0,6597.0,0.0,0.0,
2025-08-15T04:31:27.335Z,14,GR86-037-03,1.4,0.207,-0.068,99.9,3.0,,0.0,0.0,140.55
2025-08-15T04:31:27.378Z,14,GR86-037-03,1.4,0.203,-0.045,99.89,3.0,,0.0,0.0,
2025-08-15T04:31:27.421Z,14,GR86-037-03,1.4,0.203,-0.047,99.9,3.0,,0.0,0.0,
2025-08-15T04:31:27.464Z,14,GR86-037-03,1.4,0.217,-0.073,99.92,3.0,,0.0,0.0,
2025-08-15T04:31:27.507Z,14,GR86-037-03,1.4,0.181,-0.053,99.9,3.0,6661.0,0.0,0.0,
2025-08-15T04:31:27.550Z,14,GR86-037-03,1.4,0.181,-0.06,99.88,3.0,,0.0,0.0,143.42000000000002
2025-08-15T04:31:27.593Z,14,GR86-037-03,1.4,0.2,-0.087,99.9,3.0,,0.0,0.0,
2025-08-15T04:31:27.636Z,14,GR86-037-03,1.4,0.202,-0.086,99.91,3.0,,0.0,0.0,
2025-08-15T04:31:27.679Z,14,GR86-037-03,1.4,0.2,-0.054,99.89,3.0,,0.0,0.0,
2025-08-15T04:31:27.723Z,14,GR86-037-03,1.4,0.215,-0.086,99.91,3.0,6722.0,0.0,0.0,
2025-08-15T04:31:27.766Z,14,GR86-037-03,1.4,0.206,-0.064,99.91,3.0,,0.0,0.0,144.78
2025-08-15T04:31:27.809Z,14,GR86-037-03,1.4,0.186,-0.059,99.89,3.0,,0.0,0.0,
2025-08-15T04:31:27.852Z,14,GR86-037-03,1.6,0.169,-0.049,99.88,3.0,,0.0,0.0,
2025-08-15T04:31:27.895Z,14,GR86-037-03,2.5,0.201,-0.058,99.89,3.0,,0.0,0.0,
2025-08-15T04:31:27.938Z,14,GR86-037-03,3.7,0.221,-0.059,99.91,3.0,6790.0,0.0,0.0,
2025-08-15T04:31:27.981Z,14,GR86-037-03,4.4,0.201,-0.053,99.9,3.0,,0.0,0.0,146.1
2025-08-15T04:31:28.024Z,14,GR86-037-03,4.4,0.206,-0.027,99.91,3.0,,0.0,0.0,
2025-08-15T04:31:28.067Z,14,GR86-037-03,4.4,0.206,-0.024,99.9,3.0,,0.0,0.0,
2025-08-15T04:31:28.110Z,14,GR86-037-03,4.4,0.199,-0.011,99.89,3.0,,0.0,0.0,
2025-08-15T04:31:28.153Z,14,GR86-037-03,3.8,0.187,-0.004,99.9,3.0,6904.0,0.0,0.0,
2025-08-15T04:31:28.196Z,14,GR86-037-03,2.9000000000000004,0.175,-0.016,99.9,3.0,,0.0,0.0,147.42000000000002
2025-08-15T04:31:28.239Z,14,GR86-037-03,2.7,0.187,-0.009,99.89,3.0,,0.0,0.0,
2025-08-15T04:31:28.283Z,14,GR86-037-03,2.7,0.173,0.007,99.9,3.0,,0.0,0.0,
2025-08-15T04:31:28.326Z,14,GR86-037-03,2.7,0.184,0.005,99.9,3.0,,0.0,0.0,
2025-08-15T04:31:28.369Z,14,GR86-037-03,2.7,0.188,-0.008,99.91,3.0,6964.0,0.0,0.0,
2025-08-15T04:31:28.412Z,14,GR86-037-03,2.7,0.201,0.002,99.9,3.0,,0.0,0.0,148.74
2025-08-15T04:31:28.455Z,14,GR86-037-03,2.6,0.182,-0.02,99.9,3.0,,0.0,0.0,
2025-08-15T04:31:28.498Z,14,GR86-037-03,1.7000000000000002,0.174,-0.017,99.88,3.0,,0.0,0.0,
2025-08-15T04:31:28.541Z,14,GR86-037-03,0.7000000000000001,0.181,-0.043,99.9,3.0,,0.0,0.0,
2025-08-15T04:31:28.584Z,14,GR86-037-03,0.6000000000000001,0.191,-0.047,99.88,3.0,7030.0,0.0,0.0,
2025-08-15T04:31:28.627Z,14,GR86-037-03,0.2,0.175,-0.048,99.91,3.0,,0.0,0.0,150.02
2025-08-15T04:31:28.670Z,14,GR86-037-03,-0.6000000000000001,0.177,-0.065,99.9,3.0,,0.0,0.0,
2025-08-15T04:31:28.713Z,14,GR86-037-03,-0.8,0.192,-0.082,99.88,3.0,,0.0,0.0,
2025-08-15T04:31:28.756Z,14,GR86-037-03,-0.8,0.189,-0.097,99.89,3.0,,0.0,0.0,
2025-08-15T04:31:28.799Z,14,GR86-037-03,-0.8,0.184,-0.11,99.9,3.0,7077.0,0.0,0.0,
2025-08-15T04:31:28.844Z,14,GR86-037-03,-0.5,0.194,-0.121,99.89,3.0,,0.0,0.0,151.24
2025-08-15T04:31:28.887Z,14,GR86-037-03,-0.4,0.182,-0.135,99.89,3.0,,0.0,0.0,
2025-08-15T04:31:28.930Z,14,GR86-037-03,-0.3,0.168,-0.146,99.9,3.0,,0.0,0.0,
2025-08-15T04:31:28.973Z,14,GR86-037-03,-0.3,0.178,-0.146,99.9,3.0,,0.0,0.0,
2025-08-15T04:31:29.016Z,14,GR86-037-03,-0.1,0.167,-0.139,99.88,3.0,7141.0,0.0,0.0,
2025-08-15T04:31:29.059Z,14,GR86-037-03,0.7000000000000001,0.181,-0.142,99.89,3.0,,0.0,0.0,152.4
2025-08-15T04:31:29.103Z,14,GR86-037-03,1.9,0.173,-0.133,99.89,3.0,,0.0,0.0,
2025-08-15T04:31:29.147Z,14,GR86-037-03,1.9,0.16,-0.128,99.9,3.0,,0.0,0.0,
2025-08-15T04:31:29.190Z,14,GR86-037-03,1.9,0.164,-0.13,99.88,3.0,,0.0,0.0,
2025-08-15T04:31:29.233Z,14,GR86-037-03,1.9,-0.106,-0.107,99.88,4.0,7191.0,0.0,0.0,
2025-08-15T04:31:29.276Z,14,GR86-037-03,1.9,0.291,-0.053,99.91,4.0,,0.0,0.0,153.68
2025-08-15T04:31:29.319Z,14,GR86-037-03,1.9,0.264,-0.127,99.91,4.0,,0.0,0.0,
2025-08-15T04:31:29.363Z,14,GR86-037-03,1.9,0.281,-0.001,99.89,4.0,,0.0,0.0,
2025-08-15T04:31:29.406Z,14,GR86-037-03,1.9,0.157,-0.073,99.89,4.0,,0.0,0.0,
2025-08-15T04:31:29.449Z,14,GR86-037-03,1.9,0.075,-0.094,99.9,4.0,7250.0,0.0,0.0,
2025-08-15T04:31:29.493Z,14,GR86-037-03,1.9,0.149,-0.014,99.9,4.0,,0.0,0.0,154.87
2025-08-15T04:31:29.535Z,14,GR86-037-03,1.9,0.183,-0.064,99.9,4.0,,0.0,0.0,
2025-08-15T04:31:29.578Z,14,GR86-037-03,1.9,0.166,-0.048,99.89,4.0,,0.0,0.0,
2025-08-15T04:31:29.623Z,14,GR86-037-03,1.9,0.121,-0.05,99.9,4.0,,0.0,0.0,
2025-08-15T04:31:29.666Z,14,GR86-037-03,1.9,0.144,-0.042,99.9,4.0,6353.0,0.0,0.0,
2025-08-15T04:31:29.709Z,14,GR86-037-03,1.9,0.167,-0.061,99.91,4.0,,0.0,0.0,155.88
2025-08-15T04:31:29.752Z,14,GR86-037-03,1.9,0.155,-0.034,99.91,4.0,,0.0,0.0,
2025-08-15T04:31:29.795Z,14,GR86-037-03,1.9,0.144,-0.047,99.91,4.0,,0.0,0.0,
2025-08-15T04:31:29.838Z,14,GR86-037-03,1.9,0.15,-0.03,99.92,4.0,,0.0,0.0,
2025-08-15T04:31:29.881Z,14,GR86-037-03,1.9,0.157,-0.029,99.9,4.0,6206.0,0.0,0.0,
2025-08-15T04:31:29.924Z,14,GR86-037-03,1.9,0.154,-0.076,99.91,4.0,,0.0,0.0,157.14
2025-08-15T04:31:29.967Z,14,GR86-037-03,1.9,0.166,-0.06,99.89,4.0,,0.0,0.0,
2025-08-15T04:31:30.010Z,14,GR86-037-03,1.9,0.131,-0.036,99.92,4.0,,0.0,0.0,
2025-08-15T04:31:30.053Z,14,GR86-037-03,1.9,0.158,-0.047,99.88,4.0,,0.0,0.0,
2025-08-15T04:31:30.096Z,14,GR86-037-03,1.9,0.136,-0.034,99.88,4.0,6226.0,0.0,0.0,
2025-08-15T04:31:30.139Z,14,GR86-037-03,1.9,0.141,-0.047,99.91,4.0,,0.0,0.0,158.29
2025-08-15T04:31:30.184Z,14,GR86-037-03,1.9,0.148,-0.043,99.91,4.0,,0.0,0.0,
2025-08-15T04:31:30.227Z,14,GR86-037-03,1.9,0.137,-0.041,99.91,4.0,,0.0,0.0,
2025-08-15T04:31:30.270Z,14,GR86-037-03,1.9,0.135,-0.02,99.91,4.0,,0.0,0.0,
2025-08-15T04:31:30.313Z,14,GR86-037-03,1.9,0.136,-0.02,99.88,4.0,6267.0,0.0,0.0,
2025-08-15T04:31:30.356Z,14,GR86-037-03,1.9,0.143,-0.021,99.91,4.0,,0.0,0.0,160.35
2025-08-15T04:31:30.399Z,14,GR86-037-03,1.9,0.143,-0.039,99.9,4.0,,0.0,0.0,
2025-08-15T04:31:30.444Z,14,GR86-037-03,1.9,0.137,-0.041,99.9,4.0,,0.0,0.0,
2025-08-15T04:31:30.487Z,14,GR86-037-03,1.9,0.112,-0.042,99.9,4.0,,0.0,0.0,
2025-08-15T04:31:30.530Z,14,GR86-037-03,1.9,0.137,-0.048,99.9,4.0,6309.0,0.0,0.0,
2025-08-15T04:31:30.573Z,14,GR86-037-03,1.9,0.134,-0.049,99.89,4.0,,0.0,0.0,161.28
2025-08-15T04:31:30.616Z,14,GR86-037-03,1.9,0.137,-0.068,99.91,4.0,,0.0,0.0,
2025-08-15T04:31:30.659Z,14,GR86-037-03,1.9,0.16,-0.058,99.89,4.0,,0.0,0.0,
2025-08-15T04:31:30.703Z,14,GR86-037-03,1.9,0.132,-0.053,99.88,4.0,,0.0,0.0,
2025-08-15T04:31:30.747Z,14,GR86-037-03,0.6000000000000001,0.117,-0.073,99.9,4.0,6384.0,0.0,0.0,
2025-08-15T04:31:30.790Z,14,GR86-037-03,-1.0,0.155,-0.084,99.9,4.0,,0.0,0.0,162.25
2025-08-15T04:31:30.833Z,14,GR86-037-03,-1.8,0.159,-0.096,99.92,4.0,,0.0,0.0,
2025-08-15T04:31:30.876Z,14,GR86-037-03,-1.8,0.157,-0.108,99.91,4.0,,0.0,0.0,
2025-08-15T04:31:30.919Z,14,GR86-037-03,-1.8,0.137,-0.121,99.91,4.0,,0.0,0.0,
2025-08-15T04:31:30.963Z,14,GR86-037-03,-1.8,0.132,-0.169,99.89,4.0,6420.0,0.0,0.0,
2025-08-15T04:31:31.005Z,14,GR86-037-03,-1.8,0.151,-0.193,99.89,4.0,,0.0,0.0,163.16
2025-08-15T04:31:31.048Z,14,GR86-037-03,-1.8,0.136,-0.201,99.9,4.0,,0.0,0.0,
2025-08-15T04:31:31.093Z,14,GR86-037-03,-1.8,0.153,-0.213,99.91,4.0,,0.0,0.0,
2025-08-15T04:31:31.135Z,14,GR86-037-03,-1.8,0.146,-0.216,99.91,4.0,,0.0,0.0,
2025-08-15T04:31:31.179Z,14,GR86-037-03,-1.8,0.138,-0.211,99.88,4.0,6463.0,0.0,0.0,
2025-08-15T04:31:31.223Z,14,GR86-037-03,-1.8,0.131,-0.253,99.89,4.0,,0.0,0.0,164.17000000000002
2025-08-15T04:31:31.266Z,14,GR86-037-03,-1.8,0.148,-0.244,99.89,4.0,,0.0,0.0,
2025-08-15T04:31:31.309Z,14,GR86-037-03,-1.8,0.157,-0.241,99.91,4.0,,0.0,0.0,
2025-08-15T04:31:31.353Z,14,GR86-037-03,-1.8,0.16,-0.224,99.92,4.0,,0.0,0.0,
2025-08-15T04:31:31.440Z,14,GR86-037-03,-1.4,0.136,-0.199,99.91,4.0,6501.0,0.0,0.0,165.12
2025-08-15T04:31:31.484Z,14,GR86-037-03,-0.9,0.155,-0.201,99.89,4.0,,0.0,0.0,
2025-08-15T04:31:31.527Z,14,GR86-037-03,-0.9,0.158,-0.205,99.91,4.0,,0.0,0.0,
2025-08-15T04:31:31.614Z,14,GR86-037-03,-0.9,0.145,-0.172,99.91,4.0,6540.0,0.0,0.0,
2025-08-15T04:31:31.657Z,14,GR86-037-03,-0.9,0.145,-0.167,99.89,4.0,,0.0,0.0,166.13
2025-08-15T04:31:31.700Z,14,GR86-037-03,-0.9,0.134,-0.161,99.89,4.0,,0.0,0.0,
2025-08-15T04:31:31.744Z,14,GR86-037-03,-0.9,0.138,-0.154,99.91,4.0,,0.0,0.0,
2025-08-15T04:31:31.787Z,14,GR86-037-03,-0.9,0.152,-0.144,99.89,4.0,,0.0,0.0,
2025-08-15T04:31:31.830Z,14,GR86-037-03,-0.9,0.158,-0.149,99.89,4.0,6576.0,0.0,0.0,
2025-08-15T04:31:31.873Z,14,GR86-037-03,-0.9,0.147,-0.139,99.91,4.0,,0.0,0.0,167.06
2025-08-15T04:31:31.916Z,14,GR86-037-03,-0.9,0.153,-0.147,99.91,4.0,,0.0,0.0,
2025-08-15T04:31:31.959Z,14,GR86-037-03,-0.9,0.153,-0.147,99.9,4.0,,0.0,0.0,
2025-08-15T04:31:32.002Z,14,GR86-037-03,-0.9,0.149,-0.161,99.88,4.0,,0.0,0.0,
2025-08-15T04:31:32.045Z,14,GR86-037-03,-0.9,0.142,-0.166,99.9,4.0,6618.0,0.0,0.0,
2025-08-15T04:31:32.088Z,14,GR86-037-03,-0.9,0.158,-0.161,99.9,4.0,,0.0,0.0,168.18
2025-08-15T04:31:32.131Z,14,GR86-037-03,-0.9,0.153,-0.153,99.89,4.0,,0.0,0.0,
2025-08-15T04:31:32.174Z,14,GR86-037-03,-0.9,0.161,-0.154,99.91,4.0,,0.0,0.0,
2025-08-15T04:31:32.217Z,14,GR86-037-03,-0.9,0.14,-0.164,99.9,4.0,,0.0,0.0,
2025-08-15T04:31:32.260Z,14,GR86-037-03,-0.9,0.15,-0.153,99.91,4.0,6654.0,0.0,0.0,
2025-08-15T04:31:32.304Z,14,GR86-037-03,-0.9,0.133,-0.139,99.88,4.0,,0.0,0.0,169.24
2025-08-15T04:31:32.347Z,14,GR86-037-03,-0.9,0.146,-0.153,99.88,4.0,,0.0,0.0,
2025-08-15T04:31:32.390Z,14,GR86-037-03,-0.9,0.157,-0.148,99.89,4.0,,0.0,0.0,
2025-08-15T04:31:32.434Z,14,GR86-037-03,-0.9,0.163,-0.156,99.9,4.0,,0.0,0.0,
2025-08-15T04:31:32.477Z,14,GR86-037-03,-0.9,0.149,-0.179,99.88,4.0,6698.0,0.0,0.0,
2025-08-15T04:31:32.520Z,14,GR86-037-03,-0.9,0.153,-0.188,99.9,4.0,,0.0,0.0,170.34
2025-08-15T04:31:32.564Z,14,GR86-037-03,-0.9,0.126,-0.186,99.9,4.0,,0.0,0.0,
2025-08-15T04:31:32.607Z,14,GR86-037-03,-0.9,0.14,-0.17,99.88,4.0,,0.0,0.0,
2025-08-15T04:31:32.650Z,14,GR86-037-03,-0.9,0.135,-0.167,99.89,4.0,,0.0,0.0,
2025-08-15T04:31:32.693Z,14,GR86-037-03,-0.9,0.153,-0.164,99.89,4.0,6752.0,0.0,0.0,
2025-08-15T04:31:32.736Z,14,GR86-037-03,-0.9,0.149,-0.187,99.9,4.0,,0.0,0.0,171.35
2025-08-15T04:31:32.779Z,14,GR86-037-03,-0.9,0.15,-0.172,99.89,4.0,,0.0,0.0,
2025-08-15T04:31:32.823Z,14,GR86-037-03,-0.9,0.137,-0.159,99.89,4.0,,0.0,0.0,
2025-08-15T04:31:32.866Z,14,GR86-037-03,-0.9,0.119,-0.147,99.89,4.0,,0.0,0.0,
2025-08-15T04:31:32.909Z,14,GR86-037-03,-0.9,0.141,-0.124,99.89,4.0,6784.0,0.0,0.0,
2025-08-15T04:31:32.952Z,14,GR86-037-03,-0.9,0.108,-0.147,99.89,4.0,,0.0,0.0,173.62
2025-08-15T04:31:32.995Z,14,GR86-037-03,-0.9,0.147,-0.129,99.91,4.0,,0.0,0.0,
2025-08-15T04:31:33.038Z,14,GR86-037-03,-0.9,0.114,-0.141,99.89,4.0,,0.0,0.0,
2025-08-15T04:31:33.081Z,14,GR86-037-03,-0.9,0.141,-0.165,99.87,4.0,,0.0,0.0,
2025-08-15T04:31:33.124Z,14,GR86-037-03,-0.9,0.156,-0.181,99.91,4.0,6820.0,0.0,0.0,
2025-08-15T04:31:33.167Z,14,GR86-037-03,-0.9,0.133,-0.158,99.9,4.0,,0.0,0.0,174.66
2025-08-15T04:31:33.210Z,14,GR86-037-03,-0.9,0.149,-0.143,99.9,4.0,,0.0,0.0,
2025-08-15T04:31:33.253Z,14,GR86-037-03,-0.9,0.129,-0.16,99.9,4.0,,0.0,0.0,
2025-08-15T04:31:33.296Z,14,GR86-037-03,-0.9,0.11,-0.172,99.88,4.0,,0.0,0.0,
2025-08-15T04:31:33.339Z,14,GR86-037-03,-0.9,0.146,-0.157,99.88,4.0,6874.0,0.0,0.0,
2025-08-15T04:31:33.383Z,14,GR86-037-03,-0.9,0.145,-0.137,99.9,4.0,,0.0,0.0,175.69
2025-08-15T04:31:33.425Z,14,GR86-037-03,-0.9,0.139,-0.165,99.9,4.0,,0.0,0.0,
2025-08-15T04:31:33.468Z,14,GR86-037-03,-0.9,0.157,-0.155,99.89,4.0,,0.0,0.0,
2025-08-15T04:31:33.511Z,14,GR86-037-03,-0.9,0.106,-0.174,99.9,4.0,,0.0,0.0,
2025-08-15T04:31:33.554Z,14,GR86-037-03,-0.9,0.155,-0.192,99.91,4.0,6955.0,0.0,0.0,
2025-08-15T04:31:33.597Z,14,GR86-037-03,-0.9,0.134,-0.173,99.91,4.0,,0.0,0.0,176.72
2025-08-15T04:31:33.640Z,14,GR86-037-03,-0.9,0.144,-0.179,99.9,4.0,,0.0,0.0,
2025-08-15T04:31:33.684Z,14,GR86-037-03,-0.9,0.13,-0.153,99.88,4.0,,0.0,0.0,
2025-08-15T04:31:33.726Z,14,GR86-037-03,-0.9,0.08,-0.154,99.9,4.0,,0.0,0.0,
2025-08-15T04:31:33.769Z,14,GR86-037-03,-0.9,0.124,-0.16,99.89,4.0,6985.0,0.0,0.0,
2025-08-15T04:31:33.812Z,14,GR86-037-03,-0.9,0.109,-0.15,99.9,4.0,,0.0,0.0,177.9
2025-08-15T04:31:33.855Z,14,GR86-037-03,-0.9,0.117,-0.164,99.9,4.0,,0.0,0.0,
2025-08-15T04:31:33.898Z,14,GR86-037-03,-0.9,0.126,-0.167,99.88,4.0,,0.0,0.0,
2025-08-15T04:31:33.941Z,14,GR86-037-03,-0.9,0.102,-0.179,99.9,4.0,,0.0,0.0,
2025-08-15T04:31:33.984Z,14,GR86-037-03,-0.9,0.13,-0.198,99.89,4.0,7035.0,0.0,0.0,
2025-08-15T04:31:34.027Z,14,GR86-037-03,-0.9,0.127,-0.184,99.89,4.0,,0.0,0.0,178.88
2025-08-15T04:31:34.070Z,14,GR86-037-03,-0.9,0.127,-0.163,99.9,4.0,,0.0,0.0,
2025-08-15T04:31:34.113Z,14,GR86-037-03,-0.9,0.137,-0.174,99.88,4.0,,0.0,0.0,
2025-08-15T04:31:34.156Z,14,GR86-037-03,-0.9,0.107,-0.158,99.9,4.0,,0.0,0.0,
2025-08-15T04:31:34.199Z,14,GR86-037-03,-0.9,0.131,-0.145,99.9,4.0,7060.0,0.0,0.0,
2025-08-15T04:31:34.244Z,14,GR86-037-03,-0.9,0.126,-0.139,99.89,4.0,,0.0,0.0,179.82
2025-08-15T04:31:34.287Z,14,GR86-037-03,-0.9,0.114,-0.149,99.89,4.0,,0.0,0.0,
2025-08-15T04:31:34.330Z,14,GR86-037-03,-0.9,0.103,-0.141,99.9,4.0,,0.0,0.0,
2025-08-15T04:31:34.373Z,14,GR86-037-03,-0.9,0.109,-0.165,99.9,4.0,,0.0,0.0,
2025-08-15T04:31:34.416Z,14,GR86-037-03,-0.9,0.116,-0.171,99.91,4.0,7114.0,0.0,0.0,
2025-08-15T04:31:34.459Z,14,GR86-037-03,-0.9,0.129,-0.159,99.89,4.0,,0.0,0.0,180.79
2025-08-15T04:31:34.503Z,14,GR86-037-03,-0.9,0.119,-0.128,99.91,4.0,,0.0,0.0,
2025-08-15T04:31:34.547Z,14,GR86-037-03,-0.9,0.11,-0.12,99.91,4.0,,0.0,0.0,
2025-08-15T04:31:34.590Z,14,GR86-037-03,-0.9,0.113,-0.128,99.9,4.0,,0.0,0.0,
2025-08-15T04:31:34.633Z,14,GR86-037-03,-0.9,0.109,-0.119,99.89,4.0,7136.0,0.0,0.0,
2025-08-15T04:31:34.676Z,14,GR86-037-03,-1.2000000000000002,0.11,-0.121,99.9,4.0,,0.0,0.0,181.73
2025-08-15T04:31:34.719Z,14,GR86-037-03,-1.3,0.122,-0.11,99.91,4.0,,0.0,0.0,
2025-08-15T04:31:34.763Z,14,GR86-037-03,-1.4,0.113,-0.151,99.89,4.0,,0.0,0.0,
2025-08-15T04:31:34.806Z,14,GR86-037-03,-1.4,0.11,-0.172,99.91,4.0,,0.0,0.0,
2025-08-15T04:31:34.849Z,14,GR86-037-03,-1.4,0.12,-0.179,99.89,4.0,7174.0,0.0,0.0,
2025-08-15T04:31:34.893Z,14,GR86-037-03,-1.5,0.095,-0.179,99.9,4.0,,0.0,0.0,182.68
2025-08-15T04:31:34.935Z,14,GR86-037-03,-1.5,0.109,-0.183,99.9,4.0,,0.0,0.0,
2025-08-15T04:31:34.978Z,14,GR86-037-03,-1.5,0.109,-0.195,99.89,4.0,,0.0,0.0,
2025-08-15T04:31:35.023Z,14,GR86-037-03,-1.5,0.118,-0.173,99.91,4.0,,0.0,0.0,
2025-08-15T04:31:35.065Z,14,GR86-037-03,-1.5,0.113,-0.166,99.89,4.0,7213.0,0.0,0.0,
2025-08-15T04:31:35.108Z,14,GR86-037-03,-1.5,0.123,-0.187,99.9,4.0,,0.0,0.0,183.47
2025-08-15T04:31:35.151Z,14,GR86-037-03,-1.5,-0.05,-0.201,99.89,5.0,,0.0,0.0,
2025-08-15T04:31:35.194Z,14,GR86-037-03,-1.5,-0.055,-0.168,99.91,5.0,,0.0,0.0,
2025-08-15T04:31:35.237Z,14,GR86-037-03,-1.5,0.263,-0.192,99.92,5.0,,0.0,0.0,
2025-08-15T04:31:35.280Z,14,GR86-037-03,-1.5,0.227,-0.281,99.89,5.0,7238.0,0.0,0.0,
2025-08-15T04:31:35.324Z,14,GR86-037-03,-1.5,0.089,-0.18,99.9,5.0,,0.0,0.0,184.49
2025-08-15T04:31:35.366Z,14,GR86-037-03,-1.5,0.003,-0.299,99.88,5.0,,0.0,0.0,
2025-08-15T04:31:35.409Z,14,GR86-037-03,-1.5,0.113,-0.223,99.89,5.0,,0.0,0.0,
2025-08-15T04:31:35.452Z,14,GR86-037-03,-1.2000000000000002,0.123,-0.223,99.89,5.0,,0.0,0.0,
2025-08-15T04:31:35.495Z,14,GR86-037-03,-1.2000000000000002,0.073,-0.232,99.9,5.0,7083.0,0.0,0.0,
2025-08-15T04:31:35.538Z,14,GR86-037-03,-1.2000000000000002,0.065,-0.162,99.89,5.0,,0.0,0.0,185.38
2025-08-15T04:31:35.581Z,14,GR86-037-03,-0.8,0.1,-0.177,99.9,5.0,,0.0,0.0,
2025-08-15T04:31:35.624Z,14,GR86-037-03,1.8,0.098,-0.193,99.91,5.0,,0.0,0.0,
2025-08-15T04:31:35.667Z,14,GR86-037-03,2.4000000000000004,0.085,-0.168,99.89,5.0,,0.0,0.0,
2025-08-15T04:31:35.710Z,14,GR86-037-03,2.4000000000000004,0.094,-0.142,99.89,5.0,6269.0,0.0,0.0,
2025-08-15T04:31:35.753Z,14,GR86-037-03,2.4000000000000004,0.106,-0.128,99.9,5.0,,0.0,0.0,186.98
2025-08-15T04:31:35.796Z,14,GR86-037-03,2.4000000000000004,0.081,-0.111,99.9,5.0,,0.0,0.0,
2025-08-15T04:31:35.839Z,14,GR86-037-03,2.4000000000000004,0.096,-0.083,99.88,5.0,,0.0,0.0,
2025-08-15T04:31:35.884Z,14,GR86-037-03,1.3,0.101,-0.068,99.92,5.0,,0.0,0.0,
2025-08-15T04:31:35.927Z,14,GR86-037-03,0.9,0.11,-0.065,99.89,5.0,6369.0,0.0,0.0,
2025-08-15T04:31:36.013Z,14,GR86-037-03,0.9,0.11,-0.032,99.9,5.0,,0.0,0.0,187.7
2025-08-15T04:31:36.056Z,14,GR86-037-03,0.9,0.108,-0.028,99.89,5.0,,0.0,0.0,
2025-08-15T04:31:36.099Z,14,GR86-037-03,0.9,0.125,-0.045,99.89,5.0,,0.0,0.0,
2025-08-15T04:31:36.144Z,14,GR86-037-03,0.9,0.097,-0.051,99.9,5.0,6413.0,0.0,0.0,
2025-08-15T04:31:36.187Z,14,GR86-037-03,0.9,0.086,-0.092,99.9,5.0,,0.0,0.0,188.47
2025-08-15T04:31:36.230Z,14,GR86-037-03,0.9,0.075,-0.095,99.89,5.0,,0.0,0.0,
2025-08-15T04:31:36.273Z,14,GR86-037-03,0.9,0.113,-0.066,99.89,5.0,,0.0,0.0,
2025-08-15T04:31:36.316Z,14,GR86-037-03,0.9,0.088,-0.073,99.89,5.0,,0.0,0.0,
2025-08-15T04:31:36.359Z,14,GR86-037-03,0.9,0.115,-0.086,99.9,5.0,6442.0,0.0,0.0,
2025-08-15T04:31:36.403Z,14,GR86-037-03,0.9,0.098,-0.084,99.9,5.0,,0.0,0.0,189.31
2025-08-15T04:31:36.445Z,14,GR86-037-03,0.9,0.073,-0.107,99.89,5.0,,0.0,0.0,
2025-08-15T04:31:36.488Z,14,GR86-037-03,0.9,0.099,-0.081,99.9,5.0,,0.0,0.0,
2025-08-15T04:31:36.531Z,14,GR86-037-03,0.9,0.063,-0.053,99.9,5.0,,0.0,0.0,
2025-08-15T04:31:36.574Z,14,GR86-037-03,0.9,0.102,-0.075,99.89,5.0,6467.0,0.0,0.0,
2025-08-15T04:31:36.617Z,14,GR86-037-03,0.9,0.084,-0.113,99.9,5.0,,0.0,0.0,190.04
2025-08-15T04:31:36.660Z,14,GR86-037-03,0.9,0.08,-0.112,99.91,5.0,,0.0,0.0,
2025-08-15T04:31:36.704Z,14,GR86-037-03,0.9,0.087,-0.135,99.92,5.0,,0.0,0.0,
2025-08-15T04:31:36.747Z,14,GR86-037-03,0.9,0.099,-0.091,99.88,5.0,,0.0,0.0,
2025-08-15T04:31:36.790Z,14,GR86-037-03,0.9,0.074,-0.105,99.88,5.0,6503.0,0.0,0.0,
2025-08-15T04:31:36.833Z,14,GR86-037-03,0.9,0.087,-0.105,99.91,5.0,,0.0,0.0,190.88
2025-08-15T04:31:36.876Z,14,GR86-037-03,0.9,0.083,-0.084,99.91,5.0,,0.0,0.0,
2025-08-15T04:31:36.919Z,14,GR86-037-03,0.9,0.078,-0.091,99.91,5.0,,0.0,0.0,
2025-08-15T04:31:36.963Z,14,GR86-037-03,0.9,0.096,-0.09,99.89,5.0,,0.0,0.0,
2025-08-15T04:31:37.005Z,14,GR86-037-03,0.9,0.11,-0.099,99.9,5.0,6532.0,0.0,0.0,
2025-08-15T04:31:37.048Z,14,GR86-037-03,0.9,0.103,-0.103,99.89,5.0,,0.0,0.0,191.71
2025-08-15T04:31:37.091Z,14,GR86-037-03,0.9,0.077,-0.065,99.91,5.0,,0.0,0.0,
2025-08-15T04:31:37.134Z,14,GR86-037-03,0.9,0.093,-0.076,99.91,5.0,,0.0,0.0,
2025-08-15T04:31:37.177Z,14,GR86-037-03,0.9,0.081,-0.079,99.88,5.0,,0.0,0.0,
2025-08-15T04:31:37.220Z,14,GR86-037-03,0.9,0.075,-0.062,99.89,5.0,6547.0,0.0,0.0,
2025-08-15T04:31:37.264Z,14,GR86-037-03,0.9,0.108,-0.092,99.88,5.0,,0.0,0.0,192.5
2025-08-15T04:31:37.306Z,14,GR86-037-03,1.2000000000000002,0.093,-0.072,99.9,5.0,,0.0,0.0,
2025-08-15T04:31:37.349Z,14,GR86-037-03,2.1,0.084,-0.078,99.89,5.0,,0.0,0.0,
2025-08-15T04:31:37.392Z,14,GR86-037-03,2.8000000000000003,0.068,-0.048,99.89,5.0,,0.0,0.0,
2025-08-15T04:31:37.435Z,14,GR86-037-03,3.1,0.078,-0.064,99.9,5.0,6570.0,0.0,0.0,
2025-08-15T04:31:37.478Z,14,GR86-037-03,3.2,0.078,-0.065,99.89,5.0,,0.0,0.0,193.34
2025-08-15T04:31:37.521Z,14,GR86-037-03,3.1,0.07,-0.06,99.89,5.0,,0.0,0.0,
2025-08-15T04:31:37.564Z,14,GR86-037-03,3.1,0.082,-0.038,99.88,5.0,,0.0,0.0,
2025-08-15T04:31:37.607Z,14,GR86-037-03,3.1,0.079,-0.016,99.88,5.0,,0.0,0.0,
2025-08-15T04:31:37.650Z,14,GR86-037-03,3.1,0.101,-0.03,99.88,5.0,6602.0,0.0,0.0,
2025-08-15T04:31:37.736Z,14,GR86-037-03,3.1,0.093,0.016,99.9,5.0,,0.0,0.0,194.05
2025-08-15T04:31:37.779Z,14,GR86-037-03,2.7,0.147,0.025,99.89,5.0,,0.0,0.0,
2025-08-15T04:31:37.823Z,14,GR86-037-03,2.0,0.556,-0.028,99.88,5.0,,0.0,0.0,
2025-08-15T04:31:37.866Z,14,GR86-037-03,2.0,0.182,0.095,99.9,5.0,6626.0,0.0,0.0,
2025-08-15T04:31:37.909Z,14,GR86-037-03,2.0,0.094,0.137,99.88,5.0,,0.0,0.0,194.79
2025-08-15T04:31:37.953Z,14,GR86-037-03,2.0,0.122,0.196,99.9,5.0,,0.0,0.0,
2025-08-15T04:31:37.997Z,14,GR86-037-03,2.0,0.066,0.154,99.89,5.0,,0.0,0.0,
2025-08-15T04:31:38.040Z,14,GR86-037-03,1.7000000000000002,0.078,0.157,99.9,5.0,,0.0,0.0,
2025-08-15T04:31:38.083Z,14,GR86-037-03,-1.7000000000000002,0.076,0.044,99.89,5.0,6650.0,0.0,0.0,
2025-08-15T04:31:38.126Z,14,GR86-037-03,-4.2,0.098,0.019,99.9,5.0,,0.0,0.0,195.53
2025-08-15T04:31:38.170Z,14,GR86-037-03,-4.5,0.065,-0.088,99.89,5.0,,0.0,0.0,
2025-08-15T04:31:38.213Z,14,GR86-037-03,-4.1000000000000005,0.067,-0.1,99.9,5.0,,0.0,0.0,
2025-08-15T04:31:38.256Z,14,GR86-037-03,-3.1,0.068,-0.211,99.89,5.0,,0.0,0.0,
2025-08-15T04:31:38.299Z,14,GR86-037-03,-2.2,0.064,-0.219,99.89,5.0,6733.0,0.0,0.0,
2025-08-15T04:31:38.344Z,14,GR86-037-03,-1.6,0.077,-0.268,99.91,5.0,,0.0,0.0,198.22
2025-08-15T04:31:38.387Z,14,GR86-037-03,-1.0,0.055,-0.32,99.88,5.0,,0.0,0.0,
2025-08-15T04:31:38.430Z,14,GR86-037-03,0.6000000000000001,0.068,-0.312,99.89,5.0,,0.0,0.0,
2025-08-15T04:31:38.473Z,14,GR86-037-03,1.2000000000000002,0.069,-0.316,99.89,5.0,,0.0,0.0,
2025-08-15T04:31:38.516Z,14,GR86-037-03,1.2000000000000002,0.062,-0.261,99.9,5.0,6747.0,0.0,0.0,
2025-08-15T04:31:38.559Z,14,GR86-037-03,1.2000000000000002,0.076,-0.208,99.88,5.0,,0.0,0.0,198.96
2025-08-15T04:31:38.602Z,14,GR86-037-03,1.2000000000000002,0.089,-0.137,99.9,5.0,,0.0,0.0,
2025-08-15T04:31:38.645Z,14,GR86-037-03,1.2000000000000002,0.065,-0.102,99.89,5.0,,0.0,0.0,
2025-08-15T04:31:38.688Z,14,GR86-037-03,0.8,0.089,-0.086,99.89,5.0,,0.0,0.0,
2025-08-15T04:31:38.731Z,14,GR86-037-03,0.5,0.082,-0.054,99.89,5.0,6774.0,0.0,0.0,
2025-08-15T04:31:38.774Z,14,GR86-037-03,0.5,0.1,-0.059,99.89,5.0,,0.0,0.0,199.71
2025-08-15T04:31:38.817Z,14,GR86-037-03,0.5,0.1,-0.051,99.89,5.0,,0.0,0.0,
2025-08-15T04:31:38.860Z,14,GR86-037-03,0.5,0.089,-0.056,99.89,5.0,,0.0,0.0,
2025-08-15T04:31:38.904Z,14,GR86-037-03,0.5,0.103,-0.066,99.91,5.0,,0.0,0.0,
2025-08-15T04:31:38.947Z,14,GR86-037-03,0.5,0.081,-0.063,99.89,5.0,6825.0,0.0,0.0,
2025-08-15T04:31:38.990Z,14,GR86-037-03,0.5,0.099,-0.077,99.88,5.0,,0.0,0.0,200.18
2025-08-15T04:31:39.034Z,14,GR86-037-03,0.5,0.089,-0.074,99.89,5.0,,0.0,0.0,
2025-08-15T04:31:39.077Z,14,GR86-037-03,0.5,0.107,-0.091,99.9,5.0,,0.0,0.0,
2025-08-15T04:31:39.120Z,14,GR86-037-03,0.5,0.094,-0.078,99.9,5.0,,0.0,0.0,
2025-08-15T04:31:39.164Z,14,GR86-037-03,0.5,0.083,-0.084,99.89,5.0,6836.0,0.0,0.0,
2025-08-15T04:31:39.206Z,14,GR86-037-03,0.5,0.079,-0.112,99.89,5.0,,0.0,0.0,200.91
2025-08-15T04:31:39.249Z,14,GR86-037-03,0.5,0.102,-0.123,99.9,5.0,,0.0,0.0,
2025-08-15T04:31:39.292Z,14,GR86-037-03,1.2000000000000002,0.087,-0.119,99.89,5.0,,0.0,0.0,
2025-08-15T04:31:39.335Z,14,GR86-037-03,2.0,0.104,-0.118,99.9,5.0,,0.0,0.0,
2025-08-15T04:31:39.378Z,14,GR86-037-03,2.0,0.069,-0.109,99.89,5.0,6866.0,0.0,0.0,
2025-08-15T04:31:39.421Z,14,GR86-037-03,2.0,0.088,-0.08,99.91,5.0,,0.0,0.0,201.73
2025-08-15T04:31:39.464Z,14,GR86-037-03,2.0,0.099,-0.067,99.88,5.0,,0.0,0.0,
2025-08-15T04:31:39.507Z,14,GR86-037-03,2.0,0.101,-0.057,99.9,5.0,,0.0,0.0,
2025-08-15T04:31:39.550Z,14,GR86-037-03,2.0,0.087,-0.056,99.89,5.0,,0.0,0.0,
2025-08-15T04:31:39.593Z,14,GR86-037-03,2.0,0.097,-0.058,99.9,5.0,6882.0,0.0,0.0,
2025-08-15T04:31:39.636Z,14,GR86-037-03,3.4000000000000004,0.078,-0.062,99.89,5.0,,0.0,0.0,202.53
2025-08-15T04:31:39.679Z,14,GR86-037-03,4.3,0.078,-0.061,99.89,5.0,,0.0,0.0,
2025-08-15T04:31:39.723Z,14,GR86-037-03,4.800000000000001,0.068,-0.035,99.88,5.0,,0.0,0.0,
2025-08-15T04:31:39.766Z,14,GR86-037-03,4.800000000000001,0.089,-0.023,99.91,5.0,,0.0,0.0,
2025-08-15T04:31:39.809Z,14,GR86-037-03,4.800000000000001,0.081,-0.012,99.88,5.0,6917.0,0.0,0.0,
2025-08-15T04:31:39.852Z,14,GR86-037-03,4.7,0.088,0.022,99.89,5.0,,0.0,0.0,203.07
2025-08-15T04:31:39.895Z,14,GR86-037-03,4.800000000000001,0.084,0.044,99.89,5.0,,0.0,0.0,
2025-08-15T04:31:39.938Z,14,GR86-037-03,4.800000000000001,0.079,0.046,99.89,5.0,,0.0,0.0,
2025-08-15T04:31:39.981Z,14,GR86-037-03,4.800000000000001,0.114,0.065,99.9,5.0,,0.0,0.0,
2025-08-15T04:31:40.067Z,14,GR86-037-03,4.800000000000001,0.094,0.092,99.89,5.0,6937.0,0.0,0.0,203.89
2025-08-15T04:31:40.110Z,14,GR86-037-03,5.800000000000001,0.115,0.088,99.89,5.0,,0.0,0.0,
2025-08-15T04:31:40.153Z,14,GR86-037-03,7.2,0.121,0.104,99.88,5.0,,0.0,0.0,
2025-08-15T04:31:40.196Z,14,GR86-037-03,8.6,0.129,0.099,99.89,5.0,,0.0,0.0,
2025-08-15T04:31:40.239Z,14,GR86-037-03,8.700000000000001,0.127,0.129,99.89,5.0,6973.0,0.0,0.0,
2025-08-15T04:31:40.283Z,14,GR86-037-03,7.5,0.155,0.18,99.9,5.0,,0.0,0.0,204.66
2025-08-15T04:31:40.325Z,14,GR86-037-03,6.6000000000000005,0.157,0.205,99.89,5.0,,0.0,0.0,
2025-08-15T04:31:40.368Z,14,GR86-037-03,6.2,0.152,0.192,99.89,5.0,,0.0,0.0,
2025-08-15T04:31:40.411Z,14,GR86-037-03,5.4,0.143,0.202,99.89,5.0,,0.0,0.0,
2025-08-15T04:31:40.454Z,14,GR86-037-03,5.300000000000001,0.114,0.227,99.88,5.0,6989.0,0.0,0.0,
2025-08-15T04:31:40.497Z,14,GR86-037-03,5.300000000000001,0.118,0.23,99.9,5.0,,0.0,0.0,205.35
2025-08-15T04:31:40.540Z,14,GR86-037-03,5.2,0.13,0.239,99.89,5.0,,0.0,0.0,
2025-08-15T04:31:40.584Z,14,GR86-037-03,5.5,0.105,0.257,99.88,5.0,,0.0,0.0,
2025-08-15T04:31:40.626Z,14,GR86-037-03,5.800000000000001,0.09,0.265,99.89,5.0,,0.0,0.0,
2025-08-15T04:31:40.670Z,14,GR86-037-03,5.800000000000001,0.105,0.284,99.89,5.0,7021.0,0.0,0.0,
2025-08-15T04:31:40.713Z,14,GR86-037-03,5.800000000000001,0.076,0.272,99.91,5.0,,0.0,0.0,206.37
2025-08-15T04:31:40.756Z,14,GR86-037-03,5.800000000000001,0.08,0.241,99.88,5.0,,0.0,0.0,
2025-08-15T04:31:40.799Z,14,GR86-037-03,5.800000000000001,0.055,0.212,99.89,5.0,,0.0,0.0,
2025-08-15T04:31:40.844Z,14,GR86-037-03,5.800000000000001,0.065,0.155,99.89,5.0,,0.0,0.0,
2025-08-15T04:31:40.887Z,14,GR86-037-03,5.800000000000001,0.061,0.146,99.87,5.0,7083.0,0.0,0.0,
2025-08-15T04:31:40.930Z,14,GR86-037-03,5.800000000000001,0.047,0.195,99.88,5.0,,0.0,0.0,207.54
2025-08-15T04:31:40.973Z,14,GR86-037-03,6.2,0.021,0.147,99.89,5.0,,0.0,0.0,
2025-08-15T04:31:41.016Z,14,GR86-037-03,7.5,0.076,0.147,99.89,5.0,,0.0,0.0,
2025-08-15T04:31:41.059Z,14,GR86-037-03,7.6,0.07,0.169,99.88,5.0,,0.0,0.0,
2025-08-15T04:31:41.103Z,14,GR86-037-03,7.6,0.058,0.2,99.89,5.0,7100.0,0.0,0.0,
2025-08-15T04:31:41.147Z,14,GR86-037-03,6.7,0.083,0.226,99.88,5.0,,0.0,0.0,210.15
2025-08-15T04:31:41.190Z,14,GR86-037-03,5.6000000000000005,0.063,0.233,99.88,5.0,,0.0,0.0,
2025-08-15T04:31:41.233Z,14,GR86-037-03,5.4,0.078,0.213,99.89,5.0,,0.0,0.0,
2025-08-15T04:31:41.276Z,14,GR86-037-03,5.4,0.054,0.215,99.89,5.0,,0.0,0.0,
2025-08-15T04:31:41.319Z,14,GR86-037-03,5.4,0.049,0.194,99.88,5.0,7142.0,0.0,0.0,
2025-08-15T04:31:41.363Z,14,GR86-037-03,5.4,0.038,0.167,99.89,5.0,,0.0,0.0,210.82
2025-08-15T04:31:41.406Z,14,GR86-037-03,5.4,0.069,0.125,99.88,5.0,,0.0,0.0,
2025-08-15T04:31:41.449Z,14,GR86-037-03,5.7,0.044,0.073,99.89,5.0,,0.0,0.0,
2025-08-15T04:31:41.492Z,14,GR86-037-03,6.300000000000001,0.034,0.051,99.88,5.0,,0.0,0.0,
2025-08-15T04:31:41.535Z,14,GR86-037-03,6.300000000000001,0.063,0.055,99.89,5.0,7146.0,0.0,0.0,
2025-08-15T04:31:41.578Z,14,GR86-037-03,6.4,0.044,0.065,99.88,5.0,,0.0,0.0,210.51
2025-08-15T04:31:41.623Z,14,GR86-037-03,8.5,0.048,0.08,99.89,5.0,,0.0,0.0,
2025-08-15T04:31:41.666Z,14,GR86-037-03,9.6,0.038,0.092,99.88,5.0,,0.0,0.0,
2025-08-15T04:31:41.709Z,14,GR86-037-03,10.3,0.054,0.123,99.88,5.0,,0.0,0.0,
2025-08-15T04:31:41.752Z,14,GR86-037-03,10.3,0.063,0.155,99.89,5.0,7164.0,0.0,0.0,
2025-08-15T04:31:41.795Z,14,GR86-037-03,10.3,0.019,0.2,99.89,5.0,,0.0,0.0,210.85
2025-08-15T04:31:41.838Z,14,GR86-037-03,10.3,0.052,0.258,99.89,5.0,,0.0,0.0,
2025-08-15T04:31:41.881Z,14,GR86-037-03,10.3,0.016,0.296,99.89,5.0,,0.0,0.0,
2025-08-15T04:31:41.924Z,14,GR86-037-03,10.3,0.027,0.315,99.89,5.0,,0.0,0.0,
2025-08-15T04:31:41.967Z,14,GR86-037-03,9.8,0.061,0.3,99.88,5.0,7177.0,0.0,0.0,
2025-08-15T04:31:42.010Z,14,GR86-037-03,9.3,0.033,0.287,99.88,5.0,,0.0,0.0,211.2
2025-08-15T04:31:42.053Z,14,GR86-037-03,9.3,0.076,0.279,99.88,5.0,,0.0,0.0,
2025-08-15T04:31:42.096Z,14,GR86-037-03,9.5,0.064,0.268,99.89,5.0,,0.0,0.0,
2025-08-15T04:31:42.139Z,14,GR86-037-03,10.8,-0.043,0.264,99.9,6.0,,0.0,0.0,
2025-08-15T04:31:42.184Z,14,GR86-037-03,10.9,-0.055,0.308,99.91,6.0,7194.0,0.0,0.0,
2025-08-15T04:31:42.227Z,14,GR86-037-03,10.9,0.226,0.237,99.89,6.0,,0.0,0.0,211.77
2025-08-15T04:31:42.270Z,14,GR86-037-03,10.9,0.09,0.295,99.89,6.0,,0.0,0.0,
2025-08-15T04:31:42.313Z,14,GR86-037-03,10.9,-0.008,0.356,99.89,6.0,,0.0,0.0,
2025-08-15T04:31:42.356Z,14,GR86-037-03,10.9,0.004,0.269,99.9,6.0,,0.0,0.0,
2025-08-15T04:31:42.399Z,14,GR86-037-03,10.9,0.079,0.306,99.89,6.0,6959.0,0.0,0.0,
2025-08-15T04:31:42.444Z,14,GR86-037-03,10.9,0.045,0.349,99.89,6.0,,0.0,0.0,212.25
2025-08-15T04:31:42.487Z,14,GR86-037-03,10.9,0.036,0.365,99.89,6.0,,0.0,0.0,
2025-08-15T04:31:42.530Z,14,GR86-037-03,10.9,0.057,0.4,99.88,6.0,,0.0,0.0,
2025-08-15T04:31:42.573Z,14,GR86-037-03,10.9,0.052,0.427,99.88,6.0,,0.0,0.0,
2025-08-15T04:31:42.616Z,14,GR86-037-03,10.9,0.05,0.439,99.9,6.0,6512.0,0.0,0.0,
2025-08-15T04:31:42.659Z,14,GR86-037-03,10.7,0.035,0.45,99.9,6.0,,0.0,0.0,212.38
2025-08-15T04:31:42.703Z,14,GR86-037-03,7.0,0.072,0.412,99.89,6.0,,0.0,0.0,
2025-08-15T04:31:42.745Z,14,GR86-037-03,5.800000000000001,0.047,0.364,99.9,6.0,,0.0,0.0,
2025-08-15T04:31:42.788Z,14,GR86-037-03,5.800000000000001,0.024,0.33,99.88,6.0,,0.0,0.0,
2025-08-15T04:31:42.874Z,14,GR86-037-03,6.2,0.05,0.31,99.89,6.0,6538.0,0.0,0.0,212.76
2025-08-15T04:31:42.917Z,14,GR86-037-03,7.4,0.071,0.231,99.89,6.0,,0.0,0.0,
2025-08-15T04:31:42.960Z,14,GR86-037-03,7.4,0.031,0.174,99.88,6.0,,0.0,0.0,
2025-08-15T04:31:43.004Z,14,GR86-037-03,7.4,0.045,0.165,99.89,6.0,,0.0,0.0,
2025-08-15T04:31:43.047Z,14,GR86-037-03,7.4,0.066,0.147,99.88,6.0,6544.0,0.0,0.0,
2025-08-15T04:31:43.090Z,14,GR86-037-03,7.4,0.033,0.142,99.88,6.0,,0.0,0.0,213.44
2025-08-15T04:31:43.133Z,14,GR86-037-03,7.4,0.031,0.157,99.9,6.0,,0.0,0.0,
2025-08-15T04:31:43.176Z,14,GR86-037-03,7.4,0.057,0.158,99.89,6.0,,0.0,0.0,
2025-08-15T04:31:43.219Z,14,GR86-037-03,7.4,0.038,0.182,99.88,6.0,,0.0,0.0,
2025-08-15T04:31:43.263Z,14,GR86-037-03,6.300000000000001,0.026,0.163,99.9,6.0,6562.0,0.0,0.0,
2025-08-15T04:31:43.305Z,14,GR86-037-03,6.1000000000000005,0.047,0.148,99.89,6.0,,0.0,0.0,213.92
2025-08-15T04:31:43.348Z,14,GR86-037-03,6.1000000000000005,0.052,0.129,99.89,6.0,,0.0,0.0,
2025-08-15T04:31:43.391Z,14,GR86-037-03,6.1000000000000005,0.045,0.13,99.89,6.0,,0.0,0.0,
2025-08-15T04:31:43.434Z,14,GR86-037-03,6.0,0.029,0.125,99.89,6.0,,0.0,0.0,
2025-08-15T04:31:43.477Z,14,GR86-037-03,5.4,0.043,0.129,99.9,6.0,6585.0,0.0,0.0,
2025-08-15T04:31:43.520Z,14,GR86-037-03,5.2,0.039,0.111,99.88,6.0,,0.0,0.0,214.48
2025-08-15T04:31:43.564Z,14,GR86-037-03,5.2,0.031,0.096,59.03,6.0,,0.0,0.0,
2025-08-15T04:31:43.606Z,14,GR86-037-03,5.2,0.04,0.097,2.7,6.0,,0.0,0.0,
2025-08-15T04:31:43.649Z,14,GR86-037-03,5.2,0.034,0.078,4.26,6.0,,0.0,0.0,
2025-08-15T04:31:43.693Z,14,GR86-037-03,5.2,-0.204,0.102,4.16,6.0,6597.0,0.0,0.0,
2025-08-15T04:31:43.736Z,14,GR86-037-03,5.2,-0.269,0.16,3.97,6.0,,5.965,6.545,215.17
2025-08-15T04:31:43.779Z,14,GR86-037-03,5.2,-0.345,0.069,3.66,6.0,,42.515,43.23,
2025-08-15T04:31:43.823Z,14,GR86-037-03,4.2,-0.982,0.134,3.06,6.0,,85.625,85.24,
2025-08-15T04:31:43.866Z,14,GR86-037-03,1.7000000000000002,-1.329,0.136,2.87,6.0,,104.5,103.875,
2025-08-15T04:31:43.909Z,14,GR86-037-03,-0.6000000000000001,-1.372,0.062,2.76,6.0,6621.0,123.485,124.2,
2025-08-15T04:31:43.953Z,14,GR86-037-03,-0.9,-1.379,0.13,2.7,6.0,,136.15,138.59,216.1
2025-08-15T04:31:43.997Z,14,GR86-037-03,1.0,-1.538,0.107,2.64,6.0,,138.15,141.11,
2025-08-15T04:31:44.040Z,14,GR86-037-03,4.6000000000000005,-1.344,0.005,2.59,6.0,,131.65,133.97,
2025-08-15T04:31:44.083Z,14,GR86-037-03,5.0,-1.396,0.079,2.54,6.0,,131.65,132.535,
2025-08-15T04:31:44.126Z,14,GR86-037-03,6.7,-1.42,0.056,2.51,6.0,6368.0,128.46,129.36,
2025-08-15T04:31:44.170Z,14,GR86-037-03,8.4,-1.283,0.069,2.5,6.0,,126.66,128.75,209.24
2025-08-15T04:31:44.213Z,14,GR86-037-03,8.5,-1.336,0.079,2.51,6.0,,124.46,125.24,
2025-08-15T04:31:44.256Z,14,GR86-037-03,7.9,-1.406,-0.023,2.51,6.0,,124.825,125.695,
2025-08-15T04:31:44.299Z,14,GR86-037-03,6.9,-1.4,0.04,2.5,6.0,,121.35,123.955,
2025-08-15T04:31:44.344Z,14,GR86-037-03,8.5,-1.403,-0.013,2.49,6.0,5873.0,115.84,117.305,
2025-08-15T04:31:44.387Z,14,GR86-037-03,12.2,-1.414,0.056,20.39,6.0,,111.245,113.245,194.03
2025-08-15T04:31:44.430Z,14,GR86-037-03,13.1,-1.322,0.122,60.17,5.0,,108.21,110.115,
2025-08-15T04:31:44.473Z,14,GR86-037-03,11.8,-1.338,0.171,17.080000000000002,5.0,,107.37,109.66,
2025-08-15T04:31:44.516Z,14,GR86-037-03,7.4,-1.381,0.195,4.29,5.0,,109.46,112.175,
2025-08-15T04:31:44.559Z,14,GR86-037-03,0.5,-1.356,0.236,4.19,5.0,5573.0,109.66,111.4,
2025-08-15T04:31:44.603Z,14,GR86-037-03,-5.0,-1.399,0.175,3.91,5.0,,110.895,112.145,189.27
2025-08-15T04:31:44.645Z,14,GR86-037-03,-4.800000000000001,-1.313,0.212,3.67,5.0,,109.4,110.055,
2025-08-15T04:31:44.688Z,14,GR86-037-03,-4.800000000000001,-1.298,0.19,3.24,5.0,,106.455,106.895,
2025-08-15T04:31:44.731Z,14,GR86-037-03,-5.1000000000000005,-1.323,0.223,2.92,5.0,,106.515,107.92,
2025-08-15T04:31:44.774Z,14,GR86-037-03,-2.7,-1.313,0.197,9.39,5.0,5644.0,104.715,105.43,
2025-08-15T04:31:44.817Z,14,GR86-037-03,3.9,-1.378,0.146,50.96,5.0,,103.22,103.465,180.73
2025-08-15T04:31:44.860Z,14,GR86-037-03,11.3,-1.358,0.248,95.24,5.0,,102.21,102.365,
2025-08-15T04:31:44.904Z,14,GR86-037-03,13.4,-1.409,0.265,37.43,4.0,,103.28,104.775,
2025-08-15T04:31:44.947Z,14,GR86-037-03,8.9,-1.3,0.31,3.0700000000000003,4.0,,101.585,103.16,
2025-08-15T04:31:44.990Z,14,GR86-037-03,4.800000000000001,-1.247,0.253,2.62,4.0,5624.0,96.61,97.345,
2025-08-15T04:31:45.034Z,14,GR86-037-03,2.5,-1.302,0.175,2.61,4.0,,89.67,91.285,174.12
2025-08-15T04:31:45.077Z,14,GR86-037-03,1.4,-1.224,0.207,2.58,4.0,,81.655,83.64,
2025-08-15T04:31:45.120Z,14,GR86-037-03,0.9,-1.179,0.168,2.61,4.0,,76.36,77.645,
2025-08-15T04:31:45.164Z,14,GR86-037-03,-0.9,-1.148,0.224,2.57,4.0,,73.935,74.025,
2025-08-15T04:31:45.207Z,14,GR86-037-03,-3.1,-1.194,0.241,2.58,4.0,6018.0,74.315,74.315,
2025-08-15T04:31:45.250Z,14,GR86-037-03,-3.5,-1.224,0.155,6.59,4.0,,76.24,76.145,165.66
2025-08-15T04:31:45.293Z,14,GR86-037-03,-0.6000000000000001,-1.278,0.139,46.67,4.0,,80.25,80.25,
2025-08-15T04:31:45.336Z,14,GR86-037-03,3.7,-1.285,0.124,91.41,4.0,,83.93,83.93,
2025-08-15T04:31:45.379Z,14,GR86-037-03,7.1000000000000005,-1.28,0.142,99.28,3.0,,87.15,87.06,
2025-08-15T04:31:45.423Z,14,GR86-037-03,8.1,-1.384,0.129,9.33,3.0,5916.0,90.965,92.34,
2025-08-15T04:31:45.465Z,14,GR86-037-03,7.2,-1.343,0.206,2.82,3.0,,93.435,95.8,157.53
2025-08-15T04:31:45.508Z,14,GR86-037-03,7.1000000000000005,-1.292,0.171,2.77,3.0,,93.3,94.185,
2025-08-15T04:31:45.551Z,14,GR86-037-03,7.1000000000000005,-1.389,0.092,2.74,3.0,,93.71,94.825,
2025-08-15T04:31:45.594Z,14,GR86-037-03,7.7,-1.219,0.229,2.7,3.0,,95.27,96.995,
2025-08-15T04:31:45.637Z,14,GR86-037-03,9.1,-1.273,0.147,2.7,3.0,5542.0,95.62,96.49,
2025-08-15T04:31:45.680Z,14,GR86-037-03,9.9,-1.274,0.196,2.7,3.0,,95.025,95.59,149.0
2025-08-15T04:31:45.724Z,14,GR86-037-03,12.0,-1.307,0.289,2.68,3.0,,94.305,94.645,
2025-08-15T04:31:45.767Z,14,GR86-037-03,12.1,-1.33,0.285,2.67,3.0,,94.215,94.305,
2025-08-15T04:31:45.810Z,14,GR86-037-03,12.2,-1.3,0.372,2.8000000000000003,3.0,,93.895,94.125,
2025-08-15T04:31:45.853Z,14,GR86-037-03,12.2,-1.282,0.375,38.09,3.0,6137.0,93.865,93.895,
2025-08-15T04:31:45.896Z,14,GR86-037-03,12.3,-1.282,0.364,48.34,2.0,,93.835,93.865,141.25
2025-08-15T04:31:45.939Z,14,GR86-037-03,12.9,-1.323,0.367,4.42,2.0,,95.3,96.52,
2025-08-15T04:31:45.983Z,14,GR86-037-03,16.900000000000002,-1.316,0.489,4.32,2.0,,98.06,100.485,
2025-08-15T04:31:46.026Z,14,GR86-037-03,22.1,-1.291,0.555,4.14,2.0,,94.305,95.48,
2025-08-15T04:31:46.069Z,14,GR86-037-03,24.3,-1.132,0.509,3.88,2.0,5819.0,96.23,98.245,
2025-08-15T04:31:46.113Z,14,GR86-037-03,24.4,-1.105,0.777,3.61,2.0,,97.71,99.055,132.45
2025-08-15T04:31:46.156Z,14,GR86-037-03,24.9,-1.138,0.7000000000000001,3.26,2.0,,98.425,98.96,
2025-08-15T04:31:46.199Z,14,GR86-037-03,26.6,-1.252,0.843,2.93,2.0,,98.78,100.365,
2025-08-15T04:31:46.244Z,14,GR86-037-03,27.3,-0.907,0.845,2.68,2.0,,89.425,91.225,
2025-08-15T04:31:46.287Z,14,GR86-037-03,27.3,-1.007,0.791,2.61,2.0,5706.0,80.19,81.81,
2025-08-15T04:31:46.330Z,14,GR86-037-03,27.3,-0.986,0.963,2.54,2.0,,76.27,77.05,125.17
2025-08-15T04:31:46.373Z,14,GR86-037-03,27.3,-1.113,0.846,2.49,2.0,,72.425,74.12,
2025-08-15T04:31:46.416Z,14,GR86-037-03,30.200000000000003,-0.898,0.774,2.48,2.0,,65.925,68.03,
2025-08-15T04:31:46.459Z,14,GR86-037-03,36.8,-1.037,0.8150000000000001,3.19,2.0,,66.135,67.05,
2025-08-15T04:31:46.503Z,14,GR86-037-03,49.6,-0.975,0.919,60.98,1.0,5814.0,66.105,66.93,
2025-08-15T04:31:46.547Z,14,GR86-037-03,52.0,-0.975,0.847,32.03,1.0,,64.09,65.3,109.51
2025-08-15T04:31:46.590Z,14,GR86-037-03,52.1,-1.229,0.717,4.44,1.0,,61.88,63.465,
2025-08-15T04:31:46.633Z,14,GR86-037-03,50.400000000000006,-1.102,0.882,4.19,1.0,,51.685,53.305,
2025-08-15T04:31:46.676Z,14,GR86-037-03,45.0,-0.736,0.895,4.1,1.0,,32.87,34.365,
2025-08-15T04:31:46.719Z,14,GR86-037-03,41.8,-0.799,0.766,3.87,1.0,5756.0,24.02,25.635,
2025-08-15T04:31:46.763Z,14,GR86-037-03,41.7,-0.737,1.067,3.34,1.0,,23.27,24.4,102.96
2025-08-15T04:31:46.806Z,14,GR86-037-03,41.7,-0.597,0.742,2.86,1.0,,23.335,24.34,
2025-08-15T04:31:46.849Z,14,GR86-037-03,41.7,-0.717,1.08,2.6,1.0,,23.455,24.05,
2025-08-15T04:31:46.893Z,14,GR86-037-03,41.7,-0.59,1.25,2.5,1.0,,23.99,24.765,
2025-08-15T04:31:46.935Z,14,GR86-037-03,40.400000000000006,-0.503,0.982,2.48,1.0,5578.0,24.46,25.575,
2025-08-15T04:31:46.978Z,14,GR86-037-03,34.0,-0.529,1.09,2.44,1.0,,21.93,23.24,96.49
2025-08-15T04:31:47.021Z,14,GR86-037-03,28.8,-0.5,1.065,2.45,1.0,,19.245,19.87,
2025-08-15T04:31:47.064Z,14,GR86-037-03,34.800000000000004,-0.534,0.989,2.45,1.0,,18.77,19.015,
2025-08-15T04:31:47.107Z,14,GR86-037-03,44.2,-0.458,1.066,2.45,1.0,,19.425,19.87,
2025-08-15T04:31:47.150Z,14,GR86-037-03,55.5,-0.491,1.147,2.44,1.0,6333.0,20.755,21.09,
2025-08-15T04:31:47.193Z,14,GR86-037-03,66.4,-0.502,1.077,2.44,1.0,,22.465,22.77,91.82
2025-08-15T04:31:47.236Z,14,GR86-037-03,73.2,-0.54,1.153,2.45,1.0,,23.425,23.715,
2025-08-15T04:31:47.279Z,14,GR86-037-03,74.2,-0.523,1.273,2.45,1.0,,22.495,23.18,
2025-08-15T04:31:47.323Z,14,GR86-037-03,74.2,-0.443,1.175,2.45,1.0,,15.365,16.525,
2025-08-15T04:31:47.366Z,14,GR86-037-03,72.8,-0.375,1.234,2.45,1.0,6092.0,10.715,11.78,
2025-08-15T04:31:47.409Z,14,GR86-037-03,67.9,-0.433,1.104,2.45,1.0,,9.31,10.085,87.48
2025-08-15T04:31:47.452Z,14,GR86-037-03,62.0,-0.44,1.097,2.45,1.0,,9.4,9.81,
2025-08-15T04:31:47.495Z,14,GR86-037-03,55.400000000000006,-0.411,1.136,2.45,1.0,,9.995,10.44,
2025-08-15T04:31:47.538Z,14,GR86-037-03,47.3,-0.348,1.158,2.44,1.0,,10.65,10.805,
2025-08-15T04:31:47.581Z,14,GR86-037-03,40.8,-0.364,1.138,2.44,1.0,5711.0,10.24,10.835,
2025-08-15T04:31:47.624Z,14,GR86-037-03,40.3,-0.271,1.128,2.44,1.0,,0.0,2.135,84.18
2025-08-15T04:31:47.667Z,14,GR86-037-03,46.900000000000006,-0.232,1.229,2.45,1.0,,0.0,0.0,
2025-08-15T04:31:47.710Z,14,GR86-037-03,59.2,-0.233,1.06,2.46,1.0,,0.0,0.0,
2025-08-15T04:31:47.753Z,14,GR86-037-03,73.60000000000001,-0.25,1.505,18.12,1.0,,0.0,0.0,
2025-08-15T04:31:47.796Z,14,GR86-037-03,87.80000000000001,-0.146,1.055,19.37,1.0,5560.0,0.0,0.0,
2025-08-15T04:31:47.839Z,14,GR86-037-03,96.8,-0.223,1.473,22.76,1.0,,0.0,0.0,81.03
2025-08-15T04:31:47.884Z,14,GR86-037-03,99.1,-0.196,1.204,25.79,1.0,,0.0,0.0,
2025-08-15T04:31:47.927Z,14,GR86-037-03,99.1,-0.12,1.26,29.67,1.0,,0.0,0.0,
2025-08-15T04:31:47.970Z,14,GR86-037-03,98.8,-0.157,1.01,32.79,1.0,,0.0,0.0,
2025-08-15T04:31:48.013Z,14,GR86-037-03,98.4,0.017,1.225,33.61,1.0,5458.0,0.0,0.0,
2025-08-15T04:31:48.056Z,14,GR86-037-03,97.5,0.158,1.142,34.410000000000004,1.0,,0.0,0.0,79.13
2025-08-15T04:31:48.099Z,14,GR86-037-03,95.0,0.366,0.977,34.39,1.0,,0.0,0.0,
2025-08-15T04:31:48.144Z,14,GR86-037-03,85.0,0.182,0.913,34.33,1.0,,0.0,0.0,
2025-08-15T04:31:48.187Z,14,GR86-037-03,76.3,0.135,1.108,34.300000000000004,1.0,,0.0,0.0,
2025-08-15T04:31:48.230Z,14,GR86-037-03,64.0,0.328,1.118,34.230000000000004,1.0,5616.0,0.0,0.0,
2025-08-15T04:31:48.273Z,14,GR86-037-03,48.0,0.269,0.971,34.300000000000004,1.0,,0.0,0.0,76.78
2025-08-15T04:31:48.316Z,14,GR86-037-03,32.300000000000004,0.201,1.061,34.21,1.0,,0.0,0.0,
2025-08-15T04:31:48.359Z,14,GR86-037-03,24.1,0.142,1.19,34.24,1.0,,0.0,0.0,
2025-08-15T04:31:48.446Z,14,GR86-037-03,19.9,0.28,0.936,34.43,1.0,6031.0,0.0,0.0,
2025-08-15T04:31:48.489Z,14,GR86-037-03,12.1,0.345,0.975,34.59,1.0,,0.0,0.0,75.54
2025-08-15T04:31:48.532Z,14,GR86-037-03,16.1,0.121,1.078,34.7,1.0,,0.0,0.0,
2025-08-15T04:31:48.575Z,14,GR86-037-03,22.8,0.525,1.079,34.87,1.0,,0.0,0.0,
2025-08-15T04:31:48.618Z,14,GR86-037-03,26.200000000000003,0.086,1.217,40.17,1.0,,0.0,0.0,
2025-08-15T04:31:48.663Z,14,GR86-037-03,31.200000000000003,0.089,1.387,71.3,1.0,6143.0,0.0,0.0,
2025-08-15T04:31:48.705Z,14,GR86-037-03,38.1,0.516,1.264,99.53,1.0,,0.0,0.0,76.45
2025-08-15T04:31:48.748Z,14,GR86-037-03,41.0,0.419,1.107,99.88,1.0,,0.0,0.0,
2025-08-15T04:31:48.791Z,14,GR86-037-03,32.2,0.448,1.174,99.89,1.0,,0.0,0.0,
2025-08-15T04:31:48.834Z,14,GR86-037-03,13.1,0.459,1.106,99.88,1.0,,0.0,0.0,
2025-08-15T04:31:48.877Z,14,GR86-037-03,-5.5,0.39,1.026,99.88,1.0,6250.0,0.0,0.0,
2025-08-15T04:31:48.920Z,14,GR86-037-03,-14.1,0.329,0.953,99.88,1.0,,0.0,0.0,77.60000000000001
2025-08-15T04:31:48.964Z,14,GR86-037-03,-14.8,0.36,0.913,99.9,1.0,,0.0,0.0,
2025-08-15T04:31:49.049Z,14,GR86-037-03,-16.8,0.377,0.893,99.88,1.0,,0.0,0.0,
2025-08-15T04:31:49.093Z,14,GR86-037-03,-20.3,0.411,0.891,99.91,1.0,6494.0,0.0,0.0,
2025-08-15T04:31:49.135Z,14,GR86-037-03,-11.9,0.421,0.858,99.91,1.0,,0.0,0.0,78.5
2025-08-15T04:31:49.178Z,14,GR86-037-03,3.2,0.398,0.905,99.92,1.0,,0.0,0.0,
2025-08-15T04:31:49.221Z,14,GR86-037-03,19.4,0.407,0.95,99.91,1.0,,0.0,0.0,
2025-08-15T04:31:49.264Z,14,GR86-037-03,34.2,0.378,1.095,99.91,1.0,,0.0,0.0,
2025-08-15T04:31:49.307Z,14,GR86-037-03,33.800000000000004,0.35,1.092,99.92,1.0,6425.0,0.0,0.0,
2025-08-15T04:31:49.350Z,14,GR86-037-03,26.4,0.338,1.083,99.92,1.0,,0.0,0.0,82.0
2025-08-15T04:31:49.393Z,14,GR86-037-03,17.0,0.387,1.054,99.92,1.0,,0.0,0.0,
2025-08-15T04:31:49.436Z,14,GR86-037-03,7.1000000000000005,0.402,0.96,99.91,1.0,,0.0,0.0,
2025-08-15T04:31:49.479Z,14,GR86-037-03,-1.8,0.397,0.964,99.92,1.0,,0.0,0.0,
2025-08-15T04:31:49.523Z,14,GR86-037-03,-8.6,0.379,0.862,99.89,1.0,6604.0,0.0,0.0,
2025-08-15T04:31:49.565Z,14,GR86-037-03,-8.700000000000001,0.407,0.859,99.91,1.0,,0.0,0.0,83.34
2025-08-15T04:31:49.608Z,14,GR86-037-03,-8.6,0.378,0.853,99.91,1.0,,0.0,0.0,
2025-08-15T04:31:49.651Z,14,GR86-037-03,-5.9,0.425,0.8190000000000001,99.91,1.0,,0.0,0.0,
2025-08-15T04:31:49.694Z,14,GR86-037-03,3.7,0.418,0.797,99.89,1.0,,0.0,0.0,
2025-08-15T04:31:49.737Z,14,GR86-037-03,20.0,0.444,0.8150000000000001,99.91,1.0,6724.0,0.0,0.0,
2025-08-15T04:31:49.781Z,14,GR86-037-03,38.5,0.394,0.932,99.91,1.0,,0.0,0.0,86.28
2025-08-15T04:31:49.824Z,14,GR86-037-03,52.900000000000006,0.387,0.981,99.9,1.0,,0.0,0.0,
2025-08-15T04:31:49.867Z,14,GR86-037-03,52.8,0.357,0.903,99.92,1.0,,0.0,0.0,
2025-08-15T04:31:49.910Z,14,GR86-037-03,49.1,0.324,0.68,99.92,1.0,,0.0,0.0,
2025-08-15T04:31:49.954Z,14,GR86-037-03,45.6,0.317,0.685,99.9,1.0,6903.0,0.0,0.0,
2025-08-15T04:31:49.997Z,14,GR86-037-03,41.1,0.331,0.776,99.91,1.0,,0.0,0.0,87.57000000000001
2025-08-15T04:31:50.040Z,14,GR86-037-03,35.6,0.368,0.712,99.91,1.0,,0.0,0.0,
2025-08-15T04:31:50.083Z,14,GR86-037-03,28.700000000000003,0.328,0.615,99.91,1.0,,0.0,0.0,
2025-08-15T04:31:50.126Z,14,GR86-037-03,26.8,0.454,0.633,99.92,1.0,,0.0,0.0,
2025-08-15T04:31:50.169Z,14,GR86-037-03,25.8,0.425,0.562,99.9,1.0,6928.0,0.0,0.0,
2025-08-15T04:31:50.213Z,14,GR86-037-03,23.6,0.357,0.532,99.93,1.0,,0.0,0.0,89.95
2025-08-15T04:31:50.256Z,14,GR86-037-03,19.0,0.217,0.489,99.92,1.0,,0.0,0.0,
2025-08-15T04:31:50.299Z,14,GR86-037-03,13.1,0.201,0.532,99.89,1.0,,0.0,0.0,
2025-08-15T04:31:50.344Z,14,GR86-037-03,8.700000000000001,0.34,0.51,99.91,1.0,,0.0,0.0,
2025-08-15T04:31:50.387Z,14,GR86-037-03,8.700000000000001,0.323,0.547,99.92,1.0,7177.0,0.0,0.0,
2025-08-15T04:31:50.430Z,14,GR86-037-03,8.8,0.183,0.35,99.91,1.0,,0.0,0.0,92.37
2025-08-15T04:31:50.473Z,14,GR86-037-03,9.9,0.103,0.448,99.91,1.0,,0.0,0.0,
2025-08-15T04:31:50.516Z,14,GR86-037-03,10.8,-0.045,0.343,99.91,2.0,,0.0,0.0,
2025-08-15T04:31:50.559Z,14,GR86-037-03,11.9,0.723,0.249,99.91,2.0,,0.0,0.0,
2025-08-15T04:31:50.602Z,14,GR86-037-03,12.1,0.35,0.162,99.91,2.0,7290.0,0.0,0.0,
2025-08-15T04:31:50.645Z,14,GR86-037-03,12.1,0.542,0.197,99.91,2.0,,0.0,0.0,94.74
2025-08-15T04:31:50.688Z,14,GR86-037-03,12.1,0.5730000000000001,0.151,99.91,2.0,,0.0,0.0,
2025-08-15T04:31:50.731Z,14,GR86-037-03,12.1,0.53,0.159,99.91,2.0,,0.0,0.0,
2025-08-15T04:31:50.774Z,14,GR86-037-03,12.1,0.33,0.173,99.92,2.0,,0.0,0.0,
2025-08-15T04:31:50.817Z,14,GR86-037-03,12.1,0.226,0.137,99.91,2.0,6699.0,0.0,0.0,
2025-08-15T04:31:50.860Z,14,GR86-037-03,13.2,0.248,0.194,99.91,2.0,,0.0,0.0,96.93
2025-08-15T04:31:50.904Z,14,GR86-037-03,13.5,0.317,0.153,99.91,2.0,,0.0,0.0,
2025-08-15T04:31:50.947Z,14,GR86-037-03,13.4,0.391,0.201,99.91,2.0,,0.0,0.0,
2025-08-15T04:31:50.990Z,14,GR86-037-03,12.9,0.39,0.145,99.91,2.0,,0.0,0.0,
2025-08-15T04:31:51.034Z,14,GR86-037-03,12.4,0.35,0.184,99.91,2.0,5786.0,0.0,0.0,
2025-08-15T04:31:51.077Z,14,GR86-037-03,12.1,0.322,0.134,99.92,2.0,,0.0,0.0,98.87
2025-08-15T04:31:51.120Z,14,GR86-037-03,12.0,0.259,0.093,99.91,2.0,,0.0,0.0,
2025-08-15T04:31:51.164Z,14,GR86-037-03,11.1,0.315,0.079,99.91,2.0,,0.0,0.0,
2025-08-15T04:31:51.206Z,14,GR86-037-03,9.2,0.362,-0.005,99.91,2.0,,0.0,0.0,
2025-08-15T04:31:51.249Z,14,GR86-037-03,6.2,0.394,-0.022,99.92,2.0,5978.0,0.0,0.0,
2025-08-15T04:31:51.292Z,14,GR86-037-03,3.9,0.416,-0.042,99.92,2.0,,0.0,0.0,101.5
2025-08-15T04:31:51.335Z,14,GR86-037-03,3.7,0.363,-0.083,99.91,2.0,,0.0,0.0,
2025-08-15T04:31:51.378Z,14,GR86-037-03,4.5,0.381,0.057,99.91,2.0,,0.0,0.0,
2025-08-15T04:31:51.421Z,14,GR86-037-03,5.9,0.283,-0.036,99.92,2.0,,0.0,0.0,
2025-08-15T04:31:51.464Z,14,GR86-037-03,6.6000000000000005,0.298,0.024,99.91,2.0,6046.0,0.0,0.0,
2025-08-15T04:31:51.507Z,14,GR86-037-03,6.6000000000000005,0.33,-0.054,99.91,2.0,,0.0,0.0,103.42
2025-08-15T04:31:51.550Z,14,GR86-037-03,6.6000000000000005,0.357,-0.056,99.91,2.0,,0.0,0.0,
2025-08-15T04:31:51.593Z,14,GR86-037-03,6.7,0.339,-0.083,99.92,2.0,,0.0,0.0,
2025-08-15T04:31:51.636Z,14,GR86-037-03,7.5,0.334,-0.039,99.91,2.0,,0.0,0.0,
2025-08-15T04:31:51.679Z,14,GR86-037-03,7.800000000000001,0.328,-0.079,99.92,2.0,6191.0,0.0,0.0,
2025-08-15T04:31:51.723Z,14,GR86-037-03,9.3,0.23,-0.031,99.92,2.0,,0.0,0.0,105.18
2025-08-15T04:31:51.765Z,14,GR86-037-03,11.4,0.223,0.062,99.92,2.0,,0.0,0.0,
2025-08-15T04:31:51.808Z,14,GR86-037-03,12.9,0.205,0.047,99.91,2.0,,0.0,0.0,
2025-08-15T04:31:51.851Z,14,GR86-037-03,13.2,0.246,0.109,99.91,2.0,,0.0,0.0,
2025-08-15T04:31:51.894Z,14,GR86-037-03,13.2,0.267,0.064,99.92,2.0,6254.0,0.0,0.0,
2025-08-15T04:31:51.937Z,14,GR86-037-03,12.8,0.21,0.107,99.92,2.0,,0.0,0.0,107.02
2025-08-15T04:31:51.981Z,14,GR86-037-03,12.3,0.189,0.066,99.91,2.0,,0.0,0.0,
2025-08-15T04:31:52.024Z,14,GR86-037-03,9.9,0.389,0.096,99.93,2.0,,0.0,0.0,
2025-08-15T04:31:52.067Z,14,GR86-037-03,8.700000000000001,0.332,0.093,99.91,2.0,,0.0,0.0,
2025-08-15T04:31:52.110Z,14,GR86-037-03,7.5,0.389,0.159,99.91,2.0,6367.0,0.0,0.0,
2025-08-15T04:31:52.153Z,14,GR86-037-03,6.800000000000001,0.327,0.124,99.92,2.0,,0.0,0.0,110.55
2025-08-15T04:31:52.196Z,14,GR86-037-03,6.6000000000000005,0.309,0.136,99.92,2.0,,0.0,0.0,
2025-08-15T04:31:52.239Z,14,GR86-037-03,6.6000000000000005,0.315,0.161,99.92,2.0,,0.0,0.0,
2025-08-15T04:31:52.283Z,14,GR86-037-03,6.5,0.319,0.076,99.91,2.0,,0.0,0.0,
2025-08-15T04:31:52.326Z,14,GR86-037-03,4.7,0.275,0.042,99.91,2.0,6429.0,0.0,0.0,
2025-08-15T04:31:52.370Z,14,GR86-037-03,3.1,0.24,-0.005,99.92,2.0,,0.0,0.0,112.16
2025-08-15T04:31:52.413Z,14,GR86-037-03,2.9000000000000004,0.261,0.005,99.95,2.0,,0.0,0.0,
2025-08-15T04:31:52.456Z,14,GR86-037-03,3.0,0.272,0.003,99.93,2.0,,0.0,0.0,
2025-08-15T04:31:52.499Z,14,GR86-037-03,3.0,0.315,0.029,99.93,2.0,,0.0,0.0,
2025-08-15T04:31:52.544Z,14,GR86-037-03,2.9000000000000004,0.305,0.043,99.91,2.0,6556.0,0.0,0.0,
2025-08-15T04:31:52.587Z,14,GR86-037-03,1.9,0.271,0.016,99.92,2.0,,0.0,0.0,113.75
2025-08-15T04:31:52.630Z,14,GR86-037-03,0.2,0.249,-0.006,99.91,2.0,,0.0,0.0,
2025-08-15T04:31:52.673Z,14,GR86-037-03,-0.8,0.261,-0.023,99.91,2.0,,0.0,0.0,
2025-08-15T04:31:52.716Z,14,GR86-037-03,-0.8,0.277,-0.02,99.92,2.0,,0.0,0.0,
2025-08-15T04:31:52.759Z,14,GR86-037-03,-0.8,0.3,-0.028,99.91,2.0,6682.0,0.0,0.0,
2025-08-15T04:31:52.803Z,14,GR86-037-03,-0.8,0.276,-0.051,99.92,2.0,,0.0,0.0,115.3
2025-08-15T04:31:52.847Z,14,GR86-037-03,-0.8,0.268,-0.058,99.91,2.0,,0.0,0.0,
2025-08-15T04:31:52.890Z,14,GR86-037-03,-0.8,0.259,-0.098,99.91,2.0,,0.0,0.0,
2025-08-15T04:31:52.933Z,14,GR86-037-03,-0.8,0.27,-0.09,99.92,2.0,,0.0,0.0,
2025-08-15T04:31:52.976Z,14,GR86-037-03,-0.7000000000000001,0.289,-0.079,99.91,2.0,6804.0,0.0,0.0,
2025-08-15T04:31:53.019Z,14,GR86-037-03,0.4,0.288,-0.066,99.92,2.0,,0.0,0.0,117.01
2025-08-15T04:31:53.063Z,14,GR86-037-03,1.0,0.263,-0.054,99.91,2.0,,0.0,0.0,
2025-08-15T04:31:53.106Z,14,GR86-037-03,1.0,0.267,-0.057,99.92,2.0,,0.0,0.0,
2025-08-15T04:31:53.149Z,14,GR86-037-03,1.0,0.263,-0.045,99.92,2.0,,0.0,0.0,
2025-08-15T04:31:53.193Z,14,GR86-037-03,1.0,0.266,-0.021,99.91,2.0,6867.0,0.0,0.0,
2025-08-15T04:31:53.235Z,14,GR86-037-03,1.0,0.28,-0.023,99.91,2.0,,0.0,0.0,118.47
2025-08-15T04:31:53.278Z,14,GR86-037-03,1.0,0.287,0.004,99.91,2.0,,0.0,0.0,
2025-08-15T04:31:53.323Z,14,GR86-037-03,1.0,0.274,0.009,99.92,2.0,,0.0,0.0,
2025-08-15T04:31:53.365Z,14,GR86-037-03,1.0,0.261,0.013,99.91,2.0,,0.0,0.0,
2025-08-15T04:31:53.408Z,14,GR86-037-03,1.0,0.263,-0.009,99.94,2.0,6929.0,0.0,0.0,
2025-08-15T04:31:53.451Z,14,GR86-037-03,1.0,0.27,0.013,99.92,2.0,,0.0,0.0,119.93
2025-08-15T04:31:53.494Z,14,GR86-037-03,1.0,0.269,-0.005,99.91,2.0,,0.0,0.0,
2025-08-15T04:31:53.537Z,14,GR86-037-03,1.0,0.26,-0.012,99.94,2.0,,0.0,0.0,
2025-08-15T04:31:53.580Z,14,GR86-037-03,1.0,0.269,-0.01,99.91,2.0,,0.0,0.0,
2025-08-15T04:31:53.624Z,14,GR86-037-03,1.0,0.273,-0.003,99.95,2.0,7013.0,0.0,0.0,
2025-08-15T04:31:53.666Z,14,GR86-037-03,1.0,0.263,-0.014,99.92,2.0,,0.0,0.0,121.23
2025-08-15T04:31:53.709Z,14,GR86-037-03,1.0,0.258,-0.03,99.91,2.0,,0.0,0.0,
2025-08-15T04:31:53.752Z,14,GR86-037-03,1.0,0.265,-0.028,99.91,2.0,,0.0,0.0,
2025-08-15T04:31:53.795Z,14,GR86-037-03,1.0,0.259,-0.014,99.91,2.0,,0.0,0.0,
2025-08-15T04:31:53.838Z,14,GR86-037-03,1.0,0.263,-0.021,99.93,2.0,7074.0,0.0,0.0,
2025-08-15T04:31:53.881Z,14,GR86-037-03,1.0,0.263,-0.024,99.92,2.0,,0.0,0.0,122.45
2025-08-15T04:31:53.924Z,14,GR86-037-03,1.0,0.255,-0.032,99.93,2.0,,0.0,0.0,
2025-08-15T04:31:53.967Z,14,GR86-037-03,1.0,0.247,-0.038,99.92,2.0,,0.0,0.0,
2025-08-15T04:31:54.010Z,14,GR86-037-03,1.0,0.242,-0.032,99.91,2.0,,0.0,0.0,
2025-08-15T04:31:54.053Z,14,GR86-037-03,1.0,0.248,-0.039,99.91,2.0,7147.0,0.0,0.0,
2025-08-15T04:31:54.096Z,14,GR86-037-03,1.0,0.275,-0.011,99.92,2.0,,0.0,0.0,123.6
2025-08-15T04:31:54.139Z,14,GR86-037-03,1.0,0.249,-0.029,99.91,2.0,,0.0,0.0,
2025-08-15T04:31:54.184Z,14,GR86-037-03,1.0,0.107,-0.04,99.91,3.0,,0.0,0.0,
2025-08-15T04:31:54.227Z,14,GR86-037-03,1.0,-0.064,-0.017,99.92,3.0,,0.0,0.0,
2025-08-15T04:31:54.270Z,14,GR86-037-03,1.0,0.517,-0.015,99.92,3.0,7209.0,0.0,0.0,
2025-08-15T04:31:54.313Z,14,GR86-037-03,1.0,0.399,-0.124,99.92,3.0,,0.0,0.0,124.79
2025-08-15T04:31:54.356Z,14,GR86-037-03,1.0,0.37,0.044,99.92,3.0,,0.0,0.0,
2025-08-15T04:31:54.399Z,14,GR86-037-03,1.0,0.312,-0.076,99.92,3.0,,0.0,0.0,
2025-08-15T04:31:54.444Z,14,GR86-037-03,1.0,0.136,-0.017,99.92,3.0,,0.0,0.0,
2025-08-15T04:31:54.487Z,14,GR86-037-03,1.0,0.155,-0.02,99.92,3.0,7266.0,0.0,0.0,
2025-08-15T04:31:54.530Z,14,GR86-037-03,1.0,0.264,-0.02,99.91,3.0,,0.0,0.0,125.92
2025-08-15T04:31:54.573Z,14,GR86-037-03,1.0,0.273,-0.018,99.91,3.0,,0.0,0.0,
2025-08-15T04:31:54.616Z,14,GR86-037-03,1.0,0.22,-0.005,99.91,3.0,,0.0,0.0,
2025-08-15T04:31:54.659Z,14,GR86-037-03,1.0,0.189,-0.022,99.91,3.0,,0.0,0.0,
2025-08-15T04:31:54.703Z,14,GR86-037-03,1.0,0.23,-0.01,99.92,3.0,6201.0,0.0,0.0,
2025-08-15T04:31:54.745Z,14,GR86-037-03,1.0,0.238,-0.03,99.92,3.0,,0.0,0.0,128.19
2025-08-15T04:31:54.788Z,14,GR86-037-03,1.0,0.219,-0.019,99.91,3.0,,0.0,0.0,
2025-08-15T04:31:54.831Z,14,GR86-037-03,1.0,0.223,-0.024,99.91,3.0,,0.0,0.0,
2025-08-15T04:31:54.874Z,14,GR86-037-03,1.0,0.226,-0.028,99.92,3.0,,0.0,0.0,
2025-08-15T04:31:54.917Z,14,GR86-037-03,1.0,0.218,-0.024,99.92,3.0,6059.0,0.0,0.0,
2025-08-15T04:31:54.960Z,14,GR86-037-03,1.1,0.237,-0.034,99.92,3.0,,0.0,0.0,129.04
2025-08-15T04:31:55.004Z,14,GR86-037-03,2.2,0.227,-0.024,99.91,3.0,,0.0,0.0,
2025-08-15T04:31:55.047Z,14,GR86-037-03,2.9000000000000004,0.226,-0.029,99.9,3.0,,0.0,0.0,
2025-08-15T04:31:55.090Z,14,GR86-037-03,3.1,0.231,0.0,99.91,3.0,,0.0,0.0,
2025-08-15T04:31:55.133Z,14,GR86-037-03,3.2,0.223,-0.003,99.91,3.0,6062.0,0.0,0.0,
2025-08-15T04:31:55.176Z,14,GR86-037-03,3.7,0.22,0.009,99.92,3.0,,0.0,0.0,129.91
2025-08-15T04:31:55.219Z,14,GR86-037-03,4.5,0.219,0.028,99.94,3.0,,0.0,0.0,
2025-08-15T04:31:55.263Z,14,GR86-037-03,5.4,0.221,0.063,99.9,3.0,,0.0,0.0,
2025-08-15T04:31:55.305Z,14,GR86-037-03,5.5,0.221,0.067,58.85,3.0,,0.0,0.0,
2025-08-15T04:31:55.348Z,14,GR86-037-03,5.5,0.231,0.091,4.21,3.0,6129.0,0.0,0.0,
2025-08-15T04:31:55.391Z,14,GR86-037-03,5.5,0.205,0.068,4.59,3.0,,0.0,0.0,130.82
2025-08-15T04:31:55.434Z,14,GR86-037-03,5.5,-0.025,0.099,4.42,3.0,,0.0,0.0,
2025-08-15T04:31:55.477Z,14,GR86-037-03,5.5,-0.04,0.136,4.13,3.0,,12.085,12.53,
2025-08-15T04:31:55.520Z,14,GR86-037-03,5.5,-0.452,0.098,3.81,3.0,,18.615,18.86,
2025-08-15T04:31:55.564Z,14,GR86-037-03,6.6000000000000005,-0.437,0.158,3.24,3.0,6176.0,32.87,32.78,
2025-08-15T04:31:55.606Z,14,GR86-037-03,8.1,-0.517,0.114,2.89,3.0,,41.735,41.52,131.77
2025-08-15T04:31:55.649Z,14,GR86-037-03,8.200000000000001,-0.629,0.113,2.72,3.0,,47.155,46.835,
2025-08-15T04:31:55.693Z,14,GR86-037-03,8.200000000000001,-0.767,0.151,8.040000000000001,3.0,,51.245000000000005,50.71,
2025-08-15T04:31:55.735Z,14,GR86-037-03,8.200000000000001,-0.79,0.14,48.78,2.0,,56.69,56.125,
2025-08-15T04:31:55.779Z,14,GR86-037-03,8.5,-0.861,0.14,25.37,2.0,5955.0,60.735,60.4,
2025-08-15T04:31:55.823Z,14,GR86-037-03,10.9,-0.906,0.199,4.24,2.0,,65.985,68.275,132.44
2025-08-15T04:31:55.865Z,14,GR86-037-03,12.0,-1.096,0.206,4.03,2.0,,67.555,69.22,
2025-08-15T04:31:55.908Z,14,GR86-037-03,12.3,-1.177,0.192,3.87,2.0,,65.62,66.7,
2025-08-15T04:31:55.951Z,14,GR86-037-03,12.3,-0.943,0.402,3.5700000000000003,2.0,,62.93,64.84,
2025-08-15T04:31:55.994Z,14,GR86-037-03,12.3,-1.002,0.389,3.25,2.0,5609.0,58.245000000000005,59.56,
2025-08-15T04:31:56.037Z,14,GR86-037-03,12.4,-1.208,0.418,2.99,2.0,,51.715,52.555,127.53
2025-08-15T04:31:56.080Z,14,GR86-037-03,12.4,-0.88,0.5690000000000001,2.76,2.0,,42.605,44.055,
2025-08-15T04:31:56.123Z,14,GR86-037-03,11.6,-0.554,0.562,2.64,2.0,,25.7,26.69,
2025-08-15T04:31:56.166Z,14,GR86-037-03,9.9,-0.738,0.759,2.57,2.0,,22.125,22.965,
2025-08-15T04:31:56.209Z,14,GR86-037-03,11.4,-0.559,0.6940000000000001,2.54,2.0,5876.0,22.25,23.365,
2025-08-15T04:31:56.253Z,14,GR86-037-03,16.400000000000002,-0.5630000000000001,0.605,2.51,2.0,,22.965,23.865,119.14
2025-08-15T04:31:56.297Z,14,GR86-037-03,26.6,-0.614,0.778,2.51,2.0,,23.53,23.745,
2025-08-15T04:31:56.340Z,14,GR86-037-03,29.8,-0.589,0.8280000000000001,2.48,2.0,,22.495,23.24,
2025-08-15T04:31:56.384Z,14,GR86-037-03,29.8,-0.506,0.764,2.49,2.0,,18.295,19.395,
2025-08-15T04:31:56.426Z,14,GR86-037-03,30.200000000000003,-0.404,0.844,2.49,2.0,5887.0,14.785,15.87,
2025-08-15T04:31:56.469Z,14,GR86-037-03,33.9,-0.407,0.785,2.49,2.0,,13.11,14.055,114.93
2025-08-15T04:31:56.513Z,14,GR86-037-03,41.8,-0.479,0.786,2.48,2.0,,15.505,15.93,
2025-08-15T04:31:56.556Z,14,GR86-037-03,46.6,-0.459,0.897,2.5,2.0,,19.64,20.145,
2025-08-15T04:31:56.599Z,14,GR86-037-03,45.8,-0.475,0.96,2.49,2.0,,24.525,24.765,
2025-08-15T04:31:56.644Z,14,GR86-037-03,37.6,-0.501,0.909,2.49,2.0,6008.0,30.46,31.085,
2025-08-15T04:31:56.687Z,14,GR86-037-03,30.700000000000003,-0.598,0.892,2.49,2.0,,33.65,34.685,110.16
2025-08-15T04:31:56.730Z,14,GR86-037-03,29.5,-0.588,0.88,2.49,2.0,,34.655,35.585,
2025-08-15T04:31:56.773Z,14,GR86-037-03,29.6,-0.589,0.974,2.5,2.0,,31.865,33.025,
2025-08-15T04:31:56.816Z,14,GR86-037-03,29.8,-0.557,0.973,2.49,2.0,,25.545,26.875,
2025-08-15T04:31:56.859Z,14,GR86-037-03,28.200000000000003,-0.428,0.967,2.48,2.0,5759.0,19.15,20.265,
2025-08-15T04:31:56.903Z,14,GR86-037-03,20.1,-0.342,1.002,2.49,2.0,,4.15,4.93,106.4
2025-08-15T04:31:56.945Z,14,GR86-037-03,21.0,-0.236,1.011,2.48,2.0,,0.0,0.0,
2025-08-15T04:31:56.988Z,14,GR86-037-03,26.8,-0.168,1.093,2.48,2.0,,0.0,0.0,
2025-08-15T04:31:57.031Z,14,GR86-037-03,33.4,-0.164,1.127,2.49,2.0,,0.0,0.0,
2025-08-15T04:31:57.074Z,14,GR86-037-03,39.1,-0.145,1.145,2.93,2.0,5364.0,0.0,0.0,
2025-08-15T04:31:57.117Z,14,GR86-037-03,44.400000000000006,-0.139,1.193,11.59,2.0,,0.0,0.0,103.14
2025-08-15T04:31:57.160Z,14,GR86-037-03,49.2,-0.157,1.224,19.46,2.0,,0.0,0.0,
2025-08-15T04:31:57.204Z,14,GR86-037-03,50.8,-0.135,1.226,20.21,2.0,,0.0,0.0,
2025-08-15T04:31:57.247Z,14,GR86-037-03,41.6,-0.077,1.217,20.54,2.0,,0.0,0.0,
2025-08-15T04:31:57.290Z,14,GR86-037-03,26.3,-0.088,1.164,20.8,2.0,5205.0,0.0,0.0,
2025-08-15T04:31:57.334Z,14,GR86-037-03,12.2,-0.061,1.201,21.16,2.0,,0.0,0.0,98.47
2025-08-15T04:31:57.377Z,14,GR86-037-03,6.7,-0.051,1.174,22.01,2.0,,0.0,0.0,
2025-08-15T04:31:57.420Z,14,GR86-037-03,6.9,0.125,1.208,21.99,2.0,,0.0,0.0,
2025-08-15T04:31:57.464Z,14,GR86-037-03,7.5,0.105,1.179,22.47,2.0,,0.0,0.0,
2025-08-15T04:31:57.506Z,14,GR86-037-03,6.2,0.11,1.135,26.75,2.0,5236.0,0.0,0.0,
2025-08-15T04:31:57.549Z,14,GR86-037-03,6.0,0.127,1.191,36.07,2.0,,0.0,0.0,95.04
2025-08-15T04:31:57.592Z,14,GR86-037-03,5.9,0.12,1.16,40.49,2.0,,0.0,0.0,
2025-08-15T04:31:57.635Z,14,GR86-037-03,6.6000000000000005,0.145,1.158,40.5,2.0,,0.0,0.0,
2025-08-15T04:31:57.678Z,14,GR86-037-03,11.8,0.191,1.152,40.06,2.0,,0.0,0.0,
2025-08-15T04:31:57.721Z,14,GR86-037-03,22.1,0.218,1.108,39.66,2.0,5413.0,0.0,0.0,
2025-08-15T04:31:57.764Z,14,GR86-037-03,41.6,0.224,1.097,39.6,2.0,,0.0,0.0,94.29
2025-08-15T04:31:57.807Z,14,GR86-037-03,51.1,0.187,1.156,39.88,2.0,,0.0,0.0,
2025-08-15T04:31:57.850Z,14,GR86-037-03,55.1,0.165,1.376,39.96,2.0,,0.0,0.0,
2025-08-15T04:31:57.893Z,14,GR86-037-03,55.400000000000006,0.195,1.318,39.59,2.0,,0.0,0.0,
2025-08-15T04:31:57.936Z,14,GR86-037-03,54.5,0.246,1.197,38.27,2.0,5466.0,0.0,0.0,
2025-08-15T04:31:57.979Z,14,GR86-037-03,49.900000000000006,0.151,1.235,38.08,2.0,,0.0,0.0,93.98
2025-08-15T04:31:58.023Z,14,GR86-037-03,35.6,0.24,1.119,36.79,2.0,,0.0,0.0,
2025-08-15T04:31:58.065Z,14,GR86-037-03,27.1,-0.028,1.171,36.34,2.0,,0.0,0.0,
2025-08-15T04:31:58.108Z,14,GR86-037-03,22.700000000000003,0.145,1.288,36.84,2.0,,0.0,0.0,
2025-08-15T04:31:58.151Z,14,GR86-037-03,21.8,0.389,1.21,36.32,2.0,5636.0,0.0,0.0,
2025-08-15T04:31:58.194Z,14,GR86-037-03,21.8,0.414,1.047,36.37,2.0,,0.0,0.0,94.38
2025-08-15T04:31:58.237Z,14,GR86-037-03,21.8,0.093,1.027,37.28,2.0,,0.0,0.0,
2025-08-15T04:31:58.281Z,14,GR86-037-03,21.8,0.009,1.063,39.65,2.0,,0.0,0.0,
2025-08-15T04:31:58.324Z,14,GR86-037-03,21.8,0.037,1.077,86.2,2.0,,0.0,0.0,
2025-08-15T04:31:58.367Z,14,GR86-037-03,21.8,-0.003,1.057,99.81,2.0,5722.0,0.0,0.0,
2025-08-15T04:31:58.410Z,14,GR86-037-03,21.0,0.352,1.089,99.9,2.0,,0.0,0.0,95.4
2025-08-15T04:31:58.453Z,14,GR86-037-03,19.5,0.493,0.96,99.89,2.0,,0.0,0.0,
2025-08-15T04:31:58.496Z,14,GR86-037-03,19.5,0.395,1.214,99.89,2.0,,0.0,0.0,
2025-08-15T04:31:58.539Z,14,GR86-037-03,22.6,0.305,1.196,99.91,2.0,,0.0,0.0,
2025-08-15T04:31:58.583Z,14,GR86-037-03,34.7,0.277,1.244,99.91,2.0,5776.0,0.0,0.0,
2025-08-15T04:31:58.625Z,14,GR86-037-03,44.5,0.331,1.13,99.91,2.0,,0.0,0.0,96.19
2025-08-15T04:31:58.668Z,14,GR86-037-03,50.7,0.276,1.162,99.91,2.0,,0.0,0.0,
2025-08-15T04:31:58.711Z,14,GR86-037-03,52.5,0.272,1.089,99.9,2.0,,0.0,0.0,
2025-08-15T04:31:58.754Z,14,GR86-037-03,52.5,0.26,1.094,99.9,2.0,,0.0,0.0,
2025-08-15T04:31:58.797Z,14,GR86-037-03,52.6,0.236,1.066,99.89,2.0,5843.0,0.0,0.0,
2025-08-15T04:31:58.840Z,14,GR86-037-03,52.6,0.27,1.113,99.9,2.0,,0.0,0.0,97.17
2025-08-15T04:31:58.884Z,14,GR86-037-03,52.6,0.266,1.058,99.91,2.0,,0.0,0.0,
2025-08-15T04:31:58.926Z,14,GR86-037-03,52.6,0.264,1.032,99.9,2.0,,0.0,0.0,
2025-08-15T04:31:58.969Z,14,GR86-037-03,50.8,0.272,1.043,99.91,2.0,,0.0,0.0,
2025-08-15T04:31:59.012Z,14,GR86-037-03,44.8,0.226,1.062,99.91,2.0,5836.0,0.0,0.0,
2025-08-15T04:31:59.055Z,14,GR86-037-03,36.2,0.251,1.044,99.91,2.0,,0.0,0.0,98.89
2025-08-15T04:31:59.098Z,14,GR86-037-03,28.3,0.235,1.037,99.91,2.0,,0.0,0.0,
2025-08-15T04:31:59.144Z,14,GR86-037-03,21.3,0.257,0.991,99.92,2.0,,0.0,0.0,
2025-08-15T04:31:59.187Z,14,GR86-037-03,20.4,0.272,0.962,99.92,2.0,,0.0,0.0,
2025-08-15T04:31:59.230Z,14,GR86-037-03,20.3,0.271,1.03,99.91,2.0,5951.0,0.0,0.0,
2025-08-15T04:31:59.273Z,14,GR86-037-03,18.6,0.289,1.076,99.91,2.0,,0.0,0.0,100.44
2025-08-15T04:31:59.316Z,14,GR86-037-03,14.7,0.3,1.094,99.91,2.0,,0.0,0.0,
2025-08-15T04:31:59.359Z,14,GR86-037-03,10.4,0.3,1.086,99.91,2.0,,0.0,0.0,
2025-08-15T04:31:59.403Z,14,GR86-037-03,8.700000000000001,0.282,1.072,99.91,2.0,,0.0,0.0,
2025-08-15T04:31:59.447Z,14,GR86-037-03,8.700000000000001,0.288,1.087,99.92,2.0,6120.0,0.0,0.0,
2025-08-15T04:31:59.490Z,14,GR86-037-03,8.700000000000001,0.284,1.062,99.92,2.0,,0.0,0.0,102.23
2025-08-15T04:31:59.533Z,14,GR86-037-03,8.8,0.285,1.052,99.91,2.0,,0.0,0.0,
2025-08-15T04:31:59.576Z,14,GR86-037-03,11.4,0.277,1.005,99.91,2.0,,0.0,0.0,
2025-08-15T04:31:59.619Z,14,GR86-037-03,16.900000000000002,0.279,1.095,99.92,2.0,,0.0,0.0,
2025-08-15T04:31:59.663Z,14,GR86-037-03,31.200000000000003,0.176,1.068,99.91,2.0,6224.0,0.0,0.0,
2025-08-15T04:31:59.706Z,14,GR86-037-03,40.6,0.308,0.937,99.91,2.0,,0.0,0.0,104.04
2025-08-15T04:31:59.749Z,14,GR86-037-03,46.400000000000006,0.33,0.716,99.91,2.0,,0.0,0.0,
2025-08-15T04:31:59.793Z,14,GR86-037-03,46.900000000000006,0.371,1.015,99.92,2.0,,0.0,0.0,
2025-08-15T04:31:59.835Z,14,GR86-037-03,43.6,0.273,1.127,99.92,2.0,,0.0,0.0,
2025-08-15T04:31:59.878Z,14,GR86-037-03,40.7,0.193,0.977,99.91,2.0,6301.0,0.0,0.0,
2025-08-15T04:31:59.923Z,14,GR86-037-03,35.2,0.179,1.217,99.92,2.0,,0.0,0.0,105.59
