timestamp,lap,vehicle_id,steering_angle,accx_can,accy_can,ath,gear,nmot,pbrake_f,pbrake_r,speed
2025-08-15T02:13:45.401Z,18,GR86-016-55,0.8,0.102,-0.066,99.73,5.0,,0.0,0.0,
2025-08-15T02:13:45.444Z,18,GR86-016-55,1.1,0.114,-0.09,99.74,5.0,6348.0,0.0,0.0,
2025-08-15T02:13:45.487Z,18,GR86-016-55,1.3,0.134,-0.089,99.74,5.0,,0.0,0.0,186.47
2025-08-15T02:13:45.532Z,18,GR86-016-55,1.6,0.1,-0.073,99.73,5.0,,0.0,0.0,
2025-08-15T02:13:45.575Z,18,GR86-016-55,1.7000000000000002,0.109,-0.065,99.73,5.0,,0.0,0.0,
2025-08-15T02:13:45.618Z,18,GR86-016-55,1.7000000000000002,0.115,-0.049,99.73,5.0,,0.0,0.0,
2025-08-15T02:13:45.661Z,18,GR86-016-55,1.4,0.111,-0.038,99.74,5.0,6376.0,0.0,0.0,
2025-08-15T02:13:45.704Z,18,GR86-016-55,1.3,0.095,-0.017,99.72,5.0,,0.0,0.0,187.06
2025-08-15T02:13:45.747Z,18,GR86-016-55,1.3,0.102,-0.028,99.74,5.0,,0.0,0.0,
2025-08-15T02:13:45.790Z,18,GR86-016-55,-1.9,0.142,-0.028,99.74,5.0,,0.0,0.0,
2025-08-15T02:13:45.834Z,18,GR86-016-55,-5.9,0.128,-0.06,99.73,5.0,,0.0,0.0,
2025-08-15T02:13:45.877Z,18,GR86-016-55,-10.2,0.114,-0.134,99.74,5.0,6397.0,0.0,0.0,
2025-08-15T02:13:45.920Z,18,GR86-016-55,-12.0,0.13,-0.255,99.75,5.0,,0.0,0.0,187.9
2025-08-15T02:13:45.963Z,18,GR86-016-55,-11.8,0.113,-0.324,99.73,5.0,,0.0,0.0,
2025-08-15T02:13:46.006Z,18,GR86-016-55,-10.2,0.092,-0.387,99.75,5.0,,0.0,0.0,
2025-08-15T02:13:46.049Z,18,GR86-016-55,-8.700000000000001,0.118,-0.421,99.76,5.0,,0.0,0.0,
2025-08-15T02:13:46.092Z,18,GR86-016-55,-8.0,0.129,-0.509,99.72,5.0,6433.0,0.0,0.0,
2025-08-15T02:13:46.135Z,18,GR86-016-55,-7.9,0.11,-0.533,99.73,5.0,,0.0,0.0,188.56
2025-08-15T02:13:46.178Z,18,GR86-016-55,-7.7,0.111,-0.562,99.74,5.0,,0.0,0.0,
2025-08-15T02:13:46.221Z,18,GR86-016-55,-7.4,0.116,-0.558,99.72,5.0,,0.0,0.0,
2025-08-15T02:13:46.264Z,18,GR86-016-55,-5.5,0.113,-0.555,99.75,5.0,,0.0,0.0,
2025-08-15T02:13:46.307Z,18,GR86-016-55,-3.5,0.11,-0.54,99.75,5.0,6443.0,0.0,0.0,
2025-08-15T02:13:46.350Z,18,GR86-016-55,-1.5,0.101,-0.491,99.74,5.0,,0.0,0.0,189.31
2025-08-15T02:13:46.392Z,18,GR86-016-55,-1.2000000000000002,0.112,-0.426,99.72,5.0,,0.0,0.0,
2025-08-15T02:13:46.436Z,18,GR86-016-55,-1.1,0.099,-0.384,99.74,5.0,,0.0,0.0,
2025-08-15T02:13:46.478Z,18,GR86-016-55,-1.2000000000000002,0.11,-0.305,99.73,5.0,,0.0,0.0,
2025-08-15T02:13:46.522Z,18,GR86-016-55,-1.2000000000000002,0.112,-0.264,99.74,5.0,6486.0,0.0,0.0,
2025-08-15T02:13:46.565Z,18,GR86-016-55,-1.1,0.126,-0.211,99.74,5.0,,0.0,0.0,189.97
2025-08-15T02:13:46.608Z,18,GR86-016-55,-1.1,0.123,-0.155,99.74,5.0,,0.0,0.0,
2025-08-15T02:13:46.651Z,18,GR86-016-55,-1.1,0.106,-0.125,99.75,5.0,,0.0,0.0,
2025-08-15T02:13:46.694Z,18,GR86-016-55,-1.1,0.088,-0.12,99.72,5.0,,0.0,0.0,
2025-08-15T02:13:46.737Z,18,GR86-016-55,-0.2,0.116,-0.102,99.75,5.0,6493.0,0.0,0.0,
2025-08-15T02:13:46.780Z,18,GR86-016-55,0.7000000000000001,0.103,-0.1,99.74,5.0,,0.0,0.0,190.76
2025-08-15T02:13:46.825Z,18,GR86-016-55,1.6,0.12,-0.091,99.73,5.0,,0.0,0.0,
2025-08-15T02:13:46.868Z,18,GR86-016-55,2.5,0.117,-0.076,99.73,5.0,,0.0,0.0,
2025-08-15T02:13:46.911Z,18,GR86-016-55,3.6,0.108,-0.021,99.72,5.0,,0.0,0.0,
2025-08-15T02:13:46.954Z,18,GR86-016-55,4.2,0.089,0.015,99.75,5.0,6509.0,0.0,0.0,
2025-08-15T02:13:46.997Z,18,GR86-016-55,4.800000000000001,0.107,0.035,99.72,5.0,,0.0,0.0,191.45
2025-08-15T02:13:47.040Z,18,GR86-016-55,5.1000000000000005,0.12,0.047,99.73,5.0,,0.0,0.0,
2025-08-15T02:13:47.086Z,18,GR86-016-55,5.300000000000001,0.097,0.068,99.74,5.0,,0.0,0.0,
2025-08-15T02:13:47.129Z,18,GR86-016-55,5.2,0.113,0.099,99.72,5.0,,0.0,0.0,
2025-08-15T02:13:47.172Z,18,GR86-016-55,5.2,0.121,0.13,99.75,5.0,6546.0,0.0,0.0,
2025-08-15T02:13:47.215Z,18,GR86-016-55,5.4,0.108,0.171,99.72,5.0,,0.0,0.0,192.13
2025-08-15T02:13:47.258Z,18,GR86-016-55,5.5,0.1,0.165,99.74,5.0,,0.0,0.0,
2025-08-15T02:13:47.301Z,18,GR86-016-55,5.6000000000000005,0.136,0.184,99.73,5.0,,0.0,0.0,
2025-08-15T02:13:47.344Z,18,GR86-016-55,5.800000000000001,0.096,0.171,99.73,5.0,,0.0,0.0,
2025-08-15T02:13:47.387Z,18,GR86-016-55,5.800000000000001,0.115,0.168,99.73,5.0,6575.0,0.0,0.0,
2025-08-15T02:13:47.432Z,18,GR86-016-55,5.9,0.139,0.177,99.74,5.0,,0.0,0.0,193.78
2025-08-15T02:13:47.475Z,18,GR86-016-55,5.9,0.101,0.203,99.73,5.0,,0.0,0.0,
2025-08-15T02:13:47.518Z,18,GR86-016-55,6.300000000000001,0.109,0.186,99.72,5.0,,0.0,0.0,
2025-08-15T02:13:47.561Z,18,GR86-016-55,6.7,0.109,0.197,99.74,5.0,,0.0,0.0,
2025-08-15T02:13:47.604Z,18,GR86-016-55,6.800000000000001,0.116,0.202,99.73,5.0,6597.0,0.0,0.0,
2025-08-15T02:13:47.647Z,18,GR86-016-55,6.800000000000001,0.09,0.201,99.74,5.0,,0.0,0.0,194.5
2025-08-15T02:13:47.690Z,18,GR86-016-55,6.800000000000001,0.114,0.233,99.72,5.0,,0.0,0.0,
2025-08-15T02:13:47.734Z,18,GR86-016-55,6.800000000000001,0.125,0.231,99.75,5.0,,0.0,0.0,
2025-08-15T02:13:47.777Z,18,GR86-016-55,6.800000000000001,0.102,0.243,99.73,5.0,,0.0,0.0,
2025-08-15T02:13:47.820Z,18,GR86-016-55,6.6000000000000005,0.111,0.228,99.74,5.0,6631.0,0.0,0.0,
2025-08-15T02:13:47.863Z,18,GR86-016-55,6.300000000000001,0.112,0.227,99.75,5.0,,0.0,0.0,195.22
2025-08-15T02:13:47.906Z,18,GR86-016-55,6.2,0.107,0.219,99.75,5.0,,0.0,0.0,
2025-08-15T02:13:47.948Z,18,GR86-016-55,6.2,0.101,0.205,99.75,5.0,,0.0,0.0,
2025-08-15T02:13:47.992Z,18,GR86-016-55,6.1000000000000005,0.1,0.198,99.72,5.0,,0.0,0.0,
2025-08-15T02:13:48.035Z,18,GR86-016-55,6.1000000000000005,0.124,0.179,99.75,5.0,6678.0,0.0,0.0,
2025-08-15T02:13:48.078Z,18,GR86-016-55,6.1000000000000005,0.092,0.173,99.74,5.0,,0.0,0.0,196.0
2025-08-15T02:13:48.121Z,18,GR86-016-55,6.1000000000000005,0.11,0.163,99.73,5.0,,0.0,0.0,
2025-08-15T02:13:48.164Z,18,GR86-016-55,6.1000000000000005,0.089,0.162,99.73,5.0,,0.0,0.0,
2025-08-15T02:13:48.207Z,18,GR86-016-55,6.1000000000000005,0.128,0.169,99.74,5.0,,0.0,0.0,
2025-08-15T02:13:48.250Z,18,GR86-016-55,6.1000000000000005,0.113,0.159,99.76,5.0,6690.0,0.0,0.0,
2025-08-15T02:13:48.293Z,18,GR86-016-55,5.9,0.1,0.154,99.72,5.0,,0.0,0.0,196.79
2025-08-15T02:13:48.336Z,18,GR86-016-55,5.800000000000001,0.104,0.168,99.71,5.0,,0.0,0.0,
2025-08-15T02:13:48.380Z,18,GR86-016-55,5.7,0.093,0.159,99.74,5.0,,0.0,0.0,
2025-08-15T02:13:48.423Z,18,GR86-016-55,5.6000000000000005,0.111,0.171,99.75,5.0,,0.0,0.0,
2025-08-15T02:13:48.466Z,18,GR86-016-55,5.7,0.098,0.122,99.72,5.0,6719.0,0.0,0.0,
2025-08-15T02:13:48.509Z,18,GR86-016-55,6.300000000000001,0.108,0.137,99.72,5.0,,0.0,0.0,197.57
2025-08-15T02:13:48.552Z,18,GR86-016-55,6.6000000000000005,0.098,0.126,99.75,5.0,,0.0,0.0,
2025-08-15T02:13:48.595Z,18,GR86-016-55,6.300000000000001,0.074,0.155,99.75,5.0,,0.0,0.0,
2025-08-15T02:13:48.638Z,18,GR86-016-55,6.1000000000000005,0.099,0.154,99.73,5.0,,0.0,0.0,
2025-08-15T02:13:48.681Z,18,GR86-016-55,6.1000000000000005,0.1,0.166,99.74,5.0,6740.0,0.0,0.0,
2025-08-15T02:13:48.724Z,18,GR86-016-55,6.2,0.093,0.158,99.74,5.0,,0.0,0.0,198.35
2025-08-15T02:13:48.767Z,18,GR86-016-55,6.4,0.099,0.183,99.73,5.0,,0.0,0.0,
2025-08-15T02:13:48.810Z,18,GR86-016-55,6.9,0.098,0.167,99.73,5.0,,0.0,0.0,
2025-08-15T02:13:48.853Z,18,GR86-016-55,7.2,0.106,0.165,99.74,5.0,,0.0,0.0,
2025-08-15T02:13:48.938Z,18,GR86-016-55,7.300000000000001,0.106,0.184,99.76,5.0,6780.0,0.0,0.0,199.03
2025-08-15T02:13:48.982Z,18,GR86-016-55,7.0,0.119,0.235,99.73,5.0,,0.0,0.0,
2025-08-15T02:13:49.025Z,18,GR86-016-55,7.0,0.105,0.243,99.74,5.0,,0.0,0.0,
2025-08-15T02:13:49.068Z,18,GR86-016-55,7.0,0.112,0.255,99.73,5.0,,0.0,0.0,
2025-08-15T02:13:49.111Z,18,GR86-016-55,7.2,0.116,0.241,99.72,5.0,6803.0,0.0,0.0,
2025-08-15T02:13:49.154Z,18,GR86-016-55,7.300000000000001,0.111,0.269,99.73,5.0,,0.0,0.0,199.69
2025-08-15T02:13:49.197Z,18,GR86-016-55,7.0,0.09,0.266,99.73,5.0,,0.0,0.0,
2025-08-15T02:13:49.240Z,18,GR86-016-55,6.800000000000001,0.121,0.266,99.73,5.0,,0.0,0.0,
2025-08-15T02:13:49.283Z,18,GR86-016-55,6.6000000000000005,0.103,0.252,99.72,5.0,,0.0,0.0,
2025-08-15T02:13:49.326Z,18,GR86-016-55,6.6000000000000005,0.104,0.256,99.75,5.0,6818.0,0.0,0.0,
2025-08-15T02:13:49.368Z,18,GR86-016-55,6.4,0.114,0.226,99.73,5.0,,0.0,0.0,200.45
2025-08-15T02:13:49.412Z,18,GR86-016-55,6.4,0.121,0.196,99.72,5.0,,0.0,0.0,
2025-08-15T02:13:49.455Z,18,GR86-016-55,6.4,0.089,0.182,99.75,5.0,,0.0,0.0,
2025-08-15T02:13:49.498Z,18,GR86-016-55,6.300000000000001,0.094,0.171,99.74,5.0,,0.0,0.0,
2025-08-15T02:13:49.541Z,18,GR86-016-55,6.300000000000001,0.1,0.15,99.74,5.0,6863.0,0.0,0.0,
2025-08-15T02:13:49.587Z,18,GR86-016-55,5.9,0.115,0.147,99.74,5.0,,0.0,0.0,201.38
2025-08-15T02:13:49.632Z,18,GR86-016-55,5.7,0.103,0.117,99.73,5.0,,0.0,0.0,
2025-08-15T02:13:49.675Z,18,GR86-016-55,5.6000000000000005,0.088,0.106,99.73,5.0,,0.0,0.0,
2025-08-15T02:13:49.718Z,18,GR86-016-55,5.300000000000001,0.121,0.119,99.74,5.0,,0.0,0.0,
2025-08-15T02:13:49.761Z,18,GR86-016-55,4.7,0.065,0.103,99.73,5.0,6878.0,0.0,0.0,
2025-08-15T02:13:49.804Z,18,GR86-016-55,4.6000000000000005,0.112,0.086,99.75,5.0,,0.0,0.0,202.13
2025-08-15T02:13:49.847Z,18,GR86-016-55,4.5,0.083,0.055,99.73,5.0,,0.0,0.0,
2025-08-15T02:13:49.892Z,18,GR86-016-55,3.7,0.088,0.039,99.74,5.0,,0.0,0.0,
2025-08-15T02:13:49.935Z,18,GR86-016-55,2.9000000000000004,0.104,0.02,99.73,5.0,,0.0,0.0,
2025-08-15T02:13:49.978Z,18,GR86-016-55,2.4000000000000004,0.112,-0.011,99.76,5.0,6909.0,0.0,0.0,
2025-08-15T02:13:50.021Z,18,GR86-016-55,2.2,0.086,-0.025,99.76,5.0,,0.0,0.0,202.83
2025-08-15T02:13:50.064Z,18,GR86-016-55,2.2,0.101,-0.041,99.75,5.0,,0.0,0.0,
2025-08-15T02:13:50.107Z,18,GR86-016-55,2.2,0.113,-0.051,99.75,5.0,,0.0,0.0,
2025-08-15T02:13:50.150Z,18,GR86-016-55,2.1,0.085,-0.075,99.73,5.0,,0.0,0.0,
2025-08-15T02:13:50.194Z,18,GR86-016-55,2.0,0.11,-0.072,99.74,5.0,6924.0,0.0,0.0,
2025-08-15T02:13:50.237Z,18,GR86-016-55,1.4,0.086,-0.071,99.74,5.0,,0.0,0.0,204.38
2025-08-15T02:13:50.280Z,18,GR86-016-55,1.1,0.104,-0.063,99.74,5.0,,0.0,0.0,
2025-08-15T02:13:50.323Z,18,GR86-016-55,1.1,0.094,-0.073,99.73,5.0,,0.0,0.0,
2025-08-15T02:13:50.366Z,18,GR86-016-55,1.1,0.075,-0.058,99.75,5.0,,0.0,0.0,
2025-08-15T02:13:50.409Z,18,GR86-016-55,1.1,0.091,-0.089,99.73,5.0,6953.0,0.0,0.0,
2025-08-15T02:13:50.452Z,18,GR86-016-55,1.1,0.085,-0.099,99.74,5.0,,0.0,0.0,205.12
2025-08-15T02:13:50.495Z,18,GR86-016-55,1.1,0.106,-0.103,99.73,5.0,,0.0,0.0,
2025-08-15T02:13:50.538Z,18,GR86-016-55,1.1,0.074,-0.104,99.74,5.0,,0.0,0.0,
2025-08-15T02:13:50.581Z,18,GR86-016-55,1.1,0.078,-0.097,99.73,5.0,,0.0,0.0,
2025-08-15T02:13:50.624Z,18,GR86-016-55,1.1,0.095,-0.1,99.73,5.0,6983.0,0.0,0.0,
2025-08-15T02:13:50.667Z,18,GR86-016-55,1.2000000000000002,0.089,-0.094,99.74,5.0,,0.0,0.0,205.91
2025-08-15T02:13:50.710Z,18,GR86-016-55,1.3,0.098,-0.071,99.73,5.0,,0.0,0.0,
2025-08-15T02:13:50.754Z,18,GR86-016-55,1.3,0.076,-0.064,99.74,5.0,,0.0,0.0,
2025-08-15T02:13:50.797Z,18,GR86-016-55,1.4,0.077,-0.047,99.74,5.0,,0.0,0.0,
2025-08-15T02:13:50.840Z,18,GR86-016-55,1.5,0.111,-0.043,99.73,5.0,7028.0,0.0,0.0,
2025-08-15T02:13:50.883Z,18,GR86-016-55,1.5,0.094,-0.009,99.73,5.0,,0.0,0.0,206.56
2025-08-15T02:13:50.926Z,18,GR86-016-55,1.6,0.075,-0.014,99.74,5.0,,0.0,0.0,
2025-08-15T02:13:50.969Z,18,GR86-016-55,1.6,0.097,-0.013,99.73,5.0,,0.0,0.0,
2025-08-15T02:13:51.012Z,18,GR86-016-55,1.7000000000000002,0.089,0.006,99.74,5.0,,0.0,0.0,
2025-08-15T02:13:51.055Z,18,GR86-016-55,1.7000000000000002,0.102,0.021,99.75,5.0,7043.0,0.0,0.0,
2025-08-15T02:13:51.098Z,18,GR86-016-55,2.6,0.102,0.023,99.73,5.0,,0.0,0.0,207.27
2025-08-15T02:13:51.141Z,18,GR86-016-55,6.300000000000001,0.072,0.03,99.74,5.0,,0.0,0.0,
2025-08-15T02:13:51.185Z,18,GR86-016-55,11.8,0.097,0.056,99.73,5.0,,0.0,0.0,
2025-08-15T02:13:51.228Z,18,GR86-016-55,19.4,0.114,0.147,99.74,5.0,,0.0,0.0,
2025-08-15T02:13:51.272Z,18,GR86-016-55,27.5,0.087,0.376,99.74,5.0,7065.0,0.0,0.0,
2025-08-15T02:13:51.315Z,18,GR86-016-55,27.5,0.072,0.519,99.74,5.0,,0.0,0.0,207.96
2025-08-15T02:13:51.358Z,18,GR86-016-55,27.3,0.089,0.623,99.74,5.0,,0.0,0.0,
2025-08-15T02:13:51.401Z,18,GR86-016-55,27.3,0.088,0.78,99.73,5.0,,0.0,0.0,
2025-08-15T02:13:51.444Z,18,GR86-016-55,25.0,0.073,0.883,99.74,5.0,,0.0,0.0,
2025-08-15T02:13:51.487Z,18,GR86-016-55,17.3,0.081,0.892,99.77,5.0,7087.0,0.0,0.0,
2025-08-15T02:13:51.532Z,18,GR86-016-55,4.7,0.119,0.853,99.74,5.0,,0.0,0.0,208.61
2025-08-15T02:13:51.575Z,18,GR86-016-55,3.5,0.095,0.787,99.76,5.0,,0.0,0.0,
2025-08-15T02:13:51.618Z,18,GR86-016-55,3.5,0.082,0.685,99.77,5.0,,0.0,0.0,
2025-08-15T02:13:51.661Z,18,GR86-016-55,3.9,0.078,0.521,99.73,5.0,,0.0,0.0,
2025-08-15T02:13:51.704Z,18,GR86-016-55,3.5,0.073,0.356,99.76,5.0,7146.0,0.0,0.0,
2025-08-15T02:13:51.747Z,18,GR86-016-55,3.3000000000000003,0.073,0.206,99.73,5.0,,0.0,0.0,209.38
2025-08-15T02:13:51.790Z,18,GR86-016-55,3.2,0.06,0.009,99.75,5.0,,0.0,0.0,
2025-08-15T02:13:51.834Z,18,GR86-016-55,3.1,0.07,-0.06,99.73,5.0,,0.0,0.0,
2025-08-15T02:13:51.877Z,18,GR86-016-55,3.1,0.057,-0.097,99.75,5.0,,0.0,0.0,
2025-08-15T02:13:51.920Z,18,GR86-016-55,3.1,0.059,-0.106,99.72,5.0,7148.0,0.0,0.0,
2025-08-15T02:13:51.963Z,18,GR86-016-55,3.1,0.065,-0.11,99.74,5.0,,0.0,0.0,210.03
2025-08-15T02:13:52.007Z,18,GR86-016-55,3.1,0.07,-0.107,99.76,5.0,,0.0,0.0,
2025-08-15T02:13:52.050Z,18,GR86-016-55,2.7,0.064,-0.056,99.73,5.0,,0.0,0.0,
2025-08-15T02:13:52.092Z,18,GR86-016-55,2.2,0.062,-0.038,99.73,5.0,,0.0,0.0,
2025-08-15T02:13:52.136Z,18,GR86-016-55,1.9,0.062,-0.022,99.74,5.0,7139.0,0.0,0.0,
2025-08-15T02:13:52.178Z,18,GR86-016-55,1.6,0.057,-0.046,99.72,5.0,,0.0,0.0,210.19
2025-08-15T02:13:52.222Z,18,GR86-016-55,1.0,0.063,-0.07,99.73,5.0,,0.0,0.0,
2025-08-15T02:13:52.265Z,18,GR86-016-55,0.5,0.074,-0.108,99.7,5.0,,0.0,0.0,
2025-08-15T02:13:52.308Z,18,GR86-016-55,0.4,0.076,-0.126,99.74,5.0,,0.0,0.0,
2025-08-15T02:13:52.351Z,18,GR86-016-55,0.5,0.072,-0.156,99.73,5.0,7148.0,0.0,0.0,
2025-08-15T02:13:52.394Z,18,GR86-016-55,1.2000000000000002,0.062,-0.136,99.74,5.0,,0.0,0.0,210.68
2025-08-15T02:13:52.437Z,18,GR86-016-55,1.7000000000000002,0.077,-0.146,99.74,5.0,,0.0,0.0,
2025-08-15T02:13:52.480Z,18,GR86-016-55,1.7000000000000002,0.074,-0.128,99.73,5.0,,0.0,0.0,
2025-08-15T02:13:52.525Z,18,GR86-016-55,1.6,0.061,-0.131,99.74,5.0,,0.0,0.0,
2025-08-15T02:13:52.568Z,18,GR86-016-55,1.4,0.058,-0.135,99.72,5.0,7169.0,0.0,0.0,
2025-08-15T02:13:52.611Z,18,GR86-016-55,1.4,0.062,-0.078,99.74,5.0,,0.0,0.0,210.96
2025-08-15T02:13:52.655Z,18,GR86-016-55,1.4,0.068,-0.067,99.73,5.0,,0.0,0.0,
2025-08-15T02:13:52.698Z,18,GR86-016-55,1.6,0.055,-0.06,99.74,5.0,,0.0,0.0,
2025-08-15T02:13:52.742Z,18,GR86-016-55,1.5,0.088,-0.058,99.73,5.0,,0.0,0.0,
2025-08-15T02:13:52.786Z,18,GR86-016-55,1.4,0.05,-0.073,99.72,5.0,7184.0,0.0,0.0,
2025-08-15T02:13:52.828Z,18,GR86-016-55,1.4,0.078,-0.056,99.74,5.0,,18.465,18.8,211.45
2025-08-15T02:13:52.872Z,18,GR86-016-55,1.4,-0.039,-0.073,99.73,5.0,,18.71,19.73,
2025-08-15T02:13:52.915Z,18,GR86-016-55,1.7000000000000002,-0.12,-0.061,99.72,5.0,,10.5,11.55,
2025-08-15T02:13:52.958Z,18,GR86-016-55,3.0,-0.02,-0.014,99.7,5.0,,3.31,3.935,
2025-08-15T02:13:53.001Z,18,GR86-016-55,4.7,0.058,-0.035,99.74,5.0,7198.0,0.0,0.0,
2025-08-15T02:13:53.044Z,18,GR86-016-55,5.300000000000001,0.092,0.0,99.73,5.0,,0.0,0.0,212.49
2025-08-15T02:13:53.087Z,18,GR86-016-55,5.1000000000000005,0.049,0.036,99.72,5.0,,0.0,0.0,
2025-08-15T02:13:53.132Z,18,GR86-016-55,4.7,0.069,0.083,99.74,5.0,,0.0,0.0,
2025-08-15T02:13:53.175Z,18,GR86-016-55,4.5,0.07,0.074,99.73,5.0,,0.0,0.0,
2025-08-15T02:13:53.218Z,18,GR86-016-55,4.0,0.071,0.068,99.72,5.0,7218.0,0.0,0.0,
2025-08-15T02:13:53.261Z,18,GR86-016-55,2.4000000000000004,0.065,0.102,99.73,5.0,,0.0,0.0,212.37
2025-08-15T02:13:53.304Z,18,GR86-016-55,0.5,0.074,0.09,99.73,5.0,,0.0,0.0,
2025-08-15T02:13:53.347Z,18,GR86-016-55,-0.6000000000000001,0.072,0.043,99.74,5.0,,0.0,0.0,
2025-08-15T02:13:53.390Z,18,GR86-016-55,-0.5,0.075,-0.06,99.76,5.0,,0.0,0.0,
2025-08-15T02:13:53.433Z,18,GR86-016-55,-0.4,0.065,-0.095,99.71,5.0,7231.0,0.0,0.0,
2025-08-15T02:13:53.476Z,18,GR86-016-55,-0.3,0.079,-0.13,99.74,5.0,,0.0,0.0,212.88
2025-08-15T02:13:53.518Z,18,GR86-016-55,-0.2,0.066,-0.134,99.73,5.0,,0.0,0.0,
2025-08-15T02:13:53.562Z,18,GR86-016-55,1.0,0.077,-0.165,99.72,5.0,,0.0,0.0,
2025-08-15T02:13:53.605Z,18,GR86-016-55,1.9,0.064,-0.114,99.73,5.0,,0.0,0.0,
2025-08-15T02:13:53.648Z,18,GR86-016-55,1.9,0.09,-0.098,99.74,5.0,7243.0,0.0,0.0,
2025-08-15T02:13:53.691Z,18,GR86-016-55,1.7000000000000002,0.078,-0.059,99.72,5.0,,0.0,0.0,213.42
2025-08-15T02:13:53.734Z,18,GR86-016-55,1.6,0.069,-0.051,99.73,5.0,,0.0,0.0,
2025-08-15T02:13:53.777Z,18,GR86-016-55,1.4,0.067,-0.034,99.76,5.0,,0.0,0.0,
2025-08-15T02:13:53.820Z,18,GR86-016-55,1.4,0.066,-0.042,99.71,5.0,,0.0,0.0,
2025-08-15T02:13:53.863Z,18,GR86-016-55,1.3,0.068,-0.033,99.74,5.0,7272.0,0.0,0.0,
2025-08-15T02:13:53.906Z,18,GR86-016-55,1.3,0.062,-0.054,99.73,5.0,,0.0,0.0,213.87
2025-08-15T02:13:53.948Z,18,GR86-016-55,1.3,0.054,-0.052,99.72,5.0,,6.6850000000000005,7.05,
2025-08-15T02:13:53.992Z,18,GR86-016-55,3.2,-0.085,-0.055,71.36,5.0,,53.58,53.24,
2025-08-15T02:13:54.035Z,18,GR86-016-55,4.7,-0.587,-0.046,3.56,5.0,,71.465,70.745,
2025-08-15T02:13:54.078Z,18,GR86-016-55,5.4,-1.06,-0.041,4.25,5.0,7291.0,81.275,80.83,
2025-08-15T02:13:54.121Z,18,GR86-016-55,5.5,-1.356,-0.054,4.17,5.0,,77.37,78.39,214.29
2025-08-15T02:13:54.164Z,18,GR86-016-55,4.0,-1.227,-0.024,3.95,5.0,,55.15,57.15,
2025-08-15T02:13:54.207Z,18,GR86-016-55,3.5,-0.915,-0.078,3.63,5.0,,47.185,48.39,
2025-08-15T02:13:54.250Z,18,GR86-016-55,11.4,-1.191,-0.038,3.1,5.0,,66.395,67.145,
2025-08-15T02:13:54.293Z,18,GR86-016-55,16.2,-1.152,-0.056,2.95,5.0,7260.0,68.715,70.21000000000001,
2025-08-15T02:13:54.336Z,18,GR86-016-55,16.400000000000002,-1.153,-0.027,2.88,5.0,,47.705,49.52,214.64
2025-08-15T02:13:54.378Z,18,GR86-016-55,8.9,-0.669,0.032,2.81,5.0,,36.06,37.265,
2025-08-15T02:13:54.422Z,18,GR86-016-55,4.1000000000000005,-0.854,-0.114,2.76,5.0,,42.925,43.46,
2025-08-15T02:13:54.465Z,18,GR86-016-55,3.8,-0.99,-0.133,2.71,5.0,,57.44,57.44,
2025-08-15T02:13:54.508Z,18,GR86-016-55,8.4,-1.186,-0.097,2.65,5.0,6615.0,65.265,65.42,
2025-08-15T02:13:54.551Z,18,GR86-016-55,12.4,-1.247,-0.08,2.62,5.0,,68.87,70.09,208.44
2025-08-15T02:13:54.594Z,18,GR86-016-55,11.9,-1.264,0.004,2.62,5.0,,73.845,75.125,
2025-08-15T02:13:54.637Z,18,GR86-016-55,5.1000000000000005,-1.265,-0.048,25.4,5.0,,77.275,77.795,
2025-08-15T02:13:54.680Z,18,GR86-016-55,-0.8,-1.296,-0.118,57.06,4.0,,79.595,80.94,
2025-08-15T02:13:54.723Z,18,GR86-016-55,-3.1,-1.292,-0.219,7.890000000000001,4.0,6537.0,76.3,77.14,
2025-08-15T02:13:54.766Z,18,GR86-016-55,-2.7,-1.216,-0.259,4.3500000000000005,4.0,,61.3,63.025,200.51
2025-08-15T02:13:54.808Z,18,GR86-016-55,8.200000000000001,-1.093,-0.27,4.21,4.0,,48.985,50.495000000000005,
2025-08-15T02:13:54.852Z,18,GR86-016-55,26.8,-1.144,-0.117,3.87,4.0,,47.735,48.555,
2025-08-15T02:13:54.895Z,18,GR86-016-55,29.200000000000003,-1.01,0.031,3.48,4.0,,58.31,59.24,
2025-08-15T02:13:54.938Z,18,GR86-016-55,25.5,-1.115,-0.108,3.0700000000000003,4.0,6084.0,63.285,63.895,
2025-08-15T02:13:54.981Z,18,GR86-016-55,14.8,-1.139,-0.09,2.95,4.0,,65.77,66.67,193.53
2025-08-15T02:13:55.024Z,18,GR86-016-55,3.7,-1.194,-0.149,2.84,4.0,,63.71,65.205,
2025-08-15T02:13:55.067Z,18,GR86-016-55,-5.5,-1.098,-0.307,2.78,4.0,,54.325,56.065,
2025-08-15T02:13:55.110Z,18,GR86-016-55,-10.3,-1.024,-0.279,2.68,4.0,,47.870000000000005,48.39,
2025-08-15T02:13:55.153Z,18,GR86-016-55,-10.4,-1.005,-0.274,21.53,3.0,6422.0,49.23,49.7,
2025-08-15T02:13:55.196Z,18,GR86-016-55,-7.800000000000001,-1.049,-0.303,49.84,3.0,,51.99,52.525,183.89
2025-08-15T02:13:55.239Z,18,GR86-016-55,-6.4,-1.169,-0.231,4.33,3.0,,53.335,54.495000000000005,
2025-08-15T02:13:55.282Z,18,GR86-016-55,-6.2,-1.124,-0.253,4.44,3.0,,53.58,55.01,
2025-08-15T02:13:55.325Z,18,GR86-016-55,-1.4,-1.018,-0.532,4.28,3.0,,54.295,54.86,
2025-08-15T02:13:55.368Z,18,GR86-016-55,12.6,-1.155,-0.34,4.08,3.0,6606.0,51.455,52.585,
2025-08-15T02:13:55.411Z,18,GR86-016-55,33.2,-0.899,-0.455,3.51,3.0,,33.405,34.455,177.02
2025-08-15T02:13:55.454Z,18,GR86-016-55,33.5,-0.62,-0.339,3.0700000000000003,3.0,,26.995,28.0,
2025-08-15T02:13:55.497Z,18,GR86-016-55,29.200000000000003,-0.866,-0.313,2.92,3.0,,32.96,33.525,
2025-08-15T02:13:55.540Z,18,GR86-016-55,23.6,-0.845,-0.431,2.84,3.0,,45.75,45.965,
2025-08-15T02:13:55.583Z,18,GR86-016-55,10.5,-1.037,-0.417,2.78,3.0,6660.0,56.34,56.43,
2025-08-15T02:13:55.626Z,18,GR86-016-55,-6.2,-1.059,-0.459,2.72,3.0,,65.235,65.955,169.42000000000002
2025-08-15T02:13:55.668Z,18,GR86-016-55,-22.0,-1.012,-0.627,2.68,3.0,,70.12,71.615,
2025-08-15T02:13:55.712Z,18,GR86-016-55,-31.0,-0.986,-0.635,2.62,3.0,,68.745,69.34,
2025-08-15T02:13:55.755Z,18,GR86-016-55,-30.8,-1.002,-0.601,2.6,3.0,,69.02,70.18,
2025-08-15T02:13:55.798Z,18,GR86-016-55,-30.3,-1.049,-0.737,2.59,3.0,7051.0,66.795,68.625,
2025-08-15T02:13:55.841Z,18,GR86-016-55,-29.700000000000003,-1.014,-0.776,2.58,3.0,,65.3,66.215,158.33
2025-08-15T02:13:55.887Z,18,GR86-016-55,-28.9,-1.077,-0.643,2.58,3.0,,65.8,66.58,
2025-08-15T02:13:55.932Z,18,GR86-016-55,-17.2,-0.866,-0.764,2.5500000000000003,3.0,,65.145,66.135,
2025-08-15T02:13:55.975Z,18,GR86-016-55,-9.5,-0.854,-0.8150000000000001,2.5500000000000003,3.0,,52.615,54.02,
2025-08-15T02:13:56.018Z,18,GR86-016-55,-4.4,-0.771,-0.77,2.5500000000000003,3.0,6967.0,41.555,42.895,
2025-08-15T02:13:56.061Z,18,GR86-016-55,3.7,-0.735,-0.754,2.54,3.0,,32.715,33.65,149.22
2025-08-15T02:13:56.104Z,18,GR86-016-55,7.2,-0.72,-0.788,2.53,3.0,,30.93,31.45,
2025-08-15T02:13:56.147Z,18,GR86-016-55,7.800000000000001,-0.669,-0.8270000000000001,2.52,3.0,,27.65,28.75,
2025-08-15T02:13:56.192Z,18,GR86-016-55,11.7,-0.644,-0.836,2.53,3.0,,23.655,24.46,
2025-08-15T02:13:56.278Z,18,GR86-016-55,2.7,-0.637,-0.876,2.52,3.0,6350.0,24.83,25.575,143.9
2025-08-15T02:13:56.322Z,18,GR86-016-55,-30.700000000000003,-0.637,-1.02,2.52,3.0,,27.055,27.59,
2025-08-15T02:13:56.365Z,18,GR86-016-55,-37.5,-0.594,-1.042,2.52,3.0,,28.46,29.115,
2025-08-15T02:13:56.408Z,18,GR86-016-55,-37.7,-0.614,-1.068,2.51,3.0,,26.2,27.15,
2025-08-15T02:13:56.451Z,18,GR86-016-55,-37.8,-0.532,-1.185,2.52,3.0,6131.0,10.5,11.43,
2025-08-15T02:13:56.495Z,18,GR86-016-55,-37.4,-0.455,-1.201,2.5,3.0,,3.035,3.645,140.45000000000002
2025-08-15T02:13:56.538Z,18,GR86-016-55,-34.0,-0.343,-1.234,2.52,3.0,,0.0,0.0,
2025-08-15T02:13:56.581Z,18,GR86-016-55,-23.8,-0.192,-1.197,2.53,3.0,,0.0,0.0,
2025-08-15T02:13:56.624Z,18,GR86-016-55,-16.2,-0.146,-1.194,17.77,3.0,,0.0,0.0,
2025-08-15T02:13:56.667Z,18,GR86-016-55,-15.4,-0.184,-1.2,17.55,3.0,5852.0,0.0,0.0,
2025-08-15T02:13:56.710Z,18,GR86-016-55,-23.5,-0.119,-1.204,12.77,3.0,,0.0,0.0,135.41
2025-08-15T02:13:56.753Z,18,GR86-016-55,-30.8,-0.131,-1.271,2.71,3.0,,0.0,0.0,
2025-08-15T02:13:56.796Z,18,GR86-016-55,-37.2,-0.101,-1.233,2.74,3.0,,0.0,0.0,
2025-08-15T02:13:56.840Z,18,GR86-016-55,-38.2,-0.127,-1.269,2.73,3.0,,0.0,0.0,
2025-08-15T02:13:56.883Z,18,GR86-016-55,-38.1,-0.212,-1.298,22.76,3.0,5934.0,0.0,0.0,
2025-08-15T02:13:56.926Z,18,GR86-016-55,-43.3,-0.206,-1.259,62.73,3.0,,0.0,0.0,132.56
2025-08-15T02:13:56.969Z,18,GR86-016-55,-48.5,-0.129,-1.288,97.83,3.0,,0.0,0.0,
2025-08-15T02:13:57.012Z,18,GR86-016-55,-48.3,-0.11,-1.22,99.64,3.0,,0.0,0.0,
2025-08-15T02:13:57.056Z,18,GR86-016-55,-47.8,0.188,-1.221,99.66,3.0,,0.0,0.0,
2025-08-15T02:13:57.098Z,18,GR86-016-55,-48.7,0.181,-1.219,99.66,3.0,5892.0,0.0,0.0,
2025-08-15T02:13:57.142Z,18,GR86-016-55,-51.1,0.202,-1.187,99.67,3.0,,0.0,0.0,131.01
2025-08-15T02:13:57.185Z,18,GR86-016-55,-52.2,0.224,-1.187,99.67,3.0,,0.0,0.0,
2025-08-15T02:13:57.228Z,18,GR86-016-55,-52.6,0.17,-1.172,99.66,3.0,,0.0,0.0,
2025-08-15T02:13:57.271Z,18,GR86-016-55,-55.0,0.146,-1.173,99.68,3.0,,0.0,0.0,
2025-08-15T02:13:57.314Z,18,GR86-016-55,-55.7,0.146,-1.191,99.67,3.0,6286.0,0.0,0.0,
2025-08-15T02:13:57.357Z,18,GR86-016-55,-55.7,0.165,-1.211,99.66,3.0,,0.0,0.0,129.3
2025-08-15T02:13:57.400Z,18,GR86-016-55,-57.1,0.153,-1.214,99.69,3.0,,0.0,0.0,
2025-08-15T02:13:57.443Z,18,GR86-016-55,-60.6,0.127,-1.272,99.68,3.0,,0.0,0.0,
2025-08-15T02:13:57.486Z,18,GR86-016-55,-64.9,0.147,-1.133,99.71,3.0,,0.0,0.0,
2025-08-15T02:13:57.532Z,18,GR86-016-55,-66.3,0.096,-1.219,77.27,3.0,6159.0,0.0,0.0,
2025-08-15T02:13:57.575Z,18,GR86-016-55,-66.3,0.124,-1.22,5.49,3.0,,0.0,0.0,128.06
2025-08-15T02:13:57.618Z,18,GR86-016-55,-66.4,0.153,-1.174,7.78,3.0,,0.0,0.0,
2025-08-15T02:13:57.661Z,18,GR86-016-55,-67.2,0.038,-1.187,45.32,3.0,,0.0,0.0,
2025-08-15T02:13:57.704Z,18,GR86-016-55,-67.5,-0.154,-1.217,89.86,3.0,,0.0,0.0,
2025-08-15T02:13:57.747Z,18,GR86-016-55,-67.4,-0.138,-1.141,99.57,3.0,6180.0,0.0,0.0,
2025-08-15T02:13:57.790Z,18,GR86-016-55,-68.5,-0.128,-1.324,99.69,3.0,,0.0,0.0,128.59
2025-08-15T02:13:57.834Z,18,GR86-016-55,-69.4,0.358,-1.104,99.7,3.0,,0.0,0.0,
2025-08-15T02:13:57.877Z,18,GR86-016-55,-70.60000000000001,0.21,-1.258,99.7,3.0,,0.0,0.0,
2025-08-15T02:13:57.920Z,18,GR86-016-55,-70.7,0.216,-1.092,99.7,3.0,,0.0,0.0,
2025-08-15T02:13:57.963Z,18,GR86-016-55,-70.9,0.121,-1.133,99.69,3.0,6201.0,0.0,0.0,
2025-08-15T02:13:58.006Z,18,GR86-016-55,-71.10000000000001,0.142,-1.166,99.7,3.0,,0.0,0.0,129.12
2025-08-15T02:13:58.050Z,18,GR86-016-55,-71.4,0.148,-1.209,96.41,3.0,,0.0,0.0,
2025-08-15T02:13:58.093Z,18,GR86-016-55,-71.8,0.137,-1.208,34.38,3.0,,0.0,0.0,
2025-08-15T02:13:58.136Z,18,GR86-016-55,-72.0,0.129,-1.194,10.94,3.0,,0.0,0.0,
2025-08-15T02:13:58.178Z,18,GR86-016-55,-72.2,0.136,-1.151,50.74,3.0,6429.0,0.0,0.0,
2025-08-15T02:13:58.222Z,18,GR86-016-55,-72.4,-0.002,-1.19,94.97,3.0,,0.0,0.0,128.5
2025-08-15T02:13:58.265Z,18,GR86-016-55,-72.60000000000001,-0.12,-1.194,99.77,3.0,,0.0,0.0,
2025-08-15T02:13:58.308Z,18,GR86-016-55,-72.60000000000001,-0.059,-1.197,99.7,3.0,,0.0,0.0,
2025-08-15T02:13:58.351Z,18,GR86-016-55,-72.4,0.15,-1.224,99.7,3.0,,0.0,0.0,
2025-08-15T02:13:58.394Z,18,GR86-016-55,-71.9,0.242,-1.19,99.69,3.0,6198.0,0.0,0.0,
2025-08-15T02:13:58.437Z,18,GR86-016-55,-71.3,0.167,-1.212,99.69,3.0,,0.0,0.0,130.87
2025-08-15T02:13:58.480Z,18,GR86-016-55,-68.9,0.145,-1.128,99.7,3.0,,0.0,0.0,
2025-08-15T02:13:58.525Z,18,GR86-016-55,-64.7,0.158,-1.086,99.69,3.0,,0.0,0.0,
2025-08-15T02:13:58.568Z,18,GR86-016-55,-62.7,0.147,-1.143,99.7,3.0,,0.0,0.0,
2025-08-15T02:13:58.611Z,18,GR86-016-55,-60.3,0.154,-1.159,99.7,3.0,6038.0,0.0,0.0,
2025-08-15T02:13:58.654Z,18,GR86-016-55,-59.3,0.157,-1.249,99.69,3.0,,0.0,0.0,130.01
2025-08-15T02:13:58.697Z,18,GR86-016-55,-57.6,0.164,-1.194,99.7,3.0,,0.0,0.0,
2025-08-15T02:13:58.740Z,18,GR86-016-55,-55.400000000000006,0.172,-1.128,99.7,3.0,,0.0,0.0,
2025-08-15T02:13:58.786Z,18,GR86-016-55,-51.900000000000006,0.15,-1.177,99.7,3.0,,0.0,0.0,
2025-08-15T02:13:58.832Z,18,GR86-016-55,-46.2,0.156,-1.192,99.69,3.0,6290.0,0.0,0.0,
2025-08-15T02:13:58.875Z,18,GR86-016-55,-44.1,0.153,-1.246,99.69,3.0,,0.0,0.0,131.23
2025-08-15T02:13:58.918Z,18,GR86-016-55,-44.0,0.192,-1.19,99.7,3.0,,0.0,0.0,
2025-08-15T02:13:58.961Z,18,GR86-016-55,-44.8,0.17,-1.152,99.69,3.0,,0.0,0.0,
2025-08-15T02:13:59.004Z,18,GR86-016-55,-45.6,0.16,-1.16,99.69,3.0,,0.0,0.0,
2025-08-15T02:13:59.047Z,18,GR86-016-55,-45.7,0.159,-1.159,99.68,3.0,6307.0,0.0,0.0,
2025-08-15T02:13:59.090Z,18,GR86-016-55,-44.900000000000006,0.153,-1.125,99.71,3.0,,0.0,0.0,131.91
2025-08-15T02:13:59.133Z,18,GR86-016-55,-43.1,0.191,-1.091,99.68,3.0,,0.0,0.0,
2025-08-15T02:13:59.176Z,18,GR86-016-55,-40.0,0.254,-0.842,99.7,3.0,,0.0,0.0,
2025-08-15T02:13:59.218Z,18,GR86-016-55,-39.6,0.23,-0.8180000000000001,99.69,3.0,,0.0,0.0,
2025-08-15T02:13:59.262Z,18,GR86-016-55,-39.6,0.221,-0.682,99.68,3.0,6320.0,0.0,0.0,
2025-08-15T02:13:59.305Z,18,GR86-016-55,-40.400000000000006,0.201,-0.296,99.67,3.0,,0.0,0.0,132.75
2025-08-15T02:13:59.348Z,18,GR86-016-55,-39.7,0.162,-0.176,99.69,3.0,,0.0,0.0,
2025-08-15T02:13:59.391Z,18,GR86-016-55,-38.0,0.321,-0.319,99.69,3.0,,0.0,0.0,
2025-08-15T02:13:59.435Z,18,GR86-016-55,-34.9,0.125,-0.675,99.67,3.0,,0.0,1.83,
2025-08-15T02:13:59.478Z,18,GR86-016-55,-29.1,0.025,-1.015,99.7,3.0,6361.0,0.0,0.0,
2025-08-15T02:13:59.521Z,18,GR86-016-55,-21.3,0.09,-1.352,99.7,3.0,,0.0,0.0,133.82
2025-08-15T02:13:59.564Z,18,GR86-016-55,-16.6,0.296,-1.21,99.69,3.0,,0.0,0.0,
2025-08-15T02:13:59.607Z,18,GR86-016-55,-16.1,0.257,-1.16,99.7,3.0,,0.0,0.0,
2025-08-15T02:13:59.650Z,18,GR86-016-55,-26.6,0.176,-1.118,99.7,3.0,,0.0,0.0,
2025-08-15T02:13:59.693Z,18,GR86-016-55,-28.5,0.333,-1.357,99.69,3.0,6549.0,0.0,0.0,
2025-08-15T02:13:59.736Z,18,GR86-016-55,-23.200000000000003,0.255,-1.121,99.7,3.0,,0.0,0.0,135.01
2025-08-15T02:13:59.780Z,18,GR86-016-55,-11.1,0.103,-1.378,99.68,3.0,,0.0,0.0,
2025-08-15T02:13:59.823Z,18,GR86-016-55,-9.9,0.223,-1.07,99.69,3.0,,0.0,0.0,
2025-08-15T02:13:59.909Z,18,GR86-016-55,-13.5,0.213,-1.186,99.7,3.0,6562.0,0.0,0.0,
2025-08-15T02:13:59.952Z,18,GR86-016-55,-35.800000000000004,0.21,-0.851,99.71,3.0,,0.0,0.0,137.37
2025-08-15T02:13:59.995Z,18,GR86-016-55,-40.1,0.148,-0.972,99.69,3.0,,0.0,0.0,
2025-08-15T02:14:00.038Z,18,GR86-016-55,-43.0,0.165,-0.859,99.69,3.0,,0.0,0.0,
2025-08-15T02:14:00.081Z,18,GR86-016-55,-45.8,0.195,-0.918,99.7,3.0,,0.0,0.0,
2025-08-15T02:14:00.124Z,18,GR86-016-55,-48.1,0.182,-0.96,99.68,3.0,6581.0,0.0,0.0,
2025-08-15T02:14:00.167Z,18,GR86-016-55,-48.5,0.144,-0.909,99.68,3.0,,0.0,0.0,136.99
2025-08-15T02:14:00.210Z,18,GR86-016-55,-47.400000000000006,0.131,-1.054,99.7,3.0,,0.0,0.0,
2025-08-15T02:14:00.253Z,18,GR86-016-55,-45.1,0.148,-1.025,99.69,3.0,,0.0,0.0,
2025-08-15T02:14:00.296Z,18,GR86-016-55,-41.5,0.159,-1.083,99.68,3.0,,0.0,0.0,
2025-08-15T02:14:00.339Z,18,GR86-016-55,-34.4,0.165,-1.184,99.66,3.0,6541.0,0.0,0.0,
2025-08-15T02:14:00.382Z,18,GR86-016-55,-20.3,0.148,-1.178,99.68,3.0,,0.0,0.0,137.67000000000002
2025-08-15T02:14:00.425Z,18,GR86-016-55,-12.2,0.197,-1.044,99.67,3.0,,0.0,0.0,
2025-08-15T02:14:00.468Z,18,GR86-016-55,-12.6,0.178,-1.111,99.67,3.0,,0.0,0.0,
2025-08-15T02:14:00.511Z,18,GR86-016-55,-13.8,0.161,-1.028,99.67,3.0,,0.0,0.0,
2025-08-15T02:14:00.554Z,18,GR86-016-55,-13.8,0.214,-0.984,99.67,3.0,6601.0,0.0,0.0,
2025-08-15T02:14:00.597Z,18,GR86-016-55,-14.6,0.216,-0.915,99.7,3.0,,0.0,0.0,138.86
2025-08-15T02:14:00.640Z,18,GR86-016-55,-18.6,0.22,-0.841,99.67,3.0,,0.0,0.0,
2025-08-15T02:14:00.726Z,18,GR86-016-55,-21.4,0.149,-0.854,99.67,3.0,,0.0,0.0,
2025-08-15T02:14:00.768Z,18,GR86-016-55,-23.3,0.214,-0.803,99.69,3.0,6672.0,0.0,0.0,
2025-08-15T02:14:00.812Z,18,GR86-016-55,-20.9,0.179,-0.6930000000000001,99.7,3.0,,0.0,0.0,140.27
2025-08-15T02:14:00.855Z,18,GR86-016-55,-18.8,0.17,-0.9,99.7,3.0,,0.0,0.0,
2025-08-15T02:14:00.898Z,18,GR86-016-55,-14.6,0.197,-0.859,99.7,3.0,,0.0,0.0,
2025-08-15T02:14:00.941Z,18,GR86-016-55,-8.1,0.191,-0.779,99.69,3.0,,0.0,0.0,
2025-08-15T02:14:00.985Z,18,GR86-016-55,-1.6,0.215,-0.88,99.7,3.0,6703.0,0.0,0.0,
2025-08-15T02:14:01.028Z,18,GR86-016-55,2.7,0.211,-0.744,99.7,3.0,,0.0,0.0,141.37
2025-08-15T02:14:01.072Z,18,GR86-016-55,5.4,0.194,-0.446,99.71,3.0,,0.0,0.0,
2025-08-15T02:14:01.115Z,18,GR86-016-55,5.300000000000001,0.187,-0.168,99.69,3.0,,0.0,0.0,
2025-08-15T02:14:01.158Z,18,GR86-016-55,2.4000000000000004,0.099,-0.003,99.7,3.0,,0.0,0.0,
2025-08-15T02:14:01.201Z,18,GR86-016-55,0.6000000000000001,-0.064,-0.061,99.7,3.0,6797.0,0.0,0.0,
2025-08-15T02:14:01.244Z,18,GR86-016-55,0.0,0.261,0.013,99.7,3.0,,0.0,0.0,144.01
2025-08-15T02:14:01.287Z,18,GR86-016-55,0.1,0.308,0.097,99.7,3.0,,0.0,0.0,
2025-08-15T02:14:01.332Z,18,GR86-016-55,0.5,0.2,0.012,99.7,3.0,,0.0,0.0,
2025-08-15T02:14:01.375Z,18,GR86-016-55,0.1,0.123,-0.003,99.72,3.0,,0.0,0.0,
2025-08-15T02:14:01.418Z,18,GR86-016-55,-0.3,0.099,-0.085,99.69,3.0,6773.0,0.0,0.0,
2025-08-15T02:14:01.461Z,18,GR86-016-55,3.5,0.129,0.078,99.7,3.0,,0.0,0.0,144.67000000000002
2025-08-15T02:14:01.504Z,18,GR86-016-55,10.8,0.233,0.041,99.69,3.0,,0.0,0.0,
2025-08-15T02:14:01.547Z,18,GR86-016-55,14.3,0.128,0.071,99.71,3.0,,0.0,0.0,
2025-08-15T02:14:01.592Z,18,GR86-016-55,13.4,0.276,0.084,99.71,3.0,,0.0,0.0,
2025-08-15T02:14:01.636Z,18,GR86-016-55,12.4,0.326,0.148,99.7,3.0,6914.0,0.0,0.0,
2025-08-15T02:14:01.678Z,18,GR86-016-55,11.9,0.187,0.153,99.7,3.0,,0.0,0.0,147.14
2025-08-15T02:14:01.722Z,18,GR86-016-55,10.7,0.075,0.249,99.7,3.0,,0.0,0.0,
2025-08-15T02:14:01.765Z,18,GR86-016-55,9.0,0.36,0.451,99.7,3.0,,0.0,0.0,
2025-08-15T02:14:01.808Z,18,GR86-016-55,7.4,0.241,0.344,99.71,3.0,,0.0,0.0,
2025-08-15T02:14:01.851Z,18,GR86-016-55,5.5,0.174,0.455,99.7,3.0,7177.0,0.0,0.0,
2025-08-15T02:14:01.895Z,18,GR86-016-55,4.7,0.095,0.462,99.7,3.0,,0.0,0.0,147.85
2025-08-15T02:14:01.938Z,18,GR86-016-55,4.5,0.347,0.598,99.7,3.0,,0.0,0.0,
2025-08-15T02:14:01.981Z,18,GR86-016-55,5.7,0.336,0.586,99.71,3.0,,0.0,0.0,
2025-08-15T02:14:02.024Z,18,GR86-016-55,6.1000000000000005,0.399,0.472,99.71,3.0,,0.0,0.0,
2025-08-15T02:14:02.067Z,18,GR86-016-55,5.5,0.198,0.399,99.69,3.0,7063.0,0.0,0.0,
2025-08-15T02:14:02.110Z,18,GR86-016-55,5.1000000000000005,0.212,0.353,99.71,3.0,,0.0,0.0,149.03
2025-08-15T02:14:02.153Z,18,GR86-016-55,5.2,0.222,0.237,99.69,3.0,,0.0,0.0,
2025-08-15T02:14:02.196Z,18,GR86-016-55,5.5,0.207,0.265,99.69,3.0,,0.0,0.0,
2025-08-15T02:14:02.239Z,18,GR86-016-55,5.800000000000001,0.177,0.216,99.68,3.0,,0.0,0.0,
2025-08-15T02:14:02.282Z,18,GR86-016-55,6.4,0.208,0.194,99.71,3.0,7123.0,0.0,0.0,
2025-08-15T02:14:02.325Z,18,GR86-016-55,8.5,0.208,0.177,99.7,3.0,,0.0,0.0,150.32
2025-08-15T02:14:02.368Z,18,GR86-016-55,9.9,0.202,0.183,99.7,3.0,,0.0,0.0,
2025-08-15T02:14:02.411Z,18,GR86-016-55,10.2,0.194,0.238,99.7,3.0,,0.0,0.0,
2025-08-15T02:14:02.455Z,18,GR86-016-55,10.1,0.199,0.258,99.69,3.0,,0.0,0.0,
2025-08-15T02:14:02.498Z,18,GR86-016-55,9.6,0.199,0.259,99.7,3.0,7138.0,0.0,0.0,
2025-08-15T02:14:02.541Z,18,GR86-016-55,8.8,0.19,0.263,99.68,3.0,,0.0,0.0,152.14
2025-08-15T02:14:02.585Z,18,GR86-016-55,8.1,0.181,0.282,99.7,3.0,,0.0,0.0,
2025-08-15T02:14:02.628Z,18,GR86-016-55,7.4,0.182,0.282,99.7,3.0,,0.0,0.0,
2025-08-15T02:14:02.671Z,18,GR86-016-55,7.2,0.178,0.247,99.73,3.0,,0.0,0.0,
2025-08-15T02:14:02.714Z,18,GR86-016-55,7.1000000000000005,0.017,0.243,99.7,4.0,7223.0,0.0,0.0,
2025-08-15T02:14:02.757Z,18,GR86-016-55,6.9,0.163,0.34,99.71,4.0,,0.0,0.0,153.51
2025-08-15T02:14:02.800Z,18,GR86-016-55,6.7,0.515,0.229,99.7,4.0,,0.0,0.0,
2025-08-15T02:14:02.843Z,18,GR86-016-55,6.4,0.264,0.195,99.7,4.0,,0.0,0.0,
2025-08-15T02:14:02.886Z,18,GR86-016-55,5.7,0.046,0.287,99.69,4.0,,0.0,0.0,
2025-08-15T02:14:02.928Z,18,GR86-016-55,5.5,0.077,0.162,99.71,4.0,7291.0,0.0,0.0,
2025-08-15T02:14:02.972Z,18,GR86-016-55,5.5,0.246,0.215,99.7,4.0,,0.0,0.0,155.11
2025-08-15T02:14:03.015Z,18,GR86-016-55,5.5,0.176,0.195,99.69,4.0,,0.0,0.0,
2025-08-15T02:14:03.058Z,18,GR86-016-55,5.5,0.162,0.123,99.71,4.0,,0.0,0.0,
2025-08-15T02:14:03.101Z,18,GR86-016-55,6.6000000000000005,0.13,0.148,99.69,4.0,,0.0,0.0,
2025-08-15T02:14:03.144Z,18,GR86-016-55,7.300000000000001,0.169,0.145,99.7,4.0,6170.0,0.0,0.0,
2025-08-15T02:14:03.187Z,18,GR86-016-55,7.5,0.162,0.147,99.7,4.0,,0.0,0.0,156.55
2025-08-15T02:14:03.232Z,18,GR86-016-55,7.300000000000001,0.163,0.192,99.71,4.0,,0.0,0.0,
2025-08-15T02:14:03.275Z,18,GR86-016-55,6.9,0.164,0.197,99.7,4.0,,0.0,0.0,
2025-08-15T02:14:03.318Z,18,GR86-016-55,6.5,0.149,0.201,99.7,4.0,,0.0,0.0,
2025-08-15T02:14:03.361Z,18,GR86-016-55,6.300000000000001,0.16,0.216,99.7,4.0,6235.0,0.0,0.0,
2025-08-15T02:14:03.404Z,18,GR86-016-55,6.300000000000001,0.157,0.213,99.7,4.0,,0.0,0.0,158.41
2025-08-15T02:14:03.447Z,18,GR86-016-55,6.300000000000001,0.148,0.216,99.68,4.0,,0.0,0.0,
2025-08-15T02:14:03.490Z,18,GR86-016-55,6.300000000000001,0.154,0.186,99.71,4.0,,0.0,0.0,
2025-08-15T02:14:03.534Z,18,GR86-016-55,6.2,0.155,0.147,99.7,4.0,,0.0,0.0,
2025-08-15T02:14:03.578Z,18,GR86-016-55,6.1000000000000005,0.153,0.167,99.68,4.0,6321.0,0.0,0.0,
2025-08-15T02:14:03.621Z,18,GR86-016-55,6.1000000000000005,0.163,0.152,99.72,4.0,,0.0,0.0,160.16
2025-08-15T02:14:03.664Z,18,GR86-016-55,6.0,0.143,0.165,99.7,4.0,,0.0,0.0,
2025-08-15T02:14:03.707Z,18,GR86-016-55,6.0,0.149,0.165,99.7,4.0,,0.0,0.0,
2025-08-15T02:14:03.750Z,18,GR86-016-55,5.9,0.147,0.159,99.71,4.0,,0.0,0.0,
2025-08-15T02:14:03.792Z,18,GR86-016-55,5.9,0.152,0.138,99.7,4.0,6387.0,0.0,0.0,
2025-08-15T02:14:03.836Z,18,GR86-016-55,5.9,0.13,0.17,99.69,4.0,,0.0,0.0,163.32
2025-08-15T02:14:03.878Z,18,GR86-016-55,5.9,0.15,0.144,99.71,4.0,,0.0,0.0,
2025-08-15T02:14:03.922Z,18,GR86-016-55,5.5,0.166,0.128,99.71,4.0,,0.0,0.0,
2025-08-15T02:14:03.965Z,18,GR86-016-55,5.0,0.155,0.129,99.7,4.0,,0.0,0.0,
2025-08-15T02:14:04.008Z,18,GR86-016-55,4.7,0.145,0.128,99.69,4.0,6434.0,0.0,0.0,
2025-08-15T02:14:04.051Z,18,GR86-016-55,4.2,0.15,0.118,99.69,4.0,,0.0,0.0,164.84
2025-08-15T02:14:04.094Z,18,GR86-016-55,3.5,0.15,0.119,99.7,4.0,,0.0,0.0,
2025-08-15T02:14:04.137Z,18,GR86-016-55,2.7,0.149,0.098,99.7,4.0,,0.0,0.0,
2025-08-15T02:14:04.180Z,18,GR86-016-55,2.3000000000000003,0.151,0.096,99.7,4.0,,0.0,0.0,
2025-08-15T02:14:04.225Z,18,GR86-016-55,1.9,0.151,0.069,99.69,4.0,6487.0,0.0,0.0,
2025-08-15T02:14:04.268Z,18,GR86-016-55,1.7000000000000002,0.153,0.038,99.68,4.0,,0.0,0.0,166.35
2025-08-15T02:14:04.311Z,18,GR86-016-55,1.6,0.14,0.027,99.71,4.0,,0.0,0.0,
2025-08-15T02:14:04.354Z,18,GR86-016-55,1.6,0.132,0.01,99.7,4.0,,0.0,0.0,
2025-08-15T02:14:04.397Z,18,GR86-016-55,1.6,0.148,0.001,99.69,4.0,,0.0,0.0,
2025-08-15T02:14:04.440Z,18,GR86-016-55,1.6,0.147,-0.007,99.69,4.0,6605.0,0.0,0.0,
2025-08-15T02:14:04.486Z,18,GR86-016-55,1.6,0.146,-0.005,99.71,4.0,,0.0,0.0,167.82
2025-08-15T02:14:04.528Z,18,GR86-016-55,1.6,0.153,0.006,99.69,4.0,,0.0,0.0,
2025-08-15T02:14:04.572Z,18,GR86-016-55,0.5,0.127,0.013,99.7,4.0,,4.0,4.305,
2025-08-15T02:14:04.615Z,18,GR86-016-55,-0.7000000000000001,0.136,0.01,99.7,4.0,,18.115,18.295,
2025-08-15T02:14:04.658Z,18,GR86-016-55,-1.6,0.043,-0.007,99.71,4.0,6664.0,13.64,14.45,
2025-08-15T02:14:04.701Z,18,GR86-016-55,-2.7,0.016,-0.012,99.7,4.0,,6.425,7.235,169.28
2025-08-15T02:14:04.744Z,18,GR86-016-55,-3.6,0.092,-0.069,99.7,4.0,,0.0,0.0,
2025-08-15T02:14:04.787Z,18,GR86-016-55,-3.9,0.12,-0.107,99.7,4.0,,0.0,0.0,
2025-08-15T02:14:04.832Z,18,GR86-016-55,-4.1000000000000005,0.125,-0.175,99.69,4.0,,0.0,0.0,
2025-08-15T02:14:04.875Z,18,GR86-016-55,-4.1000000000000005,0.12,-0.179,99.7,4.0,6724.0,0.0,0.0,
2025-08-15T02:14:04.918Z,18,GR86-016-55,-4.1000000000000005,0.106,-0.182,99.7,4.0,,0.0,0.0,170.72
2025-08-15T02:14:04.961Z,18,GR86-016-55,-4.0,0.121,-0.213,99.7,4.0,,0.0,0.0,
2025-08-15T02:14:05.004Z,18,GR86-016-55,-3.9,0.123,-0.22,99.68,4.0,,0.0,0.0,
2025-08-15T02:14:05.047Z,18,GR86-016-55,-3.9,0.132,-0.238,99.67,4.0,,0.0,0.0,
2025-08-15T02:14:05.090Z,18,GR86-016-55,-3.9,0.13,-0.268,99.7,4.0,6761.0,0.0,0.0,
2025-08-15T02:14:05.133Z,18,GR86-016-55,-3.9,0.118,-0.258,99.69,4.0,,0.0,0.0,171.59
2025-08-15T02:14:05.176Z,18,GR86-016-55,-3.8,0.117,-0.261,99.69,4.0,,0.0,0.0,
2025-08-15T02:14:05.219Z,18,GR86-016-55,-3.7,0.12,-0.231,99.69,4.0,,0.0,0.0,
2025-08-15T02:14:05.262Z,18,GR86-016-55,-3.7,0.123,-0.223,99.7,4.0,,0.0,0.0,
2025-08-15T02:14:05.305Z,18,GR86-016-55,-3.7,0.113,-0.216,99.71,4.0,6824.0,0.0,0.0,
2025-08-15T02:14:05.348Z,18,GR86-016-55,-3.8,0.123,-0.197,99.69,4.0,,0.0,0.0,172.89
2025-08-15T02:14:05.391Z,18,GR86-016-55,-5.6000000000000005,0.145,-0.192,99.7,4.0,,0.0,0.0,
2025-08-15T02:14:05.435Z,18,GR86-016-55,-8.0,0.143,-0.215,99.7,4.0,,0.0,0.0,
2025-08-15T02:14:05.478Z,18,GR86-016-55,-9.3,0.138,-0.273,99.7,4.0,,0.0,0.0,
2025-08-15T02:14:05.521Z,18,GR86-016-55,-9.4,0.136,-0.311,99.69,4.0,6860.0,0.0,0.0,
2025-08-15T02:14:05.564Z,18,GR86-016-55,-9.3,0.12,-0.383,99.7,4.0,,0.0,0.0,174.28
2025-08-15T02:14:05.607Z,18,GR86-016-55,-9.1,0.127,-0.423,99.7,4.0,,0.0,0.0,
2025-08-15T02:14:05.650Z,18,GR86-016-55,-8.700000000000001,0.123,-0.413,99.69,4.0,,0.0,0.0,
2025-08-15T02:14:05.693Z,18,GR86-016-55,-7.300000000000001,0.131,-0.447,99.67,4.0,,0.0,0.0,
2025-08-15T02:14:05.736Z,18,GR86-016-55,-5.0,0.144,-0.446,99.68,4.0,6916.0,0.0,0.0,
2025-08-15T02:14:05.778Z,18,GR86-016-55,-3.9,0.128,-0.432,99.68,4.0,,0.0,0.0,175.58
2025-08-15T02:14:05.822Z,18,GR86-016-55,-3.9,0.144,-0.36,99.69,4.0,,0.0,0.0,
2025-08-15T02:14:05.865Z,18,GR86-016-55,-4.2,0.121,-0.336,99.7,4.0,,0.0,0.0,
2025-08-15T02:14:05.908Z,18,GR86-016-55,-5.300000000000001,0.14,-0.289,99.68,4.0,,0.0,0.0,
2025-08-15T02:14:05.951Z,18,GR86-016-55,-6.300000000000001,0.138,-0.277,99.7,4.0,6965.0,0.0,0.0,
2025-08-15T02:14:05.994Z,18,GR86-016-55,-7.2,0.098,-0.266,99.7,4.0,,0.0,0.0,176.75
2025-08-15T02:14:06.037Z,18,GR86-016-55,-7.7,0.096,-0.263,99.72,4.0,,18.83,18.83,
2025-08-15T02:14:06.080Z,18,GR86-016-55,-7.6,-0.039,-0.286,78.04,4.0,,47.4,47.125,
2025-08-15T02:14:06.123Z,18,GR86-016-55,-5.4,-0.522,-0.299,6.79,4.0,,69.645,68.96000000000001,
2025-08-15T02:14:06.166Z,18,GR86-016-55,4.0,-0.938,-0.216,4.14,4.0,7016.0,84.235,83.15,
2025-08-15T02:14:06.208Z,18,GR86-016-55,14.9,-1.124,-0.204,4.03,4.0,,87.06,87.21000000000001,178.09
2025-08-15T02:14:06.252Z,18,GR86-016-55,18.3,-0.978,-0.029,3.79,4.0,,64.99,66.96000000000001,
2025-08-15T02:14:06.295Z,18,GR86-016-55,9.7,-1.055,-0.206,3.46,4.0,,70.545,70.99,
2025-08-15T02:14:06.338Z,18,GR86-016-55,-0.7000000000000001,-1.469,-0.165,3.17,4.0,,80.83,81.49,
2025-08-15T02:14:06.381Z,18,GR86-016-55,-7.800000000000001,-1.312,-0.258,3.0,4.0,7049.0,87.865,88.86,
2025-08-15T02:14:06.424Z,18,GR86-016-55,-8.200000000000001,-1.342,-0.479,2.91,4.0,,89.09,89.635,179.13
2025-08-15T02:14:06.467Z,18,GR86-016-55,-1.6,-1.236,-0.425,2.84,4.0,,89.635,90.11,
2025-08-15T02:14:06.510Z,18,GR86-016-55,13.1,-1.308,-0.253,2.75,4.0,,68.84,70.9,
2025-08-15T02:14:06.554Z,18,GR86-016-55,18.1,-1.108,-0.17,2.72,4.0,,54.465,56.035,
2025-08-15T02:14:06.597Z,18,GR86-016-55,18.5,-1.142,-0.076,2.68,4.0,6416.0,52.175,53.21,
2025-08-15T02:14:06.640Z,18,GR86-016-55,16.0,-1.202,-0.063,2.65,4.0,,56.370000000000005,57.33,168.69
2025-08-15T02:14:06.683Z,18,GR86-016-55,10.2,-1.096,-0.113,2.62,4.0,,65.205,65.555,
2025-08-15T02:14:06.726Z,18,GR86-016-55,5.800000000000001,-1.24,-0.183,13.91,4.0,,72.83500000000001,72.83500000000001,
2025-08-15T02:14:06.768Z,18,GR86-016-55,1.1,-1.252,-0.172,51.89,3.0,,77.46000000000001,78.3,
2025-08-15T02:14:06.812Z,18,GR86-016-55,-7.800000000000001,-1.271,-0.258,4.5,3.0,6297.0,64.125,65.925,
2025-08-15T02:14:06.855Z,18,GR86-016-55,-12.7,-1.075,-0.251,4.3100000000000005,3.0,,55.27,56.965,161.18
2025-08-15T02:14:06.898Z,18,GR86-016-55,-13.9,-1.098,-0.453,4.17,3.0,,50.94,51.365,
2025-08-15T02:14:06.941Z,18,GR86-016-55,-12.7,-1.112,-0.422,3.94,3.0,,48.45,49.49,
2025-08-15T02:14:06.987Z,18,GR86-016-55,-0.6000000000000001,-0.908,-0.438,3.56,3.0,,48.175,49.335,
2025-08-15T02:14:07.032Z,18,GR86-016-55,27.9,-0.869,-0.597,2.97,3.0,6015.0,34.96,36.305,
2025-08-15T02:14:07.075Z,18,GR86-016-55,38.2,-0.906,-0.27,2.88,3.0,,29.77,30.765,152.93
2025-08-15T02:14:07.118Z,18,GR86-016-55,38.6,-0.8130000000000001,-0.295,2.78,3.0,,31.955,32.655,
2025-08-15T02:14:07.161Z,18,GR86-016-55,30.6,-0.8130000000000001,-0.472,2.72,3.0,,36.73,37.325,
2025-08-15T02:14:07.204Z,18,GR86-016-55,17.2,-0.899,-0.494,2.69,3.0,,44.195,44.56,
2025-08-15T02:14:07.247Z,18,GR86-016-55,4.5,-0.876,-0.649,2.65,3.0,6151.0,52.02,52.25,
2025-08-15T02:14:07.292Z,18,GR86-016-55,-5.6000000000000005,-0.953,-0.658,2.6,3.0,,66.61,67.39,146.08
2025-08-15T02:14:07.336Z,18,GR86-016-55,-10.1,-1.089,-0.666,2.59,3.0,,73.965,74.955,
2025-08-15T02:14:07.378Z,18,GR86-016-55,-13.3,-0.894,-0.5750000000000001,2.59,3.0,,74.47,74.925,
2025-08-15T02:14:07.422Z,18,GR86-016-55,-15.6,-1.117,-0.592,11.98,3.0,,76.68,76.895,
2025-08-15T02:14:07.465Z,18,GR86-016-55,-17.1,-1.172,-0.45,52.01,3.0,6303.0,81.215,81.245,
2025-08-15T02:14:07.508Z,18,GR86-016-55,-18.3,-0.988,-0.407,86.76,2.0,,81.12,81.49,141.88
2025-08-15T02:14:07.551Z,18,GR86-016-55,-19.0,-1.266,-0.357,4.42,2.0,,83.7,85.15,
2025-08-15T02:14:07.594Z,18,GR86-016-55,-18.8,-1.205,-0.322,3.0700000000000003,2.0,,85.15,86.74,
2025-08-15T02:14:07.637Z,18,GR86-016-55,-18.4,-1.099,-0.618,3.01,2.0,,82.65,83.485,
2025-08-15T02:14:07.680Z,18,GR86-016-55,-18.1,-1.388,-0.521,3.0,2.0,5879.0,80.495,81.685,
2025-08-15T02:14:07.723Z,18,GR86-016-55,-17.6,-1.123,-0.482,2.99,2.0,,82.465,83.9,134.56
2025-08-15T02:14:07.766Z,18,GR86-016-55,-13.3,-0.997,-0.739,2.95,2.0,,76.21000000000001,77.34,
2025-08-15T02:14:07.808Z,18,GR86-016-55,-8.5,-0.942,-0.772,2.88,2.0,,66.015,66.825,
