timestamp,lap,vehicle_id,steering_angle,accx_can,accy_can,ath,gear,nmot,pbrake_f,pbrake_r,speed
2025-08-15T00:42:09.837Z,17,GR86-013-80,1.4,0.132,0.003,99.75,4.0,7039.0,0.0,0.0,
2025-08-15T00:42:09.881Z,17,GR86-013-80,1.4,0.135,0.013,99.74,4.0,,0.0,0.0,179.4
2025-08-15T00:42:09.924Z,17,GR86-013-80,1.4,0.14,-0.004,99.76,4.0,,0.0,0.0,
2025-08-15T00:42:09.967Z,17,GR86-013-80,1.4,0.118,-0.001,99.75,4.0,,0.0,0.0,
2025-08-15T00:42:10.010Z,17,GR86-013-80,1.5,0.083,-0.003,99.78,4.0,,0.0,0.0,
2025-08-15T00:42:10.054Z,17,GR86-013-80,1.5,0.097,-0.003,99.74,4.0,7068.0,0.0,0.0,
2025-08-15T00:42:10.097Z,17,GR86-013-80,1.4,0.081,0.0,99.75,4.0,,0.0,0.0,180.07
2025-08-15T00:42:10.140Z,17,GR86-013-80,1.5,0.08,-0.006,99.76,4.0,,0.0,0.0,
2025-08-15T00:42:10.183Z,17,GR86-013-80,1.4,0.08,-0.007,99.75,4.0,,0.0,0.0,
2025-08-15T00:42:10.227Z,17,GR86-013-80,1.5,0.097,0.006,99.74,4.0,,0.0,0.0,
2025-08-15T00:42:10.271Z,17,GR86-013-80,1.7000000000000002,0.131,0.016,99.75,4.0,7097.0,0.0,0.0,
2025-08-15T00:42:10.314Z,17,GR86-013-80,1.7000000000000002,0.123,0.012,99.76,4.0,,0.0,0.0,180.84
2025-08-15T00:42:10.357Z,17,GR86-013-80,1.7000000000000002,0.138,0.008,99.76,4.0,,0.0,0.0,
2025-08-15T00:42:10.401Z,17,GR86-013-80,1.8,0.121,0.009,99.76,4.0,,0.0,0.0,
2025-08-15T00:42:10.444Z,17,GR86-013-80,1.8,0.131,0.011,99.75,4.0,,0.0,0.0,
2025-08-15T00:42:10.487Z,17,GR86-013-80,1.8,0.123,0.017,99.74,4.0,7113.0,0.0,0.0,
2025-08-15T00:42:10.531Z,17,GR86-013-80,1.7000000000000002,0.08,0.019,99.75,4.0,,0.0,0.0,182.2
2025-08-15T00:42:10.574Z,17,GR86-013-80,1.8,0.084,0.019,99.76,4.0,,0.0,0.0,
2025-08-15T00:42:10.617Z,17,GR86-013-80,1.8,0.098,0.032,99.76,4.0,,0.0,0.0,
2025-08-15T00:42:10.660Z,17,GR86-013-80,1.8,0.088,0.033,99.76,4.0,,0.0,0.0,
2025-08-15T00:42:10.703Z,17,GR86-013-80,1.9,0.081,0.014,99.75,4.0,7142.0,0.0,0.0,
2025-08-15T00:42:10.747Z,17,GR86-013-80,1.9,0.084,0.018,99.75,4.0,,0.0,0.0,182.89
2025-08-15T00:42:10.791Z,17,GR86-013-80,1.9,0.119,0.03,99.76,4.0,,0.0,0.0,
2025-08-15T00:42:10.834Z,17,GR86-013-80,1.9,0.111,0.019,99.75,4.0,,0.0,0.0,
2025-08-15T00:42:10.877Z,17,GR86-013-80,1.9,0.112,0.019,99.76,4.0,,0.0,0.0,
2025-08-15T00:42:10.921Z,17,GR86-013-80,2.0,0.102,0.03,99.74,4.0,7167.0,0.0,0.0,
2025-08-15T00:42:10.964Z,17,GR86-013-80,2.0,0.097,0.03,99.76,4.0,,0.0,0.0,183.62
2025-08-15T00:42:11.007Z,17,GR86-013-80,2.0,0.113,0.041,99.75,4.0,,0.0,0.0,
2025-08-15T00:42:11.051Z,17,GR86-013-80,2.1,0.11,0.016,99.77,4.0,,0.0,0.0,
2025-08-15T00:42:11.094Z,17,GR86-013-80,2.0,0.095,0.021,99.75,4.0,,0.0,0.0,
2025-08-15T00:42:11.137Z,17,GR86-013-80,2.0,0.095,0.023,99.74,4.0,7214.0,0.0,0.0,
2025-08-15T00:42:11.180Z,17,GR86-013-80,2.0,0.094,0.015,99.75,4.0,,0.0,0.0,184.3
2025-08-15T00:42:11.223Z,17,GR86-013-80,2.0,0.1,0.019,99.75,4.0,,0.0,0.0,
2025-08-15T00:42:11.266Z,17,GR86-013-80,2.0,0.104,0.022,99.74,4.0,,0.0,0.0,
2025-08-15T00:42:11.309Z,17,GR86-013-80,1.9,0.102,0.027,99.76,4.0,,0.0,0.0,
2025-08-15T00:42:11.352Z,17,GR86-013-80,2.0,0.117,0.032,99.76,4.0,7247.0,0.0,0.0,
2025-08-15T00:42:11.395Z,17,GR86-013-80,2.1,0.079,0.011,99.74,4.0,,0.0,0.0,184.94
2025-08-15T00:42:11.438Z,17,GR86-013-80,2.1,-0.161,0.042,99.74,5.0,,0.0,0.0,
2025-08-15T00:42:11.481Z,17,GR86-013-80,2.2,0.018,0.08,99.75,5.0,,0.0,0.0,
2025-08-15T00:42:11.524Z,17,GR86-013-80,2.6,0.486,-0.008,99.77,5.0,,0.0,0.0,
2025-08-15T00:42:11.567Z,17,GR86-013-80,2.6,0.129,0.026,99.75,5.0,6799.0,0.0,0.0,
2025-08-15T00:42:11.610Z,17,GR86-013-80,2.3000000000000003,-0.032,0.042,99.75,5.0,,0.0,0.0,185.58
2025-08-15T00:42:11.653Z,17,GR86-013-80,2.3000000000000003,0.075,0.037,99.75,5.0,,0.0,0.0,
2025-08-15T00:42:11.697Z,17,GR86-013-80,2.2,0.132,0.093,99.76,5.0,,0.0,0.0,
2025-08-15T00:42:11.741Z,17,GR86-013-80,2.1,0.109,0.044,99.76,5.0,,0.0,0.0,
2025-08-15T00:42:11.784Z,17,GR86-013-80,1.8,0.043,0.028,99.76,5.0,6381.0,0.0,0.0,
2025-08-15T00:42:11.827Z,17,GR86-013-80,1.6,0.071,0.059,99.74,5.0,,0.0,0.0,186.2
2025-08-15T00:42:11.870Z,17,GR86-013-80,1.4,0.089,0.031,99.76,5.0,,0.0,0.0,
2025-08-15T00:42:11.913Z,17,GR86-013-80,1.4,0.082,0.03,99.75,5.0,,0.0,0.0,
2025-08-15T00:42:11.956Z,17,GR86-013-80,1.3,0.069,0.018,99.74,5.0,,0.0,0.0,
2025-08-15T00:42:11.999Z,17,GR86-013-80,1.2000000000000002,0.07,0.011,99.75,5.0,6339.0,0.0,0.0,
2025-08-15T00:42:12.043Z,17,GR86-013-80,1.1,0.084,0.017,99.76,5.0,,0.0,0.0,186.73
2025-08-15T00:42:12.086Z,17,GR86-013-80,1.1,0.062,0.019,99.75,5.0,,0.0,0.0,
2025-08-15T00:42:12.131Z,17,GR86-013-80,1.1,0.092,-0.022,99.75,5.0,,0.0,0.0,
2025-08-15T00:42:12.174Z,17,GR86-013-80,1.1,0.113,-0.008,99.75,5.0,,0.0,0.0,
2025-08-15T00:42:12.217Z,17,GR86-013-80,1.0,0.106,-0.019,99.76,5.0,6356.0,0.0,0.0,
2025-08-15T00:42:12.260Z,17,GR86-013-80,0.7000000000000001,0.091,-0.026,99.75,5.0,,0.0,0.0,187.28
2025-08-15T00:42:12.303Z,17,GR86-013-80,0.6000000000000001,0.116,-0.014,99.75,5.0,,0.0,0.0,
2025-08-15T00:42:12.347Z,17,GR86-013-80,0.6000000000000001,0.107,-0.025,99.75,5.0,,0.0,0.0,
2025-08-15T00:42:12.391Z,17,GR86-013-80,0.6000000000000001,0.074,-0.03,99.76,5.0,,0.0,0.0,
2025-08-15T00:42:12.434Z,17,GR86-013-80,0.6000000000000001,0.071,-0.034,99.74,5.0,6389.0,0.0,0.0,
2025-08-15T00:42:12.477Z,17,GR86-013-80,0.5,0.08,-0.046,99.76,5.0,,0.0,0.0,187.85
2025-08-15T00:42:12.521Z,17,GR86-013-80,0.4,0.068,-0.03,99.76,5.0,,0.0,0.0,
2025-08-15T00:42:12.564Z,17,GR86-013-80,0.4,0.085,-0.031,99.76,5.0,,0.0,0.0,
2025-08-15T00:42:12.607Z,17,GR86-013-80,0.5,0.097,-0.029,99.75,5.0,,0.0,0.0,
2025-08-15T00:42:12.651Z,17,GR86-013-80,0.5,0.045,-0.019,99.75,5.0,6397.0,0.0,0.0,
2025-08-15T00:42:12.694Z,17,GR86-013-80,0.5,0.053,-0.043,99.76,5.0,,0.0,0.0,188.53
2025-08-15T00:42:12.737Z,17,GR86-013-80,0.5,0.063,-0.038,99.74,5.0,,0.0,0.0,
2025-08-15T00:42:12.780Z,17,GR86-013-80,0.5,0.052,-0.031,99.75,5.0,,0.0,0.0,
2025-08-15T00:42:12.823Z,17,GR86-013-80,0.5,0.045,-0.05,99.75,5.0,,0.0,0.0,
2025-08-15T00:42:12.866Z,17,GR86-013-80,0.5,0.067,-0.047,99.75,5.0,6420.0,0.0,0.0,
2025-08-15T00:42:12.909Z,17,GR86-013-80,0.4,0.103,-0.044,99.75,5.0,,0.0,0.0,189.07
2025-08-15T00:42:12.953Z,17,GR86-013-80,0.5,0.07,-0.038,99.75,5.0,,0.0,0.0,
2025-08-15T00:42:12.997Z,17,GR86-013-80,0.5,0.084,-0.042,99.75,5.0,,0.0,0.0,
2025-08-15T00:42:13.040Z,17,GR86-013-80,0.5,0.073,-0.06,99.74,5.0,,0.0,0.0,
2025-08-15T00:42:13.083Z,17,GR86-013-80,0.4,0.067,-0.052,99.76,5.0,6447.0,0.0,0.0,
2025-08-15T00:42:13.127Z,17,GR86-013-80,0.2,0.06,-0.029,99.76,5.0,,0.0,0.0,189.67
2025-08-15T00:42:13.170Z,17,GR86-013-80,0.0,0.09,-0.055,99.76,5.0,,0.0,0.0,
2025-08-15T00:42:13.214Z,17,GR86-013-80,0.0,0.11,-0.054,99.75,5.0,,0.0,0.0,
2025-08-15T00:42:13.257Z,17,GR86-013-80,0.0,0.099,-0.058,99.75,5.0,,0.0,0.0,
2025-08-15T00:42:13.300Z,17,GR86-013-80,0.0,0.122,-0.067,99.74,5.0,6455.0,0.0,0.0,
2025-08-15T00:42:13.343Z,17,GR86-013-80,0.0,0.089,-0.071,99.75,5.0,,0.0,0.0,190.65
2025-08-15T00:42:13.387Z,17,GR86-013-80,0.0,0.091,-0.078,99.75,5.0,,0.0,0.0,
2025-08-15T00:42:13.431Z,17,GR86-013-80,0.0,0.076,-0.078,99.75,5.0,,0.0,0.0,
2025-08-15T00:42:13.474Z,17,GR86-013-80,0.0,0.085,-0.084,99.76,5.0,,0.0,0.0,
2025-08-15T00:42:13.517Z,17,GR86-013-80,0.0,0.097,-0.08,99.74,5.0,6480.0,0.0,0.0,
2025-08-15T00:42:13.560Z,17,GR86-013-80,0.0,0.104,-0.084,99.77,5.0,,0.0,0.0,191.21
2025-08-15T00:42:13.603Z,17,GR86-013-80,0.0,0.103,-0.086,99.76,5.0,,0.0,0.0,
2025-08-15T00:42:13.647Z,17,GR86-013-80,0.1,0.113,-0.102,99.74,5.0,,0.0,0.0,
2025-08-15T00:42:13.691Z,17,GR86-013-80,0.1,0.053,-0.086,99.75,5.0,,0.0,0.0,
2025-08-15T00:42:13.734Z,17,GR86-013-80,0.2,0.05,-0.088,99.75,5.0,6514.0,0.0,0.0,
2025-08-15T00:42:13.777Z,17,GR86-013-80,0.2,0.087,-0.055,99.76,5.0,,0.0,0.0,191.93
2025-08-15T00:42:13.821Z,17,GR86-013-80,0.2,0.067,-0.057,99.76,5.0,,0.0,0.0,
2025-08-15T00:42:13.864Z,17,GR86-013-80,0.3,0.105,-0.058,99.73,5.0,,0.0,0.0,
2025-08-15T00:42:13.907Z,17,GR86-013-80,0.3,0.108,-0.068,99.77,5.0,,0.0,0.0,
2025-08-15T00:42:13.951Z,17,GR86-013-80,0.3,0.052,-0.069,99.75,5.0,6540.0,0.0,0.0,
2025-08-15T00:42:13.994Z,17,GR86-013-80,0.4,0.041,-0.047,99.77,5.0,,0.0,0.0,192.48
2025-08-15T00:42:14.037Z,17,GR86-013-80,0.5,0.058,-0.062,99.76,5.0,,0.0,0.0,
2025-08-15T00:42:14.081Z,17,GR86-013-80,0.5,0.062,-0.061,99.74,5.0,,0.0,0.0,
2025-08-15T00:42:14.124Z,17,GR86-013-80,0.5,0.084,-0.067,99.76,5.0,,0.0,0.0,
2025-08-15T00:42:14.167Z,17,GR86-013-80,0.5,0.088,-0.042,99.76,5.0,6562.0,0.0,0.0,
2025-08-15T00:42:14.210Z,17,GR86-013-80,0.5,0.071,-0.015,99.76,5.0,,0.0,0.0,193.2
2025-08-15T00:42:14.253Z,17,GR86-013-80,0.6000000000000001,0.044,-0.009,99.76,5.0,,0.0,0.0,
2025-08-15T00:42:14.296Z,17,GR86-013-80,0.7000000000000001,0.047,-0.012,99.75,5.0,,0.0,0.0,
2025-08-15T00:42:14.339Z,17,GR86-013-80,0.7000000000000001,0.055,-0.019,99.74,5.0,,0.0,0.0,
2025-08-15T00:42:14.382Z,17,GR86-013-80,0.7000000000000001,0.062,-0.031,99.74,5.0,6585.0,0.0,0.0,
2025-08-15T00:42:14.425Z,17,GR86-013-80,0.8,0.072,-0.035,99.76,5.0,,0.0,0.0,193.7
2025-08-15T00:42:14.468Z,17,GR86-013-80,0.8,0.098,-0.025,99.76,5.0,,0.0,0.0,
2025-08-15T00:42:14.511Z,17,GR86-013-80,0.8,0.057,-0.011,99.76,5.0,,0.0,0.0,
2025-08-15T00:42:14.554Z,17,GR86-013-80,0.8,0.029,0.011,99.75,5.0,,0.0,0.0,
2025-08-15T00:42:14.597Z,17,GR86-013-80,0.9,0.064,0.022,99.75,5.0,6604.0,0.0,0.0,
2025-08-15T00:42:14.640Z,17,GR86-013-80,0.9,0.048,0.016,99.76,5.0,,0.0,0.0,194.48
2025-08-15T00:42:14.683Z,17,GR86-013-80,0.9,0.078,0.006,99.74,5.0,,0.0,0.0,
2025-08-15T00:42:14.726Z,17,GR86-013-80,0.9,0.086,0.008,99.75,5.0,,0.0,0.0,
2025-08-15T00:42:14.771Z,17,GR86-013-80,0.9,0.046,-0.011,99.73,5.0,,0.0,0.0,
2025-08-15T00:42:14.814Z,17,GR86-013-80,0.9,0.031,-0.021,99.75,5.0,6625.0,0.0,0.0,
2025-08-15T00:42:14.857Z,17,GR86-013-80,0.8,0.054,-0.023,99.75,5.0,,0.0,0.0,195.01
2025-08-15T00:42:14.901Z,17,GR86-013-80,0.7000000000000001,0.044,-0.025,99.76,5.0,,0.0,0.0,
2025-08-15T00:42:14.944Z,17,GR86-013-80,0.7000000000000001,0.069,-0.025,99.76,5.0,,0.0,0.0,
2025-08-15T00:42:14.987Z,17,GR86-013-80,0.7000000000000001,0.081,-0.017,99.74,5.0,,0.0,0.0,
2025-08-15T00:42:15.031Z,17,GR86-013-80,0.7000000000000001,0.036,-0.01,99.75,5.0,6638.0,0.0,0.0,
2025-08-15T00:42:15.074Z,17,GR86-013-80,0.7000000000000001,0.05,0.012,99.75,5.0,,0.0,0.0,195.7
2025-08-15T00:42:15.117Z,17,GR86-013-80,0.7000000000000001,0.038,-0.012,99.76,5.0,,0.0,0.0,
2025-08-15T00:42:15.160Z,17,GR86-013-80,0.7000000000000001,0.061,-0.017,99.75,5.0,,0.0,0.0,
2025-08-15T00:42:15.203Z,17,GR86-013-80,0.8,0.069,-0.007,99.75,5.0,,0.0,0.0,
2025-08-15T00:42:15.247Z,17,GR86-013-80,0.8,0.082,-0.008,99.73,5.0,6670.0,0.0,0.0,
2025-08-15T00:42:15.291Z,17,GR86-013-80,0.8,0.048,-0.017,99.76,5.0,,0.0,0.0,196.19
2025-08-15T00:42:15.334Z,17,GR86-013-80,0.8,0.041,-0.023,99.76,5.0,,0.0,0.0,
2025-08-15T00:42:15.377Z,17,GR86-013-80,0.7000000000000001,0.055,-0.008,99.76,5.0,,0.0,0.0,
2025-08-15T00:42:15.421Z,17,GR86-013-80,0.7000000000000001,0.063,-0.01,99.75,5.0,,0.0,0.0,
2025-08-15T00:42:15.507Z,17,GR86-013-80,0.7000000000000001,0.086,-0.005,99.75,5.0,6679.0,0.0,0.0,196.85
2025-08-15T00:42:15.551Z,17,GR86-013-80,0.8,0.035,-0.01,99.75,5.0,,0.0,0.0,
2025-08-15T00:42:15.594Z,17,GR86-013-80,0.8,0.044,-0.018,99.76,5.0,,0.0,0.0,
2025-08-15T00:42:15.637Z,17,GR86-013-80,0.7000000000000001,0.045,-0.022,99.76,5.0,,0.0,0.0,
2025-08-15T00:42:15.680Z,17,GR86-013-80,0.7000000000000001,0.069,-0.016,99.74,5.0,6699.0,0.0,0.0,
2025-08-15T00:42:15.766Z,17,GR86-013-80,0.6000000000000001,0.082,-0.027,99.76,5.0,,0.0,0.0,197.3
2025-08-15T00:42:15.810Z,17,GR86-013-80,0.5,0.026,-0.004,99.75,5.0,,0.0,0.0,
2025-08-15T00:42:15.853Z,17,GR86-013-80,0.5,0.056,-0.014,99.75,5.0,,0.0,0.0,
2025-08-15T00:42:15.897Z,17,GR86-013-80,0.5,0.069,-0.014,99.74,5.0,6716.0,0.0,0.0,
2025-08-15T00:42:15.941Z,17,GR86-013-80,0.5,0.098,-0.024,99.75,5.0,,0.0,0.0,198.36
2025-08-15T00:42:15.984Z,17,GR86-013-80,0.6000000000000001,0.085,-0.029,99.74,5.0,,0.0,0.0,
2025-08-15T00:42:16.027Z,17,GR86-013-80,0.6000000000000001,0.1,-0.034,99.76,5.0,,0.0,0.0,
2025-08-15T00:42:16.070Z,17,GR86-013-80,0.6000000000000001,0.059,-0.031,99.74,5.0,,0.0,0.0,
2025-08-15T00:42:16.114Z,17,GR86-013-80,0.6000000000000001,0.067,-0.033,99.75,5.0,6733.0,0.0,0.0,
2025-08-15T00:42:16.157Z,17,GR86-013-80,0.7000000000000001,0.093,-0.031,99.75,5.0,,0.0,0.0,198.87
2025-08-15T00:42:16.200Z,17,GR86-013-80,0.7000000000000001,0.086,-0.041,99.75,5.0,,0.0,0.0,
2025-08-15T00:42:16.243Z,17,GR86-013-80,0.6000000000000001,0.097,-0.023,99.75,5.0,,0.0,0.0,
2025-08-15T00:42:16.287Z,17,GR86-013-80,0.7000000000000001,0.066,0.005,99.76,5.0,,0.0,0.0,
2025-08-15T00:42:16.331Z,17,GR86-013-80,0.7000000000000001,0.079,0.004,99.74,5.0,6760.0,0.0,0.0,
2025-08-15T00:42:16.374Z,17,GR86-013-80,0.8,0.092,-0.001,99.75,5.0,,0.0,0.0,199.31
2025-08-15T00:42:16.417Z,17,GR86-013-80,0.8,0.096,0.001,99.74,5.0,,0.0,0.0,
2025-08-15T00:42:16.503Z,17,GR86-013-80,0.7000000000000001,0.074,-0.023,99.75,5.0,,0.0,0.0,
2025-08-15T00:42:16.547Z,17,GR86-013-80,0.6000000000000001,0.064,-0.024,99.74,5.0,6777.0,0.0,0.0,
2025-08-15T00:42:16.591Z,17,GR86-013-80,0.5,0.074,-0.01,99.75,5.0,,0.0,0.0,199.76
2025-08-15T00:42:16.634Z,17,GR86-013-80,0.6000000000000001,0.093,-0.009,99.76,5.0,,0.0,0.0,
2025-08-15T00:42:16.677Z,17,GR86-013-80,0.7000000000000001,0.082,-0.002,99.74,5.0,,0.0,0.0,
2025-08-15T00:42:16.721Z,17,GR86-013-80,0.9,0.047,0.004,99.76,5.0,,0.0,0.0,
2025-08-15T00:42:16.764Z,17,GR86-013-80,0.9,0.048,-0.023,99.73,5.0,6785.0,0.0,0.0,
2025-08-15T00:42:16.807Z,17,GR86-013-80,0.9,0.027,-0.038,99.74,5.0,,0.0,0.0,200.23
2025-08-15T00:42:16.851Z,17,GR86-013-80,0.8,0.072,-0.032,99.74,5.0,,0.0,0.0,
2025-08-15T00:42:16.894Z,17,GR86-013-80,0.7000000000000001,0.059,-0.03,99.75,5.0,,0.0,0.0,
2025-08-15T00:42:16.980Z,17,GR86-013-80,0.7000000000000001,0.039,-0.026,99.74,5.0,6807.0,0.0,0.0,
2025-08-15T00:42:17.023Z,17,GR86-013-80,0.6000000000000001,0.037,-0.022,99.75,5.0,,0.0,0.0,200.52
2025-08-15T00:42:17.066Z,17,GR86-013-80,0.6000000000000001,0.04,-0.036,99.75,5.0,,0.0,0.0,
2025-08-15T00:42:17.109Z,17,GR86-013-80,0.6000000000000001,0.05,-0.048,99.75,5.0,,0.0,0.0,
2025-08-15T00:42:17.153Z,17,GR86-013-80,0.7000000000000001,0.026,-0.057,99.75,5.0,,0.0,0.0,
2025-08-15T00:42:17.196Z,17,GR86-013-80,0.7000000000000001,0.038,-0.057,99.74,5.0,6821.0,0.0,0.0,
2025-08-15T00:42:17.240Z,17,GR86-013-80,0.6000000000000001,0.03,-0.044,99.74,5.0,,0.0,0.0,200.93
2025-08-15T00:42:17.283Z,17,GR86-013-80,0.7000000000000001,0.057,-0.024,99.74,5.0,,0.0,0.0,
2025-08-15T00:42:17.327Z,17,GR86-013-80,0.7000000000000001,0.048,-0.004,99.73,5.0,,0.0,0.0,
2025-08-15T00:42:17.370Z,17,GR86-013-80,1.1,0.015,-0.056,99.75,5.0,,0.0,0.0,
2025-08-15T00:42:17.414Z,17,GR86-013-80,1.2000000000000002,0.051,-0.044,99.73,5.0,6828.0,0.0,0.0,
2025-08-15T00:42:17.457Z,17,GR86-013-80,1.2000000000000002,0.049,-0.024,99.73,5.0,,0.0,0.0,201.32
2025-08-15T00:42:17.500Z,17,GR86-013-80,1.4,0.049,-0.017,99.74,5.0,,0.0,0.0,
2025-08-15T00:42:17.543Z,17,GR86-013-80,1.5,0.07,-0.013,99.75,5.0,,0.0,0.0,
2025-08-15T00:42:17.587Z,17,GR86-013-80,1.6,0.059,-0.012,99.75,5.0,,0.0,0.0,
2025-08-15T00:42:17.631Z,17,GR86-013-80,1.6,0.037,0.003,99.73,5.0,6839.0,0.0,0.0,
2025-08-15T00:42:17.674Z,17,GR86-013-80,1.7000000000000002,0.066,-0.007,99.74,5.0,,0.0,0.0,201.7
2025-08-15T00:42:17.717Z,17,GR86-013-80,2.0,0.07,0.024,99.75,5.0,,0.0,0.0,
2025-08-15T00:42:17.760Z,17,GR86-013-80,2.1,0.055,0.031,99.75,5.0,,0.0,0.0,
2025-08-15T00:42:17.803Z,17,GR86-013-80,2.4000000000000004,0.07,0.025,99.75,5.0,,0.0,0.0,
2025-08-15T00:42:17.846Z,17,GR86-013-80,2.7,0.026,0.018,99.74,5.0,6851.0,0.0,0.0,
2025-08-15T00:42:17.891Z,17,GR86-013-80,2.9000000000000004,0.054,0.052,99.74,5.0,,0.0,0.0,202.03
2025-08-15T00:42:17.934Z,17,GR86-013-80,2.9000000000000004,0.057,0.053,99.75,5.0,,0.0,0.0,
2025-08-15T00:42:17.977Z,17,GR86-013-80,2.9000000000000004,0.052,0.055,99.74,5.0,,0.0,0.0,
2025-08-15T00:42:18.021Z,17,GR86-013-80,2.9000000000000004,0.031,0.046,99.72,5.0,,0.0,0.0,
2025-08-15T00:42:18.064Z,17,GR86-013-80,2.9000000000000004,0.048,0.035,99.75,5.0,6872.0,0.0,0.0,
2025-08-15T00:42:18.107Z,17,GR86-013-80,2.9000000000000004,0.034,0.043,99.75,5.0,,0.0,0.0,202.36
2025-08-15T00:42:18.151Z,17,GR86-013-80,2.9000000000000004,0.047,0.03,99.71,5.0,,0.0,0.0,
2025-08-15T00:42:18.194Z,17,GR86-013-80,2.9000000000000004,0.045,0.024,99.72,5.0,,0.0,0.0,
2025-08-15T00:42:18.237Z,17,GR86-013-80,2.8000000000000003,0.029,0.004,99.73,5.0,,0.0,0.0,
2025-08-15T00:42:18.280Z,17,GR86-013-80,2.6,0.049,0.016,99.76,5.0,6877.0,0.0,0.0,
2025-08-15T00:42:18.324Z,17,GR86-013-80,2.4000000000000004,0.038,0.025,99.74,5.0,,0.0,0.0,202.82
2025-08-15T00:42:18.367Z,17,GR86-013-80,2.3000000000000003,0.046,0.032,99.74,5.0,,0.0,0.0,
2025-08-15T00:42:18.410Z,17,GR86-013-80,2.4000000000000004,0.053,0.012,99.74,5.0,,0.0,0.0,
2025-08-15T00:42:18.454Z,17,GR86-013-80,2.6,0.048,-0.005,99.74,5.0,,0.0,0.0,
2025-08-15T00:42:18.497Z,17,GR86-013-80,2.8000000000000003,0.07,0.016,99.73,5.0,6896.0,0.0,0.0,
2025-08-15T00:42:18.540Z,17,GR86-013-80,2.9000000000000004,0.043,0.027,99.74,5.0,,0.0,0.0,203.32
2025-08-15T00:42:18.583Z,17,GR86-013-80,2.9000000000000004,0.064,0.043,99.75,5.0,,0.0,0.0,
2025-08-15T00:42:18.626Z,17,GR86-013-80,2.9000000000000004,0.055,0.048,99.74,5.0,,0.0,0.0,
2025-08-15T00:42:18.671Z,17,GR86-013-80,3.0,0.061,0.053,99.76,5.0,,0.0,0.0,
2025-08-15T00:42:18.714Z,17,GR86-013-80,2.9000000000000004,0.058,0.074,99.74,5.0,6899.0,0.0,0.0,
2025-08-15T00:42:18.757Z,17,GR86-013-80,2.6,0.048,0.087,64.24,5.0,,0.0,1.8,203.6
2025-08-15T00:42:18.801Z,17,GR86-013-80,2.4000000000000004,0.038,0.085,34.74,5.0,,5.86,5.7700000000000005,
2025-08-15T00:42:18.844Z,17,GR86-013-80,2.4000000000000004,-0.032,0.064,18.43,5.0,,10.715,10.745,
2025-08-15T00:42:18.887Z,17,GR86-013-80,2.2,-0.163,0.054,5.13,5.0,,15.93,15.9,
2025-08-15T00:42:18.931Z,17,GR86-013-80,1.4,-0.501,0.035,4.97,5.0,6843.0,28.9,28.84,
2025-08-15T00:42:18.974Z,17,GR86-013-80,1.1,-0.633,0.031,4.59,5.0,,42.12,41.735,203.94
2025-08-15T00:42:19.017Z,17,GR86-013-80,1.0,-1.052,-0.026,4.19,5.0,,55.775,55.15,
2025-08-15T00:42:19.060Z,17,GR86-013-80,0.5,-1.121,-0.011,3.84,5.0,,66.93,67.02,
2025-08-15T00:42:19.103Z,17,GR86-013-80,0.4,-1.21,-0.05,3.5700000000000003,5.0,,73.75,74.925,
2025-08-15T00:42:19.147Z,17,GR86-013-80,0.5,-1.159,-0.112,3.36,5.0,6528.0,75.935,77.11,
2025-08-15T00:42:19.191Z,17,GR86-013-80,1.4,-1.162,-0.059,3.0,5.0,,74.44,74.53,200.51
2025-08-15T00:42:19.234Z,17,GR86-013-80,1.7000000000000002,-1.228,-0.076,2.76,5.0,,73.37,74.315,
2025-08-15T00:42:19.277Z,17,GR86-013-80,1.8,-1.204,-0.062,22.63,5.0,,69.495,70.06,
2025-08-15T00:42:19.321Z,17,GR86-013-80,2.3000000000000003,-1.25,-0.101,66.5,5.0,,63.205,63.65,
2025-08-15T00:42:19.364Z,17,GR86-013-80,3.5,-1.131,-0.066,99.48,5.0,6041.0,58.585,59.865,
2025-08-15T00:42:19.407Z,17,GR86-013-80,4.2,-1.069,-0.072,72.67,4.0,,54.77,55.365,191.36
2025-08-15T00:42:19.451Z,17,GR86-013-80,3.7,-1.127,-0.11,4.41,4.0,,51.120000000000005,52.115,
2025-08-15T00:42:19.494Z,17,GR86-013-80,2.9000000000000004,-1.108,-0.045,3.85,4.0,,51.745000000000005,52.965,
2025-08-15T00:42:19.537Z,17,GR86-013-80,2.9000000000000004,-1.085,-0.178,3.68,4.0,,49.765,50.25,
2025-08-15T00:42:19.580Z,17,GR86-013-80,2.9000000000000004,-1.111,-0.08,3.47,4.0,6702.0,48.620000000000005,49.425,
2025-08-15T00:42:19.623Z,17,GR86-013-80,2.4000000000000004,-0.997,-0.062,3.27,4.0,,47.9,48.65,183.18
2025-08-15T00:42:19.667Z,17,GR86-013-80,0.1,-0.98,-0.159,3.09,4.0,,47.46,47.995000000000005,
2025-08-15T00:42:19.710Z,17,GR86-013-80,-2.5,-1.025,-0.038,2.73,4.0,,50.495000000000005,50.585,
2025-08-15T00:42:19.753Z,17,GR86-013-80,-2.6,-1.049,-0.155,2.61,4.0,,53.99,53.93,
2025-08-15T00:42:19.797Z,17,GR86-013-80,-2.4000000000000004,-1.075,-0.119,2.54,4.0,6584.0,55.575,55.575,
2025-08-15T00:42:19.842Z,17,GR86-013-80,-1.8,-1.093,-0.119,2.5,4.0,,55.865,56.155,176.48
2025-08-15T00:42:19.885Z,17,GR86-013-80,-1.1,-1.12,-0.164,2.47,4.0,,56.035,56.28,
2025-08-15T00:42:19.928Z,17,GR86-013-80,-0.6000000000000001,-1.123,-0.147,2.48,4.0,,56.66,56.875,
2025-08-15T00:42:19.971Z,17,GR86-013-80,-0.4,-1.117,-0.164,36.32,4.0,,59.835,59.68,
2025-08-15T00:42:20.014Z,17,GR86-013-80,-0.8,-1.155,-0.203,81.53,4.0,6165.0,63.375,64.365,
2025-08-15T00:42:20.057Z,17,GR86-013-80,-0.9,-1.162,-0.248,94.63,3.0,,65.985,66.99,169.21
2025-08-15T00:42:20.100Z,17,GR86-013-80,-0.9,-1.238,-0.289,28.57,3.0,,66.425,67.295,
2025-08-15T00:42:20.143Z,17,GR86-013-80,-0.3,-1.12,-0.248,3.11,3.0,,67.785,69.08,
2025-08-15T00:42:20.187Z,17,GR86-013-80,1.0,-1.213,-0.345,2.68,3.0,,67.755,68.21000000000001,
2025-08-15T00:42:20.231Z,17,GR86-013-80,3.0,-1.25,-0.385,2.6,3.0,6038.0,64.03,64.78,
2025-08-15T00:42:20.317Z,17,GR86-013-80,6.2,-1.142,-0.611,2.57,3.0,,60.58,61.175,161.44
2025-08-15T00:42:20.360Z,17,GR86-013-80,6.4,-1.033,-0.436,2.57,3.0,,57.865,58.555,
2025-08-15T00:42:20.403Z,17,GR86-013-80,6.4,-1.07,-0.364,2.56,3.0,,57.21,58.555,
2025-08-15T00:42:20.447Z,17,GR86-013-80,6.300000000000001,-1.032,-0.5,2.5500000000000003,3.0,6628.0,56.69,57.99,
2025-08-15T00:42:20.491Z,17,GR86-013-80,4.2,-1.102,-0.415,2.54,3.0,,54.525,54.83,154.1
2025-08-15T00:42:20.534Z,17,GR86-013-80,3.2,-1.094,-0.474,2.54,3.0,,52.83,53.365,
2025-08-15T00:42:20.621Z,17,GR86-013-80,1.7000000000000002,-0.998,-0.403,2.53,3.0,,47.49,48.77,
2025-08-15T00:42:20.664Z,17,GR86-013-80,-2.7,-0.977,-0.421,2.54,3.0,6351.0,43.92,45.185,
2025-08-15T00:42:20.751Z,17,GR86-013-80,-13.3,-0.843,-0.548,2.52,3.0,,26.72,27.835,147.36
2025-08-15T00:42:20.794Z,17,GR86-013-80,-19.700000000000003,-0.707,-0.587,2.53,3.0,,17.84,18.65,
2025-08-15T00:42:20.837Z,17,GR86-013-80,-26.4,-0.482,-0.668,2.52,3.0,,8.3,8.805,
2025-08-15T00:42:20.880Z,17,GR86-013-80,-32.800000000000004,-0.28,-0.764,2.51,3.0,6014.0,0.0,2.105,
2025-08-15T00:42:20.923Z,17,GR86-013-80,-38.7,-0.203,-0.812,2.51,3.0,,0.0,0.0,139.88
2025-08-15T00:42:20.966Z,17,GR86-013-80,-42.8,-0.194,-0.853,2.51,3.0,,0.0,0.0,
2025-08-15T00:42:21.009Z,17,GR86-013-80,-46.1,-0.19,-0.982,11.74,3.0,,0.0,0.0,
2025-08-15T00:42:21.053Z,17,GR86-013-80,-46.7,-0.184,-1.03,29.73,3.0,,0.0,0.0,
2025-08-15T00:42:21.096Z,17,GR86-013-80,-46.900000000000006,-0.199,-1.132,31.48,3.0,6060.0,0.0,0.0,
2025-08-15T00:42:21.139Z,17,GR86-013-80,-46.8,-0.146,-1.158,32.68,3.0,,0.0,0.0,132.64
2025-08-15T00:42:21.182Z,17,GR86-013-80,-43.400000000000006,-0.129,-1.175,36.73,3.0,,0.0,0.0,
2025-08-15T00:42:21.225Z,17,GR86-013-80,-38.7,-0.081,-1.183,48.69,3.0,,0.0,0.0,
2025-08-15T00:42:21.268Z,17,GR86-013-80,-33.800000000000004,0.19,-1.141,57.47,3.0,,0.0,0.0,
2025-08-15T00:42:21.311Z,17,GR86-013-80,-29.6,0.184,-1.146,96.84,3.0,6037.0,0.0,0.0,
2025-08-15T00:42:21.354Z,17,GR86-013-80,-30.1,0.136,-1.166,99.55,3.0,,0.0,0.0,132.48
2025-08-15T00:42:21.397Z,17,GR86-013-80,-32.4,0.146,-1.202,99.73,3.0,,0.0,0.0,
2025-08-15T00:42:21.441Z,17,GR86-013-80,-35.5,0.152,-1.188,99.74,3.0,,0.0,0.0,
2025-08-15T00:42:21.484Z,17,GR86-013-80,-38.5,0.163,-1.228,99.74,3.0,,0.0,0.0,
2025-08-15T00:42:21.527Z,17,GR86-013-80,-40.7,0.154,-1.217,99.75,3.0,6321.0,0.0,0.0,
2025-08-15T00:42:21.570Z,17,GR86-013-80,-44.6,0.144,-1.229,99.74,3.0,,0.0,0.0,132.75
2025-08-15T00:42:21.614Z,17,GR86-013-80,-50.1,0.144,-1.256,99.74,3.0,,0.0,0.0,
2025-08-15T00:42:21.657Z,17,GR86-013-80,-56.2,0.143,-1.206,99.77,3.0,,0.0,0.0,
2025-08-15T00:42:21.700Z,17,GR86-013-80,-58.8,0.135,-1.252,99.77,3.0,,0.0,0.0,
2025-08-15T00:42:21.743Z,17,GR86-013-80,-58.2,0.135,-1.259,99.75,3.0,6292.0,0.0,0.0,
2025-08-15T00:42:21.787Z,17,GR86-013-80,-53.400000000000006,0.13,-1.241,99.75,3.0,,0.0,0.0,133.4
2025-08-15T00:42:21.831Z,17,GR86-013-80,-47.900000000000006,0.14,-1.279,99.76,3.0,,0.0,0.0,
2025-08-15T00:42:21.874Z,17,GR86-013-80,-45.400000000000006,0.146,-1.2,99.74,3.0,,0.0,0.0,
2025-08-15T00:42:21.917Z,17,GR86-013-80,-43.7,0.13,-1.218,99.75,3.0,,0.0,0.0,
2025-08-15T00:42:21.960Z,17,GR86-013-80,-42.5,0.147,-1.191,99.76,3.0,6337.0,0.0,0.0,
2025-08-15T00:42:22.003Z,17,GR86-013-80,-41.5,0.15,-1.244,99.78,3.0,,0.0,0.0,134.2
2025-08-15T00:42:22.047Z,17,GR86-013-80,-41.6,0.156,-1.21,99.78,3.0,,0.0,0.0,
2025-08-15T00:42:22.091Z,17,GR86-013-80,-45.0,0.159,-1.172,99.76,3.0,,0.0,0.0,
2025-08-15T00:42:22.134Z,17,GR86-013-80,-48.3,0.133,-1.2,99.76,3.0,,0.0,0.0,
2025-08-15T00:42:22.177Z,17,GR86-013-80,-51.5,0.133,-1.218,99.78,3.0,6384.0,0.0,0.0,
2025-08-15T00:42:22.264Z,17,GR86-013-80,-52.5,0.143,-1.251,99.76,3.0,,0.0,0.0,135.02
2025-08-15T00:42:22.307Z,17,GR86-013-80,-52.7,0.102,-1.292,99.77,3.0,,0.0,0.0,
2025-08-15T00:42:22.351Z,17,GR86-013-80,-52.5,0.14,-1.219,99.75,3.0,,0.0,0.0,
2025-08-15T00:42:22.394Z,17,GR86-013-80,-51.0,0.127,-1.134,99.74,3.0,6434.0,0.0,0.0,
2025-08-15T00:42:22.437Z,17,GR86-013-80,-47.1,0.065,-1.254,99.76,3.0,,0.0,0.0,135.54
2025-08-15T00:42:22.481Z,17,GR86-013-80,-41.7,0.099,-1.281,99.76,3.0,,0.0,0.0,
2025-08-15T00:42:22.524Z,17,GR86-013-80,-36.8,0.151,-1.21,99.75,3.0,,0.0,0.0,
2025-08-15T00:42:22.567Z,17,GR86-013-80,-32.4,0.131,-1.227,99.78,3.0,,0.0,0.0,
2025-08-15T00:42:22.610Z,17,GR86-013-80,-31.8,0.125,-1.185,99.76,3.0,6516.0,0.0,0.0,
2025-08-15T00:42:22.654Z,17,GR86-013-80,-32.9,0.129,-1.261,99.77,3.0,,0.0,0.0,136.0
2025-08-15T00:42:22.697Z,17,GR86-013-80,-33.0,0.156,-1.304,99.76,3.0,,0.0,0.0,
2025-08-15T00:42:22.740Z,17,GR86-013-80,-31.5,0.173,-1.308,99.74,3.0,,0.0,0.0,
2025-08-15T00:42:22.783Z,17,GR86-013-80,-27.8,0.149,-1.325,99.75,3.0,,0.0,0.0,
2025-08-15T00:42:22.827Z,17,GR86-013-80,-26.4,0.133,-1.285,99.76,3.0,6548.0,0.0,0.0,
2025-08-15T00:42:22.871Z,17,GR86-013-80,-28.6,0.143,-1.292,99.77,3.0,,0.0,0.0,136.64
2025-08-15T00:42:22.914Z,17,GR86-013-80,-30.6,0.131,-1.279,99.77,3.0,,0.0,0.0,
2025-08-15T00:42:22.957Z,17,GR86-013-80,-31.4,0.168,-1.255,99.76,3.0,,0.0,0.0,
2025-08-15T00:42:23.001Z,17,GR86-013-80,-31.3,0.148,-1.259,99.75,3.0,,0.0,0.0,
2025-08-15T00:42:23.044Z,17,GR86-013-80,-29.0,0.112,-1.261,99.73,3.0,6566.0,0.0,0.0,
2025-08-15T00:42:23.087Z,17,GR86-013-80,-26.3,0.141,-1.295,79.37,3.0,,0.0,0.0,137.19
2025-08-15T00:42:23.131Z,17,GR86-013-80,-24.5,0.133,-1.385,67.85,3.0,,0.0,0.0,
2025-08-15T00:42:23.174Z,17,GR86-013-80,-26.5,0.147,-1.366,71.97,3.0,,0.0,0.0,
2025-08-15T00:42:23.217Z,17,GR86-013-80,-32.1,0.162,-1.325,74.7,3.0,,0.0,0.0,
2025-08-15T00:42:23.260Z,17,GR86-013-80,-40.7,0.148,-1.298,79.5,3.0,6646.0,0.0,0.0,
2025-08-15T00:42:23.303Z,17,GR86-013-80,-48.5,0.131,-1.275,86.62,3.0,,0.0,0.0,137.32
2025-08-15T00:42:23.346Z,17,GR86-013-80,-51.0,0.148,-1.241,91.9,3.0,,0.0,0.0,
2025-08-15T00:42:23.391Z,17,GR86-013-80,-49.6,0.117,-1.217,93.89,3.0,,0.0,0.0,
2025-08-15T00:42:23.434Z,17,GR86-013-80,-44.3,0.134,-1.235,91.36,3.0,,0.0,0.0,
2025-08-15T00:42:23.477Z,17,GR86-013-80,-35.6,0.143,-1.328,77.58,3.0,6688.0,0.0,0.0,
2025-08-15T00:42:23.521Z,17,GR86-013-80,-23.9,0.142,-1.305,62.53,3.0,,0.0,0.0,137.91
2025-08-15T00:42:23.564Z,17,GR86-013-80,-12.2,0.148,-1.267,58.48,3.0,,0.0,0.0,
2025-08-15T00:42:23.607Z,17,GR86-013-80,-6.2,0.168,-1.254,58.43,3.0,,0.0,0.0,
2025-08-15T00:42:23.651Z,17,GR86-013-80,-8.5,0.18,-1.315,64.24,3.0,,0.0,0.0,
2025-08-15T00:42:23.694Z,17,GR86-013-80,-13.5,0.172,-1.305,71.62,3.0,6760.0,0.0,0.0,
2025-08-15T00:42:23.737Z,17,GR86-013-80,-22.1,0.154,-1.301,72.63,3.0,,0.0,0.0,138.54
2025-08-15T00:42:23.780Z,17,GR86-013-80,-33.6,0.139,-1.319,71.83,3.0,,0.0,0.0,
2025-08-15T00:42:23.823Z,17,GR86-013-80,-44.3,0.172,-1.29,71.27,3.0,,0.0,0.0,
2025-08-15T00:42:23.866Z,17,GR86-013-80,-48.6,0.18,-1.312,71.28,3.0,,0.0,0.0,
2025-08-15T00:42:23.909Z,17,GR86-013-80,-42.8,0.173,-1.286,71.47,3.0,6752.0,0.0,0.0,
2025-08-15T00:42:23.953Z,17,GR86-013-80,-34.6,0.164,-1.269,70.0,3.0,,0.0,0.0,138.88
2025-08-15T00:42:23.996Z,17,GR86-013-80,-26.5,0.161,-1.186,66.64,3.0,,0.0,0.0,
2025-08-15T00:42:24.039Z,17,GR86-013-80,-20.4,0.188,-1.133,65.25,3.0,,0.0,0.0,
2025-08-15T00:42:24.084Z,17,GR86-013-80,-19.9,0.23,-0.792,61.98,3.0,,0.0,0.0,
2025-08-15T00:42:24.127Z,17,GR86-013-80,-23.8,0.134,-0.669,58.39,3.0,6744.0,0.0,0.0,
2025-08-15T00:42:24.170Z,17,GR86-013-80,-29.3,0.107,-0.528,58.0,3.0,,0.0,0.0,139.3
2025-08-15T00:42:24.214Z,17,GR86-013-80,-30.4,0.073,-0.749,56.22,3.0,,0.0,0.0,
2025-08-15T00:42:24.257Z,17,GR86-013-80,-32.4,0.178,-0.991,50.38,3.0,,0.0,0.0,
2025-08-15T00:42:24.300Z,17,GR86-013-80,-33.6,0.33,-0.671,43.44,3.0,,0.0,0.0,
2025-08-15T00:42:24.343Z,17,GR86-013-80,-33.300000000000004,0.266,-0.8130000000000001,39.75,3.0,6733.0,0.0,0.0,
2025-08-15T00:42:24.387Z,17,GR86-013-80,-30.9,0.113,-1.216,39.05,3.0,,0.0,0.0,139.19
2025-08-15T00:42:24.431Z,17,GR86-013-80,-27.9,0.23,-1.268,39.43,3.0,,0.0,0.0,
2025-08-15T00:42:24.474Z,17,GR86-013-80,-28.4,0.075,-1.243,39.32,3.0,,0.0,0.0,
2025-08-15T00:42:24.517Z,17,GR86-013-80,-30.3,0.127,-1.102,39.83,3.0,,0.0,0.0,
2025-08-15T00:42:24.560Z,17,GR86-013-80,-36.0,0.106,-1.186,44.5,3.0,6705.0,0.0,0.0,
2025-08-15T00:42:24.603Z,17,GR86-013-80,-44.1,0.076,-1.531,48.13,3.0,,0.0,0.0,140.53
2025-08-15T00:42:24.647Z,17,GR86-013-80,-52.8,0.136,-1.528,49.44,3.0,,0.0,0.0,
2025-08-15T00:42:24.691Z,17,GR86-013-80,-51.5,0.128,-1.459,58.82,3.0,,0.0,0.0,
2025-08-15T00:42:24.734Z,17,GR86-013-80,-43.900000000000006,0.1,-1.213,72.24,3.0,,0.0,0.0,
2025-08-15T00:42:24.777Z,17,GR86-013-80,-39.3,0.083,-1.029,81.94,3.0,6659.0,0.0,0.0,
2025-08-15T00:42:24.865Z,17,GR86-013-80,-35.1,0.091,-0.925,97.23,3.0,,0.0,0.0,140.38
2025-08-15T00:42:24.908Z,17,GR86-013-80,-25.1,0.251,-1.045,99.7,3.0,,0.0,0.0,
2025-08-15T00:42:24.951Z,17,GR86-013-80,-10.8,0.151,-0.968,99.74,3.0,,0.0,0.0,
2025-08-15T00:42:24.994Z,17,GR86-013-80,-4.2,0.208,-0.939,99.71,3.0,6843.0,0.0,0.0,
2025-08-15T00:42:25.037Z,17,GR86-013-80,-4.1000000000000005,0.155,-0.927,99.72,3.0,,0.0,0.0,140.93
2025-08-15T00:42:25.081Z,17,GR86-013-80,-10.1,0.208,-1.065,99.75,3.0,,0.0,0.0,
2025-08-15T00:42:25.124Z,17,GR86-013-80,-17.7,0.218,-1.163,99.77,3.0,,0.0,0.0,
2025-08-15T00:42:25.167Z,17,GR86-013-80,-22.700000000000003,0.241,-1.258,99.76,3.0,,0.0,0.0,
2025-08-15T00:42:25.210Z,17,GR86-013-80,-30.200000000000003,0.191,-1.108,99.75,3.0,6881.0,0.0,0.0,
2025-08-15T00:42:25.254Z,17,GR86-013-80,-32.800000000000004,0.203,-1.046,99.76,3.0,,0.0,0.0,141.52
2025-08-15T00:42:25.297Z,17,GR86-013-80,-33.300000000000004,0.146,-0.964,99.75,3.0,,0.0,0.0,
2025-08-15T00:42:25.340Z,17,GR86-013-80,-31.3,0.183,-0.93,99.75,3.0,,0.0,0.0,
2025-08-15T00:42:25.383Z,17,GR86-013-80,-27.9,0.167,-0.858,99.74,3.0,,0.0,0.0,
2025-08-15T00:42:25.427Z,17,GR86-013-80,-26.700000000000003,0.192,-0.793,99.75,3.0,6731.0,0.0,0.0,
2025-08-15T00:42:25.470Z,17,GR86-013-80,-26.6,0.2,-0.656,99.72,3.0,,0.0,0.0,142.65
2025-08-15T00:42:25.514Z,17,GR86-013-80,-26.200000000000003,0.141,-0.78,99.73,3.0,,0.0,0.0,
2025-08-15T00:42:25.557Z,17,GR86-013-80,-22.9,0.171,-0.812,99.74,3.0,,0.0,0.0,
2025-08-15T00:42:25.600Z,17,GR86-013-80,-17.5,0.201,-0.778,99.72,3.0,,0.0,0.0,
2025-08-15T00:42:25.643Z,17,GR86-013-80,-12.2,0.174,-0.934,99.74,3.0,6809.0,0.0,0.0,
2025-08-15T00:42:25.687Z,17,GR86-013-80,-8.8,0.239,-0.842,99.74,3.0,,0.0,0.0,143.4
2025-08-15T00:42:25.731Z,17,GR86-013-80,-8.4,0.182,-0.762,99.75,3.0,,0.0,0.0,
2025-08-15T00:42:25.774Z,17,GR86-013-80,-8.4,0.122,-0.779,99.75,3.0,,0.0,0.0,
2025-08-15T00:42:25.817Z,17,GR86-013-80,-7.800000000000001,0.213,-0.476,99.74,3.0,,0.0,0.0,
2025-08-15T00:42:25.861Z,17,GR86-013-80,-5.5,0.187,-0.457,99.74,3.0,6840.0,0.0,0.0,
2025-08-15T00:42:25.905Z,17,GR86-013-80,-3.0,0.254,-0.163,99.72,3.0,,0.0,0.0,144.99
2025-08-15T00:42:25.948Z,17,GR86-013-80,-2.1,-0.005,-0.111,99.74,3.0,,0.0,0.0,
2025-08-15T00:42:25.991Z,17,GR86-013-80,1.9,0.194,-0.079,99.73,3.0,,0.0,0.0,
2025-08-15T00:42:26.034Z,17,GR86-013-80,7.300000000000001,0.203,-0.013,99.73,3.0,,0.0,0.0,
2025-08-15T00:42:26.077Z,17,GR86-013-80,12.2,0.308,-0.04,99.75,3.0,6859.0,0.0,0.0,
2025-08-15T00:42:26.120Z,17,GR86-013-80,14.4,0.259,-0.077,99.75,3.0,,0.0,0.0,146.16
2025-08-15T00:42:26.163Z,17,GR86-013-80,14.5,0.184,-0.003,99.75,3.0,,0.0,0.0,
2025-08-15T00:42:26.206Z,17,GR86-013-80,13.4,0.184,0.19,99.73,3.0,,0.0,0.0,
2025-08-15T00:42:26.249Z,17,GR86-013-80,11.9,0.345,0.278,99.74,3.0,,0.0,0.0,
2025-08-15T00:42:26.294Z,17,GR86-013-80,12.6,0.184,0.125,99.74,3.0,6988.0,0.0,0.0,
2025-08-15T00:42:26.337Z,17,GR86-013-80,14.0,0.344,0.119,99.76,3.0,,0.0,0.0,149.47
2025-08-15T00:42:26.381Z,17,GR86-013-80,13.9,0.158,0.254,99.75,3.0,,0.0,0.0,
2025-08-15T00:42:26.424Z,17,GR86-013-80,13.6,0.036,0.397,99.75,3.0,,0.0,0.0,
2025-08-15T00:42:26.467Z,17,GR86-013-80,13.2,0.223,0.438,99.72,3.0,,0.0,0.0,
2025-08-15T00:42:26.510Z,17,GR86-013-80,12.3,0.308,0.585,99.75,3.0,7090.0,0.0,0.0,
2025-08-15T00:42:26.553Z,17,GR86-013-80,11.1,0.402,0.449,99.73,3.0,,0.0,0.0,149.92000000000002
2025-08-15T00:42:26.596Z,17,GR86-013-80,10.5,0.217,0.505,99.75,3.0,,0.0,0.0,
2025-08-15T00:42:26.639Z,17,GR86-013-80,10.2,0.334,0.535,99.76,3.0,,0.0,0.0,
2025-08-15T00:42:26.682Z,17,GR86-013-80,11.1,0.161,0.585,99.75,3.0,,0.0,0.0,
2025-08-15T00:42:26.725Z,17,GR86-013-80,12.7,0.26,0.587,99.75,3.0,7283.0,0.0,0.0,
2025-08-15T00:42:26.768Z,17,GR86-013-80,13.7,0.233,0.628,99.74,3.0,,0.0,0.0,151.33
2025-08-15T00:42:26.811Z,17,GR86-013-80,13.2,0.223,0.552,99.75,3.0,,0.0,0.0,
2025-08-15T00:42:26.854Z,17,GR86-013-80,12.5,0.165,0.519,99.74,3.0,,0.0,0.0,
2025-08-15T00:42:26.897Z,17,GR86-013-80,12.0,0.179,0.466,99.75,3.0,,0.0,0.0,
2025-08-15T00:42:26.940Z,17,GR86-013-80,12.0,0.162,0.481,99.74,3.0,7172.0,0.0,0.0,
2025-08-15T00:42:26.983Z,17,GR86-013-80,12.0,0.203,0.445,99.76,3.0,,0.0,0.0,152.96
2025-08-15T00:42:27.026Z,17,GR86-013-80,12.1,0.198,0.411,99.74,3.0,,0.0,0.0,
2025-08-15T00:42:27.071Z,17,GR86-013-80,11.9,0.195,0.351,99.75,3.0,,0.0,0.0,
2025-08-15T00:42:27.114Z,17,GR86-013-80,11.9,0.2,0.352,99.76,3.0,,0.0,0.0,
2025-08-15T00:42:27.157Z,17,GR86-013-80,11.8,0.198,0.348,99.73,3.0,7257.0,0.0,0.0,
2025-08-15T00:42:27.201Z,17,GR86-013-80,11.7,0.183,0.338,99.73,3.0,,0.0,0.0,154.44
2025-08-15T00:42:27.244Z,17,GR86-013-80,11.5,0.147,0.341,99.74,3.0,,0.0,0.0,
2025-08-15T00:42:27.287Z,17,GR86-013-80,10.9,0.117,0.35,99.76,3.0,,0.0,0.0,
2025-08-15T00:42:27.331Z,17,GR86-013-80,9.3,0.106,0.357,99.72,3.0,,0.0,0.0,
2025-08-15T00:42:27.374Z,17,GR86-013-80,8.6,0.035,0.305,99.71,3.0,7300.0,0.0,0.0,
2025-08-15T00:42:27.417Z,17,GR86-013-80,7.6,-0.135,0.306,99.72,4.0,,0.0,0.0,155.8
2025-08-15T00:42:27.460Z,17,GR86-013-80,6.5,0.038,0.283,99.76,4.0,,0.0,0.0,
2025-08-15T00:42:27.503Z,17,GR86-013-80,6.300000000000001,0.5760000000000001,0.188,99.76,4.0,,0.0,0.0,
2025-08-15T00:42:27.547Z,17,GR86-013-80,5.9,0.255,0.247,99.77,4.0,,0.0,0.0,
2025-08-15T00:42:27.591Z,17,GR86-013-80,4.1000000000000005,0.03,0.207,99.72,4.0,6590.0,0.0,0.0,
2025-08-15T00:42:27.634Z,17,GR86-013-80,3.0,0.115,0.152,99.75,4.0,,0.0,0.0,157.0
2025-08-15T00:42:27.677Z,17,GR86-013-80,2.5,0.206,0.163,99.75,4.0,,0.0,0.0,
2025-08-15T00:42:27.721Z,17,GR86-013-80,2.4000000000000004,0.203,0.122,99.74,4.0,,0.0,0.0,
2025-08-15T00:42:27.764Z,17,GR86-013-80,2.3000000000000003,0.154,0.067,99.75,4.0,,0.0,0.0,
2025-08-15T00:42:27.807Z,17,GR86-013-80,2.3000000000000003,0.108,0.071,99.74,4.0,6297.0,0.0,0.0,
2025-08-15T00:42:27.851Z,17,GR86-013-80,2.3000000000000003,0.154,0.006,99.74,4.0,,0.0,0.0,158.39
2025-08-15T00:42:27.894Z,17,GR86-013-80,2.2,0.171,0.01,99.75,4.0,,0.0,0.0,
2025-08-15T00:42:27.937Z,17,GR86-013-80,2.2,0.158,-0.006,99.76,4.0,,0.0,0.0,
2025-08-15T00:42:28.023Z,17,GR86-013-80,2.2,0.125,-0.011,99.75,4.0,6302.0,0.0,0.0,
2025-08-15T00:42:28.066Z,17,GR86-013-80,2.2,0.112,-0.02,99.74,4.0,,0.0,0.0,159.89
2025-08-15T00:42:28.110Z,17,GR86-013-80,2.0,0.14,0.01,99.75,4.0,,0.0,0.0,
2025-08-15T00:42:28.154Z,17,GR86-013-80,1.6,0.132,-0.01,99.75,4.0,,0.0,0.0,
2025-08-15T00:42:28.197Z,17,GR86-013-80,1.6,0.106,-0.02,99.74,4.0,,0.0,0.0,
2025-08-15T00:42:28.241Z,17,GR86-013-80,1.6,0.114,-0.028,99.75,4.0,6350.0,0.0,0.0,
2025-08-15T00:42:28.284Z,17,GR86-013-80,1.6,0.115,-0.024,99.76,4.0,,0.0,0.0,161.32
2025-08-15T00:42:28.327Z,17,GR86-013-80,1.4,0.143,-0.013,99.72,4.0,,0.0,0.0,
2025-08-15T00:42:28.370Z,17,GR86-013-80,0.8,0.116,-0.025,99.74,4.0,,0.0,0.0,
2025-08-15T00:42:28.414Z,17,GR86-013-80,0.1,0.09,-0.024,99.75,4.0,,0.0,0.0,
2025-08-15T00:42:28.457Z,17,GR86-013-80,-0.9,0.114,-0.046,99.74,4.0,6408.0,0.0,0.0,
2025-08-15T00:42:28.500Z,17,GR86-013-80,-1.4,0.127,-0.057,99.75,4.0,,0.0,0.0,162.79
2025-08-15T00:42:28.543Z,17,GR86-013-80,-1.5,0.155,-0.07,99.75,4.0,,0.0,0.0,
2025-08-15T00:42:28.586Z,17,GR86-013-80,-1.5,0.155,-0.092,99.74,4.0,,0.0,0.0,
2025-08-15T00:42:28.631Z,17,GR86-013-80,-1.6,0.101,-0.117,99.72,4.0,,0.0,0.0,
2025-08-15T00:42:28.674Z,17,GR86-013-80,-1.9,0.122,-0.13,99.74,4.0,6480.0,0.0,0.0,
2025-08-15T00:42:28.717Z,17,GR86-013-80,-2.2,0.109,-0.128,99.76,4.0,,0.0,0.0,164.08
2025-08-15T00:42:28.760Z,17,GR86-013-80,-2.5,0.14,-0.14,99.74,4.0,,0.0,0.0,
2025-08-15T00:42:28.803Z,17,GR86-013-80,-2.7,0.147,-0.141,99.72,4.0,,0.0,0.0,
2025-08-15T00:42:28.846Z,17,GR86-013-80,-2.7,0.16,-0.15,99.75,4.0,,0.0,0.0,
2025-08-15T00:42:28.891Z,17,GR86-013-80,-2.9000000000000004,0.107,-0.187,99.74,4.0,6519.0,0.0,0.0,
2025-08-15T00:42:28.934Z,17,GR86-013-80,-3.9,0.127,-0.206,99.76,4.0,,0.0,0.0,167.04
2025-08-15T00:42:28.977Z,17,GR86-013-80,-5.5,0.126,-0.215,99.76,4.0,,0.0,0.0,
2025-08-15T00:42:29.021Z,17,GR86-013-80,-7.300000000000001,0.137,-0.231,99.74,4.0,,0.0,0.0,
2025-08-15T00:42:29.064Z,17,GR86-013-80,-8.3,0.144,-0.261,99.75,4.0,,0.0,0.0,
2025-08-15T00:42:29.107Z,17,GR86-013-80,-8.4,0.159,-0.288,99.74,4.0,6575.0,0.0,0.0,
2025-08-15T00:42:29.151Z,17,GR86-013-80,-8.4,0.105,-0.349,99.75,4.0,,0.0,0.0,168.48
2025-08-15T00:42:29.194Z,17,GR86-013-80,-8.3,0.102,-0.369,99.73,4.0,,0.0,0.0,
2025-08-15T00:42:29.237Z,17,GR86-013-80,-8.3,0.109,-0.391,99.72,4.0,,0.0,0.0,
2025-08-15T00:42:29.280Z,17,GR86-013-80,-8.3,0.122,-0.401,99.72,4.0,,0.0,0.0,
2025-08-15T00:42:29.323Z,17,GR86-013-80,-8.4,0.124,-0.421,99.74,4.0,6626.0,0.0,0.0,
2025-08-15T00:42:29.366Z,17,GR86-013-80,-8.4,0.154,-0.421,99.74,4.0,,0.0,0.0,169.85
2025-08-15T00:42:29.409Z,17,GR86-013-80,-8.8,0.102,-0.434,99.73,4.0,,0.0,0.0,
2025-08-15T00:42:29.453Z,17,GR86-013-80,-9.0,0.087,-0.434,99.74,4.0,,0.0,0.0,
2025-08-15T00:42:29.497Z,17,GR86-013-80,-9.1,0.096,-0.418,99.75,4.0,,0.0,0.0,
2025-08-15T00:42:29.541Z,17,GR86-013-80,-9.0,0.085,-0.413,99.73,4.0,6731.0,0.0,0.0,
2025-08-15T00:42:29.584Z,17,GR86-013-80,-8.8,0.115,-0.398,99.73,4.0,,0.0,0.0,171.16
2025-08-15T00:42:29.627Z,17,GR86-013-80,-8.8,0.101,-0.383,99.74,4.0,,0.0,0.0,
2025-08-15T00:42:29.670Z,17,GR86-013-80,-9.0,0.08,-0.41,99.71,4.0,,0.0,0.0,
2025-08-15T00:42:29.714Z,17,GR86-013-80,-9.0,0.09,-0.428,99.71,4.0,,0.0,0.0,
2025-08-15T00:42:29.757Z,17,GR86-013-80,-8.8,0.086,-0.451,99.73,4.0,6777.0,0.0,0.0,
2025-08-15T00:42:29.800Z,17,GR86-013-80,-8.6,0.095,-0.457,99.76,4.0,,0.0,0.0,172.22
2025-08-15T00:42:29.843Z,17,GR86-013-80,-8.200000000000001,0.084,-0.46,99.73,4.0,,0.0,0.0,
2025-08-15T00:42:29.931Z,17,GR86-013-80,-7.7,0.081,-0.473,99.73,4.0,,0.0,0.0,
2025-08-15T00:42:29.974Z,17,GR86-013-80,-6.4,0.128,-0.391,99.72,4.0,6820.0,0.0,0.0,
2025-08-15T00:42:30.060Z,17,GR86-013-80,-6.2,0.107,-0.344,99.73,4.0,,0.0,0.0,173.49
2025-08-15T00:42:30.103Z,17,GR86-013-80,-6.1000000000000005,0.127,-0.316,99.74,4.0,,0.0,0.0,
2025-08-15T00:42:30.147Z,17,GR86-013-80,-6.0,0.095,-0.286,99.74,4.0,,0.0,0.0,
2025-08-15T00:42:30.191Z,17,GR86-013-80,-6.0,0.142,-0.253,99.75,4.0,6866.0,0.0,0.0,
2025-08-15T00:42:30.234Z,17,GR86-013-80,-5.800000000000001,0.145,-0.259,99.74,4.0,,0.0,0.0,174.72
2025-08-15T00:42:30.277Z,17,GR86-013-80,-4.5,0.147,-0.255,99.73,4.0,,0.0,0.0,
2025-08-15T00:42:30.321Z,17,GR86-013-80,-2.5,0.141,-0.246,99.74,4.0,,0.0,0.0,
2025-08-15T00:42:30.364Z,17,GR86-013-80,-1.0,0.155,-0.234,99.74,4.0,,0.0,0.0,
2025-08-15T00:42:30.407Z,17,GR86-013-80,-0.4,0.144,-0.205,99.75,4.0,6916.0,0.0,0.0,
2025-08-15T00:42:30.451Z,17,GR86-013-80,-0.5,0.106,-0.153,99.76,4.0,,0.0,0.0,175.85
2025-08-15T00:42:30.494Z,17,GR86-013-80,-1.4,0.101,-0.134,99.74,4.0,,0.0,0.0,
2025-08-15T00:42:30.537Z,17,GR86-013-80,-2.3000000000000003,0.097,-0.111,99.72,4.0,,0.0,0.0,
2025-08-15T00:42:30.581Z,17,GR86-013-80,-3.0,0.109,-0.087,99.75,4.0,,0.0,0.0,
2025-08-15T00:42:30.624Z,17,GR86-013-80,-3.2,0.108,-0.092,99.72,4.0,6951.0,0.0,0.0,
2025-08-15T00:42:30.667Z,17,GR86-013-80,-3.2,0.107,-0.106,60.19,4.0,,5.19,5.28,177.18
2025-08-15T00:42:30.710Z,17,GR86-013-80,-3.5,0.033,-0.124,28.29,4.0,,12.145,12.145,
2025-08-15T00:42:30.754Z,17,GR86-013-80,-3.7,-0.136,-0.134,4.94,4.0,,17.55,17.425,
2025-08-15T00:42:30.797Z,17,GR86-013-80,-3.6,-0.284,-0.15,5.28,4.0,,23.865,23.745,
2025-08-15T00:42:30.841Z,17,GR86-013-80,-3.5,-0.599,-0.145,5.07,4.0,6999.0,31.68,31.42,
2025-08-15T00:42:30.885Z,17,GR86-013-80,-2.7,-0.6930000000000001,-0.134,4.64,4.0,,39.995,39.615,178.29
2025-08-15T00:42:30.928Z,17,GR86-013-80,-0.7000000000000001,-0.986,-0.161,4.18,4.0,,47.245,46.62,
2025-08-15T00:42:31.014Z,17,GR86-013-80,0.9,-0.983,-0.121,3.73,4.0,,54.14,53.58,
2025-08-15T00:42:31.057Z,17,GR86-013-80,2.9000000000000004,-1.11,-0.156,51.45,4.0,6520.0,61.485,60.795,
2025-08-15T00:42:31.101Z,17,GR86-013-80,3.0,-1.191,-0.157,95.37,3.0,,64.81,64.09,177.5
2025-08-15T00:42:31.144Z,17,GR86-013-80,3.0,-1.259,-0.165,59.43,3.0,,65.955,65.86,
2025-08-15T00:42:31.187Z,17,GR86-013-80,2.7,-1.289,-0.104,1.21,3.0,,67.465,68.84,
2025-08-15T00:42:31.231Z,17,GR86-013-80,2.1,-1.25,-0.244,2.54,3.0,,67.905,68.87,
2025-08-15T00:42:31.274Z,17,GR86-013-80,2.2,-1.386,-0.232,2.54,3.0,6235.0,66.075,66.395,
2025-08-15T00:42:31.317Z,17,GR86-013-80,2.4000000000000004,-1.195,-0.068,2.52,3.0,,67.295,68.775,172.03
2025-08-15T00:42:31.360Z,17,GR86-013-80,2.5,-1.164,-0.269,2.51,3.0,,66.55,66.96000000000001,
2025-08-15T00:42:31.403Z,17,GR86-013-80,2.6,-1.11,-0.224,2.52,3.0,,64.52,64.9,
2025-08-15T00:42:31.491Z,17,GR86-013-80,2.6,-1.226,-0.084,2.51,3.0,6960.0,64.84,66.105,
2025-08-15T00:42:31.534Z,17,GR86-013-80,3.9,-1.197,-0.034,2.51,3.0,,62.84,63.345,155.22
2025-08-15T00:42:31.577Z,17,GR86-013-80,3.8,-1.19,-0.145,2.51,3.0,,61.085,61.68,
2025-08-15T00:42:31.621Z,17,GR86-013-80,3.2,-1.17,-0.117,2.51,3.0,,59.025,59.925,
2025-08-15T00:42:31.664Z,17,GR86-013-80,2.6,-1.125,-0.07,2.5,3.0,,56.935,58.02,
2025-08-15T00:42:31.707Z,17,GR86-013-80,2.1,-1.141,-0.101,10.79,3.0,6826.0,55.18,56.525,
2025-08-15T00:42:31.751Z,17,GR86-013-80,0.5,-1.108,-0.075,76.47,3.0,,53.805,54.77,147.15
2025-08-15T00:42:31.794Z,17,GR86-013-80,-0.3,-1.138,-0.1,99.68,3.0,,53.395,54.295,
2025-08-15T00:42:31.837Z,17,GR86-013-80,-1.1,-1.129,-0.114,81.49,2.0,,53.365,54.175,
2025-08-15T00:42:31.880Z,17,GR86-013-80,-1.2000000000000002,-1.162,-0.151,8.0,2.0,,53.715,54.86,
2025-08-15T00:42:31.923Z,17,GR86-013-80,-1.7000000000000002,-1.093,-0.068,2.84,2.0,6409.0,55.395,56.66,
2025-08-15T00:42:31.966Z,17,GR86-013-80,-2.1,-1.156,-0.243,2.76,2.0,,55.945,56.63,140.01
2025-08-15T00:42:32.009Z,17,GR86-013-80,-2.4000000000000004,-1.27,-0.147,2.67,2.0,,55.425,56.66,
2025-08-15T00:42:32.052Z,17,GR86-013-80,-2.8000000000000003,-1.068,-0.178,2.64,2.0,,57.38,58.43,
2025-08-15T00:42:32.095Z,17,GR86-013-80,-3.2,-0.979,-0.556,2.6,2.0,,56.25,56.66,
2025-08-15T00:42:32.138Z,17,GR86-013-80,-4.0,-1.198,-0.263,2.58,2.0,6948.0,56.31,56.965,
2025-08-15T00:42:32.181Z,17,GR86-013-80,-4.5,-1.08,-0.351,2.56,2.0,,57.38,58.125,132.7
2025-08-15T00:42:32.224Z,17,GR86-013-80,-4.6000000000000005,-1.038,-0.635,2.56,2.0,,56.005,56.75,
2025-08-15T00:42:32.267Z,17,GR86-013-80,-5.1000000000000005,-1.112,-0.369,2.5500000000000003,2.0,,56.525,57.27,
2025-08-15T00:42:32.310Z,17,GR86-013-80,-6.7,-1.059,-0.6,2.52,2.0,,56.28,56.995000000000005,
2025-08-15T00:42:32.354Z,17,GR86-013-80,-12.2,-1.064,-0.467,2.52,2.0,6818.0,55.15,56.065,
2025-08-15T00:42:32.397Z,17,GR86-013-80,-17.2,-1.056,-0.578,2.5,2.0,,52.28,53.58,126.52
2025-08-15T00:42:32.441Z,17,GR86-013-80,-22.9,-1.004,-0.673,2.51,2.0,,47.870000000000005,49.23,
2025-08-15T00:42:32.484Z,17,GR86-013-80,-29.3,-0.97,-0.73,2.51,2.0,,43.675,44.88,
2025-08-15T00:42:32.527Z,17,GR86-013-80,-33.6,-0.85,-0.81,2.52,2.0,,39.675,41.02,
2025-08-15T00:42:32.570Z,17,GR86-013-80,-36.5,-0.791,-0.879,2.5,2.0,6351.0,33.495,34.84,
2025-08-15T00:42:32.614Z,17,GR86-013-80,-36.5,-0.8310000000000001,-0.869,2.51,2.0,,30.335,31.235,119.7
2025-08-15T00:42:32.657Z,17,GR86-013-80,-35.0,-0.752,-0.983,2.5,2.0,,22.875,23.655,
2025-08-15T00:42:32.700Z,17,GR86-013-80,-32.4,-0.521,-0.996,2.5,2.0,,13.245,13.95,
2025-08-15T00:42:32.743Z,17,GR86-013-80,-31.8,-0.375,-1.08,2.51,2.0,,4.5,4.9,
2025-08-15T00:42:32.787Z,17,GR86-013-80,-37.8,-0.236,-1.126,2.51,2.0,6168.0,0.0,0.0,
2025-08-15T00:42:32.831Z,17,GR86-013-80,-48.2,-0.249,-1.16,5.32,2.0,,0.0,0.0,114.29
2025-08-15T00:42:32.874Z,17,GR86-013-80,-50.400000000000006,-0.232,-1.197,8.01,2.0,,0.0,0.0,
2025-08-15T00:42:32.917Z,17,GR86-013-80,-50.1,-0.181,-1.289,18.53,2.0,,0.0,0.0,
2025-08-15T00:42:32.960Z,17,GR86-013-80,-47.3,-0.181,-1.21,26.42,2.0,,0.0,0.0,
2025-08-15T00:42:33.003Z,17,GR86-013-80,-46.0,-0.168,-1.237,29.39,2.0,6151.0,0.0,0.0,
2025-08-15T00:42:33.046Z,17,GR86-013-80,-45.8,-0.124,-1.204,29.72,2.0,,0.0,0.0,111.97
2025-08-15T00:42:33.091Z,17,GR86-013-80,-50.5,-0.111,-1.25,31.26,2.0,,0.0,0.0,
2025-08-15T00:42:33.134Z,17,GR86-013-80,-54.6,-0.036,-1.255,31.68,2.0,,0.0,0.0,
2025-08-15T00:42:33.177Z,17,GR86-013-80,-63.0,0.267,-1.179,31.65,2.0,,0.0,0.0,
2025-08-15T00:42:33.221Z,17,GR86-013-80,-69.2,0.206,-1.247,31.64,2.0,6317.0,0.0,0.0,
2025-08-15T00:42:33.264Z,17,GR86-013-80,-73.8,0.151,-1.212,31.72,2.0,,0.0,0.0,109.96
2025-08-15T00:42:33.307Z,17,GR86-013-80,-77.2,0.075,-1.24,31.82,2.0,,0.0,0.0,
2025-08-15T00:42:33.394Z,17,GR86-013-80,-89.9,0.012,-1.264,31.83,2.0,,0.0,0.0,
2025-08-15T00:42:33.437Z,17,GR86-013-80,-98.8,0.057,-1.31,31.6,2.0,6271.0,0.0,0.0,
2025-08-15T00:42:33.480Z,17,GR86-013-80,-98.8,0.033,-1.26,31.58,2.0,,0.0,0.0,109.19
2025-08-15T00:42:33.523Z,17,GR86-013-80,-98.8,0.07,-1.276,31.6,2.0,,0.0,0.0,
2025-08-15T00:42:33.567Z,17,GR86-013-80,-98.8,0.034,-1.32,31.62,2.0,,0.0,0.0,
2025-08-15T00:42:33.610Z,17,GR86-013-80,-98.5,0.0,-1.353,31.64,2.0,,0.0,0.0,
2025-08-15T00:42:33.654Z,17,GR86-013-80,-97.9,0.04,-1.361,31.64,2.0,6362.0,0.0,0.0,
2025-08-15T00:42:33.697Z,17,GR86-013-80,-96.5,0.056,-1.348,31.65,2.0,,0.0,0.0,109.41
2025-08-15T00:42:33.740Z,17,GR86-013-80,-93.8,0.057,-1.315,31.64,2.0,,0.0,0.0,
2025-08-15T00:42:33.783Z,17,GR86-013-80,-90.8,0.09,-1.319,31.64,2.0,,0.0,0.0,
2025-08-15T00:42:33.827Z,17,GR86-013-80,-88.7,0.042,-1.306,31.75,2.0,,0.0,0.0,
2025-08-15T00:42:33.870Z,17,GR86-013-80,-87.30000000000001,0.026,-1.263,33.03,2.0,6395.0,0.0,0.0,
2025-08-15T00:42:33.913Z,17,GR86-013-80,-87.10000000000001,0.076,-1.293,33.36,2.0,,0.0,0.0,109.94
2025-08-15T00:42:33.956Z,17,GR86-013-80,-87.0,0.065,-1.226,33.5,2.0,,0.0,0.0,
2025-08-15T00:42:33.999Z,17,GR86-013-80,-86.9,0.067,-1.218,33.53,2.0,,0.0,0.0,
2025-08-15T00:42:34.043Z,17,GR86-013-80,-86.9,0.091,-1.241,33.51,2.0,,0.0,0.0,
2025-08-15T00:42:34.087Z,17,GR86-013-80,-86.9,0.07,-1.228,33.43,2.0,6402.0,0.0,0.0,
2025-08-15T00:42:34.131Z,17,GR86-013-80,-87.0,0.069,-1.245,33.17,2.0,,0.0,0.0,109.87
2025-08-15T00:42:34.174Z,17,GR86-013-80,-87.2,0.105,-1.199,32.95,2.0,,0.0,0.0,
2025-08-15T00:42:34.217Z,17,GR86-013-80,-87.60000000000001,0.087,-1.163,32.88,2.0,,0.0,0.0,
2025-08-15T00:42:34.260Z,17,GR86-013-80,-88.10000000000001,0.082,-1.186,32.89,2.0,,0.0,0.0,
2025-08-15T00:42:34.303Z,17,GR86-013-80,-88.60000000000001,0.082,-1.177,32.94,2.0,6431.0,0.0,0.0,
2025-08-15T00:42:34.347Z,17,GR86-013-80,-89.60000000000001,0.073,-1.158,32.92,2.0,,0.0,0.0,109.84
2025-08-15T00:42:34.391Z,17,GR86-013-80,-92.0,0.064,-1.213,32.86,2.0,,0.0,0.0,
2025-08-15T00:42:34.434Z,17,GR86-013-80,-93.5,0.097,-1.175,32.6,2.0,,0.0,0.0,
2025-08-15T00:42:34.477Z,17,GR86-013-80,-94.5,0.076,-1.157,32.19,2.0,,0.0,0.0,
2025-08-15T00:42:34.520Z,17,GR86-013-80,-95.1,0.077,-1.209,32.12,2.0,6434.0,0.0,0.0,
2025-08-15T00:42:34.563Z,17,GR86-013-80,-95.6,0.072,-1.192,32.12,2.0,,0.0,0.0,109.88
2025-08-15T00:42:34.607Z,17,GR86-013-80,-96.0,0.061,-1.259,31.97,2.0,,0.0,0.0,
2025-08-15T00:42:34.651Z,17,GR86-013-80,-96.7,0.057,-1.302,31.33,2.0,,0.0,0.0,
2025-08-15T00:42:34.694Z,17,GR86-013-80,-97.1,0.103,-1.196,26.27,2.0,,0.0,0.0,
2025-08-15T00:42:34.737Z,17,GR86-013-80,-97.4,0.068,-1.21,20.84,2.0,6445.0,0.0,0.0,
2025-08-15T00:42:34.781Z,17,GR86-013-80,-97.5,0.067,-1.194,19.19,2.0,,0.0,0.0,110.07
2025-08-15T00:42:34.824Z,17,GR86-013-80,-97.4,0.024,-1.108,19.5,2.0,,0.0,0.0,
2025-08-15T00:42:34.867Z,17,GR86-013-80,-95.5,-0.023,-1.127,20.0,2.0,,0.0,0.0,
2025-08-15T00:42:34.910Z,17,GR86-013-80,-91.8,-0.093,-1.234,20.92,2.0,,0.0,0.0,
2025-08-15T00:42:34.954Z,17,GR86-013-80,-90.6,-0.089,-1.173,21.15,2.0,6319.0,0.0,0.0,
2025-08-15T00:42:34.997Z,17,GR86-013-80,-90.4,-0.092,-1.269,21.18,2.0,,0.0,0.0,110.2
2025-08-15T00:42:35.040Z,17,GR86-013-80,-89.80000000000001,-0.03,-1.164,21.18,2.0,,0.0,0.0,
2025-08-15T00:42:35.127Z,17,GR86-013-80,-87.7,-0.03,-1.155,21.14,2.0,,0.0,0.0,
2025-08-15T00:42:35.171Z,17,GR86-013-80,-81.2,-0.028,-1.255,23.04,2.0,6367.0,0.0,0.0,
2025-08-15T00:42:35.214Z,17,GR86-013-80,-80.9,-0.024,-1.187,29.8,2.0,,0.0,0.0,110.2
2025-08-15T00:42:35.257Z,17,GR86-013-80,-80.80000000000001,-0.062,-1.277,31.7,2.0,,0.0,0.0,
2025-08-15T00:42:35.301Z,17,GR86-013-80,-80.9,-0.016,-1.26,32.910000000000004,2.0,,0.0,0.0,
2025-08-15T00:42:35.344Z,17,GR86-013-80,-80.9,0.0,-1.275,34.11,2.0,,0.0,0.0,
2025-08-15T00:42:35.387Z,17,GR86-013-80,-80.9,0.112,-1.266,35.32,2.0,6330.0,0.0,0.0,
2025-08-15T00:42:35.431Z,17,GR86-013-80,-80.9,0.156,-1.125,37.07,2.0,,0.0,0.0,110.0
2025-08-15T00:42:35.474Z,17,GR86-013-80,-80.30000000000001,0.114,-1.142,38.76,2.0,,0.0,0.0,
2025-08-15T00:42:35.517Z,17,GR86-013-80,-77.30000000000001,0.108,-1.11,42.86,2.0,,0.0,0.0,
2025-08-15T00:42:35.560Z,17,GR86-013-80,-73.0,0.093,-1.179,53.6,2.0,,0.0,0.0,
2025-08-15T00:42:35.603Z,17,GR86-013-80,-69.0,0.102,-1.162,62.42,2.0,6392.0,0.0,0.0,
2025-08-15T00:42:35.691Z,17,GR86-013-80,-61.900000000000006,0.206,-1.134,99.53,2.0,,0.0,0.0,109.88
2025-08-15T00:42:35.734Z,17,GR86-013-80,-56.2,0.17,-1.146,99.68,2.0,,0.0,0.0,
2025-08-15T00:42:35.777Z,17,GR86-013-80,-50.400000000000006,0.192,-1.2,99.71,2.0,,0.0,0.0,
2025-08-15T00:42:35.822Z,17,GR86-013-80,-47.3,0.203,-1.213,99.71,2.0,6573.0,0.0,0.0,
2025-08-15T00:42:35.865Z,17,GR86-013-80,-46.8,0.227,-1.179,99.72,2.0,,0.0,0.0,110.25
2025-08-15T00:42:35.908Z,17,GR86-013-80,-46.8,0.234,-1.176,99.72,2.0,,0.0,0.0,
2025-08-15T00:42:35.951Z,17,GR86-013-80,-43.6,0.164,-1.181,99.72,2.0,,0.0,0.0,
2025-08-15T00:42:35.994Z,17,GR86-013-80,-38.1,0.151,-1.232,99.71,2.0,,0.0,0.0,
2025-08-15T00:42:36.037Z,17,GR86-013-80,-31.3,0.231,-1.264,99.73,2.0,6720.0,0.0,0.0,
2025-08-15T00:42:36.080Z,17,GR86-013-80,-25.700000000000003,0.236,-1.23,99.72,2.0,,0.0,0.0,111.62
2025-08-15T00:42:36.123Z,17,GR86-013-80,-21.4,0.255,-1.188,99.72,2.0,,0.0,0.0,
2025-08-15T00:42:36.166Z,17,GR86-013-80,-19.5,0.307,-1.179,99.71,2.0,,0.0,0.0,
2025-08-15T00:42:36.210Z,17,GR86-013-80,-17.2,0.29,-1.151,99.72,2.0,,0.0,0.0,
2025-08-15T00:42:36.254Z,17,GR86-013-80,-14.9,0.225,-1.109,99.72,2.0,6861.0,0.0,0.0,
2025-08-15T00:42:36.297Z,17,GR86-013-80,-11.4,0.244,-1.13,99.72,2.0,,0.0,0.0,112.8
2025-08-15T00:42:36.341Z,17,GR86-013-80,-8.8,0.273,-1.08,99.71,2.0,,0.0,0.0,
2025-08-15T00:42:36.384Z,17,GR86-013-80,-7.9,0.315,-1.014,99.74,2.0,,0.0,0.0,
2025-08-15T00:42:36.427Z,17,GR86-013-80,-10.1,0.311,-0.862,99.73,2.0,,0.0,0.0,
2025-08-15T00:42:36.470Z,17,GR86-013-80,-22.4,0.32,-0.929,99.74,2.0,6857.0,0.0,0.0,
2025-08-15T00:42:36.514Z,17,GR86-013-80,-29.4,0.368,-0.9,99.74,2.0,,0.0,0.0,114.14
2025-08-15T00:42:36.557Z,17,GR86-013-80,-33.1,0.306,-0.711,99.71,2.0,,0.0,0.0,
2025-08-15T00:42:36.600Z,17,GR86-013-80,-33.4,0.251,-0.958,99.73,2.0,,0.0,0.0,
2025-08-15T00:42:36.643Z,17,GR86-013-80,-30.0,0.216,-0.971,99.72,2.0,,0.0,0.0,
2025-08-15T00:42:36.686Z,17,GR86-013-80,-22.1,0.249,-1.023,99.71,2.0,6837.0,0.0,0.0,
2025-08-15T00:42:36.731Z,17,GR86-013-80,-11.1,0.239,-0.953,99.72,2.0,,0.0,0.0,115.76
2025-08-15T00:42:36.774Z,17,GR86-013-80,-7.2,0.314,-0.855,99.72,2.0,,0.0,0.0,
2025-08-15T00:42:36.817Z,17,GR86-013-80,-6.0,0.298,-0.726,99.71,2.0,,0.0,0.0,
2025-08-15T00:42:36.861Z,17,GR86-013-80,-5.800000000000001,0.306,-0.6910000000000001,99.72,2.0,,0.0,0.0,
2025-08-15T00:42:36.904Z,17,GR86-013-80,-6.0,0.267,-0.66,99.71,2.0,6889.0,0.0,0.0,
2025-08-15T00:42:36.947Z,17,GR86-013-80,-6.0,0.234,-0.544,99.72,2.0,,0.0,0.0,117.35
2025-08-15T00:42:36.991Z,17,GR86-013-80,-5.5,0.256,-0.462,99.72,2.0,,0.0,0.0,
2025-08-15T00:42:37.034Z,17,GR86-013-80,-5.5,0.238,-0.407,99.73,2.0,,0.0,0.0,
2025-08-15T00:42:37.077Z,17,GR86-013-80,-5.800000000000001,0.292,-0.336,99.71,2.0,,0.0,0.0,
2025-08-15T00:42:37.121Z,17,GR86-013-80,-6.4,0.263,-0.277,99.72,2.0,6896.0,0.0,0.0,
2025-08-15T00:42:37.164Z,17,GR86-013-80,-7.1000000000000005,0.252,-0.261,99.74,2.0,,0.0,0.0,119.41
2025-08-15T00:42:37.207Z,17,GR86-013-80,-7.800000000000001,0.234,-0.208,99.71,2.0,,0.0,0.0,
2025-08-15T00:42:37.251Z,17,GR86-013-80,-7.9,0.234,-0.169,99.72,2.0,,0.0,0.0,
2025-08-15T00:42:37.294Z,17,GR86-013-80,-7.9,0.214,-0.197,99.71,2.0,,0.0,0.0,
2025-08-15T00:42:37.337Z,17,GR86-013-80,-7.4,0.23,-0.252,99.72,2.0,7080.0,0.0,0.0,
2025-08-15T00:42:37.380Z,17,GR86-013-80,-6.2,0.255,-0.195,99.72,2.0,,0.0,0.0,121.31
2025-08-15T00:42:37.423Z,17,GR86-013-80,-5.5,0.207,-0.256,99.7,2.0,,0.0,0.0,
2025-08-15T00:42:37.466Z,17,GR86-013-80,-5.0,0.242,-0.137,99.72,2.0,,0.0,0.0,
2025-08-15T00:42:37.510Z,17,GR86-013-80,-4.2,0.3,-0.156,99.71,2.0,,0.0,0.0,
2025-08-15T00:42:37.554Z,17,GR86-013-80,-3.0,0.296,-0.027,99.71,2.0,7171.0,0.0,0.0,
2025-08-15T00:42:37.597Z,17,GR86-013-80,-1.8,0.32,-0.023,99.74,2.0,,0.0,0.0,123.13
2025-08-15T00:42:37.640Z,17,GR86-013-80,-1.2000000000000002,0.294,-0.087,99.72,2.0,,0.0,0.0,
2025-08-15T00:42:37.683Z,17,GR86-013-80,-0.9,0.32,-0.102,99.73,2.0,,0.0,0.0,
2025-08-15T00:42:37.727Z,17,GR86-013-80,-0.6000000000000001,0.27,0.007,99.73,2.0,,0.0,0.0,
2025-08-15T00:42:37.770Z,17,GR86-013-80,0.3,0.173,0.045,99.74,2.0,7253.0,0.0,0.0,
2025-08-15T00:42:37.814Z,17,GR86-013-80,0.8,0.249,-0.003,99.72,2.0,,0.0,0.0,124.69
2025-08-15T00:42:37.857Z,17,GR86-013-80,0.7000000000000001,0.223,0.039,99.72,2.0,,0.0,0.0,
2025-08-15T00:42:37.900Z,17,GR86-013-80,0.2,0.211,-0.005,99.7,2.0,,0.0,0.0,
2025-08-15T00:42:37.943Z,17,GR86-013-80,0.1,0.039,0.094,99.72,3.0,,0.0,0.0,
2025-08-15T00:42:37.987Z,17,GR86-013-80,0.1,-0.044,0.104,99.73,3.0,7307.0,0.0,0.0,
2025-08-15T00:42:38.031Z,17,GR86-013-80,0.3,0.68,-0.056,99.75,3.0,,0.0,0.0,126.38
2025-08-15T00:42:38.074Z,17,GR86-013-80,0.3,0.45,-0.031,99.75,3.0,,0.0,0.0,
2025-08-15T00:42:38.117Z,17,GR86-013-80,0.2,0.163,-0.041,99.73,3.0,,0.0,0.0,
2025-08-15T00:42:38.160Z,17,GR86-013-80,0.2,0.054,-0.111,99.74,3.0,,0.0,0.0,
2025-08-15T00:42:38.203Z,17,GR86-013-80,0.3,0.129,-0.079,99.73,3.0,5946.0,0.0,0.0,
2025-08-15T00:42:38.247Z,17,GR86-013-80,0.3,0.258,-0.03,99.74,3.0,,0.0,0.0,127.76
2025-08-15T00:42:38.291Z,17,GR86-013-80,0.3,0.257,-0.063,99.72,3.0,,0.0,0.0,
2025-08-15T00:42:38.334Z,17,GR86-013-80,0.3,0.188,-0.017,99.72,3.0,,0.0,0.0,
2025-08-15T00:42:38.377Z,17,GR86-013-80,0.1,0.158,-0.062,99.74,3.0,,0.0,0.0,
2025-08-15T00:42:38.420Z,17,GR86-013-80,0.1,0.196,-0.046,99.75,3.0,6084.0,0.0,0.0,
2025-08-15T00:42:38.464Z,17,GR86-013-80,0.1,0.214,-0.003,99.72,3.0,,0.0,0.0,129.66
2025-08-15T00:42:38.507Z,17,GR86-013-80,0.2,0.219,-0.03,99.72,3.0,,0.0,0.0,
2025-08-15T00:42:38.551Z,17,GR86-013-80,0.1,0.195,-0.024,99.72,3.0,,0.0,0.0,
2025-08-15T00:42:38.594Z,17,GR86-013-80,0.1,0.202,-0.049,99.75,3.0,,0.0,0.0,
2025-08-15T00:42:38.638Z,17,GR86-013-80,0.2,0.198,-0.04,99.73,3.0,6166.0,0.0,0.0,
2025-08-15T00:42:38.681Z,17,GR86-013-80,0.3,0.206,-0.017,99.72,3.0,,0.0,0.0,131.04
2025-08-15T00:42:38.724Z,17,GR86-013-80,0.3,0.195,-0.009,99.71,3.0,,0.0,0.0,
2025-08-15T00:42:38.767Z,17,GR86-013-80,0.3,0.206,-0.04,99.72,3.0,,0.0,0.0,
2025-08-15T00:42:38.810Z,17,GR86-013-80,0.4,0.214,-0.021,99.72,3.0,,0.0,0.0,
2025-08-15T00:42:38.853Z,17,GR86-013-80,0.6000000000000001,0.21,-0.029,99.76,3.0,6212.0,0.0,0.0,
2025-08-15T00:42:38.897Z,17,GR86-013-80,0.7000000000000001,0.192,-0.023,99.75,3.0,,0.0,0.0,132.49
2025-08-15T00:42:38.940Z,17,GR86-013-80,0.7000000000000001,0.194,-0.015,99.73,3.0,,0.0,0.0,
2025-08-15T00:42:38.983Z,17,GR86-013-80,0.7000000000000001,0.196,-0.04,99.72,3.0,,0.0,0.0,
2025-08-15T00:42:39.026Z,17,GR86-013-80,0.7000000000000001,0.219,-0.029,99.71,3.0,,0.0,0.0,
2025-08-15T00:42:39.071Z,17,GR86-013-80,0.7000000000000001,0.193,-0.034,99.73,3.0,6268.0,0.0,0.0,
2025-08-15T00:42:39.114Z,17,GR86-013-80,0.7000000000000001,0.194,-0.03,99.72,3.0,,0.0,0.0,133.91
2025-08-15T00:42:39.157Z,17,GR86-013-80,0.7000000000000001,0.189,-0.014,99.75,3.0,,0.0,0.0,
2025-08-15T00:42:39.201Z,17,GR86-013-80,0.7000000000000001,0.196,-0.025,99.75,3.0,,0.0,0.0,
2025-08-15T00:42:39.244Z,17,GR86-013-80,0.7000000000000001,0.207,-0.045,99.76,3.0,,0.0,0.0,
2025-08-15T00:42:39.287Z,17,GR86-013-80,0.7000000000000001,0.208,-0.015,99.74,3.0,6325.0,0.0,0.0,
2025-08-15T00:42:39.331Z,17,GR86-013-80,0.6000000000000001,0.203,-0.039,99.71,3.0,,0.0,0.0,136.57
2025-08-15T00:42:39.374Z,17,GR86-013-80,0.6000000000000001,0.205,-0.028,99.74,3.0,,0.0,0.0,
2025-08-15T00:42:39.417Z,17,GR86-013-80,0.6000000000000001,0.181,-0.031,99.73,3.0,,0.0,0.0,
2025-08-15T00:42:39.460Z,17,GR86-013-80,0.6000000000000001,0.191,-0.048,99.74,3.0,,0.0,0.0,
2025-08-15T00:42:39.503Z,17,GR86-013-80,0.6000000000000001,0.206,-0.051,99.76,3.0,6391.0,0.0,0.0,
2025-08-15T00:42:39.547Z,17,GR86-013-80,0.6000000000000001,0.221,-0.024,99.74,3.0,,0.0,0.0,137.86
2025-08-15T00:42:39.591Z,17,GR86-013-80,0.6000000000000001,0.207,-0.049,99.72,3.0,,0.0,0.0,
2025-08-15T00:42:39.634Z,17,GR86-013-80,0.6000000000000001,0.203,-0.025,99.74,3.0,,0.0,0.0,
2025-08-15T00:42:39.677Z,17,GR86-013-80,0.6000000000000001,0.177,-0.031,99.72,3.0,,0.0,0.0,
2025-08-15T00:42:39.721Z,17,GR86-013-80,0.6000000000000001,0.193,-0.056,99.73,3.0,6458.0,0.0,0.0,
2025-08-15T00:42:39.764Z,17,GR86-013-80,0.6000000000000001,0.214,-0.062,99.74,3.0,,0.0,0.0,139.21
2025-08-15T00:42:39.807Z,17,GR86-013-80,0.6000000000000001,0.2,-0.037,99.72,3.0,,0.0,0.0,
2025-08-15T00:42:39.851Z,17,GR86-013-80,0.6000000000000001,0.215,-0.051,99.72,3.0,,0.0,0.0,
2025-08-15T00:42:39.894Z,17,GR86-013-80,0.6000000000000001,0.199,-0.033,99.73,3.0,,0.0,0.0,
2025-08-15T00:42:39.937Z,17,GR86-013-80,0.6000000000000001,0.176,-0.02,99.75,3.0,6577.0,0.0,0.0,
2025-08-15T00:42:39.980Z,17,GR86-013-80,0.6000000000000001,0.182,-0.029,99.75,3.0,,0.0,0.0,140.54
2025-08-15T00:42:40.023Z,17,GR86-013-80,0.6000000000000001,0.213,-0.045,99.71,3.0,,0.0,0.0,
2025-08-15T00:42:40.067Z,17,GR86-013-80,0.6000000000000001,0.211,-0.021,99.72,3.0,,0.0,0.0,
2025-08-15T00:42:40.110Z,17,GR86-013-80,0.7000000000000001,0.214,-0.03,99.74,3.0,,0.0,0.0,
2025-08-15T00:42:40.153Z,17,GR86-013-80,0.7000000000000001,0.212,-0.007,99.74,3.0,6638.0,0.0,0.0,
2025-08-15T00:42:40.196Z,17,GR86-013-80,0.7000000000000001,0.179,-0.003,99.71,3.0,,0.0,0.0,141.85
2025-08-15T00:42:40.241Z,17,GR86-013-80,0.7000000000000001,0.165,-0.01,99.71,3.0,,0.0,0.0,
2025-08-15T00:42:40.284Z,17,GR86-013-80,0.7000000000000001,0.2,-0.013,99.74,3.0,,0.0,0.0,
2025-08-15T00:42:40.327Z,17,GR86-013-80,0.8,0.212,0.005,99.75,3.0,,0.0,0.0,
2025-08-15T00:42:40.370Z,17,GR86-013-80,0.9,0.209,-0.007,99.74,3.0,6698.0,0.0,0.0,
2025-08-15T00:42:40.414Z,17,GR86-013-80,0.9,0.213,0.001,99.72,3.0,,0.0,0.0,143.13
2025-08-15T00:42:40.457Z,17,GR86-013-80,0.9,0.193,0.012,99.75,3.0,,0.0,0.0,
2025-08-15T00:42:40.500Z,17,GR86-013-80,0.9,0.168,0.011,99.73,3.0,,0.0,0.0,
2025-08-15T00:42:40.543Z,17,GR86-013-80,1.0,0.166,-0.009,99.72,3.0,,0.0,0.0,
2025-08-15T00:42:40.586Z,17,GR86-013-80,1.0,0.206,-0.013,99.72,3.0,6759.0,0.0,0.0,
2025-08-15T00:42:40.631Z,17,GR86-013-80,1.0,0.176,-0.035,99.74,3.0,,0.0,0.0,144.34
2025-08-15T00:42:40.674Z,17,GR86-013-80,0.9,0.194,-0.038,99.72,3.0,,0.0,0.0,
2025-08-15T00:42:40.717Z,17,GR86-013-80,0.9,0.216,-0.024,99.72,3.0,,0.0,0.0,
2025-08-15T00:42:40.803Z,17,GR86-013-80,0.9,0.197,-0.028,99.76,3.0,6815.0,0.0,0.0,
2025-08-15T00:42:40.847Z,17,GR86-013-80,0.9,0.169,-0.032,99.72,3.0,,0.0,0.0,145.62
2025-08-15T00:42:40.891Z,17,GR86-013-80,0.9,0.165,-0.023,99.74,3.0,,0.0,0.0,
2025-08-15T00:42:40.934Z,17,GR86-013-80,0.9,0.164,-0.041,99.71,3.0,,0.0,0.0,
2025-08-15T00:42:40.977Z,17,GR86-013-80,0.9,0.19,-0.035,99.72,3.0,,0.0,0.0,
2025-08-15T00:42:41.021Z,17,GR86-013-80,0.9,0.219,-0.01,99.75,3.0,6864.0,0.0,0.0,
2025-08-15T00:42:41.064Z,17,GR86-013-80,0.9,0.208,0.003,99.73,3.0,,0.0,0.0,146.89
2025-08-15T00:42:41.107Z,17,GR86-013-80,0.9,0.179,-0.003,99.72,3.0,,0.0,0.0,
2025-08-15T00:42:41.151Z,17,GR86-013-80,0.9,0.199,-0.001,99.73,3.0,,0.0,0.0,
2025-08-15T00:42:41.194Z,17,GR86-013-80,0.9,0.171,-0.006,99.72,3.0,,0.0,0.0,
2025-08-15T00:42:41.237Z,17,GR86-013-80,0.9,0.161,-0.006,99.72,3.0,6928.0,0.0,0.0,
2025-08-15T00:42:41.280Z,17,GR86-013-80,0.9,0.177,-0.028,99.74,3.0,,0.0,0.0,148.1
2025-08-15T00:42:41.323Z,17,GR86-013-80,0.9,0.199,-0.025,99.72,3.0,,0.0,0.0,
2025-08-15T00:42:41.366Z,17,GR86-013-80,0.9,0.211,-0.01,99.72,3.0,,0.0,0.0,
2025-08-15T00:42:41.410Z,17,GR86-013-80,0.9,0.177,-0.021,99.75,3.0,,0.0,0.0,
2025-08-15T00:42:41.454Z,17,GR86-013-80,0.9,0.2,0.003,99.72,3.0,6990.0,0.0,0.0,
2025-08-15T00:42:41.497Z,17,GR86-013-80,0.9,0.206,0.012,99.74,3.0,,0.0,0.0,149.28
2025-08-15T00:42:41.540Z,17,GR86-013-80,0.9,0.184,-0.004,99.75,3.0,,0.0,0.0,
2025-08-15T00:42:41.583Z,17,GR86-013-80,0.8,0.167,-0.019,99.72,3.0,,0.0,0.0,
2025-08-15T00:42:41.627Z,17,GR86-013-80,0.7000000000000001,0.162,-0.037,99.72,3.0,,0.0,0.0,
2025-08-15T00:42:41.670Z,17,GR86-013-80,0.5,0.16,-0.013,99.73,3.0,7041.0,0.0,0.0,
2025-08-15T00:42:41.714Z,17,GR86-013-80,0.5,0.157,-0.025,99.71,3.0,,0.0,0.0,150.49
2025-08-15T00:42:41.757Z,17,GR86-013-80,0.5,0.173,-0.043,99.73,3.0,,0.0,0.0,
2025-08-15T00:42:41.800Z,17,GR86-013-80,0.4,0.183,-0.038,99.72,3.0,,0.0,0.0,
2025-08-15T00:42:41.843Z,17,GR86-013-80,0.3,0.188,-0.019,99.74,3.0,,0.0,0.0,
2025-08-15T00:42:41.887Z,17,GR86-013-80,0.3,0.175,-0.018,99.71,3.0,7102.0,0.0,0.0,
2025-08-15T00:42:41.931Z,17,GR86-013-80,0.3,0.184,-0.043,99.73,3.0,,0.0,0.0,152.83
2025-08-15T00:42:41.974Z,17,GR86-013-80,0.3,0.201,-0.029,99.72,3.0,,0.0,0.0,
2025-08-15T00:42:42.017Z,17,GR86-013-80,0.3,0.181,-0.025,99.72,3.0,,0.0,0.0,
2025-08-15T00:42:42.060Z,17,GR86-013-80,0.3,0.159,-0.036,99.73,3.0,,0.0,0.0,
2025-08-15T00:42:42.103Z,17,GR86-013-80,0.3,0.154,-0.06,99.73,3.0,7144.0,0.0,0.0,
2025-08-15T00:42:42.146Z,17,GR86-013-80,0.3,0.154,-0.058,99.74,3.0,,0.0,0.0,153.97
2025-08-15T00:42:42.191Z,17,GR86-013-80,0.3,0.159,-0.043,99.73,3.0,,0.0,0.0,
2025-08-15T00:42:42.234Z,17,GR86-013-80,0.3,0.15,-0.047,99.73,3.0,,0.0,0.0,
2025-08-15T00:42:42.277Z,17,GR86-013-80,0.3,0.165,-0.049,99.71,3.0,,0.0,0.0,
2025-08-15T00:42:42.320Z,17,GR86-013-80,0.3,0.168,-0.034,99.72,3.0,7191.0,0.0,0.0,
2025-08-15T00:42:42.363Z,17,GR86-013-80,0.3,0.181,-0.024,99.75,3.0,,0.0,0.0,155.12
2025-08-15T00:42:42.407Z,17,GR86-013-80,0.4,0.181,-0.012,99.71,3.0,,0.0,0.0,
2025-08-15T00:42:42.451Z,17,GR86-013-80,0.3,-0.096,-0.023,99.72,3.0,,0.0,0.0,
2025-08-15T00:42:42.494Z,17,GR86-013-80,0.3,-0.041,0.0,99.72,4.0,,0.0,0.0,
2025-08-15T00:42:42.537Z,17,GR86-013-80,0.3,0.375,-0.049,99.72,4.0,6845.0,0.0,0.0,
2025-08-15T00:42:42.581Z,17,GR86-013-80,0.4,0.343,-0.044,99.71,4.0,,0.0,0.0,156.23
2025-08-15T00:42:42.624Z,17,GR86-013-80,0.3,0.115,-0.043,99.71,4.0,,0.0,0.0,
2025-08-15T00:42:42.667Z,17,GR86-013-80,0.2,-0.006,-0.05,99.76,4.0,,0.0,0.0,
2025-08-15T00:42:42.710Z,17,GR86-013-80,0.2,0.17,-0.041,99.72,4.0,,0.0,0.0,
2025-08-15T00:42:42.753Z,17,GR86-013-80,0.2,0.227,-0.016,99.72,4.0,6199.0,0.0,0.0,
2025-08-15T00:42:42.796Z,17,GR86-013-80,0.2,0.144,-0.051,99.72,4.0,,0.0,0.0,157.0
2025-08-15T00:42:42.841Z,17,GR86-013-80,0.1,0.092,-0.049,99.7,4.0,,0.0,0.0,
2025-08-15T00:42:42.884Z,17,GR86-013-80,-0.1,0.123,-0.045,99.71,4.0,,0.0,0.0,
2025-08-15T00:42:42.927Z,17,GR86-013-80,-0.1,0.162,-0.047,99.74,4.0,,0.0,0.0,
2025-08-15T00:42:42.971Z,17,GR86-013-80,-0.1,0.145,-0.046,99.73,4.0,6220.0,0.0,0.0,
2025-08-15T00:42:43.014Z,17,GR86-013-80,-0.2,0.137,-0.055,99.72,4.0,,0.0,0.0,157.95000000000002
2025-08-15T00:42:43.057Z,17,GR86-013-80,-0.3,0.143,-0.035,99.72,4.0,,0.0,0.0,
2025-08-15T00:42:43.101Z,17,GR86-013-80,-0.4,0.15,-0.033,99.72,4.0,,0.0,0.0,
2025-08-15T00:42:43.144Z,17,GR86-013-80,-0.4,0.157,-0.03,99.72,4.0,,0.0,0.0,
2025-08-15T00:42:43.187Z,17,GR86-013-80,-0.3,0.136,-0.02,99.72,4.0,6247.0,0.0,0.0,
2025-08-15T00:42:43.231Z,17,GR86-013-80,-0.5,0.156,-0.053,99.74,4.0,,0.0,0.0,158.77
2025-08-15T00:42:43.274Z,17,GR86-013-80,-0.7000000000000001,0.153,-0.053,99.72,4.0,,0.0,0.0,
2025-08-15T00:42:43.360Z,17,GR86-013-80,-1.0,0.135,-0.063,99.71,4.0,,0.0,0.0,
2025-08-15T00:42:43.403Z,17,GR86-013-80,-0.9,0.13,-0.091,99.73,4.0,6273.0,0.0,0.0,
2025-08-15T00:42:43.447Z,17,GR86-013-80,-1.0,0.14,-0.106,99.72,4.0,,0.0,0.0,159.63
2025-08-15T00:42:43.491Z,17,GR86-013-80,-1.1,0.14,-0.078,99.72,4.0,,0.0,0.0,
2025-08-15T00:42:43.534Z,17,GR86-013-80,-1.8,0.122,-0.085,99.72,4.0,,0.0,0.0,
2025-08-15T00:42:43.577Z,17,GR86-013-80,-2.5,0.114,-0.102,99.71,4.0,,0.0,0.0,
2025-08-15T00:42:43.621Z,17,GR86-013-80,-2.8000000000000003,0.119,-0.132,99.71,4.0,6311.0,0.0,0.0,
2025-08-15T00:42:43.664Z,17,GR86-013-80,-2.9000000000000004,0.141,-0.147,99.72,4.0,,0.0,0.0,160.55
2025-08-15T00:42:43.707Z,17,GR86-013-80,-2.9000000000000004,0.148,-0.15,99.72,4.0,,0.0,0.0,
2025-08-15T00:42:43.794Z,17,GR86-013-80,-2.9000000000000004,0.116,-0.155,99.73,4.0,,0.0,0.0,
2025-08-15T00:42:43.837Z,17,GR86-013-80,-2.8000000000000003,0.142,-0.172,99.72,4.0,6349.0,0.0,0.0,
2025-08-15T00:42:43.880Z,17,GR86-013-80,-2.8000000000000003,0.146,-0.166,99.71,4.0,,0.0,0.0,161.5
2025-08-15T00:42:43.923Z,17,GR86-013-80,-2.8000000000000003,0.151,-0.163,99.73,4.0,,0.0,0.0,
2025-08-15T00:42:43.966Z,17,GR86-013-80,-2.7,0.138,-0.143,99.72,4.0,,0.0,0.0,
2025-08-15T00:42:44.009Z,17,GR86-013-80,-2.6,0.129,-0.163,99.71,4.0,,0.0,0.0,
2025-08-15T00:42:44.052Z,17,GR86-013-80,-2.5,0.136,-0.149,99.73,4.0,6389.0,0.0,0.0,
2025-08-15T00:42:44.095Z,17,GR86-013-80,-2.5,0.146,-0.136,99.72,4.0,,0.0,0.0,162.43
2025-08-15T00:42:44.138Z,17,GR86-013-80,-2.5,0.149,-0.116,99.72,4.0,,0.0,0.0,
2025-08-15T00:42:44.181Z,17,GR86-013-80,-2.6,0.136,-0.105,99.72,4.0,,0.0,0.0,
2025-08-15T00:42:44.224Z,17,GR86-013-80,-2.8000000000000003,0.129,-0.11,99.72,4.0,,0.0,0.0,
2025-08-15T00:42:44.267Z,17,GR86-013-80,-3.2,0.118,-0.125,99.73,4.0,6420.0,0.0,0.0,
2025-08-15T00:42:44.310Z,17,GR86-013-80,-3.6,0.144,-0.138,99.72,4.0,,0.0,0.0,163.39
2025-08-15T00:42:44.354Z,17,GR86-013-80,-3.7,0.14,-0.152,99.73,4.0,,0.0,0.0,
2025-08-15T00:42:44.397Z,17,GR86-013-80,-3.7,0.127,-0.149,99.71,4.0,,0.0,0.0,
2025-08-15T00:42:44.441Z,17,GR86-013-80,-3.7,0.137,-0.16,99.71,4.0,,0.0,0.0,
2025-08-15T00:42:44.484Z,17,GR86-013-80,-3.0,0.109,-0.162,99.72,4.0,6455.0,0.0,0.0,
2025-08-15T00:42:44.527Z,17,GR86-013-80,-1.7000000000000002,0.095,-0.174,99.72,4.0,,0.0,0.0,164.38
2025-08-15T00:42:44.570Z,17,GR86-013-80,-1.1,0.139,-0.151,99.72,4.0,,0.0,0.0,
2025-08-15T00:42:44.614Z,17,GR86-013-80,-1.0,0.131,-0.137,99.73,4.0,,0.0,0.0,
2025-08-15T00:42:44.657Z,17,GR86-013-80,-1.0,0.123,-0.128,99.71,4.0,,0.0,0.0,
2025-08-15T00:42:44.700Z,17,GR86-013-80,-1.0,0.112,-0.118,99.72,4.0,6489.0,0.0,0.0,
2025-08-15T00:42:44.743Z,17,GR86-013-80,-1.1,0.095,-0.107,99.72,4.0,,0.0,0.0,166.20000000000002
2025-08-15T00:42:44.787Z,17,GR86-013-80,-1.2000000000000002,0.091,-0.094,99.72,4.0,,0.0,0.0,
2025-08-15T00:42:44.831Z,17,GR86-013-80,-1.2000000000000002,0.142,-0.056,99.72,4.0,,0.0,0.0,
2025-08-15T00:42:44.874Z,17,GR86-013-80,-1.2000000000000002,0.127,-0.066,99.71,4.0,,0.0,0.0,
2025-08-15T00:42:44.917Z,17,GR86-013-80,-1.2000000000000002,0.121,-0.062,99.72,4.0,6534.0,0.0,0.0,
2025-08-15T00:42:44.960Z,17,GR86-013-80,-1.3,0.1,-0.065,99.71,4.0,,0.0,0.0,167.07
2025-08-15T00:42:45.003Z,17,GR86-013-80,-1.7000000000000002,0.09,-0.08,99.71,4.0,,0.0,0.0,
2025-08-15T00:42:45.047Z,17,GR86-013-80,-2.3000000000000003,0.085,-0.092,99.73,4.0,,0.0,0.0,
2025-08-15T00:42:45.091Z,17,GR86-013-80,-2.8000000000000003,0.141,-0.102,99.72,4.0,,0.0,0.0,
2025-08-15T00:42:45.134Z,17,GR86-013-80,-2.9000000000000004,0.137,-0.119,99.72,4.0,6604.0,0.0,0.0,
2025-08-15T00:42:45.177Z,17,GR86-013-80,-3.0,0.114,-0.118,99.71,4.0,,0.0,0.0,167.96
2025-08-15T00:42:45.221Z,17,GR86-013-80,-2.8000000000000003,0.099,-0.133,99.72,4.0,,0.0,0.0,
2025-08-15T00:42:45.264Z,17,GR86-013-80,-2.8000000000000003,0.097,-0.149,99.7,4.0,,0.0,0.0,
2025-08-15T00:42:45.307Z,17,GR86-013-80,-2.7,0.085,-0.145,99.72,4.0,,0.0,0.0,
2025-08-15T00:42:45.351Z,17,GR86-013-80,-2.6,0.146,-0.119,99.72,4.0,6634.0,0.0,0.0,
2025-08-15T00:42:45.394Z,17,GR86-013-80,-2.6,0.145,-0.118,99.72,4.0,,0.0,0.0,168.88
2025-08-15T00:42:45.437Z,17,GR86-013-80,-2.5,0.121,-0.113,99.72,4.0,,0.0,0.0,
2025-08-15T00:42:45.480Z,17,GR86-013-80,-2.5,0.117,-0.111,99.72,4.0,,0.0,0.0,
2025-08-15T00:42:45.523Z,17,GR86-013-80,-2.5,0.097,-0.116,99.72,4.0,,0.0,0.0,
2025-08-15T00:42:45.566Z,17,GR86-013-80,-2.5,0.096,-0.119,99.71,4.0,6662.0,0.0,0.0,
2025-08-15T00:42:45.610Z,17,GR86-013-80,-2.6,0.153,-0.11,99.71,4.0,,0.0,0.0,169.79
2025-08-15T00:42:45.653Z,17,GR86-013-80,-2.6,0.145,-0.102,99.73,4.0,,0.0,0.0,
2025-08-15T00:42:45.697Z,17,GR86-013-80,-2.6,0.149,-0.125,99.72,4.0,,0.0,0.0,
2025-08-15T00:42:45.740Z,17,GR86-013-80,-2.6,0.127,-0.137,99.74,4.0,,0.0,0.0,
2025-08-15T00:42:45.783Z,17,GR86-013-80,-2.7,0.118,-0.142,99.72,4.0,6697.0,0.0,0.0,
2025-08-15T00:42:45.827Z,17,GR86-013-80,-2.7,0.11,-0.161,99.71,4.0,,0.0,0.0,170.57
2025-08-15T00:42:45.870Z,17,GR86-013-80,-2.7,0.144,-0.157,99.71,4.0,,0.0,0.0,
2025-08-15T00:42:45.913Z,17,GR86-013-80,-2.7,0.147,-0.149,99.73,4.0,,0.0,0.0,
2025-08-15T00:42:45.956Z,17,GR86-013-80,-2.6,0.144,-0.139,99.71,4.0,,0.0,0.0,
2025-08-15T00:42:45.999Z,17,GR86-013-80,-2.6,0.158,-0.143,99.71,4.0,6733.0,0.0,0.0,
2025-08-15T00:42:46.043Z,17,GR86-013-80,-2.6,0.13,-0.158,99.71,4.0,,0.0,0.0,171.41
2025-08-15T00:42:46.087Z,17,GR86-013-80,-2.7,0.153,-0.156,99.72,4.0,,0.0,0.0,
2025-08-15T00:42:46.131Z,17,GR86-013-80,-2.7,0.117,-0.17,99.73,4.0,,0.0,0.0,
2025-08-15T00:42:46.174Z,17,GR86-013-80,-2.7,0.098,-0.158,99.72,4.0,,0.0,0.0,
2025-08-15T00:42:46.217Z,17,GR86-013-80,-2.7,0.125,-0.163,99.72,4.0,6765.0,0.0,0.0,
2025-08-15T00:42:46.260Z,17,GR86-013-80,-2.7,0.115,-0.163,99.72,4.0,,0.0,0.0,172.39
2025-08-15T00:42:46.303Z,17,GR86-013-80,-2.6,0.137,-0.137,99.72,4.0,,0.0,0.0,
2025-08-15T00:42:46.346Z,17,GR86-013-80,-2.6,0.136,-0.128,99.71,4.0,,0.0,0.0,
2025-08-15T00:42:46.434Z,17,GR86-013-80,-2.3000000000000003,0.071,-0.127,99.72,4.0,6806.0,0.0,0.0,
2025-08-15T00:42:46.477Z,17,GR86-013-80,-2.2,0.076,-0.131,99.71,4.0,,0.0,0.0,173.3
2025-08-15T00:42:46.521Z,17,GR86-013-80,-2.2,0.089,-0.12,99.72,4.0,,0.0,0.0,
2025-08-15T00:42:46.607Z,17,GR86-013-80,-2.3000000000000003,0.09,-0.129,99.71,4.0,,0.0,0.0,
2025-08-15T00:42:46.651Z,17,GR86-013-80,-2.7,0.106,-0.12,99.72,4.0,6828.0,0.0,0.0,
2025-08-15T00:42:46.694Z,17,GR86-013-80,-2.8000000000000003,0.104,-0.155,99.71,4.0,,0.0,0.0,174.11
2025-08-15T00:42:46.738Z,17,GR86-013-80,-2.9000000000000004,0.094,-0.155,99.71,4.0,,0.0,0.0,
2025-08-15T00:42:46.781Z,17,GR86-013-80,-2.9000000000000004,0.087,-0.165,99.71,4.0,,0.0,0.0,
2025-08-15T00:42:46.824Z,17,GR86-013-80,-2.8000000000000003,0.086,-0.178,99.72,4.0,,0.0,0.0,
2025-08-15T00:42:46.867Z,17,GR86-013-80,-2.7,0.091,-0.18,99.72,4.0,6864.0,0.0,0.0,
2025-08-15T00:42:46.910Z,17,GR86-013-80,-2.4000000000000004,0.149,-0.145,99.72,4.0,,0.0,0.0,174.88
2025-08-15T00:42:46.954Z,17,GR86-013-80,-2.3000000000000003,0.142,-0.126,99.72,4.0,,0.0,0.0,
2025-08-15T00:42:46.997Z,17,GR86-013-80,-2.3000000000000003,0.145,-0.115,99.72,4.0,,0.0,0.0,
2025-08-15T00:42:47.040Z,17,GR86-013-80,-2.3000000000000003,0.133,-0.111,99.71,4.0,,0.0,0.0,
2025-08-15T00:42:47.083Z,17,GR86-013-80,-2.2,0.138,-0.099,99.72,4.0,6896.0,0.0,0.0,
2025-08-15T00:42:47.126Z,17,GR86-013-80,-2.2,0.128,-0.08,99.71,4.0,,0.0,0.0,175.78
2025-08-15T00:42:47.171Z,17,GR86-013-80,-2.1,0.081,-0.086,99.73,4.0,,0.0,0.0,
2025-08-15T00:42:47.214Z,17,GR86-013-80,-2.1,0.097,-0.089,99.71,4.0,,0.0,0.0,
2025-08-15T00:42:47.257Z,17,GR86-013-80,-2.1,0.086,-0.094,99.72,4.0,,0.0,0.0,
2025-08-15T00:42:47.301Z,17,GR86-013-80,-2.0,0.098,-0.091,99.72,4.0,6931.0,0.0,0.0,
2025-08-15T00:42:47.344Z,17,GR86-013-80,-1.8,0.099,-0.069,99.72,4.0,,0.0,0.0,177.44
2025-08-15T00:42:47.387Z,17,GR86-013-80,-1.5,0.1,-0.079,99.7,4.0,,0.0,0.0,
2025-08-15T00:42:47.431Z,17,GR86-013-80,-1.4,0.1,-0.08,99.72,4.0,,0.0,0.0,
2025-08-15T00:42:47.474Z,17,GR86-013-80,-1.5,0.102,-0.078,99.71,4.0,,0.0,0.0,
2025-08-15T00:42:47.517Z,17,GR86-013-80,-1.6,0.074,-0.078,99.71,4.0,6960.0,0.0,0.0,
2025-08-15T00:42:47.560Z,17,GR86-013-80,-1.7000000000000002,0.081,-0.095,99.72,4.0,,0.0,0.0,178.25
2025-08-15T00:42:47.603Z,17,GR86-013-80,-1.7000000000000002,0.081,-0.113,99.71,4.0,,0.0,0.0,
2025-08-15T00:42:47.647Z,17,GR86-013-80,-1.6,0.093,-0.099,99.72,4.0,,0.0,0.0,
2025-08-15T00:42:47.691Z,17,GR86-013-80,-1.4,0.12,-0.073,99.71,4.0,,0.0,0.0,
2025-08-15T00:42:47.777Z,17,GR86-013-80,-1.2000000000000002,0.126,-0.08,99.72,4.0,7023.0,0.0,0.0,179.02
2025-08-15T00:42:47.821Z,17,GR86-013-80,-1.3,0.13,-0.072,99.71,4.0,,0.0,0.0,
2025-08-15T00:42:47.864Z,17,GR86-013-80,-1.3,0.113,-0.059,99.72,4.0,,0.0,0.0,
2025-08-15T00:42:47.907Z,17,GR86-013-80,-1.3,0.125,-0.048,99.72,4.0,,0.0,0.0,
2025-08-15T00:42:47.951Z,17,GR86-013-80,-1.3,0.081,-0.051,99.7,4.0,7052.0,0.0,0.0,
2025-08-15T00:42:47.994Z,17,GR86-013-80,-1.3,0.073,-0.047,99.72,4.0,,0.0,0.0,179.81
2025-08-15T00:42:48.037Z,17,GR86-013-80,-1.3,0.083,-0.062,99.7,4.0,,0.0,0.0,
2025-08-15T00:42:48.081Z,17,GR86-013-80,-1.3,0.077,-0.054,99.72,4.0,,0.0,0.0,
2025-08-15T00:42:48.124Z,17,GR86-013-80,-1.3,0.082,-0.057,99.73,4.0,,0.0,0.0,
2025-08-15T00:42:48.167Z,17,GR86-013-80,-1.3,0.069,-0.055,99.7,4.0,7086.0,0.0,0.0,
2025-08-15T00:42:48.254Z,17,GR86-013-80,-1.3,0.119,-0.029,99.71,4.0,,0.0,0.0,180.6
2025-08-15T00:42:48.341Z,17,GR86-013-80,-1.4,0.115,-0.064,99.72,4.0,,0.0,0.0,
2025-08-15T00:42:48.384Z,17,GR86-013-80,-1.7000000000000002,0.121,-0.064,99.71,4.0,7118.0,0.0,0.0,
2025-08-15T00:42:48.427Z,17,GR86-013-80,-1.9,0.117,-0.078,99.71,4.0,,0.0,0.0,181.33
2025-08-15T00:42:48.470Z,17,GR86-013-80,-2.1,0.077,-0.094,99.7,4.0,,0.0,0.0,
2025-08-15T00:42:48.514Z,17,GR86-013-80,-2.0,0.076,-0.111,99.72,4.0,,0.0,0.0,
2025-08-15T00:42:48.557Z,17,GR86-013-80,-2.0,0.09,-0.112,99.72,4.0,,0.0,0.0,
2025-08-15T00:42:48.600Z,17,GR86-013-80,-1.9,0.09,-0.102,99.7,4.0,7142.0,0.0,0.0,
2025-08-15T00:42:48.643Z,17,GR86-013-80,-1.8,0.067,-0.118,99.71,4.0,,0.0,0.0,181.98
2025-08-15T00:42:48.687Z,17,GR86-013-80,-1.8,0.088,-0.126,99.69,4.0,,0.0,0.0,
2025-08-15T00:42:48.731Z,17,GR86-013-80,-1.6,0.105,-0.098,99.72,4.0,,0.0,0.0,
2025-08-15T00:42:48.774Z,17,GR86-013-80,-1.5,0.109,-0.087,99.72,4.0,,0.0,0.0,
2025-08-15T00:42:48.817Z,17,GR86-013-80,-1.5,0.126,-0.069,99.72,4.0,7167.0,0.0,0.0,
2025-08-15T00:42:48.861Z,17,GR86-013-80,-1.5,0.101,-0.053,99.72,4.0,,0.0,0.0,182.82
2025-08-15T00:42:48.904Z,17,GR86-013-80,-1.5,0.106,-0.044,99.72,4.0,,0.0,0.0,
2025-08-15T00:42:48.947Z,17,GR86-013-80,-1.5,0.101,-0.016,99.72,4.0,,0.0,0.0,
2025-08-15T00:42:48.991Z,17,GR86-013-80,-1.4,0.083,-0.052,99.72,4.0,,0.0,0.0,
2025-08-15T00:42:49.034Z,17,GR86-013-80,-1.5,0.08,-0.063,99.69,4.0,7190.0,0.0,0.0,
2025-08-15T00:42:49.077Z,17,GR86-013-80,-1.5,0.09,-0.072,99.7,4.0,,0.0,0.0,183.64
2025-08-15T00:42:49.164Z,17,GR86-013-80,-1.5,0.085,-0.071,99.71,4.0,,0.0,0.0,
2025-08-15T00:42:49.207Z,17,GR86-013-80,-1.3,0.086,-0.056,99.7,4.0,,0.0,0.0,
2025-08-15T00:42:49.251Z,17,GR86-013-80,-1.2000000000000002,0.077,-0.069,99.7,4.0,7232.0,0.0,0.0,
2025-08-15T00:42:49.294Z,17,GR86-013-80,-1.2000000000000002,-0.166,-0.045,99.69,5.0,,0.0,0.0,184.15
2025-08-15T00:42:49.337Z,17,GR86-013-80,-1.2000000000000002,-0.025,-0.028,99.71,5.0,,0.0,0.0,
2025-08-15T00:42:49.381Z,17,GR86-013-80,-1.1,0.447,-0.109,99.72,5.0,,0.0,0.0,
2025-08-15T00:42:49.424Z,17,GR86-013-80,-1.1,0.077,-0.079,99.71,5.0,,0.0,0.0,
2025-08-15T00:42:49.467Z,17,GR86-013-80,-1.3,-0.019,-0.037,99.72,5.0,6951.0,0.0,0.0,
2025-08-15T00:42:49.510Z,17,GR86-013-80,-1.3,0.069,-0.123,99.72,5.0,,0.0,0.0,184.97
2025-08-15T00:42:49.554Z,17,GR86-013-80,-1.3,0.14,-0.05,99.72,5.0,,0.0,0.0,
2025-08-15T00:42:49.597Z,17,GR86-013-80,-1.3,0.07,-0.089,99.71,5.0,,0.0,0.0,
2025-08-15T00:42:49.641Z,17,GR86-013-80,-1.3,0.03,-0.103,99.7,5.0,,0.0,0.0,
2025-08-15T00:42:49.684Z,17,GR86-013-80,-1.3,0.054,-0.065,99.71,5.0,6308.0,0.0,0.0,
2025-08-15T00:42:49.727Z,17,GR86-013-80,-1.2000000000000002,0.093,-0.069,99.72,5.0,,0.0,0.0,185.39
2025-08-15T00:42:49.770Z,17,GR86-013-80,-1.1,0.087,-0.033,99.71,5.0,,0.0,0.0,
2025-08-15T00:42:49.814Z,17,GR86-013-80,-1.1,0.075,-0.042,99.72,5.0,,0.0,0.0,
2025-08-15T00:42:49.857Z,17,GR86-013-80,-1.1,0.083,-0.06,99.72,5.0,,0.0,0.0,
2025-08-15T00:42:49.901Z,17,GR86-013-80,-1.1,0.091,-0.061,99.73,5.0,6349.0,0.0,0.0,
2025-08-15T00:42:49.944Z,17,GR86-013-80,-1.1,0.077,-0.064,99.72,5.0,,0.0,0.0,186.77
2025-08-15T00:42:49.987Z,17,GR86-013-80,-1.1,0.085,-0.062,99.72,5.0,,0.0,0.0,
2025-08-15T00:42:50.031Z,17,GR86-013-80,-1.1,0.091,-0.04,99.72,5.0,,0.0,0.0,
2025-08-15T00:42:50.074Z,17,GR86-013-80,-1.1,0.075,-0.04,99.72,5.0,,0.0,0.0,
2025-08-15T00:42:50.117Z,17,GR86-013-80,-1.1,0.083,-0.03,99.72,5.0,6346.0,0.0,0.0,
2025-08-15T00:42:50.160Z,17,GR86-013-80,-1.0,0.088,-0.028,99.72,5.0,,0.0,0.0,187.3
2025-08-15T00:42:50.203Z,17,GR86-013-80,-0.9,0.098,-0.035,99.71,5.0,,0.0,0.0,
2025-08-15T00:42:50.247Z,17,GR86-013-80,-0.9,0.093,-0.038,99.73,5.0,,0.0,0.0,
2025-08-15T00:42:50.291Z,17,GR86-013-80,-0.9,0.061,-0.028,99.72,5.0,,0.0,0.0,
2025-08-15T00:42:50.334Z,17,GR86-013-80,-0.9,0.071,-0.028,99.71,5.0,6382.0,0.0,0.0,
2025-08-15T00:42:50.420Z,17,GR86-013-80,-0.9,0.07,-0.026,99.72,5.0,,0.0,0.0,187.92
2025-08-15T00:42:50.464Z,17,GR86-013-80,-0.9,0.061,-0.049,99.71,5.0,,0.0,0.0,
2025-08-15T00:42:50.507Z,17,GR86-013-80,-0.9,0.076,-0.058,99.72,5.0,,0.0,0.0,
2025-08-15T00:42:50.551Z,17,GR86-013-80,-0.9,0.085,-0.058,99.72,5.0,6404.0,0.0,0.0,
2025-08-15T00:42:50.594Z,17,GR86-013-80,-0.9,0.087,-0.057,99.71,5.0,,0.0,0.0,188.56
2025-08-15T00:42:50.637Z,17,GR86-013-80,-0.9,0.062,-0.055,99.71,5.0,,0.0,0.0,
2025-08-15T00:42:50.681Z,17,GR86-013-80,-0.9,0.077,-0.06,99.7,5.0,,0.0,0.0,
2025-08-15T00:42:50.724Z,17,GR86-013-80,-0.9,0.063,-0.054,99.72,5.0,,0.0,0.0,
2025-08-15T00:42:50.767Z,17,GR86-013-80,-0.9,0.067,-0.051,99.71,5.0,6427.0,0.0,0.0,
2025-08-15T00:42:50.810Z,17,GR86-013-80,-0.9,0.11,-0.039,99.71,5.0,,0.0,0.0,189.18
2025-08-15T00:42:50.853Z,17,GR86-013-80,-0.9,0.094,-0.04,99.72,5.0,,0.0,0.0,
2025-08-15T00:42:50.896Z,17,GR86-013-80,-0.9,0.107,-0.039,99.69,5.0,,0.0,0.0,
2025-08-15T00:42:50.939Z,17,GR86-013-80,-0.9,0.093,-0.045,99.72,5.0,,0.0,0.0,
2025-08-15T00:42:50.982Z,17,GR86-013-80,-0.9,0.094,-0.046,99.69,5.0,6458.0,0.0,0.0,
2025-08-15T00:42:51.025Z,17,GR86-013-80,-0.9,0.081,-0.053,99.7,5.0,,0.0,0.0,189.8
2025-08-15T00:42:51.068Z,17,GR86-013-80,-0.9,0.068,-0.047,99.74,5.0,,0.0,0.0,
2025-08-15T00:42:51.111Z,17,GR86-013-80,-0.7000000000000001,0.092,-0.037,99.73,5.0,,0.0,0.0,
2025-08-15T00:42:51.154Z,17,GR86-013-80,-0.6000000000000001,0.091,-0.026,99.7,5.0,,0.0,0.0,
2025-08-15T00:42:51.197Z,17,GR86-013-80,-0.3,0.108,-0.008,99.72,5.0,6466.0,0.0,0.0,
2025-08-15T00:42:51.240Z,17,GR86-013-80,0.0,0.096,-0.012,99.7,5.0,,0.0,0.0,190.48
2025-08-15T00:42:51.283Z,17,GR86-013-80,0.1,0.108,-0.025,99.7,5.0,,0.0,0.0,
2025-08-15T00:42:51.327Z,17,GR86-013-80,0.1,0.115,-0.012,99.73,5.0,,0.0,0.0,
2025-08-15T00:42:51.371Z,17,GR86-013-80,0.1,0.062,-0.009,99.72,5.0,,0.0,0.0,
2025-08-15T00:42:51.414Z,17,GR86-013-80,0.1,0.056,-0.016,99.72,5.0,6489.0,0.0,0.0,
2025-08-15T00:42:51.457Z,17,GR86-013-80,0.0,0.074,-0.018,99.71,5.0,,0.0,0.0,191.1
2025-08-15T00:42:51.501Z,17,GR86-013-80,-0.1,0.089,-0.026,99.71,5.0,,0.0,0.0,
2025-08-15T00:42:51.544Z,17,GR86-013-80,-0.2,0.098,-0.025,99.72,5.0,,0.0,0.0,
2025-08-15T00:42:51.587Z,17,GR86-013-80,-0.2,0.097,-0.017,99.72,5.0,,0.0,0.0,
2025-08-15T00:42:51.631Z,17,GR86-013-80,-0.1,0.049,-0.02,99.71,5.0,6506.0,0.0,0.0,
2025-08-15T00:42:51.674Z,17,GR86-013-80,0.0,0.045,-0.008,99.72,5.0,,0.0,0.0,191.66
2025-08-15T00:42:51.717Z,17,GR86-013-80,0.1,0.044,-0.012,99.71,5.0,,0.0,0.0,
2025-08-15T00:42:51.760Z,17,GR86-013-80,0.3,0.061,-0.015,99.72,5.0,,0.0,0.0,
2025-08-15T00:42:51.803Z,17,GR86-013-80,0.4,0.072,-0.019,99.72,5.0,,0.0,0.0,
2025-08-15T00:42:51.846Z,17,GR86-013-80,0.5,0.085,-0.007,99.71,5.0,6523.0,0.0,0.0,
2025-08-15T00:42:51.891Z,17,GR86-013-80,0.5,0.052,0.029,99.72,5.0,,0.0,0.0,192.28
2025-08-15T00:42:51.934Z,17,GR86-013-80,0.7000000000000001,0.05,0.032,99.72,5.0,,0.0,0.0,
2025-08-15T00:42:51.977Z,17,GR86-013-80,0.8,0.043,0.027,99.72,5.0,,0.0,0.0,
2025-08-15T00:42:52.021Z,17,GR86-013-80,1.0,0.043,0.044,99.72,5.0,,0.0,0.0,
2025-08-15T00:42:52.064Z,17,GR86-013-80,1.0,0.05,0.044,99.7,5.0,6550.0,0.0,0.0,
2025-08-15T00:42:52.107Z,17,GR86-013-80,1.1,0.063,0.034,99.72,5.0,,0.0,0.0,192.81
2025-08-15T00:42:52.151Z,17,GR86-013-80,1.0,0.064,0.051,99.7,5.0,,0.0,0.0,
2025-08-15T00:42:52.194Z,17,GR86-013-80,1.0,0.045,0.045,99.72,5.0,,0.0,0.0,
2025-08-15T00:42:52.237Z,17,GR86-013-80,1.0,0.042,0.048,99.72,5.0,,0.0,0.0,
2025-08-15T00:42:52.280Z,17,GR86-013-80,1.0,0.039,0.033,99.71,5.0,6573.0,0.0,0.0,
2025-08-15T00:42:52.323Z,17,GR86-013-80,1.0,0.039,0.022,99.72,5.0,,0.0,0.0,193.39
2025-08-15T00:42:52.366Z,17,GR86-013-80,1.0,0.065,0.032,99.71,5.0,,0.0,0.0,
2025-08-15T00:42:52.410Z,17,GR86-013-80,1.0,0.071,0.036,99.73,5.0,,0.0,0.0,
2025-08-15T00:42:52.454Z,17,GR86-013-80,1.2000000000000002,0.046,0.045,99.71,5.0,,0.0,0.0,
2025-08-15T00:42:52.497Z,17,GR86-013-80,1.4,0.051,0.039,99.73,5.0,6585.0,0.0,0.0,
2025-08-15T00:42:52.541Z,17,GR86-013-80,1.6,0.04,0.036,99.72,5.0,,0.0,0.0,194.46
2025-08-15T00:42:52.584Z,17,GR86-013-80,1.7000000000000002,0.043,0.046,99.71,5.0,,0.0,0.0,
2025-08-15T00:42:52.627Z,17,GR86-013-80,1.8,0.038,0.045,99.72,5.0,,0.0,0.0,
2025-08-15T00:42:52.670Z,17,GR86-013-80,1.9,0.07,0.052,99.7,5.0,,0.0,0.0,
2025-08-15T00:42:52.714Z,17,GR86-013-80,1.9,0.061,0.06,99.71,5.0,6607.0,0.0,0.0,
2025-08-15T00:42:52.757Z,17,GR86-013-80,1.9,0.048,0.053,99.72,5.0,,0.0,0.0,195.04
2025-08-15T00:42:52.801Z,17,GR86-013-80,1.9,0.038,0.058,99.72,5.0,,0.0,0.0,
2025-08-15T00:42:52.844Z,17,GR86-013-80,2.0,0.036,0.06,99.71,5.0,,0.0,0.0,
2025-08-15T00:42:52.888Z,17,GR86-013-80,2.1,0.047,0.071,99.72,5.0,,0.0,0.0,
2025-08-15T00:42:52.931Z,17,GR86-013-80,2.3000000000000003,0.071,0.096,99.71,5.0,6646.0,0.0,0.0,
2025-08-15T00:42:52.974Z,17,GR86-013-80,2.6,0.056,0.089,99.72,5.0,,0.0,0.0,195.59
2025-08-15T00:42:53.017Z,17,GR86-013-80,2.7,0.049,0.089,99.71,5.0,,0.0,0.0,
2025-08-15T00:42:53.060Z,17,GR86-013-80,2.9000000000000004,0.033,0.084,99.72,5.0,,0.0,0.0,
2025-08-15T00:42:53.103Z,17,GR86-013-80,3.1,0.042,0.093,99.72,5.0,,0.0,0.0,
2025-08-15T00:42:53.147Z,17,GR86-013-80,3.6,0.037,0.096,99.71,5.0,6660.0,0.0,0.0,
2025-08-15T00:42:53.191Z,17,GR86-013-80,4.5,0.065,0.123,99.72,5.0,,0.0,0.0,196.16
2025-08-15T00:42:53.234Z,17,GR86-013-80,5.0,0.054,0.145,99.72,5.0,,0.0,0.0,
2025-08-15T00:42:53.277Z,17,GR86-013-80,5.2,0.033,0.154,99.71,5.0,,0.0,0.0,
2025-08-15T00:42:53.321Z,17,GR86-013-80,5.300000000000001,0.042,0.161,99.71,5.0,,0.0,0.0,
2025-08-15T00:42:53.364Z,17,GR86-013-80,5.1000000000000005,0.03,0.154,99.73,5.0,6681.0,0.0,0.0,
2025-08-15T00:42:53.407Z,17,GR86-013-80,5.0,0.051,0.168,99.69,5.0,,0.0,0.0,196.81
2025-08-15T00:42:53.451Z,17,GR86-013-80,4.7,0.055,0.199,99.72,5.0,,0.0,0.0,
2025-08-15T00:42:53.494Z,17,GR86-013-80,4.6000000000000005,0.045,0.197,99.72,5.0,,0.0,0.0,
2025-08-15T00:42:53.537Z,17,GR86-013-80,4.6000000000000005,0.038,0.189,99.72,5.0,,0.0,0.0,
2025-08-15T00:42:53.581Z,17,GR86-013-80,4.9,0.025,0.179,99.7,5.0,6701.0,0.0,0.0,
2025-08-15T00:42:53.624Z,17,GR86-013-80,5.1000000000000005,0.039,0.15,99.72,5.0,,0.0,0.0,197.46
2025-08-15T00:42:53.667Z,17,GR86-013-80,5.4,0.047,0.172,99.71,5.0,,0.0,0.0,
2025-08-15T00:42:53.710Z,17,GR86-013-80,6.1000000000000005,0.036,0.182,99.7,5.0,,0.0,0.0,
2025-08-15T00:42:53.753Z,17,GR86-013-80,6.6000000000000005,0.028,0.204,99.72,5.0,,0.0,0.0,
2025-08-15T00:42:53.797Z,17,GR86-013-80,7.1000000000000005,0.018,0.214,99.72,5.0,6721.0,0.0,0.0,
2025-08-15T00:42:53.841Z,17,GR86-013-80,7.2,0.039,0.235,99.73,5.0,,0.0,0.0,198.1
2025-08-15T00:42:53.884Z,17,GR86-013-80,7.0,0.06,0.25,99.7,5.0,,0.0,0.0,
2025-08-15T00:42:53.927Z,17,GR86-013-80,6.800000000000001,0.065,0.251,99.7,5.0,,0.0,0.0,
2025-08-15T00:42:53.970Z,17,GR86-013-80,6.5,0.018,0.273,99.71,5.0,,0.0,0.0,
2025-08-15T00:42:54.014Z,17,GR86-013-80,6.300000000000001,0.029,0.258,99.72,5.0,6735.0,0.0,0.0,
2025-08-15T00:42:54.057Z,17,GR86-013-80,6.300000000000001,0.026,0.232,99.69,5.0,,0.0,0.0,198.59
2025-08-15T00:42:54.100Z,17,GR86-013-80,6.300000000000001,0.058,0.232,99.69,5.0,,0.0,0.0,
2025-08-15T00:42:54.143Z,17,GR86-013-80,6.2,0.079,0.214,99.71,5.0,,0.0,0.0,
2025-08-15T00:42:54.187Z,17,GR86-013-80,6.2,0.092,0.206,99.73,5.0,,0.0,0.0,
2025-08-15T00:42:54.274Z,17,GR86-013-80,6.2,0.046,0.216,99.71,5.0,6760.0,0.0,0.0,199.07
2025-08-15T00:42:54.317Z,17,GR86-013-80,6.2,0.067,0.201,99.72,5.0,,0.0,0.0,
2025-08-15T00:42:54.360Z,17,GR86-013-80,6.1000000000000005,0.074,0.192,99.69,5.0,,0.0,0.0,
2025-08-15T00:42:54.403Z,17,GR86-013-80,5.9,0.085,0.203,99.72,5.0,,0.0,0.0,
2025-08-15T00:42:54.491Z,17,GR86-013-80,5.800000000000001,0.078,0.199,99.69,5.0,6762.0,0.0,0.0,199.5
2025-08-15T00:42:54.534Z,17,GR86-013-80,5.300000000000001,0.062,0.189,99.69,5.0,,0.0,0.0,
2025-08-15T00:42:54.577Z,17,GR86-013-80,5.4,0.064,0.182,99.7,5.0,,0.0,0.0,
2025-08-15T00:42:54.620Z,17,GR86-013-80,5.6000000000000005,0.077,0.188,99.72,5.0,,0.0,0.0,
2025-08-15T00:42:54.664Z,17,GR86-013-80,5.4,0.082,0.199,99.69,5.0,6787.0,0.0,0.0,
2025-08-15T00:42:54.707Z,17,GR86-013-80,5.2,0.057,0.193,99.7,5.0,,0.0,0.0,199.88
2025-08-15T00:42:54.751Z,17,GR86-013-80,5.1000000000000005,0.068,0.164,99.71,5.0,,0.0,0.0,
2025-08-15T00:42:54.837Z,17,GR86-013-80,4.9,0.08,0.152,99.7,5.0,,0.0,0.0,
2025-08-15T00:42:54.924Z,17,GR86-013-80,4.800000000000001,0.05,0.145,99.7,5.0,6801.0,0.0,0.0,200.19
2025-08-15T00:42:54.967Z,17,GR86-013-80,4.9,0.029,0.154,99.69,5.0,,0.0,0.0,
2025-08-15T00:42:55.010Z,17,GR86-013-80,4.9,0.073,0.149,99.69,5.0,,0.0,0.0,
2025-08-15T00:42:55.053Z,17,GR86-013-80,4.9,0.069,0.142,99.71,5.0,,0.0,0.0,
2025-08-15T00:42:55.096Z,17,GR86-013-80,4.9,0.044,0.135,99.68,5.0,6810.0,0.0,0.0,
2025-08-15T00:42:55.139Z,17,GR86-013-80,4.800000000000001,0.039,0.134,99.71,5.0,,0.0,0.0,201.19
2025-08-15T00:42:55.182Z,17,GR86-013-80,4.7,0.032,0.138,99.68,5.0,,0.0,0.0,
2025-08-15T00:42:55.225Z,17,GR86-013-80,4.7,0.039,0.139,99.72,5.0,,0.0,0.0,
2025-08-15T00:42:55.268Z,17,GR86-013-80,5.5,0.047,0.141,99.68,5.0,,0.0,0.0,
2025-08-15T00:42:55.311Z,17,GR86-013-80,8.9,0.029,0.198,99.69,5.0,6834.0,0.0,0.0,
2025-08-15T00:42:55.354Z,17,GR86-013-80,10.3,0.035,0.247,99.7,5.0,,0.0,0.0,201.79
2025-08-15T00:42:55.397Z,17,GR86-013-80,10.6,0.034,0.285,99.68,5.0,,0.0,0.0,
2025-08-15T00:42:55.440Z,17,GR86-013-80,10.4,0.054,0.324,99.7,5.0,,0.0,0.0,
2025-08-15T00:42:55.483Z,17,GR86-013-80,10.1,0.071,0.358,99.69,5.0,,0.0,0.0,
2025-08-15T00:42:55.526Z,17,GR86-013-80,10.0,0.068,0.363,99.68,5.0,6849.0,0.0,0.0,
2025-08-15T00:42:55.571Z,17,GR86-013-80,9.8,0.037,0.387,99.69,5.0,,0.0,0.0,202.23
2025-08-15T00:42:55.614Z,17,GR86-013-80,9.7,0.047,0.412,99.7,5.0,,0.0,0.0,
2025-08-15T00:42:55.657Z,17,GR86-013-80,9.5,0.074,0.438,99.68,5.0,,0.0,0.0,
2025-08-15T00:42:55.701Z,17,GR86-013-80,9.3,0.08,0.467,99.69,5.0,,0.0,0.0,
2025-08-15T00:42:55.744Z,17,GR86-013-80,9.1,0.059,0.478,99.69,5.0,6910.0,0.0,0.0,
2025-08-15T00:42:55.787Z,17,GR86-013-80,9.0,0.068,0.486,99.72,5.0,,0.0,0.0,202.62
2025-08-15T00:42:55.831Z,17,GR86-013-80,8.8,0.071,0.471,99.69,5.0,,0.0,0.0,
2025-08-15T00:42:55.874Z,17,GR86-013-80,8.6,0.071,0.451,99.7,5.0,,0.0,0.0,
2025-08-15T00:42:55.917Z,17,GR86-013-80,8.5,0.073,0.406,99.68,5.0,,0.0,0.0,
2025-08-15T00:42:55.960Z,17,GR86-013-80,8.5,0.05,0.355,99.7,5.0,6908.0,0.0,0.0,
2025-08-15T00:42:56.003Z,17,GR86-013-80,9.0,0.048,0.302,99.69,5.0,,0.0,0.0,203.49
2025-08-15T00:42:56.047Z,17,GR86-013-80,10.2,0.038,0.289,99.71,5.0,,0.0,0.0,
2025-08-15T00:42:56.091Z,17,GR86-013-80,10.3,0.044,0.299,99.69,5.0,,0.0,0.0,
2025-08-15T00:42:56.134Z,17,GR86-013-80,9.3,0.068,0.315,99.7,5.0,,0.0,0.0,
2025-08-15T00:42:56.177Z,17,GR86-013-80,7.6,0.037,0.322,99.68,5.0,6943.0,0.0,0.0,
2025-08-15T00:42:56.221Z,17,GR86-013-80,6.0,0.053,0.329,99.7,5.0,,0.0,0.0,203.9
2025-08-15T00:42:56.264Z,17,GR86-013-80,5.1000000000000005,0.041,0.331,99.69,5.0,,0.0,0.0,
2025-08-15T00:42:56.307Z,17,GR86-013-80,4.9,0.063,0.314,99.69,5.0,,0.0,0.0,
2025-08-15T00:42:56.351Z,17,GR86-013-80,5.1000000000000005,0.054,0.28,99.71,5.0,,0.0,0.0,
2025-08-15T00:42:56.394Z,17,GR86-013-80,6.0,0.052,0.263,99.7,5.0,6950.0,0.0,0.0,
2025-08-15T00:42:56.437Z,17,GR86-013-80,7.2,0.063,0.237,99.68,5.0,,0.0,0.0,204.52
2025-08-15T00:42:56.481Z,17,GR86-013-80,8.3,0.041,0.228,99.7,5.0,,0.0,0.0,
2025-08-15T00:42:56.524Z,17,GR86-013-80,8.9,0.062,0.206,99.7,5.0,,0.0,0.0,
2025-08-15T00:42:56.567Z,17,GR86-013-80,9.0,0.044,0.214,99.68,5.0,,0.0,0.0,
2025-08-15T00:42:56.610Z,17,GR86-013-80,8.5,0.049,0.228,99.68,5.0,6960.0,0.0,0.0,
2025-08-15T00:42:56.653Z,17,GR86-013-80,8.1,0.043,0.254,99.7,5.0,,0.0,0.0,205.24
2025-08-15T00:42:56.696Z,17,GR86-013-80,7.6,0.042,0.268,99.69,5.0,,0.0,0.0,
2025-08-15T00:42:56.739Z,17,GR86-013-80,6.9,0.041,0.298,99.68,5.0,,0.0,0.0,
2025-08-15T00:42:56.784Z,17,GR86-013-80,6.1000000000000005,0.047,0.324,99.7,5.0,,0.0,0.0,
2025-08-15T00:42:56.827Z,17,GR86-013-80,6.0,0.045,0.331,99.69,5.0,6992.0,0.0,0.0,
2025-08-15T00:42:56.870Z,17,GR86-013-80,6.300000000000001,0.029,0.274,63.23,5.0,,3.725,3.97,205.58
2025-08-15T00:42:56.913Z,17,GR86-013-80,6.1000000000000005,0.01,0.283,36.93,5.0,,7.325,7.46,
2025-08-15T00:42:56.956Z,17,GR86-013-80,6.0,-0.062,0.288,28.61,5.0,,12.62,12.59,
2025-08-15T00:42:56.999Z,17,GR86-013-80,6.0,-0.198,0.285,4.68,5.0,,19.485,19.55,
2025-08-15T00:42:57.043Z,17,GR86-013-80,6.1000000000000005,-0.367,0.22,4.97,5.0,7010.0,28.75,28.615,
2025-08-15T00:42:57.086Z,17,GR86-013-80,6.0,-0.66,0.229,4.69,5.0,,41.735,41.14,206.35
2025-08-15T00:42:57.131Z,17,GR86-013-80,5.7,-1.084,0.159,4.16,5.0,,64.155,63.435,
2025-08-15T00:42:57.174Z,17,GR86-013-80,5.1000000000000005,-1.214,0.129,3.81,5.0,,78.08500000000001,78.83500000000001,
2025-08-15T00:42:57.217Z,17,GR86-013-80,4.6000000000000005,-1.274,0.143,3.53,5.0,,88.89,90.415,
2025-08-15T00:42:57.260Z,17,GR86-013-80,4.6000000000000005,-1.246,0.097,3.33,5.0,6650.0,93.59,94.305,
2025-08-15T00:42:57.303Z,17,GR86-013-80,3.7,-1.375,0.131,3.15,5.0,,96.52,97.65,206.01
2025-08-15T00:42:57.346Z,17,GR86-013-80,-1.3,-1.28,0.199,35.33,5.0,,95.42,96.995,
2025-08-15T00:42:57.391Z,17,GR86-013-80,-4.5,-1.35,0.173,97.86,5.0,,92.49,92.84,
2025-08-15T00:42:57.434Z,17,GR86-013-80,-4.4,-1.448,0.133,96.84,5.0,,91.195,92.275,
2025-08-15T00:42:57.477Z,17,GR86-013-80,-3.8,-1.285,0.11,37.11,4.0,6314.0,90.14,90.765,
2025-08-15T00:42:57.521Z,17,GR86-013-80,-1.3,-1.327,0.133,5.16,4.0,,89.83500000000001,90.675,197.42
2025-08-15T00:42:57.564Z,17,GR86-013-80,0.9,-1.344,0.131,4.6000000000000005,4.0,,89.925,91.285,
2025-08-15T00:42:57.607Z,17,GR86-013-80,2.2,-1.33,0.066,4.22,4.0,,91.255,92.84,
2025-08-15T00:42:57.651Z,17,GR86-013-80,4.9,-1.353,0.112,3.82,4.0,,89.055,89.33,
2025-08-15T00:42:57.694Z,17,GR86-013-80,6.0,-1.296,0.123,3.59,4.0,6759.0,90.02,91.285,
2025-08-15T00:42:57.737Z,17,GR86-013-80,6.5,-1.371,0.107,3.36,4.0,,91.5,92.72,179.45000000000002
2025-08-15T00:42:57.781Z,17,GR86-013-80,6.7,-1.318,0.148,3.14,4.0,,89.485,90.05,
2025-08-15T00:42:57.824Z,17,GR86-013-80,6.6000000000000005,-1.42,0.116,2.86,4.0,,89.545,90.795,
2025-08-15T00:42:57.867Z,17,GR86-013-80,6.2,-1.337,0.134,2.68,4.0,,90.83,92.55,
2025-08-15T00:42:57.910Z,17,GR86-013-80,5.6000000000000005,-1.241,0.159,2.54,4.0,6577.0,89.33,89.895,
2025-08-15T00:42:57.954Z,17,GR86-013-80,5.2,-1.419,0.194,2.49,4.0,,88.14,88.765,171.19
2025-08-15T00:42:57.997Z,17,GR86-013-80,4.1000000000000005,-1.308,0.188,18.54,4.0,,85.745,86.525,
2025-08-15T00:42:58.040Z,17,GR86-013-80,3.8,-1.339,0.211,62.32,4.0,,79.365,80.91,
2025-08-15T00:42:58.083Z,17,GR86-013-80,3.7,-1.192,0.225,82.67,3.0,,72.485,74.315,
2025-08-15T00:42:58.127Z,17,GR86-013-80,3.6,-1.233,0.158,17.16,3.0,6334.0,68.84,70.655,
2025-08-15T00:42:58.170Z,17,GR86-013-80,1.2000000000000002,-1.228,0.228,3.23,3.0,,69.22,70.455,164.63
2025-08-15T00:42:58.214Z,17,GR86-013-80,0.7000000000000001,-1.149,0.254,3.08,3.0,,67.725,68.15,
2025-08-15T00:42:58.257Z,17,GR86-013-80,0.7000000000000001,-1.306,0.259,2.92,3.0,,67.905,68.9,
2025-08-15T00:42:58.300Z,17,GR86-013-80,0.4,-1.206,0.323,2.82,3.0,,70.485,71.89,
2025-08-15T00:42:58.343Z,17,GR86-013-80,0.4,-1.078,0.316,2.74,3.0,6800.0,71.235,71.92,
2025-08-15T00:42:58.387Z,17,GR86-013-80,0.6000000000000001,-1.194,0.362,2.67,3.0,,71.525,72.09,155.54
2025-08-15T00:42:58.431Z,17,GR86-013-80,0.5,-1.187,0.284,2.6,3.0,,76.5,77.795,
2025-08-15T00:42:58.474Z,17,GR86-013-80,0.5,-1.24,0.287,2.54,3.0,,77.58,78.27,
2025-08-15T00:42:58.517Z,17,GR86-013-80,1.1,-1.246,0.313,2.53,3.0,,78.025,78.24,
2025-08-15T00:42:58.560Z,17,GR86-013-80,1.3,-1.197,0.201,2.51,3.0,6539.0,78.635,78.805,
2025-08-15T00:42:58.603Z,17,GR86-013-80,1.4,-1.244,0.192,2.47,3.0,,79.595,79.655,149.27
2025-08-15T00:42:58.647Z,17,GR86-013-80,1.9,-1.251,0.156,2.48,3.0,,80.8,80.91,
2025-08-15T00:42:58.691Z,17,GR86-013-80,5.800000000000001,-1.216,0.137,2.48,3.0,,81.46000000000001,81.55,
2025-08-15T00:42:58.734Z,17,GR86-013-80,6.9,-1.268,0.135,27.2,3.0,,81.46000000000001,81.685,
2025-08-15T00:42:58.777Z,17,GR86-013-80,6.9,-1.227,0.162,71.5,3.0,6194.0,81.33500000000001,81.395,
2025-08-15T00:42:58.821Z,17,GR86-013-80,7.5,-1.237,0.171,99.82,3.0,,81.06,81.09,140.84
2025-08-15T00:42:58.864Z,17,GR86-013-80,8.4,-1.325,0.149,91.58,2.0,,80.025,80.22,
2025-08-15T00:42:58.907Z,17,GR86-013-80,9.0,-1.373,0.11,20.26,2.0,,77.11,77.37,
2025-08-15T00:42:58.951Z,17,GR86-013-80,8.4,-1.288,0.245,3.12,2.0,,73.935,75.52,
2025-08-15T00:42:58.994Z,17,GR86-013-80,8.1,-1.192,0.151,2.99,2.0,6339.0,71.37,71.735,
2025-08-15T00:42:59.038Z,17,GR86-013-80,8.1,-1.297,0.212,2.82,2.0,,70.515,71.495,131.81
2025-08-15T00:42:59.081Z,17,GR86-013-80,8.1,-1.091,0.31,2.73,2.0,,71.43,72.21000000000001,
2025-08-15T00:42:59.124Z,17,GR86-013-80,8.5,-1.187,0.174,2.68,2.0,,70.93,71.615,
2025-08-15T00:42:59.167Z,17,GR86-013-80,10.1,-1.185,0.372,2.64,2.0,,71.645,72.485,
2025-08-15T00:42:59.210Z,17,GR86-013-80,13.2,-1.223,0.249,2.57,2.0,6711.0,72.605,73.14,
2025-08-15T00:42:59.254Z,17,GR86-013-80,18.4,-1.183,0.431,2.5500000000000003,2.0,,72.83500000000001,73.34,123.63
2025-08-15T00:42:59.297Z,17,GR86-013-80,22.6,-1.181,0.518,2.54,2.0,,73.935,74.055,
2025-08-15T00:42:59.341Z,17,GR86-013-80,27.5,-1.126,0.418,2.51,2.0,,76.27,76.18,
2025-08-15T00:42:59.384Z,17,GR86-013-80,35.2,-1.189,0.6890000000000001,2.5,2.0,,78.83500000000001,78.865,
2025-08-15T00:42:59.427Z,17,GR86-013-80,38.900000000000006,-1.014,0.709,2.5,2.0,6297.0,77.58,78.175,
2025-08-15T00:42:59.471Z,17,GR86-013-80,39.0,-1.095,0.643,2.5,2.0,,77.49,77.705,116.61
2025-08-15T00:42:59.514Z,17,GR86-013-80,39.3,-1.08,0.868,2.48,2.0,,78.205,78.515,
2025-08-15T00:42:59.557Z,17,GR86-013-80,41.2,-1.048,0.744,2.49,2.0,,73.14,73.995,
2025-08-15T00:42:59.601Z,17,GR86-013-80,44.400000000000006,-1.056,0.756,2.51,2.0,,70.715,71.495,
2025-08-15T00:42:59.644Z,17,GR86-013-80,48.6,-0.965,0.901,2.51,2.0,5822.0,71.95,73.02,
2025-08-15T00:42:59.687Z,17,GR86-013-80,53.3,-1.018,0.899,2.5,2.0,,69.71000000000001,71.175,109.24
2025-08-15T00:42:59.731Z,17,GR86-013-80,54.5,-0.959,0.915,2.48,2.0,,69.31,70.18,
2025-08-15T00:42:59.775Z,17,GR86-013-80,52.2,-1.016,0.92,2.47,2.0,,66.64,66.99,
2025-08-15T00:42:59.818Z,17,GR86-013-80,45.400000000000006,-0.948,0.932,2.5,2.0,,64.9,65.145,
2025-08-15T00:42:59.864Z,17,GR86-013-80,41.6,-0.953,0.897,2.5,2.0,5376.0,63.115,64.43,
2025-08-15T00:42:59.907Z,17,GR86-013-80,41.6,-0.953,0.85,2.51,2.0,,61.545,62.78,102.26
2025-08-15T00:42:59.951Z,17,GR86-013-80,58.3,-0.966,0.929,2.5,2.0,,55.545,55.775,
2025-08-15T00:42:59.994Z,17,GR86-013-80,67.4,-0.805,0.925,2.51,2.0,,47.46,48.555,
2025-08-15T00:43:00.037Z,17,GR86-013-80,71.7,-0.7000000000000001,0.976,2.5,2.0,,36.425,37.705,
2025-08-15T00:43:00.080Z,17,GR86-013-80,76.9,-0.59,1.076,2.5,2.0,4967.0,23.715,24.615,
2025-08-15T00:43:00.123Z,17,GR86-013-80,81.9,-0.51,1.058,2.5,2.0,,11.4,12.145,95.32
2025-08-15T00:43:00.166Z,17,GR86-013-80,87.80000000000001,-0.389,1.096,2.48,2.0,,3.13,3.615,
2025-08-15T00:43:00.210Z,17,GR86-013-80,96.8,-0.209,1.2,2.49,2.0,,0.0,0.0,
2025-08-15T00:43:00.254Z,17,GR86-013-80,101.1,-0.176,1.177,2.47,2.0,,0.0,0.0,
2025-08-15T00:43:00.297Z,17,GR86-013-80,102.8,-0.163,1.214,2.48,2.0,4680.0,0.0,0.0,
2025-08-15T00:43:00.341Z,17,GR86-013-80,102.8,-0.19,1.224,2.6,2.0,,0.0,0.0,86.24
2025-08-15T00:43:00.384Z,17,GR86-013-80,99.7,-0.174,1.248,4.47,2.0,,0.0,0.0,
2025-08-15T00:43:00.427Z,17,GR86-013-80,93.3,-0.192,1.285,19.94,2.0,,0.0,0.0,
2025-08-15T00:43:00.470Z,17,GR86-013-80,79.80000000000001,-0.167,1.289,19.97,2.0,,0.0,0.0,
2025-08-15T00:43:00.557Z,17,GR86-013-80,63.1,-0.093,1.173,23.02,2.0,4733.0,0.0,0.0,84.7
2025-08-15T00:43:00.600Z,17,GR86-013-80,61.0,-0.076,1.16,23.73,2.0,,0.0,0.0,
2025-08-15T00:43:00.643Z,17,GR86-013-80,61.1,-0.024,1.181,24.05,2.0,,0.0,0.0,
2025-08-15T00:43:00.686Z,17,GR86-013-80,67.8,0.155,1.234,24.08,2.0,,0.0,0.0,
2025-08-15T00:43:00.731Z,17,GR86-013-80,76.60000000000001,0.151,1.212,24.11,2.0,4979.0,0.0,0.0,
2025-08-15T00:43:00.817Z,17,GR86-013-80,86.4,0.171,1.257,24.12,2.0,,0.0,0.0,83.74
2025-08-15T00:43:00.861Z,17,GR86-013-80,87.10000000000001,0.12,1.238,24.33,2.0,,0.0,0.0,
2025-08-15T00:43:00.904Z,17,GR86-013-80,88.0,0.102,1.324,26.04,2.0,,0.0,0.0,
2025-08-15T00:43:00.991Z,17,GR86-013-80,102.6,0.109,1.21,27.54,2.0,4815.0,0.0,0.0,83.33
2025-08-15T00:43:01.034Z,17,GR86-013-80,107.1,0.112,1.09,27.54,2.0,,0.0,0.0,
2025-08-15T00:43:01.121Z,17,GR86-013-80,113.7,0.147,1.198,27.41,2.0,,0.0,0.0,
2025-08-15T00:43:01.164Z,17,GR86-013-80,115.0,0.109,1.256,27.18,2.0,4884.0,0.0,0.0,
2025-08-15T00:43:01.207Z,17,GR86-013-80,117.0,0.152,1.094,26.59,2.0,,0.0,0.0,83.26
2025-08-15T00:43:01.251Z,17,GR86-013-80,119.7,0.12,1.04,25.6,2.0,,0.0,0.0,
2025-08-15T00:43:01.294Z,17,GR86-013-80,119.9,-0.056,1.382,25.59,2.0,,0.0,0.0,
2025-08-15T00:43:01.337Z,17,GR86-013-80,119.7,0.14,1.215,25.65,2.0,,0.0,0.0,
2025-08-15T00:43:01.380Z,17,GR86-013-80,119.1,0.112,1.402,26.85,2.0,4939.0,0.0,0.0,
2025-08-15T00:43:01.423Z,17,GR86-013-80,119.0,-0.038,1.382,28.93,2.0,,0.0,0.0,83.7
2025-08-15T00:43:01.466Z,17,GR86-013-80,119.0,0.218,1.272,29.21,2.0,,0.0,0.0,
2025-08-15T00:43:01.509Z,17,GR86-013-80,118.9,0.17,1.167,30.2,2.0,,0.0,0.0,
2025-08-15T00:43:01.553Z,17,GR86-013-80,118.1,0.137,1.169,35.980000000000004,2.0,,0.0,0.0,
2025-08-15T00:43:01.596Z,17,GR86-013-80,116.0,0.122,1.194,39.16,2.0,4971.0,0.0,0.0,
2025-08-15T00:43:01.640Z,17,GR86-013-80,113.2,0.116,1.235,40.09,2.0,,0.0,0.0,84.85000000000001
2025-08-15T00:43:01.683Z,17,GR86-013-80,110.6,0.141,1.21,41.53,2.0,,0.0,0.0,
2025-08-15T00:43:01.727Z,17,GR86-013-80,109.5,0.173,1.171,41.58,2.0,,0.0,0.0,
2025-08-15T00:43:01.770Z,17,GR86-013-80,108.9,0.198,1.196,41.37,2.0,,0.0,0.0,
2025-08-15T00:43:01.814Z,17,GR86-013-80,107.4,0.208,1.162,40.82,2.0,5011.0,0.0,0.0,
2025-08-15T00:43:01.857Z,17,GR86-013-80,103.8,0.184,1.214,40.43,2.0,,0.0,0.0,85.06
2025-08-15T00:43:01.900Z,17,GR86-013-80,99.0,0.191,1.195,40.12,2.0,,0.0,0.0,
2025-08-15T00:43:01.943Z,17,GR86-013-80,94.5,0.178,1.186,39.76,2.0,,0.0,0.0,
2025-08-15T00:43:01.987Z,17,GR86-013-80,92.5,0.184,1.159,38.99,2.0,,0.0,0.0,
2025-08-15T00:43:02.031Z,17,GR86-013-80,92.5,0.173,1.121,38.15,2.0,5042.0,0.0,0.0,
2025-08-15T00:43:02.074Z,17,GR86-013-80,92.5,0.174,1.169,38.11,2.0,,0.0,0.0,86.12
2025-08-15T00:43:02.117Z,17,GR86-013-80,92.5,0.115,1.139,38.11,2.0,,0.0,0.0,
2025-08-15T00:43:02.160Z,17,GR86-013-80,92.5,0.147,1.179,38.1,2.0,,0.0,0.0,
2025-08-15T00:43:02.203Z,17,GR86-013-80,92.8,0.162,1.162,38.08,2.0,,0.0,0.0,
2025-08-15T00:43:02.247Z,17,GR86-013-80,95.6,0.224,1.156,38.08,2.0,5112.0,0.0,0.0,
2025-08-15T00:43:02.291Z,17,GR86-013-80,100.2,0.227,1.16,38.14,2.0,,0.0,0.0,87.09
2025-08-15T00:43:02.334Z,17,GR86-013-80,101.0,0.195,1.28,38.89,2.0,,0.0,0.0,
2025-08-15T00:43:02.377Z,17,GR86-013-80,100.7,0.147,1.276,39.66,2.0,,0.0,0.0,
2025-08-15T00:43:02.420Z,17,GR86-013-80,98.5,0.167,1.264,43.93,2.0,,0.0,0.0,
2025-08-15T00:43:02.464Z,17,GR86-013-80,96.9,0.168,1.266,51.88,2.0,5217.0,0.0,0.0,
2025-08-15T00:43:02.507Z,17,GR86-013-80,95.3,0.217,1.105,58.44,2.0,,0.0,0.0,88.17
2025-08-15T00:43:02.551Z,17,GR86-013-80,87.5,0.188,1.22,81.60000000000001,2.0,,0.0,0.0,
2025-08-15T00:43:02.637Z,17,GR86-013-80,68.60000000000001,0.207,0.871,99.35,2.0,,0.0,0.0,
2025-08-15T00:43:02.724Z,17,GR86-013-80,56.2,0.288,0.726,99.71,2.0,5277.0,0.0,0.0,89.10000000000001
2025-08-15T00:43:02.767Z,17,GR86-013-80,51.5,0.299,0.558,99.7,2.0,,0.0,0.0,
2025-08-15T00:43:02.810Z,17,GR86-013-80,34.800000000000004,0.299,0.966,99.71,2.0,,0.0,0.0,
2025-08-15T00:43:02.854Z,17,GR86-013-80,24.8,0.184,0.513,99.72,2.0,,0.0,0.0,
2025-08-15T00:43:02.897Z,17,GR86-013-80,16.0,0.245,0.459,99.7,2.0,5387.0,0.0,0.0,
2025-08-15T00:43:02.940Z,17,GR86-013-80,10.4,0.002,0.345,99.22,2.0,,0.0,0.0,91.42
2025-08-15T00:43:02.983Z,17,GR86-013-80,5.1000000000000005,0.2,0.963,73.54,2.0,,0.0,0.0,
2025-08-15T00:43:03.071Z,17,GR86-013-80,-1.1,0.268,0.88,99.62,2.0,,0.0,0.0,
2025-08-15T00:43:03.114Z,17,GR86-013-80,-0.3,0.475,1.25,99.72,2.0,5635.0,0.0,0.0,
2025-08-15T00:43:03.201Z,17,GR86-013-80,2.9000000000000004,0.449,1.119,99.74,2.0,,0.0,0.0,92.23
2025-08-15T00:43:03.244Z,17,GR86-013-80,1.9,-0.078,0.971,99.73,2.0,,0.0,0.0,
2025-08-15T00:43:03.287Z,17,GR86-013-80,0.7000000000000001,0.125,0.784,99.72,2.0,,0.0,0.0,
2025-08-15T00:43:03.331Z,17,GR86-013-80,13.6,0.341,0.838,99.74,2.0,6182.0,0.0,0.0,
2025-08-15T00:43:03.374Z,17,GR86-013-80,23.8,0.446,0.737,99.75,2.0,,0.0,0.0,94.07
2025-08-15T00:43:03.417Z,17,GR86-013-80,28.4,0.269,0.513,99.73,2.0,,0.0,0.0,
2025-08-15T00:43:03.503Z,17,GR86-013-80,28.6,0.339,0.629,99.74,2.0,,0.0,0.0,
2025-08-15T00:43:03.547Z,17,GR86-013-80,26.9,0.401,0.613,99.74,2.0,5486.0,0.0,0.0,
2025-08-15T00:43:03.591Z,17,GR86-013-80,24.200000000000003,0.358,0.23,99.72,2.0,,0.0,0.0,95.27
2025-08-15T00:43:03.634Z,17,GR86-013-80,24.700000000000003,0.305,0.33,99.75,2.0,,0.0,0.0,
2025-08-15T00:43:03.677Z,17,GR86-013-80,23.200000000000003,0.545,0.374,99.74,2.0,,0.0,0.0,
2025-08-15T00:43:03.721Z,17,GR86-013-80,21.0,0.362,0.431,99.72,2.0,,0.0,0.0,
2025-08-15T00:43:03.764Z,17,GR86-013-80,14.1,0.216,0.268,99.73,2.0,5814.0,0.0,0.0,
2025-08-15T00:43:03.807Z,17,GR86-013-80,8.700000000000001,-0.101,0.26,99.72,2.0,,0.0,0.0,97.28
2025-08-15T00:43:03.851Z,17,GR86-013-80,4.800000000000001,0.72,0.243,99.72,2.0,,0.0,0.0,
2025-08-15T00:43:03.894Z,17,GR86-013-80,4.2,0.615,0.213,99.72,2.0,,0.0,0.0,
2025-08-15T00:43:03.937Z,17,GR86-013-80,4.4,0.057,0.06,99.74,2.0,,0.0,0.0,
2025-08-15T00:43:03.980Z,17,GR86-013-80,4.2,0.011,0.273,99.72,2.0,5904.0,0.0,0.0,
2025-08-15T00:43:04.023Z,17,GR86-013-80,3.9,0.306,0.25,99.72,2.0,,0.0,0.0,98.88
2025-08-15T00:43:04.067Z,17,GR86-013-80,3.2,0.44,0.187,99.75,2.0,,0.0,0.0,
2025-08-15T00:43:04.110Z,17,GR86-013-80,3.6,0.7030000000000001,0.295,99.74,2.0,,0.0,0.0,
2025-08-15T00:43:04.197Z,17,GR86-013-80,3.4000000000000004,0.105,0.068,99.72,2.0,5992.0,0.0,0.0,
2025-08-15T00:43:04.284Z,17,GR86-013-80,2.1,-0.054,0.064,99.72,2.0,,0.0,0.0,100.93
2025-08-15T00:43:04.370Z,17,GR86-013-80,-0.7000000000000001,0.535,-0.066,99.75,2.0,,0.0,0.0,
2025-08-15T00:43:04.457Z,17,GR86-013-80,-1.4,0.518,-0.094,99.74,2.0,6177.0,0.0,0.0,102.55
2025-08-15T00:43:04.500Z,17,GR86-013-80,-1.7000000000000002,0.217,-0.032,99.74,2.0,,0.0,0.0,
2025-08-15T00:43:04.631Z,17,GR86-013-80,-1.8,0.076,-0.042,99.72,2.0,6049.0,0.0,0.0,
2025-08-15T00:43:04.674Z,17,GR86-013-80,-2.0,0.444,-0.202,99.72,2.0,,0.0,0.0,104.44
2025-08-15T00:43:04.717Z,17,GR86-013-80,-2.0,0.445,-0.212,99.72,2.0,,0.0,0.0,
2025-08-15T00:43:04.803Z,17,GR86-013-80,-1.7000000000000002,0.448,-0.231,99.75,2.0,,0.0,0.0,
2025-08-15T00:43:04.847Z,17,GR86-013-80,-0.5,0.361,-0.18,99.73,2.0,6303.0,0.0,0.0,
2025-08-15T00:43:04.891Z,17,GR86-013-80,0.4,0.322,-0.101,99.72,2.0,,0.0,0.0,106.24
2025-08-15T00:43:04.934Z,17,GR86-013-80,0.7000000000000001,0.3,-0.091,99.75,2.0,,0.0,0.0,
2025-08-15T00:43:04.977Z,17,GR86-013-80,0.7000000000000001,0.312,-0.097,99.73,2.0,,0.0,0.0,
2025-08-15T00:43:05.021Z,17,GR86-013-80,0.6000000000000001,0.306,-0.129,99.73,2.0,,0.0,0.0,
2025-08-15T00:43:05.064Z,17,GR86-013-80,0.2,0.316,-0.086,99.71,2.0,6287.0,0.0,0.0,
2025-08-15T00:43:05.107Z,17,GR86-013-80,-0.6000000000000001,0.348,-0.14,99.75,2.0,,0.0,0.0,108.04
2025-08-15T00:43:05.151Z,17,GR86-013-80,-1.8,0.277,-0.089,99.74,2.0,,0.0,0.0,
2025-08-15T00:43:05.194Z,17,GR86-013-80,-2.7,0.229,-0.146,99.73,2.0,,0.0,0.0,
2025-08-15T00:43:05.237Z,17,GR86-013-80,-2.8000000000000003,0.25,-0.12,99.76,2.0,,0.0,0.0,
2025-08-15T00:43:05.280Z,17,GR86-013-80,-2.7,0.24,-0.12,99.74,2.0,6415.0,0.0,0.0,
2025-08-15T00:43:05.366Z,17,GR86-013-80,-1.7000000000000002,0.275,-0.13,99.73,2.0,,0.0,0.0,109.72
2025-08-15T00:43:05.410Z,17,GR86-013-80,-0.4,0.275,-0.143,99.76,2.0,,0.0,0.0,
2025-08-15T00:43:05.454Z,17,GR86-013-80,-0.4,0.26,-0.121,99.75,2.0,,0.0,0.0,
2025-08-15T00:43:05.497Z,17,GR86-013-80,-0.3,0.278,-0.131,99.75,2.0,6460.0,0.0,0.0,
2025-08-15T00:43:05.540Z,17,GR86-013-80,-0.3,0.281,-0.078,99.75,2.0,,0.0,0.0,112.89
2025-08-15T00:43:05.583Z,17,GR86-013-80,-0.3,0.286,-0.068,99.75,2.0,,0.0,0.0,
2025-08-15T00:43:05.627Z,17,GR86-013-80,-0.2,0.312,-0.066,99.74,2.0,,0.0,0.0,
2025-08-15T00:43:05.670Z,17,GR86-013-80,-0.2,0.289,-0.063,99.76,2.0,,0.0,0.0,
2025-08-15T00:43:05.714Z,17,GR86-013-80,-0.2,0.265,-0.043,99.75,2.0,6540.0,0.0,0.0,
2025-08-15T00:43:05.757Z,17,GR86-013-80,-0.1,0.269,-0.039,99.75,2.0,,0.0,0.0,114.47
2025-08-15T00:43:05.800Z,17,GR86-013-80,-0.1,0.274,-0.047,99.74,2.0,,0.0,0.0,
2025-08-15T00:43:05.843Z,17,GR86-013-80,-0.1,0.278,-0.038,99.75,2.0,,0.0,0.0,
2025-08-15T00:43:05.887Z,17,GR86-013-80,-0.1,0.297,-0.028,99.75,2.0,,0.0,0.0,
2025-08-15T00:43:05.931Z,17,GR86-013-80,-0.1,0.295,-0.04,99.74,2.0,6707.0,0.0,0.0,
2025-08-15T00:43:06.017Z,17,GR86-013-80,-0.1,0.283,-0.043,99.75,2.0,,0.0,0.0,116.04
2025-08-15T00:43:06.060Z,17,GR86-013-80,-0.1,0.296,-0.031,99.74,2.0,,0.0,0.0,
2025-08-15T00:43:06.103Z,17,GR86-013-80,0.1,0.281,-0.01,99.75,2.0,,0.0,0.0,
2025-08-15T00:43:06.147Z,17,GR86-013-80,0.3,0.272,-0.012,99.74,2.0,6792.0,0.0,0.0,
2025-08-15T00:43:06.191Z,17,GR86-013-80,0.8,0.28,-0.018,99.75,2.0,,0.0,0.0,117.54
2025-08-15T00:43:06.234Z,17,GR86-013-80,1.0,0.294,-0.021,99.75,2.0,,0.0,0.0,
2025-08-15T00:43:06.321Z,17,GR86-013-80,1.2000000000000002,0.286,0.004,99.74,2.0,,0.0,0.0,
2025-08-15T00:43:06.364Z,17,GR86-013-80,1.2000000000000002,0.294,0.011,99.75,2.0,6867.0,0.0,0.0,
2025-08-15T00:43:06.407Z,17,GR86-013-80,1.2000000000000002,0.262,0.017,99.76,2.0,,0.0,0.0,118.94
2025-08-15T00:43:06.451Z,17,GR86-013-80,1.2000000000000002,0.266,0.022,99.77,2.0,,0.0,0.0,
2025-08-15T00:43:06.494Z,17,GR86-013-80,1.3,0.285,0.018,99.75,2.0,,0.0,0.0,
2025-08-15T00:43:06.537Z,17,GR86-013-80,1.3,0.297,0.012,99.73,2.0,,0.0,0.0,
2025-08-15T00:43:06.581Z,17,GR86-013-80,1.4,0.271,0.019,99.75,2.0,6945.0,0.0,0.0,
2025-08-15T00:43:06.624Z,17,GR86-013-80,1.4,0.276,0.016,99.75,2.0,,0.0,0.0,120.23
2025-08-15T00:43:06.667Z,17,GR86-013-80,1.4,0.274,0.003,99.74,2.0,,0.0,0.0,
2025-08-15T00:43:06.710Z,17,GR86-013-80,1.4,0.286,0.015,99.74,2.0,,0.0,0.0,
2025-08-15T00:43:06.754Z,17,GR86-013-80,1.4,0.263,0.01,99.76,2.0,,0.0,0.0,
2025-08-15T00:43:06.841Z,17,GR86-013-80,1.4,0.28,-0.004,99.74,2.0,7023.0,0.0,0.0,121.44
2025-08-15T00:43:06.885Z,17,GR86-013-80,1.4,0.257,0.017,99.74,2.0,,0.0,0.0,
2025-08-15T00:43:06.928Z,17,GR86-013-80,1.4,0.27,0.005,99.76,2.0,,0.0,0.0,
2025-08-15T00:43:06.971Z,17,GR86-013-80,1.4,0.266,0.012,99.76,2.0,,0.0,0.0,
2025-08-15T00:43:07.014Z,17,GR86-013-80,1.4,0.277,-0.011,99.76,2.0,7082.0,0.0,0.0,
2025-08-15T00:43:07.057Z,17,GR86-013-80,1.4,0.259,0.001,99.76,2.0,,0.0,0.0,122.68
2025-08-15T00:43:07.101Z,17,GR86-013-80,1.4,0.266,0.004,99.74,2.0,,0.0,0.0,
2025-08-15T00:43:07.144Z,17,GR86-013-80,1.4,0.276,-0.013,99.76,2.0,,0.0,0.0,
2025-08-15T00:43:07.187Z,17,GR86-013-80,1.4,0.266,0.006,99.75,2.0,,0.0,0.0,
2025-08-15T00:43:07.231Z,17,GR86-013-80,1.4,0.259,0.002,99.75,2.0,7163.0,0.0,0.0,
2025-08-15T00:43:07.274Z,17,GR86-013-80,1.3,0.247,-0.002,99.75,2.0,,0.0,0.0,123.87
2025-08-15T00:43:07.317Z,17,GR86-013-80,1.0,0.277,-0.017,99.74,2.0,,0.0,0.0,
2025-08-15T00:43:07.360Z,17,GR86-013-80,0.8,0.26,-0.018,99.75,2.0,,0.0,0.0,
2025-08-15T00:43:07.403Z,17,GR86-013-80,0.7000000000000001,0.251,-0.014,99.74,2.0,,0.0,0.0,
2025-08-15T00:43:07.447Z,17,GR86-013-80,0.6000000000000001,0.268,-0.012,99.74,2.0,7221.0,0.0,0.0,
2025-08-15T00:43:07.491Z,17,GR86-013-80,0.3,0.252,-0.02,99.76,2.0,,0.0,0.0,125.07
2025-08-15T00:43:07.534Z,17,GR86-013-80,0.2,0.252,-0.028,99.75,2.0,,0.0,0.0,
2025-08-15T00:43:07.577Z,17,GR86-013-80,0.2,0.228,-0.033,99.75,2.0,,0.0,0.0,
2025-08-15T00:43:07.621Z,17,GR86-013-80,0.0,0.222,-0.021,99.75,2.0,,0.0,0.0,
2025-08-15T00:43:07.664Z,17,GR86-013-80,-0.1,0.204,-0.033,99.75,2.0,7276.0,0.0,0.0,
2025-08-15T00:43:07.707Z,17,GR86-013-80,-0.1,0.192,-0.04,99.77,2.0,,0.0,0.0,126.15
2025-08-15T00:43:07.751Z,17,GR86-013-80,-0.1,0.152,-0.047,99.74,2.0,,0.0,0.0,
2025-08-15T00:43:07.794Z,17,GR86-013-80,0.1,0.137,-0.042,99.75,2.0,,0.0,0.0,
2025-08-15T00:43:07.837Z,17,GR86-013-80,0.1,0.14,-0.057,99.75,2.0,,0.0,0.0,
2025-08-15T00:43:07.880Z,17,GR86-013-80,0.1,0.122,-0.048,99.76,2.0,7290.0,0.0,0.0,
2025-08-15T00:43:07.923Z,17,GR86-013-80,0.2,0.132,-0.057,99.76,2.0,,0.0,0.0,127.26
2025-08-15T00:43:07.966Z,17,GR86-013-80,0.6000000000000001,0.109,-0.055,99.76,2.0,,0.0,0.0,
2025-08-15T00:43:08.009Z,17,GR86-013-80,2.0,0.121,-0.034,99.75,2.0,,0.0,0.0,
2025-08-15T00:43:08.053Z,17,GR86-013-80,2.9000000000000004,0.123,-0.032,99.75,2.0,,0.0,0.0,
2025-08-15T00:43:08.096Z,17,GR86-013-80,3.6,0.117,-0.003,99.75,2.0,7286.0,0.0,0.0,
2025-08-15T00:43:08.139Z,17,GR86-013-80,3.9,0.118,0.024,99.74,2.0,,0.0,0.0,128.13
2025-08-15T00:43:08.184Z,17,GR86-013-80,4.1000000000000005,0.11,0.028,99.74,2.0,,0.0,0.0,
2025-08-15T00:43:08.227Z,17,GR86-013-80,4.0,0.077,0.043,99.74,2.0,,0.0,0.0,
2025-08-15T00:43:08.270Z,17,GR86-013-80,4.0,0.086,0.05,99.75,2.0,,0.0,0.0,
2025-08-15T00:43:08.314Z,17,GR86-013-80,4.0,0.058,0.079,99.75,2.0,7306.0,0.0,0.0,
2025-08-15T00:43:08.357Z,17,GR86-013-80,4.1000000000000005,0.051,0.096,97.34,2.0,,0.0,0.0,128.26
2025-08-15T00:43:08.400Z,17,GR86-013-80,4.800000000000001,0.076,0.079,50.24,2.0,,0.0,0.0,
2025-08-15T00:43:08.443Z,17,GR86-013-80,6.1000000000000005,0.074,0.097,36.85,2.0,,1.86,1.985,
2025-08-15T00:43:08.486Z,17,GR86-013-80,7.5,0.013,0.119,29.34,2.0,,5.4350000000000005,5.25,
2025-08-15T00:43:08.531Z,17,GR86-013-80,9.0,-0.055,0.15,4.58,2.0,7327.0,11.735,11.645,
2025-08-15T00:43:08.574Z,17,GR86-013-80,9.2,-0.19,0.162,4.5600000000000005,2.0,,17.305,17.215,128.22
2025-08-15T00:43:08.617Z,17,GR86-013-80,9.3,-0.384,0.203,4.41,2.0,,22.735,22.615,
2025-08-15T00:43:08.703Z,17,GR86-013-80,9.3,-0.429,0.196,4.11,2.0,,26.46,26.23,
2025-08-15T00:43:08.747Z,17,GR86-013-80,9.4,-0.645,0.209,3.59,2.0,6786.0,31.27,31.27,
2025-08-15T00:43:08.791Z,17,GR86-013-80,9.2,-0.581,0.204,3.23,2.0,,33.25,33.22,126.66
2025-08-15T00:43:08.834Z,17,GR86-013-80,9.2,-0.659,0.268,2.97,2.0,,34.81,34.425000000000004,
2025-08-15T00:43:08.877Z,17,GR86-013-80,9.9,-0.7030000000000001,0.289,2.72,2.0,,36.09,35.955,
2025-08-15T00:43:08.921Z,17,GR86-013-80,10.9,-0.6900000000000001,0.322,2.6,2.0,,36.55,36.67,
2025-08-15T00:43:08.964Z,17,GR86-013-80,9.4,-0.74,0.389,2.54,2.0,6536.0,36.395,36.425,
2025-08-15T00:43:09.007Z,17,GR86-013-80,4.0,-0.715,0.355,2.5,2.0,,36.12,36.425,121.99
2025-08-15T00:43:09.051Z,17,GR86-013-80,-0.7000000000000001,-0.762,0.317,2.47,2.0,,35.86,36.335,
2025-08-15T00:43:09.094Z,17,GR86-013-80,0.1,-0.8130000000000001,0.305,2.44,2.0,,35.74,36.09,
2025-08-15T00:43:09.137Z,17,GR86-013-80,5.6000000000000005,-0.848,0.337,2.44,2.0,,35.71,36.21,
2025-08-15T00:43:09.181Z,17,GR86-013-80,10.7,-0.784,0.366,2.44,2.0,6181.0,35.71,36.03,
2025-08-15T00:43:09.224Z,17,GR86-013-80,12.3,-0.77,0.402,2.45,2.0,,35.375,35.92,116.72
2025-08-15T00:43:09.267Z,17,GR86-013-80,11.9,-0.726,0.375,2.45,2.0,,35.175000000000004,35.77,
2025-08-15T00:43:09.310Z,17,GR86-013-80,11.7,-0.731,0.318,2.45,2.0,,34.335,35.115,
2025-08-15T00:43:09.354Z,17,GR86-013-80,13.2,-0.759,0.318,2.44,2.0,,32.99,34.06,
2025-08-15T00:43:09.397Z,17,GR86-013-80,14.9,-0.741,0.309,2.46,2.0,6051.0,31.025,32.38,
2025-08-15T00:43:09.440Z,17,GR86-013-80,15.8,-0.705,0.362,2.48,2.0,,28.065,29.27,111.35
2025-08-15T00:43:09.483Z,17,GR86-013-80,16.7,-0.674,0.35,2.47,2.0,,24.89,26.26,
2025-08-15T00:43:09.527Z,17,GR86-013-80,17.7,-0.632,0.386,2.47,2.0,,22.22,23.3,
2025-08-15T00:43:09.570Z,17,GR86-013-80,19.5,-0.578,0.417,2.47,2.0,,17.81,18.86,
2025-08-15T00:43:09.614Z,17,GR86-013-80,20.6,-0.498,0.418,2.47,2.0,5772.0,14.755,15.78,
2025-08-15T00:43:09.657Z,17,GR86-013-80,22.8,-0.438,0.45,2.47,2.0,,12.115,12.925,105.71
2025-08-15T00:43:09.700Z,17,GR86-013-80,27.700000000000003,-0.405,0.481,2.48,2.0,,10.895,11.615,
2025-08-15T00:43:09.743Z,17,GR86-013-80,33.9,-0.376,0.54,2.47,2.0,,10.315,10.835,
2025-08-15T00:43:09.787Z,17,GR86-013-80,39.7,-0.388,0.611,2.47,2.0,,9.125,9.72,
2025-08-15T00:43:09.831Z,17,GR86-013-80,47.3,-0.24,0.722,2.47,2.0,5616.0,2.76,3.25,
2025-08-15T00:43:09.874Z,17,GR86-013-80,51.7,-0.171,0.782,2.47,2.0,,0.0,0.0,101.38
2025-08-15T00:43:09.917Z,17,GR86-013-80,55.7,-0.177,0.859,2.47,2.0,,0.0,0.0,
2025-08-15T00:43:09.960Z,17,GR86-013-80,59.0,-0.166,0.88,2.47,2.0,,0.0,0.0,
2025-08-15T00:43:10.003Z,17,GR86-013-80,61.900000000000006,-0.153,0.938,2.47,2.0,,0.0,0.0,
2025-08-15T00:43:10.047Z,17,GR86-013-80,64.3,-0.15,0.976,2.47,2.0,5484.0,0.0,0.0,
2025-08-15T00:43:10.091Z,17,GR86-013-80,67.4,-0.147,1.018,2.47,2.0,,0.0,0.0,98.58
2025-08-15T00:43:10.134Z,17,GR86-013-80,68.8,-0.16,1.068,3.69,2.0,,0.0,0.0,
2025-08-15T00:43:10.177Z,17,GR86-013-80,69.2,-0.176,1.119,7.41,2.0,,0.0,0.0,
2025-08-15T00:43:10.220Z,17,GR86-013-80,69.2,-0.174,1.158,8.92,2.0,,0.0,0.0,
2025-08-15T00:43:10.263Z,17,GR86-013-80,69.2,-0.166,1.148,9.04,2.0,5430.0,0.0,0.0,
2025-08-15T00:43:10.307Z,17,GR86-013-80,68.9,-0.162,1.211,9.5,2.0,,0.0,0.0,98.24
2025-08-15T00:43:10.351Z,17,GR86-013-80,68.60000000000001,-0.119,1.197,9.14,2.0,,0.0,0.0,
2025-08-15T00:43:10.394Z,17,GR86-013-80,68.60000000000001,-0.105,1.214,8.28,2.0,,0.0,0.0,
2025-08-15T00:43:10.438Z,17,GR86-013-80,68.5,-0.108,1.199,8.21,2.0,,0.0,0.0,
2025-08-15T00:43:10.481Z,17,GR86-013-80,68.5,-0.126,1.198,8.21,2.0,5339.0,0.0,0.0,
2025-08-15T00:43:10.524Z,17,GR86-013-80,68.60000000000001,-0.124,1.239,8.18,2.0,,0.0,0.0,97.22
2025-08-15T00:43:10.567Z,17,GR86-013-80,69.5,-0.128,1.265,8.19,2.0,,0.0,0.0,
2025-08-15T00:43:10.610Z,17,GR86-013-80,72.60000000000001,-0.127,1.295,8.21,2.0,,0.0,0.0,
2025-08-15T00:43:10.654Z,17,GR86-013-80,77.0,-0.134,1.22,9.71,2.0,,0.0,0.0,
2025-08-15T00:43:10.697Z,17,GR86-013-80,81.7,-0.133,1.258,19.87,2.0,5278.0,0.0,0.0,
2025-08-15T00:43:10.740Z,17,GR86-013-80,83.60000000000001,-0.141,1.246,21.62,2.0,,0.0,0.0,94.52
2025-08-15T00:43:10.783Z,17,GR86-013-80,83.7,-0.149,1.249,24.17,2.0,,0.0,0.0,
2025-08-15T00:43:10.826Z,17,GR86-013-80,82.80000000000001,-0.125,1.256,29.36,2.0,,0.0,0.0,
2025-08-15T00:43:10.871Z,17,GR86-013-80,81.80000000000001,-0.1,1.225,37.23,2.0,,0.0,0.0,
2025-08-15T00:43:10.914Z,17,GR86-013-80,81.80000000000001,0.065,1.225,37.92,2.0,5205.0,0.0,0.0,
2025-08-15T00:43:10.957Z,17,GR86-013-80,81.30000000000001,0.189,1.181,37.95,2.0,,0.0,0.0,93.03
2025-08-15T00:43:11.001Z,17,GR86-013-80,78.80000000000001,0.206,1.19,40.08,2.0,,0.0,0.0,
2025-08-15T00:43:11.044Z,17,GR86-013-80,73.10000000000001,0.223,1.272,45.45,2.0,,0.0,0.0,
2025-08-15T00:43:11.087Z,17,GR86-013-80,65.5,0.245,1.195,46.93,2.0,,0.0,0.0,
2025-08-15T00:43:11.131Z,17,GR86-013-80,56.900000000000006,0.21,1.326,46.36,2.0,5518.0,0.0,0.0,
2025-08-15T00:43:11.174Z,17,GR86-013-80,56.1,0.213,1.253,45.09,2.0,,0.0,0.0,92.21
2025-08-15T00:43:11.217Z,17,GR86-013-80,59.1,0.199,1.233,44.93,2.0,,0.0,0.0,
2025-08-15T00:43:11.260Z,17,GR86-013-80,64.0,0.237,1.202,45.01,2.0,,0.0,0.0,
2025-08-15T00:43:11.303Z,17,GR86-013-80,66.8,0.19,1.215,45.28,2.0,,0.0,0.0,
2025-08-15T00:43:11.346Z,17,GR86-013-80,66.8,0.232,1.157,53.04,2.0,5544.0,0.0,0.0,
2025-08-15T00:43:11.389Z,17,GR86-013-80,61.7,0.229,1.181,95.96,2.0,,0.0,0.0,92.72
2025-08-15T00:43:11.434Z,17,GR86-013-80,60.0,0.207,1.194,99.55,2.0,,0.0,0.0,
2025-08-15T00:43:11.477Z,17,GR86-013-80,58.900000000000006,0.208,1.244,99.74,2.0,,0.0,0.0,
2025-08-15T00:43:11.521Z,17,GR86-013-80,57.3,0.237,1.239,99.75,2.0,,0.0,0.0,
2025-08-15T00:43:11.564Z,17,GR86-013-80,54.1,0.288,1.145,99.74,2.0,5647.0,0.0,0.0,
2025-08-15T00:43:11.607Z,17,GR86-013-80,49.900000000000006,0.304,1.14,99.73,2.0,,0.0,0.0,93.35
2025-08-15T00:43:11.651Z,17,GR86-013-80,42.400000000000006,0.257,1.119,99.75,2.0,,0.0,0.0,
2025-08-15T00:43:11.694Z,17,GR86-013-80,37.2,0.228,1.22,99.75,2.0,,0.0,0.0,
2025-08-15T00:43:11.737Z,17,GR86-013-80,33.300000000000004,0.265,1.231,99.75,2.0,,0.0,0.0,
2025-08-15T00:43:11.780Z,17,GR86-013-80,30.5,0.28,1.259,99.76,2.0,5735.0,0.0,0.0,
2025-08-15T00:43:11.823Z,17,GR86-013-80,25.700000000000003,0.271,1.213,99.76,2.0,,0.0,0.0,94.72
2025-08-15T00:43:11.866Z,17,GR86-013-80,14.8,0.282,1.162,99.74,2.0,,0.0,0.0,
2025-08-15T00:43:11.909Z,17,GR86-013-80,-6.1000000000000005,0.293,1.056,81.41,2.0,,0.0,0.0,
2025-08-15T00:43:11.953Z,17,GR86-013-80,-17.0,0.29,1.045,36.22,2.0,,0.0,0.0,
2025-08-15T00:43:11.996Z,17,GR86-013-80,-20.6,0.299,1.021,38.86,2.0,5852.0,0.0,0.0,
2025-08-15T00:43:12.039Z,17,GR86-013-80,-21.5,0.315,1.014,38.82,2.0,,0.0,0.0,96.38
2025-08-15T00:43:12.084Z,17,GR86-013-80,-21.6,0.282,0.972,39.83,2.0,,0.0,0.0,
2025-08-15T00:43:12.127Z,17,GR86-013-80,-20.700000000000003,0.265,0.966,54.93,2.0,,0.0,0.0,
2025-08-15T00:43:12.170Z,17,GR86-013-80,-6.7,0.247,1.021,85.08,2.0,,0.0,0.0,
2025-08-15T00:43:12.214Z,17,GR86-013-80,10.7,0.268,1.057,97.76,2.0,5863.0,0.0,0.0,
2025-08-15T00:43:12.257Z,17,GR86-013-80,17.3,0.283,1.089,99.8,2.0,,0.0,0.0,97.64
2025-08-15T00:43:12.301Z,17,GR86-013-80,17.0,0.248,1.049,99.75,2.0,,0.0,0.0,
2025-08-15T00:43:12.344Z,17,GR86-013-80,8.700000000000001,0.228,1.0,99.74,2.0,,0.0,0.0,
2025-08-15T00:43:12.387Z,17,GR86-013-80,1.5,0.28,0.953,99.73,2.0,,0.0,0.0,
2025-08-15T00:43:12.431Z,17,GR86-013-80,7.7,0.366,0.89,99.77,2.0,5953.0,0.0,0.0,
2025-08-15T00:43:12.474Z,17,GR86-013-80,21.0,0.374,0.947,99.78,2.0,,0.0,0.0,97.77
2025-08-15T00:43:12.517Z,17,GR86-013-80,37.8,0.348,1.006,99.78,2.0,,0.0,0.0,
2025-08-15T00:43:12.560Z,17,GR86-013-80,45.8,0.339,1.009,99.77,2.0,,0.0,0.0,
2025-08-15T00:43:12.603Z,17,GR86-013-80,52.2,0.284,1.069,99.76,2.0,,0.0,0.0,
2025-08-15T00:43:12.646Z,17,GR86-013-80,53.2,0.248,1.034,99.75,2.0,6008.0,0.0,0.0,
2025-08-15T00:43:12.691Z,17,GR86-013-80,53.2,0.259,1.008,99.75,2.0,,0.0,0.0,98.9
2025-08-15T00:43:12.734Z,17,GR86-013-80,53.2,0.286,0.988,99.75,2.0,,0.0,0.0,
2025-08-15T00:43:12.777Z,17,GR86-013-80,53.1,0.266,0.951,99.75,2.0,,0.0,0.0,
2025-08-15T00:43:12.821Z,17,GR86-013-80,51.7,0.259,0.961,99.75,2.0,,0.0,0.0,
2025-08-15T00:43:12.865Z,17,GR86-013-80,50.8,0.229,0.796,99.75,2.0,5974.0,0.0,0.0,
2025-08-15T00:43:12.908Z,17,GR86-013-80,48.5,0.225,0.866,99.75,2.0,,0.0,0.0,100.89
2025-08-15T00:43:12.951Z,17,GR86-013-80,41.900000000000006,0.313,0.787,99.75,2.0,,0.0,0.0,
2025-08-15T00:43:12.994Z,17,GR86-013-80,36.0,0.283,0.54,99.75,2.0,,0.0,0.0,
2025-08-15T00:43:13.037Z,17,GR86-013-80,34.300000000000004,0.239,0.477,99.75,2.0,,0.0,0.0,
2025-08-15T00:43:13.081Z,17,GR86-013-80,32.6,0.151,0.739,99.73,2.0,6088.0,0.0,0.0,
2025-08-15T00:43:13.124Z,17,GR86-013-80,33.300000000000004,0.178,0.784,99.77,2.0,,0.0,0.0,103.87
2025-08-15T00:43:13.167Z,17,GR86-013-80,34.1,0.184,0.895,99.78,2.0,,0.0,0.0,
2025-08-15T00:43:13.254Z,17,GR86-013-80,35.800000000000004,0.275,1.025,99.76,2.0,,0.0,0.0,
2025-08-15T00:43:13.297Z,17,GR86-013-80,34.800000000000004,0.297,0.904,99.74,2.0,6188.0,0.0,0.0,
2025-08-15T00:43:13.341Z,17,GR86-013-80,33.2,0.284,0.928,99.77,2.0,,0.0,0.0,107.53
2025-08-15T00:43:13.384Z,17,GR86-013-80,31.6,0.224,0.664,99.73,2.0,,0.0,0.0,
2025-08-15T00:43:13.427Z,17,GR86-013-80,31.4,0.272,0.7010000000000001,99.75,2.0,,0.0,0.0,
2025-08-15T00:43:13.470Z,17,GR86-013-80,33.0,0.111,0.582,99.79,2.0,,0.0,0.0,
2025-08-15T00:43:13.514Z,17,GR86-013-80,34.7,0.049,0.51,99.78,2.0,6306.0,0.0,0.0,
2025-08-15T00:43:13.557Z,17,GR86-013-80,35.800000000000004,0.098,0.5670000000000001,99.76,2.0,,0.0,0.0,108.49
2025-08-15T00:43:13.600Z,17,GR86-013-80,36.1,0.213,0.724,99.76,2.0,,0.0,0.0,
2025-08-15T00:43:13.643Z,17,GR86-013-80,35.7,0.211,0.634,99.77,2.0,,0.0,0.0,
2025-08-15T00:43:13.687Z,17,GR86-013-80,33.0,0.308,0.779,99.76,2.0,,0.0,0.0,
2025-08-15T00:43:13.731Z,17,GR86-013-80,26.8,0.227,0.608,99.79,2.0,6515.0,0.0,0.0,
2025-08-15T00:43:13.774Z,17,GR86-013-80,22.5,0.139,0.8210000000000001,99.77,2.0,,0.0,0.0,110.47
2025-08-15T00:43:13.817Z,17,GR86-013-80,20.0,0.176,0.748,99.77,2.0,,0.0,0.0,
2025-08-15T00:43:13.861Z,17,GR86-013-80,18.5,0.186,0.712,99.76,2.0,,0.0,0.0,
