timestamp,lap,vehicle_id,steering_angle,accx_can,accy_can,ath,gear,nmot,pbrake_f,pbrake_r,speed
2025-08-15T00:20:23.858Z,1,GR86-015-31,-1.9,0.359,-0.022,100.23,1.0,,0.0,0.0,
2025-08-15T00:20:23.901Z,1,GR86-015-31,-1.8,0.342,-0.005,100.24,1.0,,0.0,0.0,
2025-08-15T00:20:23.945Z,1,GR86-015-31,-1.8,0.371,-0.012,100.24,1.0,,0.0,0.0,
2025-08-15T00:20:23.989Z,1,GR86-015-31,-1.5,0.398,0.006,100.23,1.0,6094.0,0.0,0.0,
2025-08-15T00:20:24.031Z,1,GR86-015-31,-0.9,0.409,0.004,100.24,1.0,,0.0,0.0,82.61
2025-08-15T00:20:24.075Z,1,GR86-015-31,0.3,0.385,0.007,100.23,1.0,,0.0,0.0,
2025-08-15T00:20:24.118Z,1,GR86-015-31,0.9,0.372,0.02,100.21,1.0,,0.0,0.0,
2025-08-15T00:20:24.161Z,1,GR86-015-31,1.1,0.356,0.029,100.22,1.0,,0.0,0.0,
2025-08-15T00:20:24.205Z,1,GR86-015-31,1.1,0.365,0.03,100.22,1.0,6373.0,0.0,0.0,
2025-08-15T00:20:24.247Z,1,GR86-015-31,1.1,0.384,0.05,100.21,1.0,,0.0,0.0,84.56
2025-08-15T00:20:24.290Z,1,GR86-015-31,1.1,0.408,0.04,100.19,1.0,,0.0,0.0,
2025-08-15T00:20:24.334Z,1,GR86-015-31,1.2000000000000002,0.384,0.043,100.2,1.0,,0.0,0.0,
2025-08-15T00:20:24.376Z,1,GR86-015-31,1.2000000000000002,0.372,0.062,100.18,1.0,,0.0,0.0,
2025-08-15T00:20:24.419Z,1,GR86-015-31,1.2000000000000002,0.349,0.042,100.19,1.0,6507.0,0.0,0.0,
2025-08-15T00:20:24.462Z,1,GR86-015-31,1.2000000000000002,0.356,0.026,100.1,1.0,,0.0,0.0,86.53
2025-08-15T00:20:24.505Z,1,GR86-015-31,1.2000000000000002,0.358,0.026,53.78,1.0,,3.645,3.785,
2025-08-15T00:20:24.548Z,1,GR86-015-31,1.2000000000000002,0.299,0.024,27.64,1.0,,9.63,9.69,
2025-08-15T00:20:24.591Z,1,GR86-015-31,1.2000000000000002,0.167,0.012,3.35,1.0,,15.99,15.87,
2025-08-15T00:20:24.635Z,1,GR86-015-31,1.2000000000000002,-0.098,0.028,2.91,1.0,6657.0,23.24,23.455,
2025-08-15T00:20:24.678Z,1,GR86-015-31,1.2000000000000002,-0.381,0.019,2.95,1.0,,23.96,24.05,88.44
2025-08-15T00:20:24.721Z,1,GR86-015-31,1.2000000000000002,-0.419,0.035,8.09,1.0,,21.38,21.99,
2025-08-15T00:20:24.765Z,1,GR86-015-31,1.2000000000000002,-0.429,0.011,18.31,1.0,,13.58,14.115,
2025-08-15T00:20:24.807Z,1,GR86-015-31,1.2000000000000002,-0.526,0.022,26.31,1.0,,6.335,6.835,
2025-08-15T00:20:24.895Z,1,GR86-015-31,1.3,-0.035,0.015,32.03,1.0,6084.0,0.0,0.0,88.65
2025-08-15T00:20:24.938Z,1,GR86-015-31,1.3,-0.027,0.013,32.33,1.0,,0.0,0.0,
2025-08-15T00:20:24.981Z,1,GR86-015-31,1.3,0.417,0.048,32.410000000000004,1.0,,0.0,0.0,
2025-08-15T00:20:25.025Z,1,GR86-015-31,1.3,0.607,-0.001,32.28,1.0,,0.0,0.0,
2025-08-15T00:20:25.069Z,1,GR86-015-31,1.3,0.552,0.022,32.31,1.0,6802.0,0.0,0.0,
2025-08-15T00:20:25.112Z,1,GR86-015-31,1.3,0.269,0.023,32.47,1.0,,0.0,0.0,86.47
2025-08-15T00:20:25.155Z,1,GR86-015-31,1.3,0.005,0.022,32.75,1.0,,0.0,0.0,
2025-08-15T00:20:25.198Z,1,GR86-015-31,1.3,0.031,0.035,32.75,1.0,,0.0,0.0,
2025-08-15T00:20:25.241Z,1,GR86-015-31,1.4,0.181,0.06,32.76,1.0,,0.0,0.0,
2025-08-15T00:20:25.285Z,1,GR86-015-31,1.4,0.369,0.031,32.68,1.0,6341.0,0.0,0.0,
2025-08-15T00:20:25.328Z,1,GR86-015-31,1.4,0.396,0.045,32.56,1.0,,0.0,0.0,86.68
2025-08-15T00:20:25.371Z,1,GR86-015-31,1.4,0.319,0.016,32.03,1.0,,0.0,0.0,
2025-08-15T00:20:25.458Z,1,GR86-015-31,1.4,0.109,0.025,31.32,1.0,,4.805,4.775,
2025-08-15T00:20:25.501Z,1,GR86-015-31,1.4,0.033,0.033,31.63,1.0,6433.0,7.585,7.705,
2025-08-15T00:20:25.545Z,1,GR86-015-31,1.4,0.129,0.047,31.61,1.0,,7.37,7.495,87.53
2025-08-15T00:20:25.588Z,1,GR86-015-31,1.4,0.157,0.027,31.63,1.0,,3.935,4.305,
2025-08-15T00:20:25.630Z,1,GR86-015-31,1.3,0.254,0.029,31.62,1.0,,0.0,0.0,
2025-08-15T00:20:25.674Z,1,GR86-015-31,1.3,0.21,-0.009,31.6,1.0,,0.0,0.0,
2025-08-15T00:20:25.718Z,1,GR86-015-31,1.2000000000000002,0.185,0.008,31.59,1.0,6619.0,0.0,0.0,
2025-08-15T00:20:25.761Z,1,GR86-015-31,1.1,0.179,-0.025,31.57,1.0,,0.0,0.0,88.38
2025-08-15T00:20:25.805Z,1,GR86-015-31,1.0,0.18,-0.006,31.4,1.0,,3.16,3.34,
2025-08-15T00:20:25.847Z,1,GR86-015-31,1.0,0.182,-0.047,31.22,1.0,,3.16,3.405,
2025-08-15T00:20:25.890Z,1,GR86-015-31,1.0,0.023,-0.022,31.66,1.0,,2.855,3.31,
2025-08-15T00:20:25.976Z,1,GR86-015-31,0.7000000000000001,-0.008,-0.022,30.19,2.0,6636.0,6.715,6.865,89.01
2025-08-15T00:20:26.019Z,1,GR86-015-31,0.7000000000000001,0.198,-0.06,9.64,2.0,,11.035,11.095,
2025-08-15T00:20:26.062Z,1,GR86-015-31,0.0,0.264,-0.002,21.65,2.0,,10.715,11.185,
2025-08-15T00:20:26.105Z,1,GR86-015-31,0.0,-0.068,-0.053,25.35,2.0,,5.495,5.905,
2025-08-15T00:20:26.148Z,1,GR86-015-31,0.0,-0.12,-0.083,27.32,2.0,6019.0,0.0,0.0,
2025-08-15T00:20:26.191Z,1,GR86-015-31,0.0,-0.102,0.028,27.21,2.0,,0.0,0.0,89.68
2025-08-15T00:20:26.235Z,1,GR86-015-31,-0.1,0.03,-0.082,27.29,2.0,,0.0,0.0,
2025-08-15T00:20:26.278Z,1,GR86-015-31,-0.1,0.081,0.036,26.09,2.0,,0.0,0.0,
2025-08-15T00:20:26.321Z,1,GR86-015-31,0.0,0.603,-0.06,22.13,2.0,,0.0,0.0,
2025-08-15T00:20:26.365Z,1,GR86-015-31,0.0,0.423,-0.044,21.39,2.0,4928.0,0.0,0.0,
2025-08-15T00:20:26.407Z,1,GR86-015-31,0.0,0.105,-0.034,21.84,2.0,,2.075,2.365,90.45
2025-08-15T00:20:26.450Z,1,GR86-015-31,0.1,-0.079,-0.036,21.89,2.0,,6.0600000000000005,6.12,
2025-08-15T00:20:26.495Z,1,GR86-015-31,0.2,-0.158,-0.019,21.91,2.0,,11.31,11.215,
2025-08-15T00:20:26.538Z,1,GR86-015-31,0.4,-0.014,0.017,21.94,2.0,,12.175,12.53,
2025-08-15T00:20:26.581Z,1,GR86-015-31,0.5,0.13,-0.011,21.97,2.0,5038.0,12.085,12.175,
2025-08-15T00:20:26.625Z,1,GR86-015-31,1.1,0.037,0.012,21.99,2.0,,10.805,11.275,91.01
2025-08-15T00:20:26.668Z,1,GR86-015-31,1.9,-0.065,0.027,22.52,2.0,,5.465,5.8,
2025-08-15T00:20:26.710Z,1,GR86-015-31,1.9,-0.044,0.03,22.93,2.0,,0.0,0.0,
2025-08-15T00:20:26.754Z,1,GR86-015-31,2.0,0.13,0.07,23.03,2.0,,0.0,0.0,
2025-08-15T00:20:26.796Z,1,GR86-015-31,2.0,0.213,0.065,24.02,2.0,5260.0,0.0,0.0,
2025-08-15T00:20:26.839Z,1,GR86-015-31,2.1,0.212,0.079,28.94,2.0,,0.0,0.0,90.67
2025-08-15T00:20:26.882Z,1,GR86-015-31,2.1,0.143,0.053,61.03,2.0,,0.0,0.0,
2025-08-15T00:20:26.925Z,1,GR86-015-31,2.1,0.119,0.064,98.82,2.0,,0.0,0.0,
2025-08-15T00:20:26.969Z,1,GR86-015-31,2.1,0.172,0.038,100.23,2.0,,0.0,0.0,
2025-08-15T00:20:27.012Z,1,GR86-015-31,2.1,0.311,0.068,100.24,2.0,5317.0,0.0,0.0,
2025-08-15T00:20:27.055Z,1,GR86-015-31,2.1,0.406,0.044,100.24,2.0,,0.0,0.0,91.1
2025-08-15T00:20:27.098Z,1,GR86-015-31,2.1,0.318,0.045,100.24,2.0,,0.0,0.0,
2025-08-15T00:20:27.141Z,1,GR86-015-31,2.1,0.242,0.037,100.23,2.0,,0.0,0.0,
2025-08-15T00:20:27.185Z,1,GR86-015-31,2.1,0.239,0.029,100.22,2.0,,0.0,0.0,
2025-08-15T00:20:27.271Z,1,GR86-015-31,2.1,0.305,0.044,100.23,2.0,5330.0,0.0,0.0,92.29
2025-08-15T00:20:27.315Z,1,GR86-015-31,2.0,0.319,0.033,100.23,2.0,,0.0,0.0,
2025-08-15T00:20:27.357Z,1,GR86-015-31,2.0,0.279,0.014,100.24,2.0,,0.0,0.0,
2025-08-15T00:20:27.400Z,1,GR86-015-31,2.0,0.279,0.038,100.23,2.0,,0.0,0.0,
2025-08-15T00:20:27.444Z,1,GR86-015-31,1.9,0.296,0.022,100.21,2.0,5422.0,0.0,0.0,
2025-08-15T00:20:27.486Z,1,GR86-015-31,1.9,0.319,0.035,100.24,2.0,,0.0,0.0,93.94
2025-08-15T00:20:27.529Z,1,GR86-015-31,1.8,0.318,0.029,100.23,2.0,,0.0,0.0,
2025-08-15T00:20:27.615Z,1,GR86-015-31,1.8,0.307,0.026,100.23,2.0,,0.0,0.0,
2025-08-15T00:20:27.658Z,1,GR86-015-31,1.8,0.3,0.017,100.22,2.0,5525.0,0.0,0.0,
2025-08-15T00:20:27.701Z,1,GR86-015-31,1.7000000000000002,0.309,0.022,100.12,2.0,,0.0,0.0,95.72
2025-08-15T00:20:27.745Z,1,GR86-015-31,1.7000000000000002,0.295,0.014,53.52,2.0,,4.21,4.5,
2025-08-15T00:20:27.787Z,1,GR86-015-31,1.5,0.218,0.005,28.8,2.0,,7.525,7.645,
2025-08-15T00:20:27.830Z,1,GR86-015-31,1.4,0.157,0.002,28.3,2.0,,9.4,9.46,
2025-08-15T00:20:27.874Z,1,GR86-015-31,0.8,0.046,-0.014,22.99,2.0,5637.0,11.125,11.215,
2025-08-15T00:20:27.918Z,1,GR86-015-31,0.4,-0.048,-0.015,22.42,2.0,,13.49,13.705,97.44
2025-08-15T00:20:27.960Z,1,GR86-015-31,0.1,-0.106,-0.027,22.35,2.0,,16.19,16.375,
2025-08-15T00:20:28.004Z,1,GR86-015-31,0.0,-0.157,-0.031,22.1,2.0,,18.89,18.92,
2025-08-15T00:20:28.048Z,1,GR86-015-31,0.0,-0.161,-0.036,22.01,2.0,,19.52,19.76,
2025-08-15T00:20:28.091Z,1,GR86-015-31,0.0,-0.188,-0.051,22.0,2.0,5594.0,18.525,19.15,
2025-08-15T00:20:28.135Z,1,GR86-015-31,-0.3,-0.123,-0.043,24.44,2.0,,8.33,8.88,98.38
2025-08-15T00:20:28.178Z,1,GR86-015-31,-0.5,0.0,-0.052,31.92,2.0,,1.985,2.165,
2025-08-15T00:20:28.221Z,1,GR86-015-31,-0.6000000000000001,0.107,-0.049,35.62,2.0,,0.0,0.0,
2025-08-15T00:20:28.265Z,1,GR86-015-31,-0.6000000000000001,0.148,-0.054,35.28,2.0,,0.0,0.0,
2025-08-15T00:20:28.307Z,1,GR86-015-31,-0.6000000000000001,0.217,-0.045,32.660000000000004,2.0,5512.0,0.0,0.0,
2025-08-15T00:20:28.350Z,1,GR86-015-31,-0.6000000000000001,0.259,-0.046,29.27,2.0,,4.9,5.08,97.53
2025-08-15T00:20:28.395Z,1,GR86-015-31,-0.7000000000000001,0.096,-0.047,28.13,2.0,,11.035,11.095,
2025-08-15T00:20:28.438Z,1,GR86-015-31,-0.7000000000000001,-0.043,-0.03,28.08,2.0,,15.565,15.655,
2025-08-15T00:20:28.481Z,1,GR86-015-31,-0.7000000000000001,-0.139,-0.043,27.05,2.0,,19.335,19.425,
2025-08-15T00:20:28.525Z,1,GR86-015-31,-0.7000000000000001,-0.205,-0.04,24.66,2.0,5589.0,22.77,22.815,
2025-08-15T00:20:28.568Z,1,GR86-015-31,-0.7000000000000001,-0.187,-0.035,22.12,2.0,,25.99,25.925,97.31
2025-08-15T00:20:28.610Z,1,GR86-015-31,-0.7000000000000001,-0.258,-0.044,21.87,2.0,,29.59,29.465,
2025-08-15T00:20:28.654Z,1,GR86-015-31,-0.7000000000000001,-0.362,-0.034,21.86,2.0,,33.055,33.160000000000004,
2025-08-15T00:20:28.698Z,1,GR86-015-31,-0.7000000000000001,-0.425,-0.023,21.87,2.0,,32.87,32.99,
2025-08-15T00:20:28.741Z,1,GR86-015-31,-0.7000000000000001,-0.422,-0.023,21.86,2.0,5555.0,32.230000000000004,32.9,
2025-08-15T00:20:28.785Z,1,GR86-015-31,-0.7000000000000001,-0.403,-0.019,21.87,2.0,,31.42,31.8,97.16
2025-08-15T00:20:28.828Z,1,GR86-015-31,-0.7000000000000001,-0.387,-0.019,21.88,2.0,,31.575,32.105000000000004,
2025-08-15T00:20:28.870Z,1,GR86-015-31,-0.6000000000000001,-0.384,-0.01,21.89,2.0,,31.77,31.83,
2025-08-15T00:20:28.914Z,1,GR86-015-31,-0.6000000000000001,-0.428,-0.021,21.91,2.0,,36.55,36.425,
2025-08-15T00:20:28.956Z,1,GR86-015-31,-0.6000000000000001,-0.512,-0.017,21.96,2.0,5362.0,43.11,42.805,
2025-08-15T00:20:28.999Z,1,GR86-015-31,-0.6000000000000001,-0.632,-0.013,21.97,2.0,,49.73,49.305,92.96
2025-08-15T00:20:29.042Z,1,GR86-015-31,-0.6000000000000001,-0.735,-0.014,8.41,2.0,,62.215,61.68,
2025-08-15T00:20:29.085Z,1,GR86-015-31,-0.6000000000000001,-1.04,-0.004,3.48,2.0,,79.625,78.925,
2025-08-15T00:20:29.128Z,1,GR86-015-31,-0.6000000000000001,-1.041,0.004,3.93,2.0,,93.835,92.78,
2025-08-15T00:20:29.171Z,1,GR86-015-31,-0.6000000000000001,-1.112,-0.009,3.81,2.0,5165.0,104.15,103.37,
2025-08-15T00:20:29.215Z,1,GR86-015-31,0.6000000000000001,-1.05,0.062,3.3200000000000003,2.0,,100.9,103.31,88.03
2025-08-15T00:20:29.258Z,1,GR86-015-31,3.3000000000000003,-1.306,-0.012,3.85,2.0,,93.5,94.045,
2025-08-15T00:20:29.301Z,1,GR86-015-31,3.3000000000000003,-1.318,0.016,20.39,2.0,,77.4,78.955,
2025-08-15T00:20:29.345Z,1,GR86-015-31,2.9000000000000004,-1.19,0.047,22.07,2.0,,52.71,54.295,
2025-08-15T00:20:29.389Z,1,GR86-015-31,2.2,-0.808,-0.038,22.0,2.0,4469.0,32.685,33.62,
2025-08-15T00:20:29.432Z,1,GR86-015-31,1.6,-0.529,0.004,25.21,2.0,,17.580000000000002,18.265,78.21000000000001
2025-08-15T00:20:29.475Z,1,GR86-015-31,1.5,-0.125,-0.073,81.34,2.0,,2.975,3.31,
2025-08-15T00:20:29.518Z,1,GR86-015-31,0.9,0.313,0.041,99.53,2.0,,0.0,0.0,
2025-08-15T00:20:29.561Z,1,GR86-015-31,0.5,0.434,-0.04,100.23,2.0,,0.0,0.0,
2025-08-15T00:20:29.605Z,1,GR86-015-31,0.5,0.39,-0.007,100.23,2.0,4307.0,0.0,0.0,
2025-08-15T00:20:29.647Z,1,GR86-015-31,0.5,0.221,0.004,100.23,2.0,,0.0,0.0,74.26
2025-08-15T00:20:29.690Z,1,GR86-015-31,0.5,0.153,-0.028,100.23,2.0,,0.0,0.0,
2025-08-15T00:20:29.734Z,1,GR86-015-31,0.5,0.283,-0.014,100.19,2.0,,6.9,7.265000000000001,
2025-08-15T00:20:29.776Z,1,GR86-015-31,0.4,0.306,-0.005,100.2,2.0,,27.255,27.775,
2025-08-15T00:20:29.819Z,1,GR86-015-31,0.3,-0.197,-0.022,100.19,2.0,4435.0,45.9,45.965,
2025-08-15T00:20:29.862Z,1,GR86-015-31,0.2,-0.642,-0.051,100.2,2.0,,55.18,55.075,74.77
2025-08-15T00:20:29.905Z,1,GR86-015-31,0.2,-0.749,-0.001,100.19,2.0,,45.84,46.68,
2025-08-15T00:20:29.992Z,1,GR86-015-31,0.4,0.001,0.016,100.18,2.0,,7.615,7.765000000000001,
2025-08-15T00:20:30.035Z,1,GR86-015-31,1.2000000000000002,0.289,-0.006,100.14,2.0,4171.0,0.0,0.0,
2025-08-15T00:20:30.078Z,1,GR86-015-31,1.4,0.297,0.027,100.15,2.0,,0.0,0.0,72.99
2025-08-15T00:20:30.121Z,1,GR86-015-31,1.4,0.294,0.023,100.11,2.0,,0.0,0.0,
2025-08-15T00:20:30.165Z,1,GR86-015-31,1.4,0.271,0.032,100.11,2.0,,0.0,0.0,
2025-08-15T00:20:30.207Z,1,GR86-015-31,1.4,0.272,0.046,100.08,2.0,,0.0,0.0,
2025-08-15T00:20:30.250Z,1,GR86-015-31,1.4,0.282,0.021,100.04,2.0,4221.0,0.0,0.0,
2025-08-15T00:20:30.295Z,1,GR86-015-31,0.5,0.301,0.019,100.02,2.0,,0.0,0.0,73.32000000000001
2025-08-15T00:20:30.338Z,1,GR86-015-31,0.4,0.285,-0.027,100.0,2.0,,0.0,0.0,
2025-08-15T00:20:30.381Z,1,GR86-015-31,0.4,0.284,-0.004,99.96,2.0,,0.0,0.0,
2025-08-15T00:20:30.425Z,1,GR86-015-31,0.4,0.282,-0.036,99.94,2.0,,0.0,0.0,
2025-08-15T00:20:30.469Z,1,GR86-015-31,0.2,0.298,-0.03,99.95,2.0,4326.0,0.0,0.0,
2025-08-15T00:20:30.512Z,1,GR86-015-31,0.2,0.293,-0.028,99.96,2.0,,9.66,10.085,74.59
2025-08-15T00:20:30.555Z,1,GR86-015-31,0.2,-0.039,-0.014,99.96,2.0,,25.895,26.05,
2025-08-15T00:20:30.598Z,1,GR86-015-31,0.2,-0.131,-0.046,99.97,2.0,,25.15,25.895,
2025-08-15T00:20:30.641Z,1,GR86-015-31,0.2,-0.055,-0.025,99.96,2.0,,13.08,13.43,
2025-08-15T00:20:30.685Z,1,GR86-015-31,0.1,0.156,-0.035,99.96,2.0,4415.0,2.915,3.31,
2025-08-15T00:20:30.728Z,1,GR86-015-31,0.1,0.263,-0.028,99.96,2.0,,0.0,0.0,76.18
2025-08-15T00:20:30.771Z,1,GR86-015-31,0.1,0.278,-0.017,99.96,2.0,,0.0,0.0,
2025-08-15T00:20:30.815Z,1,GR86-015-31,0.1,0.302,-0.037,99.99,2.0,,0.0,0.0,
2025-08-15T00:20:30.858Z,1,GR86-015-31,0.1,0.333,-0.001,99.97,2.0,,0.0,0.0,
2025-08-15T00:20:30.901Z,1,GR86-015-31,0.1,0.317,-0.03,99.99,2.0,4412.0,0.0,0.0,
2025-08-15T00:20:30.945Z,1,GR86-015-31,0.1,0.3,-0.004,99.99,2.0,,0.0,0.0,76.42
2025-08-15T00:20:30.988Z,1,GR86-015-31,0.1,0.279,-0.027,99.98,2.0,,0.0,0.0,
2025-08-15T00:20:31.030Z,1,GR86-015-31,0.1,0.283,-0.024,99.97,2.0,,0.0,0.0,
2025-08-15T00:20:31.074Z,1,GR86-015-31,0.1,0.319,-0.027,100.0,2.0,,0.0,0.0,
2025-08-15T00:20:31.118Z,1,GR86-015-31,0.1,0.331,-0.015,99.99,2.0,4497.0,0.0,0.0,
2025-08-15T00:20:31.160Z,1,GR86-015-31,0.1,0.312,-0.018,100.0,2.0,,0.0,0.0,77.82000000000001
2025-08-15T00:20:31.204Z,1,GR86-015-31,0.3,0.301,-0.006,100.01,2.0,,0.0,0.0,
2025-08-15T00:20:31.246Z,1,GR86-015-31,0.4,0.301,0.007,99.99,2.0,,0.0,0.0,
2025-08-15T00:20:31.289Z,1,GR86-015-31,0.4,0.312,0.001,99.99,2.0,,0.0,0.0,
2025-08-15T00:20:31.332Z,1,GR86-015-31,0.5,0.327,0.03,100.0,2.0,4606.0,0.0,0.0,
2025-08-15T00:20:31.375Z,1,GR86-015-31,0.6000000000000001,0.324,0.028,99.99,2.0,,0.0,0.0,79.61
2025-08-15T00:20:31.418Z,1,GR86-015-31,0.7000000000000001,0.312,0.034,100.02,2.0,,0.0,0.0,
2025-08-15T00:20:31.461Z,1,GR86-015-31,1.4,0.308,0.022,100.01,2.0,,0.0,0.0,
2025-08-15T00:20:31.505Z,1,GR86-015-31,2.0,0.298,0.055,100.0,2.0,,0.0,0.0,
2025-08-15T00:20:31.547Z,1,GR86-015-31,2.0,0.31,0.023,100.03,2.0,4726.0,0.0,0.0,
2025-08-15T00:20:31.590Z,1,GR86-015-31,2.0,0.298,0.063,99.99,2.0,,0.0,0.0,81.43
2025-08-15T00:20:31.634Z,1,GR86-015-31,2.0,0.295,0.058,100.01,2.0,,0.0,0.0,
2025-08-15T00:20:31.676Z,1,GR86-015-31,2.0,0.31,0.067,100.01,2.0,,0.0,0.0,
2025-08-15T00:20:31.719Z,1,GR86-015-31,2.0,0.301,0.051,100.0,2.0,,0.0,0.0,
2025-08-15T00:20:31.762Z,1,GR86-015-31,2.0,0.302,0.07,100.03,2.0,4833.0,0.0,0.0,
2025-08-15T00:20:31.805Z,1,GR86-015-31,2.0,0.294,0.057,99.99,2.0,,0.0,0.0,85.09
2025-08-15T00:20:31.848Z,1,GR86-015-31,2.1,0.296,0.063,100.0,2.0,,0.0,0.0,
2025-08-15T00:20:31.891Z,1,GR86-015-31,2.1,0.296,0.044,100.0,2.0,,0.0,0.0,
2025-08-15T00:20:31.935Z,1,GR86-015-31,2.0,0.291,0.051,100.01,2.0,,0.0,0.0,
2025-08-15T00:20:31.978Z,1,GR86-015-31,2.1,0.291,0.057,100.0,2.0,4931.0,0.0,0.0,
2025-08-15T00:20:32.021Z,1,GR86-015-31,2.1,0.276,0.053,100.0,2.0,,0.0,0.0,86.87
2025-08-15T00:20:32.065Z,1,GR86-015-31,2.1,0.289,0.043,100.0,2.0,,0.0,0.0,
2025-08-15T00:20:32.107Z,1,GR86-015-31,2.0,0.295,0.041,99.99,2.0,,0.0,0.0,
2025-08-15T00:20:32.150Z,1,GR86-015-31,2.1,0.298,0.031,100.0,2.0,,0.0,0.0,
2025-08-15T00:20:32.196Z,1,GR86-015-31,2.1,0.283,0.018,99.98,2.0,5119.0,0.0,0.0,
2025-08-15T00:20:32.238Z,1,GR86-015-31,2.1,0.272,0.031,99.99,2.0,,0.0,0.0,88.61
2025-08-15T00:20:32.281Z,1,GR86-015-31,2.1,0.274,0.011,100.01,2.0,,0.0,0.0,
2025-08-15T00:20:32.325Z,1,GR86-015-31,2.1,0.278,0.036,100.0,2.0,,0.0,0.0,
2025-08-15T00:20:32.368Z,1,GR86-015-31,2.1,0.287,0.03,100.01,2.0,,0.0,0.0,
2025-08-15T00:20:32.410Z,1,GR86-015-31,2.1,0.29,0.043,100.0,2.0,5231.0,0.0,0.0,
2025-08-15T00:20:32.454Z,1,GR86-015-31,1.9,0.279,0.022,99.99,2.0,,0.0,0.0,90.35
2025-08-15T00:20:32.497Z,1,GR86-015-31,1.9,0.268,0.008,99.99,2.0,,0.0,0.0,
2025-08-15T00:20:32.540Z,1,GR86-015-31,1.8,0.276,0.008,100.0,2.0,,0.0,0.0,
2025-08-15T00:20:32.584Z,1,GR86-015-31,1.7000000000000002,0.282,0.008,100.0,2.0,,0.0,0.0,
2025-08-15T00:20:32.626Z,1,GR86-015-31,1.7000000000000002,0.291,0.005,100.02,2.0,5322.0,0.0,0.0,
2025-08-15T00:20:32.669Z,1,GR86-015-31,1.7000000000000002,0.29,0.005,100.0,2.0,,0.0,0.0,91.95
2025-08-15T00:20:32.712Z,1,GR86-015-31,1.7000000000000002,0.282,0.003,99.99,2.0,,0.0,0.0,
2025-08-15T00:20:32.755Z,1,GR86-015-31,1.6,0.267,-0.012,99.99,2.0,,0.0,0.0,
2025-08-15T00:20:32.798Z,1,GR86-015-31,1.6,0.267,0.015,99.99,2.0,,0.0,0.0,
2025-08-15T00:20:32.841Z,1,GR86-015-31,1.6,0.28,0.002,99.99,2.0,5407.0,0.0,0.0,
2025-08-15T00:20:32.885Z,1,GR86-015-31,1.6,0.28,0.012,100.02,2.0,,0.0,0.0,93.61
2025-08-15T00:20:32.928Z,1,GR86-015-31,1.6,0.29,-0.003,99.99,2.0,,0.0,0.0,
2025-08-15T00:20:32.970Z,1,GR86-015-31,1.6,0.272,-0.001,100.01,2.0,,0.0,0.0,
2025-08-15T00:20:33.014Z,1,GR86-015-31,1.6,0.279,0.011,100.01,2.0,,0.0,0.0,
2025-08-15T00:20:33.056Z,1,GR86-015-31,1.6,0.288,-0.004,100.02,2.0,5495.0,0.0,0.0,
2025-08-15T00:20:33.099Z,1,GR86-015-31,1.6,0.285,0.013,99.99,2.0,,0.0,0.0,95.29
2025-08-15T00:20:33.143Z,1,GR86-015-31,1.6,0.28,0.001,100.01,2.0,,0.0,0.0,
2025-08-15T00:20:33.186Z,1,GR86-015-31,1.6,0.278,0.007,99.99,2.0,,0.0,0.0,
2025-08-15T00:20:33.229Z,1,GR86-015-31,1.6,0.286,0.004,100.0,2.0,,0.0,0.0,
2025-08-15T00:20:33.272Z,1,GR86-015-31,1.5,0.279,0.009,100.02,2.0,5604.0,0.0,0.0,
2025-08-15T00:20:33.315Z,1,GR86-015-31,1.5,0.281,0.03,99.99,2.0,,0.0,0.0,96.96
2025-08-15T00:20:33.358Z,1,GR86-015-31,1.4,0.279,0.01,100.0,2.0,,0.0,0.0,
2025-08-15T00:20:33.401Z,1,GR86-015-31,1.4,0.277,0.015,100.0,2.0,,0.0,0.0,
2025-08-15T00:20:33.445Z,1,GR86-015-31,1.4,0.288,0.002,100.03,2.0,,0.0,0.0,
2025-08-15T00:20:33.487Z,1,GR86-015-31,1.3,0.28,0.002,100.01,2.0,5701.0,0.0,0.0,
2025-08-15T00:20:33.530Z,1,GR86-015-31,1.1,0.276,0.009,100.01,2.0,,0.0,0.0,98.68
2025-08-15T00:20:33.574Z,1,GR86-015-31,1.1,0.292,-0.008,100.01,2.0,,0.0,0.0,
2025-08-15T00:20:33.618Z,1,GR86-015-31,1.0,0.29,0.009,100.01,2.0,,0.0,0.0,
2025-08-15T00:20:33.661Z,1,GR86-015-31,1.0,0.294,-0.004,100.01,2.0,,0.0,0.0,
2025-08-15T00:20:33.705Z,1,GR86-015-31,1.0,0.284,-0.019,99.99,2.0,5800.0,0.0,0.0,
2025-08-15T00:20:33.748Z,1,GR86-015-31,1.0,0.284,0.006,99.99,2.0,,0.0,0.0,100.3
2025-08-15T00:20:33.791Z,1,GR86-015-31,1.0,0.285,-0.019,99.98,2.0,,0.0,0.0,
2025-08-15T00:20:33.835Z,1,GR86-015-31,0.9,0.293,-0.025,100.0,2.0,,0.0,0.0,
2025-08-15T00:20:33.965Z,1,GR86-015-31,0.9,0.289,-0.014,100.02,2.0,5883.0,0.0,0.0,101.93
2025-08-15T00:20:34.008Z,1,GR86-015-31,0.9,0.282,-0.006,100.01,2.0,,0.0,0.0,
2025-08-15T00:20:34.050Z,1,GR86-015-31,0.9,0.298,0.004,100.01,2.0,,0.0,0.0,
2025-08-15T00:20:34.095Z,1,GR86-015-31,0.9,0.297,-0.01,100.01,2.0,,0.0,0.0,
2025-08-15T00:20:34.138Z,1,GR86-015-31,0.9,0.276,-0.012,99.99,2.0,5985.0,0.0,0.0,
2025-08-15T00:20:34.225Z,1,GR86-015-31,0.9,0.277,-0.024,99.99,2.0,,0.0,0.0,103.59
2025-08-15T00:20:34.268Z,1,GR86-015-31,0.9,0.298,-0.007,100.02,2.0,,0.0,0.0,
2025-08-15T00:20:34.310Z,1,GR86-015-31,0.9,0.293,0.02,100.0,2.0,,0.0,0.0,
2025-08-15T00:20:34.354Z,1,GR86-015-31,1.0,0.287,0.033,99.99,2.0,6079.0,0.0,0.0,
2025-08-15T00:20:34.398Z,1,GR86-015-31,1.1,0.279,0.023,99.99,2.0,,0.0,0.0,107.05
2025-08-15T00:20:34.441Z,1,GR86-015-31,1.1,0.296,0.052,100.01,2.0,,0.0,0.0,
2025-08-15T00:20:34.485Z,1,GR86-015-31,1.2000000000000002,0.29,0.032,99.99,2.0,,0.0,0.0,
2025-08-15T00:20:34.528Z,1,GR86-015-31,1.1,0.285,0.026,100.0,2.0,,0.0,0.0,
2025-08-15T00:20:34.570Z,1,GR86-015-31,1.2000000000000002,0.281,0.029,100.01,2.0,6181.0,0.0,0.0,
2025-08-15T00:20:34.614Z,1,GR86-015-31,1.1,0.27,0.024,100.01,2.0,,0.0,0.0,108.7
2025-08-15T00:20:34.656Z,1,GR86-015-31,1.1,0.284,0.024,100.01,2.0,,0.0,0.0,
2025-08-15T00:20:34.699Z,1,GR86-015-31,1.1,0.307,0.028,100.0,2.0,,0.0,0.0,
2025-08-15T00:20:34.742Z,1,GR86-015-31,1.1,0.291,0.025,100.01,2.0,,0.0,0.0,
2025-08-15T00:20:34.785Z,1,GR86-015-31,1.1,0.28,0.016,99.99,2.0,6272.0,0.0,0.0,
2025-08-15T00:20:34.828Z,1,GR86-015-31,1.1,0.269,0.038,100.02,2.0,,0.0,0.0,110.37
2025-08-15T00:20:34.871Z,1,GR86-015-31,1.1,0.275,0.006,100.0,2.0,,0.0,0.0,
2025-08-15T00:20:34.915Z,1,GR86-015-31,1.2000000000000002,0.281,0.012,100.02,2.0,,0.0,0.0,
2025-08-15T00:20:34.957Z,1,GR86-015-31,1.1,0.282,0.029,100.01,2.0,,0.0,0.0,
2025-08-15T00:20:35.001Z,1,GR86-015-31,1.1,0.277,0.029,100.01,2.0,6474.0,0.0,0.0,
2025-08-15T00:20:35.044Z,1,GR86-015-31,1.1,0.288,0.019,99.99,2.0,,0.0,0.0,112.05
2025-08-15T00:20:35.086Z,1,GR86-015-31,1.1,0.282,0.026,100.02,2.0,,0.0,0.0,
2025-08-15T00:20:35.129Z,1,GR86-015-31,1.1,0.268,-0.002,100.02,2.0,,0.0,0.0,
2025-08-15T00:20:35.172Z,1,GR86-015-31,1.1,0.278,0.012,100.01,2.0,,0.0,0.0,
2025-08-15T00:20:35.215Z,1,GR86-015-31,1.1,0.289,0.023,99.98,2.0,6579.0,0.0,0.0,
2025-08-15T00:20:35.258Z,1,GR86-015-31,1.1,0.293,0.027,100.0,2.0,,0.0,0.0,113.68
2025-08-15T00:20:35.301Z,1,GR86-015-31,1.1,0.294,0.018,100.01,2.0,,0.0,0.0,
2025-08-15T00:20:35.345Z,1,GR86-015-31,1.1,0.279,0.022,99.99,2.0,,0.0,0.0,
2025-08-15T00:20:35.390Z,1,GR86-015-31,1.2000000000000002,0.267,0.002,99.98,2.0,,0.0,0.0,
2025-08-15T00:20:35.432Z,1,GR86-015-31,1.1,0.277,0.0,99.98,2.0,6665.0,0.0,0.0,
2025-08-15T00:20:35.475Z,1,GR86-015-31,1.1,0.287,-0.014,100.0,2.0,,0.0,0.0,115.39
2025-08-15T00:20:35.518Z,1,GR86-015-31,1.1,0.281,0.006,100.0,2.0,,0.0,0.0,
2025-08-15T00:20:35.561Z,1,GR86-015-31,1.1,0.274,-0.011,100.0,2.0,,0.0,0.0,
