timestamp,lap,vehicle_id,steering_angle,accx_can,accy_can,ath,gear,nmot,pbrake_f,pbrake_r,speed
2025-08-15T00:48:57.469Z,6,GR86-004-78,1.8,-0.124,0.007,2.39,3.0,4812.0,0.0,0.0,
2025-08-15T00:48:57.512Z,6,GR86-004-78,1.8,-0.084,0.008,2.4,3.0,,0.0,0.0,105.19
2025-08-15T00:48:57.556Z,6,GR86-004-78,1.8,-0.109,-0.001,2.4,3.0,,0.0,0.0,
2025-08-15T00:48:57.599Z,6,GR86-004-78,2.3000000000000003,-0.088,0.0,3.15,3.0,,0.0,0.0,
2025-08-15T00:48:57.642Z,6,GR86-004-78,2.4000000000000004,-0.088,0.001,4.37,3.0,,0.0,0.0,
2025-08-15T00:48:57.685Z,6,GR86-004-78,2.4000000000000004,-0.107,0.016,4.65,3.0,4771.0,0.0,0.0,
2025-08-15T00:48:57.728Z,6,GR86-004-78,2.3000000000000003,-0.087,0.002,4.84,3.0,,0.0,0.0,104.31
2025-08-15T00:48:57.771Z,6,GR86-004-78,1.8,-0.097,-0.018,4.91,3.0,,0.0,0.0,
2025-08-15T00:48:57.814Z,6,GR86-004-78,1.7000000000000002,-0.089,-0.007,4.97,3.0,,0.0,0.0,
2025-08-15T00:48:57.857Z,6,GR86-004-78,1.7000000000000002,-0.077,-0.025,4.99,3.0,,0.0,0.0,
2025-08-15T00:48:57.900Z,6,GR86-004-78,1.9,-0.103,-0.005,5.0,3.0,4735.0,0.0,0.0,
2025-08-15T00:48:57.943Z,6,GR86-004-78,1.9,-0.09,-0.019,5.03,3.0,,0.0,0.0,103.58
2025-08-15T00:48:57.986Z,6,GR86-004-78,1.9,-0.116,-0.023,5.04,3.0,,0.0,0.0,
2025-08-15T00:48:58.029Z,6,GR86-004-78,1.9,-0.104,-0.05,5.0600000000000005,3.0,,0.0,0.0,
2025-08-15T00:48:58.072Z,6,GR86-004-78,1.9,-0.097,-0.036,5.0600000000000005,3.0,,0.0,0.0,
2025-08-15T00:48:58.115Z,6,GR86-004-78,1.9,-0.1,-0.052,5.0600000000000005,3.0,4717.0,0.0,0.0,
2025-08-15T00:48:58.158Z,6,GR86-004-78,2.0,-0.067,-0.036,5.07,3.0,,0.0,0.0,102.83
2025-08-15T00:48:58.201Z,6,GR86-004-78,2.0,-0.089,-0.043,5.0600000000000005,3.0,,0.0,0.0,
2025-08-15T00:48:58.245Z,6,GR86-004-78,2.0,-0.071,-0.04,5.05,3.0,,0.0,0.0,
2025-08-15T00:48:58.288Z,6,GR86-004-78,2.0,-0.096,-0.022,5.0600000000000005,3.0,,0.0,0.0,
2025-08-15T00:48:58.374Z,6,GR86-004-78,2.0,-0.096,-0.031,5.46,3.0,4675.0,0.0,0.0,102.08
2025-08-15T00:48:58.417Z,6,GR86-004-78,2.0,-0.078,-0.042,7.82,3.0,,0.0,0.0,
2025-08-15T00:48:58.460Z,6,GR86-004-78,2.0,-0.07,-0.024,9.28,3.0,,0.0,0.0,
2025-08-15T00:48:58.503Z,6,GR86-004-78,2.0,-0.053,-0.033,9.46,3.0,,0.0,0.0,
2025-08-15T00:48:58.546Z,6,GR86-004-78,2.0,-0.049,-0.035,9.7,3.0,4635.0,0.0,0.0,
2025-08-15T00:48:58.591Z,6,GR86-004-78,2.0,-0.045,-0.017,10.04,3.0,,0.0,0.0,101.39
2025-08-15T00:48:58.634Z,6,GR86-004-78,2.0,-0.075,-0.031,10.09,3.0,,0.0,0.0,
2025-08-15T00:48:58.678Z,6,GR86-004-78,2.0,-0.078,-0.014,10.1,3.0,,0.0,0.0,
2025-08-15T00:48:58.721Z,6,GR86-004-78,2.0,-0.089,-0.014,10.1,3.0,,0.0,0.0,
2025-08-15T00:48:58.764Z,6,GR86-004-78,2.0,-0.08,0.003,10.41,3.0,4624.0,0.0,0.0,
2025-08-15T00:48:58.807Z,6,GR86-004-78,2.0,-0.061,-0.007,10.76,3.0,,0.0,0.0,100.75
2025-08-15T00:48:58.850Z,6,GR86-004-78,2.0,-0.083,-0.015,11.39,3.0,,0.0,0.0,
2025-08-15T00:48:58.893Z,6,GR86-004-78,2.0,-0.059,-0.009,11.39,3.0,,0.0,0.0,
2025-08-15T00:48:58.979Z,6,GR86-004-78,2.0,-0.037,-0.014,11.33,3.0,4582.0,0.0,0.0,
2025-08-15T00:48:59.022Z,6,GR86-004-78,2.0,-0.043,0.002,11.56,3.0,,0.0,0.0,100.19
2025-08-15T00:48:59.065Z,6,GR86-004-78,2.0,-0.044,-0.016,11.46,3.0,,0.0,0.0,
2025-08-15T00:48:59.108Z,6,GR86-004-78,2.0,0.056,-0.008,11.56,3.0,,0.0,0.0,
2025-08-15T00:48:59.151Z,6,GR86-004-78,2.0,-0.038,-0.023,13.13,3.0,,0.0,0.0,
2025-08-15T00:48:59.194Z,6,GR86-004-78,2.0,-0.031,-0.003,13.28,3.0,4558.0,0.0,0.0,
2025-08-15T00:48:59.237Z,6,GR86-004-78,2.0,-0.059,-0.017,13.02,3.0,,0.0,0.0,99.59
2025-08-15T00:48:59.280Z,6,GR86-004-78,2.0,-0.065,-0.013,13.05,3.0,,0.0,0.0,
2025-08-15T00:48:59.323Z,6,GR86-004-78,2.0,-0.053,-0.012,13.12,3.0,,0.0,0.0,
2025-08-15T00:48:59.367Z,6,GR86-004-78,2.0,-0.038,-0.04,12.91,3.0,,0.0,0.0,
2025-08-15T00:48:59.411Z,6,GR86-004-78,1.8,0.038,-0.031,11.73,3.0,4645.0,0.0,0.0,
2025-08-15T00:48:59.497Z,6,GR86-004-78,1.8,0.036,-0.033,11.51,3.0,,0.0,0.0,99.07
2025-08-15T00:48:59.540Z,6,GR86-004-78,1.6,-0.051,-0.03,12.89,3.0,,0.0,0.0,
2025-08-15T00:48:59.626Z,6,GR86-004-78,1.6,-0.066,-0.03,12.96,3.0,4529.0,0.0,0.0,
2025-08-15T00:48:59.712Z,6,GR86-004-78,1.7000000000000002,0.013,-0.036,13.85,3.0,,0.0,0.0,98.65
2025-08-15T00:48:59.755Z,6,GR86-004-78,1.7000000000000002,-0.018,-0.021,15.8,3.0,,0.0,0.0,
2025-08-15T00:48:59.841Z,6,GR86-004-78,1.7000000000000002,-0.032,-0.02,17.34,3.0,4532.0,0.0,0.0,
2025-08-15T00:48:59.884Z,6,GR86-004-78,1.7000000000000002,-0.012,-0.023,17.35,3.0,,0.0,0.0,98.54
2025-08-15T00:48:59.927Z,6,GR86-004-78,1.6,0.075,-0.027,16.95,3.0,,0.0,0.0,
2025-08-15T00:48:59.970Z,6,GR86-004-78,1.5,0.052,-0.038,16.98,3.0,,0.0,0.0,
2025-08-15T00:49:00.013Z,6,GR86-004-78,1.6,0.031,-0.028,16.92,3.0,,0.0,0.0,
2025-08-15T00:49:00.056Z,6,GR86-004-78,1.6,0.012,-0.015,17.05,3.0,4577.0,0.0,0.0,
2025-08-15T00:49:00.099Z,6,GR86-004-78,1.6,0.028,-0.028,17.17,3.0,,0.0,0.0,98.4
2025-08-15T00:49:00.142Z,6,GR86-004-78,1.6,0.047,-0.014,16.95,3.0,,0.0,0.0,
2025-08-15T00:49:00.186Z,6,GR86-004-78,1.6,0.038,-0.027,17.11,3.0,,0.0,0.0,
2025-08-15T00:49:00.229Z,6,GR86-004-78,1.6,0.045,-0.025,17.02,3.0,,0.0,0.0,
2025-08-15T00:49:00.273Z,6,GR86-004-78,1.6,0.034,-0.015,16.91,3.0,4558.0,0.0,0.0,
2025-08-15T00:49:00.316Z,6,GR86-004-78,1.7000000000000002,0.025,-0.024,17.52,3.0,,0.0,0.0,98.45
2025-08-15T00:49:00.359Z,6,GR86-004-78,1.7000000000000002,0.033,-0.026,17.72,3.0,,0.0,0.0,
2025-08-15T00:49:00.402Z,6,GR86-004-78,1.7000000000000002,0.031,-0.04,17.73,3.0,,0.0,0.0,
2025-08-15T00:49:00.445Z,6,GR86-004-78,1.7000000000000002,0.049,-0.038,17.84,3.0,,0.0,0.0,
2025-08-15T00:49:00.488Z,6,GR86-004-78,1.7000000000000002,0.045,-0.023,17.84,3.0,4570.0,0.0,0.0,
2025-08-15T00:49:00.531Z,6,GR86-004-78,1.7000000000000002,0.044,-0.022,17.91,3.0,,0.0,0.0,98.72
2025-08-15T00:49:00.574Z,6,GR86-004-78,1.7000000000000002,0.035,-0.003,17.98,3.0,,0.0,0.0,
2025-08-15T00:49:00.617Z,6,GR86-004-78,1.7000000000000002,0.032,-0.017,18.02,3.0,,0.0,0.0,
2025-08-15T00:49:00.660Z,6,GR86-004-78,1.7000000000000002,0.066,-0.018,18.18,3.0,,0.0,0.0,
2025-08-15T00:49:00.703Z,6,GR86-004-78,1.7000000000000002,0.063,-0.045,18.3,3.0,4594.0,0.0,0.0,
2025-08-15T00:49:00.746Z,6,GR86-004-78,1.7000000000000002,0.036,-0.022,18.69,3.0,,0.0,0.0,99.06
2025-08-15T00:49:00.789Z,6,GR86-004-78,1.7000000000000002,0.032,-0.026,18.84,3.0,,0.0,0.0,
2025-08-15T00:49:00.832Z,6,GR86-004-78,1.7000000000000002,0.043,-0.027,18.88,3.0,,0.0,0.0,
2025-08-15T00:49:00.875Z,6,GR86-004-78,1.7000000000000002,0.078,-0.019,18.95,3.0,,0.0,0.0,
2025-08-15T00:49:00.918Z,6,GR86-004-78,1.7000000000000002,0.068,-0.033,19.2,3.0,4615.0,0.0,0.0,
2025-08-15T00:49:00.961Z,6,GR86-004-78,1.7000000000000002,0.091,-0.023,19.45,3.0,,0.0,0.0,99.38
2025-08-15T00:49:01.004Z,6,GR86-004-78,1.7000000000000002,0.061,-0.024,19.78,3.0,,0.0,0.0,
2025-08-15T00:49:01.047Z,6,GR86-004-78,1.7000000000000002,0.055,-0.017,20.0,3.0,,0.0,0.0,
2025-08-15T00:49:01.091Z,6,GR86-004-78,1.7000000000000002,0.092,-0.006,20.19,3.0,,0.0,0.0,
2025-08-15T00:49:01.134Z,6,GR86-004-78,1.7000000000000002,0.077,-0.037,20.63,3.0,4636.0,0.0,0.0,
2025-08-15T00:49:01.177Z,6,GR86-004-78,1.7000000000000002,0.106,-0.022,20.74,3.0,,0.0,0.0,99.77
2025-08-15T00:49:01.221Z,6,GR86-004-78,1.7000000000000002,0.074,-0.035,20.73,3.0,,0.0,0.0,
2025-08-15T00:49:01.264Z,6,GR86-004-78,1.7000000000000002,0.091,-0.026,20.71,3.0,,0.0,0.0,
2025-08-15T00:49:01.350Z,6,GR86-004-78,1.7000000000000002,0.112,-0.019,20.56,3.0,4658.0,0.0,0.0,
2025-08-15T00:49:01.393Z,6,GR86-004-78,1.7000000000000002,0.094,-0.019,20.48,3.0,,0.0,0.0,100.18
2025-08-15T00:49:01.436Z,6,GR86-004-78,1.7000000000000002,0.079,-0.021,20.38,3.0,,0.0,0.0,
2025-08-15T00:49:01.479Z,6,GR86-004-78,1.8,0.086,-0.009,20.16,3.0,,0.0,0.0,
2025-08-15T00:49:01.522Z,6,GR86-004-78,1.7000000000000002,0.079,0.003,20.12,3.0,,0.0,0.0,
2025-08-15T00:49:01.565Z,6,GR86-004-78,1.7000000000000002,0.062,-0.012,20.12,3.0,4685.0,0.0,0.0,
2025-08-15T00:49:01.608Z,6,GR86-004-78,1.6,0.077,-0.016,20.1,3.0,,0.0,0.0,100.67
2025-08-15T00:49:01.651Z,6,GR86-004-78,1.3,0.07,-0.025,20.09,3.0,,0.0,0.0,
2025-08-15T00:49:01.694Z,6,GR86-004-78,0.8,0.067,-0.024,20.09,3.0,,0.0,0.0,
2025-08-15T00:49:01.737Z,6,GR86-004-78,0.0,0.076,-0.029,20.12,3.0,,0.0,0.0,
2025-08-15T00:49:01.780Z,6,GR86-004-78,-0.8,0.069,-0.04,20.12,3.0,4711.0,0.0,0.0,
2025-08-15T00:49:01.823Z,6,GR86-004-78,-1.3,0.099,-0.056,20.32,3.0,,0.0,0.0,101.21
2025-08-15T00:49:01.868Z,6,GR86-004-78,-1.2000000000000002,0.07,-0.068,20.96,3.0,,0.0,0.0,
2025-08-15T00:49:01.911Z,6,GR86-004-78,-1.0,0.063,-0.084,21.62,3.0,,0.0,0.0,
2025-08-15T00:49:01.954Z,6,GR86-004-78,-0.8,0.094,-0.087,21.86,3.0,,0.0,0.0,
2025-08-15T00:49:01.997Z,6,GR86-004-78,-0.8,0.095,-0.106,21.97,3.0,4736.0,0.0,0.0,
2025-08-15T00:49:02.041Z,6,GR86-004-78,-0.6000000000000001,0.118,-0.095,22.03,3.0,,0.0,0.0,101.78
2025-08-15T00:49:02.084Z,6,GR86-004-78,-0.5,0.097,-0.111,22.1,3.0,,0.0,0.0,
2025-08-15T00:49:02.128Z,6,GR86-004-78,-0.4,0.1,-0.098,22.12,3.0,,0.0,0.0,
2025-08-15T00:49:02.171Z,6,GR86-004-78,-0.4,0.12,-0.094,22.13,3.0,,0.0,0.0,
2025-08-15T00:49:02.214Z,6,GR86-004-78,-0.3,0.106,-0.083,22.12,3.0,4761.0,0.0,0.0,
2025-08-15T00:49:02.257Z,6,GR86-004-78,-0.3,0.088,-0.075,22.12,3.0,,0.0,0.0,102.35
2025-08-15T00:49:02.300Z,6,GR86-004-78,-0.3,0.093,-0.064,22.12,3.0,,0.0,0.0,
2025-08-15T00:49:02.343Z,6,GR86-004-78,-0.3,0.076,-0.056,22.11,3.0,,0.0,0.0,
2025-08-15T00:49:02.386Z,6,GR86-004-78,-0.3,0.094,-0.047,22.09,3.0,,0.0,0.0,
2025-08-15T00:49:02.430Z,6,GR86-004-78,-0.3,0.095,-0.053,22.1,3.0,4794.0,0.0,0.0,
2025-08-15T00:49:02.516Z,6,GR86-004-78,-0.3,0.118,-0.04,22.05,3.0,,0.0,0.0,103.66
2025-08-15T00:49:02.559Z,6,GR86-004-78,-0.3,0.11,-0.04,22.04,3.0,,0.0,0.0,
2025-08-15T00:49:02.603Z,6,GR86-004-78,-0.3,0.116,-0.034,22.02,3.0,,0.0,0.0,
2025-08-15T00:49:02.689Z,6,GR86-004-78,0.0,0.106,-0.042,21.64,3.0,4826.0,0.0,0.0,104.4
2025-08-15T00:49:02.732Z,6,GR86-004-78,0.1,0.116,-0.025,3.98,3.0,,0.0,0.0,
2025-08-15T00:49:02.776Z,6,GR86-004-78,0.2,0.098,-0.032,4.2700000000000005,3.0,,0.0,0.0,
2025-08-15T00:49:02.819Z,6,GR86-004-78,0.4,-0.013,-0.022,4.15,3.0,,0.0,0.0,
2025-08-15T00:49:02.862Z,6,GR86-004-78,0.5,-0.047,-0.005,3.89,3.0,4860.0,0.0,0.0,
2025-08-15T00:49:02.905Z,6,GR86-004-78,0.5,-0.16,-0.045,3.58,3.0,,0.0,0.0,105.11
2025-08-15T00:49:02.948Z,6,GR86-004-78,0.5,-0.262,0.007,3.28,3.0,,4.655,4.9,
2025-08-15T00:49:03.034Z,6,GR86-004-78,0.5,-0.09,-0.012,3.16,3.0,,5.25,5.555,
2025-08-15T00:49:03.077Z,6,GR86-004-78,0.7000000000000001,-0.069,-0.008,2.94,3.0,4674.0,5.585,5.965,
2025-08-15T00:49:03.120Z,6,GR86-004-78,0.7000000000000001,-0.112,-0.038,2.77,3.0,,5.9350000000000005,6.2700000000000005,105.85
2025-08-15T00:49:03.163Z,6,GR86-004-78,0.7000000000000001,-0.228,-0.032,2.66,3.0,,6.625,6.99,
2025-08-15T00:49:03.206Z,6,GR86-004-78,0.8,-0.187,0.009,2.42,3.0,,7.98,8.21,
2025-08-15T00:49:03.292Z,6,GR86-004-78,0.9,-0.158,0.009,2.36,3.0,4840.0,8.33,8.700000000000001,
2025-08-15T00:49:03.335Z,6,GR86-004-78,0.9,-0.2,-0.007,2.34,3.0,,8.040000000000001,8.36,105.57
2025-08-15T00:49:03.378Z,6,GR86-004-78,0.9,-0.241,-0.001,2.34,3.0,,8.09,8.700000000000001,
2025-08-15T00:49:03.421Z,6,GR86-004-78,0.9,-0.197,0.003,2.34,3.0,,8.01,8.27,
2025-08-15T00:49:03.507Z,6,GR86-004-78,1.0,-0.192,-0.013,2.36,3.0,4802.0,8.01,8.635,
2025-08-15T00:49:03.550Z,6,GR86-004-78,1.0,-0.194,0.002,2.36,3.0,,8.01,8.36,104.53
2025-08-15T00:49:03.594Z,6,GR86-004-78,1.0,-0.2,-0.006,2.36,3.0,,8.01,8.575000000000001,
2025-08-15T00:49:03.637Z,6,GR86-004-78,1.0,-0.177,0.004,2.36,3.0,,7.83,8.120000000000001,
2025-08-15T00:49:03.680Z,6,GR86-004-78,1.0,-0.188,-0.007,2.36,3.0,,8.01,8.515,
2025-08-15T00:49:03.723Z,6,GR86-004-78,1.0,-0.179,0.006,2.39,3.0,4719.0,7.83,8.36,
2025-08-15T00:49:03.767Z,6,GR86-004-78,1.0,-0.184,0.005,2.4,3.0,,7.98,8.09,103.23
2025-08-15T00:49:03.811Z,6,GR86-004-78,1.0,-0.187,-0.001,2.39,3.0,,8.01,8.425,
2025-08-15T00:49:03.854Z,6,GR86-004-78,1.0,-0.176,0.004,2.41,3.0,,7.735,8.01,
2025-08-15T00:49:03.897Z,6,GR86-004-78,1.0,-0.183,-0.013,2.42,3.0,,8.01,8.36,
2025-08-15T00:49:03.940Z,6,GR86-004-78,1.0,-0.17,0.003,2.42,3.0,4639.0,7.675,8.15,
2025-08-15T00:49:03.983Z,6,GR86-004-78,1.0,-0.202,-0.011,2.43,3.0,,7.705,8.21,101.86
2025-08-15T00:49:04.026Z,6,GR86-004-78,1.0,-0.193,-0.004,2.46,3.0,,7.705,8.36,
2025-08-15T00:49:04.070Z,6,GR86-004-78,1.0,-0.163,-0.002,2.46,3.0,,7.4,7.86,
2025-08-15T00:49:04.113Z,6,GR86-004-78,1.0,-0.175,-0.023,2.45,3.0,,7.555,8.040000000000001,
2025-08-15T00:49:04.156Z,6,GR86-004-78,1.0,-0.167,-0.006,2.45,3.0,4581.0,7.325,7.8,
2025-08-15T00:49:04.199Z,6,GR86-004-78,1.0,-0.185,-0.012,2.46,3.0,,7.17,7.615,100.56
2025-08-15T00:49:04.242Z,6,GR86-004-78,1.0,-0.169,0.005,2.47,3.0,,5.585,6.18,
2025-08-15T00:49:04.286Z,6,GR86-004-78,1.0,-0.119,0.006,2.49,3.0,,1.955,2.4250000000000003,
2025-08-15T00:49:04.329Z,6,GR86-004-78,1.0,-0.111,-0.021,2.48,3.0,,0.0,0.0,
2025-08-15T00:49:04.372Z,6,GR86-004-78,1.0,-0.087,-0.012,2.48,3.0,4529.0,0.0,0.0,
2025-08-15T00:49:04.415Z,6,GR86-004-78,1.0,-0.086,-0.021,2.48,3.0,,0.0,0.0,99.27
2025-08-15T00:49:04.458Z,6,GR86-004-78,1.1,-0.068,0.002,2.49,3.0,,0.0,0.0,
2025-08-15T00:49:04.502Z,6,GR86-004-78,1.1,-0.084,-0.013,2.5,3.0,,0.0,0.0,
2025-08-15T00:49:04.545Z,6,GR86-004-78,1.1,-0.089,0.009,2.48,3.0,,0.0,0.0,
2025-08-15T00:49:04.588Z,6,GR86-004-78,1.1,-0.089,-0.002,2.49,3.0,4469.0,0.0,0.0,
2025-08-15T00:49:04.631Z,6,GR86-004-78,1.1,-0.099,-0.019,2.49,3.0,,0.0,0.0,98.01
2025-08-15T00:49:04.674Z,6,GR86-004-78,1.1,-0.07,-0.001,2.48,3.0,,0.0,0.0,
2025-08-15T00:49:04.717Z,6,GR86-004-78,1.1,-0.083,-0.019,2.48,3.0,,0.0,0.0,
2025-08-15T00:49:04.760Z,6,GR86-004-78,1.1,-0.072,-0.017,2.49,3.0,,0.0,0.0,
2025-08-15T00:49:04.803Z,6,GR86-004-78,1.4,-0.093,-0.009,2.48,3.0,4449.0,0.0,0.0,
2025-08-15T00:49:04.846Z,6,GR86-004-78,1.6,-0.12,-0.008,3.14,3.0,,0.0,0.0,97.18
2025-08-15T00:49:04.891Z,6,GR86-004-78,1.7000000000000002,-0.094,0.014,3.9,3.0,,0.0,0.0,
2025-08-15T00:49:04.978Z,6,GR86-004-78,1.9,-0.092,0.031,4.87,3.0,,0.0,0.0,
2025-08-15T00:49:05.021Z,6,GR86-004-78,1.9,-0.092,0.013,4.97,3.0,4424.0,0.0,0.0,
2025-08-15T00:49:05.064Z,6,GR86-004-78,1.9,-0.077,0.026,5.0,3.0,,0.0,0.0,96.6
2025-08-15T00:49:05.107Z,6,GR86-004-78,1.9,-0.089,0.022,5.19,3.0,,0.0,0.0,
2025-08-15T00:49:05.150Z,6,GR86-004-78,2.0,-0.086,0.031,5.48,3.0,,0.0,0.0,
2025-08-15T00:49:05.194Z,6,GR86-004-78,2.0,-0.099,0.022,6.86,3.0,,0.0,0.0,
2025-08-15T00:49:05.237Z,6,GR86-004-78,2.0,-0.106,0.016,8.58,3.0,4393.0,0.0,0.0,
2025-08-15T00:49:05.280Z,6,GR86-004-78,2.0,-0.09,0.036,9.54,3.0,,0.0,0.0,95.43
2025-08-15T00:49:05.323Z,6,GR86-004-78,2.0,-0.072,0.015,9.68,3.0,,0.0,0.0,
2025-08-15T00:49:05.368Z,6,GR86-004-78,2.0,-0.029,0.017,10.18,3.0,,0.0,0.0,
2025-08-15T00:49:05.411Z,6,GR86-004-78,2.0,-0.049,-0.006,10.21,3.0,,0.0,0.0,
2025-08-15T00:49:05.454Z,6,GR86-004-78,2.0,-0.096,0.017,11.02,3.0,4366.0,0.0,0.0,
2025-08-15T00:49:05.497Z,6,GR86-004-78,2.0,-0.111,0.014,11.11,3.0,,0.0,0.0,94.94
2025-08-15T00:49:05.540Z,6,GR86-004-78,2.0,-0.03,0.015,10.18,3.0,,0.0,0.0,
2025-08-15T00:49:05.583Z,6,GR86-004-78,2.0,-0.064,0.012,10.04,3.0,,0.0,0.0,
2025-08-15T00:49:05.626Z,6,GR86-004-78,2.0,-0.017,0.0,9.8,3.0,,0.0,0.0,
2025-08-15T00:49:05.669Z,6,GR86-004-78,2.0,0.083,0.015,8.03,3.0,4298.0,0.0,0.0,
2025-08-15T00:49:05.755Z,6,GR86-004-78,2.0,-0.025,0.026,9.72,3.0,,0.0,0.0,94.55
2025-08-15T00:49:05.798Z,6,GR86-004-78,2.0,-0.036,0.003,9.63,3.0,,0.0,0.0,
2025-08-15T00:49:05.841Z,6,GR86-004-78,2.0,-0.018,0.013,9.6,3.0,,0.0,0.0,
2025-08-15T00:49:05.927Z,6,GR86-004-78,2.0,-0.033,0.002,9.44,3.0,4415.0,0.0,0.0,94.17
2025-08-15T00:49:05.971Z,6,GR86-004-78,1.9,-0.058,0.015,6.96,3.0,,0.0,0.0,
2025-08-15T00:49:06.014Z,6,GR86-004-78,1.1,-0.05,0.001,5.48,3.0,,0.0,0.0,
2025-08-15T00:49:06.057Z,6,GR86-004-78,0.7000000000000001,-0.033,-0.022,4.11,3.0,,0.0,0.0,
2025-08-15T00:49:06.100Z,6,GR86-004-78,0.4,-0.041,-0.033,3.88,3.0,4287.0,0.0,0.0,
2025-08-15T00:49:06.143Z,6,GR86-004-78,0.3,-0.092,-0.035,3.58,3.0,,0.0,0.0,94.17
2025-08-15T00:49:06.186Z,6,GR86-004-78,0.2,-0.15,-0.065,3.28,3.0,,0.0,0.0,
2025-08-15T00:49:06.273Z,6,GR86-004-78,0.2,-0.078,-0.071,3.03,3.0,,0.0,0.0,
2025-08-15T00:49:06.316Z,6,GR86-004-78,0.3,-0.081,-0.066,2.86,3.0,4343.0,0.0,0.0,
2025-08-15T00:49:06.359Z,6,GR86-004-78,0.5,-0.113,-0.065,2.74,3.0,,0.0,0.0,94.06
2025-08-15T00:49:06.402Z,6,GR86-004-78,0.7000000000000001,-0.117,-0.066,2.6,3.0,,0.0,0.0,
2025-08-15T00:49:06.445Z,6,GR86-004-78,0.9,-0.107,-0.042,2.43,3.0,,0.0,0.0,
2025-08-15T00:49:06.488Z,6,GR86-004-78,0.9,-0.082,-0.067,2.36,3.0,,0.0,0.0,
2025-08-15T00:49:06.531Z,6,GR86-004-78,1.0,-0.073,-0.029,2.37,3.0,4319.0,0.0,0.0,
2025-08-15T00:49:06.574Z,6,GR86-004-78,1.0,-0.082,-0.05,2.36,3.0,,0.0,0.0,93.78
2025-08-15T00:49:06.617Z,6,GR86-004-78,1.0,-0.069,-0.038,2.35,3.0,,0.0,0.0,
2025-08-15T00:49:06.660Z,6,GR86-004-78,1.0,-0.091,-0.048,2.33,3.0,,0.0,0.0,
2025-08-15T00:49:06.703Z,6,GR86-004-78,1.0,-0.076,-0.03,2.36,3.0,,0.0,0.0,
2025-08-15T00:49:06.746Z,6,GR86-004-78,1.0,-0.097,-0.011,2.35,3.0,4271.0,0.0,0.0,
2025-08-15T00:49:06.789Z,6,GR86-004-78,1.0,-0.098,-0.027,2.37,3.0,,0.0,0.0,93.2
2025-08-15T00:49:06.832Z,6,GR86-004-78,1.2000000000000002,-0.104,-0.02,2.37,3.0,,0.0,0.0,
2025-08-15T00:49:06.875Z,6,GR86-004-78,1.3,-0.095,-0.022,2.37,3.0,,0.0,0.0,
2025-08-15T00:49:06.918Z,6,GR86-004-78,1.4,-0.094,-0.011,2.36,3.0,,0.0,0.0,
2025-08-15T00:49:06.961Z,6,GR86-004-78,1.4,-0.09,-0.01,2.35,3.0,4238.0,0.0,0.0,
2025-08-15T00:49:07.004Z,6,GR86-004-78,1.4,-0.097,-0.012,2.38,3.0,,0.0,0.0,92.71
2025-08-15T00:49:07.047Z,6,GR86-004-78,1.4,-0.096,-0.026,2.4,3.0,,0.0,0.0,
2025-08-15T00:49:07.090Z,6,GR86-004-78,1.5,-0.073,-0.024,2.4,3.0,,0.0,0.0,
2025-08-15T00:49:07.133Z,6,GR86-004-78,1.5,-0.09,-0.029,2.4,3.0,,0.0,0.0,
2025-08-15T00:49:07.219Z,6,GR86-004-78,1.5,-0.073,-0.014,2.43,3.0,4220.0,0.0,0.0,92.18
2025-08-15T00:49:07.262Z,6,GR86-004-78,1.6,-0.073,-0.017,2.43,3.0,,0.0,0.0,
2025-08-15T00:49:07.348Z,6,GR86-004-78,1.6,-0.093,-0.01,2.43,3.0,,0.0,0.0,
2025-08-15T00:49:07.391Z,6,GR86-004-78,1.8,-0.098,0.022,2.46,3.0,4193.0,0.0,0.0,
2025-08-15T00:49:07.477Z,6,GR86-004-78,1.8,-0.093,0.012,2.46,3.0,,0.0,0.0,91.64
2025-08-15T00:49:07.520Z,6,GR86-004-78,1.8,-0.103,0.011,2.45,3.0,,0.0,0.0,
2025-08-15T00:49:07.563Z,6,GR86-004-78,1.8,-0.104,0.035,2.48,3.0,,0.0,0.0,
2025-08-15T00:49:07.606Z,6,GR86-004-78,2.0,-0.083,-0.005,2.48,3.0,4168.0,0.0,0.0,
2025-08-15T00:49:07.649Z,6,GR86-004-78,2.0,-0.068,0.018,2.49,3.0,,0.0,0.0,91.11
2025-08-15T00:49:07.692Z,6,GR86-004-78,2.0,-0.085,-0.003,3.13,3.0,,0.0,0.0,
2025-08-15T00:49:07.735Z,6,GR86-004-78,2.3000000000000003,-0.063,0.018,4.26,3.0,,0.0,0.0,
2025-08-15T00:49:07.778Z,6,GR86-004-78,2.3000000000000003,-0.072,-0.012,4.75,3.0,,0.0,0.0,
2025-08-15T00:49:07.821Z,6,GR86-004-78,2.3000000000000003,-0.078,0.017,4.8500000000000005,3.0,4144.0,0.0,0.0,
2025-08-15T00:49:07.864Z,6,GR86-004-78,2.4000000000000004,-0.089,0.007,6.53,3.0,,0.0,0.0,90.59
2025-08-15T00:49:07.907Z,6,GR86-004-78,2.5,-0.088,0.032,6.95,3.0,,0.0,0.0,
2025-08-15T00:49:07.950Z,6,GR86-004-78,2.5,-0.065,0.024,7.65,3.0,,0.0,0.0,
2025-08-15T00:49:07.993Z,6,GR86-004-78,2.5,-0.047,0.029,9.99,3.0,,0.0,0.0,
2025-08-15T00:49:08.037Z,6,GR86-004-78,2.5,-0.057,0.032,10.94,3.0,4121.0,0.0,0.0,
2025-08-15T00:49:08.080Z,6,GR86-004-78,2.5,-0.051,0.028,11.71,3.0,,0.0,0.0,89.55
2025-08-15T00:49:08.123Z,6,GR86-004-78,2.5,-0.08,0.031,12.74,3.0,,0.0,0.0,
2025-08-15T00:49:08.168Z,6,GR86-004-78,2.5,-0.077,0.022,13.75,3.0,,0.0,0.0,
2025-08-15T00:49:08.211Z,6,GR86-004-78,2.5,-0.025,0.025,13.84,3.0,,0.0,0.0,
2025-08-15T00:49:08.254Z,6,GR86-004-78,2.5,-0.029,0.036,14.5,3.0,4100.0,0.0,0.0,
2025-08-15T00:49:08.298Z,6,GR86-004-78,2.5,-0.041,0.043,16.990000000000002,3.0,,0.0,0.0,89.04
2025-08-15T00:49:08.341Z,6,GR86-004-78,2.5,0.031,0.026,17.93,3.0,,0.0,0.0,
2025-08-15T00:49:08.384Z,6,GR86-004-78,2.5,0.108,0.045,17.81,3.0,,0.0,0.0,
2025-08-15T00:49:08.428Z,6,GR86-004-78,2.5,0.046,0.018,19.56,3.0,,0.0,0.0,
2025-08-15T00:49:08.471Z,6,GR86-004-78,2.5,0.024,0.037,20.7,3.0,4154.0,0.0,0.0,
2025-08-15T00:49:08.514Z,6,GR86-004-78,2.5,0.065,0.002,20.73,3.0,,0.0,0.0,88.75
2025-08-15T00:49:08.557Z,6,GR86-004-78,2.5,0.144,0.032,20.69,3.0,,0.0,0.0,
2025-08-15T00:49:08.600Z,6,GR86-004-78,2.5,0.139,0.011,20.73,3.0,,0.0,0.0,
2025-08-15T00:49:08.643Z,6,GR86-004-78,2.5,0.119,0.015,20.76,3.0,,0.0,0.0,
2025-08-15T00:49:08.686Z,6,GR86-004-78,2.5,0.054,0.019,20.76,3.0,4077.0,0.0,0.0,
2025-08-15T00:49:08.730Z,6,GR86-004-78,2.3000000000000003,0.102,0.032,20.76,3.0,,0.0,0.0,88.63
2025-08-15T00:49:08.773Z,6,GR86-004-78,2.1,0.097,0.013,20.77,3.0,,0.0,0.0,
2025-08-15T00:49:08.816Z,6,GR86-004-78,2.1,0.099,0.007,20.82,3.0,,0.0,0.0,
2025-08-15T00:49:08.902Z,6,GR86-004-78,1.4,0.093,0.001,21.04,3.0,4127.0,0.0,0.0,
2025-08-15T00:49:08.945Z,6,GR86-004-78,1.3,0.095,-0.018,21.14,3.0,,0.0,0.0,89.10000000000001
2025-08-15T00:49:08.988Z,6,GR86-004-78,1.3,0.12,-0.045,21.31,3.0,,0.0,0.0,
2025-08-15T00:49:09.074Z,6,GR86-004-78,1.3,0.118,-0.023,21.36,3.0,,0.0,0.0,
2025-08-15T00:49:09.117Z,6,GR86-004-78,1.3,0.118,-0.03,21.45,3.0,4180.0,0.0,0.0,
2025-08-15T00:49:09.160Z,6,GR86-004-78,1.3,0.111,-0.045,21.7,3.0,,0.0,0.0,89.84
2025-08-15T00:49:09.203Z,6,GR86-004-78,1.3,0.12,-0.026,21.91,3.0,,0.0,0.0,
2025-08-15T00:49:09.246Z,6,GR86-004-78,1.3,0.098,-0.02,22.03,3.0,,0.0,0.0,
2025-08-15T00:49:09.289Z,6,GR86-004-78,1.3,0.115,-0.01,22.12,3.0,,0.0,0.0,
2025-08-15T00:49:09.375Z,6,GR86-004-78,1.3,0.09,-0.015,22.12,3.0,4222.0,0.0,0.0,90.63
2025-08-15T00:49:09.418Z,6,GR86-004-78,1.3,0.092,-0.016,22.14,3.0,,0.0,0.0,
2025-08-15T00:49:09.461Z,6,GR86-004-78,1.3,0.112,-0.013,22.14,3.0,,0.0,0.0,
2025-08-15T00:49:09.504Z,6,GR86-004-78,1.3,0.106,-0.015,22.13,3.0,,0.0,0.0,
2025-08-15T00:49:09.547Z,6,GR86-004-78,1.3,0.111,-0.028,22.12,3.0,4268.0,0.0,0.0,
2025-08-15T00:49:09.590Z,6,GR86-004-78,1.3,0.131,-0.015,22.13,3.0,,0.0,0.0,91.41
2025-08-15T00:49:09.633Z,6,GR86-004-78,1.3,0.119,-0.029,22.11,3.0,,0.0,0.0,
2025-08-15T00:49:09.719Z,6,GR86-004-78,1.3,0.138,-0.014,22.09,3.0,,0.0,0.0,
2025-08-15T00:49:09.762Z,6,GR86-004-78,1.3,0.134,0.005,22.04,3.0,4305.0,0.0,0.0,
2025-08-15T00:49:09.848Z,6,GR86-004-78,1.3,0.104,-0.02,22.04,3.0,,0.0,0.0,92.24
2025-08-15T00:49:09.892Z,6,GR86-004-78,1.3,0.112,0.003,22.01,3.0,,0.0,0.0,
2025-08-15T00:49:09.935Z,6,GR86-004-78,1.3,0.107,-0.007,21.98,3.0,,0.0,0.0,
2025-08-15T00:49:09.978Z,6,GR86-004-78,1.3,0.115,-0.005,21.97,3.0,4343.0,0.0,0.0,
2025-08-15T00:49:10.021Z,6,GR86-004-78,1.3,0.113,-0.006,21.97,3.0,,0.0,0.0,93.05
2025-08-15T00:49:10.064Z,6,GR86-004-78,1.3,0.116,-0.005,21.97,3.0,,0.0,0.0,
2025-08-15T00:49:10.107Z,6,GR86-004-78,1.3,0.099,0.012,21.97,3.0,,0.0,0.0,
2025-08-15T00:49:10.194Z,6,GR86-004-78,1.3,0.113,0.012,21.97,3.0,4380.0,0.0,0.0,
2025-08-15T00:49:10.237Z,6,GR86-004-78,1.3,0.094,0.019,21.98,3.0,,0.0,0.0,93.88
2025-08-15T00:49:10.280Z,6,GR86-004-78,1.3,0.105,0.019,21.96,3.0,,0.0,0.0,
2025-08-15T00:49:10.323Z,6,GR86-004-78,1.3,0.105,0.015,21.95,3.0,,0.0,0.0,
2025-08-15T00:49:10.368Z,6,GR86-004-78,1.3,0.113,0.01,21.95,3.0,,0.0,0.0,
2025-08-15T00:49:10.411Z,6,GR86-004-78,1.3,0.091,-0.008,21.94,3.0,4416.0,0.0,0.0,
2025-08-15T00:49:10.454Z,6,GR86-004-78,1.3,0.111,0.0,21.85,3.0,,0.0,0.0,94.68
2025-08-15T00:49:10.497Z,6,GR86-004-78,1.3,0.099,-0.003,21.63,3.0,,0.0,0.0,
2025-08-15T00:49:10.540Z,6,GR86-004-78,1.3,0.098,0.007,21.36,3.0,,0.0,0.0,
2025-08-15T00:49:10.583Z,6,GR86-004-78,1.3,0.087,0.003,21.13,3.0,,0.0,0.0,
2025-08-15T00:49:10.626Z,6,GR86-004-78,1.3,0.106,-0.002,21.0,3.0,4454.0,0.0,0.0,
2025-08-15T00:49:10.670Z,6,GR86-004-78,1.3,0.108,-0.005,20.97,3.0,,0.0,0.0,96.28
2025-08-15T00:49:10.713Z,6,GR86-004-78,1.3,0.082,-0.012,20.95,3.0,,0.0,0.0,
2025-08-15T00:49:10.756Z,6,GR86-004-78,1.3,0.101,-0.012,20.89,3.0,,0.0,0.0,
2025-08-15T00:49:10.799Z,6,GR86-004-78,1.3,0.094,0.0,20.73,3.0,,0.0,0.0,
2025-08-15T00:49:10.843Z,6,GR86-004-78,1.3,0.088,0.003,20.57,3.0,4494.0,0.0,0.0,
2025-08-15T00:49:10.886Z,6,GR86-004-78,1.3,0.101,0.023,20.72,3.0,,0.0,0.0,97.04
2025-08-15T00:49:10.929Z,6,GR86-004-78,1.3,0.094,-0.007,20.73,3.0,,0.0,0.0,
2025-08-15T00:49:10.972Z,6,GR86-004-78,1.3,0.095,0.008,20.7,3.0,,0.0,0.0,
2025-08-15T00:49:11.015Z,6,GR86-004-78,1.3,0.085,0.006,20.72,3.0,,0.0,0.0,
2025-08-15T00:49:11.058Z,6,GR86-004-78,1.3,0.105,0.008,20.71,3.0,4515.0,0.0,0.0,
2025-08-15T00:49:11.102Z,6,GR86-004-78,1.3,0.074,-0.008,20.61,3.0,,0.0,0.0,97.79
2025-08-15T00:49:11.145Z,6,GR86-004-78,1.3,0.076,-0.015,20.52,3.0,,0.0,0.0,
2025-08-15T00:49:11.188Z,6,GR86-004-78,1.3,0.104,-0.011,20.15,3.0,,0.0,0.0,
2025-08-15T00:49:11.231Z,6,GR86-004-78,1.3,0.094,-0.005,19.99,3.0,,0.0,0.0,
2025-08-15T00:49:11.274Z,6,GR86-004-78,1.3,0.077,-0.007,19.76,3.0,4575.0,0.0,0.0,
2025-08-15T00:49:11.317Z,6,GR86-004-78,1.3,0.08,0.012,12.64,3.0,,0.0,0.0,98.59
2025-08-15T00:49:11.360Z,6,GR86-004-78,1.3,0.062,-0.023,4.01,3.0,,0.0,0.0,
2025-08-15T00:49:11.446Z,6,GR86-004-78,1.3,-0.07,0.0,3.7,3.0,,0.0,0.0,
2025-08-15T00:49:11.491Z,6,GR86-004-78,1.3,-0.075,0.008,3.54,3.0,4609.0,0.0,0.0,
2025-08-15T00:49:11.534Z,6,GR86-004-78,1.3,-0.286,-0.025,3.34,3.0,,0.0,0.0,99.18
2025-08-15T00:49:11.578Z,6,GR86-004-78,1.3,-0.213,0.014,3.2,3.0,,0.0,0.0,
2025-08-15T00:49:11.664Z,6,GR86-004-78,1.3,-0.039,-0.017,3.13,3.0,,0.0,0.0,
2025-08-15T00:49:11.707Z,6,GR86-004-78,1.3,-0.06,-0.011,2.72,3.0,4443.0,0.0,0.0,
2025-08-15T00:49:11.750Z,6,GR86-004-78,1.3,-0.147,-0.034,2.61,3.0,,0.0,0.0,99.88
2025-08-15T00:49:11.794Z,6,GR86-004-78,1.3,-0.162,-0.009,2.46,3.0,,0.0,0.0,
2025-08-15T00:49:11.837Z,6,GR86-004-78,1.3,-0.097,-0.017,2.4,3.0,,0.0,0.0,
2025-08-15T00:49:11.923Z,6,GR86-004-78,1.3,-0.069,-0.042,2.36,3.0,4593.0,0.0,0.0,
2025-08-15T00:49:11.967Z,6,GR86-004-78,1.3,-0.126,-0.019,2.37,3.0,,0.0,0.0,99.71
2025-08-15T00:49:12.011Z,6,GR86-004-78,1.3,-0.123,-0.011,4.23,3.0,,0.0,0.0,
2025-08-15T00:49:12.054Z,6,GR86-004-78,1.3,-0.084,-0.014,4.42,3.0,,0.0,0.0,
2025-08-15T00:49:12.097Z,6,GR86-004-78,1.3,-0.095,-0.023,4.46,3.0,,0.0,0.0,
2025-08-15T00:49:12.183Z,6,GR86-004-78,1.3,-0.079,-0.031,4.8100000000000005,3.0,4565.0,0.0,0.0,99.07
2025-08-15T00:49:12.226Z,6,GR86-004-78,1.3,-0.097,-0.003,7.71,3.0,,0.0,0.0,
2025-08-15T00:49:12.269Z,6,GR86-004-78,1.3,-0.073,-0.003,9.91,3.0,,0.0,0.0,
2025-08-15T00:49:12.398Z,6,GR86-004-78,1.3,-0.06,-0.005,11.45,3.0,4513.0,0.0,0.0,98.43
2025-08-15T00:49:12.441Z,6,GR86-004-78,1.3,-0.062,0.002,17.46,3.0,,0.0,0.0,
2025-08-15T00:49:12.527Z,6,GR86-004-78,1.4,-0.053,-0.009,18.35,3.0,,0.0,0.0,
2025-08-15T00:49:12.570Z,6,GR86-004-78,1.4,-0.046,0.013,19.33,3.0,4500.0,0.0,0.0,
2025-08-15T00:49:12.613Z,6,GR86-004-78,1.4,0.114,0.02,19.26,3.0,,0.0,0.0,97.79
2025-08-15T00:49:12.656Z,6,GR86-004-78,1.4,0.237,0.03,19.18,3.0,,0.0,0.0,
2025-08-15T00:49:12.742Z,6,GR86-004-78,1.4,0.093,0.004,20.23,3.0,,0.0,0.0,
2025-08-15T00:49:12.786Z,6,GR86-004-78,1.4,0.021,0.024,22.06,3.0,4480.0,0.0,0.0,
2025-08-15T00:49:12.829Z,6,GR86-004-78,1.4,0.169,0.042,21.73,3.0,,0.0,0.0,97.27
2025-08-15T00:49:12.872Z,6,GR86-004-78,1.4,0.171,0.036,21.78,3.0,,0.0,0.0,
2025-08-15T00:49:12.916Z,6,GR86-004-78,1.4,0.077,0.021,21.92,3.0,,0.0,0.0,
2025-08-15T00:49:12.959Z,6,GR86-004-78,1.4,0.036,0.037,21.94,3.0,,0.0,0.0,
2025-08-15T00:49:13.002Z,6,GR86-004-78,1.4,0.086,0.023,21.97,3.0,4521.0,0.0,0.0,
2025-08-15T00:49:13.045Z,6,GR86-004-78,1.4,0.159,0.026,22.0,3.0,,0.0,0.0,96.96
2025-08-15T00:49:13.088Z,6,GR86-004-78,1.4,0.097,0.031,22.01,3.0,,0.0,0.0,
2025-08-15T00:49:13.131Z,6,GR86-004-78,1.4,0.068,0.022,22.02,3.0,,0.0,0.0,
2025-08-15T00:49:13.174Z,6,GR86-004-78,1.4,0.082,0.025,22.03,3.0,,0.0,0.0,
2025-08-15T00:49:13.217Z,6,GR86-004-78,1.4,0.112,0.008,22.03,3.0,4569.0,0.0,0.0,
2025-08-15T00:49:13.260Z,6,GR86-004-78,1.4,0.138,0.021,22.03,3.0,,0.0,0.0,97.42
2025-08-15T00:49:13.303Z,6,GR86-004-78,1.4,0.111,0.004,22.04,3.0,,0.0,0.0,
2025-08-15T00:49:13.346Z,6,GR86-004-78,1.4,0.09,0.031,22.04,3.0,,0.0,0.0,
2025-08-15T00:49:13.389Z,6,GR86-004-78,1.4,0.103,0.025,22.04,3.0,,0.0,0.0,
2025-08-15T00:49:13.432Z,6,GR86-004-78,1.4,0.113,0.018,22.03,3.0,4578.0,0.0,0.0,
2025-08-15T00:49:13.475Z,6,GR86-004-78,1.4,0.132,0.014,22.03,3.0,,0.0,0.0,98.89
2025-08-15T00:49:13.518Z,6,GR86-004-78,1.4,0.11,0.004,22.04,3.0,,0.0,0.0,
2025-08-15T00:49:13.561Z,6,GR86-004-78,1.4,0.122,0.008,22.03,3.0,,0.0,0.0,
2025-08-15T00:49:13.604Z,6,GR86-004-78,1.4,0.109,0.003,22.04,3.0,,0.0,0.0,
2025-08-15T00:49:13.647Z,6,GR86-004-78,1.4,0.105,-0.002,22.03,3.0,4609.0,0.0,0.0,
2025-08-15T00:49:13.690Z,6,GR86-004-78,1.4,0.121,0.006,22.04,3.0,,0.0,0.0,99.67
2025-08-15T00:49:13.733Z,6,GR86-004-78,1.4,0.109,-0.008,22.03,3.0,,0.0,0.0,
2025-08-15T00:49:13.776Z,6,GR86-004-78,1.4,0.122,0.006,22.02,3.0,,0.0,0.0,
2025-08-15T00:49:13.819Z,6,GR86-004-78,1.4,0.109,-0.002,22.03,3.0,,0.0,0.0,
2025-08-15T00:49:13.862Z,6,GR86-004-78,1.4,0.1,0.009,22.03,3.0,4644.0,0.0,0.0,
2025-08-15T00:49:13.905Z,6,GR86-004-78,1.4,0.088,0.001,22.01,3.0,,0.0,0.0,100.48
2025-08-15T00:49:13.948Z,6,GR86-004-78,1.4,0.109,-0.018,22.02,3.0,,0.0,0.0,
2025-08-15T00:49:14.034Z,6,GR86-004-78,1.4,0.095,-0.014,22.01,3.0,,0.0,0.0,
2025-08-15T00:49:14.077Z,6,GR86-004-78,1.4,0.078,-0.011,22.01,3.0,4710.0,0.0,0.0,
2025-08-15T00:49:14.120Z,6,GR86-004-78,1.4,0.1,-0.018,22.01,3.0,,0.0,0.0,101.28
2025-08-15T00:49:14.163Z,6,GR86-004-78,1.3,0.105,-0.038,22.01,3.0,,0.0,0.0,
2025-08-15T00:49:14.206Z,6,GR86-004-78,1.0,0.1,-0.026,22.02,3.0,,0.0,0.0,
2025-08-15T00:49:14.292Z,6,GR86-004-78,0.9,0.094,-0.037,22.01,3.0,4744.0,0.0,0.0,
2025-08-15T00:49:14.335Z,6,GR86-004-78,0.9,0.125,-0.052,22.0,3.0,,0.0,0.0,102.05
2025-08-15T00:49:14.378Z,6,GR86-004-78,0.9,0.108,-0.057,22.01,3.0,,0.0,0.0,
2025-08-15T00:49:14.421Z,6,GR86-004-78,0.9,0.115,-0.043,22.0,3.0,,0.0,0.0,
2025-08-15T00:49:14.464Z,6,GR86-004-78,0.9,0.092,-0.043,21.99,3.0,,0.0,0.0,
2025-08-15T00:49:14.507Z,6,GR86-004-78,0.9,0.099,-0.041,21.97,3.0,4780.0,0.0,0.0,
2025-08-15T00:49:14.550Z,6,GR86-004-78,0.9,0.122,-0.021,21.98,3.0,,0.0,0.0,102.81
2025-08-15T00:49:14.594Z,6,GR86-004-78,0.9,0.091,-0.03,21.98,3.0,,0.0,0.0,
2025-08-15T00:49:14.637Z,6,GR86-004-78,1.0,0.088,-0.011,21.99,3.0,,0.0,0.0,
2025-08-15T00:49:14.680Z,6,GR86-004-78,1.0,0.087,-0.005,21.99,3.0,,0.0,0.0,
2025-08-15T00:49:14.723Z,6,GR86-004-78,1.0,0.082,-0.001,21.99,3.0,4816.0,0.0,0.0,
2025-08-15T00:49:14.768Z,6,GR86-004-78,1.0,0.09,0.018,21.99,3.0,,0.0,0.0,103.56
2025-08-15T00:49:14.811Z,6,GR86-004-78,1.0,0.102,0.007,21.99,3.0,,0.0,0.0,
2025-08-15T00:49:14.854Z,6,GR86-004-78,1.0,0.088,0.007,21.99,3.0,,0.0,0.0,
2025-08-15T00:49:14.898Z,6,GR86-004-78,1.0,0.115,0.005,22.0,3.0,,0.0,0.0,
2025-08-15T00:49:14.941Z,6,GR86-004-78,1.0,0.105,-0.004,21.99,3.0,4850.0,0.0,0.0,
2025-08-15T00:49:14.984Z,6,GR86-004-78,1.0,0.095,0.008,21.99,3.0,,0.0,0.0,104.29
2025-08-15T00:49:15.028Z,6,GR86-004-78,1.0,0.124,0.001,21.99,3.0,,0.0,0.0,
2025-08-15T00:49:15.071Z,6,GR86-004-78,1.0,0.106,-0.013,21.99,3.0,,0.0,0.0,
2025-08-15T00:49:15.114Z,6,GR86-004-78,1.0,0.09,0.012,22.0,3.0,,0.0,0.0,
2025-08-15T00:49:15.157Z,6,GR86-004-78,1.0,0.089,0.0,21.98,3.0,4881.0,0.0,0.0,
2025-08-15T00:49:15.200Z,6,GR86-004-78,1.0,0.074,0.008,21.98,3.0,,0.0,0.0,104.99
2025-08-15T00:49:15.243Z,6,GR86-004-78,1.0,0.113,0.001,21.98,3.0,,0.0,0.0,
2025-08-15T00:49:15.286Z,6,GR86-004-78,1.0,0.106,-0.002,21.99,3.0,,0.0,0.0,
2025-08-15T00:49:15.330Z,6,GR86-004-78,1.0,0.084,-0.004,21.99,3.0,,0.0,0.0,
2025-08-15T00:49:15.373Z,6,GR86-004-78,1.0,0.114,-0.004,21.99,3.0,4915.0,0.0,0.0,
2025-08-15T00:49:15.416Z,6,GR86-004-78,1.0,0.102,-0.03,21.98,3.0,,0.0,0.0,105.7
2025-08-15T00:49:15.459Z,6,GR86-004-78,1.0,0.088,-0.012,21.99,3.0,,0.0,0.0,
2025-08-15T00:49:15.503Z,6,GR86-004-78,1.0,0.096,-0.024,21.99,3.0,,0.0,0.0,
2025-08-15T00:49:15.546Z,6,GR86-004-78,1.0,0.102,-0.026,22.0,3.0,,0.0,0.0,
2025-08-15T00:49:15.589Z,6,GR86-004-78,1.0,0.078,-0.013,21.99,3.0,4955.0,0.0,0.0,
2025-08-15T00:49:15.632Z,6,GR86-004-78,1.0,0.093,-0.013,21.99,3.0,,0.0,0.0,106.42
2025-08-15T00:49:15.676Z,6,GR86-004-78,1.0,0.093,-0.024,22.0,3.0,,0.0,0.0,
2025-08-15T00:49:15.719Z,6,GR86-004-78,1.0,0.111,-0.015,21.99,3.0,,0.0,0.0,
2025-08-15T00:49:15.762Z,6,GR86-004-78,1.0,0.096,-0.017,21.99,3.0,,0.0,0.0,
2025-08-15T00:49:15.805Z,6,GR86-004-78,1.0,0.088,0.002,21.98,3.0,4985.0,0.0,0.0,
2025-08-15T00:49:15.848Z,6,GR86-004-78,1.0,0.1,-0.007,21.99,3.0,,0.0,0.0,107.17
2025-08-15T00:49:15.892Z,6,GR86-004-78,1.0,0.087,-0.008,21.99,3.0,,0.0,0.0,
2025-08-15T00:49:15.935Z,6,GR86-004-78,1.0,0.075,-0.008,21.99,3.0,,0.0,0.0,
2025-08-15T00:49:15.978Z,6,GR86-004-78,1.0,0.108,-0.008,21.99,3.0,,0.0,0.0,
2025-08-15T00:49:16.021Z,6,GR86-004-78,1.0,0.092,-0.019,21.99,3.0,5016.0,0.0,0.0,
2025-08-15T00:49:16.064Z,6,GR86-004-78,1.0,0.096,0.002,21.99,3.0,,0.0,0.0,107.91
2025-08-15T00:49:16.107Z,6,GR86-004-78,1.0,0.116,-0.003,21.99,3.0,,0.0,0.0,
2025-08-15T00:49:16.150Z,6,GR86-004-78,1.0,0.087,-0.007,22.0,3.0,,0.0,0.0,
2025-08-15T00:49:16.194Z,6,GR86-004-78,1.1,0.076,0.005,21.99,3.0,,0.0,0.0,
2025-08-15T00:49:16.237Z,6,GR86-004-78,1.1,0.092,0.004,21.98,3.0,5045.0,0.0,0.0,
2025-08-15T00:49:16.280Z,6,GR86-004-78,1.1,0.083,-0.003,21.99,3.0,,0.0,0.0,109.26
2025-08-15T00:49:16.323Z,6,GR86-004-78,1.1,0.111,0.007,21.99,3.0,,0.0,0.0,
2025-08-15T00:49:16.367Z,6,GR86-004-78,1.1,0.102,0.012,21.99,3.0,,0.0,0.0,
2025-08-15T00:49:16.411Z,6,GR86-004-78,1.1,0.086,-0.003,22.0,3.0,,0.0,0.0,
2025-08-15T00:49:16.454Z,6,GR86-004-78,1.1,0.085,0.015,22.0,3.0,5081.0,0.0,0.0,
2025-08-15T00:49:16.497Z,6,GR86-004-78,1.1,0.073,0.001,22.01,3.0,,0.0,0.0,109.95
2025-08-15T00:49:16.540Z,6,GR86-004-78,1.1,0.07,0.001,21.99,3.0,,0.0,0.0,
2025-08-15T00:49:16.583Z,6,GR86-004-78,1.1,0.106,0.0,22.0,3.0,,0.0,0.0,
2025-08-15T00:49:16.626Z,6,GR86-004-78,1.1,0.103,0.002,22.0,3.0,,0.0,0.0,
2025-08-15T00:49:16.670Z,6,GR86-004-78,1.1,0.088,0.0,21.99,3.0,5141.0,0.0,0.0,
2025-08-15T00:49:16.713Z,6,GR86-004-78,1.2000000000000002,0.081,0.016,22.0,3.0,,0.0,0.0,110.63
2025-08-15T00:49:16.756Z,6,GR86-004-78,1.2000000000000002,0.075,0.007,22.0,3.0,,0.0,0.0,
2025-08-15T00:49:16.799Z,6,GR86-004-78,1.2000000000000002,0.072,0.013,21.99,3.0,,0.0,0.0,
2025-08-15T00:49:16.843Z,6,GR86-004-78,1.2000000000000002,0.103,0.008,22.0,3.0,,0.0,0.0,
2025-08-15T00:49:16.886Z,6,GR86-004-78,1.2000000000000002,0.098,0.004,21.98,3.0,5172.0,0.0,0.0,
2025-08-15T00:49:16.930Z,6,GR86-004-78,1.2000000000000002,0.076,-0.002,21.99,3.0,,0.0,0.0,111.3
2025-08-15T00:49:16.973Z,6,GR86-004-78,1.2000000000000002,0.081,0.009,21.99,3.0,,0.0,0.0,
2025-08-15T00:49:17.016Z,6,GR86-004-78,1.2000000000000002,0.085,-0.003,21.99,3.0,,0.0,0.0,
2025-08-15T00:49:17.059Z,6,GR86-004-78,1.2000000000000002,0.074,0.001,21.99,3.0,,0.0,0.0,
2025-08-15T00:49:17.102Z,6,GR86-004-78,1.2000000000000002,0.094,-0.008,22.0,3.0,5204.0,0.0,0.0,
2025-08-15T00:49:17.145Z,6,GR86-004-78,1.1,0.073,-0.018,21.91,3.0,,0.0,0.0,111.96
2025-08-15T00:49:17.188Z,6,GR86-004-78,0.6000000000000001,0.087,-0.038,4.57,3.0,,0.0,0.0,
2025-08-15T00:49:17.231Z,6,GR86-004-78,0.1,0.059,-0.05,4.43,3.0,,0.0,0.0,
2025-08-15T00:49:17.274Z,6,GR86-004-78,-0.6000000000000001,-0.068,-0.056,4.24,3.0,,0.0,0.0,
2025-08-15T00:49:17.317Z,6,GR86-004-78,-1.2000000000000002,-0.054,-0.051,3.86,3.0,5226.0,0.0,0.0,
2025-08-15T00:49:17.360Z,6,GR86-004-78,-1.5,-0.248,-0.103,3.54,3.0,,0.0,0.0,112.62
2025-08-15T00:49:17.403Z,6,GR86-004-78,-1.7000000000000002,-0.256,-0.091,3.34,3.0,,0.0,0.0,
2025-08-15T00:49:17.446Z,6,GR86-004-78,-2.1,-0.047,-0.16,3.16,3.0,,0.0,0.0,
2025-08-15T00:49:17.491Z,6,GR86-004-78,-2.2,-0.068,-0.145,3.0,3.0,,0.0,0.0,
2025-08-15T00:49:17.534Z,6,GR86-004-78,-2.4000000000000004,-0.082,-0.149,2.82,3.0,5115.0,0.0,0.0,
2025-08-15T00:49:17.578Z,6,GR86-004-78,-2.9000000000000004,-0.159,-0.187,2.7,3.0,,0.0,0.0,113.28
2025-08-15T00:49:17.621Z,6,GR86-004-78,-3.3000000000000003,-0.13,-0.159,2.56,3.0,,0.0,0.0,
2025-08-15T00:49:17.664Z,6,GR86-004-78,-4.2,-0.113,-0.182,2.44,3.0,,0.0,0.0,
2025-08-15T00:49:17.707Z,6,GR86-004-78,-5.4,-0.1,-0.211,2.36,3.0,,0.0,0.0,
2025-08-15T00:49:17.750Z,6,GR86-004-78,-6.300000000000001,-0.127,-0.211,2.35,3.0,5256.0,0.0,0.0,
2025-08-15T00:49:17.794Z,6,GR86-004-78,-6.7,-0.116,-0.238,2.36,3.0,,0.0,0.0,113.37
2025-08-15T00:49:17.837Z,6,GR86-004-78,-7.2,-0.13,-0.26,2.36,3.0,,0.0,0.0,
2025-08-15T00:49:17.880Z,6,GR86-004-78,-7.5,-0.093,-0.272,2.35,3.0,,0.0,0.0,
2025-08-15T00:49:17.923Z,6,GR86-004-78,-7.9,-0.109,-0.296,2.37,3.0,,0.0,0.0,
2025-08-15T00:49:17.967Z,6,GR86-004-78,-8.3,-0.098,-0.301,2.37,3.0,5173.0,0.0,0.0,
2025-08-15T00:49:18.011Z,6,GR86-004-78,-8.5,-0.123,-0.295,2.4,3.0,,0.0,0.0,112.66
2025-08-15T00:49:18.054Z,6,GR86-004-78,-8.8,-0.119,-0.313,2.4,3.0,,0.0,0.0,
2025-08-15T00:49:18.097Z,6,GR86-004-78,-9.0,-0.131,-0.331,2.39,3.0,,0.0,0.0,
2025-08-15T00:49:18.140Z,6,GR86-004-78,-9.1,-0.096,-0.329,2.4,3.0,,0.0,0.0,
2025-08-15T00:49:18.183Z,6,GR86-004-78,-9.4,-0.107,-0.351,2.4,3.0,5122.0,0.0,0.0,
2025-08-15T00:49:18.226Z,6,GR86-004-78,-9.5,-0.098,-0.35,2.42,3.0,,0.0,0.0,111.98
2025-08-15T00:49:18.269Z,6,GR86-004-78,-9.6,-0.107,-0.352,2.42,3.0,,0.0,0.0,
2025-08-15T00:49:18.312Z,6,GR86-004-78,-10.3,-0.129,-0.378,2.45,3.0,,0.0,0.0,
2025-08-15T00:49:18.355Z,6,GR86-004-78,-11.7,-0.143,-0.38,2.45,3.0,,0.0,0.0,
2025-08-15T00:49:18.398Z,6,GR86-004-78,-12.5,-0.098,-0.416,2.46,3.0,5081.0,0.0,0.0,
2025-08-15T00:49:18.441Z,6,GR86-004-78,-13.4,-0.099,-0.417,2.46,3.0,,0.0,0.0,111.27
2025-08-15T00:49:18.484Z,6,GR86-004-78,-13.8,-0.103,-0.424,2.46,3.0,,0.0,0.0,
2025-08-15T00:49:18.571Z,6,GR86-004-78,-13.8,-0.098,-0.422,2.45,3.0,,0.0,0.0,
2025-08-15T00:49:18.614Z,6,GR86-004-78,-13.9,-0.132,-0.441,2.48,3.0,5046.0,0.0,0.0,
2025-08-15T00:49:18.657Z,6,GR86-004-78,-14.2,-0.111,-0.47,2.54,3.0,,0.0,0.0,110.59
2025-08-15T00:49:18.700Z,6,GR86-004-78,-14.5,-0.124,-0.471,3.73,3.0,,0.0,0.0,
2025-08-15T00:49:18.743Z,6,GR86-004-78,-14.9,-0.098,-0.492,4.23,3.0,,0.0,0.0,
2025-08-15T00:49:18.786Z,6,GR86-004-78,-15.7,-0.106,-0.489,4.79,3.0,,0.0,0.0,
2025-08-15T00:49:18.830Z,6,GR86-004-78,-16.5,-0.116,-0.537,4.94,3.0,5029.0,0.0,0.0,
2025-08-15T00:49:18.873Z,6,GR86-004-78,-17.400000000000002,-0.097,-0.533,5.0,3.0,,0.0,0.0,109.34
2025-08-15T00:49:18.916Z,6,GR86-004-78,-18.7,-0.105,-0.549,5.05,3.0,,0.0,0.0,
2025-08-15T00:49:18.959Z,6,GR86-004-78,-21.0,-0.111,-0.549,5.07,3.0,,0.0,0.0,
2025-08-15T00:49:19.002Z,6,GR86-004-78,-23.200000000000003,-0.088,-0.5710000000000001,5.0600000000000005,3.0,,0.0,0.0,
2025-08-15T00:49:19.088Z,6,GR86-004-78,-28.200000000000003,-0.148,-0.64,5.07,3.0,5004.0,0.0,0.0,108.72
2025-08-15T00:49:19.131Z,6,GR86-004-78,-30.0,-0.107,-0.6890000000000001,4.97,3.0,,0.0,0.0,
2025-08-15T00:49:19.174Z,6,GR86-004-78,-31.5,-0.111,-0.756,4.63,3.0,,0.0,0.0,
2025-08-15T00:49:19.260Z,6,GR86-004-78,-32.4,-0.089,-0.783,4.14,3.0,4969.0,0.0,0.0,
2025-08-15T00:49:19.303Z,6,GR86-004-78,-33.5,-0.154,-0.8250000000000001,4.5200000000000005,3.0,,0.0,0.0,108.09
2025-08-15T00:49:19.346Z,6,GR86-004-78,-33.5,-0.116,-0.863,4.62,3.0,,0.0,0.0,
2025-08-15T00:49:19.389Z,6,GR86-004-78,-33.2,-0.128,-0.881,4.68,3.0,,0.0,0.0,
2025-08-15T00:49:19.432Z,6,GR86-004-78,-32.6,-0.148,-0.897,4.59,3.0,,0.0,0.0,
2025-08-15T00:49:19.475Z,6,GR86-004-78,-32.4,-0.137,-0.893,3.39,3.0,4897.0,0.0,0.0,
2025-08-15T00:49:19.518Z,6,GR86-004-78,-32.300000000000004,-0.139,-0.932,3.12,3.0,,0.0,0.0,107.43
2025-08-15T00:49:19.561Z,6,GR86-004-78,-32.300000000000004,-0.108,-0.954,3.01,3.0,,0.0,0.0,
2025-08-15T00:49:19.604Z,6,GR86-004-78,-31.6,-0.12,-0.963,2.87,3.0,,0.0,0.0,
2025-08-15T00:49:19.691Z,6,GR86-004-78,-26.5,-0.117,-0.973,2.57,3.0,4860.0,0.0,0.0,
2025-08-15T00:49:19.734Z,6,GR86-004-78,-25.0,-0.122,-0.956,2.46,3.0,,0.0,0.0,106.62
2025-08-15T00:49:19.777Z,6,GR86-004-78,-24.8,-0.127,-0.914,2.4,3.0,,0.0,0.0,
2025-08-15T00:49:19.820Z,6,GR86-004-78,-25.3,-0.121,-0.896,2.37,3.0,,0.0,0.0,
2025-08-15T00:49:19.906Z,6,GR86-004-78,-25.6,-0.116,-0.863,2.37,3.0,4815.0,0.0,0.0,
2025-08-15T00:49:19.949Z,6,GR86-004-78,-25.700000000000003,-0.123,-0.882,2.36,3.0,,1.86,2.105,105.75
2025-08-15T00:49:19.992Z,6,GR86-004-78,-26.1,-0.153,-0.851,2.37,3.0,,3.1,3.435,
2025-08-15T00:49:20.035Z,6,GR86-004-78,-26.9,-0.135,-0.8180000000000001,2.36,3.0,,3.615,3.845,
2025-08-15T00:49:20.121Z,6,GR86-004-78,-27.9,-0.156,-0.84,2.37,3.0,4783.0,4.18,4.47,
2025-08-15T00:49:20.164Z,6,GR86-004-78,-29.5,-0.164,-0.838,2.37,3.0,,5.16,5.22,104.86
2025-08-15T00:49:20.207Z,6,GR86-004-78,-29.4,-0.193,-0.856,2.39,3.0,,5.905,5.9350000000000005,
2025-08-15T00:49:20.250Z,6,GR86-004-78,-29.200000000000003,-0.185,-0.8290000000000001,2.4,3.0,,5.965,6.2700000000000005,
2025-08-15T00:49:20.293Z,6,GR86-004-78,-29.0,-0.187,-0.851,2.4,3.0,,5.965,6.2700000000000005,
2025-08-15T00:49:20.336Z,6,GR86-004-78,-28.8,-0.174,-0.845,2.4,3.0,4745.0,6.21,6.2700000000000005,
2025-08-15T00:49:20.422Z,6,GR86-004-78,-28.5,-0.168,-0.858,2.42,3.0,,5.86,6.24,103.91
2025-08-15T00:49:20.465Z,6,GR86-004-78,-27.4,-0.133,-0.841,2.42,3.0,,5.4,5.7700000000000005,
2025-08-15T00:49:20.637Z,6,GR86-004-78,-25.9,-0.132,-0.886,2.44,3.0,4681.0,0.0,2.075,102.7
2025-08-15T00:49:20.680Z,6,GR86-004-78,-25.9,-0.112,-0.797,2.46,3.0,,0.0,0.0,
2025-08-15T00:49:20.723Z,6,GR86-004-78,-26.0,-0.098,-0.8,2.46,3.0,,0.0,0.0,
2025-08-15T00:49:20.768Z,6,GR86-004-78,-26.3,-0.107,-0.763,2.47,3.0,4621.0,0.0,0.0,
2025-08-15T00:49:20.811Z,6,GR86-004-78,-26.8,-0.112,-0.792,2.48,3.0,,0.0,0.0,101.49
2025-08-15T00:49:20.854Z,6,GR86-004-78,-27.700000000000003,-0.118,-0.762,2.49,3.0,,0.0,0.0,
2025-08-15T00:49:20.898Z,6,GR86-004-78,-28.9,-0.111,-0.792,2.49,3.0,,0.0,0.0,
2025-08-15T00:49:20.941Z,6,GR86-004-78,-30.3,-0.104,-0.733,2.49,3.0,,0.0,0.0,
2025-08-15T00:49:21.028Z,6,GR86-004-78,-31.6,-0.117,-0.766,2.49,3.0,4592.0,0.0,0.0,100.38
2025-08-15T00:49:21.071Z,6,GR86-004-78,-31.6,-0.111,-0.778,2.48,3.0,,0.0,0.0,
2025-08-15T00:49:21.114Z,6,GR86-004-78,-31.5,-0.111,-0.805,2.49,3.0,,0.0,0.0,
2025-08-15T00:49:21.157Z,6,GR86-004-78,-31.3,-0.113,-0.797,2.49,3.0,,0.0,0.0,
2025-08-15T00:49:21.200Z,6,GR86-004-78,-31.200000000000003,-0.108,-0.799,2.48,3.0,4545.0,0.0,0.0,
2025-08-15T00:49:21.243Z,6,GR86-004-78,-31.1,-0.108,-0.81,2.49,3.0,,0.0,0.0,99.53
2025-08-15T00:49:21.286Z,6,GR86-004-78,-30.9,-0.114,-0.808,2.5,3.0,,0.0,0.0,
2025-08-15T00:49:21.330Z,6,GR86-004-78,-30.8,-0.112,-0.833,4.82,3.0,,0.0,0.0,
2025-08-15T00:49:21.373Z,6,GR86-004-78,-30.8,-0.104,-0.8140000000000001,12.68,3.0,,0.0,0.0,
2025-08-15T00:49:21.416Z,6,GR86-004-78,-31.3,-0.11,-0.852,15.2,3.0,4505.0,0.0,0.0,
2025-08-15T00:49:21.502Z,6,GR86-004-78,-32.2,-0.103,-0.843,16.740000000000002,3.0,,0.0,0.0,98.75
2025-08-15T00:49:21.545Z,6,GR86-004-78,-34.300000000000004,-0.061,-0.871,17.740000000000002,3.0,,0.0,0.0,
2025-08-15T00:49:21.588Z,6,GR86-004-78,-36.0,-0.071,-0.844,18.54,3.0,,0.0,0.0,
2025-08-15T00:49:21.631Z,6,GR86-004-78,-36.7,-0.027,-0.869,18.85,3.0,4467.0,0.0,0.0,
2025-08-15T00:49:21.674Z,6,GR86-004-78,-36.8,0.139,-0.842,18.75,3.0,,0.0,0.0,97.01
2025-08-15T00:49:21.717Z,6,GR86-004-78,-36.8,0.101,-0.869,18.83,3.0,,0.0,0.0,
2025-08-15T00:49:21.760Z,6,GR86-004-78,-36.7,0.024,-0.862,19.53,3.0,,0.0,0.0,
2025-08-15T00:49:21.803Z,6,GR86-004-78,-36.5,0.0,-0.853,20.31,3.0,,0.0,0.0,
2025-08-15T00:49:21.846Z,6,GR86-004-78,-36.4,0.033,-0.845,20.11,3.0,4452.0,0.0,0.0,
2025-08-15T00:49:21.889Z,6,GR86-004-78,-36.4,0.071,-0.767,19.97,3.0,,0.0,0.0,96.33
2025-08-15T00:49:21.932Z,6,GR86-004-78,-36.4,0.055,-0.845,19.87,3.0,,0.0,0.0,
2025-08-15T00:49:21.975Z,6,GR86-004-78,-36.5,0.035,-0.791,19.82,3.0,,0.0,0.0,
2025-08-15T00:49:22.061Z,6,GR86-004-78,-36.5,0.05,-0.874,19.13,3.0,4596.0,0.0,0.0,
2025-08-15T00:49:22.104Z,6,GR86-004-78,-36.3,0.067,-0.881,18.56,3.0,,0.0,0.0,96.16
2025-08-15T00:49:22.147Z,6,GR86-004-78,-35.7,0.036,-0.865,18.28,3.0,,0.0,0.0,
2025-08-15T00:49:22.190Z,6,GR86-004-78,-35.2,0.019,-0.867,18.15,3.0,,0.0,0.0,
2025-08-15T00:49:22.233Z,6,GR86-004-78,-34.7,0.023,-0.8310000000000001,18.08,3.0,,0.0,0.0,
2025-08-15T00:49:22.276Z,6,GR86-004-78,-34.300000000000004,0.034,-0.8250000000000001,17.740000000000002,3.0,4518.0,0.0,0.0,
2025-08-15T00:49:22.319Z,6,GR86-004-78,-33.9,0.042,-0.8280000000000001,17.650000000000002,3.0,,0.0,0.0,96.4
2025-08-15T00:49:22.362Z,6,GR86-004-78,-33.1,0.037,-0.812,17.63,3.0,,0.0,0.0,
2025-08-15T00:49:22.405Z,6,GR86-004-78,-31.700000000000003,0.018,-0.848,17.73,3.0,,0.0,0.0,
2025-08-15T00:49:22.448Z,6,GR86-004-78,-29.700000000000003,0.037,-0.802,17.990000000000002,3.0,,0.0,0.0,
2025-08-15T00:49:22.491Z,6,GR86-004-78,-29.0,0.038,-0.78,18.22,3.0,4523.0,0.0,0.0,
2025-08-15T00:49:22.534Z,6,GR86-004-78,-28.5,0.034,-0.773,18.47,3.0,,0.0,0.0,96.82
2025-08-15T00:49:22.577Z,6,GR86-004-78,-28.200000000000003,0.024,-0.731,18.5,3.0,,0.0,0.0,
2025-08-15T00:49:22.621Z,6,GR86-004-78,-27.8,0.025,-0.752,18.48,3.0,,0.0,0.0,
2025-08-15T00:49:22.664Z,6,GR86-004-78,-27.3,0.048,-0.716,18.35,3.0,,0.0,0.0,
2025-08-15T00:49:22.707Z,6,GR86-004-78,-26.6,0.059,-0.722,17.32,3.0,4524.0,0.0,0.0,
2025-08-15T00:49:22.751Z,6,GR86-004-78,-25.6,0.054,-0.6990000000000001,17.3,3.0,,0.0,0.0,97.06
2025-08-15T00:49:22.794Z,6,GR86-004-78,-24.700000000000003,0.04,-0.676,17.71,3.0,,0.0,0.0,
2025-08-15T00:49:22.837Z,6,GR86-004-78,-23.700000000000003,0.03,-0.674,18.59,3.0,,0.0,0.0,
2025-08-15T00:49:22.880Z,6,GR86-004-78,-23.200000000000003,0.032,-0.634,18.98,3.0,,0.0,0.0,
2025-08-15T00:49:22.923Z,6,GR86-004-78,-23.1,0.031,-0.627,19.17,3.0,4535.0,0.0,0.0,
2025-08-15T00:49:22.967Z,6,GR86-004-78,-23.0,0.064,-0.633,19.36,3.0,,0.0,0.0,97.28
2025-08-15T00:49:23.011Z,6,GR86-004-78,-22.700000000000003,0.062,-0.621,19.72,3.0,,0.0,0.0,
2025-08-15T00:49:23.054Z,6,GR86-004-78,-22.1,0.064,-0.606,19.9,3.0,,0.0,0.0,
2025-08-15T00:49:23.097Z,6,GR86-004-78,-21.5,0.061,-0.595,20.41,3.0,,0.0,0.0,
2025-08-15T00:49:23.140Z,6,GR86-004-78,-20.6,0.061,-0.5740000000000001,22.1,3.0,4533.0,0.0,0.0,
2025-08-15T00:49:23.183Z,6,GR86-004-78,-19.6,0.064,-0.557,22.18,3.0,,0.0,0.0,97.52
2025-08-15T00:49:23.226Z,6,GR86-004-78,-17.2,0.094,-0.547,22.23,3.0,,0.0,0.0,
2025-08-15T00:49:23.269Z,6,GR86-004-78,-15.2,0.115,-0.51,22.23,3.0,,0.0,0.0,
2025-08-15T00:49:23.312Z,6,GR86-004-78,-13.5,0.11,-0.478,22.23,3.0,,0.0,0.0,
2025-08-15T00:49:23.355Z,6,GR86-004-78,-11.6,0.104,-0.445,22.23,3.0,4555.0,0.0,0.0,
2025-08-15T00:49:23.441Z,6,GR86-004-78,-8.700000000000001,0.085,-0.359,22.16,3.0,,0.0,0.0,97.82
2025-08-15T00:49:23.527Z,6,GR86-004-78,-6.1000000000000005,0.116,-0.27,22.1,3.0,,0.0,0.0,
2025-08-15T00:49:23.571Z,6,GR86-004-78,-5.1000000000000005,0.096,-0.215,22.07,3.0,4591.0,0.0,0.0,
2025-08-15T00:49:23.614Z,6,GR86-004-78,-4.3,0.093,-0.195,22.05,3.0,,0.0,0.0,98.25
2025-08-15T00:49:23.657Z,6,GR86-004-78,-3.5,0.094,-0.146,22.01,3.0,,0.0,0.0,
2025-08-15T00:49:23.700Z,6,GR86-004-78,-2.6,0.093,-0.128,21.13,3.0,,0.0,0.0,
2025-08-15T00:49:23.743Z,6,GR86-004-78,-2.2,0.09,-0.1,20.1,3.0,,0.0,0.0,
2025-08-15T00:49:23.786Z,6,GR86-004-78,-1.0,0.091,-0.066,18.24,3.0,4611.0,0.0,0.0,
2025-08-15T00:49:23.829Z,6,GR86-004-78,-0.3,0.078,-0.047,17.27,3.0,,0.0,0.0,98.84
2025-08-15T00:49:23.872Z,6,GR86-004-78,0.5,0.055,-0.023,17.18,3.0,,0.0,0.0,
2025-08-15T00:49:23.915Z,6,GR86-004-78,1.2000000000000002,0.044,-0.008,15.88,3.0,,0.0,0.0,
2025-08-15T00:49:23.958Z,6,GR86-004-78,1.4,0.035,0.018,12.31,3.0,,0.0,0.0,
2025-08-15T00:49:24.045Z,6,GR86-004-78,1.6,0.04,0.04,6.91,3.0,4639.0,0.0,0.0,99.51
2025-08-15T00:49:24.088Z,6,GR86-004-78,1.8,-0.032,0.062,4.82,3.0,,0.0,0.0,
2025-08-15T00:49:24.131Z,6,GR86-004-78,1.8,-0.051,0.062,3.5700000000000003,3.0,,0.0,0.0,
2025-08-15T00:49:24.174Z,6,GR86-004-78,1.8,-0.047,0.061,3.4,3.0,,0.0,0.0,
2025-08-15T00:49:24.260Z,6,GR86-004-78,1.8,-0.039,0.062,3.22,3.0,4649.0,0.0,0.0,100.21
2025-08-15T00:49:24.303Z,6,GR86-004-78,1.9,-0.223,0.062,2.97,3.0,,0.0,0.0,
2025-08-15T00:49:24.346Z,6,GR86-004-78,1.9,-0.051,0.046,2.75,3.0,,0.0,0.0,
2025-08-15T00:49:24.391Z,6,GR86-004-78,1.9,-0.052,0.04,2.82,3.0,,0.0,0.0,
2025-08-15T00:49:24.434Z,6,GR86-004-78,1.9,-0.033,0.055,4.07,3.0,4638.0,0.0,0.0,
2025-08-15T00:49:24.478Z,6,GR86-004-78,1.9,-0.126,0.013,4.94,3.0,,0.0,0.0,100.85
2025-08-15T00:49:24.521Z,6,GR86-004-78,1.9,-0.145,0.029,5.89,3.0,,0.0,0.0,
2025-08-15T00:49:24.564Z,6,GR86-004-78,2.1,-0.108,0.031,5.99,3.0,,0.0,0.0,
2025-08-15T00:49:24.607Z,6,GR86-004-78,3.5,-0.06,0.038,7.7,3.0,,0.0,0.0,
2025-08-15T00:49:24.650Z,6,GR86-004-78,4.1000000000000005,-0.039,0.054,12.94,3.0,4478.0,0.0,0.0,
2025-08-15T00:49:24.693Z,6,GR86-004-78,4.5,-0.061,0.06,17.23,3.0,,0.0,0.0,100.13
2025-08-15T00:49:24.737Z,6,GR86-004-78,4.6000000000000005,-0.064,0.078,17.84,3.0,,0.0,0.0,
2025-08-15T00:49:24.780Z,6,GR86-004-78,4.6000000000000005,-0.07,0.08,18.29,3.0,,0.0,0.0,
2025-08-15T00:49:24.823Z,6,GR86-004-78,4.9,-0.075,0.115,18.76,3.0,,0.0,0.0,
2025-08-15T00:49:24.868Z,6,GR86-004-78,5.0,-0.03,0.113,19.0,3.0,4553.0,0.0,0.0,
2025-08-15T00:49:24.911Z,6,GR86-004-78,5.0,0.016,0.123,18.91,3.0,,0.0,0.0,99.43
2025-08-15T00:49:24.954Z,6,GR86-004-78,5.1000000000000005,0.274,0.136,13.92,3.0,,0.0,0.0,
2025-08-15T00:49:24.997Z,6,GR86-004-78,5.0,0.184,0.107,13.93,3.0,,0.0,0.0,
2025-08-15T00:49:25.040Z,6,GR86-004-78,5.0,-0.018,0.112,18.19,3.0,,0.0,0.0,
2025-08-15T00:49:25.083Z,6,GR86-004-78,5.0,-0.045,0.113,18.02,3.0,4643.0,0.0,0.0,
2025-08-15T00:49:25.126Z,6,GR86-004-78,4.800000000000001,-0.037,0.085,14.82,3.0,,0.0,0.0,98.9
2025-08-15T00:49:25.169Z,6,GR86-004-78,3.8,0.119,0.093,9.6,3.0,,0.0,0.0,
2025-08-15T00:49:25.212Z,6,GR86-004-78,3.2,0.155,0.05,7.53,3.0,,0.0,0.0,
2025-08-15T00:49:25.255Z,6,GR86-004-78,3.1,0.021,0.038,7.69,3.0,,0.0,0.0,
2025-08-15T00:49:25.298Z,6,GR86-004-78,2.8000000000000003,-0.058,0.035,8.1,3.0,4471.0,0.0,0.0,
2025-08-15T00:49:25.341Z,6,GR86-004-78,2.7,-0.054,0.025,7.76,3.0,,0.0,0.0,98.82
2025-08-15T00:49:25.384Z,6,GR86-004-78,2.7,-0.053,0.005,7.69,3.0,,0.0,0.0,
2025-08-15T00:49:25.427Z,6,GR86-004-78,2.7,-0.096,-0.003,10.4,3.0,,0.0,0.0,
2025-08-15T00:49:25.470Z,6,GR86-004-78,2.7,-0.145,-0.011,10.47,3.0,,0.0,0.0,
2025-08-15T00:49:25.513Z,6,GR86-004-78,2.7,-0.105,0.004,9.41,3.0,4484.0,0.0,0.0,
2025-08-15T00:49:25.599Z,6,GR86-004-78,2.6,-0.083,0.007,8.23,3.0,,0.0,0.0,99.14
2025-08-15T00:49:25.685Z,6,GR86-004-78,2.7,-0.095,0.025,8.83,3.0,,0.0,0.0,
2025-08-15T00:49:25.771Z,6,GR86-004-78,3.0,-0.081,0.036,9.67,3.0,4511.0,0.0,0.0,99.37
2025-08-15T00:49:25.814Z,6,GR86-004-78,3.0,-0.098,0.032,11.29,3.0,,0.0,0.0,
2025-08-15T00:49:25.857Z,6,GR86-004-78,3.0,-0.106,0.058,11.4,3.0,,0.0,0.0,
2025-08-15T00:49:25.900Z,6,GR86-004-78,3.0,-0.098,0.042,11.4,3.0,,0.0,0.0,
2025-08-15T00:49:25.943Z,6,GR86-004-78,3.0,-0.1,0.058,11.46,3.0,4525.0,0.0,0.0,
2025-08-15T00:49:25.986Z,6,GR86-004-78,3.2,-0.045,0.044,11.34,3.0,,0.0,0.0,99.0
2025-08-15T00:49:26.029Z,6,GR86-004-78,3.2,-0.056,0.06,11.19,3.0,,0.0,0.0,
2025-08-15T00:49:26.073Z,6,GR86-004-78,3.4000000000000004,-0.06,0.079,11.01,3.0,,0.0,0.0,
2025-08-15T00:49:26.116Z,6,GR86-004-78,3.4000000000000004,-0.045,0.065,10.18,3.0,,0.0,0.0,
2025-08-15T00:49:26.159Z,6,GR86-004-78,3.4000000000000004,0.028,0.09,8.93,3.0,4515.0,0.0,0.0,
2025-08-15T00:49:26.202Z,6,GR86-004-78,3.5,-0.009,0.076,9.31,3.0,,0.0,0.0,98.53
2025-08-15T00:49:26.245Z,6,GR86-004-78,3.7,-0.052,0.094,9.93,3.0,,0.0,0.0,
2025-08-15T00:49:26.288Z,6,GR86-004-78,4.1000000000000005,-0.059,0.095,8.42,3.0,,0.0,0.0,
2025-08-15T00:49:26.331Z,6,GR86-004-78,4.1000000000000005,-0.055,0.102,8.040000000000001,3.0,,0.0,0.0,
2025-08-15T00:49:26.374Z,6,GR86-004-78,4.1000000000000005,-0.068,0.117,7.98,3.0,4587.0,0.0,0.0,
2025-08-15T00:49:26.417Z,6,GR86-004-78,4.1000000000000005,-0.055,0.103,7.88,3.0,,0.0,0.0,98.07
2025-08-15T00:49:26.460Z,6,GR86-004-78,4.1000000000000005,-0.113,0.108,7.9,3.0,,0.0,0.0,
2025-08-15T00:49:26.503Z,6,GR86-004-78,4.1000000000000005,-0.158,0.093,7.92,3.0,,0.0,0.0,
2025-08-15T00:49:26.546Z,6,GR86-004-78,4.1000000000000005,-0.074,0.065,7.45,3.0,,0.0,0.0,
2025-08-15T00:49:26.589Z,6,GR86-004-78,4.1000000000000005,-0.063,0.071,7.0,3.0,4461.0,0.0,0.0,
2025-08-15T00:49:26.632Z,6,GR86-004-78,4.1000000000000005,-0.059,0.059,5.72,3.0,,0.0,0.0,97.93
2025-08-15T00:49:26.675Z,6,GR86-004-78,4.1000000000000005,-0.105,0.075,3.45,3.0,,0.0,0.0,
2025-08-15T00:49:26.718Z,6,GR86-004-78,4.5,-0.119,0.072,3.34,3.0,,0.0,0.0,
2025-08-15T00:49:26.761Z,6,GR86-004-78,4.9,-0.126,0.086,3.25,3.0,,0.0,0.0,
2025-08-15T00:49:26.804Z,6,GR86-004-78,5.1000000000000005,-0.098,0.084,3.16,3.0,4419.0,0.0,0.0,
2025-08-15T00:49:26.847Z,6,GR86-004-78,5.1000000000000005,-0.102,0.09,3.01,3.0,,0.0,0.0,97.9
2025-08-15T00:49:26.890Z,6,GR86-004-78,5.1000000000000005,-0.116,0.11,2.86,3.0,,0.0,0.0,
2025-08-15T00:49:26.933Z,6,GR86-004-78,5.1000000000000005,-0.114,0.107,2.73,3.0,,0.0,0.0,
2025-08-15T00:49:27.019Z,6,GR86-004-78,5.1000000000000005,-0.12,0.106,2.46,3.0,4449.0,0.0,0.0,
2025-08-15T00:49:27.062Z,6,GR86-004-78,5.1000000000000005,-0.114,0.117,2.4,3.0,,0.0,0.0,97.55
2025-08-15T00:49:27.105Z,6,GR86-004-78,5.1000000000000005,-0.103,0.103,2.36,3.0,,0.0,0.0,
2025-08-15T00:49:27.148Z,6,GR86-004-78,5.1000000000000005,-0.107,0.085,2.36,3.0,,4.305,4.595,
2025-08-15T00:49:27.191Z,6,GR86-004-78,5.1000000000000005,-0.134,0.095,2.34,3.0,,5.83,6.09,
2025-08-15T00:49:27.234Z,6,GR86-004-78,5.1000000000000005,-0.168,0.086,2.36,3.0,4448.0,7.585,7.8,
2025-08-15T00:49:27.277Z,6,GR86-004-78,5.1000000000000005,-0.195,0.091,2.35,3.0,,9.25,9.37,96.73
2025-08-15T00:49:27.320Z,6,GR86-004-78,5.1000000000000005,-0.211,0.082,2.36,3.0,,10.115,10.44,
2025-08-15T00:49:27.363Z,6,GR86-004-78,5.1000000000000005,-0.228,0.094,2.36,3.0,,10.44,10.745,
2025-08-15T00:49:27.406Z,6,GR86-004-78,4.5,-0.209,0.074,2.37,3.0,,10.18,10.47,
2025-08-15T00:49:27.449Z,6,GR86-004-78,4.3,-0.209,0.054,2.36,3.0,4428.0,10.115,10.62,
2025-08-15T00:49:27.492Z,6,GR86-004-78,4.3,-0.209,0.056,2.36,3.0,,10.115,10.47,96.22
2025-08-15T00:49:27.535Z,6,GR86-004-78,4.3,-0.219,0.045,2.37,3.0,,10.24,10.5,
2025-08-15T00:49:27.578Z,6,GR86-004-78,4.2,-0.22,0.049,2.36,3.0,,10.115,10.47,
2025-08-15T00:49:27.621Z,6,GR86-004-78,4.0,-0.225,0.043,2.39,3.0,,10.15,10.5,
2025-08-15T00:49:27.664Z,6,GR86-004-78,3.9,-0.221,0.041,2.4,3.0,4399.0,10.115,10.47,
2025-08-15T00:49:27.707Z,6,GR86-004-78,3.3000000000000003,-0.213,0.027,2.4,3.0,,10.115,10.47,95.2
2025-08-15T00:49:27.750Z,6,GR86-004-78,2.5,-0.215,0.007,2.4,3.0,,10.115,10.56,
2025-08-15T00:49:27.793Z,6,GR86-004-78,1.5,-0.208,0.001,2.42,3.0,,9.935,10.44,
2025-08-15T00:49:27.837Z,6,GR86-004-78,0.1,-0.206,-0.017,2.43,3.0,,9.78,10.21,
2025-08-15T00:49:27.880Z,6,GR86-004-78,-1.3,-0.21,-0.027,2.43,3.0,4281.0,9.25,9.78,
2025-08-15T00:49:27.923Z,6,GR86-004-78,-2.6,-0.2,-0.059,2.43,3.0,,8.805,9.63,93.94
2025-08-15T00:49:27.968Z,6,GR86-004-78,-3.5,-0.213,-0.068,2.45,3.0,,8.36,8.805,
2025-08-15T00:49:28.011Z,6,GR86-004-78,-3.9,-0.222,-0.086,2.46,3.0,,8.33,8.700000000000001,
2025-08-15T00:49:28.054Z,6,GR86-004-78,-3.9,-0.214,-0.104,2.45,3.0,,8.040000000000001,8.700000000000001,
2025-08-15T00:49:28.098Z,6,GR86-004-78,-3.9,-0.208,-0.119,2.46,3.0,4225.0,8.01,8.545,
2025-08-15T00:49:28.141Z,6,GR86-004-78,-3.8,-0.203,-0.117,2.48,3.0,,8.01,8.36,92.76
2025-08-15T00:49:28.184Z,6,GR86-004-78,-3.3000000000000003,-0.214,-0.121,2.49,3.0,,7.890000000000001,8.36,
2025-08-15T00:49:28.228Z,6,GR86-004-78,-2.3000000000000003,-0.195,-0.128,2.49,3.0,,7.675,8.395,
2025-08-15T00:49:28.271Z,6,GR86-004-78,-2.0,-0.191,-0.117,2.47,3.0,,7.675,8.33,
2025-08-15T00:49:28.314Z,6,GR86-004-78,-1.8,-0.186,-0.097,2.48,3.0,4186.0,7.675,8.36,
2025-08-15T00:49:28.357Z,6,GR86-004-78,-1.7000000000000002,-0.194,-0.091,2.49,3.0,,7.675,8.01,91.65
2025-08-15T00:49:28.400Z,6,GR86-004-78,-1.3,-0.186,-0.077,2.49,3.0,,7.675,8.36,
2025-08-15T00:49:28.443Z,6,GR86-004-78,-1.0,-0.191,-0.058,2.48,3.0,,7.675,8.01,
2025-08-15T00:49:28.486Z,6,GR86-004-78,-0.8,-0.207,-0.03,2.49,3.0,,7.46,8.01,
2025-08-15T00:49:28.530Z,6,GR86-004-78,-0.8,-0.192,-0.028,2.49,3.0,4139.0,6.775,7.525,
2025-08-15T00:49:28.573Z,6,GR86-004-78,-0.8,-0.193,-0.025,2.49,3.0,,5.11,5.8,90.64
2025-08-15T00:49:28.616Z,6,GR86-004-78,-0.8,-0.142,-0.02,2.49,3.0,,2.855,3.495,
2025-08-15T00:49:28.659Z,6,GR86-004-78,-0.8,-0.116,-0.025,2.49,3.0,,0.0,2.015,
2025-08-15T00:49:28.702Z,6,GR86-004-78,-0.8,-0.101,-0.022,2.49,3.0,,0.0,0.0,
2025-08-15T00:49:28.746Z,6,GR86-004-78,-0.8,-0.13,-0.005,2.49,3.0,4097.0,0.0,0.0,
2025-08-15T00:49:28.789Z,6,GR86-004-78,-0.8,-0.123,0.0,2.49,3.0,,0.0,0.0,89.74
2025-08-15T00:49:28.832Z,6,GR86-004-78,-0.8,-0.128,-0.016,2.5,3.0,,0.0,0.0,
2025-08-15T00:49:28.875Z,6,GR86-004-78,-0.8,-0.117,-0.006,2.5,3.0,,0.0,0.0,
2025-08-15T00:49:28.918Z,6,GR86-004-78,-0.8,-0.137,-0.013,2.48,3.0,,0.0,0.0,
2025-08-15T00:49:28.961Z,6,GR86-004-78,-0.6000000000000001,-0.127,-0.021,2.51,3.0,4062.0,0.0,0.0,
2025-08-15T00:49:29.004Z,6,GR86-004-78,-0.3,-0.119,-0.028,2.49,3.0,,0.0,0.0,88.87
2025-08-15T00:49:29.047Z,6,GR86-004-78,0.9,-0.101,-0.013,2.5,3.0,,0.0,0.0,
2025-08-15T00:49:29.090Z,6,GR86-004-78,1.7000000000000002,-0.11,-0.013,2.5,3.0,,0.0,0.0,
2025-08-15T00:49:29.133Z,6,GR86-004-78,2.1,-0.11,0.017,2.49,3.0,,0.0,0.0,
2025-08-15T00:49:29.176Z,6,GR86-004-78,2.3000000000000003,-0.093,0.027,2.5,3.0,4055.0,0.0,0.0,
2025-08-15T00:49:29.219Z,6,GR86-004-78,2.7,-0.102,0.05,2.52,3.0,,0.0,0.0,88.48
2025-08-15T00:49:29.262Z,6,GR86-004-78,3.4000000000000004,-0.122,0.048,2.5,3.0,,0.0,0.0,
2025-08-15T00:49:29.305Z,6,GR86-004-78,4.2,-0.13,0.067,2.52,3.0,,0.0,0.0,
2025-08-15T00:49:29.348Z,6,GR86-004-78,4.3,-0.083,0.077,2.52,3.0,,0.0,0.0,
2025-08-15T00:49:29.391Z,6,GR86-004-78,4.3,-0.088,0.073,2.51,3.0,4038.0,0.0,0.0,
2025-08-15T00:49:29.434Z,6,GR86-004-78,4.3,-0.076,0.071,2.51,3.0,,0.0,0.0,88.19
2025-08-15T00:49:29.477Z,6,GR86-004-78,4.3,-0.09,0.062,2.51,3.0,,0.0,0.0,
2025-08-15T00:49:29.520Z,6,GR86-004-78,4.3,-0.096,0.07,2.5,3.0,,0.0,0.0,
2025-08-15T00:49:29.563Z,6,GR86-004-78,4.3,-0.107,0.074,2.52,3.0,,0.0,0.0,
2025-08-15T00:49:29.606Z,6,GR86-004-78,4.1000000000000005,-0.109,0.073,2.52,3.0,4019.0,0.0,0.0,
2025-08-15T00:49:29.650Z,6,GR86-004-78,4.0,-0.117,0.046,2.51,3.0,,0.0,0.0,87.92
2025-08-15T00:49:29.694Z,6,GR86-004-78,4.0,-0.109,0.057,2.51,3.0,,0.0,0.0,
2025-08-15T00:49:29.737Z,6,GR86-004-78,3.9,-0.106,0.029,2.51,3.0,,0.0,0.0,
2025-08-15T00:49:29.780Z,6,GR86-004-78,3.8,-0.09,0.028,2.52,3.0,,0.0,0.0,
2025-08-15T00:49:29.823Z,6,GR86-004-78,3.8,-0.079,0.024,2.51,3.0,4009.0,0.0,0.0,
2025-08-15T00:49:29.868Z,6,GR86-004-78,3.8,-0.136,0.028,2.5,3.0,,0.0,0.0,87.43
2025-08-15T00:49:29.911Z,6,GR86-004-78,3.8,-0.151,0.023,2.51,3.0,,0.0,0.0,
2025-08-15T00:49:29.954Z,6,GR86-004-78,3.8,-0.118,0.037,2.5,3.0,,0.0,0.0,
2025-08-15T00:49:30.083Z,6,GR86-004-78,3.7,-0.13,0.026,2.53,3.0,,0.0,0.0,87.14
2025-08-15T00:49:30.126Z,6,GR86-004-78,3.7,-0.11,0.027,2.5,3.0,4010.0,0.0,0.0,
2025-08-15T00:49:30.169Z,6,GR86-004-78,3.5,-0.115,0.025,2.49,3.0,,0.0,0.0,
2025-08-15T00:49:30.212Z,6,GR86-004-78,3.4000000000000004,-0.112,0.03,2.5,3.0,,0.0,0.0,
2025-08-15T00:49:30.255Z,6,GR86-004-78,3.3000000000000003,-0.128,0.038,2.52,3.0,3986.0,0.0,0.0,
2025-08-15T00:49:30.298Z,6,GR86-004-78,3.2,-0.138,0.023,2.53,3.0,,0.0,0.0,86.92
2025-08-15T00:49:30.341Z,6,GR86-004-78,3.2,-0.14,0.029,2.5,3.0,,0.0,0.0,
2025-08-15T00:49:30.384Z,6,GR86-004-78,3.2,-0.12,0.036,2.5,3.0,,0.0,0.0,
2025-08-15T00:49:30.427Z,6,GR86-004-78,2.9000000000000004,-0.09,0.012,2.51,3.0,,0.0,0.0,
2025-08-15T00:49:30.471Z,6,GR86-004-78,2.9000000000000004,-0.105,0.012,2.5,3.0,3966.0,0.0,0.0,
2025-08-15T00:49:30.514Z,6,GR86-004-78,2.9000000000000004,-0.122,0.016,2.51,3.0,,0.0,0.0,86.67
2025-08-15T00:49:30.557Z,6,GR86-004-78,2.8000000000000003,-0.122,0.012,2.51,3.0,,0.0,0.0,
2025-08-15T00:49:30.600Z,6,GR86-004-78,2.8000000000000003,-0.117,0.017,2.5,3.0,,0.0,0.0,
2025-08-15T00:49:30.643Z,6,GR86-004-78,2.7,-0.114,0.022,2.5,3.0,,0.0,0.0,
2025-08-15T00:49:30.686Z,6,GR86-004-78,2.6,-0.089,-0.008,2.51,3.0,3957.0,0.0,0.0,
2025-08-15T00:49:30.730Z,6,GR86-004-78,2.6,-0.089,-0.014,2.5,3.0,,0.0,0.0,86.42
2025-08-15T00:49:30.773Z,6,GR86-004-78,2.6,-0.1,-0.004,2.5,3.0,,0.0,0.0,
2025-08-15T00:49:30.816Z,6,GR86-004-78,2.5,-0.088,-0.007,2.5,3.0,,0.0,0.0,
2025-08-15T00:49:30.859Z,6,GR86-004-78,2.5,-0.093,-0.005,2.52,3.0,,0.0,0.0,
2025-08-15T00:49:30.902Z,6,GR86-004-78,2.5,-0.109,-0.005,2.5,3.0,3948.0,0.0,0.0,
2025-08-15T00:49:30.945Z,6,GR86-004-78,2.3000000000000003,-0.126,-0.003,2.51,3.0,,0.0,0.0,86.18
2025-08-15T00:49:30.988Z,6,GR86-004-78,2.0,-0.085,-0.019,2.49,3.0,,0.0,0.0,
2025-08-15T00:49:31.031Z,6,GR86-004-78,1.9,-0.08,-0.005,2.51,3.0,,0.0,0.0,
2025-08-15T00:49:31.074Z,6,GR86-004-78,1.7000000000000002,-0.083,-0.015,2.5,3.0,,0.0,0.0,
2025-08-15T00:49:31.117Z,6,GR86-004-78,1.5,-0.09,-0.007,2.51,3.0,3939.0,0.0,0.0,
2025-08-15T00:49:31.160Z,6,GR86-004-78,1.1,-0.107,-0.015,2.51,3.0,,0.0,0.0,85.94
2025-08-15T00:49:31.203Z,6,GR86-004-78,0.6000000000000001,-0.105,-0.017,2.5,3.0,,0.0,0.0,
2025-08-15T00:49:31.246Z,6,GR86-004-78,0.0,-0.087,-0.027,2.51,3.0,,0.0,0.0,
2025-08-15T00:49:31.291Z,6,GR86-004-78,-0.1,-0.078,-0.03,2.5,3.0,,0.0,0.0,
2025-08-15T00:49:31.334Z,6,GR86-004-78,-0.1,-0.085,-0.032,2.5,3.0,3931.0,0.0,0.0,
2025-08-15T00:49:31.378Z,6,GR86-004-78,-0.2,-0.082,-0.042,2.5,3.0,,0.0,0.0,85.71000000000001
2025-08-15T00:49:31.421Z,6,GR86-004-78,-0.2,-0.077,-0.033,2.5,3.0,,0.0,0.0,
2025-08-15T00:49:31.464Z,6,GR86-004-78,-0.2,-0.094,-0.028,2.5,3.0,,0.0,0.0,
2025-08-15T00:49:31.507Z,6,GR86-004-78,-0.2,-0.103,-0.047,2.5,3.0,,0.0,0.0,
2025-08-15T00:49:31.594Z,6,GR86-004-78,-0.2,-0.081,-0.042,2.5,3.0,3919.0,0.0,0.0,85.47
2025-08-15T00:49:31.637Z,6,GR86-004-78,-0.2,-0.066,-0.05,2.52,3.0,,0.0,0.0,
2025-08-15T00:49:31.680Z,6,GR86-004-78,-0.2,-0.083,-0.053,2.52,3.0,,0.0,0.0,
2025-08-15T00:49:31.811Z,6,GR86-004-78,-0.2,-0.091,-0.035,2.5,3.0,3899.0,0.0,0.0,85.17
2025-08-15T00:49:31.854Z,6,GR86-004-78,-0.1,-0.075,-0.03,2.5,3.0,,0.0,0.0,
2025-08-15T00:49:31.897Z,6,GR86-004-78,-0.1,-0.084,-0.028,2.51,3.0,,0.0,0.0,
2025-08-15T00:49:31.940Z,6,GR86-004-78,-0.1,-0.084,-0.034,2.5500000000000003,3.0,,0.0,0.0,
2025-08-15T00:49:31.983Z,6,GR86-004-78,-0.1,-0.085,-0.018,3.19,3.0,3886.0,0.0,0.0,
2025-08-15T00:49:32.026Z,6,GR86-004-78,-0.1,-0.084,-0.027,4.43,3.0,,0.0,0.0,84.9
2025-08-15T00:49:32.069Z,6,GR86-004-78,-0.1,-0.084,-0.019,4.72,3.0,,0.0,0.0,
2025-08-15T00:49:32.112Z,6,GR86-004-78,-0.1,-0.086,-0.034,4.87,3.0,,0.0,0.0,
2025-08-15T00:49:32.155Z,6,GR86-004-78,-0.1,-0.084,-0.023,4.96,3.0,,0.0,0.0,
2025-08-15T00:49:32.241Z,6,GR86-004-78,-0.1,-0.068,-0.033,5.0,3.0,3873.0,0.0,0.0,84.65
2025-08-15T00:49:32.284Z,6,GR86-004-78,-0.1,-0.039,-0.02,5.09,3.0,,0.0,0.0,
2025-08-15T00:49:32.327Z,6,GR86-004-78,-0.1,-0.06,-0.013,5.7,3.0,,0.0,0.0,
2025-08-15T00:49:32.371Z,6,GR86-004-78,-0.1,-0.074,-0.024,6.65,3.0,,0.0,0.0,
2025-08-15T00:49:32.414Z,6,GR86-004-78,-0.1,-0.053,-0.016,7.49,3.0,3863.0,0.0,0.0,
2025-08-15T00:49:32.457Z,6,GR86-004-78,-0.1,-0.036,-0.023,7.59,3.0,,0.0,0.0,84.41
2025-08-15T00:49:32.500Z,6,GR86-004-78,-0.1,-0.042,-0.012,7.6,3.0,,0.0,0.0,
2025-08-15T00:49:32.543Z,6,GR86-004-78,-0.1,-0.058,-0.026,7.55,3.0,,0.0,0.0,
2025-08-15T00:49:32.586Z,6,GR86-004-78,-0.1,-0.064,-0.016,7.27,3.0,,0.0,0.0,
2025-08-15T00:49:32.673Z,6,GR86-004-78,-0.1,-0.062,-0.031,6.3,3.0,3884.0,0.0,0.0,84.10000000000001
2025-08-15T00:49:32.716Z,6,GR86-004-78,-0.1,-0.053,-0.031,5.38,3.0,,0.0,0.0,
2025-08-15T00:49:32.759Z,6,GR86-004-78,-0.1,-0.055,-0.017,3.16,3.0,,0.0,0.0,
2025-08-15T00:49:32.802Z,6,GR86-004-78,-0.1,-0.062,-0.022,2.78,3.0,,0.0,0.0,
2025-08-15T00:49:32.974Z,6,GR86-004-78,-0.1,-0.065,-0.038,2.4,3.0,,0.0,0.0,
2025-08-15T00:49:33.103Z,6,GR86-004-78,-0.2,-0.119,-0.034,2.36,3.0,,0.0,0.0,84.0
2025-08-15T00:49:33.232Z,6,GR86-004-78,-0.3,-0.089,-0.041,2.37,3.0,,0.0,0.0,
2025-08-15T00:49:33.319Z,6,GR86-004-78,-0.3,-0.071,-0.04,2.38,3.0,3836.0,0.0,0.0,84.08
2025-08-15T00:49:33.362Z,6,GR86-004-78,-0.4,-0.109,-0.027,2.39,3.0,,0.0,0.0,
2025-08-15T00:49:33.405Z,6,GR86-004-78,-0.5,-0.114,-0.029,2.39,3.0,,0.0,0.0,
2025-08-15T00:49:33.448Z,6,GR86-004-78,-0.5,-0.087,-0.044,2.4,3.0,,0.0,0.0,
2025-08-15T00:49:33.491Z,6,GR86-004-78,-0.5,-0.08,-0.037,2.4,3.0,3831.0,0.0,0.0,
2025-08-15T00:49:33.534Z,6,GR86-004-78,-0.5,-0.101,-0.03,2.4,3.0,,0.0,0.0,83.60000000000001
2025-08-15T00:49:33.577Z,6,GR86-004-78,-0.5,-0.105,-0.038,2.4,3.0,,0.0,0.0,
2025-08-15T00:49:33.621Z,6,GR86-004-78,-0.5,-0.127,-0.038,2.43,3.0,,0.0,0.0,
2025-08-15T00:49:33.664Z,6,GR86-004-78,-0.5,-0.112,-0.017,2.42,3.0,,0.0,0.0,
2025-08-15T00:49:33.707Z,6,GR86-004-78,-0.5,-0.089,-0.029,2.42,3.0,3823.0,0.0,0.0,
2025-08-15T00:49:33.750Z,6,GR86-004-78,-0.5,-0.091,-0.045,2.57,3.0,,0.0,0.0,83.32000000000001
2025-08-15T00:49:33.794Z,6,GR86-004-78,-0.5,-0.118,-0.018,4.2700000000000005,3.0,,0.0,0.0,
2025-08-15T00:49:33.837Z,6,GR86-004-78,-0.5,-0.115,-0.013,4.72,3.0,,0.0,0.0,
2025-08-15T00:49:33.880Z,6,GR86-004-78,-0.5,-0.116,-0.024,4.78,3.0,,0.0,0.0,
2025-08-15T00:49:33.923Z,6,GR86-004-78,-0.5,-0.087,-0.018,5.0600000000000005,3.0,3809.0,0.0,0.0,
2025-08-15T00:49:33.968Z,6,GR86-004-78,-0.5,-0.104,-0.011,12.07,3.0,,0.0,0.0,83.07000000000001
2025-08-15T00:49:34.011Z,6,GR86-004-78,-0.5,-0.08,-0.026,15.57,3.0,,0.0,0.0,
2025-08-15T00:49:34.054Z,6,GR86-004-78,-0.5,-0.063,-0.028,15.67,3.0,,0.0,0.0,
2025-08-15T00:49:34.098Z,6,GR86-004-78,-0.5,-0.051,-0.012,16.92,3.0,,0.0,0.0,
2025-08-15T00:49:34.141Z,6,GR86-004-78,-0.5,-0.05,-0.027,18.12,3.0,3798.0,0.0,0.0,
2025-08-15T00:49:34.184Z,6,GR86-004-78,-0.5,-0.037,-0.034,19.61,3.0,,0.0,0.0,82.8
2025-08-15T00:49:34.228Z,6,GR86-004-78,-0.5,-0.001,-0.017,19.97,3.0,,0.0,0.0,
2025-08-15T00:49:34.271Z,6,GR86-004-78,-0.5,0.216,-0.005,19.42,3.0,,0.0,0.0,
2025-08-15T00:49:34.314Z,6,GR86-004-78,-0.5,0.156,-0.042,19.83,3.0,,0.0,0.0,
2025-08-15T00:49:34.357Z,6,GR86-004-78,-0.5,0.033,-0.025,21.65,3.0,3834.0,0.0,0.0,
2025-08-15T00:49:34.400Z,6,GR86-004-78,-0.5,0.008,-0.035,21.92,3.0,,0.0,0.0,82.53
2025-08-15T00:49:34.443Z,6,GR86-004-78,-0.5,0.103,-0.036,21.91,3.0,,0.0,0.0,
2025-08-15T00:49:34.486Z,6,GR86-004-78,-0.5,0.16,-0.022,21.56,3.0,,0.0,0.0,
2025-08-15T00:49:34.530Z,6,GR86-004-78,-0.5,0.106,-0.028,21.73,3.0,,0.0,0.0,
2025-08-15T00:49:34.573Z,6,GR86-004-78,-0.5,0.051,-0.037,21.87,3.0,3986.0,0.0,0.0,
2025-08-15T00:49:34.616Z,6,GR86-004-78,-0.5,0.094,-0.028,21.89,3.0,,0.0,0.0,82.43
2025-08-15T00:49:34.659Z,6,GR86-004-78,-0.5,0.141,-0.044,21.85,3.0,,0.0,0.0,
2025-08-15T00:49:34.702Z,6,GR86-004-78,-0.5,0.175,-0.035,21.77,3.0,,0.0,0.0,
2025-08-15T00:49:34.745Z,6,GR86-004-78,-0.4,0.146,-0.048,21.53,3.0,,0.0,0.0,
2025-08-15T00:49:34.788Z,6,GR86-004-78,-0.4,0.075,-0.021,20.73,3.0,3963.0,0.0,0.0,
2025-08-15T00:49:34.831Z,6,GR86-004-78,-0.4,0.091,-0.023,19.87,3.0,,0.0,0.0,83.12
2025-08-15T00:49:34.874Z,6,GR86-004-78,-0.3,0.122,-0.022,18.88,3.0,,0.0,0.0,
2025-08-15T00:49:34.917Z,6,GR86-004-78,-0.3,0.109,-0.025,13.65,3.0,,0.0,0.0,
2025-08-15T00:49:34.960Z,6,GR86-004-78,-0.3,0.1,-0.02,4.95,3.0,,0.0,0.0,
2025-08-15T00:49:35.003Z,6,GR86-004-78,-0.2,0.082,-0.029,3.79,3.0,3975.0,0.0,0.0,
2025-08-15T00:49:35.047Z,6,GR86-004-78,-0.1,-0.076,0.0,3.67,3.0,,0.0,0.0,84.17
2025-08-15T00:49:35.090Z,6,GR86-004-78,-0.1,-0.062,-0.009,3.58,3.0,,0.0,0.0,
2025-08-15T00:49:35.133Z,6,GR86-004-78,-0.1,-0.286,-0.036,3.42,3.0,,0.0,0.0,
2025-08-15T00:49:35.176Z,6,GR86-004-78,-0.1,-0.236,0.002,3.27,3.0,,0.0,0.0,
2025-08-15T00:49:35.262Z,6,GR86-004-78,0.0,-0.069,-0.023,3.16,3.0,4002.0,0.0,0.0,85.34
2025-08-15T00:49:35.305Z,6,GR86-004-78,0.1,-0.044,-0.012,2.81,3.0,,0.0,0.0,
2025-08-15T00:49:35.348Z,6,GR86-004-78,0.1,-0.064,-0.044,2.51,3.0,,0.0,0.0,
2025-08-15T00:49:35.391Z,6,GR86-004-78,0.3,-0.183,-0.02,2.41,3.0,,0.0,0.0,
2025-08-15T00:49:35.477Z,6,GR86-004-78,0.3,-0.177,-0.014,2.38,3.0,3842.0,0.0,0.0,86.67
2025-08-15T00:49:35.520Z,6,GR86-004-78,0.5,-0.068,-0.015,2.34,3.0,,0.0,0.0,
2025-08-15T00:49:35.563Z,6,GR86-004-78,0.6000000000000001,-0.081,-0.005,2.32,3.0,,0.0,0.0,
2025-08-15T00:49:35.606Z,6,GR86-004-78,0.7000000000000001,-0.117,-0.027,2.34,3.0,,0.0,0.0,
2025-08-15T00:49:35.649Z,6,GR86-004-78,0.8,-0.103,-0.008,2.35,3.0,4027.0,0.0,0.0,
2025-08-15T00:49:35.735Z,6,GR86-004-78,0.8,-0.077,-0.014,2.35,3.0,,0.0,0.0,86.38
2025-08-15T00:49:35.821Z,6,GR86-004-78,0.8,-0.105,-0.007,2.37,3.0,,0.0,0.0,
2025-08-15T00:49:35.864Z,6,GR86-004-78,-0.1,-0.13,-0.021,2.37,3.0,4012.0,0.0,0.0,
2025-08-15T00:49:35.907Z,6,GR86-004-78,-1.7000000000000002,-0.078,-0.052,2.37,3.0,,0.0,0.0,86.02
2025-08-15T00:49:35.950Z,6,GR86-004-78,-2.7,-0.082,-0.066,2.37,3.0,,0.0,0.0,
2025-08-15T00:49:36.037Z,6,GR86-004-78,-3.6,-0.09,-0.084,2.4,3.0,,0.0,0.0,
2025-08-15T00:49:36.080Z,6,GR86-004-78,-4.3,-0.103,-0.115,2.41,3.0,3926.0,0.0,0.0,
2025-08-15T00:49:36.123Z,6,GR86-004-78,-4.5,-0.12,-0.118,2.42,3.0,,0.0,0.0,85.67
2025-08-15T00:49:36.168Z,6,GR86-004-78,-4.800000000000001,-0.08,-0.158,2.43,3.0,,0.0,0.0,
2025-08-15T00:49:36.211Z,6,GR86-004-78,-5.0,-0.078,-0.146,2.46,3.0,,0.0,0.0,
2025-08-15T00:49:36.254Z,6,GR86-004-78,-5.1000000000000005,-0.083,-0.154,2.46,3.0,,0.0,0.0,
2025-08-15T00:49:36.340Z,6,GR86-004-78,-5.1000000000000005,-0.093,-0.149,2.46,3.0,3906.0,0.0,0.0,85.33
2025-08-15T00:49:36.383Z,6,GR86-004-78,-5.4,-0.12,-0.141,2.48,3.0,,0.0,0.0,
2025-08-15T00:49:36.426Z,6,GR86-004-78,-6.2,-0.066,-0.159,2.49,3.0,,0.0,0.0,
2025-08-15T00:49:36.469Z,6,GR86-004-78,-7.1000000000000005,-0.071,-0.162,2.5,3.0,,0.0,0.0,
2025-08-15T00:49:36.555Z,6,GR86-004-78,-8.200000000000001,-0.088,-0.165,2.48,3.0,3890.0,0.0,0.0,84.97
2025-08-15T00:49:36.598Z,6,GR86-004-78,-10.7,-0.103,-0.184,2.48,3.0,,0.0,0.0,
2025-08-15T00:49:36.641Z,6,GR86-004-78,-11.8,-0.107,-0.204,2.49,3.0,,0.0,0.0,
2025-08-15T00:49:36.684Z,6,GR86-004-78,-12.7,-0.101,-0.222,2.49,3.0,,0.0,0.0,
2025-08-15T00:49:36.727Z,6,GR86-004-78,-13.8,-0.087,-0.263,2.49,3.0,3874.0,0.0,0.0,
2025-08-15T00:49:36.814Z,6,GR86-004-78,-14.4,-0.087,-0.285,2.48,3.0,,0.0,0.0,84.67
2025-08-15T00:49:36.857Z,6,GR86-004-78,-15.4,-0.1,-0.317,2.49,3.0,,0.0,0.0,
2025-08-15T00:49:36.900Z,6,GR86-004-78,-15.6,-0.122,-0.326,2.48,3.0,,0.0,0.0,
2025-08-15T00:49:36.943Z,6,GR86-004-78,-15.9,-0.118,-0.325,2.5,3.0,3863.0,0.0,0.0,
2025-08-15T00:49:36.986Z,6,GR86-004-78,-16.3,-0.09,-0.357,2.5,3.0,,0.0,0.0,84.35000000000001
2025-08-15T00:49:37.029Z,6,GR86-004-78,-16.3,-0.082,-0.367,2.5,3.0,,0.0,0.0,
2025-08-15T00:49:37.072Z,6,GR86-004-78,-16.2,-0.109,-0.35,2.5,3.0,,0.0,0.0,
2025-08-15T00:49:37.115Z,6,GR86-004-78,-16.3,-0.112,-0.347,2.52,3.0,,0.0,0.0,
2025-08-15T00:49:37.201Z,6,GR86-004-78,-17.1,-0.11,-0.349,2.51,3.0,3851.0,0.0,0.0,84.04
2025-08-15T00:49:37.244Z,6,GR86-004-78,-17.7,-0.097,-0.366,2.51,3.0,,0.0,0.0,
2025-08-15T00:49:37.287Z,6,GR86-004-78,-18.8,-0.103,-0.363,2.5,3.0,,0.0,0.0,
2025-08-15T00:49:37.331Z,6,GR86-004-78,-19.700000000000003,-0.131,-0.367,2.52,3.0,,0.0,0.0,
2025-08-15T00:49:37.374Z,6,GR86-004-78,-20.0,-0.111,-0.377,2.51,3.0,3833.0,0.0,0.0,
2025-08-15T00:49:37.417Z,6,GR86-004-78,-20.0,-0.112,-0.395,2.5,3.0,,0.0,0.0,83.72
2025-08-15T00:49:37.460Z,6,GR86-004-78,-20.0,-0.103,-0.391,2.51,3.0,,0.0,0.0,
2025-08-15T00:49:37.503Z,6,GR86-004-78,-20.0,-0.101,-0.42,2.51,3.0,,0.0,0.0,
2025-08-15T00:49:37.546Z,6,GR86-004-78,-20.3,-0.11,-0.395,2.52,3.0,,0.0,0.0,
2025-08-15T00:49:37.591Z,6,GR86-004-78,-20.5,-0.12,-0.421,2.52,3.0,3811.0,0.0,0.0,
2025-08-15T00:49:37.634Z,6,GR86-004-78,-20.6,-0.103,-0.425,2.51,3.0,,0.0,0.0,83.37
2025-08-15T00:49:37.678Z,6,GR86-004-78,-20.8,-0.117,-0.444,2.51,3.0,,0.0,0.0,
2025-08-15T00:49:37.721Z,6,GR86-004-78,-21.1,-0.101,-0.429,2.52,3.0,,0.0,0.0,
2025-08-15T00:49:37.764Z,6,GR86-004-78,-21.6,-0.083,-0.463,2.5,3.0,,0.0,0.0,
2025-08-15T00:49:37.807Z,6,GR86-004-78,-21.9,-0.105,-0.432,2.5,3.0,3798.0,0.0,0.0,
2025-08-15T00:49:37.850Z,6,GR86-004-78,-22.1,-0.114,-0.455,2.5,3.0,,0.0,0.0,83.04
2025-08-15T00:49:37.894Z,6,GR86-004-78,-22.200000000000003,-0.101,-0.442,2.51,3.0,,0.0,0.0,
2025-08-15T00:49:37.937Z,6,GR86-004-78,-22.200000000000003,-0.096,-0.46,2.5,3.0,,0.0,0.0,
2025-08-15T00:49:37.980Z,6,GR86-004-78,-22.6,-0.086,-0.433,2.5,3.0,,0.0,0.0,
2025-08-15T00:49:38.023Z,6,GR86-004-78,-23.200000000000003,-0.082,-0.46,2.5,3.0,3779.0,0.0,0.0,
2025-08-15T00:49:38.068Z,6,GR86-004-78,-24.1,-0.09,-0.441,2.52,3.0,,0.0,0.0,82.33
2025-08-15T00:49:38.111Z,6,GR86-004-78,-25.1,-0.099,-0.474,2.52,3.0,,0.0,0.0,
2025-08-15T00:49:38.154Z,6,GR86-004-78,-26.4,-0.094,-0.447,2.51,3.0,,0.0,0.0,
2025-08-15T00:49:38.197Z,6,GR86-004-78,-27.700000000000003,-0.091,-0.491,2.5,3.0,,0.0,0.0,
2025-08-15T00:49:38.240Z,6,GR86-004-78,-28.9,-0.098,-0.488,2.49,3.0,3764.0,0.0,0.0,
2025-08-15T00:49:38.283Z,6,GR86-004-78,-29.6,-0.11,-0.503,2.5,3.0,,0.0,0.0,81.95
2025-08-15T00:49:38.326Z,6,GR86-004-78,-30.700000000000003,-0.096,-0.536,2.51,3.0,,0.0,0.0,
2025-08-15T00:49:38.369Z,6,GR86-004-78,-31.4,-0.097,-0.5630000000000001,2.52,3.0,,0.0,0.0,
2025-08-15T00:49:38.412Z,6,GR86-004-78,-31.700000000000003,-0.107,-0.554,2.51,3.0,,0.0,0.0,
2025-08-15T00:49:38.455Z,6,GR86-004-78,-31.700000000000003,-0.109,-0.586,2.5,3.0,3747.0,0.0,0.0,
2025-08-15T00:49:38.498Z,6,GR86-004-78,-31.700000000000003,-0.137,-0.5630000000000001,2.5,3.0,,0.0,0.0,81.51
2025-08-15T00:49:38.541Z,6,GR86-004-78,-31.6,-0.125,-0.5660000000000001,2.52,3.0,,0.0,0.0,
2025-08-15T00:49:38.584Z,6,GR86-004-78,-31.6,-0.119,-0.599,2.51,3.0,,0.0,0.0,
2025-08-15T00:49:38.627Z,6,GR86-004-78,-31.5,-0.118,-0.592,2.5,3.0,,0.0,0.0,
2025-08-15T00:49:38.671Z,6,GR86-004-78,-31.9,-0.131,-0.5710000000000001,2.51,3.0,3707.0,0.0,0.0,
2025-08-15T00:49:38.714Z,6,GR86-004-78,-33.2,-0.12,-0.5730000000000001,2.5,3.0,,0.0,0.0,81.06
2025-08-15T00:49:38.757Z,6,GR86-004-78,-35.300000000000004,-0.107,-0.62,2.49,3.0,,0.0,0.0,
2025-08-15T00:49:38.800Z,6,GR86-004-78,-36.8,-0.085,-0.633,2.5,3.0,,0.0,0.0,
2025-08-15T00:49:38.843Z,6,GR86-004-78,-37.5,-0.096,-0.648,2.52,3.0,,0.0,0.0,
2025-08-15T00:49:38.929Z,6,GR86-004-78,-37.3,-0.115,-0.665,2.5,3.0,3681.0,0.0,0.0,80.54
2025-08-15T00:49:38.973Z,6,GR86-004-78,-37.3,-0.087,-0.659,2.52,3.0,,0.0,0.0,
2025-08-15T00:49:39.016Z,6,GR86-004-78,-37.5,-0.092,-0.681,2.51,3.0,,0.0,0.0,
2025-08-15T00:49:39.059Z,6,GR86-004-78,-37.5,-0.11,-0.655,2.5,3.0,,0.0,0.0,
2025-08-15T00:49:39.102Z,6,GR86-004-78,-37.9,-0.128,-0.668,2.5,3.0,3652.0,0.0,0.0,
2025-08-15T00:49:39.145Z,6,GR86-004-78,-38.7,-0.134,-0.656,2.49,3.0,,0.0,0.0,80.0
2025-08-15T00:49:39.188Z,6,GR86-004-78,-39.7,-0.113,-0.7010000000000001,2.5,3.0,,0.0,0.0,
2025-08-15T00:49:39.231Z,6,GR86-004-78,-40.3,-0.114,-0.672,2.5,3.0,,0.0,0.0,
2025-08-15T00:49:39.274Z,6,GR86-004-78,-41.0,-0.124,-0.708,2.5,3.0,,0.0,0.0,
2025-08-15T00:49:39.317Z,6,GR86-004-78,-42.0,-0.128,-0.724,2.94,3.0,3622.0,0.0,0.0,
2025-08-15T00:49:39.360Z,6,GR86-004-78,-43.2,-0.096,-0.732,3.9,3.0,,0.0,0.0,79.41
2025-08-15T00:49:39.403Z,6,GR86-004-78,-44.7,-0.098,-0.715,4.72,3.0,,0.0,0.0,
2025-08-15T00:49:39.446Z,6,GR86-004-78,-46.0,-0.109,-0.773,9.34,3.0,,0.0,0.0,
2025-08-15T00:49:39.489Z,6,GR86-004-78,-46.3,-0.11,-0.768,20.23,3.0,,0.0,0.0,
2025-08-15T00:49:39.532Z,6,GR86-004-78,-46.3,-0.094,-0.784,20.63,3.0,3588.0,0.0,0.0,
2025-08-15T00:49:39.575Z,6,GR86-004-78,-46.6,-0.06,-0.798,20.96,3.0,,0.0,0.0,78.71000000000001
2025-08-15T00:49:39.618Z,6,GR86-004-78,-46.900000000000006,-0.074,-0.762,21.95,3.0,,0.0,0.0,
2025-08-15T00:49:39.661Z,6,GR86-004-78,-47.1,-0.062,-0.846,23.48,3.0,,0.0,0.0,
2025-08-15T00:49:39.704Z,6,GR86-004-78,-47.6,0.181,-0.777,23.54,3.0,,0.0,0.0,
2025-08-15T00:49:39.747Z,6,GR86-004-78,-48.400000000000006,0.141,-0.8270000000000001,24.16,3.0,3557.0,0.0,0.0,
2025-08-15T00:49:39.834Z,6,GR86-004-78,-48.900000000000006,0.056,-0.8240000000000001,25.01,3.0,,0.0,0.0,78.73
2025-08-15T00:49:39.877Z,6,GR86-004-78,-49.1,0.114,-0.8,24.94,3.0,,0.0,0.0,
2025-08-15T00:49:39.920Z,6,GR86-004-78,-49.1,0.141,-0.768,24.9,3.0,,0.0,0.0,
2025-08-15T00:49:39.963Z,6,GR86-004-78,-49.2,0.125,-0.8,24.91,3.0,3773.0,0.0,0.0,
2025-08-15T00:49:40.006Z,6,GR86-004-78,-49.3,0.108,-0.788,24.91,3.0,,0.0,0.0,78.19
2025-08-15T00:49:40.049Z,6,GR86-004-78,-49.3,0.09,-0.789,24.89,3.0,,0.0,0.0,
2025-08-15T00:49:40.092Z,6,GR86-004-78,-49.3,0.095,-0.747,24.85,3.0,,0.0,0.0,
2025-08-15T00:49:40.135Z,6,GR86-004-78,-49.2,0.101,-0.798,24.83,3.0,,0.0,0.0,
2025-08-15T00:49:40.221Z,6,GR86-004-78,-49.1,0.104,-0.8200000000000001,24.78,3.0,3671.0,0.0,0.0,78.19
2025-08-15T00:49:40.264Z,6,GR86-004-78,-49.1,0.108,-0.79,24.75,3.0,,0.0,0.0,
2025-08-15T00:49:40.307Z,6,GR86-004-78,-48.900000000000006,0.11,-0.81,24.72,3.0,,0.0,0.0,
2025-08-15T00:49:40.350Z,6,GR86-004-78,-48.8,0.119,-0.811,24.72,3.0,,0.0,0.0,
2025-08-15T00:49:40.394Z,6,GR86-004-78,-48.7,0.125,-0.802,24.7,3.0,3688.0,0.0,0.0,
2025-08-15T00:49:40.437Z,6,GR86-004-78,-48.5,0.111,-0.784,24.66,3.0,,0.0,0.0,78.88
2025-08-15T00:49:40.480Z,6,GR86-004-78,-48.2,0.12,-0.754,24.62,3.0,,0.0,0.0,
2025-08-15T00:49:40.523Z,6,GR86-004-78,-48.0,0.097,-0.774,24.63,3.0,,0.0,0.0,
2025-08-15T00:49:40.568Z,6,GR86-004-78,-47.2,0.115,-0.775,24.6,3.0,,0.0,0.0,
2025-08-15T00:49:40.611Z,6,GR86-004-78,-46.900000000000006,0.1,-0.756,24.56,3.0,3722.0,0.0,0.0,
2025-08-15T00:49:40.654Z,6,GR86-004-78,-46.900000000000006,0.107,-0.753,24.47,3.0,,0.0,0.0,79.67
2025-08-15T00:49:40.698Z,6,GR86-004-78,-46.900000000000006,0.094,-0.8200000000000001,24.18,3.0,,0.0,0.0,
2025-08-15T00:49:40.784Z,6,GR86-004-78,-46.900000000000006,0.081,-0.8140000000000001,23.64,3.0,,0.0,0.0,
2025-08-15T00:49:40.828Z,6,GR86-004-78,-46.8,0.102,-0.773,23.23,3.0,3767.0,0.0,0.0,
2025-08-15T00:49:40.871Z,6,GR86-004-78,-46.400000000000006,0.089,-0.769,23.22,3.0,,0.0,0.0,81.26
2025-08-15T00:49:40.914Z,6,GR86-004-78,-45.6,0.09,-0.759,23.26,3.0,,0.0,0.0,
2025-08-15T00:49:40.957Z,6,GR86-004-78,-44.2,0.083,-0.807,23.51,3.0,,0.0,0.0,
2025-08-15T00:49:41.000Z,6,GR86-004-78,-42.7,0.101,-0.758,24.16,3.0,,0.0,0.0,
2025-08-15T00:49:41.043Z,6,GR86-004-78,-41.7,0.117,-0.782,24.59,3.0,3800.0,0.0,0.0,
2025-08-15T00:49:41.086Z,6,GR86-004-78,-41.2,0.098,-0.755,24.76,3.0,,0.0,0.0,82.09
2025-08-15T00:49:41.130Z,6,GR86-004-78,-41.0,0.106,-0.788,24.95,3.0,,0.0,0.0,
2025-08-15T00:49:41.173Z,6,GR86-004-78,-40.7,0.101,-0.771,25.38,3.0,,0.0,0.0,
2025-08-15T00:49:41.216Z,6,GR86-004-78,-39.900000000000006,0.113,-0.788,25.94,3.0,,0.0,0.0,
2025-08-15T00:49:41.259Z,6,GR86-004-78,-38.6,0.131,-0.753,26.41,3.0,3823.0,0.0,0.0,
2025-08-15T00:49:41.302Z,6,GR86-004-78,-37.2,0.135,-0.725,26.64,3.0,,0.0,0.0,82.78
2025-08-15T00:49:41.345Z,6,GR86-004-78,-35.800000000000004,0.121,-0.706,26.78,3.0,,0.0,0.0,
2025-08-15T00:49:41.388Z,6,GR86-004-78,-34.2,0.134,-0.673,26.93,3.0,,0.0,0.0,
2025-08-15T00:49:41.431Z,6,GR86-004-78,-33.0,0.129,-0.647,26.92,3.0,,0.0,0.0,
2025-08-15T00:49:41.517Z,6,GR86-004-78,-30.8,0.135,-0.621,26.41,3.0,3906.0,0.0,0.0,83.08
2025-08-15T00:49:41.560Z,6,GR86-004-78,-30.3,0.144,-0.593,25.53,3.0,,0.0,0.0,
2025-08-15T00:49:41.603Z,6,GR86-004-78,-30.0,0.136,-0.611,25.07,3.0,,0.0,0.0,
2025-08-15T00:49:41.646Z,6,GR86-004-78,-29.700000000000003,0.12,-0.606,24.88,3.0,,0.0,0.0,
2025-08-15T00:49:41.689Z,6,GR86-004-78,-29.3,0.115,-0.605,24.85,3.0,3930.0,0.0,0.0,
2025-08-15T00:49:41.732Z,6,GR86-004-78,-28.3,0.138,-0.597,24.84,3.0,,0.0,0.0,83.63
2025-08-15T00:49:41.776Z,6,GR86-004-78,-27.0,0.136,-0.5740000000000001,24.82,3.0,,0.0,0.0,
2025-08-15T00:49:41.819Z,6,GR86-004-78,-25.8,0.125,-0.553,24.81,3.0,,0.0,0.0,
2025-08-15T00:49:41.862Z,6,GR86-004-78,-24.9,0.115,-0.546,24.81,3.0,,0.0,0.0,
2025-08-15T00:49:41.906Z,6,GR86-004-78,-24.3,0.122,-0.53,24.83,3.0,3957.0,0.0,0.0,
2025-08-15T00:49:41.950Z,6,GR86-004-78,-24.200000000000003,0.146,-0.519,24.82,3.0,,0.0,0.0,84.56
2025-08-15T00:49:41.994Z,6,GR86-004-78,-24.0,0.127,-0.512,24.83,3.0,,0.0,0.0,
2025-08-15T00:49:42.037Z,6,GR86-004-78,-23.8,0.129,-0.495,24.81,3.0,,0.0,0.0,
2025-08-15T00:49:42.080Z,6,GR86-004-78,-23.700000000000003,0.133,-0.485,24.69,3.0,,0.0,0.0,
2025-08-15T00:49:42.123Z,6,GR86-004-78,-23.6,0.147,-0.471,24.05,3.0,4005.0,0.0,0.0,
2025-08-15T00:49:42.168Z,6,GR86-004-78,-23.200000000000003,0.1,-0.454,23.34,3.0,,0.0,0.0,85.46000000000001
2025-08-15T00:49:42.211Z,6,GR86-004-78,-23.0,0.1,-0.464,23.33,3.0,,0.0,0.0,
2025-08-15T00:49:42.254Z,6,GR86-004-78,-22.8,0.095,-0.456,23.35,3.0,,0.0,0.0,
2025-08-15T00:49:42.297Z,6,GR86-004-78,-22.8,0.121,-0.48,23.35,3.0,,0.0,0.0,
2025-08-15T00:49:42.340Z,6,GR86-004-78,-22.700000000000003,0.128,-0.497,23.45,3.0,4046.0,0.0,0.0,
2025-08-15T00:49:42.383Z,6,GR86-004-78,-22.6,0.133,-0.501,23.54,3.0,,0.0,0.0,86.38
2025-08-15T00:49:42.426Z,6,GR86-004-78,-22.3,0.089,-0.452,23.6,3.0,,0.0,0.0,
2025-08-15T00:49:42.469Z,6,GR86-004-78,-22.200000000000003,0.09,-0.47,23.58,3.0,,0.0,0.0,
2025-08-15T00:49:42.512Z,6,GR86-004-78,-21.8,0.096,-0.467,23.1,3.0,,0.0,0.0,
2025-08-15T00:49:42.555Z,6,GR86-004-78,-21.1,0.099,-0.468,22.29,3.0,4092.0,0.0,0.0,
2025-08-15T00:49:42.598Z,6,GR86-004-78,-19.9,0.096,-0.466,12.16,3.0,,0.0,0.0,87.25
2025-08-15T00:49:42.641Z,6,GR86-004-78,-18.6,0.086,-0.461,4.37,3.0,,0.0,0.0,
2025-08-15T00:49:42.684Z,6,GR86-004-78,-17.1,0.068,-0.455,4.2700000000000005,3.0,,0.0,0.0,
2025-08-15T00:49:42.727Z,6,GR86-004-78,-14.5,-0.044,-0.418,3.96,3.0,,0.0,0.0,
2025-08-15T00:49:42.814Z,6,GR86-004-78,-11.8,-0.293,-0.4,3.41,3.0,4125.0,0.0,0.0,88.15
2025-08-15T00:49:42.857Z,6,GR86-004-78,-11.3,-0.14,-0.335,3.25,3.0,,0.0,0.0,
2025-08-15T00:49:42.900Z,6,GR86-004-78,-11.3,-0.016,-0.362,3.13,3.0,,0.0,0.0,
2025-08-15T00:49:42.943Z,6,GR86-004-78,-11.6,-0.044,-0.329,3.03,3.0,,0.0,0.0,
2025-08-15T00:49:42.986Z,6,GR86-004-78,-11.6,-0.051,-0.328,2.75,3.0,4151.0,0.0,0.0,
2025-08-15T00:49:43.029Z,6,GR86-004-78,-11.7,-0.088,-0.328,2.59,3.0,,0.0,0.0,88.98
2025-08-15T00:49:43.072Z,6,GR86-004-78,-11.7,-0.18,-0.293,2.42,3.0,,0.0,0.0,
2025-08-15T00:49:43.116Z,6,GR86-004-78,-11.6,-0.127,-0.309,2.37,3.0,,0.0,0.0,
2025-08-15T00:49:43.202Z,6,GR86-004-78,-11.7,-0.038,-0.305,2.34,3.0,4196.0,0.0,0.0,
2025-08-15T00:49:43.245Z,6,GR86-004-78,-11.6,-0.06,-0.296,2.33,3.0,,0.0,0.0,89.46000000000001
2025-08-15T00:49:43.288Z,6,GR86-004-78,-11.5,-0.154,-0.302,2.33,3.0,,0.0,0.0,
2025-08-15T00:49:43.374Z,6,GR86-004-78,-11.5,-0.124,-0.284,2.33,3.0,,0.0,0.0,
2025-08-15T00:49:43.417Z,6,GR86-004-78,-11.5,-0.086,-0.284,2.35,3.0,3979.0,0.0,0.0,
2025-08-15T00:49:43.460Z,6,GR86-004-78,-11.1,-0.1,-0.296,2.36,3.0,,0.0,0.0,88.72
2025-08-15T00:49:43.503Z,6,GR86-004-78,-10.6,-0.118,-0.274,2.36,3.0,,2.395,2.305,
2025-08-15T00:49:43.546Z,6,GR86-004-78,-9.7,-0.137,-0.27,2.36,3.0,,3.495,3.465,
2025-08-15T00:49:43.591Z,6,GR86-004-78,-8.8,-0.13,-0.239,2.36,3.0,,3.645,3.695,
2025-08-15T00:49:43.634Z,6,GR86-004-78,-8.200000000000001,-0.138,-0.244,2.36,3.0,3987.0,3.845,3.845,
2025-08-15T00:49:43.678Z,6,GR86-004-78,-7.2,-0.141,-0.216,2.4,3.0,,3.615,3.845,87.46000000000001
2025-08-15T00:49:43.721Z,6,GR86-004-78,-6.5,-0.143,-0.221,2.4,3.0,,3.845,3.785,
2025-08-15T00:49:43.764Z,6,GR86-004-78,-5.300000000000001,-0.145,-0.187,2.4,3.0,,3.585,3.845,
2025-08-15T00:49:43.807Z,6,GR86-004-78,-4.1000000000000005,-0.123,-0.166,2.43,3.0,,3.845,3.845,
2025-08-15T00:49:43.894Z,6,GR86-004-78,-3.2,-0.146,-0.117,2.43,3.0,3982.0,3.845,3.97,86.66
2025-08-15T00:49:43.937Z,6,GR86-004-78,-2.7,-0.156,-0.095,2.43,3.0,,3.845,4.03,
2025-08-15T00:49:43.980Z,6,GR86-004-78,-2.2,-0.15,-0.096,2.46,3.0,,4.15,4.18,
2025-08-15T00:49:44.023Z,6,GR86-004-78,-1.7000000000000002,-0.143,-0.079,2.46,3.0,,4.0,4.18,
2025-08-15T00:49:44.068Z,6,GR86-004-78,-1.7000000000000002,-0.139,-0.065,2.48,3.0,3916.0,4.0600000000000005,4.18,
2025-08-15T00:49:44.111Z,6,GR86-004-78,-1.6,-0.142,-0.055,2.49,3.0,,4.18,4.305,85.81
2025-08-15T00:49:44.154Z,6,GR86-004-78,-1.6,-0.145,-0.041,2.49,3.0,,4.18,4.5,
2025-08-15T00:49:44.197Z,6,GR86-004-78,-1.4,-0.146,-0.03,2.49,3.0,,4.18,4.53,
2025-08-15T00:49:44.240Z,6,GR86-004-78,-1.2000000000000002,-0.157,-0.035,2.49,3.0,,4.53,4.53,
2025-08-15T00:49:44.283Z,6,GR86-004-78,-0.7000000000000001,-0.161,-0.004,2.48,3.0,3874.0,4.44,4.53,
2025-08-15T00:49:44.326Z,6,GR86-004-78,-0.7000000000000001,-0.142,-0.022,2.49,3.0,,4.565,4.565,84.94
2025-08-15T00:49:44.369Z,6,GR86-004-78,-0.7000000000000001,-0.135,-0.015,2.49,3.0,,4.53,4.745,
2025-08-15T00:49:44.412Z,6,GR86-004-78,-0.7000000000000001,-0.157,-0.033,2.5,3.0,,4.835,4.87,
2025-08-15T00:49:44.455Z,6,GR86-004-78,-0.6000000000000001,-0.164,-0.016,2.5,3.0,,4.87,4.9,
2025-08-15T00:49:44.498Z,6,GR86-004-78,-0.6000000000000001,-0.165,-0.023,2.5,3.0,3831.0,4.87,5.05,
2025-08-15T00:49:44.541Z,6,GR86-004-78,-0.5,-0.151,-0.012,2.49,3.0,,4.87,5.0200000000000005,84.03
2025-08-15T00:49:44.584Z,6,GR86-004-78,-0.5,-0.128,-0.032,2.5,3.0,,4.87,4.93,
2025-08-15T00:49:44.627Z,6,GR86-004-78,-0.2,-0.159,-0.016,2.5,3.0,,4.745,4.87,
2025-08-15T00:49:44.670Z,6,GR86-004-78,-0.1,-0.165,-0.013,2.51,3.0,,4.745,4.9,
2025-08-15T00:49:44.713Z,6,GR86-004-78,0.0,-0.153,0.0,2.49,3.0,3789.0,4.835,5.19,
2025-08-15T00:49:44.756Z,6,GR86-004-78,0.0,-0.143,-0.015,2.49,3.0,,4.655,5.0200000000000005,83.09
2025-08-15T00:49:44.799Z,6,GR86-004-78,0.2,-0.129,-0.006,2.5,3.0,,4.625,4.87,
2025-08-15T00:49:44.886Z,6,GR86-004-78,0.3,-0.151,0.012,2.5,3.0,,4.565,4.93,
2025-08-15T00:49:44.929Z,6,GR86-004-78,0.3,-0.139,-0.017,2.52,3.0,3742.0,4.565,4.6850000000000005,
2025-08-15T00:49:44.973Z,6,GR86-004-78,0.4,-0.129,-0.018,2.5,3.0,,4.15,4.53,82.12
2025-08-15T00:49:45.016Z,6,GR86-004-78,0.4,-0.12,-0.029,2.5,3.0,,3.555,4.12,
2025-08-15T00:49:45.059Z,6,GR86-004-78,0.4,-0.123,-0.03,2.49,3.0,,3.31,3.845,
2025-08-15T00:49:45.102Z,6,GR86-004-78,0.4,-0.125,-0.03,2.5,3.0,,3.065,3.615,
2025-08-15T00:49:45.145Z,6,GR86-004-78,0.4,-0.142,-0.023,2.49,3.0,3704.0,3.065,3.465,
2025-08-15T00:49:45.188Z,6,GR86-004-78,0.4,-0.115,-0.042,2.5,3.0,,2.825,3.495,81.19
2025-08-15T00:49:45.231Z,6,GR86-004-78,0.4,-0.124,-0.033,2.5,3.0,,2.825,3.465,
2025-08-15T00:49:45.274Z,6,GR86-004-78,0.4,-0.139,-0.027,2.5,3.0,,2.76,3.465,
2025-08-15T00:49:45.317Z,6,GR86-004-78,0.4,-0.142,-0.027,2.51,3.0,,2.73,3.435,
2025-08-15T00:49:45.360Z,6,GR86-004-78,0.4,-0.137,-0.019,2.5,3.0,3667.0,0.0,2.165,
2025-08-15T00:49:45.403Z,6,GR86-004-78,0.4,-0.107,-0.041,2.52,3.0,,0.0,0.0,80.23
2025-08-15T00:49:45.446Z,6,GR86-004-78,0.3,-0.114,-0.029,4.78,3.0,,0.0,0.0,
2025-08-15T00:49:45.489Z,6,GR86-004-78,-0.6000000000000001,-0.106,-0.043,4.8100000000000005,3.0,,0.0,0.0,
2025-08-15T00:49:45.532Z,6,GR86-004-78,-1.4,-0.092,-0.065,5.3100000000000005,3.0,,0.0,0.0,
2025-08-15T00:49:45.575Z,6,GR86-004-78,-1.7000000000000002,-0.075,-0.079,6.2,3.0,3624.0,0.0,0.0,
2025-08-15T00:49:45.661Z,6,GR86-004-78,-2.5,-0.036,-0.093,12.41,3.0,,0.0,0.0,79.34
2025-08-15T00:49:45.704Z,6,GR86-004-78,-2.7,-0.049,-0.099,16.81,3.0,,0.0,0.0,
2025-08-15T00:49:45.747Z,6,GR86-004-78,-2.9000000000000004,-0.027,-0.111,19.7,3.0,,0.0,0.0,
2025-08-15T00:49:45.790Z,6,GR86-004-78,-3.1,-0.044,-0.1,21.48,3.0,3588.0,0.0,0.0,
2025-08-15T00:49:45.833Z,6,GR86-004-78,-3.1,-0.054,-0.11,21.66,3.0,,0.0,0.0,78.54
2025-08-15T00:49:45.876Z,6,GR86-004-78,-3.1,-0.058,-0.116,21.82,3.0,,0.0,0.0,
2025-08-15T00:49:45.919Z,6,GR86-004-78,-3.2,0.116,-0.096,21.91,3.0,,0.0,0.0,
2025-08-15T00:49:45.962Z,6,GR86-004-78,-3.6,0.351,-0.118,21.96,3.0,,0.0,0.0,
2025-08-15T00:49:46.005Z,6,GR86-004-78,-3.8,0.216,-0.107,22.01,3.0,3594.0,0.0,0.0,
2025-08-15T00:49:46.048Z,6,GR86-004-78,-3.8,-0.029,-0.12,22.05,3.0,,0.0,0.0,77.91
2025-08-15T00:49:46.091Z,6,GR86-004-78,-3.8,0.084,-0.114,22.09,3.0,,0.0,0.0,
2025-08-15T00:49:46.134Z,6,GR86-004-78,-3.8,0.237,-0.117,22.1,3.0,,0.0,0.0,
2025-08-15T00:49:46.177Z,6,GR86-004-78,-3.8,0.218,-0.111,22.1,3.0,,0.0,0.0,
2025-08-15T00:49:46.220Z,6,GR86-004-78,-3.8,0.09,-0.118,22.1,3.0,3687.0,0.0,0.0,
2025-08-15T00:49:46.263Z,6,GR86-004-78,-3.8,0.026,-0.113,22.08,3.0,,0.0,0.0,77.49
2025-08-15T00:49:46.306Z,6,GR86-004-78,-3.6,0.169,-0.107,22.1,3.0,,0.0,0.0,
2025-08-15T00:49:46.349Z,6,GR86-004-78,-3.5,0.171,-0.08,22.08,3.0,,0.0,0.0,
2025-08-15T00:49:46.392Z,6,GR86-004-78,-2.5,0.115,-0.057,22.12,3.0,,0.0,0.0,
2025-08-15T00:49:46.435Z,6,GR86-004-78,-1.6,0.064,-0.055,22.42,3.0,3583.0,0.0,0.0,
2025-08-15T00:49:46.478Z,6,GR86-004-78,-0.6000000000000001,0.089,-0.026,22.48,3.0,,0.0,0.0,78.48
2025-08-15T00:49:46.521Z,6,GR86-004-78,-0.1,0.133,-0.035,22.48,3.0,,0.0,0.0,
2025-08-15T00:49:46.607Z,6,GR86-004-78,0.6000000000000001,0.09,0.006,22.46,3.0,,0.0,0.0,
2025-08-15T00:49:46.651Z,6,GR86-004-78,1.0,0.1,0.028,22.39,3.0,3640.0,0.0,0.0,
2025-08-15T00:49:46.694Z,6,GR86-004-78,1.3,0.127,0.017,22.17,3.0,,0.0,0.0,79.31
2025-08-15T00:49:46.737Z,6,GR86-004-78,1.7000000000000002,0.149,0.044,22.11,3.0,,0.0,0.0,
2025-08-15T00:49:46.780Z,6,GR86-004-78,2.7,0.156,0.043,22.07,3.0,,0.0,0.0,
2025-08-15T00:49:46.823Z,6,GR86-004-78,3.2,0.14,0.056,22.01,3.0,,0.0,0.0,
2025-08-15T00:49:46.868Z,6,GR86-004-78,4.6000000000000005,0.111,0.067,21.98,3.0,3745.0,0.0,0.0,
2025-08-15T00:49:46.911Z,6,GR86-004-78,4.800000000000001,0.134,0.099,21.96,3.0,,0.0,0.0,80.15
2025-08-15T00:49:46.954Z,6,GR86-004-78,4.800000000000001,0.147,0.089,21.96,3.0,,0.0,0.0,
2025-08-15T00:49:46.998Z,6,GR86-004-78,4.800000000000001,0.142,0.096,21.94,3.0,,0.0,0.0,
2025-08-15T00:49:47.041Z,6,GR86-004-78,4.800000000000001,0.124,0.1,21.94,3.0,,0.0,0.0,
2025-08-15T00:49:47.084Z,6,GR86-004-78,4.800000000000001,0.113,0.117,21.94,3.0,3772.0,0.0,0.0,
2025-08-15T00:49:47.128Z,6,GR86-004-78,4.9,0.146,0.095,21.94,3.0,,0.0,0.0,80.96000000000001
2025-08-15T00:49:47.171Z,6,GR86-004-78,4.9,0.132,0.106,21.94,3.0,,0.0,0.0,
2025-08-15T00:49:47.214Z,6,GR86-004-78,5.0,0.13,0.099,21.95,3.0,,0.0,0.0,
2025-08-15T00:49:47.257Z,6,GR86-004-78,5.0,0.122,0.097,21.95,3.0,,0.0,0.0,
2025-08-15T00:49:47.300Z,6,GR86-004-78,5.2,0.125,0.099,21.96,3.0,3818.0,0.0,0.0,
2025-08-15T00:49:47.343Z,6,GR86-004-78,5.4,0.104,0.096,21.94,3.0,,0.0,0.0,81.78
2025-08-15T00:49:47.386Z,6,GR86-004-78,5.6000000000000005,0.133,0.09,21.96,3.0,,0.0,0.0,
2025-08-15T00:49:47.430Z,6,GR86-004-78,5.7,0.131,0.103,21.97,3.0,,0.0,0.0,
2025-08-15T00:49:47.473Z,6,GR86-004-78,5.7,0.138,0.106,21.97,3.0,,0.0,0.0,
2025-08-15T00:49:47.516Z,6,GR86-004-78,5.7,0.124,0.106,21.97,3.0,3860.0,0.0,0.0,
2025-08-15T00:49:47.559Z,6,GR86-004-78,5.7,0.11,0.099,21.38,3.0,,0.0,0.0,82.59
2025-08-15T00:49:47.602Z,6,GR86-004-78,5.1000000000000005,0.098,0.086,19.4,3.0,,0.0,0.0,
2025-08-15T00:49:47.645Z,6,GR86-004-78,4.7,0.1,0.077,15.95,3.0,,0.0,0.0,
2025-08-15T00:49:47.688Z,6,GR86-004-78,4.4,0.129,0.058,10.75,3.0,,0.0,0.0,
2025-08-15T00:49:47.731Z,6,GR86-004-78,4.4,0.096,0.041,9.88,3.0,3898.0,0.0,0.0,
2025-08-15T00:49:47.774Z,6,GR86-004-78,4.3,0.038,0.044,9.14,3.0,,0.0,0.0,83.4
2025-08-15T00:49:47.817Z,6,GR86-004-78,4.2,0.013,0.044,6.12,3.0,,0.0,0.0,
2025-08-15T00:49:47.860Z,6,GR86-004-78,4.1000000000000005,-0.001,0.039,3.9,3.0,,0.0,0.0,
2025-08-15T00:49:47.903Z,6,GR86-004-78,4.0,-0.011,0.052,3.83,3.0,,0.0,0.0,
2025-08-15T00:49:47.946Z,6,GR86-004-78,3.2,-0.028,0.035,3.6,3.0,3933.0,0.0,0.0,
2025-08-15T00:49:47.989Z,6,GR86-004-78,2.7,-0.04,0.008,3.44,3.0,,0.0,0.0,84.23
2025-08-15T00:49:48.032Z,6,GR86-004-78,2.6,-0.236,0.015,3.64,3.0,,0.0,0.0,
2025-08-15T00:49:48.075Z,6,GR86-004-78,2.4000000000000004,-0.183,0.017,3.67,3.0,,0.0,0.0,
2025-08-15T00:49:48.118Z,6,GR86-004-78,2.2,-0.048,-0.007,3.51,3.0,,0.0,0.0,
2025-08-15T00:49:48.161Z,6,GR86-004-78,2.2,-0.048,-0.004,3.88,3.0,3934.0,0.0,0.0,
2025-08-15T00:49:48.204Z,6,GR86-004-78,2.1,-0.046,-0.006,4.6000000000000005,3.0,,0.0,0.0,84.98
2025-08-15T00:49:48.247Z,6,GR86-004-78,2.1,-0.082,-0.034,6.71,3.0,,0.0,0.0,
2025-08-15T00:49:48.290Z,6,GR86-004-78,2.1,-0.158,-0.007,7.34,3.0,,0.0,0.0,
2025-08-15T00:49:48.333Z,6,GR86-004-78,2.1,-0.106,0.004,7.24,3.0,,0.0,0.0,
2025-08-15T00:49:48.376Z,6,GR86-004-78,2.0,-0.033,-0.019,6.49,3.0,3873.0,0.0,0.0,
2025-08-15T00:49:48.419Z,6,GR86-004-78,1.9,-0.048,-0.001,6.32,3.0,,0.0,0.0,85.08
2025-08-15T00:49:48.462Z,6,GR86-004-78,1.9,-0.055,-0.003,6.15,3.0,,0.0,0.0,
2025-08-15T00:49:48.505Z,6,GR86-004-78,1.9,-0.049,0.004,6.03,3.0,,0.0,0.0,
2025-08-15T00:49:48.548Z,6,GR86-004-78,1.9,-0.02,-0.012,6.05,3.0,,0.0,0.0,
2025-08-15T00:49:48.591Z,6,GR86-004-78,1.9,-0.033,-0.002,6.08,3.0,3779.0,0.0,0.0,
2025-08-15T00:49:48.634Z,6,GR86-004-78,1.9,-0.039,0.001,6.15,3.0,,0.0,0.0,84.35000000000001
2025-08-15T00:49:48.677Z,6,GR86-004-78,1.9,-0.055,0.008,6.28,3.0,,0.0,0.0,
2025-08-15T00:49:48.720Z,6,GR86-004-78,1.9,-0.148,-0.008,7.26,3.0,,0.0,0.0,
2025-08-15T00:49:48.763Z,6,GR86-004-78,1.9,-0.159,0.016,8.290000000000001,3.0,,0.0,0.0,
2025-08-15T00:49:48.806Z,6,GR86-004-78,1.9,-0.025,-0.002,8.16,3.0,3900.0,0.0,0.0,
2025-08-15T00:49:48.850Z,6,GR86-004-78,2.1,-0.046,0.008,8.96,3.0,,0.0,0.0,83.7
2025-08-15T00:49:48.893Z,6,GR86-004-78,3.1,-0.052,0.032,11.52,3.0,,0.0,0.0,
2025-08-15T00:49:48.936Z,6,GR86-004-78,4.2,-0.053,0.046,15.53,3.0,,0.0,0.0,
2025-08-15T00:49:48.979Z,6,GR86-004-78,4.9,-0.089,0.06,18.8,3.0,,0.0,0.0,
2025-08-15T00:49:49.022Z,6,GR86-004-78,5.7,-0.133,0.093,21.19,3.0,3734.0,0.0,0.0,
2025-08-15T00:49:49.065Z,6,GR86-004-78,5.800000000000001,-0.011,0.073,21.45,3.0,,0.0,0.0,83.27
2025-08-15T00:49:49.108Z,6,GR86-004-78,5.800000000000001,-0.021,0.132,22.01,3.0,,0.0,0.0,
2025-08-15T00:49:49.151Z,6,GR86-004-78,5.800000000000001,0.299,0.116,21.87,3.0,,0.0,0.0,
2025-08-15T00:49:49.194Z,6,GR86-004-78,5.800000000000001,0.253,0.134,22.03,3.0,,0.0,0.0,
2025-08-15T00:49:49.237Z,6,GR86-004-78,5.800000000000001,0.06,0.11,22.06,3.0,3823.0,0.0,0.0,
2025-08-15T00:49:49.280Z,6,GR86-004-78,5.800000000000001,-0.012,0.118,22.09,3.0,,0.0,0.0,82.31
2025-08-15T00:49:49.323Z,6,GR86-004-78,5.800000000000001,0.111,0.105,22.1,3.0,,0.0,0.0,
2025-08-15T00:49:49.367Z,6,GR86-004-78,5.800000000000001,0.219,0.13,22.1,3.0,,0.0,0.0,
2025-08-15T00:49:49.411Z,6,GR86-004-78,5.800000000000001,0.132,0.094,22.09,3.0,,0.0,0.0,
2025-08-15T00:49:49.454Z,6,GR86-004-78,5.800000000000001,0.063,0.087,22.11,3.0,3867.0,0.0,0.0,
2025-08-15T00:49:49.497Z,6,GR86-004-78,5.800000000000001,0.094,0.091,22.08,3.0,,0.0,0.0,82.17
2025-08-15T00:49:49.540Z,6,GR86-004-78,5.800000000000001,0.165,0.093,22.07,3.0,,0.0,0.0,
2025-08-15T00:49:49.583Z,6,GR86-004-78,5.800000000000001,0.201,0.077,22.06,3.0,,0.0,0.0,
2025-08-15T00:49:49.626Z,6,GR86-004-78,5.800000000000001,0.098,0.095,22.07,3.0,,0.0,0.0,
2025-08-15T00:49:49.670Z,6,GR86-004-78,5.800000000000001,0.088,0.08,22.08,3.0,3830.0,0.0,0.0,
2025-08-15T00:49:49.713Z,6,GR86-004-78,5.800000000000001,0.122,0.086,22.08,3.0,,0.0,0.0,82.92
2025-08-15T00:49:49.756Z,6,GR86-004-78,5.800000000000001,0.159,0.074,22.06,3.0,,0.0,0.0,
2025-08-15T00:49:49.799Z,6,GR86-004-78,5.800000000000001,0.158,0.087,22.05,3.0,,0.0,0.0,
2025-08-15T00:49:49.842Z,6,GR86-004-78,5.800000000000001,0.135,0.072,22.03,3.0,,0.0,0.0,
2025-08-15T00:49:49.886Z,6,GR86-004-78,5.800000000000001,0.101,0.081,21.08,3.0,3887.0,0.0,0.0,
2025-08-15T00:49:49.929Z,6,GR86-004-78,5.800000000000001,0.125,0.069,20.16,3.0,,0.0,0.0,83.73
2025-08-15T00:49:49.972Z,6,GR86-004-78,5.800000000000001,0.12,0.07,19.16,3.0,,0.0,0.0,
2025-08-15T00:49:50.015Z,6,GR86-004-78,5.800000000000001,0.116,0.047,16.25,3.0,,0.0,0.0,
2025-08-15T00:49:50.058Z,6,GR86-004-78,5.800000000000001,0.11,0.056,10.85,3.0,,0.0,0.0,
2025-08-15T00:49:50.102Z,6,GR86-004-78,5.800000000000001,0.106,0.055,7.890000000000001,3.0,3939.0,0.0,0.0,
2025-08-15T00:49:50.145Z,6,GR86-004-78,5.5,0.08,0.058,10.12,3.0,,0.0,0.0,84.54
2025-08-15T00:49:50.188Z,6,GR86-004-78,5.300000000000001,-0.023,0.062,14.04,3.0,,0.0,0.0,
2025-08-15T00:49:50.231Z,6,GR86-004-78,5.2,-0.031,0.065,13.96,3.0,,0.0,0.0,
2025-08-15T00:49:50.274Z,6,GR86-004-78,5.2,-0.003,0.065,13.68,3.0,,0.0,0.0,
2025-08-15T00:49:50.360Z,6,GR86-004-78,4.800000000000001,0.049,0.042,13.34,3.0,3966.0,0.0,0.0,85.34
2025-08-15T00:49:50.403Z,6,GR86-004-78,4.6000000000000005,0.033,0.042,13.37,3.0,,0.0,0.0,
2025-08-15T00:49:50.446Z,6,GR86-004-78,4.4,0.0,0.039,13.22,3.0,,0.0,0.0,
2025-08-15T00:49:50.491Z,6,GR86-004-78,4.4,0.003,0.046,12.28,3.0,,0.0,0.0,
2025-08-15T00:49:50.534Z,6,GR86-004-78,4.3,0.013,0.05,11.78,3.0,3988.0,0.0,0.0,
2025-08-15T00:49:50.578Z,6,GR86-004-78,4.3,0.016,0.055,11.72,3.0,,0.0,0.0,85.96000000000001
2025-08-15T00:49:50.621Z,6,GR86-004-78,4.3,0.008,0.042,12.39,3.0,,0.0,0.0,
2025-08-15T00:49:50.664Z,6,GR86-004-78,4.3,-0.002,0.045,11.97,3.0,,0.0,0.0,
2025-08-15T00:49:50.707Z,6,GR86-004-78,4.3,0.014,0.042,9.59,3.0,,0.0,0.0,
2025-08-15T00:49:50.750Z,6,GR86-004-78,4.3,0.013,0.047,7.81,3.0,3979.0,0.0,0.0,
2025-08-15T00:49:50.794Z,6,GR86-004-78,4.3,-0.007,0.044,6.48,3.0,,0.0,0.0,86.08
2025-08-15T00:49:50.837Z,6,GR86-004-78,4.3,-0.03,0.05,4.0600000000000005,3.0,,0.0,0.0,
2025-08-15T00:49:50.880Z,6,GR86-004-78,4.3,-0.057,0.045,3.99,3.0,,0.0,0.0,
2025-08-15T00:49:50.923Z,6,GR86-004-78,4.3,-0.059,0.062,3.79,3.0,,0.0,0.0,
2025-08-15T00:49:50.968Z,6,GR86-004-78,4.3,-0.158,0.025,3.42,3.0,3977.0,0.0,0.0,
2025-08-15T00:49:51.054Z,6,GR86-004-78,4.3,-0.11,0.05,3.16,3.0,,0.0,0.0,86.19
2025-08-15T00:49:51.097Z,6,GR86-004-78,4.3,-0.022,0.038,3.04,3.0,,0.0,0.0,
2025-08-15T00:49:51.140Z,6,GR86-004-78,4.3,-0.055,0.043,2.79,3.0,,0.0,0.0,
2025-08-15T00:49:51.183Z,6,GR86-004-78,4.3,-0.058,0.044,2.56,3.0,3938.0,0.0,0.0,
2025-08-15T00:49:51.226Z,6,GR86-004-78,4.3,-0.137,0.03,2.39,3.0,,0.0,0.0,86.24
2025-08-15T00:49:51.269Z,6,GR86-004-78,4.3,-0.113,0.039,2.36,3.0,,0.0,0.0,
2025-08-15T00:49:51.312Z,6,GR86-004-78,4.3,-0.069,0.035,2.32,3.0,,0.0,0.0,
2025-08-15T00:49:51.398Z,6,GR86-004-78,4.3,-0.082,0.044,2.33,3.0,4022.0,0.0,0.0,
2025-08-15T00:49:51.441Z,6,GR86-004-78,4.3,-0.123,0.045,2.32,3.0,,0.0,0.0,86.03
2025-08-15T00:49:51.484Z,6,GR86-004-78,4.3,-0.125,0.048,2.34,3.0,,0.0,0.0,
2025-08-15T00:49:51.527Z,6,GR86-004-78,4.3,-0.053,0.029,2.35,3.0,,0.0,0.0,
2025-08-15T00:49:51.570Z,6,GR86-004-78,4.2,-0.072,0.035,2.36,3.0,,0.0,0.0,
2025-08-15T00:49:51.613Z,6,GR86-004-78,4.1000000000000005,-0.087,0.039,2.35,3.0,3891.0,0.0,0.0,
2025-08-15T00:49:51.656Z,6,GR86-004-78,4.1000000000000005,-0.105,0.028,2.36,3.0,,0.0,0.0,85.27
2025-08-15T00:49:51.699Z,6,GR86-004-78,4.0,-0.101,0.033,2.36,3.0,,0.0,0.0,
2025-08-15T00:49:51.742Z,6,GR86-004-78,3.8,-0.103,0.029,2.37,3.0,,0.0,0.0,
2025-08-15T00:49:51.830Z,6,GR86-004-78,3.4000000000000004,-0.09,0.015,2.4,3.0,3858.0,0.0,0.0,
2025-08-15T00:49:51.873Z,6,GR86-004-78,3.4000000000000004,-0.096,0.023,2.41,3.0,,0.0,0.0,83.88
2025-08-15T00:49:51.916Z,6,GR86-004-78,3.2,-0.106,0.02,2.42,3.0,,0.0,0.0,
2025-08-15T00:49:51.959Z,6,GR86-004-78,3.2,-0.109,0.03,2.43,3.0,,0.0,0.0,
2025-08-15T00:49:52.002Z,6,GR86-004-78,3.1,-0.11,0.019,2.43,3.0,,0.0,0.0,
2025-08-15T00:49:52.045Z,6,GR86-004-78,3.1,-0.096,0.024,2.47,3.0,3834.0,0.0,0.0,
2025-08-15T00:49:52.088Z,6,GR86-004-78,2.9000000000000004,-0.106,0.002,2.45,3.0,,0.0,0.0,83.22
2025-08-15T00:49:52.131Z,6,GR86-004-78,2.8000000000000003,-0.114,0.014,2.46,3.0,,0.0,0.0,
2025-08-15T00:49:52.174Z,6,GR86-004-78,2.8000000000000003,-0.113,0.012,2.46,3.0,,0.0,0.0,
2025-08-15T00:49:52.217Z,6,GR86-004-78,2.7,-0.102,0.017,2.46,3.0,,0.0,0.0,
2025-08-15T00:49:52.260Z,6,GR86-004-78,2.6,-0.082,-0.001,2.46,3.0,3805.0,0.0,0.0,
2025-08-15T00:49:52.303Z,6,GR86-004-78,2.6,-0.082,0.013,2.48,3.0,,0.0,0.0,82.54
2025-08-15T00:49:52.346Z,6,GR86-004-78,2.2,-0.117,0.014,2.49,3.0,,0.0,0.0,
2025-08-15T00:49:52.389Z,6,GR86-004-78,2.1,-0.102,0.02,2.49,3.0,,0.0,0.0,
2025-08-15T00:49:52.432Z,6,GR86-004-78,1.8,-0.085,0.004,2.49,3.0,,0.0,0.0,
2025-08-15T00:49:52.475Z,6,GR86-004-78,1.7000000000000002,-0.078,0.004,2.49,3.0,3738.0,0.0,0.0,
2025-08-15T00:49:52.518Z,6,GR86-004-78,1.6,-0.076,-0.011,2.49,3.0,,0.0,0.0,81.85000000000001
2025-08-15T00:49:52.561Z,6,GR86-004-78,1.4,-0.079,-0.011,2.49,3.0,,0.0,0.0,
2025-08-15T00:49:52.604Z,6,GR86-004-78,1.3,-0.079,-0.013,2.49,3.0,,0.0,0.0,
2025-08-15T00:49:52.647Z,6,GR86-004-78,1.2000000000000002,-0.075,-0.022,2.49,3.0,,0.0,0.0,
2025-08-15T00:49:52.691Z,6,GR86-004-78,1.2000000000000002,-0.073,-0.03,2.49,3.0,3708.0,0.0,0.0,
2025-08-15T00:49:52.734Z,6,GR86-004-78,1.1,-0.081,-0.024,2.49,3.0,,0.0,0.0,81.18
2025-08-15T00:49:52.777Z,6,GR86-004-78,1.2000000000000002,-0.095,-0.022,2.48,3.0,,0.0,0.0,
2025-08-15T00:49:52.820Z,6,GR86-004-78,1.1,-0.097,-0.017,2.49,3.0,,0.0,0.0,
2025-08-15T00:49:52.863Z,6,GR86-004-78,1.1,-0.105,-0.014,2.48,3.0,,0.0,0.0,
2025-08-15T00:49:52.906Z,6,GR86-004-78,1.2000000000000002,-0.094,-0.019,2.49,3.0,3673.0,0.0,0.0,
2025-08-15T00:49:52.949Z,6,GR86-004-78,1.1,-0.106,-0.012,2.49,3.0,,0.0,0.0,80.49
2025-08-15T00:49:52.992Z,6,GR86-004-78,1.1,-0.11,-0.011,2.49,3.0,,0.0,0.0,
2025-08-15T00:49:53.035Z,6,GR86-004-78,1.2000000000000002,-0.101,0.002,2.5500000000000003,3.0,,0.0,0.0,
2025-08-15T00:49:53.078Z,6,GR86-004-78,1.2000000000000002,-0.086,0.002,4.66,3.0,,0.0,0.0,
2025-08-15T00:49:53.164Z,6,GR86-004-78,1.2000000000000002,-0.074,0.016,4.97,3.0,3645.0,0.0,0.0,79.83
2025-08-15T00:49:53.207Z,6,GR86-004-78,1.2000000000000002,-0.086,0.027,7.58,3.0,,0.0,0.0,
2025-08-15T00:49:53.250Z,6,GR86-004-78,1.3,-0.055,0.022,9.8,3.0,,0.0,0.0,
2025-08-15T00:49:53.293Z,6,GR86-004-78,1.3,-0.019,0.022,11.36,3.0,,0.0,0.0,
2025-08-15T00:49:53.379Z,6,GR86-004-78,1.3,-0.043,0.023,15.1,3.0,3615.0,0.0,0.0,79.17
2025-08-15T00:49:53.422Z,6,GR86-004-78,1.3,-0.058,0.032,15.73,3.0,,0.0,0.0,
2025-08-15T00:49:53.465Z,6,GR86-004-78,1.4,-0.059,0.023,16.19,3.0,,0.0,0.0,
2025-08-15T00:49:53.508Z,6,GR86-004-78,1.4,-0.05,0.046,16.72,3.0,,0.0,0.0,
2025-08-15T00:49:53.551Z,6,GR86-004-78,1.4,0.015,0.03,16.35,3.0,3618.0,0.0,0.0,
2025-08-15T00:49:53.594Z,6,GR86-004-78,1.5,0.22,0.042,14.78,3.0,,0.0,0.0,78.5
2025-08-15T00:49:53.637Z,6,GR86-004-78,1.5,0.163,0.05,17.61,3.0,,0.0,0.0,
2025-08-15T00:49:53.680Z,6,GR86-004-78,1.5,0.004,0.038,20.1,3.0,,0.0,0.0,
2025-08-15T00:49:53.723Z,6,GR86-004-78,1.6,-0.008,0.045,20.98,3.0,,0.0,0.0,
2025-08-15T00:49:53.768Z,6,GR86-004-78,1.7000000000000002,0.115,0.043,20.48,3.0,3614.0,0.0,0.0,
2025-08-15T00:49:53.811Z,6,GR86-004-78,1.8,0.216,0.049,19.96,3.0,,0.0,0.0,78.01
2025-08-15T00:49:53.854Z,6,GR86-004-78,1.9,0.165,0.024,19.96,3.0,,0.0,0.0,
2025-08-15T00:49:53.898Z,6,GR86-004-78,1.9,0.078,0.033,20.06,3.0,,0.0,0.0,
2025-08-15T00:49:53.941Z,6,GR86-004-78,1.9,0.056,0.047,20.12,3.0,,0.0,0.0,
2025-08-15T00:49:53.984Z,6,GR86-004-78,1.9,0.103,0.046,19.84,3.0,3480.0,0.0,0.0,
2025-08-15T00:49:54.028Z,6,GR86-004-78,1.9,0.151,0.042,19.46,3.0,,0.0,0.0,77.75
2025-08-15T00:49:54.071Z,6,GR86-004-78,1.9,0.102,0.041,19.33,3.0,,0.0,0.0,
2025-08-15T00:49:54.114Z,6,GR86-004-78,1.9,0.06,0.034,19.26,3.0,,0.0,0.0,
2025-08-15T00:49:54.157Z,6,GR86-004-78,2.0,0.078,0.046,18.79,3.0,,0.0,0.0,
2025-08-15T00:49:54.200Z,6,GR86-004-78,2.0,0.109,0.035,18.41,3.0,3593.0,0.0,0.0,
2025-08-15T00:49:54.243Z,6,GR86-004-78,2.0,0.125,0.033,18.08,3.0,,0.0,0.0,78.18
2025-08-15T00:49:54.286Z,6,GR86-004-78,2.0,0.072,0.025,16.73,3.0,,0.0,0.0,
2025-08-15T00:49:54.373Z,6,GR86-004-78,2.0,0.06,0.04,16.44,3.0,,0.0,0.0,
2025-08-15T00:49:54.416Z,6,GR86-004-78,2.0,0.098,0.018,16.13,3.0,3657.0,0.0,0.0,
2025-08-15T00:49:54.459Z,6,GR86-004-78,2.0,0.097,0.017,15.42,3.0,,0.0,0.0,78.86
2025-08-15T00:49:54.503Z,6,GR86-004-78,2.0,0.086,0.012,15.39,3.0,,0.0,0.0,
2025-08-15T00:49:54.546Z,6,GR86-004-78,2.0,0.062,0.014,14.76,3.0,,0.0,0.0,
2025-08-15T00:49:54.589Z,6,GR86-004-78,2.0,0.075,0.007,13.88,3.0,,0.0,0.0,
2025-08-15T00:49:54.632Z,6,GR86-004-78,2.0,0.089,0.004,12.77,3.0,3704.0,0.0,0.0,
2025-08-15T00:49:54.675Z,6,GR86-004-78,1.8,0.064,-0.009,11.57,3.0,,0.0,0.0,80.35000000000001
2025-08-15T00:49:54.718Z,6,GR86-004-78,0.2,0.055,-0.023,9.44,3.0,,0.0,0.0,
2025-08-15T00:49:54.761Z,6,GR86-004-78,-2.1,0.028,-0.051,8.16,3.0,,0.0,0.0,
2025-08-15T00:49:54.804Z,6,GR86-004-78,-4.0,0.004,-0.067,8.14,3.0,,0.0,0.0,
2025-08-15T00:49:54.890Z,6,GR86-004-78,-5.300000000000001,0.015,-0.131,8.64,3.0,3730.0,0.0,0.0,80.92
2025-08-15T00:49:54.933Z,6,GR86-004-78,-5.300000000000001,-0.015,-0.165,8.55,3.0,,0.0,0.0,
2025-08-15T00:49:54.976Z,6,GR86-004-78,-5.1000000000000005,-0.032,-0.151,8.39,3.0,,0.0,0.0,
2025-08-15T00:49:55.019Z,6,GR86-004-78,-5.1000000000000005,-0.04,-0.151,8.36,3.0,,0.0,0.0,
2025-08-15T00:49:55.062Z,6,GR86-004-78,-5.0,-0.041,-0.147,8.55,3.0,3747.0,0.0,0.0,
2025-08-15T00:49:55.105Z,6,GR86-004-78,-4.9,-0.041,-0.15,8.38,3.0,,0.0,0.0,81.24
2025-08-15T00:49:55.148Z,6,GR86-004-78,-4.9,-0.048,-0.153,8.26,3.0,,0.0,0.0,
2025-08-15T00:49:55.191Z,6,GR86-004-78,-4.9,-0.053,-0.151,8.2,3.0,,0.0,0.0,
2025-08-15T00:49:55.234Z,6,GR86-004-78,-4.800000000000001,-0.052,-0.143,8.32,3.0,,0.0,0.0,
2025-08-15T00:49:55.277Z,6,GR86-004-78,-4.9,-0.04,-0.143,8.290000000000001,3.0,3737.0,0.0,0.0,
2025-08-15T00:49:55.320Z,6,GR86-004-78,-4.800000000000001,-0.039,-0.139,8.85,3.0,,0.0,0.0,81.33
2025-08-15T00:49:55.363Z,6,GR86-004-78,-4.800000000000001,-0.019,-0.144,9.67,3.0,,0.0,0.0,
2025-08-15T00:49:55.406Z,6,GR86-004-78,-4.800000000000001,-0.054,-0.132,10.9,3.0,,0.0,0.0,
2025-08-15T00:49:55.449Z,6,GR86-004-78,-4.7,-0.083,-0.14,14.04,3.0,,0.0,0.0,
2025-08-15T00:49:55.492Z,6,GR86-004-78,-4.5,-0.078,-0.125,15.19,3.0,3719.0,0.0,0.0,
2025-08-15T00:49:55.535Z,6,GR86-004-78,-4.3,-0.007,-0.131,15.13,3.0,,0.0,0.0,81.2
2025-08-15T00:49:55.578Z,6,GR86-004-78,-4.1000000000000005,-0.033,-0.133,15.57,3.0,,0.0,0.0,
2025-08-15T00:49:55.621Z,6,GR86-004-78,-4.0,-0.02,-0.119,15.8,3.0,,0.0,0.0,
2025-08-15T00:49:55.664Z,6,GR86-004-78,-4.0,0.112,-0.105,12.36,3.0,,0.0,0.0,
2025-08-15T00:49:55.707Z,6,GR86-004-78,-3.7,0.148,-0.109,14.74,3.0,3672.0,0.0,0.0,
2025-08-15T00:49:55.793Z,6,GR86-004-78,-3.6,-0.002,-0.097,17.82,3.0,,0.0,0.0,81.02
2025-08-15T00:49:55.837Z,6,GR86-004-78,-3.3000000000000003,-0.023,-0.092,15.33,3.0,,0.0,0.0,
2025-08-15T00:49:55.880Z,6,GR86-004-78,-3.1,0.101,-0.067,10.44,3.0,,0.0,0.0,
2025-08-15T00:49:55.923Z,6,GR86-004-78,-3.1,0.116,-0.074,9.34,3.0,3866.0,0.0,0.0,
2025-08-15T00:49:55.967Z,6,GR86-004-78,-3.1,-0.001,-0.081,12.36,3.0,,0.0,0.0,80.68
2025-08-15T00:49:56.011Z,6,GR86-004-78,-3.1,-0.046,-0.07,12.77,3.0,,0.0,0.0,
2025-08-15T00:49:56.054Z,6,GR86-004-78,-3.1,-0.036,-0.066,11.15,3.0,,0.0,0.0,
2025-08-15T00:49:56.097Z,6,GR86-004-78,-3.1,0.034,-0.065,9.64,3.0,,0.0,0.0,
2025-08-15T00:49:56.140Z,6,GR86-004-78,-3.1,0.039,-0.061,9.53,3.0,3848.0,0.0,0.0,
2025-08-15T00:49:56.183Z,6,GR86-004-78,-3.0,0.015,-0.071,10.25,3.0,,0.0,0.0,80.91
2025-08-15T00:49:56.226Z,6,GR86-004-78,-2.9000000000000004,-0.043,-0.058,11.78,3.0,,0.0,0.0,
2025-08-15T00:49:56.269Z,6,GR86-004-78,-2.8000000000000003,-0.045,-0.077,11.71,3.0,,0.0,0.0,
2025-08-15T00:49:56.355Z,6,GR86-004-78,-2.5,-0.004,-0.059,10.98,3.0,3806.0,0.0,0.0,
2025-08-15T00:49:56.441Z,6,GR86-004-78,-2.5,0.001,-0.059,11.33,3.0,,0.0,0.0,81.31
2025-08-15T00:49:56.484Z,6,GR86-004-78,-2.4000000000000004,0.014,-0.056,11.4,3.0,,0.0,0.0,
2025-08-15T00:49:56.527Z,6,GR86-004-78,-2.4000000000000004,-0.011,-0.052,11.69,3.0,,0.0,0.0,
2025-08-15T00:49:56.571Z,6,GR86-004-78,-2.4000000000000004,-0.009,-0.046,12.07,3.0,3772.0,0.0,0.0,
2025-08-15T00:49:56.614Z,6,GR86-004-78,-2.3000000000000003,-0.003,-0.057,12.38,3.0,,0.0,0.0,81.55
2025-08-15T00:49:56.657Z,6,GR86-004-78,-2.3000000000000003,0.012,-0.049,12.56,3.0,,0.0,0.0,
2025-08-15T00:49:56.743Z,6,GR86-004-78,-2.3000000000000003,0.018,-0.059,12.68,3.0,,0.0,0.0,
2025-08-15T00:49:56.786Z,6,GR86-004-78,-2.2,0.018,-0.052,12.7,3.0,3766.0,0.0,0.0,
2025-08-15T00:49:56.829Z,6,GR86-004-78,-2.2,0.03,-0.055,12.1,3.0,,0.0,0.0,81.62
2025-08-15T00:49:56.872Z,6,GR86-004-78,-2.2,0.034,-0.06,11.96,3.0,,0.0,0.0,
2025-08-15T00:49:56.915Z,6,GR86-004-78,-2.2,0.023,-0.053,11.84,3.0,,0.0,0.0,
2025-08-15T00:49:56.958Z,6,GR86-004-78,-2.1,0.011,-0.049,11.53,3.0,,0.0,0.0,
2025-08-15T00:49:57.002Z,6,GR86-004-78,-2.1,-0.007,-0.048,10.61,3.0,3773.0,0.0,0.0,
2025-08-15T00:49:57.088Z,6,GR86-004-78,-2.1,-0.012,-0.035,10.18,3.0,,0.0,0.0,81.67
2025-08-15T00:49:57.131Z,6,GR86-004-78,-2.1,0.003,-0.047,10.45,3.0,,0.0,0.0,
2025-08-15T00:49:57.174Z,6,GR86-004-78,-2.1,-0.016,-0.044,10.57,3.0,,0.0,0.0,
2025-08-15T00:49:57.217Z,6,GR86-004-78,-2.1,-0.035,-0.039,10.97,3.0,3781.0,0.0,0.0,
2025-08-15T00:49:57.260Z,6,GR86-004-78,-2.2,-0.033,-0.056,11.94,3.0,,0.0,0.0,81.75
2025-08-15T00:49:57.303Z,6,GR86-004-78,-2.6,-0.031,-0.061,15.52,3.0,,0.0,0.0,
2025-08-15T00:49:57.346Z,6,GR86-004-78,-2.7,-0.023,-0.092,16.94,3.0,,0.0,0.0,
2025-08-15T00:49:57.391Z,6,GR86-004-78,-2.7,-0.03,-0.087,16.86,3.0,,0.0,0.0,
2025-08-15T00:49:57.434Z,6,GR86-004-78,-2.7,0.005,-0.092,16.01,3.0,3783.0,0.0,0.0,
2025-08-15T00:49:57.478Z,6,GR86-004-78,-2.5,0.063,-0.079,15.44,3.0,,0.0,0.0,82.03
2025-08-15T00:49:57.521Z,6,GR86-004-78,-2.4000000000000004,0.084,-0.067,15.08,3.0,,0.0,0.0,
2025-08-15T00:49:57.564Z,6,GR86-004-78,-2.3000000000000003,0.047,-0.082,15.38,3.0,,0.0,0.0,
2025-08-15T00:49:57.607Z,6,GR86-004-78,-2.3000000000000003,0.011,-0.068,15.65,3.0,,0.0,0.0,
2025-08-15T00:49:57.650Z,6,GR86-004-78,-2.3000000000000003,0.038,-0.073,15.43,3.0,3783.0,0.0,0.0,
2025-08-15T00:49:57.694Z,6,GR86-004-78,-2.2,0.048,-0.075,15.47,3.0,,0.0,0.0,82.04
2025-08-15T00:49:57.737Z,6,GR86-004-78,-2.2,0.046,-0.068,16.09,3.0,,0.0,0.0,
2025-08-15T00:49:57.780Z,6,GR86-004-78,-2.2,0.049,-0.081,16.25,3.0,,0.0,0.0,
2025-08-15T00:49:57.823Z,6,GR86-004-78,-2.2,0.057,-0.078,16.18,3.0,,0.0,0.0,
2025-08-15T00:49:57.868Z,6,GR86-004-78,-2.2,0.039,-0.07,16.05,3.0,3839.0,0.0,0.0,
2025-08-15T00:49:57.911Z,6,GR86-004-78,-2.2,0.043,-0.068,16.4,3.0,,0.0,0.0,82.31
2025-08-15T00:49:57.954Z,6,GR86-004-78,-2.2,0.051,-0.083,16.32,3.0,,0.0,0.0,
2025-08-15T00:49:57.997Z,6,GR86-004-78,-2.2,0.055,-0.076,16.38,3.0,,0.0,0.0,
2025-08-15T00:49:58.040Z,6,GR86-004-78,-2.2,0.077,-0.084,16.5,3.0,,0.0,0.0,
2025-08-15T00:49:58.083Z,6,GR86-004-78,-2.2,0.079,-0.083,16.67,3.0,3850.0,0.0,0.0,
2025-08-15T00:49:58.126Z,6,GR86-004-78,-2.2,0.042,-0.073,16.73,3.0,,0.0,0.0,82.79
2025-08-15T00:49:58.169Z,6,GR86-004-78,-2.2,0.041,-0.072,16.98,3.0,,0.0,0.0,
2025-08-15T00:49:58.212Z,6,GR86-004-78,-2.2,0.07,-0.08,16.98,3.0,,0.0,0.0,
2025-08-15T00:49:58.255Z,6,GR86-004-78,-2.2,0.069,-0.081,17.05,3.0,,0.0,0.0,
2025-08-15T00:49:58.298Z,6,GR86-004-78,-2.2,0.084,-0.093,17.22,3.0,3870.0,0.0,0.0,
2025-08-15T00:49:58.341Z,6,GR86-004-78,-2.2,0.078,-0.082,17.72,3.0,,0.0,0.0,83.31
2025-08-15T00:49:58.384Z,6,GR86-004-78,-2.1,0.086,-0.088,17.8,3.0,,0.0,0.0,
2025-08-15T00:49:58.427Z,6,GR86-004-78,-2.1,0.056,-0.074,17.87,3.0,,0.0,0.0,
2025-08-15T00:49:58.470Z,6,GR86-004-78,-2.1,0.072,-0.088,18.16,3.0,,0.0,0.0,
2025-08-15T00:49:58.513Z,6,GR86-004-78,-2.1,0.083,-0.08,18.37,3.0,3894.0,0.0,0.0,
2025-08-15T00:49:58.556Z,6,GR86-004-78,-2.1,0.079,-0.088,18.41,3.0,,0.0,0.0,83.82000000000001
2025-08-15T00:49:58.599Z,6,GR86-004-78,-2.1,0.078,-0.074,18.43,3.0,,0.0,0.0,
2025-08-15T00:49:58.642Z,6,GR86-004-78,-2.0,0.101,-0.065,18.44,3.0,,0.0,0.0,
2025-08-15T00:49:58.685Z,6,GR86-004-78,-2.0,0.099,-0.068,18.44,3.0,,0.0,0.0,
2025-08-15T00:49:58.728Z,6,GR86-004-78,-2.0,0.068,-0.065,18.38,3.0,3924.0,0.0,0.0,
2025-08-15T00:49:58.771Z,6,GR86-004-78,-2.0,0.07,-0.058,18.34,3.0,,0.0,0.0,84.33
2025-08-15T00:49:58.814Z,6,GR86-004-78,-2.0,0.092,-0.072,18.29,3.0,,0.0,0.0,
2025-08-15T00:49:58.857Z,6,GR86-004-78,-2.0,0.094,-0.068,18.19,3.0,,0.0,0.0,
2025-08-15T00:49:58.900Z,6,GR86-004-78,-2.0,0.089,-0.072,18.05,3.0,,0.0,0.0,
2025-08-15T00:49:58.943Z,6,GR86-004-78,-2.0,0.08,-0.062,18.08,3.0,3949.0,0.0,0.0,
2025-08-15T00:49:58.986Z,6,GR86-004-78,-2.0,0.057,-0.064,18.06,3.0,,0.0,0.0,84.89
2025-08-15T00:49:59.029Z,6,GR86-004-78,-2.0,0.059,-0.067,18.09,3.0,,0.0,0.0,
2025-08-15T00:49:59.073Z,6,GR86-004-78,-2.0,0.069,-0.067,18.12,3.0,,0.0,0.0,
2025-08-15T00:49:59.116Z,6,GR86-004-78,-2.0,0.074,-0.073,18.19,3.0,,0.0,0.0,
2025-08-15T00:49:59.159Z,6,GR86-004-78,-2.0,0.07,-0.085,18.26,3.0,3972.0,0.0,0.0,
2025-08-15T00:49:59.202Z,6,GR86-004-78,-2.0,0.071,-0.087,18.29,3.0,,0.0,0.0,85.5
2025-08-15T00:49:59.245Z,6,GR86-004-78,-2.0,0.082,-0.089,18.27,3.0,,0.0,0.0,
2025-08-15T00:49:59.288Z,6,GR86-004-78,-1.9,0.073,-0.063,18.3,3.0,,0.0,0.0,
2025-08-15T00:49:59.331Z,6,GR86-004-78,-1.9,0.056,-0.065,18.31,3.0,,0.0,0.0,
2025-08-15T00:49:59.374Z,6,GR86-004-78,-1.9,0.057,-0.049,18.31,3.0,4007.0,0.0,0.0,
2025-08-15T00:49:59.417Z,6,GR86-004-78,-1.9,0.057,-0.065,18.31,3.0,,0.0,0.0,86.13
2025-08-15T00:49:59.460Z,6,GR86-004-78,-1.9,0.068,-0.049,18.24,3.0,,0.0,0.0,
2025-08-15T00:49:59.503Z,6,GR86-004-78,-1.9,0.07,-0.068,18.09,3.0,,0.0,0.0,
2025-08-15T00:49:59.546Z,6,GR86-004-78,-1.9,0.079,-0.067,18.19,3.0,,0.0,0.0,
2025-08-15T00:49:59.589Z,6,GR86-004-78,-1.9,0.063,-0.085,18.01,3.0,4040.0,0.0,0.0,
2025-08-15T00:49:59.632Z,6,GR86-004-78,-1.9,0.069,-0.054,17.990000000000002,3.0,,0.0,0.0,86.76
2025-08-15T00:49:59.675Z,6,GR86-004-78,-1.9,0.072,-0.055,18.03,3.0,,0.0,0.0,
2025-08-15T00:49:59.718Z,6,GR86-004-78,-1.9,0.063,-0.049,18.04,3.0,,0.0,0.0,
2025-08-15T00:49:59.761Z,6,GR86-004-78,-1.8,0.049,-0.057,18.09,3.0,,0.0,0.0,
2025-08-15T00:49:59.804Z,6,GR86-004-78,-1.8,0.047,-0.042,18.15,3.0,4067.0,0.0,0.0,
2025-08-15T00:49:59.847Z,6,GR86-004-78,-1.7000000000000002,0.083,-0.053,18.22,3.0,,0.0,0.0,87.33
2025-08-15T00:49:59.890Z,6,GR86-004-78,-1.7000000000000002,0.095,-0.057,18.15,3.0,,0.0,0.0,
2025-08-15T00:49:59.933Z,6,GR86-004-78,-1.7000000000000002,0.08,-0.045,18.15,3.0,,0.0,0.0,
2025-08-15T00:49:59.976Z,6,GR86-004-78,-1.7000000000000002,0.081,-0.054,18.03,3.0,,0.0,0.0,
2025-08-15T00:50:00.019Z,6,GR86-004-78,-1.7000000000000002,0.073,-0.053,16.43,3.0,4089.0,0.0,0.0,
2025-08-15T00:50:00.062Z,6,GR86-004-78,-1.7000000000000002,0.086,-0.053,15.65,3.0,,0.0,0.0,87.96000000000001
2025-08-15T00:50:00.105Z,6,GR86-004-78,-1.7000000000000002,0.076,-0.062,15.65,3.0,,0.0,0.0,
2025-08-15T00:50:00.148Z,6,GR86-004-78,-1.6,0.014,-0.048,15.58,3.0,,0.0,0.0,
2025-08-15T00:50:00.191Z,6,GR86-004-78,-1.6,0.019,-0.051,15.74,3.0,,0.0,0.0,
2025-08-15T00:50:00.234Z,6,GR86-004-78,-1.6,0.029,-0.053,14.8,3.0,4121.0,0.0,0.0,
2025-08-15T00:50:00.277Z,6,GR86-004-78,-1.6,0.04,-0.044,14.33,3.0,,0.0,0.0,89.15
2025-08-15T00:50:00.320Z,6,GR86-004-78,-1.6,0.036,-0.055,14.5,3.0,,0.0,0.0,
2025-08-15T00:50:00.363Z,6,GR86-004-78,-1.5,0.01,-0.045,14.8,3.0,,0.0,0.0,
2025-08-15T00:50:00.406Z,6,GR86-004-78,-1.5,0.022,-0.06,14.87,3.0,,0.0,0.0,
2025-08-15T00:50:00.449Z,6,GR86-004-78,-1.5,0.038,-0.043,14.74,3.0,4142.0,0.0,0.0,
2025-08-15T00:50:00.492Z,6,GR86-004-78,-1.5,0.037,-0.049,14.75,3.0,,0.0,0.0,89.72
2025-08-15T00:50:00.535Z,6,GR86-004-78,-1.4,0.037,-0.034,14.87,3.0,,0.0,0.0,
2025-08-15T00:50:00.578Z,6,GR86-004-78,-1.4,0.021,-0.046,15.1,3.0,,0.0,0.0,
2025-08-15T00:50:00.621Z,6,GR86-004-78,-1.4,0.022,-0.04,15.04,3.0,,0.0,0.0,
2025-08-15T00:50:00.664Z,6,GR86-004-78,-1.4,0.026,-0.047,15.19,3.0,4164.0,0.0,0.0,
2025-08-15T00:50:00.707Z,6,GR86-004-78,-1.4,0.04,-0.056,14.94,3.0,,0.0,0.0,90.06
2025-08-15T00:50:00.750Z,6,GR86-004-78,-1.4,0.03,-0.047,14.91,3.0,,0.0,0.0,
2025-08-15T00:50:00.794Z,6,GR86-004-78,-1.4,0.014,-0.051,15.06,3.0,,0.0,0.0,
2025-08-15T00:50:00.837Z,6,GR86-004-78,-1.4,0.012,-0.038,14.76,3.0,,0.0,0.0,
2025-08-15T00:50:00.880Z,6,GR86-004-78,-1.4,0.029,-0.056,14.03,3.0,4197.0,0.0,0.0,
2025-08-15T00:50:00.924Z,6,GR86-004-78,-1.3,0.029,-0.041,13.91,3.0,,0.0,0.0,90.34
2025-08-15T00:50:00.968Z,6,GR86-004-78,-1.3,0.014,-0.057,13.31,3.0,,0.0,0.0,
2025-08-15T00:50:01.054Z,6,GR86-004-78,-1.3,0.004,-0.04,11.42,3.0,,0.0,0.0,
2025-08-15T00:50:01.098Z,6,GR86-004-78,-1.3,0.019,-0.044,8.84,3.0,4205.0,0.0,0.0,
2025-08-15T00:50:01.141Z,6,GR86-004-78,-1.3,0.007,-0.047,8.040000000000001,3.0,,0.0,0.0,90.65
2025-08-15T00:50:01.184Z,6,GR86-004-78,-1.4,-0.014,-0.049,7.94,3.0,,0.0,0.0,
2025-08-15T00:50:01.228Z,6,GR86-004-78,-1.4,-0.034,-0.065,7.9,3.0,,0.0,0.0,
2025-08-15T00:50:01.271Z,6,GR86-004-78,-1.3,-0.042,-0.067,7.81,3.0,,0.0,0.0,
2025-08-15T00:50:01.314Z,6,GR86-004-78,-1.3,-0.042,-0.06,7.26,3.0,4209.0,0.0,0.0,
2025-08-15T00:50:01.357Z,6,GR86-004-78,-1.3,-0.04,-0.059,6.87,3.0,,0.0,0.0,90.93
2025-08-15T00:50:01.400Z,6,GR86-004-78,-1.3,-0.042,-0.063,4.55,3.0,,0.0,0.0,
2025-08-15T00:50:01.443Z,6,GR86-004-78,-1.3,-0.04,-0.065,3.34,3.0,,0.0,0.0,
2025-08-15T00:50:01.486Z,6,GR86-004-78,-1.3,-0.033,-0.056,3.29,3.0,,0.0,0.0,
2025-08-15T00:50:01.573Z,6,GR86-004-78,-1.3,-0.237,-0.056,3.12,3.0,4191.0,0.0,0.0,91.1
2025-08-15T00:50:01.616Z,6,GR86-004-78,-1.3,-0.137,-0.052,2.94,3.0,,0.0,0.0,
2025-08-15T00:50:01.702Z,6,GR86-004-78,-1.3,-0.03,-0.062,2.76,3.0,,0.0,0.0,
2025-08-15T00:50:01.788Z,6,GR86-004-78,-1.2000000000000002,-0.065,-0.06,2.42,3.0,4113.0,0.0,0.0,91.02
2025-08-15T00:50:01.831Z,6,GR86-004-78,-1.2000000000000002,-0.11,-0.063,2.35,3.0,,0.0,0.0,
2025-08-15T00:50:01.874Z,6,GR86-004-78,-1.2000000000000002,-0.062,-0.071,2.34,3.0,,0.0,0.0,
2025-08-15T00:50:01.917Z,6,GR86-004-78,-1.2000000000000002,-0.062,-0.062,2.35,3.0,,0.0,0.0,
2025-08-15T00:50:01.960Z,6,GR86-004-78,-1.2000000000000002,-0.083,-0.057,2.33,3.0,4207.0,0.0,0.0,
2025-08-15T00:50:02.003Z,6,GR86-004-78,-1.2000000000000002,-0.093,-0.057,2.37,3.0,,0.0,0.0,90.66
2025-08-15T00:50:02.046Z,6,GR86-004-78,-1.2000000000000002,-0.113,-0.032,2.35,3.0,,0.0,0.0,
2025-08-15T00:50:02.089Z,6,GR86-004-78,-1.2000000000000002,-0.103,-0.023,2.37,3.0,,0.0,0.0,
2025-08-15T00:50:02.132Z,6,GR86-004-78,-1.2000000000000002,-0.112,-0.01,2.36,3.0,,0.0,0.0,
2025-08-15T00:50:02.218Z,6,GR86-004-78,-1.2000000000000002,-0.106,-0.009,2.36,3.0,4156.0,0.0,0.0,90.07000000000001
2025-08-15T00:50:02.261Z,6,GR86-004-78,-1.2000000000000002,-0.105,-0.012,2.37,3.0,,0.0,0.0,
2025-08-15T00:50:02.304Z,6,GR86-004-78,-1.2000000000000002,-0.116,-0.015,2.37,3.0,,0.0,0.0,
2025-08-15T00:50:02.390Z,6,GR86-004-78,-1.2000000000000002,-0.086,-0.036,2.4,3.0,4101.0,0.0,0.0,
2025-08-15T00:50:02.433Z,6,GR86-004-78,-1.2000000000000002,-0.094,-0.039,2.39,3.0,,0.0,0.0,89.45
2025-08-15T00:50:02.476Z,6,GR86-004-78,-1.2000000000000002,-0.104,-0.027,2.4,3.0,,0.0,0.0,
2025-08-15T00:50:02.519Z,6,GR86-004-78,-1.1,-0.112,-0.024,2.42,3.0,,0.0,0.0,
2025-08-15T00:50:02.562Z,6,GR86-004-78,-1.1,-0.108,-0.02,2.42,3.0,,0.0,0.0,
2025-08-15T00:50:02.648Z,6,GR86-004-78,-1.1,-0.11,-0.02,2.43,3.0,4062.0,0.0,0.0,88.84
2025-08-15T00:50:02.691Z,6,GR86-004-78,-1.0,-0.086,-0.046,2.46,3.0,,0.0,0.0,
2025-08-15T00:50:02.734Z,6,GR86-004-78,-0.9,-0.075,-0.036,2.46,3.0,,0.0,0.0,
2025-08-15T00:50:02.777Z,6,GR86-004-78,-0.9,-0.085,-0.033,2.46,3.0,,0.0,0.0,
2025-08-15T00:50:02.864Z,6,GR86-004-78,-0.9,-0.077,-0.04,2.48,3.0,4037.0,0.0,0.0,88.28
2025-08-15T00:50:02.907Z,6,GR86-004-78,-0.9,-0.1,-0.028,2.48,3.0,,0.0,0.0,
2025-08-15T00:50:02.950Z,6,GR86-004-78,-0.9,-0.095,-0.028,2.49,3.0,,0.0,0.0,
2025-08-15T00:50:02.994Z,6,GR86-004-78,-0.9,-0.082,-0.049,2.49,3.0,,0.0,0.0,
2025-08-15T00:50:03.037Z,6,GR86-004-78,-0.9,-0.083,-0.035,2.48,3.0,4013.0,0.0,0.0,
2025-08-15T00:50:03.123Z,6,GR86-004-78,-0.9,-0.071,-0.046,2.5,3.0,,0.0,0.0,87.16
2025-08-15T00:50:03.168Z,6,GR86-004-78,-0.8,-0.118,-0.033,2.51,3.0,,0.0,0.0,
2025-08-15T00:50:03.211Z,6,GR86-004-78,-0.8,-0.104,-0.014,2.5,3.0,,0.0,0.0,
2025-08-15T00:50:03.297Z,6,GR86-004-78,-0.8,-0.094,-0.032,2.52,3.0,3985.0,0.0,0.0,86.61
2025-08-15T00:50:03.340Z,6,GR86-004-78,-0.8,-0.083,-0.042,2.53,3.0,,0.0,0.0,
2025-08-15T00:50:03.383Z,6,GR86-004-78,-0.8,-0.083,-0.048,2.53,3.0,,0.0,0.0,
2025-08-15T00:50:03.426Z,6,GR86-004-78,-0.8,-0.11,-0.031,2.52,3.0,,0.0,0.0,
2025-08-15T00:50:03.470Z,6,GR86-004-78,-0.8,-0.104,-0.028,2.51,3.0,3939.0,0.0,0.0,
2025-08-15T00:50:03.513Z,6,GR86-004-78,-0.8,-0.109,-0.034,2.52,3.0,,0.0,0.0,86.05
2025-08-15T00:50:03.556Z,6,GR86-004-78,-0.8,-0.102,-0.034,2.53,3.0,,0.0,0.0,
2025-08-15T00:50:03.599Z,6,GR86-004-78,-0.8,-0.092,-0.035,2.51,3.0,,0.0,0.0,
2025-08-15T00:50:03.642Z,6,GR86-004-78,-0.8,-0.084,-0.048,2.53,3.0,,0.0,0.0,
2025-08-15T00:50:03.728Z,6,GR86-004-78,-0.8,-0.075,-0.059,2.52,3.0,3911.0,0.0,0.0,85.47
2025-08-15T00:50:03.771Z,6,GR86-004-78,-0.8,-0.104,-0.046,2.52,3.0,,0.0,0.0,
2025-08-15T00:50:03.814Z,6,GR86-004-78,-0.8,-0.095,-0.05,2.52,3.0,,0.0,0.0,
2025-08-15T00:50:03.857Z,6,GR86-004-78,-0.8,-0.085,-0.058,2.52,3.0,,0.0,0.0,
2025-08-15T00:50:03.900Z,6,GR86-004-78,-0.8,-0.096,-0.056,2.51,3.0,3883.0,0.0,0.0,
2025-08-15T00:50:03.943Z,6,GR86-004-78,-0.8,-0.076,-0.058,2.52,3.0,,0.0,0.0,84.91
2025-08-15T00:50:03.986Z,6,GR86-004-78,-0.8,-0.101,-0.04,2.51,3.0,,0.0,0.0,
2025-08-15T00:50:04.029Z,6,GR86-004-78,-0.8,-0.097,-0.053,2.5,3.0,,0.0,0.0,
2025-08-15T00:50:04.072Z,6,GR86-004-78,-0.8,-0.105,-0.042,2.52,3.0,,0.0,0.0,
2025-08-15T00:50:04.116Z,6,GR86-004-78,-0.8,-0.094,-0.054,2.52,3.0,3856.0,0.0,0.0,
2025-08-15T00:50:04.159Z,6,GR86-004-78,-0.8,-0.082,-0.051,2.51,3.0,,0.0,0.0,84.37
2025-08-15T00:50:04.202Z,6,GR86-004-78,-0.8,-0.061,-0.053,2.52,3.0,,0.0,0.0,
2025-08-15T00:50:04.245Z,6,GR86-004-78,-0.8,-0.071,-0.054,2.52,3.0,,0.0,0.0,
2025-08-15T00:50:04.288Z,6,GR86-004-78,-0.8,-0.105,-0.038,4.24,3.0,,0.0,0.0,
2025-08-15T00:50:04.374Z,6,GR86-004-78,-0.8,-0.091,-0.033,4.71,3.0,3826.0,0.0,0.0,83.79
2025-08-15T00:50:04.417Z,6,GR86-004-78,-0.8,-0.069,-0.04,4.86,3.0,,0.0,0.0,
2025-08-15T00:50:04.503Z,6,GR86-004-78,-0.8,-0.074,-0.04,4.91,3.0,,0.0,0.0,
2025-08-15T00:50:04.546Z,6,GR86-004-78,-0.8,-0.036,-0.034,5.0,3.0,3801.0,0.0,0.0,
2025-08-15T00:50:04.591Z,6,GR86-004-78,-0.8,-0.033,-0.033,5.01,3.0,,0.0,0.0,83.23
2025-08-15T00:50:04.634Z,6,GR86-004-78,-0.8,-0.043,-0.042,5.04,3.0,,0.0,0.0,
2025-08-15T00:50:04.678Z,6,GR86-004-78,-0.8,-0.074,-0.043,5.04,3.0,,0.0,0.0,
2025-08-15T00:50:04.721Z,6,GR86-004-78,-0.8,-0.076,-0.037,5.04,3.0,,0.0,0.0,
2025-08-15T00:50:04.764Z,6,GR86-004-78,-0.8,-0.076,-0.041,5.0600000000000005,3.0,3776.0,0.0,0.0,
2025-08-15T00:50:04.807Z,6,GR86-004-78,-0.8,-0.035,-0.05,5.04,3.0,,0.0,0.0,82.68
2025-08-15T00:50:04.850Z,6,GR86-004-78,-0.8,-0.052,-0.051,5.04,3.0,,0.0,0.0,
2025-08-15T00:50:04.937Z,6,GR86-004-78,-0.8,-0.073,-0.051,5.03,3.0,,0.0,0.0,
2025-08-15T00:50:04.980Z,6,GR86-004-78,-0.8,-0.081,-0.038,5.0600000000000005,3.0,3751.0,0.0,0.0,
2025-08-15T00:50:05.023Z,6,GR86-004-78,-0.8,-0.075,-0.035,5.16,3.0,,0.0,0.0,82.2
2025-08-15T00:50:05.068Z,6,GR86-004-78,-0.8,-0.057,-0.05,5.98,3.0,,0.0,0.0,
2025-08-15T00:50:05.154Z,6,GR86-004-78,-0.8,-0.075,-0.035,6.61,3.0,,0.0,0.0,
2025-08-15T00:50:05.197Z,6,GR86-004-78,-0.8,-0.078,-0.029,7.9,3.0,3742.0,0.0,0.0,
2025-08-15T00:50:05.240Z,6,GR86-004-78,-0.8,-0.074,-0.015,8.07,3.0,,0.0,0.0,81.81
