timestamp,lap,vehicle_id,steering_angle,accx_can,accy_can,ath,gear,nmot,pbrake_f,pbrake_r,speed
2025-08-15T04:59:37.339Z,12,GR86-022-13,3.1,0.117,-0.001,100.01,5.0,,0.0,0.0,
2025-08-15T04:59:37.381Z,12,GR86-022-13,3.1,0.121,0.002,100.0,5.0,6366.0,0.0,0.0,
2025-08-15T04:59:37.424Z,12,GR86-022-13,3.1,0.104,0.007,100.0,5.0,,0.0,0.0,186.89
2025-08-15T04:59:37.468Z,12,GR86-022-13,3.1,0.142,0.007,100.0,5.0,,0.0,0.0,
2025-08-15T04:59:37.510Z,12,GR86-022-13,3.0,0.118,-0.018,100.01,5.0,,0.0,0.0,
2025-08-15T04:59:37.553Z,12,GR86-022-13,2.9000000000000004,0.139,0.023,100.0,5.0,,0.0,0.0,
2025-08-15T04:59:37.597Z,12,GR86-022-13,2.9000000000000004,0.131,0.006,99.98,5.0,6386.0,0.0,0.0,
2025-08-15T04:59:37.641Z,12,GR86-022-13,2.9000000000000004,0.119,0.012,100.03,5.0,,0.0,0.0,187.65
2025-08-15T04:59:37.684Z,12,GR86-022-13,2.9000000000000004,0.137,0.012,100.01,5.0,,0.0,0.0,
2025-08-15T04:59:37.728Z,12,GR86-022-13,2.9000000000000004,0.108,-0.014,99.99,5.0,,0.0,0.0,
2025-08-15T04:59:37.770Z,12,GR86-022-13,2.9000000000000004,0.13,-0.001,100.02,5.0,,0.0,0.0,
2025-08-15T04:59:37.813Z,12,GR86-022-13,2.9000000000000004,0.119,-0.007,100.01,5.0,6411.0,0.0,0.0,
2025-08-15T04:59:37.857Z,12,GR86-022-13,2.9000000000000004,0.133,0.005,99.99,5.0,,0.0,0.0,188.35
2025-08-15T04:59:37.899Z,12,GR86-022-13,3.2,0.134,0.011,100.0,5.0,,0.0,0.0,
2025-08-15T04:59:37.942Z,12,GR86-022-13,3.9,0.124,0.0,100.0,5.0,,0.0,0.0,
2025-08-15T04:59:37.985Z,12,GR86-022-13,4.4,0.136,0.015,100.0,5.0,,0.0,0.0,
2025-08-15T04:59:38.028Z,12,GR86-022-13,4.4,0.125,0.038,100.0,5.0,6426.0,0.0,0.0,
2025-08-15T04:59:38.071Z,12,GR86-022-13,4.4,0.126,0.025,99.99,5.0,,0.0,0.0,189.07
2025-08-15T04:59:38.114Z,12,GR86-022-13,4.4,0.116,0.047,100.01,5.0,,0.0,0.0,
2025-08-15T04:59:38.158Z,12,GR86-022-13,4.2,0.107,0.032,100.01,5.0,,0.0,0.0,
2025-08-15T04:59:38.200Z,12,GR86-022-13,3.2,0.134,0.032,100.0,5.0,,0.0,0.0,
2025-08-15T04:59:38.243Z,12,GR86-022-13,2.4000000000000004,0.131,0.03,100.0,5.0,6454.0,0.0,0.0,
2025-08-15T04:59:38.287Z,12,GR86-022-13,2.3000000000000003,0.143,0.017,100.02,5.0,,0.0,0.0,190.46
2025-08-15T04:59:38.329Z,12,GR86-022-13,2.3000000000000003,0.111,0.0,100.01,5.0,,0.0,0.0,
2025-08-15T04:59:38.373Z,12,GR86-022-13,2.3000000000000003,0.144,0.01,99.99,5.0,,0.0,0.0,
2025-08-15T04:59:38.415Z,12,GR86-022-13,2.3000000000000003,0.124,-0.005,100.02,5.0,,0.0,0.0,
2025-08-15T04:59:38.458Z,12,GR86-022-13,3.0,0.114,-0.02,100.0,5.0,6473.0,0.0,0.0,
2025-08-15T04:59:38.501Z,12,GR86-022-13,3.6,0.136,-0.015,100.0,5.0,,0.0,0.0,191.1
2025-08-15T04:59:38.544Z,12,GR86-022-13,3.8,0.132,0.004,100.0,5.0,,0.0,0.0,
2025-08-15T04:59:38.588Z,12,GR86-022-13,3.9,0.11,-0.034,99.99,5.0,,0.0,0.0,
2025-08-15T04:59:38.630Z,12,GR86-022-13,3.9,0.128,0.006,100.0,5.0,,0.0,0.0,
2025-08-15T04:59:38.674Z,12,GR86-022-13,3.9,0.13,0.006,99.99,5.0,6498.0,0.0,0.0,
2025-08-15T04:59:38.717Z,12,GR86-022-13,3.6,0.122,0.038,100.0,5.0,,0.0,0.0,191.92
2025-08-15T04:59:38.761Z,12,GR86-022-13,3.3000000000000003,0.116,0.024,99.99,5.0,,0.0,0.0,
2025-08-15T04:59:38.804Z,12,GR86-022-13,2.8000000000000003,0.114,0.034,100.0,5.0,,0.0,0.0,
2025-08-15T04:59:38.848Z,12,GR86-022-13,2.7,0.117,0.019,100.02,5.0,,0.0,0.0,
2025-08-15T04:59:38.891Z,12,GR86-022-13,2.7,0.117,0.026,99.97,5.0,6542.0,0.0,0.0,
2025-08-15T04:59:38.934Z,12,GR86-022-13,2.7,0.126,0.006,100.0,5.0,,0.0,0.0,192.57
2025-08-15T04:59:38.979Z,12,GR86-022-13,2.7,0.113,0.012,100.0,5.0,,0.0,0.0,
2025-08-15T04:59:39.021Z,12,GR86-022-13,2.7,0.128,0.018,99.96,5.0,,0.0,0.0,
2025-08-15T04:59:39.064Z,12,GR86-022-13,2.7,0.106,0.02,100.01,5.0,,0.0,0.0,
2025-08-15T04:59:39.108Z,12,GR86-022-13,2.7,0.129,0.033,100.0,5.0,6564.0,0.0,0.0,
2025-08-15T04:59:39.150Z,12,GR86-022-13,2.9000000000000004,0.101,0.049,100.0,5.0,,0.0,0.0,193.3
2025-08-15T04:59:39.193Z,12,GR86-022-13,3.0,0.119,0.009,100.02,5.0,,0.0,0.0,
2025-08-15T04:59:39.237Z,12,GR86-022-13,3.0,0.095,-0.016,99.99,5.0,,0.0,0.0,
2025-08-15T04:59:39.281Z,12,GR86-022-13,2.8000000000000003,0.133,-0.015,99.98,5.0,,0.0,0.0,
2025-08-15T04:59:39.324Z,12,GR86-022-13,2.6,0.121,-0.002,99.99,5.0,6588.0,0.0,0.0,
2025-08-15T04:59:39.368Z,12,GR86-022-13,2.5,0.102,-0.001,100.0,5.0,,0.0,0.0,194.02
2025-08-15T04:59:39.410Z,12,GR86-022-13,2.6,0.111,-0.001,100.01,5.0,,0.0,0.0,
2025-08-15T04:59:39.453Z,12,GR86-022-13,2.6,0.099,-0.023,100.01,5.0,,0.0,0.0,
2025-08-15T04:59:39.498Z,12,GR86-022-13,2.7,0.115,-0.022,99.99,5.0,,0.0,0.0,
2025-08-15T04:59:39.541Z,12,GR86-022-13,3.1,0.108,-0.015,100.0,5.0,6623.0,0.0,0.0,
2025-08-15T04:59:39.584Z,12,GR86-022-13,3.4000000000000004,0.121,-0.009,100.03,5.0,,0.0,0.0,194.58
2025-08-15T04:59:39.628Z,12,GR86-022-13,3.6,0.107,-0.024,99.98,5.0,,0.0,0.0,
2025-08-15T04:59:39.670Z,12,GR86-022-13,3.6,0.095,0.003,99.98,5.0,,0.0,0.0,
2025-08-15T04:59:39.713Z,12,GR86-022-13,3.6,0.102,0.005,100.0,5.0,,0.0,0.0,
2025-08-15T04:59:39.757Z,12,GR86-022-13,3.7,0.108,0.01,100.03,5.0,6634.0,0.0,0.0,
2025-08-15T04:59:39.799Z,12,GR86-022-13,3.7,0.143,0.023,100.0,5.0,,0.0,0.0,195.27
2025-08-15T04:59:39.843Z,12,GR86-022-13,3.8,0.113,0.006,100.0,5.0,,0.0,0.0,
2025-08-15T04:59:39.887Z,12,GR86-022-13,3.8,0.109,0.028,99.99,5.0,,0.0,0.0,
2025-08-15T04:59:39.929Z,12,GR86-022-13,3.8,0.112,0.027,100.01,5.0,,0.0,0.0,
2025-08-15T04:59:39.972Z,12,GR86-022-13,3.8,0.095,0.038,99.97,5.0,6652.0,0.0,0.0,
2025-08-15T04:59:40.015Z,12,GR86-022-13,3.9,0.112,0.028,100.0,5.0,,0.0,0.0,195.94
2025-08-15T04:59:40.058Z,12,GR86-022-13,3.9,0.128,0.039,99.99,5.0,,0.0,0.0,
2025-08-15T04:59:40.101Z,12,GR86-022-13,3.9,0.115,0.034,100.03,5.0,,0.0,0.0,
2025-08-15T04:59:40.144Z,12,GR86-022-13,4.0,0.094,0.053,99.99,5.0,,0.0,0.0,
2025-08-15T04:59:40.188Z,12,GR86-022-13,4.4,0.097,0.036,99.99,5.0,6679.0,0.0,0.0,
2025-08-15T04:59:40.232Z,12,GR86-022-13,5.1000000000000005,0.1,0.042,100.0,5.0,,0.0,0.0,196.63
2025-08-15T04:59:40.275Z,12,GR86-022-13,5.5,0.131,0.052,100.01,5.0,,0.0,0.0,
2025-08-15T04:59:40.318Z,12,GR86-022-13,5.6000000000000005,0.107,0.058,100.01,5.0,,0.0,0.0,
2025-08-15T04:59:40.361Z,12,GR86-022-13,5.6000000000000005,0.1,0.078,99.99,5.0,,0.0,0.0,
2025-08-15T04:59:40.405Z,12,GR86-022-13,5.4,0.106,0.076,99.99,5.0,6706.0,0.0,0.0,
2025-08-15T04:59:40.448Z,12,GR86-022-13,4.7,0.096,0.1,100.01,5.0,,0.0,0.0,197.35
2025-08-15T04:59:40.490Z,12,GR86-022-13,4.1000000000000005,0.086,0.081,99.99,5.0,,0.0,0.0,
2025-08-15T04:59:40.533Z,12,GR86-022-13,4.0,0.108,0.089,99.98,5.0,,0.0,0.0,
2025-08-15T04:59:40.578Z,12,GR86-022-13,4.0,0.09,0.098,100.02,5.0,,0.0,0.0,
2025-08-15T04:59:40.621Z,12,GR86-022-13,4.0,0.09,0.089,99.97,5.0,6724.0,0.0,0.0,
2025-08-15T04:59:40.664Z,12,GR86-022-13,4.0,0.079,0.045,99.97,5.0,,0.0,0.0,198.04
2025-08-15T04:59:40.708Z,12,GR86-022-13,3.9,0.124,0.04,99.99,5.0,,0.0,0.0,
2025-08-15T04:59:40.750Z,12,GR86-022-13,3.5,0.119,0.052,100.03,5.0,,0.0,0.0,
2025-08-15T04:59:40.793Z,12,GR86-022-13,3.3000000000000003,0.132,0.01,100.0,5.0,,0.0,0.0,
2025-08-15T04:59:40.837Z,12,GR86-022-13,3.3000000000000003,0.124,0.02,100.0,5.0,6756.0,0.0,0.0,
2025-08-15T04:59:40.879Z,12,GR86-022-13,3.3000000000000003,0.105,0.029,100.0,5.0,,0.0,0.0,199.34
2025-08-15T04:59:40.922Z,12,GR86-022-13,3.4000000000000004,0.127,0.002,99.97,5.0,,0.0,0.0,
2025-08-15T04:59:40.965Z,12,GR86-022-13,4.0,0.137,0.037,99.98,5.0,,0.0,0.0,
2025-08-15T04:59:41.008Z,12,GR86-022-13,4.7,0.148,0.001,100.01,5.0,,0.0,0.0,
2025-08-15T04:59:41.051Z,12,GR86-022-13,4.9,0.124,0.026,100.03,5.0,6769.0,0.0,0.0,
2025-08-15T04:59:41.094Z,12,GR86-022-13,4.9,0.125,0.038,99.98,5.0,,0.0,0.0,199.97
2025-08-15T04:59:41.138Z,12,GR86-022-13,4.5,0.133,0.075,100.0,5.0,,0.0,0.0,
2025-08-15T04:59:41.180Z,12,GR86-022-13,4.3,0.149,0.092,100.04,5.0,,0.0,0.0,
2025-08-15T04:59:41.223Z,12,GR86-022-13,4.0,0.129,0.071,100.0,5.0,,0.0,0.0,
2025-08-15T04:59:41.267Z,12,GR86-022-13,3.9,0.132,0.071,99.99,5.0,6800.0,0.0,0.0,
2025-08-15T04:59:41.309Z,12,GR86-022-13,3.7,0.104,0.054,99.99,5.0,,0.0,0.0,200.87
2025-08-15T04:59:41.352Z,12,GR86-022-13,3.7,0.107,0.041,100.01,5.0,,0.0,0.0,
2025-08-15T04:59:41.395Z,12,GR86-022-13,3.6,0.081,0.034,100.01,5.0,,0.0,0.0,
2025-08-15T04:59:41.438Z,12,GR86-022-13,3.0,0.114,0.004,99.99,5.0,,0.0,0.0,
2025-08-15T04:59:41.481Z,12,GR86-022-13,3.0,0.13,0.027,100.0,5.0,6852.0,0.0,0.0,
2025-08-15T04:59:41.524Z,12,GR86-022-13,3.0,0.081,-0.005,100.0,5.0,,0.0,0.0,201.62
2025-08-15T04:59:41.568Z,12,GR86-022-13,3.0,0.095,0.01,99.99,5.0,,0.0,0.0,
2025-08-15T04:59:41.610Z,12,GR86-022-13,3.2,0.106,0.012,100.03,5.0,,0.0,0.0,
2025-08-15T04:59:41.653Z,12,GR86-022-13,4.2,0.128,0.014,100.0,5.0,,0.0,0.0,
2025-08-15T04:59:41.699Z,12,GR86-022-13,5.2,0.109,0.026,100.0,5.0,6880.0,0.0,0.0,
2025-08-15T04:59:41.741Z,12,GR86-022-13,5.2,0.075,0.036,100.02,5.0,,0.0,0.0,202.31
2025-08-15T04:59:41.784Z,12,GR86-022-13,4.5,0.107,0.042,100.0,5.0,,0.0,0.0,
2025-08-15T04:59:41.828Z,12,GR86-022-13,3.5,0.126,0.062,100.01,5.0,,0.0,0.0,
2025-08-15T04:59:41.870Z,12,GR86-022-13,2.7,0.139,0.054,100.01,5.0,,0.0,0.0,
2025-08-15T04:59:41.913Z,12,GR86-022-13,2.6,0.151,0.039,99.99,5.0,6894.0,0.0,0.0,
2025-08-15T04:59:41.957Z,12,GR86-022-13,2.7,0.121,0.042,99.98,5.0,,0.0,0.0,203.22
2025-08-15T04:59:41.999Z,12,GR86-022-13,2.8000000000000003,0.143,0.03,100.02,5.0,,0.0,0.0,
2025-08-15T04:59:42.042Z,12,GR86-022-13,2.8000000000000003,0.148,0.007,99.99,5.0,,0.0,0.0,
2025-08-15T04:59:42.085Z,12,GR86-022-13,2.8000000000000003,0.126,-0.002,100.01,5.0,,0.0,0.0,
2025-08-15T04:59:42.128Z,12,GR86-022-13,2.8000000000000003,0.119,-0.021,100.01,5.0,6925.0,0.0,0.0,
2025-08-15T04:59:42.171Z,12,GR86-022-13,3.4000000000000004,0.106,0.001,100.02,5.0,,0.0,0.0,203.88
2025-08-15T04:59:42.214Z,12,GR86-022-13,4.6000000000000005,0.094,0.022,100.04,5.0,,0.0,0.0,
2025-08-15T04:59:42.258Z,12,GR86-022-13,6.4,0.124,0.033,99.99,5.0,,0.0,0.0,
2025-08-15T04:59:42.301Z,12,GR86-022-13,6.4,0.105,0.031,99.98,5.0,,0.0,0.0,
2025-08-15T04:59:42.344Z,12,GR86-022-13,5.5,0.08,0.038,99.97,5.0,6950.0,0.0,0.0,
2025-08-15T04:59:42.388Z,12,GR86-022-13,4.5,0.101,0.054,100.0,5.0,,0.0,0.0,204.7
2025-08-15T04:59:42.431Z,12,GR86-022-13,3.2,0.101,0.072,99.97,5.0,,0.0,0.0,
2025-08-15T04:59:42.475Z,12,GR86-022-13,2.7,0.153,0.066,99.98,5.0,,0.0,0.0,
2025-08-15T04:59:42.518Z,12,GR86-022-13,3.2,0.089,0.081,100.01,5.0,,0.0,0.0,
2025-08-15T04:59:42.561Z,12,GR86-022-13,3.6,0.094,0.052,100.03,5.0,6987.0,0.0,0.0,
2025-08-15T04:59:42.604Z,12,GR86-022-13,3.7,0.153,0.076,100.03,5.0,,0.0,0.0,205.53
2025-08-15T04:59:42.649Z,12,GR86-022-13,3.7,0.112,0.038,100.01,5.0,,0.0,0.0,
2025-08-15T04:59:42.691Z,12,GR86-022-13,3.4000000000000004,0.136,0.028,100.01,5.0,,0.0,0.0,
2025-08-15T04:59:42.734Z,12,GR86-022-13,2.3000000000000003,0.089,0.002,100.02,5.0,,0.0,0.0,
2025-08-15T04:59:42.779Z,12,GR86-022-13,0.7000000000000001,0.125,-0.026,100.02,5.0,7005.0,0.0,0.0,
2025-08-15T04:59:42.821Z,12,GR86-022-13,0.2,0.123,-0.049,99.98,5.0,,0.0,0.0,206.17
2025-08-15T04:59:42.864Z,12,GR86-022-13,0.2,0.113,-0.042,99.97,5.0,,0.0,0.0,
2025-08-15T04:59:42.908Z,12,GR86-022-13,0.7000000000000001,0.088,-0.065,100.03,5.0,,0.0,0.0,
2025-08-15T04:59:42.950Z,12,GR86-022-13,0.7000000000000001,0.095,-0.073,100.01,5.0,,0.0,0.0,
2025-08-15T04:59:42.993Z,12,GR86-022-13,0.9,0.108,-0.057,99.99,5.0,7017.0,0.0,0.0,
2025-08-15T04:59:43.037Z,12,GR86-022-13,1.2000000000000002,0.09,-0.083,99.99,5.0,,0.0,0.0,206.94
2025-08-15T04:59:43.079Z,12,GR86-022-13,1.2000000000000002,0.09,-0.096,99.98,5.0,,0.0,0.0,
2025-08-15T04:59:43.122Z,12,GR86-022-13,0.9,0.121,-0.072,100.0,5.0,,0.0,0.0,
2025-08-15T04:59:43.165Z,12,GR86-022-13,0.8,0.101,-0.083,100.0,5.0,,0.0,0.0,
2025-08-15T04:59:43.208Z,12,GR86-022-13,1.2000000000000002,0.132,-0.095,99.97,5.0,7054.0,0.0,0.0,
2025-08-15T04:59:43.251Z,12,GR86-022-13,2.6,0.122,-0.081,100.03,5.0,,0.0,0.0,207.6
2025-08-15T04:59:43.294Z,12,GR86-022-13,3.9,0.093,-0.087,100.03,5.0,,0.0,0.0,
2025-08-15T04:59:43.338Z,12,GR86-022-13,5.2,0.131,-0.058,100.02,5.0,,0.0,0.0,
2025-08-15T04:59:43.381Z,12,GR86-022-13,5.4,0.12,-0.02,100.01,5.0,,0.0,0.0,
2025-08-15T04:59:43.468Z,12,GR86-022-13,5.5,0.081,0.04,100.03,5.0,7069.0,0.0,0.0,208.26
2025-08-15T04:59:43.510Z,12,GR86-022-13,5.9,0.114,0.036,100.03,5.0,,0.0,0.0,
2025-08-15T04:59:43.553Z,12,GR86-022-13,6.2,0.102,0.043,99.99,5.0,,0.0,0.0,
2025-08-15T04:59:43.597Z,12,GR86-022-13,4.9,0.088,0.07,100.03,5.0,,0.0,0.0,
2025-08-15T04:59:43.641Z,12,GR86-022-13,2.9000000000000004,0.103,0.081,100.02,5.0,7090.0,0.0,0.0,
2025-08-15T04:59:43.684Z,12,GR86-022-13,2.3000000000000003,0.141,0.081,100.0,5.0,,0.0,0.0,209.46
2025-08-15T04:59:43.728Z,12,GR86-022-13,2.9000000000000004,0.151,0.085,100.01,5.0,,0.0,0.0,
2025-08-15T04:59:43.770Z,12,GR86-022-13,3.6,0.125,0.059,100.0,5.0,,0.0,0.0,
2025-08-15T04:59:43.813Z,12,GR86-022-13,3.8,0.113,0.048,100.01,5.0,,0.0,0.0,
2025-08-15T04:59:43.857Z,12,GR86-022-13,4.9,-1.507,-0.045,99.97,5.0,7110.0,0.0,0.0,
2025-08-15T04:59:43.899Z,12,GR86-022-13,6.2,-1.395,0.207,99.97,5.0,,0.0,0.0,209.96
2025-08-15T04:59:43.942Z,12,GR86-022-13,8.4,0.076,-0.31,100.01,5.0,,0.0,0.0,
2025-08-15T04:59:43.985Z,12,GR86-022-13,11.2,0.063,-0.136,99.97,5.0,,0.0,0.0,
2025-08-15T04:59:44.028Z,12,GR86-022-13,14.3,0.072,-0.137,99.98,5.0,,0.0,0.0,
2025-08-15T04:59:44.071Z,12,GR86-022-13,16.0,0.171,-0.06,99.99,5.0,7134.0,0.0,0.0,
2025-08-15T04:59:44.114Z,12,GR86-022-13,16.1,0.122,0.055,99.97,5.0,,0.0,0.0,210.76
2025-08-15T04:59:44.158Z,12,GR86-022-13,16.1,0.123,0.262,100.01,5.0,,0.0,0.0,
2025-08-15T04:59:44.200Z,12,GR86-022-13,16.1,0.117,0.343,99.99,5.0,,0.0,0.0,
2025-08-15T04:59:44.243Z,12,GR86-022-13,15.4,0.115,0.424,100.0,5.0,,0.0,0.0,
2025-08-15T04:59:44.287Z,12,GR86-022-13,13.5,0.122,0.489,100.02,5.0,7044.0,0.0,0.0,
2025-08-15T04:59:44.329Z,12,GR86-022-13,12.3,0.135,0.501,99.98,5.0,,0.0,0.0,208.99
2025-08-15T04:59:44.372Z,12,GR86-022-13,13.0,0.109,0.528,99.98,5.0,,0.0,0.0,
2025-08-15T04:59:44.415Z,12,GR86-022-13,14.4,0.114,0.506,100.0,5.0,,0.0,0.0,
2025-08-15T04:59:44.458Z,12,GR86-022-13,14.0,0.124,0.501,100.02,5.0,,0.0,0.0,
2025-08-15T04:59:44.501Z,12,GR86-022-13,13.0,0.112,0.448,100.01,5.0,7058.0,3.16,3.435,
2025-08-15T04:59:44.544Z,12,GR86-022-13,12.8,0.094,0.404,99.98,5.0,,3.22,3.495,207.58
2025-08-15T04:59:44.588Z,12,GR86-022-13,12.8,0.088,0.389,99.97,5.0,,0.0,0.0,
2025-08-15T04:59:44.630Z,12,GR86-022-13,12.8,0.126,0.349,100.0,5.0,,9.43,9.935,
2025-08-15T04:59:44.674Z,12,GR86-022-13,12.8,0.037,0.365,99.98,5.0,,11.58,12.085,
2025-08-15T04:59:44.717Z,12,GR86-022-13,12.8,-0.036,0.348,100.03,5.0,7081.0,9.6,10.115,
2025-08-15T04:59:44.759Z,12,GR86-022-13,12.8,-0.028,0.356,99.99,5.0,,9.75,10.405,208.26
2025-08-15T04:59:44.802Z,12,GR86-022-13,12.8,-0.024,0.351,99.98,5.0,,6.455,7.11,
2025-08-15T04:59:44.845Z,12,GR86-022-13,12.8,0.05,0.322,100.0,5.0,,2.485,3.1,
2025-08-15T04:59:44.888Z,12,GR86-022-13,12.8,0.06,0.331,99.97,5.0,,11.4,12.085,
2025-08-15T04:59:44.931Z,12,GR86-022-13,12.7,-0.067,0.321,99.97,5.0,7091.0,12.36,12.895,
2025-08-15T04:59:44.974Z,12,GR86-022-13,12.1,-0.089,0.323,100.0,5.0,,8.3,9.125,208.84
2025-08-15T04:59:45.018Z,12,GR86-022-13,10.6,0.061,0.313,100.0,5.0,,0.0,0.0,
2025-08-15T04:59:45.061Z,12,GR86-022-13,9.1,0.09,0.294,100.01,5.0,,2.5500000000000003,3.1,
2025-08-15T04:59:45.104Z,12,GR86-022-13,7.7,0.067,0.259,99.98,5.0,,0.0,0.0,
2025-08-15T04:59:45.148Z,12,GR86-022-13,7.300000000000001,0.064,0.233,99.97,5.0,7085.0,0.0,0.0,
2025-08-15T04:59:45.191Z,12,GR86-022-13,7.300000000000001,0.067,0.215,99.97,5.0,,0.0,0.0,208.58
2025-08-15T04:59:45.234Z,12,GR86-022-13,6.9,0.096,0.2,99.99,5.0,,0.0,0.0,
2025-08-15T04:59:45.279Z,12,GR86-022-13,5.300000000000001,0.077,0.123,100.0,5.0,,0.0,0.0,
2025-08-15T04:59:45.321Z,12,GR86-022-13,4.4,0.086,0.089,99.98,5.0,,0.0,0.0,
2025-08-15T04:59:45.364Z,12,GR86-022-13,3.4000000000000004,0.074,0.075,99.97,5.0,7087.0,0.0,0.0,
2025-08-15T04:59:45.408Z,12,GR86-022-13,2.6,0.08,0.037,100.0,5.0,,0.0,0.0,208.39
2025-08-15T04:59:45.450Z,12,GR86-022-13,1.9,0.07,0.007,100.0,5.0,,0.0,0.0,
2025-08-15T04:59:45.493Z,12,GR86-022-13,0.6000000000000001,0.077,-0.033,100.01,5.0,,0.0,0.0,
2025-08-15T04:59:45.537Z,12,GR86-022-13,-2.0,0.068,-0.061,99.97,5.0,,0.0,0.0,
2025-08-15T04:59:45.581Z,12,GR86-022-13,-3.1,0.071,-0.11,100.0,5.0,7086.0,0.0,0.0,
2025-08-15T04:59:45.624Z,12,GR86-022-13,-3.1,0.069,-0.176,99.97,5.0,,0.0,1.86,209.05
2025-08-15T04:59:45.668Z,12,GR86-022-13,-1.0,0.072,-0.214,100.03,5.0,,5.25,5.525,
2025-08-15T04:59:45.753Z,12,GR86-022-13,1.2000000000000002,0.008,-0.209,100.02,5.0,,10.865,10.865,
2025-08-15T04:59:45.797Z,12,GR86-022-13,-0.4,-0.29,-0.206,1.54,5.0,7110.0,27.225,27.055,
2025-08-15T04:59:45.841Z,12,GR86-022-13,-3.0,-0.412,-0.202,2.87,5.0,,29.895,29.955,209.51
2025-08-15T04:59:45.884Z,12,GR86-022-13,-5.0,-0.718,-0.191,2.84,5.0,,30.58,30.64,
2025-08-15T04:59:45.928Z,12,GR86-022-13,-5.4,-0.5740000000000001,-0.17,2.81,5.0,,31.33,31.3,
2025-08-15T04:59:45.970Z,12,GR86-022-13,-4.7,-0.858,-0.263,2.77,5.0,,32.38,32.38,
2025-08-15T04:59:46.013Z,12,GR86-022-13,-0.7000000000000001,-0.67,-0.253,2.74,5.0,7118.0,35.615,35.405,
2025-08-15T04:59:46.057Z,12,GR86-022-13,4.800000000000001,-0.89,-0.188,2.69,5.0,,42.27,42.025,209.81
2025-08-15T04:59:46.099Z,12,GR86-022-13,2.5,-0.861,-0.17,2.67,5.0,,43.43,43.17,
2025-08-15T04:59:46.143Z,12,GR86-022-13,-3.7,-0.871,-0.164,2.65,5.0,,47.995000000000005,47.49,
2025-08-15T04:59:46.185Z,12,GR86-022-13,-10.3,-0.948,-0.201,2.63,5.0,,56.75,56.22,
2025-08-15T04:59:46.228Z,12,GR86-022-13,-13.0,-1.051,-0.229,2.64,5.0,6781.0,64.365,63.74,
2025-08-15T04:59:46.271Z,12,GR86-022-13,-10.6,-1.121,-0.257,2.62,5.0,,70.545,71.11,208.45
2025-08-15T04:59:46.314Z,12,GR86-022-13,-7.800000000000001,-1.168,-0.243,2.61,5.0,,72.545,74.315,
2025-08-15T04:59:46.358Z,12,GR86-022-13,-3.7,-1.093,-0.286,2.58,5.0,,60.11,61.3,
2025-08-15T04:59:46.401Z,12,GR86-022-13,-1.4,-0.989,-0.262,2.56,5.0,,45.095,46.27,
2025-08-15T04:59:46.444Z,12,GR86-022-13,0.1,-0.744,-0.355,20.38,5.0,6729.0,39.155,39.995,
2025-08-15T04:59:46.488Z,12,GR86-022-13,2.3000000000000003,-0.917,-0.403,67.1,5.0,,45.75,46.085,197.77
2025-08-15T04:59:46.531Z,12,GR86-022-13,6.4,-0.908,-0.345,97.65,4.0,,58.155,58.125,
2025-08-15T04:59:46.573Z,12,GR86-022-13,13.3,-1.057,-0.334,41.4,4.0,,69.8,70.33500000000001,
2025-08-15T04:59:46.617Z,12,GR86-022-13,9.7,-1.194,-0.134,3.02,4.0,,82.58500000000001,84.205,
2025-08-15T04:59:46.660Z,12,GR86-022-13,2.7,-1.128,-0.306,2.78,4.0,6381.0,82.205,82.65,
2025-08-15T04:59:46.702Z,12,GR86-022-13,0.8,-1.288,-0.268,2.69,4.0,,82.58500000000001,82.58500000000001,190.06
2025-08-15T04:59:46.745Z,12,GR86-022-13,5.4,-1.144,-0.221,2.63,4.0,,85.35000000000001,86.37,
2025-08-15T04:59:46.788Z,12,GR86-022-13,8.1,-1.127,-0.314,2.61,4.0,,87.5,87.93,
2025-08-15T04:59:46.832Z,12,GR86-022-13,4.800000000000001,-1.086,-0.139,2.57,4.0,,86.705,87.3,
2025-08-15T04:59:46.875Z,12,GR86-022-13,-4.0,-1.201,-0.076,2.56,4.0,6114.0,86.645,87.805,
2025-08-15T04:59:46.918Z,12,GR86-022-13,-17.900000000000002,-1.201,-0.192,2.54,4.0,,86.125,86.935,183.33
2025-08-15T04:59:46.961Z,12,GR86-022-13,-17.7,-1.275,-0.26,2.53,4.0,,84.95,85.12,
2025-08-15T04:59:47.004Z,12,GR86-022-13,-11.5,-1.188,-0.295,2.52,4.0,,82.68,83.64,
2025-08-15T04:59:47.048Z,12,GR86-022-13,-5.4,-1.178,-0.274,2.53,4.0,,76.805,77.46000000000001,
2025-08-15T04:59:47.091Z,12,GR86-022-13,-1.9,-1.087,-0.223,2.51,4.0,6447.0,69.13,70.24,
2025-08-15T04:59:47.134Z,12,GR86-022-13,2.9000000000000004,-1.004,-0.238,2.5,4.0,,55.395,56.875,174.11
2025-08-15T04:59:47.179Z,12,GR86-022-13,10.9,-0.966,-0.19,53.7,4.0,,54.385,54.615,
2025-08-15T04:59:47.221Z,12,GR86-022-13,9.6,-1.038,-0.201,97.52,3.0,,56.66,56.585,
2025-08-15T04:59:47.264Z,12,GR86-022-13,4.1000000000000005,-1.035,-0.208,63.4,3.0,,56.78,57.120000000000005,
2025-08-15T04:59:47.308Z,12,GR86-022-13,-1.4,-1.139,-0.202,4.8,3.0,6094.0,57.685,58.875,
2025-08-15T04:59:47.350Z,12,GR86-022-13,-8.8,-1.151,-0.175,2.95,3.0,,59.71,61.055,165.47
2025-08-15T04:59:47.393Z,12,GR86-022-13,-15.3,-0.853,-0.5,2.73,3.0,,59.865,60.31,
2025-08-15T04:59:47.437Z,12,GR86-022-13,-19.4,-1.049,-0.394,2.63,3.0,,58.875,59.895,
2025-08-15T04:59:47.480Z,12,GR86-022-13,-19.4,-0.895,-0.498,2.62,3.0,,54.11,54.92,
2025-08-15T04:59:47.523Z,12,GR86-022-13,-19.1,-0.839,-0.608,2.61,3.0,6082.0,46.205,46.925,
2025-08-15T04:59:47.567Z,12,GR86-022-13,-20.4,-0.87,-0.519,2.61,3.0,,43.855,44.56,158.95000000000002
2025-08-15T04:59:47.609Z,12,GR86-022-13,-26.4,-0.834,-0.603,2.6,3.0,,41.08,41.675,
2025-08-15T04:59:47.652Z,12,GR86-022-13,-34.300000000000004,-0.788,-0.755,2.57,3.0,,41.705,42.025,
2025-08-15T04:59:47.695Z,12,GR86-022-13,-37.2,-0.774,-0.755,2.5500000000000003,3.0,,41.935,42.27,
2025-08-15T04:59:47.738Z,12,GR86-022-13,-33.5,-0.739,-0.801,2.54,3.0,6760.0,43.765,44.65,
2025-08-15T04:59:47.781Z,12,GR86-022-13,-26.6,-0.724,-0.946,2.52,3.0,,44.56,45.72,151.9
2025-08-15T04:59:47.824Z,12,GR86-022-13,-18.0,-0.673,-1.021,2.52,3.0,,38.745,39.785,
2025-08-15T04:59:47.868Z,12,GR86-022-13,-10.7,-0.603,-0.894,2.52,3.0,,32.445,33.375,
2025-08-15T04:59:47.911Z,12,GR86-022-13,-6.9,-0.784,-0.903,2.5,3.0,,30.995,31.895,
2025-08-15T04:59:47.954Z,12,GR86-022-13,-8.4,-0.627,-0.965,2.5,3.0,6447.0,29.175,29.985,
2025-08-15T04:59:47.999Z,12,GR86-022-13,-17.400000000000002,-0.512,-0.976,2.5,3.0,,20.785,21.18,146.79
2025-08-15T04:59:48.041Z,12,GR86-022-13,-18.4,-0.37,-1.052,2.5,3.0,,11.705,12.27,
2025-08-15T04:59:48.128Z,12,GR86-022-13,-2.4000000000000004,-0.213,-1.1,2.5,3.0,,0.0,0.0,
2025-08-15T04:59:48.170Z,12,GR86-022-13,-8.700000000000001,-0.174,-1.055,2.5,3.0,5938.0,0.0,0.0,
2025-08-15T04:59:48.213Z,12,GR86-022-13,-24.1,-0.12,-1.093,2.51,3.0,,0.0,0.0,141.55
2025-08-15T04:59:48.257Z,12,GR86-022-13,-33.7,-0.115,-1.285,2.5,3.0,,0.0,0.0,
2025-08-15T04:59:48.299Z,12,GR86-022-13,-22.6,-0.115,-1.201,2.48,3.0,,0.0,0.0,
2025-08-15T04:59:48.385Z,12,GR86-022-13,-15.5,-0.149,-1.12,2.5,3.0,6093.0,0.0,0.0,
2025-08-15T04:59:48.428Z,12,GR86-022-13,-27.3,-0.094,-1.069,2.5,3.0,,0.0,0.0,137.25
2025-08-15T04:59:48.471Z,12,GR86-022-13,-37.9,-0.161,-1.146,2.5,3.0,,0.0,0.0,
2025-08-15T04:59:48.514Z,12,GR86-022-13,-43.5,-0.191,-1.128,2.49,3.0,,0.0,0.0,
2025-08-15T04:59:48.558Z,12,GR86-022-13,-46.8,-0.193,-1.177,2.5,3.0,,0.0,0.0,
2025-08-15T04:59:48.601Z,12,GR86-022-13,-46.8,-0.166,-1.172,2.48,3.0,6078.0,0.0,0.0,
2025-08-15T04:59:48.644Z,12,GR86-022-13,-45.400000000000006,-0.111,-1.108,2.5,3.0,,0.0,0.0,135.25
2025-08-15T04:59:48.688Z,12,GR86-022-13,-40.5,-0.179,-1.129,2.49,3.0,,0.0,0.0,
2025-08-15T04:59:48.731Z,12,GR86-022-13,-35.6,-0.164,-1.081,2.5,3.0,,0.0,0.0,
2025-08-15T04:59:48.774Z,12,GR86-022-13,-33.9,-0.103,-1.074,2.49,3.0,,0.0,0.0,
2025-08-15T04:59:48.818Z,12,GR86-022-13,-39.400000000000006,-0.136,-1.069,2.5,3.0,6047.0,0.0,0.0,
2025-08-15T04:59:48.861Z,12,GR86-022-13,-47.1,-0.1,-1.125,2.59,3.0,,0.0,0.0,133.09
2025-08-15T04:59:48.904Z,12,GR86-022-13,-54.0,-0.176,-1.129,7.23,3.0,,0.0,0.0,
2025-08-15T04:59:48.948Z,12,GR86-022-13,-54.3,-0.169,-1.216,22.91,3.0,,0.0,0.0,
2025-08-15T04:59:48.991Z,12,GR86-022-13,-49.6,-0.107,-1.166,31.4,3.0,,0.0,0.0,
2025-08-15T04:59:49.034Z,12,GR86-022-13,-44.3,-0.107,-1.186,37.16,3.0,6008.0,0.0,0.0,
2025-08-15T04:59:49.079Z,12,GR86-022-13,-43.0,-0.087,-1.154,47.73,3.0,,0.0,0.0,130.56
2025-08-15T04:59:49.121Z,12,GR86-022-13,-44.3,-0.035,-1.134,49.29,3.0,,0.0,0.0,
2025-08-15T04:59:49.164Z,12,GR86-022-13,-44.400000000000006,0.306,-1.215,46.89,3.0,,0.0,0.0,
2025-08-15T04:59:49.208Z,12,GR86-022-13,-44.400000000000006,0.252,-1.172,46.98,3.0,,0.0,0.0,
2025-08-15T04:59:49.250Z,12,GR86-022-13,-44.400000000000006,0.175,-1.198,46.42,3.0,5954.0,0.0,0.0,
2025-08-15T04:59:49.293Z,12,GR86-022-13,-44.400000000000006,0.183,-1.229,43.54,3.0,,0.0,0.0,129.28
2025-08-15T04:59:49.337Z,12,GR86-022-13,-42.6,0.122,-1.195,44.92,3.0,,0.0,0.0,
2025-08-15T04:59:49.379Z,12,GR86-022-13,-41.8,0.176,-1.031,44.67,3.0,,0.0,0.0,
2025-08-15T04:59:49.422Z,12,GR86-022-13,-39.2,0.12,-1.096,44.18,3.0,,0.0,0.0,
2025-08-15T04:59:49.465Z,12,GR86-022-13,-33.7,-0.03,-1.016,42.48,3.0,5984.0,0.0,0.0,
2025-08-15T04:59:49.508Z,12,GR86-022-13,-28.6,-0.011,-1.04,43.17,3.0,,0.0,0.0,129.3
2025-08-15T04:59:49.551Z,12,GR86-022-13,-26.700000000000003,0.04,-1.121,45.43,3.0,,0.0,0.0,
2025-08-15T04:59:49.594Z,12,GR86-022-13,-28.200000000000003,0.183,-1.311,46.57,3.0,,0.0,0.0,
2025-08-15T04:59:49.638Z,12,GR86-022-13,-34.2,0.037,-0.96,79.69,3.0,,0.0,0.0,
2025-08-15T04:59:49.681Z,12,GR86-022-13,-36.4,0.035,-1.284,100.13,3.0,6208.0,0.0,0.0,
2025-08-15T04:59:49.723Z,12,GR86-022-13,-36.4,-0.023,-1.16,100.13,3.0,,0.0,0.0,130.04
2025-08-15T04:59:49.767Z,12,GR86-022-13,-34.1,0.017,-1.088,100.14,3.0,,0.0,0.0,
2025-08-15T04:59:49.809Z,12,GR86-022-13,-32.7,0.094,-0.969,100.14,3.0,,0.0,0.0,
2025-08-15T04:59:49.853Z,12,GR86-022-13,-31.5,0.241,-0.981,100.14,3.0,,0.0,0.0,
2025-08-15T04:59:49.895Z,12,GR86-022-13,-30.200000000000003,0.369,-1.106,100.12,3.0,6270.0,0.0,0.0,
2025-08-15T04:59:49.938Z,12,GR86-022-13,-30.8,0.292,-1.341,100.13,3.0,,0.0,0.0,130.34
2025-08-15T04:59:49.981Z,12,GR86-022-13,-31.5,0.247,-1.444,100.13,3.0,,0.0,0.0,
2025-08-15T04:59:50.024Z,12,GR86-022-13,-32.300000000000004,0.397,-1.2,100.13,3.0,,0.0,0.0,
2025-08-15T04:59:50.068Z,12,GR86-022-13,-32.0,0.272,-1.215,100.13,3.0,,0.0,0.0,
2025-08-15T04:59:50.111Z,12,GR86-022-13,-24.9,0.323,-1.108,100.13,3.0,6666.0,0.0,0.0,
2025-08-15T04:59:50.153Z,12,GR86-022-13,-13.2,0.225,-1.337,100.13,3.0,,0.0,0.0,130.97
2025-08-15T04:59:50.197Z,12,GR86-022-13,-4.4,0.22,-1.181,100.13,3.0,,0.0,0.0,
2025-08-15T04:59:50.239Z,12,GR86-022-13,-13.3,0.235,-1.161,100.13,3.0,,0.0,0.0,
2025-08-15T04:59:50.282Z,12,GR86-022-13,-28.4,0.184,-1.246,100.15,3.0,,0.0,0.0,
2025-08-15T04:59:50.327Z,12,GR86-022-13,-41.1,0.186,-1.251,100.12,3.0,6503.0,0.0,0.0,
2025-08-15T04:59:50.369Z,12,GR86-022-13,-44.0,0.246,-1.298,100.1,3.0,,0.0,0.0,131.82
2025-08-15T04:59:50.412Z,12,GR86-022-13,-38.0,0.259,-1.346,100.1,3.0,,0.0,0.0,
2025-08-15T04:59:50.455Z,12,GR86-022-13,-26.0,0.198,-1.29,100.1,3.0,,0.0,0.0,
2025-08-15T04:59:50.498Z,12,GR86-022-13,-10.2,0.204,-1.17,100.1,3.0,,0.0,0.0,
2025-08-15T04:59:50.541Z,12,GR86-022-13,-11.1,0.236,-1.14,100.1,3.0,6383.0,0.0,0.0,
2025-08-15T04:59:50.584Z,12,GR86-022-13,-19.200000000000003,0.284,-1.174,100.13,3.0,,0.0,0.0,131.83
2025-08-15T04:59:50.628Z,12,GR86-022-13,-30.8,0.24,-1.173,100.14,3.0,,0.0,0.0,
2025-08-15T04:59:50.670Z,12,GR86-022-13,-40.5,0.169,-1.219,100.1,3.0,,0.0,0.0,
2025-08-15T04:59:50.713Z,12,GR86-022-13,-43.400000000000006,0.191,-1.281,100.09,3.0,,0.0,0.0,
2025-08-15T04:59:50.757Z,12,GR86-022-13,-38.0,0.219,-1.27,100.09,3.0,6388.0,0.0,0.0,
2025-08-15T04:59:50.799Z,12,GR86-022-13,-32.1,0.292,-1.283,100.08,3.0,,0.0,0.0,131.86
2025-08-15T04:59:50.842Z,12,GR86-022-13,-28.9,0.226,-1.268,100.08,3.0,,0.0,0.0,
2025-08-15T04:59:50.885Z,12,GR86-022-13,-28.700000000000003,0.173,-1.205,100.06,3.0,,0.0,0.0,
2025-08-15T04:59:50.928Z,12,GR86-022-13,-29.8,0.245,-1.166,100.08,3.0,,0.0,0.0,
2025-08-15T04:59:50.971Z,12,GR86-022-13,-28.200000000000003,0.266,-1.194,100.06,3.0,6413.0,0.0,0.0,
2025-08-15T04:59:51.014Z,12,GR86-022-13,-23.3,0.192,-1.169,100.08,3.0,,0.0,0.0,132.69
2025-08-15T04:59:51.058Z,12,GR86-022-13,-20.9,0.241,-1.121,100.06,3.0,,0.0,0.0,
2025-08-15T04:59:51.100Z,12,GR86-022-13,-25.5,0.183,-1.104,100.09,3.0,,0.0,0.0,
2025-08-15T04:59:51.143Z,12,GR86-022-13,-33.1,0.236,-1.081,100.08,3.0,,0.0,0.0,
2025-08-15T04:59:51.187Z,12,GR86-022-13,-38.5,0.301,-1.108,100.08,3.0,6411.0,0.0,0.0,
2025-08-15T04:59:51.229Z,12,GR86-022-13,-38.6,0.207,-1.087,100.04,3.0,,0.0,0.0,133.5
2025-08-15T04:59:51.272Z,12,GR86-022-13,-35.2,0.143,-1.027,100.07,3.0,,0.0,0.0,
2025-08-15T04:59:51.315Z,12,GR86-022-13,-31.9,0.209,-1.005,100.04,3.0,,0.0,0.0,
2025-08-15T04:59:51.358Z,12,GR86-022-13,-31.8,0.217,-0.974,100.07,3.0,,0.0,0.0,
2025-08-15T04:59:51.401Z,12,GR86-022-13,-33.1,0.269,-0.933,100.04,3.0,6463.0,0.0,0.0,
2025-08-15T04:59:51.444Z,12,GR86-022-13,-33.4,0.236,-0.936,100.06,3.0,,0.0,0.0,134.63
2025-08-15T04:59:51.488Z,12,GR86-022-13,-33.4,0.148,-0.943,100.03,3.0,,0.0,0.0,
2025-08-15T04:59:51.530Z,12,GR86-022-13,-33.300000000000004,0.154,-0.777,100.04,3.0,,0.0,0.0,
2025-08-15T04:59:51.573Z,12,GR86-022-13,-33.2,0.19,-0.632,100.03,3.0,,0.0,0.0,
2025-08-15T04:59:51.617Z,12,GR86-022-13,-31.8,0.199,-0.705,100.03,3.0,6453.0,0.0,0.0,
2025-08-15T04:59:51.659Z,12,GR86-022-13,-28.9,0.219,-0.549,100.05,3.0,,0.0,0.0,135.78
2025-08-15T04:59:51.702Z,12,GR86-022-13,-25.0,0.301,-0.872,100.03,3.0,,0.0,0.0,
2025-08-15T04:59:51.745Z,12,GR86-022-13,-22.0,0.33,-0.741,100.03,3.0,,0.0,0.0,
2025-08-15T04:59:51.788Z,12,GR86-022-13,-20.9,0.199,-0.514,100.02,3.0,,0.0,0.0,
2025-08-15T04:59:51.831Z,12,GR86-022-13,-20.700000000000003,0.146,-0.45,100.0,3.0,6504.0,0.0,0.0,
2025-08-15T04:59:51.874Z,12,GR86-022-13,-18.9,0.012,-0.8320000000000001,100.02,3.0,,0.0,0.0,136.89
2025-08-15T04:59:51.918Z,12,GR86-022-13,-21.3,0.247,-0.963,100.0,3.0,,0.0,0.0,
2025-08-15T04:59:51.961Z,12,GR86-022-13,-26.200000000000003,0.256,-1.066,100.03,3.0,,0.0,0.0,
2025-08-15T04:59:52.004Z,12,GR86-022-13,-33.800000000000004,0.12,-1.065,99.97,3.0,,0.0,0.0,
2025-08-15T04:59:52.048Z,12,GR86-022-13,-38.0,0.261,-0.8300000000000001,100.01,3.0,6589.0,0.0,0.0,
2025-08-15T04:59:52.091Z,12,GR86-022-13,-36.9,0.166,-0.834,100.02,3.0,,0.0,0.0,139.52
2025-08-15T04:59:52.134Z,12,GR86-022-13,-35.6,0.156,-0.802,100.0,3.0,,0.0,0.0,
2025-08-15T04:59:52.221Z,12,GR86-022-13,-35.0,0.163,-0.911,99.97,3.0,,0.0,0.0,
2025-08-15T04:59:52.264Z,12,GR86-022-13,-35.300000000000004,0.26,-0.988,99.98,3.0,6718.0,0.0,0.0,
2025-08-15T04:59:52.308Z,12,GR86-022-13,-35.7,0.192,-0.999,100.03,3.0,,0.0,0.0,140.87
2025-08-15T04:59:52.350Z,12,GR86-022-13,-35.800000000000004,0.275,-1.18,99.97,3.0,,0.0,0.0,
2025-08-15T04:59:52.393Z,12,GR86-022-13,-35.2,0.296,-1.077,99.97,3.0,,0.0,0.0,
2025-08-15T04:59:52.437Z,12,GR86-022-13,-31.700000000000003,0.262,-1.017,99.98,3.0,,0.0,0.0,
2025-08-15T04:59:52.481Z,12,GR86-022-13,-26.200000000000003,0.196,-0.992,99.97,3.0,6753.0,0.0,0.0,
2025-08-15T04:59:52.524Z,12,GR86-022-13,-22.8,0.199,-0.848,99.99,3.0,,0.0,0.0,141.36
2025-08-15T04:59:52.568Z,12,GR86-022-13,-22.0,0.188,-0.892,100.01,3.0,,0.0,0.0,
2025-08-15T04:59:52.610Z,12,GR86-022-13,-22.1,0.271,-0.8150000000000001,100.02,3.0,,0.0,0.0,
2025-08-15T04:59:52.653Z,12,GR86-022-13,-22.5,0.265,-0.786,99.97,3.0,,0.0,0.0,
2025-08-15T04:59:52.697Z,12,GR86-022-13,-20.8,0.293,-0.8180000000000001,100.01,3.0,6773.0,0.0,0.0,
2025-08-15T04:59:52.741Z,12,GR86-022-13,-17.900000000000002,0.178,-0.775,100.01,3.0,,0.0,0.0,143.15
2025-08-15T04:59:52.784Z,12,GR86-022-13,-12.1,0.234,-0.724,100.0,3.0,,0.0,0.0,
2025-08-15T04:59:52.828Z,12,GR86-022-13,-7.7,0.202,-0.675,99.99,3.0,,0.0,0.0,
2025-08-15T04:59:52.870Z,12,GR86-022-13,-6.800000000000001,0.237,-0.51,100.0,3.0,,0.0,0.0,
2025-08-15T04:59:52.913Z,12,GR86-022-13,-7.6,0.29,-0.453,100.02,3.0,6843.0,0.0,0.0,
2025-08-15T04:59:52.957Z,12,GR86-022-13,-10.8,0.174,-0.484,99.98,3.0,,0.0,0.0,144.08
2025-08-15T04:59:52.999Z,12,GR86-022-13,-12.3,0.247,-0.312,99.98,3.0,,0.0,0.0,
2025-08-15T04:59:53.043Z,12,GR86-022-13,-12.3,0.293,-0.283,99.99,3.0,,0.0,0.0,
2025-08-15T04:59:53.087Z,12,GR86-022-13,-11.8,0.225,-0.192,99.98,3.0,,0.0,0.0,
2025-08-15T04:59:53.129Z,12,GR86-022-13,-11.5,0.061,-0.176,99.99,3.0,6833.0,0.0,0.0,
2025-08-15T04:59:53.172Z,12,GR86-022-13,-10.7,0.076,-0.215,100.0,3.0,,0.0,0.0,145.78
2025-08-15T04:59:53.215Z,12,GR86-022-13,-9.5,0.31,-0.368,100.0,3.0,,0.0,0.0,
2025-08-15T04:59:53.258Z,12,GR86-022-13,-7.7,0.382,-0.487,100.0,3.0,,0.0,0.0,
2025-08-15T04:59:53.301Z,12,GR86-022-13,-6.4,0.239,-0.405,99.99,3.0,,0.0,0.0,
2025-08-15T04:59:53.344Z,12,GR86-022-13,-5.2,0.226,-0.599,99.98,3.0,6924.0,0.0,0.0,
2025-08-15T04:59:53.388Z,12,GR86-022-13,-3.2,0.295,-0.45,100.0,3.0,,0.0,0.0,147.1
2025-08-15T04:59:53.430Z,12,GR86-022-13,-0.4,0.231,-0.319,99.99,3.0,,0.0,0.0,
2025-08-15T04:59:53.473Z,12,GR86-022-13,1.2000000000000002,0.215,-0.153,99.99,3.0,,0.0,0.0,
2025-08-15T04:59:53.517Z,12,GR86-022-13,3.5,0.04,-0.083,100.0,3.0,,0.0,0.0,
2025-08-15T04:59:53.559Z,12,GR86-022-13,5.6000000000000005,0.179,-0.021,99.99,3.0,6991.0,0.0,0.0,
2025-08-15T04:59:53.602Z,12,GR86-022-13,9.6,0.189,-0.003,100.01,3.0,,0.0,0.0,148.4
2025-08-15T04:59:53.645Z,12,GR86-022-13,13.5,0.206,0.076,100.0,3.0,,0.0,0.0,
2025-08-15T04:59:53.688Z,12,GR86-022-13,18.8,0.394,0.119,100.01,3.0,,0.0,0.0,
2025-08-15T04:59:53.731Z,12,GR86-022-13,20.6,0.359,0.163,100.0,3.0,,0.0,0.0,
2025-08-15T04:59:53.774Z,12,GR86-022-13,18.7,0.217,0.336,100.0,3.0,7057.0,0.0,0.0,
2025-08-15T04:59:53.818Z,12,GR86-022-13,11.9,0.225,0.425,99.99,3.0,,0.0,0.0,150.73
2025-08-15T04:59:53.861Z,12,GR86-022-13,10.9,0.246,0.407,100.0,3.0,,0.0,0.0,
2025-08-15T04:59:53.904Z,12,GR86-022-13,10.7,0.191,0.463,100.03,3.0,,0.0,0.0,
2025-08-15T04:59:53.948Z,12,GR86-022-13,10.6,0.169,0.629,99.98,3.0,,0.0,0.0,
2025-08-15T04:59:53.990Z,12,GR86-022-13,10.6,0.211,0.485,100.0,3.0,7282.0,0.0,0.0,
2025-08-15T04:59:54.033Z,12,GR86-022-13,10.4,0.198,0.505,99.98,3.0,,0.0,0.0,151.55
2025-08-15T04:59:54.079Z,12,GR86-022-13,9.4,0.171,0.423,100.0,3.0,,0.0,0.0,
2025-08-15T04:59:54.121Z,12,GR86-022-13,9.3,0.189,0.383,99.98,3.0,,0.0,0.0,
2025-08-15T04:59:54.164Z,12,GR86-022-13,9.4,0.197,0.317,100.02,3.0,,0.0,0.0,
2025-08-15T04:59:54.208Z,12,GR86-022-13,10.3,-0.1,0.274,99.99,4.0,7259.0,0.0,0.0,
2025-08-15T04:59:54.250Z,12,GR86-022-13,12.1,0.637,0.243,99.98,4.0,,0.0,0.0,153.07
2025-08-15T04:59:54.293Z,12,GR86-022-13,15.0,0.336,0.176,99.96,4.0,,0.0,0.0,
2025-08-15T04:59:54.379Z,12,GR86-022-13,14.8,0.114,0.274,100.02,4.0,,0.0,0.0,
2025-08-15T04:59:54.422Z,12,GR86-022-13,13.8,0.249,0.239,99.97,4.0,7261.0,0.0,0.0,
2025-08-15T04:59:54.465Z,12,GR86-022-13,12.5,0.206,0.344,99.97,4.0,,0.0,0.0,154.81
2025-08-15T04:59:54.508Z,12,GR86-022-13,10.3,0.161,0.347,100.0,4.0,,0.0,0.0,
2025-08-15T04:59:54.551Z,12,GR86-022-13,10.0,0.129,0.281,100.0,4.0,,0.0,0.0,
2025-08-15T04:59:54.594Z,12,GR86-022-13,10.0,0.172,0.338,100.01,4.0,,0.0,0.0,
2025-08-15T04:59:54.638Z,12,GR86-022-13,10.0,0.178,0.312,99.97,4.0,6428.0,0.0,0.0,
2025-08-15T04:59:54.680Z,12,GR86-022-13,9.9,0.145,0.312,100.01,4.0,,0.0,0.0,157.76
2025-08-15T04:59:54.723Z,12,GR86-022-13,8.6,0.166,0.311,99.99,4.0,,0.0,0.0,
2025-08-15T04:59:54.767Z,12,GR86-022-13,7.7,0.181,0.274,99.97,4.0,,0.0,0.0,
2025-08-15T04:59:54.809Z,12,GR86-022-13,7.2,0.208,0.242,100.03,4.0,,0.0,0.0,
2025-08-15T04:59:54.852Z,12,GR86-022-13,7.2,0.222,0.231,99.98,4.0,6246.0,0.0,0.0,
2025-08-15T04:59:54.897Z,12,GR86-022-13,7.2,0.157,0.205,100.01,4.0,,0.0,0.0,159.23
2025-08-15T04:59:54.941Z,12,GR86-022-13,7.2,0.186,0.193,100.01,4.0,,0.0,0.0,
2025-08-15T04:59:54.984Z,12,GR86-022-13,7.2,0.225,0.173,100.0,4.0,,0.0,0.0,
2025-08-15T04:59:55.028Z,12,GR86-022-13,7.2,0.207,0.147,100.01,4.0,,0.0,0.0,
2025-08-15T04:59:55.070Z,12,GR86-022-13,7.2,0.209,0.144,99.99,4.0,6299.0,0.0,0.0,
2025-08-15T04:59:55.113Z,12,GR86-022-13,7.2,0.19,0.151,100.02,4.0,,0.0,0.0,160.83
2025-08-15T04:59:55.157Z,12,GR86-022-13,7.2,0.204,0.133,100.0,4.0,,0.0,0.0,
2025-08-15T04:59:55.199Z,12,GR86-022-13,7.2,0.225,0.152,100.0,4.0,,0.0,0.0,
2025-08-15T04:59:55.242Z,12,GR86-022-13,7.2,0.204,0.149,100.0,4.0,,0.0,0.0,
2025-08-15T04:59:55.285Z,12,GR86-022-13,7.2,0.201,0.159,100.02,4.0,6409.0,0.0,0.0,
2025-08-15T04:59:55.328Z,12,GR86-022-13,7.2,0.197,0.149,100.0,4.0,,0.0,0.0,162.48
2025-08-15T04:59:55.371Z,12,GR86-022-13,7.2,0.15,0.169,100.02,4.0,,0.0,0.0,
2025-08-15T04:59:55.414Z,12,GR86-022-13,7.2,0.147,0.148,99.99,4.0,,0.0,0.0,
2025-08-15T04:59:55.458Z,12,GR86-022-13,7.2,0.247,0.145,100.0,4.0,,0.0,0.0,
2025-08-15T04:59:55.501Z,12,GR86-022-13,7.2,0.179,0.149,100.0,4.0,6469.0,0.0,0.0,
2025-08-15T04:59:55.544Z,12,GR86-022-13,7.2,0.183,0.158,100.0,4.0,,0.0,0.0,164.08
2025-08-15T04:59:55.588Z,12,GR86-022-13,7.2,0.131,0.16,100.03,4.0,,0.0,0.0,
2025-08-15T04:59:55.631Z,12,GR86-022-13,7.0,0.164,0.156,100.0,4.0,,0.0,0.0,
2025-08-15T04:59:55.675Z,12,GR86-022-13,6.4,0.143,0.16,100.0,4.0,,0.0,0.0,
2025-08-15T04:59:55.718Z,12,GR86-022-13,5.2,0.211,0.139,100.01,4.0,6535.0,0.0,0.0,
2025-08-15T04:59:55.761Z,12,GR86-022-13,4.800000000000001,0.187,0.147,99.99,4.0,,0.0,0.0,165.71
2025-08-15T04:59:55.804Z,12,GR86-022-13,4.3,0.188,0.119,99.99,4.0,,0.0,0.0,
2025-08-15T04:59:55.848Z,12,GR86-022-13,3.4000000000000004,0.149,0.094,100.0,4.0,,0.0,0.0,
2025-08-15T04:59:55.891Z,12,GR86-022-13,2.3000000000000003,0.139,0.07,99.99,4.0,,0.0,0.0,
2025-08-15T04:59:55.979Z,12,GR86-022-13,0.7000000000000001,0.124,0.048,100.02,4.0,6592.0,0.0,0.0,167.23
2025-08-15T04:59:56.021Z,12,GR86-022-13,-3.0,0.203,-0.041,100.0,4.0,,0.0,0.0,
2025-08-15T04:59:56.064Z,12,GR86-022-13,-4.7,0.181,-0.094,99.98,4.0,,0.0,0.0,
2025-08-15T04:59:56.108Z,12,GR86-022-13,-6.9,0.183,-0.135,99.99,4.0,,0.0,0.0,
2025-08-15T04:59:56.150Z,12,GR86-022-13,-9.1,0.135,-0.192,100.0,4.0,6643.0,0.0,0.0,
2025-08-15T04:59:56.193Z,12,GR86-022-13,-11.3,0.129,-0.25,100.02,4.0,,0.0,0.0,168.97
2025-08-15T04:59:56.237Z,12,GR86-022-13,-14.5,0.201,-0.36,100.03,4.0,,0.0,0.0,
2025-08-15T04:59:56.279Z,12,GR86-022-13,-15.4,0.212,-0.421,100.0,4.0,,0.0,0.0,
2025-08-15T04:59:56.322Z,12,GR86-022-13,-15.3,0.191,-0.466,99.98,4.0,,0.0,0.0,
2025-08-15T04:59:56.365Z,12,GR86-022-13,-13.9,0.181,-0.502,100.0,4.0,6709.0,0.0,0.0,
2025-08-15T04:59:56.408Z,12,GR86-022-13,-13.2,0.184,-0.531,100.02,4.0,,0.0,0.0,170.53
2025-08-15T04:59:56.451Z,12,GR86-022-13,-13.5,0.179,-0.58,100.03,4.0,,0.0,0.0,
2025-08-15T04:59:56.494Z,12,GR86-022-13,-15.0,0.168,-0.599,100.0,4.0,,0.0,0.0,
2025-08-15T04:59:56.538Z,12,GR86-022-13,-17.2,0.147,-0.607,100.01,4.0,,0.0,0.0,
2025-08-15T04:59:56.581Z,12,GR86-022-13,-18.7,0.154,-0.614,100.01,4.0,6781.0,0.0,0.0,
2025-08-15T04:59:56.624Z,12,GR86-022-13,-19.4,0.171,-0.612,100.01,4.0,,0.0,0.0,172.08
2025-08-15T04:59:56.668Z,12,GR86-022-13,-19.1,0.165,-0.625,99.97,4.0,,0.0,0.0,
2025-08-15T04:59:56.710Z,12,GR86-022-13,-16.900000000000002,0.175,-0.615,99.96,4.0,,0.0,0.0,
2025-08-15T04:59:56.753Z,12,GR86-022-13,-13.6,0.173,-0.597,99.99,4.0,,0.0,0.0,
2025-08-15T04:59:56.797Z,12,GR86-022-13,-9.4,0.083,-0.58,100.01,4.0,6830.0,2.075,2.305,
2025-08-15T04:59:56.839Z,12,GR86-022-13,-9.0,0.102,-0.5720000000000001,99.99,4.0,,11.065,11.37,173.52
2025-08-15T04:59:56.882Z,12,GR86-022-13,-9.4,0.029,-0.578,99.99,4.0,,11.55,11.81,
2025-08-15T04:59:56.925Z,12,GR86-022-13,-9.4,-0.032,-0.583,99.97,4.0,,14.145,14.33,
2025-08-15T04:59:56.968Z,12,GR86-022-13,-8.8,-0.1,-0.556,99.97,4.0,,13.015,13.675,
2025-08-15T04:59:57.011Z,12,GR86-022-13,-8.8,-0.021,-0.543,100.0,4.0,6872.0,6.485,7.295,
2025-08-15T04:59:57.054Z,12,GR86-022-13,-9.5,0.081,-0.526,99.96,4.0,,4.47,5.11,174.76
2025-08-15T04:59:57.098Z,12,GR86-022-13,-9.9,0.044,-0.467,100.0,4.0,,5.37,5.8,
2025-08-15T04:59:57.141Z,12,GR86-022-13,-9.9,0.09,-0.44,100.01,4.0,,0.0,0.0,
2025-08-15T04:59:57.184Z,12,GR86-022-13,-9.9,0.094,-0.423,99.97,4.0,,0.0,0.0,
2025-08-15T04:59:57.228Z,12,GR86-022-13,-9.4,0.138,-0.397,99.97,4.0,6931.0,0.0,0.0,
2025-08-15T04:59:57.270Z,12,GR86-022-13,-7.300000000000001,0.111,-0.392,99.99,4.0,,0.0,0.0,175.71
2025-08-15T04:59:57.313Z,12,GR86-022-13,-4.3,0.122,-0.344,99.97,4.0,,0.0,0.0,
2025-08-15T04:59:57.357Z,12,GR86-022-13,-2.8000000000000003,0.177,-0.313,100.0,4.0,,0.0,0.0,
2025-08-15T04:59:57.399Z,12,GR86-022-13,-2.9000000000000004,0.189,-0.316,100.02,4.0,,0.0,0.0,
2025-08-15T04:59:57.442Z,12,GR86-022-13,-2.7,0.171,-0.32,100.02,4.0,6934.0,0.0,0.0,
2025-08-15T04:59:57.485Z,12,GR86-022-13,-1.4,0.191,-0.289,100.0,4.0,,0.0,0.0,177.13
2025-08-15T04:59:57.528Z,12,GR86-022-13,0.1,0.178,-0.253,100.01,4.0,,2.455,2.64,
2025-08-15T04:59:57.571Z,12,GR86-022-13,1.0,0.164,-0.191,100.02,4.0,,5.83,6.03,
2025-08-15T04:59:57.614Z,12,GR86-022-13,1.2000000000000002,0.063,-0.154,98.51,4.0,,13.795,13.95,
2025-08-15T04:59:57.658Z,12,GR86-022-13,-0.4,-0.287,-0.08,19.67,4.0,6966.0,32.565,32.445,
2025-08-15T04:59:57.700Z,12,GR86-022-13,-1.7000000000000002,-0.5630000000000001,-0.057,2.77,4.0,,45.81,45.4,178.39
2025-08-15T04:59:57.743Z,12,GR86-022-13,-2.9000000000000004,-0.852,-0.025,2.92,4.0,,49.55,49.64,
2025-08-15T04:59:57.787Z,12,GR86-022-13,-3.8,-0.894,-0.017,2.89,4.0,,40.775,41.935,
2025-08-15T04:59:57.829Z,12,GR86-022-13,-3.8,-0.758,-0.059,2.86,4.0,,34.52,35.645,
2025-08-15T04:59:57.872Z,12,GR86-022-13,-2.5,-0.799,-0.068,2.84,4.0,7019.0,35.085,35.465,
2025-08-15T04:59:57.915Z,12,GR86-022-13,0.4,-0.793,-0.024,2.81,4.0,,37.355,37.525,179.38
2025-08-15T04:59:57.958Z,12,GR86-022-13,0.5,-0.8240000000000001,-0.054,2.76,4.0,,37.585,38.045,
2025-08-15T04:59:58.001Z,12,GR86-022-13,0.2,-0.874,-0.048,2.73,4.0,,37.98,38.44,
2025-08-15T04:59:58.044Z,12,GR86-022-13,0.2,-0.859,-0.066,2.71,4.0,,38.075,38.47,
2025-08-15T04:59:58.088Z,12,GR86-022-13,-0.4,-0.878,-0.064,2.69,4.0,6584.0,38.745,39.005,
2025-08-15T04:59:58.130Z,12,GR86-022-13,-0.4,-0.868,-0.057,2.66,4.0,,38.865,39.125,175.41
2025-08-15T04:59:58.173Z,12,GR86-022-13,-0.4,-0.839,-0.065,2.63,4.0,,34.425000000000004,35.405,
2025-08-15T04:59:58.217Z,12,GR86-022-13,-0.4,-0.725,-0.058,2.61,4.0,,27.65,28.645,
2025-08-15T04:59:58.259Z,12,GR86-022-13,-1.0,-0.6970000000000001,-0.038,2.59,4.0,,26.81,27.59,
2025-08-15T04:59:58.302Z,12,GR86-022-13,-4.4,-0.685,-0.035,13.9,4.0,6379.0,30.49,30.675,
2025-08-15T04:59:58.345Z,12,GR86-022-13,-10.7,-0.859,-0.066,59.95,4.0,,43.02,42.985,169.69
2025-08-15T04:59:58.388Z,12,GR86-022-13,-16.2,-1.041,-0.154,50.45,3.0,,56.185,55.805,
2025-08-15T04:59:58.431Z,12,GR86-022-13,-15.3,-1.333,-0.226,5.8,3.0,,66.825,66.96000000000001,
2025-08-15T04:59:58.474Z,12,GR86-022-13,-7.800000000000001,-1.152,-0.186,3.67,3.0,,71.05,72.575,
2025-08-15T04:59:58.561Z,12,GR86-022-13,6.300000000000001,-1.055,-0.067,3.13,3.0,,52.645,53.64,165.24
2025-08-15T04:59:58.604Z,12,GR86-022-13,5.1000000000000005,-1.099,-0.162,3.24,3.0,6315.0,59.085,59.65,
2025-08-15T04:59:58.648Z,12,GR86-022-13,0.4,-1.112,-0.285,2.96,3.0,,50.815,51.0,
2025-08-15T04:59:58.691Z,12,GR86-022-13,-3.6,-0.938,-0.168,2.89,3.0,,50.905,51.81,
2025-08-15T04:59:58.734Z,12,GR86-022-13,-6.800000000000001,-0.966,-0.334,2.81,3.0,6576.0,51.81,53.09,
2025-08-15T04:59:58.779Z,12,GR86-022-13,-5.6000000000000005,-0.979,-0.274,2.66,3.0,,51.84,52.83,159.44
2025-08-15T04:59:58.821Z,12,GR86-022-13,-1.2000000000000002,-0.957,-0.319,2.62,3.0,,50.845,52.08,
2025-08-15T04:59:58.864Z,12,GR86-022-13,-0.3,-0.986,-0.302,2.57,3.0,,50.31,51.335,
2025-08-15T04:59:58.908Z,12,GR86-022-13,-3.1,-0.964,-0.237,2.54,3.0,,49.55,50.65,
2025-08-15T04:59:58.950Z,12,GR86-022-13,-7.800000000000001,-1.054,-0.242,2.51,3.0,6813.0,49.045,50.25,
2025-08-15T04:59:58.993Z,12,GR86-022-13,-10.8,-0.975,-0.288,2.5,3.0,,49.105,50.31,151.91
2025-08-15T04:59:59.037Z,12,GR86-022-13,-6.5,-0.941,-0.345,2.49,3.0,,49.58,50.525,
2025-08-15T04:59:59.081Z,12,GR86-022-13,-2.5,-0.969,-0.346,3.28,3.0,,50.65,51.120000000000005,
2025-08-15T04:59:59.124Z,12,GR86-022-13,-2.6,-1.041,-0.329,44.0,3.0,,53.335,53.120000000000005,
2025-08-15T04:59:59.168Z,12,GR86-022-13,-5.1000000000000005,-1.121,-0.31,91.81,3.0,6292.0,57.805,57.53,
2025-08-15T04:59:59.210Z,12,GR86-022-13,-7.2,-1.078,-0.338,76.82000000000001,2.0,,61.515,61.21,144.48
2025-08-15T04:59:59.253Z,12,GR86-022-13,-7.5,-1.173,-0.368,7.66,2.0,,62.66,62.93,
2025-08-15T04:59:59.297Z,12,GR86-022-13,-7.4,-1.153,-0.432,2.85,2.0,,63.465,64.9,
2025-08-15T04:59:59.341Z,12,GR86-022-13,-7.7,-1.134,-0.605,2.71,2.0,,60.765,61.33,
2025-08-15T04:59:59.384Z,12,GR86-022-13,-9.5,-1.057,-0.31,2.66,2.0,6039.0,56.46,57.21,
2025-08-15T04:59:59.428Z,12,GR86-022-13,-11.8,-0.999,-0.603,2.63,2.0,,53.61,54.83,137.98
2025-08-15T04:59:59.470Z,12,GR86-022-13,-14.5,-0.811,-0.865,2.61,2.0,,48.115,48.45,
2025-08-15T04:59:59.513Z,12,GR86-022-13,-17.2,-0.936,-0.5690000000000001,2.6,2.0,,43.17,43.705,
2025-08-15T04:59:59.557Z,12,GR86-022-13,-22.5,-0.68,-0.781,2.61,2.0,,40.56,41.11,
2025-08-15T04:59:59.599Z,12,GR86-022-13,-27.4,-0.748,-0.973,2.59,2.0,6343.0,37.95,38.775,
2025-08-15T04:59:59.643Z,12,GR86-022-13,-30.3,-0.798,-0.965,2.54,2.0,,37.77,38.075,130.97
2025-08-15T04:59:59.687Z,12,GR86-022-13,-30.700000000000003,-0.655,-0.945,2.52,2.0,,35.555,36.335,
2025-08-15T04:59:59.729Z,12,GR86-022-13,-29.6,-0.629,-0.962,2.5,2.0,,32.685,33.68,
2025-08-15T04:59:59.773Z,12,GR86-022-13,-25.4,-0.644,-1.048,2.5,2.0,,30.64,31.48,
2025-08-15T04:59:59.817Z,12,GR86-022-13,-16.2,-0.619,-0.994,2.5,2.0,6279.0,23.895,24.555,
2025-08-15T04:59:59.859Z,12,GR86-022-13,-17.3,-0.505,-0.976,2.5,2.0,,18.555,18.985,124.96
2025-08-15T04:59:59.902Z,12,GR86-022-13,-25.700000000000003,-0.453,-0.999,2.5,2.0,,15.87,16.465,
2025-08-15T04:59:59.945Z,12,GR86-022-13,-36.9,-0.483,-1.125,2.5,2.0,,13.915,14.45,
2025-08-15T04:59:59.988Z,12,GR86-022-13,-46.3,-0.456,-1.156,2.48,2.0,,13.08,13.245,
2025-08-15T05:00:00.031Z,12,GR86-022-13,-50.7,-0.401,-1.073,2.48,2.0,6351.0,12.42,12.895,
2025-08-15T05:00:00.074Z,12,GR86-022-13,-51.0,-0.344,-1.181,2.48,2.0,,12.24,12.805,119.39
2025-08-15T05:00:00.118Z,12,GR86-022-13,-48.400000000000006,-0.429,-1.18,2.49,2.0,,9.995,10.65,
2025-08-15T05:00:00.161Z,12,GR86-022-13,-45.2,-0.391,-1.144,2.48,2.0,,6.21,6.715,
2025-08-15T05:00:00.204Z,12,GR86-022-13,-42.6,-0.243,-1.179,2.48,2.0,,0.0,2.045,
2025-08-15T05:00:00.248Z,12,GR86-022-13,-41.2,-0.194,-1.229,2.5,2.0,6154.0,0.0,0.0,
2025-08-15T05:00:00.290Z,12,GR86-022-13,-39.5,-0.14,-1.197,2.5,2.0,,0.0,0.0,111.56
2025-08-15T05:00:00.333Z,12,GR86-022-13,-38.900000000000006,-0.152,-1.216,2.48,2.0,,0.0,0.0,
2025-08-15T05:00:00.378Z,12,GR86-022-13,-39.2,-0.165,-1.185,2.49,2.0,,0.0,0.0,
2025-08-15T05:00:00.464Z,12,GR86-022-13,-41.6,-0.134,-1.204,2.49,2.0,6079.0,0.0,0.0,
2025-08-15T05:00:00.508Z,12,GR86-022-13,-53.8,-0.158,-1.179,2.5,2.0,,0.0,0.0,109.12
2025-08-15T05:00:00.550Z,12,GR86-022-13,-62.1,-0.169,-1.197,2.5,2.0,,0.0,0.0,
2025-08-15T05:00:00.593Z,12,GR86-022-13,-68.10000000000001,-0.181,-1.224,2.49,2.0,,0.0,0.0,
2025-08-15T05:00:00.637Z,12,GR86-022-13,-67.8,-0.175,-1.258,2.49,2.0,,0.0,0.0,
2025-08-15T05:00:00.680Z,12,GR86-022-13,-65.2,-0.184,-1.274,2.48,2.0,5939.0,0.0,0.0,
2025-08-15T05:00:00.723Z,12,GR86-022-13,-64.10000000000001,-0.206,-1.281,6.74,2.0,,0.0,0.0,107.7
2025-08-15T05:00:00.767Z,12,GR86-022-13,-64.10000000000001,-0.159,-1.291,20.47,2.0,,0.0,0.0,
2025-08-15T05:00:00.809Z,12,GR86-022-13,-64.10000000000001,-0.188,-1.316,25.22,2.0,,0.0,0.0,
2025-08-15T05:00:00.852Z,12,GR86-022-13,-64.0,-0.1,-1.29,28.15,2.0,,0.0,0.0,
2025-08-15T05:00:00.895Z,12,GR86-022-13,-63.8,-0.091,-1.328,31.82,2.0,5870.0,0.0,0.0,
2025-08-15T05:00:00.938Z,12,GR86-022-13,-62.8,-0.102,-1.263,35.58,2.0,,0.0,0.0,106.01
2025-08-15T05:00:00.981Z,12,GR86-022-13,-62.5,0.107,-1.262,36.19,2.0,,0.0,0.0,
2025-08-15T05:00:01.024Z,12,GR86-022-13,-62.400000000000006,0.249,-1.216,37.9,2.0,,0.0,0.0,
2025-08-15T05:00:01.068Z,12,GR86-022-13,-62.400000000000006,0.272,-1.225,40.44,2.0,,0.0,0.0,
2025-08-15T05:00:01.110Z,12,GR86-022-13,-62.400000000000006,0.226,-1.229,49.31,2.0,5871.0,0.0,0.0,
2025-08-15T05:00:01.153Z,12,GR86-022-13,-62.400000000000006,0.203,-1.194,57.870000000000005,2.0,,0.0,0.0,105.14
2025-08-15T05:00:01.199Z,12,GR86-022-13,-61.0,0.201,-1.221,98.18,2.0,,0.0,0.0,
2025-08-15T05:00:01.241Z,12,GR86-022-13,-57.0,0.224,-1.203,100.1,2.0,,0.0,0.0,
2025-08-15T05:00:01.328Z,12,GR86-022-13,-40.8,0.302,-1.095,100.09,2.0,6118.0,0.0,0.0,
2025-08-15T05:00:01.370Z,12,GR86-022-13,-34.9,0.251,-1.096,100.09,2.0,,0.0,0.0,104.0
2025-08-15T05:00:01.413Z,12,GR86-022-13,-33.9,0.306,-1.13,100.1,2.0,,0.0,0.0,
2025-08-15T05:00:01.457Z,12,GR86-022-13,-34.800000000000004,0.103,-0.959,100.09,2.0,,0.0,0.0,
2025-08-15T05:00:01.499Z,12,GR86-022-13,-34.800000000000004,0.012,-0.998,100.1,2.0,,0.0,0.0,
2025-08-15T05:00:01.542Z,12,GR86-022-13,-34.9,0.146,-0.992,100.1,2.0,6198.0,0.0,0.0,
2025-08-15T05:00:01.585Z,12,GR86-022-13,-36.0,0.259,-1.165,100.1,2.0,,0.0,0.0,103.97
2025-08-15T05:00:01.628Z,12,GR86-022-13,-36.3,0.417,-1.254,100.09,2.0,,0.0,0.0,
2025-08-15T05:00:01.671Z,12,GR86-022-13,-35.300000000000004,0.504,-1.08,100.1,2.0,,0.0,0.0,
2025-08-15T05:00:01.714Z,12,GR86-022-13,-31.8,0.453,-1.137,100.1,2.0,,0.0,0.0,
2025-08-15T05:00:01.758Z,12,GR86-022-13,-25.200000000000003,0.292,-0.964,100.1,2.0,6224.0,0.0,0.0,
2025-08-15T05:00:01.801Z,12,GR86-022-13,-24.200000000000003,0.459,-1.153,100.09,2.0,,0.0,0.0,105.23
2025-08-15T05:00:01.844Z,12,GR86-022-13,-30.0,0.651,-1.14,100.09,2.0,,0.0,0.0,
2025-08-15T05:00:01.888Z,12,GR86-022-13,-39.900000000000006,0.392,-1.07,100.13,2.0,,0.0,0.0,
2025-08-15T05:00:01.974Z,12,GR86-022-13,-46.3,0.167,-1.327,100.1,2.0,6423.0,0.0,0.0,
2025-08-15T05:00:02.018Z,12,GR86-022-13,-44.0,0.252,-1.201,100.09,2.0,,0.0,0.0,106.47
2025-08-15T05:00:02.061Z,12,GR86-022-13,-42.900000000000006,0.246,-1.079,100.1,2.0,,0.0,0.0,
2025-08-15T05:00:02.104Z,12,GR86-022-13,-42.6,0.298,-1.106,100.08,2.0,,0.0,0.0,
2025-08-15T05:00:02.148Z,12,GR86-022-13,-43.400000000000006,0.245,-1.06,100.11,2.0,,0.0,0.0,
2025-08-15T05:00:02.191Z,12,GR86-022-13,-45.5,0.303,-1.111,100.1,2.0,6602.0,0.0,0.0,
2025-08-15T05:00:02.234Z,12,GR86-022-13,-47.6,0.3,-1.06,100.08,2.0,,0.0,0.0,107.78
2025-08-15T05:00:02.279Z,12,GR86-022-13,-47.0,0.272,-1.084,100.06,2.0,,0.0,0.0,
2025-08-15T05:00:02.321Z,12,GR86-022-13,-43.0,0.243,-1.068,100.06,2.0,,0.0,0.0,
2025-08-15T05:00:02.364Z,12,GR86-022-13,-39.900000000000006,0.269,-1.102,100.1,2.0,,0.0,0.0,
2025-08-15T05:00:02.408Z,12,GR86-022-13,-41.1,0.278,-1.122,100.1,2.0,6477.0,0.0,0.0,
2025-08-15T05:00:02.450Z,12,GR86-022-13,-44.7,0.264,-1.199,100.08,2.0,,0.0,0.0,109.26
2025-08-15T05:00:02.493Z,12,GR86-022-13,-47.1,0.271,-1.203,100.06,2.0,,0.0,0.0,
2025-08-15T05:00:02.537Z,12,GR86-022-13,-46.900000000000006,0.262,-1.222,100.08,2.0,,0.0,0.0,
2025-08-15T05:00:02.579Z,12,GR86-022-13,-46.5,0.289,-1.178,100.06,2.0,,0.0,0.0,
2025-08-15T05:00:02.708Z,12,GR86-022-13,-43.900000000000006,0.247,-1.033,100.05,2.0,6541.0,0.0,0.0,110.55
2025-08-15T05:00:02.751Z,12,GR86-022-13,-40.900000000000006,0.273,-1.031,100.07,2.0,,0.0,0.0,
2025-08-15T05:00:02.794Z,12,GR86-022-13,-39.3,0.281,-1.011,100.06,2.0,,0.0,0.0,
2025-08-15T05:00:02.838Z,12,GR86-022-13,-41.3,0.288,-1.011,100.07,2.0,6615.0,0.0,0.0,
2025-08-15T05:00:02.881Z,12,GR86-022-13,-44.1,0.269,-1.001,100.1,2.0,,0.0,0.0,113.81
2025-08-15T05:00:02.924Z,12,GR86-022-13,-46.8,0.268,-1.048,100.07,2.0,,0.0,0.0,
2025-08-15T05:00:02.968Z,12,GR86-022-13,-47.900000000000006,0.261,-1.028,100.05,2.0,,0.0,0.0,
2025-08-15T05:00:03.010Z,12,GR86-022-13,-47.8,0.248,-1.047,100.04,2.0,,0.0,0.0,
2025-08-15T05:00:03.053Z,12,GR86-022-13,-46.6,0.278,-1.053,100.07,2.0,6655.0,0.0,0.0,
2025-08-15T05:00:03.097Z,12,GR86-022-13,-44.3,0.274,-1.013,100.03,2.0,,0.0,0.0,114.16
2025-08-15T05:00:03.139Z,12,GR86-022-13,-41.3,0.261,-1.075,100.03,2.0,,0.0,0.0,
2025-08-15T05:00:03.182Z,12,GR86-022-13,-38.1,0.257,-1.077,100.04,2.0,,0.0,0.0,
2025-08-15T05:00:03.225Z,12,GR86-022-13,-35.9,0.277,-1.072,100.03,2.0,,0.0,0.0,
2025-08-15T05:00:03.268Z,12,GR86-022-13,-34.9,0.284,-1.091,100.03,2.0,6752.0,0.0,0.0,
2025-08-15T05:00:03.311Z,12,GR86-022-13,-34.9,0.265,-1.111,100.03,2.0,,0.0,0.0,115.75
2025-08-15T05:00:03.354Z,12,GR86-022-13,-34.800000000000004,0.278,-1.106,100.03,2.0,,0.0,0.0,
2025-08-15T05:00:03.398Z,12,GR86-022-13,-34.800000000000004,0.286,-1.139,100.06,2.0,,0.0,0.0,
2025-08-15T05:00:03.441Z,12,GR86-022-13,-34.800000000000004,0.272,-1.163,100.03,2.0,,0.0,0.0,
2025-08-15T05:00:03.484Z,12,GR86-022-13,-34.4,0.266,-1.105,100.02,2.0,6990.0,0.0,0.0,
2025-08-15T05:00:03.528Z,12,GR86-022-13,-32.0,0.295,-1.082,100.04,2.0,,0.0,0.0,118.09
2025-08-15T05:00:03.570Z,12,GR86-022-13,-27.5,0.277,-1.122,100.03,2.0,,0.0,0.0,
2025-08-15T05:00:03.613Z,12,GR86-022-13,-22.5,0.271,-1.126,100.01,2.0,,0.0,0.0,
2025-08-15T05:00:03.657Z,12,GR86-022-13,-19.9,0.262,-1.003,100.03,2.0,,0.0,0.0,
2025-08-15T05:00:03.699Z,12,GR86-022-13,-18.8,0.212,-0.973,100.01,2.0,7074.0,0.0,0.0,
2025-08-15T05:00:03.742Z,12,GR86-022-13,-18.2,0.13,-0.721,100.03,2.0,,0.0,0.0,119.84
2025-08-15T05:00:03.785Z,12,GR86-022-13,-20.6,0.138,-0.645,100.03,2.0,,0.0,0.0,
2025-08-15T05:00:03.828Z,12,GR86-022-13,-24.6,0.212,-0.554,100.06,2.0,,0.0,0.0,
2025-08-15T05:00:03.871Z,12,GR86-022-13,-29.5,0.097,-0.494,100.03,2.0,,0.0,0.0,
2025-08-15T05:00:03.914Z,12,GR86-022-13,-32.5,0.169,-0.594,100.01,2.0,7135.0,0.0,0.0,
2025-08-15T05:00:03.958Z,12,GR86-022-13,-32.2,0.287,-0.803,100.03,2.0,,0.0,0.0,120.31
2025-08-15T05:00:04.000Z,12,GR86-022-13,-29.4,0.334,-0.739,100.0,2.0,,0.0,0.0,
2025-08-15T05:00:04.043Z,12,GR86-022-13,-25.700000000000003,0.282,-0.888,100.0,2.0,,0.0,0.0,
2025-08-15T05:00:04.087Z,12,GR86-022-13,-21.4,0.266,-0.841,100.03,2.0,,0.0,0.0,
2025-08-15T05:00:04.129Z,12,GR86-022-13,-18.1,0.227,-0.777,100.04,2.0,7161.0,0.0,0.0,
2025-08-15T05:00:04.172Z,12,GR86-022-13,-17.2,0.197,-0.766,100.03,2.0,,0.0,0.0,121.68
2025-08-15T05:00:04.215Z,12,GR86-022-13,-17.2,-0.095,-0.704,100.02,3.0,,0.0,0.0,
2025-08-15T05:00:04.258Z,12,GR86-022-13,-16.3,0.625,-0.541,100.0,3.0,,0.0,0.0,
2025-08-15T05:00:04.301Z,12,GR86-022-13,-15.8,0.409,-0.704,100.0,3.0,,0.0,0.0,
2025-08-15T05:00:04.344Z,12,GR86-022-13,-16.6,0.243,-0.394,100.03,3.0,7231.0,0.0,0.0,
2025-08-15T05:00:04.388Z,12,GR86-022-13,-15.8,0.151,-0.5660000000000001,100.03,3.0,,0.0,0.0,123.41
2025-08-15T05:00:04.430Z,12,GR86-022-13,-13.0,0.209,-0.5740000000000001,100.02,3.0,,0.0,0.0,
2025-08-15T05:00:04.473Z,12,GR86-022-13,-10.2,0.333,-0.505,100.01,3.0,,0.0,0.0,
2025-08-15T05:00:04.517Z,12,GR86-022-13,-10.3,0.308,-0.376,100.02,3.0,,0.0,0.0,
2025-08-15T05:00:04.559Z,12,GR86-022-13,-10.9,0.21,-0.397,100.03,3.0,6313.0,0.0,0.0,
2025-08-15T05:00:04.602Z,12,GR86-022-13,-10.9,0.133,-0.162,100.02,3.0,,0.0,0.0,125.24
2025-08-15T05:00:04.648Z,12,GR86-022-13,-9.2,0.125,-0.207,100.0,3.0,,0.0,0.0,
2025-08-15T05:00:04.691Z,12,GR86-022-13,-8.4,0.375,-0.3,100.0,3.0,,0.0,0.0,
2025-08-15T05:00:04.734Z,12,GR86-022-13,-8.200000000000001,0.286,-0.236,100.0,3.0,,0.0,0.0,
2025-08-15T05:00:04.779Z,12,GR86-022-13,-6.2,0.106,-0.168,100.0,3.0,6056.0,0.0,0.0,
2025-08-15T05:00:04.822Z,12,GR86-022-13,-3.8,0.142,-0.111,100.02,3.0,,0.0,0.0,126.86
2025-08-15T05:00:04.865Z,12,GR86-022-13,-0.7000000000000001,0.295,-0.198,100.02,3.0,,0.0,0.0,
2025-08-15T05:00:04.909Z,12,GR86-022-13,1.6,0.293,-0.141,100.0,3.0,,0.0,0.0,
2025-08-15T05:00:04.951Z,12,GR86-022-13,2.3000000000000003,0.226,-0.133,100.01,3.0,,0.0,0.0,
2025-08-15T05:00:04.994Z,12,GR86-022-13,3.2,0.168,0.046,100.03,3.0,6152.0,0.0,0.0,
2025-08-15T05:00:05.038Z,12,GR86-022-13,4.800000000000001,0.251,0.138,99.99,3.0,,0.0,0.0,128.38
2025-08-15T05:00:05.081Z,12,GR86-022-13,6.4,0.302,0.107,100.0,3.0,,0.0,0.0,
2025-08-15T05:00:05.124Z,12,GR86-022-13,7.4,0.311,0.127,100.02,3.0,,0.0,0.0,
2025-08-15T05:00:05.168Z,12,GR86-022-13,7.6,0.234,0.181,100.03,3.0,,0.0,0.0,
2025-08-15T05:00:05.210Z,12,GR86-022-13,7.6,0.234,0.189,99.98,3.0,6168.0,0.0,0.0,
2025-08-15T05:00:05.253Z,12,GR86-022-13,7.300000000000001,0.265,0.187,100.01,3.0,,0.0,0.0,130.11
2025-08-15T05:00:05.297Z,12,GR86-022-13,7.300000000000001,0.294,0.161,100.01,3.0,,0.0,0.0,
2025-08-15T05:00:05.341Z,12,GR86-022-13,7.300000000000001,0.221,0.164,100.0,3.0,,0.0,0.0,
2025-08-15T05:00:05.384Z,12,GR86-022-13,6.5,0.199,0.156,100.0,3.0,,0.0,0.0,
2025-08-15T05:00:05.428Z,12,GR86-022-13,5.4,0.218,0.196,100.0,3.0,6271.0,0.0,0.0,
2025-08-15T05:00:05.470Z,12,GR86-022-13,5.0,0.281,0.141,100.01,3.0,,0.0,0.0,131.29
2025-08-15T05:00:05.513Z,12,GR86-022-13,5.0,0.226,0.1,99.98,3.0,,0.0,0.0,
2025-08-15T05:00:05.557Z,12,GR86-022-13,4.800000000000001,0.239,0.097,100.03,3.0,,0.0,0.0,
2025-08-15T05:00:05.599Z,12,GR86-022-13,4.800000000000001,0.208,0.085,100.0,3.0,,0.0,0.0,
2025-08-15T05:00:05.642Z,12,GR86-022-13,4.7,0.224,0.121,100.03,3.0,6263.0,0.0,0.0,
2025-08-15T05:00:05.685Z,12,GR86-022-13,4.5,0.271,0.107,99.97,3.0,,0.0,0.0,134.64
2025-08-15T05:00:05.728Z,12,GR86-022-13,4.4,0.243,0.067,100.02,3.0,,0.0,0.0,
2025-08-15T05:00:05.771Z,12,GR86-022-13,3.9,0.199,0.074,100.03,3.0,,0.0,0.0,
2025-08-15T05:00:05.814Z,12,GR86-022-13,3.7,0.214,0.1,100.0,3.0,,0.0,0.0,
2025-08-15T05:00:05.858Z,12,GR86-022-13,3.0,0.192,0.068,100.02,3.0,6333.0,0.0,0.0,
2025-08-15T05:00:05.901Z,12,GR86-022-13,2.2,0.229,0.068,100.0,3.0,,0.0,0.0,136.19
2025-08-15T05:00:05.944Z,12,GR86-022-13,1.5,0.269,0.033,99.98,3.0,,0.0,0.0,
2025-08-15T05:00:05.988Z,12,GR86-022-13,1.1,0.24,-0.003,100.02,3.0,,0.0,0.0,
2025-08-15T05:00:06.031Z,12,GR86-022-13,1.1,0.216,0.002,100.01,3.0,,0.0,0.0,
2025-08-15T05:00:06.073Z,12,GR86-022-13,1.1,0.205,0.046,99.97,3.0,6382.0,0.0,0.0,
2025-08-15T05:00:06.117Z,12,GR86-022-13,1.1,0.175,-0.017,100.0,3.0,,0.0,0.0,137.67000000000002
2025-08-15T05:00:06.159Z,12,GR86-022-13,1.1,0.247,-0.006,100.0,3.0,,0.0,0.0,
2025-08-15T05:00:06.202Z,12,GR86-022-13,0.9,0.277,-0.046,100.02,3.0,,0.0,0.0,
2025-08-15T05:00:06.245Z,12,GR86-022-13,0.4,0.231,-0.063,100.02,3.0,,0.0,0.0,
2025-08-15T05:00:06.288Z,12,GR86-022-13,0.0,0.19,-0.048,99.99,3.0,6509.0,0.0,0.0,
2025-08-15T05:00:06.331Z,12,GR86-022-13,0.0,0.22,-0.016,100.0,3.0,,0.0,0.0,139.17000000000002
2025-08-15T05:00:06.374Z,12,GR86-022-13,0.0,0.271,-0.044,99.99,3.0,,0.0,0.0,
2025-08-15T05:00:06.418Z,12,GR86-022-13,-0.8,0.24,-0.037,100.04,3.0,,0.0,0.0,
2025-08-15T05:00:06.461Z,12,GR86-022-13,-1.8,0.269,-0.073,99.99,3.0,,0.0,0.0,
2025-08-15T05:00:06.504Z,12,GR86-022-13,-2.8000000000000003,0.247,-0.087,100.0,3.0,6588.0,0.0,0.0,
2025-08-15T05:00:06.548Z,12,GR86-022-13,-2.9000000000000004,0.208,-0.097,100.0,3.0,,0.0,0.0,140.6
2025-08-15T05:00:06.590Z,12,GR86-022-13,-2.9000000000000004,0.182,-0.099,100.01,3.0,,0.0,0.0,
2025-08-15T05:00:06.679Z,12,GR86-022-13,-2.9000000000000004,0.272,-0.097,99.97,3.0,,0.0,0.0,
2025-08-15T05:00:06.721Z,12,GR86-022-13,-2.9000000000000004,0.247,-0.137,99.99,3.0,6656.0,0.0,0.0,
2025-08-15T05:00:06.764Z,12,GR86-022-13,-2.8000000000000003,0.278,-0.179,100.03,3.0,,0.0,0.0,141.98
2025-08-15T05:00:06.808Z,12,GR86-022-13,-2.5,0.229,-0.2,99.99,3.0,,0.0,0.0,
2025-08-15T05:00:06.850Z,12,GR86-022-13,-2.0,0.201,-0.146,99.98,3.0,,0.0,0.0,
2025-08-15T05:00:06.893Z,12,GR86-022-13,-1.2000000000000002,0.2,-0.133,100.0,3.0,,0.0,0.0,
2025-08-15T05:00:06.937Z,12,GR86-022-13,0.1,0.179,-0.12,99.99,3.0,6738.0,0.0,0.0,
2025-08-15T05:00:06.979Z,12,GR86-022-13,0.5,0.217,-0.094,99.99,3.0,,0.0,0.0,143.46
2025-08-15T05:00:07.022Z,12,GR86-022-13,0.5,0.243,-0.084,99.99,3.0,,0.0,0.0,
2025-08-15T05:00:07.065Z,12,GR86-022-13,0.5,0.265,-0.081,100.02,3.0,,0.0,0.0,
2025-08-15T05:00:07.108Z,12,GR86-022-13,0.5,0.227,-0.085,100.02,3.0,,0.0,0.0,
2025-08-15T05:00:07.151Z,12,GR86-022-13,0.5,0.217,-0.061,100.01,3.0,6788.0,0.0,0.0,
2025-08-15T05:00:07.194Z,12,GR86-022-13,0.5,0.196,-0.008,100.02,3.0,,0.0,0.0,144.94
2025-08-15T05:00:07.238Z,12,GR86-022-13,0.5,0.201,-0.052,100.0,3.0,,0.0,0.0,
2025-08-15T05:00:07.280Z,12,GR86-022-13,0.5,0.194,-0.019,99.98,3.0,,0.0,0.0,
2025-08-15T05:00:07.323Z,12,GR86-022-13,0.5,0.242,-0.017,100.04,3.0,,0.0,0.0,
2025-08-15T05:00:07.367Z,12,GR86-022-13,0.5,0.254,-0.044,100.0,3.0,6852.0,0.0,0.0,
2025-08-15T05:00:07.409Z,12,GR86-022-13,0.5,0.247,-0.047,100.02,3.0,,0.0,0.0,146.34
2025-08-15T05:00:07.452Z,12,GR86-022-13,0.5,0.217,-0.061,100.04,3.0,,0.0,0.0,
2025-08-15T05:00:07.499Z,12,GR86-022-13,0.5,0.259,-0.05,99.97,3.0,,0.0,0.0,
2025-08-15T05:00:07.541Z,12,GR86-022-13,0.5,0.232,-0.067,99.98,3.0,,0.0,0.0,
2025-08-15T05:00:07.584Z,12,GR86-022-13,0.5,0.193,-0.051,100.0,3.0,6924.0,0.0,0.0,
2025-08-15T05:00:07.628Z,12,GR86-022-13,0.9,0.192,-0.042,99.97,3.0,,0.0,0.0,147.71
2025-08-15T05:00:07.670Z,12,GR86-022-13,1.5,0.221,-0.042,100.0,3.0,,0.0,0.0,
2025-08-15T05:00:07.713Z,12,GR86-022-13,1.6,0.246,-0.052,99.99,3.0,,0.0,0.0,
2025-08-15T05:00:07.757Z,12,GR86-022-13,1.6,0.201,-0.031,99.98,3.0,,0.0,0.0,
2025-08-15T05:00:07.799Z,12,GR86-022-13,1.4,0.235,-0.043,100.0,3.0,6984.0,0.0,0.0,
2025-08-15T05:00:07.842Z,12,GR86-022-13,1.1,0.247,-0.054,99.97,3.0,,0.0,0.0,149.05
2025-08-15T05:00:07.885Z,12,GR86-022-13,1.1,0.228,-0.051,99.98,3.0,,0.0,0.0,
2025-08-15T05:00:07.928Z,12,GR86-022-13,1.1,0.209,-0.034,99.99,3.0,,0.0,0.0,
2025-08-15T05:00:07.971Z,12,GR86-022-13,1.0,0.2,-0.022,99.97,3.0,,0.0,0.0,
2025-08-15T05:00:08.014Z,12,GR86-022-13,1.0,0.197,-0.008,100.03,3.0,7041.0,0.0,0.0,
2025-08-15T05:00:08.058Z,12,GR86-022-13,0.2,0.204,-0.041,99.97,3.0,,0.0,0.0,150.43
2025-08-15T05:00:08.101Z,12,GR86-022-13,0.1,0.178,-0.03,100.02,3.0,,0.0,0.0,
2025-08-15T05:00:08.144Z,12,GR86-022-13,-0.1,0.2,-0.026,99.99,3.0,,0.0,0.0,
2025-08-15T05:00:08.188Z,12,GR86-022-13,-0.1,0.225,-0.054,99.98,3.0,,0.0,0.0,
2025-08-15T05:00:08.231Z,12,GR86-022-13,-0.1,0.238,-0.067,99.98,3.0,7106.0,0.0,0.0,
2025-08-15T05:00:08.274Z,12,GR86-022-13,-0.1,0.227,-0.079,99.99,3.0,,0.0,0.0,151.74
2025-08-15T05:00:08.318Z,12,GR86-022-13,-0.1,0.226,-0.077,100.0,3.0,,0.0,0.0,
2025-08-15T05:00:08.361Z,12,GR86-022-13,0.0,0.222,-0.094,99.98,3.0,,0.0,0.0,
2025-08-15T05:00:08.404Z,12,GR86-022-13,-0.1,0.222,-0.095,100.01,3.0,,0.0,0.0,
2025-08-15T05:00:08.448Z,12,GR86-022-13,0.0,0.008,-0.091,99.98,4.0,7161.0,0.0,0.0,
2025-08-15T05:00:08.491Z,12,GR86-022-13,-0.1,0.195,-0.028,99.97,4.0,,0.0,0.0,154.24
2025-08-15T05:00:08.534Z,12,GR86-022-13,0.0,0.448,-0.091,99.98,4.0,,0.0,0.0,
2025-08-15T05:00:08.579Z,12,GR86-022-13,-0.4,0.12,-0.091,99.98,4.0,,0.0,0.0,
2025-08-15T05:00:08.621Z,12,GR86-022-13,-0.5,0.035,-0.024,100.02,4.0,,0.0,0.0,
2025-08-15T05:00:08.664Z,12,GR86-022-13,-0.5,0.18,-0.109,99.99,4.0,7225.0,0.0,0.0,
2025-08-15T05:00:08.708Z,12,GR86-022-13,-0.5,0.258,-0.08,99.97,4.0,,0.0,0.0,155.49
2025-08-15T05:00:08.750Z,12,GR86-022-13,-0.5,0.21,-0.045,99.99,4.0,,0.0,0.0,
2025-08-15T05:00:08.793Z,12,GR86-022-13,-0.5,0.154,-0.138,100.0,4.0,,0.0,0.0,
2025-08-15T05:00:08.837Z,12,GR86-022-13,-0.5,0.193,-0.04,100.0,4.0,,0.0,0.0,
2025-08-15T05:00:08.879Z,12,GR86-022-13,-0.5,0.203,-0.075,100.01,4.0,6253.0,0.0,0.0,
2025-08-15T05:00:08.922Z,12,GR86-022-13,-0.5,0.197,-0.105,99.99,4.0,,0.0,0.0,156.70000000000002
2025-08-15T05:00:08.965Z,12,GR86-022-13,-0.5,0.181,-0.094,99.98,4.0,,0.0,0.0,
2025-08-15T05:00:09.008Z,12,GR86-022-13,-0.5,0.202,-0.097,99.99,4.0,,0.0,0.0,
2025-08-15T05:00:09.051Z,12,GR86-022-13,-0.3,0.152,-0.105,100.0,4.0,,0.0,0.0,
2025-08-15T05:00:09.094Z,12,GR86-022-13,0.1,0.165,-0.065,99.97,4.0,6217.0,0.0,0.0,
2025-08-15T05:00:09.138Z,12,GR86-022-13,0.1,0.171,-0.095,100.02,4.0,,0.0,0.0,157.79
2025-08-15T05:00:09.181Z,12,GR86-022-13,0.1,0.168,-0.084,100.0,4.0,,0.0,0.0,
2025-08-15T05:00:09.223Z,12,GR86-022-13,0.1,0.149,-0.057,99.98,4.0,,0.0,0.0,
2025-08-15T05:00:09.267Z,12,GR86-022-13,0.1,0.162,-0.07,100.01,4.0,,0.0,0.0,
2025-08-15T05:00:09.309Z,12,GR86-022-13,0.1,0.171,-0.055,100.0,4.0,6249.0,0.0,0.0,
2025-08-15T05:00:09.353Z,12,GR86-022-13,-0.1,0.176,-0.077,100.0,4.0,,0.0,0.0,158.89
2025-08-15T05:00:09.395Z,12,GR86-022-13,-0.5,0.18,-0.091,99.97,4.0,,0.0,0.0,
2025-08-15T05:00:09.438Z,12,GR86-022-13,-1.5,0.147,-0.092,100.01,4.0,,0.0,0.0,
2025-08-15T05:00:09.481Z,12,GR86-022-13,-1.5,0.173,-0.087,99.97,4.0,,0.0,0.0,
2025-08-15T05:00:09.524Z,12,GR86-022-13,-1.5,0.174,-0.112,100.02,4.0,6292.0,0.0,0.0,
2025-08-15T05:00:09.568Z,12,GR86-022-13,-1.2000000000000002,0.186,-0.128,100.0,4.0,,0.0,0.0,159.89
2025-08-15T05:00:09.611Z,12,GR86-022-13,-0.4,0.193,-0.146,99.97,4.0,,0.0,0.0,
2025-08-15T05:00:09.653Z,12,GR86-022-13,0.3,0.177,-0.152,100.0,4.0,,0.0,0.0,
2025-08-15T05:00:09.697Z,12,GR86-022-13,0.4,0.179,-0.095,100.01,4.0,,0.0,0.0,
2025-08-15T05:00:09.739Z,12,GR86-022-13,0.4,0.191,-0.106,99.97,4.0,6338.0,0.0,0.0,
2025-08-15T05:00:09.782Z,12,GR86-022-13,0.5,0.205,-0.111,100.0,4.0,,0.0,0.0,161.08
2025-08-15T05:00:09.825Z,12,GR86-022-13,0.5,0.171,-0.101,100.01,4.0,,0.0,0.0,
2025-08-15T05:00:09.868Z,12,GR86-022-13,0.5,0.18,-0.101,100.02,4.0,,0.0,0.0,
2025-08-15T05:00:09.911Z,12,GR86-022-13,0.5,0.178,-0.08,99.98,4.0,,0.0,0.0,
2025-08-15T05:00:09.954Z,12,GR86-022-13,0.5,0.166,-0.062,100.0,4.0,6371.0,0.0,0.0,
2025-08-15T05:00:09.998Z,12,GR86-022-13,0.6000000000000001,0.186,-0.085,99.99,4.0,,0.0,0.0,162.12
2025-08-15T05:00:10.041Z,12,GR86-022-13,0.6000000000000001,0.179,-0.067,100.01,4.0,,0.0,0.0,
2025-08-15T05:00:10.084Z,12,GR86-022-13,0.5,0.166,-0.059,99.97,4.0,,0.0,0.0,
2025-08-15T05:00:10.128Z,12,GR86-022-13,0.5,0.179,-0.049,100.03,4.0,,0.0,0.0,
2025-08-15T05:00:10.170Z,12,GR86-022-13,0.5,0.164,-0.059,100.0,4.0,6409.0,0.0,0.0,
2025-08-15T05:00:10.213Z,12,GR86-022-13,0.5,0.14,-0.056,100.0,4.0,,0.0,0.0,163.07
2025-08-15T05:00:10.257Z,12,GR86-022-13,0.5,0.173,-0.077,100.0,4.0,,0.0,0.0,
2025-08-15T05:00:10.299Z,12,GR86-022-13,0.5,0.173,-0.07,100.02,4.0,,0.0,0.0,
2025-08-15T05:00:10.342Z,12,GR86-022-13,0.5,0.162,-0.061,100.0,4.0,,0.0,0.0,
2025-08-15T05:00:10.385Z,12,GR86-022-13,1.0,0.157,-0.058,100.0,4.0,6460.0,0.0,0.0,
2025-08-15T05:00:10.428Z,12,GR86-022-13,1.2000000000000002,0.153,-0.063,100.02,4.0,,0.0,0.0,164.05
2025-08-15T05:00:10.471Z,12,GR86-022-13,1.2000000000000002,0.157,-0.048,100.01,4.0,,0.0,0.0,
2025-08-15T05:00:10.514Z,12,GR86-022-13,0.9,0.177,-0.049,99.97,4.0,,0.0,0.0,
2025-08-15T05:00:10.558Z,12,GR86-022-13,0.3,0.158,-0.052,99.98,4.0,,0.0,0.0,
2025-08-15T05:00:10.643Z,12,GR86-022-13,0.0,0.152,-0.053,100.0,4.0,6495.0,0.0,0.0,165.06
2025-08-15T05:00:10.687Z,12,GR86-022-13,0.0,0.158,-0.053,100.0,4.0,,0.0,0.0,
2025-08-15T05:00:10.729Z,12,GR86-022-13,0.0,0.167,-0.039,100.0,4.0,,0.0,0.0,
2025-08-15T05:00:10.772Z,12,GR86-022-13,0.0,0.164,-0.038,99.97,4.0,,0.0,0.0,
2025-08-15T05:00:10.815Z,12,GR86-022-13,0.1,0.186,-0.033,100.0,4.0,6532.0,0.0,0.0,
2025-08-15T05:00:10.858Z,12,GR86-022-13,0.1,0.153,-0.044,100.02,4.0,,0.0,0.0,166.09
2025-08-15T05:00:10.901Z,12,GR86-022-13,0.2,0.14,-0.045,99.99,4.0,,0.0,0.0,
2025-08-15T05:00:10.944Z,12,GR86-022-13,0.2,0.147,-0.056,100.01,4.0,,0.0,0.0,
2025-08-15T05:00:10.988Z,12,GR86-022-13,0.2,0.158,-0.048,100.02,4.0,,0.0,0.0,
2025-08-15T05:00:11.030Z,12,GR86-022-13,0.2,0.162,-0.043,99.98,4.0,6575.0,0.0,0.0,
2025-08-15T05:00:11.073Z,12,GR86-022-13,0.2,0.178,-0.047,100.01,4.0,,0.0,0.0,167.15
2025-08-15T05:00:11.117Z,12,GR86-022-13,0.2,0.16,-0.06,100.03,4.0,,0.0,0.0,
2025-08-15T05:00:11.161Z,12,GR86-022-13,0.1,0.141,-0.032,100.0,4.0,,0.0,0.0,
2025-08-15T05:00:11.204Z,12,GR86-022-13,-0.3,0.139,-0.041,99.97,4.0,,0.0,0.0,
2025-08-15T05:00:11.248Z,12,GR86-022-13,-0.5,0.141,-0.017,100.02,4.0,6610.0,0.0,0.0,
2025-08-15T05:00:11.291Z,12,GR86-022-13,-0.9,0.163,-0.033,100.02,4.0,,0.0,0.0,169.26
2025-08-15T05:00:11.334Z,12,GR86-022-13,-1.5,0.165,-0.041,100.0,4.0,,0.0,0.0,
2025-08-15T05:00:11.379Z,12,GR86-022-13,-2.2,0.166,-0.074,100.02,4.0,,0.0,0.0,
2025-08-15T05:00:11.421Z,12,GR86-022-13,-2.5,0.141,-0.086,100.0,4.0,,0.0,0.0,
2025-08-15T05:00:11.464Z,12,GR86-022-13,-2.6,0.147,-0.116,100.02,4.0,6654.0,0.0,0.0,
2025-08-15T05:00:11.508Z,12,GR86-022-13,-2.6,0.14,-0.128,100.01,4.0,,0.0,0.0,170.29
2025-08-15T05:00:11.550Z,12,GR86-022-13,-2.2,0.143,-0.153,99.99,4.0,,0.0,0.0,
2025-08-15T05:00:11.593Z,12,GR86-022-13,-1.2000000000000002,0.141,-0.144,99.99,4.0,,0.0,0.0,
2025-08-15T05:00:11.637Z,12,GR86-022-13,-0.1,0.163,-0.15,100.0,4.0,,0.0,0.0,
2025-08-15T05:00:11.681Z,12,GR86-022-13,0.1,0.167,-0.133,100.0,4.0,6750.0,0.0,0.0,
2025-08-15T05:00:11.724Z,12,GR86-022-13,0.1,0.166,-0.113,100.0,4.0,,0.0,0.0,171.44
2025-08-15T05:00:11.768Z,12,GR86-022-13,-0.7000000000000001,0.153,-0.133,100.02,4.0,,0.0,0.0,
2025-08-15T05:00:11.810Z,12,GR86-022-13,-2.2,0.163,-0.105,100.03,4.0,,0.0,0.0,
2025-08-15T05:00:11.853Z,12,GR86-022-13,-3.7,0.146,-0.123,100.0,4.0,,0.0,0.0,
2025-08-15T05:00:11.897Z,12,GR86-022-13,-4.2,0.174,-0.129,100.02,4.0,6778.0,0.0,0.0,
2025-08-15T05:00:11.941Z,12,GR86-022-13,-4.2,0.193,-0.151,100.01,4.0,,0.0,0.0,172.53
2025-08-15T05:00:11.984Z,12,GR86-022-13,-4.2,0.184,-0.166,100.01,4.0,,0.0,0.0,
2025-08-15T05:00:12.028Z,12,GR86-022-13,-4.2,0.194,-0.181,100.0,4.0,,0.0,0.0,
2025-08-15T05:00:12.070Z,12,GR86-022-13,-3.7,0.174,-0.204,100.01,4.0,,0.0,0.0,
2025-08-15T05:00:12.113Z,12,GR86-022-13,-2.1,0.178,-0.198,100.0,4.0,6820.0,0.0,0.0,
2025-08-15T05:00:12.157Z,12,GR86-022-13,0.5,0.155,-0.165,100.0,4.0,,0.0,0.0,173.61
2025-08-15T05:00:12.199Z,12,GR86-022-13,0.9,0.152,-0.132,99.99,4.0,,0.0,0.0,
2025-08-15T05:00:12.242Z,12,GR86-022-13,0.4,0.166,-0.12,99.99,4.0,,0.0,0.0,
2025-08-15T05:00:12.285Z,12,GR86-022-13,-0.1,0.17,-0.101,100.01,4.0,,0.0,0.0,
2025-08-15T05:00:12.328Z,12,GR86-022-13,-0.3,0.177,-0.094,100.03,4.0,6869.0,0.0,0.0,
2025-08-15T05:00:12.371Z,12,GR86-022-13,-0.4,0.192,-0.071,100.02,4.0,,0.0,0.0,174.71
2025-08-15T05:00:12.414Z,12,GR86-022-13,-0.9,0.169,-0.069,100.03,4.0,,0.0,0.0,
2025-08-15T05:00:12.458Z,12,GR86-022-13,-1.5,0.131,-0.062,100.0,4.0,,0.0,0.0,
2025-08-15T05:00:12.501Z,12,GR86-022-13,-1.6,0.142,-0.055,99.97,4.0,,0.0,0.0,
2025-08-15T05:00:12.544Z,12,GR86-022-13,-1.6,0.135,-0.078,99.99,4.0,6907.0,0.0,0.0,
2025-08-15T05:00:12.588Z,12,GR86-022-13,-1.6,0.139,-0.075,100.0,4.0,,0.0,0.0,175.79
2025-08-15T05:00:12.630Z,12,GR86-022-13,-1.5,0.126,-0.104,99.99,4.0,,0.0,0.0,
2025-08-15T05:00:12.674Z,12,GR86-022-13,-1.5,0.146,-0.098,99.97,4.0,,0.0,0.0,
2025-08-15T05:00:12.717Z,12,GR86-022-13,-1.4,0.173,-0.1,100.02,4.0,,0.0,0.0,
2025-08-15T05:00:12.759Z,12,GR86-022-13,-1.2000000000000002,0.168,-0.119,100.03,4.0,6958.0,0.0,0.0,
2025-08-15T05:00:12.802Z,12,GR86-022-13,-0.7000000000000001,0.186,-0.105,100.02,4.0,,0.0,0.0,176.79
2025-08-15T05:00:12.845Z,12,GR86-022-13,-0.3,0.162,-0.114,100.02,4.0,,0.0,0.0,
2025-08-15T05:00:12.888Z,12,GR86-022-13,-0.2,0.17,-0.135,100.03,4.0,,0.0,0.0,
2025-08-15T05:00:12.931Z,12,GR86-022-13,-0.7000000000000001,0.181,-0.105,100.03,4.0,,0.0,0.0,
2025-08-15T05:00:12.975Z,12,GR86-022-13,-2.1,0.145,-0.096,100.03,4.0,6994.0,0.0,0.0,
2025-08-15T05:00:13.018Z,12,GR86-022-13,-4.2,0.143,-0.111,100.01,4.0,,0.0,0.0,177.78
2025-08-15T05:00:13.061Z,12,GR86-022-13,-4.3,0.145,-0.123,100.0,4.0,,0.0,0.0,
2025-08-15T05:00:13.104Z,12,GR86-022-13,-3.8,0.154,-0.128,100.02,4.0,,0.0,0.0,
2025-08-15T05:00:13.148Z,12,GR86-022-13,-3.4000000000000004,0.157,-0.132,100.01,4.0,,0.0,0.0,
2025-08-15T05:00:13.190Z,12,GR86-022-13,-3.2,0.144,-0.113,100.01,4.0,7027.0,0.0,0.0,
2025-08-15T05:00:13.233Z,12,GR86-022-13,-2.6,0.162,-0.168,100.01,4.0,,0.0,0.0,178.97
2025-08-15T05:00:13.279Z,12,GR86-022-13,-0.7000000000000001,0.157,-0.164,99.98,4.0,,0.0,0.0,
2025-08-15T05:00:13.321Z,12,GR86-022-13,-0.4,0.163,-0.155,100.02,4.0,,0.0,0.0,
2025-08-15T05:00:13.364Z,12,GR86-022-13,-0.4,0.137,-0.145,100.01,4.0,,0.0,0.0,
2025-08-15T05:00:13.450Z,12,GR86-022-13,-0.4,0.145,-0.139,100.0,4.0,7076.0,0.0,0.0,180.09
2025-08-15T05:00:13.493Z,12,GR86-022-13,-0.4,0.162,-0.11,100.0,4.0,,0.0,0.0,
2025-08-15T05:00:13.580Z,12,GR86-022-13,-0.8,0.158,-0.093,100.01,4.0,,0.0,0.0,
2025-08-15T05:00:13.623Z,12,GR86-022-13,-0.9,0.154,-0.1,99.96,4.0,7109.0,0.0,0.0,
2025-08-15T05:00:13.667Z,12,GR86-022-13,-0.7000000000000001,0.146,-0.093,99.98,4.0,,0.0,0.0,181.06
2025-08-15T05:00:13.709Z,12,GR86-022-13,-0.3,0.162,-0.067,100.02,4.0,,0.0,0.0,
2025-08-15T05:00:13.752Z,12,GR86-022-13,-0.3,0.135,-0.094,100.02,4.0,,0.0,0.0,
2025-08-15T05:00:13.795Z,12,GR86-022-13,-0.3,0.147,-0.065,99.98,4.0,,0.0,0.0,
2025-08-15T05:00:13.838Z,12,GR86-022-13,-0.3,0.166,-0.081,100.0,4.0,7146.0,0.0,0.0,
2025-08-15T05:00:13.881Z,12,GR86-022-13,-0.3,0.146,-0.08,100.01,4.0,,0.0,0.0,183.11
2025-08-15T05:00:13.924Z,12,GR86-022-13,-0.3,0.167,-0.102,99.98,4.0,,0.0,0.0,
2025-08-15T05:00:13.968Z,12,GR86-022-13,-0.3,0.161,-0.094,100.02,4.0,,0.0,0.0,
2025-08-15T05:00:14.010Z,12,GR86-022-13,-0.4,0.136,-0.097,99.98,4.0,,0.0,0.0,
2025-08-15T05:00:14.053Z,12,GR86-022-13,-1.0,0.163,-0.056,99.98,4.0,7184.0,0.0,0.0,
2025-08-15T05:00:14.099Z,12,GR86-022-13,-1.3,-0.01,-0.074,100.01,5.0,,0.0,0.0,184.07
2025-08-15T05:00:14.141Z,12,GR86-022-13,-1.3,-0.068,-0.022,99.97,5.0,,0.0,0.0,
2025-08-15T05:00:14.184Z,12,GR86-022-13,-1.3,0.491,-0.095,100.03,5.0,,0.0,0.0,
2025-08-15T05:00:14.228Z,12,GR86-022-13,-1.4,0.152,-0.122,100.0,5.0,,0.0,0.0,
2025-08-15T05:00:14.270Z,12,GR86-022-13,-2.6,0.023,-0.078,99.97,5.0,7229.0,0.0,0.0,
2025-08-15T05:00:14.313Z,12,GR86-022-13,-3.1,0.052,-0.091,99.99,5.0,,0.0,0.0,185.06
2025-08-15T05:00:14.357Z,12,GR86-022-13,-3.2,0.197,-0.158,100.01,5.0,,0.0,0.0,
2025-08-15T05:00:14.399Z,12,GR86-022-13,-3.4000000000000004,0.13,-0.124,100.02,5.0,,0.0,0.0,
2025-08-15T05:00:14.485Z,12,GR86-022-13,-3.5,0.096,-0.2,99.97,5.0,6223.0,0.0,0.0,
2025-08-15T05:00:14.528Z,12,GR86-022-13,-4.0,0.146,-0.167,100.03,5.0,,0.0,0.0,185.83
2025-08-15T05:00:14.571Z,12,GR86-022-13,-4.0,0.123,-0.216,100.01,5.0,,0.0,0.0,
2025-08-15T05:00:14.614Z,12,GR86-022-13,-3.8,0.143,-0.202,99.97,5.0,,0.0,0.0,
2025-08-15T05:00:14.658Z,12,GR86-022-13,-3.6,0.133,-0.199,100.0,5.0,,0.0,0.0,
2025-08-15T05:00:14.701Z,12,GR86-022-13,-3.6,0.11,-0.237,100.01,5.0,6372.0,0.0,0.0,
2025-08-15T05:00:14.744Z,12,GR86-022-13,-3.2,0.15,-0.22,100.0,5.0,,0.0,0.0,186.76
2025-08-15T05:00:14.788Z,12,GR86-022-13,-2.1,0.131,-0.246,99.99,5.0,,0.0,0.0,
2025-08-15T05:00:14.831Z,12,GR86-022-13,-1.3,0.134,-0.231,100.02,5.0,,0.0,0.0,
2025-08-15T05:00:14.874Z,12,GR86-022-13,-1.0,0.143,-0.206,100.01,5.0,,0.0,0.0,
2025-08-15T05:00:14.918Z,12,GR86-022-13,-1.0,0.11,-0.177,99.97,5.0,6380.0,0.0,0.0,
2025-08-15T05:00:14.960Z,12,GR86-022-13,-1.0,0.116,-0.174,100.0,5.0,,0.0,0.0,187.61
2025-08-15T05:00:15.003Z,12,GR86-022-13,-1.0,0.114,-0.148,100.03,5.0,,0.0,0.0,
2025-08-15T05:00:15.089Z,12,GR86-022-13,-0.9,0.124,-0.13,99.99,5.0,,0.0,0.0,
2025-08-15T05:00:15.132Z,12,GR86-022-13,1.0,0.102,-0.106,100.03,5.0,6406.0,0.0,0.0,
2025-08-15T05:00:15.175Z,12,GR86-022-13,2.0,0.129,-0.085,99.98,5.0,,0.0,0.0,188.54
2025-08-15T05:00:15.218Z,12,GR86-022-13,2.2,0.126,-0.064,100.0,5.0,,0.0,0.0,
2025-08-15T05:00:15.261Z,12,GR86-022-13,2.2,0.126,-0.063,100.02,5.0,,0.0,0.0,
2025-08-15T05:00:15.304Z,12,GR86-022-13,2.2,0.119,-0.055,99.97,5.0,,0.0,0.0,
2025-08-15T05:00:15.348Z,12,GR86-022-13,2.2,0.121,-0.053,100.0,5.0,6428.0,0.0,0.0,
2025-08-15T05:00:15.391Z,12,GR86-022-13,2.2,0.109,-0.009,100.03,5.0,,0.0,0.0,189.26
2025-08-15T05:00:15.434Z,12,GR86-022-13,2.2,0.128,-0.016,99.96,5.0,,0.0,0.0,
2025-08-15T05:00:15.479Z,12,GR86-022-13,2.2,0.147,0.001,100.0,5.0,,0.0,0.0,
2025-08-15T05:00:15.521Z,12,GR86-022-13,2.2,0.113,0.011,100.04,5.0,,0.0,0.0,
2025-08-15T05:00:15.564Z,12,GR86-022-13,1.6,0.153,0.004,99.97,5.0,6467.0,0.0,0.0,
2025-08-15T05:00:15.608Z,12,GR86-022-13,0.4,0.109,-0.035,100.0,5.0,,0.0,0.0,190.04
2025-08-15T05:00:15.650Z,12,GR86-022-13,-1.0,0.115,-0.024,100.0,5.0,,0.0,0.0,
2025-08-15T05:00:15.693Z,12,GR86-022-13,-1.5,0.14,-0.052,99.99,5.0,,0.0,0.0,
2025-08-15T05:00:15.737Z,12,GR86-022-13,-1.1,0.155,-0.064,100.01,5.0,,0.0,0.0,
2025-08-15T05:00:15.779Z,12,GR86-022-13,-0.5,0.127,-0.102,99.98,5.0,6487.0,0.0,0.0,
2025-08-15T05:00:15.822Z,12,GR86-022-13,-0.3,0.147,-0.103,99.99,5.0,,0.0,0.0,190.96
2025-08-15T05:00:15.865Z,12,GR86-022-13,-0.3,0.143,-0.09,100.01,5.0,,0.0,0.0,
2025-08-15T05:00:15.909Z,12,GR86-022-13,-0.4,0.153,-0.112,99.97,5.0,,0.0,0.0,
2025-08-15T05:00:15.951Z,12,GR86-022-13,-0.4,0.125,-0.11,100.0,5.0,,0.0,0.0,
2025-08-15T05:00:15.994Z,12,GR86-022-13,-0.7000000000000001,0.132,-0.094,100.01,5.0,6516.0,0.0,0.0,
2025-08-15T05:00:16.038Z,12,GR86-022-13,-2.1,0.135,-0.1,100.01,5.0,,0.0,0.0,191.66
2025-08-15T05:00:16.081Z,12,GR86-022-13,-3.4000000000000004,0.146,-0.124,99.99,5.0,,0.0,0.0,
2025-08-15T05:00:16.123Z,12,GR86-022-13,-4.2,0.138,-0.165,99.99,5.0,,0.0,0.0,
2025-08-15T05:00:16.167Z,12,GR86-022-13,-4.2,0.142,-0.166,100.01,5.0,,0.0,0.0,
2025-08-15T05:00:16.209Z,12,GR86-022-13,-4.2,0.137,-0.167,100.0,5.0,6540.0,0.0,0.0,
2025-08-15T05:00:16.253Z,12,GR86-022-13,-4.2,0.155,-0.19,100.0,5.0,,0.0,0.0,192.32
2025-08-15T05:00:16.297Z,12,GR86-022-13,-1.5,0.124,-0.193,99.97,5.0,,0.0,0.0,
2025-08-15T05:00:16.339Z,12,GR86-022-13,1.8,0.123,-0.191,99.99,5.0,,0.0,0.0,
2025-08-15T05:00:16.382Z,12,GR86-022-13,4.7,0.151,-0.174,100.03,5.0,,0.0,0.0,
2025-08-15T05:00:16.427Z,12,GR86-022-13,5.7,0.146,-0.121,99.98,5.0,6571.0,0.0,0.0,
2025-08-15T05:00:16.469Z,12,GR86-022-13,5.7,0.162,-0.077,100.03,5.0,,0.0,0.0,193.2
2025-08-15T05:00:16.512Z,12,GR86-022-13,5.800000000000001,0.138,-0.033,99.97,5.0,,0.0,0.0,
2025-08-15T05:00:16.555Z,12,GR86-022-13,6.2,0.155,0.035,100.0,5.0,,0.0,0.0,
2025-08-15T05:00:16.598Z,12,GR86-022-13,6.6000000000000005,0.132,0.112,99.97,5.0,,0.0,0.0,
2025-08-15T05:00:16.641Z,12,GR86-022-13,6.300000000000001,0.136,0.132,100.04,5.0,6596.0,0.0,0.0,
2025-08-15T05:00:16.684Z,12,GR86-022-13,5.6000000000000005,0.146,0.16,99.98,5.0,,0.0,0.0,194.86
2025-08-15T05:00:16.728Z,12,GR86-022-13,5.300000000000001,0.158,0.163,100.0,5.0,,0.0,0.0,
2025-08-15T05:00:16.770Z,12,GR86-022-13,5.300000000000001,0.159,0.179,99.99,5.0,,0.0,0.0,
2025-08-15T05:00:16.813Z,12,GR86-022-13,5.1000000000000005,0.148,0.16,99.96,5.0,,0.0,0.0,
2025-08-15T05:00:16.857Z,12,GR86-022-13,3.9,0.127,0.133,99.99,5.0,6626.0,0.0,0.0,
2025-08-15T05:00:16.899Z,12,GR86-022-13,1.1,0.158,0.137,100.0,5.0,,0.0,0.0,195.67
2025-08-15T05:00:16.942Z,12,GR86-022-13,-2.0,0.146,0.065,100.0,5.0,,0.0,0.0,
2025-08-15T05:00:16.985Z,12,GR86-022-13,-3.5,0.163,0.041,100.01,5.0,,0.0,0.0,
2025-08-15T05:00:17.028Z,12,GR86-022-13,-3.5,0.157,-0.035,99.99,5.0,,0.0,0.0,
2025-08-15T05:00:17.071Z,12,GR86-022-13,-3.5,0.133,-0.081,99.99,5.0,6654.0,0.0,0.0,
2025-08-15T05:00:17.114Z,12,GR86-022-13,-3.4000000000000004,0.144,-0.105,100.02,5.0,,0.0,0.0,196.48
2025-08-15T05:00:17.158Z,12,GR86-022-13,-1.3,0.133,-0.129,100.03,5.0,,0.0,0.0,
2025-08-15T05:00:17.200Z,12,GR86-022-13,-1.1,0.15,-0.163,100.0,5.0,,0.0,0.0,
2025-08-15T05:00:17.287Z,12,GR86-022-13,-1.4,0.142,-0.168,100.0,5.0,6714.0,0.0,0.0,
2025-08-15T05:00:17.329Z,12,GR86-022-13,-4.9,0.118,-0.216,100.03,5.0,,0.0,0.0,197.36
2025-08-15T05:00:17.372Z,12,GR86-022-13,-7.1000000000000005,0.108,-0.226,100.0,5.0,,0.0,0.0,
2025-08-15T05:00:17.415Z,12,GR86-022-13,-7.9,0.098,-0.239,100.0,5.0,,0.0,0.0,
2025-08-15T05:00:17.458Z,12,GR86-022-13,-4.4,0.142,-0.285,99.96,5.0,,0.0,0.0,
2025-08-15T05:00:17.501Z,12,GR86-022-13,-2.0,0.126,-0.254,100.01,5.0,6735.0,0.0,0.0,
2025-08-15T05:00:17.544Z,12,GR86-022-13,-1.9,0.13,-0.265,99.99,5.0,,0.0,0.0,198.11
2025-08-15T05:00:17.588Z,12,GR86-022-13,-2.2,0.103,-0.255,100.03,5.0,,0.0,0.0,
2025-08-15T05:00:17.630Z,12,GR86-022-13,-2.3000000000000003,0.093,-0.255,100.02,5.0,,0.0,0.0,
2025-08-15T05:00:17.673Z,12,GR86-022-13,-2.4000000000000004,0.112,-0.253,100.0,5.0,,0.0,0.0,
2025-08-15T05:00:17.717Z,12,GR86-022-13,-3.2,0.123,-0.237,100.02,5.0,6768.0,0.0,0.0,
2025-08-15T05:00:17.759Z,12,GR86-022-13,-3.2,0.114,-0.253,100.0,5.0,,0.0,0.0,199.03
2025-08-15T05:00:17.802Z,12,GR86-022-13,-3.1,0.112,-0.23,100.01,5.0,,0.0,0.0,
2025-08-15T05:00:17.845Z,12,GR86-022-13,-3.1,0.087,-0.247,100.02,5.0,,0.0,0.0,
2025-08-15T05:00:17.888Z,12,GR86-022-13,-3.1,0.036,-0.23,100.03,5.0,,0.0,0.0,
2025-08-15T05:00:17.931Z,12,GR86-022-13,-2.6,-0.755,-0.24,100.01,5.0,6790.0,0.0,0.0,
2025-08-15T05:00:17.974Z,12,GR86-022-13,-1.5,-1.075,-0.015,100.0,5.0,,0.0,0.0,199.78
2025-08-15T05:00:18.018Z,12,GR86-022-13,1.6,0.011,-0.338,100.0,5.0,,0.0,0.0,
2025-08-15T05:00:18.061Z,12,GR86-022-13,2.6,0.081,-0.251,99.99,5.0,,0.0,0.0,
2025-08-15T05:00:18.104Z,12,GR86-022-13,2.9000000000000004,0.118,-0.263,100.01,5.0,,0.0,0.0,
2025-08-15T05:00:18.148Z,12,GR86-022-13,2.8000000000000003,0.158,-0.211,100.02,5.0,6824.0,0.0,0.0,
2025-08-15T05:00:18.191Z,12,GR86-022-13,2.0,0.14,-0.144,100.01,5.0,,0.0,0.0,200.72
2025-08-15T05:00:18.234Z,12,GR86-022-13,0.7000000000000001,0.137,-0.09,100.0,5.0,,0.0,0.0,
2025-08-15T05:00:18.278Z,12,GR86-022-13,-1.0,0.119,-0.024,100.0,5.0,,0.0,0.0,
2025-08-15T05:00:18.321Z,12,GR86-022-13,-1.1,0.114,-0.002,99.98,5.0,,0.0,0.0,
2025-08-15T05:00:18.364Z,12,GR86-022-13,-1.5,0.122,-0.015,100.0,5.0,6728.0,0.0,0.0,
2025-08-15T05:00:18.408Z,12,GR86-022-13,-2.3000000000000003,0.132,-0.023,100.0,5.0,,0.0,0.0,200.32
2025-08-15T05:00:18.450Z,12,GR86-022-13,-2.4000000000000004,0.138,-0.038,100.01,5.0,,0.0,0.0,
2025-08-15T05:00:18.493Z,12,GR86-022-13,-2.1,0.135,-0.085,100.0,5.0,,0.0,0.0,
2025-08-15T05:00:18.537Z,12,GR86-022-13,-0.4,0.118,-0.123,99.99,5.0,,0.0,0.0,
2025-08-15T05:00:18.581Z,12,GR86-022-13,0.3,0.124,-0.155,99.98,5.0,6764.0,0.0,0.0,
2025-08-15T05:00:18.624Z,12,GR86-022-13,0.9,0.144,-0.151,100.0,5.0,,0.0,0.0,198.87
2025-08-15T05:00:18.668Z,12,GR86-022-13,1.0,0.14,-0.152,100.0,5.0,,0.0,0.0,
2025-08-15T05:00:18.711Z,12,GR86-022-13,1.3,0.14,-0.142,100.02,5.0,,0.0,0.0,
2025-08-15T05:00:18.753Z,12,GR86-022-13,1.9,0.129,-0.095,100.01,5.0,,0.0,0.0,
2025-08-15T05:00:18.797Z,12,GR86-022-13,2.3000000000000003,0.135,-0.047,100.02,5.0,6781.0,0.0,0.0,
2025-08-15T05:00:18.841Z,12,GR86-022-13,2.5,0.128,-0.033,100.0,5.0,,0.0,0.0,199.6
2025-08-15T05:00:18.884Z,12,GR86-022-13,1.7000000000000002,0.115,-0.009,100.0,5.0,,0.0,0.0,
2025-08-15T05:00:18.928Z,12,GR86-022-13,0.4,0.133,-0.028,99.97,5.0,,0.0,0.0,
2025-08-15T05:00:18.970Z,12,GR86-022-13,-0.5,0.107,-0.023,99.99,5.0,,0.0,0.0,
2025-08-15T05:00:19.013Z,12,GR86-022-13,-0.6000000000000001,0.094,-0.038,100.01,5.0,6806.0,0.0,0.0,
2025-08-15T05:00:19.057Z,12,GR86-022-13,-0.6000000000000001,0.142,-0.053,99.99,5.0,,0.0,0.0,200.45
2025-08-15T05:00:19.099Z,12,GR86-022-13,-0.6000000000000001,0.133,-0.065,99.98,5.0,,0.0,0.0,
2025-08-15T05:00:19.144Z,12,GR86-022-13,-1.1,0.121,-0.087,100.01,5.0,,0.0,0.0,
2025-08-15T05:00:19.229Z,12,GR86-022-13,-2.1,0.1,-0.107,100.02,5.0,6841.0,0.0,0.0,
2025-08-15T05:00:19.272Z,12,GR86-022-13,-2.8000000000000003,0.109,-0.142,100.0,5.0,,0.0,0.0,201.04
2025-08-15T05:00:19.315Z,12,GR86-022-13,-2.8000000000000003,0.119,-0.139,99.97,5.0,,0.0,0.0,
2025-08-15T05:00:19.358Z,12,GR86-022-13,-3.0,0.1,-0.149,100.02,5.0,,0.0,0.0,
2025-08-15T05:00:19.401Z,12,GR86-022-13,-3.2,0.119,-0.165,100.0,5.0,,0.0,0.0,
2025-08-15T05:00:19.444Z,12,GR86-022-13,-3.2,0.105,-0.174,100.03,5.0,6867.0,0.0,0.0,
2025-08-15T05:00:19.488Z,12,GR86-022-13,-3.2,0.128,-0.195,100.0,5.0,,0.0,0.0,202.64
2025-08-15T05:00:19.531Z,12,GR86-022-13,-2.8000000000000003,0.143,-0.206,100.0,5.0,,0.0,0.0,
2025-08-15T05:00:19.573Z,12,GR86-022-13,-1.6,0.139,-0.211,100.0,5.0,,0.0,0.0,
2025-08-15T05:00:19.617Z,12,GR86-022-13,0.1,0.118,-0.199,100.01,5.0,,0.0,0.0,
2025-08-15T05:00:19.659Z,12,GR86-022-13,0.2,0.13,-0.176,100.01,5.0,6889.0,0.0,0.0,
2025-08-15T05:00:19.702Z,12,GR86-022-13,0.2,0.132,-0.155,100.03,5.0,,0.0,0.0,203.29
2025-08-15T05:00:19.745Z,12,GR86-022-13,0.2,0.12,-0.126,100.02,5.0,,0.0,0.0,
2025-08-15T05:00:19.788Z,12,GR86-022-13,0.2,0.129,-0.128,100.03,5.0,,0.0,0.0,
2025-08-15T05:00:19.831Z,12,GR86-022-13,0.2,0.129,-0.098,100.02,5.0,,0.0,0.0,
2025-08-15T05:00:19.874Z,12,GR86-022-13,0.6000000000000001,0.126,-0.064,100.01,5.0,6926.0,0.0,0.0,
2025-08-15T05:00:19.918Z,12,GR86-022-13,2.6,0.109,-0.017,99.97,5.0,,0.0,0.0,204.26
2025-08-15T05:00:19.961Z,12,GR86-022-13,4.1000000000000005,0.125,0.007,99.99,5.0,,0.0,0.0,
2025-08-15T05:00:20.004Z,12,GR86-022-13,5.2,0.108,0.011,99.98,5.0,,0.0,0.0,
2025-08-15T05:00:20.048Z,12,GR86-022-13,5.9,0.093,0.049,100.01,5.0,,0.0,0.0,
2025-08-15T05:00:20.090Z,12,GR86-022-13,6.300000000000001,0.109,0.067,100.01,5.0,6962.0,0.0,0.0,
2025-08-15T05:00:20.133Z,12,GR86-022-13,6.9,0.082,0.087,100.0,5.0,,0.0,0.0,205.09
2025-08-15T05:00:20.179Z,12,GR86-022-13,8.3,0.087,0.142,100.01,5.0,,0.0,0.0,
2025-08-15T05:00:20.221Z,12,GR86-022-13,9.5,0.075,0.173,99.99,5.0,,0.0,0.0,
2025-08-15T05:00:20.264Z,12,GR86-022-13,10.8,0.062,0.219,100.01,5.0,,0.0,0.0,
2025-08-15T05:00:20.308Z,12,GR86-022-13,11.2,0.091,0.245,100.02,5.0,6990.0,0.0,0.0,
2025-08-15T05:00:20.350Z,12,GR86-022-13,11.2,0.076,0.256,99.99,5.0,,0.0,0.0,205.81
2025-08-15T05:00:20.393Z,12,GR86-022-13,11.2,0.077,0.291,100.03,5.0,,0.0,0.0,
2025-08-15T05:00:20.437Z,12,GR86-022-13,11.8,0.05,0.347,99.97,5.0,,0.0,0.0,
2025-08-15T05:00:20.479Z,12,GR86-022-13,12.6,0.071,0.378,99.99,5.0,,0.0,0.0,
2025-08-15T05:00:20.522Z,12,GR86-022-13,13.1,0.073,0.399,99.97,5.0,7017.0,0.0,0.0,
2025-08-15T05:00:20.565Z,12,GR86-022-13,13.2,0.074,0.396,99.97,5.0,,0.0,0.0,206.58
2025-08-15T05:00:20.608Z,12,GR86-022-13,13.0,0.081,0.398,99.97,5.0,,0.0,0.0,
2025-08-15T05:00:20.651Z,12,GR86-022-13,12.8,0.064,0.418,99.98,5.0,,0.0,0.0,
2025-08-15T05:00:20.694Z,12,GR86-022-13,12.8,0.074,0.409,99.96,5.0,,0.0,0.0,
2025-08-15T05:00:20.738Z,12,GR86-022-13,12.8,0.08,0.407,99.98,5.0,7041.0,0.0,0.0,
2025-08-15T05:00:20.780Z,12,GR86-022-13,12.7,0.071,0.398,99.97,5.0,,0.0,0.0,207.12
2025-08-15T05:00:20.823Z,12,GR86-022-13,12.4,0.068,0.386,99.97,5.0,,0.0,0.0,
2025-08-15T05:00:20.867Z,12,GR86-022-13,12.3,0.051,0.389,99.97,5.0,,0.0,0.0,
2025-08-15T05:00:20.909Z,12,GR86-022-13,12.3,0.087,0.398,99.97,5.0,,0.0,0.0,
2025-08-15T05:00:20.952Z,12,GR86-022-13,12.3,0.069,0.388,99.96,5.0,7041.0,0.0,0.0,
2025-08-15T05:00:20.995Z,12,GR86-022-13,12.3,0.068,0.353,99.98,5.0,,0.0,0.0,207.62
2025-08-15T05:00:21.038Z,12,GR86-022-13,13.3,0.062,0.373,100.0,5.0,,0.0,0.0,
2025-08-15T05:00:21.081Z,12,GR86-022-13,14.1,0.075,0.42,99.97,5.0,,0.0,0.0,
2025-08-15T05:00:21.124Z,12,GR86-022-13,14.1,0.083,0.445,99.97,5.0,,0.0,0.0,
2025-08-15T05:00:21.168Z,12,GR86-022-13,13.9,0.07,0.453,99.97,5.0,7066.0,0.0,0.0,
2025-08-15T05:00:21.210Z,12,GR86-022-13,13.4,0.071,0.457,99.98,5.0,,0.0,0.0,208.01
2025-08-15T05:00:21.253Z,12,GR86-022-13,13.3,0.061,0.461,99.97,5.0,,0.0,0.0,
2025-08-15T05:00:21.299Z,12,GR86-022-13,13.3,0.078,0.447,99.97,5.0,,0.0,0.0,
2025-08-15T05:00:21.341Z,12,GR86-022-13,13.3,0.065,0.416,99.97,5.0,,0.0,0.0,
2025-08-15T05:00:21.384Z,12,GR86-022-13,13.2,0.06,0.422,99.97,5.0,7100.0,4.44,4.745,
2025-08-15T05:00:21.428Z,12,GR86-022-13,13.0,0.049,0.412,100.0,5.0,,3.525,3.645,208.25
2025-08-15T05:00:21.470Z,12,GR86-022-13,12.6,0.026,0.408,99.99,5.0,,0.0,0.0,
2025-08-15T05:00:21.513Z,12,GR86-022-13,12.1,0.065,0.388,100.02,5.0,,11.965,12.62,
2025-08-15T05:00:21.557Z,12,GR86-022-13,10.5,-0.116,0.371,99.97,5.0,,14.91,15.535,
2025-08-15T05:00:21.599Z,12,GR86-022-13,9.2,-0.137,0.339,99.99,5.0,7092.0,10.47,11.43,
2025-08-15T05:00:21.642Z,12,GR86-022-13,8.700000000000001,-0.045,0.317,100.0,5.0,,5.675,6.3,208.97
2025-08-15T05:00:21.685Z,12,GR86-022-13,8.8,-0.002,0.264,100.0,5.0,,0.0,2.275,
2025-08-15T05:00:21.728Z,12,GR86-022-13,10.1,0.053,0.229,100.02,5.0,,0.0,0.0,
2025-08-15T05:00:21.771Z,12,GR86-022-13,12.0,0.059,0.229,99.99,5.0,,0.0,0.0,
2025-08-15T05:00:21.814Z,12,GR86-022-13,13.9,0.037,0.221,99.97,5.0,7116.0,0.0,0.0,
2025-08-15T05:00:21.858Z,12,GR86-022-13,14.6,0.063,0.265,100.0,5.0,,0.0,0.0,209.38
2025-08-15T05:00:21.900Z,12,GR86-022-13,13.0,0.053,0.283,100.0,5.0,,0.0,0.0,
2025-08-15T05:00:21.944Z,12,GR86-022-13,11.1,0.04,0.274,100.01,5.0,,0.0,0.0,
2025-08-15T05:00:21.987Z,12,GR86-022-13,10.1,0.025,0.268,99.99,5.0,,0.0,0.0,
2025-08-15T05:00:22.031Z,12,GR86-022-13,10.0,0.023,0.294,99.98,5.0,7106.0,0.0,0.0,
2025-08-15T05:00:22.074Z,12,GR86-022-13,10.1,0.043,0.274,99.96,5.0,,0.0,0.0,209.22
2025-08-15T05:00:22.118Z,12,GR86-022-13,11.4,0.053,0.299,99.96,5.0,,0.0,0.0,
2025-08-15T05:00:22.161Z,12,GR86-022-13,12.7,0.03,0.305,99.97,5.0,,0.0,0.0,
2025-08-15T05:00:22.204Z,12,GR86-022-13,13.8,0.063,0.311,99.97,5.0,,0.0,0.0,
2025-08-15T05:00:22.248Z,12,GR86-022-13,14.0,0.055,0.33,100.0,5.0,7119.0,0.0,0.0,
2025-08-15T05:00:22.291Z,12,GR86-022-13,12.7,0.064,0.342,99.99,5.0,,0.0,0.0,209.53
2025-08-15T05:00:22.335Z,12,GR86-022-13,11.6,0.046,0.327,100.0,5.0,,0.0,0.0,
2025-08-15T05:00:22.379Z,12,GR86-022-13,12.9,0.068,0.312,99.97,5.0,,0.0,0.0,
2025-08-15T05:00:22.421Z,12,GR86-022-13,14.9,0.037,0.302,99.98,5.0,,0.0,0.0,
2025-08-15T05:00:22.464Z,12,GR86-022-13,16.0,0.032,0.329,100.03,5.0,7127.0,0.0,0.0,
2025-08-15T05:00:22.508Z,12,GR86-022-13,15.3,0.029,0.374,100.01,5.0,,0.0,0.0,210.04
2025-08-15T05:00:22.550Z,12,GR86-022-13,12.5,0.035,0.389,100.0,5.0,,0.0,0.0,
2025-08-15T05:00:22.593Z,12,GR86-022-13,8.700000000000001,0.062,0.368,99.97,5.0,,0.0,0.0,
2025-08-15T05:00:22.637Z,12,GR86-022-13,7.2,0.017,0.324,99.99,5.0,,0.0,0.0,
2025-08-15T05:00:22.679Z,12,GR86-022-13,9.8,0.046,0.308,99.98,5.0,7167.0,1.8,1.955,
2025-08-15T05:00:22.722Z,12,GR86-022-13,13.0,0.052,0.303,99.96,5.0,,3.645,3.785,210.46
2025-08-15T05:00:22.765Z,12,GR86-022-13,15.6,0.035,0.309,99.98,5.0,,5.905,6.03,
2025-08-15T05:00:22.808Z,12,GR86-022-13,16.3,-0.039,0.306,85.98,5.0,,8.09,8.120000000000001,
2025-08-15T05:00:22.851Z,12,GR86-022-13,14.5,-0.094,0.31,31.88,5.0,,9.095,9.065,
2025-08-15T05:00:22.894Z,12,GR86-022-13,10.1,-0.119,0.297,3.69,5.0,7170.0,9.75,9.78,
2025-08-15T05:00:22.938Z,12,GR86-022-13,5.5,-0.252,0.249,3.14,5.0,,9.965,10.115,210.91
2025-08-15T05:00:22.981Z,12,GR86-022-13,7.0,-0.32,0.225,3.0500000000000003,5.0,,10.115,10.405,
2025-08-15T05:00:23.024Z,12,GR86-022-13,9.9,-0.594,0.187,2.95,5.0,,15.305,15.275,
2025-08-15T05:00:23.068Z,12,GR86-022-13,10.9,-0.472,0.2,2.87,5.0,,24.2,24.31,
2025-08-15T05:00:23.110Z,12,GR86-022-13,9.3,-0.5670000000000001,0.259,2.81,5.0,7154.0,34.565,34.425000000000004,
2025-08-15T05:00:23.153Z,12,GR86-022-13,5.800000000000001,-0.764,0.214,2.75,5.0,,45.335,44.91,211.04
2025-08-15T05:00:23.197Z,12,GR86-022-13,3.3000000000000003,-0.974,0.141,2.63,5.0,,49.58,49.55,
2025-08-15T05:00:23.241Z,12,GR86-022-13,5.9,-0.947,0.113,2.62,5.0,,53.485,53.09,
2025-08-15T05:00:23.284Z,12,GR86-022-13,8.1,-1.036,0.119,2.57,5.0,,56.370000000000005,56.125,
2025-08-15T05:00:23.328Z,12,GR86-022-13,8.5,-1.032,0.146,2.54,5.0,7015.0,53.425,54.325,
2025-08-15T05:00:23.370Z,12,GR86-022-13,9.2,-1.033,0.152,2.52,5.0,,49.335,50.815,209.81
2025-08-15T05:00:23.413Z,12,GR86-022-13,10.9,-1.096,0.156,2.5,5.0,,48.74,50.04,
2025-08-15T05:00:23.457Z,12,GR86-022-13,12.9,-0.973,0.198,2.47,5.0,,47.46,48.68,
2025-08-15T05:00:23.499Z,12,GR86-022-13,12.6,-0.976,0.216,2.48,5.0,,46.8,47.995000000000005,
2025-08-15T05:00:23.542Z,12,GR86-022-13,12.8,-0.942,0.226,2.47,5.0,6624.0,46.24,47.49,
2025-08-15T05:00:23.585Z,12,GR86-022-13,14.5,-0.925,0.242,2.48,5.0,,48.33,48.925,204.38
2025-08-15T05:00:23.628Z,12,GR86-022-13,15.4,-0.999,0.249,2.47,5.0,,59.15,58.765,
2025-08-15T05:00:23.671Z,12,GR86-022-13,12.3,-1.117,0.281,3.26,5.0,,68.9,68.18,
2025-08-15T05:00:23.714Z,12,GR86-022-13,4.7,-1.173,0.317,44.23,5.0,,77.92,79.305,
2025-08-15T05:00:23.800Z,12,GR86-022-13,-5.300000000000001,-1.184,0.306,99.61,5.0,6437.0,88.43,88.4,197.93
2025-08-15T05:00:23.843Z,12,GR86-022-13,-0.1,-1.297,0.128,76.29,4.0,,87.395,88.25,
2025-08-15T05:00:23.887Z,12,GR86-022-13,6.1000000000000005,-1.211,0.188,6.7,4.0,,80.285,81.625,
2025-08-15T05:00:23.929Z,12,GR86-022-13,5.7,-1.293,0.266,3.0700000000000003,4.0,,79.11,80.405,
2025-08-15T05:00:23.972Z,12,GR86-022-13,5.0,-1.214,0.118,2.79,4.0,6103.0,84.02,85.805,
2025-08-15T05:00:24.015Z,12,GR86-022-13,5.5,-1.183,0.189,2.66,4.0,,84.95,85.35000000000001,190.43
2025-08-15T05:00:24.058Z,12,GR86-022-13,11.1,-1.17,0.058,2.62,4.0,,85.41,86.615,
2025-08-15T05:00:24.101Z,12,GR86-022-13,19.3,-1.21,0.143,2.6,4.0,,88.02,89.745,
2025-08-15T05:00:24.144Z,12,GR86-022-13,26.3,-1.181,0.265,2.78,4.0,,91.225,92.095,
2025-08-15T05:00:24.188Z,12,GR86-022-13,22.0,-1.282,0.315,41.54,4.0,6451.0,92.49,92.49,
2025-08-15T05:00:24.230Z,12,GR86-022-13,12.5,-1.316,0.346,41.52,3.0,,93.21,94.4,182.4
2025-08-15T05:00:24.273Z,12,GR86-022-13,-5.9,-1.342,0.256,5.78,3.0,,94.08,95.925,
2025-08-15T05:00:24.317Z,12,GR86-022-13,-11.2,-1.393,0.09,3.76,3.0,,95.33,96.335,
2025-08-15T05:00:24.359Z,12,GR86-022-13,-6.6000000000000005,-1.32,0.154,3.46,3.0,,93.5,94.55,
2025-08-15T05:00:24.445Z,12,GR86-022-13,-2.4000000000000004,-1.207,0.418,3.13,3.0,6488.0,94.705,95.36,173.59
2025-08-15T05:00:24.488Z,12,GR86-022-13,-3.7,-1.355,0.395,3.02,3.0,,94.52,94.795,
2025-08-15T05:00:24.531Z,12,GR86-022-13,-4.800000000000001,-1.115,0.398,2.95,3.0,,97.1,98.275,
2025-08-15T05:00:24.574Z,12,GR86-022-13,-2.2,-1.064,0.299,2.85,3.0,,98.715,99.115,
2025-08-15T05:00:24.618Z,12,GR86-022-13,1.6,-1.218,0.308,2.69,3.0,6384.0,101.92,102.015,
2025-08-15T05:00:24.661Z,12,GR86-022-13,2.9000000000000004,-1.183,0.16,2.63,3.0,,99.555,99.435,165.28
2025-08-15T05:00:24.704Z,12,GR86-022-13,3.0,-1.271,0.148,2.57,3.0,,98.03,97.71,
2025-08-15T05:00:24.748Z,12,GR86-022-13,3.6,-1.313,0.156,2.54,3.0,,99.28,98.9,
2025-08-15T05:00:24.791Z,12,GR86-022-13,8.200000000000001,-1.319,0.025,8.35,3.0,,100.64,100.06,
2025-08-15T05:00:24.834Z,12,GR86-022-13,8.8,-1.203,-0.007,53.39,2.0,6659.0,102.835,102.395,
2025-08-15T05:00:24.878Z,12,GR86-022-13,6.300000000000001,-1.329,-0.002,5.72,2.0,,102.745,103.69,148.84
2025-08-15T05:00:24.921Z,12,GR86-022-13,6.5,-1.316,0.043,4.05,2.0,,105.22,106.925,
2025-08-15T05:00:24.964Z,12,GR86-022-13,7.300000000000001,-1.357,-0.11,3.58,2.0,,105.185,105.615,
2025-08-15T05:00:25.008Z,12,GR86-022-13,7.9,-1.416,0.025,3.33,2.0,,103.37,104.895,
2025-08-15T05:00:25.050Z,12,GR86-022-13,7.9,-1.248,0.088,3.19,2.0,6576.0,104.865,106.775,
2025-08-15T05:00:25.093Z,12,GR86-022-13,10.8,-1.092,-0.122,3.09,2.0,,103.645,103.875,140.17000000000002
2025-08-15T05:00:25.137Z,12,GR86-022-13,14.3,-1.303,0.181,2.94,2.0,,103.645,105.31,
2025-08-15T05:00:25.181Z,12,GR86-022-13,18.4,-1.224,0.099,2.86,2.0,,104.27,105.28,
2025-08-15T05:00:25.224Z,12,GR86-022-13,23.5,-1.373,0.095,2.76,2.0,,102.9,103.495,
2025-08-15T05:00:25.268Z,12,GR86-022-13,26.3,-1.227,0.385,2.67,2.0,6391.0,103.25,103.615,
2025-08-15T05:00:25.310Z,12,GR86-022-13,24.5,-1.173,0.268,2.61,2.0,,102.715,102.93,131.27
2025-08-15T05:00:25.353Z,12,GR86-022-13,19.200000000000003,-1.21,0.363,2.57,2.0,,102.24,101.585,
2025-08-15T05:00:25.397Z,12,GR86-022-13,14.1,-1.221,0.381,2.53,2.0,,96.335,96.395,
2025-08-15T05:00:25.441Z,12,GR86-022-13,17.2,-1.103,0.304,2.5,2.0,,72.64,74.055,
2025-08-15T05:00:25.484Z,12,GR86-022-13,21.5,-0.914,0.457,2.48,2.0,6781.0,55.575,57.18,
2025-08-15T05:00:25.528Z,12,GR86-022-13,23.4,-0.8160000000000001,0.464,2.48,2.0,,43.825,45.305,122.16
2025-08-15T05:00:25.570Z,12,GR86-022-13,20.700000000000003,-0.733,0.533,2.48,2.0,,37.235,38.53,
2025-08-15T05:00:25.613Z,12,GR86-022-13,12.3,-0.786,0.515,2.47,2.0,,34.565,35.465,
2025-08-15T05:00:25.657Z,12,GR86-022-13,10.0,-0.784,0.405,2.48,2.0,,40.06,40.365,
2025-08-15T05:00:25.699Z,12,GR86-022-13,11.0,-0.893,0.404,2.48,2.0,6256.0,48.36,48.525,
2025-08-15T05:00:25.742Z,12,GR86-022-13,12.3,-0.979,0.373,15.97,2.0,,55.865,55.775,116.59
2025-08-15T05:00:25.785Z,12,GR86-022-13,12.6,-1.088,0.356,59.15,1.0,,62.870000000000005,62.565000000000005,
2025-08-15T05:00:25.828Z,12,GR86-022-13,11.6,-1.253,0.315,12.15,1.0,,68.5,69.05,
2025-08-15T05:00:25.871Z,12,GR86-022-13,11.4,-1.272,0.328,4.4,1.0,,71.735,73.17,
2025-08-15T05:00:25.914Z,12,GR86-022-13,13.8,-1.3,0.293,3.9,1.0,6042.0,74.345,76.145,
2025-08-15T05:00:25.958Z,12,GR86-022-13,20.8,-1.332,0.451,3.42,1.0,,65.71000000000001,66.105,111.67
2025-08-15T05:00:26.001Z,12,GR86-022-13,24.6,-1.117,0.542,3.24,1.0,,51.96,53.335,
2025-08-15T05:00:26.044Z,12,GR86-022-13,24.700000000000003,-0.786,0.553,3.06,1.0,,41.765,42.545,
2025-08-15T05:00:26.088Z,12,GR86-022-13,24.700000000000003,-0.707,0.8140000000000001,2.92,1.0,,34.15,35.050000000000004,
2025-08-15T05:00:26.131Z,12,GR86-022-13,24.700000000000003,-0.898,0.658,2.79,1.0,6014.0,33.405,34.215,
2025-08-15T05:00:26.173Z,12,GR86-022-13,25.3,-0.883,0.578,2.69,1.0,,35.085,36.245,104.84
2025-08-15T05:00:26.217Z,12,GR86-022-13,32.2,-0.8160000000000001,0.648,2.57,1.0,,34.9,35.34,
2025-08-15T05:00:26.261Z,12,GR86-022-13,34.0,-0.796,0.605,2.52,1.0,,33.22,33.65,
2025-08-15T05:00:26.304Z,12,GR86-022-13,37.8,-0.6880000000000001,0.5750000000000001,2.5,1.0,,28.43,29.33,
2025-08-15T05:00:26.348Z,12,GR86-022-13,41.400000000000006,-0.61,0.612,2.5,1.0,6369.0,23.655,24.585,
2025-08-15T05:00:26.391Z,12,GR86-022-13,45.5,-0.522,0.631,2.48,1.0,,19.7,20.45,97.0
2025-08-15T05:00:26.434Z,12,GR86-022-13,49.0,-0.504,0.656,2.48,1.0,,16.495,17.365000000000002,
2025-08-15T05:00:26.479Z,12,GR86-022-13,50.900000000000006,-0.502,0.706,2.47,1.0,,15.245,16.055,
2025-08-15T05:00:26.521Z,12,GR86-022-13,52.5,-0.481,0.7030000000000001,2.47,1.0,,14.48,15.275,
2025-08-15T05:00:26.564Z,12,GR86-022-13,56.7,-0.445,0.75,2.47,1.0,6426.0,14.635,15.365,
2025-08-15T05:00:26.608Z,12,GR86-022-13,63.2,-0.459,0.764,2.48,1.0,,14.94,15.595,91.23
2025-08-15T05:00:26.650Z,12,GR86-022-13,69.2,-0.429,0.8320000000000001,2.47,1.0,,15.78,16.28,
2025-08-15T05:00:26.693Z,12,GR86-022-13,71.5,-0.492,0.9,2.47,1.0,,16.375,16.97,
2025-08-15T05:00:26.737Z,12,GR86-022-13,67.0,-0.442,0.901,2.47,1.0,,16.435,16.830000000000002,
2025-08-15T05:00:26.780Z,12,GR86-022-13,62.900000000000006,-0.492,0.896,2.47,1.0,6065.0,12.895,13.675,
2025-08-15T05:00:26.823Z,12,GR86-022-13,62.3,-0.353,0.978,2.47,1.0,,5.995,6.485,86.33
2025-08-15T05:00:26.867Z,12,GR86-022-13,63.5,-0.249,0.96,2.47,1.0,,0.0,1.955,
2025-08-15T05:00:26.909Z,12,GR86-022-13,65.2,-0.189,0.949,2.48,1.0,,0.0,0.0,
2025-08-15T05:00:26.952Z,12,GR86-022-13,67.0,-0.216,1.018,2.47,1.0,,0.0,0.0,
2025-08-15T05:00:26.995Z,12,GR86-022-13,68.8,-0.19,1.014,2.47,1.0,5853.0,0.0,0.0,
2025-08-15T05:00:27.038Z,12,GR86-022-13,72.10000000000001,-0.185,1.044,2.48,1.0,,0.0,0.0,83.05
2025-08-15T05:00:27.081Z,12,GR86-022-13,76.2,-0.166,1.05,2.48,1.0,,0.0,0.0,
2025-08-15T05:00:27.124Z,12,GR86-022-13,81.0,-0.157,1.071,2.48,1.0,,0.0,0.0,
2025-08-15T05:00:27.168Z,12,GR86-022-13,84.7,-0.152,1.06,2.47,1.0,,0.0,0.0,
2025-08-15T05:00:27.210Z,12,GR86-022-13,86.10000000000001,-0.166,1.06,2.48,1.0,5595.0,0.0,0.0,
2025-08-15T05:00:27.253Z,12,GR86-022-13,86.10000000000001,-0.181,1.04,2.47,1.0,,0.0,0.0,80.16
2025-08-15T05:00:27.299Z,12,GR86-022-13,86.2,-0.156,1.125,2.48,1.0,,0.0,0.0,
2025-08-15T05:00:27.341Z,12,GR86-022-13,87.2,-0.167,1.129,2.47,1.0,,0.0,0.0,
2025-08-15T05:00:27.384Z,12,GR86-022-13,88.0,-0.18,1.135,2.47,1.0,,0.0,0.0,
2025-08-15T05:00:27.428Z,12,GR86-022-13,88.10000000000001,-0.225,1.158,5.04,1.0,5564.0,0.0,0.0,
2025-08-15T05:00:27.470Z,12,GR86-022-13,87.0,-0.201,1.221,18.79,1.0,,0.0,0.0,78.52
2025-08-15T05:00:27.513Z,12,GR86-022-13,85.30000000000001,-0.192,1.246,20.33,1.0,,0.0,0.0,
2025-08-15T05:00:27.557Z,12,GR86-022-13,83.7,-0.127,1.198,22.86,1.0,,0.0,0.0,
2025-08-15T05:00:27.599Z,12,GR86-022-13,83.4,-0.067,1.07,26.59,1.0,,0.0,0.0,
2025-08-15T05:00:27.642Z,12,GR86-022-13,81.9,-0.097,1.285,32.0,1.0,5452.0,0.0,0.0,
2025-08-15T05:00:27.685Z,12,GR86-022-13,78.2,-0.046,1.219,33.28,1.0,,0.0,0.0,76.24
2025-08-15T05:00:27.728Z,12,GR86-022-13,73.9,0.165,1.01,36.17,1.0,,0.0,0.0,
2025-08-15T05:00:27.771Z,12,GR86-022-13,70.60000000000001,0.192,1.084,39.64,1.0,,0.0,0.0,
2025-08-15T05:00:27.814Z,12,GR86-022-13,68.8,0.275,0.996,40.97,1.0,,0.0,0.0,
2025-08-15T05:00:27.858Z,12,GR86-022-13,68.4,0.374,1.026,51.09,1.0,5350.0,0.0,0.0,
2025-08-15T05:00:27.901Z,12,GR86-022-13,68.0,0.298,0.934,50.3,1.0,,0.0,0.0,75.15
2025-08-15T05:00:27.944Z,12,GR86-022-13,67.9,0.164,0.993,51.33,1.0,,0.0,0.0,
2025-08-15T05:00:27.988Z,12,GR86-022-13,67.7,0.221,0.952,53.02,1.0,,0.0,0.0,
2025-08-15T05:00:28.031Z,12,GR86-022-13,68.0,0.491,0.919,50.08,1.0,,0.0,0.0,
2025-08-15T05:00:28.074Z,12,GR86-022-13,71.3,0.42,0.938,52.04,1.0,5646.0,0.0,0.0,
2025-08-15T05:00:28.118Z,12,GR86-022-13,80.2,0.277,0.973,60.11,1.0,,0.0,0.0,74.46000000000001
2025-08-15T05:00:28.161Z,12,GR86-022-13,82.7,0.299,1.11,91.39,1.0,,0.0,0.0,
2025-08-15T05:00:28.204Z,12,GR86-022-13,79.0,0.518,0.965,99.61,1.0,,0.0,0.0,
2025-08-15T05:00:28.248Z,12,GR86-022-13,68.7,0.401,1.008,100.1,1.0,,0.0,0.0,
2025-08-15T05:00:28.291Z,12,GR86-022-13,58.7,0.3,0.987,100.1,1.0,6132.0,0.0,0.0,
2025-08-15T05:00:28.335Z,12,GR86-022-13,51.6,0.296,1.078,100.08,1.0,,0.0,0.0,75.57000000000001
2025-08-15T05:00:28.379Z,12,GR86-022-13,49.400000000000006,0.538,1.092,100.13,1.0,,0.0,0.0,
2025-08-15T05:00:28.421Z,12,GR86-022-13,49.5,0.311,0.926,100.12,1.0,,0.0,0.0,
2025-08-15T05:00:28.464Z,12,GR86-022-13,50.0,0.239,1.312,100.12,1.0,,0.0,0.0,
2025-08-15T05:00:28.508Z,12,GR86-022-13,50.2,0.641,1.096,100.09,1.0,6160.0,0.0,0.0,
2025-08-15T05:00:28.550Z,12,GR86-022-13,47.900000000000006,0.444,1.142,100.11,1.0,,0.0,0.0,77.81
2025-08-15T05:00:28.593Z,12,GR86-022-13,41.7,0.674,1.073,100.1,1.0,,0.0,0.0,
2025-08-15T05:00:28.637Z,12,GR86-022-13,35.6,0.434,1.062,100.11,1.0,,0.0,0.0,
2025-08-15T05:00:28.681Z,12,GR86-022-13,38.2,0.351,0.942,100.11,1.0,,0.0,0.0,
2025-08-15T05:00:28.723Z,12,GR86-022-13,44.1,0.317,1.05,100.11,1.0,6652.0,0.0,0.0,
2025-08-15T05:00:28.767Z,12,GR86-022-13,48.1,0.365,1.04,100.1,1.0,,0.0,0.0,79.97
2025-08-15T05:00:28.809Z,12,GR86-022-13,48.3,0.38,1.037,100.1,1.0,,0.0,0.0,
2025-08-15T05:00:28.853Z,12,GR86-022-13,48.2,0.424,1.075,100.09,1.0,,0.0,0.0,
2025-08-15T05:00:28.895Z,12,GR86-022-13,48.900000000000006,0.436,1.043,100.09,1.0,,0.0,0.0,
2025-08-15T05:00:28.938Z,12,GR86-022-13,50.1,0.373,0.985,100.1,1.0,6323.0,0.0,0.0,
2025-08-15T05:00:28.981Z,12,GR86-022-13,48.7,0.365,0.99,100.09,1.0,,0.0,0.0,82.26
2025-08-15T05:00:29.024Z,12,GR86-022-13,44.6,0.345,0.973,100.06,1.0,,0.0,0.0,
2025-08-15T05:00:29.068Z,12,GR86-022-13,42.900000000000006,0.312,0.973,100.09,1.0,,0.0,0.0,
2025-08-15T05:00:29.110Z,12,GR86-022-13,44.8,0.366,0.973,100.1,1.0,,0.0,0.0,
2025-08-15T05:00:29.153Z,12,GR86-022-13,48.7,0.361,0.983,100.08,1.0,6584.0,0.0,0.0,
2025-08-15T05:00:29.197Z,12,GR86-022-13,52.7,0.391,1.004,100.1,1.0,,0.0,0.0,84.19
2025-08-15T05:00:29.239Z,12,GR86-022-13,52.900000000000006,0.4,0.999,100.08,1.0,,0.0,0.0,
2025-08-15T05:00:29.282Z,12,GR86-022-13,52.900000000000006,0.38,0.983,100.06,1.0,,0.0,0.0,
2025-08-15T05:00:29.325Z,12,GR86-022-13,52.900000000000006,0.353,0.986,100.07,1.0,,0.0,0.0,
2025-08-15T05:00:29.368Z,12,GR86-022-13,52.900000000000006,0.371,0.971,100.07,1.0,6702.0,0.0,0.0,
2025-08-15T05:00:29.411Z,12,GR86-022-13,52.900000000000006,0.345,0.959,100.07,1.0,,0.0,0.0,86.34
2025-08-15T05:00:29.454Z,12,GR86-022-13,52.900000000000006,0.383,0.896,100.06,1.0,,0.0,0.0,
2025-08-15T05:00:29.498Z,12,GR86-022-13,52.900000000000006,0.37,0.926,100.06,1.0,,0.0,0.0,
2025-08-15T05:00:29.541Z,12,GR86-022-13,51.6,0.364,0.935,100.1,1.0,,0.0,0.0,
2025-08-15T05:00:29.584Z,12,GR86-022-13,49.400000000000006,0.378,0.734,100.06,1.0,6827.0,0.0,0.0,
2025-08-15T05:00:29.628Z,12,GR86-022-13,45.900000000000006,0.39,0.706,100.06,1.0,,0.0,0.0,88.67
2025-08-15T05:00:29.670Z,12,GR86-022-13,41.7,0.351,0.866,100.04,1.0,,0.0,0.0,
2025-08-15T05:00:29.713Z,12,GR86-022-13,37.1,0.432,0.757,100.06,1.0,,0.0,0.0,
2025-08-15T05:00:29.757Z,12,GR86-022-13,29.8,0.272,0.675,100.03,1.0,,0.0,0.0,
2025-08-15T05:00:29.799Z,12,GR86-022-13,26.0,0.369,0.756,100.06,1.0,6980.0,0.0,0.0,
2025-08-15T05:00:29.842Z,12,GR86-022-13,24.700000000000003,0.413,0.606,100.07,1.0,,0.0,0.0,90.88
2025-08-15T05:00:29.887Z,12,GR86-022-13,24.5,0.397,0.653,100.03,1.0,,0.0,0.0,
2025-08-15T05:00:29.929Z,12,GR86-022-13,24.6,0.27,0.397,100.03,1.0,,0.0,0.0,
2025-08-15T05:00:29.972Z,12,GR86-022-13,24.5,-0.004,0.401,100.03,2.0,,0.0,0.0,
2025-08-15T05:00:30.015Z,12,GR86-022-13,21.3,-0.059,0.669,100.06,2.0,7132.0,0.0,0.0,
2025-08-15T05:00:30.058Z,12,GR86-022-13,15.9,0.22,0.312,100.06,2.0,,0.0,0.0,93.24
2025-08-15T05:00:30.101Z,12,GR86-022-13,17.0,0.051,0.491,100.06,2.0,,0.0,0.0,
2025-08-15T05:00:30.144Z,12,GR86-022-13,21.4,0.467,0.384,100.07,2.0,,0.0,0.0,
2025-08-15T05:00:30.188Z,12,GR86-022-13,27.1,0.036,0.376,100.04,2.0,,0.0,0.0,
2025-08-15T05:00:30.230Z,12,GR86-022-13,31.9,0.237,0.736,100.03,2.0,7259.0,0.0,0.0,
2025-08-15T05:00:30.273Z,12,GR86-022-13,34.7,0.411,0.792,100.04,2.0,,0.0,0.0,94.58
2025-08-15T05:00:30.317Z,12,GR86-022-13,34.0,-0.091,0.183,100.06,2.0,,0.0,0.0,
2025-08-15T05:00:30.359Z,12,GR86-022-13,28.3,-0.039,0.399,100.03,2.0,,0.0,0.0,
2025-08-15T05:00:30.402Z,12,GR86-022-13,15.6,0.156,0.5630000000000001,100.03,2.0,,0.0,0.0,
2025-08-15T05:00:30.445Z,12,GR86-022-13,4.7,0.492,1.07,100.03,2.0,6298.0,0.0,0.0,
2025-08-15T05:00:30.488Z,12,GR86-022-13,1.5,0.96,0.807,100.03,2.0,,0.0,0.0,98.57
2025-08-15T05:00:30.532Z,12,GR86-022-13,4.5,0.843,0.625,100.03,2.0,,0.0,0.0,
2025-08-15T05:00:30.574Z,12,GR86-022-13,10.6,0.547,0.943,100.04,2.0,,0.0,0.0,
2025-08-15T05:00:30.618Z,12,GR86-022-13,5.9,0.416,0.603,100.04,2.0,,0.0,0.0,
2025-08-15T05:00:30.661Z,12,GR86-022-13,-5.9,0.5670000000000001,0.684,100.05,2.0,5836.0,0.0,0.0,
2025-08-15T05:00:30.704Z,12,GR86-022-13,-16.400000000000002,0.714,0.849,100.0,2.0,,0.0,0.0,100.29
2025-08-15T05:00:30.748Z,12,GR86-022-13,-20.0,0.705,0.533,100.0,2.0,,0.0,0.0,
2025-08-15T05:00:30.791Z,12,GR86-022-13,-11.8,0.785,0.603,100.0,2.0,,0.0,0.0,
2025-08-15T05:00:30.834Z,12,GR86-022-13,3.1,0.5680000000000001,0.438,100.01,2.0,,0.0,0.0,
2025-08-15T05:00:30.878Z,12,GR86-022-13,17.900000000000002,0.229,0.302,100.03,2.0,6165.0,0.0,0.0,
2025-08-15T05:00:30.921Z,12,GR86-022-13,17.7,0.288,0.243,100.04,2.0,,0.0,0.0,101.94
2025-08-15T05:00:30.964Z,12,GR86-022-13,10.4,0.486,0.298,99.98,2.0,,0.0,0.0,
2025-08-15T05:00:31.008Z,12,GR86-022-13,2.5,0.624,0.23,100.01,2.0,,0.0,0.0,
2025-08-15T05:00:31.050Z,12,GR86-022-13,-2.1,0.61,-0.007,100.01,2.0,,0.0,0.0,
2025-08-15T05:00:31.093Z,12,GR86-022-13,-3.1,0.668,-0.091,100.0,2.0,6051.0,0.0,0.0,
2025-08-15T05:00:31.137Z,12,GR86-022-13,-1.8,0.253,-0.011,100.0,2.0,,0.0,0.0,103.86
2025-08-15T05:00:31.181Z,12,GR86-022-13,-1.3,0.16,-0.043,99.96,2.0,,0.0,0.0,
2025-08-15T05:00:31.224Z,12,GR86-022-13,-1.1,0.266,-0.145,100.01,2.0,,0.0,0.0,
2025-08-15T05:00:31.268Z,12,GR86-022-13,-1.1,0.282,-0.176,100.0,2.0,,0.0,0.0,
2025-08-15T05:00:31.310Z,12,GR86-022-13,-1.1,0.36,-0.245,100.01,2.0,6365.0,0.0,0.0,
2025-08-15T05:00:31.397Z,12,GR86-022-13,-0.8,0.383,-0.3,100.01,2.0,,0.0,0.0,105.31
2025-08-15T05:00:31.441Z,12,GR86-022-13,2.2,0.204,-0.326,99.99,2.0,,0.0,0.0,
2025-08-15T05:00:31.484Z,12,GR86-022-13,2.2,0.247,-0.249,100.01,2.0,,0.0,0.0,
2025-08-15T05:00:31.528Z,12,GR86-022-13,2.1,0.296,-0.266,99.97,2.0,6307.0,0.0,0.0,
2025-08-15T05:00:31.570Z,12,GR86-022-13,2.0,0.243,-0.207,100.03,2.0,,0.0,0.0,107.53
2025-08-15T05:00:31.613Z,12,GR86-022-13,1.7000000000000002,0.293,-0.202,100.0,2.0,,0.0,0.0,
2025-08-15T05:00:31.657Z,12,GR86-022-13,-0.1,0.342,-0.2,100.0,2.0,,0.0,0.0,
2025-08-15T05:00:31.699Z,12,GR86-022-13,-1.0,0.344,-0.224,99.99,2.0,,0.0,0.0,
2025-08-15T05:00:31.742Z,12,GR86-022-13,-1.1,0.311,-0.19,100.0,2.0,6390.0,0.0,0.0,
2025-08-15T05:00:31.785Z,12,GR86-022-13,-0.7000000000000001,0.339,-0.234,99.98,2.0,,0.0,0.0,109.1
2025-08-15T05:00:31.828Z,12,GR86-022-13,0.5,0.307,-0.192,100.01,2.0,,0.0,0.0,
2025-08-15T05:00:31.871Z,12,GR86-022-13,2.1,0.334,-0.169,100.0,2.0,,0.0,0.0,
2025-08-15T05:00:31.915Z,12,GR86-022-13,3.9,0.311,-0.191,99.98,2.0,,0.0,0.0,
2025-08-15T05:00:31.958Z,12,GR86-022-13,6.6000000000000005,0.307,-0.118,100.02,2.0,6435.0,0.0,0.0,
2025-08-15T05:00:32.001Z,12,GR86-022-13,7.1000000000000005,0.314,-0.066,99.99,2.0,,0.0,0.0,110.83
2025-08-15T05:00:32.044Z,12,GR86-022-13,7.1000000000000005,0.332,-0.046,99.98,2.0,,0.0,0.0,
2025-08-15T05:00:32.088Z,12,GR86-022-13,6.7,0.3,-0.021,100.0,2.0,,0.0,0.0,
2025-08-15T05:00:32.130Z,12,GR86-022-13,6.5,0.301,0.014,100.0,2.0,,0.0,0.0,
2025-08-15T05:00:32.173Z,12,GR86-022-13,6.5,0.306,0.018,100.0,2.0,6531.0,0.0,0.0,
2025-08-15T05:00:32.217Z,12,GR86-022-13,6.5,0.324,0.033,99.98,2.0,,0.0,0.0,112.67
2025-08-15T05:00:32.259Z,12,GR86-022-13,6.1000000000000005,0.302,0.045,100.02,2.0,,0.0,0.0,
2025-08-15T05:00:32.302Z,12,GR86-022-13,5.300000000000001,0.328,0.048,100.02,2.0,,0.0,0.0,
2025-08-15T05:00:32.345Z,12,GR86-022-13,4.1000000000000005,0.306,0.0,100.0,2.0,,0.0,0.0,
2025-08-15T05:00:32.388Z,12,GR86-022-13,3.0,0.286,0.011,99.98,2.0,6612.0,0.0,0.0,
2025-08-15T05:00:32.431Z,12,GR86-022-13,2.7,0.315,-0.009,99.99,2.0,,0.0,0.0,114.39
2025-08-15T05:00:32.475Z,12,GR86-022-13,2.7,0.321,-0.044,100.03,2.0,,0.0,0.0,
2025-08-15T05:00:32.518Z,12,GR86-022-13,2.7,0.321,-0.068,99.98,2.0,,0.0,0.0,
2025-08-15T05:00:32.561Z,12,GR86-022-13,3.2,0.283,-0.032,100.01,2.0,,0.0,0.0,
2025-08-15T05:00:32.604Z,12,GR86-022-13,3.8,0.312,-0.062,100.03,2.0,6713.0,0.0,0.0,
2025-08-15T05:00:32.648Z,12,GR86-022-13,4.1000000000000005,0.315,-0.083,100.01,2.0,,0.0,0.0,115.96
2025-08-15T05:00:32.691Z,12,GR86-022-13,4.4,0.292,-0.028,100.01,2.0,,0.0,0.0,
2025-08-15T05:00:32.779Z,12,GR86-022-13,5.2,0.324,-0.009,100.0,2.0,,0.0,0.0,
2025-08-15T05:00:32.821Z,12,GR86-022-13,4.7,0.319,-0.038,99.96,2.0,6813.0,0.0,0.0,
2025-08-15T05:00:32.908Z,12,GR86-022-13,5.4,0.289,0.005,100.03,2.0,,0.0,0.0,117.56
2025-08-15T05:00:32.950Z,12,GR86-022-13,5.4,0.317,-0.004,100.02,2.0,,0.0,0.0,
2025-08-15T05:00:32.993Z,12,GR86-022-13,5.4,0.298,0.029,100.03,2.0,,0.0,0.0,
2025-08-15T05:00:33.037Z,12,GR86-022-13,5.4,0.284,0.047,99.99,2.0,6899.0,0.0,0.0,
2025-08-15T05:00:33.080Z,12,GR86-022-13,5.5,0.317,0.022,99.99,2.0,,0.0,0.0,120.64
2025-08-15T05:00:33.123Z,12,GR86-022-13,5.7,0.314,0.017,99.99,2.0,,0.0,0.0,
2025-08-15T05:00:33.167Z,12,GR86-022-13,5.7,0.282,0.046,100.0,2.0,,0.0,0.0,
2025-08-15T05:00:33.209Z,12,GR86-022-13,5.7,0.329,0.033,100.03,2.0,,0.0,0.0,
2025-08-15T05:00:33.252Z,12,GR86-022-13,5.7,0.307,0.008,99.99,2.0,6975.0,0.0,0.0,
2025-08-15T05:00:33.295Z,12,GR86-022-13,5.7,0.269,0.04,99.98,2.0,,0.0,0.0,122.02
2025-08-15T05:00:33.338Z,12,GR86-022-13,5.7,0.277,0.033,100.01,2.0,,0.0,0.0,
2025-08-15T05:00:33.381Z,12,GR86-022-13,5.7,0.308,0.036,99.99,2.0,,0.0,0.0,
2025-08-15T05:00:33.424Z,12,GR86-022-13,5.6000000000000005,0.317,0.007,99.98,2.0,,0.0,0.0,
2025-08-15T05:00:33.468Z,12,GR86-022-13,5.5,0.282,0.006,100.0,2.0,7053.0,0.0,0.0,
2025-08-15T05:00:33.510Z,12,GR86-022-13,5.1000000000000005,0.29,0.024,100.02,2.0,,0.0,0.0,123.33
2025-08-15T05:00:33.553Z,12,GR86-022-13,4.7,0.313,0.009,100.02,2.0,,0.0,0.0,
2025-08-15T05:00:33.597Z,12,GR86-022-13,4.6000000000000005,0.313,-0.013,100.03,2.0,,0.0,0.0,
2025-08-15T05:00:33.641Z,12,GR86-022-13,4.6000000000000005,0.282,-0.009,100.0,2.0,,0.0,0.0,
2025-08-15T05:00:33.684Z,12,GR86-022-13,4.6000000000000005,0.272,-0.01,99.99,2.0,7209.0,0.0,0.0,
2025-08-15T05:00:33.728Z,12,GR86-022-13,4.6000000000000005,0.301,-0.036,100.0,2.0,,0.0,0.0,124.59
2025-08-15T05:00:33.770Z,12,GR86-022-13,4.6000000000000005,0.243,-0.051,99.99,2.0,,0.0,0.0,
2025-08-15T05:00:33.813Z,12,GR86-022-13,4.4,-0.155,-0.014,99.97,3.0,,0.0,0.0,
2025-08-15T05:00:33.857Z,12,GR86-022-13,4.3,0.737,-0.038,100.0,3.0,,0.0,0.0,
2025-08-15T05:00:33.899Z,12,GR86-022-13,4.3,0.426,-0.097,99.99,3.0,7276.0,0.0,0.0,
2025-08-15T05:00:33.943Z,12,GR86-022-13,4.3,0.334,-0.035,99.96,3.0,,0.0,0.0,125.84
2025-08-15T05:00:33.987Z,12,GR86-022-13,4.3,0.062,-0.035,99.97,3.0,,0.0,0.0,
2025-08-15T05:00:34.030Z,12,GR86-022-13,4.3,0.151,-0.093,99.98,3.0,,0.0,0.0,
2025-08-15T05:00:34.073Z,12,GR86-022-13,4.3,0.335,-0.024,99.98,3.0,,0.0,0.0,
2025-08-15T05:00:34.117Z,12,GR86-022-13,4.5,0.32,-0.086,99.98,3.0,6368.0,0.0,0.0,
2025-08-15T05:00:34.159Z,12,GR86-022-13,4.800000000000001,0.239,-0.056,99.99,3.0,,0.0,0.0,126.93
2025-08-15T05:00:34.202Z,12,GR86-022-13,4.800000000000001,0.18,-0.011,99.99,3.0,,6.625,6.835,
2025-08-15T05:00:34.245Z,12,GR86-022-13,4.800000000000001,0.207,-0.028,100.0,3.0,,5.9350000000000005,6.21,
2025-08-15T05:00:34.288Z,12,GR86-022-13,4.800000000000001,0.26,-0.03,99.99,3.0,,4.24,4.87,
2025-08-15T05:00:34.331Z,12,GR86-022-13,4.800000000000001,0.203,-0.001,99.99,3.0,6092.0,3.815,4.335,
2025-08-15T05:00:34.375Z,12,GR86-022-13,4.800000000000001,0.153,0.004,100.0,3.0,,2.135,2.58,128.13
2025-08-15T05:00:34.418Z,12,GR86-022-13,4.800000000000001,0.215,0.009,100.01,3.0,,3.435,3.785,
2025-08-15T05:00:34.461Z,12,GR86-022-13,4.800000000000001,0.243,-0.013,99.99,3.0,,4.335,4.595,
2025-08-15T05:00:34.504Z,12,GR86-022-13,4.800000000000001,0.241,-0.034,100.0,3.0,,3.19,3.645,
2025-08-15T05:00:34.548Z,12,GR86-022-13,4.800000000000001,0.191,-0.016,100.01,3.0,6053.0,0.0,1.955,
2025-08-15T05:00:34.591Z,12,GR86-022-13,4.800000000000001,0.22,-0.006,99.99,3.0,,0.0,0.0,129.07
2025-08-15T05:00:34.635Z,12,GR86-022-13,4.800000000000001,0.282,-0.04,99.98,3.0,,0.0,0.0,
2025-08-15T05:00:34.679Z,12,GR86-022-13,4.800000000000001,0.281,-0.029,99.97,3.0,,0.0,0.0,
2025-08-15T05:00:34.721Z,12,GR86-022-13,4.800000000000001,0.261,-0.03,100.0,3.0,,0.0,0.0,
2025-08-15T05:00:34.764Z,12,GR86-022-13,5.4,0.214,-0.011,100.01,3.0,6079.0,0.0,0.0,
2025-08-15T05:00:34.808Z,12,GR86-022-13,5.800000000000001,0.247,-0.002,100.03,3.0,,0.0,0.0,129.64
2025-08-15T05:00:34.850Z,12,GR86-022-13,6.2,0.289,-0.018,100.0,3.0,,0.0,0.0,
2025-08-15T05:00:34.893Z,12,GR86-022-13,6.5,0.234,-0.003,100.0,3.0,,0.0,0.0,
2025-08-15T05:00:34.937Z,12,GR86-022-13,7.0,0.258,0.002,100.01,3.0,,0.0,0.0,
2025-08-15T05:00:34.979Z,12,GR86-022-13,7.0,0.211,0.039,100.02,3.0,6111.0,0.0,0.0,
2025-08-15T05:00:35.022Z,12,GR86-022-13,7.0,0.245,0.026,99.97,3.0,,0.0,0.0,130.4
2025-08-15T05:00:35.065Z,12,GR86-022-13,6.4,0.275,0.024,99.99,3.0,,0.0,0.0,
2025-08-15T05:00:35.109Z,12,GR86-022-13,6.0,0.223,0.036,100.01,3.0,,3.28,3.465,
2025-08-15T05:00:35.151Z,12,GR86-022-13,5.800000000000001,0.193,0.046,96.56,3.0,,8.805,8.85,
2025-08-15T05:00:35.194Z,12,GR86-022-13,5.800000000000001,0.145,0.035,35.4,3.0,6154.0,16.375,16.465,
2025-08-15T05:00:35.238Z,12,GR86-022-13,7.1000000000000005,-0.043,0.031,3.0500000000000003,3.0,,26.72,26.63,131.35
2025-08-15T05:00:35.281Z,12,GR86-022-13,8.3,-0.23,0.022,2.98,3.0,,36.305,35.985,
2025-08-15T05:00:35.324Z,12,GR86-022-13,8.5,-0.704,0.07,2.95,3.0,,41.935,41.585,
2025-08-15T05:00:35.368Z,12,GR86-022-13,8.700000000000001,-0.5740000000000001,0.057,2.91,3.0,,42.515,42.605,
2025-08-15T05:00:35.410Z,12,GR86-022-13,9.5,-0.746,0.027,2.9,3.0,6208.0,42.515,42.575,
2025-08-15T05:00:35.453Z,12,GR86-022-13,11.0,-0.684,0.071,2.86,3.0,,42.455,42.455,132.32
2025-08-15T05:00:35.497Z,12,GR86-022-13,15.9,-0.794,0.053,3.04,3.0,,46.77,46.27,
2025-08-15T05:00:35.539Z,12,GR86-022-13,20.3,-0.928,0.153,41.69,2.0,,51.685,51.15,
2025-08-15T05:00:35.582Z,12,GR86-022-13,24.4,-0.929,0.212,42.53,2.0,,58.705,58.125,
2025-08-15T05:00:35.628Z,12,GR86-022-13,25.5,-1.033,0.208,5.7700000000000005,2.0,6063.0,65.895,66.64,
2025-08-15T05:00:35.670Z,12,GR86-022-13,24.1,-1.033,0.344,4.0200000000000005,2.0,,72.7,74.44,132.62
2025-08-15T05:00:35.713Z,12,GR86-022-13,25.0,-1.067,0.335,3.66,2.0,,74.025,74.68,
2025-08-15T05:00:35.757Z,12,GR86-022-13,34.1,-1.03,0.488,3.35,2.0,,74.895,76.36,
2025-08-15T05:00:35.799Z,12,GR86-022-13,39.6,-1.01,0.503,3.22,2.0,,70.93,72.06,
2025-08-15T05:00:35.842Z,12,GR86-022-13,41.1,-0.953,0.591,3.09,2.0,5493.0,66.99,67.265,
2025-08-15T05:00:35.885Z,12,GR86-022-13,42.2,-0.877,0.641,2.96,2.0,,68.15,69.16,121.89
2025-08-15T05:00:35.928Z,12,GR86-022-13,45.900000000000006,-0.81,0.6880000000000001,2.89,2.0,,65.33,65.955,
2025-08-15T05:00:35.971Z,12,GR86-022-13,50.3,-0.779,0.759,2.81,2.0,,55.27,56.43,
2025-08-15T05:00:36.014Z,12,GR86-022-13,51.900000000000006,-0.663,0.872,2.75,2.0,,49.73,50.28,
2025-08-15T05:00:36.058Z,12,GR86-022-13,55.5,-0.615,0.765,2.66,2.0,5523.0,45.87,47.155,
2025-08-15T05:00:36.100Z,12,GR86-022-13,58.3,-0.796,0.87,2.61,2.0,,43.825,44.775,115.22
2025-08-15T05:00:36.143Z,12,GR86-022-13,58.8,-0.5740000000000001,0.945,2.58,2.0,,39.28,39.905,
2025-08-15T05:00:36.187Z,12,GR86-022-13,58.7,-0.717,0.8200000000000001,2.57,2.0,,34.395,34.685,
2025-08-15T05:00:36.229Z,12,GR86-022-13,57.6,-0.558,0.874,2.5500000000000003,2.0,,33.405,34.0,
2025-08-15T05:00:36.272Z,12,GR86-022-13,55.3,-0.658,0.918,2.5500000000000003,2.0,5909.0,32.445,33.25,
2025-08-15T05:00:36.315Z,12,GR86-022-13,53.8,-0.5660000000000001,0.946,2.54,2.0,,30.075,31.055,107.93
2025-08-15T05:00:36.358Z,12,GR86-022-13,54.0,-0.5650000000000001,0.921,2.52,2.0,,24.89,25.18,
2025-08-15T05:00:36.401Z,12,GR86-022-13,54.0,-0.549,0.934,2.54,2.0,,22.02,22.875,
2025-08-15T05:00:36.444Z,12,GR86-022-13,52.1,-0.488,0.999,2.53,2.0,,18.68,19.245,
2025-08-15T05:00:36.488Z,12,GR86-022-13,50.3,-0.386,1.049,2.53,2.0,5501.0,15.155,15.84,
2025-08-15T05:00:36.530Z,12,GR86-022-13,48.400000000000006,-0.472,0.981,2.53,2.0,,9.25,9.72,104.2
2025-08-15T05:00:36.573Z,12,GR86-022-13,45.900000000000006,-0.255,1.04,2.53,2.0,,3.22,3.645,
2025-08-15T05:00:36.617Z,12,GR86-022-13,45.2,-0.169,1.055,2.53,2.0,,0.0,0.0,
2025-08-15T05:00:36.659Z,12,GR86-022-13,45.2,-0.193,1.044,2.52,2.0,,0.0,0.0,
2025-08-15T05:00:36.702Z,12,GR86-022-13,45.2,-0.14,1.093,2.53,2.0,5263.0,0.0,0.0,
2025-08-15T05:00:36.745Z,12,GR86-022-13,45.2,-0.118,1.058,2.51,2.0,,0.0,0.0,100.52
2025-08-15T05:00:36.788Z,12,GR86-022-13,45.2,-0.114,1.13,2.51,2.0,,0.0,0.0,
2025-08-15T05:00:36.831Z,12,GR86-022-13,44.6,-0.117,1.1,2.5,2.0,,0.0,0.0,
2025-08-15T05:00:36.874Z,12,GR86-022-13,43.8,-0.134,1.139,2.5,2.0,,0.0,0.0,
2025-08-15T05:00:36.918Z,12,GR86-022-13,44.3,-0.124,1.132,2.51,2.0,5313.0,0.0,0.0,
2025-08-15T05:00:36.961Z,12,GR86-022-13,47.8,-0.134,1.094,2.51,2.0,,0.0,0.0,98.01
2025-08-15T05:00:37.004Z,12,GR86-022-13,55.3,-0.133,1.12,2.52,2.0,,0.0,0.0,
2025-08-15T05:00:37.048Z,12,GR86-022-13,66.9,-0.157,1.104,2.51,2.0,,0.0,0.0,
2025-08-15T05:00:37.091Z,12,GR86-022-13,78.4,-0.146,1.173,2.5,2.0,,0.0,0.0,
2025-08-15T05:00:37.134Z,12,GR86-022-13,83.4,-0.158,1.171,2.53,2.0,5265.0,0.0,0.0,
2025-08-15T05:00:37.179Z,12,GR86-022-13,80.9,-0.164,1.228,18.15,2.0,,0.0,0.0,96.38
2025-08-15T05:00:37.221Z,12,GR86-022-13,79.0,-0.147,1.187,19.77,2.0,,0.0,0.0,
2025-08-15T05:00:37.264Z,12,GR86-022-13,78.9,-0.154,1.183,21.71,2.0,,0.0,0.0,
2025-08-15T05:00:37.308Z,12,GR86-022-13,78.80000000000001,-0.073,1.201,25.89,2.0,,0.0,0.0,
2025-08-15T05:00:37.350Z,12,GR86-022-13,77.10000000000001,-0.089,1.169,34.4,2.0,5220.0,0.0,0.0,
2025-08-15T05:00:37.393Z,12,GR86-022-13,74.8,-0.058,1.158,43.02,2.0,,0.0,0.0,94.91
2025-08-15T05:00:37.437Z,12,GR86-022-13,71.2,0.077,1.123,52.14,2.0,,0.0,0.0,
2025-08-15T05:00:37.481Z,12,GR86-022-13,69.5,0.275,1.063,51.35,2.0,,0.0,0.0,
2025-08-15T05:00:37.524Z,12,GR86-022-13,68.2,0.294,1.242,55.21,2.0,,0.0,0.0,
2025-08-15T05:00:37.568Z,12,GR86-022-13,66.3,0.315,1.312,58.02,2.0,5193.0,0.0,0.0,
2025-08-15T05:00:37.610Z,12,GR86-022-13,64.0,0.3,1.086,60.45,2.0,,0.0,0.0,93.47
2025-08-15T05:00:37.653Z,12,GR86-022-13,61.7,0.04,1.096,69.08,2.0,,0.0,0.0,
2025-08-15T05:00:37.698Z,12,GR86-022-13,60.1,0.122,1.127,75.85000000000001,2.0,,0.0,0.0,
2025-08-15T05:00:37.741Z,12,GR86-022-13,59.7,-0.034,1.21,98.49,2.0,,0.0,0.0,
2025-08-15T05:00:37.784Z,12,GR86-022-13,59.5,0.427,1.185,100.13,2.0,5558.0,0.0,0.0,
2025-08-15T05:00:37.828Z,12,GR86-022-13,58.400000000000006,0.522,1.201,100.14,2.0,,0.0,0.0,92.5
2025-08-15T05:00:37.870Z,12,GR86-022-13,55.6,0.145,1.106,100.12,2.0,,0.0,0.0,
2025-08-15T05:00:37.913Z,12,GR86-022-13,50.900000000000006,0.003,1.125,100.12,2.0,,0.0,0.0,
2025-08-15T05:00:37.957Z,12,GR86-022-13,42.1,0.184,1.086,100.13,2.0,,0.0,0.0,
2025-08-15T05:00:37.999Z,12,GR86-022-13,37.2,0.065,0.97,100.12,2.0,5531.0,0.0,0.0,
2025-08-15T05:00:38.042Z,12,GR86-022-13,35.7,0.326,1.014,100.13,2.0,,0.0,0.0,93.13
2025-08-15T05:00:38.087Z,12,GR86-022-13,37.9,0.685,1.116,100.12,2.0,,0.0,0.0,
2025-08-15T05:00:38.129Z,12,GR86-022-13,43.400000000000006,0.617,0.889,100.13,2.0,,0.0,0.0,
2025-08-15T05:00:38.172Z,12,GR86-022-13,48.2,0.142,1.077,100.14,2.0,,0.0,0.0,
2025-08-15T05:00:38.215Z,12,GR86-022-13,52.3,-0.064,1.166,100.13,2.0,5640.0,0.0,0.0,
2025-08-15T05:00:38.258Z,12,GR86-022-13,54.7,0.002,1.283,100.13,2.0,,0.0,0.0,94.35
2025-08-15T05:00:38.301Z,12,GR86-022-13,53.7,0.304,1.344,100.11,2.0,,0.0,0.0,
2025-08-15T05:00:38.344Z,12,GR86-022-13,51.0,0.393,1.27,100.1,2.0,,0.0,0.0,
2025-08-15T05:00:38.388Z,12,GR86-022-13,47.3,0.35,1.166,100.1,2.0,,0.0,0.0,
2025-08-15T05:00:38.430Z,12,GR86-022-13,45.3,0.272,1.208,100.1,2.0,6054.0,0.0,0.0,
2025-08-15T05:00:38.473Z,12,GR86-022-13,46.6,0.288,1.109,100.09,2.0,,0.0,0.0,95.62
2025-08-15T05:00:38.517Z,12,GR86-022-13,51.5,0.281,1.016,100.09,2.0,,0.0,0.0,
2025-08-15T05:00:38.559Z,12,GR86-022-13,51.900000000000006,0.269,1.105,100.1,2.0,,0.0,0.0,
2025-08-15T05:00:38.602Z,12,GR86-022-13,51.900000000000006,0.3,1.054,100.1,2.0,,0.0,0.0,
2025-08-15T05:00:38.648Z,12,GR86-022-13,51.900000000000006,0.296,1.087,100.09,2.0,5916.0,0.0,0.0,
2025-08-15T05:00:38.690Z,12,GR86-022-13,53.400000000000006,0.306,1.038,100.09,2.0,,0.0,0.0,99.09
2025-08-15T05:00:38.733Z,12,GR86-022-13,56.6,0.284,1.041,100.1,2.0,,0.0,0.0,
2025-08-15T05:00:38.778Z,12,GR86-022-13,60.7,0.245,1.053,100.08,2.0,,0.0,0.0,
2025-08-15T05:00:38.821Z,12,GR86-022-13,60.7,0.273,1.088,100.08,2.0,,0.0,0.0,
2025-08-15T05:00:38.864Z,12,GR86-022-13,58.900000000000006,0.264,1.095,100.06,2.0,5836.0,0.0,0.0,
2025-08-15T05:00:38.908Z,12,GR86-022-13,54.8,0.275,1.075,100.06,2.0,,0.0,0.0,100.42
2025-08-15T05:00:38.950Z,12,GR86-022-13,48.5,0.265,1.045,100.06,2.0,,0.0,0.0,
2025-08-15T05:00:38.993Z,12,GR86-022-13,42.3,0.261,1.065,100.05,2.0,,0.0,0.0,
2025-08-15T05:00:39.037Z,12,GR86-022-13,39.400000000000006,0.317,1.083,100.06,2.0,,0.0,0.0,
2025-08-15T05:00:39.079Z,12,GR86-022-13,41.8,0.319,1.083,100.06,2.0,6069.0,0.0,0.0,
2025-08-15T05:00:39.122Z,12,GR86-022-13,46.900000000000006,0.278,1.105,100.09,2.0,,0.0,0.0,102.06
2025-08-15T05:00:39.165Z,12,GR86-022-13,49.5,0.265,1.131,100.07,2.0,,0.0,0.0,
2025-08-15T05:00:39.208Z,12,GR86-022-13,50.2,0.27,1.18,100.04,2.0,,0.0,0.0,
2025-08-15T05:00:39.251Z,12,GR86-022-13,50.2,0.294,1.186,100.06,2.0,,0.0,0.0,
2025-08-15T05:00:39.294Z,12,GR86-022-13,50.2,0.277,1.153,100.07,2.0,6188.0,0.0,0.0,
2025-08-15T05:00:39.338Z,12,GR86-022-13,49.8,0.244,1.148,100.05,2.0,,0.0,0.0,104.06
2025-08-15T05:00:39.380Z,12,GR86-022-13,47.900000000000006,0.266,1.254,100.07,2.0,,0.0,0.0,
2025-08-15T05:00:39.423Z,12,GR86-022-13,44.6,0.329,0.938,100.03,2.0,,0.0,0.0,
2025-08-15T05:00:39.467Z,12,GR86-022-13,42.1,0.362,0.729,100.05,2.0,,0.0,0.0,
2025-08-15T05:00:39.509Z,12,GR86-022-13,40.7,0.388,0.578,100.03,2.0,6275.0,0.0,0.0,
2025-08-15T05:00:39.552Z,12,GR86-022-13,39.5,0.217,0.727,100.01,2.0,,0.0,0.0,105.69
2025-08-15T05:00:39.597Z,12,GR86-022-13,37.5,0.304,0.999,100.02,2.0,,0.0,0.0,
2025-08-15T05:00:39.641Z,12,GR86-022-13,34.6,0.274,1.041,100.02,2.0,,0.0,0.0,
