timestamp,lap,vehicle_id,steering_angle,accx_can,accy_can,ath,gear,nmot,pbrake_f,pbrake_r,speed
2025-08-15T01:27:45.068Z,15,GR86-047-21,2.4000000000000004,0.094,-0.028,99.82,4.0,7116.0,0.0,0.0,
2025-08-15T01:27:45.155Z,15,GR86-047-21,2.4000000000000004,0.125,-0.034,99.79,4.0,,0.0,0.0,181.74
2025-08-15T01:27:45.198Z,15,GR86-047-21,2.4000000000000004,0.124,-0.037,99.81,4.0,,0.0,0.0,
2025-08-15T01:27:45.241Z,15,GR86-047-21,2.4000000000000004,0.11,-0.038,99.82,4.0,,0.0,0.0,
2025-08-15T01:27:45.286Z,15,GR86-047-21,2.4000000000000004,0.068,-0.013,99.83,4.0,7163.0,0.0,0.0,
2025-08-15T01:27:45.328Z,15,GR86-047-21,2.4000000000000004,0.098,-0.029,99.81,4.0,,0.0,0.0,182.48
2025-08-15T01:27:45.371Z,15,GR86-047-21,2.4000000000000004,0.089,-0.019,99.81,4.0,,0.0,0.0,
2025-08-15T01:27:45.415Z,15,GR86-047-21,2.4000000000000004,0.088,-0.005,99.82,4.0,,0.0,0.0,
2025-08-15T01:27:45.457Z,15,GR86-047-21,2.4000000000000004,0.077,0.007,99.79,4.0,,0.0,0.0,
2025-08-15T01:27:45.500Z,15,GR86-047-21,2.4000000000000004,0.094,0.028,99.82,4.0,7195.0,0.0,0.0,
2025-08-15T01:27:45.544Z,15,GR86-047-21,2.4000000000000004,0.142,-0.007,99.8,4.0,,0.0,0.0,183.28
2025-08-15T01:27:45.586Z,15,GR86-047-21,2.4000000000000004,0.129,-0.004,99.81,4.0,,0.0,0.0,
2025-08-15T01:27:45.629Z,15,GR86-047-21,2.4000000000000004,0.146,-0.003,99.83,4.0,,0.0,0.0,
2025-08-15T01:27:45.672Z,15,GR86-047-21,2.4000000000000004,0.141,-0.008,99.81,4.0,,0.0,0.0,
2025-08-15T01:27:45.715Z,15,GR86-047-21,2.4000000000000004,0.127,-0.002,99.8,4.0,7226.0,0.0,0.0,
2025-08-15T01:27:45.759Z,15,GR86-047-21,2.4000000000000004,0.145,-0.007,99.81,4.0,,0.0,0.0,184.02
2025-08-15T01:27:45.801Z,15,GR86-047-21,2.4000000000000004,0.13,-0.01,99.83,4.0,,0.0,0.0,
2025-08-15T01:27:45.845Z,15,GR86-047-21,2.4000000000000004,0.074,0.022,99.82,4.0,,0.0,0.0,
2025-08-15T01:27:45.888Z,15,GR86-047-21,2.4000000000000004,0.06,0.028,99.82,4.0,,0.0,0.0,
2025-08-15T01:27:45.931Z,15,GR86-047-21,2.4000000000000004,0.076,0.017,99.82,4.0,7248.0,0.0,0.0,
2025-08-15T01:27:45.975Z,15,GR86-047-21,2.4000000000000004,0.064,0.026,99.81,4.0,,0.0,0.0,184.71
2025-08-15T01:27:46.018Z,15,GR86-047-21,2.4000000000000004,0.092,0.007,99.82,4.0,,0.0,0.0,
2025-08-15T01:27:46.061Z,15,GR86-047-21,2.4000000000000004,-0.139,0.009,99.81,5.0,,0.0,0.0,
2025-08-15T01:27:46.105Z,15,GR86-047-21,2.4000000000000004,0.423,0.005,99.83,5.0,,0.0,0.0,
2025-08-15T01:27:46.148Z,15,GR86-047-21,2.4000000000000004,0.181,-0.094,99.83,5.0,7277.0,0.0,0.0,
2025-08-15T01:27:46.191Z,15,GR86-047-21,2.4000000000000004,0.023,0.03,99.83,5.0,,0.0,0.0,185.48
2025-08-15T01:27:46.235Z,15,GR86-047-21,2.4000000000000004,-0.034,0.02,99.81,5.0,,0.0,0.0,
2025-08-15T01:27:46.278Z,15,GR86-047-21,2.4000000000000004,0.144,-0.078,99.83,5.0,,0.0,0.0,
2025-08-15T01:27:46.321Z,15,GR86-047-21,2.4000000000000004,0.1,0.021,99.81,5.0,,0.0,0.0,
2025-08-15T01:27:46.365Z,15,GR86-047-21,2.4000000000000004,0.056,-0.045,99.81,5.0,6923.0,0.0,0.0,
2025-08-15T01:27:46.408Z,15,GR86-047-21,2.4000000000000004,0.121,-0.002,99.82,5.0,,0.0,0.0,186.16
2025-08-15T01:27:46.451Z,15,GR86-047-21,2.4000000000000004,0.141,0.004,99.81,5.0,,0.0,0.0,
2025-08-15T01:27:46.496Z,15,GR86-047-21,2.4000000000000004,0.112,-0.053,99.83,5.0,,0.0,0.0,
2025-08-15T01:27:46.538Z,15,GR86-047-21,2.4000000000000004,0.108,-0.012,99.82,5.0,,0.0,0.0,
2025-08-15T01:27:46.581Z,15,GR86-047-21,2.4000000000000004,0.116,-0.016,99.81,5.0,6413.0,0.0,0.0,
2025-08-15T01:27:46.625Z,15,GR86-047-21,2.4000000000000004,0.058,0.012,99.82,5.0,,0.0,0.0,186.95
2025-08-15T01:27:46.668Z,15,GR86-047-21,2.4000000000000004,0.082,0.02,99.81,5.0,,0.0,0.0,
2025-08-15T01:27:46.712Z,15,GR86-047-21,2.4000000000000004,0.063,0.007,99.82,5.0,,0.0,0.0,
2025-08-15T01:27:46.755Z,15,GR86-047-21,2.4000000000000004,0.083,0.012,99.82,5.0,,0.0,0.0,
2025-08-15T01:27:46.798Z,15,GR86-047-21,2.4000000000000004,0.087,0.004,99.82,5.0,6366.0,0.0,0.0,
2025-08-15T01:27:46.841Z,15,GR86-047-21,2.4000000000000004,0.096,0.007,99.81,5.0,,0.0,0.0,187.62
2025-08-15T01:27:46.885Z,15,GR86-047-21,2.4000000000000004,0.059,0.006,99.82,5.0,,0.0,0.0,
2025-08-15T01:27:46.928Z,15,GR86-047-21,2.4000000000000004,0.07,0.02,99.82,5.0,,0.0,0.0,
2025-08-15T01:27:46.972Z,15,GR86-047-21,2.4000000000000004,0.048,0.039,99.82,5.0,,0.0,0.0,
2025-08-15T01:27:47.015Z,15,GR86-047-21,2.4000000000000004,0.061,0.042,99.82,5.0,6397.0,0.0,0.0,
2025-08-15T01:27:47.059Z,15,GR86-047-21,2.4000000000000004,0.057,0.051,99.82,5.0,,0.0,0.0,188.22
2025-08-15T01:27:47.101Z,15,GR86-047-21,2.4000000000000004,0.082,0.044,99.81,5.0,,0.0,0.0,
2025-08-15T01:27:47.145Z,15,GR86-047-21,2.4000000000000004,0.1,0.004,99.82,5.0,,0.0,0.0,
2025-08-15T01:27:47.188Z,15,GR86-047-21,2.4000000000000004,0.101,0.019,99.81,5.0,,0.0,0.0,
2025-08-15T01:27:47.231Z,15,GR86-047-21,2.4000000000000004,0.109,0.036,99.81,5.0,6425.0,0.0,0.0,
2025-08-15T01:27:47.275Z,15,GR86-047-21,2.4000000000000004,0.064,0.029,99.82,5.0,,0.0,0.0,188.91
2025-08-15T01:27:47.317Z,15,GR86-047-21,2.4000000000000004,0.076,0.037,99.81,5.0,,0.0,0.0,
2025-08-15T01:27:47.360Z,15,GR86-047-21,2.4000000000000004,0.064,0.021,99.8,5.0,,0.0,0.0,
2025-08-15T01:27:47.404Z,15,GR86-047-21,2.4000000000000004,0.11,0.014,99.82,5.0,,0.0,0.0,
2025-08-15T01:27:47.446Z,15,GR86-047-21,2.4000000000000004,0.112,-0.009,99.82,5.0,6443.0,0.0,0.0,
2025-08-15T01:27:47.489Z,15,GR86-047-21,2.4000000000000004,0.1,-0.025,99.81,5.0,,0.0,0.0,190.06
2025-08-15T01:27:47.532Z,15,GR86-047-21,2.4000000000000004,0.099,-0.017,99.83,5.0,,0.0,0.0,
2025-08-15T01:27:47.575Z,15,GR86-047-21,2.4000000000000004,0.092,-0.038,99.82,5.0,,0.0,0.0,
2025-08-15T01:27:47.618Z,15,GR86-047-21,2.4000000000000004,0.079,-0.026,99.8,5.0,,0.0,0.0,
2025-08-15T01:27:47.661Z,15,GR86-047-21,2.4000000000000004,0.079,-0.039,99.81,5.0,6457.0,0.0,0.0,
2025-08-15T01:27:47.705Z,15,GR86-047-21,2.4000000000000004,0.088,-0.024,99.81,5.0,,0.0,0.0,190.79
2025-08-15T01:27:47.748Z,15,GR86-047-21,2.4000000000000004,0.087,-0.024,99.82,5.0,,0.0,0.0,
2025-08-15T01:27:47.791Z,15,GR86-047-21,2.4000000000000004,0.102,-0.009,99.82,5.0,,0.0,0.0,
2025-08-15T01:27:47.835Z,15,GR86-047-21,2.4000000000000004,0.093,-0.004,99.79,5.0,,0.0,0.0,
2025-08-15T01:27:47.878Z,15,GR86-047-21,2.4000000000000004,0.089,-0.001,99.81,5.0,6496.0,0.0,0.0,
2025-08-15T01:27:47.921Z,15,GR86-047-21,2.4000000000000004,0.09,0.0,99.82,5.0,,0.0,0.0,191.54
2025-08-15T01:27:47.965Z,15,GR86-047-21,2.4000000000000004,0.079,0.032,99.82,5.0,,0.0,0.0,
2025-08-15T01:27:48.008Z,15,GR86-047-21,2.4000000000000004,0.088,0.052,99.81,5.0,,0.0,0.0,
2025-08-15T01:27:48.052Z,15,GR86-047-21,2.4000000000000004,0.093,0.048,99.81,5.0,,0.0,0.0,
2025-08-15T01:27:48.095Z,15,GR86-047-21,2.4000000000000004,0.106,0.054,99.81,5.0,6535.0,0.0,0.0,
2025-08-15T01:27:48.137Z,15,GR86-047-21,2.4000000000000004,0.08,0.047,99.82,5.0,,0.0,0.0,192.23
2025-08-15T01:27:48.180Z,15,GR86-047-21,2.4000000000000004,0.1,0.044,99.81,5.0,,0.0,0.0,
2025-08-15T01:27:48.224Z,15,GR86-047-21,2.4000000000000004,0.093,0.064,99.82,5.0,,0.0,0.0,
2025-08-15T01:27:48.268Z,15,GR86-047-21,2.4000000000000004,0.089,0.04,99.81,5.0,,0.0,0.0,
2025-08-15T01:27:48.312Z,15,GR86-047-21,2.4000000000000004,0.092,0.032,99.81,5.0,6560.0,0.0,0.0,
2025-08-15T01:27:48.355Z,15,GR86-047-21,2.4000000000000004,0.084,0.044,99.81,5.0,,0.0,0.0,192.9
2025-08-15T01:27:48.398Z,15,GR86-047-21,2.4000000000000004,0.095,0.033,99.82,5.0,,0.0,0.0,
2025-08-15T01:27:48.441Z,15,GR86-047-21,2.4000000000000004,0.084,0.054,99.82,5.0,,0.0,0.0,
2025-08-15T01:27:48.486Z,15,GR86-047-21,2.4000000000000004,0.071,0.03,99.83,5.0,,0.0,0.0,
2025-08-15T01:27:48.528Z,15,GR86-047-21,2.4000000000000004,0.095,0.05,99.83,5.0,6578.0,0.0,0.0,
2025-08-15T01:27:48.571Z,15,GR86-047-21,2.4000000000000004,0.072,0.049,99.81,5.0,,0.0,0.0,193.59
2025-08-15T01:27:48.615Z,15,GR86-047-21,2.4000000000000004,0.068,0.031,99.81,5.0,,0.0,0.0,
2025-08-15T01:27:48.659Z,15,GR86-047-21,2.4000000000000004,0.093,0.041,99.81,5.0,,0.0,0.0,
2025-08-15T01:27:48.702Z,15,GR86-047-21,2.4000000000000004,0.098,0.049,99.83,5.0,,0.0,0.0,
2025-08-15T01:27:48.746Z,15,GR86-047-21,2.4000000000000004,0.076,0.052,99.82,5.0,6613.0,0.0,0.0,
2025-08-15T01:27:48.788Z,15,GR86-047-21,2.4000000000000004,0.086,0.06,99.82,5.0,,0.0,0.0,194.11
2025-08-15T01:27:48.831Z,15,GR86-047-21,2.4000000000000004,0.079,0.048,99.82,5.0,,0.0,0.0,
2025-08-15T01:27:48.875Z,15,GR86-047-21,2.4000000000000004,0.077,0.061,99.82,5.0,,0.0,0.0,
2025-08-15T01:27:48.917Z,15,GR86-047-21,2.4000000000000004,0.084,0.068,99.82,5.0,,0.0,0.0,
2025-08-15T01:27:48.961Z,15,GR86-047-21,2.4000000000000004,0.081,0.045,99.82,5.0,6639.0,0.0,0.0,
2025-08-15T01:27:49.005Z,15,GR86-047-21,2.4000000000000004,0.085,0.037,99.83,5.0,,0.0,0.0,194.69
2025-08-15T01:27:49.048Z,15,GR86-047-21,2.4000000000000004,0.083,0.039,99.82,5.0,,0.0,0.0,
2025-08-15T01:27:49.092Z,15,GR86-047-21,2.4000000000000004,0.084,0.051,99.82,5.0,,0.0,0.0,
2025-08-15T01:27:49.135Z,15,GR86-047-21,2.4000000000000004,0.086,0.055,99.82,5.0,,0.0,0.0,
2025-08-15T01:27:49.178Z,15,GR86-047-21,2.4000000000000004,0.065,0.044,99.82,5.0,6647.0,0.0,0.0,
2025-08-15T01:27:49.220Z,15,GR86-047-21,2.4000000000000004,0.079,0.034,99.8,5.0,,0.0,0.0,195.48
2025-08-15T01:27:49.264Z,15,GR86-047-21,2.4000000000000004,0.1,0.017,99.82,5.0,,0.0,0.0,
2025-08-15T01:27:49.308Z,15,GR86-047-21,2.4000000000000004,0.084,0.013,99.82,5.0,,0.0,0.0,
2025-08-15T01:27:49.351Z,15,GR86-047-21,2.4000000000000004,0.082,0.015,99.83,5.0,,0.0,0.0,
2025-08-15T01:27:49.395Z,15,GR86-047-21,2.4000000000000004,0.064,0.008,99.82,5.0,6672.0,0.0,0.0,
2025-08-15T01:27:49.437Z,15,GR86-047-21,2.4000000000000004,0.09,0.028,99.81,5.0,,0.0,0.0,196.24
2025-08-15T01:27:49.480Z,15,GR86-047-21,2.4000000000000004,0.05,-0.002,99.82,5.0,,0.0,0.0,
2025-08-15T01:27:49.525Z,15,GR86-047-21,2.4000000000000004,0.065,-0.014,99.82,5.0,,0.0,0.0,
2025-08-15T01:27:49.568Z,15,GR86-047-21,2.4000000000000004,0.103,-0.005,99.81,5.0,,0.0,0.0,
2025-08-15T01:27:49.612Z,15,GR86-047-21,2.4000000000000004,0.056,0.0,99.82,5.0,6694.0,0.0,0.0,
2025-08-15T01:27:49.655Z,15,GR86-047-21,2.4000000000000004,0.081,0.007,99.82,5.0,,0.0,0.0,196.88
2025-08-15T01:27:49.698Z,15,GR86-047-21,2.4000000000000004,0.053,-0.001,99.81,5.0,,0.0,0.0,
2025-08-15T01:27:49.741Z,15,GR86-047-21,2.4000000000000004,0.083,-0.001,99.83,5.0,,0.0,0.0,
2025-08-15T01:27:49.785Z,15,GR86-047-21,2.4000000000000004,0.091,-0.012,99.82,5.0,,0.0,0.0,
2025-08-15T01:27:49.828Z,15,GR86-047-21,2.4000000000000004,0.061,-0.007,99.83,5.0,6713.0,0.0,0.0,
2025-08-15T01:27:49.871Z,15,GR86-047-21,2.4000000000000004,0.067,-0.006,99.81,5.0,,0.0,0.0,197.51
2025-08-15T01:27:49.915Z,15,GR86-047-21,2.4000000000000004,0.055,-0.015,99.82,5.0,,0.0,0.0,
2025-08-15T01:27:49.957Z,15,GR86-047-21,2.4000000000000004,0.056,-0.007,99.82,5.0,,0.0,0.0,
2025-08-15T01:27:50.000Z,15,GR86-047-21,2.4000000000000004,0.068,-0.007,99.82,5.0,,0.0,0.0,
2025-08-15T01:27:50.044Z,15,GR86-047-21,2.4000000000000004,0.048,0.001,99.8,5.0,6742.0,0.0,0.0,
2025-08-15T01:27:50.086Z,15,GR86-047-21,2.4000000000000004,0.048,-0.007,99.81,5.0,,0.0,0.0,198.99
2025-08-15T01:27:50.129Z,15,GR86-047-21,2.4000000000000004,0.061,0.005,99.82,5.0,,0.0,0.0,
2025-08-15T01:27:50.172Z,15,GR86-047-21,2.4000000000000004,0.048,0.0,99.8,5.0,,0.0,0.0,
2025-08-15T01:27:50.215Z,15,GR86-047-21,2.4000000000000004,0.075,-0.008,99.81,5.0,,0.0,0.0,
2025-08-15T01:27:50.259Z,15,GR86-047-21,2.4000000000000004,0.066,-0.023,99.81,5.0,6765.0,0.0,0.0,
2025-08-15T01:27:50.301Z,15,GR86-047-21,2.4000000000000004,0.109,-0.021,99.82,5.0,,0.0,0.0,199.69
2025-08-15T01:27:50.345Z,15,GR86-047-21,2.4000000000000004,0.072,-0.033,99.81,5.0,,0.0,0.0,
2025-08-15T01:27:50.388Z,15,GR86-047-21,2.4000000000000004,0.062,-0.041,99.81,5.0,,0.0,0.0,
2025-08-15T01:27:50.431Z,15,GR86-047-21,2.4000000000000004,0.095,-0.037,99.82,5.0,,0.0,0.0,
2025-08-15T01:27:50.475Z,15,GR86-047-21,2.4000000000000004,0.085,-0.025,99.82,5.0,6787.0,0.0,0.0,
2025-08-15T01:27:50.518Z,15,GR86-047-21,2.4000000000000004,0.092,-0.023,99.83,5.0,,0.0,0.0,200.4
2025-08-15T01:27:50.561Z,15,GR86-047-21,2.4000000000000004,0.071,-0.026,99.81,5.0,,0.0,0.0,
2025-08-15T01:27:50.605Z,15,GR86-047-21,2.4000000000000004,0.081,-0.023,99.8,5.0,,0.0,0.0,
2025-08-15T01:27:50.648Z,15,GR86-047-21,2.4000000000000004,0.094,-0.035,99.81,5.0,,0.0,0.0,
2025-08-15T01:27:50.692Z,15,GR86-047-21,2.4000000000000004,0.087,-0.027,99.81,5.0,6835.0,0.0,0.0,
2025-08-15T01:27:50.735Z,15,GR86-047-21,2.4000000000000004,0.085,-0.032,99.82,5.0,,0.0,0.0,200.93
2025-08-15T01:27:50.778Z,15,GR86-047-21,2.4000000000000004,0.07,-0.024,99.82,5.0,,0.0,0.0,
2025-08-15T01:27:50.821Z,15,GR86-047-21,2.4000000000000004,0.034,-0.014,99.82,5.0,,0.0,0.0,
2025-08-15T01:27:50.865Z,15,GR86-047-21,2.4000000000000004,0.098,-0.022,99.81,5.0,,0.0,0.0,
2025-08-15T01:27:50.908Z,15,GR86-047-21,2.4000000000000004,0.084,-0.005,99.82,5.0,6848.0,0.0,0.0,
2025-08-15T01:27:50.951Z,15,GR86-047-21,2.4000000000000004,0.051,0.018,99.81,5.0,,0.0,0.0,201.62
2025-08-15T01:27:50.996Z,15,GR86-047-21,2.5,0.074,0.044,99.81,5.0,,0.0,0.0,
2025-08-15T01:27:51.038Z,15,GR86-047-21,3.1,0.018,0.06,99.82,5.0,,0.0,0.0,
2025-08-15T01:27:51.081Z,15,GR86-047-21,3.5,0.073,0.062,99.81,5.0,,0.0,0.0,
2025-08-15T01:27:51.125Z,15,GR86-047-21,3.9,0.063,0.106,99.82,5.0,6872.0,0.0,0.0,
2025-08-15T01:27:51.168Z,15,GR86-047-21,4.1000000000000005,0.02,0.109,99.81,5.0,,0.0,0.0,202.22
2025-08-15T01:27:51.212Z,15,GR86-047-21,4.3,0.061,0.134,99.81,5.0,,0.0,0.0,
2025-08-15T01:27:51.255Z,15,GR86-047-21,4.5,0.038,0.158,99.81,5.0,,0.0,0.0,
2025-08-15T01:27:51.298Z,15,GR86-047-21,4.5,0.077,0.152,99.81,5.0,,0.0,0.0,
2025-08-15T01:27:51.341Z,15,GR86-047-21,4.5,0.069,0.153,99.82,5.0,6894.0,0.0,0.0,
2025-08-15T01:27:51.385Z,15,GR86-047-21,4.5,0.031,0.186,99.81,5.0,,0.0,0.0,202.85
2025-08-15T01:27:51.428Z,15,GR86-047-21,4.5,0.051,0.2,99.81,5.0,,0.0,0.0,
2025-08-15T01:27:51.472Z,15,GR86-047-21,4.5,0.074,0.201,99.81,5.0,,0.0,0.0,
2025-08-15T01:27:51.515Z,15,GR86-047-21,4.5,0.089,0.169,99.81,5.0,,0.0,0.0,
2025-08-15T01:27:51.559Z,15,GR86-047-21,4.5,0.07,0.142,99.79,5.0,6909.0,0.0,0.0,
2025-08-15T01:27:51.601Z,15,GR86-047-21,4.5,0.058,0.141,99.81,5.0,,0.0,0.0,203.39
2025-08-15T01:27:51.645Z,15,GR86-047-21,4.5,0.085,0.114,99.81,5.0,,0.0,0.0,
2025-08-15T01:27:51.688Z,15,GR86-047-21,4.5,0.092,0.11,99.81,5.0,,0.0,0.0,
2025-08-15T01:27:51.731Z,15,GR86-047-21,4.5,0.058,0.097,99.8,5.0,,0.0,0.0,
2025-08-15T01:27:51.775Z,15,GR86-047-21,4.5,0.054,0.126,99.81,5.0,6925.0,0.0,0.0,
2025-08-15T01:27:51.817Z,15,GR86-047-21,4.4,0.036,0.124,99.81,5.0,,0.0,0.0,203.93
2025-08-15T01:27:51.860Z,15,GR86-047-21,4.4,0.034,0.116,99.82,5.0,,0.0,0.0,
2025-08-15T01:27:51.904Z,15,GR86-047-21,4.4,0.061,0.058,99.82,5.0,,0.0,0.0,
2025-08-15T01:27:51.946Z,15,GR86-047-21,4.4,0.04,0.045,99.81,5.0,,0.0,0.0,
2025-08-15T01:27:51.989Z,15,GR86-047-21,4.3,0.05,0.042,99.81,5.0,6941.0,0.0,0.0,
2025-08-15T01:27:52.032Z,15,GR86-047-21,4.2,0.052,0.027,99.81,5.0,,0.0,0.0,204.24
2025-08-15T01:27:52.075Z,15,GR86-047-21,4.2,0.068,0.013,99.81,5.0,,0.0,0.0,
2025-08-15T01:27:52.118Z,15,GR86-047-21,4.2,0.101,-0.006,99.81,5.0,,0.0,0.0,
2025-08-15T01:27:52.161Z,15,GR86-047-21,4.2,0.086,-0.025,99.82,5.0,,0.0,0.0,
2025-08-15T01:27:52.205Z,15,GR86-047-21,4.2,0.071,0.004,99.81,5.0,6952.0,0.0,0.0,
2025-08-15T01:27:52.248Z,15,GR86-047-21,4.2,0.076,0.006,99.82,5.0,,0.0,0.0,204.83
2025-08-15T01:27:52.291Z,15,GR86-047-21,4.2,0.103,0.004,99.79,5.0,,0.0,0.0,
2025-08-15T01:27:52.335Z,15,GR86-047-21,4.2,0.073,-0.001,99.79,5.0,,0.0,0.0,
2025-08-15T01:27:52.378Z,15,GR86-047-21,4.2,0.052,0.028,99.81,5.0,,0.0,0.0,
2025-08-15T01:27:52.420Z,15,GR86-047-21,4.2,0.042,0.044,99.8,5.0,6982.0,0.0,0.0,
2025-08-15T01:27:52.464Z,15,GR86-047-21,4.2,0.071,0.072,99.81,5.0,,0.0,0.0,205.13
2025-08-15T01:27:52.506Z,15,GR86-047-21,4.2,0.063,0.081,99.81,5.0,,0.0,0.0,
2025-08-15T01:27:52.549Z,15,GR86-047-21,4.2,0.037,0.116,99.82,5.0,,0.0,0.0,
2025-08-15T01:27:52.592Z,15,GR86-047-21,4.2,0.033,0.151,99.79,5.0,,0.0,0.0,
2025-08-15T01:27:52.636Z,15,GR86-047-21,4.3,0.044,0.183,99.81,5.0,6989.0,0.0,0.0,
2025-08-15T01:27:52.678Z,15,GR86-047-21,4.5,0.057,0.183,99.82,5.0,,0.0,0.0,205.61
2025-08-15T01:27:52.721Z,15,GR86-047-21,4.6000000000000005,0.084,0.159,99.79,5.0,,0.0,0.0,
2025-08-15T01:27:52.765Z,15,GR86-047-21,4.6000000000000005,0.046,0.187,99.8,5.0,,0.0,0.0,
2025-08-15T01:27:52.808Z,15,GR86-047-21,4.6000000000000005,0.054,0.208,99.81,5.0,,0.0,0.0,
2025-08-15T01:27:52.851Z,15,GR86-047-21,4.6000000000000005,0.082,0.209,99.8,5.0,7003.0,0.0,0.0,
2025-08-15T01:27:52.895Z,15,GR86-047-21,4.6000000000000005,0.066,0.196,99.8,5.0,,0.0,0.0,206.78
2025-08-15T01:27:52.937Z,15,GR86-047-21,4.6000000000000005,0.073,0.166,99.81,5.0,,0.0,0.0,
2025-08-15T01:27:52.980Z,15,GR86-047-21,4.6000000000000005,0.037,0.17,99.81,5.0,,0.0,0.0,
2025-08-15T01:27:53.024Z,15,GR86-047-21,4.5,0.059,0.158,99.8,5.0,,0.0,0.0,
2025-08-15T01:27:53.068Z,15,GR86-047-21,4.5,0.067,0.158,99.81,5.0,7029.0,0.0,0.0,
2025-08-15T01:27:53.112Z,15,GR86-047-21,4.2,0.038,0.145,99.78,5.0,,0.0,0.0,207.29
2025-08-15T01:27:53.155Z,15,GR86-047-21,3.7,0.031,0.116,99.81,5.0,,0.0,0.0,
2025-08-15T01:27:53.198Z,15,GR86-047-21,3.2,0.061,0.09,99.8,5.0,,0.0,0.0,
2025-08-15T01:27:53.241Z,15,GR86-047-21,2.0,0.046,0.042,99.8,5.0,,0.0,0.0,
2025-08-15T01:27:53.286Z,15,GR86-047-21,-0.4,0.023,-0.047,99.8,5.0,7056.0,0.0,0.0,
2025-08-15T01:27:53.328Z,15,GR86-047-21,-1.8,0.05,-0.081,99.8,5.0,,0.0,0.0,207.68
2025-08-15T01:27:53.371Z,15,GR86-047-21,-2.6,0.05,-0.144,99.79,5.0,,0.0,0.0,
2025-08-15T01:27:53.415Z,15,GR86-047-21,-2.6,0.047,-0.201,99.8,5.0,,0.0,0.0,
2025-08-15T01:27:53.459Z,15,GR86-047-21,-2.6,0.06,-0.237,99.79,5.0,,0.0,0.0,
2025-08-15T01:27:53.501Z,15,GR86-047-21,-2.6,0.027,-0.266,99.81,5.0,7067.0,0.0,0.0,
2025-08-15T01:27:53.546Z,15,GR86-047-21,-2.6,0.045,-0.275,99.79,5.0,,0.0,0.0,208.14
2025-08-15T01:27:53.588Z,15,GR86-047-21,-2.6,0.045,-0.29,99.8,5.0,,0.0,0.0,
2025-08-15T01:27:53.631Z,15,GR86-047-21,-2.6,0.031,-0.315,99.81,5.0,,0.0,0.0,
2025-08-15T01:27:53.675Z,15,GR86-047-21,-2.6,0.034,-0.305,99.79,5.0,,0.0,0.0,
2025-08-15T01:27:53.717Z,15,GR86-047-21,-2.6,0.03,-0.298,99.8,5.0,7092.0,0.0,0.0,
2025-08-15T01:27:53.760Z,15,GR86-047-21,-2.6,0.037,-0.286,99.79,5.0,,0.0,0.0,208.51
2025-08-15T01:27:53.804Z,15,GR86-047-21,-2.6,0.034,-0.27,99.79,5.0,,0.0,0.0,
2025-08-15T01:27:53.846Z,15,GR86-047-21,-2.6,0.031,-0.246,99.81,5.0,,0.0,0.0,
2025-08-15T01:27:53.889Z,15,GR86-047-21,-2.7,0.038,-0.244,99.79,5.0,,0.0,0.0,
2025-08-15T01:27:53.932Z,15,GR86-047-21,-3.3000000000000003,0.045,-0.259,83.79,5.0,7097.0,2.245,2.4250000000000003,
2025-08-15T01:27:53.975Z,15,GR86-047-21,-3.3000000000000003,0.049,-0.277,56.120000000000005,5.0,,5.905,5.965,208.86
2025-08-15T01:27:54.018Z,15,GR86-047-21,-3.3000000000000003,-0.044,-0.275,41.22,5.0,,9.6,9.63,
2025-08-15T01:27:54.061Z,15,GR86-047-21,-2.8000000000000003,-0.133,-0.255,35.9,5.0,,13.735,13.765,
2025-08-15T01:27:54.105Z,15,GR86-047-21,-1.8,-0.27,-0.207,28.41,5.0,,24.86,24.615,
2025-08-15T01:27:54.148Z,15,GR86-047-21,-1.1,-0.457,-0.181,4.23,5.0,7104.0,36.96,36.64,
2025-08-15T01:27:54.191Z,15,GR86-047-21,-0.7000000000000001,-0.712,-0.146,4.36,5.0,,53.0,52.585,209.14
2025-08-15T01:27:54.235Z,15,GR86-047-21,-0.7000000000000001,-1.112,-0.075,4.28,5.0,,69.74,69.13,
2025-08-15T01:27:54.278Z,15,GR86-047-21,-0.8,-1.259,-0.045,4.16,5.0,,84.555,84.235,
2025-08-15T01:27:54.320Z,15,GR86-047-21,-1.8,-1.388,-0.045,4.0,5.0,,95.45,97.1,
2025-08-15T01:27:54.364Z,15,GR86-047-21,-4.5,-1.436,-0.071,3.62,5.0,7066.0,101.585,101.83,
2025-08-15T01:27:54.408Z,15,GR86-047-21,-4.800000000000001,-1.493,-0.108,3.29,5.0,,103.31,105.05,209.36
2025-08-15T01:27:54.452Z,15,GR86-047-21,-4.800000000000001,-1.453,-0.131,4.3500000000000005,5.0,,103.995,105.905,
2025-08-15T01:27:54.495Z,15,GR86-047-21,-4.800000000000001,-1.496,-0.109,40.53,5.0,,101.115,101.325,
2025-08-15T01:27:54.538Z,15,GR86-047-21,-4.4,-1.432,-0.1,82.28,5.0,,101.05,102.135,
2025-08-15T01:27:54.581Z,15,GR86-047-21,-2.6,-1.377,-0.115,99.58,5.0,6591.0,103.43,105.585,
2025-08-15T01:27:54.668Z,15,GR86-047-21,-2.4000000000000004,-1.333,-0.174,67.51,5.0,,99.235,99.585,206.8
2025-08-15T01:27:54.712Z,15,GR86-047-21,2.8000000000000003,-1.413,-0.082,3.3200000000000003,4.0,,89.33,91.47,
2025-08-15T01:27:54.755Z,15,GR86-047-21,2.8000000000000003,-1.329,-0.069,3.23,4.0,,88.95,91.085,
2025-08-15T01:27:54.798Z,15,GR86-047-21,-0.3,-1.335,-0.166,3.13,4.0,5979.0,85.12,86.19,
2025-08-15T01:27:54.841Z,15,GR86-047-21,-2.8000000000000003,-1.349,-0.148,3.02,4.0,,83.485,84.95,193.0
2025-08-15T01:27:54.885Z,15,GR86-047-21,-3.0,-1.144,-0.278,2.81,4.0,,81.245,82.175,
2025-08-15T01:27:54.928Z,15,GR86-047-21,-3.0,-1.112,-0.264,2.75,4.0,,75.49,76.71000000000001,
2025-08-15T01:27:54.971Z,15,GR86-047-21,-2.9000000000000004,-1.217,-0.298,2.7,4.0,,70.96000000000001,72.575,
2025-08-15T01:27:55.059Z,15,GR86-047-21,-2.4000000000000004,-1.119,-0.373,2.63,4.0,6386.0,58.875,59.620000000000005,183.4
2025-08-15T01:27:55.101Z,15,GR86-047-21,-1.5,-1.122,-0.302,2.59,4.0,,56.125,56.525,
2025-08-15T01:27:55.145Z,15,GR86-047-21,-1.4,-1.063,-0.373,12.35,4.0,,55.605,55.945,
2025-08-15T01:27:55.231Z,15,GR86-047-21,-1.5,-1.069,-0.387,53.25,4.0,6569.0,56.72,56.995000000000005,
2025-08-15T01:27:55.275Z,15,GR86-047-21,-1.0,-1.158,-0.457,97.02,3.0,,58.935,59.18,176.20000000000002
2025-08-15T01:27:55.318Z,15,GR86-047-21,0.7000000000000001,-1.267,-0.405,37.92,3.0,,59.27,60.43,
2025-08-15T01:27:55.361Z,15,GR86-047-21,2.4000000000000004,-1.234,-0.443,3.38,3.0,,58.4,59.955,
2025-08-15T01:27:55.405Z,15,GR86-047-21,3.4000000000000004,-1.074,-0.609,2.84,3.0,,51.99,53.03,
2025-08-15T01:27:55.448Z,15,GR86-047-21,3.7,-1.112,-0.5,2.79,3.0,6378.0,46.62,47.55,
2025-08-15T01:27:55.535Z,15,GR86-047-21,4.0,-0.915,-0.747,2.75,3.0,,39.845,40.775,163.59
2025-08-15T01:27:55.578Z,15,GR86-047-21,3.9,-0.885,-0.713,2.72,3.0,,37.355,38.595,
2025-08-15T01:27:55.665Z,15,GR86-047-21,-1.3,-0.8130000000000001,-0.911,2.63,3.0,6089.0,30.825,31.71,
2025-08-15T01:27:55.708Z,15,GR86-047-21,-3.7,-0.879,-0.6920000000000001,2.63,3.0,,27.5,28.215,156.67000000000002
2025-08-15T01:27:55.752Z,15,GR86-047-21,-4.4,-0.727,-0.837,2.59,3.0,,26.78,27.71,
2025-08-15T01:27:55.796Z,15,GR86-047-21,-4.4,-0.758,-0.919,2.56,3.0,,26.11,27.055,
2025-08-15T01:27:55.838Z,15,GR86-047-21,-0.5,-0.643,-0.974,2.56,3.0,,25.425,26.4,
2025-08-15T01:27:55.881Z,15,GR86-047-21,6.2,-0.6990000000000001,-0.927,2.5500000000000003,3.0,6799.0,25.15,25.835,
2025-08-15T01:27:55.925Z,15,GR86-047-21,9.6,-0.724,-0.798,2.53,3.0,,24.31,24.795,150.47
2025-08-15T01:27:55.968Z,15,GR86-047-21,9.5,-0.601,-0.8310000000000001,2.52,3.0,,23.59,24.11,
2025-08-15T01:27:56.012Z,15,GR86-047-21,9.5,-0.619,-0.867,2.52,3.0,,20.175,21.06,
2025-08-15T01:27:56.141Z,15,GR86-047-21,5.6000000000000005,-0.596,-0.786,2.52,3.0,6216.0,15.87,16.895,145.44
2025-08-15T01:27:56.185Z,15,GR86-047-21,-26.4,-0.485,-0.97,2.5,3.0,,10.375,11.125,
2025-08-15T01:27:56.228Z,15,GR86-047-21,-32.2,-0.405,-0.942,2.51,3.0,,8.94,9.66,
2025-08-15T01:27:56.272Z,15,GR86-047-21,-37.8,-0.443,-0.984,2.5,3.0,,7.890000000000001,8.36,
2025-08-15T01:27:56.359Z,15,GR86-047-21,-41.3,-0.447,-1.038,2.5,3.0,6155.0,7.555,8.33,140.54
2025-08-15T01:27:56.401Z,15,GR86-047-21,-42.7,-0.362,-1.012,2.48,3.0,,5.34,5.8,
2025-08-15T01:27:56.445Z,15,GR86-047-21,-42.6,-0.243,-1.069,2.49,3.0,,0.0,0.0,
2025-08-15T01:27:56.488Z,15,GR86-047-21,-38.2,-0.244,-1.078,2.47,3.0,,0.0,0.0,
2025-08-15T01:27:56.531Z,15,GR86-047-21,-30.1,-0.218,-1.137,2.47,3.0,6103.0,0.0,0.0,
2025-08-15T01:27:56.575Z,15,GR86-047-21,-20.700000000000003,-0.178,-1.093,3.34,3.0,,0.0,0.0,136.92000000000002
2025-08-15T01:27:56.617Z,15,GR86-047-21,-16.0,-0.178,-1.012,9.01,3.0,,0.0,0.0,
2025-08-15T01:27:56.660Z,15,GR86-047-21,-16.400000000000002,-0.201,-0.971,14.06,3.0,,0.0,0.0,
2025-08-15T01:27:56.704Z,15,GR86-047-21,-35.800000000000004,-0.197,-1.019,13.1,3.0,,0.0,0.0,
2025-08-15T01:27:56.746Z,15,GR86-047-21,-51.7,-0.151,-1.077,13.36,3.0,6050.0,0.0,0.0,
2025-08-15T01:27:56.789Z,15,GR86-047-21,-64.60000000000001,-0.174,-1.141,11.78,3.0,,0.0,0.0,134.67000000000002
2025-08-15T01:27:56.832Z,15,GR86-047-21,-72.2,-0.191,-1.142,11.72,3.0,,0.0,0.0,
2025-08-15T01:27:56.875Z,15,GR86-047-21,-73.8,-0.183,-1.224,15.71,3.0,,0.0,0.0,
2025-08-15T01:27:56.961Z,15,GR86-047-21,-73.9,-0.172,-1.335,21.38,3.0,6019.0,0.0,0.0,
2025-08-15T01:27:57.005Z,15,GR86-047-21,-60.6,-0.191,-1.465,31.6,3.0,,0.0,0.0,132.99
2025-08-15T01:27:57.048Z,15,GR86-047-21,-50.1,-0.163,-1.219,32.71,3.0,,0.0,0.0,
2025-08-15T01:27:57.091Z,15,GR86-047-21,-40.7,-0.053,-1.169,34.95,3.0,,0.0,0.0,
2025-08-15T01:27:57.135Z,15,GR86-047-21,-32.1,0.139,-1.241,35.24,3.0,,0.0,0.0,
2025-08-15T01:27:57.178Z,15,GR86-047-21,-25.6,-0.017,-1.177,35.33,3.0,6019.0,0.0,0.0,
2025-08-15T01:27:57.221Z,15,GR86-047-21,-22.6,-0.048,-1.268,37.03,3.0,,0.0,0.0,131.08
2025-08-15T01:27:57.265Z,15,GR86-047-21,-17.400000000000002,-0.022,-1.074,38.51,3.0,,0.0,0.0,
2025-08-15T01:27:57.308Z,15,GR86-047-21,-10.8,-0.054,-1.125,38.32,3.0,,0.0,0.0,
2025-08-15T01:27:57.351Z,15,GR86-047-21,-4.1000000000000005,-0.061,-1.067,40.75,3.0,,0.0,0.0,
2025-08-15T01:27:57.438Z,15,GR86-047-21,0.7000000000000001,0.049,-0.938,51.38,3.0,,0.0,0.0,131.07
2025-08-15T01:27:57.481Z,15,GR86-047-21,0.7000000000000001,-0.143,-1.132,49.76,3.0,6224.0,0.0,0.0,
2025-08-15T01:27:57.526Z,15,GR86-047-21,-13.6,0.025,-1.209,49.1,3.0,,0.0,0.0,
2025-08-15T01:27:57.568Z,15,GR86-047-21,-14.0,-0.075,-1.463,55.57,3.0,,0.0,0.0,
2025-08-15T01:27:57.611Z,15,GR86-047-21,-14.5,0.176,-1.39,70.54,3.0,6258.0,0.0,0.0,
2025-08-15T01:27:57.655Z,15,GR86-047-21,-15.2,0.118,-1.495,93.77,3.0,,0.0,0.0,130.72
2025-08-15T01:27:57.698Z,15,GR86-047-21,-15.5,0.153,-1.197,96.38,3.0,,0.0,0.0,
2025-08-15T01:27:57.741Z,15,GR86-047-21,-12.5,0.16,-1.11,88.2,3.0,,0.0,0.0,
2025-08-15T01:27:57.786Z,15,GR86-047-21,0.4,0.04,-0.901,87.39,3.0,,0.0,0.0,
2025-08-15T01:27:57.828Z,15,GR86-047-21,4.6000000000000005,0.146,-1.013,93.78,3.0,6407.0,0.0,0.0,
2025-08-15T01:27:57.871Z,15,GR86-047-21,5.0,0.521,-1.379,99.38,3.0,,0.0,0.0,130.53
2025-08-15T01:27:57.915Z,15,GR86-047-21,5.1000000000000005,0.582,-1.221,99.76,3.0,,0.0,0.0,
2025-08-15T01:27:57.957Z,15,GR86-047-21,7.2,0.31,-1.274,99.76,3.0,,0.0,0.0,
2025-08-15T01:27:58.000Z,15,GR86-047-21,13.9,0.253,-1.12,99.76,3.0,,0.0,0.0,
2025-08-15T01:27:58.044Z,15,GR86-047-21,15.7,0.285,-1.36,99.77,3.0,6267.0,0.0,0.0,
2025-08-15T01:27:58.088Z,15,GR86-047-21,13.9,0.252,-1.198,99.78,3.0,,0.0,0.0,130.61
2025-08-15T01:27:58.131Z,15,GR86-047-21,6.9,0.199,-1.291,99.79,3.0,,0.0,0.0,
2025-08-15T01:27:58.175Z,15,GR86-047-21,-2.0,0.233,-1.076,99.79,3.0,,0.0,0.0,
2025-08-15T01:27:58.217Z,15,GR86-047-21,-14.4,0.158,-1.134,99.81,3.0,,0.0,0.0,
2025-08-15T01:27:58.261Z,15,GR86-047-21,-29.5,0.13,-1.234,99.81,3.0,6721.0,0.0,0.0,
2025-08-15T01:27:58.304Z,15,GR86-047-21,-49.8,0.149,-1.296,99.81,3.0,,0.0,0.0,131.97
2025-08-15T01:27:58.348Z,15,GR86-047-21,-57.8,0.135,-1.292,99.78,3.0,,0.0,0.0,
2025-08-15T01:27:58.391Z,15,GR86-047-21,-60.6,0.188,-1.201,99.8,3.0,,0.0,0.0,
2025-08-15T01:27:58.436Z,15,GR86-047-21,-60.8,0.142,-1.256,99.78,3.0,,0.0,0.0,
2025-08-15T01:27:58.478Z,15,GR86-047-21,-60.8,0.108,-1.246,99.77,3.0,6389.0,0.0,0.0,
2025-08-15T01:27:58.521Z,15,GR86-047-21,-60.8,0.13,-1.146,99.79,3.0,,0.0,0.0,131.71
2025-08-15T01:27:58.565Z,15,GR86-047-21,-60.8,0.084,-1.111,99.79,3.0,,0.0,0.0,
2025-08-15T01:27:58.608Z,15,GR86-047-21,-60.8,0.132,-1.121,99.79,3.0,,0.0,0.0,
2025-08-15T01:27:58.652Z,15,GR86-047-21,-57.2,0.143,-1.21,99.78,3.0,,0.0,0.0,
2025-08-15T01:27:58.695Z,15,GR86-047-21,-51.1,0.085,-1.25,99.8,3.0,6296.0,0.0,0.0,
2025-08-15T01:27:58.738Z,15,GR86-047-21,-44.8,0.129,-1.229,99.77,3.0,,0.0,0.0,132.07
2025-08-15T01:27:58.781Z,15,GR86-047-21,-39.0,0.168,-1.199,99.8,3.0,,0.0,0.0,
2025-08-15T01:27:58.825Z,15,GR86-047-21,-32.1,0.151,-1.181,99.79,3.0,,0.0,0.0,
2025-08-15T01:27:58.868Z,15,GR86-047-21,-28.5,0.177,-1.184,99.8,3.0,,0.0,0.0,
2025-08-15T01:27:58.912Z,15,GR86-047-21,-25.6,0.135,-1.206,99.79,3.0,6368.0,0.0,0.0,
2025-08-15T01:27:58.955Z,15,GR86-047-21,-23.0,0.138,-1.19,99.77,3.0,,0.0,0.0,132.86
2025-08-15T01:27:58.998Z,15,GR86-047-21,-20.9,0.179,-1.164,99.79,3.0,,0.0,0.0,
2025-08-15T01:27:59.041Z,15,GR86-047-21,-20.200000000000003,0.201,-1.154,99.79,3.0,,0.0,0.0,
2025-08-15T01:27:59.085Z,15,GR86-047-21,-20.4,0.217,-1.09,99.8,3.0,,0.0,0.0,
2025-08-15T01:27:59.128Z,15,GR86-047-21,-23.4,0.168,-1.096,99.81,3.0,6423.0,0.0,0.0,
2025-08-15T01:27:59.171Z,15,GR86-047-21,-30.0,0.144,-1.101,99.83,3.0,,0.0,0.0,135.48
2025-08-15T01:27:59.215Z,15,GR86-047-21,-37.2,0.189,-1.05,99.81,3.0,,0.0,0.0,
2025-08-15T01:27:59.259Z,15,GR86-047-21,-41.900000000000006,0.169,-1.058,99.81,3.0,,0.0,0.0,
2025-08-15T01:27:59.301Z,15,GR86-047-21,-46.2,0.132,-0.88,99.78,3.0,,0.0,0.0,
2025-08-15T01:27:59.388Z,15,GR86-047-21,-48.6,0.159,-0.62,99.8,3.0,6435.0,0.0,0.0,135.61
2025-08-15T01:27:59.431Z,15,GR86-047-21,-47.7,0.141,-0.551,99.81,3.0,,0.0,0.0,
2025-08-15T01:27:59.475Z,15,GR86-047-21,-43.2,0.174,-0.438,99.78,3.0,,0.0,0.0,
2025-08-15T01:27:59.518Z,15,GR86-047-21,-42.1,-0.077,-0.454,99.78,3.0,,0.0,0.0,
2025-08-15T01:27:59.561Z,15,GR86-047-21,-40.6,-0.07,-0.946,99.79,3.0,6432.0,0.0,0.0,
2025-08-15T01:27:59.605Z,15,GR86-047-21,-37.6,-0.059,-1.278,99.81,3.0,,0.0,0.0,136.01
2025-08-15T01:27:59.648Z,15,GR86-047-21,-36.1,0.167,-1.32,99.8,3.0,,0.0,0.0,
2025-08-15T01:27:59.692Z,15,GR86-047-21,-34.800000000000004,0.242,-1.262,99.78,3.0,,0.0,0.0,
2025-08-15T01:27:59.735Z,15,GR86-047-21,-32.1,0.216,-1.13,99.79,3.0,,0.0,0.0,
2025-08-15T01:27:59.778Z,15,GR86-047-21,-28.0,-0.025,-1.279,99.8,3.0,6591.0,0.0,0.0,
2025-08-15T01:27:59.821Z,15,GR86-047-21,-25.200000000000003,0.123,-1.668,99.77,3.0,,0.0,0.0,136.82
2025-08-15T01:27:59.865Z,15,GR86-047-21,-18.2,0.171,-1.464,99.79,3.0,,0.0,0.0,
2025-08-15T01:27:59.908Z,15,GR86-047-21,-11.2,0.137,-1.317,99.78,3.0,,0.0,0.0,
2025-08-15T01:27:59.952Z,15,GR86-047-21,-7.5,0.095,-1.129,99.79,3.0,,0.0,0.0,
2025-08-15T01:27:59.996Z,15,GR86-047-21,-7.5,0.095,-0.905,99.8,3.0,6686.0,0.0,0.0,
2025-08-15T01:28:00.038Z,15,GR86-047-21,-9.3,0.141,-0.874,99.81,3.0,,0.0,0.0,138.36
2025-08-15T01:28:00.081Z,15,GR86-047-21,-16.1,0.179,-1.119,99.81,3.0,,0.0,0.0,
2025-08-15T01:28:00.125Z,15,GR86-047-21,-26.5,0.073,-1.004,99.8,3.0,,0.0,0.0,
2025-08-15T01:28:00.168Z,15,GR86-047-21,-28.8,0.18,-1.144,99.81,3.0,,0.0,0.0,
2025-08-15T01:28:00.211Z,15,GR86-047-21,-28.6,0.107,-1.202,99.79,3.0,6602.0,0.0,0.0,
2025-08-15T01:28:00.255Z,15,GR86-047-21,-20.700000000000003,0.087,-1.121,99.78,3.0,,0.0,0.0,139.92000000000002
2025-08-15T01:28:00.298Z,15,GR86-047-21,-13.0,0.152,-1.415,99.78,3.0,,0.0,0.0,
2025-08-15T01:28:00.341Z,15,GR86-047-21,-7.1000000000000005,0.205,-1.425,99.78,3.0,,0.0,0.0,
2025-08-15T01:28:00.385Z,15,GR86-047-21,0.5,0.188,-1.202,99.79,3.0,,0.0,0.0,
2025-08-15T01:28:00.428Z,15,GR86-047-21,5.5,0.171,-1.176,99.77,3.0,6842.0,0.0,0.0,
2025-08-15T01:28:00.515Z,15,GR86-047-21,10.8,0.239,-1.068,99.8,3.0,,0.0,0.0,140.08
2025-08-15T01:28:00.601Z,15,GR86-047-21,10.8,0.23,-1.05,99.79,3.0,,0.0,0.0,
2025-08-15T01:28:00.645Z,15,GR86-047-21,-1.2000000000000002,0.2,-0.745,99.8,3.0,7034.0,0.0,0.0,
2025-08-15T01:28:00.688Z,15,GR86-047-21,-6.6000000000000005,0.11,-0.967,99.78,3.0,,0.0,0.0,141.9
2025-08-15T01:28:00.731Z,15,GR86-047-21,-10.0,0.218,-1.004,99.79,3.0,,0.0,0.0,
2025-08-15T01:28:00.775Z,15,GR86-047-21,-10.7,0.08,-0.845,99.79,3.0,,0.0,0.0,
2025-08-15T01:28:00.817Z,15,GR86-047-21,-10.7,0.252,-1.007,99.81,3.0,,0.0,0.0,
2025-08-15T01:28:00.860Z,15,GR86-047-21,-10.1,0.372,-0.89,99.8,3.0,6818.0,0.0,0.0,
2025-08-15T01:28:00.904Z,15,GR86-047-21,-6.800000000000001,0.199,-0.658,99.79,3.0,,0.0,0.0,141.39
2025-08-15T01:28:00.946Z,15,GR86-047-21,-4.3,0.152,-0.707,99.79,3.0,,0.0,0.0,
2025-08-15T01:28:00.989Z,15,GR86-047-21,-2.4000000000000004,0.17,-0.46,99.79,3.0,,0.0,0.0,
2025-08-15T01:28:01.032Z,15,GR86-047-21,-2.1,0.187,-0.22,99.79,3.0,,0.0,0.0,
2025-08-15T01:28:01.075Z,15,GR86-047-21,-2.1,0.205,-0.086,99.78,3.0,6867.0,0.0,0.0,
2025-08-15T01:28:01.118Z,15,GR86-047-21,-2.2,0.133,-0.016,99.8,3.0,,0.0,0.0,142.57
2025-08-15T01:28:01.161Z,15,GR86-047-21,-2.2,-0.027,-0.03,99.81,3.0,,0.0,0.0,
2025-08-15T01:28:01.205Z,15,GR86-047-21,-2.2,0.206,0.106,99.79,3.0,,0.0,0.0,
2025-08-15T01:28:01.248Z,15,GR86-047-21,-1.2000000000000002,0.378,0.028,99.79,3.0,,0.0,0.0,
2025-08-15T01:28:01.291Z,15,GR86-047-21,0.2,0.163,0.029,99.81,3.0,6757.0,0.0,0.0,
2025-08-15T01:28:01.335Z,15,GR86-047-21,1.2000000000000002,0.215,-0.087,99.81,3.0,,0.0,0.0,144.15
2025-08-15T01:28:01.378Z,15,GR86-047-21,1.4,0.052,-0.109,99.79,3.0,,0.0,0.0,
2025-08-15T01:28:01.420Z,15,GR86-047-21,1.3,0.132,0.005,99.82,3.0,,0.0,0.0,
2025-08-15T01:28:01.464Z,15,GR86-047-21,2.8000000000000003,0.057,0.169,99.8,3.0,,0.0,0.0,
2025-08-15T01:28:01.506Z,15,GR86-047-21,3.5,0.148,-0.044,99.79,3.0,6793.0,0.0,0.0,
2025-08-15T01:28:01.549Z,15,GR86-047-21,3.4000000000000004,0.272,-0.02,99.8,3.0,,0.0,0.0,145.18
2025-08-15T01:28:01.592Z,15,GR86-047-21,2.7,0.349,-0.022,99.8,3.0,,0.0,0.0,
2025-08-15T01:28:01.635Z,15,GR86-047-21,1.8,0.04,0.0,99.78,3.0,,0.0,0.0,
2025-08-15T01:28:01.678Z,15,GR86-047-21,1.2000000000000002,0.117,0.08,99.79,3.0,,0.0,0.0,
2025-08-15T01:28:01.721Z,15,GR86-047-21,1.0,0.31,0.259,99.81,3.0,7159.0,0.0,0.0,
2025-08-15T01:28:01.765Z,15,GR86-047-21,0.8,0.098,0.165,99.8,3.0,,0.0,0.0,147.42000000000002
2025-08-15T01:28:01.808Z,15,GR86-047-21,2.9000000000000004,0.065,0.271,99.79,3.0,,0.0,0.0,
2025-08-15T01:28:01.852Z,15,GR86-047-21,5.1000000000000005,0.02,0.336,99.8,3.0,,0.0,0.0,
2025-08-15T01:28:01.895Z,15,GR86-047-21,8.0,-0.176,0.338,99.8,3.0,,0.0,0.0,
2025-08-15T01:28:01.938Z,15,GR86-047-21,10.6,0.207,0.444,99.77,3.0,7196.0,0.0,0.0,
2025-08-15T01:28:01.981Z,15,GR86-047-21,11.6,0.229,0.288,99.8,3.0,,0.0,0.0,147.99
2025-08-15T01:28:02.026Z,15,GR86-047-21,11.3,0.111,0.228,99.79,3.0,,0.0,0.0,
2025-08-15T01:28:02.068Z,15,GR86-047-21,11.1,0.104,0.527,99.78,3.0,,0.0,0.0,
2025-08-15T01:28:02.111Z,15,GR86-047-21,10.9,0.171,0.44,99.8,3.0,,0.0,0.0,
2025-08-15T01:28:02.155Z,15,GR86-047-21,10.9,0.13,0.316,99.78,3.0,7196.0,0.0,0.0,
2025-08-15T01:28:02.198Z,15,GR86-047-21,10.9,0.244,0.407,99.79,3.0,,0.0,0.0,149.01
2025-08-15T01:28:02.241Z,15,GR86-047-21,10.9,0.173,0.367,99.78,3.0,,0.0,0.0,
2025-08-15T01:28:02.286Z,15,GR86-047-21,10.8,0.192,0.367,99.79,3.0,,0.0,0.0,
2025-08-15T01:28:02.328Z,15,GR86-047-21,10.8,0.188,0.376,99.79,3.0,,0.0,0.0,
2025-08-15T01:28:02.371Z,15,GR86-047-21,10.8,0.161,0.299,99.81,3.0,7067.0,0.0,0.0,
2025-08-15T01:28:02.415Z,15,GR86-047-21,10.8,0.179,0.302,99.79,3.0,,0.0,0.0,150.59
2025-08-15T01:28:02.457Z,15,GR86-047-21,10.7,0.166,0.311,99.8,3.0,,0.0,0.0,
2025-08-15T01:28:02.500Z,15,GR86-047-21,10.6,0.167,0.316,99.79,3.0,,0.0,0.0,
2025-08-15T01:28:02.544Z,15,GR86-047-21,10.1,0.172,0.289,99.79,3.0,,0.0,0.0,
2025-08-15T01:28:02.588Z,15,GR86-047-21,9.7,0.182,0.285,99.79,3.0,7150.0,0.0,0.0,
2025-08-15T01:28:02.631Z,15,GR86-047-21,9.3,0.161,0.286,99.81,3.0,,0.0,0.0,152.1
2025-08-15T01:28:02.675Z,15,GR86-047-21,8.8,0.159,0.295,99.79,3.0,,0.0,0.0,
2025-08-15T01:28:02.717Z,15,GR86-047-21,8.4,0.143,0.278,99.78,3.0,,0.0,0.0,
2025-08-15T01:28:02.760Z,15,GR86-047-21,8.200000000000001,0.097,0.226,99.78,4.0,,0.0,0.0,
2025-08-15T01:28:02.804Z,15,GR86-047-21,7.300000000000001,0.43,0.288,99.79,4.0,7226.0,0.0,0.0,
2025-08-15T01:28:02.846Z,15,GR86-047-21,7.2,0.329,0.154,99.8,4.0,,0.0,0.0,153.44
2025-08-15T01:28:02.889Z,15,GR86-047-21,6.800000000000001,0.224,0.157,99.79,4.0,,0.0,0.0,
2025-08-15T01:28:02.932Z,15,GR86-047-21,6.2,0.064,0.22,99.79,4.0,,0.0,0.0,
2025-08-15T01:28:02.975Z,15,GR86-047-21,6.1000000000000005,0.079,0.102,99.79,4.0,,0.0,0.0,
2025-08-15T01:28:03.018Z,15,GR86-047-21,6.1000000000000005,0.167,0.103,99.8,4.0,7302.0,0.0,0.0,
2025-08-15T01:28:03.061Z,15,GR86-047-21,6.1000000000000005,0.197,0.185,99.8,4.0,,0.0,0.0,154.91
2025-08-15T01:28:03.105Z,15,GR86-047-21,6.1000000000000005,0.117,0.038,99.79,4.0,,0.0,0.0,
2025-08-15T01:28:03.148Z,15,GR86-047-21,5.9,0.137,0.089,99.8,4.0,,0.0,0.0,
2025-08-15T01:28:03.192Z,15,GR86-047-21,5.800000000000001,0.168,0.069,99.78,4.0,,0.0,0.0,
2025-08-15T01:28:03.235Z,15,GR86-047-21,5.800000000000001,0.138,0.074,99.8,4.0,6167.0,0.0,0.0,
2025-08-15T01:28:03.278Z,15,GR86-047-21,5.7,0.123,0.098,99.79,4.0,,0.0,0.0,156.37
2025-08-15T01:28:03.321Z,15,GR86-047-21,5.7,0.105,0.08,99.79,4.0,,0.0,0.0,
2025-08-15T01:28:03.365Z,15,GR86-047-21,5.1000000000000005,0.145,0.067,99.77,4.0,,0.0,0.0,
2025-08-15T01:28:03.408Z,15,GR86-047-21,5.1000000000000005,0.127,0.067,99.8,4.0,,0.0,0.0,
2025-08-15T01:28:03.451Z,15,GR86-047-21,5.0,0.115,0.062,99.81,4.0,6203.0,0.0,0.0,
2025-08-15T01:28:03.495Z,15,GR86-047-21,5.0,0.104,0.029,99.79,4.0,,0.0,0.0,159.71
2025-08-15T01:28:03.538Z,15,GR86-047-21,4.9,0.147,0.044,99.78,4.0,,0.0,0.0,
2025-08-15T01:28:03.581Z,15,GR86-047-21,4.7,0.129,0.018,99.79,4.0,,0.0,0.0,
2025-08-15T01:28:03.625Z,15,GR86-047-21,4.5,0.11,0.049,99.78,4.0,,0.0,0.0,
2025-08-15T01:28:03.668Z,15,GR86-047-21,4.3,0.107,0.035,99.79,4.0,6285.0,0.0,0.0,
2025-08-15T01:28:03.712Z,15,GR86-047-21,3.9,0.123,0.002,99.79,4.0,,0.0,0.0,161.21
2025-08-15T01:28:03.755Z,15,GR86-047-21,3.4000000000000004,0.144,0.016,99.79,4.0,,0.0,0.0,
2025-08-15T01:28:03.798Z,15,GR86-047-21,2.7,0.133,-0.026,99.8,4.0,,0.0,0.0,
2025-08-15T01:28:03.841Z,15,GR86-047-21,2.0,0.138,-0.027,99.78,4.0,,0.0,0.0,
2025-08-15T01:28:03.885Z,15,GR86-047-21,1.5,0.104,-0.045,99.78,4.0,6430.0,0.0,0.0,
2025-08-15T01:28:03.928Z,15,GR86-047-21,1.2000000000000002,0.095,-0.074,99.79,4.0,,0.0,0.0,162.61
2025-08-15T01:28:03.971Z,15,GR86-047-21,0.9,0.116,-0.106,99.79,4.0,,0.0,0.0,
2025-08-15T01:28:04.015Z,15,GR86-047-21,0.5,0.124,-0.126,99.79,4.0,,0.0,0.0,
2025-08-15T01:28:04.059Z,15,GR86-047-21,0.0,0.146,-0.142,99.79,4.0,,0.0,0.0,
2025-08-15T01:28:04.101Z,15,GR86-047-21,-0.1,0.153,-0.149,99.79,4.0,6473.0,0.0,0.0,
2025-08-15T01:28:04.145Z,15,GR86-047-21,-0.2,0.082,-0.172,99.79,4.0,,0.0,0.0,164.26
2025-08-15T01:28:04.188Z,15,GR86-047-21,-0.1,0.1,-0.185,99.78,4.0,,0.0,0.0,
2025-08-15T01:28:04.231Z,15,GR86-047-21,-0.1,0.121,-0.18,99.79,4.0,,0.0,0.0,
2025-08-15T01:28:04.275Z,15,GR86-047-21,-0.1,0.131,-0.161,99.77,4.0,,0.0,0.0,
2025-08-15T01:28:04.318Z,15,GR86-047-21,-0.1,0.147,-0.159,99.79,4.0,6531.0,0.0,0.0,
2025-08-15T01:28:04.361Z,15,GR86-047-21,-0.1,0.143,-0.141,99.79,4.0,,0.0,0.0,165.66
2025-08-15T01:28:04.405Z,15,GR86-047-21,-0.1,0.089,-0.118,99.79,4.0,,0.0,0.0,
2025-08-15T01:28:04.448Z,15,GR86-047-21,-1.0,0.099,-0.12,99.79,4.0,,0.0,0.0,
2025-08-15T01:28:04.492Z,15,GR86-047-21,-2.5,0.098,-0.147,99.8,4.0,,0.0,0.0,
2025-08-15T01:28:04.535Z,15,GR86-047-21,-3.9,0.131,-0.18,99.79,4.0,6581.0,0.0,0.0,
2025-08-15T01:28:04.578Z,15,GR86-047-21,-4.800000000000001,0.133,-0.203,99.78,4.0,,0.0,0.0,167.13
2025-08-15T01:28:04.621Z,15,GR86-047-21,-5.6000000000000005,0.147,-0.245,99.79,4.0,,0.0,0.0,
2025-08-15T01:28:04.665Z,15,GR86-047-21,-6.300000000000001,0.082,-0.286,99.78,4.0,,0.0,0.0,
2025-08-15T01:28:04.708Z,15,GR86-047-21,-6.6000000000000005,0.081,-0.319,99.8,4.0,,0.0,0.0,
2025-08-15T01:28:04.751Z,15,GR86-047-21,-6.9,0.091,-0.35,99.8,4.0,6636.0,0.0,0.0,
2025-08-15T01:28:04.796Z,15,GR86-047-21,-7.0,0.107,-0.371,99.8,4.0,,0.0,0.0,168.57
2025-08-15T01:28:04.838Z,15,GR86-047-21,-7.1000000000000005,0.108,-0.383,99.78,4.0,,0.0,0.0,
2025-08-15T01:28:04.881Z,15,GR86-047-21,-7.1000000000000005,0.13,-0.398,99.8,4.0,,0.0,0.0,
2025-08-15T01:28:04.925Z,15,GR86-047-21,-7.1000000000000005,0.098,-0.396,99.79,4.0,,0.0,0.0,
2025-08-15T01:28:04.968Z,15,GR86-047-21,-7.1000000000000005,0.092,-0.419,99.78,4.0,6692.0,0.0,0.0,
2025-08-15T01:28:05.011Z,15,GR86-047-21,-7.1000000000000005,0.1,-0.446,99.77,4.0,,0.0,0.0,169.89
2025-08-15T01:28:05.055Z,15,GR86-047-21,-7.1000000000000005,0.078,-0.463,99.77,4.0,,0.0,0.0,
2025-08-15T01:28:05.098Z,15,GR86-047-21,-7.1000000000000005,0.082,-0.467,99.79,4.0,,0.0,0.0,
2025-08-15T01:28:05.141Z,15,GR86-047-21,-7.1000000000000005,0.086,-0.484,99.79,4.0,,0.0,0.0,
2025-08-15T01:28:05.185Z,15,GR86-047-21,-7.1000000000000005,0.14,-0.423,99.79,4.0,6740.0,0.0,0.0,
2025-08-15T01:28:05.228Z,15,GR86-047-21,-7.2,0.118,-0.428,99.78,4.0,,0.0,0.0,171.14
2025-08-15T01:28:05.271Z,15,GR86-047-21,-7.2,0.131,-0.41,99.78,4.0,,0.0,0.0,
2025-08-15T01:28:05.315Z,15,GR86-047-21,-7.2,0.116,-0.392,99.79,4.0,,0.0,0.0,
2025-08-15T01:28:05.359Z,15,GR86-047-21,-7.2,0.108,-0.378,99.8,4.0,,0.0,0.0,
2025-08-15T01:28:05.401Z,15,GR86-047-21,-7.2,0.1,-0.37,99.78,4.0,6797.0,0.0,0.0,
2025-08-15T01:28:05.445Z,15,GR86-047-21,-7.2,0.118,-0.385,99.79,4.0,,0.0,0.0,172.41
2025-08-15T01:28:05.488Z,15,GR86-047-21,-7.2,0.145,-0.4,99.78,4.0,,0.0,0.0,
2025-08-15T01:28:05.531Z,15,GR86-047-21,-7.2,0.132,-0.411,99.76,4.0,,0.0,0.0,
2025-08-15T01:28:05.575Z,15,GR86-047-21,-7.2,0.136,-0.415,99.78,4.0,,0.0,0.0,
2025-08-15T01:28:05.617Z,15,GR86-047-21,-7.2,0.133,-0.423,99.78,4.0,6855.0,0.0,0.0,
2025-08-15T01:28:05.660Z,15,GR86-047-21,-7.2,0.146,-0.411,99.78,4.0,,0.0,0.0,173.79
2025-08-15T01:28:05.704Z,15,GR86-047-21,-7.2,0.063,-0.424,99.8,4.0,,0.0,0.0,
2025-08-15T01:28:05.746Z,15,GR86-047-21,-7.2,0.07,-0.425,99.8,4.0,,0.0,0.0,
2025-08-15T01:28:05.789Z,15,GR86-047-21,-7.2,0.077,-0.389,99.77,4.0,,0.0,0.0,
2025-08-15T01:28:05.834Z,15,GR86-047-21,-7.2,0.076,-0.375,99.79,4.0,6899.0,0.0,0.0,
2025-08-15T01:28:05.876Z,15,GR86-047-21,-7.2,0.077,-0.341,99.8,4.0,,0.0,0.0,175.01
2025-08-15T01:28:05.919Z,15,GR86-047-21,-7.2,0.073,-0.341,99.76,4.0,,0.0,0.0,
2025-08-15T01:28:05.962Z,15,GR86-047-21,-7.2,0.094,-0.305,99.79,4.0,,0.0,0.0,
2025-08-15T01:28:06.005Z,15,GR86-047-21,-6.0,0.127,-0.239,99.79,4.0,,0.0,0.0,
2025-08-15T01:28:06.048Z,15,GR86-047-21,-5.2,0.102,-0.228,99.4,4.0,6948.0,3.1,3.28,
2025-08-15T01:28:06.091Z,15,GR86-047-21,-4.4,0.111,-0.21,52.55,4.0,,8.635,8.805,177.65
2025-08-15T01:28:06.135Z,15,GR86-047-21,-3.6,0.039,-0.189,32.36,4.0,,16.25,16.19,
2025-08-15T01:28:06.178Z,15,GR86-047-21,-3.4000000000000004,-0.155,-0.17,4.42,4.0,,27.925,27.745,
2025-08-15T01:28:06.221Z,15,GR86-047-21,-3.4000000000000004,-0.507,-0.156,4.7,4.0,,44.97,44.56,
2025-08-15T01:28:06.265Z,15,GR86-047-21,-3.5,-1.206,-0.1,4.5600000000000005,4.0,6985.0,73.235,72.67,
2025-08-15T01:28:06.308Z,15,GR86-047-21,-3.5,-1.389,-0.09,4.3500000000000005,4.0,,87.865,87.865,178.51
2025-08-15T01:28:06.351Z,15,GR86-047-21,-3.5,-1.495,-0.121,4.18,4.0,,97.495,98.745,
2025-08-15T01:28:06.395Z,15,GR86-047-21,-3.5,-1.463,-0.074,3.91,4.0,,102.165,104.24,
2025-08-15T01:28:06.438Z,15,GR86-047-21,-2.6,-1.512,-0.108,8.03,4.0,,102.625,103.37,
2025-08-15T01:28:06.481Z,15,GR86-047-21,-1.3,-1.49,-0.091,46.27,4.0,7039.0,104.06,105.765,
2025-08-15T01:28:06.526Z,15,GR86-047-21,-1.3,-1.246,-0.142,99.54,4.0,,102.485,103.005,178.13
2025-08-15T01:28:06.568Z,15,GR86-047-21,-1.3,-1.282,-0.074,78.44,3.0,,104.18,104.365,
2025-08-15T01:28:06.612Z,15,GR86-047-21,-1.3,-1.379,-0.13,7.77,3.0,,103.615,106.09,
2025-08-15T01:28:06.655Z,15,GR86-047-21,-1.3,-1.379,-0.079,2.88,3.0,,100.58,103.095,
2025-08-15T01:28:06.698Z,15,GR86-047-21,-1.7000000000000002,-1.282,-0.237,2.81,3.0,6263.0,94.275,95.115,
2025-08-15T01:28:06.741Z,15,GR86-047-21,-1.7000000000000002,-1.405,-0.243,2.78,3.0,,89.485,91.345,167.94
2025-08-15T01:28:06.786Z,15,GR86-047-21,-2.9000000000000004,-1.281,-0.167,2.75,3.0,,80.315,82.08500000000001,
2025-08-15T01:28:06.828Z,15,GR86-047-21,-3.1,-1.197,-0.418,2.72,3.0,,70.83500000000001,71.83,
2025-08-15T01:28:06.871Z,15,GR86-047-21,-3.1,-1.13,-0.163,2.69,3.0,,67.905,69.495,
2025-08-15T01:28:06.915Z,15,GR86-047-21,-3.1,-0.985,-0.21,2.65,3.0,6716.0,66.825,68.595,
2025-08-15T01:28:06.959Z,15,GR86-047-21,-3.1,-1.174,-0.407,2.65,3.0,,62.75,63.71,155.84
2025-08-15T01:28:07.001Z,15,GR86-047-21,-3.1,-1.216,-0.203,2.62,3.0,,63.205,64.46000000000001,
2025-08-15T01:28:07.046Z,15,GR86-047-21,-3.3000000000000003,-1.277,-0.36,2.62,3.0,,67.69500000000001,69.02,
2025-08-15T01:28:07.088Z,15,GR86-047-21,-4.4,-1.219,-0.364,12.36,3.0,,69.83,70.395,
2025-08-15T01:28:07.131Z,15,GR86-047-21,-5.7,-1.141,-0.346,52.82,3.0,6634.0,72.365,72.96000000000001,
2025-08-15T01:28:07.175Z,15,GR86-047-21,-7.300000000000001,-1.231,-0.417,95.08,3.0,,75.965,77.37,148.19
2025-08-15T01:28:07.217Z,15,GR86-047-21,-8.200000000000001,-1.262,-0.418,99.81,3.0,,78.955,79.535,
2025-08-15T01:28:07.260Z,15,GR86-047-21,-8.9,-1.325,-0.542,70.46000000000001,2.0,,81.365,83.045,
2025-08-15T01:28:07.304Z,15,GR86-047-21,-8.9,-0.913,-0.776,3.15,2.0,,72.67,73.66,
2025-08-15T01:28:07.346Z,15,GR86-047-21,-7.800000000000001,-1.13,-0.585,2.81,2.0,6262.0,66.55,67.845,
2025-08-15T01:28:07.389Z,15,GR86-047-21,-5.7,-1.044,-0.527,2.76,2.0,,65.86,67.115,142.70000000000002
2025-08-15T01:28:07.432Z,15,GR86-047-21,-5.7,-0.733,-0.8260000000000001,2.75,2.0,,59.65,60.55,
2025-08-15T01:28:07.475Z,15,GR86-047-21,-6.0,-1.099,-0.809,2.75,2.0,,50.905,51.745000000000005,
2025-08-15T01:28:07.518Z,15,GR86-047-21,-6.2,-0.859,-0.608,2.72,2.0,,49.395,50.465,
2025-08-15T01:28:07.561Z,15,GR86-047-21,-12.8,-0.8260000000000001,-0.875,2.69,2.0,6882.0,46.435,47.335,
2025-08-15T01:28:07.605Z,15,GR86-047-21,-22.200000000000003,-0.8,-0.773,2.66,2.0,,37.86,38.625,135.72
2025-08-15T01:28:07.648Z,15,GR86-047-21,-26.700000000000003,-0.784,-0.8270000000000001,2.63,2.0,,37.325,38.255,
2025-08-15T01:28:07.692Z,15,GR86-047-21,-30.700000000000003,-0.759,-1.068,2.59,2.0,,38.47,39.645,
2025-08-15T01:28:07.735Z,15,GR86-047-21,-33.5,-0.8170000000000001,-0.867,2.56,2.0,,36.15,36.93,
2025-08-15T01:28:07.778Z,15,GR86-047-21,-33.7,-0.802,-0.865,2.5500000000000003,2.0,6891.0,36.305,37.295,
2025-08-15T01:28:07.821Z,15,GR86-047-21,-33.7,-0.8140000000000001,-0.935,2.54,2.0,,38.41,39.19,128.85
2025-08-15T01:28:07.865Z,15,GR86-047-21,-33.7,-0.802,-0.981,2.53,2.0,,33.345,34.215,
2025-08-15T01:28:07.908Z,15,GR86-047-21,-33.7,-0.6900000000000001,-0.978,2.53,2.0,,27.315,28.46,
2025-08-15T01:28:07.951Z,15,GR86-047-21,-33.7,-0.632,-0.967,2.53,2.0,,23.93,24.765,
2025-08-15T01:28:07.995Z,15,GR86-047-21,-35.2,-0.708,-1.048,2.52,2.0,6646.0,23.27,23.805,
2025-08-15T01:28:08.037Z,15,GR86-047-21,-37.0,-0.675,-1.052,2.5,2.0,,21.715,22.28,123.85
2025-08-15T01:28:08.080Z,15,GR86-047-21,-37.0,-0.5750000000000001,-1.136,2.49,2.0,,18.175,19.045,
2025-08-15T01:28:08.125Z,15,GR86-047-21,-37.0,-0.545,-1.122,2.5,2.0,,11.615,12.42,
2025-08-15T01:28:08.168Z,15,GR86-047-21,-37.0,-0.416,-1.179,2.5,2.0,,4.745,5.495,
2025-08-15T01:28:08.212Z,15,GR86-047-21,-37.0,-0.33,-1.242,2.49,2.0,6366.0,0.0,0.0,
2025-08-15T01:28:08.255Z,15,GR86-047-21,-37.0,-0.256,-1.209,2.49,2.0,,0.0,0.0,118.84
2025-08-15T01:28:08.298Z,15,GR86-047-21,-37.0,-0.213,-1.275,2.49,2.0,,0.0,0.0,
2025-08-15T01:28:08.341Z,15,GR86-047-21,-36.8,-0.21,-1.293,2.5,2.0,,0.0,0.0,
2025-08-15T01:28:08.385Z,15,GR86-047-21,-33.5,-0.211,-1.283,2.49,2.0,,0.0,0.0,
2025-08-15T01:28:08.428Z,15,GR86-047-21,-32.6,-0.193,-1.299,2.49,2.0,6201.0,0.0,0.0,
2025-08-15T01:28:08.471Z,15,GR86-047-21,-32.6,-0.199,-1.276,4.67,2.0,,0.0,0.0,114.67
2025-08-15T01:28:08.515Z,15,GR86-047-21,-32.6,-0.189,-1.265,18.96,2.0,,0.0,0.0,
2025-08-15T01:28:08.559Z,15,GR86-047-21,-32.7,-0.221,-1.334,23.67,2.0,,0.0,0.0,
2025-08-15T01:28:08.601Z,15,GR86-047-21,-34.7,-0.173,-1.318,28.2,2.0,,0.0,0.0,
2025-08-15T01:28:08.645Z,15,GR86-047-21,-47.0,-0.11,-1.3,29.46,2.0,6109.0,0.0,0.0,
2025-08-15T01:28:08.688Z,15,GR86-047-21,-53.0,-0.148,-1.386,30.43,2.0,,0.0,0.0,110.44
2025-08-15T01:28:08.731Z,15,GR86-047-21,-60.7,-0.061,-1.35,30.63,2.0,,0.0,0.0,
2025-08-15T01:28:08.775Z,15,GR86-047-21,-66.9,0.184,-1.415,30.74,2.0,,0.0,0.0,
2025-08-15T01:28:08.818Z,15,GR86-047-21,-71.2,0.147,-1.398,30.9,2.0,,0.0,0.0,
2025-08-15T01:28:08.861Z,15,GR86-047-21,-73.8,0.13,-1.356,32.14,2.0,6035.0,0.0,0.0,
2025-08-15T01:28:08.905Z,15,GR86-047-21,-76.10000000000001,0.053,-1.342,31.98,2.0,,0.0,0.0,108.81
2025-08-15T01:28:08.948Z,15,GR86-047-21,-78.5,0.04,-1.289,31.9,2.0,,0.0,0.0,
2025-08-15T01:28:08.992Z,15,GR86-047-21,-80.5,0.052,-1.265,31.83,2.0,,0.0,0.0,
2025-08-15T01:28:09.035Z,15,GR86-047-21,-82.5,-0.018,-1.171,31.84,2.0,,0.0,0.0,
2025-08-15T01:28:09.078Z,15,GR86-047-21,-82.9,0.122,-1.29,31.8,2.0,6175.0,0.0,0.0,
2025-08-15T01:28:09.121Z,15,GR86-047-21,-82.9,0.255,-1.286,31.51,2.0,,0.0,0.0,107.88
2025-08-15T01:28:09.165Z,15,GR86-047-21,-82.2,-0.183,-1.094,31.06,2.0,,0.0,0.0,
2025-08-15T01:28:09.251Z,15,GR86-047-21,-82.30000000000001,-0.077,-1.176,31.0,2.0,,0.0,0.0,
2025-08-15T01:28:09.296Z,15,GR86-047-21,-73.2,0.274,-1.151,31.51,2.0,6288.0,0.0,0.0,
2025-08-15T01:28:09.338Z,15,GR86-047-21,-67.2,0.283,-1.174,31.93,2.0,,0.0,0.0,107.85
2025-08-15T01:28:09.381Z,15,GR86-047-21,-63.6,0.223,-1.187,31.84,2.0,,0.0,0.0,
2025-08-15T01:28:09.425Z,15,GR86-047-21,-63.0,0.22,-1.165,31.95,2.0,,0.0,0.0,
2025-08-15T01:28:09.468Z,15,GR86-047-21,-63.0,0.368,-1.252,31.91,2.0,,0.0,0.0,
2025-08-15T01:28:09.512Z,15,GR86-047-21,-62.900000000000006,0.347,-1.263,31.96,2.0,6301.0,0.0,0.0,
2025-08-15T01:28:09.555Z,15,GR86-047-21,-62.400000000000006,0.233,-1.261,32.01,2.0,,0.0,0.0,108.21
2025-08-15T01:28:09.598Z,15,GR86-047-21,-59.5,0.121,-1.303,32.13,2.0,,0.0,0.0,
2025-08-15T01:28:09.641Z,15,GR86-047-21,-58.900000000000006,0.022,-1.144,32.160000000000004,2.0,,0.0,0.0,
2025-08-15T01:28:09.685Z,15,GR86-047-21,-59.0,0.442,-1.328,32.7,2.0,,0.0,0.0,
2025-08-15T01:28:09.728Z,15,GR86-047-21,-59.5,0.151,-1.12,35.21,2.0,6388.0,0.0,0.0,
2025-08-15T01:28:09.772Z,15,GR86-047-21,-61.2,0.062,-1.179,36.78,2.0,,0.0,0.0,108.71
2025-08-15T01:28:09.815Z,15,GR86-047-21,-65.3,-0.066,-1.151,34.43,2.0,,0.0,0.0,
2025-08-15T01:28:09.859Z,15,GR86-047-21,-69.7,-0.11,-1.081,34.18,2.0,,0.0,0.0,
2025-08-15T01:28:09.901Z,15,GR86-047-21,-70.7,-0.055,-1.115,36.36,2.0,,0.0,0.0,
2025-08-15T01:28:09.988Z,15,GR86-047-21,-67.4,0.129,-1.307,39.37,2.0,6414.0,0.0,0.0,109.13
2025-08-15T01:28:10.031Z,15,GR86-047-21,-48.2,0.158,-1.212,51.39,2.0,,0.0,0.0,
2025-08-15T01:28:10.075Z,15,GR86-047-21,-38.6,0.065,-1.236,53.27,2.0,,0.0,0.0,
2025-08-15T01:28:10.118Z,15,GR86-047-21,-31.3,0.155,-1.044,54.52,2.0,,0.0,0.0,
2025-08-15T01:28:10.161Z,15,GR86-047-21,-28.4,0.176,-1.195,59.69,2.0,6559.0,0.0,0.0,
2025-08-15T01:28:10.205Z,15,GR86-047-21,-28.4,0.239,-1.116,96.55,2.0,,0.0,0.0,109.07
2025-08-15T01:28:10.248Z,15,GR86-047-21,-28.5,0.207,-1.108,99.74,2.0,,0.0,0.0,
2025-08-15T01:28:10.335Z,15,GR86-047-21,-28.5,0.221,-1.158,99.74,2.0,,0.0,0.0,
2025-08-15T01:28:10.378Z,15,GR86-047-21,-22.5,0.218,-1.192,99.76,2.0,6474.0,0.0,0.0,
2025-08-15T01:28:10.421Z,15,GR86-047-21,-17.7,0.227,-1.271,99.76,2.0,,0.0,0.0,109.0
2025-08-15T01:28:10.465Z,15,GR86-047-21,-11.2,0.228,-1.273,99.74,2.0,,0.0,0.0,
2025-08-15T01:28:10.508Z,15,GR86-047-21,-7.9,0.234,-1.306,99.77,2.0,,0.0,0.0,
2025-08-15T01:28:10.551Z,15,GR86-047-21,-0.3,0.244,-1.309,99.76,2.0,,0.0,0.0,
2025-08-15T01:28:10.595Z,15,GR86-047-21,7.800000000000001,0.272,-1.135,99.76,2.0,6611.0,0.0,0.0,
2025-08-15T01:28:10.638Z,15,GR86-047-21,15.7,0.25,-1.131,99.76,2.0,,0.0,0.0,109.91
2025-08-15T01:28:10.681Z,15,GR86-047-21,21.6,0.219,-1.015,99.76,2.0,,0.0,0.0,
2025-08-15T01:28:10.726Z,15,GR86-047-21,22.8,0.245,-1.0,99.78,2.0,,0.0,0.0,
2025-08-15T01:28:10.768Z,15,GR86-047-21,19.5,0.282,-0.992,99.8,2.0,,0.0,0.0,
2025-08-15T01:28:10.811Z,15,GR86-047-21,12.1,0.277,-1.029,99.81,2.0,6705.0,0.0,0.0,
2025-08-15T01:28:10.855Z,15,GR86-047-21,0.5,0.271,-1.021,99.8,2.0,,0.0,0.0,111.02
2025-08-15T01:28:10.898Z,15,GR86-047-21,-13.7,0.262,-1.076,99.79,2.0,,0.0,0.0,
2025-08-15T01:28:10.941Z,15,GR86-047-21,-23.0,0.208,-1.11,99.79,2.0,,0.0,0.0,
2025-08-15T01:28:10.985Z,15,GR86-047-21,-30.8,0.228,-1.127,99.79,2.0,,0.0,0.0,
2025-08-15T01:28:11.028Z,15,GR86-047-21,-35.300000000000004,0.259,-1.079,99.79,2.0,6734.0,0.0,0.0,
2025-08-15T01:28:11.071Z,15,GR86-047-21,-37.3,0.213,-1.099,99.78,2.0,,0.0,0.0,112.41
2025-08-15T01:28:11.115Z,15,GR86-047-21,-38.400000000000006,0.198,-1.073,99.78,2.0,,0.0,0.0,
2025-08-15T01:28:11.159Z,15,GR86-047-21,-38.7,0.256,-1.108,99.76,2.0,,0.0,0.0,
2025-08-15T01:28:11.201Z,15,GR86-047-21,-38.900000000000006,0.24,-1.099,99.77,2.0,,0.0,0.0,
2025-08-15T01:28:11.246Z,15,GR86-047-21,-39.0,0.228,-1.143,99.78,2.0,6801.0,0.0,0.0,
2025-08-15T01:28:11.288Z,15,GR86-047-21,-39.0,0.181,-1.132,99.78,2.0,,0.0,0.0,113.63
2025-08-15T01:28:11.331Z,15,GR86-047-21,-39.1,0.206,-1.129,99.76,2.0,,0.0,0.0,
2025-08-15T01:28:11.375Z,15,GR86-047-21,-39.1,0.211,-1.108,99.78,2.0,,0.0,0.0,
2025-08-15T01:28:11.417Z,15,GR86-047-21,-39.1,0.179,-1.094,99.79,2.0,,0.0,0.0,
2025-08-15T01:28:11.462Z,15,GR86-047-21,-37.2,0.213,-1.051,99.79,2.0,6816.0,0.0,0.0,
2025-08-15T01:28:11.505Z,15,GR86-047-21,-34.6,0.231,-1.12,99.78,2.0,,0.0,0.0,115.16
2025-08-15T01:28:11.548Z,15,GR86-047-21,-33.4,0.184,-1.056,99.78,2.0,,0.0,0.0,
2025-08-15T01:28:11.591Z,15,GR86-047-21,-32.300000000000004,0.163,-0.995,99.77,2.0,,0.0,0.0,
2025-08-15T01:28:11.635Z,15,GR86-047-21,-30.5,0.176,-1.015,99.78,2.0,,0.0,0.0,
2025-08-15T01:28:11.678Z,15,GR86-047-21,-30.0,0.154,-0.8320000000000001,99.78,2.0,6829.0,0.0,0.0,
2025-08-15T01:28:11.721Z,15,GR86-047-21,-30.0,0.114,-0.745,99.77,2.0,,0.0,0.0,117.84
2025-08-15T01:28:11.765Z,15,GR86-047-21,-30.200000000000003,0.187,-0.872,99.78,2.0,,0.0,0.0,
2025-08-15T01:28:11.808Z,15,GR86-047-21,-30.200000000000003,0.236,-0.809,99.79,2.0,,0.0,0.0,
2025-08-15T01:28:11.851Z,15,GR86-047-21,-29.700000000000003,0.198,-0.878,99.77,2.0,,0.0,0.0,
2025-08-15T01:28:11.895Z,15,GR86-047-21,-28.200000000000003,0.213,-0.94,99.8,2.0,6976.0,0.0,0.0,
2025-08-15T01:28:11.938Z,15,GR86-047-21,-27.200000000000003,0.235,-0.991,99.78,2.0,,0.0,0.0,119.46
2025-08-15T01:28:11.981Z,15,GR86-047-21,-26.9,0.308,-0.903,99.79,2.0,,0.0,0.0,
2025-08-15T01:28:12.025Z,15,GR86-047-21,-26.1,0.259,-0.738,99.79,2.0,,0.0,0.0,
2025-08-15T01:28:12.068Z,15,GR86-047-21,-25.0,0.11,-0.902,99.77,2.0,,0.0,0.0,
2025-08-15T01:28:12.112Z,15,GR86-047-21,-24.4,0.136,-0.664,99.78,2.0,7096.0,0.0,0.0,
2025-08-15T01:28:12.155Z,15,GR86-047-21,-24.200000000000003,0.102,-0.845,99.77,2.0,,0.0,0.0,119.57
2025-08-15T01:28:12.198Z,15,GR86-047-21,-24.3,0.177,-0.892,99.78,2.0,,0.0,0.0,
2025-08-15T01:28:12.241Z,15,GR86-047-21,-24.4,0.266,-0.753,99.79,2.0,,0.0,0.0,
2025-08-15T01:28:12.286Z,15,GR86-047-21,-24.700000000000003,0.081,-0.704,99.79,2.0,,0.0,0.0,
2025-08-15T01:28:12.328Z,15,GR86-047-21,-24.700000000000003,0.106,-0.611,99.79,2.0,7118.0,0.0,0.0,
2025-08-15T01:28:12.371Z,15,GR86-047-21,-23.3,0.099,-0.558,99.78,2.0,,0.0,0.0,121.21
2025-08-15T01:28:12.415Z,15,GR86-047-21,-19.3,0.178,-0.709,99.77,2.0,,0.0,0.0,
2025-08-15T01:28:12.457Z,15,GR86-047-21,-14.0,-0.065,-0.634,99.78,3.0,,0.0,0.0,
2025-08-15T01:28:12.500Z,15,GR86-047-21,-10.3,-0.051,-0.577,99.79,3.0,,0.0,0.0,
2025-08-15T01:28:12.544Z,15,GR86-047-21,-5.0,0.511,-0.499,99.81,3.0,7211.0,0.0,0.0,
2025-08-15T01:28:12.586Z,15,GR86-047-21,-5.0,0.239,-0.498,99.78,3.0,,0.0,0.0,122.99
2025-08-15T01:28:12.629Z,15,GR86-047-21,-5.300000000000001,0.198,-0.162,99.77,3.0,,0.0,0.0,
2025-08-15T01:28:12.672Z,15,GR86-047-21,-5.300000000000001,-0.207,-0.359,99.78,3.0,,0.0,0.0,
2025-08-15T01:28:12.715Z,15,GR86-047-21,-4.2,0.321,-0.234,99.78,3.0,,0.0,0.0,
2025-08-15T01:28:12.759Z,15,GR86-047-21,-3.3000000000000003,0.246,-0.245,99.78,3.0,6821.0,0.0,0.0,
2025-08-15T01:28:12.801Z,15,GR86-047-21,-3.3000000000000003,0.346,-0.081,99.77,3.0,,0.0,0.0,124.21
2025-08-15T01:28:12.845Z,15,GR86-047-21,-3.4000000000000004,0.142,0.03,99.78,3.0,,0.0,0.0,
2025-08-15T01:28:12.888Z,15,GR86-047-21,-1.6,0.114,-0.097,99.78,3.0,,0.0,0.0,
2025-08-15T01:28:12.931Z,15,GR86-047-21,-0.8,0.192,-0.018,99.79,3.0,,0.0,0.0,
2025-08-15T01:28:12.975Z,15,GR86-047-21,-0.7000000000000001,0.204,-0.109,99.78,3.0,6007.0,0.0,0.0,
2025-08-15T01:28:13.018Z,15,GR86-047-21,-1.0,0.198,-0.015,99.79,3.0,,0.0,0.0,125.87
2025-08-15T01:28:13.061Z,15,GR86-047-21,-1.1,0.162,0.051,99.78,3.0,,0.0,0.0,
2025-08-15T01:28:13.105Z,15,GR86-047-21,-0.3,0.185,-0.017,99.78,3.0,,0.0,0.0,
2025-08-15T01:28:13.148Z,15,GR86-047-21,0.8,0.211,0.073,99.77,3.0,,0.0,0.0,
2025-08-15T01:28:13.192Z,15,GR86-047-21,1.2000000000000002,0.204,0.102,99.78,3.0,6073.0,0.0,0.0,
2025-08-15T01:28:13.235Z,15,GR86-047-21,1.4,0.187,0.068,99.79,3.0,,0.0,0.0,127.11
2025-08-15T01:28:13.278Z,15,GR86-047-21,1.6,0.164,0.063,99.79,3.0,,0.0,0.0,
2025-08-15T01:28:13.321Z,15,GR86-047-21,1.7000000000000002,0.179,0.122,99.79,3.0,,0.0,0.0,
2025-08-15T01:28:13.365Z,15,GR86-047-21,1.7000000000000002,0.19,0.067,99.78,3.0,,0.0,0.0,
2025-08-15T01:28:13.408Z,15,GR86-047-21,1.7000000000000002,0.239,0.083,99.79,3.0,6116.0,0.0,0.0,
2025-08-15T01:28:13.452Z,15,GR86-047-21,1.7000000000000002,0.192,0.076,99.79,3.0,,0.0,0.0,128.96
2025-08-15T01:28:13.496Z,15,GR86-047-21,1.7000000000000002,0.136,0.058,99.77,3.0,,0.0,0.0,
2025-08-15T01:28:13.538Z,15,GR86-047-21,1.7000000000000002,0.202,0.034,99.77,3.0,,0.0,0.0,
2025-08-15T01:28:13.581Z,15,GR86-047-21,1.7000000000000002,0.233,0.051,99.79,3.0,,0.0,0.0,
2025-08-15T01:28:13.625Z,15,GR86-047-21,1.7000000000000002,0.199,0.026,99.77,3.0,6125.0,0.0,0.0,
2025-08-15T01:28:13.668Z,15,GR86-047-21,1.7000000000000002,0.21,0.008,99.78,3.0,,0.0,0.0,130.28
2025-08-15T01:28:13.712Z,15,GR86-047-21,1.7000000000000002,0.169,0.0,99.79,3.0,,0.0,0.0,
2025-08-15T01:28:13.755Z,15,GR86-047-21,1.7000000000000002,0.199,0.0,99.77,3.0,,0.0,0.0,
2025-08-15T01:28:13.798Z,15,GR86-047-21,1.7000000000000002,0.201,0.03,99.79,3.0,,0.0,0.0,
2025-08-15T01:28:13.841Z,15,GR86-047-21,1.7000000000000002,0.194,-0.002,99.79,3.0,6190.0,0.0,0.0,
2025-08-15T01:28:13.885Z,15,GR86-047-21,1.6,0.205,0.021,99.8,3.0,,0.0,0.0,133.18
2025-08-15T01:28:13.928Z,15,GR86-047-21,1.7000000000000002,0.181,-0.008,99.76,3.0,,0.0,0.0,
2025-08-15T01:28:13.972Z,15,GR86-047-21,1.7000000000000002,0.175,-0.023,99.78,3.0,,0.0,0.0,
2025-08-15T01:28:14.015Z,15,GR86-047-21,1.7000000000000002,0.193,0.036,99.78,3.0,,0.0,0.0,
2025-08-15T01:28:14.059Z,15,GR86-047-21,1.7000000000000002,0.191,0.028,99.79,3.0,6244.0,0.0,0.0,
2025-08-15T01:28:14.101Z,15,GR86-047-21,1.6,0.196,0.012,99.78,3.0,,0.0,0.0,134.59
2025-08-15T01:28:14.145Z,15,GR86-047-21,1.6,0.182,0.024,99.81,3.0,,0.0,0.0,
2025-08-15T01:28:14.188Z,15,GR86-047-21,1.6,0.169,-0.01,99.79,3.0,,0.0,0.0,
2025-08-15T01:28:14.231Z,15,GR86-047-21,1.6,0.205,0.028,99.78,3.0,,0.0,0.0,
2025-08-15T01:28:14.275Z,15,GR86-047-21,1.6,0.191,0.04,99.78,3.0,6319.0,0.0,0.0,
2025-08-15T01:28:14.317Z,15,GR86-047-21,1.7000000000000002,0.183,0.029,99.77,3.0,,0.0,0.0,136.01
2025-08-15T01:28:14.360Z,15,GR86-047-21,1.6,0.18,0.008,99.79,3.0,,0.0,0.0,
2025-08-15T01:28:14.404Z,15,GR86-047-21,1.7000000000000002,0.179,0.011,99.78,3.0,,0.0,0.0,
2025-08-15T01:28:14.446Z,15,GR86-047-21,1.6,0.198,0.001,99.79,3.0,,0.0,0.0,
2025-08-15T01:28:14.489Z,15,GR86-047-21,1.6,0.195,0.029,99.77,3.0,6441.0,0.0,0.0,
2025-08-15T01:28:14.532Z,15,GR86-047-21,1.6,0.168,0.044,99.78,3.0,,0.0,0.0,137.35
2025-08-15T01:28:14.575Z,15,GR86-047-21,1.6,0.173,0.026,99.78,3.0,,0.0,0.0,
2025-08-15T01:28:14.618Z,15,GR86-047-21,1.6,0.197,0.008,99.78,3.0,,0.0,0.0,
2025-08-15T01:28:14.661Z,15,GR86-047-21,1.6,0.201,0.017,99.79,3.0,,0.0,0.0,
2025-08-15T01:28:14.705Z,15,GR86-047-21,1.6,0.183,-0.008,99.77,3.0,6501.0,0.0,0.0,
2025-08-15T01:28:14.748Z,15,GR86-047-21,1.6,0.213,0.018,99.79,3.0,,0.0,0.0,138.61
2025-08-15T01:28:14.792Z,15,GR86-047-21,1.6,0.165,0.023,99.78,3.0,,0.0,0.0,
2025-08-15T01:28:14.835Z,15,GR86-047-21,1.7000000000000002,0.16,-0.009,99.78,3.0,,0.0,0.0,
2025-08-15T01:28:14.878Z,15,GR86-047-21,1.7000000000000002,0.186,-0.043,99.79,3.0,,0.0,0.0,
2025-08-15T01:28:14.921Z,15,GR86-047-21,1.7000000000000002,0.21,-0.033,99.77,3.0,6554.0,0.0,0.0,
2025-08-15T01:28:14.965Z,15,GR86-047-21,1.6,0.196,-0.062,99.78,3.0,,0.0,0.0,140.02
2025-08-15T01:28:15.008Z,15,GR86-047-21,1.6,0.222,-0.029,99.79,3.0,,0.0,0.0,
2025-08-15T01:28:15.051Z,15,GR86-047-21,1.6,0.189,-0.029,99.78,3.0,,0.0,0.0,
2025-08-15T01:28:15.095Z,15,GR86-047-21,1.7000000000000002,0.141,-0.028,99.77,3.0,,0.0,0.0,
2025-08-15T01:28:15.138Z,15,GR86-047-21,1.6,0.157,-0.048,99.77,3.0,6617.0,0.0,0.0,
2025-08-15T01:28:15.181Z,15,GR86-047-21,1.6,0.212,-0.059,99.77,3.0,,0.0,0.0,141.33
2025-08-15T01:28:15.226Z,15,GR86-047-21,1.6,0.172,-0.055,99.79,3.0,,0.0,0.0,
2025-08-15T01:28:15.268Z,15,GR86-047-21,1.6,0.215,-0.047,99.79,3.0,,0.0,0.0,
2025-08-15T01:28:15.312Z,15,GR86-047-21,1.6,0.215,-0.042,99.79,3.0,,0.0,0.0,
2025-08-15T01:28:15.355Z,15,GR86-047-21,1.6,0.162,-0.024,99.78,3.0,6677.0,0.0,0.0,
2025-08-15T01:28:15.398Z,15,GR86-047-21,1.6,0.136,-0.038,99.78,3.0,,0.0,0.0,142.68
2025-08-15T01:28:15.441Z,15,GR86-047-21,1.6,0.165,-0.058,99.8,3.0,,0.0,0.0,
2025-08-15T01:28:15.486Z,15,GR86-047-21,1.6,0.127,-0.029,99.79,3.0,,0.0,0.0,
2025-08-15T01:28:15.528Z,15,GR86-047-21,1.6,0.172,-0.06,99.79,3.0,,0.0,0.0,
2025-08-15T01:28:15.572Z,15,GR86-047-21,1.6,0.209,-0.051,99.79,3.0,6744.0,0.0,0.0,
2025-08-15T01:28:15.615Z,15,GR86-047-21,1.6,0.237,-0.048,99.79,3.0,,0.0,0.0,143.94
2025-08-15T01:28:15.659Z,15,GR86-047-21,1.6,0.161,-0.054,99.78,3.0,,0.0,0.0,
2025-08-15T01:28:15.701Z,15,GR86-047-21,1.6,0.131,-0.062,99.76,3.0,,0.0,0.0,
2025-08-15T01:28:15.746Z,15,GR86-047-21,1.6,0.169,-0.063,99.79,3.0,,0.0,0.0,
2025-08-15T01:28:15.788Z,15,GR86-047-21,1.6,0.123,-0.07,99.78,3.0,6793.0,0.0,0.0,
2025-08-15T01:28:15.831Z,15,GR86-047-21,1.6,0.136,-0.093,99.77,3.0,,0.0,0.0,145.19
2025-08-15T01:28:15.875Z,15,GR86-047-21,1.6,0.191,-0.082,99.79,3.0,,0.0,0.0,
2025-08-15T01:28:15.917Z,15,GR86-047-21,1.6,0.227,-0.083,99.79,3.0,,0.0,0.0,
2025-08-15T01:28:15.961Z,15,GR86-047-21,1.6,0.192,-0.071,99.77,3.0,,0.0,0.0,
2025-08-15T01:28:16.005Z,15,GR86-047-21,1.6,0.217,-0.073,99.78,3.0,6857.0,0.0,0.0,
2025-08-15T01:28:16.048Z,15,GR86-047-21,1.6,0.216,-0.065,99.79,3.0,,0.0,0.0,146.4
2025-08-15T01:28:16.091Z,15,GR86-047-21,1.6,0.146,-0.056,99.79,3.0,,0.0,0.0,
2025-08-15T01:28:16.135Z,15,GR86-047-21,1.6,0.124,-0.067,99.79,3.0,,0.0,0.0,
2025-08-15T01:28:16.178Z,15,GR86-047-21,1.6,0.135,-0.066,99.78,3.0,,0.0,0.0,
2025-08-15T01:28:16.221Z,15,GR86-047-21,1.6,0.198,-0.048,99.78,3.0,6913.0,0.0,0.0,
2025-08-15T01:28:16.265Z,15,GR86-047-21,1.6,0.117,-0.043,99.78,3.0,,0.0,0.0,147.65
2025-08-15T01:28:16.308Z,15,GR86-047-21,1.6,0.16,-0.049,99.77,3.0,,0.0,0.0,
2025-08-15T01:28:16.351Z,15,GR86-047-21,1.6,0.225,-0.046,99.78,3.0,,0.0,0.0,
2025-08-15T01:28:16.395Z,15,GR86-047-21,1.6,0.212,-0.044,99.79,3.0,,0.0,0.0,
2025-08-15T01:28:16.438Z,15,GR86-047-21,1.6,0.178,-0.05,99.77,3.0,6965.0,0.0,0.0,
2025-08-15T01:28:16.482Z,15,GR86-047-21,1.6,0.11,-0.05,99.79,3.0,,0.0,0.0,148.83
2025-08-15T01:28:16.525Z,15,GR86-047-21,1.5,0.184,-0.061,99.78,3.0,,0.0,0.0,
2025-08-15T01:28:16.568Z,15,GR86-047-21,1.5,0.134,-0.077,99.77,3.0,,0.0,0.0,
2025-08-15T01:28:16.612Z,15,GR86-047-21,1.5,0.11,-0.076,99.79,3.0,,0.0,0.0,
2025-08-15T01:28:16.655Z,15,GR86-047-21,1.5,0.137,-0.074,99.76,3.0,7024.0,0.0,0.0,
2025-08-15T01:28:16.698Z,15,GR86-047-21,1.5,0.179,-0.073,99.77,3.0,,0.0,0.0,151.15
2025-08-15T01:28:16.741Z,15,GR86-047-21,1.4,0.224,-0.078,99.79,3.0,,0.0,0.0,
2025-08-15T01:28:16.785Z,15,GR86-047-21,1.3,0.145,-0.093,99.78,3.0,,0.0,0.0,
2025-08-15T01:28:16.828Z,15,GR86-047-21,1.3,0.201,-0.082,99.78,3.0,,0.0,0.0,
2025-08-15T01:28:16.871Z,15,GR86-047-21,1.3,0.219,-0.081,99.79,3.0,7075.0,0.0,0.0,
2025-08-15T01:28:16.915Z,15,GR86-047-21,1.3,0.193,-0.077,99.78,3.0,,0.0,0.0,152.3
2025-08-15T01:28:16.959Z,15,GR86-047-21,1.2000000000000002,0.136,-0.078,99.77,3.0,,0.0,0.0,
2025-08-15T01:28:17.001Z,15,GR86-047-21,1.2000000000000002,0.103,-0.083,99.78,3.0,,0.0,0.0,
2025-08-15T01:28:17.045Z,15,GR86-047-21,1.1,0.177,-0.074,99.75,3.0,,0.0,0.0,
2025-08-15T01:28:17.088Z,15,GR86-047-21,1.1,0.126,-0.096,99.78,3.0,7182.0,0.0,0.0,
2025-08-15T01:28:17.131Z,15,GR86-047-21,1.1,0.108,-0.096,99.79,3.0,,0.0,0.0,153.42000000000002
2025-08-15T01:28:17.175Z,15,GR86-047-21,1.0,0.112,-0.094,99.77,3.0,,0.0,0.0,
2025-08-15T01:28:17.218Z,15,GR86-047-21,1.0,0.161,-0.094,99.79,3.0,,0.0,0.0,
2025-08-15T01:28:17.261Z,15,GR86-047-21,0.9,0.195,-0.085,99.78,3.0,,0.0,0.0,
2025-08-15T01:28:17.305Z,15,GR86-047-21,0.8,0.064,-0.117,99.74,4.0,7239.0,0.0,0.0,
2025-08-15T01:28:17.348Z,15,GR86-047-21,0.4,-0.148,-0.086,99.79,4.0,,0.0,0.0,154.51
2025-08-15T01:28:17.392Z,15,GR86-047-21,0.2,0.5750000000000001,-0.088,99.77,4.0,,0.0,0.0,
2025-08-15T01:28:17.436Z,15,GR86-047-21,0.2,0.328,-0.181,99.78,4.0,,0.0,0.0,
2025-08-15T01:28:17.478Z,15,GR86-047-21,0.2,0.192,-0.096,99.76,4.0,,0.0,0.0,
2025-08-15T01:28:17.521Z,15,GR86-047-21,0.0,-0.027,-0.119,99.78,4.0,7282.0,0.0,0.0,
2025-08-15T01:28:17.565Z,15,GR86-047-21,0.0,0.196,-0.178,99.77,4.0,,0.0,0.0,155.71
2025-08-15T01:28:17.608Z,15,GR86-047-21,0.0,0.237,-0.094,99.78,4.0,,0.0,0.0,
2025-08-15T01:28:17.652Z,15,GR86-047-21,0.0,0.111,-0.197,99.79,4.0,,0.0,0.0,
2025-08-15T01:28:17.696Z,15,GR86-047-21,0.0,0.062,-0.172,99.79,4.0,,0.0,0.0,
2025-08-15T01:28:17.738Z,15,GR86-047-21,-0.1,0.098,-0.15,99.77,4.0,6034.0,0.0,0.0,
2025-08-15T01:28:17.825Z,15,GR86-047-21,-0.1,0.129,-0.173,99.79,4.0,,0.0,0.0,156.69
2025-08-15T01:28:17.911Z,15,GR86-047-21,-0.1,0.09,-0.174,99.78,4.0,,0.0,0.0,
2025-08-15T01:28:17.955Z,15,GR86-047-21,-0.1,0.127,-0.131,99.77,4.0,6182.0,0.0,0.0,
2025-08-15T01:28:17.998Z,15,GR86-047-21,-0.1,0.142,-0.108,99.76,4.0,,0.0,0.0,157.99
2025-08-15T01:28:18.041Z,15,GR86-047-21,0.0,0.148,-0.099,99.79,4.0,,0.0,0.0,
2025-08-15T01:28:18.085Z,15,GR86-047-21,0.0,0.12,-0.118,99.78,4.0,,0.0,0.0,
2025-08-15T01:28:18.128Z,15,GR86-047-21,-0.1,0.148,-0.11,99.79,4.0,,0.0,0.0,
2025-08-15T01:28:18.171Z,15,GR86-047-21,-0.1,0.145,-0.128,99.77,4.0,6253.0,0.0,0.0,
2025-08-15T01:28:18.215Z,15,GR86-047-21,-0.1,0.148,-0.115,99.79,4.0,,0.0,0.0,158.92000000000002
2025-08-15T01:28:18.259Z,15,GR86-047-21,-0.2,0.142,-0.135,99.78,4.0,,0.0,0.0,
2025-08-15T01:28:18.301Z,15,GR86-047-21,-0.2,0.132,-0.155,99.8,4.0,,0.0,0.0,
2025-08-15T01:28:18.345Z,15,GR86-047-21,-0.2,0.146,-0.133,99.78,4.0,,0.0,0.0,
2025-08-15T01:28:18.388Z,15,GR86-047-21,-0.2,0.143,-0.145,99.78,4.0,6293.0,0.0,0.0,
2025-08-15T01:28:18.432Z,15,GR86-047-21,-0.3,0.126,-0.176,99.77,4.0,,0.0,0.0,159.8
2025-08-15T01:28:18.475Z,15,GR86-047-21,-0.3,0.118,-0.187,99.79,4.0,,0.0,0.0,
2025-08-15T01:28:18.517Z,15,GR86-047-21,-0.3,0.099,-0.22,99.77,4.0,,0.0,0.0,
2025-08-15T01:28:18.560Z,15,GR86-047-21,-0.3,0.111,-0.201,99.79,4.0,,0.0,0.0,
2025-08-15T01:28:18.646Z,15,GR86-047-21,-0.3,0.118,-0.211,99.78,4.0,6333.0,0.0,0.0,160.70000000000002
2025-08-15T01:28:18.689Z,15,GR86-047-21,-0.3,0.1,-0.196,99.78,4.0,,0.0,0.0,
2025-08-15T01:28:18.732Z,15,GR86-047-21,-0.3,0.118,-0.189,99.77,4.0,,0.0,0.0,
2025-08-15T01:28:18.775Z,15,GR86-047-21,-0.3,0.106,-0.183,99.79,4.0,,0.0,0.0,
2025-08-15T01:28:18.818Z,15,GR86-047-21,-0.3,0.138,-0.167,99.77,4.0,6360.0,0.0,0.0,
2025-08-15T01:28:18.861Z,15,GR86-047-21,-0.3,0.127,-0.143,99.8,4.0,,0.0,0.0,161.67000000000002
2025-08-15T01:28:18.905Z,15,GR86-047-21,-0.3,0.101,-0.149,99.79,4.0,,0.0,0.0,
2025-08-15T01:28:18.948Z,15,GR86-047-21,-0.3,0.117,-0.143,99.77,4.0,,0.0,0.0,
2025-08-15T01:28:18.992Z,15,GR86-047-21,-0.3,0.129,-0.099,99.77,4.0,,0.0,0.0,
2025-08-15T01:28:19.035Z,15,GR86-047-21,-0.3,0.135,-0.085,99.78,4.0,6405.0,0.0,0.0,
2025-08-15T01:28:19.078Z,15,GR86-047-21,-0.3,0.146,-0.065,99.76,4.0,,0.0,0.0,162.64
2025-08-15T01:28:19.121Z,15,GR86-047-21,-0.3,0.14,-0.051,99.79,4.0,,0.0,0.0,
2025-08-15T01:28:19.165Z,15,GR86-047-21,-0.3,0.127,-0.078,99.78,4.0,,0.0,0.0,
2025-08-15T01:28:19.208Z,15,GR86-047-21,-0.3,0.146,-0.068,99.76,4.0,,0.0,0.0,
2025-08-15T01:28:19.252Z,15,GR86-047-21,-0.3,0.159,-0.068,99.76,4.0,6435.0,0.0,0.0,
2025-08-15T01:28:19.295Z,15,GR86-047-21,-0.3,0.15,-0.067,99.78,4.0,,0.0,0.0,164.47
2025-08-15T01:28:19.338Z,15,GR86-047-21,-0.3,0.132,-0.074,99.77,4.0,,0.0,0.0,
2025-08-15T01:28:19.381Z,15,GR86-047-21,-0.3,0.115,-0.075,99.77,4.0,,0.0,0.0,
2025-08-15T01:28:19.426Z,15,GR86-047-21,-0.3,0.14,-0.097,99.76,4.0,,0.0,0.0,
2025-08-15T01:28:19.468Z,15,GR86-047-21,-0.3,0.164,-0.11,99.76,4.0,6473.0,0.0,0.0,
2025-08-15T01:28:19.511Z,15,GR86-047-21,-0.3,0.155,-0.119,99.76,4.0,,0.0,0.0,165.46
2025-08-15T01:28:19.555Z,15,GR86-047-21,-0.3,0.144,-0.135,99.78,4.0,,0.0,0.0,
2025-08-15T01:28:19.598Z,15,GR86-047-21,-0.3,0.122,-0.146,99.78,4.0,,0.0,0.0,
2025-08-15T01:28:19.640Z,15,GR86-047-21,-0.3,0.105,-0.135,99.77,4.0,,0.0,0.0,
2025-08-15T01:28:19.686Z,15,GR86-047-21,-0.3,0.145,-0.15,99.77,4.0,6546.0,0.0,0.0,
2025-08-15T01:28:19.728Z,15,GR86-047-21,-0.3,0.172,-0.141,99.77,4.0,,0.0,0.0,166.4
2025-08-15T01:28:19.771Z,15,GR86-047-21,-0.3,0.151,-0.12,99.77,4.0,,0.0,0.0,
2025-08-15T01:28:19.815Z,15,GR86-047-21,-0.3,0.153,-0.13,99.78,4.0,,0.0,0.0,
2025-08-15T01:28:19.859Z,15,GR86-047-21,-0.3,0.116,-0.13,99.78,4.0,,0.0,0.0,
2025-08-15T01:28:19.901Z,15,GR86-047-21,-0.3,0.115,-0.135,99.77,4.0,6588.0,0.0,0.0,
2025-08-15T01:28:19.946Z,15,GR86-047-21,-0.3,0.149,-0.133,99.78,4.0,,0.0,0.0,167.43
2025-08-15T01:28:19.988Z,15,GR86-047-21,-0.3,0.165,-0.121,99.78,4.0,,0.0,0.0,
2025-08-15T01:28:20.031Z,15,GR86-047-21,-0.3,0.156,-0.138,99.77,4.0,,0.0,0.0,
2025-08-15T01:28:20.075Z,15,GR86-047-21,-0.3,0.16,-0.152,99.77,4.0,,0.0,0.0,
2025-08-15T01:28:20.118Z,15,GR86-047-21,-0.3,0.139,-0.154,99.77,4.0,6629.0,0.0,0.0,
2025-08-15T01:28:20.161Z,15,GR86-047-21,-0.3,0.117,-0.151,99.78,4.0,,0.0,0.0,168.39
2025-08-15T01:28:20.205Z,15,GR86-047-21,-0.3,0.139,-0.167,99.77,4.0,,0.0,0.0,
2025-08-15T01:28:20.248Z,15,GR86-047-21,-0.3,0.152,-0.167,99.77,4.0,,0.0,0.0,
2025-08-15T01:28:20.291Z,15,GR86-047-21,-0.3,0.157,-0.158,99.77,4.0,,0.0,0.0,
2025-08-15T01:28:20.335Z,15,GR86-047-21,-0.4,0.169,-0.156,99.77,4.0,6659.0,0.0,0.0,
2025-08-15T01:28:20.378Z,15,GR86-047-21,-0.4,0.148,-0.158,99.74,4.0,,0.0,0.0,169.41
2025-08-15T01:28:20.421Z,15,GR86-047-21,-0.4,0.164,-0.156,99.75,4.0,,0.0,0.0,
2025-08-15T01:28:20.465Z,15,GR86-047-21,-0.4,0.102,-0.157,99.77,4.0,,0.0,0.0,
2025-08-15T01:28:20.508Z,15,GR86-047-21,-0.4,0.116,-0.143,99.77,4.0,,0.0,0.0,
2025-08-15T01:28:20.551Z,15,GR86-047-21,-0.4,0.136,-0.123,99.79,4.0,6692.0,0.0,0.0,
2025-08-15T01:28:20.595Z,15,GR86-047-21,-0.4,0.124,-0.113,99.79,4.0,,0.0,0.0,170.44
2025-08-15T01:28:20.637Z,15,GR86-047-21,-0.4,0.162,-0.122,99.77,4.0,,0.0,0.0,
2025-08-15T01:28:20.680Z,15,GR86-047-21,-0.4,0.163,-0.109,99.77,4.0,,0.0,0.0,
2025-08-15T01:28:20.724Z,15,GR86-047-21,-0.4,0.078,-0.147,99.75,4.0,,0.0,0.0,
2025-08-15T01:28:20.766Z,15,GR86-047-21,-0.5,0.068,-0.154,99.76,4.0,6739.0,0.0,0.0,
2025-08-15T01:28:20.809Z,15,GR86-047-21,-0.5,0.087,-0.186,99.78,4.0,,0.0,0.0,171.36
2025-08-15T01:28:20.852Z,15,GR86-047-21,-0.7000000000000001,0.096,-0.185,99.78,4.0,,0.0,0.0,
2025-08-15T01:28:20.896Z,15,GR86-047-21,-1.0,0.088,-0.185,99.78,4.0,,0.0,0.0,
2025-08-15T01:28:20.938Z,15,GR86-047-21,-1.2000000000000002,0.129,-0.197,99.78,4.0,,0.0,0.0,
2025-08-15T01:28:20.981Z,15,GR86-047-21,-1.2000000000000002,0.125,-0.212,99.77,4.0,6780.0,0.0,0.0,
2025-08-15T01:28:21.025Z,15,GR86-047-21,-1.3,0.074,-0.224,99.78,4.0,,0.0,0.0,172.26
2025-08-15T01:28:21.068Z,15,GR86-047-21,-1.2000000000000002,0.071,-0.214,99.78,4.0,,0.0,0.0,
2025-08-15T01:28:21.112Z,15,GR86-047-21,-1.2000000000000002,0.058,-0.212,99.78,4.0,,0.0,0.0,
2025-08-15T01:28:21.155Z,15,GR86-047-21,-1.2000000000000002,0.056,-0.2,99.78,4.0,,0.0,0.0,
2025-08-15T01:28:21.198Z,15,GR86-047-21,-1.2000000000000002,0.064,-0.188,99.77,4.0,6813.0,0.0,0.0,
2025-08-15T01:28:21.241Z,15,GR86-047-21,-1.2000000000000002,0.051,-0.2,99.78,4.0,,0.0,0.0,173.18
2025-08-15T01:28:21.286Z,15,GR86-047-21,-1.3,0.157,-0.149,99.77,4.0,,0.0,0.0,
2025-08-15T01:28:21.328Z,15,GR86-047-21,-1.3,0.134,-0.175,99.76,4.0,,0.0,0.0,
2025-08-15T01:28:21.371Z,15,GR86-047-21,-1.4,0.127,-0.158,99.77,4.0,,0.0,0.0,
2025-08-15T01:28:21.415Z,15,GR86-047-21,-1.5,0.12,-0.186,99.77,4.0,6844.0,0.0,0.0,
2025-08-15T01:28:21.457Z,15,GR86-047-21,-1.6,0.122,-0.205,99.77,4.0,,0.0,0.0,174.08
2025-08-15T01:28:21.501Z,15,GR86-047-21,-1.7000000000000002,0.107,-0.199,99.77,4.0,,0.0,0.0,
2025-08-15T01:28:21.544Z,15,GR86-047-21,-1.7000000000000002,0.121,-0.231,99.78,4.0,,0.0,0.0,
2025-08-15T01:28:21.586Z,15,GR86-047-21,-1.7000000000000002,0.109,-0.23,99.76,4.0,,0.0,0.0,
2025-08-15T01:28:21.629Z,15,GR86-047-21,-1.7000000000000002,0.141,-0.243,99.77,4.0,6891.0,0.0,0.0,
2025-08-15T01:28:21.672Z,15,GR86-047-21,-1.7000000000000002,0.141,-0.24,99.79,4.0,,0.0,0.0,175.11
2025-08-15T01:28:21.715Z,15,GR86-047-21,-1.7000000000000002,0.152,-0.224,99.77,4.0,,0.0,0.0,
2025-08-15T01:28:21.759Z,15,GR86-047-21,-1.7000000000000002,0.133,-0.238,99.78,4.0,,0.0,0.0,
2025-08-15T01:28:21.801Z,15,GR86-047-21,-1.7000000000000002,0.146,-0.235,99.78,4.0,,0.0,0.0,
2025-08-15T01:28:21.845Z,15,GR86-047-21,-1.7000000000000002,0.077,-0.232,99.77,4.0,6923.0,0.0,0.0,
2025-08-15T01:28:21.888Z,15,GR86-047-21,-1.7000000000000002,0.06,-0.207,99.76,4.0,,0.0,0.0,176.86
2025-08-15T01:28:21.931Z,15,GR86-047-21,-1.7000000000000002,0.064,-0.192,99.75,4.0,,0.0,0.0,
2025-08-15T01:28:21.975Z,15,GR86-047-21,-1.7000000000000002,0.072,-0.2,99.75,4.0,,0.0,0.0,
2025-08-15T01:28:22.018Z,15,GR86-047-21,-1.8,0.045,-0.199,99.76,4.0,,0.0,0.0,
2025-08-15T01:28:22.061Z,15,GR86-047-21,-1.8,0.065,-0.207,99.76,4.0,6964.0,0.0,0.0,
2025-08-15T01:28:22.105Z,15,GR86-047-21,-1.9,0.133,-0.211,99.77,4.0,,0.0,0.0,177.78
2025-08-15T01:28:22.148Z,15,GR86-047-21,-1.9,0.123,-0.207,99.79,4.0,,0.0,0.0,
2025-08-15T01:28:22.192Z,15,GR86-047-21,-1.9,0.109,-0.202,99.77,4.0,,0.0,0.0,
2025-08-15T01:28:22.235Z,15,GR86-047-21,-1.9,0.123,-0.172,99.77,4.0,,0.0,0.0,
2025-08-15T01:28:22.278Z,15,GR86-047-21,-1.9,0.13,-0.165,99.78,4.0,6988.0,0.0,0.0,
2025-08-15T01:28:22.321Z,15,GR86-047-21,-1.9,0.101,-0.176,99.75,4.0,,0.0,0.0,178.64
2025-08-15T01:28:22.365Z,15,GR86-047-21,-2.0,0.077,-0.196,99.77,4.0,,0.0,0.0,
2025-08-15T01:28:22.408Z,15,GR86-047-21,-2.0,0.086,-0.196,99.76,4.0,,0.0,0.0,
2025-08-15T01:28:22.451Z,15,GR86-047-21,-1.9,0.085,-0.199,99.78,4.0,,0.0,0.0,
2025-08-15T01:28:22.496Z,15,GR86-047-21,-1.9,0.084,-0.21,99.79,4.0,7055.0,0.0,0.0,
2025-08-15T01:28:22.538Z,15,GR86-047-21,-1.9,0.081,-0.219,99.76,4.0,,0.0,0.0,179.51
2025-08-15T01:28:22.581Z,15,GR86-047-21,-2.0,0.075,-0.223,99.77,4.0,,0.0,0.0,
2025-08-15T01:28:22.625Z,15,GR86-047-21,-2.0,0.089,-0.214,99.77,4.0,,0.0,0.0,
2025-08-15T01:28:22.668Z,15,GR86-047-21,-2.0,0.103,-0.2,99.78,4.0,,0.0,0.0,
2025-08-15T01:28:22.711Z,15,GR86-047-21,-2.0,0.087,-0.185,99.79,4.0,7075.0,0.0,0.0,
2025-08-15T01:28:22.755Z,15,GR86-047-21,-2.0,0.1,-0.181,99.76,4.0,,0.0,0.0,180.3
2025-08-15T01:28:22.798Z,15,GR86-047-21,-2.0,0.096,-0.179,99.76,4.0,,0.0,0.0,
2025-08-15T01:28:22.841Z,15,GR86-047-21,-2.0,0.095,-0.17,99.75,4.0,,0.0,0.0,
2025-08-15T01:28:22.885Z,15,GR86-047-21,-2.0,0.088,-0.167,99.77,4.0,,0.0,0.0,
2025-08-15T01:28:22.928Z,15,GR86-047-21,-2.0,0.101,-0.169,99.75,4.0,7108.0,0.0,0.0,
2025-08-15T01:28:22.971Z,15,GR86-047-21,-2.0,0.084,-0.166,99.77,4.0,,0.0,0.0,181.13
2025-08-15T01:28:23.015Z,15,GR86-047-21,-2.0,0.092,-0.169,99.76,4.0,,0.0,0.0,
2025-08-15T01:28:23.059Z,15,GR86-047-21,-2.0,0.091,-0.158,99.76,4.0,,0.0,0.0,
2025-08-15T01:28:23.101Z,15,GR86-047-21,-2.0,0.093,-0.162,99.78,4.0,,0.0,0.0,
2025-08-15T01:28:23.145Z,15,GR86-047-21,-2.0,0.097,-0.167,99.76,4.0,7145.0,0.0,0.0,
2025-08-15T01:28:23.188Z,15,GR86-047-21,-2.0,0.094,-0.162,99.79,4.0,,0.0,0.0,181.95
2025-08-15T01:28:23.231Z,15,GR86-047-21,-2.0,0.089,-0.16,99.76,4.0,,0.0,0.0,
2025-08-15T01:28:23.275Z,15,GR86-047-21,-2.0,0.087,-0.154,99.79,4.0,,0.0,0.0,
2025-08-15T01:28:23.318Z,15,GR86-047-21,-2.0,0.104,-0.146,99.75,4.0,,0.0,0.0,
2025-08-15T01:28:23.361Z,15,GR86-047-21,-2.0,0.083,-0.151,99.77,4.0,7172.0,0.0,0.0,
2025-08-15T01:28:23.405Z,15,GR86-047-21,-2.0,0.095,-0.165,99.77,4.0,,0.0,0.0,182.8
2025-08-15T01:28:23.448Z,15,GR86-047-21,-2.0,0.103,-0.178,99.77,4.0,,0.0,0.0,
2025-08-15T01:28:23.491Z,15,GR86-047-21,-2.0,0.097,-0.184,99.77,4.0,,0.0,0.0,
2025-08-15T01:28:23.535Z,15,GR86-047-21,-2.0,0.109,-0.183,99.76,4.0,,0.0,0.0,
2025-08-15T01:28:23.578Z,15,GR86-047-21,-2.0,0.099,-0.17,99.76,4.0,7206.0,0.0,0.0,
2025-08-15T01:28:23.621Z,15,GR86-047-21,-2.0,0.103,-0.17,99.77,4.0,,0.0,0.0,183.54
2025-08-15T01:28:23.665Z,15,GR86-047-21,-2.0,0.075,-0.147,99.76,4.0,,0.0,0.0,
2025-08-15T01:28:23.708Z,15,GR86-047-21,-2.0,0.001,-0.152,99.75,5.0,,0.0,0.0,
2025-08-15T01:28:23.751Z,15,GR86-047-21,-2.0,-0.168,-0.104,99.78,5.0,,0.0,0.0,
2025-08-15T01:28:23.795Z,15,GR86-047-21,-2.0,0.408,-0.114,99.77,5.0,7241.0,0.0,0.0,
2025-08-15T01:28:23.839Z,15,GR86-047-21,-2.0,0.125,-0.178,99.76,5.0,,0.0,0.0,184.29
2025-08-15T01:28:23.881Z,15,GR86-047-21,-2.0,-0.005,-0.065,99.78,5.0,,0.0,0.0,
2025-08-15T01:28:23.926Z,15,GR86-047-21,-2.0,0.067,-0.162,99.77,5.0,,0.0,0.0,
2025-08-15T01:28:23.968Z,15,GR86-047-21,-2.0,0.17,-0.153,99.78,5.0,,0.0,0.0,
2025-08-15T01:28:24.012Z,15,GR86-047-21,-2.0,0.053,-0.095,99.75,5.0,7265.0,0.0,0.0,
2025-08-15T01:28:24.055Z,15,GR86-047-21,-2.0,0.067,-0.161,99.77,5.0,,0.0,0.0,185.13
2025-08-15T01:28:24.098Z,15,GR86-047-21,-2.0,0.064,-0.145,99.76,5.0,,0.0,0.0,
2025-08-15T01:28:24.141Z,15,GR86-047-21,-2.0,0.089,-0.125,99.77,5.0,,0.0,0.0,
2025-08-15T01:28:24.186Z,15,GR86-047-21,-2.0,0.091,-0.162,99.76,5.0,,0.0,0.0,
2025-08-15T01:28:24.228Z,15,GR86-047-21,-2.0,0.106,-0.139,99.78,5.0,6233.0,0.0,0.0,
2025-08-15T01:28:24.271Z,15,GR86-047-21,-2.0,0.122,-0.155,99.78,5.0,,0.0,0.0,185.84
2025-08-15T01:28:24.315Z,15,GR86-047-21,-2.0,0.097,-0.149,99.76,5.0,,0.0,0.0,
2025-08-15T01:28:24.359Z,15,GR86-047-21,-2.0,0.115,-0.167,99.76,5.0,,0.0,0.0,
2025-08-15T01:28:24.401Z,15,GR86-047-21,-2.0,0.101,-0.158,99.77,5.0,,0.0,0.0,
2025-08-15T01:28:24.446Z,15,GR86-047-21,-2.0,0.044,-0.15,99.78,5.0,6360.0,0.0,0.0,
2025-08-15T01:28:24.488Z,15,GR86-047-21,-2.0,0.071,-0.15,99.76,5.0,,0.0,0.0,187.38
2025-08-15T01:28:24.531Z,15,GR86-047-21,-2.0,0.072,-0.127,99.78,5.0,,0.0,0.0,
2025-08-15T01:28:24.575Z,15,GR86-047-21,-2.0,0.086,-0.136,99.78,5.0,,0.0,0.0,
2025-08-15T01:28:24.618Z,15,GR86-047-21,-2.0,0.08,-0.118,99.76,5.0,,0.0,0.0,
2025-08-15T01:28:24.661Z,15,GR86-047-21,-2.0,0.103,-0.122,99.77,5.0,6371.0,0.0,0.0,
2025-08-15T01:28:24.705Z,15,GR86-047-21,-2.0,0.044,-0.094,99.76,5.0,,0.0,0.0,188.12
2025-08-15T01:28:24.748Z,15,GR86-047-21,-1.9,0.039,-0.095,99.77,5.0,,0.0,0.0,
2025-08-15T01:28:24.791Z,15,GR86-047-21,-1.8,0.043,-0.086,99.77,5.0,,0.0,0.0,
2025-08-15T01:28:24.835Z,15,GR86-047-21,-1.8,0.031,-0.073,99.76,5.0,,0.0,0.0,
2025-08-15T01:28:24.878Z,15,GR86-047-21,-1.8,0.049,-0.059,99.78,5.0,6399.0,0.0,0.0,
2025-08-15T01:28:24.921Z,15,GR86-047-21,-1.8,0.047,-0.054,99.75,5.0,,0.0,0.0,188.89
2025-08-15T01:28:24.965Z,15,GR86-047-21,-1.8,0.087,-0.057,99.76,5.0,,0.0,0.0,
2025-08-15T01:28:25.008Z,15,GR86-047-21,-1.8,0.082,-0.055,99.77,5.0,,0.0,0.0,
2025-08-15T01:28:25.051Z,15,GR86-047-21,-1.8,0.069,-0.058,99.76,5.0,,0.0,0.0,
2025-08-15T01:28:25.095Z,15,GR86-047-21,-1.8,0.065,-0.041,99.76,5.0,6448.0,0.0,0.0,
2025-08-15T01:28:25.138Z,15,GR86-047-21,-1.8,0.035,-0.046,99.77,5.0,,0.0,0.0,189.67
2025-08-15T01:28:25.181Z,15,GR86-047-21,-1.8,0.044,-0.06,99.76,5.0,,0.0,0.0,
2025-08-15T01:28:25.225Z,15,GR86-047-21,-1.8,0.105,-0.062,99.77,5.0,,0.0,0.0,
2025-08-15T01:28:25.268Z,15,GR86-047-21,-1.8,0.11,-0.061,99.75,5.0,,0.0,0.0,
2025-08-15T01:28:25.312Z,15,GR86-047-21,-1.8,0.104,-0.075,99.78,5.0,6464.0,0.0,0.0,
2025-08-15T01:28:25.355Z,15,GR86-047-21,-1.7000000000000002,0.074,-0.069,99.77,5.0,,0.0,0.0,190.26
2025-08-15T01:28:25.398Z,15,GR86-047-21,-1.7000000000000002,0.094,-0.067,99.75,5.0,,0.0,0.0,
2025-08-15T01:28:25.441Z,15,GR86-047-21,-1.7000000000000002,0.057,-0.064,99.78,5.0,,0.0,0.0,
2025-08-15T01:28:25.485Z,15,GR86-047-21,-1.7000000000000002,0.084,-0.064,99.76,5.0,,0.0,0.0,
2025-08-15T01:28:25.528Z,15,GR86-047-21,-1.8,0.122,-0.062,99.78,5.0,6492.0,0.0,0.0,
2025-08-15T01:28:25.571Z,15,GR86-047-21,-1.7000000000000002,0.107,-0.062,99.75,5.0,,0.0,0.0,190.92
2025-08-15T01:28:25.615Z,15,GR86-047-21,-1.7000000000000002,0.107,-0.067,99.75,5.0,,0.0,0.0,
2025-08-15T01:28:25.659Z,15,GR86-047-21,-1.7000000000000002,0.116,-0.073,99.76,5.0,,0.0,0.0,
2025-08-15T01:28:25.701Z,15,GR86-047-21,-1.7000000000000002,0.081,-0.066,99.77,5.0,,0.0,0.0,
2025-08-15T01:28:25.745Z,15,GR86-047-21,-1.7000000000000002,0.066,-0.086,99.76,5.0,6517.0,0.0,0.0,
2025-08-15T01:28:25.788Z,15,GR86-047-21,-1.7000000000000002,0.068,-0.074,99.76,5.0,,0.0,0.0,191.62
2025-08-15T01:28:25.831Z,15,GR86-047-21,-1.7000000000000002,0.077,-0.085,99.75,5.0,,0.0,0.0,
2025-08-15T01:28:25.875Z,15,GR86-047-21,-1.7000000000000002,0.109,-0.095,99.76,5.0,,0.0,0.0,
2025-08-15T01:28:25.918Z,15,GR86-047-21,-1.7000000000000002,0.097,-0.077,99.78,5.0,,0.0,0.0,
2025-08-15T01:28:25.961Z,15,GR86-047-21,-1.7000000000000002,0.113,-0.078,99.75,5.0,6534.0,0.0,0.0,
2025-08-15T01:28:26.005Z,15,GR86-047-21,-1.7000000000000002,0.046,-0.091,99.78,5.0,,0.0,0.0,192.22
2025-08-15T01:28:26.048Z,15,GR86-047-21,-1.7000000000000002,0.034,-0.091,99.74,5.0,,0.0,0.0,
2025-08-15T01:28:26.092Z,15,GR86-047-21,-1.7000000000000002,0.084,-0.098,99.76,5.0,,0.0,0.0,
2025-08-15T01:28:26.135Z,15,GR86-047-21,-1.7000000000000002,0.06,-0.11,99.77,5.0,,0.0,0.0,
2025-08-15T01:28:26.178Z,15,GR86-047-21,-1.7000000000000002,0.1,-0.108,99.74,5.0,6562.0,0.0,0.0,
2025-08-15T01:28:26.221Z,15,GR86-047-21,-1.7000000000000002,0.107,-0.084,99.75,5.0,,0.0,0.0,192.8
2025-08-15T01:28:26.265Z,15,GR86-047-21,-1.7000000000000002,0.025,-0.087,99.75,5.0,,0.0,0.0,
2025-08-15T01:28:26.308Z,15,GR86-047-21,-1.6,0.03,-0.096,99.75,5.0,,0.0,0.0,
2025-08-15T01:28:26.352Z,15,GR86-047-21,-1.5,0.065,-0.098,99.76,5.0,,0.0,0.0,
2025-08-15T01:28:26.396Z,15,GR86-047-21,-1.5,0.077,-0.068,99.76,5.0,6580.0,0.0,0.0,
2025-08-15T01:28:26.438Z,15,GR86-047-21,-1.5,0.085,-0.051,99.77,5.0,,0.0,0.0,193.47
2025-08-15T01:28:26.482Z,15,GR86-047-21,-1.4,0.107,-0.051,99.76,5.0,,0.0,0.0,
2025-08-15T01:28:26.525Z,15,GR86-047-21,-1.3,0.036,-0.049,99.77,5.0,,0.0,0.0,
2025-08-15T01:28:26.568Z,15,GR86-047-21,-1.3,0.035,-0.039,99.75,5.0,,0.0,0.0,
2025-08-15T01:28:26.611Z,15,GR86-047-21,-1.3,0.035,-0.019,99.76,5.0,6597.0,0.0,0.0,
2025-08-15T01:28:26.655Z,15,GR86-047-21,-1.2000000000000002,0.087,-0.024,99.75,5.0,,0.0,0.0,194.1
2025-08-15T01:28:26.698Z,15,GR86-047-21,-1.3,0.079,-0.027,99.75,5.0,,0.0,0.0,
2025-08-15T01:28:26.741Z,15,GR86-047-21,-1.3,0.095,-0.02,99.75,5.0,,0.0,0.0,
2025-08-15T01:28:26.785Z,15,GR86-047-21,-1.3,0.04,-0.022,99.74,5.0,,0.0,0.0,
2025-08-15T01:28:26.828Z,15,GR86-047-21,-1.2000000000000002,0.041,-0.021,99.75,5.0,6620.0,0.0,0.0,
2025-08-15T01:28:26.871Z,15,GR86-047-21,-1.2000000000000002,0.047,-0.033,99.75,5.0,,0.0,0.0,194.63
2025-08-15T01:28:26.915Z,15,GR86-047-21,-1.2000000000000002,0.069,-0.025,99.77,5.0,,0.0,0.0,
2025-08-15T01:28:26.959Z,15,GR86-047-21,-1.3,0.092,-0.028,99.77,5.0,,0.0,0.0,
2025-08-15T01:28:27.001Z,15,GR86-047-21,-1.3,0.089,-0.049,99.77,5.0,,0.0,0.0,
2025-08-15T01:28:27.045Z,15,GR86-047-21,-1.2000000000000002,0.036,-0.057,99.76,5.0,6642.0,0.0,0.0,
2025-08-15T01:28:27.088Z,15,GR86-047-21,-1.2000000000000002,0.035,-0.054,99.75,5.0,,0.0,0.0,195.81
2025-08-15T01:28:27.131Z,15,GR86-047-21,-1.2000000000000002,0.058,-0.062,99.76,5.0,,0.0,0.0,
2025-08-15T01:28:27.175Z,15,GR86-047-21,-1.2000000000000002,0.076,-0.055,99.76,5.0,,0.0,0.0,
2025-08-15T01:28:27.217Z,15,GR86-047-21,-1.2000000000000002,0.101,-0.041,99.77,5.0,,0.0,0.0,
2025-08-15T01:28:27.260Z,15,GR86-047-21,-1.2000000000000002,0.095,-0.027,99.77,5.0,6652.0,0.0,0.0,
2025-08-15T01:28:27.304Z,15,GR86-047-21,-1.2000000000000002,0.049,-0.032,99.77,5.0,,0.0,0.0,196.45
2025-08-15T01:28:27.346Z,15,GR86-047-21,-1.2000000000000002,0.061,-0.023,99.74,5.0,,0.0,0.0,
2025-08-15T01:28:27.389Z,15,GR86-047-21,-1.2000000000000002,0.07,-0.033,99.76,5.0,,0.0,0.0,
2025-08-15T01:28:27.436Z,15,GR86-047-21,-1.2000000000000002,0.089,-0.029,99.76,5.0,,0.0,0.0,
2025-08-15T01:28:27.478Z,15,GR86-047-21,-1.2000000000000002,0.08,-0.038,99.78,5.0,6675.0,0.0,0.0,
2025-08-15T01:28:27.521Z,15,GR86-047-21,-1.2000000000000002,0.105,-0.027,99.75,5.0,,0.0,0.0,196.94
2025-08-15T01:28:27.565Z,15,GR86-047-21,-1.2000000000000002,0.073,-0.034,99.74,5.0,,0.0,0.0,
2025-08-15T01:28:27.608Z,15,GR86-047-21,-1.0,0.055,-0.033,99.75,5.0,,0.0,0.0,
2025-08-15T01:28:27.652Z,15,GR86-047-21,-1.0,0.084,-0.037,99.78,5.0,,0.0,0.0,
2025-08-15T01:28:27.695Z,15,GR86-047-21,-1.0,0.096,-0.039,99.74,5.0,6716.0,0.0,0.0,
2025-08-15T01:28:27.738Z,15,GR86-047-21,-1.0,0.089,-0.029,99.75,5.0,,0.0,0.0,197.54
2025-08-15T01:28:27.781Z,15,GR86-047-21,-1.0,0.09,-0.024,99.75,5.0,,0.0,0.0,
2025-08-15T01:28:27.826Z,15,GR86-047-21,-1.0,0.07,-0.036,99.76,5.0,,0.0,0.0,
2025-08-15T01:28:27.868Z,15,GR86-047-21,-1.0,0.085,-0.029,99.77,5.0,,0.0,0.0,
2025-08-15T01:28:27.912Z,15,GR86-047-21,-0.7000000000000001,0.07,-0.029,99.76,5.0,6739.0,0.0,0.0,
2025-08-15T01:28:27.955Z,15,GR86-047-21,0.2,0.089,-0.029,99.75,5.0,,0.0,0.0,198.24
2025-08-15T01:28:27.998Z,15,GR86-047-21,0.8,0.061,-0.019,99.75,5.0,,0.0,0.0,
2025-08-15T01:28:28.041Z,15,GR86-047-21,1.3,0.064,-0.006,99.76,5.0,,0.0,0.0,
2025-08-15T01:28:28.086Z,15,GR86-047-21,2.6,0.082,0.016,99.76,5.0,,0.0,0.0,
2025-08-15T01:28:28.128Z,15,GR86-047-21,3.1,0.073,0.025,99.77,5.0,6771.0,0.0,0.0,
2025-08-15T01:28:28.215Z,15,GR86-047-21,3.2,0.084,0.053,99.77,5.0,,0.0,0.0,198.75
2025-08-15T01:28:28.259Z,15,GR86-047-21,3.2,0.059,0.096,99.76,5.0,,0.0,0.0,
2025-08-15T01:28:28.301Z,15,GR86-047-21,3.2,0.046,0.111,99.76,5.0,,0.0,0.0,
2025-08-15T01:28:28.346Z,15,GR86-047-21,3.2,0.077,0.124,99.75,5.0,6785.0,0.0,0.0,
2025-08-15T01:28:28.388Z,15,GR86-047-21,3.2,0.068,0.149,99.77,5.0,,0.0,0.0,199.51
2025-08-15T01:28:28.431Z,15,GR86-047-21,3.2,0.071,0.151,99.77,5.0,,0.0,0.0,
2025-08-15T01:28:28.475Z,15,GR86-047-21,3.3000000000000003,0.043,0.162,99.75,5.0,,0.0,0.0,
2025-08-15T01:28:28.518Z,15,GR86-047-21,3.9,0.067,0.149,99.75,5.0,,0.0,0.0,
2025-08-15T01:28:28.561Z,15,GR86-047-21,4.800000000000001,0.058,0.153,99.75,5.0,6798.0,0.0,0.0,
2025-08-15T01:28:28.605Z,15,GR86-047-21,5.1000000000000005,0.063,0.162,99.75,5.0,,0.0,0.0,200.19
2025-08-15T01:28:28.648Z,15,GR86-047-21,5.1000000000000005,0.065,0.163,99.77,5.0,,0.0,0.0,
2025-08-15T01:28:28.692Z,15,GR86-047-21,5.1000000000000005,0.041,0.177,99.76,5.0,,0.0,0.0,
2025-08-15T01:28:28.735Z,15,GR86-047-21,5.1000000000000005,0.08,0.158,99.76,5.0,,0.0,0.0,
2025-08-15T01:28:28.778Z,15,GR86-047-21,5.2,0.058,0.162,99.74,5.0,6834.0,0.0,0.0,
2025-08-15T01:28:28.821Z,15,GR86-047-21,5.5,0.078,0.186,99.74,5.0,,0.0,0.0,200.81
2025-08-15T01:28:28.865Z,15,GR86-047-21,5.6000000000000005,0.057,0.205,99.73,5.0,,0.0,0.0,
2025-08-15T01:28:28.908Z,15,GR86-047-21,5.800000000000001,0.088,0.223,99.74,5.0,,0.0,0.0,
2025-08-15T01:28:28.951Z,15,GR86-047-21,6.6000000000000005,0.055,0.235,99.75,5.0,,0.0,0.0,
2025-08-15T01:28:28.995Z,15,GR86-047-21,7.2,0.082,0.236,99.77,5.0,6851.0,0.0,0.0,
2025-08-15T01:28:29.037Z,15,GR86-047-21,7.5,0.057,0.271,99.76,5.0,,0.0,0.0,201.51
2025-08-15T01:28:29.080Z,15,GR86-047-21,7.6,0.045,0.282,99.76,5.0,,0.0,0.0,
2025-08-15T01:28:29.124Z,15,GR86-047-21,7.6,0.067,0.279,99.75,5.0,,0.0,0.0,
2025-08-15T01:28:29.166Z,15,GR86-047-21,7.6,0.058,0.307,99.76,5.0,,0.0,0.0,
2025-08-15T01:28:29.209Z,15,GR86-047-21,7.6,0.069,0.303,99.75,5.0,6870.0,0.0,0.0,
2025-08-15T01:28:29.252Z,15,GR86-047-21,7.6,0.046,0.316,99.76,5.0,,0.0,0.0,202.12
2025-08-15T01:28:29.296Z,15,GR86-047-21,7.6,0.042,0.295,99.76,5.0,,0.0,0.0,
2025-08-15T01:28:29.381Z,15,GR86-047-21,7.5,0.065,0.308,99.76,5.0,,0.0,0.0,
2025-08-15T01:28:29.425Z,15,GR86-047-21,7.4,0.044,0.274,99.75,5.0,6887.0,0.0,0.0,
2025-08-15T01:28:29.469Z,15,GR86-047-21,7.300000000000001,0.049,0.263,99.75,5.0,,0.0,0.0,202.73
2025-08-15T01:28:29.512Z,15,GR86-047-21,7.2,0.07,0.235,99.75,5.0,,0.0,0.0,
2025-08-15T01:28:29.555Z,15,GR86-047-21,7.2,0.083,0.252,99.76,5.0,,0.0,0.0,
2025-08-15T01:28:29.598Z,15,GR86-047-21,7.1000000000000005,0.074,0.245,99.76,5.0,,0.0,0.0,
2025-08-15T01:28:29.641Z,15,GR86-047-21,7.0,0.091,0.224,99.76,5.0,6907.0,0.0,0.0,
2025-08-15T01:28:29.685Z,15,GR86-047-21,6.5,0.082,0.188,99.75,5.0,,0.0,0.0,203.65
2025-08-15T01:28:29.728Z,15,GR86-047-21,6.300000000000001,0.073,0.157,99.74,5.0,,0.0,0.0,
2025-08-15T01:28:29.771Z,15,GR86-047-21,6.2,0.097,0.147,99.77,5.0,,0.0,0.0,
2025-08-15T01:28:29.815Z,15,GR86-047-21,6.0,0.058,0.112,99.77,5.0,,0.0,0.0,
2025-08-15T01:28:29.859Z,15,GR86-047-21,5.7,0.066,0.068,99.76,5.0,6937.0,0.0,0.0,
2025-08-15T01:28:29.901Z,15,GR86-047-21,5.2,0.021,0.048,99.76,5.0,,0.0,0.0,204.32
2025-08-15T01:28:29.945Z,15,GR86-047-21,4.9,0.06,0.045,99.76,5.0,,0.0,0.0,
2025-08-15T01:28:29.988Z,15,GR86-047-21,4.800000000000001,0.041,0.045,99.76,5.0,,0.0,0.0,
2025-08-15T01:28:30.031Z,15,GR86-047-21,4.800000000000001,0.033,0.053,99.74,5.0,,0.0,0.0,
2025-08-15T01:28:30.075Z,15,GR86-047-21,4.800000000000001,0.047,0.041,99.74,5.0,6953.0,0.0,0.0,
2025-08-15T01:28:30.118Z,15,GR86-047-21,4.800000000000001,0.042,0.043,99.77,5.0,,0.0,0.0,204.99
2025-08-15T01:28:30.161Z,15,GR86-047-21,4.800000000000001,0.081,0.054,99.74,5.0,,0.0,0.0,
2025-08-15T01:28:30.205Z,15,GR86-047-21,4.800000000000001,0.036,0.085,99.76,5.0,,0.0,0.0,
2025-08-15T01:28:30.248Z,15,GR86-047-21,4.800000000000001,0.039,0.092,99.76,5.0,,0.0,0.0,
2025-08-15T01:28:30.292Z,15,GR86-047-21,4.800000000000001,0.07,0.111,99.77,5.0,6994.0,0.0,0.0,
2025-08-15T01:28:30.335Z,15,GR86-047-21,4.800000000000001,0.095,0.121,99.75,5.0,,0.0,0.0,205.49
2025-08-15T01:28:30.378Z,15,GR86-047-21,4.800000000000001,0.074,0.153,99.76,5.0,,0.0,0.0,
2025-08-15T01:28:30.421Z,15,GR86-047-21,4.800000000000001,0.069,0.178,99.76,5.0,,0.0,0.0,
2025-08-15T01:28:30.465Z,15,GR86-047-21,4.7,0.083,0.192,99.75,5.0,,0.0,0.0,
2025-08-15T01:28:30.508Z,15,GR86-047-21,4.7,0.088,0.173,99.74,5.0,7012.0,0.0,0.0,
2025-08-15T01:28:30.552Z,15,GR86-047-21,4.6000000000000005,0.057,0.156,99.76,5.0,,0.0,0.0,206.01
2025-08-15T01:28:30.596Z,15,GR86-047-21,4.1000000000000005,0.036,0.116,99.75,5.0,,0.0,0.0,
2025-08-15T01:28:30.638Z,15,GR86-047-21,3.7,0.009,0.101,99.75,5.0,,0.0,0.0,
2025-08-15T01:28:30.681Z,15,GR86-047-21,3.6,0.029,0.066,99.76,5.0,,0.0,0.0,
2025-08-15T01:28:30.725Z,15,GR86-047-21,3.6,0.032,0.052,99.74,5.0,7033.0,0.0,0.0,
2025-08-15T01:28:30.768Z,15,GR86-047-21,3.7,0.013,0.052,99.74,5.0,,0.0,0.0,206.61
2025-08-15T01:28:30.812Z,15,GR86-047-21,4.4,0.035,0.029,99.74,5.0,,0.0,0.0,
2025-08-15T01:28:30.855Z,15,GR86-047-21,4.5,0.063,0.036,99.74,5.0,,0.0,0.0,
2025-08-15T01:28:30.898Z,15,GR86-047-21,4.4,0.065,0.036,99.76,5.0,,0.0,0.0,
2025-08-15T01:28:30.941Z,15,GR86-047-21,4.4,0.055,0.067,99.74,5.0,7057.0,0.0,0.0,
2025-08-15T01:28:30.985Z,15,GR86-047-21,4.4,0.041,0.097,99.73,5.0,,0.0,0.0,207.38
2025-08-15T01:28:31.028Z,15,GR86-047-21,4.4,0.073,0.114,99.74,5.0,,0.0,0.0,
2025-08-15T01:28:31.071Z,15,GR86-047-21,4.4,0.052,0.137,99.73,5.0,,0.0,0.0,
2025-08-15T01:28:31.115Z,15,GR86-047-21,4.4,0.021,0.141,99.75,5.0,,0.0,0.0,
2025-08-15T01:28:31.159Z,15,GR86-047-21,4.4,0.015,0.144,99.74,5.0,7075.0,0.0,0.0,
2025-08-15T01:28:31.201Z,15,GR86-047-21,4.800000000000001,0.007,0.134,99.75,5.0,,0.0,0.0,208.04
2025-08-15T01:28:31.245Z,15,GR86-047-21,5.800000000000001,0.016,0.163,99.75,5.0,,0.0,0.0,
2025-08-15T01:28:31.288Z,15,GR86-047-21,7.1000000000000005,0.009,0.165,99.74,5.0,,0.0,0.0,
2025-08-15T01:28:31.331Z,15,GR86-047-21,8.5,0.028,0.178,99.74,5.0,,0.0,0.0,
2025-08-15T01:28:31.375Z,15,GR86-047-21,9.1,0.061,0.211,99.75,5.0,7089.0,0.0,0.0,
2025-08-15T01:28:31.417Z,15,GR86-047-21,9.4,0.055,0.257,99.76,5.0,,0.0,0.0,208.7
2025-08-15T01:28:31.460Z,15,GR86-047-21,9.4,0.072,0.289,97.87,5.0,,0.0,0.0,
2025-08-15T01:28:31.504Z,15,GR86-047-21,9.3,0.063,0.321,61.6,5.0,,0.0,0.0,
2025-08-15T01:28:31.546Z,15,GR86-047-21,9.3,0.058,0.35,41.95,5.0,,4.15,4.09,
2025-08-15T01:28:31.589Z,15,GR86-047-21,9.5,0.017,0.392,34.89,5.0,7111.0,7.295,7.325,
2025-08-15T01:28:31.632Z,15,GR86-047-21,9.5,-0.133,0.432,33.77,5.0,,11.245,11.245,209.34
2025-08-15T01:28:31.675Z,15,GR86-047-21,9.4,-0.227,0.419,32.8,5.0,,18.205,17.990000000000002,
2025-08-15T01:28:31.718Z,15,GR86-047-21,9.3,-0.38,0.411,17.11,5.0,,30.735,30.55,
2025-08-15T01:28:31.761Z,15,GR86-047-21,9.3,-0.548,0.381,4.3100000000000005,5.0,,51.455,51.09,
2025-08-15T01:28:31.805Z,15,GR86-047-21,9.1,-1.256,0.375,4.36,5.0,7143.0,83.045,82.435,
2025-08-15T01:28:31.848Z,15,GR86-047-21,7.800000000000001,-1.309,0.305,4.23,5.0,,99.055,98.78,209.84
2025-08-15T01:28:31.891Z,15,GR86-047-21,7.2,-1.502,0.287,4.1,5.0,,109.995,111.46,
2025-08-15T01:28:31.935Z,15,GR86-047-21,7.2,-1.472,0.301,3.84,5.0,,111.735,113.855,
2025-08-15T01:28:31.978Z,15,GR86-047-21,7.2,-1.517,0.348,3.49,5.0,,111.965,113.7,
2025-08-15T01:28:32.021Z,15,GR86-047-21,6.800000000000001,-1.336,0.316,3.08,5.0,7097.0,110.56,112.955,
2025-08-15T01:28:32.065Z,15,GR86-047-21,6.5,-1.337,0.25,30.08,5.0,,104.53,105.645,210.25
2025-08-15T01:28:32.108Z,15,GR86-047-21,6.4,-1.269,0.234,70.97,5.0,,101.265,102.455,
2025-08-15T01:28:32.151Z,15,GR86-047-21,6.0,-1.297,0.215,99.87,4.0,,98.09,100.09,
2025-08-15T01:28:32.195Z,15,GR86-047-21,5.800000000000001,-1.305,0.327,57.63,4.0,,96.87,97.555,
2025-08-15T01:28:32.237Z,15,GR86-047-21,5.800000000000001,-1.579,0.277,2.75,4.0,6398.0,96.365,98.335,
2025-08-15T01:28:32.280Z,15,GR86-047-21,5.0,-1.32,0.392,2.97,4.0,,92.4,93.955,205.99
2025-08-15T01:28:32.324Z,15,GR86-047-21,1.8,-1.227,0.334,2.82,4.0,,68.0,69.13,
2025-08-15T01:28:32.368Z,15,GR86-047-21,-0.9,-1.072,0.392,2.81,4.0,,61.115,62.185,
2025-08-15T01:28:32.411Z,15,GR86-047-21,-2.6,-1.155,0.306,2.78,4.0,,60.855,62.215,
2025-08-15T01:28:32.456Z,15,GR86-047-21,-2.9000000000000004,-1.089,0.151,2.75,4.0,6132.0,61.71,62.535,
2025-08-15T01:28:32.498Z,15,GR86-047-21,-2.9000000000000004,-1.2,0.288,2.72,4.0,,62.78,63.375,187.78
2025-08-15T01:28:32.541Z,15,GR86-047-21,-2.9000000000000004,-1.144,0.142,2.68,4.0,,65.36,66.425,
2025-08-15T01:28:32.586Z,15,GR86-047-21,1.6,-1.307,0.192,2.64,4.0,,73.69,74.21000000000001,
2025-08-15T01:28:32.628Z,15,GR86-047-21,5.300000000000001,-1.356,0.214,9.04,4.0,,78.68,78.805,
2025-08-15T01:28:32.671Z,15,GR86-047-21,5.9,-1.31,0.108,48.83,4.0,6910.0,83.87,85.47,
2025-08-15T01:28:32.715Z,15,GR86-047-21,5.800000000000001,-1.311,0.1,91.65,4.0,,87.18,88.25,180.62
2025-08-15T01:28:32.759Z,15,GR86-047-21,5.0,-1.311,0.019,99.77,4.0,,86.525,87.33500000000001,
2025-08-15T01:28:32.801Z,15,GR86-047-21,5.0,-1.249,-0.07,92.34,4.0,,85.53,86.875,
2025-08-15T01:28:32.846Z,15,GR86-047-21,5.5,-1.295,0.003,2.47,4.0,,78.515,79.655,
2025-08-15T01:28:32.888Z,15,GR86-047-21,5.800000000000001,-1.238,0.023,2.89,3.0,6288.0,74.315,74.865,
2025-08-15T01:28:32.931Z,15,GR86-047-21,5.800000000000001,-1.286,-0.068,2.81,3.0,,71.735,72.895,171.32
2025-08-15T01:28:32.975Z,15,GR86-047-21,5.7,-1.233,-0.017,2.78,3.0,,70.0,71.02,
2025-08-15T01:28:33.017Z,15,GR86-047-21,5.7,-1.272,0.004,2.75,3.0,,66.64,67.58500000000001,
2025-08-15T01:28:33.061Z,15,GR86-047-21,5.7,-1.171,-0.049,2.72,3.0,,64.96000000000001,66.365,
2025-08-15T01:28:33.105Z,15,GR86-047-21,5.7,-1.16,0.021,2.66,3.0,6676.0,61.68,62.565000000000005,
2025-08-15T01:28:33.148Z,15,GR86-047-21,6.6000000000000005,-1.122,-0.003,2.64,3.0,,60.02,60.49,162.79
2025-08-15T01:28:33.192Z,15,GR86-047-21,7.4,-1.22,0.078,2.6,3.0,,58.965,59.65,
2025-08-15T01:28:33.235Z,15,GR86-047-21,7.4,-1.149,0.079,2.59,3.0,,58.555,59.21,
2025-08-15T01:28:33.278Z,15,GR86-047-21,7.4,-1.149,0.047,2.57,3.0,,58.585,59.085,
2025-08-15T01:28:33.321Z,15,GR86-047-21,7.4,-1.195,0.106,6.5600000000000005,3.0,6794.0,59.3,59.745000000000005,
2025-08-15T01:28:33.365Z,15,GR86-047-21,7.6,-1.187,0.12,65.43,3.0,,63.465,63.68,154.52
2025-08-15T01:28:33.408Z,15,GR86-047-21,8.0,-1.253,0.154,99.35,3.0,,68.5,68.595,
2025-08-15T01:28:33.452Z,15,GR86-047-21,8.4,-1.235,0.181,81.85000000000001,2.0,,71.92,72.3,
2025-08-15T01:28:33.495Z,15,GR86-047-21,9.2,-1.277,0.142,10.24,2.0,,73.57000000000001,75.125,
2025-08-15T01:28:33.539Z,15,GR86-047-21,11.9,-1.344,0.274,2.92,2.0,6471.0,69.05,70.9,
2025-08-15T01:28:33.581Z,15,GR86-047-21,17.0,-1.054,0.299,2.83,2.0,,56.46,57.5,147.35
2025-08-15T01:28:33.625Z,15,GR86-047-21,19.6,-0.876,0.486,2.78,2.0,,48.145,49.275,
2025-08-15T01:28:33.668Z,15,GR86-047-21,19.6,-1.012,0.547,2.74,2.0,,46.145,47.06,
2025-08-15T01:28:33.711Z,15,GR86-047-21,19.3,-1.079,0.464,2.72,2.0,,43.675,44.375,
2025-08-15T01:28:33.755Z,15,GR86-047-21,19.1,-1.023,0.657,2.69,2.0,6796.0,44.59,45.75,
2025-08-15T01:28:33.798Z,15,GR86-047-21,19.0,-0.923,0.542,2.66,2.0,,46.175,47.125,139.56
2025-08-15T01:28:33.841Z,15,GR86-047-21,19.0,-1.09,0.577,2.66,2.0,,47.4,47.93,
2025-08-15T01:28:33.885Z,15,GR86-047-21,18.9,-1.019,0.623,2.62,2.0,,48.77,49.275,
2025-08-15T01:28:33.928Z,15,GR86-047-21,18.9,-0.999,0.509,2.58,2.0,,48.77,49.335,
2025-08-15T01:28:33.971Z,15,GR86-047-21,18.9,-1.038,0.622,2.56,2.0,7003.0,49.49,50.005,
2025-08-15T01:28:34.015Z,15,GR86-047-21,18.9,-1.076,0.623,2.5500000000000003,2.0,,50.585,51.03,132.37
2025-08-15T01:28:34.059Z,15,GR86-047-21,18.9,-1.013,0.588,2.5500000000000003,2.0,,51.395,51.96,
2025-08-15T01:28:34.101Z,15,GR86-047-21,18.9,-1.093,0.653,2.53,2.0,,53.61,53.9,
2025-08-15T01:28:34.145Z,15,GR86-047-21,18.8,-1.096,0.6,2.53,2.0,,60.49,60.645,
2025-08-15T01:28:34.188Z,15,GR86-047-21,18.8,-1.123,0.6980000000000001,7.67,2.0,6892.0,65.62,65.8,
2025-08-15T01:28:34.231Z,15,GR86-047-21,19.1,-0.97,0.671,46.47,2.0,,66.015,66.76,127.27
2025-08-15T01:28:34.275Z,15,GR86-047-21,21.3,-1.125,0.65,65.49,1.0,,68.5,69.8,
2025-08-15T01:28:34.318Z,15,GR86-047-21,24.8,-1.122,0.715,7.58,1.0,,72.99,73.72,
2025-08-15T01:28:34.361Z,15,GR86-047-21,27.6,-1.187,0.603,4.26,1.0,,72.395,73.60000000000001,
2025-08-15T01:28:34.405Z,15,GR86-047-21,27.700000000000003,-1.186,0.643,4.1,1.0,6384.0,72.33,73.72,
2025-08-15T01:28:34.448Z,15,GR86-047-21,28.200000000000003,-1.179,0.677,3.91,1.0,,58.555,59.865,120.12
2025-08-15T01:28:34.491Z,15,GR86-047-21,30.200000000000003,-1.063,0.553,3.58,1.0,,49.045,50.13,
2025-08-15T01:28:34.535Z,15,GR86-047-21,32.7,-0.917,0.898,3.13,1.0,,45.0,46.375,
2025-08-15T01:28:34.578Z,15,GR86-047-21,33.300000000000004,-0.868,0.793,2.76,1.0,,38.47,39.46,
2025-08-15T01:28:34.621Z,15,GR86-047-21,33.0,-0.899,0.882,2.62,1.0,5883.0,35.555,36.485,
2025-08-15T01:28:34.665Z,15,GR86-047-21,32.2,-0.746,0.917,2.5,1.0,,30.855,31.65,112.98
2025-08-15T01:28:34.708Z,15,GR86-047-21,31.9,-0.655,0.968,2.47,1.0,,27.18,28.185,
2025-08-15T01:28:34.751Z,15,GR86-047-21,31.700000000000003,-0.638,1.069,2.47,1.0,,23.99,24.675,
2025-08-15T01:28:34.796Z,15,GR86-047-21,31.6,-0.654,0.95,2.46,1.0,,25.3,25.99,
2025-08-15T01:28:34.838Z,15,GR86-047-21,33.6,-0.5660000000000001,0.956,2.45,1.0,6439.0,27.115,27.71,
2025-08-15T01:28:34.881Z,15,GR86-047-21,39.7,-0.641,1.001,2.46,1.0,,25.665,26.23,105.58
2025-08-15T01:28:34.925Z,15,GR86-047-21,48.0,-0.557,1.015,2.45,1.0,,20.265,21.21,
2025-08-15T01:28:34.968Z,15,GR86-047-21,52.7,-0.562,0.979,2.45,1.0,,17.96,18.74,
2025-08-15T01:28:35.011Z,15,GR86-047-21,57.7,-0.492,1.015,2.46,1.0,,15.475,16.315,
2025-08-15T01:28:35.055Z,15,GR86-047-21,61.400000000000006,-0.502,1.09,2.44,1.0,6669.0,13.305,14.175,
2025-08-15T01:28:35.098Z,15,GR86-047-21,62.6,-0.486,1.033,2.44,1.0,,11.675,12.39,93.92
2025-08-15T01:28:35.141Z,15,GR86-047-21,62.6,-0.369,1.061,2.43,1.0,,7.95,8.605,
2025-08-15T01:28:35.185Z,15,GR86-047-21,62.6,-0.241,1.086,2.44,1.0,,0.0,0.0,
2025-08-15T01:28:35.228Z,15,GR86-047-21,62.6,-0.272,1.096,2.5500000000000003,1.0,,0.0,0.0,
2025-08-15T01:28:35.272Z,15,GR86-047-21,63.1,-0.245,1.138,2.53,1.0,6466.0,0.0,0.0,
2025-08-15T01:28:35.315Z,15,GR86-047-21,66.0,-0.182,1.113,2.53,1.0,,0.0,0.0,89.41
2025-08-15T01:28:35.359Z,15,GR86-047-21,69.7,-0.187,1.175,2.52,1.0,,0.0,0.0,
2025-08-15T01:28:35.401Z,15,GR86-047-21,73.10000000000001,-0.186,1.105,2.51,1.0,,0.0,0.0,
2025-08-15T01:28:35.445Z,15,GR86-047-21,75.60000000000001,-0.207,1.147,2.59,1.0,,0.0,0.0,
2025-08-15T01:28:35.488Z,15,GR86-047-21,75.7,-0.166,1.172,2.63,1.0,6122.0,0.0,0.0,
2025-08-15T01:28:35.531Z,15,GR86-047-21,75.7,-0.213,1.258,2.92,1.0,,0.0,0.0,87.33
2025-08-15T01:28:35.575Z,15,GR86-047-21,76.3,-0.178,1.191,3.0500000000000003,1.0,,0.0,0.0,
2025-08-15T01:28:35.617Z,15,GR86-047-21,78.60000000000001,-0.234,1.326,7.61,1.0,,0.0,0.0,
2025-08-15T01:28:35.660Z,15,GR86-047-21,81.4,-0.202,1.261,7.04,1.0,,0.0,0.0,
2025-08-15T01:28:35.704Z,15,GR86-047-21,85.9,-0.2,1.285,9.07,1.0,6024.0,0.0,0.0,
2025-08-15T01:28:35.746Z,15,GR86-047-21,87.80000000000001,-0.195,1.305,9.76,1.0,,0.0,0.0,85.65
2025-08-15T01:28:35.789Z,15,GR86-047-21,88.30000000000001,-0.198,1.132,8.94,1.0,,0.0,0.0,
2025-08-15T01:28:35.832Z,15,GR86-047-21,88.30000000000001,-0.17,1.313,12.46,1.0,,0.0,0.0,
2025-08-15T01:28:35.875Z,15,GR86-047-21,88.30000000000001,-0.156,1.269,13.31,1.0,,0.0,0.0,
2025-08-15T01:28:35.918Z,15,GR86-047-21,87.30000000000001,-0.153,1.327,13.31,1.0,5895.0,0.0,0.0,
2025-08-15T01:28:35.961Z,15,GR86-047-21,83.4,-0.084,1.164,14.52,1.0,,0.0,0.0,84.36
2025-08-15T01:28:36.005Z,15,GR86-047-21,79.2,-0.121,1.227,21.89,1.0,,0.0,0.0,
2025-08-15T01:28:36.048Z,15,GR86-047-21,73.10000000000001,-0.094,1.069,23.04,1.0,,0.0,0.0,
2025-08-15T01:28:36.091Z,15,GR86-047-21,63.6,-0.18,1.311,26.83,1.0,,0.0,0.0,
2025-08-15T01:28:36.135Z,15,GR86-047-21,54.0,-0.089,1.5,31.85,1.0,5840.0,0.0,0.0,
2025-08-15T01:28:36.178Z,15,GR86-047-21,47.0,-0.07,1.034,32.11,1.0,,0.0,0.0,82.60000000000001
2025-08-15T01:28:36.221Z,15,GR86-047-21,44.8,-0.049,1.407,32.37,1.0,,0.0,0.0,
2025-08-15T01:28:36.308Z,15,GR86-047-21,43.8,0.173,1.307,32.57,1.0,,0.0,0.0,
2025-08-15T01:28:36.351Z,15,GR86-047-21,46.2,0.286,1.155,32.32,1.0,5773.0,0.0,0.0,
2025-08-15T01:28:36.395Z,15,GR86-047-21,46.1,0.254,1.065,32.480000000000004,1.0,,0.0,0.0,81.38
2025-08-15T01:28:36.438Z,15,GR86-047-21,46.1,0.252,1.359,32.99,1.0,,0.0,0.0,
2025-08-15T01:28:36.481Z,15,GR86-047-21,46.1,0.32,1.208,33.68,1.0,,0.0,0.0,
2025-08-15T01:28:36.526Z,15,GR86-047-21,47.3,0.182,1.275,35.15,1.0,,0.0,0.0,
2025-08-15T01:28:36.568Z,15,GR86-047-21,51.6,0.175,1.227,37.45,1.0,6322.0,0.0,0.0,
2025-08-15T01:28:36.612Z,15,GR86-047-21,53.5,0.225,1.25,48.04,1.0,,0.0,0.0,80.38
2025-08-15T01:28:36.655Z,15,GR86-047-21,53.5,0.254,1.169,47.86,1.0,,0.0,0.0,
2025-08-15T01:28:36.698Z,15,GR86-047-21,53.400000000000006,0.278,1.138,45.53,1.0,,0.0,0.0,
2025-08-15T01:28:36.741Z,15,GR86-047-21,49.3,0.314,1.117,45.86,1.0,,0.0,0.0,
2025-08-15T01:28:36.786Z,15,GR86-047-21,42.900000000000006,0.272,1.129,49.09,1.0,6173.0,0.0,0.0,
2025-08-15T01:28:36.828Z,15,GR86-047-21,38.3,0.275,1.122,56.74,1.0,,0.0,0.0,79.97
2025-08-15T01:28:36.871Z,15,GR86-047-21,33.6,0.317,1.117,70.92,1.0,,0.0,0.0,
2025-08-15T01:28:36.915Z,15,GR86-047-21,27.5,0.341,1.072,75.7,1.0,,0.0,0.0,
2025-08-15T01:28:36.959Z,15,GR86-047-21,21.3,0.336,0.998,98.46,1.0,,0.0,0.0,
2025-08-15T01:28:37.001Z,15,GR86-047-21,17.1,0.351,0.982,99.68,1.0,6304.0,0.0,0.0,
2025-08-15T01:28:37.046Z,15,GR86-047-21,16.0,0.355,0.988,99.76,1.0,,0.0,0.0,80.97
2025-08-15T01:28:37.088Z,15,GR86-047-21,16.0,0.346,0.955,99.78,1.0,,0.0,0.0,
2025-08-15T01:28:37.131Z,15,GR86-047-21,15.9,0.369,0.957,99.78,1.0,,0.0,0.0,
2025-08-15T01:28:37.175Z,15,GR86-047-21,15.9,0.397,0.983,99.76,1.0,,0.0,0.0,
2025-08-15T01:28:37.218Z,15,GR86-047-21,14.2,0.38,1.0,99.77,1.0,6477.0,0.0,0.0,
2025-08-15T01:28:37.261Z,15,GR86-047-21,13.0,0.369,0.963,99.8,1.0,,0.0,0.0,82.11
2025-08-15T01:28:37.305Z,15,GR86-047-21,12.3,0.4,1.011,99.78,1.0,,0.0,0.0,
2025-08-15T01:28:37.348Z,15,GR86-047-21,12.1,0.373,0.981,99.78,1.0,,0.0,0.0,
2025-08-15T01:28:37.391Z,15,GR86-047-21,12.0,0.403,0.983,99.78,1.0,,0.0,0.0,
2025-08-15T01:28:37.436Z,15,GR86-047-21,11.2,0.349,0.965,99.79,1.0,6659.0,0.0,0.0,
2025-08-15T01:28:37.478Z,15,GR86-047-21,10.4,0.379,0.968,99.82,1.0,,0.0,0.0,83.83
2025-08-15T01:28:37.521Z,15,GR86-047-21,10.3,0.378,0.964,99.78,1.0,,0.0,0.0,
2025-08-15T01:28:37.565Z,15,GR86-047-21,12.9,0.388,0.885,99.81,1.0,,0.0,0.0,
2025-08-15T01:28:37.608Z,15,GR86-047-21,20.4,0.39,0.929,99.8,1.0,,0.0,0.0,
2025-08-15T01:28:37.652Z,15,GR86-047-21,26.6,0.373,0.963,99.83,1.0,6842.0,0.0,0.0,
2025-08-15T01:28:37.695Z,15,GR86-047-21,27.8,0.383,1.019,99.79,1.0,,0.0,0.0,87.72
2025-08-15T01:28:37.737Z,15,GR86-047-21,27.6,0.364,0.957,99.81,1.0,,0.0,0.0,
2025-08-15T01:28:37.780Z,15,GR86-047-21,24.700000000000003,0.411,0.887,99.81,1.0,,0.0,0.0,
2025-08-15T01:28:37.824Z,15,GR86-047-21,18.4,0.315,0.6,99.79,1.0,,0.0,0.0,
2025-08-15T01:28:37.866Z,15,GR86-047-21,15.4,0.2,0.606,99.81,1.0,6951.0,0.0,0.0,
2025-08-15T01:28:37.909Z,15,GR86-047-21,13.7,0.339,0.658,99.78,1.0,,0.0,0.0,89.61
2025-08-15T01:28:37.952Z,15,GR86-047-21,13.1,0.464,0.59,99.82,1.0,,0.0,0.0,
2025-08-15T01:28:37.996Z,15,GR86-047-21,13.0,0.506,0.47,99.82,1.0,,0.0,0.0,
2025-08-15T01:28:38.039Z,15,GR86-047-21,13.0,0.38,0.617,99.81,1.0,,0.0,0.0,
2025-08-15T01:28:38.081Z,15,GR86-047-21,13.0,0.34,0.408,99.79,1.0,7042.0,0.0,0.0,
2025-08-15T01:28:38.125Z,15,GR86-047-21,12.9,0.467,0.495,99.8,1.0,,0.0,0.0,91.62
2025-08-15T01:28:38.168Z,15,GR86-047-21,12.4,0.285,0.355,99.81,1.0,,0.0,0.0,
2025-08-15T01:28:38.212Z,15,GR86-047-21,12.1,0.262,0.338,99.8,1.0,,0.0,0.0,
2025-08-15T01:28:38.255Z,15,GR86-047-21,12.1,0.061,0.422,99.8,1.0,,0.0,0.0,
2025-08-15T01:28:38.298Z,15,GR86-047-21,12.1,-0.06,0.429,99.8,2.0,7214.0,0.0,0.0,
2025-08-15T01:28:38.341Z,15,GR86-047-21,12.0,0.629,0.364,99.82,2.0,,0.0,0.0,93.44
2025-08-15T01:28:38.385Z,15,GR86-047-21,12.0,0.418,0.28,99.81,2.0,,0.0,0.0,
2025-08-15T01:28:38.428Z,15,GR86-047-21,12.0,0.451,0.208,99.81,2.0,,0.0,0.0,
2025-08-15T01:28:38.471Z,15,GR86-047-21,12.1,0.324,0.2,99.8,2.0,,0.0,0.0,
2025-08-15T01:28:38.515Z,15,GR86-047-21,12.1,0.326,0.146,99.81,2.0,6841.0,0.0,0.0,
2025-08-15T01:28:38.559Z,15,GR86-047-21,12.1,0.185,0.175,99.8,2.0,,0.0,0.0,95.91
2025-08-15T01:28:38.601Z,15,GR86-047-21,11.8,0.324,0.09,99.81,2.0,,0.0,0.0,
2025-08-15T01:28:38.645Z,15,GR86-047-21,10.7,0.329,0.166,99.79,2.0,,0.0,0.0,
2025-08-15T01:28:38.688Z,15,GR86-047-21,10.4,0.325,0.2,99.81,2.0,,0.0,0.0,
2025-08-15T01:28:38.731Z,15,GR86-047-21,10.4,0.36,0.138,99.81,2.0,5678.0,0.0,0.0,
2025-08-15T01:28:38.775Z,15,GR86-047-21,10.4,0.264,0.136,99.81,2.0,,0.0,0.0,97.89
2025-08-15T01:28:38.818Z,15,GR86-047-21,10.4,0.284,0.08,99.81,2.0,,0.0,0.0,
2025-08-15T01:28:38.861Z,15,GR86-047-21,10.4,0.285,0.092,99.8,2.0,,0.0,0.0,
2025-08-15T01:28:38.905Z,15,GR86-047-21,10.4,0.282,0.139,99.81,2.0,,0.0,0.0,
2025-08-15T01:28:38.948Z,15,GR86-047-21,10.4,0.331,0.112,99.82,2.0,5890.0,0.0,0.0,
2025-08-15T01:28:38.992Z,15,GR86-047-21,10.4,0.313,0.097,99.81,2.0,,0.0,0.0,100.35
2025-08-15T01:28:39.035Z,15,GR86-047-21,10.4,0.28,0.061,99.8,2.0,,0.0,0.0,
2025-08-15T01:28:39.078Z,15,GR86-047-21,10.4,0.33,0.019,99.8,2.0,,0.0,0.0,
2025-08-15T01:28:39.121Z,15,GR86-047-21,10.4,0.313,0.027,99.81,2.0,,0.0,0.0,
2025-08-15T01:28:39.165Z,15,GR86-047-21,9.0,0.2,0.051,99.8,2.0,6043.0,0.0,0.0,
2025-08-15T01:28:39.208Z,15,GR86-047-21,8.0,0.273,0.052,99.81,2.0,,0.0,0.0,102.36
2025-08-15T01:28:39.251Z,15,GR86-047-21,7.2,0.266,0.056,99.82,2.0,,0.0,0.0,
2025-08-15T01:28:39.296Z,15,GR86-047-21,6.4,0.328,0.08,99.81,2.0,,0.0,0.0,
2025-08-15T01:28:39.338Z,15,GR86-047-21,6.4,0.286,0.067,99.82,2.0,,0.0,0.0,
2025-08-15T01:28:39.381Z,15,GR86-047-21,6.300000000000001,0.313,0.044,99.81,2.0,6102.0,0.0,0.0,
2025-08-15T01:28:39.425Z,15,GR86-047-21,6.2,0.253,-0.009,99.81,2.0,,0.0,0.0,104.28
2025-08-15T01:28:39.468Z,15,GR86-047-21,6.1000000000000005,0.228,0.005,99.8,2.0,,0.0,0.0,
2025-08-15T01:28:39.512Z,15,GR86-047-21,6.1000000000000005,0.255,-0.019,99.81,2.0,,0.0,0.0,
2025-08-15T01:28:39.555Z,15,GR86-047-21,6.0,0.252,-0.012,99.81,2.0,,0.0,0.0,
2025-08-15T01:28:39.598Z,15,GR86-047-21,6.0,0.257,0.003,99.81,2.0,6190.0,0.0,0.0,
2025-08-15T01:28:39.641Z,15,GR86-047-21,5.800000000000001,0.276,-0.02,99.81,2.0,,0.0,0.0,106.0
2025-08-15T01:28:39.685Z,15,GR86-047-21,5.0,0.29,-0.013,99.82,2.0,,0.0,0.0,
2025-08-15T01:28:39.728Z,15,GR86-047-21,3.6,0.258,-0.011,99.81,2.0,,0.0,0.0,
2025-08-15T01:28:39.771Z,15,GR86-047-21,2.4000000000000004,0.248,-0.011,99.81,2.0,,0.0,0.0,
2025-08-15T01:28:39.815Z,15,GR86-047-21,1.5,0.277,-0.048,99.81,2.0,6286.0,0.0,0.0,
2025-08-15T01:28:39.859Z,15,GR86-047-21,1.2000000000000002,0.297,-0.028,99.81,2.0,,0.0,0.0,107.75
2025-08-15T01:28:39.901Z,15,GR86-047-21,0.9,0.27,-0.051,99.83,2.0,,0.0,0.0,
2025-08-15T01:28:39.945Z,15,GR86-047-21,0.7000000000000001,0.258,-0.069,99.82,2.0,,0.0,0.0,
2025-08-15T01:28:39.988Z,15,GR86-047-21,0.5,0.255,-0.066,99.82,2.0,,0.0,0.0,
2025-08-15T01:28:40.031Z,15,GR86-047-21,0.3,0.257,-0.066,99.8,2.0,6359.0,0.0,0.0,
2025-08-15T01:28:40.075Z,15,GR86-047-21,0.2,0.272,-0.097,99.81,2.0,,0.0,0.0,109.68
2025-08-15T01:28:40.117Z,15,GR86-047-21,0.2,0.287,-0.07,99.82,2.0,,0.0,0.0,
2025-08-15T01:28:40.160Z,15,GR86-047-21,0.1,0.261,-0.085,99.81,2.0,,0.0,0.0,
2025-08-15T01:28:40.204Z,15,GR86-047-21,0.1,0.266,-0.094,99.81,2.0,,0.0,0.0,
2025-08-15T01:28:40.246Z,15,GR86-047-21,0.1,0.257,-0.098,99.82,2.0,6452.0,0.0,0.0,
2025-08-15T01:28:40.289Z,15,GR86-047-21,0.0,0.276,-0.092,99.8,2.0,,0.0,0.0,112.98
2025-08-15T01:28:40.332Z,15,GR86-047-21,0.0,0.243,-0.116,99.8,2.0,,0.0,0.0,
2025-08-15T01:28:40.375Z,15,GR86-047-21,-0.2,0.263,-0.084,99.81,2.0,,0.0,0.0,
2025-08-15T01:28:40.418Z,15,GR86-047-21,-0.5,0.275,-0.109,99.81,2.0,,0.0,0.0,
2025-08-15T01:28:40.461Z,15,GR86-047-21,-0.6000000000000001,0.261,-0.119,99.8,2.0,6562.0,0.0,0.0,
2025-08-15T01:28:40.505Z,15,GR86-047-21,-0.7000000000000001,0.244,-0.127,99.82,2.0,,0.0,0.0,114.6
2025-08-15T01:28:40.548Z,15,GR86-047-21,-0.8,0.27,-0.116,99.82,2.0,,0.0,0.0,
2025-08-15T01:28:40.591Z,15,GR86-047-21,-0.9,0.25,-0.129,99.81,2.0,,0.0,0.0,
2025-08-15T01:28:40.635Z,15,GR86-047-21,-1.0,0.248,-0.134,99.81,2.0,,0.0,0.0,
2025-08-15T01:28:40.678Z,15,GR86-047-21,-1.0,0.288,-0.126,99.83,2.0,6641.0,0.0,0.0,
2025-08-15T01:28:40.765Z,15,GR86-047-21,-1.0,0.247,-0.147,99.81,2.0,,0.0,0.0,116.12
2025-08-15T01:28:40.808Z,15,GR86-047-21,-1.0,0.252,-0.124,99.82,2.0,,0.0,0.0,
2025-08-15T01:28:40.852Z,15,GR86-047-21,-1.0,0.278,-0.105,99.79,2.0,,0.0,0.0,
2025-08-15T01:28:40.895Z,15,GR86-047-21,-1.0,0.235,-0.124,99.79,2.0,6812.0,0.0,0.0,
2025-08-15T01:28:40.938Z,15,GR86-047-21,-1.0,0.246,-0.091,99.8,2.0,,0.0,0.0,117.6
2025-08-15T01:28:40.981Z,15,GR86-047-21,-1.0,0.276,-0.091,99.81,2.0,,0.0,0.0,
2025-08-15T01:28:41.026Z,15,GR86-047-21,-1.0,0.275,-0.089,99.82,2.0,,0.0,0.0,
2025-08-15T01:28:41.068Z,15,GR86-047-21,-1.0,0.231,-0.082,99.81,2.0,,0.0,0.0,
2025-08-15T01:28:41.112Z,15,GR86-047-21,-1.0,0.249,-0.044,99.8,2.0,6892.0,0.0,0.0,
2025-08-15T01:28:41.155Z,15,GR86-047-21,-1.0,0.28,-0.042,99.81,2.0,,0.0,0.0,119.08
2025-08-15T01:28:41.198Z,15,GR86-047-21,-1.0,0.232,-0.049,99.82,2.0,,0.0,0.0,
2025-08-15T01:28:41.241Z,15,GR86-047-21,-1.0,0.238,-0.034,99.79,2.0,,0.0,0.0,
2025-08-15T01:28:41.286Z,15,GR86-047-21,-1.0,0.246,-0.03,99.8,2.0,,0.0,0.0,
2025-08-15T01:28:41.328Z,15,GR86-047-21,-1.0,0.275,-0.025,99.82,2.0,6960.0,0.0,0.0,
2025-08-15T01:28:41.371Z,15,GR86-047-21,-1.0,0.238,-0.068,99.81,2.0,,0.0,0.0,120.45
2025-08-15T01:28:41.415Z,15,GR86-047-21,-1.0,0.235,-0.054,99.81,2.0,,0.0,0.0,
2025-08-15T01:28:41.457Z,15,GR86-047-21,-1.0,0.271,-0.064,99.81,2.0,,0.0,0.0,
2025-08-15T01:28:41.500Z,15,GR86-047-21,-1.0,0.237,-0.097,99.81,2.0,,0.0,0.0,
2025-08-15T01:28:41.546Z,15,GR86-047-21,-1.0,0.237,-0.108,99.81,2.0,7030.0,0.0,0.0,
2025-08-15T01:28:41.588Z,15,GR86-047-21,-1.0,0.228,-0.091,99.79,2.0,,0.0,0.0,121.64
2025-08-15T01:28:41.631Z,15,GR86-047-21,-1.0,0.264,-0.099,99.82,2.0,,0.0,0.0,
2025-08-15T01:28:41.675Z,15,GR86-047-21,-1.0,0.252,-0.115,99.79,2.0,,0.0,0.0,
2025-08-15T01:28:41.718Z,15,GR86-047-21,-1.0,0.226,-0.084,99.81,2.0,,0.0,0.0,
2025-08-15T01:28:41.761Z,15,GR86-047-21,-1.0,0.255,-0.08,99.81,2.0,7108.0,0.0,0.0,
2025-08-15T01:28:41.805Z,15,GR86-047-21,-1.0,0.254,-0.057,99.82,2.0,,0.0,0.0,122.77
2025-08-15T01:28:41.848Z,15,GR86-047-21,-1.0,0.257,-0.091,99.82,2.0,,0.0,0.0,
2025-08-15T01:28:41.891Z,15,GR86-047-21,-1.0,0.227,-0.073,99.8,2.0,,0.0,0.0,
2025-08-15T01:28:41.935Z,15,GR86-047-21,-1.0,0.241,-0.038,99.81,2.0,,0.0,0.0,
2025-08-15T01:28:41.978Z,15,GR86-047-21,-1.0,0.25,-0.056,99.82,2.0,7158.0,0.0,0.0,
2025-08-15T01:28:42.021Z,15,GR86-047-21,-0.8,0.24,-0.05,99.81,2.0,,0.0,0.0,123.9
2025-08-15T01:28:42.065Z,15,GR86-047-21,-0.3,0.193,-0.048,99.77,2.0,,0.0,0.0,
2025-08-15T01:28:42.108Z,15,GR86-047-21,-0.3,-0.111,0.003,99.79,3.0,,0.0,0.0,
2025-08-15T01:28:42.151Z,15,GR86-047-21,-0.3,0.298,0.018,99.82,3.0,,0.0,0.0,
2025-08-15T01:28:42.195Z,15,GR86-047-21,-0.3,0.521,-0.095,99.81,3.0,7222.0,0.0,0.0,
2025-08-15T01:28:42.238Z,15,GR86-047-21,0.0,0.412,-0.005,99.81,3.0,,0.0,0.0,125.02
2025-08-15T01:28:42.281Z,15,GR86-047-21,0.0,0.23,0.08,99.8,3.0,,0.0,0.0,
2025-08-15T01:28:42.325Z,15,GR86-047-21,0.1,0.071,0.004,99.81,3.0,,0.0,0.0,
2025-08-15T01:28:42.368Z,15,GR86-047-21,0.2,0.21,0.037,99.81,3.0,,0.0,0.0,
2025-08-15T01:28:42.411Z,15,GR86-047-21,0.7000000000000001,0.327,0.021,99.82,3.0,7073.0,0.0,0.0,
2025-08-15T01:28:42.455Z,15,GR86-047-21,1.2000000000000002,0.227,0.039,99.81,3.0,,0.0,0.0,126.11
2025-08-15T01:28:42.498Z,15,GR86-047-21,1.2000000000000002,0.177,0.089,99.81,3.0,,0.0,0.0,
2025-08-15T01:28:42.541Z,15,GR86-047-21,1.2000000000000002,0.186,0.035,99.81,3.0,,0.0,0.0,
2025-08-15T01:28:42.586Z,15,GR86-047-21,1.2000000000000002,0.241,0.041,99.83,3.0,,0.0,0.0,
2025-08-15T01:28:42.628Z,15,GR86-047-21,1.2000000000000002,0.242,0.049,99.83,3.0,5796.0,0.0,0.0,
2025-08-15T01:28:42.671Z,15,GR86-047-21,1.2000000000000002,0.198,0.061,99.82,3.0,,0.0,0.0,126.96
2025-08-15T01:28:42.715Z,15,GR86-047-21,1.2000000000000002,0.189,0.028,99.81,3.0,,0.0,0.0,
2025-08-15T01:28:42.759Z,15,GR86-047-21,1.2000000000000002,0.242,0.008,99.81,3.0,,0.0,0.0,
2025-08-15T01:28:42.801Z,15,GR86-047-21,1.2000000000000002,0.197,0.033,99.81,3.0,,0.0,0.0,
2025-08-15T01:28:42.845Z,15,GR86-047-21,1.2000000000000002,0.222,0.012,99.81,3.0,5940.0,0.0,0.0,
2025-08-15T01:28:42.888Z,15,GR86-047-21,1.1,0.17,0.005,99.81,3.0,,0.0,0.0,128.94
2025-08-15T01:28:42.931Z,15,GR86-047-21,1.0,0.203,-0.034,99.81,3.0,,0.0,0.0,
2025-08-15T01:28:42.975Z,15,GR86-047-21,1.0,0.24,-0.042,99.82,3.0,,0.0,0.0,
2025-08-15T01:28:43.018Z,15,GR86-047-21,1.0,0.198,-0.017,99.82,3.0,,0.0,0.0,
2025-08-15T01:28:43.061Z,15,GR86-047-21,1.0,0.174,-0.04,99.81,3.0,6028.0,0.0,0.0,
2025-08-15T01:28:43.105Z,15,GR86-047-21,1.0,0.169,-0.021,99.81,3.0,,0.0,0.0,129.76
2025-08-15T01:28:43.148Z,15,GR86-047-21,1.0,0.214,-0.036,99.81,3.0,,0.0,0.0,
2025-08-15T01:28:43.192Z,15,GR86-047-21,1.0,0.253,-0.021,99.81,3.0,,0.0,0.0,
2025-08-15T01:28:43.235Z,15,GR86-047-21,1.0,0.175,0.009,99.8,3.0,,0.0,0.0,
2025-08-15T01:28:43.278Z,15,GR86-047-21,1.0,0.179,-0.004,66.83,3.0,6073.0,0.0,0.0,
2025-08-15T01:28:43.321Z,15,GR86-047-21,1.0,0.24,-0.016,34.52,3.0,,0.0,0.0,130.59
2025-08-15T01:28:43.365Z,15,GR86-047-21,1.0,0.188,0.002,11.35,3.0,,2.915,3.13,
2025-08-15T01:28:43.408Z,15,GR86-047-21,1.2000000000000002,0.142,0.026,4.71,3.0,,8.425,8.605,
2025-08-15T01:28:43.451Z,15,GR86-047-21,2.5,-0.099,0.06,4.65,3.0,,14.545,14.575,
2025-08-15T01:28:43.496Z,15,GR86-047-21,3.8,-0.352,0.069,4.54,3.0,6174.0,22.965,22.845,
2025-08-15T01:28:43.538Z,15,GR86-047-21,5.5,-0.403,0.063,4.38,3.0,,31.985,31.575,131.47
2025-08-15T01:28:43.581Z,15,GR86-047-21,6.4,-0.713,0.107,4.2,3.0,,40.655,40.21,
2025-08-15T01:28:43.625Z,15,GR86-047-21,6.6000000000000005,-0.768,0.145,3.83,3.0,,48.235,47.995000000000005,
2025-08-15T01:28:43.668Z,15,GR86-047-21,7.6,-0.943,0.142,4.86,3.0,,48.83,48.895,
2025-08-15T01:28:43.711Z,15,GR86-047-21,9.4,-0.8160000000000001,0.171,40.35,3.0,5881.0,49.49,50.31,
2025-08-15T01:28:43.755Z,15,GR86-047-21,11.9,-0.943,0.219,82.72,3.0,,50.615,51.745000000000005,132.21
2025-08-15T01:28:43.798Z,15,GR86-047-21,15.3,-0.964,0.297,98.13,2.0,,50.16,50.1,
2025-08-15T01:28:43.841Z,15,GR86-047-21,18.0,-1.029,0.264,41.05,2.0,,50.19,51.03,
2025-08-15T01:28:43.885Z,15,GR86-047-21,21.1,-0.942,0.474,3.04,2.0,,49.870000000000005,51.245000000000005,
2025-08-15T01:28:43.928Z,15,GR86-047-21,23.700000000000003,-0.979,0.577,2.95,2.0,5572.0,44.025,45.125,
2025-08-15T01:28:43.971Z,15,GR86-047-21,26.6,-0.952,0.439,2.88,2.0,,41.08,41.89,128.28
2025-08-15T01:28:44.015Z,15,GR86-047-21,28.700000000000003,-0.863,0.6900000000000001,2.85,2.0,,40.24,41.215,
2025-08-15T01:28:44.059Z,15,GR86-047-21,29.9,-0.8300000000000001,0.713,2.81,2.0,,37.175,38.075,
2025-08-15T01:28:44.101Z,15,GR86-047-21,29.9,-0.736,0.771,2.77,2.0,,36.12,37.645,
2025-08-15T01:28:44.145Z,15,GR86-047-21,29.9,-0.609,0.852,2.72,2.0,5954.0,35.495,36.515,
2025-08-15T01:28:44.188Z,15,GR86-047-21,28.0,-0.662,0.75,2.69,2.0,,32.275,33.405,121.69
2025-08-15T01:28:44.231Z,15,GR86-047-21,26.6,-0.668,0.95,2.65,2.0,,29.24,29.865,
2025-08-15T01:28:44.275Z,15,GR86-047-21,24.9,-0.582,0.907,2.63,2.0,,25.865,26.43,
2025-08-15T01:28:44.317Z,15,GR86-047-21,23.200000000000003,-0.528,0.8310000000000001,2.62,2.0,,24.735,25.635,
2025-08-15T01:28:44.360Z,15,GR86-047-21,22.6,-0.53,0.9,2.59,2.0,5970.0,24.995,25.485,
2025-08-15T01:28:44.404Z,15,GR86-047-21,22.3,-0.512,0.893,2.59,2.0,,23.655,24.4,117.04
2025-08-15T01:28:44.446Z,15,GR86-047-21,24.700000000000003,-0.579,0.957,2.59,2.0,,21.9,22.645,
2025-08-15T01:28:44.489Z,15,GR86-047-21,28.8,-0.491,0.988,2.56,2.0,,21.655,22.34,
2025-08-15T01:28:44.532Z,15,GR86-047-21,29.3,-0.55,0.986,2.56,2.0,,21.15,21.93,
2025-08-15T01:28:44.575Z,15,GR86-047-21,28.700000000000003,-0.537,0.98,2.56,2.0,5934.0,19.335,20.115,
2025-08-15T01:28:44.618Z,15,GR86-047-21,27.6,-0.505,0.912,2.56,2.0,,13.95,14.68,111.13
2025-08-15T01:28:44.661Z,15,GR86-047-21,27.5,-0.397,1.004,2.5500000000000003,2.0,,5.555,6.15,
2025-08-15T01:28:44.705Z,15,GR86-047-21,35.0,-0.177,1.009,2.53,2.0,,0.0,0.0,
2025-08-15T01:28:44.748Z,15,GR86-047-21,42.2,-0.19,1.077,2.53,2.0,,0.0,0.0,
2025-08-15T01:28:44.791Z,15,GR86-047-21,47.8,-0.163,1.039,2.53,2.0,5688.0,0.0,0.0,
2025-08-15T01:28:44.835Z,15,GR86-047-21,51.6,-0.154,1.029,2.52,2.0,,0.0,0.0,106.64
2025-08-15T01:28:44.878Z,15,GR86-047-21,54.400000000000006,-0.184,1.163,2.52,2.0,,0.0,0.0,
2025-08-15T01:28:44.921Z,15,GR86-047-21,55.3,-0.156,1.141,2.51,2.0,,0.0,0.0,
2025-08-15T01:28:44.965Z,15,GR86-047-21,55.3,-0.159,1.15,2.49,2.0,,0.0,0.0,
2025-08-15T01:28:45.008Z,15,GR86-047-21,55.3,-0.171,1.178,2.51,2.0,5509.0,0.0,0.0,
2025-08-15T01:28:45.051Z,15,GR86-047-21,55.3,-0.162,1.165,2.49,2.0,,0.0,0.0,102.76
2025-08-15T01:28:45.095Z,15,GR86-047-21,55.0,-0.187,1.164,2.59,2.0,,0.0,0.0,
2025-08-15T01:28:45.137Z,15,GR86-047-21,54.7,-0.125,1.172,2.78,2.0,,0.0,0.0,
2025-08-15T01:28:45.180Z,15,GR86-047-21,54.5,-0.186,1.164,2.81,2.0,,0.0,0.0,
2025-08-15T01:28:45.224Z,15,GR86-047-21,54.5,-0.152,1.184,5.48,2.0,5501.0,0.0,0.0,
2025-08-15T01:28:45.268Z,15,GR86-047-21,54.5,-0.155,1.192,12.87,2.0,,0.0,0.0,101.03
2025-08-15T01:28:45.311Z,15,GR86-047-21,55.5,-0.165,1.25,14.58,2.0,,0.0,0.0,
2025-08-15T01:28:45.355Z,15,GR86-047-21,58.900000000000006,-0.138,1.186,12.5,2.0,,0.0,0.0,
2025-08-15T01:28:45.398Z,15,GR86-047-21,63.0,-0.141,1.196,21.37,2.0,,0.0,0.0,
2025-08-15T01:28:45.440Z,15,GR86-047-21,67.3,-0.121,1.221,21.08,2.0,5433.0,0.0,0.0,
2025-08-15T01:28:45.486Z,15,GR86-047-21,73.5,-0.141,1.203,21.24,2.0,,0.0,0.0,98.0
2025-08-15T01:28:45.528Z,15,GR86-047-21,77.0,-0.072,1.213,23.01,2.0,,0.0,0.0,
2025-08-15T01:28:45.571Z,15,GR86-047-21,79.80000000000001,-0.125,1.205,25.17,2.0,,0.0,0.0,
2025-08-15T01:28:45.615Z,15,GR86-047-21,81.60000000000001,0.084,1.168,25.16,2.0,,0.0,0.0,
2025-08-15T01:28:45.659Z,15,GR86-047-21,83.0,0.062,1.216,26.65,2.0,5343.0,0.0,0.0,
2025-08-15T01:28:45.702Z,15,GR86-047-21,83.4,0.102,1.244,26.68,2.0,,0.0,0.0,96.54
2025-08-15T01:28:45.746Z,15,GR86-047-21,83.4,0.103,1.318,28.01,2.0,,0.0,0.0,
2025-08-15T01:28:45.788Z,15,GR86-047-21,83.5,0.054,1.362,28.33,2.0,,0.0,0.0,
2025-08-15T01:28:45.831Z,15,GR86-047-21,83.5,0.211,1.177,28.05,2.0,,0.0,0.0,
2025-08-15T01:28:45.875Z,15,GR86-047-21,83.30000000000001,0.034,1.217,28.43,2.0,5336.0,0.0,0.0,
2025-08-15T01:28:45.917Z,15,GR86-047-21,82.7,0.057,1.26,28.51,2.0,,0.0,0.0,95.15
2025-08-15T01:28:45.960Z,15,GR86-047-21,80.60000000000001,0.163,1.415,29.97,2.0,,0.0,0.0,
2025-08-15T01:28:46.004Z,15,GR86-047-21,74.9,0.026,1.16,41.73,2.0,,0.0,0.0,
2025-08-15T01:28:46.046Z,15,GR86-047-21,72.2,0.334,1.094,44.12,2.0,,0.0,0.0,
2025-08-15T01:28:46.089Z,15,GR86-047-21,70.0,0.177,1.004,55.58,2.0,5543.0,0.0,0.0,
2025-08-15T01:28:46.132Z,15,GR86-047-21,67.10000000000001,-0.016,0.994,81.55,2.0,,0.0,0.0,94.51
2025-08-15T01:28:46.175Z,15,GR86-047-21,64.2,0.102,1.269,99.94,2.0,,0.0,0.0,
2025-08-15T01:28:46.218Z,15,GR86-047-21,62.400000000000006,0.486,1.16,99.78,2.0,,0.0,0.0,
2025-08-15T01:28:46.261Z,15,GR86-047-21,60.2,0.434,1.034,99.77,2.0,,0.0,0.0,
2025-08-15T01:28:46.305Z,15,GR86-047-21,56.900000000000006,0.254,1.07,99.78,2.0,5643.0,0.0,0.0,
2025-08-15T01:28:46.348Z,15,GR86-047-21,56.7,0.241,1.157,99.78,2.0,,0.0,0.0,94.63
2025-08-15T01:28:46.392Z,15,GR86-047-21,56.7,0.256,1.088,99.8,2.0,,0.0,0.0,
2025-08-15T01:28:46.436Z,15,GR86-047-21,59.1,0.233,1.216,99.8,2.0,,0.0,0.0,
2025-08-15T01:28:46.478Z,15,GR86-047-21,62.3,0.294,1.185,99.81,2.0,,0.0,0.0,
2025-08-15T01:28:46.521Z,15,GR86-047-21,63.5,0.236,1.14,99.8,2.0,5697.0,0.0,0.0,
2025-08-15T01:28:46.565Z,15,GR86-047-21,63.6,0.263,1.096,99.79,2.0,,0.0,0.0,95.1
2025-08-15T01:28:46.608Z,15,GR86-047-21,63.5,0.243,1.064,99.8,2.0,,0.0,0.0,
2025-08-15T01:28:46.652Z,15,GR86-047-21,62.3,0.196,1.071,99.79,2.0,,0.0,0.0,
2025-08-15T01:28:46.695Z,15,GR86-047-21,59.7,0.247,1.123,99.8,2.0,,0.0,0.0,
2025-08-15T01:28:46.738Z,15,GR86-047-21,56.8,0.229,1.091,99.8,2.0,5756.0,0.0,0.0,
2025-08-15T01:28:46.781Z,15,GR86-047-21,54.1,0.305,1.058,99.78,2.0,,0.0,0.0,96.84
