timestamp,lap,vehicle_id,steering_angle,accx_can,accy_can,ath,gear,nmot,pbrake_f,pbrake_r,speed
2025-08-15T04:39:06.189Z,1,GR86-021-86,0.8,0.185,0.047,29.56,1.0,6179.0,0.0,0.0,
2025-08-15T04:39:06.232Z,1,GR86-021-86,0.9,0.191,0.035,26.86,1.0,,0.0,0.0,83.01
2025-08-15T04:39:06.276Z,1,GR86-021-86,0.7000000000000001,0.193,0.068,24.55,1.0,,0.0,0.0,
2025-08-15T04:39:06.319Z,1,GR86-021-86,0.6000000000000001,0.196,0.047,23.04,1.0,,0.0,0.0,
2025-08-15T04:39:06.362Z,1,GR86-021-86,0.6000000000000001,0.156,0.086,22.85,1.0,,0.0,0.0,
2025-08-15T04:39:06.406Z,1,GR86-021-86,0.6000000000000001,0.118,0.049,22.9,1.0,6245.0,0.0,0.0,
2025-08-15T04:39:06.450Z,1,GR86-021-86,0.6000000000000001,0.068,0.055,23.01,1.0,,0.0,0.0,83.95
2025-08-15T04:39:06.492Z,1,GR86-021-86,0.5,0.065,0.024,23.0,1.0,,0.0,0.0,
2025-08-15T04:39:06.536Z,1,GR86-021-86,0.2,0.098,0.05,22.97,1.0,,0.0,0.0,
2025-08-15T04:39:06.581Z,1,GR86-021-86,0.2,0.119,0.016,23.06,1.0,,0.0,0.0,
2025-08-15T04:39:06.624Z,1,GR86-021-86,0.2,0.125,0.045,23.47,1.0,6226.0,0.0,0.0,
2025-08-15T04:39:06.670Z,1,GR86-021-86,0.2,0.092,0.051,23.85,1.0,,0.0,0.0,85.03
2025-08-15T04:39:06.712Z,1,GR86-021-86,0.2,0.086,0.062,24.2,1.0,,0.0,0.0,
2025-08-15T04:39:06.756Z,1,GR86-021-86,0.2,0.094,0.059,24.26,1.0,,0.0,0.0,
2025-08-15T04:39:06.800Z,1,GR86-021-86,0.2,0.118,0.063,24.27,1.0,,0.0,0.0,
2025-08-15T04:39:06.842Z,1,GR86-021-86,0.2,0.132,0.062,24.26,1.0,6267.0,0.0,0.0,
2025-08-15T04:39:06.886Z,1,GR86-021-86,0.1,0.138,0.066,24.24,1.0,,0.0,0.0,85.44
2025-08-15T04:39:06.929Z,1,GR86-021-86,-0.1,0.104,0.065,24.2,1.0,,0.0,0.0,
2025-08-15T04:39:06.972Z,1,GR86-021-86,-0.2,0.099,0.043,24.14,1.0,,0.0,0.0,
2025-08-15T04:39:07.015Z,1,GR86-021-86,-0.4,0.087,0.053,24.12,1.0,,0.0,0.0,
2025-08-15T04:39:07.060Z,1,GR86-021-86,-0.6000000000000001,0.11,0.051,24.05,1.0,6321.0,0.0,0.0,
2025-08-15T04:39:07.102Z,1,GR86-021-86,-0.7000000000000001,0.12,0.045,24.01,1.0,,0.0,0.0,85.8
2025-08-15T04:39:07.146Z,1,GR86-021-86,-0.8,0.126,0.057,24.0,1.0,,0.0,0.0,
2025-08-15T04:39:07.189Z,1,GR86-021-86,-1.0,0.106,0.044,24.04,1.0,,0.0,0.0,
2025-08-15T04:39:07.232Z,1,GR86-021-86,-1.2000000000000002,0.111,0.032,24.1,1.0,,0.0,0.0,
2025-08-15T04:39:07.276Z,1,GR86-021-86,-1.6,0.1,0.041,24.3,1.0,6358.0,0.0,0.0,
2025-08-15T04:39:07.320Z,1,GR86-021-86,-1.8,0.11,0.023,24.46,1.0,,0.0,0.0,86.15
2025-08-15T04:39:07.362Z,1,GR86-021-86,-2.4000000000000004,0.113,0.027,24.52,1.0,,0.0,0.0,
2025-08-15T04:39:07.406Z,1,GR86-021-86,-3.3000000000000003,0.117,0.027,24.57,1.0,,0.0,0.0,
2025-08-15T04:39:07.450Z,1,GR86-021-86,-4.2,0.105,0.02,24.94,1.0,,0.0,0.0,
2025-08-15T04:39:07.492Z,1,GR86-021-86,-4.6000000000000005,0.115,-0.015,25.29,1.0,6390.0,0.0,0.0,
2025-08-15T04:39:07.535Z,1,GR86-021-86,-4.5,0.103,0.001,25.99,1.0,,0.0,0.0,86.51
2025-08-15T04:39:07.581Z,1,GR86-021-86,-4.0,0.119,-0.034,26.89,1.0,,0.0,0.0,
2025-08-15T04:39:07.624Z,1,GR86-021-86,-3.7,0.13,-0.013,28.41,1.0,,0.0,0.0,
2025-08-15T04:39:07.666Z,1,GR86-021-86,-3.6,0.143,-0.021,28.51,1.0,,0.0,0.0,
2025-08-15T04:39:07.710Z,1,GR86-021-86,-3.4000000000000004,0.155,-0.003,27.55,1.0,6435.0,0.0,0.0,
2025-08-15T04:39:07.752Z,1,GR86-021-86,-3.2,0.169,-0.02,26.46,1.0,,0.0,0.0,86.9
2025-08-15T04:39:07.796Z,1,GR86-021-86,-3.2,0.161,0.014,25.63,1.0,,0.0,0.0,
2025-08-15T04:39:07.839Z,1,GR86-021-86,-3.2,0.146,-0.02,24.56,1.0,,0.0,0.0,
2025-08-15T04:39:07.882Z,1,GR86-021-86,-3.2,0.125,0.013,23.98,1.0,,0.0,0.0,
2025-08-15T04:39:07.924Z,1,GR86-021-86,-3.1,0.108,-0.027,23.51,1.0,6462.0,0.0,0.0,
2025-08-15T04:39:07.970Z,1,GR86-021-86,-3.1,0.091,0.011,23.39,1.0,,0.0,0.0,87.44
2025-08-15T04:39:08.012Z,1,GR86-021-86,-3.1,0.074,-0.006,23.36,1.0,,0.0,0.0,
2025-08-15T04:39:08.056Z,1,GR86-021-86,-3.1,0.092,0.017,23.35,1.0,,0.0,0.0,
2025-08-15T04:39:08.099Z,1,GR86-021-86,-3.1,0.091,-0.009,23.36,1.0,,0.0,0.0,
2025-08-15T04:39:08.142Z,1,GR86-021-86,-3.0,0.104,0.008,23.38,1.0,6510.0,0.0,0.0,
2025-08-15T04:39:08.186Z,1,GR86-021-86,-2.9000000000000004,0.087,-0.004,23.51,1.0,,0.0,0.0,88.10000000000001
2025-08-15T04:39:08.230Z,1,GR86-021-86,-2.6,0.087,0.001,23.62,1.0,,0.0,0.0,
2025-08-15T04:39:08.272Z,1,GR86-021-86,-2.5,0.087,0.03,23.57,1.0,,0.0,0.0,
2025-08-15T04:39:08.316Z,1,GR86-021-86,-2.4000000000000004,0.101,0.009,23.52,1.0,,0.0,0.0,
2025-08-15T04:39:08.360Z,1,GR86-021-86,-2.4000000000000004,0.102,0.019,23.54,1.0,6529.0,0.0,0.0,
2025-08-15T04:39:08.402Z,1,GR86-021-86,-2.4000000000000004,0.112,0.012,23.63,1.0,,0.0,0.0,88.49
2025-08-15T04:39:08.446Z,1,GR86-021-86,-2.3000000000000003,0.096,0.016,23.85,1.0,,0.0,0.0,
2025-08-15T04:39:08.489Z,1,GR86-021-86,-2.3000000000000003,0.087,0.003,23.99,1.0,,0.0,0.0,
2025-08-15T04:39:08.532Z,1,GR86-021-86,-2.3000000000000003,0.081,0.035,25.55,1.0,,0.0,0.0,
2025-08-15T04:39:08.576Z,1,GR86-021-86,-2.2,0.099,0.002,29.28,1.0,6553.0,0.0,0.0,
2025-08-15T04:39:08.620Z,1,GR86-021-86,-2.1,0.107,0.03,31.37,1.0,,0.0,0.0,88.88
2025-08-15T04:39:08.663Z,1,GR86-021-86,-2.1,0.129,-0.001,32.03,1.0,,0.0,0.0,
2025-08-15T04:39:08.706Z,1,GR86-021-86,-2.1,0.16,0.036,32.13,1.0,,0.0,0.0,
2025-08-15T04:39:08.750Z,1,GR86-021-86,-2.1,0.212,0.025,32.24,1.0,,0.0,0.0,
2025-08-15T04:39:08.792Z,1,GR86-021-86,-2.2,0.226,0.043,32.82,1.0,6613.0,0.0,0.0,
2025-08-15T04:39:08.836Z,1,GR86-021-86,-2.2,0.199,0.028,34.35,1.0,,0.0,0.0,89.26
2025-08-15T04:39:08.881Z,1,GR86-021-86,-2.2,0.178,0.052,36.71,1.0,,0.0,0.0,
2025-08-15T04:39:08.924Z,1,GR86-021-86,-2.2,0.164,0.03,38.61,1.0,,0.0,0.0,
2025-08-15T04:39:08.966Z,1,GR86-021-86,-2.2,0.191,0.036,39.51,1.0,,0.0,0.0,
2025-08-15T04:39:09.010Z,1,GR86-021-86,-2.2,0.24,0.031,41.56,1.0,6662.0,0.0,0.0,
2025-08-15T04:39:09.052Z,1,GR86-021-86,-2.2,0.28,0.009,43.28,1.0,,0.0,0.0,89.9
2025-08-15T04:39:09.096Z,1,GR86-021-86,-2.2,0.277,0.037,43.92,1.0,,0.0,0.0,
2025-08-15T04:39:09.139Z,1,GR86-021-86,-2.2,0.269,0.014,43.71,1.0,,0.0,0.0,
2025-08-15T04:39:09.182Z,1,GR86-021-86,-2.2,0.249,0.053,43.17,1.0,,0.0,0.0,
2025-08-15T04:39:09.224Z,1,GR86-021-86,-2.2,0.254,0.015,41.88,1.0,6819.0,0.0,0.0,
2025-08-15T04:39:09.270Z,1,GR86-021-86,-2.4000000000000004,0.27,0.03,39.28,1.0,,0.0,0.0,92.48
2025-08-15T04:39:09.312Z,1,GR86-021-86,-2.6,0.258,0.019,37.31,1.0,,0.0,0.0,
2025-08-15T04:39:09.356Z,1,GR86-021-86,-2.7,0.254,0.003,36.69,1.0,,0.0,0.0,
2025-08-15T04:39:09.399Z,1,GR86-021-86,-2.8000000000000003,0.218,0.011,36.84,1.0,,0.0,0.0,
2025-08-15T04:39:09.442Z,1,GR86-021-86,-2.9000000000000004,0.209,0.004,37.01,1.0,6915.0,0.0,0.0,
2025-08-15T04:39:09.485Z,1,GR86-021-86,-3.1,0.192,0.03,37.19,1.0,,0.0,0.0,94.03
2025-08-15T04:39:09.530Z,1,GR86-021-86,-3.4000000000000004,0.193,0.004,37.37,1.0,,0.0,0.0,
2025-08-15T04:39:09.572Z,1,GR86-021-86,-3.4000000000000004,0.219,0.028,37.42,1.0,,0.0,0.0,
2025-08-15T04:39:09.616Z,1,GR86-021-86,-3.4000000000000004,0.215,0.01,37.36,1.0,,0.0,0.0,
2025-08-15T04:39:09.659Z,1,GR86-021-86,-3.2,0.224,0.019,37.04,1.0,6994.0,0.0,0.0,
2025-08-15T04:39:09.702Z,1,GR86-021-86,-3.2,0.198,0.012,36.33,1.0,,0.0,0.0,95.39
2025-08-15T04:39:09.746Z,1,GR86-021-86,-3.2,0.212,0.024,35.81,1.0,,0.0,0.0,
2025-08-15T04:39:09.789Z,1,GR86-021-86,-3.1,0.187,0.019,35.4,1.0,,0.0,0.0,
2025-08-15T04:39:09.832Z,1,GR86-021-86,-3.0,0.173,0.01,35.02,1.0,,0.0,0.0,
2025-08-15T04:39:09.875Z,1,GR86-021-86,-3.0,0.175,0.014,34.6,1.0,7184.0,0.0,0.0,
2025-08-15T04:39:09.919Z,1,GR86-021-86,-2.9000000000000004,0.174,0.013,33.63,1.0,,0.0,0.0,96.68
2025-08-15T04:39:09.962Z,1,GR86-021-86,-3.1,0.188,0.013,32.58,1.0,,0.0,0.0,
2025-08-15T04:39:10.006Z,1,GR86-021-86,-3.2,0.177,0.012,32.09,1.0,,0.0,0.0,
2025-08-15T04:39:10.050Z,1,GR86-021-86,-3.2,0.14,-0.007,31.89,1.0,,0.0,0.0,
2025-08-15T04:39:10.092Z,1,GR86-021-86,-3.2,0.129,0.016,31.84,1.0,7234.0,0.0,0.0,
2025-08-15T04:39:10.136Z,1,GR86-021-86,-3.2,0.123,0.002,31.46,1.0,,0.0,0.0,97.82
2025-08-15T04:39:10.181Z,1,GR86-021-86,-3.2,0.134,0.015,30.03,1.0,,0.0,0.0,
2025-08-15T04:39:10.224Z,1,GR86-021-86,-3.2,0.114,0.017,27.85,1.0,,0.0,0.0,
2025-08-15T04:39:10.270Z,1,GR86-021-86,-3.2,0.098,-0.017,24.33,1.0,,0.0,0.0,
2025-08-15T04:39:10.312Z,1,GR86-021-86,-3.3000000000000003,0.079,0.017,20.17,1.0,7284.0,0.0,0.0,
2025-08-15T04:39:10.356Z,1,GR86-021-86,-3.4000000000000004,0.047,-0.015,14.84,1.0,,0.0,0.0,98.78
2025-08-15T04:39:10.400Z,1,GR86-021-86,-3.5,0.036,0.011,9.76,1.0,,0.0,0.0,
2025-08-15T04:39:10.442Z,1,GR86-021-86,-3.7,-0.015,-0.003,8.69,1.0,,0.0,0.0,
2025-08-15T04:39:10.486Z,1,GR86-021-86,-3.7,-0.045,0.002,7.75,1.0,,0.0,0.0,
2025-08-15T04:39:10.529Z,1,GR86-021-86,-3.7,-0.031,-0.003,6.33,1.0,7239.0,0.0,0.0,
2025-08-15T04:39:10.572Z,1,GR86-021-86,-3.6,-0.169,-0.034,5.04,1.0,,0.0,0.0,99.38
2025-08-15T04:39:10.616Z,1,GR86-021-86,-3.6,-0.348,-0.004,3.84,1.0,,0.0,0.0,
2025-08-15T04:39:10.660Z,1,GR86-021-86,-3.6,-0.371,-0.012,2.93,1.0,,0.0,0.0,
2025-08-15T04:39:10.702Z,1,GR86-021-86,-3.1,-0.256,-0.013,2.8000000000000003,1.0,,0.0,0.0,
2025-08-15T04:39:10.746Z,1,GR86-021-86,-2.4000000000000004,-0.162,0.002,2.71,1.0,7068.0,0.0,0.0,
2025-08-15T04:39:10.789Z,1,GR86-021-86,-1.9,-0.091,0.008,2.64,1.0,,4.745,5.4,99.25
2025-08-15T04:39:10.832Z,1,GR86-021-86,-1.9,-0.184,0.032,2.62,1.0,,17.365000000000002,17.93,
2025-08-15T04:39:10.876Z,1,GR86-021-86,-2.3000000000000003,-0.47,0.023,2.61,1.0,,27.53,27.71,
2025-08-15T04:39:10.920Z,1,GR86-021-86,-2.8000000000000003,-0.6900000000000001,0.038,2.59,1.0,,37.385,37.495,
2025-08-15T04:39:10.962Z,1,GR86-021-86,-3.5,-0.8310000000000001,0.063,2.58,1.0,7033.0,44.345,44.405,
2025-08-15T04:39:11.006Z,1,GR86-021-86,-3.7,-0.8220000000000001,0.047,2.56,1.0,,47.81,47.705,97.64
2025-08-15T04:39:11.050Z,1,GR86-021-86,-4.4,-0.906,0.055,2.5500000000000003,1.0,,50.845,50.815,
2025-08-15T04:39:11.092Z,1,GR86-021-86,-4.800000000000001,-0.949,0.054,2.5500000000000003,1.0,,53.120000000000005,53.06,
2025-08-15T04:39:11.136Z,1,GR86-021-86,-5.2,-0.988,0.046,2.52,1.0,,53.835,53.93,
2025-08-15T04:39:11.181Z,1,GR86-021-86,-5.7,-1.011,0.041,2.54,1.0,6682.0,53.09,53.515,
2025-08-15T04:39:11.223Z,1,GR86-021-86,-6.2,-0.998,0.035,2.54,1.0,,49.73,51.245000000000005,94.22
2025-08-15T04:39:11.266Z,1,GR86-021-86,-6.2,-0.96,0.02,2.52,1.0,,43.26,45.305,
2025-08-15T04:39:11.309Z,1,GR86-021-86,-6.1000000000000005,-0.786,0.013,2.52,1.0,,31.985,33.465,
2025-08-15T04:39:11.352Z,1,GR86-021-86,-5.6000000000000005,-0.664,0.013,2.51,1.0,,25.395,26.69,
2025-08-15T04:39:11.396Z,1,GR86-021-86,-5.6000000000000005,-0.557,0.02,2.52,1.0,6160.0,19.79,20.875,
2025-08-15T04:39:11.439Z,1,GR86-021-86,-5.6000000000000005,-0.466,0.001,2.52,1.0,,15.99,17.06,88.0
2025-08-15T04:39:11.482Z,1,GR86-021-86,-5.6000000000000005,-0.46,0.007,2.52,1.0,,14.33,15.305,
2025-08-15T04:39:11.524Z,1,GR86-021-86,-5.6000000000000005,-0.561,-0.011,2.52,1.0,,14.88,15.505,
2025-08-15T04:39:11.570Z,1,GR86-021-86,-5.6000000000000005,-0.5710000000000001,0.009,2.51,1.0,,16.830000000000002,17.455000000000002,
2025-08-15T04:39:11.613Z,1,GR86-021-86,-5.5,-0.489,-0.023,2.5,1.0,5683.0,17.150000000000002,17.81,
2025-08-15T04:39:11.656Z,1,GR86-021-86,-5.4,-0.443,0.005,2.5,1.0,,16.375,17.215,81.77
2025-08-15T04:39:11.699Z,1,GR86-021-86,-5.4,-0.396,0.003,2.51,1.0,,13.045,13.915,
2025-08-15T04:39:11.742Z,1,GR86-021-86,-5.300000000000001,-0.311,0.001,2.5,1.0,,8.67,9.52,
2025-08-15T04:39:11.786Z,1,GR86-021-86,-5.1000000000000005,-0.276,0.008,2.5,1.0,,6.2700000000000005,7.05,
2025-08-15T04:39:11.872Z,1,GR86-021-86,-5.0,-0.287,-0.002,2.49,1.0,5601.0,3.13,3.845,74.33
2025-08-15T04:39:11.915Z,1,GR86-021-86,-4.9,-0.229,-0.023,2.5,1.0,,0.0,0.0,
2025-08-15T04:39:11.960Z,1,GR86-021-86,-4.800000000000001,-0.163,0.009,2.5,1.0,,0.0,0.0,
2025-08-15T04:39:12.002Z,1,GR86-021-86,-4.7,-0.128,0.005,2.49,1.0,,0.0,0.0,
2025-08-15T04:39:12.046Z,1,GR86-021-86,-4.6000000000000005,-0.118,-0.006,2.49,1.0,5282.0,0.0,0.0,
2025-08-15T04:39:12.089Z,1,GR86-021-86,-4.5,-0.155,-0.005,2.51,1.0,,0.0,0.0,72.22
2025-08-15T04:39:12.132Z,1,GR86-021-86,-4.5,-0.153,-0.016,2.51,1.0,,0.0,0.0,
2025-08-15T04:39:12.175Z,1,GR86-021-86,-4.6000000000000005,-0.159,0.006,2.51,1.0,,0.0,0.0,
2025-08-15T04:39:12.220Z,1,GR86-021-86,-4.6000000000000005,-0.143,-0.016,2.49,1.0,,0.0,0.0,
2025-08-15T04:39:12.263Z,1,GR86-021-86,-4.6000000000000005,-0.138,-0.014,2.49,1.0,5201.0,0.0,0.0,
2025-08-15T04:39:12.306Z,1,GR86-021-86,-4.5,-0.128,0.002,2.5,1.0,,0.0,0.0,70.87
2025-08-15T04:39:12.350Z,1,GR86-021-86,-4.5,-0.135,-0.007,28.7,1.0,,0.0,0.0,
2025-08-15T04:39:12.392Z,1,GR86-021-86,-4.6000000000000005,-0.138,0.005,71.46000000000001,1.0,,0.0,0.0,
2025-08-15T04:39:12.436Z,1,GR86-021-86,-4.6000000000000005,-0.101,-0.021,97.6,1.0,,0.0,0.0,
2025-08-15T04:39:12.481Z,1,GR86-021-86,-4.5,-0.027,-0.001,99.45,1.0,5104.0,0.0,0.0,
2025-08-15T04:39:12.524Z,1,GR86-021-86,-4.3,-0.028,-0.008,99.67,1.0,,0.0,0.0,69.67
2025-08-15T04:39:12.566Z,1,GR86-021-86,-3.9,0.665,-0.011,99.76,1.0,,0.0,0.0,
2025-08-15T04:39:12.610Z,1,GR86-021-86,-2.7,0.342,-0.011,99.89,1.0,,0.0,0.0,
2025-08-15T04:39:12.652Z,1,GR86-021-86,-2.6,0.634,0.036,100.0,1.0,,0.0,0.0,
2025-08-15T04:39:12.696Z,1,GR86-021-86,-2.7,0.49,0.008,100.04,1.0,5393.0,0.0,0.0,
2025-08-15T04:39:12.739Z,1,GR86-021-86,-2.7,0.335,-0.029,100.05,1.0,,0.0,0.0,69.21000000000001
2025-08-15T04:39:12.782Z,1,GR86-021-86,-2.8000000000000003,0.21,0.046,100.05,1.0,,0.0,0.0,
2025-08-15T04:39:12.824Z,1,GR86-021-86,-3.0,0.22,-0.013,100.03,1.0,,0.0,0.0,
2025-08-15T04:39:12.870Z,1,GR86-021-86,-2.5,0.358,0.03,100.05,1.0,,0.0,0.0,
2025-08-15T04:39:12.912Z,1,GR86-021-86,-2.3000000000000003,0.442,0.02,100.04,1.0,5500.0,0.0,0.0,
2025-08-15T04:39:12.956Z,1,GR86-021-86,-2.3000000000000003,0.444,0.01,100.04,1.0,,0.0,0.0,71.97
2025-08-15T04:39:12.999Z,1,GR86-021-86,-2.3000000000000003,0.382,0.036,100.05,1.0,,0.0,0.0,
2025-08-15T04:39:13.042Z,1,GR86-021-86,-2.1,0.307,0.019,100.05,1.0,,0.0,0.0,
2025-08-15T04:39:13.086Z,1,GR86-021-86,-2.0,0.274,0.021,100.04,1.0,,0.0,0.0,
2025-08-15T04:39:13.129Z,1,GR86-021-86,-1.8,0.33,0.012,100.04,1.0,5543.0,0.0,0.0,
2025-08-15T04:39:13.172Z,1,GR86-021-86,-1.5,0.36,0.016,100.06,1.0,,0.0,0.0,74.2
2025-08-15T04:39:13.215Z,1,GR86-021-86,-1.2000000000000002,0.384,0.036,100.03,1.0,,0.0,0.0,
2025-08-15T04:39:13.259Z,1,GR86-021-86,-0.9,0.381,0.024,100.02,1.0,,0.0,0.0,
2025-08-15T04:39:13.302Z,1,GR86-021-86,-0.9,0.345,0.043,100.03,1.0,,0.0,0.0,
2025-08-15T04:39:13.346Z,1,GR86-021-86,-0.9,0.329,0.025,100.07,1.0,5766.0,0.0,0.0,
2025-08-15T04:39:13.389Z,1,GR86-021-86,-0.9,0.324,0.044,100.05,1.0,,0.0,0.0,76.46000000000001
2025-08-15T04:39:13.432Z,1,GR86-021-86,-0.9,0.367,0.02,100.06,1.0,,0.0,0.0,
2025-08-15T04:39:13.475Z,1,GR86-021-86,-0.9,0.39,0.037,100.03,1.0,,0.0,0.0,
2025-08-15T04:39:13.519Z,1,GR86-021-86,-0.9,0.397,0.029,100.04,1.0,,0.0,0.0,
2025-08-15T04:39:13.562Z,1,GR86-021-86,-0.8,0.359,0.039,100.04,1.0,5975.0,0.0,0.0,
2025-08-15T04:39:13.606Z,1,GR86-021-86,-0.8,0.343,0.023,100.04,1.0,,0.0,0.0,78.77
2025-08-15T04:39:13.650Z,1,GR86-021-86,-0.7000000000000001,0.328,0.04,100.01,1.0,,0.0,0.0,
2025-08-15T04:39:13.692Z,1,GR86-021-86,-0.7000000000000001,0.344,0.009,100.02,1.0,,0.0,0.0,
2025-08-15T04:39:13.736Z,1,GR86-021-86,-0.7000000000000001,0.343,0.044,100.04,1.0,,0.0,0.0,
2025-08-15T04:39:13.781Z,1,GR86-021-86,-0.7000000000000001,0.358,0.019,100.03,1.0,6104.0,0.0,0.0,
2025-08-15T04:39:13.824Z,1,GR86-021-86,-0.4,0.352,0.044,100.03,1.0,,0.0,0.0,81.08
2025-08-15T04:39:13.866Z,1,GR86-021-86,0.0,0.339,0.034,100.03,1.0,,0.0,0.0,
2025-08-15T04:39:13.910Z,1,GR86-021-86,0.4,0.323,0.059,100.02,1.0,,0.0,0.0,
2025-08-15T04:39:13.952Z,1,GR86-021-86,0.5,0.329,0.044,100.03,1.0,,0.0,0.0,
2025-08-15T04:39:13.996Z,1,GR86-021-86,0.5,0.336,0.063,100.02,1.0,6263.0,0.0,0.0,
2025-08-15T04:39:14.039Z,1,GR86-021-86,0.5,0.354,0.06,100.0,1.0,,0.0,0.0,83.33
2025-08-15T04:39:14.082Z,1,GR86-021-86,0.3,0.346,0.073,100.02,1.0,,0.0,0.0,
2025-08-15T04:39:14.124Z,1,GR86-021-86,0.2,0.351,0.058,99.99,1.0,,0.0,0.0,
2025-08-15T04:39:14.170Z,1,GR86-021-86,0.1,0.314,0.074,99.98,1.0,,0.0,0.0,
2025-08-15T04:39:14.212Z,1,GR86-021-86,0.1,0.3,0.046,99.99,1.0,6452.0,0.0,0.0,
2025-08-15T04:39:14.256Z,1,GR86-021-86,0.1,0.321,0.065,99.97,1.0,,0.0,0.0,85.56
2025-08-15T04:39:14.300Z,1,GR86-021-86,0.1,0.334,0.044,100.0,1.0,,0.0,0.0,
2025-08-15T04:39:14.342Z,1,GR86-021-86,0.1,0.34,0.057,99.99,1.0,,0.0,0.0,
2025-08-15T04:39:14.386Z,1,GR86-021-86,0.1,0.339,0.047,99.99,1.0,,0.0,0.0,
2025-08-15T04:39:14.429Z,1,GR86-021-86,0.1,0.332,0.067,100.02,1.0,6603.0,0.0,0.0,
2025-08-15T04:39:14.472Z,1,GR86-021-86,0.0,0.313,0.062,100.01,1.0,,0.0,0.0,89.9
2025-08-15T04:39:14.515Z,1,GR86-021-86,0.1,0.326,0.071,99.99,1.0,,0.0,0.0,
2025-08-15T04:39:14.560Z,1,GR86-021-86,0.1,0.323,0.064,100.01,1.0,,0.0,0.0,
2025-08-15T04:39:14.602Z,1,GR86-021-86,0.1,0.351,0.056,99.99,1.0,,0.0,0.0,
2025-08-15T04:39:14.646Z,1,GR86-021-86,0.0,0.329,0.044,99.99,1.0,6760.0,0.0,0.0,
2025-08-15T04:39:14.689Z,1,GR86-021-86,-0.1,0.317,0.049,99.98,1.0,,0.0,0.0,92.06
2025-08-15T04:39:14.732Z,1,GR86-021-86,-0.2,0.32,0.043,100.0,1.0,,0.0,0.0,
2025-08-15T04:39:14.776Z,1,GR86-021-86,-0.4,0.306,0.045,99.99,1.0,,0.0,0.0,
2025-08-15T04:39:14.820Z,1,GR86-021-86,-0.8,0.312,0.056,99.99,1.0,,0.0,0.0,
2025-08-15T04:39:14.863Z,1,GR86-021-86,-0.9,0.295,0.034,99.99,1.0,6916.0,0.0,0.0,
2025-08-15T04:39:14.906Z,1,GR86-021-86,-1.1,0.308,0.041,100.0,1.0,,0.0,0.0,94.24
2025-08-15T04:39:14.950Z,1,GR86-021-86,-1.3,0.326,0.051,99.99,1.0,,0.0,0.0,
2025-08-15T04:39:14.992Z,1,GR86-021-86,-1.4,0.317,0.045,100.01,1.0,,0.0,0.0,
2025-08-15T04:39:15.035Z,1,GR86-021-86,-1.6,0.317,0.042,99.98,1.0,,0.0,0.0,
2025-08-15T04:39:15.081Z,1,GR86-021-86,-1.9,0.301,0.026,100.0,1.0,7227.0,0.0,0.0,
2025-08-15T04:39:15.124Z,1,GR86-021-86,-2.3000000000000003,0.304,0.028,100.01,1.0,,0.0,0.0,96.41
2025-08-15T04:39:15.170Z,1,GR86-021-86,-3.0,0.278,0.016,100.02,1.0,,0.0,0.0,
2025-08-15T04:39:15.212Z,1,GR86-021-86,-3.4000000000000004,0.24,0.002,100.01,1.0,,0.0,0.0,
2025-08-15T04:39:15.256Z,1,GR86-021-86,-3.7,0.188,0.002,100.01,1.0,,0.0,0.0,
2025-08-15T04:39:15.299Z,1,GR86-021-86,-3.7,0.123,0.0,99.99,1.0,7298.0,0.0,0.0,
2025-08-15T04:39:15.342Z,1,GR86-021-86,-3.8,0.079,-0.001,100.0,1.0,,0.0,0.0,98.48
2025-08-15T04:39:15.386Z,1,GR86-021-86,-3.8,0.007,-0.003,100.01,1.0,,0.0,0.0,
2025-08-15T04:39:15.430Z,1,GR86-021-86,-3.6,0.007,0.004,100.02,1.0,,0.0,0.0,
2025-08-15T04:39:15.472Z,1,GR86-021-86,-3.4000000000000004,0.007,-0.001,99.97,1.0,,0.0,0.0,
2025-08-15T04:39:15.515Z,1,GR86-021-86,-3.1,-0.05,0.008,99.99,2.0,7338.0,0.0,0.0,
2025-08-15T04:39:15.560Z,1,GR86-021-86,-2.3000000000000003,0.849,0.029,99.98,2.0,,0.0,0.0,99.9
2025-08-15T04:39:15.602Z,1,GR86-021-86,-1.9,0.348,-0.072,99.99,2.0,,0.0,0.0,
2025-08-15T04:39:15.646Z,1,GR86-021-86,-2.5,0.329,0.015,99.97,2.0,,0.0,0.0,
2025-08-15T04:39:15.689Z,1,GR86-021-86,-2.5,0.328,-0.042,99.99,2.0,,0.0,0.0,
2025-08-15T04:39:15.732Z,1,GR86-021-86,-1.8,0.458,0.021,99.99,2.0,6533.0,0.0,0.0,
2025-08-15T04:39:15.775Z,1,GR86-021-86,-1.7000000000000002,0.435,0.04,99.98,2.0,,0.0,0.0,100.34
2025-08-15T04:39:15.820Z,1,GR86-021-86,-1.7000000000000002,0.327,-0.022,99.99,2.0,,0.0,0.0,
2025-08-15T04:39:15.863Z,1,GR86-021-86,-1.7000000000000002,0.205,0.025,99.98,2.0,,0.0,0.0,
2025-08-15T04:39:15.906Z,1,GR86-021-86,-1.8,0.178,0.011,99.99,2.0,,0.0,0.0,
2025-08-15T04:39:15.950Z,1,GR86-021-86,-1.7000000000000002,0.275,0.0,99.98,2.0,5831.0,0.0,0.0,
2025-08-15T04:39:15.992Z,1,GR86-021-86,-1.5,0.345,0.022,99.99,2.0,,0.0,0.0,102.77
2025-08-15T04:39:16.036Z,1,GR86-021-86,-1.5,0.327,0.01,99.99,2.0,,0.0,0.0,
2025-08-15T04:39:16.081Z,1,GR86-021-86,-1.3,0.228,0.045,99.99,2.0,,0.0,0.0,
2025-08-15T04:39:16.124Z,1,GR86-021-86,-1.3,0.229,0.045,100.01,2.0,,0.0,0.0,
2025-08-15T04:39:16.166Z,1,GR86-021-86,-1.2000000000000002,0.239,0.05,100.03,2.0,6014.0,0.0,0.0,
2025-08-15T04:39:16.210Z,1,GR86-021-86,-1.0,0.288,0.038,99.99,2.0,,0.0,0.0,104.7
2025-08-15T04:39:16.252Z,1,GR86-021-86,-0.9,0.294,0.018,99.99,2.0,,0.0,0.0,
2025-08-15T04:39:16.296Z,1,GR86-021-86,-0.9,0.244,0.022,99.99,2.0,,0.0,0.0,
2025-08-15T04:39:16.339Z,1,GR86-021-86,-0.9,0.24,0.038,100.01,2.0,,0.0,0.0,
2025-08-15T04:39:16.382Z,1,GR86-021-86,-0.9,0.263,0.034,100.0,2.0,6142.0,0.0,0.0,
2025-08-15T04:39:16.424Z,1,GR86-021-86,-0.6000000000000001,0.261,0.049,100.01,2.0,,0.0,0.0,106.53
2025-08-15T04:39:16.470Z,1,GR86-021-86,-0.4,0.267,0.073,100.02,2.0,,0.0,0.0,
2025-08-15T04:39:16.512Z,1,GR86-021-86,-0.4,0.263,0.059,100.02,2.0,,0.0,0.0,
2025-08-15T04:39:16.556Z,1,GR86-021-86,-0.4,0.237,0.071,100.01,2.0,,0.0,0.0,
2025-08-15T04:39:16.600Z,1,GR86-021-86,-0.3,0.261,0.064,99.99,2.0,6254.0,0.0,0.0,
2025-08-15T04:39:16.642Z,1,GR86-021-86,-0.4,0.275,0.043,99.99,2.0,,0.0,0.0,108.25
2025-08-15T04:39:16.686Z,1,GR86-021-86,-0.6000000000000001,0.261,0.048,99.99,2.0,,0.0,0.0,
2025-08-15T04:39:16.729Z,1,GR86-021-86,-0.6000000000000001,0.249,0.041,99.99,2.0,,0.0,0.0,
2025-08-15T04:39:16.772Z,1,GR86-021-86,-0.6000000000000001,0.263,0.037,99.99,2.0,,0.0,0.0,
2025-08-15T04:39:16.815Z,1,GR86-021-86,-0.6000000000000001,0.256,0.045,99.99,2.0,6344.0,0.0,0.0,
2025-08-15T04:39:16.860Z,1,GR86-021-86,-0.7000000000000001,0.269,0.05,100.0,2.0,,0.0,0.0,110.02
2025-08-15T04:39:16.902Z,1,GR86-021-86,-0.9,0.258,0.036,100.0,2.0,,0.0,0.0,
2025-08-15T04:39:16.946Z,1,GR86-021-86,-0.9,0.237,0.055,100.01,2.0,,0.0,0.0,
2025-08-15T04:39:16.989Z,1,GR86-021-86,-1.0,0.246,0.035,100.0,2.0,,0.0,0.0,
2025-08-15T04:39:17.032Z,1,GR86-021-86,-1.2000000000000002,0.264,0.024,100.0,2.0,6439.0,0.0,0.0,
2025-08-15T04:39:17.074Z,1,GR86-021-86,-1.3,0.24,0.033,100.0,2.0,,0.0,0.0,113.26
2025-08-15T04:39:17.120Z,1,GR86-021-86,-1.4,0.252,0.035,99.99,2.0,,0.0,0.0,
2025-08-15T04:39:17.162Z,1,GR86-021-86,-1.6,0.273,0.022,100.0,2.0,,0.0,0.0,
2025-08-15T04:39:17.206Z,1,GR86-021-86,-1.7000000000000002,0.249,0.017,100.0,2.0,,0.0,0.0,
2025-08-15T04:39:17.250Z,1,GR86-021-86,-2.0,0.234,0.022,99.99,2.0,6531.0,0.0,0.0,
2025-08-15T04:39:17.292Z,1,GR86-021-86,-2.1,0.251,0.002,100.0,2.0,,0.0,0.0,114.91
2025-08-15T04:39:17.336Z,1,GR86-021-86,-2.1,0.245,0.007,100.0,2.0,,0.0,0.0,
2025-08-15T04:39:17.381Z,1,GR86-021-86,-2.1,0.257,0.03,99.99,2.0,,0.0,0.0,
2025-08-15T04:39:17.424Z,1,GR86-021-86,-2.2,0.269,0.002,99.99,2.0,,0.0,0.0,
2025-08-15T04:39:17.466Z,1,GR86-021-86,-2.2,0.236,0.01,100.02,2.0,6615.0,0.0,0.0,
2025-08-15T04:39:17.510Z,1,GR86-021-86,-2.1,0.237,0.006,100.0,2.0,,0.0,0.0,116.59
2025-08-15T04:39:17.552Z,1,GR86-021-86,-2.1,0.239,0.012,100.0,2.0,,0.0,0.0,
2025-08-15T04:39:17.596Z,1,GR86-021-86,-2.2,0.26,-0.013,100.02,2.0,,0.0,0.0,
2025-08-15T04:39:17.639Z,1,GR86-021-86,-2.3000000000000003,0.245,0.005,100.03,2.0,,0.0,0.0,
2025-08-15T04:39:17.682Z,1,GR86-021-86,-2.3000000000000003,0.241,0.015,100.01,2.0,6820.0,0.0,0.0,
2025-08-15T04:39:17.725Z,1,GR86-021-86,-2.1,0.266,0.005,100.0,2.0,,0.0,0.0,118.26
