timestamp,lap,vehicle_id,steering_angle,accx_can,accy_can,ath,gear,nmot,pbrake_f,pbrake_r,speed
2025-08-15T09:49:14.308Z,17,GR86-028-89,-3.4000000000000004,0.093,0.013,99.99,4.0,,0.0,0.0,
2025-08-15T09:49:14.351Z,17,GR86-028-89,-3.3000000000000003,0.123,-0.002,100.01,4.0,,0.0,0.0,
2025-08-15T09:49:14.395Z,17,GR86-028-89,-3.2,0.077,0.001,99.98,4.0,7123.0,0.0,0.0,
2025-08-15T09:49:14.438Z,17,GR86-028-89,-3.3000000000000003,0.089,-0.02,100.01,4.0,,0.0,0.0,181.68
2025-08-15T09:49:14.481Z,17,GR86-028-89,-3.4000000000000004,0.097,-0.01,100.03,4.0,,0.0,0.0,
2025-08-15T09:49:14.526Z,17,GR86-028-89,-3.4000000000000004,0.071,-0.008,100.02,4.0,,0.0,0.0,
2025-08-15T09:49:14.569Z,17,GR86-028-89,-3.2,0.08,0.0,99.99,4.0,,0.0,0.0,
2025-08-15T09:49:14.612Z,17,GR86-028-89,-2.7,0.077,0.018,99.99,4.0,7151.0,0.0,0.0,
2025-08-15T09:49:14.658Z,17,GR86-028-89,-2.4000000000000004,0.13,-0.006,99.98,4.0,,0.0,0.0,182.4
2025-08-15T09:49:14.701Z,17,GR86-028-89,-2.4000000000000004,0.125,-0.001,99.98,4.0,,0.0,0.0,
2025-08-15T09:49:14.745Z,17,GR86-028-89,-2.6,0.126,-0.011,99.98,4.0,,0.0,0.0,
2025-08-15T09:49:14.787Z,17,GR86-028-89,-2.7,0.126,-0.012,100.01,4.0,,0.0,0.0,
2025-08-15T09:49:14.830Z,17,GR86-028-89,-2.6,0.12,0.016,100.01,4.0,7187.0,0.0,0.0,
2025-08-15T09:49:14.875Z,17,GR86-028-89,-2.6,0.072,0.045,100.01,4.0,,0.0,0.0,183.14
2025-08-15T09:49:14.918Z,17,GR86-028-89,-2.5,0.08,0.032,100.01,4.0,,0.0,0.0,
2025-08-15T09:49:14.961Z,17,GR86-028-89,-2.5,0.071,0.036,99.99,4.0,,0.0,0.0,
2025-08-15T09:49:15.005Z,17,GR86-028-89,-2.5,0.064,0.04,99.99,4.0,,0.0,0.0,
2025-08-15T09:49:15.047Z,17,GR86-028-89,-2.5,0.062,0.048,100.0,4.0,7212.0,0.0,0.0,
2025-08-15T09:49:15.090Z,17,GR86-028-89,-2.5,0.054,0.05,100.01,4.0,,0.0,0.0,183.9
2025-08-15T09:49:15.136Z,17,GR86-028-89,-2.7,0.112,-0.004,100.01,4.0,,0.0,0.0,
2025-08-15T09:49:15.179Z,17,GR86-028-89,-2.9000000000000004,0.116,0.001,100.01,4.0,,0.0,0.0,
2025-08-15T09:49:15.222Z,17,GR86-028-89,-3.1,0.108,-0.01,99.99,4.0,,0.0,0.0,
2025-08-15T09:49:15.265Z,17,GR86-028-89,-3.0,0.114,0.003,100.01,4.0,7242.0,0.0,0.0,
2025-08-15T09:49:15.308Z,17,GR86-028-89,-3.0,0.103,-0.003,100.01,4.0,,0.0,0.0,184.63
2025-08-15T09:49:15.351Z,17,GR86-028-89,-3.0,0.119,-0.005,100.02,4.0,,0.0,0.0,
2025-08-15T09:49:15.395Z,17,GR86-028-89,-2.9000000000000004,0.017,-0.027,100.0,4.0,,0.0,0.0,
2025-08-15T09:49:15.438Z,17,GR86-028-89,-2.8000000000000003,-0.172,0.014,100.0,5.0,,0.0,0.0,
2025-08-15T09:49:15.481Z,17,GR86-028-89,-2.3000000000000003,0.455,-0.018,100.01,5.0,7267.0,0.0,0.0,
2025-08-15T09:49:15.526Z,17,GR86-028-89,-2.2,0.156,-0.103,99.99,5.0,,0.0,0.0,186.06
2025-08-15T09:49:15.569Z,17,GR86-028-89,-2.8000000000000003,0.006,0.042,100.01,5.0,,0.0,0.0,
2025-08-15T09:49:15.612Z,17,GR86-028-89,-2.8000000000000003,-0.003,0.002,100.01,5.0,,0.0,0.0,
2025-08-15T09:49:15.658Z,17,GR86-028-89,-2.7,0.145,0.015,99.99,5.0,,0.0,0.0,
2025-08-15T09:49:15.701Z,17,GR86-028-89,-2.7,0.072,0.046,99.98,5.0,6593.0,0.0,0.0,
2025-08-15T09:49:15.745Z,17,GR86-028-89,-2.8000000000000003,0.009,-0.021,100.0,5.0,,0.0,0.0,186.72
2025-08-15T09:49:15.787Z,17,GR86-028-89,-3.0,0.074,0.022,99.99,5.0,,0.0,0.0,
2025-08-15T09:49:15.831Z,17,GR86-028-89,-2.8000000000000003,0.068,0.042,100.01,5.0,,0.0,0.0,
2025-08-15T09:49:15.875Z,17,GR86-028-89,-2.5,0.095,-0.005,99.99,5.0,,0.0,0.0,
2025-08-15T09:49:15.918Z,17,GR86-028-89,-2.6,0.096,0.022,100.02,5.0,6362.0,0.0,0.0,
2025-08-15T09:49:15.961Z,17,GR86-028-89,-2.7,0.104,-0.006,100.01,5.0,,0.0,0.0,187.38
2025-08-15T09:49:16.005Z,17,GR86-028-89,-2.7,0.089,0.008,99.99,5.0,,0.0,0.0,
2025-08-15T09:49:16.047Z,17,GR86-028-89,-2.8000000000000003,0.099,0.045,99.99,5.0,,0.0,0.0,
2025-08-15T09:49:16.090Z,17,GR86-028-89,-2.6,0.078,0.028,100.0,5.0,,0.0,0.0,
2025-08-15T09:49:16.136Z,17,GR86-028-89,-2.7,0.072,0.048,100.01,5.0,6390.0,0.0,0.0,
2025-08-15T09:49:16.178Z,17,GR86-028-89,-2.5,0.07,0.051,99.99,5.0,,0.0,0.0,188.05
2025-08-15T09:49:16.221Z,17,GR86-028-89,-2.7,0.084,0.028,100.02,5.0,,0.0,0.0,
2025-08-15T09:49:16.266Z,17,GR86-028-89,-2.7,0.093,0.003,100.01,5.0,,0.0,0.0,
2025-08-15T09:49:16.308Z,17,GR86-028-89,-3.0,0.087,-0.016,99.97,5.0,,0.0,0.0,
2025-08-15T09:49:16.351Z,17,GR86-028-89,-3.0,0.085,-0.011,100.01,5.0,6408.0,0.0,0.0,
2025-08-15T09:49:16.395Z,17,GR86-028-89,-3.0,0.042,0.026,99.99,5.0,,0.0,0.0,188.64
2025-08-15T09:49:16.438Z,17,GR86-028-89,-3.3000000000000003,0.051,0.015,100.0,5.0,,0.0,0.0,
2025-08-15T09:49:16.481Z,17,GR86-028-89,-3.2,0.047,0.007,99.99,5.0,,0.0,0.0,
2025-08-15T09:49:16.526Z,17,GR86-028-89,-3.1,0.054,0.0,100.01,5.0,,0.0,0.0,
2025-08-15T09:49:16.569Z,17,GR86-028-89,-3.0,0.055,-0.01,100.0,5.0,6430.0,0.0,0.0,
2025-08-15T09:49:16.612Z,17,GR86-028-89,-3.0,0.063,0.01,99.98,5.0,,0.0,0.0,189.21
2025-08-15T09:49:16.655Z,17,GR86-028-89,-2.8000000000000003,0.068,0.022,99.99,5.0,,0.0,0.0,
2025-08-15T09:49:16.698Z,17,GR86-028-89,-2.7,0.073,0.017,100.02,5.0,,0.0,0.0,
2025-08-15T09:49:16.741Z,17,GR86-028-89,-2.7,0.063,0.021,99.98,5.0,,0.0,0.0,
2025-08-15T09:49:16.786Z,17,GR86-028-89,-2.7,0.052,0.022,100.0,5.0,6446.0,0.0,0.0,
2025-08-15T09:49:16.828Z,17,GR86-028-89,-2.8000000000000003,0.049,0.033,100.01,5.0,,0.0,0.0,189.81
2025-08-15T09:49:16.871Z,17,GR86-028-89,-2.7,0.046,0.026,99.98,5.0,,0.0,0.0,
2025-08-15T09:49:16.916Z,17,GR86-028-89,-2.8000000000000003,0.088,0.006,99.99,5.0,,0.0,0.0,
2025-08-15T09:49:16.958Z,17,GR86-028-89,-2.9000000000000004,0.076,0.02,100.02,5.0,,0.0,0.0,
2025-08-15T09:49:17.001Z,17,GR86-028-89,-3.0,0.065,0.018,99.99,5.0,6480.0,0.0,0.0,
2025-08-15T09:49:17.045Z,17,GR86-028-89,-3.0,0.066,0.002,100.01,5.0,,0.0,0.0,190.43
2025-08-15T09:49:17.089Z,17,GR86-028-89,-3.0,0.071,-0.001,100.01,5.0,,0.0,0.0,
2025-08-15T09:49:17.132Z,17,GR86-028-89,-3.0,0.061,0.012,99.99,5.0,,0.0,0.0,
2025-08-15T09:49:17.175Z,17,GR86-028-89,-2.8000000000000003,0.055,-0.012,99.98,5.0,,0.0,0.0,
2025-08-15T09:49:17.218Z,17,GR86-028-89,-3.0,0.073,-0.027,100.0,5.0,6485.0,0.0,0.0,
2025-08-15T09:49:17.261Z,17,GR86-028-89,-3.1,0.067,-0.013,100.0,5.0,,0.0,0.0,191.1
2025-08-15T09:49:17.305Z,17,GR86-028-89,-3.0,0.069,0.011,100.0,5.0,,0.0,0.0,
2025-08-15T09:49:17.348Z,17,GR86-028-89,-2.9000000000000004,0.065,0.004,99.98,5.0,,0.0,0.0,
2025-08-15T09:49:17.391Z,17,GR86-028-89,-3.0,0.063,0.002,100.0,5.0,,0.0,0.0,
2025-08-15T09:49:17.436Z,17,GR86-028-89,-3.0,0.058,0.004,100.02,5.0,6499.0,0.0,0.0,
2025-08-15T09:49:17.479Z,17,GR86-028-89,-3.0,0.052,0.019,99.98,5.0,,0.0,0.0,191.6
2025-08-15T09:49:17.522Z,17,GR86-028-89,-2.8000000000000003,0.063,0.005,99.99,5.0,,0.0,0.0,
2025-08-15T09:49:17.565Z,17,GR86-028-89,-2.8000000000000003,0.073,-0.016,99.98,5.0,,0.0,0.0,
2025-08-15T09:49:17.608Z,17,GR86-028-89,-2.7,0.061,-0.004,99.99,5.0,,0.0,0.0,
2025-08-15T09:49:17.651Z,17,GR86-028-89,-2.5,0.058,0.013,99.98,5.0,6521.0,0.0,0.0,
2025-08-15T09:49:17.695Z,17,GR86-028-89,-3.1,0.052,0.013,99.97,5.0,,0.0,0.0,192.18
2025-08-15T09:49:17.738Z,17,GR86-028-89,-3.1,0.069,0.012,100.01,5.0,,0.0,0.0,
2025-08-15T09:49:17.781Z,17,GR86-028-89,-2.7,0.046,0.019,99.98,5.0,,0.0,0.0,
2025-08-15T09:49:17.826Z,17,GR86-028-89,-2.7,0.063,-0.006,100.01,5.0,,0.0,0.0,
2025-08-15T09:49:17.869Z,17,GR86-028-89,-3.1,0.061,-0.003,99.97,5.0,6547.0,0.0,0.0,
2025-08-15T09:49:17.912Z,17,GR86-028-89,-3.3000000000000003,0.06,0.017,99.99,5.0,,0.0,0.0,192.64
2025-08-15T09:49:17.955Z,17,GR86-028-89,-3.3000000000000003,0.064,0.03,100.0,5.0,,0.0,0.0,
2025-08-15T09:49:17.998Z,17,GR86-028-89,-3.1,0.052,0.002,99.98,5.0,,0.0,0.0,
2025-08-15T09:49:18.041Z,17,GR86-028-89,-2.8000000000000003,0.06,0.002,100.01,5.0,,0.0,0.0,
2025-08-15T09:49:18.085Z,17,GR86-028-89,-2.6,0.048,0.009,100.0,5.0,6566.0,0.0,0.0,
2025-08-15T09:49:18.127Z,17,GR86-028-89,-2.7,0.064,0.003,99.98,5.0,,0.0,0.0,193.81
2025-08-15T09:49:18.170Z,17,GR86-028-89,-2.7,0.046,0.001,100.0,5.0,,0.0,0.0,
2025-08-15T09:49:18.216Z,17,GR86-028-89,-2.5,0.062,0.013,99.97,5.0,,0.0,0.0,
2025-08-15T09:49:18.258Z,17,GR86-028-89,-2.3000000000000003,0.061,0.014,99.97,5.0,,0.0,0.0,
2025-08-15T09:49:18.301Z,17,GR86-028-89,-2.0,0.061,0.03,99.99,5.0,6576.0,0.0,0.0,
2025-08-15T09:49:18.345Z,17,GR86-028-89,-1.9,0.065,0.027,100.0,5.0,,0.0,0.0,194.41
2025-08-15T09:49:18.387Z,17,GR86-028-89,-1.8,0.049,0.022,100.01,5.0,,0.0,0.0,
2025-08-15T09:49:18.430Z,17,GR86-028-89,-1.8,0.069,0.024,99.99,5.0,,0.0,0.0,
2025-08-15T09:49:18.475Z,17,GR86-028-89,-2.0,0.076,0.032,100.0,5.0,,0.0,0.0,
2025-08-15T09:49:18.518Z,17,GR86-028-89,-2.1,0.057,0.052,99.98,5.0,6616.0,0.0,0.0,
2025-08-15T09:49:18.561Z,17,GR86-028-89,-2.1,0.076,0.035,100.01,5.0,,0.0,0.0,194.99
2025-08-15T09:49:18.605Z,17,GR86-028-89,-2.0,0.056,0.044,99.97,5.0,,0.0,0.0,
2025-08-15T09:49:18.647Z,17,GR86-028-89,-2.0,0.068,0.048,99.97,5.0,,0.0,0.0,
2025-08-15T09:49:18.690Z,17,GR86-028-89,-2.1,0.049,0.045,99.99,5.0,,0.0,0.0,
2025-08-15T09:49:18.736Z,17,GR86-028-89,-2.0,0.07,0.052,100.01,5.0,6639.0,0.0,0.0,
2025-08-15T09:49:18.779Z,17,GR86-028-89,-2.0,0.086,0.054,99.97,5.0,,0.0,0.0,195.61
2025-08-15T09:49:18.822Z,17,GR86-028-89,-2.1,0.062,0.045,99.98,5.0,,0.0,0.0,
2025-08-15T09:49:18.865Z,17,GR86-028-89,-2.1,0.073,0.038,99.99,5.0,,0.0,0.0,
2025-08-15T09:49:18.908Z,17,GR86-028-89,-2.1,0.068,0.025,99.99,5.0,,0.0,0.0,
2025-08-15T09:49:18.951Z,17,GR86-028-89,-2.1,0.055,0.05,100.0,5.0,6667.0,0.0,0.0,
2025-08-15T09:49:18.995Z,17,GR86-028-89,-2.1,0.07,0.049,99.99,5.0,,0.0,0.0,196.23
2025-08-15T09:49:19.038Z,17,GR86-028-89,-2.0,0.075,0.032,100.02,5.0,,0.0,0.0,
2025-08-15T09:49:19.081Z,17,GR86-028-89,-2.0,0.066,0.032,100.0,5.0,,0.0,0.0,
2025-08-15T09:49:19.127Z,17,GR86-028-89,-2.1,0.062,0.047,100.0,5.0,,0.0,0.0,
2025-08-15T09:49:19.169Z,17,GR86-028-89,-2.1,0.044,0.03,99.99,5.0,6688.0,0.0,0.0,
2025-08-15T09:49:19.212Z,17,GR86-028-89,-2.0,0.048,0.033,99.97,5.0,,0.0,0.0,196.92
2025-08-15T09:49:19.258Z,17,GR86-028-89,-2.2,0.088,0.04,100.02,5.0,,0.0,0.0,
2025-08-15T09:49:19.301Z,17,GR86-028-89,-2.3000000000000003,0.071,0.038,99.98,5.0,,0.0,0.0,
2025-08-15T09:49:19.345Z,17,GR86-028-89,-2.3000000000000003,0.08,0.023,99.99,5.0,,0.0,0.0,
2025-08-15T09:49:19.388Z,17,GR86-028-89,-2.3000000000000003,0.059,0.028,100.01,5.0,6705.0,0.0,0.0,
2025-08-15T09:49:19.431Z,17,GR86-028-89,-2.3000000000000003,0.052,0.008,99.99,5.0,,0.0,0.0,197.55
2025-08-15T09:49:19.518Z,17,GR86-028-89,-2.4000000000000004,0.062,0.047,99.99,5.0,,0.0,0.0,
2025-08-15T09:49:19.561Z,17,GR86-028-89,-2.2,0.07,0.02,100.0,5.0,,0.0,0.0,
2025-08-15T09:49:19.605Z,17,GR86-028-89,-2.1,0.062,0.028,100.0,5.0,6730.0,0.0,0.0,
2025-08-15T09:49:19.647Z,17,GR86-028-89,-2.2,0.058,0.02,99.97,5.0,,0.0,0.0,198.17
2025-08-15T09:49:19.690Z,17,GR86-028-89,-2.4000000000000004,0.051,0.012,99.97,5.0,,0.0,0.0,
2025-08-15T09:49:19.735Z,17,GR86-028-89,-2.5,0.065,0.019,100.0,5.0,,0.0,0.0,
2025-08-15T09:49:19.778Z,17,GR86-028-89,-2.5,0.046,0.009,100.0,5.0,,0.0,0.0,
2025-08-15T09:49:19.821Z,17,GR86-028-89,-2.5,0.066,0.035,99.99,5.0,6746.0,0.0,0.0,
2025-08-15T09:49:19.866Z,17,GR86-028-89,-2.5,0.048,0.038,100.01,5.0,,0.0,0.0,198.76
2025-08-15T09:49:19.908Z,17,GR86-028-89,-2.4000000000000004,0.034,0.038,99.99,5.0,,0.0,0.0,
2025-08-15T09:49:19.951Z,17,GR86-028-89,-2.3000000000000003,0.047,0.034,100.0,5.0,,0.0,0.0,
2025-08-15T09:49:19.995Z,17,GR86-028-89,-2.3000000000000003,0.047,0.026,99.97,5.0,,0.0,0.0,
2025-08-15T09:49:20.038Z,17,GR86-028-89,-2.4000000000000004,0.052,0.017,99.97,5.0,6762.0,0.0,0.0,
2025-08-15T09:49:20.081Z,17,GR86-028-89,-3.0,0.038,0.024,100.0,5.0,,0.0,0.0,199.3
2025-08-15T09:49:20.127Z,17,GR86-028-89,-3.5,0.046,0.008,99.97,5.0,,0.0,0.0,
2025-08-15T09:49:20.169Z,17,GR86-028-89,-3.8,0.046,-0.001,99.97,5.0,,0.0,0.0,
2025-08-15T09:49:20.212Z,17,GR86-028-89,-4.1000000000000005,0.061,-0.011,99.98,5.0,,0.0,0.0,
2025-08-15T09:49:20.258Z,17,GR86-028-89,-4.4,0.044,-0.024,99.97,5.0,6779.0,0.0,0.0,
2025-08-15T09:49:20.301Z,17,GR86-028-89,-4.3,0.042,-0.018,99.97,5.0,,0.0,0.0,199.9
2025-08-15T09:49:20.345Z,17,GR86-028-89,-3.8,0.05,-0.038,99.98,5.0,,0.0,0.0,
2025-08-15T09:49:20.388Z,17,GR86-028-89,-3.7,0.049,-0.041,100.01,5.0,,0.0,0.0,
2025-08-15T09:49:20.431Z,17,GR86-028-89,-3.5,0.077,-0.051,99.98,5.0,,0.0,0.0,
2025-08-15T09:49:20.475Z,17,GR86-028-89,-3.6,0.033,-0.036,100.0,5.0,6811.0,0.0,0.0,
2025-08-15T09:49:20.518Z,17,GR86-028-89,-3.9,0.038,-0.041,100.0,5.0,,0.0,0.0,201.0
2025-08-15T09:49:20.561Z,17,GR86-028-89,-4.3,0.044,-0.034,99.97,5.0,,0.0,0.0,
2025-08-15T09:49:20.605Z,17,GR86-028-89,-4.7,0.063,-0.05,99.97,5.0,,0.0,0.0,
2025-08-15T09:49:20.648Z,17,GR86-028-89,-4.6000000000000005,0.068,-0.039,99.98,5.0,,0.0,0.0,
2025-08-15T09:49:20.691Z,17,GR86-028-89,-4.0,0.085,-0.024,100.01,5.0,6821.0,0.0,0.0,
2025-08-15T09:49:20.736Z,17,GR86-028-89,-2.0,0.058,-0.02,99.98,5.0,,0.0,0.0,201.53
2025-08-15T09:49:20.779Z,17,GR86-028-89,-1.8,0.04,-0.013,99.97,5.0,,0.0,0.0,
2025-08-15T09:49:20.822Z,17,GR86-028-89,-2.0,0.101,-0.025,100.01,5.0,,0.0,0.0,
2025-08-15T09:49:20.908Z,17,GR86-028-89,-2.1,0.067,0.006,99.99,5.0,6843.0,0.0,0.0,
2025-08-15T09:49:20.951Z,17,GR86-028-89,-2.3000000000000003,0.064,0.017,100.01,5.0,,0.0,0.0,202.03
2025-08-15T09:49:20.995Z,17,GR86-028-89,-2.4000000000000004,0.066,0.009,100.01,5.0,,0.0,0.0,
2025-08-15T09:49:21.038Z,17,GR86-028-89,-2.3000000000000003,0.09,0.055,100.01,5.0,,0.0,0.0,
2025-08-15T09:49:21.081Z,17,GR86-028-89,-2.1,0.078,0.061,100.01,5.0,,0.0,0.0,
2025-08-15T09:49:21.126Z,17,GR86-028-89,-1.4,0.08,0.039,99.97,5.0,6880.0,0.0,0.0,
2025-08-15T09:49:21.169Z,17,GR86-028-89,-1.3,0.04,0.012,99.97,5.0,,0.0,0.0,202.58
2025-08-15T09:49:21.212Z,17,GR86-028-89,-1.9,0.023,0.022,99.98,5.0,,0.0,0.0,
2025-08-15T09:49:21.258Z,17,GR86-028-89,-2.3000000000000003,0.083,0.005,99.98,5.0,,0.0,0.0,
2025-08-15T09:49:21.301Z,17,GR86-028-89,-2.1,0.07,0.032,100.0,5.0,,0.0,0.0,
2025-08-15T09:49:21.345Z,17,GR86-028-89,-2.0,0.054,0.041,100.0,5.0,6908.0,0.0,0.0,
2025-08-15T09:49:21.388Z,17,GR86-028-89,-2.1,0.027,0.051,99.97,5.0,,0.0,0.0,203.04
2025-08-15T09:49:21.431Z,17,GR86-028-89,-2.2,0.047,0.039,99.97,5.0,,0.0,0.0,
2025-08-15T09:49:21.475Z,17,GR86-028-89,-2.1,0.054,0.026,99.99,5.0,,0.0,0.0,
2025-08-15T09:49:21.518Z,17,GR86-028-89,-2.1,0.052,0.039,99.98,5.0,,0.0,0.0,
2025-08-15T09:49:21.561Z,17,GR86-028-89,-2.3000000000000003,0.015,0.043,99.98,5.0,6914.0,0.0,0.0,
2025-08-15T09:49:21.605Z,17,GR86-028-89,-2.5,0.044,0.029,99.97,5.0,,0.0,0.0,203.6
2025-08-15T09:49:21.647Z,17,GR86-028-89,-3.0,0.056,0.04,99.99,5.0,,0.0,0.0,
2025-08-15T09:49:21.690Z,17,GR86-028-89,-3.6,0.087,0.041,99.98,5.0,,0.0,0.0,
2025-08-15T09:49:21.736Z,17,GR86-028-89,-4.4,0.051,0.039,99.99,5.0,,0.0,0.0,
2025-08-15T09:49:21.779Z,17,GR86-028-89,-4.6000000000000005,0.033,0.02,99.98,5.0,6936.0,0.0,0.0,
2025-08-15T09:49:21.822Z,17,GR86-028-89,-4.7,0.073,-0.004,99.99,5.0,,0.0,0.0,204.15
2025-08-15T09:49:21.865Z,17,GR86-028-89,-4.9,0.055,-0.006,99.99,5.0,,0.0,0.0,
2025-08-15T09:49:21.908Z,17,GR86-028-89,-4.9,0.073,-0.024,99.98,5.0,,0.0,0.0,
2025-08-15T09:49:21.951Z,17,GR86-028-89,-5.0,0.048,-0.04,99.97,5.0,,0.0,0.0,
2025-08-15T09:49:21.995Z,17,GR86-028-89,-5.9,0.076,-0.06,99.98,5.0,6946.0,0.0,0.0,
2025-08-15T09:49:22.038Z,17,GR86-028-89,-6.4,0.076,-0.083,99.99,5.0,,0.0,0.0,204.68
2025-08-15T09:49:22.081Z,17,GR86-028-89,-6.5,0.064,-0.075,100.0,5.0,,0.0,0.0,
2025-08-15T09:49:22.127Z,17,GR86-028-89,-6.7,0.068,-0.068,100.0,5.0,,0.0,0.0,
2025-08-15T09:49:22.169Z,17,GR86-028-89,-6.7,0.02,-0.085,100.0,5.0,,0.0,0.0,
2025-08-15T09:49:22.212Z,17,GR86-028-89,-6.7,0.031,-0.098,100.01,5.0,6965.0,0.0,0.0,
2025-08-15T09:49:22.255Z,17,GR86-028-89,-6.4,0.055,-0.111,100.0,5.0,,0.0,0.0,205.19
2025-08-15T09:49:22.298Z,17,GR86-028-89,-6.300000000000001,0.026,-0.111,100.0,5.0,,0.0,0.0,
2025-08-15T09:49:22.341Z,17,GR86-028-89,-6.5,0.031,-0.103,99.97,5.0,,0.0,0.0,
2025-08-15T09:49:22.386Z,17,GR86-028-89,-6.9,0.009,-0.131,100.0,5.0,,0.0,0.0,
2025-08-15T09:49:22.428Z,17,GR86-028-89,-7.2,0.049,-0.157,100.01,5.0,6980.0,0.0,0.0,
2025-08-15T09:49:22.471Z,17,GR86-028-89,-7.300000000000001,0.069,-0.17,99.99,5.0,,0.0,0.0,205.63
2025-08-15T09:49:22.515Z,17,GR86-028-89,-7.1000000000000005,0.033,-0.156,99.97,5.0,,0.0,0.0,
2025-08-15T09:49:22.558Z,17,GR86-028-89,-6.5,0.034,-0.165,99.99,5.0,,0.0,0.0,
2025-08-15T09:49:22.601Z,17,GR86-028-89,-5.800000000000001,0.064,-0.177,99.99,5.0,,0.0,0.0,
2025-08-15T09:49:22.645Z,17,GR86-028-89,-5.7,0.068,-0.177,99.98,5.0,6993.0,0.0,0.0,
2025-08-15T09:49:22.688Z,17,GR86-028-89,-6.2,0.059,-0.155,99.99,5.0,,0.0,0.0,206.21
2025-08-15T09:49:22.731Z,17,GR86-028-89,-6.9,0.041,-0.14,99.98,5.0,,0.0,0.0,
2025-08-15T09:49:22.775Z,17,GR86-028-89,-6.7,0.062,-0.136,100.0,5.0,,0.0,0.0,
2025-08-15T09:49:22.818Z,17,GR86-028-89,-6.4,0.076,-0.158,99.97,5.0,,0.0,0.0,
2025-08-15T09:49:22.905Z,17,GR86-028-89,-6.4,0.047,-0.157,99.98,5.0,7013.0,0.0,0.0,206.69
2025-08-15T09:49:22.947Z,17,GR86-028-89,-6.4,0.0,-0.151,99.97,5.0,,0.0,0.0,
2025-08-15T09:49:22.990Z,17,GR86-028-89,-6.2,0.05,-0.151,100.0,5.0,,0.0,0.0,
2025-08-15T09:49:23.035Z,17,GR86-028-89,-5.6000000000000005,0.044,-0.136,100.0,5.0,,0.0,0.0,
2025-08-15T09:49:23.078Z,17,GR86-028-89,-5.7,0.003,-0.119,100.0,5.0,7029.0,0.0,0.0,
2025-08-15T09:49:23.121Z,17,GR86-028-89,-5.9,0.046,-0.138,92.74,5.0,,0.0,0.0,207.49
2025-08-15T09:49:23.166Z,17,GR86-028-89,-5.6000000000000005,0.059,-0.124,22.9,5.0,,0.0,0.0,
2025-08-15T09:49:23.208Z,17,GR86-028-89,-4.800000000000001,0.084,-0.133,4.14,5.0,,0.0,0.0,
2025-08-15T09:49:23.251Z,17,GR86-028-89,-4.0,-0.066,-0.123,4.0200000000000005,5.0,,0.0,0.0,
2025-08-15T09:49:23.295Z,17,GR86-028-89,-3.9,-0.304,-0.092,3.5500000000000003,5.0,7039.0,6.0600000000000005,6.545,
2025-08-15T09:49:23.338Z,17,GR86-028-89,-4.0,-0.364,-0.133,3.28,5.0,,30.275,30.765,208.0
2025-08-15T09:49:23.381Z,17,GR86-028-89,-3.5,-0.44,-0.017,3.06,5.0,,42.39,42.485,
2025-08-15T09:49:23.427Z,17,GR86-028-89,-1.7000000000000002,-0.85,-0.036,2.93,5.0,,51.625,51.455,
2025-08-15T09:49:23.469Z,17,GR86-028-89,-0.2,-0.995,0.015,2.84,5.0,,61.82,61.42,
2025-08-15T09:49:23.512Z,17,GR86-028-89,-0.3,-1.181,0.042,2.8000000000000003,5.0,6707.0,67.815,67.665,
2025-08-15T09:49:23.558Z,17,GR86-028-89,-2.4000000000000004,-1.178,0.071,2.71,5.0,,69.83,71.4,205.03
2025-08-15T09:49:23.601Z,17,GR86-028-89,-3.0,-1.247,0.059,2.67,5.0,,70.485,72.24,
2025-08-15T09:49:23.645Z,17,GR86-028-89,-2.8000000000000003,-1.39,0.05,2.64,5.0,,66.135,67.05,
2025-08-15T09:49:23.688Z,17,GR86-028-89,-3.1,-1.087,0.067,2.61,5.0,,60.43,62.03,
2025-08-15T09:49:23.731Z,17,GR86-028-89,-3.8,-1.086,0.07,2.59,5.0,6376.0,53.835,54.355,
2025-08-15T09:49:23.775Z,17,GR86-028-89,-4.0,-1.068,0.054,2.5500000000000003,5.0,,50.28,52.05,195.66
2025-08-15T09:49:23.818Z,17,GR86-028-89,-3.8,-1.04,0.063,15.27,5.0,,50.28,52.370000000000005,
2025-08-15T09:49:23.861Z,17,GR86-028-89,-3.1,-1.071,0.081,60.69,5.0,,49.93,50.755,
2025-08-15T09:49:23.905Z,17,GR86-028-89,-2.8000000000000003,-1.128,0.07,98.81,4.0,,50.22,50.65,
2025-08-15T09:49:23.948Z,17,GR86-028-89,-3.0,-1.091,0.059,58.76,4.0,6040.0,51.275,51.595,
2025-08-15T09:49:23.991Z,17,GR86-028-89,-3.5,-1.24,0.054,3.8,4.0,,58.555,59.865,188.27
2025-08-15T09:49:24.036Z,17,GR86-028-89,-5.300000000000001,-1.283,-0.002,2.81,4.0,,70.83500000000001,71.675,
2025-08-15T09:49:24.079Z,17,GR86-028-89,-5.9,-1.398,0.019,2.74,4.0,,73.49,74.21000000000001,
2025-08-15T09:49:24.122Z,17,GR86-028-89,-6.9,-1.183,0.108,2.68,4.0,,75.75,77.46000000000001,
2025-08-15T09:49:24.166Z,17,GR86-028-89,-7.300000000000001,-1.224,-0.069,2.65,4.0,6658.0,76.455,77.61,
2025-08-15T09:49:24.208Z,17,GR86-028-89,-7.800000000000001,-1.194,0.004,2.62,4.0,,75.52,76.56,180.73
2025-08-15T09:49:24.251Z,17,GR86-028-89,-8.4,-1.26,0.002,2.62,4.0,,76.865,78.605,
2025-08-15T09:49:24.338Z,17,GR86-028-89,-10.9,-1.195,-0.125,2.58,4.0,,78.575,79.75,
2025-08-15T09:49:24.381Z,17,GR86-028-89,-15.2,-1.253,-0.186,26.41,4.0,6353.0,77.995,78.605,
2025-08-15T09:49:24.426Z,17,GR86-028-89,-15.8,-1.259,-0.226,62.57,3.0,,77.46000000000001,77.885,171.12
2025-08-15T09:49:24.469Z,17,GR86-028-89,-16.0,-1.261,-0.236,8.99,3.0,,76.895,78.33,
2025-08-15T09:49:24.512Z,17,GR86-028-89,-16.0,-1.252,-0.255,4.21,3.0,,74.925,77.08,
2025-08-15T09:49:24.558Z,17,GR86-028-89,-15.7,-1.206,-0.537,3.6,3.0,,67.615,68.41,
2025-08-15T09:49:24.645Z,17,GR86-028-89,-4.2,-0.902,-0.5690000000000001,3.09,3.0,6475.0,43.23,44.775,162.62
2025-08-15T09:49:24.688Z,17,GR86-028-89,6.4,-0.758,-0.848,2.95,3.0,,33.19,34.18,
2025-08-15T09:49:24.731Z,17,GR86-028-89,14.9,-0.927,-0.47,2.84,3.0,,29.955,31.055,
2025-08-15T09:49:24.775Z,17,GR86-028-89,14.5,-0.7030000000000001,-0.743,2.74,3.0,,31.025,31.74,
2025-08-15T09:49:24.861Z,17,GR86-028-89,10.0,-0.88,-0.687,2.69,3.0,6478.0,30.705,31.54,157.23
2025-08-15T09:49:24.905Z,17,GR86-028-89,0.1,-0.664,-0.749,2.61,3.0,,30.365,31.33,
2025-08-15T09:49:24.947Z,17,GR86-028-89,5.4,-0.6920000000000001,-0.7030000000000001,2.59,3.0,,29.805,31.055,
2025-08-15T09:49:24.990Z,17,GR86-028-89,10.0,-0.796,-0.809,2.59,3.0,,28.52,29.62,
2025-08-15T09:49:25.036Z,17,GR86-028-89,-4.4,-0.727,-0.8220000000000001,2.58,3.0,6683.0,24.795,25.425,
2025-08-15T09:49:25.078Z,17,GR86-028-89,-18.3,-0.779,-0.846,2.5500000000000003,3.0,,22.875,23.745,152.54
2025-08-15T09:49:25.121Z,17,GR86-028-89,-30.6,-0.666,-1.006,2.5500000000000003,3.0,,20.02,20.815,
2025-08-15T09:49:25.165Z,17,GR86-028-89,-37.3,-0.582,-0.984,2.52,3.0,,15.505,16.22,
2025-08-15T09:49:25.208Z,17,GR86-028-89,-38.2,-0.512,-1.059,2.52,3.0,,9.6,10.315,
2025-08-15T09:49:25.251Z,17,GR86-028-89,-35.6,-0.423,-1.136,2.51,3.0,6414.0,3.435,3.905,
2025-08-15T09:49:25.295Z,17,GR86-028-89,-34.1,-0.299,-1.171,2.51,3.0,,0.0,0.0,147.54
2025-08-15T09:49:25.338Z,17,GR86-028-89,-34.7,-0.288,-1.141,2.48,3.0,,0.0,0.0,
2025-08-15T09:49:25.381Z,17,GR86-028-89,-30.200000000000003,-0.259,-1.188,2.48,3.0,,0.0,0.0,
2025-08-15T09:49:25.427Z,17,GR86-028-89,-21.200000000000003,-0.222,-1.236,2.48,3.0,,0.0,0.0,
2025-08-15T09:49:25.469Z,17,GR86-028-89,-16.5,-0.214,-1.22,2.47,3.0,6312.0,0.0,0.0,
2025-08-15T09:49:25.512Z,17,GR86-028-89,-20.1,-0.217,-1.167,2.48,3.0,,0.0,0.0,143.23
2025-08-15T09:49:25.558Z,17,GR86-028-89,-30.200000000000003,-0.211,-1.207,2.49,3.0,,0.0,0.0,
2025-08-15T09:49:25.601Z,17,GR86-028-89,-34.9,-0.23,-1.157,2.48,3.0,,0.0,0.0,
2025-08-15T09:49:25.645Z,17,GR86-028-89,-39.6,-0.246,-1.229,2.48,3.0,,0.0,0.0,
2025-08-15T09:49:25.688Z,17,GR86-028-89,-42.6,-0.218,-1.244,2.48,3.0,6373.0,0.0,0.0,
2025-08-15T09:49:25.731Z,17,GR86-028-89,-40.2,-0.24,-1.335,2.48,3.0,,0.0,0.0,139.44
2025-08-15T09:49:25.775Z,17,GR86-028-89,-29.0,-0.229,-1.279,2.53,3.0,,0.0,0.0,
2025-08-15T09:49:25.818Z,17,GR86-028-89,-25.1,-0.222,-1.268,4.59,3.0,,0.0,0.0,
2025-08-15T09:49:25.861Z,17,GR86-028-89,-28.3,-0.233,-1.238,20.85,3.0,,0.0,0.0,
2025-08-15T09:49:25.905Z,17,GR86-028-89,-34.7,-0.22,-1.255,23.03,3.0,6287.0,0.0,0.0,
2025-08-15T09:49:25.948Z,17,GR86-028-89,-40.400000000000006,-0.193,-1.302,23.02,3.0,,0.0,0.0,137.75
2025-08-15T09:49:25.991Z,17,GR86-028-89,-43.6,-0.175,-1.308,23.87,3.0,,0.0,0.0,
2025-08-15T09:49:26.035Z,17,GR86-028-89,-38.8,-0.159,-1.366,24.52,3.0,,0.0,0.0,
2025-08-15T09:49:26.078Z,17,GR86-028-89,-28.3,-0.033,-1.344,27.84,3.0,,0.0,0.0,
2025-08-15T09:49:26.121Z,17,GR86-028-89,-17.3,0.005,-1.301,31.63,3.0,6472.0,0.0,0.0,
2025-08-15T09:49:26.166Z,17,GR86-028-89,-13.6,0.017,-1.258,33.17,3.0,,0.0,0.0,136.12
2025-08-15T09:49:26.208Z,17,GR86-028-89,-19.3,0.025,-1.249,33.72,3.0,,0.0,0.0,
2025-08-15T09:49:26.251Z,17,GR86-028-89,-29.1,0.013,-1.282,33.9,3.0,,0.0,0.0,
2025-08-15T09:49:26.295Z,17,GR86-028-89,-40.8,0.001,-1.29,33.79,3.0,,0.0,0.0,
2025-08-15T09:49:26.338Z,17,GR86-028-89,-43.0,0.041,-1.207,33.77,3.0,6417.0,0.0,0.0,
2025-08-15T09:49:26.381Z,17,GR86-028-89,-42.400000000000006,0.035,-1.342,33.660000000000004,3.0,,0.0,0.0,135.51
2025-08-15T09:49:26.426Z,17,GR86-028-89,-43.6,0.019,-1.385,33.67,3.0,,0.0,0.0,
2025-08-15T09:49:26.469Z,17,GR86-028-89,-46.0,-0.02,-1.423,33.92,3.0,,0.0,0.0,
2025-08-15T09:49:26.512Z,17,GR86-028-89,-47.0,0.064,-1.181,34.2,3.0,,0.0,0.0,
2025-08-15T09:49:26.558Z,17,GR86-028-89,-45.8,0.058,-1.065,34.32,3.0,6423.0,0.0,0.0,
2025-08-15T09:49:26.601Z,17,GR86-028-89,-44.7,0.12,-1.177,34.18,3.0,,0.0,0.0,135.67000000000002
2025-08-15T09:49:26.645Z,17,GR86-028-89,-43.6,0.024,-1.09,33.76,3.0,,0.0,0.0,
2025-08-15T09:49:26.688Z,17,GR86-028-89,-43.5,-0.023,-1.259,33.49,3.0,,0.0,0.0,
2025-08-15T09:49:26.731Z,17,GR86-028-89,-44.8,0.077,-1.094,33.49,3.0,,0.0,0.0,
2025-08-15T09:49:26.775Z,17,GR86-028-89,-45.3,0.198,-1.148,33.67,3.0,6491.0,0.0,0.0,
2025-08-15T09:49:26.818Z,17,GR86-028-89,-45.3,0.03,-1.014,33.59,3.0,,0.0,0.0,135.54
2025-08-15T09:49:26.861Z,17,GR86-028-89,-47.0,-0.03,-1.065,32.72,3.0,,0.0,0.0,
2025-08-15T09:49:26.905Z,17,GR86-028-89,-48.7,0.046,-1.326,30.94,3.0,,0.0,0.0,
2025-08-15T09:49:26.948Z,17,GR86-028-89,-50.400000000000006,0.104,-1.214,31.02,3.0,,0.0,0.0,
2025-08-15T09:49:26.991Z,17,GR86-028-89,-50.5,0.002,-1.519,31.76,3.0,6590.0,0.0,0.0,
2025-08-15T09:49:27.036Z,17,GR86-028-89,-51.6,-0.011,-1.38,32.78,3.0,,0.0,0.0,135.6
2025-08-15T09:49:27.079Z,17,GR86-028-89,-54.0,-0.025,-1.326,32.99,3.0,,0.0,0.0,
2025-08-15T09:49:27.122Z,17,GR86-028-89,-57.2,-0.017,-1.36,32.93,3.0,,0.0,0.0,
2025-08-15T09:49:27.165Z,17,GR86-028-89,-58.8,0.057,-1.314,32.5,3.0,,0.0,0.0,
2025-08-15T09:49:27.208Z,17,GR86-028-89,-58.5,0.053,-1.239,32.14,3.0,6418.0,0.0,0.0,
2025-08-15T09:49:27.251Z,17,GR86-028-89,-58.0,-0.02,-1.284,32.13,3.0,,0.0,0.0,134.99
2025-08-15T09:49:27.295Z,17,GR86-028-89,-60.0,0.011,-1.203,31.97,3.0,,0.0,0.0,
2025-08-15T09:49:27.338Z,17,GR86-028-89,-60.400000000000006,-0.012,-1.241,31.89,3.0,,0.0,0.0,
2025-08-15T09:49:27.381Z,17,GR86-028-89,-58.5,0.013,-1.322,32.160000000000004,3.0,,0.0,0.0,
2025-08-15T09:49:27.426Z,17,GR86-028-89,-57.3,0.034,-1.328,32.78,3.0,6402.0,0.0,0.0,
2025-08-15T09:49:27.469Z,17,GR86-028-89,-57.8,-0.001,-1.345,33.63,3.0,,0.0,0.0,134.48
2025-08-15T09:49:27.512Z,17,GR86-028-89,-58.5,0.009,-1.324,34.17,3.0,,0.0,0.0,
2025-08-15T09:49:27.558Z,17,GR86-028-89,-58.2,0.015,-1.278,34.31,3.0,,0.0,0.0,
2025-08-15T09:49:27.601Z,17,GR86-028-89,-58.900000000000006,0.042,-1.237,34.37,3.0,,0.0,0.0,
2025-08-15T09:49:27.645Z,17,GR86-028-89,-59.8,0.04,-1.215,34.34,3.0,6378.0,0.0,0.0,
2025-08-15T09:49:27.688Z,17,GR86-028-89,-59.8,0.002,-1.159,34.29,3.0,,0.0,0.0,133.99
2025-08-15T09:49:27.731Z,17,GR86-028-89,-59.2,-0.011,-1.25,34.24,3.0,,0.0,0.0,
2025-08-15T09:49:27.775Z,17,GR86-028-89,-59.2,-0.015,-1.329,34.13,3.0,,0.0,0.0,
2025-08-15T09:49:27.818Z,17,GR86-028-89,-59.400000000000006,0.062,-1.302,34.1,3.0,,0.0,0.0,
2025-08-15T09:49:27.861Z,17,GR86-028-89,-58.7,0.031,-1.308,34.160000000000004,3.0,6375.0,0.0,0.0,
2025-08-15T09:49:27.905Z,17,GR86-028-89,-57.400000000000006,-0.011,-1.263,34.65,3.0,,0.0,0.0,133.68
2025-08-15T09:49:27.947Z,17,GR86-028-89,-56.6,-0.01,-1.288,38.61,3.0,,0.0,0.0,
2025-08-15T09:49:27.990Z,17,GR86-028-89,-55.6,0.066,-1.299,53.57,3.0,,0.0,0.0,
2025-08-15T09:49:28.036Z,17,GR86-028-89,-49.400000000000006,0.071,-1.264,95.74,3.0,,0.0,0.0,
2025-08-15T09:49:28.078Z,17,GR86-028-89,-43.6,0.099,-1.313,99.82,3.0,6371.0,0.0,0.0,
2025-08-15T09:49:28.121Z,17,GR86-028-89,-36.7,0.09,-1.28,99.97,3.0,,0.0,0.0,133.73
2025-08-15T09:49:28.165Z,17,GR86-028-89,-31.1,0.105,-1.259,99.97,3.0,,0.0,0.0,
2025-08-15T09:49:28.208Z,17,GR86-028-89,-28.3,0.156,-1.224,99.97,3.0,,0.0,0.0,
2025-08-15T09:49:28.251Z,17,GR86-028-89,-27.0,0.152,-1.199,99.98,3.0,,0.0,0.0,
2025-08-15T09:49:28.295Z,17,GR86-028-89,-24.4,0.162,-1.209,99.97,3.0,6454.0,0.0,0.0,
2025-08-15T09:49:28.338Z,17,GR86-028-89,-20.8,0.147,-1.196,99.97,3.0,,0.0,0.0,134.12
2025-08-15T09:49:28.381Z,17,GR86-028-89,-14.7,0.098,-1.1,99.98,3.0,,0.0,0.0,
2025-08-15T09:49:28.426Z,17,GR86-028-89,-4.9,0.124,-1.045,99.98,3.0,,0.0,0.0,
2025-08-15T09:49:28.469Z,17,GR86-028-89,6.300000000000001,0.09,-1.041,99.97,3.0,,0.0,0.0,
2025-08-15T09:49:28.512Z,17,GR86-028-89,12.0,0.138,-0.5750000000000001,99.97,3.0,6515.0,0.0,0.0,
2025-08-15T09:49:28.558Z,17,GR86-028-89,10.3,0.178,-0.859,99.98,3.0,,0.0,0.0,134.69
2025-08-15T09:49:28.601Z,17,GR86-028-89,10.1,0.097,-0.619,99.98,3.0,,0.0,0.0,
2025-08-15T09:49:28.645Z,17,GR86-028-89,10.8,0.174,-0.742,99.98,3.0,,0.0,0.0,
2025-08-15T09:49:28.688Z,17,GR86-028-89,11.6,0.218,-1.068,99.98,3.0,,0.0,0.0,
2025-08-15T09:49:28.731Z,17,GR86-028-89,13.5,0.306,-1.135,99.99,3.0,6585.0,0.0,0.0,
2025-08-15T09:49:28.775Z,17,GR86-028-89,13.0,0.021,-0.881,99.99,3.0,,0.0,0.0,135.88
2025-08-15T09:49:28.818Z,17,GR86-028-89,5.1000000000000005,0.129,-1.026,99.99,3.0,,0.0,0.0,
2025-08-15T09:49:28.861Z,17,GR86-028-89,-3.2,0.339,-1.045,100.01,3.0,,0.0,0.0,
2025-08-15T09:49:28.905Z,17,GR86-028-89,-5.800000000000001,0.227,-1.229,99.99,3.0,,0.0,0.0,
2025-08-15T09:49:28.947Z,17,GR86-028-89,-7.5,0.045,-1.363,99.98,3.0,6697.0,0.0,0.0,
2025-08-15T09:49:28.990Z,17,GR86-028-89,-9.6,0.107,-1.344,100.0,3.0,,0.0,0.0,136.14
2025-08-15T09:49:29.035Z,17,GR86-028-89,-8.1,0.018,-1.226,99.98,3.0,,0.0,0.0,
2025-08-15T09:49:29.078Z,17,GR86-028-89,-8.9,0.021,-1.195,99.98,3.0,,0.0,0.0,
2025-08-15T09:49:29.121Z,17,GR86-028-89,-11.8,0.234,-0.988,99.98,3.0,,0.0,0.0,
2025-08-15T09:49:29.165Z,17,GR86-028-89,-14.4,0.184,-0.847,99.97,3.0,6598.0,0.0,0.0,
2025-08-15T09:49:29.208Z,17,GR86-028-89,-15.3,0.107,-0.892,99.99,3.0,,0.0,0.0,137.35
2025-08-15T09:49:29.251Z,17,GR86-028-89,-14.9,0.181,-1.076,99.98,3.0,,0.0,0.0,
2025-08-15T09:49:29.295Z,17,GR86-028-89,-11.9,0.142,-1.022,99.97,3.0,,0.0,0.0,
2025-08-15T09:49:29.338Z,17,GR86-028-89,-6.7,0.125,-0.966,99.97,3.0,,0.0,0.0,
2025-08-15T09:49:29.381Z,17,GR86-028-89,-0.2,0.142,-1.121,99.97,3.0,6683.0,0.0,0.0,
2025-08-15T09:49:29.426Z,17,GR86-028-89,2.3000000000000003,0.354,-0.954,99.98,3.0,,0.0,0.0,137.35
2025-08-15T09:49:29.469Z,17,GR86-028-89,0.5,0.202,-0.904,99.99,3.0,,0.0,0.0,
2025-08-15T09:49:29.512Z,17,GR86-028-89,-2.6,0.175,-0.8160000000000001,99.99,3.0,,0.0,0.0,
2025-08-15T09:49:29.558Z,17,GR86-028-89,-6.300000000000001,0.168,-0.479,100.0,3.0,,0.0,0.0,
2025-08-15T09:49:29.601Z,17,GR86-028-89,-8.5,0.166,-0.4,100.0,3.0,6532.0,0.0,0.0,
2025-08-15T09:49:29.645Z,17,GR86-028-89,-12.1,0.195,-0.149,99.99,3.0,,0.0,0.0,139.28
2025-08-15T09:49:29.688Z,17,GR86-028-89,-15.6,0.132,-0.098,99.98,3.0,,0.0,0.0,
2025-08-15T09:49:29.731Z,17,GR86-028-89,-16.6,0.183,-0.051,100.0,3.0,,0.0,0.0,
2025-08-15T09:49:29.775Z,17,GR86-028-89,-15.5,0.081,-0.002,99.99,3.0,,0.0,0.0,
2025-08-15T09:49:29.818Z,17,GR86-028-89,-15.0,0.269,-0.116,99.99,3.0,6639.0,0.0,0.0,
2025-08-15T09:49:29.861Z,17,GR86-028-89,-14.7,0.171,-0.072,99.97,3.0,,0.0,0.0,140.37
2025-08-15T09:49:29.905Z,17,GR86-028-89,-13.8,0.158,-0.216,99.98,3.0,,0.0,0.0,
2025-08-15T09:49:29.948Z,17,GR86-028-89,-12.2,0.126,-0.323,100.0,3.0,,0.0,0.0,
2025-08-15T09:49:29.991Z,17,GR86-028-89,-10.9,0.165,-0.22,99.98,3.0,,0.0,0.0,
2025-08-15T09:49:30.036Z,17,GR86-028-89,-11.0,0.125,-0.333,100.0,3.0,6697.0,0.0,0.0,
2025-08-15T09:49:30.079Z,17,GR86-028-89,-10.6,0.159,-0.253,99.98,3.0,,0.0,0.0,141.97
2025-08-15T09:49:30.122Z,17,GR86-028-89,-10.8,0.178,-0.26,99.98,3.0,,0.0,0.0,
2025-08-15T09:49:30.166Z,17,GR86-028-89,-10.6,0.23,-0.344,99.98,3.0,,0.0,0.0,
2025-08-15T09:49:30.208Z,17,GR86-028-89,-11.0,0.173,-0.146,100.01,3.0,,0.0,0.0,
2025-08-15T09:49:30.251Z,17,GR86-028-89,-11.0,0.095,-0.216,99.97,3.0,6811.0,0.0,0.0,
2025-08-15T09:49:30.295Z,17,GR86-028-89,-9.4,0.102,-0.203,99.99,3.0,,0.0,0.0,143.27
2025-08-15T09:49:30.338Z,17,GR86-028-89,-7.7,0.224,-0.281,99.98,3.0,,0.0,0.0,
2025-08-15T09:49:30.381Z,17,GR86-028-89,-7.1000000000000005,0.24,-0.125,100.0,3.0,,0.0,0.0,
2025-08-15T09:49:30.426Z,17,GR86-028-89,-6.2,0.171,-0.15,100.0,3.0,,0.0,0.0,
2025-08-15T09:49:30.469Z,17,GR86-028-89,-5.300000000000001,0.163,-0.188,100.01,3.0,6945.0,0.0,0.0,
2025-08-15T09:49:30.512Z,17,GR86-028-89,-4.7,0.204,-0.226,100.0,3.0,,0.0,0.0,144.51
2025-08-15T09:49:30.558Z,17,GR86-028-89,-5.0,0.197,-0.08,100.0,3.0,,0.0,0.0,
2025-08-15T09:49:30.601Z,17,GR86-028-89,-4.9,0.162,-0.024,100.0,3.0,,0.0,0.0,
2025-08-15T09:49:30.645Z,17,GR86-028-89,-4.7,0.093,-0.061,100.0,3.0,,0.0,0.0,
2025-08-15T09:49:30.688Z,17,GR86-028-89,-4.3,0.161,0.016,100.01,3.0,6911.0,0.0,0.0,
2025-08-15T09:49:30.731Z,17,GR86-028-89,-3.9,0.215,-0.067,99.99,3.0,,0.0,0.0,147.49
2025-08-15T09:49:30.775Z,17,GR86-028-89,-1.8,0.218,-0.018,99.98,3.0,,0.0,0.0,
2025-08-15T09:49:30.818Z,17,GR86-028-89,-1.3,0.256,-0.079,99.99,3.0,,0.0,0.0,
2025-08-15T09:49:30.861Z,17,GR86-028-89,-1.7000000000000002,0.232,-0.006,100.0,3.0,,0.0,0.0,
2025-08-15T09:49:30.947Z,17,GR86-028-89,-2.7,-0.087,0.088,100.01,4.0,7010.0,0.0,0.0,148.92000000000002
2025-08-15T09:49:30.990Z,17,GR86-028-89,0.0,0.365,0.171,100.01,4.0,,0.0,0.0,
2025-08-15T09:49:31.036Z,17,GR86-028-89,7.2,0.384,0.049,100.01,4.0,,0.0,0.0,
2025-08-15T09:49:31.079Z,17,GR86-028-89,8.9,0.208,0.197,100.01,4.0,,0.0,0.0,
2025-08-15T09:49:31.122Z,17,GR86-028-89,8.9,0.059,0.189,100.0,4.0,5867.0,0.0,0.0,
2025-08-15T09:49:31.165Z,17,GR86-028-89,9.2,0.22,0.229,100.01,4.0,,0.0,0.0,150.23
2025-08-15T09:49:31.208Z,17,GR86-028-89,9.5,0.182,0.291,100.01,4.0,,0.0,0.0,
2025-08-15T09:49:31.251Z,17,GR86-028-89,9.5,0.024,0.249,100.01,4.0,,0.0,0.0,
2025-08-15T09:49:31.295Z,17,GR86-028-89,9.3,0.199,0.342,100.0,4.0,,0.0,0.0,
2025-08-15T09:49:31.338Z,17,GR86-028-89,9.0,0.172,0.37,100.01,4.0,6006.0,0.0,0.0,
2025-08-15T09:49:31.381Z,17,GR86-028-89,8.4,0.131,0.343,100.01,4.0,,0.0,0.0,152.08
2025-08-15T09:49:31.427Z,17,GR86-028-89,7.800000000000001,0.127,0.398,100.02,4.0,,0.0,0.0,
2025-08-15T09:49:31.469Z,17,GR86-028-89,7.5,0.146,0.425,100.01,4.0,,0.0,0.0,
2025-08-15T09:49:31.512Z,17,GR86-028-89,7.2,0.176,0.423,100.01,4.0,,0.0,0.0,
2025-08-15T09:49:31.558Z,17,GR86-028-89,6.300000000000001,0.123,0.382,99.99,4.0,6057.0,0.0,0.0,
2025-08-15T09:49:31.601Z,17,GR86-028-89,5.2,0.151,0.395,100.01,4.0,,0.0,0.0,153.15
2025-08-15T09:49:31.645Z,17,GR86-028-89,4.1000000000000005,0.173,0.386,99.98,4.0,,0.0,0.0,
2025-08-15T09:49:31.688Z,17,GR86-028-89,3.4000000000000004,0.18,0.349,100.0,4.0,,0.0,0.0,
2025-08-15T09:49:31.731Z,17,GR86-028-89,2.8000000000000003,0.155,0.298,100.01,4.0,,0.0,0.0,
2025-08-15T09:49:31.775Z,17,GR86-028-89,2.0,0.164,0.287,100.01,4.0,6093.0,0.0,0.0,
2025-08-15T09:49:31.818Z,17,GR86-028-89,1.9,0.179,0.264,99.99,4.0,,0.0,0.0,154.44
2025-08-15T09:49:31.861Z,17,GR86-028-89,1.1,0.168,0.209,100.0,4.0,,0.0,0.0,
2025-08-15T09:49:31.905Z,17,GR86-028-89,0.5,0.138,0.173,100.01,4.0,,0.0,0.0,
2025-08-15T09:49:31.947Z,17,GR86-028-89,0.3,0.122,0.155,100.02,4.0,,0.0,0.0,
2025-08-15T09:49:31.990Z,17,GR86-028-89,0.1,0.132,0.149,100.02,4.0,6144.0,0.0,0.0,
2025-08-15T09:49:32.035Z,17,GR86-028-89,-0.7000000000000001,0.136,0.104,100.0,4.0,,0.0,0.0,155.81
2025-08-15T09:49:32.078Z,17,GR86-028-89,-1.2000000000000002,0.113,0.099,100.0,4.0,,0.0,0.0,
2025-08-15T09:49:32.121Z,17,GR86-028-89,-1.4,0.129,0.078,100.0,4.0,,0.0,0.0,
2025-08-15T09:49:32.166Z,17,GR86-028-89,-1.5,0.115,0.07,99.99,4.0,,0.0,0.0,
2025-08-15T09:49:32.208Z,17,GR86-028-89,-1.6,0.128,0.065,100.0,4.0,6212.0,0.0,0.0,
2025-08-15T09:49:32.251Z,17,GR86-028-89,-1.9,0.149,0.048,100.0,4.0,,0.0,0.0,157.31
2025-08-15T09:49:32.295Z,17,GR86-028-89,-2.7,0.118,0.03,100.01,4.0,,0.0,0.0,
2025-08-15T09:49:32.338Z,17,GR86-028-89,-2.7,0.129,0.016,100.01,4.0,,0.0,0.0,
2025-08-15T09:49:32.381Z,17,GR86-028-89,-2.7,0.135,0.022,99.99,4.0,,0.0,0.0,
2025-08-15T09:49:32.426Z,17,GR86-028-89,-2.7,0.146,0.02,99.99,4.0,6260.0,0.0,0.0,
2025-08-15T09:49:32.469Z,17,GR86-028-89,-3.0,0.151,-0.01,100.02,4.0,,0.0,0.0,158.8
2025-08-15T09:49:32.512Z,17,GR86-028-89,-3.5,0.134,-0.016,99.99,4.0,,0.0,0.0,
2025-08-15T09:49:32.558Z,17,GR86-028-89,-4.1000000000000005,0.143,-0.009,99.99,4.0,,0.0,0.0,
2025-08-15T09:49:32.601Z,17,GR86-028-89,-4.4,0.142,-0.022,100.0,4.0,,0.0,0.0,
2025-08-15T09:49:32.645Z,17,GR86-028-89,-4.6000000000000005,0.151,-0.054,99.99,4.0,6315.0,0.0,0.0,
2025-08-15T09:49:32.688Z,17,GR86-028-89,-5.0,0.125,-0.072,100.01,4.0,,0.0,0.0,160.28
2025-08-15T09:49:32.731Z,17,GR86-028-89,-5.6000000000000005,0.097,-0.076,100.0,4.0,,0.0,0.0,
2025-08-15T09:49:32.775Z,17,GR86-028-89,-6.1000000000000005,0.156,-0.076,100.02,4.0,,0.0,0.0,
2025-08-15T09:49:32.818Z,17,GR86-028-89,-6.1000000000000005,0.145,-0.089,100.01,4.0,,0.0,0.0,
2025-08-15T09:49:32.861Z,17,GR86-028-89,-6.2,0.133,-0.114,100.0,4.0,6356.0,0.0,0.0,
2025-08-15T09:49:32.905Z,17,GR86-028-89,-6.5,0.116,-0.142,100.0,4.0,,0.0,0.0,161.78
2025-08-15T09:49:32.948Z,17,GR86-028-89,-6.9,0.083,-0.126,99.98,4.0,,0.0,0.0,
2025-08-15T09:49:32.991Z,17,GR86-028-89,-7.300000000000001,0.11,-0.143,100.01,4.0,,0.0,0.0,
2025-08-15T09:49:33.036Z,17,GR86-028-89,-8.1,0.125,-0.146,100.0,4.0,,0.0,0.0,
2025-08-15T09:49:33.079Z,17,GR86-028-89,-8.6,0.114,-0.165,100.0,4.0,6416.0,0.0,0.0,
2025-08-15T09:49:33.122Z,17,GR86-028-89,-8.8,0.107,-0.188,100.01,4.0,,0.0,0.0,164.67000000000002
2025-08-15T09:49:33.165Z,17,GR86-028-89,-8.8,0.092,-0.177,100.01,4.0,,0.0,0.0,
2025-08-15T09:49:33.208Z,17,GR86-028-89,-9.0,0.082,-0.192,99.99,4.0,,0.0,0.0,
2025-08-15T09:49:33.251Z,17,GR86-028-89,-9.2,0.093,-0.203,100.01,4.0,,0.0,0.0,
2025-08-15T09:49:33.295Z,17,GR86-028-89,-9.7,0.124,-0.234,100.01,4.0,6478.0,0.0,0.0,
2025-08-15T09:49:33.338Z,17,GR86-028-89,-10.1,0.105,-0.251,100.01,4.0,,0.0,0.0,166.12
2025-08-15T09:49:33.381Z,17,GR86-028-89,-10.5,0.084,-0.252,100.0,4.0,,0.0,0.0,
2025-08-15T09:49:33.426Z,17,GR86-028-89,-10.5,0.089,-0.255,99.99,4.0,,0.0,0.0,
2025-08-15T09:49:33.469Z,17,GR86-028-89,-10.2,0.093,-0.255,100.0,4.0,,0.0,0.0,
2025-08-15T09:49:33.555Z,17,GR86-028-89,-10.2,0.089,-0.247,100.02,4.0,6534.0,0.0,0.0,167.51
2025-08-15T09:49:33.598Z,17,GR86-028-89,-11.0,0.112,-0.274,100.0,4.0,,0.0,0.0,
2025-08-15T09:49:33.641Z,17,GR86-028-89,-11.4,0.093,-0.277,100.01,4.0,,0.0,0.0,
2025-08-15T09:49:33.727Z,17,GR86-028-89,-11.9,0.095,-0.294,100.01,4.0,6634.0,0.0,0.0,
2025-08-15T09:49:33.770Z,17,GR86-028-89,-13.1,0.098,-0.295,100.0,4.0,,0.0,0.0,168.89
2025-08-15T09:49:33.815Z,17,GR86-028-89,-14.3,0.128,-0.308,100.02,4.0,,0.0,0.0,
2025-08-15T09:49:33.858Z,17,GR86-028-89,-14.9,0.096,-0.325,100.0,4.0,,0.0,0.0,
2025-08-15T09:49:33.901Z,17,GR86-028-89,-15.2,0.1,-0.347,100.01,4.0,,0.0,0.0,
2025-08-15T09:49:33.945Z,17,GR86-028-89,-15.5,0.099,-0.349,100.0,4.0,6686.0,0.0,0.0,
2025-08-15T09:49:33.988Z,17,GR86-028-89,-15.6,0.095,-0.358,100.0,4.0,,0.0,0.0,170.19
2025-08-15T09:49:34.031Z,17,GR86-028-89,-15.7,0.071,-0.386,100.01,4.0,,0.0,0.0,
2025-08-15T09:49:34.075Z,17,GR86-028-89,-16.5,0.117,-0.406,99.98,4.0,,0.0,0.0,
2025-08-15T09:49:34.118Z,17,GR86-028-89,-17.8,0.116,-0.443,99.98,4.0,,0.0,0.0,
2025-08-15T09:49:34.161Z,17,GR86-028-89,-18.6,0.109,-0.476,100.0,4.0,6749.0,0.0,0.0,
2025-08-15T09:49:34.205Z,17,GR86-028-89,-18.2,0.09,-0.506,100.01,4.0,,0.0,0.0,171.34
2025-08-15T09:49:34.247Z,17,GR86-028-89,-17.2,0.08,-0.51,99.99,4.0,,0.0,0.0,
2025-08-15T09:49:34.290Z,17,GR86-028-89,-16.400000000000002,0.091,-0.506,99.97,4.0,,0.0,0.0,
2025-08-15T09:49:34.336Z,17,GR86-028-89,-15.0,0.102,-0.486,99.99,4.0,,0.0,0.0,
2025-08-15T09:49:34.379Z,17,GR86-028-89,-14.3,0.122,-0.472,99.98,4.0,6791.0,0.0,0.0,
2025-08-15T09:49:34.422Z,17,GR86-028-89,-14.3,0.117,-0.437,99.98,4.0,,0.0,0.0,172.77
2025-08-15T09:49:34.466Z,17,GR86-028-89,-14.3,0.116,-0.417,99.99,4.0,,0.0,0.0,
2025-08-15T09:49:34.508Z,17,GR86-028-89,-13.8,0.121,-0.4,100.0,4.0,,0.0,0.0,
2025-08-15T09:49:34.551Z,17,GR86-028-89,-11.9,0.103,-0.381,100.01,4.0,,0.0,0.0,
2025-08-15T09:49:34.595Z,17,GR86-028-89,-8.200000000000001,0.103,-0.334,99.98,4.0,6840.0,0.0,0.0,
2025-08-15T09:49:34.638Z,17,GR86-028-89,-7.7,0.092,-0.286,99.99,4.0,,0.0,0.0,174.0
2025-08-15T09:49:34.681Z,17,GR86-028-89,-7.9,0.123,-0.273,100.01,4.0,,0.0,0.0,
2025-08-15T09:49:34.727Z,17,GR86-028-89,-7.6,0.09,-0.259,100.01,4.0,,0.0,0.0,
2025-08-15T09:49:34.769Z,17,GR86-028-89,-6.5,0.122,-0.215,100.0,4.0,,0.0,0.0,
2025-08-15T09:49:34.812Z,17,GR86-028-89,-6.0,0.103,-0.182,99.97,4.0,6887.0,0.0,0.0,
2025-08-15T09:49:34.858Z,17,GR86-028-89,-6.4,0.081,-0.138,100.0,4.0,,0.0,0.0,175.19
2025-08-15T09:49:34.901Z,17,GR86-028-89,-6.4,0.097,-0.108,100.01,4.0,,0.0,0.0,
2025-08-15T09:49:34.945Z,17,GR86-028-89,-6.300000000000001,0.081,-0.083,99.99,4.0,,0.0,0.0,
2025-08-15T09:49:34.988Z,17,GR86-028-89,-6.4,0.087,-0.085,100.0,4.0,,0.0,0.0,
2025-08-15T09:49:35.031Z,17,GR86-028-89,-6.4,0.084,-0.088,100.01,4.0,6927.0,0.0,0.0,
2025-08-15T09:49:35.075Z,17,GR86-028-89,-6.4,0.117,-0.09,99.98,4.0,,0.0,0.0,176.55
2025-08-15T09:49:35.118Z,17,GR86-028-89,-6.4,0.133,-0.083,99.88,4.0,,0.0,0.0,
2025-08-15T09:49:35.161Z,17,GR86-028-89,-6.2,0.107,-0.09,54.45,4.0,,0.0,0.0,
2025-08-15T09:49:35.205Z,17,GR86-028-89,-5.2,0.14,-0.083,4.87,4.0,,0.0,0.0,
2025-08-15T09:49:35.247Z,17,GR86-028-89,-4.5,0.085,-0.077,4.18,4.0,6985.0,0.0,0.0,
2025-08-15T09:49:35.290Z,17,GR86-028-89,-5.2,-0.18,-0.018,3.83,4.0,,0.0,0.0,177.61
2025-08-15T09:49:35.335Z,17,GR86-028-89,-7.9,-0.439,-0.049,3.28,4.0,,35.235,35.955,
2025-08-15T09:49:35.378Z,17,GR86-028-89,-8.4,-0.546,-0.045,3.06,4.0,,59.15,59.33,
2025-08-15T09:49:35.421Z,17,GR86-028-89,-8.5,-1.13,-0.018,2.91,4.0,,72.73,72.545,
2025-08-15T09:49:35.466Z,17,GR86-028-89,-9.0,-1.443,-0.083,2.83,4.0,6694.0,81.75,81.46000000000001,
2025-08-15T09:49:35.508Z,17,GR86-028-89,-9.3,-1.437,-0.015,2.77,4.0,,85.805,85.84,178.64
2025-08-15T09:49:35.551Z,17,GR86-028-89,-8.9,-1.568,-0.076,2.74,4.0,,87.24,88.17,
2025-08-15T09:49:35.595Z,17,GR86-028-89,-7.300000000000001,-1.558,-0.092,2.67,4.0,,90.11,92.52,
2025-08-15T09:49:35.638Z,17,GR86-028-89,-6.7,-1.557,-0.075,2.64,4.0,,89.895,91.085,
2025-08-15T09:49:35.681Z,17,GR86-028-89,-5.800000000000001,-1.662,-0.026,2.62,4.0,6526.0,89.425,91.225,
2025-08-15T09:49:35.726Z,17,GR86-028-89,-5.2,-1.496,-0.051,37.74,4.0,,90.49,92.155,166.31
2025-08-15T09:49:35.769Z,17,GR86-028-89,-5.0,-1.381,-0.071,84.97,4.0,,86.815,87.12,
2025-08-15T09:49:35.812Z,17,GR86-028-89,-5.2,-1.31,0.018,72.71000000000001,3.0,,86.095,87.21000000000001,
2025-08-15T09:49:35.858Z,17,GR86-028-89,-6.7,-1.324,0.007,3.49,3.0,,87.365,89.83500000000001,
2025-08-15T09:49:35.901Z,17,GR86-028-89,-8.200000000000001,-1.429,-0.188,2.78,3.0,5989.0,88.205,89.635,
2025-08-15T09:49:35.945Z,17,GR86-028-89,-8.3,-1.485,-0.161,2.72,3.0,,84.02,85.06,153.36
2025-08-15T09:49:35.987Z,17,GR86-028-89,-8.0,-1.157,-0.052,2.67,3.0,,84.02,86.19,
2025-08-15T09:49:36.030Z,17,GR86-028-89,-8.5,-1.153,-0.484,2.65,3.0,,81.305,82.525,
2025-08-15T09:49:36.075Z,17,GR86-028-89,-9.1,-1.187,-0.081,2.62,3.0,,77.705,79.44500000000001,
2025-08-15T09:49:36.118Z,17,GR86-028-89,-10.1,-1.238,-0.373,2.61,3.0,6164.0,79.75,81.87,
2025-08-15T09:49:36.161Z,17,GR86-028-89,-13.5,-1.264,-0.465,2.61,3.0,,76.3,77.49,143.20000000000002
2025-08-15T09:49:36.205Z,17,GR86-028-89,-16.5,-1.231,-0.181,2.58,3.0,,71.34,72.575,
2025-08-15T09:49:36.248Z,17,GR86-028-89,-16.5,-1.061,-0.601,11.58,3.0,,64.75,66.215,
2025-08-15T09:49:36.291Z,17,GR86-028-89,-15.5,-0.935,-0.525,56.49,3.0,,61.45,62.370000000000005,
2025-08-15T09:49:36.336Z,17,GR86-028-89,-15.1,-0.968,-0.534,45.72,2.0,5747.0,60.95,62.215,
2025-08-15T09:49:36.379Z,17,GR86-028-89,-14.7,-1.247,-0.446,4.6000000000000005,2.0,,61.59,63.175,137.94
2025-08-15T09:49:36.422Z,17,GR86-028-89,-15.2,-1.312,-0.559,3.34,2.0,,65.62,67.02,
2025-08-15T09:49:36.465Z,17,GR86-028-89,-15.1,-1.135,-0.747,3.09,2.0,,65.42,66.795,
2025-08-15T09:49:36.508Z,17,GR86-028-89,-15.2,-1.048,-0.388,2.93,2.0,,64.87,66.33500000000001,
2025-08-15T09:49:36.551Z,17,GR86-028-89,-16.1,-1.083,-0.754,2.84,2.0,6141.0,65.77,66.855,
2025-08-15T09:49:36.595Z,17,GR86-028-89,-17.900000000000002,-1.164,-0.6960000000000001,2.76,2.0,,60.52,62.03,132.96
2025-08-15T09:49:36.638Z,17,GR86-028-89,-13.6,-0.914,-0.875,2.71,2.0,,57.835,59.24,
2025-08-15T09:49:36.681Z,17,GR86-028-89,-2.5,-0.926,-0.935,2.67,2.0,,55.605,56.34,
2025-08-15T09:49:36.726Z,17,GR86-028-89,10.3,-0.8300000000000001,-0.6890000000000001,2.64,2.0,,56.125,56.935,
2025-08-15T09:49:36.769Z,17,GR86-028-89,18.4,-0.994,-0.943,2.62,2.0,6325.0,58.555,59.39,
2025-08-15T09:49:36.812Z,17,GR86-028-89,28.9,-0.885,-0.925,2.61,2.0,,57.59,58.705,125.04
2025-08-15T09:49:36.858Z,17,GR86-028-89,47.1,-0.903,-0.748,2.58,2.0,,58.875,59.68,
2025-08-15T09:49:36.901Z,17,GR86-028-89,54.0,-0.974,-0.775,2.58,2.0,,61.74,62.46,
2025-08-15T09:49:36.945Z,17,GR86-028-89,47.7,-0.919,-0.72,2.58,2.0,,47.995000000000005,49.305,
2025-08-15T09:49:36.988Z,17,GR86-028-89,33.300000000000004,-0.7000000000000001,-0.974,2.57,2.0,6150.0,25.485,26.69,
2025-08-15T09:49:37.031Z,17,GR86-028-89,11.8,-0.47,-1.072,2.5500000000000003,2.0,,10.085,10.775,118.8
2025-08-15T09:49:37.075Z,17,GR86-028-89,-27.8,-0.295,-1.183,2.5,2.0,,0.0,0.0,
2025-08-15T09:49:37.118Z,17,GR86-028-89,-36.7,-0.264,-1.258,2.49,2.0,,0.0,0.0,
2025-08-15T09:49:37.161Z,17,GR86-028-89,-30.4,-0.293,-1.234,2.49,2.0,,0.0,0.0,
2025-08-15T09:49:37.205Z,17,GR86-028-89,-20.4,-0.243,-1.274,2.48,2.0,5963.0,0.0,0.0,
2025-08-15T09:49:37.247Z,17,GR86-028-89,-16.8,-0.273,-1.329,3.8,2.0,,0.0,0.0,114.78
2025-08-15T09:49:37.290Z,17,GR86-028-89,-20.0,-0.248,-1.3,16.87,2.0,,0.0,0.0,
2025-08-15T09:49:37.336Z,17,GR86-028-89,-19.0,-0.197,-1.228,29.36,2.0,,0.0,0.0,
2025-08-15T09:49:37.379Z,17,GR86-028-89,-17.8,-0.167,-1.3,29.79,2.0,,0.0,0.0,
2025-08-15T09:49:37.422Z,17,GR86-028-89,-22.9,-0.184,-1.292,30.81,2.0,6056.0,0.0,0.0,
2025-08-15T09:49:37.465Z,17,GR86-028-89,-28.9,-0.124,-1.287,31.42,2.0,,0.0,0.0,112.16
2025-08-15T09:49:37.508Z,17,GR86-028-89,-32.7,-0.13,-1.346,31.8,2.0,,0.0,0.0,
2025-08-15T09:49:37.551Z,17,GR86-028-89,-35.9,0.139,-1.316,31.95,2.0,,0.0,0.0,
2025-08-15T09:49:37.595Z,17,GR86-028-89,-40.900000000000006,0.123,-1.233,32.35,2.0,,0.0,0.0,
2025-08-15T09:49:37.638Z,17,GR86-028-89,-43.6,0.085,-1.291,32.660000000000004,2.0,6455.0,0.0,0.0,
2025-08-15T09:49:37.681Z,17,GR86-028-89,-47.1,0.097,-1.325,32.910000000000004,2.0,,0.0,0.0,110.55
2025-08-15T09:49:37.727Z,17,GR86-028-89,-50.5,0.093,-1.364,33.27,2.0,,0.0,0.0,
2025-08-15T09:49:37.769Z,17,GR86-028-89,-51.5,0.002,-1.361,33.43,2.0,,0.0,0.0,
2025-08-15T09:49:37.812Z,17,GR86-028-89,-51.5,0.074,-1.389,33.54,2.0,,0.0,0.0,
2025-08-15T09:49:37.898Z,17,GR86-028-89,-54.400000000000006,0.08,-1.404,33.58,2.0,6452.0,0.0,0.0,109.71
2025-08-15T09:49:37.941Z,17,GR86-028-89,-59.900000000000006,0.088,-1.377,33.56,2.0,,0.0,0.0,
2025-08-15T09:49:37.986Z,17,GR86-028-89,-63.6,0.046,-1.385,33.31,2.0,,0.0,0.0,
2025-08-15T09:49:38.028Z,17,GR86-028-89,-66.5,0.019,-1.367,33.27,2.0,,0.0,0.0,
2025-08-15T09:49:38.071Z,17,GR86-028-89,-65.4,0.07,-1.326,33.230000000000004,2.0,6448.0,0.0,0.0,
2025-08-15T09:49:38.115Z,17,GR86-028-89,-62.2,0.052,-1.309,32.96,2.0,,0.0,0.0,110.1
2025-08-15T09:49:38.158Z,17,GR86-028-89,-65.3,0.037,-1.263,32.82,2.0,,0.0,0.0,
2025-08-15T09:49:38.201Z,17,GR86-028-89,-65.7,0.062,-1.222,32.49,2.0,,0.0,0.0,
2025-08-15T09:49:38.245Z,17,GR86-028-89,-63.5,0.038,-1.264,31.98,2.0,,0.0,0.0,
2025-08-15T09:49:38.288Z,17,GR86-028-89,-63.900000000000006,0.035,-1.111,31.77,2.0,6420.0,0.0,0.0,
2025-08-15T09:49:38.331Z,17,GR86-028-89,-65.5,-0.061,-1.266,31.79,2.0,,0.0,0.0,110.24
2025-08-15T09:49:38.375Z,17,GR86-028-89,-64.9,-0.063,-1.021,31.66,2.0,,0.0,0.0,
2025-08-15T09:49:38.418Z,17,GR86-028-89,-65.3,-0.119,-1.026,31.44,2.0,,0.0,0.0,
2025-08-15T09:49:38.461Z,17,GR86-028-89,-67.3,-0.162,-1.036,31.2,2.0,,0.0,0.0,
2025-08-15T09:49:38.505Z,17,GR86-028-89,-67.10000000000001,-0.123,-1.011,31.16,2.0,6406.0,0.0,0.0,
2025-08-15T09:49:38.547Z,17,GR86-028-89,-64.5,-0.019,-1.025,31.11,2.0,,0.0,0.0,110.37
2025-08-15T09:49:38.590Z,17,GR86-028-89,-63.0,0.147,-1.145,31.24,2.0,,0.0,0.0,
2025-08-15T09:49:38.635Z,17,GR86-028-89,-66.0,-0.22,-1.04,30.86,2.0,,0.0,0.0,
2025-08-15T09:49:38.678Z,17,GR86-028-89,-66.60000000000001,-0.224,-1.011,29.94,2.0,,0.0,0.0,
2025-08-15T09:49:38.721Z,17,GR86-028-89,-66.4,-0.243,-1.19,27.65,2.0,6527.0,0.0,0.0,
2025-08-15T09:49:38.766Z,17,GR86-028-89,-67.4,-0.099,-1.087,25.61,2.0,,0.0,0.0,111.15
2025-08-15T09:49:38.808Z,17,GR86-028-89,-66.7,0.072,-1.188,23.12,2.0,,0.0,0.0,
2025-08-15T09:49:38.851Z,17,GR86-028-89,-62.6,-0.005,-1.098,21.64,2.0,,0.0,0.0,
2025-08-15T09:49:38.895Z,17,GR86-028-89,-61.900000000000006,-0.273,-1.123,22.27,2.0,,0.0,0.0,
2025-08-15T09:49:38.938Z,17,GR86-028-89,-62.900000000000006,-0.176,-1.299,22.93,2.0,6533.0,0.0,0.0,
2025-08-15T09:49:38.981Z,17,GR86-028-89,-60.900000000000006,-0.047,-1.36,24.7,2.0,,0.0,0.0,111.62
2025-08-15T09:49:39.027Z,17,GR86-028-89,-57.8,0.013,-1.236,26.57,2.0,,0.0,0.0,
2025-08-15T09:49:39.069Z,17,GR86-028-89,-57.5,-0.032,-1.317,29.29,2.0,,0.0,0.0,
2025-08-15T09:49:39.112Z,17,GR86-028-89,-59.3,0.004,-1.201,30.22,2.0,,0.0,0.0,
2025-08-15T09:49:39.158Z,17,GR86-028-89,-63.3,0.0,-1.201,30.95,2.0,6407.0,0.0,0.0,
2025-08-15T09:49:39.201Z,17,GR86-028-89,-64.9,0.011,-1.113,31.25,2.0,,0.0,0.0,111.49
2025-08-15T09:49:39.245Z,17,GR86-028-89,-64.3,0.039,-1.165,32.980000000000004,2.0,,0.0,0.0,
2025-08-15T09:49:39.288Z,17,GR86-028-89,-61.900000000000006,0.019,-1.124,35.02,2.0,,0.0,0.0,
2025-08-15T09:49:39.331Z,17,GR86-028-89,-60.6,0.061,-1.142,35.7,2.0,,0.0,0.0,
2025-08-15T09:49:39.375Z,17,GR86-028-89,-64.2,0.097,-1.172,35.6,2.0,6502.0,0.0,0.0,
2025-08-15T09:49:39.418Z,17,GR86-028-89,-67.3,0.08,-1.174,35.13,2.0,,0.0,0.0,110.41
2025-08-15T09:49:39.461Z,17,GR86-028-89,-68.0,0.036,-1.219,34.93,2.0,,0.0,0.0,
2025-08-15T09:49:39.505Z,17,GR86-028-89,-65.4,0.114,-1.253,34.95,2.0,,0.0,0.0,
2025-08-15T09:49:39.548Z,17,GR86-028-89,-61.6,0.051,-1.355,36.7,2.0,,0.0,0.0,
2025-08-15T09:49:39.591Z,17,GR86-028-89,-56.5,0.072,-1.299,47.0,2.0,6548.0,0.0,0.0,
2025-08-15T09:49:39.636Z,17,GR86-028-89,-45.1,0.128,-1.284,95.78,2.0,,0.0,0.0,110.81
2025-08-15T09:49:39.679Z,17,GR86-028-89,-38.900000000000006,0.129,-1.199,99.91,2.0,,0.0,0.0,
2025-08-15T09:49:39.722Z,17,GR86-028-89,-28.9,0.162,-1.161,99.95,2.0,,0.0,0.0,
2025-08-15T09:49:39.765Z,17,GR86-028-89,-24.5,0.198,-1.06,99.94,2.0,,0.0,0.0,
2025-08-15T09:49:39.808Z,17,GR86-028-89,-22.0,0.14,-1.135,99.95,2.0,6600.0,0.0,0.0,
2025-08-15T09:49:39.851Z,17,GR86-028-89,-23.9,0.209,-1.089,99.98,2.0,,0.0,0.0,111.39
2025-08-15T09:49:39.895Z,17,GR86-028-89,-28.3,0.221,-1.076,99.98,2.0,,0.0,0.0,
2025-08-15T09:49:39.938Z,17,GR86-028-89,-29.0,0.187,-1.124,99.96,2.0,,0.0,0.0,
2025-08-15T09:49:39.981Z,17,GR86-028-89,-27.8,0.174,-1.113,99.96,2.0,,0.0,0.0,
2025-08-15T09:49:40.027Z,17,GR86-028-89,-25.1,0.187,-1.12,99.95,2.0,6739.0,0.0,0.0,
2025-08-15T09:49:40.070Z,17,GR86-028-89,-23.5,0.185,-1.145,99.95,2.0,,0.0,0.0,111.56
2025-08-15T09:49:40.116Z,17,GR86-028-89,-13.2,0.189,-1.123,99.96,2.0,,0.0,0.0,
2025-08-15T09:49:40.158Z,17,GR86-028-89,-1.1,0.179,-1.048,99.96,2.0,,0.0,0.0,
2025-08-15T09:49:40.201Z,17,GR86-028-89,10.9,0.16,-1.092,99.95,2.0,,0.0,0.0,
2025-08-15T09:49:40.245Z,17,GR86-028-89,17.400000000000002,0.235,-1.032,99.94,2.0,6857.0,0.0,0.0,
2025-08-15T09:49:40.288Z,17,GR86-028-89,22.200000000000003,0.255,-0.977,99.97,2.0,,0.0,0.0,112.03
2025-08-15T09:49:40.331Z,17,GR86-028-89,26.4,0.222,-1.009,99.97,2.0,,0.0,0.0,
2025-08-15T09:49:40.375Z,17,GR86-028-89,29.4,0.229,-0.999,99.98,2.0,,0.0,0.0,
2025-08-15T09:49:40.418Z,17,GR86-028-89,23.3,0.298,-0.96,100.0,2.0,,0.0,0.0,
2025-08-15T09:49:40.461Z,17,GR86-028-89,12.9,0.242,-1.025,100.0,2.0,6969.0,0.0,0.0,
2025-08-15T09:49:40.505Z,17,GR86-028-89,-12.6,0.225,-1.071,100.01,2.0,,0.0,0.0,114.32
2025-08-15T09:49:40.548Z,17,GR86-028-89,-26.9,0.235,-1.101,100.0,2.0,,0.0,0.0,
2025-08-15T09:49:40.591Z,17,GR86-028-89,-36.9,0.153,-1.156,99.97,2.0,,0.0,0.0,
2025-08-15T09:49:40.636Z,17,GR86-028-89,-35.300000000000004,0.179,-1.149,99.98,2.0,,0.0,0.0,
2025-08-15T09:49:40.679Z,17,GR86-028-89,-32.1,0.236,-1.067,99.98,2.0,6940.0,0.0,0.0,
2025-08-15T09:49:40.722Z,17,GR86-028-89,-29.9,0.26,-1.147,99.97,2.0,,0.0,0.0,115.98
2025-08-15T09:49:40.765Z,17,GR86-028-89,-28.8,0.211,-1.054,99.97,2.0,,0.0,0.0,
2025-08-15T09:49:40.808Z,17,GR86-028-89,-28.3,0.215,-0.999,99.98,2.0,,0.0,0.0,
2025-08-15T09:49:40.851Z,17,GR86-028-89,-28.8,0.301,-0.877,99.97,2.0,,0.0,0.0,
2025-08-15T09:49:40.895Z,17,GR86-028-89,-29.8,0.118,-0.594,100.0,2.0,6948.0,0.0,0.0,
2025-08-15T09:49:40.938Z,17,GR86-028-89,-29.0,0.075,-0.457,99.98,2.0,,0.0,0.0,117.88
2025-08-15T09:49:40.981Z,17,GR86-028-89,-27.200000000000003,0.069,-0.379,99.97,2.0,,0.0,0.0,
2025-08-15T09:49:41.027Z,17,GR86-028-89,-26.0,0.121,-0.439,99.97,2.0,,0.0,0.0,
2025-08-15T09:49:41.069Z,17,GR86-028-89,-25.5,0.178,-0.421,99.98,2.0,,0.0,0.0,
2025-08-15T09:49:41.112Z,17,GR86-028-89,-25.0,0.228,-0.504,99.97,2.0,6920.0,0.0,0.0,
2025-08-15T09:49:41.158Z,17,GR86-028-89,-23.200000000000003,0.152,-0.647,99.97,2.0,,0.0,0.0,119.29
2025-08-15T09:49:41.201Z,17,GR86-028-89,-19.6,0.225,-0.71,99.97,2.0,,0.0,0.0,
2025-08-15T09:49:41.245Z,17,GR86-028-89,-17.6,0.212,-0.632,99.96,2.0,,0.0,0.0,
2025-08-15T09:49:41.288Z,17,GR86-028-89,-17.1,0.226,-0.628,99.97,2.0,,0.0,0.0,
2025-08-15T09:49:41.331Z,17,GR86-028-89,-17.1,0.194,-0.622,99.97,2.0,7053.0,0.0,0.0,
2025-08-15T09:49:41.375Z,17,GR86-028-89,-17.0,0.201,-0.47,99.97,2.0,,0.0,0.0,121.23
2025-08-15T09:49:41.418Z,17,GR86-028-89,-16.5,0.233,-0.451,99.98,2.0,,0.0,0.0,
2025-08-15T09:49:41.461Z,17,GR86-028-89,-17.1,0.186,-0.252,99.98,2.0,,0.0,0.0,
2025-08-15T09:49:41.505Z,17,GR86-028-89,-17.5,0.199,-0.397,99.99,2.0,,0.0,0.0,
2025-08-15T09:49:41.547Z,17,GR86-028-89,-17.400000000000002,0.201,-0.315,100.0,2.0,7168.0,0.0,0.0,
2025-08-15T09:49:41.590Z,17,GR86-028-89,-16.8,0.231,-0.349,99.99,2.0,,0.0,0.0,122.83
2025-08-15T09:49:41.635Z,17,GR86-028-89,-16.3,0.254,-0.378,100.01,2.0,,0.0,0.0,
2025-08-15T09:49:41.678Z,17,GR86-028-89,-17.1,0.196,-0.272,99.99,2.0,,0.0,0.0,
2025-08-15T09:49:41.721Z,17,GR86-028-89,-16.7,0.168,-0.329,99.97,2.0,,0.0,0.0,
2025-08-15T09:49:41.766Z,17,GR86-028-89,-14.4,0.192,-0.177,100.01,2.0,7219.0,0.0,0.0,
2025-08-15T09:49:41.808Z,17,GR86-028-89,-10.3,0.164,-0.295,100.0,2.0,,0.0,0.0,124.55
2025-08-15T09:49:41.851Z,17,GR86-028-89,-7.2,0.056,-0.298,99.98,3.0,,0.0,0.0,
2025-08-15T09:49:41.895Z,17,GR86-028-89,-7.2,0.517,-0.142,100.0,3.0,,0.0,0.0,
2025-08-15T09:49:41.938Z,17,GR86-028-89,-6.800000000000001,0.552,-0.156,99.99,3.0,,0.0,0.0,
2025-08-15T09:49:41.981Z,17,GR86-028-89,-6.4,0.461,-0.259,100.0,3.0,6855.0,0.0,0.0,
2025-08-15T09:49:42.027Z,17,GR86-028-89,-5.5,0.2,-0.111,99.99,3.0,,0.0,0.0,126.08
2025-08-15T09:49:42.069Z,17,GR86-028-89,-6.7,-0.034,-0.142,99.99,3.0,,0.0,0.0,
2025-08-15T09:49:42.112Z,17,GR86-028-89,-7.5,0.176,-0.194,99.98,3.0,,0.0,0.0,
2025-08-15T09:49:42.155Z,17,GR86-028-89,-8.4,0.202,0.072,99.98,3.0,,0.0,0.0,
2025-08-15T09:49:42.198Z,17,GR86-028-89,-7.800000000000001,0.186,-0.09,99.99,3.0,6060.0,0.0,0.0,
2025-08-15T09:49:42.241Z,17,GR86-028-89,-6.4,0.264,0.006,99.97,3.0,,0.0,0.0,128.11
2025-08-15T09:49:42.286Z,17,GR86-028-89,-5.300000000000001,0.164,0.012,99.97,3.0,,0.0,0.0,
2025-08-15T09:49:42.328Z,17,GR86-028-89,-4.7,0.214,-0.057,99.98,3.0,,0.0,0.0,
2025-08-15T09:49:42.371Z,17,GR86-028-89,-4.1000000000000005,0.173,-0.045,100.01,3.0,,0.0,0.0,
2025-08-15T09:49:42.416Z,17,GR86-028-89,-2.8000000000000003,0.182,-0.016,99.99,3.0,6081.0,0.0,0.0,
2025-08-15T09:49:42.458Z,17,GR86-028-89,-2.1,0.192,-0.052,100.0,3.0,,0.0,0.0,129.22
2025-08-15T09:49:42.501Z,17,GR86-028-89,-1.8,0.188,0.017,99.98,3.0,,0.0,0.0,
2025-08-15T09:49:42.545Z,17,GR86-028-89,-1.8,0.229,-0.03,100.01,3.0,,0.0,0.0,
2025-08-15T09:49:42.587Z,17,GR86-028-89,-1.9,0.179,-0.048,99.98,3.0,,0.0,0.0,
2025-08-15T09:49:42.630Z,17,GR86-028-89,-1.7000000000000002,0.199,0.016,99.99,3.0,6145.0,0.0,0.0,
2025-08-15T09:49:42.675Z,17,GR86-028-89,-1.8,0.185,-0.001,99.98,3.0,,0.0,0.0,131.0
2025-08-15T09:49:42.718Z,17,GR86-028-89,-2.1,0.18,0.041,99.99,3.0,,0.0,0.0,
2025-08-15T09:49:42.761Z,17,GR86-028-89,-2.2,0.207,0.043,99.97,3.0,,0.0,0.0,
2025-08-15T09:49:42.805Z,17,GR86-028-89,-2.4000000000000004,0.198,0.015,99.98,3.0,,0.0,0.0,
2025-08-15T09:49:42.848Z,17,GR86-028-89,-2.7,0.185,0.064,99.98,3.0,6203.0,0.0,0.0,
2025-08-15T09:49:42.891Z,17,GR86-028-89,-2.8000000000000003,0.188,0.047,99.98,3.0,,0.0,0.0,132.31
2025-08-15T09:49:42.936Z,17,GR86-028-89,-3.1,0.175,0.028,100.01,3.0,,0.0,0.0,
2025-08-15T09:49:42.979Z,17,GR86-028-89,-3.3000000000000003,0.209,0.009,100.0,3.0,,0.0,0.0,
2025-08-15T09:49:43.022Z,17,GR86-028-89,-4.1000000000000005,0.193,-0.021,100.0,3.0,,0.0,0.0,
2025-08-15T09:49:43.065Z,17,GR86-028-89,-4.7,0.178,-0.012,99.97,3.0,6262.0,0.0,0.0,
2025-08-15T09:49:43.108Z,17,GR86-028-89,-4.9,0.177,-0.001,99.98,3.0,,0.0,0.0,133.74
2025-08-15T09:49:43.151Z,17,GR86-028-89,-4.9,0.199,-0.044,99.98,3.0,,0.0,0.0,
2025-08-15T09:49:43.195Z,17,GR86-028-89,-4.3,0.197,-0.035,99.99,3.0,,0.0,0.0,
2025-08-15T09:49:43.238Z,17,GR86-028-89,-3.7,0.19,-0.056,99.98,3.0,,0.0,0.0,
2025-08-15T09:49:43.281Z,17,GR86-028-89,-3.4000000000000004,0.186,-0.064,99.99,3.0,6332.0,0.0,0.0,
2025-08-15T09:49:43.326Z,17,GR86-028-89,-3.4000000000000004,0.17,-0.023,99.98,3.0,,0.0,0.0,136.56
2025-08-15T09:49:43.369Z,17,GR86-028-89,-3.7,0.186,-0.045,99.98,3.0,,0.0,0.0,
2025-08-15T09:49:43.412Z,17,GR86-028-89,-3.9,0.21,-0.082,100.0,3.0,,0.0,0.0,
2025-08-15T09:49:43.458Z,17,GR86-028-89,-4.0,0.183,-0.054,99.99,3.0,,0.0,0.0,
2025-08-15T09:49:43.501Z,17,GR86-028-89,-4.1000000000000005,0.2,-0.061,99.99,3.0,6397.0,0.0,0.0,
2025-08-15T09:49:43.545Z,17,GR86-028-89,-4.1000000000000005,0.172,-0.025,100.01,3.0,,0.0,0.0,137.88
2025-08-15T09:49:43.587Z,17,GR86-028-89,-4.1000000000000005,0.151,-0.013,100.0,3.0,,0.0,0.0,
2025-08-15T09:49:43.630Z,17,GR86-028-89,-4.0,0.175,-0.055,99.98,3.0,,0.0,0.0,
2025-08-15T09:49:43.674Z,17,GR86-028-89,-3.7,0.15,-0.023,99.97,3.0,,0.0,0.0,
2025-08-15T09:49:43.718Z,17,GR86-028-89,-3.7,0.19,-0.073,100.0,3.0,6519.0,0.0,0.0,
2025-08-15T09:49:43.761Z,17,GR86-028-89,-3.7,0.189,-0.072,99.99,3.0,,0.0,0.0,139.16
2025-08-15T09:49:43.805Z,17,GR86-028-89,-3.7,0.19,-0.024,100.0,3.0,,0.0,0.0,
2025-08-15T09:49:43.847Z,17,GR86-028-89,-3.7,0.119,-0.02,99.97,3.0,,0.0,0.0,
2025-08-15T09:49:43.890Z,17,GR86-028-89,-3.8,0.177,-0.052,100.01,3.0,,0.0,0.0,
2025-08-15T09:49:43.936Z,17,GR86-028-89,-4.0,0.149,-0.021,99.99,3.0,6592.0,0.0,0.0,
2025-08-15T09:49:43.979Z,17,GR86-028-89,-4.1000000000000005,0.179,-0.081,100.01,3.0,,0.0,0.0,140.47
2025-08-15T09:49:44.022Z,17,GR86-028-89,-4.5,0.194,-0.072,100.01,3.0,,0.0,0.0,
2025-08-15T09:49:44.065Z,17,GR86-028-89,-4.6000000000000005,0.169,-0.053,100.0,3.0,,0.0,0.0,
2025-08-15T09:49:44.108Z,17,GR86-028-89,-4.5,0.158,-0.037,99.98,3.0,,0.0,0.0,
2025-08-15T09:49:44.151Z,17,GR86-028-89,-4.6000000000000005,0.136,-0.046,99.98,3.0,6640.0,0.0,0.0,
2025-08-15T09:49:44.195Z,17,GR86-028-89,-5.0,0.129,-0.04,99.98,3.0,,0.0,0.0,141.76
2025-08-15T09:49:44.238Z,17,GR86-028-89,-5.0,0.152,-0.055,99.99,3.0,,0.0,0.0,
2025-08-15T09:49:44.281Z,17,GR86-028-89,-4.6000000000000005,0.193,-0.105,99.97,3.0,,0.0,0.0,
2025-08-15T09:49:44.327Z,17,GR86-028-89,-4.4,0.198,-0.071,99.98,3.0,,0.0,0.0,
2025-08-15T09:49:44.412Z,17,GR86-028-89,-4.3,0.14,-0.042,99.98,3.0,6693.0,0.0,0.0,143.01
2025-08-15T09:49:44.458Z,17,GR86-028-89,-4.0,0.149,-0.007,100.01,3.0,,0.0,0.0,
2025-08-15T09:49:44.501Z,17,GR86-028-89,-3.7,0.142,-0.032,100.0,3.0,,0.0,0.0,
2025-08-15T09:49:44.545Z,17,GR86-028-89,-3.7,0.172,-0.069,99.99,3.0,,0.0,0.0,
2025-08-15T09:49:44.588Z,17,GR86-028-89,-3.7,0.201,-0.056,99.99,3.0,6750.0,0.0,0.0,
2025-08-15T09:49:44.631Z,17,GR86-028-89,-3.7,0.189,-0.03,100.0,3.0,,0.0,0.0,144.25
2025-08-15T09:49:44.675Z,17,GR86-028-89,-3.8,0.2,-0.046,100.0,3.0,,0.0,0.0,
2025-08-15T09:49:44.718Z,17,GR86-028-89,-3.8,0.209,-0.022,100.0,3.0,,0.0,0.0,
2025-08-15T09:49:44.761Z,17,GR86-028-89,-3.8,0.159,0.005,99.99,3.0,,0.0,0.0,
2025-08-15T09:49:44.805Z,17,GR86-028-89,-3.8,0.148,-0.013,99.98,3.0,6813.0,0.0,0.0,
2025-08-15T09:49:44.847Z,17,GR86-028-89,-3.8,0.162,-0.049,99.98,3.0,,0.0,0.0,145.46
2025-08-15T09:49:44.890Z,17,GR86-028-89,-3.9,0.193,-0.062,99.98,3.0,,0.0,0.0,
2025-08-15T09:49:44.935Z,17,GR86-028-89,-4.0,0.15,-0.054,99.99,3.0,,0.0,0.0,
2025-08-15T09:49:44.978Z,17,GR86-028-89,-4.1000000000000005,0.184,-0.067,99.98,3.0,,0.0,0.0,
2025-08-15T09:49:45.021Z,17,GR86-028-89,-4.3,0.2,-0.064,99.96,3.0,6859.0,0.0,0.0,
2025-08-15T09:49:45.066Z,17,GR86-028-89,-4.3,0.174,-0.031,99.98,3.0,,0.0,0.0,146.66
2025-08-15T09:49:45.108Z,17,GR86-028-89,-4.3,0.151,-0.029,100.01,3.0,,0.0,0.0,
2025-08-15T09:49:45.151Z,17,GR86-028-89,-4.2,0.137,-0.051,99.98,3.0,,0.0,0.0,
2025-08-15T09:49:45.195Z,17,GR86-028-89,-4.0,0.134,-0.016,99.99,3.0,,0.0,0.0,
2025-08-15T09:49:45.238Z,17,GR86-028-89,-3.9,0.141,-0.055,99.97,3.0,6919.0,0.0,0.0,
2025-08-15T09:49:45.281Z,17,GR86-028-89,-3.9,0.148,-0.066,99.98,3.0,,0.0,0.0,147.88
2025-08-15T09:49:45.326Z,17,GR86-028-89,-3.9,0.186,-0.065,99.98,3.0,,0.0,0.0,
2025-08-15T09:49:45.369Z,17,GR86-028-89,-3.9,0.176,-0.021,99.97,3.0,,0.0,0.0,
2025-08-15T09:49:45.412Z,17,GR86-028-89,-3.9,0.17,0.009,99.98,3.0,,0.0,0.0,
2025-08-15T09:49:45.458Z,17,GR86-028-89,-3.8,0.198,-0.031,99.98,3.0,6971.0,0.0,0.0,
2025-08-15T09:49:45.501Z,17,GR86-028-89,-3.8,0.16,-0.006,100.0,3.0,,0.0,0.0,149.05
2025-08-15T09:49:45.545Z,17,GR86-028-89,-3.8,0.15,-0.022,99.98,3.0,,0.0,0.0,
2025-08-15T09:49:45.588Z,17,GR86-028-89,-4.0,0.127,-0.025,100.01,3.0,,0.0,0.0,
2025-08-15T09:49:45.631Z,17,GR86-028-89,-4.3,0.16,-0.061,99.99,3.0,,0.0,0.0,
2025-08-15T09:49:45.675Z,17,GR86-028-89,-4.4,0.146,-0.017,100.0,3.0,7027.0,0.0,0.0,
2025-08-15T09:49:45.718Z,17,GR86-028-89,-4.6000000000000005,0.155,-0.049,99.99,3.0,,0.0,0.0,151.36
2025-08-15T09:49:45.761Z,17,GR86-028-89,-5.0,0.172,-0.067,99.99,3.0,,0.0,0.0,
2025-08-15T09:49:45.805Z,17,GR86-028-89,-5.4,0.172,-0.061,100.0,3.0,,0.0,0.0,
2025-08-15T09:49:45.848Z,17,GR86-028-89,-5.6000000000000005,0.167,-0.059,99.98,3.0,,0.0,0.0,
2025-08-15T09:49:45.891Z,17,GR86-028-89,-5.7,0.148,-0.045,99.98,3.0,7080.0,0.0,0.0,
2025-08-15T09:49:45.936Z,17,GR86-028-89,-5.800000000000001,0.177,-0.086,100.0,3.0,,0.0,0.0,152.56
2025-08-15T09:49:45.979Z,17,GR86-028-89,-5.7,0.171,-0.067,99.97,3.0,,0.0,0.0,
2025-08-15T09:49:46.022Z,17,GR86-028-89,-5.6000000000000005,0.142,-0.076,99.98,3.0,,0.0,0.0,
2025-08-15T09:49:46.065Z,17,GR86-028-89,-5.6000000000000005,0.137,-0.097,99.99,3.0,,0.0,0.0,
2025-08-15T09:49:46.108Z,17,GR86-028-89,-5.6000000000000005,0.14,-0.115,100.01,3.0,7138.0,0.0,0.0,
2025-08-15T09:49:46.151Z,17,GR86-028-89,-5.5,0.172,-0.106,100.01,3.0,,0.0,0.0,153.70000000000002
2025-08-15T09:49:46.195Z,17,GR86-028-89,-5.300000000000001,0.152,-0.077,100.01,3.0,,0.0,0.0,
2025-08-15T09:49:46.238Z,17,GR86-028-89,-5.300000000000001,0.157,-0.109,100.01,3.0,,0.0,0.0,
2025-08-15T09:49:46.281Z,17,GR86-028-89,-5.300000000000001,0.154,-0.115,99.98,3.0,,0.0,0.0,
2025-08-15T09:49:46.326Z,17,GR86-028-89,-5.5,0.173,-0.099,99.97,3.0,7235.0,0.0,0.0,
2025-08-15T09:49:46.369Z,17,GR86-028-89,-5.5,0.161,-0.071,99.98,3.0,,0.0,0.0,154.85
2025-08-15T09:49:46.412Z,17,GR86-028-89,-5.5,0.147,-0.048,100.01,3.0,,0.0,0.0,
2025-08-15T09:49:46.455Z,17,GR86-028-89,-5.7,0.157,-0.079,99.99,3.0,,0.0,0.0,
2025-08-15T09:49:46.498Z,17,GR86-028-89,-5.300000000000001,0.142,-0.079,99.99,3.0,,0.0,0.0,
2025-08-15T09:49:46.541Z,17,GR86-028-89,-5.0,-0.092,-0.066,100.0,4.0,7285.0,0.0,0.0,
2025-08-15T09:49:46.585Z,17,GR86-028-89,-5.2,0.296,-0.016,100.01,4.0,,0.0,0.0,155.97
2025-08-15T09:49:46.627Z,17,GR86-028-89,-5.2,0.357,-0.156,100.01,4.0,,0.0,0.0,
2025-08-15T09:49:46.670Z,17,GR86-028-89,-5.7,0.257,-0.135,99.99,4.0,,0.0,0.0,
2025-08-15T09:49:46.716Z,17,GR86-028-89,-5.9,-0.031,-0.057,100.0,4.0,,0.0,0.0,
2025-08-15T09:49:46.758Z,17,GR86-028-89,-5.9,0.132,-0.179,100.0,4.0,6020.0,0.0,0.0,
2025-08-15T09:49:46.801Z,17,GR86-028-89,-5.800000000000001,0.196,-0.025,100.01,4.0,,0.0,0.0,157.0
2025-08-15T09:49:46.845Z,17,GR86-028-89,-5.7,0.155,-0.121,99.99,4.0,,0.0,0.0,
2025-08-15T09:49:46.888Z,17,GR86-028-89,-5.800000000000001,0.093,-0.143,99.98,4.0,,0.0,0.0,
2025-08-15T09:49:46.931Z,17,GR86-028-89,-5.9,0.116,-0.044,100.0,4.0,,0.0,0.0,
2025-08-15T09:49:46.975Z,17,GR86-028-89,-5.6000000000000005,0.163,-0.124,99.99,4.0,6184.0,0.0,0.0,
2025-08-15T09:49:47.018Z,17,GR86-028-89,-5.7,0.136,-0.067,99.98,4.0,,0.0,0.0,158.18
2025-08-15T09:49:47.061Z,17,GR86-028-89,-5.800000000000001,0.125,-0.069,100.01,4.0,,0.0,0.0,
2025-08-15T09:49:47.105Z,17,GR86-028-89,-5.9,0.111,-0.084,99.99,4.0,,0.0,0.0,
2025-08-15T09:49:47.147Z,17,GR86-028-89,-5.9,0.109,-0.049,99.98,4.0,,0.0,0.0,
2025-08-15T09:49:47.190Z,17,GR86-028-89,-5.9,0.122,-0.039,100.0,4.0,6249.0,0.0,0.0,
2025-08-15T09:49:47.236Z,17,GR86-028-89,-6.0,0.121,-0.071,99.99,4.0,,0.0,0.0,159.12
2025-08-15T09:49:47.279Z,17,GR86-028-89,-6.2,0.112,-0.034,100.01,4.0,,0.0,0.0,
2025-08-15T09:49:47.322Z,17,GR86-028-89,-6.4,0.104,-0.06,100.0,4.0,,0.0,0.0,
2025-08-15T09:49:47.365Z,17,GR86-028-89,-6.4,0.112,-0.052,100.0,4.0,,0.0,0.0,
2025-08-15T09:49:47.408Z,17,GR86-028-89,-6.4,0.149,-0.069,99.98,4.0,6283.0,0.0,0.0,
2025-08-15T09:49:47.451Z,17,GR86-028-89,-6.5,0.146,-0.1,100.0,4.0,,0.0,0.0,159.97
2025-08-15T09:49:47.495Z,17,GR86-028-89,-6.5,0.094,-0.072,99.99,4.0,,0.0,0.0,
2025-08-15T09:49:47.538Z,17,GR86-028-89,-6.2,0.112,-0.083,100.0,4.0,,0.0,0.0,
2025-08-15T09:49:47.581Z,17,GR86-028-89,-5.9,0.13,-0.099,100.0,4.0,,0.0,0.0,
2025-08-15T09:49:47.627Z,17,GR86-028-89,-5.9,0.146,-0.11,100.0,4.0,6321.0,0.0,0.0,
2025-08-15T09:49:47.669Z,17,GR86-028-89,-6.0,0.154,-0.109,100.01,4.0,,0.0,0.0,160.83
2025-08-15T09:49:47.712Z,17,GR86-028-89,-6.0,0.142,-0.117,100.0,4.0,,0.0,0.0,
2025-08-15T09:49:47.755Z,17,GR86-028-89,-5.9,0.119,-0.098,99.98,4.0,,0.0,0.0,
2025-08-15T09:49:47.798Z,17,GR86-028-89,-6.0,0.142,-0.121,100.0,4.0,,0.0,0.0,
2025-08-15T09:49:47.841Z,17,GR86-028-89,-6.1000000000000005,0.162,-0.105,99.98,4.0,6362.0,0.0,0.0,
2025-08-15T09:49:47.886Z,17,GR86-028-89,-6.1000000000000005,0.147,-0.092,100.0,4.0,,0.0,0.0,161.82
2025-08-15T09:49:47.928Z,17,GR86-028-89,-6.0,0.124,-0.081,99.98,4.0,,0.0,0.0,
2025-08-15T09:49:47.971Z,17,GR86-028-89,-5.9,0.096,-0.079,100.03,4.0,,0.0,0.0,
2025-08-15T09:49:48.015Z,17,GR86-028-89,-6.1000000000000005,0.157,-0.096,100.0,4.0,,0.0,0.0,
2025-08-15T09:49:48.058Z,17,GR86-028-89,-6.1000000000000005,0.164,-0.092,99.98,4.0,6393.0,0.0,0.0,
2025-08-15T09:49:48.101Z,17,GR86-028-89,-6.2,0.131,-0.069,99.99,4.0,,0.0,0.0,162.75
2025-08-15T09:49:48.145Z,17,GR86-028-89,-6.300000000000001,0.11,-0.061,100.0,4.0,,0.0,0.0,
2025-08-15T09:49:48.187Z,17,GR86-028-89,-6.300000000000001,0.092,-0.056,100.0,4.0,,0.0,0.0,
2025-08-15T09:49:48.231Z,17,GR86-028-89,-6.4,0.085,-0.059,100.0,4.0,,0.0,0.0,
2025-08-15T09:49:48.275Z,17,GR86-028-89,-6.6000000000000005,0.144,-0.115,100.01,4.0,6433.0,0.0,0.0,
2025-08-15T09:49:48.318Z,17,GR86-028-89,-6.800000000000001,0.127,-0.105,99.99,4.0,,0.0,0.0,164.69
2025-08-15T09:49:48.361Z,17,GR86-028-89,-6.9,0.103,-0.103,99.99,4.0,,0.0,0.0,
2025-08-15T09:49:48.405Z,17,GR86-028-89,-6.800000000000001,0.089,-0.088,100.0,4.0,,0.0,0.0,
2025-08-15T09:49:48.447Z,17,GR86-028-89,-6.800000000000001,0.073,-0.081,99.98,4.0,,0.0,0.0,
2025-08-15T09:49:48.490Z,17,GR86-028-89,-6.9,0.061,-0.092,100.02,4.0,6468.0,0.0,0.0,
2025-08-15T09:49:48.535Z,17,GR86-028-89,-6.9,0.127,-0.111,99.98,4.0,,0.0,0.0,165.67000000000002
2025-08-15T09:49:48.578Z,17,GR86-028-89,-6.9,0.126,-0.099,100.0,4.0,,0.0,0.0,
2025-08-15T09:49:48.621Z,17,GR86-028-89,-6.9,0.082,-0.102,99.98,4.0,,0.0,0.0,
2025-08-15T09:49:48.666Z,17,GR86-028-89,-6.7,0.088,-0.09,99.99,4.0,,0.0,0.0,
2025-08-15T09:49:48.708Z,17,GR86-028-89,-6.300000000000001,0.059,-0.092,100.01,4.0,6506.0,0.0,0.0,
2025-08-15T09:49:48.751Z,17,GR86-028-89,-6.2,0.064,-0.094,100.0,4.0,,0.0,0.0,166.59
2025-08-15T09:49:48.795Z,17,GR86-028-89,-6.1000000000000005,0.132,-0.122,100.01,4.0,,0.0,0.0,
2025-08-15T09:49:48.838Z,17,GR86-028-89,-6.1000000000000005,0.115,-0.111,99.99,4.0,,0.0,0.0,
2025-08-15T09:49:48.881Z,17,GR86-028-89,-6.1000000000000005,0.084,-0.098,99.97,4.0,,0.0,0.0,
2025-08-15T09:49:48.926Z,17,GR86-028-89,-6.1000000000000005,0.081,-0.088,100.0,4.0,6585.0,0.0,0.0,
2025-08-15T09:49:48.969Z,17,GR86-028-89,-6.2,0.068,-0.088,99.98,4.0,,0.0,0.0,167.54
2025-08-15T09:49:49.012Z,17,GR86-028-89,-6.2,0.059,-0.085,100.0,4.0,,0.0,0.0,
2025-08-15T09:49:49.058Z,17,GR86-028-89,-6.4,0.128,-0.092,100.01,4.0,,0.0,0.0,
2025-08-15T09:49:49.101Z,17,GR86-028-89,-6.4,0.11,-0.087,100.02,4.0,,0.0,0.0,
2025-08-15T09:49:49.145Z,17,GR86-028-89,-6.4,0.107,-0.071,100.01,4.0,6626.0,0.0,0.0,
2025-08-15T09:49:49.187Z,17,GR86-028-89,-6.5,0.062,-0.069,99.99,4.0,,0.0,0.0,168.51
2025-08-15T09:49:49.230Z,17,GR86-028-89,-6.5,0.06,-0.079,99.98,4.0,,0.0,0.0,
2025-08-15T09:49:49.275Z,17,GR86-028-89,-6.6000000000000005,0.15,-0.128,99.99,4.0,,0.0,0.0,
2025-08-15T09:49:49.318Z,17,GR86-028-89,-6.7,0.131,-0.117,100.01,4.0,,0.0,0.0,
2025-08-15T09:49:49.361Z,17,GR86-028-89,-6.7,0.107,-0.088,99.99,4.0,6663.0,0.0,0.0,
2025-08-15T09:49:49.405Z,17,GR86-028-89,-6.7,0.101,-0.091,99.98,4.0,,0.0,0.0,169.48
2025-08-15T09:49:49.448Z,17,GR86-028-89,-6.7,0.09,-0.096,99.98,4.0,,0.0,0.0,
2025-08-15T09:49:49.491Z,17,GR86-028-89,-6.7,0.081,-0.102,100.01,4.0,,0.0,0.0,
2025-08-15T09:49:49.536Z,17,GR86-028-89,-6.800000000000001,0.134,-0.122,99.99,4.0,,0.0,0.0,
2025-08-15T09:49:49.579Z,17,GR86-028-89,-6.800000000000001,0.123,-0.102,99.98,4.0,6687.0,0.0,0.0,
2025-08-15T09:49:49.622Z,17,GR86-028-89,-6.800000000000001,0.154,-0.113,99.98,4.0,,0.0,0.0,170.49
2025-08-15T09:49:49.665Z,17,GR86-028-89,-6.7,0.122,-0.108,100.0,4.0,,0.0,0.0,
2025-08-15T09:49:49.708Z,17,GR86-028-89,-6.7,0.127,-0.114,100.0,4.0,,0.0,0.0,
2025-08-15T09:49:49.751Z,17,GR86-028-89,-6.7,0.107,-0.1,99.97,4.0,,0.0,0.0,
2025-08-15T09:49:49.795Z,17,GR86-028-89,-6.7,0.116,-0.116,100.02,4.0,6725.0,0.0,0.0,
2025-08-15T09:49:49.838Z,17,GR86-028-89,-6.7,0.141,-0.134,99.98,4.0,,0.0,0.0,171.37
2025-08-15T09:49:49.881Z,17,GR86-028-89,-6.800000000000001,0.132,-0.119,99.98,4.0,,0.0,0.0,
2025-08-15T09:49:49.926Z,17,GR86-028-89,-6.9,0.147,-0.145,100.0,4.0,,0.0,0.0,
2025-08-15T09:49:49.969Z,17,GR86-028-89,-6.9,0.136,-0.136,99.99,4.0,,0.0,0.0,
2025-08-15T09:49:50.012Z,17,GR86-028-89,-6.9,0.144,-0.138,99.97,4.0,6765.0,0.0,0.0,
2025-08-15T09:49:50.055Z,17,GR86-028-89,-6.9,0.08,-0.119,99.99,4.0,,0.0,0.0,172.17000000000002
2025-08-15T09:49:50.098Z,17,GR86-028-89,-7.0,0.08,-0.122,99.99,4.0,,0.0,0.0,
2025-08-15T09:49:50.141Z,17,GR86-028-89,-7.0,0.102,-0.133,100.0,4.0,,0.0,0.0,
2025-08-15T09:49:50.185Z,17,GR86-028-89,-7.0,0.095,-0.138,100.0,4.0,,0.0,0.0,
2025-08-15T09:49:50.227Z,17,GR86-028-89,-7.0,0.122,-0.136,100.01,4.0,6790.0,0.0,0.0,
2025-08-15T09:49:50.270Z,17,GR86-028-89,-7.2,0.109,-0.143,99.99,4.0,,0.0,0.0,173.09
2025-08-15T09:49:50.315Z,17,GR86-028-89,-7.2,0.05,-0.131,100.0,4.0,,0.0,0.0,
2025-08-15T09:49:50.358Z,17,GR86-028-89,-7.2,0.071,-0.127,100.01,4.0,,0.0,0.0,
2025-08-15T09:49:50.401Z,17,GR86-028-89,-7.2,0.07,-0.121,100.0,4.0,,0.0,0.0,
2025-08-15T09:49:50.445Z,17,GR86-028-89,-7.300000000000001,0.075,-0.114,99.97,4.0,6829.0,0.0,0.0,
2025-08-15T09:49:50.488Z,17,GR86-028-89,-7.4,0.06,-0.116,99.98,4.0,,0.0,0.0,174.06
2025-08-15T09:49:50.531Z,17,GR86-028-89,-7.300000000000001,0.078,-0.109,99.98,4.0,,0.0,0.0,
2025-08-15T09:49:50.575Z,17,GR86-028-89,-7.300000000000001,0.134,-0.131,99.97,4.0,,0.0,0.0,
2025-08-15T09:49:50.618Z,17,GR86-028-89,-7.300000000000001,0.091,-0.116,99.98,4.0,,0.0,0.0,
2025-08-15T09:49:50.661Z,17,GR86-028-89,-7.2,0.102,-0.113,100.0,4.0,6859.0,0.0,0.0,
2025-08-15T09:49:50.705Z,17,GR86-028-89,-7.2,0.097,-0.114,99.98,4.0,,0.0,0.0,175.05
2025-08-15T09:49:50.747Z,17,GR86-028-89,-7.2,0.086,-0.109,99.97,4.0,,0.0,0.0,
2025-08-15T09:49:50.790Z,17,GR86-028-89,-7.2,0.081,-0.108,99.98,4.0,,0.0,0.0,
2025-08-15T09:49:50.836Z,17,GR86-028-89,-7.2,0.096,-0.148,99.97,4.0,,0.0,0.0,
2025-08-15T09:49:50.878Z,17,GR86-028-89,-7.2,0.107,-0.161,99.97,4.0,6906.0,0.0,0.0,
2025-08-15T09:49:50.921Z,17,GR86-028-89,-7.2,0.111,-0.17,99.98,4.0,,0.0,0.0,176.66
2025-08-15T09:49:50.965Z,17,GR86-028-89,-7.2,0.102,-0.169,99.98,4.0,,0.0,0.0,
2025-08-15T09:49:51.008Z,17,GR86-028-89,-7.2,0.114,-0.136,99.97,4.0,,0.0,0.0,
2025-08-15T09:49:51.051Z,17,GR86-028-89,-7.2,0.11,-0.158,99.97,4.0,,0.0,0.0,
2025-08-15T09:49:51.096Z,17,GR86-028-89,-7.2,0.07,-0.119,99.99,4.0,6938.0,0.0,0.0,
2025-08-15T09:49:51.139Z,17,GR86-028-89,-7.0,0.077,-0.136,100.01,4.0,,0.0,0.0,177.61
2025-08-15T09:49:51.182Z,17,GR86-028-89,-6.9,0.063,-0.137,99.99,4.0,,0.0,0.0,
2025-08-15T09:49:51.227Z,17,GR86-028-89,-6.9,0.081,-0.109,100.0,4.0,,0.0,0.0,
2025-08-15T09:49:51.269Z,17,GR86-028-89,-6.800000000000001,0.097,-0.131,100.01,4.0,,0.0,0.0,
2025-08-15T09:49:51.312Z,17,GR86-028-89,-6.800000000000001,0.076,-0.134,99.99,4.0,6959.0,0.0,0.0,
2025-08-15T09:49:51.358Z,17,GR86-028-89,-6.7,0.107,-0.117,99.99,4.0,,0.0,0.0,178.38
2025-08-15T09:49:51.401Z,17,GR86-028-89,-6.7,0.091,-0.121,99.98,4.0,,0.0,0.0,
2025-08-15T09:49:51.445Z,17,GR86-028-89,-6.7,0.102,-0.112,99.99,4.0,,0.0,0.0,
2025-08-15T09:49:51.488Z,17,GR86-028-89,-6.6000000000000005,0.088,-0.115,99.97,4.0,,0.0,0.0,
2025-08-15T09:49:51.531Z,17,GR86-028-89,-6.5,0.103,-0.125,99.98,4.0,7033.0,0.0,0.0,
2025-08-15T09:49:51.575Z,17,GR86-028-89,-6.5,0.096,-0.104,100.0,4.0,,0.0,0.0,179.28
2025-08-15T09:49:51.618Z,17,GR86-028-89,-6.4,0.09,-0.116,99.98,4.0,,0.0,0.0,
2025-08-15T09:49:51.661Z,17,GR86-028-89,-6.2,0.094,-0.122,100.01,4.0,,0.0,0.0,
2025-08-15T09:49:51.705Z,17,GR86-028-89,-6.1000000000000005,0.097,-0.127,100.01,4.0,,0.0,0.0,
2025-08-15T09:49:51.747Z,17,GR86-028-89,-6.1000000000000005,0.088,-0.118,99.98,4.0,7064.0,0.0,0.0,
2025-08-15T09:49:51.790Z,17,GR86-028-89,-6.1000000000000005,0.092,-0.124,100.0,4.0,,0.0,0.0,180.07
2025-08-15T09:49:51.835Z,17,GR86-028-89,-5.9,0.096,-0.116,100.01,4.0,,0.0,0.0,
2025-08-15T09:49:51.878Z,17,GR86-028-89,-5.800000000000001,0.097,-0.109,100.01,4.0,,0.0,0.0,
2025-08-15T09:49:51.921Z,17,GR86-028-89,-5.6000000000000005,0.081,-0.092,100.0,4.0,,0.0,0.0,
2025-08-15T09:49:52.008Z,17,GR86-028-89,-5.1000000000000005,0.093,-0.078,99.97,4.0,7096.0,0.0,0.0,180.99
2025-08-15T09:49:52.051Z,17,GR86-028-89,-4.9,0.089,-0.086,99.97,4.0,,0.0,0.0,
2025-08-15T09:49:52.096Z,17,GR86-028-89,-4.3,0.097,-0.066,100.0,4.0,,0.0,0.0,
2025-08-15T09:49:52.138Z,17,GR86-028-89,-4.1000000000000005,0.083,-0.056,99.98,4.0,,0.0,0.0,
2025-08-15T09:49:52.181Z,17,GR86-028-89,-3.8,0.088,-0.052,99.99,4.0,7130.0,0.0,0.0,
2025-08-15T09:49:52.226Z,17,GR86-028-89,-3.7,0.091,-0.064,99.97,4.0,,0.0,0.0,181.8
2025-08-15T09:49:52.269Z,17,GR86-028-89,-3.7,0.073,-0.027,100.0,4.0,,0.0,0.0,
2025-08-15T09:49:52.312Z,17,GR86-028-89,-4.0,0.099,-0.024,100.0,4.0,,0.0,0.0,
2025-08-15T09:49:52.355Z,17,GR86-028-89,-4.4,0.086,-0.016,100.0,4.0,,0.0,0.0,
2025-08-15T09:49:52.398Z,17,GR86-028-89,-4.6000000000000005,0.083,-0.026,100.0,4.0,7161.0,0.0,0.0,
2025-08-15T09:49:52.441Z,17,GR86-028-89,-4.9,0.077,-0.042,100.01,4.0,,0.0,0.0,182.64
2025-08-15T09:49:52.486Z,17,GR86-028-89,-5.1000000000000005,0.087,-0.027,99.97,4.0,,0.0,0.0,
2025-08-15T09:49:52.528Z,17,GR86-028-89,-5.2,0.084,-0.03,99.98,4.0,,0.0,0.0,
2025-08-15T09:49:52.571Z,17,GR86-028-89,-5.1000000000000005,0.068,-0.05,99.99,4.0,,0.0,0.0,
2025-08-15T09:49:52.616Z,17,GR86-028-89,-4.9,0.097,-0.092,99.97,4.0,7189.0,0.0,0.0,
2025-08-15T09:49:52.658Z,17,GR86-028-89,-4.800000000000001,0.093,-0.086,99.98,4.0,,0.0,0.0,183.39
2025-08-15T09:49:52.701Z,17,GR86-028-89,-4.3,0.099,-0.055,99.99,4.0,,0.0,0.0,
2025-08-15T09:49:52.745Z,17,GR86-028-89,-4.0,0.1,-0.051,100.0,4.0,,0.0,0.0,
2025-08-15T09:49:52.787Z,17,GR86-028-89,-4.0,0.104,-0.056,99.97,4.0,,0.0,0.0,
2025-08-15T09:49:52.830Z,17,GR86-028-89,-4.0,0.091,-0.049,99.96,4.0,7225.0,0.0,0.0,
2025-08-15T09:49:52.875Z,17,GR86-028-89,-4.0,0.085,-0.039,99.99,4.0,,0.0,0.0,184.09
2025-08-15T09:49:52.918Z,17,GR86-028-89,-4.0,0.078,-0.004,99.99,4.0,,0.0,0.0,
2025-08-15T09:49:52.961Z,17,GR86-028-89,-4.0,0.055,0.007,99.99,4.0,,0.0,0.0,
2025-08-15T09:49:53.005Z,17,GR86-028-89,-3.9,0.076,0.014,99.99,4.0,,0.0,0.0,
2025-08-15T09:49:53.048Z,17,GR86-028-89,-3.8,0.05,0.028,99.99,4.0,7245.0,0.0,0.0,
2025-08-15T09:49:53.091Z,17,GR86-028-89,-3.8,0.076,0.023,100.01,4.0,,0.0,0.0,184.97
2025-08-15T09:49:53.136Z,17,GR86-028-89,-3.9,0.091,0.001,99.98,4.0,,0.0,0.0,
2025-08-15T09:49:53.179Z,17,GR86-028-89,-4.1000000000000005,0.09,-0.013,99.98,4.0,,0.0,0.0,
2025-08-15T09:49:53.222Z,17,GR86-028-89,-4.1000000000000005,-0.027,-0.005,99.99,5.0,,0.0,0.0,
2025-08-15T09:49:53.265Z,17,GR86-028-89,-4.0,-0.109,0.053,100.01,5.0,7284.0,0.0,0.0,
2025-08-15T09:49:53.308Z,17,GR86-028-89,-3.7,0.425,0.004,100.01,5.0,,0.0,0.0,185.74
2025-08-15T09:49:53.351Z,17,GR86-028-89,-3.7,0.094,-0.041,99.98,5.0,,0.0,0.0,
2025-08-15T09:49:53.395Z,17,GR86-028-89,-4.2,-0.042,0.049,100.01,5.0,,0.0,0.0,
2025-08-15T09:49:53.438Z,17,GR86-028-89,-4.3,0.125,-0.065,100.01,5.0,,0.0,0.0,
2025-08-15T09:49:53.481Z,17,GR86-028-89,-4.3,0.135,-0.018,99.97,5.0,6699.0,0.0,0.0,
2025-08-15T09:49:53.526Z,17,GR86-028-89,-4.5,0.067,-0.014,99.99,5.0,,0.0,0.0,187.04
2025-08-15T09:49:53.569Z,17,GR86-028-89,-4.800000000000001,0.051,-0.085,99.98,5.0,,0.0,0.0,
2025-08-15T09:49:53.612Z,17,GR86-028-89,-5.0,0.101,-0.032,99.98,5.0,,0.0,0.0,
2025-08-15T09:49:53.658Z,17,GR86-028-89,-5.1000000000000005,0.037,-0.045,99.98,5.0,,0.0,0.0,
2025-08-15T09:49:53.701Z,17,GR86-028-89,-5.1000000000000005,0.025,-0.04,100.01,5.0,6349.0,0.0,0.0,
2025-08-15T09:49:53.745Z,17,GR86-028-89,-5.2,0.033,-0.026,99.98,5.0,,0.0,0.0,187.72
2025-08-15T09:49:53.787Z,17,GR86-028-89,-5.300000000000001,0.05,-0.055,99.98,5.0,,0.0,0.0,
2025-08-15T09:49:53.830Z,17,GR86-028-89,-5.4,0.038,-0.049,99.98,5.0,,0.0,0.0,
2025-08-15T09:49:53.875Z,17,GR86-028-89,-5.5,0.071,-0.048,99.97,5.0,,0.0,0.0,
2025-08-15T09:49:53.918Z,17,GR86-028-89,-5.6000000000000005,0.066,-0.061,100.0,5.0,6400.0,0.0,0.0,
2025-08-15T09:49:53.961Z,17,GR86-028-89,-5.800000000000001,0.077,-0.07,99.98,5.0,,0.0,0.0,188.47
2025-08-15T09:49:54.005Z,17,GR86-028-89,-5.800000000000001,0.05,-0.091,100.0,5.0,,0.0,0.0,
2025-08-15T09:49:54.047Z,17,GR86-028-89,-5.9,0.049,-0.089,99.98,5.0,,0.0,0.0,
2025-08-15T09:49:54.090Z,17,GR86-028-89,-5.800000000000001,0.057,-0.077,99.97,5.0,,0.0,0.0,
2025-08-15T09:49:54.136Z,17,GR86-028-89,-5.6000000000000005,0.101,-0.098,99.99,5.0,6426.0,0.0,0.0,
2025-08-15T09:49:54.179Z,17,GR86-028-89,-5.9,0.089,-0.086,99.97,5.0,,0.0,0.0,189.06
2025-08-15T09:49:54.222Z,17,GR86-028-89,-6.2,0.114,-0.093,99.99,5.0,,0.0,0.0,
2025-08-15T09:49:54.265Z,17,GR86-028-89,-6.2,0.091,-0.089,100.0,5.0,,0.0,0.0,
2025-08-15T09:49:54.308Z,17,GR86-028-89,-6.1000000000000005,0.095,-0.095,100.0,5.0,,0.0,0.0,
2025-08-15T09:49:54.395Z,17,GR86-028-89,-5.7,0.069,-0.066,99.99,5.0,6446.0,0.0,0.0,189.72
2025-08-15T09:49:54.438Z,17,GR86-028-89,-5.5,0.071,-0.083,100.0,5.0,,0.0,0.0,
2025-08-15T09:49:54.481Z,17,GR86-028-89,-5.300000000000001,0.094,-0.094,99.99,5.0,,0.0,0.0,
2025-08-15T09:49:54.527Z,17,GR86-028-89,-5.4,0.092,-0.087,99.99,5.0,,0.0,0.0,
2025-08-15T09:49:54.569Z,17,GR86-028-89,-5.6000000000000005,0.096,-0.081,99.99,5.0,6470.0,0.0,0.0,
2025-08-15T09:49:54.612Z,17,GR86-028-89,-5.800000000000001,0.101,-0.089,99.98,5.0,,0.0,0.0,190.39
2025-08-15T09:49:54.658Z,17,GR86-028-89,-6.1000000000000005,0.029,-0.064,99.99,5.0,,0.0,0.0,
2025-08-15T09:49:54.701Z,17,GR86-028-89,-6.1000000000000005,0.047,-0.072,99.99,5.0,,0.0,0.0,
2025-08-15T09:49:54.745Z,17,GR86-028-89,-5.6000000000000005,0.051,-0.074,99.97,5.0,,0.0,0.0,
2025-08-15T09:49:54.787Z,17,GR86-028-89,-5.1000000000000005,0.072,-0.073,100.01,5.0,6490.0,0.0,0.0,
2025-08-15T09:49:54.831Z,17,GR86-028-89,-5.0,0.077,-0.061,100.0,5.0,,0.0,0.0,191.04
2025-08-15T09:49:54.875Z,17,GR86-028-89,-4.7,0.033,-0.044,99.98,5.0,,0.0,0.0,
2025-08-15T09:49:54.918Z,17,GR86-028-89,-4.4,0.035,-0.034,99.98,5.0,,0.0,0.0,
2025-08-15T09:49:54.961Z,17,GR86-028-89,-4.0,0.023,-0.044,100.0,5.0,,0.0,0.0,
2025-08-15T09:49:55.005Z,17,GR86-028-89,-3.8,0.04,-0.043,100.0,5.0,6520.0,0.0,0.0,
2025-08-15T09:49:55.047Z,17,GR86-028-89,-3.7,0.046,-0.035,99.99,5.0,,0.0,0.0,191.76
2025-08-15T09:49:55.090Z,17,GR86-028-89,-3.7,0.056,-0.027,99.98,5.0,,0.0,0.0,
2025-08-15T09:49:55.135Z,17,GR86-028-89,-3.6,0.066,-0.038,99.98,5.0,,0.0,0.0,
2025-08-15T09:49:55.178Z,17,GR86-028-89,-3.5,0.05,-0.031,100.01,5.0,,0.0,0.0,
2025-08-15T09:49:55.221Z,17,GR86-028-89,-3.4000000000000004,0.033,-0.004,100.01,5.0,6545.0,0.0,0.0,
2025-08-15T09:49:55.266Z,17,GR86-028-89,-3.3000000000000003,0.045,0.014,100.0,5.0,,0.0,0.0,192.32
2025-08-15T09:49:55.308Z,17,GR86-028-89,-3.3000000000000003,0.035,0.019,99.98,5.0,,0.0,0.0,
2025-08-15T09:49:55.351Z,17,GR86-028-89,-3.2,0.039,0.011,100.0,5.0,,0.0,0.0,
2025-08-15T09:49:55.395Z,17,GR86-028-89,-3.2,0.092,-0.019,100.01,5.0,,0.0,0.0,
2025-08-15T09:49:55.438Z,17,GR86-028-89,-3.2,0.064,-0.012,100.01,5.0,6549.0,0.0,0.0,
2025-08-15T09:49:55.481Z,17,GR86-028-89,-3.2,0.072,-0.015,99.99,5.0,,0.0,0.0,193.13
2025-08-15T09:49:55.526Z,17,GR86-028-89,-3.0,0.041,-0.008,99.97,5.0,,0.0,0.0,
2025-08-15T09:49:55.569Z,17,GR86-028-89,-2.9000000000000004,0.032,-0.026,99.97,5.0,,0.0,0.0,
2025-08-15T09:49:55.612Z,17,GR86-028-89,-2.9000000000000004,0.024,-0.013,99.97,5.0,,0.0,0.0,
2025-08-15T09:49:55.655Z,17,GR86-028-89,-2.9000000000000004,0.08,-0.004,99.99,5.0,6578.0,0.0,0.0,
2025-08-15T09:49:55.698Z,17,GR86-028-89,-2.7,0.075,0.003,99.97,5.0,,0.0,0.0,193.77
2025-08-15T09:49:55.741Z,17,GR86-028-89,-2.4000000000000004,0.049,0.002,99.99,5.0,,0.0,0.0,
2025-08-15T09:49:55.786Z,17,GR86-028-89,-2.4000000000000004,0.049,0.007,99.99,5.0,,0.0,0.0,
2025-08-15T09:49:55.828Z,17,GR86-028-89,-2.4000000000000004,0.022,0.034,99.99,5.0,,0.0,0.0,
2025-08-15T09:49:55.871Z,17,GR86-028-89,-2.4000000000000004,0.019,0.054,100.0,5.0,6600.0,0.0,0.0,
2025-08-15T09:49:55.916Z,17,GR86-028-89,-2.4000000000000004,0.087,0.045,99.98,5.0,,0.0,0.0,195.02
2025-08-15T09:49:55.959Z,17,GR86-028-89,-2.4000000000000004,0.067,0.048,99.98,5.0,,0.0,0.0,
2025-08-15T09:49:56.002Z,17,GR86-028-89,-2.1,0.064,0.054,99.98,5.0,,0.0,0.0,
2025-08-15T09:49:56.046Z,17,GR86-028-89,-2.0,0.023,0.07,100.0,5.0,,0.0,0.0,
2025-08-15T09:49:56.089Z,17,GR86-028-89,-1.9,0.045,0.065,99.98,5.0,6622.0,0.0,0.0,
2025-08-15T09:49:56.132Z,17,GR86-028-89,-1.9,0.029,0.067,99.99,5.0,,0.0,0.0,195.62
2025-08-15T09:49:56.179Z,17,GR86-028-89,-2.3000000000000003,0.082,0.055,99.97,5.0,,0.0,0.0,
2025-08-15T09:49:56.222Z,17,GR86-028-89,-2.5,0.077,0.056,99.99,5.0,,0.0,0.0,
2025-08-15T09:49:56.265Z,17,GR86-028-89,-2.5,0.047,0.043,99.98,5.0,,0.0,0.0,
2025-08-15T09:49:56.308Z,17,GR86-028-89,-2.3000000000000003,0.045,0.038,99.99,5.0,6641.0,0.0,0.0,
2025-08-15T09:49:56.351Z,17,GR86-028-89,-2.2,0.023,0.046,99.98,5.0,,0.0,0.0,196.16
2025-08-15T09:49:56.395Z,17,GR86-028-89,-2.2,0.081,0.045,99.98,5.0,,0.0,0.0,
2025-08-15T09:49:56.438Z,17,GR86-028-89,-2.2,0.073,0.04,99.98,5.0,,0.0,0.0,
2025-08-15T09:49:56.481Z,17,GR86-028-89,-2.1,0.075,0.03,99.99,5.0,,0.0,0.0,
2025-08-15T09:49:56.526Z,17,GR86-028-89,-1.9,0.039,0.047,99.98,5.0,6687.0,0.0,0.0,
2025-08-15T09:49:56.569Z,17,GR86-028-89,-1.8,0.042,0.067,99.97,5.0,,0.0,0.0,196.67
2025-08-15T09:49:56.612Z,17,GR86-028-89,-1.8,0.025,0.051,99.98,5.0,,0.0,0.0,
2025-08-15T09:49:56.658Z,17,GR86-028-89,-1.8,0.077,0.068,99.98,5.0,,0.0,0.0,
2025-08-15T09:49:56.701Z,17,GR86-028-89,-1.8,0.087,0.057,99.98,5.0,,0.0,0.0,
2025-08-15T09:49:56.745Z,17,GR86-028-89,-1.7000000000000002,0.051,0.056,99.99,5.0,6697.0,0.0,0.0,
2025-08-15T09:49:56.788Z,17,GR86-028-89,-1.5,0.049,0.063,99.99,5.0,,0.0,0.0,197.25
2025-08-15T09:49:56.831Z,17,GR86-028-89,-1.3,0.03,0.087,99.98,5.0,,0.0,0.0,
2025-08-15T09:49:56.875Z,17,GR86-028-89,-1.0,0.07,0.103,99.98,5.0,,0.0,0.0,
2025-08-15T09:49:56.918Z,17,GR86-028-89,-0.8,0.078,0.105,99.98,5.0,,0.0,0.0,
2025-08-15T09:49:56.961Z,17,GR86-028-89,-0.7000000000000001,0.061,0.117,99.97,5.0,6721.0,0.0,0.0,
2025-08-15T09:49:57.005Z,17,GR86-028-89,-0.5,0.05,0.14,99.98,5.0,,0.0,0.0,197.91
2025-08-15T09:49:57.047Z,17,GR86-028-89,-0.4,0.031,0.153,100.0,5.0,,0.0,0.0,
2025-08-15T09:49:57.090Z,17,GR86-028-89,-0.1,0.052,0.169,99.99,5.0,,0.0,0.0,
2025-08-15T09:49:57.136Z,17,GR86-028-89,0.0,0.075,0.166,99.98,5.0,,0.0,0.0,
2025-08-15T09:49:57.179Z,17,GR86-028-89,-0.2,0.057,0.162,99.98,5.0,6747.0,0.0,0.0,
2025-08-15T09:49:57.222Z,17,GR86-028-89,-0.5,0.039,0.173,99.98,5.0,,0.0,0.0,198.58
2025-08-15T09:49:57.265Z,17,GR86-028-89,-0.7000000000000001,0.033,0.16,99.98,5.0,,0.0,0.0,
2025-08-15T09:49:57.308Z,17,GR86-028-89,-0.8,0.04,0.144,99.98,5.0,,0.0,0.0,
2025-08-15T09:49:57.351Z,17,GR86-028-89,-0.8,0.04,0.154,100.0,5.0,,0.0,0.0,
2025-08-15T09:49:57.395Z,17,GR86-028-89,-0.8,0.067,0.106,99.97,5.0,6758.0,0.0,0.0,
2025-08-15T09:49:57.438Z,17,GR86-028-89,-0.8,0.04,0.111,99.97,5.0,,0.0,0.0,199.24
2025-08-15T09:49:57.481Z,17,GR86-028-89,-0.8,0.029,0.117,99.97,5.0,,0.0,0.0,
2025-08-15T09:49:57.527Z,17,GR86-028-89,-0.7000000000000001,0.054,0.114,99.97,5.0,,0.0,0.0,
2025-08-15T09:49:57.569Z,17,GR86-028-89,-0.5,0.046,0.114,99.98,5.0,,0.0,0.0,
2025-08-15T09:49:57.612Z,17,GR86-028-89,-0.5,0.071,0.093,99.97,5.0,6786.0,0.0,0.0,
2025-08-15T09:49:57.658Z,17,GR86-028-89,-0.2,0.025,0.073,99.98,5.0,,0.0,0.0,199.85
2025-08-15T09:49:57.701Z,17,GR86-028-89,0.1,0.018,0.09,99.99,5.0,,0.0,0.0,
2025-08-15T09:49:57.745Z,17,GR86-028-89,0.3,0.037,0.08,99.96,5.0,,0.0,0.0,
2025-08-15T09:49:57.787Z,17,GR86-028-89,0.5,0.037,0.092,99.98,5.0,,0.0,0.0,
2025-08-15T09:49:57.831Z,17,GR86-028-89,0.6000000000000001,0.074,0.086,99.97,5.0,6800.0,0.0,0.0,
2025-08-15T09:49:57.875Z,17,GR86-028-89,0.9,0.025,0.093,99.97,5.0,,0.0,0.0,200.38
2025-08-15T09:49:57.918Z,17,GR86-028-89,1.2000000000000002,0.04,0.105,99.98,5.0,,0.0,0.0,
2025-08-15T09:49:57.961Z,17,GR86-028-89,1.6,0.036,0.12,99.98,5.0,,0.0,0.0,
2025-08-15T09:49:58.005Z,17,GR86-028-89,1.8,0.065,0.128,99.98,5.0,,0.0,0.0,
2025-08-15T09:49:58.047Z,17,GR86-028-89,2.0,0.048,0.155,99.96,5.0,6812.0,0.0,0.0,
2025-08-15T09:49:58.090Z,17,GR86-028-89,2.3000000000000003,0.076,0.149,99.97,5.0,,0.0,0.0,200.89
2025-08-15T09:49:58.135Z,17,GR86-028-89,3.1,0.048,0.176,99.98,5.0,,0.0,0.0,
2025-08-15T09:49:58.178Z,17,GR86-028-89,3.5,0.051,0.192,99.97,5.0,,0.0,0.0,
2025-08-15T09:49:58.221Z,17,GR86-028-89,3.7,0.055,0.215,99.97,5.0,,0.0,0.0,
2025-08-15T09:49:58.266Z,17,GR86-028-89,4.0,0.073,0.22,99.97,5.0,6831.0,0.0,0.0,
2025-08-15T09:49:58.308Z,17,GR86-028-89,4.1000000000000005,0.043,0.232,99.98,5.0,,0.0,0.0,201.39
2025-08-15T09:49:58.351Z,17,GR86-028-89,3.6,0.04,0.212,99.98,5.0,,0.0,0.0,
2025-08-15T09:49:58.395Z,17,GR86-028-89,2.5,0.072,0.235,99.98,5.0,,0.0,0.0,
2025-08-15T09:49:58.438Z,17,GR86-028-89,2.4000000000000004,0.051,0.225,99.98,5.0,,0.0,0.0,
2025-08-15T09:49:58.481Z,17,GR86-028-89,2.6,0.041,0.229,99.98,5.0,6849.0,0.0,0.0,
2025-08-15T09:49:58.526Z,17,GR86-028-89,2.8000000000000003,0.032,0.236,99.98,5.0,,0.0,0.0,202.31
2025-08-15T09:49:58.569Z,17,GR86-028-89,2.8000000000000003,0.021,0.212,99.97,5.0,,0.0,0.0,
2025-08-15T09:49:58.612Z,17,GR86-028-89,2.5,0.013,0.212,99.97,5.0,,0.0,0.0,
2025-08-15T09:49:58.658Z,17,GR86-028-89,1.5,0.036,0.229,99.99,5.0,,0.0,0.0,
2025-08-15T09:49:58.701Z,17,GR86-028-89,0.9,0.045,0.22,99.98,5.0,6870.0,0.0,0.0,
2025-08-15T09:49:58.745Z,17,GR86-028-89,0.3,0.02,0.218,99.97,5.0,,0.0,0.0,202.63
2025-08-15T09:49:58.787Z,17,GR86-028-89,0.1,0.045,0.215,99.98,5.0,,0.0,0.0,
2025-08-15T09:49:58.830Z,17,GR86-028-89,0.0,0.035,0.224,99.97,5.0,,0.0,0.0,
2025-08-15T09:49:58.875Z,17,GR86-028-89,-0.2,0.023,0.162,99.97,5.0,,0.0,0.0,
2025-08-15T09:49:58.918Z,17,GR86-028-89,-0.4,0.032,0.126,99.98,5.0,6899.0,0.0,0.0,
2025-08-15T09:49:58.961Z,17,GR86-028-89,-0.4,0.041,0.103,99.98,5.0,,0.0,0.0,203.22
2025-08-15T09:49:59.005Z,17,GR86-028-89,-0.1,0.051,0.091,99.96,5.0,,0.0,0.0,
2025-08-15T09:49:59.048Z,17,GR86-028-89,0.6000000000000001,0.05,0.074,99.97,5.0,,0.0,0.0,
2025-08-15T09:49:59.091Z,17,GR86-028-89,0.7000000000000001,0.06,0.07,99.97,5.0,,0.0,0.0,
2025-08-15T09:49:59.136Z,17,GR86-028-89,-0.2,0.027,0.086,99.97,5.0,6913.0,0.0,0.0,
2025-08-15T09:49:59.179Z,17,GR86-028-89,-0.3,0.063,0.077,99.98,5.0,,0.0,0.0,203.7
2025-08-15T09:49:59.222Z,17,GR86-028-89,0.1,0.055,0.099,99.99,5.0,,0.0,0.0,
2025-08-15T09:49:59.265Z,17,GR86-028-89,0.3,0.034,0.117,99.95,5.0,,0.0,0.0,
2025-08-15T09:49:59.308Z,17,GR86-028-89,0.1,0.041,0.129,99.96,5.0,,0.0,0.0,
2025-08-15T09:49:59.351Z,17,GR86-028-89,-0.1,0.031,0.123,99.96,5.0,6929.0,0.0,0.0,
2025-08-15T09:49:59.395Z,17,GR86-028-89,0.1,0.052,0.099,99.96,5.0,,0.0,0.0,204.22
2025-08-15T09:49:59.438Z,17,GR86-028-89,-0.1,0.041,0.111,99.97,5.0,,0.0,0.0,
2025-08-15T09:49:59.481Z,17,GR86-028-89,-0.5,0.044,0.128,99.97,5.0,,0.0,0.0,
2025-08-15T09:49:59.526Z,17,GR86-028-89,-0.5,0.058,0.139,99.98,5.0,,0.0,0.0,
2025-08-15T09:49:59.569Z,17,GR86-028-89,0.1,0.047,0.132,99.98,5.0,6969.0,0.0,0.0,
2025-08-15T09:49:59.612Z,17,GR86-028-89,0.8,0.056,0.136,99.97,5.0,,0.0,0.0,204.7
2025-08-15T09:49:59.658Z,17,GR86-028-89,1.1,0.044,0.148,99.98,5.0,,0.0,0.0,
2025-08-15T09:49:59.701Z,17,GR86-028-89,1.1,0.036,0.162,99.99,5.0,,0.0,0.0,
2025-08-15T09:49:59.745Z,17,GR86-028-89,1.2000000000000002,0.056,0.135,99.99,5.0,,0.0,0.0,
2025-08-15T09:49:59.788Z,17,GR86-028-89,1.4,0.053,0.118,99.97,5.0,6973.0,0.0,0.0,
2025-08-15T09:49:59.831Z,17,GR86-028-89,1.6,0.059,0.143,99.96,5.0,,0.0,0.0,205.35
2025-08-15T09:49:59.875Z,17,GR86-028-89,1.6,0.061,0.169,99.96,5.0,,0.0,0.0,
2025-08-15T09:49:59.918Z,17,GR86-028-89,1.6,0.058,0.168,99.98,5.0,,0.0,0.0,
2025-08-15T09:49:59.961Z,17,GR86-028-89,1.7000000000000002,0.06,0.19,99.97,5.0,,0.0,0.0,
2025-08-15T09:50:00.005Z,17,GR86-028-89,1.7000000000000002,0.044,0.201,99.96,5.0,6997.0,0.0,0.0,
2025-08-15T09:50:00.047Z,17,GR86-028-89,1.9,0.04,0.204,99.98,5.0,,0.0,0.0,206.03
2025-08-15T09:50:00.090Z,17,GR86-028-89,1.9,0.048,0.212,99.98,5.0,,0.0,0.0,
2025-08-15T09:50:00.136Z,17,GR86-028-89,2.3000000000000003,0.062,0.206,99.98,5.0,,0.0,0.0,
2025-08-15T09:50:00.179Z,17,GR86-028-89,2.4000000000000004,0.044,0.242,99.97,5.0,,0.0,0.0,
2025-08-15T09:50:00.222Z,17,GR86-028-89,2.4000000000000004,0.038,0.226,99.98,5.0,7027.0,0.0,0.0,
2025-08-15T09:50:00.265Z,17,GR86-028-89,2.4000000000000004,0.043,0.234,99.98,5.0,,0.0,0.0,206.68
2025-08-15T09:50:00.308Z,17,GR86-028-89,2.2,0.056,0.205,99.96,5.0,,0.0,0.0,
2025-08-15T09:50:00.351Z,17,GR86-028-89,1.7000000000000002,0.062,0.209,99.97,5.0,,0.0,0.0,
2025-08-15T09:50:00.395Z,17,GR86-028-89,1.4,0.049,0.215,99.98,5.0,,0.0,0.0,
2025-08-15T09:50:00.438Z,17,GR86-028-89,1.8,0.055,0.217,99.98,5.0,7043.0,0.0,0.0,
2025-08-15T09:50:00.481Z,17,GR86-028-89,3.0,0.054,0.182,65.97,5.0,,0.0,0.0,207.33
2025-08-15T09:50:00.527Z,17,GR86-028-89,4.800000000000001,0.063,0.186,4.89,5.0,,0.0,0.0,
2025-08-15T09:50:00.569Z,17,GR86-028-89,6.0,0.02,0.224,5.03,5.0,,0.0,0.0,
2025-08-15T09:50:00.612Z,17,GR86-028-89,6.7,-0.194,0.289,4.82,5.0,,0.0,0.0,
2025-08-15T09:50:00.658Z,17,GR86-028-89,5.800000000000001,-0.387,0.278,4.4,5.0,7067.0,0.0,0.0,
2025-08-15T09:50:00.701Z,17,GR86-028-89,2.2,-0.267,0.256,3.95,5.0,,0.0,0.0,208.0
2025-08-15T09:50:00.745Z,17,GR86-028-89,-0.2,-0.153,0.304,3.45,5.0,,0.0,0.0,
2025-08-15T09:50:00.788Z,17,GR86-028-89,-2.7,-0.231,0.226,3.15,5.0,,10.805,11.125,
2025-08-15T09:50:00.831Z,17,GR86-028-89,-2.1,-0.327,0.193,2.97,5.0,,12.21,12.56,
2025-08-15T09:50:00.875Z,17,GR86-028-89,0.6000000000000001,-0.393,0.207,2.81,5.0,6939.0,19.64,19.99,
2025-08-15T09:50:00.918Z,17,GR86-028-89,2.4000000000000004,-0.518,0.197,2.76,5.0,,33.525,33.465,207.36
2025-08-15T09:50:00.961Z,17,GR86-028-89,3.1,-0.8210000000000001,0.214,2.7,5.0,,51.18,51.09,
2025-08-15T09:50:01.005Z,17,GR86-028-89,4.0,-1.121,0.201,2.67,5.0,,68.93,68.625,
2025-08-15T09:50:01.047Z,17,GR86-028-89,4.1000000000000005,-1.365,0.232,2.64,5.0,,85.09,84.86,
2025-08-15T09:50:01.090Z,17,GR86-028-89,3.5,-1.439,0.25,2.61,5.0,6885.0,96.81,98.15,
2025-08-15T09:50:01.135Z,17,GR86-028-89,1.6,-1.564,0.313,2.58,5.0,,101.71,102.685,201.12
2025-08-15T09:50:01.178Z,17,GR86-028-89,0.1,-1.379,0.27,2.5500000000000003,5.0,,103.22,105.37,
2025-08-15T09:50:01.221Z,17,GR86-028-89,-0.7000000000000001,-1.257,0.357,2.5500000000000003,5.0,,103.465,105.11,
2025-08-15T09:50:01.266Z,17,GR86-028-89,0.8,-1.281,0.337,2.54,5.0,,98.395,98.87,
2025-08-15T09:50:01.308Z,17,GR86-028-89,0.7000000000000001,-1.382,0.279,2.54,5.0,6309.0,94.49,96.46,
2025-08-15T09:50:01.351Z,17,GR86-028-89,-2.5,-1.183,0.465,2.53,5.0,,86.995,89.09,190.85
2025-08-15T09:50:01.395Z,17,GR86-028-89,-10.0,-1.355,0.404,2.52,5.0,,78.865,79.655,
2025-08-15T09:50:01.438Z,17,GR86-028-89,-10.8,-1.271,0.391,3.28,5.0,,76.36,78.575,
2025-08-15T09:50:01.481Z,17,GR86-028-89,-10.0,-1.194,0.364,41.72,5.0,,66.67,68.44,
2025-08-15T09:50:01.526Z,17,GR86-028-89,-6.7,-1.111,0.264,88.71000000000001,5.0,5923.0,58.615,59.68,
2025-08-15T09:50:01.569Z,17,GR86-028-89,-1.5,-1.149,0.244,99.78,5.0,,52.115,53.18,182.73
2025-08-15T09:50:01.612Z,17,GR86-028-89,2.9000000000000004,-1.018,0.103,63.29,4.0,,48.3,50.005,
2025-08-15T09:50:01.658Z,17,GR86-028-89,3.7,-1.075,0.214,4.61,4.0,,47.870000000000005,48.955,
2025-08-15T09:50:01.701Z,17,GR86-028-89,5.1000000000000005,-1.05,0.139,4.43,4.0,,48.115,49.2,
2025-08-15T09:50:01.745Z,17,GR86-028-89,6.4,-1.133,0.07,4.08,4.0,6447.0,48.59,49.52,
2025-08-15T09:50:01.787Z,17,GR86-028-89,6.800000000000001,-1.157,0.177,3.59,4.0,,49.93,51.305,175.46
2025-08-15T09:50:01.830Z,17,GR86-028-89,6.4,-1.168,0.149,3.25,4.0,,50.07,50.94,
2025-08-15T09:50:01.875Z,17,GR86-028-89,3.7,-1.118,0.181,2.96,4.0,,50.525,51.0,
2025-08-15T09:50:01.918Z,17,GR86-028-89,2.3000000000000003,-1.134,0.195,2.84,4.0,,50.65,51.335,
2025-08-15T09:50:01.961Z,17,GR86-028-89,0.8,-1.168,0.193,21.79,4.0,6239.0,50.345,51.275,
2025-08-15T09:50:02.005Z,17,GR86-028-89,-0.3,-1.128,0.266,67.43,4.0,,49.015,50.19,169.12
2025-08-15T09:50:02.048Z,17,GR86-028-89,-0.7000000000000001,-1.101,0.256,95.6,3.0,,46.145,47.735,
2025-08-15T09:50:02.091Z,17,GR86-028-89,-1.2000000000000002,-1.163,0.164,35.32,3.0,,41.735,43.23,
2025-08-15T09:50:02.136Z,17,GR86-028-89,-4.6000000000000005,-1.018,0.329,2.87,3.0,,39.37,40.835,
2025-08-15T09:50:02.179Z,17,GR86-028-89,-4.7,-0.958,0.213,2.74,3.0,6459.0,37.585,38.56,
2025-08-15T09:50:02.222Z,17,GR86-028-89,-6.300000000000001,-0.959,0.256,2.68,3.0,,36.96,38.075,162.33
2025-08-15T09:50:02.265Z,17,GR86-028-89,-6.2,-0.898,0.152,2.66,3.0,,37.05,38.21,
2025-08-15T09:50:02.308Z,17,GR86-028-89,-4.6000000000000005,-0.855,0.146,2.64,3.0,,37.05,38.045,
2025-08-15T09:50:02.351Z,17,GR86-028-89,-2.6,-0.921,0.238,2.6,3.0,,37.89,38.775,
2025-08-15T09:50:02.395Z,17,GR86-028-89,0.8,-1.026,0.084,2.59,3.0,6897.0,39.46,40.21,
2025-08-15T09:50:02.438Z,17,GR86-028-89,2.2,-1.0,0.159,2.58,3.0,,40.425,41.08,155.36
2025-08-15T09:50:02.481Z,17,GR86-028-89,3.3000000000000003,-0.953,0.136,2.5500000000000003,3.0,,44.13,44.53,
2025-08-15T09:50:02.526Z,17,GR86-028-89,5.300000000000001,-1.08,0.155,4.11,3.0,,50.31,50.815,
2025-08-15T09:50:02.569Z,17,GR86-028-89,5.7,-1.146,0.197,44.18,3.0,,54.645,55.15,
2025-08-15T09:50:02.612Z,17,GR86-028-89,5.800000000000001,-1.158,0.145,73.39,2.0,6652.0,55.915,56.585,
2025-08-15T09:50:02.658Z,17,GR86-028-89,5.5,-1.272,0.213,4.62,2.0,,57.055,58.675,149.3
2025-08-15T09:50:02.701Z,17,GR86-028-89,5.300000000000001,-1.144,0.208,3.69,2.0,,59.24,60.92,
2025-08-15T09:50:02.745Z,17,GR86-028-89,5.2,-1.131,0.261,3.35,2.0,,59.59,60.52,
2025-08-15T09:50:02.787Z,17,GR86-028-89,4.1000000000000005,-1.272,0.367,3.12,2.0,,59.055,60.705,
2025-08-15T09:50:02.830Z,17,GR86-028-89,3.7,-1.118,0.236,3.0,2.0,6740.0,60.46,61.97,
2025-08-15T09:50:02.875Z,17,GR86-028-89,4.0,-1.287,0.494,2.84,2.0,,60.14,61.145,142.03
2025-08-15T09:50:02.918Z,17,GR86-028-89,4.800000000000001,-1.12,0.432,2.78,2.0,,61.940000000000005,63.525,
2025-08-15T09:50:02.961Z,17,GR86-028-89,5.2,-1.148,0.388,2.74,2.0,,64.215,65.115,
2025-08-15T09:50:03.005Z,17,GR86-028-89,4.9,-1.252,0.627,2.68,2.0,,65.175,65.77,
2025-08-15T09:50:03.047Z,17,GR86-028-89,4.7,-1.124,0.524,2.65,2.0,6852.0,66.67,68.09,
2025-08-15T09:50:03.090Z,17,GR86-028-89,4.7,-1.151,0.406,2.62,2.0,,68.5,69.77,135.08
2025-08-15T09:50:03.136Z,17,GR86-028-89,5.2,-1.004,0.5670000000000001,2.58,2.0,,66.7,68.5,
2025-08-15T09:50:03.179Z,17,GR86-028-89,5.1000000000000005,-1.089,0.437,2.56,2.0,,61.91,63.835,
2025-08-15T09:50:03.222Z,17,GR86-028-89,6.0,-1.122,0.413,37.6,1.0,,58.155,59.895,
2025-08-15T09:50:03.265Z,17,GR86-028-89,9.8,-1.021,0.412,44.04,1.0,6830.0,53.96,55.515,
2025-08-15T09:50:03.308Z,17,GR86-028-89,16.5,-1.191,0.282,5.29,1.0,,53.99,55.575,127.94
2025-08-15T09:50:03.351Z,17,GR86-028-89,20.700000000000003,-1.144,0.525,4.25,1.0,,57.47,59.15,
2025-08-15T09:50:03.395Z,17,GR86-028-89,23.6,-1.261,0.466,3.54,1.0,,61.145,61.88,
2025-08-15T09:50:03.438Z,17,GR86-028-89,26.0,-1.07,0.597,3.22,1.0,,62.215,63.77,
2025-08-15T09:50:03.481Z,17,GR86-028-89,27.9,-1.238,0.514,3.03,1.0,6347.0,64.0,65.42,
2025-08-15T09:50:03.527Z,17,GR86-028-89,30.5,-1.042,0.847,2.88,1.0,,58.370000000000005,59.805,112.67
2025-08-15T09:50:03.569Z,17,GR86-028-89,30.9,-0.987,0.807,2.81,1.0,,55.945,57.24,
2025-08-15T09:50:03.612Z,17,GR86-028-89,32.7,-0.889,0.755,2.74,1.0,,53.455,55.24,
2025-08-15T09:50:03.655Z,17,GR86-028-89,38.400000000000006,-1.105,1.134,2.65,1.0,,51.93,53.15,
2025-08-15T09:50:03.698Z,17,GR86-028-89,42.5,-0.883,1.084,2.62,1.0,6898.0,48.235,49.870000000000005,
2025-08-15T09:50:03.741Z,17,GR86-028-89,45.7,-0.789,0.932,2.61,1.0,,48.235,49.23,105.51
2025-08-15T09:50:03.786Z,17,GR86-028-89,47.0,-0.8150000000000001,1.17,2.58,1.0,,47.55,48.115,
2025-08-15T09:50:03.828Z,17,GR86-028-89,48.7,-0.922,1.07,2.58,1.0,,46.895,47.49,
2025-08-15T09:50:03.871Z,17,GR86-028-89,50.0,-0.836,1.054,2.5500000000000003,1.0,,47.155,48.265,
2025-08-15T09:50:03.916Z,17,GR86-028-89,51.0,-0.784,1.127,2.53,1.0,6819.0,45.81,46.865,
2025-08-15T09:50:03.958Z,17,GR86-028-89,52.6,-0.763,0.988,2.52,1.0,,47.335,48.085,98.48
2025-08-15T09:50:04.001Z,17,GR86-028-89,57.400000000000006,-0.834,0.992,2.51,1.0,,48.205,48.895,
2025-08-15T09:50:04.045Z,17,GR86-028-89,63.7,-0.845,1.039,2.51,1.0,,49.64,49.825,
2025-08-15T09:50:04.088Z,17,GR86-028-89,70.2,-0.8,0.998,2.49,1.0,,47.52,48.74,
2025-08-15T09:50:04.131Z,17,GR86-028-89,79.10000000000001,-0.84,0.955,2.48,1.0,6390.0,45.305,46.495,
2025-08-15T09:50:04.175Z,17,GR86-028-89,96.0,-0.84,0.793,2.5,1.0,,44.74,45.75,92.42
2025-08-15T09:50:04.218Z,17,GR86-028-89,103.5,-0.8140000000000001,0.927,2.49,1.0,,44.68,45.4,
2025-08-15T09:50:04.261Z,17,GR86-028-89,106.5,-0.777,1.028,2.49,1.0,,40.425,41.89,
2025-08-15T09:50:04.305Z,17,GR86-028-89,108.4,-0.705,1.004,2.48,1.0,,32.715,33.97,
2025-08-15T09:50:04.347Z,17,GR86-028-89,110.4,-0.669,1.018,2.49,1.0,5894.0,25.24,26.4,
2025-08-15T09:50:04.390Z,17,GR86-028-89,112.6,-0.609,1.011,2.48,1.0,,18.405,19.395,86.69
2025-08-15T09:50:04.435Z,17,GR86-028-89,113.1,-0.638,1.08,2.48,1.0,,14.115,15.06,
2025-08-15T09:50:04.478Z,17,GR86-028-89,113.1,-0.56,1.159,2.49,1.0,,7.83,8.575000000000001,
2025-08-15T09:50:04.521Z,17,GR86-028-89,113.1,-0.357,1.222,2.48,1.0,,2.485,2.915,
2025-08-15T09:50:04.566Z,17,GR86-028-89,113.0,-0.251,1.241,2.49,1.0,5668.0,0.0,0.0,
2025-08-15T09:50:04.608Z,17,GR86-028-89,112.7,-0.286,1.192,2.48,1.0,,0.0,0.0,82.47
2025-08-15T09:50:04.651Z,17,GR86-028-89,110.5,-0.24,1.168,2.49,1.0,,0.0,0.0,
2025-08-15T09:50:04.695Z,17,GR86-028-89,101.7,-0.199,1.219,3.5500000000000003,1.0,,0.0,0.0,
2025-08-15T09:50:04.738Z,17,GR86-028-89,95.1,-0.19,1.298,18.92,1.0,,0.0,0.0,
2025-08-15T09:50:04.781Z,17,GR86-028-89,89.10000000000001,-0.203,1.292,19.84,1.0,5614.0,0.0,0.0,
2025-08-15T09:50:04.826Z,17,GR86-028-89,82.9,-0.182,1.275,21.35,1.0,,0.0,0.0,79.96000000000001
2025-08-15T09:50:04.869Z,17,GR86-028-89,76.10000000000001,-0.139,1.267,24.31,1.0,,0.0,0.0,
2025-08-15T09:50:04.912Z,17,GR86-028-89,66.8,-0.102,1.238,28.59,1.0,,0.0,0.0,
2025-08-15T09:50:04.958Z,17,GR86-028-89,47.5,-0.07,1.288,33.77,1.0,,0.0,0.0,
2025-08-15T09:50:05.001Z,17,GR86-028-89,37.2,0.27,1.136,34.11,1.0,5635.0,0.0,0.0,
2025-08-15T09:50:05.045Z,17,GR86-028-89,33.5,0.5,1.022,34.36,1.0,,0.0,0.0,78.45
2025-08-15T09:50:05.088Z,17,GR86-028-89,33.2,0.755,1.05,34.95,1.0,,0.0,0.0,
2025-08-15T09:50:05.131Z,17,GR86-028-89,36.9,0.603,1.089,35.42,1.0,,0.0,0.0,
2025-08-15T09:50:05.175Z,17,GR86-028-89,47.0,0.223,1.192,36.9,1.0,,0.0,0.0,
2025-08-15T09:50:05.218Z,17,GR86-028-89,40.5,0.234,1.129,35.31,1.0,6082.0,0.0,0.0,
2025-08-15T09:50:05.261Z,17,GR86-028-89,23.0,0.196,1.11,35.1,1.0,,0.0,0.0,77.69
2025-08-15T09:50:05.305Z,17,GR86-028-89,1.4,0.251,1.223,35.29,1.0,,0.0,0.0,
2025-08-15T09:50:05.391Z,17,GR86-028-89,-18.4,0.275,1.075,35.21,1.0,,0.0,0.0,
2025-08-15T09:50:05.436Z,17,GR86-028-89,-43.0,0.264,1.101,35.84,1.0,6318.0,0.0,0.0,
2025-08-15T09:50:05.479Z,17,GR86-028-89,-43.3,0.318,1.044,35.87,1.0,,0.0,0.0,79.33
2025-08-15T09:50:05.522Z,17,GR86-028-89,-41.7,0.277,1.069,36.13,1.0,,0.0,0.0,
2025-08-15T09:50:05.566Z,17,GR86-028-89,-42.6,0.289,1.158,36.2,1.0,,0.0,0.0,
2025-08-15T09:50:05.608Z,17,GR86-028-89,-43.5,0.318,1.113,36.14,1.0,,0.0,0.0,
2025-08-15T09:50:05.651Z,17,GR86-028-89,-39.7,0.319,1.07,36.17,1.0,6386.0,0.0,0.0,
2025-08-15T09:50:05.695Z,17,GR86-028-89,-10.0,0.302,1.075,36.43,1.0,,0.0,0.0,80.88
2025-08-15T09:50:05.738Z,17,GR86-028-89,21.700000000000003,0.289,1.224,36.71,1.0,,0.0,0.0,
2025-08-15T09:50:05.781Z,17,GR86-028-89,51.7,0.267,1.291,37.3,1.0,,0.0,0.0,
2025-08-15T09:50:05.826Z,17,GR86-028-89,78.2,0.213,1.236,37.76,1.0,,0.0,0.0,
2025-08-15T09:50:05.869Z,17,GR86-028-89,96.6,0.168,1.299,38.9,1.0,6389.0,0.0,0.0,
2025-08-15T09:50:05.912Z,17,GR86-028-89,105.7,0.233,1.208,39.17,1.0,,0.0,0.0,81.64
2025-08-15T09:50:05.958Z,17,GR86-028-89,110.8,0.289,1.141,39.19,1.0,,0.0,0.0,
2025-08-15T09:50:06.001Z,17,GR86-028-89,111.0,0.275,1.198,39.2,1.0,,0.0,0.0,
2025-08-15T09:50:06.045Z,17,GR86-028-89,110.7,0.241,1.204,39.32,1.0,,0.0,0.0,
2025-08-15T09:50:06.088Z,17,GR86-028-89,110.2,0.236,1.084,39.34,1.0,6489.0,0.0,0.0,
2025-08-15T09:50:06.131Z,17,GR86-028-89,106.6,0.223,1.139,39.64,1.0,,0.0,0.0,82.37
2025-08-15T09:50:06.175Z,17,GR86-028-89,91.8,0.211,1.087,43.64,1.0,,0.0,0.0,
2025-08-15T09:50:06.218Z,17,GR86-028-89,76.5,0.214,1.101,47.32,1.0,,0.0,0.0,
2025-08-15T09:50:06.261Z,17,GR86-028-89,60.900000000000006,0.229,1.13,51.14,1.0,,0.0,0.0,
2025-08-15T09:50:06.305Z,17,GR86-028-89,49.1,0.248,1.142,55.4,1.0,6428.0,0.0,0.0,
2025-08-15T09:50:06.347Z,17,GR86-028-89,42.3,0.284,1.02,58.26,1.0,,0.0,0.0,84.0
2025-08-15T09:50:06.390Z,17,GR86-028-89,41.3,0.321,1.063,77.04,1.0,,0.0,0.0,
2025-08-15T09:50:06.436Z,17,GR86-028-89,44.7,0.333,1.069,99.73,1.0,,0.0,0.0,
2025-08-15T09:50:06.479Z,17,GR86-028-89,41.1,0.316,1.117,99.95,1.0,,0.0,0.0,
2025-08-15T09:50:06.522Z,17,GR86-028-89,28.9,0.322,1.121,99.96,1.0,6747.0,0.0,0.0,
2025-08-15T09:50:06.565Z,17,GR86-028-89,14.2,0.339,1.054,99.97,1.0,,0.0,0.0,86.24
2025-08-15T09:50:06.608Z,17,GR86-028-89,2.1,0.361,0.959,99.99,1.0,,0.0,0.0,
2025-08-15T09:50:06.651Z,17,GR86-028-89,-4.7,0.344,0.929,99.98,1.0,,0.0,0.0,
2025-08-15T09:50:06.695Z,17,GR86-028-89,-4.9,0.384,0.905,99.97,1.0,,0.0,0.0,
2025-08-15T09:50:06.738Z,17,GR86-028-89,-1.5,0.408,0.852,99.98,1.0,6929.0,0.0,0.0,
2025-08-15T09:50:06.781Z,17,GR86-028-89,2.4000000000000004,0.392,0.858,99.97,1.0,,0.0,0.0,88.19
2025-08-15T09:50:06.826Z,17,GR86-028-89,6.6000000000000005,0.39,0.838,99.98,1.0,,0.0,0.0,
2025-08-15T09:50:06.869Z,17,GR86-028-89,13.2,0.43,0.866,100.0,1.0,,0.0,0.0,
2025-08-15T09:50:06.912Z,17,GR86-028-89,24.700000000000003,0.402,0.885,100.01,1.0,,0.0,0.0,
2025-08-15T09:50:06.958Z,17,GR86-028-89,44.5,0.374,0.6940000000000001,99.99,1.0,6986.0,0.0,0.0,
2025-08-15T09:50:07.001Z,17,GR86-028-89,47.7,0.344,0.722,100.0,1.0,,0.0,0.0,89.09
2025-08-15T09:50:07.045Z,17,GR86-028-89,45.5,0.32,0.867,100.0,1.0,,0.0,0.0,
2025-08-15T09:50:07.088Z,17,GR86-028-89,40.900000000000006,0.438,0.506,99.98,1.0,,0.0,0.0,
2025-08-15T09:50:07.131Z,17,GR86-028-89,37.5,0.278,0.337,100.01,1.0,,0.0,0.0,
2025-08-15T09:50:07.175Z,17,GR86-028-89,35.4,0.423,0.5760000000000001,99.99,1.0,7016.0,0.0,0.0,
2025-08-15T09:50:07.218Z,17,GR86-028-89,33.9,0.407,0.411,100.01,1.0,,0.0,0.0,91.41
2025-08-15T09:50:07.261Z,17,GR86-028-89,29.4,0.296,0.561,100.01,1.0,,0.0,0.0,
2025-08-15T09:50:07.305Z,17,GR86-028-89,22.8,0.149,0.479,99.99,1.0,,0.0,0.0,
2025-08-15T09:50:07.347Z,17,GR86-028-89,17.0,-0.133,0.7020000000000001,99.99,2.0,,0.0,0.0,
2025-08-15T09:50:07.390Z,17,GR86-028-89,12.9,0.412,0.6890000000000001,100.02,2.0,7060.0,0.0,0.0,
2025-08-15T09:50:07.435Z,17,GR86-028-89,9.7,0.215,0.472,100.0,2.0,,0.0,0.0,93.9
2025-08-15T09:50:07.478Z,17,GR86-028-89,7.300000000000001,0.589,0.646,100.0,2.0,,0.0,0.0,
2025-08-15T09:50:07.521Z,17,GR86-028-89,6.0,0.426,0.755,100.0,2.0,,0.0,0.0,
2025-08-15T09:50:07.566Z,17,GR86-028-89,5.1000000000000005,0.423,0.612,100.01,2.0,,0.0,0.0,
2025-08-15T09:50:07.608Z,17,GR86-028-89,3.3000000000000003,0.398,0.734,100.0,2.0,6037.0,0.0,0.0,
2025-08-15T09:50:07.651Z,17,GR86-028-89,0.3,0.394,0.532,100.01,2.0,,0.0,0.0,95.59
2025-08-15T09:50:07.695Z,17,GR86-028-89,0.0,0.38,0.582,100.0,2.0,,0.0,0.0,
2025-08-15T09:50:07.738Z,17,GR86-028-89,0.5,0.448,0.633,100.01,2.0,,0.0,0.0,
2025-08-15T09:50:07.781Z,17,GR86-028-89,0.3,0.527,0.358,100.0,2.0,,0.0,0.0,
2025-08-15T09:50:07.826Z,17,GR86-028-89,0.2,0.425,0.546,100.0,2.0,5872.0,0.0,0.0,
2025-08-15T09:50:07.869Z,17,GR86-028-89,0.7000000000000001,0.508,0.558,100.01,2.0,,0.0,0.0,98.32
2025-08-15T09:50:07.912Z,17,GR86-028-89,1.4,0.286,0.589,100.0,2.0,,0.0,0.0,
2025-08-15T09:50:07.955Z,17,GR86-028-89,2.8000000000000003,0.336,0.527,100.01,2.0,,0.0,0.0,
2025-08-15T09:50:07.998Z,17,GR86-028-89,2.4000000000000004,0.422,0.502,100.01,2.0,,0.0,0.0,
2025-08-15T09:50:08.041Z,17,GR86-028-89,0.3,0.378,0.211,100.01,2.0,5958.0,0.0,0.0,
2025-08-15T09:50:08.085Z,17,GR86-028-89,-2.4000000000000004,0.367,0.314,100.01,2.0,,0.0,0.0,99.91
2025-08-15T09:50:08.128Z,17,GR86-028-89,-3.7,0.252,0.21,100.02,2.0,,0.0,0.0,
2025-08-15T09:50:08.171Z,17,GR86-028-89,-3.9,0.267,0.13,100.01,2.0,,0.0,0.0,
2025-08-15T09:50:08.216Z,17,GR86-028-89,-5.0,0.357,0.068,100.02,2.0,,0.0,0.0,
2025-08-15T09:50:08.258Z,17,GR86-028-89,-5.9,0.325,-0.075,100.01,2.0,5982.0,0.0,0.0,
2025-08-15T09:50:08.301Z,17,GR86-028-89,-6.4,0.318,-0.139,100.01,2.0,,0.0,0.0,101.88
2025-08-15T09:50:08.345Z,17,GR86-028-89,-7.0,0.324,-0.101,100.0,2.0,,0.0,0.0,
2025-08-15T09:50:08.387Z,17,GR86-028-89,-7.6,0.248,-0.197,100.01,2.0,,0.0,0.0,
2025-08-15T09:50:08.430Z,17,GR86-028-89,-7.800000000000001,0.187,-0.17,100.01,2.0,,0.0,0.0,
2025-08-15T09:50:08.475Z,17,GR86-028-89,-6.9,0.394,-0.136,100.01,2.0,6078.0,0.0,0.0,
2025-08-15T09:50:08.518Z,17,GR86-028-89,-6.6000000000000005,0.391,-0.062,100.01,2.0,,0.0,0.0,105.37
2025-08-15T09:50:08.561Z,17,GR86-028-89,-6.6000000000000005,0.358,-0.059,100.01,2.0,,0.0,0.0,
2025-08-15T09:50:08.605Z,17,GR86-028-89,-6.6000000000000005,0.333,-0.056,100.01,2.0,,0.0,0.0,
2025-08-15T09:50:08.648Z,17,GR86-028-89,-6.6000000000000005,0.278,-0.048,100.0,2.0,,0.0,0.0,
2025-08-15T09:50:08.691Z,17,GR86-028-89,-6.7,0.292,-0.093,100.01,2.0,6173.0,0.0,0.0,
2025-08-15T09:50:08.736Z,17,GR86-028-89,-6.6000000000000005,0.272,-0.085,100.02,2.0,,0.0,0.0,107.31
2025-08-15T09:50:08.779Z,17,GR86-028-89,-6.6000000000000005,0.269,-0.107,100.0,2.0,,0.0,0.0,
2025-08-15T09:50:08.822Z,17,GR86-028-89,-6.5,0.31,-0.09,100.01,2.0,,0.0,0.0,
2025-08-15T09:50:08.865Z,17,GR86-028-89,-6.4,0.231,-0.111,100.01,2.0,,0.0,0.0,
2025-08-15T09:50:08.908Z,17,GR86-028-89,-6.1000000000000005,0.25,-0.094,100.01,2.0,6236.0,0.0,0.0,
2025-08-15T09:50:08.951Z,17,GR86-028-89,-5.9,0.261,-0.086,100.01,2.0,,0.0,0.0,108.99
2025-08-15T09:50:08.995Z,17,GR86-028-89,-5.5,0.264,-0.073,100.01,2.0,,0.0,0.0,
2025-08-15T09:50:09.038Z,17,GR86-028-89,-5.300000000000001,0.247,-0.068,100.01,2.0,,0.0,0.0,
2025-08-15T09:50:09.081Z,17,GR86-028-89,-5.300000000000001,0.284,-0.044,100.04,2.0,,0.0,0.0,
2025-08-15T09:50:09.126Z,17,GR86-028-89,-5.300000000000001,0.235,-0.035,100.01,2.0,6405.0,0.0,0.0,
2025-08-15T09:50:09.169Z,17,GR86-028-89,-5.300000000000001,0.27,-0.039,100.0,2.0,,0.0,0.0,110.69
2025-08-15T09:50:09.212Z,17,GR86-028-89,-5.6000000000000005,0.264,-0.023,100.02,2.0,,0.0,0.0,
2025-08-15T09:50:09.258Z,17,GR86-028-89,-5.800000000000001,0.254,-0.037,100.02,2.0,,0.0,0.0,
2025-08-15T09:50:09.301Z,17,GR86-028-89,-5.9,0.234,-0.041,100.0,2.0,,0.0,0.0,
2025-08-15T09:50:09.345Z,17,GR86-028-89,-5.9,0.295,-0.022,100.0,2.0,6514.0,0.0,0.0,
2025-08-15T09:50:09.387Z,17,GR86-028-89,-6.0,0.242,-0.043,100.01,2.0,,0.0,0.0,112.33
2025-08-15T09:50:09.430Z,17,GR86-028-89,-6.1000000000000005,0.268,-0.03,100.01,2.0,,0.0,0.0,
2025-08-15T09:50:09.474Z,17,GR86-028-89,-6.2,0.282,-0.048,100.02,2.0,,0.0,0.0,
2025-08-15T09:50:09.518Z,17,GR86-028-89,-6.7,0.262,-0.058,100.02,2.0,,0.0,0.0,
2025-08-15T09:50:09.561Z,17,GR86-028-89,-8.0,0.223,-0.064,100.01,2.0,6590.0,0.0,0.0,
2025-08-15T09:50:09.605Z,17,GR86-028-89,-9.8,0.282,-0.078,100.01,2.0,,0.0,0.0,113.93
2025-08-15T09:50:09.647Z,17,GR86-028-89,-10.8,0.248,-0.107,99.98,2.0,,0.0,0.0,
2025-08-15T09:50:09.690Z,17,GR86-028-89,-10.7,0.243,-0.122,100.0,2.0,,0.0,0.0,
2025-08-15T09:50:09.736Z,17,GR86-028-89,-10.3,0.237,-0.136,100.02,2.0,,0.0,0.0,
2025-08-15T09:50:09.779Z,17,GR86-028-89,-10.2,0.277,-0.157,100.0,2.0,6686.0,0.0,0.0,
2025-08-15T09:50:09.822Z,17,GR86-028-89,-10.2,0.225,-0.171,100.0,2.0,,0.0,0.0,115.4
2025-08-15T09:50:09.865Z,17,GR86-028-89,-10.2,0.257,-0.161,100.01,2.0,,0.0,0.0,
2025-08-15T09:50:09.908Z,17,GR86-028-89,-10.2,0.268,-0.181,100.02,2.0,,0.0,0.0,
2025-08-15T09:50:09.951Z,17,GR86-028-89,-10.2,0.235,-0.165,100.02,2.0,,0.0,0.0,
2025-08-15T09:50:09.995Z,17,GR86-028-89,-10.2,0.227,-0.164,100.0,2.0,6770.0,0.0,0.0,
2025-08-15T09:50:10.038Z,17,GR86-028-89,-10.2,0.267,-0.142,100.01,2.0,,0.0,0.0,116.89
2025-08-15T09:50:10.081Z,17,GR86-028-89,-10.3,0.263,-0.144,100.01,2.0,,0.0,0.0,
2025-08-15T09:50:10.127Z,17,GR86-028-89,-10.3,0.22,-0.139,100.01,2.0,,0.0,0.0,
2025-08-15T09:50:10.169Z,17,GR86-028-89,-10.3,0.271,-0.143,100.01,2.0,,0.0,0.0,
2025-08-15T09:50:10.212Z,17,GR86-028-89,-10.3,0.26,-0.141,99.99,2.0,6844.0,0.0,0.0,
2025-08-15T09:50:10.258Z,17,GR86-028-89,-10.6,0.255,-0.159,100.01,2.0,,0.0,0.0,118.35
2025-08-15T09:50:10.301Z,17,GR86-028-89,-11.1,0.222,-0.125,100.01,2.0,,0.0,0.0,
2025-08-15T09:50:10.345Z,17,GR86-028-89,-12.4,0.284,-0.137,100.0,2.0,,0.0,0.0,
2025-08-15T09:50:10.387Z,17,GR86-028-89,-13.1,0.247,-0.18,100.01,2.0,,0.0,0.0,
2025-08-15T09:50:10.431Z,17,GR86-028-89,-11.4,0.218,-0.159,100.01,2.0,6916.0,0.0,0.0,
2025-08-15T09:50:10.474Z,17,GR86-028-89,-9.0,0.223,-0.151,100.01,2.0,,0.0,0.0,119.71
2025-08-15T09:50:10.518Z,17,GR86-028-89,-8.0,0.269,-0.152,100.0,2.0,,0.0,0.0,
2025-08-15T09:50:10.561Z,17,GR86-028-89,-7.1000000000000005,0.261,-0.125,100.01,2.0,,0.0,0.0,
2025-08-15T09:50:10.605Z,17,GR86-028-89,-6.5,0.22,-0.106,100.01,2.0,,0.0,0.0,
2025-08-15T09:50:10.647Z,17,GR86-028-89,-6.1000000000000005,0.258,-0.089,99.99,2.0,6997.0,0.0,0.0,
2025-08-15T09:50:10.690Z,17,GR86-028-89,-6.0,0.244,-0.083,100.01,2.0,,0.0,0.0,120.96
2025-08-15T09:50:10.735Z,17,GR86-028-89,-5.9,0.256,-0.064,100.02,2.0,,0.0,0.0,
2025-08-15T09:50:10.778Z,17,GR86-028-89,-5.9,0.231,-0.025,100.03,2.0,,0.0,0.0,
2025-08-15T09:50:10.821Z,17,GR86-028-89,-5.9,0.258,-0.022,100.02,2.0,,0.0,0.0,
2025-08-15T09:50:10.866Z,17,GR86-028-89,-5.9,0.252,-0.044,100.0,2.0,7057.0,0.0,0.0,
2025-08-15T09:50:10.908Z,17,GR86-028-89,-5.7,0.228,-0.03,100.01,2.0,,0.0,0.0,122.15
2025-08-15T09:50:10.951Z,17,GR86-028-89,-5.5,0.24,-0.01,99.98,2.0,,0.0,0.0,
2025-08-15T09:50:10.995Z,17,GR86-028-89,-5.0,0.236,-0.029,100.01,2.0,,0.0,0.0,
2025-08-15T09:50:11.038Z,17,GR86-028-89,-5.0,0.263,-0.036,99.98,2.0,,0.0,0.0,
2025-08-15T09:50:11.081Z,17,GR86-028-89,-4.9,0.23,-0.048,100.01,2.0,7125.0,0.0,0.0,
2025-08-15T09:50:11.126Z,17,GR86-028-89,-4.800000000000001,0.226,-0.017,100.03,2.0,,0.0,0.0,124.44
2025-08-15T09:50:11.169Z,17,GR86-028-89,-4.7,0.254,-0.028,100.01,2.0,,0.0,0.0,
2025-08-15T09:50:11.212Z,17,GR86-028-89,-4.4,0.239,-0.047,100.01,2.0,,0.0,0.0,
2025-08-15T09:50:11.258Z,17,GR86-028-89,-3.4000000000000004,0.243,-0.032,100.02,2.0,,0.0,0.0,
2025-08-15T09:50:11.301Z,17,GR86-028-89,-2.7,0.209,0.018,100.0,2.0,7185.0,0.0,0.0,
2025-08-15T09:50:11.345Z,17,GR86-028-89,-3.2,0.238,-0.01,100.0,2.0,,0.0,0.0,125.53
2025-08-15T09:50:11.387Z,17,GR86-028-89,-3.3000000000000003,0.254,-0.024,100.03,2.0,,0.0,0.0,
2025-08-15T09:50:11.430Z,17,GR86-028-89,-3.1,0.214,0.034,100.01,2.0,,0.0,0.0,
2025-08-15T09:50:11.475Z,17,GR86-028-89,-3.1,0.206,0.003,100.01,2.0,,0.0,0.0,
2025-08-15T09:50:11.518Z,17,GR86-028-89,-3.0,-0.053,0.04,99.99,3.0,7220.0,0.0,0.0,
2025-08-15T09:50:11.561Z,17,GR86-028-89,-2.7,0.111,0.031,100.01,3.0,,0.0,0.0,126.57
2025-08-15T09:50:11.605Z,17,GR86-028-89,-0.2,0.646,-0.048,100.01,3.0,,0.0,0.0,
2025-08-15T09:50:11.647Z,17,GR86-028-89,2.8000000000000003,0.443,0.016,100.0,3.0,,0.0,0.0,
2025-08-15T09:50:11.690Z,17,GR86-028-89,3.9,0.22,0.144,100.01,3.0,,0.0,0.0,
2025-08-15T09:50:11.736Z,17,GR86-028-89,3.4000000000000004,0.058,0.064,100.01,3.0,5790.0,0.0,0.0,
2025-08-15T09:50:11.779Z,17,GR86-028-89,2.2,0.21,0.186,100.0,3.0,,0.0,0.0,127.4
2025-08-15T09:50:11.822Z,17,GR86-028-89,1.2000000000000002,0.3,0.184,100.0,3.0,,0.0,0.0,
2025-08-15T09:50:11.865Z,17,GR86-028-89,0.9,0.206,0.132,100.01,3.0,,0.0,0.0,
2025-08-15T09:50:11.908Z,17,GR86-028-89,-0.5,0.198,0.173,100.0,3.0,,0.0,0.0,
2025-08-15T09:50:11.951Z,17,GR86-028-89,-0.9,0.171,0.143,100.01,3.0,5968.0,0.0,0.0,
2025-08-15T09:50:11.995Z,17,GR86-028-89,-0.6000000000000001,0.24,0.121,100.0,3.0,,0.0,0.0,128.55
2025-08-15T09:50:12.038Z,17,GR86-028-89,-0.2,0.205,0.143,99.99,3.0,,0.0,0.0,
2025-08-15T09:50:12.081Z,17,GR86-028-89,-0.4,0.192,0.105,100.01,3.0,,0.0,0.0,
2025-08-15T09:50:12.126Z,17,GR86-028-89,-1.0,0.2,0.064,100.01,3.0,,0.0,0.0,
2025-08-15T09:50:12.169Z,17,GR86-028-89,-1.5,0.195,0.098,100.0,3.0,6040.0,0.0,0.0,
2025-08-15T09:50:12.212Z,17,GR86-028-89,-2.3000000000000003,0.193,0.082,100.01,3.0,,0.0,0.0,129.33
2025-08-15T09:50:12.255Z,17,GR86-028-89,-2.7,0.202,0.084,100.01,3.0,,0.0,0.0,
2025-08-15T09:50:12.298Z,17,GR86-028-89,-2.8000000000000003,0.183,0.055,100.01,3.0,,0.0,0.0,
2025-08-15T09:50:12.341Z,17,GR86-028-89,-3.6,0.211,0.02,100.0,3.0,,0.0,0.0,
2025-08-15T09:50:12.385Z,17,GR86-028-89,-4.0,0.194,0.056,99.99,3.0,6085.0,0.0,0.0,
2025-08-15T09:50:12.427Z,17,GR86-028-89,-4.2,0.198,0.054,100.0,3.0,,0.0,0.0,130.1
2025-08-15T09:50:12.470Z,17,GR86-028-89,-4.6000000000000005,0.194,-0.007,100.01,3.0,,0.0,0.0,
2025-08-15T09:50:12.515Z,17,GR86-028-89,-5.1000000000000005,0.194,-0.001,34.35,3.0,,0.0,0.0,
2025-08-15T09:50:12.558Z,17,GR86-028-89,-4.6000000000000005,0.21,-0.022,4.4,3.0,,0.0,0.0,
2025-08-15T09:50:12.601Z,17,GR86-028-89,-3.6,0.136,0.014,3.82,3.0,6123.0,0.0,0.0,
2025-08-15T09:50:12.645Z,17,GR86-028-89,-3.5,-0.153,0.044,3.5700000000000003,3.0,,0.0,0.0,130.95
2025-08-15T09:50:12.688Z,17,GR86-028-89,-3.0,-0.091,0.002,3.3200000000000003,3.0,,13.795,14.115,
2025-08-15T09:50:12.731Z,17,GR86-028-89,-2.2,-0.485,-0.008,3.09,3.0,,25.575,25.865,
2025-08-15T09:50:12.775Z,17,GR86-028-89,-0.8,-0.583,0.079,2.9,3.0,,35.085,34.9,
2025-08-15T09:50:12.818Z,17,GR86-028-89,0.2,-0.685,0.032,2.79,3.0,5729.0,37.74,37.77,
2025-08-15T09:50:12.861Z,17,GR86-028-89,1.1,-0.7010000000000001,0.1,2.76,3.0,,44.74,44.59,131.69
2025-08-15T09:50:12.905Z,17,GR86-028-89,1.4,-0.861,0.082,9.9,3.0,,51.655,51.335,
2025-08-15T09:50:12.947Z,17,GR86-028-89,1.4,-0.945,0.111,54.52,3.0,,52.86,53.21,
2025-08-15T09:50:12.990Z,17,GR86-028-89,1.2000000000000002,-0.989,0.151,97.71,3.0,,49.795,51.215,
2025-08-15T09:50:13.036Z,17,GR86-028-89,0.9,-0.882,0.076,37.69,2.0,5648.0,37.83,39.525,
2025-08-15T09:50:13.079Z,17,GR86-028-89,-0.8,-0.862,0.256,3.41,2.0,,32.9,34.275,127.97
2025-08-15T09:50:13.122Z,17,GR86-028-89,-1.8,-0.958,0.196,2.8000000000000003,2.0,,31.77,32.99,
2025-08-15T09:50:13.166Z,17,GR86-028-89,-1.5,-1.06,0.176,2.74,2.0,,31.42,32.17,
2025-08-15T09:50:13.208Z,17,GR86-028-89,-0.2,-0.882,0.374,2.68,2.0,,32.410000000000004,33.525,
2025-08-15T09:50:13.251Z,17,GR86-028-89,4.9,-0.805,0.213,2.67,2.0,5713.0,31.865,32.445,
2025-08-15T09:50:13.295Z,17,GR86-028-89,13.5,-0.749,0.529,2.64,2.0,,30.765,31.42,121.12
2025-08-15T09:50:13.338Z,17,GR86-028-89,16.0,-0.742,0.417,2.61,2.0,,30.11,31.055,
2025-08-15T09:50:13.381Z,17,GR86-028-89,21.9,-0.677,0.5,2.61,2.0,,29.5,30.4,
2025-08-15T09:50:13.426Z,17,GR86-028-89,30.4,-0.657,0.652,2.61,2.0,,28.55,29.65,
2025-08-15T09:50:13.469Z,17,GR86-028-89,36.6,-0.767,0.602,2.58,2.0,6299.0,27.65,28.84,
2025-08-15T09:50:13.512Z,17,GR86-028-89,41.2,-0.67,0.722,2.58,2.0,,27.255,28.245,115.76
2025-08-15T09:50:13.555Z,17,GR86-028-89,44.8,-0.614,0.8,2.56,2.0,,27.59,28.305,
2025-08-15T09:50:13.598Z,17,GR86-028-89,45.6,-0.649,0.779,2.58,2.0,,28.275,28.84,
2025-08-15T09:50:13.641Z,17,GR86-028-89,45.5,-0.635,0.86,2.56,2.0,,29.435,29.805,
2025-08-15T09:50:13.686Z,17,GR86-028-89,41.8,-0.624,0.923,2.56,2.0,5965.0,32.17,32.87,
2025-08-15T09:50:13.728Z,17,GR86-028-89,38.0,-0.65,0.942,2.5500000000000003,2.0,,34.12,35.145,106.22
2025-08-15T09:50:13.771Z,17,GR86-028-89,39.2,-0.642,0.966,2.5500000000000003,2.0,,32.105000000000004,33.13,
2025-08-15T09:50:13.858Z,17,GR86-028-89,39.8,-0.58,0.944,2.54,2.0,,27.97,28.185,
2025-08-15T09:50:13.901Z,17,GR86-028-89,33.6,-0.452,1.072,2.54,2.0,5599.0,14.24,15.0,
2025-08-15T09:50:13.945Z,17,GR86-028-89,33.4,-0.363,1.104,2.54,2.0,,5.25,5.86,101.2
2025-08-15T09:50:13.987Z,17,GR86-028-89,33.4,-0.256,1.088,2.52,2.0,,0.0,0.0,
2025-08-15T09:50:14.031Z,17,GR86-028-89,32.6,-0.213,1.152,2.52,2.0,,0.0,0.0,
2025-08-15T09:50:14.118Z,17,GR86-028-89,26.700000000000003,-0.13,1.114,2.52,2.0,5297.0,0.0,0.0,
2025-08-15T09:50:14.161Z,17,GR86-028-89,27.5,-0.155,1.129,2.51,2.0,,0.0,0.0,98.76
2025-08-15T09:50:14.205Z,17,GR86-028-89,30.6,-0.131,1.172,2.52,2.0,,0.0,0.0,
2025-08-15T09:50:14.247Z,17,GR86-028-89,31.1,-0.145,1.231,8.72,2.0,,0.0,0.0,
2025-08-15T09:50:14.290Z,17,GR86-028-89,32.2,-0.114,1.19,19.23,2.0,,0.0,0.0,
2025-08-15T09:50:14.335Z,17,GR86-028-89,25.3,-0.122,1.243,19.62,2.0,5234.0,0.0,0.0,
2025-08-15T09:50:14.378Z,17,GR86-028-89,11.3,-0.057,1.216,20.2,2.0,,0.0,0.0,96.76
2025-08-15T09:50:14.421Z,17,GR86-028-89,-1.0,-0.056,1.202,20.48,2.0,,0.0,0.0,
2025-08-15T09:50:14.466Z,17,GR86-028-89,-3.4000000000000004,-0.028,1.166,21.09,2.0,,0.0,0.0,
2025-08-15T09:50:14.508Z,17,GR86-028-89,-1.5,0.016,1.159,21.23,2.0,,0.0,0.0,
2025-08-15T09:50:14.551Z,17,GR86-028-89,-1.7000000000000002,0.14,1.169,21.34,2.0,5486.0,0.0,0.0,
2025-08-15T09:50:14.595Z,17,GR86-028-89,4.4,0.144,1.159,21.57,2.0,,0.0,0.0,95.15
2025-08-15T09:50:14.638Z,17,GR86-028-89,20.4,0.098,1.201,22.46,2.0,,0.0,0.0,
2025-08-15T09:50:14.681Z,17,GR86-028-89,39.8,0.1,1.212,22.56,2.0,,0.0,0.0,
2025-08-15T09:50:14.726Z,17,GR86-028-89,58.6,0.047,1.263,22.96,2.0,,0.0,0.0,
2025-08-15T09:50:14.769Z,17,GR86-028-89,75.0,0.079,1.274,23.02,2.0,5429.0,0.0,0.0,
2025-08-15T09:50:14.812Z,17,GR86-028-89,87.80000000000001,0.046,1.232,22.87,2.0,,0.0,0.0,94.26
2025-08-15T09:50:14.858Z,17,GR86-028-89,100.1,0.071,1.195,22.74,2.0,,0.0,0.0,
2025-08-15T09:50:14.901Z,17,GR86-028-89,105.0,0.069,1.181,22.66,2.0,,0.0,0.0,
2025-08-15T09:50:14.945Z,17,GR86-028-89,108.0,0.048,1.182,22.65,2.0,,0.0,0.0,
2025-08-15T09:50:14.987Z,17,GR86-028-89,110.5,0.045,1.243,22.66,2.0,5418.0,0.0,0.0,
2025-08-15T09:50:15.030Z,17,GR86-028-89,112.6,0.042,1.225,22.67,2.0,,0.0,0.0,93.23
2025-08-15T09:50:15.075Z,17,GR86-028-89,115.2,0.059,1.235,23.27,2.0,,0.0,0.0,
2025-08-15T09:50:15.118Z,17,GR86-028-89,116.0,0.042,1.198,25.02,2.0,,0.0,0.0,
2025-08-15T09:50:15.161Z,17,GR86-028-89,116.5,0.046,1.188,29.81,2.0,,0.0,0.0,
2025-08-15T09:50:15.205Z,17,GR86-028-89,116.8,0.039,1.166,43.45,2.0,5391.0,0.0,0.0,
2025-08-15T09:50:15.247Z,17,GR86-028-89,117.2,0.071,1.17,58.86,2.0,,0.0,0.0,92.54
2025-08-15T09:50:15.290Z,17,GR86-028-89,117.2,0.121,1.11,62.4,2.0,,0.0,0.0,
2025-08-15T09:50:15.336Z,17,GR86-028-89,117.3,0.184,1.062,60.85,2.0,,0.0,0.0,
2025-08-15T09:50:15.379Z,17,GR86-028-89,117.2,0.241,1.058,60.27,2.0,,0.0,0.0,
2025-08-15T09:50:15.422Z,17,GR86-028-89,117.0,0.196,1.079,56.36,2.0,5473.0,0.0,0.0,
2025-08-15T09:50:15.465Z,17,GR86-028-89,115.8,0.191,1.163,51.38,2.0,,0.0,0.0,92.95
2025-08-15T09:50:15.508Z,17,GR86-028-89,114.2,0.163,1.16,52.0,2.0,,0.0,0.0,
2025-08-15T09:50:15.551Z,17,GR86-028-89,112.9,0.174,1.138,52.4,2.0,,0.0,0.0,
2025-08-15T09:50:15.595Z,17,GR86-028-89,110.0,0.212,1.099,51.63,2.0,,0.0,0.0,
2025-08-15T09:50:15.638Z,17,GR86-028-89,106.5,0.157,1.139,48.83,2.0,5544.0,0.0,0.0,
2025-08-15T09:50:15.681Z,17,GR86-028-89,102.4,0.16,1.198,46.05,2.0,,0.0,0.0,93.88
2025-08-15T09:50:15.726Z,17,GR86-028-89,98.0,0.181,1.228,46.91,2.0,,0.0,0.0,
2025-08-15T09:50:15.769Z,17,GR86-028-89,90.7,0.174,1.235,49.120000000000005,2.0,,0.0,0.0,
2025-08-15T09:50:15.812Z,17,GR86-028-89,77.60000000000001,0.178,1.256,49.78,2.0,,0.0,0.0,
2025-08-15T09:50:15.858Z,17,GR86-028-89,50.0,0.189,1.193,57.26,2.0,5659.0,0.0,0.0,
2025-08-15T09:50:15.901Z,17,GR86-028-89,32.7,0.24,1.15,67.95,2.0,,0.0,0.0,95.32
2025-08-15T09:50:15.945Z,17,GR86-028-89,24.1,0.237,1.125,77.82000000000001,2.0,,0.0,0.0,
2025-08-15T09:50:15.987Z,17,GR86-028-89,25.200000000000003,0.283,1.109,98.57,2.0,,0.0,0.0,
2025-08-15T09:50:16.030Z,17,GR86-028-89,29.700000000000003,0.279,1.109,100.03,2.0,,0.0,0.0,
2025-08-15T09:50:16.075Z,17,GR86-028-89,34.2,0.26,1.09,99.98,2.0,5739.0,0.0,0.0,
2025-08-15T09:50:16.118Z,17,GR86-028-89,34.0,0.276,1.09,99.97,2.0,,0.0,0.0,98.25
2025-08-15T09:50:16.161Z,17,GR86-028-89,33.7,0.244,1.077,99.99,2.0,,0.0,0.0,
2025-08-15T09:50:16.205Z,17,GR86-028-89,37.4,0.279,1.101,100.0,2.0,,0.0,0.0,
2025-08-15T09:50:16.247Z,17,GR86-028-89,45.400000000000006,0.284,1.08,100.01,2.0,,0.0,0.0,
2025-08-15T09:50:16.290Z,17,GR86-028-89,53.6,0.269,1.118,100.01,2.0,5845.0,0.0,0.0,
2025-08-15T09:50:16.336Z,17,GR86-028-89,54.7,0.222,1.083,100.0,2.0,,0.0,0.0,99.37
2025-08-15T09:50:16.379Z,17,GR86-028-89,45.400000000000006,0.224,1.155,99.98,2.0,,0.0,0.0,
