timestamp,lap,vehicle_id,steering_angle,accx_can,accy_can,ath,gear,nmot,pbrake_f,pbrake_r,speed
2025-08-15T02:01:43.801Z,12,GR86-057-57,-1.1,0.107,-0.03,99.99,4.0,,0.0,0.0,
2025-08-15T02:01:43.843Z,12,GR86-057-57,-1.1,0.1,-0.016,99.99,4.0,7030.0,0.0,0.0,
2025-08-15T02:01:43.886Z,12,GR86-057-57,-1.1,0.09,-0.019,100.0,4.0,,0.0,0.0,178.81
2025-08-15T02:01:43.930Z,12,GR86-057-57,-0.9,0.12,-0.029,100.0,4.0,,0.0,0.0,
2025-08-15T02:01:44.017Z,12,GR86-057-57,-0.5,0.112,-0.017,99.98,4.0,,0.0,0.0,
2025-08-15T02:01:44.061Z,12,GR86-057-57,-0.5,0.109,0.001,99.98,4.0,7022.0,0.0,0.0,
2025-08-15T02:01:44.104Z,12,GR86-057-57,-0.5,0.117,0.011,100.01,4.0,,0.0,0.0,179.6
2025-08-15T02:01:44.146Z,12,GR86-057-57,-0.5,0.115,0.011,100.01,4.0,,0.0,0.0,
2025-08-15T02:01:44.190Z,12,GR86-057-57,-0.5,0.101,0.017,99.98,4.0,,0.0,0.0,
2025-08-15T02:01:44.232Z,12,GR86-057-57,-0.5,0.103,0.012,99.99,4.0,,0.0,0.0,
2025-08-15T02:01:44.275Z,12,GR86-057-57,-0.5,0.103,0.02,99.99,4.0,7082.0,0.0,0.0,
2025-08-15T02:01:44.318Z,12,GR86-057-57,-0.5,0.099,0.04,100.01,4.0,,0.0,0.0,180.35
2025-08-15T02:01:44.361Z,12,GR86-057-57,-0.5,0.106,0.035,100.02,4.0,,0.0,0.0,
2025-08-15T02:01:44.404Z,12,GR86-057-57,-0.6000000000000001,0.097,0.033,100.02,4.0,,0.0,0.0,
2025-08-15T02:01:44.450Z,12,GR86-057-57,-0.6000000000000001,0.114,0.019,100.01,4.0,,0.0,0.0,
2025-08-15T02:01:44.492Z,12,GR86-057-57,-0.5,0.1,0.035,100.02,4.0,7116.0,0.0,0.0,
2025-08-15T02:01:44.535Z,12,GR86-057-57,-0.6000000000000001,0.116,0.039,99.99,4.0,,0.0,0.0,181.13
2025-08-15T02:01:44.578Z,12,GR86-057-57,-0.5,0.102,0.034,100.0,4.0,,0.0,0.0,
2025-08-15T02:01:44.664Z,12,GR86-057-57,-0.6000000000000001,0.113,0.01,99.99,4.0,,0.0,0.0,
2025-08-15T02:01:44.707Z,12,GR86-057-57,-0.8,0.101,0.002,100.02,4.0,7096.0,0.0,0.0,
2025-08-15T02:01:44.751Z,12,GR86-057-57,-0.8,0.109,0.012,100.0,4.0,,0.0,0.0,181.91
2025-08-15T02:01:44.794Z,12,GR86-057-57,-0.8,0.108,0.012,100.02,4.0,,0.0,0.0,
2025-08-15T02:01:44.837Z,12,GR86-057-57,-0.8,0.1,0.007,99.99,4.0,,0.0,0.0,
2025-08-15T02:01:44.880Z,12,GR86-057-57,-0.8,0.099,0.011,99.98,4.0,,0.0,0.0,
2025-08-15T02:01:44.922Z,12,GR86-057-57,-0.8,0.103,0.0,99.99,4.0,7128.0,0.0,0.0,
2025-08-15T02:01:44.965Z,12,GR86-057-57,-0.8,0.092,-0.002,100.01,4.0,,0.0,0.0,182.64
2025-08-15T02:01:45.008Z,12,GR86-057-57,-0.8,0.105,0.005,100.03,4.0,,0.0,0.0,
2025-08-15T02:01:45.051Z,12,GR86-057-57,-0.8,0.104,0.003,100.02,4.0,,0.0,0.0,
2025-08-15T02:01:45.094Z,12,GR86-057-57,-0.8,0.093,-0.001,100.0,4.0,,0.0,0.0,
2025-08-15T02:01:45.137Z,12,GR86-057-57,-0.8,0.101,0.002,100.0,4.0,7161.0,0.0,0.0,
2025-08-15T02:01:45.181Z,12,GR86-057-57,-0.8,0.104,-0.002,99.99,4.0,,0.0,0.0,184.17
2025-08-15T02:01:45.223Z,12,GR86-057-57,-0.8,0.104,0.004,100.0,4.0,,0.0,0.0,
2025-08-15T02:01:45.266Z,12,GR86-057-57,-0.8,0.101,0.003,100.0,4.0,,0.0,0.0,
2025-08-15T02:01:45.310Z,12,GR86-057-57,-0.7000000000000001,0.076,-0.001,100.02,4.0,,0.0,0.0,
2025-08-15T02:01:45.352Z,12,GR86-057-57,-0.2,0.04,-0.004,100.0,5.0,7187.0,0.0,0.0,
2025-08-15T02:01:45.395Z,12,GR86-057-57,0.0,-0.174,0.023,99.99,5.0,,0.0,0.0,184.85
2025-08-15T02:01:45.438Z,12,GR86-057-57,0.7000000000000001,0.445,0.047,100.02,5.0,,0.0,0.0,
2025-08-15T02:01:45.481Z,12,GR86-057-57,1.0,0.11,-0.046,99.99,5.0,,0.0,0.0,
2025-08-15T02:01:45.524Z,12,GR86-057-57,0.4,-0.09,0.05,100.0,5.0,,0.0,0.0,
2025-08-15T02:01:45.567Z,12,GR86-057-57,0.1,0.068,0.103,99.99,5.0,7222.0,0.0,0.0,
2025-08-15T02:01:45.611Z,12,GR86-057-57,1.7000000000000002,0.162,0.047,100.02,5.0,,0.0,0.0,185.58
2025-08-15T02:01:45.654Z,12,GR86-057-57,2.1,0.037,0.147,100.0,5.0,,0.0,0.0,
2025-08-15T02:01:45.697Z,12,GR86-057-57,1.7000000000000002,0.077,0.064,100.0,5.0,,0.0,0.0,
2025-08-15T02:01:45.741Z,12,GR86-057-57,0.8,0.099,0.049,99.99,5.0,,0.0,0.0,
2025-08-15T02:01:45.784Z,12,GR86-057-57,-0.1,0.087,0.071,100.01,5.0,6393.0,0.0,0.0,
2025-08-15T02:01:45.826Z,12,GR86-057-57,-0.3,0.075,0.056,99.99,5.0,,0.0,0.0,186.25
2025-08-15T02:01:45.871Z,12,GR86-057-57,0.7000000000000001,0.107,0.089,99.99,5.0,,0.0,0.0,
2025-08-15T02:01:45.914Z,12,GR86-057-57,1.6,0.082,0.062,100.0,5.0,,0.0,0.0,
2025-08-15T02:01:45.957Z,12,GR86-057-57,1.7000000000000002,0.079,0.057,100.02,5.0,,0.0,0.0,
2025-08-15T02:01:46.001Z,12,GR86-057-57,1.3,0.104,0.045,100.01,5.0,6321.0,0.0,0.0,
2025-08-15T02:01:46.043Z,12,GR86-057-57,1.0,0.103,0.056,99.98,5.0,,0.0,0.0,186.87
2025-08-15T02:01:46.086Z,12,GR86-057-57,1.0,0.093,0.063,100.01,5.0,,0.0,0.0,
2025-08-15T02:01:46.130Z,12,GR86-057-57,1.3,0.07,0.072,99.99,5.0,,0.0,0.0,
2025-08-15T02:01:46.172Z,12,GR86-057-57,1.3,0.066,0.057,100.0,5.0,,0.0,0.0,
2025-08-15T02:01:46.215Z,12,GR86-057-57,1.3,0.06,0.074,99.98,5.0,6385.0,0.0,0.0,
2025-08-15T02:01:46.258Z,12,GR86-057-57,1.4,0.062,0.082,100.01,5.0,,0.0,0.0,187.44
2025-08-15T02:01:46.301Z,12,GR86-057-57,1.7000000000000002,0.076,0.086,100.01,5.0,,0.0,0.0,
2025-08-15T02:01:46.344Z,12,GR86-057-57,1.8,0.083,0.087,100.01,5.0,,0.0,0.0,
2025-08-15T02:01:46.387Z,12,GR86-057-57,1.8,0.069,0.091,100.0,5.0,,0.0,0.0,
2025-08-15T02:01:46.431Z,12,GR86-057-57,1.9,0.07,0.092,100.01,5.0,6394.0,0.0,0.0,
2025-08-15T02:01:46.474Z,12,GR86-057-57,1.9,0.076,0.1,100.0,5.0,,0.0,0.0,188.03
2025-08-15T02:01:46.517Z,12,GR86-057-57,1.9,0.062,0.109,100.0,5.0,,0.0,0.0,
2025-08-15T02:01:46.561Z,12,GR86-057-57,1.9,0.064,0.121,100.0,5.0,,0.0,0.0,
2025-08-15T02:01:46.604Z,12,GR86-057-57,1.8,0.066,0.132,99.99,5.0,,0.0,0.0,
2025-08-15T02:01:46.821Z,12,GR86-057-57,2.0,0.086,0.129,100.0,5.0,6378.0,0.0,0.0,188.65
2025-08-15T02:01:46.907Z,12,GR86-057-57,1.7000000000000002,0.061,0.152,99.99,5.0,6440.0,0.0,0.0,189.28
2025-08-15T02:01:46.951Z,12,GR86-057-57,1.7000000000000002,0.095,0.122,100.01,5.0,,0.0,0.0,
2025-08-15T02:01:46.993Z,12,GR86-057-57,1.7000000000000002,0.106,0.109,100.0,5.0,,0.0,0.0,
2025-08-15T02:01:47.036Z,12,GR86-057-57,1.7000000000000002,0.097,0.097,100.02,5.0,,0.0,0.0,
2025-08-15T02:01:47.080Z,12,GR86-057-57,1.7000000000000002,0.091,0.103,100.01,5.0,6427.0,0.0,0.0,
2025-08-15T02:01:47.122Z,12,GR86-057-57,1.7000000000000002,0.091,0.112,100.0,5.0,,0.0,0.0,189.92
2025-08-15T02:01:47.165Z,12,GR86-057-57,1.7000000000000002,0.096,0.134,100.02,5.0,,0.0,0.0,
2025-08-15T02:01:47.208Z,12,GR86-057-57,1.7000000000000002,0.077,0.108,100.0,5.0,,0.0,0.0,
2025-08-15T02:01:47.294Z,12,GR86-057-57,1.7000000000000002,0.077,0.08,100.0,5.0,6482.0,0.0,0.0,
2025-08-15T02:01:47.337Z,12,GR86-057-57,1.7000000000000002,0.095,0.091,99.99,5.0,,0.0,0.0,190.66
2025-08-15T02:01:47.381Z,12,GR86-057-57,1.7000000000000002,0.085,0.091,100.01,5.0,,0.0,0.0,
2025-08-15T02:01:47.423Z,12,GR86-057-57,1.7000000000000002,0.086,0.1,99.98,5.0,,0.0,0.0,
2025-08-15T02:01:47.467Z,12,GR86-057-57,1.5,0.104,0.107,99.99,5.0,,0.0,0.0,
2025-08-15T02:01:47.511Z,12,GR86-057-57,1.3,0.064,0.128,100.01,5.0,6469.0,0.0,0.0,
2025-08-15T02:01:47.554Z,12,GR86-057-57,1.3,0.064,0.103,100.0,5.0,,0.0,0.0,191.13
2025-08-15T02:01:47.597Z,12,GR86-057-57,1.3,0.086,0.102,100.0,5.0,,0.0,0.0,
2025-08-15T02:01:47.641Z,12,GR86-057-57,1.3,0.072,0.099,99.99,5.0,,0.0,0.0,
2025-08-15T02:01:47.683Z,12,GR86-057-57,1.2000000000000002,0.087,0.109,100.0,5.0,,0.0,0.0,
2025-08-15T02:01:47.726Z,12,GR86-057-57,1.0,0.103,0.11,100.02,5.0,6481.0,0.0,0.0,
2025-08-15T02:01:47.814Z,12,GR86-057-57,0.8,0.064,0.098,100.0,5.0,,0.0,0.0,192.36
2025-08-15T02:01:47.857Z,12,GR86-057-57,0.8,0.068,0.098,99.99,5.0,,0.0,0.0,
2025-08-15T02:01:47.901Z,12,GR86-057-57,0.6000000000000001,0.07,0.096,99.98,5.0,,0.0,0.0,
2025-08-15T02:01:47.943Z,12,GR86-057-57,0.4,0.092,0.084,100.0,5.0,6542.0,0.0,0.0,
2025-08-15T02:01:47.986Z,12,GR86-057-57,0.1,0.081,0.057,100.0,5.0,,0.0,0.0,192.97
2025-08-15T02:01:48.030Z,12,GR86-057-57,-0.1,0.05,0.051,99.99,5.0,,0.0,0.0,
2025-08-15T02:01:48.072Z,12,GR86-057-57,-0.2,0.055,0.044,99.99,5.0,,0.0,0.0,
2025-08-15T02:01:48.115Z,12,GR86-057-57,-0.5,0.054,0.036,100.01,5.0,,0.0,0.0,
2025-08-15T02:01:48.158Z,12,GR86-057-57,-0.7000000000000001,0.087,0.03,100.0,5.0,6556.0,0.0,0.0,
2025-08-15T02:01:48.201Z,12,GR86-057-57,-0.7000000000000001,0.067,0.015,99.98,5.0,,0.0,0.0,193.61
2025-08-15T02:01:48.244Z,12,GR86-057-57,-0.7000000000000001,0.074,0.011,99.99,5.0,,0.0,0.0,
2025-08-15T02:01:48.287Z,12,GR86-057-57,-0.7000000000000001,0.072,0.003,100.01,5.0,,0.0,0.0,
2025-08-15T02:01:48.331Z,12,GR86-057-57,-0.7000000000000001,0.05,-0.004,99.99,5.0,,0.0,0.0,
2025-08-15T02:01:48.374Z,12,GR86-057-57,-0.7000000000000001,0.062,-0.005,99.98,5.0,6603.0,0.0,0.0,
2025-08-15T02:01:48.417Z,12,GR86-057-57,-0.7000000000000001,0.069,-0.016,100.0,5.0,,0.0,0.0,194.25
2025-08-15T02:01:48.461Z,12,GR86-057-57,-0.7000000000000001,0.056,-0.009,100.0,5.0,,0.0,0.0,
2025-08-15T02:01:48.546Z,12,GR86-057-57,-0.6000000000000001,0.073,-0.037,99.99,5.0,,0.0,0.0,
2025-08-15T02:01:48.590Z,12,GR86-057-57,-0.6000000000000001,0.058,-0.023,100.02,5.0,6625.0,0.0,0.0,
2025-08-15T02:01:48.634Z,12,GR86-057-57,-0.9,0.063,0.002,100.0,5.0,,0.0,0.0,194.86
2025-08-15T02:01:48.676Z,12,GR86-057-57,-1.0,0.046,-0.005,100.01,5.0,,0.0,0.0,
2025-08-15T02:01:48.720Z,12,GR86-057-57,-1.0,0.08,-0.026,99.99,5.0,,0.0,0.0,
2025-08-15T02:01:48.762Z,12,GR86-057-57,-1.1,0.079,-0.026,99.99,5.0,,0.0,0.0,
2025-08-15T02:01:48.806Z,12,GR86-057-57,-1.1,0.067,-0.021,99.99,5.0,6647.0,0.0,0.0,
2025-08-15T02:01:48.848Z,12,GR86-057-57,-1.1,0.065,-0.028,100.0,5.0,,0.0,0.0,195.53
2025-08-15T02:01:48.891Z,12,GR86-057-57,-1.1,0.059,-0.045,100.01,5.0,,0.0,0.0,
2025-08-15T02:01:48.934Z,12,GR86-057-57,-1.2000000000000002,0.066,-0.031,99.98,5.0,,0.0,0.0,
2025-08-15T02:01:48.977Z,12,GR86-057-57,-1.4,0.071,-0.017,99.98,5.0,,0.0,0.0,
2025-08-15T02:01:49.021Z,12,GR86-057-57,-1.4,0.069,-0.013,100.0,5.0,6613.0,0.0,0.0,
2025-08-15T02:01:49.063Z,12,GR86-057-57,-1.4,0.063,-0.028,100.01,5.0,,0.0,0.0,196.12
2025-08-15T02:01:49.106Z,12,GR86-057-57,-1.5,0.07,-0.044,99.99,5.0,,0.0,0.0,
2025-08-15T02:01:49.150Z,12,GR86-057-57,-1.9,0.068,-0.038,100.0,5.0,,0.0,0.0,
2025-08-15T02:01:49.192Z,12,GR86-057-57,-2.1,0.067,-0.052,99.98,5.0,,0.0,0.0,
2025-08-15T02:01:49.235Z,12,GR86-057-57,-2.2,0.05,-0.058,100.0,5.0,6645.0,0.0,0.0,
2025-08-15T02:01:49.278Z,12,GR86-057-57,-2.3000000000000003,0.067,-0.068,99.99,5.0,,0.0,0.0,196.69
2025-08-15T02:01:49.321Z,12,GR86-057-57,-2.3000000000000003,0.057,-0.066,99.98,5.0,,0.0,0.0,
2025-08-15T02:01:49.364Z,12,GR86-057-57,-2.3000000000000003,0.063,-0.067,100.0,5.0,,0.0,0.0,
2025-08-15T02:01:49.408Z,12,GR86-057-57,-2.3000000000000003,0.062,-0.066,99.98,5.0,,0.0,0.0,
2025-08-15T02:01:49.451Z,12,GR86-057-57,-2.3000000000000003,0.061,-0.088,99.99,5.0,6707.0,0.0,0.0,
2025-08-15T02:01:49.494Z,12,GR86-057-57,-2.3000000000000003,0.062,-0.091,100.01,5.0,,0.0,0.0,197.25
2025-08-15T02:01:49.537Z,12,GR86-057-57,-2.5,0.067,-0.084,99.99,5.0,,0.0,0.0,
2025-08-15T02:01:49.581Z,12,GR86-057-57,-2.6,0.043,-0.096,99.99,5.0,,0.0,0.0,
2025-08-15T02:01:49.624Z,12,GR86-057-57,-2.7,0.063,-0.102,99.99,5.0,,0.0,0.0,
2025-08-15T02:01:49.666Z,12,GR86-057-57,-2.8000000000000003,0.056,-0.101,99.99,5.0,6682.0,0.0,0.0,
2025-08-15T02:01:49.711Z,12,GR86-057-57,-2.8000000000000003,0.052,-0.107,99.99,5.0,,0.0,0.0,197.79
2025-08-15T02:01:49.754Z,12,GR86-057-57,-2.8000000000000003,0.053,-0.091,99.98,5.0,,0.0,0.0,
2025-08-15T02:01:49.797Z,12,GR86-057-57,-2.9000000000000004,0.049,-0.089,99.98,5.0,,0.0,0.0,
2025-08-15T02:01:49.841Z,12,GR86-057-57,-2.9000000000000004,0.062,-0.088,99.99,5.0,,0.0,0.0,
2025-08-15T02:01:49.883Z,12,GR86-057-57,-2.9000000000000004,0.065,-0.106,99.98,5.0,6737.0,0.0,0.0,
2025-08-15T02:01:49.926Z,12,GR86-057-57,-2.9000000000000004,0.06,-0.122,99.98,5.0,,0.0,0.0,198.35
2025-08-15T02:01:49.972Z,12,GR86-057-57,-2.9000000000000004,0.044,-0.108,100.0,5.0,,0.0,0.0,
2025-08-15T02:01:50.014Z,12,GR86-057-57,-2.9000000000000004,0.049,-0.104,99.99,5.0,,0.0,0.0,
2025-08-15T02:01:50.057Z,12,GR86-057-57,-3.1,0.054,-0.106,99.98,5.0,,0.0,0.0,
2025-08-15T02:01:50.101Z,12,GR86-057-57,-3.1,0.075,-0.117,99.99,5.0,6760.0,0.0,0.0,
2025-08-15T02:01:50.143Z,12,GR86-057-57,-3.1,0.057,-0.138,100.0,5.0,,0.0,0.0,198.88
2025-08-15T02:01:50.186Z,12,GR86-057-57,-3.1,0.07,-0.118,99.99,5.0,,0.0,0.0,
2025-08-15T02:01:50.230Z,12,GR86-057-57,-3.1,0.04,-0.075,100.0,5.0,,0.0,0.0,
2025-08-15T02:01:50.274Z,12,GR86-057-57,-3.0,0.07,-0.086,100.0,5.0,,0.0,0.0,
2025-08-15T02:01:50.317Z,12,GR86-057-57,-3.0,0.062,-0.105,100.0,5.0,6770.0,0.0,0.0,
2025-08-15T02:01:50.361Z,12,GR86-057-57,-3.0,0.073,-0.107,99.99,5.0,,0.0,0.0,199.41
2025-08-15T02:01:50.404Z,12,GR86-057-57,-3.0,0.065,-0.119,99.98,5.0,,0.0,0.0,
2025-08-15T02:01:50.446Z,12,GR86-057-57,-3.0,0.05,-0.119,100.0,5.0,,0.0,0.0,
2025-08-15T02:01:50.490Z,12,GR86-057-57,-3.1,0.077,-0.129,100.0,5.0,,0.0,0.0,
2025-08-15T02:01:50.532Z,12,GR86-057-57,-3.2,0.054,-0.154,99.99,5.0,6733.0,0.0,0.0,
2025-08-15T02:01:50.575Z,12,GR86-057-57,-3.1,0.082,-0.127,100.0,5.0,,0.0,0.0,200.2
2025-08-15T02:01:50.618Z,12,GR86-057-57,-2.5,0.065,-0.114,100.01,5.0,,0.0,0.0,
2025-08-15T02:01:50.661Z,12,GR86-057-57,-1.6,0.045,-0.123,99.98,5.0,,0.0,0.0,
2025-08-15T02:01:50.704Z,12,GR86-057-57,-1.0,0.046,-0.119,99.98,5.0,,0.0,0.0,
2025-08-15T02:01:50.750Z,12,GR86-057-57,-0.9,0.064,-0.097,100.0,5.0,6798.0,0.0,0.0,
2025-08-15T02:01:50.792Z,12,GR86-057-57,-1.2000000000000002,0.071,-0.084,99.99,5.0,,0.0,0.0,200.67
2025-08-15T02:01:50.835Z,12,GR86-057-57,-1.4,0.057,-0.087,99.98,5.0,,0.0,0.0,
2025-08-15T02:01:50.880Z,12,GR86-057-57,-1.4,0.032,-0.077,99.99,5.0,,0.0,0.0,
2025-08-15T02:01:50.922Z,12,GR86-057-57,-1.4,0.041,-0.064,100.0,5.0,,0.0,0.0,
2025-08-15T02:01:50.965Z,12,GR86-057-57,-1.4,0.044,-0.057,99.98,5.0,6813.0,0.0,0.0,
2025-08-15T02:01:51.008Z,12,GR86-057-57,-1.4,0.054,-0.048,100.0,5.0,,0.0,0.0,201.09
2025-08-15T02:01:51.051Z,12,GR86-057-57,-1.4,0.049,-0.055,99.99,5.0,,0.0,0.0,
2025-08-15T02:01:51.094Z,12,GR86-057-57,-1.4,0.031,-0.057,99.98,5.0,,0.0,0.0,
2025-08-15T02:01:51.181Z,12,GR86-057-57,-1.4,0.049,-0.047,100.0,5.0,6804.0,0.0,0.0,
2025-08-15T02:01:51.223Z,12,GR86-057-57,-0.9,0.068,-0.017,99.99,5.0,,0.0,0.0,201.47
2025-08-15T02:01:51.266Z,12,GR86-057-57,-0.8,0.067,-0.009,99.98,5.0,,0.0,0.0,
2025-08-15T02:01:51.310Z,12,GR86-057-57,-0.8,0.025,-0.024,100.01,5.0,,0.0,0.0,
2025-08-15T02:01:51.352Z,12,GR86-057-57,-0.8,0.069,-0.022,99.99,5.0,,0.0,0.0,
2025-08-15T02:01:51.395Z,12,GR86-057-57,-0.9,0.067,-0.017,99.99,5.0,6862.0,0.0,0.0,
2025-08-15T02:01:51.438Z,12,GR86-057-57,-1.0,0.065,-0.017,99.98,5.0,,0.0,0.0,201.91
2025-08-15T02:01:51.481Z,12,GR86-057-57,-1.1,0.088,-0.027,99.99,5.0,,0.0,0.0,
2025-08-15T02:01:51.524Z,12,GR86-057-57,-1.1,0.058,-0.027,99.99,5.0,,0.0,0.0,
2025-08-15T02:01:51.567Z,12,GR86-057-57,-1.1,0.051,-0.024,100.0,5.0,,0.0,0.0,
2025-08-15T02:01:51.611Z,12,GR86-057-57,-1.1,0.081,-0.024,99.99,5.0,6870.0,0.0,0.0,
2025-08-15T02:01:51.655Z,12,GR86-057-57,-1.1,0.076,-0.009,99.99,5.0,,0.0,0.0,202.3
2025-08-15T02:01:51.697Z,12,GR86-057-57,-1.0,0.059,-0.018,99.99,5.0,,0.0,0.0,
2025-08-15T02:01:51.741Z,12,GR86-057-57,-1.0,0.048,-0.022,99.99,5.0,,0.0,0.0,
2025-08-15T02:01:51.784Z,12,GR86-057-57,-1.0,0.021,-0.007,100.01,5.0,,0.0,0.0,
2025-08-15T02:01:51.826Z,12,GR86-057-57,-1.1,0.042,-0.006,100.0,5.0,6892.0,0.0,0.0,
2025-08-15T02:01:51.871Z,12,GR86-057-57,-1.3,0.062,-0.006,100.01,5.0,,0.0,0.0,202.83
2025-08-15T02:01:51.914Z,12,GR86-057-57,-1.3,0.032,0.0,100.0,5.0,,0.0,0.0,
2025-08-15T02:01:51.957Z,12,GR86-057-57,-1.3,0.027,0.0,100.0,5.0,,0.0,0.0,
2025-08-15T02:01:52.001Z,12,GR86-057-57,-1.4,0.034,-0.018,100.0,5.0,,0.0,0.0,
2025-08-15T02:01:52.043Z,12,GR86-057-57,-1.5,0.045,-0.009,99.99,5.0,6899.0,0.0,0.0,
2025-08-15T02:01:52.086Z,12,GR86-057-57,-1.5,0.073,-0.014,100.0,5.0,,0.0,0.0,203.24
2025-08-15T02:01:52.130Z,12,GR86-057-57,-1.2000000000000002,0.036,-0.029,100.0,5.0,,0.0,0.0,
2025-08-15T02:01:52.172Z,12,GR86-057-57,-1.1,0.046,-0.036,100.0,5.0,,0.0,0.0,
2025-08-15T02:01:52.215Z,12,GR86-057-57,-1.1,0.069,-0.022,100.0,5.0,,0.0,0.0,
2025-08-15T02:01:52.258Z,12,GR86-057-57,-1.1,0.071,-0.014,100.0,5.0,6923.0,0.0,0.0,
2025-08-15T02:01:52.301Z,12,GR86-057-57,-1.1,0.069,-0.023,99.99,5.0,,0.0,0.0,203.73
2025-08-15T02:01:52.344Z,12,GR86-057-57,-1.3,0.053,-0.026,100.0,5.0,,0.0,0.0,
2025-08-15T02:01:52.387Z,12,GR86-057-57,-1.4,0.052,-0.043,100.0,5.0,,0.0,0.0,
2025-08-15T02:01:52.431Z,12,GR86-057-57,-1.4,0.085,-0.05,99.98,5.0,,0.0,0.0,
2025-08-15T02:01:52.474Z,12,GR86-057-57,-1.4,0.049,-0.041,99.98,5.0,6933.0,0.0,0.0,
2025-08-15T02:01:52.517Z,12,GR86-057-57,-1.5,0.054,-0.037,99.99,5.0,,0.0,0.0,204.2
2025-08-15T02:01:52.561Z,12,GR86-057-57,-1.5,0.041,-0.045,99.99,5.0,,0.0,0.0,
2025-08-15T02:01:52.604Z,12,GR86-057-57,-1.5,0.05,-0.053,99.99,5.0,,0.0,0.0,
2025-08-15T02:01:52.648Z,12,GR86-057-57,-1.4,0.048,-0.046,100.02,5.0,,0.0,0.0,
2025-08-15T02:01:52.691Z,12,GR86-057-57,-1.1,0.04,-0.04,72.06,5.0,6918.0,0.0,0.0,
2025-08-15T02:01:52.734Z,12,GR86-057-57,0.1,0.056,-0.044,4.75,5.0,,0.0,0.0,204.51
2025-08-15T02:01:52.777Z,12,GR86-057-57,1.0,0.043,-0.048,4.67,5.0,,0.0,0.0,
2025-08-15T02:01:52.821Z,12,GR86-057-57,1.6,-0.184,-0.034,4.44,5.0,,0.0,0.0,
2025-08-15T02:01:52.864Z,12,GR86-057-57,1.7000000000000002,-0.194,0.004,3.98,5.0,,5.11,5.6450000000000005,
2025-08-15T02:01:52.907Z,12,GR86-057-57,2.0,-0.41,-0.017,3.6,5.0,6941.0,28.305,28.52,
2025-08-15T02:01:52.951Z,12,GR86-057-57,2.0,-0.626,0.068,3.27,5.0,,42.025,41.49,204.9
2025-08-15T02:01:52.993Z,12,GR86-057-57,1.0,-0.842,0.032,3.14,5.0,,50.815,50.07,
2025-08-15T02:01:53.037Z,12,GR86-057-57,0.1,-0.969,0.076,3.02,5.0,,58.615,57.805,
2025-08-15T02:01:53.080Z,12,GR86-057-57,-0.5,-1.113,0.073,2.93,5.0,,65.08500000000001,64.245,
2025-08-15T02:01:53.122Z,12,GR86-057-57,-0.5,-1.203,0.057,2.83,5.0,6971.0,70.455,69.525,
2025-08-15T02:01:53.165Z,12,GR86-057-57,-0.5,-1.257,0.059,2.77,5.0,,74.955,74.055,205.26
2025-08-15T02:01:53.208Z,12,GR86-057-57,-0.5,-1.283,0.059,2.68,5.0,,79.015,79.4,
2025-08-15T02:01:53.251Z,12,GR86-057-57,-1.4,-1.338,0.047,2.5500000000000003,5.0,,84.45,85.565,
2025-08-15T02:01:53.294Z,12,GR86-057-57,-1.6,-1.439,0.035,2.52,5.0,,85.32000000000001,85.15,
2025-08-15T02:01:53.337Z,12,GR86-057-57,-1.5,-1.295,-0.005,2.51,5.0,6826.0,87.865,88.58500000000001,
2025-08-15T02:01:53.381Z,12,GR86-057-57,-0.9,-1.287,-0.05,2.49,5.0,,88.525,88.205,197.64
2025-08-15T02:01:53.423Z,12,GR86-057-57,-0.8,-1.385,-0.072,2.48,5.0,,92.065,92.155,
2025-08-15T02:01:53.468Z,12,GR86-057-57,-3.4000000000000004,-1.355,-0.029,2.48,5.0,,90.995,90.795,
2025-08-15T02:01:53.511Z,12,GR86-057-57,-3.4000000000000004,-1.336,-0.1,2.48,5.0,,89.455,90.08,
2025-08-15T02:01:53.554Z,12,GR86-057-57,-0.7000000000000001,-1.363,-0.115,2.47,5.0,6167.0,91.285,92.035,
2025-08-15T02:01:53.597Z,12,GR86-057-57,-0.6000000000000001,-1.318,-0.106,2.45,5.0,,90.265,90.355,186.79
2025-08-15T02:01:53.641Z,12,GR86-057-57,0.4,-1.343,-0.119,2.45,5.0,,89.895,90.86,
2025-08-15T02:01:53.683Z,12,GR86-057-57,2.7,-1.317,-0.148,2.48,5.0,,94.125,94.825,
2025-08-15T02:01:53.726Z,12,GR86-057-57,2.5,-1.313,-0.169,11.14,5.0,,97.22,97.13,
2025-08-15T02:01:53.771Z,12,GR86-057-57,0.2,-1.383,-0.188,78.25,5.0,5598.0,96.46,98.03,
2025-08-15T02:01:53.814Z,12,GR86-057-57,0.6000000000000001,-1.365,-0.206,81.36,4.0,,96.84,98.245,176.09
2025-08-15T02:01:53.857Z,12,GR86-057-57,1.0,-1.471,-0.264,11.05,4.0,,99.435,100.745,
2025-08-15T02:01:53.901Z,12,GR86-057-57,0.2,-1.216,-0.133,2.96,4.0,,102.485,103.845,
2025-08-15T02:01:53.943Z,12,GR86-057-57,-0.9,-1.225,-0.299,2.84,4.0,,100.84,101.42,
2025-08-15T02:01:53.986Z,12,GR86-057-57,-0.9,-1.326,-0.33,2.77,4.0,5265.0,100.745,101.205,
2025-08-15T02:01:54.030Z,12,GR86-057-57,-1.5,-1.349,-0.34,2.7,4.0,,106.865,108.24,168.59
2025-08-15T02:01:54.072Z,12,GR86-057-57,-2.3000000000000003,-1.195,-0.411,2.67,4.0,,104.59,105.28,
2025-08-15T02:01:54.115Z,12,GR86-057-57,-0.3,-1.336,-0.378,2.64,4.0,,101.495,101.115,
2025-08-15T02:01:54.158Z,12,GR86-057-57,2.6,-1.278,-0.288,2.61,4.0,,103.19,104.12,
2025-08-15T02:01:54.201Z,12,GR86-057-57,0.1,-1.267,-0.298,2.58,4.0,5612.0,99.585,100.245,
2025-08-15T02:01:54.244Z,12,GR86-057-57,-4.6000000000000005,-1.249,-0.324,2.58,4.0,,93.085,93.025,159.31
2025-08-15T02:01:54.287Z,12,GR86-057-57,-9.2,-1.248,-0.354,2.57,4.0,,89.99,89.545,
2025-08-15T02:01:54.331Z,12,GR86-057-57,-15.5,-1.264,-0.343,2.57,4.0,,94.245,95.055,
2025-08-15T02:01:54.374Z,12,GR86-057-57,-18.3,-1.189,-0.383,2.5500000000000003,4.0,,94.795,95.835,
2025-08-15T02:01:54.417Z,12,GR86-057-57,-18.5,-1.216,-0.381,2.5500000000000003,4.0,5665.0,92.84,93.085,
2025-08-15T02:01:54.461Z,12,GR86-057-57,-16.6,-1.264,-0.36,2.52,4.0,,88.17,87.865,150.75
2025-08-15T02:01:54.504Z,12,GR86-057-57,-13.7,-1.212,-0.364,17.330000000000002,4.0,,77.46000000000001,78.45,
2025-08-15T02:01:54.546Z,12,GR86-057-57,-9.1,-1.054,-0.395,61.83,4.0,,65.62,66.855,
2025-08-15T02:01:54.590Z,12,GR86-057-57,-3.4000000000000004,-1.13,-0.388,38.65,3.0,,51.84,52.405,
2025-08-15T02:01:54.634Z,12,GR86-057-57,-4.0,-1.222,-0.304,4.21,3.0,5297.0,49.365,50.525,
2025-08-15T02:01:54.676Z,12,GR86-057-57,-6.7,-1.161,-0.475,3.3000000000000003,3.0,,48.265,49.105,143.16
2025-08-15T02:01:54.720Z,12,GR86-057-57,-9.5,-0.94,-0.662,3.15,3.0,,43.735,43.95,
2025-08-15T02:01:54.762Z,12,GR86-057-57,-11.4,-0.896,-0.503,3.06,3.0,,38.595,39.37,
2025-08-15T02:01:54.806Z,12,GR86-057-57,-10.6,-0.806,-0.71,2.99,3.0,,36.73,37.42,
2025-08-15T02:01:54.850Z,12,GR86-057-57,-4.9,-0.732,-0.81,2.9,3.0,4943.0,31.115,31.74,
2025-08-15T02:01:54.892Z,12,GR86-057-57,-1.2000000000000002,-0.674,-0.732,2.87,3.0,,23.99,24.585,133.45
2025-08-15T02:01:54.935Z,12,GR86-057-57,-2.0,-0.719,-0.6940000000000001,2.8000000000000003,3.0,,19.67,20.42,
2025-08-15T02:01:54.978Z,12,GR86-057-57,-6.2,-0.528,-0.687,2.75,3.0,,13.55,14.145,
2025-08-15T02:01:55.021Z,12,GR86-057-57,-15.0,-0.471,-0.721,2.68,3.0,,9.28,10.055,
2025-08-15T02:01:55.064Z,12,GR86-057-57,-24.3,-0.443,-0.776,2.64,3.0,5696.0,9.46,10.055,
2025-08-15T02:01:55.107Z,12,GR86-057-57,-31.200000000000003,-0.386,-0.776,2.58,3.0,,10.15,10.59,129.84
2025-08-15T02:01:55.151Z,12,GR86-057-57,-37.2,-0.408,-0.837,2.52,3.0,,10.895,11.49,
2025-08-15T02:01:55.236Z,12,GR86-057-57,-40.2,-0.469,-0.8240000000000001,2.48,3.0,,11.215,11.84,
2025-08-15T02:01:55.280Z,12,GR86-057-57,-40.3,-0.382,-0.876,2.45,3.0,5420.0,5.4,5.86,
2025-08-15T02:01:55.322Z,12,GR86-057-57,-36.9,-0.263,-0.927,2.45,3.0,,0.0,0.0,124.33
2025-08-15T02:01:55.366Z,12,GR86-057-57,-34.2,-0.217,-0.954,2.42,3.0,,0.0,0.0,
2025-08-15T02:01:55.408Z,12,GR86-057-57,-32.300000000000004,-0.189,-0.975,7.38,3.0,,0.0,0.0,
2025-08-15T02:01:55.451Z,12,GR86-057-57,-29.3,-0.154,-0.97,24.06,3.0,,0.0,0.0,
2025-08-15T02:01:55.494Z,12,GR86-057-57,-28.700000000000003,-0.15,-0.975,25.17,3.0,5364.0,0.0,0.0,
2025-08-15T02:01:55.537Z,12,GR86-057-57,-29.6,-0.082,-0.97,30.96,3.0,,0.0,0.0,120.32
2025-08-15T02:01:55.581Z,12,GR86-057-57,-33.300000000000004,-0.107,-0.967,33.94,3.0,,0.0,0.0,
2025-08-15T02:01:55.666Z,12,GR86-057-57,-39.6,0.026,-0.97,33.9,3.0,,0.0,0.0,
2025-08-15T02:01:55.711Z,12,GR86-057-57,-53.2,0.1,-1.0,46.53,3.0,5272.0,0.0,0.0,
2025-08-15T02:01:55.754Z,12,GR86-057-57,-53.7,0.041,-1.025,53.31,3.0,,0.0,0.0,118.39
2025-08-15T02:01:55.797Z,12,GR86-057-57,-53.1,0.086,-1.035,52.19,3.0,,0.0,0.0,
2025-08-15T02:01:55.841Z,12,GR86-057-57,-51.900000000000006,0.118,-1.083,51.99,3.0,,0.0,0.0,
2025-08-15T02:01:55.883Z,12,GR86-057-57,-49.5,0.136,-1.117,53.89,3.0,,0.0,0.0,
2025-08-15T02:01:55.926Z,12,GR86-057-57,-46.3,0.159,-1.075,54.08,3.0,5412.0,0.0,0.0,
2025-08-15T02:01:55.972Z,12,GR86-057-57,-43.2,0.161,-1.041,53.86,3.0,,0.0,0.0,115.78
2025-08-15T02:01:56.014Z,12,GR86-057-57,-43.900000000000006,0.132,-1.033,53.74,3.0,,0.0,0.0,
2025-08-15T02:01:56.057Z,12,GR86-057-57,-45.5,0.124,-1.051,53.7,3.0,,0.0,0.0,
2025-08-15T02:01:56.101Z,12,GR86-057-57,-45.8,0.152,-1.135,55.93,3.0,,0.0,0.0,
2025-08-15T02:01:56.143Z,12,GR86-057-57,-45.6,0.143,-1.112,71.14,3.0,5387.0,0.0,0.0,
2025-08-15T02:01:56.186Z,12,GR86-057-57,-46.5,0.146,-1.101,89.12,3.0,,0.0,0.0,117.4
2025-08-15T02:01:56.230Z,12,GR86-057-57,-51.1,0.155,-1.107,71.0,3.0,,0.0,0.0,
2025-08-15T02:01:56.274Z,12,GR86-057-57,-55.0,0.156,-1.1,48.86,3.0,,0.0,0.0,
2025-08-15T02:01:56.317Z,12,GR86-057-57,-57.1,0.141,-1.143,39.74,3.0,,0.0,0.0,
2025-08-15T02:01:56.361Z,12,GR86-057-57,-57.1,0.127,-1.167,40.8,3.0,5518.0,0.0,0.0,
2025-08-15T02:01:56.404Z,12,GR86-057-57,-55.900000000000006,0.113,-1.186,43.75,3.0,,0.0,0.0,118.37
2025-08-15T02:01:56.446Z,12,GR86-057-57,-54.5,0.054,-1.257,44.39,3.0,,0.0,0.0,
2025-08-15T02:01:56.490Z,12,GR86-057-57,-53.3,0.047,-1.184,45.36,3.0,,0.0,0.0,
2025-08-15T02:01:56.534Z,12,GR86-057-57,-52.6,0.094,-1.076,45.73,3.0,,0.0,0.0,
2025-08-15T02:01:56.576Z,12,GR86-057-57,-52.1,0.143,-1.219,45.62,3.0,5613.0,0.0,0.0,
2025-08-15T02:01:56.662Z,12,GR86-057-57,-51.400000000000006,0.099,-1.248,47.82,3.0,,0.0,0.0,119.27
2025-08-15T02:01:56.706Z,12,GR86-057-57,-49.3,0.14,-1.234,46.85,3.0,,0.0,0.0,
2025-08-15T02:01:56.750Z,12,GR86-057-57,-47.3,0.122,-1.121,46.25,3.0,,0.0,0.0,
2025-08-15T02:01:56.792Z,12,GR86-057-57,-47.0,0.121,-1.088,49.41,3.0,5648.0,0.0,0.0,
2025-08-15T02:01:56.835Z,12,GR86-057-57,-46.900000000000006,0.101,-1.134,69.82000000000001,3.0,,0.0,0.0,120.18
2025-08-15T02:01:56.878Z,12,GR86-057-57,-46.8,0.128,-1.239,98.77,3.0,,0.0,0.0,
2025-08-15T02:01:56.921Z,12,GR86-057-57,-46.5,0.154,-1.181,99.91,3.0,,0.0,0.0,
2025-08-15T02:01:56.964Z,12,GR86-057-57,-46.0,0.148,-1.222,99.93,3.0,,0.0,0.0,
2025-08-15T02:01:57.007Z,12,GR86-057-57,-45.8,0.159,-1.162,99.94,3.0,5679.0,0.0,0.0,
2025-08-15T02:01:57.051Z,12,GR86-057-57,-45.8,0.152,-1.135,99.95,3.0,,0.0,0.0,120.74
2025-08-15T02:01:57.094Z,12,GR86-057-57,-46.0,0.174,-1.114,99.95,3.0,,0.0,0.0,
2025-08-15T02:01:57.137Z,12,GR86-057-57,-46.7,0.143,-1.099,99.95,3.0,,0.0,0.0,
2025-08-15T02:01:57.180Z,12,GR86-057-57,-47.2,0.156,-1.1,99.95,3.0,,0.0,0.0,
2025-08-15T02:01:57.222Z,12,GR86-057-57,-47.0,0.177,-1.107,99.94,3.0,5736.0,0.0,0.0,
2025-08-15T02:01:57.265Z,12,GR86-057-57,-46.1,0.152,-1.063,99.96,3.0,,0.0,0.0,121.26
2025-08-15T02:01:57.308Z,12,GR86-057-57,-44.6,0.139,-1.08,99.95,3.0,,0.0,0.0,
2025-08-15T02:01:57.351Z,12,GR86-057-57,-42.0,0.137,-1.124,99.95,3.0,,0.0,0.0,
2025-08-15T02:01:57.394Z,12,GR86-057-57,-40.8,0.172,-1.13,99.96,3.0,,0.0,0.0,
2025-08-15T02:01:57.437Z,12,GR86-057-57,-40.6,0.17,-1.136,99.95,3.0,5768.0,0.0,0.0,
2025-08-15T02:01:57.481Z,12,GR86-057-57,-41.0,0.159,-1.114,99.95,3.0,,0.0,0.0,122.06
2025-08-15T02:01:57.523Z,12,GR86-057-57,-41.3,0.178,-1.052,99.95,3.0,,0.0,0.0,
2025-08-15T02:01:57.610Z,12,GR86-057-57,-40.3,0.178,-1.025,99.95,3.0,,0.0,0.0,
2025-08-15T02:01:57.654Z,12,GR86-057-57,-39.2,0.172,-1.043,99.96,3.0,5772.0,0.0,0.0,
2025-08-15T02:01:57.697Z,12,GR86-057-57,-38.1,0.164,-1.022,99.96,3.0,,0.0,0.0,123.0
2025-08-15T02:01:57.741Z,12,GR86-057-57,-37.4,0.167,-1.01,99.95,3.0,,0.0,0.0,
2025-08-15T02:01:57.783Z,12,GR86-057-57,-37.1,0.159,-1.091,99.95,3.0,,0.0,0.0,
2025-08-15T02:01:57.826Z,12,GR86-057-57,-36.8,0.179,-1.09,99.95,3.0,,0.0,0.0,
2025-08-15T02:01:57.871Z,12,GR86-057-57,-36.4,0.174,-1.048,99.96,3.0,5856.0,0.0,0.0,
2025-08-15T02:01:57.914Z,12,GR86-057-57,-35.5,0.184,-1.02,99.96,3.0,,0.0,0.0,123.9
2025-08-15T02:01:57.957Z,12,GR86-057-57,-34.6,0.165,-0.993,99.96,3.0,,0.0,0.0,
2025-08-15T02:01:58.001Z,12,GR86-057-57,-34.0,0.179,-0.984,99.96,3.0,,0.0,0.0,
2025-08-15T02:01:58.043Z,12,GR86-057-57,-33.6,0.193,-0.948,99.96,3.0,,0.0,0.0,
2025-08-15T02:01:58.086Z,12,GR86-057-57,-33.6,0.183,-0.915,99.96,3.0,5873.0,0.0,0.0,
2025-08-15T02:01:58.130Z,12,GR86-057-57,-33.300000000000004,0.189,-0.904,99.96,3.0,,0.0,0.0,124.9
2025-08-15T02:01:58.172Z,12,GR86-057-57,-33.0,0.172,-0.906,99.95,3.0,,0.0,0.0,
2025-08-15T02:01:58.215Z,12,GR86-057-57,-33.0,0.167,-0.9,99.96,3.0,,0.0,0.0,
2025-08-15T02:01:58.258Z,12,GR86-057-57,-34.0,0.194,-0.893,99.95,3.0,,0.0,0.0,
2025-08-15T02:01:58.301Z,12,GR86-057-57,-35.6,0.182,-0.873,99.96,3.0,5948.0,0.0,0.0,
2025-08-15T02:01:58.344Z,12,GR86-057-57,-37.1,0.164,-0.867,99.96,3.0,,0.0,0.0,125.17
2025-08-15T02:01:58.387Z,12,GR86-057-57,-38.3,0.164,-0.855,99.96,3.0,,0.0,0.0,
2025-08-15T02:01:58.431Z,12,GR86-057-57,-38.8,0.171,-0.92,99.96,3.0,,0.0,0.0,
2025-08-15T02:01:58.474Z,12,GR86-057-57,-38.7,0.2,-0.928,99.95,3.0,,0.0,0.0,
2025-08-15T02:01:58.517Z,12,GR86-057-57,-38.1,0.182,-0.94,99.95,3.0,5990.0,0.0,0.0,
2025-08-15T02:01:58.561Z,12,GR86-057-57,-37.2,0.144,-0.947,99.96,3.0,,0.0,0.0,126.22
2025-08-15T02:01:58.604Z,12,GR86-057-57,-35.4,0.147,-0.983,99.95,3.0,,0.0,0.0,
2025-08-15T02:01:58.647Z,12,GR86-057-57,-32.800000000000004,0.177,-1.043,99.96,3.0,,0.0,0.0,
2025-08-15T02:01:58.691Z,12,GR86-057-57,-29.200000000000003,0.196,-1.051,99.95,3.0,,0.0,0.0,
2025-08-15T02:01:58.734Z,12,GR86-057-57,-27.8,0.18,-1.008,99.95,3.0,6038.0,0.0,0.0,
2025-08-15T02:01:58.776Z,12,GR86-057-57,-26.9,0.16,-0.996,99.95,3.0,,0.0,0.0,128.42000000000002
2025-08-15T02:01:58.820Z,12,GR86-057-57,-25.9,0.175,-0.989,99.96,3.0,,0.0,0.0,
2025-08-15T02:01:58.864Z,12,GR86-057-57,-24.6,0.188,-0.962,99.97,3.0,,0.0,0.0,
2025-08-15T02:01:58.908Z,12,GR86-057-57,-23.6,0.181,-0.909,99.95,3.0,,0.0,0.0,
2025-08-15T02:01:58.951Z,12,GR86-057-57,-23.200000000000003,0.203,-0.8130000000000001,99.96,3.0,6061.0,0.0,0.0,
2025-08-15T02:01:58.994Z,12,GR86-057-57,-23.200000000000003,0.18,-0.759,99.96,3.0,,0.0,0.0,129.53
2025-08-15T02:01:59.037Z,12,GR86-057-57,-23.1,0.117,-0.613,99.96,3.0,,0.0,0.0,
2025-08-15T02:01:59.081Z,12,GR86-057-57,-22.9,0.153,-0.76,99.96,3.0,,0.0,0.0,
2025-08-15T02:01:59.123Z,12,GR86-057-57,-22.8,0.223,-0.724,99.98,3.0,,0.0,0.0,
2025-08-15T02:01:59.168Z,12,GR86-057-57,-22.8,0.173,-0.637,99.96,3.0,6110.0,0.0,0.0,
2025-08-15T02:01:59.211Z,12,GR86-057-57,-21.9,0.114,-0.642,99.96,3.0,,0.0,0.0,130.66
2025-08-15T02:01:59.254Z,12,GR86-057-57,-20.200000000000003,0.197,-0.525,99.95,3.0,,0.0,0.0,
2025-08-15T02:01:59.297Z,12,GR86-057-57,-18.5,0.242,-0.586,99.96,3.0,,0.0,0.0,
2025-08-15T02:01:59.341Z,12,GR86-057-57,-17.8,0.18,-0.437,99.98,3.0,,0.0,0.0,
2025-08-15T02:01:59.383Z,12,GR86-057-57,-17.1,0.14,-0.497,99.96,3.0,6226.0,0.0,0.0,
2025-08-15T02:01:59.426Z,12,GR86-057-57,-15.7,0.14,-0.613,99.96,3.0,,0.0,0.0,131.95
2025-08-15T02:01:59.471Z,12,GR86-057-57,-13.5,0.141,-0.516,99.97,3.0,,0.0,0.0,
2025-08-15T02:01:59.514Z,12,GR86-057-57,-12.3,0.203,-0.495,99.99,3.0,,0.0,0.0,
2025-08-15T02:01:59.557Z,12,GR86-057-57,-11.9,0.181,-0.482,99.99,3.0,,0.0,0.0,
2025-08-15T02:01:59.601Z,12,GR86-057-57,-11.4,0.206,-0.396,99.98,3.0,6314.0,0.0,0.0,
2025-08-15T02:01:59.644Z,12,GR86-057-57,-11.8,0.184,-0.252,99.98,3.0,,0.0,0.0,133.13
2025-08-15T02:01:59.686Z,12,GR86-057-57,-12.0,0.174,-0.351,99.97,3.0,,0.0,0.0,
2025-08-15T02:01:59.730Z,12,GR86-057-57,-11.4,0.2,-0.368,99.98,3.0,,0.0,0.0,
2025-08-15T02:01:59.772Z,12,GR86-057-57,-9.7,0.274,-0.374,99.97,3.0,,0.0,0.0,
2025-08-15T02:01:59.815Z,12,GR86-057-57,-7.9,0.255,-0.444,99.98,3.0,6380.0,0.0,0.0,
2025-08-15T02:01:59.858Z,12,GR86-057-57,-6.7,0.155,-0.27,99.99,3.0,,0.0,0.0,134.48
2025-08-15T02:01:59.901Z,12,GR86-057-57,-5.9,0.19,-0.309,99.97,3.0,,0.0,0.0,
2025-08-15T02:01:59.944Z,12,GR86-057-57,-4.7,0.218,-0.314,99.98,3.0,,0.0,0.0,
2025-08-15T02:01:59.987Z,12,GR86-057-57,-4.1000000000000005,0.187,-0.279,99.98,3.0,,0.0,0.0,
2025-08-15T02:02:00.031Z,12,GR86-057-57,-3.6,0.14,-0.152,99.99,3.0,6447.0,0.0,0.0,
2025-08-15T02:02:00.074Z,12,GR86-057-57,-3.1,0.176,-0.167,99.99,3.0,,0.0,0.0,135.62
2025-08-15T02:02:00.117Z,12,GR86-057-57,-2.3000000000000003,0.188,-0.089,99.98,3.0,,0.0,0.0,
2025-08-15T02:02:00.161Z,12,GR86-057-57,-1.7000000000000002,0.155,-0.04,99.98,3.0,,0.0,0.0,
2025-08-15T02:02:00.204Z,12,GR86-057-57,-1.0,0.124,-0.041,99.99,3.0,,0.0,0.0,
2025-08-15T02:02:00.246Z,12,GR86-057-57,-0.1,0.17,-0.012,99.98,3.0,6483.0,0.0,0.0,
2025-08-15T02:02:00.290Z,12,GR86-057-57,0.8,0.221,-0.039,99.99,3.0,,0.0,0.0,137.05
2025-08-15T02:02:00.334Z,12,GR86-057-57,0.9,0.245,0.047,99.98,3.0,,0.0,0.0,
2025-08-15T02:02:00.376Z,12,GR86-057-57,0.9,0.203,0.077,99.98,3.0,,0.0,0.0,
2025-08-15T02:02:00.420Z,12,GR86-057-57,0.8,0.173,0.068,99.98,3.0,,0.0,0.0,
2025-08-15T02:02:00.462Z,12,GR86-057-57,0.7000000000000001,0.204,0.081,99.99,3.0,6493.0,0.0,0.0,
2025-08-15T02:02:00.506Z,12,GR86-057-57,0.6000000000000001,0.186,0.114,99.99,3.0,,0.0,0.0,138.29
2025-08-15T02:02:00.548Z,12,GR86-057-57,0.6000000000000001,0.189,0.151,99.98,3.0,,0.0,0.0,
2025-08-15T02:02:00.591Z,12,GR86-057-57,0.7000000000000001,0.189,0.101,99.98,3.0,,0.0,0.0,
2025-08-15T02:02:00.634Z,12,GR86-057-57,0.7000000000000001,0.177,0.112,99.98,3.0,,0.0,0.0,
2025-08-15T02:02:00.677Z,12,GR86-057-57,0.7000000000000001,0.199,0.075,99.99,3.0,6545.0,0.0,0.0,
2025-08-15T02:02:00.721Z,12,GR86-057-57,0.8,0.206,0.077,99.98,3.0,,0.0,0.0,139.77
2025-08-15T02:02:00.763Z,12,GR86-057-57,0.8,0.169,0.065,99.98,3.0,,0.0,0.0,
2025-08-15T02:02:00.806Z,12,GR86-057-57,0.7000000000000001,0.17,0.082,99.99,3.0,,0.0,0.0,
2025-08-15T02:02:00.850Z,12,GR86-057-57,1.2000000000000002,0.202,0.048,99.98,3.0,,0.0,0.0,
2025-08-15T02:02:00.935Z,12,GR86-057-57,1.9,0.182,0.07,99.98,3.0,6610.0,0.0,0.0,141.20000000000002
2025-08-15T02:02:00.978Z,12,GR86-057-57,2.4000000000000004,0.198,0.061,99.98,3.0,,0.0,0.0,
2025-08-15T02:02:01.021Z,12,GR86-057-57,2.4000000000000004,0.182,0.095,99.98,3.0,,0.0,0.0,
2025-08-15T02:02:01.064Z,12,GR86-057-57,2.4000000000000004,0.178,0.096,99.98,3.0,,0.0,0.0,
2025-08-15T02:02:01.108Z,12,GR86-057-57,2.4000000000000004,0.186,0.1,99.98,3.0,6711.0,0.0,0.0,
2025-08-15T02:02:01.151Z,12,GR86-057-57,2.4000000000000004,0.172,0.107,99.98,3.0,,0.0,0.0,142.73
2025-08-15T02:02:01.194Z,12,GR86-057-57,2.4000000000000004,0.161,0.114,99.98,3.0,,0.0,0.0,
2025-08-15T02:02:01.237Z,12,GR86-057-57,2.4000000000000004,0.176,0.125,99.99,3.0,,0.0,0.0,
2025-08-15T02:02:01.281Z,12,GR86-057-57,2.4000000000000004,0.204,0.131,99.98,3.0,,0.0,0.0,
2025-08-15T02:02:01.324Z,12,GR86-057-57,2.4000000000000004,0.217,0.107,99.98,3.0,6731.0,0.0,0.0,
2025-08-15T02:02:01.366Z,12,GR86-057-57,2.4000000000000004,0.17,0.131,99.99,3.0,,0.0,0.0,144.25
2025-08-15T02:02:01.411Z,12,GR86-057-57,2.4000000000000004,0.176,0.136,99.97,3.0,,0.0,0.0,
2025-08-15T02:02:01.454Z,12,GR86-057-57,2.4000000000000004,0.16,0.133,99.98,3.0,,0.0,0.0,
2025-08-15T02:02:01.497Z,12,GR86-057-57,2.4000000000000004,0.17,0.14,99.99,3.0,,0.0,0.0,
2025-08-15T02:02:01.541Z,12,GR86-057-57,2.4000000000000004,0.145,0.124,99.99,3.0,6798.0,0.0,0.0,
2025-08-15T02:02:01.583Z,12,GR86-057-57,2.4000000000000004,-0.106,0.144,99.99,4.0,,0.0,0.0,147.27
2025-08-15T02:02:01.626Z,12,GR86-057-57,2.4000000000000004,0.537,0.157,99.98,4.0,,0.0,0.0,
2025-08-15T02:02:01.672Z,12,GR86-057-57,2.3000000000000003,0.127,0.054,99.99,4.0,,0.0,0.0,
2025-08-15T02:02:01.714Z,12,GR86-057-57,1.6,0.055,0.185,99.98,4.0,,0.0,0.0,
2025-08-15T02:02:01.757Z,12,GR86-057-57,1.3,0.141,0.121,99.98,4.0,6905.0,0.0,0.0,
2025-08-15T02:02:01.801Z,12,GR86-057-57,1.3,0.185,0.063,99.98,4.0,,0.0,0.0,148.82
2025-08-15T02:02:01.843Z,12,GR86-057-57,1.3,0.141,0.147,99.98,4.0,,0.0,0.0,
2025-08-15T02:02:01.886Z,12,GR86-057-57,1.0,0.106,0.087,99.98,4.0,,0.0,0.0,
2025-08-15T02:02:01.930Z,12,GR86-057-57,0.3,0.12,0.106,99.98,4.0,,0.0,0.0,
2025-08-15T02:02:01.972Z,12,GR86-057-57,0.0,0.147,0.103,100.0,4.0,5967.0,0.0,0.0,
2025-08-15T02:02:02.015Z,12,GR86-057-57,0.0,0.149,0.078,99.98,4.0,,0.0,0.0,150.23
2025-08-15T02:02:02.058Z,12,GR86-057-57,0.0,0.174,0.072,99.99,4.0,,0.0,0.0,
2025-08-15T02:02:02.101Z,12,GR86-057-57,0.0,0.16,0.046,99.98,4.0,,0.0,0.0,
2025-08-15T02:02:02.144Z,12,GR86-057-57,-0.3,0.141,0.05,99.99,4.0,,0.0,0.0,
2025-08-15T02:02:02.187Z,12,GR86-057-57,-0.8,0.117,0.038,100.01,4.0,5986.0,0.0,0.0,
2025-08-15T02:02:02.231Z,12,GR86-057-57,-1.1,0.175,0.052,99.98,4.0,,0.0,0.0,151.65
2025-08-15T02:02:02.274Z,12,GR86-057-57,-1.1,0.151,0.023,99.99,4.0,,0.0,0.0,
2025-08-15T02:02:02.317Z,12,GR86-057-57,-1.1,0.11,0.002,99.97,4.0,,0.0,0.0,
2025-08-15T02:02:02.361Z,12,GR86-057-57,-1.1,0.106,0.004,99.98,4.0,,0.0,0.0,
2025-08-15T02:02:02.404Z,12,GR86-057-57,-1.1,0.123,-0.012,99.98,4.0,6026.0,0.0,0.0,
2025-08-15T02:02:02.446Z,12,GR86-057-57,-1.1,0.15,-0.001,99.98,4.0,,0.0,0.0,153.11
2025-08-15T02:02:02.490Z,12,GR86-057-57,-1.7000000000000002,0.119,-0.029,99.99,4.0,,0.0,0.0,
2025-08-15T02:02:02.532Z,12,GR86-057-57,-2.4000000000000004,0.12,-0.019,99.99,4.0,,0.0,0.0,
2025-08-15T02:02:02.575Z,12,GR86-057-57,-2.8000000000000003,0.132,-0.03,99.99,4.0,,0.0,0.0,
2025-08-15T02:02:02.618Z,12,GR86-057-57,-2.9000000000000004,0.148,-0.04,99.99,4.0,6070.0,0.0,0.0,
2025-08-15T02:02:02.661Z,12,GR86-057-57,-3.5,0.166,-0.044,99.98,4.0,,0.0,0.0,154.64
2025-08-15T02:02:02.704Z,12,GR86-057-57,-4.4,0.147,-0.075,99.98,4.0,,0.0,0.0,
2025-08-15T02:02:02.748Z,12,GR86-057-57,-4.9,0.103,-0.095,99.97,4.0,,0.0,0.0,
2025-08-15T02:02:02.791Z,12,GR86-057-57,-5.0,0.153,-0.124,100.0,4.0,,0.0,0.0,
2025-08-15T02:02:02.834Z,12,GR86-057-57,-5.300000000000001,0.145,-0.144,99.99,4.0,6156.0,0.0,0.0,
2025-08-15T02:02:02.877Z,12,GR86-057-57,-5.800000000000001,0.111,-0.143,99.98,4.0,,0.0,0.0,156.11
2025-08-15T02:02:02.921Z,12,GR86-057-57,-6.2,0.092,-0.144,99.97,4.0,,0.0,0.0,
2025-08-15T02:02:02.963Z,12,GR86-057-57,-6.300000000000001,0.112,-0.17,99.98,4.0,,0.0,0.0,
2025-08-15T02:02:03.006Z,12,GR86-057-57,-6.2,0.138,-0.206,99.97,4.0,,0.0,0.0,
2025-08-15T02:02:03.050Z,12,GR86-057-57,-6.2,0.096,-0.228,99.98,4.0,6217.0,0.0,0.0,
2025-08-15T02:02:03.092Z,12,GR86-057-57,-6.2,0.107,-0.225,99.99,4.0,,0.0,0.0,157.6
2025-08-15T02:02:03.135Z,12,GR86-057-57,-6.2,0.115,-0.225,99.98,4.0,,0.0,0.0,
2025-08-15T02:02:03.178Z,12,GR86-057-57,-6.2,0.137,-0.215,99.99,4.0,,0.0,0.0,
2025-08-15T02:02:03.221Z,12,GR86-057-57,-6.5,0.124,-0.215,100.0,4.0,,0.0,0.0,
2025-08-15T02:02:03.264Z,12,GR86-057-57,-6.7,0.136,-0.2,99.98,4.0,6262.0,0.0,0.0,
2025-08-15T02:02:03.307Z,12,GR86-057-57,-6.7,0.15,-0.224,99.98,4.0,,0.0,0.0,158.92000000000002
2025-08-15T02:02:03.351Z,12,GR86-057-57,-6.7,0.129,-0.215,99.99,4.0,,0.0,0.0,
2025-08-15T02:02:03.436Z,12,GR86-057-57,-6.800000000000001,0.141,-0.249,99.99,4.0,,0.0,0.0,
2025-08-15T02:02:03.480Z,12,GR86-057-57,-7.0,0.145,-0.242,99.98,4.0,6289.0,0.0,0.0,
2025-08-15T02:02:03.522Z,12,GR86-057-57,-7.6,0.137,-0.24,99.99,4.0,,0.0,0.0,160.53
2025-08-15T02:02:03.566Z,12,GR86-057-57,-8.5,0.121,-0.243,99.99,4.0,,0.0,0.0,
2025-08-15T02:02:03.610Z,12,GR86-057-57,-9.6,0.133,-0.274,99.98,4.0,,0.0,0.0,
2025-08-15T02:02:03.698Z,12,GR86-057-57,-10.3,0.134,-0.307,99.98,4.0,6366.0,0.0,0.0,
2025-08-15T02:02:03.784Z,12,GR86-057-57,-10.2,0.145,-0.287,99.98,4.0,,0.0,0.0,161.86
2025-08-15T02:02:03.827Z,12,GR86-057-57,-9.7,0.121,-0.331,100.0,4.0,,0.0,0.0,
2025-08-15T02:02:03.871Z,12,GR86-057-57,-8.8,0.142,-0.372,99.98,4.0,,0.0,0.0,
2025-08-15T02:02:03.914Z,12,GR86-057-57,-8.4,0.124,-0.367,99.98,4.0,6432.0,0.0,0.0,
2025-08-15T02:02:03.957Z,12,GR86-057-57,-8.4,0.13,-0.355,99.98,4.0,,0.0,0.0,163.32
2025-08-15T02:02:04.001Z,12,GR86-057-57,-8.6,0.121,-0.336,100.0,4.0,,0.0,0.0,
2025-08-15T02:02:04.044Z,12,GR86-057-57,-9.1,0.121,-0.32,100.0,4.0,,0.0,0.0,
2025-08-15T02:02:04.086Z,12,GR86-057-57,-9.3,0.124,-0.308,99.98,4.0,,0.0,0.0,
2025-08-15T02:02:04.130Z,12,GR86-057-57,-9.3,0.122,-0.32,99.99,4.0,6445.0,0.0,0.0,
2025-08-15T02:02:04.172Z,12,GR86-057-57,-9.3,0.118,-0.306,99.98,4.0,,0.0,0.0,166.1
2025-08-15T02:02:04.215Z,12,GR86-057-57,-9.2,0.111,-0.317,99.99,4.0,,0.0,0.0,
2025-08-15T02:02:04.260Z,12,GR86-057-57,-8.8,0.123,-0.331,99.98,4.0,,0.0,0.0,
2025-08-15T02:02:04.304Z,12,GR86-057-57,-8.4,0.121,-0.344,99.98,4.0,,0.0,0.0,
2025-08-15T02:02:04.347Z,12,GR86-057-57,-7.9,0.117,-0.345,99.98,4.0,6492.0,0.0,0.0,
2025-08-15T02:02:04.391Z,12,GR86-057-57,-7.2,0.124,-0.342,99.98,4.0,,0.0,0.0,167.31
2025-08-15T02:02:04.434Z,12,GR86-057-57,-7.1000000000000005,0.117,-0.333,99.98,4.0,,0.0,0.0,
2025-08-15T02:02:04.476Z,12,GR86-057-57,-7.0,0.122,-0.31,99.98,4.0,,0.0,0.0,
2025-08-15T02:02:04.521Z,12,GR86-057-57,-7.0,0.112,-0.289,99.98,4.0,,0.0,0.0,
2025-08-15T02:02:04.564Z,12,GR86-057-57,-6.800000000000001,0.104,-0.285,99.98,4.0,6548.0,0.0,0.0,
2025-08-15T02:02:04.607Z,12,GR86-057-57,-6.4,0.1,-0.263,99.99,4.0,,0.0,0.0,168.58
2025-08-15T02:02:04.651Z,12,GR86-057-57,-5.5,0.13,-0.241,99.99,4.0,,0.0,0.0,
2025-08-15T02:02:04.693Z,12,GR86-057-57,-5.0,0.119,-0.217,99.98,4.0,,0.0,0.0,
2025-08-15T02:02:04.737Z,12,GR86-057-57,-4.9,0.116,-0.186,99.98,4.0,,0.0,0.0,
2025-08-15T02:02:04.780Z,12,GR86-057-57,-5.2,0.112,-0.176,99.98,4.0,6640.0,0.0,0.0,
2025-08-15T02:02:04.822Z,12,GR86-057-57,-5.4,0.113,-0.171,99.98,4.0,,0.0,0.0,169.95000000000002
2025-08-15T02:02:04.865Z,12,GR86-057-57,-5.4,0.101,-0.172,99.98,4.0,,0.0,0.0,
2025-08-15T02:02:04.908Z,12,GR86-057-57,-5.4,0.104,-0.169,99.98,4.0,,0.0,0.0,
2025-08-15T02:02:04.951Z,12,GR86-057-57,-5.1000000000000005,0.12,-0.175,99.98,4.0,,0.0,0.0,
2025-08-15T02:02:04.994Z,12,GR86-057-57,-4.3,0.127,-0.179,99.98,4.0,6744.0,0.0,0.0,
2025-08-15T02:02:05.037Z,12,GR86-057-57,-3.4000000000000004,0.117,-0.168,99.03,4.0,,0.0,0.0,171.18
2025-08-15T02:02:05.081Z,12,GR86-057-57,-3.1,0.11,-0.166,45.06,4.0,,0.0,0.0,
2025-08-15T02:02:05.123Z,12,GR86-057-57,-2.7,0.11,-0.15,5.42,4.0,,0.0,0.0,
2025-08-15T02:02:05.167Z,12,GR86-057-57,-2.6,0.071,-0.144,4.39,4.0,,0.0,0.0,
2025-08-15T02:02:05.211Z,12,GR86-057-57,-2.9000000000000004,-0.111,-0.093,3.72,4.0,6747.0,24.37,24.675,
2025-08-15T02:02:05.254Z,12,GR86-057-57,-2.9000000000000004,-0.55,-0.089,3.44,4.0,,46.175,45.9,172.51
2025-08-15T02:02:05.297Z,12,GR86-057-57,-3.0,-0.934,-0.069,3.21,4.0,,59.24,58.370000000000005,
2025-08-15T02:02:05.341Z,12,GR86-057-57,-3.0,-1.083,-0.048,3.08,4.0,,68.365,67.495,
2025-08-15T02:02:05.383Z,12,GR86-057-57,-2.3000000000000003,-1.111,-0.064,2.99,4.0,,74.65,73.63,
2025-08-15T02:02:05.426Z,12,GR86-057-57,-1.2000000000000002,-1.365,-0.105,2.93,4.0,6697.0,78.635,77.645,
2025-08-15T02:02:05.471Z,12,GR86-057-57,-0.1,-1.405,-0.143,2.81,4.0,,81.365,82.77,173.75
2025-08-15T02:02:05.514Z,12,GR86-057-57,0.7000000000000001,-1.343,-0.187,2.74,4.0,,75.935,76.745,
2025-08-15T02:02:05.557Z,12,GR86-057-57,2.2,-1.414,-0.157,2.65,4.0,,69.02,69.905,
2025-08-15T02:02:05.601Z,12,GR86-057-57,4.1000000000000005,-1.165,-0.184,2.57,4.0,,66.245,66.855,
2025-08-15T02:02:05.644Z,12,GR86-057-57,6.6000000000000005,-1.181,-0.249,2.54,4.0,6386.0,63.145,62.965,
2025-08-15T02:02:05.686Z,12,GR86-057-57,9.3,-1.393,-0.24,2.52,4.0,,60.46,61.145,171.85
2025-08-15T02:02:05.730Z,12,GR86-057-57,12.4,-1.139,-0.112,2.48,4.0,,53.09,54.555,
2025-08-15T02:02:05.772Z,12,GR86-057-57,12.5,-1.145,-0.11,2.45,4.0,,49.61,50.465,
2025-08-15T02:02:05.815Z,12,GR86-057-57,11.2,-1.132,-0.113,2.45,4.0,,47.49,48.265,
2025-08-15T02:02:05.860Z,12,GR86-057-57,9.0,-1.093,-0.081,2.45,4.0,5861.0,46.65,47.52,
2025-08-15T02:02:05.902Z,12,GR86-057-57,6.4,-1.183,-0.034,2.45,4.0,,46.865,47.61,161.3
2025-08-15T02:02:05.945Z,12,GR86-057-57,4.1000000000000005,-1.066,0.02,2.45,4.0,,47.215,47.64,
2025-08-15T02:02:05.988Z,12,GR86-057-57,2.2,-1.064,0.059,19.42,4.0,,47.46,47.870000000000005,
2025-08-15T02:02:06.031Z,12,GR86-057-57,-1.4,-1.07,0.089,74.27,3.0,,47.55,48.145,
2025-08-15T02:02:06.074Z,12,GR86-057-57,-3.9,-1.203,0.057,16.56,3.0,5714.0,46.865,47.93,
2025-08-15T02:02:06.117Z,12,GR86-057-57,-7.2,-1.073,0.06,3.89,3.0,,45.245,46.375,155.38
2025-08-15T02:02:06.161Z,12,GR86-057-57,-9.2,-1.087,0.019,3.56,3.0,,42.025,43.2,
2025-08-15T02:02:06.204Z,12,GR86-057-57,-10.3,-1.082,0.001,3.29,3.0,,36.335,36.7,
2025-08-15T02:02:06.246Z,12,GR86-057-57,-12.3,-1.097,0.036,3.15,3.0,,31.955,32.9,
2025-08-15T02:02:06.290Z,12,GR86-057-57,-13.5,-0.6900000000000001,-0.175,3.0,3.0,5482.0,23.3,24.08,
2025-08-15T02:02:06.376Z,12,GR86-057-57,-13.7,-0.707,-0.251,2.83,3.0,,20.235,20.555,147.49
2025-08-15T02:02:06.420Z,12,GR86-057-57,-12.8,-0.626,-0.346,2.74,3.0,,20.205,20.815,
2025-08-15T02:02:06.462Z,12,GR86-057-57,-10.2,-0.59,-0.344,2.65,3.0,,20.05,20.875,
2025-08-15T02:02:06.506Z,12,GR86-057-57,-8.3,-0.588,-0.386,2.59,3.0,5642.0,19.99,20.51,
2025-08-15T02:02:06.548Z,12,GR86-057-57,-8.1,-0.656,-0.414,2.5500000000000003,3.0,,20.295,20.875,140.12
2025-08-15T02:02:06.591Z,12,GR86-057-57,-9.9,-0.627,-0.417,2.52,3.0,,20.965,21.47,
2025-08-15T02:02:06.634Z,12,GR86-057-57,-10.8,-0.638,-0.465,11.65,3.0,,21.38,22.28,
2025-08-15T02:02:06.677Z,12,GR86-057-57,-11.3,-0.632,-0.475,55.27,3.0,,21.21,21.9,
2025-08-15T02:02:06.721Z,12,GR86-057-57,-12.3,-0.643,-0.487,97.51,3.0,5952.0,21.03,21.595,
2025-08-15T02:02:06.763Z,12,GR86-057-57,-14.7,-0.628,-0.477,99.93,3.0,,21.0,21.805,133.94
2025-08-15T02:02:06.806Z,12,GR86-057-57,-18.0,-0.551,-0.533,89.63,2.0,,20.66,21.24,
2025-08-15T02:02:06.850Z,12,GR86-057-57,-22.5,-0.874,-0.504,3.96,2.0,,21.0,21.41,
2025-08-15T02:02:06.892Z,12,GR86-057-57,-23.1,-0.835,-0.532,2.99,2.0,,21.0,21.44,
2025-08-15T02:02:06.935Z,12,GR86-057-57,-22.1,-0.529,-0.638,2.9,2.0,5805.0,18.465,19.18,
2025-08-15T02:02:06.978Z,12,GR86-057-57,-22.4,-0.502,-0.668,2.8000000000000003,2.0,,15.625,16.085,126.06
2025-08-15T02:02:07.021Z,12,GR86-057-57,-24.4,-0.492,-0.6950000000000001,2.76,2.0,,14.24,14.755,
2025-08-15T02:02:07.064Z,12,GR86-057-57,-26.1,-0.5710000000000001,-0.732,2.69,2.0,,13.995,14.575,
2025-08-15T02:02:07.107Z,12,GR86-057-57,-27.0,-0.546,-0.742,2.65,2.0,,14.48,14.85,
2025-08-15T02:02:07.151Z,12,GR86-057-57,-28.6,-0.527,-0.8290000000000001,2.57,2.0,5760.0,15.395,15.655,
2025-08-15T02:02:07.193Z,12,GR86-057-57,-31.4,-0.526,-0.841,2.54,2.0,,16.085,16.68,121.75
2025-08-15T02:02:07.236Z,12,GR86-057-57,-34.300000000000004,-0.511,-0.846,2.51,2.0,,16.405,17.0,
2025-08-15T02:02:07.280Z,12,GR86-057-57,-35.6,-0.547,-0.879,2.49,2.0,,16.435,17.03,
2025-08-15T02:02:07.322Z,12,GR86-057-57,-33.7,-0.529,-0.923,2.49,2.0,,16.435,17.0,
2025-08-15T02:02:07.365Z,12,GR86-057-57,-30.6,-0.52,-0.914,2.48,2.0,6678.0,15.78,16.28,
2025-08-15T02:02:07.408Z,12,GR86-057-57,-30.0,-0.502,-0.953,2.47,2.0,,14.055,14.785,119.34
2025-08-15T02:02:07.451Z,12,GR86-057-57,-36.7,-0.487,-1.009,2.48,2.0,,9.935,10.53,
2025-08-15T02:02:07.494Z,12,GR86-057-57,-41.5,-0.452,-1.038,2.48,2.0,,8.545,9.065,
2025-08-15T02:02:07.537Z,12,GR86-057-57,-42.7,-0.391,-1.044,2.45,2.0,,8.33,8.91,
2025-08-15T02:02:07.581Z,12,GR86-057-57,-41.6,-0.37,-1.121,2.48,2.0,6252.0,6.96,7.325,
2025-08-15T02:02:07.624Z,12,GR86-057-57,-40.2,-0.372,-1.139,2.47,2.0,,3.725,4.21,116.0
2025-08-15T02:02:07.666Z,12,GR86-057-57,-40.1,-0.269,-1.131,2.47,2.0,,0.0,0.0,
2025-08-15T02:02:07.711Z,12,GR86-057-57,-42.2,-0.215,-1.117,2.45,2.0,,0.0,0.0,
2025-08-15T02:02:07.754Z,12,GR86-057-57,-43.5,-0.215,-1.157,2.47,2.0,,0.0,0.0,
2025-08-15T02:02:07.797Z,12,GR86-057-57,-43.7,-0.183,-1.137,2.47,2.0,6140.0,0.0,0.0,
2025-08-15T02:02:07.841Z,12,GR86-057-57,-44.2,-0.197,-1.146,2.48,2.0,,0.0,0.0,113.18
2025-08-15T02:02:07.883Z,12,GR86-057-57,-45.7,-0.227,-1.165,2.47,2.0,,0.0,0.0,
2025-08-15T02:02:07.926Z,12,GR86-057-57,-48.5,-0.201,-1.138,2.45,2.0,,0.0,0.0,
2025-08-15T02:02:07.972Z,12,GR86-057-57,-54.5,-0.198,-1.119,2.48,2.0,,0.0,0.0,
2025-08-15T02:02:08.014Z,12,GR86-057-57,-57.1,-0.227,-1.139,2.47,2.0,6115.0,0.0,0.0,
2025-08-15T02:02:08.057Z,12,GR86-057-57,-58.3,-0.194,-1.142,2.45,2.0,,0.0,0.0,110.99
2025-08-15T02:02:08.101Z,12,GR86-057-57,-58.5,-0.229,-1.196,2.48,2.0,,0.0,0.0,
2025-08-15T02:02:08.143Z,12,GR86-057-57,-58.5,-0.199,-1.197,2.49,2.0,,0.0,0.0,
2025-08-15T02:02:08.230Z,12,GR86-057-57,-58.5,-0.235,-1.237,2.49,2.0,6042.0,0.0,0.0,
2025-08-15T02:02:08.274Z,12,GR86-057-57,-57.7,-0.212,-1.276,2.96,2.0,,0.0,0.0,109.39
2025-08-15T02:02:08.317Z,12,GR86-057-57,-56.8,-0.209,-1.263,3.9,2.0,,0.0,0.0,
2025-08-15T02:02:08.361Z,12,GR86-057-57,-55.7,-0.222,-1.29,8.03,2.0,,0.0,0.0,
2025-08-15T02:02:08.404Z,12,GR86-057-57,-55.3,-0.196,-1.213,24.94,2.0,,0.0,0.0,
2025-08-15T02:02:08.446Z,12,GR86-057-57,-55.7,-0.202,-1.246,28.69,2.0,5947.0,0.0,0.0,
2025-08-15T02:02:08.490Z,12,GR86-057-57,-57.2,-0.161,-1.256,30.77,2.0,,0.0,0.0,108.04
2025-08-15T02:02:08.534Z,12,GR86-057-57,-58.3,-0.094,-1.221,31.86,2.0,,0.0,0.0,
2025-08-15T02:02:08.576Z,12,GR86-057-57,-60.0,-0.098,-1.246,31.99,2.0,,0.0,0.0,
2025-08-15T02:02:08.620Z,12,GR86-057-57,-62.3,0.222,-1.203,31.8,2.0,,0.0,0.0,
2025-08-15T02:02:08.662Z,12,GR86-057-57,-63.0,0.22,-1.197,31.38,2.0,5871.0,0.0,0.0,
2025-08-15T02:02:08.706Z,12,GR86-057-57,-63.2,0.193,-1.164,30.76,2.0,,0.0,0.0,106.92
2025-08-15T02:02:08.748Z,12,GR86-057-57,-63.1,0.097,-1.128,31.0,2.0,,0.0,0.0,
2025-08-15T02:02:08.791Z,12,GR86-057-57,-64.2,0.024,-1.141,32.22,2.0,,0.0,0.0,
2025-08-15T02:02:08.834Z,12,GR86-057-57,-65.60000000000001,0.077,-1.176,33.67,2.0,,0.0,0.0,
2025-08-15T02:02:08.877Z,12,GR86-057-57,-67.2,0.093,-1.147,34.08,2.0,6095.0,0.0,0.0,
2025-08-15T02:02:08.921Z,12,GR86-057-57,-69.5,0.132,-1.094,33.88,2.0,,0.0,0.0,105.34
2025-08-15T02:02:08.964Z,12,GR86-057-57,-70.7,0.126,-1.054,32.54,2.0,,0.0,0.0,
2025-08-15T02:02:09.007Z,12,GR86-057-57,-71.8,0.102,-1.066,29.34,2.0,,0.0,0.0,
2025-08-15T02:02:09.051Z,12,GR86-057-57,-72.8,0.087,-1.068,23.51,2.0,,0.0,0.0,
2025-08-15T02:02:09.094Z,12,GR86-057-57,-72.60000000000001,0.09,-1.108,18.12,2.0,5969.0,0.0,0.0,
2025-08-15T02:02:09.136Z,12,GR86-057-57,-72.2,0.05,-1.098,5.66,2.0,,0.0,0.0,104.5
2025-08-15T02:02:09.180Z,12,GR86-057-57,-72.10000000000001,0.017,-1.094,4.58,2.0,,0.0,0.0,
2025-08-15T02:02:09.222Z,12,GR86-057-57,-71.4,-0.056,-1.083,4.04,2.0,,0.0,0.0,
2025-08-15T02:02:09.266Z,12,GR86-057-57,-71.2,-0.129,-1.151,3.66,2.0,,0.0,0.0,
2025-08-15T02:02:09.308Z,12,GR86-057-57,-70.8,-0.117,-1.14,3.37,2.0,6064.0,0.0,0.0,
2025-08-15T02:02:09.351Z,12,GR86-057-57,-68.10000000000001,-0.365,-1.273,5.0,2.0,,0.0,0.0,104.88
2025-08-15T02:02:09.394Z,12,GR86-057-57,-64.10000000000001,-0.266,-1.206,24.93,2.0,,0.0,0.0,
2025-08-15T02:02:09.437Z,12,GR86-057-57,-59.400000000000006,-0.184,-1.197,32.93,2.0,,0.0,0.0,
2025-08-15T02:02:09.481Z,12,GR86-057-57,-56.400000000000006,-0.134,-1.189,37.58,2.0,,0.0,0.0,
2025-08-15T02:02:09.523Z,12,GR86-057-57,-55.8,-0.094,-1.145,37.75,2.0,6022.0,0.0,0.0,
2025-08-15T02:02:09.566Z,12,GR86-057-57,-54.900000000000006,-0.064,-1.116,38.11,2.0,,0.0,0.0,105.47
2025-08-15T02:02:09.610Z,12,GR86-057-57,-53.3,0.252,-1.15,39.49,2.0,,0.0,0.0,
2025-08-15T02:02:09.652Z,12,GR86-057-57,-53.3,0.213,-1.148,46.34,2.0,,0.0,0.0,
2025-08-15T02:02:09.695Z,12,GR86-057-57,-54.5,0.181,-1.187,48.05,2.0,,0.0,0.0,
2025-08-15T02:02:09.738Z,12,GR86-057-57,-57.0,0.174,-1.221,48.7,2.0,5710.0,0.0,0.0,
2025-08-15T02:02:09.781Z,12,GR86-057-57,-58.8,0.162,-1.177,56.03,2.0,,0.0,0.0,104.72
2025-08-15T02:02:09.824Z,12,GR86-057-57,-59.5,0.178,-1.16,57.76,2.0,,0.0,0.0,
2025-08-15T02:02:09.867Z,12,GR86-057-57,-59.5,0.189,-1.123,57.73,2.0,,0.0,0.0,
2025-08-15T02:02:09.911Z,12,GR86-057-57,-59.3,0.222,-1.157,57.21,2.0,,0.0,0.0,
2025-08-15T02:02:09.955Z,12,GR86-057-57,-59.3,0.213,-1.203,57.03,2.0,6207.0,0.0,0.0,
2025-08-15T02:02:09.997Z,12,GR86-057-57,-59.3,0.231,-1.206,57.43,2.0,,0.0,0.0,103.99
2025-08-15T02:02:10.041Z,12,GR86-057-57,-58.5,0.216,-1.292,60.120000000000005,2.0,,0.0,0.0,
2025-08-15T02:02:10.083Z,12,GR86-057-57,-56.6,0.208,-1.231,64.91,2.0,,0.0,0.0,
2025-08-15T02:02:10.126Z,12,GR86-057-57,-53.2,0.224,-1.254,71.94,2.0,,0.0,0.0,
2025-08-15T02:02:10.171Z,12,GR86-057-57,-48.1,0.256,-1.116,99.97,2.0,6152.0,0.0,0.0,
2025-08-15T02:02:10.214Z,12,GR86-057-57,-47.1,0.256,-0.987,99.92,2.0,,0.0,0.0,104.56
2025-08-15T02:02:10.257Z,12,GR86-057-57,-47.3,0.228,-0.988,99.92,2.0,,0.0,0.0,
2025-08-15T02:02:10.301Z,12,GR86-057-57,-48.5,0.194,-0.983,99.91,2.0,,0.0,0.0,
2025-08-15T02:02:10.343Z,12,GR86-057-57,-49.400000000000006,0.233,-1.054,99.91,2.0,,0.0,0.0,
2025-08-15T02:02:10.386Z,12,GR86-057-57,-49.400000000000006,0.24,-1.084,99.93,2.0,6220.0,0.0,0.0,
2025-08-15T02:02:10.430Z,12,GR86-057-57,-48.6,0.225,-1.019,99.92,2.0,,0.0,0.0,106.04
2025-08-15T02:02:10.472Z,12,GR86-057-57,-47.1,0.233,-0.996,99.91,2.0,,0.0,0.0,
2025-08-15T02:02:10.515Z,12,GR86-057-57,-44.400000000000006,0.203,-1.013,99.92,2.0,,0.0,0.0,
2025-08-15T02:02:10.558Z,12,GR86-057-57,-41.0,0.204,-1.006,99.91,2.0,,0.0,0.0,
2025-08-15T02:02:10.601Z,12,GR86-057-57,-37.9,0.254,-0.984,99.92,2.0,6319.0,0.0,0.0,
2025-08-15T02:02:10.644Z,12,GR86-057-57,-35.6,0.252,-1.029,99.91,2.0,,0.0,0.0,107.28
2025-08-15T02:02:10.687Z,12,GR86-057-57,-34.4,0.257,-0.971,99.94,2.0,,0.0,0.0,
2025-08-15T02:02:10.774Z,12,GR86-057-57,-33.4,0.25,-0.951,99.92,2.0,,0.0,0.0,
2025-08-15T02:02:10.817Z,12,GR86-057-57,-31.8,0.247,-0.964,99.92,2.0,6401.0,0.0,0.0,
2025-08-15T02:02:10.861Z,12,GR86-057-57,-30.6,0.26,-0.912,99.94,2.0,,0.0,0.0,108.96
2025-08-15T02:02:10.904Z,12,GR86-057-57,-29.200000000000003,0.23,-0.962,99.93,2.0,,0.0,0.0,
2025-08-15T02:02:10.991Z,12,GR86-057-57,-27.4,0.262,-0.8300000000000001,99.92,2.0,,0.0,0.0,
2025-08-15T02:02:11.034Z,12,GR86-057-57,-27.3,0.235,-0.803,99.92,2.0,6453.0,0.0,0.0,
2025-08-15T02:02:11.076Z,12,GR86-057-57,-27.0,0.233,-0.776,99.94,2.0,,0.0,0.0,110.25
2025-08-15T02:02:11.120Z,12,GR86-057-57,-26.8,0.252,-0.72,99.95,2.0,,0.0,0.0,
2025-08-15T02:02:11.165Z,12,GR86-057-57,-27.1,0.24,-0.731,99.93,2.0,,0.0,0.0,
2025-08-15T02:02:11.251Z,12,GR86-057-57,-28.200000000000003,0.257,-0.6880000000000001,99.93,2.0,6536.0,0.0,0.0,
2025-08-15T02:02:11.294Z,12,GR86-057-57,-29.200000000000003,0.225,-0.666,99.94,2.0,,0.0,0.0,111.04
2025-08-15T02:02:11.337Z,12,GR86-057-57,-29.200000000000003,0.233,-0.659,99.96,2.0,,0.0,0.0,
2025-08-15T02:02:11.381Z,12,GR86-057-57,-29.200000000000003,0.256,-0.653,99.94,2.0,,0.0,0.0,
2025-08-15T02:02:11.424Z,12,GR86-057-57,-29.3,0.242,-0.65,99.96,2.0,,0.0,0.0,
2025-08-15T02:02:11.468Z,12,GR86-057-57,-29.700000000000003,0.232,-0.649,99.94,2.0,6622.0,0.0,0.0,
2025-08-15T02:02:11.511Z,12,GR86-057-57,-30.200000000000003,0.227,-0.663,99.92,2.0,,0.0,0.0,112.87
2025-08-15T02:02:11.554Z,12,GR86-057-57,-30.200000000000003,0.243,-0.665,99.94,2.0,,0.0,0.0,
2025-08-15T02:02:11.597Z,12,GR86-057-57,-28.6,0.233,-0.661,99.93,2.0,,0.0,0.0,
2025-08-15T02:02:11.641Z,12,GR86-057-57,-24.9,0.209,-0.649,99.96,2.0,,0.0,0.0,
2025-08-15T02:02:11.683Z,12,GR86-057-57,-21.0,0.213,-0.495,99.95,2.0,6675.0,0.0,0.0,
2025-08-15T02:02:11.726Z,12,GR86-057-57,-18.5,0.168,-0.5740000000000001,99.95,2.0,,0.0,0.0,114.76
2025-08-15T02:02:11.771Z,12,GR86-057-57,-18.0,0.322,-0.391,99.95,2.0,,0.0,0.0,
2025-08-15T02:02:11.814Z,12,GR86-057-57,-19.0,0.316,-0.533,99.95,2.0,,0.0,0.0,
2025-08-15T02:02:11.857Z,12,GR86-057-57,-20.200000000000003,0.327,-0.536,99.94,2.0,,0.0,0.0,
2025-08-15T02:02:11.901Z,12,GR86-057-57,-20.9,0.275,-0.38,99.95,2.0,6815.0,0.0,0.0,
2025-08-15T02:02:11.944Z,12,GR86-057-57,-20.6,0.271,-0.475,99.95,2.0,,0.0,0.0,116.45
2025-08-15T02:02:11.986Z,12,GR86-057-57,-19.8,0.291,-0.459,99.95,2.0,,0.0,0.0,
2025-08-15T02:02:12.030Z,12,GR86-057-57,-17.6,0.225,-0.411,99.95,2.0,,0.0,0.0,
2025-08-15T02:02:12.072Z,12,GR86-057-57,-15.7,0.251,-0.414,99.95,2.0,,0.0,0.0,
2025-08-15T02:02:12.115Z,12,GR86-057-57,-13.8,0.263,-0.362,99.96,2.0,6852.0,0.0,0.0,
2025-08-15T02:02:12.158Z,12,GR86-057-57,-12.3,0.269,-0.481,99.97,2.0,,0.0,0.0,118.27
2025-08-15T02:02:12.201Z,12,GR86-057-57,-10.9,0.319,-0.504,99.96,2.0,,0.0,0.0,
2025-08-15T02:02:12.244Z,12,GR86-057-57,-9.9,0.296,-0.338,99.96,2.0,,0.0,0.0,
2025-08-15T02:02:12.287Z,12,GR86-057-57,-9.3,0.299,-0.437,99.96,2.0,,0.0,0.0,
2025-08-15T02:02:12.331Z,12,GR86-057-57,-8.1,0.139,-0.3,99.95,2.0,7019.0,0.0,0.0,
2025-08-15T02:02:12.374Z,12,GR86-057-57,-7.7,0.214,-0.149,99.96,2.0,,0.0,0.0,121.3
2025-08-15T02:02:12.417Z,12,GR86-057-57,-6.800000000000001,0.229,-0.319,99.97,2.0,,0.0,0.0,
2025-08-15T02:02:12.461Z,12,GR86-057-57,-6.4,0.152,-0.145,99.98,2.0,,0.0,0.0,
2025-08-15T02:02:12.504Z,12,GR86-057-57,-6.1000000000000005,0.161,-0.155,99.96,2.0,,0.0,0.0,
2025-08-15T02:02:12.546Z,12,GR86-057-57,-5.2,0.232,-0.206,99.96,2.0,7089.0,0.0,0.0,
2025-08-15T02:02:12.591Z,12,GR86-057-57,-4.4,0.21,-0.108,99.97,2.0,,0.0,0.0,123.15
2025-08-15T02:02:12.634Z,12,GR86-057-57,-4.2,0.214,-0.151,99.98,2.0,,0.0,0.0,
2025-08-15T02:02:12.676Z,12,GR86-057-57,-4.7,0.201,-0.077,99.97,2.0,,0.0,0.0,
2025-08-15T02:02:12.720Z,12,GR86-057-57,-4.7,0.2,-0.067,99.97,2.0,,0.0,0.0,
2025-08-15T02:02:12.762Z,12,GR86-057-57,-4.7,0.158,-0.076,99.99,2.0,7185.0,0.0,0.0,
2025-08-15T02:02:12.806Z,12,GR86-057-57,-4.6000000000000005,0.093,-0.082,99.99,2.0,,0.0,0.0,124.81
2025-08-15T02:02:12.848Z,12,GR86-057-57,-3.9,0.106,-0.092,99.97,2.0,,0.0,0.0,
2025-08-15T02:02:12.891Z,12,GR86-057-57,-2.9000000000000004,0.08,-0.11,99.97,2.0,,0.0,0.0,
2025-08-15T02:02:12.934Z,12,GR86-057-57,-2.9000000000000004,0.1,-0.105,99.96,2.0,,0.0,0.0,
2025-08-15T02:02:12.977Z,12,GR86-057-57,-2.9000000000000004,0.048,-0.098,100.0,3.0,7250.0,0.0,0.0,
2025-08-15T02:02:13.021Z,12,GR86-057-57,-2.9000000000000004,-0.068,-0.075,99.98,3.0,,0.0,0.0,126.46
2025-08-15T02:02:13.063Z,12,GR86-057-57,-2.1,0.809,-0.038,99.98,3.0,,0.0,0.0,
2025-08-15T02:02:13.106Z,12,GR86-057-57,-1.9,0.474,-0.197,99.97,3.0,,0.0,0.0,
2025-08-15T02:02:13.150Z,12,GR86-057-57,-3.2,0.013,-0.003,99.98,3.0,,0.0,0.0,
2025-08-15T02:02:13.192Z,12,GR86-057-57,-3.2,0.038,-0.092,99.96,3.0,7312.0,0.0,0.0,
2025-08-15T02:02:13.235Z,12,GR86-057-57,-2.5,0.253,-0.065,99.96,3.0,,0.0,0.0,127.88
2025-08-15T02:02:13.278Z,12,GR86-057-57,-1.7000000000000002,0.325,-0.028,99.95,3.0,,0.0,0.0,
2025-08-15T02:02:13.321Z,12,GR86-057-57,-1.6,0.22,-0.118,99.98,3.0,,0.0,0.0,
2025-08-15T02:02:13.364Z,12,GR86-057-57,-1.6,0.134,-0.062,99.98,3.0,,0.0,0.0,
2025-08-15T02:02:13.408Z,12,GR86-057-57,-1.6,0.161,-0.032,99.99,3.0,5883.0,0.0,0.0,
2025-08-15T02:02:13.451Z,12,GR86-057-57,-1.5,0.212,-0.011,99.96,3.0,,0.0,0.0,128.88
2025-08-15T02:02:13.494Z,12,GR86-057-57,-1.4,0.236,-0.017,99.98,3.0,,0.0,0.0,
2025-08-15T02:02:13.537Z,12,GR86-057-57,-1.4,0.203,-0.027,99.98,3.0,,0.0,0.0,
2025-08-15T02:02:13.581Z,12,GR86-057-57,-1.4,0.177,-0.017,99.95,3.0,,0.0,0.0,
2025-08-15T02:02:13.624Z,12,GR86-057-57,-1.3,0.19,-0.007,99.97,3.0,6087.0,0.0,0.0,
2025-08-15T02:02:13.666Z,12,GR86-057-57,-1.3,0.202,-0.017,99.99,3.0,,0.0,0.0,130.52
2025-08-15T02:02:13.711Z,12,GR86-057-57,-1.3,0.23,-0.017,99.98,3.0,,0.0,0.0,
2025-08-15T02:02:13.754Z,12,GR86-057-57,-1.4,0.207,-0.028,99.99,3.0,,0.0,0.0,
2025-08-15T02:02:13.797Z,12,GR86-057-57,-1.3,0.172,-0.028,99.98,3.0,,0.0,0.0,
2025-08-15T02:02:13.841Z,12,GR86-057-57,-1.4,0.175,-0.006,99.97,3.0,6149.0,0.0,0.0,
2025-08-15T02:02:13.883Z,12,GR86-057-57,-1.4,0.205,-0.005,99.98,3.0,,0.0,0.0,131.96
2025-08-15T02:02:13.926Z,12,GR86-057-57,-1.4,0.21,-0.015,99.96,3.0,,0.0,0.0,
2025-08-15T02:02:13.972Z,12,GR86-057-57,-1.3,0.219,-0.013,99.97,3.0,,0.0,0.0,
2025-08-15T02:02:14.014Z,12,GR86-057-57,-1.3,0.178,-0.012,99.98,3.0,,0.0,0.0,
2025-08-15T02:02:14.057Z,12,GR86-057-57,-1.3,0.16,-0.001,99.99,3.0,6222.0,0.0,0.0,
2025-08-15T02:02:14.101Z,12,GR86-057-57,-1.2000000000000002,0.208,-0.01,99.96,3.0,,0.0,0.0,133.37
2025-08-15T02:02:14.143Z,12,GR86-057-57,-1.1,0.22,-0.008,99.95,3.0,,0.0,0.0,
2025-08-15T02:02:14.186Z,12,GR86-057-57,-0.7000000000000001,0.173,-0.005,99.96,3.0,,0.0,0.0,
2025-08-15T02:02:14.230Z,12,GR86-057-57,-0.6000000000000001,0.195,0.002,99.95,3.0,,0.0,0.0,
2025-08-15T02:02:14.274Z,12,GR86-057-57,-0.6000000000000001,0.177,-0.001,99.98,3.0,6280.0,0.0,0.0,
2025-08-15T02:02:14.317Z,12,GR86-057-57,-0.6000000000000001,0.19,-0.007,99.97,3.0,,0.0,0.0,134.69
2025-08-15T02:02:14.361Z,12,GR86-057-57,-0.6000000000000001,0.201,-0.01,99.99,3.0,,0.0,0.0,
2025-08-15T02:02:14.404Z,12,GR86-057-57,-0.6000000000000001,0.188,-0.007,99.99,3.0,,0.0,0.0,
2025-08-15T02:02:14.446Z,12,GR86-057-57,-0.6000000000000001,0.149,0.003,99.98,3.0,,0.0,0.0,
2025-08-15T02:02:14.490Z,12,GR86-057-57,-0.6000000000000001,0.205,0.001,99.96,3.0,6345.0,0.0,0.0,
2025-08-15T02:02:14.534Z,12,GR86-057-57,-0.6000000000000001,0.165,-0.008,99.98,3.0,,0.0,0.0,136.0
2025-08-15T02:02:14.576Z,12,GR86-057-57,-0.6000000000000001,0.163,-0.005,99.98,3.0,,0.0,0.0,
2025-08-15T02:02:14.620Z,12,GR86-057-57,-0.6000000000000001,0.198,-0.004,99.98,3.0,,0.0,0.0,
2025-08-15T02:02:14.662Z,12,GR86-057-57,-0.6000000000000001,0.198,-0.013,99.99,3.0,,0.0,0.0,
2025-08-15T02:02:14.705Z,12,GR86-057-57,-0.6000000000000001,0.181,0.003,99.98,3.0,6435.0,0.0,0.0,
2025-08-15T02:02:14.748Z,12,GR86-057-57,-0.6000000000000001,0.179,0.003,99.97,3.0,,0.0,0.0,137.4
2025-08-15T02:02:14.791Z,12,GR86-057-57,-0.5,0.146,0.005,99.99,3.0,,0.0,0.0,
2025-08-15T02:02:14.834Z,12,GR86-057-57,-0.5,0.165,0.025,99.99,3.0,,0.0,0.0,
2025-08-15T02:02:14.877Z,12,GR86-057-57,-0.4,0.208,-0.002,99.96,3.0,,0.0,0.0,
2025-08-15T02:02:14.921Z,12,GR86-057-57,-0.3,0.207,0.02,99.97,3.0,6444.0,0.0,0.0,
2025-08-15T02:02:14.963Z,12,GR86-057-57,-0.3,0.168,0.02,99.97,3.0,,0.0,0.0,138.78
2025-08-15T02:02:15.007Z,12,GR86-057-57,-0.3,0.162,0.028,100.0,3.0,,0.0,0.0,
2025-08-15T02:02:15.051Z,12,GR86-057-57,-0.3,0.159,0.036,99.96,3.0,,0.0,0.0,
2025-08-15T02:02:15.094Z,12,GR86-057-57,-0.2,0.179,0.043,99.96,3.0,,0.0,0.0,
2025-08-15T02:02:15.137Z,12,GR86-057-57,-0.1,0.206,0.017,99.98,3.0,6506.0,0.0,0.0,
2025-08-15T02:02:15.180Z,12,GR86-057-57,-0.1,0.187,0.016,99.98,3.0,,0.0,0.0,141.38
2025-08-15T02:02:15.222Z,12,GR86-057-57,0.0,0.16,0.026,99.97,3.0,,0.0,0.0,
2025-08-15T02:02:15.265Z,12,GR86-057-57,0.0,0.163,0.046,99.98,3.0,,0.0,0.0,
2025-08-15T02:02:15.308Z,12,GR86-057-57,0.0,0.192,0.046,99.98,3.0,,0.0,0.0,
2025-08-15T02:02:15.351Z,12,GR86-057-57,0.1,0.161,0.05,99.98,3.0,6570.0,0.0,0.0,
2025-08-15T02:02:15.394Z,12,GR86-057-57,0.1,0.166,0.049,99.97,3.0,,0.0,0.0,142.65
2025-08-15T02:02:15.437Z,12,GR86-057-57,0.1,0.189,0.036,99.95,3.0,,0.0,0.0,
2025-08-15T02:02:15.481Z,12,GR86-057-57,0.1,0.199,0.058,99.95,3.0,,0.0,0.0,
2025-08-15T02:02:15.523Z,12,GR86-057-57,0.1,0.186,0.061,99.98,3.0,,0.0,0.0,
2025-08-15T02:02:15.566Z,12,GR86-057-57,0.1,0.171,0.07,99.96,3.0,6625.0,0.0,0.0,
2025-08-15T02:02:15.654Z,12,GR86-057-57,0.1,0.168,0.07,99.99,3.0,,0.0,0.0,143.84
2025-08-15T02:02:15.697Z,12,GR86-057-57,0.1,0.185,0.056,99.95,3.0,,0.0,0.0,
2025-08-15T02:02:15.741Z,12,GR86-057-57,0.1,0.19,0.038,99.95,3.0,,0.0,0.0,
2025-08-15T02:02:15.783Z,12,GR86-057-57,0.1,0.178,0.051,99.97,3.0,6750.0,0.0,0.0,
2025-08-15T02:02:15.826Z,12,GR86-057-57,0.1,0.168,0.051,99.97,3.0,,0.0,0.0,145.02
2025-08-15T02:02:15.871Z,12,GR86-057-57,0.0,0.166,0.034,99.97,3.0,,0.0,0.0,
2025-08-15T02:02:15.914Z,12,GR86-057-57,0.0,0.171,0.049,99.98,3.0,,0.0,0.0,
2025-08-15T02:02:15.957Z,12,GR86-057-57,-0.1,0.166,0.046,99.95,3.0,,0.0,0.0,
2025-08-15T02:02:16.001Z,12,GR86-057-57,-0.4,0.168,0.048,99.96,3.0,6842.0,0.0,0.0,
2025-08-15T02:02:16.043Z,12,GR86-057-57,-0.6000000000000001,0.175,0.036,99.97,3.0,,0.0,0.0,146.17000000000002
2025-08-15T02:02:16.086Z,12,GR86-057-57,-0.6000000000000001,0.168,0.025,99.99,3.0,,0.0,0.0,
2025-08-15T02:02:16.130Z,12,GR86-057-57,-0.6000000000000001,0.17,0.037,99.96,3.0,,0.0,0.0,
2025-08-15T02:02:16.172Z,12,GR86-057-57,-0.7000000000000001,0.168,0.024,99.98,3.0,,0.0,0.0,
2025-08-15T02:02:16.215Z,12,GR86-057-57,-0.7000000000000001,0.151,0.03,99.95,3.0,6894.0,0.0,0.0,
2025-08-15T02:02:16.258Z,12,GR86-057-57,-0.7000000000000001,0.163,0.036,99.96,3.0,,0.0,0.0,147.32
2025-08-15T02:02:16.301Z,12,GR86-057-57,-0.7000000000000001,0.177,0.035,99.97,3.0,,0.0,0.0,
2025-08-15T02:02:16.344Z,12,GR86-057-57,-0.7000000000000001,0.182,0.021,99.96,3.0,,0.0,0.0,
2025-08-15T02:02:16.388Z,12,GR86-057-57,-0.7000000000000001,0.167,0.007,99.95,3.0,,0.0,0.0,
2025-08-15T02:02:16.431Z,12,GR86-057-57,-0.7000000000000001,0.17,0.025,99.98,3.0,6945.0,0.0,0.0,
2025-08-15T02:02:16.474Z,12,GR86-057-57,-1.1,0.172,0.008,99.98,3.0,,0.0,0.0,148.46
2025-08-15T02:02:16.517Z,12,GR86-057-57,-1.4,0.159,0.006,99.96,3.0,,0.0,0.0,
2025-08-15T02:02:16.561Z,12,GR86-057-57,-1.6,0.158,0.009,99.98,3.0,,0.0,0.0,
2025-08-15T02:02:16.604Z,12,GR86-057-57,-1.8,0.162,0.023,99.97,3.0,,0.0,0.0,
2025-08-15T02:02:16.647Z,12,GR86-057-57,-2.0,0.169,0.041,99.95,3.0,6959.0,0.0,0.0,
2025-08-15T02:02:16.691Z,12,GR86-057-57,-2.1,0.151,0.011,99.99,3.0,,0.0,0.0,149.56
2025-08-15T02:02:16.734Z,12,GR86-057-57,-2.1,0.155,0.028,99.97,3.0,,0.0,0.0,
2025-08-15T02:02:16.777Z,12,GR86-057-57,-2.1,0.181,0.005,99.99,3.0,,0.0,0.0,
2025-08-15T02:02:16.821Z,12,GR86-057-57,-2.2,0.175,-0.011,99.96,3.0,,0.0,0.0,
2025-08-15T02:02:16.864Z,12,GR86-057-57,-2.3000000000000003,0.166,-0.036,99.96,3.0,7056.0,0.0,0.0,
2025-08-15T02:02:16.907Z,12,GR86-057-57,-2.5,0.147,-0.03,99.95,3.0,,0.0,0.0,150.69
2025-08-15T02:02:16.951Z,12,GR86-057-57,-2.6,0.176,-0.038,99.94,3.0,,0.0,0.0,
2025-08-15T02:02:16.993Z,12,GR86-057-57,-2.7,0.152,-0.049,99.95,3.0,,0.0,0.0,
2025-08-15T02:02:17.037Z,12,GR86-057-57,-2.9000000000000004,0.142,-0.049,99.96,3.0,,0.0,0.0,
2025-08-15T02:02:17.080Z,12,GR86-057-57,-3.0,0.135,-0.051,99.98,3.0,7064.0,0.0,0.0,
2025-08-15T02:02:17.122Z,12,GR86-057-57,-3.1,0.145,-0.027,99.98,3.0,,0.0,0.0,151.79
2025-08-15T02:02:17.165Z,12,GR86-057-57,-3.1,0.17,-0.036,99.95,3.0,,0.0,0.0,
2025-08-15T02:02:17.251Z,12,GR86-057-57,-3.1,0.181,-0.048,99.95,3.0,,0.0,0.0,
2025-08-15T02:02:17.294Z,12,GR86-057-57,-3.1,0.167,-0.057,99.95,3.0,7153.0,0.0,0.0,
2025-08-15T02:02:17.337Z,12,GR86-057-57,-3.1,0.172,-0.065,99.95,3.0,,0.0,0.0,152.92000000000002
2025-08-15T02:02:17.381Z,12,GR86-057-57,-3.1,0.163,-0.082,99.99,3.0,,0.0,0.0,
2025-08-15T02:02:17.423Z,12,GR86-057-57,-3.1,0.139,-0.083,99.96,3.0,,0.0,0.0,
2025-08-15T02:02:17.467Z,12,GR86-057-57,-3.1,0.123,-0.065,99.96,3.0,,0.0,0.0,
2025-08-15T02:02:17.511Z,12,GR86-057-57,-3.1,0.159,-0.078,99.97,3.0,7208.0,0.0,0.0,
2025-08-15T02:02:17.554Z,12,GR86-057-57,-3.1,0.122,-0.068,99.98,3.0,,0.0,0.0,154.0
2025-08-15T02:02:17.597Z,12,GR86-057-57,-3.1,-0.014,-0.081,99.97,3.0,,0.0,0.0,
2025-08-15T02:02:17.641Z,12,GR86-057-57,-3.2,-0.119,-0.042,99.96,4.0,,0.0,0.0,
2025-08-15T02:02:17.683Z,12,GR86-057-57,-2.9000000000000004,0.5640000000000001,-0.038,99.97,4.0,,0.0,0.0,
2025-08-15T02:02:17.726Z,12,GR86-057-57,-2.6,0.261,-0.141,99.96,4.0,7215.0,0.0,0.0,
2025-08-15T02:02:17.771Z,12,GR86-057-57,-4.0,-0.073,-0.018,99.95,4.0,,0.0,0.0,156.18
2025-08-15T02:02:17.814Z,12,GR86-057-57,-4.1000000000000005,0.108,-0.089,99.97,4.0,,0.0,0.0,
2025-08-15T02:02:17.857Z,12,GR86-057-57,-3.4000000000000004,0.244,-0.095,99.97,4.0,,0.0,0.0,
2025-08-15T02:02:17.901Z,12,GR86-057-57,-3.2,0.162,-0.033,100.0,4.0,,0.0,0.0,
2025-08-15T02:02:17.943Z,12,GR86-057-57,-3.2,0.1,-0.096,99.98,4.0,7241.0,0.0,0.0,
2025-08-15T02:02:17.986Z,12,GR86-057-57,-3.2,0.127,-0.073,99.99,4.0,,0.0,0.0,156.97
2025-08-15T02:02:18.030Z,12,GR86-057-57,-3.2,0.173,-0.074,99.96,4.0,,0.0,0.0,
2025-08-15T02:02:18.115Z,12,GR86-057-57,-3.2,0.141,-0.083,99.95,4.0,,0.0,0.0,
2025-08-15T02:02:18.160Z,12,GR86-057-57,-3.2,0.128,-0.098,99.98,4.0,6027.0,0.0,0.0,
2025-08-15T02:02:18.202Z,12,GR86-057-57,-3.2,0.093,-0.085,99.96,4.0,,0.0,0.0,157.94
2025-08-15T02:02:18.245Z,12,GR86-057-57,-3.1,0.104,-0.095,99.97,4.0,,0.0,0.0,
2025-08-15T02:02:18.288Z,12,GR86-057-57,-2.7,0.106,-0.082,99.96,4.0,,0.0,0.0,
2025-08-15T02:02:18.331Z,12,GR86-057-57,-2.2,0.111,-0.074,99.95,4.0,,0.0,0.0,
2025-08-15T02:02:18.374Z,12,GR86-057-57,-2.1,0.096,-0.052,99.99,4.0,6252.0,0.0,0.0,
2025-08-15T02:02:18.417Z,12,GR86-057-57,-2.0,0.095,-0.055,99.97,4.0,,0.0,0.0,158.75
2025-08-15T02:02:18.461Z,12,GR86-057-57,-2.0,0.118,-0.059,99.97,4.0,,0.0,0.0,
2025-08-15T02:02:18.504Z,12,GR86-057-57,-2.2,0.133,-0.045,99.96,4.0,,0.0,0.0,
2025-08-15T02:02:18.546Z,12,GR86-057-57,-2.6,0.146,-0.041,99.97,4.0,,0.0,0.0,
2025-08-15T02:02:18.590Z,12,GR86-057-57,-2.9000000000000004,0.096,-0.028,99.95,4.0,6283.0,0.0,0.0,
2025-08-15T02:02:18.634Z,12,GR86-057-57,-3.1,0.113,-0.039,99.96,4.0,,0.0,0.0,159.70000000000002
2025-08-15T02:02:18.676Z,12,GR86-057-57,-3.5,0.133,-0.027,99.98,4.0,,0.0,0.0,
2025-08-15T02:02:18.720Z,12,GR86-057-57,-3.7,0.145,-0.038,99.98,4.0,,0.0,0.0,
2025-08-15T02:02:18.762Z,12,GR86-057-57,-3.7,0.145,-0.041,99.99,4.0,,0.0,0.0,
2025-08-15T02:02:18.806Z,12,GR86-057-57,-4.0,0.132,-0.05,99.97,4.0,6317.0,0.0,0.0,
2025-08-15T02:02:18.891Z,12,GR86-057-57,-4.800000000000001,0.14,-0.08,99.97,4.0,,0.0,0.0,160.59
2025-08-15T02:02:18.934Z,12,GR86-057-57,-5.0,0.142,-0.093,99.96,4.0,,0.0,0.0,
2025-08-15T02:02:18.977Z,12,GR86-057-57,-5.1000000000000005,0.139,-0.108,99.97,4.0,,0.0,0.0,
2025-08-15T02:02:19.021Z,12,GR86-057-57,-5.2,0.118,-0.103,99.97,4.0,6356.0,0.0,0.0,
2025-08-15T02:02:19.063Z,12,GR86-057-57,-5.5,0.111,-0.11,99.97,4.0,,0.0,0.0,161.55
2025-08-15T02:02:19.106Z,12,GR86-057-57,-5.9,0.11,-0.111,99.99,4.0,,0.0,0.0,
2025-08-15T02:02:19.150Z,12,GR86-057-57,-5.9,0.128,-0.145,99.95,4.0,,0.0,0.0,
2025-08-15T02:02:19.192Z,12,GR86-057-57,-5.9,0.128,-0.141,99.97,4.0,,0.0,0.0,
2025-08-15T02:02:19.235Z,12,GR86-057-57,-6.0,0.134,-0.147,99.97,4.0,6389.0,0.0,0.0,
2025-08-15T02:02:19.278Z,12,GR86-057-57,-6.1000000000000005,0.107,-0.156,99.96,4.0,,0.0,0.0,162.48
2025-08-15T02:02:19.321Z,12,GR86-057-57,-6.0,0.101,-0.163,99.99,4.0,,0.0,0.0,
2025-08-15T02:02:19.364Z,12,GR86-057-57,-6.0,0.092,-0.175,99.99,4.0,,0.0,0.0,
2025-08-15T02:02:19.408Z,12,GR86-057-57,-6.0,0.11,-0.186,99.95,4.0,,0.0,0.0,
2025-08-15T02:02:19.451Z,12,GR86-057-57,-6.0,0.123,-0.194,99.95,4.0,6389.0,0.0,0.0,
2025-08-15T02:02:19.494Z,12,GR86-057-57,-6.0,0.11,-0.196,99.98,4.0,,0.0,0.0,163.43
2025-08-15T02:02:19.537Z,12,GR86-057-57,-6.0,0.103,-0.207,99.95,4.0,,0.0,0.0,
2025-08-15T02:02:19.581Z,12,GR86-057-57,-5.9,0.1,-0.209,99.99,4.0,,0.0,0.0,
2025-08-15T02:02:19.624Z,12,GR86-057-57,-5.9,0.102,-0.21,99.96,4.0,,0.0,0.0,
2025-08-15T02:02:19.666Z,12,GR86-057-57,-5.800000000000001,0.119,-0.201,99.96,4.0,6466.0,0.0,0.0,
2025-08-15T02:02:19.711Z,12,GR86-057-57,-5.6000000000000005,0.111,-0.18,99.96,4.0,,0.0,0.0,164.34
2025-08-15T02:02:19.754Z,12,GR86-057-57,-5.4,0.099,-0.174,99.95,4.0,,0.0,0.0,
2025-08-15T02:02:19.797Z,12,GR86-057-57,-5.2,0.103,-0.171,99.97,4.0,,0.0,0.0,
2025-08-15T02:02:19.841Z,12,GR86-057-57,-5.0,0.1,-0.164,99.98,4.0,,0.0,0.0,
2025-08-15T02:02:19.883Z,12,GR86-057-57,-4.9,0.109,-0.166,99.96,4.0,6456.0,0.0,0.0,
2025-08-15T02:02:19.926Z,12,GR86-057-57,-4.6000000000000005,0.123,-0.174,99.95,4.0,,0.0,0.0,165.24
2025-08-15T02:02:19.972Z,12,GR86-057-57,-4.6000000000000005,0.102,-0.135,99.97,4.0,,0.0,0.0,
2025-08-15T02:02:20.014Z,12,GR86-057-57,-4.6000000000000005,0.112,-0.125,99.98,4.0,,0.0,0.0,
2025-08-15T02:02:20.057Z,12,GR86-057-57,-4.6000000000000005,0.111,-0.133,99.96,4.0,,0.0,0.0,
2025-08-15T02:02:20.101Z,12,GR86-057-57,-4.6000000000000005,0.103,-0.126,99.95,4.0,6492.0,0.0,0.0,
2025-08-15T02:02:20.143Z,12,GR86-057-57,-4.6000000000000005,0.114,-0.125,99.99,4.0,,0.0,0.0,166.22
2025-08-15T02:02:20.186Z,12,GR86-057-57,-4.6000000000000005,0.121,-0.111,99.97,4.0,,0.0,0.0,
2025-08-15T02:02:20.230Z,12,GR86-057-57,-4.6000000000000005,0.104,-0.081,99.97,4.0,,0.0,0.0,
2025-08-15T02:02:20.274Z,12,GR86-057-57,-4.6000000000000005,0.11,-0.083,99.96,4.0,,0.0,0.0,
2025-08-15T02:02:20.317Z,12,GR86-057-57,-4.6000000000000005,0.107,-0.096,99.96,4.0,6528.0,0.0,0.0,
2025-08-15T02:02:20.361Z,12,GR86-057-57,-4.6000000000000005,0.107,-0.107,99.97,4.0,,0.0,0.0,167.16
2025-08-15T02:02:20.404Z,12,GR86-057-57,-4.6000000000000005,0.108,-0.113,99.96,4.0,,0.0,0.0,
2025-08-15T02:02:20.446Z,12,GR86-057-57,-4.7,0.117,-0.124,99.95,4.0,,0.0,0.0,
2025-08-15T02:02:20.490Z,12,GR86-057-57,-4.9,0.108,-0.106,99.95,4.0,,0.0,0.0,
2025-08-15T02:02:20.532Z,12,GR86-057-57,-4.9,0.105,-0.118,99.95,4.0,6562.0,0.0,0.0,
2025-08-15T02:02:20.575Z,12,GR86-057-57,-4.9,0.097,-0.128,99.98,4.0,,0.0,0.0,169.01
2025-08-15T02:02:20.618Z,12,GR86-057-57,-4.9,0.107,-0.149,99.95,4.0,,0.0,0.0,
2025-08-15T02:02:20.661Z,12,GR86-057-57,-4.9,0.124,-0.161,99.95,4.0,,0.0,0.0,
2025-08-15T02:02:20.704Z,12,GR86-057-57,-4.9,0.129,-0.177,99.95,4.0,,0.0,0.0,
2025-08-15T02:02:20.747Z,12,GR86-057-57,-4.9,0.122,-0.162,99.97,4.0,6599.0,0.0,0.0,
2025-08-15T02:02:20.791Z,12,GR86-057-57,-4.9,0.107,-0.142,99.96,4.0,,0.0,0.0,169.83
2025-08-15T02:02:20.834Z,12,GR86-057-57,-4.9,0.114,-0.134,99.97,4.0,,0.0,0.0,
2025-08-15T02:02:20.876Z,12,GR86-057-57,-4.800000000000001,0.113,-0.137,99.96,4.0,,0.0,0.0,
2025-08-15T02:02:20.920Z,12,GR86-057-57,-4.800000000000001,0.103,-0.142,99.97,4.0,,0.0,0.0,
2025-08-15T02:02:20.962Z,12,GR86-057-57,-4.7,0.131,-0.146,99.95,4.0,6631.0,0.0,0.0,
2025-08-15T02:02:21.006Z,12,GR86-057-57,-4.7,0.116,-0.154,99.97,4.0,,0.0,0.0,170.74
2025-08-15T02:02:21.048Z,12,GR86-057-57,-4.7,0.129,-0.151,99.95,4.0,,0.0,0.0,
2025-08-15T02:02:21.134Z,12,GR86-057-57,-4.6000000000000005,0.092,-0.113,99.96,4.0,,0.0,0.0,
2025-08-15T02:02:21.177Z,12,GR86-057-57,-4.6000000000000005,0.112,-0.101,99.98,4.0,6719.0,0.0,0.0,
2025-08-15T02:02:21.221Z,12,GR86-057-57,-4.4,0.105,-0.107,99.98,4.0,,0.0,0.0,171.71
2025-08-15T02:02:21.264Z,12,GR86-057-57,-4.4,0.118,-0.113,99.94,4.0,,0.0,0.0,
2025-08-15T02:02:21.306Z,12,GR86-057-57,-4.4,0.095,-0.121,99.95,4.0,,0.0,0.0,
2025-08-15T02:02:21.350Z,12,GR86-057-57,-4.4,0.106,-0.122,99.99,4.0,,0.0,0.0,
2025-08-15T02:02:21.392Z,12,GR86-057-57,-4.4,0.119,-0.124,99.95,4.0,6783.0,0.0,0.0,
2025-08-15T02:02:21.435Z,12,GR86-057-57,-4.4,0.089,-0.126,99.96,4.0,,0.0,0.0,172.71
2025-08-15T02:02:21.478Z,12,GR86-057-57,-4.4,0.093,-0.138,99.95,4.0,,0.0,0.0,
2025-08-15T02:02:21.521Z,12,GR86-057-57,-4.4,0.084,-0.141,99.98,4.0,,0.0,0.0,
2025-08-15T02:02:21.564Z,12,GR86-057-57,-4.4,0.105,-0.123,99.98,4.0,,0.0,0.0,
2025-08-15T02:02:21.607Z,12,GR86-057-57,-4.4,0.094,-0.127,99.97,4.0,6792.0,0.0,0.0,
2025-08-15T02:02:21.651Z,12,GR86-057-57,-4.4,0.113,-0.16,99.98,4.0,,0.0,0.0,173.5
2025-08-15T02:02:21.694Z,12,GR86-057-57,-4.3,0.122,-0.146,99.98,4.0,,0.0,0.0,
2025-08-15T02:02:21.737Z,12,GR86-057-57,-4.2,0.116,-0.142,99.95,4.0,,0.0,0.0,
2025-08-15T02:02:21.780Z,12,GR86-057-57,-4.1000000000000005,0.114,-0.123,99.98,4.0,,0.0,0.0,
2025-08-15T02:02:21.822Z,12,GR86-057-57,-4.1000000000000005,0.094,-0.112,99.95,4.0,6818.0,0.0,0.0,
2025-08-15T02:02:21.865Z,12,GR86-057-57,-4.1000000000000005,0.087,-0.104,99.97,4.0,,0.0,0.0,174.35
2025-08-15T02:02:21.908Z,12,GR86-057-57,-3.9,0.097,-0.102,99.96,4.0,,0.0,0.0,
2025-08-15T02:02:21.951Z,12,GR86-057-57,-3.5,0.137,-0.104,99.96,4.0,,0.0,0.0,
2025-08-15T02:02:21.994Z,12,GR86-057-57,-3.4000000000000004,0.118,-0.113,99.96,4.0,,0.0,0.0,
2025-08-15T02:02:22.037Z,12,GR86-057-57,-3.4000000000000004,0.113,-0.101,99.97,4.0,6843.0,0.0,0.0,
2025-08-15T02:02:22.081Z,12,GR86-057-57,-3.3000000000000003,0.118,-0.089,99.96,4.0,,0.0,0.0,175.35
2025-08-15T02:02:22.123Z,12,GR86-057-57,-3.2,0.136,-0.073,99.97,4.0,,0.0,0.0,
2025-08-15T02:02:22.166Z,12,GR86-057-57,-3.2,0.12,-0.069,99.96,4.0,,0.0,0.0,
2025-08-15T02:02:22.210Z,12,GR86-057-57,-3.0,0.092,-0.037,99.96,4.0,,0.0,0.0,
2025-08-15T02:02:22.252Z,12,GR86-057-57,-2.9000000000000004,0.083,-0.04,99.96,4.0,6876.0,0.0,0.0,
2025-08-15T02:02:22.295Z,12,GR86-057-57,-2.9000000000000004,0.078,-0.044,99.98,4.0,,0.0,0.0,176.15
2025-08-15T02:02:22.338Z,12,GR86-057-57,-3.0,0.094,-0.03,99.95,4.0,,0.0,0.0,
2025-08-15T02:02:22.381Z,12,GR86-057-57,-3.2,0.094,-0.032,99.97,4.0,,0.0,0.0,
2025-08-15T02:02:22.424Z,12,GR86-057-57,-3.3000000000000003,0.084,-0.051,99.96,4.0,,0.0,0.0,
2025-08-15T02:02:22.467Z,12,GR86-057-57,-3.4000000000000004,0.099,-0.059,99.95,4.0,6904.0,0.0,0.0,
2025-08-15T02:02:22.511Z,12,GR86-057-57,-3.4000000000000004,0.11,-0.067,99.96,4.0,,0.0,0.0,177.09
2025-08-15T02:02:22.554Z,12,GR86-057-57,-3.2,0.101,-0.058,99.95,4.0,,0.0,0.0,
2025-08-15T02:02:22.596Z,12,GR86-057-57,-3.2,0.102,-0.059,99.96,4.0,,0.0,0.0,
2025-08-15T02:02:22.641Z,12,GR86-057-57,-3.2,0.11,-0.053,99.95,4.0,,0.0,0.0,
2025-08-15T02:02:22.683Z,12,GR86-057-57,-3.2,0.087,-0.054,99.96,4.0,6992.0,0.0,0.0,
2025-08-15T02:02:22.726Z,12,GR86-057-57,-3.2,0.105,-0.042,99.96,4.0,,0.0,0.0,177.87
2025-08-15T02:02:22.771Z,12,GR86-057-57,-3.2,0.113,-0.049,99.96,4.0,,0.0,0.0,
2025-08-15T02:02:22.814Z,12,GR86-057-57,-3.1,0.091,-0.04,99.95,4.0,,0.0,0.0,
2025-08-15T02:02:22.857Z,12,GR86-057-57,-3.1,0.107,-0.04,99.96,4.0,,0.0,0.0,
2025-08-15T02:02:22.901Z,12,GR86-057-57,-3.1,0.093,-0.049,99.95,4.0,7015.0,0.0,0.0,
2025-08-15T02:02:22.943Z,12,GR86-057-57,-3.2,0.108,-0.047,99.95,4.0,,0.0,0.0,178.76
2025-08-15T02:02:22.986Z,12,GR86-057-57,-3.3000000000000003,0.101,-0.045,99.97,4.0,,0.0,0.0,
2025-08-15T02:02:23.030Z,12,GR86-057-57,-3.3000000000000003,0.088,-0.04,99.96,4.0,,0.0,0.0,
2025-08-15T02:02:23.072Z,12,GR86-057-57,-3.3000000000000003,0.089,-0.049,99.97,4.0,,0.0,0.0,
2025-08-15T02:02:23.115Z,12,GR86-057-57,-3.5,0.085,-0.051,99.95,4.0,7005.0,0.0,0.0,
2025-08-15T02:02:23.158Z,12,GR86-057-57,-3.8,0.075,-0.056,99.97,4.0,,0.0,0.0,179.58
2025-08-15T02:02:23.201Z,12,GR86-057-57,-3.9,0.081,-0.069,99.95,4.0,,0.0,0.0,
2025-08-15T02:02:23.244Z,12,GR86-057-57,-4.1000000000000005,0.089,-0.076,99.98,4.0,,0.0,0.0,
2025-08-15T02:02:23.287Z,12,GR86-057-57,-4.4,0.064,-0.091,99.96,4.0,,0.0,0.0,
2025-08-15T02:02:23.331Z,12,GR86-057-57,-4.4,0.092,-0.135,99.97,4.0,7082.0,0.0,0.0,
2025-08-15T02:02:23.374Z,12,GR86-057-57,-4.3,0.113,-0.131,99.95,4.0,,0.0,0.0,181.13
2025-08-15T02:02:23.417Z,12,GR86-057-57,-3.9,0.106,-0.134,99.98,4.0,,0.0,0.0,
2025-08-15T02:02:23.461Z,12,GR86-057-57,-3.6,0.088,-0.137,99.97,4.0,,0.0,0.0,
2025-08-15T02:02:23.504Z,12,GR86-057-57,-3.5,0.096,-0.136,99.97,4.0,,0.0,0.0,
2025-08-15T02:02:23.547Z,12,GR86-057-57,-3.4000000000000004,0.085,-0.131,99.95,4.0,7111.0,0.0,0.0,
2025-08-15T02:02:23.591Z,12,GR86-057-57,-2.7,0.091,-0.118,99.96,4.0,,0.0,0.0,181.82
2025-08-15T02:02:23.634Z,12,GR86-057-57,-2.4000000000000004,0.099,-0.091,99.95,4.0,,0.0,0.0,
2025-08-15T02:02:23.677Z,12,GR86-057-57,-2.3000000000000003,0.078,-0.077,99.95,4.0,,0.0,0.0,
2025-08-15T02:02:23.721Z,12,GR86-057-57,-2.3000000000000003,0.094,-0.048,99.97,4.0,,0.0,0.0,
2025-08-15T02:02:23.764Z,12,GR86-057-57,-2.3000000000000003,0.077,-0.033,99.98,4.0,7110.0,0.0,0.0,
2025-08-15T02:02:23.808Z,12,GR86-057-57,-2.3000000000000003,0.085,-0.038,99.95,4.0,,0.0,0.0,182.68
2025-08-15T02:02:23.851Z,12,GR86-057-57,-2.3000000000000003,0.089,-0.044,99.97,4.0,,0.0,0.0,
2025-08-15T02:02:23.894Z,12,GR86-057-57,-2.5,0.091,-0.036,99.96,4.0,,0.0,0.0,
2025-08-15T02:02:23.937Z,12,GR86-057-57,-2.5,0.085,-0.038,99.95,4.0,,0.0,0.0,
2025-08-15T02:02:23.981Z,12,GR86-057-57,-2.3000000000000003,0.091,-0.032,99.95,4.0,7152.0,0.0,0.0,
2025-08-15T02:02:24.023Z,12,GR86-057-57,-2.1,0.073,-0.026,99.98,4.0,,0.0,0.0,183.46
2025-08-15T02:02:24.067Z,12,GR86-057-57,-2.0,0.017,-0.029,99.98,5.0,,0.0,0.0,
2025-08-15T02:02:24.111Z,12,GR86-057-57,-2.1,0.202,0.011,99.96,5.0,,0.0,0.0,
2025-08-15T02:02:24.154Z,12,GR86-057-57,-2.0,0.311,-0.073,99.96,5.0,,0.0,0.0,
2025-08-15T02:02:24.197Z,12,GR86-057-57,-2.7,-0.06,-0.096,99.96,5.0,7186.0,0.0,0.0,
2025-08-15T02:02:24.241Z,12,GR86-057-57,-3.2,-0.017,0.009,99.99,5.0,,0.0,0.0,184.03
2025-08-15T02:02:24.283Z,12,GR86-057-57,-3.1,0.134,-0.073,99.97,5.0,,0.0,0.0,
2025-08-15T02:02:24.326Z,12,GR86-057-57,-2.5,0.1,-0.088,99.98,5.0,,0.0,0.0,
2025-08-15T02:02:24.371Z,12,GR86-057-57,-2.3000000000000003,0.035,-0.061,99.95,5.0,,0.0,0.0,
2025-08-15T02:02:24.414Z,12,GR86-057-57,-2.3000000000000003,0.078,-0.098,99.96,5.0,6166.0,0.0,0.0,
2025-08-15T02:02:24.457Z,12,GR86-057-57,-2.2,0.084,-0.027,99.96,5.0,,0.0,0.0,184.71
2025-08-15T02:02:24.501Z,12,GR86-057-57,-2.1,0.06,-0.052,99.96,5.0,,0.0,0.0,
2025-08-15T02:02:24.543Z,12,GR86-057-57,-2.1,0.056,-0.055,99.95,5.0,,0.0,0.0,
2025-08-15T02:02:24.586Z,12,GR86-057-57,-2.1,0.072,-0.03,99.95,5.0,,0.0,0.0,
2025-08-15T02:02:24.630Z,12,GR86-057-57,-1.7000000000000002,0.064,-0.04,99.97,5.0,6255.0,0.0,0.0,
2025-08-15T02:02:24.672Z,12,GR86-057-57,-1.7000000000000002,0.051,-0.05,99.96,5.0,,0.0,0.0,185.39
2025-08-15T02:02:24.715Z,12,GR86-057-57,-1.9,0.062,-0.062,99.95,5.0,,0.0,0.0,
2025-08-15T02:02:24.758Z,12,GR86-057-57,-2.0,0.055,-0.067,99.95,5.0,,0.0,0.0,
2025-08-15T02:02:24.801Z,12,GR86-057-57,-2.0,0.066,-0.066,99.95,5.0,,0.0,0.0,
2025-08-15T02:02:24.844Z,12,GR86-057-57,-2.0,0.056,-0.073,99.96,5.0,6289.0,0.0,0.0,
2025-08-15T02:02:24.887Z,12,GR86-057-57,-2.0,0.072,-0.066,99.95,5.0,,0.0,0.0,186.09
2025-08-15T02:02:24.931Z,12,GR86-057-57,-2.0,0.058,-0.042,99.95,5.0,,0.0,0.0,
2025-08-15T02:02:24.974Z,12,GR86-057-57,-1.4,0.05,-0.034,99.97,5.0,,0.0,0.0,
2025-08-15T02:02:25.017Z,12,GR86-057-57,-1.1,0.052,-0.029,99.96,5.0,,0.0,0.0,
2025-08-15T02:02:25.061Z,12,GR86-057-57,-0.7000000000000001,0.047,-0.027,99.95,5.0,6310.0,0.0,0.0,
2025-08-15T02:02:25.104Z,12,GR86-057-57,-0.7000000000000001,0.052,-0.019,99.96,5.0,,0.0,0.0,186.61
2025-08-15T02:02:25.146Z,12,GR86-057-57,-0.7000000000000001,0.052,-0.017,99.96,5.0,,0.0,0.0,
2025-08-15T02:02:25.190Z,12,GR86-057-57,-0.7000000000000001,0.073,0.015,99.95,5.0,,0.0,0.0,
2025-08-15T02:02:25.234Z,12,GR86-057-57,-0.7000000000000001,0.071,0.027,99.96,5.0,,0.0,0.0,
2025-08-15T02:02:25.276Z,12,GR86-057-57,-0.7000000000000001,0.059,0.02,99.98,5.0,6362.0,0.0,0.0,
2025-08-15T02:02:25.320Z,12,GR86-057-57,-1.0,0.075,0.013,99.96,5.0,,0.0,0.0,187.17
2025-08-15T02:02:25.362Z,12,GR86-057-57,-1.4,0.045,0.012,99.95,5.0,,0.0,0.0,
2025-08-15T02:02:25.406Z,12,GR86-057-57,-1.7000000000000002,0.062,0.002,99.95,5.0,,0.0,0.0,
2025-08-15T02:02:25.448Z,12,GR86-057-57,-1.8,0.053,0.0,99.96,5.0,,0.0,0.0,
2025-08-15T02:02:25.491Z,12,GR86-057-57,-1.8,0.074,-0.007,99.97,5.0,6382.0,0.0,0.0,
2025-08-15T02:02:25.534Z,12,GR86-057-57,-1.7000000000000002,0.072,-0.017,99.95,5.0,,0.0,0.0,187.69
2025-08-15T02:02:25.577Z,12,GR86-057-57,-1.5,0.08,-0.019,99.98,5.0,,0.0,0.0,
2025-08-15T02:02:25.621Z,12,GR86-057-57,-1.4,0.066,-0.027,99.99,5.0,,0.0,0.0,
2025-08-15T02:02:25.663Z,12,GR86-057-57,-1.3,0.075,-0.024,99.95,5.0,,0.0,0.0,
2025-08-15T02:02:25.706Z,12,GR86-057-57,-1.2000000000000002,0.075,-0.014,99.96,5.0,6369.0,0.0,0.0,
2025-08-15T02:02:25.750Z,12,GR86-057-57,-1.2000000000000002,0.043,-0.024,99.96,5.0,,0.0,0.0,188.22
2025-08-15T02:02:25.792Z,12,GR86-057-57,-1.2000000000000002,0.049,-0.025,99.95,5.0,,0.0,0.0,
2025-08-15T02:02:25.835Z,12,GR86-057-57,-1.3,0.069,-0.027,99.98,5.0,,0.0,0.0,
2025-08-15T02:02:25.878Z,12,GR86-057-57,-1.4,0.06,-0.024,99.96,5.0,,0.0,0.0,
2025-08-15T02:02:25.921Z,12,GR86-057-57,-1.4,0.064,-0.018,99.96,5.0,6412.0,0.0,0.0,
2025-08-15T02:02:25.965Z,12,GR86-057-57,-1.4,0.072,-0.011,99.97,5.0,,0.0,0.0,188.82
2025-08-15T02:02:26.008Z,12,GR86-057-57,-1.7000000000000002,0.089,-0.003,99.95,5.0,,0.0,0.0,
2025-08-15T02:02:26.051Z,12,GR86-057-57,-2.3000000000000003,0.036,0.029,99.95,5.0,,0.0,0.0,
2025-08-15T02:02:26.094Z,12,GR86-057-57,-2.5,0.055,0.01,99.98,5.0,,0.0,0.0,
2025-08-15T02:02:26.137Z,12,GR86-057-57,-2.6,0.038,-0.005,99.96,5.0,6445.0,0.0,0.0,
2025-08-15T02:02:26.181Z,12,GR86-057-57,-2.8000000000000003,0.052,-0.012,99.95,5.0,,0.0,0.0,189.95
2025-08-15T02:02:26.224Z,12,GR86-057-57,-3.1,0.049,-0.038,99.97,5.0,,0.0,0.0,
2025-08-15T02:02:26.266Z,12,GR86-057-57,-3.4000000000000004,0.054,-0.043,99.96,5.0,,0.0,0.0,
2025-08-15T02:02:26.311Z,12,GR86-057-57,-3.9,0.062,-0.068,99.97,5.0,,0.0,0.0,
2025-08-15T02:02:26.354Z,12,GR86-057-57,-4.1000000000000005,0.046,-0.081,99.98,5.0,6423.0,0.0,0.0,
2025-08-15T02:02:26.397Z,12,GR86-057-57,-4.2,0.055,-0.083,99.97,5.0,,0.0,0.0,190.47
2025-08-15T02:02:26.441Z,12,GR86-057-57,-4.2,0.052,-0.099,99.95,5.0,,0.0,0.0,
2025-08-15T02:02:26.483Z,12,GR86-057-57,-4.2,0.031,-0.112,99.95,5.0,,0.0,0.0,
2025-08-15T02:02:26.526Z,12,GR86-057-57,-3.9,0.054,-0.104,99.96,5.0,,0.0,0.0,
2025-08-15T02:02:26.572Z,12,GR86-057-57,-3.4000000000000004,0.081,-0.116,99.99,5.0,6496.0,0.0,0.0,
2025-08-15T02:02:26.614Z,12,GR86-057-57,-3.2,0.055,-0.12,99.96,5.0,,0.0,0.0,191.02
2025-08-15T02:02:26.657Z,12,GR86-057-57,-3.0,0.073,-0.116,99.96,5.0,,0.0,0.0,
2025-08-15T02:02:26.701Z,12,GR86-057-57,-2.8000000000000003,0.062,-0.098,99.95,5.0,,0.0,0.0,
2025-08-15T02:02:26.743Z,12,GR86-057-57,-2.7,0.042,-0.094,99.95,5.0,,0.0,0.0,
2025-08-15T02:02:26.786Z,12,GR86-057-57,-2.5,0.046,-0.075,99.96,5.0,6469.0,0.0,0.0,
2025-08-15T02:02:26.830Z,12,GR86-057-57,-1.9,0.085,-0.049,99.98,5.0,,0.0,0.0,191.64
2025-08-15T02:02:26.874Z,12,GR86-057-57,-1.6,0.081,-0.035,99.96,5.0,,0.0,0.0,
2025-08-15T02:02:26.917Z,12,GR86-057-57,-1.5,0.079,-0.032,99.97,5.0,,0.0,0.0,
2025-08-15T02:02:26.961Z,12,GR86-057-57,-1.5,0.069,-0.022,99.98,5.0,,0.0,0.0,
2025-08-15T02:02:27.004Z,12,GR86-057-57,-1.5,0.081,0.003,99.95,5.0,6486.0,0.0,0.0,
2025-08-15T02:02:27.046Z,12,GR86-057-57,-1.5,0.052,-0.003,99.97,5.0,,0.0,0.0,192.19
2025-08-15T02:02:27.090Z,12,GR86-057-57,-1.5,0.077,-0.006,99.95,5.0,,0.0,0.0,
2025-08-15T02:02:27.134Z,12,GR86-057-57,-1.6,0.086,-0.012,99.99,5.0,,0.0,0.0,
2025-08-15T02:02:27.176Z,12,GR86-057-57,-1.7000000000000002,0.095,-0.008,99.97,5.0,,0.0,0.0,
2025-08-15T02:02:27.220Z,12,GR86-057-57,-1.8,0.07,-0.01,99.97,5.0,6553.0,0.0,0.0,
2025-08-15T02:02:27.262Z,12,GR86-057-57,-1.8,0.071,-0.012,99.97,5.0,,0.0,0.0,192.64
2025-08-15T02:02:27.306Z,12,GR86-057-57,-1.7000000000000002,0.056,-0.003,99.95,5.0,,0.0,0.0,
2025-08-15T02:02:27.350Z,12,GR86-057-57,-1.1,0.078,-0.006,99.95,5.0,,0.0,0.0,
2025-08-15T02:02:27.392Z,12,GR86-057-57,-0.7000000000000001,0.087,-0.015,99.96,5.0,,0.0,0.0,
2025-08-15T02:02:27.435Z,12,GR86-057-57,-0.5,0.085,0.004,99.99,5.0,6579.0,0.0,0.0,
2025-08-15T02:02:27.478Z,12,GR86-057-57,-0.2,0.084,0.008,99.98,5.0,,0.0,0.0,193.17
2025-08-15T02:02:27.521Z,12,GR86-057-57,0.1,0.075,0.011,99.96,5.0,,0.0,0.0,
2025-08-15T02:02:27.564Z,12,GR86-057-57,0.4,0.068,0.013,99.95,5.0,,0.0,0.0,
2025-08-15T02:02:27.607Z,12,GR86-057-57,0.5,0.057,0.012,99.95,5.0,,0.0,0.0,
2025-08-15T02:02:27.651Z,12,GR86-057-57,0.5,0.072,0.045,99.98,5.0,6585.0,0.0,0.0,
2025-08-15T02:02:27.694Z,12,GR86-057-57,0.6000000000000001,0.086,0.061,99.95,5.0,,0.0,0.0,193.74
2025-08-15T02:02:27.736Z,12,GR86-057-57,1.0,0.089,0.085,99.96,5.0,,0.0,0.0,
2025-08-15T02:02:27.780Z,12,GR86-057-57,1.7000000000000002,0.068,0.091,99.97,5.0,,0.0,0.0,
2025-08-15T02:02:27.822Z,12,GR86-057-57,2.4000000000000004,0.064,0.094,99.98,5.0,,0.0,0.0,
2025-08-15T02:02:27.865Z,12,GR86-057-57,2.6,0.061,0.118,99.98,5.0,6606.0,0.0,0.0,
2025-08-15T02:02:27.908Z,12,GR86-057-57,2.6,0.058,0.138,99.94,5.0,,0.0,0.0,194.27
2025-08-15T02:02:27.951Z,12,GR86-057-57,2.4000000000000004,0.075,0.157,99.99,5.0,,0.0,0.0,
2025-08-15T02:02:27.994Z,12,GR86-057-57,2.4000000000000004,0.085,0.154,99.98,5.0,,0.0,0.0,
2025-08-15T02:02:28.037Z,12,GR86-057-57,2.3000000000000003,0.076,0.159,99.99,5.0,,0.0,0.0,
2025-08-15T02:02:28.081Z,12,GR86-057-57,2.3000000000000003,0.069,0.174,99.95,5.0,6617.0,0.0,0.0,
2025-08-15T02:02:28.123Z,12,GR86-057-57,2.3000000000000003,0.054,0.165,99.95,5.0,,0.0,0.0,194.83
2025-08-15T02:02:28.166Z,12,GR86-057-57,2.3000000000000003,0.051,0.159,99.97,5.0,,0.0,0.0,
2025-08-15T02:02:28.210Z,12,GR86-057-57,2.4000000000000004,0.075,0.175,99.97,5.0,,0.0,0.0,
2025-08-15T02:02:28.252Z,12,GR86-057-57,2.7,0.077,0.175,99.94,5.0,,0.0,0.0,
2025-08-15T02:02:28.295Z,12,GR86-057-57,3.2,0.071,0.179,99.95,5.0,6642.0,0.0,0.0,
2025-08-15T02:02:28.338Z,12,GR86-057-57,3.8,0.077,0.174,99.97,5.0,,0.0,0.0,195.41
2025-08-15T02:02:28.381Z,12,GR86-057-57,4.4,0.045,0.174,99.99,5.0,,0.0,0.0,
2025-08-15T02:02:28.424Z,12,GR86-057-57,5.0,0.052,0.195,99.95,5.0,,0.0,0.0,
2025-08-15T02:02:28.467Z,12,GR86-057-57,5.5,0.039,0.211,99.95,5.0,,0.0,0.0,
2025-08-15T02:02:28.511Z,12,GR86-057-57,6.0,0.069,0.237,99.97,5.0,6618.0,0.0,0.0,
2025-08-15T02:02:28.554Z,12,GR86-057-57,6.0,0.071,0.243,99.98,5.0,,0.0,0.0,196.04
2025-08-15T02:02:28.596Z,12,GR86-057-57,6.0,0.056,0.27,99.95,5.0,,0.0,0.0,
2025-08-15T02:02:28.641Z,12,GR86-057-57,6.0,0.049,0.301,99.95,5.0,,0.0,0.0,
2025-08-15T02:02:28.684Z,12,GR86-057-57,5.9,0.05,0.32,99.96,5.0,,0.0,0.0,
2025-08-15T02:02:28.726Z,12,GR86-057-57,5.7,0.042,0.328,99.97,5.0,6635.0,0.0,0.0,
2025-08-15T02:02:28.771Z,12,GR86-057-57,5.4,0.064,0.329,99.98,5.0,,0.0,0.0,197.19
2025-08-15T02:02:28.814Z,12,GR86-057-57,5.300000000000001,0.058,0.345,99.97,5.0,,0.0,0.0,
2025-08-15T02:02:28.857Z,12,GR86-057-57,5.300000000000001,0.049,0.342,99.96,5.0,,0.0,0.0,
2025-08-15T02:02:28.901Z,12,GR86-057-57,5.4,0.049,0.323,99.99,5.0,,0.0,0.0,
2025-08-15T02:02:28.943Z,12,GR86-057-57,5.6000000000000005,0.043,0.327,99.95,5.0,6699.0,0.0,0.0,
2025-08-15T02:02:28.986Z,12,GR86-057-57,5.6000000000000005,0.041,0.33,99.96,5.0,,0.0,0.0,197.77
2025-08-15T02:02:29.030Z,12,GR86-057-57,5.6000000000000005,0.053,0.326,99.99,5.0,,0.0,0.0,
2025-08-15T02:02:29.072Z,12,GR86-057-57,5.5,0.044,0.324,99.95,5.0,,0.0,0.0,
2025-08-15T02:02:29.115Z,12,GR86-057-57,5.4,0.05,0.314,99.95,5.0,,0.0,0.0,
2025-08-15T02:02:29.158Z,12,GR86-057-57,5.1000000000000005,0.039,0.303,99.97,5.0,6720.0,0.0,0.0,
2025-08-15T02:02:29.244Z,12,GR86-057-57,4.7,0.061,0.304,99.95,5.0,,0.0,0.0,198.32
2025-08-15T02:02:29.287Z,12,GR86-057-57,4.7,0.059,0.31,99.95,5.0,,0.0,0.0,
2025-08-15T02:02:29.331Z,12,GR86-057-57,5.1000000000000005,0.046,0.286,99.97,5.0,,0.0,0.0,
2025-08-15T02:02:29.417Z,12,GR86-057-57,5.2,0.052,0.284,99.97,5.0,6758.0,0.0,0.0,198.88
2025-08-15T02:02:29.461Z,12,GR86-057-57,4.6000000000000005,0.078,0.299,99.96,5.0,,0.0,0.0,
2025-08-15T02:02:29.504Z,12,GR86-057-57,3.5,0.068,0.311,99.97,5.0,,0.0,0.0,
2025-08-15T02:02:29.547Z,12,GR86-057-57,2.6,0.068,0.31,99.95,5.0,,0.0,0.0,
2025-08-15T02:02:29.591Z,12,GR86-057-57,2.3000000000000003,0.054,0.259,99.98,5.0,6776.0,0.0,0.0,
2025-08-15T02:02:29.634Z,12,GR86-057-57,2.3000000000000003,0.051,0.247,99.95,5.0,,0.0,0.0,199.34
2025-08-15T02:02:29.676Z,12,GR86-057-57,2.3000000000000003,0.061,0.224,99.95,5.0,,0.0,0.0,
2025-08-15T02:02:29.720Z,12,GR86-057-57,2.3000000000000003,0.067,0.214,99.96,5.0,,0.0,0.0,
2025-08-15T02:02:29.764Z,12,GR86-057-57,2.4000000000000004,0.051,0.176,99.96,5.0,,0.0,0.0,
2025-08-15T02:02:29.807Z,12,GR86-057-57,3.0,0.033,0.16,99.97,5.0,6749.0,0.0,0.0,
2025-08-15T02:02:29.851Z,12,GR86-057-57,4.4,0.062,0.157,99.96,5.0,,0.0,0.0,199.81
2025-08-15T02:02:29.893Z,12,GR86-057-57,5.0,0.058,0.151,99.96,5.0,,0.0,0.0,
2025-08-15T02:02:29.937Z,12,GR86-057-57,5.1000000000000005,0.043,0.16,99.96,5.0,,0.0,0.0,
2025-08-15T02:02:29.980Z,12,GR86-057-57,5.1000000000000005,0.032,0.176,99.94,5.0,,0.0,0.0,
2025-08-15T02:02:30.022Z,12,GR86-057-57,4.9,0.038,0.19,99.96,5.0,6800.0,0.0,0.0,
2025-08-15T02:02:30.065Z,12,GR86-057-57,4.7,0.028,0.205,99.96,5.0,,0.0,0.0,200.42
2025-08-15T02:02:30.108Z,12,GR86-057-57,4.7,0.035,0.225,99.95,5.0,,0.0,0.0,
2025-08-15T02:02:30.151Z,12,GR86-057-57,4.6000000000000005,0.033,0.25,99.96,5.0,,0.0,0.0,
2025-08-15T02:02:30.194Z,12,GR86-057-57,4.5,0.024,0.258,99.97,5.0,,0.0,0.0,
2025-08-15T02:02:30.237Z,12,GR86-057-57,4.3,0.034,0.266,99.95,5.0,6832.0,0.0,0.0,
2025-08-15T02:02:30.281Z,12,GR86-057-57,4.0,0.039,0.274,99.96,5.0,,0.0,0.0,200.84
2025-08-15T02:02:30.324Z,12,GR86-057-57,3.6,0.048,0.288,99.95,5.0,,0.0,0.0,
2025-08-15T02:02:30.367Z,12,GR86-057-57,3.4000000000000004,0.056,0.269,99.97,5.0,,0.0,0.0,
2025-08-15T02:02:30.411Z,12,GR86-057-57,3.4000000000000004,0.011,0.234,99.96,5.0,,0.0,0.0,
2025-08-15T02:02:30.454Z,12,GR86-057-57,3.4000000000000004,0.048,0.232,99.96,5.0,6810.0,0.0,0.0,
2025-08-15T02:02:30.497Z,12,GR86-057-57,3.4000000000000004,0.07,0.265,99.95,5.0,,0.0,0.0,201.46
2025-08-15T02:02:30.541Z,12,GR86-057-57,3.4000000000000004,0.067,0.275,99.95,5.0,,0.0,0.0,
2025-08-15T02:02:30.583Z,12,GR86-057-57,3.4000000000000004,0.043,0.299,99.95,5.0,,0.0,0.0,
2025-08-15T02:02:30.626Z,12,GR86-057-57,3.4000000000000004,0.047,0.276,99.96,5.0,,0.0,0.0,
2025-08-15T02:02:30.671Z,12,GR86-057-57,3.8,0.069,0.282,99.94,5.0,6823.0,0.0,0.0,
2025-08-15T02:02:30.714Z,12,GR86-057-57,3.9,0.063,0.275,99.97,5.0,,0.0,0.0,201.88
2025-08-15T02:02:30.757Z,12,GR86-057-57,4.1000000000000005,0.06,0.267,99.96,5.0,,0.0,0.0,
2025-08-15T02:02:30.801Z,12,GR86-057-57,4.6000000000000005,0.046,0.247,99.95,5.0,,0.0,0.0,
2025-08-15T02:02:30.844Z,12,GR86-057-57,4.7,0.036,0.199,99.96,5.0,,0.0,0.0,
2025-08-15T02:02:30.886Z,12,GR86-057-57,4.7,0.008,0.185,99.95,5.0,6839.0,0.0,0.0,
2025-08-15T02:02:30.930Z,12,GR86-057-57,4.7,0.057,0.237,99.95,5.0,,0.0,0.0,202.3
2025-08-15T02:02:30.972Z,12,GR86-057-57,4.9,0.071,0.281,99.96,5.0,,0.0,0.0,
2025-08-15T02:02:31.015Z,12,GR86-057-57,5.2,0.008,0.277,99.96,5.0,,0.0,0.0,
2025-08-15T02:02:31.058Z,12,GR86-057-57,5.2,0.016,0.27,78.58,5.0,,0.0,0.0,
2025-08-15T02:02:31.101Z,12,GR86-057-57,4.7,0.043,0.283,7.66,5.0,6854.0,0.0,0.0,
2025-08-15T02:02:31.144Z,12,GR86-057-57,3.9,0.058,0.271,4.73,5.0,,0.0,0.0,203.15
2025-08-15T02:02:31.187Z,12,GR86-057-57,3.5,-0.124,0.303,4.46,5.0,,0.0,0.0,
2025-08-15T02:02:31.231Z,12,GR86-057-57,4.2,-0.413,0.297,3.86,5.0,,6.99,7.615,
2025-08-15T02:02:31.274Z,12,GR86-057-57,4.6000000000000005,-0.274,0.248,3.5,5.0,,30.55,30.675,
2025-08-15T02:02:31.317Z,12,GR86-057-57,4.6000000000000005,-0.478,0.29,3.31,5.0,6896.0,35.71,35.405,
2025-08-15T02:02:31.361Z,12,GR86-057-57,4.1000000000000005,-0.7010000000000001,0.213,3.18,5.0,,41.43,40.96,203.49
2025-08-15T02:02:31.404Z,12,GR86-057-57,3.3000000000000003,-0.8230000000000001,0.2,3.0500000000000003,5.0,,45.37,45.0,
2025-08-15T02:02:31.446Z,12,GR86-057-57,2.8000000000000003,-0.862,0.192,2.96,5.0,,47.765,47.52,
2025-08-15T02:02:31.490Z,12,GR86-057-57,2.8000000000000003,-0.978,0.177,2.8000000000000003,5.0,,50.405,49.795,
2025-08-15T02:02:31.534Z,12,GR86-057-57,2.8000000000000003,-1.01,0.192,2.71,5.0,6739.0,51.425,51.0,
2025-08-15T02:02:31.576Z,12,GR86-057-57,2.5,-1.057,0.225,2.65,5.0,,52.495000000000005,52.02,203.74
2025-08-15T02:02:31.620Z,12,GR86-057-57,2.2,-1.08,0.251,2.57,5.0,,54.525,55.105,
2025-08-15T02:02:31.662Z,12,GR86-057-57,2.4000000000000004,-1.167,0.266,2.51,5.0,,57.15,57.65,
2025-08-15T02:02:31.706Z,12,GR86-057-57,2.6,-1.166,0.253,2.48,5.0,,58.4,57.99,
2025-08-15T02:02:31.748Z,12,GR86-057-57,2.3000000000000003,-1.126,0.245,2.47,5.0,6721.0,59.955,59.39,
2025-08-15T02:02:31.791Z,12,GR86-057-57,-0.1,-1.153,0.219,2.45,5.0,,63.65,64.43,196.85
2025-08-15T02:02:31.834Z,12,GR86-057-57,-1.1,-1.242,0.228,2.45,5.0,,65.77,66.855,
2025-08-15T02:02:31.877Z,12,GR86-057-57,-0.3,-1.227,0.219,2.45,5.0,,66.61,66.455,
2025-08-15T02:02:31.921Z,12,GR86-057-57,0.7000000000000001,-1.279,0.161,2.46,5.0,,68.33500000000001,68.745,
2025-08-15T02:02:31.963Z,12,GR86-057-57,1.3,-1.165,0.192,37.15,5.0,6110.0,70.21000000000001,71.58500000000001,
2025-08-15T02:02:32.006Z,12,GR86-057-57,1.5,-1.162,0.237,81.47,4.0,,68.655,69.19,190.02
2025-08-15T02:02:32.050Z,12,GR86-057-57,1.0,-1.174,0.147,7.55,4.0,,62.66,63.925,
2025-08-15T02:02:32.092Z,12,GR86-057-57,1.4,-0.96,0.185,3.6,4.0,,55.805,57.53,
2025-08-15T02:02:32.135Z,12,GR86-057-57,2.0,-1.018,0.186,3.31,4.0,,49.275,50.1,
2025-08-15T02:02:32.178Z,12,GR86-057-57,1.9,-1.164,0.173,3.15,4.0,5742.0,43.17,43.825,
2025-08-15T02:02:32.221Z,12,GR86-057-57,1.8,-0.852,0.227,3.04,4.0,,42.24,43.52,181.83
2025-08-15T02:02:32.264Z,12,GR86-057-57,2.0,-0.892,0.226,2.97,4.0,,42.605,43.08,
2025-08-15T02:02:32.308Z,12,GR86-057-57,1.5,-1.15,0.251,2.9,4.0,,43.49,43.995,
2025-08-15T02:02:32.351Z,12,GR86-057-57,-0.6000000000000001,-0.854,0.169,2.74,4.0,,47.215,47.84,
2025-08-15T02:02:32.394Z,12,GR86-057-57,-0.7000000000000001,-0.997,0.117,2.67,4.0,5935.0,48.985,49.275,
2025-08-15T02:02:32.437Z,12,GR86-057-57,-0.7000000000000001,-1.035,0.095,2.61,4.0,,52.02,52.175,172.96
2025-08-15T02:02:32.481Z,12,GR86-057-57,0.2,-1.056,-0.004,2.5500000000000003,4.0,,54.92,54.675,
2025-08-15T02:02:32.524Z,12,GR86-057-57,1.7000000000000002,-1.055,-0.01,2.53,4.0,,56.555,56.4,
2025-08-15T02:02:32.566Z,12,GR86-057-57,2.9000000000000004,-1.058,0.002,2.52,4.0,,57.715,57.620000000000005,
2025-08-15T02:02:32.611Z,12,GR86-057-57,4.9,-1.141,-0.076,53.18,3.0,6357.0,58.645,58.31,
2025-08-15T02:02:32.654Z,12,GR86-057-57,6.5,-1.158,-0.055,20.69,3.0,,59.33,59.59,167.97
2025-08-15T02:02:32.697Z,12,GR86-057-57,6.7,-1.123,0.015,4.44,3.0,,61.21,62.46,
2025-08-15T02:02:32.741Z,12,GR86-057-57,7.1000000000000005,-1.254,-0.044,3.96,3.0,,62.995000000000005,64.49,
2025-08-15T02:02:32.783Z,12,GR86-057-57,8.3,-1.316,-0.149,3.56,3.0,,61.36,61.39,
2025-08-15T02:02:32.826Z,12,GR86-057-57,8.700000000000001,-1.205,0.004,3.3200000000000003,3.0,5933.0,59.3,60.645,
2025-08-15T02:02:32.872Z,12,GR86-057-57,9.7,-0.896,-0.186,3.1,3.0,,50.19,50.97,160.62
2025-08-15T02:02:32.914Z,12,GR86-057-57,10.9,-1.028,-0.069,2.99,3.0,,46.465,47.015,
2025-08-15T02:02:32.957Z,12,GR86-057-57,11.3,-1.139,-0.053,2.92,3.0,,46.205,47.015,
2025-08-15T02:02:33.001Z,12,GR86-057-57,11.3,-0.92,-0.027,2.82,3.0,,46.025,46.345,
2025-08-15T02:02:33.043Z,12,GR86-057-57,10.3,-0.948,0.103,2.7,3.0,5867.0,46.495,46.465,
2025-08-15T02:02:33.086Z,12,GR86-057-57,8.8,-0.957,0.143,2.62,3.0,,47.09,47.06,153.35
2025-08-15T02:02:33.130Z,12,GR86-057-57,5.800000000000001,-0.966,0.198,2.5500000000000003,3.0,,48.8,48.620000000000005,
2025-08-15T02:02:33.174Z,12,GR86-057-57,3.0,-0.982,0.207,2.52,3.0,,49.795,49.765,
2025-08-15T02:02:33.217Z,12,GR86-057-57,0.3,-1.024,0.203,2.52,3.0,,51.120000000000005,51.06,
2025-08-15T02:02:33.261Z,12,GR86-057-57,-1.1,-1.044,0.222,2.48,3.0,6575.0,52.585,52.370000000000005,
2025-08-15T02:02:33.304Z,12,GR86-057-57,-1.2000000000000002,-1.083,0.241,3.99,3.0,,53.24,53.18,146.3
2025-08-15T02:02:33.346Z,12,GR86-057-57,-1.1,-1.111,0.242,43.89,3.0,,53.21,53.09,
2025-08-15T02:02:33.390Z,12,GR86-057-57,-1.2000000000000002,-1.063,0.255,99.42,3.0,,51.685,51.655,
2025-08-15T02:02:33.432Z,12,GR86-057-57,-1.2000000000000002,-1.043,0.232,99.34,2.0,,46.205,46.835,
2025-08-15T02:02:33.475Z,12,GR86-057-57,-1.2000000000000002,-0.952,0.134,46.29,2.0,6246.0,40.33,41.645,
2025-08-15T02:02:33.519Z,12,GR86-057-57,-1.4,-1.055,0.157,4.23,2.0,,37.83,39.125,140.09
2025-08-15T02:02:33.561Z,12,GR86-057-57,-0.6000000000000001,-0.984,0.137,2.99,2.0,,37.8,38.715,
2025-08-15T02:02:33.604Z,12,GR86-057-57,0.9,-1.075,0.036,2.87,2.0,,36.73,37.355,
2025-08-15T02:02:33.648Z,12,GR86-057-57,1.7000000000000002,-0.974,0.172,2.8000000000000003,2.0,,36.425,37.205,
2025-08-15T02:02:33.691Z,12,GR86-057-57,2.8000000000000003,-0.895,-0.001,2.71,2.0,5884.0,37.08,37.675,
2025-08-15T02:02:33.734Z,12,GR86-057-57,3.0,-0.917,0.059,2.67,2.0,,37.86,38.35,133.33
2025-08-15T02:02:33.777Z,12,GR86-057-57,3.1,-0.885,0.017,2.61,2.0,,37.98,38.655,
2025-08-15T02:02:33.821Z,12,GR86-057-57,4.1000000000000005,-0.923,-0.013,2.57,2.0,,37.42,38.015,
2025-08-15T02:02:33.863Z,12,GR86-057-57,5.2,-0.992,0.037,2.52,2.0,,36.305,37.11,
2025-08-15T02:02:33.906Z,12,GR86-057-57,7.300000000000001,-0.9,0.038,2.52,2.0,6682.0,34.455,35.375,
2025-08-15T02:02:33.950Z,12,GR86-057-57,10.9,-0.872,0.088,2.51,2.0,,32.17,32.96,126.75
2025-08-15T02:02:33.992Z,12,GR86-057-57,12.2,-0.901,0.11,2.49,2.0,,31.68,32.38,
2025-08-15T02:02:34.035Z,12,GR86-057-57,13.3,-0.868,0.135,2.49,2.0,,31.8,32.410000000000004,
2025-08-15T02:02:34.078Z,12,GR86-057-57,14.6,-0.876,0.145,2.48,2.0,,32.17,32.715,
2025-08-15T02:02:34.121Z,12,GR86-057-57,15.5,-0.8210000000000001,0.205,2.48,2.0,6512.0,32.87,33.65,
2025-08-15T02:02:34.165Z,12,GR86-057-57,15.6,-0.8210000000000001,0.242,2.49,2.0,,32.87,33.435,120.6
2025-08-15T02:02:34.208Z,12,GR86-057-57,15.9,-0.886,0.3,2.48,2.0,,33.22,33.845,
2025-08-15T02:02:34.251Z,12,GR86-057-57,16.900000000000002,-0.885,0.338,2.48,2.0,,31.865,32.93,
2025-08-15T02:02:34.294Z,12,GR86-057-57,17.0,-0.802,0.371,17.46,2.0,,29.39,30.305,
2025-08-15T02:02:34.337Z,12,GR86-057-57,17.1,-0.744,0.361,62.4,2.0,6177.0,25.745,26.75,
2025-08-15T02:02:34.381Z,12,GR86-057-57,17.3,-0.7030000000000001,0.428,99.08,2.0,,22.4,23.3,108.92
2025-08-15T02:02:34.423Z,12,GR86-057-57,17.7,-0.677,0.411,99.3,1.0,,20.355,21.21,
2025-08-15T02:02:34.510Z,12,GR86-057-57,18.8,-0.898,0.35,3.06,1.0,,18.68,19.305,
2025-08-15T02:02:34.553Z,12,GR86-057-57,20.1,-0.656,0.354,2.96,1.0,5934.0,20.815,21.715,
2025-08-15T02:02:34.595Z,12,GR86-057-57,25.3,-0.6980000000000001,0.317,2.87,1.0,,21.41,21.775,103.36
2025-08-15T02:02:34.638Z,12,GR86-057-57,29.4,-0.804,0.478,2.81,1.0,,20.66,21.0,
2025-08-15T02:02:34.681Z,12,GR86-057-57,31.9,-0.715,0.499,2.74,1.0,,19.99,20.555,
2025-08-15T02:02:34.724Z,12,GR86-057-57,33.800000000000004,-0.602,0.54,2.64,1.0,,18.89,19.87,
2025-08-15T02:02:34.767Z,12,GR86-057-57,36.4,-0.522,0.6920000000000001,2.58,1.0,5581.0,17.84,18.36,
2025-08-15T02:02:34.811Z,12,GR86-057-57,39.5,-0.5740000000000001,0.653,2.52,1.0,,16.145,16.68,99.15
2025-08-15T02:02:34.854Z,12,GR86-057-57,39.5,-0.52,0.739,2.52,1.0,,12.56,13.275,
2025-08-15T02:02:34.896Z,12,GR86-057-57,40.0,-0.461,0.741,2.48,1.0,,10.15,10.835,
2025-08-15T02:02:34.941Z,12,GR86-057-57,41.7,-0.401,0.784,2.48,1.0,,8.76,9.37,
2025-08-15T02:02:34.983Z,12,GR86-057-57,43.7,-0.431,0.8210000000000001,2.47,1.0,6709.0,8.040000000000001,8.635,
2025-08-15T02:02:35.026Z,12,GR86-057-57,44.900000000000006,-0.378,0.849,2.46,1.0,,7.705,8.33,94.62
2025-08-15T02:02:35.071Z,12,GR86-057-57,47.5,-0.362,0.8310000000000001,2.46,1.0,,7.98,8.33,
2025-08-15T02:02:35.114Z,12,GR86-057-57,49.7,-0.372,0.877,2.46,1.0,,8.040000000000001,8.635,
2025-08-15T02:02:35.157Z,12,GR86-057-57,50.400000000000006,-0.358,0.89,2.48,1.0,,8.040000000000001,8.36,
2025-08-15T02:02:35.201Z,12,GR86-057-57,50.400000000000006,-0.356,0.888,2.46,1.0,6446.0,7.765000000000001,8.33,
2025-08-15T02:02:35.243Z,12,GR86-057-57,50.400000000000006,-0.367,0.929,2.47,1.0,,7.17,7.675,91.88
2025-08-15T02:02:35.286Z,12,GR86-057-57,50.400000000000006,-0.355,0.927,2.49,1.0,,5.22,5.9350000000000005,
2025-08-15T02:02:35.330Z,12,GR86-057-57,50.400000000000006,-0.264,0.922,2.48,1.0,,3.615,4.0600000000000005,
2025-08-15T02:02:35.372Z,12,GR86-057-57,50.5,-0.261,0.92,2.45,1.0,,3.13,3.695,
2025-08-15T02:02:35.415Z,12,GR86-057-57,51.5,-0.246,0.931,2.48,1.0,6278.0,2.73,3.065,
2025-08-15T02:02:35.458Z,12,GR86-057-57,53.5,-0.252,0.949,2.46,1.0,,2.455,3.1,89.32000000000001
2025-08-15T02:02:35.501Z,12,GR86-057-57,55.900000000000006,-0.26,0.932,2.47,1.0,,2.215,2.5500000000000003,
2025-08-15T02:02:35.544Z,12,GR86-057-57,58.1,-0.247,0.993,2.48,1.0,,0.0,2.045,
2025-08-15T02:02:35.631Z,12,GR86-057-57,59.1,-0.21,1.018,2.47,1.0,6115.0,0.0,0.0,
2025-08-15T02:02:35.674Z,12,GR86-057-57,59.0,-0.209,1.024,2.48,1.0,,0.0,0.0,87.10000000000001
2025-08-15T02:02:35.717Z,12,GR86-057-57,59.0,-0.215,1.035,2.47,1.0,,0.0,0.0,
2025-08-15T02:02:35.761Z,12,GR86-057-57,59.0,-0.2,1.04,2.47,1.0,,0.0,0.0,
2025-08-15T02:02:35.804Z,12,GR86-057-57,59.0,-0.19,1.084,2.48,1.0,,0.0,0.0,
2025-08-15T02:02:35.847Z,12,GR86-057-57,59.400000000000006,-0.197,1.061,2.49,1.0,6031.0,0.0,0.0,
2025-08-15T02:02:35.891Z,12,GR86-057-57,60.1,-0.214,1.074,2.49,1.0,,0.0,0.0,85.25
2025-08-15T02:02:35.934Z,12,GR86-057-57,60.2,-0.201,1.005,2.49,1.0,,0.0,0.0,
2025-08-15T02:02:35.976Z,12,GR86-057-57,60.2,-0.19,1.071,2.49,1.0,,0.0,0.0,
2025-08-15T02:02:36.020Z,12,GR86-057-57,60.5,-0.189,1.079,2.48,1.0,,0.0,0.0,
2025-08-15T02:02:36.064Z,12,GR86-057-57,61.7,-0.192,1.133,2.52,1.0,5896.0,0.0,0.0,
2025-08-15T02:02:36.107Z,12,GR86-057-57,64.5,-0.218,1.106,2.9,1.0,,0.0,0.0,83.9
2025-08-15T02:02:36.151Z,12,GR86-057-57,69.3,-0.249,1.196,4.48,1.0,,0.0,0.0,
2025-08-15T02:02:36.193Z,12,GR86-057-57,70.4,-0.217,1.147,13.48,1.0,,0.0,0.0,
2025-08-15T02:02:36.236Z,12,GR86-057-57,70.5,-0.179,1.196,19.23,1.0,,0.0,0.0,
2025-08-15T02:02:36.280Z,12,GR86-057-57,70.5,-0.183,1.186,22.58,1.0,5832.0,0.0,0.0,
2025-08-15T02:02:36.322Z,12,GR86-057-57,70.5,-0.16,1.134,26.04,1.0,,0.0,0.0,82.68
2025-08-15T02:02:36.365Z,12,GR86-057-57,70.8,-0.113,1.128,28.31,1.0,,0.0,0.0,
2025-08-15T02:02:36.408Z,12,GR86-057-57,71.5,-0.117,1.109,31.11,1.0,,0.0,0.0,
2025-08-15T02:02:36.451Z,12,GR86-057-57,73.3,0.063,1.247,32.38,1.0,,0.0,0.0,
2025-08-15T02:02:36.494Z,12,GR86-057-57,73.60000000000001,0.214,1.218,32.6,1.0,5691.0,0.0,0.0,
2025-08-15T02:02:36.537Z,12,GR86-057-57,73.8,0.247,1.131,32.62,1.0,,0.0,0.0,81.39
2025-08-15T02:02:36.581Z,12,GR86-057-57,74.5,0.268,1.063,32.51,1.0,,0.0,0.0,
2025-08-15T02:02:36.623Z,12,GR86-057-57,75.2,0.232,1.21,32.24,1.0,,0.0,0.0,
2025-08-15T02:02:36.668Z,12,GR86-057-57,76.60000000000001,0.245,1.128,32.36,1.0,,0.0,0.0,
2025-08-15T02:02:36.711Z,12,GR86-057-57,77.7,0.151,1.127,32.32,1.0,5759.0,0.0,0.0,
2025-08-15T02:02:36.754Z,12,GR86-057-57,77.80000000000001,-0.016,1.235,32.21,1.0,,0.0,0.0,79.98
2025-08-15T02:02:36.797Z,12,GR86-057-57,77.80000000000001,0.113,1.419,32.03,1.0,,0.0,0.0,
2025-08-15T02:02:36.883Z,12,GR86-057-57,77.2,0.106,1.201,31.62,1.0,,0.0,0.0,
2025-08-15T02:02:36.926Z,12,GR86-057-57,76.3,0.2,1.125,31.62,1.0,6007.0,0.0,0.0,
2025-08-15T02:02:36.971Z,12,GR86-057-57,75.5,0.138,1.269,31.85,1.0,,0.0,0.0,80.11
2025-08-15T02:02:37.014Z,12,GR86-057-57,76.0,0.19,1.268,32.15,1.0,,0.0,0.0,
2025-08-15T02:02:37.057Z,12,GR86-057-57,76.60000000000001,0.114,1.337,32.99,1.0,,0.0,0.0,
2025-08-15T02:02:37.101Z,12,GR86-057-57,76.7,0.134,1.17,33.53,1.0,,0.0,0.0,
2025-08-15T02:02:37.144Z,12,GR86-057-57,76.9,0.158,1.176,35.57,1.0,6169.0,0.0,0.0,
2025-08-15T02:02:37.186Z,12,GR86-057-57,77.10000000000001,0.181,1.105,44.38,1.0,,0.0,0.0,81.22
2025-08-15T02:02:37.230Z,12,GR86-057-57,77.0,0.205,1.058,59.56,1.0,,0.0,0.0,
2025-08-15T02:02:37.272Z,12,GR86-057-57,76.5,0.21,1.126,59.77,1.0,,0.0,0.0,
2025-08-15T02:02:37.315Z,12,GR86-057-57,75.2,0.228,1.166,59.84,1.0,,0.0,0.0,
2025-08-15T02:02:37.358Z,12,GR86-057-57,73.60000000000001,0.256,1.118,58.49,1.0,6060.0,0.0,0.0,
2025-08-15T02:02:37.401Z,12,GR86-057-57,72.2,0.299,1.128,57.2,1.0,,0.0,0.0,82.27
2025-08-15T02:02:37.444Z,12,GR86-057-57,70.10000000000001,0.314,1.115,51.77,1.0,,0.0,0.0,
2025-08-15T02:02:37.487Z,12,GR86-057-57,68.0,0.297,1.12,43.77,1.0,,0.0,0.0,
2025-08-15T02:02:37.531Z,12,GR86-057-57,62.6,0.276,1.101,38.09,1.0,,0.0,0.0,
2025-08-15T02:02:37.574Z,12,GR86-057-57,59.900000000000006,0.238,1.158,38.03,1.0,6440.0,0.0,0.0,
2025-08-15T02:02:37.617Z,12,GR86-057-57,58.3,0.221,1.159,38.51,1.0,,0.0,0.0,83.23
2025-08-15T02:02:37.660Z,12,GR86-057-57,57.2,0.233,1.14,38.81,1.0,,0.0,0.0,
2025-08-15T02:02:37.702Z,12,GR86-057-57,53.1,0.241,1.171,39.56,1.0,,0.0,0.0,
2025-08-15T02:02:37.745Z,12,GR86-057-57,37.1,0.219,1.206,43.4,1.0,,0.0,0.0,
2025-08-15T02:02:37.788Z,12,GR86-057-57,25.3,0.231,1.101,41.41,1.0,6511.0,0.0,0.0,
2025-08-15T02:02:37.831Z,12,GR86-057-57,7.6,0.283,1.058,39.27,1.0,,0.0,0.0,85.05
2025-08-15T02:02:37.874Z,12,GR86-057-57,4.800000000000001,0.312,0.972,39.38,1.0,,0.0,0.0,
2025-08-15T02:02:37.917Z,12,GR86-057-57,4.5,0.3,0.974,43.92,1.0,,0.0,0.0,
2025-08-15T02:02:37.961Z,12,GR86-057-57,7.800000000000001,0.309,0.906,55.52,1.0,,0.0,0.0,
2025-08-15T02:02:38.004Z,12,GR86-057-57,18.9,0.282,0.922,82.0,1.0,6667.0,0.0,0.0,
2025-08-15T02:02:38.046Z,12,GR86-057-57,33.2,0.316,0.919,100.05,1.0,,0.0,0.0,86.73
2025-08-15T02:02:38.090Z,12,GR86-057-57,42.0,0.369,0.873,99.95,1.0,,0.0,0.0,
2025-08-15T02:02:38.134Z,12,GR86-057-57,46.0,0.375,0.8150000000000001,99.96,1.0,,0.0,0.0,
2025-08-15T02:02:38.176Z,12,GR86-057-57,47.1,0.374,0.8320000000000001,99.95,1.0,,0.0,0.0,
2025-08-15T02:02:38.220Z,12,GR86-057-57,46.2,0.366,0.873,99.95,1.0,6715.0,0.0,0.0,
2025-08-15T02:02:38.262Z,12,GR86-057-57,45.400000000000006,0.354,0.73,99.96,1.0,,0.0,0.0,87.93
2025-08-15T02:02:38.306Z,12,GR86-057-57,45.0,0.333,0.664,99.98,1.0,,0.0,0.0,
2025-08-15T02:02:38.348Z,12,GR86-057-57,40.400000000000006,0.292,0.805,99.98,1.0,,0.0,0.0,
2025-08-15T02:02:38.391Z,12,GR86-057-57,33.300000000000004,0.172,0.507,99.97,1.0,,0.0,0.0,
2025-08-15T02:02:38.434Z,12,GR86-057-57,29.5,0.218,0.735,99.98,1.0,6830.0,0.0,0.0,
2025-08-15T02:02:38.477Z,12,GR86-057-57,28.700000000000003,0.365,0.71,99.99,1.0,,0.0,0.0,88.48
2025-08-15T02:02:38.521Z,12,GR86-057-57,29.8,0.441,0.582,99.97,1.0,,0.0,0.0,
2025-08-15T02:02:38.563Z,12,GR86-057-57,30.0,0.416,0.724,99.96,1.0,,0.0,0.0,
2025-08-15T02:02:38.606Z,12,GR86-057-57,28.3,0.33,0.56,99.98,1.0,,0.0,0.0,
2025-08-15T02:02:38.650Z,12,GR86-057-57,21.1,0.414,0.7010000000000001,99.99,1.0,6980.0,0.0,0.0,
2025-08-15T02:02:38.692Z,12,GR86-057-57,15.6,0.277,0.654,99.96,1.0,,0.0,0.0,90.89
2025-08-15T02:02:38.735Z,12,GR86-057-57,11.9,-0.038,0.739,99.96,2.0,,0.0,0.0,
2025-08-15T02:02:38.778Z,12,GR86-057-57,10.9,0.151,0.733,99.98,2.0,,0.0,0.0,
2025-08-15T02:02:38.821Z,12,GR86-057-57,11.2,0.716,0.58,99.98,2.0,,0.0,0.0,
2025-08-15T02:02:38.864Z,12,GR86-057-57,11.4,0.421,0.642,99.98,2.0,7185.0,0.0,0.0,
2025-08-15T02:02:38.908Z,12,GR86-057-57,9.9,0.445,0.716,99.97,2.0,,0.0,0.0,93.12
2025-08-15T02:02:38.951Z,12,GR86-057-57,9.0,0.077,0.283,99.99,2.0,,0.0,0.0,
2025-08-15T02:02:38.994Z,12,GR86-057-57,8.6,0.143,0.54,99.97,2.0,,0.0,0.0,
2025-08-15T02:02:39.037Z,12,GR86-057-57,7.4,0.372,0.58,99.98,2.0,,0.0,0.0,
2025-08-15T02:02:39.081Z,12,GR86-057-57,5.1000000000000005,0.448,0.345,99.97,2.0,6726.0,0.0,0.0,
2025-08-15T02:02:39.124Z,12,GR86-057-57,2.4000000000000004,0.495,0.365,99.98,2.0,,0.0,0.0,95.27
2025-08-15T02:02:39.166Z,12,GR86-057-57,2.0,0.452,0.373,99.98,2.0,,0.0,0.0,
2025-08-15T02:02:39.211Z,12,GR86-057-57,1.1,0.288,0.335,99.97,2.0,,0.0,0.0,
2025-08-15T02:02:39.254Z,12,GR86-057-57,0.3,0.301,0.266,99.98,2.0,,0.0,0.0,
2025-08-15T02:02:39.297Z,12,GR86-057-57,0.0,0.324,0.142,99.98,2.0,5694.0,0.0,0.0,
2025-08-15T02:02:39.341Z,12,GR86-057-57,-0.2,0.337,0.063,99.98,2.0,,0.0,0.0,97.39
2025-08-15T02:02:39.383Z,12,GR86-057-57,-0.3,0.306,0.04,99.99,2.0,,0.0,0.0,
2025-08-15T02:02:39.426Z,12,GR86-057-57,-0.3,0.336,-0.015,99.98,2.0,,0.0,0.0,
2025-08-15T02:02:39.472Z,12,GR86-057-57,-0.3,0.326,-0.004,99.99,2.0,,0.0,0.0,
2025-08-15T02:02:39.514Z,12,GR86-057-57,-0.3,0.315,-0.053,99.98,2.0,5791.0,0.0,0.0,
2025-08-15T02:02:39.557Z,12,GR86-057-57,-0.3,0.312,-0.055,99.98,2.0,,0.0,0.0,99.38
2025-08-15T02:02:39.601Z,12,GR86-057-57,-0.3,0.329,-0.104,99.98,2.0,,0.0,0.0,
2025-08-15T02:02:39.643Z,12,GR86-057-57,-0.2,0.337,-0.11,99.98,2.0,,0.0,0.0,
2025-08-15T02:02:39.686Z,12,GR86-057-57,-0.2,0.316,-0.13,99.97,2.0,,0.0,0.0,
2025-08-15T02:02:39.730Z,12,GR86-057-57,-0.7000000000000001,0.309,-0.081,99.97,2.0,5951.0,0.0,0.0,
2025-08-15T02:02:39.774Z,12,GR86-057-57,-0.9,0.297,-0.054,99.99,2.0,,0.0,0.0,103.12
2025-08-15T02:02:39.817Z,12,GR86-057-57,-1.0,0.282,-0.022,99.99,2.0,,0.0,0.0,
2025-08-15T02:02:39.861Z,12,GR86-057-57,-1.0,0.29,-0.052,99.98,2.0,,0.0,0.0,
2025-08-15T02:02:39.904Z,12,GR86-057-57,-1.3,0.307,-0.024,99.98,2.0,,0.0,0.0,
2025-08-15T02:02:39.946Z,12,GR86-057-57,-1.6,0.256,-0.049,99.98,2.0,6004.0,0.0,0.0,
2025-08-15T02:02:39.990Z,12,GR86-057-57,-2.0,0.269,-0.048,99.98,2.0,,0.0,0.0,104.91
2025-08-15T02:02:40.032Z,12,GR86-057-57,-2.3000000000000003,0.326,-0.035,99.98,2.0,,0.0,0.0,
2025-08-15T02:02:40.075Z,12,GR86-057-57,-2.7,0.29,-0.036,99.98,2.0,,0.0,0.0,
2025-08-15T02:02:40.118Z,12,GR86-057-57,-3.0,0.25,-0.012,99.97,2.0,,0.0,0.0,
2025-08-15T02:02:40.161Z,12,GR86-057-57,-3.1,0.242,-0.03,99.98,2.0,6068.0,0.0,0.0,
2025-08-15T02:02:40.204Z,12,GR86-057-57,-3.4000000000000004,0.258,-0.029,99.98,2.0,,0.0,0.0,106.67
2025-08-15T02:02:40.247Z,12,GR86-057-57,-3.9,0.302,-0.032,99.99,2.0,,0.0,0.0,
2025-08-15T02:02:40.291Z,12,GR86-057-57,-5.2,0.296,-0.043,99.98,2.0,,0.0,0.0,
2025-08-15T02:02:40.334Z,12,GR86-057-57,-6.300000000000001,0.26,-0.083,99.99,2.0,,0.0,0.0,
2025-08-15T02:02:40.376Z,12,GR86-057-57,-6.7,0.254,-0.077,99.99,2.0,6257.0,0.0,0.0,
2025-08-15T02:02:40.420Z,12,GR86-057-57,-6.800000000000001,0.268,-0.09,99.97,2.0,,0.0,0.0,108.49
2025-08-15T02:02:40.462Z,12,GR86-057-57,-6.800000000000001,0.269,-0.112,99.98,2.0,,0.0,0.0,
2025-08-15T02:02:40.507Z,12,GR86-057-57,-6.800000000000001,0.282,-0.105,99.99,2.0,,0.0,0.0,
2025-08-15T02:02:40.550Z,12,GR86-057-57,-6.800000000000001,0.29,-0.116,99.98,2.0,,0.0,0.0,
2025-08-15T02:02:40.592Z,12,GR86-057-57,-6.800000000000001,0.26,-0.145,100.0,2.0,6386.0,0.0,0.0,
2025-08-15T02:02:40.635Z,12,GR86-057-57,-6.800000000000001,0.262,-0.114,99.98,2.0,,0.0,0.0,110.17
2025-08-15T02:02:40.678Z,12,GR86-057-57,-6.7,0.272,-0.122,99.98,2.0,,0.0,0.0,
2025-08-15T02:02:40.721Z,12,GR86-057-57,-6.5,0.27,-0.128,99.98,2.0,,0.0,0.0,
2025-08-15T02:02:40.764Z,12,GR86-057-57,-6.5,0.288,-0.108,99.99,2.0,,0.0,0.0,
2025-08-15T02:02:40.808Z,12,GR86-057-57,-6.5,0.265,-0.127,99.98,2.0,6440.0,0.0,0.0,
2025-08-15T02:02:40.851Z,12,GR86-057-57,-6.5,0.252,-0.126,99.98,2.0,,0.0,0.0,111.78
2025-08-15T02:02:40.894Z,12,GR86-057-57,-6.5,0.26,-0.12,99.98,2.0,,0.0,0.0,
2025-08-15T02:02:40.937Z,12,GR86-057-57,-6.5,0.282,-0.121,99.99,2.0,,0.0,0.0,
2025-08-15T02:02:40.981Z,12,GR86-057-57,-6.4,0.266,-0.144,99.99,2.0,,0.0,0.0,
2025-08-15T02:02:41.023Z,12,GR86-057-57,-6.4,0.26,-0.128,99.98,2.0,6569.0,0.0,0.0,
2025-08-15T02:02:41.066Z,12,GR86-057-57,-6.4,0.274,-0.129,99.98,2.0,,0.0,0.0,113.39
2025-08-15T02:02:41.110Z,12,GR86-057-57,-6.4,0.273,-0.126,99.99,2.0,,0.0,0.0,
2025-08-15T02:02:41.152Z,12,GR86-057-57,-6.2,0.253,-0.128,99.98,2.0,,0.0,0.0,
2025-08-15T02:02:41.195Z,12,GR86-057-57,-6.1000000000000005,0.265,-0.129,99.98,2.0,,0.0,0.0,
2025-08-15T02:02:41.238Z,12,GR86-057-57,-6.0,0.273,-0.118,99.99,2.0,6616.0,0.0,0.0,
2025-08-15T02:02:41.281Z,12,GR86-057-57,-5.9,0.257,-0.116,99.98,2.0,,0.0,0.0,114.9
2025-08-15T02:02:41.324Z,12,GR86-057-57,-5.7,0.268,-0.103,99.98,2.0,,0.0,0.0,
2025-08-15T02:02:41.367Z,12,GR86-057-57,-5.5,0.273,-0.109,99.98,2.0,,0.0,0.0,
2025-08-15T02:02:41.411Z,12,GR86-057-57,-5.300000000000001,0.268,-0.086,99.98,2.0,,0.0,0.0,
2025-08-15T02:02:41.455Z,12,GR86-057-57,-4.9,0.264,-0.083,99.99,2.0,6700.0,0.0,0.0,
2025-08-15T02:02:41.498Z,12,GR86-057-57,-4.7,0.272,-0.069,99.98,2.0,,0.0,0.0,116.39
2025-08-15T02:02:41.541Z,12,GR86-057-57,-4.5,0.269,-0.074,99.98,2.0,,0.0,0.0,
2025-08-15T02:02:41.584Z,12,GR86-057-57,-4.2,0.249,-0.073,99.99,2.0,,0.0,0.0,
2025-08-15T02:02:41.627Z,12,GR86-057-57,-4.2,0.267,-0.047,99.98,2.0,,0.0,0.0,
2025-08-15T02:02:41.672Z,12,GR86-057-57,-4.1000000000000005,0.266,-0.05,100.0,2.0,6814.0,0.0,0.0,
2025-08-15T02:02:41.714Z,12,GR86-057-57,-4.1000000000000005,0.267,-0.039,99.98,2.0,,0.0,0.0,117.85
2025-08-15T02:02:41.757Z,12,GR86-057-57,-3.9,0.253,-0.038,99.98,2.0,,0.0,0.0,
2025-08-15T02:02:41.801Z,12,GR86-057-57,-3.6,0.263,-0.033,99.99,2.0,,0.0,0.0,
2025-08-15T02:02:41.843Z,12,GR86-057-57,-3.1,0.276,-0.028,99.99,2.0,,0.0,0.0,
2025-08-15T02:02:41.886Z,12,GR86-057-57,-2.9000000000000004,0.26,-0.02,99.98,2.0,6890.0,0.0,0.0,
2025-08-15T02:02:41.930Z,12,GR86-057-57,-2.9000000000000004,0.254,-0.017,99.98,2.0,,0.0,0.0,119.23
2025-08-15T02:02:41.972Z,12,GR86-057-57,-2.9000000000000004,0.254,-0.021,99.98,2.0,,0.0,0.0,
2025-08-15T02:02:42.015Z,12,GR86-057-57,-2.8000000000000003,0.263,-0.025,99.98,2.0,,0.0,0.0,
2025-08-15T02:02:42.058Z,12,GR86-057-57,-2.8000000000000003,0.021,-0.011,99.98,3.0,,0.0,0.0,
2025-08-15T02:02:42.101Z,12,GR86-057-57,-2.8000000000000003,-0.017,0.014,99.98,3.0,6970.0,0.0,0.0,
2025-08-15T02:02:42.144Z,12,GR86-057-57,-1.7000000000000002,0.768,-0.008,99.99,3.0,,0.0,0.0,120.5
2025-08-15T02:02:42.188Z,12,GR86-057-57,-0.7000000000000001,0.441,-0.112,99.98,3.0,,0.0,0.0,
2025-08-15T02:02:42.231Z,12,GR86-057-57,-1.7000000000000002,-0.01,0.058,99.99,3.0,,0.0,0.0,
2025-08-15T02:02:42.274Z,12,GR86-057-57,-1.8,0.089,-0.047,99.99,3.0,,0.0,0.0,
2025-08-15T02:02:42.317Z,12,GR86-057-57,-1.4,0.306,0.008,99.98,3.0,6994.0,0.0,0.0,
2025-08-15T02:02:42.361Z,12,GR86-057-57,-0.9,0.322,0.034,99.98,3.0,,0.0,0.0,121.73
2025-08-15T02:02:42.404Z,12,GR86-057-57,-0.8,0.223,-0.058,99.98,3.0,,0.0,0.0,
2025-08-15T02:02:42.447Z,12,GR86-057-57,-1.3,0.161,0.01,99.99,3.0,,0.0,0.0,
2025-08-15T02:02:42.491Z,12,GR86-057-57,-1.4,0.217,0.006,99.99,3.0,,0.0,0.0,
2025-08-15T02:02:42.534Z,12,GR86-057-57,-1.3,0.262,0.028,99.99,3.0,5810.0,0.0,0.0,
2025-08-15T02:02:42.577Z,12,GR86-057-57,-1.1,0.244,0.008,99.99,3.0,,0.0,0.0,123.92
2025-08-15T02:02:42.621Z,12,GR86-057-57,-1.1,0.205,0.017,99.99,3.0,,0.0,0.0,
2025-08-15T02:02:42.664Z,12,GR86-057-57,-1.1,0.191,0.014,99.98,3.0,,0.0,0.0,
2025-08-15T02:02:42.707Z,12,GR86-057-57,-1.0,0.209,0.018,99.98,3.0,,0.0,0.0,
2025-08-15T02:02:42.751Z,12,GR86-057-57,-1.0,0.23,0.015,99.98,3.0,5820.0,0.0,0.0,
2025-08-15T02:02:42.793Z,12,GR86-057-57,-0.9,0.214,0.003,99.98,3.0,,0.0,0.0,124.81
2025-08-15T02:02:42.837Z,12,GR86-057-57,-0.9,0.203,0.029,99.98,3.0,,0.0,0.0,
2025-08-15T02:02:42.880Z,12,GR86-057-57,-0.9,0.202,0.028,99.98,3.0,,0.0,0.0,
2025-08-15T02:02:42.922Z,12,GR86-057-57,-0.9,0.228,0.027,99.99,3.0,,0.0,0.0,
2025-08-15T02:02:42.966Z,12,GR86-057-57,-0.6000000000000001,0.233,0.048,99.98,3.0,5816.0,0.0,0.0,
2025-08-15T02:02:43.008Z,12,GR86-057-57,-0.2,0.215,0.039,99.99,3.0,,0.0,0.0,125.69
2025-08-15T02:02:43.051Z,12,GR86-057-57,0.9,0.209,0.056,99.98,3.0,,0.0,0.0,
2025-08-15T02:02:43.094Z,12,GR86-057-57,1.5,0.203,0.052,99.98,3.0,,0.0,0.0,
2025-08-15T02:02:43.137Z,12,GR86-057-57,1.5,0.215,0.061,99.99,3.0,,0.0,0.0,
2025-08-15T02:02:43.181Z,12,GR86-057-57,1.2000000000000002,0.232,0.068,99.99,3.0,5884.0,0.0,0.0,
2025-08-15T02:02:43.223Z,12,GR86-057-57,1.0,0.221,0.075,99.98,3.0,,0.0,0.0,126.53
2025-08-15T02:02:43.268Z,12,GR86-057-57,1.0,0.199,0.072,99.99,3.0,,0.0,0.0,
2025-08-15T02:02:43.311Z,12,GR86-057-57,1.0,0.219,0.08,99.98,3.0,,0.0,0.0,
2025-08-15T02:02:43.354Z,12,GR86-057-57,1.0,0.207,0.069,99.98,3.0,,0.0,0.0,
2025-08-15T02:02:43.397Z,12,GR86-057-57,1.0,0.231,0.086,99.98,3.0,5937.0,0.0,0.0,
2025-08-15T02:02:43.441Z,12,GR86-057-57,1.0,0.201,0.079,99.99,3.0,,0.0,0.0,127.33
2025-08-15T02:02:43.483Z,12,GR86-057-57,1.0,0.2,0.088,99.98,3.0,,0.0,0.0,
2025-08-15T02:02:43.526Z,12,GR86-057-57,1.0,0.213,0.087,99.99,3.0,,0.0,0.0,
2025-08-15T02:02:43.571Z,12,GR86-057-57,1.0,0.215,0.089,99.99,3.0,,0.0,0.0,
2025-08-15T02:02:43.614Z,12,GR86-057-57,0.8,0.207,0.101,99.99,3.0,5975.0,0.0,0.0,
2025-08-15T02:02:43.657Z,12,GR86-057-57,0.7000000000000001,0.202,0.1,99.98,3.0,,0.0,0.0,128.15
2025-08-15T02:02:43.701Z,12,GR86-057-57,0.7000000000000001,0.2,0.085,99.99,3.0,,0.0,0.0,
2025-08-15T02:02:43.744Z,12,GR86-057-57,0.7000000000000001,0.235,0.104,99.99,3.0,,0.0,0.0,
2025-08-15T02:02:43.786Z,12,GR86-057-57,0.9,0.206,0.094,97.08,3.0,,0.0,0.0,
2025-08-15T02:02:43.830Z,12,GR86-057-57,3.0,0.214,0.103,4.25,3.0,6006.0,0.0,0.0,
2025-08-15T02:02:43.872Z,12,GR86-057-57,5.7,0.211,0.09,4.92,3.0,,0.0,0.0,128.99
2025-08-15T02:02:43.915Z,12,GR86-057-57,8.5,-0.009,0.143,4.74,3.0,,0.0,0.0,
2025-08-15T02:02:43.960Z,12,GR86-057-57,9.7,-0.085,0.229,4.46,3.0,,0.0,0.0,
2025-08-15T02:02:44.002Z,12,GR86-057-57,9.6,-0.333,0.21,4.03,3.0,,5.28,5.705,
2025-08-15T02:02:44.045Z,12,GR86-057-57,9.0,-0.286,0.226,3.66,3.0,6038.0,18.265,18.495,
2025-08-15T02:02:44.088Z,12,GR86-057-57,8.8,-0.309,0.287,3.37,3.0,,20.205,20.63,129.88
2025-08-15T02:02:44.131Z,12,GR86-057-57,8.8,-0.388,0.215,3.12,3.0,,21.0,21.47,
2025-08-15T02:02:44.174Z,12,GR86-057-57,8.8,-0.394,0.326,3.02,3.0,,22.125,22.19,
2025-08-15T02:02:44.217Z,12,GR86-057-57,9.4,-0.506,0.294,2.96,3.0,,24.31,24.235,
2025-08-15T02:02:44.261Z,12,GR86-057-57,10.0,-0.5680000000000001,0.332,2.9,3.0,5647.0,28.46,28.245,
2025-08-15T02:02:44.304Z,12,GR86-057-57,10.6,-0.614,0.389,2.84,3.0,,33.495,33.160000000000004,130.73
2025-08-15T02:02:44.346Z,12,GR86-057-57,10.6,-0.6880000000000001,0.367,2.77,3.0,,37.42,37.145,
2025-08-15T02:02:44.390Z,12,GR86-057-57,10.6,-0.792,0.408,2.69,3.0,,40.685,40.395,
2025-08-15T02:02:44.434Z,12,GR86-057-57,10.6,-0.835,0.449,2.64,3.0,,41.615,41.705,
2025-08-15T02:02:44.476Z,12,GR86-057-57,10.7,-0.856,0.481,2.61,3.0,5769.0,41.615,41.735,
2025-08-15T02:02:44.520Z,12,GR86-057-57,11.2,-0.836,0.494,2.58,3.0,,41.4,41.52,129.23
2025-08-15T02:02:44.562Z,12,GR86-057-57,11.5,-0.857,0.486,2.52,3.0,,41.52,42.24,
2025-08-15T02:02:44.606Z,12,GR86-057-57,11.5,-0.8260000000000001,0.497,2.48,3.0,,40.96,41.52,
2025-08-15T02:02:44.648Z,12,GR86-057-57,11.5,-0.855,0.498,32.71,3.0,,40.56,41.37,
2025-08-15T02:02:44.691Z,12,GR86-057-57,12.0,-0.852,0.537,45.73,2.0,5479.0,38.93,40.21,
2025-08-15T02:02:44.734Z,12,GR86-057-57,12.1,-1.015,0.442,5.1000000000000005,2.0,,37.8,39.22,124.93
2025-08-15T02:02:44.777Z,12,GR86-057-57,12.2,-0.763,0.521,3.78,2.0,,36.7,37.74,
2025-08-15T02:02:44.821Z,12,GR86-057-57,12.9,-0.764,0.634,3.51,2.0,,34.12,34.99,
2025-08-15T02:02:44.863Z,12,GR86-057-57,13.2,-0.917,0.67,3.25,2.0,,30.675,31.39,
2025-08-15T02:02:44.906Z,12,GR86-057-57,13.2,-0.758,0.753,3.12,2.0,5135.0,28.095,28.78,
2025-08-15T02:02:44.950Z,12,GR86-057-57,13.0,-0.599,0.809,3.03,2.0,,18.8,19.61,119.67
2025-08-15T02:02:44.992Z,12,GR86-057-57,12.5,-0.459,0.964,2.99,2.0,,14.635,15.245,
2025-08-15T02:02:45.035Z,12,GR86-057-57,12.2,-0.589,0.906,2.9,2.0,,11.675,12.53,
2025-08-15T02:02:45.078Z,12,GR86-057-57,11.8,-0.344,0.908,2.85,2.0,,9.69,10.055,
2025-08-15T02:02:45.121Z,12,GR86-057-57,11.5,-0.386,0.948,2.79,2.0,5296.0,7.765000000000001,8.485,
2025-08-15T02:02:45.165Z,12,GR86-057-57,11.7,-0.372,0.951,2.7,2.0,,6.9,7.37,113.94
2025-08-15T02:02:45.208Z,12,GR86-057-57,13.4,-0.388,0.984,2.63,2.0,,6.575,6.96,
2025-08-15T02:02:45.251Z,12,GR86-057-57,19.6,-0.266,0.916,2.52,2.0,,4.625,5.08,
2025-08-15T02:02:45.294Z,12,GR86-057-57,22.200000000000003,-0.257,0.98,2.5,2.0,,3.875,4.21,
2025-08-15T02:02:45.337Z,12,GR86-057-57,22.5,-0.309,0.943,2.49,2.0,5405.0,3.97,4.5,
2025-08-15T02:02:45.381Z,12,GR86-057-57,22.6,-0.239,0.89,2.45,2.0,,4.21,4.5,104.72
2025-08-15T02:02:45.424Z,12,GR86-057-57,24.3,-0.251,0.88,2.45,2.0,,4.565,5.08,
2025-08-15T02:02:45.466Z,12,GR86-057-57,28.700000000000003,-0.228,0.902,2.45,2.0,,4.565,4.835,
2025-08-15T02:02:45.511Z,12,GR86-057-57,39.5,-0.279,0.887,2.45,2.0,,4.9,5.28,
2025-08-15T02:02:45.554Z,12,GR86-057-57,48.400000000000006,-0.28,0.902,2.45,2.0,5468.0,5.28,5.905,
2025-08-15T02:02:45.597Z,12,GR86-057-57,56.3,-0.268,0.972,2.45,2.0,,5.9350000000000005,6.15,101.79
2025-08-15T02:02:45.641Z,12,GR86-057-57,59.1,-0.287,0.994,2.45,2.0,,7.495,7.890000000000001,
2025-08-15T02:02:45.683Z,12,GR86-057-57,58.1,-0.305,0.998,2.42,2.0,,9.28,9.6,
2025-08-15T02:02:45.727Z,12,GR86-057-57,56.0,-0.373,0.989,2.42,2.0,,11.215,11.49,
2025-08-15T02:02:45.772Z,12,GR86-057-57,55.5,-0.39,1.013,2.45,2.0,5469.0,13.2,13.58,
2025-08-15T02:02:45.814Z,12,GR86-057-57,54.400000000000006,-0.386,1.061,2.45,2.0,,13.765,14.025,98.95
2025-08-15T02:02:45.857Z,12,GR86-057-57,50.400000000000006,-0.408,1.103,2.44,2.0,,13.995,14.545,
