timestamp,lap,vehicle_id,steering_angle,accx_can,accy_can,ath,gear,nmot,pbrake_f,pbrake_r,speed
2025-08-15T02:45:01.059Z,17,GR86-030-18,1.7000000000000002,0.106,-0.043,99.91,4.0,,0.0,0.0,
2025-08-15T02:45:01.101Z,17,GR86-030-18,2.0,0.086,-0.048,99.89,4.0,6966.0,0.0,0.0,
2025-08-15T02:45:01.144Z,17,GR86-030-18,2.2,0.095,-0.048,99.86,4.0,,0.0,0.0,177.65
2025-08-15T02:45:01.189Z,17,GR86-030-18,2.2,0.08,-0.054,99.89,4.0,,0.0,0.0,
2025-08-15T02:45:01.231Z,17,GR86-030-18,2.1,0.085,-0.046,99.88,4.0,,0.0,0.0,
2025-08-15T02:45:01.274Z,17,GR86-030-18,2.0,0.094,-0.035,99.87,4.0,,0.0,0.0,
2025-08-15T02:45:01.317Z,17,GR86-030-18,1.6,0.076,-0.032,99.88,4.0,6991.0,0.0,0.0,
2025-08-15T02:45:01.360Z,17,GR86-030-18,0.8,0.128,-0.008,99.89,4.0,,0.0,0.0,178.3
2025-08-15T02:45:01.403Z,17,GR86-030-18,0.7000000000000001,0.132,0.003,99.9,4.0,,0.0,0.0,
2025-08-15T02:45:01.446Z,17,GR86-030-18,0.9,0.118,0.012,99.9,4.0,,0.0,0.0,
2025-08-15T02:45:01.490Z,17,GR86-030-18,1.1,0.134,0.012,99.87,4.0,,0.0,0.0,
2025-08-15T02:45:01.533Z,17,GR86-030-18,1.2000000000000002,0.116,0.006,99.9,4.0,7008.0,0.0,0.0,
2025-08-15T02:45:01.576Z,17,GR86-030-18,1.4,0.112,0.002,99.88,4.0,,0.0,0.0,179.12
2025-08-15T02:45:01.620Z,17,GR86-030-18,1.7000000000000002,0.082,-0.013,99.89,4.0,,0.0,0.0,
2025-08-15T02:45:01.663Z,17,GR86-030-18,1.6,0.1,-0.015,99.89,4.0,,0.0,0.0,
2025-08-15T02:45:01.706Z,17,GR86-030-18,1.4,0.098,-0.023,99.86,4.0,,0.0,0.0,
2025-08-15T02:45:01.750Z,17,GR86-030-18,1.2000000000000002,0.095,-0.022,99.9,4.0,7065.0,0.0,0.0,
2025-08-15T02:45:01.793Z,17,GR86-030-18,1.1,0.099,-0.022,99.86,4.0,,0.0,0.0,179.68
2025-08-15T02:45:01.836Z,17,GR86-030-18,1.2000000000000002,0.092,-0.008,99.88,4.0,,0.0,0.0,
2025-08-15T02:45:01.880Z,17,GR86-030-18,1.2000000000000002,0.096,-0.018,99.89,4.0,,0.0,0.0,
2025-08-15T02:45:01.923Z,17,GR86-030-18,1.2000000000000002,0.09,-0.035,99.87,4.0,,0.0,0.0,
2025-08-15T02:45:01.967Z,17,GR86-030-18,1.3,0.096,-0.036,99.88,4.0,7098.0,0.0,0.0,
2025-08-15T02:45:02.010Z,17,GR86-030-18,1.4,0.088,-0.024,99.86,4.0,,0.0,0.0,180.48
2025-08-15T02:45:02.053Z,17,GR86-030-18,1.5,0.09,-0.031,99.88,4.0,,0.0,0.0,
2025-08-15T02:45:02.097Z,17,GR86-030-18,1.5,0.09,-0.029,99.87,4.0,,0.0,0.0,
2025-08-15T02:45:02.141Z,17,GR86-030-18,1.6,0.102,-0.026,99.89,4.0,,0.0,0.0,
2025-08-15T02:45:02.183Z,17,GR86-030-18,1.7000000000000002,0.1,-0.015,99.86,4.0,7119.0,0.0,0.0,
2025-08-15T02:45:02.226Z,17,GR86-030-18,1.8,0.11,-0.016,99.88,4.0,,0.0,0.0,181.13
2025-08-15T02:45:02.270Z,17,GR86-030-18,2.0,0.115,-0.015,99.9,4.0,,0.0,0.0,
2025-08-15T02:45:02.313Z,17,GR86-030-18,2.1,0.119,-0.015,99.89,4.0,,0.0,0.0,
2025-08-15T02:45:02.356Z,17,GR86-030-18,2.0,0.109,-0.008,99.87,4.0,,0.0,0.0,
2025-08-15T02:45:02.400Z,17,GR86-030-18,1.8,0.083,-0.019,99.89,4.0,7148.0,0.0,0.0,
2025-08-15T02:45:02.443Z,17,GR86-030-18,1.8,0.09,-0.008,99.86,4.0,,0.0,0.0,181.92
2025-08-15T02:45:02.486Z,17,GR86-030-18,1.7000000000000002,0.096,0.0,99.87,4.0,,0.0,0.0,
2025-08-15T02:45:02.530Z,17,GR86-030-18,1.5,0.101,-0.01,99.88,4.0,,0.0,0.0,
2025-08-15T02:45:02.616Z,17,GR86-030-18,1.4,0.069,-0.006,99.9,4.0,7170.0,0.0,0.0,
2025-08-15T02:45:02.660Z,17,GR86-030-18,1.8,0.127,0.006,99.91,4.0,,0.0,0.0,182.57
2025-08-15T02:45:02.703Z,17,GR86-030-18,2.0,0.085,0.018,99.89,4.0,,0.0,0.0,
2025-08-15T02:45:02.746Z,17,GR86-030-18,2.3000000000000003,0.092,0.018,99.88,4.0,,0.0,0.0,
2025-08-15T02:45:02.790Z,17,GR86-030-18,2.2,0.095,0.003,99.86,4.0,,0.0,0.0,
2025-08-15T02:45:02.833Z,17,GR86-030-18,2.2,0.087,0.0,99.87,4.0,7201.0,0.0,0.0,
2025-08-15T02:45:02.876Z,17,GR86-030-18,2.2,0.071,0.016,99.92,4.0,,0.0,0.0,183.25
2025-08-15T02:45:02.920Z,17,GR86-030-18,1.9,0.089,0.03,99.86,4.0,,0.0,0.0,
2025-08-15T02:45:02.963Z,17,GR86-030-18,1.6,-0.165,0.053,99.88,5.0,,0.0,0.0,
2025-08-15T02:45:03.006Z,17,GR86-030-18,1.8,0.253,0.069,99.89,5.0,,0.0,0.0,
2025-08-15T02:45:03.050Z,17,GR86-030-18,2.0,0.267,-0.023,99.86,5.0,7226.0,0.0,0.0,
2025-08-15T02:45:03.093Z,17,GR86-030-18,1.8,0.118,-0.003,99.86,5.0,,0.0,0.0,183.88
2025-08-15T02:45:03.135Z,17,GR86-030-18,1.8,-0.001,0.062,99.88,5.0,,0.0,0.0,
2025-08-15T02:45:03.179Z,17,GR86-030-18,1.8,0.096,-0.057,99.86,5.0,,0.0,0.0,
2025-08-15T02:45:03.221Z,17,GR86-030-18,1.9,0.075,0.027,99.9,5.0,,0.0,0.0,
2025-08-15T02:45:03.264Z,17,GR86-030-18,2.0,0.01,-0.019,99.86,5.0,7139.0,0.0,0.0,
2025-08-15T02:45:03.307Z,17,GR86-030-18,2.0,0.019,-0.024,99.9,5.0,,0.0,0.0,184.66
2025-08-15T02:45:03.350Z,17,GR86-030-18,2.0,0.068,0.007,99.89,5.0,,0.0,0.0,
2025-08-15T02:45:03.393Z,17,GR86-030-18,2.3000000000000003,0.036,-0.01,99.9,5.0,,0.0,0.0,
2025-08-15T02:45:03.480Z,17,GR86-030-18,2.4000000000000004,0.023,0.007,99.86,5.0,6272.0,0.0,0.0,
2025-08-15T02:45:03.523Z,17,GR86-030-18,2.6,0.122,0.045,99.86,5.0,,0.0,0.0,185.12
2025-08-15T02:45:03.567Z,17,GR86-030-18,2.2,0.086,0.048,99.87,5.0,,0.0,0.0,
2025-08-15T02:45:03.610Z,17,GR86-030-18,1.8,0.093,0.041,99.87,5.0,,0.0,0.0,
2025-08-15T02:45:03.653Z,17,GR86-030-18,1.8,0.092,0.03,99.87,5.0,,0.0,0.0,
2025-08-15T02:45:03.696Z,17,GR86-030-18,1.9,0.079,0.024,99.89,5.0,6351.0,0.0,0.0,
2025-08-15T02:45:03.740Z,17,GR86-030-18,1.8,0.073,0.03,99.89,5.0,,0.0,0.0,186.21
2025-08-15T02:45:03.783Z,17,GR86-030-18,1.7000000000000002,0.09,0.033,99.86,5.0,,0.0,0.0,
2025-08-15T02:45:03.826Z,17,GR86-030-18,1.7000000000000002,0.087,0.031,99.87,5.0,,0.0,0.0,
2025-08-15T02:45:03.870Z,17,GR86-030-18,1.7000000000000002,0.087,0.03,99.85,5.0,,0.0,0.0,
2025-08-15T02:45:03.913Z,17,GR86-030-18,1.6,0.094,0.017,99.89,5.0,6340.0,0.0,0.0,
2025-08-15T02:45:03.956Z,17,GR86-030-18,1.7000000000000002,0.097,0.018,99.86,5.0,,0.0,0.0,186.89
2025-08-15T02:45:04.000Z,17,GR86-030-18,1.6,0.04,-0.002,99.88,5.0,,0.0,0.0,
2025-08-15T02:45:04.043Z,17,GR86-030-18,1.5,0.04,-0.015,99.9,5.0,,0.0,0.0,
2025-08-15T02:45:04.086Z,17,GR86-030-18,1.6,0.038,-0.03,99.86,5.0,,0.0,0.0,
2025-08-15T02:45:04.130Z,17,GR86-030-18,1.8,0.042,-0.021,99.89,5.0,6363.0,0.0,0.0,
2025-08-15T02:45:04.173Z,17,GR86-030-18,2.0,0.054,-0.007,99.87,5.0,,0.0,0.0,187.4
2025-08-15T02:45:04.215Z,17,GR86-030-18,2.6,0.026,-0.004,99.89,5.0,,0.0,0.0,
2025-08-15T02:45:04.259Z,17,GR86-030-18,2.8000000000000003,0.086,0.009,99.88,5.0,,0.0,0.0,
2025-08-15T02:45:04.303Z,17,GR86-030-18,2.5,0.103,0.012,99.9,5.0,,0.0,0.0,
2025-08-15T02:45:04.346Z,17,GR86-030-18,2.0,0.082,0.017,99.88,5.0,6411.0,0.0,0.0,
2025-08-15T02:45:04.433Z,17,GR86-030-18,1.8,0.056,0.004,99.88,5.0,,0.0,0.0,188.01
2025-08-15T02:45:04.476Z,17,GR86-030-18,1.8,0.064,0.02,99.87,5.0,,0.0,0.0,
2025-08-15T02:45:04.520Z,17,GR86-030-18,1.8,0.091,0.028,99.87,5.0,,0.0,0.0,
2025-08-15T02:45:04.563Z,17,GR86-030-18,1.8,0.086,0.028,99.89,5.0,6421.0,0.0,0.0,
2025-08-15T02:45:04.606Z,17,GR86-030-18,1.9,0.106,0.023,99.88,5.0,,0.0,0.0,188.59
2025-08-15T02:45:04.650Z,17,GR86-030-18,1.9,0.098,0.015,99.86,5.0,,0.0,0.0,
2025-08-15T02:45:04.693Z,17,GR86-030-18,1.9,0.093,0.021,99.87,5.0,,0.0,0.0,
2025-08-15T02:45:04.735Z,17,GR86-030-18,1.9,0.084,0.023,99.86,5.0,,0.0,0.0,
2025-08-15T02:45:04.779Z,17,GR86-030-18,1.7000000000000002,0.05,0.018,99.86,5.0,6438.0,0.0,0.0,
2025-08-15T02:45:04.864Z,17,GR86-030-18,1.3,0.063,0.008,99.88,5.0,,0.0,0.0,189.02
2025-08-15T02:45:04.907Z,17,GR86-030-18,1.3,0.068,0.0,99.86,5.0,,0.0,0.0,
2025-08-15T02:45:04.950Z,17,GR86-030-18,1.3,0.077,-0.014,99.87,5.0,,0.0,0.0,
2025-08-15T02:45:04.993Z,17,GR86-030-18,1.3,0.073,-0.012,99.87,5.0,6459.0,0.0,0.0,
2025-08-15T02:45:05.037Z,17,GR86-030-18,1.3,0.095,0.008,99.86,5.0,,0.0,0.0,189.57
2025-08-15T02:45:05.080Z,17,GR86-030-18,1.1,0.062,0.008,99.89,5.0,,0.0,0.0,
2025-08-15T02:45:05.123Z,17,GR86-030-18,0.9,0.043,-0.011,99.87,5.0,,0.0,0.0,
2025-08-15T02:45:05.166Z,17,GR86-030-18,0.7000000000000001,0.044,-0.027,99.87,5.0,,0.0,0.0,
2025-08-15T02:45:05.210Z,17,GR86-030-18,0.5,0.064,-0.037,99.86,5.0,6483.0,0.0,0.0,
2025-08-15T02:45:05.253Z,17,GR86-030-18,0.4,0.04,-0.027,99.88,5.0,,0.0,0.0,190.28
2025-08-15T02:45:05.297Z,17,GR86-030-18,0.2,0.059,-0.047,99.87,5.0,,0.0,0.0,
2025-08-15T02:45:05.340Z,17,GR86-030-18,-0.5,0.082,-0.071,99.89,5.0,,0.0,0.0,
2025-08-15T02:45:05.383Z,17,GR86-030-18,-0.5,0.067,-0.079,99.86,5.0,,0.0,0.0,
2025-08-15T02:45:05.426Z,17,GR86-030-18,-0.1,0.048,-0.058,99.86,5.0,6503.0,0.0,0.0,
2025-08-15T02:45:05.513Z,17,GR86-030-18,0.7000000000000001,0.073,-0.061,99.88,5.0,,0.0,0.0,190.83
2025-08-15T02:45:05.557Z,17,GR86-030-18,2.3000000000000003,0.042,-0.058,99.87,5.0,,0.0,0.0,
2025-08-15T02:45:05.600Z,17,GR86-030-18,2.6,0.093,-0.056,99.86,5.0,,0.0,0.0,
2025-08-15T02:45:05.643Z,17,GR86-030-18,2.4000000000000004,0.083,-0.056,99.86,5.0,6520.0,0.0,0.0,
2025-08-15T02:45:05.686Z,17,GR86-030-18,2.4000000000000004,0.082,-0.052,99.88,5.0,,0.0,0.0,191.52
2025-08-15T02:45:05.730Z,17,GR86-030-18,2.1,0.069,-0.037,99.87,5.0,,0.0,0.0,
2025-08-15T02:45:05.773Z,17,GR86-030-18,1.7000000000000002,0.075,-0.024,99.87,5.0,,0.0,0.0,
2025-08-15T02:45:05.815Z,17,GR86-030-18,1.3,0.055,-0.006,99.86,5.0,,0.0,0.0,
2025-08-15T02:45:05.859Z,17,GR86-030-18,0.9,0.071,0.018,99.86,5.0,6533.0,0.0,0.0,
2025-08-15T02:45:05.944Z,17,GR86-030-18,0.8,0.08,0.023,99.86,5.0,,0.0,0.0,191.98
2025-08-15T02:45:06.030Z,17,GR86-030-18,0.7000000000000001,0.072,0.018,99.86,5.0,,0.0,0.0,
2025-08-15T02:45:06.073Z,17,GR86-030-18,0.7000000000000001,0.07,0.002,99.86,5.0,6550.0,0.0,0.0,
2025-08-15T02:45:06.116Z,17,GR86-030-18,0.7000000000000001,0.073,-0.035,99.87,5.0,,0.0,0.0,192.71
2025-08-15T02:45:06.160Z,17,GR86-030-18,0.7000000000000001,0.06,-0.04,99.9,5.0,,0.0,0.0,
2025-08-15T02:45:06.203Z,17,GR86-030-18,0.7000000000000001,0.077,-0.024,99.88,5.0,,0.0,0.0,
2025-08-15T02:45:06.246Z,17,GR86-030-18,0.9,0.071,-0.023,99.86,5.0,,0.0,0.0,
2025-08-15T02:45:06.290Z,17,GR86-030-18,1.2000000000000002,0.081,-0.002,99.86,5.0,6579.0,0.0,0.0,
2025-08-15T02:45:06.332Z,17,GR86-030-18,1.2000000000000002,0.081,0.018,99.86,5.0,,0.0,0.0,193.14
2025-08-15T02:45:06.375Z,17,GR86-030-18,1.2000000000000002,0.07,0.011,99.88,5.0,,0.0,0.0,
2025-08-15T02:45:06.419Z,17,GR86-030-18,1.4,0.048,-0.028,99.85,5.0,,0.0,0.0,
2025-08-15T02:45:06.463Z,17,GR86-030-18,1.6,0.071,0.001,99.86,5.0,,0.0,0.0,
2025-08-15T02:45:06.506Z,17,GR86-030-18,1.6,0.077,0.016,99.87,5.0,6591.0,0.0,0.0,
2025-08-15T02:45:06.550Z,17,GR86-030-18,1.5,0.073,0.011,99.9,5.0,,0.0,0.0,194.19
2025-08-15T02:45:06.593Z,17,GR86-030-18,1.4,0.093,-0.002,99.87,5.0,,0.0,0.0,
2025-08-15T02:45:06.636Z,17,GR86-030-18,1.4,0.089,0.005,99.87,5.0,,0.0,0.0,
2025-08-15T02:45:06.680Z,17,GR86-030-18,1.5,0.047,0.0,99.88,5.0,,0.0,0.0,
2025-08-15T02:45:06.723Z,17,GR86-030-18,1.4,0.064,0.004,99.87,5.0,6615.0,0.0,0.0,
2025-08-15T02:45:06.765Z,17,GR86-030-18,1.1,0.07,0.029,99.88,5.0,,0.0,0.0,194.73
2025-08-15T02:45:06.809Z,17,GR86-030-18,0.5,0.098,0.028,99.86,5.0,,0.0,0.0,
2025-08-15T02:45:06.851Z,17,GR86-030-18,0.0,0.078,0.017,99.86,5.0,,0.0,0.0,
2025-08-15T02:45:06.894Z,17,GR86-030-18,0.0,0.091,0.004,99.86,5.0,,0.0,0.0,
2025-08-15T02:45:06.937Z,17,GR86-030-18,0.3,0.082,-0.012,99.89,5.0,6622.0,0.0,0.0,
2025-08-15T02:45:06.980Z,17,GR86-030-18,0.6000000000000001,0.057,-0.047,99.85,5.0,,0.0,0.0,195.13
2025-08-15T02:45:07.024Z,17,GR86-030-18,0.5,0.076,-0.06,99.86,5.0,,0.0,0.0,
2025-08-15T02:45:07.067Z,17,GR86-030-18,0.5,0.096,-0.052,99.86,5.0,,0.0,0.0,
2025-08-15T02:45:07.110Z,17,GR86-030-18,0.4,0.093,-0.052,99.91,5.0,,0.0,0.0,
2025-08-15T02:45:07.153Z,17,GR86-030-18,0.3,0.086,-0.044,99.86,5.0,6652.0,0.0,0.0,
2025-08-15T02:45:07.196Z,17,GR86-030-18,0.4,0.077,-0.054,99.88,5.0,,0.0,0.0,195.69
2025-08-15T02:45:07.241Z,17,GR86-030-18,1.6,0.053,-0.074,99.86,5.0,,0.0,0.0,
2025-08-15T02:45:07.283Z,17,GR86-030-18,2.0,0.08,-0.076,99.89,5.0,,0.0,0.0,
2025-08-15T02:45:07.326Z,17,GR86-030-18,2.3000000000000003,0.079,-0.062,99.86,5.0,,0.0,0.0,
2025-08-15T02:45:07.370Z,17,GR86-030-18,2.5,0.105,-0.027,99.86,5.0,6671.0,0.0,0.0,
2025-08-15T02:45:07.413Z,17,GR86-030-18,2.6,0.077,-0.017,99.87,5.0,,0.0,0.0,196.12
2025-08-15T02:45:07.455Z,17,GR86-030-18,2.6,0.076,-0.022,99.89,5.0,,0.0,0.0,
2025-08-15T02:45:07.499Z,17,GR86-030-18,2.8000000000000003,0.073,-0.005,99.87,5.0,,0.0,0.0,
2025-08-15T02:45:07.541Z,17,GR86-030-18,3.1,0.082,0.042,99.86,5.0,,0.0,0.0,
2025-08-15T02:45:07.584Z,17,GR86-030-18,3.4000000000000004,0.101,0.064,99.87,5.0,6682.0,0.0,0.0,
2025-08-15T02:45:07.627Z,17,GR86-030-18,3.8,0.073,0.074,99.89,5.0,,0.0,0.0,196.6
2025-08-15T02:45:07.670Z,17,GR86-030-18,4.0,0.084,0.068,99.86,5.0,,0.0,0.0,
2025-08-15T02:45:07.713Z,17,GR86-030-18,3.6,0.068,0.063,99.87,5.0,,0.0,0.0,
2025-08-15T02:45:07.756Z,17,GR86-030-18,2.9000000000000004,0.047,0.037,99.87,5.0,,0.0,0.0,
2025-08-15T02:45:07.800Z,17,GR86-030-18,2.0,0.078,0.048,99.89,5.0,6709.0,0.0,0.0,
2025-08-15T02:45:07.843Z,17,GR86-030-18,1.4,0.076,0.038,99.86,5.0,,0.0,0.0,196.99
2025-08-15T02:45:07.886Z,17,GR86-030-18,1.3,0.086,0.063,99.86,5.0,,0.0,0.0,
2025-08-15T02:45:07.930Z,17,GR86-030-18,1.5,0.047,0.069,99.87,5.0,,0.0,0.0,
2025-08-15T02:45:07.973Z,17,GR86-030-18,2.0,0.099,0.077,99.89,5.0,,0.0,0.0,
2025-08-15T02:45:08.016Z,17,GR86-030-18,2.5,0.019,0.05,99.85,5.0,6709.0,0.0,0.0,
2025-08-15T02:45:08.060Z,17,GR86-030-18,3.2,0.087,0.022,99.88,5.0,,0.0,0.0,197.32
2025-08-15T02:45:08.103Z,17,GR86-030-18,3.2,0.091,0.027,99.87,5.0,,0.0,0.0,
2025-08-15T02:45:08.146Z,17,GR86-030-18,3.0,0.065,0.027,99.87,5.0,,0.0,0.0,
2025-08-15T02:45:08.190Z,17,GR86-030-18,2.5,0.054,0.041,99.87,5.0,,0.0,0.0,
2025-08-15T02:45:08.232Z,17,GR86-030-18,2.1,0.039,0.042,99.87,5.0,6737.0,0.0,0.0,
2025-08-15T02:45:08.275Z,17,GR86-030-18,1.8,0.031,0.034,99.87,5.0,,0.0,0.0,197.7
2025-08-15T02:45:08.319Z,17,GR86-030-18,1.2000000000000002,0.077,0.013,99.87,5.0,,0.0,0.0,
2025-08-15T02:45:08.361Z,17,GR86-030-18,0.9,0.06,0.012,99.87,5.0,,0.0,0.0,
2025-08-15T02:45:08.404Z,17,GR86-030-18,0.9,0.064,0.007,99.87,5.0,,0.0,0.0,
2025-08-15T02:45:08.447Z,17,GR86-030-18,1.0,0.042,-0.001,99.87,5.0,6747.0,0.0,0.0,
2025-08-15T02:45:08.490Z,17,GR86-030-18,1.5,0.026,-0.017,99.86,5.0,,0.0,0.0,198.13
2025-08-15T02:45:08.533Z,17,GR86-030-18,2.0,0.03,-0.021,99.86,5.0,,0.0,0.0,
2025-08-15T02:45:08.576Z,17,GR86-030-18,2.4000000000000004,0.036,-0.015,99.86,5.0,,0.0,0.0,
2025-08-15T02:45:08.620Z,17,GR86-030-18,2.8000000000000003,0.055,0.003,99.87,5.0,,0.0,0.0,
2025-08-15T02:45:08.663Z,17,GR86-030-18,2.8000000000000003,0.025,-0.005,99.88,5.0,6748.0,0.0,0.0,
2025-08-15T02:45:08.706Z,17,GR86-030-18,2.7,0.025,-0.006,99.86,5.0,,0.0,0.0,198.52
2025-08-15T02:45:08.750Z,17,GR86-030-18,2.3000000000000003,0.031,0.012,99.88,5.0,,0.0,0.0,
2025-08-15T02:45:08.793Z,17,GR86-030-18,2.0,0.019,-0.005,99.86,5.0,,0.0,0.0,
2025-08-15T02:45:08.835Z,17,GR86-030-18,1.8,0.045,-0.011,99.87,5.0,,0.0,0.0,
2025-08-15T02:45:08.879Z,17,GR86-030-18,2.1,0.051,0.005,99.86,5.0,6774.0,0.0,0.0,
2025-08-15T02:45:08.921Z,17,GR86-030-18,2.4000000000000004,0.028,0.01,99.87,5.0,,0.0,0.0,198.97
2025-08-15T02:45:08.964Z,17,GR86-030-18,2.5,0.036,0.002,99.87,5.0,,0.0,0.0,
2025-08-15T02:45:09.007Z,17,GR86-030-18,2.6,0.056,0.014,99.88,5.0,,0.0,0.0,
2025-08-15T02:45:09.050Z,17,GR86-030-18,2.7,0.031,0.017,99.87,5.0,,0.0,0.0,
2025-08-15T02:45:09.093Z,17,GR86-030-18,2.7,0.052,0.016,99.85,5.0,6778.0,0.0,0.0,
2025-08-15T02:45:09.136Z,17,GR86-030-18,2.7,0.036,0.018,99.87,5.0,,0.0,0.0,199.32
2025-08-15T02:45:09.180Z,17,GR86-030-18,2.3000000000000003,0.04,0.04,99.87,5.0,,0.0,0.0,
2025-08-15T02:45:09.223Z,17,GR86-030-18,2.0,0.045,0.037,99.87,5.0,,0.0,0.0,
2025-08-15T02:45:09.266Z,17,GR86-030-18,1.9,0.045,0.033,99.87,5.0,,0.0,0.0,
2025-08-15T02:45:09.310Z,17,GR86-030-18,2.0,0.034,0.02,99.86,5.0,6787.0,0.0,0.0,
2025-08-15T02:45:09.353Z,17,GR86-030-18,2.0,0.051,0.019,99.88,5.0,,0.0,0.0,200.09
2025-08-15T02:45:09.396Z,17,GR86-030-18,1.9,0.058,0.029,99.85,5.0,,0.0,0.0,
2025-08-15T02:45:09.440Z,17,GR86-030-18,0.4,0.044,0.017,99.87,5.0,,0.0,0.0,
2025-08-15T02:45:09.483Z,17,GR86-030-18,-0.8,0.041,-0.01,99.87,5.0,,0.0,0.0,
2025-08-15T02:45:09.526Z,17,GR86-030-18,-1.3,0.044,-0.038,99.86,5.0,6815.0,0.0,0.0,
2025-08-15T02:45:09.570Z,17,GR86-030-18,-0.9,0.065,-0.041,99.87,5.0,,0.0,0.0,200.58
2025-08-15T02:45:09.613Z,17,GR86-030-18,0.1,0.067,-0.034,99.85,5.0,,0.0,0.0,
2025-08-15T02:45:09.657Z,17,GR86-030-18,0.9,0.075,-0.038,99.88,5.0,,0.0,0.0,
2025-08-15T02:45:09.700Z,17,GR86-030-18,1.4,0.053,-0.07,94.56,5.0,,0.0,0.0,
2025-08-15T02:45:09.743Z,17,GR86-030-18,1.3,0.061,-0.072,30.69,5.0,6830.0,0.0,0.0,
2025-08-15T02:45:09.786Z,17,GR86-030-18,0.6000000000000001,0.083,-0.065,5.11,5.0,,0.0,0.0,200.97
2025-08-15T02:45:09.830Z,17,GR86-030-18,-0.1,-0.014,-0.079,4.69,5.0,,0.0,0.0,
2025-08-15T02:45:09.873Z,17,GR86-030-18,-0.4,-0.195,-0.042,4.26,5.0,,0.0,0.0,
2025-08-15T02:45:09.917Z,17,GR86-030-18,-0.1,-0.42,-0.058,3.81,5.0,,9.6,9.965,
2025-08-15T02:45:09.960Z,17,GR86-030-18,0.1,-0.282,-0.052,3.51,5.0,6847.0,21.595,21.44,
2025-08-15T02:45:10.003Z,17,GR86-030-18,-0.1,-0.488,-0.051,3.38,5.0,,28.34,27.895,201.31
2025-08-15T02:45:10.046Z,17,GR86-030-18,-0.2,-0.641,-0.084,3.23,5.0,,34.87,34.215,
2025-08-15T02:45:10.090Z,17,GR86-030-18,0.0,-0.785,-0.051,2.98,5.0,,40.425,39.615,
2025-08-15T02:45:10.133Z,17,GR86-030-18,0.5,-0.954,-0.073,2.76,5.0,,46.145,45.37,
2025-08-15T02:45:10.176Z,17,GR86-030-18,1.3,-1.008,-0.089,2.65,5.0,6786.0,50.615,49.73,
2025-08-15T02:45:10.220Z,17,GR86-030-18,2.8000000000000003,-1.0,-0.078,2.47,5.0,,52.465,51.93,201.59
2025-08-15T02:45:10.263Z,17,GR86-030-18,3.3000000000000003,-1.035,-0.066,2.36,5.0,,52.74,52.115,
2025-08-15T02:45:10.306Z,17,GR86-030-18,3.0,-1.04,-0.063,2.3000000000000003,5.0,,52.74,52.34,
2025-08-15T02:45:10.350Z,17,GR86-030-18,2.6,-0.998,-0.042,2.29,5.0,,52.495000000000005,52.115,
2025-08-15T02:45:10.393Z,17,GR86-030-18,2.0,-0.965,-0.02,2.29,5.0,6491.0,52.405,52.05,
2025-08-15T02:45:10.437Z,17,GR86-030-18,0.9,-1.002,-0.003,13.67,5.0,,52.34,52.05,197.83
2025-08-15T02:45:10.480Z,17,GR86-030-18,-0.2,-1.087,-0.055,38.74,4.0,,52.405,52.05,
2025-08-15T02:45:10.523Z,17,GR86-030-18,-0.3,-1.308,-0.064,5.12,4.0,,53.09,53.485,
2025-08-15T02:45:10.566Z,17,GR86-030-18,-0.1,-1.134,-0.021,4.54,4.0,,56.065,57.715,
2025-08-15T02:45:10.610Z,17,GR86-030-18,0.2,-1.194,-0.049,4.12,4.0,6255.0,57.41,58.02,
2025-08-15T02:45:10.653Z,17,GR86-030-18,0.1,-1.339,-0.043,3.75,4.0,,59.21,60.31,191.22
2025-08-15T02:45:10.696Z,17,GR86-030-18,0.3,-1.042,-0.082,3.54,4.0,,60.98,62.155,
2025-08-15T02:45:10.740Z,17,GR86-030-18,1.3,-1.101,0.004,3.35,4.0,,57.955,57.33,
2025-08-15T02:45:10.783Z,17,GR86-030-18,1.3,-1.049,-0.031,3.14,4.0,,56.965,56.125,
2025-08-15T02:45:10.826Z,17,GR86-030-18,0.7000000000000001,-1.133,-0.085,2.9,4.0,6335.0,56.525,55.915,
2025-08-15T02:45:10.870Z,17,GR86-030-18,0.0,-1.155,-0.095,2.74,4.0,,56.28,55.915,183.15
2025-08-15T02:45:10.913Z,17,GR86-030-18,-0.5,-1.113,-0.12,2.64,4.0,,56.25,55.915,
2025-08-15T02:45:10.957Z,17,GR86-030-18,-0.3,-1.109,-0.107,2.5500000000000003,4.0,,55.395,55.425,
2025-08-15T02:45:11.000Z,17,GR86-030-18,0.0,-1.214,-0.085,2.46,4.0,,54.175,54.645,
2025-08-15T02:45:11.043Z,17,GR86-030-18,0.5,-1.126,-0.125,2.36,4.0,6624.0,52.8,53.805,
2025-08-15T02:45:11.086Z,17,GR86-030-18,0.9,-1.037,-0.113,2.33,4.0,,51.715,52.8,175.31
2025-08-15T02:45:11.130Z,17,GR86-030-18,1.4,-1.022,-0.092,8.43,4.0,,50.815,52.05,
2025-08-15T02:45:11.173Z,17,GR86-030-18,1.7000000000000002,-0.982,-0.06,48.78,3.0,,49.825,51.305,
2025-08-15T02:45:11.215Z,17,GR86-030-18,2.0,-1.015,-0.055,23.99,3.0,,48.895,50.31,
2025-08-15T02:45:11.259Z,17,GR86-030-18,2.5,-0.978,-0.01,4.48,3.0,6181.0,47.93,49.46,
2025-08-15T02:45:11.301Z,17,GR86-030-18,2.9000000000000004,-1.114,-0.125,4.0600000000000005,3.0,,46.74,47.305,167.56
2025-08-15T02:45:11.344Z,17,GR86-030-18,2.8000000000000003,-1.19,-0.034,3.74,3.0,,44.775,45.49,
2025-08-15T02:45:11.387Z,17,GR86-030-18,2.7,-0.969,-0.041,3.5700000000000003,3.0,,42.775,43.95,
2025-08-15T02:45:11.430Z,17,GR86-030-18,3.4000000000000004,-0.842,-0.211,3.42,3.0,,37.92,37.98,
2025-08-15T02:45:11.473Z,17,GR86-030-18,3.9,-0.926,-0.076,3.3000000000000003,3.0,5939.0,34.99,35.585,
2025-08-15T02:45:11.517Z,17,GR86-030-18,4.0,-0.767,-0.082,3.1,3.0,,34.245,35.085,160.45000000000002
2025-08-15T02:45:11.560Z,17,GR86-030-18,4.0,-0.806,-0.073,2.72,3.0,,33.465,34.215,
2025-08-15T02:45:11.603Z,17,GR86-030-18,3.1,-0.8,-0.029,2.57,3.0,,33.22,33.875,
2025-08-15T02:45:11.646Z,17,GR86-030-18,0.5,-0.787,-0.044,2.46,3.0,,32.84,33.435,
2025-08-15T02:45:11.690Z,17,GR86-030-18,-0.7000000000000001,-0.806,-0.079,2.35,3.0,6243.0,32.14,32.93,
2025-08-15T02:45:11.732Z,17,GR86-030-18,-2.3000000000000003,-0.78,-0.083,2.3000000000000003,3.0,,31.71,32.410000000000004,153.71
2025-08-15T02:45:11.775Z,17,GR86-030-18,-3.9,-0.76,-0.056,2.29,3.0,,31.205,32.075,
2025-08-15T02:45:11.819Z,17,GR86-030-18,-7.800000000000001,-0.757,-0.105,2.3000000000000003,3.0,,29.5,30.365,
2025-08-15T02:45:11.863Z,17,GR86-030-18,-11.5,-0.6920000000000001,-0.128,2.29,3.0,,26.81,27.745,
2025-08-15T02:45:11.906Z,17,GR86-030-18,-14.2,-0.648,-0.26,2.3000000000000003,3.0,6636.0,23.425,24.37,
2025-08-15T02:45:11.950Z,17,GR86-030-18,-15.1,-0.616,-0.329,2.32,3.0,,20.265,21.15,142.05
2025-08-15T02:45:11.993Z,17,GR86-030-18,-14.5,-0.5720000000000001,-0.345,2.32,3.0,,18.89,19.58,
2025-08-15T02:45:12.035Z,17,GR86-030-18,-13.6,-0.538,-0.376,2.34,3.0,,18.86,19.21,
2025-08-15T02:45:12.079Z,17,GR86-030-18,-12.9,-0.533,-0.458,2.38,3.0,,19.79,19.99,
2025-08-15T02:45:12.121Z,17,GR86-030-18,-12.9,-0.5700000000000001,-0.5670000000000001,2.39,3.0,6407.0,20.08,20.295,
2025-08-15T02:45:12.164Z,17,GR86-030-18,-13.5,-0.609,-0.634,2.42,3.0,,20.235,20.6,137.01
2025-08-15T02:45:12.207Z,17,GR86-030-18,-14.5,-0.5720000000000001,-0.626,2.43,3.0,,20.45,20.845,
2025-08-15T02:45:12.250Z,17,GR86-030-18,-14.5,-0.53,-0.657,2.44,3.0,,19.87,20.235,
2025-08-15T02:45:12.293Z,17,GR86-030-18,-14.0,-0.543,-0.7030000000000001,2.45,3.0,,18.465,18.89,
2025-08-15T02:45:12.336Z,17,GR86-030-18,-13.6,-0.543,-0.736,2.46,3.0,6172.0,16.97,17.365000000000002,
2025-08-15T02:45:12.380Z,17,GR86-030-18,-13.6,-0.506,-0.743,2.45,3.0,,14.91,15.365,133.86
2025-08-15T02:45:12.424Z,17,GR86-030-18,-15.0,-0.468,-0.7020000000000001,2.46,3.0,,14.3,14.97,
2025-08-15T02:45:12.467Z,17,GR86-030-18,-16.3,-0.487,-0.763,2.48,3.0,,14.3,14.635,
2025-08-15T02:45:12.510Z,17,GR86-030-18,-18.5,-0.505,-0.798,2.48,3.0,,14.36,14.635,
2025-08-15T02:45:12.553Z,17,GR86-030-18,-21.0,-0.463,-0.765,2.48,3.0,5804.0,14.68,15.03,
2025-08-15T02:45:12.596Z,17,GR86-030-18,-23.9,-0.473,-0.788,2.49,3.0,,14.85,15.03,130.99
2025-08-15T02:45:12.640Z,17,GR86-030-18,-29.1,-0.489,-0.848,2.5,3.0,,13.705,14.175,
2025-08-15T02:45:12.683Z,17,GR86-030-18,-29.6,-0.452,-0.891,2.49,3.0,,10.955,11.31,
2025-08-15T02:45:12.770Z,17,GR86-030-18,-31.1,-0.252,-0.932,2.49,3.0,5711.0,0.0,0.0,
2025-08-15T02:45:12.813Z,17,GR86-030-18,-34.300000000000004,-0.223,-1.032,2.49,3.0,,0.0,0.0,127.56
2025-08-15T02:45:12.855Z,17,GR86-030-18,-35.5,-0.174,-1.02,2.48,3.0,,0.0,0.0,
2025-08-15T02:45:12.899Z,17,GR86-030-18,-35.5,-0.157,-1.069,2.48,3.0,,0.0,0.0,
2025-08-15T02:45:12.941Z,17,GR86-030-18,-35.5,-0.196,-1.06,2.48,3.0,,0.0,0.0,
2025-08-15T02:45:12.984Z,17,GR86-030-18,-35.0,-0.192,-1.139,2.49,3.0,5555.0,0.0,0.0,
2025-08-15T02:45:13.027Z,17,GR86-030-18,-34.2,-0.159,-1.115,2.5500000000000003,3.0,,0.0,0.0,124.53
2025-08-15T02:45:13.070Z,17,GR86-030-18,-33.7,-0.197,-1.093,13.88,3.0,,0.0,0.0,
2025-08-15T02:45:13.113Z,17,GR86-030-18,-33.800000000000004,-0.19,-1.163,19.97,3.0,,0.0,0.0,
2025-08-15T02:45:13.156Z,17,GR86-030-18,-36.3,-0.168,-1.118,20.04,3.0,,0.0,0.0,
2025-08-15T02:45:13.200Z,17,GR86-030-18,-41.0,-0.112,-1.174,21.04,3.0,5533.0,0.0,0.0,
2025-08-15T02:45:13.243Z,17,GR86-030-18,-43.1,-0.149,-1.17,21.62,3.0,,0.0,0.0,122.75
2025-08-15T02:45:13.286Z,17,GR86-030-18,-43.0,-0.136,-1.282,22.41,3.0,,0.0,0.0,
2025-08-15T02:45:13.330Z,17,GR86-030-18,-40.7,-0.05,-1.223,23.38,3.0,,0.0,0.0,
2025-08-15T02:45:13.373Z,17,GR86-030-18,-37.6,0.012,-1.202,24.01,3.0,,0.0,0.0,
2025-08-15T02:45:13.416Z,17,GR86-030-18,-32.4,0.029,-1.233,25.44,3.0,5457.0,0.0,0.0,
2025-08-15T02:45:13.460Z,17,GR86-030-18,-26.200000000000003,0.052,-1.158,28.55,3.0,,0.0,0.0,121.59
2025-08-15T02:45:13.503Z,17,GR86-030-18,-26.6,0.04,-1.16,29.7,3.0,,0.0,0.0,
2025-08-15T02:45:13.546Z,17,GR86-030-18,-29.200000000000003,0.035,-1.15,30.57,3.0,,0.0,0.0,
2025-08-15T02:45:13.590Z,17,GR86-030-18,-37.1,0.085,-1.172,30.84,3.0,,0.0,0.0,
2025-08-15T02:45:13.633Z,17,GR86-030-18,-45.2,0.076,-1.142,30.78,3.0,5677.0,0.0,0.0,
2025-08-15T02:45:13.676Z,17,GR86-030-18,-50.8,0.038,-1.181,30.63,3.0,,0.0,0.0,119.66
2025-08-15T02:45:13.721Z,17,GR86-030-18,-56.7,0.013,-1.233,30.27,3.0,,0.0,0.0,
2025-08-15T02:45:13.764Z,17,GR86-030-18,-55.0,0.079,-1.208,29.97,3.0,,0.0,0.0,
2025-08-15T02:45:13.807Z,17,GR86-030-18,-51.900000000000006,0.046,-1.173,29.93,3.0,,0.0,0.0,
2025-08-15T02:45:13.850Z,17,GR86-030-18,-47.7,0.023,-1.244,29.98,3.0,5609.0,0.0,0.0,
2025-08-15T02:45:13.893Z,17,GR86-030-18,-43.5,0.116,-1.091,31.35,3.0,,0.0,0.0,119.88
2025-08-15T02:45:13.937Z,17,GR86-030-18,-37.8,0.029,-1.188,37.34,3.0,,0.0,0.0,
2025-08-15T02:45:13.980Z,17,GR86-030-18,-28.6,0.038,-1.096,49.48,3.0,,0.0,0.0,
2025-08-15T02:45:14.023Z,17,GR86-030-18,-25.3,0.067,-1.096,52.68,3.0,,0.0,0.0,
2025-08-15T02:45:14.066Z,17,GR86-030-18,-25.0,0.172,-1.17,56.01,3.0,5623.0,0.0,0.0,
2025-08-15T02:45:14.110Z,17,GR86-030-18,-26.200000000000003,0.166,-1.109,65.38,3.0,,0.0,0.0,118.91
2025-08-15T02:45:14.153Z,17,GR86-030-18,-28.1,0.164,-1.094,67.81,3.0,,0.0,0.0,
2025-08-15T02:45:14.196Z,17,GR86-030-18,-30.9,0.188,-1.09,66.51,3.0,,0.0,0.0,
2025-08-15T02:45:14.240Z,17,GR86-030-18,-34.0,0.183,-1.089,65.4,3.0,,0.0,0.0,
2025-08-15T02:45:14.283Z,17,GR86-030-18,-33.300000000000004,0.156,-1.116,65.12,3.0,5642.0,0.0,0.0,
2025-08-15T02:45:14.326Z,17,GR86-030-18,-31.6,0.154,-1.118,67.45,3.0,,0.0,0.0,119.93
2025-08-15T02:45:14.370Z,17,GR86-030-18,-30.700000000000003,0.207,-1.122,71.75,3.0,,0.0,0.0,
2025-08-15T02:45:14.413Z,17,GR86-030-18,-31.0,0.155,-1.05,81.23,3.0,,0.0,0.0,
2025-08-15T02:45:14.456Z,17,GR86-030-18,-32.1,0.143,-1.048,93.55,3.0,,0.0,0.0,
2025-08-15T02:45:14.500Z,17,GR86-030-18,-34.0,0.167,-1.053,99.89,3.0,5731.0,0.0,0.0,
2025-08-15T02:45:14.543Z,17,GR86-030-18,-36.0,0.204,-1.015,99.87,3.0,,0.0,0.0,120.33
2025-08-15T02:45:14.586Z,17,GR86-030-18,-38.0,0.161,-0.99,99.86,3.0,,0.0,0.0,
2025-08-15T02:45:14.630Z,17,GR86-030-18,-39.0,0.151,-1.007,99.85,3.0,,0.0,0.0,
2025-08-15T02:45:14.673Z,17,GR86-030-18,-38.6,0.191,-1.026,99.85,3.0,,0.0,0.0,
2025-08-15T02:45:14.715Z,17,GR86-030-18,-36.6,0.17,-0.968,99.84,3.0,5750.0,0.0,0.0,
2025-08-15T02:45:14.759Z,17,GR86-030-18,-31.1,0.168,-0.998,99.83,3.0,,0.0,0.0,121.2
2025-08-15T02:45:14.803Z,17,GR86-030-18,-27.4,0.149,-1.009,99.84,3.0,,0.0,0.0,
2025-08-15T02:45:14.846Z,17,GR86-030-18,-25.9,0.198,-1.035,99.85,3.0,,0.0,0.0,
2025-08-15T02:45:14.890Z,17,GR86-030-18,-27.0,0.198,-0.953,99.85,3.0,,0.0,0.0,
2025-08-15T02:45:14.933Z,17,GR86-030-18,-29.8,0.168,-0.957,99.87,3.0,5768.0,0.0,0.0,
2025-08-15T02:45:14.976Z,17,GR86-030-18,-33.7,0.179,-1.021,99.86,3.0,,0.0,0.0,122.3
2025-08-15T02:45:15.020Z,17,GR86-030-18,-38.7,0.169,-1.024,99.86,3.0,,0.0,0.0,
2025-08-15T02:45:15.063Z,17,GR86-030-18,-40.3,0.182,-0.988,90.23,3.0,,0.0,0.0,
2025-08-15T02:45:15.106Z,17,GR86-030-18,-40.5,0.152,-0.942,82.78,3.0,,0.0,0.0,
2025-08-15T02:45:15.150Z,17,GR86-030-18,-40.2,0.146,-1.036,76.93,3.0,5862.0,0.0,0.0,
2025-08-15T02:45:15.193Z,17,GR86-030-18,-39.3,0.173,-1.055,74.88,3.0,,0.0,0.0,123.59
2025-08-15T02:45:15.235Z,17,GR86-030-18,-37.3,0.145,-1.029,74.84,3.0,,0.0,0.0,
2025-08-15T02:45:15.279Z,17,GR86-030-18,-32.5,0.163,-1.033,75.03,3.0,,0.0,0.0,
2025-08-15T02:45:15.321Z,17,GR86-030-18,-29.9,0.156,-1.073,75.07000000000001,3.0,,0.0,0.0,
2025-08-15T02:45:15.364Z,17,GR86-030-18,-28.700000000000003,0.176,-1.113,75.01,3.0,5923.0,0.0,0.0,
2025-08-15T02:45:15.407Z,17,GR86-030-18,-28.0,0.177,-1.055,75.66,3.0,,0.0,0.0,124.71
2025-08-15T02:45:15.450Z,17,GR86-030-18,-27.6,0.155,-1.036,76.56,3.0,,0.0,0.0,
2025-08-15T02:45:15.493Z,17,GR86-030-18,-27.1,0.168,-1.088,76.8,3.0,,0.0,0.0,
2025-08-15T02:45:15.537Z,17,GR86-030-18,-25.9,0.178,-1.028,77.08,3.0,,0.0,0.0,
2025-08-15T02:45:15.580Z,17,GR86-030-18,-23.0,0.199,-1.017,77.53,3.0,5993.0,0.0,0.0,
2025-08-15T02:45:15.623Z,17,GR86-030-18,-21.6,0.172,-0.955,78.99,3.0,,0.0,0.0,125.8
2025-08-15T02:45:15.666Z,17,GR86-030-18,-21.5,0.16,-0.994,79.44,3.0,,0.0,0.0,
2025-08-15T02:45:15.710Z,17,GR86-030-18,-22.3,0.217,-0.946,78.98,3.0,,0.0,0.0,
2025-08-15T02:45:15.752Z,17,GR86-030-18,-23.6,0.198,-0.853,77.78,3.0,,0.0,0.0,
2025-08-15T02:45:15.795Z,17,GR86-030-18,-24.5,0.174,-0.835,76.36,3.0,6063.0,0.0,0.0,
2025-08-15T02:45:15.839Z,17,GR86-030-18,-24.6,0.155,-0.8140000000000001,74.39,3.0,,0.0,0.0,126.83
2025-08-15T02:45:15.883Z,17,GR86-030-18,-24.3,0.179,-0.85,69.71000000000001,3.0,,0.0,0.0,
2025-08-15T02:45:15.926Z,17,GR86-030-18,-24.700000000000003,0.208,-0.78,63.56,3.0,,0.0,0.0,
2025-08-15T02:45:15.970Z,17,GR86-030-18,-26.0,0.155,-0.729,61.38,3.0,,0.0,0.0,
2025-08-15T02:45:16.013Z,17,GR86-030-18,-27.4,0.142,-0.765,56.620000000000005,3.0,6083.0,0.0,0.0,
2025-08-15T02:45:16.056Z,17,GR86-030-18,-28.4,0.145,-0.797,52.18,3.0,,0.0,0.0,127.85
2025-08-15T02:45:16.100Z,17,GR86-030-18,-28.6,0.188,-0.727,49.94,3.0,,0.0,0.0,
2025-08-15T02:45:16.143Z,17,GR86-030-18,-28.1,0.231,-0.6910000000000001,49.94,3.0,,0.0,0.0,
2025-08-15T02:45:16.186Z,17,GR86-030-18,-26.6,0.118,-0.665,51.02,3.0,,0.0,0.0,
2025-08-15T02:45:16.230Z,17,GR86-030-18,-24.9,0.082,-0.547,51.74,3.0,6109.0,0.0,0.0,
2025-08-15T02:45:16.272Z,17,GR86-030-18,-23.9,0.212,-0.68,51.32,3.0,,0.0,0.0,128.97
2025-08-15T02:45:16.315Z,17,GR86-030-18,-23.9,0.21,-0.624,49.89,3.0,,0.0,0.0,
2025-08-15T02:45:16.359Z,17,GR86-030-18,-24.8,0.104,-0.468,48.89,3.0,,0.0,0.0,
2025-08-15T02:45:16.401Z,17,GR86-030-18,-23.9,-0.088,-0.672,47.08,3.0,,0.0,0.0,
2025-08-15T02:45:16.444Z,17,GR86-030-18,-21.5,-0.115,-1.138,46.71,3.0,6155.0,0.0,0.0,
2025-08-15T02:45:16.487Z,17,GR86-030-18,-19.3,0.29,-1.051,46.98,3.0,,0.0,0.0,130.28
2025-08-15T02:45:16.530Z,17,GR86-030-18,-17.900000000000002,0.256,-1.18,47.5,3.0,,0.0,0.0,
2025-08-15T02:45:16.573Z,17,GR86-030-18,-17.0,0.162,-0.889,48.98,3.0,,0.0,0.0,
2025-08-15T02:45:16.616Z,17,GR86-030-18,-17.0,0.12,-0.961,48.23,3.0,,0.0,0.0,
2025-08-15T02:45:16.660Z,17,GR86-030-18,-17.0,0.214,-0.863,47.76,3.0,6231.0,0.0,0.0,
2025-08-15T02:45:16.703Z,17,GR86-030-18,-17.7,0.238,-0.67,49.88,3.0,,0.0,0.0,131.33
2025-08-15T02:45:16.746Z,17,GR86-030-18,-19.1,0.153,-0.634,53.06,3.0,,0.0,0.0,
2025-08-15T02:45:16.790Z,17,GR86-030-18,-21.4,0.043,-0.7000000000000001,53.25,3.0,,0.0,0.0,
2025-08-15T02:45:16.832Z,17,GR86-030-18,-23.6,0.017,-0.8250000000000001,54.14,3.0,,0.0,0.0,
2025-08-15T02:45:16.875Z,17,GR86-030-18,-24.6,0.267,-0.686,55.25,3.0,6309.0,0.0,0.0,
2025-08-15T02:45:16.919Z,17,GR86-030-18,-23.1,0.204,-0.891,56.67,3.0,,0.0,0.0,132.12
2025-08-15T02:45:16.963Z,17,GR86-030-18,-21.8,0.225,-0.868,56.99,3.0,,0.0,0.0,
2025-08-15T02:45:17.006Z,17,GR86-030-18,-20.5,0.234,-0.751,57.11,3.0,,0.0,0.0,
2025-08-15T02:45:17.050Z,17,GR86-030-18,-19.1,0.068,-0.778,68.37,3.0,,0.0,0.0,
2025-08-15T02:45:17.093Z,17,GR86-030-18,-18.6,0.167,-0.812,88.18,3.0,6350.0,0.0,0.0,
2025-08-15T02:45:17.136Z,17,GR86-030-18,-19.1,0.255,-0.583,99.62,3.0,,0.0,0.0,132.57
2025-08-15T02:45:17.180Z,17,GR86-030-18,-20.9,0.199,-0.637,99.84,3.0,,0.0,0.0,
2025-08-15T02:45:17.224Z,17,GR86-030-18,-21.0,0.183,-0.652,99.86,3.0,,0.0,0.0,
2025-08-15T02:45:17.267Z,17,GR86-030-18,-20.0,0.178,-0.589,99.86,3.0,,0.0,0.0,
2025-08-15T02:45:17.310Z,17,GR86-030-18,-18.1,0.162,-0.668,99.87,3.0,6357.0,0.0,0.0,
2025-08-15T02:45:17.353Z,17,GR86-030-18,-15.5,0.209,-0.597,99.83,3.0,,0.0,0.0,135.03
2025-08-15T02:45:17.396Z,17,GR86-030-18,-12.7,0.112,-0.649,99.84,3.0,,0.0,0.0,
2025-08-15T02:45:17.441Z,17,GR86-030-18,-10.4,0.243,-0.631,99.85,3.0,,0.0,0.0,
2025-08-15T02:45:17.483Z,17,GR86-030-18,-10.0,0.22,-0.649,99.85,3.0,,0.0,0.0,
2025-08-15T02:45:17.526Z,17,GR86-030-18,-9.6,0.187,-0.508,99.86,3.0,6379.0,0.0,0.0,
2025-08-15T02:45:17.570Z,17,GR86-030-18,-8.1,0.19,-0.529,99.83,3.0,,0.0,0.0,136.14
2025-08-15T02:45:17.613Z,17,GR86-030-18,-4.4,0.185,-0.536,99.84,3.0,,0.0,0.0,
2025-08-15T02:45:17.655Z,17,GR86-030-18,0.0,0.175,-0.453,99.87,3.0,,0.0,0.0,
2025-08-15T02:45:17.699Z,17,GR86-030-18,2.4000000000000004,0.291,-0.426,99.86,3.0,,0.0,0.0,
2025-08-15T02:45:17.741Z,17,GR86-030-18,1.9,0.178,-0.214,99.86,3.0,6498.0,0.0,0.0,
2025-08-15T02:45:17.827Z,17,GR86-030-18,2.8000000000000003,0.168,-0.184,99.85,3.0,,0.0,0.0,137.48
2025-08-15T02:45:17.870Z,17,GR86-030-18,3.0,0.292,-0.192,99.83,3.0,,0.0,0.0,
2025-08-15T02:45:17.913Z,17,GR86-030-18,1.9,0.212,-0.252,99.87,3.0,,0.0,0.0,
2025-08-15T02:45:17.956Z,17,GR86-030-18,0.9,0.049,-0.137,99.85,3.0,6548.0,0.0,0.0,
2025-08-15T02:45:18.000Z,17,GR86-030-18,1.4,0.067,-0.136,99.84,3.0,,0.0,0.0,138.53
2025-08-15T02:45:18.043Z,17,GR86-030-18,1.9,0.124,-0.062,99.84,3.0,,0.0,0.0,
2025-08-15T02:45:18.086Z,17,GR86-030-18,2.0,0.218,-0.082,99.86,3.0,,0.0,0.0,
2025-08-15T02:45:18.130Z,17,GR86-030-18,2.1,0.278,0.085,99.86,3.0,,0.0,0.0,
2025-08-15T02:45:18.173Z,17,GR86-030-18,2.6,0.147,-0.016,99.85,3.0,6600.0,0.0,0.0,
2025-08-15T02:45:18.216Z,17,GR86-030-18,3.3000000000000003,0.019,0.07,99.86,3.0,,0.0,0.0,140.02
2025-08-15T02:45:18.260Z,17,GR86-030-18,4.0,0.192,0.113,99.87,3.0,,0.0,0.0,
2025-08-15T02:45:18.303Z,17,GR86-030-18,5.0,0.102,0.083,99.87,3.0,,0.0,0.0,
2025-08-15T02:45:18.346Z,17,GR86-030-18,6.1000000000000005,0.18,0.198,99.86,3.0,,0.0,0.0,
2025-08-15T02:45:18.390Z,17,GR86-030-18,8.4,0.34,0.283,99.88,3.0,6690.0,0.0,0.0,
2025-08-15T02:45:18.433Z,17,GR86-030-18,9.9,0.321,0.223,99.87,3.0,,0.0,0.0,141.86
2025-08-15T02:45:18.476Z,17,GR86-030-18,9.4,0.129,0.261,99.87,3.0,,0.0,0.0,
2025-08-15T02:45:18.520Z,17,GR86-030-18,6.800000000000001,0.126,0.441,99.86,3.0,,0.0,0.0,
2025-08-15T02:45:18.563Z,17,GR86-030-18,4.1000000000000005,0.254,0.299,99.87,3.0,,0.0,0.0,
2025-08-15T02:45:18.606Z,17,GR86-030-18,2.6,0.118,0.429,99.86,3.0,6791.0,0.0,0.0,
2025-08-15T02:45:18.650Z,17,GR86-030-18,2.4000000000000004,0.226,0.457,99.86,3.0,,0.0,0.0,142.8
2025-08-15T02:45:18.693Z,17,GR86-030-18,2.8000000000000003,0.292,0.407,99.86,3.0,,0.0,0.0,
2025-08-15T02:45:18.735Z,17,GR86-030-18,3.2,0.197,0.361,99.85,3.0,,0.0,0.0,
2025-08-15T02:45:18.779Z,17,GR86-030-18,3.1,0.247,0.298,99.86,3.0,,0.0,0.0,
2025-08-15T02:45:18.821Z,17,GR86-030-18,3.6,0.225,0.245,99.86,3.0,6867.0,0.0,0.0,
2025-08-15T02:45:18.864Z,17,GR86-030-18,4.5,0.137,0.154,99.87,3.0,,0.0,0.0,144.06
2025-08-15T02:45:18.907Z,17,GR86-030-18,5.300000000000001,0.108,0.112,99.86,3.0,,0.0,0.0,
2025-08-15T02:45:18.950Z,17,GR86-030-18,6.0,0.183,0.113,99.87,3.0,,0.0,0.0,
2025-08-15T02:45:18.993Z,17,GR86-030-18,6.5,0.257,0.134,99.86,3.0,,0.0,0.0,
2025-08-15T02:45:19.037Z,17,GR86-030-18,7.0,0.22,0.133,99.88,3.0,6837.0,0.0,0.0,
2025-08-15T02:45:19.080Z,17,GR86-030-18,7.300000000000001,0.228,0.131,99.89,3.0,,0.0,0.0,145.78
2025-08-15T02:45:19.123Z,17,GR86-030-18,7.5,0.228,0.144,99.86,3.0,,0.0,0.0,
2025-08-15T02:45:19.166Z,17,GR86-030-18,7.6,0.157,0.128,99.85,3.0,,0.0,0.0,
2025-08-15T02:45:19.210Z,17,GR86-030-18,7.300000000000001,0.127,0.12,99.88,3.0,,0.0,0.0,
2025-08-15T02:45:19.253Z,17,GR86-030-18,6.800000000000001,0.137,0.129,99.83,3.0,6940.0,0.0,0.0,
2025-08-15T02:45:19.297Z,17,GR86-030-18,6.4,0.205,0.153,99.86,3.0,,0.0,0.0,147.32
2025-08-15T02:45:19.340Z,17,GR86-030-18,5.9,0.112,0.128,99.87,3.0,,0.0,0.0,
2025-08-15T02:45:19.383Z,17,GR86-030-18,5.4,0.165,0.158,99.86,3.0,,0.0,0.0,
2025-08-15T02:45:19.426Z,17,GR86-030-18,5.2,0.237,0.2,99.88,3.0,,0.0,0.0,
2025-08-15T02:45:19.471Z,17,GR86-030-18,5.300000000000001,0.212,0.209,99.83,3.0,7017.0,0.0,0.0,
2025-08-15T02:45:19.513Z,17,GR86-030-18,5.6000000000000005,0.172,0.172,99.87,3.0,,0.0,0.0,148.84
2025-08-15T02:45:19.557Z,17,GR86-030-18,5.7,0.108,0.152,99.86,3.0,,0.0,0.0,
2025-08-15T02:45:19.600Z,17,GR86-030-18,5.7,0.177,0.189,99.88,3.0,,0.0,0.0,
2025-08-15T02:45:19.643Z,17,GR86-030-18,5.7,0.137,0.171,99.84,3.0,,0.0,0.0,
2025-08-15T02:45:19.686Z,17,GR86-030-18,5.7,0.105,0.154,99.86,3.0,7074.0,0.0,0.0,
2025-08-15T02:45:19.730Z,17,GR86-030-18,5.9,0.149,0.164,99.9,3.0,,0.0,0.0,150.32
2025-08-15T02:45:19.773Z,17,GR86-030-18,5.9,0.188,0.174,99.85,3.0,,0.0,0.0,
2025-08-15T02:45:19.815Z,17,GR86-030-18,5.800000000000001,0.216,0.187,99.87,3.0,,0.0,0.0,
2025-08-15T02:45:19.859Z,17,GR86-030-18,5.7,0.143,0.15,99.83,3.0,,0.0,0.0,
2025-08-15T02:45:19.903Z,17,GR86-030-18,5.5,0.214,0.18,99.88,3.0,7145.0,0.0,0.0,
2025-08-15T02:45:19.946Z,17,GR86-030-18,5.5,0.204,0.179,99.87,3.0,,0.0,0.0,153.55
2025-08-15T02:45:19.990Z,17,GR86-030-18,5.300000000000001,0.178,0.181,99.84,3.0,,0.0,0.0,
2025-08-15T02:45:20.033Z,17,GR86-030-18,4.9,0.042,0.162,99.83,3.0,,0.0,0.0,
2025-08-15T02:45:20.076Z,17,GR86-030-18,4.4,-0.192,0.157,99.88,4.0,,0.0,0.0,
2025-08-15T02:45:20.120Z,17,GR86-030-18,4.800000000000001,0.329,0.124,99.87,4.0,7219.0,0.0,0.0,
2025-08-15T02:45:20.163Z,17,GR86-030-18,4.7,0.261,0.069,99.86,4.0,,0.0,0.0,155.20000000000002
2025-08-15T02:45:20.206Z,17,GR86-030-18,4.3,0.016,0.161,99.86,4.0,,0.0,0.0,
2025-08-15T02:45:20.250Z,17,GR86-030-18,3.6,-0.02,0.062,99.86,4.0,,0.0,0.0,
2025-08-15T02:45:20.293Z,17,GR86-030-18,3.5,0.105,0.048,99.9,4.0,,0.0,0.0,
2025-08-15T02:45:20.335Z,17,GR86-030-18,3.8,0.228,0.142,99.86,4.0,7278.0,0.0,0.0,
2025-08-15T02:45:20.379Z,17,GR86-030-18,3.0,0.036,0.041,99.87,4.0,,0.0,0.0,156.71
2025-08-15T02:45:20.421Z,17,GR86-030-18,2.1,0.061,0.085,99.86,4.0,,0.0,0.0,
2025-08-15T02:45:20.464Z,17,GR86-030-18,1.8,0.149,0.07,99.86,4.0,,0.0,0.0,
2025-08-15T02:45:20.507Z,17,GR86-030-18,1.8,0.19,0.101,99.86,4.0,,0.0,0.0,
2025-08-15T02:45:20.550Z,17,GR86-030-18,1.7000000000000002,0.182,0.115,99.86,4.0,6269.0,0.0,0.0,
2025-08-15T02:45:20.593Z,17,GR86-030-18,1.2000000000000002,0.168,0.08,99.88,4.0,,0.0,0.0,158.36
2025-08-15T02:45:20.637Z,17,GR86-030-18,0.0,0.136,0.049,99.86,4.0,,0.0,0.0,
2025-08-15T02:45:20.680Z,17,GR86-030-18,-0.7000000000000001,0.187,0.023,99.89,4.0,,0.0,0.0,
2025-08-15T02:45:20.723Z,17,GR86-030-18,-0.9,0.176,0.035,99.86,4.0,,0.0,0.0,
2025-08-15T02:45:20.766Z,17,GR86-030-18,-1.7000000000000002,0.169,0.005,99.86,4.0,6286.0,0.0,0.0,
2025-08-15T02:45:20.810Z,17,GR86-030-18,-2.8000000000000003,0.137,-0.024,99.86,4.0,,0.0,0.0,159.82
2025-08-15T02:45:20.853Z,17,GR86-030-18,-3.9,0.08,-0.085,99.86,4.0,,0.0,0.0,
2025-08-15T02:45:20.897Z,17,GR86-030-18,-4.1000000000000005,0.059,-0.142,99.86,4.0,,0.0,0.0,
2025-08-15T02:45:20.940Z,17,GR86-030-18,-4.4,0.161,-0.111,99.85,4.0,,0.0,0.0,
2025-08-15T02:45:20.983Z,17,GR86-030-18,-4.2,0.143,-0.152,99.86,4.0,6356.0,0.0,0.0,
2025-08-15T02:45:21.026Z,17,GR86-030-18,-4.1000000000000005,0.095,-0.193,99.87,4.0,,0.0,0.0,161.21
2025-08-15T02:45:21.070Z,17,GR86-030-18,-4.1000000000000005,0.068,-0.237,99.86,4.0,,0.0,0.0,
2025-08-15T02:45:21.113Z,17,GR86-030-18,-4.0,0.062,-0.261,99.86,4.0,,0.0,0.0,
2025-08-15T02:45:21.157Z,17,GR86-030-18,-4.0,0.066,-0.266,99.86,4.0,,0.0,0.0,
2025-08-15T02:45:21.200Z,17,GR86-030-18,-3.6,0.115,-0.242,99.86,4.0,6411.0,0.0,0.0,
2025-08-15T02:45:21.243Z,17,GR86-030-18,-3.6,0.093,-0.267,99.88,4.0,,0.0,0.0,162.68
2025-08-15T02:45:21.286Z,17,GR86-030-18,-4.4,0.062,-0.291,99.87,4.0,,0.0,0.0,
2025-08-15T02:45:21.330Z,17,GR86-030-18,-4.9,0.061,-0.295,99.86,4.0,,0.0,0.0,
2025-08-15T02:45:21.373Z,17,GR86-030-18,-5.2,0.062,-0.299,99.86,4.0,,0.0,0.0,
2025-08-15T02:45:21.415Z,17,GR86-030-18,-5.6000000000000005,0.093,-0.282,99.88,4.0,6459.0,0.0,0.0,
2025-08-15T02:45:21.459Z,17,GR86-030-18,-6.6000000000000005,0.096,-0.286,99.87,4.0,,0.0,0.0,164.06
2025-08-15T02:45:21.501Z,17,GR86-030-18,-7.2,0.075,-0.31,99.87,4.0,,0.0,0.0,
2025-08-15T02:45:21.544Z,17,GR86-030-18,-7.6,0.062,-0.329,99.85,4.0,,0.0,0.0,
2025-08-15T02:45:21.587Z,17,GR86-030-18,-7.800000000000001,0.056,-0.333,99.84,4.0,,0.0,0.0,
2025-08-15T02:45:21.630Z,17,GR86-030-18,-7.800000000000001,0.078,-0.332,99.85,4.0,6518.0,0.0,0.0,
2025-08-15T02:45:21.673Z,17,GR86-030-18,-7.800000000000001,0.104,-0.34,99.87,4.0,,0.0,0.0,165.42000000000002
2025-08-15T02:45:21.717Z,17,GR86-030-18,-7.2,0.143,-0.352,99.87,4.0,,0.0,0.0,
2025-08-15T02:45:21.760Z,17,GR86-030-18,-5.5,0.073,-0.41,99.86,4.0,,0.0,0.0,
2025-08-15T02:45:21.803Z,17,GR86-030-18,-4.800000000000001,0.058,-0.433,99.86,4.0,,0.0,0.0,
2025-08-15T02:45:21.846Z,17,GR86-030-18,-4.6000000000000005,0.07,-0.442,99.87,4.0,6568.0,0.0,0.0,
2025-08-15T02:45:21.890Z,17,GR86-030-18,-5.1000000000000005,0.079,-0.438,99.86,4.0,,0.0,0.0,166.66
2025-08-15T02:45:21.932Z,17,GR86-030-18,-5.9,0.09,-0.413,99.86,4.0,,0.0,0.0,
2025-08-15T02:45:21.975Z,17,GR86-030-18,-6.300000000000001,0.108,-0.393,99.85,4.0,,0.0,0.0,
2025-08-15T02:45:22.019Z,17,GR86-030-18,-6.4,0.09,-0.41,99.86,4.0,,0.0,0.0,
2025-08-15T02:45:22.063Z,17,GR86-030-18,-6.300000000000001,0.064,-0.407,99.87,4.0,6627.0,0.0,0.0,
2025-08-15T02:45:22.106Z,17,GR86-030-18,-6.2,0.061,-0.376,97.11,4.0,,0.0,0.0,167.79
2025-08-15T02:45:22.150Z,17,GR86-030-18,-6.2,0.065,-0.368,38.36,4.0,,0.0,0.0,
2025-08-15T02:45:22.193Z,17,GR86-030-18,-6.300000000000001,0.077,-0.364,5.3500000000000005,4.0,,0.0,0.0,
2025-08-15T02:45:22.236Z,17,GR86-030-18,-6.2,0.039,-0.372,5.0200000000000005,4.0,,0.0,0.0,
2025-08-15T02:45:22.280Z,17,GR86-030-18,-5.6000000000000005,-0.111,-0.309,4.68,4.0,6666.0,0.0,0.0,
2025-08-15T02:45:22.324Z,17,GR86-030-18,-4.9,-0.479,-0.368,4.17,4.0,,9.6,9.875,169.18
2025-08-15T02:45:22.367Z,17,GR86-030-18,-4.6000000000000005,-0.321,-0.358,3.75,4.0,,16.025,15.81,
2025-08-15T02:45:22.410Z,17,GR86-030-18,-4.3,-0.407,-0.328,3.53,4.0,,20.325,19.87,
2025-08-15T02:45:22.453Z,17,GR86-030-18,-3.9,-0.55,-0.37,3.38,4.0,,24.4,23.99,
2025-08-15T02:45:22.496Z,17,GR86-030-18,-3.6,-0.627,-0.31,3.2,4.0,6711.0,28.155,27.56,
2025-08-15T02:45:22.541Z,17,GR86-030-18,-3.8,-0.713,-0.293,2.86,4.0,,32.535000000000004,31.895,171.5
2025-08-15T02:45:22.583Z,17,GR86-030-18,-3.9,-0.685,-0.252,2.69,4.0,,33.435,32.87,
2025-08-15T02:45:22.626Z,17,GR86-030-18,-3.8,-0.714,-0.282,2.58,4.0,,33.465,33.160000000000004,
2025-08-15T02:45:22.670Z,17,GR86-030-18,-3.2,-0.756,-0.304,2.48,4.0,,33.525,33.22,
2025-08-15T02:45:22.713Z,17,GR86-030-18,-2.4000000000000004,-0.781,-0.314,2.39,4.0,6534.0,33.315,33.19,
2025-08-15T02:45:22.755Z,17,GR86-030-18,-2.2,-0.764,-0.324,2.33,4.0,,33.19,33.025,169.52
2025-08-15T02:45:22.799Z,17,GR86-030-18,0.0,-0.74,-0.291,2.32,4.0,,32.715,32.78,
2025-08-15T02:45:22.841Z,17,GR86-030-18,2.2,-0.778,-0.326,2.32,4.0,,32.505,32.475,
2025-08-15T02:45:22.884Z,17,GR86-030-18,3.5,-0.788,-0.313,2.32,4.0,,32.335,32.475,
2025-08-15T02:45:22.927Z,17,GR86-030-18,3.8,-0.744,-0.294,2.33,4.0,6448.0,32.335,32.475,
2025-08-15T02:45:22.970Z,17,GR86-030-18,3.6,-0.6980000000000001,-0.241,2.33,4.0,,32.505,32.535000000000004,164.68
2025-08-15T02:45:23.013Z,17,GR86-030-18,3.8,-0.6960000000000001,-0.22,2.35,4.0,,32.96,32.84,
2025-08-15T02:45:23.056Z,17,GR86-030-18,4.4,-0.734,-0.221,2.36,4.0,,33.465,33.19,
2025-08-15T02:45:23.100Z,17,GR86-030-18,5.5,-0.754,-0.188,2.38,4.0,,34.305,34.15,
2025-08-15T02:45:23.143Z,17,GR86-030-18,6.2,-0.78,-0.132,2.39,4.0,5986.0,34.99,34.78,
2025-08-15T02:45:23.186Z,17,GR86-030-18,6.5,-0.811,-0.1,27.97,4.0,,35.645,35.085,160.36
2025-08-15T02:45:23.230Z,17,GR86-030-18,5.6000000000000005,-0.843,-0.097,68.99,4.0,,35.985,35.615,
2025-08-15T02:45:23.273Z,17,GR86-030-18,4.5,-0.865,-0.072,99.7,4.0,,36.67,36.09,
2025-08-15T02:45:23.316Z,17,GR86-030-18,4.4,-0.758,-0.019,99.85,4.0,,37.325,36.7,
2025-08-15T02:45:23.360Z,17,GR86-030-18,3.4000000000000004,-0.863,0.008,24.99,3.0,5850.0,38.9,38.18,
2025-08-15T02:45:23.403Z,17,GR86-030-18,0.3,-0.903,0.097,3.17,3.0,,40.865,40.24,155.66
2025-08-15T02:45:23.446Z,17,GR86-030-18,-2.4000000000000004,-1.077,-0.011,3.06,3.0,,46.375,45.4,
2025-08-15T02:45:23.490Z,17,GR86-030-18,-3.8,-0.989,0.085,2.97,3.0,,52.115,50.94,
2025-08-15T02:45:23.532Z,17,GR86-030-18,-4.6000000000000005,-1.09,0.015,2.89,3.0,,55.24,54.175,
2025-08-15T02:45:23.575Z,17,GR86-030-18,-5.0,-1.057,-0.073,2.81,3.0,6172.0,56.63,55.67,
2025-08-15T02:45:23.619Z,17,GR86-030-18,-5.0,-1.069,-0.08,2.71,3.0,,56.875,56.25,150.27
2025-08-15T02:45:23.661Z,17,GR86-030-18,-5.0,-1.053,-0.17,2.68,3.0,,56.25,55.975,
2025-08-15T02:45:23.704Z,17,GR86-030-18,-4.6000000000000005,-1.056,-0.162,2.64,3.0,,54.465,54.705,
2025-08-15T02:45:23.747Z,17,GR86-030-18,-2.9000000000000004,-1.055,-0.197,2.6,3.0,,50.68,52.05,
2025-08-15T02:45:23.790Z,17,GR86-030-18,-0.8,-0.931,-0.253,2.59,3.0,6469.0,46.405,48.115,
2025-08-15T02:45:23.833Z,17,GR86-030-18,1.1,-0.904,-0.308,2.56,3.0,,42.27,44.085,144.25
2025-08-15T02:45:23.876Z,17,GR86-030-18,2.6,-0.922,-0.276,6.23,3.0,,38.655,40.15,
2025-08-15T02:45:23.920Z,17,GR86-030-18,4.2,-0.789,-0.288,47.91,2.0,,34.93,35.985,
2025-08-15T02:45:23.963Z,17,GR86-030-18,5.0,-1.025,-0.26,4.43,2.0,,33.71,34.715,
2025-08-15T02:45:24.006Z,17,GR86-030-18,4.9,-0.985,-0.206,4.39,2.0,5964.0,34.395,35.555,
2025-08-15T02:45:24.050Z,17,GR86-030-18,4.0,-0.868,-0.321,3.97,2.0,,35.555,36.15,136.88
2025-08-15T02:45:24.093Z,17,GR86-030-18,1.7000000000000002,-1.178,-0.294,3.73,2.0,,35.86,36.275,
2025-08-15T02:45:24.135Z,17,GR86-030-18,-2.1,-0.904,-0.3,3.56,2.0,,36.305,37.08,
2025-08-15T02:45:24.179Z,17,GR86-030-18,-5.6000000000000005,-0.918,-0.577,3.38,2.0,,31.39,31.36,
2025-08-15T02:45:24.221Z,17,GR86-030-18,-5.300000000000001,-0.728,-0.43,3.22,2.0,5670.0,27.53,27.62,
2025-08-15T02:45:24.264Z,17,GR86-030-18,-3.8,-0.642,-0.518,2.97,2.0,,23.745,24.17,131.03
2025-08-15T02:45:24.307Z,17,GR86-030-18,-1.4,-0.531,-0.554,2.73,2.0,,18.555,19.12,
2025-08-15T02:45:24.350Z,17,GR86-030-18,-0.8,-0.507,-0.42,2.58,2.0,,14.94,15.535,
2025-08-15T02:45:24.393Z,17,GR86-030-18,-1.2000000000000002,-0.5730000000000001,-0.461,2.46,2.0,,13.55,13.95,
2025-08-15T02:45:24.436Z,17,GR86-030-18,-1.1,-0.444,-0.42,2.33,2.0,6586.0,13.08,13.55,
2025-08-15T02:45:24.480Z,17,GR86-030-18,-1.4,-0.413,-0.342,2.26,2.0,,13.37,13.915,124.81
2025-08-15T02:45:24.523Z,17,GR86-030-18,-2.8000000000000003,-0.479,-0.22,2.24,2.0,,14.085,14.3,
2025-08-15T02:45:24.566Z,17,GR86-030-18,-6.7,-0.455,-0.218,2.25,2.0,,14.48,14.48,
2025-08-15T02:45:24.610Z,17,GR86-030-18,-13.4,-0.438,-0.197,2.26,2.0,,14.94,15.0,
2025-08-15T02:45:24.653Z,17,GR86-030-18,-21.1,-0.528,-0.226,2.29,2.0,6552.0,15.275,15.365,
2025-08-15T02:45:24.696Z,17,GR86-030-18,-27.9,-0.448,-0.369,2.3000000000000003,2.0,,15.72,15.72,119.36
2025-08-15T02:45:24.740Z,17,GR86-030-18,-32.4,-0.458,-0.493,2.34,2.0,,15.99,16.115000000000002,
2025-08-15T02:45:24.783Z,17,GR86-030-18,-31.700000000000003,-0.513,-0.526,2.35,2.0,,16.25,16.405,
2025-08-15T02:45:24.826Z,17,GR86-030-18,-29.6,-0.491,-0.635,2.36,2.0,,16.405,16.65,
2025-08-15T02:45:24.870Z,17,GR86-030-18,-28.3,-0.455,-0.687,2.39,2.0,6503.0,16.59,16.830000000000002,
2025-08-15T02:45:24.913Z,17,GR86-030-18,-28.8,-0.519,-0.744,2.39,2.0,,16.65,16.97,116.51
2025-08-15T02:45:24.956Z,17,GR86-030-18,-30.3,-0.474,-0.851,2.42,2.0,,16.77,17.09,
2025-08-15T02:45:25.000Z,17,GR86-030-18,-31.0,-0.47,-0.954,2.45,2.0,,17.09,17.275000000000002,
2025-08-15T02:45:25.043Z,17,GR86-030-18,-31.0,-0.514,-0.947,2.46,2.0,,17.185,17.455000000000002,
2025-08-15T02:45:25.086Z,17,GR86-030-18,-31.0,-0.496,-1.012,2.45,2.0,6332.0,17.06,17.305,
2025-08-15T02:45:25.130Z,17,GR86-030-18,-30.6,-0.474,-1.027,2.47,2.0,,17.12,17.455000000000002,113.51
2025-08-15T02:45:25.173Z,17,GR86-030-18,-29.4,-0.541,-1.022,2.47,2.0,,16.68,17.09,
2025-08-15T02:45:25.215Z,17,GR86-030-18,-27.8,-0.453,-1.1,2.48,2.0,,15.96,16.465,
2025-08-15T02:45:25.259Z,17,GR86-030-18,-23.8,-0.432,-1.046,2.49,2.0,,15.03,15.395,
2025-08-15T02:45:25.303Z,17,GR86-030-18,-21.5,-0.524,-1.075,2.48,2.0,6111.0,14.68,15.365,
2025-08-15T02:45:25.346Z,17,GR86-030-18,-22.0,-0.421,-1.061,2.49,2.0,,14.42,14.91,108.97
2025-08-15T02:45:25.390Z,17,GR86-030-18,-26.1,-0.496,-1.071,2.48,2.0,,13.995,14.39,
2025-08-15T02:45:25.433Z,17,GR86-030-18,-32.300000000000004,-0.455,-1.131,2.48,2.0,,11.31,11.81,
2025-08-15T02:45:25.476Z,17,GR86-030-18,-37.5,-0.382,-1.149,2.49,2.0,,4.595,4.87,
2025-08-15T02:45:25.520Z,17,GR86-030-18,-40.2,-0.261,-1.184,2.48,2.0,5860.0,0.0,0.0,
2025-08-15T02:45:25.563Z,17,GR86-030-18,-41.0,-0.208,-1.216,2.48,2.0,,0.0,0.0,105.6
2025-08-15T02:45:25.606Z,17,GR86-030-18,-43.2,-0.233,-1.178,2.49,2.0,,0.0,0.0,
2025-08-15T02:45:25.650Z,17,GR86-030-18,-46.6,-0.208,-1.262,2.49,2.0,,0.0,0.0,
2025-08-15T02:45:25.693Z,17,GR86-030-18,-49.0,-0.172,-1.211,2.49,2.0,,0.0,0.0,
2025-08-15T02:45:25.735Z,17,GR86-030-18,-48.3,-0.226,-1.261,4.62,2.0,5645.0,0.0,0.0,
2025-08-15T02:45:25.779Z,17,GR86-030-18,-43.1,-0.199,-1.221,18.58,2.0,,0.0,0.0,102.58
2025-08-15T02:45:25.821Z,17,GR86-030-18,-39.0,-0.201,-1.235,20.14,2.0,,0.0,0.0,
2025-08-15T02:45:25.864Z,17,GR86-030-18,-38.3,-0.17,-1.227,20.24,2.0,,0.0,0.0,
2025-08-15T02:45:25.907Z,17,GR86-030-18,-41.900000000000006,-0.144,-1.21,21.36,2.0,,0.0,0.0,
2025-08-15T02:45:25.950Z,17,GR86-030-18,-47.7,-0.141,-1.24,22.63,2.0,5486.0,0.0,0.0,
2025-08-15T02:45:25.993Z,17,GR86-030-18,-52.5,-0.11,-1.225,23.79,2.0,,0.0,0.0,100.88
2025-08-15T02:45:26.036Z,17,GR86-030-18,-53.2,-0.136,-1.266,24.91,2.0,,0.0,0.0,
2025-08-15T02:45:26.080Z,17,GR86-030-18,-48.7,0.116,-1.211,24.92,2.0,,0.0,0.0,
2025-08-15T02:45:26.123Z,17,GR86-030-18,-45.2,0.107,-1.17,25.28,2.0,,0.0,0.0,
2025-08-15T02:45:26.210Z,17,GR86-030-18,-43.3,0.1,-1.13,26.17,2.0,5507.0,0.0,0.0,99.55
2025-08-15T02:45:26.253Z,17,GR86-030-18,-50.2,0.052,-1.113,27.08,2.0,,0.0,0.0,
2025-08-15T02:45:26.296Z,17,GR86-030-18,-55.0,0.073,-1.102,27.02,2.0,,0.0,0.0,
2025-08-15T02:45:26.340Z,17,GR86-030-18,-63.2,0.066,-1.112,26.9,2.0,,0.0,0.0,
2025-08-15T02:45:26.383Z,17,GR86-030-18,-63.8,0.076,-1.117,26.93,2.0,5704.0,0.0,0.0,
2025-08-15T02:45:26.426Z,17,GR86-030-18,-62.900000000000006,0.077,-1.1,27.79,2.0,,0.0,0.0,98.48
2025-08-15T02:45:26.470Z,17,GR86-030-18,-61.5,0.052,-1.124,32.29,2.0,,0.0,0.0,
2025-08-15T02:45:26.513Z,17,GR86-030-18,-61.5,0.071,-1.061,36.85,2.0,,0.0,0.0,
2025-08-15T02:45:26.557Z,17,GR86-030-18,-61.6,0.044,-1.103,38.12,2.0,,0.0,0.0,
2025-08-15T02:45:26.600Z,17,GR86-030-18,-59.900000000000006,0.13,-1.108,37.69,2.0,5675.0,0.0,0.0,
2025-08-15T02:45:26.643Z,17,GR86-030-18,-54.8,0.161,-1.073,36.67,2.0,,0.0,0.0,98.27
2025-08-15T02:45:26.686Z,17,GR86-030-18,-49.900000000000006,0.125,-1.094,35.11,2.0,,0.0,0.0,
2025-08-15T02:45:26.730Z,17,GR86-030-18,-43.2,0.162,-1.089,34.83,2.0,,0.0,0.0,
2025-08-15T02:45:26.773Z,17,GR86-030-18,-38.8,0.106,-1.057,35.06,2.0,,0.0,0.0,
2025-08-15T02:45:26.815Z,17,GR86-030-18,-39.5,0.17,-1.066,36.3,2.0,5720.0,0.0,0.0,
2025-08-15T02:45:26.859Z,17,GR86-030-18,-42.8,0.145,-1.074,44.14,2.0,,0.0,0.0,98.64
2025-08-15T02:45:26.901Z,17,GR86-030-18,-42.6,0.088,-1.144,48.29,2.0,,0.0,0.0,
2025-08-15T02:45:26.944Z,17,GR86-030-18,-40.2,0.16,-1.074,51.1,2.0,,0.0,0.0,
2025-08-15T02:45:26.989Z,17,GR86-030-18,-38.2,0.126,-1.166,59.33,2.0,,0.0,0.0,
2025-08-15T02:45:27.031Z,17,GR86-030-18,-35.2,0.253,-1.107,71.23,2.0,5798.0,0.0,0.0,
2025-08-15T02:45:27.074Z,17,GR86-030-18,-30.200000000000003,0.192,-1.076,84.19,2.0,,0.0,0.0,99.3
2025-08-15T02:45:27.119Z,17,GR86-030-18,-27.4,0.22,-1.018,98.57,2.0,,0.0,0.0,
2025-08-15T02:45:27.163Z,17,GR86-030-18,-28.6,0.309,-1.027,99.83,2.0,,0.0,0.0,
2025-08-15T02:45:27.206Z,17,GR86-030-18,-32.5,0.22,-0.978,99.83,2.0,,0.0,0.0,
2025-08-15T02:45:27.250Z,17,GR86-030-18,-39.5,0.268,-0.982,99.83,2.0,5867.0,0.0,0.0,
2025-08-15T02:45:27.293Z,17,GR86-030-18,-43.2,0.177,-1.021,99.83,2.0,,0.0,0.0,100.24
2025-08-15T02:45:27.336Z,17,GR86-030-18,-47.1,0.209,-0.977,99.83,2.0,,0.0,0.0,
2025-08-15T02:45:27.380Z,17,GR86-030-18,-48.400000000000006,0.283,-1.095,99.82,2.0,,0.0,0.0,
2025-08-15T02:45:27.424Z,17,GR86-030-18,-47.1,0.205,-0.975,99.8,2.0,,0.0,0.0,
2025-08-15T02:45:27.467Z,17,GR86-030-18,-44.6,0.257,-1.059,99.82,2.0,5978.0,0.0,0.0,
2025-08-15T02:45:27.510Z,17,GR86-030-18,-41.1,0.239,-0.99,99.83,2.0,,0.0,0.0,101.19
2025-08-15T02:45:27.553Z,17,GR86-030-18,-36.6,0.163,-1.028,99.82,2.0,,0.0,0.0,
2025-08-15T02:45:27.597Z,17,GR86-030-18,-35.2,0.263,-1.038,99.82,2.0,,0.0,0.0,
2025-08-15T02:45:27.640Z,17,GR86-030-18,-34.7,0.251,-1.049,99.82,2.0,,0.0,0.0,
2025-08-15T02:45:27.683Z,17,GR86-030-18,-34.6,0.193,-1.147,99.84,2.0,6057.0,0.0,0.0,
2025-08-15T02:45:27.726Z,17,GR86-030-18,-34.0,0.27,-1.085,99.83,2.0,,0.0,0.0,102.29
2025-08-15T02:45:27.770Z,17,GR86-030-18,-32.0,0.2,-1.133,99.83,2.0,,0.0,0.0,
2025-08-15T02:45:27.813Z,17,GR86-030-18,-30.1,0.3,-1.069,99.83,2.0,,0.0,0.0,
2025-08-15T02:45:27.855Z,17,GR86-030-18,-29.0,0.241,-0.998,99.83,2.0,,0.0,0.0,
2025-08-15T02:45:27.899Z,17,GR86-030-18,-29.0,0.199,-0.993,99.83,2.0,6126.0,0.0,0.0,
2025-08-15T02:45:27.941Z,17,GR86-030-18,-29.0,0.243,-0.971,99.83,2.0,,0.0,0.0,105.64
2025-08-15T02:45:27.984Z,17,GR86-030-18,-29.1,0.222,-0.938,99.83,2.0,,0.0,0.0,
2025-08-15T02:45:28.027Z,17,GR86-030-18,-29.6,0.209,-0.927,99.84,2.0,,0.0,0.0,
2025-08-15T02:45:28.070Z,17,GR86-030-18,-29.700000000000003,0.289,-0.889,99.82,2.0,,0.0,0.0,
2025-08-15T02:45:28.113Z,17,GR86-030-18,-29.6,0.204,-0.876,99.84,2.0,6216.0,0.0,0.0,
2025-08-15T02:45:28.157Z,17,GR86-030-18,-28.5,0.268,-0.881,99.82,2.0,,0.0,0.0,107.15
2025-08-15T02:45:28.200Z,17,GR86-030-18,-26.8,0.274,-0.849,99.83,2.0,,0.0,0.0,
2025-08-15T02:45:28.243Z,17,GR86-030-18,-26.4,0.191,-0.8150000000000001,99.83,2.0,,0.0,0.0,
2025-08-15T02:45:28.286Z,17,GR86-030-18,-26.3,0.246,-0.8300000000000001,99.83,2.0,,0.0,0.0,
2025-08-15T02:45:28.330Z,17,GR86-030-18,-26.3,0.252,-0.776,99.84,2.0,6261.0,0.0,0.0,
2025-08-15T02:45:28.373Z,17,GR86-030-18,-26.3,0.205,-0.78,99.83,2.0,,0.0,0.0,107.64
2025-08-15T02:45:28.416Z,17,GR86-030-18,-26.3,0.277,-0.773,99.84,2.0,,0.0,0.0,
2025-08-15T02:45:28.460Z,17,GR86-030-18,-25.3,0.268,-0.778,99.83,2.0,,0.0,0.0,
2025-08-15T02:45:28.503Z,17,GR86-030-18,-23.4,0.201,-0.735,99.83,2.0,,0.0,0.0,
2025-08-15T02:45:28.546Z,17,GR86-030-18,-22.4,0.258,-0.804,99.8,2.0,6424.0,0.0,0.0,
2025-08-15T02:45:28.590Z,17,GR86-030-18,-22.0,0.242,-0.744,99.84,2.0,,0.0,0.0,109.35
2025-08-15T02:45:28.633Z,17,GR86-030-18,-23.0,0.213,-0.762,99.84,2.0,,0.0,0.0,
2025-08-15T02:45:28.676Z,17,GR86-030-18,-23.9,0.278,-0.767,99.84,2.0,,0.0,0.0,
2025-08-15T02:45:28.721Z,17,GR86-030-18,-25.3,0.257,-0.768,99.84,2.0,,0.0,0.0,
2025-08-15T02:45:28.764Z,17,GR86-030-18,-25.4,0.197,-0.75,99.83,2.0,6522.0,0.0,0.0,
2025-08-15T02:45:28.807Z,17,GR86-030-18,-25.1,0.249,-0.767,99.83,2.0,,0.0,0.0,111.08
2025-08-15T02:45:28.850Z,17,GR86-030-18,-25.0,0.251,-0.754,99.83,2.0,,0.0,0.0,
2025-08-15T02:45:28.893Z,17,GR86-030-18,-25.0,0.202,-0.742,99.82,2.0,,0.0,0.0,
2025-08-15T02:45:28.937Z,17,GR86-030-18,-25.0,0.265,-0.788,99.83,2.0,,0.0,0.0,
2025-08-15T02:45:28.980Z,17,GR86-030-18,-24.8,0.274,-0.759,99.84,2.0,6607.0,0.0,0.0,
2025-08-15T02:45:29.023Z,17,GR86-030-18,-24.700000000000003,0.215,-0.729,99.84,2.0,,0.0,0.0,112.78
2025-08-15T02:45:29.066Z,17,GR86-030-18,-24.700000000000003,0.214,-0.73,99.84,2.0,,0.0,0.0,
2025-08-15T02:45:29.110Z,17,GR86-030-18,-24.700000000000003,0.25,-0.738,99.83,2.0,,0.0,0.0,
2025-08-15T02:45:29.153Z,17,GR86-030-18,-24.6,0.201,-0.705,99.84,2.0,,0.0,0.0,
2025-08-15T02:45:29.196Z,17,GR86-030-18,-24.5,0.231,-0.726,99.83,2.0,6698.0,0.0,0.0,
2025-08-15T02:45:29.240Z,17,GR86-030-18,-23.9,0.237,-0.739,99.83,2.0,,0.0,0.0,114.55
2025-08-15T02:45:29.283Z,17,GR86-030-18,-23.1,0.267,-0.754,99.85,2.0,,0.0,0.0,
2025-08-15T02:45:29.326Z,17,GR86-030-18,-22.3,0.242,-0.6930000000000001,99.83,2.0,,0.0,0.0,
2025-08-15T02:45:29.370Z,17,GR86-030-18,-20.5,0.304,-0.6970000000000001,99.81,2.0,,0.0,0.0,
2025-08-15T02:45:29.413Z,17,GR86-030-18,-18.4,0.298,-0.468,99.83,2.0,6803.0,0.0,0.0,
2025-08-15T02:45:29.456Z,17,GR86-030-18,-16.5,0.261,-0.613,99.83,2.0,,0.0,0.0,116.19
2025-08-15T02:45:29.500Z,17,GR86-030-18,-15.0,0.194,-0.456,99.83,2.0,,0.0,0.0,
2025-08-15T02:45:29.543Z,17,GR86-030-18,-16.1,0.181,-0.419,99.86,2.0,,0.0,0.0,
2025-08-15T02:45:29.586Z,17,GR86-030-18,-16.6,0.154,-0.481,99.86,2.0,,0.0,0.0,
2025-08-15T02:45:29.630Z,17,GR86-030-18,-16.0,0.125,-0.402,99.86,2.0,6890.0,0.0,0.0,
2025-08-15T02:45:29.673Z,17,GR86-030-18,-15.6,0.172,-0.488,99.88,2.0,,0.0,0.0,117.92
2025-08-15T02:45:29.715Z,17,GR86-030-18,-15.0,0.295,-0.525,99.84,2.0,,0.0,0.0,
2025-08-15T02:45:29.759Z,17,GR86-030-18,-12.2,0.212,-0.421,99.87,2.0,,0.0,0.0,
2025-08-15T02:45:29.803Z,17,GR86-030-18,-10.4,0.149,-0.6950000000000001,99.87,2.0,,0.0,0.0,
2025-08-15T02:45:29.846Z,17,GR86-030-18,-10.8,0.204,-0.529,99.83,2.0,6983.0,0.0,0.0,
2025-08-15T02:45:29.890Z,17,GR86-030-18,-9.7,0.178,-0.526,99.84,2.0,,0.0,0.0,119.47
2025-08-15T02:45:29.933Z,17,GR86-030-18,-7.1000000000000005,0.115,-0.44,99.85,2.0,,0.0,0.0,
2025-08-15T02:45:29.976Z,17,GR86-030-18,-3.9,0.06,-0.5720000000000001,99.88,2.0,,0.0,0.0,
2025-08-15T02:45:30.020Z,17,GR86-030-18,-2.1,0.271,-0.61,99.84,2.0,,0.0,0.0,
2025-08-15T02:45:30.063Z,17,GR86-030-18,-1.5,0.324,-0.479,99.9,2.0,7115.0,0.0,0.0,
2025-08-15T02:45:30.106Z,17,GR86-030-18,-0.4,0.227,-0.278,99.85,2.0,,0.0,0.0,120.76
2025-08-15T02:45:30.150Z,17,GR86-030-18,0.7000000000000001,0.251,-0.462,99.86,2.0,,0.0,0.0,
2025-08-15T02:45:30.193Z,17,GR86-030-18,1.1,0.277,-0.382,99.85,2.0,,0.0,0.0,
2025-08-15T02:45:30.235Z,17,GR86-030-18,1.4,0.214,-0.207,99.84,2.0,,0.0,0.0,
2025-08-15T02:45:30.279Z,17,GR86-030-18,1.5,0.254,-0.198,99.87,2.0,7167.0,0.0,0.0,
2025-08-15T02:45:30.321Z,17,GR86-030-18,1.4,0.182,-0.181,99.84,2.0,,0.0,0.0,122.56
2025-08-15T02:45:30.364Z,17,GR86-030-18,0.5,0.032,-0.138,99.86,3.0,,0.0,0.0,
2025-08-15T02:45:30.407Z,17,GR86-030-18,0.4,0.111,-0.008,99.85,3.0,,0.0,0.0,
2025-08-15T02:45:30.450Z,17,GR86-030-18,1.6,0.523,-0.087,99.86,3.0,,0.0,0.0,
2025-08-15T02:45:30.493Z,17,GR86-030-18,2.3000000000000003,0.355,-0.176,99.86,3.0,7290.0,0.0,0.0,
2025-08-15T02:45:30.536Z,17,GR86-030-18,2.7,0.37,0.007,99.87,3.0,,0.0,0.0,124.15
2025-08-15T02:45:30.580Z,17,GR86-030-18,2.6,0.1,-0.127,99.86,3.0,,0.0,0.0,
2025-08-15T02:45:30.623Z,17,GR86-030-18,2.7,0.151,0.014,99.86,3.0,,0.0,0.0,
2025-08-15T02:45:30.666Z,17,GR86-030-18,3.5,0.214,-0.037,99.86,3.0,,0.0,0.0,
2025-08-15T02:45:30.710Z,17,GR86-030-18,3.8,0.24,-0.096,99.86,3.0,7290.0,0.0,0.0,
2025-08-15T02:45:30.752Z,17,GR86-030-18,3.9,0.239,0.06,99.84,3.0,,0.0,0.0,127.46
2025-08-15T02:45:30.795Z,17,GR86-030-18,4.4,0.137,0.0,99.86,3.0,,0.0,0.0,
2025-08-15T02:45:30.840Z,17,GR86-030-18,5.7,0.212,0.072,99.86,3.0,,0.0,0.0,
2025-08-15T02:45:30.883Z,17,GR86-030-18,5.5,0.17,0.012,99.86,3.0,,0.0,0.0,
2025-08-15T02:45:30.926Z,17,GR86-030-18,5.300000000000001,0.226,0.036,99.87,3.0,5922.0,0.0,0.0,
2025-08-15T02:45:30.970Z,17,GR86-030-18,5.2,0.237,0.09,99.85,3.0,,0.0,0.0,129.36
2025-08-15T02:45:31.013Z,17,GR86-030-18,5.300000000000001,0.162,0.05,99.86,3.0,,0.0,0.0,
2025-08-15T02:45:31.056Z,17,GR86-030-18,5.4,0.159,0.044,99.85,3.0,,0.0,0.0,
2025-08-15T02:45:31.100Z,17,GR86-030-18,5.800000000000001,0.141,0.065,99.86,3.0,,0.0,0.0,
2025-08-15T02:45:31.143Z,17,GR86-030-18,5.800000000000001,0.21,0.103,99.86,3.0,6132.0,0.0,0.0,
2025-08-15T02:45:31.186Z,17,GR86-030-18,5.800000000000001,0.244,0.139,99.86,3.0,,0.0,0.0,130.7
2025-08-15T02:45:31.230Z,17,GR86-030-18,5.9,0.17,0.11,99.87,3.0,,0.0,0.0,
2025-08-15T02:45:31.273Z,17,GR86-030-18,5.800000000000001,0.156,0.082,99.84,3.0,,0.0,0.0,
2025-08-15T02:45:31.315Z,17,GR86-030-18,5.300000000000001,0.225,0.1,99.86,3.0,,0.0,0.0,
2025-08-15T02:45:31.359Z,17,GR86-030-18,5.0,0.198,0.088,99.86,3.0,6203.0,0.0,0.0,
2025-08-15T02:45:31.401Z,17,GR86-030-18,5.0,0.26,0.122,99.86,3.0,,0.0,0.0,132.17000000000002
2025-08-15T02:45:31.444Z,17,GR86-030-18,5.300000000000001,0.177,0.104,99.86,3.0,,0.0,0.0,
2025-08-15T02:45:31.487Z,17,GR86-030-18,5.6000000000000005,0.136,0.048,99.85,3.0,,0.0,0.0,
2025-08-15T02:45:31.530Z,17,GR86-030-18,5.6000000000000005,0.203,0.087,99.88,3.0,,0.0,0.0,
2025-08-15T02:45:31.573Z,17,GR86-030-18,5.4,0.245,0.133,99.86,3.0,6264.0,0.0,0.0,
2025-08-15T02:45:31.616Z,17,GR86-030-18,5.0,0.156,0.095,99.87,3.0,,0.0,0.0,133.52
2025-08-15T02:45:31.660Z,17,GR86-030-18,4.5,0.195,0.115,99.85,3.0,,0.0,0.0,
2025-08-15T02:45:31.703Z,17,GR86-030-18,4.3,0.131,0.059,99.86,3.0,,0.0,0.0,
2025-08-15T02:45:31.746Z,17,GR86-030-18,4.3,0.191,0.07,99.86,3.0,,0.0,0.0,
2025-08-15T02:45:31.790Z,17,GR86-030-18,4.4,0.245,0.118,99.84,3.0,6332.0,0.0,0.0,
2025-08-15T02:45:31.832Z,17,GR86-030-18,4.4,0.18,0.123,99.87,3.0,,0.0,0.0,134.92000000000002
2025-08-15T02:45:31.875Z,17,GR86-030-18,4.5,0.13,0.071,99.87,3.0,,0.0,0.0,
2025-08-15T02:45:31.919Z,17,GR86-030-18,4.5,0.163,0.08,99.84,3.0,,0.0,0.0,
2025-08-15T02:45:31.963Z,17,GR86-030-18,4.5,0.137,0.051,99.86,3.0,,0.0,0.0,
2025-08-15T02:45:32.006Z,17,GR86-030-18,4.5,0.218,0.077,99.87,3.0,6391.0,0.0,0.0,
2025-08-15T02:45:32.050Z,17,GR86-030-18,4.4,0.237,0.131,99.85,3.0,,0.0,0.0,136.24
2025-08-15T02:45:32.093Z,17,GR86-030-18,4.1000000000000005,0.167,0.104,99.86,3.0,,0.0,0.0,
2025-08-15T02:45:32.135Z,17,GR86-030-18,3.7,0.137,0.065,99.87,3.0,,0.0,0.0,
2025-08-15T02:45:32.179Z,17,GR86-030-18,3.3000000000000003,0.134,0.079,99.86,3.0,,0.0,0.0,
2025-08-15T02:45:32.221Z,17,GR86-030-18,3.1,0.16,0.066,99.84,3.0,6459.0,0.0,0.0,
2025-08-15T02:45:32.264Z,17,GR86-030-18,3.1,0.242,0.105,99.86,3.0,,0.0,0.0,137.55
2025-08-15T02:45:32.307Z,17,GR86-030-18,3.3000000000000003,0.232,0.12,99.87,3.0,,0.0,0.0,
2025-08-15T02:45:32.350Z,17,GR86-030-18,3.4000000000000004,0.154,0.082,99.86,3.0,,0.0,0.0,
2025-08-15T02:45:32.393Z,17,GR86-030-18,3.4000000000000004,0.123,0.044,99.86,3.0,,0.0,0.0,
2025-08-15T02:45:32.436Z,17,GR86-030-18,3.4000000000000004,0.209,0.068,99.83,3.0,6515.0,0.0,0.0,
2025-08-15T02:45:32.480Z,17,GR86-030-18,3.3000000000000003,0.154,0.047,99.85,3.0,,0.0,0.0,138.87
2025-08-15T02:45:32.524Z,17,GR86-030-18,3.3000000000000003,0.233,0.094,99.86,3.0,,0.0,0.0,
2025-08-15T02:45:32.567Z,17,GR86-030-18,3.3000000000000003,0.231,0.11,99.85,3.0,,0.0,0.0,
2025-08-15T02:45:32.610Z,17,GR86-030-18,3.2,0.158,0.079,99.85,3.0,,0.0,0.0,
2025-08-15T02:45:32.653Z,17,GR86-030-18,3.3000000000000003,0.119,0.047,99.87,3.0,6573.0,0.0,0.0,
2025-08-15T02:45:32.696Z,17,GR86-030-18,3.2,0.195,0.063,99.86,3.0,,0.0,0.0,140.17000000000002
2025-08-15T02:45:32.741Z,17,GR86-030-18,3.0,0.129,0.036,99.84,3.0,,0.0,0.0,
2025-08-15T02:45:32.783Z,17,GR86-030-18,2.8000000000000003,0.205,0.051,99.85,3.0,,0.0,0.0,
2025-08-15T02:45:32.826Z,17,GR86-030-18,2.7,0.244,0.08,99.84,3.0,,0.0,0.0,
2025-08-15T02:45:32.870Z,17,GR86-030-18,2.5,0.186,0.068,99.86,3.0,6629.0,0.0,0.0,
2025-08-15T02:45:32.913Z,17,GR86-030-18,2.2,0.118,0.032,99.83,3.0,,0.0,0.0,141.43
2025-08-15T02:45:32.955Z,17,GR86-030-18,2.0,0.142,0.006,99.84,3.0,,0.0,0.0,
2025-08-15T02:45:32.999Z,17,GR86-030-18,2.4000000000000004,0.112,0.02,99.86,3.0,,0.0,0.0,
2025-08-15T02:45:33.041Z,17,GR86-030-18,2.4000000000000004,0.141,0.009,99.87,3.0,,0.0,0.0,
2025-08-15T02:45:33.084Z,17,GR86-030-18,2.4000000000000004,0.232,0.039,99.86,3.0,6686.0,0.0,0.0,
2025-08-15T02:45:33.127Z,17,GR86-030-18,2.8000000000000003,0.244,0.07,99.86,3.0,,0.0,0.0,142.63
2025-08-15T02:45:33.170Z,17,GR86-030-18,3.5,0.167,0.055,99.87,3.0,,0.0,0.0,
2025-08-15T02:45:33.213Z,17,GR86-030-18,4.0,0.112,0.014,99.83,3.0,,0.0,0.0,
2025-08-15T02:45:33.256Z,17,GR86-030-18,3.9,0.143,0.01,99.83,3.0,,0.0,0.0,
2025-08-15T02:45:33.300Z,17,GR86-030-18,3.5,0.113,0.008,99.87,3.0,6752.0,0.0,0.0,
2025-08-15T02:45:33.343Z,17,GR86-030-18,2.6,0.141,0.003,99.84,3.0,,0.0,0.0,144.98
2025-08-15T02:45:33.386Z,17,GR86-030-18,2.0,0.222,0.035,99.83,3.0,,0.0,0.0,
2025-08-15T02:45:33.430Z,17,GR86-030-18,1.7000000000000002,0.243,0.05,99.83,3.0,,0.0,0.0,
2025-08-15T02:45:33.473Z,17,GR86-030-18,1.7000000000000002,0.187,0.028,99.87,3.0,,0.0,0.0,
2025-08-15T02:45:33.516Z,17,GR86-030-18,1.8,0.112,-0.017,99.86,3.0,6798.0,0.0,0.0,
2025-08-15T02:45:33.560Z,17,GR86-030-18,1.9,0.191,0.029,99.86,3.0,,0.0,0.0,146.21
2025-08-15T02:45:33.603Z,17,GR86-030-18,2.2,0.114,-0.01,99.85,3.0,,0.0,0.0,
2025-08-15T02:45:33.646Z,17,GR86-030-18,2.4000000000000004,0.106,-0.022,99.83,3.0,,0.0,0.0,
2025-08-15T02:45:33.690Z,17,GR86-030-18,2.5,0.181,-0.003,99.84,3.0,,0.0,0.0,
2025-08-15T02:45:33.732Z,17,GR86-030-18,2.6,0.246,0.044,99.86,3.0,6847.0,0.0,0.0,
2025-08-15T02:45:33.775Z,17,GR86-030-18,2.7,0.217,0.058,99.85,3.0,,0.0,0.0,147.39
2025-08-15T02:45:33.819Z,17,GR86-030-18,2.4000000000000004,0.219,0.034,99.86,3.0,,0.0,0.0,
2025-08-15T02:45:33.861Z,17,GR86-030-18,2.3000000000000003,0.235,0.051,99.84,3.0,,0.0,0.0,
2025-08-15T02:45:33.904Z,17,GR86-030-18,2.2,0.171,0.025,99.86,3.0,,0.0,0.0,
2025-08-15T02:45:33.947Z,17,GR86-030-18,2.2,0.106,0.003,99.87,3.0,6963.0,0.0,0.0,
2025-08-15T02:45:33.990Z,17,GR86-030-18,2.1,0.123,-0.002,99.85,3.0,,0.0,0.0,148.55
2025-08-15T02:45:34.033Z,17,GR86-030-18,1.8,0.187,0.022,99.86,3.0,,0.0,0.0,
2025-08-15T02:45:34.076Z,17,GR86-030-18,1.6,0.235,0.05,99.86,3.0,,0.0,0.0,
2025-08-15T02:45:34.120Z,17,GR86-030-18,1.4,0.152,0.004,99.82,3.0,,0.0,0.0,
2025-08-15T02:45:34.163Z,17,GR86-030-18,1.3,0.223,0.02,99.85,3.0,7014.0,0.0,0.0,
2025-08-15T02:45:34.206Z,17,GR86-030-18,1.1,0.225,0.041,99.83,3.0,,0.0,0.0,149.72
2025-08-15T02:45:34.250Z,17,GR86-030-18,1.1,0.169,0.025,99.86,3.0,,0.0,0.0,
2025-08-15T02:45:34.293Z,17,GR86-030-18,0.9,0.115,-0.015,99.87,3.0,,0.0,0.0,
2025-08-15T02:45:34.335Z,17,GR86-030-18,0.7000000000000001,0.103,-0.036,99.87,3.0,,0.0,0.0,
2025-08-15T02:45:34.379Z,17,GR86-030-18,0.7000000000000001,0.148,-0.019,99.86,3.0,7072.0,0.0,0.0,
2025-08-15T02:45:34.421Z,17,GR86-030-18,0.7000000000000001,0.096,-0.055,99.86,3.0,,0.0,0.0,150.85
2025-08-15T02:45:34.464Z,17,GR86-030-18,1.0,0.114,-0.066,99.84,3.0,,0.0,0.0,
2025-08-15T02:45:34.507Z,17,GR86-030-18,1.3,0.171,-0.036,99.89,3.0,,0.0,0.0,
2025-08-15T02:45:34.550Z,17,GR86-030-18,1.8,0.21,-0.014,99.83,3.0,,0.0,0.0,
2025-08-15T02:45:34.593Z,17,GR86-030-18,2.3000000000000003,0.209,-0.003,99.86,3.0,7129.0,0.0,0.0,
2025-08-15T02:45:34.637Z,17,GR86-030-18,2.4000000000000004,0.163,-0.012,99.84,3.0,,0.0,0.0,151.98
2025-08-15T02:45:34.680Z,17,GR86-030-18,2.0,0.22,0.006,99.85,3.0,,0.0,0.0,
2025-08-15T02:45:34.723Z,17,GR86-030-18,1.8,0.194,0.014,99.85,3.0,,0.0,0.0,
2025-08-15T02:45:34.766Z,17,GR86-030-18,1.7000000000000002,0.147,0.001,99.83,3.0,,0.0,0.0,
2025-08-15T02:45:34.810Z,17,GR86-030-18,1.4,0.104,-0.017,99.89,3.0,7166.0,0.0,0.0,
2025-08-15T02:45:34.853Z,17,GR86-030-18,1.1,0.108,-0.029,99.83,3.0,,0.0,0.0,153.09
2025-08-15T02:45:34.896Z,17,GR86-030-18,0.7000000000000001,0.143,-0.033,99.87,3.0,,0.0,0.0,
2025-08-15T02:45:34.940Z,17,GR86-030-18,0.4,0.096,-0.051,99.85,3.0,,0.0,0.0,
2025-08-15T02:45:35.026Z,17,GR86-030-18,0.0,0.14,-0.059,99.84,3.0,7217.0,0.0,0.0,
2025-08-15T02:45:35.070Z,17,GR86-030-18,0.3,0.182,-0.036,99.84,3.0,,0.0,0.0,154.18
2025-08-15T02:45:35.113Z,17,GR86-030-18,1.2000000000000002,0.155,-0.022,99.8,3.0,,0.0,0.0,
2025-08-15T02:45:35.157Z,17,GR86-030-18,1.4,-0.147,-0.003,99.83,4.0,,0.0,0.0,
2025-08-15T02:45:35.200Z,17,GR86-030-18,2.2,0.468,-0.03,99.83,4.0,,0.0,0.0,
2025-08-15T02:45:35.243Z,17,GR86-030-18,2.0,0.338,-0.075,99.85,4.0,7274.0,0.0,0.0,
2025-08-15T02:45:35.286Z,17,GR86-030-18,1.4,0.16,0.02,99.83,4.0,,0.0,0.0,155.26
2025-08-15T02:45:35.330Z,17,GR86-030-18,0.7000000000000001,-0.015,-0.047,99.84,4.0,,0.0,0.0,
2025-08-15T02:45:35.373Z,17,GR86-030-18,0.3,0.061,-0.114,99.85,4.0,,0.0,0.0,
2025-08-15T02:45:35.415Z,17,GR86-030-18,0.5,0.16,-0.013,99.83,4.0,,0.0,0.0,
2025-08-15T02:45:35.459Z,17,GR86-030-18,1.1,0.118,-0.057,99.87,4.0,7004.0,0.0,0.0,
2025-08-15T02:45:35.503Z,17,GR86-030-18,0.9,0.059,-0.025,99.82,4.0,,0.0,0.0,156.32
2025-08-15T02:45:35.546Z,17,GR86-030-18,0.7000000000000001,0.077,-0.076,99.83,4.0,,0.0,0.0,
2025-08-15T02:45:35.590Z,17,GR86-030-18,0.9,0.122,-0.071,99.86,4.0,,0.0,0.0,
2025-08-15T02:45:35.633Z,17,GR86-030-18,1.0,0.144,-0.046,99.84,4.0,,0.0,0.0,
2025-08-15T02:45:35.676Z,17,GR86-030-18,0.9,0.162,-0.041,99.83,4.0,6158.0,0.0,0.0,
2025-08-15T02:45:35.720Z,17,GR86-030-18,0.2,0.088,-0.082,99.85,4.0,,0.0,0.0,157.28
2025-08-15T02:45:35.762Z,17,GR86-030-18,-0.5,0.13,-0.082,99.86,4.0,,0.0,0.0,
2025-08-15T02:45:35.806Z,17,GR86-030-18,-0.5,0.155,-0.065,99.86,4.0,,0.0,0.0,
2025-08-15T02:45:35.849Z,17,GR86-030-18,-0.5,0.176,-0.068,99.85,4.0,,0.0,0.0,
2025-08-15T02:45:35.891Z,17,GR86-030-18,-0.6000000000000001,0.157,-0.062,99.84,4.0,6240.0,0.0,0.0,
2025-08-15T02:45:35.934Z,17,GR86-030-18,-0.7000000000000001,0.132,-0.091,99.85,4.0,,0.0,0.0,158.22
2025-08-15T02:45:35.977Z,17,GR86-030-18,-0.8,0.094,-0.114,99.83,4.0,,0.0,0.0,
2025-08-15T02:45:36.020Z,17,GR86-030-18,-0.9,0.161,-0.103,99.82,4.0,,0.0,0.0,
2025-08-15T02:45:36.063Z,17,GR86-030-18,-0.8,0.155,-0.113,99.83,4.0,,0.0,0.0,
2025-08-15T02:45:36.106Z,17,GR86-030-18,-0.7000000000000001,0.12,-0.133,99.86,4.0,6271.0,0.0,0.0,
2025-08-15T02:45:36.150Z,17,GR86-030-18,-0.7000000000000001,0.082,-0.151,99.83,4.0,,0.0,0.0,159.95000000000002
2025-08-15T02:45:36.193Z,17,GR86-030-18,-0.7000000000000001,0.074,-0.164,99.85,4.0,,0.0,0.0,
2025-08-15T02:45:36.235Z,17,GR86-030-18,-0.7000000000000001,0.08,-0.17,99.85,4.0,,0.0,0.0,
2025-08-15T02:45:36.279Z,17,GR86-030-18,-0.6000000000000001,0.107,-0.131,99.83,4.0,,0.0,0.0,
2025-08-15T02:45:36.321Z,17,GR86-030-18,-0.4,0.081,-0.156,99.83,4.0,6303.0,0.0,0.0,
2025-08-15T02:45:36.364Z,17,GR86-030-18,-0.2,0.08,-0.148,99.84,4.0,,0.0,0.0,160.84
2025-08-15T02:45:36.407Z,17,GR86-030-18,0.0,0.086,-0.156,99.83,4.0,,0.0,0.0,
2025-08-15T02:45:36.450Z,17,GR86-030-18,0.3,0.114,-0.128,99.85,4.0,,0.0,0.0,
2025-08-15T02:45:36.493Z,17,GR86-030-18,0.7000000000000001,0.144,-0.115,99.84,4.0,,0.0,0.0,
2025-08-15T02:45:36.536Z,17,GR86-030-18,0.8,0.172,-0.083,99.83,4.0,6333.0,0.0,0.0,
2025-08-15T02:45:36.580Z,17,GR86-030-18,0.9,0.08,-0.12,99.84,4.0,,0.0,0.0,161.77
2025-08-15T02:45:36.623Z,17,GR86-030-18,0.6000000000000001,0.106,-0.097,99.83,4.0,,0.0,0.0,
2025-08-15T02:45:36.666Z,17,GR86-030-18,0.0,0.153,-0.081,99.83,4.0,,0.0,0.0,
2025-08-15T02:45:36.710Z,17,GR86-030-18,-0.6000000000000001,0.165,-0.061,99.85,4.0,,0.0,0.0,
2025-08-15T02:45:36.752Z,17,GR86-030-18,-0.8,0.162,-0.058,99.83,4.0,6408.0,0.0,0.0,
2025-08-15T02:45:36.795Z,17,GR86-030-18,-0.8,0.16,-0.052,99.87,4.0,,0.0,0.0,162.68
2025-08-15T02:45:36.839Z,17,GR86-030-18,-0.7000000000000001,0.135,-0.073,99.86,4.0,,0.0,0.0,
2025-08-15T02:45:36.883Z,17,GR86-030-18,-0.7000000000000001,0.146,-0.065,99.83,4.0,,0.0,0.0,
2025-08-15T02:45:36.926Z,17,GR86-030-18,-0.6000000000000001,0.173,-0.072,99.83,4.0,,0.0,0.0,
2025-08-15T02:45:36.970Z,17,GR86-030-18,-0.6000000000000001,0.157,-0.083,99.87,4.0,6432.0,0.0,0.0,
2025-08-15T02:45:37.013Z,17,GR86-030-18,-0.5,0.147,-0.088,99.83,4.0,,0.0,0.0,163.66
2025-08-15T02:45:37.056Z,17,GR86-030-18,-0.4,0.117,-0.105,99.85,4.0,,0.0,0.0,
2025-08-15T02:45:37.100Z,17,GR86-030-18,-0.5,0.151,-0.116,99.83,4.0,,0.0,0.0,
2025-08-15T02:45:37.143Z,17,GR86-030-18,-0.5,0.166,-0.115,99.84,4.0,,0.0,0.0,
2025-08-15T02:45:37.186Z,17,GR86-030-18,-0.5,0.161,-0.111,99.84,4.0,6471.0,0.0,0.0,
2025-08-15T02:45:37.230Z,17,GR86-030-18,-0.5,0.146,-0.113,99.82,4.0,,0.0,0.0,164.51
2025-08-15T02:45:37.273Z,17,GR86-030-18,-0.5,0.129,-0.109,99.85,4.0,,0.0,0.0,
2025-08-15T02:45:37.315Z,17,GR86-030-18,-0.5,0.089,-0.131,99.84,4.0,,0.0,0.0,
2025-08-15T02:45:37.359Z,17,GR86-030-18,-0.6000000000000001,0.164,-0.113,99.84,4.0,,0.0,0.0,
2025-08-15T02:45:37.401Z,17,GR86-030-18,-0.6000000000000001,0.176,-0.095,99.83,4.0,6514.0,0.0,0.0,
2025-08-15T02:45:37.444Z,17,GR86-030-18,-0.6000000000000001,0.147,-0.092,99.83,4.0,,0.0,0.0,165.41
2025-08-15T02:45:37.487Z,17,GR86-030-18,-0.6000000000000001,0.131,-0.113,99.84,4.0,,0.0,0.0,
2025-08-15T02:45:37.530Z,17,GR86-030-18,-0.7000000000000001,0.113,-0.126,99.85,4.0,,0.0,0.0,
2025-08-15T02:45:37.574Z,17,GR86-030-18,-0.7000000000000001,0.078,-0.145,99.83,4.0,,0.0,0.0,
2025-08-15T02:45:37.617Z,17,GR86-030-18,-0.7000000000000001,0.067,-0.144,99.82,4.0,6551.0,0.0,0.0,
2025-08-15T02:45:37.660Z,17,GR86-030-18,-0.7000000000000001,0.165,-0.087,99.83,4.0,,0.0,0.0,166.36
2025-08-15T02:45:37.703Z,17,GR86-030-18,-0.6000000000000001,0.152,-0.085,99.85,4.0,,0.0,0.0,
2025-08-15T02:45:37.746Z,17,GR86-030-18,-0.5,0.133,-0.099,99.82,4.0,,0.0,0.0,
2025-08-15T02:45:37.790Z,17,GR86-030-18,-0.5,0.108,-0.099,99.83,4.0,,0.0,0.0,
2025-08-15T02:45:37.832Z,17,GR86-030-18,-0.5,0.074,-0.106,99.83,4.0,6582.0,0.0,0.0,
2025-08-15T02:45:37.875Z,17,GR86-030-18,-0.5,0.06,-0.11,99.83,4.0,,0.0,0.0,167.28
2025-08-15T02:45:37.919Z,17,GR86-030-18,-0.5,0.16,-0.068,99.83,4.0,,0.0,0.0,
2025-08-15T02:45:37.963Z,17,GR86-030-18,-0.6000000000000001,0.161,-0.072,99.83,4.0,,0.0,0.0,
2025-08-15T02:45:38.006Z,17,GR86-030-18,-0.7000000000000001,0.134,-0.084,99.83,4.0,,0.0,0.0,
2025-08-15T02:45:38.050Z,17,GR86-030-18,-0.7000000000000001,0.128,-0.088,99.84,4.0,6617.0,0.0,0.0,
2025-08-15T02:45:38.093Z,17,GR86-030-18,-0.7000000000000001,0.096,-0.108,99.83,4.0,,0.0,0.0,168.24
2025-08-15T02:45:38.136Z,17,GR86-030-18,-0.9,0.079,-0.137,99.84,4.0,,0.0,0.0,
2025-08-15T02:45:38.180Z,17,GR86-030-18,-1.0,0.16,-0.109,99.83,4.0,,0.0,0.0,
2025-08-15T02:45:38.224Z,17,GR86-030-18,-1.0,0.168,-0.11,99.85,4.0,,0.0,0.0,
2025-08-15T02:45:38.267Z,17,GR86-030-18,-1.0,0.16,-0.119,99.82,4.0,6650.0,0.0,0.0,
2025-08-15T02:45:38.310Z,17,GR86-030-18,-1.0,0.148,-0.129,99.83,4.0,,0.0,0.0,169.12
2025-08-15T02:45:38.353Z,17,GR86-030-18,-0.9,0.123,-0.137,99.84,4.0,,0.0,0.0,
2025-08-15T02:45:38.396Z,17,GR86-030-18,-0.9,0.101,-0.144,99.85,4.0,,0.0,0.0,
2025-08-15T02:45:38.440Z,17,GR86-030-18,-0.9,0.136,-0.128,99.83,4.0,,0.0,0.0,
2025-08-15T02:45:38.483Z,17,GR86-030-18,-1.0,0.164,-0.125,99.83,4.0,6693.0,0.0,0.0,
2025-08-15T02:45:38.526Z,17,GR86-030-18,-1.0,0.143,-0.125,99.82,4.0,,0.0,0.0,169.88
2025-08-15T02:45:38.570Z,17,GR86-030-18,-1.0,0.167,-0.12,99.85,4.0,,0.0,0.0,
2025-08-15T02:45:38.613Z,17,GR86-030-18,-1.0,0.148,-0.121,99.83,4.0,,0.0,0.0,
2025-08-15T02:45:38.655Z,17,GR86-030-18,-1.0,0.146,-0.127,99.82,4.0,,0.0,0.0,
2025-08-15T02:45:38.699Z,17,GR86-030-18,-0.8,0.095,-0.137,99.83,4.0,6716.0,0.0,0.0,
2025-08-15T02:45:38.741Z,17,GR86-030-18,-0.7000000000000001,0.096,-0.131,99.83,4.0,,0.0,0.0,171.74
2025-08-15T02:45:38.784Z,17,GR86-030-18,-0.7000000000000001,0.131,-0.104,99.83,4.0,,0.0,0.0,
2025-08-15T02:45:38.829Z,17,GR86-030-18,-0.7000000000000001,0.13,-0.103,99.82,4.0,,0.0,0.0,
2025-08-15T02:45:38.871Z,17,GR86-030-18,-0.7000000000000001,0.153,-0.103,99.83,4.0,,0.0,0.0,
2025-08-15T02:45:38.914Z,17,GR86-030-18,-0.7000000000000001,0.15,-0.113,99.83,4.0,6756.0,0.0,0.0,
2025-08-15T02:45:38.957Z,17,GR86-030-18,-0.8,0.148,-0.109,99.82,4.0,,0.0,0.0,172.62
2025-08-15T02:45:39.000Z,17,GR86-030-18,-1.0,0.069,-0.154,99.83,4.0,,0.0,0.0,
2025-08-15T02:45:39.043Z,17,GR86-030-18,-1.2000000000000002,0.071,-0.162,99.83,4.0,,0.0,0.0,
2025-08-15T02:45:39.086Z,17,GR86-030-18,-1.4,0.074,-0.163,99.82,4.0,,0.0,0.0,
2025-08-15T02:45:39.130Z,17,GR86-030-18,-1.5,0.097,-0.167,99.83,4.0,6786.0,0.0,0.0,
2025-08-15T02:45:39.173Z,17,GR86-030-18,-1.4,0.097,-0.166,99.83,4.0,,0.0,0.0,173.4
2025-08-15T02:45:39.216Z,17,GR86-030-18,-1.4,0.108,-0.171,99.84,4.0,,0.0,0.0,
2025-08-15T02:45:39.260Z,17,GR86-030-18,-1.2000000000000002,0.071,-0.184,99.83,4.0,,0.0,0.0,
2025-08-15T02:45:39.303Z,17,GR86-030-18,-1.1,0.073,-0.191,99.86,4.0,,0.0,0.0,
2025-08-15T02:45:39.346Z,17,GR86-030-18,-1.2000000000000002,0.067,-0.192,99.83,4.0,6852.0,0.0,0.0,
2025-08-15T02:45:39.432Z,17,GR86-030-18,-1.2000000000000002,0.059,-0.185,99.83,4.0,,0.0,0.0,174.17000000000002
2025-08-15T02:45:39.475Z,17,GR86-030-18,-0.9,0.043,-0.169,99.85,4.0,,0.0,0.0,
2025-08-15T02:45:39.519Z,17,GR86-030-18,-0.6000000000000001,0.125,-0.104,99.83,4.0,,0.0,0.0,
2025-08-15T02:45:39.561Z,17,GR86-030-18,-0.5,0.131,-0.106,99.84,4.0,6891.0,0.0,0.0,
2025-08-15T02:45:39.604Z,17,GR86-030-18,-0.5,0.11,-0.111,99.85,4.0,,0.0,0.0,175.07
2025-08-15T02:45:39.647Z,17,GR86-030-18,-0.4,0.107,-0.125,99.83,4.0,,0.0,0.0,
2025-08-15T02:45:39.690Z,17,GR86-030-18,-0.4,0.103,-0.138,99.83,4.0,,0.0,0.0,
2025-08-15T02:45:39.733Z,17,GR86-030-18,-0.4,0.1,-0.124,99.84,4.0,,0.0,0.0,
2025-08-15T02:45:39.776Z,17,GR86-030-18,-0.3,0.089,-0.109,99.83,4.0,6922.0,0.0,0.0,
2025-08-15T02:45:39.820Z,17,GR86-030-18,-0.4,0.124,-0.082,99.84,4.0,,0.0,0.0,175.82
2025-08-15T02:45:39.863Z,17,GR86-030-18,-0.5,0.115,-0.087,99.81,4.0,,0.0,0.0,
2025-08-15T02:45:39.906Z,17,GR86-030-18,-0.5,0.123,-0.072,99.83,4.0,,0.0,0.0,
2025-08-15T02:45:39.950Z,17,GR86-030-18,-0.6000000000000001,0.127,-0.077,99.83,4.0,,0.0,0.0,
2025-08-15T02:45:39.993Z,17,GR86-030-18,-0.7000000000000001,0.138,-0.068,99.83,4.0,6951.0,0.0,0.0,
2025-08-15T02:45:40.035Z,17,GR86-030-18,-0.7000000000000001,0.121,-0.073,99.8,4.0,,0.0,0.0,176.66
2025-08-15T02:45:40.079Z,17,GR86-030-18,-0.4,0.054,-0.099,99.82,4.0,,0.0,0.0,
2025-08-15T02:45:40.121Z,17,GR86-030-18,-0.4,0.055,-0.103,99.83,4.0,,0.0,0.0,
2025-08-15T02:45:40.164Z,17,GR86-030-18,-0.4,0.056,-0.107,99.84,4.0,,0.0,0.0,
2025-08-15T02:45:40.207Z,17,GR86-030-18,-0.4,0.062,-0.103,99.83,4.0,6975.0,0.0,0.0,
2025-08-15T02:45:40.250Z,17,GR86-030-18,-0.5,0.073,-0.093,99.83,4.0,,0.0,0.0,177.43
2025-08-15T02:45:40.293Z,17,GR86-030-18,-0.7000000000000001,0.06,-0.092,99.85,4.0,,0.0,0.0,
2025-08-15T02:45:40.337Z,17,GR86-030-18,-0.7000000000000001,0.063,-0.078,99.84,4.0,,0.0,0.0,
2025-08-15T02:45:40.380Z,17,GR86-030-18,-0.4,0.115,-0.039,99.84,4.0,,0.0,0.0,
2025-08-15T02:45:40.423Z,17,GR86-030-18,-0.3,0.097,-0.043,99.82,4.0,6999.0,0.0,0.0,
2025-08-15T02:45:40.466Z,17,GR86-030-18,-0.1,0.097,-0.047,99.82,4.0,,0.0,0.0,178.19
2025-08-15T02:45:40.510Z,17,GR86-030-18,-0.1,0.091,-0.062,99.84,4.0,,0.0,0.0,
2025-08-15T02:45:40.553Z,17,GR86-030-18,-0.1,0.086,-0.051,99.82,4.0,,0.0,0.0,
2025-08-15T02:45:40.596Z,17,GR86-030-18,-0.4,0.083,-0.064,99.84,4.0,,0.0,0.0,
2025-08-15T02:45:40.640Z,17,GR86-030-18,-0.7000000000000001,0.097,-0.036,99.83,4.0,7041.0,0.0,0.0,
2025-08-15T02:45:40.683Z,17,GR86-030-18,-0.7000000000000001,0.103,-0.035,99.79,4.0,,0.0,0.0,178.97
2025-08-15T02:45:40.726Z,17,GR86-030-18,-0.9,0.102,-0.039,99.83,4.0,,0.0,0.0,
2025-08-15T02:45:40.771Z,17,GR86-030-18,-0.9,0.116,-0.057,99.82,4.0,,0.0,0.0,
2025-08-15T02:45:40.813Z,17,GR86-030-18,-0.9,0.117,-0.062,99.83,4.0,,0.0,0.0,
2025-08-15T02:45:40.856Z,17,GR86-030-18,-1.0,0.116,-0.072,99.85,4.0,7059.0,0.0,0.0,
2025-08-15T02:45:40.900Z,17,GR86-030-18,-0.9,0.039,-0.122,99.81,4.0,,0.0,0.0,179.70000000000002
2025-08-15T02:45:40.943Z,17,GR86-030-18,-0.9,0.045,-0.113,99.83,4.0,,0.0,0.0,
2025-08-15T02:45:40.986Z,17,GR86-030-18,-0.7000000000000001,0.05,-0.113,99.83,4.0,,0.0,0.0,
2025-08-15T02:45:41.030Z,17,GR86-030-18,-0.5,0.035,-0.11,99.84,4.0,,0.0,0.0,
2025-08-15T02:45:41.073Z,17,GR86-030-18,-0.3,0.025,-0.122,99.87,4.0,7094.0,0.0,0.0,
2025-08-15T02:45:41.115Z,17,GR86-030-18,-0.1,0.042,-0.118,99.82,4.0,,0.0,0.0,180.39
2025-08-15T02:45:41.159Z,17,GR86-030-18,-0.2,0.136,-0.074,99.86,4.0,,0.0,0.0,
2025-08-15T02:45:41.203Z,17,GR86-030-18,-0.2,0.129,-0.065,99.84,4.0,,0.0,0.0,
2025-08-15T02:45:41.246Z,17,GR86-030-18,-0.3,0.137,-0.047,99.82,4.0,,0.0,0.0,
2025-08-15T02:45:41.290Z,17,GR86-030-18,-0.4,0.132,-0.05,99.82,4.0,7123.0,0.0,0.0,
2025-08-15T02:45:41.333Z,17,GR86-030-18,-0.5,0.123,-0.038,99.82,4.0,,0.0,0.0,181.02
2025-08-15T02:45:41.376Z,17,GR86-030-18,-0.5,0.126,-0.034,99.85,4.0,,0.0,0.0,
2025-08-15T02:45:41.420Z,17,GR86-030-18,-0.5,0.03,-0.063,99.83,4.0,,0.0,0.0,
2025-08-15T02:45:41.463Z,17,GR86-030-18,-0.6000000000000001,0.028,-0.079,99.84,4.0,,0.0,0.0,
2025-08-15T02:45:41.506Z,17,GR86-030-18,-0.7000000000000001,0.04,-0.083,99.83,4.0,7144.0,0.0,0.0,
2025-08-15T02:45:41.550Z,17,GR86-030-18,-0.5,0.036,-0.09,99.82,4.0,,0.0,0.0,182.57
2025-08-15T02:45:41.593Z,17,GR86-030-18,-0.5,0.041,-0.089,99.83,4.0,,0.0,0.0,
2025-08-15T02:45:41.635Z,17,GR86-030-18,-0.4,0.043,-0.1,99.83,4.0,,0.0,0.0,
2025-08-15T02:45:41.679Z,17,GR86-030-18,-0.4,0.12,-0.073,99.82,4.0,,0.0,0.0,
2025-08-15T02:45:41.721Z,17,GR86-030-18,-0.5,0.107,-0.086,99.82,4.0,7176.0,0.0,0.0,
2025-08-15T02:45:41.764Z,17,GR86-030-18,-0.5,0.103,-0.094,99.86,4.0,,0.0,0.0,183.08
2025-08-15T02:45:41.807Z,17,GR86-030-18,-0.4,0.111,-0.09,99.82,4.0,,0.0,0.0,
2025-08-15T02:45:41.850Z,17,GR86-030-18,0.0,-0.008,-0.102,99.82,5.0,,0.0,0.0,
2025-08-15T02:45:41.893Z,17,GR86-030-18,-0.1,-0.12,-0.063,99.83,5.0,,0.0,0.0,
2025-08-15T02:45:41.937Z,17,GR86-030-18,-0.1,0.414,-0.076,99.83,5.0,7207.0,0.0,0.0,
2025-08-15T02:45:41.980Z,17,GR86-030-18,0.1,0.079,-0.134,99.83,5.0,,0.0,0.0,183.88
2025-08-15T02:45:42.023Z,17,GR86-030-18,0.2,-0.06,-0.083,99.8,5.0,,0.0,0.0,
2025-08-15T02:45:42.066Z,17,GR86-030-18,-0.1,0.064,-0.177,99.83,5.0,,0.0,0.0,
2025-08-15T02:45:42.110Z,17,GR86-030-18,0.0,0.138,-0.108,99.83,5.0,,0.0,0.0,
2025-08-15T02:45:42.153Z,17,GR86-030-18,0.3,0.085,-0.061,99.84,5.0,6568.0,0.0,0.0,
2025-08-15T02:45:42.196Z,17,GR86-030-18,0.5,0.037,-0.096,99.83,5.0,,0.0,0.0,184.44
2025-08-15T02:45:42.240Z,17,GR86-030-18,0.2,0.062,-0.042,99.83,5.0,,0.0,0.0,
2025-08-15T02:45:42.283Z,17,GR86-030-18,0.1,0.067,-0.073,99.83,5.0,,0.0,0.0,
2025-08-15T02:45:42.326Z,17,GR86-030-18,0.3,0.023,-0.064,99.84,5.0,,0.0,0.0,
2025-08-15T02:45:42.370Z,17,GR86-030-18,0.2,0.037,-0.086,99.83,5.0,6280.0,0.0,0.0,
2025-08-15T02:45:42.413Z,17,GR86-030-18,0.0,0.041,-0.081,99.83,5.0,,0.0,0.0,185.21
2025-08-15T02:45:42.456Z,17,GR86-030-18,-0.1,0.029,-0.089,99.83,5.0,,0.0,0.0,
2025-08-15T02:45:42.500Z,17,GR86-030-18,0.2,0.111,-0.038,99.83,5.0,,0.0,0.0,
2025-08-15T02:45:42.543Z,17,GR86-030-18,0.8,0.121,-0.043,99.83,5.0,,0.0,0.0,
2025-08-15T02:45:42.586Z,17,GR86-030-18,1.2000000000000002,0.114,-0.031,99.83,5.0,6317.0,0.0,0.0,
2025-08-15T02:45:42.630Z,17,GR86-030-18,1.4,0.111,-0.035,99.84,5.0,,0.0,0.0,185.79
2025-08-15T02:45:42.672Z,17,GR86-030-18,1.4,0.101,-0.048,99.83,5.0,,0.0,0.0,
2025-08-15T02:45:42.715Z,17,GR86-030-18,1.4,0.109,-0.031,99.83,5.0,,0.0,0.0,
2025-08-15T02:45:42.759Z,17,GR86-030-18,1.3,0.039,-0.027,99.83,5.0,,0.0,0.0,
2025-08-15T02:45:42.801Z,17,GR86-030-18,1.3,0.039,-0.018,99.83,5.0,6349.0,0.0,0.0,
2025-08-15T02:45:42.844Z,17,GR86-030-18,1.3,0.052,-0.023,99.84,5.0,,0.0,0.0,186.33
2025-08-15T02:45:42.887Z,17,GR86-030-18,1.2000000000000002,0.045,-0.029,99.82,5.0,,0.0,0.0,
2025-08-15T02:45:42.930Z,17,GR86-030-18,1.3,0.068,-0.031,99.83,5.0,,0.0,0.0,
2025-08-15T02:45:42.973Z,17,GR86-030-18,1.3,0.066,-0.017,99.83,5.0,,0.0,0.0,
2025-08-15T02:45:43.016Z,17,GR86-030-18,1.3,0.072,-0.012,99.83,5.0,6372.0,0.0,0.0,
2025-08-15T02:45:43.060Z,17,GR86-030-18,1.3,0.042,0.007,99.83,5.0,,0.0,0.0,186.96
2025-08-15T02:45:43.103Z,17,GR86-030-18,1.3,0.048,0.005,99.83,5.0,,0.0,0.0,
2025-08-15T02:45:43.146Z,17,GR86-030-18,1.3,0.036,0.003,99.83,5.0,,0.0,0.0,
2025-08-15T02:45:43.190Z,17,GR86-030-18,1.3,0.039,0.007,99.82,5.0,,0.0,0.0,
2025-08-15T02:45:43.233Z,17,GR86-030-18,1.6,0.025,0.006,99.83,5.0,6381.0,0.0,0.0,
2025-08-15T02:45:43.276Z,17,GR86-030-18,1.8,0.03,-0.006,99.83,5.0,,0.0,0.0,187.53
2025-08-15T02:45:43.320Z,17,GR86-030-18,1.5,0.102,0.009,99.82,5.0,,0.0,0.0,
2025-08-15T02:45:43.363Z,17,GR86-030-18,1.4,0.083,0.012,99.83,5.0,,0.0,0.0,
2025-08-15T02:45:43.406Z,17,GR86-030-18,1.3,0.084,0.019,99.8,5.0,,0.0,0.0,
2025-08-15T02:45:43.450Z,17,GR86-030-18,1.4,0.081,0.016,99.83,5.0,6404.0,0.0,0.0,
2025-08-15T02:45:43.493Z,17,GR86-030-18,1.5,0.073,0.02,99.84,5.0,,0.0,0.0,188.04
2025-08-15T02:45:43.536Z,17,GR86-030-18,1.5,0.059,0.016,99.83,5.0,,0.0,0.0,
2025-08-15T02:45:43.580Z,17,GR86-030-18,1.2000000000000002,0.063,0.0,99.82,5.0,,0.0,0.0,
2025-08-15T02:45:43.624Z,17,GR86-030-18,0.9,0.071,0.006,99.83,5.0,,0.0,0.0,
2025-08-15T02:45:43.667Z,17,GR86-030-18,0.7000000000000001,0.086,0.006,99.81,5.0,6429.0,0.0,0.0,
2025-08-15T02:45:43.710Z,17,GR86-030-18,0.7000000000000001,0.088,0.002,99.83,5.0,,0.0,0.0,188.61
2025-08-15T02:45:43.753Z,17,GR86-030-18,0.7000000000000001,0.087,-0.004,99.83,5.0,,0.0,0.0,
2025-08-15T02:45:43.796Z,17,GR86-030-18,0.8,0.099,0.003,99.84,5.0,,0.0,0.0,
2025-08-15T02:45:43.841Z,17,GR86-030-18,0.9,0.04,-0.026,99.82,5.0,,0.0,0.0,
2025-08-15T02:45:43.883Z,17,GR86-030-18,1.1,0.038,-0.027,99.83,5.0,6441.0,0.0,0.0,
2025-08-15T02:45:43.926Z,17,GR86-030-18,1.1,0.046,-0.045,99.8,5.0,,0.0,0.0,189.2
2025-08-15T02:45:43.970Z,17,GR86-030-18,1.2000000000000002,0.048,-0.044,99.84,5.0,,0.0,0.0,
2025-08-15T02:45:44.013Z,17,GR86-030-18,1.3,0.057,-0.038,99.83,5.0,,0.0,0.0,
2025-08-15T02:45:44.055Z,17,GR86-030-18,1.5,0.061,-0.037,99.83,5.0,,0.0,0.0,
2025-08-15T02:45:44.099Z,17,GR86-030-18,1.6,0.036,0.003,99.81,5.0,6458.0,0.0,0.0,
2025-08-15T02:45:44.141Z,17,GR86-030-18,1.6,0.051,0.007,99.83,5.0,,0.0,0.0,190.33
2025-08-15T02:45:44.184Z,17,GR86-030-18,1.6,0.045,-0.004,99.82,5.0,,0.0,0.0,
2025-08-15T02:45:44.227Z,17,GR86-030-18,1.5,0.02,-0.01,99.81,5.0,,0.0,0.0,
2025-08-15T02:45:44.270Z,17,GR86-030-18,1.3,0.039,0.001,99.83,5.0,,0.0,0.0,
2025-08-15T02:45:44.313Z,17,GR86-030-18,1.2000000000000002,0.032,0.011,99.83,5.0,6475.0,0.0,0.0,
2025-08-15T02:45:44.356Z,17,GR86-030-18,1.3,0.042,0.012,99.8,5.0,,0.0,0.0,190.91
2025-08-15T02:45:44.400Z,17,GR86-030-18,1.8,0.073,0.045,99.82,5.0,,0.0,0.0,
2025-08-15T02:45:44.443Z,17,GR86-030-18,2.0,0.069,0.053,99.82,5.0,,0.0,0.0,
2025-08-15T02:45:44.486Z,17,GR86-030-18,2.1,0.06,0.056,99.83,5.0,,0.0,0.0,
2025-08-15T02:45:44.530Z,17,GR86-030-18,2.0,0.049,0.033,99.83,5.0,6495.0,0.0,0.0,
2025-08-15T02:45:44.572Z,17,GR86-030-18,1.9,0.045,0.039,99.82,5.0,,0.0,0.0,191.39
2025-08-15T02:45:44.615Z,17,GR86-030-18,1.9,0.045,0.04,99.81,5.0,,0.0,0.0,
2025-08-15T02:45:44.659Z,17,GR86-030-18,2.0,0.091,0.053,99.83,5.0,,0.0,0.0,
2025-08-15T02:45:44.701Z,17,GR86-030-18,2.1,0.084,0.039,99.83,5.0,,0.0,0.0,
2025-08-15T02:45:44.744Z,17,GR86-030-18,2.3000000000000003,0.087,0.04,99.83,5.0,6526.0,0.0,0.0,
2025-08-15T02:45:44.787Z,17,GR86-030-18,2.6,0.079,0.035,99.82,5.0,,0.0,0.0,191.93
2025-08-15T02:45:44.830Z,17,GR86-030-18,2.7,0.047,0.042,99.82,5.0,,0.0,0.0,
2025-08-15T02:45:44.873Z,17,GR86-030-18,2.8000000000000003,0.071,0.041,99.83,5.0,,0.0,0.0,
2025-08-15T02:45:44.916Z,17,GR86-030-18,3.0,0.043,0.05,99.8,5.0,,0.0,0.0,
2025-08-15T02:45:44.960Z,17,GR86-030-18,3.5,0.073,0.064,99.83,5.0,6548.0,0.0,0.0,
2025-08-15T02:45:45.003Z,17,GR86-030-18,3.5,0.085,0.069,99.82,5.0,,0.0,0.0,192.4
2025-08-15T02:45:45.046Z,17,GR86-030-18,3.5,0.091,0.075,99.83,5.0,,0.0,0.0,
2025-08-15T02:45:45.090Z,17,GR86-030-18,3.5,0.088,0.082,99.83,5.0,,0.0,0.0,
2025-08-15T02:45:45.133Z,17,GR86-030-18,3.5,0.07,0.092,99.81,5.0,,0.0,0.0,
2025-08-15T02:45:45.176Z,17,GR86-030-18,3.5,0.069,0.088,99.83,5.0,6563.0,0.0,0.0,
2025-08-15T02:45:45.220Z,17,GR86-030-18,3.8,0.069,0.074,99.82,5.0,,0.0,0.0,192.85
2025-08-15T02:45:45.263Z,17,GR86-030-18,3.7,0.08,0.072,99.82,5.0,,0.0,0.0,
2025-08-15T02:45:45.306Z,17,GR86-030-18,3.7,0.087,0.102,99.8,5.0,,0.0,0.0,
2025-08-15T02:45:45.350Z,17,GR86-030-18,3.6,0.092,0.117,99.85,5.0,,0.0,0.0,
2025-08-15T02:45:45.393Z,17,GR86-030-18,3.9,0.087,0.112,99.83,5.0,6581.0,0.0,0.0,
2025-08-15T02:45:45.435Z,17,GR86-030-18,4.6000000000000005,0.087,0.119,99.82,5.0,,0.0,0.0,193.38
2025-08-15T02:45:45.479Z,17,GR86-030-18,5.4,0.05,0.107,99.84,5.0,,0.0,0.0,
2025-08-15T02:45:45.521Z,17,GR86-030-18,5.5,0.054,0.127,99.83,5.0,,0.0,0.0,
2025-08-15T02:45:45.564Z,17,GR86-030-18,5.300000000000001,0.079,0.152,99.83,5.0,,0.0,0.0,
2025-08-15T02:45:45.607Z,17,GR86-030-18,5.0,0.08,0.157,99.82,5.0,6602.0,0.0,0.0,
2025-08-15T02:45:45.650Z,17,GR86-030-18,4.2,0.085,0.169,99.8,5.0,,0.0,0.0,193.84
2025-08-15T02:45:45.693Z,17,GR86-030-18,3.2,0.088,0.176,99.82,5.0,,0.0,0.0,
2025-08-15T02:45:45.736Z,17,GR86-030-18,2.3000000000000003,0.081,0.177,99.84,5.0,,0.0,0.0,
2025-08-15T02:45:45.780Z,17,GR86-030-18,1.8,0.056,0.126,99.81,5.0,,0.0,0.0,
2025-08-15T02:45:45.823Z,17,GR86-030-18,1.8,0.07,0.124,99.81,5.0,6618.0,0.0,0.0,
2025-08-15T02:45:45.866Z,17,GR86-030-18,1.9,0.069,0.127,99.82,5.0,,0.0,0.0,194.34
2025-08-15T02:45:45.910Z,17,GR86-030-18,2.3000000000000003,0.085,0.133,99.83,5.0,,0.0,0.0,
2025-08-15T02:45:45.953Z,17,GR86-030-18,2.9000000000000004,0.085,0.125,99.83,5.0,,0.0,0.0,
2025-08-15T02:45:45.997Z,17,GR86-030-18,4.0,0.075,0.111,99.8,5.0,,0.0,0.0,
2025-08-15T02:45:46.040Z,17,GR86-030-18,5.9,0.043,0.1,99.83,5.0,6637.0,0.0,0.0,
2025-08-15T02:45:46.083Z,17,GR86-030-18,6.5,0.065,0.121,99.82,5.0,,0.0,0.0,194.93
2025-08-15T02:45:46.126Z,17,GR86-030-18,6.800000000000001,0.073,0.156,99.83,5.0,,0.0,0.0,
2025-08-15T02:45:46.170Z,17,GR86-030-18,6.800000000000001,0.087,0.167,99.8,5.0,,0.0,0.0,
2025-08-15T02:45:46.213Z,17,GR86-030-18,6.800000000000001,0.08,0.197,99.8,5.0,,0.0,0.0,
2025-08-15T02:45:46.256Z,17,GR86-030-18,6.7,0.082,0.22,99.81,5.0,6651.0,0.0,0.0,
2025-08-15T02:45:46.300Z,17,GR86-030-18,6.6000000000000005,0.054,0.243,99.83,5.0,,0.0,0.0,195.47
2025-08-15T02:45:46.343Z,17,GR86-030-18,6.6000000000000005,0.061,0.253,99.82,5.0,,0.0,0.0,
2025-08-15T02:45:46.386Z,17,GR86-030-18,6.7,0.079,0.263,99.81,5.0,,0.0,0.0,
2025-08-15T02:45:46.430Z,17,GR86-030-18,6.7,0.086,0.285,99.81,5.0,,0.0,0.0,
2025-08-15T02:45:46.473Z,17,GR86-030-18,6.7,0.091,0.301,99.83,5.0,6666.0,0.0,0.0,
2025-08-15T02:45:46.515Z,17,GR86-030-18,6.7,0.066,0.294,99.8,5.0,,0.0,0.0,196.03
2025-08-15T02:45:46.559Z,17,GR86-030-18,6.7,0.047,0.27,99.83,5.0,,0.0,0.0,
2025-08-15T02:45:46.603Z,17,GR86-030-18,6.300000000000001,0.07,0.29,99.8,5.0,,0.0,0.0,
2025-08-15T02:45:46.646Z,17,GR86-030-18,5.6000000000000005,0.078,0.28,99.83,5.0,,0.0,0.0,
2025-08-15T02:45:46.690Z,17,GR86-030-18,5.1000000000000005,0.086,0.288,99.81,5.0,6690.0,0.0,0.0,
2025-08-15T02:45:46.733Z,17,GR86-030-18,4.9,0.092,0.269,99.82,5.0,,0.0,0.0,196.47
2025-08-15T02:45:46.776Z,17,GR86-030-18,4.9,0.075,0.244,99.83,5.0,,0.0,0.0,
2025-08-15T02:45:46.820Z,17,GR86-030-18,5.0,0.055,0.212,99.81,5.0,,0.0,0.0,
2025-08-15T02:45:46.863Z,17,GR86-030-18,5.5,0.083,0.221,99.83,5.0,,0.0,0.0,
2025-08-15T02:45:46.906Z,17,GR86-030-18,6.5,0.082,0.224,99.83,5.0,6703.0,0.0,0.0,
2025-08-15T02:45:46.950Z,17,GR86-030-18,7.6,0.087,0.225,99.83,5.0,,0.0,0.0,197.47
2025-08-15T02:45:46.993Z,17,GR86-030-18,8.3,0.078,0.223,99.82,5.0,,0.0,0.0,
2025-08-15T02:45:47.035Z,17,GR86-030-18,8.9,0.066,0.241,99.82,5.0,,0.0,0.0,
2025-08-15T02:45:47.079Z,17,GR86-030-18,9.9,0.072,0.261,99.81,5.0,,0.0,0.0,
2025-08-15T02:45:47.121Z,17,GR86-030-18,10.8,0.074,0.303,99.83,5.0,6718.0,0.0,0.0,
2025-08-15T02:45:47.164Z,17,GR86-030-18,11.8,0.082,0.344,99.82,5.0,,0.0,0.0,197.89
2025-08-15T02:45:47.207Z,17,GR86-030-18,12.2,0.074,0.381,99.82,5.0,,0.0,0.0,
2025-08-15T02:45:47.250Z,17,GR86-030-18,12.0,0.068,0.427,99.8,5.0,,0.0,0.0,
2025-08-15T02:45:47.293Z,17,GR86-030-18,11.3,0.058,0.461,99.83,5.0,,0.0,0.0,
2025-08-15T02:45:47.337Z,17,GR86-030-18,10.5,0.033,0.468,99.81,5.0,6737.0,0.0,0.0,
2025-08-15T02:45:47.380Z,17,GR86-030-18,9.7,0.068,0.481,99.8,5.0,,0.0,0.0,198.23
2025-08-15T02:45:47.423Z,17,GR86-030-18,9.7,0.084,0.492,99.83,5.0,,0.0,0.0,
2025-08-15T02:45:47.466Z,17,GR86-030-18,9.7,0.077,0.479,99.8,5.0,,0.0,0.0,
2025-08-15T02:45:47.510Z,17,GR86-030-18,9.8,0.049,0.443,99.81,5.0,,0.0,0.0,
2025-08-15T02:45:47.553Z,17,GR86-030-18,9.7,0.053,0.438,99.79,5.0,6778.0,0.0,0.0,
2025-08-15T02:45:47.597Z,17,GR86-030-18,9.2,0.039,0.422,99.82,5.0,,0.0,0.0,198.87
2025-08-15T02:45:47.640Z,17,GR86-030-18,7.4,0.075,0.44,99.83,5.0,,0.0,0.0,
2025-08-15T02:45:47.683Z,17,GR86-030-18,6.5,0.068,0.446,99.81,5.0,,0.0,0.0,
2025-08-15T02:45:47.726Z,17,GR86-030-18,6.0,0.057,0.423,99.84,5.0,,0.0,0.0,
2025-08-15T02:45:47.770Z,17,GR86-030-18,6.0,0.051,0.41,99.8,5.0,6789.0,0.0,0.0,
2025-08-15T02:45:47.813Z,17,GR86-030-18,6.4,0.05,0.376,99.8,5.0,,0.0,0.0,199.29
2025-08-15T02:45:47.857Z,17,GR86-030-18,7.0,0.007,0.34,99.81,5.0,,0.0,0.0,
2025-08-15T02:45:47.900Z,17,GR86-030-18,7.4,0.077,0.328,99.8,5.0,,0.0,0.0,
2025-08-15T02:45:47.943Z,17,GR86-030-18,7.0,0.068,0.309,99.82,5.0,,0.0,0.0,
2025-08-15T02:45:47.986Z,17,GR86-030-18,5.300000000000001,0.034,0.288,99.8,5.0,6803.0,0.0,0.0,
2025-08-15T02:45:48.030Z,17,GR86-030-18,3.3000000000000003,0.03,0.243,99.83,5.0,,0.0,0.0,199.71
2025-08-15T02:45:48.073Z,17,GR86-030-18,2.3000000000000003,0.013,0.211,99.81,5.0,,0.0,0.0,
2025-08-15T02:45:48.115Z,17,GR86-030-18,1.8,0.017,0.181,99.82,5.0,,0.0,0.0,
2025-08-15T02:45:48.159Z,17,GR86-030-18,1.9,0.046,0.204,99.83,5.0,,0.0,0.0,
2025-08-15T02:45:48.201Z,17,GR86-030-18,2.1,0.043,0.187,99.8,5.0,6827.0,0.0,0.0,
2025-08-15T02:45:48.244Z,17,GR86-030-18,3.5,0.028,0.169,99.82,5.0,,0.0,0.0,200.2
2025-08-15T02:45:48.287Z,17,GR86-030-18,5.6000000000000005,0.011,0.174,99.81,5.0,,0.0,0.0,
2025-08-15T02:45:48.330Z,17,GR86-030-18,7.2,0.028,0.186,99.81,5.0,,0.0,0.0,
2025-08-15T02:45:48.373Z,17,GR86-030-18,7.2,0.033,0.204,99.8,5.0,,0.0,0.0,
2025-08-15T02:45:48.416Z,17,GR86-030-18,5.9,0.073,0.238,99.81,5.0,6846.0,0.0,0.0,
2025-08-15T02:45:48.460Z,17,GR86-030-18,4.5,0.017,0.176,99.81,5.0,,0.0,0.0,200.48
2025-08-15T02:45:48.503Z,17,GR86-030-18,4.7,0.004,0.167,99.8,5.0,,0.0,0.0,
2025-08-15T02:45:48.546Z,17,GR86-030-18,5.300000000000001,0.052,0.176,99.8,5.0,,0.0,0.0,
2025-08-15T02:45:48.590Z,17,GR86-030-18,5.4,0.059,0.198,99.83,5.0,,0.0,0.0,
2025-08-15T02:45:48.632Z,17,GR86-030-18,5.300000000000001,0.089,0.239,99.81,5.0,6852.0,0.0,0.0,
2025-08-15T02:45:48.675Z,17,GR86-030-18,5.2,0.092,0.253,99.83,5.0,,0.0,0.0,201.33
2025-08-15T02:45:48.719Z,17,GR86-030-18,4.6000000000000005,0.037,0.227,99.83,5.0,,0.0,0.0,
2025-08-15T02:45:48.763Z,17,GR86-030-18,3.9,0.07,0.221,99.83,5.0,,0.0,0.0,
2025-08-15T02:45:48.806Z,17,GR86-030-18,3.4000000000000004,0.072,0.239,99.8,5.0,,0.0,0.0,
2025-08-15T02:45:48.850Z,17,GR86-030-18,3.5,0.073,0.233,99.83,5.0,6878.0,0.0,0.0,
2025-08-15T02:45:48.893Z,17,GR86-030-18,4.1000000000000005,0.065,0.227,99.8,5.0,,0.0,0.0,202.0
2025-08-15T02:45:48.935Z,17,GR86-030-18,5.1000000000000005,0.045,0.205,99.81,5.0,,0.0,0.0,
2025-08-15T02:45:48.979Z,17,GR86-030-18,5.800000000000001,0.089,0.184,99.83,5.0,,0.0,0.0,
2025-08-15T02:45:49.021Z,17,GR86-030-18,5.6000000000000005,0.075,0.179,99.81,5.0,,0.0,0.0,
2025-08-15T02:45:49.064Z,17,GR86-030-18,5.300000000000001,0.063,0.177,99.8,5.0,6895.0,0.0,0.0,
2025-08-15T02:45:49.107Z,17,GR86-030-18,5.2,0.033,0.151,99.83,5.0,,0.0,0.0,202.4
2025-08-15T02:45:49.150Z,17,GR86-030-18,5.300000000000001,0.005,0.155,99.8,5.0,,0.0,0.0,
2025-08-15T02:45:49.193Z,17,GR86-030-18,5.300000000000001,0.006,0.156,99.83,5.0,,0.0,0.0,
2025-08-15T02:45:49.236Z,17,GR86-030-18,5.300000000000001,0.04,0.182,82.79,5.0,,0.0,0.0,
2025-08-15T02:45:49.280Z,17,GR86-030-18,5.0,0.012,0.218,4.88,5.0,6914.0,0.0,0.0,
2025-08-15T02:45:49.367Z,17,GR86-030-18,4.9,-0.02,0.199,4.54,5.0,,0.0,0.0,203.18
2025-08-15T02:45:49.410Z,17,GR86-030-18,3.5,-0.365,0.239,3.77,5.0,,21.625,21.99,
2025-08-15T02:45:49.453Z,17,GR86-030-18,1.6,-0.483,0.183,3.58,5.0,,32.410000000000004,32.275,
2025-08-15T02:45:49.496Z,17,GR86-030-18,0.5,-0.623,0.181,3.4,5.0,6940.0,39.125,38.56,
2025-08-15T02:45:49.541Z,17,GR86-030-18,0.6000000000000001,-0.97,0.055,3.16,5.0,,47.84,47.09,204.23
2025-08-15T02:45:49.583Z,17,GR86-030-18,1.1,-0.988,0.075,2.93,5.0,,52.31,51.395,
2025-08-15T02:45:49.626Z,17,GR86-030-18,1.4,-1.009,0.077,2.75,5.0,,55.21,54.325,
2025-08-15T02:45:49.670Z,17,GR86-030-18,2.4000000000000004,-1.009,0.064,2.63,5.0,,57.055,56.28,
2025-08-15T02:45:49.713Z,17,GR86-030-18,4.0,-0.945,0.071,2.56,5.0,6842.0,58.4,57.56,
2025-08-15T02:45:49.755Z,17,GR86-030-18,5.0,-0.99,0.075,2.46,5.0,,60.23,60.615,203.14
2025-08-15T02:45:49.799Z,17,GR86-030-18,5.300000000000001,-1.231,-0.071,2.36,5.0,,65.65,66.96000000000001,
2025-08-15T02:45:49.841Z,17,GR86-030-18,5.300000000000001,-1.352,-0.055,2.32,5.0,,68.685,68.41,
2025-08-15T02:45:49.884Z,17,GR86-030-18,6.4,-1.209,-0.02,2.31,5.0,,72.76,73.4,
2025-08-15T02:45:49.927Z,17,GR86-030-18,7.2,-1.245,-0.013,2.32,5.0,6761.0,74.65,74.41,
2025-08-15T02:45:49.970Z,17,GR86-030-18,6.4,-1.337,-0.002,2.31,5.0,,77.4,77.55,195.83
2025-08-15T02:45:50.013Z,17,GR86-030-18,4.4,-1.427,0.03,2.32,5.0,,79.11,78.205,
2025-08-15T02:45:50.057Z,17,GR86-030-18,3.4000000000000004,-1.303,0.068,2.33,5.0,,79.84,78.955,
2025-08-15T02:45:50.100Z,17,GR86-030-18,1.8,-1.225,0.167,27.77,5.0,,81.655,82.83,
2025-08-15T02:45:50.143Z,17,GR86-030-18,-0.6000000000000001,-1.267,0.208,45.28,4.0,6074.0,81.155,80.83,
2025-08-15T02:45:50.186Z,17,GR86-030-18,-3.2,-1.312,0.183,4.7700000000000005,4.0,,82.08500000000001,83.045,188.08
2025-08-15T02:45:50.230Z,17,GR86-030-18,-4.0,-1.309,0.197,4.76,4.0,,83.67,85.595,
2025-08-15T02:45:50.273Z,17,GR86-030-18,-4.4,-1.415,0.241,4.48,4.0,,83.87,84.355,
2025-08-15T02:45:50.316Z,17,GR86-030-18,-5.2,-1.455,0.217,3.85,4.0,,83.245,83.73,
2025-08-15T02:45:50.360Z,17,GR86-030-18,-3.9,-1.278,0.255,3.5500000000000003,4.0,5632.0,81.78,82.62,
2025-08-15T02:45:50.403Z,17,GR86-030-18,-4.1000000000000005,-1.324,0.35,3.41,4.0,,78.985,78.48,179.95000000000002
2025-08-15T02:45:50.446Z,17,GR86-030-18,-4.800000000000001,-1.322,0.272,3.28,4.0,,81.06,82.175,
2025-08-15T02:45:50.490Z,17,GR86-030-18,-4.5,-1.151,0.367,3.06,4.0,,80.495,80.865,
2025-08-15T02:45:50.533Z,17,GR86-030-18,-3.7,-1.138,0.43,2.86,4.0,,78.3,78.39,
2025-08-15T02:45:50.576Z,17,GR86-030-18,-3.2,-1.269,0.34,2.7,4.0,6153.0,79.78,80.22,
2025-08-15T02:45:50.620Z,17,GR86-030-18,-0.9,-1.131,0.186,2.54,4.0,,81.49,82.495,171.74
2025-08-15T02:45:50.663Z,17,GR86-030-18,1.8,-1.22,0.197,2.45,4.0,,78.33,77.825,
2025-08-15T02:45:50.706Z,17,GR86-030-18,4.3,-1.269,0.088,2.35,4.0,,77.92,77.92,
2025-08-15T02:45:50.750Z,17,GR86-030-18,6.5,-1.341,-0.002,2.32,4.0,,78.77,80.115,
2025-08-15T02:45:50.793Z,17,GR86-030-18,8.8,-1.293,-0.04,2.32,4.0,6073.0,77.795,77.52,
2025-08-15T02:45:50.835Z,17,GR86-030-18,12.2,-1.286,-0.038,2.33,4.0,,76.955,76.18,164.69
2025-08-15T02:45:50.879Z,17,GR86-030-18,14.8,-1.339,-0.004,8.58,4.0,,75.645,75.035,
2025-08-15T02:45:50.921Z,17,GR86-030-18,14.1,-1.285,0.041,48.53,3.0,,74.12,73.63,
2025-08-15T02:45:50.964Z,17,GR86-030-18,13.1,-1.383,0.136,18.06,3.0,,73.05,73.78,
2025-08-15T02:45:51.007Z,17,GR86-030-18,12.9,-1.297,0.212,4.64,3.0,5739.0,73.63,75.34,
2025-08-15T02:45:51.050Z,17,GR86-030-18,12.8,-1.325,0.113,4.38,3.0,,73.11,73.63,154.32
2025-08-15T02:45:51.093Z,17,GR86-030-18,11.8,-1.447,0.183,3.87,3.0,,71.14,71.37,
2025-08-15T02:45:51.136Z,17,GR86-030-18,10.8,-1.153,0.263,3.68,3.0,,71.465,71.98,
2025-08-15T02:45:51.180Z,17,GR86-030-18,10.6,-1.055,0.346,3.45,3.0,,68.805,69.25,
2025-08-15T02:45:51.223Z,17,GR86-030-18,10.6,-1.207,0.383,3.35,3.0,5412.0,68.715,69.8,
2025-08-15T02:45:51.266Z,17,GR86-030-18,10.4,-1.187,0.364,3.15,3.0,,68.12,69.555,146.12
2025-08-15T02:45:51.310Z,17,GR86-030-18,9.8,-1.149,0.463,3.0,3.0,,65.33,65.055,
2025-08-15T02:45:51.353Z,17,GR86-030-18,9.3,-1.187,0.532,2.83,3.0,,62.370000000000005,61.97,
2025-08-15T02:45:51.397Z,17,GR86-030-18,9.0,-1.056,0.485,2.71,3.0,,60.49,60.05,
2025-08-15T02:45:51.440Z,17,GR86-030-18,9.2,-1.089,0.535,2.59,3.0,6082.0,58.875,58.34,
2025-08-15T02:45:51.526Z,17,GR86-030-18,8.200000000000001,-1.089,0.501,2.46,3.0,,56.34,56.31,138.26
2025-08-15T02:45:51.570Z,17,GR86-030-18,7.6,-1.032,0.473,2.37,3.0,,55.24,55.455,
2025-08-15T02:45:51.613Z,17,GR86-030-18,7.4,-1.197,0.445,2.32,3.0,,54.14,54.495000000000005,
2025-08-15T02:45:51.656Z,17,GR86-030-18,7.6,-1.074,0.375,2.3000000000000003,3.0,5758.0,53.0,53.425,
2025-08-15T02:45:51.700Z,17,GR86-030-18,7.800000000000001,-1.084,0.4,44.67,2.0,,51.06,52.175,131.44
2025-08-15T02:45:51.743Z,17,GR86-030-18,8.200000000000001,-1.29,0.28,25.3,2.0,,50.525,51.715,
2025-08-15T02:45:51.786Z,17,GR86-030-18,9.5,-1.092,0.331,4.49,2.0,,51.81,53.305,
2025-08-15T02:45:51.830Z,17,GR86-030-18,11.5,-1.214,0.35,4.16,2.0,,52.435,53.03,
2025-08-15T02:45:51.873Z,17,GR86-030-18,13.6,-1.412,0.452,3.86,2.0,5405.0,51.15,51.395,
2025-08-15T02:45:51.915Z,17,GR86-030-18,14.9,-1.128,0.498,3.64,2.0,,51.535,52.435,124.36
2025-08-15T02:45:51.959Z,17,GR86-030-18,20.3,-1.099,0.583,3.43,2.0,,50.65,51.18,
2025-08-15T02:45:52.046Z,17,GR86-030-18,24.8,-1.103,0.638,3.31,2.0,,50.65,50.68,
2025-08-15T02:45:52.090Z,17,GR86-030-18,32.0,-0.992,0.657,2.93,2.0,5058.0,51.535,51.09,
2025-08-15T02:45:52.133Z,17,GR86-030-18,37.5,-0.961,0.769,2.77,2.0,,52.83,52.405,116.9
2025-08-15T02:45:52.176Z,17,GR86-030-18,41.8,-0.891,0.6940000000000001,2.71,2.0,,50.615,50.585,
2025-08-15T02:45:52.220Z,17,GR86-030-18,48.6,-0.955,0.743,2.59,2.0,,50.31,50.13,
2025-08-15T02:45:52.263Z,17,GR86-030-18,52.8,-0.924,0.898,2.49,2.0,,50.405,50.375,
2025-08-15T02:45:52.306Z,17,GR86-030-18,55.2,-0.944,0.841,2.3000000000000003,2.0,5707.0,48.59,49.105,
2025-08-15T02:45:52.350Z,17,GR86-030-18,55.3,-0.914,0.772,2.24,2.0,,48.055,48.48,101.91
2025-08-15T02:45:52.393Z,17,GR86-030-18,55.3,-0.977,0.876,2.21,2.0,,48.205,48.3,
2025-08-15T02:45:52.435Z,17,GR86-030-18,56.0,-0.8260000000000001,0.933,2.21,2.0,,46.205,46.865,
2025-08-15T02:45:52.479Z,17,GR86-030-18,59.1,-0.862,0.875,2.22,2.0,,45.43,45.75,
2025-08-15T02:45:52.521Z,17,GR86-030-18,62.2,-0.836,0.941,2.23,2.0,5533.0,46.27,46.24,
2025-08-15T02:45:52.564Z,17,GR86-030-18,64.8,-0.862,0.983,2.24,2.0,,43.11,44.055,95.9
2025-08-15T02:45:52.607Z,17,GR86-030-18,66.0,-0.754,0.97,2.24,2.0,,33.22,34.18,
2025-08-15T02:45:52.650Z,17,GR86-030-18,67.8,-0.661,1.019,2.23,2.0,,21.47,22.125,
2025-08-15T02:45:52.693Z,17,GR86-030-18,71.3,-0.482,1.102,2.22,2.0,,11.675,12.115,
2025-08-15T02:45:52.737Z,17,GR86-030-18,76.4,-0.407,1.088,2.26,2.0,5100.0,6.865,7.37,
2025-08-15T02:45:52.780Z,17,GR86-030-18,82.9,-0.341,1.195,2.26,2.0,,5.25,5.7700000000000005,89.92
2025-08-15T02:45:52.823Z,17,GR86-030-18,83.7,-0.257,1.154,2.3000000000000003,2.0,,3.725,4.12,
2025-08-15T02:45:52.866Z,17,GR86-030-18,83.10000000000001,-0.228,1.224,2.3000000000000003,2.0,,0.0,0.0,
2025-08-15T02:45:52.910Z,17,GR86-030-18,83.0,-0.171,1.199,2.32,2.0,,0.0,0.0,
2025-08-15T02:45:52.953Z,17,GR86-030-18,83.7,-0.2,1.259,2.36,2.0,4433.0,0.0,0.0,
2025-08-15T02:45:52.996Z,17,GR86-030-18,82.4,-0.187,1.232,2.37,2.0,,0.0,0.0,84.66
2025-08-15T02:45:53.040Z,17,GR86-030-18,73.9,-0.166,1.278,19.76,2.0,,0.0,0.0,
2025-08-15T02:45:53.083Z,17,GR86-030-18,69.5,-0.161,1.241,19.82,2.0,,0.0,0.0,
2025-08-15T02:45:53.126Z,17,GR86-030-18,69.8,-0.145,1.242,20.83,2.0,,0.0,0.0,
2025-08-15T02:45:53.170Z,17,GR86-030-18,73.10000000000001,-0.102,1.183,23.64,2.0,4428.0,0.0,0.0,
2025-08-15T02:45:53.213Z,17,GR86-030-18,76.5,-0.099,1.205,25.3,2.0,,0.0,0.0,81.81
2025-08-15T02:45:53.256Z,17,GR86-030-18,78.2,-0.077,1.246,25.82,2.0,,0.0,0.0,
2025-08-15T02:45:53.300Z,17,GR86-030-18,78.10000000000001,0.154,1.224,25.86,2.0,,0.0,0.0,
2025-08-15T02:45:53.343Z,17,GR86-030-18,78.60000000000001,0.144,1.218,25.76,2.0,,0.0,0.0,
2025-08-15T02:45:53.386Z,17,GR86-030-18,80.5,0.152,1.244,25.7,2.0,4410.0,0.0,0.0,
2025-08-15T02:45:53.430Z,17,GR86-030-18,82.9,0.136,1.289,25.6,2.0,,0.0,0.0,80.25
2025-08-15T02:45:53.472Z,17,GR86-030-18,85.4,0.097,1.291,24.93,2.0,,0.0,0.0,
2025-08-15T02:45:53.515Z,17,GR86-030-18,86.7,0.121,1.271,23.37,2.0,,0.0,0.0,
2025-08-15T02:45:53.559Z,17,GR86-030-18,85.0,0.079,1.427,22.93,2.0,,0.0,0.0,
2025-08-15T02:45:53.601Z,17,GR86-030-18,80.9,0.166,1.059,21.84,2.0,4654.0,0.0,0.0,
2025-08-15T02:45:53.644Z,17,GR86-030-18,76.0,0.051,1.186,21.8,2.0,,0.0,0.0,79.01
2025-08-15T02:45:53.688Z,17,GR86-030-18,72.9,0.159,1.073,21.84,2.0,,0.0,0.0,
2025-08-15T02:45:53.731Z,17,GR86-030-18,72.7,-0.045,0.922,21.84,2.0,,0.0,0.0,
2025-08-15T02:45:53.774Z,17,GR86-030-18,74.7,-0.052,1.05,21.84,2.0,,0.0,0.0,
2025-08-15T02:45:53.819Z,17,GR86-030-18,77.30000000000001,0.299,0.871,18.85,2.0,4595.0,0.0,0.0,
2025-08-15T02:45:53.863Z,17,GR86-030-18,77.5,0.159,1.079,19.3,2.0,,0.0,0.0,79.03
2025-08-15T02:45:53.906Z,17,GR86-030-18,77.5,0.098,0.952,20.39,2.0,,0.0,0.0,
2025-08-15T02:45:53.950Z,17,GR86-030-18,77.0,0.081,1.082,21.91,2.0,,0.0,0.0,
2025-08-15T02:45:53.993Z,17,GR86-030-18,76.5,-0.053,1.153,23.44,2.0,,0.0,0.0,
2025-08-15T02:45:54.080Z,17,GR86-030-18,75.60000000000001,0.057,1.163,25.16,2.0,4585.0,0.0,0.0,79.42
2025-08-15T02:45:54.124Z,17,GR86-030-18,74.3,0.017,1.112,26.3,2.0,,0.0,0.0,
2025-08-15T02:45:54.167Z,17,GR86-030-18,70.9,0.14,1.103,26.43,2.0,,0.0,0.0,
2025-08-15T02:45:54.210Z,17,GR86-030-18,67.10000000000001,0.141,1.109,26.43,2.0,,0.0,0.0,
2025-08-15T02:45:54.253Z,17,GR86-030-18,62.6,0.057,1.038,27.58,2.0,4606.0,0.0,0.0,
2025-08-15T02:45:54.296Z,17,GR86-030-18,60.0,0.05,1.062,28.54,2.0,,0.0,0.0,79.72
2025-08-15T02:45:54.341Z,17,GR86-030-18,61.8,0.059,0.998,29.28,2.0,,0.0,0.0,
2025-08-15T02:45:54.383Z,17,GR86-030-18,65.2,0.154,1.141,29.11,2.0,,0.0,0.0,
2025-08-15T02:45:54.426Z,17,GR86-030-18,66.8,0.041,1.287,29.01,2.0,,0.0,0.0,
2025-08-15T02:45:54.470Z,17,GR86-030-18,65.9,0.174,1.544,29.33,2.0,4738.0,0.0,0.0,
2025-08-15T02:45:54.513Z,17,GR86-030-18,63.6,0.335,1.314,29.58,2.0,,0.0,0.0,80.78
2025-08-15T02:45:54.555Z,17,GR86-030-18,58.400000000000006,0.008,1.465,38.86,2.0,,0.0,0.0,
2025-08-15T02:45:54.599Z,17,GR86-030-18,51.1,0.135,1.207,50.93,2.0,,0.0,0.0,
2025-08-15T02:45:54.641Z,17,GR86-030-18,50.400000000000006,0.282,1.141,51.93,2.0,,0.0,0.0,
2025-08-15T02:45:54.684Z,17,GR86-030-18,51.3,0.257,1.06,54.96,2.0,4804.0,0.0,0.0,
2025-08-15T02:45:54.727Z,17,GR86-030-18,53.2,0.305,0.908,57.98,2.0,,0.0,0.0,81.11
2025-08-15T02:45:54.770Z,17,GR86-030-18,55.5,0.268,0.964,66.42,2.0,,0.0,0.0,
2025-08-15T02:45:54.813Z,17,GR86-030-18,58.5,0.271,0.843,71.72,2.0,,0.0,0.0,
2025-08-15T02:45:54.856Z,17,GR86-030-18,62.1,0.267,0.86,80.94,2.0,,0.0,0.0,
2025-08-15T02:45:54.900Z,17,GR86-030-18,65.2,0.274,0.865,99.64,2.0,4746.0,0.0,0.0,
2025-08-15T02:45:54.943Z,17,GR86-030-18,64.2,0.254,0.928,99.83,2.0,,0.0,0.0,82.35000000000001
2025-08-15T02:45:54.986Z,17,GR86-030-18,62.0,0.257,0.892,99.83,2.0,,0.0,0.0,
2025-08-15T02:45:55.030Z,17,GR86-030-18,59.3,0.242,0.956,99.83,2.0,,0.0,0.0,
2025-08-15T02:45:55.073Z,17,GR86-030-18,57.0,0.296,0.897,99.84,2.0,,0.0,0.0,
2025-08-15T02:45:55.116Z,17,GR86-030-18,54.7,0.256,0.962,99.83,2.0,4793.0,0.0,0.0,
2025-08-15T02:45:55.160Z,17,GR86-030-18,50.900000000000006,0.266,0.922,99.83,2.0,,0.0,0.0,83.60000000000001
2025-08-15T02:45:55.203Z,17,GR86-030-18,48.7,0.258,0.948,99.83,2.0,,0.0,0.0,
2025-08-15T02:45:55.246Z,17,GR86-030-18,47.1,0.281,0.894,99.83,2.0,,0.0,0.0,
2025-08-15T02:45:55.290Z,17,GR86-030-18,46.5,0.261,0.929,99.82,2.0,,0.0,0.0,
2025-08-15T02:45:55.332Z,17,GR86-030-18,46.3,0.298,0.873,99.83,2.0,4883.0,0.0,0.0,
2025-08-15T02:45:55.375Z,17,GR86-030-18,45.8,0.264,0.902,99.82,2.0,,0.0,0.0,85.71000000000001
2025-08-15T02:45:55.419Z,17,GR86-030-18,44.0,0.284,0.863,99.82,2.0,,0.0,0.0,
2025-08-15T02:45:55.461Z,17,GR86-030-18,42.6,0.256,0.852,99.83,2.0,,0.0,0.0,
2025-08-15T02:45:55.504Z,17,GR86-030-18,41.400000000000006,0.286,0.8230000000000001,99.83,2.0,,0.0,0.0,
2025-08-15T02:45:55.549Z,17,GR86-030-18,40.0,0.258,0.8170000000000001,99.84,2.0,5111.0,0.0,0.0,
2025-08-15T02:45:55.591Z,17,GR86-030-18,38.0,0.297,0.76,99.84,2.0,,0.0,0.0,87.36
2025-08-15T02:45:55.634Z,17,GR86-030-18,35.800000000000004,0.257,0.765,99.83,2.0,,0.0,0.0,
2025-08-15T02:45:55.677Z,17,GR86-030-18,34.2,0.297,0.71,99.83,2.0,,0.0,0.0,
2025-08-15T02:45:55.720Z,17,GR86-030-18,33.0,0.277,0.708,99.83,2.0,,0.0,0.0,
2025-08-15T02:45:55.763Z,17,GR86-030-18,33.0,0.271,0.636,99.83,2.0,5200.0,0.0,0.0,
2025-08-15T02:45:55.806Z,17,GR86-030-18,33.0,0.273,0.598,99.86,2.0,,0.0,0.0,89.0
2025-08-15T02:45:55.850Z,17,GR86-030-18,32.300000000000004,0.281,0.533,99.83,2.0,,0.0,0.0,
2025-08-15T02:45:55.893Z,17,GR86-030-18,30.8,0.237,0.462,99.83,2.0,,0.0,0.0,
2025-08-15T02:45:55.935Z,17,GR86-030-18,28.9,0.26,0.481,99.83,2.0,,0.0,0.0,
2025-08-15T02:45:55.979Z,17,GR86-030-18,26.5,0.27,0.435,99.83,2.0,5280.0,0.0,0.0,
2025-08-15T02:45:56.021Z,17,GR86-030-18,25.5,0.249,0.483,99.84,2.0,,0.0,0.0,89.96000000000001
2025-08-15T02:45:56.064Z,17,GR86-030-18,24.6,0.302,0.475,99.84,2.0,,0.0,0.0,
2025-08-15T02:45:56.107Z,17,GR86-030-18,23.6,0.27,0.519,99.83,2.0,,0.0,0.0,
2025-08-15T02:45:56.150Z,17,GR86-030-18,22.6,0.329,0.473,99.83,2.0,,0.0,0.0,
2025-08-15T02:45:56.193Z,17,GR86-030-18,21.4,0.254,0.502,99.84,2.0,5394.0,0.0,0.0,
2025-08-15T02:45:56.237Z,17,GR86-030-18,20.6,0.286,0.252,99.84,2.0,,0.0,0.0,91.81
2025-08-15T02:45:56.280Z,17,GR86-030-18,18.0,0.374,0.35,99.83,2.0,,0.0,0.0,
2025-08-15T02:45:56.323Z,17,GR86-030-18,15.6,0.124,0.223,99.85,2.0,,0.0,0.0,
2025-08-15T02:45:56.410Z,17,GR86-030-18,12.2,0.17,0.256,99.83,2.0,5487.0,0.0,0.0,
2025-08-15T02:45:56.453Z,17,GR86-030-18,11.8,0.284,0.191,99.84,2.0,,0.0,0.0,93.81
2025-08-15T02:45:56.497Z,17,GR86-030-18,12.2,0.27,0.219,99.84,2.0,,0.0,0.0,
2025-08-15T02:45:56.540Z,17,GR86-030-18,14.3,0.198,0.133,99.83,2.0,,0.0,0.0,
2025-08-15T02:45:56.583Z,17,GR86-030-18,15.5,0.231,0.136,99.83,2.0,,0.0,0.0,
2025-08-15T02:45:56.626Z,17,GR86-030-18,15.4,0.168,0.173,99.87,2.0,5592.0,0.0,0.0,
2025-08-15T02:45:56.670Z,17,GR86-030-18,13.9,0.336,0.115,99.86,2.0,,0.0,0.0,95.62
2025-08-15T02:45:56.713Z,17,GR86-030-18,12.4,0.32,0.154,99.84,2.0,,0.0,0.0,
2025-08-15T02:45:56.756Z,17,GR86-030-18,11.6,0.41,0.105,99.84,2.0,,0.0,0.0,
2025-08-15T02:45:56.800Z,17,GR86-030-18,12.0,0.275,0.073,99.86,2.0,,0.0,0.0,
2025-08-15T02:45:56.843Z,17,GR86-030-18,12.5,0.214,0.078,99.87,2.0,5671.0,0.0,0.0,
2025-08-15T02:45:56.886Z,17,GR86-030-18,12.3,0.33,-0.014,99.86,2.0,,0.0,0.0,97.54
2025-08-15T02:45:56.930Z,17,GR86-030-18,11.4,0.335,-0.01,99.86,2.0,,0.0,0.0,
2025-08-15T02:45:56.973Z,17,GR86-030-18,10.2,0.368,-0.064,99.85,2.0,,0.0,0.0,
2025-08-15T02:45:57.015Z,17,GR86-030-18,9.6,0.386,-0.041,99.85,2.0,,0.0,0.0,
2025-08-15T02:45:57.059Z,17,GR86-030-18,9.7,0.234,-0.045,99.86,2.0,5834.0,0.0,0.0,
2025-08-15T02:45:57.103Z,17,GR86-030-18,9.9,0.351,-0.022,99.85,2.0,,0.0,0.0,99.36
2025-08-15T02:45:57.146Z,17,GR86-030-18,10.2,0.346,-0.029,99.85,2.0,,0.0,0.0,
2025-08-15T02:45:57.190Z,17,GR86-030-18,10.2,0.334,-0.041,99.85,2.0,,0.0,0.0,
2025-08-15T02:45:57.233Z,17,GR86-030-18,10.2,0.364,-0.066,99.85,2.0,,0.0,0.0,
2025-08-15T02:45:57.276Z,17,GR86-030-18,10.2,0.275,-0.013,99.86,2.0,5925.0,0.0,0.0,
2025-08-15T02:45:57.320Z,17,GR86-030-18,10.2,0.229,0.003,99.86,2.0,,0.0,0.0,101.23
2025-08-15T02:45:57.363Z,17,GR86-030-18,9.9,0.3,0.005,99.86,2.0,,0.0,0.0,
2025-08-15T02:45:57.406Z,17,GR86-030-18,9.7,0.231,0.059,99.86,2.0,,0.0,0.0,
2025-08-15T02:45:57.450Z,17,GR86-030-18,9.9,0.289,0.027,99.86,2.0,,0.0,0.0,
2025-08-15T02:45:57.493Z,17,GR86-030-18,9.9,0.247,0.077,99.86,2.0,6003.0,0.0,0.0,
2025-08-15T02:45:57.536Z,17,GR86-030-18,9.8,0.282,0.038,99.85,2.0,,0.0,0.0,102.94
2025-08-15T02:45:57.580Z,17,GR86-030-18,9.0,0.306,0.045,99.86,2.0,,0.0,0.0,
2025-08-15T02:45:57.623Z,17,GR86-030-18,8.6,0.259,0.05,99.87,2.0,,0.0,0.0,
2025-08-15T02:45:57.666Z,17,GR86-030-18,8.1,0.258,0.052,99.85,2.0,,0.0,0.0,
2025-08-15T02:45:57.710Z,17,GR86-030-18,7.6,0.307,0.062,99.85,2.0,6111.0,0.0,0.0,
2025-08-15T02:45:57.752Z,17,GR86-030-18,7.4,0.238,0.084,99.88,2.0,,0.0,0.0,106.7
2025-08-15T02:45:57.795Z,17,GR86-030-18,7.1000000000000005,0.301,0.067,99.86,2.0,,0.0,0.0,
2025-08-15T02:45:57.839Z,17,GR86-030-18,6.800000000000001,0.311,0.075,99.87,2.0,,0.0,0.0,
2025-08-15T02:45:57.883Z,17,GR86-030-18,6.4,0.229,0.099,99.86,2.0,,0.0,0.0,
2025-08-15T02:45:57.926Z,17,GR86-030-18,5.6000000000000005,0.281,0.08,99.87,2.0,6214.0,0.0,0.0,
2025-08-15T02:45:57.970Z,17,GR86-030-18,4.6000000000000005,0.283,0.092,99.86,2.0,,0.0,0.0,108.18
2025-08-15T02:45:58.013Z,17,GR86-030-18,4.0,0.251,0.096,99.87,2.0,,0.0,0.0,
2025-08-15T02:45:58.057Z,17,GR86-030-18,3.5,0.316,0.052,99.86,2.0,,0.0,0.0,
2025-08-15T02:45:58.100Z,17,GR86-030-18,3.3000000000000003,0.293,0.017,99.86,2.0,,0.0,0.0,
2025-08-15T02:45:58.143Z,17,GR86-030-18,3.0,0.221,0.036,99.89,2.0,6376.0,0.0,0.0,
2025-08-15T02:45:58.186Z,17,GR86-030-18,2.7,0.291,-0.002,99.88,2.0,,0.0,0.0,109.78
2025-08-15T02:45:58.230Z,17,GR86-030-18,2.4000000000000004,0.274,-0.003,99.86,2.0,,0.0,0.0,
2025-08-15T02:45:58.273Z,17,GR86-030-18,1.8,0.255,-0.018,99.86,2.0,,0.0,0.0,
2025-08-15T02:45:58.315Z,17,GR86-030-18,1.3,0.312,-0.049,99.87,2.0,,0.0,0.0,
2025-08-15T02:45:58.359Z,17,GR86-030-18,0.5,0.291,-0.073,99.88,2.0,6446.0,0.0,0.0,
2025-08-15T02:45:58.401Z,17,GR86-030-18,0.4,0.226,-0.059,99.87,2.0,,0.0,0.0,111.37
2025-08-15T02:45:58.444Z,17,GR86-030-18,0.7000000000000001,0.29,-0.088,99.86,2.0,,0.0,0.0,
2025-08-15T02:45:58.487Z,17,GR86-030-18,0.9,0.277,-0.104,99.86,2.0,,0.0,0.0,
2025-08-15T02:45:58.530Z,17,GR86-030-18,1.2000000000000002,0.253,-0.098,99.86,2.0,,0.0,0.0,
2025-08-15T02:45:58.573Z,17,GR86-030-18,1.2000000000000002,0.3,-0.104,99.87,2.0,6538.0,0.0,0.0,
2025-08-15T02:45:58.616Z,17,GR86-030-18,1.2000000000000002,0.258,-0.113,99.87,2.0,,0.0,0.0,112.84
2025-08-15T02:45:58.660Z,17,GR86-030-18,0.9,0.25,-0.114,99.86,2.0,,0.0,0.0,
2025-08-15T02:45:58.703Z,17,GR86-030-18,0.9,0.263,-0.112,99.86,2.0,,0.0,0.0,
2025-08-15T02:45:58.746Z,17,GR86-030-18,0.8,0.301,-0.122,99.86,2.0,,0.0,0.0,
2025-08-15T02:45:58.790Z,17,GR86-030-18,0.9,0.249,-0.084,99.86,2.0,6627.0,0.0,0.0,
2025-08-15T02:45:58.832Z,17,GR86-030-18,0.9,0.281,-0.113,99.85,2.0,,0.0,0.0,114.32
2025-08-15T02:45:58.875Z,17,GR86-030-18,0.9,0.276,-0.118,99.86,2.0,,0.0,0.0,
2025-08-15T02:45:58.919Z,17,GR86-030-18,1.4,0.282,-0.102,99.85,2.0,,0.0,0.0,
2025-08-15T02:45:58.963Z,17,GR86-030-18,1.8,0.247,-0.079,99.87,2.0,,0.0,0.0,
2025-08-15T02:45:59.006Z,17,GR86-030-18,2.1,0.303,-0.096,99.86,2.0,6711.0,0.0,0.0,
2025-08-15T02:45:59.050Z,17,GR86-030-18,2.6,0.272,-0.074,99.86,2.0,,0.0,0.0,115.82
2025-08-15T02:45:59.093Z,17,GR86-030-18,3.0,0.233,-0.056,99.86,2.0,,0.0,0.0,
2025-08-15T02:45:59.136Z,17,GR86-030-18,3.0,0.296,-0.068,99.87,2.0,,0.0,0.0,
2025-08-15T02:45:59.180Z,17,GR86-030-18,3.6,0.314,-0.052,99.89,2.0,,0.0,0.0,
2025-08-15T02:45:59.223Z,17,GR86-030-18,4.5,0.271,-0.026,99.87,2.0,6789.0,0.0,0.0,
2025-08-15T02:45:59.310Z,17,GR86-030-18,6.300000000000001,0.29,-0.027,99.9,2.0,,0.0,0.0,117.21
2025-08-15T02:45:59.353Z,17,GR86-030-18,6.5,0.257,0.009,99.86,2.0,,0.0,0.0,
2025-08-15T02:45:59.397Z,17,GR86-030-18,6.4,0.254,0.019,99.87,2.0,,0.0,0.0,
2025-08-15T02:45:59.440Z,17,GR86-030-18,6.5,0.252,0.021,99.9,2.0,6865.0,0.0,0.0,
2025-08-15T02:45:59.483Z,17,GR86-030-18,7.0,0.304,0.022,99.9,2.0,,0.0,0.0,118.5
2025-08-15T02:45:59.526Z,17,GR86-030-18,7.1000000000000005,0.256,0.047,99.89,2.0,,0.0,0.0,
2025-08-15T02:45:59.570Z,17,GR86-030-18,7.1000000000000005,0.244,0.057,99.89,2.0,,0.0,0.0,
2025-08-15T02:45:59.613Z,17,GR86-030-18,6.9,0.298,0.043,99.89,2.0,,0.0,0.0,
2025-08-15T02:45:59.656Z,17,GR86-030-18,6.4,0.265,0.083,99.88,2.0,6934.0,0.0,0.0,
2025-08-15T02:45:59.700Z,17,GR86-030-18,5.7,0.266,0.069,99.89,2.0,,0.0,0.0,119.75
2025-08-15T02:45:59.743Z,17,GR86-030-18,5.6000000000000005,0.24,0.043,99.89,2.0,,0.0,0.0,
2025-08-15T02:45:59.785Z,17,GR86-030-18,5.4,0.281,0.028,99.9,2.0,,0.0,0.0,
2025-08-15T02:45:59.829Z,17,GR86-030-18,5.300000000000001,0.263,0.058,99.9,2.0,,0.0,0.0,
2025-08-15T02:45:59.871Z,17,GR86-030-18,5.2,0.242,0.041,99.88,2.0,6999.0,0.0,0.0,
2025-08-15T02:45:59.914Z,17,GR86-030-18,5.300000000000001,0.281,0.007,99.9,2.0,,0.0,0.0,120.99
2025-08-15T02:45:59.957Z,17,GR86-030-18,5.300000000000001,0.275,0.033,99.86,2.0,,0.0,0.0,
2025-08-15T02:46:00.000Z,17,GR86-030-18,5.7,0.278,0.016,99.92,2.0,,0.0,0.0,
2025-08-15T02:46:00.043Z,17,GR86-030-18,5.9,0.23,0.019,99.86,2.0,,0.0,0.0,
2025-08-15T02:46:00.086Z,17,GR86-030-18,6.1000000000000005,0.275,-0.016,99.88,2.0,7082.0,0.0,0.0,
2025-08-15T02:46:00.173Z,17,GR86-030-18,6.4,0.281,0.006,99.88,2.0,,0.0,0.0,122.22
2025-08-15T02:46:00.216Z,17,GR86-030-18,6.9,0.24,0.001,99.92,2.0,,0.0,0.0,
2025-08-15T02:46:00.260Z,17,GR86-030-18,7.0,0.245,0.023,99.9,2.0,,0.0,0.0,
2025-08-15T02:46:00.303Z,17,GR86-030-18,6.800000000000001,0.298,0.06,99.89,2.0,7132.0,0.0,0.0,
2025-08-15T02:46:00.346Z,17,GR86-030-18,6.800000000000001,0.246,0.082,99.89,2.0,,0.0,0.0,124.56
2025-08-15T02:46:00.390Z,17,GR86-030-18,6.7,0.235,0.056,99.93,2.0,,0.0,0.0,
2025-08-15T02:46:00.433Z,17,GR86-030-18,6.6000000000000005,0.247,0.049,99.88,2.0,,0.0,0.0,
2025-08-15T02:46:00.476Z,17,GR86-030-18,6.5,0.23,0.084,99.88,2.0,,0.0,0.0,
2025-08-15T02:46:00.520Z,17,GR86-030-18,6.5,0.24,0.074,99.86,2.0,7197.0,0.0,0.0,
2025-08-15T02:46:00.563Z,17,GR86-030-18,6.4,0.151,0.058,99.9,2.0,,0.0,0.0,125.71
2025-08-15T02:46:00.606Z,17,GR86-030-18,6.2,0.123,0.032,99.89,2.0,,0.0,0.0,
2025-08-15T02:46:00.650Z,17,GR86-030-18,5.800000000000001,0.174,0.041,99.87,2.0,,0.0,0.0,
2025-08-15T02:46:00.693Z,17,GR86-030-18,5.5,0.123,0.069,99.87,2.0,,0.0,0.0,
2025-08-15T02:46:00.735Z,17,GR86-030-18,5.300000000000001,0.102,0.002,99.87,2.0,7270.0,0.0,0.0,
2025-08-15T02:46:00.779Z,17,GR86-030-18,5.300000000000001,0.085,-0.002,39.76,2.0,,0.0,0.0,126.77
2025-08-15T02:46:00.821Z,17,GR86-030-18,5.6000000000000005,0.142,0.018,16.88,2.0,,0.0,0.0,
2025-08-15T02:46:00.864Z,17,GR86-030-18,6.2,0.142,0.041,5.59,2.0,,0.0,0.0,
2025-08-15T02:46:00.907Z,17,GR86-030-18,6.4,0.004,0.025,5.49,2.0,,0.0,0.0,
2025-08-15T02:46:00.950Z,17,GR86-030-18,6.4,-0.12,0.015,5.32,2.0,7267.0,0.0,0.0,
2025-08-15T02:46:00.993Z,17,GR86-030-18,6.2,-0.052,0.056,4.95,2.0,,0.0,0.0,127.47
2025-08-15T02:46:01.037Z,17,GR86-030-18,6.1000000000000005,-0.397,0.026,4.37,2.0,,3.22,3.495,
2025-08-15T02:46:01.080Z,17,GR86-030-18,5.7,-0.264,0.09,3.65,2.0,,10.65,10.53,
2025-08-15T02:46:01.123Z,17,GR86-030-18,5.7,-0.307,-0.015,3.46,2.0,,14.815,14.575,
2025-08-15T02:46:01.166Z,17,GR86-030-18,5.800000000000001,-0.281,0.055,3.31,2.0,7052.0,18.405,17.990000000000002,
2025-08-15T02:46:01.210Z,17,GR86-030-18,5.800000000000001,-0.384,0.069,3.0700000000000003,2.0,,20.755,20.385,127.81
2025-08-15T02:46:01.253Z,17,GR86-030-18,5.9,-0.508,0.005,2.83,2.0,,23.3,22.905,
2025-08-15T02:46:01.296Z,17,GR86-030-18,6.1000000000000005,-0.525,0.036,2.69,2.0,,26.69,26.14,
2025-08-15T02:46:01.340Z,17,GR86-030-18,7.7,-0.588,0.028,2.5500000000000003,2.0,,31.33,30.9,
2025-08-15T02:46:01.383Z,17,GR86-030-18,9.0,-0.631,0.078,2.39,2.0,7159.0,33.28,32.535000000000004,
2025-08-15T02:46:01.426Z,17,GR86-030-18,10.3,-0.7000000000000001,0.057,2.3000000000000003,2.0,,34.245,33.77,127.02
2025-08-15T02:46:01.471Z,17,GR86-030-18,10.6,-0.685,0.079,2.28,2.0,,34.9,34.52,
2025-08-15T02:46:01.513Z,17,GR86-030-18,10.8,-0.6920000000000001,0.104,2.28,2.0,,34.87,34.425000000000004,
2025-08-15T02:46:01.557Z,17,GR86-030-18,10.7,-0.721,0.078,2.29,2.0,,34.565,34.305,
2025-08-15T02:46:01.600Z,17,GR86-030-18,10.7,-0.722,0.096,2.3000000000000003,2.0,6809.0,34.03,34.215,
2025-08-15T02:46:01.643Z,17,GR86-030-18,11.2,-0.72,0.127,2.31,2.0,,33.94,33.845,123.12
2025-08-15T02:46:01.686Z,17,GR86-030-18,13.0,-0.784,0.149,2.32,2.0,,33.495,33.62,
2025-08-15T02:46:01.730Z,17,GR86-030-18,15.1,-0.708,0.16,2.35,2.0,,33.495,33.68,
2025-08-15T02:46:01.773Z,17,GR86-030-18,17.0,-0.777,0.232,2.36,2.0,,33.465,33.525,
2025-08-15T02:46:01.815Z,17,GR86-030-18,18.1,-0.734,0.251,2.38,2.0,6443.0,33.22,33.525,
2025-08-15T02:46:01.859Z,17,GR86-030-18,18.1,-0.71,0.288,2.4,2.0,,32.595,32.93,117.68
2025-08-15T02:46:01.903Z,17,GR86-030-18,17.2,-0.768,0.36,2.42,2.0,,30.855,31.925,
2025-08-15T02:46:01.946Z,17,GR86-030-18,14.9,-0.677,0.354,2.43,2.0,,28.185,29.56,
2025-08-15T02:46:01.990Z,17,GR86-030-18,12.4,-0.623,0.377,2.42,2.0,,25.665,26.905,
2025-08-15T02:46:02.033Z,17,GR86-030-18,10.6,-0.638,0.332,2.44,2.0,6151.0,23.835,25.18,
2025-08-15T02:46:02.076Z,17,GR86-030-18,10.7,-0.552,0.31,2.45,2.0,,23.24,24.31,112.27
2025-08-15T02:46:02.120Z,17,GR86-030-18,15.0,-0.583,0.312,2.46,2.0,,22.735,23.715,
2025-08-15T02:46:02.163Z,17,GR86-030-18,20.0,-0.585,0.298,2.46,2.0,,22.125,23.21,
2025-08-15T02:46:02.206Z,17,GR86-030-18,25.9,-0.538,0.349,2.47,2.0,,21.305,22.34,
2025-08-15T02:46:02.250Z,17,GR86-030-18,32.2,-0.581,0.395,2.48,2.0,5915.0,20.48,21.47,
2025-08-15T02:46:02.293Z,17,GR86-030-18,38.1,-0.491,0.463,2.47,2.0,,19.395,20.51,107.33
2025-08-15T02:46:02.336Z,17,GR86-030-18,43.0,-0.532,0.535,2.47,2.0,,18.115,19.075,
2025-08-15T02:46:02.380Z,17,GR86-030-18,48.3,-0.477,0.604,2.47,2.0,,16.145,17.275000000000002,
2025-08-15T02:46:02.423Z,17,GR86-030-18,50.400000000000006,-0.45,0.729,2.47,2.0,,14.33,15.305,
2025-08-15T02:46:02.466Z,17,GR86-030-18,50.5,-0.397,0.751,2.47,2.0,5670.0,11.4,12.33,
2025-08-15T02:46:02.510Z,17,GR86-030-18,50.2,-0.34,0.868,2.48,2.0,,7.705,8.455,102.61
2025-08-15T02:46:02.553Z,17,GR86-030-18,50.1,-0.269,0.862,2.48,2.0,,3.645,4.15,
2025-08-15T02:46:02.596Z,17,GR86-030-18,50.3,-0.207,0.969,2.49,2.0,,0.0,0.0,
2025-08-15T02:46:02.640Z,17,GR86-030-18,52.400000000000006,-0.187,1.001,2.49,2.0,,0.0,0.0,
2025-08-15T02:46:02.683Z,17,GR86-030-18,55.5,-0.125,1.029,2.5,2.0,5447.0,0.0,0.0,
2025-08-15T02:46:02.726Z,17,GR86-030-18,59.6,-0.169,1.067,2.5,2.0,,0.0,0.0,98.42
2025-08-15T02:46:02.770Z,17,GR86-030-18,62.7,-0.127,1.072,2.51,2.0,,0.0,0.0,
2025-08-15T02:46:02.813Z,17,GR86-030-18,62.8,-0.173,1.1,2.5,2.0,,0.0,0.0,
2025-08-15T02:46:02.856Z,17,GR86-030-18,60.900000000000006,-0.138,1.083,2.48,2.0,,0.0,0.0,
2025-08-15T02:46:02.900Z,17,GR86-030-18,57.900000000000006,-0.159,1.085,2.51,2.0,5261.0,0.0,0.0,
2025-08-15T02:46:02.943Z,17,GR86-030-18,58.5,-0.152,1.077,4.99,2.0,,0.0,0.0,94.73
2025-08-15T02:46:02.986Z,17,GR86-030-18,60.900000000000006,-0.167,1.134,20.34,2.0,,0.0,0.0,
2025-08-15T02:46:03.030Z,17,GR86-030-18,64.5,-0.157,1.132,20.04,2.0,,0.0,0.0,
2025-08-15T02:46:03.073Z,17,GR86-030-18,68.9,-0.142,1.163,20.35,2.0,,0.0,0.0,
2025-08-15T02:46:03.115Z,17,GR86-030-18,73.3,-0.086,1.163,22.1,2.0,5211.0,0.0,0.0,
2025-08-15T02:46:03.159Z,17,GR86-030-18,76.80000000000001,-0.086,1.216,25.32,2.0,,0.0,0.0,93.14
2025-08-15T02:46:03.201Z,17,GR86-030-18,76.2,-0.016,1.179,25.7,2.0,,0.0,0.0,
2025-08-15T02:46:03.244Z,17,GR86-030-18,74.9,0.19,1.204,26.29,2.0,,0.0,0.0,
2025-08-15T02:46:03.287Z,17,GR86-030-18,74.5,0.141,1.166,28.75,2.0,,0.0,0.0,
2025-08-15T02:46:03.330Z,17,GR86-030-18,75.0,0.112,1.182,30.73,2.0,5116.0,0.0,0.0,
