timestamp,lap,vehicle_id,steering_angle,accx_can,accy_can,ath,gear,nmot,pbrake_f,pbrake_r,speed
2025-08-15T00:59:56.941Z,16,GR86-015-31,4.800000000000001,0.132,0.217,99.99,5.0,6356.0,0.0,0.0,
2025-08-15T00:59:56.985Z,16,GR86-015-31,4.5,0.157,0.191,100.0,5.0,,0.0,0.0,186.29
2025-08-15T00:59:57.027Z,16,GR86-015-31,3.6,0.133,0.172,99.99,5.0,,0.0,0.0,
2025-08-15T00:59:57.070Z,16,GR86-015-31,3.1,0.137,0.138,99.99,5.0,,0.0,0.0,
2025-08-15T00:59:57.114Z,16,GR86-015-31,3.1,0.18,0.091,100.0,5.0,,0.0,0.0,
2025-08-15T00:59:57.158Z,16,GR86-015-31,3.0,0.148,0.064,99.98,5.0,6384.0,0.0,0.0,
2025-08-15T00:59:57.201Z,16,GR86-015-31,3.0,0.182,0.067,100.0,5.0,,0.0,0.0,187.86
2025-08-15T00:59:57.245Z,16,GR86-015-31,2.9000000000000004,0.165,0.069,99.99,5.0,,0.0,0.0,
2025-08-15T00:59:57.287Z,16,GR86-015-31,2.8000000000000003,0.165,0.084,100.01,5.0,,0.0,0.0,
2025-08-15T00:59:57.330Z,16,GR86-015-31,2.8000000000000003,0.147,0.076,99.99,5.0,,0.0,0.0,
2025-08-15T00:59:57.374Z,16,GR86-015-31,2.8000000000000003,0.119,0.042,99.98,5.0,6396.0,0.0,0.0,
2025-08-15T00:59:57.460Z,16,GR86-015-31,2.8000000000000003,0.145,0.047,100.01,5.0,,0.0,0.0,188.61
2025-08-15T00:59:57.504Z,16,GR86-015-31,2.7,0.132,0.044,99.99,5.0,,0.0,0.0,
2025-08-15T00:59:57.546Z,16,GR86-015-31,2.5,0.169,0.076,99.98,5.0,,0.0,0.0,
2025-08-15T00:59:57.590Z,16,GR86-015-31,2.4000000000000004,0.139,0.071,99.98,5.0,6425.0,0.0,0.0,
2025-08-15T00:59:57.634Z,16,GR86-015-31,2.4000000000000004,0.108,0.081,99.99,5.0,,0.0,0.0,189.41
2025-08-15T00:59:57.676Z,16,GR86-015-31,2.3000000000000003,0.112,0.087,100.01,5.0,,0.0,0.0,
2025-08-15T00:59:57.719Z,16,GR86-015-31,2.2,0.123,0.068,100.0,5.0,,0.0,0.0,
2025-08-15T00:59:57.764Z,16,GR86-015-31,2.0,0.117,0.036,100.01,5.0,,0.0,0.0,
2025-08-15T00:59:57.806Z,16,GR86-015-31,2.0,0.117,0.013,100.0,5.0,6485.0,0.0,0.0,
2025-08-15T00:59:57.849Z,16,GR86-015-31,1.9,0.126,0.017,100.0,5.0,,0.0,0.0,190.15
2025-08-15T00:59:57.895Z,16,GR86-015-31,1.4,0.138,0.018,99.99,5.0,,0.0,0.0,
2025-08-15T00:59:57.938Z,16,GR86-015-31,1.2000000000000002,0.133,0.028,100.02,5.0,,0.0,0.0,
2025-08-15T00:59:57.981Z,16,GR86-015-31,1.2000000000000002,0.137,0.024,100.01,5.0,,0.0,0.0,
2025-08-15T00:59:58.025Z,16,GR86-015-31,1.2000000000000002,0.097,-0.021,99.99,5.0,6493.0,0.0,0.0,
2025-08-15T00:59:58.068Z,16,GR86-015-31,1.1,0.129,-0.01,100.01,5.0,,0.0,0.0,190.84
2025-08-15T00:59:58.110Z,16,GR86-015-31,1.0,0.131,-0.025,100.0,5.0,,0.0,0.0,
2025-08-15T00:59:58.155Z,16,GR86-015-31,0.8,0.129,0.012,100.03,5.0,,0.0,0.0,
2025-08-15T00:59:58.198Z,16,GR86-015-31,0.4,0.135,-0.021,99.99,5.0,,0.0,0.0,
2025-08-15T00:59:58.285Z,16,GR86-015-31,-0.2,0.132,-0.028,100.01,5.0,6526.0,0.0,0.0,191.74
2025-08-15T00:59:58.328Z,16,GR86-015-31,-0.3,0.125,-0.056,99.99,5.0,,0.0,0.0,
2025-08-15T00:59:58.371Z,16,GR86-015-31,-0.3,0.132,-0.053,99.99,5.0,,0.0,0.0,
2025-08-15T00:59:58.415Z,16,GR86-015-31,-0.2,0.135,-0.063,99.99,5.0,,0.0,0.0,
2025-08-15T00:59:58.457Z,16,GR86-015-31,-0.2,0.139,-0.045,99.99,5.0,6554.0,0.0,0.0,
2025-08-15T00:59:58.500Z,16,GR86-015-31,-0.2,0.137,-0.038,100.02,5.0,,0.0,0.0,192.38
2025-08-15T00:59:58.545Z,16,GR86-015-31,-0.2,0.134,-0.037,99.99,5.0,,0.0,0.0,
2025-08-15T00:59:58.588Z,16,GR86-015-31,-0.2,0.135,-0.035,100.0,5.0,,0.0,0.0,
2025-08-15T00:59:58.630Z,16,GR86-015-31,-0.1,0.136,-0.029,99.99,5.0,,0.0,0.0,
2025-08-15T00:59:58.674Z,16,GR86-015-31,0.1,0.138,0.014,99.99,5.0,6580.0,0.0,0.0,
2025-08-15T00:59:58.718Z,16,GR86-015-31,0.1,0.132,0.027,99.99,5.0,,0.0,0.0,193.2
2025-08-15T00:59:58.760Z,16,GR86-015-31,0.1,0.145,0.044,99.99,5.0,,0.0,0.0,
2025-08-15T00:59:58.804Z,16,GR86-015-31,0.1,0.13,0.046,100.0,5.0,,0.0,0.0,
2025-08-15T00:59:58.846Z,16,GR86-015-31,0.2,0.144,0.05,100.0,5.0,,0.0,0.0,
2025-08-15T00:59:58.889Z,16,GR86-015-31,0.2,0.112,0.044,100.02,5.0,6598.0,0.0,0.0,
2025-08-15T00:59:58.932Z,16,GR86-015-31,0.2,0.141,0.016,100.02,5.0,,0.0,0.0,194.08
2025-08-15T00:59:58.975Z,16,GR86-015-31,0.1,0.149,0.027,100.03,5.0,,0.0,0.0,
2025-08-15T00:59:59.018Z,16,GR86-015-31,0.1,0.113,0.024,100.0,5.0,,0.0,0.0,
2025-08-15T00:59:59.061Z,16,GR86-015-31,0.1,0.133,0.016,100.01,5.0,,0.0,0.0,
2025-08-15T00:59:59.105Z,16,GR86-015-31,0.1,0.081,0.001,100.0,5.0,6658.0,0.0,0.0,
2025-08-15T00:59:59.147Z,16,GR86-015-31,0.1,0.172,-0.002,100.0,5.0,,0.0,0.0,194.59
2025-08-15T00:59:59.190Z,16,GR86-015-31,0.2,0.097,-0.027,100.01,5.0,,0.0,0.0,
2025-08-15T00:59:59.234Z,16,GR86-015-31,0.2,0.102,-0.019,99.99,5.0,,0.0,0.0,
2025-08-15T00:59:59.276Z,16,GR86-015-31,0.4,0.116,-0.006,100.02,5.0,,0.0,0.0,
2025-08-15T00:59:59.319Z,16,GR86-015-31,1.2000000000000002,0.113,0.018,99.99,5.0,6655.0,0.0,0.0,
2025-08-15T00:59:59.362Z,16,GR86-015-31,1.3,0.11,0.061,100.0,5.0,,0.0,0.0,195.45
2025-08-15T00:59:59.405Z,16,GR86-015-31,1.4,0.128,0.046,100.02,5.0,,0.0,0.0,
2025-08-15T00:59:59.448Z,16,GR86-015-31,1.4,0.115,0.062,100.02,5.0,,0.0,0.0,
2025-08-15T00:59:59.491Z,16,GR86-015-31,1.4,0.132,0.077,99.99,5.0,,0.0,0.0,
2025-08-15T00:59:59.535Z,16,GR86-015-31,1.4,0.131,0.104,100.0,5.0,6683.0,0.0,0.0,
2025-08-15T00:59:59.578Z,16,GR86-015-31,1.4,0.115,0.142,100.01,5.0,,0.0,0.0,196.28
2025-08-15T00:59:59.621Z,16,GR86-015-31,1.4,0.105,0.117,100.01,5.0,,0.0,0.0,
2025-08-15T00:59:59.665Z,16,GR86-015-31,1.4,0.146,0.103,99.99,5.0,,0.0,0.0,
2025-08-15T00:59:59.707Z,16,GR86-015-31,1.2000000000000002,0.129,0.094,100.0,5.0,,0.0,0.0,
2025-08-15T00:59:59.751Z,16,GR86-015-31,1.2000000000000002,0.152,0.055,100.01,5.0,6701.0,0.0,0.0,
2025-08-15T00:59:59.795Z,16,GR86-015-31,1.2000000000000002,0.116,0.062,99.99,5.0,,0.0,0.0,197.91
2025-08-15T00:59:59.838Z,16,GR86-015-31,1.2000000000000002,0.109,0.064,100.0,5.0,,0.0,0.0,
2025-08-15T00:59:59.881Z,16,GR86-015-31,1.2000000000000002,0.125,0.019,99.99,5.0,,0.0,0.0,
2025-08-15T00:59:59.925Z,16,GR86-015-31,1.2000000000000002,0.16,0.022,99.99,5.0,,0.0,0.0,
2025-08-15T00:59:59.968Z,16,GR86-015-31,1.2000000000000002,0.167,0.027,100.01,5.0,6741.0,0.0,0.0,
2025-08-15T01:00:00.011Z,16,GR86-015-31,1.2000000000000002,0.136,0.033,100.02,5.0,,0.0,0.0,198.6
2025-08-15T01:00:00.054Z,16,GR86-015-31,1.2000000000000002,0.114,0.073,100.01,5.0,,0.0,0.0,
2025-08-15T01:00:00.097Z,16,GR86-015-31,1.2000000000000002,0.128,0.034,99.99,5.0,,0.0,0.0,
2025-08-15T01:00:00.140Z,16,GR86-015-31,1.2000000000000002,0.132,0.052,99.99,5.0,,0.0,0.0,
2025-08-15T01:00:00.184Z,16,GR86-015-31,1.2000000000000002,0.161,0.064,99.99,5.0,6752.0,0.0,0.0,
2025-08-15T01:00:00.226Z,16,GR86-015-31,1.2000000000000002,0.14,0.078,100.0,5.0,,0.0,0.0,199.28
2025-08-15T01:00:00.269Z,16,GR86-015-31,1.5,0.135,0.112,100.01,5.0,,0.0,0.0,
2025-08-15T01:00:00.312Z,16,GR86-015-31,2.9000000000000004,0.107,0.077,100.01,5.0,,0.0,0.0,
2025-08-15T01:00:00.355Z,16,GR86-015-31,3.4000000000000004,0.151,0.105,100.0,5.0,,0.0,0.0,
2025-08-15T01:00:00.398Z,16,GR86-015-31,3.4000000000000004,0.158,0.145,100.01,5.0,6816.0,0.0,0.0,
2025-08-15T01:00:00.441Z,16,GR86-015-31,3.4000000000000004,0.139,0.135,99.98,5.0,,0.0,0.0,199.9
2025-08-15T01:00:00.485Z,16,GR86-015-31,3.4000000000000004,0.11,0.172,99.99,5.0,,0.0,0.0,
2025-08-15T01:00:00.528Z,16,GR86-015-31,3.4000000000000004,0.135,0.2,99.99,5.0,,0.0,0.0,
2025-08-15T01:00:00.570Z,16,GR86-015-31,3.4000000000000004,0.097,0.215,99.99,5.0,,0.0,0.0,
2025-08-15T01:00:00.614Z,16,GR86-015-31,3.4000000000000004,0.146,0.239,99.99,5.0,6830.0,0.0,0.0,
2025-08-15T01:00:00.657Z,16,GR86-015-31,3.4000000000000004,0.137,0.204,99.99,5.0,,0.0,0.0,200.72
2025-08-15T01:00:00.700Z,16,GR86-015-31,3.4000000000000004,0.112,0.175,99.99,5.0,,0.0,0.0,
2025-08-15T01:00:00.744Z,16,GR86-015-31,3.3000000000000003,0.101,0.176,100.03,5.0,,0.0,0.0,
2025-08-15T01:00:00.786Z,16,GR86-015-31,2.9000000000000004,0.123,0.139,99.99,5.0,,0.0,0.0,
2025-08-15T01:00:00.829Z,16,GR86-015-31,2.5,0.093,0.113,100.02,5.0,6863.0,0.0,0.0,
2025-08-15T01:00:00.872Z,16,GR86-015-31,2.5,0.139,0.091,99.99,5.0,,0.0,0.0,201.64
2025-08-15T01:00:00.915Z,16,GR86-015-31,2.5,0.12,0.084,99.98,5.0,,0.0,0.0,
2025-08-15T01:00:00.958Z,16,GR86-015-31,2.5,0.085,0.065,100.0,5.0,,0.0,0.0,
2025-08-15T01:00:01.001Z,16,GR86-015-31,2.4000000000000004,0.146,0.053,99.99,5.0,,0.0,0.0,
2025-08-15T01:00:01.045Z,16,GR86-015-31,2.0,0.111,0.026,99.99,5.0,6896.0,0.0,0.0,
2025-08-15T01:00:01.087Z,16,GR86-015-31,1.2000000000000002,0.162,0.022,99.99,5.0,,0.0,0.0,202.36
2025-08-15T01:00:01.130Z,16,GR86-015-31,0.7000000000000001,0.158,0.007,99.99,5.0,,0.0,0.0,
2025-08-15T01:00:01.174Z,16,GR86-015-31,0.6000000000000001,0.091,0.012,99.99,5.0,,0.0,0.0,
2025-08-15T01:00:01.216Z,16,GR86-015-31,0.6000000000000001,0.141,-0.004,100.01,5.0,,0.0,0.0,
2025-08-15T01:00:01.259Z,16,GR86-015-31,0.5,0.169,-0.003,99.99,5.0,6916.0,0.0,0.0,
2025-08-15T01:00:01.302Z,16,GR86-015-31,-0.2,0.115,0.005,99.98,5.0,,0.0,0.0,203.09
2025-08-15T01:00:01.345Z,16,GR86-015-31,-0.7000000000000001,0.136,-0.024,100.0,5.0,,0.0,0.0,
2025-08-15T01:00:01.390Z,16,GR86-015-31,-0.8,0.109,-0.032,99.99,5.0,,0.0,0.0,
2025-08-15T01:00:01.432Z,16,GR86-015-31,-0.8,0.089,-0.042,99.99,5.0,,0.0,0.0,
2025-08-15T01:00:01.475Z,16,GR86-015-31,-0.7000000000000001,0.136,-0.069,100.0,5.0,6949.0,0.0,0.0,
2025-08-15T01:00:01.518Z,16,GR86-015-31,-0.7000000000000001,0.112,-0.068,100.01,5.0,,0.0,0.0,204.02
2025-08-15T01:00:01.561Z,16,GR86-015-31,-0.7000000000000001,0.089,-0.08,100.0,5.0,,0.0,0.0,
2025-08-15T01:00:01.605Z,16,GR86-015-31,-0.6000000000000001,0.092,-0.047,99.99,5.0,,0.0,0.0,
2025-08-15T01:00:01.648Z,16,GR86-015-31,-0.5,0.102,-0.053,99.99,5.0,,0.0,0.0,
2025-08-15T01:00:01.691Z,16,GR86-015-31,-0.5,0.124,-0.03,99.99,5.0,6958.0,0.0,0.0,
2025-08-15T01:00:01.735Z,16,GR86-015-31,-0.6000000000000001,0.068,-0.03,99.99,5.0,,0.0,0.0,204.83
2025-08-15T01:00:01.778Z,16,GR86-015-31,-0.6000000000000001,0.121,-0.027,100.0,5.0,,0.0,0.0,
2025-08-15T01:00:01.821Z,16,GR86-015-31,-0.6000000000000001,0.143,0.009,100.0,5.0,,0.0,0.0,
2025-08-15T01:00:01.865Z,16,GR86-015-31,-0.6000000000000001,0.113,0.029,99.99,5.0,,0.0,0.0,
2025-08-15T01:00:01.907Z,16,GR86-015-31,-0.6000000000000001,0.152,0.004,100.03,5.0,6996.0,0.0,0.0,
2025-08-15T01:00:01.951Z,16,GR86-015-31,-0.7000000000000001,0.124,-0.001,100.01,5.0,,0.0,0.0,205.59
2025-08-15T01:00:01.995Z,16,GR86-015-31,-0.7000000000000001,0.142,-0.057,100.0,5.0,,0.0,0.0,
2025-08-15T01:00:02.038Z,16,GR86-015-31,-0.8,0.14,-0.035,99.99,5.0,,0.0,0.0,
2025-08-15T01:00:02.081Z,16,GR86-015-31,-0.8,0.133,-0.033,99.99,5.0,,0.0,0.0,
2025-08-15T01:00:02.125Z,16,GR86-015-31,-0.8,0.102,-0.051,100.03,5.0,7021.0,0.0,0.0,
2025-08-15T01:00:02.169Z,16,GR86-015-31,-0.7000000000000001,0.113,-0.036,99.99,5.0,,0.0,0.0,206.35
2025-08-15T01:00:02.212Z,16,GR86-015-31,-0.1,0.099,-0.065,99.99,5.0,,0.0,0.0,
2025-08-15T01:00:02.255Z,16,GR86-015-31,0.7000000000000001,0.108,0.009,99.99,5.0,,0.0,0.0,
2025-08-15T01:00:02.298Z,16,GR86-015-31,1.0,0.105,0.039,100.0,5.0,,0.0,0.0,
2025-08-15T01:00:02.341Z,16,GR86-015-31,1.2000000000000002,0.095,0.048,99.98,5.0,7040.0,0.0,0.0,
2025-08-15T01:00:02.385Z,16,GR86-015-31,1.2000000000000002,0.137,0.057,99.99,5.0,,0.0,0.0,207.02
2025-08-15T01:00:02.428Z,16,GR86-015-31,1.2000000000000002,0.093,0.092,100.0,5.0,,0.0,0.0,
2025-08-15T01:00:02.470Z,16,GR86-015-31,1.2000000000000002,0.173,0.106,100.02,5.0,,0.0,0.0,
2025-08-15T01:00:02.514Z,16,GR86-015-31,1.1,0.138,0.13,100.0,5.0,,0.0,0.0,
2025-08-15T01:00:02.556Z,16,GR86-015-31,1.1,0.099,0.105,99.99,5.0,7068.0,0.0,0.0,
2025-08-15T01:00:02.599Z,16,GR86-015-31,1.1,0.15,0.124,99.99,5.0,,0.0,0.0,208.53
2025-08-15T01:00:02.642Z,16,GR86-015-31,1.0,0.106,0.099,100.0,5.0,,0.0,0.0,
2025-08-15T01:00:02.685Z,16,GR86-015-31,0.9,0.113,0.077,100.02,5.0,,0.0,0.0,
2025-08-15T01:00:02.728Z,16,GR86-015-31,0.8,0.118,0.048,99.98,5.0,,0.0,0.0,
2025-08-15T01:00:02.771Z,16,GR86-015-31,0.7000000000000001,0.117,0.041,100.0,5.0,7085.0,0.0,0.0,
2025-08-15T01:00:02.858Z,16,GR86-015-31,0.2,0.1,-0.001,99.99,5.0,,0.0,0.0,209.2
2025-08-15T01:00:02.901Z,16,GR86-015-31,-0.5,0.13,-0.051,100.02,5.0,,0.0,0.0,
2025-08-15T01:00:02.945Z,16,GR86-015-31,-0.7000000000000001,0.117,-0.034,100.0,5.0,,0.0,0.0,
2025-08-15T01:00:02.987Z,16,GR86-015-31,-0.8,0.124,-0.015,99.99,5.0,7118.0,0.0,0.0,
2025-08-15T01:00:03.030Z,16,GR86-015-31,-0.9,0.099,-0.058,99.98,5.0,,0.0,0.0,209.81
2025-08-15T01:00:03.074Z,16,GR86-015-31,-1.1,0.119,-0.068,100.03,5.0,,0.0,0.0,
2025-08-15T01:00:03.116Z,16,GR86-015-31,-1.3,0.138,-0.061,99.99,5.0,,0.0,0.0,
2025-08-15T01:00:03.159Z,16,GR86-015-31,-1.4,0.116,-0.077,99.99,5.0,,0.0,0.0,
2025-08-15T01:00:03.202Z,16,GR86-015-31,-1.4,0.096,-0.032,99.98,5.0,7155.0,0.0,0.0,
2025-08-15T01:00:03.245Z,16,GR86-015-31,-1.4,0.098,-0.079,100.0,5.0,,0.0,0.0,210.42
2025-08-15T01:00:03.288Z,16,GR86-015-31,-1.7000000000000002,0.093,-0.115,99.98,5.0,,0.0,0.0,
2025-08-15T01:00:03.331Z,16,GR86-015-31,-1.9,0.101,-0.084,100.01,5.0,,0.0,0.0,
2025-08-15T01:00:03.375Z,16,GR86-015-31,-2.0,0.115,-0.076,99.99,5.0,,0.0,0.0,
2025-08-15T01:00:03.460Z,16,GR86-015-31,-2.0,0.116,-0.076,100.02,5.0,7171.0,0.0,0.0,210.92
2025-08-15T01:00:03.504Z,16,GR86-015-31,-2.0,0.101,-0.125,99.99,5.0,,0.0,0.0,
2025-08-15T01:00:03.546Z,16,GR86-015-31,-2.0,0.118,-0.132,99.99,5.0,,0.0,0.0,
2025-08-15T01:00:03.589Z,16,GR86-015-31,-2.3000000000000003,0.078,-0.136,99.99,5.0,,0.0,0.0,
2025-08-15T01:00:03.632Z,16,GR86-015-31,-2.4000000000000004,0.113,-0.129,100.01,5.0,7187.0,0.0,0.0,
2025-08-15T01:00:03.675Z,16,GR86-015-31,-2.3000000000000003,0.108,-0.098,99.99,5.0,,0.0,0.0,211.72
2025-08-15T01:00:03.718Z,16,GR86-015-31,-2.3000000000000003,0.099,-0.121,100.01,5.0,,0.0,0.0,
2025-08-15T01:00:03.761Z,16,GR86-015-31,-2.2,0.101,-0.107,99.98,5.0,,0.0,0.0,
2025-08-15T01:00:03.805Z,16,GR86-015-31,-2.1,0.09,-0.128,99.99,5.0,,0.0,0.0,
2025-08-15T01:00:03.847Z,16,GR86-015-31,-2.0,0.086,-0.112,99.99,5.0,7208.0,0.0,0.0,
2025-08-15T01:00:03.890Z,16,GR86-015-31,-2.0,0.062,-0.123,99.98,5.0,,0.0,0.0,211.97
2025-08-15T01:00:03.934Z,16,GR86-015-31,-1.8,0.086,-0.128,99.97,5.0,,0.0,0.0,
2025-08-15T01:00:03.976Z,16,GR86-015-31,-1.6,0.077,-0.115,99.99,5.0,,0.0,0.0,
2025-08-15T01:00:04.019Z,16,GR86-015-31,-1.5,0.093,-0.087,100.01,5.0,,0.0,0.0,
2025-08-15T01:00:04.105Z,16,GR86-015-31,-1.4,0.094,-0.062,99.98,5.0,7227.0,0.0,0.0,212.54
2025-08-15T01:00:04.148Z,16,GR86-015-31,-0.9,0.128,-0.006,99.99,5.0,,0.0,0.0,
2025-08-15T01:00:04.191Z,16,GR86-015-31,-0.7000000000000001,0.051,-0.023,100.01,5.0,,0.0,0.0,
2025-08-15T01:00:04.235Z,16,GR86-015-31,-0.5,0.106,0.002,100.0,5.0,,0.0,0.0,
2025-08-15T01:00:04.278Z,16,GR86-015-31,-0.3,0.111,0.013,99.99,5.0,7252.0,0.0,0.0,
2025-08-15T01:00:04.321Z,16,GR86-015-31,-0.2,0.059,0.019,99.98,5.0,,0.0,0.0,213.08
2025-08-15T01:00:04.365Z,16,GR86-015-31,-0.1,0.108,0.01,99.99,5.0,,0.0,0.0,
2025-08-15T01:00:04.407Z,16,GR86-015-31,0.0,0.08,0.031,100.02,5.0,,0.0,0.0,
2025-08-15T01:00:04.451Z,16,GR86-015-31,0.2,0.11,0.029,99.98,5.0,,0.0,0.0,
2025-08-15T01:00:04.495Z,16,GR86-015-31,0.4,0.084,0.019,99.99,5.0,7267.0,0.0,0.0,
2025-08-15T01:00:04.538Z,16,GR86-015-31,0.7000000000000001,0.12,0.045,100.0,5.0,,0.0,0.0,213.69
2025-08-15T01:00:04.581Z,16,GR86-015-31,0.7000000000000001,0.087,0.05,100.0,5.0,,0.0,0.0,
2025-08-15T01:00:04.625Z,16,GR86-015-31,0.8,0.065,0.062,99.98,5.0,,0.0,0.0,
2025-08-15T01:00:04.668Z,16,GR86-015-31,0.7000000000000001,0.094,0.049,99.98,5.0,,0.0,0.0,
2025-08-15T01:00:04.710Z,16,GR86-015-31,0.7000000000000001,0.081,0.05,99.98,5.0,7280.0,0.0,0.0,
2025-08-15T01:00:04.755Z,16,GR86-015-31,0.7000000000000001,0.09,0.037,99.98,5.0,,0.0,0.0,214.19
2025-08-15T01:00:04.798Z,16,GR86-015-31,0.7000000000000001,0.051,0.021,99.99,5.0,,0.0,0.0,
2025-08-15T01:00:04.841Z,16,GR86-015-31,0.7000000000000001,0.115,-0.004,99.99,5.0,,0.0,0.0,
2025-08-15T01:00:04.885Z,16,GR86-015-31,0.6000000000000001,0.085,0.013,99.99,5.0,,0.0,0.0,
2025-08-15T01:00:04.928Z,16,GR86-015-31,0.4,0.086,-0.046,99.97,5.0,7293.0,0.0,0.0,
2025-08-15T01:00:04.971Z,16,GR86-015-31,0.2,0.067,-0.038,99.98,5.0,,0.0,0.0,214.7
2025-08-15T01:00:05.015Z,16,GR86-015-31,0.1,0.063,-0.083,99.99,5.0,,0.0,0.0,
2025-08-15T01:00:05.057Z,16,GR86-015-31,0.1,0.028,-0.069,99.99,5.0,,0.0,0.0,
2025-08-15T01:00:05.100Z,16,GR86-015-31,0.1,0.057,-0.072,100.02,5.0,,0.0,0.0,
2025-08-15T01:00:05.145Z,16,GR86-015-31,0.1,0.026,-0.04,100.01,5.0,7300.0,0.0,0.0,
2025-08-15T01:00:05.188Z,16,GR86-015-31,0.1,0.068,-0.059,99.99,5.0,,0.0,0.0,215.2
2025-08-15T01:00:05.230Z,16,GR86-015-31,0.0,0.047,-0.075,99.98,5.0,,0.0,0.0,
2025-08-15T01:00:05.274Z,16,GR86-015-31,-2.9000000000000004,0.037,-0.059,99.99,5.0,,6.545,6.805,
2025-08-15T01:00:05.318Z,16,GR86-015-31,-4.800000000000001,-0.016,-0.105,81.78,5.0,,12.145,12.24,
2025-08-15T01:00:05.360Z,16,GR86-015-31,-5.300000000000001,-0.08,-0.122,9.57,5.0,7281.0,18.83,18.92,
2025-08-15T01:00:05.404Z,16,GR86-015-31,-5.300000000000001,-0.208,-0.178,2.9,5.0,,26.965,27.055,215.5
2025-08-15T01:00:05.446Z,16,GR86-015-31,-4.6000000000000005,-0.551,-0.214,2.98,5.0,,34.745,34.625,
2025-08-15T01:00:05.490Z,16,GR86-015-31,-2.2,-0.621,-0.152,2.94,5.0,,40.805,40.775,
2025-08-15T01:00:05.534Z,16,GR86-015-31,-0.5,-0.952,-0.169,2.87,5.0,,50.25,50.005,
2025-08-15T01:00:05.576Z,16,GR86-015-31,1.8,-0.924,-0.165,2.82,5.0,7295.0,56.065,55.865,
2025-08-15T01:00:05.619Z,16,GR86-015-31,5.1000000000000005,-1.115,-0.189,2.78,5.0,,61.42,61.21,211.79
2025-08-15T01:00:05.662Z,16,GR86-015-31,6.7,-1.195,-0.189,2.74,5.0,,66.075,65.895,
2025-08-15T01:00:05.705Z,16,GR86-015-31,6.7,-1.154,-0.129,2.71,5.0,,70.625,70.485,
2025-08-15T01:00:05.748Z,16,GR86-015-31,6.0,-1.218,-0.137,2.68,5.0,,73.72,73.815,
2025-08-15T01:00:05.791Z,16,GR86-015-31,4.2,-1.23,-0.089,2.67,5.0,6891.0,75.58500000000001,75.705,
2025-08-15T01:00:05.835Z,16,GR86-015-31,1.6,-1.193,-0.104,2.63,5.0,,78.08500000000001,79.72,204.91
2025-08-15T01:00:05.878Z,16,GR86-015-31,1.4,-1.315,-0.098,2.6,5.0,,78.45,79.14,
2025-08-15T01:00:05.921Z,16,GR86-015-31,1.3,-1.279,-0.076,28.94,5.0,,75.49,77.015,
2025-08-15T01:00:05.965Z,16,GR86-015-31,0.6000000000000001,-1.16,-0.052,75.0,5.0,,64.64,66.64,
2025-08-15T01:00:06.007Z,16,GR86-015-31,0.4,-1.025,-0.075,83.55,4.0,6221.0,53.21,54.05,
2025-08-15T01:00:06.051Z,16,GR86-015-31,0.7000000000000001,-1.109,-0.078,14.18,4.0,,49.870000000000005,50.94,194.18
2025-08-15T01:00:06.095Z,16,GR86-015-31,4.3,-1.07,-0.028,2.6,4.0,,52.435,54.05,
2025-08-15T01:00:06.138Z,16,GR86-015-31,4.6000000000000005,-0.939,-0.087,2.5,4.0,,53.685,54.08,
2025-08-15T01:00:06.181Z,16,GR86-015-31,-0.5,-1.062,-0.033,2.49,4.0,,59.15,60.49,
2025-08-15T01:00:06.225Z,16,GR86-015-31,-2.7,-1.046,-0.132,2.47,4.0,7030.0,66.045,67.02,
2025-08-15T01:00:06.268Z,16,GR86-015-31,-2.4000000000000004,-1.079,-0.273,2.47,4.0,,71.43,71.95,188.14
2025-08-15T01:00:06.310Z,16,GR86-015-31,2.7,-1.101,-0.091,2.47,4.0,,76.895,77.735,
2025-08-15T01:00:06.354Z,16,GR86-015-31,4.6000000000000005,-1.248,-0.176,2.48,4.0,,81.33500000000001,82.955,
2025-08-15T01:00:06.397Z,16,GR86-015-31,2.5,-1.141,-0.093,2.48,4.0,,81.0,81.84,
2025-08-15T01:00:06.440Z,16,GR86-015-31,0.2,-1.193,-0.172,2.49,4.0,6653.0,81.87,83.33500000000001,
2025-08-15T01:00:06.484Z,16,GR86-015-31,-0.6000000000000001,-1.129,-0.263,2.47,4.0,,85.06,86.615,180.06
2025-08-15T01:00:06.526Z,16,GR86-015-31,-0.7000000000000001,-1.094,-0.219,2.5,4.0,,87.3,88.4,
2025-08-15T01:00:06.569Z,16,GR86-015-31,-0.5,-1.116,-0.266,2.49,4.0,,90.935,92.155,
2025-08-15T01:00:06.612Z,16,GR86-015-31,0.1,-1.203,-0.294,2.49,4.0,,94.87,96.93,
2025-08-15T01:00:06.655Z,16,GR86-015-31,4.1000000000000005,-1.205,-0.264,37.94,4.0,6324.0,95.895,96.29,
2025-08-15T01:00:06.698Z,16,GR86-015-31,4.7,-1.159,-0.199,84.32000000000001,4.0,,99.555,100.81,171.14
2025-08-15T01:00:06.741Z,16,GR86-015-31,1.6,-1.153,-0.202,80.19,3.0,,99.31,100.61,
2025-08-15T01:00:06.785Z,16,GR86-015-31,0.9,-1.302,-0.233,9.52,3.0,,99.055,101.08,
2025-08-15T01:00:06.828Z,16,GR86-015-31,0.9,-1.325,-0.201,2.83,3.0,,99.405,101.71,
2025-08-15T01:00:06.870Z,16,GR86-015-31,-1.3,-1.176,-0.338,2.54,3.0,6314.0,98.78,100.12,
2025-08-15T01:00:06.914Z,16,GR86-015-31,-4.6000000000000005,-1.31,-0.265,2.5,3.0,,98.09,99.71,162.21
2025-08-15T01:00:06.956Z,16,GR86-015-31,-5.4,-1.155,-0.366,2.5,3.0,,93.33,95.115,
2025-08-15T01:00:06.999Z,16,GR86-015-31,-6.9,-0.9,-0.55,2.5,3.0,,87.33500000000001,88.34,
2025-08-15T01:00:07.042Z,16,GR86-015-31,-10.8,-1.131,-0.391,2.5,3.0,,79.595,81.0,
2025-08-15T01:00:07.085Z,16,GR86-015-31,-13.4,-0.917,-0.583,2.49,3.0,6721.0,65.3,66.58,
2025-08-15T01:00:07.171Z,16,GR86-015-31,-12.4,-0.866,-0.686,2.49,3.0,,53.805,54.205,153.56
2025-08-15T01:00:07.215Z,16,GR86-015-31,-0.8,-0.872,-0.538,2.49,3.0,,42.21,42.715,
2025-08-15T01:00:07.257Z,16,GR86-015-31,-6.4,-0.873,-0.491,2.5,3.0,,40.655,41.34,
2025-08-15T01:00:07.301Z,16,GR86-015-31,-18.9,-0.764,-0.649,2.5,3.0,6664.0,39.125,40.18,
2025-08-15T01:00:07.344Z,16,GR86-015-31,-28.5,-0.7030000000000001,-0.801,2.49,3.0,,36.455,37.74,148.85
2025-08-15T01:00:07.386Z,16,GR86-015-31,-31.8,-0.6960000000000001,-0.8160000000000001,2.49,3.0,,32.38,33.65,
2025-08-15T01:00:07.429Z,16,GR86-015-31,-29.5,-0.676,-0.942,2.5,3.0,,30.275,31.3,
2025-08-15T01:00:07.474Z,16,GR86-015-31,-15.0,-0.724,-0.919,2.49,3.0,,23.365,24.28,
2025-08-15T01:00:07.518Z,16,GR86-015-31,-7.2,-0.613,-0.896,2.5,3.0,6223.0,17.335,18.235,
2025-08-15T01:00:07.560Z,16,GR86-015-31,-5.800000000000001,-0.428,-0.849,2.49,3.0,,13.43,14.205,143.68
2025-08-15T01:00:07.604Z,16,GR86-015-31,-9.0,-0.416,-0.924,2.49,3.0,,13.52,14.055,
2025-08-15T01:00:07.648Z,16,GR86-015-31,-16.0,-0.426,-0.917,2.49,3.0,,13.46,13.795,
2025-08-15T01:00:07.691Z,16,GR86-015-31,-15.5,-0.389,-0.984,2.49,3.0,,13.08,13.705,
2025-08-15T01:00:07.735Z,16,GR86-015-31,1.6,-0.396,-0.945,2.49,3.0,6153.0,11.965,12.65,
2025-08-15T01:00:07.778Z,16,GR86-015-31,5.4,-0.428,-0.87,2.49,3.0,,11.34,12.025,140.05
2025-08-15T01:00:07.821Z,16,GR86-015-31,-0.1,-0.392,-0.928,2.48,3.0,,8.09,8.635,
2025-08-15T01:00:07.865Z,16,GR86-015-31,-17.8,-0.3,-0.931,2.5,3.0,,1.955,2.455,
2025-08-15T01:00:07.907Z,16,GR86-015-31,-38.8,-0.165,-1.007,2.49,3.0,,0.0,0.0,
2025-08-15T01:00:07.951Z,16,GR86-015-31,-57.5,-0.141,-1.068,2.49,3.0,6054.0,0.0,0.0,
2025-08-15T01:00:08.038Z,16,GR86-015-31,-70.60000000000001,-0.17,-1.189,2.49,3.0,,0.0,0.0,133.45
2025-08-15T01:00:08.125Z,16,GR86-015-31,-69.0,-0.171,-1.13,2.49,3.0,,0.0,0.0,
2025-08-15T01:00:08.168Z,16,GR86-015-31,-68.8,-0.151,-1.166,2.48,3.0,6083.0,0.0,0.0,
2025-08-15T01:00:08.210Z,16,GR86-015-31,-66.0,-0.157,-1.142,2.49,3.0,,0.0,0.0,131.5
2025-08-15T01:00:08.254Z,16,GR86-015-31,-50.3,-0.144,-1.229,2.48,3.0,,0.0,0.0,
2025-08-15T01:00:08.297Z,16,GR86-015-31,-37.7,-0.149,-1.191,2.64,3.0,,0.0,0.0,
2025-08-15T01:00:08.341Z,16,GR86-015-31,-34.6,-0.124,-1.161,3.27,3.0,,0.0,0.0,
2025-08-15T01:00:08.384Z,16,GR86-015-31,-35.300000000000004,-0.124,-1.22,3.7,3.0,6026.0,0.0,0.0,
2025-08-15T01:00:08.426Z,16,GR86-015-31,-35.9,-0.134,-1.231,4.76,3.0,,0.0,0.0,131.69
2025-08-15T01:00:08.470Z,16,GR86-015-31,-29.4,-0.135,-1.23,6.78,3.0,,0.0,0.0,
2025-08-15T01:00:08.512Z,16,GR86-015-31,-22.9,-0.118,-1.272,9.7,3.0,,0.0,0.0,
2025-08-15T01:00:08.555Z,16,GR86-015-31,-25.700000000000003,-0.125,-1.244,18.7,3.0,,0.0,0.0,
2025-08-15T01:00:08.598Z,16,GR86-015-31,-35.2,-0.094,-1.245,19.62,3.0,5857.0,0.0,0.0,
2025-08-15T01:00:08.641Z,16,GR86-015-31,-44.400000000000006,-0.082,-1.199,20.09,3.0,,0.0,0.0,130.48
2025-08-15T01:00:08.685Z,16,GR86-015-31,-50.3,-0.085,-1.273,21.41,3.0,,0.0,0.0,
2025-08-15T01:00:08.728Z,16,GR86-015-31,-52.3,-0.058,-1.307,22.74,3.0,,0.0,0.0,
2025-08-15T01:00:08.770Z,16,GR86-015-31,-53.2,-0.076,-1.263,23.11,3.0,,0.0,0.0,
2025-08-15T01:00:08.814Z,16,GR86-015-31,-56.7,0.142,-1.194,23.11,3.0,6049.0,0.0,0.0,
2025-08-15T01:00:08.856Z,16,GR86-015-31,-60.0,0.053,-1.212,23.5,3.0,,0.0,0.0,127.72
2025-08-15T01:00:08.899Z,16,GR86-015-31,-62.3,0.047,-1.202,23.88,3.0,,0.0,0.0,
2025-08-15T01:00:08.942Z,16,GR86-015-31,-63.8,0.025,-1.202,23.99,3.0,,0.0,0.0,
2025-08-15T01:00:09.028Z,16,GR86-015-31,-65.3,0.011,-1.234,23.66,3.0,5943.0,0.0,0.0,
2025-08-15T01:00:09.071Z,16,GR86-015-31,-69.7,0.034,-1.282,35.12,3.0,,0.0,0.0,127.17
2025-08-15T01:00:09.115Z,16,GR86-015-31,-71.4,0.058,-1.087,94.96,3.0,,0.0,0.0,
2025-08-15T01:00:09.158Z,16,GR86-015-31,-71.4,0.077,-1.191,100.07,3.0,,0.0,0.0,
2025-08-15T01:00:09.201Z,16,GR86-015-31,-71.5,0.138,-1.28,100.08,3.0,,0.0,0.0,
2025-08-15T01:00:09.245Z,16,GR86-015-31,-71.7,0.233,-1.163,100.07,3.0,6026.0,0.0,0.0,
2025-08-15T01:00:09.330Z,16,GR86-015-31,-71.9,0.193,-1.135,100.08,3.0,,0.0,0.0,125.95
2025-08-15T01:00:09.374Z,16,GR86-015-31,-71.9,0.165,-1.161,100.07,3.0,,0.0,0.0,
2025-08-15T01:00:09.416Z,16,GR86-015-31,-71.8,0.156,-1.278,100.08,3.0,,0.0,0.0,
2025-08-15T01:00:09.459Z,16,GR86-015-31,-71.7,0.2,-1.187,100.08,3.0,6054.0,0.0,0.0,
2025-08-15T01:00:09.502Z,16,GR86-015-31,-71.60000000000001,0.199,-1.266,100.09,3.0,,0.0,0.0,127.39
2025-08-15T01:00:09.545Z,16,GR86-015-31,-71.2,0.182,-1.238,100.09,3.0,,0.0,0.0,
2025-08-15T01:00:09.590Z,16,GR86-015-31,-69.10000000000001,0.168,-1.212,100.09,3.0,,0.0,0.0,
2025-08-15T01:00:09.632Z,16,GR86-015-31,-63.6,0.23,-1.211,100.06,3.0,,0.0,0.0,
2025-08-15T01:00:09.675Z,16,GR86-015-31,-53.7,0.233,-1.195,100.07,3.0,6087.0,0.0,0.0,
2025-08-15T01:00:09.718Z,16,GR86-015-31,-51.400000000000006,0.224,-1.191,100.06,3.0,,0.0,0.0,128.35
2025-08-15T01:00:09.761Z,16,GR86-015-31,-51.3,0.183,-1.183,100.08,3.0,,0.0,0.0,
2025-08-15T01:00:09.805Z,16,GR86-015-31,-51.3,0.211,-1.125,100.08,3.0,,0.0,0.0,
2025-08-15T01:00:09.847Z,16,GR86-015-31,-50.3,0.239,-1.186,100.07,3.0,,0.0,0.0,
2025-08-15T01:00:09.890Z,16,GR86-015-31,-48.2,0.191,-1.252,100.07,3.0,6136.0,0.0,0.0,
2025-08-15T01:00:09.934Z,16,GR86-015-31,-44.7,0.222,-1.263,100.08,3.0,,0.0,0.0,129.29
2025-08-15T01:00:09.976Z,16,GR86-015-31,-44.3,0.201,-1.232,100.09,3.0,,0.0,0.0,
2025-08-15T01:00:10.019Z,16,GR86-015-31,-44.3,0.212,-1.194,100.09,3.0,,0.0,0.0,
2025-08-15T01:00:10.062Z,16,GR86-015-31,-46.400000000000006,0.251,-1.178,100.07,3.0,,0.0,0.0,
2025-08-15T01:00:10.105Z,16,GR86-015-31,-47.8,0.198,-1.146,100.08,3.0,6171.0,0.0,0.0,
2025-08-15T01:00:10.148Z,16,GR86-015-31,-47.6,0.197,-1.085,100.05,3.0,,0.0,0.0,130.36
2025-08-15T01:00:10.191Z,16,GR86-015-31,-45.5,0.215,-1.098,100.05,3.0,,0.0,0.0,
2025-08-15T01:00:10.235Z,16,GR86-015-31,-43.3,0.182,-1.164,100.07,3.0,,0.0,0.0,
2025-08-15T01:00:10.278Z,16,GR86-015-31,-43.6,0.227,-1.177,100.06,3.0,,0.0,0.0,
2025-08-15T01:00:10.321Z,16,GR86-015-31,-46.7,0.214,-1.2,100.06,3.0,6212.0,0.0,0.0,
2025-08-15T01:00:10.365Z,16,GR86-015-31,-50.5,0.199,-1.169,100.08,3.0,,0.0,0.0,131.52
2025-08-15T01:00:10.407Z,16,GR86-015-31,-51.3,0.177,-1.201,100.06,3.0,,0.0,0.0,
2025-08-15T01:00:10.451Z,16,GR86-015-31,-48.3,0.195,-1.206,100.05,3.0,,0.0,0.0,
2025-08-15T01:00:10.495Z,16,GR86-015-31,-38.900000000000006,0.203,-1.222,100.07,3.0,,0.0,0.0,
2025-08-15T01:00:10.538Z,16,GR86-015-31,-33.5,0.233,-1.181,100.06,3.0,6255.0,0.0,0.0,
2025-08-15T01:00:10.581Z,16,GR86-015-31,-31.200000000000003,0.203,-1.165,100.05,3.0,,0.0,0.0,132.58
2025-08-15T01:00:10.625Z,16,GR86-015-31,-31.0,0.176,-1.162,100.08,3.0,,0.0,0.0,
2025-08-15T01:00:10.668Z,16,GR86-015-31,-32.2,0.215,-1.168,100.09,3.0,,0.0,0.0,
2025-08-15T01:00:10.710Z,16,GR86-015-31,-35.4,0.242,-1.148,100.08,3.0,,0.0,0.0,
2025-08-15T01:00:10.754Z,16,GR86-015-31,-41.900000000000006,0.22,-1.151,100.08,3.0,6314.0,0.0,0.0,
2025-08-15T01:00:10.798Z,16,GR86-015-31,-45.5,0.205,-1.164,100.09,3.0,,0.0,0.0,134.56
2025-08-15T01:00:10.841Z,16,GR86-015-31,-46.7,0.179,-1.164,100.1,3.0,,0.0,0.0,
2025-08-15T01:00:10.885Z,16,GR86-015-31,-46.1,0.186,-1.146,100.06,3.0,,0.0,0.0,
2025-08-15T01:00:10.928Z,16,GR86-015-31,-44.2,0.228,-1.078,100.05,3.0,,0.0,0.0,
2025-08-15T01:00:10.971Z,16,GR86-015-31,-42.8,0.201,-0.935,100.07,3.0,6342.0,0.0,0.0,
2025-08-15T01:00:11.015Z,16,GR86-015-31,-40.0,0.267,-0.909,100.05,3.0,,0.0,0.0,134.68
2025-08-15T01:00:11.057Z,16,GR86-015-31,-37.5,0.152,-0.737,100.05,3.0,,0.0,0.0,
2025-08-15T01:00:11.230Z,16,GR86-015-31,-31.700000000000003,0.17,-0.491,100.08,3.0,6395.0,0.0,0.0,134.8
2025-08-15T01:00:11.274Z,16,GR86-015-31,-22.8,0.127,-0.8180000000000001,100.07,3.0,,0.0,0.0,
2025-08-15T01:00:11.318Z,16,GR86-015-31,-20.4,0.264,-1.014,100.04,3.0,,0.0,0.0,
2025-08-15T01:00:11.360Z,16,GR86-015-31,-16.8,0.274,-1.083,100.05,3.0,,0.0,0.0,
2025-08-15T01:00:11.404Z,16,GR86-015-31,-13.8,0.241,-1.078,100.07,3.0,6532.0,0.0,0.0,
2025-08-15T01:00:11.446Z,16,GR86-015-31,-13.2,0.204,-1.11,100.08,3.0,,0.0,0.0,136.04
2025-08-15T01:00:11.489Z,16,GR86-015-31,-14.6,0.219,-1.257,100.05,3.0,,0.0,0.0,
2025-08-15T01:00:11.532Z,16,GR86-015-31,-23.5,0.294,-1.24,100.08,3.0,,0.0,0.0,
2025-08-15T01:00:11.575Z,16,GR86-015-31,-38.2,0.195,-1.32,100.08,3.0,,0.0,0.0,
2025-08-15T01:00:11.661Z,16,GR86-015-31,-44.0,0.198,-1.081,100.07,3.0,6514.0,0.0,0.0,137.74
2025-08-15T01:00:11.705Z,16,GR86-015-31,-42.5,0.213,-0.943,100.02,3.0,,0.0,0.0,
2025-08-15T01:00:11.747Z,16,GR86-015-31,-38.0,0.178,-0.93,100.05,3.0,,0.0,0.0,
2025-08-15T01:00:11.790Z,16,GR86-015-31,-34.2,0.255,-0.974,100.05,3.0,,0.0,0.0,
2025-08-15T01:00:11.834Z,16,GR86-015-31,-30.200000000000003,0.266,-0.964,100.03,3.0,6591.0,0.0,0.0,
2025-08-15T01:00:11.876Z,16,GR86-015-31,-28.3,0.175,-0.943,100.05,3.0,,0.0,0.0,137.33
2025-08-15T01:00:11.919Z,16,GR86-015-31,-27.0,0.145,-1.053,100.04,3.0,,0.0,0.0,
2025-08-15T01:00:11.962Z,16,GR86-015-31,-26.700000000000003,0.264,-1.067,100.02,3.0,,0.0,0.0,
2025-08-15T01:00:12.005Z,16,GR86-015-31,-26.8,0.289,-0.929,100.07,3.0,,0.0,0.0,
2025-08-15T01:00:12.091Z,16,GR86-015-31,-26.8,0.235,-0.888,100.04,3.0,6615.0,0.0,0.0,138.92000000000002
2025-08-15T01:00:12.135Z,16,GR86-015-31,-26.8,0.22,-0.789,100.04,3.0,,0.0,0.0,
2025-08-15T01:00:12.177Z,16,GR86-015-31,-26.0,0.224,-0.66,100.03,3.0,,0.0,0.0,
2025-08-15T01:00:12.220Z,16,GR86-015-31,-24.9,0.174,-0.724,100.04,3.0,,0.0,0.0,
2025-08-15T01:00:12.264Z,16,GR86-015-31,-24.6,0.237,-0.607,100.02,3.0,6648.0,0.0,0.0,
2025-08-15T01:00:12.306Z,16,GR86-015-31,-24.5,0.279,-0.64,100.02,3.0,,0.0,0.0,140.25
2025-08-15T01:00:12.349Z,16,GR86-015-31,-22.700000000000003,0.193,-0.73,100.02,3.0,,0.0,0.0,
2025-08-15T01:00:12.392Z,16,GR86-015-31,-17.3,0.135,-0.669,100.03,3.0,,0.0,0.0,
2025-08-15T01:00:12.435Z,16,GR86-015-31,-8.1,0.207,-0.719,100.03,3.0,,0.0,0.0,
2025-08-15T01:00:12.478Z,16,GR86-015-31,-5.4,0.259,-0.555,100.03,3.0,6680.0,0.0,0.0,
2025-08-15T01:00:12.521Z,16,GR86-015-31,-5.4,0.204,-0.378,100.03,3.0,,0.0,0.0,141.65
2025-08-15T01:00:12.565Z,16,GR86-015-31,-7.4,0.199,-0.464,100.03,3.0,,0.0,0.0,
2025-08-15T01:00:12.607Z,16,GR86-015-31,-9.8,0.22,-0.429,100.02,3.0,,0.0,0.0,
2025-08-15T01:00:12.651Z,16,GR86-015-31,-11.3,0.208,-0.313,100.01,3.0,,0.0,0.0,
2025-08-15T01:00:12.695Z,16,GR86-015-31,-12.8,0.221,-0.29,100.02,3.0,6741.0,0.0,0.0,
2025-08-15T01:00:12.738Z,16,GR86-015-31,-14.3,0.197,-0.105,100.02,3.0,,0.0,0.0,143.16
2025-08-15T01:00:12.781Z,16,GR86-015-31,-14.6,0.007,-0.241,100.02,3.0,,0.0,0.0,
2025-08-15T01:00:12.825Z,16,GR86-015-31,-13.7,0.205,-0.32,100.02,3.0,,0.0,0.0,
2025-08-15T01:00:12.868Z,16,GR86-015-31,-10.6,0.354,-0.357,100.01,3.0,,0.0,0.0,
2025-08-15T01:00:12.910Z,16,GR86-015-31,-7.9,0.411,-0.4,99.99,3.0,6835.0,0.0,0.0,
2025-08-15T01:00:12.954Z,16,GR86-015-31,-7.5,0.154,-0.411,100.02,3.0,,0.0,0.0,144.25
2025-08-15T01:00:12.996Z,16,GR86-015-31,-7.9,0.163,-0.538,100.03,3.0,,0.0,0.0,
2025-08-15T01:00:13.039Z,16,GR86-015-31,-8.5,0.201,-0.308,99.99,3.0,,0.0,0.0,
2025-08-15T01:00:13.082Z,16,GR86-015-31,-8.700000000000001,0.16,-0.239,100.03,3.0,,0.0,0.0,
2025-08-15T01:00:13.125Z,16,GR86-015-31,-8.6,0.22,-0.131,100.02,3.0,6810.0,0.0,0.0,
2025-08-15T01:00:13.170Z,16,GR86-015-31,-7.9,0.232,-0.207,99.99,3.0,,0.0,0.0,145.91
2025-08-15T01:00:13.214Z,16,GR86-015-31,-5.300000000000001,0.268,-0.067,99.99,3.0,,0.0,0.0,
2025-08-15T01:00:13.256Z,16,GR86-015-31,-2.7,0.15,-0.127,99.99,3.0,,0.0,0.0,
2025-08-15T01:00:13.299Z,16,GR86-015-31,-0.2,0.203,-0.061,100.05,3.0,,0.0,0.0,
2025-08-15T01:00:13.342Z,16,GR86-015-31,1.2000000000000002,0.304,-0.106,99.98,3.0,7001.0,0.0,0.0,
2025-08-15T01:00:13.386Z,16,GR86-015-31,2.2,0.29,-0.092,100.0,3.0,,0.0,0.0,147.51
2025-08-15T01:00:13.428Z,16,GR86-015-31,2.7,0.163,0.033,100.04,3.0,,0.0,0.0,
2025-08-15T01:00:13.471Z,16,GR86-015-31,3.5,0.279,0.104,100.01,3.0,,0.0,0.0,
2025-08-15T01:00:13.515Z,16,GR86-015-31,5.2,0.377,0.159,100.01,3.0,,0.0,0.0,
2025-08-15T01:00:13.557Z,16,GR86-015-31,5.4,0.209,0.198,99.99,3.0,7036.0,0.0,0.0,
2025-08-15T01:00:13.600Z,16,GR86-015-31,5.4,0.229,0.229,99.99,3.0,,0.0,0.0,150.25
2025-08-15T01:00:13.644Z,16,GR86-015-31,5.300000000000001,0.153,0.225,100.04,3.0,,0.0,0.0,
2025-08-15T01:00:13.686Z,16,GR86-015-31,5.300000000000001,0.204,0.263,99.98,3.0,,0.0,0.0,
2025-08-15T01:00:13.729Z,16,GR86-015-31,5.4,0.232,0.241,99.99,3.0,,0.0,0.0,
2025-08-15T01:00:13.772Z,16,GR86-015-31,5.4,0.227,0.235,100.0,3.0,7061.0,0.0,0.0,
2025-08-15T01:00:13.815Z,16,GR86-015-31,5.5,0.21,0.253,99.99,3.0,,0.0,0.0,152.03
2025-08-15T01:00:13.858Z,16,GR86-015-31,5.6000000000000005,0.221,0.245,100.0,3.0,,0.0,0.0,
2025-08-15T01:00:13.902Z,16,GR86-015-31,5.800000000000001,0.231,0.229,99.99,3.0,,0.0,0.0,
2025-08-15T01:00:13.945Z,16,GR86-015-31,6.300000000000001,0.202,0.222,100.01,3.0,,0.0,0.0,
2025-08-15T01:00:13.987Z,16,GR86-015-31,7.4,0.199,0.236,99.98,3.0,7151.0,0.0,0.0,
2025-08-15T01:00:14.030Z,16,GR86-015-31,8.5,0.2,0.26,100.01,3.0,,0.0,0.0,153.57
2025-08-15T01:00:14.074Z,16,GR86-015-31,10.2,0.122,0.263,99.99,3.0,,0.0,0.0,
2025-08-15T01:00:14.118Z,16,GR86-015-31,10.4,-0.15,0.322,100.0,4.0,,0.0,0.0,
2025-08-15T01:00:14.160Z,16,GR86-015-31,10.7,0.356,0.327,100.0,4.0,,0.0,0.0,
2025-08-15T01:00:14.204Z,16,GR86-015-31,11.5,0.305,0.276,100.0,4.0,6600.0,0.0,0.0,
2025-08-15T01:00:14.248Z,16,GR86-015-31,11.9,0.269,0.349,100.0,4.0,,0.0,0.0,154.96
2025-08-15T01:00:14.291Z,16,GR86-015-31,12.0,0.092,0.464,99.98,4.0,,0.0,0.0,
2025-08-15T01:00:14.335Z,16,GR86-015-31,12.0,0.146,0.483,99.98,4.0,,0.0,0.0,
2025-08-15T01:00:14.378Z,16,GR86-015-31,12.0,0.194,0.58,100.0,4.0,,0.0,0.0,
2025-08-15T01:00:14.421Z,16,GR86-015-31,12.4,0.203,0.541,99.99,4.0,6240.0,0.0,0.0,
2025-08-15T01:00:14.465Z,16,GR86-015-31,12.5,0.175,0.531,99.99,4.0,,0.0,0.0,156.47
2025-08-15T01:00:14.507Z,16,GR86-015-31,12.4,0.189,0.513,100.0,4.0,,0.0,0.0,
2025-08-15T01:00:14.551Z,16,GR86-015-31,11.5,0.195,0.5,100.02,4.0,,0.0,0.0,
2025-08-15T01:00:14.595Z,16,GR86-015-31,7.7,0.193,0.496,99.99,4.0,,0.0,0.0,
2025-08-15T01:00:14.638Z,16,GR86-015-31,4.800000000000001,0.218,0.434,100.01,4.0,6274.0,0.0,0.0,
2025-08-15T01:00:14.681Z,16,GR86-015-31,3.6,0.199,0.371,99.98,4.0,,0.0,0.0,158.07
2025-08-15T01:00:14.725Z,16,GR86-015-31,3.5,0.205,0.328,100.01,4.0,,0.0,0.0,
2025-08-15T01:00:14.768Z,16,GR86-015-31,3.5,0.176,0.278,99.99,4.0,,0.0,0.0,
2025-08-15T01:00:14.811Z,16,GR86-015-31,3.3000000000000003,0.17,0.21,100.02,4.0,,0.0,0.0,
2025-08-15T01:00:14.854Z,16,GR86-015-31,2.2,0.204,0.089,99.98,4.0,6306.0,0.0,0.0,
2025-08-15T01:00:14.897Z,16,GR86-015-31,1.7000000000000002,0.21,0.053,100.01,4.0,,0.0,0.0,159.78
2025-08-15T01:00:14.940Z,16,GR86-015-31,1.6,0.176,0.026,99.99,4.0,,0.0,0.0,
2025-08-15T01:00:14.984Z,16,GR86-015-31,1.6,0.165,0.008,99.99,4.0,,0.0,0.0,
2025-08-15T01:00:15.026Z,16,GR86-015-31,1.6,0.166,0.017,99.99,4.0,,0.0,0.0,
2025-08-15T01:00:15.069Z,16,GR86-015-31,1.6,0.154,0.013,100.0,4.0,6367.0,0.0,0.0,
2025-08-15T01:00:15.112Z,16,GR86-015-31,1.6,0.17,0.005,100.01,4.0,,0.0,0.0,161.23
2025-08-15T01:00:15.155Z,16,GR86-015-31,1.6,0.175,0.009,100.02,4.0,,0.0,0.0,
2025-08-15T01:00:15.198Z,16,GR86-015-31,1.6,0.134,0.024,100.02,4.0,,0.0,0.0,
2025-08-15T01:00:15.241Z,16,GR86-015-31,1.6,0.157,0.042,99.99,4.0,,0.0,0.0,
2025-08-15T01:00:15.285Z,16,GR86-015-31,1.6,0.135,0.053,99.99,4.0,6421.0,0.0,0.0,
2025-08-15T01:00:15.328Z,16,GR86-015-31,1.6,0.192,0.045,100.03,4.0,,0.0,0.0,162.81
2025-08-15T01:00:15.370Z,16,GR86-015-31,1.6,0.199,0.045,99.98,4.0,,0.0,0.0,
2025-08-15T01:00:15.414Z,16,GR86-015-31,2.3000000000000003,0.135,0.037,100.02,4.0,,0.0,0.0,
2025-08-15T01:00:15.457Z,16,GR86-015-31,3.1,0.155,0.074,99.99,4.0,,0.0,0.0,
2025-08-15T01:00:15.501Z,16,GR86-015-31,3.7,0.162,0.093,99.99,4.0,6489.0,0.0,0.0,
2025-08-15T01:00:15.545Z,16,GR86-015-31,3.9,0.159,0.126,100.0,4.0,,0.0,0.0,164.36
2025-08-15T01:00:15.588Z,16,GR86-015-31,3.9,0.174,0.151,100.0,4.0,,0.0,0.0,
2025-08-15T01:00:15.630Z,16,GR86-015-31,3.8,0.185,0.14,100.03,4.0,,0.0,0.0,
2025-08-15T01:00:15.674Z,16,GR86-015-31,1.2000000000000002,0.144,0.149,99.99,4.0,,0.0,0.0,
2025-08-15T01:00:15.716Z,16,GR86-015-31,-0.3,0.163,0.126,100.0,4.0,6538.0,0.0,0.0,
2025-08-15T01:00:15.760Z,16,GR86-015-31,-1.4,0.16,0.101,100.01,4.0,,0.0,0.0,166.07
2025-08-15T01:00:15.804Z,16,GR86-015-31,-1.7000000000000002,0.159,0.064,99.99,4.0,,0.0,0.0,
2025-08-15T01:00:15.846Z,16,GR86-015-31,-2.0,0.179,0.012,99.99,4.0,,0.0,0.0,
2025-08-15T01:00:15.889Z,16,GR86-015-31,-4.0,0.18,-0.043,99.99,4.0,,0.0,0.0,
2025-08-15T01:00:16.018Z,16,GR86-015-31,-5.7,0.148,-0.205,99.99,4.0,,0.0,0.0,
2025-08-15T01:00:16.105Z,16,GR86-015-31,-7.0,0.156,-0.234,100.0,4.0,,0.0,0.0,
2025-08-15T01:00:16.190Z,16,GR86-015-31,-5.800000000000001,0.153,-0.217,99.99,4.0,6657.0,0.0,0.0,167.66
2025-08-15T01:00:16.234Z,16,GR86-015-31,-3.7,0.143,-0.223,100.02,4.0,,0.0,0.0,
2025-08-15T01:00:16.276Z,16,GR86-015-31,-2.6,0.158,-0.179,100.0,4.0,,0.0,0.0,
2025-08-15T01:00:16.319Z,16,GR86-015-31,-2.6,0.148,-0.164,99.99,4.0,,0.0,0.0,
2025-08-15T01:00:16.364Z,16,GR86-015-31,-4.3,0.153,-0.153,100.0,4.0,6721.0,0.0,0.0,
2025-08-15T01:00:16.406Z,16,GR86-015-31,-5.0,0.147,-0.163,99.99,4.0,,0.0,0.0,172.04
2025-08-15T01:00:16.449Z,16,GR86-015-31,-4.9,0.145,-0.156,100.0,4.0,,0.0,0.0,
2025-08-15T01:00:16.492Z,16,GR86-015-31,-4.7,0.156,-0.112,100.02,4.0,,0.0,0.0,
2025-08-15T01:00:16.535Z,16,GR86-015-31,-5.9,0.186,-0.119,99.99,4.0,,0.0,0.0,
2025-08-15T01:00:16.578Z,16,GR86-015-31,-10.0,0.159,-0.173,100.01,4.0,6770.0,0.0,0.0,
2025-08-15T01:00:16.621Z,16,GR86-015-31,-10.7,0.161,-0.246,100.02,4.0,,0.0,0.0,173.41
2025-08-15T01:00:16.665Z,16,GR86-015-31,-10.0,0.157,-0.276,99.99,4.0,,0.0,0.0,
2025-08-15T01:00:16.707Z,16,GR86-015-31,-8.700000000000001,0.162,-0.287,99.99,4.0,,0.0,0.0,
2025-08-15T01:00:16.751Z,16,GR86-015-31,-8.700000000000001,0.147,-0.288,99.98,4.0,,0.0,0.0,
2025-08-15T01:00:16.795Z,16,GR86-015-31,-12.0,0.167,-0.347,56.19,4.0,6877.0,0.0,0.0,
2025-08-15T01:00:16.838Z,16,GR86-015-31,-12.0,0.165,-0.404,32.410000000000004,4.0,,2.365,2.305,174.88
2025-08-15T01:00:16.881Z,16,GR86-015-31,-10.4,0.137,-0.409,26.91,4.0,,4.24,4.3950000000000005,
2025-08-15T01:00:16.925Z,16,GR86-015-31,-6.6000000000000005,0.043,-0.379,26.73,4.0,,7.555,7.525,
2025-08-15T01:00:16.968Z,16,GR86-015-31,-6.2,-0.06,-0.338,27.22,4.0,,10.865,11.035,
2025-08-15T01:00:17.010Z,16,GR86-015-31,-6.2,-0.118,-0.333,28.14,4.0,6854.0,11.37,11.87,
2025-08-15T01:00:17.055Z,16,GR86-015-31,-6.2,-0.135,-0.318,28.2,4.0,,10.985,11.49,176.07
2025-08-15T01:00:17.098Z,16,GR86-015-31,-5.9,-0.121,-0.282,28.3,4.0,,10.955,11.4,
2025-08-15T01:00:17.141Z,16,GR86-015-31,-5.9,-0.132,-0.229,28.02,4.0,,10.955,11.46,
2025-08-15T01:00:17.186Z,16,GR86-015-31,-7.0,-0.131,-0.244,26.83,4.0,,11.31,11.735,
2025-08-15T01:00:17.228Z,16,GR86-015-31,-8.9,-0.144,-0.283,27.0,4.0,6850.0,11.645,11.965,
2025-08-15T01:00:17.271Z,16,GR86-015-31,-10.2,-0.135,-0.294,26.23,4.0,,11.645,11.965,175.77
2025-08-15T01:00:17.315Z,16,GR86-015-31,-13.7,-0.159,-0.343,5.0,4.0,,13.245,13.305,
2025-08-15T01:00:17.357Z,16,GR86-015-31,-14.7,-0.202,-0.414,4.0,4.0,,15.245,15.305,
2025-08-15T01:00:17.401Z,16,GR86-015-31,-13.9,-0.369,-0.444,3.9,4.0,,16.62,16.8,
2025-08-15T01:00:17.445Z,16,GR86-015-31,-10.6,-0.316,-0.464,3.86,4.0,6773.0,17.03,17.185,
2025-08-15T01:00:17.488Z,16,GR86-015-31,-7.9,-0.555,-0.446,3.78,4.0,,17.365000000000002,17.61,175.08
2025-08-15T01:00:17.530Z,16,GR86-015-31,-7.7,-0.449,-0.415,3.4,4.0,,19.365,19.425,
2025-08-15T01:00:17.574Z,16,GR86-015-31,-8.3,-0.393,-0.501,2.84,4.0,,20.355,20.66,
2025-08-15T01:00:17.618Z,16,GR86-015-31,-8.200000000000001,-0.424,-0.481,2.72,4.0,,19.96,20.325,
2025-08-15T01:00:17.660Z,16,GR86-015-31,-6.300000000000001,-0.458,-0.481,2.68,4.0,6653.0,18.085,19.045,
2025-08-15T01:00:17.704Z,16,GR86-015-31,-2.2,-0.427,-0.469,2.88,4.0,,15.595,16.555,173.16
2025-08-15T01:00:17.746Z,16,GR86-015-31,-0.3,-0.41,-0.382,3.11,4.0,,14.45,15.365,
2025-08-15T01:00:17.789Z,16,GR86-015-31,-0.1,-0.418,-0.342,3.11,4.0,,14.545,15.305,
2025-08-15T01:00:17.832Z,16,GR86-015-31,-0.2,-0.416,-0.288,3.14,4.0,,15.505,16.025,
2025-08-15T01:00:17.875Z,16,GR86-015-31,-4.5,-0.43,-0.281,2.79,4.0,6511.0,21.99,22.065,
2025-08-15T01:00:17.918Z,16,GR86-015-31,-5.9,-0.558,-0.232,2.73,4.0,,35.83,35.800000000000004,170.06
2025-08-15T01:00:17.961Z,16,GR86-015-31,-6.800000000000001,-0.836,-0.228,2.69,4.0,,50.585,50.495000000000005,
2025-08-15T01:00:18.005Z,16,GR86-015-31,-7.0,-0.997,-0.195,2.65,4.0,,62.81,62.43,
2025-08-15T01:00:18.047Z,16,GR86-015-31,-6.9,-1.159,-0.191,2.63,4.0,,73.11,72.605,
2025-08-15T01:00:18.090Z,16,GR86-015-31,-6.7,-1.244,-0.193,6.94,4.0,6397.0,80.77,80.345,
2025-08-15T01:00:18.134Z,16,GR86-015-31,-6.2,-1.3,-0.166,71.55,4.0,,88.645,89.83500000000001,167.47
2025-08-15T01:00:18.176Z,16,GR86-015-31,-6.2,-1.41,-0.203,99.93,4.0,,91.345,92.005,
2025-08-15T01:00:18.219Z,16,GR86-015-31,-5.1000000000000005,-1.321,-0.227,64.99,3.0,,92.035,93.5,
2025-08-15T01:00:18.264Z,16,GR86-015-31,-4.6000000000000005,-1.353,-0.278,3.81,3.0,,85.87,88.02,
2025-08-15T01:00:18.306Z,16,GR86-015-31,-4.6000000000000005,-1.281,-0.234,2.91,3.0,5666.0,76.59,78.545,
2025-08-15T01:00:18.349Z,16,GR86-015-31,-4.4,-1.152,-0.402,2.71,3.0,,67.755,67.815,159.08
2025-08-15T01:00:18.392Z,16,GR86-015-31,-0.5,-1.106,-0.331,2.63,3.0,,62.505,63.835,
2025-08-15T01:00:18.478Z,16,GR86-015-31,4.3,-0.912,-0.462,2.6,3.0,,53.18,53.455,
2025-08-15T01:00:18.521Z,16,GR86-015-31,5.7,-0.949,-0.183,2.6,3.0,6443.0,54.585,56.035,
2025-08-15T01:00:18.565Z,16,GR86-015-31,5.9,-0.953,-0.385,2.59,3.0,,58.28,59.15,150.99
2025-08-15T01:00:18.607Z,16,GR86-015-31,2.9000000000000004,-0.877,-0.369,2.56,3.0,,59.805,60.795,
2025-08-15T01:00:18.695Z,16,GR86-015-31,-2.0,-1.05,-0.285,2.56,3.0,,60.2,60.98,
2025-08-15T01:00:18.738Z,16,GR86-015-31,-12.2,-1.026,-0.235,2.54,3.0,6305.0,69.615,70.685,
2025-08-15T01:00:18.781Z,16,GR86-015-31,-14.0,-1.075,-0.32,8.3,3.0,,70.0,71.615,144.76
2025-08-15T01:00:18.825Z,16,GR86-015-31,-13.6,-1.165,-0.243,52.43,2.0,,70.0,71.705,
2025-08-15T01:00:18.868Z,16,GR86-015-31,-11.1,-1.194,-0.229,26.73,2.0,,70.0,71.92,
2025-08-15T01:00:18.910Z,16,GR86-015-31,-9.5,-1.151,-0.21,4.51,2.0,,69.615,71.615,
2025-08-15T01:00:18.954Z,16,GR86-015-31,-8.5,-1.116,-0.34,3.76,2.0,6057.0,56.69,57.5,
2025-08-15T01:00:18.996Z,16,GR86-015-31,-8.200000000000001,-1.088,-0.316,3.39,2.0,,45.49,46.495,130.46
2025-08-15T01:00:19.082Z,16,GR86-015-31,-4.9,-0.742,-0.7010000000000001,2.9,2.0,,40.09,41.05,
2025-08-15T01:00:19.125Z,16,GR86-015-31,-2.5,-1.133,-0.397,3.04,2.0,,42.24,43.23,
2025-08-15T01:00:19.168Z,16,GR86-015-31,2.2,-0.945,-0.403,2.81,2.0,5998.0,43.325,44.5,
2025-08-15T01:00:19.212Z,16,GR86-015-31,4.4,-0.981,-0.726,2.73,2.0,,42.36,43.645,124.82
2025-08-15T01:00:19.255Z,16,GR86-015-31,8.3,-0.787,-0.281,2.85,2.0,,33.025,33.525,
2025-08-15T01:00:19.298Z,16,GR86-015-31,7.9,-0.672,-0.485,2.73,2.0,,25.895,26.72,
2025-08-15T01:00:19.341Z,16,GR86-015-31,-3.6,-0.601,-0.44,2.7,2.0,,21.03,21.87,
2025-08-15T01:00:19.385Z,16,GR86-015-31,-20.200000000000003,-0.548,-0.345,2.7,2.0,6641.0,20.875,21.5,
2025-08-15T01:00:19.428Z,16,GR86-015-31,-36.7,-0.619,-0.623,2.66,2.0,,22.16,22.585,118.51
2025-08-15T01:00:19.470Z,16,GR86-015-31,-49.400000000000006,-0.641,-0.56,2.63,2.0,,24.675,25.12,
2025-08-15T01:00:19.514Z,16,GR86-015-31,-50.3,-0.7020000000000001,-0.744,2.62,2.0,,29.925,30.4,
2025-08-15T01:00:19.556Z,16,GR86-015-31,-45.3,-0.6980000000000001,-0.751,2.58,2.0,,31.205,31.74,
2025-08-15T01:00:19.599Z,16,GR86-015-31,-34.4,-0.7030000000000001,-0.678,2.62,2.0,6291.0,31.175,31.865,
2025-08-15T01:00:19.642Z,16,GR86-015-31,-25.5,-0.744,-0.722,2.69,2.0,,27.97,29.025,113.89
2025-08-15T01:00:19.685Z,16,GR86-015-31,-24.200000000000003,-0.685,-0.668,2.77,2.0,,22.4,23.3,
2025-08-15T01:00:19.728Z,16,GR86-015-31,-27.8,-0.587,-0.812,2.77,2.0,,17.78,18.325,
2025-08-15T01:00:19.771Z,16,GR86-015-31,-40.1,-0.477,-0.874,2.77,2.0,,15.0,15.84,
2025-08-15T01:00:19.815Z,16,GR86-015-31,-51.7,-0.444,-1.005,2.75,2.0,6002.0,12.65,13.305,
2025-08-15T01:00:19.858Z,16,GR86-015-31,-57.2,-0.439,-1.059,2.71,2.0,,11.185,11.78,110.28
2025-08-15T01:00:19.901Z,16,GR86-015-31,-58.0,-0.378,-1.072,2.72,2.0,,10.985,11.615,
2025-08-15T01:00:19.945Z,16,GR86-015-31,-57.7,-0.45,-1.145,3.59,2.0,,10.715,11.245,
2025-08-15T01:00:19.987Z,16,GR86-015-31,-58.900000000000006,-0.392,-1.092,3.75,2.0,,7.95,8.67,
2025-08-15T01:00:20.030Z,16,GR86-015-31,-66.4,-0.307,-1.19,3.74,2.0,5853.0,7.4,7.95,
2025-08-15T01:00:20.074Z,16,GR86-015-31,-75.9,-0.38,-1.226,3.73,2.0,,8.76,8.94,106.81
2025-08-15T01:00:20.118Z,16,GR86-015-31,-75.7,-0.349,-1.234,4.37,2.0,,7.86,8.485,
2025-08-15T01:00:20.160Z,16,GR86-015-31,-68.8,-0.303,-1.262,6.97,2.0,,1.985,2.305,
2025-08-15T01:00:20.204Z,16,GR86-015-31,-62.5,-0.183,-1.272,7.44,2.0,,0.0,0.0,
2025-08-15T01:00:20.248Z,16,GR86-015-31,-61.8,-0.173,-1.295,19.03,2.0,5709.0,0.0,0.0,
2025-08-15T01:00:20.291Z,16,GR86-015-31,-61.8,-0.163,-1.313,21.85,2.0,,0.0,0.0,104.28
2025-08-15T01:00:20.335Z,16,GR86-015-31,-60.7,-0.086,-1.224,25.15,2.0,,0.0,0.0,
2025-08-15T01:00:20.378Z,16,GR86-015-31,-60.7,-0.075,-1.361,27.64,2.0,,0.0,0.0,
2025-08-15T01:00:20.421Z,16,GR86-015-31,-63.7,-0.076,-1.289,30.04,2.0,,0.0,0.0,
2025-08-15T01:00:20.465Z,16,GR86-015-31,-68.60000000000001,-0.016,-1.362,29.2,2.0,5723.0,0.0,0.0,
2025-08-15T01:00:20.551Z,16,GR86-015-31,-73.2,0.226,-1.331,20.52,2.0,,0.0,0.0,102.73
2025-08-15T01:00:20.595Z,16,GR86-015-31,-75.0,0.122,-1.244,18.63,2.0,,0.0,0.0,
2025-08-15T01:00:20.638Z,16,GR86-015-31,-76.2,0.039,-1.26,18.72,2.0,,0.0,0.0,
2025-08-15T01:00:20.725Z,16,GR86-015-31,-77.0,-0.013,-1.221,19.51,2.0,5856.0,0.0,0.0,101.56
2025-08-15T01:00:20.768Z,16,GR86-015-31,-77.4,0.006,-1.208,19.94,2.0,,0.0,0.0,
2025-08-15T01:00:20.810Z,16,GR86-015-31,-78.10000000000001,0.031,-1.17,20.14,2.0,,0.0,0.0,
2025-08-15T01:00:20.854Z,16,GR86-015-31,-78.9,0.041,-1.102,19.59,2.0,,0.0,0.0,
2025-08-15T01:00:20.897Z,16,GR86-015-31,-79.2,-0.004,-1.11,19.72,2.0,5778.0,0.0,0.0,
2025-08-15T01:00:20.940Z,16,GR86-015-31,-79.60000000000001,0.022,-1.119,19.21,2.0,,0.0,0.0,101.13
2025-08-15T01:00:20.984Z,16,GR86-015-31,-79.80000000000001,0.046,-1.162,12.64,2.0,,0.0,0.0,
2025-08-15T01:00:21.026Z,16,GR86-015-31,-80.10000000000001,0.046,-1.062,8.17,2.0,,0.0,0.0,
2025-08-15T01:00:21.069Z,16,GR86-015-31,-80.4,-0.04,-1.194,6.69,2.0,,0.0,0.0,
2025-08-15T01:00:21.112Z,16,GR86-015-31,-80.4,-0.044,-1.099,7.23,2.0,5773.0,0.0,0.0,
2025-08-15T01:00:21.155Z,16,GR86-015-31,-80.5,-0.084,-1.171,27.0,2.0,,0.0,0.0,101.02
2025-08-15T01:00:21.198Z,16,GR86-015-31,-80.4,-0.096,-1.126,56.84,2.0,,0.0,0.0,
2025-08-15T01:00:21.241Z,16,GR86-015-31,-78.80000000000001,-0.073,-1.165,97.55,2.0,,0.0,0.0,
2025-08-15T01:00:21.285Z,16,GR86-015-31,-68.2,-0.083,-1.07,99.97,2.0,,0.0,0.0,
2025-08-15T01:00:21.328Z,16,GR86-015-31,-62.5,-0.056,-1.245,100.04,2.0,5624.0,0.0,0.0,
2025-08-15T01:00:21.370Z,16,GR86-015-31,-60.8,0.342,-0.964,100.05,2.0,,0.0,0.0,100.92
2025-08-15T01:00:21.414Z,16,GR86-015-31,-60.400000000000006,0.375,-1.106,100.04,2.0,,0.0,0.0,
2025-08-15T01:00:21.456Z,16,GR86-015-31,-58.6,0.352,-0.972,100.03,2.0,,0.0,0.0,
2025-08-15T01:00:21.499Z,16,GR86-015-31,-58.2,0.205,-1.113,100.04,2.0,,0.0,0.0,
2025-08-15T01:00:21.542Z,16,GR86-015-31,-58.3,0.23,-1.12,100.05,2.0,6126.0,0.0,0.0,
2025-08-15T01:00:21.586Z,16,GR86-015-31,-60.3,0.235,-1.173,100.04,2.0,,0.0,0.0,100.44
2025-08-15T01:00:21.628Z,16,GR86-015-31,-61.1,0.274,-1.149,100.03,2.0,,0.0,0.0,
2025-08-15T01:00:21.671Z,16,GR86-015-31,-61.1,0.294,-1.151,100.04,2.0,,0.0,0.0,
2025-08-15T01:00:21.715Z,16,GR86-015-31,-58.6,0.271,-1.074,100.03,2.0,,0.0,0.0,
2025-08-15T01:00:21.758Z,16,GR86-015-31,-51.3,0.267,-1.065,100.02,2.0,5957.0,0.0,0.0,
2025-08-15T01:00:21.801Z,16,GR86-015-31,-46.400000000000006,0.274,-1.01,100.05,2.0,,0.0,0.0,102.34
2025-08-15T01:00:21.845Z,16,GR86-015-31,-45.3,0.275,-1.001,100.05,2.0,,0.0,0.0,
2025-08-15T01:00:21.974Z,16,GR86-015-31,-61.3,0.289,-1.123,100.05,2.0,6036.0,0.0,0.0,
2025-08-15T01:00:22.016Z,16,GR86-015-31,-62.1,0.28,-1.076,100.02,2.0,,0.0,0.0,103.64
2025-08-15T01:00:22.061Z,16,GR86-015-31,-62.1,0.28,-1.065,100.03,2.0,,0.0,0.0,
2025-08-15T01:00:22.104Z,16,GR86-015-31,-60.5,0.272,-1.024,100.04,2.0,,0.0,0.0,
2025-08-15T01:00:22.146Z,16,GR86-015-31,-57.900000000000006,0.24,-1.107,100.02,2.0,,0.0,0.0,
2025-08-15T01:00:22.189Z,16,GR86-015-31,-56.0,0.264,-1.074,100.02,2.0,6133.0,0.0,0.0,
2025-08-15T01:00:22.234Z,16,GR86-015-31,-55.7,0.276,-1.141,100.03,2.0,,0.0,0.0,105.08
2025-08-15T01:00:22.276Z,16,GR86-015-31,-55.7,0.27,-1.196,100.03,2.0,,0.0,0.0,
2025-08-15T01:00:22.362Z,16,GR86-015-31,-57.6,0.24,-1.186,100.05,2.0,,0.0,0.0,
2025-08-15T01:00:22.405Z,16,GR86-015-31,-59.0,0.302,-1.077,100.03,2.0,6266.0,0.0,0.0,
2025-08-15T01:00:22.448Z,16,GR86-015-31,-60.400000000000006,0.267,-1.031,100.03,2.0,,0.0,0.0,106.92
2025-08-15T01:00:22.491Z,16,GR86-015-31,-61.400000000000006,0.229,-1.082,100.04,2.0,,0.0,0.0,
2025-08-15T01:00:22.535Z,16,GR86-015-31,-63.5,0.24,-1.074,100.05,2.0,,0.0,0.0,
2025-08-15T01:00:22.578Z,16,GR86-015-31,-64.5,0.254,-1.103,100.02,2.0,,0.0,0.0,
2025-08-15T01:00:22.621Z,16,GR86-015-31,-64.60000000000001,0.232,-1.108,100.04,2.0,6370.0,0.0,0.0,
2025-08-15T01:00:22.665Z,16,GR86-015-31,-62.7,0.308,-1.01,100.02,2.0,,0.0,0.0,108.17
2025-08-15T01:00:22.707Z,16,GR86-015-31,-56.0,0.218,-1.139,100.02,2.0,,0.0,0.0,
2025-08-15T01:00:22.751Z,16,GR86-015-31,-41.7,0.246,-1.09,100.02,2.0,,0.0,0.0,
2025-08-15T01:00:22.795Z,16,GR86-015-31,-16.8,0.31,-1.006,100.02,2.0,,0.0,0.0,
2025-08-15T01:00:22.838Z,16,GR86-015-31,-6.9,0.289,-0.992,100.02,2.0,6479.0,0.0,0.0,
2025-08-15T01:00:22.881Z,16,GR86-015-31,-5.6000000000000005,0.288,-0.846,100.03,2.0,,0.0,0.0,109.64
2025-08-15T01:00:22.925Z,16,GR86-015-31,-9.0,0.302,-0.913,100.05,2.0,,0.0,0.0,
2025-08-15T01:00:22.968Z,16,GR86-015-31,-10.8,0.311,-0.942,100.02,2.0,,0.0,0.0,
2025-08-15T01:00:23.010Z,16,GR86-015-31,-10.9,0.303,-0.918,100.03,2.0,,0.0,0.0,
2025-08-15T01:00:23.055Z,16,GR86-015-31,-27.9,0.33,-0.901,100.07,2.0,6550.0,0.0,0.0,
2025-08-15T01:00:23.098Z,16,GR86-015-31,-48.7,0.32,-0.979,100.06,2.0,,0.0,0.0,111.37
2025-08-15T01:00:23.141Z,16,GR86-015-31,-62.3,0.275,-0.996,100.06,2.0,,0.0,0.0,
2025-08-15T01:00:23.185Z,16,GR86-015-31,-64.8,0.265,-1.006,100.02,2.0,,0.0,0.0,
2025-08-15T01:00:23.228Z,16,GR86-015-31,-63.7,0.242,-0.996,100.03,2.0,,0.0,0.0,
2025-08-15T01:00:23.271Z,16,GR86-015-31,-62.5,0.239,-0.934,100.01,2.0,6545.0,0.0,0.0,
2025-08-15T01:00:23.315Z,16,GR86-015-31,-62.2,0.238,-1.004,100.02,2.0,,0.0,0.0,111.93
2025-08-15T01:00:23.357Z,16,GR86-015-31,-58.3,0.248,-0.992,100.01,2.0,,0.0,0.0,
2025-08-15T01:00:23.400Z,16,GR86-015-31,-48.8,0.228,-0.915,100.02,2.0,,0.0,0.0,
2025-08-15T01:00:23.445Z,16,GR86-015-31,-34.5,0.197,-0.77,100.02,2.0,,0.0,0.0,
2025-08-15T01:00:23.488Z,16,GR86-015-31,-24.1,0.174,-0.64,100.0,2.0,6699.0,0.0,0.0,
2025-08-15T01:00:23.530Z,16,GR86-015-31,-22.200000000000003,0.168,-0.614,100.02,2.0,,0.0,0.0,113.86
2025-08-15T01:00:23.575Z,16,GR86-015-31,-25.5,0.287,-0.733,100.02,2.0,,0.0,0.0,
2025-08-15T01:00:23.618Z,16,GR86-015-31,-27.8,0.279,-0.868,100.0,2.0,,0.0,0.0,
2025-08-15T01:00:23.660Z,16,GR86-015-31,-27.9,0.37,-0.922,100.02,2.0,,0.0,0.0,
2025-08-15T01:00:23.704Z,16,GR86-015-31,-27.700000000000003,0.311,-0.8230000000000001,100.03,2.0,6823.0,0.0,0.0,
2025-08-15T01:00:23.746Z,16,GR86-015-31,-27.4,0.291,-1.113,100.03,2.0,,0.0,0.0,116.39
2025-08-15T01:00:23.790Z,16,GR86-015-31,-26.9,0.355,-0.906,100.02,2.0,,0.0,0.0,
2025-08-15T01:00:23.832Z,16,GR86-015-31,-27.3,0.207,-0.948,100.04,2.0,,0.0,0.0,
2025-08-15T01:00:23.875Z,16,GR86-015-31,-29.700000000000003,0.142,-0.709,99.99,2.0,,0.0,0.0,
2025-08-15T01:00:23.918Z,16,GR86-015-31,-30.9,0.201,-0.5750000000000001,100.04,2.0,6866.0,0.0,0.0,
2025-08-15T01:00:23.961Z,16,GR86-015-31,-29.1,0.11,-0.789,100.02,2.0,,0.0,0.0,116.53
2025-08-15T01:00:24.005Z,16,GR86-015-31,-23.9,0.134,-0.684,99.99,2.0,,0.0,0.0,
2025-08-15T01:00:24.047Z,16,GR86-015-31,-16.3,0.186,-0.734,100.03,2.0,,0.0,0.0,
2025-08-15T01:00:24.090Z,16,GR86-015-31,-11.8,0.251,-0.721,99.99,2.0,,0.0,0.0,
2025-08-15T01:00:24.134Z,16,GR86-015-31,-11.4,0.296,-0.598,100.02,2.0,6975.0,0.0,0.0,
2025-08-15T01:00:24.176Z,16,GR86-015-31,-14.0,0.299,-0.583,100.03,2.0,,0.0,0.0,118.48
2025-08-15T01:00:24.219Z,16,GR86-015-31,-16.1,0.28,-0.585,100.0,2.0,,0.0,0.0,
2025-08-15T01:00:24.262Z,16,GR86-015-31,-16.900000000000002,0.307,-0.481,100.02,2.0,,0.0,0.0,
2025-08-15T01:00:24.305Z,16,GR86-015-31,-16.7,0.252,-0.485,99.99,2.0,,0.0,0.0,
2025-08-15T01:00:24.348Z,16,GR86-015-31,-15.0,0.202,-0.609,100.02,2.0,7060.0,0.0,0.0,
2025-08-15T01:00:24.391Z,16,GR86-015-31,-12.1,0.249,-0.336,100.0,2.0,,0.0,0.0,120.22
2025-08-15T01:00:24.435Z,16,GR86-015-31,-8.3,0.04,-0.413,99.99,3.0,,0.0,0.0,
2025-08-15T01:00:24.478Z,16,GR86-015-31,-8.200000000000001,0.15,-0.331,99.99,3.0,,0.0,0.0,
2025-08-15T01:00:24.521Z,16,GR86-015-31,-7.2,0.207,-0.312,99.99,3.0,,0.0,0.0,
2025-08-15T01:00:24.565Z,16,GR86-015-31,-4.5,0.545,-0.244,100.03,3.0,7150.0,0.0,0.0,
2025-08-15T01:00:24.607Z,16,GR86-015-31,-1.9,0.539,-0.289,100.03,3.0,,0.0,0.0,123.43
2025-08-15T01:00:24.651Z,16,GR86-015-31,-1.7000000000000002,0.348,-0.37,100.02,3.0,,0.0,0.0,
2025-08-15T01:00:24.695Z,16,GR86-015-31,-4.9,0.241,-0.148,99.99,3.0,,0.0,0.0,
2025-08-15T01:00:24.738Z,16,GR86-015-31,-6.1000000000000005,0.071,-0.146,99.99,3.0,,0.0,0.0,
2025-08-15T01:00:24.781Z,16,GR86-015-31,-5.2,0.269,-0.179,99.99,3.0,6280.0,0.0,0.0,
2025-08-15T01:00:24.825Z,16,GR86-015-31,-4.800000000000001,0.383,0.036,99.99,3.0,,0.0,0.0,125.7
2025-08-15T01:00:24.868Z,16,GR86-015-31,-3.8,0.277,0.03,99.99,3.0,,0.0,0.0,
2025-08-15T01:00:24.911Z,16,GR86-015-31,-2.9000000000000004,0.1,0.018,100.0,3.0,,0.0,0.0,
2025-08-15T01:00:24.954Z,16,GR86-015-31,-1.9,0.24,0.128,100.0,3.0,,0.0,0.0,
2025-08-15T01:00:24.996Z,16,GR86-015-31,-1.7000000000000002,0.582,-0.043,100.0,3.0,6367.0,0.0,0.0,
2025-08-15T01:00:25.039Z,16,GR86-015-31,-1.8,0.436,-0.148,100.0,3.0,,0.0,0.0,126.18
2025-08-15T01:00:25.082Z,16,GR86-015-31,-1.8,0.164,0.019,100.0,3.0,,0.0,0.0,
2025-08-15T01:00:25.125Z,16,GR86-015-31,-1.8,0.144,0.054,100.0,3.0,,0.0,0.0,
2025-08-15T01:00:25.168Z,16,GR86-015-31,-1.3,0.154,0.12,100.0,3.0,,0.0,0.0,
2025-08-15T01:00:25.211Z,16,GR86-015-31,-0.8,0.378,0.179,100.01,3.0,6093.0,0.0,0.0,
2025-08-15T01:00:25.255Z,16,GR86-015-31,0.7000000000000001,0.339,0.069,100.02,3.0,,0.0,0.0,128.49
2025-08-15T01:00:25.297Z,16,GR86-015-31,1.0,0.283,0.067,100.02,3.0,,0.0,0.0,
2025-08-15T01:00:25.340Z,16,GR86-015-31,0.9,0.144,0.186,100.03,3.0,,0.0,0.0,
2025-08-15T01:00:25.384Z,16,GR86-015-31,0.1,0.273,0.082,100.02,3.0,,0.0,0.0,
2025-08-15T01:00:25.426Z,16,GR86-015-31,-1.3,0.207,0.116,100.0,3.0,6120.0,0.0,0.0,
2025-08-15T01:00:25.469Z,16,GR86-015-31,-3.2,0.291,0.072,100.0,3.0,,0.0,0.0,129.86
2025-08-15T01:00:25.512Z,16,GR86-015-31,-3.8,0.219,0.028,100.02,3.0,,0.0,0.0,
2025-08-15T01:00:25.555Z,16,GR86-015-31,-3.2,0.175,0.062,100.0,3.0,,0.0,0.0,
2025-08-15T01:00:25.598Z,16,GR86-015-31,-2.4000000000000004,0.266,0.032,100.0,3.0,,0.0,0.0,
2025-08-15T01:00:25.641Z,16,GR86-015-31,-2.4000000000000004,0.227,0.028,100.0,3.0,6173.0,0.0,0.0,
2025-08-15T01:00:25.685Z,16,GR86-015-31,-3.1,0.274,0.03,99.99,3.0,,0.0,0.0,131.09
2025-08-15T01:00:25.728Z,16,GR86-015-31,-6.6000000000000005,0.149,0.028,99.99,3.0,,0.0,0.0,
2025-08-15T01:00:25.770Z,16,GR86-015-31,-8.700000000000001,0.296,-0.059,100.0,3.0,,0.0,0.0,
2025-08-15T01:00:25.814Z,16,GR86-015-31,-10.1,0.278,-0.107,99.99,3.0,,0.0,0.0,
2025-08-15T01:00:25.856Z,16,GR86-015-31,-11.0,0.215,-0.136,100.01,3.0,6258.0,0.0,0.0,
2025-08-15T01:00:25.899Z,16,GR86-015-31,-11.1,0.214,-0.263,100.02,3.0,,0.0,0.0,132.51
2025-08-15T01:00:25.942Z,16,GR86-015-31,-11.1,0.211,-0.181,100.0,3.0,,0.0,0.0,
2025-08-15T01:00:25.986Z,16,GR86-015-31,-10.9,0.266,-0.308,100.02,3.0,,0.0,0.0,
2025-08-15T01:00:26.028Z,16,GR86-015-31,-8.700000000000001,0.247,-0.22,99.98,3.0,,0.0,0.0,
2025-08-15T01:00:26.071Z,16,GR86-015-31,-5.0,0.158,-0.234,99.99,3.0,6322.0,0.0,0.0,
2025-08-15T01:00:26.115Z,16,GR86-015-31,-3.1,0.255,-0.309,99.99,3.0,,0.0,0.0,134.18
2025-08-15T01:00:26.157Z,16,GR86-015-31,-3.2,0.236,-0.22,100.01,3.0,,0.0,0.0,
2025-08-15T01:00:26.200Z,16,GR86-015-31,-3.2,0.207,-0.222,100.01,3.0,,0.0,0.0,
2025-08-15T01:00:26.245Z,16,GR86-015-31,-3.2,0.249,-0.173,100.03,3.0,,0.0,0.0,
2025-08-15T01:00:26.287Z,16,GR86-015-31,-3.1,0.244,-0.122,100.01,3.0,6344.0,0.0,0.0,
2025-08-15T01:00:26.330Z,16,GR86-015-31,-3.1,0.22,-0.092,100.01,3.0,,0.0,0.0,135.53
2025-08-15T01:00:26.374Z,16,GR86-015-31,-1.9,0.216,-0.065,100.0,3.0,,0.0,0.0,
2025-08-15T01:00:26.416Z,16,GR86-015-31,-0.8,0.196,-0.045,100.01,3.0,,0.0,0.0,
2025-08-15T01:00:26.459Z,16,GR86-015-31,0.2,0.251,-0.016,100.0,3.0,,0.0,0.0,
2025-08-15T01:00:26.502Z,16,GR86-015-31,0.7000000000000001,0.266,0.006,100.03,3.0,6430.0,0.0,0.0,
2025-08-15T01:00:26.545Z,16,GR86-015-31,0.7000000000000001,0.23,0.007,100.01,3.0,,0.0,0.0,136.83
2025-08-15T01:00:26.588Z,16,GR86-015-31,0.7000000000000001,0.188,0.024,99.99,3.0,,0.0,0.0,
2025-08-15T01:00:26.631Z,16,GR86-015-31,0.8,0.26,0.052,100.02,3.0,,0.0,0.0,
2025-08-15T01:00:26.675Z,16,GR86-015-31,0.8,0.214,0.064,100.0,3.0,,0.0,0.0,
2025-08-15T01:00:26.718Z,16,GR86-015-31,0.8,0.253,0.06,100.01,3.0,6492.0,0.0,0.0,
2025-08-15T01:00:26.760Z,16,GR86-015-31,0.8,0.279,0.049,100.01,3.0,,0.0,0.0,138.35
2025-08-15T01:00:26.804Z,16,GR86-015-31,0.7000000000000001,0.236,0.041,99.99,3.0,,0.0,0.0,
2025-08-15T01:00:26.848Z,16,GR86-015-31,0.7000000000000001,0.183,0.056,100.0,3.0,,0.0,0.0,
2025-08-15T01:00:26.891Z,16,GR86-015-31,0.7000000000000001,0.218,0.059,100.02,3.0,,0.0,0.0,
2025-08-15T01:00:26.935Z,16,GR86-015-31,0.7000000000000001,0.202,0.052,100.03,3.0,6557.0,0.0,0.0,
2025-08-15T01:00:26.978Z,16,GR86-015-31,0.7000000000000001,0.247,0.029,100.0,3.0,,0.0,0.0,139.82
2025-08-15T01:00:27.021Z,16,GR86-015-31,0.7000000000000001,0.272,0.012,100.02,3.0,,0.0,0.0,
2025-08-15T01:00:27.065Z,16,GR86-015-31,0.7000000000000001,0.234,0.015,100.0,3.0,,0.0,0.0,
2025-08-15T01:00:27.107Z,16,GR86-015-31,0.7000000000000001,0.19,-0.004,99.99,3.0,,0.0,0.0,
2025-08-15T01:00:27.151Z,16,GR86-015-31,0.7000000000000001,0.209,0.017,100.01,3.0,6627.0,0.0,0.0,
2025-08-15T01:00:27.195Z,16,GR86-015-31,0.7000000000000001,0.203,0.016,100.0,3.0,,0.0,0.0,142.6
2025-08-15T01:00:27.238Z,16,GR86-015-31,0.7000000000000001,0.214,0.019,100.0,3.0,,0.0,0.0,
2025-08-15T01:00:27.281Z,16,GR86-015-31,0.7000000000000001,0.248,0.028,100.01,3.0,,0.0,0.0,
2025-08-15T01:00:27.325Z,16,GR86-015-31,0.7000000000000001,0.264,0.007,100.0,3.0,,0.0,0.0,
2025-08-15T01:00:27.368Z,16,GR86-015-31,0.7000000000000001,0.224,0.016,100.02,3.0,6694.0,0.0,0.0,
2025-08-15T01:00:27.411Z,16,GR86-015-31,0.7000000000000001,0.196,0.023,100.01,3.0,,0.0,0.0,143.99
2025-08-15T01:00:27.454Z,16,GR86-015-31,0.7000000000000001,0.222,0.008,100.02,3.0,,0.0,0.0,
2025-08-15T01:00:27.497Z,16,GR86-015-31,0.7000000000000001,0.187,0.024,99.99,3.0,,0.0,0.0,
2025-08-15T01:00:27.540Z,16,GR86-015-31,0.7000000000000001,0.207,0.039,100.0,3.0,,0.0,0.0,
2025-08-15T01:00:27.584Z,16,GR86-015-31,0.7000000000000001,0.247,0.033,100.01,3.0,6759.0,0.0,0.0,
2025-08-15T01:00:27.626Z,16,GR86-015-31,0.7000000000000001,0.242,0.026,100.0,3.0,,0.0,0.0,145.29
2025-08-15T01:00:27.669Z,16,GR86-015-31,0.7000000000000001,0.226,-0.002,99.99,3.0,,0.0,0.0,
2025-08-15T01:00:27.712Z,16,GR86-015-31,0.7000000000000001,0.194,0.02,100.0,3.0,,0.0,0.0,
2025-08-15T01:00:27.798Z,16,GR86-015-31,1.0,0.187,0.031,100.0,3.0,6865.0,0.0,0.0,
2025-08-15T01:00:27.841Z,16,GR86-015-31,1.2000000000000002,0.204,0.046,99.99,3.0,,0.0,0.0,146.64
2025-08-15T01:00:27.885Z,16,GR86-015-31,1.2000000000000002,0.221,0.063,100.0,3.0,,0.0,0.0,
2025-08-15T01:00:27.928Z,16,GR86-015-31,1.2000000000000002,0.241,0.057,99.99,3.0,,0.0,0.0,
2025-08-15T01:00:27.970Z,16,GR86-015-31,1.1,0.221,0.039,99.98,3.0,,0.0,0.0,
2025-08-15T01:00:28.014Z,16,GR86-015-31,1.1,0.224,0.062,100.01,3.0,6934.0,0.0,0.0,
2025-08-15T01:00:28.056Z,16,GR86-015-31,1.1,0.24,0.031,99.99,3.0,,0.0,0.0,147.92000000000002
2025-08-15T01:00:28.099Z,16,GR86-015-31,1.0,0.205,0.024,99.99,3.0,,0.0,0.0,
2025-08-15T01:00:28.143Z,16,GR86-015-31,0.7000000000000001,0.191,0.028,100.01,3.0,,0.0,0.0,
2025-08-15T01:00:28.186Z,16,GR86-015-31,0.1,0.209,0.024,99.98,3.0,,0.0,0.0,
2025-08-15T01:00:28.229Z,16,GR86-015-31,-1.0,0.217,0.017,99.99,3.0,6991.0,0.0,0.0,
2025-08-15T01:00:28.272Z,16,GR86-015-31,-2.2,0.218,-0.023,99.99,3.0,,0.0,0.0,149.14
2025-08-15T01:00:28.315Z,16,GR86-015-31,-2.3000000000000003,0.21,-0.031,99.99,3.0,,0.0,0.0,
2025-08-15T01:00:28.358Z,16,GR86-015-31,-2.2,0.223,-0.055,100.0,3.0,,0.0,0.0,
2025-08-15T01:00:28.401Z,16,GR86-015-31,-2.2,0.209,-0.075,100.01,3.0,,0.0,0.0,
2025-08-15T01:00:28.445Z,16,GR86-015-31,-2.2,0.227,-0.107,99.99,3.0,7047.0,0.0,0.0,
2025-08-15T01:00:28.487Z,16,GR86-015-31,-2.2,0.209,-0.111,100.0,3.0,,0.0,0.0,150.39
2025-08-15T01:00:28.532Z,16,GR86-015-31,-2.2,0.205,-0.083,99.99,3.0,,0.0,0.0,
2025-08-15T01:00:28.575Z,16,GR86-015-31,-2.2,0.213,-0.092,100.02,3.0,,0.0,0.0,
2025-08-15T01:00:28.618Z,16,GR86-015-31,-2.1,0.203,-0.066,100.0,3.0,,0.0,0.0,
2025-08-15T01:00:28.661Z,16,GR86-015-31,-2.1,0.208,-0.055,99.98,3.0,7103.0,0.0,0.0,
2025-08-15T01:00:28.705Z,16,GR86-015-31,-2.1,0.196,-0.057,100.0,3.0,,0.0,0.0,151.61
2025-08-15T01:00:28.747Z,16,GR86-015-31,-2.2,0.202,-0.058,99.97,3.0,,0.0,0.0,
2025-08-15T01:00:28.790Z,16,GR86-015-31,-2.2,0.205,-0.063,100.03,3.0,,0.0,0.0,
2025-08-15T01:00:28.834Z,16,GR86-015-31,-2.4000000000000004,0.204,-0.068,99.99,3.0,,0.0,0.0,
2025-08-15T01:00:28.876Z,16,GR86-015-31,-2.4000000000000004,0.192,-0.063,100.03,3.0,7159.0,0.0,0.0,
2025-08-15T01:00:28.919Z,16,GR86-015-31,-2.4000000000000004,0.182,-0.076,100.01,3.0,,0.0,0.0,152.85
2025-08-15T01:00:28.962Z,16,GR86-015-31,-2.4000000000000004,0.204,-0.077,99.99,3.0,,0.0,0.0,
2025-08-15T01:00:29.005Z,16,GR86-015-31,-2.4000000000000004,0.215,-0.082,99.99,3.0,,0.0,0.0,
2025-08-15T01:00:29.048Z,16,GR86-015-31,-2.4000000000000004,0.21,-0.081,99.99,3.0,,0.0,0.0,
2025-08-15T01:00:29.091Z,16,GR86-015-31,-2.4000000000000004,0.217,-0.082,100.02,3.0,7211.0,0.0,0.0,
2025-08-15T01:00:29.135Z,16,GR86-015-31,-2.7,0.233,-0.112,99.98,3.0,,0.0,0.0,154.0
2025-08-15T01:00:29.178Z,16,GR86-015-31,-3.0,0.074,-0.116,99.99,3.0,,0.0,0.0,
2025-08-15T01:00:29.221Z,16,GR86-015-31,-3.2,-0.071,-0.095,99.99,4.0,,0.0,0.0,
2025-08-15T01:00:29.264Z,16,GR86-015-31,-3.2,0.64,-0.113,100.01,4.0,,0.0,0.0,
2025-08-15T01:00:29.306Z,16,GR86-015-31,-3.2,0.237,-0.181,100.01,4.0,7148.0,0.0,0.0,
2025-08-15T01:00:29.349Z,16,GR86-015-31,-3.3000000000000003,0.197,-0.076,99.99,4.0,,0.0,0.0,155.27
2025-08-15T01:00:29.392Z,16,GR86-015-31,-3.3000000000000003,0.055,-0.174,100.0,4.0,,0.0,0.0,
2025-08-15T01:00:29.435Z,16,GR86-015-31,-3.3000000000000003,0.195,-0.153,100.0,4.0,,0.0,0.0,
2025-08-15T01:00:29.478Z,16,GR86-015-31,-3.3000000000000003,0.215,-0.138,99.99,4.0,,0.0,0.0,
2025-08-15T01:00:29.521Z,16,GR86-015-31,-3.2,0.167,-0.187,99.99,4.0,6066.0,0.0,0.0,
2025-08-15T01:00:29.565Z,16,GR86-015-31,-3.2,0.159,-0.096,100.0,4.0,,0.0,0.0,156.25
2025-08-15T01:00:29.607Z,16,GR86-015-31,-3.2,0.214,-0.113,99.99,4.0,,0.0,0.0,
2025-08-15T01:00:29.651Z,16,GR86-015-31,-3.2,0.219,-0.118,99.99,4.0,,0.0,0.0,
2025-08-15T01:00:29.695Z,16,GR86-015-31,-3.3000000000000003,0.179,-0.11,99.99,4.0,,0.0,0.0,
2025-08-15T01:00:29.738Z,16,GR86-015-31,-3.3000000000000003,0.191,-0.111,100.0,4.0,6202.0,0.0,0.0,
2025-08-15T01:00:29.781Z,16,GR86-015-31,-3.3000000000000003,0.216,-0.111,99.99,4.0,,0.0,0.0,157.59
2025-08-15T01:00:29.825Z,16,GR86-015-31,-3.3000000000000003,0.195,-0.108,100.01,4.0,,0.0,0.0,
2025-08-15T01:00:29.868Z,16,GR86-015-31,-3.3000000000000003,0.172,-0.112,100.01,4.0,,0.0,0.0,
2025-08-15T01:00:29.910Z,16,GR86-015-31,-3.2,0.137,-0.116,99.99,4.0,,0.0,0.0,
2025-08-15T01:00:29.955Z,16,GR86-015-31,-3.2,0.173,-0.096,99.99,4.0,6246.0,0.0,0.0,
2025-08-15T01:00:29.998Z,16,GR86-015-31,-3.2,0.198,-0.102,99.99,4.0,,0.0,0.0,159.56
2025-08-15T01:00:30.041Z,16,GR86-015-31,-3.2,0.16,-0.09,100.0,4.0,,0.0,0.0,
2025-08-15T01:00:30.085Z,16,GR86-015-31,-3.2,0.142,-0.096,99.98,4.0,,0.0,0.0,
2025-08-15T01:00:30.128Z,16,GR86-015-31,-3.2,0.147,-0.093,100.0,4.0,,0.0,0.0,
2025-08-15T01:00:30.171Z,16,GR86-015-31,-3.2,0.171,-0.094,100.0,4.0,6277.0,0.0,0.0,
2025-08-15T01:00:30.215Z,16,GR86-015-31,-3.3000000000000003,0.153,-0.101,100.02,4.0,,0.0,0.0,160.57
2025-08-15T01:00:30.257Z,16,GR86-015-31,-3.3000000000000003,0.136,-0.106,100.0,4.0,,0.0,0.0,
2025-08-15T01:00:30.300Z,16,GR86-015-31,-3.3000000000000003,0.141,-0.116,100.01,4.0,,0.0,0.0,
2025-08-15T01:00:30.344Z,16,GR86-015-31,-3.3000000000000003,0.179,-0.123,99.99,4.0,,0.0,0.0,
2025-08-15T01:00:30.386Z,16,GR86-015-31,-3.3000000000000003,0.178,-0.132,100.0,4.0,6322.0,0.0,0.0,
2025-08-15T01:00:30.429Z,16,GR86-015-31,-3.4000000000000004,0.22,-0.135,100.0,4.0,,0.0,0.0,161.57
2025-08-15T01:00:30.472Z,16,GR86-015-31,-3.4000000000000004,0.201,-0.16,100.02,4.0,,0.0,0.0,
2025-08-15T01:00:30.515Z,16,GR86-015-31,-3.4000000000000004,0.151,-0.146,99.99,4.0,,0.0,0.0,
2025-08-15T01:00:30.558Z,16,GR86-015-31,-3.4000000000000004,0.191,-0.151,99.99,4.0,,0.0,0.0,
2025-08-15T01:00:30.601Z,16,GR86-015-31,-3.6,0.202,-0.121,100.0,4.0,6411.0,0.0,0.0,
2025-08-15T01:00:30.645Z,16,GR86-015-31,-4.6000000000000005,0.202,-0.135,99.99,4.0,,0.0,0.0,162.65
2025-08-15T01:00:30.688Z,16,GR86-015-31,-5.1000000000000005,0.199,-0.173,100.01,4.0,,0.0,0.0,
2025-08-15T01:00:30.730Z,16,GR86-015-31,-5.1000000000000005,0.196,-0.175,99.99,4.0,,0.0,0.0,
2025-08-15T01:00:30.774Z,16,GR86-015-31,-5.0,0.185,-0.19,100.0,4.0,,0.0,0.0,
2025-08-15T01:00:30.818Z,16,GR86-015-31,-5.0,0.205,-0.191,99.99,4.0,6444.0,0.0,0.0,
2025-08-15T01:00:30.861Z,16,GR86-015-31,-5.6000000000000005,0.205,-0.187,100.0,4.0,,0.0,0.0,163.68
2025-08-15T01:00:30.904Z,16,GR86-015-31,-6.2,0.202,-0.221,99.99,4.0,,0.0,0.0,
2025-08-15T01:00:30.946Z,16,GR86-015-31,-6.2,0.18,-0.218,100.02,4.0,,0.0,0.0,
2025-08-15T01:00:30.990Z,16,GR86-015-31,-6.1000000000000005,0.158,-0.217,99.99,4.0,,0.0,0.0,
2025-08-15T01:00:31.032Z,16,GR86-015-31,-6.0,0.144,-0.211,100.01,4.0,6495.0,0.0,0.0,
2025-08-15T01:00:31.075Z,16,GR86-015-31,-5.9,0.207,-0.189,100.0,4.0,,0.0,0.0,164.68
2025-08-15T01:00:31.118Z,16,GR86-015-31,-5.9,0.209,-0.213,100.0,4.0,,0.0,0.0,
2025-08-15T01:00:31.161Z,16,GR86-015-31,-5.9,0.192,-0.221,100.01,4.0,,0.0,0.0,
2025-08-15T01:00:31.205Z,16,GR86-015-31,-5.7,0.168,-0.204,99.99,4.0,,0.0,0.0,
2025-08-15T01:00:31.247Z,16,GR86-015-31,-5.5,0.157,-0.208,100.02,4.0,6534.0,0.0,0.0,
2025-08-15T01:00:31.290Z,16,GR86-015-31,-5.4,0.144,-0.174,100.0,4.0,,0.0,0.0,165.78
2025-08-15T01:00:31.334Z,16,GR86-015-31,-5.5,0.204,-0.142,99.99,4.0,,0.0,0.0,
2025-08-15T01:00:31.376Z,16,GR86-015-31,-5.5,0.19,-0.15,100.01,4.0,,0.0,0.0,
2025-08-15T01:00:31.419Z,16,GR86-015-31,-5.5,0.178,-0.172,100.01,4.0,,0.0,0.0,
2025-08-15T01:00:31.462Z,16,GR86-015-31,-5.5,0.186,-0.192,100.01,4.0,6576.0,0.0,0.0,
2025-08-15T01:00:31.505Z,16,GR86-015-31,-5.5,0.165,-0.187,99.99,4.0,,0.0,0.0,166.93
2025-08-15T01:00:31.548Z,16,GR86-015-31,-5.5,0.139,-0.19,99.99,4.0,,0.0,0.0,
2025-08-15T01:00:31.591Z,16,GR86-015-31,-5.5,0.145,-0.195,100.0,4.0,,0.0,0.0,
2025-08-15T01:00:31.635Z,16,GR86-015-31,-5.5,0.202,-0.187,100.02,4.0,,0.0,0.0,
2025-08-15T01:00:31.678Z,16,GR86-015-31,-5.5,0.186,-0.173,99.99,4.0,6613.0,0.0,0.0,
2025-08-15T01:00:31.721Z,16,GR86-015-31,-5.5,0.178,-0.191,100.0,4.0,,0.0,0.0,168.13
2025-08-15T01:00:31.765Z,16,GR86-015-31,-5.5,0.154,-0.187,100.0,4.0,,0.0,0.0,
2025-08-15T01:00:31.807Z,16,GR86-015-31,-5.5,0.145,-0.204,100.02,4.0,,0.0,0.0,
2025-08-15T01:00:31.851Z,16,GR86-015-31,-5.5,0.147,-0.153,100.0,4.0,,0.0,0.0,
2025-08-15T01:00:31.895Z,16,GR86-015-31,-5.5,0.179,-0.155,100.0,4.0,6656.0,0.0,0.0,
2025-08-15T01:00:31.938Z,16,GR86-015-31,-5.5,0.191,-0.166,100.02,4.0,,0.0,0.0,169.21
2025-08-15T01:00:31.981Z,16,GR86-015-31,-5.5,0.186,-0.165,100.01,4.0,,0.0,0.0,
2025-08-15T01:00:32.025Z,16,GR86-015-31,-5.5,0.166,-0.197,100.01,4.0,,0.0,0.0,
2025-08-15T01:00:32.068Z,16,GR86-015-31,-5.5,0.181,-0.187,99.99,4.0,,0.0,0.0,
2025-08-15T01:00:32.111Z,16,GR86-015-31,-5.5,0.142,-0.223,99.99,4.0,6716.0,0.0,0.0,
2025-08-15T01:00:32.154Z,16,GR86-015-31,-5.9,0.175,-0.222,100.02,4.0,,0.0,0.0,170.23
2025-08-15T01:00:32.197Z,16,GR86-015-31,-6.1000000000000005,0.196,-0.213,99.99,4.0,,0.0,0.0,
2025-08-15T01:00:32.240Z,16,GR86-015-31,-6.1000000000000005,0.186,-0.221,99.99,4.0,,0.0,0.0,
2025-08-15T01:00:32.284Z,16,GR86-015-31,-6.2,0.187,-0.227,99.99,4.0,,0.0,0.0,
2025-08-15T01:00:32.326Z,16,GR86-015-31,-6.6000000000000005,0.188,-0.249,100.02,4.0,6742.0,0.0,0.0,
2025-08-15T01:00:32.370Z,16,GR86-015-31,-6.9,0.155,-0.268,99.99,4.0,,0.0,0.0,171.53
2025-08-15T01:00:32.412Z,16,GR86-015-31,-6.9,0.172,-0.263,99.98,4.0,,0.0,0.0,
2025-08-15T01:00:32.455Z,16,GR86-015-31,-6.7,0.169,-0.263,100.03,4.0,,0.0,0.0,
2025-08-15T01:00:32.498Z,16,GR86-015-31,-6.6000000000000005,0.176,-0.233,99.99,4.0,,0.0,0.0,
2025-08-15T01:00:32.541Z,16,GR86-015-31,-6.6000000000000005,0.171,-0.246,99.98,4.0,6798.0,0.0,0.0,
2025-08-15T01:00:32.585Z,16,GR86-015-31,-6.6000000000000005,0.166,-0.217,100.0,4.0,,0.0,0.0,172.55
2025-08-15T01:00:32.628Z,16,GR86-015-31,-6.2,0.196,-0.248,100.0,4.0,,0.0,0.0,
2025-08-15T01:00:32.670Z,16,GR86-015-31,-5.800000000000001,0.172,-0.261,99.99,4.0,,0.0,0.0,
2025-08-15T01:00:32.714Z,16,GR86-015-31,-5.9,0.165,-0.232,100.01,4.0,,0.0,0.0,
2025-08-15T01:00:32.756Z,16,GR86-015-31,-5.9,0.162,-0.218,100.0,4.0,6837.0,0.0,0.0,
2025-08-15T01:00:32.799Z,16,GR86-015-31,-6.0,0.145,-0.214,99.99,4.0,,0.0,0.0,174.66
2025-08-15T01:00:32.842Z,16,GR86-015-31,-6.2,0.175,-0.192,99.99,4.0,,0.0,0.0,
2025-08-15T01:00:32.885Z,16,GR86-015-31,-6.2,0.137,-0.213,100.02,4.0,,0.0,0.0,
2025-08-15T01:00:32.928Z,16,GR86-015-31,-6.300000000000001,0.188,-0.193,99.99,4.0,,0.0,0.0,
2025-08-15T01:00:32.971Z,16,GR86-015-31,-6.4,0.158,-0.21,100.0,4.0,6869.0,0.0,0.0,
2025-08-15T01:00:33.015Z,16,GR86-015-31,-6.300000000000001,0.126,-0.255,100.02,4.0,,0.0,0.0,175.56
2025-08-15T01:00:33.057Z,16,GR86-015-31,-6.2,0.165,-0.254,99.99,4.0,,0.0,0.0,
2025-08-15T01:00:33.100Z,16,GR86-015-31,-5.800000000000001,0.131,-0.296,100.01,4.0,,0.0,0.0,
2025-08-15T01:00:33.145Z,16,GR86-015-31,-5.5,0.147,-0.271,100.02,4.0,,0.0,0.0,
2025-08-15T01:00:33.232Z,16,GR86-015-31,-5.4,0.142,-0.243,99.99,4.0,6916.0,0.0,0.0,176.76
2025-08-15T01:00:33.275Z,16,GR86-015-31,-5.300000000000001,0.126,-0.173,100.0,4.0,,0.0,0.0,
2025-08-15T01:00:33.318Z,16,GR86-015-31,-5.2,0.142,-0.143,99.97,4.0,,0.0,0.0,
2025-08-15T01:00:33.361Z,16,GR86-015-31,-5.0,0.149,-0.127,99.99,4.0,,0.0,0.0,
2025-08-15T01:00:33.405Z,16,GR86-015-31,-4.7,0.135,-0.121,100.0,4.0,6991.0,0.0,0.0,
2025-08-15T01:00:33.448Z,16,GR86-015-31,-4.5,0.135,-0.138,99.99,4.0,,0.0,0.0,177.61
2025-08-15T01:00:33.491Z,16,GR86-015-31,-4.4,0.134,-0.126,99.99,4.0,,0.0,0.0,
2025-08-15T01:00:33.535Z,16,GR86-015-31,-4.4,0.186,-0.121,99.99,4.0,,0.0,0.0,
2025-08-15T01:00:33.578Z,16,GR86-015-31,-4.4,0.178,-0.114,99.99,4.0,,0.0,0.0,
2025-08-15T01:00:33.621Z,16,GR86-015-31,-4.3,0.176,-0.116,99.99,4.0,7029.0,0.0,0.0,
2025-08-15T01:00:33.665Z,16,GR86-015-31,-4.3,0.162,-0.092,100.0,4.0,,0.0,0.0,178.66
2025-08-15T01:00:33.707Z,16,GR86-015-31,-4.3,0.188,-0.107,99.99,4.0,,0.0,0.0,
2025-08-15T01:00:33.751Z,16,GR86-015-31,-4.3,0.174,-0.113,100.01,4.0,,0.0,0.0,
2025-08-15T01:00:33.795Z,16,GR86-015-31,-4.2,0.128,-0.106,99.99,4.0,,0.0,0.0,
2025-08-15T01:00:33.838Z,16,GR86-015-31,-4.2,0.14,-0.106,100.01,4.0,7058.0,0.0,0.0,
2025-08-15T01:00:33.881Z,16,GR86-015-31,-4.3,0.131,-0.108,100.0,4.0,,0.0,0.0,179.62
2025-08-15T01:00:33.925Z,16,GR86-015-31,-4.9,0.117,-0.133,99.99,4.0,,0.0,0.0,
2025-08-15T01:00:33.968Z,16,GR86-015-31,-4.800000000000001,0.141,-0.169,99.99,4.0,,0.0,0.0,
2025-08-15T01:00:34.010Z,16,GR86-015-31,-4.800000000000001,0.121,-0.167,99.99,4.0,,0.0,0.0,
2025-08-15T01:00:34.097Z,16,GR86-015-31,-4.800000000000001,0.173,-0.161,99.99,4.0,7100.0,0.0,0.0,180.57
2025-08-15T01:00:34.141Z,16,GR86-015-31,-5.1000000000000005,0.159,-0.156,99.99,4.0,,0.0,0.0,
2025-08-15T01:00:34.184Z,16,GR86-015-31,-6.1000000000000005,0.171,-0.129,100.0,4.0,,0.0,0.0,
2025-08-15T01:00:34.226Z,16,GR86-015-31,-6.7,0.166,-0.176,99.97,4.0,,0.0,0.0,
2025-08-15T01:00:34.270Z,16,GR86-015-31,-6.800000000000001,0.168,-0.211,100.03,4.0,7141.0,0.0,0.0,
2025-08-15T01:00:34.312Z,16,GR86-015-31,-6.7,0.18,-0.23,99.99,4.0,,0.0,0.0,181.53
2025-08-15T01:00:34.355Z,16,GR86-015-31,-6.5,0.119,-0.233,100.02,4.0,,0.0,0.0,
2025-08-15T01:00:34.398Z,16,GR86-015-31,-6.2,0.119,-0.269,99.99,4.0,,0.0,0.0,
2025-08-15T01:00:34.441Z,16,GR86-015-31,-6.0,0.124,-0.256,99.99,4.0,,0.0,0.0,
2025-08-15T01:00:34.485Z,16,GR86-015-31,-6.0,0.113,-0.231,99.99,4.0,7177.0,0.0,0.0,
2025-08-15T01:00:34.528Z,16,GR86-015-31,-5.9,0.121,-0.254,99.98,4.0,,0.0,0.0,182.39
2025-08-15T01:00:34.570Z,16,GR86-015-31,-5.4,0.101,-0.232,100.02,4.0,,0.0,0.0,
2025-08-15T01:00:34.614Z,16,GR86-015-31,-5.2,0.17,-0.172,99.99,4.0,,0.0,0.0,
2025-08-15T01:00:34.656Z,16,GR86-015-31,-5.1000000000000005,0.181,-0.144,100.03,4.0,,0.0,0.0,
2025-08-15T01:00:34.699Z,16,GR86-015-31,-5.1000000000000005,0.181,-0.129,100.0,4.0,7208.0,0.0,0.0,
2025-08-15T01:00:34.742Z,16,GR86-015-31,-5.1000000000000005,0.155,-0.148,99.97,4.0,,0.0,0.0,183.46
2025-08-15T01:00:34.785Z,16,GR86-015-31,-5.1000000000000005,-0.083,-0.12,100.0,5.0,,0.0,0.0,
2025-08-15T01:00:34.828Z,16,GR86-015-31,-5.2,0.142,-0.08,99.99,5.0,,0.0,0.0,
2025-08-15T01:00:34.871Z,16,GR86-015-31,-5.1000000000000005,0.403,-0.188,100.01,5.0,,0.0,0.0,
2025-08-15T01:00:34.915Z,16,GR86-015-31,-5.1000000000000005,0.068,-0.138,99.99,5.0,6988.0,0.0,0.0,
2025-08-15T01:00:34.957Z,16,GR86-015-31,-5.2,0.013,-0.189,99.99,5.0,,0.0,0.0,184.36
2025-08-15T01:00:35.000Z,16,GR86-015-31,-5.2,0.172,-0.208,99.99,5.0,,0.0,0.0,
2025-08-15T01:00:35.044Z,16,GR86-015-31,-5.2,0.141,-0.153,100.01,5.0,,0.0,0.0,
2025-08-15T01:00:35.086Z,16,GR86-015-31,-5.2,0.082,-0.212,99.98,5.0,,0.0,0.0,
2025-08-15T01:00:35.129Z,16,GR86-015-31,-5.300000000000001,0.121,-0.238,100.01,5.0,6338.0,0.0,0.0,
2025-08-15T01:00:35.174Z,16,GR86-015-31,-5.300000000000001,0.149,-0.19,99.98,5.0,,0.0,0.0,185.17
2025-08-15T01:00:35.216Z,16,GR86-015-31,-5.300000000000001,0.123,-0.202,100.02,5.0,,0.0,0.0,
2025-08-15T01:00:35.302Z,16,GR86-015-31,-5.300000000000001,0.08,-0.216,99.98,5.0,,0.0,0.0,
2025-08-15T01:00:35.345Z,16,GR86-015-31,-5.300000000000001,0.116,-0.243,99.99,5.0,6344.0,0.0,0.0,
2025-08-15T01:00:35.389Z,16,GR86-015-31,-5.7,0.096,-0.222,99.99,5.0,,0.0,0.0,185.9
2025-08-15T01:00:35.432Z,16,GR86-015-31,-6.4,0.107,-0.226,99.99,5.0,,0.0,0.0,
2025-08-15T01:00:35.475Z,16,GR86-015-31,-7.300000000000001,0.156,-0.253,100.02,5.0,,0.0,0.0,
2025-08-15T01:00:35.518Z,16,GR86-015-31,-7.4,0.171,-0.243,99.99,5.0,,0.0,0.0,
2025-08-15T01:00:35.561Z,16,GR86-015-31,-7.300000000000001,0.127,-0.287,100.0,5.0,6352.0,0.0,0.0,
2025-08-15T01:00:35.605Z,16,GR86-015-31,-7.1000000000000005,0.164,-0.279,99.99,5.0,,0.0,0.0,187.39
2025-08-15T01:00:35.647Z,16,GR86-015-31,-6.0,0.17,-0.272,99.99,5.0,,0.0,0.0,
2025-08-15T01:00:35.690Z,16,GR86-015-31,-4.9,0.143,-0.243,99.99,5.0,,0.0,0.0,
2025-08-15T01:00:35.734Z,16,GR86-015-31,-4.3,0.126,-0.214,100.01,5.0,,0.0,0.0,
2025-08-15T01:00:35.776Z,16,GR86-015-31,-4.0,0.131,-0.223,100.04,5.0,6390.0,0.0,0.0,
2025-08-15T01:00:35.819Z,16,GR86-015-31,-3.8,0.13,-0.161,99.99,5.0,,0.0,0.0,188.24
2025-08-15T01:00:35.864Z,16,GR86-015-31,-3.8,0.159,-0.149,100.0,5.0,,0.0,0.0,
2025-08-15T01:00:35.906Z,16,GR86-015-31,-3.8,0.113,-0.072,100.01,5.0,,0.0,0.0,
2025-08-15T01:00:35.949Z,16,GR86-015-31,-3.6,0.169,-0.08,99.99,5.0,,0.0,0.0,
2025-08-15T01:00:35.992Z,16,GR86-015-31,-3.1,0.144,-0.056,100.0,5.0,6412.0,0.0,0.0,
2025-08-15T01:00:36.035Z,16,GR86-015-31,-2.5,0.102,-0.032,100.02,5.0,,0.0,0.0,188.94
2025-08-15T01:00:36.078Z,16,GR86-015-31,-2.4000000000000004,0.101,-0.038,100.01,5.0,,0.0,0.0,
2025-08-15T01:00:36.121Z,16,GR86-015-31,-2.4000000000000004,0.086,0.01,99.99,5.0,,0.0,0.0,
2025-08-15T01:00:36.165Z,16,GR86-015-31,-2.4000000000000004,0.129,-0.033,99.99,5.0,,0.0,0.0,
2025-08-15T01:00:36.207Z,16,GR86-015-31,-2.4000000000000004,0.113,-0.03,99.99,5.0,6467.0,0.0,0.0,
2025-08-15T01:00:36.295Z,16,GR86-015-31,-2.8000000000000003,0.107,-0.08,100.02,5.0,,0.0,0.0,189.8
2025-08-15T01:00:36.338Z,16,GR86-015-31,-2.8000000000000003,0.113,-0.091,100.0,5.0,,0.0,0.0,
2025-08-15T01:00:36.381Z,16,GR86-015-31,-2.8000000000000003,0.111,-0.114,99.98,5.0,,0.0,0.0,
2025-08-15T01:00:36.425Z,16,GR86-015-31,-2.6,0.102,-0.078,100.02,5.0,6487.0,0.0,0.0,
2025-08-15T01:00:36.468Z,16,GR86-015-31,-2.6,0.108,-0.088,99.99,5.0,,0.0,0.0,190.65
2025-08-15T01:00:36.510Z,16,GR86-015-31,-2.6,0.104,-0.103,100.01,5.0,,0.0,0.0,
2025-08-15T01:00:36.554Z,16,GR86-015-31,-2.5,0.125,-0.093,100.03,5.0,,0.0,0.0,
2025-08-15T01:00:36.598Z,16,GR86-015-31,-2.5,0.135,-0.069,100.0,5.0,,0.0,0.0,
2025-08-15T01:00:36.641Z,16,GR86-015-31,-2.5,0.109,-0.068,99.99,5.0,6515.0,0.0,0.0,
2025-08-15T01:00:36.685Z,16,GR86-015-31,-2.5,0.127,-0.042,99.98,5.0,,0.0,0.0,191.47
2025-08-15T01:00:36.728Z,16,GR86-015-31,-2.5,0.099,-0.041,99.99,5.0,,0.0,0.0,
2025-08-15T01:00:36.771Z,16,GR86-015-31,-2.4000000000000004,0.111,-0.026,99.99,5.0,,0.0,0.0,
2025-08-15T01:00:36.815Z,16,GR86-015-31,-2.4000000000000004,0.135,-0.051,100.0,5.0,,0.0,0.0,
2025-08-15T01:00:36.857Z,16,GR86-015-31,-2.4000000000000004,0.149,-0.034,99.99,5.0,6547.0,0.0,0.0,
2025-08-15T01:00:36.900Z,16,GR86-015-31,-2.4000000000000004,0.132,-0.048,99.99,5.0,,0.0,0.0,192.34
2025-08-15T01:00:36.945Z,16,GR86-015-31,-2.4000000000000004,0.115,-0.046,100.0,5.0,,0.0,0.0,
2025-08-15T01:00:36.988Z,16,GR86-015-31,-2.4000000000000004,0.117,-0.036,100.0,5.0,,0.0,0.0,
2025-08-15T01:00:37.030Z,16,GR86-015-31,-2.4000000000000004,0.147,-0.044,99.99,5.0,,0.0,0.0,
2025-08-15T01:00:37.074Z,16,GR86-015-31,-2.4000000000000004,0.155,-0.059,100.01,5.0,6571.0,0.0,0.0,
2025-08-15T01:00:37.118Z,16,GR86-015-31,-2.4000000000000004,0.124,-0.063,100.0,5.0,,0.0,0.0,193.02
2025-08-15T01:00:37.160Z,16,GR86-015-31,-2.4000000000000004,0.129,-0.054,99.98,5.0,,0.0,0.0,
2025-08-15T01:00:37.204Z,16,GR86-015-31,-2.4000000000000004,0.119,-0.064,100.0,5.0,,0.0,0.0,
2025-08-15T01:00:37.246Z,16,GR86-015-31,-2.4000000000000004,0.153,-0.061,99.99,5.0,,0.0,0.0,
2025-08-15T01:00:37.289Z,16,GR86-015-31,-2.4000000000000004,0.092,-0.074,100.0,5.0,6594.0,0.0,0.0,
2025-08-15T01:00:37.332Z,16,GR86-015-31,-2.3000000000000003,0.141,-0.062,100.0,5.0,,0.0,0.0,193.81
2025-08-15T01:00:37.375Z,16,GR86-015-31,-2.3000000000000003,0.142,-0.059,100.0,5.0,,0.0,0.0,
2025-08-15T01:00:37.418Z,16,GR86-015-31,-2.2,0.109,-0.054,99.99,5.0,,0.0,0.0,
2025-08-15T01:00:37.461Z,16,GR86-015-31,-2.2,0.134,-0.042,99.99,5.0,,0.0,0.0,
2025-08-15T01:00:37.505Z,16,GR86-015-31,-2.1,0.137,-0.062,99.99,5.0,6632.0,0.0,0.0,
2025-08-15T01:00:37.547Z,16,GR86-015-31,-2.1,0.119,-0.044,99.99,5.0,,0.0,0.0,194.63
2025-08-15T01:00:37.590Z,16,GR86-015-31,-2.1,0.124,-0.066,99.99,5.0,,0.0,0.0,
2025-08-15T01:00:37.634Z,16,GR86-015-31,-2.2,0.115,-0.066,99.98,5.0,,0.0,0.0,
2025-08-15T01:00:37.676Z,16,GR86-015-31,-2.3000000000000003,0.12,-0.056,99.98,5.0,,0.0,0.0,
2025-08-15T01:00:37.719Z,16,GR86-015-31,-2.5,0.115,-0.092,99.98,5.0,6653.0,0.0,0.0,
2025-08-15T01:00:37.762Z,16,GR86-015-31,-2.5,0.119,-0.074,99.99,5.0,,0.0,0.0,195.45
2025-08-15T01:00:37.805Z,16,GR86-015-31,-2.5,0.119,-0.087,99.98,5.0,,0.0,0.0,
2025-08-15T01:00:37.848Z,16,GR86-015-31,-2.5,0.118,-0.127,99.99,5.0,,0.0,0.0,
2025-08-15T01:00:37.891Z,16,GR86-015-31,-2.5,0.15,-0.121,99.99,5.0,,0.0,0.0,
2025-08-15T01:00:37.935Z,16,GR86-015-31,-2.5,0.135,-0.144,99.99,5.0,6680.0,0.0,0.0,
2025-08-15T01:00:37.978Z,16,GR86-015-31,-2.5,0.1,-0.126,99.98,5.0,,0.0,0.0,196.24
2025-08-15T01:00:38.021Z,16,GR86-015-31,-2.5,0.138,-0.145,99.99,5.0,,0.0,0.0,
2025-08-15T01:00:38.065Z,16,GR86-015-31,-2.5,0.13,-0.161,100.01,5.0,,0.0,0.0,
2025-08-15T01:00:38.107Z,16,GR86-015-31,-2.5,0.143,-0.145,100.0,5.0,,0.0,0.0,
2025-08-15T01:00:38.151Z,16,GR86-015-31,-2.5,0.146,-0.131,99.99,5.0,6701.0,0.0,0.0,
2025-08-15T01:00:38.195Z,16,GR86-015-31,-2.4000000000000004,0.122,-0.095,100.0,5.0,,0.0,0.0,197.9
2025-08-15T01:00:38.238Z,16,GR86-015-31,-2.2,0.108,-0.077,100.01,5.0,,0.0,0.0,
2025-08-15T01:00:38.281Z,16,GR86-015-31,-2.2,0.118,-0.081,100.0,5.0,,0.0,0.0,
2025-08-15T01:00:38.368Z,16,GR86-015-31,-2.1,0.148,-0.069,99.99,5.0,6737.0,0.0,0.0,
2025-08-15T01:00:38.411Z,16,GR86-015-31,-2.1,0.155,-0.065,100.0,5.0,,0.0,0.0,198.56
2025-08-15T01:00:38.454Z,16,GR86-015-31,-2.1,0.101,-0.042,99.99,5.0,,0.0,0.0,
2025-08-15T01:00:38.497Z,16,GR86-015-31,-2.0,0.136,-0.045,99.99,5.0,,0.0,0.0,
2025-08-15T01:00:38.540Z,16,GR86-015-31,-1.8,0.14,-0.046,100.0,5.0,,0.0,0.0,
2025-08-15T01:00:38.584Z,16,GR86-015-31,-1.8,0.131,-0.041,100.02,5.0,6763.0,0.0,0.0,
2025-08-15T01:00:38.626Z,16,GR86-015-31,-1.8,0.126,-0.035,99.99,5.0,,0.0,0.0,199.32
2025-08-15T01:00:38.670Z,16,GR86-015-31,-1.8,0.116,0.018,99.99,5.0,,0.0,0.0,
2025-08-15T01:00:38.712Z,16,GR86-015-31,-1.7000000000000002,0.097,-0.026,99.99,5.0,,0.0,0.0,
2025-08-15T01:00:38.755Z,16,GR86-015-31,-1.7000000000000002,0.133,-0.008,99.99,5.0,,0.0,0.0,
2025-08-15T01:00:38.798Z,16,GR86-015-31,-1.7000000000000002,0.137,-0.045,99.98,5.0,6806.0,0.0,0.0,
2025-08-15T01:00:38.841Z,16,GR86-015-31,-1.7000000000000002,0.126,-0.027,99.99,5.0,,0.0,0.0,200.17
2025-08-15T01:00:38.885Z,16,GR86-015-31,-1.7000000000000002,0.111,-0.047,100.0,5.0,,0.0,0.0,
2025-08-15T01:00:38.928Z,16,GR86-015-31,-1.7000000000000002,0.105,-0.054,100.01,5.0,,0.0,0.0,
2025-08-15T01:00:38.970Z,16,GR86-015-31,-1.7000000000000002,0.092,-0.051,100.0,5.0,,0.0,0.0,
2025-08-15T01:00:39.014Z,16,GR86-015-31,-1.7000000000000002,0.117,-0.06,99.98,5.0,6835.0,0.0,0.0,
2025-08-15T01:00:39.056Z,16,GR86-015-31,-1.6,0.095,-0.057,99.99,5.0,,0.0,0.0,200.96
2025-08-15T01:00:39.099Z,16,GR86-015-31,-1.5,0.086,-0.061,99.99,5.0,,0.0,0.0,
2025-08-15T01:00:39.143Z,16,GR86-015-31,-1.3,0.095,-0.054,100.02,5.0,,0.0,0.0,
2025-08-15T01:00:39.186Z,16,GR86-015-31,-1.1,0.083,-0.049,99.98,5.0,,0.0,0.0,
2025-08-15T01:00:39.229Z,16,GR86-015-31,-0.9,0.115,-0.041,99.98,5.0,6858.0,0.0,0.0,
2025-08-15T01:00:39.272Z,16,GR86-015-31,-0.7000000000000001,0.134,-0.021,99.99,5.0,,0.0,0.0,201.48
2025-08-15T01:00:39.315Z,16,GR86-015-31,-0.4,0.098,-0.002,99.98,5.0,,0.0,0.0,
2025-08-15T01:00:39.358Z,16,GR86-015-31,-0.2,0.087,-0.003,99.98,5.0,,0.0,0.0,
2025-08-15T01:00:39.401Z,16,GR86-015-31,-0.2,0.122,-0.003,99.99,5.0,,0.0,0.0,
2025-08-15T01:00:39.445Z,16,GR86-015-31,-0.2,0.118,0.035,99.99,5.0,6891.0,0.0,0.0,
2025-08-15T01:00:39.487Z,16,GR86-015-31,-0.1,0.129,0.05,99.99,5.0,,0.0,0.0,202.28
2025-08-15T01:00:39.530Z,16,GR86-015-31,-0.1,0.133,0.051,99.98,5.0,,0.0,0.0,
2025-08-15T01:00:39.574Z,16,GR86-015-31,0.0,0.115,0.039,99.98,5.0,,0.0,0.0,
2025-08-15T01:00:39.616Z,16,GR86-015-31,0.0,0.124,0.039,99.98,5.0,,0.0,0.0,
2025-08-15T01:00:39.659Z,16,GR86-015-31,0.0,0.137,0.028,99.98,5.0,6914.0,0.0,0.0,
2025-08-15T01:00:39.702Z,16,GR86-015-31,0.0,0.126,0.032,100.01,5.0,,0.0,0.0,203.04
2025-08-15T01:00:39.745Z,16,GR86-015-31,0.0,0.122,0.008,100.0,5.0,,0.0,0.0,
2025-08-15T01:00:39.789Z,16,GR86-015-31,0.1,0.085,0.002,99.99,5.0,,0.0,0.0,
2025-08-15T01:00:39.832Z,16,GR86-015-31,0.3,0.1,-0.009,100.01,5.0,,0.0,0.0,
2025-08-15T01:00:39.875Z,16,GR86-015-31,1.6,0.111,0.014,99.98,5.0,6932.0,0.0,0.0,
2025-08-15T01:00:39.918Z,16,GR86-015-31,2.3000000000000003,0.097,0.031,99.99,5.0,,0.0,0.0,203.72
2025-08-15T01:00:39.961Z,16,GR86-015-31,2.6,0.08,0.03,99.99,5.0,,0.0,0.0,
2025-08-15T01:00:40.005Z,16,GR86-015-31,2.7,0.086,0.029,99.99,5.0,,0.0,0.0,
2025-08-15T01:00:40.048Z,16,GR86-015-31,2.8000000000000003,0.097,0.06,99.99,5.0,,0.0,0.0,
2025-08-15T01:00:40.091Z,16,GR86-015-31,2.8000000000000003,0.108,0.091,99.99,5.0,6953.0,0.0,0.0,
2025-08-15T01:00:40.135Z,16,GR86-015-31,3.0,0.071,0.122,99.99,5.0,,0.0,0.0,204.58
2025-08-15T01:00:40.178Z,16,GR86-015-31,3.5,0.072,0.155,100.02,5.0,,0.0,0.0,
2025-08-15T01:00:40.221Z,16,GR86-015-31,4.4,0.118,0.169,99.98,5.0,,0.0,0.0,
2025-08-15T01:00:40.265Z,16,GR86-015-31,4.800000000000001,0.098,0.204,99.99,5.0,,0.0,0.0,
2025-08-15T01:00:40.307Z,16,GR86-015-31,5.2,0.124,0.2,100.02,5.0,6983.0,0.0,0.0,
2025-08-15T01:00:40.351Z,16,GR86-015-31,5.7,0.103,0.205,99.99,5.0,,0.0,0.0,205.21
2025-08-15T01:00:40.395Z,16,GR86-015-31,7.300000000000001,0.102,0.235,99.99,5.0,,0.0,0.0,
2025-08-15T01:00:40.438Z,16,GR86-015-31,8.5,0.134,0.256,100.0,5.0,,0.0,0.0,
2025-08-15T01:00:40.481Z,16,GR86-015-31,9.1,0.1,0.271,99.99,5.0,,0.0,0.0,
2025-08-15T01:00:40.525Z,16,GR86-015-31,9.2,0.094,0.303,99.99,5.0,7005.0,0.0,0.0,
2025-08-15T01:00:40.568Z,16,GR86-015-31,9.1,0.075,0.303,100.0,5.0,,0.0,0.0,206.03
2025-08-15T01:00:40.610Z,16,GR86-015-31,8.9,0.073,0.295,99.99,5.0,,0.0,0.0,
2025-08-15T01:00:40.654Z,16,GR86-015-31,8.9,0.059,0.31,99.99,5.0,,0.0,0.0,
2025-08-15T01:00:40.697Z,16,GR86-015-31,8.9,0.104,0.313,99.98,5.0,,0.0,0.0,
2025-08-15T01:00:40.740Z,16,GR86-015-31,8.9,0.046,0.312,100.0,5.0,7023.0,0.0,0.0,
2025-08-15T01:00:40.784Z,16,GR86-015-31,8.9,0.085,0.288,100.0,5.0,,0.0,0.0,206.64
2025-08-15T01:00:40.826Z,16,GR86-015-31,8.9,0.124,0.329,99.99,5.0,,0.0,0.0,
2025-08-15T01:00:40.869Z,16,GR86-015-31,8.9,0.1,0.299,99.99,5.0,,0.0,0.0,
2025-08-15T01:00:40.912Z,16,GR86-015-31,8.9,0.115,0.309,100.0,5.0,,0.0,0.0,
2025-08-15T01:00:40.955Z,16,GR86-015-31,8.8,0.108,0.29,99.99,5.0,7044.0,0.0,0.0,
2025-08-15T01:00:40.998Z,16,GR86-015-31,8.8,0.095,0.312,100.02,5.0,,0.0,0.0,207.83
2025-08-15T01:00:41.041Z,16,GR86-015-31,8.8,0.135,0.342,99.99,5.0,,0.0,0.0,
2025-08-15T01:00:41.085Z,16,GR86-015-31,8.8,0.075,0.272,100.0,5.0,,0.0,0.0,
2025-08-15T01:00:41.128Z,16,GR86-015-31,8.700000000000001,0.079,0.274,99.98,5.0,,0.0,0.0,
2025-08-15T01:00:41.170Z,16,GR86-015-31,7.9,0.076,0.238,100.0,5.0,7059.0,0.0,0.0,
2025-08-15T01:00:41.214Z,16,GR86-015-31,7.300000000000001,0.065,0.23,100.0,5.0,,0.0,0.0,208.38
2025-08-15T01:00:41.257Z,16,GR86-015-31,7.1000000000000005,0.085,0.221,99.98,5.0,,0.0,0.0,
2025-08-15T01:00:41.300Z,16,GR86-015-31,7.1000000000000005,0.066,0.232,100.0,5.0,,0.0,0.0,
2025-08-15T01:00:41.345Z,16,GR86-015-31,7.0,0.103,0.226,100.0,5.0,,0.0,0.0,
2025-08-15T01:00:41.387Z,16,GR86-015-31,7.0,0.107,0.248,100.0,5.0,7091.0,0.0,0.0,
2025-08-15T01:00:41.430Z,16,GR86-015-31,7.0,0.087,0.199,99.99,5.0,,0.0,0.0,208.76
2025-08-15T01:00:41.474Z,16,GR86-015-31,7.0,0.096,0.213,99.99,5.0,,0.0,0.0,
2025-08-15T01:00:41.516Z,16,GR86-015-31,7.0,0.099,0.213,99.99,5.0,,0.0,0.0,
2025-08-15T01:00:41.559Z,16,GR86-015-31,7.0,0.094,0.209,100.0,5.0,,0.0,0.0,
2025-08-15T01:00:41.602Z,16,GR86-015-31,6.2,0.121,0.151,99.99,5.0,7129.0,0.0,0.0,
2025-08-15T01:00:41.645Z,16,GR86-015-31,4.3,0.079,0.119,99.99,5.0,,0.0,0.0,209.53
2025-08-15T01:00:41.690Z,16,GR86-015-31,2.6,0.088,0.083,99.98,5.0,,0.0,0.0,
2025-08-15T01:00:41.732Z,16,GR86-015-31,1.8,0.07,0.05,99.98,5.0,,0.0,0.0,
2025-08-15T01:00:41.775Z,16,GR86-015-31,1.0,0.069,0.02,99.99,5.0,,0.0,0.0,
2025-08-15T01:00:41.818Z,16,GR86-015-31,-0.5,0.086,0.0,99.98,5.0,7150.0,0.0,0.0,
2025-08-15T01:00:41.905Z,16,GR86-015-31,-4.6000000000000005,0.114,-0.104,99.98,5.0,,0.0,0.0,210.24
2025-08-15T01:00:41.947Z,16,GR86-015-31,-5.0,0.081,-0.146,99.99,5.0,,0.0,0.0,
2025-08-15T01:00:41.990Z,16,GR86-015-31,-4.9,0.092,-0.156,99.99,5.0,,0.0,0.0,
2025-08-15T01:00:42.076Z,16,GR86-015-31,-5.300000000000001,0.089,-0.236,100.0,5.0,7171.0,0.0,0.0,210.64
2025-08-15T01:00:42.119Z,16,GR86-015-31,-5.5,0.075,-0.26,99.98,5.0,,0.0,0.0,
2025-08-15T01:00:42.206Z,16,GR86-015-31,-5.5,0.085,-0.298,100.02,5.0,,0.0,0.0,
2025-08-15T01:00:42.249Z,16,GR86-015-31,-5.300000000000001,0.097,-0.362,99.99,5.0,7197.0,0.0,0.0,
2025-08-15T01:00:42.292Z,16,GR86-015-31,-5.0,0.121,-0.322,100.01,5.0,,0.0,0.0,211.07
2025-08-15T01:00:42.335Z,16,GR86-015-31,-3.9,0.129,-0.319,99.99,5.0,,0.0,0.0,
2025-08-15T01:00:42.378Z,16,GR86-015-31,-3.0,0.09,-0.274,100.0,5.0,,0.0,0.0,
2025-08-15T01:00:42.421Z,16,GR86-015-31,-2.4000000000000004,0.105,-0.209,99.99,5.0,,0.0,0.0,
2025-08-15T01:00:42.465Z,16,GR86-015-31,-1.3,0.111,-0.174,100.03,5.0,7220.0,0.0,0.0,
2025-08-15T01:00:42.507Z,16,GR86-015-31,0.9,0.103,-0.117,99.99,5.0,,0.0,0.0,211.93
2025-08-15T01:00:42.551Z,16,GR86-015-31,3.1,0.118,-0.05,100.01,5.0,,0.0,0.0,
2025-08-15T01:00:42.638Z,16,GR86-015-31,5.7,0.098,0.033,100.01,5.0,,0.0,0.0,
2025-08-15T01:00:42.725Z,16,GR86-015-31,9.9,0.099,0.207,99.99,5.0,7239.0,0.0,0.0,212.68
2025-08-15T01:00:42.768Z,16,GR86-015-31,13.0,0.111,0.383,99.99,5.0,,0.0,0.0,
2025-08-15T01:00:42.810Z,16,GR86-015-31,13.6,0.08,0.489,99.99,5.0,,0.0,0.0,
2025-08-15T01:00:42.855Z,16,GR86-015-31,13.6,0.078,0.554,100.0,5.0,,0.0,0.0,
2025-08-15T01:00:42.898Z,16,GR86-015-31,13.6,0.076,0.58,100.01,5.0,7276.0,0.0,0.0,
2025-08-15T01:00:42.985Z,16,GR86-015-31,13.4,0.066,0.603,100.02,5.0,,0.0,0.0,213.57
2025-08-15T01:00:43.028Z,16,GR86-015-31,13.2,0.036,0.635,100.01,5.0,,0.0,0.0,
2025-08-15T01:00:43.071Z,16,GR86-015-31,14.5,0.045,0.577,99.99,5.0,,0.0,0.0,
2025-08-15T01:00:43.115Z,16,GR86-015-31,19.6,0.03,0.612,100.03,5.0,7296.0,0.0,0.0,
2025-08-15T01:00:43.157Z,16,GR86-015-31,19.8,-0.038,0.661,99.99,5.0,,0.0,0.0,214.58
2025-08-15T01:00:43.200Z,16,GR86-015-31,19.0,-0.045,0.66,99.98,5.0,,1.89,2.135,
2025-08-15T01:00:43.244Z,16,GR86-015-31,14.0,-0.059,0.626,99.97,5.0,,2.5500000000000003,2.825,
2025-08-15T01:00:43.286Z,16,GR86-015-31,9.3,-0.009,0.582,99.99,5.0,,4.9,5.22,
2025-08-15T01:00:43.330Z,16,GR86-015-31,6.2,-0.06,0.577,72.02,5.0,7312.0,9.49,9.69,
2025-08-15T01:00:43.374Z,16,GR86-015-31,4.1000000000000005,-0.192,0.51,2.94,5.0,,25.455,25.515,215.03
2025-08-15T01:00:43.418Z,16,GR86-015-31,3.9,-0.46,0.464,3.64,5.0,,40.33,40.395,
2025-08-15T01:00:43.460Z,16,GR86-015-31,3.9,-0.906,0.353,3.43,5.0,,55.425,55.21,
2025-08-15T01:00:43.504Z,16,GR86-015-31,3.9,-1.015,0.315,3.11,5.0,,69.4,69.19,
2025-08-15T01:00:43.546Z,16,GR86-015-31,4.4,-1.151,0.272,2.88,5.0,7288.0,82.375,83.12,
2025-08-15T01:00:43.589Z,16,GR86-015-31,6.0,-1.266,0.285,2.77,5.0,,92.72,93.955,214.73
2025-08-15T01:00:43.632Z,16,GR86-015-31,6.2,-1.39,0.253,2.72,5.0,,99.235,100.03,
2025-08-15T01:00:43.675Z,16,GR86-015-31,6.1000000000000005,-1.205,0.223,2.66,5.0,,102.805,104.47,
2025-08-15T01:00:43.718Z,16,GR86-015-31,6.0,-1.219,0.145,2.65,5.0,,102.975,104.625,
2025-08-15T01:00:43.761Z,16,GR86-015-31,6.0,-1.161,0.085,2.64,5.0,6573.0,102.395,103.69,
2025-08-15T01:00:43.805Z,16,GR86-015-31,5.9,-1.291,0.056,2.6,5.0,,105.8,107.23,200.94
2025-08-15T01:00:43.847Z,16,GR86-015-31,5.9,-1.205,0.096,2.59,5.0,,102.775,104.24,
2025-08-15T01:00:43.890Z,16,GR86-015-31,5.9,-1.399,0.104,6.98,5.0,,103.22,104.15,
2025-08-15T01:00:43.934Z,16,GR86-015-31,6.0,-1.499,0.116,72.62,5.0,,107.08,108.27,
2025-08-15T01:00:43.976Z,16,GR86-015-31,6.0,-1.425,0.135,99.99,5.0,6418.0,109.185,110.62,
2025-08-15T01:00:44.019Z,16,GR86-015-31,6.0,-1.508,0.102,60.61,5.0,,109.46,110.805,191.43
2025-08-15T01:00:44.062Z,16,GR86-015-31,6.0,-1.291,0.077,5.53,4.0,,110.5,112.65,
2025-08-15T01:00:44.105Z,16,GR86-015-31,6.0,-1.14,0.126,4.29,4.0,,109.305,110.835,
2025-08-15T01:00:44.148Z,16,GR86-015-31,5.9,-1.306,0.173,3.93,4.0,,108.3,109.065,
2025-08-15T01:00:44.191Z,16,GR86-015-31,5.9,-1.134,0.154,3.5500000000000003,4.0,6012.0,104.99,106.09,
2025-08-15T01:00:44.235Z,16,GR86-015-31,5.9,-1.336,0.162,3.14,4.0,,106.27,107.89,182.64
2025-08-15T01:00:44.278Z,16,GR86-015-31,5.9,-1.321,0.171,2.91,4.0,,106.775,107.4,
2025-08-15T01:00:44.321Z,16,GR86-015-31,5.9,-1.325,0.089,2.76,4.0,,105.155,105.49,
2025-08-15T01:00:44.365Z,16,GR86-015-31,5.5,-1.327,0.192,2.71,4.0,,105.46,106.835,
2025-08-15T01:00:44.407Z,16,GR86-015-31,4.5,-1.332,0.1,2.68,4.0,6459.0,106.715,107.645,
2025-08-15T01:00:44.451Z,16,GR86-015-31,4.5,-1.33,0.115,2.64,4.0,,107.05,107.11,173.92000000000002
2025-08-15T01:00:44.495Z,16,GR86-015-31,5.4,-1.405,0.126,7.3,4.0,,106.3,106.36,
2025-08-15T01:00:44.538Z,16,GR86-015-31,7.4,-1.357,0.142,49.7,4.0,,106.955,106.775,
2025-08-15T01:00:44.581Z,16,GR86-015-31,8.5,-1.416,0.197,95.1,4.0,,107.05,106.865,
2025-08-15T01:00:44.668Z,16,GR86-015-31,8.5,-1.242,0.092,47.6,3.0,6148.0,106.025,105.645,166.06
2025-08-15T01:00:44.710Z,16,GR86-015-31,7.2,-1.251,0.101,4.19,3.0,,106.925,108.775,
2025-08-15T01:00:44.754Z,16,GR86-015-31,7.0,-1.313,0.152,2.61,3.0,,105.995,107.295,
2025-08-15T01:00:44.796Z,16,GR86-015-31,6.9,-1.311,0.16,2.56,3.0,,100.93,101.71,
2025-08-15T01:00:44.882Z,16,GR86-015-31,5.6000000000000005,-1.183,0.131,2.53,3.0,6654.0,96.395,97.71,157.57
2025-08-15T01:00:44.925Z,16,GR86-015-31,5.5,-1.225,0.174,2.53,3.0,,88.17,89.18,
2025-08-15T01:00:45.011Z,16,GR86-015-31,4.0,-1.124,0.05,2.5,3.0,,79.78,81.395,
2025-08-15T01:00:45.055Z,16,GR86-015-31,4.6000000000000005,-1.123,0.231,2.5,3.0,6654.0,76.36,76.925,
2025-08-15T01:00:45.097Z,16,GR86-015-31,5.2,-1.188,0.076,2.5,3.0,,76.3,76.59,149.48
2025-08-15T01:00:45.140Z,16,GR86-015-31,7.0,-1.184,0.07,2.5,3.0,,76.985,77.05,
2025-08-15T01:00:45.184Z,16,GR86-015-31,9.7,-1.157,0.143,2.5,3.0,,78.545,78.515,
2025-08-15T01:00:45.226Z,16,GR86-015-31,11.4,-1.206,0.093,3.25,3.0,,82.86,82.8,
2025-08-15T01:00:45.269Z,16,GR86-015-31,12.0,-1.229,0.107,43.28,2.0,6288.0,87.59,87.425,
2025-08-15T01:00:45.312Z,16,GR86-015-31,12.3,-1.286,0.134,38.69,2.0,,91.15,91.59,142.41
2025-08-15T01:00:45.355Z,16,GR86-015-31,12.6,-1.344,0.204,4.38,2.0,,96.2,98.93,
2025-08-15T01:00:45.398Z,16,GR86-015-31,14.2,-1.308,0.183,3.9,2.0,,96.81,97.74,
2025-08-15T01:00:45.441Z,16,GR86-015-31,18.5,-1.188,0.224,3.52,2.0,,97.285,99.525,
2025-08-15T01:00:45.485Z,16,GR86-015-31,25.0,-1.266,0.38,3.2,2.0,6222.0,99.02,101.615,
2025-08-15T01:00:45.527Z,16,GR86-015-31,32.1,-1.165,0.424,2.98,2.0,,98.15,99.345,134.65
2025-08-15T01:00:45.570Z,16,GR86-015-31,37.4,-1.109,0.526,2.84,2.0,,99.235,100.7,
2025-08-15T01:00:45.614Z,16,GR86-015-31,43.7,-1.053,0.618,2.72,2.0,,100.0,101.525,
2025-08-15T01:00:45.656Z,16,GR86-015-31,44.3,-0.942,0.71,2.68,2.0,,99.02,99.65,
2025-08-15T01:00:45.699Z,16,GR86-015-31,44.0,-1.163,0.8210000000000001,2.66,2.0,6558.0,99.02,99.085,
2025-08-15T01:00:45.742Z,16,GR86-015-31,43.900000000000006,-1.054,0.612,2.63,2.0,,99.71,100.84,126.53
2025-08-15T01:00:45.785Z,16,GR86-015-31,43.8,-1.014,0.736,2.62,2.0,,96.17,98.15,
2025-08-15T01:00:45.828Z,16,GR86-015-31,43.7,-1.009,0.711,2.6,2.0,,92.87,94.87,
2025-08-15T01:00:45.871Z,16,GR86-015-31,43.7,-1.279,0.5680000000000001,2.57,2.0,,95.025,96.395,
2025-08-15T01:00:45.915Z,16,GR86-015-31,45.3,-1.068,0.579,2.57,2.0,6381.0,95.025,95.835,
2025-08-15T01:00:45.958Z,16,GR86-015-31,49.0,-1.257,0.619,6.99,2.0,,96.78,96.84,119.01
2025-08-15T01:00:46.002Z,16,GR86-015-31,53.6,-1.045,0.838,49.67,1.0,,97.77,98.46,
2025-08-15T01:00:46.045Z,16,GR86-015-31,57.3,-1.206,0.549,28.6,1.0,,98.425,99.74,
2025-08-15T01:00:46.087Z,16,GR86-015-31,58.5,-1.134,0.7020000000000001,4.79,1.0,,101.8,104.3,
2025-08-15T01:00:46.130Z,16,GR86-015-31,59.0,-1.159,0.961,4.21,1.0,5968.0,101.89,104.685,
2025-08-15T01:00:46.174Z,16,GR86-015-31,59.6,-1.081,0.637,3.64,1.0,,100.15,102.21,111.68
2025-08-15T01:00:46.216Z,16,GR86-015-31,59.6,-0.912,1.147,3.26,1.0,,96.17,98.335,
2025-08-15T01:00:46.259Z,16,GR86-015-31,59.8,-0.849,0.768,2.94,1.0,,85.625,87.3,
2025-08-15T01:00:46.304Z,16,GR86-015-31,65.3,-0.908,0.91,2.76,1.0,,73.60000000000001,74.025,
2025-08-15T01:00:46.348Z,16,GR86-015-31,71.8,-0.796,1.112,2.68,1.0,6369.0,64.87,66.395,
2025-08-15T01:00:46.391Z,16,GR86-015-31,76.7,-0.779,0.81,2.64,1.0,,55.575,56.815,103.44
2025-08-15T01:00:46.435Z,16,GR86-015-31,82.9,-0.6990000000000001,1.272,2.62,1.0,,53.64,54.555,
2025-08-15T01:00:46.478Z,16,GR86-015-31,85.30000000000001,-0.758,1.012,2.59,1.0,,48.955,50.07,
2025-08-15T01:00:46.521Z,16,GR86-015-31,86.2,-0.632,0.931,2.56,1.0,,41.675,42.835,
2025-08-15T01:00:46.565Z,16,GR86-015-31,86.2,-0.603,1.1,2.54,1.0,6468.0,38.18,39.155,
2025-08-15T01:00:46.607Z,16,GR86-015-31,86.30000000000001,-0.656,1.038,2.5500000000000003,1.0,,37.615,38.5,90.36
2025-08-15T01:00:46.651Z,16,GR86-015-31,87.60000000000001,-0.652,1.016,2.53,1.0,,36.245,37.02,
2025-08-15T01:00:46.695Z,16,GR86-015-31,89.60000000000001,-0.598,0.972,2.53,1.0,,34.03,34.52,
2025-08-15T01:00:46.738Z,16,GR86-015-31,91.7,-0.676,0.942,2.53,1.0,,35.085,35.495,
2025-08-15T01:00:46.781Z,16,GR86-015-31,93.5,-0.666,0.999,2.53,1.0,6173.0,36.275,36.73,
2025-08-15T01:00:46.825Z,16,GR86-015-31,94.7,-0.603,1.014,2.53,1.0,,32.93,33.94,85.99
2025-08-15T01:00:46.868Z,16,GR86-015-31,96.1,-0.594,1.001,2.52,1.0,,27.97,28.81,
2025-08-15T01:00:46.910Z,16,GR86-015-31,98.0,-0.579,0.927,2.53,1.0,,24.46,25.485,
2025-08-15T01:00:46.954Z,16,GR86-015-31,100.7,-0.609,1.086,2.53,1.0,,21.305,22.02,
2025-08-15T01:00:46.997Z,16,GR86-015-31,101.4,-0.531,1.07,2.52,1.0,5593.0,20.145,21.0,
2025-08-15T01:00:47.040Z,16,GR86-015-31,101.9,-0.466,1.097,2.53,1.0,,18.085,18.89,82.74
2025-08-15T01:00:47.084Z,16,GR86-015-31,102.7,-0.486,1.022,2.52,1.0,,16.740000000000002,17.61,
2025-08-15T01:00:47.126Z,16,GR86-015-31,103.7,-0.525,0.995,2.52,1.0,,14.145,14.97,
2025-08-15T01:00:47.169Z,16,GR86-015-31,104.6,-0.469,1.119,2.51,1.0,,7.11,7.675,
2025-08-15T01:00:47.212Z,16,GR86-015-31,105.8,-0.233,1.168,2.52,1.0,5420.0,0.0,0.0,
2025-08-15T01:00:47.255Z,16,GR86-015-31,108.2,-0.214,1.251,2.51,1.0,,0.0,0.0,79.26
2025-08-15T01:00:47.298Z,16,GR86-015-31,109.5,-0.198,1.185,3.16,1.0,,0.0,0.0,
2025-08-15T01:00:47.341Z,16,GR86-015-31,110.2,-0.209,1.182,4.23,1.0,,0.0,0.0,
2025-08-15T01:00:47.385Z,16,GR86-015-31,110.2,-0.228,1.228,7.98,1.0,,0.0,0.0,
2025-08-15T01:00:47.428Z,16,GR86-015-31,110.1,-0.215,1.237,20.37,1.0,5345.0,0.0,0.0,
2025-08-15T01:00:47.471Z,16,GR86-015-31,103.8,-0.202,1.275,20.54,1.0,,0.0,0.0,77.01
2025-08-15T01:00:47.515Z,16,GR86-015-31,90.1,-0.094,1.219,20.96,1.0,,0.0,0.0,
2025-08-15T01:00:47.557Z,16,GR86-015-31,80.5,-0.113,1.212,22.08,1.0,,0.0,0.0,
2025-08-15T01:00:47.600Z,16,GR86-015-31,68.3,-0.073,1.177,34.18,1.0,,0.0,0.0,
2025-08-15T01:00:47.644Z,16,GR86-015-31,53.1,0.023,1.064,73.76,1.0,5477.0,0.0,0.0,
2025-08-15T01:00:47.686Z,16,GR86-015-31,38.0,0.176,1.11,99.71,1.0,,0.0,0.0,75.27
2025-08-15T01:00:47.729Z,16,GR86-015-31,31.1,0.284,1.041,100.03,1.0,,0.0,0.0,
2025-08-15T01:00:47.772Z,16,GR86-015-31,31.9,0.4,0.934,100.05,1.0,,0.0,0.0,
2025-08-15T01:00:47.815Z,16,GR86-015-31,53.5,0.425,0.878,100.08,1.0,,0.0,0.0,
2025-08-15T01:00:47.858Z,16,GR86-015-31,71.3,0.338,1.022,100.08,1.0,5877.0,0.0,0.0,
2025-08-15T01:00:47.901Z,16,GR86-015-31,85.10000000000001,0.406,1.252,100.08,1.0,,0.0,0.0,74.47
2025-08-15T01:00:47.945Z,16,GR86-015-31,90.6,0.272,1.027,100.08,1.0,,0.0,0.0,
2025-08-15T01:00:47.987Z,16,GR86-015-31,92.7,0.061,1.417,100.06,1.0,,0.0,0.0,
2025-08-15T01:00:48.030Z,16,GR86-015-31,93.1,0.399,1.187,100.07,1.0,,0.0,0.0,
2025-08-15T01:00:48.074Z,16,GR86-015-31,93.5,0.361,0.962,100.05,1.0,5877.0,0.0,0.0,
2025-08-15T01:00:48.116Z,16,GR86-015-31,94.4,0.134,1.249,100.05,1.0,,0.0,0.0,75.37
2025-08-15T01:00:48.159Z,16,GR86-015-31,95.1,0.557,0.984,100.05,1.0,,0.0,0.0,
2025-08-15T01:00:48.202Z,16,GR86-015-31,95.1,0.43,0.9,100.05,1.0,,0.0,0.0,
2025-08-15T01:00:48.245Z,16,GR86-015-31,94.9,0.115,1.098,100.05,1.0,,0.0,0.0,
2025-08-15T01:00:48.289Z,16,GR86-015-31,94.8,0.359,0.896,100.05,1.0,6105.0,0.0,0.0,
2025-08-15T01:00:48.332Z,16,GR86-015-31,94.9,-0.069,1.128,100.06,1.0,,0.0,0.0,77.59
2025-08-15T01:00:48.375Z,16,GR86-015-31,94.9,0.261,1.344,100.06,1.0,,0.0,0.0,
2025-08-15T01:00:48.418Z,16,GR86-015-31,94.9,0.552,1.201,100.05,1.0,,0.0,0.0,
2025-08-15T01:00:48.461Z,16,GR86-015-31,95.0,0.436,1.186,100.04,1.0,,0.0,0.0,
2025-08-15T01:00:48.505Z,16,GR86-015-31,95.0,0.298,1.16,100.06,1.0,6436.0,0.0,0.0,
2025-08-15T01:00:48.547Z,16,GR86-015-31,95.0,0.31,1.096,100.05,1.0,,0.0,0.0,79.31
2025-08-15T01:00:48.590Z,16,GR86-015-31,94.0,0.274,1.098,100.04,1.0,,0.0,0.0,
2025-08-15T01:00:48.634Z,16,GR86-015-31,81.7,0.249,1.14,100.04,1.0,,0.0,0.0,
2025-08-15T01:00:48.676Z,16,GR86-015-31,68.9,0.288,1.203,100.04,1.0,,0.0,0.0,
2025-08-15T01:00:48.719Z,16,GR86-015-31,54.1,0.305,1.134,100.04,1.0,6334.0,0.0,0.0,
2025-08-15T01:00:48.762Z,16,GR86-015-31,37.4,0.334,1.141,100.05,1.0,,0.0,0.0,81.8
2025-08-15T01:00:48.805Z,16,GR86-015-31,18.4,0.357,1.078,100.02,1.0,,0.0,0.0,
2025-08-15T01:00:48.848Z,16,GR86-015-31,-1.3,0.361,0.999,100.02,1.0,,0.0,0.0,
2025-08-15T01:00:48.891Z,16,GR86-015-31,-22.0,0.389,0.886,100.03,1.0,,0.0,0.0,
2025-08-15T01:00:48.935Z,16,GR86-015-31,-48.0,0.381,0.752,100.05,1.0,6634.0,0.0,0.0,
2025-08-15T01:00:48.978Z,16,GR86-015-31,-55.6,0.384,0.619,100.05,1.0,,0.0,0.0,83.23
2025-08-15T01:00:49.021Z,16,GR86-015-31,-52.5,0.392,0.66,100.05,1.0,,0.0,0.0,
2025-08-15T01:00:49.065Z,16,GR86-015-31,-26.1,0.485,0.746,100.11,1.0,,0.0,0.0,
2025-08-15T01:00:49.107Z,16,GR86-015-31,8.5,0.46,0.914,100.11,1.0,,0.0,0.0,
2025-08-15T01:00:49.151Z,16,GR86-015-31,36.7,0.487,1.007,100.09,1.0,6844.0,0.0,0.0,
2025-08-15T01:00:49.195Z,16,GR86-015-31,57.2,0.422,1.066,100.05,1.0,,0.0,0.0,86.01
2025-08-15T01:00:49.238Z,16,GR86-015-31,57.6,0.391,1.077,100.04,1.0,,0.0,0.0,
2025-08-15T01:00:49.281Z,16,GR86-015-31,55.400000000000006,0.407,1.052,100.02,1.0,,0.0,0.0,
2025-08-15T01:00:49.325Z,16,GR86-015-31,47.6,0.405,0.98,100.04,1.0,,0.0,0.0,
2025-08-15T01:00:49.368Z,16,GR86-015-31,37.7,0.399,0.898,100.05,1.0,6843.0,0.0,0.0,
2025-08-15T01:00:49.410Z,16,GR86-015-31,29.6,0.371,0.794,100.05,1.0,,0.0,0.0,88.46000000000001
2025-08-15T01:00:49.455Z,16,GR86-015-31,25.9,0.383,0.65,100.04,1.0,,0.0,0.0,
2025-08-15T01:00:49.498Z,16,GR86-015-31,27.9,0.357,0.654,100.06,1.0,,0.0,0.0,
2025-08-15T01:00:49.541Z,16,GR86-015-31,33.9,0.402,0.612,100.03,1.0,,0.0,0.0,
2025-08-15T01:00:49.586Z,16,GR86-015-31,36.7,0.374,0.63,100.01,1.0,6799.0,0.0,0.0,
2025-08-15T01:00:49.628Z,16,GR86-015-31,36.5,0.38,0.603,100.05,1.0,,0.0,0.0,90.8
2025-08-15T01:00:49.671Z,16,GR86-015-31,32.300000000000004,0.345,0.581,100.01,1.0,,0.0,0.0,
2025-08-15T01:00:49.715Z,16,GR86-015-31,22.6,0.35,0.522,100.03,1.0,,0.0,0.0,
2025-08-15T01:00:49.757Z,16,GR86-015-31,19.200000000000003,0.376,0.484,100.03,1.0,,0.0,0.0,
2025-08-15T01:00:49.800Z,16,GR86-015-31,18.8,0.368,0.467,100.02,1.0,7130.0,0.0,0.0,
2025-08-15T01:00:49.844Z,16,GR86-015-31,18.8,0.398,0.439,100.01,1.0,,0.0,0.0,93.23
2025-08-15T01:00:49.886Z,16,GR86-015-31,18.4,0.367,0.425,100.02,1.0,,0.0,0.0,
2025-08-15T01:00:49.930Z,16,GR86-015-31,18.4,0.389,0.394,100.02,1.0,,0.0,0.0,
2025-08-15T01:00:49.975Z,16,GR86-015-31,18.5,0.361,0.362,100.04,1.0,,0.0,0.0,
2025-08-15T01:00:50.018Z,16,GR86-015-31,20.5,0.33,0.381,100.03,1.0,7277.0,0.0,0.0,
2025-08-15T01:00:50.061Z,16,GR86-015-31,25.700000000000003,0.318,0.395,100.0,1.0,,0.0,0.0,95.64
2025-08-15T01:00:50.105Z,16,GR86-015-31,33.0,0.226,0.458,100.02,1.0,,0.0,0.0,
2025-08-15T01:00:50.147Z,16,GR86-015-31,36.6,-0.042,0.559,100.01,2.0,,0.0,0.0,
2025-08-15T01:00:50.190Z,16,GR86-015-31,36.3,0.107,0.654,100.01,2.0,,0.0,0.0,
2025-08-15T01:00:50.234Z,16,GR86-015-31,24.0,0.542,0.558,99.99,2.0,6879.0,0.0,0.0,
2025-08-15T01:00:50.276Z,16,GR86-015-31,14.5,0.549,0.5660000000000001,100.03,2.0,,0.0,0.0,97.94
2025-08-15T01:00:50.319Z,16,GR86-015-31,8.9,0.479,0.5640000000000001,100.01,2.0,,0.0,0.0,
2025-08-15T01:00:50.362Z,16,GR86-015-31,7.7,0.309,0.446,100.01,2.0,,0.0,0.0,
2025-08-15T01:00:50.405Z,16,GR86-015-31,7.6,0.142,0.464,100.02,2.0,,0.0,0.0,
2025-08-15T01:00:50.448Z,16,GR86-015-31,6.7,0.236,0.339,100.02,2.0,5698.0,0.0,0.0,
2025-08-15T01:00:50.491Z,16,GR86-015-31,5.5,0.291,0.233,100.02,2.0,,0.0,0.0,99.95
2025-08-15T01:00:50.535Z,16,GR86-015-31,5.5,0.376,0.149,100.02,2.0,,0.0,0.0,
2025-08-15T01:00:50.578Z,16,GR86-015-31,5.0,0.341,0.052,100.03,2.0,,0.0,0.0,
2025-08-15T01:00:50.621Z,16,GR86-015-31,3.8,0.283,0.048,100.02,2.0,,0.0,0.0,
2025-08-15T01:00:50.665Z,16,GR86-015-31,3.2,0.278,0.046,100.02,2.0,5949.0,0.0,0.0,
2025-08-15T01:00:50.707Z,16,GR86-015-31,2.9000000000000004,0.28,0.032,100.03,2.0,,0.0,0.0,102.2
2025-08-15T01:00:50.751Z,16,GR86-015-31,2.9000000000000004,0.332,0.047,100.03,2.0,,0.0,0.0,
2025-08-15T01:00:50.795Z,16,GR86-015-31,2.7,0.329,0.047,100.02,2.0,,0.0,0.0,
2025-08-15T01:00:50.838Z,16,GR86-015-31,1.2000000000000002,0.303,0.022,100.02,2.0,,0.0,0.0,
2025-08-15T01:00:50.881Z,16,GR86-015-31,-1.5,0.304,0.018,100.01,2.0,6077.0,0.0,0.0,
2025-08-15T01:00:50.925Z,16,GR86-015-31,-4.7,0.312,-0.032,100.03,2.0,,0.0,0.0,104.19
2025-08-15T01:00:50.968Z,16,GR86-015-31,-7.1000000000000005,0.324,-0.067,100.02,2.0,,0.0,0.0,
2025-08-15T01:00:51.010Z,16,GR86-015-31,-8.200000000000001,0.317,-0.1,100.0,2.0,,0.0,0.0,
2025-08-15T01:00:51.054Z,16,GR86-015-31,-8.4,0.291,-0.173,100.0,2.0,,0.0,0.0,
2025-08-15T01:00:51.097Z,16,GR86-015-31,-8.4,0.303,-0.198,100.0,2.0,6163.0,0.0,0.0,
2025-08-15T01:00:51.140Z,16,GR86-015-31,-8.200000000000001,0.309,-0.204,99.99,2.0,,0.0,0.0,106.07
2025-08-15T01:00:51.184Z,16,GR86-015-31,-7.6,0.303,-0.216,100.01,2.0,,0.0,0.0,
2025-08-15T01:00:51.226Z,16,GR86-015-31,-6.7,0.333,-0.19,100.02,2.0,,0.0,0.0,
2025-08-15T01:00:51.269Z,16,GR86-015-31,-6.1000000000000005,0.307,-0.185,100.02,2.0,,0.0,0.0,
2025-08-15T01:00:51.312Z,16,GR86-015-31,-5.800000000000001,0.305,-0.162,100.02,2.0,6273.0,0.0,0.0,
2025-08-15T01:00:51.355Z,16,GR86-015-31,-5.4,0.314,-0.137,100.01,2.0,,0.0,0.0,107.83
2025-08-15T01:00:51.398Z,16,GR86-015-31,-5.4,0.314,-0.097,100.01,2.0,,0.0,0.0,
2025-08-15T01:00:51.441Z,16,GR86-015-31,-5.4,0.299,-0.108,100.02,2.0,,0.0,0.0,
2025-08-15T01:00:51.485Z,16,GR86-015-31,-5.4,0.321,-0.097,99.99,2.0,,0.0,0.0,
2025-08-15T01:00:51.528Z,16,GR86-015-31,-5.800000000000001,0.29,-0.119,100.02,2.0,6373.0,0.0,0.0,
2025-08-15T01:00:51.570Z,16,GR86-015-31,-5.9,0.319,-0.121,100.01,2.0,,0.0,0.0,109.64
2025-08-15T01:00:51.614Z,16,GR86-015-31,-5.9,0.331,-0.112,100.01,2.0,,0.0,0.0,
2025-08-15T01:00:51.656Z,16,GR86-015-31,-5.800000000000001,0.308,-0.123,100.0,2.0,,0.0,0.0,
2025-08-15T01:00:51.699Z,16,GR86-015-31,-5.7,0.292,-0.133,99.99,2.0,,0.0,0.0,
2025-08-15T01:00:51.742Z,16,GR86-015-31,-5.6000000000000005,0.321,-0.113,100.03,2.0,6464.0,0.0,0.0,
2025-08-15T01:00:51.785Z,16,GR86-015-31,-5.300000000000001,0.283,-0.121,100.01,2.0,,0.0,0.0,111.4
2025-08-15T01:00:51.828Z,16,GR86-015-31,-4.3,0.312,-0.116,100.01,2.0,,0.0,0.0,
2025-08-15T01:00:51.871Z,16,GR86-015-31,-3.2,0.327,-0.078,100.01,2.0,,0.0,0.0,
2025-08-15T01:00:51.915Z,16,GR86-015-31,-3.2,0.318,-0.066,100.0,2.0,,0.0,0.0,
2025-08-15T01:00:51.957Z,16,GR86-015-31,-3.2,0.292,-0.06,99.99,2.0,6563.0,0.0,0.0,
2025-08-15T01:00:52.000Z,16,GR86-015-31,-3.1,0.317,-0.056,100.01,2.0,,0.0,0.0,114.76
2025-08-15T01:00:52.045Z,16,GR86-015-31,-2.7,0.303,-0.05,99.99,2.0,,0.0,0.0,
2025-08-15T01:00:52.087Z,16,GR86-015-31,-2.7,0.288,-0.045,99.99,2.0,,0.0,0.0,
2025-08-15T01:00:52.130Z,16,GR86-015-31,-4.3,0.315,-0.052,100.02,2.0,,0.0,0.0,
2025-08-15T01:00:52.174Z,16,GR86-015-31,-5.9,0.314,-0.105,99.99,2.0,6651.0,0.0,0.0,
2025-08-15T01:00:52.218Z,16,GR86-015-31,-5.7,0.295,-0.134,100.0,2.0,,0.0,0.0,116.4
2025-08-15T01:00:52.260Z,16,GR86-015-31,-5.2,0.318,-0.122,100.02,2.0,,0.0,0.0,
2025-08-15T01:00:52.304Z,16,GR86-015-31,-5.2,0.31,-0.136,99.99,2.0,,0.0,0.0,
2025-08-15T01:00:52.348Z,16,GR86-015-31,-5.300000000000001,0.273,-0.145,100.02,2.0,,0.0,0.0,
2025-08-15T01:00:52.391Z,16,GR86-015-31,-5.2,0.319,-0.146,99.99,2.0,6742.0,0.0,0.0,
2025-08-15T01:00:52.435Z,16,GR86-015-31,-0.3,0.301,-0.108,99.99,2.0,,0.0,0.0,117.95
2025-08-15T01:00:52.478Z,16,GR86-015-31,1.1,0.324,-0.047,100.01,2.0,,0.0,0.0,
2025-08-15T01:00:52.521Z,16,GR86-015-31,1.1,0.276,-0.028,99.99,2.0,,0.0,0.0,
2025-08-15T01:00:52.565Z,16,GR86-015-31,-1.4,0.313,-0.017,99.99,2.0,,0.0,0.0,
2025-08-15T01:00:52.607Z,16,GR86-015-31,-4.3,0.319,-0.027,100.02,2.0,6912.0,0.0,0.0,
2025-08-15T01:00:52.651Z,16,GR86-015-31,-5.6000000000000005,0.293,-0.07,100.0,2.0,,0.0,0.0,119.44
2025-08-15T01:00:52.695Z,16,GR86-015-31,-5.6000000000000005,0.282,-0.082,99.99,2.0,,0.0,0.0,
2025-08-15T01:00:52.781Z,16,GR86-015-31,-5.6000000000000005,0.326,-0.143,100.01,2.0,,0.0,0.0,
2025-08-15T01:00:52.825Z,16,GR86-015-31,-5.6000000000000005,0.288,-0.139,99.98,2.0,6997.0,0.0,0.0,
2025-08-15T01:00:52.868Z,16,GR86-015-31,-5.6000000000000005,0.3,-0.164,99.99,2.0,,0.0,0.0,120.88
2025-08-15T01:00:52.910Z,16,GR86-015-31,-5.4,0.305,-0.181,100.02,2.0,,0.0,0.0,
2025-08-15T01:00:52.954Z,16,GR86-015-31,-4.9,0.299,-0.167,100.02,2.0,,0.0,0.0,
2025-08-15T01:00:52.997Z,16,GR86-015-31,-4.9,0.285,-0.16,99.99,2.0,,0.0,0.0,
2025-08-15T01:00:53.040Z,16,GR86-015-31,-4.9,0.321,-0.122,100.0,2.0,7085.0,0.0,0.0,
2025-08-15T01:00:53.084Z,16,GR86-015-31,-4.800000000000001,0.312,-0.119,100.0,2.0,,0.0,0.0,122.2
2025-08-15T01:00:53.126Z,16,GR86-015-31,-4.800000000000001,0.292,-0.132,100.02,2.0,,0.0,0.0,
2025-08-15T01:00:53.169Z,16,GR86-015-31,-4.2,0.301,-0.104,100.01,2.0,,0.0,0.0,
2025-08-15T01:00:53.212Z,16,GR86-015-31,-3.3000000000000003,0.31,-0.072,100.01,2.0,,0.0,0.0,
2025-08-15T01:00:53.255Z,16,GR86-015-31,-2.7,0.311,-0.066,100.02,2.0,7136.0,0.0,0.0,
2025-08-15T01:00:53.298Z,16,GR86-015-31,-2.7,0.279,-0.067,100.01,2.0,,0.0,0.0,123.47
2025-08-15T01:00:53.341Z,16,GR86-015-31,-2.6,0.275,-0.054,99.99,2.0,,0.0,0.0,
2025-08-15T01:00:53.385Z,16,GR86-015-31,-2.1,0.309,-0.035,100.01,2.0,,0.0,0.0,
2025-08-15T01:00:53.428Z,16,GR86-015-31,-1.5,0.3,-0.032,100.03,2.0,,0.0,0.0,
2025-08-15T01:00:53.471Z,16,GR86-015-31,-1.1,0.284,-0.009,100.01,2.0,7214.0,0.0,0.0,
2025-08-15T01:00:53.515Z,16,GR86-015-31,-1.1,0.261,-0.009,99.99,2.0,,0.0,0.0,124.72
2025-08-15T01:00:53.557Z,16,GR86-015-31,-1.1,0.04,0.02,99.99,3.0,,0.0,0.0,
2025-08-15T01:00:53.600Z,16,GR86-015-31,-1.0,-0.022,0.028,99.99,3.0,,0.0,0.0,
2025-08-15T01:00:53.644Z,16,GR86-015-31,-0.8,0.782,0.011,99.99,3.0,,0.0,0.0,
2025-08-15T01:00:53.686Z,16,GR86-015-31,-0.7000000000000001,0.476,0.009,99.99,3.0,6842.0,0.0,0.0,
2025-08-15T01:00:53.729Z,16,GR86-015-31,-0.7000000000000001,0.331,0.061,100.01,3.0,,0.0,0.0,125.98
2025-08-15T01:00:53.772Z,16,GR86-015-31,-0.7000000000000001,0.126,-0.04,100.0,3.0,,0.0,0.0,
2025-08-15T01:00:53.815Z,16,GR86-015-31,-0.7000000000000001,0.183,0.001,100.01,3.0,,0.0,0.0,
2025-08-15T01:00:53.858Z,16,GR86-015-31,-0.4,0.297,0.042,99.99,3.0,,0.0,0.0,
2025-08-15T01:00:53.901Z,16,GR86-015-31,0.2,0.3,0.014,100.01,3.0,5833.0,0.0,0.0,
2025-08-15T01:00:53.945Z,16,GR86-015-31,0.3,0.266,0.054,100.02,3.0,,0.0,0.0,126.88
2025-08-15T01:00:53.987Z,16,GR86-015-31,0.3,0.186,0.042,100.02,3.0,,0.0,0.0,
2025-08-15T01:00:54.031Z,16,GR86-015-31,0.5,0.23,0.022,100.02,3.0,,0.0,0.0,
2025-08-15T01:00:54.074Z,16,GR86-015-31,0.7000000000000001,0.272,0.055,99.99,3.0,,0.0,0.0,
2025-08-15T01:00:54.116Z,16,GR86-015-31,0.7000000000000001,0.285,0.039,99.99,3.0,5956.0,0.0,0.0,
2025-08-15T01:00:54.159Z,16,GR86-015-31,0.6000000000000001,0.244,0.056,100.0,3.0,,0.0,0.0,128.02
2025-08-15T01:00:54.202Z,16,GR86-015-31,-0.6000000000000001,0.233,0.038,100.0,3.0,,0.0,0.0,
2025-08-15T01:00:54.245Z,16,GR86-015-31,-2.1,0.258,0.024,99.99,3.0,,0.0,0.0,
2025-08-15T01:00:54.290Z,16,GR86-015-31,-2.7,0.274,-0.022,99.99,3.0,,0.0,0.0,
2025-08-15T01:00:54.332Z,16,GR86-015-31,-2.7,0.25,-0.04,99.99,3.0,6029.0,0.0,0.0,
2025-08-15T01:00:54.375Z,16,GR86-015-31,-2.7,0.248,-0.067,99.99,3.0,,0.0,0.0,128.91
2025-08-15T01:00:54.418Z,16,GR86-015-31,-2.7,0.25,-0.069,100.0,3.0,,0.0,0.0,
2025-08-15T01:00:54.461Z,16,GR86-015-31,-2.7,0.254,-0.088,100.0,3.0,,0.0,0.0,
2025-08-15T01:00:54.505Z,16,GR86-015-31,-0.8,0.265,-0.099,99.99,3.0,,0.0,0.0,
2025-08-15T01:00:54.547Z,16,GR86-015-31,1.2000000000000002,0.247,-0.044,99.99,3.0,6082.0,0.0,0.0,
2025-08-15T01:00:54.590Z,16,GR86-015-31,1.8,0.244,-0.027,99.98,3.0,,0.0,0.0,129.79
2025-08-15T01:00:54.634Z,16,GR86-015-31,1.8,0.244,0.016,99.99,3.0,,0.0,0.0,
2025-08-15T01:00:54.676Z,16,GR86-015-31,-0.2,0.251,0.013,99.99,3.0,,0.0,0.0,
2025-08-15T01:00:54.719Z,16,GR86-015-31,-1.0,0.253,0.004,99.99,3.0,,0.0,0.0,
2025-08-15T01:00:54.762Z,16,GR86-015-31,-1.0,0.249,0.006,99.98,3.0,6123.0,0.0,0.0,
2025-08-15T01:00:54.805Z,16,GR86-015-31,-0.3,0.245,0.031,99.99,3.0,,0.0,0.0,131.59
2025-08-15T01:00:54.848Z,16,GR86-015-31,0.9,0.258,0.024,100.02,3.0,,0.0,0.0,
2025-08-15T01:00:54.891Z,16,GR86-015-31,1.2000000000000002,0.245,0.043,99.99,3.0,,0.0,0.0,
2025-08-15T01:00:54.935Z,16,GR86-015-31,1.1,0.253,0.055,100.01,3.0,,0.0,0.0,
2025-08-15T01:00:54.978Z,16,GR86-015-31,1.2000000000000002,0.239,0.072,100.01,3.0,6172.0,0.0,0.0,
2025-08-15T01:00:55.021Z,16,GR86-015-31,1.2000000000000002,0.238,0.073,99.99,3.0,,3.1,3.065,132.51
2025-08-15T01:00:55.065Z,16,GR86-015-31,1.2000000000000002,0.207,0.076,99.99,3.0,,4.275,4.5,
2025-08-15T01:00:55.107Z,16,GR86-015-31,1.2000000000000002,0.196,0.072,92.14,3.0,,5.9350000000000005,6.12,
2025-08-15T01:00:55.151Z,16,GR86-015-31,1.2000000000000002,0.159,0.092,27.63,3.0,,11.55,11.675,
2025-08-15T01:00:55.195Z,16,GR86-015-31,1.2000000000000002,-0.03,0.071,3.1,3.0,6255.0,27.56,27.805,
2025-08-15T01:00:55.238Z,16,GR86-015-31,1.5,-0.476,0.072,3.0500000000000003,3.0,,44.085,44.255,133.23
2025-08-15T01:00:55.281Z,16,GR86-015-31,2.1,-0.789,0.088,3.01,3.0,,63.71,63.65,
2025-08-15T01:00:55.325Z,16,GR86-015-31,2.2,-0.951,0.026,2.94,3.0,,79.9,80.74,
2025-08-15T01:00:55.368Z,16,GR86-015-31,2.3000000000000003,-1.035,0.038,2.86,3.0,,94.37,96.29,
2025-08-15T01:00:55.410Z,16,GR86-015-31,3.7,-1.004,0.167,33.92,3.0,5520.0,100.61,101.74,
2025-08-15T01:00:55.454Z,16,GR86-015-31,9.1,-1.066,0.093,19.04,2.0,,102.045,103.645,128.83
2025-08-15T01:00:55.498Z,16,GR86-015-31,9.2,-1.177,0.143,4.68,2.0,,105.11,107.46,
2025-08-15T01:00:55.541Z,16,GR86-015-31,10.0,-1.265,0.038,4.29,2.0,,108.68,110.955,
2025-08-15T01:00:55.585Z,16,GR86-015-31,13.9,-1.099,0.04,3.9,2.0,,106.805,108.115,
2025-08-15T01:00:55.628Z,16,GR86-015-31,14.0,-1.218,0.141,3.52,2.0,5452.0,107.17,108.91,
2025-08-15T01:00:55.671Z,16,GR86-015-31,12.7,-1.118,0.153,3.23,2.0,,104.5,106.515,119.86
2025-08-15T01:00:55.715Z,16,GR86-015-31,15.2,-1.288,0.028,2.91,2.0,,98.365,98.93,
2025-08-15T01:00:55.758Z,16,GR86-015-31,23.0,-1.017,0.327,2.8000000000000003,2.0,,97.62,99.555,
2025-08-15T01:00:55.801Z,16,GR86-015-31,33.1,-0.927,0.028,2.76,2.0,,92.72,94.305,
2025-08-15T01:00:55.845Z,16,GR86-015-31,50.0,-1.317,0.176,2.75,2.0,5853.0,91.62,92.52,
2025-08-15T01:00:55.888Z,16,GR86-015-31,61.900000000000006,-0.885,0.779,2.68,2.0,,91.715,93.53,109.36
2025-08-15T01:00:55.930Z,16,GR86-015-31,62.8,-1.075,0.319,2.66,2.0,,79.81,81.06,
2025-08-15T01:00:55.974Z,16,GR86-015-31,62.3,-1.092,0.945,2.63,2.0,,57.745000000000005,58.46,
2025-08-15T01:00:56.018Z,16,GR86-015-31,57.0,-0.798,0.704,2.62,2.0,,44.225,45.215,
2025-08-15T01:00:56.060Z,16,GR86-015-31,44.0,-0.685,0.604,2.6,2.0,5393.0,33.1,34.03,
2025-08-15T01:00:56.104Z,16,GR86-015-31,34.5,-0.685,1.067,2.58,2.0,,24.31,24.83,103.63
2025-08-15T01:00:56.146Z,16,GR86-015-31,22.1,-0.444,0.5660000000000001,2.56,2.0,,20.63,21.41,
2025-08-15T01:00:56.190Z,16,GR86-015-31,18.1,-0.5720000000000001,0.388,2.56,2.0,,18.8,19.58,
2025-08-15T01:00:56.232Z,16,GR86-015-31,26.700000000000003,-0.427,0.599,2.56,2.0,,17.900000000000002,18.525,
2025-08-15T01:00:56.275Z,16,GR86-015-31,66.0,-0.5690000000000001,0.754,2.5500000000000003,2.0,5528.0,20.08,20.6,
2025-08-15T01:00:56.318Z,16,GR86-015-31,90.3,-0.495,0.771,2.53,2.0,,20.725,21.0,102.26
2025-08-15T01:00:56.361Z,16,GR86-015-31,98.8,-0.446,0.943,2.51,2.0,,21.15,21.715,
2025-08-15T01:00:56.405Z,16,GR86-015-31,98.8,-0.5,0.993,2.5,2.0,,19.21,20.08,
2025-08-15T01:00:56.447Z,16,GR86-015-31,97.4,-0.402,0.976,2.5,2.0,,9.185,9.72,
2025-08-15T01:00:56.490Z,16,GR86-015-31,92.9,-0.184,1.161,2.66,2.0,5350.0,1.955,2.365,
2025-08-15T01:00:56.534Z,16,GR86-015-31,71.60000000000001,-0.289,1.066,14.58,2.0,,0.0,0.0,98.24
2025-08-15T01:00:56.576Z,16,GR86-015-31,60.900000000000006,-0.202,1.091,13.66,2.0,,0.0,0.0,
2025-08-15T01:00:56.619Z,16,GR86-015-31,61.7,-0.129,1.13,13.24,2.0,,0.0,0.0,
2025-08-15T01:00:56.662Z,16,GR86-015-31,77.0,-0.153,1.179,12.45,2.0,,0.0,0.0,
2025-08-15T01:00:56.705Z,16,GR86-015-31,81.9,-0.109,1.177,11.46,2.0,5196.0,0.0,0.0,
2025-08-15T01:00:56.748Z,16,GR86-015-31,82.30000000000001,-0.106,1.216,10.31,2.0,,0.0,0.0,96.02
2025-08-15T01:00:56.791Z,16,GR86-015-31,79.60000000000001,-0.088,1.2,8.13,2.0,,0.0,0.0,
2025-08-15T01:00:56.835Z,16,GR86-015-31,78.80000000000001,-0.065,1.163,8.13,2.0,,0.0,0.0,
2025-08-15T01:00:56.878Z,16,GR86-015-31,81.0,-0.107,1.24,10.77,2.0,,0.0,0.0,
2025-08-15T01:00:56.921Z,16,GR86-015-31,82.2,-0.078,1.214,15.48,2.0,5253.0,0.0,0.0,
2025-08-15T01:00:56.965Z,16,GR86-015-31,82.2,-0.122,1.25,18.9,2.0,,0.0,0.0,94.52
2025-08-15T01:00:57.007Z,16,GR86-015-31,82.2,-0.082,1.213,19.05,2.0,,0.0,0.0,
2025-08-15T01:00:57.051Z,16,GR86-015-31,82.30000000000001,-0.118,1.228,22.63,2.0,,0.0,0.0,
2025-08-15T01:00:57.095Z,16,GR86-015-31,83.30000000000001,-0.089,1.21,26.5,2.0,,0.0,0.0,
2025-08-15T01:00:57.138Z,16,GR86-015-31,83.30000000000001,-0.104,1.197,35.25,2.0,5138.0,0.0,0.0,
2025-08-15T01:00:57.181Z,16,GR86-015-31,83.30000000000001,0.132,1.212,77.31,2.0,,0.0,0.0,93.36
2025-08-15T01:00:57.225Z,16,GR86-015-31,83.30000000000001,0.15,1.157,100.1,2.0,,0.0,0.0,
2025-08-15T01:00:57.268Z,16,GR86-015-31,83.30000000000001,0.247,1.089,100.08,2.0,,0.0,0.0,
2025-08-15T01:00:57.310Z,16,GR86-015-31,83.30000000000001,0.245,1.13,100.09,2.0,,0.0,0.0,
2025-08-15T01:00:57.354Z,16,GR86-015-31,83.7,0.239,1.104,100.08,2.0,5440.0,0.0,0.0,
2025-08-15T01:00:57.396Z,16,GR86-015-31,83.7,0.261,1.139,100.09,2.0,,0.0,0.0,90.93
2025-08-15T01:00:57.439Z,16,GR86-015-31,84.60000000000001,0.263,1.077,100.08,2.0,,0.0,0.0,
2025-08-15T01:00:57.482Z,16,GR86-015-31,81.60000000000001,0.166,1.204,100.09,2.0,,0.0,0.0,
2025-08-15T01:00:57.525Z,16,GR86-015-31,74.8,0.215,1.24,100.06,2.0,,0.0,0.0,
2025-08-15T01:00:57.569Z,16,GR86-015-31,68.60000000000001,0.454,1.083,100.08,2.0,5449.0,0.0,0.0,
2025-08-15T01:00:57.612Z,16,GR86-015-31,64.5,0.191,1.082,100.08,2.0,,0.0,0.0,91.95
2025-08-15T01:00:57.655Z,16,GR86-015-31,60.6,0.684,1.099,100.07,2.0,,0.0,0.0,
2025-08-15T01:00:57.698Z,16,GR86-015-31,60.6,-0.055,1.15,100.09,2.0,,0.0,0.0,
2025-08-15T01:00:57.741Z,16,GR86-015-31,62.5,0.091,1.215,100.09,2.0,,0.0,0.0,
2025-08-15T01:00:57.785Z,16,GR86-015-31,65.4,0.466,1.059,100.09,2.0,5545.0,0.0,0.0,
2025-08-15T01:00:57.828Z,16,GR86-015-31,68.9,0.536,1.038,100.08,2.0,,0.0,0.0,93.64
2025-08-15T01:00:57.871Z,16,GR86-015-31,72.9,0.179,0.971,100.09,2.0,,0.0,0.0,
2025-08-15T01:00:57.915Z,16,GR86-015-31,81.0,0.358,0.992,100.08,2.0,,0.0,0.0,
2025-08-15T01:00:57.957Z,16,GR86-015-31,86.60000000000001,0.005,1.183,100.09,2.0,,0.0,0.0,
2025-08-15T01:00:58.001Z,16,GR86-015-31,88.80000000000001,0.14,1.198,100.08,2.0,5735.0,0.0,0.0,
2025-08-15T01:00:58.044Z,16,GR86-015-31,89.10000000000001,0.333,1.118,100.08,2.0,,0.0,0.0,94.55
2025-08-15T01:00:58.086Z,16,GR86-015-31,89.10000000000001,0.189,1.134,100.09,2.0,,0.0,0.0,
2025-08-15T01:00:58.129Z,16,GR86-015-31,89.10000000000001,0.234,1.14,100.07,2.0,,0.0,0.0,
2025-08-15T01:00:58.172Z,16,GR86-015-31,89.2,0.242,1.147,100.08,2.0,,0.0,0.0,
2025-08-15T01:00:58.215Z,16,GR86-015-31,89.2,0.243,1.271,100.07,2.0,5748.0,0.0,0.0,
2025-08-15T01:00:58.258Z,16,GR86-015-31,89.2,0.235,1.176,100.07,2.0,,0.0,0.0,95.93
2025-08-15T01:00:58.302Z,16,GR86-015-31,89.2,0.227,1.166,100.08,2.0,,0.0,0.0,
2025-08-15T01:00:58.345Z,16,GR86-015-31,89.30000000000001,0.245,1.098,100.07,2.0,,0.0,0.0,
2025-08-15T01:00:58.387Z,16,GR86-015-31,89.30000000000001,0.24,1.124,100.08,2.0,,0.0,0.0,
2025-08-15T01:00:58.430Z,16,GR86-015-31,89.30000000000001,0.227,1.161,100.08,2.0,5801.0,0.0,0.0,
2025-08-15T01:00:58.474Z,16,GR86-015-31,89.4,0.223,1.115,100.09,2.0,,0.0,0.0,97.35
2025-08-15T01:00:58.517Z,16,GR86-015-31,89.4,0.206,1.096,100.07,2.0,,0.0,0.0,
2025-08-15T01:00:58.560Z,16,GR86-015-31,89.4,0.227,1.089,100.07,2.0,,0.0,0.0,
2025-08-15T01:00:58.604Z,16,GR86-015-31,89.4,0.197,1.067,100.08,2.0,,0.0,0.0,
2025-08-15T01:00:58.648Z,16,GR86-015-31,89.4,0.21,1.103,100.08,2.0,5857.0,0.0,0.0,
2025-08-15T01:00:58.691Z,16,GR86-015-31,89.4,0.217,1.075,100.08,2.0,,0.0,0.0,98.32
2025-08-15T01:00:58.735Z,16,GR86-015-31,89.4,0.166,1.06,100.08,2.0,,0.0,0.0,
2025-08-15T01:00:58.778Z,16,GR86-015-31,89.4,0.173,1.06,100.08,2.0,,0.0,0.0,
2025-08-15T01:00:58.821Z,16,GR86-015-31,88.0,0.173,1.125,100.09,2.0,,0.0,0.0,
2025-08-15T01:00:58.865Z,16,GR86-015-31,85.10000000000001,0.228,1.127,100.09,2.0,5963.0,0.0,0.0,
2025-08-15T01:00:58.907Z,16,GR86-015-31,79.60000000000001,0.225,1.186,100.08,2.0,,0.0,0.0,99.25
2025-08-15T01:00:58.951Z,16,GR86-015-31,72.7,0.214,1.209,100.07,2.0,,0.0,0.0,
2025-08-15T01:00:59.038Z,16,GR86-015-31,56.900000000000006,0.226,1.193,100.08,2.0,,0.0,0.0,
2025-08-15T01:00:59.081Z,16,GR86-015-31,47.8,0.246,1.181,100.05,2.0,6015.0,0.0,0.0,
2025-08-15T01:00:59.125Z,16,GR86-015-31,39.2,0.248,1.112,100.06,2.0,,0.0,0.0,100.42
2025-08-15T01:00:59.168Z,16,GR86-015-31,34.0,0.211,0.899,100.09,2.0,,0.0,0.0,
2025-08-15T01:00:59.210Z,16,GR86-015-31,29.9,0.167,1.152,100.09,2.0,,0.0,0.0,
2025-08-15T01:00:59.254Z,16,GR86-015-31,33.2,0.156,0.5640000000000001,100.1,2.0,,0.0,0.0,
2025-08-15T01:00:59.297Z,16,GR86-015-31,40.7,0.255,0.914,100.08,2.0,6094.0,0.0,0.0,
2025-08-15T01:00:59.341Z,16,GR86-015-31,47.3,0.34,0.924,100.09,2.0,,0.0,0.0,101.79
