timestamp,lap,vehicle_id,steering_angle,accx_can,accy_can,ath,gear,nmot,pbrake_f,pbrake_r,speed
2025-08-15T04:04:23.375Z,5,GR86-037-03,4.800000000000001,0.134,0.012,100.01,5.0,,0.0,0.0,
2025-08-15T04:04:23.418Z,5,GR86-037-03,4.800000000000001,0.126,-0.006,99.99,5.0,6405.0,0.0,0.0,
2025-08-15T04:04:23.463Z,5,GR86-037-03,4.800000000000001,0.121,0.027,100.0,5.0,,0.0,0.0,188.43
2025-08-15T04:04:23.505Z,5,GR86-037-03,4.800000000000001,0.123,0.055,100.0,5.0,,0.0,0.0,
2025-08-15T04:04:23.548Z,5,GR86-037-03,4.800000000000001,0.136,0.065,100.01,5.0,,0.0,0.0,
2025-08-15T04:04:23.592Z,5,GR86-037-03,4.800000000000001,0.109,0.062,100.0,5.0,,0.0,0.0,
2025-08-15T04:04:23.635Z,5,GR86-037-03,4.800000000000001,0.132,0.057,100.0,5.0,6442.0,0.0,0.0,
2025-08-15T04:04:23.679Z,5,GR86-037-03,4.800000000000001,0.136,0.046,99.99,5.0,,0.0,0.0,189.28
2025-08-15T04:04:23.722Z,5,GR86-037-03,4.800000000000001,0.114,0.048,99.99,5.0,,0.0,0.0,
2025-08-15T04:04:23.765Z,5,GR86-037-03,4.800000000000001,0.118,0.055,100.01,5.0,,0.0,0.0,
2025-08-15T04:04:23.808Z,5,GR86-037-03,4.800000000000001,0.114,0.081,100.01,5.0,,0.0,0.0,
2025-08-15T04:04:23.851Z,5,GR86-037-03,4.2,0.104,0.072,99.99,5.0,6460.0,0.0,0.0,
2025-08-15T04:04:23.894Z,5,GR86-037-03,3.8,0.12,0.061,100.0,5.0,,0.0,0.0,190.06
2025-08-15T04:04:23.937Z,5,GR86-037-03,3.8,0.13,0.059,100.0,5.0,,0.0,0.0,
2025-08-15T04:04:23.980Z,5,GR86-037-03,3.8,0.134,0.074,99.99,5.0,,0.0,0.0,
2025-08-15T04:04:24.024Z,5,GR86-037-03,3.6,0.114,0.04,99.99,5.0,,0.0,0.0,
2025-08-15T04:04:24.066Z,5,GR86-037-03,3.0,0.094,0.019,99.99,5.0,6488.0,0.0,0.0,
2025-08-15T04:04:24.109Z,5,GR86-037-03,2.3000000000000003,0.128,-0.012,100.01,5.0,,0.0,0.0,190.82
2025-08-15T04:04:24.153Z,5,GR86-037-03,1.9,0.088,-0.015,100.01,5.0,,0.0,0.0,
2025-08-15T04:04:24.197Z,5,GR86-037-03,1.9,0.1,-0.006,99.99,5.0,,0.0,0.0,
2025-08-15T04:04:24.240Z,5,GR86-037-03,1.9,0.123,-0.027,100.0,5.0,,0.0,0.0,
2025-08-15T04:04:24.284Z,5,GR86-037-03,1.9,0.129,-0.047,99.99,5.0,6513.0,0.0,0.0,
2025-08-15T04:04:24.327Z,5,GR86-037-03,1.9,0.108,-0.056,100.0,5.0,,0.0,0.0,191.61
2025-08-15T04:04:24.370Z,5,GR86-037-03,1.9,0.101,-0.067,100.0,5.0,,0.0,0.0,
2025-08-15T04:04:24.413Z,5,GR86-037-03,2.8000000000000003,0.107,-0.046,99.99,5.0,,0.0,0.0,
2025-08-15T04:04:24.456Z,5,GR86-037-03,4.4,0.097,-0.041,100.0,5.0,,0.0,0.0,
2025-08-15T04:04:24.499Z,5,GR86-037-03,4.6000000000000005,0.115,-0.049,99.98,5.0,6545.0,0.0,0.0,
2025-08-15T04:04:24.544Z,5,GR86-037-03,4.6000000000000005,0.13,-0.026,99.99,5.0,,0.0,0.0,193.26
2025-08-15T04:04:24.587Z,5,GR86-037-03,4.6000000000000005,0.106,-0.013,100.0,5.0,,0.0,0.0,
2025-08-15T04:04:24.630Z,5,GR86-037-03,3.3000000000000003,0.124,-0.001,100.01,5.0,,0.0,0.0,
2025-08-15T04:04:24.673Z,5,GR86-037-03,3.2,0.11,0.011,99.99,5.0,,0.0,0.0,
2025-08-15T04:04:24.716Z,5,GR86-037-03,3.1,0.098,0.0,100.0,5.0,6570.0,0.0,0.0,
2025-08-15T04:04:24.759Z,5,GR86-037-03,3.1,0.102,0.005,99.99,5.0,,0.0,0.0,194.01
2025-08-15T04:04:24.803Z,5,GR86-037-03,3.1,0.125,0.009,100.0,5.0,,0.0,0.0,
2025-08-15T04:04:24.845Z,5,GR86-037-03,3.4000000000000004,0.111,0.003,100.0,5.0,,0.0,0.0,
2025-08-15T04:04:24.888Z,5,GR86-037-03,3.5,0.1,0.012,99.99,5.0,,0.0,0.0,
2025-08-15T04:04:24.931Z,5,GR86-037-03,3.5,0.106,0.013,99.99,5.0,6600.0,0.0,0.0,
2025-08-15T04:04:24.974Z,5,GR86-037-03,4.3,0.083,0.045,100.0,5.0,,0.0,0.0,194.82
2025-08-15T04:04:25.017Z,5,GR86-037-03,6.1000000000000005,0.12,0.043,100.02,5.0,,0.0,0.0,
2025-08-15T04:04:25.060Z,5,GR86-037-03,6.9,0.101,0.049,100.0,5.0,,0.0,0.0,
2025-08-15T04:04:25.104Z,5,GR86-037-03,5.6000000000000005,0.117,0.041,99.99,5.0,,0.0,0.0,
2025-08-15T04:04:25.147Z,5,GR86-037-03,3.8,0.098,0.024,99.98,5.0,6650.0,0.0,0.0,
2025-08-15T04:04:25.190Z,5,GR86-037-03,2.3000000000000003,0.118,0.051,100.01,5.0,,0.0,0.0,195.65
2025-08-15T04:04:25.234Z,5,GR86-037-03,2.1,0.124,0.052,100.0,5.0,,0.0,0.0,
2025-08-15T04:04:25.277Z,5,GR86-037-03,2.7,0.09,0.068,99.99,5.0,,0.0,0.0,
2025-08-15T04:04:25.320Z,5,GR86-037-03,4.5,0.115,0.055,100.0,5.0,,0.0,0.0,
2025-08-15T04:04:25.364Z,5,GR86-037-03,4.800000000000001,0.131,0.041,100.0,5.0,6668.0,0.0,0.0,
2025-08-15T04:04:25.406Z,5,GR86-037-03,4.800000000000001,0.1,0.047,99.98,5.0,,0.0,0.0,196.42
2025-08-15T04:04:25.449Z,5,GR86-037-03,5.0,0.099,0.023,100.0,5.0,,0.0,0.0,
2025-08-15T04:04:25.492Z,5,GR86-037-03,6.2,0.095,0.031,99.99,5.0,,0.0,0.0,
2025-08-15T04:04:25.535Z,5,GR86-037-03,8.4,0.108,0.069,100.02,5.0,,0.0,0.0,
2025-08-15T04:04:25.578Z,5,GR86-037-03,8.8,0.117,0.087,99.99,5.0,6706.0,0.0,0.0,
2025-08-15T04:04:25.621Z,5,GR86-037-03,8.8,0.127,0.149,99.99,5.0,,0.0,0.0,197.13
2025-08-15T04:04:25.664Z,5,GR86-037-03,6.5,0.099,0.162,100.01,5.0,,0.0,0.0,
2025-08-15T04:04:25.707Z,5,GR86-037-03,5.0,0.1,0.169,100.01,5.0,,0.0,0.0,
2025-08-15T04:04:25.750Z,5,GR86-037-03,4.3,0.112,0.153,100.0,5.0,,0.0,0.0,
2025-08-15T04:04:25.793Z,5,GR86-037-03,3.6,0.1,0.148,100.01,5.0,6731.0,0.0,0.0,
2025-08-15T04:04:25.836Z,5,GR86-037-03,3.4000000000000004,0.121,0.142,100.02,5.0,,0.0,0.0,197.97
2025-08-15T04:04:25.879Z,5,GR86-037-03,3.4000000000000004,0.117,0.148,100.0,5.0,,0.0,0.0,
2025-08-15T04:04:25.923Z,5,GR86-037-03,3.4000000000000004,0.113,0.077,99.98,5.0,,0.0,0.0,
2025-08-15T04:04:25.965Z,5,GR86-037-03,3.4000000000000004,0.118,0.046,99.98,5.0,,0.0,0.0,
2025-08-15T04:04:26.008Z,5,GR86-037-03,3.4000000000000004,0.113,0.022,100.0,5.0,6757.0,0.0,0.0,
2025-08-15T04:04:26.051Z,5,GR86-037-03,3.4000000000000004,0.131,0.034,99.99,5.0,,0.0,0.0,198.78
2025-08-15T04:04:26.094Z,5,GR86-037-03,3.4000000000000004,0.109,0.003,99.99,5.0,,0.0,0.0,
2025-08-15T04:04:26.137Z,5,GR86-037-03,3.4000000000000004,0.119,0.0,100.03,5.0,,0.0,0.0,
2025-08-15T04:04:26.180Z,5,GR86-037-03,3.4000000000000004,0.1,-0.015,100.0,5.0,,0.0,0.0,
2025-08-15T04:04:26.224Z,5,GR86-037-03,3.4000000000000004,0.117,-0.007,99.99,5.0,6785.0,0.0,0.0,
2025-08-15T04:04:26.267Z,5,GR86-037-03,3.4000000000000004,0.125,-0.022,99.98,5.0,,0.0,0.0,199.61
2025-08-15T04:04:26.310Z,5,GR86-037-03,3.4000000000000004,0.107,-0.005,100.01,5.0,,0.0,0.0,
2025-08-15T04:04:26.353Z,5,GR86-037-03,3.4000000000000004,0.11,0.01,100.01,5.0,,0.0,0.0,
2025-08-15T04:04:26.396Z,5,GR86-037-03,3.4000000000000004,0.079,-0.004,100.0,5.0,,0.0,0.0,
2025-08-15T04:04:26.439Z,5,GR86-037-03,3.4000000000000004,0.108,0.015,100.01,5.0,6814.0,0.0,0.0,
2025-08-15T04:04:26.483Z,5,GR86-037-03,3.4000000000000004,0.115,-0.001,100.01,5.0,,0.0,0.0,200.34
2025-08-15T04:04:26.525Z,5,GR86-037-03,4.7,0.11,0.006,100.0,5.0,,0.0,0.0,
2025-08-15T04:04:26.568Z,5,GR86-037-03,6.0,0.099,0.003,100.02,5.0,,0.0,0.0,
2025-08-15T04:04:26.611Z,5,GR86-037-03,6.1000000000000005,0.088,0.014,99.99,5.0,,0.0,0.0,
2025-08-15T04:04:26.654Z,5,GR86-037-03,6.1000000000000005,0.091,0.019,99.99,5.0,6824.0,0.0,0.0,
2025-08-15T04:04:26.697Z,5,GR86-037-03,6.0,0.105,0.047,100.01,5.0,,0.0,0.0,201.19
2025-08-15T04:04:26.740Z,5,GR86-037-03,5.9,0.116,0.043,100.0,5.0,,0.0,0.0,
2025-08-15T04:04:26.784Z,5,GR86-037-03,5.9,0.089,0.084,99.99,5.0,,0.0,0.0,
2025-08-15T04:04:26.826Z,5,GR86-037-03,5.9,0.098,0.093,100.01,5.0,,0.0,0.0,
2025-08-15T04:04:26.869Z,5,GR86-037-03,5.9,0.099,0.112,99.98,5.0,6856.0,0.0,0.0,
2025-08-15T04:04:26.913Z,5,GR86-037-03,5.800000000000001,0.095,0.092,99.99,5.0,,0.0,0.0,201.83
2025-08-15T04:04:26.956Z,5,GR86-037-03,5.9,0.117,0.099,99.98,5.0,,0.0,0.0,
2025-08-15T04:04:26.999Z,5,GR86-037-03,5.800000000000001,0.115,0.104,100.0,5.0,,0.0,0.0,
2025-08-15T04:04:27.044Z,5,GR86-037-03,5.800000000000001,0.11,0.105,99.98,5.0,,0.0,0.0,
2025-08-15T04:04:27.087Z,5,GR86-037-03,5.800000000000001,0.103,0.097,100.01,5.0,6886.0,0.0,0.0,
2025-08-15T04:04:27.130Z,5,GR86-037-03,5.7,0.115,0.073,99.99,5.0,,0.0,0.0,202.5
2025-08-15T04:04:27.173Z,5,GR86-037-03,5.7,0.1,0.094,99.99,5.0,,0.0,0.0,
2025-08-15T04:04:27.216Z,5,GR86-037-03,5.7,0.104,0.092,100.0,5.0,,0.0,0.0,
2025-08-15T04:04:27.259Z,5,GR86-037-03,5.2,0.071,0.062,100.01,5.0,,0.0,0.0,
2025-08-15T04:04:27.303Z,5,GR86-037-03,4.0,0.088,0.033,99.99,5.0,6912.0,0.0,0.0,
2025-08-15T04:04:27.347Z,5,GR86-037-03,3.8,0.115,0.062,100.0,5.0,,0.0,0.0,204.22
2025-08-15T04:04:27.390Z,5,GR86-037-03,3.8,0.09,0.07,99.99,5.0,,0.0,0.0,
2025-08-15T04:04:27.433Z,5,GR86-037-03,3.8,0.093,0.054,100.0,5.0,,0.0,0.0,
2025-08-15T04:04:27.476Z,5,GR86-037-03,3.8,0.099,0.016,100.01,5.0,,0.0,0.0,
2025-08-15T04:04:27.519Z,5,GR86-037-03,3.8,0.096,0.023,99.98,5.0,6940.0,0.0,0.0,
2025-08-15T04:04:27.606Z,5,GR86-037-03,3.8,0.103,0.009,99.99,5.0,,0.0,0.0,204.95
2025-08-15T04:04:27.649Z,5,GR86-037-03,3.8,0.088,0.013,99.99,5.0,,0.0,0.0,
2025-08-15T04:04:27.693Z,5,GR86-037-03,3.8,0.122,-0.01,99.99,5.0,,0.0,0.0,
2025-08-15T04:04:27.735Z,5,GR86-037-03,3.8,0.119,-0.007,100.0,5.0,6965.0,0.0,0.0,
2025-08-15T04:04:27.778Z,5,GR86-037-03,3.8,0.099,0.006,99.99,5.0,,0.0,0.0,205.81
2025-08-15T04:04:27.823Z,5,GR86-037-03,3.8,0.092,-0.014,100.01,5.0,,0.0,0.0,
2025-08-15T04:04:27.865Z,5,GR86-037-03,3.8,0.11,-0.011,100.0,5.0,,0.0,0.0,
2025-08-15T04:04:27.908Z,5,GR86-037-03,3.8,0.098,-0.015,100.01,5.0,,0.0,0.0,
2025-08-15T04:04:27.952Z,5,GR86-037-03,3.8,0.102,-0.027,99.99,5.0,7018.0,0.0,0.0,
2025-08-15T04:04:27.995Z,5,GR86-037-03,3.8,0.093,-0.005,100.01,5.0,,0.0,0.0,206.5
2025-08-15T04:04:28.038Z,5,GR86-037-03,3.8,0.096,0.012,99.99,5.0,,0.0,0.0,
2025-08-15T04:04:28.081Z,5,GR86-037-03,3.8,0.079,0.023,99.98,5.0,,0.0,0.0,
2025-08-15T04:04:28.124Z,5,GR86-037-03,5.7,0.074,-0.002,99.99,5.0,,0.0,0.0,
2025-08-15T04:04:28.167Z,5,GR86-037-03,6.5,0.089,0.029,100.01,5.0,7043.0,0.0,0.0,
2025-08-15T04:04:28.210Z,5,GR86-037-03,6.6000000000000005,0.087,0.038,99.99,5.0,,0.0,0.0,207.34
2025-08-15T04:04:28.253Z,5,GR86-037-03,6.6000000000000005,0.094,0.028,100.0,5.0,,0.0,0.0,
2025-08-15T04:04:28.296Z,5,GR86-037-03,6.6000000000000005,0.08,0.059,99.99,5.0,,0.0,0.0,
2025-08-15T04:04:28.339Z,5,GR86-037-03,6.6000000000000005,0.092,0.043,99.99,5.0,,0.0,0.0,
2025-08-15T04:04:28.384Z,5,GR86-037-03,6.1000000000000005,0.081,0.082,100.0,5.0,7074.0,0.0,0.0,
2025-08-15T04:04:28.427Z,5,GR86-037-03,5.9,0.083,0.088,99.99,5.0,,0.0,0.0,208.11
2025-08-15T04:04:28.470Z,5,GR86-037-03,5.800000000000001,0.078,0.11,100.0,5.0,,0.0,0.0,
2025-08-15T04:04:28.513Z,5,GR86-037-03,5.800000000000001,0.067,0.11,100.0,5.0,,0.0,0.0,
2025-08-15T04:04:28.556Z,5,GR86-037-03,5.7,0.094,0.081,100.0,5.0,,0.0,0.0,
2025-08-15T04:04:28.599Z,5,GR86-037-03,5.4,0.08,0.073,100.0,5.0,7096.0,0.0,0.0,
2025-08-15T04:04:28.644Z,5,GR86-037-03,4.5,0.06,0.087,100.0,5.0,,0.0,0.0,208.88
2025-08-15T04:04:28.687Z,5,GR86-037-03,4.4,0.062,0.052,100.0,5.0,,0.0,0.0,
2025-08-15T04:04:28.730Z,5,GR86-037-03,4.4,0.106,0.056,100.0,5.0,,0.0,0.0,
2025-08-15T04:04:28.774Z,5,GR86-037-03,4.4,0.052,0.045,99.98,5.0,,0.0,0.0,
2025-08-15T04:04:28.817Z,5,GR86-037-03,4.4,0.069,0.039,100.03,5.0,7113.0,0.0,0.0,
2025-08-15T04:04:28.860Z,5,GR86-037-03,4.4,0.092,0.011,99.99,5.0,,0.0,0.0,209.54
2025-08-15T04:04:28.904Z,5,GR86-037-03,4.4,0.104,0.039,100.01,5.0,,0.0,0.0,
2025-08-15T04:04:28.947Z,5,GR86-037-03,4.4,0.077,0.035,99.99,5.0,,0.0,0.0,
2025-08-15T04:04:28.990Z,5,GR86-037-03,4.4,0.096,0.031,100.01,5.0,,0.0,0.0,
2025-08-15T04:04:29.033Z,5,GR86-037-03,4.4,0.071,0.012,99.99,5.0,7133.0,0.0,0.0,
2025-08-15T04:04:29.076Z,5,GR86-037-03,4.4,0.088,0.025,100.0,5.0,,0.0,0.0,210.16
2025-08-15T04:04:29.119Z,5,GR86-037-03,4.3,0.096,0.022,99.98,5.0,,0.0,0.0,
2025-08-15T04:04:29.163Z,5,GR86-037-03,4.0,0.097,0.017,99.99,5.0,,0.0,0.0,
2025-08-15T04:04:29.205Z,5,GR86-037-03,4.0,0.085,0.004,100.0,5.0,,0.0,0.0,
2025-08-15T04:04:29.248Z,5,GR86-037-03,4.0,0.081,0.012,99.99,5.0,7153.0,0.0,0.0,
2025-08-15T04:04:29.291Z,5,GR86-037-03,4.0,0.098,0.005,100.0,5.0,,0.0,0.0,210.75
2025-08-15T04:04:29.334Z,5,GR86-037-03,4.0,0.08,-0.019,100.01,5.0,,0.0,0.0,
2025-08-15T04:04:29.377Z,5,GR86-037-03,4.0,0.077,0.015,99.99,5.0,,0.0,0.0,
2025-08-15T04:04:29.420Z,5,GR86-037-03,4.0,0.083,0.02,100.01,5.0,,0.0,0.0,
2025-08-15T04:04:29.464Z,5,GR86-037-03,2.6,0.089,0.012,100.01,5.0,7168.0,0.0,0.0,
2025-08-15T04:04:29.507Z,5,GR86-037-03,1.2000000000000002,0.093,-0.007,99.99,5.0,,0.0,0.0,211.3
2025-08-15T04:04:29.550Z,5,GR86-037-03,0.9,0.088,-0.016,99.99,5.0,,0.0,0.0,
2025-08-15T04:04:29.593Z,5,GR86-037-03,0.9,0.086,-0.02,100.01,5.0,,0.0,0.0,
2025-08-15T04:04:29.636Z,5,GR86-037-03,0.9,0.087,0.002,100.0,5.0,,0.0,0.0,
2025-08-15T04:04:29.679Z,5,GR86-037-03,1.3,0.084,-0.043,99.99,5.0,7196.0,0.0,0.0,
2025-08-15T04:04:29.723Z,5,GR86-037-03,1.8,0.09,-0.073,100.01,5.0,,0.0,0.0,211.87
2025-08-15T04:04:29.765Z,5,GR86-037-03,1.8,0.063,-0.111,100.0,5.0,,0.0,0.0,
2025-08-15T04:04:29.808Z,5,GR86-037-03,1.8,-0.18,-0.073,100.0,6.0,,0.0,0.0,
2025-08-15T04:04:29.851Z,5,GR86-037-03,1.8,0.159,-0.025,99.99,6.0,,0.0,0.0,
2025-08-15T04:04:29.894Z,5,GR86-037-03,1.8,0.149,-0.124,100.01,6.0,7216.0,0.0,0.0,
2025-08-15T04:04:29.937Z,5,GR86-037-03,1.8,0.088,-0.072,99.99,6.0,,0.0,0.0,212.43
2025-08-15T04:04:29.980Z,5,GR86-037-03,1.8,0.032,-0.038,100.0,6.0,,0.0,0.0,
2025-08-15T04:04:30.024Z,5,GR86-037-03,1.8,0.111,-0.133,100.01,6.0,,0.0,0.0,
2025-08-15T04:04:30.066Z,5,GR86-037-03,1.8,0.084,-0.032,100.0,6.0,,0.0,0.0,
2025-08-15T04:04:30.109Z,5,GR86-037-03,1.8,0.039,-0.072,99.99,6.0,7233.0,0.0,0.0,
2025-08-15T04:04:30.153Z,5,GR86-037-03,1.8,0.063,-0.092,100.0,6.0,,0.0,0.0,213.34
2025-08-15T04:04:30.197Z,5,GR86-037-03,1.8,0.073,-0.063,100.01,6.0,,0.0,0.0,
2025-08-15T04:04:30.240Z,5,GR86-037-03,1.8,0.066,-0.068,99.99,6.0,,0.0,0.0,
2025-08-15T04:04:30.284Z,5,GR86-037-03,1.8,0.069,-0.029,100.0,6.0,,0.0,0.0,
2025-08-15T04:04:30.326Z,5,GR86-037-03,1.8,0.052,-0.022,99.99,6.0,6484.0,0.0,0.0,
2025-08-15T04:04:30.369Z,5,GR86-037-03,1.8,0.072,-0.031,99.99,6.0,,0.0,0.0,213.92
2025-08-15T04:04:30.413Z,5,GR86-037-03,1.8,0.074,-0.041,100.0,6.0,,0.0,0.0,
2025-08-15T04:04:30.456Z,5,GR86-037-03,1.8,0.047,-0.047,100.0,6.0,,0.0,0.0,
2025-08-15T04:04:30.499Z,5,GR86-037-03,1.8,0.085,-0.024,100.0,6.0,,0.0,0.0,
2025-08-15T04:04:30.587Z,5,GR86-037-03,1.9,0.073,-0.047,100.01,6.0,6559.0,0.0,0.0,214.45
2025-08-15T04:04:30.630Z,5,GR86-037-03,2.2,0.05,-0.044,99.98,6.0,,0.0,0.0,
2025-08-15T04:04:30.673Z,5,GR86-037-03,3.2,0.072,-0.04,100.0,6.0,,0.0,0.0,
2025-08-15T04:04:30.716Z,5,GR86-037-03,4.0,0.083,-0.033,99.99,6.0,,0.0,0.0,
2025-08-15T04:04:30.759Z,5,GR86-037-03,4.2,0.047,-0.028,100.0,6.0,6579.0,0.0,0.0,
2025-08-15T04:04:30.802Z,5,GR86-037-03,4.2,0.063,0.007,100.01,6.0,,0.0,0.0,214.95
2025-08-15T04:04:30.845Z,5,GR86-037-03,4.2,0.102,0.015,100.01,6.0,,0.0,0.0,
2025-08-15T04:04:30.888Z,5,GR86-037-03,4.2,0.051,0.016,99.98,6.0,,0.0,0.0,
2025-08-15T04:04:30.931Z,5,GR86-037-03,4.2,0.052,0.03,100.0,6.0,,0.0,0.0,
2025-08-15T04:04:30.974Z,5,GR86-037-03,4.2,0.091,0.028,99.99,6.0,6592.0,0.0,0.0,
2025-08-15T04:04:31.017Z,5,GR86-037-03,4.2,0.071,0.037,100.02,6.0,,0.0,0.0,215.46
2025-08-15T04:04:31.060Z,5,GR86-037-03,4.2,0.072,0.015,100.01,6.0,,0.0,0.0,
2025-08-15T04:04:31.103Z,5,GR86-037-03,4.2,0.065,0.014,100.01,6.0,,0.0,0.0,
2025-08-15T04:04:31.146Z,5,GR86-037-03,4.2,0.086,0.023,99.99,6.0,,0.0,0.0,
2025-08-15T04:04:31.189Z,5,GR86-037-03,4.2,0.049,0.015,100.01,6.0,6603.0,0.0,0.0,
2025-08-15T04:04:31.233Z,5,GR86-037-03,4.2,0.057,-0.014,100.0,6.0,,0.0,0.0,215.95
2025-08-15T04:04:31.277Z,5,GR86-037-03,4.2,0.061,0.011,99.99,6.0,,0.0,0.0,
2025-08-15T04:04:31.320Z,5,GR86-037-03,4.2,0.075,0.016,100.01,6.0,,0.0,0.0,
2025-08-15T04:04:31.364Z,5,GR86-037-03,4.2,0.084,0.009,99.99,6.0,,0.0,0.0,
2025-08-15T04:04:31.406Z,5,GR86-037-03,4.2,0.073,0.027,99.99,6.0,6619.0,0.0,0.0,
2025-08-15T04:04:31.449Z,5,GR86-037-03,4.2,0.071,0.011,100.01,6.0,,0.0,0.0,216.51
2025-08-15T04:04:31.492Z,5,GR86-037-03,4.2,0.058,0.037,66.7,6.0,,0.0,0.0,
2025-08-15T04:04:31.535Z,5,GR86-037-03,4.2,0.073,0.033,3.54,6.0,,0.0,0.0,
2025-08-15T04:04:31.578Z,5,GR86-037-03,4.2,0.046,-0.001,2.56,6.0,,0.0,0.0,
2025-08-15T04:04:31.621Z,5,GR86-037-03,3.6,-0.162,0.016,2.4,6.0,6634.0,5.465,5.965,
2025-08-15T04:04:31.664Z,5,GR86-037-03,2.5,-0.535,0.033,2.37,6.0,,59.3,59.71,216.96
2025-08-15T04:04:31.707Z,5,GR86-037-03,0.8,-1.08,0.023,2.37,6.0,,84.51,84.145,
2025-08-15T04:04:31.750Z,5,GR86-037-03,-2.2,-1.348,0.085,2.38,6.0,,100.87,100.7,
2025-08-15T04:04:31.793Z,5,GR86-037-03,-3.8,-1.484,0.051,2.36,6.0,,115.96,117.61,
2025-08-15T04:04:31.836Z,5,GR86-037-03,-3.8,-1.426,-0.011,2.36,6.0,6654.0,122.31,125.21,
2025-08-15T04:04:31.879Z,5,GR86-037-03,-3.7,-1.494,0.003,2.36,6.0,,120.25,123.24,217.38
2025-08-15T04:04:31.923Z,5,GR86-037-03,-2.2,-1.472,-0.048,2.4,6.0,,115.18,116.83,
2025-08-15T04:04:31.965Z,5,GR86-037-03,-0.4,-1.29,0.02,2.39,6.0,,109.095,111.305,
2025-08-15T04:04:32.008Z,5,GR86-037-03,0.3,-1.162,-0.025,2.4,6.0,,99.405,101.42,
2025-08-15T04:04:32.051Z,5,GR86-037-03,0.3,-1.257,-0.03,2.39,6.0,6466.0,84.74,87.3,
2025-08-15T04:04:32.094Z,5,GR86-037-03,0.3,-1.267,-0.049,2.39,6.0,,79.93,82.33,216.85
2025-08-15T04:04:32.137Z,5,GR86-037-03,0.3,-1.325,-0.09,5.51,6.0,,81.81,82.435,
2025-08-15T04:04:32.180Z,5,GR86-037-03,0.3,-1.384,-0.097,48.47,6.0,,86.525,87.745,
2025-08-15T04:04:32.224Z,5,GR86-037-03,4.2,-1.378,-0.156,68.97,5.0,,83.275,84.92,
2025-08-15T04:04:32.267Z,5,GR86-037-03,8.1,-1.356,-0.111,5.78,5.0,6157.0,70.27,72.485,
2025-08-15T04:04:32.310Z,5,GR86-037-03,9.3,-1.137,-0.113,3.43,5.0,,63.56,64.58,203.8
2025-08-15T04:04:32.353Z,5,GR86-037-03,9.9,-1.048,-0.194,2.99,5.0,,57.53,58.4,
2025-08-15T04:04:32.439Z,5,GR86-037-03,10.7,-1.043,-0.123,2.71,5.0,,50.405,51.870000000000005,
2025-08-15T04:04:32.483Z,5,GR86-037-03,10.6,-0.985,-0.165,2.61,5.0,5542.0,49.870000000000005,50.465,
2025-08-15T04:04:32.525Z,5,GR86-037-03,6.6000000000000005,-1.071,-0.089,2.58,5.0,,50.465,51.0,193.35
2025-08-15T04:04:32.568Z,5,GR86-037-03,0.8,-1.089,-0.042,3.45,5.0,,51.120000000000005,51.715,
2025-08-15T04:04:32.611Z,5,GR86-037-03,-3.4000000000000004,-1.027,-0.068,44.51,4.0,,51.96,52.405,
2025-08-15T04:04:32.654Z,5,GR86-037-03,-3.3000000000000003,-1.0,-0.036,37.89,4.0,,52.86,53.425,
2025-08-15T04:04:32.697Z,5,GR86-037-03,0.9,-1.216,-0.046,5.58,4.0,6011.0,54.585,55.67,
2025-08-15T04:04:32.740Z,5,GR86-037-03,2.5,-1.172,0.031,4.26,4.0,,56.935,58.49,186.67
2025-08-15T04:04:32.784Z,5,GR86-037-03,-0.4,-1.2,0.019,3.74,4.0,,59.775,60.765,
2025-08-15T04:04:32.827Z,5,GR86-037-03,-5.7,-1.051,0.104,3.37,4.0,,63.345,64.06,
2025-08-15T04:04:32.870Z,5,GR86-037-03,-10.5,-1.063,-0.044,3.02,4.0,,67.115,68.365,
2025-08-15T04:04:32.913Z,5,GR86-037-03,-12.8,-1.136,-0.092,2.83,4.0,5824.0,70.685,71.4,
2025-08-15T04:04:32.956Z,5,GR86-037-03,-12.7,-1.238,-0.094,2.72,4.0,,73.875,74.315,173.23
2025-08-15T04:04:32.999Z,5,GR86-037-03,-11.3,-1.252,-0.284,2.64,4.0,,76.865,77.995,
2025-08-15T04:04:33.044Z,5,GR86-037-03,-7.9,-1.234,-0.226,2.58,4.0,,81.03,82.65,
2025-08-15T04:04:33.087Z,5,GR86-037-03,-3.1,-1.264,-0.322,2.5500000000000003,4.0,,79.87,80.375,
2025-08-15T04:04:33.130Z,5,GR86-037-03,1.9,-1.185,-0.315,2.52,4.0,6088.0,78.925,80.375,
2025-08-15T04:04:33.173Z,5,GR86-037-03,3.0,-1.131,-0.383,2.51,4.0,,70.09,71.98,164.43
2025-08-15T04:04:33.216Z,5,GR86-037-03,3.6,-0.953,-0.394,2.51,4.0,,58.875,59.39,
2025-08-15T04:04:33.259Z,5,GR86-037-03,3.7,-0.997,-0.377,2.5,4.0,,53.485,54.77,
2025-08-15T04:04:33.303Z,5,GR86-037-03,3.4000000000000004,-1.016,-0.383,2.49,4.0,,50.19,51.655,
2025-08-15T04:04:33.347Z,5,GR86-037-03,-0.7000000000000001,-1.037,-0.409,2.49,4.0,5866.0,49.825,51.120000000000005,
2025-08-15T04:04:33.390Z,5,GR86-037-03,-8.0,-1.044,-0.428,2.5,4.0,,51.715,52.34,157.27
2025-08-15T04:04:33.433Z,5,GR86-037-03,-15.7,-1.004,-0.466,2.5,4.0,,53.685,54.11,
2025-08-15T04:04:33.476Z,5,GR86-037-03,-20.9,-0.94,-0.492,2.49,4.0,,55.18,56.46,
2025-08-15T04:04:33.519Z,5,GR86-037-03,-22.5,-0.951,-0.532,2.49,4.0,,54.92,56.43,
2025-08-15T04:04:33.563Z,5,GR86-037-03,-21.200000000000003,-0.89,-0.76,2.5,4.0,5586.0,40.56,41.34,
2025-08-15T04:04:33.606Z,5,GR86-037-03,-19.1,-0.803,-0.739,2.49,4.0,,33.555,34.305,151.28
2025-08-15T04:04:33.649Z,5,GR86-037-03,-19.1,-0.684,-0.755,2.49,4.0,,31.145,32.17,
2025-08-15T04:04:33.693Z,5,GR86-037-03,-21.8,-0.7000000000000001,-0.773,2.49,4.0,,30.52,31.45,
2025-08-15T04:04:33.735Z,5,GR86-037-03,-24.700000000000003,-0.662,-0.866,5.54,4.0,,27.745,28.935,
2025-08-15T04:04:33.779Z,5,GR86-037-03,-25.200000000000003,-0.604,-0.877,48.88,4.0,5218.0,25.33,26.505,
2025-08-15T04:04:33.823Z,5,GR86-037-03,-23.700000000000003,-0.649,-0.884,99.91,4.0,,28.995,29.465,143.6
2025-08-15T04:04:33.865Z,5,GR86-037-03,-21.700000000000003,-0.632,-0.912,63.48,3.0,,32.81,33.25,
2025-08-15T04:04:33.908Z,5,GR86-037-03,-20.700000000000003,-0.95,-0.847,4.93,3.0,,34.96,35.800000000000004,
2025-08-15T04:04:33.951Z,5,GR86-037-03,-20.700000000000003,-0.728,-0.885,3.13,3.0,,36.67,38.045,
2025-08-15T04:04:33.994Z,5,GR86-037-03,-21.5,-0.743,-0.904,2.84,3.0,5203.0,37.555,38.44,
2025-08-15T04:04:34.037Z,5,GR86-037-03,-25.0,-0.8310000000000001,-0.991,2.69,3.0,,36.03,36.425,139.36
2025-08-15T04:04:34.080Z,5,GR86-037-03,-28.700000000000003,-0.67,-0.994,2.58,3.0,,25.18,26.14,
2025-08-15T04:04:34.123Z,5,GR86-037-03,-29.1,-0.347,-1.177,2.52,3.0,,6.775,7.585,
2025-08-15T04:04:34.166Z,5,GR86-037-03,-29.3,-0.292,-1.156,2.51,3.0,,4.365,4.87,
2025-08-15T04:04:34.209Z,5,GR86-037-03,-31.6,-0.266,-1.071,2.49,3.0,5763.0,4.365,4.87,
2025-08-15T04:04:34.252Z,5,GR86-037-03,-34.300000000000004,-0.266,-1.241,2.49,3.0,,4.275,4.87,135.18
2025-08-15T04:04:34.295Z,5,GR86-037-03,-38.1,-0.241,-1.219,2.49,3.0,,2.975,3.645,
2025-08-15T04:04:34.338Z,5,GR86-037-03,-42.900000000000006,-0.203,-1.262,2.49,3.0,,0.0,0.0,
2025-08-15T04:04:34.381Z,5,GR86-037-03,-46.900000000000006,-0.191,-1.258,2.49,3.0,,0.0,0.0,
2025-08-15T04:04:34.424Z,5,GR86-037-03,-51.8,-0.158,-1.207,2.67,3.0,5682.0,0.0,0.0,
2025-08-15T04:04:34.467Z,5,GR86-037-03,-55.8,-0.173,-1.254,23.7,3.0,,0.0,0.0,129.65
2025-08-15T04:04:34.510Z,5,GR86-037-03,-57.1,-0.175,-1.273,34.21,3.0,,0.0,0.0,
2025-08-15T04:04:34.553Z,5,GR86-037-03,-57.1,-0.147,-1.301,49.15,3.0,,0.0,0.0,
2025-08-15T04:04:34.596Z,5,GR86-037-03,-57.400000000000006,-0.134,-1.284,60.33,3.0,,0.0,0.0,
2025-08-15T04:04:34.639Z,5,GR86-037-03,-58.900000000000006,-0.088,-1.267,59.35,3.0,5715.0,0.0,0.0,
2025-08-15T04:04:34.684Z,5,GR86-037-03,-60.2,0.239,-1.217,44.93,3.0,,0.0,0.0,127.9
2025-08-15T04:04:34.727Z,5,GR86-037-03,-61.0,0.18,-1.309,45.6,3.0,,0.0,0.0,
2025-08-15T04:04:34.770Z,5,GR86-037-03,-62.6,0.179,-1.239,46.0,3.0,,0.0,0.0,
2025-08-15T04:04:34.813Z,5,GR86-037-03,-64.8,0.145,-1.289,48.07,3.0,,0.0,0.0,
2025-08-15T04:04:34.856Z,5,GR86-037-03,-66.3,0.122,-1.287,51.83,3.0,5700.0,0.0,0.0,
2025-08-15T04:04:34.899Z,5,GR86-037-03,-67.3,0.088,-1.206,51.5,3.0,,0.0,0.0,125.9
2025-08-15T04:04:34.944Z,5,GR86-037-03,-68.2,0.11,-1.305,52.04,3.0,,0.0,0.0,
2025-08-15T04:04:34.987Z,5,GR86-037-03,-68.60000000000001,0.129,-1.244,74.92,3.0,,0.0,0.0,
2025-08-15T04:04:35.030Z,5,GR86-037-03,-69.2,0.128,-1.24,99.65,3.0,,0.0,0.0,
2025-08-15T04:04:35.074Z,5,GR86-037-03,-69.5,0.156,-1.249,100.03,3.0,5997.0,0.0,0.0,
2025-08-15T04:04:35.116Z,5,GR86-037-03,-69.7,0.162,-1.201,100.04,3.0,,0.0,0.0,124.07
2025-08-15T04:04:35.159Z,5,GR86-037-03,-69.7,0.158,-1.248,100.04,3.0,,0.0,0.0,
2025-08-15T04:04:35.203Z,5,GR86-037-03,-69.7,0.151,-1.261,100.05,3.0,,0.0,0.0,
2025-08-15T04:04:35.245Z,5,GR86-037-03,-69.4,0.143,-1.313,100.04,3.0,,0.0,0.0,
2025-08-15T04:04:35.288Z,5,GR86-037-03,-68.5,0.189,-1.133,100.04,3.0,5946.0,0.0,0.0,
2025-08-15T04:04:35.331Z,5,GR86-037-03,-67.4,0.164,-1.247,100.06,3.0,,0.0,0.0,124.22
2025-08-15T04:04:35.374Z,5,GR86-037-03,-67.0,0.138,-1.075,100.04,3.0,,0.0,0.0,
2025-08-15T04:04:35.417Z,5,GR86-037-03,-67.0,0.144,-1.223,100.04,3.0,,0.0,0.0,
2025-08-15T04:04:35.460Z,5,GR86-037-03,-67.2,0.127,-1.259,100.03,3.0,,0.0,0.0,
2025-08-15T04:04:35.504Z,5,GR86-037-03,-68.7,0.19,-1.248,100.04,3.0,5985.0,0.0,0.0,
2025-08-15T04:04:35.547Z,5,GR86-037-03,-69.5,0.161,-1.145,100.03,3.0,,0.0,0.0,125.32
2025-08-15T04:04:35.590Z,5,GR86-037-03,-69.60000000000001,0.145,-1.144,100.03,3.0,,0.0,0.0,
2025-08-15T04:04:35.633Z,5,GR86-037-03,-69.7,0.163,-1.147,88.61,3.0,,0.0,0.0,
2025-08-15T04:04:35.676Z,5,GR86-037-03,-70.2,0.126,-1.244,39.17,3.0,,0.0,0.0,
2025-08-15T04:04:35.719Z,5,GR86-037-03,-71.2,0.123,-1.216,33.730000000000004,3.0,5991.0,0.0,0.0,
2025-08-15T04:04:35.763Z,5,GR86-037-03,-72.10000000000001,0.1,-1.286,39.26,3.0,,0.0,0.0,125.89
2025-08-15T04:04:35.805Z,5,GR86-037-03,-72.4,0.073,-1.207,73.08,3.0,,0.0,0.0,
2025-08-15T04:04:35.848Z,5,GR86-037-03,-73.5,0.052,-1.236,99.63,3.0,,0.0,0.0,
2025-08-15T04:04:35.892Z,5,GR86-037-03,-74.60000000000001,0.069,-1.236,100.01,3.0,,0.0,0.0,
2025-08-15T04:04:35.935Z,5,GR86-037-03,-74.8,0.118,-1.227,100.02,3.0,6009.0,0.0,0.0,
2025-08-15T04:04:35.979Z,5,GR86-037-03,-74.8,0.16,-1.211,100.02,3.0,,0.0,0.0,127.16
2025-08-15T04:04:36.022Z,5,GR86-037-03,-74.8,0.159,-1.195,100.03,3.0,,0.0,0.0,
2025-08-15T04:04:36.065Z,5,GR86-037-03,-74.8,0.145,-1.18,100.03,3.0,,0.0,0.0,
2025-08-15T04:04:36.108Z,5,GR86-037-03,-74.8,0.115,-1.21,100.03,3.0,,0.0,0.0,
2025-08-15T04:04:36.151Z,5,GR86-037-03,-72.9,0.106,-1.307,100.04,3.0,6102.0,0.0,0.0,
2025-08-15T04:04:36.194Z,5,GR86-037-03,-65.5,0.143,-1.307,100.03,3.0,,0.0,0.0,127.33
2025-08-15T04:04:36.237Z,5,GR86-037-03,-52.1,0.147,-1.276,100.03,3.0,,0.0,0.0,
2025-08-15T04:04:36.280Z,5,GR86-037-03,-36.6,0.147,-1.231,100.03,3.0,,0.0,0.0,
2025-08-15T04:04:36.366Z,5,GR86-037-03,-19.0,0.168,-1.155,100.02,3.0,6119.0,0.0,0.0,
2025-08-15T04:04:36.409Z,5,GR86-037-03,-17.5,0.199,-1.103,100.02,3.0,,0.0,0.0,128.14
2025-08-15T04:04:36.453Z,5,GR86-037-03,-29.3,0.195,-1.055,100.04,3.0,,0.0,0.0,
2025-08-15T04:04:36.497Z,5,GR86-037-03,-43.400000000000006,0.172,-1.125,100.03,3.0,,0.0,0.0,
2025-08-15T04:04:36.540Z,5,GR86-037-03,-53.2,0.169,-1.2,100.03,3.0,,0.0,0.0,
2025-08-15T04:04:36.584Z,5,GR86-037-03,-55.900000000000006,0.149,-1.237,100.03,3.0,6154.0,0.0,0.0,
2025-08-15T04:04:36.626Z,5,GR86-037-03,-55.400000000000006,0.169,-1.229,100.03,3.0,,0.0,0.0,129.38
2025-08-15T04:04:36.669Z,5,GR86-037-03,-54.5,0.155,-1.223,100.02,3.0,,0.0,0.0,
2025-08-15T04:04:36.713Z,5,GR86-037-03,-51.3,0.132,-1.197,100.01,3.0,,0.0,0.0,
2025-08-15T04:04:36.755Z,5,GR86-037-03,-44.400000000000006,0.148,-1.188,100.02,3.0,,0.0,0.0,
2025-08-15T04:04:36.798Z,5,GR86-037-03,-36.3,0.173,-1.115,100.04,3.0,6171.0,0.0,0.0,
2025-08-15T04:04:36.841Z,5,GR86-037-03,-31.1,0.164,-1.087,100.03,3.0,,0.0,0.0,129.58
2025-08-15T04:04:36.884Z,5,GR86-037-03,-29.700000000000003,0.184,-1.07,100.03,3.0,,0.0,0.0,
2025-08-15T04:04:36.927Z,5,GR86-037-03,-29.700000000000003,0.173,-1.047,100.02,3.0,,0.0,0.0,
2025-08-15T04:04:36.970Z,5,GR86-037-03,-29.700000000000003,0.179,-1.056,100.02,3.0,,0.0,0.0,
2025-08-15T04:04:37.013Z,5,GR86-037-03,-29.700000000000003,0.197,-1.019,100.03,3.0,6193.0,0.0,0.0,
2025-08-15T04:04:37.056Z,5,GR86-037-03,-29.700000000000003,0.177,-0.998,100.02,3.0,,0.0,0.0,130.33
2025-08-15T04:04:37.099Z,5,GR86-037-03,-29.4,0.169,-0.974,100.03,3.0,,0.0,0.0,
2025-08-15T04:04:37.144Z,5,GR86-037-03,-27.3,0.164,-0.956,100.02,3.0,,0.0,0.0,
2025-08-15T04:04:37.187Z,5,GR86-037-03,-25.6,0.178,-0.927,100.02,3.0,,0.0,0.0,
2025-08-15T04:04:37.230Z,5,GR86-037-03,-24.9,0.2,-0.898,100.05,3.0,6250.0,0.0,0.0,
2025-08-15T04:04:37.273Z,5,GR86-037-03,-24.9,0.208,-0.868,100.03,3.0,,0.0,0.0,131.33
2025-08-15T04:04:37.316Z,5,GR86-037-03,-25.0,0.163,-0.876,100.03,3.0,,0.0,0.0,
2025-08-15T04:04:37.359Z,5,GR86-037-03,-25.8,0.169,-0.898,100.02,3.0,,0.0,0.0,
2025-08-15T04:04:37.402Z,5,GR86-037-03,-29.5,0.178,-0.892,100.03,3.0,,0.0,0.0,
2025-08-15T04:04:37.445Z,5,GR86-037-03,-32.0,0.18,-0.89,100.02,3.0,6281.0,0.0,0.0,
2025-08-15T04:04:37.488Z,5,GR86-037-03,-33.2,0.188,-0.889,100.03,3.0,,0.0,0.0,132.43
2025-08-15T04:04:37.531Z,5,GR86-037-03,-33.2,0.187,-0.897,100.02,3.0,,0.0,0.0,
2025-08-15T04:04:37.574Z,5,GR86-037-03,-33.1,0.151,-0.886,100.04,3.0,,0.0,0.0,
2025-08-15T04:04:37.617Z,5,GR86-037-03,-31.0,0.178,-0.843,100.02,3.0,,0.0,0.0,
2025-08-15T04:04:37.660Z,5,GR86-037-03,-26.200000000000003,0.2,-0.803,100.03,3.0,6336.0,0.0,0.0,
2025-08-15T04:04:37.704Z,5,GR86-037-03,-19.8,0.159,-0.752,100.03,3.0,,0.0,0.0,133.56
2025-08-15T04:04:37.747Z,5,GR86-037-03,-20.6,0.193,-0.6910000000000001,100.02,3.0,,0.0,0.0,
2025-08-15T04:04:37.790Z,5,GR86-037-03,-26.0,0.121,-0.719,100.03,3.0,,0.0,0.0,
2025-08-15T04:04:37.834Z,5,GR86-037-03,-31.4,0.213,-0.713,100.03,3.0,,0.0,0.0,
2025-08-15T04:04:37.877Z,5,GR86-037-03,-32.9,0.196,-0.771,100.02,3.0,6366.0,0.0,0.0,
2025-08-15T04:04:37.920Z,5,GR86-037-03,-30.700000000000003,0.203,-0.597,100.02,3.0,,0.0,0.0,134.97
2025-08-15T04:04:37.964Z,5,GR86-037-03,-20.0,0.236,-0.617,100.03,3.0,,0.0,0.0,
2025-08-15T04:04:38.006Z,5,GR86-037-03,-16.6,0.183,-0.582,100.02,3.0,,0.0,0.0,
2025-08-15T04:04:38.049Z,5,GR86-037-03,-19.1,0.166,-0.562,100.03,3.0,,0.0,0.0,
2025-08-15T04:04:38.093Z,5,GR86-037-03,-25.3,0.136,-0.642,100.02,3.0,6436.0,0.0,0.0,
2025-08-15T04:04:38.135Z,5,GR86-037-03,-30.8,0.163,-0.793,100.02,3.0,,0.0,0.0,136.09
2025-08-15T04:04:38.178Z,5,GR86-037-03,-32.6,0.191,-0.6940000000000001,100.03,3.0,,0.0,0.0,
2025-08-15T04:04:38.221Z,5,GR86-037-03,-31.6,0.151,-0.808,100.02,3.0,,0.0,0.0,
2025-08-15T04:04:38.264Z,5,GR86-037-03,-25.0,0.099,-0.763,100.03,3.0,,0.0,0.0,
2025-08-15T04:04:38.307Z,5,GR86-037-03,-17.400000000000002,0.222,-0.577,100.02,3.0,6502.0,0.0,0.0,
2025-08-15T04:04:38.350Z,5,GR86-037-03,-12.3,0.164,-0.647,100.01,3.0,,0.0,0.0,138.56
2025-08-15T04:04:38.393Z,5,GR86-037-03,-10.3,0.192,-0.42,100.0,3.0,,0.0,0.0,
2025-08-15T04:04:38.436Z,5,GR86-037-03,-11.3,0.179,-0.515,100.01,3.0,,0.0,0.0,
2025-08-15T04:04:38.479Z,5,GR86-037-03,-14.5,0.241,-0.474,100.02,3.0,,0.0,0.0,
2025-08-15T04:04:38.523Z,5,GR86-037-03,-16.3,0.195,-0.504,100.02,3.0,6597.0,0.0,0.0,
2025-08-15T04:04:38.565Z,5,GR86-037-03,-15.7,0.134,-0.665,100.02,3.0,,0.0,0.0,139.59
2025-08-15T04:04:38.608Z,5,GR86-037-03,-12.7,0.204,-0.605,100.0,3.0,,0.0,0.0,
2025-08-15T04:04:38.651Z,5,GR86-037-03,-11.5,0.167,-0.506,100.02,3.0,,0.0,0.0,
2025-08-15T04:04:38.694Z,5,GR86-037-03,-14.7,0.185,-0.519,100.02,3.0,,0.0,0.0,
2025-08-15T04:04:38.737Z,5,GR86-037-03,-20.9,0.18,-0.476,99.98,3.0,6627.0,0.0,0.0,
2025-08-15T04:04:38.780Z,5,GR86-037-03,-23.700000000000003,0.185,-0.406,100.01,3.0,,0.0,0.0,140.89
2025-08-15T04:04:38.824Z,5,GR86-037-03,-16.5,0.178,-0.315,100.03,3.0,,0.0,0.0,
2025-08-15T04:04:38.867Z,5,GR86-037-03,-5.5,0.123,-0.386,100.02,3.0,,0.0,0.0,
2025-08-15T04:04:38.910Z,5,GR86-037-03,4.3,0.185,-0.287,100.01,3.0,,0.0,0.0,
2025-08-15T04:04:38.953Z,5,GR86-037-03,6.6000000000000005,0.239,-0.33,100.03,3.0,6723.0,0.0,0.0,
2025-08-15T04:04:38.996Z,5,GR86-037-03,4.3,0.187,-0.35,100.01,3.0,,0.0,0.0,142.17000000000002
2025-08-15T04:04:39.039Z,5,GR86-037-03,2.0,0.141,-0.282,100.0,3.0,,0.0,0.0,
2025-08-15T04:04:39.083Z,5,GR86-037-03,3.8,0.156,-0.295,100.03,3.0,,0.0,0.0,
2025-08-15T04:04:39.125Z,5,GR86-037-03,7.9,0.219,-0.215,100.03,3.0,,0.0,0.0,
2025-08-15T04:04:39.168Z,5,GR86-037-03,11.6,0.215,-0.042,100.02,3.0,6843.0,0.0,0.0,
2025-08-15T04:04:39.211Z,5,GR86-037-03,13.6,0.21,0.051,100.02,3.0,,0.0,0.0,143.44
2025-08-15T04:04:39.254Z,5,GR86-037-03,13.9,0.197,0.129,100.02,3.0,,0.0,0.0,
2025-08-15T04:04:39.297Z,5,GR86-037-03,13.9,0.185,0.245,100.01,3.0,,0.0,0.0,
2025-08-15T04:04:39.384Z,5,GR86-037-03,7.2,0.18,0.301,100.02,3.0,6811.0,0.0,0.0,
2025-08-15T04:04:39.426Z,5,GR86-037-03,4.4,0.184,0.29,100.02,3.0,,0.0,0.0,145.01
2025-08-15T04:04:39.470Z,5,GR86-037-03,3.8,0.206,0.255,100.01,3.0,,0.0,0.0,
2025-08-15T04:04:39.513Z,5,GR86-037-03,3.8,0.229,0.229,100.03,3.0,,0.0,0.0,
2025-08-15T04:04:39.556Z,5,GR86-037-03,4.4,0.234,0.189,100.01,3.0,,0.0,0.0,
2025-08-15T04:04:39.599Z,5,GR86-037-03,7.0,0.205,0.147,100.03,3.0,6880.0,0.0,0.0,
2025-08-15T04:04:39.644Z,5,GR86-037-03,9.7,0.224,0.149,100.03,3.0,,0.0,0.0,146.55
2025-08-15T04:04:39.687Z,5,GR86-037-03,9.7,0.2,0.156,100.0,3.0,,0.0,0.0,
2025-08-15T04:04:39.730Z,5,GR86-037-03,9.4,0.191,0.12,100.01,3.0,,0.0,0.0,
2025-08-15T04:04:39.773Z,5,GR86-037-03,8.6,0.195,0.129,100.01,3.0,,0.0,0.0,
2025-08-15T04:04:39.816Z,5,GR86-037-03,8.6,0.19,0.126,99.99,3.0,6954.0,0.0,0.0,
2025-08-15T04:04:39.859Z,5,GR86-037-03,8.6,0.212,0.164,100.01,3.0,,0.0,0.0,148.11
2025-08-15T04:04:39.903Z,5,GR86-037-03,8.6,0.191,0.173,100.01,3.0,,0.0,0.0,
2025-08-15T04:04:39.947Z,5,GR86-037-03,9.4,0.205,0.17,100.0,3.0,,0.0,0.0,
2025-08-15T04:04:39.990Z,5,GR86-037-03,11.3,0.216,0.175,99.99,3.0,,0.0,0.0,
2025-08-15T04:04:40.033Z,5,GR86-037-03,11.5,0.206,0.223,100.0,3.0,7023.0,0.0,0.0,
2025-08-15T04:04:40.076Z,5,GR86-037-03,10.1,0.186,0.212,100.02,3.0,,0.0,0.0,149.67000000000002
2025-08-15T04:04:40.119Z,5,GR86-037-03,7.0,0.176,0.219,100.0,3.0,,0.0,0.0,
2025-08-15T04:04:40.206Z,5,GR86-037-03,6.800000000000001,0.202,0.175,100.03,3.0,,0.0,0.0,
2025-08-15T04:04:40.249Z,5,GR86-037-03,9.1,0.162,0.173,100.02,3.0,7098.0,0.0,0.0,
2025-08-15T04:04:40.293Z,5,GR86-037-03,10.2,0.178,0.193,100.0,3.0,,0.0,0.0,151.28
2025-08-15T04:04:40.335Z,5,GR86-037-03,10.4,0.189,0.196,99.99,3.0,,0.0,0.0,
2025-08-15T04:04:40.422Z,5,GR86-037-03,10.4,0.203,0.203,100.02,3.0,,0.0,0.0,
2025-08-15T04:04:40.465Z,5,GR86-037-03,10.4,0.175,0.201,100.01,3.0,7179.0,0.0,0.0,
2025-08-15T04:04:40.508Z,5,GR86-037-03,10.2,0.164,0.228,100.01,3.0,,0.0,0.0,152.9
2025-08-15T04:04:40.551Z,5,GR86-037-03,8.5,-0.092,0.262,100.01,4.0,,0.0,0.0,
2025-08-15T04:04:40.594Z,5,GR86-037-03,7.9,0.469,0.275,100.02,4.0,,0.0,0.0,
2025-08-15T04:04:40.637Z,5,GR86-037-03,7.800000000000001,0.308,0.138,100.01,4.0,,0.0,0.0,
2025-08-15T04:04:40.680Z,5,GR86-037-03,7.800000000000001,0.247,0.235,100.0,4.0,7257.0,0.0,0.0,
2025-08-15T04:04:40.724Z,5,GR86-037-03,7.2,0.138,0.168,100.02,4.0,,0.0,0.0,154.55
2025-08-15T04:04:40.766Z,5,GR86-037-03,7.1000000000000005,0.088,0.173,99.99,4.0,,0.0,0.0,
2025-08-15T04:04:40.809Z,5,GR86-037-03,7.0,0.154,0.223,99.99,4.0,,0.0,0.0,
2025-08-15T04:04:40.852Z,5,GR86-037-03,7.0,0.178,0.132,100.01,4.0,,0.0,0.0,
2025-08-15T04:04:40.895Z,5,GR86-037-03,7.0,0.142,0.147,100.01,4.0,7001.0,0.0,0.0,
2025-08-15T04:04:40.939Z,5,GR86-037-03,7.0,0.138,0.154,100.01,4.0,,0.0,0.0,156.11
2025-08-15T04:04:40.984Z,5,GR86-037-03,7.0,0.149,0.147,100.01,4.0,,0.0,0.0,
2025-08-15T04:04:41.027Z,5,GR86-037-03,7.0,0.151,0.136,100.01,4.0,,0.0,0.0,
2025-08-15T04:04:41.070Z,5,GR86-037-03,7.0,0.145,0.135,100.02,4.0,,0.0,0.0,
2025-08-15T04:04:41.113Z,5,GR86-037-03,7.0,0.149,0.123,100.0,4.0,6151.0,0.0,0.0,
2025-08-15T04:04:41.156Z,5,GR86-037-03,5.5,0.172,0.125,100.01,4.0,,0.0,0.0,159.44
2025-08-15T04:04:41.199Z,5,GR86-037-03,3.5,0.17,0.12,99.99,4.0,,0.0,0.0,
2025-08-15T04:04:41.244Z,5,GR86-037-03,1.9,0.143,0.083,100.0,4.0,,0.0,0.0,
2025-08-15T04:04:41.287Z,5,GR86-037-03,0.7000000000000001,0.141,0.085,100.02,4.0,,0.0,0.0,
2025-08-15T04:04:41.330Z,5,GR86-037-03,-0.3,0.172,0.028,100.0,4.0,6268.0,0.0,0.0,
2025-08-15T04:04:41.374Z,5,GR86-037-03,-0.3,0.16,-0.003,100.01,4.0,,0.0,0.0,161.01
2025-08-15T04:04:41.417Z,5,GR86-037-03,-0.3,0.165,-0.014,100.01,4.0,,0.0,0.0,
2025-08-15T04:04:41.460Z,5,GR86-037-03,0.4,0.152,-0.047,100.01,4.0,,0.0,0.0,
2025-08-15T04:04:41.504Z,5,GR86-037-03,0.4,0.128,-0.072,100.01,4.0,,0.0,0.0,
2025-08-15T04:04:41.547Z,5,GR86-037-03,0.5,0.159,-0.11,100.0,4.0,6399.0,0.0,0.0,
2025-08-15T04:04:41.590Z,5,GR86-037-03,1.7000000000000002,0.164,-0.116,99.98,4.0,,0.0,0.0,162.61
2025-08-15T04:04:41.633Z,5,GR86-037-03,2.5,0.15,-0.131,100.01,4.0,,0.0,0.0,
2025-08-15T04:04:41.676Z,5,GR86-037-03,2.6,0.148,-0.135,100.01,4.0,,0.0,0.0,
2025-08-15T04:04:41.719Z,5,GR86-037-03,2.6,0.152,-0.123,100.0,4.0,,0.0,0.0,
2025-08-15T04:04:41.763Z,5,GR86-037-03,2.6,0.156,-0.097,99.98,4.0,6457.0,0.0,0.0,
2025-08-15T04:04:41.805Z,5,GR86-037-03,2.6,0.149,-0.082,100.01,4.0,,0.0,0.0,164.03
2025-08-15T04:04:41.848Z,5,GR86-037-03,2.6,0.137,-0.074,100.01,4.0,,0.0,0.0,
2025-08-15T04:04:41.891Z,5,GR86-037-03,2.6,0.15,-0.051,100.01,4.0,,0.0,0.0,
2025-08-15T04:04:41.934Z,5,GR86-037-03,2.6,0.154,-0.043,100.0,4.0,,0.0,0.0,
2025-08-15T04:04:42.020Z,5,GR86-037-03,2.2,0.138,-0.037,100.0,4.0,6526.0,0.0,0.0,165.6
2025-08-15T04:04:42.064Z,5,GR86-037-03,-0.5,0.143,-0.049,100.03,4.0,,0.0,0.0,
2025-08-15T04:04:42.107Z,5,GR86-037-03,-1.8,0.153,-0.08,99.99,4.0,,0.0,0.0,
2025-08-15T04:04:42.150Z,5,GR86-037-03,-1.9,0.138,-0.108,100.02,4.0,,0.0,0.0,
2025-08-15T04:04:42.193Z,5,GR86-037-03,-1.9,0.13,-0.118,99.99,4.0,6587.0,0.0,0.0,
2025-08-15T04:04:42.236Z,5,GR86-037-03,-1.4,0.144,-0.159,100.0,4.0,,0.0,0.0,167.04
2025-08-15T04:04:42.279Z,5,GR86-037-03,0.0,0.14,-0.183,100.02,4.0,,0.0,0.0,
2025-08-15T04:04:42.322Z,5,GR86-037-03,0.0,0.131,-0.186,100.0,4.0,,0.0,0.0,
2025-08-15T04:04:42.365Z,5,GR86-037-03,0.0,0.136,-0.178,100.0,4.0,,0.0,0.0,
2025-08-15T04:04:42.408Z,5,GR86-037-03,0.0,0.13,-0.168,100.01,4.0,6630.0,0.0,0.0,
2025-08-15T04:04:42.451Z,5,GR86-037-03,-1.0,0.137,-0.153,100.0,4.0,,0.0,0.0,168.59
2025-08-15T04:04:42.494Z,5,GR86-037-03,-2.0,0.126,-0.155,100.0,4.0,,0.0,0.0,
2025-08-15T04:04:42.537Z,5,GR86-037-03,-2.7,0.139,-0.169,100.01,4.0,,0.0,0.0,
2025-08-15T04:04:42.580Z,5,GR86-037-03,-2.7,0.136,-0.158,100.0,4.0,,0.0,0.0,
2025-08-15T04:04:42.624Z,5,GR86-037-03,-2.8000000000000003,0.131,-0.193,99.99,4.0,6690.0,0.0,0.0,
2025-08-15T04:04:42.666Z,5,GR86-037-03,-3.3000000000000003,0.138,-0.202,99.99,4.0,,0.0,0.0,170.11
2025-08-15T04:04:42.709Z,5,GR86-037-03,-5.1000000000000005,0.139,-0.216,99.99,4.0,,0.0,0.0,
2025-08-15T04:04:42.753Z,5,GR86-037-03,-6.300000000000001,0.119,-0.235,100.01,4.0,,0.0,0.0,
2025-08-15T04:04:42.797Z,5,GR86-037-03,-6.4,0.136,-0.275,100.01,4.0,,0.0,0.0,
2025-08-15T04:04:42.840Z,5,GR86-037-03,-6.4,0.115,-0.294,100.0,4.0,6740.0,0.0,0.0,
2025-08-15T04:04:42.884Z,5,GR86-037-03,-6.4,0.13,-0.355,100.01,4.0,,0.0,0.0,171.45000000000002
2025-08-15T04:04:42.926Z,5,GR86-037-03,-6.4,0.124,-0.36,99.99,4.0,,0.0,0.0,
2025-08-15T04:04:43.013Z,5,GR86-037-03,-5.4,0.128,-0.381,100.0,4.0,,0.0,0.0,
2025-08-15T04:04:43.055Z,5,GR86-037-03,-4.800000000000001,0.133,-0.378,100.0,4.0,6802.0,0.0,0.0,
2025-08-15T04:04:43.099Z,5,GR86-037-03,-4.800000000000001,0.125,-0.385,99.98,4.0,,0.0,0.0,172.77
2025-08-15T04:04:43.141Z,5,GR86-037-03,-4.800000000000001,0.123,-0.381,99.98,4.0,,0.0,0.0,
2025-08-15T04:04:43.184Z,5,GR86-037-03,-4.800000000000001,0.138,-0.35,99.98,4.0,,0.0,0.0,
2025-08-15T04:04:43.227Z,5,GR86-037-03,-4.800000000000001,0.152,-0.35,99.98,4.0,,0.0,0.0,
2025-08-15T04:04:43.270Z,5,GR86-037-03,-4.2,0.143,-0.326,100.0,4.0,6857.0,0.0,0.0,
2025-08-15T04:04:43.313Z,5,GR86-037-03,-2.5,0.129,-0.312,99.98,4.0,,0.0,0.0,174.07
2025-08-15T04:04:43.356Z,5,GR86-037-03,-1.6,0.14,-0.279,99.99,4.0,,0.0,0.0,
2025-08-15T04:04:43.399Z,5,GR86-037-03,-1.2000000000000002,0.144,-0.237,99.99,4.0,,0.0,0.0,
2025-08-15T04:04:43.444Z,5,GR86-037-03,-1.2000000000000002,0.124,-0.252,99.99,4.0,,0.0,0.0,
2025-08-15T04:04:43.487Z,5,GR86-037-03,-1.2000000000000002,0.11,-0.227,100.01,4.0,6895.0,0.0,0.0,
2025-08-15T04:04:43.530Z,5,GR86-037-03,-1.2000000000000002,0.12,-0.219,100.02,4.0,,0.0,0.0,175.45000000000002
2025-08-15T04:04:43.573Z,5,GR86-037-03,-1.2000000000000002,0.117,-0.18,91.39,4.0,,0.0,0.0,
2025-08-15T04:04:43.616Z,5,GR86-037-03,-0.4,0.126,-0.169,22.34,4.0,,0.0,0.0,
2025-08-15T04:04:43.659Z,5,GR86-037-03,1.9,0.111,-0.165,3.33,4.0,,0.0,0.0,
2025-08-15T04:04:43.702Z,5,GR86-037-03,3.8,-0.121,-0.123,2.69,4.0,6963.0,0.0,0.0,
2025-08-15T04:04:43.745Z,5,GR86-037-03,3.8,-0.144,-0.042,2.52,4.0,,0.0,0.0,178.19
2025-08-15T04:04:43.788Z,5,GR86-037-03,3.8,-0.387,-0.112,2.49,4.0,,0.0,0.0,
2025-08-15T04:04:43.833Z,5,GR86-037-03,3.8,-0.178,-0.05,2.48,4.0,,3.875,4.44,
2025-08-15T04:04:43.877Z,5,GR86-037-03,2.3000000000000003,-0.123,-0.016,2.48,4.0,,15.78,16.145,
2025-08-15T04:04:43.920Z,5,GR86-037-03,-1.9,-0.358,-0.035,2.46,4.0,7006.0,25.605,25.665,
2025-08-15T04:04:43.964Z,5,GR86-037-03,-5.800000000000001,-0.775,-0.045,2.47,4.0,,48.555,48.175,179.4
2025-08-15T04:04:44.007Z,5,GR86-037-03,-5.9,-1.032,-0.088,2.48,4.0,,59.925,59.33,
2025-08-15T04:04:44.050Z,5,GR86-037-03,-5.9,-1.118,-0.104,2.47,4.0,,62.370000000000005,62.215,
2025-08-15T04:04:44.093Z,5,GR86-037-03,-5.9,-1.172,-0.115,2.47,4.0,,64.87,64.33500000000001,
2025-08-15T04:04:44.136Z,5,GR86-037-03,-3.5,-1.243,-0.156,2.48,4.0,6676.0,71.175,70.425,
2025-08-15T04:04:44.179Z,5,GR86-037-03,-0.5,-1.34,-0.121,2.47,4.0,,77.965,77.14,179.09
2025-08-15T04:04:44.223Z,5,GR86-037-03,3.0,-1.433,-0.112,2.48,4.0,,83.795,83.18,
2025-08-15T04:04:44.265Z,5,GR86-037-03,3.4000000000000004,-1.462,-0.107,2.48,4.0,,84.115,83.84,
2025-08-15T04:04:44.308Z,5,GR86-037-03,3.4000000000000004,-1.428,-0.083,2.48,4.0,,81.81,82.435,
2025-08-15T04:04:44.351Z,5,GR86-037-03,3.4000000000000004,-1.335,-0.099,2.47,4.0,6422.0,73.72,75.995,
2025-08-15T04:04:44.394Z,5,GR86-037-03,3.4000000000000004,-1.246,-0.108,2.48,4.0,,64.99,67.495,172.38
2025-08-15T04:04:44.437Z,5,GR86-037-03,3.4000000000000004,-1.228,-0.107,2.47,4.0,,59.485,61.21,
2025-08-15T04:04:44.480Z,5,GR86-037-03,3.4000000000000004,-1.299,-0.094,2.49,4.0,,56.125,57.895,
2025-08-15T04:04:44.524Z,5,GR86-037-03,4.4,-1.097,-0.106,41.87,4.0,,53.275,53.93,
2025-08-15T04:04:44.567Z,5,GR86-037-03,4.4,-1.108,-0.08,89.15,4.0,5831.0,48.985,50.1,
2025-08-15T04:04:44.610Z,5,GR86-037-03,2.0,-0.963,-0.037,97.42,3.0,,43.325,44.74,162.18
2025-08-15T04:04:44.653Z,5,GR86-037-03,-1.5,-0.969,-0.058,34.22,3.0,,41.4,42.745,
2025-08-15T04:04:44.696Z,5,GR86-037-03,-3.8,-1.224,-0.089,3.75,3.0,,44.13,45.4,
2025-08-15T04:04:44.739Z,5,GR86-037-03,-4.0,-0.918,0.008,2.86,3.0,,49.335,49.96,
2025-08-15T04:04:44.783Z,5,GR86-037-03,-4.2,-1.097,-0.157,2.58,3.0,5773.0,50.815,51.365,
2025-08-15T04:04:44.825Z,5,GR86-037-03,-7.4,-1.036,-0.028,2.54,3.0,,49.64,50.71,154.37
2025-08-15T04:04:44.868Z,5,GR86-037-03,-12.6,-1.024,-0.123,2.52,3.0,,48.085,49.58,
2025-08-15T04:04:44.911Z,5,GR86-037-03,-16.900000000000002,-0.997,-0.288,2.52,3.0,,48.895,49.795,
2025-08-15T04:04:44.954Z,5,GR86-037-03,-16.900000000000002,-1.005,-0.229,2.5,3.0,,51.96,52.25,
2025-08-15T04:04:44.997Z,5,GR86-037-03,-12.1,-1.076,-0.362,2.51,3.0,6563.0,56.095,56.155,
2025-08-15T04:04:45.040Z,5,GR86-037-03,-6.1000000000000005,-1.141,-0.363,2.49,3.0,,60.4,60.2,147.95000000000002
2025-08-15T04:04:45.083Z,5,GR86-037-03,-4.1000000000000005,-1.005,-0.304,2.49,3.0,,64.93,65.39,
2025-08-15T04:04:45.170Z,5,GR86-037-03,-4.1000000000000005,-1.129,-0.314,39.33,3.0,,67.39,67.325,
2025-08-15T04:04:45.213Z,5,GR86-037-03,-4.1000000000000005,-1.121,-0.375,58.48,2.0,6233.0,68.595,68.715,
2025-08-15T04:04:45.256Z,5,GR86-037-03,-7.4,-1.214,-0.314,6.0,2.0,,68.275,69.615,140.18
2025-08-15T04:04:45.299Z,5,GR86-037-03,-15.9,-1.26,-0.28,4.34,2.0,,69.58500000000001,71.675,
2025-08-15T04:04:45.344Z,5,GR86-037-03,-28.6,-1.406,-0.785,3.78,2.0,,68.745,69.645,
2025-08-15T04:04:45.387Z,5,GR86-037-03,-29.0,-1.171,-0.579,3.44,2.0,,59.485,61.145,
2025-08-15T04:04:45.430Z,5,GR86-037-03,-23.3,-0.625,-0.531,3.06,2.0,5843.0,43.645,44.775,
2025-08-15T04:04:45.473Z,5,GR86-037-03,-20.5,-0.95,-0.67,2.84,2.0,,32.595,33.71,134.38
2025-08-15T04:04:45.516Z,5,GR86-037-03,-21.0,-0.894,-0.468,2.73,2.0,,23.56,24.34,
2025-08-15T04:04:45.559Z,5,GR86-037-03,-25.200000000000003,-0.669,-0.548,2.61,2.0,,20.145,21.21,
2025-08-15T04:04:45.603Z,5,GR86-037-03,-39.7,-0.596,-0.7020000000000001,2.5500000000000003,2.0,,20.965,21.53,
2025-08-15T04:04:45.647Z,5,GR86-037-03,-49.6,-0.541,-0.746,2.52,2.0,5886.0,22.675,23.15,
2025-08-15T04:04:45.690Z,5,GR86-037-03,-55.2,-0.596,-0.89,2.52,2.0,,24.675,24.95,126.35
2025-08-15T04:04:45.733Z,5,GR86-037-03,-57.0,-0.683,-0.925,2.49,2.0,,28.275,28.58,
2025-08-15T04:04:45.776Z,5,GR86-037-03,-57.1,-0.713,-1.015,2.49,2.0,,31.115,31.54,
2025-08-15T04:04:45.819Z,5,GR86-037-03,-55.8,-0.669,-1.081,2.48,2.0,,29.835,30.705,
2025-08-15T04:04:45.863Z,5,GR86-037-03,-53.2,-0.615,-1.014,2.49,2.0,6571.0,26.05,26.905,
2025-08-15T04:04:45.906Z,5,GR86-037-03,-47.0,-0.66,-1.092,2.49,2.0,,25.835,26.535,120.42
2025-08-15T04:04:45.949Z,5,GR86-037-03,-37.1,-0.678,-1.134,2.49,2.0,,22.585,23.53,
2025-08-15T04:04:45.993Z,5,GR86-037-03,-33.6,-0.54,-1.137,2.49,2.0,,15.09,16.025,
2025-08-15T04:04:46.035Z,5,GR86-037-03,-35.6,-0.414,-1.152,2.49,2.0,,11.035,11.735,
2025-08-15T04:04:46.079Z,5,GR86-037-03,-34.300000000000004,-0.443,-1.15,2.49,2.0,6370.0,11.035,11.615,
2025-08-15T04:04:46.122Z,5,GR86-037-03,-21.4,-0.436,-1.135,2.49,2.0,,11.49,12.115,116.34
2025-08-15T04:04:46.165Z,5,GR86-037-03,-16.400000000000002,-0.435,-1.184,2.48,2.0,,10.27,10.865,
2025-08-15T04:04:46.208Z,5,GR86-037-03,-17.8,-0.359,-1.156,2.5,2.0,,3.725,4.365,
2025-08-15T04:04:46.251Z,5,GR86-037-03,-24.200000000000003,-0.176,-1.226,2.49,2.0,,0.0,0.0,
2025-08-15T04:04:46.294Z,5,GR86-037-03,-35.0,-0.212,-1.195,2.49,2.0,6025.0,0.0,0.0,
2025-08-15T04:04:46.337Z,5,GR86-037-03,-49.5,-0.183,-1.259,2.5,2.0,,0.0,0.0,112.91
2025-08-15T04:04:46.380Z,5,GR86-037-03,-64.60000000000001,-0.198,-1.299,2.49,2.0,,0.0,0.0,
2025-08-15T04:04:46.424Z,5,GR86-037-03,-81.9,-0.222,-1.31,2.49,2.0,,0.0,0.0,
2025-08-15T04:04:46.466Z,5,GR86-037-03,-85.9,-0.221,-1.34,2.49,2.0,,0.0,0.0,
2025-08-15T04:04:46.509Z,5,GR86-037-03,-86.10000000000001,-0.252,-1.376,2.48,2.0,5909.0,0.0,0.0,
2025-08-15T04:04:46.552Z,5,GR86-037-03,-86.30000000000001,-0.23,-1.307,2.49,2.0,,0.0,0.0,106.4
2025-08-15T04:04:46.595Z,5,GR86-037-03,-87.7,-0.237,-1.338,5.38,2.0,,0.0,0.0,
2025-08-15T04:04:46.638Z,5,GR86-037-03,-89.5,-0.245,-1.309,20.57,2.0,,0.0,0.0,
2025-08-15T04:04:46.681Z,5,GR86-037-03,-90.1,-0.232,-1.373,25.39,2.0,,0.0,0.0,
2025-08-15T04:04:46.724Z,5,GR86-037-03,-87.80000000000001,-0.16,-1.369,35.42,2.0,5841.0,0.0,0.0,
2025-08-15T04:04:46.767Z,5,GR86-037-03,-80.7,-0.159,-1.388,46.51,2.0,,0.0,0.0,104.0
2025-08-15T04:04:46.810Z,5,GR86-037-03,-66.3,-0.129,-1.34,55.33,2.0,,0.0,0.0,
2025-08-15T04:04:46.853Z,5,GR86-037-03,-48.1,0.109,-1.303,57.27,2.0,,0.0,0.0,
2025-08-15T04:04:46.896Z,5,GR86-037-03,-33.1,0.271,-1.24,57.41,2.0,,0.0,0.0,
2025-08-15T04:04:46.939Z,5,GR86-037-03,-24.1,0.297,-1.244,58.95,2.0,5757.0,0.0,0.0,
2025-08-15T04:04:46.984Z,5,GR86-037-03,-14.1,0.252,-1.08,76.77,2.0,,0.0,0.0,102.95
2025-08-15T04:04:47.027Z,5,GR86-037-03,-9.8,0.239,-1.14,96.87,2.0,,0.0,0.0,
2025-08-15T04:04:47.070Z,5,GR86-037-03,-15.1,0.252,-1.108,99.84,2.0,,0.0,0.0,
2025-08-15T04:04:47.113Z,5,GR86-037-03,-28.700000000000003,0.259,-1.213,100.01,2.0,,0.0,0.0,
2025-08-15T04:04:47.156Z,5,GR86-037-03,-48.7,0.309,-1.145,100.01,2.0,6030.0,0.0,0.0,
2025-08-15T04:04:47.244Z,5,GR86-037-03,-68.0,0.262,-1.118,100.0,2.0,,0.0,0.0,101.82
2025-08-15T04:04:47.287Z,5,GR86-037-03,-77.5,0.407,-1.094,100.02,2.0,,0.0,0.0,
2025-08-15T04:04:47.330Z,5,GR86-037-03,-75.0,0.215,-0.986,100.01,2.0,,0.0,0.0,
2025-08-15T04:04:47.374Z,5,GR86-037-03,-73.2,-0.008,-0.979,100.02,2.0,6042.0,0.0,0.0,
2025-08-15T04:04:47.417Z,5,GR86-037-03,-70.60000000000001,-0.094,-0.984,100.02,2.0,,0.0,0.0,102.57
2025-08-15T04:04:47.460Z,5,GR86-037-03,-64.60000000000001,0.059,-1.026,100.01,2.0,,0.0,0.0,
2025-08-15T04:04:47.504Z,5,GR86-037-03,-51.900000000000006,-0.023,-1.044,100.0,2.0,,0.0,0.0,
2025-08-15T04:04:47.547Z,5,GR86-037-03,-47.900000000000006,-0.128,-1.045,100.0,2.0,,0.0,0.0,
2025-08-15T04:04:47.590Z,5,GR86-037-03,-48.1,-0.032,-1.167,100.01,2.0,6099.0,0.0,0.0,
2025-08-15T04:04:47.633Z,5,GR86-037-03,-49.1,0.24,-1.047,100.0,2.0,,0.0,0.0,102.38
2025-08-15T04:04:47.676Z,5,GR86-037-03,-49.3,0.425,-1.162,100.01,2.0,,0.0,0.0,
2025-08-15T04:04:47.719Z,5,GR86-037-03,-47.8,0.237,-1.014,100.02,2.0,,0.0,0.0,
2025-08-15T04:04:47.763Z,5,GR86-037-03,-41.5,0.043,-1.247,100.03,2.0,,0.0,0.0,
2025-08-15T04:04:47.805Z,5,GR86-037-03,-34.4,0.557,-1.265,100.02,2.0,6267.0,0.0,0.0,
2025-08-15T04:04:47.848Z,5,GR86-037-03,-26.4,0.495,-1.126,100.02,2.0,,0.0,0.0,104.72
2025-08-15T04:04:47.891Z,5,GR86-037-03,-23.3,0.334,-1.296,100.01,2.0,,0.0,0.0,
2025-08-15T04:04:47.934Z,5,GR86-037-03,-26.1,0.251,-1.239,100.02,2.0,,0.0,0.0,
2025-08-15T04:04:47.977Z,5,GR86-037-03,-30.6,0.247,-1.223,100.01,2.0,,0.0,0.0,
2025-08-15T04:04:48.020Z,5,GR86-037-03,-31.200000000000003,0.246,-1.1,100.03,2.0,6360.0,0.0,0.0,
2025-08-15T04:04:48.064Z,5,GR86-037-03,-18.3,0.235,-1.099,100.02,2.0,,0.0,0.0,106.62
2025-08-15T04:04:48.107Z,5,GR86-037-03,-10.5,0.207,-1.109,100.02,2.0,,0.0,0.0,
2025-08-15T04:04:48.150Z,5,GR86-037-03,-15.7,0.278,-1.056,100.01,2.0,,0.0,0.0,
2025-08-15T04:04:48.193Z,5,GR86-037-03,-32.4,0.274,-1.056,100.03,2.0,,0.0,0.0,
2025-08-15T04:04:48.236Z,5,GR86-037-03,-50.1,0.26,-1.096,100.02,2.0,6374.0,0.0,0.0,
2025-08-15T04:04:48.279Z,5,GR86-037-03,-58.400000000000006,0.249,-1.109,100.02,2.0,,0.0,0.0,107.54
2025-08-15T04:04:48.322Z,5,GR86-037-03,-52.6,0.227,-1.172,100.01,2.0,,0.0,0.0,
2025-08-15T04:04:48.365Z,5,GR86-037-03,-42.1,0.214,-1.203,100.01,2.0,,0.0,0.0,
2025-08-15T04:04:48.408Z,5,GR86-037-03,-31.0,0.239,-1.247,100.01,2.0,,0.0,0.0,
2025-08-15T04:04:48.451Z,5,GR86-037-03,-25.6,0.238,-1.21,100.01,2.0,6496.0,0.0,0.0,
2025-08-15T04:04:48.494Z,5,GR86-037-03,-27.200000000000003,0.249,-1.179,100.02,2.0,,0.0,0.0,108.65
2025-08-15T04:04:48.537Z,5,GR86-037-03,-31.8,0.269,-1.169,100.02,2.0,,0.0,0.0,
2025-08-15T04:04:48.580Z,5,GR86-037-03,-36.0,0.266,-1.081,100.01,2.0,,0.0,0.0,
2025-08-15T04:04:48.624Z,5,GR86-037-03,-42.1,0.239,-1.054,100.02,2.0,,0.0,0.0,
2025-08-15T04:04:48.666Z,5,GR86-037-03,-46.7,0.233,-1.014,100.01,2.0,6539.0,0.0,0.0,
2025-08-15T04:04:48.709Z,5,GR86-037-03,-49.8,0.226,-1.009,100.02,2.0,,0.0,0.0,108.87
2025-08-15T04:04:48.753Z,5,GR86-037-03,-51.3,0.208,-1.009,100.01,2.0,,0.0,0.0,
2025-08-15T04:04:48.797Z,5,GR86-037-03,-52.6,0.249,-1.001,100.01,2.0,,0.0,0.0,
2025-08-15T04:04:48.840Z,5,GR86-037-03,-54.2,0.223,-0.974,100.01,2.0,,0.0,0.0,
2025-08-15T04:04:48.884Z,5,GR86-037-03,-54.7,0.206,-1.037,100.02,2.0,6550.0,0.0,0.0,
2025-08-15T04:04:48.926Z,5,GR86-037-03,-54.1,0.208,-1.03,100.0,2.0,,0.0,0.0,111.37
2025-08-15T04:04:48.969Z,5,GR86-037-03,-51.7,0.232,-1.055,99.99,2.0,,0.0,0.0,
2025-08-15T04:04:49.013Z,5,GR86-037-03,-47.5,0.215,-1.059,100.01,2.0,,0.0,0.0,
2025-08-15T04:04:49.056Z,5,GR86-037-03,-41.1,0.216,-1.051,100.02,2.0,,0.0,0.0,
2025-08-15T04:04:49.099Z,5,GR86-037-03,-34.300000000000004,0.221,-1.063,100.01,2.0,6603.0,0.0,0.0,
2025-08-15T04:04:49.144Z,5,GR86-037-03,-28.8,0.237,-1.083,100.02,2.0,,0.0,0.0,113.46
2025-08-15T04:04:49.187Z,5,GR86-037-03,-29.9,0.247,-1.058,100.02,2.0,,0.0,0.0,
2025-08-15T04:04:49.230Z,5,GR86-037-03,-32.4,0.252,-1.119,100.0,2.0,,0.0,0.0,
2025-08-15T04:04:49.273Z,5,GR86-037-03,-33.0,0.232,-1.168,100.02,2.0,,0.0,0.0,
2025-08-15T04:04:49.316Z,5,GR86-037-03,-32.6,0.222,-1.141,100.01,2.0,6711.0,0.0,0.0,
2025-08-15T04:04:49.359Z,5,GR86-037-03,-30.700000000000003,0.251,-1.148,100.01,2.0,,0.0,0.0,115.67
2025-08-15T04:04:49.402Z,5,GR86-037-03,-26.4,0.248,-1.144,100.02,2.0,,0.0,0.0,
2025-08-15T04:04:49.445Z,5,GR86-037-03,-23.8,0.246,-1.075,100.02,2.0,,0.0,0.0,
2025-08-15T04:04:49.488Z,5,GR86-037-03,-22.9,0.24,-1.088,100.02,2.0,,0.0,0.0,
2025-08-15T04:04:49.531Z,5,GR86-037-03,-22.9,0.249,-1.068,100.01,2.0,6841.0,0.0,0.0,
2025-08-15T04:04:49.574Z,5,GR86-037-03,-22.9,0.235,-1.063,100.01,2.0,,0.0,0.0,117.5
2025-08-15T04:04:49.617Z,5,GR86-037-03,-22.4,0.226,-0.991,100.02,2.0,,0.0,0.0,
2025-08-15T04:04:49.660Z,5,GR86-037-03,-22.700000000000003,0.175,-0.99,100.0,2.0,,0.0,0.0,
2025-08-15T04:04:49.704Z,5,GR86-037-03,-24.0,0.367,-0.773,100.01,2.0,,0.0,0.0,
2025-08-15T04:04:49.747Z,5,GR86-037-03,-28.1,0.358,-0.727,99.99,2.0,6979.0,0.0,0.0,
2025-08-15T04:04:49.790Z,5,GR86-037-03,-32.1,0.279,-0.713,100.01,2.0,,0.0,0.0,117.89
2025-08-15T04:04:49.834Z,5,GR86-037-03,-34.300000000000004,0.268,-0.585,99.99,2.0,,0.0,0.0,
2025-08-15T04:04:49.877Z,5,GR86-037-03,-33.5,0.253,-0.714,99.99,2.0,,0.0,0.0,
2025-08-15T04:04:49.920Z,5,GR86-037-03,-30.6,0.254,-0.757,100.03,2.0,,0.0,0.0,
2025-08-15T04:04:49.964Z,5,GR86-037-03,-25.6,0.281,-0.848,99.98,2.0,7027.0,0.0,0.0,
2025-08-15T04:04:50.006Z,5,GR86-037-03,-23.3,0.244,-0.764,100.02,2.0,,0.0,0.0,119.51
2025-08-15T04:04:50.049Z,5,GR86-037-03,-21.1,0.244,-0.893,99.98,2.0,,0.0,0.0,
2025-08-15T04:04:50.092Z,5,GR86-037-03,-20.200000000000003,0.244,-0.727,99.98,2.0,,0.0,0.0,
2025-08-15T04:04:50.135Z,5,GR86-037-03,-20.1,0.254,-0.804,100.03,2.0,,0.0,0.0,
2025-08-15T04:04:50.178Z,5,GR86-037-03,-18.8,0.267,-0.8,100.03,2.0,7149.0,0.0,0.0,
2025-08-15T04:04:50.221Z,5,GR86-037-03,-16.400000000000002,0.005,-0.764,100.0,3.0,,0.0,0.0,120.9
2025-08-15T04:04:50.264Z,5,GR86-037-03,-14.1,0.435,-0.594,100.0,3.0,,0.0,0.0,
2025-08-15T04:04:50.307Z,5,GR86-037-03,-13.9,0.377,-0.715,99.99,3.0,,0.0,0.0,
2025-08-15T04:04:50.350Z,5,GR86-037-03,-13.9,0.367,-0.461,99.99,3.0,,0.0,0.0,
2025-08-15T04:04:50.393Z,5,GR86-037-03,-13.8,0.326,-0.544,99.99,3.0,7201.0,0.0,0.0,
2025-08-15T04:04:50.436Z,5,GR86-037-03,-13.0,0.189,-0.6,100.0,3.0,,0.0,0.0,122.82
2025-08-15T04:04:50.479Z,5,GR86-037-03,-11.8,0.155,-0.521,99.99,3.0,,0.0,0.0,
2025-08-15T04:04:50.523Z,5,GR86-037-03,-10.2,0.268,-0.406,100.02,3.0,,0.0,0.0,
2025-08-15T04:04:50.565Z,5,GR86-037-03,-9.8,0.225,-0.444,99.98,3.0,,0.0,0.0,
2025-08-15T04:04:50.608Z,5,GR86-037-03,-9.3,0.224,-0.17,100.01,3.0,6139.0,0.0,0.0,
2025-08-15T04:04:50.651Z,5,GR86-037-03,-7.9,0.187,-0.265,100.0,3.0,,0.0,0.0,124.32
2025-08-15T04:04:50.694Z,5,GR86-037-03,-6.0,0.309,-0.288,100.01,3.0,,0.0,0.0,
2025-08-15T04:04:50.737Z,5,GR86-037-03,-4.6000000000000005,0.307,-0.288,99.98,3.0,,0.0,0.0,
2025-08-15T04:04:50.780Z,5,GR86-037-03,-3.1,0.202,-0.189,99.98,3.0,,0.0,0.0,
2025-08-15T04:04:50.824Z,5,GR86-037-03,2.3000000000000003,0.147,-0.236,100.01,3.0,5989.0,0.0,0.0,
2025-08-15T04:04:50.867Z,5,GR86-037-03,6.300000000000001,0.242,-0.186,99.99,3.0,,0.0,0.0,126.4
2025-08-15T04:04:50.910Z,5,GR86-037-03,8.8,0.23,-0.111,100.02,3.0,,0.0,0.0,
2025-08-15T04:04:50.953Z,5,GR86-037-03,9.1,0.268,-0.192,100.01,3.0,,0.0,0.0,
2025-08-15T04:04:50.996Z,5,GR86-037-03,9.1,0.19,0.077,100.02,3.0,,0.0,0.0,
2025-08-15T04:04:51.039Z,5,GR86-037-03,9.1,0.171,0.119,100.0,3.0,6006.0,0.0,0.0,
2025-08-15T04:04:51.083Z,5,GR86-037-03,9.1,0.256,0.161,100.01,3.0,,0.0,0.0,127.75
2025-08-15T04:04:51.126Z,5,GR86-037-03,9.2,0.243,0.199,99.99,3.0,,0.0,0.0,
2025-08-15T04:04:51.169Z,5,GR86-037-03,8.200000000000001,0.25,0.21,99.98,3.0,,0.0,0.0,
2025-08-15T04:04:51.212Z,5,GR86-037-03,6.5,0.231,0.201,100.02,3.0,,0.0,0.0,
2025-08-15T04:04:51.255Z,5,GR86-037-03,6.1000000000000005,0.216,0.215,100.0,3.0,6076.0,0.0,0.0,
2025-08-15T04:04:51.298Z,5,GR86-037-03,6.1000000000000005,0.236,0.157,100.0,3.0,,0.0,0.0,129.61
2025-08-15T04:04:51.341Z,5,GR86-037-03,6.1000000000000005,0.219,0.149,100.0,3.0,,0.0,0.0,
2025-08-15T04:04:51.384Z,5,GR86-037-03,6.1000000000000005,0.214,0.075,100.01,3.0,,0.0,0.0,
2025-08-15T04:04:51.427Z,5,GR86-037-03,6.1000000000000005,0.223,0.068,100.0,3.0,,0.0,0.0,
2025-08-15T04:04:51.470Z,5,GR86-037-03,6.1000000000000005,0.219,0.046,100.0,3.0,6176.0,0.0,0.0,
2025-08-15T04:04:51.513Z,5,GR86-037-03,7.2,0.221,0.033,100.02,3.0,,0.0,0.0,130.66
2025-08-15T04:04:51.556Z,5,GR86-037-03,9.2,0.227,0.033,99.99,3.0,,0.0,0.0,
2025-08-15T04:04:51.599Z,5,GR86-037-03,10.3,0.218,0.057,100.0,3.0,,0.0,0.0,
2025-08-15T04:04:51.644Z,5,GR86-037-03,10.3,0.232,0.092,99.99,3.0,,0.0,0.0,
2025-08-15T04:04:51.687Z,5,GR86-037-03,10.3,0.222,0.14,100.01,3.0,6206.0,0.0,0.0,
2025-08-15T04:04:51.730Z,5,GR86-037-03,10.3,0.211,0.156,99.99,3.0,,0.0,0.0,132.67000000000002
2025-08-15T04:04:51.773Z,5,GR86-037-03,9.4,0.216,0.159,100.03,3.0,,0.0,0.0,
2025-08-15T04:04:51.816Z,5,GR86-037-03,8.0,0.222,0.169,99.99,3.0,,0.0,0.0,
2025-08-15T04:04:51.859Z,5,GR86-037-03,6.4,0.226,0.164,100.04,3.0,,0.0,0.0,
2025-08-15T04:04:51.903Z,5,GR86-037-03,4.0,0.219,0.137,100.01,3.0,6292.0,0.0,0.0,
2025-08-15T04:04:51.947Z,5,GR86-037-03,3.5,0.209,0.1,99.98,3.0,,0.0,0.0,135.65
2025-08-15T04:04:51.990Z,5,GR86-037-03,3.5,0.2,0.08,100.0,3.0,,0.0,0.0,
2025-08-15T04:04:52.033Z,5,GR86-037-03,3.5,0.231,0.043,100.01,3.0,,0.0,0.0,
2025-08-15T04:04:52.076Z,5,GR86-037-03,3.5,0.223,0.024,100.0,3.0,,0.0,0.0,
2025-08-15T04:04:52.119Z,5,GR86-037-03,3.5,0.213,0.005,100.03,3.0,6355.0,0.0,0.0,
2025-08-15T04:04:52.163Z,5,GR86-037-03,3.5,0.227,-0.03,100.0,3.0,,0.0,0.0,137.19
2025-08-15T04:04:52.206Z,5,GR86-037-03,3.5,0.216,-0.039,100.01,3.0,,0.0,0.0,
2025-08-15T04:04:52.249Z,5,GR86-037-03,3.5,0.211,-0.048,100.0,3.0,,0.0,0.0,
2025-08-15T04:04:52.293Z,5,GR86-037-03,3.5,0.206,-0.052,100.0,3.0,,0.0,0.0,
2025-08-15T04:04:52.335Z,5,GR86-037-03,3.5,0.219,-0.04,100.01,3.0,6429.0,0.0,0.0,
2025-08-15T04:04:52.379Z,5,GR86-037-03,3.5,0.208,-0.04,100.01,3.0,,0.0,0.0,138.68
2025-08-15T04:04:52.422Z,5,GR86-037-03,3.5,0.218,-0.053,100.01,3.0,,0.0,0.0,
2025-08-15T04:04:52.465Z,5,GR86-037-03,3.5,0.217,-0.034,100.02,3.0,,0.0,0.0,
2025-08-15T04:04:52.508Z,5,GR86-037-03,3.5,0.204,-0.03,100.01,3.0,,0.0,0.0,
2025-08-15T04:04:52.552Z,5,GR86-037-03,3.5,0.214,-0.035,100.01,3.0,6565.0,0.0,0.0,
2025-08-15T04:04:52.595Z,5,GR86-037-03,3.5,0.21,-0.042,99.99,3.0,,0.0,0.0,140.11
2025-08-15T04:04:52.638Z,5,GR86-037-03,3.5,0.229,-0.034,100.0,3.0,,0.0,0.0,
2025-08-15T04:04:52.681Z,5,GR86-037-03,3.5,0.177,-0.039,100.01,3.0,,0.0,0.0,
2025-08-15T04:04:52.724Z,5,GR86-037-03,3.5,0.216,-0.04,100.01,3.0,,0.0,0.0,
2025-08-15T04:04:52.767Z,5,GR86-037-03,3.5,0.191,-0.04,100.01,3.0,6633.0,0.0,0.0,
2025-08-15T04:04:52.810Z,5,GR86-037-03,3.5,0.197,-0.07,100.0,3.0,,0.0,0.0,141.54
2025-08-15T04:04:52.853Z,5,GR86-037-03,3.5,0.205,-0.043,99.99,3.0,,0.0,0.0,
2025-08-15T04:04:52.896Z,5,GR86-037-03,3.5,0.207,-0.03,100.02,3.0,,0.0,0.0,
2025-08-15T04:04:52.939Z,5,GR86-037-03,3.5,0.224,-0.035,100.0,3.0,,0.0,0.0,
2025-08-15T04:04:52.984Z,5,GR86-037-03,3.5,0.218,-0.037,100.0,3.0,6699.0,0.0,0.0,
2025-08-15T04:04:53.027Z,5,GR86-037-03,3.5,0.208,-0.028,100.02,3.0,,0.0,0.0,142.98
2025-08-15T04:04:53.070Z,5,GR86-037-03,3.5,0.187,-0.036,100.0,3.0,,0.0,0.0,
2025-08-15T04:04:53.113Z,5,GR86-037-03,3.5,0.199,-0.036,99.98,3.0,,0.0,0.0,
2025-08-15T04:04:53.156Z,5,GR86-037-03,3.5,0.212,-0.033,99.99,3.0,,0.0,0.0,
2025-08-15T04:04:53.199Z,5,GR86-037-03,3.5,0.214,-0.017,100.02,3.0,6769.0,0.0,0.0,
2025-08-15T04:04:53.244Z,5,GR86-037-03,3.5,0.201,-0.031,99.99,3.0,,0.0,0.0,144.42000000000002
2025-08-15T04:04:53.287Z,5,GR86-037-03,3.5,0.201,-0.019,100.0,3.0,,0.0,0.0,
2025-08-15T04:04:53.330Z,5,GR86-037-03,3.5,0.211,-0.007,100.03,3.0,,0.0,0.0,
2025-08-15T04:04:53.374Z,5,GR86-037-03,3.5,0.2,-0.01,100.01,3.0,,0.0,0.0,
2025-08-15T04:04:53.417Z,5,GR86-037-03,3.5,0.198,-0.012,100.0,3.0,6828.0,0.0,0.0,
2025-08-15T04:04:53.460Z,5,GR86-037-03,3.5,0.205,-0.036,100.03,3.0,,0.0,0.0,145.79
2025-08-15T04:04:53.504Z,5,GR86-037-03,3.5,0.187,-0.038,99.99,3.0,,0.0,0.0,
2025-08-15T04:04:53.547Z,5,GR86-037-03,3.5,0.202,-0.034,99.99,3.0,,0.0,0.0,
2025-08-15T04:04:53.590Z,5,GR86-037-03,3.5,0.194,-0.017,100.01,3.0,,0.0,0.0,
2025-08-15T04:04:53.633Z,5,GR86-037-03,3.5,0.204,0.012,100.0,3.0,6889.0,0.0,0.0,
2025-08-15T04:04:53.676Z,5,GR86-037-03,3.5,0.206,-0.01,99.99,3.0,,0.0,0.0,147.16
2025-08-15T04:04:53.719Z,5,GR86-037-03,3.5,0.193,-0.033,100.03,3.0,,0.0,0.0,
2025-08-15T04:04:53.763Z,5,GR86-037-03,3.8,0.192,-0.052,100.0,3.0,,0.0,0.0,
2025-08-15T04:04:53.805Z,5,GR86-037-03,4.5,0.194,-0.041,100.02,3.0,,0.0,0.0,
2025-08-15T04:04:53.848Z,5,GR86-037-03,4.6000000000000005,0.191,-0.018,100.0,3.0,6950.0,0.0,0.0,
2025-08-15T04:04:53.891Z,5,GR86-037-03,4.6000000000000005,0.2,-0.015,100.0,3.0,,0.0,0.0,148.47
2025-08-15T04:04:53.934Z,5,GR86-037-03,4.6000000000000005,0.194,-0.004,100.03,3.0,,0.0,0.0,
2025-08-15T04:04:54.020Z,5,GR86-037-03,4.6000000000000005,0.19,0.006,100.01,3.0,,0.0,0.0,
2025-08-15T04:04:54.064Z,5,GR86-037-03,4.6000000000000005,0.197,0.029,99.99,3.0,7004.0,0.0,0.0,
2025-08-15T04:04:54.107Z,5,GR86-037-03,4.6000000000000005,0.191,0.018,99.99,3.0,,0.0,0.0,149.83
2025-08-15T04:04:54.150Z,5,GR86-037-03,4.6000000000000005,0.194,0.013,100.01,3.0,,0.0,0.0,
2025-08-15T04:04:54.193Z,5,GR86-037-03,4.5,0.197,0.027,99.99,3.0,,0.0,0.0,
2025-08-15T04:04:54.236Z,5,GR86-037-03,4.0,0.192,0.031,100.02,3.0,,0.0,0.0,
2025-08-15T04:04:54.279Z,5,GR86-037-03,4.0,0.201,0.026,99.98,3.0,7072.0,0.0,0.0,
2025-08-15T04:04:54.322Z,5,GR86-037-03,4.0,-0.017,0.003,100.01,4.0,,0.0,0.0,151.12
2025-08-15T04:04:54.365Z,5,GR86-037-03,3.6,0.209,0.03,100.0,4.0,,0.0,0.0,
2025-08-15T04:04:54.408Z,5,GR86-037-03,3.6,0.261,-0.047,100.01,4.0,,0.0,0.0,
2025-08-15T04:04:54.451Z,5,GR86-037-03,3.2,0.289,-0.059,100.01,4.0,,0.0,0.0,
2025-08-15T04:04:54.494Z,5,GR86-037-03,1.7000000000000002,0.269,0.052,99.99,4.0,7132.0,0.0,0.0,
2025-08-15T04:04:54.537Z,5,GR86-037-03,1.2000000000000002,0.083,-0.088,100.0,4.0,,0.0,0.0,152.36
2025-08-15T04:04:54.580Z,5,GR86-037-03,1.2000000000000002,0.118,-0.067,99.99,4.0,,0.0,0.0,
2025-08-15T04:04:54.624Z,5,GR86-037-03,1.0,0.195,-0.072,99.99,4.0,,0.0,0.0,
2025-08-15T04:04:54.666Z,5,GR86-037-03,1.0,0.179,-0.1,100.0,4.0,,0.0,0.0,
2025-08-15T04:04:54.709Z,5,GR86-037-03,1.0,0.161,-0.07,100.0,4.0,6830.0,0.0,0.0,
2025-08-15T04:04:54.753Z,5,GR86-037-03,1.0,0.157,-0.124,99.99,4.0,,0.0,0.0,154.77
2025-08-15T04:04:54.797Z,5,GR86-037-03,1.0,0.182,-0.122,99.99,4.0,,0.0,0.0,
2025-08-15T04:04:54.840Z,5,GR86-037-03,1.0,0.172,-0.113,99.99,4.0,,0.0,0.0,
2025-08-15T04:04:54.884Z,5,GR86-037-03,1.0,0.172,-0.099,99.99,4.0,,0.0,0.0,
2025-08-15T04:04:54.926Z,5,GR86-037-03,1.0,0.162,-0.125,100.0,4.0,6017.0,0.0,0.0,
2025-08-15T04:04:54.969Z,5,GR86-037-03,0.9,0.16,-0.117,99.99,4.0,,0.0,0.0,156.07
2025-08-15T04:04:55.013Z,5,GR86-037-03,0.7000000000000001,0.143,-0.108,100.0,4.0,,0.0,0.0,
2025-08-15T04:04:55.056Z,5,GR86-037-03,0.7000000000000001,0.16,-0.105,99.99,4.0,,0.0,0.0,
2025-08-15T04:04:55.099Z,5,GR86-037-03,0.7000000000000001,0.131,-0.084,99.99,4.0,,0.0,0.0,
2025-08-15T04:04:55.144Z,5,GR86-037-03,0.7000000000000001,0.145,-0.104,100.0,4.0,6181.0,0.0,0.0,
2025-08-15T04:04:55.187Z,5,GR86-037-03,0.7000000000000001,0.144,-0.122,100.01,4.0,,0.0,0.0,157.13
2025-08-15T04:04:55.230Z,5,GR86-037-03,0.7000000000000001,0.149,-0.12,100.0,4.0,,0.0,0.0,
2025-08-15T04:04:55.273Z,5,GR86-037-03,0.7000000000000001,0.144,-0.114,100.0,4.0,,0.0,0.0,
2025-08-15T04:04:55.316Z,5,GR86-037-03,0.7000000000000001,0.162,-0.117,99.99,4.0,,0.0,0.0,
2025-08-15T04:04:55.359Z,5,GR86-037-03,0.7000000000000001,0.167,-0.113,99.99,4.0,6222.0,0.0,0.0,
2025-08-15T04:04:55.445Z,5,GR86-037-03,0.9,0.157,-0.121,99.99,4.0,,0.0,0.0,158.29
2025-08-15T04:04:55.488Z,5,GR86-037-03,0.9,0.158,-0.126,100.0,4.0,,0.0,0.0,
2025-08-15T04:04:55.531Z,5,GR86-037-03,0.9,0.168,-0.136,99.99,4.0,,0.0,0.0,
2025-08-15T04:04:55.574Z,5,GR86-037-03,1.1,0.175,-0.135,100.0,4.0,6267.0,0.0,0.0,
2025-08-15T04:04:55.617Z,5,GR86-037-03,1.8,0.157,-0.136,100.01,4.0,,0.0,0.0,159.27
2025-08-15T04:04:55.660Z,5,GR86-037-03,2.2,0.151,-0.118,99.99,4.0,,0.0,0.0,
2025-08-15T04:04:55.704Z,5,GR86-037-03,2.2,0.183,-0.086,99.99,4.0,,0.0,0.0,
2025-08-15T04:04:55.747Z,5,GR86-037-03,2.2,0.163,-0.089,99.99,4.0,,0.0,0.0,
2025-08-15T04:04:55.790Z,5,GR86-037-03,2.2,0.175,-0.071,100.0,4.0,6302.0,0.0,0.0,
2025-08-15T04:04:55.834Z,5,GR86-037-03,2.2,0.156,-0.076,100.0,4.0,,0.0,0.0,160.43
2025-08-15T04:04:55.877Z,5,GR86-037-03,2.2,0.144,-0.059,99.99,4.0,,0.0,0.0,
2025-08-15T04:04:55.964Z,5,GR86-037-03,5.300000000000001,0.172,-0.035,100.0,4.0,,0.0,0.0,
2025-08-15T04:04:56.006Z,5,GR86-037-03,6.300000000000001,0.162,-0.011,100.0,4.0,6343.0,0.0,0.0,
2025-08-15T04:04:56.049Z,5,GR86-037-03,6.300000000000001,0.147,-0.008,99.99,4.0,,0.0,0.0,161.43
2025-08-15T04:04:56.092Z,5,GR86-037-03,6.4,0.13,-0.001,100.0,4.0,,0.0,0.0,
2025-08-15T04:04:56.135Z,5,GR86-037-03,6.4,0.128,0.014,100.01,4.0,,0.0,0.0,
2025-08-15T04:04:56.178Z,5,GR86-037-03,6.300000000000001,0.133,0.045,100.0,4.0,,0.0,0.0,
2025-08-15T04:04:56.221Z,5,GR86-037-03,6.4,0.147,0.058,100.0,4.0,6380.0,0.0,0.0,
2025-08-15T04:04:56.264Z,5,GR86-037-03,6.300000000000001,0.145,0.078,100.0,4.0,,0.0,0.0,162.45000000000002
2025-08-15T04:04:56.307Z,5,GR86-037-03,4.800000000000001,0.147,0.07,99.98,4.0,,0.0,0.0,
2025-08-15T04:04:56.350Z,5,GR86-037-03,2.7,0.123,0.075,99.99,4.0,,0.0,0.0,
2025-08-15T04:04:56.393Z,5,GR86-037-03,1.0,0.128,0.036,100.01,4.0,,0.0,0.0,
2025-08-15T04:04:56.436Z,5,GR86-037-03,0.7000000000000001,0.147,-0.003,99.99,4.0,6422.0,0.0,0.0,
2025-08-15T04:04:56.479Z,5,GR86-037-03,0.7000000000000001,0.166,-0.023,100.02,4.0,,0.0,0.0,163.45000000000002
2025-08-15T04:04:56.522Z,5,GR86-037-03,0.7000000000000001,0.137,-0.05,99.99,4.0,,0.0,0.0,
2025-08-15T04:04:56.565Z,5,GR86-037-03,0.7000000000000001,0.116,-0.062,100.0,4.0,,0.0,0.0,
2025-08-15T04:04:56.608Z,5,GR86-037-03,0.7000000000000001,0.128,-0.093,100.0,4.0,,0.0,0.0,
2025-08-15T04:04:56.651Z,5,GR86-037-03,0.7000000000000001,0.144,-0.14,100.01,4.0,6465.0,0.0,0.0,
2025-08-15T04:04:56.694Z,5,GR86-037-03,0.7000000000000001,0.157,-0.144,100.02,4.0,,0.0,0.0,164.49
2025-08-15T04:04:56.737Z,5,GR86-037-03,0.7000000000000001,0.155,-0.17,100.01,4.0,,0.0,0.0,
2025-08-15T04:04:56.780Z,5,GR86-037-03,0.7000000000000001,0.159,-0.179,99.99,4.0,,0.0,0.0,
2025-08-15T04:04:56.824Z,5,GR86-037-03,0.7000000000000001,0.126,-0.149,99.99,4.0,,0.0,0.0,
2025-08-15T04:04:56.867Z,5,GR86-037-03,0.7000000000000001,0.135,-0.142,100.0,4.0,6507.0,0.0,0.0,
2025-08-15T04:04:56.953Z,5,GR86-037-03,0.7000000000000001,0.129,-0.12,100.0,4.0,,0.0,0.0,165.56
2025-08-15T04:04:56.996Z,5,GR86-037-03,0.7000000000000001,0.171,-0.126,99.99,4.0,,0.0,0.0,
2025-08-15T04:04:57.039Z,5,GR86-037-03,0.7000000000000001,0.162,-0.13,99.99,4.0,,0.0,0.0,
2025-08-15T04:04:57.083Z,5,GR86-037-03,-1.4,0.118,-0.121,100.02,4.0,6547.0,0.0,0.0,
2025-08-15T04:04:57.126Z,5,GR86-037-03,-2.6,0.129,-0.148,100.01,4.0,,0.0,0.0,166.59
2025-08-15T04:04:57.169Z,5,GR86-037-03,-2.8000000000000003,0.123,-0.182,99.99,4.0,,0.0,0.0,
2025-08-15T04:04:57.212Z,5,GR86-037-03,-3.1,0.133,-0.182,99.98,4.0,,0.0,0.0,
2025-08-15T04:04:57.255Z,5,GR86-037-03,-4.0,0.132,-0.205,100.0,4.0,,0.0,0.0,
2025-08-15T04:04:57.298Z,5,GR86-037-03,-5.2,0.14,-0.214,100.0,4.0,6597.0,0.0,0.0,
2025-08-15T04:04:57.341Z,5,GR86-037-03,-5.300000000000001,0.167,-0.259,99.99,4.0,,0.0,0.0,167.6
2025-08-15T04:04:57.384Z,5,GR86-037-03,-5.300000000000001,0.125,-0.28,99.99,4.0,,0.0,0.0,
2025-08-15T04:04:57.427Z,5,GR86-037-03,-5.300000000000001,0.119,-0.32,99.99,4.0,,0.0,0.0,
2025-08-15T04:04:57.470Z,5,GR86-037-03,-5.300000000000001,0.11,-0.349,100.0,4.0,,0.0,0.0,
2025-08-15T04:04:57.513Z,5,GR86-037-03,-5.4,0.113,-0.385,99.99,4.0,6631.0,0.0,0.0,
2025-08-15T04:04:57.556Z,5,GR86-037-03,-5.4,0.13,-0.372,99.99,4.0,,0.0,0.0,169.77
2025-08-15T04:04:57.599Z,5,GR86-037-03,-5.4,0.147,-0.36,100.0,4.0,,0.0,0.0,
2025-08-15T04:04:57.644Z,5,GR86-037-03,-3.5,0.124,-0.339,100.0,4.0,,0.0,0.0,
2025-08-15T04:04:57.687Z,5,GR86-037-03,-2.4000000000000004,0.126,-0.317,100.0,4.0,,0.0,0.0,
2025-08-15T04:04:57.730Z,5,GR86-037-03,-2.3000000000000003,0.123,-0.308,100.0,4.0,6677.0,0.0,0.0,
2025-08-15T04:04:57.773Z,5,GR86-037-03,-2.0,0.129,-0.297,100.0,4.0,,0.0,0.0,170.92000000000002
2025-08-15T04:04:57.816Z,5,GR86-037-03,-0.6000000000000001,0.096,-0.256,100.0,4.0,,0.0,0.0,
2025-08-15T04:04:57.859Z,5,GR86-037-03,-0.3,0.116,-0.274,99.99,4.0,,0.0,0.0,
2025-08-15T04:04:57.903Z,5,GR86-037-03,-0.7000000000000001,0.145,-0.248,99.98,4.0,,0.0,0.0,
2025-08-15T04:04:57.947Z,5,GR86-037-03,-2.4000000000000004,0.136,-0.251,100.0,4.0,6759.0,0.0,0.0,
2025-08-15T04:04:57.990Z,5,GR86-037-03,-3.1,0.135,-0.245,99.98,4.0,,0.0,0.0,171.88
2025-08-15T04:04:58.033Z,5,GR86-037-03,-3.1,0.123,-0.266,100.0,4.0,,0.0,0.0,
2025-08-15T04:04:58.076Z,5,GR86-037-03,-3.1,0.105,-0.265,99.99,4.0,,0.0,0.0,
2025-08-15T04:04:58.119Z,5,GR86-037-03,-1.6,0.125,-0.275,100.0,4.0,,0.0,0.0,
2025-08-15T04:04:58.163Z,5,GR86-037-03,0.5,0.16,-0.22,100.0,4.0,6800.0,0.0,0.0,
2025-08-15T04:04:58.206Z,5,GR86-037-03,0.5,0.131,-0.213,100.0,4.0,,0.0,0.0,172.9
2025-08-15T04:04:58.249Z,5,GR86-037-03,0.5,0.153,-0.205,100.0,4.0,,0.0,0.0,
2025-08-15T04:04:58.293Z,5,GR86-037-03,0.5,0.15,-0.157,100.0,4.0,,0.0,0.0,
2025-08-15T04:04:58.335Z,5,GR86-037-03,0.5,0.142,-0.166,100.0,4.0,,0.0,0.0,
2025-08-15T04:04:58.379Z,5,GR86-037-03,0.5,0.13,-0.137,99.99,4.0,6840.0,0.0,0.0,
2025-08-15T04:04:58.465Z,5,GR86-037-03,-1.7000000000000002,0.131,-0.128,99.99,4.0,,0.0,0.0,174.06
2025-08-15T04:04:58.508Z,5,GR86-037-03,-3.5,0.117,-0.126,100.0,4.0,,0.0,0.0,
2025-08-15T04:04:58.551Z,5,GR86-037-03,-3.7,0.13,-0.185,100.01,4.0,,0.0,0.0,
2025-08-15T04:04:58.594Z,5,GR86-037-03,-3.7,0.11,-0.23,100.0,4.0,6871.0,0.0,0.0,
2025-08-15T04:04:58.637Z,5,GR86-037-03,-3.7,0.138,-0.262,100.02,4.0,,0.0,0.0,174.94
2025-08-15T04:04:58.680Z,5,GR86-037-03,-3.7,0.121,-0.263,100.01,4.0,,0.0,0.0,
2025-08-15T04:04:58.724Z,5,GR86-037-03,-3.7,0.086,-0.294,99.99,4.0,,0.0,0.0,
2025-08-15T04:04:58.766Z,5,GR86-037-03,-3.4000000000000004,0.144,-0.265,100.01,4.0,,0.0,0.0,
2025-08-15T04:04:58.809Z,5,GR86-037-03,-1.3,0.112,-0.299,100.01,4.0,6915.0,0.0,0.0,
2025-08-15T04:04:58.895Z,5,GR86-037-03,0.3,0.119,-0.271,100.01,4.0,,0.0,0.0,175.89
2025-08-15T04:04:58.938Z,5,GR86-037-03,0.4,0.127,-0.278,100.01,4.0,,0.0,0.0,
2025-08-15T04:04:58.981Z,5,GR86-037-03,0.5,0.126,-0.253,100.0,4.0,,0.0,0.0,
2025-08-15T04:04:59.024Z,5,GR86-037-03,0.8,0.141,-0.215,99.98,4.0,6948.0,0.0,0.0,
2025-08-15T04:04:59.067Z,5,GR86-037-03,0.9,0.132,-0.211,99.99,4.0,,0.0,0.0,176.93
2025-08-15T04:04:59.110Z,5,GR86-037-03,1.2000000000000002,0.112,-0.178,100.0,4.0,,0.0,0.0,
2025-08-15T04:04:59.153Z,5,GR86-037-03,1.5,0.16,-0.14,99.99,4.0,,0.0,0.0,
2025-08-15T04:04:59.196Z,5,GR86-037-03,1.8,0.133,-0.114,99.99,4.0,,0.0,0.0,
2025-08-15T04:04:59.239Z,5,GR86-037-03,1.9,0.116,-0.079,100.01,4.0,7000.0,0.0,0.0,
2025-08-15T04:04:59.284Z,5,GR86-037-03,2.1,0.101,-0.09,99.97,4.0,,0.0,0.0,177.84
2025-08-15T04:04:59.327Z,5,GR86-037-03,2.2,0.132,-0.087,99.99,4.0,,0.0,0.0,
2025-08-15T04:04:59.370Z,5,GR86-037-03,2.1,0.117,-0.081,99.98,4.0,,0.0,0.0,
2025-08-15T04:04:59.413Z,5,GR86-037-03,1.4,0.117,-0.098,99.97,4.0,,0.0,0.0,
2025-08-15T04:04:59.456Z,5,GR86-037-03,0.5,0.126,-0.104,100.02,4.0,7018.0,0.0,0.0,
2025-08-15T04:04:59.499Z,5,GR86-037-03,0.5,0.124,-0.1,100.0,4.0,,0.0,0.0,178.99
2025-08-15T04:04:59.544Z,5,GR86-037-03,0.5,0.118,-0.107,100.01,4.0,,0.0,0.0,
2025-08-15T04:04:59.587Z,5,GR86-037-03,1.6,0.123,-0.114,100.0,4.0,,0.0,0.0,
2025-08-15T04:04:59.630Z,5,GR86-037-03,1.9,0.135,-0.126,99.98,4.0,,0.0,0.0,
2025-08-15T04:04:59.674Z,5,GR86-037-03,1.9,0.125,-0.107,100.01,4.0,7066.0,0.0,0.0,
2025-08-15T04:04:59.717Z,5,GR86-037-03,1.0,0.14,-0.084,100.0,4.0,,0.0,0.0,179.78
2025-08-15T04:04:59.760Z,5,GR86-037-03,0.2,0.134,-0.09,99.99,4.0,,0.0,0.0,
2025-08-15T04:04:59.804Z,5,GR86-037-03,0.2,0.121,-0.131,99.99,4.0,,0.0,0.0,
2025-08-15T04:04:59.847Z,5,GR86-037-03,0.2,0.131,-0.154,100.0,4.0,,0.0,0.0,
2025-08-15T04:04:59.890Z,5,GR86-037-03,0.0,0.121,-0.164,100.01,4.0,7094.0,0.0,0.0,
2025-08-15T04:04:59.933Z,5,GR86-037-03,-0.6000000000000001,0.124,-0.162,99.99,4.0,,0.0,0.0,180.83
2025-08-15T04:04:59.976Z,5,GR86-037-03,-1.0,0.122,-0.172,100.0,4.0,,0.0,0.0,
2025-08-15T04:05:00.019Z,5,GR86-037-03,-1.0,0.122,-0.151,99.98,4.0,,0.0,0.0,
2025-08-15T04:05:00.063Z,5,GR86-037-03,-1.0,0.112,-0.146,100.01,4.0,,0.0,0.0,
2025-08-15T04:05:00.105Z,5,GR86-037-03,-1.0,0.102,-0.152,99.98,4.0,7139.0,0.0,0.0,
2025-08-15T04:05:00.148Z,5,GR86-037-03,-1.0,0.114,-0.189,100.01,4.0,,0.0,0.0,182.7
2025-08-15T04:05:00.191Z,5,GR86-037-03,-0.8,0.082,-0.171,100.01,4.0,,0.0,0.0,
2025-08-15T04:05:00.234Z,5,GR86-037-03,-0.8,0.126,-0.196,100.0,4.0,,0.0,0.0,
2025-08-15T04:05:00.277Z,5,GR86-037-03,-0.8,0.073,-0.189,100.02,4.0,,0.0,0.0,
2025-08-15T04:05:00.320Z,5,GR86-037-03,-0.8,0.108,-0.207,99.98,4.0,7179.0,0.0,0.0,
2025-08-15T04:05:00.364Z,5,GR86-037-03,-0.8,0.14,-0.211,100.01,4.0,,0.0,0.0,183.6
2025-08-15T04:05:00.407Z,5,GR86-037-03,-0.8,0.133,-0.219,100.0,4.0,,0.0,0.0,
2025-08-15T04:05:00.450Z,5,GR86-037-03,-0.4,0.104,-0.208,100.0,4.0,,0.0,0.0,
2025-08-15T04:05:00.493Z,5,GR86-037-03,0.5,0.141,-0.187,99.98,4.0,,0.0,0.0,
2025-08-15T04:05:00.536Z,5,GR86-037-03,0.8,0.121,-0.159,100.0,4.0,7221.0,0.0,0.0,
2025-08-15T04:05:00.579Z,5,GR86-037-03,0.8,0.017,-0.162,100.01,5.0,,0.0,0.0,184.58
2025-08-15T04:05:00.622Z,5,GR86-037-03,0.8,0.34,-0.096,100.0,5.0,,0.0,0.0,
2025-08-15T04:05:00.665Z,5,GR86-037-03,0.8,0.189,-0.213,100.0,5.0,,0.0,0.0,
2025-08-15T04:05:00.708Z,5,GR86-037-03,0.8,0.134,-0.153,99.99,5.0,,0.0,0.0,
2025-08-15T04:05:00.751Z,5,GR86-037-03,0.8,0.063,-0.092,99.99,5.0,7281.0,0.0,0.0,
2025-08-15T04:05:00.794Z,5,GR86-037-03,0.8,0.041,-0.191,100.01,5.0,,0.0,0.0,185.44
2025-08-15T04:05:00.837Z,5,GR86-037-03,0.8,0.135,-0.126,100.0,5.0,,0.0,0.0,
2025-08-15T04:05:00.880Z,5,GR86-037-03,0.8,0.126,-0.116,100.0,5.0,,0.0,0.0,
2025-08-15T04:05:00.924Z,5,GR86-037-03,0.8,0.069,-0.157,100.01,5.0,,0.0,0.0,
2025-08-15T04:05:00.966Z,5,GR86-037-03,0.8,0.103,-0.106,99.98,5.0,6258.0,0.0,0.0,
2025-08-15T04:05:01.009Z,5,GR86-037-03,0.8,0.113,-0.119,99.99,5.0,,0.0,0.0,186.17
2025-08-15T04:05:01.053Z,5,GR86-037-03,0.8,0.084,-0.094,100.0,5.0,,0.0,0.0,
2025-08-15T04:05:01.097Z,5,GR86-037-03,1.4,0.073,-0.097,100.01,5.0,,0.0,0.0,
2025-08-15T04:05:01.140Z,5,GR86-037-03,2.1,0.088,-0.101,100.01,5.0,,0.0,0.0,
2025-08-15T04:05:01.184Z,5,GR86-037-03,2.1,0.131,-0.1,100.01,5.0,6354.0,0.0,0.0,
2025-08-15T04:05:01.226Z,5,GR86-037-03,2.1,0.124,-0.101,100.01,5.0,,0.0,0.0,187.2
2025-08-15T04:05:01.269Z,5,GR86-037-03,2.1,0.112,-0.11,99.99,5.0,,0.0,0.0,
2025-08-15T04:05:01.313Z,5,GR86-037-03,2.1,0.127,-0.106,99.99,5.0,,0.0,0.0,
2025-08-15T04:05:01.356Z,5,GR86-037-03,2.1,0.115,-0.099,100.0,5.0,,0.0,0.0,
2025-08-15T04:05:01.399Z,5,GR86-037-03,2.1,0.089,-0.086,100.0,5.0,6393.0,0.0,0.0,
2025-08-15T04:05:01.444Z,5,GR86-037-03,0.2,0.105,-0.09,100.0,5.0,,0.0,0.0,187.93
2025-08-15T04:05:01.487Z,5,GR86-037-03,-1.6,0.127,-0.09,100.01,5.0,,0.0,0.0,
2025-08-15T04:05:01.530Z,5,GR86-037-03,-1.9,0.116,-0.101,100.0,5.0,,0.0,0.0,
2025-08-15T04:05:01.573Z,5,GR86-037-03,-2.0,0.125,-0.124,99.99,5.0,,0.0,0.0,
2025-08-15T04:05:01.616Z,5,GR86-037-03,-1.6,0.109,-0.148,99.99,5.0,6419.0,0.0,0.0,
2025-08-15T04:05:01.659Z,5,GR86-037-03,-0.4,0.139,-0.172,100.0,5.0,,0.0,0.0,188.67
2025-08-15T04:05:01.702Z,5,GR86-037-03,1.9,0.076,-0.164,100.0,5.0,,0.0,0.0,
2025-08-15T04:05:01.745Z,5,GR86-037-03,2.0,0.106,-0.18,100.0,5.0,,0.0,0.0,
2025-08-15T04:05:01.788Z,5,GR86-037-03,2.0,0.078,-0.154,100.01,5.0,,0.0,0.0,
2025-08-15T04:05:01.831Z,5,GR86-037-03,2.0,0.129,-0.154,100.0,5.0,6440.0,0.0,0.0,
2025-08-15T04:05:01.874Z,5,GR86-037-03,2.3000000000000003,0.107,-0.153,100.01,5.0,,0.0,0.0,189.56
2025-08-15T04:05:01.917Z,5,GR86-037-03,2.3000000000000003,0.108,-0.144,100.0,5.0,,0.0,0.0,
2025-08-15T04:05:01.960Z,5,GR86-037-03,2.3000000000000003,0.138,-0.104,99.99,5.0,,0.0,0.0,
2025-08-15T04:05:02.004Z,5,GR86-037-03,2.3000000000000003,0.096,-0.059,100.01,5.0,,0.0,0.0,
2025-08-15T04:05:02.047Z,5,GR86-037-03,2.3000000000000003,0.08,-0.053,99.98,5.0,6474.0,0.0,0.0,
2025-08-15T04:05:02.090Z,5,GR86-037-03,2.3000000000000003,0.078,-0.072,100.0,5.0,,0.0,0.0,190.35
2025-08-15T04:05:02.134Z,5,GR86-037-03,2.5,0.099,-0.053,100.01,5.0,,0.0,0.0,
2025-08-15T04:05:02.177Z,5,GR86-037-03,3.8,0.111,-0.059,99.99,5.0,,0.0,0.0,
2025-08-15T04:05:02.220Z,5,GR86-037-03,4.800000000000001,0.098,-0.03,100.01,5.0,,0.0,0.0,
2025-08-15T04:05:02.264Z,5,GR86-037-03,4.800000000000001,0.091,-0.027,99.98,5.0,6505.0,0.0,0.0,
2025-08-15T04:05:02.350Z,5,GR86-037-03,4.7,0.079,-0.01,100.0,5.0,,0.0,0.0,191.16
2025-08-15T04:05:02.393Z,5,GR86-037-03,3.9,0.082,-0.009,99.98,5.0,,0.0,0.0,
2025-08-15T04:05:02.436Z,5,GR86-037-03,3.3000000000000003,0.088,0.005,100.01,5.0,,0.0,0.0,
2025-08-15T04:05:02.479Z,5,GR86-037-03,2.7,0.082,0.019,99.99,5.0,6524.0,0.0,0.0,
2025-08-15T04:05:02.522Z,5,GR86-037-03,2.5,0.087,-0.002,100.0,5.0,,0.0,0.0,192.04
2025-08-15T04:05:02.565Z,5,GR86-037-03,2.5,0.089,-0.009,100.0,5.0,,0.0,0.0,
2025-08-15T04:05:02.608Z,5,GR86-037-03,2.5,0.091,-0.026,100.0,5.0,,0.0,0.0,
2025-08-15T04:05:02.651Z,5,GR86-037-03,2.1,0.084,-0.024,100.0,5.0,,0.0,0.0,
2025-08-15T04:05:02.694Z,5,GR86-037-03,1.4,0.072,-0.042,99.98,5.0,6552.0,0.0,0.0,
2025-08-15T04:05:02.737Z,5,GR86-037-03,0.6000000000000001,0.093,-0.065,100.0,5.0,,0.0,0.0,192.9
2025-08-15T04:05:02.780Z,5,GR86-037-03,0.5,0.095,-0.069,99.99,5.0,,0.0,0.0,
2025-08-15T04:05:02.824Z,5,GR86-037-03,0.5,0.086,-0.119,100.0,5.0,,0.0,0.0,
2025-08-15T04:05:02.867Z,5,GR86-037-03,2.0,0.081,-0.107,99.99,5.0,,0.0,0.0,
2025-08-15T04:05:02.910Z,5,GR86-037-03,3.0,0.088,-0.12,100.0,5.0,6586.0,0.0,0.0,
2025-08-15T04:05:02.953Z,5,GR86-037-03,3.0,0.08,-0.102,100.0,5.0,,0.0,0.0,194.51
2025-08-15T04:05:02.996Z,5,GR86-037-03,3.0,0.091,-0.117,100.0,5.0,,0.0,0.0,
2025-08-15T04:05:03.039Z,5,GR86-037-03,3.0,0.08,-0.11,100.01,5.0,,0.0,0.0,
2025-08-15T04:05:03.083Z,5,GR86-037-03,2.0,0.085,-0.08,100.02,5.0,,0.0,0.0,
2025-08-15T04:05:03.125Z,5,GR86-037-03,1.6,0.095,-0.065,100.02,5.0,6612.0,0.0,0.0,
2025-08-15T04:05:03.168Z,5,GR86-037-03,1.5,0.078,-0.067,99.99,5.0,,0.0,0.0,195.29
2025-08-15T04:05:03.211Z,5,GR86-037-03,2.6,0.086,-0.058,100.0,5.0,,0.0,0.0,
2025-08-15T04:05:03.254Z,5,GR86-037-03,3.4000000000000004,0.077,-0.046,99.99,5.0,,0.0,0.0,
2025-08-15T04:05:03.297Z,5,GR86-037-03,3.4000000000000004,0.099,-0.033,99.99,5.0,,0.0,0.0,
2025-08-15T04:05:03.340Z,5,GR86-037-03,3.4000000000000004,0.116,-0.024,99.98,5.0,6638.0,0.0,0.0,
2025-08-15T04:05:03.384Z,5,GR86-037-03,2.9000000000000004,0.094,-0.048,100.02,5.0,,0.0,0.0,196.11
2025-08-15T04:05:03.426Z,5,GR86-037-03,2.9000000000000004,0.082,-0.044,99.99,5.0,,0.0,0.0,
2025-08-15T04:05:03.470Z,5,GR86-037-03,2.9000000000000004,0.075,-0.064,99.99,5.0,,0.0,0.0,
2025-08-15T04:05:03.513Z,5,GR86-037-03,2.9000000000000004,0.077,-0.051,99.98,5.0,,0.0,0.0,
2025-08-15T04:05:03.556Z,5,GR86-037-03,2.9000000000000004,0.124,-0.061,100.01,5.0,6698.0,0.0,0.0,
2025-08-15T04:05:03.599Z,5,GR86-037-03,2.9000000000000004,0.11,-0.053,99.99,5.0,,0.0,0.0,196.86
2025-08-15T04:05:03.644Z,5,GR86-037-03,2.9000000000000004,0.064,-0.059,100.0,5.0,,0.0,0.0,
2025-08-15T04:05:03.687Z,5,GR86-037-03,2.9000000000000004,0.113,-0.026,100.0,5.0,,0.0,0.0,
2025-08-15T04:05:03.730Z,5,GR86-037-03,2.9000000000000004,0.079,-0.053,99.99,5.0,,0.0,0.0,
2025-08-15T04:05:03.773Z,5,GR86-037-03,2.9000000000000004,0.11,-0.057,100.0,5.0,6718.0,0.0,0.0,
2025-08-15T04:05:03.816Z,5,GR86-037-03,3.0,0.132,-0.055,100.01,5.0,,0.0,0.0,197.7
2025-08-15T04:05:03.859Z,5,GR86-037-03,3.0,0.098,-0.066,100.0,5.0,,0.0,0.0,
2025-08-15T04:05:03.903Z,5,GR86-037-03,3.0,0.093,-0.083,99.98,5.0,,0.0,0.0,
2025-08-15T04:05:03.947Z,5,GR86-037-03,3.0,0.111,-0.054,100.0,5.0,,0.0,0.0,
2025-08-15T04:05:03.990Z,5,GR86-037-03,3.0,0.117,-0.085,99.99,5.0,6740.0,0.0,0.0,
2025-08-15T04:05:04.076Z,5,GR86-037-03,3.0,0.111,-0.041,100.01,5.0,,0.0,0.0,198.45
2025-08-15T04:05:04.119Z,5,GR86-037-03,2.5,0.128,-0.031,100.0,5.0,,0.0,0.0,
2025-08-15T04:05:04.163Z,5,GR86-037-03,2.6,0.115,-0.028,100.0,5.0,,0.0,0.0,
2025-08-15T04:05:04.206Z,5,GR86-037-03,2.5,0.102,-0.051,99.98,5.0,6780.0,0.0,0.0,
2025-08-15T04:05:04.249Z,5,GR86-037-03,2.5,0.112,-0.072,99.99,5.0,,0.0,0.0,199.3
2025-08-15T04:05:04.293Z,5,GR86-037-03,2.5,0.142,-0.034,100.0,5.0,,0.0,0.0,
2025-08-15T04:05:04.335Z,5,GR86-037-03,2.5,0.064,-0.043,100.01,5.0,,0.0,0.0,
2025-08-15T04:05:04.379Z,5,GR86-037-03,2.5,0.103,-0.034,100.01,5.0,,0.0,0.0,
2025-08-15T04:05:04.423Z,5,GR86-037-03,4.4,0.107,-0.067,99.99,5.0,6791.0,0.0,0.0,
2025-08-15T04:05:04.465Z,5,GR86-037-03,5.7,0.095,-0.031,100.01,5.0,,0.0,0.0,200.06
2025-08-15T04:05:04.508Z,5,GR86-037-03,5.800000000000001,0.096,-0.011,100.0,5.0,,0.0,0.0,
2025-08-15T04:05:04.551Z,5,GR86-037-03,4.5,0.099,-0.015,100.02,5.0,,0.0,0.0,
2025-08-15T04:05:04.594Z,5,GR86-037-03,2.8000000000000003,0.094,0.017,100.0,5.0,,0.0,0.0,
2025-08-15T04:05:04.680Z,5,GR86-037-03,2.4000000000000004,0.094,-0.015,99.99,5.0,6822.0,0.0,0.0,200.78
2025-08-15T04:05:04.724Z,5,GR86-037-03,3.9,0.086,-0.035,100.01,5.0,,0.0,0.0,
2025-08-15T04:05:04.766Z,5,GR86-037-03,4.4,0.088,-0.032,99.99,5.0,,0.0,0.0,
2025-08-15T04:05:04.809Z,5,GR86-037-03,4.4,0.097,-0.011,99.99,5.0,,0.0,0.0,
2025-08-15T04:05:04.852Z,5,GR86-037-03,4.4,0.102,-0.036,100.01,5.0,6861.0,0.0,0.0,
2025-08-15T04:05:04.895Z,5,GR86-037-03,4.4,0.106,-0.025,100.02,5.0,,0.0,0.0,201.51
2025-08-15T04:05:04.938Z,5,GR86-037-03,4.4,0.112,-0.02,99.99,5.0,,0.0,0.0,
2025-08-15T04:05:04.981Z,5,GR86-037-03,5.300000000000001,0.113,0.013,100.01,5.0,,0.0,0.0,
2025-08-15T04:05:05.024Z,5,GR86-037-03,6.9,0.116,0.014,99.98,5.0,,0.0,0.0,
2025-08-15T04:05:05.067Z,5,GR86-037-03,6.9,0.129,0.029,100.0,5.0,6877.0,0.0,0.0,
2025-08-15T04:05:05.110Z,5,GR86-037-03,5.7,0.1,0.09,100.0,5.0,,0.0,0.0,202.32
2025-08-15T04:05:05.153Z,5,GR86-037-03,3.7,0.096,0.059,100.01,5.0,,0.0,0.0,
2025-08-15T04:05:05.196Z,5,GR86-037-03,2.6,0.097,0.064,100.0,5.0,,0.0,0.0,
2025-08-15T04:05:05.239Z,5,GR86-037-03,2.5,0.099,0.033,99.99,5.0,,0.0,0.0,
2025-08-15T04:05:05.327Z,5,GR86-037-03,2.5,0.107,0.023,99.99,5.0,6912.0,0.0,0.0,203.03
2025-08-15T04:05:05.370Z,5,GR86-037-03,2.5,0.093,-0.017,100.01,5.0,,0.0,0.0,
2025-08-15T04:05:05.413Z,5,GR86-037-03,2.5,0.103,-0.026,100.0,5.0,,0.0,0.0,
2025-08-15T04:05:05.456Z,5,GR86-037-03,2.5,0.11,-0.045,100.0,5.0,,0.0,0.0,
2025-08-15T04:05:05.499Z,5,GR86-037-03,2.5,0.09,-0.045,100.01,5.0,6934.0,0.0,0.0,
2025-08-15T04:05:05.544Z,5,GR86-037-03,2.5,0.074,-0.054,100.01,5.0,,0.0,0.0,204.71
2025-08-15T04:05:05.587Z,5,GR86-037-03,2.6,0.101,-0.069,100.0,5.0,,0.0,0.0,
2025-08-15T04:05:05.630Z,5,GR86-037-03,3.7,0.106,-0.061,99.99,5.0,,0.0,0.0,
2025-08-15T04:05:05.674Z,5,GR86-037-03,4.0,0.101,-0.06,99.99,5.0,,0.0,0.0,
2025-08-15T04:05:05.717Z,5,GR86-037-03,4.1000000000000005,0.104,-0.072,100.0,5.0,6956.0,0.0,0.0,
2025-08-15T04:05:05.760Z,5,GR86-037-03,4.1000000000000005,0.106,-0.066,100.01,5.0,,0.0,0.0,205.42
2025-08-15T04:05:05.804Z,5,GR86-037-03,4.0,0.082,-0.042,99.99,5.0,,0.0,0.0,
2025-08-15T04:05:05.847Z,5,GR86-037-03,4.1000000000000005,0.102,-0.029,100.02,5.0,,0.0,0.0,
2025-08-15T04:05:05.890Z,5,GR86-037-03,4.1000000000000005,0.094,-0.034,99.99,5.0,,0.0,0.0,
2025-08-15T04:05:05.933Z,5,GR86-037-03,4.0,0.083,-0.004,100.0,5.0,6989.0,0.0,0.0,
2025-08-15T04:05:05.976Z,5,GR86-037-03,4.1000000000000005,0.083,-0.005,100.01,5.0,,0.0,0.0,206.38
2025-08-15T04:05:06.019Z,5,GR86-037-03,4.1000000000000005,0.084,-0.01,99.99,5.0,,0.0,0.0,
2025-08-15T04:05:06.063Z,5,GR86-037-03,5.5,0.087,0.004,99.99,5.0,,0.0,0.0,
2025-08-15T04:05:06.105Z,5,GR86-037-03,6.800000000000001,0.057,0.008,100.0,5.0,,0.0,0.0,
2025-08-15T04:05:06.148Z,5,GR86-037-03,7.2,0.093,0.016,99.98,5.0,7043.0,0.0,0.0,
2025-08-15T04:05:06.191Z,5,GR86-037-03,7.2,0.081,0.028,100.02,5.0,,0.0,0.0,207.19
2025-08-15T04:05:06.234Z,5,GR86-037-03,7.2,0.118,0.057,99.99,5.0,,0.0,0.0,
2025-08-15T04:05:06.277Z,5,GR86-037-03,7.2,0.101,0.065,100.0,5.0,,0.0,0.0,
2025-08-15T04:05:06.320Z,5,GR86-037-03,7.2,0.109,0.094,100.02,5.0,,0.0,0.0,
2025-08-15T04:05:06.364Z,5,GR86-037-03,7.300000000000001,0.121,0.097,99.99,5.0,7062.0,0.0,0.0,
2025-08-15T04:05:06.407Z,5,GR86-037-03,8.9,0.083,0.099,100.0,5.0,,0.0,0.0,207.86
2025-08-15T04:05:06.450Z,5,GR86-037-03,10.7,0.09,0.106,100.0,5.0,,0.0,0.0,
2025-08-15T04:05:06.493Z,5,GR86-037-03,11.6,0.103,0.142,100.0,5.0,,0.0,0.0,
2025-08-15T04:05:06.536Z,5,GR86-037-03,11.7,0.057,0.172,100.0,5.0,,0.0,0.0,
2025-08-15T04:05:06.579Z,5,GR86-037-03,11.6,0.114,0.224,100.01,5.0,7084.0,0.0,0.0,
2025-08-15T04:05:06.622Z,5,GR86-037-03,11.6,0.093,0.262,100.02,5.0,,0.0,0.0,208.69
2025-08-15T04:05:06.665Z,5,GR86-037-03,11.6,0.088,0.272,99.99,5.0,,0.0,0.0,
2025-08-15T04:05:06.708Z,5,GR86-037-03,11.5,0.09,0.3,99.99,5.0,,0.0,0.0,
2025-08-15T04:05:06.753Z,5,GR86-037-03,10.5,0.119,0.307,100.0,5.0,,0.0,0.0,
2025-08-15T04:05:06.797Z,5,GR86-037-03,10.0,0.096,0.347,100.0,5.0,7119.0,0.0,0.0,
2025-08-15T04:05:06.840Z,5,GR86-037-03,9.9,0.086,0.314,99.99,5.0,,0.0,0.0,209.4
2025-08-15T04:05:06.884Z,5,GR86-037-03,9.9,0.106,0.28,100.0,5.0,,0.0,0.0,
2025-08-15T04:05:06.970Z,5,GR86-037-03,9.7,0.104,0.249,99.99,5.0,,0.0,0.0,
2025-08-15T04:05:07.013Z,5,GR86-037-03,9.2,0.076,0.218,100.0,5.0,7141.0,0.0,0.0,
2025-08-15T04:05:07.056Z,5,GR86-037-03,10.1,0.1,0.212,100.0,5.0,,0.0,0.0,210.17
2025-08-15T04:05:07.099Z,5,GR86-037-03,11.6,0.097,0.225,100.01,5.0,,0.0,0.0,
2025-08-15T04:05:07.144Z,5,GR86-037-03,11.7,0.082,0.27,100.01,5.0,,0.0,0.0,
2025-08-15T04:05:07.187Z,5,GR86-037-03,10.4,0.1,0.273,100.0,5.0,,0.0,0.0,
2025-08-15T04:05:07.230Z,5,GR86-037-03,7.7,0.114,0.29,100.01,5.0,7166.0,0.0,0.0,
2025-08-15T04:05:07.273Z,5,GR86-037-03,6.300000000000001,0.074,0.314,100.0,5.0,,0.0,0.0,210.86
2025-08-15T04:05:07.316Z,5,GR86-037-03,6.300000000000001,0.083,0.306,100.0,5.0,,0.0,0.0,
2025-08-15T04:05:07.359Z,5,GR86-037-03,6.6000000000000005,0.054,0.263,100.01,5.0,,0.0,0.0,
2025-08-15T04:05:07.402Z,5,GR86-037-03,6.9,0.071,0.19,99.99,5.0,,0.0,0.0,
2025-08-15T04:05:07.445Z,5,GR86-037-03,7.6,0.098,0.165,100.01,5.0,7198.0,0.0,0.0,
2025-08-15T04:05:07.488Z,5,GR86-037-03,8.8,0.073,0.129,100.0,5.0,,0.0,0.0,211.38
2025-08-15T04:05:07.533Z,5,GR86-037-03,9.6,0.1,0.097,100.0,5.0,,0.0,0.0,
2025-08-15T04:05:07.577Z,5,GR86-037-03,9.7,0.082,0.135,99.99,5.0,,0.0,0.0,
2025-08-15T04:05:07.620Z,5,GR86-037-03,9.7,0.096,0.159,100.02,5.0,,0.0,0.0,
2025-08-15T04:05:07.664Z,5,GR86-037-03,9.7,0.107,0.175,99.99,5.0,7218.0,0.0,0.0,
2025-08-15T04:05:07.706Z,5,GR86-037-03,9.7,0.071,0.204,100.0,5.0,,0.0,0.0,212.27
2025-08-15T04:05:07.749Z,5,GR86-037-03,9.7,0.06,0.225,100.0,5.0,,0.0,0.0,
2025-08-15T04:05:07.792Z,5,GR86-037-03,9.7,0.052,0.242,99.98,5.0,,0.0,0.0,
2025-08-15T04:05:07.835Z,5,GR86-037-03,11.0,0.051,0.233,100.01,5.0,,0.0,0.0,
2025-08-15T04:05:07.878Z,5,GR86-037-03,16.900000000000002,0.073,0.24,100.0,5.0,7235.0,0.0,0.0,
2025-08-15T04:05:07.921Z,5,GR86-037-03,24.5,0.046,0.385,99.99,5.0,,0.0,0.0,213.05
2025-08-15T04:05:07.964Z,5,GR86-037-03,25.700000000000003,0.01,0.5730000000000001,100.0,5.0,,0.0,0.0,
2025-08-15T04:05:08.007Z,5,GR86-037-03,21.200000000000003,0.047,0.611,100.01,5.0,,0.0,0.0,
2025-08-15T04:05:08.050Z,5,GR86-037-03,20.0,0.004,0.677,99.99,5.0,,0.0,0.0,
2025-08-15T04:05:08.093Z,5,GR86-037-03,20.0,-0.002,0.765,100.01,5.0,7265.0,0.0,0.0,
2025-08-15T04:05:08.136Z,5,GR86-037-03,20.0,-0.029,0.797,99.99,5.0,,0.0,0.0,213.7
2025-08-15T04:05:08.179Z,5,GR86-037-03,17.0,-0.017,0.8150000000000001,100.01,5.0,,0.0,0.0,
2025-08-15T04:05:08.223Z,5,GR86-037-03,10.5,-0.027,0.771,100.0,5.0,,0.0,0.0,
2025-08-15T04:05:08.265Z,5,GR86-037-03,9.4,-0.003,0.791,100.01,5.0,,0.0,0.0,
2025-08-15T04:05:08.308Z,5,GR86-037-03,11.9,0.01,0.777,100.0,5.0,7294.0,0.0,0.0,
2025-08-15T04:05:08.351Z,5,GR86-037-03,15.7,0.019,0.746,100.0,5.0,,0.0,0.0,214.9
2025-08-15T04:05:08.394Z,5,GR86-037-03,18.5,0.016,0.6880000000000001,100.01,5.0,,0.0,0.0,
2025-08-15T04:05:08.437Z,5,GR86-037-03,19.0,-0.01,0.659,100.01,5.0,,0.0,0.0,
2025-08-15T04:05:08.480Z,5,GR86-037-03,19.0,0.015,0.621,99.99,5.0,,0.0,0.0,
2025-08-15T04:05:08.524Z,5,GR86-037-03,19.0,0.017,0.605,100.0,5.0,7254.0,0.0,0.0,
2025-08-15T04:05:08.567Z,5,GR86-037-03,18.2,-0.021,0.591,100.01,5.0,,0.0,0.0,215.0
2025-08-15T04:05:08.610Z,5,GR86-037-03,15.3,0.017,0.585,100.0,5.0,,0.0,0.0,
2025-08-15T04:05:08.653Z,5,GR86-037-03,12.8,0.039,0.577,91.49,5.0,,0.0,0.0,
2025-08-15T04:05:08.696Z,5,GR86-037-03,11.2,0.026,0.5760000000000001,22.46,5.0,,0.0,0.0,
2025-08-15T04:05:08.739Z,5,GR86-037-03,10.9,0.027,0.558,3.78,5.0,7308.0,0.0,0.0,
2025-08-15T04:05:08.783Z,5,GR86-037-03,10.9,-0.128,0.498,3.12,5.0,,0.0,0.0,215.0
2025-08-15T04:05:08.825Z,5,GR86-037-03,10.9,-0.182,0.472,2.82,5.0,,0.0,0.0,
2025-08-15T04:05:08.868Z,5,GR86-037-03,10.9,-0.352,0.381,2.64,5.0,,0.0,0.0,
2025-08-15T04:05:08.911Z,5,GR86-037-03,10.9,-0.126,0.351,2.58,5.0,,4.99,5.585,
2025-08-15T04:05:08.954Z,5,GR86-037-03,10.6,-0.137,0.295,2.5500000000000003,5.0,7305.0,16.8,17.365000000000002,
2025-08-15T04:05:08.997Z,5,GR86-037-03,7.7,-0.33,0.244,2.5500000000000003,5.0,,34.455,34.78,215.32
2025-08-15T04:05:09.040Z,5,GR86-037-03,6.5,-0.749,0.211,2.52,5.0,,67.295,67.235,
2025-08-15T04:05:09.083Z,5,GR86-037-03,6.5,-1.115,0.145,2.52,5.0,,100.87,100.365,
2025-08-15T04:05:09.126Z,5,GR86-037-03,5.0,-1.019,0.202,2.52,5.0,,117.455,119.425,
2025-08-15T04:05:09.169Z,5,GR86-037-03,4.0,-1.209,0.219,2.52,5.0,7242.0,122.125,123.12,
2025-08-15T04:05:09.212Z,5,GR86-037-03,2.5,-1.018,0.125,2.49,5.0,,124.34,126.43,215.29
2025-08-15T04:05:09.255Z,5,GR86-037-03,-1.2000000000000002,-1.37,0.219,2.5,5.0,,129.205,131.8,
2025-08-15T04:05:09.298Z,5,GR86-037-03,-1.3,-1.323,0.07,2.51,5.0,,129.62,130.79500000000002,
2025-08-15T04:05:09.341Z,5,GR86-037-03,2.5,-1.278,0.113,2.49,5.0,,131.65,134.395,
2025-08-15T04:05:09.384Z,5,GR86-037-03,1.9,-1.297,0.186,2.49,5.0,6517.0,134.87,137.525,
2025-08-15T04:05:09.427Z,5,GR86-037-03,-4.5,-1.277,0.159,2.49,5.0,,138.255,140.27,208.85
2025-08-15T04:05:09.470Z,5,GR86-037-03,-8.700000000000001,-1.376,0.153,2.49,5.0,,137.05,138.53,
2025-08-15T04:05:09.513Z,5,GR86-037-03,-9.0,-1.254,0.031,2.51,5.0,,130.52,131.74,
2025-08-15T04:05:09.556Z,5,GR86-037-03,-7.300000000000001,-1.325,-0.005,2.49,5.0,,125.025,126.05,
2025-08-15T04:05:09.599Z,5,GR86-037-03,-7.1000000000000005,-1.36,0.007,2.49,5.0,6507.0,122.555,122.765,
2025-08-15T04:05:09.644Z,5,GR86-037-03,-8.200000000000001,-1.435,-0.121,2.49,5.0,,112.83,114.815,197.65
2025-08-15T04:05:09.687Z,5,GR86-037-03,-8.6,-1.45,-0.114,2.49,5.0,,98.565,99.77,
2025-08-15T04:05:09.730Z,5,GR86-037-03,-6.6000000000000005,-1.278,-0.172,2.49,5.0,,71.525,73.63,
2025-08-15T04:05:09.773Z,5,GR86-037-03,-1.2000000000000002,-1.119,-0.256,2.49,5.0,,53.365,55.075,
2025-08-15T04:05:09.816Z,5,GR86-037-03,5.9,-1.057,-0.291,2.71,5.0,6256.0,48.74,49.61,
2025-08-15T04:05:09.859Z,5,GR86-037-03,9.0,-1.07,-0.289,41.35,5.0,,47.81,48.555,190.42
2025-08-15T04:05:09.903Z,5,GR86-037-03,5.7,-0.984,-0.322,81.83,4.0,,48.48,49.2,
2025-08-15T04:05:09.947Z,5,GR86-037-03,4.0,-1.275,-0.269,14.41,4.0,,57.59,58.52,
2025-08-15T04:05:09.990Z,5,GR86-037-03,5.4,-1.223,-0.251,3.46,4.0,,67.905,69.465,
2025-08-15T04:05:10.033Z,5,GR86-037-03,11.9,-1.153,-0.292,2.85,4.0,5704.0,72.575,73.4,
2025-08-15T04:05:10.076Z,5,GR86-037-03,16.7,-1.201,-0.175,2.68,4.0,,70.775,71.95,180.55
2025-08-15T04:05:10.119Z,5,GR86-037-03,17.0,-1.114,-0.086,2.58,4.0,,60.49,62.185,
2025-08-15T04:05:10.163Z,5,GR86-037-03,9.3,-1.037,-0.09,2.5500000000000003,4.0,,54.325,55.575,
2025-08-15T04:05:10.206Z,5,GR86-037-03,1.8,-1.056,-0.12,2.5500000000000003,4.0,,51.655,53.21,
2025-08-15T04:05:10.249Z,5,GR86-037-03,-3.3000000000000003,-1.147,-0.119,4.41,4.0,5905.0,43.355,45.0,
2025-08-15T04:05:10.293Z,5,GR86-037-03,-4.0,-0.902,-0.171,46.68,4.0,,37.555,38.865,177.28
2025-08-15T04:05:10.335Z,5,GR86-037-03,-4.0,-0.848,-0.104,93.28,4.0,,35.985,37.235,
2025-08-15T04:05:10.379Z,5,GR86-037-03,-3.0,-0.839,-0.062,100.03,4.0,,34.49,35.86,
2025-08-15T04:05:10.423Z,5,GR86-037-03,2.8000000000000003,-0.792,-0.003,36.27,3.0,,27.345,28.55,
2025-08-15T04:05:10.465Z,5,GR86-037-03,3.0,-1.02,0.018,3.79,3.0,6294.0,31.77,33.025,
2025-08-15T04:05:10.508Z,5,GR86-037-03,2.3000000000000003,-0.8180000000000001,0.071,2.79,3.0,,48.3,49.46,169.08
2025-08-15T04:05:10.551Z,5,GR86-037-03,2.3000000000000003,-0.997,-0.06,2.5500000000000003,3.0,,58.675,59.3,
2025-08-15T04:05:10.594Z,5,GR86-037-03,2.3000000000000003,-1.091,0.021,2.5,3.0,,64.155,64.64,
2025-08-15T04:05:10.637Z,5,GR86-037-03,5.1000000000000005,-1.075,0.073,2.49,3.0,,58.995000000000005,59.865,
2025-08-15T04:05:10.680Z,5,GR86-037-03,9.2,-0.878,-0.01,2.49,3.0,6231.0,43.14,44.62,
2025-08-15T04:05:10.724Z,5,GR86-037-03,12.9,-0.778,0.181,2.49,3.0,,40.395,41.02,163.17000000000002
2025-08-15T04:05:10.767Z,5,GR86-037-03,13.0,-0.955,0.15,2.49,3.0,,47.335,47.81,
2025-08-15T04:05:10.810Z,5,GR86-037-03,13.0,-1.171,0.205,2.49,3.0,,56.28,56.63,
2025-08-15T04:05:10.853Z,5,GR86-037-03,12.0,-1.158,0.291,2.48,3.0,,63.495000000000005,63.8,
2025-08-15T04:05:10.896Z,5,GR86-037-03,7.7,-1.199,0.258,2.49,3.0,7241.0,68.5,68.715,
2025-08-15T04:05:10.939Z,5,GR86-037-03,1.3,-1.181,0.277,2.49,3.0,,71.555,71.77,158.27
2025-08-15T04:05:10.984Z,5,GR86-037-03,-2.7,-1.141,0.206,62.440000000000005,3.0,,72.455,72.96000000000001,
2025-08-15T04:05:11.027Z,5,GR86-037-03,1.3,-1.236,0.194,98.89,2.0,,72.83500000000001,73.34,
2025-08-15T04:05:11.070Z,5,GR86-037-03,7.9,-1.229,0.211,62.68,2.0,,72.865,73.46000000000001,
2025-08-15T04:05:11.113Z,5,GR86-037-03,11.0,-1.262,0.205,4.64,2.0,6700.0,74.56,76.39,
2025-08-15T04:05:11.156Z,5,GR86-037-03,8.4,-1.329,0.395,2.82,2.0,,77.05,78.71000000000001,145.1
2025-08-15T04:05:11.199Z,5,GR86-037-03,2.5,-1.327,0.318,2.48,2.0,,76.21000000000001,76.775,
2025-08-15T04:05:11.244Z,5,GR86-037-03,-3.2,-1.176,0.355,2.42,2.0,,61.025,62.690000000000005,
2025-08-15T04:05:11.287Z,5,GR86-037-03,0.2,-0.666,0.21,2.43,2.0,,38.47,39.785,
2025-08-15T04:05:11.330Z,5,GR86-037-03,4.5,-0.855,0.2,2.41,2.0,6458.0,29.21,30.365,
2025-08-15T04:05:11.374Z,5,GR86-037-03,5.300000000000001,-0.878,0.418,2.42,2.0,,30.155,31.205,137.14
2025-08-15T04:05:11.417Z,5,GR86-037-03,5.300000000000001,-0.799,0.178,2.42,2.0,,34.275,35.175000000000004,
2025-08-15T04:05:11.460Z,5,GR86-037-03,5.4,-0.87,0.235,2.42,2.0,,44.94,45.52,
2025-08-15T04:05:11.504Z,5,GR86-037-03,10.3,-1.09,0.176,2.43,2.0,,58.875,59.27,
2025-08-15T04:05:11.547Z,5,GR86-037-03,16.5,-1.192,0.132,2.44,2.0,6855.0,64.96000000000001,65.175,
2025-08-15T04:05:11.590Z,5,GR86-037-03,20.3,-1.213,0.292,2.45,2.0,,68.305,68.565,130.43
2025-08-15T04:05:11.633Z,5,GR86-037-03,20.3,-1.167,0.273,2.45,2.0,,70.18,70.625,
2025-08-15T04:05:11.676Z,5,GR86-037-03,18.4,-1.147,0.3,2.45,2.0,,70.805,71.265,
2025-08-15T04:05:11.719Z,5,GR86-037-03,18.1,-1.219,0.354,2.46,2.0,,70.83500000000001,71.615,
2025-08-15T04:05:11.763Z,5,GR86-037-03,18.1,-1.262,0.373,16.17,2.0,6852.0,72.3,72.67,
2025-08-15T04:05:11.805Z,5,GR86-037-03,18.6,-1.247,0.39,59.120000000000005,1.0,,73.69,73.905,123.85
2025-08-15T04:05:11.848Z,5,GR86-037-03,18.6,-1.261,0.447,12.7,1.0,,75.49,76.42,
2025-08-15T04:05:11.891Z,5,GR86-037-03,18.6,-1.362,0.366,4.84,1.0,,78.115,79.93,
2025-08-15T04:05:11.934Z,5,GR86-037-03,18.6,-1.339,0.495,4.4,1.0,,80.375,82.465,
2025-08-15T04:05:11.977Z,5,GR86-037-03,18.6,-1.339,0.584,4.04,1.0,6187.0,80.56,81.87,
2025-08-15T04:05:12.020Z,5,GR86-037-03,18.6,-1.202,0.475,3.68,1.0,,78.68,80.08500000000001,116.19
2025-08-15T04:05:12.064Z,5,GR86-037-03,18.6,-0.883,0.868,3.03,1.0,,51.395,52.645,
2025-08-15T04:05:12.107Z,5,GR86-037-03,17.3,-0.837,0.662,2.73,1.0,,32.335,33.435,
2025-08-15T04:05:12.150Z,5,GR86-037-03,17.1,-0.741,1.011,2.5500000000000003,1.0,,22.19,23.53,
2025-08-15T04:05:12.193Z,5,GR86-037-03,20.3,-0.5710000000000001,0.6910000000000001,2.49,1.0,6279.0,20.555,21.685,
2025-08-15T04:05:12.236Z,5,GR86-037-03,30.3,-0.643,0.811,2.49,1.0,,23.3,24.08,109.34
2025-08-15T04:05:12.279Z,5,GR86-037-03,40.5,-0.7010000000000001,0.954,2.46,1.0,,27.47,28.035,
2025-08-15T04:05:12.365Z,5,GR86-037-03,52.400000000000006,-0.739,0.907,2.46,1.0,,32.9,33.525,
2025-08-15T04:05:12.408Z,5,GR86-037-03,56.1,-0.739,0.873,2.46,1.0,6786.0,35.02,35.585,
2025-08-15T04:05:12.451Z,5,GR86-037-03,61.0,-0.749,0.795,2.47,1.0,,37.645,37.92,101.37
2025-08-15T04:05:12.494Z,5,GR86-037-03,66.2,-0.8170000000000001,0.885,2.49,1.0,,40.365,40.865,
2025-08-15T04:05:12.537Z,5,GR86-037-03,65.5,-0.6990000000000001,1.114,2.47,1.0,,40.59,41.4,
2025-08-15T04:05:12.580Z,5,GR86-037-03,58.400000000000006,-0.6990000000000001,0.949,2.48,1.0,,33.495,34.745,
2025-08-15T04:05:12.624Z,5,GR86-037-03,58.6,-0.599,1.016,2.49,1.0,6801.0,26.84,27.65,
2025-08-15T04:05:12.666Z,5,GR86-037-03,62.900000000000006,-0.5710000000000001,1.051,2.46,1.0,,31.83,32.625,95.92
2025-08-15T04:05:12.709Z,5,GR86-037-03,66.4,-0.765,1.023,2.48,1.0,,38.075,38.835,
2025-08-15T04:05:12.753Z,5,GR86-037-03,68.60000000000001,-0.781,0.98,2.48,1.0,,49.075,50.16,
2025-08-15T04:05:12.797Z,5,GR86-037-03,71.60000000000001,-0.875,1.109,2.46,1.0,,57.620000000000005,58.02,
2025-08-15T04:05:12.840Z,5,GR86-037-03,75.9,-0.925,1.014,2.48,1.0,6293.0,59.33,59.775,
2025-08-15T04:05:12.884Z,5,GR86-037-03,80.4,-0.899,1.041,2.48,1.0,,59.3,60.52,91.25
2025-08-15T04:05:12.926Z,5,GR86-037-03,85.60000000000001,-0.86,1.048,2.47,1.0,,45.46,46.77,
2025-08-15T04:05:12.970Z,5,GR86-037-03,93.2,-0.551,1.115,2.48,1.0,,24.4,25.455,
2025-08-15T04:05:13.013Z,5,GR86-037-03,101.0,-0.364,1.091,2.46,1.0,,9.52,10.27,
2025-08-15T04:05:13.056Z,5,GR86-037-03,108.4,-0.289,1.137,2.47,1.0,5865.0,2.7,3.405,
2025-08-15T04:05:13.099Z,5,GR86-037-03,111.9,-0.367,1.241,2.47,1.0,,0.0,0.0,86.91
2025-08-15T04:05:13.144Z,5,GR86-037-03,116.0,-0.243,1.321,2.48,1.0,,0.0,0.0,
2025-08-15T04:05:13.187Z,5,GR86-037-03,118.3,-0.194,1.332,6.4,1.0,,0.0,0.0,
2025-08-15T04:05:13.230Z,5,GR86-037-03,119.2,-0.23,1.309,20.92,1.0,,0.0,0.0,
2025-08-15T04:05:13.273Z,5,GR86-037-03,118.6,-0.268,1.411,35.58,1.0,5493.0,0.0,0.0,
2025-08-15T04:05:13.316Z,5,GR86-037-03,109.2,-0.197,1.173,42.19,1.0,,0.0,0.0,80.91
2025-08-15T04:05:13.359Z,5,GR86-037-03,90.4,-0.177,1.573,42.42,1.0,,0.0,0.0,
2025-08-15T04:05:13.445Z,5,GR86-037-03,64.8,-0.074,1.174,40.64,1.0,,0.0,0.0,
2025-08-15T04:05:13.488Z,5,GR86-037-03,65.5,0.211,1.053,35.62,1.0,5323.0,0.0,0.0,
2025-08-15T04:05:13.574Z,5,GR86-037-03,59.3,0.307,1.25,34.25,1.0,,0.0,0.0,76.85000000000001
2025-08-15T04:05:13.617Z,5,GR86-037-03,56.900000000000006,0.213,0.987,34.18,1.0,,0.0,0.0,
2025-08-15T04:05:13.660Z,5,GR86-037-03,49.8,-0.107,1.112,34.29,1.0,,0.0,0.0,
2025-08-15T04:05:13.704Z,5,GR86-037-03,36.0,0.357,1.026,33.8,1.0,5338.0,0.0,0.0,
2025-08-15T04:05:13.747Z,5,GR86-037-03,35.7,0.249,0.971,32.85,1.0,,0.0,0.0,74.3
2025-08-15T04:05:13.790Z,5,GR86-037-03,44.7,0.169,1.005,32.78,1.0,,0.0,0.0,
2025-08-15T04:05:13.834Z,5,GR86-037-03,52.3,0.276,1.188,33.88,1.0,,0.0,0.0,
2025-08-15T04:05:13.877Z,5,GR86-037-03,52.3,0.315,0.964,34.03,1.0,,0.0,0.0,
2025-08-15T04:05:13.920Z,5,GR86-037-03,38.8,-0.015,1.263,34.09,1.0,5961.0,0.0,0.0,
2025-08-15T04:05:13.964Z,5,GR86-037-03,26.5,0.105,1.246,33.54,1.0,,0.0,0.0,74.37
2025-08-15T04:05:14.006Z,5,GR86-037-03,24.6,0.592,1.108,33.160000000000004,1.0,,0.0,0.0,
2025-08-15T04:05:14.049Z,5,GR86-037-03,15.0,0.444,1.012,33.11,1.0,,0.0,0.0,
2025-08-15T04:05:14.093Z,5,GR86-037-03,-8.5,0.395,1.437,33.32,1.0,,0.0,0.0,
2025-08-15T04:05:14.136Z,5,GR86-037-03,-19.3,0.647,0.833,32.43,1.0,6321.0,0.0,0.0,
2025-08-15T04:05:14.179Z,5,GR86-037-03,-17.6,0.118,0.901,32.39,1.0,,0.0,0.0,74.81
2025-08-15T04:05:14.223Z,5,GR86-037-03,14.4,0.019,1.243,34.21,1.0,,0.0,0.0,
2025-08-15T04:05:14.265Z,5,GR86-037-03,32.800000000000004,0.425,1.203,38.54,1.0,,0.0,0.0,
2025-08-15T04:05:14.308Z,5,GR86-037-03,53.3,0.227,1.383,59.86,1.0,,0.0,0.0,
2025-08-15T04:05:14.351Z,5,GR86-037-03,54.0,0.281,1.26,79.33,1.0,6198.0,0.0,0.0,
2025-08-15T04:05:14.394Z,5,GR86-037-03,40.7,0.255,1.318,91.21,1.0,,0.0,0.0,75.87
2025-08-15T04:05:14.437Z,5,GR86-037-03,18.0,0.332,1.134,99.74,1.0,,0.0,0.0,
2025-08-15T04:05:14.480Z,5,GR86-037-03,5.9,0.364,1.021,100.01,1.0,,0.0,0.0,
2025-08-15T04:05:14.524Z,5,GR86-037-03,-20.3,0.348,1.015,100.03,1.0,,0.0,0.0,
2025-08-15T04:05:14.567Z,5,GR86-037-03,-25.4,0.365,0.889,100.03,1.0,6099.0,0.0,0.0,
2025-08-15T04:05:14.610Z,5,GR86-037-03,-19.9,0.387,0.873,100.04,1.0,,0.0,0.0,77.06
2025-08-15T04:05:14.653Z,5,GR86-037-03,-10.1,0.425,0.863,100.02,1.0,,0.0,0.0,
2025-08-15T04:05:14.696Z,5,GR86-037-03,3.8,0.421,0.944,100.03,1.0,,0.0,0.0,
2025-08-15T04:05:14.739Z,5,GR86-037-03,4.0,0.422,1.04,100.03,1.0,,0.0,0.0,
2025-08-15T04:05:14.783Z,5,GR86-037-03,4.9,0.398,0.967,100.02,1.0,6292.0,0.0,0.0,
2025-08-15T04:05:14.825Z,5,GR86-037-03,16.1,0.398,0.924,100.04,1.0,,0.0,0.0,78.21000000000001
2025-08-15T04:05:14.868Z,5,GR86-037-03,38.1,0.386,1.026,100.02,1.0,,0.0,0.0,
2025-08-15T04:05:14.911Z,5,GR86-037-03,64.3,0.375,1.126,100.03,1.0,,0.0,0.0,
2025-08-15T04:05:14.954Z,5,GR86-037-03,73.7,0.331,1.139,100.04,1.0,,0.0,0.0,
2025-08-15T04:05:14.997Z,5,GR86-037-03,77.7,0.296,1.158,100.03,1.0,6383.0,0.0,0.0,
2025-08-15T04:05:15.040Z,5,GR86-037-03,77.60000000000001,0.328,1.137,100.03,1.0,,0.0,0.0,79.85000000000001
2025-08-15T04:05:15.083Z,5,GR86-037-03,68.0,0.357,1.068,100.03,1.0,,0.0,0.0,
2025-08-15T04:05:15.126Z,5,GR86-037-03,58.1,0.33,1.171,100.03,1.0,,0.0,0.0,
2025-08-15T04:05:15.169Z,5,GR86-037-03,42.0,0.335,1.09,100.03,1.0,,0.0,0.0,
2025-08-15T04:05:15.213Z,5,GR86-037-03,23.1,0.34,1.039,100.03,1.0,6432.0,0.0,0.0,
2025-08-15T04:05:15.256Z,5,GR86-037-03,13.2,0.331,0.978,100.03,1.0,,0.0,0.0,81.3
2025-08-15T04:05:15.299Z,5,GR86-037-03,7.5,0.371,0.881,100.02,1.0,,0.0,0.0,
2025-08-15T04:05:15.344Z,5,GR86-037-03,11.3,0.388,0.854,100.04,1.0,,0.0,0.0,
2025-08-15T04:05:15.387Z,5,GR86-037-03,21.8,0.406,0.882,100.05,1.0,,0.0,0.0,
2025-08-15T04:05:15.430Z,5,GR86-037-03,31.700000000000003,0.394,0.908,100.03,1.0,6549.0,0.0,0.0,
2025-08-15T04:05:15.473Z,5,GR86-037-03,35.9,0.398,0.971,100.03,1.0,,0.0,0.0,84.05
2025-08-15T04:05:15.516Z,5,GR86-037-03,36.3,0.387,0.941,100.04,1.0,,0.0,0.0,
2025-08-15T04:05:15.559Z,5,GR86-037-03,38.6,0.39,0.899,100.05,1.0,,0.0,0.0,
2025-08-15T04:05:15.604Z,5,GR86-037-03,45.400000000000006,0.365,0.849,100.02,1.0,,0.0,0.0,
2025-08-15T04:05:15.647Z,5,GR86-037-03,44.1,0.328,0.855,100.03,1.0,6732.0,0.0,0.0,
2025-08-15T04:05:15.690Z,5,GR86-037-03,34.7,0.329,0.8250000000000001,100.04,1.0,,0.0,0.0,86.54
2025-08-15T04:05:15.733Z,5,GR86-037-03,22.200000000000003,0.338,0.726,100.03,1.0,,0.0,0.0,
2025-08-15T04:05:15.776Z,5,GR86-037-03,13.4,0.358,0.61,100.03,1.0,,0.0,0.0,
2025-08-15T04:05:15.819Z,5,GR86-037-03,11.8,0.371,0.516,100.05,1.0,,0.0,0.0,
2025-08-15T04:05:15.863Z,5,GR86-037-03,11.9,0.362,0.431,100.02,1.0,6758.0,0.0,0.0,
2025-08-15T04:05:15.906Z,5,GR86-037-03,12.0,0.347,0.344,100.04,1.0,,0.0,0.0,87.58
2025-08-15T04:05:15.949Z,5,GR86-037-03,12.0,0.351,0.306,100.03,1.0,,0.0,0.0,
2025-08-15T04:05:15.993Z,5,GR86-037-03,12.3,0.345,0.271,100.01,1.0,,0.0,0.0,
2025-08-15T04:05:16.035Z,5,GR86-037-03,13.3,0.352,0.245,100.05,1.0,,0.0,0.0,
2025-08-15T04:05:16.079Z,5,GR86-037-03,13.3,0.354,0.238,100.02,1.0,6900.0,0.0,0.0,
2025-08-15T04:05:16.123Z,5,GR86-037-03,13.3,0.323,0.237,100.04,1.0,,0.0,0.0,89.95
2025-08-15T04:05:16.165Z,5,GR86-037-03,12.7,0.337,0.243,100.04,1.0,,0.0,0.0,
2025-08-15T04:05:16.208Z,5,GR86-037-03,11.2,0.31,0.226,100.05,1.0,,0.0,0.0,
2025-08-15T04:05:16.251Z,5,GR86-037-03,8.6,0.335,0.23,100.02,1.0,,0.0,0.0,
2025-08-15T04:05:16.294Z,5,GR86-037-03,5.6000000000000005,0.32,0.204,100.04,1.0,7030.0,0.0,0.0,
2025-08-15T04:05:16.337Z,5,GR86-037-03,3.1,0.275,0.185,100.06,1.0,,0.0,0.0,92.38
2025-08-15T04:05:16.380Z,5,GR86-037-03,2.6,0.205,0.125,100.03,1.0,,0.0,0.0,
2025-08-15T04:05:16.424Z,5,GR86-037-03,2.3000000000000003,0.021,0.128,100.03,2.0,,0.0,0.0,
2025-08-15T04:05:16.467Z,5,GR86-037-03,2.3000000000000003,0.656,0.037,100.03,2.0,,0.0,0.0,
2025-08-15T04:05:16.510Z,5,GR86-037-03,2.3000000000000003,0.498,-0.05,100.03,2.0,7181.0,0.0,0.0,
2025-08-15T04:05:16.553Z,5,GR86-037-03,2.3000000000000003,0.507,0.108,100.02,2.0,,0.0,0.0,97.18
2025-08-15T04:05:16.596Z,5,GR86-037-03,2.3000000000000003,0.471,-0.051,100.03,2.0,,0.0,0.0,
2025-08-15T04:05:16.639Z,5,GR86-037-03,2.3000000000000003,0.404,0.003,100.03,2.0,,0.0,0.0,
2025-08-15T04:05:16.684Z,5,GR86-037-03,3.4000000000000004,0.166,-0.022,100.01,2.0,,0.0,0.0,
2025-08-15T04:05:16.727Z,5,GR86-037-03,4.1000000000000005,0.195,0.009,100.02,2.0,7292.0,0.0,0.0,
2025-08-15T04:05:16.770Z,5,GR86-037-03,4.1000000000000005,0.281,0.024,100.02,2.0,,0.0,0.0,98.91
2025-08-15T04:05:16.813Z,5,GR86-037-03,4.1000000000000005,0.359,0.047,100.02,2.0,,0.0,0.0,
2025-08-15T04:05:16.856Z,5,GR86-037-03,4.1000000000000005,0.332,0.052,100.01,2.0,,0.0,0.0,
2025-08-15T04:05:16.899Z,5,GR86-037-03,3.6,0.272,0.052,100.03,2.0,,0.0,0.0,
2025-08-15T04:05:16.944Z,5,GR86-037-03,1.0,0.254,0.064,100.01,2.0,5951.0,0.0,0.0,
2025-08-15T04:05:16.987Z,5,GR86-037-03,0.4,0.274,0.041,100.02,2.0,,0.0,0.0,101.72
2025-08-15T04:05:17.030Z,5,GR86-037-03,0.4,0.303,0.027,100.02,2.0,,0.0,0.0,
2025-08-15T04:05:17.074Z,5,GR86-037-03,-0.1,0.304,0.005,100.03,2.0,,0.0,0.0,
2025-08-15T04:05:17.116Z,5,GR86-037-03,-1.9,0.276,-0.021,100.03,2.0,,0.0,0.0,
2025-08-15T04:05:17.159Z,5,GR86-037-03,-3.8,0.267,-0.038,100.03,2.0,5999.0,0.0,0.0,
2025-08-15T04:05:17.203Z,5,GR86-037-03,-4.3,0.284,-0.072,100.02,2.0,,0.0,0.0,103.72
2025-08-15T04:05:17.245Z,5,GR86-037-03,-4.3,0.284,-0.079,100.03,2.0,,0.0,0.0,
2025-08-15T04:05:17.288Z,5,GR86-037-03,-4.3,0.281,-0.111,100.02,2.0,,0.0,0.0,
2025-08-15T04:05:17.331Z,5,GR86-037-03,-4.3,0.263,-0.113,100.02,2.0,,0.0,0.0,
2025-08-15T04:05:17.374Z,5,GR86-037-03,-4.3,0.266,-0.137,100.03,2.0,6113.0,0.0,0.0,
2025-08-15T04:05:17.417Z,5,GR86-037-03,-4.3,0.274,-0.14,100.03,2.0,,0.0,0.0,105.5
2025-08-15T04:05:17.460Z,5,GR86-037-03,-4.3,0.274,-0.146,100.02,2.0,,0.0,0.0,
2025-08-15T04:05:17.504Z,5,GR86-037-03,-4.3,0.277,-0.145,100.01,2.0,,0.0,0.0,
2025-08-15T04:05:17.547Z,5,GR86-037-03,-4.3,0.266,-0.138,100.02,2.0,,0.0,0.0,
2025-08-15T04:05:17.590Z,5,GR86-037-03,-4.3,0.267,-0.13,100.03,2.0,6216.0,0.0,0.0,
2025-08-15T04:05:17.633Z,5,GR86-037-03,-4.3,0.26,-0.138,100.03,2.0,,0.0,0.0,107.31
2025-08-15T04:05:17.676Z,5,GR86-037-03,-4.3,0.271,-0.124,100.02,2.0,,0.0,0.0,
2025-08-15T04:05:17.719Z,5,GR86-037-03,-4.3,0.263,-0.118,100.02,2.0,,0.0,0.0,
2025-08-15T04:05:17.763Z,5,GR86-037-03,-4.3,0.266,-0.123,100.0,2.0,,0.0,0.0,
2025-08-15T04:05:17.805Z,5,GR86-037-03,-4.3,0.27,-0.123,100.03,2.0,6314.0,0.0,0.0,
2025-08-15T04:05:17.848Z,5,GR86-037-03,-4.3,0.277,-0.123,100.03,2.0,,0.0,0.0,108.98
2025-08-15T04:05:17.891Z,5,GR86-037-03,-4.3,0.269,-0.118,100.03,2.0,,0.0,0.0,
2025-08-15T04:05:17.934Z,5,GR86-037-03,-4.3,0.268,-0.118,100.03,2.0,,0.0,0.0,
2025-08-15T04:05:17.977Z,5,GR86-037-03,-4.3,0.266,-0.116,100.02,2.0,,0.0,0.0,
2025-08-15T04:05:18.020Z,5,GR86-037-03,-4.3,0.26,-0.125,100.01,2.0,6405.0,0.0,0.0,
2025-08-15T04:05:18.064Z,5,GR86-037-03,-4.3,0.269,-0.128,100.01,2.0,,0.0,0.0,110.61
2025-08-15T04:05:18.107Z,5,GR86-037-03,-4.3,0.269,-0.135,100.04,2.0,,0.0,0.0,
2025-08-15T04:05:18.150Z,5,GR86-037-03,-2.2,0.259,-0.133,100.03,2.0,,0.0,0.0,
2025-08-15T04:05:18.193Z,5,GR86-037-03,0.3,0.267,-0.12,100.03,2.0,,0.0,0.0,
2025-08-15T04:05:18.236Z,5,GR86-037-03,1.4,0.27,-0.093,100.02,2.0,6485.0,0.0,0.0,
2025-08-15T04:05:18.279Z,5,GR86-037-03,1.4,0.261,-0.078,100.02,2.0,,0.0,0.0,112.17
2025-08-15T04:05:18.322Z,5,GR86-037-03,1.4,0.263,-0.053,100.03,2.0,,0.0,0.0,
2025-08-15T04:05:18.365Z,5,GR86-037-03,1.4,0.274,-0.029,100.02,2.0,,0.0,0.0,
2025-08-15T04:05:18.408Z,5,GR86-037-03,1.4,0.262,-0.012,100.02,2.0,,0.0,0.0,
2025-08-15T04:05:18.453Z,5,GR86-037-03,0.0,0.256,0.007,100.01,2.0,6574.0,0.0,0.0,
2025-08-15T04:05:18.497Z,5,GR86-037-03,-2.0,0.272,0.006,100.03,2.0,,0.0,0.0,113.7
2025-08-15T04:05:18.541Z,5,GR86-037-03,-2.6,0.266,-0.012,100.01,2.0,,0.0,0.0,
2025-08-15T04:05:18.584Z,5,GR86-037-03,-2.6,0.258,-0.033,100.02,2.0,,0.0,0.0,
2025-08-15T04:05:18.627Z,5,GR86-037-03,-2.6,0.256,-0.053,100.03,2.0,,0.0,0.0,
2025-08-15T04:05:18.670Z,5,GR86-037-03,-2.6,0.269,-0.058,100.01,2.0,6652.0,0.0,0.0,
2025-08-15T04:05:18.713Z,5,GR86-037-03,-1.5,0.26,-0.068,100.0,2.0,,0.0,0.0,115.21
2025-08-15T04:05:18.756Z,5,GR86-037-03,0.7000000000000001,0.271,-0.053,100.0,2.0,,0.0,0.0,
2025-08-15T04:05:18.799Z,5,GR86-037-03,2.4000000000000004,0.266,-0.037,100.03,2.0,,0.0,0.0,
2025-08-15T04:05:18.844Z,5,GR86-037-03,2.6,0.275,-0.017,99.99,2.0,,0.0,0.0,
2025-08-15T04:05:18.887Z,5,GR86-037-03,2.5,0.263,0.006,100.01,2.0,6748.0,0.0,0.0,
2025-08-15T04:05:18.930Z,5,GR86-037-03,0.0,0.268,0.018,100.03,2.0,,0.0,0.0,116.66
2025-08-15T04:05:18.973Z,5,GR86-037-03,-2.9000000000000004,0.259,0.015,100.02,2.0,,0.0,0.0,
2025-08-15T04:05:19.016Z,5,GR86-037-03,-3.9,0.238,0.003,100.03,2.0,,0.0,0.0,
2025-08-15T04:05:19.059Z,5,GR86-037-03,-3.9,0.259,-0.013,100.01,2.0,,0.0,0.0,
2025-08-15T04:05:19.103Z,5,GR86-037-03,-2.4000000000000004,0.274,-0.041,100.0,2.0,6814.0,0.0,0.0,
2025-08-15T04:05:19.145Z,5,GR86-037-03,-1.1,0.274,-0.058,100.0,2.0,,0.0,0.0,119.36
2025-08-15T04:05:19.188Z,5,GR86-037-03,-0.7000000000000001,0.253,-0.071,100.03,2.0,,0.0,0.0,
2025-08-15T04:05:19.231Z,5,GR86-037-03,-0.7000000000000001,0.264,-0.075,100.01,2.0,,0.0,0.0,
2025-08-15T04:05:19.274Z,5,GR86-037-03,-0.7000000000000001,0.267,-0.065,99.99,2.0,,0.0,0.0,
2025-08-15T04:05:19.317Z,5,GR86-037-03,-0.7000000000000001,0.254,-0.075,100.0,2.0,6880.0,0.0,0.0,
2025-08-15T04:05:19.360Z,5,GR86-037-03,-0.6000000000000001,0.264,-0.064,99.98,2.0,,0.0,0.0,120.55
2025-08-15T04:05:19.404Z,5,GR86-037-03,0.7000000000000001,0.252,-0.051,100.03,2.0,,0.0,0.0,
2025-08-15T04:05:19.447Z,5,GR86-037-03,1.4,0.266,-0.017,100.03,2.0,,0.0,0.0,
2025-08-15T04:05:19.534Z,5,GR86-037-03,1.4,0.25,-0.015,99.99,2.0,6960.0,0.0,0.0,
2025-08-15T04:05:19.577Z,5,GR86-037-03,1.4,0.272,-0.004,100.01,2.0,,0.0,0.0,121.73
2025-08-15T04:05:19.620Z,5,GR86-037-03,1.4,0.251,0.001,100.01,2.0,,0.0,0.0,
2025-08-15T04:05:19.664Z,5,GR86-037-03,1.4,0.249,-0.003,100.01,2.0,,0.0,0.0,
2025-08-15T04:05:19.706Z,5,GR86-037-03,1.8,0.245,0.015,100.01,2.0,,0.0,0.0,
2025-08-15T04:05:19.749Z,5,GR86-037-03,2.8000000000000003,0.148,0.022,100.02,3.0,7094.0,0.0,0.0,
2025-08-15T04:05:19.792Z,5,GR86-037-03,2.8000000000000003,-0.093,0.037,100.0,3.0,,0.0,0.0,122.88
2025-08-15T04:05:19.835Z,5,GR86-037-03,3.0,0.553,0.063,100.02,3.0,,0.0,0.0,
2025-08-15T04:05:19.878Z,5,GR86-037-03,3.0,0.405,-0.071,100.02,3.0,,0.0,0.0,
2025-08-15T04:05:19.921Z,5,GR86-037-03,3.0,0.361,0.114,100.02,3.0,,0.0,0.0,
2025-08-15T04:05:19.964Z,5,GR86-037-03,3.0,0.22,-0.022,100.0,3.0,7042.0,0.0,0.0,
2025-08-15T04:05:20.007Z,5,GR86-037-03,3.0,0.103,0.063,100.0,3.0,,0.0,0.0,123.99
2025-08-15T04:05:20.050Z,5,GR86-037-03,3.0,0.158,0.072,100.0,3.0,,0.0,0.0,
2025-08-15T04:05:20.136Z,5,GR86-037-03,2.6,0.253,0.07,100.01,3.0,,0.0,0.0,
2025-08-15T04:05:20.179Z,5,GR86-037-03,0.7000000000000001,0.215,0.071,100.01,3.0,5859.0,0.0,0.0,
2025-08-15T04:05:20.223Z,5,GR86-037-03,-2.2,0.183,0.044,100.01,3.0,,0.0,0.0,124.86
2025-08-15T04:05:20.265Z,5,GR86-037-03,-2.4000000000000004,0.221,0.02,100.01,3.0,,0.0,0.0,
2025-08-15T04:05:20.308Z,5,GR86-037-03,-2.4000000000000004,0.24,0.009,100.02,3.0,,0.0,0.0,
2025-08-15T04:05:20.351Z,5,GR86-037-03,-2.4000000000000004,0.209,-0.029,100.02,3.0,,0.0,0.0,
2025-08-15T04:05:20.394Z,5,GR86-037-03,-2.4000000000000004,0.213,-0.051,100.02,3.0,5901.0,0.0,0.0,
2025-08-15T04:05:20.437Z,5,GR86-037-03,-2.5,0.23,-0.059,100.02,3.0,,0.0,0.0,126.11
2025-08-15T04:05:20.480Z,5,GR86-037-03,-2.5,0.215,-0.082,100.01,3.0,,0.0,0.0,
2025-08-15T04:05:20.524Z,5,GR86-037-03,-2.4000000000000004,0.21,-0.086,100.0,3.0,,0.0,0.0,
2025-08-15T04:05:20.567Z,5,GR86-037-03,-0.2,0.206,-0.096,99.99,3.0,,0.0,0.0,
2025-08-15T04:05:20.610Z,5,GR86-037-03,2.1,0.226,-0.076,100.01,3.0,5935.0,0.0,0.0,
2025-08-15T04:05:20.653Z,5,GR86-037-03,2.8000000000000003,0.218,-0.049,100.01,3.0,,0.0,0.0,126.95
2025-08-15T04:05:20.696Z,5,GR86-037-03,2.8000000000000003,0.197,-0.03,100.01,3.0,,0.0,0.0,
2025-08-15T04:05:20.739Z,5,GR86-037-03,2.1,0.218,-0.017,100.0,3.0,,0.0,0.0,
2025-08-15T04:05:20.783Z,5,GR86-037-03,1.3,0.207,-0.001,100.02,3.0,,0.0,0.0,
2025-08-15T04:05:20.825Z,5,GR86-037-03,1.3,0.23,0.015,100.0,3.0,5974.0,0.0,0.0,
2025-08-15T04:05:20.868Z,5,GR86-037-03,1.3,0.214,0.024,100.01,3.0,,0.0,0.0,127.7
2025-08-15T04:05:20.911Z,5,GR86-037-03,1.3,0.202,0.04,100.01,3.0,,0.0,0.0,
2025-08-15T04:05:20.954Z,5,GR86-037-03,1.3,0.219,0.04,100.02,3.0,,0.0,0.0,
2025-08-15T04:05:20.997Z,5,GR86-037-03,1.3,0.225,0.045,100.03,3.0,,0.0,0.0,
2025-08-15T04:05:21.040Z,5,GR86-037-03,1.3,0.215,0.046,70.33,3.0,6015.0,0.0,0.0,
2025-08-15T04:05:21.083Z,5,GR86-037-03,1.3,0.203,0.044,3.2,3.0,,0.0,0.0,128.52
2025-08-15T04:05:21.126Z,5,GR86-037-03,1.6,0.139,0.027,2.62,3.0,,0.0,0.0,
2025-08-15T04:05:21.169Z,5,GR86-037-03,1.7000000000000002,-0.112,0.06,2.47,3.0,,35.615,36.485,
2025-08-15T04:05:21.213Z,5,GR86-037-03,1.7000000000000002,-0.443,0.078,2.42,3.0,,63.71,63.8,
2025-08-15T04:05:21.256Z,5,GR86-037-03,1.7000000000000002,-1.046,0.03,2.4,3.0,6053.0,83.99,84.68,
2025-08-15T04:05:21.299Z,5,GR86-037-03,1.7000000000000002,-0.997,0.069,2.39,3.0,,96.705,98.84,129.34
2025-08-15T04:05:21.344Z,5,GR86-037-03,1.7000000000000002,-0.972,0.042,2.4,3.0,,104.18,105.86,
2025-08-15T04:05:21.387Z,5,GR86-037-03,1.7000000000000002,-0.95,0.063,2.4,3.0,,84.71000000000001,86.815,
2025-08-15T04:05:21.430Z,5,GR86-037-03,1.7000000000000002,-0.851,0.045,2.4,3.0,,52.405,54.205,
2025-08-15T04:05:21.473Z,5,GR86-037-03,1.7000000000000002,-0.756,0.044,2.4,3.0,5894.0,34.12,35.74,
2025-08-15T04:05:21.516Z,5,GR86-037-03,1.7000000000000002,-0.746,0.054,3.27,3.0,,23.96,25.21,130.19
2025-08-15T04:05:21.559Z,5,GR86-037-03,1.7000000000000002,-0.594,0.057,44.3,3.0,,18.435,19.52,
2025-08-15T04:05:21.603Z,5,GR86-037-03,2.9000000000000004,-0.54,0.059,99.49,3.0,,20.235,20.725,
2025-08-15T04:05:21.647Z,5,GR86-037-03,4.3,-0.456,0.058,92.89,2.0,,21.805,22.28,
2025-08-15T04:05:21.690Z,5,GR86-037-03,5.300000000000001,-0.645,0.016,23.55,2.0,5521.0,23.06,23.455,
2025-08-15T04:05:21.733Z,5,GR86-037-03,8.0,-0.941,0.069,3.39,2.0,,28.185,29.21,125.31
2025-08-15T04:05:21.776Z,5,GR86-037-03,14.4,-0.6880000000000001,0.185,2.8000000000000003,2.0,,40.715,41.965,
2025-08-15T04:05:21.819Z,5,GR86-037-03,21.200000000000003,-0.8270000000000001,0.106,2.61,2.0,,45.78,46.205,
2025-08-15T04:05:21.863Z,5,GR86-037-03,24.8,-0.779,0.4,2.52,2.0,,42.485,42.955,
2025-08-15T04:05:21.906Z,5,GR86-037-03,24.8,-0.73,0.363,2.48,2.0,5293.0,37.265,37.77,
2025-08-15T04:05:21.949Z,5,GR86-037-03,24.8,-0.745,0.392,2.49,2.0,,36.61,37.05,116.14
2025-08-15T04:05:21.993Z,5,GR86-037-03,25.3,-0.726,0.559,2.48,2.0,,36.275,36.9,
2025-08-15T04:05:22.035Z,5,GR86-037-03,29.9,-0.752,0.507,2.5,2.0,,30.155,31.27,
2025-08-15T04:05:22.079Z,5,GR86-037-03,33.9,-0.5,0.641,2.49,2.0,,18.555,19.7,
2025-08-15T04:05:22.123Z,5,GR86-037-03,34.1,-0.459,0.708,2.49,2.0,6182.0,14.91,15.43,
2025-08-15T04:05:22.165Z,5,GR86-037-03,33.9,-0.478,0.747,2.48,2.0,,16.525,16.895,110.54
2025-08-15T04:05:22.208Z,5,GR86-037-03,36.2,-0.435,0.795,2.49,2.0,,18.89,19.335,
2025-08-15T04:05:22.251Z,5,GR86-037-03,40.900000000000006,-0.498,0.808,2.49,2.0,,22.615,22.965,
2025-08-15T04:05:22.294Z,5,GR86-037-03,42.400000000000006,-0.528,0.898,2.49,2.0,,23.685,24.17,
2025-08-15T04:05:22.337Z,5,GR86-037-03,39.900000000000006,-0.521,0.915,2.49,2.0,6100.0,22.34,23.395,
2025-08-15T04:05:22.380Z,5,GR86-037-03,32.7,-0.478,0.911,2.49,2.0,,24.08,24.645,106.75
2025-08-15T04:05:22.424Z,5,GR86-037-03,25.6,-0.556,0.8230000000000001,2.48,2.0,,31.68,31.895,
2025-08-15T04:05:22.466Z,5,GR86-037-03,30.4,-0.655,0.8150000000000001,2.49,2.0,,34.09,34.275,
2025-08-15T04:05:22.509Z,5,GR86-037-03,36.1,-0.582,0.999,2.49,2.0,,32.475,33.525,
2025-08-15T04:05:22.552Z,5,GR86-037-03,35.300000000000004,-0.53,0.989,2.49,2.0,5551.0,29.24,30.735,
2025-08-15T04:05:22.595Z,5,GR86-037-03,28.6,-0.465,0.967,2.49,2.0,,21.625,22.935,103.47
2025-08-15T04:05:22.638Z,5,GR86-037-03,23.5,-0.414,1.001,2.49,2.0,,9.25,9.995,
2025-08-15T04:05:22.681Z,5,GR86-037-03,24.700000000000003,-0.349,0.957,2.49,2.0,,1.955,2.64,
2025-08-15T04:05:22.724Z,5,GR86-037-03,44.400000000000006,-0.185,1.084,2.49,2.0,,0.0,0.0,
2025-08-15T04:05:22.767Z,5,GR86-037-03,60.7,-0.189,1.184,2.49,2.0,5148.0,0.0,0.0,
2025-08-15T04:05:22.810Z,5,GR86-037-03,67.2,-0.167,1.206,2.5,2.0,,0.0,0.0,99.64
2025-08-15T04:05:22.853Z,5,GR86-037-03,62.400000000000006,-0.149,1.229,4.63,2.0,,0.0,0.0,
2025-08-15T04:05:22.896Z,5,GR86-037-03,52.5,-0.143,1.231,2.62,2.0,,0.0,0.0,
2025-08-15T04:05:22.939Z,5,GR86-037-03,48.900000000000006,-0.155,1.225,4.86,2.0,,0.0,0.0,
2025-08-15T04:05:22.984Z,5,GR86-037-03,53.6,-0.144,1.226,19.86,2.0,5116.0,0.0,0.0,
2025-08-15T04:05:23.027Z,5,GR86-037-03,54.900000000000006,-0.135,1.237,27.07,2.0,,0.0,0.0,95.86
2025-08-15T04:05:23.070Z,5,GR86-037-03,52.0,-0.106,1.208,31.7,2.0,,0.0,0.0,
2025-08-15T04:05:23.113Z,5,GR86-037-03,48.8,-0.081,1.259,32.88,2.0,,0.0,0.0,
2025-08-15T04:05:23.156Z,5,GR86-037-03,50.6,-0.071,1.246,32.71,2.0,,0.0,0.0,
2025-08-15T04:05:23.199Z,5,GR86-037-03,57.7,0.07,1.232,29.3,2.0,5101.0,0.0,0.0,
2025-08-15T04:05:23.244Z,5,GR86-037-03,70.2,0.19,1.179,27.19,2.0,,0.0,0.0,93.72
2025-08-15T04:05:23.287Z,5,GR86-037-03,75.2,0.203,1.156,26.38,2.0,,0.0,0.0,
2025-08-15T04:05:23.330Z,5,GR86-037-03,75.7,0.171,1.245,26.28,2.0,,0.0,0.0,
2025-08-15T04:05:23.374Z,5,GR86-037-03,75.7,0.154,1.193,26.22,2.0,,0.0,0.0,
2025-08-15T04:05:23.417Z,5,GR86-037-03,74.8,0.099,1.239,26.18,2.0,5256.0,0.0,0.0,
2025-08-15T04:05:23.460Z,5,GR86-037-03,67.60000000000001,0.095,1.212,26.17,2.0,,0.0,0.0,92.21
2025-08-15T04:05:23.504Z,5,GR86-037-03,53.1,0.111,1.163,26.11,2.0,,0.0,0.0,
2025-08-15T04:05:23.547Z,5,GR86-037-03,45.5,0.112,1.224,26.11,2.0,,0.0,0.0,
2025-08-15T04:05:23.590Z,5,GR86-037-03,39.2,0.135,1.103,26.35,2.0,,0.0,0.0,
2025-08-15T04:05:23.633Z,5,GR86-037-03,37.2,0.118,1.33,28.71,2.0,5382.0,0.0,0.0,
2025-08-15T04:05:23.676Z,5,GR86-037-03,40.3,0.115,1.304,30.33,2.0,,0.0,0.0,91.71
2025-08-15T04:05:23.719Z,5,GR86-037-03,50.1,0.179,1.18,30.44,2.0,,0.0,0.0,
2025-08-15T04:05:23.763Z,5,GR86-037-03,67.2,0.242,1.239,30.18,2.0,,0.0,0.0,
2025-08-15T04:05:23.805Z,5,GR86-037-03,75.60000000000001,0.164,1.174,29.68,2.0,,0.0,0.0,
2025-08-15T04:05:23.848Z,5,GR86-037-03,77.9,0.029,1.198,29.07,2.0,5377.0,0.0,0.0,
2025-08-15T04:05:23.891Z,5,GR86-037-03,77.0,0.205,1.441,29.31,2.0,,0.0,0.0,91.03
2025-08-15T04:05:23.934Z,5,GR86-037-03,70.8,0.319,1.084,29.81,2.0,,0.0,0.0,
2025-08-15T04:05:23.977Z,5,GR86-037-03,66.10000000000001,0.127,1.066,31.07,2.0,,0.0,0.0,
2025-08-15T04:05:24.020Z,5,GR86-037-03,65.4,-0.06,1.196,36.82,2.0,,0.0,0.0,
2025-08-15T04:05:24.064Z,5,GR86-037-03,67.3,-0.038,1.091,57.27,2.0,5390.0,0.0,0.0,
2025-08-15T04:05:24.107Z,5,GR86-037-03,67.7,0.144,1.327,77.24,2.0,,0.0,0.0,91.75
2025-08-15T04:05:24.150Z,5,GR86-037-03,67.7,0.418,1.084,99.78,2.0,,0.0,0.0,
2025-08-15T04:05:24.193Z,5,GR86-037-03,66.4,0.36,0.993,100.04,2.0,,0.0,0.0,
2025-08-15T04:05:24.236Z,5,GR86-037-03,61.7,0.079,1.074,100.05,2.0,,0.0,0.0,
2025-08-15T04:05:24.279Z,5,GR86-037-03,53.1,0.125,1.275,100.03,2.0,5442.0,0.0,0.0,
2025-08-15T04:05:24.322Z,5,GR86-037-03,37.8,0.325,1.279,100.04,2.0,,0.0,0.0,91.76
2025-08-15T04:05:24.365Z,5,GR86-037-03,33.300000000000004,0.331,1.155,100.04,2.0,,0.0,0.0,
2025-08-15T04:05:24.408Z,5,GR86-037-03,34.2,0.243,1.167,100.05,2.0,,0.0,0.0,
2025-08-15T04:05:24.453Z,5,GR86-037-03,40.900000000000006,0.295,1.099,100.04,2.0,,0.0,0.0,
2025-08-15T04:05:24.497Z,5,GR86-037-03,50.1,0.29,1.166,100.04,2.0,5582.0,0.0,0.0,
2025-08-15T04:05:24.540Z,5,GR86-037-03,58.2,0.277,1.073,100.06,2.0,,0.0,0.0,92.05
2025-08-15T04:05:24.584Z,5,GR86-037-03,62.8,0.249,1.074,100.05,2.0,,0.0,0.0,
2025-08-15T04:05:24.626Z,5,GR86-037-03,63.0,0.241,1.104,100.05,2.0,,0.0,0.0,
2025-08-15T04:05:24.670Z,5,GR86-037-03,63.6,0.261,1.092,100.04,2.0,,0.0,0.0,
2025-08-15T04:05:24.713Z,5,GR86-037-03,64.5,0.248,1.106,100.06,2.0,5583.0,0.0,0.0,
2025-08-15T04:05:24.756Z,5,GR86-037-03,63.1,0.257,1.073,100.05,2.0,,0.0,0.0,95.23
2025-08-15T04:05:24.799Z,5,GR86-037-03,53.400000000000006,0.243,1.084,100.03,2.0,,0.0,0.0,
2025-08-15T04:05:24.844Z,5,GR86-037-03,31.3,0.249,1.013,100.06,2.0,,0.0,0.0,
2025-08-15T04:05:24.887Z,5,GR86-037-03,18.5,0.258,0.964,100.05,2.0,,0.0,0.0,
2025-08-15T04:05:24.930Z,5,GR86-037-03,14.1,0.265,0.889,100.04,2.0,5599.0,0.0,0.0,
2025-08-15T04:05:24.973Z,5,GR86-037-03,15.9,0.3,0.871,100.04,2.0,,0.0,0.0,96.59
2025-08-15T04:05:25.016Z,5,GR86-037-03,22.0,0.288,0.875,100.05,2.0,,0.0,0.0,
2025-08-15T04:05:25.059Z,5,GR86-037-03,30.9,0.306,0.895,100.04,2.0,,0.0,0.0,
2025-08-15T04:05:25.103Z,5,GR86-037-03,45.5,0.277,0.959,100.05,2.0,,0.0,0.0,
2025-08-15T04:05:25.145Z,5,GR86-037-03,52.0,0.258,1.039,100.03,2.0,5831.0,0.0,0.0,
2025-08-15T04:05:25.188Z,5,GR86-037-03,53.8,0.276,1.008,100.03,2.0,,0.0,0.0,98.53
2025-08-15T04:05:25.231Z,5,GR86-037-03,53.0,0.249,1.01,100.04,2.0,,0.0,0.0,
2025-08-15T04:05:25.274Z,5,GR86-037-03,48.6,0.275,0.977,100.03,2.0,,0.0,0.0,
2025-08-15T04:05:25.317Z,5,GR86-037-03,44.1,0.245,0.969,100.05,2.0,,0.0,0.0,
2025-08-15T04:05:25.360Z,5,GR86-037-03,42.400000000000006,0.252,0.959,100.04,2.0,5877.0,0.0,0.0,
2025-08-15T04:05:25.404Z,5,GR86-037-03,45.3,0.275,0.95,100.04,2.0,,0.0,0.0,99.36
2025-08-15T04:05:25.447Z,5,GR86-037-03,47.7,0.268,0.957,100.03,2.0,,0.0,0.0,
2025-08-15T04:05:25.490Z,5,GR86-037-03,46.8,0.257,0.977,100.03,2.0,,0.0,0.0,
2025-08-15T04:05:25.534Z,5,GR86-037-03,39.7,0.234,0.98,100.03,2.0,,0.0,0.0,
2025-08-15T04:05:25.577Z,5,GR86-037-03,32.300000000000004,0.256,0.96,100.03,2.0,5977.0,0.0,0.0,
2025-08-15T04:05:25.620Z,5,GR86-037-03,31.0,0.279,0.862,100.06,2.0,,0.0,0.0,101.41
2025-08-15T04:05:25.664Z,5,GR86-037-03,39.5,0.304,0.958,100.04,2.0,,0.0,0.0,
2025-08-15T04:05:25.706Z,5,GR86-037-03,46.6,0.329,0.896,100.04,2.0,,0.0,0.0,
2025-08-15T04:05:25.749Z,5,GR86-037-03,49.2,0.276,0.606,100.05,2.0,,0.0,0.0,
2025-08-15T04:05:25.792Z,5,GR86-037-03,49.2,0.25,0.782,100.04,2.0,6076.0,0.0,0.0,
2025-08-15T04:05:25.835Z,5,GR86-037-03,49.1,0.199,0.544,100.04,2.0,,0.0,0.0,103.18
2025-08-15T04:05:25.878Z,5,GR86-037-03,49.1,0.199,0.92,100.05,2.0,,0.0,0.0,
2025-08-15T04:05:25.921Z,5,GR86-037-03,49.1,0.199,0.925,100.04,2.0,,0.0,0.0,
2025-08-15T04:05:25.964Z,5,GR86-037-03,46.900000000000006,0.285,0.916,100.04,2.0,,0.0,0.0,
2025-08-15T04:05:26.007Z,5,GR86-037-03,41.5,0.243,1.011,100.02,2.0,6171.0,0.0,0.0,
2025-08-15T04:05:26.050Z,5,GR86-037-03,34.2,0.227,0.95,100.05,2.0,,0.0,0.0,105.15
2025-08-15T04:05:26.093Z,5,GR86-037-03,25.8,0.226,0.929,100.04,2.0,,0.0,0.0,
2025-08-15T04:05:26.136Z,5,GR86-037-03,20.5,0.296,0.959,100.07,2.0,,0.0,0.0,
2025-08-15T04:05:26.179Z,5,GR86-037-03,20.0,0.283,0.767,100.04,2.0,,0.0,0.0,
2025-08-15T04:05:26.223Z,5,GR86-037-03,23.700000000000003,0.279,0.903,100.03,2.0,6301.0,0.0,0.0,
