timestamp,lap,vehicle_id,steering_angle,accx_can,accy_can,ath,gear,nmot,pbrake_f,pbrake_r,speed
2025-08-15T04:57:05.397Z,11,GR86-022-13,5.4,0.124,0.031,100.01,5.0,6282.0,0.0,0.0,
2025-08-15T04:57:05.441Z,11,GR86-022-13,5.4,0.094,0.048,99.99,5.0,,0.0,0.0,185.93
2025-08-15T04:57:05.484Z,11,GR86-022-13,5.4,0.119,0.042,100.0,5.0,,0.0,0.0,
2025-08-15T04:57:05.528Z,11,GR86-022-13,5.4,0.091,0.019,99.98,5.0,,0.0,0.0,
2025-08-15T04:57:05.570Z,11,GR86-022-13,5.4,0.122,0.035,100.03,5.0,,0.0,0.0,
2025-08-15T04:57:05.613Z,11,GR86-022-13,5.4,0.111,0.019,100.0,5.0,6349.0,0.0,0.0,
2025-08-15T04:57:05.657Z,11,GR86-022-13,5.4,0.121,0.036,99.99,5.0,,0.0,0.0,186.52
2025-08-15T04:57:05.699Z,11,GR86-022-13,5.4,0.113,0.035,100.02,5.0,,0.0,0.0,
2025-08-15T04:57:05.742Z,11,GR86-022-13,5.4,0.113,0.032,99.99,5.0,,0.0,0.0,
2025-08-15T04:57:05.785Z,11,GR86-022-13,5.4,0.108,0.059,100.0,5.0,,0.0,0.0,
2025-08-15T04:57:05.828Z,11,GR86-022-13,5.4,0.116,0.036,99.99,5.0,6362.0,0.0,0.0,
2025-08-15T04:57:05.871Z,11,GR86-022-13,5.4,0.119,0.029,100.02,5.0,,0.0,0.0,187.28
2025-08-15T04:57:05.914Z,11,GR86-022-13,5.4,0.109,0.025,99.98,5.0,,0.0,0.0,
2025-08-15T04:57:05.958Z,11,GR86-022-13,5.4,0.13,0.061,99.99,5.0,,0.0,0.0,
2025-08-15T04:57:06.001Z,11,GR86-022-13,5.4,0.127,0.058,100.03,5.0,,0.0,0.0,
2025-08-15T04:57:06.044Z,11,GR86-022-13,5.4,0.151,0.067,100.0,5.0,6384.0,0.0,0.0,
2025-08-15T04:57:06.088Z,11,GR86-022-13,5.4,0.112,0.053,100.0,5.0,,0.0,0.0,188.59
2025-08-15T04:57:06.131Z,11,GR86-022-13,5.4,0.135,0.061,99.99,5.0,,0.0,0.0,
2025-08-15T04:57:06.174Z,11,GR86-022-13,5.4,0.123,0.045,100.01,5.0,,0.0,0.0,
2025-08-15T04:57:06.218Z,11,GR86-022-13,5.4,0.121,0.051,100.0,5.0,,0.0,0.0,
2025-08-15T04:57:06.261Z,11,GR86-022-13,5.4,0.13,0.058,100.03,5.0,6409.0,0.0,0.0,
2025-08-15T04:57:06.304Z,11,GR86-022-13,5.4,0.129,0.051,99.99,5.0,,0.0,0.0,189.3
2025-08-15T04:57:06.348Z,11,GR86-022-13,5.4,0.124,0.031,100.01,5.0,,0.0,0.0,
2025-08-15T04:57:06.391Z,11,GR86-022-13,5.4,0.134,0.035,99.99,5.0,,0.0,0.0,
2025-08-15T04:57:06.434Z,11,GR86-022-13,5.300000000000001,0.111,0.028,100.01,5.0,,0.0,0.0,
2025-08-15T04:57:06.478Z,11,GR86-022-13,5.2,0.109,0.006,99.99,5.0,6458.0,0.0,0.0,
2025-08-15T04:57:06.521Z,11,GR86-022-13,5.2,0.121,0.023,100.02,5.0,,0.0,0.0,189.93
2025-08-15T04:57:06.564Z,11,GR86-022-13,5.1000000000000005,0.121,0.003,100.0,5.0,,0.0,0.0,
2025-08-15T04:57:06.608Z,11,GR86-022-13,5.1000000000000005,0.12,0.012,100.0,5.0,,0.0,0.0,
2025-08-15T04:57:06.650Z,11,GR86-022-13,5.1000000000000005,0.119,0.011,100.0,5.0,,0.0,0.0,
2025-08-15T04:57:06.693Z,11,GR86-022-13,5.0,0.118,0.011,99.99,5.0,6471.0,0.0,0.0,
2025-08-15T04:57:06.737Z,11,GR86-022-13,4.800000000000001,0.113,0.027,100.0,5.0,,0.0,0.0,190.64
2025-08-15T04:57:06.779Z,11,GR86-022-13,4.800000000000001,0.127,0.029,100.0,5.0,,0.0,0.0,
2025-08-15T04:57:06.822Z,11,GR86-022-13,4.800000000000001,0.096,0.009,100.02,5.0,,0.0,0.0,
2025-08-15T04:57:06.865Z,11,GR86-022-13,4.800000000000001,0.105,0.024,99.99,5.0,,0.0,0.0,
2025-08-15T04:57:06.908Z,11,GR86-022-13,4.800000000000001,0.127,0.023,100.0,5.0,6493.0,0.0,0.0,
2025-08-15T04:57:06.951Z,11,GR86-022-13,4.800000000000001,0.113,0.038,99.98,5.0,,0.0,0.0,191.32
2025-08-15T04:57:06.994Z,11,GR86-022-13,4.800000000000001,0.122,0.057,100.02,5.0,,0.0,0.0,
2025-08-15T04:57:07.038Z,11,GR86-022-13,4.6000000000000005,0.12,0.006,100.0,5.0,,0.0,0.0,
2025-08-15T04:57:07.081Z,11,GR86-022-13,3.6,0.119,-0.002,100.0,5.0,,0.0,0.0,
2025-08-15T04:57:07.124Z,11,GR86-022-13,3.3000000000000003,0.108,0.017,100.01,5.0,6525.0,0.0,0.0,
2025-08-15T04:57:07.168Z,11,GR86-022-13,3.2,0.13,-0.006,100.0,5.0,,0.0,0.0,191.93
2025-08-15T04:57:07.211Z,11,GR86-022-13,3.2,0.136,-0.008,100.03,5.0,,0.0,0.0,
2025-08-15T04:57:07.253Z,11,GR86-022-13,2.8000000000000003,0.119,-0.031,99.99,5.0,,0.0,0.0,
2025-08-15T04:57:07.297Z,11,GR86-022-13,2.3000000000000003,0.131,-0.04,100.0,5.0,,0.0,0.0,
2025-08-15T04:57:07.341Z,11,GR86-022-13,2.3000000000000003,0.111,-0.038,100.0,5.0,6541.0,0.0,0.0,
2025-08-15T04:57:07.384Z,11,GR86-022-13,2.3000000000000003,0.131,-0.059,99.99,5.0,,0.0,0.0,192.58
2025-08-15T04:57:07.428Z,11,GR86-022-13,2.4000000000000004,0.108,-0.059,100.01,5.0,,0.0,0.0,
2025-08-15T04:57:07.471Z,11,GR86-022-13,2.7,0.134,-0.068,100.0,5.0,,0.0,0.0,
2025-08-15T04:57:07.514Z,11,GR86-022-13,3.1,0.108,-0.068,100.0,5.0,,0.0,0.0,
2025-08-15T04:57:07.558Z,11,GR86-022-13,3.7,0.106,-0.046,99.98,5.0,6559.0,0.0,0.0,
2025-08-15T04:57:07.600Z,11,GR86-022-13,3.8,0.117,-0.038,100.0,5.0,,0.0,0.0,193.24
2025-08-15T04:57:07.643Z,11,GR86-022-13,3.8,0.113,-0.049,99.99,5.0,,0.0,0.0,
2025-08-15T04:57:07.687Z,11,GR86-022-13,3.9,0.123,-0.027,99.99,5.0,,0.0,0.0,
2025-08-15T04:57:07.729Z,11,GR86-022-13,4.1000000000000005,0.128,-0.027,100.01,5.0,,0.0,0.0,
2025-08-15T04:57:07.772Z,11,GR86-022-13,4.2,0.134,-0.003,99.98,5.0,6581.0,0.0,0.0,
2025-08-15T04:57:07.815Z,11,GR86-022-13,4.2,0.133,0.011,100.02,5.0,,0.0,0.0,193.83
2025-08-15T04:57:07.858Z,11,GR86-022-13,4.3,0.112,0.006,100.01,5.0,,0.0,0.0,
2025-08-15T04:57:07.901Z,11,GR86-022-13,4.3,0.115,-0.013,99.99,5.0,,0.0,0.0,
2025-08-15T04:57:07.944Z,11,GR86-022-13,4.3,0.126,-0.001,99.99,5.0,,0.0,0.0,
2025-08-15T04:57:07.988Z,11,GR86-022-13,4.3,0.123,0.009,99.99,5.0,6611.0,0.0,0.0,
2025-08-15T04:57:08.030Z,11,GR86-022-13,4.3,0.128,0.023,100.0,5.0,,0.0,0.0,194.48
2025-08-15T04:57:08.073Z,11,GR86-022-13,4.3,0.118,0.002,99.99,5.0,,0.0,0.0,
2025-08-15T04:57:08.117Z,11,GR86-022-13,4.3,0.128,-0.018,99.98,5.0,,0.0,0.0,
2025-08-15T04:57:08.159Z,11,GR86-022-13,4.3,0.118,0.007,100.0,5.0,,0.0,0.0,
2025-08-15T04:57:08.202Z,11,GR86-022-13,4.3,0.121,0.003,99.99,5.0,6629.0,0.0,0.0,
2025-08-15T04:57:08.245Z,11,GR86-022-13,4.9,0.118,-0.015,99.98,5.0,,0.0,0.0,195.19
2025-08-15T04:57:08.288Z,11,GR86-022-13,6.0,0.145,-0.007,100.02,5.0,,0.0,0.0,
2025-08-15T04:57:08.331Z,11,GR86-022-13,6.5,0.117,0.0,100.0,5.0,,0.0,0.0,
2025-08-15T04:57:08.374Z,11,GR86-022-13,6.5,0.113,0.012,100.02,5.0,,0.0,0.0,
2025-08-15T04:57:08.418Z,11,GR86-022-13,6.0,0.119,0.054,99.98,5.0,6661.0,0.0,0.0,
2025-08-15T04:57:08.460Z,11,GR86-022-13,5.9,0.12,0.039,100.0,5.0,,0.0,0.0,195.9
2025-08-15T04:57:08.503Z,11,GR86-022-13,5.9,0.125,0.045,100.0,5.0,,0.0,0.0,
2025-08-15T04:57:08.549Z,11,GR86-022-13,5.9,0.106,0.058,100.0,5.0,,0.0,0.0,
2025-08-15T04:57:08.591Z,11,GR86-022-13,5.9,0.103,0.035,100.0,5.0,,0.0,0.0,
2025-08-15T04:57:08.634Z,11,GR86-022-13,5.5,0.122,0.032,100.02,5.0,6686.0,0.0,0.0,
2025-08-15T04:57:08.721Z,11,GR86-022-13,4.6000000000000005,0.122,0.047,100.02,5.0,,0.0,0.0,197.21
2025-08-15T04:57:08.764Z,11,GR86-022-13,4.6000000000000005,0.125,0.036,99.98,5.0,,0.0,0.0,
2025-08-15T04:57:08.850Z,11,GR86-022-13,4.6000000000000005,0.136,0.019,100.0,5.0,6691.0,0.0,0.0,
2025-08-15T04:57:08.893Z,11,GR86-022-13,4.7,0.103,0.007,100.0,5.0,,0.0,0.0,197.84
2025-08-15T04:57:08.937Z,11,GR86-022-13,4.800000000000001,0.134,0.038,99.99,5.0,,0.0,0.0,
2025-08-15T04:57:08.981Z,11,GR86-022-13,4.800000000000001,0.111,0.018,99.97,5.0,,0.0,0.0,
2025-08-15T04:57:09.024Z,11,GR86-022-13,4.800000000000001,0.118,0.037,99.99,5.0,,0.0,0.0,
2025-08-15T04:57:09.068Z,11,GR86-022-13,4.800000000000001,0.107,0.018,100.02,5.0,6713.0,0.0,0.0,
2025-08-15T04:57:09.111Z,11,GR86-022-13,4.800000000000001,0.09,0.013,100.01,5.0,,0.0,0.0,198.43
2025-08-15T04:57:09.153Z,11,GR86-022-13,4.800000000000001,0.091,0.001,99.99,5.0,,0.0,0.0,
2025-08-15T04:57:09.197Z,11,GR86-022-13,4.800000000000001,0.108,0.012,100.03,5.0,,0.0,0.0,
2025-08-15T04:57:09.241Z,11,GR86-022-13,4.800000000000001,0.083,0.016,100.0,5.0,,0.0,0.0,
2025-08-15T04:57:09.284Z,11,GR86-022-13,4.800000000000001,0.101,-0.023,99.99,5.0,6765.0,0.0,0.0,
2025-08-15T04:57:09.328Z,11,GR86-022-13,4.800000000000001,0.084,-0.007,100.01,5.0,,0.0,0.0,199.13
2025-08-15T04:57:09.370Z,11,GR86-022-13,4.7,0.074,0.005,100.02,5.0,,0.0,0.0,
2025-08-15T04:57:09.413Z,11,GR86-022-13,4.7,0.118,0.016,99.98,5.0,,0.0,0.0,
2025-08-15T04:57:09.457Z,11,GR86-022-13,4.800000000000001,0.094,0.001,100.0,5.0,,0.0,0.0,
2025-08-15T04:57:09.499Z,11,GR86-022-13,4.7,0.093,-0.041,100.03,5.0,6790.0,0.0,0.0,
2025-08-15T04:57:09.542Z,11,GR86-022-13,4.6000000000000005,0.089,-0.033,99.99,5.0,,0.0,0.0,199.9
2025-08-15T04:57:09.585Z,11,GR86-022-13,4.4,0.082,-0.017,99.97,5.0,,0.0,0.0,
2025-08-15T04:57:09.628Z,11,GR86-022-13,4.4,0.11,-0.002,100.0,5.0,,0.0,0.0,
2025-08-15T04:57:09.671Z,11,GR86-022-13,4.4,0.135,0.036,100.0,5.0,,0.0,0.0,
2025-08-15T04:57:09.714Z,11,GR86-022-13,4.4,0.128,0.013,100.0,5.0,6815.0,0.0,0.0,
2025-08-15T04:57:09.758Z,11,GR86-022-13,4.3,0.105,-0.009,100.0,5.0,,0.0,0.0,200.62
2025-08-15T04:57:09.801Z,11,GR86-022-13,4.2,0.113,0.022,100.01,5.0,,0.0,0.0,
2025-08-15T04:57:09.844Z,11,GR86-022-13,4.0,0.151,-0.012,100.02,5.0,,0.0,0.0,
2025-08-15T04:57:09.888Z,11,GR86-022-13,3.6,0.114,-0.034,100.0,5.0,,0.0,0.0,
2025-08-15T04:57:09.931Z,11,GR86-022-13,3.3000000000000003,0.152,-0.027,100.03,5.0,6838.0,0.0,0.0,
2025-08-15T04:57:09.973Z,11,GR86-022-13,3.3000000000000003,0.098,-0.048,100.0,5.0,,0.0,0.0,201.26
2025-08-15T04:57:10.017Z,11,GR86-022-13,3.3000000000000003,0.11,-0.007,100.0,5.0,,0.0,0.0,
2025-08-15T04:57:10.059Z,11,GR86-022-13,3.3000000000000003,0.138,-0.025,100.03,5.0,,0.0,0.0,
2025-08-15T04:57:10.102Z,11,GR86-022-13,3.3000000000000003,0.112,-0.043,100.0,5.0,,0.0,0.0,
2025-08-15T04:57:10.145Z,11,GR86-022-13,3.3000000000000003,0.112,-0.054,99.99,5.0,6856.0,0.0,0.0,
2025-08-15T04:57:10.188Z,11,GR86-022-13,3.3000000000000003,0.083,-0.068,99.99,5.0,,0.0,0.0,202.01
2025-08-15T04:57:10.231Z,11,GR86-022-13,3.3000000000000003,0.077,-0.08,99.98,5.0,,0.0,0.0,
2025-08-15T04:57:10.274Z,11,GR86-022-13,3.3000000000000003,0.1,-0.095,99.97,5.0,,0.0,0.0,
2025-08-15T04:57:10.318Z,11,GR86-022-13,3.3000000000000003,0.089,-0.068,100.0,5.0,,0.0,0.0,
2025-08-15T04:57:10.360Z,11,GR86-022-13,3.3000000000000003,0.104,-0.05,100.0,5.0,6885.0,0.0,0.0,
2025-08-15T04:57:10.403Z,11,GR86-022-13,3.3000000000000003,0.083,-0.051,100.0,5.0,,0.0,0.0,202.71
2025-08-15T04:57:10.448Z,11,GR86-022-13,3.3000000000000003,0.098,-0.045,99.99,5.0,,0.0,0.0,
2025-08-15T04:57:10.490Z,11,GR86-022-13,3.3000000000000003,0.118,-0.019,99.97,5.0,,0.0,0.0,
2025-08-15T04:57:10.533Z,11,GR86-022-13,3.3000000000000003,0.135,-0.024,99.99,5.0,,0.0,0.0,
2025-08-15T04:57:10.578Z,11,GR86-022-13,3.3000000000000003,0.106,-0.035,100.01,5.0,6906.0,0.0,0.0,
2025-08-15T04:57:10.621Z,11,GR86-022-13,3.3000000000000003,0.102,-0.046,99.98,5.0,,0.0,0.0,203.45
2025-08-15T04:57:10.664Z,11,GR86-022-13,3.3000000000000003,0.115,-0.037,100.0,5.0,,0.0,0.0,
2025-08-15T04:57:10.708Z,11,GR86-022-13,3.3000000000000003,0.134,-0.031,99.99,5.0,,0.0,0.0,
2025-08-15T04:57:10.750Z,11,GR86-022-13,3.3000000000000003,0.128,-0.04,99.98,5.0,,0.0,0.0,
2025-08-15T04:57:10.793Z,11,GR86-022-13,3.3000000000000003,0.089,-0.046,99.99,5.0,6925.0,0.0,0.0,
2025-08-15T04:57:10.837Z,11,GR86-022-13,3.3000000000000003,0.122,-0.033,100.03,5.0,,0.0,0.0,204.07
2025-08-15T04:57:10.881Z,11,GR86-022-13,3.3000000000000003,0.137,-0.038,100.03,5.0,,0.0,0.0,
2025-08-15T04:57:10.924Z,11,GR86-022-13,3.3000000000000003,0.097,-0.037,100.03,5.0,,0.0,0.0,
2025-08-15T04:57:10.968Z,11,GR86-022-13,3.3000000000000003,0.091,-0.049,100.03,5.0,,0.0,0.0,
2025-08-15T04:57:11.010Z,11,GR86-022-13,3.3000000000000003,0.076,-0.051,100.01,5.0,6954.0,0.0,0.0,
2025-08-15T04:57:11.053Z,11,GR86-022-13,3.3000000000000003,0.093,-0.045,100.04,5.0,,0.0,0.0,204.82
2025-08-15T04:57:11.099Z,11,GR86-022-13,3.3000000000000003,0.101,-0.067,100.0,5.0,,0.0,0.0,
2025-08-15T04:57:11.141Z,11,GR86-022-13,3.3000000000000003,0.073,-0.057,99.98,5.0,,0.0,0.0,
2025-08-15T04:57:11.184Z,11,GR86-022-13,3.3000000000000003,0.095,-0.059,99.97,5.0,,0.0,0.0,
2025-08-15T04:57:11.228Z,11,GR86-022-13,3.3000000000000003,0.086,-0.034,99.99,5.0,6984.0,0.0,0.0,
2025-08-15T04:57:11.270Z,11,GR86-022-13,3.3000000000000003,0.132,-0.036,99.99,5.0,,0.0,0.0,205.44
2025-08-15T04:57:11.313Z,11,GR86-022-13,3.3000000000000003,0.111,-0.046,100.0,5.0,,0.0,0.0,
2025-08-15T04:57:11.357Z,11,GR86-022-13,3.3000000000000003,0.087,-0.074,100.01,5.0,,0.0,0.0,
2025-08-15T04:57:11.399Z,11,GR86-022-13,3.3000000000000003,0.106,-0.044,100.04,5.0,,0.0,0.0,
2025-08-15T04:57:11.442Z,11,GR86-022-13,3.3000000000000003,0.112,-0.049,100.0,5.0,6994.0,0.0,0.0,
2025-08-15T04:57:11.485Z,11,GR86-022-13,3.5,0.116,-0.034,99.99,5.0,,0.0,0.0,206.69
2025-08-15T04:57:11.528Z,11,GR86-022-13,3.6,0.079,-0.068,100.0,5.0,,0.0,0.0,
2025-08-15T04:57:11.571Z,11,GR86-022-13,3.6,0.085,-0.064,100.01,5.0,,0.0,0.0,
2025-08-15T04:57:11.614Z,11,GR86-022-13,3.6,0.068,-0.054,99.99,5.0,,0.0,0.0,
2025-08-15T04:57:11.658Z,11,GR86-022-13,3.6,0.077,-0.001,100.01,5.0,7018.0,0.0,0.0,
2025-08-15T04:57:11.701Z,11,GR86-022-13,3.6,0.091,-0.01,100.02,5.0,,0.0,0.0,207.27
2025-08-15T04:57:11.744Z,11,GR86-022-13,3.6,0.059,-0.033,100.02,5.0,,0.0,0.0,
2025-08-15T04:57:11.788Z,11,GR86-022-13,3.6,0.128,-0.022,100.01,5.0,,0.0,0.0,
2025-08-15T04:57:11.831Z,11,GR86-022-13,3.6,0.094,-0.011,99.99,5.0,,0.0,0.0,
2025-08-15T04:57:11.874Z,11,GR86-022-13,3.6,0.122,-0.051,100.0,5.0,7042.0,0.0,0.0,
2025-08-15T04:57:11.918Z,11,GR86-022-13,3.6,0.117,-0.027,99.98,5.0,,0.0,0.0,207.8
2025-08-15T04:57:11.960Z,11,GR86-022-13,3.6,0.099,-0.048,100.04,5.0,,0.0,0.0,
2025-08-15T04:57:12.003Z,11,GR86-022-13,3.6,0.142,-0.006,100.01,5.0,,0.0,0.0,
2025-08-15T04:57:12.048Z,11,GR86-022-13,4.3,0.115,0.015,100.0,5.0,,0.0,0.0,
2025-08-15T04:57:12.091Z,11,GR86-022-13,5.5,0.086,-0.013,100.0,5.0,7073.0,0.0,0.0,
2025-08-15T04:57:12.134Z,11,GR86-022-13,5.800000000000001,0.063,-0.004,100.02,5.0,,0.0,0.0,208.31
2025-08-15T04:57:12.178Z,11,GR86-022-13,5.1000000000000005,0.092,0.008,100.03,5.0,,0.0,0.0,
2025-08-15T04:57:12.221Z,11,GR86-022-13,4.0,0.083,-0.003,100.0,5.0,,0.0,0.0,
2025-08-15T04:57:12.264Z,11,GR86-022-13,3.7,0.065,0.043,99.99,5.0,,0.0,0.0,
2025-08-15T04:57:12.308Z,11,GR86-022-13,3.7,0.073,-0.024,99.98,5.0,7078.0,0.0,0.0,
2025-08-15T04:57:12.350Z,11,GR86-022-13,3.7,0.12,-0.005,100.0,5.0,,0.0,0.0,208.9
2025-08-15T04:57:12.393Z,11,GR86-022-13,3.7,0.102,-0.009,99.99,5.0,,0.0,0.0,
2025-08-15T04:57:12.437Z,11,GR86-022-13,3.7,0.074,-0.033,100.01,5.0,,0.0,0.0,
2025-08-15T04:57:12.479Z,11,GR86-022-13,3.7,0.137,-0.059,99.97,5.0,,0.0,0.0,
2025-08-15T04:57:12.522Z,11,GR86-022-13,3.7,0.107,-0.039,99.99,5.0,7106.0,0.0,0.0,
2025-08-15T04:57:12.565Z,11,GR86-022-13,3.7,0.12,-0.038,100.0,5.0,,0.0,0.0,209.33
2025-08-15T04:57:12.608Z,11,GR86-022-13,3.7,0.086,-0.016,100.02,5.0,,0.0,0.0,
2025-08-15T04:57:12.651Z,11,GR86-022-13,3.7,0.049,-0.032,100.01,5.0,,0.0,0.0,
2025-08-15T04:57:12.694Z,11,GR86-022-13,4.2,0.096,-0.012,100.01,5.0,,0.0,0.0,
2025-08-15T04:57:12.738Z,11,GR86-022-13,4.5,0.073,-0.025,99.99,5.0,7134.0,0.0,0.0,
2025-08-15T04:57:12.781Z,11,GR86-022-13,4.5,0.072,-0.053,99.99,5.0,,0.0,0.0,209.89
2025-08-15T04:57:12.824Z,11,GR86-022-13,4.5,0.104,-0.02,100.02,5.0,,4.44,4.5,
2025-08-15T04:57:12.868Z,11,GR86-022-13,4.5,0.081,-0.03,100.02,5.0,,4.03,4.12,
2025-08-15T04:57:12.911Z,11,GR86-022-13,4.5,0.073,0.006,99.98,5.0,,2.61,2.885,
2025-08-15T04:57:12.953Z,11,GR86-022-13,4.5,0.072,-0.008,99.98,5.0,7151.0,0.0,0.0,
2025-08-15T04:57:12.997Z,11,GR86-022-13,4.5,0.085,-0.001,99.98,5.0,,10.055,10.47,210.37
2025-08-15T04:57:13.041Z,11,GR86-022-13,4.5,-0.003,-0.015,100.0,5.0,,8.605,9.125,
2025-08-15T04:57:13.084Z,11,GR86-022-13,4.5,-0.031,0.004,99.99,5.0,,6.99,7.675,
2025-08-15T04:57:13.128Z,11,GR86-022-13,4.6000000000000005,0.005,-0.001,100.02,5.0,,11.37,11.735,
2025-08-15T04:57:13.171Z,11,GR86-022-13,4.6000000000000005,-0.115,-0.009,100.02,5.0,7148.0,13.855,14.3,
2025-08-15T04:57:13.214Z,11,GR86-022-13,4.7,-0.103,0.006,100.02,5.0,,14.025,14.605,210.98
2025-08-15T04:57:13.258Z,11,GR86-022-13,4.800000000000001,-0.113,-0.001,100.0,5.0,,10.085,10.865,
2025-08-15T04:57:13.301Z,11,GR86-022-13,4.800000000000001,0.008,0.005,100.0,5.0,,3.525,3.905,
2025-08-15T04:57:13.344Z,11,GR86-022-13,4.800000000000001,0.092,0.005,100.03,5.0,,0.0,0.0,
2025-08-15T04:57:13.388Z,11,GR86-022-13,4.9,0.113,-0.019,100.03,5.0,7149.0,0.0,0.0,
2025-08-15T04:57:13.430Z,11,GR86-022-13,5.1000000000000005,0.127,0.004,99.97,5.0,,0.0,0.0,211.26
2025-08-15T04:57:13.473Z,11,GR86-022-13,5.300000000000001,0.091,-0.015,100.0,5.0,,0.0,0.0,
2025-08-15T04:57:13.517Z,11,GR86-022-13,5.300000000000001,0.113,-0.01,99.97,5.0,,0.0,0.0,
2025-08-15T04:57:13.561Z,11,GR86-022-13,5.300000000000001,0.118,0.002,99.99,5.0,,0.0,0.0,
2025-08-15T04:57:13.603Z,11,GR86-022-13,5.4,0.095,0.024,100.0,5.0,7131.0,0.0,0.0,
2025-08-15T04:57:13.649Z,11,GR86-022-13,5.4,0.092,0.004,100.02,5.0,,0.0,0.0,210.75
2025-08-15T04:57:13.691Z,11,GR86-022-13,5.4,0.1,0.048,100.02,5.0,,0.0,0.0,
2025-08-15T04:57:13.734Z,11,GR86-022-13,5.4,0.114,0.007,100.0,5.0,,0.0,0.0,
2025-08-15T04:57:13.778Z,11,GR86-022-13,5.4,0.102,0.017,100.02,5.0,,0.0,0.0,
2025-08-15T04:57:13.821Z,11,GR86-022-13,5.4,0.083,0.025,100.0,5.0,7155.0,0.0,0.0,
2025-08-15T04:57:13.864Z,11,GR86-022-13,5.4,0.107,0.037,100.0,5.0,,0.0,0.0,210.9
2025-08-15T04:57:13.908Z,11,GR86-022-13,5.4,0.102,0.037,100.0,5.0,,0.0,0.0,
2025-08-15T04:57:13.950Z,11,GR86-022-13,5.2,0.113,0.062,100.01,5.0,,0.0,0.0,
2025-08-15T04:57:13.993Z,11,GR86-022-13,4.5,0.073,0.032,100.02,5.0,,5.675,5.8,
2025-08-15T04:57:14.037Z,11,GR86-022-13,3.1,-0.013,0.044,93.26,5.0,7178.0,13.49,13.64,
2025-08-15T04:57:14.081Z,11,GR86-022-13,2.6,-0.143,0.018,31.27,5.0,,26.4,26.43,211.96
2025-08-15T04:57:14.124Z,11,GR86-022-13,2.3000000000000003,-0.412,0.009,3.5,5.0,,42.955,42.68,
2025-08-15T04:57:14.168Z,11,GR86-022-13,1.9,-0.785,0.008,2.93,5.0,,57.5,57.055,
2025-08-15T04:57:14.210Z,11,GR86-022-13,0.4,-1.139,-0.014,2.87,5.0,,66.64,66.135,
2025-08-15T04:57:14.253Z,11,GR86-022-13,-1.2000000000000002,-1.213,-0.054,2.86,5.0,7200.0,68.715,68.47,
2025-08-15T04:57:14.297Z,11,GR86-022-13,-2.2,-1.054,-0.079,2.76,5.0,,61.65,62.72,212.3
2025-08-15T04:57:14.341Z,11,GR86-022-13,1.0,-0.975,-0.103,2.72,5.0,,54.235,55.545,
2025-08-15T04:57:14.384Z,11,GR86-022-13,6.4,-1.023,-0.093,2.68,5.0,,51.685,52.05,
2025-08-15T04:57:14.428Z,11,GR86-022-13,10.8,-0.933,-0.041,2.65,5.0,,48.865,50.07,
2025-08-15T04:57:14.470Z,11,GR86-022-13,10.0,-0.893,-0.058,2.62,5.0,7202.0,43.89,45.125,
2025-08-15T04:57:14.513Z,11,GR86-022-13,7.4,-0.87,-0.027,2.61,5.0,,45.595,45.965,208.5
2025-08-15T04:57:14.557Z,11,GR86-022-13,2.4000000000000004,-1.123,-0.071,55.97,5.0,,63.315000000000005,62.965,
2025-08-15T04:57:14.599Z,11,GR86-022-13,3.4000000000000004,-1.231,-0.077,46.26,4.0,,72.93,72.33,
2025-08-15T04:57:14.643Z,11,GR86-022-13,8.4,-1.189,-0.056,5.73,4.0,,78.3,79.33500000000001,
2025-08-15T04:57:14.687Z,11,GR86-022-13,8.1,-1.175,0.031,3.76,4.0,6466.0,81.84,83.485,
2025-08-15T04:57:14.729Z,11,GR86-022-13,3.6,-1.283,-0.03,3.37,4.0,,80.345,80.74,200.33
2025-08-15T04:57:14.772Z,11,GR86-022-13,-3.2,-1.243,0.012,3.2,4.0,,74.68,75.34,
2025-08-15T04:57:14.815Z,11,GR86-022-13,-7.5,-1.116,-0.005,3.08,4.0,,68.805,70.27,
2025-08-15T04:57:14.858Z,11,GR86-022-13,-3.9,-1.02,-0.154,2.93,4.0,,63.435,64.06,
2025-08-15T04:57:14.901Z,11,GR86-022-13,-0.4,-1.077,-0.096,2.83,4.0,6634.0,69.22,70.545,
2025-08-15T04:57:14.988Z,11,GR86-022-13,3.9,-1.06,-0.16,2.71,4.0,,75.935,77.49,192.93
2025-08-15T04:57:15.030Z,11,GR86-022-13,5.7,-1.095,-0.107,2.66,4.0,,75.905,76.18,
2025-08-15T04:57:15.073Z,11,GR86-022-13,8.6,-1.105,-0.203,2.61,4.0,,74.315,74.24,
2025-08-15T04:57:15.117Z,11,GR86-022-13,9.6,-1.147,-0.103,2.54,4.0,6672.0,75.78,76.21000000000001,
2025-08-15T04:57:15.159Z,11,GR86-022-13,8.3,-1.115,-0.144,2.5,4.0,,75.215,74.865,183.92
2025-08-15T04:57:15.202Z,11,GR86-022-13,5.4,-1.121,-0.139,2.5,4.0,,76.18,75.58500000000001,
2025-08-15T04:57:15.245Z,11,GR86-022-13,1.9,-1.195,-0.151,15.9,4.0,,80.495,81.155,
2025-08-15T04:57:15.288Z,11,GR86-022-13,-4.6000000000000005,-1.24,-0.217,62.06,4.0,,84.89,85.655,
2025-08-15T04:57:15.331Z,11,GR86-022-13,-5.7,-1.28,-0.27,52.69,3.0,6706.0,87.395,87.93,
2025-08-15T04:57:15.374Z,11,GR86-022-13,-4.9,-1.279,-0.229,5.76,3.0,,89.865,91.56,176.57
2025-08-15T04:57:15.418Z,11,GR86-022-13,-7.7,-1.23,-0.365,3.37,3.0,,90.83,91.56,
2025-08-15T04:57:15.461Z,11,GR86-022-13,-9.7,-1.3,-0.389,3.19,3.0,,89.12,90.14,
2025-08-15T04:57:15.504Z,11,GR86-022-13,-11.8,-1.157,-0.276,3.09,3.0,,90.14,91.65,
2025-08-15T04:57:15.548Z,11,GR86-022-13,-14.2,-1.194,-0.479,3.0,3.0,6111.0,90.46,90.735,
2025-08-15T04:57:15.590Z,11,GR86-022-13,-15.2,-1.081,-0.6950000000000001,2.94,3.0,,85.38,85.5,168.02
2025-08-15T04:57:15.633Z,11,GR86-022-13,-16.5,-1.041,-0.458,2.86,3.0,,84.08500000000001,85.24,
2025-08-15T04:57:15.679Z,11,GR86-022-13,-19.4,-0.938,-0.839,2.71,3.0,,79.015,79.93,
2025-08-15T04:57:15.721Z,11,GR86-022-13,-20.200000000000003,-0.918,-0.735,2.63,3.0,,72.73,73.11,
2025-08-15T04:57:15.764Z,11,GR86-022-13,-20.1,-0.939,-0.553,2.59,3.0,6303.0,70.09,71.08,
2025-08-15T04:57:15.808Z,11,GR86-022-13,-16.1,-0.86,-0.6880000000000001,2.54,3.0,,65.895,66.855,159.85
2025-08-15T04:57:15.850Z,11,GR86-022-13,-7.7,-0.923,-0.89,2.52,3.0,,56.965,57.805,
2025-08-15T04:57:15.893Z,11,GR86-022-13,-0.8,-0.844,-0.794,2.5,3.0,,46.865,47.46,
2025-08-15T04:57:15.937Z,11,GR86-022-13,-10.0,-0.76,-0.805,2.51,3.0,,37.615,37.83,
2025-08-15T04:57:15.981Z,11,GR86-022-13,-23.1,-0.713,-0.881,2.5,3.0,6520.0,35.985,36.21,
2025-08-15T04:57:16.024Z,11,GR86-022-13,-35.5,-0.711,-1.006,2.49,3.0,,31.865,32.625,152.88
2025-08-15T04:57:16.068Z,11,GR86-022-13,-36.9,-0.539,-0.95,2.49,3.0,,27.255,28.125,
2025-08-15T04:57:16.111Z,11,GR86-022-13,-34.9,-0.535,-0.988,2.49,3.0,,26.535,27.59,
2025-08-15T04:57:16.153Z,11,GR86-022-13,-34.6,-0.607,-1.019,2.49,3.0,,27.405,27.895,
2025-08-15T04:57:16.199Z,11,GR86-022-13,-34.0,-0.704,-1.035,2.48,3.0,6261.0,28.87,29.65,
2025-08-15T04:57:16.241Z,11,GR86-022-13,-32.9,-0.625,-1.067,2.49,3.0,,27.47,28.305,144.9
2025-08-15T04:57:16.284Z,11,GR86-022-13,-32.1,-0.596,-1.126,2.5,3.0,,24.995,25.545,
2025-08-15T04:57:16.328Z,11,GR86-022-13,-31.9,-0.515,-1.1,2.49,3.0,,23.025,23.3,
2025-08-15T04:57:16.370Z,11,GR86-022-13,-31.9,-0.502,-1.088,2.49,3.0,,18.435,19.12,
2025-08-15T04:57:16.413Z,11,GR86-022-13,-31.9,-0.455,-1.125,2.49,3.0,6220.0,10.5,10.865,
2025-08-15T04:57:16.457Z,11,GR86-022-13,-29.5,-0.269,-1.168,2.48,3.0,,0.0,0.0,142.32
2025-08-15T04:57:16.499Z,11,GR86-022-13,-29.1,-0.191,-1.181,2.5,3.0,,0.0,0.0,
2025-08-15T04:57:16.542Z,11,GR86-022-13,-31.0,-0.163,-1.232,2.5,3.0,,0.0,0.0,
2025-08-15T04:57:16.628Z,11,GR86-022-13,-32.9,-0.155,-1.218,2.48,3.0,6128.0,0.0,0.0,
2025-08-15T04:57:16.671Z,11,GR86-022-13,-34.5,-0.147,-1.288,2.51,3.0,,0.0,0.0,137.55
2025-08-15T04:57:16.714Z,11,GR86-022-13,-34.5,-0.155,-1.246,9.15,3.0,,0.0,0.0,
2025-08-15T04:57:16.758Z,11,GR86-022-13,-34.4,-0.159,-1.269,24.55,3.0,,0.0,0.0,
2025-08-15T04:57:16.801Z,11,GR86-022-13,-34.300000000000004,-0.137,-1.236,30.18,3.0,,0.0,0.0,
2025-08-15T04:57:16.844Z,11,GR86-022-13,-34.300000000000004,-0.067,-1.259,31.87,3.0,5973.0,0.0,0.0,
2025-08-15T04:57:16.888Z,11,GR86-022-13,-34.300000000000004,-0.109,-1.31,37.69,3.0,,0.0,0.0,132.89
2025-08-15T04:57:16.931Z,11,GR86-022-13,-35.2,-0.068,-1.241,41.45,3.0,,0.0,0.0,
2025-08-15T04:57:16.974Z,11,GR86-022-13,-35.6,0.199,-1.257,53.46,3.0,,0.0,0.0,
2025-08-15T04:57:17.018Z,11,GR86-022-13,-36.5,0.205,-1.256,78.02,3.0,,0.0,0.0,
2025-08-15T04:57:17.060Z,11,GR86-022-13,-37.9,0.206,-1.251,98.98,3.0,5958.0,0.0,0.0,
2025-08-15T04:57:17.103Z,11,GR86-022-13,-41.3,0.2,-1.231,100.13,3.0,,0.0,0.0,131.11
2025-08-15T04:57:17.148Z,11,GR86-022-13,-45.7,0.198,-1.185,100.17,3.0,,0.0,0.0,
2025-08-15T04:57:17.191Z,11,GR86-022-13,-50.0,0.219,-1.241,100.14,3.0,,0.0,0.0,
2025-08-15T04:57:17.234Z,11,GR86-022-13,-53.1,0.181,-1.232,100.16,3.0,,0.0,0.0,
2025-08-15T04:57:17.278Z,11,GR86-022-13,-55.3,0.168,-1.225,100.15,3.0,6201.0,0.0,0.0,
2025-08-15T04:57:17.321Z,11,GR86-022-13,-55.900000000000006,0.172,-1.195,100.14,3.0,,0.0,0.0,129.98
2025-08-15T04:57:17.364Z,11,GR86-022-13,-55.7,0.213,-1.249,100.16,3.0,,0.0,0.0,
2025-08-15T04:57:17.408Z,11,GR86-022-13,-54.900000000000006,0.147,-1.402,100.16,3.0,,0.0,0.0,
2025-08-15T04:57:17.450Z,11,GR86-022-13,-53.900000000000006,0.111,-1.158,100.15,3.0,,0.0,0.0,
2025-08-15T04:57:17.493Z,11,GR86-022-13,-50.6,0.205,-1.301,100.16,3.0,6205.0,0.0,0.0,
2025-08-15T04:57:17.537Z,11,GR86-022-13,-42.8,0.127,-1.054,100.13,3.0,,0.0,0.0,130.13
2025-08-15T04:57:17.579Z,11,GR86-022-13,-31.5,0.125,-1.106,100.14,3.0,,0.0,0.0,
2025-08-15T04:57:17.622Z,11,GR86-022-13,-24.4,0.138,-1.262,100.14,3.0,,0.0,0.0,
2025-08-15T04:57:17.665Z,11,GR86-022-13,-22.1,0.281,-1.288,100.13,3.0,,0.0,0.0,
2025-08-15T04:57:17.708Z,11,GR86-022-13,-24.8,0.483,-1.175,100.13,3.0,6242.0,0.0,0.0,
2025-08-15T04:57:17.751Z,11,GR86-022-13,-29.1,0.314,-1.162,100.14,3.0,,0.0,0.0,130.96
2025-08-15T04:57:17.794Z,11,GR86-022-13,-32.1,0.185,-0.975,100.13,3.0,,0.0,0.0,
2025-08-15T04:57:17.838Z,11,GR86-022-13,-32.1,0.163,-0.976,100.12,3.0,,0.0,0.0,
2025-08-15T04:57:17.881Z,11,GR86-022-13,-31.5,0.255,-1.06,100.13,3.0,,0.0,0.0,
2025-08-15T04:57:17.924Z,11,GR86-022-13,-32.0,0.424,-1.046,100.13,3.0,6408.0,0.0,0.0,
2025-08-15T04:57:17.968Z,11,GR86-022-13,-33.9,0.161,-1.014,100.12,3.0,,0.0,0.0,131.88
2025-08-15T04:57:18.011Z,11,GR86-022-13,-35.800000000000004,0.055,-1.144,100.13,3.0,,0.0,0.0,
2025-08-15T04:57:18.053Z,11,GR86-022-13,-39.1,0.01,-1.192,100.13,3.0,,0.0,0.0,
2025-08-15T04:57:18.097Z,11,GR86-022-13,-44.7,0.194,-1.284,100.09,3.0,,0.0,0.0,
2025-08-15T04:57:18.139Z,11,GR86-022-13,-44.7,0.365,-1.337,100.09,3.0,6517.0,0.0,0.0,
2025-08-15T04:57:18.182Z,11,GR86-022-13,-41.900000000000006,0.208,-1.251,100.09,3.0,,0.0,0.0,133.08
2025-08-15T04:57:18.225Z,11,GR86-022-13,-40.900000000000006,0.137,-1.215,100.1,3.0,,0.0,0.0,
2025-08-15T04:57:18.268Z,11,GR86-022-13,-42.900000000000006,0.179,-1.105,100.09,3.0,,0.0,0.0,
2025-08-15T04:57:18.311Z,11,GR86-022-13,-46.7,0.215,-1.222,100.1,3.0,,0.0,0.0,
2025-08-15T04:57:18.354Z,11,GR86-022-13,-50.5,0.19,-1.219,100.09,3.0,6421.0,0.0,0.0,
2025-08-15T04:57:18.398Z,11,GR86-022-13,-52.900000000000006,0.185,-1.249,100.07,3.0,,0.0,0.0,133.71
2025-08-15T04:57:18.441Z,11,GR86-022-13,-52.900000000000006,0.187,-1.24,100.1,3.0,,0.0,0.0,
2025-08-15T04:57:18.484Z,11,GR86-022-13,-52.7,0.197,-1.212,100.06,3.0,,0.0,0.0,
2025-08-15T04:57:18.528Z,11,GR86-022-13,-51.900000000000006,0.193,-1.222,100.09,3.0,,0.0,0.0,
2025-08-15T04:57:18.571Z,11,GR86-022-13,-50.6,0.175,-1.163,100.06,3.0,6418.0,0.0,0.0,
2025-08-15T04:57:18.614Z,11,GR86-022-13,-48.900000000000006,0.194,-1.181,100.09,3.0,,0.0,0.0,133.78
2025-08-15T04:57:18.658Z,11,GR86-022-13,-44.7,0.155,-1.135,100.07,3.0,,0.0,0.0,
2025-08-15T04:57:18.701Z,11,GR86-022-13,-41.900000000000006,0.222,-1.184,100.07,3.0,,0.0,0.0,
2025-08-15T04:57:18.744Z,11,GR86-022-13,-41.7,0.218,-1.25,100.05,3.0,,0.0,0.0,
2025-08-15T04:57:18.788Z,11,GR86-022-13,-41.7,0.2,-1.243,100.06,3.0,6404.0,0.0,0.0,
2025-08-15T04:57:18.830Z,11,GR86-022-13,-40.900000000000006,0.175,-1.203,100.04,3.0,,0.0,0.0,134.33
2025-08-15T04:57:18.873Z,11,GR86-022-13,-38.900000000000006,0.226,-1.208,100.05,3.0,,0.0,0.0,
2025-08-15T04:57:18.917Z,11,GR86-022-13,-35.800000000000004,0.21,-1.185,100.05,3.0,,0.0,0.0,
2025-08-15T04:57:18.961Z,11,GR86-022-13,-34.4,0.243,-1.207,100.06,3.0,,0.0,0.0,
2025-08-15T04:57:19.004Z,11,GR86-022-13,-34.300000000000004,0.194,-1.19,100.04,3.0,6458.0,0.0,0.0,
2025-08-15T04:57:19.048Z,11,GR86-022-13,-34.300000000000004,0.164,-1.16,100.03,3.0,,0.0,0.0,134.93
2025-08-15T04:57:19.091Z,11,GR86-022-13,-34.5,0.22,-1.198,100.02,3.0,,0.0,0.0,
2025-08-15T04:57:19.134Z,11,GR86-022-13,-36.5,0.232,-1.214,100.03,3.0,,0.0,0.0,
2025-08-15T04:57:19.178Z,11,GR86-022-13,-42.400000000000006,0.242,-1.156,99.99,3.0,,0.0,0.0,
2025-08-15T04:57:19.221Z,11,GR86-022-13,-45.3,0.199,-1.152,100.02,3.0,6491.0,0.0,0.0,
2025-08-15T04:57:19.264Z,11,GR86-022-13,-44.3,0.147,-1.13,100.0,3.0,,0.0,0.0,136.07
2025-08-15T04:57:19.308Z,11,GR86-022-13,-40.6,0.172,-1.143,99.97,3.0,,0.0,0.0,
2025-08-15T04:57:19.350Z,11,GR86-022-13,-36.9,0.245,-1.128,100.01,3.0,,0.0,0.0,
2025-08-15T04:57:19.393Z,11,GR86-022-13,-34.0,0.225,-0.992,99.99,3.0,,0.0,0.0,
2025-08-15T04:57:19.437Z,11,GR86-022-13,-29.0,0.157,-0.596,99.97,3.0,6557.0,0.0,0.0,
2025-08-15T04:57:19.481Z,11,GR86-022-13,-25.6,0.076,-0.748,100.0,3.0,,0.0,0.0,137.63
2025-08-15T04:57:19.524Z,11,GR86-022-13,-22.3,0.202,-0.75,100.01,3.0,,0.0,0.0,
2025-08-15T04:57:19.568Z,11,GR86-022-13,-20.200000000000003,0.259,-0.934,99.99,3.0,,0.0,0.0,
2025-08-15T04:57:19.610Z,11,GR86-022-13,-19.5,0.247,-0.808,100.02,3.0,,0.0,0.0,
2025-08-15T04:57:19.653Z,11,GR86-022-13,-21.5,0.078,-0.555,100.0,3.0,6602.0,0.0,0.0,
2025-08-15T04:57:19.697Z,11,GR86-022-13,-26.8,0.241,-0.744,100.01,3.0,,0.0,0.0,138.22
2025-08-15T04:57:19.741Z,11,GR86-022-13,-29.1,0.002,-0.933,100.0,3.0,,0.0,0.0,
2025-08-15T04:57:19.784Z,11,GR86-022-13,-29.8,0.068,-1.14,99.97,3.0,,0.0,0.0,
2025-08-15T04:57:19.828Z,11,GR86-022-13,-30.1,0.21,-1.262,99.98,3.0,,0.0,0.0,
2025-08-15T04:57:19.870Z,11,GR86-022-13,-32.300000000000004,0.32,-1.287,100.03,3.0,6660.0,0.0,0.0,
2025-08-15T04:57:19.913Z,11,GR86-022-13,-35.9,0.178,-1.287,99.97,3.0,,0.0,0.0,139.88
2025-08-15T04:57:19.957Z,11,GR86-022-13,-38.400000000000006,0.287,-1.263,100.01,3.0,,0.0,0.0,
2025-08-15T04:57:19.999Z,11,GR86-022-13,-36.0,0.154,-1.209,99.96,3.0,,0.0,0.0,
2025-08-15T04:57:20.042Z,11,GR86-022-13,-29.9,0.14,-1.142,100.0,3.0,,0.0,0.0,
2025-08-15T04:57:20.128Z,11,GR86-022-13,-23.700000000000003,0.216,-0.971,100.01,3.0,6785.0,0.0,0.0,140.55
2025-08-15T04:57:20.171Z,11,GR86-022-13,-20.8,0.201,-0.965,100.0,3.0,,0.0,0.0,
2025-08-15T04:57:20.214Z,11,GR86-022-13,-22.6,0.221,-0.948,100.0,3.0,,0.0,0.0,
2025-08-15T04:57:20.258Z,11,GR86-022-13,-26.200000000000003,0.175,-1.07,100.02,3.0,,0.0,0.0,
2025-08-15T04:57:20.301Z,11,GR86-022-13,-28.3,0.14,-1.221,99.99,3.0,6735.0,0.0,0.0,
2025-08-15T04:57:20.344Z,11,GR86-022-13,-29.6,0.265,-1.186,99.97,3.0,,0.0,0.0,140.9
2025-08-15T04:57:20.388Z,11,GR86-022-13,-29.9,0.289,-1.178,99.97,3.0,,0.0,0.0,
2025-08-15T04:57:20.431Z,11,GR86-022-13,-29.3,0.236,-1.1,100.0,3.0,,0.0,0.0,
2025-08-15T04:57:20.473Z,11,GR86-022-13,-27.200000000000003,0.151,-0.947,99.99,3.0,,0.0,0.0,
2025-08-15T04:57:20.517Z,11,GR86-022-13,-22.700000000000003,0.183,-0.939,100.01,3.0,6807.0,0.0,0.0,
2025-08-15T04:57:20.559Z,11,GR86-022-13,-20.9,0.203,-0.785,100.0,3.0,,0.0,0.0,141.49
2025-08-15T04:57:20.602Z,11,GR86-022-13,-20.3,0.176,-0.771,99.99,3.0,,0.0,0.0,
2025-08-15T04:57:20.645Z,11,GR86-022-13,-20.3,0.239,-0.663,100.0,3.0,,0.0,0.0,
2025-08-15T04:57:20.688Z,11,GR86-022-13,-20.3,0.264,-0.652,100.0,3.0,,0.0,0.0,
2025-08-15T04:57:20.733Z,11,GR86-022-13,-20.200000000000003,0.178,-0.718,100.01,3.0,6761.0,0.0,0.0,
2025-08-15T04:57:20.775Z,11,GR86-022-13,-19.6,0.143,-0.633,100.0,3.0,,0.0,0.0,143.46
2025-08-15T04:57:20.818Z,11,GR86-022-13,-16.0,0.207,-0.759,99.99,3.0,,0.0,0.0,
2025-08-15T04:57:20.861Z,11,GR86-022-13,-11.9,0.262,-0.656,100.02,3.0,,0.0,0.0,
2025-08-15T04:57:20.904Z,11,GR86-022-13,-8.200000000000001,0.195,-0.497,100.02,3.0,,0.0,0.0,
2025-08-15T04:57:20.948Z,11,GR86-022-13,-4.6000000000000005,0.194,-0.558,100.01,3.0,6831.0,0.0,0.0,
2025-08-15T04:57:20.990Z,11,GR86-022-13,-1.3,0.243,-0.43,99.99,3.0,,0.0,0.0,144.20000000000002
2025-08-15T04:57:21.033Z,11,GR86-022-13,0.6000000000000001,0.154,-0.28,99.99,3.0,,0.0,0.0,
2025-08-15T04:57:21.078Z,11,GR86-022-13,1.2000000000000002,0.237,-0.216,100.0,3.0,,0.0,0.0,
2025-08-15T04:57:21.121Z,11,GR86-022-13,1.6,0.078,-0.14,100.02,3.0,,0.0,0.0,
2025-08-15T04:57:21.164Z,11,GR86-022-13,2.6,0.005,-0.078,100.02,3.0,6838.0,0.0,0.0,
2025-08-15T04:57:21.208Z,11,GR86-022-13,3.6,0.217,-0.146,99.99,3.0,,0.0,0.0,145.93
2025-08-15T04:57:21.250Z,11,GR86-022-13,3.7,0.413,-0.214,99.98,3.0,,0.0,0.0,
2025-08-15T04:57:21.293Z,11,GR86-022-13,4.2,0.383,-0.219,99.98,3.0,,0.0,0.0,
2025-08-15T04:57:21.337Z,11,GR86-022-13,6.6000000000000005,0.193,-0.331,99.99,3.0,,0.0,0.0,
2025-08-15T04:57:21.381Z,11,GR86-022-13,8.0,0.186,-0.04,100.03,3.0,6938.0,0.0,0.0,
2025-08-15T04:57:21.424Z,11,GR86-022-13,8.6,0.22,-0.116,100.01,3.0,,0.0,0.0,147.04
2025-08-15T04:57:21.468Z,11,GR86-022-13,9.2,0.178,0.011,100.02,3.0,,0.0,0.0,
2025-08-15T04:57:21.511Z,11,GR86-022-13,9.3,0.102,0.057,100.03,3.0,,0.0,0.0,
2025-08-15T04:57:21.553Z,11,GR86-022-13,9.5,0.129,0.093,100.0,3.0,,0.0,0.0,
2025-08-15T04:57:21.599Z,11,GR86-022-13,9.9,0.136,0.216,100.04,3.0,6994.0,0.0,0.0,
2025-08-15T04:57:21.641Z,11,GR86-022-13,10.7,0.303,0.235,100.01,3.0,,0.0,0.0,148.15
2025-08-15T04:57:21.684Z,11,GR86-022-13,12.1,0.298,0.322,100.0,3.0,,0.0,0.0,
2025-08-15T04:57:21.728Z,11,GR86-022-13,12.8,0.239,0.299,100.0,3.0,,0.0,0.0,
2025-08-15T04:57:21.770Z,11,GR86-022-13,12.5,0.142,0.327,100.0,3.0,,0.0,0.0,
2025-08-15T04:57:21.813Z,11,GR86-022-13,11.7,0.001,0.324,100.03,3.0,7074.0,0.0,0.0,
2025-08-15T04:57:21.857Z,11,GR86-022-13,11.2,0.225,0.435,99.99,3.0,,0.0,0.0,150.43
2025-08-15T04:57:21.899Z,11,GR86-022-13,10.5,0.202,0.436,100.02,3.0,,0.0,0.0,
2025-08-15T04:57:21.943Z,11,GR86-022-13,10.6,0.246,0.442,100.0,3.0,,0.0,0.0,
2025-08-15T04:57:21.987Z,11,GR86-022-13,10.7,0.125,0.392,99.99,4.0,,0.0,0.0,
2025-08-15T04:57:22.031Z,11,GR86-022-13,10.7,-0.096,0.361,99.99,4.0,7194.0,0.0,0.0,
2025-08-15T04:57:22.075Z,11,GR86-022-13,10.8,0.641,0.322,99.98,4.0,,0.0,0.0,151.32
2025-08-15T04:57:22.118Z,11,GR86-022-13,10.8,0.153,0.29,99.98,4.0,,0.0,0.0,
2025-08-15T04:57:22.161Z,11,GR86-022-13,10.8,0.044,0.311,100.0,4.0,,0.0,0.0,
2025-08-15T04:57:22.204Z,11,GR86-022-13,10.8,0.156,0.218,100.0,4.0,,0.0,0.0,
2025-08-15T04:57:22.248Z,11,GR86-022-13,10.8,0.306,0.165,99.98,4.0,7213.0,0.0,0.0,
2025-08-15T04:57:22.291Z,11,GR86-022-13,10.8,0.234,0.24,99.98,4.0,,0.0,0.0,154.37
2025-08-15T04:57:22.334Z,11,GR86-022-13,10.8,0.139,0.181,100.0,4.0,,0.0,0.0,
2025-08-15T04:57:22.378Z,11,GR86-022-13,10.8,0.236,0.21,100.0,4.0,,0.0,0.0,
2025-08-15T04:57:22.421Z,11,GR86-022-13,10.8,0.235,0.205,99.98,4.0,,0.0,0.0,
2025-08-15T04:57:22.464Z,11,GR86-022-13,10.8,0.166,0.191,100.0,4.0,6350.0,0.0,0.0,
2025-08-15T04:57:22.508Z,11,GR86-022-13,10.8,0.142,0.211,100.01,4.0,,0.0,0.0,155.88
2025-08-15T04:57:22.550Z,11,GR86-022-13,10.4,0.138,0.212,100.01,4.0,,0.0,0.0,
2025-08-15T04:57:22.593Z,11,GR86-022-13,10.0,0.147,0.208,100.0,4.0,,0.0,0.0,
2025-08-15T04:57:22.637Z,11,GR86-022-13,8.8,0.143,0.216,100.0,4.0,,0.0,0.0,
2025-08-15T04:57:22.681Z,11,GR86-022-13,8.6,0.134,0.21,99.99,4.0,6202.0,0.0,0.0,
2025-08-15T04:57:22.723Z,11,GR86-022-13,8.6,0.144,0.199,100.01,4.0,,0.0,0.0,157.20000000000002
2025-08-15T04:57:22.767Z,11,GR86-022-13,8.200000000000001,0.168,0.205,99.99,4.0,,0.0,0.0,
2025-08-15T04:57:22.809Z,11,GR86-022-13,7.5,0.177,0.199,100.0,4.0,,0.0,0.0,
2025-08-15T04:57:22.853Z,11,GR86-022-13,6.9,0.202,0.172,100.01,4.0,,0.0,0.0,
2025-08-15T04:57:22.895Z,11,GR86-022-13,6.800000000000001,0.195,0.167,100.0,4.0,6274.0,0.0,0.0,
2025-08-15T04:57:22.938Z,11,GR86-022-13,6.5,0.164,0.142,100.02,4.0,,0.0,0.0,158.61
2025-08-15T04:57:22.981Z,11,GR86-022-13,6.2,0.205,0.145,100.0,4.0,,0.0,0.0,
2025-08-15T04:57:23.024Z,11,GR86-022-13,6.0,0.197,0.103,100.0,4.0,,0.0,0.0,
2025-08-15T04:57:23.068Z,11,GR86-022-13,6.0,0.187,0.102,100.01,4.0,,0.0,0.0,
2025-08-15T04:57:23.111Z,11,GR86-022-13,5.7,0.197,0.069,99.99,4.0,6324.0,0.0,0.0,
2025-08-15T04:57:23.153Z,11,GR86-022-13,5.300000000000001,0.18,0.073,100.0,4.0,,0.0,0.0,160.14
2025-08-15T04:57:23.197Z,11,GR86-022-13,4.7,0.193,0.053,100.0,4.0,,0.0,0.0,
2025-08-15T04:57:23.241Z,11,GR86-022-13,4.3,0.209,0.05,100.03,4.0,,0.0,0.0,
2025-08-15T04:57:23.284Z,11,GR86-022-13,4.2,0.187,0.039,99.99,4.0,,0.0,0.0,
2025-08-15T04:57:23.328Z,11,GR86-022-13,3.9,0.197,0.029,100.0,4.0,6371.0,0.0,0.0,
2025-08-15T04:57:23.371Z,11,GR86-022-13,3.4000000000000004,0.145,0.006,99.99,4.0,,0.0,0.0,161.71
2025-08-15T04:57:23.415Z,11,GR86-022-13,3.0,0.154,0.01,100.0,4.0,,0.0,0.0,
2025-08-15T04:57:23.458Z,11,GR86-022-13,2.4000000000000004,0.205,-0.013,100.0,4.0,,0.0,0.0,
2025-08-15T04:57:23.501Z,11,GR86-022-13,2.1,0.193,-0.021,100.0,4.0,,0.0,0.0,
2025-08-15T04:57:23.544Z,11,GR86-022-13,2.1,0.175,-0.033,99.99,4.0,6434.0,0.0,0.0,
2025-08-15T04:57:23.588Z,11,GR86-022-13,2.1,0.129,-0.052,100.02,4.0,,0.0,0.0,163.22
2025-08-15T04:57:23.630Z,11,GR86-022-13,2.1,0.137,-0.05,99.99,4.0,,0.0,0.0,
2025-08-15T04:57:23.673Z,11,GR86-022-13,2.1,0.145,-0.074,100.01,4.0,,0.0,0.0,
2025-08-15T04:57:23.717Z,11,GR86-022-13,2.1,0.185,-0.084,100.0,4.0,,0.0,0.0,
2025-08-15T04:57:23.760Z,11,GR86-022-13,2.1,0.169,-0.093,99.98,4.0,6501.0,0.0,0.0,
2025-08-15T04:57:23.803Z,11,GR86-022-13,2.1,0.159,-0.088,100.03,4.0,,0.0,0.0,164.74
2025-08-15T04:57:23.848Z,11,GR86-022-13,2.1,0.154,-0.1,100.02,4.0,,0.0,0.0,
2025-08-15T04:57:23.891Z,11,GR86-022-13,2.1,0.125,-0.079,100.0,4.0,,0.0,0.0,
2025-08-15T04:57:23.934Z,11,GR86-022-13,2.3000000000000003,0.132,-0.079,100.01,4.0,,0.0,0.0,
2025-08-15T04:57:23.978Z,11,GR86-022-13,2.4000000000000004,0.185,-0.098,100.0,4.0,6566.0,0.0,0.0,
2025-08-15T04:57:24.021Z,11,GR86-022-13,2.5,0.172,-0.096,99.97,4.0,,0.0,0.0,166.22
2025-08-15T04:57:24.064Z,11,GR86-022-13,2.9000000000000004,0.152,-0.097,99.99,4.0,,0.0,0.0,
2025-08-15T04:57:24.108Z,11,GR86-022-13,3.7,0.144,-0.075,100.01,4.0,,0.0,0.0,
2025-08-15T04:57:24.150Z,11,GR86-022-13,4.3,0.153,-0.073,100.0,4.0,,0.0,0.0,
2025-08-15T04:57:24.193Z,11,GR86-022-13,4.4,0.14,-0.061,100.0,4.0,6608.0,0.0,0.0,
2025-08-15T04:57:24.237Z,11,GR86-022-13,3.9,0.18,-0.053,99.99,4.0,,0.0,0.0,167.95000000000002
2025-08-15T04:57:24.281Z,11,GR86-022-13,3.5,0.182,-0.027,100.0,4.0,,0.0,0.0,
2025-08-15T04:57:24.324Z,11,GR86-022-13,3.3000000000000003,0.178,-0.03,100.01,4.0,,0.0,0.0,
2025-08-15T04:57:24.410Z,11,GR86-022-13,2.9000000000000004,0.151,-0.009,100.0,4.0,6664.0,0.0,0.0,
2025-08-15T04:57:24.453Z,11,GR86-022-13,2.4000000000000004,0.131,-0.022,100.0,4.0,,0.0,0.0,169.42000000000002
2025-08-15T04:57:24.498Z,11,GR86-022-13,1.7000000000000002,0.18,-0.035,100.0,4.0,,0.0,0.0,
2025-08-15T04:57:24.541Z,11,GR86-022-13,1.3,0.182,-0.039,100.02,4.0,,0.0,0.0,
2025-08-15T04:57:24.584Z,11,GR86-022-13,1.0,0.167,-0.058,100.01,4.0,,0.0,0.0,
2025-08-15T04:57:24.628Z,11,GR86-022-13,0.9,0.173,-0.058,100.02,4.0,6728.0,0.0,0.0,
2025-08-15T04:57:24.713Z,11,GR86-022-13,0.6000000000000001,0.175,-0.09,99.99,4.0,,0.0,0.0,170.86
2025-08-15T04:57:24.757Z,11,GR86-022-13,0.0,0.16,-0.096,99.97,4.0,,0.0,0.0,
2025-08-15T04:57:24.799Z,11,GR86-022-13,-0.5,0.154,-0.096,99.97,4.0,,0.0,0.0,
2025-08-15T04:57:24.843Z,11,GR86-022-13,-0.8,0.17,-0.094,100.0,4.0,6769.0,0.0,0.0,
2025-08-15T04:57:24.885Z,11,GR86-022-13,-0.9,0.174,-0.108,99.98,4.0,,0.0,0.0,173.65
2025-08-15T04:57:24.928Z,11,GR86-022-13,-0.9,0.181,-0.135,100.0,4.0,,0.0,0.0,
2025-08-15T04:57:24.971Z,11,GR86-022-13,-0.9,0.183,-0.138,99.99,4.0,,0.0,0.0,
2025-08-15T04:57:25.014Z,11,GR86-022-13,-0.9,0.167,-0.15,100.02,4.0,,0.0,0.0,
2025-08-15T04:57:25.058Z,11,GR86-022-13,-1.1,0.13,-0.155,99.98,4.0,6826.0,0.0,0.0,
2025-08-15T04:57:25.101Z,11,GR86-022-13,-1.5,0.168,-0.145,99.99,4.0,,0.0,0.0,174.92000000000002
2025-08-15T04:57:25.144Z,11,GR86-022-13,-2.1,0.138,-0.158,99.99,4.0,,0.0,0.0,
2025-08-15T04:57:25.188Z,11,GR86-022-13,-2.8000000000000003,0.149,-0.155,99.99,4.0,,0.0,0.0,
2025-08-15T04:57:25.231Z,11,GR86-022-13,-3.6,0.149,-0.168,100.0,4.0,,0.0,0.0,
2025-08-15T04:57:25.273Z,11,GR86-022-13,-4.7,0.174,-0.174,99.99,4.0,6881.0,0.0,0.0,
2025-08-15T04:57:25.317Z,11,GR86-022-13,-6.2,0.157,-0.208,99.98,4.0,,0.0,0.0,176.33
2025-08-15T04:57:25.359Z,11,GR86-022-13,-7.0,0.149,-0.23,100.0,4.0,,8.24,8.485,
2025-08-15T04:57:25.402Z,11,GR86-022-13,-7.300000000000001,0.128,-0.263,100.03,4.0,,7.46,7.675,
2025-08-15T04:57:25.445Z,11,GR86-022-13,-7.7,0.073,-0.277,100.01,4.0,,6.0600000000000005,6.575,
2025-08-15T04:57:25.488Z,11,GR86-022-13,-8.5,0.087,-0.33,100.01,4.0,6987.0,3.645,4.305,
2025-08-15T04:57:25.531Z,11,GR86-022-13,-9.7,0.102,-0.374,100.03,4.0,,0.0,0.0,177.67000000000002
2025-08-15T04:57:25.574Z,11,GR86-022-13,-11.1,0.142,-0.41,100.0,4.0,,7.645,8.36,
2025-08-15T04:57:25.618Z,11,GR86-022-13,-13.1,0.029,-0.434,100.0,4.0,,16.68,16.94,
2025-08-15T04:57:25.661Z,11,GR86-022-13,-13.2,-0.063,-0.465,100.0,4.0,,15.625,16.22,
2025-08-15T04:57:25.705Z,11,GR86-022-13,-12.6,-0.041,-0.482,99.98,4.0,7034.0,8.09,8.85,
2025-08-15T04:57:25.748Z,11,GR86-022-13,-10.6,0.136,-0.476,100.0,4.0,,0.0,2.305,178.89
2025-08-15T04:57:25.791Z,11,GR86-022-13,-9.2,0.173,-0.478,100.0,4.0,,0.0,0.0,
2025-08-15T04:57:25.834Z,11,GR86-022-13,-9.2,0.182,-0.448,100.02,4.0,,0.0,0.0,
2025-08-15T04:57:25.878Z,11,GR86-022-13,-14.0,0.102,-0.457,100.0,4.0,,0.0,0.0,
2025-08-15T04:57:25.921Z,11,GR86-022-13,-17.5,0.111,-0.45,99.99,4.0,7037.0,0.0,0.0,
2025-08-15T04:57:25.964Z,11,GR86-022-13,-18.1,0.095,-0.494,100.03,4.0,,0.0,0.0,179.93
2025-08-15T04:57:26.008Z,11,GR86-022-13,-15.2,0.114,-0.525,100.01,4.0,,2.67,3.035,
2025-08-15T04:57:26.050Z,11,GR86-022-13,-10.3,0.073,-0.526,99.99,4.0,,9.69,9.935,
2025-08-15T04:57:26.093Z,11,GR86-022-13,-5.1000000000000005,-0.046,-0.513,82.87,4.0,,22.065,22.22,
2025-08-15T04:57:26.137Z,11,GR86-022-13,-0.9,-0.446,-0.43,3.75,4.0,7099.0,51.425,51.120000000000005,
2025-08-15T04:57:26.181Z,11,GR86-022-13,-0.1,-0.776,-0.393,2.72,4.0,,67.525,67.08500000000001,180.24
2025-08-15T04:57:26.224Z,11,GR86-022-13,1.0,-1.341,-0.292,2.69,4.0,,81.245,80.525,
2025-08-15T04:57:26.268Z,11,GR86-022-13,1.0,-1.319,-0.2,2.63,4.0,,90.415,90.675,
2025-08-15T04:57:26.311Z,11,GR86-022-13,0.8,-1.476,-0.27,2.6,4.0,,96.045,97.74,
2025-08-15T04:57:26.353Z,11,GR86-022-13,0.2,-1.552,-0.195,2.57,4.0,7142.0,98.46,99.65,
2025-08-15T04:57:26.399Z,11,GR86-022-13,-0.2,-1.538,-0.233,2.54,4.0,,102.335,104.15,181.23
2025-08-15T04:57:26.441Z,11,GR86-022-13,-0.3,-1.363,-0.283,2.54,4.0,,102.515,103.095,
2025-08-15T04:57:26.484Z,11,GR86-022-13,-0.4,-1.387,-0.25,2.54,4.0,,102.21,102.87,
2025-08-15T04:57:26.528Z,11,GR86-022-13,-0.4,-1.296,-0.285,34.32,3.0,,105.37,106.055,
2025-08-15T04:57:26.570Z,11,GR86-022-13,0.7000000000000001,-1.36,-0.294,48.96,3.0,6477.0,105.86,106.025,
2025-08-15T04:57:26.613Z,11,GR86-022-13,2.6,-1.338,-0.176,6.49,3.0,,103.935,105.185,178.06
2025-08-15T04:57:26.657Z,11,GR86-022-13,4.0,-1.435,-0.255,3.87,3.0,,103.72,104.365,
2025-08-15T04:57:26.699Z,11,GR86-022-13,4.2,-1.355,-0.191,3.53,3.0,,104.835,106.21,
2025-08-15T04:57:26.742Z,11,GR86-022-13,4.4,-1.245,-0.164,3.31,3.0,,104.18,106.055,
2025-08-15T04:57:26.828Z,11,GR86-022-13,5.1000000000000005,-1.189,-0.329,3.15,3.0,6138.0,101.205,102.105,169.68
2025-08-15T04:57:26.871Z,11,GR86-022-13,4.6000000000000005,-1.235,-0.111,2.97,3.0,,103.28,103.965,
2025-08-15T04:57:26.914Z,11,GR86-022-13,0.2,-1.281,-0.252,2.89,3.0,,102.135,104.025,
2025-08-15T04:57:26.958Z,11,GR86-022-13,-6.7,-1.298,-0.235,2.75,3.0,,101.145,101.525,
2025-08-15T04:57:27.001Z,11,GR86-022-13,-9.0,-1.087,-0.273,2.67,3.0,6191.0,101.74,103.37,
2025-08-15T04:57:27.044Z,11,GR86-022-13,-13.1,-1.278,-0.406,2.64,3.0,,100.12,100.96,156.79
2025-08-15T04:57:27.088Z,11,GR86-022-13,-16.900000000000002,-1.206,-0.399,2.58,3.0,,100.365,100.84,
2025-08-15T04:57:27.131Z,11,GR86-022-13,-19.1,-1.234,-0.34,2.54,3.0,,104.5,105.765,
2025-08-15T04:57:27.175Z,11,GR86-022-13,-21.200000000000003,-1.253,-0.484,2.53,3.0,,104.96,105.905,
2025-08-15T04:57:27.218Z,11,GR86-022-13,-21.6,-1.197,-0.557,11.92,3.0,6315.0,101.89,101.77,
2025-08-15T04:57:27.261Z,11,GR86-022-13,-20.9,-1.199,-0.445,57.03,2.0,,103.905,104.47,145.25
2025-08-15T04:57:27.304Z,11,GR86-022-13,-21.6,-1.201,-0.486,18.72,2.0,,106.09,107.46,
2025-08-15T04:57:27.348Z,11,GR86-022-13,-23.200000000000003,-1.244,-0.524,4.28,2.0,,104.99,106.3,
2025-08-15T04:57:27.391Z,11,GR86-022-13,-23.0,-1.336,-0.58,3.7,2.0,,103.31,104.12,
2025-08-15T04:57:27.434Z,11,GR86-022-13,-20.5,-1.212,-0.602,3.41,2.0,5983.0,97.91,98.275,
2025-08-15T04:57:27.479Z,11,GR86-022-13,-19.9,-1.1,-0.596,3.17,2.0,,93.33,94.675,131.79
2025-08-15T04:57:27.521Z,11,GR86-022-13,-20.0,-0.901,-1.012,3.06,2.0,,78.42,79.33500000000001,
2025-08-15T04:57:27.564Z,11,GR86-022-13,-19.5,-1.064,-0.72,2.96,2.0,,70.515,71.4,
2025-08-15T04:57:27.608Z,11,GR86-022-13,-20.0,-0.809,-0.8130000000000001,2.88,2.0,,64.395,65.495,
2025-08-15T04:57:27.650Z,11,GR86-022-13,-20.200000000000003,-0.775,-1.099,2.8000000000000003,2.0,5863.0,54.525,55.455,
2025-08-15T04:57:27.693Z,11,GR86-022-13,-22.200000000000003,-0.625,-0.984,2.71,2.0,,46.8,47.61,123.81
2025-08-15T04:57:27.737Z,11,GR86-022-13,-27.8,-0.68,-0.95,2.63,2.0,,43.795,44.59,
2025-08-15T04:57:27.779Z,11,GR86-022-13,-30.8,-0.661,-1.167,2.59,2.0,,36.67,37.74,
2025-08-15T04:57:27.822Z,11,GR86-022-13,-32.5,-0.581,-1.14,2.56,2.0,,30.015,30.61,
2025-08-15T04:57:27.865Z,11,GR86-022-13,-32.7,-0.677,-1.034,2.53,2.0,6400.0,28.185,28.84,
2025-08-15T04:57:27.908Z,11,GR86-022-13,-32.800000000000004,-0.584,-1.088,2.51,2.0,,29.27,29.985,118.71
2025-08-15T04:57:27.951Z,11,GR86-022-13,-29.6,-0.601,-1.146,2.5,2.0,,26.66,27.285,
2025-08-15T04:57:27.994Z,11,GR86-022-13,-22.700000000000003,-0.589,-1.236,2.5,2.0,,22.02,22.43,
2025-08-15T04:57:28.038Z,11,GR86-022-13,-23.9,-0.457,-1.058,2.51,2.0,,15.87,16.375,
2025-08-15T04:57:28.081Z,11,GR86-022-13,-32.2,-0.401,-1.155,2.5,2.0,6131.0,13.855,14.635,
2025-08-15T04:57:28.124Z,11,GR86-022-13,-39.7,-0.492,-1.205,2.5,2.0,,13.61,14.205,114.75
2025-08-15T04:57:28.168Z,11,GR86-022-13,-42.3,-0.417,-1.217,2.5,2.0,,14.085,14.45,
2025-08-15T04:57:28.211Z,11,GR86-022-13,-41.900000000000006,-0.368,-1.228,2.5,2.0,,14.085,14.68,
2025-08-15T04:57:28.253Z,11,GR86-022-13,-41.3,-0.393,-1.254,2.49,2.0,,13.2,13.885,
2025-08-15T04:57:28.297Z,11,GR86-022-13,-40.5,-0.409,-1.245,2.5,2.0,5950.0,9.845,10.375,
2025-08-15T04:57:28.341Z,11,GR86-022-13,-38.7,-0.321,-1.279,2.5,2.0,,2.67,3.19,110.59
2025-08-15T04:57:28.384Z,11,GR86-022-13,-34.9,-0.19,-1.254,2.49,2.0,,0.0,0.0,
2025-08-15T04:57:28.428Z,11,GR86-022-13,-32.7,-0.173,-1.297,2.5,2.0,,0.0,0.0,
2025-08-15T04:57:28.471Z,11,GR86-022-13,-32.7,-0.145,-1.291,2.5,2.0,,0.0,0.0,
2025-08-15T04:57:28.515Z,11,GR86-022-13,-33.1,-0.118,-1.292,4.7700000000000005,2.0,5777.0,0.0,0.0,
2025-08-15T04:57:28.558Z,11,GR86-022-13,-35.9,-0.159,-1.326,25.82,2.0,,0.0,0.0,107.51
2025-08-15T04:57:28.601Z,11,GR86-022-13,-37.3,-0.131,-1.338,29.66,2.0,,0.0,0.0,
2025-08-15T04:57:28.644Z,11,GR86-022-13,-37.4,-0.083,-1.373,40.25,2.0,,0.0,0.0,
2025-08-15T04:57:28.688Z,11,GR86-022-13,-36.8,-0.084,-1.379,53.63,2.0,,0.0,0.0,
2025-08-15T04:57:28.730Z,11,GR86-022-13,-36.7,-0.07,-1.303,67.98,2.0,5742.0,0.0,0.0,
2025-08-15T04:57:28.773Z,11,GR86-022-13,-36.5,0.114,-1.316,78.51,2.0,,0.0,0.0,105.35
2025-08-15T04:57:28.817Z,11,GR86-022-13,-36.9,0.336,-1.271,98.27,2.0,,0.0,0.0,
2025-08-15T04:57:28.860Z,11,GR86-022-13,-39.900000000000006,0.379,-1.234,100.13,2.0,,0.0,0.0,
2025-08-15T04:57:28.903Z,11,GR86-022-13,-44.6,0.337,-1.227,100.09,2.0,,0.0,0.0,
2025-08-15T04:57:28.948Z,11,GR86-022-13,-49.1,0.311,-1.224,100.1,2.0,5752.0,0.0,0.0,
2025-08-15T04:57:28.991Z,11,GR86-022-13,-52.0,0.249,-1.165,100.08,2.0,,0.0,0.0,103.67
2025-08-15T04:57:29.034Z,11,GR86-022-13,-52.0,0.24,-1.224,100.1,2.0,,0.0,0.0,
2025-08-15T04:57:29.078Z,11,GR86-022-13,-51.5,0.254,-1.218,100.09,2.0,,0.0,0.0,
2025-08-15T04:57:29.121Z,11,GR86-022-13,-51.5,0.288,-1.138,100.08,2.0,,0.0,0.0,
2025-08-15T04:57:29.164Z,11,GR86-022-13,-51.5,0.305,-1.23,100.09,2.0,6174.0,0.0,0.0,
2025-08-15T04:57:29.208Z,11,GR86-022-13,-51.6,0.25,-1.038,100.1,2.0,,0.0,0.0,102.59
2025-08-15T04:57:29.250Z,11,GR86-022-13,-50.400000000000006,0.186,-1.067,100.09,2.0,,0.0,0.0,
2025-08-15T04:57:29.293Z,11,GR86-022-13,-48.1,0.216,-1.113,100.08,2.0,,0.0,0.0,
2025-08-15T04:57:29.337Z,11,GR86-022-13,-45.5,0.127,-0.964,100.1,2.0,,0.0,0.0,
2025-08-15T04:57:29.381Z,11,GR86-022-13,-43.5,0.047,-0.961,100.09,2.0,6136.0,0.0,0.0,
2025-08-15T04:57:29.424Z,11,GR86-022-13,-40.1,0.114,-1.021,100.07,2.0,,0.0,0.0,103.03
2025-08-15T04:57:29.468Z,11,GR86-022-13,-38.2,0.327,-1.06,100.07,2.0,,0.0,0.0,
2025-08-15T04:57:29.511Z,11,GR86-022-13,-38.2,0.496,-1.243,100.08,2.0,,0.0,0.0,
2025-08-15T04:57:29.553Z,11,GR86-022-13,-38.7,0.5760000000000001,-1.266,100.08,2.0,,0.0,0.0,
2025-08-15T04:57:29.641Z,11,GR86-022-13,-35.800000000000004,0.409,-1.183,100.06,2.0,6208.0,0.0,0.0,104.37
2025-08-15T04:57:29.684Z,11,GR86-022-13,-30.3,0.348,-1.015,100.09,2.0,,0.0,0.0,
2025-08-15T04:57:29.728Z,11,GR86-022-13,-27.700000000000003,0.404,-1.2,100.06,2.0,,0.0,0.0,
2025-08-15T04:57:29.770Z,11,GR86-022-13,-28.8,0.342,-1.08,100.06,2.0,,0.0,0.0,
2025-08-15T04:57:29.813Z,11,GR86-022-13,-34.9,0.269,-1.036,100.09,2.0,6336.0,0.0,0.0,
2025-08-15T04:57:29.857Z,11,GR86-022-13,-45.0,0.584,-1.049,100.06,2.0,,0.0,0.0,105.69
2025-08-15T04:57:29.899Z,11,GR86-022-13,-49.2,0.399,-1.117,100.08,2.0,,0.0,0.0,
2025-08-15T04:57:29.944Z,11,GR86-022-13,-51.5,0.212,-1.414,100.06,2.0,,0.0,0.0,
2025-08-15T04:57:29.987Z,11,GR86-022-13,-52.7,0.342,-1.25,100.06,2.0,,0.0,0.0,
2025-08-15T04:57:30.029Z,11,GR86-022-13,-52.7,0.235,-1.225,100.05,2.0,6352.0,0.0,0.0,
2025-08-15T04:57:30.072Z,11,GR86-022-13,-52.8,0.185,-1.021,100.05,2.0,,0.0,0.0,107.29
2025-08-15T04:57:30.115Z,11,GR86-022-13,-53.0,0.216,-1.134,100.06,2.0,,0.0,0.0,
2025-08-15T04:57:30.158Z,11,GR86-022-13,-54.2,0.351,-1.075,100.04,2.0,,0.0,0.0,
2025-08-15T04:57:30.201Z,11,GR86-022-13,-55.2,0.312,-1.094,100.04,2.0,,0.0,0.0,
2025-08-15T04:57:30.244Z,11,GR86-022-13,-54.6,0.225,-1.09,100.05,2.0,6461.0,0.0,0.0,
2025-08-15T04:57:30.288Z,11,GR86-022-13,-49.400000000000006,0.23,-1.161,100.03,2.0,,0.0,0.0,109.6
2025-08-15T04:57:30.330Z,11,GR86-022-13,-42.0,0.232,-1.184,100.03,2.0,,0.0,0.0,
2025-08-15T04:57:30.373Z,11,GR86-022-13,-34.2,0.269,-1.228,100.04,2.0,,0.0,0.0,
2025-08-15T04:57:30.417Z,11,GR86-022-13,-29.6,0.29,-1.2,100.03,2.0,,0.0,0.0,
2025-08-15T04:57:30.459Z,11,GR86-022-13,-29.4,0.284,-1.207,100.03,2.0,6524.0,0.0,0.0,
2025-08-15T04:57:30.502Z,11,GR86-022-13,-29.4,0.293,-1.115,100.04,2.0,,0.0,0.0,110.99
2025-08-15T04:57:30.545Z,11,GR86-022-13,-28.3,0.297,-1.08,100.02,2.0,,0.0,0.0,
2025-08-15T04:57:30.588Z,11,GR86-022-13,-24.4,0.264,-1.082,100.03,2.0,,0.0,0.0,
2025-08-15T04:57:30.631Z,11,GR86-022-13,-23.8,0.277,-0.965,100.03,2.0,,0.0,0.0,
2025-08-15T04:57:30.674Z,11,GR86-022-13,-26.200000000000003,0.293,-0.979,100.02,2.0,6553.0,0.0,0.0,
2025-08-15T04:57:30.718Z,11,GR86-022-13,-38.2,0.302,-0.943,100.03,2.0,,0.0,0.0,112.86
2025-08-15T04:57:30.761Z,11,GR86-022-13,-43.5,0.282,-0.941,100.02,2.0,,0.0,0.0,
2025-08-15T04:57:30.848Z,11,GR86-022-13,-45.6,0.275,-0.953,100.02,2.0,,0.0,0.0,
2025-08-15T04:57:30.890Z,11,GR86-022-13,-46.2,0.253,-0.928,100.01,2.0,6707.0,0.0,0.0,
2025-08-15T04:57:30.933Z,11,GR86-022-13,-46.2,0.259,-0.915,100.01,2.0,,0.0,0.0,113.36
2025-08-15T04:57:30.979Z,11,GR86-022-13,-46.2,0.249,-0.958,100.01,2.0,,0.0,0.0,
2025-08-15T04:57:31.021Z,11,GR86-022-13,-45.7,0.231,-0.959,100.0,2.0,,0.0,0.0,
2025-08-15T04:57:31.064Z,11,GR86-022-13,-43.3,0.245,-0.985,100.0,2.0,,0.0,0.0,
2025-08-15T04:57:31.108Z,11,GR86-022-13,-40.400000000000006,0.261,-1.014,100.0,2.0,6748.0,0.0,0.0,
2025-08-15T04:57:31.150Z,11,GR86-022-13,-36.2,0.245,-1.005,100.03,2.0,,0.0,0.0,114.77
2025-08-15T04:57:31.193Z,11,GR86-022-13,-32.4,0.258,-1.031,100.01,2.0,,0.0,0.0,
2025-08-15T04:57:31.237Z,11,GR86-022-13,-32.7,0.261,-1.055,100.0,2.0,,0.0,0.0,
2025-08-15T04:57:31.279Z,11,GR86-022-13,-34.300000000000004,0.269,-1.074,100.0,2.0,,0.0,0.0,
2025-08-15T04:57:31.322Z,11,GR86-022-13,-35.6,0.263,-1.066,99.98,2.0,6892.0,0.0,0.0,
2025-08-15T04:57:31.367Z,11,GR86-022-13,-38.400000000000006,0.243,-1.088,99.99,2.0,,0.0,0.0,116.4
2025-08-15T04:57:31.409Z,11,GR86-022-13,-41.8,0.266,-1.09,99.99,2.0,,0.0,0.0,
2025-08-15T04:57:31.452Z,11,GR86-022-13,-46.7,0.273,-1.082,99.97,2.0,,0.0,0.0,
2025-08-15T04:57:31.495Z,11,GR86-022-13,-49.0,0.246,-1.112,100.01,2.0,,0.0,0.0,
2025-08-15T04:57:31.538Z,11,GR86-022-13,-44.7,0.192,-1.146,99.99,2.0,6973.0,0.0,0.0,
2025-08-15T04:57:31.581Z,11,GR86-022-13,-39.6,0.188,-1.143,99.99,2.0,,0.0,0.0,118.87
2025-08-15T04:57:31.624Z,11,GR86-022-13,-30.6,0.155,-1.14,100.0,2.0,,0.0,0.0,
2025-08-15T04:57:31.668Z,11,GR86-022-13,-24.9,0.146,-0.789,99.98,2.0,,0.0,0.0,
2025-08-15T04:57:31.711Z,11,GR86-022-13,-21.5,0.174,-0.684,100.04,2.0,,0.0,0.0,
2025-08-15T04:57:31.753Z,11,GR86-022-13,-20.8,0.183,-0.659,100.0,2.0,7049.0,0.0,0.0,
2025-08-15T04:57:31.799Z,11,GR86-022-13,-19.200000000000003,0.31,-0.743,100.04,2.0,,0.0,0.0,119.27
2025-08-15T04:57:31.841Z,11,GR86-022-13,-15.7,0.322,-0.805,99.99,2.0,,0.0,0.0,
2025-08-15T04:57:31.884Z,11,GR86-022-13,-12.9,0.321,-0.908,99.97,2.0,,0.0,0.0,
2025-08-15T04:57:31.928Z,11,GR86-022-13,-11.7,0.329,-0.838,100.0,2.0,,0.0,0.0,
2025-08-15T04:57:31.970Z,11,GR86-022-13,-13.4,0.293,-0.812,100.0,2.0,7131.0,0.0,0.0,
2025-08-15T04:57:32.013Z,11,GR86-022-13,-15.9,0.272,-0.883,100.03,2.0,,0.0,0.0,121.89
2025-08-15T04:57:32.057Z,11,GR86-022-13,-21.5,0.304,-0.759,100.01,2.0,,0.0,0.0,
2025-08-15T04:57:32.099Z,11,GR86-022-13,-22.9,0.165,-0.711,99.99,2.0,,0.0,0.0,
2025-08-15T04:57:32.142Z,11,GR86-022-13,-23.0,-0.108,-0.664,99.97,3.0,,0.0,0.0,
2025-08-15T04:57:32.185Z,11,GR86-022-13,-23.0,0.614,-0.469,99.97,3.0,7267.0,0.0,0.0,
2025-08-15T04:57:32.228Z,11,GR86-022-13,-23.0,0.551,-0.629,99.97,3.0,,0.0,0.0,122.11
2025-08-15T04:57:32.271Z,11,GR86-022-13,-23.0,0.301,-0.428,99.97,3.0,,0.0,0.0,
2025-08-15T04:57:32.314Z,11,GR86-022-13,-23.0,0.182,-0.445,99.98,3.0,,0.0,0.0,
2025-08-15T04:57:32.358Z,11,GR86-022-13,-17.900000000000002,0.227,-0.682,99.97,3.0,,0.0,0.0,
2025-08-15T04:57:32.401Z,11,GR86-022-13,-11.5,0.267,-0.636,99.98,3.0,7240.0,0.0,0.0,
2025-08-15T04:57:32.444Z,11,GR86-022-13,-6.7,0.351,-0.429,99.98,3.0,,0.0,0.0,123.88
2025-08-15T04:57:32.488Z,11,GR86-022-13,-6.1000000000000005,0.219,-0.578,99.98,3.0,,0.0,0.0,
2025-08-15T04:57:32.531Z,11,GR86-022-13,-7.2,0.078,-0.292,100.0,3.0,,0.0,0.0,
2025-08-15T04:57:32.575Z,11,GR86-022-13,-7.800000000000001,0.031,-0.247,99.97,3.0,,0.0,0.0,
2025-08-15T04:57:32.618Z,11,GR86-022-13,-6.7,0.371,-0.369,99.97,3.0,5833.0,0.0,0.0,
2025-08-15T04:57:32.661Z,11,GR86-022-13,-5.800000000000001,0.231,-0.281,99.97,3.0,,0.0,0.0,125.36
2025-08-15T04:57:32.704Z,11,GR86-022-13,-5.2,0.131,-0.122,100.0,3.0,,0.0,0.0,
2025-08-15T04:57:32.748Z,11,GR86-022-13,-3.7,0.07,-0.1,100.03,3.0,,0.0,0.0,
2025-08-15T04:57:32.791Z,11,GR86-022-13,0.5,0.187,-0.117,100.0,3.0,,0.0,0.0,
2025-08-15T04:57:32.834Z,11,GR86-022-13,4.800000000000001,0.266,-0.047,100.0,3.0,5987.0,0.0,0.0,
2025-08-15T04:57:32.878Z,11,GR86-022-13,5.9,0.206,-0.157,100.0,3.0,,0.0,0.0,128.57
2025-08-15T04:57:32.921Z,11,GR86-022-13,5.4,0.159,0.083,100.01,3.0,,0.0,0.0,
2025-08-15T04:57:32.964Z,11,GR86-022-13,5.4,0.362,0.013,99.99,3.0,,0.0,0.0,
2025-08-15T04:57:33.008Z,11,GR86-022-13,5.300000000000001,0.358,-0.014,99.97,3.0,,0.0,0.0,
2025-08-15T04:57:33.050Z,11,GR86-022-13,4.6000000000000005,0.319,0.078,99.97,3.0,6016.0,0.0,0.0,
2025-08-15T04:57:33.093Z,11,GR86-022-13,4.4,0.099,0.104,100.01,3.0,,0.0,0.0,130.02
2025-08-15T04:57:33.137Z,11,GR86-022-13,4.9,0.206,0.16,100.0,3.0,,0.0,0.0,
2025-08-15T04:57:33.179Z,11,GR86-022-13,4.9,0.285,0.188,99.99,3.0,,0.0,0.0,
2025-08-15T04:57:33.222Z,11,GR86-022-13,4.4,0.275,0.217,100.0,3.0,,0.0,0.0,
2025-08-15T04:57:33.265Z,11,GR86-022-13,2.3000000000000003,0.248,0.128,99.97,3.0,6069.0,0.0,0.0,
2025-08-15T04:57:33.308Z,11,GR86-022-13,1.5,0.21,0.116,100.0,3.0,,0.0,0.0,131.66
2025-08-15T04:57:33.351Z,11,GR86-022-13,1.5,0.184,0.14,100.02,3.0,,0.0,0.0,
2025-08-15T04:57:33.394Z,11,GR86-022-13,2.3000000000000003,0.235,0.066,99.99,3.0,,0.0,0.0,
2025-08-15T04:57:33.438Z,11,GR86-022-13,2.3000000000000003,0.236,0.081,100.02,3.0,,0.0,0.0,
2025-08-15T04:57:33.481Z,11,GR86-022-13,2.3000000000000003,0.289,-0.006,100.0,3.0,6222.0,0.0,0.0,
2025-08-15T04:57:33.524Z,11,GR86-022-13,2.3000000000000003,0.238,0.011,100.0,3.0,,0.0,0.0,132.98
2025-08-15T04:57:33.568Z,11,GR86-022-13,2.4000000000000004,0.203,0.042,99.99,3.0,,0.0,0.0,
2025-08-15T04:57:33.611Z,11,GR86-022-13,2.9000000000000004,0.225,0.044,100.0,3.0,,0.0,0.0,
2025-08-15T04:57:33.654Z,11,GR86-022-13,3.1,0.274,0.015,99.99,3.0,,0.0,0.0,
2025-08-15T04:57:33.697Z,11,GR86-022-13,3.3000000000000003,0.254,0.021,100.0,3.0,6310.0,0.0,0.0,
2025-08-15T04:57:33.741Z,11,GR86-022-13,3.3000000000000003,0.248,-0.007,100.0,3.0,,0.0,0.0,134.54
2025-08-15T04:57:33.784Z,11,GR86-022-13,3.3000000000000003,0.223,0.01,100.0,3.0,,0.0,0.0,
2025-08-15T04:57:33.828Z,11,GR86-022-13,3.1,0.203,0.029,100.0,3.0,,0.0,0.0,
2025-08-15T04:57:33.871Z,11,GR86-022-13,2.8000000000000003,0.261,0.011,100.01,3.0,,0.0,0.0,
2025-08-15T04:57:33.914Z,11,GR86-022-13,2.3000000000000003,0.261,-0.009,100.0,3.0,6373.0,0.0,0.0,
2025-08-15T04:57:33.958Z,11,GR86-022-13,1.3,0.267,-0.006,100.03,3.0,,0.0,0.0,135.87
2025-08-15T04:57:34.000Z,11,GR86-022-13,0.9,0.227,-0.032,99.99,3.0,,0.0,0.0,
2025-08-15T04:57:34.043Z,11,GR86-022-13,0.6000000000000001,0.205,-0.019,100.0,3.0,,0.0,0.0,
2025-08-15T04:57:34.087Z,11,GR86-022-13,0.6000000000000001,0.22,-0.026,100.0,3.0,,0.0,0.0,
2025-08-15T04:57:34.129Z,11,GR86-022-13,0.5,0.262,-0.057,100.01,3.0,6438.0,0.0,0.0,
2025-08-15T04:57:34.172Z,11,GR86-022-13,0.5,0.251,-0.097,99.97,3.0,,0.0,0.0,137.38
2025-08-15T04:57:34.215Z,11,GR86-022-13,0.5,0.216,-0.074,100.01,3.0,,0.0,0.0,
2025-08-15T04:57:34.258Z,11,GR86-022-13,0.5,0.242,-0.085,100.0,3.0,,0.0,0.0,
2025-08-15T04:57:34.301Z,11,GR86-022-13,0.5,0.192,-0.069,100.01,3.0,,0.0,0.0,
2025-08-15T04:57:34.344Z,11,GR86-022-13,0.5,0.223,-0.057,100.02,3.0,6511.0,0.0,0.0,
2025-08-15T04:57:34.388Z,11,GR86-022-13,0.3,0.25,-0.081,100.01,3.0,,0.0,0.0,138.85
2025-08-15T04:57:34.430Z,11,GR86-022-13,0.2,0.247,-0.087,100.0,3.0,,0.0,0.0,
2025-08-15T04:57:34.473Z,11,GR86-022-13,0.2,0.227,-0.096,99.99,3.0,,0.0,0.0,
2025-08-15T04:57:34.517Z,11,GR86-022-13,0.2,0.226,-0.106,100.0,3.0,,0.0,0.0,
2025-08-15T04:57:34.559Z,11,GR86-022-13,0.2,0.232,-0.074,99.99,3.0,6568.0,0.0,0.0,
2025-08-15T04:57:34.602Z,11,GR86-022-13,0.2,0.206,-0.068,100.0,3.0,,0.0,0.0,140.24
2025-08-15T04:57:34.648Z,11,GR86-022-13,0.2,0.256,-0.076,99.98,3.0,,0.0,0.0,
2025-08-15T04:57:34.691Z,11,GR86-022-13,0.3,0.236,-0.096,100.02,3.0,,0.0,0.0,
2025-08-15T04:57:34.734Z,11,GR86-022-13,0.6000000000000001,0.241,-0.114,99.97,3.0,,0.0,0.0,
2025-08-15T04:57:34.778Z,11,GR86-022-13,1.0,0.239,-0.096,100.01,3.0,6635.0,0.0,0.0,
2025-08-15T04:57:34.821Z,11,GR86-022-13,1.3,0.208,-0.099,100.01,3.0,,0.0,0.0,141.63
2025-08-15T04:57:34.864Z,11,GR86-022-13,1.5,0.219,-0.066,100.0,3.0,,0.0,0.0,
2025-08-15T04:57:34.908Z,11,GR86-022-13,1.7000000000000002,0.217,-0.028,100.02,3.0,,0.0,0.0,
2025-08-15T04:57:34.950Z,11,GR86-022-13,1.8,0.253,-0.057,100.02,3.0,,0.0,0.0,
2025-08-15T04:57:34.993Z,11,GR86-022-13,1.8,0.218,-0.066,99.98,3.0,6699.0,0.0,0.0,
2025-08-15T04:57:35.037Z,11,GR86-022-13,1.8,0.237,-0.035,100.03,3.0,,0.0,0.0,143.06
2025-08-15T04:57:35.081Z,11,GR86-022-13,1.8,0.239,-0.05,100.0,3.0,,0.0,0.0,
2025-08-15T04:57:35.124Z,11,GR86-022-13,1.9,0.226,-0.031,100.0,3.0,,0.0,0.0,
2025-08-15T04:57:35.168Z,11,GR86-022-13,1.9,0.204,-0.026,100.0,3.0,,0.0,0.0,
2025-08-15T04:57:35.210Z,11,GR86-022-13,1.8,0.227,0.0,99.99,3.0,6769.0,0.0,0.0,
2025-08-15T04:57:35.253Z,11,GR86-022-13,1.9,0.248,-0.018,99.97,3.0,,0.0,0.0,144.49
2025-08-15T04:57:35.297Z,11,GR86-022-13,2.1,0.22,0.007,99.99,3.0,,0.0,0.0,
2025-08-15T04:57:35.341Z,11,GR86-022-13,2.9000000000000004,0.248,-0.013,99.97,3.0,,0.0,0.0,
2025-08-15T04:57:35.384Z,11,GR86-022-13,3.4000000000000004,0.238,-0.02,99.99,3.0,,0.0,0.0,
2025-08-15T04:57:35.428Z,11,GR86-022-13,3.5,0.228,-0.03,100.0,3.0,6838.0,0.0,0.0,
2025-08-15T04:57:35.470Z,11,GR86-022-13,3.4000000000000004,0.22,-0.002,99.99,3.0,,0.0,0.0,145.84
2025-08-15T04:57:35.513Z,11,GR86-022-13,2.7,0.219,0.031,99.99,3.0,,0.0,0.0,
2025-08-15T04:57:35.557Z,11,GR86-022-13,1.3,0.212,-0.023,99.97,3.0,,0.0,0.0,
2025-08-15T04:57:35.599Z,11,GR86-022-13,0.9,0.211,-0.007,99.99,3.0,,0.0,0.0,
2025-08-15T04:57:35.643Z,11,GR86-022-13,0.9,0.225,-0.014,100.01,3.0,6889.0,0.0,0.0,
2025-08-15T04:57:35.687Z,11,GR86-022-13,0.9,0.242,-0.036,100.0,3.0,,0.0,0.0,148.53
2025-08-15T04:57:35.729Z,11,GR86-022-13,0.9,0.24,-0.056,99.99,3.0,,0.0,0.0,
2025-08-15T04:57:35.772Z,11,GR86-022-13,0.9,0.218,-0.086,100.02,3.0,,0.0,0.0,
2025-08-15T04:57:35.815Z,11,GR86-022-13,0.9,0.203,-0.073,100.02,3.0,,0.0,0.0,
2025-08-15T04:57:35.858Z,11,GR86-022-13,0.9,0.22,-0.084,99.98,3.0,6961.0,0.0,0.0,
2025-08-15T04:57:35.901Z,11,GR86-022-13,0.9,0.22,-0.086,100.01,3.0,,0.0,0.0,149.88
2025-08-15T04:57:35.944Z,11,GR86-022-13,0.9,0.183,-0.068,99.99,3.0,,0.0,0.0,
2025-08-15T04:57:35.988Z,11,GR86-022-13,1.0,0.222,-0.058,100.03,3.0,,0.0,0.0,
2025-08-15T04:57:36.030Z,11,GR86-022-13,1.4,0.228,-0.049,100.0,3.0,,0.0,0.0,
2025-08-15T04:57:36.073Z,11,GR86-022-13,1.7000000000000002,0.249,-0.065,100.0,3.0,7015.0,0.0,0.0,
2025-08-15T04:57:36.117Z,11,GR86-022-13,1.7000000000000002,0.222,-0.028,100.01,3.0,,0.0,0.0,151.21
2025-08-15T04:57:36.160Z,11,GR86-022-13,1.7000000000000002,0.231,-0.026,100.01,3.0,,0.0,0.0,
2025-08-15T04:57:36.204Z,11,GR86-022-13,1.7000000000000002,0.241,-0.06,100.01,3.0,,0.0,0.0,
2025-08-15T04:57:36.247Z,11,GR86-022-13,1.3,0.217,-0.066,99.99,3.0,,0.0,0.0,
2025-08-15T04:57:36.290Z,11,GR86-022-13,1.3,0.197,-0.075,100.01,3.0,7138.0,0.0,0.0,
2025-08-15T04:57:36.333Z,11,GR86-022-13,1.3,0.184,-0.047,100.01,3.0,,0.0,0.0,152.51
2025-08-15T04:57:36.379Z,11,GR86-022-13,1.3,0.21,-0.06,100.0,3.0,,0.0,0.0,
2025-08-15T04:57:36.421Z,11,GR86-022-13,1.3,0.178,-0.066,100.0,3.0,,0.0,0.0,
2025-08-15T04:57:36.464Z,11,GR86-022-13,1.3,0.188,-0.052,99.97,3.0,,0.0,0.0,
2025-08-15T04:57:36.508Z,11,GR86-022-13,1.3,0.199,-0.051,100.0,3.0,7201.0,0.0,0.0,
2025-08-15T04:57:36.550Z,11,GR86-022-13,1.3,0.211,-0.059,99.97,3.0,,0.0,0.0,153.8
2025-08-15T04:57:36.593Z,11,GR86-022-13,1.3,0.187,-0.079,99.98,3.0,,0.0,0.0,
2025-08-15T04:57:36.637Z,11,GR86-022-13,1.3,0.153,-0.032,99.99,4.0,,0.0,0.0,
2025-08-15T04:57:36.681Z,11,GR86-022-13,1.6,0.514,-0.074,100.0,4.0,,0.0,0.0,
2025-08-15T04:57:36.724Z,11,GR86-022-13,1.6,0.252,-0.128,100.0,4.0,7256.0,0.0,0.0,
2025-08-15T04:57:36.768Z,11,GR86-022-13,1.3,0.113,-0.033,99.99,4.0,,0.0,0.0,155.11
2025-08-15T04:57:36.810Z,11,GR86-022-13,1.3,0.093,-0.087,99.97,4.0,,0.0,0.0,
2025-08-15T04:57:36.853Z,11,GR86-022-13,1.3,0.253,-0.13,99.99,4.0,,0.0,0.0,
2025-08-15T04:57:36.899Z,11,GR86-022-13,1.9,0.224,-0.033,100.0,4.0,,0.0,0.0,
2025-08-15T04:57:36.941Z,11,GR86-022-13,2.8000000000000003,0.163,-0.128,100.0,4.0,6518.0,0.0,0.0,
2025-08-15T04:57:36.984Z,11,GR86-022-13,3.6,0.17,-0.079,99.99,4.0,,0.0,0.0,156.35
2025-08-15T04:57:37.028Z,11,GR86-022-13,4.0,0.184,-0.024,99.99,4.0,,0.0,0.0,
2025-08-15T04:57:37.070Z,11,GR86-022-13,4.3,0.152,-0.061,100.0,4.0,,0.0,0.0,
2025-08-15T04:57:37.113Z,11,GR86-022-13,4.3,0.146,0.011,100.01,4.0,,0.0,0.0,
2025-08-15T04:57:37.157Z,11,GR86-022-13,3.8,0.168,-0.013,99.97,4.0,6210.0,0.0,0.0,
2025-08-15T04:57:37.199Z,11,GR86-022-13,3.4000000000000004,0.153,0.004,100.0,4.0,,0.0,0.0,157.54
2025-08-15T04:57:37.242Z,11,GR86-022-13,3.3000000000000003,0.158,0.026,100.03,4.0,,0.0,0.0,
2025-08-15T04:57:37.285Z,11,GR86-022-13,3.3000000000000003,0.176,0.017,99.96,4.0,,0.0,0.0,
2025-08-15T04:57:37.328Z,11,GR86-022-13,3.3000000000000003,0.197,0.023,100.02,4.0,,0.0,0.0,
2025-08-15T04:57:37.371Z,11,GR86-022-13,3.3000000000000003,0.214,0.006,100.0,4.0,6227.0,0.0,0.0,
2025-08-15T04:57:37.414Z,11,GR86-022-13,3.3000000000000003,0.207,-0.03,100.01,4.0,,0.0,0.0,158.70000000000002
2025-08-15T04:57:37.458Z,11,GR86-022-13,3.2,0.179,-0.009,99.99,4.0,,0.0,0.0,
2025-08-15T04:57:37.501Z,11,GR86-022-13,3.1,0.189,-0.002,100.02,4.0,,0.0,0.0,
2025-08-15T04:57:37.544Z,11,GR86-022-13,3.0,0.212,-0.015,100.01,4.0,,0.0,0.0,
2025-08-15T04:57:37.588Z,11,GR86-022-13,3.0,0.224,-0.034,100.02,4.0,6285.0,0.0,0.0,
2025-08-15T04:57:37.631Z,11,GR86-022-13,3.0,0.198,-0.016,100.01,4.0,,0.0,0.0,159.75
2025-08-15T04:57:37.675Z,11,GR86-022-13,3.0,0.177,-0.019,99.99,4.0,,0.0,0.0,
2025-08-15T04:57:37.718Z,11,GR86-022-13,3.0,0.209,-0.016,100.0,4.0,,0.0,0.0,
2025-08-15T04:57:37.761Z,11,GR86-022-13,3.0,0.212,-0.002,100.0,4.0,,0.0,0.0,
2025-08-15T04:57:37.804Z,11,GR86-022-13,3.0,0.203,-0.012,100.0,4.0,6317.0,0.0,0.0,
2025-08-15T04:57:37.848Z,11,GR86-022-13,2.7,0.179,0.003,100.04,4.0,,0.0,0.0,160.86
2025-08-15T04:57:37.891Z,11,GR86-022-13,2.4000000000000004,0.15,0.016,99.97,4.0,,0.0,0.0,
2025-08-15T04:57:37.934Z,11,GR86-022-13,2.2,0.153,0.017,99.99,4.0,,0.0,0.0,
2025-08-15T04:57:37.978Z,11,GR86-022-13,1.7000000000000002,0.207,-0.003,100.01,4.0,,0.0,0.0,
2025-08-15T04:57:38.021Z,11,GR86-022-13,1.5,0.187,0.0,100.0,4.0,6362.0,0.0,0.0,
2025-08-15T04:57:38.064Z,11,GR86-022-13,1.3,0.179,-0.026,100.01,4.0,,0.0,0.0,161.9
2025-08-15T04:57:38.108Z,11,GR86-022-13,1.1,0.148,-0.023,100.02,4.0,,0.0,0.0,
2025-08-15T04:57:38.150Z,11,GR86-022-13,1.1,0.132,-0.023,100.0,4.0,,0.0,0.0,
2025-08-15T04:57:38.193Z,11,GR86-022-13,1.0,0.142,-0.045,100.03,4.0,,0.0,0.0,
2025-08-15T04:57:38.237Z,11,GR86-022-13,1.0,0.187,-0.051,100.02,4.0,6396.0,0.0,0.0,
2025-08-15T04:57:38.322Z,11,GR86-022-13,1.0,0.166,-0.074,99.99,4.0,,0.0,0.0,163.76
2025-08-15T04:57:38.365Z,11,GR86-022-13,1.0,0.138,-0.059,100.0,4.0,,0.0,0.0,
2025-08-15T04:57:38.408Z,11,GR86-022-13,1.1,0.145,-0.051,99.99,4.0,,0.0,0.0,
2025-08-15T04:57:38.451Z,11,GR86-022-13,1.0,0.139,-0.062,99.99,4.0,6447.0,0.0,0.0,
2025-08-15T04:57:38.494Z,11,GR86-022-13,1.0,0.174,-0.078,100.02,4.0,,0.0,0.0,164.79
2025-08-15T04:57:38.538Z,11,GR86-022-13,0.9,0.145,-0.07,100.0,4.0,,0.0,0.0,
2025-08-15T04:57:38.581Z,11,GR86-022-13,0.8,0.135,-0.054,100.02,4.0,,0.0,0.0,
2025-08-15T04:57:38.624Z,11,GR86-022-13,0.7000000000000001,0.148,-0.069,99.99,4.0,,0.0,0.0,
2025-08-15T04:57:38.668Z,11,GR86-022-13,0.6000000000000001,0.141,-0.066,100.01,4.0,6483.0,0.0,0.0,
2025-08-15T04:57:38.711Z,11,GR86-022-13,0.6000000000000001,0.142,-0.063,100.03,4.0,,0.0,0.0,165.87
2025-08-15T04:57:38.753Z,11,GR86-022-13,0.6000000000000001,0.178,-0.068,99.97,4.0,,0.0,0.0,
2025-08-15T04:57:38.797Z,11,GR86-022-13,0.6000000000000001,0.143,-0.06,99.99,4.0,,0.0,0.0,
2025-08-15T04:57:38.841Z,11,GR86-022-13,0.5,0.131,-0.082,100.02,4.0,,0.0,0.0,
2025-08-15T04:57:38.884Z,11,GR86-022-13,0.4,0.147,-0.096,100.01,4.0,6572.0,0.0,0.0,
2025-08-15T04:57:38.928Z,11,GR86-022-13,0.1,0.141,-0.078,100.0,4.0,,0.0,0.0,166.96
2025-08-15T04:57:38.971Z,11,GR86-022-13,-0.1,0.151,-0.083,100.0,4.0,,0.0,0.0,
2025-08-15T04:57:39.014Z,11,GR86-022-13,-0.2,0.173,-0.074,99.97,4.0,,0.0,0.0,
2025-08-15T04:57:39.058Z,11,GR86-022-13,-0.2,0.165,-0.1,99.97,4.0,,0.0,0.0,
2025-08-15T04:57:39.101Z,11,GR86-022-13,-0.2,0.145,-0.081,100.02,4.0,6615.0,0.0,0.0,
2025-08-15T04:57:39.144Z,11,GR86-022-13,-0.2,0.139,-0.096,99.99,4.0,,0.0,0.0,168.04
2025-08-15T04:57:39.188Z,11,GR86-022-13,-0.1,0.138,-0.071,99.98,4.0,,0.0,0.0,
2025-08-15T04:57:39.230Z,11,GR86-022-13,0.3,0.141,-0.065,100.02,4.0,,0.0,0.0,
2025-08-15T04:57:39.273Z,11,GR86-022-13,1.1,0.15,-0.076,100.01,4.0,,0.0,0.0,
2025-08-15T04:57:39.317Z,11,GR86-022-13,2.0,0.161,-0.073,100.02,4.0,6652.0,0.0,0.0,
2025-08-15T04:57:39.359Z,11,GR86-022-13,2.0,0.153,-0.071,99.99,4.0,,0.0,0.0,169.17000000000002
2025-08-15T04:57:39.402Z,11,GR86-022-13,2.0,0.143,-0.056,99.99,4.0,,0.0,0.0,
2025-08-15T04:57:39.445Z,11,GR86-022-13,1.4,0.137,-0.068,100.03,4.0,,0.0,0.0,
2025-08-15T04:57:39.488Z,11,GR86-022-13,0.2,0.138,-0.066,100.01,4.0,,0.0,0.0,
2025-08-15T04:57:39.531Z,11,GR86-022-13,-0.7000000000000001,0.134,-0.066,99.99,4.0,6692.0,0.0,0.0,
2025-08-15T04:57:39.574Z,11,GR86-022-13,-0.9,0.151,-0.083,100.0,4.0,,0.0,0.0,170.18
2025-08-15T04:57:39.618Z,11,GR86-022-13,-0.4,0.188,-0.072,99.97,4.0,,0.0,0.0,
2025-08-15T04:57:39.660Z,11,GR86-022-13,-0.1,0.155,-0.084,100.0,4.0,,0.0,0.0,
2025-08-15T04:57:39.703Z,11,GR86-022-13,0.2,0.171,-0.091,100.02,4.0,,0.0,0.0,
2025-08-15T04:57:39.748Z,11,GR86-022-13,0.6000000000000001,0.155,-0.081,100.01,4.0,6728.0,0.0,0.0,
2025-08-15T04:57:39.834Z,11,GR86-022-13,1.0,0.16,-0.088,99.99,4.0,,0.0,0.0,171.31
2025-08-15T04:57:39.921Z,11,GR86-022-13,2.3000000000000003,0.197,-0.073,99.99,4.0,,0.0,0.0,
2025-08-15T04:57:39.964Z,11,GR86-022-13,2.3000000000000003,0.17,-0.038,99.98,4.0,6774.0,0.0,0.0,
2025-08-15T04:57:40.008Z,11,GR86-022-13,2.3000000000000003,0.16,-0.042,100.0,4.0,,0.0,0.0,172.38
2025-08-15T04:57:40.050Z,11,GR86-022-13,2.3000000000000003,0.178,-0.016,100.02,4.0,,0.0,0.0,
2025-08-15T04:57:40.093Z,11,GR86-022-13,2.3000000000000003,0.167,-0.009,100.03,4.0,,0.0,0.0,
2025-08-15T04:57:40.137Z,11,GR86-022-13,1.4,0.152,-0.01,100.01,4.0,,0.0,0.0,
2025-08-15T04:57:40.181Z,11,GR86-022-13,1.0,0.166,-0.009,99.99,4.0,6828.0,0.0,0.0,
2025-08-15T04:57:40.224Z,11,GR86-022-13,0.6000000000000001,0.169,-0.009,100.01,4.0,,0.0,0.0,173.46
2025-08-15T04:57:40.268Z,11,GR86-022-13,-0.1,0.171,-0.04,99.99,4.0,,0.0,0.0,
2025-08-15T04:57:40.311Z,11,GR86-022-13,-1.1,0.184,-0.057,100.01,4.0,,0.0,0.0,
2025-08-15T04:57:40.353Z,11,GR86-022-13,-2.0,0.16,-0.074,100.02,4.0,,0.0,0.0,
2025-08-15T04:57:40.397Z,11,GR86-022-13,-2.4000000000000004,0.161,-0.117,100.0,4.0,6855.0,0.0,0.0,
2025-08-15T04:57:40.441Z,11,GR86-022-13,-2.3000000000000003,0.151,-0.104,100.02,4.0,,0.0,0.0,174.58
2025-08-15T04:57:40.484Z,11,GR86-022-13,-1.8,0.155,-0.141,100.04,4.0,,0.0,0.0,
2025-08-15T04:57:40.528Z,11,GR86-022-13,-1.3,0.149,-0.147,100.0,4.0,,0.0,0.0,
2025-08-15T04:57:40.570Z,11,GR86-022-13,-1.1,0.167,-0.144,100.03,4.0,,0.0,0.0,
2025-08-15T04:57:40.613Z,11,GR86-022-13,-1.4,0.153,-0.153,100.03,4.0,6893.0,0.0,0.0,
2025-08-15T04:57:40.657Z,11,GR86-022-13,-1.7000000000000002,0.158,-0.17,99.99,4.0,,0.0,0.0,175.66
2025-08-15T04:57:40.699Z,11,GR86-022-13,-2.1,0.138,-0.159,99.99,4.0,,0.0,0.0,
2025-08-15T04:57:40.743Z,11,GR86-022-13,-2.4000000000000004,0.17,-0.162,99.99,4.0,,0.0,0.0,
2025-08-15T04:57:40.787Z,11,GR86-022-13,-2.4000000000000004,0.149,-0.181,99.99,4.0,,0.0,0.0,
2025-08-15T04:57:40.829Z,11,GR86-022-13,-2.5,0.158,-0.172,99.97,4.0,6936.0,0.0,0.0,
2025-08-15T04:57:40.872Z,11,GR86-022-13,-2.7,0.138,-0.206,99.97,4.0,,0.0,0.0,176.62
2025-08-15T04:57:40.915Z,11,GR86-022-13,-3.3000000000000003,0.146,-0.186,99.98,4.0,,0.0,0.0,
2025-08-15T04:57:40.958Z,11,GR86-022-13,-3.8,0.173,-0.217,100.03,4.0,,0.0,0.0,
2025-08-15T04:57:41.001Z,11,GR86-022-13,-3.8,0.16,-0.236,99.99,4.0,,0.0,0.0,
2025-08-15T04:57:41.044Z,11,GR86-022-13,-3.6,0.173,-0.213,100.0,4.0,6990.0,0.0,0.0,
2025-08-15T04:57:41.088Z,11,GR86-022-13,-3.0,0.167,-0.238,100.01,4.0,,0.0,0.0,178.89
2025-08-15T04:57:41.131Z,11,GR86-022-13,-2.2,0.164,-0.218,100.0,4.0,,0.0,0.0,
2025-08-15T04:57:41.173Z,11,GR86-022-13,-1.2000000000000002,0.157,-0.214,100.0,4.0,,0.0,0.0,
2025-08-15T04:57:41.217Z,11,GR86-022-13,-0.7000000000000001,0.138,-0.192,100.0,4.0,,0.0,0.0,
2025-08-15T04:57:41.260Z,11,GR86-022-13,-1.1,0.157,-0.188,99.99,4.0,7019.0,0.0,0.0,
2025-08-15T04:57:41.304Z,11,GR86-022-13,-1.7000000000000002,0.135,-0.192,100.01,4.0,,0.0,0.0,179.97
2025-08-15T04:57:41.348Z,11,GR86-022-13,-2.0,0.133,-0.181,100.0,4.0,,0.0,0.0,
2025-08-15T04:57:41.390Z,11,GR86-022-13,-2.6,0.132,-0.18,99.96,4.0,,0.0,0.0,
2025-08-15T04:57:41.433Z,11,GR86-022-13,-3.5,0.139,-0.189,99.98,4.0,,0.0,0.0,
2025-08-15T04:57:41.478Z,11,GR86-022-13,-4.5,0.148,-0.228,100.0,4.0,7098.0,0.0,0.0,
2025-08-15T04:57:41.521Z,11,GR86-022-13,-4.5,0.164,-0.231,100.02,4.0,,0.0,0.0,180.9
2025-08-15T04:57:41.564Z,11,GR86-022-13,-3.4000000000000004,0.176,-0.257,100.0,4.0,,0.0,0.0,
2025-08-15T04:57:41.608Z,11,GR86-022-13,-1.5,0.169,-0.242,100.04,4.0,,0.0,0.0,
2025-08-15T04:57:41.650Z,11,GR86-022-13,-0.1,0.179,-0.227,99.99,4.0,,0.0,0.0,
2025-08-15T04:57:41.693Z,11,GR86-022-13,0.0,0.168,-0.199,99.99,4.0,7139.0,0.0,0.0,
2025-08-15T04:57:41.737Z,11,GR86-022-13,-0.1,0.124,-0.178,100.01,4.0,,0.0,0.0,181.89
2025-08-15T04:57:41.781Z,11,GR86-022-13,-0.1,0.124,-0.178,99.99,4.0,,0.0,0.0,
2025-08-15T04:57:41.824Z,11,GR86-022-13,-0.1,0.133,-0.165,100.0,4.0,,0.0,0.0,
2025-08-15T04:57:41.868Z,11,GR86-022-13,-0.1,0.131,-0.165,99.97,4.0,,0.0,0.0,
2025-08-15T04:57:41.911Z,11,GR86-022-13,-0.1,0.127,-0.147,100.02,4.0,7179.0,0.0,0.0,
2025-08-15T04:57:41.953Z,11,GR86-022-13,-0.1,0.131,-0.138,100.03,4.0,,0.0,0.0,182.91
2025-08-15T04:57:41.999Z,11,GR86-022-13,-0.1,0.162,-0.102,100.03,4.0,,0.0,0.0,
2025-08-15T04:57:42.041Z,11,GR86-022-13,-0.1,0.175,-0.094,100.02,4.0,,0.0,0.0,
2025-08-15T04:57:42.084Z,11,GR86-022-13,0.3,0.16,-0.081,99.97,4.0,,0.0,0.0,
2025-08-15T04:57:42.128Z,11,GR86-022-13,1.2000000000000002,0.161,-0.098,99.98,4.0,7219.0,0.0,0.0,
2025-08-15T04:57:42.170Z,11,GR86-022-13,1.6,0.18,-0.087,100.01,4.0,,0.0,0.0,183.81
2025-08-15T04:57:42.213Z,11,GR86-022-13,1.7000000000000002,0.159,-0.083,100.0,4.0,,0.0,0.0,
2025-08-15T04:57:42.257Z,11,GR86-022-13,1.5,-0.061,-0.067,100.02,5.0,,0.0,0.0,
2025-08-15T04:57:42.299Z,11,GR86-022-13,1.0,-0.025,-0.033,99.97,5.0,,0.0,0.0,
2025-08-15T04:57:42.342Z,11,GR86-022-13,1.0,0.495,-0.08,100.0,5.0,7262.0,0.0,0.0,
2025-08-15T04:57:42.385Z,11,GR86-022-13,0.2,0.141,-0.125,100.01,5.0,,0.0,0.0,184.78
2025-08-15T04:57:42.428Z,11,GR86-022-13,-1.2000000000000002,0.03,-0.03,99.99,5.0,,0.0,0.0,
2025-08-15T04:57:42.471Z,11,GR86-022-13,-1.9,0.116,-0.063,99.97,5.0,,0.0,0.0,
2025-08-15T04:57:42.514Z,11,GR86-022-13,-1.8,0.229,-0.143,99.99,5.0,,0.0,0.0,
2025-08-15T04:57:42.558Z,11,GR86-022-13,-1.2000000000000002,0.07,-0.062,100.02,5.0,6998.0,0.0,0.0,
2025-08-15T04:57:42.601Z,11,GR86-022-13,-0.9,0.062,-0.163,99.97,5.0,,0.0,0.0,185.81
2025-08-15T04:57:42.644Z,11,GR86-022-13,-0.8,0.142,-0.143,99.98,5.0,,0.0,0.0,
2025-08-15T04:57:42.688Z,11,GR86-022-13,-0.8,0.089,-0.148,100.0,5.0,,0.0,0.0,
2025-08-15T04:57:42.731Z,11,GR86-022-13,-0.8,0.101,-0.183,100.01,5.0,,0.0,0.0,
2025-08-15T04:57:42.775Z,11,GR86-022-13,-0.6000000000000001,0.095,-0.172,99.98,5.0,6436.0,0.0,0.0,
2025-08-15T04:57:42.818Z,11,GR86-022-13,1.6,0.151,-0.156,99.97,5.0,,0.0,0.0,186.69
2025-08-15T04:57:42.861Z,11,GR86-022-13,1.8,0.144,-0.158,100.0,5.0,,0.0,0.0,
2025-08-15T04:57:42.904Z,11,GR86-022-13,1.9,0.145,-0.124,99.99,5.0,,0.0,0.0,
2025-08-15T04:57:42.948Z,11,GR86-022-13,1.2000000000000002,0.135,-0.093,99.99,5.0,,0.0,0.0,
2025-08-15T04:57:42.991Z,11,GR86-022-13,-0.2,0.134,-0.064,100.0,5.0,6371.0,0.0,0.0,
2025-08-15T04:57:43.034Z,11,GR86-022-13,-1.4,0.115,-0.082,100.0,5.0,,0.0,0.0,187.48
2025-08-15T04:57:43.079Z,11,GR86-022-13,-1.6,0.156,-0.068,99.99,5.0,,0.0,0.0,
2025-08-15T04:57:43.121Z,11,GR86-022-13,-1.6,0.149,-0.108,99.99,5.0,,0.0,0.0,
2025-08-15T04:57:43.164Z,11,GR86-022-13,-1.7000000000000002,0.147,-0.106,100.02,5.0,,0.0,0.0,
2025-08-15T04:57:43.208Z,11,GR86-022-13,-1.8,0.163,-0.129,99.99,5.0,6396.0,0.0,0.0,
2025-08-15T04:57:43.250Z,11,GR86-022-13,-1.8,0.153,-0.155,100.0,5.0,,0.0,0.0,188.24
2025-08-15T04:57:43.293Z,11,GR86-022-13,-1.8,0.165,-0.162,100.03,5.0,,0.0,0.0,
2025-08-15T04:57:43.337Z,11,GR86-022-13,-0.3,0.095,-0.189,100.0,5.0,,0.0,0.0,
2025-08-15T04:57:43.379Z,11,GR86-022-13,0.7000000000000001,0.127,-0.169,99.98,5.0,,0.0,0.0,
2025-08-15T04:57:43.422Z,11,GR86-022-13,1.6,0.119,-0.144,100.03,5.0,6426.0,0.0,0.0,
2025-08-15T04:57:43.465Z,11,GR86-022-13,2.3000000000000003,0.148,-0.131,99.99,5.0,,0.0,0.0,189.01
2025-08-15T04:57:43.508Z,11,GR86-022-13,2.5,0.138,-0.084,100.0,5.0,,0.0,0.0,
2025-08-15T04:57:43.551Z,11,GR86-022-13,2.2,0.155,-0.09,100.03,5.0,,0.0,0.0,
2025-08-15T04:57:43.594Z,11,GR86-022-13,1.0,0.152,-0.075,100.0,5.0,,0.0,0.0,
2025-08-15T04:57:43.638Z,11,GR86-022-13,-2.7,0.103,-0.082,99.99,5.0,6456.0,0.0,0.0,
2025-08-15T04:57:43.681Z,11,GR86-022-13,-4.6000000000000005,0.094,-0.086,99.99,5.0,,0.0,0.0,190.66
2025-08-15T04:57:43.724Z,11,GR86-022-13,-4.7,0.115,-0.116,100.0,5.0,,0.0,0.0,
2025-08-15T04:57:43.768Z,11,GR86-022-13,-4.2,0.102,-0.13,100.03,5.0,,0.0,0.0,
2025-08-15T04:57:43.811Z,11,GR86-022-13,-4.1000000000000005,0.134,-0.186,100.01,5.0,,0.0,0.0,
2025-08-15T04:57:43.853Z,11,GR86-022-13,-4.1000000000000005,0.116,-0.225,99.98,5.0,6475.0,0.0,0.0,
2025-08-15T04:57:43.897Z,11,GR86-022-13,-4.1000000000000005,0.086,-0.225,100.0,5.0,,0.0,0.0,191.35
2025-08-15T04:57:43.941Z,11,GR86-022-13,-4.0,0.11,-0.275,99.99,5.0,,0.0,0.0,
2025-08-15T04:57:43.984Z,11,GR86-022-13,-2.7,0.09,-0.287,100.02,5.0,,0.0,0.0,
2025-08-15T04:57:44.028Z,11,GR86-022-13,-0.8,0.104,-0.285,100.0,5.0,,0.0,0.0,
2025-08-15T04:57:44.071Z,11,GR86-022-13,0.5,0.088,-0.286,99.98,5.0,6517.0,0.0,0.0,
2025-08-15T04:57:44.114Z,11,GR86-022-13,0.9,0.106,-0.232,100.02,5.0,,0.0,0.0,192.21
2025-08-15T04:57:44.158Z,11,GR86-022-13,0.8,0.123,-0.224,99.99,5.0,,0.0,0.0,
2025-08-15T04:57:44.200Z,11,GR86-022-13,0.7000000000000001,0.095,-0.161,100.03,5.0,,0.0,0.0,
2025-08-15T04:57:44.243Z,11,GR86-022-13,0.5,0.079,-0.13,100.01,5.0,,0.0,0.0,
2025-08-15T04:57:44.287Z,11,GR86-022-13,-0.2,0.104,-0.103,99.98,5.0,6569.0,0.0,0.0,
2025-08-15T04:57:44.329Z,11,GR86-022-13,-0.4,0.087,-0.103,100.0,5.0,,0.0,0.0,193.06
2025-08-15T04:57:44.372Z,11,GR86-022-13,-0.4,0.102,-0.097,99.99,5.0,,0.0,0.0,
2025-08-15T04:57:44.415Z,11,GR86-022-13,-0.2,0.109,-0.086,100.03,5.0,,0.0,0.0,
2025-08-15T04:57:44.458Z,11,GR86-022-13,1.8,0.115,-0.088,99.99,5.0,,0.0,0.0,
2025-08-15T04:57:44.501Z,11,GR86-022-13,3.4000000000000004,0.094,-0.074,100.03,5.0,6595.0,0.0,0.0,
2025-08-15T04:57:44.544Z,11,GR86-022-13,3.9,0.097,-0.06,99.99,5.0,,0.0,0.0,193.9
2025-08-15T04:57:44.588Z,11,GR86-022-13,3.7,0.098,-0.056,100.03,5.0,,0.0,0.0,
2025-08-15T04:57:44.630Z,11,GR86-022-13,3.6,0.109,-0.039,100.0,5.0,,0.0,0.0,
2025-08-15T04:57:44.673Z,11,GR86-022-13,3.5,0.121,-0.027,99.97,5.0,,0.0,0.0,
2025-08-15T04:57:44.717Z,11,GR86-022-13,3.0,0.132,-0.005,100.0,5.0,6612.0,0.0,0.0,
2025-08-15T04:57:44.759Z,11,GR86-022-13,3.0,0.101,0.005,100.03,5.0,,0.0,0.0,194.71
2025-08-15T04:57:44.802Z,11,GR86-022-13,3.0,0.109,0.013,100.02,5.0,,0.0,0.0,
2025-08-15T04:57:44.845Z,11,GR86-022-13,3.2,0.1,0.016,99.99,5.0,,0.0,0.0,
2025-08-15T04:57:44.888Z,11,GR86-022-13,3.2,0.119,0.022,99.99,5.0,,0.0,0.0,
2025-08-15T04:57:44.931Z,11,GR86-022-13,2.3000000000000003,0.118,0.028,99.96,5.0,6649.0,0.0,0.0,
2025-08-15T04:57:44.974Z,11,GR86-022-13,1.7000000000000002,0.143,0.0,100.02,5.0,,0.0,0.0,195.46
2025-08-15T04:57:45.018Z,11,GR86-022-13,1.4,0.117,-0.023,99.99,5.0,,0.0,0.0,
2025-08-15T04:57:45.061Z,11,GR86-022-13,1.5,0.103,-0.032,100.0,5.0,,0.0,0.0,
2025-08-15T04:57:45.104Z,11,GR86-022-13,1.6,0.095,-0.028,99.98,5.0,,0.0,0.0,
2025-08-15T04:57:45.148Z,11,GR86-022-13,1.6,0.115,-0.039,100.0,5.0,6676.0,0.0,0.0,
2025-08-15T04:57:45.191Z,11,GR86-022-13,2.1,0.132,-0.028,99.99,5.0,,0.0,0.0,196.28
2025-08-15T04:57:45.234Z,11,GR86-022-13,2.4000000000000004,0.142,-0.012,100.0,5.0,,0.0,0.0,
2025-08-15T04:57:45.278Z,11,GR86-022-13,1.6,0.099,-0.037,100.02,5.0,,0.0,0.0,
2025-08-15T04:57:45.321Z,11,GR86-022-13,0.3,0.115,-0.06,100.03,5.0,,0.0,0.0,
2025-08-15T04:57:45.364Z,11,GR86-022-13,-0.4,0.11,-0.055,99.99,5.0,6695.0,0.0,0.0,
2025-08-15T04:57:45.408Z,11,GR86-022-13,0.1,0.119,-0.082,99.98,5.0,,0.0,0.0,197.19
2025-08-15T04:57:45.450Z,11,GR86-022-13,1.1,0.137,-0.082,100.01,5.0,,0.0,0.0,
2025-08-15T04:57:45.493Z,11,GR86-022-13,1.6,0.149,-0.069,100.02,5.0,,0.0,0.0,
2025-08-15T04:57:45.537Z,11,GR86-022-13,0.5,0.102,-0.079,100.0,5.0,,0.0,0.0,
2025-08-15T04:57:45.581Z,11,GR86-022-13,-1.1,0.118,-0.075,99.98,5.0,6730.0,0.0,0.0,
2025-08-15T04:57:45.624Z,11,GR86-022-13,-1.1,0.147,-0.104,100.0,5.0,,0.0,0.0,197.96
2025-08-15T04:57:45.668Z,11,GR86-022-13,-0.8,0.138,-0.103,100.0,5.0,,0.0,0.0,
2025-08-15T04:57:45.711Z,11,GR86-022-13,-0.5,0.155,-0.115,100.0,5.0,,0.0,0.0,
2025-08-15T04:57:45.753Z,11,GR86-022-13,0.8,0.139,-0.144,100.0,5.0,,0.0,0.0,
2025-08-15T04:57:45.798Z,11,GR86-022-13,1.5,0.128,-0.152,100.01,5.0,6758.0,0.0,0.0,
2025-08-15T04:57:45.841Z,11,GR86-022-13,1.7000000000000002,0.13,-0.151,100.0,5.0,,0.0,0.0,198.82
2025-08-15T04:57:45.884Z,11,GR86-022-13,2.1,0.136,-0.13,99.97,5.0,,0.0,0.0,
2025-08-15T04:57:45.928Z,11,GR86-022-13,2.1,0.147,-0.08,100.0,5.0,,0.0,0.0,
2025-08-15T04:57:45.970Z,11,GR86-022-13,2.1,0.128,-0.07,100.0,5.0,,0.0,0.0,
2025-08-15T04:57:46.013Z,11,GR86-022-13,2.1,0.122,-0.052,99.98,5.0,6789.0,0.0,0.0,
2025-08-15T04:57:46.057Z,11,GR86-022-13,2.1,0.135,-0.012,99.98,5.0,,0.0,0.0,199.67
2025-08-15T04:57:46.099Z,11,GR86-022-13,2.1,0.059,-0.013,100.0,5.0,,0.0,0.0,
2025-08-15T04:57:46.142Z,11,GR86-022-13,2.1,-0.493,-0.062,99.99,5.0,,0.0,0.0,
2025-08-15T04:57:46.187Z,11,GR86-022-13,2.1,-1.302,-0.029,100.0,5.0,,0.0,0.0,
2025-08-15T04:57:46.229Z,11,GR86-022-13,2.0,-0.127,-0.165,100.0,5.0,6803.0,0.0,0.0,
2025-08-15T04:57:46.272Z,11,GR86-022-13,1.6,0.046,-0.204,99.97,5.0,,0.0,0.0,200.58
2025-08-15T04:57:46.315Z,11,GR86-022-13,1.3,0.065,-0.219,100.0,5.0,,0.0,0.0,
2025-08-15T04:57:46.358Z,11,GR86-022-13,-1.7000000000000002,0.166,-0.202,99.99,5.0,,0.0,0.0,
2025-08-15T04:57:46.401Z,11,GR86-022-13,-3.4000000000000004,0.088,-0.215,100.0,5.0,,0.0,0.0,
2025-08-15T04:57:46.488Z,11,GR86-022-13,-4.5,0.125,-0.18,100.02,5.0,6832.0,0.0,0.0,200.86
2025-08-15T04:57:46.531Z,11,GR86-022-13,-4.0,0.125,-0.187,99.99,5.0,,0.0,0.0,
2025-08-15T04:57:46.573Z,11,GR86-022-13,-4.7,0.098,-0.189,99.99,5.0,,0.0,0.0,
2025-08-15T04:57:46.617Z,11,GR86-022-13,-5.300000000000001,0.117,-0.258,99.99,5.0,,0.0,0.0,
2025-08-15T04:57:46.661Z,11,GR86-022-13,-5.300000000000001,0.117,-0.276,100.01,5.0,6729.0,0.0,0.0,
2025-08-15T04:57:46.704Z,11,GR86-022-13,-5.300000000000001,0.11,-0.291,100.03,5.0,,0.0,0.0,199.53
2025-08-15T04:57:46.748Z,11,GR86-022-13,-5.300000000000001,0.107,-0.298,100.0,5.0,,0.0,0.0,
2025-08-15T04:57:46.790Z,11,GR86-022-13,-5.300000000000001,0.105,-0.288,99.99,5.0,,0.0,0.0,
2025-08-15T04:57:46.833Z,11,GR86-022-13,-4.6000000000000005,0.106,-0.272,99.99,5.0,,0.0,0.0,
2025-08-15T04:57:46.878Z,11,GR86-022-13,-3.4000000000000004,0.093,-0.298,99.97,5.0,6796.0,0.0,0.0,
2025-08-15T04:57:46.921Z,11,GR86-022-13,-3.3000000000000003,0.074,-0.281,99.97,5.0,,0.0,0.0,200.18
2025-08-15T04:57:46.964Z,11,GR86-022-13,-3.3000000000000003,0.109,-0.292,99.97,5.0,,0.0,0.0,
2025-08-15T04:57:47.008Z,11,GR86-022-13,-3.2,0.072,-0.281,100.02,5.0,,0.0,0.0,
2025-08-15T04:57:47.050Z,11,GR86-022-13,-3.0,0.093,-0.273,100.01,5.0,,0.0,0.0,
2025-08-15T04:57:47.093Z,11,GR86-022-13,-2.7,0.079,-0.253,100.01,5.0,6820.0,0.0,0.0,
2025-08-15T04:57:47.137Z,11,GR86-022-13,-1.8,0.088,-0.256,100.03,5.0,,0.0,0.0,200.69
2025-08-15T04:57:47.181Z,11,GR86-022-13,-0.2,0.078,-0.206,100.01,5.0,,0.0,0.0,
2025-08-15T04:57:47.224Z,11,GR86-022-13,0.7000000000000001,0.105,-0.178,100.03,5.0,,0.0,0.0,
2025-08-15T04:57:47.268Z,11,GR86-022-13,1.9,0.101,-0.149,100.0,5.0,,0.0,0.0,
2025-08-15T04:57:47.311Z,11,GR86-022-13,2.6,0.092,-0.098,100.0,5.0,6826.0,0.0,0.0,
2025-08-15T04:57:47.353Z,11,GR86-022-13,2.9000000000000004,0.102,-0.062,100.0,5.0,,0.0,0.0,201.34
2025-08-15T04:57:47.399Z,11,GR86-022-13,3.6,0.088,-0.04,100.0,5.0,,0.0,0.0,
2025-08-15T04:57:47.441Z,11,GR86-022-13,4.3,0.073,0.007,99.99,5.0,,4.03,4.21,
2025-08-15T04:57:47.484Z,11,GR86-022-13,4.800000000000001,0.068,0.017,100.0,5.0,,1.925,2.215,
2025-08-15T04:57:47.528Z,11,GR86-022-13,5.300000000000001,0.086,0.04,99.97,5.0,6849.0,0.0,0.0,
2025-08-15T04:57:47.570Z,11,GR86-022-13,5.9,0.081,0.044,100.0,5.0,,0.0,0.0,202.0
2025-08-15T04:57:47.613Z,11,GR86-022-13,6.6000000000000005,0.076,0.05,100.0,5.0,,0.0,0.0,
2025-08-15T04:57:47.657Z,11,GR86-022-13,7.9,0.088,0.096,99.97,5.0,,5.86,6.365,
2025-08-15T04:57:47.699Z,11,GR86-022-13,8.3,0.041,0.094,99.99,5.0,,4.835,5.22,
2025-08-15T04:57:47.742Z,11,GR86-022-13,8.3,0.051,0.108,99.97,5.0,6880.0,0.0,0.0,
2025-08-15T04:57:47.785Z,11,GR86-022-13,8.5,0.057,0.119,100.0,5.0,,0.0,0.0,202.48
2025-08-15T04:57:47.828Z,11,GR86-022-13,8.6,0.077,0.136,100.01,5.0,,0.0,0.0,
2025-08-15T04:57:47.871Z,11,GR86-022-13,8.9,0.054,0.173,100.0,5.0,,0.0,0.0,
2025-08-15T04:57:47.958Z,11,GR86-022-13,9.6,0.072,0.202,100.0,5.0,6893.0,0.0,0.0,
2025-08-15T04:57:48.001Z,11,GR86-022-13,9.6,0.062,0.219,100.0,5.0,,0.0,0.0,203.15
2025-08-15T04:57:48.044Z,11,GR86-022-13,9.6,0.058,0.227,100.01,5.0,,0.0,0.0,
2025-08-15T04:57:48.088Z,11,GR86-022-13,9.6,0.061,0.238,100.02,5.0,,0.0,0.0,
2025-08-15T04:57:48.131Z,11,GR86-022-13,9.4,0.05,0.241,99.99,5.0,,0.0,0.0,
2025-08-15T04:57:48.174Z,11,GR86-022-13,9.3,0.071,0.237,100.02,5.0,6904.0,0.0,0.0,
2025-08-15T04:57:48.218Z,11,GR86-022-13,9.4,0.064,0.208,99.99,5.0,,0.0,0.0,203.54
2025-08-15T04:57:48.260Z,11,GR86-022-13,10.1,0.052,0.211,99.98,5.0,,0.0,0.0,
2025-08-15T04:57:48.304Z,11,GR86-022-13,10.8,0.068,0.198,100.0,5.0,,0.0,0.0,
2025-08-15T04:57:48.348Z,11,GR86-022-13,11.8,0.07,0.229,100.01,5.0,,0.0,0.0,
2025-08-15T04:57:48.391Z,11,GR86-022-13,11.8,0.086,0.223,100.0,5.0,6924.0,0.0,0.0,
2025-08-15T04:57:48.434Z,11,GR86-022-13,11.8,0.071,0.24,100.01,5.0,,0.0,0.0,204.08
2025-08-15T04:57:48.478Z,11,GR86-022-13,12.2,0.097,0.291,99.99,5.0,,0.0,0.0,
2025-08-15T04:57:48.521Z,11,GR86-022-13,12.5,0.078,0.3,99.97,5.0,,0.0,0.0,
2025-08-15T04:57:48.564Z,11,GR86-022-13,12.7,0.096,0.299,99.97,5.0,,0.0,0.0,
2025-08-15T04:57:48.608Z,11,GR86-022-13,12.7,0.08,0.31,100.0,5.0,6939.0,0.0,0.0,
2025-08-15T04:57:48.650Z,11,GR86-022-13,12.7,0.081,0.304,99.99,5.0,,0.0,0.0,204.54
2025-08-15T04:57:48.693Z,11,GR86-022-13,12.2,0.025,0.3,99.98,5.0,,0.0,0.0,
2025-08-15T04:57:48.737Z,11,GR86-022-13,12.1,0.094,0.317,99.99,5.0,,0.0,0.0,
2025-08-15T04:57:48.779Z,11,GR86-022-13,12.1,0.073,0.305,100.01,5.0,,0.0,0.0,
2025-08-15T04:57:48.822Z,11,GR86-022-13,12.2,0.056,0.304,100.01,5.0,6954.0,0.0,0.0,
2025-08-15T04:57:48.865Z,11,GR86-022-13,12.1,0.038,0.299,99.97,5.0,,0.0,0.0,204.95
2025-08-15T04:57:48.908Z,11,GR86-022-13,12.1,0.054,0.288,100.0,5.0,,0.0,0.0,
2025-08-15T04:57:48.951Z,11,GR86-022-13,12.1,0.067,0.301,100.0,5.0,,0.0,0.0,
2025-08-15T04:57:48.994Z,11,GR86-022-13,12.9,0.089,0.295,99.97,5.0,,0.0,0.0,
2025-08-15T04:57:49.038Z,11,GR86-022-13,14.4,0.055,0.326,99.97,5.0,6973.0,0.0,0.0,
2025-08-15T04:57:49.081Z,11,GR86-022-13,14.6,0.063,0.359,100.0,5.0,,0.0,0.0,205.91
2025-08-15T04:57:49.124Z,11,GR86-022-13,14.6,0.085,0.378,99.98,5.0,,0.0,0.0,
2025-08-15T04:57:49.168Z,11,GR86-022-13,14.7,0.086,0.387,99.97,5.0,,0.0,0.0,
2025-08-15T04:57:49.210Z,11,GR86-022-13,14.7,0.092,0.373,99.98,5.0,,0.0,0.0,
2025-08-15T04:57:49.297Z,11,GR86-022-13,14.7,0.057,0.386,100.0,5.0,6997.0,0.0,0.0,206.19
2025-08-15T04:57:49.341Z,11,GR86-022-13,15.3,0.092,0.423,100.01,5.0,,7.205,7.525,
2025-08-15T04:57:49.384Z,11,GR86-022-13,15.4,0.011,0.43,100.03,5.0,,11.52,11.705,
2025-08-15T04:57:49.428Z,11,GR86-022-13,15.4,-0.087,0.423,100.03,5.0,,11.84,11.935,
2025-08-15T04:57:49.471Z,11,GR86-022-13,15.4,-0.125,0.43,100.0,5.0,7009.0,11.58,11.935,
2025-08-15T04:57:49.514Z,11,GR86-022-13,14.8,-0.11,0.433,100.03,5.0,,11.735,12.115,206.83
2025-08-15T04:57:49.558Z,11,GR86-022-13,12.9,-0.148,0.413,99.97,5.0,,13.915,14.085,
2025-08-15T04:57:49.601Z,11,GR86-022-13,11.7,-0.163,0.402,99.98,5.0,,12.865,13.305,
2025-08-15T04:57:49.644Z,11,GR86-022-13,11.7,-0.111,0.393,99.97,5.0,,6.715,7.265000000000001,
2025-08-15T04:57:49.688Z,11,GR86-022-13,12.5,0.016,0.393,99.97,5.0,7015.0,3.34,3.935,
2025-08-15T04:57:49.730Z,11,GR86-022-13,13.8,0.049,0.37,99.97,5.0,,2.5500000000000003,3.005,206.91
2025-08-15T04:57:49.773Z,11,GR86-022-13,14.9,0.052,0.371,99.98,5.0,,0.0,0.0,
2025-08-15T04:57:49.817Z,11,GR86-022-13,15.3,0.06,0.37,100.0,5.0,,0.0,0.0,
2025-08-15T04:57:49.859Z,11,GR86-022-13,15.3,0.089,0.384,100.03,5.0,,0.0,0.0,
2025-08-15T04:57:49.902Z,11,GR86-022-13,15.1,0.091,0.403,100.02,5.0,6987.0,0.0,0.0,
2025-08-15T04:57:49.945Z,11,GR86-022-13,14.8,0.081,0.384,100.0,5.0,,0.0,0.0,206.04
2025-08-15T04:57:49.988Z,11,GR86-022-13,14.5,0.032,0.366,100.03,5.0,,0.0,0.0,
2025-08-15T04:57:50.031Z,11,GR86-022-13,13.9,0.017,0.387,100.0,5.0,,0.0,0.0,
2025-08-15T04:57:50.075Z,11,GR86-022-13,13.2,0.041,0.398,99.99,5.0,,0.0,0.0,
2025-08-15T04:57:50.118Z,11,GR86-022-13,12.5,0.056,0.432,99.98,5.0,7014.0,0.0,0.0,
2025-08-15T04:57:50.161Z,11,GR86-022-13,12.4,0.022,0.44,99.96,5.0,,0.0,0.0,206.08
2025-08-15T04:57:50.204Z,11,GR86-022-13,12.4,0.033,0.449,100.0,5.0,,0.0,0.0,
2025-08-15T04:57:50.248Z,11,GR86-022-13,12.4,0.057,0.456,100.0,5.0,,0.0,0.0,
2025-08-15T04:57:50.291Z,11,GR86-022-13,12.4,0.078,0.456,99.98,5.0,,0.0,0.0,
2025-08-15T04:57:50.334Z,11,GR86-022-13,12.4,0.1,0.427,100.03,5.0,7039.0,0.0,0.0,
2025-08-15T04:57:50.378Z,11,GR86-022-13,12.3,0.06,0.34,99.97,5.0,,0.0,0.0,206.55
2025-08-15T04:57:50.421Z,11,GR86-022-13,13.0,0.067,0.305,99.97,5.0,,0.0,0.0,
2025-08-15T04:57:50.464Z,11,GR86-022-13,13.5,0.096,0.316,99.99,5.0,,0.0,0.0,
2025-08-15T04:57:50.508Z,11,GR86-022-13,13.5,0.09,0.317,99.97,5.0,,0.0,0.0,
2025-08-15T04:57:50.550Z,11,GR86-022-13,12.9,0.06,0.324,100.01,5.0,7048.0,0.0,0.0,
2025-08-15T04:57:50.593Z,11,GR86-022-13,10.6,0.028,0.322,100.0,5.0,,0.0,0.0,207.29
2025-08-15T04:57:50.638Z,11,GR86-022-13,6.5,0.068,0.31,99.96,5.0,,0.0,0.0,
2025-08-15T04:57:50.681Z,11,GR86-022-13,6.4,0.064,0.276,100.0,5.0,,0.0,0.0,
2025-08-15T04:57:50.724Z,11,GR86-022-13,8.6,0.025,0.266,99.97,5.0,,0.0,0.0,
2025-08-15T04:57:50.768Z,11,GR86-022-13,10.9,0.041,0.251,100.01,5.0,7068.0,0.0,0.0,
2025-08-15T04:57:50.810Z,11,GR86-022-13,11.5,0.041,0.237,100.0,5.0,,2.305,2.4250000000000003,207.76
2025-08-15T04:57:50.853Z,11,GR86-022-13,11.2,0.065,0.23,99.99,5.0,,4.53,4.565,
2025-08-15T04:57:50.897Z,11,GR86-022-13,11.1,-0.033,0.187,94.07,5.0,,6.625,6.6850000000000005,
2025-08-15T04:57:50.941Z,11,GR86-022-13,12.3,-0.058,0.209,31.89,5.0,,10.865,10.895,
2025-08-15T04:57:50.984Z,11,GR86-022-13,13.6,-0.102,0.236,3.69,5.0,7080.0,12.39,12.56,
2025-08-15T04:57:51.028Z,11,GR86-022-13,13.7,-0.177,0.242,3.06,5.0,,12.71,12.895,208.27
2025-08-15T04:57:51.070Z,11,GR86-022-13,11.3,-0.391,0.284,3.01,5.0,,13.855,14.085,
2025-08-15T04:57:51.113Z,11,GR86-022-13,6.5,-0.5670000000000001,0.252,2.96,5.0,,21.03,21.03,
2025-08-15T04:57:51.157Z,11,GR86-022-13,-1.1,-0.633,0.221,2.89,5.0,,31.865,31.895,
2025-08-15T04:57:51.199Z,11,GR86-022-13,-0.8,-0.593,0.189,2.84,5.0,7084.0,32.17,32.475,
2025-08-15T04:57:51.244Z,11,GR86-022-13,4.5,-0.752,0.079,2.76,5.0,,32.075,32.475,208.87
2025-08-15T04:57:51.287Z,11,GR86-022-13,9.9,-0.754,0.087,2.69,5.0,,32.015,32.445,
2025-08-15T04:57:51.329Z,11,GR86-022-13,12.9,-0.747,0.138,2.62,5.0,,36.395,36.305,
2025-08-15T04:57:51.372Z,11,GR86-022-13,13.5,-0.902,0.136,2.56,5.0,,43.89,43.615,
2025-08-15T04:57:51.415Z,11,GR86-022-13,12.5,-0.933,0.149,2.54,5.0,6722.0,46.405,46.205,
2025-08-15T04:57:51.458Z,11,GR86-022-13,7.300000000000001,-0.952,0.124,2.5,5.0,,47.64,47.305,208.13
2025-08-15T04:57:51.501Z,11,GR86-022-13,5.4,-0.995,0.099,2.5,5.0,,49.870000000000005,49.58,
2025-08-15T04:57:51.544Z,11,GR86-022-13,9.5,-1.046,0.102,2.5,5.0,,58.615,58.125,
2025-08-15T04:57:51.588Z,11,GR86-022-13,15.7,-1.16,0.133,2.51,5.0,,69.25,68.565,
2025-08-15T04:57:51.631Z,11,GR86-022-13,19.8,-1.156,0.164,2.5,5.0,6747.0,75.645,76.025,
2025-08-15T04:57:51.673Z,11,GR86-022-13,16.900000000000002,-1.19,0.217,2.5,5.0,,76.985,78.025,205.27
2025-08-15T04:57:51.717Z,11,GR86-022-13,-2.4000000000000004,-1.183,0.317,48.95,5.0,,67.265,67.615,
2025-08-15T04:57:51.761Z,11,GR86-022-13,-14.4,-0.981,0.122,78.83,4.0,,54.525,55.945,
2025-08-15T04:57:51.804Z,11,GR86-022-13,-14.5,-1.062,0.085,16.61,4.0,,51.775,53.06,
2025-08-15T04:57:51.848Z,11,GR86-022-13,-4.2,-1.208,0.04,3.75,4.0,6507.0,65.3,66.7,
2025-08-15T04:57:51.890Z,11,GR86-022-13,9.1,-1.178,0.171,3.19,4.0,,73.265,73.4,190.93
2025-08-15T04:57:51.933Z,11,GR86-022-13,16.5,-1.366,0.269,3.0500000000000003,4.0,,74.315,74.5,
2025-08-15T04:57:51.979Z,11,GR86-022-13,16.6,-1.147,0.234,2.93,4.0,,75.005,76.055,
2025-08-15T04:57:52.021Z,11,GR86-022-13,16.6,-1.026,0.189,2.87,4.0,,73.14,73.57000000000001,
2025-08-15T04:57:52.064Z,11,GR86-022-13,15.3,-1.162,0.183,2.81,4.0,5912.0,69.31,69.905,
2025-08-15T04:57:52.108Z,11,GR86-022-13,14.1,-1.124,0.132,2.72,4.0,,65.145,66.33500000000001,184.6
2025-08-15T04:57:52.150Z,11,GR86-022-13,12.2,-1.137,0.17,2.66,4.0,,64.125,64.61,
2025-08-15T04:57:52.193Z,11,GR86-022-13,8.3,-1.201,0.192,2.62,4.0,,63.495000000000005,63.68,
2025-08-15T04:57:52.237Z,11,GR86-022-13,3.0,-1.072,0.123,2.56,4.0,,62.75,63.435,
2025-08-15T04:57:52.281Z,11,GR86-022-13,3.4000000000000004,-1.105,0.151,2.56,4.0,6485.0,58.875,59.455,
2025-08-15T04:57:52.324Z,11,GR86-022-13,8.5,-1.14,0.15,2.51,4.0,,56.495000000000005,57.3,176.16
2025-08-15T04:57:52.368Z,11,GR86-022-13,17.7,-1.075,0.18,2.5,4.0,,56.63,56.935,
2025-08-15T04:57:52.410Z,11,GR86-022-13,26.700000000000003,-1.102,0.321,27.55,4.0,,61.025,60.95,
2025-08-15T04:57:52.453Z,11,GR86-022-13,27.4,-1.172,0.416,75.02,4.0,,70.305,70.0,
2025-08-15T04:57:52.499Z,11,GR86-022-13,12.4,-1.251,0.383,57.9,3.0,6282.0,76.865,77.08,
2025-08-15T04:57:52.584Z,11,GR86-022-13,1.1,-1.272,0.221,4.89,3.0,,78.865,80.285,169.32
2025-08-15T04:57:52.628Z,11,GR86-022-13,-6.2,-1.063,0.132,2.68,3.0,,83.58,83.52,
2025-08-15T04:57:52.670Z,11,GR86-022-13,-7.300000000000001,-1.247,0.136,2.61,3.0,,86.845,87.99,
2025-08-15T04:57:52.713Z,11,GR86-022-13,-10.6,-1.218,0.183,2.61,3.0,6081.0,90.52,91.62,
2025-08-15T04:57:52.757Z,11,GR86-022-13,-12.0,-1.214,0.248,2.56,3.0,,93.025,93.53,162.96
2025-08-15T04:57:52.799Z,11,GR86-022-13,-10.8,-1.352,0.098,2.56,3.0,,95.74,96.78,
2025-08-15T04:57:52.843Z,11,GR86-022-13,-2.7,-1.3,-0.001,2.5500000000000003,3.0,,97.345,98.565,
2025-08-15T04:57:52.887Z,11,GR86-022-13,9.3,-1.262,0.013,2.54,3.0,,98.15,99.31,
2025-08-15T04:57:52.931Z,11,GR86-022-13,16.0,-1.261,0.071,2.54,3.0,6722.0,98.655,99.585,
2025-08-15T04:57:52.974Z,11,GR86-022-13,13.2,-1.303,-0.012,2.54,3.0,,98.185,98.84,154.54
2025-08-15T04:57:53.018Z,11,GR86-022-13,6.0,-1.326,-0.01,2.52,3.0,,97.405,97.68,
2025-08-15T04:57:53.060Z,11,GR86-022-13,7.0,-1.282,-0.087,22.68,3.0,,96.365,96.55,
2025-08-15T04:57:53.103Z,11,GR86-022-13,9.1,-1.25,-0.092,58.42,2.0,,95.59,95.42,
2025-08-15T04:57:53.148Z,11,GR86-022-13,8.200000000000001,-1.368,-0.044,7.38,2.0,6437.0,95.24,96.49,
2025-08-15T04:57:53.191Z,11,GR86-022-13,7.7,-1.271,0.041,4.22,2.0,,96.64,98.535,145.6
2025-08-15T04:57:53.234Z,11,GR86-022-13,9.3,-1.291,-0.111,3.67,2.0,,96.105,96.52,
2025-08-15T04:57:53.278Z,11,GR86-022-13,18.7,-1.256,0.095,3.29,2.0,,95.39,97.16,
2025-08-15T04:57:53.321Z,11,GR86-022-13,25.200000000000003,-1.268,0.097,3.17,2.0,,96.61,97.77,
2025-08-15T04:57:53.364Z,11,GR86-022-13,27.8,-1.247,0.065,3.06,2.0,6002.0,89.83500000000001,89.395,
2025-08-15T04:57:53.408Z,11,GR86-022-13,26.6,-1.17,0.375,2.95,2.0,,85.21000000000001,85.5,136.17000000000002
2025-08-15T04:57:53.450Z,11,GR86-022-13,26.4,-1.174,0.258,2.86,2.0,,84.05,84.74,
2025-08-15T04:57:53.493Z,11,GR86-022-13,27.200000000000003,-1.203,0.364,2.78,2.0,,85.12,85.87,
2025-08-15T04:57:53.537Z,11,GR86-022-13,31.1,-1.222,0.463,2.69,2.0,,87.24,87.93,
2025-08-15T04:57:53.579Z,11,GR86-022-13,32.0,-1.217,0.459,2.65,2.0,6482.0,89.775,91.085,
2025-08-15T04:57:53.622Z,11,GR86-022-13,28.8,-1.201,0.605,2.62,2.0,,88.31,89.12,127.98
2025-08-15T04:57:53.665Z,11,GR86-022-13,17.400000000000002,-1.213,0.446,2.57,2.0,,75.84,77.275,
2025-08-15T04:57:53.708Z,11,GR86-022-13,4.7,-1.058,0.474,2.5500000000000003,2.0,,63.205,64.84,
2025-08-15T04:57:53.751Z,11,GR86-022-13,1.9,-1.014,0.364,2.5500000000000003,2.0,,56.46,57.24,
2025-08-15T04:57:53.794Z,11,GR86-022-13,11.7,-0.985,0.321,2.56,2.0,6268.0,51.96,52.370000000000005,
2025-08-15T04:57:53.838Z,11,GR86-022-13,35.2,-1.019,0.45,58.91,1.0,,57.620000000000005,58.155,119.49
2025-08-15T04:57:53.881Z,11,GR86-022-13,44.900000000000006,-1.078,0.581,11.65,1.0,,62.245000000000005,63.205,
2025-08-15T04:57:53.924Z,11,GR86-022-13,45.1,-0.982,0.6,4.2700000000000005,1.0,,63.465,63.525,
2025-08-15T04:57:53.968Z,11,GR86-022-13,44.6,-1.071,0.609,3.82,1.0,,62.66,62.93,
2025-08-15T04:57:54.010Z,11,GR86-022-13,44.2,-0.874,0.6,3.52,2.0,5906.0,55.715,56.845,
2025-08-15T04:57:54.053Z,11,GR86-022-13,46.0,-0.888,0.663,3.34,2.0,,50.405,50.94,113.16
2025-08-15T04:57:54.097Z,11,GR86-022-13,52.1,-0.611,0.748,3.2,2.0,,51.0,51.15,
2025-08-15T04:57:54.139Z,11,GR86-022-13,57.400000000000006,-0.88,0.74,3.1,2.0,,54.83,54.86,
2025-08-15T04:57:54.182Z,11,GR86-022-13,59.900000000000006,-1.004,0.729,2.98,2.0,,60.95,60.735,
2025-08-15T04:57:54.227Z,11,GR86-022-13,61.3,-0.937,0.885,2.89,2.0,5696.0,68.21000000000001,69.28,
2025-08-15T04:57:54.269Z,11,GR86-022-13,61.5,-1.048,0.779,2.82,2.0,,71.83,72.67,106.09
2025-08-15T04:57:54.312Z,11,GR86-022-13,62.1,-1.003,0.712,2.72,2.0,,73.2,73.17,
2025-08-15T04:57:54.355Z,11,GR86-022-13,64.7,-1.053,0.857,37.06,1.0,,73.34,73.72,
2025-08-15T04:57:54.398Z,11,GR86-022-13,66.8,-1.111,0.737,15.65,1.0,,71.525,72.83500000000001,
2025-08-15T04:57:54.441Z,11,GR86-022-13,66.7,-1.086,0.6980000000000001,4.09,1.0,5642.0,72.83500000000001,74.025,
2025-08-15T04:57:54.484Z,11,GR86-022-13,65.60000000000001,-1.032,0.835,3.69,1.0,,66.795,67.875,93.83
2025-08-15T04:57:54.528Z,11,GR86-022-13,65.5,-1.131,0.806,3.45,1.0,,58.215,58.845,
2025-08-15T04:57:54.571Z,11,GR86-022-13,66.2,-0.838,0.938,3.29,1.0,,43.11,43.95,
2025-08-15T04:57:54.614Z,11,GR86-022-13,66.2,-0.5700000000000001,1.001,3.16,1.0,,23.21,24.05,
2025-08-15T04:57:54.658Z,11,GR86-022-13,66.7,-0.258,1.164,3.0500000000000003,1.0,4850.0,3.935,4.305,
2025-08-15T04:57:54.701Z,11,GR86-022-13,66.8,-0.291,1.184,2.97,1.0,,0.0,0.0,85.55
2025-08-15T04:57:54.744Z,11,GR86-022-13,62.0,-0.186,1.093,2.9,1.0,,0.0,0.0,
2025-08-15T04:57:54.788Z,11,GR86-022-13,53.900000000000006,-0.199,1.224,2.82,1.0,,0.0,0.0,
2025-08-15T04:57:54.830Z,11,GR86-022-13,50.8,-0.18,1.117,2.73,1.0,,0.0,0.0,
2025-08-15T04:57:54.873Z,11,GR86-022-13,56.400000000000006,-0.161,1.104,2.67,1.0,4908.0,0.0,0.0,
2025-08-15T04:57:54.917Z,11,GR86-022-13,64.0,-0.211,1.206,3.76,1.0,,0.0,0.0,79.45
2025-08-15T04:57:54.959Z,11,GR86-022-13,64.5,-0.165,1.184,19.68,1.0,,0.0,0.0,
2025-08-15T04:57:55.002Z,11,GR86-022-13,64.5,-0.161,1.229,23.23,1.0,,0.0,0.0,
2025-08-15T04:57:55.045Z,11,GR86-022-13,64.5,-0.122,1.221,27.22,1.0,,0.0,0.0,
2025-08-15T04:57:55.088Z,11,GR86-022-13,64.5,-0.095,1.218,37.63,1.0,5372.0,0.0,0.0,
2025-08-15T04:57:55.131Z,11,GR86-022-13,65.3,-0.069,1.17,39.34,1.0,,0.0,0.0,77.89
2025-08-15T04:57:55.174Z,11,GR86-022-13,65.5,-0.079,1.146,47.28,1.0,,0.0,0.0,
2025-08-15T04:57:55.218Z,11,GR86-022-13,64.3,0.311,1.07,49.23,1.0,,0.0,0.0,
2025-08-15T04:57:55.260Z,11,GR86-022-13,61.5,0.337,1.039,49.120000000000005,1.0,,0.0,0.0,
2025-08-15T04:57:55.303Z,11,GR86-022-13,58.0,0.382,1.102,48.99,1.0,5363.0,0.0,0.0,
2025-08-15T04:57:55.348Z,11,GR86-022-13,59.0,0.424,1.11,48.1,1.0,,0.0,0.0,76.02
2025-08-15T04:57:55.391Z,11,GR86-022-13,65.8,0.392,1.101,47.93,1.0,,0.0,0.0,
2025-08-15T04:57:55.434Z,11,GR86-022-13,72.4,0.35,1.16,47.16,1.0,,0.0,0.0,
2025-08-15T04:57:55.478Z,11,GR86-022-13,70.60000000000001,0.27,1.181,47.32,1.0,,0.0,0.0,
2025-08-15T04:57:55.521Z,11,GR86-022-13,61.2,0.283,1.204,47.2,1.0,5990.0,0.0,0.0,
2025-08-15T04:57:55.564Z,11,GR86-022-13,53.1,0.304,1.153,46.55,1.0,,0.0,0.0,75.02
2025-08-15T04:57:55.608Z,11,GR86-022-13,52.400000000000006,0.316,1.035,45.22,1.0,,0.0,0.0,
2025-08-15T04:57:55.650Z,11,GR86-022-13,56.1,0.336,1.224,46.05,1.0,,0.0,0.0,
2025-08-15T04:57:55.693Z,11,GR86-022-13,60.8,0.298,1.01,46.58,1.0,,0.0,0.0,
2025-08-15T04:57:55.737Z,11,GR86-022-13,63.2,0.284,1.041,49.7,1.0,5883.0,0.0,0.0,
2025-08-15T04:57:55.781Z,11,GR86-022-13,62.1,0.193,1.036,49.64,1.0,,0.0,0.0,76.2
2025-08-15T04:57:55.824Z,11,GR86-022-13,58.6,0.369,1.052,48.66,1.0,,0.0,0.0,
2025-08-15T04:57:55.868Z,11,GR86-022-13,56.0,0.157,0.91,47.84,1.0,,0.0,0.0,
2025-08-15T04:57:55.910Z,11,GR86-022-13,54.2,0.155,0.868,45.95,1.0,,0.0,0.0,
2025-08-15T04:57:55.953Z,11,GR86-022-13,52.7,0.166,1.052,43.61,1.0,6036.0,0.0,0.0,
2025-08-15T04:57:55.998Z,11,GR86-022-13,52.1,0.489,0.8300000000000001,44.81,1.0,,0.0,0.0,78.14
2025-08-15T04:57:56.041Z,11,GR86-022-13,53.3,0.401,0.885,43.97,1.0,,0.0,0.0,
2025-08-15T04:57:56.084Z,11,GR86-022-13,58.0,0.3,1.001,46.01,1.0,,0.0,0.0,
2025-08-15T04:57:56.128Z,11,GR86-022-13,63.5,0.482,1.008,45.46,1.0,,0.0,0.0,
2025-08-15T04:57:56.170Z,11,GR86-022-13,68.2,0.446,0.926,43.14,1.0,6200.0,0.0,0.0,
2025-08-15T04:57:56.213Z,11,GR86-022-13,72.10000000000001,0.37,1.028,44.34,1.0,,0.0,0.0,79.76
2025-08-15T04:57:56.257Z,11,GR86-022-13,75.0,0.173,0.984,43.23,1.0,,0.0,0.0,
2025-08-15T04:57:56.299Z,11,GR86-022-13,75.0,0.082,0.978,43.84,1.0,,0.0,0.0,
2025-08-15T04:57:56.342Z,11,GR86-022-13,75.0,-0.011,0.931,42.53,1.0,,0.0,0.0,
2025-08-15T04:57:56.385Z,11,GR86-022-13,74.2,0.167,1.371,41.65,1.0,6487.0,0.0,0.0,
2025-08-15T04:57:56.428Z,11,GR86-022-13,71.60000000000001,0.496,1.323,42.71,1.0,,0.0,0.0,81.38
2025-08-15T04:57:56.471Z,11,GR86-022-13,66.9,0.367,1.197,49.47,1.0,,0.0,0.0,
2025-08-15T04:57:56.514Z,11,GR86-022-13,63.1,0.328,1.415,53.47,1.0,,0.0,0.0,
2025-08-15T04:57:56.558Z,11,GR86-022-13,58.7,0.367,1.116,53.46,1.0,,0.0,0.0,
2025-08-15T04:57:56.601Z,11,GR86-022-13,54.0,0.358,1.073,75.36,1.0,6492.0,0.0,0.0,
2025-08-15T04:57:56.644Z,11,GR86-022-13,47.900000000000006,0.314,1.143,99.91,1.0,,0.0,0.0,83.36
2025-08-15T04:57:56.688Z,11,GR86-022-13,45.3,0.336,0.992,100.12,1.0,,0.0,0.0,
2025-08-15T04:57:56.731Z,11,GR86-022-13,45.2,0.308,0.968,100.14,1.0,,0.0,0.0,
2025-08-15T04:57:56.773Z,11,GR86-022-13,45.2,0.355,1.041,100.16,1.0,,0.0,0.0,
2025-08-15T04:57:56.817Z,11,GR86-022-13,45.7,0.378,0.938,100.12,1.0,6665.0,0.0,0.0,
2025-08-15T04:57:56.860Z,11,GR86-022-13,49.7,0.403,0.976,100.16,1.0,,0.0,0.0,84.84
2025-08-15T04:57:56.903Z,11,GR86-022-13,54.8,0.367,1.015,100.16,1.0,,0.0,0.0,
2025-08-15T04:57:56.947Z,11,GR86-022-13,58.7,0.348,1.062,100.15,1.0,,0.0,0.0,
2025-08-15T04:57:56.990Z,11,GR86-022-13,59.5,0.314,1.068,100.12,1.0,,0.0,0.0,
2025-08-15T04:57:57.033Z,11,GR86-022-13,58.2,0.352,1.141,100.13,1.0,6728.0,0.0,0.0,
2025-08-15T04:57:57.078Z,11,GR86-022-13,51.1,0.383,1.085,100.11,1.0,,0.0,0.0,88.98
2025-08-15T04:57:57.121Z,11,GR86-022-13,43.0,0.345,1.099,100.13,1.0,,0.0,0.0,
2025-08-15T04:57:57.164Z,11,GR86-022-13,35.2,0.39,1.068,100.13,1.0,,0.0,0.0,
2025-08-15T04:57:57.208Z,11,GR86-022-13,32.4,0.347,1.054,100.14,1.0,,0.0,0.0,
2025-08-15T04:57:57.250Z,11,GR86-022-13,33.6,0.375,1.037,100.13,1.0,6921.0,0.0,0.0,
2025-08-15T04:57:57.293Z,11,GR86-022-13,36.4,0.355,1.036,100.12,1.0,,0.0,0.0,91.13
2025-08-15T04:57:57.337Z,11,GR86-022-13,38.6,0.328,1.001,100.12,1.0,,0.0,0.0,
2025-08-15T04:57:57.381Z,11,GR86-022-13,38.5,0.332,1.107,100.09,1.0,,0.0,0.0,
2025-08-15T04:57:57.424Z,11,GR86-022-13,35.9,0.305,1.097,100.08,1.0,,0.0,0.0,
2025-08-15T04:57:57.468Z,11,GR86-022-13,28.5,0.136,1.061,100.09,1.0,7110.0,0.0,0.0,
2025-08-15T04:57:57.510Z,11,GR86-022-13,16.8,-0.072,0.916,100.1,2.0,,0.0,0.0,93.38
2025-08-15T04:57:57.553Z,11,GR86-022-13,4.800000000000001,0.446,0.389,100.09,2.0,,0.0,0.0,
2025-08-15T04:57:57.597Z,11,GR86-022-13,3.4000000000000004,0.457,0.503,100.1,2.0,,0.0,0.0,
2025-08-15T04:57:57.641Z,11,GR86-022-13,12.2,0.379,0.5670000000000001,100.12,2.0,,0.0,0.0,
2025-08-15T04:57:57.684Z,11,GR86-022-13,22.1,0.12,0.341,100.13,2.0,6878.0,0.0,0.0,
2025-08-15T04:57:57.728Z,11,GR86-022-13,27.4,0.094,0.595,100.1,2.0,,0.0,0.0,95.08
2025-08-15T04:57:57.770Z,11,GR86-022-13,27.200000000000003,0.218,0.728,100.08,2.0,,0.0,0.0,
2025-08-15T04:57:57.813Z,11,GR86-022-13,25.3,0.296,0.641,100.1,2.0,,0.0,0.0,
2025-08-15T04:57:57.857Z,11,GR86-022-13,18.7,0.053,0.609,100.08,2.0,,0.0,0.0,
2025-08-15T04:57:57.899Z,11,GR86-022-13,11.9,-0.039,0.452,100.07,2.0,5868.0,0.0,0.0,
2025-08-15T04:57:57.942Z,11,GR86-022-13,7.800000000000001,0.257,0.592,100.08,2.0,,0.0,0.0,95.48
2025-08-15T04:57:57.985Z,11,GR86-022-13,6.4,0.487,0.888,100.09,2.0,,0.0,0.0,
2025-08-15T04:57:58.028Z,11,GR86-022-13,3.0,0.495,0.999,100.06,2.0,,0.0,0.0,
2025-08-15T04:57:58.071Z,11,GR86-022-13,-1.3,0.668,0.747,100.06,2.0,,0.0,0.0,
2025-08-15T04:57:58.114Z,11,GR86-022-13,-2.4000000000000004,0.594,0.8310000000000001,100.06,2.0,5887.0,0.0,0.0,
2025-08-15T04:57:58.158Z,11,GR86-022-13,4.7,0.21,0.372,100.05,2.0,,0.0,0.0,97.73
2025-08-15T04:57:58.201Z,11,GR86-022-13,16.400000000000002,0.419,0.476,100.06,2.0,,0.0,0.0,
2025-08-15T04:57:58.244Z,11,GR86-022-13,26.200000000000003,0.503,0.6990000000000001,100.06,2.0,,0.0,0.0,
2025-08-15T04:57:58.288Z,11,GR86-022-13,29.200000000000003,0.609,0.978,100.06,2.0,,0.0,0.0,
2025-08-15T04:57:58.331Z,11,GR86-022-13,25.4,0.6890000000000001,0.622,100.08,2.0,5880.0,0.0,0.0,
2025-08-15T04:57:58.374Z,11,GR86-022-13,19.5,0.414,0.584,100.07,2.0,,0.0,0.0,99.71
2025-08-15T04:57:58.418Z,11,GR86-022-13,17.7,0.5730000000000001,0.499,100.03,2.0,,0.0,0.0,
2025-08-15T04:57:58.460Z,11,GR86-022-13,15.3,0.541,0.614,100.04,2.0,,0.0,0.0,
2025-08-15T04:57:58.503Z,11,GR86-022-13,10.8,0.605,0.425,100.04,2.0,,0.0,0.0,
2025-08-15T04:57:58.548Z,11,GR86-022-13,6.1000000000000005,0.395,0.554,100.04,2.0,6131.0,0.0,0.0,
2025-08-15T04:57:58.591Z,11,GR86-022-13,4.3,0.654,0.446,100.03,2.0,,0.0,0.0,101.21
2025-08-15T04:57:58.634Z,11,GR86-022-13,5.6000000000000005,0.721,0.461,100.04,2.0,,0.0,0.0,
2025-08-15T04:57:58.678Z,11,GR86-022-13,9.3,0.175,0.279,100.03,2.0,,0.0,0.0,
2025-08-15T04:57:58.721Z,11,GR86-022-13,11.2,0.23,0.218,100.04,2.0,,0.0,0.0,
2025-08-15T04:57:58.764Z,11,GR86-022-13,13.0,0.333,0.162,100.0,2.0,6024.0,0.0,0.0,
2025-08-15T04:57:58.808Z,11,GR86-022-13,13.5,0.451,0.149,100.04,2.0,,0.0,0.0,102.95
2025-08-15T04:57:58.850Z,11,GR86-022-13,12.5,0.718,0.208,100.0,2.0,,0.0,0.0,
2025-08-15T04:57:58.893Z,11,GR86-022-13,10.3,0.756,0.119,100.03,2.0,,0.0,0.0,
2025-08-15T04:57:58.937Z,11,GR86-022-13,8.4,0.042,0.049,99.99,2.0,,0.0,0.0,
2025-08-15T04:57:58.979Z,11,GR86-022-13,8.3,0.161,0.112,100.0,2.0,6063.0,0.0,0.0,
2025-08-15T04:57:59.022Z,11,GR86-022-13,8.5,0.132,0.062,99.99,2.0,,0.0,0.0,105.02
2025-08-15T04:57:59.065Z,11,GR86-022-13,7.9,0.204,0.13,100.01,2.0,,0.0,0.0,
2025-08-15T04:57:59.108Z,11,GR86-022-13,6.1000000000000005,0.191,0.1,99.97,2.0,,0.0,0.0,
2025-08-15T04:57:59.151Z,11,GR86-022-13,5.1000000000000005,0.142,0.022,100.01,2.0,,0.0,0.0,
2025-08-15T04:57:59.194Z,11,GR86-022-13,5.1000000000000005,0.183,0.011,99.96,2.0,6446.0,0.0,0.0,
2025-08-15T04:57:59.238Z,11,GR86-022-13,5.800000000000001,0.426,-0.123,100.0,2.0,,0.0,0.0,106.48
2025-08-15T04:57:59.281Z,11,GR86-022-13,5.9,0.453,-0.15,100.0,2.0,,0.0,0.0,
2025-08-15T04:57:59.324Z,11,GR86-022-13,6.1000000000000005,0.426,-0.117,100.0,2.0,,0.0,0.0,
2025-08-15T04:57:59.368Z,11,GR86-022-13,6.6000000000000005,0.402,-0.125,100.01,2.0,,0.0,0.0,
2025-08-15T04:57:59.411Z,11,GR86-022-13,7.4,0.324,-0.117,100.0,2.0,6304.0,0.0,0.0,
2025-08-15T04:57:59.453Z,11,GR86-022-13,7.5,0.352,-0.081,100.02,2.0,,0.0,0.0,108.71
2025-08-15T04:57:59.497Z,11,GR86-022-13,7.1000000000000005,0.258,-0.056,100.0,2.0,,0.0,0.0,
2025-08-15T04:57:59.541Z,11,GR86-022-13,6.5,0.24,-0.066,100.0,2.0,,0.0,0.0,
2025-08-15T04:57:59.584Z,11,GR86-022-13,3.8,0.224,-0.035,100.02,2.0,,0.0,0.0,
2025-08-15T04:57:59.629Z,11,GR86-022-13,0.6000000000000001,0.301,-0.045,100.0,2.0,6547.0,0.0,0.0,
2025-08-15T04:57:59.671Z,11,GR86-022-13,-0.9,0.313,-0.057,99.98,2.0,,0.0,0.0,110.25
2025-08-15T04:57:59.714Z,11,GR86-022-13,0.0,0.259,-0.108,100.03,2.0,,0.0,0.0,
2025-08-15T04:57:59.758Z,11,GR86-022-13,4.6000000000000005,0.369,-0.098,100.0,2.0,,0.0,0.0,
2025-08-15T04:57:59.801Z,11,GR86-022-13,6.4,0.333,-0.103,100.0,2.0,,0.0,0.0,
2025-08-15T04:57:59.844Z,11,GR86-022-13,6.1000000000000005,0.346,-0.104,100.0,2.0,6524.0,0.0,0.0,
2025-08-15T04:57:59.888Z,11,GR86-022-13,3.9,0.331,-0.078,100.0,2.0,,0.0,0.0,113.75
2025-08-15T04:57:59.930Z,11,GR86-022-13,2.3000000000000003,0.297,-0.098,100.0,2.0,,0.0,0.0,
2025-08-15T04:57:59.973Z,11,GR86-022-13,2.1,0.27,-0.058,99.97,2.0,,0.0,0.0,
2025-08-15T04:58:00.017Z,11,GR86-022-13,2.3000000000000003,0.307,-0.038,100.0,2.0,,0.0,0.0,
2025-08-15T04:58:00.059Z,11,GR86-022-13,2.0,0.335,-0.002,99.98,2.0,6627.0,0.0,0.0,
2025-08-15T04:58:00.102Z,11,GR86-022-13,0.6000000000000001,0.315,-0.032,100.0,2.0,,0.0,0.0,115.43
2025-08-15T04:58:00.145Z,11,GR86-022-13,-0.8,0.291,-0.049,100.02,2.0,,0.0,0.0,
2025-08-15T04:58:00.188Z,11,GR86-022-13,-1.2000000000000002,0.296,-0.075,100.0,2.0,,0.0,0.0,
2025-08-15T04:58:00.274Z,11,GR86-022-13,-1.2000000000000002,0.289,-0.106,100.0,2.0,6675.0,0.0,0.0,
2025-08-15T04:58:00.318Z,11,GR86-022-13,-0.3,0.314,-0.123,100.03,2.0,,0.0,0.0,117.07
2025-08-15T04:58:00.360Z,11,GR86-022-13,0.6000000000000001,0.312,-0.11,99.99,2.0,,0.0,0.0,
2025-08-15T04:58:00.403Z,11,GR86-022-13,1.4,0.29,-0.112,100.0,2.0,,0.0,0.0,
2025-08-15T04:58:00.448Z,11,GR86-022-13,2.0,0.317,-0.098,99.99,2.0,,0.0,0.0,
2025-08-15T04:58:00.491Z,11,GR86-022-13,2.2,0.317,-0.085,100.0,2.0,6886.0,0.0,0.0,
2025-08-15T04:58:00.534Z,11,GR86-022-13,2.2,0.301,-0.057,99.99,2.0,,0.0,0.0,118.65
2025-08-15T04:58:00.578Z,11,GR86-022-13,2.2,0.3,-0.027,100.03,2.0,,0.0,0.0,
2025-08-15T04:58:00.621Z,11,GR86-022-13,2.2,0.307,-0.008,99.99,2.0,,0.0,0.0,
2025-08-15T04:58:00.664Z,11,GR86-022-13,2.2,0.32,-0.024,99.99,2.0,,0.0,0.0,
2025-08-15T04:58:00.708Z,11,GR86-022-13,2.2,0.29,-0.02,100.01,2.0,6953.0,0.0,0.0,
2025-08-15T04:58:00.750Z,11,GR86-022-13,2.2,0.312,-0.012,100.0,2.0,,0.0,0.0,120.21
2025-08-15T04:58:00.793Z,11,GR86-022-13,2.2,0.309,-0.018,99.99,2.0,,0.0,0.0,
2025-08-15T04:58:00.837Z,11,GR86-022-13,2.2,0.317,-0.005,100.01,2.0,,0.0,0.0,
2025-08-15T04:58:00.881Z,11,GR86-022-13,2.2,0.281,-0.006,100.01,2.0,,0.0,0.0,
2025-08-15T04:58:00.924Z,11,GR86-022-13,2.6,0.31,0.001,100.0,2.0,7026.0,0.0,0.0,
2025-08-15T04:58:00.968Z,11,GR86-022-13,3.0,0.316,-0.004,100.0,2.0,,0.0,0.0,121.71
2025-08-15T04:58:01.010Z,11,GR86-022-13,3.2,0.288,0.003,99.99,2.0,,0.0,0.0,
2025-08-15T04:58:01.053Z,11,GR86-022-13,3.3000000000000003,0.3,-0.003,99.99,2.0,,0.0,0.0,
2025-08-15T04:58:01.097Z,11,GR86-022-13,3.3000000000000003,0.28,0.012,99.97,2.0,,0.0,0.0,
2025-08-15T04:58:01.141Z,11,GR86-022-13,3.3000000000000003,0.297,-0.004,100.0,2.0,7115.0,0.0,0.0,
2025-08-15T04:58:01.184Z,11,GR86-022-13,3.3000000000000003,0.293,-0.002,100.02,2.0,,0.0,0.0,123.08
2025-08-15T04:58:01.228Z,11,GR86-022-13,3.3000000000000003,0.295,0.01,100.02,2.0,,0.0,0.0,
2025-08-15T04:58:01.270Z,11,GR86-022-13,3.3000000000000003,0.307,-0.002,99.99,2.0,,0.0,0.0,
2025-08-15T04:58:01.313Z,11,GR86-022-13,3.3000000000000003,0.29,-0.016,100.02,2.0,,0.0,0.0,
2025-08-15T04:58:01.357Z,11,GR86-022-13,3.3000000000000003,0.301,-0.006,99.97,2.0,7171.0,0.0,0.0,
2025-08-15T04:58:01.399Z,11,GR86-022-13,3.2,0.142,-0.014,99.97,2.0,,0.0,0.0,124.37
2025-08-15T04:58:01.443Z,11,GR86-022-13,3.2,-0.092,0.021,99.98,3.0,,0.0,0.0,
2025-08-15T04:58:01.487Z,11,GR86-022-13,3.4000000000000004,0.704,-0.001,99.97,3.0,,0.0,0.0,
2025-08-15T04:58:01.529Z,11,GR86-022-13,3.7,0.405,-0.118,99.96,3.0,,0.0,0.0,
2025-08-15T04:58:01.572Z,11,GR86-022-13,3.7,0.387,0.01,99.97,3.0,7255.0,0.0,0.0,
2025-08-15T04:58:01.615Z,11,GR86-022-13,3.7,0.15,0.025,99.97,3.0,,0.0,0.0,125.55
2025-08-15T04:58:01.658Z,11,GR86-022-13,3.7,0.239,-0.047,99.97,3.0,,0.0,0.0,
2025-08-15T04:58:01.701Z,11,GR86-022-13,3.7,0.32,0.036,99.97,3.0,,1.955,2.215,
2025-08-15T04:58:01.744Z,11,GR86-022-13,3.7,0.274,-0.041,99.99,3.0,,0.0,0.0,
2025-08-15T04:58:01.788Z,11,GR86-022-13,3.7,0.247,-0.031,99.97,3.0,6677.0,0.0,0.0,
2025-08-15T04:58:01.831Z,11,GR86-022-13,3.7,0.236,0.02,99.97,3.0,,0.0,1.925,126.77
2025-08-15T04:58:01.873Z,11,GR86-022-13,3.7,0.198,-0.037,99.97,3.0,,4.655,4.745,
2025-08-15T04:58:01.917Z,11,GR86-022-13,3.7,0.246,-0.009,99.97,3.0,,0.0,0.0,
2025-08-15T04:58:01.959Z,11,GR86-022-13,3.7,0.217,0.004,99.97,3.0,,5.37,5.8,
2025-08-15T04:58:02.002Z,11,GR86-022-13,3.6,0.23,-0.001,99.99,3.0,6082.0,4.99,5.25,
2025-08-15T04:58:02.045Z,11,GR86-022-13,3.3000000000000003,0.252,0.01,100.0,3.0,,2.395,2.76,127.92
2025-08-15T04:58:02.088Z,11,GR86-022-13,2.7,0.183,0.002,99.98,3.0,,5.6450000000000005,6.0600000000000005,
2025-08-15T04:58:02.131Z,11,GR86-022-13,2.3000000000000003,0.171,0.026,99.97,3.0,,6.455,6.96,
2025-08-15T04:58:02.174Z,11,GR86-022-13,2.2,0.217,-0.004,100.02,3.0,,6.805,7.140000000000001,
2025-08-15T04:58:02.218Z,11,GR86-022-13,2.2,0.192,-0.011,100.03,3.0,6059.0,9.28,9.4,
2025-08-15T04:58:02.261Z,11,GR86-022-13,2.2,0.143,-0.045,99.99,3.0,,7.555,7.86,128.91
2025-08-15T04:58:02.305Z,11,GR86-022-13,2.2,0.14,-0.037,100.0,3.0,,2.045,2.455,
2025-08-15T04:58:02.348Z,11,GR86-022-13,2.2,0.25,-0.024,99.98,3.0,,0.0,0.0,
2025-08-15T04:58:02.391Z,11,GR86-022-13,2.2,0.299,-0.062,100.0,3.0,,0.0,0.0,
2025-08-15T04:58:02.434Z,11,GR86-022-13,2.8000000000000003,0.211,-0.061,100.01,3.0,6070.0,0.0,0.0,
2025-08-15T04:58:02.478Z,11,GR86-022-13,4.5,0.235,-0.064,100.03,3.0,,0.0,0.0,130.04
2025-08-15T04:58:02.521Z,11,GR86-022-13,5.800000000000001,0.187,-0.031,100.01,3.0,,0.0,0.0,
2025-08-15T04:58:02.564Z,11,GR86-022-13,5.9,0.279,-0.003,99.97,3.0,,0.0,0.0,
2025-08-15T04:58:02.608Z,11,GR86-022-13,5.2,0.293,-0.008,99.98,3.0,,0.0,0.0,
2025-08-15T04:58:02.650Z,11,GR86-022-13,4.0,0.208,-0.003,100.0,3.0,6088.0,0.0,0.0,
2025-08-15T04:58:02.693Z,11,GR86-022-13,2.0,0.212,0.025,100.01,3.0,,0.0,0.0,130.64
2025-08-15T04:58:02.737Z,11,GR86-022-13,0.8,0.191,-0.006,99.99,3.0,,0.0,0.0,
2025-08-15T04:58:02.779Z,11,GR86-022-13,0.6000000000000001,0.288,0.0,100.02,3.0,,0.0,0.0,
2025-08-15T04:58:02.822Z,11,GR86-022-13,0.8,0.289,-0.042,100.01,3.0,,0.0,0.0,
2025-08-15T04:58:02.865Z,11,GR86-022-13,1.5,0.179,-0.053,99.99,3.0,6117.0,0.0,0.0,
2025-08-15T04:58:02.908Z,11,GR86-022-13,2.1,0.217,-0.043,99.99,3.0,,2.855,2.975,131.58
2025-08-15T04:58:02.951Z,11,GR86-022-13,3.5,0.272,-0.039,93.17,3.0,,6.21,6.3,
2025-08-15T04:58:02.994Z,11,GR86-022-13,4.9,0.157,-0.048,30.33,3.0,,12.955,12.985,
2025-08-15T04:58:03.038Z,11,GR86-022-13,7.0,-0.001,-0.036,2.94,3.0,,26.2,26.11,
2025-08-15T04:58:03.081Z,11,GR86-022-13,9.6,-0.429,-0.009,2.9,3.0,6212.0,34.0,33.845,
2025-08-15T04:58:03.124Z,11,GR86-022-13,13.3,-0.622,0.088,2.87,3.0,,40.24,40.06,132.54
2025-08-15T04:58:03.168Z,11,GR86-022-13,16.6,-0.645,0.08,2.85,3.0,,46.055,45.75,
2025-08-15T04:58:03.210Z,11,GR86-022-13,17.900000000000002,-0.794,0.077,2.81,3.0,,52.22,52.71,
2025-08-15T04:58:03.253Z,11,GR86-022-13,18.3,-0.87,0.182,2.79,3.0,,59.865,60.98,
2025-08-15T04:58:03.299Z,11,GR86-022-13,20.3,-1.047,0.149,48.88,3.0,6000.0,67.39,67.465,
2025-08-15T04:58:03.341Z,11,GR86-022-13,22.6,-0.906,0.235,69.76,2.0,,72.21000000000001,73.265,132.86
2025-08-15T04:58:03.384Z,11,GR86-022-13,25.6,-1.069,0.192,8.03,2.0,,76.865,77.795,
2025-08-15T04:58:03.428Z,11,GR86-022-13,26.5,-1.01,0.269,4.04,2.0,,77.4,78.77,
2025-08-15T04:58:03.470Z,11,GR86-022-13,25.700000000000003,-1.246,0.329,3.48,2.0,,78.025,79.4,
2025-08-15T04:58:03.513Z,11,GR86-022-13,25.9,-1.179,0.371,3.28,2.0,5512.0,67.815,67.555,
2025-08-15T04:58:03.557Z,11,GR86-022-13,26.6,-0.962,0.48,3.09,2.0,,52.02,53.275,128.1
2025-08-15T04:58:03.599Z,11,GR86-022-13,26.6,-0.719,0.626,3.03,2.0,,45.72,46.145,
2025-08-15T04:58:03.642Z,11,GR86-022-13,26.6,-0.971,0.624,2.93,2.0,,40.365,40.895,
2025-08-15T04:58:03.685Z,11,GR86-022-13,29.700000000000003,-0.806,0.658,2.83,2.0,,37.235,38.35,
2025-08-15T04:58:03.728Z,11,GR86-022-13,33.1,-0.586,0.766,2.75,2.0,5731.0,36.335,36.99,
2025-08-15T04:58:03.771Z,11,GR86-022-13,34.5,-0.743,0.787,2.67,2.0,,32.305,32.93,117.77
2025-08-15T04:58:03.814Z,11,GR86-022-13,37.4,-0.5710000000000001,0.802,2.61,2.0,,31.51,32.045,
2025-08-15T04:58:03.858Z,11,GR86-022-13,40.7,-0.548,0.773,2.5500000000000003,2.0,,26.2,26.84,
2025-08-15T04:58:03.901Z,11,GR86-022-13,42.0,-0.53,0.86,2.54,2.0,,21.5,22.02,
2025-08-15T04:58:03.944Z,11,GR86-022-13,42.0,-0.53,0.8300000000000001,2.51,2.0,6076.0,20.42,20.66,
2025-08-15T04:58:03.988Z,11,GR86-022-13,43.5,-0.5,0.763,2.51,2.0,,19.79,20.205,114.75
2025-08-15T04:58:04.031Z,11,GR86-022-13,47.7,-0.496,0.849,2.5,2.0,,20.695,20.905,
2025-08-15T04:58:04.075Z,11,GR86-022-13,50.3,-0.513,0.872,2.5,2.0,,21.685,21.96,
2025-08-15T04:58:04.118Z,11,GR86-022-13,52.400000000000006,-0.505,0.885,2.5,2.0,,22.875,23.335,
2025-08-15T04:58:04.161Z,11,GR86-022-13,52.400000000000006,-0.507,0.934,2.5,2.0,5928.0,23.24,23.715,
2025-08-15T04:58:04.204Z,11,GR86-022-13,52.400000000000006,-0.533,0.887,2.5,2.0,,24.11,24.49,110.3
2025-08-15T04:58:04.248Z,11,GR86-022-13,51.400000000000006,-0.562,0.98,2.5,2.0,,25.3,25.575,
2025-08-15T04:58:04.291Z,11,GR86-022-13,44.6,-0.453,1.033,2.5,2.0,,25.3,25.835,
2025-08-15T04:58:04.334Z,11,GR86-022-13,34.0,-0.472,0.987,2.5,2.0,,23.805,24.46,
2025-08-15T04:58:04.378Z,11,GR86-022-13,28.1,-0.488,0.938,2.5,2.0,5716.0,16.495,16.97,
2025-08-15T04:58:04.421Z,11,GR86-022-13,32.4,-0.457,0.959,2.5,2.0,,8.73,9.005,106.54
2025-08-15T04:58:04.464Z,11,GR86-022-13,40.3,-0.273,1.042,2.5,2.0,,2.335,2.58,
2025-08-15T04:58:04.508Z,11,GR86-022-13,47.2,-0.158,1.127,2.5,2.0,,0.0,0.0,
2025-08-15T04:58:04.550Z,11,GR86-022-13,47.8,-0.156,1.158,2.5,2.0,,0.0,0.0,
2025-08-15T04:58:04.593Z,11,GR86-022-13,39.5,-0.12,1.149,2.49,2.0,5380.0,0.0,0.0,
2025-08-15T04:58:04.637Z,11,GR86-022-13,24.6,-0.124,1.162,2.5,2.0,,0.0,0.0,102.98
2025-08-15T04:58:04.679Z,11,GR86-022-13,18.1,-0.139,1.196,2.5,2.0,,0.0,0.0,
2025-08-15T04:58:04.722Z,11,GR86-022-13,11.5,-0.108,1.166,2.5,2.0,,0.0,0.0,
2025-08-15T04:58:04.765Z,11,GR86-022-13,7.4,-0.094,1.118,2.5,2.0,,0.0,0.0,
2025-08-15T04:58:04.808Z,11,GR86-022-13,7.5,-0.087,1.08,2.51,2.0,5248.0,0.0,0.0,
2025-08-15T04:58:04.851Z,11,GR86-022-13,12.2,-0.105,1.087,2.5,2.0,,0.0,0.0,98.74
2025-08-15T04:58:04.894Z,11,GR86-022-13,25.0,-0.094,1.098,2.5,2.0,,0.0,0.0,
2025-08-15T04:58:04.938Z,11,GR86-022-13,58.400000000000006,-0.129,1.204,8.65,2.0,,0.0,0.0,
2025-08-15T04:58:04.981Z,11,GR86-022-13,79.9,-0.145,1.283,20.2,2.0,,0.0,0.0,
2025-08-15T04:58:05.024Z,11,GR86-022-13,92.0,-0.163,1.244,21.4,2.0,5223.0,0.0,0.0,
2025-08-15T04:58:05.068Z,11,GR86-022-13,92.6,-0.144,1.281,23.91,2.0,,0.0,0.0,96.88
2025-08-15T04:58:05.110Z,11,GR86-022-13,89.2,-0.13,1.252,37.73,2.0,,0.0,0.0,
2025-08-15T04:58:05.153Z,11,GR86-022-13,87.80000000000001,-0.099,1.235,41.23,2.0,,0.0,0.0,
2025-08-15T04:58:05.197Z,11,GR86-022-13,86.0,-0.022,1.18,45.28,2.0,,0.0,0.0,
2025-08-15T04:58:05.241Z,11,GR86-022-13,82.30000000000001,0.299,1.095,45.81,2.0,5179.0,0.0,0.0,
2025-08-15T04:58:05.284Z,11,GR86-022-13,76.9,0.318,1.094,69.58,2.0,,0.0,0.0,92.93
2025-08-15T04:58:05.328Z,11,GR86-022-13,71.60000000000001,0.31,1.096,99.28,2.0,,0.0,0.0,
2025-08-15T04:58:05.371Z,11,GR86-022-13,68.5,0.3,1.184,100.14,2.0,,0.0,0.0,
2025-08-15T04:58:05.414Z,11,GR86-022-13,67.10000000000001,0.272,1.076,100.15,2.0,,0.0,0.0,
2025-08-15T04:58:05.458Z,11,GR86-022-13,66.5,0.307,1.168,100.14,2.0,5161.0,0.0,0.0,
2025-08-15T04:58:05.501Z,11,GR86-022-13,66.5,0.286,1.098,100.16,2.0,,0.0,0.0,91.88
2025-08-15T04:58:05.544Z,11,GR86-022-13,68.0,0.142,1.162,100.14,2.0,,0.0,0.0,
2025-08-15T04:58:05.588Z,11,GR86-022-13,71.2,0.326,1.278,100.15,2.0,,0.0,0.0,
2025-08-15T04:58:05.630Z,11,GR86-022-13,75.5,0.457,1.192,100.16,2.0,,0.0,0.0,
2025-08-15T04:58:05.673Z,11,GR86-022-13,79.10000000000001,0.171,1.001,100.16,2.0,5585.0,0.0,0.0,
2025-08-15T04:58:05.717Z,11,GR86-022-13,79.5,0.486,1.02,100.15,2.0,,0.0,0.0,92.86
2025-08-15T04:58:05.760Z,11,GR86-022-13,79.2,0.12,1.045,100.14,2.0,,0.0,0.0,
2025-08-15T04:58:05.804Z,11,GR86-022-13,79.2,-0.004,1.04,100.15,2.0,,0.0,0.0,
2025-08-15T04:58:05.848Z,11,GR86-022-13,79.10000000000001,0.332,1.2,100.14,2.0,,0.0,0.0,
2025-08-15T04:58:05.891Z,11,GR86-022-13,78.80000000000001,0.613,1.06,100.13,2.0,5654.0,0.0,0.0,
2025-08-15T04:58:05.935Z,11,GR86-022-13,78.60000000000001,0.369,1.1,100.13,2.0,,0.0,0.0,94.6
2025-08-15T04:58:05.978Z,11,GR86-022-13,74.7,0.548,1.105,100.13,2.0,,0.0,0.0,
2025-08-15T04:58:06.021Z,11,GR86-022-13,70.60000000000001,0.257,1.254,100.13,2.0,,0.0,0.0,
2025-08-15T04:58:06.064Z,11,GR86-022-13,64.3,0.251,1.297,100.11,2.0,,0.0,0.0,
2025-08-15T04:58:06.108Z,11,GR86-022-13,57.0,0.261,1.288,100.1,2.0,5808.0,0.0,0.0,
2025-08-15T04:58:06.150Z,11,GR86-022-13,47.5,0.271,1.266,100.1,2.0,,0.0,0.0,95.9
2025-08-15T04:58:06.193Z,11,GR86-022-13,37.5,0.304,1.203,100.09,2.0,,0.0,0.0,
2025-08-15T04:58:06.237Z,11,GR86-022-13,28.4,0.291,1.091,100.11,2.0,,0.0,0.0,
2025-08-15T04:58:06.281Z,11,GR86-022-13,26.0,0.288,1.036,100.13,2.0,,0.0,0.0,
2025-08-15T04:58:06.324Z,11,GR86-022-13,26.200000000000003,0.258,1.031,100.12,2.0,5806.0,0.0,0.0,
2025-08-15T04:58:06.368Z,11,GR86-022-13,30.4,0.308,1.071,100.1,2.0,,0.0,0.0,97.51
2025-08-15T04:58:06.410Z,11,GR86-022-13,38.0,0.326,1.092,100.13,2.0,,0.0,0.0,
2025-08-15T04:58:06.453Z,11,GR86-022-13,44.900000000000006,0.323,1.11,100.1,2.0,,0.0,0.0,
2025-08-15T04:58:06.498Z,11,GR86-022-13,50.0,0.274,1.067,100.09,2.0,,0.0,0.0,
2025-08-15T04:58:06.541Z,11,GR86-022-13,52.6,0.259,1.076,100.1,2.0,5895.0,0.0,0.0,
2025-08-15T04:58:06.584Z,11,GR86-022-13,56.400000000000006,0.273,1.099,100.1,2.0,,0.0,0.0,99.41
2025-08-15T04:58:06.628Z,11,GR86-022-13,59.6,0.278,1.075,100.11,2.0,,0.0,0.0,
2025-08-15T04:58:06.670Z,11,GR86-022-13,59.5,0.246,1.088,100.06,2.0,,0.0,0.0,
2025-08-15T04:58:06.713Z,11,GR86-022-13,53.1,0.281,1.093,100.06,2.0,,0.0,0.0,
2025-08-15T04:58:06.757Z,11,GR86-022-13,39.0,0.273,1.085,100.06,2.0,5984.0,0.0,0.0,
2025-08-15T04:58:06.799Z,11,GR86-022-13,32.800000000000004,0.281,1.149,100.08,2.0,,0.0,0.0,100.65
2025-08-15T04:58:06.843Z,11,GR86-022-13,32.4,0.328,1.107,100.04,2.0,,0.0,0.0,
2025-08-15T04:58:06.887Z,11,GR86-022-13,33.4,0.296,1.125,100.03,2.0,,0.0,0.0,
2025-08-15T04:58:06.929Z,11,GR86-022-13,32.9,0.29,1.142,100.03,2.0,,0.0,0.0,
2025-08-15T04:58:06.972Z,11,GR86-022-13,30.5,0.283,1.16,100.03,2.0,6113.0,0.0,0.0,
2025-08-15T04:58:07.015Z,11,GR86-022-13,28.9,0.28,1.168,100.03,2.0,,0.0,0.0,101.92
2025-08-15T04:58:07.058Z,11,GR86-022-13,31.5,0.291,1.151,100.0,2.0,,0.0,0.0,
2025-08-15T04:58:07.101Z,11,GR86-022-13,34.0,0.291,1.087,100.0,2.0,,0.0,0.0,
2025-08-15T04:58:07.144Z,11,GR86-022-13,35.300000000000004,0.282,1.165,100.01,2.0,,0.0,0.0,
2025-08-15T04:58:07.188Z,11,GR86-022-13,34.800000000000004,0.374,0.881,100.0,2.0,6207.0,0.0,0.0,
