timestamp,lap,vehicle_id,steering_angle,accx_can,accy_can,ath,gear,nmot,pbrake_f,pbrake_r,speed
2025-08-15T04:25:18.976Z,3,GR86-065-5,0.0,0.126,-0.01,100.01,5.0,6397.0,0.0,0.0,
2025-08-15T04:25:19.062Z,3,GR86-065-5,0.0,0.118,-0.029,100.01,5.0,,0.0,0.0,188.35
2025-08-15T04:25:19.105Z,3,GR86-065-5,-2.5,0.078,-0.085,100.01,5.0,,0.0,0.0,
2025-08-15T04:25:19.148Z,3,GR86-065-5,-2.9000000000000004,0.1,-0.1,100.01,5.0,,0.0,0.0,
2025-08-15T04:25:19.191Z,3,GR86-065-5,-2.9000000000000004,0.095,-0.124,99.99,5.0,6397.0,0.0,0.0,
2025-08-15T04:25:19.234Z,3,GR86-065-5,-2.9000000000000004,0.102,-0.155,100.01,5.0,,0.0,0.0,188.35
2025-08-15T04:25:19.277Z,3,GR86-065-5,-2.9000000000000004,0.123,-0.139,100.0,5.0,,0.0,0.0,
2025-08-15T04:25:19.322Z,3,GR86-065-5,-3.0,0.092,-0.193,99.97,5.0,,0.0,0.0,
2025-08-15T04:25:19.365Z,3,GR86-065-5,-3.0,0.088,-0.196,100.02,5.0,,0.0,0.0,
2025-08-15T04:25:19.408Z,3,GR86-065-5,-3.0,0.094,-0.201,99.98,5.0,6417.0,0.0,0.0,
2025-08-15T04:25:19.452Z,3,GR86-065-5,-3.0,0.074,-0.198,100.01,5.0,,0.0,0.0,189.07
2025-08-15T04:25:19.495Z,3,GR86-065-5,-3.0,0.092,-0.172,99.99,5.0,,0.0,0.0,
2025-08-15T04:25:19.538Z,3,GR86-065-5,-3.0,0.09,-0.167,100.02,5.0,,0.0,0.0,
2025-08-15T04:25:19.581Z,3,GR86-065-5,-3.0,0.1,-0.152,99.99,5.0,,0.0,0.0,
2025-08-15T04:25:19.625Z,3,GR86-065-5,-3.0,0.111,-0.152,100.01,5.0,6450.0,0.0,0.0,
2025-08-15T04:25:19.668Z,3,GR86-065-5,-3.0,0.102,-0.144,99.99,5.0,,0.0,0.0,189.72
2025-08-15T04:25:19.711Z,3,GR86-065-5,-3.0,0.086,-0.148,99.99,5.0,,0.0,0.0,
2025-08-15T04:25:19.755Z,3,GR86-065-5,-3.0,0.111,-0.149,100.01,5.0,,0.0,0.0,
2025-08-15T04:25:19.798Z,3,GR86-065-5,-3.0,0.078,-0.122,100.01,5.0,,0.0,0.0,
2025-08-15T04:25:19.842Z,3,GR86-065-5,-3.0,0.131,-0.088,100.01,5.0,6470.0,0.0,0.0,
2025-08-15T04:25:19.885Z,3,GR86-065-5,-2.8000000000000003,0.128,-0.102,99.98,5.0,,0.0,0.0,190.5
2025-08-15T04:25:19.928Z,3,GR86-065-5,-2.5,0.111,-0.091,100.01,5.0,,0.0,0.0,
2025-08-15T04:25:19.971Z,3,GR86-065-5,-2.4000000000000004,0.109,-0.085,99.98,5.0,,0.0,0.0,
2025-08-15T04:25:20.014Z,3,GR86-065-5,-2.3000000000000003,0.105,-0.048,100.0,5.0,,0.0,0.0,
2025-08-15T04:25:20.057Z,3,GR86-065-5,-2.0,0.104,-0.04,100.0,5.0,6490.0,0.0,0.0,
2025-08-15T04:25:20.100Z,3,GR86-065-5,-0.7000000000000001,0.113,-0.018,100.0,5.0,,0.0,0.0,191.19
2025-08-15T04:25:20.143Z,3,GR86-065-5,0.4,0.11,-0.001,100.02,5.0,,0.0,0.0,
2025-08-15T04:25:20.186Z,3,GR86-065-5,0.9,0.12,0.029,100.0,5.0,,0.0,0.0,
2025-08-15T04:25:20.229Z,3,GR86-065-5,1.0,0.13,0.068,100.0,5.0,,0.0,0.0,
2025-08-15T04:25:20.272Z,3,GR86-065-5,1.0,0.132,0.086,100.0,5.0,6513.0,0.0,0.0,
2025-08-15T04:25:20.315Z,3,GR86-065-5,0.9,0.13,0.084,100.01,5.0,,0.0,0.0,192.0
2025-08-15T04:25:20.358Z,3,GR86-065-5,0.9,0.113,0.106,100.01,5.0,,0.0,0.0,
2025-08-15T04:25:20.401Z,3,GR86-065-5,0.9,0.113,0.115,100.0,5.0,,0.0,0.0,
2025-08-15T04:25:20.444Z,3,GR86-065-5,0.9,0.118,0.111,100.01,5.0,,0.0,0.0,
2025-08-15T04:25:20.487Z,3,GR86-065-5,0.9,0.122,0.113,99.98,5.0,6541.0,0.0,0.0,
2025-08-15T04:25:20.530Z,3,GR86-065-5,1.0,0.132,0.076,100.0,5.0,,0.0,0.0,192.77
2025-08-15T04:25:20.573Z,3,GR86-065-5,1.0,0.139,0.071,100.01,5.0,,0.0,0.0,
2025-08-15T04:25:20.616Z,3,GR86-065-5,0.9,0.11,0.051,100.0,5.0,,0.0,0.0,
2025-08-15T04:25:20.658Z,3,GR86-065-5,0.9,0.108,0.032,100.01,5.0,,0.0,0.0,
2025-08-15T04:25:20.702Z,3,GR86-065-5,1.0,0.109,0.03,100.0,5.0,6564.0,0.0,0.0,
2025-08-15T04:25:20.745Z,3,GR86-065-5,0.9,0.119,0.01,100.0,5.0,,0.0,0.0,194.26
2025-08-15T04:25:20.788Z,3,GR86-065-5,1.0,0.121,0.028,100.0,5.0,,0.0,0.0,
2025-08-15T04:25:20.831Z,3,GR86-065-5,0.9,0.115,0.03,100.0,5.0,,0.0,0.0,
2025-08-15T04:25:20.874Z,3,GR86-065-5,0.9,0.131,0.024,99.98,5.0,,0.0,0.0,
2025-08-15T04:25:20.917Z,3,GR86-065-5,1.0,0.115,0.026,100.0,5.0,6597.0,0.0,0.0,
2025-08-15T04:25:20.960Z,3,GR86-065-5,0.9,0.102,0.016,99.99,5.0,,0.0,0.0,195.11
2025-08-15T04:25:21.002Z,3,GR86-065-5,0.9,0.105,0.022,100.01,5.0,,0.0,0.0,
2025-08-15T04:25:21.046Z,3,GR86-065-5,0.9,0.122,0.01,99.97,5.0,,0.0,0.0,
2025-08-15T04:25:21.088Z,3,GR86-065-5,0.9,0.111,0.02,100.01,5.0,,0.0,0.0,
2025-08-15T04:25:21.132Z,3,GR86-065-5,1.0,0.112,0.057,100.01,5.0,6619.0,0.0,0.0,
2025-08-15T04:25:21.175Z,3,GR86-065-5,0.9,0.106,0.031,99.99,5.0,,0.0,0.0,195.84
2025-08-15T04:25:21.218Z,3,GR86-065-5,1.0,0.097,0.024,99.99,5.0,,0.0,0.0,
2025-08-15T04:25:21.261Z,3,GR86-065-5,1.0,0.097,0.037,100.0,5.0,,0.0,0.0,
2025-08-15T04:25:21.304Z,3,GR86-065-5,0.9,0.099,0.016,100.0,5.0,,0.0,0.0,
2025-08-15T04:25:21.347Z,3,GR86-065-5,0.9,0.125,0.022,99.98,5.0,6672.0,0.0,0.0,
2025-08-15T04:25:21.390Z,3,GR86-065-5,0.5,0.108,0.001,100.0,5.0,,0.0,0.0,196.57
2025-08-15T04:25:21.433Z,3,GR86-065-5,0.2,0.101,-0.031,100.01,5.0,,0.0,0.0,
2025-08-15T04:25:21.476Z,3,GR86-065-5,0.1,0.099,-0.005,100.01,5.0,,0.0,0.0,
2025-08-15T04:25:21.518Z,3,GR86-065-5,0.1,0.084,-0.031,99.98,5.0,,0.0,0.0,
2025-08-15T04:25:21.562Z,3,GR86-065-5,0.1,0.109,-0.035,99.98,5.0,6696.0,0.0,0.0,
2025-08-15T04:25:21.605Z,3,GR86-065-5,0.1,0.12,-0.045,99.98,5.0,,0.0,0.0,197.29
2025-08-15T04:25:21.648Z,3,GR86-065-5,0.1,0.1,-0.039,99.99,5.0,,0.0,0.0,
2025-08-15T04:25:21.777Z,3,GR86-065-5,0.0,0.096,-0.038,100.0,5.0,6721.0,0.0,0.0,
2025-08-15T04:25:21.820Z,3,GR86-065-5,0.0,0.106,-0.026,100.0,5.0,,0.0,0.0,198.02
2025-08-15T04:25:21.862Z,3,GR86-065-5,0.0,0.123,-0.032,100.01,5.0,,0.0,0.0,
2025-08-15T04:25:21.906Z,3,GR86-065-5,0.0,0.095,-0.036,100.01,5.0,,0.0,0.0,
2025-08-15T04:25:21.949Z,3,GR86-065-5,0.0,0.082,-0.026,100.01,5.0,,0.0,0.0,
2025-08-15T04:25:21.992Z,3,GR86-065-5,0.0,0.078,-0.003,99.99,5.0,6750.0,0.0,0.0,
2025-08-15T04:25:22.035Z,3,GR86-065-5,0.0,0.086,-0.003,100.01,5.0,,0.0,0.0,198.75
2025-08-15T04:25:22.077Z,3,GR86-065-5,0.0,0.08,-0.004,100.01,5.0,,0.0,0.0,
2025-08-15T04:25:22.121Z,3,GR86-065-5,0.0,0.086,-0.008,99.98,5.0,,0.0,0.0,
2025-08-15T04:25:22.164Z,3,GR86-065-5,0.0,0.088,-0.003,100.01,5.0,,0.0,0.0,
2025-08-15T04:25:22.207Z,3,GR86-065-5,0.0,0.077,-0.024,100.02,5.0,6772.0,0.0,0.0,
2025-08-15T04:25:22.250Z,3,GR86-065-5,0.0,0.08,0.008,100.01,5.0,,0.0,0.0,199.51
2025-08-15T04:25:22.293Z,3,GR86-065-5,0.0,0.097,0.005,100.0,5.0,,0.0,0.0,
2025-08-15T04:25:22.336Z,3,GR86-065-5,0.0,0.095,-0.002,100.0,5.0,,0.0,0.0,
2025-08-15T04:25:22.379Z,3,GR86-065-5,0.0,0.125,-0.009,100.0,5.0,,0.0,0.0,
2025-08-15T04:25:22.422Z,3,GR86-065-5,0.0,0.076,-0.009,100.01,5.0,6791.0,0.0,0.0,
2025-08-15T04:25:22.465Z,3,GR86-065-5,0.0,0.088,0.002,100.01,5.0,,0.0,0.0,200.25
2025-08-15T04:25:22.508Z,3,GR86-065-5,0.0,0.101,-0.009,99.98,5.0,,0.0,0.0,
2025-08-15T04:25:22.551Z,3,GR86-065-5,-0.2,0.105,-0.032,100.01,5.0,,0.0,0.0,
2025-08-15T04:25:22.594Z,3,GR86-065-5,-1.2000000000000002,0.125,-0.032,100.02,5.0,,0.0,0.0,
2025-08-15T04:25:22.637Z,3,GR86-065-5,-3.3000000000000003,0.101,-0.052,100.02,5.0,6823.0,0.0,0.0,
2025-08-15T04:25:22.680Z,3,GR86-065-5,-5.6000000000000005,0.087,-0.12,100.0,5.0,,0.0,0.0,200.91
2025-08-15T04:25:22.722Z,3,GR86-065-5,-6.2,0.114,-0.162,100.01,5.0,,0.0,0.0,
2025-08-15T04:25:22.766Z,3,GR86-065-5,-6.2,0.114,-0.219,100.02,5.0,,0.0,0.0,
2025-08-15T04:25:22.808Z,3,GR86-065-5,-6.2,0.102,-0.231,100.01,5.0,,0.0,0.0,
2025-08-15T04:25:22.852Z,3,GR86-065-5,-6.2,0.077,-0.275,100.0,5.0,6854.0,0.0,0.0,
2025-08-15T04:25:22.895Z,3,GR86-065-5,-6.2,0.072,-0.297,99.98,5.0,,0.0,0.0,201.69
2025-08-15T04:25:22.938Z,3,GR86-065-5,-6.2,0.074,-0.292,99.99,5.0,,0.0,0.0,
2025-08-15T04:25:22.981Z,3,GR86-065-5,-6.2,0.109,-0.304,100.0,5.0,,0.0,0.0,
2025-08-15T04:25:23.024Z,3,GR86-065-5,-6.300000000000001,0.089,-0.304,100.02,5.0,,0.0,0.0,
2025-08-15T04:25:23.067Z,3,GR86-065-5,-6.300000000000001,0.077,-0.294,100.0,5.0,6875.0,0.0,0.0,
2025-08-15T04:25:23.111Z,3,GR86-065-5,-6.300000000000001,0.073,-0.211,99.98,5.0,,0.0,0.0,202.59
2025-08-15T04:25:23.154Z,3,GR86-065-5,-6.300000000000001,0.082,-0.181,99.98,5.0,,0.0,0.0,
2025-08-15T04:25:23.197Z,3,GR86-065-5,-5.300000000000001,0.081,-0.153,99.99,5.0,,0.0,0.0,
2025-08-15T04:25:23.242Z,3,GR86-065-5,-3.9,0.063,-0.156,100.02,5.0,,0.0,0.0,
2025-08-15T04:25:23.285Z,3,GR86-065-5,-3.5,0.056,-0.14,100.03,5.0,6906.0,0.0,0.0,
2025-08-15T04:25:23.328Z,3,GR86-065-5,-3.5,0.077,-0.105,100.01,5.0,,0.0,0.0,203.39
2025-08-15T04:25:23.371Z,3,GR86-065-5,-3.5,0.085,-0.089,100.0,5.0,,0.0,0.0,
2025-08-15T04:25:23.415Z,3,GR86-065-5,-3.3000000000000003,0.096,-0.068,100.01,5.0,,0.0,0.0,
2025-08-15T04:25:23.458Z,3,GR86-065-5,-3.3000000000000003,0.11,-0.023,100.0,5.0,,0.0,0.0,
2025-08-15T04:25:23.502Z,3,GR86-065-5,-3.1,0.087,0.016,100.01,5.0,6930.0,0.0,0.0,
2025-08-15T04:25:23.545Z,3,GR86-065-5,-2.5,0.084,0.017,99.99,5.0,,0.0,0.0,204.93
2025-08-15T04:25:23.588Z,3,GR86-065-5,-1.7000000000000002,0.095,0.012,100.01,5.0,,0.0,0.0,
2025-08-15T04:25:23.631Z,3,GR86-065-5,-1.1,0.087,-0.004,100.02,5.0,,0.0,0.0,
2025-08-15T04:25:23.674Z,3,GR86-065-5,-1.0,0.084,0.001,100.0,5.0,,0.0,0.0,
2025-08-15T04:25:23.717Z,3,GR86-065-5,-1.0,0.056,0.013,100.01,5.0,6948.0,0.0,0.0,
2025-08-15T04:25:23.760Z,3,GR86-065-5,-1.0,0.086,0.014,99.99,5.0,,0.0,0.0,205.65
2025-08-15T04:25:23.804Z,3,GR86-065-5,-1.0,0.069,0.013,100.0,5.0,,0.0,0.0,
2025-08-15T04:25:23.847Z,3,GR86-065-5,-1.0,0.056,-0.023,99.98,5.0,,0.0,0.0,
2025-08-15T04:25:23.890Z,3,GR86-065-5,-1.0,0.041,-0.004,100.0,5.0,,0.0,0.0,
2025-08-15T04:25:23.932Z,3,GR86-065-5,-1.0,0.067,-0.012,100.01,5.0,6978.0,0.0,0.0,
2025-08-15T04:25:23.976Z,3,GR86-065-5,-1.1,0.091,-0.016,100.0,5.0,,0.0,0.0,206.38
2025-08-15T04:25:24.018Z,3,GR86-065-5,-1.0,0.083,0.01,100.01,5.0,,0.0,0.0,
2025-08-15T04:25:24.062Z,3,GR86-065-5,-1.0,0.062,0.01,100.0,5.0,,0.0,0.0,
2025-08-15T04:25:24.105Z,3,GR86-065-5,-0.9,0.061,-0.004,100.0,5.0,,0.0,0.0,
2025-08-15T04:25:24.148Z,3,GR86-065-5,-0.8,0.095,-0.003,99.98,5.0,7020.0,0.0,0.0,
2025-08-15T04:25:24.191Z,3,GR86-065-5,-0.7000000000000001,0.079,0.018,100.0,5.0,,0.0,0.0,207.02
2025-08-15T04:25:24.234Z,3,GR86-065-5,-0.8,0.075,0.034,99.97,5.0,,0.0,0.0,
2025-08-15T04:25:24.277Z,3,GR86-065-5,-0.8,0.061,0.05,99.99,5.0,,0.0,0.0,
2025-08-15T04:25:24.320Z,3,GR86-065-5,-0.8,0.099,0.074,100.02,5.0,,0.0,0.0,
2025-08-15T04:25:24.362Z,3,GR86-065-5,-0.7000000000000001,0.078,0.068,99.98,5.0,7037.0,0.0,0.0,
2025-08-15T04:25:24.406Z,3,GR86-065-5,-0.8,0.072,0.035,100.01,5.0,,0.0,0.0,207.68
2025-08-15T04:25:24.449Z,3,GR86-065-5,-0.8,0.054,0.049,100.0,5.0,,0.0,0.0,
2025-08-15T04:25:24.492Z,3,GR86-065-5,-0.8,0.063,0.037,99.98,5.0,,0.0,0.0,
2025-08-15T04:25:24.535Z,3,GR86-065-5,-0.8,0.091,0.024,99.98,5.0,,0.0,0.0,
2025-08-15T04:25:24.578Z,3,GR86-065-5,-0.8,0.086,-0.001,99.98,5.0,7061.0,0.0,0.0,
2025-08-15T04:25:24.621Z,3,GR86-065-5,-0.8,0.05,0.0,100.0,5.0,,0.0,0.0,208.27
2025-08-15T04:25:24.664Z,3,GR86-065-5,-0.8,0.089,0.002,99.99,5.0,,0.0,0.0,
2025-08-15T04:25:24.707Z,3,GR86-065-5,-0.7000000000000001,0.085,-0.003,99.98,5.0,,0.0,0.0,
2025-08-15T04:25:24.750Z,3,GR86-065-5,-0.7000000000000001,0.1,-0.01,99.99,5.0,,0.0,0.0,
2025-08-15T04:25:24.922Z,3,GR86-065-5,-0.7000000000000001,0.077,-0.01,100.0,5.0,7084.0,0.0,0.0,208.94
2025-08-15T04:25:24.965Z,3,GR86-065-5,-1.3,0.059,-0.037,99.99,5.0,,0.0,0.0,
2025-08-15T04:25:25.008Z,3,GR86-065-5,-1.3,0.077,-0.033,100.02,5.0,7103.0,0.0,0.0,
2025-08-15T04:25:25.051Z,3,GR86-065-5,-1.3,0.065,-0.026,100.02,5.0,,0.0,0.0,209.52
2025-08-15T04:25:25.094Z,3,GR86-065-5,-1.4,0.102,-0.059,100.01,5.0,,0.0,0.0,
2025-08-15T04:25:25.137Z,3,GR86-065-5,-1.3,0.097,-0.037,99.98,5.0,,0.0,0.0,
2025-08-15T04:25:25.180Z,3,GR86-065-5,-1.3,0.087,-0.042,100.03,5.0,,0.0,0.0,
2025-08-15T04:25:25.266Z,3,GR86-065-5,-1.9,0.097,-0.044,99.98,5.0,7126.0,0.0,0.0,210.12
2025-08-15T04:25:25.308Z,3,GR86-065-5,-2.0,0.074,-0.067,99.98,5.0,,0.0,0.0,
2025-08-15T04:25:25.352Z,3,GR86-065-5,-2.0,0.058,-0.067,100.0,5.0,,0.0,0.0,
2025-08-15T04:25:25.395Z,3,GR86-065-5,-1.9,0.066,-0.054,100.02,5.0,,0.0,0.0,
2025-08-15T04:25:25.438Z,3,GR86-065-5,-1.1,0.095,-0.04,100.0,5.0,7151.0,0.0,0.0,
2025-08-15T04:25:25.481Z,3,GR86-065-5,-1.0,0.07,-0.055,100.01,5.0,,0.0,0.0,210.76
2025-08-15T04:25:25.524Z,3,GR86-065-5,-1.0,0.076,-0.012,99.99,5.0,,0.0,0.0,
2025-08-15T04:25:25.568Z,3,GR86-065-5,-1.0,0.095,0.004,100.02,5.0,,0.0,0.0,
2025-08-15T04:25:25.611Z,3,GR86-065-5,-1.0,0.107,0.054,100.0,5.0,,0.0,0.0,
2025-08-15T04:25:25.654Z,3,GR86-065-5,-1.0,0.095,0.044,99.99,5.0,7168.0,0.0,0.0,
2025-08-15T04:25:25.697Z,3,GR86-065-5,-1.0,0.076,0.059,99.99,5.0,,0.0,0.0,211.26
2025-08-15T04:25:25.742Z,3,GR86-065-5,-1.0,0.088,0.043,99.98,5.0,,0.0,0.0,
2025-08-15T04:25:25.785Z,3,GR86-065-5,-0.9,0.086,0.039,100.0,5.0,,0.0,0.0,
2025-08-15T04:25:25.828Z,3,GR86-065-5,-0.9,0.078,0.024,100.0,5.0,,0.0,0.0,
2025-08-15T04:25:25.871Z,3,GR86-065-5,-1.0,0.069,0.014,100.01,5.0,7185.0,0.0,0.0,
2025-08-15T04:25:25.914Z,3,GR86-065-5,-0.9,0.085,0.0,99.98,5.0,,0.0,0.0,212.04
2025-08-15T04:25:25.957Z,3,GR86-065-5,-0.3,0.088,-0.007,100.0,5.0,,0.0,0.0,
2025-08-15T04:25:26.000Z,3,GR86-065-5,0.4,0.078,0.015,99.99,5.0,,0.0,0.0,
2025-08-15T04:25:26.044Z,3,GR86-065-5,0.6000000000000001,0.091,0.05,100.01,5.0,,0.0,0.0,
2025-08-15T04:25:26.087Z,3,GR86-065-5,0.8,0.09,0.067,100.01,5.0,7208.0,0.0,0.0,
2025-08-15T04:25:26.130Z,3,GR86-065-5,1.5,0.079,0.099,99.99,5.0,,0.0,0.0,212.47
2025-08-15T04:25:26.173Z,3,GR86-065-5,2.3000000000000003,0.065,0.143,99.99,5.0,,0.0,0.0,
2025-08-15T04:25:26.216Z,3,GR86-065-5,3.0,0.063,0.18,100.04,5.0,,0.0,0.0,
2025-08-15T04:25:26.258Z,3,GR86-065-5,3.2,0.074,0.195,100.0,5.0,,0.0,0.0,
2025-08-15T04:25:26.302Z,3,GR86-065-5,3.2,0.042,0.207,99.99,5.0,7235.0,0.0,0.0,
2025-08-15T04:25:26.345Z,3,GR86-065-5,3.2,0.068,0.224,99.99,5.0,,0.0,0.0,213.88
2025-08-15T04:25:26.388Z,3,GR86-065-5,3.2,0.08,0.209,99.99,5.0,,0.0,0.0,
2025-08-15T04:25:26.431Z,3,GR86-065-5,3.2,0.065,0.18,99.99,5.0,,0.0,0.0,
2025-08-15T04:25:26.474Z,3,GR86-065-5,3.2,0.052,0.156,99.98,5.0,,0.0,0.0,
2025-08-15T04:25:26.517Z,3,GR86-065-5,3.2,0.057,0.128,99.99,5.0,7252.0,0.0,0.0,
2025-08-15T04:25:26.560Z,3,GR86-065-5,3.2,0.072,0.097,100.0,5.0,,0.0,0.0,214.49
2025-08-15T04:25:26.603Z,3,GR86-065-5,3.2,0.059,0.049,99.97,5.0,,0.0,0.0,
2025-08-15T04:25:26.646Z,3,GR86-065-5,3.1,-0.074,0.028,99.98,6.0,,0.0,0.0,
2025-08-15T04:25:26.688Z,3,GR86-065-5,3.0,-0.117,0.042,99.98,6.0,,0.0,0.0,
2025-08-15T04:25:26.775Z,3,GR86-065-5,3.0,0.076,0.018,100.0,6.0,7274.0,0.0,0.0,215.0
2025-08-15T04:25:26.818Z,3,GR86-065-5,3.0,-0.016,0.118,99.99,6.0,,0.0,0.0,
2025-08-15T04:25:26.861Z,3,GR86-065-5,3.0,0.074,0.024,100.0,6.0,,0.0,0.0,
2025-08-15T04:25:26.904Z,3,GR86-065-5,3.0,0.134,0.093,100.02,6.0,,0.0,0.0,
2025-08-15T04:25:26.947Z,3,GR86-065-5,2.0,0.061,0.056,99.98,6.0,6728.0,0.0,0.0,
2025-08-15T04:25:26.990Z,3,GR86-065-5,0.2,0.006,0.034,100.0,6.0,,0.0,0.0,215.45
2025-08-15T04:25:27.034Z,3,GR86-065-5,-0.5,0.061,0.022,99.99,6.0,,0.0,0.0,
2025-08-15T04:25:27.077Z,3,GR86-065-5,-0.5,0.091,-0.031,100.01,6.0,,0.0,0.0,
2025-08-15T04:25:27.120Z,3,GR86-065-5,-0.5,0.039,-0.021,100.0,6.0,,0.0,0.0,
2025-08-15T04:25:27.165Z,3,GR86-065-5,0.0,0.048,-0.015,100.01,6.0,6571.0,0.0,0.0,
2025-08-15T04:25:27.208Z,3,GR86-065-5,0.0,0.053,-0.007,100.0,6.0,,0.0,0.0,215.88
2025-08-15T04:25:27.252Z,3,GR86-065-5,0.0,0.059,-0.004,100.01,6.0,,0.0,0.0,
2025-08-15T04:25:27.295Z,3,GR86-065-5,0.0,0.035,0.021,99.98,6.0,,0.0,0.0,
2025-08-15T04:25:27.338Z,3,GR86-065-5,0.0,0.037,0.026,100.0,6.0,,0.0,0.0,
2025-08-15T04:25:27.381Z,3,GR86-065-5,0.0,0.032,0.044,99.99,6.0,6597.0,0.0,0.0,
2025-08-15T04:25:27.424Z,3,GR86-065-5,0.0,0.033,0.049,99.99,6.0,,0.0,0.0,216.37
2025-08-15T04:25:27.468Z,3,GR86-065-5,0.0,0.031,0.052,99.99,6.0,,0.0,0.0,
2025-08-15T04:25:27.511Z,3,GR86-065-5,0.7000000000000001,0.048,0.071,58.45,6.0,,5.9350000000000005,5.525,
2025-08-15T04:25:27.554Z,3,GR86-065-5,0.7000000000000001,0.011,0.073,32.93,6.0,,14.27,13.885,
2025-08-15T04:25:27.597Z,3,GR86-065-5,0.7000000000000001,-0.12,0.075,18.8,6.0,6632.0,25.665,25.21,
2025-08-15T04:25:27.642Z,3,GR86-065-5,0.1,-0.621,0.039,3.16,6.0,,49.870000000000005,49.765,216.72
2025-08-15T04:25:27.685Z,3,GR86-065-5,0.1,-1.007,0.034,2.98,6.0,,65.235,65.465,
2025-08-15T04:25:27.728Z,3,GR86-065-5,0.4,-1.294,0.1,2.91,6.0,,77.11,77.52,
2025-08-15T04:25:27.771Z,3,GR86-065-5,1.3,-1.376,0.097,2.87,6.0,,84.39,84.74,
2025-08-15T04:25:27.814Z,3,GR86-065-5,1.3,-1.386,0.134,2.81,6.0,6633.0,91.405,89.545,
2025-08-15T04:25:27.857Z,3,GR86-065-5,1.0,-1.319,0.135,2.75,6.0,,93.405,92.125,217.03
2025-08-15T04:25:27.900Z,3,GR86-065-5,-2.2,-1.24,0.1,2.68,6.0,,91.94,90.46,
2025-08-15T04:25:27.943Z,3,GR86-065-5,-2.6,-1.127,0.081,2.65,6.0,,93.74,92.125,
2025-08-15T04:25:27.986Z,3,GR86-065-5,-2.7,-1.045,0.106,2.62,6.0,,87.53,86.905,
2025-08-15T04:25:28.029Z,3,GR86-065-5,-2.7,-1.08,0.13,2.59,6.0,6241.0,84.05,83.12,
2025-08-15T04:25:28.072Z,3,GR86-065-5,-3.7,-1.231,0.124,2.59,6.0,,87.5,85.41,215.67
2025-08-15T04:25:28.115Z,3,GR86-065-5,-3.8,-1.281,0.104,16.87,6.0,,83.485,83.18,
2025-08-15T04:25:28.158Z,3,GR86-065-5,-3.8,-1.39,0.086,64.08,6.0,,83.015,82.58500000000001,
2025-08-15T04:25:28.201Z,3,GR86-065-5,-3.8,-1.298,0.097,48.42,5.0,,89.99,88.05,
2025-08-15T04:25:28.244Z,3,GR86-065-5,-4.1000000000000005,-1.269,0.029,6.61,5.0,6046.0,88.525,87.99,
2025-08-15T04:25:28.287Z,3,GR86-065-5,-4.9,-1.345,0.087,4.49,5.0,,90.2,88.86,204.93
2025-08-15T04:25:28.330Z,3,GR86-065-5,-4.9,-1.26,0.034,4.14,5.0,,92.66,90.705,
2025-08-15T04:25:28.373Z,3,GR86-065-5,-3.9,-1.269,0.02,3.83,5.0,,90.325,89.67,
2025-08-15T04:25:28.416Z,3,GR86-065-5,-2.0,-1.309,0.105,3.47,5.0,,91.65,90.46,
2025-08-15T04:25:28.460Z,3,GR86-065-5,-2.3000000000000003,-1.336,0.107,2.97,5.0,5618.0,96.46,94.245,
2025-08-15T04:25:28.503Z,3,GR86-065-5,-5.800000000000001,-1.245,0.019,2.82,5.0,,94.245,93.21,194.34
2025-08-15T04:25:28.546Z,3,GR86-065-5,-8.3,-1.359,0.005,2.74,5.0,,95.025,94.245,
2025-08-15T04:25:28.590Z,3,GR86-065-5,-7.6,-1.215,-0.073,2.68,5.0,,96.2,94.49,
2025-08-15T04:25:28.632Z,3,GR86-065-5,-2.9000000000000004,-1.193,-0.009,2.62,5.0,,92.66,91.745,
2025-08-15T04:25:28.676Z,3,GR86-065-5,-2.0,-1.253,0.048,2.58,5.0,6084.0,90.555,90.415,
2025-08-15T04:25:28.718Z,3,GR86-065-5,-2.1,-1.288,0.051,2.58,5.0,,91.56,91.56,186.75
2025-08-15T04:25:28.762Z,3,GR86-065-5,-5.7,-1.341,0.027,59.58,5.0,,93.65,92.87,
2025-08-15T04:25:28.805Z,3,GR86-065-5,-7.6,-1.286,-0.011,98.59,5.0,,92.69,92.43,
2025-08-15T04:25:28.848Z,3,GR86-065-5,-7.9,-1.266,-0.036,98.56,5.0,,93.18,92.215,
2025-08-15T04:25:28.891Z,3,GR86-065-5,-9.0,-1.194,-0.066,49.69,4.0,5768.0,92.035,91.805,
2025-08-15T04:25:28.934Z,3,GR86-065-5,-13.6,-1.168,-0.072,6.7,4.0,,92.75,92.84,178.82
2025-08-15T04:25:28.977Z,3,GR86-065-5,-18.0,-1.143,-0.132,4.53,4.0,,89.865,88.765,
2025-08-15T04:25:29.020Z,3,GR86-065-5,-19.1,-1.241,-0.275,3.98,4.0,,84.42,83.15,
2025-08-15T04:25:29.063Z,3,GR86-065-5,-18.9,-1.205,-0.28,3.66,4.0,,86.095,84.89,
2025-08-15T04:25:29.106Z,3,GR86-065-5,-18.2,-1.249,-0.333,3.26,4.0,5476.0,88.02,86.555,
2025-08-15T04:25:29.148Z,3,GR86-065-5,-18.3,-1.258,-0.355,3.02,4.0,,84.77,84.325,160.16
2025-08-15T04:25:29.192Z,3,GR86-065-5,-26.200000000000003,-1.263,-0.384,2.87,4.0,,82.465,81.75,
2025-08-15T04:25:29.235Z,3,GR86-065-5,-30.5,-1.181,-0.511,2.77,4.0,,84.05,83.09,
2025-08-15T04:25:29.278Z,3,GR86-065-5,-30.5,-1.058,-0.603,2.71,4.0,,82.525,82.71000000000001,
2025-08-15T04:25:29.321Z,3,GR86-065-5,-27.5,-1.052,-0.607,2.63,4.0,6005.0,81.33500000000001,80.465,
2025-08-15T04:25:29.364Z,3,GR86-065-5,-28.8,-1.074,-0.73,38.37,4.0,,80.65,78.74,154.11
2025-08-15T04:25:29.407Z,3,GR86-065-5,-36.5,-1.02,-0.807,85.89,4.0,,73.935,72.395,
2025-08-15T04:25:29.450Z,3,GR86-065-5,-39.3,-0.953,-0.767,100.18,4.0,,68.44,68.47,
2025-08-15T04:25:29.493Z,3,GR86-065-5,-39.5,-0.951,-0.859,99.85,3.0,,67.615,67.97,
2025-08-15T04:25:29.536Z,3,GR86-065-5,-39.5,-1.074,-0.8260000000000001,47.02,3.0,5551.0,68.41,68.305,
2025-08-15T04:25:29.579Z,3,GR86-065-5,-39.5,-1.091,-0.859,5.14,3.0,,67.145,65.36,147.18
2025-08-15T04:25:29.622Z,3,GR86-065-5,-39.5,-0.986,-0.859,2.8000000000000003,3.0,,61.39,60.645,
2025-08-15T04:25:29.665Z,3,GR86-065-5,-40.8,-0.956,-0.786,2.65,3.0,,60.645,60.49,
2025-08-15T04:25:29.708Z,3,GR86-065-5,-52.8,-0.925,-0.842,2.58,3.0,,60.825,60.735,
2025-08-15T04:25:29.751Z,3,GR86-065-5,-65.5,-0.856,-0.901,2.5500000000000003,3.0,5861.0,57.65,56.555,
2025-08-15T04:25:29.794Z,3,GR86-065-5,-70.0,-0.8200000000000001,-0.948,2.52,3.0,,56.25,54.86,140.75
2025-08-15T04:25:29.837Z,3,GR86-065-5,-70.0,-0.787,-0.89,2.51,3.0,,58.02,56.845,
2025-08-15T04:25:29.880Z,3,GR86-065-5,-70.0,-0.842,-0.85,2.49,3.0,,58.995000000000005,58.965,
2025-08-15T04:25:29.923Z,3,GR86-065-5,-71.2,-0.953,-0.872,2.49,3.0,,57.44,56.585,
2025-08-15T04:25:29.966Z,3,GR86-065-5,-73.10000000000001,-0.808,-0.85,2.5,3.0,5932.0,54.89,53.58,
2025-08-15T04:25:30.008Z,3,GR86-065-5,-75.9,-0.802,-1.059,2.49,3.0,,51.215,50.465,134.33
2025-08-15T04:25:30.052Z,3,GR86-065-5,-83.2,-0.867,-2.42,2.49,3.0,,44.435,43.995,
2025-08-15T04:25:30.095Z,3,GR86-065-5,-90.5,-0.446,-0.527,2.49,3.0,,40.24,39.555,
2025-08-15T04:25:30.138Z,3,GR86-065-5,-96.1,-0.6910000000000001,-1.214,2.49,3.0,,40.09,39.155,
2025-08-15T04:25:30.181Z,3,GR86-065-5,-89.7,-0.503,-0.78,2.49,3.0,5539.0,22.19,21.53,
2025-08-15T04:25:30.225Z,3,GR86-065-5,-70.2,-0.486,-1.226,2.49,3.0,,12.42,11.84,128.14
2025-08-15T04:25:30.268Z,3,GR86-065-5,-39.400000000000006,-0.242,-1.457,2.49,3.0,,4.53,4.12,
2025-08-15T04:25:30.311Z,3,GR86-065-5,-1.7000000000000002,-0.186,-1.113,2.49,3.0,,0.0,0.0,
2025-08-15T04:25:30.354Z,3,GR86-065-5,26.5,-0.208,-1.052,2.49,3.0,,0.0,0.0,
2025-08-15T04:25:30.397Z,3,GR86-065-5,43.6,-0.14,-0.85,2.49,3.0,5334.0,0.0,0.0,
2025-08-15T04:25:30.441Z,3,GR86-065-5,35.0,-0.205,-1.132,2.49,3.0,,0.0,0.0,123.76
2025-08-15T04:25:30.485Z,3,GR86-065-5,8.1,-0.247,-1.264,2.49,3.0,,0.0,0.0,
2025-08-15T04:25:30.528Z,3,GR86-065-5,-32.0,-0.15,-1.045,2.52,3.0,,0.0,0.0,
2025-08-15T04:25:30.614Z,3,GR86-065-5,-88.7,-0.252,-1.286,2.49,3.0,5079.0,0.0,0.0,
2025-08-15T04:25:30.657Z,3,GR86-065-5,-66.5,-0.129,-1.362,2.49,3.0,,0.0,0.0,120.66
2025-08-15T04:25:30.702Z,3,GR86-065-5,-76.5,-0.253,-1.316,2.49,3.0,,0.0,0.0,
2025-08-15T04:25:30.745Z,3,GR86-065-5,-43.2,-0.264,-1.246,13.95,3.0,,0.0,0.0,
2025-08-15T04:25:30.831Z,3,GR86-065-5,29.9,-0.145,-1.066,21.88,3.0,5087.0,0.0,0.0,
2025-08-15T04:25:30.874Z,3,GR86-065-5,58.900000000000006,-0.074,-0.93,25.15,3.0,,0.0,0.0,118.87
2025-08-15T04:25:30.917Z,3,GR86-065-5,78.0,-0.081,-0.96,27.74,3.0,,0.0,0.0,
2025-08-15T04:25:30.960Z,3,GR86-065-5,76.9,-0.021,-1.021,29.72,3.0,,0.0,0.0,
2025-08-15T04:25:31.047Z,3,GR86-065-5,49.7,0.019,-1.365,30.86,3.0,5064.0,0.0,0.0,
2025-08-15T04:25:31.090Z,3,GR86-065-5,51.900000000000006,0.053,-1.21,32.18,3.0,,0.0,0.0,115.21
2025-08-15T04:25:31.176Z,3,GR86-065-5,84.9,0.019,-1.233,35.300000000000004,3.0,,0.0,0.0,
2025-08-15T04:25:31.218Z,3,GR86-065-5,91.5,0.121,-1.1,35.65,3.0,,0.0,0.0,
2025-08-15T04:25:31.262Z,3,GR86-065-5,93.7,0.18,-1.043,33.61,3.0,5122.0,0.0,0.0,
2025-08-15T04:25:31.305Z,3,GR86-065-5,93.8,0.204,-0.959,32.94,3.0,,0.0,0.0,114.0
2025-08-15T04:25:31.348Z,3,GR86-065-5,94.9,0.206,-1.178,32.76,3.0,,0.0,0.0,
2025-08-15T04:25:31.391Z,3,GR86-065-5,100.0,0.159,-1.147,32.94,3.0,,0.0,0.0,
2025-08-15T04:25:31.477Z,3,GR86-065-5,130.1,-1.093,-1.721,48.63,3.0,5491.0,0.0,0.0,
2025-08-15T04:25:31.520Z,3,GR86-065-5,143.9,-0.598,-1.234,68.04,3.0,,0.0,0.0,113.02
2025-08-15T04:25:31.562Z,3,GR86-065-5,147.20000000000002,-0.298,-1.06,75.94,3.0,,0.0,0.0,
2025-08-15T04:25:31.606Z,3,GR86-065-5,152.9,-0.027,-1.117,83.68,3.0,,0.0,0.0,
2025-08-15T04:25:31.650Z,3,GR86-065-5,160.5,0.243,-1.195,75.25,3.0,,0.0,0.0,
2025-08-15T04:25:31.693Z,3,GR86-065-5,171.20000000000002,0.275,-1.265,69.53,3.0,5775.0,0.0,0.0,
2025-08-15T04:25:31.736Z,3,GR86-065-5,185.4,0.367,-1.234,69.08,3.0,,0.0,0.0,112.22
2025-08-15T04:25:31.779Z,3,GR86-065-5,204.7,0.344,-1.034,54.11,3.0,,0.0,0.0,
2025-08-15T04:25:31.822Z,3,GR86-065-5,234.7,0.387,-1.027,38.22,3.0,,0.0,0.0,
2025-08-15T04:25:31.865Z,3,GR86-065-5,252.5,0.365,-1.067,33.85,3.0,,0.0,0.0,
2025-08-15T04:25:31.908Z,3,GR86-065-5,272.0,0.322,-1.045,28.34,3.0,5849.0,0.0,0.0,
2025-08-15T04:25:31.951Z,3,GR86-065-5,288.5,0.295,-1.042,4.6000000000000005,3.0,,0.0,0.0,105.44
2025-08-15T04:25:31.994Z,3,GR86-065-5,307.40000000000003,0.352,-1.123,3.67,3.0,,0.0,0.0,
2025-08-15T04:25:32.037Z,3,GR86-065-5,333.1,0.407,-1.141,3.51,3.0,,0.0,0.0,
2025-08-15T04:25:32.080Z,3,GR86-065-5,377.3,0.293,-1.034,3.16,3.0,,0.0,0.0,
2025-08-15T04:25:32.166Z,3,GR86-065-5,406.8,0.374,-1.055,2.97,3.0,6241.0,0.0,0.0,104.68
2025-08-15T04:25:32.209Z,3,GR86-065-5,434.4,0.199,-0.948,2.78,3.0,,0.0,0.0,
2025-08-15T04:25:32.252Z,3,GR86-065-5,437.1,0.239,-1.002,2.72,3.0,,0.0,0.0,
2025-08-15T04:25:32.295Z,3,GR86-065-5,437.6,0.227,-0.969,2.7,3.0,,0.0,0.0,
2025-08-15T04:25:32.338Z,3,GR86-065-5,437.6,0.24,-0.995,2.68,3.0,6055.0,0.0,0.0,
2025-08-15T04:25:32.381Z,3,GR86-065-5,440.3,0.226,-1.021,2.62,3.0,,0.0,0.0,104.97
2025-08-15T04:25:32.424Z,3,GR86-065-5,448.2000000000001,0.264,-1.083,2.59,3.0,,0.0,0.0,
2025-08-15T04:25:32.468Z,3,GR86-065-5,458.1,0.227,-1.154,2.59,3.0,,0.0,0.0,
2025-08-15T04:25:32.554Z,3,GR86-065-5,470.7000000000001,0.215,-1.109,2.58,3.0,4161.0,0.0,0.0,
2025-08-15T04:25:32.597Z,3,GR86-065-5,489.0,0.178,-1.099,2.5500000000000003,3.0,,0.0,0.0,100.58
2025-08-15T04:25:32.641Z,3,GR86-065-5,489.0,0.174,-1.109,2.52,3.0,,0.0,0.0,
2025-08-15T04:25:32.685Z,3,GR86-065-5,489.0,0.153,-1.061,2.51,3.0,,0.0,0.0,
2025-08-15T04:25:32.728Z,3,GR86-065-5,486.5,0.151,-1.046,2.49,3.0,,0.0,0.0,
2025-08-15T04:25:32.771Z,3,GR86-065-5,482.5,0.14,-1.027,2.49,3.0,3474.0,0.0,0.0,
2025-08-15T04:25:32.814Z,3,GR86-065-5,477.0,0.146,-1.057,2.49,3.0,,0.0,0.0,93.21
2025-08-15T04:25:32.857Z,3,GR86-065-5,471.2000000000001,0.165,-1.065,2.48,3.0,,0.0,0.0,
2025-08-15T04:25:32.900Z,3,GR86-065-5,462.3,0.163,-1.024,2.48,3.0,,0.0,0.0,
2025-08-15T04:25:32.944Z,3,GR86-065-5,456.6,0.176,-0.974,2.48,3.0,,0.0,0.0,
2025-08-15T04:25:32.987Z,3,GR86-065-5,453.2000000000001,0.164,-0.961,2.48,3.0,2889.0,0.0,0.0,
2025-08-15T04:25:33.030Z,3,GR86-065-5,450.6,0.178,-0.929,2.48,3.0,,0.0,0.0,85.65
2025-08-15T04:25:33.073Z,3,GR86-065-5,449.3,0.192,-0.937,2.48,3.0,,0.0,0.0,
2025-08-15T04:25:33.116Z,3,GR86-065-5,448.3,0.193,-0.97,2.48,3.0,,0.0,0.0,
2025-08-15T04:25:33.158Z,3,GR86-065-5,448.2000000000001,0.198,-0.945,2.48,3.0,,0.0,0.0,
2025-08-15T04:25:33.202Z,3,GR86-065-5,448.3,0.189,-0.91,2.48,3.0,2396.0,0.0,0.0,
2025-08-15T04:25:33.288Z,3,GR86-065-5,448.1,0.19,-0.869,2.49,3.0,,0.0,0.0,76.43
2025-08-15T04:25:33.331Z,3,GR86-065-5,445.3,0.202,-0.9,2.51,3.0,,0.0,0.0,
2025-08-15T04:25:33.374Z,3,GR86-065-5,442.9,0.193,-0.877,2.52,3.0,,0.0,0.0,
2025-08-15T04:25:33.417Z,3,GR86-065-5,442.3,0.198,-0.894,2.5500000000000003,3.0,1928.0,0.0,0.0,
2025-08-15T04:25:33.460Z,3,GR86-065-5,441.4,0.206,-0.883,2.68,3.0,,0.0,0.0,67.99
2025-08-15T04:25:33.503Z,3,GR86-065-5,441.1,0.196,-0.877,2.78,3.0,,0.0,0.0,
2025-08-15T04:25:33.546Z,3,GR86-065-5,441.1,0.186,-0.851,2.91,3.0,,0.0,0.0,
2025-08-15T04:25:33.588Z,3,GR86-065-5,441.1,0.188,-0.861,3.03,3.0,,0.0,0.0,
2025-08-15T04:25:33.632Z,3,GR86-065-5,441.1,0.187,-0.808,3.11,3.0,1514.0,0.0,0.0,
2025-08-15T04:25:33.675Z,3,GR86-065-5,441.2000000000001,0.178,-0.84,3.22,3.0,,0.0,0.0,59.35
2025-08-15T04:25:33.718Z,3,GR86-065-5,441.9,0.17,-0.801,3.35,3.0,,0.0,0.0,
2025-08-15T04:25:33.761Z,3,GR86-065-5,443.3,0.173,-0.801,3.76,3.0,,0.0,0.0,
2025-08-15T04:25:33.804Z,3,GR86-065-5,443.4,0.174,-0.785,4.34,3.0,,0.0,0.0,
2025-08-15T04:25:33.847Z,3,GR86-065-5,443.5,0.169,-0.797,4.74,3.0,1118.0,0.0,0.0,
2025-08-15T04:25:33.890Z,3,GR86-065-5,443.8,0.159,-0.773,5.24,3.0,,0.0,0.0,51.9
2025-08-15T04:25:33.976Z,3,GR86-065-5,444.0,0.127,-0.773,5.57,3.0,,0.0,0.0,
2025-08-15T04:25:34.018Z,3,GR86-065-5,444.0,0.128,-0.792,5.98,3.0,,0.0,0.0,
2025-08-15T04:25:34.062Z,3,GR86-065-5,444.0,0.097,-0.705,6.23,3.0,867.0,0.0,0.0,
2025-08-15T04:25:34.105Z,3,GR86-065-5,444.0,0.045,-0.606,6.29,3.0,,0.0,0.0,46.58
2025-08-15T04:25:34.148Z,3,GR86-065-5,444.0,0.057,-0.5760000000000001,6.28,3.0,,0.0,0.0,
2025-08-15T04:25:34.191Z,3,GR86-065-5,444.0,0.086,-0.584,6.33,3.0,,0.0,0.0,
2025-08-15T04:25:34.234Z,3,GR86-065-5,444.0,0.079,-0.5690000000000001,6.34,3.0,,0.0,0.0,
2025-08-15T04:25:34.277Z,3,GR86-065-5,444.0,0.102,-0.625,6.3500000000000005,3.0,698.0,0.0,0.0,
2025-08-15T04:25:34.320Z,3,GR86-065-5,444.0,0.1,-0.5760000000000001,6.3500000000000005,3.0,,0.0,0.0,41.17
2025-08-15T04:25:34.365Z,3,GR86-065-5,444.0,0.124,-0.623,6.3500000000000005,3.0,,0.0,0.0,
2025-08-15T04:25:34.408Z,3,GR86-065-5,444.0,0.092,-0.614,6.28,3.0,,0.0,0.0,
2025-08-15T04:25:34.452Z,3,GR86-065-5,444.0,0.083,-0.642,6.22,3.0,,0.0,0.0,
2025-08-15T04:25:34.495Z,3,GR86-065-5,444.0,0.066,-0.619,6.07,3.0,628.0,0.0,0.0,
2025-08-15T04:25:34.538Z,3,GR86-065-5,444.0,0.094,-0.631,6.0200000000000005,3.0,,0.0,0.0,35.550000000000004
2025-08-15T04:25:34.581Z,3,GR86-065-5,431.7000000000001,0.077,-0.637,5.96,3.0,,0.0,0.0,
2025-08-15T04:25:34.624Z,3,GR86-065-5,415.5,0.092,-0.582,5.86,3.0,,0.0,0.0,
2025-08-15T04:25:34.711Z,3,GR86-065-5,396.6,0.085,-0.606,5.79,3.0,626.0,0.0,0.0,
2025-08-15T04:25:34.754Z,3,GR86-065-5,363.1,0.122,-0.7010000000000001,5.54,3.0,,0.0,0.0,31.45
2025-08-15T04:25:34.797Z,3,GR86-065-5,355.90000000000003,0.082,-0.669,5.38,3.0,,0.0,0.0,
2025-08-15T04:25:34.841Z,3,GR86-065-5,339.6,0.12,-0.763,5.17,3.0,,0.0,0.0,
2025-08-15T04:25:34.885Z,3,GR86-065-5,320.0,0.08,-0.758,5.01,3.0,,0.0,0.0,
2025-08-15T04:25:34.971Z,3,GR86-065-5,298.6,0.03,-0.65,4.95,3.0,775.0,0.0,0.0,34.52
2025-08-15T04:25:35.014Z,3,GR86-065-5,246.8,0.049,-0.562,4.87,3.0,,0.0,0.0,
2025-08-15T04:25:35.057Z,3,GR86-065-5,216.4,-0.017,-0.623,4.8100000000000005,3.0,,0.0,0.0,
2025-08-15T04:25:35.143Z,3,GR86-065-5,175.9,-0.022,-0.557,4.8,3.0,1205.0,0.0,0.0,
2025-08-15T04:25:35.186Z,3,GR86-065-5,157.10000000000002,-0.088,-0.648,4.75,3.0,,0.0,0.0,36.2
2025-08-15T04:25:35.228Z,3,GR86-065-5,157.10000000000002,-0.091,-0.734,4.68,3.0,,0.0,0.0,
2025-08-15T04:25:35.272Z,3,GR86-065-5,162.20000000000002,-0.137,-0.678,4.62,3.0,,0.0,0.0,
2025-08-15T04:25:35.315Z,3,GR86-065-5,162.8,-0.075,-0.5700000000000001,4.55,3.0,,0.0,0.0,
2025-08-15T04:25:35.358Z,3,GR86-065-5,159.8,-0.123,-0.513,4.49,3.0,1262.0,0.0,0.0,
2025-08-15T04:25:35.401Z,3,GR86-065-5,132.3,-0.118,-0.442,4.43,3.0,,0.0,0.0,36.61
2025-08-15T04:25:35.444Z,3,GR86-065-5,105.0,-0.112,-0.345,4.43,3.0,,0.0,0.0,
2025-08-15T04:25:35.487Z,3,GR86-065-5,79.2,-0.074,-0.304,4.4,3.0,,0.0,0.0,
2025-08-15T04:25:35.530Z,3,GR86-065-5,66.4,-0.126,-0.253,4.39,3.0,,0.0,0.0,
2025-08-15T04:25:35.573Z,3,GR86-065-5,64.0,-0.142,-0.074,4.36,3.0,1404.0,0.0,0.0,
2025-08-15T04:25:35.616Z,3,GR86-065-5,58.400000000000006,-0.19,0.099,4.33,3.0,,0.0,0.0,35.43
2025-08-15T04:25:35.658Z,3,GR86-065-5,54.0,-0.132,0.259,4.42,3.0,,0.0,0.0,
2025-08-15T04:25:35.702Z,3,GR86-065-5,53.1,-0.061,0.216,7.51,3.0,,0.0,0.0,
2025-08-15T04:25:35.745Z,3,GR86-065-5,53.1,-0.052,0.25,10.96,3.0,,0.0,0.0,
2025-08-15T04:25:35.788Z,3,GR86-065-5,54.900000000000006,-0.069,0.171,12.92,3.0,1439.0,0.0,0.0,
2025-08-15T04:25:35.874Z,3,GR86-065-5,62.2,-0.047,0.151,18.58,3.0,,0.0,0.0,34.53
2025-08-15T04:25:35.917Z,3,GR86-065-5,74.9,0.073,0.16,18.3,3.0,,0.0,0.0,
2025-08-15T04:25:35.960Z,3,GR86-065-5,78.2,-0.015,0.276,20.61,3.0,,0.0,0.0,
2025-08-15T04:25:36.002Z,3,GR86-065-5,78.4,-0.081,0.255,21.51,3.0,1435.0,0.0,0.0,
2025-08-15T04:25:36.046Z,3,GR86-065-5,78.4,0.054,0.247,21.51,3.0,,0.0,0.0,33.160000000000004
2025-08-15T04:25:36.088Z,3,GR86-065-5,78.4,0.053,0.181,20.74,3.0,,0.0,0.0,
2025-08-15T04:25:36.132Z,3,GR86-065-5,78.4,0.094,0.21,20.39,3.0,,0.0,0.0,
2025-08-15T04:25:36.175Z,3,GR86-065-5,78.4,0.144,0.185,20.45,3.0,,0.0,0.0,
2025-08-15T04:25:36.218Z,3,GR86-065-5,78.4,0.084,0.28,20.45,3.0,1467.0,0.0,0.0,
2025-08-15T04:25:36.261Z,3,GR86-065-5,79.60000000000001,0.073,0.252,20.3,3.0,,0.0,0.0,31.29
2025-08-15T04:25:36.304Z,3,GR86-065-5,79.7,0.022,0.334,16.67,3.0,,0.0,0.0,
2025-08-15T04:25:36.347Z,3,GR86-065-5,79.7,0.048,0.316,5.73,3.0,,0.0,0.0,
2025-08-15T04:25:36.390Z,3,GR86-065-5,79.7,0.081,0.229,3.86,3.0,,0.0,0.0,
2025-08-15T04:25:36.432Z,3,GR86-065-5,79.7,0.115,0.263,3.89,3.0,1586.0,0.0,0.0,
2025-08-15T04:25:36.476Z,3,GR86-065-5,80.60000000000001,0.063,0.289,3.86,3.0,,0.0,0.0,30.75
2025-08-15T04:25:36.518Z,3,GR86-065-5,83.9,0.068,0.267,3.76,3.0,,0.0,0.0,
2025-08-15T04:25:36.562Z,3,GR86-065-5,88.4,-0.025,0.321,3.53,3.0,,0.0,0.0,
2025-08-15T04:25:36.605Z,3,GR86-065-5,88.7,-0.069,0.363,3.29,3.0,,0.0,0.0,
2025-08-15T04:25:36.648Z,3,GR86-065-5,88.80000000000001,-0.156,0.38,3.1,3.0,1515.0,0.0,0.0,
2025-08-15T04:25:36.691Z,3,GR86-065-5,88.80000000000001,-0.035,0.456,3.03,3.0,,0.0,0.0,31.42
2025-08-15T04:25:36.734Z,3,GR86-065-5,88.80000000000001,-0.083,0.318,2.98,3.0,,0.0,0.0,
2025-08-15T04:25:36.777Z,3,GR86-065-5,88.80000000000001,0.004,0.351,2.92,3.0,,0.0,0.0,
2025-08-15T04:25:36.820Z,3,GR86-065-5,88.80000000000001,0.004,0.284,3.5700000000000003,3.0,,0.0,0.0,
2025-08-15T04:25:36.863Z,3,GR86-065-5,89.5,0.014,0.285,3.6,3.0,1456.0,0.0,0.0,
2025-08-15T04:25:36.906Z,3,GR86-065-5,90.5,-0.037,0.275,4.11,3.0,,0.0,0.0,31.78
2025-08-15T04:25:36.948Z,3,GR86-065-5,90.5,-0.082,0.322,5.49,3.0,,0.0,0.0,
2025-08-15T04:25:36.992Z,3,GR86-065-5,90.5,-0.063,0.379,14.27,3.0,,0.0,0.0,
2025-08-15T04:25:37.035Z,3,GR86-065-5,90.5,-0.088,0.349,18.46,3.0,,0.0,0.0,
2025-08-15T04:25:37.078Z,3,GR86-065-5,88.5,-0.068,0.43,21.13,3.0,1461.0,0.0,0.0,
2025-08-15T04:25:37.122Z,3,GR86-065-5,83.4,-0.066,0.396,21.49,3.0,,0.0,0.0,32.21
2025-08-15T04:25:37.165Z,3,GR86-065-5,82.5,-0.034,0.301,21.68,3.0,,0.0,0.0,
2025-08-15T04:25:37.208Z,3,GR86-065-5,82.5,-0.027,0.252,22.84,3.0,,0.0,0.0,
2025-08-15T04:25:37.251Z,3,GR86-065-5,82.5,0.054,0.242,24.2,3.0,,0.0,0.0,
2025-08-15T04:25:37.294Z,3,GR86-065-5,82.5,0.137,0.28,24.42,3.0,1420.0,0.0,0.0,
2025-08-15T04:25:37.338Z,3,GR86-065-5,82.5,0.125,0.337,24.55,3.0,,0.0,0.0,32.01
2025-08-15T04:25:37.381Z,3,GR86-065-5,82.5,0.052,0.355,26.21,3.0,,0.0,0.0,
2025-08-15T04:25:37.424Z,3,GR86-065-5,81.9,0.07,0.345,26.8,3.0,,0.0,0.0,
2025-08-15T04:25:37.468Z,3,GR86-065-5,81.5,0.059,0.29,26.96,3.0,,0.0,0.0,
2025-08-15T04:25:37.511Z,3,GR86-065-5,81.2,0.077,0.355,27.46,3.0,1425.0,0.0,0.0,
2025-08-15T04:25:37.554Z,3,GR86-065-5,80.5,0.079,0.305,28.72,3.0,,0.0,0.0,31.71
2025-08-15T04:25:37.597Z,3,GR86-065-5,79.30000000000001,0.063,0.329,29.72,3.0,,0.0,0.0,
2025-08-15T04:25:37.641Z,3,GR86-065-5,76.80000000000001,0.054,0.353,32.18,3.0,,0.0,0.0,
2025-08-15T04:25:37.685Z,3,GR86-065-5,75.9,0.09,0.243,36.34,3.0,,0.0,0.0,
2025-08-15T04:25:37.728Z,3,GR86-065-5,75.9,0.089,0.265,38.8,3.0,1560.0,0.0,0.0,
2025-08-15T04:25:37.771Z,3,GR86-065-5,75.9,0.119,0.251,39.78,3.0,,0.0,0.0,32.14
2025-08-15T04:25:37.815Z,3,GR86-065-5,75.9,0.137,0.279,40.14,3.0,,0.0,0.0,
2025-08-15T04:25:37.858Z,3,GR86-065-5,75.9,0.117,0.322,40.49,3.0,,0.0,0.0,
2025-08-15T04:25:37.902Z,3,GR86-065-5,78.60000000000001,0.092,0.272,40.66,3.0,,0.0,0.0,
2025-08-15T04:25:37.945Z,3,GR86-065-5,81.30000000000001,0.098,0.405,43.09,3.0,1613.0,0.0,0.0,
2025-08-15T04:25:37.988Z,3,GR86-065-5,82.0,0.047,0.365,45.77,3.0,,0.0,0.0,32.86
2025-08-15T04:25:38.031Z,3,GR86-065-5,82.0,0.087,0.461,46.66,3.0,,0.0,0.0,
2025-08-15T04:25:38.074Z,3,GR86-065-5,82.0,0.076,0.353,48.46,3.0,,0.0,0.0,
2025-08-15T04:25:38.117Z,3,GR86-065-5,81.10000000000001,0.058,0.308,49.21,3.0,,0.0,0.0,
2025-08-15T04:25:38.160Z,3,GR86-065-5,79.5,0.107,0.246,49.83,3.0,1615.0,0.0,0.0,
2025-08-15T04:25:38.204Z,3,GR86-065-5,79.2,0.186,0.296,51.870000000000005,3.0,,0.0,0.0,33.61
2025-08-15T04:25:38.247Z,3,GR86-065-5,77.4,0.18,0.4,56.7,3.0,,0.0,0.0,
2025-08-15T04:25:38.290Z,3,GR86-065-5,72.8,0.13,0.413,58.66,3.0,,0.0,0.0,
2025-08-15T04:25:38.333Z,3,GR86-065-5,66.0,0.095,0.424,59.48,3.0,,0.0,0.0,
2025-08-15T04:25:38.376Z,3,GR86-065-5,59.3,0.069,0.388,59.48,3.0,1716.0,0.0,0.0,
2025-08-15T04:25:38.418Z,3,GR86-065-5,53.7,0.093,0.31,59.42,3.0,,0.0,0.0,34.59
2025-08-15T04:25:38.462Z,3,GR86-065-5,50.5,0.134,0.305,59.41,3.0,,0.0,0.0,
2025-08-15T04:25:38.505Z,3,GR86-065-5,50.5,0.145,0.313,61.1,3.0,,0.0,0.0,
2025-08-15T04:25:38.548Z,3,GR86-065-5,50.5,0.226,0.303,61.98,3.0,,0.0,0.0,
2025-08-15T04:25:38.591Z,3,GR86-065-5,50.5,0.177,0.375,62.07,3.0,1716.0,0.0,0.0,
2025-08-15T04:25:38.634Z,3,GR86-065-5,47.8,0.157,0.326,62.04,3.0,,0.0,0.0,35.52
2025-08-15T04:25:38.677Z,3,GR86-065-5,41.5,0.092,0.351,62.04,3.0,,0.0,0.0,
2025-08-15T04:25:38.762Z,3,GR86-065-5,31.4,0.158,0.333,62.11,3.0,,0.0,0.0,
2025-08-15T04:25:38.806Z,3,GR86-065-5,27.1,0.139,0.235,63.0,3.0,1906.0,0.0,0.0,
2025-08-15T04:25:38.848Z,3,GR86-065-5,25.200000000000003,0.164,0.268,64.56,3.0,,0.0,0.0,36.54
2025-08-15T04:25:38.892Z,3,GR86-065-5,23.700000000000003,0.115,0.301,64.5,3.0,,0.0,0.0,
2025-08-15T04:25:38.935Z,3,GR86-065-5,23.6,0.191,0.17,63.54,3.0,,0.0,0.0,
2025-08-15T04:25:38.978Z,3,GR86-065-5,23.6,0.137,0.222,63.34,3.0,,0.0,0.0,
2025-08-15T04:25:39.021Z,3,GR86-065-5,23.6,0.172,0.195,63.38,3.0,1903.0,0.0,0.0,
2025-08-15T04:25:39.064Z,3,GR86-065-5,23.6,0.097,0.219,63.41,3.0,,0.0,0.0,37.75
2025-08-15T04:25:39.107Z,3,GR86-065-5,23.5,0.19,0.188,63.38,3.0,,0.0,0.0,
2025-08-15T04:25:39.150Z,3,GR86-065-5,23.5,0.088,0.187,63.4,3.0,,0.0,0.0,
2025-08-15T04:25:39.193Z,3,GR86-065-5,22.200000000000003,0.114,0.259,63.690000000000005,3.0,,0.0,0.0,
2025-08-15T04:25:39.236Z,3,GR86-065-5,20.200000000000003,0.167,0.242,63.85,3.0,1882.0,0.0,0.0,
2025-08-15T04:25:39.279Z,3,GR86-065-5,17.8,0.175,0.154,64.0,3.0,,0.0,0.0,38.54
2025-08-15T04:25:39.322Z,3,GR86-065-5,14.3,0.173,0.129,64.2,3.0,,0.0,0.0,
2025-08-15T04:25:39.365Z,3,GR86-065-5,12.2,0.149,0.199,65.51,3.0,,0.0,0.0,
2025-08-15T04:25:39.408Z,3,GR86-065-5,9.5,0.182,0.239,66.73,3.0,,0.0,0.0,
2025-08-15T04:25:39.451Z,3,GR86-065-5,7.7,0.158,0.119,66.74,3.0,1942.0,0.0,0.0,
2025-08-15T04:25:39.494Z,3,GR86-065-5,6.7,0.117,0.097,66.73,3.0,,0.0,0.0,39.07
2025-08-15T04:25:39.537Z,3,GR86-065-5,6.1000000000000005,0.095,0.105,66.78,3.0,,0.0,0.0,
2025-08-15T04:25:39.580Z,3,GR86-065-5,4.3,0.163,0.15,66.66,3.0,,0.0,0.0,
2025-08-15T04:25:39.623Z,3,GR86-065-5,2.6,0.162,0.089,66.72,3.0,,0.0,0.0,
2025-08-15T04:25:39.666Z,3,GR86-065-5,0.4,0.125,0.055,66.71000000000001,3.0,1995.0,0.0,0.0,
2025-08-15T04:25:39.708Z,3,GR86-065-5,-2.2,0.101,0.017,67.94,3.0,,0.0,0.0,40.38
2025-08-15T04:25:39.752Z,3,GR86-065-5,-4.6000000000000005,0.223,0.011,69.11,3.0,,0.0,0.0,
2025-08-15T04:25:39.795Z,3,GR86-065-5,-6.6000000000000005,0.158,0.063,69.12,3.0,,0.0,0.0,
2025-08-15T04:25:39.838Z,3,GR86-065-5,-8.6,0.108,0.036,69.15,3.0,,0.0,0.0,
2025-08-15T04:25:39.881Z,3,GR86-065-5,-9.4,0.131,0.038,69.49,3.0,2054.0,0.0,0.0,
2025-08-15T04:25:39.924Z,3,GR86-065-5,-9.4,0.191,-0.034,69.53,3.0,,0.0,0.0,40.95
2025-08-15T04:25:39.968Z,3,GR86-065-5,-8.4,0.138,-0.036,69.56,3.0,,0.0,0.0,
2025-08-15T04:25:40.011Z,3,GR86-065-5,-6.800000000000001,0.071,0.012,71.65,3.0,,0.0,0.0,
2025-08-15T04:25:40.054Z,3,GR86-065-5,-6.5,0.121,0.06,78.29,3.0,,0.0,0.0,
2025-08-15T04:25:40.097Z,3,GR86-065-5,-6.5,0.123,0.04,77.94,3.0,2143.0,0.0,0.0,
2025-08-15T04:25:40.142Z,3,GR86-065-5,-7.0,0.114,-0.035,76.32000000000001,3.0,,0.0,0.0,43.04
2025-08-15T04:25:40.185Z,3,GR86-065-5,-10.8,0.089,-0.033,76.35000000000001,3.0,,0.0,0.0,
2025-08-15T04:25:40.228Z,3,GR86-065-5,-13.2,0.196,-0.056,77.11,3.0,,0.0,0.0,
2025-08-15T04:25:40.271Z,3,GR86-065-5,-13.6,0.232,-0.052,77.24,3.0,,0.0,0.0,
2025-08-15T04:25:40.314Z,3,GR86-065-5,-13.6,0.205,-0.066,77.27,3.0,2116.0,0.0,0.0,
2025-08-15T04:25:40.357Z,3,GR86-065-5,-13.6,0.111,-0.092,77.24,3.0,,0.0,0.0,44.07
2025-08-15T04:25:40.400Z,3,GR86-065-5,-13.6,0.126,-0.115,77.18,3.0,,0.0,0.0,
2025-08-15T04:25:40.444Z,3,GR86-065-5,-13.7,0.102,-0.01,76.33,3.0,,0.0,0.0,
2025-08-15T04:25:40.487Z,3,GR86-065-5,-17.0,0.056,-0.092,77.12,3.0,,0.0,0.0,
2025-08-15T04:25:40.530Z,3,GR86-065-5,-19.0,0.049,-0.162,77.49,3.0,2197.0,0.0,0.0,
2025-08-15T04:25:40.573Z,3,GR86-065-5,-19.5,0.103,-0.143,76.4,3.0,,0.0,0.0,45.36
2025-08-15T04:25:40.616Z,3,GR86-065-5,-19.5,0.21,-0.156,75.86,3.0,,0.0,0.0,
2025-08-15T04:25:40.745Z,3,GR86-065-5,-15.8,0.203,-0.188,79.32000000000001,3.0,2336.0,0.0,0.0,
2025-08-15T04:25:40.788Z,3,GR86-065-5,-12.8,0.088,-0.18,79.19,3.0,,0.0,0.0,46.12
2025-08-15T04:25:40.831Z,3,GR86-065-5,-11.0,0.112,-0.163,78.91,3.0,,0.0,0.0,
2025-08-15T04:25:40.874Z,3,GR86-065-5,-10.8,0.129,-0.15,77.8,3.0,,0.0,0.0,
2025-08-15T04:25:40.917Z,3,GR86-065-5,-10.8,0.116,-0.072,77.62,3.0,,0.0,0.0,
2025-08-15T04:25:40.960Z,3,GR86-065-5,-16.7,0.163,-0.099,77.76,3.0,2337.0,0.0,0.0,
2025-08-15T04:25:41.003Z,3,GR86-065-5,-24.0,0.184,-0.118,77.76,3.0,,0.0,0.0,47.37
2025-08-15T04:25:41.046Z,3,GR86-065-5,-31.200000000000003,0.145,-0.164,78.21000000000001,3.0,,0.0,0.0,
2025-08-15T04:25:41.088Z,3,GR86-065-5,-36.5,0.153,-0.178,78.42,3.0,,0.0,0.0,
2025-08-15T04:25:41.132Z,3,GR86-065-5,-38.1,0.102,-0.189,78.8,3.0,,0.0,0.0,
2025-08-15T04:25:41.175Z,3,GR86-065-5,-38.1,0.127,-0.129,79.27,3.0,2489.0,0.0,0.0,
2025-08-15T04:25:41.218Z,3,GR86-065-5,-37.1,0.15,-0.202,80.59,3.0,,0.0,0.0,48.870000000000005
2025-08-15T04:25:41.261Z,3,GR86-065-5,-30.0,0.147,-0.188,81.15,3.0,,0.0,0.0,
2025-08-15T04:25:41.304Z,3,GR86-065-5,-29.200000000000003,0.156,-0.192,81.11,3.0,,0.0,0.0,
2025-08-15T04:25:41.347Z,3,GR86-065-5,-29.200000000000003,0.108,-0.185,81.5,3.0,,0.0,0.0,
2025-08-15T04:25:41.390Z,3,GR86-065-5,-30.3,0.143,-0.232,82.77,3.0,2479.0,0.0,0.0,
2025-08-15T04:25:41.432Z,3,GR86-065-5,-35.4,0.188,-0.275,82.45,3.0,,0.0,0.0,50.0
2025-08-15T04:25:41.476Z,3,GR86-065-5,-39.5,0.194,-0.257,83.09,3.0,,0.0,0.0,
2025-08-15T04:25:41.518Z,3,GR86-065-5,-40.0,0.164,-0.284,88.83,3.0,,0.0,0.0,
2025-08-15T04:25:41.562Z,3,GR86-065-5,-35.2,0.175,-0.278,92.73,3.0,,0.0,0.0,
2025-08-15T04:25:41.605Z,3,GR86-065-5,-25.200000000000003,0.117,-0.353,93.0,3.0,2590.0,0.0,0.0,
2025-08-15T04:25:41.648Z,3,GR86-065-5,-16.900000000000002,0.128,-0.239,94.38,3.0,,0.0,0.0,51.2
2025-08-15T04:25:41.691Z,3,GR86-065-5,-13.6,0.126,-0.248,95.42,3.0,,0.0,0.0,
2025-08-15T04:25:41.734Z,3,GR86-065-5,-13.6,0.124,-0.21,95.73,3.0,,0.0,0.0,
2025-08-15T04:25:41.777Z,3,GR86-065-5,-13.6,0.223,-0.303,95.89,3.0,,0.0,0.0,
2025-08-15T04:25:41.820Z,3,GR86-065-5,-22.8,0.301,-0.421,93.21,3.0,2593.0,0.0,0.0,
2025-08-15T04:25:41.865Z,3,GR86-065-5,-25.1,0.203,-0.537,92.81,3.0,,0.0,0.0,52.92
2025-08-15T04:25:41.908Z,3,GR86-065-5,-25.1,0.151,-0.471,92.87,3.0,,0.0,0.0,
2025-08-15T04:25:41.952Z,3,GR86-065-5,-19.6,0.204,-0.404,93.61,3.0,,0.0,0.0,
2025-08-15T04:25:41.995Z,3,GR86-065-5,-10.5,0.129,-0.278,94.06,3.0,,0.0,0.0,
2025-08-15T04:25:42.038Z,3,GR86-065-5,-1.4,0.211,-0.12,94.22,3.0,2758.0,0.0,0.0,
2025-08-15T04:25:42.081Z,3,GR86-065-5,5.1000000000000005,0.205,0.002,94.21,3.0,,0.0,0.0,54.54
2025-08-15T04:25:42.124Z,3,GR86-065-5,5.2,0.18,0.061,94.36,3.0,,0.0,0.0,
2025-08-15T04:25:42.168Z,3,GR86-065-5,3.4000000000000004,0.175,0.089,94.85,3.0,,0.0,0.0,
2025-08-15T04:25:42.211Z,3,GR86-065-5,-4.0,0.198,0.044,95.41,3.0,,0.0,0.0,
2025-08-15T04:25:42.254Z,3,GR86-065-5,-10.9,0.188,-0.036,95.68,3.0,2642.0,0.0,0.0,
2025-08-15T04:25:42.297Z,3,GR86-065-5,-16.2,0.207,-0.075,95.71,3.0,,0.0,0.0,56.2
2025-08-15T04:25:42.342Z,3,GR86-065-5,-19.200000000000003,0.17,-0.154,95.87,3.0,,0.0,0.0,
2025-08-15T04:25:42.385Z,3,GR86-065-5,-19.200000000000003,0.162,-0.178,96.19,3.0,,0.0,0.0,
2025-08-15T04:25:42.428Z,3,GR86-065-5,-19.200000000000003,0.162,-0.234,97.14,3.0,,0.0,0.0,
2025-08-15T04:25:42.471Z,3,GR86-065-5,-19.200000000000003,0.168,-0.224,97.43,3.0,2700.0,0.0,0.0,
2025-08-15T04:25:42.514Z,3,GR86-065-5,-17.5,0.198,-0.207,97.7,3.0,,0.0,0.0,56.93
2025-08-15T04:25:42.557Z,3,GR86-065-5,-16.0,0.206,-0.196,97.96,3.0,,0.0,0.0,
2025-08-15T04:25:42.600Z,3,GR86-065-5,-13.6,0.21,-0.186,98.11,3.0,,0.0,0.0,
2025-08-15T04:25:42.644Z,3,GR86-065-5,-13.1,0.204,-0.174,98.08,3.0,,0.0,0.0,
2025-08-15T04:25:42.687Z,3,GR86-065-5,-12.6,0.173,-0.083,98.23,3.0,2778.0,0.0,0.0,
2025-08-15T04:25:42.730Z,3,GR86-065-5,-12.3,0.186,-0.079,98.64,3.0,,0.0,0.0,58.26
2025-08-15T04:25:42.773Z,3,GR86-065-5,-12.3,0.195,-0.064,98.93,3.0,,0.0,0.0,
2025-08-15T04:25:42.816Z,3,GR86-065-5,-12.3,0.207,-0.041,99.34,3.0,,0.0,0.0,
2025-08-15T04:25:42.860Z,3,GR86-065-5,-12.3,0.199,-0.044,99.47,3.0,,0.0,0.0,
2025-08-15T04:25:42.902Z,3,GR86-065-5,-12.3,0.188,-0.041,99.74,3.0,2885.0,0.0,0.0,
2025-08-15T04:25:42.947Z,3,GR86-065-5,-12.3,0.188,-0.049,99.92,3.0,,0.0,0.0,61.78
2025-08-15T04:25:42.990Z,3,GR86-065-5,-12.3,0.2,-0.066,100.08,3.0,,0.0,0.0,
2025-08-15T04:25:43.032Z,3,GR86-065-5,-12.3,0.201,-0.045,100.13,3.0,,0.0,0.0,
2025-08-15T04:25:43.076Z,3,GR86-065-5,-12.3,0.185,-0.057,100.14,3.0,,0.0,0.0,
2025-08-15T04:25:43.119Z,3,GR86-065-5,-12.3,0.199,-0.059,100.14,3.0,2919.0,0.0,0.0,
2025-08-15T04:25:43.162Z,3,GR86-065-5,-10.8,0.207,-0.055,100.14,3.0,,0.0,0.0,63.42
2025-08-15T04:25:43.205Z,3,GR86-065-5,-9.9,0.208,-0.053,100.14,3.0,,0.0,0.0,
2025-08-15T04:25:43.248Z,3,GR86-065-5,-9.8,0.194,-0.022,100.14,3.0,,0.0,0.0,
2025-08-15T04:25:43.291Z,3,GR86-065-5,-9.8,0.192,-0.023,100.13,3.0,,0.0,0.0,
2025-08-15T04:25:43.334Z,3,GR86-065-5,-9.7,0.206,-0.029,100.13,3.0,2996.0,0.0,0.0,
2025-08-15T04:25:43.377Z,3,GR86-065-5,-8.9,0.214,-0.016,100.13,3.0,,0.0,0.0,65.09
2025-08-15T04:25:43.420Z,3,GR86-065-5,-8.0,0.206,-0.018,100.14,3.0,,0.0,0.0,
2025-08-15T04:25:43.463Z,3,GR86-065-5,-8.0,0.195,0.004,100.13,3.0,,0.0,0.0,
2025-08-15T04:25:43.506Z,3,GR86-065-5,-8.0,0.186,-0.003,100.11,3.0,,0.0,0.0,
2025-08-15T04:25:43.550Z,3,GR86-065-5,-8.0,0.212,-0.003,100.09,3.0,3165.0,0.0,0.0,
2025-08-15T04:25:43.592Z,3,GR86-065-5,-8.0,0.221,0.012,100.07,3.0,,0.0,0.0,66.79
2025-08-15T04:25:43.636Z,3,GR86-065-5,-8.0,0.211,-0.003,100.07,3.0,,0.0,0.0,
2025-08-15T04:25:43.679Z,3,GR86-065-5,-8.0,0.199,0.01,100.05,3.0,,0.0,0.0,
2025-08-15T04:25:43.722Z,3,GR86-065-5,-8.0,0.196,-0.007,100.04,3.0,,0.0,0.0,
2025-08-15T04:25:43.765Z,3,GR86-065-5,-7.9,0.205,0.016,100.03,3.0,3249.0,0.0,0.0,
2025-08-15T04:25:43.808Z,3,GR86-065-5,-7.800000000000001,0.204,0.002,100.03,3.0,,0.0,0.0,68.53
2025-08-15T04:25:43.851Z,3,GR86-065-5,-7.800000000000001,0.21,-0.012,100.02,3.0,,0.0,0.0,
2025-08-15T04:25:43.894Z,3,GR86-065-5,-7.5,0.207,0.003,100.01,3.0,,0.0,0.0,
2025-08-15T04:25:43.937Z,3,GR86-065-5,-7.1000000000000005,0.196,-0.012,100.0,3.0,,0.0,0.0,
2025-08-15T04:25:43.980Z,3,GR86-065-5,-6.9,0.204,0.012,99.98,3.0,3328.0,0.0,0.0,
2025-08-15T04:25:44.022Z,3,GR86-065-5,-6.9,0.206,-0.003,99.98,3.0,,0.0,0.0,70.31
2025-08-15T04:25:44.066Z,3,GR86-065-5,-6.800000000000001,0.203,0.022,99.97,3.0,,0.0,0.0,
2025-08-15T04:25:44.108Z,3,GR86-065-5,-6.800000000000001,0.191,0.011,99.98,3.0,,0.0,0.0,
2025-08-15T04:25:44.152Z,3,GR86-065-5,-6.6000000000000005,0.194,0.001,99.97,3.0,,0.0,0.0,
2025-08-15T04:25:44.195Z,3,GR86-065-5,-5.9,0.201,0.012,99.98,3.0,3400.0,0.0,0.0,
2025-08-15T04:25:44.238Z,3,GR86-065-5,-5.5,0.197,-0.006,99.96,3.0,,0.0,0.0,72.10000000000001
2025-08-15T04:25:44.281Z,3,GR86-065-5,-5.5,0.209,0.024,99.97,3.0,,0.0,0.0,
2025-08-15T04:25:44.324Z,3,GR86-065-5,-5.5,0.205,0.009,99.98,3.0,,0.0,0.0,
2025-08-15T04:25:44.368Z,3,GR86-065-5,-5.5,0.198,0.027,99.98,3.0,,0.0,0.0,
2025-08-15T04:25:44.411Z,3,GR86-065-5,-5.5,0.189,0.014,99.97,3.0,3483.0,0.0,0.0,
2025-08-15T04:25:44.454Z,3,GR86-065-5,-5.5,0.198,0.036,99.97,3.0,,0.0,0.0,73.89
2025-08-15T04:25:44.497Z,3,GR86-065-5,-5.5,0.198,0.037,99.98,3.0,,0.0,0.0,
2025-08-15T04:25:44.542Z,3,GR86-065-5,-5.5,0.201,0.032,99.98,3.0,,0.0,0.0,
2025-08-15T04:25:44.585Z,3,GR86-065-5,-5.5,0.187,0.027,99.98,3.0,,0.0,0.0,
2025-08-15T04:25:44.628Z,3,GR86-065-5,-5.5,0.192,0.033,99.98,3.0,3570.0,0.0,0.0,
2025-08-15T04:25:44.671Z,3,GR86-065-5,-5.5,0.19,0.016,99.97,3.0,,0.0,0.0,75.71000000000001
2025-08-15T04:25:44.715Z,3,GR86-065-5,-5.5,0.207,-0.001,99.98,3.0,,0.0,0.0,
2025-08-15T04:25:44.758Z,3,GR86-065-5,-5.6000000000000005,0.213,-0.007,99.99,3.0,,0.0,0.0,
2025-08-15T04:25:44.802Z,3,GR86-065-5,-5.6000000000000005,0.196,-0.03,99.98,3.0,,0.0,0.0,
2025-08-15T04:25:44.845Z,3,GR86-065-5,-5.6000000000000005,0.193,-0.029,99.98,3.0,3657.0,0.0,0.0,
2025-08-15T04:25:44.888Z,3,GR86-065-5,-5.6000000000000005,0.204,-0.031,99.97,3.0,,0.0,0.0,77.59
2025-08-15T04:25:44.931Z,3,GR86-065-5,-5.6000000000000005,0.204,-0.014,99.98,3.0,,0.0,0.0,
2025-08-15T04:25:44.974Z,3,GR86-065-5,-5.6000000000000005,0.201,-0.02,99.98,3.0,,0.0,0.0,
2025-08-15T04:25:45.017Z,3,GR86-065-5,-5.6000000000000005,0.205,0.014,99.98,3.0,,0.0,0.0,
2025-08-15T04:25:45.060Z,3,GR86-065-5,-5.6000000000000005,0.192,0.003,99.98,3.0,3756.0,0.0,0.0,
2025-08-15T04:25:45.104Z,3,GR86-065-5,-5.6000000000000005,0.2,0.023,99.99,3.0,,0.0,0.0,79.44
2025-08-15T04:25:45.147Z,3,GR86-065-5,-5.6000000000000005,0.207,0.01,99.97,3.0,,0.0,0.0,
2025-08-15T04:25:45.190Z,3,GR86-065-5,-5.6000000000000005,0.2,0.017,99.97,3.0,,0.0,0.0,
2025-08-15T04:25:45.233Z,3,GR86-065-5,-5.6000000000000005,0.191,-0.011,99.97,3.0,,0.0,0.0,
2025-08-15T04:25:45.276Z,3,GR86-065-5,-5.6000000000000005,0.199,0.008,99.97,3.0,3837.0,0.0,0.0,
2025-08-15T04:25:45.318Z,3,GR86-065-5,-5.6000000000000005,0.189,-0.021,99.98,3.0,,0.0,0.0,81.37
2025-08-15T04:25:45.362Z,3,GR86-065-5,-5.6000000000000005,0.186,-0.012,99.97,3.0,,0.0,0.0,
2025-08-15T04:25:45.405Z,3,GR86-065-5,-5.6000000000000005,0.194,-0.03,100.02,3.0,,0.0,0.0,
2025-08-15T04:25:45.448Z,3,GR86-065-5,-5.6000000000000005,0.185,-0.018,99.98,3.0,,0.0,0.0,
2025-08-15T04:25:45.491Z,3,GR86-065-5,-5.6000000000000005,0.187,-0.047,100.01,3.0,3926.0,0.0,0.0,
2025-08-15T04:25:45.534Z,3,GR86-065-5,-5.6000000000000005,0.202,-0.03,100.02,3.0,,0.0,0.0,83.28
2025-08-15T04:25:45.577Z,3,GR86-065-5,-5.6000000000000005,0.192,-0.035,100.0,3.0,,0.0,0.0,
2025-08-15T04:25:45.620Z,3,GR86-065-5,-5.6000000000000005,0.176,-0.01,100.01,3.0,,0.0,0.0,
2025-08-15T04:25:45.662Z,3,GR86-065-5,-5.6000000000000005,0.2,-0.008,100.01,3.0,,0.0,0.0,
2025-08-15T04:25:45.706Z,3,GR86-065-5,-5.6000000000000005,0.194,0.0,100.01,3.0,4018.0,0.0,0.0,
2025-08-15T04:25:45.748Z,3,GR86-065-5,-5.6000000000000005,0.196,0.002,100.02,3.0,,0.0,0.0,87.04
2025-08-15T04:25:45.792Z,3,GR86-065-5,-5.6000000000000005,0.177,0.024,100.01,3.0,,0.0,0.0,
2025-08-15T04:25:45.835Z,3,GR86-065-5,-5.6000000000000005,0.189,0.011,100.01,3.0,,0.0,0.0,
2025-08-15T04:25:45.878Z,3,GR86-065-5,-5.6000000000000005,0.183,0.009,100.02,3.0,,0.0,0.0,
2025-08-15T04:25:45.921Z,3,GR86-065-5,-5.6000000000000005,0.206,0.021,100.04,3.0,4101.0,0.0,0.0,
2025-08-15T04:25:45.964Z,3,GR86-065-5,-5.6000000000000005,0.199,0.001,100.01,3.0,,0.0,0.0,88.91
2025-08-15T04:25:46.007Z,3,GR86-065-5,-5.6000000000000005,0.199,0.014,100.02,3.0,,0.0,0.0,
2025-08-15T04:25:46.050Z,3,GR86-065-5,-5.6000000000000005,0.19,0.004,100.04,3.0,,0.0,0.0,
2025-08-15T04:25:46.093Z,3,GR86-065-5,-5.6000000000000005,0.204,0.007,100.01,3.0,,0.0,0.0,
2025-08-15T04:25:46.136Z,3,GR86-065-5,-5.6000000000000005,0.21,0.0,100.01,3.0,4182.0,0.0,0.0,
2025-08-15T04:25:46.179Z,3,GR86-065-5,-5.6000000000000005,0.207,0.007,100.01,3.0,,0.0,0.0,90.83
2025-08-15T04:25:46.222Z,3,GR86-065-5,-5.6000000000000005,0.212,0.004,100.01,3.0,,0.0,0.0,
2025-08-15T04:25:46.265Z,3,GR86-065-5,-5.6000000000000005,0.215,-0.019,100.03,3.0,,0.0,0.0,
2025-08-15T04:25:46.308Z,3,GR86-065-5,-5.6000000000000005,0.226,-0.005,100.01,3.0,,0.0,0.0,
2025-08-15T04:25:46.351Z,3,GR86-065-5,-5.6000000000000005,0.206,-0.023,100.01,3.0,4378.0,0.0,0.0,
2025-08-15T04:25:46.394Z,3,GR86-065-5,-5.6000000000000005,0.212,-0.008,100.01,3.0,,0.0,0.0,92.69
2025-08-15T04:25:46.437Z,3,GR86-065-5,-5.6000000000000005,0.221,-0.023,100.01,3.0,,0.0,0.0,
2025-08-15T04:25:46.480Z,3,GR86-065-5,-5.6000000000000005,0.227,-0.011,100.01,3.0,,0.0,0.0,
2025-08-15T04:25:46.523Z,3,GR86-065-5,-5.6000000000000005,0.234,-0.002,100.01,3.0,,0.0,0.0,
2025-08-15T04:25:46.566Z,3,GR86-065-5,-5.6000000000000005,0.212,0.004,99.99,3.0,4461.0,0.0,0.0,
2025-08-15T04:25:46.608Z,3,GR86-065-5,-5.6000000000000005,0.227,0.012,99.99,3.0,,0.0,0.0,94.71
2025-08-15T04:25:46.652Z,3,GR86-065-5,-5.6000000000000005,0.223,0.004,100.01,3.0,,0.0,0.0,
2025-08-15T04:25:46.695Z,3,GR86-065-5,-5.6000000000000005,0.239,0.017,99.99,3.0,,0.0,0.0,
2025-08-15T04:25:46.738Z,3,GR86-065-5,-5.6000000000000005,0.219,0.016,99.99,3.0,,0.0,0.0,
2025-08-15T04:25:46.781Z,3,GR86-065-5,-5.6000000000000005,0.208,-0.004,99.99,3.0,4555.0,0.0,0.0,
2025-08-15T04:25:46.824Z,3,GR86-065-5,-5.6000000000000005,0.227,0.006,100.01,3.0,,0.0,0.0,96.78
2025-08-15T04:25:46.868Z,3,GR86-065-5,-5.6000000000000005,0.212,-0.011,100.0,3.0,,0.0,0.0,
2025-08-15T04:25:46.911Z,3,GR86-065-5,-5.6000000000000005,0.221,-0.006,99.99,3.0,,0.0,0.0,
2025-08-15T04:25:46.954Z,3,GR86-065-5,-5.6000000000000005,0.214,-0.008,100.01,3.0,,0.0,0.0,
2025-08-15T04:25:46.997Z,3,GR86-065-5,-5.6000000000000005,0.204,-0.012,99.97,3.0,4657.0,0.0,0.0,
2025-08-15T04:25:47.042Z,3,GR86-065-5,-5.6000000000000005,0.216,-0.03,100.01,3.0,,0.0,0.0,98.9
2025-08-15T04:25:47.085Z,3,GR86-065-5,-5.6000000000000005,0.206,-0.046,100.0,3.0,,0.0,0.0,
2025-08-15T04:25:47.128Z,3,GR86-065-5,-5.6000000000000005,0.203,-0.047,99.99,3.0,,0.0,0.0,
2025-08-15T04:25:47.171Z,3,GR86-065-5,-6.1000000000000005,0.214,-0.068,100.01,3.0,,0.0,0.0,
2025-08-15T04:25:47.214Z,3,GR86-065-5,-6.4,0.21,-0.083,100.0,3.0,4755.0,0.0,0.0,
2025-08-15T04:25:47.257Z,3,GR86-065-5,-6.5,0.221,-0.098,100.01,3.0,,0.0,0.0,101.06
2025-08-15T04:25:47.300Z,3,GR86-065-5,-6.6000000000000005,0.212,-0.107,100.01,3.0,,0.0,0.0,
2025-08-15T04:25:47.344Z,3,GR86-065-5,-6.6000000000000005,0.196,-0.107,100.01,3.0,,0.0,0.0,
2025-08-15T04:25:47.387Z,3,GR86-065-5,-6.6000000000000005,0.21,-0.107,100.01,3.0,,0.0,0.0,
2025-08-15T04:25:47.430Z,3,GR86-065-5,-6.6000000000000005,0.188,-0.113,100.0,3.0,4852.0,0.0,0.0,
2025-08-15T04:25:47.473Z,3,GR86-065-5,-7.0,0.199,-0.106,100.02,3.0,,0.0,0.0,103.11
2025-08-15T04:25:47.516Z,3,GR86-065-5,-7.5,0.213,-0.114,100.01,3.0,,0.0,0.0,
2025-08-15T04:25:47.558Z,3,GR86-065-5,-7.7,0.193,-0.115,100.01,3.0,,0.0,0.0,
2025-08-15T04:25:47.602Z,3,GR86-065-5,-7.7,0.19,-0.131,100.01,3.0,,0.0,0.0,
2025-08-15T04:25:47.645Z,3,GR86-065-5,-7.7,0.206,-0.134,100.0,3.0,4946.0,0.0,0.0,
2025-08-15T04:25:47.688Z,3,GR86-065-5,-7.7,0.194,-0.141,100.0,3.0,,0.0,0.0,105.18
2025-08-15T04:25:47.731Z,3,GR86-065-5,-7.7,0.206,-0.141,100.0,3.0,,0.0,0.0,
2025-08-15T04:25:47.774Z,3,GR86-065-5,-7.7,0.199,-0.141,100.01,3.0,,0.0,0.0,
2025-08-15T04:25:47.817Z,3,GR86-065-5,-7.7,0.195,-0.149,99.99,3.0,,0.0,0.0,
2025-08-15T04:25:47.860Z,3,GR86-065-5,-7.7,0.2,-0.154,99.99,3.0,5033.0,0.0,0.0,
2025-08-15T04:25:47.903Z,3,GR86-065-5,-7.7,0.209,-0.151,99.99,3.0,,0.0,0.0,107.16
2025-08-15T04:25:47.946Z,3,GR86-065-5,-7.7,0.195,-0.153,100.01,3.0,,0.0,0.0,
2025-08-15T04:25:47.988Z,3,GR86-065-5,-7.7,0.205,-0.152,99.99,3.0,,0.0,0.0,
2025-08-15T04:25:48.032Z,3,GR86-065-5,-7.7,0.199,-0.142,100.0,3.0,,0.0,0.0,
2025-08-15T04:25:48.075Z,3,GR86-065-5,-7.7,0.203,-0.133,100.0,3.0,5130.0,0.0,0.0,
2025-08-15T04:25:48.118Z,3,GR86-065-5,-7.7,0.212,-0.124,99.98,3.0,,0.0,0.0,109.05
2025-08-15T04:25:48.162Z,3,GR86-065-5,-7.7,0.206,-0.121,100.0,3.0,,0.0,0.0,
2025-08-15T04:25:48.205Z,3,GR86-065-5,-7.7,0.188,-0.121,100.01,3.0,,0.0,0.0,
2025-08-15T04:25:48.248Z,3,GR86-065-5,-7.7,0.207,-0.117,99.99,3.0,,0.0,0.0,
2025-08-15T04:25:48.291Z,3,GR86-065-5,-7.7,0.205,-0.107,99.99,3.0,5216.0,0.0,0.0,
2025-08-15T04:25:48.334Z,3,GR86-065-5,-7.7,0.194,-0.095,100.01,3.0,,0.0,0.0,110.96
2025-08-15T04:25:48.377Z,3,GR86-065-5,-7.7,0.207,-0.094,100.01,3.0,,0.0,0.0,
2025-08-15T04:25:48.420Z,3,GR86-065-5,-7.7,0.206,-0.1,100.0,3.0,,0.0,0.0,
2025-08-15T04:25:48.465Z,3,GR86-065-5,-7.7,0.191,-0.083,100.0,3.0,,0.0,0.0,
2025-08-15T04:25:48.508Z,3,GR86-065-5,-7.7,0.199,-0.089,100.0,3.0,5299.0,0.0,0.0,
2025-08-15T04:25:48.552Z,3,GR86-065-5,-7.7,0.215,-0.083,100.0,3.0,,0.0,0.0,114.74
2025-08-15T04:25:48.595Z,3,GR86-065-5,-7.7,0.182,-0.074,99.99,3.0,,0.0,0.0,
2025-08-15T04:25:48.638Z,3,GR86-065-5,-7.7,0.202,-0.079,99.98,3.0,,0.0,0.0,
2025-08-15T04:25:48.681Z,3,GR86-065-5,-7.7,0.198,-0.079,100.0,3.0,,0.0,0.0,
2025-08-15T04:25:48.724Z,3,GR86-065-5,-7.7,0.197,-0.079,100.01,3.0,5387.0,0.0,0.0,
2025-08-15T04:25:48.768Z,3,GR86-065-5,-7.7,0.183,-0.081,100.0,3.0,,0.0,0.0,116.67
2025-08-15T04:25:48.811Z,3,GR86-065-5,-7.7,0.201,-0.082,100.01,3.0,,0.0,0.0,
2025-08-15T04:25:48.854Z,3,GR86-065-5,-7.7,0.197,-0.081,99.99,3.0,,0.0,0.0,
2025-08-15T04:25:48.897Z,3,GR86-065-5,-7.7,0.183,-0.066,100.02,3.0,,0.0,0.0,
2025-08-15T04:25:48.942Z,3,GR86-065-5,-7.7,0.176,-0.068,100.01,3.0,5571.0,0.0,0.0,
2025-08-15T04:25:48.985Z,3,GR86-065-5,-7.7,0.198,-0.076,100.0,3.0,,0.0,0.0,118.5
2025-08-15T04:25:49.028Z,3,GR86-065-5,-7.7,0.197,-0.072,99.97,3.0,,0.0,0.0,
2025-08-15T04:25:49.071Z,3,GR86-065-5,-7.7,0.181,-0.064,100.0,3.0,,0.0,0.0,
2025-08-15T04:25:49.114Z,3,GR86-065-5,-7.7,0.2,-0.082,100.0,3.0,,0.0,0.0,
2025-08-15T04:25:49.157Z,3,GR86-065-5,-7.7,0.192,-0.082,100.0,3.0,5647.0,0.0,0.0,
2025-08-15T04:25:49.200Z,3,GR86-065-5,-7.7,0.197,-0.108,99.98,3.0,,0.0,0.0,120.38
2025-08-15T04:25:49.244Z,3,GR86-065-5,-7.7,0.192,-0.107,100.01,3.0,,0.0,0.0,
2025-08-15T04:25:49.287Z,3,GR86-065-5,-7.7,0.197,-0.095,100.01,3.0,,0.0,0.0,
2025-08-15T04:25:49.330Z,3,GR86-065-5,-7.7,0.192,-0.103,99.99,3.0,,0.0,0.0,
2025-08-15T04:25:49.373Z,3,GR86-065-5,-7.7,0.184,-0.08,100.0,3.0,5729.0,0.0,0.0,
2025-08-15T04:25:49.416Z,3,GR86-065-5,-7.0,0.194,-0.081,100.0,3.0,,0.0,0.0,122.2
2025-08-15T04:25:49.458Z,3,GR86-065-5,-5.9,0.196,-0.083,100.01,3.0,,0.0,0.0,
2025-08-15T04:25:49.502Z,3,GR86-065-5,-5.2,0.209,-0.059,100.0,3.0,,0.0,0.0,
2025-08-15T04:25:49.545Z,3,GR86-065-5,-5.2,0.192,-0.024,100.01,3.0,,0.0,0.0,
2025-08-15T04:25:49.588Z,3,GR86-065-5,-5.2,0.181,-0.002,100.0,3.0,5816.0,0.0,0.0,
2025-08-15T04:25:49.631Z,3,GR86-065-5,-5.2,0.204,-0.009,100.01,3.0,,0.0,0.0,124.04
2025-08-15T04:25:49.674Z,3,GR86-065-5,-5.2,0.186,0.013,100.02,3.0,,0.0,0.0,
2025-08-15T04:25:49.717Z,3,GR86-065-5,-5.2,0.189,0.028,100.01,3.0,,0.0,0.0,
2025-08-15T04:25:49.760Z,3,GR86-065-5,-5.2,0.195,0.046,100.03,3.0,,0.0,0.0,
2025-08-15T04:25:49.846Z,3,GR86-065-5,-5.2,0.185,0.006,100.02,3.0,5900.0,0.0,0.0,125.79
2025-08-15T04:25:49.890Z,3,GR86-065-5,-5.2,0.196,0.001,100.02,3.0,,0.0,0.0,
2025-08-15T04:25:49.933Z,3,GR86-065-5,-5.2,0.185,0.01,100.01,3.0,,0.0,0.0,
2025-08-15T04:25:49.976Z,3,GR86-065-5,-5.2,0.192,-0.022,100.01,3.0,,0.0,0.0,
2025-08-15T04:25:50.018Z,3,GR86-065-5,-5.2,0.183,-0.004,100.01,3.0,5985.0,0.0,0.0,
2025-08-15T04:25:50.062Z,3,GR86-065-5,-5.2,0.192,-0.024,100.0,3.0,,0.0,0.0,127.52
2025-08-15T04:25:50.105Z,3,GR86-065-5,-5.2,0.186,-0.027,99.97,3.0,,0.0,0.0,
2025-08-15T04:25:50.148Z,3,GR86-065-5,-5.2,0.179,-0.034,99.98,3.0,,0.0,0.0,
2025-08-15T04:25:50.191Z,3,GR86-065-5,-5.2,0.197,-0.066,100.01,3.0,,0.0,0.0,
2025-08-15T04:25:50.234Z,3,GR86-065-5,-5.300000000000001,0.188,-0.085,100.01,3.0,6059.0,0.0,0.0,
2025-08-15T04:25:50.277Z,3,GR86-065-5,-5.5,0.184,-0.082,93.83,3.0,,0.0,0.0,129.26
2025-08-15T04:25:50.320Z,3,GR86-065-5,-6.300000000000001,0.196,-0.114,36.22,3.0,,0.0,0.0,
2025-08-15T04:25:50.363Z,3,GR86-065-5,-6.7,0.174,-0.142,31.54,3.0,,0.0,0.0,
2025-08-15T04:25:50.406Z,3,GR86-065-5,-6.7,0.132,-0.178,15.57,3.0,,2.455,2.135,
2025-08-15T04:25:50.449Z,3,GR86-065-5,-6.7,0.085,-0.178,3.59,3.0,6142.0,4.305,3.97,
2025-08-15T04:25:50.492Z,3,GR86-065-5,-6.7,-0.026,-0.157,3.38,3.0,,7.235,7.0200000000000005,131.01
2025-08-15T04:25:50.535Z,3,GR86-065-5,-5.9,-0.203,-0.121,3.19,3.0,,11.035,10.865,
2025-08-15T04:25:50.578Z,3,GR86-065-5,-5.7,-0.302,-0.115,3.0,3.0,,14.815,14.545,
2025-08-15T04:25:50.621Z,3,GR86-065-5,-5.7,-0.593,-0.103,2.84,3.0,,21.96,21.805,
2025-08-15T04:25:50.664Z,3,GR86-065-5,-7.9,-0.501,-0.114,2.75,3.0,6218.0,25.805,25.895,
2025-08-15T04:25:50.707Z,3,GR86-065-5,-11.0,-0.468,-0.22,2.67,3.0,,28.185,28.245,132.72
2025-08-15T04:25:50.750Z,3,GR86-065-5,-11.9,-0.549,-0.225,2.61,3.0,,30.275,30.045,
2025-08-15T04:25:50.792Z,3,GR86-065-5,-12.0,-0.518,-0.275,2.59,3.0,,31.45,31.33,
2025-08-15T04:25:50.836Z,3,GR86-065-5,-11.0,-0.647,-0.285,2.5500000000000003,3.0,,31.895,31.71,
2025-08-15T04:25:50.879Z,3,GR86-065-5,-9.8,-0.649,-0.206,35.89,3.0,5932.0,32.14,31.68,
2025-08-15T04:25:50.922Z,3,GR86-065-5,-9.4,-0.617,-0.228,98.56,3.0,,31.895,31.36,134.3
2025-08-15T04:25:50.965Z,3,GR86-065-5,-9.4,-0.606,-0.233,100.24,3.0,,31.77,31.33,
2025-08-15T04:25:51.051Z,3,GR86-065-5,-9.6,-0.598,-0.316,84.59,2.0,,31.71,31.33,
2025-08-15T04:25:51.094Z,3,GR86-065-5,-11.0,-0.89,-0.236,3.25,2.0,6047.0,32.655,31.955,
2025-08-15T04:25:51.137Z,3,GR86-065-5,-11.0,-0.672,-0.325,2.62,2.0,,35.205,33.68,132.91
2025-08-15T04:25:51.180Z,3,GR86-065-5,-11.0,-0.6990000000000001,-0.34,2.49,2.0,,31.62,31.68,
2025-08-15T04:25:51.223Z,3,GR86-065-5,-11.0,-0.672,-0.293,2.46,2.0,,31.42,31.055,
2025-08-15T04:25:51.266Z,3,GR86-065-5,-11.1,-0.655,-0.365,2.46,2.0,,30.64,30.11,
2025-08-15T04:25:51.308Z,3,GR86-065-5,-11.7,-0.666,-0.359,2.47,2.0,5802.0,27.865,26.535,
2025-08-15T04:25:51.352Z,3,GR86-065-5,-11.8,-0.615,-0.338,2.46,2.0,,23.775,22.25,125.06
2025-08-15T04:25:51.395Z,3,GR86-065-5,-12.5,-0.584,-0.39,2.48,2.0,,20.845,19.425,
2025-08-15T04:25:51.438Z,3,GR86-065-5,-15.7,-0.577,-0.371,2.47,2.0,,19.64,18.65,
2025-08-15T04:25:51.481Z,3,GR86-065-5,-18.9,-0.559,-0.447,2.48,2.0,,19.55,18.465,
2025-08-15T04:25:51.524Z,3,GR86-065-5,-20.700000000000003,-0.537,-0.434,2.48,2.0,6879.0,19.21,18.055,
2025-08-15T04:25:51.568Z,3,GR86-065-5,-21.700000000000003,-0.528,-0.497,2.48,2.0,,18.295,17.12,120.48
2025-08-15T04:25:51.611Z,3,GR86-065-5,-22.1,-0.519,-0.493,2.49,2.0,,17.06,15.87,
2025-08-15T04:25:51.654Z,3,GR86-065-5,-22.700000000000003,-0.49,-0.511,2.47,2.0,,14.575,13.4,
2025-08-15T04:25:51.697Z,3,GR86-065-5,-25.3,-0.453,-0.555,2.49,2.0,,12.175,11.035,
2025-08-15T04:25:51.742Z,3,GR86-065-5,-31.4,-0.428,-0.646,2.47,2.0,6493.0,10.56,9.69,
2025-08-15T04:25:51.785Z,3,GR86-065-5,-34.300000000000004,-0.418,-0.677,2.48,2.0,,10.27,9.6,116.8
2025-08-15T04:25:51.828Z,3,GR86-065-5,-37.1,-0.41,-0.744,2.48,2.0,,10.24,9.31,
2025-08-15T04:25:51.872Z,3,GR86-065-5,-38.2,-0.398,-0.779,2.48,2.0,,10.115,9.185,
2025-08-15T04:25:51.915Z,3,GR86-065-5,-38.2,-0.388,-0.794,2.49,2.0,,9.46,8.67,
2025-08-15T04:25:51.958Z,3,GR86-065-5,-38.2,-0.385,-0.838,2.49,2.0,6311.0,9.34,8.27,
2025-08-15T04:25:52.002Z,3,GR86-065-5,-38.2,-0.362,-0.866,2.49,2.0,,7.645,6.835,113.5
2025-08-15T04:25:52.045Z,3,GR86-065-5,-39.0,-0.352,-0.892,2.49,2.0,,6.425,5.525,
2025-08-15T04:25:52.088Z,3,GR86-065-5,-42.2,-0.343,-0.94,2.49,2.0,,4.0600000000000005,3.34,
2025-08-15T04:25:52.131Z,3,GR86-065-5,-44.1,-0.285,-0.972,2.49,2.0,,0.0,0.0,
2025-08-15T04:25:52.174Z,3,GR86-065-5,-45.7,-0.214,-1.014,2.49,2.0,6188.0,0.0,0.0,
2025-08-15T04:25:52.217Z,3,GR86-065-5,-46.5,-0.214,-1.043,2.49,2.0,,0.0,0.0,111.76
2025-08-15T04:25:52.260Z,3,GR86-065-5,-46.6,-0.216,-1.028,2.48,2.0,,0.0,0.0,
2025-08-15T04:25:52.304Z,3,GR86-065-5,-46.900000000000006,-0.208,-1.066,2.48,2.0,,0.0,0.0,
2025-08-15T04:25:52.347Z,3,GR86-065-5,-48.1,-0.219,-1.043,2.48,2.0,,0.0,0.0,
2025-08-15T04:25:52.390Z,3,GR86-065-5,-49.0,-0.219,-1.083,2.49,2.0,6068.0,0.0,0.0,
2025-08-15T04:25:52.433Z,3,GR86-065-5,-50.3,-0.212,-1.087,2.49,2.0,,0.0,0.0,109.94
2025-08-15T04:25:52.476Z,3,GR86-065-5,-52.0,-0.224,-1.099,2.48,2.0,,0.0,0.0,
2025-08-15T04:25:52.518Z,3,GR86-065-5,-53.6,-0.213,-1.098,2.49,2.0,,0.0,0.0,
2025-08-15T04:25:52.562Z,3,GR86-065-5,-56.400000000000006,-0.216,-1.134,2.49,2.0,,0.0,0.0,
2025-08-15T04:25:52.605Z,3,GR86-065-5,-58.6,-0.221,-1.108,2.49,2.0,5999.0,0.0,0.0,
2025-08-15T04:25:52.648Z,3,GR86-065-5,-60.5,-0.213,-1.139,2.49,2.0,,0.0,0.0,107.87
2025-08-15T04:25:52.691Z,3,GR86-065-5,-61.2,-0.229,-1.182,2.49,2.0,,0.0,0.0,
2025-08-15T04:25:52.734Z,3,GR86-065-5,-61.2,-0.233,-1.21,2.49,2.0,,0.0,0.0,
2025-08-15T04:25:52.777Z,3,GR86-065-5,-61.2,-0.23,-1.179,2.59,2.0,,0.0,0.0,
2025-08-15T04:25:52.820Z,3,GR86-065-5,-61.5,-0.232,-1.222,3.25,2.0,5924.0,0.0,0.0,
2025-08-15T04:25:52.862Z,3,GR86-065-5,-63.2,-0.22,-1.19,3.36,2.0,,0.0,0.0,106.54
2025-08-15T04:25:52.906Z,3,GR86-065-5,-64.8,-0.234,-1.289,3.41,2.0,,0.0,0.0,
2025-08-15T04:25:52.948Z,3,GR86-065-5,-65.60000000000001,-0.227,-1.248,3.41,2.0,,0.0,0.0,
2025-08-15T04:25:52.992Z,3,GR86-065-5,-65.8,-0.234,-1.279,3.42,2.0,,0.0,0.0,
2025-08-15T04:25:53.035Z,3,GR86-065-5,-66.0,-0.214,-1.213,3.44,2.0,5833.0,0.0,0.0,
2025-08-15T04:25:53.078Z,3,GR86-065-5,-66.3,-0.217,-1.254,3.6,2.0,,0.0,0.0,105.75
2025-08-15T04:25:53.121Z,3,GR86-065-5,-66.9,-0.214,-1.21,3.89,2.0,,0.0,0.0,
2025-08-15T04:25:53.164Z,3,GR86-065-5,-67.3,-0.215,-1.2,4.47,2.0,,0.0,0.0,
2025-08-15T04:25:53.207Z,3,GR86-065-5,-67.4,-0.215,-1.199,5.13,2.0,,0.0,0.0,
2025-08-15T04:25:53.250Z,3,GR86-065-5,-67.4,-0.207,-1.244,12.63,2.0,5741.0,0.0,0.0,
2025-08-15T04:25:53.292Z,3,GR86-065-5,-67.4,-0.22,-1.214,18.7,2.0,,0.0,0.0,104.4
2025-08-15T04:25:53.336Z,3,GR86-065-5,-67.4,-0.201,-1.2,21.57,2.0,,0.0,0.0,
2025-08-15T04:25:53.379Z,3,GR86-065-5,-67.4,-0.157,-1.179,22.42,2.0,,0.0,0.0,
2025-08-15T04:25:53.465Z,3,GR86-065-5,-67.4,-0.135,-1.205,28.68,2.0,5633.0,0.0,0.0,
2025-08-15T04:25:53.508Z,3,GR86-065-5,-67.4,-0.104,-1.222,29.62,2.0,,0.0,0.0,102.68
2025-08-15T04:25:53.551Z,3,GR86-065-5,-67.2,0.097,-1.104,29.1,2.0,,0.0,0.0,
2025-08-15T04:25:53.637Z,3,GR86-065-5,-62.3,0.143,-1.119,29.07,2.0,,0.0,0.0,
2025-08-15T04:25:53.680Z,3,GR86-065-5,-53.900000000000006,0.083,-1.21,31.32,2.0,5570.0,0.0,0.0,
2025-08-15T04:25:53.723Z,3,GR86-065-5,-49.8,0.069,-1.161,37.12,2.0,,0.0,0.0,100.66
2025-08-15T04:25:53.766Z,3,GR86-065-5,-48.3,0.12,-1.225,49.43,2.0,,0.0,0.0,
2025-08-15T04:25:53.808Z,3,GR86-065-5,-47.900000000000006,0.137,-1.068,57.56,2.0,,0.0,0.0,
2025-08-15T04:25:53.852Z,3,GR86-065-5,-47.8,0.106,-1.159,59.42,2.0,,0.0,0.0,
2025-08-15T04:25:53.895Z,3,GR86-065-5,-47.8,0.135,-1.069,65.74,2.0,5886.0,0.0,0.0,
2025-08-15T04:25:53.938Z,3,GR86-065-5,-47.8,0.208,-1.198,78.03,2.0,,0.0,0.0,99.26
2025-08-15T04:25:53.981Z,3,GR86-065-5,-47.8,0.176,-1.268,100.15,2.0,,0.0,0.0,
2025-08-15T04:25:54.024Z,3,GR86-065-5,-47.400000000000006,0.226,-1.183,100.18,2.0,,0.0,0.0,
2025-08-15T04:25:54.068Z,3,GR86-065-5,-45.3,0.249,-1.224,100.19,2.0,,0.0,0.0,
2025-08-15T04:25:54.111Z,3,GR86-065-5,-44.7,0.199,-1.177,100.18,2.0,5755.0,0.0,0.0,
2025-08-15T04:25:54.154Z,3,GR86-065-5,-44.7,0.234,-1.2,100.19,2.0,,0.0,0.0,98.41
2025-08-15T04:25:54.197Z,3,GR86-065-5,-45.2,0.235,-1.165,100.2,2.0,,0.0,0.0,
2025-08-15T04:25:54.242Z,3,GR86-065-5,-46.3,0.225,-1.134,100.18,2.0,,0.0,0.0,
2025-08-15T04:25:54.285Z,3,GR86-065-5,-46.400000000000006,0.212,-1.088,100.16,2.0,,0.0,0.0,
2025-08-15T04:25:54.328Z,3,GR86-065-5,-41.900000000000006,0.164,-1.156,100.17,2.0,5918.0,0.0,0.0,
2025-08-15T04:25:54.371Z,3,GR86-065-5,-36.2,0.193,-1.117,100.15,2.0,,0.0,0.0,99.39
2025-08-15T04:25:54.414Z,3,GR86-065-5,-32.6,0.192,-1.162,100.16,2.0,,0.0,0.0,
2025-08-15T04:25:54.457Z,3,GR86-065-5,-30.8,0.26,-1.191,100.16,2.0,,0.0,0.0,
2025-08-15T04:25:54.500Z,3,GR86-065-5,-27.6,0.246,-1.121,100.17,2.0,,0.0,0.0,
2025-08-15T04:25:54.588Z,3,GR86-065-5,-21.3,0.219,-1.097,100.17,2.0,6027.0,0.0,0.0,100.52
2025-08-15T04:25:54.631Z,3,GR86-065-5,-2.9000000000000004,0.229,-1.124,100.17,2.0,,0.0,0.0,
2025-08-15T04:25:54.674Z,3,GR86-065-5,2.9000000000000004,0.244,-1.129,100.17,2.0,,0.0,0.0,
2025-08-15T04:25:54.717Z,3,GR86-065-5,3.0,0.26,-1.07,100.17,2.0,,0.0,0.0,
2025-08-15T04:25:54.760Z,3,GR86-065-5,-2.9000000000000004,0.261,-1.119,100.16,2.0,6102.0,0.0,0.0,
2025-08-15T04:25:54.803Z,3,GR86-065-5,-7.7,0.276,-1.176,100.16,2.0,,0.0,0.0,101.97
2025-08-15T04:25:54.846Z,3,GR86-065-5,-11.1,0.27,-1.105,100.16,2.0,,0.0,0.0,
2025-08-15T04:25:54.889Z,3,GR86-065-5,-15.2,0.278,-1.036,100.14,2.0,,0.0,0.0,
2025-08-15T04:25:54.932Z,3,GR86-065-5,-20.1,0.278,-0.974,100.14,2.0,,0.0,0.0,
2025-08-15T04:25:54.975Z,3,GR86-065-5,-25.200000000000003,0.233,-0.904,100.13,2.0,6158.0,0.0,0.0,
2025-08-15T04:25:55.018Z,3,GR86-065-5,-29.0,0.236,-0.8160000000000001,100.13,2.0,,0.0,0.0,103.42
2025-08-15T04:25:55.061Z,3,GR86-065-5,-30.3,0.255,-0.704,100.1,2.0,,0.0,0.0,
2025-08-15T04:25:55.104Z,3,GR86-065-5,-30.3,0.242,-0.59,100.1,2.0,,0.0,0.0,
2025-08-15T04:25:55.147Z,3,GR86-065-5,-30.3,0.226,-0.577,100.09,2.0,,0.0,0.0,
2025-08-15T04:25:55.190Z,3,GR86-065-5,-30.3,0.208,-0.55,100.11,2.0,6085.0,0.0,0.0,
2025-08-15T04:25:55.232Z,3,GR86-065-5,-30.3,0.208,-0.583,100.1,2.0,,0.0,0.0,104.0
2025-08-15T04:25:55.276Z,3,GR86-065-5,-30.3,0.238,-0.584,100.09,2.0,,0.0,0.0,
2025-08-15T04:25:55.318Z,3,GR86-065-5,-30.3,0.217,-0.594,100.11,2.0,,0.0,0.0,
2025-08-15T04:25:55.362Z,3,GR86-065-5,-30.4,0.226,-0.616,100.1,2.0,,0.0,0.0,
2025-08-15T04:25:55.405Z,3,GR86-065-5,-32.9,0.22,-0.644,100.11,2.0,6135.0,0.0,0.0,
2025-08-15T04:25:55.448Z,3,GR86-065-5,-34.5,0.225,-0.644,100.07,2.0,,0.0,0.0,105.69
2025-08-15T04:25:55.491Z,3,GR86-065-5,-34.800000000000004,0.219,-0.677,100.1,2.0,,0.0,0.0,
2025-08-15T04:25:55.534Z,3,GR86-065-5,-34.800000000000004,0.214,-0.687,100.07,2.0,,0.0,0.0,
2025-08-15T04:25:55.577Z,3,GR86-065-5,-34.800000000000004,0.2,-0.6890000000000001,100.06,2.0,,0.0,0.0,
2025-08-15T04:25:55.622Z,3,GR86-065-5,-33.4,0.215,-0.738,100.01,2.0,6266.0,0.0,0.0,
2025-08-15T04:25:55.665Z,3,GR86-065-5,-33.1,0.234,-0.73,100.02,2.0,,0.0,0.0,107.48
2025-08-15T04:25:55.708Z,3,GR86-065-5,-33.1,0.227,-0.726,100.01,2.0,,0.0,0.0,
2025-08-15T04:25:55.795Z,3,GR86-065-5,-30.5,0.242,-0.732,99.99,2.0,,0.0,0.0,
2025-08-15T04:25:55.838Z,3,GR86-065-5,-29.0,0.21,-0.724,100.01,2.0,6354.0,0.0,0.0,
2025-08-15T04:25:55.881Z,3,GR86-065-5,-27.3,0.23,-0.739,99.98,2.0,,0.0,0.0,109.24
2025-08-15T04:25:55.924Z,3,GR86-065-5,-27.3,0.238,-0.679,100.01,2.0,,0.0,0.0,
2025-08-15T04:25:55.968Z,3,GR86-065-5,-27.3,0.237,-0.671,99.99,2.0,,0.0,0.0,
2025-08-15T04:25:56.011Z,3,GR86-065-5,-27.3,0.237,-0.67,99.99,2.0,,0.0,0.0,
2025-08-15T04:25:56.054Z,3,GR86-065-5,-27.3,0.231,-0.632,99.98,2.0,6475.0,0.0,0.0,
2025-08-15T04:25:56.097Z,3,GR86-065-5,-27.3,0.226,-0.612,100.0,2.0,,0.0,0.0,110.92
2025-08-15T04:25:56.142Z,3,GR86-065-5,-25.8,0.223,-0.593,99.98,2.0,,0.0,0.0,
2025-08-15T04:25:56.185Z,3,GR86-065-5,-24.6,0.227,-0.551,100.0,2.0,,0.0,0.0,
2025-08-15T04:25:56.228Z,3,GR86-065-5,-24.3,0.236,-0.528,100.0,2.0,,0.0,0.0,
2025-08-15T04:25:56.271Z,3,GR86-065-5,-24.3,0.223,-0.518,99.98,2.0,6559.0,0.0,0.0,
2025-08-15T04:25:56.314Z,3,GR86-065-5,-24.3,0.225,-0.502,100.0,2.0,,0.0,0.0,112.53
2025-08-15T04:25:56.357Z,3,GR86-065-5,-24.3,0.236,-0.524,100.0,2.0,,0.0,0.0,
2025-08-15T04:25:56.400Z,3,GR86-065-5,-22.8,0.227,-0.53,100.0,2.0,,0.0,0.0,
2025-08-15T04:25:56.442Z,3,GR86-065-5,-21.5,0.223,-0.529,100.01,2.0,,0.0,0.0,
2025-08-15T04:25:56.486Z,3,GR86-065-5,-21.200000000000003,0.236,-0.496,100.02,2.0,6645.0,0.0,0.0,
2025-08-15T04:25:56.528Z,3,GR86-065-5,-21.200000000000003,0.238,-0.451,100.01,2.0,,0.0,0.0,114.37
2025-08-15T04:25:56.572Z,3,GR86-065-5,-21.200000000000003,0.228,-0.449,100.01,2.0,,0.0,0.0,
2025-08-15T04:25:56.615Z,3,GR86-065-5,-21.200000000000003,0.222,-0.43,99.99,2.0,,0.0,0.0,
2025-08-15T04:25:56.658Z,3,GR86-065-5,-22.200000000000003,0.211,-0.466,99.98,2.0,,0.0,0.0,
2025-08-15T04:25:56.701Z,3,GR86-065-5,-22.5,0.223,-0.457,100.01,2.0,6752.0,0.0,0.0,
2025-08-15T04:25:56.744Z,3,GR86-065-5,-22.5,0.232,-0.468,100.02,2.0,,0.0,0.0,117.85
2025-08-15T04:25:56.787Z,3,GR86-065-5,-22.1,0.223,-0.473,100.01,2.0,,0.0,0.0,
2025-08-15T04:25:56.830Z,3,GR86-065-5,-20.1,0.223,-0.429,99.99,2.0,,0.0,0.0,
2025-08-15T04:25:56.873Z,3,GR86-065-5,-18.3,0.215,-0.481,100.03,2.0,,0.0,0.0,
2025-08-15T04:25:56.916Z,3,GR86-065-5,-17.2,0.28,-0.444,100.01,2.0,6832.0,0.0,0.0,
2025-08-15T04:25:56.960Z,3,GR86-065-5,-17.2,0.227,-0.396,99.99,2.0,,0.0,0.0,119.48
2025-08-15T04:25:57.003Z,3,GR86-065-5,-17.0,0.203,-0.306,99.98,2.0,,0.0,0.0,
2025-08-15T04:25:57.046Z,3,GR86-065-5,-16.1,0.204,-0.361,99.99,2.0,,0.0,0.0,
2025-08-15T04:25:57.090Z,3,GR86-065-5,-15.3,0.245,-0.293,100.03,2.0,,0.0,0.0,
2025-08-15T04:25:57.132Z,3,GR86-065-5,-14.8,0.253,-0.334,100.0,2.0,6937.0,0.0,0.0,
2025-08-15T04:25:57.176Z,3,GR86-065-5,-14.2,0.214,-0.216,100.02,2.0,,0.0,0.0,121.13
2025-08-15T04:25:57.220Z,3,GR86-065-5,-13.2,0.191,-0.263,99.99,2.0,,0.0,0.0,
2025-08-15T04:25:57.263Z,3,GR86-065-5,-10.9,0.215,-0.295,100.02,2.0,,0.0,0.0,
2025-08-15T04:25:57.306Z,3,GR86-065-5,-9.5,0.238,-0.149,99.98,2.0,,0.0,0.0,
2025-08-15T04:25:57.348Z,3,GR86-065-5,-9.4,0.169,-0.173,100.0,2.0,7136.0,0.0,0.0,
2025-08-15T04:25:57.392Z,3,GR86-065-5,-9.3,0.185,-0.103,100.01,2.0,,0.0,0.0,122.86
2025-08-15T04:25:57.435Z,3,GR86-065-5,-9.3,0.144,-0.02,99.98,2.0,,0.0,0.0,
2025-08-15T04:25:57.478Z,3,GR86-065-5,-8.0,0.11,-0.086,100.0,2.0,,0.0,0.0,
2025-08-15T04:25:57.521Z,3,GR86-065-5,-5.0,0.087,-0.008,99.98,3.0,,0.0,0.0,
2025-08-15T04:25:57.564Z,3,GR86-065-5,-4.0,0.605,-0.105,99.98,3.0,7209.0,0.0,0.0,
2025-08-15T04:25:57.607Z,3,GR86-065-5,-3.9,0.423,-0.048,99.97,3.0,,0.0,0.0,124.48
2025-08-15T04:25:57.650Z,3,GR86-065-5,-3.9,0.212,0.054,99.98,3.0,,0.0,0.0,
2025-08-15T04:25:57.692Z,3,GR86-065-5,-3.9,0.046,0.053,99.97,3.0,,0.0,0.0,
2025-08-15T04:25:57.736Z,3,GR86-065-5,-3.9,0.088,0.073,100.01,3.0,,0.0,0.0,
2025-08-15T04:25:57.779Z,3,GR86-065-5,-3.9,0.199,0.113,100.0,3.0,6703.0,0.0,0.0,
2025-08-15T04:25:57.822Z,3,GR86-065-5,-3.9,0.25,0.049,100.01,3.0,,0.0,0.0,125.91
2025-08-15T04:25:57.865Z,3,GR86-065-5,-3.9,0.166,0.079,100.0,3.0,,0.0,0.0,
2025-08-15T04:25:57.908Z,3,GR86-065-5,-3.9,0.132,-0.002,100.01,3.0,,0.0,0.0,
2025-08-15T04:25:57.951Z,3,GR86-065-5,-3.9,0.155,0.006,99.98,3.0,,0.0,0.0,
2025-08-15T04:25:57.994Z,3,GR86-065-5,-4.0,0.187,-0.033,99.97,3.0,6064.0,0.0,0.0,
2025-08-15T04:25:58.037Z,3,GR86-065-5,-5.2,0.224,-0.038,99.97,3.0,,0.0,0.0,127.94
2025-08-15T04:25:58.080Z,3,GR86-065-5,-5.9,0.183,-0.099,100.01,3.0,,0.0,0.0,
2025-08-15T04:25:58.122Z,3,GR86-065-5,-5.9,0.162,-0.067,100.01,3.0,,0.0,0.0,
2025-08-15T04:25:58.166Z,3,GR86-065-5,-6.2,0.181,-0.114,100.01,3.0,,0.0,0.0,
2025-08-15T04:25:58.208Z,3,GR86-065-5,-6.300000000000001,0.179,-0.133,100.01,3.0,6076.0,0.0,0.0,
2025-08-15T04:25:58.252Z,3,GR86-065-5,-6.300000000000001,0.197,-0.159,100.0,3.0,,0.0,0.0,129.35
2025-08-15T04:25:58.295Z,3,GR86-065-5,-6.300000000000001,0.202,-0.168,99.99,3.0,,0.0,0.0,
2025-08-15T04:25:58.338Z,3,GR86-065-5,-6.300000000000001,0.186,-0.175,100.0,3.0,,0.0,0.0,
2025-08-15T04:25:58.381Z,3,GR86-065-5,-6.300000000000001,0.186,-0.188,100.02,3.0,,0.0,0.0,
2025-08-15T04:25:58.424Z,3,GR86-065-5,-6.300000000000001,0.178,-0.18,100.01,3.0,6118.0,0.0,0.0,
2025-08-15T04:25:58.468Z,3,GR86-065-5,-6.300000000000001,0.181,-0.147,100.02,3.0,,0.0,0.0,130.72
2025-08-15T04:25:58.511Z,3,GR86-065-5,-6.300000000000001,0.196,-0.124,99.97,3.0,,0.0,0.0,
2025-08-15T04:25:58.554Z,3,GR86-065-5,-6.300000000000001,0.186,-0.141,100.01,3.0,,0.0,0.0,
2025-08-15T04:25:58.597Z,3,GR86-065-5,-6.300000000000001,0.179,-0.179,100.02,3.0,,0.0,0.0,
2025-08-15T04:25:58.642Z,3,GR86-065-5,-6.300000000000001,0.178,-0.172,99.98,3.0,6174.0,0.0,0.0,
2025-08-15T04:25:58.685Z,3,GR86-065-5,-6.300000000000001,0.179,-0.166,100.01,3.0,,0.0,0.0,132.01
2025-08-15T04:25:58.728Z,3,GR86-065-5,-6.300000000000001,0.193,-0.149,99.99,3.0,,0.0,0.0,
2025-08-15T04:25:58.771Z,3,GR86-065-5,-6.300000000000001,0.188,-0.127,100.01,3.0,,0.0,0.0,
2025-08-15T04:25:58.815Z,3,GR86-065-5,-6.300000000000001,0.179,-0.112,100.01,3.0,,0.0,0.0,
2025-08-15T04:25:58.858Z,3,GR86-065-5,-6.300000000000001,0.185,-0.113,100.01,3.0,6243.0,0.0,0.0,
2025-08-15T04:25:58.902Z,3,GR86-065-5,-6.300000000000001,0.175,-0.111,99.98,3.0,,0.0,0.0,133.4
2025-08-15T04:25:58.945Z,3,GR86-065-5,-6.300000000000001,0.192,-0.097,100.01,3.0,,0.0,0.0,
2025-08-15T04:25:58.988Z,3,GR86-065-5,-6.300000000000001,0.196,-0.074,99.99,3.0,,0.0,0.0,
2025-08-15T04:25:59.031Z,3,GR86-065-5,-6.300000000000001,0.19,-0.086,100.03,3.0,,0.0,0.0,
2025-08-15T04:25:59.074Z,3,GR86-065-5,-6.300000000000001,0.157,-0.076,99.99,3.0,6299.0,0.0,0.0,
2025-08-15T04:25:59.117Z,3,GR86-065-5,-6.300000000000001,0.183,-0.081,100.01,3.0,,0.0,0.0,134.77
2025-08-15T04:25:59.160Z,3,GR86-065-5,-6.300000000000001,0.174,-0.075,100.0,3.0,,0.0,0.0,
2025-08-15T04:25:59.204Z,3,GR86-065-5,-6.300000000000001,0.205,-0.071,100.02,3.0,,0.0,0.0,
2025-08-15T04:25:59.247Z,3,GR86-065-5,-6.300000000000001,0.2,-0.065,100.0,3.0,,0.0,0.0,
2025-08-15T04:25:59.290Z,3,GR86-065-5,-6.300000000000001,0.171,-0.074,100.02,3.0,6371.0,0.0,0.0,
2025-08-15T04:25:59.333Z,3,GR86-065-5,-6.300000000000001,0.159,-0.078,99.97,3.0,,0.0,0.0,136.05
2025-08-15T04:25:59.376Z,3,GR86-065-5,-6.300000000000001,0.185,-0.06,100.01,3.0,,0.0,0.0,
2025-08-15T04:25:59.418Z,3,GR86-065-5,-6.300000000000001,0.206,-0.073,100.02,3.0,,0.0,0.0,
2025-08-15T04:25:59.462Z,3,GR86-065-5,-6.300000000000001,0.188,-0.075,100.0,3.0,,0.0,0.0,
2025-08-15T04:25:59.505Z,3,GR86-065-5,-6.300000000000001,0.191,-0.062,100.0,3.0,6432.0,0.0,0.0,
2025-08-15T04:25:59.548Z,3,GR86-065-5,-6.300000000000001,0.172,-0.054,99.99,3.0,,0.0,0.0,138.74
2025-08-15T04:25:59.591Z,3,GR86-065-5,-6.300000000000001,0.165,-0.069,100.0,3.0,,0.0,0.0,
2025-08-15T04:25:59.634Z,3,GR86-065-5,-6.2,0.183,-0.068,99.99,3.0,,0.0,0.0,
2025-08-15T04:25:59.677Z,3,GR86-065-5,-5.9,0.197,-0.043,100.01,3.0,,0.0,0.0,
2025-08-15T04:25:59.720Z,3,GR86-065-5,-5.5,0.186,-0.039,100.01,3.0,6483.0,0.0,0.0,
2025-08-15T04:25:59.762Z,3,GR86-065-5,-5.5,0.191,-0.023,99.99,3.0,,0.0,0.0,140.02
2025-08-15T04:25:59.806Z,3,GR86-065-5,-5.5,0.174,-0.027,100.01,3.0,,0.0,0.0,
2025-08-15T04:25:59.848Z,3,GR86-065-5,-5.5,0.163,-0.04,100.0,3.0,,0.0,0.0,
2025-08-15T04:25:59.892Z,3,GR86-065-5,-5.5,0.185,-0.018,99.99,3.0,,0.0,0.0,
2025-08-15T04:25:59.935Z,3,GR86-065-5,-5.5,0.194,-0.008,99.99,3.0,6542.0,0.0,0.0,
2025-08-15T04:25:59.977Z,3,GR86-065-5,-5.0,0.18,-0.003,100.0,3.0,,0.0,0.0,141.26
2025-08-15T04:26:00.021Z,3,GR86-065-5,-5.0,0.189,-0.01,99.99,3.0,,0.0,0.0,
2025-08-15T04:26:00.064Z,3,GR86-065-5,-5.0,0.186,-0.011,99.98,3.0,,0.0,0.0,
2025-08-15T04:26:00.107Z,3,GR86-065-5,-5.0,0.166,-0.029,100.01,3.0,,0.0,0.0,
2025-08-15T04:26:00.150Z,3,GR86-065-5,-5.0,0.169,-0.072,100.01,3.0,6659.0,0.0,0.0,
2025-08-15T04:26:00.192Z,3,GR86-065-5,-5.0,0.184,-0.075,99.98,3.0,,0.0,0.0,142.51
2025-08-15T04:26:00.236Z,3,GR86-065-5,-5.0,0.192,-0.076,99.98,3.0,,0.0,0.0,
2025-08-15T04:26:00.279Z,3,GR86-065-5,-5.0,0.177,-0.084,99.99,3.0,,0.0,0.0,
2025-08-15T04:26:00.322Z,3,GR86-065-5,-4.9,0.196,-0.091,100.01,3.0,,0.0,0.0,
2025-08-15T04:26:00.365Z,3,GR86-065-5,-4.9,0.168,-0.102,100.0,3.0,6713.0,0.0,0.0,
2025-08-15T04:26:00.408Z,3,GR86-065-5,-5.0,0.15,-0.097,100.01,3.0,,0.0,0.0,143.71
2025-08-15T04:26:00.451Z,3,GR86-065-5,-4.9,0.171,-0.097,99.99,3.0,,0.0,0.0,
2025-08-15T04:26:00.494Z,3,GR86-065-5,-4.9,0.191,-0.069,100.0,3.0,,0.0,0.0,
2025-08-15T04:26:00.538Z,3,GR86-065-5,-5.0,0.197,-0.051,99.99,3.0,,0.0,0.0,
2025-08-15T04:26:00.581Z,3,GR86-065-5,-4.9,0.186,-0.064,99.99,3.0,6774.0,0.0,0.0,
2025-08-15T04:26:00.625Z,3,GR86-065-5,-5.0,0.188,-0.048,100.01,3.0,,0.0,0.0,144.95000000000002
2025-08-15T04:26:00.668Z,3,GR86-065-5,-4.9,0.167,-0.052,99.99,3.0,,0.0,0.0,
2025-08-15T04:26:00.711Z,3,GR86-065-5,-5.0,0.148,-0.061,100.01,3.0,,0.0,0.0,
2025-08-15T04:26:00.754Z,3,GR86-065-5,-4.9,0.158,-0.075,100.02,3.0,,0.0,0.0,
2025-08-15T04:26:00.797Z,3,GR86-065-5,-4.9,0.175,-0.067,100.02,3.0,6831.0,0.0,0.0,
2025-08-15T04:26:00.841Z,3,GR86-065-5,-4.9,0.16,-0.072,99.98,3.0,,0.0,0.0,146.15
2025-08-15T04:26:00.885Z,3,GR86-065-5,-5.0,0.176,-0.075,100.0,3.0,,0.0,0.0,
2025-08-15T04:26:00.928Z,3,GR86-065-5,-4.9,0.176,-0.053,100.0,3.0,,0.0,0.0,
2025-08-15T04:26:00.971Z,3,GR86-065-5,-5.0,0.171,-0.037,99.99,3.0,,0.0,0.0,
2025-08-15T04:26:01.014Z,3,GR86-065-5,-4.9,0.148,-0.043,99.99,3.0,6886.0,0.0,0.0,
2025-08-15T04:26:01.057Z,3,GR86-065-5,-4.9,0.151,-0.051,100.01,3.0,,0.0,0.0,147.31
2025-08-15T04:26:01.100Z,3,GR86-065-5,-5.0,0.158,-0.036,100.0,3.0,,0.0,0.0,
2025-08-15T04:26:01.144Z,3,GR86-065-5,-4.9,0.154,-0.043,99.99,3.0,,0.0,0.0,
2025-08-15T04:26:01.187Z,3,GR86-065-5,-4.9,0.153,-0.053,100.0,3.0,,0.0,0.0,
2025-08-15T04:26:01.230Z,3,GR86-065-5,-4.9,0.165,-0.047,99.99,3.0,6933.0,0.0,0.0,
2025-08-15T04:26:01.272Z,3,GR86-065-5,-4.9,0.181,-0.028,100.02,3.0,,0.0,0.0,148.5
2025-08-15T04:26:01.316Z,3,GR86-065-5,-4.9,0.168,-0.012,99.99,3.0,,0.0,0.0,
2025-08-15T04:26:01.360Z,3,GR86-065-5,-4.9,0.159,-0.034,99.99,3.0,,0.0,0.0,
2025-08-15T04:26:01.403Z,3,GR86-065-5,-4.9,0.159,-0.035,99.98,3.0,,0.0,0.0,
2025-08-15T04:26:01.446Z,3,GR86-065-5,-4.9,0.145,-0.037,100.0,3.0,6986.0,0.0,0.0,
2025-08-15T04:26:01.488Z,3,GR86-065-5,-4.9,0.145,-0.051,99.98,3.0,,0.0,0.0,149.64
2025-08-15T04:26:01.532Z,3,GR86-065-5,-4.9,0.144,-0.068,100.0,3.0,,0.0,0.0,
2025-08-15T04:26:01.618Z,3,GR86-065-5,-4.9,0.172,-0.069,100.03,3.0,,0.0,0.0,
2025-08-15T04:26:01.661Z,3,GR86-065-5,-4.9,0.148,-0.093,99.98,3.0,7034.0,0.0,0.0,
2025-08-15T04:26:01.747Z,3,GR86-065-5,-4.9,0.166,-0.047,100.01,3.0,,0.0,0.0,150.81
2025-08-15T04:26:01.790Z,3,GR86-065-5,-4.9,0.159,-0.041,100.04,3.0,,0.0,0.0,
2025-08-15T04:26:01.832Z,3,GR86-065-5,-4.9,0.136,-0.036,100.0,3.0,,0.0,0.0,
2025-08-15T04:26:01.876Z,3,GR86-065-5,-4.9,0.127,-0.048,100.0,3.0,7093.0,0.0,0.0,
2025-08-15T04:26:01.918Z,3,GR86-065-5,-4.9,0.158,-0.054,99.97,3.0,,0.0,0.0,151.93
2025-08-15T04:26:01.962Z,3,GR86-065-5,-4.9,0.142,-0.022,100.0,3.0,,0.0,0.0,
2025-08-15T04:26:02.005Z,3,GR86-065-5,-4.9,0.139,-0.046,99.98,3.0,,0.0,0.0,
2025-08-15T04:26:02.048Z,3,GR86-065-5,-4.9,0.15,-0.056,100.01,3.0,,0.0,0.0,
2025-08-15T04:26:02.091Z,3,GR86-065-5,-4.9,0.16,-0.053,100.03,3.0,7148.0,0.0,0.0,
2025-08-15T04:26:02.134Z,3,GR86-065-5,-4.9,0.168,-0.042,99.98,3.0,,0.0,0.0,153.08
2025-08-15T04:26:02.178Z,3,GR86-065-5,-4.9,0.161,-0.008,99.98,3.0,,0.0,0.0,
2025-08-15T04:26:02.222Z,3,GR86-065-5,-4.9,0.173,-0.038,99.97,3.0,,0.0,0.0,
2025-08-15T04:26:02.265Z,3,GR86-065-5,-4.9,0.173,-0.011,99.99,3.0,,0.0,0.0,
2025-08-15T04:26:02.308Z,3,GR86-065-5,-4.9,0.16,0.003,99.99,3.0,7198.0,0.0,0.0,
2025-08-15T04:26:02.352Z,3,GR86-065-5,-4.9,0.103,-0.008,99.97,3.0,,0.0,0.0,155.27
2025-08-15T04:26:02.395Z,3,GR86-065-5,-4.9,-0.159,-0.001,100.01,4.0,,0.0,0.0,
2025-08-15T04:26:02.438Z,3,GR86-065-5,-4.9,0.516,-0.01,99.98,4.0,,0.0,0.0,
2025-08-15T04:26:02.481Z,3,GR86-065-5,-4.9,0.259,-0.043,99.98,4.0,,0.0,0.0,
2025-08-15T04:26:02.524Z,3,GR86-065-5,-4.9,0.035,0.044,99.97,4.0,7241.0,0.0,0.0,
2025-08-15T04:26:02.568Z,3,GR86-065-5,-4.9,-0.011,-0.034,100.0,4.0,,0.0,0.0,156.33
2025-08-15T04:26:02.611Z,3,GR86-065-5,-4.9,0.113,-0.041,99.99,4.0,,0.0,0.0,
2025-08-15T04:26:02.654Z,3,GR86-065-5,-4.9,0.22,0.024,99.97,4.0,,0.0,0.0,
2025-08-15T04:26:02.697Z,3,GR86-065-5,-4.9,0.17,-0.044,99.98,4.0,,0.0,0.0,
2025-08-15T04:26:02.742Z,3,GR86-065-5,-4.9,0.082,-0.014,100.01,4.0,6035.0,0.0,0.0,
2025-08-15T04:26:02.785Z,3,GR86-065-5,-4.9,0.122,-0.061,100.0,4.0,,0.0,0.0,157.24
2025-08-15T04:26:02.828Z,3,GR86-065-5,-4.9,0.147,-0.039,100.0,4.0,,0.0,0.0,
2025-08-15T04:26:02.871Z,3,GR86-065-5,-4.9,0.156,-0.046,99.98,4.0,,0.0,0.0,
2025-08-15T04:26:02.914Z,3,GR86-065-5,-4.9,0.132,-0.029,99.99,4.0,,0.0,0.0,
2025-08-15T04:26:02.957Z,3,GR86-065-5,-4.1000000000000005,0.099,-0.022,100.01,4.0,6174.0,0.0,0.0,
2025-08-15T04:26:03.000Z,3,GR86-065-5,-4.1000000000000005,0.142,-0.023,100.01,4.0,,0.0,0.0,158.26
2025-08-15T04:26:03.042Z,3,GR86-065-5,-4.1000000000000005,0.139,-0.038,99.98,4.0,,0.0,0.0,
2025-08-15T04:26:03.086Z,3,GR86-065-5,-4.1000000000000005,0.117,-0.039,100.01,4.0,,0.0,0.0,
2025-08-15T04:26:03.129Z,3,GR86-065-5,-4.1000000000000005,0.1,-0.022,100.0,4.0,,0.0,0.0,
2025-08-15T04:26:03.172Z,3,GR86-065-5,-4.1000000000000005,0.103,-0.047,99.99,4.0,6247.0,0.0,0.0,
2025-08-15T04:26:03.215Z,3,GR86-065-5,-4.1000000000000005,0.111,-0.059,100.02,4.0,,0.0,0.0,159.17000000000002
2025-08-15T04:26:03.258Z,3,GR86-065-5,-4.1000000000000005,0.117,-0.077,99.99,4.0,,0.0,0.0,
2025-08-15T04:26:03.301Z,3,GR86-065-5,-4.1000000000000005,0.095,-0.076,100.0,4.0,,0.0,0.0,
2025-08-15T04:26:03.345Z,3,GR86-065-5,-4.3,0.101,-0.098,100.01,4.0,,0.0,0.0,
2025-08-15T04:26:03.388Z,3,GR86-065-5,-4.4,0.109,-0.114,100.02,4.0,6287.0,0.0,0.0,
2025-08-15T04:26:03.431Z,3,GR86-065-5,-4.4,0.118,-0.116,99.98,4.0,,0.0,0.0,160.12
2025-08-15T04:26:03.474Z,3,GR86-065-5,-4.5,0.142,-0.119,100.01,4.0,,0.0,0.0,
2025-08-15T04:26:03.517Z,3,GR86-065-5,-5.0,0.142,-0.128,99.98,4.0,,0.0,0.0,
2025-08-15T04:26:03.560Z,3,GR86-065-5,-5.1000000000000005,0.099,-0.146,100.01,4.0,,0.0,0.0,
2025-08-15T04:26:03.602Z,3,GR86-065-5,-5.1000000000000005,0.113,-0.163,100.0,4.0,6329.0,0.0,0.0,
2025-08-15T04:26:03.646Z,3,GR86-065-5,-5.1000000000000005,0.136,-0.173,100.01,4.0,,0.0,0.0,161.05
2025-08-15T04:26:03.690Z,3,GR86-065-5,-5.1000000000000005,0.143,-0.168,100.02,4.0,,0.0,0.0,
2025-08-15T04:26:03.732Z,3,GR86-065-5,-5.1000000000000005,0.133,-0.156,99.99,4.0,,0.0,0.0,
2025-08-15T04:26:03.776Z,3,GR86-065-5,-5.1000000000000005,0.123,-0.147,100.01,4.0,,0.0,0.0,
2025-08-15T04:26:03.818Z,3,GR86-065-5,-5.1000000000000005,0.107,-0.151,99.99,4.0,6361.0,0.0,0.0,
2025-08-15T04:26:03.862Z,3,GR86-065-5,-5.1000000000000005,0.13,-0.172,100.01,4.0,,0.0,0.0,161.99
2025-08-15T04:26:03.905Z,3,GR86-065-5,-5.1000000000000005,0.137,-0.154,100.0,4.0,,0.0,0.0,
2025-08-15T04:26:03.948Z,3,GR86-065-5,-5.1000000000000005,0.122,-0.136,100.01,4.0,,0.0,0.0,
2025-08-15T04:26:03.991Z,3,GR86-065-5,-5.1000000000000005,0.128,-0.123,100.0,4.0,,0.0,0.0,
2025-08-15T04:26:04.034Z,3,GR86-065-5,-5.1000000000000005,0.104,-0.129,99.98,4.0,6396.0,0.0,0.0,
2025-08-15T04:26:04.077Z,3,GR86-065-5,-5.1000000000000005,0.08,-0.122,100.01,4.0,,0.0,0.0,162.98
2025-08-15T04:26:04.120Z,3,GR86-065-5,-5.1000000000000005,0.145,-0.1,100.02,4.0,,0.0,0.0,
2025-08-15T04:26:04.163Z,3,GR86-065-5,-5.1000000000000005,0.134,-0.093,100.01,4.0,,0.0,0.0,
2025-08-15T04:26:04.206Z,3,GR86-065-5,-5.1000000000000005,0.114,-0.086,100.0,4.0,,0.0,0.0,
2025-08-15T04:26:04.248Z,3,GR86-065-5,-5.1000000000000005,0.106,-0.102,100.0,4.0,6435.0,0.0,0.0,
2025-08-15T04:26:04.292Z,3,GR86-065-5,-5.1000000000000005,0.09,-0.096,100.03,4.0,,0.0,0.0,163.88
2025-08-15T04:26:04.335Z,3,GR86-065-5,-5.1000000000000005,0.085,-0.099,99.99,4.0,,0.0,0.0,
2025-08-15T04:26:04.378Z,3,GR86-065-5,-5.1000000000000005,0.092,-0.101,100.01,4.0,,0.0,0.0,
2025-08-15T04:26:04.421Z,3,GR86-065-5,-5.1000000000000005,0.115,-0.097,100.01,4.0,,0.0,0.0,
2025-08-15T04:26:04.464Z,3,GR86-065-5,-5.1000000000000005,0.112,-0.093,100.0,4.0,6468.0,0.0,0.0,
2025-08-15T04:26:04.507Z,3,GR86-065-5,-5.1000000000000005,0.081,-0.098,100.01,4.0,,0.0,0.0,164.81
2025-08-15T04:26:04.550Z,3,GR86-065-5,-5.1000000000000005,0.075,-0.1,99.99,4.0,,0.0,0.0,
2025-08-15T04:26:04.592Z,3,GR86-065-5,-5.1000000000000005,0.095,-0.107,100.01,4.0,,0.0,0.0,
2025-08-15T04:26:04.636Z,3,GR86-065-5,-5.1000000000000005,0.088,-0.115,99.99,4.0,,0.0,0.0,
2025-08-15T04:26:04.679Z,3,GR86-065-5,-5.1000000000000005,0.11,-0.128,100.01,4.0,6504.0,0.0,0.0,
2025-08-15T04:26:04.722Z,3,GR86-065-5,-5.1000000000000005,0.105,-0.091,100.02,4.0,,0.0,0.0,165.73
2025-08-15T04:26:04.765Z,3,GR86-065-5,-5.1000000000000005,0.079,-0.101,99.97,4.0,,0.0,0.0,
2025-08-15T04:26:04.808Z,3,GR86-065-5,-5.1000000000000005,0.085,-0.11,99.99,4.0,,0.0,0.0,
2025-08-15T04:26:04.851Z,3,GR86-065-5,-5.1000000000000005,0.079,-0.12,99.99,4.0,,0.0,0.0,
2025-08-15T04:26:04.894Z,3,GR86-065-5,-5.1000000000000005,0.082,-0.117,100.01,4.0,6550.0,0.0,0.0,
2025-08-15T04:26:04.937Z,3,GR86-065-5,-5.1000000000000005,0.097,-0.112,100.0,4.0,,0.0,0.0,166.74
2025-08-15T04:26:04.980Z,3,GR86-065-5,-5.1000000000000005,0.101,-0.093,100.02,4.0,,0.0,0.0,
2025-08-15T04:26:05.022Z,3,GR86-065-5,-5.1000000000000005,0.097,-0.099,99.99,4.0,,0.0,0.0,
2025-08-15T04:26:05.066Z,3,GR86-065-5,-5.1000000000000005,0.082,-0.103,100.01,4.0,,0.0,0.0,
2025-08-15T04:26:05.108Z,3,GR86-065-5,-5.1000000000000005,0.083,-0.118,100.02,4.0,6588.0,0.0,0.0,
2025-08-15T04:26:05.152Z,3,GR86-065-5,-5.1000000000000005,0.082,-0.114,99.98,4.0,,0.0,0.0,168.71
2025-08-15T04:26:05.195Z,3,GR86-065-5,-5.1000000000000005,0.087,-0.121,99.99,4.0,,0.0,0.0,
2025-08-15T04:26:05.238Z,3,GR86-065-5,-5.1000000000000005,0.1,-0.111,100.0,4.0,,0.0,0.0,
2025-08-15T04:26:05.281Z,3,GR86-065-5,-5.1000000000000005,0.097,-0.116,100.02,4.0,,0.0,0.0,
2025-08-15T04:26:05.324Z,3,GR86-065-5,-5.1000000000000005,0.081,-0.129,99.98,4.0,6621.0,0.0,0.0,
2025-08-15T04:26:05.368Z,3,GR86-065-5,-5.1000000000000005,0.071,-0.147,99.98,4.0,,0.0,0.0,169.56
2025-08-15T04:26:05.411Z,3,GR86-065-5,-5.1000000000000005,0.079,-0.164,100.0,4.0,,0.0,0.0,
2025-08-15T04:26:05.454Z,3,GR86-065-5,-5.1000000000000005,0.076,-0.164,99.99,4.0,,0.0,0.0,
2025-08-15T04:26:05.497Z,3,GR86-065-5,-5.1000000000000005,0.073,-0.153,99.99,4.0,,0.0,0.0,
2025-08-15T04:26:05.542Z,3,GR86-065-5,-5.1000000000000005,0.125,-0.111,99.98,4.0,6689.0,0.0,0.0,
2025-08-15T04:26:05.585Z,3,GR86-065-5,-5.1000000000000005,0.105,-0.131,100.02,4.0,,0.0,0.0,170.38
2025-08-15T04:26:05.628Z,3,GR86-065-5,-5.1000000000000005,0.11,-0.141,100.02,4.0,,0.0,0.0,
2025-08-15T04:26:05.671Z,3,GR86-065-5,-5.1000000000000005,0.088,-0.161,100.01,4.0,,0.0,0.0,
2025-08-15T04:26:05.715Z,3,GR86-065-5,-5.1000000000000005,0.082,-0.151,100.0,4.0,,0.0,0.0,
2025-08-15T04:26:05.758Z,3,GR86-065-5,-5.1000000000000005,0.073,-0.156,100.02,4.0,6723.0,0.0,0.0,
2025-08-15T04:26:05.802Z,3,GR86-065-5,-5.1000000000000005,0.127,-0.149,99.99,4.0,,0.0,0.0,171.4
2025-08-15T04:26:05.845Z,3,GR86-065-5,-5.1000000000000005,0.142,-0.141,99.99,4.0,,0.0,0.0,
2025-08-15T04:26:05.888Z,3,GR86-065-5,-5.1000000000000005,0.119,-0.13,100.0,4.0,,0.0,0.0,
2025-08-15T04:26:05.931Z,3,GR86-065-5,-5.1000000000000005,0.126,-0.113,99.98,4.0,,0.0,0.0,
2025-08-15T04:26:05.974Z,3,GR86-065-5,-5.1000000000000005,0.112,-0.126,99.98,4.0,6756.0,0.0,0.0,
2025-08-15T04:26:06.017Z,3,GR86-065-5,-5.1000000000000005,0.11,-0.152,99.98,4.0,,0.0,0.0,172.31
2025-08-15T04:26:06.060Z,3,GR86-065-5,-5.1000000000000005,0.119,-0.159,100.0,4.0,,0.0,0.0,
2025-08-15T04:26:06.104Z,3,GR86-065-5,-5.1000000000000005,0.126,-0.15,100.0,4.0,,0.0,0.0,
2025-08-15T04:26:06.147Z,3,GR86-065-5,-5.1000000000000005,0.125,-0.126,100.0,4.0,,0.0,0.0,
2025-08-15T04:26:06.190Z,3,GR86-065-5,-5.1000000000000005,0.127,-0.129,100.03,4.0,6794.0,0.0,0.0,
2025-08-15T04:26:06.233Z,3,GR86-065-5,-5.1000000000000005,0.123,-0.121,100.02,4.0,,0.0,0.0,173.27
2025-08-15T04:26:06.276Z,3,GR86-065-5,-5.1000000000000005,0.116,-0.116,100.0,4.0,,0.0,0.0,
2025-08-15T04:26:06.318Z,3,GR86-065-5,-5.1000000000000005,0.124,-0.11,99.99,4.0,,0.0,0.0,
2025-08-15T04:26:06.362Z,3,GR86-065-5,-5.1000000000000005,0.082,-0.128,100.02,4.0,,0.0,0.0,
2025-08-15T04:26:06.405Z,3,GR86-065-5,-5.1000000000000005,0.094,-0.107,100.02,4.0,6823.0,0.0,0.0,
2025-08-15T04:26:06.448Z,3,GR86-065-5,-5.1000000000000005,0.077,-0.103,99.98,4.0,,0.0,0.0,174.03
2025-08-15T04:26:06.491Z,3,GR86-065-5,-5.1000000000000005,0.102,-0.087,99.98,4.0,,0.0,0.0,
2025-08-15T04:26:06.534Z,3,GR86-065-5,-5.1000000000000005,0.105,-0.078,99.97,4.0,,0.0,0.0,
2025-08-15T04:26:06.577Z,3,GR86-065-5,-5.1000000000000005,0.108,-0.089,100.01,4.0,,0.0,0.0,
2025-08-15T04:26:06.620Z,3,GR86-065-5,-5.1000000000000005,0.08,-0.127,100.02,4.0,6863.0,0.0,0.0,
2025-08-15T04:26:06.662Z,3,GR86-065-5,-5.1000000000000005,0.087,-0.136,100.0,4.0,,0.0,0.0,174.89
2025-08-15T04:26:06.706Z,3,GR86-065-5,-5.1000000000000005,0.076,-0.14,99.98,4.0,,0.0,0.0,
2025-08-15T04:26:06.748Z,3,GR86-065-5,-5.1000000000000005,0.065,-0.135,100.0,4.0,,0.0,0.0,
2025-08-15T04:26:06.792Z,3,GR86-065-5,-5.1000000000000005,0.07,-0.138,99.97,4.0,,0.0,0.0,
2025-08-15T04:26:06.835Z,3,GR86-065-5,-5.1000000000000005,0.072,-0.128,99.99,4.0,6887.0,0.0,0.0,
2025-08-15T04:26:06.878Z,3,GR86-065-5,-5.1000000000000005,0.076,-0.097,100.0,4.0,,0.0,0.0,175.87
2025-08-15T04:26:06.921Z,3,GR86-065-5,-5.1000000000000005,0.095,-0.052,100.01,4.0,,0.0,0.0,
2025-08-15T04:26:06.964Z,3,GR86-065-5,-5.1000000000000005,0.107,-0.053,99.99,4.0,,0.0,0.0,
2025-08-15T04:26:07.007Z,3,GR86-065-5,-5.1000000000000005,0.109,-0.065,99.99,4.0,,0.0,0.0,
2025-08-15T04:26:07.050Z,3,GR86-065-5,-5.1000000000000005,0.097,-0.069,100.0,4.0,6919.0,0.0,0.0,
2025-08-15T04:26:07.092Z,3,GR86-065-5,-5.1000000000000005,0.091,-0.074,99.99,4.0,,0.0,0.0,176.64
2025-08-15T04:26:07.136Z,3,GR86-065-5,-5.1000000000000005,0.097,-0.08,100.01,4.0,,0.0,0.0,
2025-08-15T04:26:07.179Z,3,GR86-065-5,-5.1000000000000005,0.089,-0.097,99.99,4.0,,0.0,0.0,
2025-08-15T04:26:07.222Z,3,GR86-065-5,-5.1000000000000005,0.081,-0.107,100.02,4.0,,0.0,0.0,
2025-08-15T04:26:07.265Z,3,GR86-065-5,-5.1000000000000005,0.082,-0.09,99.99,4.0,6955.0,0.0,0.0,
2025-08-15T04:26:07.308Z,3,GR86-065-5,-5.1000000000000005,0.089,-0.078,99.97,4.0,,0.0,0.0,177.5
2025-08-15T04:26:07.351Z,3,GR86-065-5,-5.1000000000000005,0.088,-0.067,100.0,4.0,,0.0,0.0,
2025-08-15T04:26:07.394Z,3,GR86-065-5,-5.1000000000000005,0.099,-0.062,99.98,4.0,,0.0,0.0,
2025-08-15T04:26:07.437Z,3,GR86-065-5,-5.1000000000000005,0.088,-0.053,100.0,4.0,,0.0,0.0,
2025-08-15T04:26:07.480Z,3,GR86-065-5,-5.1000000000000005,0.063,-0.051,100.03,4.0,6988.0,0.0,0.0,
2025-08-15T04:26:07.523Z,3,GR86-065-5,-5.1000000000000005,0.083,-0.038,100.01,4.0,,0.0,0.0,178.21
2025-08-15T04:26:07.566Z,3,GR86-065-5,-5.1000000000000005,0.073,-0.038,100.02,4.0,,0.0,0.0,
2025-08-15T04:26:07.608Z,3,GR86-065-5,-5.1000000000000005,0.081,-0.045,100.02,4.0,,0.0,0.0,
2025-08-15T04:26:07.652Z,3,GR86-065-5,-5.1000000000000005,0.064,-0.045,99.99,4.0,,0.0,0.0,
2025-08-15T04:26:07.695Z,3,GR86-065-5,-5.1000000000000005,0.072,-0.051,100.04,4.0,7017.0,0.0,0.0,
2025-08-15T04:26:07.738Z,3,GR86-065-5,-5.1000000000000005,0.083,-0.047,99.99,4.0,,0.0,0.0,179.1
2025-08-15T04:26:07.781Z,3,GR86-065-5,-5.1000000000000005,0.106,-0.043,100.01,4.0,,0.0,0.0,
2025-08-15T04:26:07.824Z,3,GR86-065-5,-5.1000000000000005,0.089,-0.036,100.03,4.0,,0.0,0.0,
2025-08-15T04:26:07.868Z,3,GR86-065-5,-5.1000000000000005,0.092,-0.04,100.0,4.0,,0.0,0.0,
2025-08-15T04:26:07.911Z,3,GR86-065-5,-5.1000000000000005,0.102,-0.05,100.03,4.0,7044.0,0.0,0.0,
2025-08-15T04:26:07.954Z,3,GR86-065-5,-5.1000000000000005,0.084,-0.056,99.99,4.0,,0.0,0.0,180.56
2025-08-15T04:26:07.997Z,3,GR86-065-5,-5.1000000000000005,0.104,-0.057,100.01,4.0,,0.0,0.0,
2025-08-15T04:26:08.042Z,3,GR86-065-5,-5.1000000000000005,0.066,-0.099,100.0,4.0,,0.0,0.0,
2025-08-15T04:26:08.085Z,3,GR86-065-5,-5.1000000000000005,0.059,-0.105,99.99,4.0,,0.0,0.0,
2025-08-15T04:26:08.128Z,3,GR86-065-5,-5.1000000000000005,0.07,-0.097,100.0,4.0,7076.0,0.0,0.0,
2025-08-15T04:26:08.171Z,3,GR86-065-5,-5.1000000000000005,0.083,-0.085,99.98,4.0,,0.0,0.0,181.25
2025-08-15T04:26:08.214Z,3,GR86-065-5,-5.1000000000000005,0.067,-0.088,99.98,4.0,,0.0,0.0,
2025-08-15T04:26:08.257Z,3,GR86-065-5,-5.1000000000000005,0.071,-0.088,99.99,4.0,,0.0,0.0,
2025-08-15T04:26:08.300Z,3,GR86-065-5,-5.1000000000000005,0.085,-0.066,100.0,4.0,,0.0,0.0,
2025-08-15T04:26:08.344Z,3,GR86-065-5,-5.1000000000000005,0.091,-0.062,99.99,4.0,7133.0,0.0,0.0,
2025-08-15T04:26:08.387Z,3,GR86-065-5,-5.1000000000000005,0.1,-0.046,100.0,4.0,,0.0,0.0,181.92
2025-08-15T04:26:08.430Z,3,GR86-065-5,-5.1000000000000005,0.088,-0.016,100.02,4.0,,0.0,0.0,
2025-08-15T04:26:08.473Z,3,GR86-065-5,-5.1000000000000005,0.095,-0.001,99.99,4.0,,0.0,0.0,
2025-08-15T04:26:08.516Z,3,GR86-065-5,-5.1000000000000005,0.082,0.004,100.01,4.0,,0.0,0.0,
2025-08-15T04:26:08.558Z,3,GR86-065-5,-5.1000000000000005,0.094,-0.009,99.99,4.0,7156.0,0.0,0.0,
2025-08-15T04:26:08.602Z,3,GR86-065-5,-5.1000000000000005,0.057,-0.046,100.0,4.0,,0.0,0.0,182.76
2025-08-15T04:26:08.645Z,3,GR86-065-5,-5.1000000000000005,0.07,-0.048,99.99,4.0,,0.0,0.0,
2025-08-15T04:26:08.688Z,3,GR86-065-5,-5.1000000000000005,0.057,-0.049,99.98,4.0,,0.0,0.0,
2025-08-15T04:26:08.731Z,3,GR86-065-5,-5.1000000000000005,0.072,-0.027,100.01,4.0,,0.0,0.0,
2025-08-15T04:26:08.774Z,3,GR86-065-5,-5.1000000000000005,0.069,-0.037,99.98,4.0,7186.0,0.0,0.0,
2025-08-15T04:26:08.817Z,3,GR86-065-5,-5.1000000000000005,0.061,-0.039,100.01,4.0,,0.0,0.0,183.43
2025-08-15T04:26:08.860Z,3,GR86-065-5,-5.1000000000000005,0.095,-0.049,99.99,4.0,,0.0,0.0,
2025-08-15T04:26:08.903Z,3,GR86-065-5,-5.1000000000000005,0.085,-0.052,100.0,4.0,,0.0,0.0,
2025-08-15T04:26:08.946Z,3,GR86-065-5,-5.1000000000000005,0.097,-0.073,99.99,4.0,,0.0,0.0,
2025-08-15T04:26:08.988Z,3,GR86-065-5,-5.1000000000000005,0.087,-0.066,100.0,4.0,7212.0,0.0,0.0,
2025-08-15T04:26:09.032Z,3,GR86-065-5,-5.1000000000000005,0.075,-0.078,100.0,4.0,,0.0,0.0,184.05
2025-08-15T04:26:09.075Z,3,GR86-065-5,-5.1000000000000005,0.083,-0.087,99.99,4.0,,0.0,0.0,
2025-08-15T04:26:09.118Z,3,GR86-065-5,-5.1000000000000005,0.085,-0.077,99.97,4.0,,0.0,0.0,
2025-08-15T04:26:09.161Z,3,GR86-065-5,-5.1000000000000005,0.066,-0.045,99.98,4.0,,0.0,0.0,
2025-08-15T04:26:09.205Z,3,GR86-065-5,-5.1000000000000005,0.059,-0.034,100.0,4.0,7239.0,0.0,0.0,
2025-08-15T04:26:09.248Z,3,GR86-065-5,-5.1000000000000005,0.066,-0.028,100.0,4.0,,0.0,0.0,184.75
2025-08-15T04:26:09.291Z,3,GR86-065-5,-5.1000000000000005,0.073,-0.04,99.99,4.0,,0.0,0.0,
2025-08-15T04:26:09.334Z,3,GR86-065-5,-5.1000000000000005,-0.027,-0.048,99.97,5.0,,0.0,0.0,
2025-08-15T04:26:09.377Z,3,GR86-065-5,-5.1000000000000005,-0.124,-0.016,100.0,5.0,,0.0,0.0,
2025-08-15T04:26:09.422Z,3,GR86-065-5,-5.1000000000000005,0.199,-0.169,100.0,5.0,7264.0,0.0,0.0,
2025-08-15T04:26:09.465Z,3,GR86-065-5,-5.1000000000000005,0.055,-0.101,99.99,5.0,,0.0,0.0,185.48
2025-08-15T04:26:09.508Z,3,GR86-065-5,-5.1000000000000005,-0.049,-0.06,99.99,5.0,,0.0,0.0,
2025-08-15T04:26:09.552Z,3,GR86-065-5,-5.1000000000000005,0.016,-0.159,100.0,5.0,,0.0,0.0,
2025-08-15T04:26:09.595Z,3,GR86-065-5,-5.1000000000000005,0.097,-0.079,100.0,5.0,,0.0,0.0,
2025-08-15T04:26:09.638Z,3,GR86-065-5,-5.1000000000000005,0.079,-0.088,100.0,5.0,7020.0,0.0,0.0,
2025-08-15T04:26:09.681Z,3,GR86-065-5,-5.1000000000000005,0.056,-0.057,100.02,5.0,,0.0,0.0,186.22
2025-08-15T04:26:09.724Z,3,GR86-065-5,-5.1000000000000005,0.085,-0.03,99.98,5.0,,0.0,0.0,
2025-08-15T04:26:09.768Z,3,GR86-065-5,-5.1000000000000005,0.112,-0.033,100.0,5.0,,0.0,0.0,
2025-08-15T04:26:09.811Z,3,GR86-065-5,-5.1000000000000005,0.098,-0.02,100.0,5.0,,0.0,0.0,
2025-08-15T04:26:09.942Z,3,GR86-065-5,-4.800000000000001,0.071,0.008,99.99,5.0,6366.0,0.0,0.0,186.82
2025-08-15T04:26:09.985Z,3,GR86-065-5,-4.800000000000001,0.073,0.017,100.01,5.0,,0.0,0.0,
2025-08-15T04:26:10.028Z,3,GR86-065-5,-4.800000000000001,0.058,0.007,100.02,5.0,,0.0,0.0,
2025-08-15T04:26:10.071Z,3,GR86-065-5,-4.800000000000001,0.084,0.014,99.98,5.0,6384.0,0.0,0.0,
2025-08-15T04:26:10.114Z,3,GR86-065-5,-4.800000000000001,0.082,0.015,99.99,5.0,,0.0,0.0,187.52
2025-08-15T04:26:10.157Z,3,GR86-065-5,-4.800000000000001,0.086,0.01,99.98,5.0,,0.0,0.0,
2025-08-15T04:26:10.200Z,3,GR86-065-5,-4.800000000000001,0.047,-0.019,100.0,5.0,,0.0,0.0,
2025-08-15T04:26:10.244Z,3,GR86-065-5,-4.800000000000001,0.053,-0.016,100.0,5.0,,0.0,0.0,
2025-08-15T04:26:10.287Z,3,GR86-065-5,-4.800000000000001,0.043,-0.012,100.03,5.0,6390.0,0.0,0.0,
2025-08-15T04:26:10.330Z,3,GR86-065-5,-4.800000000000001,0.053,-0.011,99.99,5.0,,0.0,0.0,188.07
2025-08-15T04:26:10.373Z,3,GR86-065-5,-4.800000000000001,0.051,-0.014,100.01,5.0,,0.0,0.0,
2025-08-15T04:26:10.416Z,3,GR86-065-5,-4.800000000000001,0.059,-0.012,99.98,5.0,,0.0,0.0,
2025-08-15T04:26:10.460Z,3,GR86-065-5,-4.5,0.08,-0.011,100.0,5.0,,0.0,0.0,
2025-08-15T04:26:10.502Z,3,GR86-065-5,-4.5,0.076,-0.026,99.99,5.0,6407.0,0.0,0.0,
2025-08-15T04:26:10.546Z,3,GR86-065-5,-4.5,0.05,-0.022,100.0,5.0,,0.0,0.0,189.4
2025-08-15T04:26:10.590Z,3,GR86-065-5,-4.5,0.055,-0.038,100.01,5.0,,0.0,0.0,
2025-08-15T04:26:10.632Z,3,GR86-065-5,-4.5,0.051,-0.028,100.0,5.0,,0.0,0.0,
2025-08-15T04:26:10.676Z,3,GR86-065-5,-4.5,0.05,-0.025,100.0,5.0,,0.0,0.0,
2025-08-15T04:26:10.720Z,3,GR86-065-5,-4.5,0.102,-0.002,100.0,5.0,6429.0,0.0,0.0,
2025-08-15T04:26:10.763Z,3,GR86-065-5,-4.5,0.096,0.007,99.99,5.0,,0.0,0.0,189.92
2025-08-15T04:26:10.806Z,3,GR86-065-5,-4.5,0.084,-0.014,100.03,5.0,,0.0,0.0,
2025-08-15T04:26:10.848Z,3,GR86-065-5,-4.5,0.085,-0.037,99.99,5.0,,0.0,0.0,
2025-08-15T04:26:10.892Z,3,GR86-065-5,-4.5,0.08,-0.039,100.02,5.0,,0.0,0.0,
2025-08-15T04:26:10.935Z,3,GR86-065-5,-4.5,0.074,-0.039,100.02,5.0,6456.0,0.0,0.0,
2025-08-15T04:26:10.978Z,3,GR86-065-5,-4.5,0.068,-0.039,100.0,5.0,,0.0,0.0,190.74
2025-08-15T04:26:11.021Z,3,GR86-065-5,-4.5,0.082,-0.021,99.99,5.0,,0.0,0.0,
2025-08-15T04:26:11.065Z,3,GR86-065-5,-4.5,0.088,-0.034,100.0,5.0,,0.0,0.0,
2025-08-15T04:26:11.108Z,3,GR86-065-5,-4.5,0.094,-0.023,99.99,5.0,,0.0,0.0,
2025-08-15T04:26:11.151Z,3,GR86-065-5,-4.5,0.085,-0.013,100.0,5.0,6493.0,0.0,0.0,
2025-08-15T04:26:11.194Z,3,GR86-065-5,-4.5,0.098,-0.012,100.0,5.0,,0.0,0.0,191.29
2025-08-15T04:26:11.237Z,3,GR86-065-5,-4.5,0.075,-0.006,100.0,5.0,,0.0,0.0,
2025-08-15T04:26:11.280Z,3,GR86-065-5,-4.5,0.064,0.0,100.02,5.0,,0.0,0.0,
2025-08-15T04:26:11.322Z,3,GR86-065-5,-4.5,0.078,0.008,99.97,5.0,,0.0,0.0,
2025-08-15T04:26:11.366Z,3,GR86-065-5,-4.5,0.077,0.005,100.01,5.0,6514.0,0.0,0.0,
2025-08-15T04:26:11.408Z,3,GR86-065-5,-4.5,0.083,0.008,100.0,5.0,,0.0,0.0,191.89
2025-08-15T04:26:11.452Z,3,GR86-065-5,-4.4,0.089,0.028,100.02,5.0,,0.0,0.0,
2025-08-15T04:26:11.495Z,3,GR86-065-5,-4.1000000000000005,0.088,0.052,99.98,5.0,,0.0,0.0,
2025-08-15T04:26:11.538Z,3,GR86-065-5,-3.6,0.078,0.053,100.0,5.0,,0.0,0.0,
2025-08-15T04:26:11.581Z,3,GR86-065-5,-3.3000000000000003,0.066,0.056,100.0,5.0,6532.0,0.0,0.0,
2025-08-15T04:26:11.625Z,3,GR86-065-5,-3.2,0.063,0.058,99.99,5.0,,0.0,0.0,192.55
2025-08-15T04:26:11.668Z,3,GR86-065-5,-3.2,0.075,0.071,100.0,5.0,,0.0,0.0,
2025-08-15T04:26:11.711Z,3,GR86-065-5,-3.2,0.083,0.073,100.0,5.0,,0.0,0.0,
2025-08-15T04:26:11.754Z,3,GR86-065-5,-3.2,0.089,0.065,99.99,5.0,,0.0,0.0,
2025-08-15T04:26:11.797Z,3,GR86-065-5,-3.2,0.088,0.076,99.98,5.0,6548.0,0.0,0.0,
2025-08-15T04:26:11.842Z,3,GR86-065-5,-3.2,0.042,0.058,100.0,5.0,,0.0,0.0,193.17
2025-08-15T04:26:11.885Z,3,GR86-065-5,-3.2,0.048,0.05,99.99,5.0,,0.0,0.0,
2025-08-15T04:26:11.928Z,3,GR86-065-5,-3.2,0.064,0.054,100.02,5.0,,0.0,0.0,
2025-08-15T04:26:11.971Z,3,GR86-065-5,-3.2,0.076,0.062,99.99,5.0,,0.0,0.0,
2025-08-15T04:26:12.015Z,3,GR86-065-5,-3.2,0.077,0.067,99.97,5.0,6579.0,0.0,0.0,
2025-08-15T04:26:12.058Z,3,GR86-065-5,-3.2,0.082,0.078,100.0,5.0,,0.0,0.0,193.67
2025-08-15T04:26:12.102Z,3,GR86-065-5,-3.2,0.047,0.05,100.0,5.0,,0.0,0.0,
2025-08-15T04:26:12.145Z,3,GR86-065-5,-3.2,0.057,0.068,99.98,5.0,,0.0,0.0,
2025-08-15T04:26:12.188Z,3,GR86-065-5,-3.2,0.064,0.068,100.0,5.0,,0.0,0.0,
2025-08-15T04:26:12.231Z,3,GR86-065-5,-3.2,0.062,0.069,99.98,5.0,6599.0,0.0,0.0,
2025-08-15T04:26:12.274Z,3,GR86-065-5,-3.2,0.078,0.058,100.02,5.0,,0.0,0.0,194.22
2025-08-15T04:26:12.317Z,3,GR86-065-5,-3.2,0.089,0.056,100.01,5.0,,0.0,0.0,
2025-08-15T04:26:12.360Z,3,GR86-065-5,-3.2,0.058,0.022,100.01,5.0,,0.0,0.0,
2025-08-15T04:26:12.404Z,3,GR86-065-5,-3.2,0.056,0.043,100.0,5.0,,0.0,0.0,
2025-08-15T04:26:12.447Z,3,GR86-065-5,-3.2,0.053,0.044,100.0,5.0,6621.0,0.0,0.0,
2025-08-15T04:26:12.490Z,3,GR86-065-5,-3.2,0.068,0.048,100.03,5.0,,0.0,0.0,194.83
2025-08-15T04:26:12.533Z,3,GR86-065-5,-3.2,0.082,0.05,99.97,5.0,,0.0,0.0,
2025-08-15T04:26:12.576Z,3,GR86-065-5,-3.2,0.072,0.064,99.99,5.0,,0.0,0.0,
2025-08-15T04:26:12.618Z,3,GR86-065-5,-3.2,0.083,0.077,100.0,5.0,,0.0,0.0,
2025-08-15T04:26:12.662Z,3,GR86-065-5,-3.2,0.057,0.069,100.02,5.0,6640.0,0.0,0.0,
2025-08-15T04:26:12.705Z,3,GR86-065-5,-3.2,0.058,0.076,99.98,5.0,,0.0,0.0,195.44
2025-08-15T04:26:12.748Z,3,GR86-065-5,-3.2,0.069,0.086,99.99,5.0,,0.0,0.0,
2025-08-15T04:26:12.791Z,3,GR86-065-5,-3.2,0.062,0.066,100.01,5.0,,0.0,0.0,
2025-08-15T04:26:12.834Z,3,GR86-065-5,-3.2,0.079,0.086,100.0,5.0,,0.0,0.0,
2025-08-15T04:26:12.877Z,3,GR86-065-5,-3.2,0.066,0.081,100.01,5.0,6657.0,0.0,0.0,
2025-08-15T04:26:12.920Z,3,GR86-065-5,-3.2,0.052,0.05,100.01,5.0,,0.0,0.0,196.02
2025-08-15T04:26:12.965Z,3,GR86-065-5,-3.2,0.055,0.07,100.01,5.0,,0.0,0.0,
2025-08-15T04:26:13.008Z,3,GR86-065-5,-3.0,0.06,0.081,99.99,5.0,,0.0,0.0,
2025-08-15T04:26:13.051Z,3,GR86-065-5,-2.6,0.067,0.086,99.98,5.0,,0.0,0.0,
2025-08-15T04:26:13.094Z,3,GR86-065-5,-2.3000000000000003,0.086,0.089,100.0,5.0,6682.0,0.0,0.0,
2025-08-15T04:26:13.137Z,3,GR86-065-5,-2.3000000000000003,0.065,0.096,99.99,5.0,,0.0,0.0,196.79
2025-08-15T04:26:13.180Z,3,GR86-065-5,-2.3000000000000003,0.066,0.08,100.01,5.0,,0.0,0.0,
2025-08-15T04:26:13.223Z,3,GR86-065-5,-2.3000000000000003,0.047,0.079,100.0,5.0,,0.0,0.0,
2025-08-15T04:26:13.266Z,3,GR86-065-5,-2.3000000000000003,0.076,0.081,100.0,5.0,,0.0,0.0,
2025-08-15T04:26:13.308Z,3,GR86-065-5,-1.8,0.069,0.091,100.01,5.0,6699.0,0.0,0.0,
2025-08-15T04:26:13.352Z,3,GR86-065-5,-1.1,0.061,0.088,100.01,5.0,,0.0,0.0,198.13
2025-08-15T04:26:13.395Z,3,GR86-065-5,-0.6000000000000001,0.075,0.085,100.01,5.0,,0.0,0.0,
2025-08-15T04:26:13.438Z,3,GR86-065-5,-0.3,0.055,0.11,100.0,5.0,,0.0,0.0,
2025-08-15T04:26:13.481Z,3,GR86-065-5,0.1,0.049,0.147,99.99,5.0,,0.0,0.0,
2025-08-15T04:26:13.524Z,3,GR86-065-5,0.4,0.076,0.155,99.99,5.0,6723.0,0.0,0.0,
2025-08-15T04:26:13.568Z,3,GR86-065-5,0.5,0.068,0.16,100.0,5.0,,0.0,0.0,198.72
2025-08-15T04:26:13.611Z,3,GR86-065-5,0.6000000000000001,0.056,0.151,100.01,5.0,,0.0,0.0,
2025-08-15T04:26:13.654Z,3,GR86-065-5,0.6000000000000001,0.056,0.164,99.99,5.0,,0.0,0.0,
2025-08-15T04:26:13.697Z,3,GR86-065-5,0.6000000000000001,0.071,0.155,99.98,5.0,,0.0,0.0,
2025-08-15T04:26:13.742Z,3,GR86-065-5,0.6000000000000001,0.058,0.159,100.01,5.0,6770.0,0.0,0.0,
2025-08-15T04:26:13.785Z,3,GR86-065-5,0.6000000000000001,0.061,0.161,100.0,5.0,,0.0,0.0,199.29
2025-08-15T04:26:13.828Z,3,GR86-065-5,0.6000000000000001,0.054,0.173,100.01,5.0,,0.0,0.0,
2025-08-15T04:26:13.871Z,3,GR86-065-5,1.2000000000000002,0.055,0.172,100.0,5.0,,0.0,0.0,
2025-08-15T04:26:13.914Z,3,GR86-065-5,2.2,0.069,0.158,100.0,5.0,,0.0,0.0,
2025-08-15T04:26:13.957Z,3,GR86-065-5,2.9000000000000004,0.069,0.162,99.99,5.0,6782.0,0.0,0.0,
2025-08-15T04:26:14.000Z,3,GR86-065-5,2.9000000000000004,0.066,0.2,100.01,5.0,,0.0,0.0,199.9
2025-08-15T04:26:14.044Z,3,GR86-065-5,2.9000000000000004,0.076,0.214,99.99,5.0,,0.0,0.0,
2025-08-15T04:26:14.087Z,3,GR86-065-5,2.9000000000000004,0.065,0.231,100.0,5.0,,0.0,0.0,
2025-08-15T04:26:14.130Z,3,GR86-065-5,2.9000000000000004,0.047,0.251,99.98,5.0,,0.0,0.0,
2025-08-15T04:26:14.173Z,3,GR86-065-5,3.1,0.052,0.269,100.0,5.0,6798.0,0.0,0.0,
2025-08-15T04:26:14.216Z,3,GR86-065-5,3.2,0.046,0.292,100.01,5.0,,0.0,0.0,200.44
2025-08-15T04:26:14.258Z,3,GR86-065-5,3.2,0.043,0.334,100.01,5.0,,0.0,0.0,
2025-08-15T04:26:14.302Z,3,GR86-065-5,3.2,0.058,0.327,100.0,5.0,,0.0,0.0,
2025-08-15T04:26:14.345Z,3,GR86-065-5,3.2,0.057,0.315,100.01,5.0,,0.0,0.0,
2025-08-15T04:26:14.388Z,3,GR86-065-5,3.2,0.043,0.335,100.02,5.0,6831.0,0.0,0.0,
2025-08-15T04:26:14.431Z,3,GR86-065-5,3.2,0.054,0.333,99.98,5.0,,0.0,0.0,200.92
2025-08-15T04:26:14.474Z,3,GR86-065-5,3.2,0.048,0.311,99.98,5.0,,0.0,0.0,
2025-08-15T04:26:14.517Z,3,GR86-065-5,3.2,0.045,0.321,99.99,5.0,,0.0,0.0,
2025-08-15T04:26:14.560Z,3,GR86-065-5,3.2,0.039,0.309,99.99,5.0,,0.0,0.0,
2025-08-15T04:26:14.603Z,3,GR86-065-5,3.2,0.03,0.294,100.0,5.0,6840.0,0.0,0.0,
2025-08-15T04:26:14.646Z,3,GR86-065-5,3.2,0.035,0.279,100.0,5.0,,0.0,0.0,201.54
2025-08-15T04:26:14.688Z,3,GR86-065-5,3.2,0.05,0.276,100.01,5.0,,0.0,0.0,
2025-08-15T04:26:14.732Z,3,GR86-065-5,3.2,0.066,0.267,99.98,5.0,,0.0,0.0,
2025-08-15T04:26:14.775Z,3,GR86-065-5,3.2,0.066,0.254,100.03,5.0,,0.0,0.0,
2025-08-15T04:26:14.818Z,3,GR86-065-5,3.2,0.062,0.25,100.02,5.0,6865.0,0.0,0.0,
2025-08-15T04:26:14.861Z,3,GR86-065-5,3.2,0.045,0.264,100.0,5.0,,0.0,0.0,202.08
2025-08-15T04:26:14.904Z,3,GR86-065-5,3.2,0.05,0.261,100.02,5.0,,0.0,0.0,
2025-08-15T04:26:14.947Z,3,GR86-065-5,3.2,0.065,0.255,100.02,5.0,,0.0,0.0,
2025-08-15T04:26:14.990Z,3,GR86-065-5,3.2,0.073,0.27,100.02,5.0,,0.0,0.0,
2025-08-15T04:26:15.032Z,3,GR86-065-5,3.6,0.072,0.277,99.99,5.0,6876.0,0.0,0.0,
2025-08-15T04:26:15.076Z,3,GR86-065-5,3.6,0.055,0.299,100.0,5.0,,0.0,0.0,202.53
2025-08-15T04:26:15.118Z,3,GR86-065-5,3.6,0.034,0.309,100.0,5.0,,0.0,0.0,
2025-08-15T04:26:15.162Z,3,GR86-065-5,3.6,0.067,0.306,100.03,5.0,,0.0,0.0,
2025-08-15T04:26:15.205Z,3,GR86-065-5,3.6,0.048,0.301,100.01,5.0,,0.0,0.0,
2025-08-15T04:26:15.248Z,3,GR86-065-5,3.6,0.029,0.323,99.99,5.0,6894.0,0.0,0.0,
2025-08-15T04:26:15.291Z,3,GR86-065-5,3.6,0.036,0.332,100.01,5.0,,0.0,0.0,203.09
2025-08-15T04:26:15.334Z,3,GR86-065-5,3.7,0.032,0.328,100.03,5.0,,0.0,0.0,
2025-08-15T04:26:15.377Z,3,GR86-065-5,3.6,0.043,0.329,100.01,5.0,,0.0,0.0,
2025-08-15T04:26:15.508Z,3,GR86-065-5,3.7,0.03,0.289,99.99,5.0,6916.0,0.0,0.0,203.58
2025-08-15T04:26:15.552Z,3,GR86-065-5,3.6,0.062,0.242,100.01,5.0,,0.0,0.0,
2025-08-15T04:26:15.595Z,3,GR86-065-5,3.6,0.069,0.207,100.01,5.0,,0.0,0.0,
2025-08-15T04:26:15.638Z,3,GR86-065-5,3.7,0.076,0.182,100.01,5.0,,0.0,0.0,
2025-08-15T04:26:15.681Z,3,GR86-065-5,3.6,0.057,0.209,100.01,5.0,6943.0,0.0,0.0,
2025-08-15T04:26:15.724Z,3,GR86-065-5,3.7,0.059,0.24,99.97,5.0,,0.0,0.0,204.22
2025-08-15T04:26:15.768Z,3,GR86-065-5,3.7,0.064,0.258,100.0,5.0,,0.0,0.0,
2025-08-15T04:26:15.811Z,3,GR86-065-5,3.7,0.061,0.263,100.01,5.0,,0.0,0.0,
2025-08-15T04:26:15.854Z,3,GR86-065-5,3.6,0.06,0.258,99.99,5.0,,0.0,0.0,
2025-08-15T04:26:15.897Z,3,GR86-065-5,3.6,0.027,0.27,100.01,5.0,6952.0,0.0,0.0,
2025-08-15T04:26:15.942Z,3,GR86-065-5,3.7,0.072,0.283,100.02,5.0,,0.0,0.0,205.47
2025-08-15T04:26:15.985Z,3,GR86-065-5,3.7,0.063,0.266,100.01,5.0,,0.0,0.0,
2025-08-15T04:26:16.028Z,3,GR86-065-5,3.7,0.042,0.265,100.01,5.0,,0.0,0.0,
2025-08-15T04:26:16.071Z,3,GR86-065-5,3.8,0.034,0.251,100.0,5.0,,0.0,0.0,
2025-08-15T04:26:16.114Z,3,GR86-065-5,3.8,0.031,0.265,97.71,5.0,6976.0,0.0,0.0,
2025-08-15T04:26:16.157Z,3,GR86-065-5,3.8,0.056,0.275,50.05,5.0,,2.915,2.52,206.21
2025-08-15T04:26:16.200Z,3,GR86-065-5,3.8,0.005,0.266,30.11,5.0,,8.425,8.15,
2025-08-15T04:26:16.242Z,3,GR86-065-5,3.8,-0.087,0.28,3.7,5.0,,12.5,12.24,
2025-08-15T04:26:16.286Z,3,GR86-065-5,3.8,-0.231,0.293,3.38,5.0,,17.245,17.03,
2025-08-15T04:26:16.328Z,3,GR86-065-5,3.8,-0.433,0.295,3.13,5.0,6999.0,24.43,24.31,
2025-08-15T04:26:16.372Z,3,GR86-065-5,3.8,-0.531,0.314,2.93,5.0,,33.465,33.465,206.79
2025-08-15T04:26:16.415Z,3,GR86-065-5,3.8,-0.865,0.242,2.84,5.0,,43.43,43.49,
2025-08-15T04:26:16.458Z,3,GR86-065-5,3.0,-0.917,0.186,2.78,5.0,,51.305,51.505,
2025-08-15T04:26:16.501Z,3,GR86-065-5,1.4,-0.989,0.161,2.68,5.0,,55.835,55.715,
2025-08-15T04:26:16.545Z,3,GR86-065-5,1.4,-1.041,0.171,2.62,5.0,6753.0,56.34,56.46,
2025-08-15T04:26:16.588Z,3,GR86-065-5,1.4,-1.057,0.174,2.59,5.0,,56.935,56.935,206.99
2025-08-15T04:26:16.631Z,3,GR86-065-5,1.4,-1.086,0.161,2.56,5.0,,57.33,57.18,
2025-08-15T04:26:16.674Z,3,GR86-065-5,1.4,-1.118,0.151,2.54,5.0,,57.59,57.3,
2025-08-15T04:26:16.717Z,3,GR86-065-5,1.4,-1.052,0.142,2.53,5.0,,57.3,57.18,
2025-08-15T04:26:16.760Z,3,GR86-065-5,1.5,-1.061,0.168,2.52,5.0,6566.0,57.3,56.845,
2025-08-15T04:26:16.802Z,3,GR86-065-5,1.5,-1.101,0.21,2.49,5.0,,57.3,56.585,202.95
2025-08-15T04:26:16.846Z,3,GR86-065-5,1.5,-1.061,0.232,2.5,5.0,,57.685,56.555,
2025-08-15T04:26:16.889Z,3,GR86-065-5,-2.2,-1.103,0.203,2.49,5.0,,59.085,57.5,
2025-08-15T04:26:16.932Z,3,GR86-065-5,-3.4000000000000004,-1.131,0.206,2.49,5.0,,57.53,57.15,
2025-08-15T04:26:16.975Z,3,GR86-065-5,-3.4000000000000004,-1.221,0.16,2.49,5.0,6276.0,56.4,55.805,
2025-08-15T04:26:17.018Z,3,GR86-065-5,-3.4000000000000004,-1.077,0.235,2.48,5.0,,57.715,56.495000000000005,195.99
2025-08-15T04:26:17.061Z,3,GR86-065-5,0.2,-1.062,0.22,2.49,5.0,,54.08,54.11,
2025-08-15T04:26:17.105Z,3,GR86-065-5,1.9,-1.055,0.243,33.64,5.0,,53.805,53.715,
2025-08-15T04:26:17.148Z,3,GR86-065-5,1.9,-1.053,0.203,81.56,5.0,,54.08,53.745000000000005,
2025-08-15T04:26:17.191Z,3,GR86-065-5,1.9,-1.068,0.199,77.29,4.0,5848.0,54.175,54.05,
2025-08-15T04:26:17.234Z,3,GR86-065-5,1.7000000000000002,-1.166,0.079,8.45,4.0,,55.775,54.585,188.02
2025-08-15T04:26:17.277Z,3,GR86-065-5,1.7000000000000002,-1.107,0.164,3.18,4.0,,55.64,53.96,
2025-08-15T04:26:17.320Z,3,GR86-065-5,1.7000000000000002,-0.942,0.135,2.5500000000000003,4.0,,45.46,45.185,
2025-08-15T04:26:17.363Z,3,GR86-065-5,1.7000000000000002,-1.033,0.201,2.49,4.0,,44.375,43.295,
2025-08-15T04:26:17.406Z,3,GR86-065-5,1.7000000000000002,-0.924,0.171,2.46,4.0,5912.0,45.185,44.435,
2025-08-15T04:26:17.448Z,3,GR86-065-5,1.7000000000000002,-0.976,0.176,2.46,4.0,,45.335,45.155,181.6
2025-08-15T04:26:17.492Z,3,GR86-065-5,1.7000000000000002,-0.993,0.222,2.46,4.0,,48.925,48.83,
2025-08-15T04:26:17.535Z,3,GR86-065-5,1.7000000000000002,-1.11,0.162,2.46,4.0,,53.365,53.305,
2025-08-15T04:26:17.578Z,3,GR86-065-5,1.7000000000000002,-1.141,0.159,2.46,4.0,,57.055,57.055,
2025-08-15T04:26:17.621Z,3,GR86-065-5,1.7000000000000002,-1.179,0.155,2.46,4.0,6389.0,63.345,63.495000000000005,
2025-08-15T04:26:17.664Z,3,GR86-065-5,1.7000000000000002,-1.197,0.135,2.46,4.0,,67.815,68.09,173.96
2025-08-15T04:26:17.707Z,3,GR86-065-5,1.7000000000000002,-1.179,0.135,14.72,4.0,,72.15,72.33,
2025-08-15T04:26:17.750Z,3,GR86-065-5,1.7000000000000002,-1.165,0.125,61.16,4.0,,77.675,76.805,
2025-08-15T04:26:17.792Z,3,GR86-065-5,1.7000000000000002,-1.221,0.161,98.77,4.0,,83.245,82.375,
2025-08-15T04:26:17.836Z,3,GR86-065-5,4.0,-1.144,0.109,100.23,4.0,6301.0,82.115,81.78,
2025-08-15T04:26:17.879Z,3,GR86-065-5,4.2,-1.219,0.167,84.49,4.0,,83.485,83.73,168.25
2025-08-15T04:26:17.922Z,3,GR86-065-5,4.2,-1.066,0.2,5.3500000000000005,4.0,,85.99,86.525,
2025-08-15T04:26:17.965Z,3,GR86-065-5,6.0,-1.25,0.132,2.83,4.0,,85.99,85.15,
2025-08-15T04:26:18.051Z,3,GR86-065-5,4.800000000000001,-1.356,0.205,2.58,3.0,5955.0,84.115,83.76,
2025-08-15T04:26:18.094Z,3,GR86-065-5,4.2,-1.349,0.164,2.52,3.0,,87.06,86.31,160.17000000000002
2025-08-15T04:26:18.137Z,3,GR86-065-5,4.2,-1.288,0.208,2.49,3.0,,94.4,92.34,
2025-08-15T04:26:18.180Z,3,GR86-065-5,7.5,-1.35,0.252,2.49,3.0,,97.495,97.1,
2025-08-15T04:26:18.222Z,3,GR86-065-5,9.3,-1.452,0.305,2.46,3.0,,96.49,96.045,
2025-08-15T04:26:18.266Z,3,GR86-065-5,9.3,-1.077,0.39,2.46,3.0,5626.0,98.335,96.735,
2025-08-15T04:26:18.308Z,3,GR86-065-5,8.8,-1.111,0.4,2.47,3.0,,97.285,96.87,151.91
2025-08-15T04:26:18.352Z,3,GR86-065-5,7.800000000000001,-1.312,0.523,2.46,3.0,,92.4,92.81,
2025-08-15T04:26:18.395Z,3,GR86-065-5,4.3,-1.134,0.372,2.46,3.0,,92.72,91.345,
2025-08-15T04:26:18.438Z,3,GR86-065-5,3.0,-1.149,0.397,2.45,3.0,,93.59,93.21,
2025-08-15T04:26:18.481Z,3,GR86-065-5,9.0,-1.222,0.469,2.46,3.0,5703.0,92.87,92.615,
2025-08-15T04:26:18.524Z,3,GR86-065-5,11.4,-1.304,0.427,10.48,3.0,,95.205,93.47,144.54
2025-08-15T04:26:18.568Z,3,GR86-065-5,11.4,-1.169,0.418,57.15,3.0,,97.025,95.62,
2025-08-15T04:26:18.611Z,3,GR86-065-5,11.3,-1.243,0.437,98.1,3.0,,98.09,97.285,
2025-08-15T04:26:18.654Z,3,GR86-065-5,11.3,-1.155,0.393,100.23,3.0,,95.895,95.27,
2025-08-15T04:26:18.697Z,3,GR86-065-5,11.3,-1.364,0.304,90.27,2.0,5492.0,96.87,95.65,
2025-08-15T04:26:18.742Z,3,GR86-065-5,9.9,-1.335,0.308,5.48,2.0,,96.26,94.93,127.96
2025-08-15T04:26:18.785Z,3,GR86-065-5,8.8,-1.286,0.216,2.84,2.0,,85.99,84.95,
2025-08-15T04:26:18.828Z,3,GR86-065-5,8.200000000000001,-1.311,0.156,2.59,2.0,,79.96000000000001,78.33,
2025-08-15T04:26:18.872Z,3,GR86-065-5,8.200000000000001,-1.24,0.21,2.49,2.0,,68.745,68.15,
2025-08-15T04:26:18.915Z,3,GR86-065-5,8.200000000000001,-1.217,0.212,2.46,2.0,5500.0,60.11,58.615,
2025-08-15T04:26:18.958Z,3,GR86-065-5,9.0,-1.146,0.221,2.45,2.0,,54.11,52.465,119.77
2025-08-15T04:26:19.002Z,3,GR86-065-5,12.3,-1.094,0.322,2.46,2.0,,49.365,48.115,
2025-08-15T04:26:19.045Z,3,GR86-065-5,14.1,-1.065,0.374,2.46,2.0,,47.61,46.085,
2025-08-15T04:26:19.088Z,3,GR86-065-5,18.8,-1.061,0.424,2.46,2.0,,45.065,43.705,
2025-08-15T04:26:19.131Z,3,GR86-065-5,23.5,-0.996,0.505,2.46,2.0,6019.0,43.46,41.995,
2025-08-15T04:26:19.174Z,3,GR86-065-5,27.0,-0.999,0.562,2.46,2.0,,42.745,41.965,111.93
2025-08-15T04:26:19.217Z,3,GR86-065-5,30.200000000000003,-0.967,0.606,2.46,2.0,,43.675,42.745,
2025-08-15T04:26:19.260Z,3,GR86-065-5,30.9,-0.975,0.651,2.46,2.0,,43.4,42.39,
2025-08-15T04:26:19.304Z,3,GR86-065-5,30.9,-0.969,0.68,2.46,2.0,,41.705,40.425,
2025-08-15T04:26:19.347Z,3,GR86-065-5,30.9,-0.792,0.803,2.46,2.0,5741.0,38.255,36.73,
2025-08-15T04:26:19.390Z,3,GR86-065-5,31.9,-0.8150000000000001,0.78,2.46,2.0,,34.15,33.025,105.62
2025-08-15T04:26:19.434Z,3,GR86-065-5,34.800000000000004,-0.8250000000000001,0.738,2.46,2.0,,31.115,29.77,
2025-08-15T04:26:19.477Z,3,GR86-065-5,37.4,-0.683,0.846,2.46,2.0,,26.26,25.18,
2025-08-15T04:26:19.520Z,3,GR86-065-5,41.0,-0.586,0.858,2.46,2.0,,17.425,16.405,
2025-08-15T04:26:19.562Z,3,GR86-065-5,44.5,-0.532,0.876,2.46,2.0,5318.0,13.58,12.835,
2025-08-15T04:26:19.606Z,3,GR86-065-5,49.6,-0.501,0.895,2.46,2.0,,12.56,12.025,99.58
2025-08-15T04:26:19.650Z,3,GR86-065-5,55.900000000000006,-0.481,0.921,2.46,2.0,,12.56,11.78,
2025-08-15T04:26:19.692Z,3,GR86-065-5,61.8,-0.455,0.998,2.47,2.0,,12.835,12.175,
2025-08-15T04:26:19.736Z,3,GR86-065-5,65.8,-0.451,1.036,2.47,2.0,,13.275,12.74,
2025-08-15T04:26:19.779Z,3,GR86-065-5,66.7,-0.434,1.008,2.45,2.0,5047.0,13.95,13.4,
2025-08-15T04:26:19.822Z,3,GR86-065-5,66.0,-0.495,1.058,2.46,2.0,,14.725,14.055,93.79
2025-08-15T04:26:19.865Z,3,GR86-065-5,62.400000000000006,-0.489,1.075,2.46,2.0,,14.94,14.27,
2025-08-15T04:26:19.908Z,3,GR86-065-5,60.900000000000006,-0.444,1.075,2.47,2.0,,13.855,12.835,
2025-08-15T04:26:19.951Z,3,GR86-065-5,60.900000000000006,-0.406,1.086,2.49,2.0,,7.92,7.325,
2025-08-15T04:26:19.994Z,3,GR86-065-5,60.8,-0.318,1.134,2.49,2.0,4904.0,2.165,0.0,
2025-08-15T04:26:20.037Z,3,GR86-065-5,62.1,-0.216,1.191,2.48,2.0,,0.0,0.0,89.94
2025-08-15T04:26:20.080Z,3,GR86-065-5,65.10000000000001,-0.178,1.271,2.49,2.0,,0.0,0.0,
2025-08-15T04:26:20.123Z,3,GR86-065-5,68.3,-0.16,1.217,2.49,2.0,,0.0,0.0,
2025-08-15T04:26:20.166Z,3,GR86-065-5,73.60000000000001,-0.163,1.206,2.73,2.0,,0.0,0.0,
2025-08-15T04:26:20.208Z,3,GR86-065-5,79.80000000000001,-0.166,1.173,8.27,2.0,4661.0,0.0,0.0,
2025-08-15T04:26:20.252Z,3,GR86-065-5,84.7,-0.179,1.183,20.5,2.0,,0.0,0.0,86.96000000000001
2025-08-15T04:26:20.295Z,3,GR86-065-5,87.10000000000001,-0.182,1.291,20.52,2.0,,0.0,0.0,
2025-08-15T04:26:20.338Z,3,GR86-065-5,87.2,-0.161,1.306,22.79,2.0,,0.0,0.0,
2025-08-15T04:26:20.381Z,3,GR86-065-5,86.60000000000001,-0.153,1.341,29.17,2.0,,0.0,0.0,
2025-08-15T04:26:20.424Z,3,GR86-065-5,85.2,-0.119,1.288,33.5,2.0,4588.0,0.0,0.0,
2025-08-15T04:26:20.468Z,3,GR86-065-5,83.30000000000001,0.09,1.274,36.19,2.0,,0.0,0.0,84.74
2025-08-15T04:26:20.511Z,3,GR86-065-5,78.30000000000001,0.126,1.278,40.33,2.0,,0.0,0.0,
2025-08-15T04:26:20.554Z,3,GR86-065-5,70.3,0.173,1.235,45.78,2.0,,0.0,0.0,
2025-08-15T04:26:20.597Z,3,GR86-065-5,60.1,0.184,1.213,48.8,2.0,,0.0,0.0,
2025-08-15T04:26:20.642Z,3,GR86-065-5,46.2,0.22,1.235,51.77,2.0,4578.0,0.0,0.0,
2025-08-15T04:26:20.685Z,3,GR86-065-5,39.0,0.234,1.154,52.0,2.0,,0.0,0.0,82.65
2025-08-15T04:26:20.728Z,3,GR86-065-5,32.300000000000004,0.229,1.167,52.02,2.0,,0.0,0.0,
2025-08-15T04:26:20.771Z,3,GR86-065-5,25.1,0.238,1.199,51.98,2.0,,0.0,0.0,
2025-08-15T04:26:20.814Z,3,GR86-065-5,18.7,0.24,1.175,51.870000000000005,2.0,,0.0,0.0,
2025-08-15T04:26:20.857Z,3,GR86-065-5,12.1,0.233,1.214,51.57,2.0,4920.0,0.0,0.0,
2025-08-15T04:26:20.900Z,3,GR86-065-5,-1.3,0.258,1.169,50.5,2.0,,0.0,0.0,81.54
2025-08-15T04:26:20.944Z,3,GR86-065-5,-13.8,0.263,1.288,49.78,2.0,,0.0,0.0,
2025-08-15T04:26:20.987Z,3,GR86-065-5,-26.0,0.252,1.298,49.31,2.0,,0.0,0.0,
2025-08-15T04:26:21.030Z,3,GR86-065-5,-36.4,0.268,1.338,49.18,2.0,,0.0,0.0,
2025-08-15T04:26:21.072Z,3,GR86-065-5,-45.6,0.27,1.353,48.88,2.0,5011.0,0.0,0.0,
2025-08-15T04:26:21.116Z,3,GR86-065-5,-55.0,0.276,1.308,39.5,2.0,,0.0,0.0,81.16
2025-08-15T04:26:21.158Z,3,GR86-065-5,-68.3,0.303,1.296,26.08,2.0,,0.0,0.0,
2025-08-15T04:26:21.202Z,3,GR86-065-5,-93.4,0.307,1.219,21.35,2.0,,0.0,0.0,
2025-08-15T04:26:21.245Z,3,GR86-065-5,-108.7,0.277,1.191,4.01,2.0,,0.0,0.0,
2025-08-15T04:26:21.288Z,3,GR86-065-5,-120.3,0.232,1.161,3.44,2.0,5141.0,0.0,0.0,
2025-08-15T04:26:21.331Z,3,GR86-065-5,-132.4,0.213,1.193,3.44,2.0,,0.0,0.0,82.13
2025-08-15T04:26:21.374Z,3,GR86-065-5,-151.1,0.108,1.174,3.38,2.0,,0.0,0.0,
2025-08-15T04:26:21.417Z,3,GR86-065-5,-176.5,0.097,1.113,3.25,2.0,,0.0,0.0,
2025-08-15T04:26:21.460Z,3,GR86-065-5,-214.0,0.043,0.927,3.06,2.0,,0.0,0.0,
2025-08-15T04:26:21.503Z,3,GR86-065-5,-227.9,0.017,0.844,2.93,2.0,5254.0,0.0,0.0,
2025-08-15T04:26:21.546Z,3,GR86-065-5,-233.0,0.011,0.8270000000000001,2.87,2.0,,0.0,0.0,83.81
2025-08-15T04:26:21.588Z,3,GR86-065-5,-233.0,0.018,0.779,2.84,2.0,,0.0,0.0,
2025-08-15T04:26:21.632Z,3,GR86-065-5,-228.6,0.036,0.844,2.79,2.0,,0.0,0.0,
2025-08-15T04:26:21.675Z,3,GR86-065-5,-219.4,0.037,0.842,2.74,2.0,,0.0,0.0,
2025-08-15T04:26:21.718Z,3,GR86-065-5,-208.2,0.043,0.937,2.69,2.0,4891.0,0.0,0.0,
2025-08-15T04:26:21.761Z,3,GR86-065-5,-185.8,0.002,0.953,2.65,2.0,,0.0,0.0,82.89
2025-08-15T04:26:21.804Z,3,GR86-065-5,-165.5,0.021,1.077,2.59,2.0,,0.0,0.0,
2025-08-15T04:26:21.847Z,3,GR86-065-5,-145.1,-0.004,1.151,2.59,2.0,,0.0,0.0,
2025-08-15T04:26:21.890Z,3,GR86-065-5,-123.4,-0.008,1.19,2.5500000000000003,2.0,,0.0,0.0,
2025-08-15T04:26:21.932Z,3,GR86-065-5,-100.1,-0.009,1.167,2.53,2.0,4369.0,0.0,0.0,
2025-08-15T04:26:21.976Z,3,GR86-065-5,-73.9,-0.022,1.236,2.49,2.0,,0.0,0.0,80.36
2025-08-15T04:26:22.018Z,3,GR86-065-5,-42.6,-0.08,1.259,3.81,2.0,,0.0,0.0,
2025-08-15T04:26:22.062Z,3,GR86-065-5,5.2,-0.105,1.425,27.54,2.0,,0.0,0.0,
2025-08-15T04:26:22.105Z,3,GR86-065-5,30.5,-0.132,1.4,42.03,2.0,,0.0,0.0,
2025-08-15T04:26:22.148Z,3,GR86-065-5,46.8,-0.087,1.403,53.620000000000005,2.0,3988.0,0.0,0.0,
2025-08-15T04:26:22.191Z,3,GR86-065-5,53.6,-0.113,1.342,71.65,2.0,,0.0,0.0,77.62
2025-08-15T04:26:22.234Z,3,GR86-065-5,53.900000000000006,-0.067,1.335,95.02,2.0,,0.0,0.0,
2025-08-15T04:26:22.277Z,3,GR86-065-5,52.400000000000006,0.241,1.291,100.1,2.0,,0.0,0.0,
