timestamp,lap,vehicle_id,steering_angle,accx_can,accy_can,ath,gear,nmot,pbrake_f,pbrake_r,speed
2025-08-15T04:33:02.471Z,3,GR86-022-13,2.7,0.127,0.004,100.0,5.0,6374.0,0.0,0.0,
2025-08-15T04:33:02.514Z,3,GR86-022-13,2.7,0.113,-0.003,99.98,5.0,,0.0,0.0,187.39
2025-08-15T04:33:02.558Z,3,GR86-022-13,3.2,0.132,0.013,100.01,5.0,,0.0,0.0,
2025-08-15T04:33:02.601Z,3,GR86-022-13,3.2,0.172,0.021,100.01,5.0,,0.0,0.0,
2025-08-15T04:33:02.644Z,3,GR86-022-13,3.2,0.13,-0.011,99.99,5.0,,0.0,0.0,
2025-08-15T04:33:02.688Z,3,GR86-022-13,3.3000000000000003,0.149,0.027,99.99,5.0,6390.0,0.0,0.0,
2025-08-15T04:33:02.730Z,3,GR86-022-13,3.2,0.137,0.035,100.01,5.0,,0.0,0.0,188.14
2025-08-15T04:33:02.773Z,3,GR86-022-13,3.2,0.129,0.043,100.0,5.0,,0.0,0.0,
2025-08-15T04:33:02.817Z,3,GR86-022-13,3.2,0.139,0.041,99.99,5.0,,0.0,0.0,
2025-08-15T04:33:02.859Z,3,GR86-022-13,3.3000000000000003,0.142,0.034,100.0,5.0,,0.0,0.0,
2025-08-15T04:33:02.902Z,3,GR86-022-13,3.3000000000000003,0.151,0.018,100.01,5.0,6405.0,0.0,0.0,
2025-08-15T04:33:02.945Z,3,GR86-022-13,3.3000000000000003,0.146,0.023,99.99,5.0,,0.0,0.0,188.79
2025-08-15T04:33:02.988Z,3,GR86-022-13,3.2,0.141,0.026,100.0,5.0,,0.0,0.0,
2025-08-15T04:33:03.031Z,3,GR86-022-13,2.8000000000000003,0.15,0.041,100.02,5.0,,0.0,0.0,
2025-08-15T04:33:03.075Z,3,GR86-022-13,2.8000000000000003,0.155,0.041,99.97,5.0,,0.0,0.0,
2025-08-15T04:33:03.118Z,3,GR86-022-13,2.1,0.124,0.029,100.0,5.0,6438.0,0.0,0.0,
2025-08-15T04:33:03.161Z,3,GR86-022-13,2.0,0.116,0.023,100.02,5.0,,0.0,0.0,189.5
2025-08-15T04:33:03.204Z,3,GR86-022-13,2.0,0.151,0.043,99.99,5.0,,0.0,0.0,
2025-08-15T04:33:03.248Z,3,GR86-022-13,2.0,0.132,0.014,100.0,5.0,,0.0,0.0,
2025-08-15T04:33:03.290Z,3,GR86-022-13,2.0,0.153,-0.01,100.0,5.0,,0.0,0.0,
2025-08-15T04:33:03.333Z,3,GR86-022-13,2.0,0.142,-0.023,99.98,5.0,6456.0,0.0,0.0,
2025-08-15T04:33:03.378Z,3,GR86-022-13,1.8,0.104,-0.05,99.99,5.0,,0.0,0.0,190.26
2025-08-15T04:33:03.421Z,3,GR86-022-13,1.7000000000000002,0.123,-0.033,99.99,5.0,,0.0,0.0,
2025-08-15T04:33:03.464Z,3,GR86-022-13,1.5,0.134,-0.033,99.98,5.0,,0.0,0.0,
2025-08-15T04:33:03.508Z,3,GR86-022-13,1.5,0.129,-0.037,100.02,5.0,,0.0,0.0,
2025-08-15T04:33:03.550Z,3,GR86-022-13,1.5,0.118,-0.029,99.99,5.0,6480.0,0.0,0.0,
2025-08-15T04:33:03.593Z,3,GR86-022-13,1.5,0.134,-0.059,100.01,5.0,,0.0,0.0,191.0
2025-08-15T04:33:03.638Z,3,GR86-022-13,1.5,0.128,-0.035,100.0,5.0,,0.0,0.0,
2025-08-15T04:33:03.681Z,3,GR86-022-13,1.5,0.122,-0.042,99.98,5.0,,0.0,0.0,
2025-08-15T04:33:03.724Z,3,GR86-022-13,1.6,0.118,-0.027,100.02,5.0,,0.0,0.0,
2025-08-15T04:33:03.768Z,3,GR86-022-13,1.8,0.114,-0.032,99.98,5.0,6509.0,0.0,0.0,
2025-08-15T04:33:03.810Z,3,GR86-022-13,2.5,0.121,-0.051,100.0,5.0,,0.0,0.0,191.8
2025-08-15T04:33:03.853Z,3,GR86-022-13,2.7,0.129,-0.036,99.99,5.0,,0.0,0.0,
2025-08-15T04:33:03.897Z,3,GR86-022-13,2.7,0.129,-0.014,99.99,5.0,,0.0,0.0,
2025-08-15T04:33:03.941Z,3,GR86-022-13,2.9000000000000004,0.122,-0.031,100.03,5.0,,0.0,0.0,
2025-08-15T04:33:03.984Z,3,GR86-022-13,3.2,0.106,-0.002,99.98,5.0,6534.0,0.0,0.0,
2025-08-15T04:33:04.028Z,3,GR86-022-13,3.7,0.118,-0.012,100.01,5.0,,0.0,0.0,192.59
2025-08-15T04:33:04.071Z,3,GR86-022-13,4.2,0.144,0.009,100.02,5.0,,0.0,0.0,
2025-08-15T04:33:04.113Z,3,GR86-022-13,4.3,0.103,0.018,99.99,5.0,,0.0,0.0,
2025-08-15T04:33:04.157Z,3,GR86-022-13,5.0,0.132,0.041,100.01,5.0,,0.0,0.0,
2025-08-15T04:33:04.199Z,3,GR86-022-13,5.1000000000000005,0.109,0.07,99.99,5.0,6560.0,0.0,0.0,
2025-08-15T04:33:04.242Z,3,GR86-022-13,5.1000000000000005,0.131,0.088,100.0,5.0,,0.0,0.0,193.26
2025-08-15T04:33:04.285Z,3,GR86-022-13,5.4,0.119,0.105,99.98,5.0,,0.0,0.0,
2025-08-15T04:33:04.328Z,3,GR86-022-13,5.6000000000000005,0.125,0.081,99.99,5.0,,0.0,0.0,
2025-08-15T04:33:04.371Z,3,GR86-022-13,5.6000000000000005,0.111,0.061,100.0,5.0,,0.0,0.0,
2025-08-15T04:33:04.414Z,3,GR86-022-13,4.3,0.118,0.068,100.0,5.0,6580.0,0.0,0.0,
2025-08-15T04:33:04.459Z,3,GR86-022-13,2.5,0.129,0.088,100.02,5.0,,0.0,0.0,194.04
2025-08-15T04:33:04.501Z,3,GR86-022-13,2.9000000000000004,0.116,0.082,99.97,5.0,,0.0,0.0,
2025-08-15T04:33:04.544Z,3,GR86-022-13,4.6000000000000005,0.1,0.04,100.02,5.0,,0.0,0.0,
2025-08-15T04:33:04.588Z,3,GR86-022-13,6.1000000000000005,0.121,0.035,99.99,5.0,,0.0,0.0,
2025-08-15T04:33:04.631Z,3,GR86-022-13,6.9,0.121,0.063,100.02,5.0,6609.0,0.0,0.0,
2025-08-15T04:33:04.674Z,3,GR86-022-13,6.9,0.128,0.081,99.98,5.0,,0.0,0.0,194.78
2025-08-15T04:33:04.718Z,3,GR86-022-13,5.0,0.101,0.099,100.03,5.0,,0.0,0.0,
2025-08-15T04:33:04.761Z,3,GR86-022-13,3.5,0.109,0.088,99.99,5.0,,0.0,0.0,
2025-08-15T04:33:04.804Z,3,GR86-022-13,2.3000000000000003,0.111,0.077,100.02,5.0,,0.0,0.0,
2025-08-15T04:33:04.848Z,3,GR86-022-13,1.5,0.108,0.074,99.99,5.0,6631.0,0.0,0.0,
2025-08-15T04:33:04.891Z,3,GR86-022-13,1.5,0.113,0.046,100.01,5.0,,0.0,0.0,196.1
2025-08-15T04:33:04.934Z,3,GR86-022-13,2.1,0.131,0.038,99.97,5.0,,0.0,0.0,
2025-08-15T04:33:04.978Z,3,GR86-022-13,3.8,0.109,0.016,100.02,5.0,,0.0,0.0,
2025-08-15T04:33:05.021Z,3,GR86-022-13,5.2,0.112,-0.005,100.0,5.0,,0.0,0.0,
2025-08-15T04:33:05.064Z,3,GR86-022-13,6.2,0.11,0.003,100.03,5.0,6656.0,0.0,0.0,
2025-08-15T04:33:05.108Z,3,GR86-022-13,6.5,0.106,-0.007,99.97,5.0,,0.0,0.0,196.84
2025-08-15T04:33:05.150Z,3,GR86-022-13,6.5,0.108,0.016,100.02,5.0,,0.0,0.0,
2025-08-15T04:33:05.193Z,3,GR86-022-13,6.5,0.107,0.064,99.98,5.0,,0.0,0.0,
2025-08-15T04:33:05.237Z,3,GR86-022-13,6.4,0.094,0.11,100.01,5.0,,0.0,0.0,
2025-08-15T04:33:05.279Z,3,GR86-022-13,5.9,0.088,0.108,99.99,5.0,6701.0,0.0,0.0,
2025-08-15T04:33:05.322Z,3,GR86-022-13,4.800000000000001,0.109,0.123,100.03,5.0,,0.0,0.0,197.53
2025-08-15T04:33:05.365Z,3,GR86-022-13,4.0,0.118,0.12,99.98,5.0,,0.0,0.0,
2025-08-15T04:33:05.408Z,3,GR86-022-13,3.9,0.12,0.11,100.02,5.0,,0.0,0.0,
2025-08-15T04:33:05.451Z,3,GR86-022-13,3.9,0.125,0.1,99.98,5.0,,0.0,0.0,
2025-08-15T04:33:05.494Z,3,GR86-022-13,4.2,0.104,0.065,100.01,5.0,6713.0,0.0,0.0,
2025-08-15T04:33:05.538Z,3,GR86-022-13,4.9,0.094,0.052,99.99,5.0,,0.0,0.0,198.19
2025-08-15T04:33:05.581Z,3,GR86-022-13,4.9,0.102,0.051,100.0,5.0,,0.0,0.0,
2025-08-15T04:33:05.624Z,3,GR86-022-13,4.9,0.105,0.037,100.01,5.0,,0.0,0.0,
2025-08-15T04:33:05.668Z,3,GR86-022-13,5.0,0.103,0.056,99.99,5.0,,0.0,0.0,
2025-08-15T04:33:05.711Z,3,GR86-022-13,4.9,0.113,0.033,100.0,5.0,6744.0,0.0,0.0,
2025-08-15T04:33:05.753Z,3,GR86-022-13,4.9,0.095,0.056,99.98,5.0,,0.0,0.0,198.84
2025-08-15T04:33:05.797Z,3,GR86-022-13,4.2,0.096,0.049,100.02,5.0,,0.0,0.0,
2025-08-15T04:33:05.839Z,3,GR86-022-13,3.2,0.102,0.053,99.98,5.0,,0.0,0.0,
2025-08-15T04:33:05.882Z,3,GR86-022-13,2.3000000000000003,0.101,0.029,100.01,5.0,,0.0,0.0,
2025-08-15T04:33:05.927Z,3,GR86-022-13,2.3000000000000003,0.094,-0.001,99.99,5.0,6766.0,0.0,0.0,
2025-08-15T04:33:05.969Z,3,GR86-022-13,2.3000000000000003,0.07,0.009,100.02,5.0,,0.0,0.0,199.38
2025-08-15T04:33:06.012Z,3,GR86-022-13,2.1,0.088,0.006,99.99,5.0,,0.0,0.0,
2025-08-15T04:33:06.055Z,3,GR86-022-13,2.1,0.08,-0.013,99.99,5.0,,0.0,0.0,
2025-08-15T04:33:06.098Z,3,GR86-022-13,2.7,0.089,-0.055,100.01,5.0,,0.0,0.0,
2025-08-15T04:33:06.141Z,3,GR86-022-13,3.1,0.091,-0.033,99.98,5.0,6781.0,0.0,0.0,
2025-08-15T04:33:06.184Z,3,GR86-022-13,3.4000000000000004,0.074,-0.032,100.01,5.0,,0.0,0.0,199.96
2025-08-15T04:33:06.228Z,3,GR86-022-13,3.4000000000000004,0.078,-0.027,99.99,5.0,,0.0,0.0,
2025-08-15T04:33:06.271Z,3,GR86-022-13,3.4000000000000004,0.088,-0.017,100.02,5.0,,0.0,0.0,
2025-08-15T04:33:06.314Z,3,GR86-022-13,3.3000000000000003,0.09,0.005,99.98,5.0,,0.0,0.0,
2025-08-15T04:33:06.358Z,3,GR86-022-13,2.3000000000000003,0.092,0.03,99.99,5.0,6796.0,0.0,0.0,
2025-08-15T04:33:06.401Z,3,GR86-022-13,2.1,0.078,-0.002,100.01,5.0,,0.0,0.0,200.54
2025-08-15T04:33:06.444Z,3,GR86-022-13,2.1,0.088,-0.015,99.97,5.0,,0.0,0.0,
2025-08-15T04:33:06.488Z,3,GR86-022-13,2.1,0.086,-0.015,99.98,5.0,,0.0,0.0,
2025-08-15T04:33:06.530Z,3,GR86-022-13,2.1,0.089,-0.035,100.0,5.0,,0.0,0.0,
2025-08-15T04:33:06.573Z,3,GR86-022-13,2.1,0.078,-0.032,100.0,5.0,6824.0,0.0,0.0,
2025-08-15T04:33:06.617Z,3,GR86-022-13,2.1,0.093,-0.056,99.98,5.0,,0.0,0.0,201.15
2025-08-15T04:33:06.659Z,3,GR86-022-13,2.1,0.09,-0.066,99.99,5.0,,0.0,0.0,
2025-08-15T04:33:06.702Z,3,GR86-022-13,2.1,0.098,-0.052,99.99,5.0,,0.0,0.0,
2025-08-15T04:33:06.745Z,3,GR86-022-13,2.1,0.096,-0.048,100.03,5.0,,0.0,0.0,
2025-08-15T04:33:06.788Z,3,GR86-022-13,2.1,0.087,-0.033,99.98,5.0,6835.0,0.0,0.0,
2025-08-15T04:33:06.831Z,3,GR86-022-13,2.1,0.093,-0.054,100.03,5.0,,0.0,0.0,201.72
2025-08-15T04:33:06.874Z,3,GR86-022-13,2.1,0.086,-0.066,99.99,5.0,,0.0,0.0,
2025-08-15T04:33:06.918Z,3,GR86-022-13,2.1,0.086,-0.062,100.01,5.0,,0.0,0.0,
2025-08-15T04:33:06.961Z,3,GR86-022-13,2.1,0.089,-0.034,100.0,5.0,,0.0,0.0,
2025-08-15T04:33:07.004Z,3,GR86-022-13,2.1,0.094,-0.031,100.0,5.0,6864.0,0.0,0.0,
2025-08-15T04:33:07.048Z,3,GR86-022-13,2.1,0.096,-0.053,99.99,5.0,,0.0,0.0,202.27
2025-08-15T04:33:07.091Z,3,GR86-022-13,2.1,0.08,-0.087,99.99,5.0,,0.0,0.0,
2025-08-15T04:33:07.134Z,3,GR86-022-13,2.1,0.102,-0.058,100.0,5.0,,0.0,0.0,
2025-08-15T04:33:07.178Z,3,GR86-022-13,2.1,0.091,-0.051,100.0,5.0,,0.0,0.0,
2025-08-15T04:33:07.221Z,3,GR86-022-13,2.3000000000000003,0.099,-0.071,100.02,5.0,6875.0,0.0,0.0,
2025-08-15T04:33:07.264Z,3,GR86-022-13,2.8000000000000003,0.11,-0.065,100.0,5.0,,0.0,0.0,202.85
2025-08-15T04:33:07.308Z,3,GR86-022-13,3.2,0.099,-0.033,99.98,5.0,,0.0,0.0,
2025-08-15T04:33:07.351Z,3,GR86-022-13,3.5,0.092,-0.036,99.99,5.0,,0.0,0.0,
2025-08-15T04:33:07.394Z,3,GR86-022-13,3.7,0.125,-0.024,99.99,5.0,,0.0,0.0,
2025-08-15T04:33:07.438Z,3,GR86-022-13,3.9,0.109,-0.012,100.01,5.0,6892.0,0.0,0.0,
2025-08-15T04:33:07.481Z,3,GR86-022-13,4.0,0.104,0.005,100.0,5.0,,0.0,0.0,204.07
2025-08-15T04:33:07.524Z,3,GR86-022-13,4.2,0.12,0.014,100.0,5.0,,0.0,0.0,
2025-08-15T04:33:07.568Z,3,GR86-022-13,4.6000000000000005,0.099,0.024,99.99,5.0,,0.0,0.0,
2025-08-15T04:33:07.610Z,3,GR86-022-13,5.1000000000000005,0.107,0.035,99.99,5.0,,0.0,0.0,
2025-08-15T04:33:07.653Z,3,GR86-022-13,5.300000000000001,0.103,0.029,99.98,5.0,6913.0,0.0,0.0,
2025-08-15T04:33:07.698Z,3,GR86-022-13,5.300000000000001,0.108,0.043,100.03,5.0,,0.0,0.0,204.71
2025-08-15T04:33:07.741Z,3,GR86-022-13,5.300000000000001,0.123,0.039,100.0,5.0,,0.0,0.0,
2025-08-15T04:33:07.784Z,3,GR86-022-13,5.300000000000001,0.091,0.062,100.03,5.0,,0.0,0.0,
2025-08-15T04:33:07.828Z,3,GR86-022-13,5.300000000000001,0.104,0.071,100.01,5.0,,0.0,0.0,
2025-08-15T04:33:07.870Z,3,GR86-022-13,5.300000000000001,0.095,0.056,100.01,5.0,6946.0,0.0,0.0,
2025-08-15T04:33:07.913Z,3,GR86-022-13,5.300000000000001,0.096,0.069,100.03,5.0,,0.0,0.0,205.34
2025-08-15T04:33:07.957Z,3,GR86-022-13,5.300000000000001,0.09,0.046,100.0,5.0,,0.0,0.0,
2025-08-15T04:33:07.999Z,3,GR86-022-13,4.9,0.109,0.058,99.98,5.0,,0.0,0.0,
2025-08-15T04:33:08.043Z,3,GR86-022-13,4.800000000000001,0.087,0.044,99.98,5.0,,0.0,0.0,
2025-08-15T04:33:08.087Z,3,GR86-022-13,4.800000000000001,0.109,0.038,100.0,5.0,6980.0,0.0,0.0,
2025-08-15T04:33:08.129Z,3,GR86-022-13,4.800000000000001,0.089,0.038,100.0,5.0,,0.0,0.0,205.99
2025-08-15T04:33:08.172Z,3,GR86-022-13,4.800000000000001,0.103,0.027,99.98,5.0,,0.0,0.0,
2025-08-15T04:33:08.215Z,3,GR86-022-13,4.800000000000001,0.092,0.034,99.99,5.0,,0.0,0.0,
2025-08-15T04:33:08.258Z,3,GR86-022-13,4.800000000000001,0.098,0.036,100.03,5.0,,0.0,0.0,
2025-08-15T04:33:08.301Z,3,GR86-022-13,4.800000000000001,0.102,0.024,100.01,5.0,7002.0,0.0,0.0,
2025-08-15T04:33:08.344Z,3,GR86-022-13,4.800000000000001,0.097,0.022,100.0,5.0,,0.0,0.0,206.67
2025-08-15T04:33:08.388Z,3,GR86-022-13,4.7,0.098,0.019,100.02,5.0,,0.0,0.0,
2025-08-15T04:33:08.431Z,3,GR86-022-13,4.7,0.097,0.021,100.01,5.0,,0.0,0.0,
2025-08-15T04:33:08.473Z,3,GR86-022-13,4.6000000000000005,0.088,0.019,99.98,5.0,,0.0,0.0,
2025-08-15T04:33:08.517Z,3,GR86-022-13,4.3,0.088,0.01,100.0,5.0,7023.0,0.0,0.0,
2025-08-15T04:33:08.559Z,3,GR86-022-13,4.0,0.089,0.001,99.99,5.0,,5.705,5.965,207.19
2025-08-15T04:33:08.602Z,3,GR86-022-13,3.7,0.06,0.016,100.02,5.0,,4.595,5.05,
2025-08-15T04:33:08.648Z,3,GR86-022-13,3.6,0.078,0.023,100.02,5.0,,0.0,2.015,
2025-08-15T04:33:08.690Z,3,GR86-022-13,3.6,0.079,0.034,100.02,5.0,,2.245,2.795,
2025-08-15T04:33:08.733Z,3,GR86-022-13,3.6,0.096,0.012,100.03,5.0,7040.0,7.615,8.120000000000001,
2025-08-15T04:33:08.778Z,3,GR86-022-13,3.9,0.001,0.007,99.99,5.0,,6.775,7.295,207.72
2025-08-15T04:33:08.821Z,3,GR86-022-13,4.6000000000000005,-0.004,0.009,99.99,5.0,,3.34,3.785,
2025-08-15T04:33:08.864Z,3,GR86-022-13,5.4,0.08,0.028,100.0,5.0,,0.0,0.0,
2025-08-15T04:33:08.908Z,3,GR86-022-13,5.800000000000001,0.082,0.047,99.99,5.0,,2.885,3.435,
2025-08-15T04:33:08.950Z,3,GR86-022-13,5.9,0.064,0.087,100.01,5.0,7054.0,3.815,4.21,
2025-08-15T04:33:08.993Z,3,GR86-022-13,5.9,0.06,0.062,100.02,5.0,,0.0,0.0,208.19
2025-08-15T04:33:09.037Z,3,GR86-022-13,5.5,0.088,0.08,99.97,5.0,,0.0,0.0,
2025-08-15T04:33:09.081Z,3,GR86-022-13,4.800000000000001,0.096,0.046,99.98,5.0,,6.655,7.0200000000000005,
2025-08-15T04:33:09.124Z,3,GR86-022-13,4.5,0.02,0.067,99.99,5.0,,6.455,6.715,
2025-08-15T04:33:09.168Z,3,GR86-022-13,4.4,0.007,0.08,100.01,5.0,7056.0,4.03,4.305,
2025-08-15T04:33:09.210Z,3,GR86-022-13,4.3,0.07,0.075,100.01,5.0,,0.0,0.0,208.21
2025-08-15T04:33:09.253Z,3,GR86-022-13,4.3,0.096,0.062,100.01,5.0,,0.0,0.0,
2025-08-15T04:33:09.297Z,3,GR86-022-13,3.9,0.101,0.028,99.99,5.0,,0.0,0.0,
2025-08-15T04:33:09.341Z,3,GR86-022-13,3.3000000000000003,0.092,0.028,99.99,5.0,,0.0,0.0,
2025-08-15T04:33:09.384Z,3,GR86-022-13,3.1,0.091,0.01,99.98,5.0,7075.0,0.0,0.0,
2025-08-15T04:33:09.428Z,3,GR86-022-13,2.9000000000000004,0.103,0.007,100.0,5.0,,0.0,0.0,208.66
2025-08-15T04:33:09.470Z,3,GR86-022-13,2.6,0.094,-0.019,99.99,5.0,,0.0,0.0,
2025-08-15T04:33:09.513Z,3,GR86-022-13,2.5,0.096,-0.024,100.03,5.0,,0.0,0.0,
2025-08-15T04:33:09.557Z,3,GR86-022-13,2.5,0.084,-0.037,100.0,5.0,,0.0,0.0,
2025-08-15T04:33:09.599Z,3,GR86-022-13,2.5,0.089,-0.022,99.99,5.0,7083.0,0.0,0.0,
2025-08-15T04:33:09.642Z,3,GR86-022-13,2.5,0.076,-0.03,100.0,5.0,,0.0,0.0,208.61
2025-08-15T04:33:09.685Z,3,GR86-022-13,2.5,0.095,-0.03,100.01,5.0,,0.0,0.0,
2025-08-15T04:33:09.728Z,3,GR86-022-13,2.5,0.086,-0.064,100.03,5.0,,0.0,0.0,
2025-08-15T04:33:09.771Z,3,GR86-022-13,2.2,0.109,-0.04,100.0,5.0,,0.0,0.0,
2025-08-15T04:33:09.814Z,3,GR86-022-13,2.1,0.095,-0.051,99.98,5.0,7101.0,0.0,0.0,
2025-08-15T04:33:09.859Z,3,GR86-022-13,2.1,0.092,-0.072,100.01,5.0,,0.0,0.0,209.22
2025-08-15T04:33:09.901Z,3,GR86-022-13,2.1,0.088,-0.068,99.99,5.0,,0.0,0.0,
2025-08-15T04:33:09.944Z,3,GR86-022-13,2.1,0.082,-0.033,99.97,5.0,,6.3950000000000005,6.775,
2025-08-15T04:33:09.988Z,3,GR86-022-13,2.3000000000000003,0.017,-0.04,100.0,5.0,,11.275,11.46,
2025-08-15T04:33:10.032Z,3,GR86-022-13,2.7,-0.1,-0.034,99.97,5.0,7119.0,12.74,12.805,
2025-08-15T04:33:10.075Z,3,GR86-022-13,2.7,-0.098,-0.017,99.98,5.0,,12.45,12.835,209.8
2025-08-15T04:33:10.118Z,3,GR86-022-13,2.7,-0.098,-0.01,99.98,5.0,,12.68,12.805,
2025-08-15T04:33:10.161Z,3,GR86-022-13,2.7,-0.126,-0.007,99.98,5.0,,12.53,12.895,
2025-08-15T04:33:10.204Z,3,GR86-022-13,2.7,-0.085,-0.022,99.98,5.0,,7.890000000000001,8.24,
2025-08-15T04:33:10.248Z,3,GR86-022-13,2.7,0.041,-0.016,99.98,5.0,7123.0,0.0,1.955,
2025-08-15T04:33:10.291Z,3,GR86-022-13,2.3000000000000003,0.081,-0.02,99.99,5.0,,0.0,0.0,210.49
2025-08-15T04:33:10.334Z,3,GR86-022-13,2.1,0.097,-0.021,100.0,5.0,,0.0,0.0,
2025-08-15T04:33:10.378Z,3,GR86-022-13,2.1,0.097,-0.048,99.99,5.0,,0.0,0.0,
2025-08-15T04:33:10.421Z,3,GR86-022-13,2.1,0.095,-0.042,99.98,5.0,,0.0,0.0,
2025-08-15T04:33:10.464Z,3,GR86-022-13,2.1,0.086,-0.058,100.01,5.0,7115.0,0.0,0.0,
2025-08-15T04:33:10.508Z,3,GR86-022-13,2.1,0.08,-0.051,100.0,5.0,,0.0,0.0,209.75
2025-08-15T04:33:10.550Z,3,GR86-022-13,2.1,0.081,-0.075,100.0,5.0,,0.0,0.0,
2025-08-15T04:33:10.593Z,3,GR86-022-13,1.9,0.104,-0.075,100.0,5.0,,0.0,0.0,
2025-08-15T04:33:10.637Z,3,GR86-022-13,1.8,0.083,-0.061,100.0,5.0,,0.0,0.0,
2025-08-15T04:33:10.681Z,3,GR86-022-13,1.8,0.076,-0.047,100.03,5.0,7120.0,0.0,0.0,
2025-08-15T04:33:10.724Z,3,GR86-022-13,1.8,0.107,-0.043,100.02,5.0,,0.0,0.0,210.19
2025-08-15T04:33:10.768Z,3,GR86-022-13,1.8,0.103,-0.066,99.98,5.0,,0.0,0.0,
2025-08-15T04:33:10.811Z,3,GR86-022-13,1.8,0.095,-0.062,99.99,5.0,,0.0,0.0,
2025-08-15T04:33:10.853Z,3,GR86-022-13,1.9,0.065,-0.057,100.0,5.0,,4.745,4.805,
2025-08-15T04:33:10.897Z,3,GR86-022-13,1.9,0.0,-0.062,99.98,5.0,7133.0,9.49,9.57,
2025-08-15T04:33:10.939Z,3,GR86-022-13,1.9,-0.068,-0.038,76.08,5.0,,12.71,12.71,210.64
2025-08-15T04:33:10.982Z,3,GR86-022-13,1.6,-0.148,-0.025,19.22,5.0,,14.545,14.635,
2025-08-15T04:33:11.025Z,3,GR86-022-13,0.7000000000000001,-0.186,-0.043,2.77,5.0,,20.66,20.755,
2025-08-15T04:33:11.068Z,3,GR86-022-13,-0.2,-0.454,-0.032,2.76,5.0,,32.93,32.75,
2025-08-15T04:33:11.111Z,3,GR86-022-13,-1.1,-0.755,0.002,2.73,5.0,7152.0,45.125,44.68,
2025-08-15T04:33:11.154Z,3,GR86-022-13,-1.4,-1.089,-0.047,2.69,5.0,,58.4,57.775,211.05
2025-08-15T04:33:11.198Z,3,GR86-022-13,-0.6000000000000001,-1.153,-0.023,2.64,5.0,,69.465,68.84,
2025-08-15T04:33:11.241Z,3,GR86-022-13,2.3000000000000003,-1.223,-0.058,2.63,5.0,,70.305,69.875,
2025-08-15T04:33:11.284Z,3,GR86-022-13,4.3,-1.18,-0.023,2.61,5.0,,70.18,69.905,
2025-08-15T04:33:11.329Z,3,GR86-022-13,4.5,-1.145,0.024,2.58,5.0,6867.0,64.67,65.83,
2025-08-15T04:33:11.371Z,3,GR86-022-13,2.6,-1.06,0.022,2.57,5.0,,60.08,61.68,210.24
2025-08-15T04:33:11.414Z,3,GR86-022-13,-0.2,-1.06,-0.005,2.5500000000000003,5.0,,57.47,59.3,
2025-08-15T04:33:11.458Z,3,GR86-022-13,-3.5,-1.081,-0.031,2.54,5.0,,59.025,59.42,
2025-08-15T04:33:11.501Z,3,GR86-022-13,-2.7,-1.125,-0.058,37.6,5.0,,63.345,62.995000000000005,
2025-08-15T04:33:11.544Z,3,GR86-022-13,-1.1,-1.17,-0.05,47.12,4.0,6534.0,60.31,61.025,
2025-08-15T04:33:11.588Z,3,GR86-022-13,0.5,-1.047,-0.047,6.5,4.0,,48.055,49.275,204.83
2025-08-15T04:33:11.630Z,3,GR86-022-13,1.1,-0.885,-0.014,3.97,4.0,,44.405,45.69,
2025-08-15T04:33:11.674Z,3,GR86-022-13,0.3,-0.957,-0.108,3.52,4.0,,44.255,44.65,
2025-08-15T04:33:11.717Z,3,GR86-022-13,0.5,-0.945,-0.038,3.2,4.0,,46.74,47.64,
2025-08-15T04:33:11.759Z,3,GR86-022-13,2.9000000000000004,-0.9,-0.141,3.0700000000000003,4.0,6211.0,53.0,53.21,
2025-08-15T04:33:11.802Z,3,GR86-022-13,5.2,-1.068,-0.118,2.94,4.0,,57.3,57.38,196.24
2025-08-15T04:33:11.845Z,3,GR86-022-13,5.2,-1.103,-0.027,2.85,4.0,,59.15,59.955,
2025-08-15T04:33:11.888Z,3,GR86-022-13,1.9,-0.987,-0.087,2.79,4.0,,56.845,57.24,
2025-08-15T04:33:11.931Z,3,GR86-022-13,-1.6,-0.96,-0.08,2.68,4.0,,49.045,49.9,
2025-08-15T04:33:11.974Z,3,GR86-022-13,-4.0,-0.928,-0.055,2.62,4.0,6366.0,46.345,46.77,
2025-08-15T04:33:12.018Z,3,GR86-022-13,-2.4000000000000004,-0.884,-0.143,2.6,4.0,,49.825,49.58,189.2
2025-08-15T04:33:12.061Z,3,GR86-022-13,0.6000000000000001,-0.961,-0.094,2.57,4.0,,53.745000000000005,53.515,
2025-08-15T04:33:12.104Z,3,GR86-022-13,0.4,-1.039,-0.064,2.5500000000000003,4.0,,59.805,59.36,
2025-08-15T04:33:12.148Z,3,GR86-022-13,-3.2,-1.128,-0.043,2.53,4.0,,67.08500000000001,66.49,
2025-08-15T04:33:12.191Z,3,GR86-022-13,-7.9,-1.19,-0.064,13.96,4.0,6827.0,74.12,73.46000000000001,
2025-08-15T04:33:12.234Z,3,GR86-022-13,-13.1,-1.246,-0.114,60.54,3.0,,79.9,79.305,181.92
2025-08-15T04:33:12.278Z,3,GR86-022-13,-14.4,-1.202,-0.263,6.63,3.0,,85.96000000000001,87.27,
2025-08-15T04:33:12.321Z,3,GR86-022-13,-8.4,-1.193,-0.223,4.16,3.0,,86.4,88.11,
2025-08-15T04:33:12.408Z,3,GR86-022-13,-1.6,-1.295,-0.335,3.5700000000000003,3.0,6551.0,83.93,85.5,
2025-08-15T04:33:12.451Z,3,GR86-022-13,1.7000000000000002,-1.14,-0.142,3.14,3.0,,75.705,77.17,175.01
2025-08-15T04:33:12.494Z,3,GR86-022-13,2.1,-1.028,-0.443,3.03,3.0,,68.0,68.21000000000001,
2025-08-15T04:33:12.538Z,3,GR86-022-13,1.9,-1.025,-0.28,2.88,3.0,,60.17,61.24,
2025-08-15T04:33:12.581Z,3,GR86-022-13,1.7000000000000002,-0.933,-0.472,2.81,3.0,,58.155,59.055,
2025-08-15T04:33:12.624Z,3,GR86-022-13,-0.1,-0.804,-0.645,2.7,3.0,6148.0,48.59,49.275,
2025-08-15T04:33:12.668Z,3,GR86-022-13,-6.0,-0.979,-0.484,2.65,3.0,,40.59,41.25,167.0
2025-08-15T04:33:12.710Z,3,GR86-022-13,-13.7,-0.849,-0.457,2.6,3.0,,39.34,39.815,
2025-08-15T04:33:12.753Z,3,GR86-022-13,-24.700000000000003,-0.757,-0.56,2.58,3.0,,39.815,40.18,
2025-08-15T04:33:12.797Z,3,GR86-022-13,-40.1,-0.779,-0.657,2.54,3.0,,41.08,41.28,
2025-08-15T04:33:12.841Z,3,GR86-022-13,-43.0,-0.745,-0.64,2.53,3.0,6644.0,41.935,42.455,
2025-08-15T04:33:12.928Z,3,GR86-022-13,-39.7,-0.835,-0.915,2.51,3.0,,45.215,45.965,152.59
2025-08-15T04:33:12.970Z,3,GR86-022-13,-34.1,-0.7010000000000001,-0.957,2.49,3.0,,43.585,44.56,
2025-08-15T04:33:13.013Z,3,GR86-022-13,-22.700000000000003,-0.797,-0.835,2.5,3.0,,38.9,39.095,
2025-08-15T04:33:13.057Z,3,GR86-022-13,-6.4,-0.618,-0.8170000000000001,2.51,3.0,6693.0,31.27,32.045,
2025-08-15T04:33:13.099Z,3,GR86-022-13,-10.6,-0.524,-0.8290000000000001,2.51,3.0,,24.89,25.605,146.44
2025-08-15T04:33:13.142Z,3,GR86-022-13,-22.0,-0.5750000000000001,-0.889,2.52,3.0,,19.55,19.99,
2025-08-15T04:33:13.185Z,3,GR86-022-13,-34.4,-0.443,-0.935,2.5,3.0,,17.03,17.61,
2025-08-15T04:33:13.228Z,3,GR86-022-13,-44.3,-0.336,-1.004,2.49,3.0,,11.735,12.24,
2025-08-15T04:33:13.271Z,3,GR86-022-13,-46.400000000000006,-0.303,-1.145,2.48,3.0,6420.0,4.03,4.53,
2025-08-15T04:33:13.314Z,3,GR86-022-13,-39.6,-0.288,-1.2,2.48,3.0,,0.0,0.0,141.71
2025-08-15T04:33:13.358Z,3,GR86-022-13,-32.2,-0.171,-1.224,2.49,3.0,,0.0,0.0,
2025-08-15T04:33:13.401Z,3,GR86-022-13,-37.0,-0.142,-1.224,2.5,3.0,,0.0,0.0,
2025-08-15T04:33:13.444Z,3,GR86-022-13,-43.400000000000006,-0.157,-1.229,2.49,3.0,,0.0,0.0,
2025-08-15T04:33:13.488Z,3,GR86-022-13,-46.900000000000006,-0.164,-1.199,3.71,3.0,6041.0,0.0,0.0,
2025-08-15T04:33:13.530Z,3,GR86-022-13,-44.0,-0.141,-1.189,12.1,3.0,,0.0,0.0,137.78
2025-08-15T04:33:13.573Z,3,GR86-022-13,-33.0,-0.142,-1.236,32.06,3.0,,0.0,0.0,
2025-08-15T04:33:13.617Z,3,GR86-022-13,-10.4,-0.116,-1.234,71.03,3.0,,0.0,0.0,
2025-08-15T04:33:13.661Z,3,GR86-022-13,-10.3,-0.055,-1.149,98.25,3.0,,0.0,0.0,
2025-08-15T04:33:13.703Z,3,GR86-022-13,-23.6,-0.047,-1.187,99.46,3.0,6083.0,0.0,0.0,
2025-08-15T04:33:13.747Z,3,GR86-022-13,-40.5,0.301,-1.208,99.66,3.0,,0.0,0.0,136.07
2025-08-15T04:33:13.790Z,3,GR86-022-13,-52.900000000000006,0.264,-1.142,66.07000000000001,3.0,,0.0,0.0,
2025-08-15T04:33:13.833Z,3,GR86-022-13,-56.7,0.199,-1.203,56.1,3.0,,0.0,0.0,
2025-08-15T04:33:13.878Z,3,GR86-022-13,-59.0,0.188,-1.257,44.62,3.0,,0.0,0.0,
2025-08-15T04:33:13.921Z,3,GR86-022-13,-63.0,0.203,-1.203,37.28,3.0,6168.0,0.0,0.0,
2025-08-15T04:33:13.964Z,3,GR86-022-13,-66.3,0.173,-1.238,35.07,3.0,,0.0,0.0,134.11
2025-08-15T04:33:14.008Z,3,GR86-022-13,-67.60000000000001,0.126,-1.224,34.4,3.0,,0.0,0.0,
2025-08-15T04:33:14.050Z,3,GR86-022-13,-67.60000000000001,0.085,-1.265,34.39,3.0,,0.0,0.0,
2025-08-15T04:33:14.137Z,3,GR86-022-13,-67.5,0.104,-1.202,34.300000000000004,3.0,6378.0,0.0,0.0,
2025-08-15T04:33:14.181Z,3,GR86-022-13,-67.10000000000001,0.12,-1.192,34.27,3.0,,0.0,0.0,132.65
2025-08-15T04:33:14.224Z,3,GR86-022-13,-64.9,0.084,-1.115,34.96,3.0,,0.0,0.0,
2025-08-15T04:33:14.268Z,3,GR86-022-13,-63.3,0.056,-1.248,36.7,3.0,,0.0,0.0,
2025-08-15T04:33:14.310Z,3,GR86-022-13,-62.8,0.106,-1.216,37.28,3.0,,0.0,0.0,
2025-08-15T04:33:14.353Z,3,GR86-022-13,-62.7,0.11,-1.225,38.67,3.0,6264.0,0.0,0.0,
2025-08-15T04:33:14.399Z,3,GR86-022-13,-60.900000000000006,0.14,-1.219,38.33,3.0,,0.0,0.0,133.01
2025-08-15T04:33:14.441Z,3,GR86-022-13,-57.400000000000006,0.104,-1.199,38.21,3.0,,0.0,0.0,
2025-08-15T04:33:14.528Z,3,GR86-022-13,-50.6,0.059,-1.158,37.78,3.0,,0.0,0.0,
2025-08-15T04:33:14.570Z,3,GR86-022-13,-48.2,0.068,-1.144,37.65,3.0,6320.0,0.0,0.0,
2025-08-15T04:33:14.613Z,3,GR86-022-13,-43.1,0.032,-1.137,37.66,3.0,,0.0,0.0,133.86
2025-08-15T04:33:14.657Z,3,GR86-022-13,-28.6,0.041,-1.169,38.29,3.0,,0.0,0.0,
2025-08-15T04:33:14.699Z,3,GR86-022-13,-18.7,0.008,-1.304,43.21,3.0,,0.0,0.0,
2025-08-15T04:33:14.742Z,3,GR86-022-13,-14.7,0.287,-1.187,63.45,3.0,,0.0,0.0,
2025-08-15T04:33:14.785Z,3,GR86-022-13,-16.7,0.188,-1.248,89.98,3.0,6363.0,0.0,0.0,
2025-08-15T04:33:14.828Z,3,GR86-022-13,-21.6,0.118,-1.085,100.24,3.0,,0.0,0.0,135.14
2025-08-15T04:33:14.871Z,3,GR86-022-13,-25.5,0.155,-0.991,99.14,3.0,,0.0,0.0,
2025-08-15T04:33:14.914Z,3,GR86-022-13,-28.5,0.248,-1.054,72.37,3.0,,0.0,0.0,
2025-08-15T04:33:14.959Z,3,GR86-022-13,-37.1,0.343,-1.332,80.45,3.0,,0.0,0.0,
2025-08-15T04:33:15.001Z,3,GR86-022-13,-43.3,0.369,-1.28,99.75,3.0,6521.0,0.0,0.0,
2025-08-15T04:33:15.044Z,3,GR86-022-13,-43.5,0.224,-1.424,100.33,3.0,,0.0,0.0,135.24
2025-08-15T04:33:15.088Z,3,GR86-022-13,-33.800000000000004,0.178,-1.455,100.32,3.0,,0.0,0.0,
2025-08-15T04:33:15.131Z,3,GR86-022-13,-18.3,0.159,-1.305,100.32,3.0,,0.0,0.0,
2025-08-15T04:33:15.174Z,3,GR86-022-13,-9.2,0.229,-1.224,100.31,3.0,,0.0,0.0,
2025-08-15T04:33:15.218Z,3,GR86-022-13,-24.700000000000003,0.276,-1.236,100.35,3.0,6778.0,0.0,0.0,
2025-08-15T04:33:15.261Z,3,GR86-022-13,-46.1,0.221,-1.156,100.32,3.0,,0.0,0.0,135.71
2025-08-15T04:33:15.304Z,3,GR86-022-13,-62.400000000000006,0.171,-1.166,100.31,3.0,,0.0,0.0,
2025-08-15T04:33:15.348Z,3,GR86-022-13,-64.9,0.155,-1.256,100.29,3.0,,0.0,0.0,
2025-08-15T04:33:15.391Z,3,GR86-022-13,-60.2,0.146,-1.292,100.28,3.0,,0.0,0.0,
2025-08-15T04:33:15.434Z,3,GR86-022-13,-57.2,0.193,-1.287,100.28,3.0,6518.0,0.0,0.0,
2025-08-15T04:33:15.478Z,3,GR86-022-13,-57.7,0.229,-1.302,100.26,3.0,,0.0,0.0,135.75
2025-08-15T04:33:15.521Z,3,GR86-022-13,-56.900000000000006,0.182,-1.261,100.28,3.0,,0.0,0.0,
2025-08-15T04:33:15.564Z,3,GR86-022-13,-55.6,0.202,-1.212,100.21,3.0,,0.0,0.0,
2025-08-15T04:33:15.608Z,3,GR86-022-13,-54.6,0.21,-1.155,100.21,3.0,,0.0,0.0,
2025-08-15T04:33:15.650Z,3,GR86-022-13,-53.1,0.168,-1.16,100.14,3.0,6528.0,0.0,0.0,
2025-08-15T04:33:15.693Z,3,GR86-022-13,-50.5,0.165,-1.088,100.12,3.0,,0.0,0.0,136.51
2025-08-15T04:33:15.737Z,3,GR86-022-13,-45.3,0.146,-1.164,100.12,3.0,,0.0,0.0,
2025-08-15T04:33:15.779Z,3,GR86-022-13,-44.7,0.193,-1.2,100.05,3.0,,0.0,0.0,
2025-08-15T04:33:15.822Z,3,GR86-022-13,-45.0,0.253,-1.185,100.09,3.0,,0.0,0.0,
2025-08-15T04:33:15.865Z,3,GR86-022-13,-45.0,0.198,-1.173,100.05,3.0,6576.0,0.0,0.0,
2025-08-15T04:33:15.908Z,3,GR86-022-13,-43.8,0.155,-1.144,100.03,3.0,,0.0,0.0,136.27
2025-08-15T04:33:15.951Z,3,GR86-022-13,-43.400000000000006,0.162,-1.192,100.04,3.0,,0.0,0.0,
2025-08-15T04:33:15.994Z,3,GR86-022-13,-43.8,0.216,-1.199,100.04,3.0,,0.0,0.0,
2025-08-15T04:33:16.038Z,3,GR86-022-13,-45.3,0.212,-1.218,100.04,3.0,,0.0,0.0,
2025-08-15T04:33:16.081Z,3,GR86-022-13,-45.7,0.202,-1.233,100.03,3.0,6527.0,0.0,0.0,
2025-08-15T04:33:16.124Z,3,GR86-022-13,-45.8,0.189,-1.2,100.02,3.0,,0.0,0.0,137.76
2025-08-15T04:33:16.168Z,3,GR86-022-13,-45.8,0.176,-1.174,100.04,3.0,,0.0,0.0,
2025-08-15T04:33:16.211Z,3,GR86-022-13,-45.8,0.191,-1.202,99.98,3.0,,0.0,0.0,
2025-08-15T04:33:16.253Z,3,GR86-022-13,-45.400000000000006,0.189,-1.211,100.0,3.0,,0.0,0.0,
2025-08-15T04:33:16.297Z,3,GR86-022-13,-43.8,0.2,-1.173,99.98,3.0,6597.0,0.0,0.0,
2025-08-15T04:33:16.339Z,3,GR86-022-13,-42.6,0.183,-1.111,100.02,3.0,,0.0,0.0,138.79
2025-08-15T04:33:16.382Z,3,GR86-022-13,-42.0,0.139,-0.81,99.98,3.0,,0.0,0.0,
2025-08-15T04:33:16.425Z,3,GR86-022-13,-41.400000000000006,0.159,-0.538,99.98,3.0,,0.0,0.0,
2025-08-15T04:33:16.468Z,3,GR86-022-13,-39.3,0.074,-0.6910000000000001,100.0,3.0,,0.0,0.0,
2025-08-15T04:33:16.511Z,3,GR86-022-13,-37.4,0.113,-0.748,100.0,3.0,6643.0,0.0,0.0,
2025-08-15T04:33:16.554Z,3,GR86-022-13,-35.0,0.206,-0.681,99.99,3.0,,0.0,0.0,139.36
2025-08-15T04:33:16.598Z,3,GR86-022-13,-33.4,0.322,-0.986,100.0,3.0,,0.0,0.0,
2025-08-15T04:33:16.641Z,3,GR86-022-13,-33.6,0.28,-0.754,99.98,3.0,,0.0,0.0,
2025-08-15T04:33:16.684Z,3,GR86-022-13,-34.0,0.117,-1.226,99.99,3.0,,0.0,0.0,
2025-08-15T04:33:16.728Z,3,GR86-022-13,-35.6,0.187,-1.258,99.99,3.0,6685.0,0.0,0.0,
2025-08-15T04:33:16.771Z,3,GR86-022-13,-38.400000000000006,0.208,-1.315,100.0,3.0,,0.0,0.0,139.97
2025-08-15T04:33:16.814Z,3,GR86-022-13,-42.3,0.251,-1.131,100.03,3.0,,0.0,0.0,
2025-08-15T04:33:16.858Z,3,GR86-022-13,-47.1,0.128,-1.277,100.0,3.0,,0.0,0.0,
2025-08-15T04:33:16.901Z,3,GR86-022-13,-49.7,0.317,-1.597,99.99,3.0,,0.0,0.0,
2025-08-15T04:33:16.944Z,3,GR86-022-13,-51.6,0.396,-1.42,100.01,3.0,6822.0,0.0,0.0,
2025-08-15T04:33:16.988Z,3,GR86-022-13,-51.900000000000006,0.212,-1.283,99.95,3.0,,0.0,0.0,141.44
2025-08-15T04:33:17.030Z,3,GR86-022-13,-51.3,0.077,-1.144,99.97,3.0,,0.0,0.0,
2025-08-15T04:33:17.073Z,3,GR86-022-13,-51.2,0.034,-0.96,99.98,3.0,,0.0,0.0,
2025-08-15T04:33:17.117Z,3,GR86-022-13,-51.1,0.207,-0.88,100.01,3.0,,0.0,0.0,
2025-08-15T04:33:17.159Z,3,GR86-022-13,-51.1,0.244,-1.04,100.01,3.0,6972.0,0.0,0.0,
2025-08-15T04:33:17.202Z,3,GR86-022-13,-51.1,0.299,-0.939,99.99,3.0,,0.0,0.0,142.85
2025-08-15T04:33:17.245Z,3,GR86-022-13,-51.1,0.226,-0.989,99.99,3.0,,0.0,0.0,
2025-08-15T04:33:17.288Z,3,GR86-022-13,-51.3,0.119,-1.032,99.98,3.0,,0.0,0.0,
2025-08-15T04:33:17.331Z,3,GR86-022-13,-51.5,0.101,-1.171,99.97,3.0,,0.0,0.0,
2025-08-15T04:33:17.374Z,3,GR86-022-13,-51.5,0.249,-1.268,100.02,3.0,6897.0,0.0,0.0,
2025-08-15T04:33:17.418Z,3,GR86-022-13,-47.7,0.254,-1.249,99.98,3.0,,0.0,0.0,142.83
2025-08-15T04:33:17.461Z,3,GR86-022-13,-42.900000000000006,0.154,-1.225,99.97,3.0,,0.0,0.0,
2025-08-15T04:33:17.504Z,3,GR86-022-13,-37.5,0.194,-1.058,100.03,3.0,,0.0,0.0,
2025-08-15T04:33:17.548Z,3,GR86-022-13,-30.5,0.174,-1.176,99.99,3.0,,0.0,0.0,
2025-08-15T04:33:17.591Z,3,GR86-022-13,-22.9,0.214,-1.052,100.0,3.0,6782.0,0.0,0.0,
2025-08-15T04:33:17.634Z,3,GR86-022-13,-17.400000000000002,0.203,-0.8280000000000001,100.01,3.0,,0.0,0.0,142.96
2025-08-15T04:33:17.678Z,3,GR86-022-13,-15.3,0.159,-0.805,99.98,3.0,,0.0,0.0,
2025-08-15T04:33:17.721Z,3,GR86-022-13,-21.4,0.199,-0.725,100.0,3.0,,0.0,0.0,
2025-08-15T04:33:17.764Z,3,GR86-022-13,-30.3,0.248,-0.855,100.03,3.0,,0.0,0.0,
2025-08-15T04:33:17.808Z,3,GR86-022-13,-35.800000000000004,0.17,-0.901,100.01,3.0,6811.0,0.0,0.0,
2025-08-15T04:33:17.851Z,3,GR86-022-13,-35.4,0.239,-0.943,99.99,3.0,,0.0,0.0,144.66
2025-08-15T04:33:17.894Z,3,GR86-022-13,-33.4,0.306,-0.905,100.03,3.0,,0.0,0.0,
2025-08-15T04:33:17.938Z,3,GR86-022-13,-33.2,0.223,-0.883,99.98,3.0,,0.0,0.0,
2025-08-15T04:33:17.981Z,3,GR86-022-13,-33.2,0.184,-0.992,100.0,3.0,,0.0,0.0,
2025-08-15T04:33:18.024Z,3,GR86-022-13,-31.200000000000003,0.2,-0.868,99.98,3.0,6907.0,0.0,0.0,
2025-08-15T04:33:18.068Z,3,GR86-022-13,-26.6,0.214,-0.733,100.0,3.0,,0.0,0.0,145.91
2025-08-15T04:33:18.110Z,3,GR86-022-13,-21.700000000000003,0.213,-0.46,99.98,3.0,,0.0,0.0,
2025-08-15T04:33:18.153Z,3,GR86-022-13,-17.6,0.174,-0.254,99.98,3.0,,0.0,0.0,
2025-08-15T04:33:18.197Z,3,GR86-022-13,-10.3,0.025,-0.472,99.98,3.0,,0.0,0.0,
2025-08-15T04:33:18.241Z,3,GR86-022-13,-3.0,0.315,-0.436,99.99,3.0,7014.0,0.0,0.0,
2025-08-15T04:33:18.284Z,3,GR86-022-13,5.800000000000001,0.255,-0.413,99.98,3.0,,0.0,0.0,148.34
2025-08-15T04:33:18.328Z,3,GR86-022-13,12.7,0.283,-0.38,100.02,3.0,,0.0,0.0,
2025-08-15T04:33:18.370Z,3,GR86-022-13,14.4,0.288,-0.37,100.0,3.0,,0.0,0.0,
2025-08-15T04:33:18.413Z,3,GR86-022-13,11.0,0.183,-0.202,100.01,3.0,,0.0,0.0,
2025-08-15T04:33:18.457Z,3,GR86-022-13,5.5,-0.029,0.108,100.02,3.0,6992.0,0.0,0.0,
2025-08-15T04:33:18.499Z,3,GR86-022-13,5.9,0.109,0.063,100.0,3.0,,0.0,0.0,148.65
2025-08-15T04:33:18.544Z,3,GR86-022-13,8.8,0.321,0.129,100.03,3.0,,0.0,0.0,
2025-08-15T04:33:18.587Z,3,GR86-022-13,8.1,0.218,0.045,100.0,3.0,,0.0,0.0,
2025-08-15T04:33:18.629Z,3,GR86-022-13,2.6,-0.005,0.222,99.99,3.0,,0.0,0.0,
2025-08-15T04:33:18.673Z,3,GR86-022-13,-3.0,-0.006,0.39,100.02,3.0,7292.0,0.0,0.0,
2025-08-15T04:33:18.717Z,3,GR86-022-13,-1.0,0.183,0.353,100.03,3.0,,0.0,0.0,151.17000000000002
2025-08-15T04:33:18.759Z,3,GR86-022-13,5.800000000000001,0.251,0.481,100.01,3.0,,0.0,0.0,
2025-08-15T04:33:18.802Z,3,GR86-022-13,12.3,0.242,0.443,99.98,3.0,,0.0,0.0,
2025-08-15T04:33:18.845Z,3,GR86-022-13,19.0,0.155,0.353,100.01,4.0,,0.0,0.0,
2025-08-15T04:33:18.888Z,3,GR86-022-13,22.3,0.074,0.6,99.97,4.0,7288.0,0.0,0.0,
2025-08-15T04:33:18.932Z,3,GR86-022-13,21.8,0.547,0.5,99.98,4.0,,0.0,0.0,151.9
2025-08-15T04:33:18.974Z,3,GR86-022-13,20.700000000000003,0.292,0.44,99.99,4.0,,0.0,0.0,
2025-08-15T04:33:19.018Z,3,GR86-022-13,15.6,0.049,0.541,100.0,4.0,,0.0,0.0,
2025-08-15T04:33:19.061Z,3,GR86-022-13,12.9,0.147,0.355,100.01,4.0,,0.0,0.0,
2025-08-15T04:33:19.104Z,3,GR86-022-13,13.1,0.276,0.412,100.01,4.0,6868.0,0.0,0.0,
2025-08-15T04:33:19.148Z,3,GR86-022-13,15.2,0.2,0.535,99.98,4.0,,0.0,0.0,152.36
2025-08-15T04:33:19.190Z,3,GR86-022-13,16.900000000000002,0.147,0.43,99.99,4.0,,0.0,0.0,
2025-08-15T04:33:19.233Z,3,GR86-022-13,16.2,0.136,0.479,99.98,4.0,,0.0,0.0,
2025-08-15T04:33:19.279Z,3,GR86-022-13,14.9,0.211,0.427,99.99,4.0,,0.0,0.0,
2025-08-15T04:33:19.321Z,3,GR86-022-13,14.3,0.171,0.413,100.03,4.0,6130.0,0.0,0.0,
2025-08-15T04:33:19.364Z,3,GR86-022-13,14.3,0.14,0.418,100.02,4.0,,0.0,0.0,154.04
2025-08-15T04:33:19.408Z,3,GR86-022-13,14.3,0.165,0.423,99.99,4.0,,0.0,0.0,
2025-08-15T04:33:19.450Z,3,GR86-022-13,14.3,0.159,0.419,99.99,4.0,,0.0,0.0,
2025-08-15T04:33:19.493Z,3,GR86-022-13,13.2,0.193,0.414,100.0,4.0,,0.0,0.0,
2025-08-15T04:33:19.537Z,3,GR86-022-13,10.3,0.151,0.396,100.0,4.0,6137.0,0.0,0.0,
2025-08-15T04:33:19.581Z,3,GR86-022-13,9.1,0.179,0.356,100.02,4.0,,0.0,0.0,155.36
2025-08-15T04:33:19.624Z,3,GR86-022-13,9.0,0.174,0.326,100.02,4.0,,0.0,0.0,
2025-08-15T04:33:19.668Z,3,GR86-022-13,10.4,0.201,0.329,99.99,4.0,,0.0,0.0,
2025-08-15T04:33:19.711Z,3,GR86-022-13,10.9,0.192,0.328,100.0,4.0,,0.0,0.0,
2025-08-15T04:33:19.753Z,3,GR86-022-13,10.7,0.195,0.312,100.0,4.0,6178.0,0.0,0.0,
2025-08-15T04:33:19.799Z,3,GR86-022-13,10.2,0.207,0.302,99.98,4.0,,0.0,0.0,156.62
2025-08-15T04:33:19.841Z,3,GR86-022-13,9.4,0.2,0.279,100.0,4.0,,0.0,0.0,
2025-08-15T04:33:19.884Z,3,GR86-022-13,8.5,0.19,0.265,100.01,4.0,,0.0,0.0,
2025-08-15T04:33:19.928Z,3,GR86-022-13,7.800000000000001,0.182,0.267,99.99,4.0,,0.0,0.0,
2025-08-15T04:33:19.970Z,3,GR86-022-13,7.5,0.171,0.278,100.01,4.0,6237.0,0.0,0.0,
2025-08-15T04:33:20.013Z,3,GR86-022-13,7.5,0.138,0.267,100.02,4.0,,0.0,0.0,157.97
2025-08-15T04:33:20.057Z,3,GR86-022-13,7.5,0.182,0.237,100.0,4.0,,0.0,0.0,
2025-08-15T04:33:20.099Z,3,GR86-022-13,7.2,0.175,0.233,100.0,4.0,,0.0,0.0,
2025-08-15T04:33:20.142Z,3,GR86-022-13,6.7,0.155,0.211,100.0,4.0,,0.0,0.0,
2025-08-15T04:33:20.185Z,3,GR86-022-13,5.800000000000001,0.174,0.207,99.99,4.0,6288.0,0.0,0.0,
2025-08-15T04:33:20.228Z,3,GR86-022-13,4.9,0.16,0.181,100.03,4.0,,0.0,0.0,159.49
2025-08-15T04:33:20.271Z,3,GR86-022-13,3.7,0.19,0.168,100.01,4.0,,0.0,0.0,
2025-08-15T04:33:20.314Z,3,GR86-022-13,3.2,0.173,0.175,100.01,4.0,,0.0,0.0,
2025-08-15T04:33:20.359Z,3,GR86-022-13,3.2,0.156,0.13,100.01,4.0,,0.0,0.0,
2025-08-15T04:33:20.401Z,3,GR86-022-13,3.2,0.16,0.113,100.0,4.0,6342.0,0.0,0.0,
2025-08-15T04:33:20.444Z,3,GR86-022-13,3.2,0.162,0.086,99.98,4.0,,0.0,0.0,161.09
2025-08-15T04:33:20.488Z,3,GR86-022-13,2.9000000000000004,0.167,0.064,100.02,4.0,,0.0,0.0,
2025-08-15T04:33:20.531Z,3,GR86-022-13,2.8000000000000003,0.211,0.057,99.99,4.0,,0.0,0.0,
2025-08-15T04:33:20.575Z,3,GR86-022-13,2.2,0.186,0.052,100.01,4.0,,0.0,0.0,
2025-08-15T04:33:20.618Z,3,GR86-022-13,1.2000000000000002,0.14,0.018,99.98,4.0,6395.0,0.0,0.0,
2025-08-15T04:33:20.661Z,3,GR86-022-13,1.1,0.168,0.027,100.01,4.0,,0.0,0.0,162.63
2025-08-15T04:33:20.704Z,3,GR86-022-13,1.1,0.193,0.012,100.0,4.0,,0.0,0.0,
2025-08-15T04:33:20.748Z,3,GR86-022-13,0.9,0.206,0.025,99.99,4.0,,0.0,0.0,
2025-08-15T04:33:20.791Z,3,GR86-022-13,0.3,0.188,0.005,99.99,4.0,,0.0,0.0,
2025-08-15T04:33:20.834Z,3,GR86-022-13,-0.9,0.19,-0.006,100.01,4.0,6462.0,0.0,0.0,
2025-08-15T04:33:20.878Z,3,GR86-022-13,-2.7,0.182,-0.054,100.0,4.0,,0.0,0.0,165.71
2025-08-15T04:33:20.921Z,3,GR86-022-13,-3.4000000000000004,0.16,-0.058,100.01,4.0,,0.0,0.0,
2025-08-15T04:33:20.964Z,3,GR86-022-13,-3.7,0.168,-0.067,99.99,4.0,,0.0,0.0,
2025-08-15T04:33:21.008Z,3,GR86-022-13,-3.8,0.178,-0.126,100.02,4.0,,0.0,0.0,
2025-08-15T04:33:21.050Z,3,GR86-022-13,-3.8,0.206,-0.142,100.0,4.0,6541.0,7.05,7.265000000000001,
2025-08-15T04:33:21.093Z,3,GR86-022-13,-3.8,0.163,-0.148,99.97,4.0,,3.785,4.275,167.48
2025-08-15T04:33:21.137Z,3,GR86-022-13,-3.8,0.142,-0.157,99.98,4.0,,2.275,2.795,
2025-08-15T04:33:21.179Z,3,GR86-022-13,-3.4000000000000004,0.153,-0.197,100.02,4.0,,7.555,7.92,
2025-08-15T04:33:21.222Z,3,GR86-022-13,-2.9000000000000004,0.088,-0.174,99.98,4.0,,6.0600000000000005,6.485,
2025-08-15T04:33:21.265Z,3,GR86-022-13,-2.7,0.107,-0.169,99.98,4.0,6587.0,5.905,6.3,
2025-08-15T04:33:21.308Z,3,GR86-022-13,-2.6,0.073,-0.143,99.98,4.0,,8.27,8.605,168.97
2025-08-15T04:33:21.351Z,3,GR86-022-13,-2.6,0.049,-0.113,100.01,4.0,,8.94,9.4,
2025-08-15T04:33:21.394Z,3,GR86-022-13,-2.6,0.061,-0.107,99.99,4.0,,10.27,10.745,
2025-08-15T04:33:21.438Z,3,GR86-022-13,-2.7,-0.082,-0.062,100.0,4.0,,12.145,12.805,
2025-08-15T04:33:21.481Z,3,GR86-022-13,-3.7,-0.019,-0.093,99.99,4.0,6685.0,6.18,6.775,
2025-08-15T04:33:21.524Z,3,GR86-022-13,-5.5,0.114,-0.094,100.02,4.0,,0.0,0.0,170.34
2025-08-15T04:33:21.568Z,3,GR86-022-13,-7.800000000000001,0.177,-0.14,99.99,4.0,,0.0,0.0,
2025-08-15T04:33:21.611Z,3,GR86-022-13,-9.5,0.193,-0.163,99.99,4.0,,0.0,0.0,
2025-08-15T04:33:21.653Z,3,GR86-022-13,-10.0,0.185,-0.23,99.98,4.0,,0.0,0.0,
2025-08-15T04:33:21.697Z,3,GR86-022-13,-10.4,0.141,-0.28,100.0,4.0,6693.0,0.0,0.0,
2025-08-15T04:33:21.739Z,3,GR86-022-13,-11.7,0.152,-0.329,100.02,4.0,,0.0,0.0,170.96
2025-08-15T04:33:21.782Z,3,GR86-022-13,-13.2,0.14,-0.369,100.01,4.0,,0.0,0.0,
2025-08-15T04:33:21.827Z,3,GR86-022-13,-13.7,0.146,-0.353,100.0,4.0,,0.0,0.0,
2025-08-15T04:33:21.869Z,3,GR86-022-13,-13.7,0.138,-0.393,99.99,4.0,,0.0,0.0,
2025-08-15T04:33:21.912Z,3,GR86-022-13,-13.2,0.154,-0.413,100.0,4.0,6742.0,0.0,0.0,
2025-08-15T04:33:21.955Z,3,GR86-022-13,-12.7,0.164,-0.444,99.99,4.0,,0.0,0.0,171.83
2025-08-15T04:33:21.998Z,3,GR86-022-13,-11.0,0.152,-0.481,99.98,4.0,,0.0,0.0,
2025-08-15T04:33:22.041Z,3,GR86-022-13,-10.1,0.134,-0.464,99.98,4.0,,0.0,0.0,
2025-08-15T04:33:22.084Z,3,GR86-022-13,-10.1,0.143,-0.476,100.01,4.0,,0.0,0.0,
2025-08-15T04:33:22.128Z,3,GR86-022-13,-10.7,0.133,-0.446,100.02,4.0,6809.0,0.0,0.0,
2025-08-15T04:33:22.171Z,3,GR86-022-13,-11.4,0.137,-0.41,99.99,4.0,,0.0,0.0,173.13
2025-08-15T04:33:22.258Z,3,GR86-022-13,-13.2,0.171,-0.423,100.02,4.0,,0.0,0.0,
2025-08-15T04:33:22.301Z,3,GR86-022-13,-13.2,0.178,-0.411,100.0,4.0,,0.0,0.0,
2025-08-15T04:33:22.388Z,3,GR86-022-13,-10.8,0.175,-0.397,100.03,4.0,,0.0,0.0,174.5
2025-08-15T04:33:22.473Z,3,GR86-022-13,-9.3,0.159,-0.376,100.01,4.0,6871.0,0.0,0.0,
2025-08-15T04:33:22.517Z,3,GR86-022-13,-9.5,0.168,-0.406,99.99,4.0,,0.0,0.0,
2025-08-15T04:33:22.602Z,3,GR86-022-13,-10.3,0.176,-0.394,99.97,4.0,,0.0,0.0,175.86
2025-08-15T04:33:22.688Z,3,GR86-022-13,-8.9,0.181,-0.369,99.98,4.0,6910.0,0.0,0.0,
2025-08-15T04:33:22.731Z,3,GR86-022-13,-6.4,0.16,-0.321,99.99,4.0,,3.22,3.035,
2025-08-15T04:33:22.775Z,3,GR86-022-13,-6.4,0.124,-0.289,100.0,4.0,6965.0,8.18,8.3,
2025-08-15T04:33:23.121Z,3,GR86-022-13,-8.3,-0.745,-0.242,2.63,4.0,,33.910000000000004,34.09,
2025-08-15T04:33:23.294Z,3,GR86-022-13,-6.0,-0.8320000000000001,-0.163,2.66,4.0,7000.0,31.145,31.77,178.58
2025-08-15T04:33:23.338Z,3,GR86-022-13,-5.1000000000000005,-0.7000000000000001,-0.178,2.72,4.0,,54.205,54.205,
2025-08-15T04:33:23.381Z,3,GR86-022-13,1.1,-0.964,-0.081,32.71,4.0,,59.085,58.735,
2025-08-15T04:33:23.424Z,3,GR86-022-13,-0.8,-1.223,-0.033,55.98,3.0,6543.0,75.675,74.925,
2025-08-15T04:33:23.468Z,3,GR86-022-13,-3.9,-1.341,-0.017,6.7700000000000005,3.0,,84.42,83.795,174.22
2025-08-15T04:33:23.510Z,3,GR86-022-13,-7.5,-1.23,0.018,4.25,3.0,,88.555,90.05,
2025-08-15T04:33:23.553Z,3,GR86-022-13,-9.8,-1.386,-0.06,3.64,3.0,,84.71000000000001,85.655,
2025-08-15T04:33:23.597Z,3,GR86-022-13,-12.2,-1.186,-0.026,3.25,3.0,,75.125,76.27,
2025-08-15T04:33:23.641Z,3,GR86-022-13,-15.0,-1.21,-0.098,3.12,3.0,6403.0,74.865,75.55,
2025-08-15T04:33:23.684Z,3,GR86-022-13,-16.8,-1.102,-0.202,3.0,3.0,,72.895,72.395,164.56
2025-08-15T04:33:23.728Z,3,GR86-022-13,-17.6,-1.249,-0.107,2.92,3.0,,74.12,74.315,
2025-08-15T04:33:23.770Z,3,GR86-022-13,-17.400000000000002,-1.175,-0.276,2.82,3.0,,73.17,74.5,
2025-08-15T04:33:23.813Z,3,GR86-022-13,-15.3,-1.105,-0.415,2.71,3.0,,66.33500000000001,67.175,
2025-08-15T04:33:23.857Z,3,GR86-022-13,-5.2,-0.986,-0.34,2.61,3.0,6464.0,54.95,56.28,
2025-08-15T04:33:23.899Z,3,GR86-022-13,1.6,-0.963,-0.446,2.6,3.0,,51.595,52.74,155.19
2025-08-15T04:33:23.943Z,3,GR86-022-13,0.2,-1.083,-0.384,2.56,3.0,,51.84,52.525,
2025-08-15T04:33:23.987Z,3,GR86-022-13,-6.1000000000000005,-1.088,-0.403,2.5500000000000003,3.0,,51.120000000000005,51.215,
2025-08-15T04:33:24.029Z,3,GR86-022-13,-8.5,-0.972,-0.577,2.54,3.0,,51.81,51.93,
2025-08-15T04:33:24.072Z,3,GR86-022-13,-5.0,-0.913,-0.5630000000000001,2.52,3.0,6578.0,51.655,52.115,
2025-08-15T04:33:24.115Z,3,GR86-022-13,-0.1,-0.862,-0.508,2.52,3.0,,52.74,53.745000000000005,146.17000000000002
2025-08-15T04:33:24.158Z,3,GR86-022-13,2.9000000000000004,-0.892,-0.5740000000000001,48.86,3.0,,55.67,56.185,
2025-08-15T04:33:24.201Z,3,GR86-022-13,0.6000000000000001,-1.013,-0.455,95.13,3.0,,51.685,51.775,
2025-08-15T04:33:24.244Z,3,GR86-022-13,-0.5,-0.983,-0.424,93.14,2.0,,50.815,51.715,
2025-08-15T04:33:24.288Z,3,GR86-022-13,1.2000000000000002,-1.153,-0.433,25.21,2.0,6106.0,48.8,49.23,
2025-08-15T04:33:24.330Z,3,GR86-022-13,-0.8,-0.976,-0.186,3.1,2.0,,49.425,50.495000000000005,141.21
2025-08-15T04:33:24.373Z,3,GR86-022-13,-11.3,-0.997,-0.41,2.6,2.0,,50.845,51.245000000000005,
2025-08-15T04:33:24.417Z,3,GR86-022-13,-28.1,-1.136,-0.517,2.48,2.0,,48.145,48.620000000000005,
2025-08-15T04:33:24.459Z,3,GR86-022-13,-32.5,-0.875,-0.519,2.45,2.0,,49.52,50.31,
2025-08-15T04:33:24.502Z,3,GR86-022-13,-33.4,-0.879,-0.6890000000000001,2.47,2.0,6286.0,49.49,49.795,
2025-08-15T04:33:24.545Z,3,GR86-022-13,-33.7,-0.907,-0.738,2.46,2.0,,48.620000000000005,48.620000000000005,134.42000000000002
2025-08-15T04:33:24.588Z,3,GR86-022-13,-35.9,-0.941,-0.678,2.45,2.0,,48.36,48.45,
2025-08-15T04:33:24.631Z,3,GR86-022-13,-36.6,-0.791,-0.772,2.46,2.0,,42.33,43.08,
2025-08-15T04:33:24.674Z,3,GR86-022-13,-36.6,-0.778,-0.843,2.46,2.0,,36.485,37.42,
2025-08-15T04:33:24.718Z,3,GR86-022-13,-37.7,-0.671,-0.94,2.47,2.0,6929.0,32.335,33.13,
2025-08-15T04:33:24.761Z,3,GR86-022-13,-39.900000000000006,-0.687,-0.9,2.46,2.0,,31.45,31.985,126.98
2025-08-15T04:33:24.804Z,3,GR86-022-13,-40.400000000000006,-0.706,-0.938,2.47,2.0,,31.77,32.14,
2025-08-15T04:33:24.848Z,3,GR86-022-13,-40.400000000000006,-0.638,-0.999,2.46,2.0,,31.955,32.38,
2025-08-15T04:33:24.890Z,3,GR86-022-13,-35.1,-0.596,-1.051,2.46,2.0,,29.145,29.68,
2025-08-15T04:33:24.933Z,3,GR86-022-13,-25.4,-0.525,-1.096,2.46,2.0,6588.0,23.835,24.585,
2025-08-15T04:33:24.978Z,3,GR86-022-13,-18.4,-0.5710000000000001,-0.984,2.47,2.0,,18.36,18.83,121.67
2025-08-15T04:33:25.021Z,3,GR86-022-13,-19.9,-0.53,-1.028,2.48,2.0,,18.145,18.83,
2025-08-15T04:33:25.064Z,3,GR86-022-13,-25.4,-0.439,-1.031,2.47,2.0,,15.81,16.345,
2025-08-15T04:33:25.108Z,3,GR86-022-13,-29.200000000000003,-0.369,-1.121,2.47,2.0,,11.615,12.055,
2025-08-15T04:33:25.150Z,3,GR86-022-13,-34.5,-0.329,-1.12,2.48,2.0,6287.0,8.575000000000001,9.005,
2025-08-15T04:33:25.193Z,3,GR86-022-13,-41.2,-0.289,-1.163,2.48,2.0,,6.545,6.93,117.56
2025-08-15T04:33:25.237Z,3,GR86-022-13,-46.7,-0.26,-1.19,2.48,2.0,,2.215,2.58,
2025-08-15T04:33:25.279Z,3,GR86-022-13,-48.400000000000006,-0.214,-1.237,2.48,2.0,,0.0,0.0,
2025-08-15T04:33:25.322Z,3,GR86-022-13,-51.5,-0.163,-1.234,2.48,2.0,,0.0,0.0,
2025-08-15T04:33:25.365Z,3,GR86-022-13,-58.400000000000006,-0.165,-1.237,2.47,2.0,6165.0,0.0,0.0,
2025-08-15T04:33:25.408Z,3,GR86-022-13,-63.0,-0.163,-1.244,2.48,2.0,,0.0,0.0,113.83
2025-08-15T04:33:25.451Z,3,GR86-022-13,-66.10000000000001,-0.181,-1.252,2.48,2.0,,0.0,0.0,
2025-08-15T04:33:25.494Z,3,GR86-022-13,-65.7,-0.176,-1.236,2.48,2.0,,0.0,0.0,
2025-08-15T04:33:25.538Z,3,GR86-022-13,-61.6,-0.163,-1.235,2.48,2.0,,0.0,0.0,
2025-08-15T04:33:25.581Z,3,GR86-022-13,-60.400000000000006,-0.177,-1.279,2.47,2.0,6060.0,0.0,0.0,
2025-08-15T04:33:25.624Z,3,GR86-022-13,-60.6,-0.167,-1.273,2.49,2.0,,0.0,0.0,110.82
2025-08-15T04:33:25.668Z,3,GR86-022-13,-60.7,-0.16,-1.236,2.47,2.0,,0.0,0.0,
2025-08-15T04:33:25.710Z,3,GR86-022-13,-60.900000000000006,-0.187,-1.336,3.42,2.0,,0.0,0.0,
2025-08-15T04:33:25.753Z,3,GR86-022-13,-60.900000000000006,-0.157,-1.297,4.59,2.0,,0.0,0.0,
2025-08-15T04:33:25.799Z,3,GR86-022-13,-60.400000000000006,-0.146,-1.365,26.93,2.0,6025.0,0.0,0.0,
2025-08-15T04:33:25.841Z,3,GR86-022-13,-60.5,-0.17,-1.348,28.76,2.0,,0.0,0.0,109.08
2025-08-15T04:33:25.884Z,3,GR86-022-13,-61.1,-0.095,-1.348,32.11,2.0,,0.0,0.0,
2025-08-15T04:33:25.928Z,3,GR86-022-13,-61.7,-0.074,-1.334,32.980000000000004,2.0,,0.0,0.0,
2025-08-15T04:33:25.970Z,3,GR86-022-13,-61.8,-0.062,-1.308,33.79,2.0,,0.0,0.0,
2025-08-15T04:33:26.013Z,3,GR86-022-13,-61.8,0.206,-1.273,34.550000000000004,2.0,5932.0,0.0,0.0,
2025-08-15T04:33:26.057Z,3,GR86-022-13,-61.6,0.229,-1.201,36.89,2.0,,0.0,0.0,107.71
2025-08-15T04:33:26.099Z,3,GR86-022-13,-60.900000000000006,0.203,-1.311,39.08,2.0,,0.0,0.0,
2025-08-15T04:33:26.142Z,3,GR86-022-13,-59.7,0.167,-1.394,39.67,2.0,,0.0,0.0,
2025-08-15T04:33:26.185Z,3,GR86-022-13,-56.8,0.168,-1.4,46.8,2.0,,0.0,0.0,
2025-08-15T04:33:26.228Z,3,GR86-022-13,-54.8,0.201,-1.245,50.13,2.0,5906.0,0.0,0.0,
2025-08-15T04:33:26.271Z,3,GR86-022-13,-52.400000000000006,0.125,-1.099,53.73,2.0,,0.0,0.0,106.57
2025-08-15T04:33:26.314Z,3,GR86-022-13,-49.3,0.064,-1.023,56.01,2.0,,0.0,0.0,
2025-08-15T04:33:26.359Z,3,GR86-022-13,-44.3,0.353,-1.083,64.35,2.0,,0.0,0.0,
2025-08-15T04:33:26.401Z,3,GR86-022-13,-44.2,0.175,-1.042,69.67,2.0,,0.0,0.0,
2025-08-15T04:33:26.444Z,3,GR86-022-13,-43.8,0.033,-1.007,83.81,2.0,6152.0,0.0,0.0,
2025-08-15T04:33:26.488Z,3,GR86-022-13,-43.7,-0.04,-0.995,100.17,2.0,,0.0,0.0,105.34
2025-08-15T04:33:26.531Z,3,GR86-022-13,-41.8,0.254,-0.954,100.3,2.0,,0.0,0.0,
2025-08-15T04:33:26.574Z,3,GR86-022-13,-39.2,0.43,-1.004,100.28,2.0,,0.0,0.0,
2025-08-15T04:33:26.618Z,3,GR86-022-13,-37.9,-0.028,-0.999,100.3,2.0,,0.0,0.0,
2025-08-15T04:33:26.661Z,3,GR86-022-13,-39.6,0.002,-0.985,100.29,2.0,6276.0,0.0,0.0,
2025-08-15T04:33:26.704Z,3,GR86-022-13,-41.2,0.051,-1.199,100.3,2.0,,0.0,0.0,105.95
2025-08-15T04:33:26.747Z,3,GR86-022-13,-42.7,0.254,-1.079,100.3,2.0,,0.0,0.0,
2025-08-15T04:33:26.791Z,3,GR86-022-13,-45.3,0.391,-1.2,100.28,2.0,,0.0,0.0,
2025-08-15T04:33:26.878Z,3,GR86-022-13,-56.2,0.038,-1.043,100.28,2.0,6402.0,0.0,0.0,
2025-08-15T04:33:26.921Z,3,GR86-022-13,-54.8,0.288,-0.952,100.25,2.0,,0.0,0.0,106.97
2025-08-15T04:33:26.964Z,3,GR86-022-13,-49.6,0.434,-0.914,100.25,2.0,,0.0,0.0,
2025-08-15T04:33:27.008Z,3,GR86-022-13,-46.1,0.224,-0.8150000000000001,100.23,2.0,,0.0,0.0,
2025-08-15T04:33:27.050Z,3,GR86-022-13,-48.1,0.044,-0.779,100.22,2.0,,0.0,0.0,
2025-08-15T04:33:27.093Z,3,GR86-022-13,-53.2,0.147,-0.9,100.25,2.0,6471.0,0.0,0.0,
2025-08-15T04:33:27.137Z,3,GR86-022-13,-55.1,0.894,-1.107,100.18,2.0,,0.0,0.0,109.02
2025-08-15T04:33:27.179Z,3,GR86-022-13,-55.3,0.636,-1.087,100.15,2.0,,0.0,0.0,
2025-08-15T04:33:27.222Z,3,GR86-022-13,-56.0,0.22,-1.116,100.12,2.0,,0.0,0.0,
2025-08-15T04:33:27.267Z,3,GR86-022-13,-56.900000000000006,0.109,-1.199,100.08,2.0,,0.0,0.0,
2025-08-15T04:33:27.309Z,3,GR86-022-13,-58.400000000000006,0.143,-0.999,100.07,2.0,7012.0,0.0,0.0,
2025-08-15T04:33:27.397Z,3,GR86-022-13,-66.3,0.285,-1.183,100.06,2.0,,0.0,0.0,109.97
2025-08-15T04:33:27.441Z,3,GR86-022-13,-64.5,0.261,-1.135,100.05,2.0,,0.0,0.0,
2025-08-15T04:33:27.484Z,3,GR86-022-13,-63.6,0.215,-1.222,100.06,2.0,,0.0,0.0,
2025-08-15T04:33:27.528Z,3,GR86-022-13,-63.0,0.209,-1.283,100.05,2.0,6489.0,0.0,0.0,
2025-08-15T04:33:27.571Z,3,GR86-022-13,-62.5,0.253,-1.256,100.03,2.0,,0.0,0.0,111.53
2025-08-15T04:33:27.614Z,3,GR86-022-13,-61.3,0.296,-1.189,100.03,2.0,,0.0,0.0,
2025-08-15T04:33:27.658Z,3,GR86-022-13,-57.3,0.278,-1.192,100.0,2.0,,0.0,0.0,
2025-08-15T04:33:27.701Z,3,GR86-022-13,-56.3,0.217,-1.059,100.01,2.0,,0.0,0.0,
2025-08-15T04:33:27.744Z,3,GR86-022-13,-56.3,0.195,-1.103,100.03,2.0,6630.0,0.0,0.0,
2025-08-15T04:33:27.788Z,3,GR86-022-13,-56.3,0.245,-1.154,100.02,2.0,,0.0,0.0,112.7
2025-08-15T04:33:27.830Z,3,GR86-022-13,-55.8,0.238,-1.154,100.0,2.0,,0.0,0.0,
2025-08-15T04:33:27.917Z,3,GR86-022-13,-54.2,0.239,-1.138,100.01,2.0,,0.0,0.0,
2025-08-15T04:33:27.959Z,3,GR86-022-13,-53.8,0.232,-1.141,100.0,2.0,6693.0,0.0,0.0,
2025-08-15T04:33:28.002Z,3,GR86-022-13,-51.5,0.241,-1.115,99.98,2.0,,0.0,0.0,114.44
2025-08-15T04:33:28.045Z,3,GR86-022-13,-48.0,0.262,-1.16,100.0,2.0,,0.0,0.0,
2025-08-15T04:33:28.132Z,3,GR86-022-13,-41.8,0.21,-1.16,100.01,2.0,,0.0,0.0,
2025-08-15T04:33:28.175Z,3,GR86-022-13,-24.4,0.233,-1.137,100.01,2.0,6864.0,0.0,0.0,
2025-08-15T04:33:28.218Z,3,GR86-022-13,-18.3,0.306,-1.121,99.99,2.0,,0.0,0.0,115.31
2025-08-15T04:33:28.261Z,3,GR86-022-13,-20.9,0.333,-1.083,100.04,2.0,,0.0,0.0,
2025-08-15T04:33:28.304Z,3,GR86-022-13,-26.6,0.327,-1.147,100.02,2.0,,0.0,0.0,
2025-08-15T04:33:28.348Z,3,GR86-022-13,-30.5,0.296,-1.197,100.02,2.0,,0.0,0.0,
2025-08-15T04:33:28.391Z,3,GR86-022-13,-33.5,0.302,-1.161,100.02,2.0,6996.0,0.0,0.0,
2025-08-15T04:33:28.434Z,3,GR86-022-13,-36.0,0.286,-1.186,99.99,2.0,,0.0,0.0,116.49
2025-08-15T04:33:28.478Z,3,GR86-022-13,-42.1,0.244,-1.101,100.04,2.0,,0.0,0.0,
2025-08-15T04:33:28.521Z,3,GR86-022-13,-43.5,0.259,-1.176,100.0,2.0,,0.0,0.0,
2025-08-15T04:33:28.564Z,3,GR86-022-13,-40.7,0.289,-1.166,99.99,2.0,,0.0,0.0,
2025-08-15T04:33:28.608Z,3,GR86-022-13,-36.9,0.228,-1.177,100.02,2.0,7157.0,0.0,0.0,
2025-08-15T04:33:28.650Z,3,GR86-022-13,-35.0,0.252,-1.128,99.98,2.0,,0.0,0.0,117.77
2025-08-15T04:33:28.693Z,3,GR86-022-13,-36.6,0.27,-1.073,99.98,2.0,,0.0,0.0,
2025-08-15T04:33:28.737Z,3,GR86-022-13,-41.1,0.269,-0.611,100.01,2.0,,0.0,0.0,
2025-08-15T04:33:28.781Z,3,GR86-022-13,-43.3,0.252,-0.874,100.0,2.0,,0.0,0.0,
2025-08-15T04:33:28.824Z,3,GR86-022-13,-42.1,0.274,-0.847,100.02,2.0,7080.0,0.0,0.0,
2025-08-15T04:33:28.868Z,3,GR86-022-13,-39.1,0.234,-0.849,99.99,2.0,,0.0,0.0,118.34
2025-08-15T04:33:28.910Z,3,GR86-022-13,-36.4,0.264,-0.915,99.98,2.0,,0.0,0.0,
2025-08-15T04:33:28.953Z,3,GR86-022-13,-33.300000000000004,0.272,-0.987,99.99,2.0,,0.0,0.0,
2025-08-15T04:33:28.997Z,3,GR86-022-13,-26.0,0.283,-0.942,99.97,2.0,,0.0,0.0,
2025-08-15T04:33:29.041Z,3,GR86-022-13,-21.1,0.284,-0.758,99.99,2.0,7074.0,0.0,0.0,
2025-08-15T04:33:29.084Z,3,GR86-022-13,-17.0,0.224,-0.8310000000000001,99.97,2.0,,0.0,0.0,120.89
2025-08-15T04:33:29.128Z,3,GR86-022-13,-13.8,0.24,-0.658,100.02,2.0,,0.0,0.0,
2025-08-15T04:33:29.170Z,3,GR86-022-13,-11.4,0.24,-0.719,100.0,2.0,,0.0,0.0,
2025-08-15T04:33:29.213Z,3,GR86-022-13,-11.1,0.276,-0.72,99.99,2.0,,0.0,0.0,
2025-08-15T04:33:29.257Z,3,GR86-022-13,-12.5,0.258,-0.528,99.99,2.0,7136.0,0.0,0.0,
2025-08-15T04:33:29.299Z,3,GR86-022-13,-15.1,0.184,-0.497,99.99,2.0,,0.0,0.0,122.61
2025-08-15T04:33:29.342Z,3,GR86-022-13,-19.9,0.204,-0.479,100.01,2.0,,0.0,0.0,
2025-08-15T04:33:29.385Z,3,GR86-022-13,-25.200000000000003,0.242,-0.394,100.01,2.0,,0.0,0.0,
2025-08-15T04:33:29.428Z,3,GR86-022-13,-27.200000000000003,-0.01,-0.5640000000000001,100.02,3.0,,0.0,0.0,
2025-08-15T04:33:29.471Z,3,GR86-022-13,-24.200000000000003,0.131,-0.434,99.99,3.0,7160.0,0.0,0.0,
2025-08-15T04:33:29.514Z,3,GR86-022-13,-18.1,0.8280000000000001,-0.55,99.98,3.0,,0.0,0.0,124.56
2025-08-15T04:33:29.558Z,3,GR86-022-13,-14.6,0.356,-0.385,99.99,3.0,,0.0,0.0,
2025-08-15T04:33:29.601Z,3,GR86-022-13,-15.4,0.036,-0.452,100.0,3.0,,0.0,0.0,
2025-08-15T04:33:29.644Z,3,GR86-022-13,-14.6,0.202,-0.356,99.99,3.0,,0.0,0.0,
2025-08-15T04:33:29.688Z,3,GR86-022-13,-12.6,0.265,-0.342,99.98,3.0,6656.0,0.0,0.0,
2025-08-15T04:33:29.730Z,3,GR86-022-13,-11.3,0.462,-0.328,99.98,3.0,,0.0,0.0,126.08
2025-08-15T04:33:29.773Z,3,GR86-022-13,-11.3,0.246,-0.427,99.99,3.0,,0.0,0.0,
2025-08-15T04:33:29.817Z,3,GR86-022-13,-10.5,0.149,-0.146,99.98,3.0,,0.0,0.0,
2025-08-15T04:33:29.859Z,3,GR86-022-13,-5.800000000000001,0.166,-0.208,99.99,3.0,,0.0,0.0,
2025-08-15T04:33:29.902Z,3,GR86-022-13,0.7000000000000001,0.3,-0.216,99.99,3.0,6128.0,0.0,0.0,
2025-08-15T04:33:29.945Z,3,GR86-022-13,2.2,0.303,-0.206,100.02,3.0,,0.0,0.0,127.69
2025-08-15T04:33:29.988Z,3,GR86-022-13,0.8,0.235,-0.222,100.01,3.0,,0.0,0.0,
2025-08-15T04:33:30.031Z,3,GR86-022-13,-1.6,0.13,-0.054,100.01,3.0,,0.0,0.0,
2025-08-15T04:33:30.075Z,3,GR86-022-13,-2.0,0.236,0.015,99.98,3.0,,0.0,0.0,
2025-08-15T04:33:30.118Z,3,GR86-022-13,0.5,0.291,0.047,100.01,3.0,6145.0,0.0,0.0,
2025-08-15T04:33:30.161Z,3,GR86-022-13,2.3000000000000003,0.271,0.057,100.02,3.0,,0.0,0.0,128.91
2025-08-15T04:33:30.204Z,3,GR86-022-13,3.7,0.251,0.14,100.01,3.0,,0.0,0.0,
2025-08-15T04:33:30.248Z,3,GR86-022-13,4.4,0.204,0.154,99.98,3.0,,0.0,0.0,
2025-08-15T04:33:30.290Z,3,GR86-022-13,4.5,0.253,0.165,100.0,3.0,,0.0,0.0,
2025-08-15T04:33:30.333Z,3,GR86-022-13,4.2,0.25,0.134,100.01,3.0,6181.0,0.0,0.0,
2025-08-15T04:33:30.378Z,3,GR86-022-13,4.0,0.24,0.137,100.01,3.0,,0.0,0.0,130.77
2025-08-15T04:33:30.421Z,3,GR86-022-13,4.2,0.207,0.122,100.02,3.0,,0.0,0.0,
2025-08-15T04:33:30.464Z,3,GR86-022-13,5.1000000000000005,0.193,0.172,100.0,3.0,,0.0,0.0,
2025-08-15T04:33:30.508Z,3,GR86-022-13,5.800000000000001,0.251,0.155,100.01,3.0,,0.0,0.0,
2025-08-15T04:33:30.550Z,3,GR86-022-13,5.800000000000001,0.245,0.147,100.01,3.0,6201.0,0.0,0.0,
2025-08-15T04:33:30.593Z,3,GR86-022-13,5.800000000000001,0.223,0.151,99.98,3.0,,0.0,0.0,132.18
2025-08-15T04:33:30.638Z,3,GR86-022-13,5.300000000000001,0.224,0.147,100.01,3.0,,0.0,0.0,
2025-08-15T04:33:30.681Z,3,GR86-022-13,4.9,0.22,0.16,99.99,3.0,,0.0,0.0,
2025-08-15T04:33:30.724Z,3,GR86-022-13,4.6000000000000005,0.228,0.163,99.99,3.0,,0.0,0.0,
2025-08-15T04:33:30.768Z,3,GR86-022-13,3.7,0.24,0.146,99.99,3.0,6262.0,0.0,0.0,
2025-08-15T04:33:30.810Z,3,GR86-022-13,2.7,0.224,0.134,100.03,3.0,,0.0,0.0,133.64
2025-08-15T04:33:30.853Z,3,GR86-022-13,2.2,0.214,0.142,99.99,3.0,,0.0,0.0,
2025-08-15T04:33:30.899Z,3,GR86-022-13,1.9,0.221,0.109,99.99,3.0,,0.0,0.0,
2025-08-15T04:33:30.941Z,3,GR86-022-13,1.2000000000000002,0.208,0.093,99.99,3.0,,0.0,0.0,
2025-08-15T04:33:30.984Z,3,GR86-022-13,0.1,0.229,0.052,100.0,3.0,6325.0,0.0,0.0,
2025-08-15T04:33:31.028Z,3,GR86-022-13,-0.7000000000000001,0.244,0.023,100.01,3.0,,0.0,0.0,135.05
2025-08-15T04:33:31.071Z,3,GR86-022-13,-0.7000000000000001,0.241,0.002,100.02,3.0,,0.0,0.0,
2025-08-15T04:33:31.113Z,3,GR86-022-13,-0.7000000000000001,0.213,0.012,99.99,3.0,,0.0,0.0,
2025-08-15T04:33:31.157Z,3,GR86-022-13,-0.8,0.212,-0.03,100.01,3.0,,0.0,0.0,
2025-08-15T04:33:31.199Z,3,GR86-022-13,-0.8,0.216,-0.035,100.0,3.0,6390.0,0.0,0.0,
2025-08-15T04:33:31.242Z,3,GR86-022-13,-0.8,0.255,-0.06,99.98,3.0,,0.0,0.0,136.48
2025-08-15T04:33:31.285Z,3,GR86-022-13,-0.8,0.237,-0.053,100.02,3.0,,0.0,0.0,
2025-08-15T04:33:31.328Z,3,GR86-022-13,-0.8,0.207,-0.046,100.0,3.0,,0.0,0.0,
2025-08-15T04:33:31.371Z,3,GR86-022-13,-0.8,0.224,-0.029,100.0,3.0,,0.0,0.0,
2025-08-15T04:33:31.415Z,3,GR86-022-13,-0.8,0.233,-0.045,99.98,3.0,6456.0,0.0,0.0,
2025-08-15T04:33:31.459Z,3,GR86-022-13,-0.5,0.215,-0.038,100.0,3.0,,0.0,0.0,137.93
2025-08-15T04:33:31.501Z,3,GR86-022-13,-0.5,0.245,-0.036,100.02,3.0,,0.0,0.0,
2025-08-15T04:33:31.544Z,3,GR86-022-13,-0.5,0.235,-0.04,99.99,3.0,,0.0,0.0,
2025-08-15T04:33:31.588Z,3,GR86-022-13,-0.1,0.229,-0.044,100.01,3.0,,0.0,0.0,
2025-08-15T04:33:31.631Z,3,GR86-022-13,0.6000000000000001,0.214,-0.007,100.0,3.0,6512.0,0.0,0.0,
2025-08-15T04:33:31.674Z,3,GR86-022-13,1.5,0.246,-0.01,100.0,3.0,,0.0,0.0,139.29
2025-08-15T04:33:31.718Z,3,GR86-022-13,3.6,0.222,0.033,100.0,3.0,,0.0,0.0,
2025-08-15T04:33:31.761Z,3,GR86-022-13,4.2,0.239,0.035,100.01,3.0,,0.0,0.0,
2025-08-15T04:33:31.804Z,3,GR86-022-13,4.1000000000000005,0.239,0.026,100.0,3.0,,0.0,0.0,
2025-08-15T04:33:31.848Z,3,GR86-022-13,3.1,0.229,0.037,100.0,3.0,6578.0,0.0,0.0,
2025-08-15T04:33:31.891Z,3,GR86-022-13,2.6,0.209,0.067,100.03,3.0,,0.0,0.0,142.08
2025-08-15T04:33:31.934Z,3,GR86-022-13,2.6,0.226,0.068,100.0,3.0,,0.0,0.0,
2025-08-15T04:33:31.978Z,3,GR86-022-13,3.1,0.216,0.075,100.01,3.0,,0.0,0.0,
2025-08-15T04:33:32.021Z,3,GR86-022-13,3.2,0.223,0.101,100.01,3.0,,0.0,0.0,
2025-08-15T04:33:32.064Z,3,GR86-022-13,3.2,0.238,0.077,99.99,3.0,6639.0,0.0,0.0,
2025-08-15T04:33:32.108Z,3,GR86-022-13,3.2,0.233,0.071,100.0,3.0,,0.0,0.0,143.48
2025-08-15T04:33:32.150Z,3,GR86-022-13,3.2,0.225,0.08,99.99,3.0,,0.0,0.0,
2025-08-15T04:33:32.193Z,3,GR86-022-13,2.9000000000000004,0.203,0.079,100.02,3.0,,0.0,0.0,
2025-08-15T04:33:32.237Z,3,GR86-022-13,2.5,0.218,0.089,100.0,3.0,,0.0,0.0,
2025-08-15T04:33:32.279Z,3,GR86-022-13,2.5,0.216,0.092,100.0,3.0,6770.0,0.0,0.0,
2025-08-15T04:33:32.322Z,3,GR86-022-13,2.5,0.223,0.095,100.03,3.0,,0.0,0.0,144.88
2025-08-15T04:33:32.365Z,3,GR86-022-13,2.5,0.243,0.064,99.99,3.0,,0.0,0.0,
2025-08-15T04:33:32.408Z,3,GR86-022-13,2.5,0.238,0.049,100.0,3.0,,0.0,0.0,
2025-08-15T04:33:32.451Z,3,GR86-022-13,2.5,0.222,0.048,99.98,3.0,,0.0,0.0,
2025-08-15T04:33:32.494Z,3,GR86-022-13,2.5,0.205,0.069,99.98,3.0,6835.0,0.0,0.0,
2025-08-15T04:33:32.538Z,3,GR86-022-13,2.0,0.228,0.033,100.0,3.0,,0.0,0.0,146.23
2025-08-15T04:33:32.581Z,3,GR86-022-13,1.2000000000000002,0.219,0.056,99.99,3.0,,0.0,0.0,
2025-08-15T04:33:32.624Z,3,GR86-022-13,0.5,0.217,0.052,99.99,3.0,,0.0,0.0,
2025-08-15T04:33:32.668Z,3,GR86-022-13,0.4,0.233,0.044,99.99,3.0,,0.0,0.0,
2025-08-15T04:33:32.710Z,3,GR86-022-13,-0.1,0.233,0.002,99.98,3.0,6893.0,0.0,0.0,
2025-08-15T04:33:32.753Z,3,GR86-022-13,-1.2000000000000002,0.22,-0.02,99.99,3.0,,0.0,0.0,147.54
2025-08-15T04:33:32.797Z,3,GR86-022-13,-3.3000000000000003,0.226,-0.057,100.01,3.0,,0.0,0.0,
2025-08-15T04:33:32.839Z,3,GR86-022-13,-4.5,0.237,-0.076,100.02,3.0,,0.0,0.0,
2025-08-15T04:33:32.882Z,3,GR86-022-13,-4.5,0.212,-0.102,100.01,3.0,,0.0,0.0,
2025-08-15T04:33:32.925Z,3,GR86-022-13,-3.9,0.205,-0.125,100.0,3.0,6958.0,0.0,0.0,
2025-08-15T04:33:32.968Z,3,GR86-022-13,-2.7,0.213,-0.095,100.01,3.0,,0.0,0.0,148.84
2025-08-15T04:33:33.011Z,3,GR86-022-13,-1.9,0.217,-0.134,99.99,3.0,,0.0,0.0,
2025-08-15T04:33:33.054Z,3,GR86-022-13,-1.7000000000000002,0.227,-0.116,99.96,3.0,,0.0,0.0,
2025-08-15T04:33:33.098Z,3,GR86-022-13,-1.6,0.216,-0.118,100.01,3.0,,0.0,0.0,
2025-08-15T04:33:33.141Z,3,GR86-022-13,-1.6,0.226,-0.105,100.01,3.0,7011.0,0.0,0.0,
2025-08-15T04:33:33.184Z,3,GR86-022-13,-1.6,0.222,-0.096,100.0,3.0,,0.0,0.0,150.18
2025-08-15T04:33:33.228Z,3,GR86-022-13,-1.6,0.214,-0.088,100.0,3.0,,0.0,0.0,
2025-08-15T04:33:33.271Z,3,GR86-022-13,-1.7000000000000002,0.207,-0.062,99.98,3.0,,0.0,0.0,
2025-08-15T04:33:33.314Z,3,GR86-022-13,-1.9,0.197,-0.036,100.0,3.0,,0.0,0.0,
2025-08-15T04:33:33.358Z,3,GR86-022-13,-1.9,0.22,-0.085,99.99,3.0,7074.0,0.0,0.0,
2025-08-15T04:33:33.401Z,3,GR86-022-13,-1.9,0.202,-0.066,99.98,3.0,,0.0,0.0,151.47
2025-08-15T04:33:33.444Z,3,GR86-022-13,-1.9,0.203,-0.054,100.0,3.0,,0.0,0.0,
2025-08-15T04:33:33.488Z,3,GR86-022-13,-1.9,0.198,-0.055,100.03,3.0,,0.0,0.0,
2025-08-15T04:33:33.530Z,3,GR86-022-13,-2.0,0.225,-0.071,100.01,3.0,,0.0,0.0,
2025-08-15T04:33:33.573Z,3,GR86-022-13,-2.0,0.211,-0.078,99.98,3.0,7131.0,0.0,0.0,
2025-08-15T04:33:33.617Z,3,GR86-022-13,-2.0,0.2,-0.081,100.0,3.0,,0.0,0.0,152.68
2025-08-15T04:33:33.659Z,3,GR86-022-13,-2.1,0.208,-0.064,99.98,3.0,,0.0,0.0,
2025-08-15T04:33:33.702Z,3,GR86-022-13,-2.5,0.203,-0.099,99.99,3.0,,0.0,0.0,
2025-08-15T04:33:33.745Z,3,GR86-022-13,-2.6,0.209,-0.089,100.01,3.0,,0.0,0.0,
2025-08-15T04:33:33.788Z,3,GR86-022-13,-2.6,0.201,-0.082,99.99,3.0,7186.0,0.0,0.0,
2025-08-15T04:33:33.832Z,3,GR86-022-13,-2.6,0.193,-0.087,99.99,3.0,,0.0,0.0,153.97
2025-08-15T04:33:33.875Z,3,GR86-022-13,-2.6,0.195,-0.078,100.02,3.0,,0.0,0.0,
2025-08-15T04:33:33.918Z,3,GR86-022-13,-2.6,0.129,-0.097,99.99,4.0,,0.0,0.0,
2025-08-15T04:33:33.961Z,3,GR86-022-13,-3.8,-0.103,-0.069,99.99,4.0,,0.0,0.0,
2025-08-15T04:33:34.004Z,3,GR86-022-13,-4.0,0.599,-0.033,99.97,4.0,7242.0,0.0,0.0,
2025-08-15T04:33:34.048Z,3,GR86-022-13,-4.0,0.288,-0.171,99.99,4.0,,0.0,0.0,155.19
2025-08-15T04:33:34.091Z,3,GR86-022-13,-4.2,0.076,-0.073,99.98,4.0,,0.0,0.0,
2025-08-15T04:33:34.134Z,3,GR86-022-13,-4.2,0.043,-0.092,100.01,4.0,,0.0,0.0,
2025-08-15T04:33:34.178Z,3,GR86-022-13,-4.2,0.272,-0.162,99.98,4.0,,0.0,0.0,
2025-08-15T04:33:34.221Z,3,GR86-022-13,-4.2,0.204,-0.083,99.98,4.0,7290.0,0.0,0.0,
2025-08-15T04:33:34.264Z,3,GR86-022-13,-4.2,0.151,-0.18,100.01,4.0,,0.0,0.0,156.38
2025-08-15T04:33:34.308Z,3,GR86-022-13,-4.2,0.165,-0.174,99.99,4.0,,0.0,0.0,
2025-08-15T04:33:34.351Z,3,GR86-022-13,-4.1000000000000005,0.221,-0.116,99.98,4.0,,0.0,0.0,
2025-08-15T04:33:34.394Z,3,GR86-022-13,-2.5,0.18,-0.15,100.0,4.0,,0.0,0.0,
2025-08-15T04:33:34.438Z,3,GR86-022-13,-0.3,0.18,-0.114,99.99,4.0,6018.0,0.0,0.0,
2025-08-15T04:33:34.481Z,3,GR86-022-13,-0.2,0.195,-0.116,99.99,4.0,,0.0,0.0,158.72
2025-08-15T04:33:34.524Z,3,GR86-022-13,-0.2,0.188,-0.108,100.01,4.0,,0.0,0.0,
2025-08-15T04:33:34.568Z,3,GR86-022-13,-0.6000000000000001,0.174,-0.062,100.0,4.0,,0.0,0.0,
2025-08-15T04:33:34.610Z,3,GR86-022-13,-1.7000000000000002,0.161,-0.049,100.01,4.0,,0.0,0.0,
2025-08-15T04:33:34.653Z,3,GR86-022-13,-3.4000000000000004,0.159,-0.033,99.98,4.0,6203.0,0.0,0.0,
2025-08-15T04:33:34.697Z,3,GR86-022-13,-5.800000000000001,0.178,-0.059,100.02,4.0,,0.0,0.0,159.79
2025-08-15T04:33:34.741Z,3,GR86-022-13,-6.1000000000000005,0.168,-0.093,99.98,4.0,,0.0,0.0,
2025-08-15T04:33:34.784Z,3,GR86-022-13,-6.1000000000000005,0.163,-0.12,100.02,4.0,,0.0,0.0,
2025-08-15T04:33:34.828Z,3,GR86-022-13,-6.1000000000000005,0.16,-0.121,100.0,4.0,,0.0,0.0,
2025-08-15T04:33:34.871Z,3,GR86-022-13,-6.1000000000000005,0.171,-0.149,99.99,4.0,6275.0,0.0,0.0,
2025-08-15T04:33:34.913Z,3,GR86-022-13,-5.5,0.178,-0.171,100.01,4.0,,0.0,0.0,160.84
2025-08-15T04:33:34.957Z,3,GR86-022-13,-4.0,0.149,-0.203,100.0,4.0,,0.0,0.0,
2025-08-15T04:33:34.999Z,3,GR86-022-13,-2.6,0.158,-0.177,100.0,4.0,,0.0,0.0,
2025-08-15T04:33:35.043Z,3,GR86-022-13,-2.2,0.153,-0.17,100.0,4.0,,0.0,0.0,
2025-08-15T04:33:35.087Z,3,GR86-022-13,-2.7,0.175,-0.149,99.99,4.0,6353.0,0.0,0.0,
2025-08-15T04:33:35.129Z,3,GR86-022-13,-3.5,0.185,-0.132,100.01,4.0,,0.0,0.0,161.84
2025-08-15T04:33:35.172Z,3,GR86-022-13,-3.8,0.183,-0.171,100.0,4.0,,0.0,0.0,
2025-08-15T04:33:35.215Z,3,GR86-022-13,-3.8,0.187,-0.129,100.0,4.0,,0.0,0.0,
2025-08-15T04:33:35.258Z,3,GR86-022-13,-3.8,0.179,-0.135,99.97,4.0,,0.0,0.0,
2025-08-15T04:33:35.301Z,3,GR86-022-13,-3.8,0.173,-0.123,100.01,4.0,6396.0,0.0,0.0,
2025-08-15T04:33:35.344Z,3,GR86-022-13,-3.8,0.194,-0.15,99.98,4.0,,0.0,0.0,162.85
2025-08-15T04:33:35.388Z,3,GR86-022-13,-3.8,0.197,-0.151,100.01,4.0,,0.0,0.0,
2025-08-15T04:33:35.430Z,3,GR86-022-13,-3.8,0.191,-0.145,99.99,4.0,,0.0,0.0,
2025-08-15T04:33:35.473Z,3,GR86-022-13,-3.8,0.168,-0.156,100.0,4.0,,0.0,0.0,
2025-08-15T04:33:35.517Z,3,GR86-022-13,-2.8000000000000003,0.181,-0.158,99.99,4.0,6430.0,0.0,0.0,
2025-08-15T04:33:35.559Z,3,GR86-022-13,-1.9,0.197,-0.156,100.02,4.0,,0.0,0.0,163.81
2025-08-15T04:33:35.602Z,3,GR86-022-13,-1.3,0.174,-0.122,99.98,4.0,,0.0,0.0,
2025-08-15T04:33:35.645Z,3,GR86-022-13,-1.1,0.19,-0.125,99.99,4.0,,0.0,0.0,
2025-08-15T04:33:35.688Z,3,GR86-022-13,-1.1,0.169,-0.096,100.02,4.0,,0.0,0.0,
2025-08-15T04:33:35.732Z,3,GR86-022-13,-1.1,0.182,-0.075,100.02,4.0,6471.0,0.0,0.0,
2025-08-15T04:33:35.775Z,3,GR86-022-13,-1.1,0.161,-0.079,99.99,4.0,,0.0,0.0,164.84
2025-08-15T04:33:35.818Z,3,GR86-022-13,-1.1,0.185,-0.078,100.0,4.0,,0.0,0.0,
2025-08-15T04:33:35.861Z,3,GR86-022-13,-1.1,0.184,-0.055,100.02,4.0,,0.0,0.0,
2025-08-15T04:33:35.904Z,3,GR86-022-13,-1.1,0.172,-0.068,100.01,4.0,,0.0,0.0,
2025-08-15T04:33:35.948Z,3,GR86-022-13,-1.1,0.171,-0.04,100.02,4.0,6513.0,0.0,0.0,
2025-08-15T04:33:35.990Z,3,GR86-022-13,-1.1,0.167,-0.026,100.0,4.0,,0.0,0.0,165.86
2025-08-15T04:33:36.033Z,3,GR86-022-13,-1.1,0.161,-0.036,99.98,4.0,,0.0,0.0,
2025-08-15T04:33:36.079Z,3,GR86-022-13,-1.2000000000000002,0.177,-0.051,100.0,4.0,,0.0,0.0,
2025-08-15T04:33:36.121Z,3,GR86-022-13,-1.2000000000000002,0.181,-0.058,100.01,4.0,,0.0,0.0,
2025-08-15T04:33:36.164Z,3,GR86-022-13,-1.2000000000000002,0.187,-0.042,99.98,4.0,6553.0,0.0,0.0,
2025-08-15T04:33:36.208Z,3,GR86-022-13,-1.2000000000000002,0.164,-0.036,100.02,4.0,,0.0,0.0,166.92000000000002
2025-08-15T04:33:36.250Z,3,GR86-022-13,-1.2000000000000002,0.17,-0.048,99.99,4.0,,0.0,0.0,
2025-08-15T04:33:36.293Z,3,GR86-022-13,-1.2000000000000002,0.14,-0.044,100.0,4.0,,0.0,0.0,
2025-08-15T04:33:36.337Z,3,GR86-022-13,-1.2000000000000002,0.17,-0.044,99.98,4.0,,0.0,0.0,
2025-08-15T04:33:36.381Z,3,GR86-022-13,-1.9,0.196,-0.054,100.01,4.0,6589.0,0.0,0.0,
2025-08-15T04:33:36.424Z,3,GR86-022-13,-3.2,0.194,-0.046,100.01,4.0,,0.0,0.0,167.95000000000002
2025-08-15T04:33:36.468Z,3,GR86-022-13,-3.7,0.178,-0.075,99.99,4.0,,0.0,0.0,
2025-08-15T04:33:36.510Z,3,GR86-022-13,-3.7,0.173,-0.113,100.01,4.0,,0.0,0.0,
2025-08-15T04:33:36.553Z,3,GR86-022-13,-4.3,0.168,-0.093,99.99,4.0,,0.0,0.0,
2025-08-15T04:33:36.597Z,3,GR86-022-13,-6.4,0.174,-0.135,100.0,4.0,6632.0,0.0,0.0,
2025-08-15T04:33:36.641Z,3,GR86-022-13,-6.800000000000001,0.204,-0.153,100.0,4.0,,0.0,0.0,169.06
2025-08-15T04:33:36.684Z,3,GR86-022-13,-6.800000000000001,0.18,-0.186,100.01,4.0,,0.0,0.0,
2025-08-15T04:33:36.728Z,3,GR86-022-13,-6.4,0.19,-0.209,100.01,4.0,,0.0,0.0,
2025-08-15T04:33:36.770Z,3,GR86-022-13,-5.800000000000001,0.169,-0.226,100.0,4.0,,0.0,0.0,
2025-08-15T04:33:36.813Z,3,GR86-022-13,-5.1000000000000005,0.191,-0.206,99.98,4.0,6675.0,0.0,0.0,
2025-08-15T04:33:36.857Z,3,GR86-022-13,-4.7,0.155,-0.199,99.97,4.0,,0.0,0.0,170.14
2025-08-15T04:33:36.899Z,3,GR86-022-13,-4.7,0.164,-0.199,99.99,4.0,,0.0,0.0,
2025-08-15T04:33:36.942Z,3,GR86-022-13,-4.7,0.172,-0.204,99.98,4.0,,0.0,0.0,
2025-08-15T04:33:36.985Z,3,GR86-022-13,-5.2,0.198,-0.196,100.02,4.0,,0.0,0.0,
2025-08-15T04:33:37.028Z,3,GR86-022-13,-6.5,0.177,-0.207,100.0,4.0,6724.0,0.0,0.0,
2025-08-15T04:33:37.071Z,3,GR86-022-13,-7.9,0.178,-0.24,99.99,4.0,,0.0,0.0,171.27
2025-08-15T04:33:37.114Z,3,GR86-022-13,-9.1,0.192,-0.261,99.99,4.0,,0.0,0.0,
2025-08-15T04:33:37.159Z,3,GR86-022-13,-9.5,0.147,-0.262,99.99,4.0,,0.0,0.0,
2025-08-15T04:33:37.201Z,3,GR86-022-13,-9.2,0.139,-0.279,100.01,4.0,,0.0,0.0,
2025-08-15T04:33:37.244Z,3,GR86-022-13,-8.5,0.15,-0.29,99.98,4.0,6760.0,0.0,0.0,
2025-08-15T04:33:37.288Z,3,GR86-022-13,-8.3,0.152,-0.308,100.02,4.0,,0.0,0.0,173.43
2025-08-15T04:33:37.331Z,3,GR86-022-13,-8.3,0.155,-0.315,100.02,4.0,,0.0,0.0,
2025-08-15T04:33:37.374Z,3,GR86-022-13,-8.0,0.158,-0.343,99.99,4.0,,0.0,0.0,
2025-08-15T04:33:37.418Z,3,GR86-022-13,-7.300000000000001,0.139,-0.293,100.02,4.0,,0.0,0.0,
2025-08-15T04:33:37.461Z,3,GR86-022-13,-7.0,0.148,-0.269,100.02,4.0,6810.0,0.0,0.0,
2025-08-15T04:33:37.504Z,3,GR86-022-13,-7.0,0.138,-0.277,100.01,4.0,,0.0,0.0,174.53
2025-08-15T04:33:37.548Z,3,GR86-022-13,-7.0,0.137,-0.252,100.02,4.0,,0.0,0.0,
2025-08-15T04:33:37.591Z,3,GR86-022-13,-7.4,0.137,-0.254,99.98,4.0,,0.0,0.0,
2025-08-15T04:33:37.634Z,3,GR86-022-13,-8.200000000000001,0.145,-0.278,99.98,4.0,,0.0,0.0,
2025-08-15T04:33:37.678Z,3,GR86-022-13,-9.0,0.196,-0.329,100.03,4.0,6883.0,0.0,0.0,
2025-08-15T04:33:37.721Z,3,GR86-022-13,-9.0,0.159,-0.316,100.02,4.0,,0.0,0.0,175.51
2025-08-15T04:33:37.764Z,3,GR86-022-13,-9.0,0.171,-0.3,100.0,4.0,,0.0,0.0,
2025-08-15T04:33:37.808Z,3,GR86-022-13,-8.0,0.169,-0.312,100.02,4.0,,0.0,0.0,
2025-08-15T04:33:37.850Z,3,GR86-022-13,-6.4,0.152,-0.304,100.01,4.0,,0.0,0.0,
2025-08-15T04:33:37.893Z,3,GR86-022-13,-4.7,0.186,-0.295,100.0,4.0,6919.0,0.0,0.0,
2025-08-15T04:33:37.937Z,3,GR86-022-13,-3.9,0.151,-0.243,99.99,4.0,,0.0,0.0,176.49
2025-08-15T04:33:37.979Z,3,GR86-022-13,-3.9,0.153,-0.234,100.0,4.0,,0.0,0.0,
2025-08-15T04:33:38.022Z,3,GR86-022-13,-3.9,0.163,-0.23,99.99,4.0,,0.0,0.0,
2025-08-15T04:33:38.065Z,3,GR86-022-13,-3.7,0.14,-0.191,99.99,4.0,,0.0,0.0,
2025-08-15T04:33:38.108Z,3,GR86-022-13,-3.4000000000000004,0.161,-0.197,100.0,4.0,6971.0,0.0,0.0,
2025-08-15T04:33:38.151Z,3,GR86-022-13,-3.0,0.152,-0.138,99.99,4.0,,0.0,0.0,177.46
2025-08-15T04:33:38.194Z,3,GR86-022-13,-2.2,0.157,-0.132,99.99,4.0,,0.0,0.0,
2025-08-15T04:33:38.238Z,3,GR86-022-13,-1.3,0.146,-0.1,100.02,4.0,,0.0,0.0,
2025-08-15T04:33:38.281Z,3,GR86-022-13,-0.8,0.129,-0.075,100.03,4.0,,0.0,0.0,
2025-08-15T04:33:38.324Z,3,GR86-022-13,-0.5,0.148,-0.055,100.0,4.0,6998.0,0.0,0.0,
2025-08-15T04:33:38.368Z,3,GR86-022-13,-0.5,0.146,-0.024,99.99,4.0,,0.0,0.0,178.58
2025-08-15T04:33:38.411Z,3,GR86-022-13,-0.5,0.158,-0.038,100.0,4.0,,0.0,0.0,
2025-08-15T04:33:38.453Z,3,GR86-022-13,-0.5,0.135,-0.064,100.0,4.0,,0.0,0.0,
2025-08-15T04:33:38.497Z,3,GR86-022-13,-0.5,0.163,-0.06,100.03,4.0,,0.0,0.0,
2025-08-15T04:33:38.539Z,3,GR86-022-13,-0.5,0.172,-0.035,99.99,4.0,7040.0,0.0,0.0,
2025-08-15T04:33:38.582Z,3,GR86-022-13,-0.5,0.17,-0.035,100.01,4.0,,0.0,0.0,179.55
2025-08-15T04:33:38.628Z,3,GR86-022-13,-0.5,0.154,-0.033,100.02,4.0,,0.0,0.0,
2025-08-15T04:33:38.671Z,3,GR86-022-13,-0.5,0.177,-0.058,99.99,4.0,,0.0,0.0,
2025-08-15T04:33:38.714Z,3,GR86-022-13,-0.5,0.168,-0.038,99.97,4.0,,0.0,0.0,
2025-08-15T04:33:38.758Z,3,GR86-022-13,-0.5,0.127,-0.01,100.01,4.0,7078.0,0.0,0.0,
2025-08-15T04:33:38.801Z,3,GR86-022-13,-0.5,0.14,0.011,99.99,4.0,,0.0,0.0,180.52
2025-08-15T04:33:38.844Z,3,GR86-022-13,-0.5,0.143,-0.016,100.0,4.0,,0.0,0.0,
2025-08-15T04:33:38.888Z,3,GR86-022-13,-0.5,0.137,-0.038,100.02,4.0,,0.0,0.0,
2025-08-15T04:33:38.930Z,3,GR86-022-13,-1.2000000000000002,0.132,-0.029,100.01,4.0,,0.0,0.0,
2025-08-15T04:33:38.973Z,3,GR86-022-13,-2.6,0.129,-0.072,100.02,4.0,7115.0,0.0,0.0,
2025-08-15T04:33:39.017Z,3,GR86-022-13,-3.5,0.152,-0.055,99.99,4.0,,0.0,0.0,181.5
2025-08-15T04:33:39.059Z,3,GR86-022-13,-3.5,0.154,-0.07,100.0,4.0,,0.0,0.0,
2025-08-15T04:33:39.102Z,3,GR86-022-13,-3.5,0.158,-0.068,100.0,4.0,,0.0,0.0,
2025-08-15T04:33:39.145Z,3,GR86-022-13,-3.4000000000000004,0.154,-0.074,99.99,4.0,,0.0,0.0,
2025-08-15T04:33:39.188Z,3,GR86-022-13,-3.5,0.144,-0.079,100.01,4.0,7155.0,0.0,0.0,
2025-08-15T04:33:39.231Z,3,GR86-022-13,-3.5,0.15,-0.112,100.0,4.0,,0.0,0.0,182.48
2025-08-15T04:33:39.274Z,3,GR86-022-13,-3.5,0.154,-0.088,100.0,4.0,,0.0,0.0,
2025-08-15T04:33:39.318Z,3,GR86-022-13,-3.4000000000000004,0.144,-0.134,100.03,4.0,,0.0,0.0,
2025-08-15T04:33:39.361Z,3,GR86-022-13,-4.1000000000000005,0.146,-0.132,100.01,4.0,,0.0,0.0,
2025-08-15T04:33:39.404Z,3,GR86-022-13,-5.800000000000001,0.135,-0.137,99.99,4.0,7188.0,0.0,0.0,
2025-08-15T04:33:39.448Z,3,GR86-022-13,-7.0,0.148,-0.171,99.99,4.0,,0.0,0.0,183.48
2025-08-15T04:33:39.491Z,3,GR86-022-13,-7.1000000000000005,0.135,-0.169,99.99,4.0,,0.0,0.0,
2025-08-15T04:33:39.534Z,3,GR86-022-13,-6.300000000000001,0.154,-0.186,100.01,4.0,,0.0,0.0,
2025-08-15T04:33:39.578Z,3,GR86-022-13,-4.5,0.122,-0.187,100.0,4.0,,0.0,0.0,
2025-08-15T04:33:39.621Z,3,GR86-022-13,-4.4,0.033,-0.168,100.02,5.0,7225.0,0.0,0.0,
2025-08-15T04:33:39.664Z,3,GR86-022-13,-4.4,-0.085,-0.157,99.99,5.0,,0.0,0.0,184.28
2025-08-15T04:33:39.708Z,3,GR86-022-13,-4.5,0.507,-0.164,100.0,5.0,,0.0,0.0,
2025-08-15T04:33:39.751Z,3,GR86-022-13,-5.1000000000000005,0.107,-0.27,99.99,5.0,,0.0,0.0,
2025-08-15T04:33:39.794Z,3,GR86-022-13,-6.5,-0.038,-0.146,100.03,5.0,,0.0,0.0,
2025-08-15T04:33:39.838Z,3,GR86-022-13,-7.1000000000000005,0.202,-0.285,99.97,5.0,7260.0,0.0,0.0,
2025-08-15T04:33:39.881Z,3,GR86-022-13,-7.1000000000000005,0.196,-0.222,100.0,5.0,,0.0,0.0,186.27
2025-08-15T04:33:39.924Z,3,GR86-022-13,-7.1000000000000005,0.087,-0.208,100.02,5.0,,0.0,0.0,
2025-08-15T04:33:39.968Z,3,GR86-022-13,-7.1000000000000005,0.131,-0.272,100.0,5.0,,0.0,0.0,
2025-08-15T04:33:40.010Z,3,GR86-022-13,-7.1000000000000005,0.155,-0.269,99.99,5.0,,0.0,0.0,
2025-08-15T04:33:40.053Z,3,GR86-022-13,-7.1000000000000005,0.145,-0.25,100.0,5.0,6879.0,0.0,0.0,
2025-08-15T04:33:40.097Z,3,GR86-022-13,-7.1000000000000005,0.126,-0.278,100.02,5.0,,0.0,0.0,187.08
2025-08-15T04:33:40.141Z,3,GR86-022-13,-7.0,0.138,-0.243,99.98,5.0,,0.0,0.0,
2025-08-15T04:33:40.184Z,3,GR86-022-13,-6.800000000000001,0.124,-0.253,99.98,5.0,,0.0,0.0,
2025-08-15T04:33:40.228Z,3,GR86-022-13,-6.5,0.125,-0.267,100.02,5.0,,0.0,0.0,
2025-08-15T04:33:40.270Z,3,GR86-022-13,-6.300000000000001,0.12,-0.255,100.0,5.0,6369.0,0.0,0.0,
2025-08-15T04:33:40.313Z,3,GR86-022-13,-6.300000000000001,0.131,-0.263,99.99,5.0,,0.0,0.0,187.91
2025-08-15T04:33:40.357Z,3,GR86-022-13,-6.1000000000000005,0.119,-0.259,99.99,5.0,,0.0,0.0,
2025-08-15T04:33:40.399Z,3,GR86-022-13,-5.800000000000001,0.114,-0.25,100.02,5.0,,0.0,0.0,
2025-08-15T04:33:40.444Z,3,GR86-022-13,-5.2,0.128,-0.222,100.0,5.0,,0.0,0.0,
2025-08-15T04:33:40.487Z,3,GR86-022-13,-4.7,0.096,-0.21,99.99,5.0,6411.0,0.0,0.0,
2025-08-15T04:33:40.529Z,3,GR86-022-13,-4.2,0.13,-0.202,100.03,5.0,,0.0,0.0,188.64
2025-08-15T04:33:40.572Z,3,GR86-022-13,-3.7,0.098,-0.167,99.97,5.0,,0.0,0.0,
2025-08-15T04:33:40.615Z,3,GR86-022-13,-3.4000000000000004,0.129,-0.157,100.01,5.0,,0.0,0.0,
2025-08-15T04:33:40.658Z,3,GR86-022-13,-3.2,0.127,-0.147,100.02,5.0,,0.0,0.0,
2025-08-15T04:33:40.701Z,3,GR86-022-13,-3.1,0.143,-0.139,99.99,5.0,6433.0,0.0,0.0,
2025-08-15T04:33:40.744Z,3,GR86-022-13,-3.2,0.125,-0.133,99.98,5.0,,0.0,0.0,189.44
2025-08-15T04:33:40.788Z,3,GR86-022-13,-3.1,0.117,-0.118,100.03,5.0,,0.0,0.0,
2025-08-15T04:33:40.830Z,3,GR86-022-13,-3.3000000000000003,0.104,-0.111,99.99,5.0,,0.0,0.0,
2025-08-15T04:33:40.873Z,3,GR86-022-13,-3.3000000000000003,0.141,-0.085,100.0,5.0,,0.0,0.0,
2025-08-15T04:33:40.917Z,3,GR86-022-13,-3.3000000000000003,0.137,-0.116,100.02,5.0,6458.0,0.0,0.0,
2025-08-15T04:33:40.959Z,3,GR86-022-13,-3.3000000000000003,0.149,-0.118,99.99,5.0,,0.0,0.0,190.26
2025-08-15T04:33:41.002Z,3,GR86-022-13,-3.3000000000000003,0.135,-0.112,100.0,5.0,,0.0,0.0,
2025-08-15T04:33:41.045Z,3,GR86-022-13,-3.3000000000000003,0.127,-0.118,99.99,5.0,,0.0,0.0,
2025-08-15T04:33:41.088Z,3,GR86-022-13,-3.3000000000000003,0.142,-0.1,100.0,5.0,,0.0,0.0,
2025-08-15T04:33:41.131Z,3,GR86-022-13,-3.3000000000000003,0.112,-0.14,99.98,5.0,6494.0,0.0,0.0,
2025-08-15T04:33:41.174Z,3,GR86-022-13,-3.3000000000000003,0.142,-0.157,100.02,5.0,,0.0,0.0,190.99
2025-08-15T04:33:41.218Z,3,GR86-022-13,-3.3000000000000003,0.145,-0.153,99.99,5.0,,0.0,0.0,
2025-08-15T04:33:41.261Z,3,GR86-022-13,-3.3000000000000003,0.129,-0.14,99.99,5.0,,0.0,0.0,
2025-08-15T04:33:41.304Z,3,GR86-022-13,-3.3000000000000003,0.131,-0.156,99.98,5.0,,0.0,0.0,
2025-08-15T04:33:41.348Z,3,GR86-022-13,-3.3000000000000003,0.134,-0.122,99.98,5.0,6515.0,0.0,0.0,
2025-08-15T04:33:41.390Z,3,GR86-022-13,-3.2,0.148,-0.125,100.02,5.0,,0.0,0.0,191.83
2025-08-15T04:33:41.433Z,3,GR86-022-13,-2.8000000000000003,0.13,-0.122,99.99,5.0,,0.0,0.0,
2025-08-15T04:33:41.479Z,3,GR86-022-13,-2.6,0.134,-0.134,100.01,5.0,,0.0,0.0,
2025-08-15T04:33:41.521Z,3,GR86-022-13,-2.3000000000000003,0.132,-0.116,99.99,5.0,,0.0,0.0,
2025-08-15T04:33:41.564Z,3,GR86-022-13,-2.1,0.139,-0.084,100.0,5.0,6541.0,0.0,0.0,
2025-08-15T04:33:41.608Z,3,GR86-022-13,-2.0,0.135,-0.086,100.0,5.0,,0.0,0.0,192.71
2025-08-15T04:33:41.650Z,3,GR86-022-13,-1.8,0.142,-0.087,99.99,5.0,,0.0,0.0,
2025-08-15T04:33:41.693Z,3,GR86-022-13,-1.8,0.129,-0.078,100.0,5.0,,0.0,0.0,
2025-08-15T04:33:41.737Z,3,GR86-022-13,-1.8,0.113,-0.05,99.97,5.0,,0.0,0.0,
2025-08-15T04:33:41.781Z,3,GR86-022-13,-1.8,0.126,-0.06,100.03,5.0,6572.0,0.0,0.0,
2025-08-15T04:33:41.824Z,3,GR86-022-13,-1.8,0.143,-0.075,99.98,5.0,,0.0,0.0,193.5
2025-08-15T04:33:41.868Z,3,GR86-022-13,-1.8,0.141,-0.055,100.03,5.0,,0.0,0.0,
2025-08-15T04:33:41.910Z,3,GR86-022-13,-1.8,0.137,-0.071,99.98,5.0,,0.0,0.0,
2025-08-15T04:33:41.953Z,3,GR86-022-13,-1.8,0.124,-0.059,99.98,5.0,,0.0,0.0,
2025-08-15T04:33:41.997Z,3,GR86-022-13,-1.8,0.112,-0.07,99.99,5.0,6599.0,0.0,0.0,
2025-08-15T04:33:42.041Z,3,GR86-022-13,-1.8,0.142,-0.067,100.03,5.0,,0.0,0.0,194.37
2025-08-15T04:33:42.084Z,3,GR86-022-13,-1.6,0.133,-0.077,99.99,5.0,,0.0,0.0,
2025-08-15T04:33:42.128Z,3,GR86-022-13,-1.2000000000000002,0.129,-0.08,99.99,5.0,,0.0,0.0,
2025-08-15T04:33:42.170Z,3,GR86-022-13,-1.2000000000000002,0.157,-0.071,100.02,5.0,,0.0,0.0,
2025-08-15T04:33:42.213Z,3,GR86-022-13,-1.2000000000000002,0.112,-0.058,99.97,5.0,6623.0,0.0,0.0,
2025-08-15T04:33:42.257Z,3,GR86-022-13,-1.2000000000000002,0.099,-0.048,99.99,5.0,,0.0,0.0,195.08
2025-08-15T04:33:42.299Z,3,GR86-022-13,-1.2000000000000002,0.145,-0.027,100.0,5.0,,0.0,0.0,
2025-08-15T04:33:42.343Z,3,GR86-022-13,-1.2000000000000002,0.115,-0.017,100.02,5.0,,0.0,0.0,
2025-08-15T04:33:42.387Z,3,GR86-022-13,-1.2000000000000002,0.136,-0.029,99.98,5.0,,0.0,0.0,
2025-08-15T04:33:42.431Z,3,GR86-022-13,-1.2000000000000002,0.146,-0.04,99.99,5.0,6648.0,0.0,0.0,
2025-08-15T04:33:42.474Z,3,GR86-022-13,-1.2000000000000002,0.127,-0.05,99.97,5.0,,0.0,0.0,195.86
2025-08-15T04:33:42.518Z,3,GR86-022-13,-1.2000000000000002,0.115,-0.049,99.99,5.0,,0.0,0.0,
2025-08-15T04:33:42.561Z,3,GR86-022-13,-1.2000000000000002,0.131,-0.062,100.01,5.0,,0.0,0.0,
2025-08-15T04:33:42.604Z,3,GR86-022-13,-1.2000000000000002,0.129,-0.054,99.99,5.0,,0.0,0.0,
2025-08-15T04:33:42.648Z,3,GR86-022-13,-1.2000000000000002,0.167,-0.088,100.01,5.0,6673.0,0.0,0.0,
2025-08-15T04:33:42.691Z,3,GR86-022-13,-0.9,0.115,-0.072,100.01,5.0,,0.0,0.0,197.46
2025-08-15T04:33:42.734Z,3,GR86-022-13,-0.7000000000000001,0.142,-0.048,100.01,5.0,,0.0,0.0,
2025-08-15T04:33:42.778Z,3,GR86-022-13,-0.6000000000000001,0.115,-0.053,99.99,5.0,,0.0,0.0,
2025-08-15T04:33:42.821Z,3,GR86-022-13,-0.3,0.142,-0.052,100.02,5.0,,0.0,0.0,
2025-08-15T04:33:42.864Z,3,GR86-022-13,-0.2,0.147,-0.083,99.98,5.0,6710.0,0.0,0.0,
2025-08-15T04:33:42.908Z,3,GR86-022-13,-0.2,0.117,-0.073,100.02,5.0,,0.0,0.0,198.22
2025-08-15T04:33:42.950Z,3,GR86-022-13,-0.2,0.143,-0.072,99.98,5.0,,0.0,0.0,
2025-08-15T04:33:42.993Z,3,GR86-022-13,-0.2,0.137,-0.067,100.02,5.0,,0.0,0.0,
2025-08-15T04:33:43.037Z,3,GR86-022-13,-0.2,0.132,-0.06,100.02,5.0,,0.0,0.0,
2025-08-15T04:33:43.079Z,3,GR86-022-13,-0.1,0.153,-0.053,99.99,5.0,6749.0,0.0,0.0,
2025-08-15T04:33:43.122Z,3,GR86-022-13,0.3,0.133,-0.04,99.98,5.0,,0.0,0.0,199.08
2025-08-15T04:33:43.165Z,3,GR86-022-13,0.9,0.111,-0.028,99.98,5.0,,0.0,0.0,
2025-08-15T04:33:43.208Z,3,GR86-022-13,1.1,0.113,-0.01,100.03,5.0,,0.0,0.0,
2025-08-15T04:33:43.251Z,3,GR86-022-13,1.5,0.107,0.006,100.0,5.0,,0.0,0.0,
2025-08-15T04:33:43.294Z,3,GR86-022-13,1.6,0.108,0.019,100.02,5.0,6785.0,0.0,0.0,
2025-08-15T04:33:43.338Z,3,GR86-022-13,1.6,0.136,0.04,100.02,5.0,,0.0,0.0,199.87
2025-08-15T04:33:43.381Z,3,GR86-022-13,1.6,0.124,0.043,100.0,5.0,,0.0,0.0,
2025-08-15T04:33:43.424Z,3,GR86-022-13,1.6,0.094,0.035,99.99,5.0,,0.0,0.0,
2025-08-15T04:33:43.468Z,3,GR86-022-13,1.5,0.117,0.061,99.99,5.0,,0.0,0.0,
2025-08-15T04:33:43.511Z,3,GR86-022-13,1.1,0.116,0.061,100.01,5.0,6813.0,0.0,0.0,
2025-08-15T04:33:43.553Z,3,GR86-022-13,0.3,0.116,0.085,100.0,5.0,,0.0,0.0,200.52
2025-08-15T04:33:43.597Z,3,GR86-022-13,-0.2,0.107,-0.009,99.99,5.0,,0.0,0.0,
2025-08-15T04:33:43.639Z,3,GR86-022-13,-0.2,0.084,0.012,100.01,5.0,,0.0,0.0,
2025-08-15T04:33:43.682Z,3,GR86-022-13,-0.4,0.106,0.017,100.0,5.0,,0.0,0.0,
2025-08-15T04:33:43.725Z,3,GR86-022-13,-0.5,0.115,-0.029,100.01,5.0,6832.0,0.0,0.0,
2025-08-15T04:33:43.768Z,3,GR86-022-13,-0.5,0.119,-0.051,100.01,5.0,,0.0,0.0,201.27
2025-08-15T04:33:43.811Z,3,GR86-022-13,-0.5,0.134,-0.051,100.0,5.0,,0.0,0.0,
2025-08-15T04:33:43.854Z,3,GR86-022-13,-0.5,0.145,-0.092,99.99,5.0,,0.0,0.0,
2025-08-15T04:33:43.898Z,3,GR86-022-13,-0.5,0.096,-0.054,100.02,5.0,,0.0,0.0,
2025-08-15T04:33:43.941Z,3,GR86-022-13,-0.5,0.13,-0.059,100.02,5.0,6859.0,0.0,0.0,
2025-08-15T04:33:43.984Z,3,GR86-022-13,-0.5,0.131,-0.06,100.0,5.0,,0.0,0.0,202.1
2025-08-15T04:33:44.028Z,3,GR86-022-13,-0.5,0.139,-0.013,99.95,5.0,,0.0,0.0,
2025-08-15T04:33:44.071Z,3,GR86-022-13,-0.5,0.117,-0.048,99.99,5.0,,0.0,0.0,
2025-08-15T04:33:44.115Z,3,GR86-022-13,-0.2,0.131,-0.042,99.98,5.0,,0.0,0.0,
2025-08-15T04:33:44.158Z,3,GR86-022-13,0.4,0.124,0.006,99.99,5.0,6874.0,0.0,0.0,
2025-08-15T04:33:44.201Z,3,GR86-022-13,0.5,0.123,-0.027,100.03,5.0,,0.0,0.0,202.89
2025-08-15T04:33:44.244Z,3,GR86-022-13,0.8,0.115,-0.043,99.98,5.0,,0.0,0.0,
2025-08-15T04:33:44.288Z,3,GR86-022-13,1.1,0.113,-0.035,99.99,5.0,,0.0,0.0,
2025-08-15T04:33:44.373Z,3,GR86-022-13,1.6,0.1,-0.013,100.01,5.0,6907.0,0.0,0.0,
2025-08-15T04:33:44.417Z,3,GR86-022-13,4.3,0.12,0.037,100.02,5.0,,0.0,0.0,203.43
2025-08-15T04:33:44.459Z,3,GR86-022-13,4.3,0.096,0.052,100.03,5.0,,0.0,0.0,
2025-08-15T04:33:44.502Z,3,GR86-022-13,3.9,0.092,0.091,100.01,5.0,,0.0,0.0,
2025-08-15T04:33:44.545Z,3,GR86-022-13,2.8000000000000003,0.118,0.109,100.01,5.0,,0.0,0.0,
2025-08-15T04:33:44.588Z,3,GR86-022-13,0.7000000000000001,0.106,0.107,100.02,5.0,6927.0,0.0,0.0,
2025-08-15T04:33:44.631Z,3,GR86-022-13,0.1,0.129,0.11,99.98,5.0,,0.0,0.0,204.2
2025-08-15T04:33:44.675Z,3,GR86-022-13,0.2,0.133,0.066,100.01,5.0,,0.0,0.0,
2025-08-15T04:33:44.718Z,3,GR86-022-13,1.9,0.107,0.064,100.0,5.0,,0.0,0.0,
2025-08-15T04:33:44.761Z,3,GR86-022-13,3.3000000000000003,0.134,0.046,99.98,5.0,,0.0,0.0,
2025-08-15T04:33:44.804Z,3,GR86-022-13,4.6000000000000005,0.126,0.02,99.97,5.0,6952.0,0.0,0.0,
2025-08-15T04:33:44.848Z,3,GR86-022-13,4.800000000000001,0.125,0.012,99.99,5.0,,0.0,0.0,204.96
2025-08-15T04:33:44.891Z,3,GR86-022-13,4.5,0.138,0.012,99.99,5.0,,0.0,0.0,
2025-08-15T04:33:44.934Z,3,GR86-022-13,4.1000000000000005,0.081,0.017,99.96,5.0,,0.0,0.0,
2025-08-15T04:33:44.978Z,3,GR86-022-13,4.1000000000000005,0.115,0.107,99.97,5.0,,0.0,0.0,
2025-08-15T04:33:45.021Z,3,GR86-022-13,4.1000000000000005,0.12,0.111,99.99,5.0,6983.0,0.0,0.0,
2025-08-15T04:33:45.064Z,3,GR86-022-13,4.1000000000000005,0.106,0.152,100.02,5.0,,0.0,0.0,205.7
2025-08-15T04:33:45.108Z,3,GR86-022-13,4.1000000000000005,0.105,0.122,100.01,5.0,,0.0,0.0,
2025-08-15T04:33:45.151Z,3,GR86-022-13,4.0,0.09,0.126,100.0,5.0,,0.0,0.0,
2025-08-15T04:33:45.194Z,3,GR86-022-13,3.8,0.134,0.157,100.0,5.0,,0.0,0.0,
2025-08-15T04:33:45.238Z,3,GR86-022-13,3.5,0.091,0.107,99.99,5.0,7013.0,0.0,0.0,
2025-08-15T04:33:45.281Z,3,GR86-022-13,3.5,0.103,0.093,100.0,5.0,,0.0,0.0,207.26
2025-08-15T04:33:45.324Z,3,GR86-022-13,4.3,0.109,0.091,99.98,5.0,,0.0,0.0,
2025-08-15T04:33:45.368Z,3,GR86-022-13,5.5,0.112,0.1,100.02,5.0,,0.0,0.0,
2025-08-15T04:33:45.410Z,3,GR86-022-13,6.800000000000001,0.12,0.07,100.02,5.0,,0.0,0.0,
2025-08-15T04:33:45.453Z,3,GR86-022-13,7.4,0.112,0.104,100.0,5.0,7035.0,0.0,0.0,
2025-08-15T04:33:45.497Z,3,GR86-022-13,7.4,0.127,0.11,100.02,5.0,,0.0,0.0,208.12
2025-08-15T04:33:45.541Z,3,GR86-022-13,7.5,0.118,0.177,99.97,5.0,,0.0,0.0,
2025-08-15T04:33:45.584Z,3,GR86-022-13,8.200000000000001,0.099,0.174,100.02,5.0,,0.0,0.0,
2025-08-15T04:33:45.628Z,3,GR86-022-13,9.4,0.091,0.225,100.02,5.0,,0.0,0.0,
2025-08-15T04:33:45.670Z,3,GR86-022-13,10.3,0.09,0.275,100.01,5.0,7059.0,0.0,0.0,
2025-08-15T04:33:45.713Z,3,GR86-022-13,10.4,0.11,0.301,100.02,5.0,,0.0,0.0,208.78
2025-08-15T04:33:45.757Z,3,GR86-022-13,9.1,0.091,0.282,99.97,5.0,,0.0,0.0,
2025-08-15T04:33:45.799Z,3,GR86-022-13,7.4,0.077,0.293,100.03,5.0,,0.0,0.0,
2025-08-15T04:33:45.842Z,3,GR86-022-13,6.1000000000000005,0.106,0.304,100.01,5.0,,0.0,0.0,
2025-08-15T04:33:45.887Z,3,GR86-022-13,5.7,0.13,0.298,100.0,5.0,7111.0,0.0,0.0,
2025-08-15T04:33:45.929Z,3,GR86-022-13,5.7,0.126,0.276,99.99,5.0,,0.0,0.0,209.45
2025-08-15T04:33:45.972Z,3,GR86-022-13,5.6000000000000005,0.089,0.212,99.99,5.0,,0.0,0.0,
2025-08-15T04:33:46.015Z,3,GR86-022-13,5.0,0.115,0.217,99.99,5.0,,0.0,0.0,
2025-08-15T04:33:46.058Z,3,GR86-022-13,4.9,0.1,0.167,99.99,5.0,,0.0,0.0,
2025-08-15T04:33:46.101Z,3,GR86-022-13,5.300000000000001,0.081,0.15,99.98,5.0,7133.0,0.0,0.0,
2025-08-15T04:33:46.144Z,3,GR86-022-13,6.2,0.088,0.139,100.01,5.0,,0.0,0.0,210.17
2025-08-15T04:33:46.188Z,3,GR86-022-13,7.0,0.096,0.155,99.98,5.0,,0.0,0.0,
2025-08-15T04:33:46.232Z,3,GR86-022-13,7.6,0.1,0.224,100.02,5.0,,0.0,0.0,
2025-08-15T04:33:46.275Z,3,GR86-022-13,7.800000000000001,0.12,0.214,100.01,5.0,,0.0,0.0,
2025-08-15T04:33:46.318Z,3,GR86-022-13,7.2,0.085,0.231,100.03,5.0,7152.0,0.0,0.0,
2025-08-15T04:33:46.361Z,3,GR86-022-13,6.300000000000001,0.117,0.251,100.02,5.0,,0.0,0.0,210.74
2025-08-15T04:33:46.404Z,3,GR86-022-13,5.7,0.089,0.257,99.98,5.0,,0.0,0.0,
2025-08-15T04:33:46.448Z,3,GR86-022-13,5.4,0.138,0.231,100.0,5.0,,0.0,0.0,
2025-08-15T04:33:46.490Z,3,GR86-022-13,5.4,0.076,0.181,99.95,5.0,,0.0,0.0,
2025-08-15T04:33:46.533Z,3,GR86-022-13,5.4,0.108,0.122,100.03,5.0,7163.0,0.0,0.0,
2025-08-15T04:33:46.578Z,3,GR86-022-13,5.4,0.093,0.148,99.96,5.0,,5.83,6.12,211.29
2025-08-15T04:33:46.621Z,3,GR86-022-13,5.4,0.035,0.124,100.03,5.0,,4.0600000000000005,4.47,
2025-08-15T04:33:46.664Z,3,GR86-022-13,5.7,0.059,0.131,100.03,5.0,,0.0,0.0,
2025-08-15T04:33:46.708Z,3,GR86-022-13,6.9,0.092,0.155,99.98,5.0,,7.645,8.33,
2025-08-15T04:33:46.750Z,3,GR86-022-13,7.800000000000001,-0.013,0.169,100.02,5.0,7193.0,11.675,11.87,
2025-08-15T04:33:46.793Z,3,GR86-022-13,7.9,-0.049,0.213,99.97,5.0,,11.675,12.175,212.1
2025-08-15T04:33:46.837Z,3,GR86-022-13,7.9,-0.016,0.216,100.01,5.0,,5.555,6.12,
2025-08-15T04:33:46.881Z,3,GR86-022-13,7.7,0.078,0.23,99.99,5.0,,0.0,1.955,
2025-08-15T04:33:46.924Z,3,GR86-022-13,7.6,0.057,0.228,100.03,5.0,,0.0,0.0,
2025-08-15T04:33:46.968Z,3,GR86-022-13,7.5,0.11,0.23,99.99,5.0,7208.0,0.0,0.0,
2025-08-15T04:33:47.010Z,3,GR86-022-13,7.5,0.08,0.258,99.99,5.0,,0.0,0.0,212.67
2025-08-15T04:33:47.053Z,3,GR86-022-13,7.5,0.104,0.264,100.01,5.0,,0.0,0.0,
2025-08-15T04:33:47.099Z,3,GR86-022-13,7.5,0.095,0.283,99.99,5.0,,0.0,0.0,
2025-08-15T04:33:47.141Z,3,GR86-022-13,7.7,0.086,0.257,100.01,5.0,,0.0,0.0,
2025-08-15T04:33:47.184Z,3,GR86-022-13,8.200000000000001,0.089,0.276,99.99,5.0,7210.0,0.0,0.0,
2025-08-15T04:33:47.228Z,3,GR86-022-13,8.4,0.119,0.257,100.0,5.0,,0.0,0.0,212.46
2025-08-15T04:33:47.270Z,3,GR86-022-13,8.4,0.08,0.24,99.97,5.0,,0.0,0.0,
2025-08-15T04:33:47.313Z,3,GR86-022-13,8.4,0.093,0.231,100.03,5.0,,0.0,0.0,
2025-08-15T04:33:47.357Z,3,GR86-022-13,7.4,0.118,0.234,99.99,5.0,,0.0,0.0,
2025-08-15T04:33:47.399Z,3,GR86-022-13,6.0,0.088,0.251,100.0,5.0,7235.0,3.435,3.755,
2025-08-15T04:33:47.442Z,3,GR86-022-13,5.0,0.022,0.227,100.0,5.0,,7.05,7.235,213.06
2025-08-15T04:33:47.485Z,3,GR86-022-13,5.0,-0.06,0.203,96.29,5.0,,12.62,12.835,
2025-08-15T04:33:47.528Z,3,GR86-022-13,5.0,-0.143,0.187,36.25,5.0,,17.09,17.185,
2025-08-15T04:33:47.571Z,3,GR86-022-13,5.4,-0.197,0.186,3.0,5.0,,18.325,18.74,
2025-08-15T04:33:47.614Z,3,GR86-022-13,5.4,-0.242,0.194,2.89,5.0,7267.0,17.990000000000002,18.495,
2025-08-15T04:33:47.658Z,3,GR86-022-13,4.800000000000001,-0.372,0.171,2.82,5.0,,16.895,17.455000000000002,213.97
2025-08-15T04:33:47.701Z,3,GR86-022-13,3.9,-0.654,0.122,2.77,5.0,,16.465,17.09,
2025-08-15T04:33:47.744Z,3,GR86-022-13,3.6,-0.407,0.095,2.73,5.0,,16.19,16.740000000000002,
2025-08-15T04:33:47.788Z,3,GR86-022-13,4.2,-0.38,0.138,2.68,5.0,,14.36,15.06,
2025-08-15T04:33:47.832Z,3,GR86-022-13,6.9,-0.382,0.066,2.65,5.0,7283.0,9.78,10.53,
2025-08-15T04:33:47.875Z,3,GR86-022-13,10.3,-0.336,0.087,2.63,5.0,,6.2700000000000005,6.96,214.76
2025-08-15T04:33:47.918Z,3,GR86-022-13,13.5,-0.251,0.134,2.61,5.0,,4.715,5.22,
2025-08-15T04:33:47.961Z,3,GR86-022-13,13.1,-0.281,0.198,2.6,5.0,,4.715,5.22,
2025-08-15T04:33:48.004Z,3,GR86-022-13,10.8,-0.278,0.245,2.56,5.0,,5.05,5.34,
2025-08-15T04:33:48.048Z,3,GR86-022-13,7.800000000000001,-0.255,0.287,2.54,5.0,6900.0,5.16,5.555,
2025-08-15T04:33:48.091Z,3,GR86-022-13,6.1000000000000005,-0.241,0.266,2.54,5.0,,5.905,6.2700000000000005,211.62
2025-08-15T04:33:48.134Z,3,GR86-022-13,6.300000000000001,-0.294,0.321,2.53,5.0,,8.24,8.36,
2025-08-15T04:33:48.178Z,3,GR86-022-13,7.2,-0.324,0.308,2.52,5.0,,10.835,10.68,
2025-08-15T04:33:48.221Z,3,GR86-022-13,6.800000000000001,-0.35,0.332,2.5,5.0,,12.955,12.985,
2025-08-15T04:33:48.264Z,3,GR86-022-13,6.300000000000001,-0.382,0.289,2.51,5.0,7049.0,15.06,15.305,
2025-08-15T04:33:48.308Z,3,GR86-022-13,6.9,-0.47,0.271,2.5,5.0,,20.05,20.02,209.83
2025-08-15T04:33:48.350Z,3,GR86-022-13,8.0,-0.546,0.254,2.5,5.0,,25.15,25.12,
2025-08-15T04:33:48.393Z,3,GR86-022-13,8.3,-0.5650000000000001,0.273,2.5,5.0,,27.805,27.805,
2025-08-15T04:33:48.437Z,3,GR86-022-13,8.9,-0.643,0.265,2.5,5.0,,28.58,28.84,
2025-08-15T04:33:48.479Z,3,GR86-022-13,10.6,-0.653,0.303,2.49,5.0,6888.0,29.865,29.895,
2025-08-15T04:33:48.522Z,3,GR86-022-13,12.2,-0.676,0.315,2.49,5.0,,34.9,34.715,207.59
2025-08-15T04:33:48.565Z,3,GR86-022-13,12.2,-0.756,0.355,2.5,5.0,,40.805,40.47,
2025-08-15T04:33:48.608Z,3,GR86-022-13,11.2,-0.789,0.387,2.48,5.0,,43.46,43.23,
2025-08-15T04:33:48.651Z,3,GR86-022-13,7.5,-0.809,0.371,2.49,5.0,,48.59,48.085,
2025-08-15T04:33:48.694Z,3,GR86-022-13,4.2,-1.005,0.338,2.51,5.0,6731.0,60.795,60.14,
2025-08-15T04:33:48.738Z,3,GR86-022-13,0.5,-1.234,0.283,2.5,5.0,,81.03,81.0,203.92
2025-08-15T04:33:48.781Z,3,GR86-022-13,-1.9,-1.319,0.344,2.5,5.0,,91.405,92.065,
2025-08-15T04:33:48.824Z,3,GR86-022-13,-7.0,-1.281,0.33,2.5,5.0,,97.74,97.315,
2025-08-15T04:33:48.868Z,3,GR86-022-13,-11.6,-1.347,0.238,2.5,5.0,,103.34,103.905,
2025-08-15T04:33:48.911Z,3,GR86-022-13,-9.2,-1.427,0.367,2.5,5.0,6474.0,107.11,107.825,
2025-08-15T04:33:48.953Z,3,GR86-022-13,-0.1,-1.345,0.249,2.5,5.0,,104.59,104.12,199.06
2025-08-15T04:33:48.997Z,3,GR86-022-13,8.700000000000001,-1.172,0.294,53.42,5.0,,108.53,110.21,
2025-08-15T04:33:49.039Z,3,GR86-022-13,8.1,-1.212,0.246,36.54,4.0,,110.375,112.175,
2025-08-15T04:33:49.082Z,3,GR86-022-13,7.7,-1.146,0.261,5.19,4.0,,109.78,112.205,
2025-08-15T04:33:49.125Z,3,GR86-022-13,9.2,-1.21,0.19,3.87,4.0,6021.0,107.98,109.72,
2025-08-15T04:33:49.168Z,3,GR86-022-13,11.7,-1.391,0.151,3.42,4.0,,109.065,109.75,192.53
2025-08-15T04:33:49.211Z,3,GR86-022-13,12.3,-1.153,0.232,3.23,4.0,,107.585,108.5,
2025-08-15T04:33:49.254Z,3,GR86-022-13,8.8,-1.267,0.218,3.08,4.0,,107.98,109.75,
2025-08-15T04:33:49.298Z,3,GR86-022-13,5.300000000000001,-1.304,0.183,2.94,4.0,,107.265,107.49,
2025-08-15T04:33:49.341Z,3,GR86-022-13,7.9,-1.298,0.173,2.85,4.0,5957.0,110.145,111.705,
2025-08-15T04:33:49.384Z,3,GR86-022-13,11.9,-1.296,0.146,25.94,4.0,,109.52,110.68,181.62
2025-08-15T04:33:49.428Z,3,GR86-022-13,11.7,-1.351,0.233,73.01,4.0,,109.37,110.115,
2025-08-15T04:33:49.471Z,3,GR86-022-13,5.4,-1.374,0.224,100.05,4.0,,109.935,110.055,
2025-08-15T04:33:49.514Z,3,GR86-022-13,0.5,-1.358,0.119,79.93,3.0,,110.955,110.59,
2025-08-15T04:33:49.558Z,3,GR86-022-13,6.1000000000000005,-1.322,0.121,4.5200000000000005,3.0,6336.0,111.125,111.93,
2025-08-15T04:33:49.601Z,3,GR86-022-13,10.1,-1.323,0.097,2.78,3.0,,111.87,113.045,171.18
2025-08-15T04:33:49.644Z,3,GR86-022-13,10.5,-1.222,0.077,2.58,3.0,,110.62,110.865,
2025-08-15T04:33:49.688Z,3,GR86-022-13,10.0,-1.276,0.286,2.53,3.0,,107.795,109.065,
2025-08-15T04:33:49.730Z,3,GR86-022-13,7.7,-1.318,0.211,2.51,3.0,,109.185,110.315,
2025-08-15T04:33:49.817Z,3,GR86-022-13,5.7,-1.337,0.232,2.5,3.0,6230.0,110.055,110.145,164.27
2025-08-15T04:33:49.859Z,3,GR86-022-13,0.2,-1.33,0.129,2.49,3.0,,109.935,109.81,
2025-08-15T04:33:49.902Z,3,GR86-022-13,-1.2000000000000002,-1.324,0.167,2.5,3.0,,111.705,111.43,
2025-08-15T04:33:49.945Z,3,GR86-022-13,1.0,-1.332,0.066,16.28,3.0,,110.27,110.115,
2025-08-15T04:33:49.988Z,3,GR86-022-13,6.6000000000000005,-1.37,0.06,59.89,2.0,6803.0,112.205,111.78,
2025-08-15T04:33:50.031Z,3,GR86-022-13,11.3,-1.404,0.079,12.76,2.0,,113.885,114.115,153.44
2025-08-15T04:33:50.074Z,3,GR86-022-13,9.5,-1.23,0.235,4.54,2.0,,113.855,115.87,
2025-08-15T04:33:50.118Z,3,GR86-022-13,1.7000000000000002,-1.387,0.096,3.61,2.0,,110.435,110.805,
2025-08-15T04:33:50.161Z,3,GR86-022-13,1.5,-1.367,0.153,3.3000000000000003,2.0,,108.745,109.63,
2025-08-15T04:33:50.204Z,3,GR86-022-13,4.0,-1.322,0.22,3.16,2.0,6513.0,105.8,107.765,
2025-08-15T04:33:50.248Z,3,GR86-022-13,7.0,-1.152,0.067,3.02,2.0,,98.365,98.81,147.69
2025-08-15T04:33:50.291Z,3,GR86-022-13,6.4,-1.383,0.282,2.95,2.0,,92.52,93.33,
2025-08-15T04:33:50.334Z,3,GR86-022-13,6.5,-1.233,0.336,2.86,2.0,,93.055,94.46,
2025-08-15T04:33:50.378Z,3,GR86-022-13,10.3,-1.35,0.29,2.72,2.0,,85.44,85.84,
2025-08-15T04:33:50.421Z,3,GR86-022-13,12.9,-1.174,0.383,2.64,2.0,6504.0,83.365,83.58,
2025-08-15T04:33:50.464Z,3,GR86-022-13,13.7,-1.226,0.169,2.61,2.0,,83.305,83.09,137.75
2025-08-15T04:33:50.508Z,3,GR86-022-13,11.9,-1.204,0.378,2.5500000000000003,2.0,,82.68,82.08500000000001,
2025-08-15T04:33:50.551Z,3,GR86-022-13,11.5,-1.195,0.334,2.54,2.0,,80.865,80.345,
2025-08-15T04:33:50.594Z,3,GR86-022-13,12.1,-1.183,0.23,2.53,2.0,,78.865,78.545,
2025-08-15T04:33:50.681Z,3,GR86-022-13,14.8,-1.166,0.34,2.52,2.0,6521.0,73.63,75.4,122.35
2025-08-15T04:33:50.724Z,3,GR86-022-13,17.7,-1.154,0.403,2.51,2.0,,70.99,71.98,
2025-08-15T04:33:50.768Z,3,GR86-022-13,20.9,-1.095,0.455,2.51,2.0,,64.365,65.33,
2025-08-15T04:33:50.810Z,3,GR86-022-13,23.1,-1.022,0.479,2.52,2.0,,60.11,61.42,
2025-08-15T04:33:50.853Z,3,GR86-022-13,25.5,-1.063,0.528,2.51,2.0,6700.0,56.495000000000005,57.53,
2025-08-15T04:33:50.897Z,3,GR86-022-13,29.200000000000003,-0.964,0.601,44.65,1.0,,55.335,55.945,114.4
2025-08-15T04:33:50.941Z,3,GR86-022-13,29.1,-1.079,0.577,38.52,1.0,,58.845,59.745000000000005,
2025-08-15T04:33:50.984Z,3,GR86-022-13,27.700000000000003,-1.225,0.467,5.55,1.0,,57.53,58.46,
2025-08-15T04:33:51.028Z,3,GR86-022-13,25.3,-0.874,0.628,4.03,1.0,,53.15,54.495000000000005,
2025-08-15T04:33:51.070Z,3,GR86-022-13,23.9,-0.777,0.707,3.58,1.0,5984.0,45.125,45.935,
2025-08-15T04:33:51.113Z,3,GR86-022-13,24.0,-1.145,0.59,3.3000000000000003,1.0,,42.12,42.65,107.28
2025-08-15T04:33:51.157Z,3,GR86-022-13,25.4,-0.623,0.8230000000000001,3.0500000000000003,1.0,,42.715,43.89,
2025-08-15T04:33:51.199Z,3,GR86-022-13,25.4,-0.781,0.734,2.92,1.0,,36.99,37.89,
2025-08-15T04:33:51.244Z,3,GR86-022-13,25.5,-0.74,0.851,2.79,1.0,,35.435,35.645,
2025-08-15T04:33:51.287Z,3,GR86-022-13,27.3,-0.928,0.658,2.69,1.0,6097.0,39.675,40.12,
2025-08-15T04:33:51.329Z,3,GR86-022-13,32.4,-0.892,0.635,2.61,1.0,,45.065,45.81,100.53
2025-08-15T04:33:51.373Z,3,GR86-022-13,37.0,-0.783,0.754,2.58,1.0,,48.555,48.895,
2025-08-15T04:33:51.415Z,3,GR86-022-13,43.0,-0.899,0.647,2.5500000000000003,1.0,,49.870000000000005,49.9,
2025-08-15T04:33:51.458Z,3,GR86-022-13,50.1,-0.883,0.711,2.54,1.0,,54.495000000000005,54.385,
2025-08-15T04:33:51.501Z,3,GR86-022-13,54.7,-0.929,0.661,2.53,1.0,6386.0,54.95,55.545,
2025-08-15T04:33:51.544Z,3,GR86-022-13,61.2,-0.926,0.634,2.51,1.0,,52.175,53.365,94.15
2025-08-15T04:33:51.588Z,3,GR86-022-13,68.10000000000001,-0.753,0.798,2.51,1.0,,39.495,40.53,
2025-08-15T04:33:51.631Z,3,GR86-022-13,72.8,-0.55,0.876,2.51,1.0,,27.745,28.52,
2025-08-15T04:33:51.673Z,3,GR86-022-13,75.5,-0.471,0.889,2.5,1.0,,20.935,21.655,
2025-08-15T04:33:51.717Z,3,GR86-022-13,76.2,-0.425,0.887,2.52,1.0,6153.0,16.495,17.275000000000002,
2025-08-15T04:33:51.761Z,3,GR86-022-13,74.2,-0.5650000000000001,0.937,2.51,1.0,,13.735,14.51,87.68
2025-08-15T04:33:51.803Z,3,GR86-022-13,70.3,-0.445,1.062,2.5,1.0,,9.035,9.52,
2025-08-15T04:33:51.847Z,3,GR86-022-13,67.9,-0.256,1.031,2.5,1.0,,2.76,3.19,
2025-08-15T04:33:51.890Z,3,GR86-022-13,69.9,-0.17,1.028,2.51,1.0,,0.0,0.0,
2025-08-15T04:33:51.933Z,3,GR86-022-13,76.10000000000001,-0.202,1.089,2.5,1.0,5615.0,0.0,0.0,
2025-08-15T04:33:51.978Z,3,GR86-022-13,83.5,-0.18,1.099,2.5,1.0,,0.0,0.0,82.5
2025-08-15T04:33:52.021Z,3,GR86-022-13,85.0,-0.171,1.168,2.5,1.0,,0.0,0.0,
2025-08-15T04:33:52.064Z,3,GR86-022-13,85.0,-0.164,1.169,2.5,1.0,,0.0,0.0,
2025-08-15T04:33:52.108Z,3,GR86-022-13,85.0,-0.174,1.203,2.49,1.0,,0.0,0.0,
2025-08-15T04:33:52.150Z,3,GR86-022-13,85.0,-0.191,1.162,2.5,1.0,5504.0,0.0,0.0,
2025-08-15T04:33:52.193Z,3,GR86-022-13,85.0,-0.184,1.136,2.54,1.0,,0.0,0.0,79.12
2025-08-15T04:33:52.237Z,3,GR86-022-13,84.5,-0.17,1.107,20.61,1.0,,0.0,0.0,
2025-08-15T04:33:52.324Z,3,GR86-022-13,84.4,-0.153,1.2,20.87,1.0,,0.0,0.0,
2025-08-15T04:33:52.368Z,3,GR86-022-13,84.0,-0.104,1.186,26.55,1.0,5437.0,0.0,0.0,
2025-08-15T04:33:52.410Z,3,GR86-022-13,83.80000000000001,-0.097,1.223,30.24,1.0,,0.0,0.0,77.4
2025-08-15T04:33:52.453Z,3,GR86-022-13,81.60000000000001,-0.082,1.206,38.54,1.0,,0.0,0.0,
2025-08-15T04:33:52.497Z,3,GR86-022-13,71.5,0.17,1.193,46.12,1.0,,0.0,0.0,
2025-08-15T04:33:52.541Z,3,GR86-022-13,62.8,0.276,1.118,60.870000000000005,1.0,,0.0,0.0,
2025-08-15T04:33:52.584Z,3,GR86-022-13,57.8,0.381,1.086,73.39,1.0,5336.0,0.0,0.0,
2025-08-15T04:33:52.628Z,3,GR86-022-13,55.8,0.395,1.034,98.08,1.0,,0.0,0.0,76.05
2025-08-15T04:33:52.670Z,3,GR86-022-13,55.8,0.435,0.946,100.1,1.0,,0.0,0.0,
2025-08-15T04:33:52.713Z,3,GR86-022-13,56.5,0.391,1.108,100.26,1.0,,0.0,0.0,
2025-08-15T04:33:52.757Z,3,GR86-022-13,56.7,0.331,1.016,100.25,1.0,,0.0,0.0,
2025-08-15T04:33:52.799Z,3,GR86-022-13,57.8,0.259,1.001,100.26,1.0,5707.0,0.0,0.0,
2025-08-15T04:33:52.842Z,3,GR86-022-13,62.7,0.388,0.944,100.26,1.0,,0.0,0.0,74.99
2025-08-15T04:33:52.885Z,3,GR86-022-13,68.60000000000001,0.391,0.991,100.27,1.0,,0.0,0.0,
2025-08-15T04:33:52.928Z,3,GR86-022-13,73.0,0.388,0.882,100.25,1.0,,0.0,0.0,
2025-08-15T04:33:52.971Z,3,GR86-022-13,75.2,0.337,1.066,100.26,1.0,,0.0,0.0,
2025-08-15T04:33:53.014Z,3,GR86-022-13,75.60000000000001,0.321,1.071,100.27,1.0,5814.0,0.0,0.0,
2025-08-15T04:33:53.059Z,3,GR86-022-13,76.0,0.263,0.968,100.25,1.0,,0.0,0.0,74.92
2025-08-15T04:33:53.101Z,3,GR86-022-13,76.0,0.333,1.105,100.24,1.0,,0.0,0.0,
2025-08-15T04:33:53.144Z,3,GR86-022-13,76.0,0.402,0.988,100.23,1.0,,0.0,0.0,
2025-08-15T04:33:53.188Z,3,GR86-022-13,76.0,0.162,1.084,100.24,1.0,,0.0,0.0,
2025-08-15T04:33:53.231Z,3,GR86-022-13,76.0,0.277,1.16,100.22,1.0,6096.0,0.0,0.0,
2025-08-15T04:33:53.274Z,3,GR86-022-13,76.0,0.32,0.94,100.21,1.0,,0.0,0.0,76.76
2025-08-15T04:33:53.318Z,3,GR86-022-13,75.9,0.158,0.96,100.19,1.0,,0.0,0.0,
2025-08-15T04:33:53.361Z,3,GR86-022-13,74.2,0.168,1.046,100.2,1.0,,0.0,0.0,
2025-08-15T04:33:53.404Z,3,GR86-022-13,69.7,0.401,1.073,100.18,1.0,,0.0,0.0,
2025-08-15T04:33:53.448Z,3,GR86-022-13,63.3,0.254,1.26,100.16,1.0,6201.0,0.0,0.0,
2025-08-15T04:33:53.491Z,3,GR86-022-13,53.8,0.612,1.144,100.15,1.0,,0.0,0.0,81.55
2025-08-15T04:33:53.534Z,3,GR86-022-13,46.1,0.541,1.056,100.15,1.0,,0.0,0.0,
2025-08-15T04:33:53.578Z,3,GR86-022-13,47.8,0.425,1.055,100.09,1.0,,0.0,0.0,
2025-08-15T04:33:53.621Z,3,GR86-022-13,53.3,0.328,1.035,100.04,1.0,,0.0,0.0,
2025-08-15T04:33:53.664Z,3,GR86-022-13,55.1,0.26,1.039,100.05,1.0,6258.0,0.0,0.0,
2025-08-15T04:33:53.708Z,3,GR86-022-13,53.3,0.308,1.084,100.07,1.0,,0.0,0.0,83.2
2025-08-15T04:33:53.750Z,3,GR86-022-13,52.8,0.332,1.011,100.04,1.0,,0.0,0.0,
2025-08-15T04:33:53.793Z,3,GR86-022-13,56.900000000000006,0.369,1.012,100.04,1.0,,0.0,0.0,
2025-08-15T04:33:53.837Z,3,GR86-022-13,67.2,0.379,1.001,100.04,1.0,,0.0,0.0,
2025-08-15T04:33:53.879Z,3,GR86-022-13,71.7,0.37,1.006,100.03,1.0,6524.0,0.0,0.0,
2025-08-15T04:33:53.922Z,3,GR86-022-13,72.2,0.324,1.028,100.01,1.0,,0.0,0.0,85.78
2025-08-15T04:33:53.965Z,3,GR86-022-13,71.4,0.307,1.051,99.99,1.0,,0.0,0.0,
2025-08-15T04:33:54.008Z,3,GR86-022-13,70.0,0.294,1.098,100.02,1.0,,0.0,0.0,
2025-08-15T04:33:54.051Z,3,GR86-022-13,68.9,0.322,1.104,100.01,1.0,,0.0,0.0,
2025-08-15T04:33:54.094Z,3,GR86-022-13,67.4,0.318,1.132,100.03,1.0,6709.0,0.0,0.0,
2025-08-15T04:33:54.138Z,3,GR86-022-13,60.7,0.344,1.113,100.01,1.0,,0.0,0.0,87.51
2025-08-15T04:33:54.181Z,3,GR86-022-13,53.400000000000006,0.345,1.117,99.98,1.0,,0.0,0.0,
2025-08-15T04:33:54.224Z,3,GR86-022-13,47.0,0.327,1.06,100.0,1.0,,0.0,0.0,
2025-08-15T04:33:54.268Z,3,GR86-022-13,45.3,0.331,1.041,100.01,1.0,,0.0,0.0,
2025-08-15T04:33:54.311Z,3,GR86-022-13,47.400000000000006,0.365,1.033,100.05,1.0,6904.0,0.0,0.0,
2025-08-15T04:33:54.353Z,3,GR86-022-13,52.6,0.35,1.02,100.02,1.0,,0.0,0.0,89.74
2025-08-15T04:33:54.397Z,3,GR86-022-13,59.400000000000006,0.315,1.083,100.0,1.0,,0.0,0.0,
2025-08-15T04:33:54.439Z,3,GR86-022-13,61.3,0.31,1.072,100.02,1.0,,0.0,0.0,
2025-08-15T04:33:54.482Z,3,GR86-022-13,59.5,0.32,1.101,99.97,1.0,,0.0,0.0,
2025-08-15T04:33:54.527Z,3,GR86-022-13,52.900000000000006,0.307,0.66,99.99,1.0,7074.0,0.0,0.0,
2025-08-15T04:33:54.569Z,3,GR86-022-13,42.400000000000006,0.261,0.7030000000000001,99.99,1.0,,0.0,0.0,92.1
2025-08-15T04:33:54.612Z,3,GR86-022-13,33.300000000000004,0.225,0.963,100.03,1.0,,0.0,0.0,
2025-08-15T04:33:54.655Z,3,GR86-022-13,24.8,0.274,0.897,100.0,1.0,,0.0,0.0,
2025-08-15T04:33:54.698Z,3,GR86-022-13,12.5,0.114,0.718,100.0,1.0,,0.0,0.0,
2025-08-15T04:33:54.741Z,3,GR86-022-13,7.4,0.154,0.792,100.0,1.0,7241.0,0.0,0.0,
2025-08-15T04:33:54.784Z,3,GR86-022-13,6.6000000000000005,0.229,0.805,99.98,1.0,,0.0,0.0,93.75
2025-08-15T04:33:54.828Z,3,GR86-022-13,5.2,0.203,0.8180000000000001,99.99,1.0,,0.0,0.0,
2025-08-15T04:33:54.871Z,3,GR86-022-13,-0.6000000000000001,0.004,0.585,100.0,2.0,,0.0,0.0,
2025-08-15T04:33:54.914Z,3,GR86-022-13,-4.2,0.446,0.24,100.0,2.0,,0.0,0.0,
2025-08-15T04:33:54.958Z,3,GR86-022-13,-1.3,0.757,0.539,99.99,2.0,7290.0,0.0,0.0,
2025-08-15T04:33:55.001Z,3,GR86-022-13,7.5,0.484,0.609,100.0,2.0,,0.0,0.0,95.81
2025-08-15T04:33:55.044Z,3,GR86-022-13,21.6,0.511,0.725,100.01,2.0,,0.0,0.0,
2025-08-15T04:33:55.088Z,3,GR86-022-13,32.2,0.261,0.5660000000000001,100.0,2.0,,0.0,0.0,
2025-08-15T04:33:55.130Z,3,GR86-022-13,31.700000000000003,0.09,0.343,100.0,2.0,,0.0,0.0,
2025-08-15T04:33:55.173Z,3,GR86-022-13,29.4,-0.069,0.349,100.02,2.0,6900.0,0.0,0.0,
2025-08-15T04:33:55.217Z,3,GR86-022-13,31.1,0.379,0.609,100.0,2.0,,0.0,0.0,96.63
2025-08-15T04:33:55.260Z,3,GR86-022-13,32.7,0.208,0.413,99.99,2.0,,0.0,0.0,
2025-08-15T04:33:55.303Z,3,GR86-022-13,32.800000000000004,-0.158,0.263,99.99,2.0,,0.0,0.0,
2025-08-15T04:33:55.348Z,3,GR86-022-13,30.9,-0.105,0.218,100.02,2.0,,0.0,0.0,
2025-08-15T04:33:55.391Z,3,GR86-022-13,27.3,0.031,0.557,100.01,2.0,5874.0,0.0,0.0,
2025-08-15T04:33:55.434Z,3,GR86-022-13,22.700000000000003,0.35,0.721,100.0,2.0,,0.0,0.0,97.76
2025-08-15T04:33:55.478Z,3,GR86-022-13,15.2,0.041,0.653,99.98,2.0,,0.0,0.0,
2025-08-15T04:33:55.521Z,3,GR86-022-13,10.2,0.096,0.56,99.99,2.0,,0.0,0.0,
2025-08-15T04:33:55.564Z,3,GR86-022-13,4.4,-0.079,0.133,99.98,2.0,,0.0,0.0,
2025-08-15T04:33:55.608Z,3,GR86-022-13,0.2,-0.078,0.465,100.0,2.0,5921.0,0.0,0.0,
2025-08-15T04:33:55.650Z,3,GR86-022-13,-1.1,0.277,0.432,100.0,2.0,,0.0,0.0,100.0
2025-08-15T04:33:55.693Z,3,GR86-022-13,-1.4,0.321,0.537,100.0,2.0,,0.0,0.0,
2025-08-15T04:33:55.737Z,3,GR86-022-13,-1.1,0.265,0.274,100.0,2.0,,0.0,0.0,
2025-08-15T04:33:55.781Z,3,GR86-022-13,-0.5,0.135,0.337,100.0,2.0,,0.0,0.0,
2025-08-15T04:33:55.824Z,3,GR86-022-13,-0.5,0.082,0.146,100.02,2.0,6092.0,0.0,0.0,
2025-08-15T04:33:55.868Z,3,GR86-022-13,-2.5,-0.014,0.068,100.0,2.0,,0.0,0.0,101.66
2025-08-15T04:33:55.910Z,3,GR86-022-13,-7.2,-0.033,0.055,99.98,2.0,,0.0,0.0,
2025-08-15T04:33:55.953Z,3,GR86-022-13,-10.7,0.138,-0.09,100.02,2.0,,0.0,0.0,
2025-08-15T04:33:55.997Z,3,GR86-022-13,-11.3,0.433,-0.257,99.98,2.0,,0.0,0.0,
2025-08-15T04:33:56.041Z,3,GR86-022-13,-10.8,0.359,-0.323,100.01,2.0,6225.0,0.0,0.0,
2025-08-15T04:33:56.084Z,3,GR86-022-13,-9.8,0.26,-0.325,100.01,2.0,,0.0,0.0,105.3
2025-08-15T04:33:56.128Z,3,GR86-022-13,-8.3,0.089,-0.373,100.0,2.0,,0.0,0.0,
2025-08-15T04:33:56.170Z,3,GR86-022-13,-4.5,0.222,-0.321,100.0,2.0,,0.0,0.0,
2025-08-15T04:33:56.213Z,3,GR86-022-13,-0.3,0.146,-0.308,100.0,2.0,,0.0,0.0,
2025-08-15T04:33:56.257Z,3,GR86-022-13,1.7000000000000002,0.414,-0.391,99.99,2.0,6184.0,0.0,0.0,
2025-08-15T04:33:56.299Z,3,GR86-022-13,-0.6000000000000001,0.442,-0.29,99.99,2.0,,0.0,0.0,106.83
2025-08-15T04:33:56.342Z,3,GR86-022-13,-3.2,0.397,-0.345,100.01,2.0,,0.0,0.0,
2025-08-15T04:33:56.385Z,3,GR86-022-13,-3.7,0.412,-0.273,99.99,2.0,,0.0,0.0,
2025-08-15T04:33:56.428Z,3,GR86-022-13,-3.6,0.392,-0.261,100.03,2.0,,0.0,0.0,
2025-08-15T04:33:56.471Z,3,GR86-022-13,-3.0,0.383,-0.226,99.99,2.0,6242.0,0.0,0.0,
2025-08-15T04:33:56.514Z,3,GR86-022-13,-1.4,0.336,-0.203,100.01,2.0,,0.0,0.0,108.61
2025-08-15T04:33:56.558Z,3,GR86-022-13,1.9,0.302,-0.154,99.98,2.0,,0.0,0.0,
2025-08-15T04:33:56.601Z,3,GR86-022-13,3.6,0.25,-0.175,100.01,2.0,,0.0,0.0,
2025-08-15T04:33:56.644Z,3,GR86-022-13,4.0,0.256,-0.152,99.99,2.0,,0.0,0.0,
2025-08-15T04:33:56.688Z,3,GR86-022-13,3.9,0.28,-0.143,100.0,2.0,6404.0,0.0,0.0,
2025-08-15T04:33:56.730Z,3,GR86-022-13,3.8,0.28,-0.119,100.0,2.0,,0.0,0.0,110.4
2025-08-15T04:33:56.773Z,3,GR86-022-13,5.0,0.291,-0.051,100.02,2.0,,0.0,0.0,
2025-08-15T04:33:56.817Z,3,GR86-022-13,10.8,0.328,0.02,100.02,2.0,,0.0,0.0,
2025-08-15T04:33:56.859Z,3,GR86-022-13,13.1,0.33,0.082,100.01,2.0,,0.0,0.0,
2025-08-15T04:33:56.902Z,3,GR86-022-13,12.0,0.345,0.13,99.99,2.0,6504.0,0.0,0.0,
2025-08-15T04:33:56.945Z,3,GR86-022-13,7.9,0.306,0.154,100.03,2.0,,0.0,0.0,112.04
2025-08-15T04:33:56.988Z,3,GR86-022-13,3.8,0.297,0.101,99.98,2.0,,0.0,0.0,
2025-08-15T04:33:57.031Z,3,GR86-022-13,2.3000000000000003,0.314,0.069,100.01,2.0,,0.0,0.0,
2025-08-15T04:33:57.074Z,3,GR86-022-13,3.0,0.297,0.04,100.02,2.0,,0.0,0.0,
2025-08-15T04:33:57.118Z,3,GR86-022-13,3.7,0.312,0.009,100.01,2.0,6604.0,0.0,0.0,
2025-08-15T04:33:57.161Z,3,GR86-022-13,3.4000000000000004,0.308,0.014,99.99,2.0,,0.0,0.0,113.98
2025-08-15T04:33:57.204Z,3,GR86-022-13,3.2,0.322,-0.002,99.99,2.0,,0.0,0.0,
2025-08-15T04:33:57.248Z,3,GR86-022-13,3.1,0.309,-0.019,100.01,2.0,,0.0,0.0,
2025-08-15T04:33:57.290Z,3,GR86-022-13,3.1,0.294,-0.019,100.02,2.0,,0.0,0.0,
2025-08-15T04:33:57.333Z,3,GR86-022-13,3.1,0.301,-0.014,100.0,2.0,6685.0,0.0,0.0,
2025-08-15T04:33:57.378Z,3,GR86-022-13,3.1,0.312,-0.013,100.02,2.0,,0.0,0.0,115.48
2025-08-15T04:33:57.421Z,3,GR86-022-13,3.1,0.311,-0.025,100.0,2.0,,0.0,0.0,
2025-08-15T04:33:57.464Z,3,GR86-022-13,3.1,0.308,0.006,100.0,2.0,,0.0,0.0,
2025-08-15T04:33:57.508Z,3,GR86-022-13,3.1,0.304,0.002,100.0,2.0,,0.0,0.0,
2025-08-15T04:33:57.550Z,3,GR86-022-13,2.5,0.3,-0.008,99.99,2.0,6752.0,0.0,0.0,
2025-08-15T04:33:57.593Z,3,GR86-022-13,2.0,0.307,-0.008,100.01,2.0,,0.0,0.0,117.06
2025-08-15T04:33:57.637Z,3,GR86-022-13,1.3,0.3,-0.007,99.98,2.0,,0.0,0.0,
2025-08-15T04:33:57.681Z,3,GR86-022-13,1.2000000000000002,0.303,-0.015,99.98,2.0,,0.0,0.0,
2025-08-15T04:33:57.724Z,3,GR86-022-13,1.2000000000000002,0.295,-0.018,100.0,2.0,,0.0,0.0,
2025-08-15T04:33:57.768Z,3,GR86-022-13,1.0,0.313,-0.033,100.01,2.0,6843.0,0.0,0.0,
2025-08-15T04:33:57.810Z,3,GR86-022-13,1.0,0.301,-0.042,99.98,2.0,,0.0,0.0,118.61
2025-08-15T04:33:57.853Z,3,GR86-022-13,1.0,0.289,-0.053,99.98,2.0,,0.0,0.0,
2025-08-15T04:33:57.899Z,3,GR86-022-13,0.5,0.305,-0.055,100.02,2.0,,0.0,0.0,
2025-08-15T04:33:57.941Z,3,GR86-022-13,0.5,0.309,-0.035,100.02,2.0,,0.0,0.0,
2025-08-15T04:33:57.984Z,3,GR86-022-13,0.5,0.296,-0.043,100.0,2.0,6925.0,0.0,0.0,
2025-08-15T04:33:58.028Z,3,GR86-022-13,0.5,0.293,-0.044,100.01,2.0,,0.0,0.0,120.14
2025-08-15T04:33:58.070Z,3,GR86-022-13,0.5,0.296,-0.043,100.0,2.0,,0.0,0.0,
2025-08-15T04:33:58.113Z,3,GR86-022-13,0.5,0.307,-0.041,99.98,2.0,,0.0,0.0,
2025-08-15T04:33:58.157Z,3,GR86-022-13,0.5,0.303,-0.058,100.03,2.0,,0.0,0.0,
2025-08-15T04:33:58.199Z,3,GR86-022-13,0.5,0.278,-0.073,99.99,2.0,7005.0,0.0,0.0,
2025-08-15T04:33:58.243Z,3,GR86-022-13,0.5,0.285,-0.065,99.97,2.0,,0.0,0.0,121.52
2025-08-15T04:33:58.287Z,3,GR86-022-13,0.5,0.31,-0.06,100.0,2.0,,0.0,0.0,
2025-08-15T04:33:58.332Z,3,GR86-022-13,0.8,0.287,-0.073,99.99,2.0,,0.0,0.0,
2025-08-15T04:33:58.375Z,3,GR86-022-13,1.2000000000000002,0.29,-0.059,100.03,2.0,,5.465,5.74,
2025-08-15T04:33:58.418Z,3,GR86-022-13,2.1,0.227,-0.068,100.01,2.0,7084.0,5.7700000000000005,6.24,
2025-08-15T04:33:58.461Z,3,GR86-022-13,2.4000000000000004,0.24,-0.031,100.03,2.0,,5.9350000000000005,6.2700000000000005,122.79
2025-08-15T04:33:58.504Z,3,GR86-022-13,2.4000000000000004,0.201,-0.054,100.0,2.0,,6.2700000000000005,6.575,
2025-08-15T04:33:58.548Z,3,GR86-022-13,2.4000000000000004,0.232,-0.03,99.98,2.0,,2.305,2.76,
2025-08-15T04:33:58.591Z,3,GR86-022-13,2.6,0.292,-0.016,100.01,2.0,,0.0,0.0,
2025-08-15T04:33:58.634Z,3,GR86-022-13,2.6,0.279,-0.047,99.99,2.0,7153.0,0.0,0.0,
2025-08-15T04:33:58.678Z,3,GR86-022-13,3.1,0.29,-0.023,100.01,2.0,,0.0,0.0,125.14
2025-08-15T04:33:58.721Z,3,GR86-022-13,3.2,0.275,-0.03,100.01,2.0,,0.0,0.0,
2025-08-15T04:33:58.764Z,3,GR86-022-13,3.2,0.288,0.002,99.99,2.0,,0.0,0.0,
2025-08-15T04:33:58.808Z,3,GR86-022-13,3.4000000000000004,0.294,-0.002,99.99,2.0,,0.0,0.0,
2025-08-15T04:33:58.850Z,3,GR86-022-13,3.7,0.252,-0.021,100.03,2.0,7210.0,0.0,0.0,
2025-08-15T04:33:58.893Z,3,GR86-022-13,4.4,0.237,-0.011,100.0,2.0,,0.0,0.0,126.01
2025-08-15T04:33:58.937Z,3,GR86-022-13,5.300000000000001,0.188,0.002,100.03,2.0,,0.0,0.0,
2025-08-15T04:33:58.979Z,3,GR86-022-13,5.4,0.184,0.018,100.0,2.0,,0.0,0.0,
2025-08-15T04:33:59.022Z,3,GR86-022-13,5.2,0.173,0.021,99.99,2.0,,0.0,0.0,
2025-08-15T04:33:59.065Z,3,GR86-022-13,4.2,0.152,0.033,100.01,2.0,7272.0,0.0,0.0,
2025-08-15T04:33:59.108Z,3,GR86-022-13,4.0,0.151,0.039,99.96,2.0,,0.0,0.0,127.16
2025-08-15T04:33:59.151Z,3,GR86-022-13,4.0,0.134,0.022,99.98,2.0,,0.0,0.0,
2025-08-15T04:33:59.194Z,3,GR86-022-13,3.7,0.089,0.043,100.01,2.0,,0.0,0.0,
2025-08-15T04:33:59.238Z,3,GR86-022-13,3.7,0.096,0.028,100.01,2.0,,0.0,0.0,
2025-08-15T04:33:59.281Z,3,GR86-022-13,3.7,0.062,0.032,100.0,2.0,7277.0,0.0,0.0,
2025-08-15T04:33:59.324Z,3,GR86-022-13,3.7,0.089,0.019,100.01,2.0,,0.0,0.0,128.01
2025-08-15T04:33:59.368Z,3,GR86-022-13,3.7,0.099,0.005,99.97,2.0,,0.0,0.0,
2025-08-15T04:33:59.410Z,3,GR86-022-13,3.9,0.089,-0.006,100.03,2.0,,0.0,0.0,
2025-08-15T04:33:59.453Z,3,GR86-022-13,4.800000000000001,0.113,0.011,99.99,2.0,,0.0,0.0,
2025-08-15T04:33:59.497Z,3,GR86-022-13,5.2,0.13,0.018,100.0,2.0,7256.0,0.0,0.0,
2025-08-15T04:33:59.539Z,3,GR86-022-13,5.2,0.108,0.019,99.99,2.0,,0.0,0.0,128.36
2025-08-15T04:33:59.583Z,3,GR86-022-13,5.2,0.069,0.02,100.03,2.0,,0.0,0.0,
2025-08-15T04:33:59.629Z,3,GR86-022-13,5.2,0.11,0.033,100.0,2.0,,0.0,0.0,
2025-08-15T04:33:59.671Z,3,GR86-022-13,5.2,0.159,0.038,99.96,2.0,,0.0,0.0,
2025-08-15T04:33:59.714Z,3,GR86-022-13,5.2,0.138,0.037,100.01,2.0,7243.0,0.0,0.0,
2025-08-15T04:33:59.758Z,3,GR86-022-13,4.4,0.132,0.051,100.0,2.0,,0.0,0.0,128.17000000000002
2025-08-15T04:33:59.801Z,3,GR86-022-13,3.3000000000000003,0.126,0.036,100.01,2.0,,0.0,0.0,
2025-08-15T04:33:59.844Z,3,GR86-022-13,2.5,0.138,0.045,99.97,2.0,,0.0,0.0,
2025-08-15T04:33:59.888Z,3,GR86-022-13,2.5,0.155,0.02,100.02,2.0,,0.0,0.0,
2025-08-15T04:33:59.930Z,3,GR86-022-13,2.5,0.113,0.007,99.99,2.0,7255.0,0.0,0.0,
2025-08-15T04:33:59.973Z,3,GR86-022-13,2.6,0.151,0.002,100.0,2.0,,0.0,0.0,128.0
2025-08-15T04:34:00.017Z,3,GR86-022-13,2.6,0.124,-0.002,99.97,2.0,,0.0,0.0,
2025-08-15T04:34:00.060Z,3,GR86-022-13,2.7,0.12,-0.011,100.0,2.0,,0.0,0.0,
2025-08-15T04:34:00.103Z,3,GR86-022-13,3.3000000000000003,0.077,-0.009,99.98,2.0,,5.9350000000000005,6.15,
2025-08-15T04:34:00.148Z,3,GR86-022-13,4.9,-0.023,-0.001,75.87,2.0,7338.0,9.66,9.63,
2025-08-15T04:34:00.191Z,3,GR86-022-13,7.4,-0.032,0.03,24.73,2.0,,12.3,12.175,128.03
2025-08-15T04:34:00.234Z,3,GR86-022-13,7.9,-0.024,0.041,2.75,2.0,,15.365,15.335,
2025-08-15T04:34:00.278Z,3,GR86-022-13,6.2,-0.213,0.057,2.7,2.0,,20.385,20.235,
2025-08-15T04:34:00.321Z,3,GR86-022-13,5.300000000000001,-0.355,0.068,2.69,2.0,,25.27,25.15,
2025-08-15T04:34:00.364Z,3,GR86-022-13,5.300000000000001,-0.458,0.049,2.67,2.0,7308.0,31.055,30.765,
2025-08-15T04:34:00.408Z,3,GR86-022-13,6.1000000000000005,-0.7010000000000001,0.052,2.66,2.0,,39.34,38.865,128.17000000000002
2025-08-15T04:34:00.451Z,3,GR86-022-13,8.6,-0.729,0.087,2.64,2.0,,47.245,46.74,
2025-08-15T04:34:00.494Z,3,GR86-022-13,12.6,-0.806,0.103,2.63,2.0,,53.24,52.555,
2025-08-15T04:34:00.538Z,3,GR86-022-13,17.3,-0.906,0.239,2.6,2.0,,56.155,55.775,
2025-08-15T04:34:00.581Z,3,GR86-022-13,19.8,-0.835,0.254,2.61,2.0,7127.0,49.23,50.585,
2025-08-15T04:34:00.624Z,3,GR86-022-13,20.1,-0.8170000000000001,0.318,2.59,2.0,,46.025,47.46,127.53
2025-08-15T04:34:00.668Z,3,GR86-022-13,20.1,-0.941,0.354,2.5500000000000003,2.0,,43.765,44.56,
2025-08-15T04:34:00.711Z,3,GR86-022-13,21.700000000000003,-0.853,0.376,2.5500000000000003,2.0,,41.46,41.585,
2025-08-15T04:34:00.753Z,3,GR86-022-13,24.1,-0.753,0.447,2.54,2.0,,41.05,41.185,
2025-08-15T04:34:00.797Z,3,GR86-022-13,30.1,-0.765,0.537,2.54,2.0,6695.0,38.865,39.525,
2025-08-15T04:34:00.841Z,3,GR86-022-13,31.700000000000003,-0.623,0.588,2.53,2.0,,30.52,31.39,124.28
2025-08-15T04:34:00.884Z,3,GR86-022-13,29.8,-0.531,0.623,2.51,2.0,,24.4,25.3,
2025-08-15T04:34:00.928Z,3,GR86-022-13,29.1,-0.539,0.65,2.53,2.0,,21.715,22.555,
2025-08-15T04:34:00.970Z,3,GR86-022-13,31.3,-0.527,0.648,2.52,2.0,,20.935,21.625,
2025-08-15T04:34:01.013Z,3,GR86-022-13,34.5,-0.512,0.663,2.53,2.0,6266.0,21.18,21.625,
2025-08-15T04:34:01.057Z,3,GR86-022-13,36.4,-0.492,0.745,2.5,2.0,,21.835,22.28,117.84
2025-08-15T04:34:01.099Z,3,GR86-022-13,36.4,-0.489,0.728,2.51,2.0,,22.705,23.025,
2025-08-15T04:34:01.143Z,3,GR86-022-13,36.6,-0.518,0.736,2.51,2.0,,22.905,23.09,
2025-08-15T04:34:01.187Z,3,GR86-022-13,39.0,-0.522,0.759,2.52,2.0,,23.655,23.99,
2025-08-15T04:34:01.229Z,3,GR86-022-13,41.3,-0.521,0.781,2.5,2.0,6097.0,24.86,25.15,
2025-08-15T04:34:01.272Z,3,GR86-022-13,43.3,-0.531,0.84,2.51,2.0,,26.535,26.6,113.42
2025-08-15T04:34:01.315Z,3,GR86-022-13,44.7,-0.537,0.859,2.5,2.0,,27.68,27.775,
2025-08-15T04:34:01.358Z,3,GR86-022-13,46.3,-0.534,0.872,2.52,2.0,,28.125,28.52,
2025-08-15T04:34:01.401Z,3,GR86-022-13,46.5,-0.544,0.907,2.52,2.0,,29.435,29.865,
2025-08-15T04:34:01.444Z,3,GR86-022-13,46.2,-0.558,0.994,2.51,2.0,5929.0,29.21,29.985,
2025-08-15T04:34:01.488Z,3,GR86-022-13,38.6,-0.499,1.001,2.51,2.0,,27.15,27.925,105.43
2025-08-15T04:34:01.531Z,3,GR86-022-13,32.6,-0.449,0.899,2.51,2.0,,23.455,24.02,
2025-08-15T04:34:01.573Z,3,GR86-022-13,32.800000000000004,-0.408,0.953,2.51,2.0,,17.03,17.52,
2025-08-15T04:34:01.617Z,3,GR86-022-13,39.8,-0.374,0.989,2.52,2.0,,14.145,14.48,
2025-08-15T04:34:01.659Z,3,GR86-022-13,44.8,-0.325,1.051,2.52,2.0,5612.0,11.615,11.84,
2025-08-15T04:34:01.702Z,3,GR86-022-13,48.2,-0.265,1.123,2.52,2.0,,7.11,7.43,101.4
2025-08-15T04:34:01.745Z,3,GR86-022-13,52.5,-0.179,1.136,2.51,2.0,,2.015,2.075,
2025-08-15T04:34:01.788Z,3,GR86-022-13,57.8,-0.155,1.179,2.51,2.0,,0.0,0.0,
2025-08-15T04:34:01.831Z,3,GR86-022-13,59.5,-0.169,1.183,2.51,2.0,,0.0,0.0,
2025-08-15T04:34:01.874Z,3,GR86-022-13,57.2,-0.153,1.236,2.5,2.0,5330.0,0.0,0.0,
2025-08-15T04:34:01.918Z,3,GR86-022-13,49.2,-0.123,1.187,2.5,2.0,,0.0,0.0,97.66
2025-08-15T04:34:01.961Z,3,GR86-022-13,48.3,-0.128,1.199,2.51,2.0,,0.0,0.0,
2025-08-15T04:34:02.004Z,3,GR86-022-13,50.6,-0.131,1.185,2.51,2.0,,0.0,0.0,
2025-08-15T04:34:02.048Z,3,GR86-022-13,53.400000000000006,-0.132,1.203,2.5,2.0,,0.0,0.0,
2025-08-15T04:34:02.090Z,3,GR86-022-13,54.7,-0.123,1.21,2.71,2.0,5207.0,0.0,0.0,
2025-08-15T04:34:02.133Z,3,GR86-022-13,56.1,-0.125,1.206,7.09,2.0,,0.0,0.0,95.54
2025-08-15T04:34:02.178Z,3,GR86-022-13,60.5,-0.147,1.238,22.37,2.0,,0.0,0.0,
2025-08-15T04:34:02.221Z,3,GR86-022-13,63.2,-0.122,1.199,25.67,2.0,,0.0,0.0,
2025-08-15T04:34:02.264Z,3,GR86-022-13,63.5,-0.075,1.26,32.51,2.0,,0.0,0.0,
2025-08-15T04:34:02.350Z,3,GR86-022-13,63.5,-0.068,1.218,37.0,2.0,5137.0,0.0,0.0,93.98
2025-08-15T04:34:02.393Z,3,GR86-022-13,64.60000000000001,0.242,1.124,49.74,2.0,,0.0,0.0,
2025-08-15T04:34:02.437Z,3,GR86-022-13,66.2,0.295,1.112,51.11,2.0,,0.0,0.0,
2025-08-15T04:34:02.481Z,3,GR86-022-13,66.4,0.295,1.11,50.84,2.0,,0.0,0.0,
2025-08-15T04:34:02.524Z,3,GR86-022-13,66.4,0.253,1.086,50.7,2.0,5154.0,0.0,0.0,
2025-08-15T04:34:02.568Z,3,GR86-022-13,66.3,0.18,1.234,55.77,2.0,,0.0,0.0,92.65
2025-08-15T04:34:02.610Z,3,GR86-022-13,66.3,0.21,1.275,56.96,2.0,,0.0,0.0,
2025-08-15T04:34:02.653Z,3,GR86-022-13,67.2,0.317,1.169,65.25,2.0,,0.0,0.0,
2025-08-15T04:34:02.699Z,3,GR86-022-13,68.60000000000001,0.504,1.173,79.8,2.0,,0.0,0.0,
2025-08-15T04:34:02.741Z,3,GR86-022-13,69.9,0.282,1.1,95.95,2.0,5452.0,0.0,0.0,
2025-08-15T04:34:02.784Z,3,GR86-022-13,70.7,-0.025,1.151,100.02,2.0,,0.0,0.0,91.65
2025-08-15T04:34:02.828Z,3,GR86-022-13,70.7,0.245,1.29,100.29,2.0,,0.0,0.0,
2025-08-15T04:34:02.870Z,3,GR86-022-13,69.8,0.42,0.989,100.28,2.0,,0.0,0.0,
2025-08-15T04:34:02.913Z,3,GR86-022-13,68.9,0.264,1.137,100.29,2.0,,0.0,0.0,
2025-08-15T04:34:02.957Z,3,GR86-022-13,67.5,0.362,0.917,100.28,2.0,5531.0,0.0,0.0,
2025-08-15T04:34:02.999Z,3,GR86-022-13,66.4,0.078,0.992,100.27,2.0,,0.0,0.0,92.64
2025-08-15T04:34:03.042Z,3,GR86-022-13,65.7,0.061,1.102,100.28,2.0,,0.0,0.0,
2025-08-15T04:34:03.085Z,3,GR86-022-13,64.60000000000001,0.191,1.006,100.28,2.0,,0.0,0.0,
2025-08-15T04:34:03.128Z,3,GR86-022-13,63.2,0.619,1.114,100.26,2.0,,0.0,0.0,
2025-08-15T04:34:03.171Z,3,GR86-022-13,60.6,0.787,1.277,100.23,2.0,5610.0,0.0,0.0,
2025-08-15T04:34:03.259Z,3,GR86-022-13,58.8,0.274,0.999,100.21,2.0,,0.0,0.0,93.98
2025-08-15T04:34:03.301Z,3,GR86-022-13,46.5,0.152,1.188,100.19,2.0,,0.0,0.0,
2025-08-15T04:34:03.344Z,3,GR86-022-13,36.9,0.19,1.294,100.16,2.0,,0.0,0.0,
2025-08-15T04:34:03.388Z,3,GR86-022-13,24.8,0.408,1.248,100.12,2.0,6067.0,0.0,0.0,
2025-08-15T04:34:03.431Z,3,GR86-022-13,20.200000000000003,0.366,1.209,100.08,2.0,,0.0,0.0,95.14
2025-08-15T04:34:03.474Z,3,GR86-022-13,23.9,0.362,1.054,100.09,2.0,,0.0,0.0,
2025-08-15T04:34:03.518Z,3,GR86-022-13,36.4,0.258,1.081,100.09,2.0,,0.0,0.0,
2025-08-15T04:34:03.560Z,3,GR86-022-13,41.7,0.263,1.094,100.07,2.0,,0.0,0.0,
2025-08-15T04:34:03.603Z,3,GR86-022-13,40.3,0.298,1.127,100.04,2.0,5926.0,0.0,0.0,
2025-08-15T04:34:03.648Z,3,GR86-022-13,30.4,0.287,1.183,100.05,2.0,,0.0,0.0,96.84
2025-08-15T04:34:03.691Z,3,GR86-022-13,22.1,0.325,1.065,100.05,2.0,,0.0,0.0,
2025-08-15T04:34:03.734Z,3,GR86-022-13,23.700000000000003,0.31,1.018,100.04,2.0,,0.0,0.0,
2025-08-15T04:34:03.778Z,3,GR86-022-13,37.7,0.283,1.023,100.02,2.0,,0.0,0.0,
2025-08-15T04:34:03.821Z,3,GR86-022-13,45.400000000000006,0.274,1.024,100.02,2.0,5825.0,0.0,0.0,
2025-08-15T04:34:03.864Z,3,GR86-022-13,47.6,0.272,1.1,100.02,2.0,,0.0,0.0,98.62
2025-08-15T04:34:03.908Z,3,GR86-022-13,43.8,0.285,1.059,100.02,2.0,,0.0,0.0,
2025-08-15T04:34:03.950Z,3,GR86-022-13,35.1,0.282,1.041,100.01,2.0,,0.0,0.0,
2025-08-15T04:34:03.993Z,3,GR86-022-13,29.6,0.307,0.951,100.03,2.0,,0.0,0.0,
2025-08-15T04:34:04.037Z,3,GR86-022-13,35.800000000000004,0.322,0.922,100.05,2.0,5969.0,0.0,0.0,
2025-08-15T04:34:04.079Z,3,GR86-022-13,44.0,0.319,0.956,100.04,2.0,,0.0,0.0,101.16
2025-08-15T04:34:04.122Z,3,GR86-022-13,50.6,0.305,0.943,100.02,2.0,,0.0,0.0,
2025-08-15T04:34:04.165Z,3,GR86-022-13,54.900000000000006,0.289,0.963,100.01,2.0,,0.0,0.0,
2025-08-15T04:34:04.251Z,3,GR86-022-13,56.400000000000006,0.265,0.943,99.99,2.0,6008.0,0.0,0.0,
2025-08-15T04:34:04.294Z,3,GR86-022-13,54.8,0.27,0.942,100.0,2.0,,0.0,0.0,103.07
2025-08-15T04:34:04.338Z,3,GR86-022-13,52.6,0.273,0.889,100.01,2.0,,0.0,0.0,
2025-08-15T04:34:04.381Z,3,GR86-022-13,52.5,0.281,0.895,100.01,2.0,,0.0,0.0,
2025-08-15T04:34:04.424Z,3,GR86-022-13,52.5,0.26,0.9,100.02,2.0,,0.0,0.0,
2025-08-15T04:34:04.468Z,3,GR86-022-13,52.6,0.244,0.935,100.0,2.0,6045.0,0.0,0.0,
2025-08-15T04:34:04.510Z,3,GR86-022-13,52.6,0.263,0.974,99.99,2.0,,0.0,0.0,104.14
2025-08-15T04:34:04.553Z,3,GR86-022-13,53.0,0.311,0.911,100.02,2.0,,0.0,0.0,
2025-08-15T04:34:04.597Z,3,GR86-022-13,53.2,0.199,0.851,100.0,2.0,,0.0,0.0,
2025-08-15T04:34:04.641Z,3,GR86-022-13,53.1,0.181,0.745,100.01,2.0,,0.0,0.0,
2025-08-15T04:34:04.684Z,3,GR86-022-13,51.7,0.329,1.02,99.99,2.0,6252.0,0.0,0.0,
2025-08-15T04:34:04.728Z,3,GR86-022-13,50.1,0.324,0.8310000000000001,100.0,2.0,,0.0,0.0,106.14
2025-08-15T04:34:04.771Z,3,GR86-022-13,48.900000000000006,0.317,1.054,100.02,2.0,,0.0,0.0,
2025-08-15T04:34:04.815Z,3,GR86-022-13,48.3,0.328,1.046,99.98,2.0,,0.0,0.0,
2025-08-15T04:34:04.858Z,3,GR86-022-13,47.5,0.277,0.97,99.99,2.0,,0.0,0.0,
2025-08-15T04:34:04.901Z,3,GR86-022-13,44.2,0.245,1.03,100.01,2.0,6377.0,0.0,0.0,
2025-08-15T04:34:04.944Z,3,GR86-022-13,38.3,0.246,0.934,99.99,2.0,,0.0,0.0,108.35
2025-08-15T04:34:04.988Z,3,GR86-022-13,32.5,0.284,0.909,100.02,2.0,,0.0,0.0,
2025-08-15T04:34:05.030Z,3,GR86-022-13,27.1,0.327,0.892,99.98,2.0,,0.0,0.0,
2025-08-15T04:34:05.073Z,3,GR86-022-13,23.1,0.35,0.877,100.02,2.0,,0.0,0.0,
2025-08-15T04:34:05.117Z,3,GR86-022-13,23.8,0.22,0.743,100.01,2.0,6483.0,0.0,0.0,
2025-08-15T04:34:05.160Z,3,GR86-022-13,26.0,0.259,0.73,100.01,2.0,,0.0,0.0,110.94
2025-08-15T04:34:05.203Z,3,GR86-022-13,27.200000000000003,0.265,0.739,100.02,2.0,,0.0,0.0,
2025-08-15T04:34:05.248Z,3,GR86-022-13,27.3,0.298,0.668,100.01,2.0,,0.0,0.0,
2025-08-15T04:34:05.291Z,3,GR86-022-13,26.700000000000003,0.301,0.6940000000000001,99.98,2.0,,0.0,0.0,
2025-08-15T04:34:05.334Z,3,GR86-022-13,26.4,0.296,0.686,99.99,2.0,6599.0,0.0,0.0,
2025-08-15T04:34:05.378Z,3,GR86-022-13,25.6,0.237,0.562,100.02,2.0,,0.0,0.0,112.12
2025-08-15T04:34:05.421Z,3,GR86-022-13,24.700000000000003,0.305,0.312,99.99,2.0,,0.0,0.0,
2025-08-15T04:34:05.464Z,3,GR86-022-13,23.6,0.221,0.346,99.98,2.0,,0.0,0.0,
2025-08-15T04:34:05.508Z,3,GR86-022-13,22.700000000000003,0.177,0.235,100.01,2.0,,0.0,0.0,
2025-08-15T04:34:05.551Z,3,GR86-022-13,21.9,0.063,0.368,100.03,2.0,6626.0,0.0,0.0,
