timestamp,lap,vehicle_id,steering_angle,accx_can,accy_can,ath,gear,nmot,pbrake_f,pbrake_r,speed
2025-08-15T02:39:38.371Z,15,GR86-030-18,4.1000000000000005,0.11,0.004,99.87,4.0,,0.0,0.0,
2025-08-15T02:39:38.413Z,15,GR86-030-18,4.5,0.127,0.004,99.91,4.0,,0.0,0.0,
2025-08-15T02:39:38.456Z,15,GR86-030-18,4.800000000000001,0.106,0.01,99.89,4.0,6966.0,0.0,0.0,
2025-08-15T02:39:38.500Z,15,GR86-030-18,4.800000000000001,0.095,0.014,99.89,4.0,,0.0,0.0,177.26
2025-08-15T02:39:38.543Z,15,GR86-030-18,4.800000000000001,0.111,0.04,99.92,4.0,,0.0,0.0,
2025-08-15T02:39:38.586Z,15,GR86-030-18,4.6000000000000005,0.108,0.057,99.9,4.0,,0.0,0.0,
2025-08-15T02:39:38.630Z,15,GR86-030-18,4.3,0.113,0.068,99.88,4.0,,0.0,0.0,
2025-08-15T02:39:38.673Z,15,GR86-030-18,3.9,0.118,0.053,99.9,4.0,6996.0,0.0,0.0,
2025-08-15T02:39:38.717Z,15,GR86-030-18,3.6,0.11,0.058,99.89,4.0,,0.0,0.0,177.94
2025-08-15T02:39:38.760Z,15,GR86-030-18,3.5,0.076,0.074,99.9,4.0,,0.0,0.0,
2025-08-15T02:39:38.803Z,15,GR86-030-18,3.4000000000000004,0.082,0.078,99.89,4.0,,0.0,0.0,
2025-08-15T02:39:38.846Z,15,GR86-030-18,3.3000000000000003,0.081,0.059,99.89,4.0,,0.0,0.0,
2025-08-15T02:39:38.890Z,15,GR86-030-18,3.2,0.071,0.044,99.9,4.0,7020.0,0.0,0.0,
2025-08-15T02:39:38.933Z,15,GR86-030-18,3.2,0.08,0.047,99.89,4.0,,0.0,0.0,178.73
2025-08-15T02:39:38.976Z,15,GR86-030-18,3.1,0.077,0.043,99.89,4.0,,0.0,0.0,
2025-08-15T02:39:39.020Z,15,GR86-030-18,2.8000000000000003,0.125,0.05,99.89,4.0,,0.0,0.0,
2025-08-15T02:39:39.063Z,15,GR86-030-18,2.8000000000000003,0.131,0.045,99.89,4.0,,0.0,0.0,
2025-08-15T02:39:39.106Z,15,GR86-030-18,3.0,0.134,0.045,99.92,4.0,7048.0,0.0,0.0,
2025-08-15T02:39:39.150Z,15,GR86-030-18,3.2,0.119,0.051,99.89,4.0,,0.0,0.0,180.04
2025-08-15T02:39:39.193Z,15,GR86-030-18,3.5,0.135,0.067,99.87,4.0,,0.0,0.0,
2025-08-15T02:39:39.235Z,15,GR86-030-18,3.5,0.132,0.059,99.9,4.0,,0.0,0.0,
2025-08-15T02:39:39.279Z,15,GR86-030-18,3.2,0.085,0.032,99.9,4.0,,0.0,0.0,
2025-08-15T02:39:39.321Z,15,GR86-030-18,3.0,0.073,0.036,99.92,4.0,7082.0,0.0,0.0,
2025-08-15T02:39:39.364Z,15,GR86-030-18,2.7,0.074,0.036,99.89,4.0,,0.0,0.0,180.72
2025-08-15T02:39:39.407Z,15,GR86-030-18,2.4000000000000004,0.079,0.021,99.88,4.0,,0.0,0.0,
2025-08-15T02:39:39.450Z,15,GR86-030-18,2.3000000000000003,0.078,0.028,99.88,4.0,,0.0,0.0,
2025-08-15T02:39:39.493Z,15,GR86-030-18,2.2,0.074,0.031,99.89,4.0,,0.0,0.0,
2025-08-15T02:39:39.536Z,15,GR86-030-18,2.2,0.079,0.026,99.91,4.0,7097.0,0.0,0.0,
2025-08-15T02:39:39.580Z,15,GR86-030-18,2.0,0.134,0.037,99.88,4.0,,0.0,0.0,181.46
2025-08-15T02:39:39.623Z,15,GR86-030-18,1.8,0.132,0.017,99.9,4.0,,0.0,0.0,
2025-08-15T02:39:39.666Z,15,GR86-030-18,1.6,0.129,0.004,99.89,4.0,,0.0,0.0,
2025-08-15T02:39:39.710Z,15,GR86-030-18,1.6,0.127,0.002,99.89,4.0,,0.0,0.0,
2025-08-15T02:39:39.752Z,15,GR86-030-18,1.7000000000000002,0.121,-0.001,99.9,4.0,7161.0,0.0,0.0,
2025-08-15T02:39:39.795Z,15,GR86-030-18,1.7000000000000002,0.13,-0.012,99.86,4.0,,0.0,0.0,182.19
2025-08-15T02:39:39.840Z,15,GR86-030-18,1.8,0.073,-0.035,99.9,4.0,,0.0,0.0,
2025-08-15T02:39:39.883Z,15,GR86-030-18,2.0,0.068,-0.031,99.86,4.0,,0.0,0.0,
2025-08-15T02:39:39.926Z,15,GR86-030-18,2.2,0.087,-0.037,99.9,4.0,,0.0,0.0,
2025-08-15T02:39:39.970Z,15,GR86-030-18,2.4000000000000004,0.071,-0.038,99.9,4.0,7192.0,0.0,0.0,
2025-08-15T02:39:40.012Z,15,GR86-030-18,2.8000000000000003,0.079,-0.016,99.87,4.0,,0.0,0.0,182.88
2025-08-15T02:39:40.055Z,15,GR86-030-18,3.3000000000000003,0.085,0.004,99.89,4.0,,0.0,0.0,
2025-08-15T02:39:40.099Z,15,GR86-030-18,3.3000000000000003,0.121,-0.001,99.88,4.0,,0.0,0.0,
2025-08-15T02:39:40.141Z,15,GR86-030-18,3.1,0.109,-0.008,99.88,4.0,,0.0,0.0,
2025-08-15T02:39:40.185Z,15,GR86-030-18,2.8000000000000003,0.114,0.017,99.9,4.0,7218.0,0.0,0.0,
2025-08-15T02:39:40.229Z,15,GR86-030-18,2.5,0.115,0.023,99.92,4.0,,0.0,0.0,183.59
2025-08-15T02:39:40.271Z,15,GR86-030-18,2.0,0.09,0.028,99.87,4.0,,0.0,0.0,
2025-08-15T02:39:40.314Z,15,GR86-030-18,1.7000000000000002,-0.097,0.03,99.88,5.0,,0.0,0.0,
2025-08-15T02:39:40.357Z,15,GR86-030-18,1.6,0.011,0.058,99.9,5.0,,0.0,0.0,
2025-08-15T02:39:40.400Z,15,GR86-030-18,2.1,0.189,-0.051,99.89,5.0,7241.0,0.0,0.0,
2025-08-15T02:39:40.443Z,15,GR86-030-18,2.0,0.068,0.014,99.9,5.0,,0.0,0.0,184.36
2025-08-15T02:39:40.486Z,15,GR86-030-18,2.1,-0.035,0.03,99.86,5.0,,0.0,0.0,
2025-08-15T02:39:40.530Z,15,GR86-030-18,2.1,0.082,-0.069,99.9,5.0,,0.0,0.0,
2025-08-15T02:39:40.574Z,15,GR86-030-18,2.1,0.141,0.019,99.89,5.0,,0.0,0.0,
2025-08-15T02:39:40.617Z,15,GR86-030-18,2.2,0.07,-0.001,99.89,5.0,6882.0,0.0,0.0,
2025-08-15T02:39:40.660Z,15,GR86-030-18,2.0,0.072,-0.007,99.89,5.0,,0.0,0.0,185.06
2025-08-15T02:39:40.703Z,15,GR86-030-18,2.0,0.08,-0.006,99.9,5.0,,0.0,0.0,
2025-08-15T02:39:40.746Z,15,GR86-030-18,2.3000000000000003,0.082,-0.011,99.9,5.0,,0.0,0.0,
2025-08-15T02:39:40.790Z,15,GR86-030-18,2.5,0.054,0.013,99.89,5.0,,0.0,0.0,
2025-08-15T02:39:40.832Z,15,GR86-030-18,2.8000000000000003,0.051,-0.005,99.87,5.0,6382.0,0.0,0.0,
2025-08-15T02:39:40.875Z,15,GR86-030-18,2.8000000000000003,0.076,0.019,99.88,5.0,,0.0,0.0,185.57
2025-08-15T02:39:40.919Z,15,GR86-030-18,1.8,0.094,0.01,99.88,5.0,,0.0,0.0,
2025-08-15T02:39:40.963Z,15,GR86-030-18,1.4,0.092,0.006,99.89,5.0,,0.0,0.0,
2025-08-15T02:39:41.006Z,15,GR86-030-18,1.3,0.09,-0.017,99.88,5.0,,0.0,0.0,
2025-08-15T02:39:41.050Z,15,GR86-030-18,1.4,0.1,-0.008,99.9,5.0,6325.0,0.0,0.0,
2025-08-15T02:39:41.093Z,15,GR86-030-18,1.3,0.086,-0.013,99.9,5.0,,0.0,0.0,186.13
2025-08-15T02:39:41.135Z,15,GR86-030-18,1.2000000000000002,0.082,-0.026,99.89,5.0,,0.0,0.0,
2025-08-15T02:39:41.179Z,15,GR86-030-18,1.3,0.054,-0.03,99.87,5.0,,0.0,0.0,
2025-08-15T02:39:41.221Z,15,GR86-030-18,1.5,0.044,-0.05,99.88,5.0,,0.0,0.0,
2025-08-15T02:39:41.264Z,15,GR86-030-18,1.9,0.057,-0.054,99.89,5.0,6348.0,0.0,0.0,
2025-08-15T02:39:41.307Z,15,GR86-030-18,2.1,0.067,-0.059,99.9,5.0,,0.0,0.0,186.76
2025-08-15T02:39:41.350Z,15,GR86-030-18,2.2,0.057,-0.056,99.89,5.0,,0.0,0.0,
2025-08-15T02:39:41.393Z,15,GR86-030-18,2.1,0.046,-0.066,99.91,5.0,,0.0,0.0,
2025-08-15T02:39:41.436Z,15,GR86-030-18,2.1,0.086,-0.071,99.89,5.0,,0.0,0.0,
2025-08-15T02:39:41.480Z,15,GR86-030-18,2.3000000000000003,0.066,-0.041,99.87,5.0,6374.0,0.0,0.0,
2025-08-15T02:39:41.524Z,15,GR86-030-18,2.5,0.039,-0.046,99.89,5.0,,0.0,0.0,187.4
2025-08-15T02:39:41.567Z,15,GR86-030-18,2.7,0.064,-0.043,99.87,5.0,,0.0,0.0,
2025-08-15T02:39:41.610Z,15,GR86-030-18,2.7,0.044,-0.051,99.89,5.0,,0.0,0.0,
2025-08-15T02:39:41.653Z,15,GR86-030-18,2.6,0.064,-0.041,99.89,5.0,,0.0,0.0,
2025-08-15T02:39:41.696Z,15,GR86-030-18,2.5,0.058,-0.028,99.89,5.0,6387.0,0.0,0.0,
2025-08-15T02:39:41.740Z,15,GR86-030-18,2.4000000000000004,0.081,-0.015,99.88,5.0,,0.0,0.0,188.47
2025-08-15T02:39:41.783Z,15,GR86-030-18,2.3000000000000003,0.086,-0.018,99.9,5.0,,0.0,0.0,
2025-08-15T02:39:41.826Z,15,GR86-030-18,2.3000000000000003,0.082,-0.006,99.89,5.0,,0.0,0.0,
2025-08-15T02:39:41.870Z,15,GR86-030-18,2.3000000000000003,0.089,-0.003,99.9,5.0,,0.0,0.0,
2025-08-15T02:39:41.913Z,15,GR86-030-18,2.3000000000000003,0.074,-0.004,99.89,5.0,6405.0,0.0,0.0,
2025-08-15T02:39:41.955Z,15,GR86-030-18,2.3000000000000003,0.085,-0.009,99.9,5.0,,0.0,0.0,188.96
2025-08-15T02:39:41.999Z,15,GR86-030-18,2.6,0.088,-0.022,99.9,5.0,,0.0,0.0,
2025-08-15T02:39:42.041Z,15,GR86-030-18,2.9000000000000004,0.085,-0.015,99.88,5.0,,0.0,0.0,
2025-08-15T02:39:42.084Z,15,GR86-030-18,3.4000000000000004,0.092,0.005,99.89,5.0,,0.0,0.0,
2025-08-15T02:39:42.127Z,15,GR86-030-18,3.5,0.096,0.012,99.89,5.0,6426.0,0.0,0.0,
2025-08-15T02:39:42.170Z,15,GR86-030-18,3.5,0.092,0.029,99.88,5.0,,0.0,0.0,189.39
2025-08-15T02:39:42.213Z,15,GR86-030-18,3.3000000000000003,0.093,0.024,99.9,5.0,,0.0,0.0,
2025-08-15T02:39:42.256Z,15,GR86-030-18,3.1,0.091,0.026,99.89,5.0,,0.0,0.0,
2025-08-15T02:39:42.300Z,15,GR86-030-18,2.8000000000000003,0.075,-0.002,99.89,5.0,,0.0,0.0,
2025-08-15T02:39:42.343Z,15,GR86-030-18,2.6,0.071,0.029,99.87,5.0,6471.0,0.0,0.0,
2025-08-15T02:39:42.386Z,15,GR86-030-18,2.6,0.064,0.032,99.9,5.0,,0.0,0.0,190.0
2025-08-15T02:39:42.430Z,15,GR86-030-18,2.6,0.09,0.042,99.89,5.0,,0.0,0.0,
2025-08-15T02:39:42.473Z,15,GR86-030-18,2.6,0.085,0.04,99.89,5.0,,0.0,0.0,
2025-08-15T02:39:42.516Z,15,GR86-030-18,2.6,0.083,0.051,99.89,5.0,,0.0,0.0,
2025-08-15T02:39:42.560Z,15,GR86-030-18,2.6,0.048,0.038,99.89,5.0,6485.0,0.0,0.0,
2025-08-15T02:39:42.603Z,15,GR86-030-18,2.4000000000000004,0.068,0.018,99.9,5.0,,0.0,0.0,190.76
2025-08-15T02:39:42.646Z,15,GR86-030-18,2.2,0.051,0.005,99.88,5.0,,0.0,0.0,
2025-08-15T02:39:42.690Z,15,GR86-030-18,1.9,0.063,-0.004,99.89,5.0,,0.0,0.0,
2025-08-15T02:39:42.733Z,15,GR86-030-18,2.0,0.077,0.012,99.89,5.0,,0.0,0.0,
2025-08-15T02:39:42.776Z,15,GR86-030-18,2.0,0.068,0.025,99.89,5.0,6520.0,0.0,0.0,
2025-08-15T02:39:42.820Z,15,GR86-030-18,2.1,0.051,0.029,99.9,5.0,,0.0,0.0,191.37
2025-08-15T02:39:42.863Z,15,GR86-030-18,2.2,0.059,0.02,99.89,5.0,,0.0,0.0,
2025-08-15T02:39:42.906Z,15,GR86-030-18,2.2,0.059,0.023,99.9,5.0,,0.0,0.0,
2025-08-15T02:39:42.950Z,15,GR86-030-18,2.1,0.05,0.009,99.89,5.0,,0.0,0.0,
2025-08-15T02:39:42.993Z,15,GR86-030-18,1.9,0.052,-0.02,99.89,5.0,6533.0,0.0,0.0,
2025-08-15T02:39:43.037Z,15,GR86-030-18,1.7000000000000002,0.068,-0.02,99.87,5.0,,0.0,0.0,192.06
2025-08-15T02:39:43.080Z,15,GR86-030-18,1.5,0.066,-0.018,99.89,5.0,,0.0,0.0,
2025-08-15T02:39:43.123Z,15,GR86-030-18,1.5,0.067,-0.003,99.89,5.0,,0.0,0.0,
2025-08-15T02:39:43.166Z,15,GR86-030-18,1.5,0.072,0.01,99.88,5.0,,0.0,0.0,
2025-08-15T02:39:43.210Z,15,GR86-030-18,1.5,0.044,0.006,99.89,5.0,6554.0,0.0,0.0,
2025-08-15T02:39:43.253Z,15,GR86-030-18,1.5,0.067,-0.012,99.89,5.0,,0.0,0.0,192.61
2025-08-15T02:39:43.297Z,15,GR86-030-18,1.5,0.056,-0.025,99.86,5.0,,0.0,0.0,
2025-08-15T02:39:43.340Z,15,GR86-030-18,1.5,0.074,-0.011,99.89,5.0,,0.0,0.0,
2025-08-15T02:39:43.383Z,15,GR86-030-18,1.4,0.07,-0.028,99.89,5.0,,0.0,0.0,
2025-08-15T02:39:43.426Z,15,GR86-030-18,1.3,0.057,-0.056,99.87,5.0,6576.0,0.0,0.0,
2025-08-15T02:39:43.471Z,15,GR86-030-18,1.3,0.061,-0.068,99.89,5.0,,0.0,0.0,193.3
2025-08-15T02:39:43.513Z,15,GR86-030-18,1.2000000000000002,0.055,-0.059,99.89,5.0,,0.0,0.0,
2025-08-15T02:39:43.557Z,15,GR86-030-18,1.2000000000000002,0.053,-0.065,99.9,5.0,,0.0,0.0,
2025-08-15T02:39:43.600Z,15,GR86-030-18,1.7000000000000002,0.084,-0.026,99.88,5.0,,0.0,0.0,
2025-08-15T02:39:43.643Z,15,GR86-030-18,2.4000000000000004,0.072,-0.009,99.9,5.0,6594.0,0.0,0.0,
2025-08-15T02:39:43.686Z,15,GR86-030-18,2.6,0.069,-0.011,99.89,5.0,,0.0,0.0,193.85
2025-08-15T02:39:43.730Z,15,GR86-030-18,2.7,0.076,-0.018,99.89,5.0,,0.0,0.0,
2025-08-15T02:39:43.773Z,15,GR86-030-18,2.6,0.057,-0.013,99.87,5.0,,0.0,0.0,
2025-08-15T02:39:43.815Z,15,GR86-030-18,2.6,0.064,-0.002,99.88,5.0,,0.0,0.0,
2025-08-15T02:39:43.859Z,15,GR86-030-18,2.3000000000000003,0.077,0.02,99.86,5.0,6614.0,0.0,0.0,
2025-08-15T02:39:43.903Z,15,GR86-030-18,2.2,0.092,0.015,99.9,5.0,,0.0,0.0,194.47
2025-08-15T02:39:43.946Z,15,GR86-030-18,2.2,0.069,0.021,99.87,5.0,,0.0,0.0,
2025-08-15T02:39:43.990Z,15,GR86-030-18,2.2,0.063,0.031,99.87,5.0,,0.0,0.0,
2025-08-15T02:39:44.032Z,15,GR86-030-18,2.2,0.063,0.034,99.87,5.0,,0.0,0.0,
2025-08-15T02:39:44.075Z,15,GR86-030-18,2.3000000000000003,0.065,0.03,99.91,5.0,6635.0,0.0,0.0,
2025-08-15T02:39:44.119Z,15,GR86-030-18,2.2,0.088,0.051,99.86,5.0,,0.0,0.0,195.0
2025-08-15T02:39:44.161Z,15,GR86-030-18,2.1,0.068,0.057,99.88,5.0,,0.0,0.0,
2025-08-15T02:39:44.204Z,15,GR86-030-18,1.9,0.075,0.034,99.89,5.0,,0.0,0.0,
2025-08-15T02:39:44.247Z,15,GR86-030-18,2.1,0.066,0.021,99.9,5.0,,0.0,0.0,
2025-08-15T02:39:44.290Z,15,GR86-030-18,2.3000000000000003,0.064,0.011,99.89,5.0,6644.0,0.0,0.0,
2025-08-15T02:39:44.333Z,15,GR86-030-18,2.2,0.056,-0.001,99.89,5.0,,0.0,0.0,195.6
2025-08-15T02:39:44.376Z,15,GR86-030-18,1.8,0.061,-0.006,99.9,5.0,,0.0,0.0,
2025-08-15T02:39:44.420Z,15,GR86-030-18,1.9,0.069,0.016,99.9,5.0,,0.0,0.0,
2025-08-15T02:39:44.463Z,15,GR86-030-18,1.9,0.077,0.02,99.88,5.0,,0.0,0.0,
2025-08-15T02:39:44.506Z,15,GR86-030-18,1.8,0.063,0.016,99.9,5.0,6668.0,0.0,0.0,
2025-08-15T02:39:44.550Z,15,GR86-030-18,1.7000000000000002,0.065,0.0,99.89,5.0,,0.0,0.0,196.76
2025-08-15T02:39:44.593Z,15,GR86-030-18,1.5,0.057,-0.01,99.89,5.0,,0.0,0.0,
2025-08-15T02:39:44.636Z,15,GR86-030-18,1.3,0.045,-0.025,99.89,5.0,,0.0,0.0,
2025-08-15T02:39:44.680Z,15,GR86-030-18,1.4,0.085,-0.003,99.86,5.0,,0.0,0.0,
2025-08-15T02:39:44.722Z,15,GR86-030-18,1.4,0.051,-0.018,99.88,5.0,6693.0,0.0,0.0,
2025-08-15T02:39:44.765Z,15,GR86-030-18,1.3,0.053,-0.041,99.89,5.0,,0.0,0.0,197.18
2025-08-15T02:39:44.809Z,15,GR86-030-18,1.0,0.057,-0.054,99.89,5.0,,0.0,0.0,
2025-08-15T02:39:44.851Z,15,GR86-030-18,1.2000000000000002,0.059,-0.04,99.88,5.0,,0.0,0.0,
2025-08-15T02:39:44.894Z,15,GR86-030-18,1.3,0.036,-0.031,99.87,5.0,,0.0,0.0,
2025-08-15T02:39:44.937Z,15,GR86-030-18,1.5,0.053,-0.04,99.9,5.0,6700.0,0.0,0.0,
2025-08-15T02:39:44.980Z,15,GR86-030-18,2.1,0.068,-0.042,99.89,5.0,,0.0,0.0,197.67
2025-08-15T02:39:45.023Z,15,GR86-030-18,2.5,0.048,-0.051,99.87,5.0,,0.0,0.0,
2025-08-15T02:39:45.066Z,15,GR86-030-18,2.6,0.047,-0.058,99.87,5.0,,0.0,0.0,
2025-08-15T02:39:45.110Z,15,GR86-030-18,2.5,0.036,-0.069,99.89,5.0,,0.0,0.0,
2025-08-15T02:39:45.153Z,15,GR86-030-18,2.1,0.051,-0.072,99.89,5.0,6737.0,0.0,0.0,
2025-08-15T02:39:45.197Z,15,GR86-030-18,1.9,0.032,-0.053,99.88,5.0,,0.0,0.0,198.08
2025-08-15T02:39:45.241Z,15,GR86-030-18,2.4000000000000004,0.019,-0.014,99.9,5.0,,0.0,0.0,
2025-08-15T02:39:45.283Z,15,GR86-030-18,2.6,0.078,0.006,99.87,5.0,,0.0,0.0,
2025-08-15T02:39:45.326Z,15,GR86-030-18,2.4000000000000004,0.032,-0.002,99.89,5.0,,0.0,0.0,
2025-08-15T02:39:45.370Z,15,GR86-030-18,2.0,0.032,-0.013,99.88,5.0,6749.0,0.0,0.0,
2025-08-15T02:39:45.412Z,15,GR86-030-18,1.5,0.059,-0.024,99.89,5.0,,0.0,0.0,198.54
2025-08-15T02:39:45.455Z,15,GR86-030-18,1.5,0.066,-0.025,99.85,5.0,,0.0,0.0,
2025-08-15T02:39:45.499Z,15,GR86-030-18,1.5,0.047,-0.02,99.9,5.0,,0.0,0.0,
2025-08-15T02:39:45.541Z,15,GR86-030-18,0.7000000000000001,0.036,-0.022,99.9,5.0,,0.0,0.0,
2025-08-15T02:39:45.585Z,15,GR86-030-18,0.4,0.043,-0.035,99.88,5.0,6758.0,0.0,0.0,
2025-08-15T02:39:45.629Z,15,GR86-030-18,0.8,0.043,-0.058,99.89,5.0,,0.0,0.0,199.03
2025-08-15T02:39:45.671Z,15,GR86-030-18,1.8,0.059,-0.086,99.89,5.0,,0.0,0.0,
2025-08-15T02:39:45.715Z,15,GR86-030-18,2.4000000000000004,0.064,-0.08,99.9,5.0,,0.0,0.0,
2025-08-15T02:39:45.759Z,15,GR86-030-18,2.5,0.036,-0.072,99.89,5.0,,0.0,0.0,
2025-08-15T02:39:45.802Z,15,GR86-030-18,2.6,0.039,-0.077,99.88,5.0,6774.0,0.0,0.0,
2025-08-15T02:39:45.845Z,15,GR86-030-18,3.1,0.053,-0.062,99.88,5.0,,0.0,0.0,199.29
2025-08-15T02:39:45.889Z,15,GR86-030-18,3.2,0.049,-0.037,99.89,5.0,,0.0,0.0,
2025-08-15T02:39:45.974Z,15,GR86-030-18,3.1,0.071,-0.007,99.88,5.0,,0.0,0.0,
2025-08-15T02:39:46.017Z,15,GR86-030-18,2.9000000000000004,0.075,-0.02,99.9,5.0,6786.0,0.0,0.0,
2025-08-15T02:39:46.060Z,15,GR86-030-18,2.5,0.054,0.002,99.88,5.0,,0.0,0.0,199.75
2025-08-15T02:39:46.103Z,15,GR86-030-18,2.2,0.031,0.001,99.89,5.0,,0.0,0.0,
2025-08-15T02:39:46.146Z,15,GR86-030-18,2.1,0.06,0.011,99.88,5.0,,0.0,0.0,
2025-08-15T02:39:46.190Z,15,GR86-030-18,2.2,0.07,0.015,99.89,5.0,,0.0,0.0,
2025-08-15T02:39:46.233Z,15,GR86-030-18,2.5,0.038,0.027,99.88,5.0,6807.0,0.0,0.0,
2025-08-15T02:39:46.276Z,15,GR86-030-18,2.8000000000000003,0.046,0.027,99.87,5.0,,0.0,0.0,200.12
2025-08-15T02:39:46.321Z,15,GR86-030-18,3.3000000000000003,0.066,0.022,99.88,5.0,,0.0,0.0,
2025-08-15T02:39:46.363Z,15,GR86-030-18,3.3000000000000003,0.049,0.032,99.89,5.0,,0.0,0.0,
2025-08-15T02:39:46.406Z,15,GR86-030-18,3.3000000000000003,0.063,0.03,99.88,5.0,,0.0,0.0,
2025-08-15T02:39:46.450Z,15,GR86-030-18,3.1,0.045,0.032,99.89,5.0,6813.0,0.0,0.0,
2025-08-15T02:39:46.493Z,15,GR86-030-18,2.8000000000000003,0.044,0.04,99.86,5.0,,0.0,0.0,200.59
2025-08-15T02:39:46.535Z,15,GR86-030-18,2.5,0.043,0.045,99.86,5.0,,0.0,0.0,
2025-08-15T02:39:46.579Z,15,GR86-030-18,2.5,0.063,0.056,99.9,5.0,,0.0,0.0,
2025-08-15T02:39:46.621Z,15,GR86-030-18,2.4000000000000004,0.06,0.04,99.86,5.0,,0.0,0.0,
2025-08-15T02:39:46.664Z,15,GR86-030-18,2.2,0.051,0.027,99.86,5.0,6828.0,0.0,0.0,
2025-08-15T02:39:46.707Z,15,GR86-030-18,2.1,0.036,0.033,99.86,5.0,,0.0,0.0,200.91
2025-08-15T02:39:46.753Z,15,GR86-030-18,1.8,0.042,0.02,99.9,5.0,,0.0,0.0,
2025-08-15T02:39:46.797Z,15,GR86-030-18,1.5,0.047,0.001,99.87,5.0,,0.0,0.0,
2025-08-15T02:39:46.840Z,15,GR86-030-18,1.5,0.061,0.0,99.86,5.0,,0.0,0.0,
2025-08-15T02:39:46.883Z,15,GR86-030-18,1.5,0.046,-0.002,99.9,5.0,6844.0,0.0,0.0,
2025-08-15T02:39:46.926Z,15,GR86-030-18,1.5,0.04,-0.012,99.89,5.0,,0.0,0.0,201.3
2025-08-15T02:39:46.970Z,15,GR86-030-18,1.6,0.043,-0.02,99.87,5.0,,0.0,0.0,
2025-08-15T02:39:47.013Z,15,GR86-030-18,2.0,0.048,-0.019,99.89,5.0,,0.0,0.0,
2025-08-15T02:39:47.055Z,15,GR86-030-18,2.2,0.073,-0.013,99.86,5.0,,0.0,0.0,
2025-08-15T02:39:47.099Z,15,GR86-030-18,2.7,0.043,-0.019,99.87,5.0,6850.0,0.0,0.0,
2025-08-15T02:39:47.141Z,15,GR86-030-18,3.0,0.03,-0.017,99.89,5.0,,0.0,0.0,202.13
2025-08-15T02:39:47.184Z,15,GR86-030-18,3.2,0.056,-0.008,79.68,5.0,,0.0,0.0,
2025-08-15T02:39:47.227Z,15,GR86-030-18,3.2,0.061,-0.001,8.64,5.0,,0.0,0.0,
2025-08-15T02:39:47.270Z,15,GR86-030-18,2.8000000000000003,0.075,0.013,4.95,5.0,,0.0,0.0,
2025-08-15T02:39:47.313Z,15,GR86-030-18,2.1,-0.044,0.025,4.73,5.0,6870.0,0.0,0.0,
2025-08-15T02:39:47.356Z,15,GR86-030-18,1.8,-0.163,0.057,4.3,5.0,,0.0,0.0,202.47
2025-08-15T02:39:47.400Z,15,GR86-030-18,1.2000000000000002,-0.368,-0.007,3.69,5.0,,21.44,21.805,
2025-08-15T02:39:47.443Z,15,GR86-030-18,0.5,-0.377,0.056,3.5,5.0,,28.81,28.49,
2025-08-15T02:39:47.486Z,15,GR86-030-18,0.4,-0.665,0.02,3.39,5.0,,35.985,35.31,
2025-08-15T02:39:47.530Z,15,GR86-030-18,0.4,-0.808,0.017,3.19,5.0,6884.0,42.925,42.21,
2025-08-15T02:39:47.573Z,15,GR86-030-18,0.2,-0.95,0.0,2.97,5.0,,49.17,48.3,202.81
2025-08-15T02:39:47.615Z,15,GR86-030-18,-0.2,-1.106,-0.032,2.76,5.0,,54.83,53.9,
2025-08-15T02:39:47.659Z,15,GR86-030-18,0.1,-1.104,-0.036,2.59,5.0,,60.11,59.24,
2025-08-15T02:39:47.701Z,15,GR86-030-18,0.4,-1.104,-0.034,2.57,5.0,,61.82,60.95,
2025-08-15T02:39:47.744Z,15,GR86-030-18,0.5,-1.065,-0.046,2.49,5.0,6613.0,63.865,63.955,
2025-08-15T02:39:47.787Z,15,GR86-030-18,0.5,-1.159,-0.069,2.42,5.0,,66.55,67.845,200.89
2025-08-15T02:39:47.830Z,15,GR86-030-18,0.4,-1.18,-0.072,2.36,5.0,,67.42,67.115,
2025-08-15T02:39:47.873Z,15,GR86-030-18,0.4,-1.26,-0.078,2.34,5.0,,68.18,67.615,
2025-08-15T02:39:47.916Z,15,GR86-030-18,0.4,-1.206,-0.079,2.34,5.0,,70.99,72.24,
2025-08-15T02:39:47.960Z,15,GR86-030-18,0.8,-1.303,-0.117,2.33,5.0,6230.0,72.99,72.3,
2025-08-15T02:39:48.003Z,15,GR86-030-18,1.1,-1.29,-0.109,2.33,5.0,,74.345,74.055,193.33
2025-08-15T02:39:48.046Z,15,GR86-030-18,1.3,-1.355,-0.122,2.35,5.0,,76.24,77.49,
2025-08-15T02:39:48.090Z,15,GR86-030-18,1.3,-1.348,-0.105,2.35,5.0,,76.53,76.42,
2025-08-15T02:39:48.133Z,15,GR86-030-18,1.7000000000000002,-1.319,-0.106,2.35,5.0,,74.53,73.78,
2025-08-15T02:39:48.176Z,15,GR86-030-18,1.8,-1.299,-0.076,2.35,5.0,5884.0,72.575,72.24,
2025-08-15T02:39:48.220Z,15,GR86-030-18,1.5,-1.248,-0.046,2.36,5.0,,68.12,68.775,184.59
2025-08-15T02:39:48.263Z,15,GR86-030-18,1.4,-1.273,-0.053,2.35,5.0,,64.84,64.365,
2025-08-15T02:39:48.306Z,15,GR86-030-18,1.0,-1.189,-0.035,2.36,5.0,,63.205,62.535,
2025-08-15T02:39:48.350Z,15,GR86-030-18,0.4,-1.198,-0.036,2.57,5.0,,62.595,62.0,
2025-08-15T02:39:48.393Z,15,GR86-030-18,0.1,-1.16,-0.003,36.85,4.0,5557.0,62.4,61.85,
2025-08-15T02:39:48.435Z,15,GR86-030-18,-0.2,-1.104,0.033,36.1,4.0,,62.370000000000005,62.0,174.83
2025-08-15T02:39:48.479Z,15,GR86-030-18,-1.7000000000000002,-1.216,0.04,5.04,4.0,,64.9,66.425,
2025-08-15T02:39:48.521Z,15,GR86-030-18,-2.4000000000000004,-1.162,0.025,4.79,4.0,,64.72,64.87,
2025-08-15T02:39:48.564Z,15,GR86-030-18,-4.3,-1.306,0.05,4.4,4.0,,63.895,63.925,
2025-08-15T02:39:48.607Z,15,GR86-030-18,-5.6000000000000005,-1.083,0.034,3.8,4.0,5449.0,64.55,65.39,
2025-08-15T02:39:48.650Z,15,GR86-030-18,-5.800000000000001,-1.202,-0.019,3.59,4.0,,63.925,64.155,167.15
2025-08-15T02:39:48.693Z,15,GR86-030-18,-5.6000000000000005,-1.172,-0.028,3.41,4.0,,63.525,63.56,
2025-08-15T02:39:48.737Z,15,GR86-030-18,-5.2,-1.157,-0.096,3.31,4.0,,62.72,62.78,
2025-08-15T02:39:48.780Z,15,GR86-030-18,-3.6,-1.167,-0.124,3.12,4.0,,57.5,58.585,
2025-08-15T02:39:48.823Z,15,GR86-030-18,-2.7,-1.029,-0.144,2.98,4.0,5633.0,53.24,54.495000000000005,
2025-08-15T02:39:48.866Z,15,GR86-030-18,-2.5,-1.083,-0.145,2.8000000000000003,4.0,,49.870000000000005,51.03,159.29
2025-08-15T02:39:48.910Z,15,GR86-030-18,-2.5,-1.017,-0.175,12.18,4.0,,47.125,48.33,
2025-08-15T02:39:48.953Z,15,GR86-030-18,-2.2,-0.986,-0.246,51.79,3.0,,44.74,45.965,
2025-08-15T02:39:48.996Z,15,GR86-030-18,-2.2,-1.142,-0.258,12.01,3.0,,43.325,44.435,
2025-08-15T02:39:49.040Z,15,GR86-030-18,-3.2,-1.005,-0.264,4.09,3.0,5623.0,44.055,45.03,
2025-08-15T02:39:49.083Z,15,GR86-030-18,-4.1000000000000005,-1.063,-0.4,3.77,3.0,,42.455,42.65,151.61
2025-08-15T02:39:49.126Z,15,GR86-030-18,-5.2,-0.984,-0.244,3.54,3.0,,39.75,40.06,
2025-08-15T02:39:49.171Z,15,GR86-030-18,-5.300000000000001,-0.773,-0.453,3.43,3.0,,35.235,36.12,
2025-08-15T02:39:49.213Z,15,GR86-030-18,-5.2,-0.722,-0.503,3.34,3.0,,30.64,31.77,
2025-08-15T02:39:49.256Z,15,GR86-030-18,-5.1000000000000005,-0.663,-0.548,3.18,3.0,5437.0,27.71,28.58,
2025-08-15T02:39:49.300Z,15,GR86-030-18,-5.4,-0.622,-0.5690000000000001,2.88,3.0,,26.325,27.025,144.25
2025-08-15T02:39:49.343Z,15,GR86-030-18,-7.300000000000001,-0.766,-0.521,2.73,3.0,,27.285,27.865,
2025-08-15T02:39:49.386Z,15,GR86-030-18,-10.5,-0.734,-0.591,2.61,3.0,,28.84,29.5,
2025-08-15T02:39:49.430Z,15,GR86-030-18,-13.5,-0.781,-0.65,2.51,3.0,,29.055,29.33,
2025-08-15T02:39:49.473Z,15,GR86-030-18,-14.1,-0.687,-0.601,2.42,3.0,6160.0,28.87,28.995,
2025-08-15T02:39:49.517Z,15,GR86-030-18,-14.5,-0.676,-0.5760000000000001,2.36,3.0,,28.75,28.9,137.77
2025-08-15T02:39:49.560Z,15,GR86-030-18,-18.6,-0.654,-0.586,2.32,3.0,,27.805,28.185,
2025-08-15T02:39:49.603Z,15,GR86-030-18,-23.5,-0.723,-0.665,2.32,3.0,,26.63,27.225,
2025-08-15T02:39:49.646Z,15,GR86-030-18,-28.0,-0.655,-0.6960000000000001,2.33,3.0,,25.835,26.02,
2025-08-15T02:39:49.690Z,15,GR86-030-18,-28.8,-0.635,-0.753,2.32,3.0,5794.0,25.12,25.485,
2025-08-15T02:39:49.732Z,15,GR86-030-18,-25.200000000000003,-0.663,-0.842,2.32,3.0,,24.555,25.15,133.47
2025-08-15T02:39:49.775Z,15,GR86-030-18,-19.3,-0.623,-0.847,2.32,3.0,,24.46,24.795,
2025-08-15T02:39:49.819Z,15,GR86-030-18,-10.7,-0.618,-0.868,2.32,3.0,,22.645,23.365,
2025-08-15T02:39:49.861Z,15,GR86-030-18,-7.1000000000000005,-0.58,-0.8160000000000001,2.32,3.0,,17.87,18.495,
2025-08-15T02:39:49.904Z,15,GR86-030-18,-5.1000000000000005,-0.473,-0.879,2.32,3.0,5746.0,9.46,9.75,
2025-08-15T02:39:49.947Z,15,GR86-030-18,-4.9,-0.253,-0.8310000000000001,2.35,3.0,,2.335,2.58,124.8
2025-08-15T02:39:49.990Z,15,GR86-030-18,-7.0,-0.228,-0.8300000000000001,2.35,3.0,,0.0,0.0,
2025-08-15T02:39:50.033Z,15,GR86-030-18,-13.1,-0.188,-0.866,2.35,3.0,,0.0,0.0,
2025-08-15T02:39:50.076Z,15,GR86-030-18,-22.9,-0.135,-0.8200000000000001,2.35,3.0,,0.0,0.0,
2025-08-15T02:39:50.120Z,15,GR86-030-18,-35.0,-0.153,-0.866,2.39,3.0,5480.0,0.0,0.0,
2025-08-15T02:39:50.163Z,15,GR86-030-18,-38.7,-0.216,-0.887,2.38,3.0,,0.0,0.0,121.06
2025-08-15T02:39:50.206Z,15,GR86-030-18,-39.5,-0.181,-0.89,4.53,3.0,,0.0,0.0,
2025-08-15T02:39:50.250Z,15,GR86-030-18,-38.400000000000006,-0.169,-0.852,4.73,3.0,,0.0,0.0,
2025-08-15T02:39:50.293Z,15,GR86-030-18,-37.6,-0.205,-0.89,7.85,3.0,,0.0,0.0,
2025-08-15T02:39:50.337Z,15,GR86-030-18,-38.1,-0.155,-0.94,13.43,3.0,5308.0,0.0,0.0,
2025-08-15T02:39:50.380Z,15,GR86-030-18,-38.0,-0.134,-0.983,20.7,3.0,,0.0,0.0,118.18
2025-08-15T02:39:50.423Z,15,GR86-030-18,-36.1,-0.129,-1.007,20.91,3.0,,0.0,0.0,
2025-08-15T02:39:50.466Z,15,GR86-030-18,-32.7,-0.165,-1.075,22.9,3.0,,0.0,0.0,
2025-08-15T02:39:50.510Z,15,GR86-030-18,-28.8,-0.09,-1.071,26.0,3.0,,0.0,0.0,
2025-08-15T02:39:50.553Z,15,GR86-030-18,-25.200000000000003,-0.131,-1.077,29.66,3.0,5323.0,0.0,0.0,
2025-08-15T02:39:50.596Z,15,GR86-030-18,-21.4,-0.064,-1.096,33.55,3.0,,0.0,0.0,116.97
2025-08-15T02:39:50.640Z,15,GR86-030-18,-16.8,0.164,-1.056,36.17,3.0,,0.0,0.0,
2025-08-15T02:39:50.683Z,15,GR86-030-18,-17.5,0.147,-1.014,38.36,3.0,,0.0,0.0,
2025-08-15T02:39:50.726Z,15,GR86-030-18,-21.8,0.104,-0.975,40.14,3.0,,0.0,0.0,
2025-08-15T02:39:50.770Z,15,GR86-030-18,-29.200000000000003,0.153,-0.982,41.14,3.0,5422.0,0.0,0.0,
2025-08-15T02:39:50.812Z,15,GR86-030-18,-36.6,0.107,-0.967,41.35,3.0,,0.0,0.0,116.69
2025-08-15T02:39:50.855Z,15,GR86-030-18,-40.7,0.095,-1.003,41.33,3.0,,0.0,0.0,
2025-08-15T02:39:50.899Z,15,GR86-030-18,-40.5,0.087,-0.949,41.26,3.0,,0.0,0.0,
2025-08-15T02:39:50.941Z,15,GR86-030-18,-40.8,0.14,-0.926,40.54,3.0,,0.0,0.0,
2025-08-15T02:39:50.985Z,15,GR86-030-18,-43.8,0.082,-0.935,38.7,3.0,5440.0,0.0,0.0,
2025-08-15T02:39:51.029Z,15,GR86-030-18,-48.2,0.101,-0.943,37.2,3.0,,0.0,0.0,115.53
2025-08-15T02:39:51.071Z,15,GR86-030-18,-50.0,0.129,-0.998,35.96,3.0,,0.0,0.0,
2025-08-15T02:39:51.115Z,15,GR86-030-18,-47.5,0.055,-1.013,35.910000000000004,3.0,,0.0,0.0,
2025-08-15T02:39:51.157Z,15,GR86-030-18,-42.0,0.083,-1.087,35.84,3.0,,0.0,0.0,
2025-08-15T02:39:51.200Z,15,GR86-030-18,-34.0,0.116,-1.033,35.910000000000004,3.0,5457.0,0.0,0.0,
2025-08-15T02:39:51.243Z,15,GR86-030-18,-32.4,0.074,-1.106,36.79,3.0,,0.0,0.0,115.87
2025-08-15T02:39:51.286Z,15,GR86-030-18,-34.1,0.066,-1.013,37.1,3.0,,0.0,0.0,
2025-08-15T02:39:51.330Z,15,GR86-030-18,-36.4,0.099,-1.189,37.34,3.0,,0.0,0.0,
2025-08-15T02:39:51.374Z,15,GR86-030-18,-36.6,0.089,-1.084,39.44,3.0,,0.0,0.0,
2025-08-15T02:39:51.417Z,15,GR86-030-18,-34.5,0.101,-1.172,48.34,3.0,5521.0,0.0,0.0,
2025-08-15T02:39:51.460Z,15,GR86-030-18,-30.1,0.102,-1.129,56.04,3.0,,0.0,0.0,116.66
2025-08-15T02:39:51.503Z,15,GR86-030-18,-28.200000000000003,0.15,-1.112,57.86,3.0,,0.0,0.0,
2025-08-15T02:39:51.546Z,15,GR86-030-18,-27.9,0.131,-1.074,61.39,3.0,,0.0,0.0,
2025-08-15T02:39:51.590Z,15,GR86-030-18,-29.3,0.122,-1.09,70.82000000000001,3.0,,0.0,0.0,
2025-08-15T02:39:51.632Z,15,GR86-030-18,-31.6,0.191,-1.156,75.15,3.0,5582.0,0.0,0.0,
2025-08-15T02:39:51.675Z,15,GR86-030-18,-35.0,0.167,-1.066,77.81,3.0,,0.0,0.0,118.48
2025-08-15T02:39:51.719Z,15,GR86-030-18,-39.6,0.172,-1.132,76.31,3.0,,0.0,0.0,
2025-08-15T02:39:51.764Z,15,GR86-030-18,-41.3,0.153,-1.124,75.53,3.0,,0.0,0.0,
2025-08-15T02:39:51.807Z,15,GR86-030-18,-41.3,0.186,-1.152,75.44,3.0,,0.0,0.0,
2025-08-15T02:39:51.850Z,15,GR86-030-18,-39.6,0.149,-1.112,75.29,3.0,5619.0,0.0,0.0,
2025-08-15T02:39:51.893Z,15,GR86-030-18,-36.9,0.136,-1.116,74.83,3.0,,0.0,0.0,119.02
2025-08-15T02:39:51.936Z,15,GR86-030-18,-33.9,0.181,-1.098,74.73,3.0,,0.0,0.0,
2025-08-15T02:39:51.980Z,15,GR86-030-18,-31.5,0.192,-1.057,78.66,3.0,,0.0,0.0,
2025-08-15T02:39:52.023Z,15,GR86-030-18,-31.6,0.169,-1.0,93.95,3.0,,0.0,0.0,
2025-08-15T02:39:52.067Z,15,GR86-030-18,-32.0,0.159,-1.061,98.16,3.0,5664.0,0.0,0.0,
2025-08-15T02:39:52.110Z,15,GR86-030-18,-31.8,0.175,-1.074,99.1,3.0,,0.0,0.0,118.95
2025-08-15T02:39:52.153Z,15,GR86-030-18,-31.0,0.168,-1.037,99.83,3.0,,0.0,0.0,
2025-08-15T02:39:52.197Z,15,GR86-030-18,-29.3,0.171,-1.085,99.83,3.0,,0.0,0.0,
2025-08-15T02:39:52.240Z,15,GR86-030-18,-25.3,0.179,-1.022,99.85,3.0,,0.0,0.0,
2025-08-15T02:39:52.283Z,15,GR86-030-18,-23.0,0.19,-0.993,99.83,3.0,5721.0,0.0,0.0,
2025-08-15T02:39:52.326Z,15,GR86-030-18,-22.200000000000003,0.179,-0.935,99.85,3.0,,0.0,0.0,119.56
2025-08-15T02:39:52.370Z,15,GR86-030-18,-24.0,0.179,-0.936,99.86,3.0,,0.0,0.0,
2025-08-15T02:39:52.412Z,15,GR86-030-18,-27.200000000000003,0.185,-0.906,99.86,3.0,,0.0,0.0,
2025-08-15T02:39:52.455Z,15,GR86-030-18,-31.0,0.181,-0.8180000000000001,99.86,3.0,,0.0,0.0,
2025-08-15T02:39:52.499Z,15,GR86-030-18,-35.1,0.165,-0.865,99.85,3.0,5752.0,0.0,0.0,
2025-08-15T02:39:52.541Z,15,GR86-030-18,-35.0,0.168,-0.915,99.85,3.0,,0.0,0.0,121.94
2025-08-15T02:39:52.584Z,15,GR86-030-18,-33.4,0.161,-0.927,99.86,3.0,,0.0,0.0,
2025-08-15T02:39:52.627Z,15,GR86-030-18,-31.1,0.175,-0.894,99.87,3.0,,0.0,0.0,
2025-08-15T02:39:52.670Z,15,GR86-030-18,-28.5,0.183,-0.9,99.84,3.0,,0.0,0.0,
2025-08-15T02:39:52.713Z,15,GR86-030-18,-26.6,0.165,-0.951,99.86,3.0,5785.0,0.0,0.0,
2025-08-15T02:39:52.756Z,15,GR86-030-18,-25.9,0.176,-0.913,99.86,3.0,,0.0,0.0,123.16
2025-08-15T02:39:52.800Z,15,GR86-030-18,-26.9,0.179,-0.907,98.43,3.0,,0.0,0.0,
2025-08-15T02:39:52.843Z,15,GR86-030-18,-27.700000000000003,0.188,-0.9,95.84,3.0,,0.0,0.0,
2025-08-15T02:39:52.886Z,15,GR86-030-18,-28.1,0.182,-0.942,94.31,3.0,,0.0,0.0,
2025-08-15T02:39:52.930Z,15,GR86-030-18,-28.1,0.179,-0.934,94.23,3.0,5825.0,0.0,0.0,
2025-08-15T02:39:52.973Z,15,GR86-030-18,-27.700000000000003,0.171,-0.923,94.06,3.0,,0.0,0.0,124.47
2025-08-15T02:39:53.015Z,15,GR86-030-18,-27.0,0.174,-0.944,93.06,3.0,,0.0,0.0,
2025-08-15T02:39:53.059Z,15,GR86-030-18,-24.700000000000003,0.196,-0.909,85.61,3.0,,0.0,0.0,
2025-08-15T02:39:53.101Z,15,GR86-030-18,-23.0,0.185,-0.908,80.23,3.0,,0.0,0.0,
2025-08-15T02:39:53.144Z,15,GR86-030-18,-21.6,0.175,-0.857,77.47,3.0,5954.0,0.0,0.0,
2025-08-15T02:39:53.187Z,15,GR86-030-18,-20.8,0.176,-0.838,76.01,3.0,,0.0,0.0,125.61
2025-08-15T02:39:53.230Z,15,GR86-030-18,-21.1,0.18,-0.879,72.51,3.0,,0.0,0.0,
2025-08-15T02:39:53.273Z,15,GR86-030-18,-22.4,0.192,-0.8300000000000001,68.12,3.0,,0.0,0.0,
2025-08-15T02:39:53.316Z,15,GR86-030-18,-23.4,0.188,-0.779,67.05,3.0,,0.0,0.0,
2025-08-15T02:39:53.360Z,15,GR86-030-18,-23.3,0.144,-0.758,63.6,3.0,6003.0,0.0,0.0,
2025-08-15T02:39:53.403Z,15,GR86-030-18,-22.6,0.139,-0.756,61.01,3.0,,0.0,0.0,126.74
2025-08-15T02:39:53.446Z,15,GR86-030-18,-22.4,0.102,-0.603,60.870000000000005,3.0,,0.0,0.0,
2025-08-15T02:39:53.490Z,15,GR86-030-18,-22.4,0.103,-0.425,59.08,3.0,,0.0,0.0,
2025-08-15T02:39:53.533Z,15,GR86-030-18,-22.1,0.08,-0.497,58.55,3.0,,0.0,0.0,
2025-08-15T02:39:53.576Z,15,GR86-030-18,-21.3,0.041,-0.767,58.65,3.0,6041.0,0.0,0.0,
2025-08-15T02:39:53.620Z,15,GR86-030-18,-21.0,0.089,-0.48,57.65,3.0,,0.0,0.0,127.84
2025-08-15T02:39:53.663Z,15,GR86-030-18,-21.200000000000003,0.102,-0.5740000000000001,55.13,3.0,,0.0,0.0,
2025-08-15T02:39:53.706Z,15,GR86-030-18,-21.8,0.168,-0.364,52.97,3.0,,0.0,0.0,
2025-08-15T02:39:53.750Z,15,GR86-030-18,-20.9,0.051,-0.941,55.3,3.0,,0.0,0.0,
2025-08-15T02:39:53.793Z,15,GR86-030-18,-19.0,0.222,-0.853,56.79,3.0,6136.0,0.0,0.0,
2025-08-15T02:39:53.837Z,15,GR86-030-18,-18.5,0.133,-0.962,58.32,3.0,,0.0,0.0,129.15
2025-08-15T02:39:53.880Z,15,GR86-030-18,-18.8,0.288,-1.255,57.77,3.0,,0.0,0.0,
2025-08-15T02:39:53.923Z,15,GR86-030-18,-18.8,0.433,-0.953,57.370000000000005,3.0,,0.0,0.0,
2025-08-15T02:39:53.966Z,15,GR86-030-18,-17.0,0.145,-1.071,57.58,3.0,,0.0,0.0,
2025-08-15T02:39:54.010Z,15,GR86-030-18,-13.3,0.147,-0.8260000000000001,58.63,3.0,6225.0,0.0,0.0,
2025-08-15T02:39:54.053Z,15,GR86-030-18,-9.1,0.061,-0.6960000000000001,66.57000000000001,3.0,,0.0,0.0,130.16
2025-08-15T02:39:54.096Z,15,GR86-030-18,-7.0,0.112,-0.679,74.71000000000001,3.0,,0.0,0.0,
2025-08-15T02:39:54.140Z,15,GR86-030-18,-9.8,0.353,-0.587,74.35000000000001,3.0,,0.0,0.0,
2025-08-15T02:39:54.183Z,15,GR86-030-18,-14.2,0.161,-0.641,75.07000000000001,3.0,,0.0,0.0,
2025-08-15T02:39:54.226Z,15,GR86-030-18,-18.5,0.153,-0.616,75.12,3.0,6234.0,0.0,0.0,
2025-08-15T02:39:54.271Z,15,GR86-030-18,-20.8,0.164,-0.628,73.86,3.0,,0.0,0.0,131.23
2025-08-15T02:39:54.313Z,15,GR86-030-18,-21.3,0.248,-0.645,72.08,3.0,,0.0,0.0,
2025-08-15T02:39:54.357Z,15,GR86-030-18,-21.4,0.156,-0.612,71.24,3.0,,0.0,0.0,
2025-08-15T02:39:54.400Z,15,GR86-030-18,-21.700000000000003,0.156,-0.635,71.24,3.0,,0.0,0.0,
2025-08-15T02:39:54.443Z,15,GR86-030-18,-22.1,0.114,-0.67,69.98,3.0,6358.0,0.0,0.0,
2025-08-15T02:39:54.486Z,15,GR86-030-18,-23.200000000000003,0.181,-0.672,68.32000000000001,3.0,,0.0,0.0,131.42000000000002
2025-08-15T02:39:54.530Z,15,GR86-030-18,-24.6,0.254,-0.588,63.57,3.0,,0.0,0.0,
2025-08-15T02:39:54.573Z,15,GR86-030-18,-24.8,0.123,-0.746,64.52,3.0,,0.0,0.0,
2025-08-15T02:39:54.615Z,15,GR86-030-18,-23.200000000000003,0.108,-0.777,68.08,3.0,,0.0,0.0,
2025-08-15T02:39:54.659Z,15,GR86-030-18,-19.4,0.153,-0.781,95.1,3.0,6297.0,0.0,0.0,
2025-08-15T02:39:54.703Z,15,GR86-030-18,-17.0,0.135,-0.799,99.65,3.0,,0.0,0.0,133.53
2025-08-15T02:39:54.746Z,15,GR86-030-18,-14.8,0.144,-0.721,99.82,3.0,,0.0,0.0,
2025-08-15T02:39:54.790Z,15,GR86-030-18,-12.7,0.199,-0.804,99.85,3.0,,0.0,0.0,
2025-08-15T02:39:54.833Z,15,GR86-030-18,-10.2,0.189,-0.89,99.83,3.0,,0.0,0.0,
2025-08-15T02:39:54.876Z,15,GR86-030-18,-8.0,0.169,-0.709,99.82,3.0,6361.0,0.0,0.0,
2025-08-15T02:39:54.920Z,15,GR86-030-18,-6.800000000000001,0.132,-0.737,99.82,3.0,,0.0,0.0,134.82
2025-08-15T02:39:54.963Z,15,GR86-030-18,-6.2,0.187,-0.626,99.83,3.0,,0.0,0.0,
2025-08-15T02:39:55.006Z,15,GR86-030-18,-6.0,0.282,-0.498,99.86,3.0,,0.0,0.0,
2025-08-15T02:39:55.050Z,15,GR86-030-18,-6.800000000000001,0.218,-0.493,99.86,3.0,,0.0,0.0,
2025-08-15T02:39:55.093Z,15,GR86-030-18,-8.9,0.168,-0.281,99.86,3.0,6433.0,0.0,0.0,
2025-08-15T02:39:55.137Z,15,GR86-030-18,-10.9,0.137,-0.117,99.86,3.0,,0.0,0.0,135.89
2025-08-15T02:39:55.180Z,15,GR86-030-18,-8.9,0.117,-0.242,99.86,3.0,,0.0,0.0,
2025-08-15T02:39:55.223Z,15,GR86-030-18,-7.0,0.227,-0.141,99.87,3.0,,0.0,0.0,
2025-08-15T02:39:55.310Z,15,GR86-030-18,-3.6,0.231,-0.421,99.86,3.0,6497.0,0.0,0.0,
2025-08-15T02:39:55.353Z,15,GR86-030-18,-3.2,0.175,-0.312,99.85,3.0,,0.0,0.0,138.29
2025-08-15T02:39:55.396Z,15,GR86-030-18,-4.2,0.133,-0.312,99.86,3.0,,0.0,0.0,
2025-08-15T02:39:55.440Z,15,GR86-030-18,-4.800000000000001,-0.024,-0.174,99.86,3.0,,0.0,0.0,
2025-08-15T02:39:55.483Z,15,GR86-030-18,-1.1,0.248,-0.049,99.86,3.0,,0.0,0.0,
2025-08-15T02:39:55.526Z,15,GR86-030-18,3.1,0.099,-0.107,99.87,3.0,6524.0,0.0,0.0,
2025-08-15T02:39:55.570Z,15,GR86-030-18,3.2,0.354,-0.258,99.86,3.0,,0.0,0.0,139.73
2025-08-15T02:39:55.612Z,15,GR86-030-18,-1.2000000000000002,0.15,-0.144,99.87,3.0,,0.0,0.0,
2025-08-15T02:39:55.655Z,15,GR86-030-18,-3.8,0.064,-0.106,99.88,3.0,,0.0,0.0,
2025-08-15T02:39:55.699Z,15,GR86-030-18,-0.2,0.08,-0.081,99.86,3.0,,0.0,0.0,
2025-08-15T02:39:55.741Z,15,GR86-030-18,2.8000000000000003,0.24,-0.002,99.89,3.0,6884.0,0.0,0.0,
2025-08-15T02:39:55.784Z,15,GR86-030-18,4.3,0.228,0.007,99.86,3.0,,0.0,0.0,141.72
2025-08-15T02:39:55.829Z,15,GR86-030-18,4.7,0.035,0.039,99.88,3.0,,0.0,0.0,
2025-08-15T02:39:55.871Z,15,GR86-030-18,4.9,0.054,0.139,99.87,3.0,,0.0,0.0,
2025-08-15T02:39:55.914Z,15,GR86-030-18,4.800000000000001,0.072,0.184,99.86,3.0,,0.0,0.0,
2025-08-15T02:39:55.957Z,15,GR86-030-18,4.0,0.241,0.297,99.87,3.0,6923.0,0.0,0.0,
2025-08-15T02:39:56.000Z,15,GR86-030-18,4.4,0.293,0.381,99.89,3.0,,0.0,0.0,142.34
2025-08-15T02:39:56.043Z,15,GR86-030-18,4.3,0.34,0.277,99.88,3.0,,0.0,0.0,
2025-08-15T02:39:56.086Z,15,GR86-030-18,4.3,0.149,0.3,99.86,3.0,,0.0,0.0,
2025-08-15T02:39:56.130Z,15,GR86-030-18,4.9,0.018,0.58,99.88,3.0,,0.0,0.0,
2025-08-15T02:39:56.173Z,15,GR86-030-18,5.2,0.115,0.255,99.87,3.0,7051.0,0.0,0.0,
2025-08-15T02:39:56.216Z,15,GR86-030-18,5.5,0.1,0.385,99.87,3.0,,0.0,0.0,143.24
2025-08-15T02:39:56.260Z,15,GR86-030-18,6.6000000000000005,0.135,0.298,99.89,3.0,,0.0,0.0,
2025-08-15T02:39:56.303Z,15,GR86-030-18,7.1000000000000005,0.159,0.291,99.86,3.0,,0.0,0.0,
2025-08-15T02:39:56.346Z,15,GR86-030-18,7.5,0.194,0.296,99.86,3.0,,0.0,0.0,
2025-08-15T02:39:56.390Z,15,GR86-030-18,8.0,0.259,0.289,99.89,3.0,6878.0,0.0,0.0,
2025-08-15T02:39:56.433Z,15,GR86-030-18,8.8,0.202,0.26,99.89,3.0,,0.0,0.0,145.41
2025-08-15T02:39:56.476Z,15,GR86-030-18,8.9,0.145,0.245,99.86,3.0,,0.0,0.0,
2025-08-15T02:39:56.521Z,15,GR86-030-18,8.5,0.225,0.259,99.89,3.0,,0.0,0.0,
2025-08-15T02:39:56.563Z,15,GR86-030-18,8.6,0.13,0.256,99.88,3.0,,0.0,0.0,
2025-08-15T02:39:56.606Z,15,GR86-030-18,8.9,0.121,0.281,99.87,3.0,6915.0,0.0,0.0,
2025-08-15T02:39:56.650Z,15,GR86-030-18,9.2,0.173,0.278,99.88,3.0,,0.0,0.0,146.87
2025-08-15T02:39:56.693Z,15,GR86-030-18,8.9,0.225,0.301,99.89,3.0,,0.0,0.0,
2025-08-15T02:39:56.735Z,15,GR86-030-18,8.3,0.224,0.316,99.87,3.0,,0.0,0.0,
2025-08-15T02:39:56.779Z,15,GR86-030-18,6.800000000000001,0.189,0.327,99.85,3.0,,0.0,0.0,
2025-08-15T02:39:56.821Z,15,GR86-030-18,6.0,0.248,0.337,99.88,3.0,6981.0,0.0,0.0,
2025-08-15T02:39:56.864Z,15,GR86-030-18,5.5,0.206,0.311,99.89,3.0,,0.0,0.0,148.36
2025-08-15T02:39:56.907Z,15,GR86-030-18,4.800000000000001,0.136,0.278,99.89,3.0,,0.0,0.0,
2025-08-15T02:39:56.950Z,15,GR86-030-18,4.2,0.113,0.259,99.88,3.0,,0.0,0.0,
2025-08-15T02:39:56.993Z,15,GR86-030-18,3.7,0.137,0.26,99.9,3.0,,0.0,0.0,
2025-08-15T02:39:57.036Z,15,GR86-030-18,3.5,0.211,0.265,99.86,3.0,7054.0,0.0,0.0,
2025-08-15T02:39:57.080Z,15,GR86-030-18,4.1000000000000005,0.12,0.226,99.92,3.0,,0.0,0.0,149.87
2025-08-15T02:39:57.123Z,15,GR86-030-18,4.3,0.172,0.208,99.87,3.0,,0.0,0.0,
2025-08-15T02:39:57.167Z,15,GR86-030-18,4.5,0.203,0.198,99.86,3.0,,0.0,0.0,
2025-08-15T02:39:57.210Z,15,GR86-030-18,4.4,-0.058,0.187,99.88,4.0,,0.0,0.0,
2025-08-15T02:39:57.253Z,15,GR86-030-18,4.2,0.133,0.195,99.88,4.0,7125.0,0.0,0.0,
2025-08-15T02:39:57.297Z,15,GR86-030-18,4.7,0.352,0.087,99.86,4.0,,0.0,0.0,151.47
2025-08-15T02:39:57.340Z,15,GR86-030-18,4.2,0.226,0.14,99.85,4.0,,0.0,0.0,
2025-08-15T02:39:57.383Z,15,GR86-030-18,2.8000000000000003,0.018,0.141,99.87,4.0,,0.0,0.0,
2025-08-15T02:39:57.426Z,15,GR86-030-18,2.6,0.068,0.022,99.87,4.0,,0.0,0.0,
2025-08-15T02:39:57.470Z,15,GR86-030-18,2.8000000000000003,0.151,0.098,99.88,4.0,7196.0,0.0,0.0,
2025-08-15T02:39:57.512Z,15,GR86-030-18,3.1,0.143,0.086,99.86,4.0,,0.0,0.0,153.16
2025-08-15T02:39:57.555Z,15,GR86-030-18,2.8000000000000003,0.111,0.064,99.85,4.0,,0.0,0.0,
2025-08-15T02:39:57.599Z,15,GR86-030-18,1.6,0.082,0.047,99.89,4.0,,0.0,0.0,
2025-08-15T02:39:57.641Z,15,GR86-030-18,1.5,0.142,0.039,99.86,4.0,,0.0,0.0,
2025-08-15T02:39:57.684Z,15,GR86-030-18,2.2,0.136,0.06,99.88,4.0,6053.0,0.0,0.0,
2025-08-15T02:39:57.770Z,15,GR86-030-18,1.7000000000000002,0.136,0.066,99.88,4.0,,0.0,0.0,154.61
2025-08-15T02:39:57.813Z,15,GR86-030-18,-0.5,0.166,0.02,99.89,4.0,,0.0,0.0,
2025-08-15T02:39:57.856Z,15,GR86-030-18,-1.6,0.14,-0.004,99.88,4.0,,0.0,0.0,
2025-08-15T02:39:57.900Z,15,GR86-030-18,-2.0,0.149,-0.014,99.85,4.0,6121.0,0.0,0.0,
2025-08-15T02:39:57.943Z,15,GR86-030-18,-1.6,0.14,-0.021,99.86,4.0,,0.0,0.0,157.72
2025-08-15T02:39:57.986Z,15,GR86-030-18,-2.1,0.142,-0.062,99.85,4.0,,0.0,0.0,
2025-08-15T02:39:58.030Z,15,GR86-030-18,-3.0,0.115,-0.112,99.86,4.0,,0.0,0.0,
2025-08-15T02:39:58.073Z,15,GR86-030-18,-4.5,0.095,-0.134,99.87,4.0,,0.0,0.0,
2025-08-15T02:39:58.116Z,15,GR86-030-18,-5.1000000000000005,0.089,-0.172,99.86,4.0,6214.0,0.0,0.0,
2025-08-15T02:39:58.160Z,15,GR86-030-18,-4.6000000000000005,0.119,-0.195,99.89,4.0,,0.0,0.0,159.21
2025-08-15T02:39:58.203Z,15,GR86-030-18,-4.1000000000000005,0.114,-0.231,99.88,4.0,,0.0,0.0,
2025-08-15T02:39:58.246Z,15,GR86-030-18,-3.2,0.098,-0.267,99.86,4.0,,0.0,0.0,
2025-08-15T02:39:58.290Z,15,GR86-030-18,-1.9,0.105,-0.264,99.86,4.0,,0.0,0.0,
2025-08-15T02:39:58.333Z,15,GR86-030-18,-1.6,0.125,-0.255,99.87,4.0,6280.0,0.0,0.0,
2025-08-15T02:39:58.376Z,15,GR86-030-18,-1.7000000000000002,0.138,-0.229,99.87,4.0,,0.0,0.0,160.63
2025-08-15T02:39:58.420Z,15,GR86-030-18,-2.3000000000000003,0.097,-0.259,99.86,4.0,,0.0,0.0,
2025-08-15T02:39:58.463Z,15,GR86-030-18,-2.8000000000000003,0.091,-0.244,99.88,4.0,,0.0,0.0,
2025-08-15T02:39:58.506Z,15,GR86-030-18,-3.0,0.118,-0.206,99.89,4.0,,0.0,0.0,
2025-08-15T02:39:58.550Z,15,GR86-030-18,-3.2,0.127,-0.189,99.86,4.0,6388.0,0.0,0.0,
2025-08-15T02:39:58.593Z,15,GR86-030-18,-3.0,0.146,-0.173,99.87,4.0,,0.0,0.0,162.07
2025-08-15T02:39:58.635Z,15,GR86-030-18,-3.1,0.149,-0.173,99.86,4.0,,0.0,0.0,
2025-08-15T02:39:58.679Z,15,GR86-030-18,-3.5,0.106,-0.215,99.85,4.0,,0.0,0.0,
2025-08-15T02:39:58.721Z,15,GR86-030-18,-3.7,0.118,-0.208,99.9,4.0,,0.0,0.0,
2025-08-15T02:39:58.764Z,15,GR86-030-18,-3.8,0.122,-0.202,99.89,4.0,6446.0,0.0,0.0,
2025-08-15T02:39:58.807Z,15,GR86-030-18,-3.8,0.147,-0.209,99.86,4.0,,0.0,0.0,163.47
2025-08-15T02:39:58.850Z,15,GR86-030-18,-3.7,0.153,-0.205,99.87,4.0,,0.0,0.0,
2025-08-15T02:39:58.893Z,15,GR86-030-18,-3.7,0.148,-0.21,99.88,4.0,,0.0,0.0,
2025-08-15T02:39:58.937Z,15,GR86-030-18,-3.9,0.138,-0.224,99.86,4.0,,0.0,0.0,
2025-08-15T02:39:58.980Z,15,GR86-030-18,-4.1000000000000005,0.134,-0.216,99.87,4.0,6484.0,0.0,0.0,
2025-08-15T02:39:59.023Z,15,GR86-030-18,-4.3,0.149,-0.212,99.86,4.0,,0.0,0.0,164.81
2025-08-15T02:39:59.066Z,15,GR86-030-18,-4.4,0.149,-0.214,99.85,4.0,,0.0,0.0,
2025-08-15T02:39:59.110Z,15,GR86-030-18,-4.3,0.149,-0.229,99.87,4.0,,0.0,0.0,
2025-08-15T02:39:59.153Z,15,GR86-030-18,-4.0,0.145,-0.261,99.88,4.0,,0.0,0.0,
2025-08-15T02:39:59.240Z,15,GR86-030-18,-3.5,0.123,-0.278,99.88,4.0,6538.0,0.0,0.0,166.09
2025-08-15T02:39:59.283Z,15,GR86-030-18,-3.9,0.143,-0.264,99.89,4.0,,0.0,0.0,
2025-08-15T02:39:59.326Z,15,GR86-030-18,-4.1000000000000005,0.143,-0.266,99.86,4.0,,0.0,0.0,
2025-08-15T02:39:59.371Z,15,GR86-030-18,-4.1000000000000005,0.141,-0.271,99.88,4.0,,0.0,0.0,
2025-08-15T02:39:59.456Z,15,GR86-030-18,-3.9,0.138,-0.282,99.86,4.0,6598.0,0.0,0.0,167.28
2025-08-15T02:39:59.500Z,15,GR86-030-18,-3.4000000000000004,0.117,-0.25,99.86,4.0,,0.0,0.0,
2025-08-15T02:39:59.543Z,15,GR86-030-18,-3.3000000000000003,0.132,-0.236,99.88,4.0,,0.0,0.0,
2025-08-15T02:39:59.586Z,15,GR86-030-18,-3.3000000000000003,0.148,-0.218,99.86,4.0,,0.0,0.0,
2025-08-15T02:39:59.630Z,15,GR86-030-18,-3.3000000000000003,0.158,-0.224,99.77,4.0,6639.0,0.0,0.0,
2025-08-15T02:39:59.673Z,15,GR86-030-18,-3.3000000000000003,0.166,-0.216,56.97,4.0,,0.0,0.0,168.68
2025-08-15T02:39:59.715Z,15,GR86-030-18,-3.3000000000000003,0.153,-0.232,3.65,4.0,,0.0,0.0,
2025-08-15T02:39:59.759Z,15,GR86-030-18,-3.3000000000000003,0.015,-0.27,5.08,4.0,,0.0,0.0,
2025-08-15T02:39:59.803Z,15,GR86-030-18,-3.1,-0.172,-0.222,4.83,4.0,,0.0,0.0,
2025-08-15T02:39:59.846Z,15,GR86-030-18,-3.0,-0.395,-0.214,4.39,4.0,6685.0,5.05,5.16,
2025-08-15T02:39:59.890Z,15,GR86-030-18,-3.0,-0.33,-0.233,3.79,4.0,,13.275,13.305,169.89
2025-08-15T02:39:59.933Z,15,GR86-030-18,-3.0,-0.232,-0.169,3.5700000000000003,4.0,,15.84,15.655,
2025-08-15T02:39:59.976Z,15,GR86-030-18,-3.0,-0.376,-0.23,3.4,4.0,,20.115,19.76,
2025-08-15T02:40:00.020Z,15,GR86-030-18,-2.1,-0.542,-0.206,3.12,4.0,,27.315,26.875,
2025-08-15T02:40:00.063Z,15,GR86-030-18,-1.6,-0.6960000000000001,-0.229,2.88,4.0,6726.0,33.375,32.87,
2025-08-15T02:40:00.106Z,15,GR86-030-18,-1.8,-0.812,-0.193,2.72,4.0,,40.53,39.905,171.08
2025-08-15T02:40:00.150Z,15,GR86-030-18,-2.3000000000000003,-0.87,-0.196,2.61,4.0,,46.145,45.46,
2025-08-15T02:40:00.193Z,15,GR86-030-18,-2.0,-0.911,-0.183,2.53,4.0,,48.925,48.33,
2025-08-15T02:40:00.237Z,15,GR86-030-18,-1.4,-0.931,-0.205,2.51,4.0,,49.61,49.23,
2025-08-15T02:40:00.280Z,15,GR86-030-18,0.2,-0.931,-0.31,2.43,4.0,6719.0,50.07,51.275,
2025-08-15T02:40:00.323Z,15,GR86-030-18,1.3,-0.99,-0.343,2.39,4.0,,50.71,51.81,171.72
2025-08-15T02:40:00.366Z,15,GR86-030-18,2.6,-0.961,-0.351,2.38,4.0,,49.335,49.2,
2025-08-15T02:40:00.410Z,15,GR86-030-18,3.9,-1.023,-0.293,2.38,4.0,,49.275,49.7,
2025-08-15T02:40:00.453Z,15,GR86-030-18,5.0,-0.927,-0.343,2.38,4.0,,50.585,51.715,
2025-08-15T02:40:00.497Z,15,GR86-030-18,5.5,-0.981,-0.405,2.37,4.0,6399.0,50.875,51.0,
2025-08-15T02:40:00.541Z,15,GR86-030-18,5.4,-1.012,-0.286,2.38,4.0,,49.275,49.2,162.14
2025-08-15T02:40:00.583Z,15,GR86-030-18,4.5,-0.976,-0.311,3.04,4.0,,50.585,51.595,
2025-08-15T02:40:00.626Z,15,GR86-030-18,2.9000000000000004,-1.004,-0.332,38.4,4.0,,50.71,51.06,
2025-08-15T02:40:00.670Z,15,GR86-030-18,1.2000000000000002,-1.098,-0.271,79.95,4.0,,49.55,48.985,
2025-08-15T02:40:00.712Z,15,GR86-030-18,-0.4,-0.989,-0.178,98.74,3.0,5881.0,49.64,49.52,
2025-08-15T02:40:00.755Z,15,GR86-030-18,-2.0,-1.051,-0.208,44.12,3.0,,49.93,49.58,155.82
2025-08-15T02:40:00.799Z,15,GR86-030-18,-3.5,-1.158,-0.045,3.02,3.0,,51.120000000000005,52.05,
2025-08-15T02:40:00.841Z,15,GR86-030-18,-1.7000000000000002,-0.875,-0.242,2.9,3.0,,48.145,48.175,
2025-08-15T02:40:00.885Z,15,GR86-030-18,0.4,-0.97,-0.081,2.83,3.0,,42.955,43.26,
2025-08-15T02:40:00.929Z,15,GR86-030-18,2.8000000000000003,-0.865,-0.164,2.77,3.0,5816.0,37.385,38.285,
2025-08-15T02:40:00.971Z,15,GR86-030-18,3.8,-0.76,-0.204,2.72,3.0,,34.99,35.985,149.32
2025-08-15T02:40:01.014Z,15,GR86-030-18,3.4000000000000004,-0.81,-0.101,2.68,3.0,,35.265,35.615,
2025-08-15T02:40:01.057Z,15,GR86-030-18,3.0,-0.858,-0.138,2.64,3.0,,36.15,36.275,
2025-08-15T02:40:01.100Z,15,GR86-030-18,3.1,-0.848,-0.105,2.58,3.0,,38.56,38.285,
2025-08-15T02:40:01.143Z,15,GR86-030-18,3.1,-0.888,-0.136,2.54,3.0,6378.0,40.025,39.785,
2025-08-15T02:40:01.186Z,15,GR86-030-18,3.0,-0.897,-0.141,2.52,3.0,,40.62,40.62,142.16
2025-08-15T02:40:01.230Z,15,GR86-030-18,2.8000000000000003,-0.88,-0.108,2.5,3.0,,40.56,40.53,
2025-08-15T02:40:01.273Z,15,GR86-030-18,2.6,-0.91,-0.096,2.45,3.0,,40.18,40.365,
2025-08-15T02:40:01.316Z,15,GR86-030-18,2.4000000000000004,-0.895,-0.119,2.45,3.0,,38.835,39.37,
2025-08-15T02:40:01.360Z,15,GR86-030-18,2.0,-0.88,-0.126,2.44,3.0,6126.0,36.06,36.9,
2025-08-15T02:40:01.403Z,15,GR86-030-18,0.8,-0.8200000000000001,-0.123,30.75,3.0,,35.115,35.955,136.58
2025-08-15T02:40:01.446Z,15,GR86-030-18,-0.7000000000000001,-0.8270000000000001,-0.118,44.03,2.0,,34.81,35.525,
2025-08-15T02:40:01.490Z,15,GR86-030-18,-1.6,-1.138,-0.119,4.64,2.0,,34.305,34.99,
2025-08-15T02:40:01.532Z,15,GR86-030-18,-1.6,-0.955,-0.06,4.3500000000000005,2.0,,34.96,35.86,
2025-08-15T02:40:01.575Z,15,GR86-030-18,-0.1,-0.9,-0.216,3.97,2.0,5813.0,33.8,34.52,
2025-08-15T02:40:01.619Z,15,GR86-030-18,1.5,-1.011,-0.048,3.59,2.0,,31.085,31.42,130.63
2025-08-15T02:40:01.663Z,15,GR86-030-18,2.6,-0.665,-0.212,3.44,2.0,,30.52,30.855,
2025-08-15T02:40:01.706Z,15,GR86-030-18,2.6,-0.795,-0.24,3.33,2.0,,28.965,28.935,
2025-08-15T02:40:01.750Z,15,GR86-030-18,1.3,-0.762,-0.148,3.12,2.0,,28.645,28.615,
2025-08-15T02:40:01.793Z,15,GR86-030-18,-0.7000000000000001,-0.6970000000000001,-0.245,2.89,2.0,6188.0,28.615,28.58,
2025-08-15T02:40:01.836Z,15,GR86-030-18,-3.2,-0.6890000000000001,-0.198,2.71,2.0,,28.37,28.615,125.38
2025-08-15T02:40:01.880Z,15,GR86-030-18,-8.6,-0.709,-0.222,2.5500000000000003,2.0,,27.285,27.745,
2025-08-15T02:40:01.923Z,15,GR86-030-18,-13.1,-0.7030000000000001,-0.246,2.48,2.0,,24.795,25.485,
2025-08-15T02:40:01.967Z,15,GR86-030-18,-16.6,-0.597,-0.293,2.42,2.0,,20.845,21.625,
2025-08-15T02:40:02.010Z,15,GR86-030-18,-19.5,-0.548,-0.332,2.36,2.0,6608.0,18.145,18.495,
2025-08-15T02:40:02.053Z,15,GR86-030-18,-22.5,-0.551,-0.418,2.32,2.0,,18.055,18.265,119.72
2025-08-15T02:40:02.096Z,15,GR86-030-18,-25.3,-0.552,-0.421,2.32,2.0,,19.245,19.455,
2025-08-15T02:40:02.140Z,15,GR86-030-18,-27.0,-0.5730000000000001,-0.53,2.32,2.0,,21.5,21.53,
2025-08-15T02:40:02.183Z,15,GR86-030-18,-26.5,-0.61,-0.602,2.32,2.0,,22.37,22.34,
2025-08-15T02:40:02.226Z,15,GR86-030-18,-25.700000000000003,-0.5710000000000001,-0.652,2.32,2.0,6356.0,22.465,22.675,
2025-08-15T02:40:02.270Z,15,GR86-030-18,-26.200000000000003,-0.589,-0.7010000000000001,2.33,2.0,,22.645,22.845,114.7
2025-08-15T02:40:02.312Z,15,GR86-030-18,-28.0,-0.597,-0.784,2.34,2.0,,22.22,22.675,
2025-08-15T02:40:02.355Z,15,GR86-030-18,-30.200000000000003,-0.594,-0.812,2.36,2.0,,22.37,22.675,
2025-08-15T02:40:02.399Z,15,GR86-030-18,-30.5,-0.601,-0.896,2.35,2.0,,22.465,22.77,
2025-08-15T02:40:02.441Z,15,GR86-030-18,-28.4,-0.591,-0.948,2.36,2.0,6184.0,22.495,22.705,
2025-08-15T02:40:02.484Z,15,GR86-030-18,-25.0,-0.5760000000000001,-0.96,2.38,2.0,,22.815,23.06,111.11
2025-08-15T02:40:02.527Z,15,GR86-030-18,-20.9,-0.627,-0.979,2.39,2.0,,22.705,23.06,
2025-08-15T02:40:02.570Z,15,GR86-030-18,-18.3,-0.584,-0.939,2.39,2.0,,22.705,23.06,
2025-08-15T02:40:02.613Z,15,GR86-030-18,-19.3,-0.614,-0.959,2.39,2.0,,22.37,22.675,
2025-08-15T02:40:02.656Z,15,GR86-030-18,-23.200000000000003,-0.58,-0.959,2.42,2.0,5884.0,21.775,22.31,
2025-08-15T02:40:02.700Z,15,GR86-030-18,-27.3,-0.5690000000000001,-1.046,2.42,2.0,,21.0,21.44,108.68
2025-08-15T02:40:02.743Z,15,GR86-030-18,-24.6,-0.5730000000000001,-1.065,2.45,2.0,,20.145,20.875,
2025-08-15T02:40:02.786Z,15,GR86-030-18,-18.6,-0.514,-1.048,2.46,2.0,,18.265,18.955,
2025-08-15T02:40:02.830Z,15,GR86-030-18,-10.3,-0.534,-1.02,2.48,2.0,,12.3,12.71,
2025-08-15T02:40:02.873Z,15,GR86-030-18,-4.800000000000001,-0.335,-0.992,2.48,2.0,5584.0,4.47,4.655,
2025-08-15T02:40:02.916Z,15,GR86-030-18,-8.1,-0.269,-0.947,2.51,2.0,,0.0,0.0,105.17
2025-08-15T02:40:02.960Z,15,GR86-030-18,-29.200000000000003,-0.227,-1.014,2.5500000000000003,2.0,,0.0,0.0,
2025-08-15T02:40:03.003Z,15,GR86-030-18,-43.8,-0.18,-1.046,2.51,2.0,,0.0,0.0,
2025-08-15T02:40:03.046Z,15,GR86-030-18,-53.1,-0.207,-1.113,5.3,2.0,,0.0,0.0,
2025-08-15T02:40:03.090Z,15,GR86-030-18,-57.2,-0.169,-1.094,18.26,2.0,5334.0,0.0,0.0,
2025-08-15T02:40:03.133Z,15,GR86-030-18,-57.5,-0.215,-1.107,20.07,2.0,,0.0,0.0,100.9
2025-08-15T02:40:03.176Z,15,GR86-030-18,-57.0,-0.191,-1.112,20.14,2.0,,0.0,0.0,
2025-08-15T02:40:03.220Z,15,GR86-030-18,-56.6,-0.108,-1.086,23.2,2.0,,0.0,0.0,
2025-08-15T02:40:03.263Z,15,GR86-030-18,-57.5,-0.124,-1.112,24.55,2.0,,0.0,0.0,
2025-08-15T02:40:03.306Z,15,GR86-030-18,-59.1,-0.083,-1.09,25.89,2.0,5251.0,0.0,0.0,
2025-08-15T02:40:03.350Z,15,GR86-030-18,-59.2,0.103,-1.15,25.62,2.0,,0.0,0.0,95.1
2025-08-15T02:40:03.393Z,15,GR86-030-18,-54.8,0.138,-1.154,25.63,2.0,,0.0,0.0,
2025-08-15T02:40:03.435Z,15,GR86-030-18,-45.0,0.102,-1.173,27.65,2.0,,0.0,0.0,
2025-08-15T02:40:03.479Z,15,GR86-030-18,-27.3,0.093,-1.073,29.65,2.0,,0.0,0.0,
2025-08-15T02:40:03.521Z,15,GR86-030-18,-24.3,0.101,-0.998,30.01,2.0,5261.0,0.0,0.0,
2025-08-15T02:40:03.564Z,15,GR86-030-18,-31.9,0.143,-0.936,29.85,2.0,,0.0,0.0,94.75
2025-08-15T02:40:03.607Z,15,GR86-030-18,-44.5,0.152,-0.992,29.23,2.0,,0.0,0.0,
2025-08-15T02:40:03.650Z,15,GR86-030-18,-56.6,0.149,-1.016,28.9,2.0,,0.0,0.0,
2025-08-15T02:40:03.693Z,15,GR86-030-18,-64.3,0.134,-1.007,28.89,2.0,,0.0,0.0,
2025-08-15T02:40:03.736Z,15,GR86-030-18,-66.4,0.086,-1.072,28.9,2.0,5588.0,0.0,0.0,
2025-08-15T02:40:03.780Z,15,GR86-030-18,-63.2,0.085,-1.087,29.04,2.0,,0.0,0.0,94.96
2025-08-15T02:40:03.823Z,15,GR86-030-18,-59.5,0.067,-1.084,29.52,2.0,,0.0,0.0,
2025-08-15T02:40:03.866Z,15,GR86-030-18,-54.900000000000006,0.105,-1.081,33.38,2.0,,0.0,0.0,
2025-08-15T02:40:03.910Z,15,GR86-030-18,-51.0,0.104,-1.114,38.23,2.0,,0.0,0.0,
2025-08-15T02:40:03.953Z,15,GR86-030-18,-50.0,0.12,-1.059,40.93,2.0,5486.0,0.0,0.0,
2025-08-15T02:40:03.997Z,15,GR86-030-18,-50.900000000000006,0.131,-1.106,42.59,2.0,,0.0,0.0,94.61
2025-08-15T02:40:04.040Z,15,GR86-030-18,-50.6,0.153,-1.124,42.61,2.0,,0.0,0.0,
2025-08-15T02:40:04.083Z,15,GR86-030-18,-47.6,0.177,-1.093,42.4,2.0,,0.0,0.0,
2025-08-15T02:40:04.126Z,15,GR86-030-18,-42.2,0.139,-1.134,42.48,2.0,,0.0,0.0,
2025-08-15T02:40:04.171Z,15,GR86-030-18,-35.1,0.193,-1.109,44.21,2.0,5579.0,0.0,0.0,
2025-08-15T02:40:04.213Z,15,GR86-030-18,-29.1,0.171,-1.095,49.48,2.0,,0.0,0.0,96.22
2025-08-15T02:40:04.256Z,15,GR86-030-18,-28.3,0.21,-1.067,54.27,2.0,,0.0,0.0,
2025-08-15T02:40:04.300Z,15,GR86-030-18,-36.2,0.246,-1.031,60.72,2.0,,0.0,0.0,
2025-08-15T02:40:04.343Z,15,GR86-030-18,-42.0,0.189,-1.118,71.82000000000001,2.0,,0.0,0.0,
2025-08-15T02:40:04.386Z,15,GR86-030-18,-44.6,0.244,-1.099,84.44,2.0,5711.0,0.0,0.0,
2025-08-15T02:40:04.430Z,15,GR86-030-18,-44.0,0.173,-1.132,99.04,2.0,,0.0,0.0,97.01
2025-08-15T02:40:04.473Z,15,GR86-030-18,-42.1,0.236,-1.128,99.76,2.0,,0.0,0.0,
2025-08-15T02:40:04.515Z,15,GR86-030-18,-40.5,0.232,-1.112,99.83,2.0,,0.0,0.0,
2025-08-15T02:40:04.559Z,15,GR86-030-18,-39.0,0.229,-1.088,99.82,2.0,,0.0,0.0,
2025-08-15T02:40:04.603Z,15,GR86-030-18,-38.8,0.279,-1.005,99.82,2.0,5755.0,0.0,0.0,
2025-08-15T02:40:04.646Z,15,GR86-030-18,-39.2,0.205,-1.037,99.8,2.0,,0.0,0.0,97.98
2025-08-15T02:40:04.690Z,15,GR86-030-18,-39.6,0.243,-0.981,99.82,2.0,,0.0,0.0,
2025-08-15T02:40:04.732Z,15,GR86-030-18,-39.8,0.215,-0.982,99.83,2.0,,0.0,0.0,
2025-08-15T02:40:04.775Z,15,GR86-030-18,-39.8,0.229,-1.023,99.83,2.0,,0.0,0.0,
2025-08-15T02:40:04.819Z,15,GR86-030-18,-39.8,0.236,-0.976,99.83,2.0,5854.0,0.0,0.0,
2025-08-15T02:40:04.861Z,15,GR86-030-18,-39.7,0.227,-1.018,99.84,2.0,,0.0,0.0,99.07
2025-08-15T02:40:04.904Z,15,GR86-030-18,-39.6,0.27,-0.948,99.84,2.0,,0.0,0.0,
2025-08-15T02:40:04.949Z,15,GR86-030-18,-39.6,0.261,-0.959,99.84,2.0,,0.0,0.0,
2025-08-15T02:40:04.991Z,15,GR86-030-18,-39.6,0.209,-0.974,99.84,2.0,,0.0,0.0,
2025-08-15T02:40:05.034Z,15,GR86-030-18,-39.5,0.243,-0.954,99.83,2.0,5908.0,0.0,0.0,
2025-08-15T02:40:05.077Z,15,GR86-030-18,-39.3,0.171,-1.016,99.83,2.0,,0.0,0.0,100.64
2025-08-15T02:40:05.120Z,15,GR86-030-18,-39.0,0.205,-1.014,99.82,2.0,,0.0,0.0,
2025-08-15T02:40:05.163Z,15,GR86-030-18,-38.8,0.273,-1.022,99.82,2.0,,0.0,0.0,
2025-08-15T02:40:05.206Z,15,GR86-030-18,-38.5,0.189,-1.032,99.83,2.0,,0.0,0.0,
2025-08-15T02:40:05.250Z,15,GR86-030-18,-38.3,0.276,-1.03,99.83,2.0,5998.0,0.0,0.0,
2025-08-15T02:40:05.293Z,15,GR86-030-18,-38.3,0.216,-0.983,99.83,2.0,,0.0,0.0,102.27
2025-08-15T02:40:05.337Z,15,GR86-030-18,-38.3,0.249,-0.946,99.83,2.0,,0.0,0.0,
2025-08-15T02:40:05.380Z,15,GR86-030-18,-38.3,0.263,-0.931,99.83,2.0,,0.0,0.0,
2025-08-15T02:40:05.423Z,15,GR86-030-18,-38.2,0.185,-0.923,99.83,2.0,,0.0,0.0,
2025-08-15T02:40:05.466Z,15,GR86-030-18,-37.5,0.198,-0.957,99.83,2.0,6094.0,0.0,0.0,
2025-08-15T02:40:05.510Z,15,GR86-030-18,-36.0,0.24,-0.938,99.83,2.0,,0.0,0.0,103.9
2025-08-15T02:40:05.553Z,15,GR86-030-18,-34.0,0.215,-0.932,99.85,2.0,,0.0,0.0,
2025-08-15T02:40:05.597Z,15,GR86-030-18,-32.300000000000004,0.262,-0.912,99.82,2.0,,0.0,0.0,
2025-08-15T02:40:05.640Z,15,GR86-030-18,-30.700000000000003,0.246,-0.936,99.83,2.0,,0.0,0.0,
2025-08-15T02:40:05.683Z,15,GR86-030-18,-29.700000000000003,0.182,-0.968,99.83,2.0,6157.0,0.0,0.0,
2025-08-15T02:40:05.726Z,15,GR86-030-18,-28.1,0.251,-0.939,99.83,2.0,,0.0,0.0,105.67
2025-08-15T02:40:05.770Z,15,GR86-030-18,-26.6,0.223,-0.945,99.83,2.0,,0.0,0.0,
2025-08-15T02:40:05.812Z,15,GR86-030-18,-25.700000000000003,0.235,-0.938,99.83,2.0,,0.0,0.0,
2025-08-15T02:40:05.855Z,15,GR86-030-18,-25.3,0.238,-0.903,99.83,2.0,,0.0,0.0,
2025-08-15T02:40:05.899Z,15,GR86-030-18,-24.0,0.247,-0.896,99.83,2.0,6281.0,0.0,0.0,
2025-08-15T02:40:05.941Z,15,GR86-030-18,-22.4,0.24,-0.909,99.83,2.0,,0.0,0.0,107.64
2025-08-15T02:40:05.985Z,15,GR86-030-18,-21.1,0.295,-0.88,99.83,2.0,,0.0,0.0,
2025-08-15T02:40:06.029Z,15,GR86-030-18,-20.8,0.228,-0.858,99.84,2.0,,0.0,0.0,
2025-08-15T02:40:06.071Z,15,GR86-030-18,-21.6,0.257,-0.854,99.82,2.0,,0.0,0.0,
2025-08-15T02:40:06.114Z,15,GR86-030-18,-23.5,0.245,-0.8180000000000001,99.86,2.0,6386.0,0.0,0.0,
2025-08-15T02:40:06.157Z,15,GR86-030-18,-25.9,0.215,-0.801,99.86,2.0,,0.0,0.0,109.2
2025-08-15T02:40:06.200Z,15,GR86-030-18,-29.4,0.214,-0.806,99.87,2.0,,0.0,0.0,
2025-08-15T02:40:06.243Z,15,GR86-030-18,-30.4,0.249,-0.778,99.83,2.0,,0.0,0.0,
2025-08-15T02:40:06.286Z,15,GR86-030-18,-29.9,0.206,-0.772,99.83,2.0,,0.0,0.0,
2025-08-15T02:40:06.330Z,15,GR86-030-18,-28.700000000000003,0.234,-0.779,99.85,2.0,6487.0,0.0,0.0,
2025-08-15T02:40:06.373Z,15,GR86-030-18,-28.4,0.23,-0.758,99.84,2.0,,0.0,0.0,110.93
2025-08-15T02:40:06.416Z,15,GR86-030-18,-28.200000000000003,0.19,-0.798,99.85,2.0,,0.0,0.0,
2025-08-15T02:40:06.460Z,15,GR86-030-18,-27.3,0.216,-0.79,99.83,2.0,,0.0,0.0,
2025-08-15T02:40:06.503Z,15,GR86-030-18,-26.0,0.255,-0.808,99.85,2.0,,0.0,0.0,
2025-08-15T02:40:06.546Z,15,GR86-030-18,-24.700000000000003,0.222,-0.713,99.83,2.0,6592.0,0.0,0.0,
2025-08-15T02:40:06.590Z,15,GR86-030-18,-23.200000000000003,0.183,-0.712,99.83,2.0,,0.0,0.0,112.72
2025-08-15T02:40:06.632Z,15,GR86-030-18,-22.3,0.143,-0.641,99.85,2.0,,0.0,0.0,
2025-08-15T02:40:06.675Z,15,GR86-030-18,-21.8,0.101,-0.5690000000000001,99.84,2.0,,0.0,0.0,
2025-08-15T02:40:06.719Z,15,GR86-030-18,-20.9,0.281,-0.609,99.86,2.0,,0.0,0.0,
2025-08-15T02:40:06.764Z,15,GR86-030-18,-20.8,0.296,-0.62,99.86,2.0,6700.0,0.0,0.0,
2025-08-15T02:40:06.807Z,15,GR86-030-18,-20.6,0.277,-0.519,99.86,2.0,,0.0,0.0,114.46
2025-08-15T02:40:06.850Z,15,GR86-030-18,-20.5,0.276,-0.552,99.83,2.0,,0.0,0.0,
2025-08-15T02:40:06.893Z,15,GR86-030-18,-19.6,0.284,-0.656,99.83,2.0,,0.0,0.0,
2025-08-15T02:40:06.937Z,15,GR86-030-18,-18.3,0.276,-0.603,99.84,2.0,,0.0,0.0,
2025-08-15T02:40:06.980Z,15,GR86-030-18,-16.1,0.269,-0.747,99.85,2.0,6822.0,0.0,0.0,
2025-08-15T02:40:07.067Z,15,GR86-030-18,-12.8,0.284,-0.73,99.86,2.0,,0.0,0.0,115.96
2025-08-15T02:40:07.110Z,15,GR86-030-18,-11.4,0.185,-0.6960000000000001,99.83,2.0,,0.0,0.0,
2025-08-15T02:40:07.153Z,15,GR86-030-18,-10.4,0.245,-0.635,99.85,2.0,,0.0,0.0,
2025-08-15T02:40:07.196Z,15,GR86-030-18,-10.1,0.248,-0.541,99.86,2.0,6938.0,0.0,0.0,
2025-08-15T02:40:07.240Z,15,GR86-030-18,-9.5,0.234,-0.54,99.86,2.0,,0.0,0.0,117.64
2025-08-15T02:40:07.283Z,15,GR86-030-18,-8.9,0.258,-0.46,99.83,2.0,,0.0,0.0,
2025-08-15T02:40:07.326Z,15,GR86-030-18,-7.7,0.204,-0.536,99.86,2.0,,0.0,0.0,
2025-08-15T02:40:07.370Z,15,GR86-030-18,-7.6,0.264,-0.303,99.83,2.0,,0.0,0.0,
2025-08-15T02:40:07.413Z,15,GR86-030-18,-7.300000000000001,0.21,-0.238,99.86,2.0,6983.0,0.0,0.0,
2025-08-15T02:40:07.455Z,15,GR86-030-18,-6.9,0.138,-0.189,99.84,2.0,,0.0,0.0,119.2
2025-08-15T02:40:07.499Z,15,GR86-030-18,-3.5,0.26,-0.216,99.86,2.0,,0.0,0.0,
2025-08-15T02:40:07.541Z,15,GR86-030-18,-1.5,0.295,-0.215,99.83,2.0,,0.0,0.0,
2025-08-15T02:40:07.584Z,15,GR86-030-18,-0.5,0.306,-0.152,99.86,2.0,,0.0,0.0,
2025-08-15T02:40:07.629Z,15,GR86-030-18,-1.0,0.218,-0.082,99.89,2.0,7047.0,0.0,0.0,
2025-08-15T02:40:07.671Z,15,GR86-030-18,-1.9,0.253,-0.061,99.85,2.0,,0.0,0.0,120.93
2025-08-15T02:40:07.714Z,15,GR86-030-18,-1.6,0.277,-0.106,99.83,2.0,,0.0,0.0,
2025-08-15T02:40:07.757Z,15,GR86-030-18,-1.1,0.176,0.005,99.83,2.0,,0.0,0.0,
2025-08-15T02:40:07.800Z,15,GR86-030-18,-3.3000000000000003,0.024,-0.035,99.86,3.0,,0.0,0.0,
2025-08-15T02:40:07.843Z,15,GR86-030-18,-3.7,0.652,-0.079,99.86,3.0,7218.0,0.0,0.0,
2025-08-15T02:40:07.886Z,15,GR86-030-18,-2.8000000000000003,0.365,-0.057,99.86,3.0,,0.0,0.0,122.81
2025-08-15T02:40:07.930Z,15,GR86-030-18,-2.1,0.333,0.042,99.86,3.0,,0.0,0.0,
2025-08-15T02:40:07.973Z,15,GR86-030-18,-2.1,0.08,-0.095,99.86,3.0,,0.0,0.0,
2025-08-15T02:40:08.015Z,15,GR86-030-18,-2.1,0.09,-0.156,99.86,3.0,,0.0,0.0,
2025-08-15T02:40:08.059Z,15,GR86-030-18,-0.5,0.245,-0.103,99.87,3.0,7146.0,0.0,0.0,
2025-08-15T02:40:08.101Z,15,GR86-030-18,1.6,0.277,-0.164,99.85,3.0,,0.0,0.0,124.34
2025-08-15T02:40:08.144Z,15,GR86-030-18,3.5,0.188,-0.098,99.86,3.0,,0.0,0.0,
2025-08-15T02:40:08.187Z,15,GR86-030-18,4.2,0.143,-0.155,99.86,3.0,,0.0,0.0,
2025-08-15T02:40:08.230Z,15,GR86-030-18,4.4,0.199,-0.094,99.86,3.0,,0.0,0.0,
2025-08-15T02:40:08.273Z,15,GR86-030-18,2.3000000000000003,0.23,-0.009,99.87,3.0,5835.0,0.0,0.0,
2025-08-15T02:40:08.316Z,15,GR86-030-18,1.7000000000000002,0.186,-0.072,99.87,3.0,,0.0,0.0,125.88
2025-08-15T02:40:08.360Z,15,GR86-030-18,2.9000000000000004,0.168,-0.019,99.86,3.0,,0.0,0.0,
2025-08-15T02:40:08.403Z,15,GR86-030-18,3.2,0.178,-0.034,99.86,3.0,,0.0,0.0,
2025-08-15T02:40:08.446Z,15,GR86-030-18,3.2,0.219,0.029,99.86,3.0,,0.0,0.0,
2025-08-15T02:40:08.490Z,15,GR86-030-18,3.3000000000000003,0.208,0.015,99.86,3.0,5958.0,0.0,0.0,
2025-08-15T02:40:08.533Z,15,GR86-030-18,3.8,0.179,-0.003,99.86,3.0,,0.0,0.0,127.81
2025-08-15T02:40:08.576Z,15,GR86-030-18,4.4,0.192,0.023,99.87,3.0,,0.0,0.0,
2025-08-15T02:40:08.620Z,15,GR86-030-18,4.9,0.173,0.028,99.85,3.0,,0.0,0.0,
2025-08-15T02:40:08.663Z,15,GR86-030-18,5.0,0.217,0.075,99.86,3.0,,0.0,0.0,
2025-08-15T02:40:08.706Z,15,GR86-030-18,5.0,0.197,0.068,99.87,3.0,6055.0,0.0,0.0,
2025-08-15T02:40:08.750Z,15,GR86-030-18,5.0,0.173,0.039,99.87,3.0,,0.0,0.0,130.6
2025-08-15T02:40:08.793Z,15,GR86-030-18,5.0,0.204,0.061,99.86,3.0,,0.0,0.0,
2025-08-15T02:40:08.835Z,15,GR86-030-18,4.6000000000000005,0.208,0.083,99.86,3.0,,0.0,0.0,
2025-08-15T02:40:08.879Z,15,GR86-030-18,4.4,0.213,0.083,99.86,3.0,,0.0,0.0,
2025-08-15T02:40:08.921Z,15,GR86-030-18,4.6000000000000005,0.199,0.077,99.86,3.0,6128.0,0.0,0.0,
2025-08-15T02:40:08.964Z,15,GR86-030-18,4.5,0.166,0.04,99.86,3.0,,0.0,0.0,132.01
2025-08-15T02:40:09.007Z,15,GR86-030-18,4.4,0.199,0.063,99.86,3.0,,0.0,0.0,
2025-08-15T02:40:09.050Z,15,GR86-030-18,4.3,0.216,0.084,99.86,3.0,,0.0,0.0,
2025-08-15T02:40:09.093Z,15,GR86-030-18,4.1000000000000005,0.187,0.064,99.86,3.0,,0.0,0.0,
2025-08-15T02:40:09.136Z,15,GR86-030-18,3.5,0.158,0.028,99.86,3.0,6191.0,0.0,0.0,
2025-08-15T02:40:09.180Z,15,GR86-030-18,2.9000000000000004,0.164,0.021,99.86,3.0,,0.0,0.0,133.37
2025-08-15T02:40:09.223Z,15,GR86-030-18,2.8000000000000003,0.179,0.024,99.87,3.0,,0.0,0.0,
2025-08-15T02:40:09.267Z,15,GR86-030-18,2.7,0.219,0.054,99.85,3.0,,0.0,0.0,
2025-08-15T02:40:09.310Z,15,GR86-030-18,2.8000000000000003,0.194,0.03,99.86,3.0,,0.0,0.0,
2025-08-15T02:40:09.353Z,15,GR86-030-18,2.8000000000000003,0.158,0.0,99.86,3.0,6319.0,0.0,0.0,
2025-08-15T02:40:09.397Z,15,GR86-030-18,2.9000000000000004,0.186,0.013,99.86,3.0,,0.0,0.0,134.66
2025-08-15T02:40:09.440Z,15,GR86-030-18,3.1,0.174,-0.017,99.86,3.0,,0.0,0.0,
2025-08-15T02:40:09.483Z,15,GR86-030-18,2.8000000000000003,0.199,0.001,99.87,3.0,,0.0,0.0,
2025-08-15T02:40:09.526Z,15,GR86-030-18,2.8000000000000003,0.194,0.001,99.87,3.0,,0.0,0.0,
2025-08-15T02:40:09.571Z,15,GR86-030-18,2.8000000000000003,0.173,-0.029,99.86,3.0,6374.0,0.0,0.0,
2025-08-15T02:40:09.613Z,15,GR86-030-18,2.9000000000000004,0.173,-0.024,99.87,3.0,,0.0,0.0,135.95
2025-08-15T02:40:09.656Z,15,GR86-030-18,3.0,0.206,-0.003,99.86,3.0,,0.0,0.0,
2025-08-15T02:40:09.700Z,15,GR86-030-18,3.1,0.178,-0.033,99.86,3.0,,0.0,0.0,
2025-08-15T02:40:09.743Z,15,GR86-030-18,3.1,0.203,-0.012,99.85,3.0,,0.0,0.0,
2025-08-15T02:40:09.785Z,15,GR86-030-18,3.1,0.192,-0.017,99.86,3.0,6433.0,0.0,0.0,
2025-08-15T02:40:09.829Z,15,GR86-030-18,3.1,0.163,-0.046,99.86,3.0,,0.0,0.0,137.36
2025-08-15T02:40:09.871Z,15,GR86-030-18,3.1,0.174,-0.037,99.85,3.0,,0.0,0.0,
2025-08-15T02:40:09.914Z,15,GR86-030-18,3.0,0.201,-0.007,99.86,3.0,,0.0,0.0,
2025-08-15T02:40:09.957Z,15,GR86-030-18,2.9000000000000004,0.207,-0.006,99.88,3.0,,0.0,0.0,
2025-08-15T02:40:10.000Z,15,GR86-030-18,2.6,0.21,0.019,99.86,3.0,6493.0,0.0,0.0,
2025-08-15T02:40:10.043Z,15,GR86-030-18,2.8000000000000003,0.19,0.01,99.88,3.0,,0.0,0.0,138.68
2025-08-15T02:40:10.086Z,15,GR86-030-18,3.5,0.157,-0.007,99.87,3.0,,0.0,0.0,
2025-08-15T02:40:10.130Z,15,GR86-030-18,3.8,0.165,-0.021,99.86,3.0,,0.0,0.0,
2025-08-15T02:40:10.173Z,15,GR86-030-18,3.8,0.207,0.025,99.87,3.0,,0.0,0.0,
2025-08-15T02:40:10.215Z,15,GR86-030-18,3.9,0.211,0.037,99.86,3.0,6556.0,0.0,0.0,
2025-08-15T02:40:10.259Z,15,GR86-030-18,3.9,0.216,0.056,99.86,3.0,,0.0,0.0,140.01
2025-08-15T02:40:10.303Z,15,GR86-030-18,4.0,0.205,0.051,99.86,3.0,,0.0,0.0,
2025-08-15T02:40:10.390Z,15,GR86-030-18,4.3,0.153,0.021,99.84,3.0,,0.0,0.0,
2025-08-15T02:40:10.432Z,15,GR86-030-18,4.4,0.188,0.068,99.85,3.0,6619.0,0.0,0.0,
2025-08-15T02:40:10.475Z,15,GR86-030-18,4.3,0.207,0.099,99.86,3.0,,0.0,0.0,141.25
2025-08-15T02:40:10.519Z,15,GR86-030-18,4.0,0.199,0.087,99.87,3.0,,0.0,0.0,
2025-08-15T02:40:10.561Z,15,GR86-030-18,3.9,0.219,0.102,99.86,3.0,,0.0,0.0,
2025-08-15T02:40:10.604Z,15,GR86-030-18,3.9,0.182,0.096,99.86,3.0,,0.0,0.0,
2025-08-15T02:40:10.647Z,15,GR86-030-18,3.9,0.143,0.065,99.86,3.0,6669.0,0.0,0.0,
2025-08-15T02:40:10.690Z,15,GR86-030-18,3.8,0.164,0.071,99.87,3.0,,0.0,0.0,142.49
2025-08-15T02:40:10.733Z,15,GR86-030-18,3.8,0.209,0.107,99.86,3.0,,0.0,0.0,
2025-08-15T02:40:10.776Z,15,GR86-030-18,3.7,0.214,0.127,99.87,3.0,,0.0,0.0,
2025-08-15T02:40:10.820Z,15,GR86-030-18,3.5,0.201,0.105,99.86,3.0,,0.0,0.0,
2025-08-15T02:40:10.863Z,15,GR86-030-18,3.4000000000000004,0.207,0.108,99.86,3.0,6733.0,0.0,0.0,
2025-08-15T02:40:10.906Z,15,GR86-030-18,3.4000000000000004,0.179,0.076,99.87,3.0,,0.0,0.0,143.68
2025-08-15T02:40:10.950Z,15,GR86-030-18,3.3000000000000003,0.142,0.034,99.86,3.0,,0.0,0.0,
2025-08-15T02:40:10.993Z,15,GR86-030-18,3.0,0.16,0.024,99.86,3.0,,0.0,0.0,
2025-08-15T02:40:11.036Z,15,GR86-030-18,2.8000000000000003,0.201,0.054,99.85,3.0,,0.0,0.0,
2025-08-15T02:40:11.080Z,15,GR86-030-18,2.6,0.158,0.009,99.87,3.0,6793.0,0.0,0.0,
2025-08-15T02:40:11.123Z,15,GR86-030-18,2.4000000000000004,0.197,0.03,99.85,3.0,,0.0,0.0,144.83
2025-08-15T02:40:11.166Z,15,GR86-030-18,2.3000000000000003,0.213,0.053,99.84,3.0,,0.0,0.0,
2025-08-15T02:40:11.210Z,15,GR86-030-18,2.3000000000000003,0.181,0.036,99.85,3.0,,0.0,0.0,
2025-08-15T02:40:11.296Z,15,GR86-030-18,2.4000000000000004,0.142,-0.019,99.86,3.0,6835.0,0.0,0.0,
2025-08-15T02:40:11.341Z,15,GR86-030-18,2.9000000000000004,0.149,0.006,99.86,3.0,,0.0,0.0,147.09
2025-08-15T02:40:11.383Z,15,GR86-030-18,3.1,0.14,-0.013,99.85,3.0,,0.0,0.0,
2025-08-15T02:40:11.426Z,15,GR86-030-18,3.0,0.158,0.001,99.83,3.0,,0.0,0.0,
2025-08-15T02:40:11.470Z,15,GR86-030-18,3.0,0.203,0.035,99.86,3.0,,0.0,0.0,
2025-08-15T02:40:11.512Z,15,GR86-030-18,3.1,0.197,0.04,99.85,3.0,6888.0,0.0,0.0,
2025-08-15T02:40:11.555Z,15,GR86-030-18,3.1,0.156,0.03,99.85,3.0,,0.0,0.0,148.26
2025-08-15T02:40:11.599Z,15,GR86-030-18,2.5,0.196,0.048,99.89,3.0,,0.0,0.0,
2025-08-15T02:40:11.641Z,15,GR86-030-18,2.3000000000000003,0.174,0.038,99.86,3.0,,0.0,0.0,
2025-08-15T02:40:11.685Z,15,GR86-030-18,2.0,0.134,0.006,99.85,3.0,,0.0,0.0,
2025-08-15T02:40:11.729Z,15,GR86-030-18,1.9,0.131,-0.013,99.9,3.0,6943.0,0.0,0.0,
2025-08-15T02:40:11.771Z,15,GR86-030-18,1.8,0.166,0.01,99.86,3.0,,0.0,0.0,149.38
2025-08-15T02:40:11.814Z,15,GR86-030-18,1.8,0.187,0.028,99.83,3.0,,0.0,0.0,
2025-08-15T02:40:11.857Z,15,GR86-030-18,1.9,0.191,0.032,99.86,3.0,,0.0,0.0,
2025-08-15T02:40:11.900Z,15,GR86-030-18,1.9,0.176,0.005,99.85,3.0,,0.0,0.0,
2025-08-15T02:40:11.943Z,15,GR86-030-18,1.9,0.192,0.025,99.89,3.0,7043.0,0.0,0.0,
2025-08-15T02:40:11.986Z,15,GR86-030-18,1.9,0.174,0.02,99.85,3.0,,0.0,0.0,150.49
2025-08-15T02:40:12.030Z,15,GR86-030-18,1.8,0.135,-0.012,99.83,3.0,,0.0,0.0,
2025-08-15T02:40:12.073Z,15,GR86-030-18,1.9,0.118,-0.026,99.85,3.0,,0.0,0.0,
2025-08-15T02:40:12.116Z,15,GR86-030-18,1.9,0.125,-0.027,99.84,3.0,,0.0,0.0,
2025-08-15T02:40:12.160Z,15,GR86-030-18,2.0,0.124,-0.026,99.86,3.0,7099.0,0.0,0.0,
2025-08-15T02:40:12.203Z,15,GR86-030-18,2.1,0.123,-0.037,99.82,3.0,,0.0,0.0,151.57
2025-08-15T02:40:12.246Z,15,GR86-030-18,2.0,0.149,-0.02,99.87,3.0,,0.0,0.0,
2025-08-15T02:40:12.290Z,15,GR86-030-18,1.9,0.171,0.024,99.85,3.0,,0.0,0.0,
2025-08-15T02:40:12.332Z,15,GR86-030-18,1.9,0.185,0.041,99.85,3.0,,0.0,0.0,
2025-08-15T02:40:12.375Z,15,GR86-030-18,2.0,0.172,0.036,99.9,3.0,7140.0,0.0,0.0,
2025-08-15T02:40:12.419Z,15,GR86-030-18,1.8,0.183,0.02,99.85,3.0,,0.0,0.0,152.66
2025-08-15T02:40:12.463Z,15,GR86-030-18,1.7000000000000002,0.188,0.018,99.88,3.0,,0.0,0.0,
2025-08-15T02:40:12.506Z,15,GR86-030-18,1.8,0.154,0.005,99.84,3.0,,0.0,0.0,
2025-08-15T02:40:12.550Z,15,GR86-030-18,1.8,0.122,-0.024,99.88,3.0,,0.0,0.0,
2025-08-15T02:40:12.593Z,15,GR86-030-18,1.5,0.115,-0.042,99.86,3.0,7189.0,0.0,0.0,
2025-08-15T02:40:12.635Z,15,GR86-030-18,1.2000000000000002,0.119,-0.026,99.83,3.0,,0.0,0.0,153.68
2025-08-15T02:40:12.679Z,15,GR86-030-18,0.7000000000000001,-0.15,0.001,99.86,4.0,,0.0,0.0,
2025-08-15T02:40:12.721Z,15,GR86-030-18,0.9,0.45,-0.022,99.86,4.0,,0.0,0.0,
2025-08-15T02:40:12.764Z,15,GR86-030-18,0.9,0.255,-0.13,99.83,4.0,,0.0,0.0,
2025-08-15T02:40:12.807Z,15,GR86-030-18,1.0,0.177,0.003,99.85,4.0,7234.0,0.0,0.0,
2025-08-15T02:40:12.850Z,15,GR86-030-18,1.0,0.026,-0.006,99.84,4.0,,0.0,0.0,154.72
2025-08-15T02:40:12.893Z,15,GR86-030-18,0.9,0.112,-0.086,99.86,4.0,,0.0,0.0,
2025-08-15T02:40:12.936Z,15,GR86-030-18,1.1,0.18,0.004,99.86,4.0,,0.0,0.0,
2025-08-15T02:40:12.980Z,15,GR86-030-18,1.9,0.134,-0.062,99.84,4.0,,0.0,0.0,
2025-08-15T02:40:13.024Z,15,GR86-030-18,1.7000000000000002,0.117,-0.009,99.85,4.0,6489.0,0.0,0.0,
2025-08-15T02:40:13.067Z,15,GR86-030-18,1.6,0.128,-0.033,99.87,4.0,,0.0,0.0,155.70000000000002
2025-08-15T02:40:13.110Z,15,GR86-030-18,1.8,0.132,-0.05,99.85,4.0,,0.0,0.0,
2025-08-15T02:40:13.153Z,15,GR86-030-18,2.0,0.092,-0.041,99.85,4.0,,0.0,0.0,
2025-08-15T02:40:13.197Z,15,GR86-030-18,2.2,0.088,-0.062,99.85,4.0,,0.0,0.0,
2025-08-15T02:40:13.240Z,15,GR86-030-18,2.1,0.118,-0.035,99.87,4.0,6208.0,0.0,0.0,
2025-08-15T02:40:13.283Z,15,GR86-030-18,1.7000000000000002,0.099,-0.057,99.86,4.0,,0.0,0.0,156.75
2025-08-15T02:40:13.326Z,15,GR86-030-18,1.4,0.095,-0.04,99.87,4.0,,0.0,0.0,
2025-08-15T02:40:13.370Z,15,GR86-030-18,1.5,0.101,-0.047,99.83,4.0,,0.0,0.0,
2025-08-15T02:40:13.412Z,15,GR86-030-18,1.5,0.137,-0.021,99.83,4.0,,0.0,0.0,
2025-08-15T02:40:13.455Z,15,GR86-030-18,1.3,0.142,-0.021,99.87,4.0,6192.0,0.0,0.0,
2025-08-15T02:40:13.499Z,15,GR86-030-18,1.2000000000000002,0.102,-0.044,99.83,4.0,,0.0,0.0,157.55
2025-08-15T02:40:13.541Z,15,GR86-030-18,1.2000000000000002,0.126,-0.028,99.85,4.0,,0.0,0.0,
2025-08-15T02:40:13.584Z,15,GR86-030-18,1.3,0.141,-0.026,99.85,4.0,,0.0,0.0,
2025-08-15T02:40:13.627Z,15,GR86-030-18,1.3,0.146,-0.028,99.83,4.0,,0.0,0.0,
2025-08-15T02:40:13.670Z,15,GR86-030-18,1.3,0.142,-0.039,99.86,4.0,6233.0,0.0,0.0,
2025-08-15T02:40:13.713Z,15,GR86-030-18,1.3,0.107,-0.044,99.86,4.0,,0.0,0.0,158.32
2025-08-15T02:40:13.756Z,15,GR86-030-18,1.2000000000000002,0.102,-0.064,99.86,4.0,,0.0,0.0,
2025-08-15T02:40:13.800Z,15,GR86-030-18,1.0,0.144,-0.024,99.83,4.0,,0.0,0.0,
2025-08-15T02:40:13.886Z,15,GR86-030-18,0.9,0.128,-0.032,99.85,4.0,6264.0,0.0,0.0,
2025-08-15T02:40:13.930Z,15,GR86-030-18,0.6000000000000001,0.096,-0.069,99.84,4.0,,0.0,0.0,159.21
2025-08-15T02:40:13.973Z,15,GR86-030-18,0.5,0.09,-0.075,99.87,4.0,,0.0,0.0,
2025-08-15T02:40:14.015Z,15,GR86-030-18,0.4,0.104,-0.07,99.85,4.0,,0.0,0.0,
2025-08-15T02:40:14.059Z,15,GR86-030-18,0.2,0.106,-0.08,99.87,4.0,,0.0,0.0,
2025-08-15T02:40:14.101Z,15,GR86-030-18,0.2,0.096,-0.09,99.86,4.0,6300.0,0.0,0.0,
2025-08-15T02:40:14.144Z,15,GR86-030-18,0.0,0.1,-0.096,99.83,4.0,,0.0,0.0,160.97
2025-08-15T02:40:14.187Z,15,GR86-030-18,0.0,0.107,-0.079,99.85,4.0,,0.0,0.0,
2025-08-15T02:40:14.230Z,15,GR86-030-18,-0.1,0.121,-0.073,99.83,4.0,,0.0,0.0,
2025-08-15T02:40:14.273Z,15,GR86-030-18,-0.1,0.127,-0.06,99.86,4.0,,0.0,0.0,
2025-08-15T02:40:14.316Z,15,GR86-030-18,-0.2,0.134,-0.063,99.86,4.0,6329.0,0.0,0.0,
2025-08-15T02:40:14.360Z,15,GR86-030-18,-0.1,0.104,-0.099,99.87,4.0,,0.0,0.0,161.87
2025-08-15T02:40:14.403Z,15,GR86-030-18,-0.1,0.129,-0.074,99.86,4.0,,0.0,0.0,
2025-08-15T02:40:14.446Z,15,GR86-030-18,-0.2,0.127,-0.06,99.82,4.0,,0.0,0.0,
2025-08-15T02:40:14.490Z,15,GR86-030-18,-0.4,0.146,-0.064,99.86,4.0,,0.0,0.0,
2025-08-15T02:40:14.533Z,15,GR86-030-18,-0.6000000000000001,0.143,-0.08,99.83,4.0,6373.0,0.0,0.0,
2025-08-15T02:40:14.576Z,15,GR86-030-18,-0.7000000000000001,0.13,-0.09,99.86,4.0,,0.0,0.0,162.8
2025-08-15T02:40:14.620Z,15,GR86-030-18,-1.0,0.12,-0.112,99.87,4.0,,0.0,0.0,
2025-08-15T02:40:14.663Z,15,GR86-030-18,-1.2000000000000002,0.131,-0.12,99.86,4.0,,0.0,0.0,
2025-08-15T02:40:14.706Z,15,GR86-030-18,-1.3,0.141,-0.123,99.85,4.0,,0.0,0.0,
2025-08-15T02:40:14.750Z,15,GR86-030-18,-1.3,0.135,-0.125,99.84,4.0,6438.0,0.0,0.0,
2025-08-15T02:40:14.793Z,15,GR86-030-18,-1.3,0.128,-0.138,99.83,4.0,,0.0,0.0,163.68
2025-08-15T02:40:14.835Z,15,GR86-030-18,-1.3,0.103,-0.152,99.84,4.0,,0.0,0.0,
2025-08-15T02:40:14.879Z,15,GR86-030-18,-1.2000000000000002,0.133,-0.136,99.86,4.0,,0.0,0.0,
2025-08-15T02:40:14.921Z,15,GR86-030-18,-1.2000000000000002,0.135,-0.139,99.85,4.0,,0.0,0.0,
2025-08-15T02:40:14.964Z,15,GR86-030-18,-1.3,0.141,-0.148,99.84,4.0,6479.0,0.0,0.0,
2025-08-15T02:40:15.007Z,15,GR86-030-18,-1.3,0.117,-0.165,99.82,4.0,,0.0,0.0,164.61
2025-08-15T02:40:15.050Z,15,GR86-030-18,-1.2000000000000002,0.116,-0.177,99.86,4.0,,0.0,0.0,
2025-08-15T02:40:15.093Z,15,GR86-030-18,-1.2000000000000002,0.101,-0.194,99.84,4.0,,0.0,0.0,
2025-08-15T02:40:15.137Z,15,GR86-030-18,-1.2000000000000002,0.095,-0.19,99.86,4.0,,0.0,0.0,
2025-08-15T02:40:15.180Z,15,GR86-030-18,-1.3,0.138,-0.15,99.83,4.0,6514.0,0.0,0.0,
2025-08-15T02:40:15.223Z,15,GR86-030-18,-1.2000000000000002,0.135,-0.15,99.83,4.0,,0.0,0.0,165.53
2025-08-15T02:40:15.266Z,15,GR86-030-18,-1.2000000000000002,0.11,-0.167,99.85,4.0,,0.0,0.0,
2025-08-15T02:40:15.310Z,15,GR86-030-18,-1.2000000000000002,0.108,-0.173,99.87,4.0,,0.0,0.0,
2025-08-15T02:40:15.353Z,15,GR86-030-18,-1.2000000000000002,0.101,-0.166,99.87,4.0,,0.0,0.0,
2025-08-15T02:40:15.397Z,15,GR86-030-18,-1.1,0.093,-0.169,99.83,4.0,6543.0,0.0,0.0,
2025-08-15T02:40:15.440Z,15,GR86-030-18,-1.1,0.136,-0.13,99.85,4.0,,0.0,0.0,166.44
2025-08-15T02:40:15.483Z,15,GR86-030-18,-1.1,0.121,-0.14,99.83,4.0,,0.0,0.0,
2025-08-15T02:40:15.526Z,15,GR86-030-18,-1.1,0.123,-0.155,99.86,4.0,,0.0,0.0,
2025-08-15T02:40:15.571Z,15,GR86-030-18,-1.1,0.102,-0.174,99.83,4.0,,0.0,0.0,
2025-08-15T02:40:15.613Z,15,GR86-030-18,-1.1,0.096,-0.185,99.84,4.0,6580.0,0.0,0.0,
2025-08-15T02:40:15.656Z,15,GR86-030-18,-1.1,0.077,-0.19,99.86,4.0,,0.0,0.0,167.41
2025-08-15T02:40:15.700Z,15,GR86-030-18,-1.1,0.147,-0.144,99.86,4.0,,0.0,0.0,
2025-08-15T02:40:15.743Z,15,GR86-030-18,-1.1,0.132,-0.167,99.85,4.0,,0.0,0.0,
2025-08-15T02:40:15.786Z,15,GR86-030-18,-1.1,0.125,-0.168,99.86,4.0,,0.0,0.0,
2025-08-15T02:40:15.830Z,15,GR86-030-18,-1.1,0.108,-0.178,99.86,4.0,6619.0,0.0,0.0,
2025-08-15T02:40:15.873Z,15,GR86-030-18,-1.1,0.095,-0.181,99.84,4.0,,0.0,0.0,168.3
2025-08-15T02:40:15.917Z,15,GR86-030-18,-1.0,0.098,-0.189,99.86,4.0,,0.0,0.0,
2025-08-15T02:40:15.960Z,15,GR86-030-18,-1.1,0.138,-0.156,99.84,4.0,,0.0,0.0,
2025-08-15T02:40:16.003Z,15,GR86-030-18,-1.1,0.123,-0.165,99.84,4.0,,0.0,0.0,
2025-08-15T02:40:16.046Z,15,GR86-030-18,-1.2000000000000002,0.114,-0.164,99.85,4.0,6654.0,0.0,0.0,
2025-08-15T02:40:16.090Z,15,GR86-030-18,-1.5,0.101,-0.194,99.84,4.0,,0.0,0.0,169.11
2025-08-15T02:40:16.133Z,15,GR86-030-18,-1.6,0.104,-0.18,99.85,4.0,,0.0,0.0,
2025-08-15T02:40:16.176Z,15,GR86-030-18,-1.6,0.075,-0.211,99.85,4.0,,0.0,0.0,
2025-08-15T02:40:16.220Z,15,GR86-030-18,-1.4,0.118,-0.141,99.83,4.0,,0.0,0.0,
2025-08-15T02:40:16.263Z,15,GR86-030-18,-1.3,0.123,-0.155,99.83,4.0,6689.0,0.0,0.0,
2025-08-15T02:40:16.306Z,15,GR86-030-18,-1.1,0.118,-0.147,99.82,4.0,,0.0,0.0,170.03
2025-08-15T02:40:16.350Z,15,GR86-030-18,-0.9,0.129,-0.142,99.83,4.0,,0.0,0.0,
2025-08-15T02:40:16.393Z,15,GR86-030-18,-0.7000000000000001,0.121,-0.129,99.83,4.0,,0.0,0.0,
2025-08-15T02:40:16.437Z,15,GR86-030-18,-0.7000000000000001,0.109,-0.144,99.82,4.0,,0.0,0.0,
2025-08-15T02:40:16.480Z,15,GR86-030-18,-0.9,0.102,-0.149,99.84,4.0,6725.0,0.0,0.0,
2025-08-15T02:40:16.523Z,15,GR86-030-18,-1.1,0.108,-0.163,99.86,4.0,,0.0,0.0,171.05
2025-08-15T02:40:16.566Z,15,GR86-030-18,-1.0,0.122,-0.155,99.83,4.0,,0.0,0.0,
2025-08-15T02:40:16.610Z,15,GR86-030-18,-0.9,0.107,-0.154,99.83,4.0,,0.0,0.0,
2025-08-15T02:40:16.653Z,15,GR86-030-18,-0.9,0.116,-0.142,99.84,4.0,,0.0,0.0,
2025-08-15T02:40:16.696Z,15,GR86-030-18,-1.1,0.13,-0.156,99.84,4.0,6749.0,0.0,0.0,
2025-08-15T02:40:16.741Z,15,GR86-030-18,-1.0,0.08,-0.193,99.85,4.0,,0.0,0.0,172.59
2025-08-15T02:40:16.783Z,15,GR86-030-18,-1.1,0.072,-0.197,99.85,4.0,,0.0,0.0,
2025-08-15T02:40:16.826Z,15,GR86-030-18,-1.1,0.082,-0.19,99.85,4.0,,0.0,0.0,
2025-08-15T02:40:16.870Z,15,GR86-030-18,-1.0,0.092,-0.173,99.82,4.0,,0.0,0.0,
2025-08-15T02:40:16.912Z,15,GR86-030-18,-1.0,0.103,-0.163,99.79,4.0,6784.0,0.0,0.0,
2025-08-15T02:40:16.955Z,15,GR86-030-18,-1.0,0.101,-0.159,99.82,4.0,,0.0,0.0,173.38
2025-08-15T02:40:16.999Z,15,GR86-030-18,-1.0,0.067,-0.177,99.83,4.0,,0.0,0.0,
2025-08-15T02:40:17.041Z,15,GR86-030-18,-0.8,0.069,-0.171,99.82,4.0,,0.0,0.0,
2025-08-15T02:40:17.085Z,15,GR86-030-18,-0.6000000000000001,0.07,-0.164,99.83,4.0,,0.0,0.0,
2025-08-15T02:40:17.129Z,15,GR86-030-18,-0.6000000000000001,0.067,-0.155,99.85,4.0,6818.0,0.0,0.0,
2025-08-15T02:40:17.171Z,15,GR86-030-18,-0.7000000000000001,0.079,-0.171,99.85,4.0,,0.0,0.0,174.23
2025-08-15T02:40:17.214Z,15,GR86-030-18,-0.7000000000000001,0.067,-0.172,99.83,4.0,,0.0,0.0,
2025-08-15T02:40:17.257Z,15,GR86-030-18,-0.7000000000000001,0.076,-0.168,99.84,4.0,,0.0,0.0,
2025-08-15T02:40:17.300Z,15,GR86-030-18,-0.8,0.113,-0.141,99.83,4.0,,0.0,0.0,
2025-08-15T02:40:17.343Z,15,GR86-030-18,-0.7000000000000001,0.101,-0.141,99.83,4.0,6880.0,0.0,0.0,
2025-08-15T02:40:17.386Z,15,GR86-030-18,-0.6000000000000001,0.099,-0.132,99.86,4.0,,0.0,0.0,174.93
2025-08-15T02:40:17.430Z,15,GR86-030-18,-0.5,0.092,-0.146,99.84,4.0,,0.0,0.0,
2025-08-15T02:40:17.516Z,15,GR86-030-18,-0.6000000000000001,0.09,-0.154,99.85,4.0,,0.0,0.0,
2025-08-15T02:40:17.560Z,15,GR86-030-18,-0.6000000000000001,0.107,-0.131,99.82,4.0,6905.0,0.0,0.0,
2025-08-15T02:40:17.603Z,15,GR86-030-18,-0.6000000000000001,0.109,-0.125,99.83,4.0,,0.0,0.0,175.74
2025-08-15T02:40:17.646Z,15,GR86-030-18,-0.5,0.118,-0.119,99.84,4.0,,0.0,0.0,
2025-08-15T02:40:17.690Z,15,GR86-030-18,-0.4,0.111,-0.116,99.85,4.0,,0.0,0.0,
2025-08-15T02:40:17.732Z,15,GR86-030-18,-0.4,0.118,-0.118,99.83,4.0,,0.0,0.0,
2025-08-15T02:40:17.775Z,15,GR86-030-18,-0.2,0.122,-0.117,99.85,4.0,6931.0,0.0,0.0,
2025-08-15T02:40:17.819Z,15,GR86-030-18,0.0,0.079,-0.153,99.82,4.0,,0.0,0.0,176.47
2025-08-15T02:40:17.863Z,15,GR86-030-18,0.0,0.066,-0.146,99.84,4.0,,0.0,0.0,
2025-08-15T02:40:17.906Z,15,GR86-030-18,0.0,0.074,-0.134,99.83,4.0,,0.0,0.0,
2025-08-15T02:40:17.950Z,15,GR86-030-18,0.2,0.076,-0.118,99.82,4.0,,0.0,0.0,
2025-08-15T02:40:17.993Z,15,GR86-030-18,0.2,0.081,-0.11,99.84,4.0,6964.0,0.0,0.0,
2025-08-15T02:40:18.035Z,15,GR86-030-18,0.3,0.071,-0.104,99.82,4.0,,0.0,0.0,177.25
2025-08-15T02:40:18.079Z,15,GR86-030-18,0.3,0.111,-0.111,99.84,4.0,,0.0,0.0,
2025-08-15T02:40:18.121Z,15,GR86-030-18,0.4,0.114,-0.103,99.86,4.0,,0.0,0.0,
2025-08-15T02:40:18.164Z,15,GR86-030-18,0.4,0.086,-0.102,99.83,4.0,,0.0,0.0,
2025-08-15T02:40:18.207Z,15,GR86-030-18,0.7000000000000001,0.101,-0.082,99.84,4.0,7002.0,0.0,0.0,
2025-08-15T02:40:18.250Z,15,GR86-030-18,0.9,0.089,-0.082,99.86,4.0,,0.0,0.0,178.02
2025-08-15T02:40:18.293Z,15,GR86-030-18,1.1,0.088,-0.071,99.85,4.0,,0.0,0.0,
2025-08-15T02:40:18.336Z,15,GR86-030-18,1.2000000000000002,0.092,-0.077,99.83,4.0,,0.0,0.0,
2025-08-15T02:40:18.380Z,15,GR86-030-18,1.3,0.093,-0.053,99.84,4.0,,0.0,0.0,
2025-08-15T02:40:18.423Z,15,GR86-030-18,1.2000000000000002,0.096,-0.057,99.83,4.0,7020.0,0.0,0.0,
2025-08-15T02:40:18.467Z,15,GR86-030-18,1.0,0.1,-0.047,99.86,4.0,,0.0,0.0,178.81
2025-08-15T02:40:18.510Z,15,GR86-030-18,1.0,0.094,-0.04,99.83,4.0,,0.0,0.0,
2025-08-15T02:40:18.553Z,15,GR86-030-18,1.2000000000000002,0.102,-0.028,99.84,4.0,,0.0,0.0,
2025-08-15T02:40:18.597Z,15,GR86-030-18,1.3,0.102,-0.023,99.86,4.0,,0.0,0.0,
2025-08-15T02:40:18.640Z,15,GR86-030-18,1.0,0.069,-0.053,99.84,4.0,7048.0,0.0,0.0,
2025-08-15T02:40:18.683Z,15,GR86-030-18,1.0,0.075,-0.048,99.85,4.0,,0.0,0.0,179.52
2025-08-15T02:40:18.726Z,15,GR86-030-18,1.0,0.059,-0.044,99.83,4.0,,0.0,0.0,
2025-08-15T02:40:18.770Z,15,GR86-030-18,1.0,0.067,-0.044,99.83,4.0,,0.0,0.0,
2025-08-15T02:40:18.813Z,15,GR86-030-18,1.0,0.073,-0.038,99.83,4.0,,0.0,0.0,
2025-08-15T02:40:18.856Z,15,GR86-030-18,1.0,0.069,-0.024,99.82,4.0,7083.0,0.0,0.0,
2025-08-15T02:40:18.900Z,15,GR86-030-18,1.0,0.096,0.012,99.87,4.0,,0.0,0.0,180.19
2025-08-15T02:40:18.943Z,15,GR86-030-18,1.0,0.107,0.029,99.82,4.0,,0.0,0.0,
2025-08-15T02:40:18.986Z,15,GR86-030-18,1.0,0.101,0.031,99.83,4.0,,0.0,0.0,
2025-08-15T02:40:19.030Z,15,GR86-030-18,0.8,0.094,0.033,99.81,4.0,,0.0,0.0,
2025-08-15T02:40:19.073Z,15,GR86-030-18,0.7000000000000001,0.1,0.017,99.83,4.0,7113.0,0.0,0.0,
2025-08-15T02:40:19.115Z,15,GR86-030-18,0.6000000000000001,0.107,0.018,99.85,4.0,,0.0,0.0,180.96
2025-08-15T02:40:19.159Z,15,GR86-030-18,0.6000000000000001,0.069,-0.022,99.84,4.0,,0.0,0.0,
2025-08-15T02:40:19.201Z,15,GR86-030-18,0.7000000000000001,0.061,-0.009,99.85,4.0,,0.0,0.0,
2025-08-15T02:40:19.244Z,15,GR86-030-18,0.6000000000000001,0.063,-0.03,99.83,4.0,,0.0,0.0,
2025-08-15T02:40:19.287Z,15,GR86-030-18,0.6000000000000001,0.066,-0.034,99.83,4.0,7131.0,0.0,0.0,
2025-08-15T02:40:19.330Z,15,GR86-030-18,0.5,0.072,-0.046,99.83,4.0,,0.0,0.0,181.72
2025-08-15T02:40:19.373Z,15,GR86-030-18,0.4,0.055,-0.053,99.81,4.0,,0.0,0.0,
2025-08-15T02:40:19.416Z,15,GR86-030-18,0.3,0.072,-0.057,99.85,4.0,,0.0,0.0,
2025-08-15T02:40:19.460Z,15,GR86-030-18,0.3,0.105,-0.032,99.81,4.0,,0.0,0.0,
2025-08-15T02:40:19.503Z,15,GR86-030-18,0.3,0.096,-0.04,99.85,4.0,7157.0,0.0,0.0,
2025-08-15T02:40:19.546Z,15,GR86-030-18,0.4,0.104,-0.041,99.84,4.0,,0.0,0.0,183.01
2025-08-15T02:40:19.590Z,15,GR86-030-18,0.5,0.105,-0.044,99.82,4.0,,0.0,0.0,
2025-08-15T02:40:19.633Z,15,GR86-030-18,0.7000000000000001,0.089,-0.046,99.83,4.0,,0.0,0.0,
2025-08-15T02:40:19.676Z,15,GR86-030-18,0.7000000000000001,0.101,-0.055,99.83,4.0,,0.0,0.0,
2025-08-15T02:40:19.720Z,15,GR86-030-18,1.0,0.086,-0.068,99.82,4.0,7184.0,0.0,0.0,
2025-08-15T02:40:19.762Z,15,GR86-030-18,1.5,0.061,-0.059,99.79,4.0,,0.0,0.0,183.64
2025-08-15T02:40:19.805Z,15,GR86-030-18,1.5,-0.189,-0.02,99.82,5.0,,0.0,0.0,
2025-08-15T02:40:19.849Z,15,GR86-030-18,1.4,0.243,0.019,99.85,5.0,,0.0,0.0,
2025-08-15T02:40:19.891Z,15,GR86-030-18,1.3,0.212,-0.085,99.84,5.0,,0.0,0.0,
2025-08-15T02:40:19.934Z,15,GR86-030-18,1.0,0.119,-0.053,99.84,5.0,7215.0,0.0,0.0,
2025-08-15T02:40:19.977Z,15,GR86-030-18,0.8,-0.046,-0.006,99.83,5.0,,0.0,0.0,184.49
2025-08-15T02:40:20.020Z,15,GR86-030-18,0.6000000000000001,0.13,-0.108,99.83,5.0,,0.0,0.0,
2025-08-15T02:40:20.063Z,15,GR86-030-18,0.9,0.112,0.004,99.83,5.0,,0.0,0.0,
2025-08-15T02:40:20.106Z,15,GR86-030-18,1.2000000000000002,0.034,-0.064,99.84,5.0,,0.0,0.0,
2025-08-15T02:40:20.150Z,15,GR86-030-18,1.2000000000000002,0.046,-0.068,99.82,5.0,6186.0,0.0,0.0,
2025-08-15T02:40:20.193Z,15,GR86-030-18,1.3,0.076,-0.038,99.83,5.0,,0.0,0.0,185.01
2025-08-15T02:40:20.235Z,15,GR86-030-18,1.4,0.074,-0.073,99.84,5.0,,0.0,0.0,
2025-08-15T02:40:20.321Z,15,GR86-030-18,1.3,0.081,-0.04,99.84,5.0,,0.0,0.0,
2025-08-15T02:40:20.364Z,15,GR86-030-18,1.3,0.098,-0.033,99.83,5.0,6323.0,0.0,0.0,
2025-08-15T02:40:20.407Z,15,GR86-030-18,1.2000000000000002,0.088,-0.044,99.83,5.0,,0.0,0.0,185.75
2025-08-15T02:40:20.450Z,15,GR86-030-18,1.1,0.096,-0.037,99.83,5.0,,0.0,0.0,
2025-08-15T02:40:20.493Z,15,GR86-030-18,1.0,0.08,-0.052,99.82,5.0,,0.0,0.0,
2025-08-15T02:40:20.536Z,15,GR86-030-18,1.1,0.083,-0.06,99.84,5.0,,0.0,0.0,
2025-08-15T02:40:20.580Z,15,GR86-030-18,2.0,0.047,-0.081,99.84,5.0,6356.0,0.0,0.0,
2025-08-15T02:40:20.623Z,15,GR86-030-18,2.0,0.048,-0.066,99.83,5.0,,0.0,0.0,186.39
2025-08-15T02:40:20.666Z,15,GR86-030-18,2.0,0.052,-0.055,99.83,5.0,,0.0,0.0,
2025-08-15T02:40:20.710Z,15,GR86-030-18,2.5,0.069,-0.052,99.83,5.0,,0.0,0.0,
2025-08-15T02:40:20.752Z,15,GR86-030-18,3.3000000000000003,0.062,-0.029,99.83,5.0,,0.0,0.0,
2025-08-15T02:40:20.795Z,15,GR86-030-18,3.7,0.08,-0.003,99.83,5.0,6364.0,0.0,0.0,
2025-08-15T02:40:20.840Z,15,GR86-030-18,3.6,0.069,0.004,99.85,5.0,,0.0,0.0,187.0
2025-08-15T02:40:20.883Z,15,GR86-030-18,3.7,0.071,0.006,99.86,5.0,,0.0,0.0,
2025-08-15T02:40:20.926Z,15,GR86-030-18,3.8,0.073,0.021,99.83,5.0,,0.0,0.0,
2025-08-15T02:40:20.971Z,15,GR86-030-18,3.8,0.056,0.024,99.83,5.0,,0.0,0.0,
2025-08-15T02:40:21.013Z,15,GR86-030-18,3.7,0.059,0.035,99.84,5.0,6378.0,0.0,0.0,
2025-08-15T02:40:21.056Z,15,GR86-030-18,3.3000000000000003,0.052,0.044,99.83,5.0,,0.0,0.0,187.58
2025-08-15T02:40:21.100Z,15,GR86-030-18,3.4000000000000004,0.082,0.065,99.83,5.0,,0.0,0.0,
2025-08-15T02:40:21.143Z,15,GR86-030-18,3.1,0.098,0.066,99.83,5.0,,0.0,0.0,
2025-08-15T02:40:21.186Z,15,GR86-030-18,2.6,0.074,0.069,99.87,5.0,,0.0,0.0,
2025-08-15T02:40:21.230Z,15,GR86-030-18,2.3000000000000003,0.091,0.077,99.82,5.0,6414.0,0.0,0.0,
2025-08-15T02:40:21.273Z,15,GR86-030-18,2.3000000000000003,0.077,0.075,99.83,5.0,,0.0,0.0,188.2
2025-08-15T02:40:21.317Z,15,GR86-030-18,2.5,0.087,0.062,99.83,5.0,,0.0,0.0,
2025-08-15T02:40:21.361Z,15,GR86-030-18,2.6,0.071,0.05,99.83,5.0,,0.0,0.0,
2025-08-15T02:40:21.403Z,15,GR86-030-18,2.6,0.069,0.046,99.84,5.0,,0.0,0.0,
2025-08-15T02:40:21.446Z,15,GR86-030-18,2.5,0.082,0.036,99.83,5.0,6421.0,0.0,0.0,
2025-08-15T02:40:21.490Z,15,GR86-030-18,2.3000000000000003,0.077,0.031,99.83,5.0,,0.0,0.0,188.83
2025-08-15T02:40:21.533Z,15,GR86-030-18,2.2,0.087,0.022,99.84,5.0,,0.0,0.0,
2025-08-15T02:40:21.576Z,15,GR86-030-18,2.2,0.087,0.02,99.82,5.0,,0.0,0.0,
2025-08-15T02:40:21.620Z,15,GR86-030-18,2.3000000000000003,0.046,0.012,99.83,5.0,,0.0,0.0,
2025-08-15T02:40:21.663Z,15,GR86-030-18,2.5,0.054,0.017,99.86,5.0,6443.0,0.0,0.0,
2025-08-15T02:40:21.706Z,15,GR86-030-18,2.6,0.046,0.019,99.84,5.0,,0.0,0.0,189.54
2025-08-15T02:40:21.750Z,15,GR86-030-18,2.6,0.071,0.032,99.82,5.0,,0.0,0.0,
2025-08-15T02:40:21.793Z,15,GR86-030-18,2.7,0.063,0.015,99.83,5.0,,0.0,0.0,
2025-08-15T02:40:21.837Z,15,GR86-030-18,2.8000000000000003,0.055,0.025,99.83,5.0,,0.0,0.0,
2025-08-15T02:40:21.880Z,15,GR86-030-18,2.8000000000000003,0.052,0.045,99.83,5.0,6472.0,0.0,0.0,
2025-08-15T02:40:21.923Z,15,GR86-030-18,2.6,0.061,0.05,99.84,5.0,,0.0,0.0,190.06
2025-08-15T02:40:21.966Z,15,GR86-030-18,2.7,0.041,0.058,99.83,5.0,,0.0,0.0,
2025-08-15T02:40:22.010Z,15,GR86-030-18,2.8000000000000003,0.052,0.062,99.83,5.0,,0.0,0.0,
2025-08-15T02:40:22.053Z,15,GR86-030-18,2.7,0.054,0.063,99.82,5.0,,0.0,0.0,
2025-08-15T02:40:22.096Z,15,GR86-030-18,2.5,0.049,0.065,99.83,5.0,6485.0,0.0,0.0,
2025-08-15T02:40:22.141Z,15,GR86-030-18,2.3000000000000003,0.081,0.064,99.84,5.0,,0.0,0.0,191.2
2025-08-15T02:40:22.183Z,15,GR86-030-18,2.4000000000000004,0.068,0.065,99.85,5.0,,0.0,0.0,
2025-08-15T02:40:22.226Z,15,GR86-030-18,2.5,0.076,0.073,99.83,5.0,,0.0,0.0,
2025-08-15T02:40:22.270Z,15,GR86-030-18,2.7,0.059,0.055,99.83,5.0,,0.0,0.0,
2025-08-15T02:40:22.312Z,15,GR86-030-18,2.8000000000000003,0.051,0.033,99.84,5.0,6502.0,0.0,0.0,
2025-08-15T02:40:22.355Z,15,GR86-030-18,2.8000000000000003,0.058,0.02,99.82,5.0,,0.0,0.0,191.78
2025-08-15T02:40:22.399Z,15,GR86-030-18,2.8000000000000003,0.088,0.032,99.83,5.0,,0.0,0.0,
2025-08-15T02:40:22.441Z,15,GR86-030-18,2.8000000000000003,0.074,0.033,99.83,5.0,,0.0,0.0,
2025-08-15T02:40:22.485Z,15,GR86-030-18,2.7,0.074,0.046,99.83,5.0,,0.0,0.0,
2025-08-15T02:40:22.529Z,15,GR86-030-18,2.7,0.08,0.052,99.83,5.0,6519.0,0.0,0.0,
2025-08-15T02:40:22.571Z,15,GR86-030-18,2.8000000000000003,0.057,0.052,99.83,5.0,,0.0,0.0,192.29
2025-08-15T02:40:22.614Z,15,GR86-030-18,2.8000000000000003,0.054,0.042,99.83,5.0,,0.0,0.0,
2025-08-15T02:40:22.657Z,15,GR86-030-18,3.0,0.051,0.035,99.82,5.0,,0.0,0.0,
2025-08-15T02:40:22.700Z,15,GR86-030-18,3.1,0.079,0.057,99.83,5.0,,0.0,0.0,
2025-08-15T02:40:22.743Z,15,GR86-030-18,3.2,0.075,0.061,99.83,5.0,6560.0,0.0,0.0,
2025-08-15T02:40:22.786Z,15,GR86-030-18,3.3000000000000003,0.075,0.045,99.83,5.0,,0.0,0.0,192.75
2025-08-15T02:40:22.830Z,15,GR86-030-18,3.3000000000000003,0.087,0.036,99.83,5.0,,0.0,0.0,
2025-08-15T02:40:22.873Z,15,GR86-030-18,3.3000000000000003,0.066,0.042,99.83,5.0,,0.0,0.0,
2025-08-15T02:40:22.916Z,15,GR86-030-18,3.3000000000000003,0.057,0.056,99.83,5.0,,0.0,0.0,
2025-08-15T02:40:22.960Z,15,GR86-030-18,3.4000000000000004,0.069,0.072,99.83,5.0,6572.0,0.0,0.0,
2025-08-15T02:40:23.003Z,15,GR86-030-18,3.8,0.071,0.068,99.84,5.0,,0.0,0.0,193.35
2025-08-15T02:40:23.046Z,15,GR86-030-18,4.2,0.063,0.067,99.82,5.0,,0.0,0.0,
2025-08-15T02:40:23.090Z,15,GR86-030-18,4.4,0.077,0.076,99.83,5.0,,0.0,0.0,
2025-08-15T02:40:23.133Z,15,GR86-030-18,4.7,0.064,0.078,99.83,5.0,,0.0,0.0,
2025-08-15T02:40:23.176Z,15,GR86-030-18,4.9,0.071,0.098,99.83,5.0,6597.0,0.0,0.0,
2025-08-15T02:40:23.221Z,15,GR86-030-18,5.1000000000000005,0.057,0.084,99.84,5.0,,0.0,0.0,193.89
2025-08-15T02:40:23.263Z,15,GR86-030-18,5.2,0.068,0.108,99.83,5.0,,0.0,0.0,
2025-08-15T02:40:23.306Z,15,GR86-030-18,5.4,0.076,0.126,99.83,5.0,,0.0,0.0,
2025-08-15T02:40:23.350Z,15,GR86-030-18,5.5,0.068,0.144,99.82,5.0,,0.0,0.0,
2025-08-15T02:40:23.393Z,15,GR86-030-18,5.7,0.078,0.148,99.83,5.0,6615.0,0.0,0.0,
2025-08-15T02:40:23.435Z,15,GR86-030-18,5.800000000000001,0.077,0.162,99.83,5.0,,0.0,0.0,194.41
2025-08-15T02:40:23.479Z,15,GR86-030-18,5.800000000000001,0.065,0.163,99.83,5.0,,0.0,0.0,
2025-08-15T02:40:23.521Z,15,GR86-030-18,6.0,0.056,0.189,99.82,5.0,,0.0,0.0,
2025-08-15T02:40:23.564Z,15,GR86-030-18,6.1000000000000005,0.075,0.201,99.83,5.0,,0.0,0.0,
2025-08-15T02:40:23.607Z,15,GR86-030-18,6.5,0.068,0.21,99.83,5.0,6631.0,0.0,0.0,
2025-08-15T02:40:23.650Z,15,GR86-030-18,6.800000000000001,0.076,0.204,99.83,5.0,,0.0,0.0,195.01
2025-08-15T02:40:23.693Z,15,GR86-030-18,6.9,0.077,0.217,99.83,5.0,,0.0,0.0,
2025-08-15T02:40:23.736Z,15,GR86-030-18,6.9,0.06,0.225,99.82,5.0,,0.0,0.0,
2025-08-15T02:40:23.780Z,15,GR86-030-18,6.800000000000001,0.064,0.216,99.83,5.0,,0.0,0.0,
2025-08-15T02:40:23.824Z,15,GR86-030-18,6.800000000000001,0.066,0.231,99.83,5.0,6652.0,0.0,0.0,
2025-08-15T02:40:23.867Z,15,GR86-030-18,6.800000000000001,0.071,0.244,99.84,5.0,,0.0,0.0,195.62
2025-08-15T02:40:23.910Z,15,GR86-030-18,6.800000000000001,0.077,0.27,99.85,5.0,,0.0,0.0,
2025-08-15T02:40:23.953Z,15,GR86-030-18,6.9,0.068,0.27,99.84,5.0,,0.0,0.0,
2025-08-15T02:40:23.997Z,15,GR86-030-18,7.1000000000000005,0.059,0.261,99.84,5.0,,0.0,0.0,
2025-08-15T02:40:24.040Z,15,GR86-030-18,7.300000000000001,0.063,0.251,99.83,5.0,6674.0,0.0,0.0,
2025-08-15T02:40:24.083Z,15,GR86-030-18,7.4,0.064,0.27,99.85,5.0,,0.0,0.0,196.2
2025-08-15T02:40:24.126Z,15,GR86-030-18,7.800000000000001,0.074,0.251,99.83,5.0,,0.0,0.0,
2025-08-15T02:40:24.170Z,15,GR86-030-18,7.9,0.07,0.264,99.84,5.0,,0.0,0.0,
2025-08-15T02:40:24.213Z,15,GR86-030-18,8.1,0.066,0.264,99.84,5.0,,0.0,0.0,
2025-08-15T02:40:24.256Z,15,GR86-030-18,8.0,0.067,0.26,99.83,5.0,6686.0,0.0,0.0,
2025-08-15T02:40:24.300Z,15,GR86-030-18,8.0,0.062,0.264,99.83,5.0,,0.0,0.0,196.72
2025-08-15T02:40:24.343Z,15,GR86-030-18,7.9,0.073,0.265,99.83,5.0,,0.0,0.0,
2025-08-15T02:40:24.386Z,15,GR86-030-18,7.9,0.064,0.271,99.82,5.0,,0.0,0.0,
2025-08-15T02:40:24.430Z,15,GR86-030-18,8.0,0.07,0.274,99.84,5.0,,0.0,0.0,
2025-08-15T02:40:24.473Z,15,GR86-030-18,8.200000000000001,0.063,0.287,99.82,5.0,6704.0,0.0,0.0,
2025-08-15T02:40:24.515Z,15,GR86-030-18,8.5,0.053,0.28,99.82,5.0,,0.0,0.0,197.23
2025-08-15T02:40:24.559Z,15,GR86-030-18,9.1,0.073,0.307,99.83,5.0,,0.0,0.0,
2025-08-15T02:40:24.601Z,15,GR86-030-18,9.6,0.074,0.304,99.83,5.0,,0.0,0.0,
2025-08-15T02:40:24.644Z,15,GR86-030-18,9.9,0.07,0.323,99.83,5.0,,0.0,0.0,
2025-08-15T02:40:24.687Z,15,GR86-030-18,9.9,0.075,0.329,99.83,5.0,6726.0,0.0,0.0,
2025-08-15T02:40:24.730Z,15,GR86-030-18,9.8,0.057,0.357,99.83,5.0,,0.0,0.0,197.77
2025-08-15T02:40:24.773Z,15,GR86-030-18,9.7,0.054,0.369,99.84,5.0,,0.0,0.0,
2025-08-15T02:40:24.816Z,15,GR86-030-18,9.4,0.034,0.355,99.83,5.0,,0.0,0.0,
2025-08-15T02:40:24.860Z,15,GR86-030-18,8.4,0.071,0.395,99.81,5.0,,0.0,0.0,
2025-08-15T02:40:24.903Z,15,GR86-030-18,7.5,0.067,0.39,99.85,5.0,6739.0,0.0,0.0,
2025-08-15T02:40:24.946Z,15,GR86-030-18,7.0,0.062,0.372,99.81,5.0,,0.0,0.0,198.53
2025-08-15T02:40:24.990Z,15,GR86-030-18,6.800000000000001,0.035,0.345,99.82,5.0,,0.0,0.0,
2025-08-15T02:40:25.033Z,15,GR86-030-18,6.7,0.044,0.336,99.82,5.0,,0.0,0.0,
2025-08-15T02:40:25.076Z,15,GR86-030-18,6.6000000000000005,0.043,0.307,99.86,5.0,,0.0,0.0,
2025-08-15T02:40:25.120Z,15,GR86-030-18,6.5,0.064,0.284,99.83,5.0,6761.0,0.0,0.0,
2025-08-15T02:40:25.163Z,15,GR86-030-18,6.6000000000000005,0.051,0.252,99.83,5.0,,0.0,0.0,199.19
2025-08-15T02:40:25.206Z,15,GR86-030-18,7.0,0.045,0.244,99.83,5.0,,0.0,0.0,
2025-08-15T02:40:25.250Z,15,GR86-030-18,7.5,0.043,0.233,99.82,5.0,,0.0,0.0,
2025-08-15T02:40:25.293Z,15,GR86-030-18,7.800000000000001,0.037,0.242,99.82,5.0,,0.0,0.0,
2025-08-15T02:40:25.335Z,15,GR86-030-18,7.9,0.045,0.248,99.81,5.0,6772.0,0.0,0.0,
2025-08-15T02:40:25.379Z,15,GR86-030-18,7.7,0.042,0.242,99.83,5.0,,0.0,0.0,199.66
2025-08-15T02:40:25.421Z,15,GR86-030-18,7.2,0.028,0.242,99.83,5.0,,0.0,0.0,
2025-08-15T02:40:25.464Z,15,GR86-030-18,6.6000000000000005,0.025,0.234,99.82,5.0,,0.0,0.0,
2025-08-15T02:40:25.507Z,15,GR86-030-18,6.4,0.024,0.248,99.86,5.0,,0.0,0.0,
2025-08-15T02:40:25.550Z,15,GR86-030-18,6.4,0.041,0.27,99.82,5.0,6812.0,0.0,0.0,
2025-08-15T02:40:25.593Z,15,GR86-030-18,6.6000000000000005,0.055,0.264,99.83,5.0,,0.0,0.0,200.21
2025-08-15T02:40:25.637Z,15,GR86-030-18,7.1000000000000005,0.067,0.261,99.83,5.0,,0.0,0.0,
2025-08-15T02:40:25.680Z,15,GR86-030-18,7.9,0.022,0.242,99.82,5.0,,0.0,0.0,
2025-08-15T02:40:25.766Z,15,GR86-030-18,8.1,0.044,0.267,99.83,5.0,6831.0,0.0,0.0,
2025-08-15T02:40:25.810Z,15,GR86-030-18,8.200000000000001,0.071,0.28,99.83,5.0,,0.0,0.0,200.66
2025-08-15T02:40:25.853Z,15,GR86-030-18,8.4,0.064,0.306,99.83,5.0,,0.0,0.0,
2025-08-15T02:40:25.896Z,15,GR86-030-18,8.4,0.049,0.332,99.82,5.0,,0.0,0.0,
2025-08-15T02:40:25.940Z,15,GR86-030-18,7.800000000000001,0.04,0.336,99.83,5.0,,0.0,0.0,
2025-08-15T02:40:25.983Z,15,GR86-030-18,7.300000000000001,0.062,0.346,99.83,5.0,6853.0,0.0,0.0,
2025-08-15T02:40:26.026Z,15,GR86-030-18,7.0,0.064,0.329,99.83,5.0,,0.0,0.0,201.06
2025-08-15T02:40:26.071Z,15,GR86-030-18,6.800000000000001,0.071,0.297,99.85,5.0,,0.0,0.0,
2025-08-15T02:40:26.113Z,15,GR86-030-18,6.4,0.049,0.257,99.83,5.0,,0.0,0.0,
2025-08-15T02:40:26.157Z,15,GR86-030-18,5.9,0.047,0.227,99.83,5.0,,0.0,0.0,
2025-08-15T02:40:26.200Z,15,GR86-030-18,5.4,0.084,0.227,99.86,5.0,6867.0,0.0,0.0,
2025-08-15T02:40:26.243Z,15,GR86-030-18,5.5,0.052,0.23,99.83,5.0,,0.0,0.0,201.77
2025-08-15T02:40:26.286Z,15,GR86-030-18,5.7,0.052,0.21,99.84,5.0,,0.0,0.0,
2025-08-15T02:40:26.330Z,15,GR86-030-18,5.7,0.038,0.196,99.84,5.0,,0.0,0.0,
2025-08-15T02:40:26.373Z,15,GR86-030-18,5.2,0.029,0.186,99.8,5.0,,0.0,0.0,
2025-08-15T02:40:26.415Z,15,GR86-030-18,4.7,0.015,0.185,99.81,5.0,6886.0,0.0,0.0,
2025-08-15T02:40:26.459Z,15,GR86-030-18,4.1000000000000005,0.051,0.198,99.85,5.0,,0.0,0.0,202.37
2025-08-15T02:40:26.503Z,15,GR86-030-18,4.3,0.033,0.188,99.83,5.0,,0.0,0.0,
2025-08-15T02:40:26.546Z,15,GR86-030-18,4.800000000000001,0.022,0.16,90.31,5.0,,0.0,0.0,
2025-08-15T02:40:26.590Z,15,GR86-030-18,5.7,0.036,0.14,22.09,5.0,,0.0,0.0,
2025-08-15T02:40:26.632Z,15,GR86-030-18,6.800000000000001,0.022,0.149,5.25,5.0,6906.0,0.0,0.0,
2025-08-15T02:40:26.675Z,15,GR86-030-18,7.300000000000001,-0.017,0.141,5.14,5.0,,0.0,0.0,202.77
2025-08-15T02:40:26.719Z,15,GR86-030-18,6.300000000000001,-0.234,0.18,4.73,5.0,,0.0,0.0,
2025-08-15T02:40:26.761Z,15,GR86-030-18,4.800000000000001,-0.411,0.104,4.16,5.0,,10.24,10.5,
2025-08-15T02:40:26.804Z,15,GR86-030-18,3.1,-0.242,0.134,3.75,5.0,,13.49,13.4,
2025-08-15T02:40:26.847Z,15,GR86-030-18,2.3000000000000003,-0.373,0.136,3.54,5.0,6925.0,19.52,19.305,
2025-08-15T02:40:26.933Z,15,GR86-030-18,2.4000000000000004,-0.6890000000000001,0.117,3.19,5.0,,33.525,33.13,203.5
2025-08-15T02:40:26.976Z,15,GR86-030-18,2.3000000000000003,-0.776,0.081,2.93,5.0,,40.365,39.815,
2025-08-15T02:40:27.020Z,15,GR86-030-18,2.4000000000000004,-0.952,0.064,2.67,5.0,,50.905,50.25,
2025-08-15T02:40:27.063Z,15,GR86-030-18,3.1,-1.098,0.072,2.59,5.0,6631.0,58.43,57.715,
2025-08-15T02:40:27.106Z,15,GR86-030-18,4.3,-1.184,0.062,2.52,5.0,,64.46000000000001,63.59,203.89
2025-08-15T02:40:27.150Z,15,GR86-030-18,5.5,-1.213,0.067,2.46,5.0,,67.97,67.205,
2025-08-15T02:40:27.193Z,15,GR86-030-18,6.0,-1.235,0.058,2.42,5.0,,70.745,71.615,
2025-08-15T02:40:27.236Z,15,GR86-030-18,6.1000000000000005,-1.254,0.062,2.39,5.0,,73.37,74.47,
2025-08-15T02:40:27.280Z,15,GR86-030-18,5.9,-1.263,0.03,2.35,5.0,6697.0,73.34,73.995,
2025-08-15T02:40:27.323Z,15,GR86-030-18,6.0,-1.116,0.029,2.35,5.0,,73.05,73.34,202.17
2025-08-15T02:40:27.366Z,15,GR86-030-18,5.9,-1.232,0.028,2.36,5.0,,71.77,71.98,
2025-08-15T02:40:27.410Z,15,GR86-030-18,5.1000000000000005,-1.281,0.05,2.35,5.0,,70.625,70.595,
2025-08-15T02:40:27.453Z,15,GR86-030-18,4.3,-1.195,0.08,2.35,5.0,,70.9,71.14,
2025-08-15T02:40:27.496Z,15,GR86-030-18,3.8,-1.247,0.064,2.35,5.0,6297.0,70.595,70.99,
2025-08-15T02:40:27.541Z,15,GR86-030-18,3.9,-1.284,0.166,2.38,5.0,,71.265,71.675,187.32
2025-08-15T02:40:27.583Z,15,GR86-030-18,4.5,-1.278,0.213,2.37,5.0,,70.485,70.12,
2025-08-15T02:40:27.626Z,15,GR86-030-18,4.4,-1.29,0.194,2.37,5.0,,69.905,69.31,
2025-08-15T02:40:27.670Z,15,GR86-030-18,4.1000000000000005,-1.27,0.175,2.39,5.0,,69.675,69.19,
2025-08-15T02:40:27.712Z,15,GR86-030-18,3.6,-1.253,0.159,2.38,5.0,6004.0,69.435,68.84,
2025-08-15T02:40:27.755Z,15,GR86-030-18,3.3000000000000003,-1.206,0.124,2.39,5.0,,68.84,68.15,179.1
2025-08-15T02:40:27.799Z,15,GR86-030-18,3.5,-1.23,0.185,50.57,4.0,,68.535,67.94,
2025-08-15T02:40:27.841Z,15,GR86-030-18,3.8,-1.218,0.169,15.05,4.0,,70.06,71.175,
2025-08-15T02:40:27.885Z,15,GR86-030-18,4.1000000000000005,-1.301,0.203,5.05,4.0,,71.4,73.05,
2025-08-15T02:40:27.929Z,15,GR86-030-18,4.6000000000000005,-1.436,0.229,4.8100000000000005,4.0,5776.0,70.685,70.425,
2025-08-15T02:40:27.971Z,15,GR86-030-18,4.6000000000000005,-1.377,0.222,4.44,4.0,,68.685,69.16,171.1
2025-08-15T02:40:28.014Z,15,GR86-030-18,3.1,-1.103,0.265,3.89,4.0,,69.83,71.05,
2025-08-15T02:40:28.057Z,15,GR86-030-18,2.3000000000000003,-0.999,0.403,3.61,4.0,,67.815,67.615,
2025-08-15T02:40:28.100Z,15,GR86-030-18,0.9,-1.212,0.307,3.39,4.0,,66.275,67.42,
2025-08-15T02:40:28.143Z,15,GR86-030-18,0.2,-1.2,0.365,3.25,4.0,5599.0,65.33,66.58,
2025-08-15T02:40:28.186Z,15,GR86-030-18,-0.4,-1.181,0.381,3.06,4.0,,63.71,65.025,163.95000000000002
2025-08-15T02:40:28.230Z,15,GR86-030-18,-0.9,-1.156,0.333,2.89,4.0,,62.335,63.345,
2025-08-15T02:40:28.273Z,15,GR86-030-18,-1.1,-1.154,0.242,2.73,4.0,,61.45,62.0,
2025-08-15T02:40:28.316Z,15,GR86-030-18,-1.1,-1.12,0.228,2.64,4.0,,61.025,61.115,
2025-08-15T02:40:28.360Z,15,GR86-030-18,-0.8,-1.088,0.11,2.52,4.0,5829.0,60.43,60.11,
2025-08-15T02:40:28.403Z,15,GR86-030-18,0.1,-1.161,0.102,2.45,4.0,,60.4,59.775,156.69
2025-08-15T02:40:28.446Z,15,GR86-030-18,1.5,-1.167,0.091,17.82,3.0,,60.08,59.71,
2025-08-15T02:40:28.533Z,15,GR86-030-18,5.6000000000000005,-1.356,0.011,6.4,3.0,,60.795,61.33,
2025-08-15T02:40:28.576Z,15,GR86-030-18,7.9,-1.288,0.067,4.26,3.0,5542.0,62.275,63.68,
2025-08-15T02:40:28.621Z,15,GR86-030-18,9.5,-1.36,0.061,3.79,3.0,,60.31,60.4,149.26
2025-08-15T02:40:28.663Z,15,GR86-030-18,8.9,-1.14,0.104,3.61,3.0,,59.775,60.08,
2025-08-15T02:40:28.706Z,15,GR86-030-18,9.3,-1.063,0.038,3.45,3.0,,58.965,59.24,
2025-08-15T02:40:28.750Z,15,GR86-030-18,9.4,-1.081,0.069,3.3200000000000003,3.0,,58.46,59.025,
2025-08-15T02:40:28.793Z,15,GR86-030-18,9.8,-1.133,0.069,3.13,3.0,5636.0,58.34,59.3,
2025-08-15T02:40:28.835Z,15,GR86-030-18,10.2,-1.128,0.119,2.99,3.0,,57.835,58.735,140.16
2025-08-15T02:40:28.879Z,15,GR86-030-18,10.0,-1.16,0.134,2.82,3.0,,56.965,58.05,
2025-08-15T02:40:28.921Z,15,GR86-030-18,9.9,-1.164,0.146,2.73,3.0,,56.370000000000005,57.65,
2025-08-15T02:40:28.964Z,15,GR86-030-18,9.4,-1.13,0.154,2.67,3.0,,56.155,57.27,
2025-08-15T02:40:29.007Z,15,GR86-030-18,8.700000000000001,-1.124,0.182,2.61,3.0,5841.0,55.545,56.905,
2025-08-15T02:40:29.050Z,15,GR86-030-18,7.9,-1.082,0.171,2.5500000000000003,3.0,,54.74,55.945,132.57
2025-08-15T02:40:29.093Z,15,GR86-030-18,8.200000000000001,-1.131,0.237,2.45,3.0,,53.305,54.645,
2025-08-15T02:40:29.136Z,15,GR86-030-18,9.2,-1.089,0.245,2.32,3.0,,51.15,52.615,
2025-08-15T02:40:29.180Z,15,GR86-030-18,13.5,-0.99,0.234,52.01,2.0,,48.555,49.9,
2025-08-15T02:40:29.224Z,15,GR86-030-18,15.0,-1.21,0.209,12.81,2.0,5510.0,48.555,49.58,
2025-08-15T02:40:29.267Z,15,GR86-030-18,15.4,-1.155,0.393,4.28,2.0,,50.1,51.365,124.96
2025-08-15T02:40:29.310Z,15,GR86-030-18,14.3,-1.213,0.285,3.96,2.0,,49.825,50.345,
2025-08-15T02:40:29.353Z,15,GR86-030-18,11.2,-1.332,0.375,3.71,2.0,,47.96,48.525,
2025-08-15T02:40:29.397Z,15,GR86-030-18,6.800000000000001,-1.149,0.371,3.54,2.0,,45.37,46.3,
2025-08-15T02:40:29.440Z,15,GR86-030-18,3.8,-0.98,0.417,3.35,2.0,5231.0,36.21,36.805,
2025-08-15T02:40:29.483Z,15,GR86-030-18,3.7,-0.884,0.397,3.19,2.0,,33.375,34.12,118.4
2025-08-15T02:40:29.526Z,15,GR86-030-18,5.0,-0.809,0.238,2.97,2.0,,31.48,32.410000000000004,
2025-08-15T02:40:29.570Z,15,GR86-030-18,6.800000000000001,-0.79,0.367,2.79,2.0,,29.985,30.795,
2025-08-15T02:40:29.613Z,15,GR86-030-18,9.2,-0.715,0.228,2.71,2.0,,29.175,29.805,
2025-08-15T02:40:29.655Z,15,GR86-030-18,14.0,-0.787,0.205,2.66,2.0,5593.0,28.69,29.435,
2025-08-15T02:40:29.699Z,15,GR86-030-18,24.3,-0.8230000000000001,0.193,2.58,2.0,,28.995,29.33,111.11
2025-08-15T02:40:29.741Z,15,GR86-030-18,32.0,-0.738,0.219,2.53,2.0,,29.68,30.015,
2025-08-15T02:40:29.784Z,15,GR86-030-18,41.0,-0.799,0.248,2.48,2.0,,30.245,30.58,
2025-08-15T02:40:29.827Z,15,GR86-030-18,45.2,-0.765,0.389,2.41,2.0,,31.055,31.085,
2025-08-15T02:40:29.870Z,15,GR86-030-18,48.2,-0.8170000000000001,0.507,2.32,2.0,5735.0,31.145,31.33,
2025-08-15T02:40:29.913Z,15,GR86-030-18,48.900000000000006,-0.787,0.528,2.29,2.0,,31.65,31.77,105.13
2025-08-15T02:40:29.956Z,15,GR86-030-18,49.8,-0.8200000000000001,0.676,2.26,2.0,,31.65,31.83,
2025-08-15T02:40:30.000Z,15,GR86-030-18,53.1,-0.77,0.762,2.26,2.0,,31.985,32.105000000000004,
2025-08-15T02:40:30.043Z,15,GR86-030-18,55.0,-0.8160000000000001,0.878,2.26,2.0,,31.865,32.14,
2025-08-15T02:40:30.086Z,15,GR86-030-18,55.6,-0.764,0.917,2.29,2.0,5451.0,32.015,32.14,
2025-08-15T02:40:30.130Z,15,GR86-030-18,55.6,-0.755,0.938,2.29,2.0,,31.42,31.83,98.91
2025-08-15T02:40:30.173Z,15,GR86-030-18,55.7,-0.727,1.006,2.29,2.0,,31.42,31.77,
2025-08-15T02:40:30.215Z,15,GR86-030-18,55.900000000000006,-0.6930000000000001,1.051,2.29,2.0,,31.925,32.105000000000004,
2025-08-15T02:40:30.259Z,15,GR86-030-18,57.1,-0.623,1.039,2.3000000000000003,2.0,,29.53,30.075,
2025-08-15T02:40:30.301Z,15,GR86-030-18,58.3,-0.629,1.028,2.29,2.0,5165.0,27.925,28.645,
2025-08-15T02:40:30.387Z,15,GR86-030-18,61.3,-0.597,1.063,2.32,2.0,,20.555,21.12,90.51
2025-08-15T02:40:30.430Z,15,GR86-030-18,64.9,-0.495,1.105,2.32,2.0,,9.46,9.72,
2025-08-15T02:40:30.473Z,15,GR86-030-18,69.10000000000001,-0.224,1.123,2.32,2.0,,2.015,2.275,
2025-08-15T02:40:30.516Z,15,GR86-030-18,77.9,-0.249,1.131,2.33,2.0,4815.0,0.0,0.0,
2025-08-15T02:40:30.560Z,15,GR86-030-18,86.60000000000001,-0.162,1.089,9.32,2.0,,0.0,0.0,85.54
2025-08-15T02:40:30.603Z,15,GR86-030-18,88.0,-0.161,1.144,19.64,2.0,,0.0,0.0,
2025-08-15T02:40:30.646Z,15,GR86-030-18,85.80000000000001,-0.145,1.168,24.67,2.0,,0.0,0.0,
2025-08-15T02:40:30.690Z,15,GR86-030-18,82.5,-0.122,1.14,31.42,2.0,,0.0,0.0,
2025-08-15T02:40:30.733Z,15,GR86-030-18,81.5,-0.11,1.136,34.31,2.0,4486.0,0.0,0.0,
2025-08-15T02:40:30.776Z,15,GR86-030-18,81.9,-0.087,1.131,36.5,2.0,,0.0,0.0,81.45
2025-08-15T02:40:30.820Z,15,GR86-030-18,82.7,0.272,1.116,37.25,2.0,,0.0,0.0,
2025-08-15T02:40:30.863Z,15,GR86-030-18,83.30000000000001,0.285,1.103,37.38,2.0,,0.0,0.0,
2025-08-15T02:40:30.906Z,15,GR86-030-18,84.2,0.253,1.172,37.51,2.0,,0.0,0.0,
2025-08-15T02:40:30.950Z,15,GR86-030-18,84.5,0.19,1.139,37.68,2.0,4519.0,0.0,0.0,
2025-08-15T02:40:30.993Z,15,GR86-030-18,84.4,0.134,1.152,37.52,2.0,,0.0,0.0,79.59
2025-08-15T02:40:31.035Z,15,GR86-030-18,84.30000000000001,0.161,1.152,36.13,2.0,,0.0,0.0,
2025-08-15T02:40:31.079Z,15,GR86-030-18,84.10000000000001,0.2,1.097,32.9,2.0,,0.0,0.0,
2025-08-15T02:40:31.121Z,15,GR86-030-18,83.0,0.202,1.141,30.7,2.0,,0.0,0.0,
2025-08-15T02:40:31.164Z,15,GR86-030-18,80.7,0.149,1.193,29.57,2.0,4587.0,0.0,0.0,
2025-08-15T02:40:31.207Z,15,GR86-030-18,78.4,0.149,1.187,29.12,2.0,,0.0,0.0,79.0
2025-08-15T02:40:31.250Z,15,GR86-030-18,77.80000000000001,0.153,1.167,28.76,2.0,,0.0,0.0,
2025-08-15T02:40:31.293Z,15,GR86-030-18,78.5,0.141,1.24,28.38,2.0,,0.0,0.0,
2025-08-15T02:40:31.380Z,15,GR86-030-18,84.4,0.121,1.266,25.98,2.0,4682.0,0.0,0.0,
2025-08-15T02:40:31.423Z,15,GR86-030-18,86.0,0.168,1.127,25.64,2.0,,0.0,0.0,79.93
2025-08-15T02:40:31.466Z,15,GR86-030-18,84.9,0.113,1.256,25.7,2.0,,0.0,0.0,
2025-08-15T02:40:31.510Z,15,GR86-030-18,82.0,0.116,1.036,25.69,2.0,,0.0,0.0,
2025-08-15T02:40:31.553Z,15,GR86-030-18,77.80000000000001,0.154,1.164,25.95,2.0,,0.0,0.0,
2025-08-15T02:40:31.597Z,15,GR86-030-18,73.9,0.103,1.069,26.0,2.0,4718.0,0.0,0.0,
2025-08-15T02:40:31.640Z,15,GR86-030-18,73.0,0.196,1.01,26.06,2.0,,0.0,0.0,81.25
2025-08-15T02:40:31.683Z,15,GR86-030-18,74.2,0.101,0.972,25.92,2.0,,0.0,0.0,
2025-08-15T02:40:31.726Z,15,GR86-030-18,75.60000000000001,0.191,1.007,24.11,2.0,,0.0,0.0,
2025-08-15T02:40:31.771Z,15,GR86-030-18,76.9,0.075,1.043,24.02,2.0,,0.0,0.0,
2025-08-15T02:40:31.813Z,15,GR86-030-18,77.30000000000001,0.184,1.05,24.04,2.0,4751.0,0.0,0.0,
2025-08-15T02:40:31.856Z,15,GR86-030-18,77.4,-0.054,1.114,24.59,2.0,,0.0,0.0,82.15
2025-08-15T02:40:31.900Z,15,GR86-030-18,76.9,0.011,1.259,24.45,2.0,,0.0,0.0,
2025-08-15T02:40:31.943Z,15,GR86-030-18,75.10000000000001,0.249,1.243,25.03,2.0,,0.0,0.0,
2025-08-15T02:40:31.986Z,15,GR86-030-18,71.60000000000001,0.225,1.111,25.15,2.0,,0.0,0.0,
2025-08-15T02:40:32.030Z,15,GR86-030-18,68.3,0.075,1.188,25.85,2.0,4851.0,0.0,0.0,
2025-08-15T02:40:32.073Z,15,GR86-030-18,64.2,0.0,1.122,28.04,2.0,,0.0,0.0,82.84
2025-08-15T02:40:32.115Z,15,GR86-030-18,60.5,0.108,1.069,28.36,2.0,,0.0,0.0,
2025-08-15T02:40:32.159Z,15,GR86-030-18,58.2,0.243,1.103,28.47,2.0,,0.0,0.0,
2025-08-15T02:40:32.203Z,15,GR86-030-18,58.5,-0.053,1.302,31.25,2.0,,0.0,0.0,
2025-08-15T02:40:32.246Z,15,GR86-030-18,60.400000000000006,0.205,1.523,31.76,2.0,5011.0,0.0,0.0,
2025-08-15T02:40:32.290Z,15,GR86-030-18,63.7,0.19,1.32,31.87,2.0,,0.0,0.0,83.88
2025-08-15T02:40:32.332Z,15,GR86-030-18,66.5,0.104,1.407,32.18,2.0,,0.0,0.0,
2025-08-15T02:40:32.375Z,15,GR86-030-18,66.8,0.206,1.245,34.76,2.0,,0.0,0.0,
2025-08-15T02:40:32.419Z,15,GR86-030-18,64.4,0.231,1.134,56.65,2.0,,0.0,0.0,
2025-08-15T02:40:32.461Z,15,GR86-030-18,62.400000000000006,0.163,1.132,87.87,2.0,4990.0,0.0,0.0,
2025-08-15T02:40:32.504Z,15,GR86-030-18,61.400000000000006,0.25,1.032,99.94,2.0,,0.0,0.0,84.4
2025-08-15T02:40:32.547Z,15,GR86-030-18,61.5,0.238,1.051,99.86,2.0,,0.0,0.0,
2025-08-15T02:40:32.590Z,15,GR86-030-18,61.8,0.288,0.998,99.83,2.0,,0.0,0.0,
2025-08-15T02:40:32.633Z,15,GR86-030-18,61.900000000000006,0.267,0.978,99.85,2.0,,0.0,0.0,
2025-08-15T02:40:32.676Z,15,GR86-030-18,62.2,0.278,0.954,99.84,2.0,4947.0,0.0,0.0,
2025-08-15T02:40:32.720Z,15,GR86-030-18,62.400000000000006,0.245,1.007,99.84,2.0,,0.0,0.0,84.62
2025-08-15T02:40:32.763Z,15,GR86-030-18,62.1,0.253,0.987,99.82,2.0,,0.0,0.0,
2025-08-15T02:40:32.806Z,15,GR86-030-18,61.7,0.228,1.05,99.83,2.0,,0.0,0.0,
2025-08-15T02:40:32.850Z,15,GR86-030-18,60.5,0.268,1.064,99.84,2.0,,0.0,0.0,
2025-08-15T02:40:32.893Z,15,GR86-030-18,58.2,0.275,1.069,99.83,2.0,5008.0,0.0,0.0,
2025-08-15T02:40:32.935Z,15,GR86-030-18,55.400000000000006,0.271,1.063,99.83,2.0,,0.0,0.0,85.25
2025-08-15T02:40:32.979Z,15,GR86-030-18,51.900000000000006,0.238,1.051,99.82,2.0,,0.0,0.0,
2025-08-15T02:40:33.021Z,15,GR86-030-18,50.5,0.266,0.994,99.83,2.0,,0.0,0.0,
2025-08-15T02:40:33.064Z,15,GR86-030-18,49.6,0.251,1.04,99.85,2.0,,0.0,0.0,
2025-08-15T02:40:33.107Z,15,GR86-030-18,49.2,0.268,0.983,99.83,2.0,5076.0,0.0,0.0,
2025-08-15T02:40:33.150Z,15,GR86-030-18,49.0,0.276,1.017,99.83,2.0,,0.0,0.0,88.41
2025-08-15T02:40:33.193Z,15,GR86-030-18,48.400000000000006,0.283,0.98,99.83,2.0,,0.0,0.0,
2025-08-15T02:40:33.237Z,15,GR86-030-18,46.5,0.242,0.948,99.83,2.0,,0.0,0.0,
2025-08-15T02:40:33.280Z,15,GR86-030-18,40.0,0.286,0.932,99.83,2.0,,0.0,0.0,
2025-08-15T02:40:33.323Z,15,GR86-030-18,34.5,0.249,0.949,99.83,2.0,5180.0,0.0,0.0,
2025-08-15T02:40:33.366Z,15,GR86-030-18,30.4,0.312,0.8270000000000001,99.83,2.0,,0.0,0.0,89.99
2025-08-15T02:40:33.410Z,15,GR86-030-18,28.3,0.241,0.622,99.86,2.0,,0.0,0.0,
2025-08-15T02:40:33.453Z,15,GR86-030-18,27.5,0.192,0.502,99.84,2.0,,0.0,0.0,
2025-08-15T02:40:33.497Z,15,GR86-030-18,26.700000000000003,0.273,0.727,99.84,2.0,,0.0,0.0,
2025-08-15T02:40:33.541Z,15,GR86-030-18,26.3,0.233,0.497,99.85,2.0,5369.0,0.0,0.0,
2025-08-15T02:40:33.583Z,15,GR86-030-18,26.3,0.261,0.593,99.84,2.0,,0.0,0.0,91.58
2025-08-15T02:40:33.626Z,15,GR86-030-18,26.700000000000003,0.349,0.611,99.85,2.0,,0.0,0.0,
2025-08-15T02:40:33.670Z,15,GR86-030-18,27.1,0.38,0.56,99.85,2.0,,0.0,0.0,
2025-08-15T02:40:33.712Z,15,GR86-030-18,27.200000000000003,0.242,0.5690000000000001,99.86,2.0,,0.0,0.0,
2025-08-15T02:40:33.755Z,15,GR86-030-18,26.6,0.181,0.484,99.85,2.0,5493.0,0.0,0.0,
2025-08-15T02:40:33.799Z,15,GR86-030-18,25.0,0.362,0.645,99.84,2.0,,0.0,0.0,92.39
2025-08-15T02:40:33.841Z,15,GR86-030-18,23.5,0.334,0.546,99.87,2.0,,0.0,0.0,
2025-08-15T02:40:33.885Z,15,GR86-030-18,22.1,0.361,0.482,99.84,2.0,,0.0,0.0,
2025-08-15T02:40:33.929Z,15,GR86-030-18,20.5,0.289,0.438,99.85,2.0,,0.0,0.0,
2025-08-15T02:40:33.971Z,15,GR86-030-18,18.3,0.153,0.403,99.86,2.0,5561.0,0.0,0.0,
2025-08-15T02:40:34.014Z,15,GR86-030-18,17.2,0.158,0.255,99.85,2.0,,0.0,0.0,94.15
2025-08-15T02:40:34.057Z,15,GR86-030-18,16.2,0.324,0.392,99.87,2.0,,0.0,0.0,
2025-08-15T02:40:34.100Z,15,GR86-030-18,14.4,0.138,0.157,99.86,2.0,,0.0,0.0,
2025-08-15T02:40:34.143Z,15,GR86-030-18,13.7,0.366,0.358,99.85,2.0,,0.0,0.0,
2025-08-15T02:40:34.186Z,15,GR86-030-18,13.0,0.56,0.305,99.85,2.0,5639.0,0.0,0.0,
2025-08-15T02:40:34.230Z,15,GR86-030-18,12.7,0.552,0.296,99.86,2.0,,0.0,0.0,96.13
2025-08-15T02:40:34.272Z,15,GR86-030-18,13.0,0.534,0.318,99.87,2.0,,0.0,0.0,
2025-08-15T02:40:34.315Z,15,GR86-030-18,13.4,0.151,0.248,99.86,2.0,,0.0,0.0,
2025-08-15T02:40:34.359Z,15,GR86-030-18,14.2,0.351,0.267,99.86,2.0,,0.0,0.0,
2025-08-15T02:40:34.401Z,15,GR86-030-18,14.2,0.408,0.234,99.86,2.0,5824.0,0.0,0.0,
2025-08-15T02:40:34.444Z,15,GR86-030-18,14.1,0.359,0.289,99.85,2.0,,0.0,0.0,97.84
2025-08-15T02:40:34.487Z,15,GR86-030-18,13.8,0.425,0.199,99.86,2.0,,0.0,0.0,
2025-08-15T02:40:34.530Z,15,GR86-030-18,13.3,0.328,0.247,99.86,2.0,,0.0,0.0,
2025-08-15T02:40:34.573Z,15,GR86-030-18,13.1,0.253,0.194,99.86,2.0,,0.0,0.0,
2025-08-15T02:40:34.616Z,15,GR86-030-18,13.4,0.095,0.174,99.86,2.0,5830.0,0.0,0.0,
2025-08-15T02:40:34.660Z,15,GR86-030-18,13.5,0.434,0.061,99.85,2.0,,0.0,0.0,99.58
2025-08-15T02:40:34.703Z,15,GR86-030-18,13.4,0.417,0.087,99.86,2.0,,0.0,0.0,
2025-08-15T02:40:34.746Z,15,GR86-030-18,12.7,0.206,0.062,99.86,2.0,,0.0,0.0,
2025-08-15T02:40:34.790Z,15,GR86-030-18,11.2,0.14,0.024,99.86,2.0,,0.0,0.0,
2025-08-15T02:40:34.832Z,15,GR86-030-18,9.7,0.017,-0.024,99.86,2.0,5949.0,0.0,0.0,
2025-08-15T02:40:34.875Z,15,GR86-030-18,9.3,0.121,0.011,99.85,2.0,,0.0,0.0,101.45
2025-08-15T02:40:34.919Z,15,GR86-030-18,11.5,0.505,-0.004,99.85,2.0,,0.0,0.0,
2025-08-15T02:40:34.963Z,15,GR86-030-18,14.1,0.391,-0.006,99.86,2.0,,0.0,0.0,
2025-08-15T02:40:35.006Z,15,GR86-030-18,15.6,0.318,0.026,99.86,2.0,,0.0,0.0,
2025-08-15T02:40:35.050Z,15,GR86-030-18,15.9,0.339,-0.024,99.86,2.0,6131.0,0.0,0.0,
2025-08-15T02:40:35.093Z,15,GR86-030-18,15.3,0.109,0.013,99.87,2.0,,0.0,0.0,103.18
2025-08-15T02:40:35.136Z,15,GR86-030-18,14.9,0.09,0.019,99.86,2.0,,0.0,0.0,
2025-08-15T02:40:35.180Z,15,GR86-030-18,14.4,0.375,-0.006,99.86,2.0,,0.0,0.0,
2025-08-15T02:40:35.224Z,15,GR86-030-18,14.0,0.489,0.092,99.86,2.0,,0.0,0.0,
2025-08-15T02:40:35.267Z,15,GR86-030-18,13.7,0.31,0.025,99.86,2.0,6090.0,0.0,0.0,
2025-08-15T02:40:35.310Z,15,GR86-030-18,13.8,0.441,0.135,99.86,2.0,,0.0,0.0,104.85
2025-08-15T02:40:35.353Z,15,GR86-030-18,13.9,0.439,0.073,99.86,2.0,,0.0,0.0,
2025-08-15T02:40:35.396Z,15,GR86-030-18,14.2,0.415,0.097,99.89,2.0,,0.0,0.0,
2025-08-15T02:40:35.440Z,15,GR86-030-18,14.9,0.15,0.082,99.87,2.0,,0.0,0.0,
2025-08-15T02:40:35.483Z,15,GR86-030-18,15.3,0.172,0.061,99.85,2.0,6317.0,0.0,0.0,
2025-08-15T02:40:35.526Z,15,GR86-030-18,15.3,0.189,0.136,99.87,2.0,,0.0,0.0,106.63
2025-08-15T02:40:35.570Z,15,GR86-030-18,15.5,0.164,0.077,99.86,2.0,,0.0,0.0,
2025-08-15T02:40:35.613Z,15,GR86-030-18,16.0,0.277,0.12,99.87,2.0,,0.0,0.0,
2025-08-15T02:40:35.655Z,15,GR86-030-18,16.3,0.24,0.229,99.88,2.0,,0.0,0.0,
2025-08-15T02:40:35.699Z,15,GR86-030-18,15.9,0.261,0.185,99.88,2.0,6329.0,0.0,0.0,
2025-08-15T02:40:35.741Z,15,GR86-030-18,15.9,0.338,0.22,99.86,2.0,,0.0,0.0,110.03
2025-08-15T02:40:35.784Z,15,GR86-030-18,16.1,0.313,0.127,99.86,2.0,,0.0,0.0,
2025-08-15T02:40:35.827Z,15,GR86-030-18,16.0,0.26,0.22,99.88,2.0,,0.0,0.0,
2025-08-15T02:40:35.870Z,15,GR86-030-18,15.4,0.272,0.177,99.85,2.0,,0.0,0.0,
2025-08-15T02:40:35.913Z,15,GR86-030-18,13.9,0.218,0.196,99.86,2.0,6431.0,0.0,0.0,
2025-08-15T02:40:35.956Z,15,GR86-030-18,11.9,0.245,0.237,99.86,2.0,,0.0,0.0,111.6
2025-08-15T02:40:36.000Z,15,GR86-030-18,7.9,0.281,0.295,99.86,2.0,,0.0,0.0,
2025-08-15T02:40:36.043Z,15,GR86-030-18,4.1000000000000005,0.321,0.335,99.88,2.0,,0.0,0.0,
2025-08-15T02:40:36.086Z,15,GR86-030-18,1.0,0.241,0.273,99.87,2.0,,0.0,0.0,
2025-08-15T02:40:36.130Z,15,GR86-030-18,-1.2000000000000002,0.287,0.2,99.88,2.0,6516.0,0.0,0.0,
2025-08-15T02:40:36.173Z,15,GR86-030-18,-2.7,0.257,0.128,99.88,2.0,,0.0,0.0,112.91
2025-08-15T02:40:36.215Z,15,GR86-030-18,-4.0,0.238,0.038,99.87,2.0,,0.0,0.0,
2025-08-15T02:40:36.259Z,15,GR86-030-18,-5.6000000000000005,0.264,0.029,99.89,2.0,,0.0,0.0,
2025-08-15T02:40:36.301Z,15,GR86-030-18,-6.6000000000000005,0.268,-0.027,99.87,2.0,,0.0,0.0,
2025-08-15T02:40:36.344Z,15,GR86-030-18,-7.300000000000001,0.293,-0.076,99.86,2.0,6629.0,0.0,0.0,
2025-08-15T02:40:36.387Z,15,GR86-030-18,-7.4,0.271,-0.187,99.87,2.0,,0.0,0.0,114.59
2025-08-15T02:40:36.430Z,15,GR86-030-18,-6.9,0.277,-0.222,99.87,2.0,,0.0,0.0,
2025-08-15T02:40:36.473Z,15,GR86-030-18,-6.300000000000001,0.262,-0.239,99.85,2.0,,0.0,0.0,
2025-08-15T02:40:36.516Z,15,GR86-030-18,-5.5,0.286,-0.296,99.87,2.0,,0.0,0.0,
2025-08-15T02:40:36.560Z,15,GR86-030-18,-4.1000000000000005,0.293,-0.289,99.87,2.0,6736.0,0.0,0.0,
2025-08-15T02:40:36.603Z,15,GR86-030-18,-2.4000000000000004,0.297,-0.311,99.86,2.0,,0.0,0.0,116.13
2025-08-15T02:40:36.646Z,15,GR86-030-18,-0.9,0.246,-0.271,99.87,2.0,,0.0,0.0,
2025-08-15T02:40:36.690Z,15,GR86-030-18,-0.2,0.253,-0.246,99.88,2.0,,0.0,0.0,
2025-08-15T02:40:36.733Z,15,GR86-030-18,-0.1,0.277,-0.198,99.89,2.0,,0.0,0.0,
2025-08-15T02:40:36.776Z,15,GR86-030-18,-0.3,0.256,-0.17,99.89,2.0,6804.0,0.0,0.0,
2025-08-15T02:40:36.820Z,15,GR86-030-18,-1.1,0.253,-0.107,99.87,2.0,,0.0,0.0,117.44
2025-08-15T02:40:36.863Z,15,GR86-030-18,-1.7000000000000002,0.262,-0.131,99.9,2.0,,0.0,0.0,
2025-08-15T02:40:36.906Z,15,GR86-030-18,-2.0,0.282,-0.108,99.89,2.0,,0.0,0.0,
2025-08-15T02:40:36.950Z,15,GR86-030-18,-2.0,0.263,-0.098,99.88,2.0,,0.0,0.0,
2025-08-15T02:40:36.993Z,15,GR86-030-18,-1.7000000000000002,0.281,-0.112,99.9,2.0,6883.0,0.0,0.0,
2025-08-15T02:40:37.035Z,15,GR86-030-18,-1.1,0.284,-0.112,99.9,2.0,,0.0,0.0,118.81
2025-08-15T02:40:37.079Z,15,GR86-030-18,-0.6000000000000001,0.279,-0.135,99.9,2.0,,0.0,0.0,
2025-08-15T02:40:37.121Z,15,GR86-030-18,-0.6000000000000001,0.249,-0.097,99.86,2.0,,0.0,0.0,
2025-08-15T02:40:37.207Z,15,GR86-030-18,-0.9,0.268,-0.119,99.9,2.0,6953.0,0.0,0.0,
2025-08-15T02:40:37.250Z,15,GR86-030-18,-0.2,0.256,-0.13,99.89,2.0,,0.0,0.0,120.08
2025-08-15T02:40:37.293Z,15,GR86-030-18,0.4,0.259,-0.146,99.89,2.0,,0.0,0.0,
2025-08-15T02:40:37.337Z,15,GR86-030-18,0.7000000000000001,0.272,-0.126,99.92,2.0,,0.0,0.0,
2025-08-15T02:40:37.380Z,15,GR86-030-18,0.9,0.28,-0.118,99.89,2.0,,0.0,0.0,
2025-08-15T02:40:37.423Z,15,GR86-030-18,0.9,0.241,-0.085,99.91,2.0,7029.0,0.0,0.0,
2025-08-15T02:40:37.466Z,15,GR86-030-18,1.3,0.259,-0.122,99.89,2.0,,0.0,0.0,121.27
2025-08-15T02:40:37.510Z,15,GR86-030-18,1.9,0.274,-0.12,99.89,2.0,,0.0,0.0,
2025-08-15T02:40:37.553Z,15,GR86-030-18,2.8000000000000003,0.243,-0.083,99.91,2.0,,0.0,0.0,
2025-08-15T02:40:37.597Z,15,GR86-030-18,3.8,0.247,-0.082,99.86,2.0,,0.0,0.0,
2025-08-15T02:40:37.640Z,15,GR86-030-18,4.3,0.264,-0.053,99.92,2.0,7096.0,0.0,0.0,
2025-08-15T02:40:37.683Z,15,GR86-030-18,4.4,0.267,-0.053,99.86,2.0,,0.0,0.0,122.5
2025-08-15T02:40:37.726Z,15,GR86-030-18,5.1000000000000005,0.248,-0.006,99.9,2.0,,0.0,0.0,
2025-08-15T02:40:37.771Z,15,GR86-030-18,6.0,0.246,0.005,99.9,2.0,,0.0,0.0,
2025-08-15T02:40:37.813Z,15,GR86-030-18,6.7,0.256,0.006,99.88,2.0,,0.0,0.0,
2025-08-15T02:40:37.856Z,15,GR86-030-18,6.800000000000001,0.253,0.049,99.9,2.0,7159.0,0.0,0.0,
2025-08-15T02:40:37.900Z,15,GR86-030-18,5.800000000000001,0.262,0.057,99.87,2.0,,0.0,0.0,123.65
2025-08-15T02:40:37.943Z,15,GR86-030-18,5.5,0.243,0.074,99.86,2.0,,0.0,0.0,
2025-08-15T02:40:37.986Z,15,GR86-030-18,5.300000000000001,0.245,0.081,99.89,2.0,,0.0,0.0,
2025-08-15T02:40:38.030Z,15,GR86-030-18,4.6000000000000005,0.221,0.108,99.92,2.0,,0.0,0.0,
2025-08-15T02:40:38.073Z,15,GR86-030-18,4.2,0.203,0.133,99.86,2.0,7219.0,0.0,0.0,
2025-08-15T02:40:38.115Z,15,GR86-030-18,4.3,0.17,0.1,99.91,2.0,,0.0,0.0,124.81
2025-08-15T02:40:38.159Z,15,GR86-030-18,4.6000000000000005,0.148,0.108,99.89,2.0,,0.0,0.0,
2025-08-15T02:40:38.203Z,15,GR86-030-18,4.5,0.139,0.079,99.92,2.0,,0.0,0.0,
2025-08-15T02:40:38.246Z,15,GR86-030-18,4.1000000000000005,0.14,0.108,99.88,2.0,,0.0,0.0,
2025-08-15T02:40:38.290Z,15,GR86-030-18,4.1000000000000005,0.129,0.086,99.89,2.0,7281.0,0.0,0.0,
2025-08-15T02:40:38.332Z,15,GR86-030-18,4.1000000000000005,0.128,0.07,99.89,2.0,,0.0,0.0,125.9
2025-08-15T02:40:38.375Z,15,GR86-030-18,3.9,0.123,0.076,79.36,2.0,,0.0,0.0,
2025-08-15T02:40:38.419Z,15,GR86-030-18,3.3000000000000003,0.123,0.061,7.51,2.0,,0.0,0.0,
2025-08-15T02:40:38.461Z,15,GR86-030-18,3.2,0.089,0.061,5.41,2.0,,0.0,0.0,
2025-08-15T02:40:38.504Z,15,GR86-030-18,3.2,0.006,0.034,5.22,2.0,7262.0,0.0,0.0,
2025-08-15T02:40:38.547Z,15,GR86-030-18,3.2,-0.105,0.059,4.88,2.0,,0.0,0.0,127.53
2025-08-15T02:40:38.590Z,15,GR86-030-18,3.2,-0.128,0.059,4.34,2.0,,0.0,0.0,
2025-08-15T02:40:38.633Z,15,GR86-030-18,3.2,-0.412,0.034,3.78,2.0,,0.0,0.0,
2025-08-15T02:40:38.676Z,15,GR86-030-18,3.1,-0.284,0.051,3.52,2.0,,0.0,0.0,
2025-08-15T02:40:38.720Z,15,GR86-030-18,3.1,-0.114,-0.003,3.3200000000000003,2.0,7311.0,0.0,0.0,
2025-08-15T02:40:38.763Z,15,GR86-030-18,3.0,-0.093,0.057,3.0700000000000003,2.0,,4.47,4.655,127.79
2025-08-15T02:40:38.806Z,15,GR86-030-18,2.8000000000000003,-0.186,0.043,2.83,2.0,,6.865,6.775,
2025-08-15T02:40:38.850Z,15,GR86-030-18,2.7,-0.235,0.018,2.67,2.0,,9.155,8.975,
2025-08-15T02:40:38.893Z,15,GR86-030-18,2.7,-0.311,0.06,2.58,2.0,,11.935,11.78,
2025-08-15T02:40:38.937Z,15,GR86-030-18,2.7,-0.323,0.059,2.49,2.0,7024.0,14.68,14.42,
2025-08-15T02:40:38.980Z,15,GR86-030-18,2.8000000000000003,-0.411,0.032,2.43,2.0,,18.74,18.525,126.95
2025-08-15T02:40:39.023Z,15,GR86-030-18,3.0,-0.445,0.03,2.39,2.0,,21.47,21.15,
2025-08-15T02:40:39.066Z,15,GR86-030-18,3.1,-0.475,0.012,2.38,2.0,,23.865,23.53,
2025-08-15T02:40:39.110Z,15,GR86-030-18,3.1,-0.536,0.017,2.37,2.0,,25.895,25.575,
2025-08-15T02:40:39.153Z,15,GR86-030-18,3.1,-0.547,0.011,2.36,2.0,6952.0,27.56,27.255,
2025-08-15T02:40:39.197Z,15,GR86-030-18,3.3000000000000003,-0.585,-0.009,2.38,2.0,,29.115,28.87,124.71
2025-08-15T02:40:39.240Z,15,GR86-030-18,4.800000000000001,-0.615,-0.015,2.38,2.0,,30.93,30.735,
2025-08-15T02:40:39.283Z,15,GR86-030-18,6.800000000000001,-0.66,-0.036,2.39,2.0,,31.865,31.48,
2025-08-15T02:40:39.326Z,15,GR86-030-18,9.3,-0.649,-0.03,2.39,2.0,,32.625,32.14,
2025-08-15T02:40:39.370Z,15,GR86-030-18,11.6,-0.727,-0.002,2.4,2.0,6676.0,32.84,32.78,
2025-08-15T02:40:39.412Z,15,GR86-030-18,14.4,-0.709,-0.052,2.42,2.0,,32.475,32.505,120.83
2025-08-15T02:40:39.455Z,15,GR86-030-18,17.3,-0.726,0.012,2.43,2.0,,32.685,32.475,
2025-08-15T02:40:39.499Z,15,GR86-030-18,20.9,-0.745,0.093,2.43,2.0,,32.535000000000004,32.505,
2025-08-15T02:40:39.541Z,15,GR86-030-18,22.3,-0.713,0.048,2.44,2.0,,32.105000000000004,32.105000000000004,
2025-08-15T02:40:39.585Z,15,GR86-030-18,23.0,-0.741,0.122,2.45,2.0,6345.0,32.445,32.305,
2025-08-15T02:40:39.629Z,15,GR86-030-18,24.0,-0.766,0.182,2.46,2.0,,32.105000000000004,32.105000000000004,115.69
2025-08-15T02:40:39.671Z,15,GR86-030-18,25.8,-0.727,0.164,2.46,2.0,,32.105000000000004,32.105000000000004,
2025-08-15T02:40:39.714Z,15,GR86-030-18,27.8,-0.6970000000000001,0.257,2.45,2.0,,31.77,32.015,
2025-08-15T02:40:39.757Z,15,GR86-030-18,29.8,-0.721,0.316,2.45,2.0,,31.055,31.42,
2025-08-15T02:40:39.800Z,15,GR86-030-18,33.300000000000004,-0.682,0.39,2.48,2.0,6054.0,29.59,30.215,
2025-08-15T02:40:39.843Z,15,GR86-030-18,36.0,-0.714,0.43,2.48,2.0,,28.615,29.68,110.38
2025-08-15T02:40:39.886Z,15,GR86-030-18,38.400000000000006,-0.676,0.512,2.48,2.0,,27.775,28.78,
2025-08-15T02:40:39.930Z,15,GR86-030-18,40.3,-0.66,0.58,2.46,2.0,,27.225,28.275,
2025-08-15T02:40:39.973Z,15,GR86-030-18,41.5,-0.641,0.646,2.48,2.0,,26.46,27.59,
2025-08-15T02:40:40.016Z,15,GR86-030-18,42.2,-0.633,0.754,2.47,2.0,5835.0,25.775,26.905,
2025-08-15T02:40:40.060Z,15,GR86-030-18,43.3,-0.658,0.8220000000000001,2.48,2.0,,24.28,25.455,105.64
2025-08-15T02:40:40.103Z,15,GR86-030-18,43.3,-0.553,0.861,2.46,2.0,,21.18,22.37,
2025-08-15T02:40:40.146Z,15,GR86-030-18,42.400000000000006,-0.559,0.877,2.48,2.0,,11.905,12.68,
2025-08-15T02:40:40.190Z,15,GR86-030-18,41.3,-0.213,1.053,2.48,2.0,,3.725,4.12,
2025-08-15T02:40:40.275Z,15,GR86-030-18,40.3,-0.238,1.078,2.48,2.0,5519.0,0.0,0.0,100.98
2025-08-15T02:40:40.319Z,15,GR86-030-18,41.2,-0.152,1.101,2.48,2.0,,0.0,0.0,
2025-08-15T02:40:40.363Z,15,GR86-030-18,40.6,-0.146,1.071,2.48,2.0,,0.0,0.0,
2025-08-15T02:40:40.406Z,15,GR86-030-18,38.400000000000006,-0.147,1.089,3.17,2.0,,0.0,0.0,
