timestamp,lap,vehicle_id,steering_angle,accx_can,accy_can,ath,gear,nmot,pbrake_f,pbrake_r,speed
2025-08-15T01:22:37.298Z,13,GR86-062-012,0.7000000000000001,0.135,-0.064,99.83,4.0,7085.0,0.0,0.0,
2025-08-15T01:22:37.340Z,13,GR86-062-012,0.7000000000000001,0.127,-0.077,99.83,4.0,,0.0,0.0,180.06
2025-08-15T01:22:37.385Z,13,GR86-062-012,0.7000000000000001,0.163,-0.088,99.83,4.0,,0.0,0.0,
2025-08-15T01:22:37.428Z,13,GR86-062-012,0.8,0.141,-0.095,99.85,4.0,,0.0,0.0,
2025-08-15T01:22:37.471Z,13,GR86-062-012,0.9,0.151,-0.106,99.82,4.0,,0.0,0.0,
2025-08-15T01:22:37.514Z,13,GR86-062-012,1.0,0.133,-0.104,99.87,4.0,7104.0,0.0,0.0,
2025-08-15T01:22:37.557Z,13,GR86-062-012,1.1,0.127,-0.094,99.84,4.0,,0.0,0.0,180.77
2025-08-15T01:22:37.600Z,13,GR86-062-012,1.1,0.129,-0.072,99.82,4.0,,0.0,0.0,
2025-08-15T01:22:37.644Z,13,GR86-062-012,1.1,0.116,-0.066,99.8,4.0,,0.0,0.0,
2025-08-15T01:22:37.686Z,13,GR86-062-012,1.1,0.125,-0.079,99.84,4.0,,0.0,0.0,
2025-08-15T01:22:37.729Z,13,GR86-062-012,1.1,0.139,-0.06,99.86,4.0,7132.0,0.0,0.0,
2025-08-15T01:22:37.775Z,13,GR86-062-012,1.1,0.14,-0.05,99.83,4.0,,0.0,0.0,181.48
2025-08-15T01:22:37.818Z,13,GR86-062-012,1.1,0.144,-0.058,99.86,4.0,,0.0,0.0,
2025-08-15T01:22:37.861Z,13,GR86-062-012,1.1,0.141,-0.077,99.83,4.0,,0.0,0.0,
2025-08-15T01:22:37.904Z,13,GR86-062-012,1.3,0.137,-0.059,99.81,4.0,,0.0,0.0,
2025-08-15T01:22:37.947Z,13,GR86-062-012,1.4,0.14,-0.069,99.82,4.0,7162.0,0.0,0.0,
2025-08-15T01:22:37.990Z,13,GR86-062-012,1.5,0.125,-0.048,99.84,4.0,,0.0,0.0,182.34
2025-08-15T01:22:38.034Z,13,GR86-062-012,1.7000000000000002,0.13,-0.047,99.81,4.0,,0.0,0.0,
2025-08-15T01:22:38.077Z,13,GR86-062-012,1.7000000000000002,0.134,-0.023,99.83,4.0,,0.0,0.0,
2025-08-15T01:22:38.120Z,13,GR86-062-012,1.9,0.134,-0.023,99.84,4.0,,0.0,0.0,
2025-08-15T01:22:38.164Z,13,GR86-062-012,2.0,0.14,-0.023,99.82,4.0,7198.0,0.0,0.0,
2025-08-15T01:22:38.206Z,13,GR86-062-012,2.0,0.133,-0.031,99.84,4.0,,0.0,0.0,183.01
2025-08-15T01:22:38.249Z,13,GR86-062-012,2.1,0.142,-0.02,99.83,4.0,,0.0,0.0,
2025-08-15T01:22:38.293Z,13,GR86-062-012,2.2,0.138,-0.02,99.83,4.0,,0.0,0.0,
2025-08-15T01:22:38.335Z,13,GR86-062-012,2.3000000000000003,0.141,0.002,99.81,4.0,,0.0,0.0,
2025-08-15T01:22:38.378Z,13,GR86-062-012,2.3000000000000003,-0.069,-0.006,99.82,5.0,7221.0,0.0,0.0,
2025-08-15T01:22:38.421Z,13,GR86-062-012,2.2,-0.003,0.031,99.84,5.0,,0.0,0.0,183.85
2025-08-15T01:22:38.465Z,13,GR86-062-012,2.2,0.389,-0.031,99.84,5.0,,0.0,0.0,
2025-08-15T01:22:38.508Z,13,GR86-062-012,2.3000000000000003,0.258,-0.076,99.84,5.0,,0.0,0.0,
2025-08-15T01:22:38.551Z,13,GR86-062-012,2.3000000000000003,0.076,0.054,99.85,5.0,,0.0,0.0,
2025-08-15T01:22:38.594Z,13,GR86-062-012,2.0,0.086,-0.05,99.82,5.0,7250.0,0.0,0.0,
2025-08-15T01:22:38.637Z,13,GR86-062-012,2.0,0.174,-0.012,99.83,5.0,,0.0,0.0,185.41
2025-08-15T01:22:38.680Z,13,GR86-062-012,2.4000000000000004,0.137,-0.026,99.82,5.0,,0.0,0.0,
2025-08-15T01:22:38.724Z,13,GR86-062-012,3.6,0.097,-0.058,99.84,5.0,,0.0,0.0,
2025-08-15T01:22:38.767Z,13,GR86-062-012,3.7,0.129,0.0,99.83,5.0,,0.0,0.0,
2025-08-15T01:22:38.810Z,13,GR86-062-012,3.2,0.139,0.002,99.84,5.0,6781.0,0.0,0.0,
2025-08-15T01:22:38.854Z,13,GR86-062-012,1.4,0.088,0.009,99.83,5.0,,0.0,0.0,186.02
2025-08-15T01:22:38.897Z,13,GR86-062-012,1.3,0.1,-0.008,99.83,5.0,,0.0,0.0,
2025-08-15T01:22:38.940Z,13,GR86-062-012,1.3,0.138,-0.002,99.83,5.0,,0.0,0.0,
2025-08-15T01:22:38.984Z,13,GR86-062-012,1.3,0.099,-0.001,99.82,5.0,,0.0,0.0,
2025-08-15T01:22:39.027Z,13,GR86-062-012,1.3,0.104,-0.003,99.83,5.0,6368.0,0.0,0.0,
2025-08-15T01:22:39.070Z,13,GR86-062-012,1.3,0.107,-0.045,99.83,5.0,,0.0,0.0,186.69
2025-08-15T01:22:39.114Z,13,GR86-062-012,1.3,0.138,-0.06,99.83,5.0,,0.0,0.0,
2025-08-15T01:22:39.157Z,13,GR86-062-012,1.3,0.12,-0.054,99.84,5.0,,0.0,0.0,
2025-08-15T01:22:39.200Z,13,GR86-062-012,1.4,0.122,-0.067,99.84,5.0,,0.0,0.0,
2025-08-15T01:22:39.244Z,13,GR86-062-012,1.7000000000000002,0.125,-0.062,99.83,5.0,6373.0,0.0,0.0,
2025-08-15T01:22:39.286Z,13,GR86-062-012,1.7000000000000002,0.11,-0.059,99.84,5.0,,0.0,0.0,187.31
2025-08-15T01:22:39.329Z,13,GR86-062-012,1.8,0.123,-0.067,99.83,5.0,,0.0,0.0,
2025-08-15T01:22:39.374Z,13,GR86-062-012,1.8,0.113,-0.068,99.82,5.0,,0.0,0.0,
2025-08-15T01:22:39.417Z,13,GR86-062-012,1.9,0.119,-0.062,99.85,5.0,,0.0,0.0,
2025-08-15T01:22:39.460Z,13,GR86-062-012,2.0,0.121,-0.048,99.84,5.0,6399.0,0.0,0.0,
2025-08-15T01:22:39.504Z,13,GR86-062-012,2.0,0.125,-0.042,99.83,5.0,,0.0,0.0,188.03
2025-08-15T01:22:39.546Z,13,GR86-062-012,2.1,0.121,-0.021,99.82,5.0,,0.0,0.0,
2025-08-15T01:22:39.589Z,13,GR86-062-012,2.2,0.116,-0.031,99.83,5.0,,0.0,0.0,
2025-08-15T01:22:39.635Z,13,GR86-062-012,2.3000000000000003,0.105,-0.013,99.82,5.0,,0.0,0.0,
2025-08-15T01:22:39.678Z,13,GR86-062-012,2.2,0.099,0.001,99.83,5.0,6419.0,0.0,0.0,
2025-08-15T01:22:39.721Z,13,GR86-062-012,2.1,0.085,-0.011,99.83,5.0,,0.0,0.0,188.63
2025-08-15T01:22:39.765Z,13,GR86-062-012,2.1,0.09,-0.01,99.84,5.0,,0.0,0.0,
2025-08-15T01:22:39.808Z,13,GR86-062-012,2.1,0.108,-0.009,99.83,5.0,,0.0,0.0,
2025-08-15T01:22:39.851Z,13,GR86-062-012,2.0,0.117,-0.009,99.83,5.0,,0.0,0.0,
2025-08-15T01:22:39.894Z,13,GR86-062-012,1.9,0.122,-0.023,99.83,5.0,6440.0,0.0,0.0,
2025-08-15T01:22:39.937Z,13,GR86-062-012,1.8,0.1,-0.024,99.83,5.0,,0.0,0.0,189.23
2025-08-15T01:22:39.980Z,13,GR86-062-012,1.8,0.097,-0.054,99.83,5.0,,0.0,0.0,
2025-08-15T01:22:40.025Z,13,GR86-062-012,1.8,0.101,-0.036,99.83,5.0,,0.0,0.0,
2025-08-15T01:22:40.069Z,13,GR86-062-012,1.8,0.089,-0.04,99.81,5.0,,0.0,0.0,
2025-08-15T01:22:40.113Z,13,GR86-062-012,1.9,0.12,-0.017,99.84,5.0,6464.0,0.0,0.0,
2025-08-15T01:22:40.156Z,13,GR86-062-012,2.0,0.124,-0.033,99.83,5.0,,0.0,0.0,189.94
2025-08-15T01:22:40.199Z,13,GR86-062-012,2.1,0.107,-0.019,99.84,5.0,,0.0,0.0,
2025-08-15T01:22:40.243Z,13,GR86-062-012,2.2,0.117,-0.039,99.84,5.0,,0.0,0.0,
2025-08-15T01:22:40.286Z,13,GR86-062-012,2.4000000000000004,0.107,-0.024,99.82,5.0,,0.0,0.0,
2025-08-15T01:22:40.329Z,13,GR86-062-012,2.4000000000000004,0.085,-0.031,99.83,5.0,6492.0,0.0,0.0,
2025-08-15T01:22:40.373Z,13,GR86-062-012,2.5,0.112,-0.002,99.82,5.0,,0.0,0.0,190.68
2025-08-15T01:22:40.417Z,13,GR86-062-012,2.5,0.145,0.009,99.83,5.0,,0.0,0.0,
2025-08-15T01:22:40.459Z,13,GR86-062-012,2.5,0.116,0.011,99.84,5.0,,0.0,0.0,
2025-08-15T01:22:40.503Z,13,GR86-062-012,2.5,0.121,0.002,99.81,5.0,,0.0,0.0,
2025-08-15T01:22:40.545Z,13,GR86-062-012,2.2,0.129,-0.016,99.83,5.0,6512.0,0.0,0.0,
2025-08-15T01:22:40.588Z,13,GR86-062-012,2.1,0.111,-0.006,99.84,5.0,,0.0,0.0,191.27
2025-08-15T01:22:40.631Z,13,GR86-062-012,2.0,0.102,-0.012,99.83,5.0,,0.0,0.0,
2025-08-15T01:22:40.674Z,13,GR86-062-012,1.8,0.117,-0.02,99.84,5.0,,0.0,0.0,
2025-08-15T01:22:40.717Z,13,GR86-062-012,1.7000000000000002,0.129,-0.027,99.82,5.0,,0.0,0.0,
2025-08-15T01:22:40.760Z,13,GR86-062-012,1.7000000000000002,0.118,-0.038,99.82,5.0,6529.0,0.0,0.0,
2025-08-15T01:22:40.804Z,13,GR86-062-012,1.7000000000000002,0.11,-0.048,99.83,5.0,,0.0,0.0,192.01
2025-08-15T01:22:40.846Z,13,GR86-062-012,1.7000000000000002,0.105,-0.052,99.83,5.0,,0.0,0.0,
2025-08-15T01:22:40.889Z,13,GR86-062-012,1.7000000000000002,0.108,-0.052,99.82,5.0,,0.0,0.0,
2025-08-15T01:22:40.934Z,13,GR86-062-012,1.7000000000000002,0.117,-0.067,99.83,5.0,,0.0,0.0,
2025-08-15T01:22:40.977Z,13,GR86-062-012,1.7000000000000002,0.114,-0.064,99.81,5.0,6552.0,0.0,0.0,
2025-08-15T01:22:41.020Z,13,GR86-062-012,1.7000000000000002,0.115,-0.056,99.83,5.0,,0.0,0.0,192.66
2025-08-15T01:22:41.064Z,13,GR86-062-012,1.7000000000000002,0.129,-0.061,99.83,5.0,,0.0,0.0,
2025-08-15T01:22:41.106Z,13,GR86-062-012,1.8,0.113,-0.064,99.83,5.0,,0.0,0.0,
2025-08-15T01:22:41.149Z,13,GR86-062-012,1.8,0.119,-0.068,99.83,5.0,,0.0,0.0,
2025-08-15T01:22:41.193Z,13,GR86-062-012,1.8,0.111,-0.072,99.83,5.0,6577.0,0.0,0.0,
2025-08-15T01:22:41.235Z,13,GR86-062-012,1.8,0.093,-0.038,99.83,5.0,,0.0,0.0,193.86
2025-08-15T01:22:41.278Z,13,GR86-062-012,1.8,0.112,-0.047,99.84,5.0,,0.0,0.0,
2025-08-15T01:22:41.321Z,13,GR86-062-012,2.1,0.121,-0.022,99.82,5.0,,0.0,0.0,
2025-08-15T01:22:41.366Z,13,GR86-062-012,2.5,0.111,-0.038,99.82,5.0,,0.0,0.0,
2025-08-15T01:22:41.408Z,13,GR86-062-012,2.5,0.096,-0.045,99.83,5.0,6603.0,0.0,0.0,
2025-08-15T01:22:41.451Z,13,GR86-062-012,2.6,0.113,-0.026,99.83,5.0,,0.0,0.0,194.64
2025-08-15T01:22:41.494Z,13,GR86-062-012,2.7,0.119,-0.017,99.81,5.0,,0.0,0.0,
2025-08-15T01:22:41.537Z,13,GR86-062-012,2.7,0.1,-0.038,99.83,5.0,,0.0,0.0,
2025-08-15T01:22:41.580Z,13,GR86-062-012,2.7,0.118,-0.028,99.83,5.0,,0.0,0.0,
2025-08-15T01:22:41.624Z,13,GR86-062-012,2.7,0.125,-0.008,99.84,5.0,6618.0,0.0,0.0,
2025-08-15T01:22:41.666Z,13,GR86-062-012,2.9000000000000004,0.096,0.012,99.83,5.0,,0.0,0.0,195.25
2025-08-15T01:22:41.709Z,13,GR86-062-012,3.1,0.096,0.018,99.83,5.0,,0.0,0.0,
2025-08-15T01:22:41.753Z,13,GR86-062-012,3.7,0.113,0.022,99.82,5.0,,0.0,0.0,
2025-08-15T01:22:41.795Z,13,GR86-062-012,4.2,0.112,0.027,99.83,5.0,,0.0,0.0,
2025-08-15T01:22:41.838Z,13,GR86-062-012,4.4,0.119,0.035,99.8,5.0,6663.0,0.0,0.0,
2025-08-15T01:22:41.881Z,13,GR86-062-012,4.4,0.123,0.017,99.83,5.0,,0.0,0.0,195.94
2025-08-15T01:22:41.925Z,13,GR86-062-012,4.4,0.115,0.046,99.84,5.0,,0.0,0.0,
2025-08-15T01:22:41.967Z,13,GR86-062-012,4.4,0.083,0.049,99.83,5.0,,0.0,0.0,
2025-08-15T01:22:42.010Z,13,GR86-062-012,4.4,0.103,0.088,99.84,5.0,,0.0,0.0,
2025-08-15T01:22:42.054Z,13,GR86-062-012,4.4,0.142,0.109,99.81,5.0,6688.0,0.0,0.0,
2025-08-15T01:22:42.097Z,13,GR86-062-012,4.2,0.113,0.094,99.83,5.0,,0.0,0.0,196.55
2025-08-15T01:22:42.140Z,13,GR86-062-012,3.9,0.117,0.07,99.83,5.0,,0.0,0.0,
2025-08-15T01:22:42.184Z,13,GR86-062-012,3.4000000000000004,0.094,0.058,99.81,5.0,,0.0,0.0,
2025-08-15T01:22:42.227Z,13,GR86-062-012,3.0,0.107,0.071,99.81,5.0,,0.0,0.0,
2025-08-15T01:22:42.270Z,13,GR86-062-012,2.9000000000000004,0.087,0.02,99.83,5.0,6721.0,0.0,0.0,
2025-08-15T01:22:42.314Z,13,GR86-062-012,2.8000000000000003,0.105,-0.027,99.84,5.0,,0.0,0.0,197.22
2025-08-15T01:22:42.358Z,13,GR86-062-012,2.8000000000000003,0.106,-0.002,99.82,5.0,,0.0,0.0,
2025-08-15T01:22:42.401Z,13,GR86-062-012,2.8000000000000003,0.092,-0.019,99.82,5.0,,0.0,0.0,
2025-08-15T01:22:42.445Z,13,GR86-062-012,2.8000000000000003,0.085,-0.01,99.82,5.0,,0.0,0.0,
2025-08-15T01:22:42.488Z,13,GR86-062-012,2.9000000000000004,0.093,-0.003,99.84,5.0,6743.0,0.0,0.0,
2025-08-15T01:22:42.531Z,13,GR86-062-012,3.0,0.086,0.008,99.84,5.0,,0.0,0.0,197.9
2025-08-15T01:22:42.575Z,13,GR86-062-012,3.3000000000000003,0.079,0.005,99.83,5.0,,0.0,0.0,
2025-08-15T01:22:42.618Z,13,GR86-062-012,3.4000000000000004,0.099,-0.004,99.83,5.0,,0.0,0.0,
2025-08-15T01:22:42.661Z,13,GR86-062-012,3.4000000000000004,0.089,0.016,99.8,5.0,,0.0,0.0,
2025-08-15T01:22:42.704Z,13,GR86-062-012,3.5,0.087,0.014,99.8,5.0,6749.0,0.0,0.0,
2025-08-15T01:22:42.747Z,13,GR86-062-012,3.7,0.085,0.035,99.82,5.0,,0.0,0.0,198.54
2025-08-15T01:22:42.790Z,13,GR86-062-012,3.9,0.095,0.027,99.84,5.0,,0.0,0.0,
2025-08-15T01:22:42.835Z,13,GR86-062-012,4.0,0.098,0.057,99.83,5.0,,0.0,0.0,
2025-08-15T01:22:42.878Z,13,GR86-062-012,4.0,0.097,0.069,99.82,5.0,,0.0,0.0,
2025-08-15T01:22:42.921Z,13,GR86-062-012,3.7,0.088,0.077,99.83,5.0,6774.0,0.0,0.0,
2025-08-15T01:22:42.964Z,13,GR86-062-012,3.5,0.094,0.083,99.8,5.0,,0.0,0.0,199.17
2025-08-15T01:22:43.008Z,13,GR86-062-012,3.4000000000000004,0.104,0.071,99.8,5.0,,0.0,0.0,
2025-08-15T01:22:43.051Z,13,GR86-062-012,3.4000000000000004,0.089,0.067,99.81,5.0,,0.0,0.0,
2025-08-15T01:22:43.094Z,13,GR86-062-012,3.1,0.094,0.039,99.81,5.0,,0.0,0.0,
2025-08-15T01:22:43.137Z,13,GR86-062-012,3.1,0.1,0.029,99.81,5.0,6803.0,0.0,0.0,
2025-08-15T01:22:43.180Z,13,GR86-062-012,3.1,0.107,0.013,99.82,5.0,,0.0,0.0,199.78
2025-08-15T01:22:43.224Z,13,GR86-062-012,3.1,0.102,-0.011,99.83,5.0,,0.0,0.0,
2025-08-15T01:22:43.268Z,13,GR86-062-012,3.0,0.099,0.005,99.81,5.0,,0.0,0.0,
2025-08-15T01:22:43.311Z,13,GR86-062-012,3.0,0.104,-0.004,99.81,5.0,,0.0,0.0,
2025-08-15T01:22:43.354Z,13,GR86-062-012,3.0,0.086,-0.01,99.81,5.0,6813.0,0.0,0.0,
2025-08-15T01:22:43.397Z,13,GR86-062-012,3.0,0.107,-0.021,99.8,5.0,,0.0,0.0,200.39
2025-08-15T01:22:43.440Z,13,GR86-062-012,3.0,0.1,-0.014,99.81,5.0,,0.0,0.0,
2025-08-15T01:22:43.484Z,13,GR86-062-012,3.0,0.091,-0.001,99.81,5.0,,0.0,0.0,
2025-08-15T01:22:43.527Z,13,GR86-062-012,3.0,0.088,-0.008,99.83,5.0,,0.0,0.0,
2025-08-15T01:22:43.570Z,13,GR86-062-012,3.0,0.089,-0.009,99.83,5.0,6827.0,0.0,0.0,
2025-08-15T01:22:43.614Z,13,GR86-062-012,3.0,0.098,-0.021,99.81,5.0,,0.0,0.0,201.02
2025-08-15T01:22:43.658Z,13,GR86-062-012,3.0,0.09,0.003,99.83,5.0,,0.0,0.0,
2025-08-15T01:22:43.701Z,13,GR86-062-012,3.0,0.101,0.025,99.83,5.0,,0.0,0.0,
2025-08-15T01:22:43.745Z,13,GR86-062-012,3.0,0.083,0.039,99.82,5.0,,0.0,0.0,
2025-08-15T01:22:43.788Z,13,GR86-062-012,3.1,0.099,0.032,99.83,5.0,6861.0,0.0,0.0,
2025-08-15T01:22:43.831Z,13,GR86-062-012,3.1,0.098,0.034,99.81,5.0,,0.0,0.0,201.56
2025-08-15T01:22:43.874Z,13,GR86-062-012,3.1,0.073,0.01,99.81,5.0,,0.0,0.0,
2025-08-15T01:22:43.917Z,13,GR86-062-012,3.1,0.095,-0.014,99.84,5.0,,0.0,0.0,
2025-08-15T01:22:43.960Z,13,GR86-062-012,3.0,0.088,0.006,99.82,5.0,,0.0,0.0,
2025-08-15T01:22:44.004Z,13,GR86-062-012,2.7,0.091,-0.015,99.83,5.0,6868.0,0.0,0.0,
2025-08-15T01:22:44.046Z,13,GR86-062-012,2.5,0.093,0.003,99.82,5.0,,0.0,0.0,202.51
2025-08-15T01:22:44.089Z,13,GR86-062-012,2.4000000000000004,0.109,0.005,99.81,5.0,,0.0,0.0,
2025-08-15T01:22:44.134Z,13,GR86-062-012,2.5,0.111,0.026,99.83,5.0,,0.0,0.0,
2025-08-15T01:22:44.177Z,13,GR86-062-012,2.5,0.095,-0.005,99.83,5.0,,0.0,0.0,
2025-08-15T01:22:44.220Z,13,GR86-062-012,2.3000000000000003,0.101,-0.003,99.81,5.0,6891.0,0.0,0.0,
2025-08-15T01:22:44.264Z,13,GR86-062-012,1.7000000000000002,0.1,-0.023,99.83,5.0,,0.0,0.0,202.98
2025-08-15T01:22:44.307Z,13,GR86-062-012,1.7000000000000002,0.088,-0.023,99.81,5.0,,0.0,0.0,
2025-08-15T01:22:44.350Z,13,GR86-062-012,1.7000000000000002,0.093,-0.027,99.8,5.0,,0.0,0.0,
2025-08-15T01:22:44.394Z,13,GR86-062-012,1.7000000000000002,0.1,-0.036,99.81,5.0,,0.0,0.0,
2025-08-15T01:22:44.437Z,13,GR86-062-012,1.7000000000000002,0.091,-0.046,99.83,5.0,6927.0,0.0,0.0,
2025-08-15T01:22:44.480Z,13,GR86-062-012,1.8,0.072,-0.05,99.81,5.0,,0.0,0.0,203.61
2025-08-15T01:22:44.526Z,13,GR86-062-012,1.8,0.074,-0.066,99.83,5.0,,0.0,0.0,
2025-08-15T01:22:44.569Z,13,GR86-062-012,1.8,0.099,-0.066,99.83,5.0,,0.0,0.0,
2025-08-15T01:22:44.613Z,13,GR86-062-012,1.6,0.097,-0.043,99.81,5.0,,0.0,0.0,
2025-08-15T01:22:44.658Z,13,GR86-062-012,1.3,0.059,-0.049,99.81,5.0,6943.0,0.0,0.0,
2025-08-15T01:22:44.700Z,13,GR86-062-012,1.1,0.087,-0.036,99.83,5.0,,0.0,0.0,204.01
2025-08-15T01:22:44.744Z,13,GR86-062-012,1.0,0.076,-0.039,99.81,5.0,,0.0,0.0,
2025-08-15T01:22:44.786Z,13,GR86-062-012,1.0,0.101,-0.06,99.81,5.0,,0.0,0.0,
2025-08-15T01:22:44.829Z,13,GR86-062-012,1.1,0.105,-0.069,99.85,5.0,,0.0,0.0,
2025-08-15T01:22:44.873Z,13,GR86-062-012,1.1,0.08,-0.089,99.82,5.0,6966.0,0.0,0.0,
2025-08-15T01:22:44.915Z,13,GR86-062-012,1.1,0.093,-0.079,99.81,5.0,,0.0,0.0,204.59
2025-08-15T01:22:44.959Z,13,GR86-062-012,1.2000000000000002,0.113,-0.09,99.8,5.0,,0.0,0.0,
2025-08-15T01:22:45.003Z,13,GR86-062-012,1.3,0.099,-0.08,99.82,5.0,,0.0,0.0,
2025-08-15T01:22:45.045Z,13,GR86-062-012,1.3,0.079,-0.072,99.81,5.0,,0.0,0.0,
2025-08-15T01:22:45.088Z,13,GR86-062-012,1.3,0.08,-0.077,99.8,5.0,6974.0,0.0,0.0,
2025-08-15T01:22:45.131Z,13,GR86-062-012,1.3,0.061,-0.056,99.81,5.0,,0.0,0.0,205.03
2025-08-15T01:22:45.174Z,13,GR86-062-012,1.4,0.07,-0.066,99.83,5.0,,0.0,0.0,
2025-08-15T01:22:45.217Z,13,GR86-062-012,1.5,0.07,-0.06,99.83,5.0,,0.0,0.0,
2025-08-15T01:22:45.260Z,13,GR86-062-012,1.7000000000000002,0.056,-0.069,99.82,5.0,,0.0,0.0,
2025-08-15T01:22:45.304Z,13,GR86-062-012,2.9000000000000004,0.08,-0.054,99.82,5.0,6987.0,0.0,0.0,
2025-08-15T01:22:45.346Z,13,GR86-062-012,4.5,0.084,-0.073,99.8,5.0,,0.0,0.0,205.63
2025-08-15T01:22:45.389Z,13,GR86-062-012,4.800000000000001,0.091,0.002,99.81,5.0,,0.0,0.0,
2025-08-15T01:22:45.434Z,13,GR86-062-012,4.4,0.075,0.01,99.8,5.0,,0.0,0.0,
2025-08-15T01:22:45.477Z,13,GR86-062-012,3.1,0.092,0.026,99.83,5.0,,0.0,0.0,
2025-08-15T01:22:45.520Z,13,GR86-062-012,2.6,0.09,0.031,99.81,5.0,7015.0,0.0,0.0,
2025-08-15T01:22:45.564Z,13,GR86-062-012,2.4000000000000004,0.115,0.031,99.81,5.0,,0.0,0.0,206.06
2025-08-15T01:22:45.606Z,13,GR86-062-012,2.2,0.091,0.039,99.82,5.0,,0.0,0.0,
2025-08-15T01:22:45.649Z,13,GR86-062-012,2.0,0.092,0.013,99.82,5.0,,0.0,0.0,
2025-08-15T01:22:45.693Z,13,GR86-062-012,1.8,0.109,0.017,59.9,5.0,,0.0,0.0,
2025-08-15T01:22:45.735Z,13,GR86-062-012,1.8,0.115,-0.016,31.92,5.0,7021.0,0.0,0.0,
2025-08-15T01:22:45.778Z,13,GR86-062-012,1.7000000000000002,0.08,-0.023,5.8,5.0,,0.0,0.0,206.59
2025-08-15T01:22:45.821Z,13,GR86-062-012,1.6,0.022,-0.033,5.69,5.0,,0.0,0.0,
2025-08-15T01:22:45.865Z,13,GR86-062-012,1.0,-0.174,-0.067,5.46,5.0,,0.0,0.0,
2025-08-15T01:22:45.908Z,13,GR86-062-012,0.9,-0.235,-0.084,5.04,5.0,,0.0,0.0,
2025-08-15T01:22:45.951Z,13,GR86-062-012,0.9,-0.329,-0.105,4.37,5.0,7035.0,0.0,0.0,
2025-08-15T01:22:46.037Z,13,GR86-062-012,1.7000000000000002,-0.096,-0.087,3.82,5.0,,0.0,0.0,207.06
2025-08-15T01:22:46.080Z,13,GR86-062-012,2.5,-0.255,-0.128,3.41,5.0,,2.7,2.975,
2025-08-15T01:22:46.124Z,13,GR86-062-012,2.5,-0.151,-0.1,3.13,5.0,,12.71,13.045,
2025-08-15T01:22:46.168Z,13,GR86-062-012,2.5,-0.236,-0.131,2.81,5.0,6938.0,24.05,24.31,
2025-08-15T01:22:46.211Z,13,GR86-062-012,2.6,-0.449,-0.076,2.59,5.0,,33.875,33.71,207.43
2025-08-15T01:22:46.254Z,13,GR86-062-012,2.7,-0.736,-0.076,2.42,5.0,,46.77,46.495,
2025-08-15T01:22:46.297Z,13,GR86-062-012,2.7,-0.841,-0.033,2.38,5.0,,56.28,55.865,
2025-08-15T01:22:46.340Z,13,GR86-062-012,2.7,-1.017,-0.027,2.37,5.0,,66.215,65.68,
2025-08-15T01:22:46.384Z,13,GR86-062-012,2.7,-1.125,-0.014,2.35,5.0,6891.0,75.245,74.65,
2025-08-15T01:22:46.427Z,13,GR86-062-012,2.6,-1.204,0.025,2.36,5.0,,82.435,81.87,207.12
2025-08-15T01:22:46.470Z,13,GR86-062-012,2.2,-1.234,0.017,2.38,5.0,,87.655,86.965,
2025-08-15T01:22:46.514Z,13,GR86-062-012,2.0,-1.283,0.007,24.31,5.0,,90.675,90.49,
2025-08-15T01:22:46.557Z,13,GR86-062-012,1.7000000000000002,-1.356,-0.01,49.18,4.0,,91.025,92.125,
2025-08-15T01:22:46.600Z,13,GR86-062-012,1.5,-1.296,-0.006,4.66,4.0,6788.0,92.43,94.9,
2025-08-15T01:22:46.644Z,13,GR86-062-012,1.4,-1.372,0.021,4.69,4.0,,93.115,95.71,199.35
2025-08-15T01:22:46.686Z,13,GR86-062-012,1.3,-1.46,-0.007,4.23,4.0,,92.78,95.27,
2025-08-15T01:22:46.729Z,13,GR86-062-012,1.3,-1.332,0.018,3.98,4.0,,92.125,94.58,
2025-08-15T01:22:46.775Z,13,GR86-062-012,1.5,-1.34,-0.057,3.67,4.0,,82.205,82.955,
2025-08-15T01:22:46.818Z,13,GR86-062-012,1.5,-1.184,-0.045,3.51,4.0,6459.0,79.075,80.74,
2025-08-15T01:22:46.861Z,13,GR86-062-012,1.7000000000000002,-1.15,-0.031,7.0,4.0,,77.735,78.24,187.4
2025-08-15T01:22:46.904Z,13,GR86-062-012,2.0,-1.203,-0.113,45.5,3.0,,76.71000000000001,77.825,
2025-08-15T01:22:46.947Z,13,GR86-062-012,2.0,-1.278,0.003,25.72,3.0,,78.27,80.08500000000001,
2025-08-15T01:22:46.990Z,13,GR86-062-012,2.2,-1.27,-0.04,4.95,3.0,,79.93,81.655,
2025-08-15T01:22:47.077Z,13,GR86-062-012,3.5,-1.309,-0.095,3.86,3.0,6694.0,77.015,78.68,178.09
2025-08-15T01:22:47.120Z,13,GR86-062-012,3.8,-1.263,-0.254,3.68,3.0,,69.19,70.455,
2025-08-15T01:22:47.164Z,13,GR86-062-012,3.9,-1.132,-0.102,3.51,3.0,,67.325,68.655,
2025-08-15T01:22:47.206Z,13,GR86-062-012,3.9,-1.146,-0.213,3.3200000000000003,3.0,,67.615,68.84,
2025-08-15T01:22:47.249Z,13,GR86-062-012,4.7,-1.064,-0.273,3.06,3.0,6696.0,67.05,68.365,
2025-08-15T01:22:47.293Z,13,GR86-062-012,6.6000000000000005,-1.25,-0.253,2.64,3.0,,59.59,60.4,170.69
2025-08-15T01:22:47.335Z,13,GR86-062-012,8.3,-1.082,-0.249,2.46,3.0,,54.92,55.365,
2025-08-15T01:22:47.378Z,13,GR86-062-012,9.6,-1.01,-0.208,2.38,3.0,,53.64,53.9,
2025-08-15T01:22:47.421Z,13,GR86-062-012,9.6,-1.034,-0.142,2.35,3.0,,54.295,55.01,
2025-08-15T01:22:47.464Z,13,GR86-062-012,8.5,-1.095,-0.112,2.35,3.0,7033.0,55.365,55.945,
2025-08-15T01:22:47.507Z,13,GR86-062-012,7.4,-1.101,-0.08,2.33,3.0,,55.745000000000005,56.555,162.36
2025-08-15T01:22:47.550Z,13,GR86-062-012,6.9,-1.088,-0.057,2.35,3.0,,55.945,56.63,
2025-08-15T01:22:47.594Z,13,GR86-062-012,5.6000000000000005,-1.138,-0.017,2.36,3.0,,55.395,56.31,
2025-08-15T01:22:47.637Z,13,GR86-062-012,3.9,-1.104,0.009,2.36,3.0,,54.585,55.455,
2025-08-15T01:22:47.680Z,13,GR86-062-012,1.7000000000000002,-1.092,0.044,2.38,3.0,6850.0,54.705,55.745000000000005,
2025-08-15T01:22:47.724Z,13,GR86-062-012,-1.2000000000000002,-1.089,0.049,2.38,3.0,,55.395,56.25,155.05
2025-08-15T01:22:47.766Z,13,GR86-062-012,-3.7,-1.097,0.018,2.39,3.0,,56.095,56.875,
2025-08-15T01:22:47.809Z,13,GR86-062-012,-3.8,-1.075,-0.007,2.41,3.0,,56.66,57.3,
2025-08-15T01:22:47.853Z,13,GR86-062-012,-6.7,-1.103,0.009,2.41,3.0,,56.43,57.3,
2025-08-15T01:22:47.895Z,13,GR86-062-012,-9.1,-1.047,-0.042,2.45,3.0,6504.0,54.8,56.185,
2025-08-15T01:22:47.938Z,13,GR86-062-012,-10.1,-1.078,-0.11,2.45,3.0,,49.335,50.845,148.13
2025-08-15T01:22:47.981Z,13,GR86-062-012,-10.4,-0.999,-0.197,2.46,3.0,,36.515,37.8,
2025-08-15T01:22:48.024Z,13,GR86-062-012,-11.1,-0.759,-0.241,2.46,3.0,,20.02,20.965,
2025-08-15T01:22:48.067Z,13,GR86-062-012,-13.6,-0.517,-0.307,2.45,3.0,,7.555,8.33,
2025-08-15T01:22:48.110Z,13,GR86-062-012,-17.6,-0.296,-0.403,2.48,3.0,6191.0,0.0,1.8,
2025-08-15T01:22:48.154Z,13,GR86-062-012,-22.9,-0.145,-0.5660000000000001,21.6,3.0,,0.0,0.0,140.81
2025-08-15T01:22:48.197Z,13,GR86-062-012,-23.700000000000003,-0.154,-0.642,33.59,3.0,,0.0,0.0,
2025-08-15T01:22:48.240Z,13,GR86-062-012,-23.700000000000003,-0.137,-0.6930000000000001,40.3,3.0,,0.0,0.0,
2025-08-15T01:22:48.284Z,13,GR86-062-012,-23.700000000000003,-0.051,-0.717,67.3,3.0,,0.0,0.0,
2025-08-15T01:22:48.327Z,13,GR86-062-012,-23.8,-0.113,-0.789,90.28,3.0,5892.0,0.0,0.0,
2025-08-15T01:22:48.370Z,13,GR86-062-012,-25.8,0.293,-0.734,89.38,3.0,,0.0,0.0,133.41
2025-08-15T01:22:48.414Z,13,GR86-062-012,-32.800000000000004,0.316,-0.8140000000000001,97.31,3.0,,0.0,0.0,
2025-08-15T01:22:48.458Z,13,GR86-062-012,-38.2,0.149,-0.8280000000000001,88.29,3.0,,0.0,0.0,
2025-08-15T01:22:48.501Z,13,GR86-062-012,-40.5,0.081,-0.919,66.57000000000001,3.0,,0.0,0.0,
2025-08-15T01:22:48.545Z,13,GR86-062-012,-41.1,0.13,-0.954,39.68,3.0,5998.0,0.0,0.0,
2025-08-15T01:22:48.588Z,13,GR86-062-012,-41.7,0.182,-1.03,34.94,3.0,,0.0,0.0,131.31
2025-08-15T01:22:48.631Z,13,GR86-062-012,-41.7,0.175,-1.05,35.07,3.0,,0.0,0.0,
2025-08-15T01:22:48.674Z,13,GR86-062-012,-43.400000000000006,0.074,-1.067,34.94,3.0,,0.0,0.0,
2025-08-15T01:22:48.717Z,13,GR86-062-012,-46.2,0.045,-1.104,33.52,3.0,,0.0,0.0,
2025-08-15T01:22:48.760Z,13,GR86-062-012,-48.400000000000006,0.047,-1.127,30.22,3.0,6071.0,0.0,0.0,
2025-08-15T01:22:48.804Z,13,GR86-062-012,-48.5,0.074,-1.138,19.74,3.0,,0.0,0.0,130.42000000000002
2025-08-15T01:22:48.846Z,13,GR86-062-012,-46.5,0.077,-1.155,19.5,3.0,,0.0,0.0,
2025-08-15T01:22:48.889Z,13,GR86-062-012,-44.2,0.03,-1.192,23.27,3.0,,0.0,0.0,
2025-08-15T01:22:48.934Z,13,GR86-062-012,-43.6,-0.037,-1.207,21.39,3.0,,0.0,0.0,
2025-08-15T01:22:48.979Z,13,GR86-062-012,-43.6,-0.071,-1.22,22.42,3.0,6162.0,0.0,0.0,
2025-08-15T01:22:49.027Z,13,GR86-062-012,-43.6,-0.033,-1.191,22.14,3.0,,0.0,0.0,131.21
2025-08-15T01:22:49.069Z,13,GR86-062-012,-43.8,0.004,-1.227,20.31,3.0,,0.0,0.0,
2025-08-15T01:22:49.113Z,13,GR86-062-012,-46.3,0.006,-1.201,18.63,3.0,,0.0,0.0,
2025-08-15T01:22:49.156Z,13,GR86-062-012,-48.400000000000006,-0.009,-1.191,10.79,3.0,,0.0,0.0,
2025-08-15T01:22:49.199Z,13,GR86-062-012,-50.7,-0.058,-1.228,6.5,3.0,6227.0,0.0,0.0,
2025-08-15T01:22:49.285Z,13,GR86-062-012,-55.400000000000006,-0.09,-1.305,5.62,3.0,,0.0,0.0,133.51
2025-08-15T01:22:49.328Z,13,GR86-062-012,-56.0,-0.113,-1.263,5.69,3.0,,0.0,0.0,
2025-08-15T01:22:49.371Z,13,GR86-062-012,-56.5,-0.158,-1.308,6.87,3.0,,0.0,0.0,
2025-08-15T01:22:49.414Z,13,GR86-062-012,-57.0,-0.275,-1.293,20.29,3.0,6205.0,0.0,0.0,
2025-08-15T01:22:49.458Z,13,GR86-062-012,-57.2,-0.244,-1.25,29.85,3.0,,0.0,0.0,133.13
2025-08-15T01:22:49.500Z,13,GR86-062-012,-57.3,-0.152,-1.301,29.98,3.0,,0.0,0.0,
2025-08-15T01:22:49.544Z,13,GR86-062-012,-57.3,-0.156,-1.339,30.92,3.0,,0.0,0.0,
2025-08-15T01:22:49.586Z,13,GR86-062-012,-56.5,-0.135,-1.284,34.47,3.0,,0.0,0.0,
2025-08-15T01:22:49.629Z,13,GR86-062-012,-51.900000000000006,-0.007,-1.319,39.29,3.0,6135.0,0.0,0.0,
2025-08-15T01:22:49.673Z,13,GR86-062-012,-37.3,0.095,-1.289,88.16,3.0,,0.0,0.0,132.31
2025-08-15T01:22:49.715Z,13,GR86-062-012,-28.6,0.135,-1.273,99.54,3.0,,0.0,0.0,
2025-08-15T01:22:49.758Z,13,GR86-062-012,-26.3,0.159,-1.262,99.8,3.0,,0.0,0.0,
2025-08-15T01:22:49.801Z,13,GR86-062-012,-30.0,0.158,-1.351,99.84,3.0,,0.0,0.0,
2025-08-15T01:22:49.845Z,13,GR86-062-012,-38.3,0.199,-1.213,99.81,3.0,6295.0,0.0,0.0,
2025-08-15T01:22:49.888Z,13,GR86-062-012,-47.900000000000006,0.181,-1.324,88.95,3.0,,0.0,0.0,131.19
2025-08-15T01:22:49.931Z,13,GR86-062-012,-55.400000000000006,0.141,-1.193,58.02,3.0,,0.0,0.0,
2025-08-15T01:22:49.974Z,13,GR86-062-012,-59.8,0.14,-1.237,58.18,3.0,,0.0,0.0,
2025-08-15T01:22:50.017Z,13,GR86-062-012,-59.8,0.157,-1.321,51.75,3.0,,0.0,0.0,
2025-08-15T01:22:50.060Z,13,GR86-062-012,-58.3,0.18,-1.335,45.2,3.0,6222.0,0.0,0.0,
2025-08-15T01:22:50.104Z,13,GR86-062-012,-57.3,0.173,-1.247,51.89,3.0,,0.0,0.0,130.44
2025-08-15T01:22:50.146Z,13,GR86-062-012,-56.1,0.116,-1.241,53.23,3.0,,0.0,0.0,
2025-08-15T01:22:50.189Z,13,GR86-062-012,-55.1,0.107,-1.226,51.39,3.0,,0.0,0.0,
2025-08-15T01:22:50.234Z,13,GR86-062-012,-55.0,0.137,-1.279,71.85000000000001,3.0,,0.0,0.0,
2025-08-15T01:22:50.277Z,13,GR86-062-012,-57.3,0.137,-1.323,75.0,3.0,6275.0,0.0,0.0,
2025-08-15T01:22:50.320Z,13,GR86-062-012,-59.3,0.157,-1.217,72.55,3.0,,0.0,0.0,130.21
2025-08-15T01:22:50.364Z,13,GR86-062-012,-61.0,0.143,-1.283,71.32000000000001,3.0,,0.0,0.0,
2025-08-15T01:22:50.406Z,13,GR86-062-012,-62.400000000000006,0.152,-1.292,65.35,3.0,,0.0,0.0,
2025-08-15T01:22:50.449Z,13,GR86-062-012,-62.5,0.168,-1.283,53.68,3.0,,0.0,0.0,
2025-08-15T01:22:50.493Z,13,GR86-062-012,-62.5,0.131,-1.225,50.0,3.0,6224.0,0.0,0.0,
2025-08-15T01:22:50.535Z,13,GR86-062-012,-62.6,0.137,-1.233,46.48,3.0,,0.0,0.0,130.47
2025-08-15T01:22:50.578Z,13,GR86-062-012,-62.900000000000006,0.136,-1.199,41.41,3.0,,0.0,0.0,
2025-08-15T01:22:50.621Z,13,GR86-062-012,-62.900000000000006,0.089,-1.253,43.46,3.0,,0.0,0.0,
2025-08-15T01:22:50.664Z,13,GR86-062-012,-62.900000000000006,0.106,-1.273,43.83,3.0,,0.0,0.0,
2025-08-15T01:22:50.707Z,13,GR86-062-012,-62.900000000000006,0.094,-1.301,42.28,3.0,6241.0,0.0,0.0,
2025-08-15T01:22:50.750Z,13,GR86-062-012,-62.900000000000006,0.086,-1.309,39.59,3.0,,0.0,0.0,131.28
2025-08-15T01:22:50.794Z,13,GR86-062-012,-62.900000000000006,0.093,-1.307,39.37,3.0,,0.0,0.0,
2025-08-15T01:22:50.837Z,13,GR86-062-012,-62.900000000000006,0.076,-1.307,39.36,3.0,,0.0,0.0,
2025-08-15T01:22:50.880Z,13,GR86-062-012,-62.900000000000006,0.088,-1.276,39.46,3.0,,0.0,0.0,
2025-08-15T01:22:50.924Z,13,GR86-062-012,-62.900000000000006,0.111,-1.222,40.79,3.0,6240.0,0.0,0.0,
2025-08-15T01:22:50.966Z,13,GR86-062-012,-62.7,0.092,-1.225,41.24,3.0,,0.0,0.0,132.11
2025-08-15T01:22:51.009Z,13,GR86-062-012,-62.5,0.059,-1.21,41.58,3.0,,0.0,0.0,
2025-08-15T01:22:51.053Z,13,GR86-062-012,-62.400000000000006,0.089,-1.296,43.86,3.0,,0.0,0.0,
2025-08-15T01:22:51.095Z,13,GR86-062-012,-62.3,0.092,-1.342,43.82,3.0,,0.0,0.0,
2025-08-15T01:22:51.138Z,13,GR86-062-012,-62.0,0.1,-1.29,43.37,3.0,6261.0,0.0,0.0,
2025-08-15T01:22:51.181Z,13,GR86-062-012,-61.0,0.101,-1.309,44.82,3.0,,0.0,0.0,132.7
2025-08-15T01:22:51.225Z,13,GR86-062-012,-58.1,0.096,-1.317,47.12,3.0,,0.0,0.0,
2025-08-15T01:22:51.268Z,13,GR86-062-012,-51.8,0.075,-1.322,48.15,3.0,,0.0,0.0,
2025-08-15T01:22:51.311Z,13,GR86-062-012,-44.0,0.102,-1.354,58.24,3.0,,0.0,0.0,
2025-08-15T01:22:51.354Z,13,GR86-062-012,-39.3,0.138,-1.32,97.28,3.0,6291.0,0.0,0.0,
2025-08-15T01:22:51.397Z,13,GR86-062-012,-39.5,0.186,-1.281,99.41,3.0,,0.0,0.0,132.65
2025-08-15T01:22:51.440Z,13,GR86-062-012,-41.6,0.181,-1.252,99.8,3.0,,0.0,0.0,
2025-08-15T01:22:51.484Z,13,GR86-062-012,-42.8,0.172,-1.235,99.8,3.0,,0.0,0.0,
2025-08-15T01:22:51.527Z,13,GR86-062-012,-43.0,0.158,-1.254,99.8,3.0,,0.0,0.0,
2025-08-15T01:22:51.570Z,13,GR86-062-012,-42.8,0.174,-1.234,99.8,3.0,6286.0,0.0,0.0,
2025-08-15T01:22:51.614Z,13,GR86-062-012,-38.900000000000006,0.185,-1.149,99.8,3.0,,0.0,0.0,132.93
2025-08-15T01:22:51.658Z,13,GR86-062-012,-36.8,0.204,-1.14,99.81,3.0,,0.0,0.0,
2025-08-15T01:22:51.700Z,13,GR86-062-012,-34.6,0.179,-1.1,99.8,3.0,,0.0,0.0,
2025-08-15T01:22:51.744Z,13,GR86-062-012,-33.6,0.183,-0.921,99.8,3.0,,0.0,0.0,
2025-08-15T01:22:51.786Z,13,GR86-062-012,-33.2,0.185,-0.913,99.8,3.0,6322.0,0.0,0.0,
2025-08-15T01:22:51.829Z,13,GR86-062-012,-34.4,0.187,-0.7020000000000001,99.79,3.0,,0.0,0.0,133.6
2025-08-15T01:22:51.875Z,13,GR86-062-012,-36.6,0.175,-0.837,99.0,3.0,,0.0,0.0,
2025-08-15T01:22:51.918Z,13,GR86-062-012,-37.8,0.207,-0.841,99.75,3.0,,0.0,0.0,
2025-08-15T01:22:51.961Z,13,GR86-062-012,-37.5,0.19,-0.656,99.78,3.0,,0.0,0.0,
2025-08-15T01:22:52.004Z,13,GR86-062-012,-36.2,0.076,-0.725,99.74,3.0,6341.0,0.0,0.0,
2025-08-15T01:22:52.047Z,13,GR86-062-012,-34.4,-0.012,-0.864,99.77,3.0,,0.0,0.0,134.15
2025-08-15T01:22:52.090Z,13,GR86-062-012,-32.7,0.179,-0.974,99.79,3.0,,0.0,0.0,
2025-08-15T01:22:52.134Z,13,GR86-062-012,-31.6,-0.022,-0.86,99.8,3.0,,0.0,0.0,
2025-08-15T01:22:52.177Z,13,GR86-062-012,-30.4,0.051,-1.042,99.78,3.0,,0.0,0.0,
2025-08-15T01:22:52.220Z,13,GR86-062-012,-26.6,0.253,-1.23,99.77,3.0,6375.0,0.0,0.0,
2025-08-15T01:22:52.264Z,13,GR86-062-012,-19.8,0.289,-1.242,99.79,3.0,,0.0,0.0,135.26
2025-08-15T01:22:52.306Z,13,GR86-062-012,-12.6,0.13,-1.288,99.79,3.0,,0.0,0.0,
2025-08-15T01:22:52.349Z,13,GR86-062-012,-5.300000000000001,0.106,-1.386,99.79,3.0,,0.0,0.0,
2025-08-15T01:22:52.393Z,13,GR86-062-012,0.8,0.189,-1.178,99.78,3.0,,0.0,0.0,
2025-08-15T01:22:52.435Z,13,GR86-062-012,0.6000000000000001,0.129,-0.981,99.78,3.0,6583.0,0.0,0.0,
2025-08-15T01:22:52.478Z,13,GR86-062-012,-2.4000000000000004,0.079,-0.965,99.79,3.0,,0.0,0.0,136.51
2025-08-15T01:22:52.521Z,13,GR86-062-012,-3.8,0.209,-0.844,99.79,3.0,,0.0,0.0,
2025-08-15T01:22:52.564Z,13,GR86-062-012,-3.7,0.193,-0.851,99.79,3.0,,0.0,0.0,
2025-08-15T01:22:52.607Z,13,GR86-062-012,-0.6000000000000001,0.146,-0.911,99.77,3.0,,0.0,0.0,
2025-08-15T01:22:52.650Z,13,GR86-062-012,5.1000000000000005,0.11,-1.139,99.78,3.0,6538.0,0.0,0.0,
2025-08-15T01:22:52.694Z,13,GR86-062-012,9.1,0.218,-1.106,99.78,3.0,,0.0,0.0,138.35
2025-08-15T01:22:52.737Z,13,GR86-062-012,10.8,0.216,-1.087,99.78,3.0,,0.0,0.0,
2025-08-15T01:22:52.780Z,13,GR86-062-012,11.6,0.285,-0.991,99.79,3.0,,0.0,0.0,
2025-08-15T01:22:52.824Z,13,GR86-062-012,12.1,0.292,-1.005,99.79,3.0,,0.0,0.0,
2025-08-15T01:22:52.866Z,13,GR86-062-012,11.3,0.202,-0.643,99.8,3.0,6788.0,0.0,0.0,
2025-08-15T01:22:52.909Z,13,GR86-062-012,7.9,0.114,-0.611,99.78,3.0,,0.0,0.0,137.39
2025-08-15T01:22:52.953Z,13,GR86-062-012,-2.0,0.158,-0.36,99.8,3.0,,0.0,0.0,
2025-08-15T01:22:52.995Z,13,GR86-062-012,-7.7,0.25,-0.318,99.79,3.0,,0.0,0.0,
2025-08-15T01:22:53.038Z,13,GR86-062-012,-10.2,0.231,-0.237,99.79,3.0,,0.0,0.0,
2025-08-15T01:22:53.081Z,13,GR86-062-012,-10.3,0.163,-0.165,99.79,3.0,6582.0,0.0,0.0,
2025-08-15T01:22:53.124Z,13,GR86-062-012,-8.6,0.127,-0.19,99.79,3.0,,0.0,0.0,138.78
2025-08-15T01:22:53.167Z,13,GR86-062-012,-5.4,0.227,-0.165,99.77,3.0,,0.0,0.0,
2025-08-15T01:22:53.210Z,13,GR86-062-012,-2.7,0.196,-0.166,99.79,3.0,,0.0,0.0,
2025-08-15T01:22:53.254Z,13,GR86-062-012,-0.2,0.221,-0.263,99.78,3.0,,0.0,0.0,
2025-08-15T01:22:53.297Z,13,GR86-062-012,1.2000000000000002,0.151,-0.214,99.78,3.0,6662.0,0.0,0.0,
2025-08-15T01:22:53.340Z,13,GR86-062-012,2.6,0.244,-0.156,86.48,3.0,,0.0,0.0,139.66
2025-08-15T01:22:53.384Z,13,GR86-062-012,5.1000000000000005,0.23,-0.102,99.59,3.0,,0.0,0.0,
2025-08-15T01:22:53.427Z,13,GR86-062-012,8.1,0.083,-0.151,99.77,3.0,,0.0,0.0,
2025-08-15T01:22:53.470Z,13,GR86-062-012,10.2,0.094,-0.078,99.79,3.0,,0.0,0.0,
2025-08-15T01:22:53.514Z,13,GR86-062-012,11.2,0.366,-0.156,99.78,3.0,6665.0,0.0,0.0,
2025-08-15T01:22:53.557Z,13,GR86-062-012,12.1,0.311,-0.006,99.75,3.0,,0.0,0.0,141.47
2025-08-15T01:22:53.600Z,13,GR86-062-012,13.2,0.188,0.069,99.77,3.0,,0.0,0.0,
2025-08-15T01:22:53.644Z,13,GR86-062-012,13.6,0.126,0.052,99.76,3.0,,0.0,0.0,
2025-08-15T01:22:53.686Z,13,GR86-062-012,13.3,0.262,0.116,99.79,3.0,,0.0,0.0,
2025-08-15T01:22:53.729Z,13,GR86-062-012,10.3,0.293,0.166,99.78,3.0,6832.0,0.0,0.0,
2025-08-15T01:22:53.773Z,13,GR86-062-012,5.9,0.232,0.293,99.79,3.0,,0.0,0.0,142.5
2025-08-15T01:22:53.817Z,13,GR86-062-012,4.2,0.151,0.217,99.8,3.0,,0.0,0.0,
2025-08-15T01:22:53.860Z,13,GR86-062-012,3.5,0.132,0.349,99.8,3.0,,0.0,0.0,
2025-08-15T01:22:53.904Z,13,GR86-062-012,3.3000000000000003,0.282,0.333,99.78,3.0,,0.0,0.0,
2025-08-15T01:22:53.946Z,13,GR86-062-012,3.0,0.222,0.273,99.77,3.0,6920.0,0.0,0.0,
2025-08-15T01:22:53.989Z,13,GR86-062-012,2.3000000000000003,0.121,0.303,99.79,3.0,,0.0,0.0,143.76
2025-08-15T01:22:54.034Z,13,GR86-062-012,1.8,0.235,0.338,99.8,3.0,,0.0,0.0,
2025-08-15T01:22:54.078Z,13,GR86-062-012,1.7000000000000002,0.264,0.232,99.8,3.0,,0.0,0.0,
2025-08-15T01:22:54.121Z,13,GR86-062-012,1.7000000000000002,0.21,0.318,99.8,3.0,,0.0,0.0,
2025-08-15T01:22:54.165Z,13,GR86-062-012,1.7000000000000002,0.286,0.237,99.79,3.0,6861.0,0.0,0.0,
2025-08-15T01:22:54.208Z,13,GR86-062-012,1.7000000000000002,0.199,0.204,99.79,3.0,,0.0,0.0,145.64
2025-08-15T01:22:54.251Z,13,GR86-062-012,1.7000000000000002,0.196,0.199,99.8,3.0,,0.0,0.0,
2025-08-15T01:22:54.294Z,13,GR86-062-012,1.7000000000000002,0.159,0.128,99.79,3.0,,0.0,0.0,
2025-08-15T01:22:54.337Z,13,GR86-062-012,1.7000000000000002,0.215,0.102,99.79,3.0,,0.0,0.0,
2025-08-15T01:22:54.380Z,13,GR86-062-012,1.8,0.234,0.102,99.83,3.0,6983.0,0.0,0.0,
2025-08-15T01:22:54.426Z,13,GR86-062-012,1.9,0.222,0.046,99.8,3.0,,0.0,0.0,146.81
2025-08-15T01:22:54.469Z,13,GR86-062-012,2.0,0.224,0.062,99.8,3.0,,0.0,0.0,
2025-08-15T01:22:54.513Z,13,GR86-062-012,2.0,0.23,0.029,99.79,3.0,,0.0,0.0,
2025-08-15T01:22:54.556Z,13,GR86-062-012,2.1,0.206,0.045,99.8,3.0,,0.0,0.0,
2025-08-15T01:22:54.600Z,13,GR86-062-012,2.1,0.196,0.047,99.81,3.0,6950.0,0.0,0.0,
2025-08-15T01:22:54.644Z,13,GR86-062-012,2.1,0.194,0.058,99.81,3.0,,0.0,0.0,149.9
2025-08-15T01:22:54.686Z,13,GR86-062-012,2.2,0.207,0.054,99.79,3.0,,0.0,0.0,
2025-08-15T01:22:54.729Z,13,GR86-062-012,2.3000000000000003,0.207,0.049,99.79,3.0,,0.0,0.0,
2025-08-15T01:22:54.773Z,13,GR86-062-012,2.3000000000000003,0.175,0.053,99.8,3.0,,0.0,0.0,
2025-08-15T01:22:54.815Z,13,GR86-062-012,2.1,0.179,0.045,99.79,3.0,7042.0,0.0,0.0,
2025-08-15T01:22:54.859Z,13,GR86-062-012,1.9,0.181,0.034,99.81,3.0,,0.0,0.0,151.4
2025-08-15T01:22:54.903Z,13,GR86-062-012,1.7000000000000002,0.2,0.016,99.81,3.0,,0.0,0.0,
2025-08-15T01:22:54.945Z,13,GR86-062-012,1.5,0.207,0.012,99.83,3.0,,0.0,0.0,
2025-08-15T01:22:54.988Z,13,GR86-062-012,1.4,0.189,0.014,99.8,3.0,,0.0,0.0,
2025-08-15T01:22:55.031Z,13,GR86-062-012,1.3,0.183,0.017,99.8,3.0,7122.0,0.0,0.0,
2025-08-15T01:22:55.074Z,13,GR86-062-012,1.0,0.19,0.002,99.8,3.0,,0.0,0.0,152.92000000000002
2025-08-15T01:22:55.117Z,13,GR86-062-012,0.9,0.179,0.008,99.8,3.0,,0.0,0.0,
2025-08-15T01:22:55.160Z,13,GR86-062-012,0.9,0.169,-0.003,99.82,3.0,,0.0,0.0,
2025-08-15T01:22:55.204Z,13,GR86-062-012,0.9,0.155,0.005,99.82,3.0,,0.0,0.0,
2025-08-15T01:22:55.246Z,13,GR86-062-012,0.8,0.132,-0.021,99.81,3.0,7248.0,0.0,0.0,
2025-08-15T01:22:55.289Z,13,GR86-062-012,0.8,0.106,-0.03,99.84,3.0,,0.0,0.0,154.39
2025-08-15T01:22:55.334Z,13,GR86-062-012,0.9,0.049,-0.03,99.79,4.0,,0.0,0.0,
2025-08-15T01:22:55.377Z,13,GR86-062-012,1.2000000000000002,-0.048,-0.003,99.81,4.0,,0.0,0.0,
2025-08-15T01:22:55.420Z,13,GR86-062-012,1.5,0.414,-0.02,99.83,4.0,,0.0,0.0,
2025-08-15T01:22:55.464Z,13,GR86-062-012,1.5,0.318,-0.132,99.83,4.0,7285.0,0.0,0.0,
2025-08-15T01:22:55.506Z,13,GR86-062-012,1.3,0.247,0.029,99.81,4.0,,0.0,0.0,155.86
2025-08-15T01:22:55.549Z,13,GR86-062-012,1.4,0.122,-0.042,99.79,4.0,,0.0,0.0,
2025-08-15T01:22:55.593Z,13,GR86-062-012,2.1,0.127,0.012,99.81,4.0,,0.0,0.0,
2025-08-15T01:22:55.635Z,13,GR86-062-012,2.0,0.224,0.003,99.81,4.0,,0.0,0.0,
2025-08-15T01:22:55.678Z,13,GR86-062-012,0.9,0.205,-0.035,99.8,4.0,6641.0,0.0,0.0,
2025-08-15T01:22:55.721Z,13,GR86-062-012,-0.3,0.128,0.037,99.8,4.0,,0.0,0.0,157.20000000000002
2025-08-15T01:22:55.764Z,13,GR86-062-012,-0.6000000000000001,0.139,-0.017,99.81,4.0,,0.0,0.0,
2025-08-15T01:22:55.807Z,13,GR86-062-012,-0.3,0.172,-0.002,99.83,4.0,,0.0,0.0,
2025-08-15T01:22:55.850Z,13,GR86-062-012,0.2,0.183,-0.007,99.83,4.0,,0.0,0.0,
2025-08-15T01:22:55.894Z,13,GR86-062-012,0.2,0.143,-0.03,99.8,4.0,6323.0,0.0,0.0,
2025-08-15T01:22:55.937Z,13,GR86-062-012,-0.3,0.141,-0.055,99.82,4.0,,0.0,0.0,158.9
2025-08-15T01:22:55.980Z,13,GR86-062-012,-0.5,0.166,-0.029,99.8,4.0,,0.0,0.0,
2025-08-15T01:22:56.024Z,13,GR86-062-012,-0.7000000000000001,0.173,-0.035,99.8,4.0,,0.0,0.0,
2025-08-15T01:22:56.066Z,13,GR86-062-012,-0.8,0.15,-0.05,99.82,4.0,,0.0,0.0,
2025-08-15T01:22:56.109Z,13,GR86-062-012,-0.8,0.156,-0.073,99.81,4.0,6339.0,0.0,0.0,
2025-08-15T01:22:56.153Z,13,GR86-062-012,-0.8,0.168,-0.08,99.81,4.0,,0.0,0.0,160.47
2025-08-15T01:22:56.195Z,13,GR86-062-012,-0.8,0.158,-0.065,99.8,4.0,,0.0,0.0,
2025-08-15T01:22:56.238Z,13,GR86-062-012,-0.7000000000000001,0.179,-0.077,99.81,4.0,,0.0,0.0,
2025-08-15T01:22:56.281Z,13,GR86-062-012,-0.5,0.165,-0.067,99.8,4.0,,0.0,0.0,
2025-08-15T01:22:56.325Z,13,GR86-062-012,-0.4,0.18,-0.088,99.81,4.0,6376.0,0.0,0.0,
2025-08-15T01:22:56.368Z,13,GR86-062-012,-0.3,0.174,-0.071,99.79,4.0,,0.0,0.0,161.98
2025-08-15T01:22:56.411Z,13,GR86-062-012,-0.6000000000000001,0.156,-0.068,99.83,4.0,,0.0,0.0,
2025-08-15T01:22:56.454Z,13,GR86-062-012,-1.2000000000000002,0.165,-0.065,99.79,4.0,,0.0,0.0,
2025-08-15T01:22:56.497Z,13,GR86-062-012,-1.5,0.18,-0.081,99.8,4.0,,0.0,0.0,
2025-08-15T01:22:56.540Z,13,GR86-062-012,-1.5,0.169,-0.095,99.8,4.0,6437.0,0.0,0.0,
2025-08-15T01:22:56.585Z,13,GR86-062-012,-1.5,0.153,-0.103,99.8,4.0,,0.0,0.0,163.46
2025-08-15T01:22:56.628Z,13,GR86-062-012,-1.4,0.162,-0.12,99.8,4.0,,0.0,0.0,
2025-08-15T01:22:56.671Z,13,GR86-062-012,-1.2000000000000002,0.147,-0.121,99.8,4.0,,0.0,0.0,
2025-08-15T01:22:56.714Z,13,GR86-062-012,-1.1,0.158,-0.116,99.8,4.0,,0.0,0.0,
2025-08-15T01:22:56.758Z,13,GR86-062-012,-1.1,0.17,-0.116,99.81,4.0,6502.0,0.0,0.0,
2025-08-15T01:22:56.800Z,13,GR86-062-012,-1.1,0.175,-0.117,99.81,4.0,,0.0,0.0,164.96
2025-08-15T01:22:56.844Z,13,GR86-062-012,-1.0,0.156,-0.102,99.81,4.0,,0.0,0.0,
2025-08-15T01:22:56.886Z,13,GR86-062-012,-1.0,0.151,-0.09,99.79,4.0,,0.0,0.0,
2025-08-15T01:22:56.929Z,13,GR86-062-012,-1.0,0.144,-0.091,99.8,4.0,,0.0,0.0,
2025-08-15T01:22:56.975Z,13,GR86-062-012,-1.1,0.157,-0.078,99.82,4.0,6561.0,0.0,0.0,
2025-08-15T01:22:57.019Z,13,GR86-062-012,-1.5,0.164,-0.081,99.81,4.0,,0.0,0.0,166.56
2025-08-15T01:22:57.061Z,13,GR86-062-012,-2.2,0.155,-0.091,99.8,4.0,,0.0,0.0,
2025-08-15T01:22:57.104Z,13,GR86-062-012,-2.6,0.168,-0.103,99.8,4.0,,0.0,0.0,
2025-08-15T01:22:57.147Z,13,GR86-062-012,-2.8000000000000003,0.163,-0.134,99.8,4.0,,0.0,0.0,
2025-08-15T01:22:57.190Z,13,GR86-062-012,-3.0,0.152,-0.149,99.8,4.0,6609.0,0.0,0.0,
2025-08-15T01:22:57.234Z,13,GR86-062-012,-3.2,0.148,-0.142,99.81,4.0,,0.0,0.0,169.4
2025-08-15T01:22:57.277Z,13,GR86-062-012,-3.3000000000000003,0.155,-0.151,99.8,4.0,,0.0,0.0,
2025-08-15T01:22:57.320Z,13,GR86-062-012,-3.5,0.15,-0.154,99.8,4.0,,0.0,0.0,
2025-08-15T01:22:57.364Z,13,GR86-062-012,-3.9,0.153,-0.172,99.8,4.0,,0.0,0.0,
2025-08-15T01:22:57.406Z,13,GR86-062-012,-4.4,0.157,-0.207,99.82,4.0,6661.0,0.0,0.0,
2025-08-15T01:22:57.449Z,13,GR86-062-012,-4.9,0.166,-0.235,99.8,4.0,,0.0,0.0,170.64
2025-08-15T01:22:57.493Z,13,GR86-062-012,-5.800000000000001,0.125,-0.254,99.79,4.0,,0.0,0.0,
2025-08-15T01:22:57.535Z,13,GR86-062-012,-6.800000000000001,0.121,-0.265,99.79,4.0,,0.0,0.0,
2025-08-15T01:22:57.578Z,13,GR86-062-012,-7.7,0.137,-0.295,99.81,4.0,,0.0,0.0,
2025-08-15T01:22:57.621Z,13,GR86-062-012,-8.5,0.143,-0.31,99.8,4.0,6719.0,0.0,0.0,
2025-08-15T01:22:57.665Z,13,GR86-062-012,-8.9,0.141,-0.333,99.82,4.0,,0.0,0.0,171.84
2025-08-15T01:22:57.707Z,13,GR86-062-012,-9.0,0.143,-0.364,99.8,4.0,,0.0,0.0,
2025-08-15T01:22:57.750Z,13,GR86-062-012,-8.9,0.147,-0.388,99.81,4.0,,0.0,0.0,
2025-08-15T01:22:57.794Z,13,GR86-062-012,-8.6,0.123,-0.4,99.8,4.0,,0.0,0.0,
2025-08-15T01:22:57.837Z,13,GR86-062-012,-8.6,0.113,-0.412,72.95,4.0,6820.0,0.0,0.0,
2025-08-15T01:22:57.880Z,13,GR86-062-012,-8.6,0.112,-0.413,45.73,4.0,,0.0,0.0,173.21
2025-08-15T01:22:57.924Z,13,GR86-062-012,-8.6,0.124,-0.432,28.43,4.0,,0.0,0.0,
2025-08-15T01:22:57.967Z,13,GR86-062-012,-8.5,0.099,-0.429,5.8500000000000005,4.0,,0.0,0.0,
2025-08-15T01:22:58.010Z,13,GR86-062-012,-7.5,0.033,-0.452,5.46,4.0,,0.0,0.0,
2025-08-15T01:22:58.054Z,13,GR86-062-012,-3.3000000000000003,-0.082,-0.401,5.01,4.0,6874.0,0.0,0.0,
2025-08-15T01:22:58.097Z,13,GR86-062-012,0.2,-0.405,-0.373,4.37,4.0,,0.0,0.0,174.45000000000002
2025-08-15T01:22:58.140Z,13,GR86-062-012,2.4000000000000004,-0.23,-0.292,3.92,4.0,,0.0,0.0,
2025-08-15T01:22:58.184Z,13,GR86-062-012,2.7,-0.045,-0.218,3.73,4.0,,0.0,0.0,
2025-08-15T01:22:58.227Z,13,GR86-062-012,2.1,-0.106,-0.197,3.5700000000000003,4.0,,0.0,0.0,
2025-08-15T01:22:58.270Z,13,GR86-062-012,0.2,-0.191,-0.114,3.3200000000000003,4.0,6634.0,2.245,2.485,
2025-08-15T01:22:58.314Z,13,GR86-062-012,-1.9,-0.186,-0.093,2.85,4.0,,8.040000000000001,7.92,175.6
2025-08-15T01:22:58.357Z,13,GR86-062-012,-2.2,-0.152,-0.05,2.61,4.0,,11.065,11.065,
2025-08-15T01:22:58.400Z,13,GR86-062-012,-2.4000000000000004,-0.249,-0.045,2.46,4.0,,14.725,14.51,
2025-08-15T01:22:58.444Z,13,GR86-062-012,-2.9000000000000004,-0.353,-0.051,2.38,4.0,,18.71,18.36,
2025-08-15T01:22:58.486Z,13,GR86-062-012,-3.2,-0.433,-0.067,2.34,4.0,6738.0,23.53,23.27,
2025-08-15T01:22:58.529Z,13,GR86-062-012,-3.3000000000000003,-0.499,-0.113,2.32,4.0,,29.3,29.055,175.70000000000002
2025-08-15T01:22:58.574Z,13,GR86-062-012,-3.3000000000000003,-0.638,-0.149,2.32,4.0,,37.95,37.645,
2025-08-15T01:22:58.617Z,13,GR86-062-012,-3.3000000000000003,-0.725,-0.18,2.33,4.0,,43.52,43.23,
2025-08-15T01:22:58.660Z,13,GR86-062-012,-3.3000000000000003,-0.793,-0.198,2.32,4.0,,49.96,49.58,
2025-08-15T01:22:58.704Z,13,GR86-062-012,-3.3000000000000003,-0.908,-0.217,2.35,4.0,6675.0,56.815,56.4,
2025-08-15T01:22:58.746Z,13,GR86-062-012,-3.2,-1.036,-0.241,2.35,4.0,,62.93,62.43,174.51
2025-08-15T01:22:58.789Z,13,GR86-062-012,-1.9,-1.099,-0.238,2.38,4.0,,65.925,65.65,
2025-08-15T01:22:58.836Z,13,GR86-062-012,1.8,-1.109,-0.214,26.22,4.0,,67.665,67.465,
2025-08-15T01:22:58.879Z,13,GR86-062-012,3.0,-1.15,-0.21,68.42,4.0,,67.665,67.785,
2025-08-15T01:22:58.926Z,13,GR86-062-012,3.1,-1.192,-0.192,57.72,3.0,6501.0,66.64,67.115,
2025-08-15T01:22:58.970Z,13,GR86-062-012,3.0,-1.304,-0.146,3.66,3.0,,65.895,66.93,171.23
2025-08-15T01:22:59.014Z,13,GR86-062-012,2.5,-1.345,-0.217,3.8,3.0,,66.885,69.02,
2025-08-15T01:22:59.058Z,13,GR86-062-012,2.5,-1.203,-0.303,3.65,3.0,,62.66,63.055,
2025-08-15T01:22:59.100Z,13,GR86-062-012,2.5,-1.194,-0.162,3.52,3.0,,62.305,63.925,
2025-08-15T01:22:59.144Z,13,GR86-062-012,2.6,-1.06,-0.341,3.35,3.0,6123.0,58.735,59.085,
2025-08-15T01:22:59.186Z,13,GR86-062-012,2.6,-1.052,-0.301,3.12,3.0,,50.875,51.9,165.05
2025-08-15T01:22:59.229Z,13,GR86-062-012,2.6,-1.098,-0.225,2.84,3.0,,45.965,47.870000000000005,
2025-08-15T01:22:59.315Z,13,GR86-062-012,2.7,-0.94,-0.301,2.49,3.0,,40.47,41.705,
2025-08-15T01:22:59.358Z,13,GR86-062-012,2.7,-0.863,-0.217,24.48,3.0,6295.0,38.865,39.46,
2025-08-15T01:22:59.401Z,13,GR86-062-012,2.1,-0.848,-0.204,66.43,3.0,,39.72,40.21,157.32
2025-08-15T01:22:59.445Z,13,GR86-062-012,0.4,-0.889,-0.152,70.09,2.0,,40.33,40.865,
2025-08-15T01:22:59.488Z,13,GR86-062-012,-2.3000000000000003,-1.115,-0.122,6.28,2.0,,42.425,43.46,
2025-08-15T01:22:59.531Z,13,GR86-062-012,-5.1000000000000005,-0.913,-0.079,3.67,2.0,,46.835,48.33,
2025-08-15T01:22:59.574Z,13,GR86-062-012,-6.9,-1.069,-0.239,3.41,2.0,6570.0,47.705,48.59,
2025-08-15T01:22:59.617Z,13,GR86-062-012,-7.5,-1.048,-0.075,3.24,2.0,,48.39,49.61,148.69
2025-08-15T01:22:59.660Z,13,GR86-062-012,-7.300000000000001,-0.949,-0.289,3.1,2.0,,47.84,48.65,
2025-08-15T01:22:59.704Z,13,GR86-062-012,-6.9,-0.891,-0.298,2.93,2.0,,46.205,47.4,
2025-08-15T01:22:59.746Z,13,GR86-062-012,-6.9,-1.026,-0.192,2.72,2.0,,42.865,44.405,
2025-08-15T01:22:59.789Z,13,GR86-062-012,-7.1000000000000005,-0.902,-0.361,2.5500000000000003,2.0,6373.0,38.595,39.615,
2025-08-15T01:22:59.835Z,13,GR86-062-012,-7.7,-0.785,-0.334,2.42,2.0,,33.465,34.06,136.45
2025-08-15T01:22:59.878Z,13,GR86-062-012,-9.6,-0.752,-0.378,2.38,2.0,,32.685,33.25,
2025-08-15T01:22:59.921Z,13,GR86-062-012,-11.5,-0.751,-0.427,2.36,2.0,,32.335,33.19,
2025-08-15T01:22:59.964Z,13,GR86-062-012,-13.8,-0.8130000000000001,-0.395,2.35,2.0,,32.335,33.19,
2025-08-15T01:23:00.007Z,13,GR86-062-012,-17.6,-0.8140000000000001,-0.453,2.37,2.0,7268.0,31.985,32.84,
2025-08-15T01:23:00.050Z,13,GR86-062-012,-22.1,-0.795,-0.481,2.37,2.0,,32.105000000000004,33.13,129.59
2025-08-15T01:23:00.094Z,13,GR86-062-012,-26.0,-0.761,-0.549,2.37,2.0,,32.335,33.19,
2025-08-15T01:23:00.137Z,13,GR86-062-012,-26.3,-0.763,-0.606,2.38,2.0,,32.38,33.19,
2025-08-15T01:23:00.180Z,13,GR86-062-012,-26.3,-0.763,-0.653,2.38,2.0,,31.71,32.87,
2025-08-15T01:23:00.224Z,13,GR86-062-012,-26.3,-0.774,-0.673,2.39,2.0,7226.0,30.46,31.77,
2025-08-15T01:23:00.266Z,13,GR86-062-012,-26.6,-0.761,-0.754,2.41,2.0,,27.925,29.3,124.42
2025-08-15T01:23:00.309Z,13,GR86-062-012,-27.0,-0.6940000000000001,-0.761,2.41,2.0,,21.745,22.875,
2025-08-15T01:23:00.353Z,13,GR86-062-012,-29.3,-0.451,-0.874,2.45,2.0,,6.99,7.675,
2025-08-15T01:23:00.395Z,13,GR86-062-012,-31.5,-0.296,-0.947,2.46,2.0,,0.0,0.0,
2025-08-15T01:23:00.438Z,13,GR86-062-012,-34.2,-0.227,-0.973,2.45,2.0,6554.0,0.0,0.0,
2025-08-15T01:23:00.481Z,13,GR86-062-012,-37.5,-0.231,-0.975,2.45,2.0,,0.0,0.0,120.43
2025-08-15T01:23:00.525Z,13,GR86-062-012,-40.6,-0.166,-1.048,2.46,2.0,,0.0,0.0,
2025-08-15T01:23:00.568Z,13,GR86-062-012,-43.400000000000006,-0.137,-1.083,2.48,2.0,,0.0,0.0,
2025-08-15T01:23:00.611Z,13,GR86-062-012,-47.0,-0.19,-1.092,2.48,2.0,,0.0,0.0,
2025-08-15T01:23:00.654Z,13,GR86-062-012,-50.5,-0.203,-1.083,2.95,2.0,6393.0,0.0,0.0,
2025-08-15T01:23:00.697Z,13,GR86-062-012,-52.1,-0.19,-1.09,3.3000000000000003,2.0,,0.0,0.0,116.83
2025-08-15T01:23:00.740Z,13,GR86-062-012,-52.7,-0.205,-1.094,3.06,2.0,,0.0,0.0,
2025-08-15T01:23:00.784Z,13,GR86-062-012,-52.8,-0.194,-1.18,2.96,2.0,,0.0,0.0,
2025-08-15T01:23:00.828Z,13,GR86-062-012,-52.8,-0.169,-1.159,2.86,2.0,,0.0,0.0,
2025-08-15T01:23:00.871Z,13,GR86-062-012,-52.8,-0.22,-1.204,2.8000000000000003,2.0,6389.0,0.0,0.0,
2025-08-15T01:23:00.914Z,13,GR86-062-012,-52.8,-0.202,-1.247,2.71,2.0,,0.0,0.0,114.5
2025-08-15T01:23:00.958Z,13,GR86-062-012,-52.8,-0.189,-1.234,2.65,2.0,,0.0,0.0,
2025-08-15T01:23:01.000Z,13,GR86-062-012,-53.0,-0.211,-1.219,2.58,2.0,,0.0,0.0,
2025-08-15T01:23:01.044Z,13,GR86-062-012,-53.2,-0.198,-1.286,2.51,2.0,,0.0,0.0,
2025-08-15T01:23:01.086Z,13,GR86-062-012,-53.3,-0.188,-1.322,2.46,2.0,6322.0,0.0,0.0,
2025-08-15T01:23:01.129Z,13,GR86-062-012,-53.7,-0.199,-1.309,2.5500000000000003,2.0,,0.0,0.0,113.43
2025-08-15T01:23:01.177Z,13,GR86-062-012,-53.8,-0.205,-1.397,3.21,2.0,,0.0,0.0,
2025-08-15T01:23:01.219Z,13,GR86-062-012,-53.7,-0.181,-1.34,15.08,2.0,,0.0,0.0,
2025-08-15T01:23:01.263Z,13,GR86-062-012,-52.900000000000006,-0.207,-1.354,21.48,2.0,,0.0,0.0,
2025-08-15T01:23:01.306Z,13,GR86-062-012,-52.900000000000006,-0.208,-1.329,21.35,2.0,6231.0,0.0,0.0,
2025-08-15T01:23:01.349Z,13,GR86-062-012,-53.0,-0.155,-1.347,22.0,2.0,,0.0,0.0,112.93
2025-08-15T01:23:01.393Z,13,GR86-062-012,-56.5,-0.141,-1.304,19.61,2.0,,0.0,0.0,
2025-08-15T01:23:01.435Z,13,GR86-062-012,-59.400000000000006,-0.11,-1.313,10.05,2.0,,0.0,0.0,
2025-08-15T01:23:01.478Z,13,GR86-062-012,-63.5,-0.009,-1.299,15.79,2.0,,0.0,0.0,
2025-08-15T01:23:01.521Z,13,GR86-062-012,-67.8,0.074,-1.302,16.54,2.0,6135.0,0.0,0.0,
2025-08-15T01:23:01.564Z,13,GR86-062-012,-71.3,0.0,-1.29,15.29,2.0,,0.0,0.0,111.47
2025-08-15T01:23:01.607Z,13,GR86-062-012,-74.0,-0.084,-1.255,16.28,2.0,,0.0,0.0,
2025-08-15T01:23:01.650Z,13,GR86-062-012,-76.80000000000001,-0.11,-1.257,15.62,2.0,,0.0,0.0,
2025-08-15T01:23:01.694Z,13,GR86-062-012,-80.30000000000001,-0.082,-1.239,16.39,2.0,,0.0,0.0,
2025-08-15T01:23:01.737Z,13,GR86-062-012,-81.7,-0.104,-1.262,18.93,2.0,6298.0,0.0,0.0,
2025-08-15T01:23:01.780Z,13,GR86-062-012,-82.9,-0.096,-1.201,20.18,2.0,,0.0,0.0,109.88
2025-08-15T01:23:01.824Z,13,GR86-062-012,-84.60000000000001,-0.103,-1.212,22.85,2.0,,0.0,0.0,
2025-08-15T01:23:01.866Z,13,GR86-062-012,-86.7,-0.09,-1.193,28.08,2.0,,0.0,0.0,
2025-08-15T01:23:01.909Z,13,GR86-062-012,-89.5,-0.046,-1.202,30.16,2.0,,0.0,0.0,
2025-08-15T01:23:01.953Z,13,GR86-062-012,-93.5,0.0,-1.145,29.93,2.0,6092.0,0.0,0.0,
2025-08-15T01:23:01.995Z,13,GR86-062-012,-95.7,0.051,-1.18,31.51,2.0,,0.0,0.0,108.44
2025-08-15T01:23:02.038Z,13,GR86-062-012,-96.9,0.1,-1.173,31.58,2.0,,0.0,0.0,
2025-08-15T01:23:02.081Z,13,GR86-062-012,-97.3,0.102,-1.21,31.63,2.0,,0.0,0.0,
2025-08-15T01:23:02.125Z,13,GR86-062-012,-98.2,0.111,-1.179,31.68,2.0,,0.0,0.0,
2025-08-15T01:23:02.168Z,13,GR86-062-012,-99.7,0.083,-1.184,28.43,2.0,6087.0,0.0,0.0,
2025-08-15T01:23:02.211Z,13,GR86-062-012,-100.2,0.075,-1.198,19.2,2.0,,0.0,0.0,107.15
2025-08-15T01:23:02.254Z,13,GR86-062-012,-100.2,0.077,-1.217,20.11,2.0,,0.0,0.0,
2025-08-15T01:23:02.297Z,13,GR86-062-012,-100.3,0.015,-1.264,20.21,2.0,,0.0,0.0,
2025-08-15T01:23:02.340Z,13,GR86-062-012,-100.4,-0.05,-1.245,20.02,2.0,,0.0,0.0,
2025-08-15T01:23:02.384Z,13,GR86-062-012,-100.4,-0.09,-1.204,19.75,2.0,6208.0,0.0,0.0,
2025-08-15T01:23:02.427Z,13,GR86-062-012,-100.4,-0.106,-1.213,20.08,2.0,,0.0,0.0,106.14
2025-08-15T01:23:02.470Z,13,GR86-062-012,-100.4,-0.06,-1.16,21.3,2.0,,0.0,0.0,
2025-08-15T01:23:02.514Z,13,GR86-062-012,-100.4,-0.033,-1.141,23.88,2.0,,0.0,0.0,
2025-08-15T01:23:02.557Z,13,GR86-062-012,-100.4,-0.028,-1.139,25.98,2.0,,0.0,0.0,
2025-08-15T01:23:02.600Z,13,GR86-062-012,-100.4,-0.018,-1.175,27.24,2.0,6172.0,0.0,0.0,
2025-08-15T01:23:02.644Z,13,GR86-062-012,-100.4,-0.016,-1.178,27.2,2.0,,0.0,0.0,106.01
2025-08-15T01:23:02.686Z,13,GR86-062-012,-100.4,0.023,-1.229,28.96,2.0,,0.0,0.0,
2025-08-15T01:23:02.729Z,13,GR86-062-012,-100.4,0.079,-1.196,31.37,2.0,,0.0,0.0,
2025-08-15T01:23:02.773Z,13,GR86-062-012,-100.4,0.063,-1.182,31.51,2.0,,0.0,0.0,
2025-08-15T01:23:02.817Z,13,GR86-062-012,-100.4,0.058,-1.167,32.51,2.0,6103.0,0.0,0.0,
2025-08-15T01:23:02.860Z,13,GR86-062-012,-100.4,0.096,-1.169,33.480000000000004,2.0,,0.0,0.0,105.5
2025-08-15T01:23:02.904Z,13,GR86-062-012,-100.4,0.089,-1.249,33.49,2.0,,0.0,0.0,
2025-08-15T01:23:02.989Z,13,GR86-062-012,-100.4,0.096,-1.247,33.45,2.0,,0.0,0.0,
2025-08-15T01:23:03.035Z,13,GR86-062-012,-99.1,0.091,-1.225,33.43,2.0,6133.0,0.0,0.0,
2025-08-15T01:23:03.078Z,13,GR86-062-012,-98.2,0.094,-1.239,33.45,2.0,,0.0,0.0,105.28
2025-08-15T01:23:03.121Z,13,GR86-062-012,-97.7,0.106,-1.19,33.39,2.0,,0.0,0.0,
2025-08-15T01:23:03.165Z,13,GR86-062-012,-97.6,0.092,-1.169,33.04,2.0,,0.0,0.0,
2025-08-15T01:23:03.208Z,13,GR86-062-012,-97.4,0.106,-1.113,32.18,2.0,,0.0,0.0,
2025-08-15T01:23:03.251Z,13,GR86-062-012,-96.9,0.068,-1.117,31.91,2.0,6150.0,0.0,0.0,
2025-08-15T01:23:03.294Z,13,GR86-062-012,-93.6,0.084,-1.192,31.25,2.0,,0.0,0.0,105.46
2025-08-15T01:23:03.337Z,13,GR86-062-012,-90.8,0.098,-1.104,29.5,2.0,,0.0,0.0,
2025-08-15T01:23:03.380Z,13,GR86-062-012,-89.5,0.066,-1.172,28.89,2.0,,0.0,0.0,
2025-08-15T01:23:03.426Z,13,GR86-062-012,-87.7,0.07,-1.155,28.34,2.0,,0.0,0.0,
2025-08-15T01:23:03.469Z,13,GR86-062-012,-84.80000000000001,0.077,-1.199,31.05,2.0,6199.0,0.0,0.0,
2025-08-15T01:23:03.513Z,13,GR86-062-012,-76.4,0.044,-1.265,37.7,2.0,,0.0,0.0,106.08
2025-08-15T01:23:03.558Z,13,GR86-062-012,-73.0,0.063,-1.231,40.21,2.0,,0.0,0.0,
2025-08-15T01:23:03.601Z,13,GR86-062-012,-72.0,0.113,-1.218,50.18,2.0,,0.0,0.0,
2025-08-15T01:23:03.645Z,13,GR86-062-012,-71.9,0.119,-1.226,72.96000000000001,2.0,,0.0,0.0,
2025-08-15T01:23:03.688Z,13,GR86-062-012,-71.5,0.184,-1.19,99.45,2.0,6218.0,0.0,0.0,
2025-08-15T01:23:03.731Z,13,GR86-062-012,-70.60000000000001,0.167,-1.237,99.77,2.0,,0.0,0.0,106.52
2025-08-15T01:23:03.774Z,13,GR86-062-012,-66.4,0.232,-1.308,99.78,2.0,,0.0,0.0,
2025-08-15T01:23:03.817Z,13,GR86-062-012,-60.2,0.253,-1.264,99.77,2.0,,0.0,0.0,
2025-08-15T01:23:03.860Z,13,GR86-062-012,-47.5,0.249,-1.226,99.77,2.0,,0.0,0.0,
2025-08-15T01:23:03.904Z,13,GR86-062-012,-38.3,0.23,-1.225,99.76,2.0,6289.0,0.0,0.0,
2025-08-15T01:23:03.946Z,13,GR86-062-012,-34.2,0.233,-1.144,99.8,2.0,,0.0,0.0,107.19
2025-08-15T01:23:03.989Z,13,GR86-062-012,-33.7,0.229,-1.147,99.78,2.0,,0.0,0.0,
2025-08-15T01:23:04.034Z,13,GR86-062-012,-32.7,0.232,-1.132,99.77,2.0,,0.0,0.0,
2025-08-15T01:23:04.078Z,13,GR86-062-012,-31.0,0.263,-1.099,99.77,2.0,,0.0,0.0,
2025-08-15T01:23:04.121Z,13,GR86-062-012,-27.0,0.255,-1.049,99.77,2.0,6373.0,0.0,0.0,
2025-08-15T01:23:04.165Z,13,GR86-062-012,-21.1,0.22,-1.048,99.77,2.0,,0.0,0.0,107.9
2025-08-15T01:23:04.208Z,13,GR86-062-012,-14.7,0.22,-0.928,99.78,2.0,,0.0,0.0,
2025-08-15T01:23:04.251Z,13,GR86-062-012,-13.0,0.268,-0.893,99.76,2.0,,0.0,0.0,
2025-08-15T01:23:04.294Z,13,GR86-062-012,-13.5,0.209,-0.556,99.77,2.0,,0.0,0.0,
2025-08-15T01:23:04.337Z,13,GR86-062-012,-16.7,0.13,-0.498,99.77,2.0,6430.0,0.0,0.0,
2025-08-15T01:23:04.380Z,13,GR86-062-012,-20.6,0.129,-0.507,99.79,2.0,,0.0,0.0,109.44
2025-08-15T01:23:04.424Z,13,GR86-062-012,-23.4,0.165,-0.392,99.78,2.0,,0.0,0.0,
2025-08-15T01:23:04.467Z,13,GR86-062-012,-24.200000000000003,0.192,-0.443,99.79,2.0,,0.0,0.0,
2025-08-15T01:23:04.510Z,13,GR86-062-012,-22.5,0.233,-0.446,99.76,2.0,,0.0,0.0,
2025-08-15T01:23:04.554Z,13,GR86-062-012,-18.9,0.32,-0.417,99.76,2.0,6481.0,0.0,0.0,
2025-08-15T01:23:04.597Z,13,GR86-062-012,-17.7,0.299,-0.476,99.79,2.0,,0.0,0.0,111.11
2025-08-15T01:23:04.640Z,13,GR86-062-012,-17.0,0.313,-0.45,99.79,2.0,,0.0,0.0,
2025-08-15T01:23:04.684Z,13,GR86-062-012,-16.6,0.33,-0.45,99.76,2.0,,0.0,0.0,
2025-08-15T01:23:04.727Z,13,GR86-062-012,-16.2,0.294,-0.386,99.78,2.0,,0.0,0.0,
2025-08-15T01:23:04.770Z,13,GR86-062-012,-14.0,0.304,-0.46,99.8,2.0,6556.0,0.0,0.0,
2025-08-15T01:23:04.814Z,13,GR86-062-012,-10.1,0.222,-0.382,99.79,2.0,,0.0,0.0,111.75
2025-08-15T01:23:04.858Z,13,GR86-062-012,-7.7,0.278,-0.458,99.78,2.0,,0.0,0.0,
2025-08-15T01:23:04.900Z,13,GR86-062-012,-6.5,0.259,-0.36,99.77,2.0,,0.0,0.0,
2025-08-15T01:23:04.944Z,13,GR86-062-012,-6.1000000000000005,0.233,-0.26,99.78,2.0,,0.0,0.0,
2025-08-15T01:23:04.986Z,13,GR86-062-012,-5.7,0.168,-0.272,99.79,2.0,6661.0,0.0,0.0,
2025-08-15T01:23:05.029Z,13,GR86-062-012,-5.4,0.184,-0.184,99.79,2.0,,0.0,0.0,113.33
2025-08-15T01:23:05.077Z,13,GR86-062-012,-5.2,0.33,-0.155,99.77,2.0,,0.0,0.0,
2025-08-15T01:23:05.119Z,13,GR86-062-012,-5.0,0.35,-0.144,99.8,2.0,,0.0,0.0,
2025-08-15T01:23:05.163Z,13,GR86-062-012,-4.9,0.346,-0.077,99.8,2.0,,0.0,0.0,
2025-08-15T01:23:05.206Z,13,GR86-062-012,-4.7,0.326,-0.145,99.79,2.0,6769.0,0.0,0.0,
2025-08-15T01:23:05.249Z,13,GR86-062-012,-4.6000000000000005,0.351,-0.126,99.8,2.0,,0.0,0.0,116.93
2025-08-15T01:23:05.293Z,13,GR86-062-012,-4.5,0.28,-0.142,99.78,2.0,,0.0,0.0,
2025-08-15T01:23:05.335Z,13,GR86-062-012,-4.3,0.286,-0.121,99.79,2.0,,0.0,0.0,
2025-08-15T01:23:05.378Z,13,GR86-062-012,-4.0,0.257,-0.029,99.79,2.0,,0.0,0.0,
2025-08-15T01:23:05.421Z,13,GR86-062-012,-3.5,0.275,-0.097,99.77,2.0,6848.0,0.0,0.0,
2025-08-15T01:23:05.464Z,13,GR86-062-012,-3.3000000000000003,0.265,-0.088,99.79,2.0,,0.0,0.0,118.72
2025-08-15T01:23:05.507Z,13,GR86-062-012,-3.3000000000000003,0.234,-0.034,99.78,2.0,,0.0,0.0,
2025-08-15T01:23:05.550Z,13,GR86-062-012,-3.3000000000000003,0.293,-0.088,99.8,2.0,,0.0,0.0,
2025-08-15T01:23:05.594Z,13,GR86-062-012,-3.2,0.31,-0.078,99.8,2.0,,0.0,0.0,
2025-08-15T01:23:05.680Z,13,GR86-062-012,-3.0,0.243,-0.078,99.8,2.0,7019.0,0.0,0.0,120.76
2025-08-15T01:23:05.724Z,13,GR86-062-012,-3.0,0.262,-0.069,99.8,2.0,,0.0,0.0,
2025-08-15T01:23:05.766Z,13,GR86-062-012,-3.0,0.259,-0.084,99.8,2.0,,0.0,0.0,
2025-08-15T01:23:05.809Z,13,GR86-062-012,-3.2,0.252,-0.077,99.83,2.0,,0.0,0.0,
2025-08-15T01:23:05.853Z,13,GR86-062-012,-4.4,0.249,-0.108,99.81,2.0,7114.0,0.0,0.0,
2025-08-15T01:23:05.895Z,13,GR86-062-012,-5.7,0.262,-0.138,99.8,2.0,,0.0,0.0,122.57
2025-08-15T01:23:05.938Z,13,GR86-062-012,-5.800000000000001,0.272,-0.184,99.79,2.0,,0.0,0.0,
2025-08-15T01:23:05.981Z,13,GR86-062-012,-5.800000000000001,0.251,-0.201,99.81,2.0,,0.0,0.0,
2025-08-15T01:23:06.024Z,13,GR86-062-012,-5.300000000000001,0.245,-0.211,99.81,2.0,,0.0,0.0,
2025-08-15T01:23:06.067Z,13,GR86-062-012,-5.1000000000000005,0.243,-0.22,99.79,2.0,7222.0,0.0,0.0,
2025-08-15T01:23:06.110Z,13,GR86-062-012,-4.9,0.184,-0.192,99.78,2.0,,0.0,0.0,124.31
2025-08-15T01:23:06.154Z,13,GR86-062-012,-4.2,0.163,-0.18,99.79,2.0,,0.0,0.0,
2025-08-15T01:23:06.197Z,13,GR86-062-012,-4.1000000000000005,0.124,-0.161,99.81,2.0,,0.0,0.0,
2025-08-15T01:23:06.240Z,13,GR86-062-012,-4.0,0.116,-0.163,99.78,2.0,,0.0,0.0,
2025-08-15T01:23:06.284Z,13,GR86-062-012,-3.8,0.086,-0.16,99.8,2.0,7288.0,0.0,0.0,
2025-08-15T01:23:06.327Z,13,GR86-062-012,-3.1,0.054,-0.144,99.8,2.0,,0.0,0.0,126.19
2025-08-15T01:23:06.370Z,13,GR86-062-012,-2.4000000000000004,0.012,-0.151,99.79,3.0,,0.0,0.0,
2025-08-15T01:23:06.414Z,13,GR86-062-012,-1.8,0.652,-0.089,99.82,3.0,,0.0,0.0,
2025-08-15T01:23:06.458Z,13,GR86-062-012,-1.5,0.362,-0.2,99.8,3.0,,0.0,0.0,
2025-08-15T01:23:06.501Z,13,GR86-062-012,-1.5,0.364,-0.071,99.81,3.0,7339.0,0.0,0.0,
2025-08-15T01:23:06.545Z,13,GR86-062-012,-1.1,0.413,-0.033,99.81,3.0,,0.0,0.0,127.67
2025-08-15T01:23:06.588Z,13,GR86-062-012,0.0,0.217,-0.123,99.8,3.0,,0.0,0.0,
2025-08-15T01:23:06.631Z,13,GR86-062-012,0.9,0.117,-0.023,99.8,3.0,,0.0,0.0,
2025-08-15T01:23:06.674Z,13,GR86-062-012,1.7000000000000002,0.246,-0.084,99.8,3.0,,0.0,0.0,
2025-08-15T01:23:06.717Z,13,GR86-062-012,2.4000000000000004,0.28,-0.014,99.8,3.0,6778.0,0.0,0.0,
2025-08-15T01:23:06.760Z,13,GR86-062-012,4.3,0.237,-0.025,99.8,3.0,,0.0,0.0,128.49
2025-08-15T01:23:06.804Z,13,GR86-062-012,4.7,0.198,-0.009,99.81,3.0,,0.0,0.0,
2025-08-15T01:23:06.846Z,13,GR86-062-012,4.7,0.203,0.0,99.8,3.0,,0.0,0.0,
2025-08-15T01:23:06.889Z,13,GR86-062-012,5.6000000000000005,0.228,0.056,99.8,3.0,,0.0,0.0,
2025-08-15T01:23:06.934Z,13,GR86-062-012,7.5,0.231,0.088,99.81,3.0,6085.0,0.0,0.0,
2025-08-15T01:23:06.977Z,13,GR86-062-012,7.6,0.215,0.142,99.8,3.0,,0.0,0.0,130.05
2025-08-15T01:23:07.020Z,13,GR86-062-012,7.6,0.218,0.154,99.8,3.0,,0.0,0.0,
2025-08-15T01:23:07.064Z,13,GR86-062-012,6.5,0.222,0.166,99.81,3.0,,0.0,0.0,
2025-08-15T01:23:07.107Z,13,GR86-062-012,5.0,0.221,0.205,99.8,3.0,,0.0,0.0,
2025-08-15T01:23:07.150Z,13,GR86-062-012,3.9,0.226,0.191,99.8,3.0,6178.0,0.0,0.0,
2025-08-15T01:23:07.194Z,13,GR86-062-012,2.8000000000000003,0.208,0.191,99.79,3.0,,0.0,0.0,131.67000000000002
2025-08-15T01:23:07.237Z,13,GR86-062-012,2.6,0.227,0.166,99.8,3.0,,0.0,0.0,
2025-08-15T01:23:07.280Z,13,GR86-062-012,2.3000000000000003,0.219,0.14,99.81,3.0,,0.0,0.0,
2025-08-15T01:23:07.325Z,13,GR86-062-012,1.7000000000000002,0.22,0.119,99.8,3.0,,0.0,0.0,
2025-08-15T01:23:07.369Z,13,GR86-062-012,1.5,0.221,0.095,99.81,3.0,6249.0,0.0,0.0,
2025-08-15T01:23:07.413Z,13,GR86-062-012,1.4,0.206,0.064,99.8,3.0,,0.0,0.0,133.09
2025-08-15T01:23:07.455Z,13,GR86-062-012,1.4,0.202,0.039,99.8,3.0,,0.0,0.0,
2025-08-15T01:23:07.498Z,13,GR86-062-012,1.3,0.219,0.011,99.8,3.0,,0.0,0.0,
2025-08-15T01:23:07.541Z,13,GR86-062-012,1.3,0.21,0.014,99.8,3.0,,0.0,0.0,
2025-08-15T01:23:07.584Z,13,GR86-062-012,1.3,0.213,0.028,99.8,3.0,6307.0,0.0,0.0,
2025-08-15T01:23:07.627Z,13,GR86-062-012,1.4,0.212,0.038,99.81,3.0,,0.0,0.0,134.43
2025-08-15T01:23:07.670Z,13,GR86-062-012,1.7000000000000002,0.212,0.025,99.81,3.0,,0.0,0.0,
2025-08-15T01:23:07.714Z,13,GR86-062-012,2.4000000000000004,0.227,0.034,99.81,3.0,,0.0,0.0,
2025-08-15T01:23:07.757Z,13,GR86-062-012,2.8000000000000003,0.216,0.039,99.8,3.0,,0.0,0.0,
2025-08-15T01:23:07.800Z,13,GR86-062-012,3.2,0.198,0.058,99.79,3.0,6357.0,0.0,0.0,
2025-08-15T01:23:07.844Z,13,GR86-062-012,3.5,0.218,0.086,99.8,3.0,,0.0,0.0,137.03
2025-08-15T01:23:07.886Z,13,GR86-062-012,3.9,0.227,0.098,99.81,3.0,,0.0,0.0,
2025-08-15T01:23:07.929Z,13,GR86-062-012,4.5,0.217,0.093,99.8,3.0,,0.0,0.0,
2025-08-15T01:23:07.973Z,13,GR86-062-012,4.7,0.238,0.121,99.79,3.0,,0.0,0.0,
2025-08-15T01:23:08.015Z,13,GR86-062-012,4.7,0.215,0.133,99.81,3.0,6415.0,0.0,0.0,
2025-08-15T01:23:08.058Z,13,GR86-062-012,5.0,0.198,0.159,99.8,3.0,,0.0,0.0,138.35
2025-08-15T01:23:08.101Z,13,GR86-062-012,5.300000000000001,0.209,0.189,99.8,3.0,,0.0,0.0,
2025-08-15T01:23:08.144Z,13,GR86-062-012,5.300000000000001,0.238,0.177,99.8,3.0,,0.0,0.0,
2025-08-15T01:23:08.187Z,13,GR86-062-012,5.300000000000001,0.224,0.168,99.8,3.0,,0.0,0.0,
2025-08-15T01:23:08.230Z,13,GR86-062-012,5.300000000000001,0.2,0.187,99.81,3.0,6483.0,0.0,0.0,
2025-08-15T01:23:08.274Z,13,GR86-062-012,5.300000000000001,0.195,0.183,99.8,3.0,,0.0,0.0,139.66
2025-08-15T01:23:08.317Z,13,GR86-062-012,4.800000000000001,0.193,0.192,99.8,3.0,,0.0,0.0,
2025-08-15T01:23:08.360Z,13,GR86-062-012,3.7,0.22,0.19,99.81,3.0,,0.0,0.0,
2025-08-15T01:23:08.404Z,13,GR86-062-012,2.9000000000000004,0.233,0.172,99.81,3.0,,0.0,0.0,
2025-08-15T01:23:08.446Z,13,GR86-062-012,2.6,0.221,0.136,99.79,3.0,6597.0,0.0,0.0,
2025-08-15T01:23:08.489Z,13,GR86-062-012,2.4000000000000004,0.187,0.132,99.8,3.0,,0.0,0.0,140.95000000000002
2025-08-15T01:23:08.534Z,13,GR86-062-012,2.3000000000000003,0.226,0.115,99.81,3.0,,0.0,0.0,
2025-08-15T01:23:08.577Z,13,GR86-062-012,2.0,0.182,0.108,99.81,3.0,,0.0,0.0,
2025-08-15T01:23:08.620Z,13,GR86-062-012,1.1,0.193,0.103,99.8,3.0,,0.0,0.0,
2025-08-15T01:23:08.664Z,13,GR86-062-012,0.7000000000000001,0.211,0.08,99.81,3.0,6655.0,0.0,0.0,
2025-08-15T01:23:08.706Z,13,GR86-062-012,0.6000000000000001,0.222,0.044,99.8,3.0,,0.0,0.0,142.15
2025-08-15T01:23:08.749Z,13,GR86-062-012,0.6000000000000001,0.21,0.024,99.81,3.0,,0.0,0.0,
2025-08-15T01:23:08.793Z,13,GR86-062-012,0.6000000000000001,0.232,0.008,99.8,3.0,,0.0,0.0,
2025-08-15T01:23:08.835Z,13,GR86-062-012,0.6000000000000001,0.198,-0.006,99.8,3.0,,0.0,0.0,
2025-08-15T01:23:08.878Z,13,GR86-062-012,0.6000000000000001,0.179,-0.008,99.8,3.0,6713.0,0.0,0.0,
2025-08-15T01:23:08.921Z,13,GR86-062-012,0.6000000000000001,0.19,-0.005,99.8,3.0,,0.0,0.0,143.4
2025-08-15T01:23:08.964Z,13,GR86-062-012,0.7000000000000001,0.22,-0.006,99.8,3.0,,0.0,0.0,
2025-08-15T01:23:09.007Z,13,GR86-062-012,0.8,0.227,-0.023,99.8,3.0,,0.0,0.0,
2025-08-15T01:23:09.050Z,13,GR86-062-012,0.8,0.198,-0.005,99.81,3.0,,0.0,0.0,
2025-08-15T01:23:09.094Z,13,GR86-062-012,0.8,0.216,0.007,99.8,3.0,6769.0,0.0,0.0,
2025-08-15T01:23:09.137Z,13,GR86-062-012,0.8,0.197,0.001,99.8,3.0,,0.0,0.0,144.58
2025-08-15T01:23:09.180Z,13,GR86-062-012,0.8,0.169,0.004,99.81,3.0,,0.0,0.0,
2025-08-15T01:23:09.224Z,13,GR86-062-012,0.8,0.194,0.018,99.81,3.0,,0.0,0.0,
2025-08-15T01:23:09.267Z,13,GR86-062-012,0.8,0.224,0.022,99.79,3.0,,0.0,0.0,
2025-08-15T01:23:09.310Z,13,GR86-062-012,0.8,0.216,0.019,99.8,3.0,6838.0,0.0,0.0,
2025-08-15T01:23:09.354Z,13,GR86-062-012,0.7000000000000001,0.205,0.027,99.8,3.0,,0.0,0.0,145.77
2025-08-15T01:23:09.397Z,13,GR86-062-012,0.6000000000000001,0.227,0.019,99.8,3.0,,0.0,0.0,
2025-08-15T01:23:09.440Z,13,GR86-062-012,0.6000000000000001,0.219,-0.007,99.81,3.0,,0.0,0.0,
2025-08-15T01:23:09.484Z,13,GR86-062-012,0.6000000000000001,0.186,-0.005,99.81,3.0,,0.0,0.0,
2025-08-15T01:23:09.528Z,13,GR86-062-012,0.6000000000000001,0.179,0.012,99.79,3.0,6889.0,0.0,0.0,
2025-08-15T01:23:09.571Z,13,GR86-062-012,0.6000000000000001,0.192,0.012,99.81,3.0,,0.0,0.0,146.98
2025-08-15T01:23:09.614Z,13,GR86-062-012,0.6000000000000001,0.17,0.003,99.81,3.0,,0.0,0.0,
2025-08-15T01:23:09.658Z,13,GR86-062-012,0.6000000000000001,0.188,0.006,99.8,3.0,,0.0,0.0,
2025-08-15T01:23:09.700Z,13,GR86-062-012,0.7000000000000001,0.211,0.006,99.79,3.0,,0.0,0.0,
2025-08-15T01:23:09.744Z,13,GR86-062-012,0.7000000000000001,0.221,0.01,99.8,3.0,6948.0,0.0,0.0,
2025-08-15T01:23:09.787Z,13,GR86-062-012,0.7000000000000001,0.22,-0.002,99.8,3.0,,0.0,0.0,148.15
2025-08-15T01:23:09.830Z,13,GR86-062-012,0.7000000000000001,0.177,0.007,99.78,3.0,,0.0,0.0,
2025-08-15T01:23:09.875Z,13,GR86-062-012,0.7000000000000001,0.208,-0.006,99.8,3.0,,0.0,0.0,
2025-08-15T01:23:09.918Z,13,GR86-062-012,0.7000000000000001,0.203,-0.002,99.8,3.0,,0.0,0.0,
2025-08-15T01:23:09.961Z,13,GR86-062-012,0.7000000000000001,0.184,0.007,99.81,3.0,6997.0,0.0,0.0,
2025-08-15T01:23:10.004Z,13,GR86-062-012,0.7000000000000001,0.171,0.01,99.8,3.0,,0.0,0.0,149.33
2025-08-15T01:23:10.047Z,13,GR86-062-012,0.5,0.196,0.015,99.79,3.0,,0.0,0.0,
2025-08-15T01:23:10.090Z,13,GR86-062-012,0.3,0.219,-0.001,99.81,3.0,,0.0,0.0,
2025-08-15T01:23:10.134Z,13,GR86-062-012,0.1,0.187,0.002,99.8,3.0,,0.0,0.0,
2025-08-15T01:23:10.177Z,13,GR86-062-012,0.0,0.197,-0.012,99.8,3.0,7046.0,0.0,0.0,
2025-08-15T01:23:10.220Z,13,GR86-062-012,0.0,0.199,-0.031,99.79,3.0,,0.0,0.0,150.52
2025-08-15T01:23:10.264Z,13,GR86-062-012,-0.1,0.198,-0.043,99.81,3.0,,0.0,0.0,
2025-08-15T01:23:10.306Z,13,GR86-062-012,-0.3,0.19,-0.033,99.8,3.0,,0.0,0.0,
2025-08-15T01:23:10.349Z,13,GR86-062-012,-0.8,0.17,-0.039,99.8,3.0,,0.0,0.0,
2025-08-15T01:23:10.393Z,13,GR86-062-012,-1.6,0.199,-0.077,99.79,3.0,7102.0,0.0,0.0,
2025-08-15T01:23:10.435Z,13,GR86-062-012,-1.8,0.173,-0.073,99.8,3.0,,0.0,0.0,152.86
2025-08-15T01:23:10.478Z,13,GR86-062-012,-1.9,0.168,-0.09,99.81,3.0,,0.0,0.0,
2025-08-15T01:23:10.521Z,13,GR86-062-012,-1.9,0.181,-0.103,99.77,3.0,,0.0,0.0,
2025-08-15T01:23:10.565Z,13,GR86-062-012,-1.9,0.182,-0.115,99.79,3.0,,0.0,0.0,
2025-08-15T01:23:10.608Z,13,GR86-062-012,-1.9,0.196,-0.136,99.79,3.0,7160.0,0.0,0.0,
2025-08-15T01:23:10.651Z,13,GR86-062-012,-1.9,0.196,-0.122,99.8,3.0,,0.0,0.0,154.02
2025-08-15T01:23:10.694Z,13,GR86-062-012,-1.8,0.178,-0.115,99.8,3.0,,0.0,0.0,
2025-08-15T01:23:10.737Z,13,GR86-062-012,-1.8,0.191,-0.105,99.79,3.0,,0.0,0.0,
2025-08-15T01:23:10.780Z,13,GR86-062-012,-1.8,0.182,-0.1,99.77,3.0,,0.0,0.0,
2025-08-15T01:23:10.824Z,13,GR86-062-012,-1.6,0.183,-0.083,99.79,3.0,7216.0,0.0,0.0,
2025-08-15T01:23:10.867Z,13,GR86-062-012,-1.5,0.048,-0.087,99.8,4.0,,0.0,0.0,155.16
2025-08-15T01:23:10.910Z,13,GR86-062-012,-1.4,-0.052,-0.042,99.79,4.0,,0.0,0.0,
2025-08-15T01:23:10.954Z,13,GR86-062-012,-0.8,0.252,-0.161,99.8,4.0,,0.0,0.0,
2025-08-15T01:23:10.997Z,13,GR86-062-012,-0.8,0.294,-0.042,99.79,4.0,,0.0,0.0,
2025-08-15T01:23:11.040Z,13,GR86-062-012,-0.8,0.208,0.005,99.78,4.0,7298.0,0.0,0.0,
2025-08-15T01:23:11.085Z,13,GR86-062-012,-0.8,0.041,-0.101,99.8,4.0,,0.0,0.0,156.25
2025-08-15T01:23:11.128Z,13,GR86-062-012,-0.9,0.128,-0.022,99.8,4.0,,0.0,0.0,
2025-08-15T01:23:11.171Z,13,GR86-062-012,-0.9,0.215,-0.075,99.79,4.0,,0.0,0.0,
2025-08-15T01:23:11.214Z,13,GR86-062-012,-1.1,0.147,-0.046,99.8,4.0,,0.0,0.0,
2025-08-15T01:23:11.258Z,13,GR86-062-012,-1.7000000000000002,0.134,-0.077,99.81,4.0,6132.0,0.0,0.0,
2025-08-15T01:23:11.301Z,13,GR86-062-012,-2.0,0.157,-0.115,99.79,4.0,,0.0,0.0,157.12
2025-08-15T01:23:11.344Z,13,GR86-062-012,-2.2,0.185,-0.124,99.81,4.0,,0.0,0.0,
2025-08-15T01:23:11.387Z,13,GR86-062-012,-2.3000000000000003,0.161,-0.147,99.8,4.0,,0.0,0.0,
2025-08-15T01:23:11.430Z,13,GR86-062-012,-2.4000000000000004,0.157,-0.153,99.79,4.0,,0.0,0.0,
2025-08-15T01:23:11.517Z,13,GR86-062-012,-2.3000000000000003,0.168,-0.141,99.8,4.0,6211.0,0.0,0.0,158.26
2025-08-15T01:23:11.560Z,13,GR86-062-012,-2.2,0.161,-0.162,99.81,4.0,,0.0,0.0,
2025-08-15T01:23:11.604Z,13,GR86-062-012,-2.5,0.151,-0.16,99.79,4.0,,0.0,0.0,
2025-08-15T01:23:11.646Z,13,GR86-062-012,-2.7,0.135,-0.153,99.81,4.0,,0.0,0.0,
2025-08-15T01:23:11.689Z,13,GR86-062-012,-2.8000000000000003,0.146,-0.15,99.8,4.0,6271.0,0.0,0.0,
2025-08-15T01:23:11.734Z,13,GR86-062-012,-2.5,0.146,-0.177,99.81,4.0,,0.0,0.0,159.27
2025-08-15T01:23:11.777Z,13,GR86-062-012,-2.3000000000000003,0.135,-0.154,99.79,4.0,,0.0,0.0,
2025-08-15T01:23:11.820Z,13,GR86-062-012,-2.2,0.127,-0.156,99.8,4.0,,0.0,0.0,
2025-08-15T01:23:11.865Z,13,GR86-062-012,-2.3000000000000003,0.145,-0.133,99.79,4.0,,0.0,0.0,
2025-08-15T01:23:11.908Z,13,GR86-062-012,-2.4000000000000004,0.147,-0.146,99.8,4.0,6305.0,0.0,0.0,
2025-08-15T01:23:11.951Z,13,GR86-062-012,-2.5,0.149,-0.139,99.8,4.0,,0.0,0.0,160.22
2025-08-15T01:23:11.994Z,13,GR86-062-012,-2.5,0.134,-0.162,99.8,4.0,,0.0,0.0,
2025-08-15T01:23:12.037Z,13,GR86-062-012,-2.5,0.147,-0.152,99.8,4.0,,0.0,0.0,
2025-08-15T01:23:12.080Z,13,GR86-062-012,-2.2,0.153,-0.16,99.8,4.0,,0.0,0.0,
2025-08-15T01:23:12.126Z,13,GR86-062-012,-1.6,0.156,-0.144,99.79,4.0,6350.0,0.0,0.0,
2025-08-15T01:23:12.169Z,13,GR86-062-012,-1.5,0.155,-0.138,99.79,4.0,,0.0,0.0,161.23
2025-08-15T01:23:12.213Z,13,GR86-062-012,-1.7000000000000002,0.146,-0.109,99.81,4.0,,0.0,0.0,
2025-08-15T01:23:12.258Z,13,GR86-062-012,-1.9,0.142,-0.109,99.79,4.0,,0.0,0.0,
2025-08-15T01:23:12.300Z,13,GR86-062-012,-1.9,0.155,-0.092,99.81,4.0,,0.0,0.0,
2025-08-15T01:23:12.344Z,13,GR86-062-012,-1.9,0.178,-0.111,99.8,4.0,6386.0,0.0,0.0,
2025-08-15T01:23:12.387Z,13,GR86-062-012,-1.9,0.161,-0.11,99.78,4.0,,0.0,0.0,162.18
2025-08-15T01:23:12.430Z,13,GR86-062-012,-1.9,0.165,-0.124,99.8,4.0,,0.0,0.0,
2025-08-15T01:23:12.474Z,13,GR86-062-012,-1.9,0.159,-0.093,99.8,4.0,,0.0,0.0,
2025-08-15T01:23:12.517Z,13,GR86-062-012,-1.9,0.152,-0.12,99.8,4.0,,0.0,0.0,
2025-08-15T01:23:12.560Z,13,GR86-062-012,-1.9,0.159,-0.134,99.8,4.0,6418.0,0.0,0.0,
2025-08-15T01:23:12.604Z,13,GR86-062-012,-1.9,0.164,-0.142,99.81,4.0,,0.0,0.0,163.21
2025-08-15T01:23:12.646Z,13,GR86-062-012,-1.9,0.156,-0.138,99.79,4.0,,0.0,0.0,
2025-08-15T01:23:12.689Z,13,GR86-062-012,-1.8,0.136,-0.141,99.78,4.0,,0.0,0.0,
2025-08-15T01:23:12.734Z,13,GR86-062-012,-1.8,0.149,-0.103,99.79,4.0,,0.0,0.0,
2025-08-15T01:23:12.777Z,13,GR86-062-012,-1.8,0.172,-0.099,99.8,4.0,6457.0,0.0,0.0,
2025-08-15T01:23:12.820Z,13,GR86-062-012,-1.8,0.165,-0.099,99.8,4.0,,0.0,0.0,164.14
2025-08-15T01:23:12.864Z,13,GR86-062-012,-1.8,0.155,-0.105,99.78,4.0,,0.0,0.0,
2025-08-15T01:23:12.907Z,13,GR86-062-012,-1.8,0.149,-0.096,99.8,4.0,,0.0,0.0,
2025-08-15T01:23:12.950Z,13,GR86-062-012,-1.8,0.133,-0.103,99.8,4.0,,0.0,0.0,
2025-08-15T01:23:12.994Z,13,GR86-062-012,-2.0,0.148,-0.089,99.8,4.0,6503.0,0.0,0.0,
2025-08-15T01:23:13.037Z,13,GR86-062-012,-2.1,0.161,-0.115,99.8,4.0,,0.0,0.0,166.11
2025-08-15T01:23:13.079Z,13,GR86-062-012,-2.2,0.158,-0.104,99.79,4.0,,0.0,0.0,
2025-08-15T01:23:13.124Z,13,GR86-062-012,-2.2,0.149,-0.115,99.79,4.0,,0.0,0.0,
2025-08-15T01:23:13.166Z,13,GR86-062-012,-2.2,0.136,-0.108,99.8,4.0,,0.0,0.0,
2025-08-15T01:23:13.209Z,13,GR86-062-012,-2.2,0.142,-0.117,99.8,4.0,6532.0,0.0,0.0,
2025-08-15T01:23:13.253Z,13,GR86-062-012,-2.3000000000000003,0.157,-0.113,99.79,4.0,,0.0,0.0,167.07
2025-08-15T01:23:13.295Z,13,GR86-062-012,-2.3000000000000003,0.155,-0.119,99.79,4.0,,0.0,0.0,
2025-08-15T01:23:13.338Z,13,GR86-062-012,-2.4000000000000004,0.167,-0.105,99.8,4.0,,0.0,0.0,
2025-08-15T01:23:13.381Z,13,GR86-062-012,-2.4000000000000004,0.15,-0.117,99.79,4.0,,0.0,0.0,
2025-08-15T01:23:13.425Z,13,GR86-062-012,-3.1,0.139,-0.123,99.79,4.0,6571.0,0.0,0.0,
2025-08-15T01:23:13.468Z,13,GR86-062-012,-3.8,0.14,-0.155,99.79,4.0,,0.0,0.0,168.07
2025-08-15T01:23:13.511Z,13,GR86-062-012,-4.2,0.125,-0.163,99.79,4.0,,0.0,0.0,
2025-08-15T01:23:13.554Z,13,GR86-062-012,-4.3,0.152,-0.179,99.79,4.0,,0.0,0.0,
2025-08-15T01:23:13.597Z,13,GR86-062-012,-4.4,0.144,-0.21,99.8,4.0,,0.0,0.0,
2025-08-15T01:23:13.640Z,13,GR86-062-012,-4.4,0.158,-0.23,99.77,4.0,6637.0,0.0,0.0,
2025-08-15T01:23:13.685Z,13,GR86-062-012,-4.4,0.141,-0.227,99.77,4.0,,0.0,0.0,168.94
2025-08-15T01:23:13.728Z,13,GR86-062-012,-4.4,0.15,-0.272,99.79,4.0,,0.0,0.0,
2025-08-15T01:23:13.771Z,13,GR86-062-012,-4.4,0.156,-0.259,99.79,4.0,,0.0,0.0,
2025-08-15T01:23:13.814Z,13,GR86-062-012,-4.3,0.142,-0.27,99.8,4.0,,0.0,0.0,
2025-08-15T01:23:13.858Z,13,GR86-062-012,-4.2,0.148,-0.25,99.79,4.0,6674.0,0.0,0.0,
2025-08-15T01:23:13.901Z,13,GR86-062-012,-4.0,0.154,-0.239,99.8,4.0,,0.0,0.0,169.71
2025-08-15T01:23:13.945Z,13,GR86-062-012,-3.7,0.162,-0.232,99.8,4.0,,0.0,0.0,
2025-08-15T01:23:13.988Z,13,GR86-062-012,-3.5,0.165,-0.228,99.8,4.0,,0.0,0.0,
2025-08-15T01:23:14.031Z,13,GR86-062-012,-3.4000000000000004,0.137,-0.222,99.8,4.0,,0.0,0.0,
2025-08-15T01:23:14.075Z,13,GR86-062-012,-3.4000000000000004,0.138,-0.187,99.8,4.0,6718.0,0.0,0.0,
2025-08-15T01:23:14.118Z,13,GR86-062-012,-3.3000000000000003,0.143,-0.174,99.78,4.0,,0.0,0.0,170.65
2025-08-15T01:23:14.161Z,13,GR86-062-012,-3.0,0.133,-0.181,99.79,4.0,,0.0,0.0,
2025-08-15T01:23:14.204Z,13,GR86-062-012,-2.1,0.161,-0.17,99.79,4.0,,0.0,0.0,
2025-08-15T01:23:14.247Z,13,GR86-062-012,-1.7000000000000002,0.137,-0.161,99.79,4.0,,0.0,0.0,
2025-08-15T01:23:14.290Z,13,GR86-062-012,-1.6,0.158,-0.132,99.76,4.0,6754.0,0.0,0.0,
2025-08-15T01:23:14.334Z,13,GR86-062-012,-1.5,0.103,-0.113,99.79,4.0,,0.0,0.0,171.67000000000002
2025-08-15T01:23:14.377Z,13,GR86-062-012,-1.5,0.12,-0.113,99.79,4.0,,0.0,0.0,
2025-08-15T01:23:14.420Z,13,GR86-062-012,-1.5,0.131,-0.099,99.77,4.0,,0.0,0.0,
2025-08-15T01:23:14.464Z,13,GR86-062-012,-1.5,0.119,-0.083,99.79,4.0,,0.0,0.0,
2025-08-15T01:23:14.507Z,13,GR86-062-012,-1.1,0.141,-0.085,99.78,4.0,6788.0,0.0,0.0,
2025-08-15T01:23:14.550Z,13,GR86-062-012,-0.8,0.137,-0.08,99.8,4.0,,0.0,0.0,172.67000000000002
2025-08-15T01:23:14.594Z,13,GR86-062-012,-0.8,0.147,-0.079,99.77,4.0,,0.0,0.0,
2025-08-15T01:23:14.637Z,13,GR86-062-012,-0.8,0.128,-0.08,99.77,4.0,,0.0,0.0,
2025-08-15T01:23:14.680Z,13,GR86-062-012,-1.0,0.116,-0.063,99.8,4.0,,0.0,0.0,
2025-08-15T01:23:14.724Z,13,GR86-062-012,-1.1,0.134,-0.076,99.8,4.0,6824.0,0.0,0.0,
2025-08-15T01:23:14.766Z,13,GR86-062-012,-1.2000000000000002,0.117,-0.072,99.8,4.0,,0.0,0.0,173.5
2025-08-15T01:23:14.809Z,13,GR86-062-012,-1.3,0.109,-0.086,99.8,4.0,,0.0,0.0,
2025-08-15T01:23:14.853Z,13,GR86-062-012,-1.3,0.149,-0.092,99.8,4.0,,0.0,0.0,
2025-08-15T01:23:14.895Z,13,GR86-062-012,-1.3,0.133,-0.07,99.8,4.0,,0.0,0.0,
2025-08-15T01:23:14.938Z,13,GR86-062-012,-1.3,0.131,-0.07,99.8,4.0,6858.0,0.0,0.0,
2025-08-15T01:23:14.981Z,13,GR86-062-012,-1.3,0.135,-0.086,99.78,4.0,,0.0,0.0,174.36
2025-08-15T01:23:15.024Z,13,GR86-062-012,-1.3,0.135,-0.076,99.79,4.0,,0.0,0.0,
2025-08-15T01:23:15.067Z,13,GR86-062-012,-1.3,0.146,-0.095,99.79,4.0,,0.0,0.0,
2025-08-15T01:23:15.110Z,13,GR86-062-012,-1.3,0.128,-0.092,99.77,4.0,,0.0,0.0,
2025-08-15T01:23:15.154Z,13,GR86-062-012,-1.3,0.122,-0.094,99.77,4.0,6892.0,0.0,0.0,
2025-08-15T01:23:15.197Z,13,GR86-062-012,-1.3,0.128,-0.102,99.78,4.0,,0.0,0.0,175.41
2025-08-15T01:23:15.240Z,13,GR86-062-012,-1.3,0.125,-0.085,99.78,4.0,,0.0,0.0,
2025-08-15T01:23:15.284Z,13,GR86-062-012,-1.3,0.135,-0.091,99.79,4.0,,0.0,0.0,
2025-08-15T01:23:15.327Z,13,GR86-062-012,-1.3,0.129,-0.094,99.8,4.0,,0.0,0.0,
2025-08-15T01:23:15.370Z,13,GR86-062-012,-1.3,0.139,-0.104,99.8,4.0,6936.0,0.0,0.0,
2025-08-15T01:23:15.414Z,13,GR86-062-012,-1.3,0.123,-0.071,99.78,4.0,,0.0,0.0,176.17000000000002
2025-08-15T01:23:15.458Z,13,GR86-062-012,-1.4,0.103,-0.088,99.77,4.0,,0.0,0.0,
2025-08-15T01:23:15.501Z,13,GR86-062-012,-1.5,0.113,-0.096,99.76,4.0,,0.0,0.0,
2025-08-15T01:23:15.544Z,13,GR86-062-012,-1.5,0.119,-0.12,99.78,4.0,,0.0,0.0,
2025-08-15T01:23:15.587Z,13,GR86-062-012,-1.5,0.119,-0.104,99.77,4.0,6960.0,0.0,0.0,
2025-08-15T01:23:15.630Z,13,GR86-062-012,-1.5,0.119,-0.114,99.77,4.0,,0.0,0.0,177.1
2025-08-15T01:23:15.674Z,13,GR86-062-012,-1.4,0.131,-0.102,99.8,4.0,,0.0,0.0,
2025-08-15T01:23:15.717Z,13,GR86-062-012,-1.3,0.124,-0.101,99.79,4.0,,0.0,0.0,
2025-08-15T01:23:15.760Z,13,GR86-062-012,-1.3,0.119,-0.101,99.78,4.0,,0.0,0.0,
2025-08-15T01:23:15.846Z,13,GR86-062-012,-1.3,0.125,-0.077,99.77,4.0,6996.0,0.0,0.0,178.76
2025-08-15T01:23:15.889Z,13,GR86-062-012,-1.3,0.128,-0.062,99.77,4.0,,0.0,0.0,
2025-08-15T01:23:15.934Z,13,GR86-062-012,-1.1,0.134,-0.046,99.77,4.0,,0.0,0.0,
2025-08-15T01:23:15.977Z,13,GR86-062-012,-1.1,0.124,-0.043,99.79,4.0,,0.0,0.0,
2025-08-15T01:23:16.020Z,13,GR86-062-012,-1.1,0.13,-0.034,99.8,4.0,7020.0,0.0,0.0,
2025-08-15T01:23:16.108Z,13,GR86-062-012,-1.1,0.126,-0.044,99.79,4.0,,0.0,0.0,179.55
2025-08-15T01:23:16.151Z,13,GR86-062-012,-1.1,0.133,-0.03,99.77,4.0,,0.0,0.0,
2025-08-15T01:23:16.194Z,13,GR86-062-012,-1.1,0.126,-0.045,99.78,4.0,,0.0,0.0,
2025-08-15T01:23:16.237Z,13,GR86-062-012,-1.1,0.11,-0.055,99.8,4.0,7085.0,0.0,0.0,
2025-08-15T01:23:16.280Z,13,GR86-062-012,-1.1,0.13,-0.063,99.77,4.0,,0.0,0.0,180.38
2025-08-15T01:23:16.326Z,13,GR86-062-012,-1.1,0.111,-0.055,99.77,4.0,,0.0,0.0,
2025-08-15T01:23:16.369Z,13,GR86-062-012,-1.2000000000000002,0.111,-0.078,99.76,4.0,,0.0,0.0,
2025-08-15T01:23:16.413Z,13,GR86-062-012,-1.3,0.132,-0.092,99.77,4.0,,0.0,0.0,
2025-08-15T01:23:16.458Z,13,GR86-062-012,-1.3,0.151,-0.088,99.77,4.0,7123.0,0.0,0.0,
2025-08-15T01:23:16.501Z,13,GR86-062-012,-1.3,0.117,-0.102,99.78,4.0,,0.0,0.0,181.15
2025-08-15T01:23:16.545Z,13,GR86-062-012,-1.3,0.135,-0.097,99.79,4.0,,0.0,0.0,
2025-08-15T01:23:16.588Z,13,GR86-062-012,-1.3,0.144,-0.102,99.79,4.0,,0.0,0.0,
2025-08-15T01:23:16.631Z,13,GR86-062-012,-1.3,0.131,-0.117,99.78,4.0,,0.0,0.0,
2025-08-15T01:23:16.674Z,13,GR86-062-012,-1.1,0.11,-0.113,99.8,4.0,7154.0,0.0,0.0,
2025-08-15T01:23:16.717Z,13,GR86-062-012,-1.1,0.12,-0.094,99.78,4.0,,0.0,0.0,181.85
2025-08-15T01:23:16.760Z,13,GR86-062-012,-1.1,0.1,-0.083,99.78,4.0,,0.0,0.0,
2025-08-15T01:23:16.804Z,13,GR86-062-012,-1.1,0.114,-0.064,99.78,4.0,,0.0,0.0,
2025-08-15T01:23:16.846Z,13,GR86-062-012,-1.1,0.112,-0.053,99.79,4.0,,0.0,0.0,
2025-08-15T01:23:16.889Z,13,GR86-062-012,-1.1,0.122,-0.042,99.8,4.0,7182.0,0.0,0.0,
2025-08-15T01:23:16.934Z,13,GR86-062-012,-1.3,0.12,-0.075,99.79,4.0,,0.0,0.0,182.78
2025-08-15T01:23:16.977Z,13,GR86-062-012,-1.3,0.128,-0.089,99.79,4.0,,0.0,0.0,
2025-08-15T01:23:17.020Z,13,GR86-062-012,-1.3,0.117,-0.088,99.77,4.0,,0.0,0.0,
2025-08-15T01:23:17.064Z,13,GR86-062-012,-1.4,0.126,-0.091,99.76,4.0,,0.0,0.0,
2025-08-15T01:23:17.107Z,13,GR86-062-012,-1.4,0.113,-0.088,99.79,4.0,7213.0,0.0,0.0,
2025-08-15T01:23:17.150Z,13,GR86-062-012,-1.4,0.125,-0.106,99.8,4.0,,0.0,0.0,183.65
2025-08-15T01:23:17.194Z,13,GR86-062-012,-1.4,0.119,-0.132,99.79,4.0,,0.0,0.0,
2025-08-15T01:23:17.237Z,13,GR86-062-012,-1.4,0.111,-0.126,99.77,4.0,,0.0,0.0,
2025-08-15T01:23:17.280Z,13,GR86-062-012,-2.2,0.12,-0.131,99.78,4.0,,0.0,0.0,
2025-08-15T01:23:17.324Z,13,GR86-062-012,-3.0,0.12,-0.143,99.8,4.0,7249.0,0.0,0.0,
2025-08-15T01:23:17.366Z,13,GR86-062-012,-3.1,0.121,-0.158,99.78,4.0,,0.0,0.0,184.29
2025-08-15T01:23:17.409Z,13,GR86-062-012,-3.1,0.056,-0.183,99.76,5.0,,0.0,0.0,
2025-08-15T01:23:17.453Z,13,GR86-062-012,-3.0,0.069,-0.142,99.79,5.0,,0.0,0.0,
2025-08-15T01:23:17.495Z,13,GR86-062-012,-2.0,0.205,-0.228,99.77,5.0,,0.0,0.0,
2025-08-15T01:23:17.538Z,13,GR86-062-012,-1.2000000000000002,0.206,-0.221,99.79,5.0,7270.0,0.0,0.0,
2025-08-15T01:23:17.581Z,13,GR86-062-012,-1.1,0.0,-0.098,99.79,5.0,,0.0,0.0,185.18
2025-08-15T01:23:17.624Z,13,GR86-062-012,-1.1,0.0,-0.187,99.78,5.0,,0.0,0.0,
2025-08-15T01:23:17.667Z,13,GR86-062-012,-1.1,0.125,-0.141,99.78,5.0,,0.0,0.0,
2025-08-15T01:23:17.710Z,13,GR86-062-012,-0.7000000000000001,0.142,-0.08,99.78,5.0,,0.0,0.0,
2025-08-15T01:23:17.754Z,13,GR86-062-012,0.9,0.087,-0.12,99.79,5.0,6987.0,0.0,0.0,
2025-08-15T01:23:17.797Z,13,GR86-062-012,1.5,0.11,-0.057,99.8,5.0,,0.0,0.0,185.9
2025-08-15T01:23:17.840Z,13,GR86-062-012,1.5,0.132,-0.065,99.76,5.0,,0.0,0.0,
2025-08-15T01:23:17.885Z,13,GR86-062-012,1.0,0.095,-0.052,99.77,5.0,,0.0,0.0,
2025-08-15T01:23:17.971Z,13,GR86-062-012,0.9,0.094,-0.028,99.78,5.0,6392.0,0.0,0.0,
2025-08-15T01:23:18.015Z,13,GR86-062-012,0.9,0.126,0.001,99.79,5.0,,0.0,0.0,186.66
2025-08-15T01:23:18.058Z,13,GR86-062-012,0.9,0.125,0.009,99.8,5.0,,0.0,0.0,
2025-08-15T01:23:18.101Z,13,GR86-062-012,0.9,0.125,0.012,99.79,5.0,,0.0,0.0,
2025-08-15T01:23:18.144Z,13,GR86-062-012,0.9,0.113,-0.004,99.77,5.0,,0.0,0.0,
2025-08-15T01:23:18.187Z,13,GR86-062-012,0.9,0.132,0.015,99.8,5.0,6385.0,0.0,0.0,
2025-08-15T01:23:18.230Z,13,GR86-062-012,0.8,0.119,-0.006,99.77,5.0,,0.0,0.0,187.37
2025-08-15T01:23:18.275Z,13,GR86-062-012,0.7000000000000001,0.089,0.006,99.78,5.0,,0.0,0.0,
2025-08-15T01:23:18.318Z,13,GR86-062-012,0.8,0.092,-0.003,99.8,5.0,,0.0,0.0,
2025-08-15T01:23:18.361Z,13,GR86-062-012,0.9,0.092,0.005,99.78,5.0,,0.0,0.0,
2025-08-15T01:23:18.404Z,13,GR86-062-012,0.9,0.101,-0.009,99.76,5.0,6393.0,0.0,0.0,
2025-08-15T01:23:18.447Z,13,GR86-062-012,0.9,0.112,-0.01,99.78,5.0,,0.0,0.0,188.65
2025-08-15T01:23:18.490Z,13,GR86-062-012,0.9,0.097,-0.009,99.77,5.0,,0.0,0.0,
2025-08-15T01:23:18.534Z,13,GR86-062-012,0.9,0.084,0.001,99.78,5.0,,0.0,0.0,
2025-08-15T01:23:18.577Z,13,GR86-062-012,0.9,0.098,0.008,99.78,5.0,,0.0,0.0,
2025-08-15T01:23:18.620Z,13,GR86-062-012,0.9,0.079,0.013,99.78,5.0,6422.0,0.0,0.0,
2025-08-15T01:23:18.664Z,13,GR86-062-012,0.9,0.078,-0.001,99.76,5.0,,0.0,0.0,189.32
2025-08-15T01:23:18.707Z,13,GR86-062-012,1.2000000000000002,0.078,0.025,99.77,5.0,,0.0,0.0,
2025-08-15T01:23:18.750Z,13,GR86-062-012,1.3,0.088,0.03,99.77,5.0,,0.0,0.0,
2025-08-15T01:23:18.794Z,13,GR86-062-012,1.3,0.098,0.017,99.77,5.0,,0.0,0.0,
2025-08-15T01:23:18.837Z,13,GR86-062-012,1.3,0.108,0.01,99.79,5.0,6465.0,0.0,0.0,
2025-08-15T01:23:18.880Z,13,GR86-062-012,1.3,0.088,0.005,99.79,5.0,,0.0,0.0,190.02
2025-08-15T01:23:18.924Z,13,GR86-062-012,1.3,0.089,-0.003,99.77,5.0,,0.0,0.0,
2025-08-15T01:23:18.966Z,13,GR86-062-012,1.3,0.091,0.02,99.78,5.0,,0.0,0.0,
2025-08-15T01:23:19.009Z,13,GR86-062-012,1.3,0.067,0.025,99.8,5.0,,0.0,0.0,
2025-08-15T01:23:19.053Z,13,GR86-062-012,1.3,0.116,0.04,99.78,5.0,6489.0,0.0,0.0,
2025-08-15T01:23:19.095Z,13,GR86-062-012,1.3,0.107,0.032,99.78,5.0,,0.0,0.0,190.61
2025-08-15T01:23:19.138Z,13,GR86-062-012,1.3,0.1,0.035,99.76,5.0,,0.0,0.0,
2025-08-15T01:23:19.181Z,13,GR86-062-012,0.7000000000000001,0.118,0.015,99.79,5.0,,0.0,0.0,
2025-08-15T01:23:19.224Z,13,GR86-062-012,-0.1,0.103,0.0,99.77,5.0,,0.0,0.0,
2025-08-15T01:23:19.267Z,13,GR86-062-012,-0.7000000000000001,0.076,-0.023,99.77,5.0,6511.0,0.0,0.0,
2025-08-15T01:23:19.310Z,13,GR86-062-012,-0.8,0.095,-0.044,99.79,5.0,,0.0,0.0,191.41
2025-08-15T01:23:19.354Z,13,GR86-062-012,-0.8,0.096,-0.078,99.77,5.0,,0.0,0.0,
2025-08-15T01:23:19.397Z,13,GR86-062-012,-0.8,0.11,-0.095,99.78,5.0,,0.0,0.0,
2025-08-15T01:23:19.440Z,13,GR86-062-012,-0.8,0.094,-0.102,99.77,5.0,,0.0,0.0,
2025-08-15T01:23:19.484Z,13,GR86-062-012,-0.8,0.099,-0.108,99.77,5.0,6530.0,0.0,0.0,
2025-08-15T01:23:19.527Z,13,GR86-062-012,-0.8,0.097,-0.122,99.79,5.0,,0.0,0.0,191.99
2025-08-15T01:23:19.570Z,13,GR86-062-012,-0.8,0.086,-0.11,99.77,5.0,,0.0,0.0,
2025-08-15T01:23:19.614Z,13,GR86-062-012,-0.8,0.091,-0.086,99.77,5.0,,0.0,0.0,
2025-08-15T01:23:19.658Z,13,GR86-062-012,-0.8,0.117,-0.092,99.78,5.0,,0.0,0.0,
2025-08-15T01:23:19.701Z,13,GR86-062-012,-0.8,0.093,-0.103,99.77,5.0,6549.0,0.0,0.0,
2025-08-15T01:23:19.744Z,13,GR86-062-012,-0.8,0.099,-0.112,99.8,5.0,,0.0,0.0,192.59
2025-08-15T01:23:19.787Z,13,GR86-062-012,-0.8,0.113,-0.103,99.76,5.0,,0.0,0.0,
2025-08-15T01:23:19.830Z,13,GR86-062-012,-0.8,0.097,-0.077,99.76,5.0,,0.0,0.0,
2025-08-15T01:23:19.874Z,13,GR86-062-012,-0.7000000000000001,0.083,-0.058,99.77,5.0,,0.0,0.0,
2025-08-15T01:23:19.917Z,13,GR86-062-012,-0.6000000000000001,0.099,-0.061,99.77,5.0,6572.0,0.0,0.0,
2025-08-15T01:23:19.960Z,13,GR86-062-012,-0.6000000000000001,0.084,-0.082,99.79,5.0,,0.0,0.0,193.23
2025-08-15T01:23:20.004Z,13,GR86-062-012,-0.5,0.089,-0.078,99.76,5.0,,0.0,0.0,
2025-08-15T01:23:20.046Z,13,GR86-062-012,-0.5,0.09,-0.077,99.76,5.0,,0.0,0.0,
2025-08-15T01:23:20.089Z,13,GR86-062-012,-0.4,0.099,-0.067,99.77,5.0,,0.0,0.0,
2025-08-15T01:23:20.134Z,13,GR86-062-012,-0.3,0.087,-0.052,99.78,5.0,6593.0,0.0,0.0,
2025-08-15T01:23:20.177Z,13,GR86-062-012,-0.3,0.102,-0.055,99.76,5.0,,0.0,0.0,193.82
2025-08-15T01:23:20.220Z,13,GR86-062-012,-0.2,0.1,-0.056,99.78,5.0,,0.0,0.0,
2025-08-15T01:23:20.265Z,13,GR86-062-012,-0.1,0.101,-0.055,99.78,5.0,,0.0,0.0,
2025-08-15T01:23:20.308Z,13,GR86-062-012,0.0,0.096,-0.06,99.78,5.0,,0.0,0.0,
2025-08-15T01:23:20.351Z,13,GR86-062-012,0.3,0.081,-0.029,99.78,5.0,6616.0,0.0,0.0,
2025-08-15T01:23:20.394Z,13,GR86-062-012,1.0,0.094,-0.009,99.77,5.0,,0.0,0.0,194.35
2025-08-15T01:23:20.437Z,13,GR86-062-012,1.4,0.097,-0.014,99.79,5.0,,0.0,0.0,
2025-08-15T01:23:20.480Z,13,GR86-062-012,1.6,0.1,-0.009,99.78,5.0,,0.0,0.0,
2025-08-15T01:23:20.526Z,13,GR86-062-012,1.8,0.088,-0.002,99.77,5.0,,0.0,0.0,
2025-08-15T01:23:20.569Z,13,GR86-062-012,2.4000000000000004,0.09,0.001,99.76,5.0,6635.0,0.0,0.0,
2025-08-15T01:23:20.613Z,13,GR86-062-012,3.3000000000000003,0.103,0.035,99.77,5.0,,0.0,0.0,194.86
2025-08-15T01:23:20.658Z,13,GR86-062-012,3.5,0.093,0.072,99.78,5.0,,0.0,0.0,
2025-08-15T01:23:20.701Z,13,GR86-062-012,3.5,0.095,0.058,99.78,5.0,,0.0,0.0,
2025-08-15T01:23:20.745Z,13,GR86-062-012,3.5,0.088,0.086,99.77,5.0,,0.0,0.0,
2025-08-15T01:23:20.788Z,13,GR86-062-012,3.7,0.08,0.099,99.77,5.0,6646.0,0.0,0.0,
2025-08-15T01:23:20.874Z,13,GR86-062-012,4.3,0.094,0.134,99.77,5.0,,0.0,0.0,195.45
2025-08-15T01:23:20.917Z,13,GR86-062-012,4.9,0.1,0.185,99.77,5.0,,0.0,0.0,
2025-08-15T01:23:20.960Z,13,GR86-062-012,4.9,0.088,0.194,99.78,5.0,,0.0,0.0,
2025-08-15T01:23:21.004Z,13,GR86-062-012,4.9,0.097,0.209,99.78,5.0,6669.0,0.0,0.0,
2025-08-15T01:23:21.046Z,13,GR86-062-012,4.9,0.088,0.216,99.77,5.0,,0.0,0.0,196.68
2025-08-15T01:23:21.089Z,13,GR86-062-012,4.9,0.094,0.198,99.76,5.0,,0.0,0.0,
2025-08-15T01:23:21.134Z,13,GR86-062-012,4.9,0.102,0.229,99.77,5.0,,0.0,0.0,
2025-08-15T01:23:21.177Z,13,GR86-062-012,4.9,0.079,0.217,99.77,5.0,,0.0,0.0,
2025-08-15T01:23:21.220Z,13,GR86-062-012,4.9,0.098,0.216,99.78,5.0,6695.0,0.0,0.0,
2025-08-15T01:23:21.264Z,13,GR86-062-012,5.0,0.094,0.197,99.79,5.0,,0.0,0.0,197.3
2025-08-15T01:23:21.306Z,13,GR86-062-012,5.0,0.083,0.208,99.79,5.0,,0.0,0.0,
2025-08-15T01:23:21.349Z,13,GR86-062-012,5.0,0.108,0.21,99.77,5.0,,0.0,0.0,
2025-08-15T01:23:21.393Z,13,GR86-062-012,5.1000000000000005,0.102,0.229,99.76,5.0,,0.0,0.0,
2025-08-15T01:23:21.435Z,13,GR86-062-012,5.7,0.085,0.216,99.77,5.0,6736.0,0.0,0.0,
2025-08-15T01:23:21.478Z,13,GR86-062-012,6.7,0.089,0.226,99.77,5.0,,0.0,0.0,197.99
2025-08-15T01:23:21.521Z,13,GR86-062-012,7.4,0.088,0.225,99.77,5.0,,0.0,0.0,
2025-08-15T01:23:21.566Z,13,GR86-062-012,7.5,0.098,0.274,99.76,5.0,,0.0,0.0,
2025-08-15T01:23:21.608Z,13,GR86-062-012,7.5,0.111,0.281,99.78,5.0,,0.0,0.0,
2025-08-15T01:23:21.651Z,13,GR86-062-012,7.5,0.113,0.3,99.76,5.0,6760.0,0.0,0.0,
2025-08-15T01:23:21.694Z,13,GR86-062-012,7.5,0.089,0.313,99.76,5.0,,0.0,0.0,198.66
2025-08-15T01:23:21.737Z,13,GR86-062-012,7.5,0.095,0.331,99.77,5.0,,0.0,0.0,
2025-08-15T01:23:21.780Z,13,GR86-062-012,7.5,0.089,0.334,99.76,5.0,,0.0,0.0,
2025-08-15T01:23:21.824Z,13,GR86-062-012,7.5,0.102,0.344,99.77,5.0,,0.0,0.0,
2025-08-15T01:23:21.868Z,13,GR86-062-012,7.5,0.101,0.353,99.76,5.0,6779.0,0.0,0.0,
2025-08-15T01:23:21.911Z,13,GR86-062-012,7.5,0.108,0.354,99.77,5.0,,0.0,0.0,199.23
2025-08-15T01:23:21.954Z,13,GR86-062-012,7.5,0.084,0.318,99.78,5.0,,0.0,0.0,
2025-08-15T01:23:21.997Z,13,GR86-062-012,7.2,0.093,0.329,99.75,5.0,,0.0,0.0,
2025-08-15T01:23:22.040Z,13,GR86-062-012,6.0,0.109,0.333,99.76,5.0,,0.0,0.0,
2025-08-15T01:23:22.085Z,13,GR86-062-012,5.1000000000000005,0.11,0.31,99.76,5.0,6796.0,0.0,0.0,
2025-08-15T01:23:22.171Z,13,GR86-062-012,4.800000000000001,0.089,0.267,99.77,5.0,,0.0,0.0,199.87
2025-08-15T01:23:22.214Z,13,GR86-062-012,4.800000000000001,0.101,0.222,99.76,5.0,,0.0,0.0,
2025-08-15T01:23:22.257Z,13,GR86-062-012,4.800000000000001,0.098,0.199,99.77,5.0,,0.0,0.0,
2025-08-15T01:23:22.300Z,13,GR86-062-012,4.9,0.102,0.19,99.77,5.0,6832.0,0.0,0.0,
2025-08-15T01:23:22.344Z,13,GR86-062-012,5.0,0.087,0.184,99.78,5.0,,0.0,0.0,200.47
2025-08-15T01:23:22.387Z,13,GR86-062-012,5.1000000000000005,0.066,0.183,99.77,5.0,,0.0,0.0,
2025-08-15T01:23:22.430Z,13,GR86-062-012,5.1000000000000005,0.056,0.176,99.75,5.0,,0.0,0.0,
2025-08-15T01:23:22.475Z,13,GR86-062-012,5.1000000000000005,0.069,0.187,99.77,5.0,,0.0,0.0,
2025-08-15T01:23:22.519Z,13,GR86-062-012,5.2,0.079,0.204,99.76,5.0,6835.0,0.0,0.0,
2025-08-15T01:23:22.563Z,13,GR86-062-012,5.2,0.065,0.197,99.77,5.0,,0.0,0.0,201.03
2025-08-15T01:23:22.606Z,13,GR86-062-012,5.2,0.05,0.207,99.76,5.0,,0.0,0.0,
2025-08-15T01:23:22.649Z,13,GR86-062-012,5.2,0.06,0.215,99.76,5.0,,0.0,0.0,
2025-08-15T01:23:22.693Z,13,GR86-062-012,5.1000000000000005,0.089,0.221,99.76,5.0,,0.0,0.0,
2025-08-15T01:23:22.735Z,13,GR86-062-012,5.2,0.066,0.229,99.76,5.0,6856.0,0.0,0.0,
2025-08-15T01:23:22.778Z,13,GR86-062-012,5.300000000000001,0.064,0.205,99.76,5.0,,0.0,0.0,201.47
2025-08-15T01:23:22.821Z,13,GR86-062-012,6.4,0.074,0.228,99.78,5.0,,0.0,0.0,
2025-08-15T01:23:22.864Z,13,GR86-062-012,7.6,0.089,0.236,99.78,5.0,,0.0,0.0,
2025-08-15T01:23:22.907Z,13,GR86-062-012,8.0,0.099,0.248,99.77,5.0,,0.0,0.0,
2025-08-15T01:23:22.950Z,13,GR86-062-012,8.0,0.093,0.262,99.76,5.0,6869.0,0.0,0.0,
2025-08-15T01:23:22.994Z,13,GR86-062-012,6.800000000000001,0.084,0.282,99.76,5.0,,0.0,0.0,202.04
2025-08-15T01:23:23.037Z,13,GR86-062-012,5.6000000000000005,0.09,0.274,99.77,5.0,,0.0,0.0,
2025-08-15T01:23:23.079Z,13,GR86-062-012,5.2,0.101,0.294,99.77,5.0,,0.0,0.0,
2025-08-15T01:23:23.123Z,13,GR86-062-012,5.1000000000000005,0.098,0.284,99.77,5.0,,0.0,0.0,
2025-08-15T01:23:23.166Z,13,GR86-062-012,5.1000000000000005,0.091,0.294,99.77,5.0,6891.0,0.0,0.0,
2025-08-15T01:23:23.209Z,13,GR86-062-012,5.2,0.083,0.283,99.77,5.0,,0.0,0.0,202.65
2025-08-15T01:23:23.253Z,13,GR86-062-012,6.4,0.1,0.282,99.76,5.0,,0.0,0.0,
2025-08-15T01:23:23.295Z,13,GR86-062-012,7.1000000000000005,0.09,0.287,99.76,5.0,,0.0,0.0,
2025-08-15T01:23:23.338Z,13,GR86-062-012,7.2,0.097,0.288,99.77,5.0,,0.0,0.0,
2025-08-15T01:23:23.381Z,13,GR86-062-012,7.300000000000001,0.065,0.29,99.77,5.0,6916.0,0.0,0.0,
2025-08-15T01:23:23.424Z,13,GR86-062-012,7.2,0.072,0.29,99.76,5.0,,0.0,0.0,203.08
2025-08-15T01:23:23.468Z,13,GR86-062-012,5.800000000000001,0.056,0.28,99.77,5.0,,0.0,0.0,
2025-08-15T01:23:23.511Z,13,GR86-062-012,4.7,0.08,0.276,99.77,5.0,,0.0,0.0,
2025-08-15T01:23:23.554Z,13,GR86-062-012,2.9000000000000004,0.073,0.28,99.76,5.0,,0.0,0.0,
2025-08-15T01:23:23.597Z,13,GR86-062-012,2.8000000000000003,0.078,0.276,99.76,5.0,6930.0,0.0,0.0,
2025-08-15T01:23:23.640Z,13,GR86-062-012,2.8000000000000003,0.077,0.278,99.76,5.0,,0.0,0.0,204.22
2025-08-15T01:23:23.684Z,13,GR86-062-012,2.9000000000000004,0.095,0.257,99.77,5.0,,0.0,0.0,
2025-08-15T01:23:23.727Z,13,GR86-062-012,3.3000000000000003,0.109,0.25,99.76,5.0,,0.0,0.0,
2025-08-15T01:23:23.770Z,13,GR86-062-012,4.3,0.105,0.207,99.76,5.0,,0.0,0.0,
2025-08-15T01:23:23.814Z,13,GR86-062-012,6.1000000000000005,0.087,0.188,99.76,5.0,6956.0,0.0,0.0,
2025-08-15T01:23:23.858Z,13,GR86-062-012,7.5,0.102,0.192,99.77,5.0,,0.0,0.0,204.81
2025-08-15T01:23:23.900Z,13,GR86-062-012,8.3,0.077,0.183,99.77,5.0,,0.0,0.0,
2025-08-15T01:23:23.944Z,13,GR86-062-012,8.700000000000001,0.09,0.225,99.76,5.0,,0.0,0.0,
2025-08-15T01:23:23.986Z,13,GR86-062-012,9.0,0.073,0.243,98.93,5.0,,0.0,0.0,
2025-08-15T01:23:24.029Z,13,GR86-062-012,9.2,0.065,0.308,85.8,5.0,6987.0,0.0,0.0,
2025-08-15T01:23:24.073Z,13,GR86-062-012,9.3,0.091,0.377,79.21000000000001,5.0,,0.0,0.0,205.76
2025-08-15T01:23:24.117Z,13,GR86-062-012,9.4,0.074,0.412,77.73,5.0,,0.0,0.0,
2025-08-15T01:23:24.160Z,13,GR86-062-012,9.1,0.053,0.438,71.65,5.0,,0.0,0.0,
2025-08-15T01:23:24.204Z,13,GR86-062-012,8.3,0.06,0.457,71.02,5.0,,0.0,0.0,
2025-08-15T01:23:24.246Z,13,GR86-062-012,8.1,0.064,0.47,71.25,5.0,7020.0,0.0,0.0,
2025-08-15T01:23:24.289Z,13,GR86-062-012,8.1,0.074,0.474,71.3,5.0,,0.0,0.0,206.14
2025-08-15T01:23:24.334Z,13,GR86-062-012,8.0,0.067,0.433,32.75,5.0,,0.0,0.0,
2025-08-15T01:23:24.377Z,13,GR86-062-012,8.0,0.084,0.386,6.57,5.0,,0.0,0.0,
2025-08-15T01:23:24.420Z,13,GR86-062-012,8.0,0.047,0.364,4.59,5.0,,0.0,0.0,
2025-08-15T01:23:24.465Z,13,GR86-062-012,8.1,-0.065,0.333,4.24,5.0,7037.0,0.0,0.0,
2025-08-15T01:23:24.507Z,13,GR86-062-012,8.1,-0.11,0.324,3.95,5.0,,0.0,0.0,206.96
2025-08-15T01:23:24.550Z,13,GR86-062-012,8.1,-0.37,0.275,3.79,5.0,,0.0,0.0,
2025-08-15T01:23:24.594Z,13,GR86-062-012,7.5,-0.107,0.31,3.51,5.0,,9.155,9.4,
2025-08-15T01:23:24.637Z,13,GR86-062-012,7.300000000000001,-0.256,0.305,3.28,5.0,,14.085,14.42,
2025-08-15T01:23:24.680Z,13,GR86-062-012,7.2,-0.396,0.322,2.99,5.0,6996.0,20.6,20.785,
2025-08-15T01:23:24.726Z,13,GR86-062-012,7.2,-0.544,0.327,2.68,5.0,,31.65,31.54,207.45
2025-08-15T01:23:24.769Z,13,GR86-062-012,6.800000000000001,-0.6940000000000001,0.293,2.49,5.0,,43.14,43.05,
2025-08-15T01:23:24.813Z,13,GR86-062-012,4.6000000000000005,-0.921,0.274,2.37,5.0,,58.705,58.28,
2025-08-15T01:23:24.899Z,13,GR86-062-012,1.3,-1.21,0.197,2.32,5.0,6915.0,76.56,75.995,
2025-08-15T01:23:24.943Z,13,GR86-062-012,0.7000000000000001,-1.305,0.203,2.32,5.0,,83.015,82.405,207.31
2025-08-15T01:23:24.985Z,13,GR86-062-012,-0.2,-1.308,0.199,2.33,5.0,,87.15,86.555,
2025-08-15T01:23:25.028Z,13,GR86-062-012,-2.1,-1.292,0.187,2.34,5.0,,88.615,88.28,
2025-08-15T01:23:25.071Z,13,GR86-062-012,-3.3000000000000003,-1.284,0.192,2.34,5.0,,88.34,88.4,
2025-08-15T01:23:25.114Z,13,GR86-062-012,-3.9,-1.293,0.205,2.36,5.0,6669.0,82.555,84.205,
2025-08-15T01:23:25.157Z,13,GR86-062-012,-5.6000000000000005,-1.286,0.248,2.36,5.0,,80.16,82.435,203.69
2025-08-15T01:23:25.201Z,13,GR86-062-012,-7.300000000000001,-1.37,0.311,11.8,5.0,,81.0,83.305,
2025-08-15T01:23:25.245Z,13,GR86-062-012,-8.6,-1.328,0.251,53.02,5.0,,82.235,84.39,
2025-08-15T01:23:25.288Z,13,GR86-062-012,-9.3,-1.32,0.459,81.79,5.0,,83.015,83.61,
2025-08-15T01:23:25.331Z,13,GR86-062-012,-11.1,-1.289,0.374,27.24,4.0,5963.0,82.89,82.71000000000001,
2025-08-15T01:23:25.374Z,13,GR86-062-012,-13.2,-1.21,0.262,5.65,4.0,,84.42,86.4,195.3
2025-08-15T01:23:25.417Z,13,GR86-062-012,-14.9,-1.265,0.317,5.48,4.0,,86.465,88.705,
2025-08-15T01:23:25.460Z,13,GR86-062-012,-15.3,-1.306,0.182,5.1000000000000005,4.0,,87.425,88.645,
2025-08-15T01:23:25.504Z,13,GR86-062-012,-15.2,-1.39,0.147,4.59,4.0,,84.51,86.34,
2025-08-15T01:23:25.546Z,13,GR86-062-012,-12.7,-1.33,0.057,4.07,4.0,5561.0,85.96000000000001,87.805,
2025-08-15T01:23:25.589Z,13,GR86-062-012,-9.9,-1.277,0.019,3.83,4.0,,85.5,86.815,184.87
2025-08-15T01:23:25.634Z,13,GR86-062-012,-2.9000000000000004,-1.251,-0.034,20.91,3.0,,84.615,86.19,
2025-08-15T01:23:25.677Z,13,GR86-062-012,1.7000000000000002,-1.335,-0.081,52.23,3.0,,86.25,88.05,
2025-08-15T01:23:25.720Z,13,GR86-062-012,4.6000000000000005,-1.275,-0.029,6.19,3.0,,87.775,89.925,
2025-08-15T01:23:25.764Z,13,GR86-062-012,6.0,-1.465,-0.129,5.03,3.0,6325.0,90.14,91.47,
2025-08-15T01:23:25.806Z,13,GR86-062-012,8.5,-1.422,-0.246,4.62,3.0,,87.455,87.93,179.93
2025-08-15T01:23:25.849Z,13,GR86-062-012,10.5,-1.268,-0.112,4.09,3.0,,87.9,89.635,
2025-08-15T01:23:25.893Z,13,GR86-062-012,15.3,-1.206,-0.441,3.79,3.0,,87.395,88.495,
2025-08-15T01:23:25.935Z,13,GR86-062-012,18.9,-1.327,-0.131,3.61,3.0,,88.14,89.99,
2025-08-15T01:23:25.978Z,13,GR86-062-012,19.3,-1.219,-0.232,3.41,3.0,6184.0,88.95,90.49,
2025-08-15T01:23:26.021Z,13,GR86-062-012,18.5,-1.261,-0.221,3.12,3.0,,89.18,90.385,169.33
2025-08-15T01:23:26.064Z,13,GR86-062-012,16.0,-1.294,-0.181,10.46,3.0,,87.745,88.11,
2025-08-15T01:23:26.107Z,13,GR86-062-012,11.7,-1.238,-0.176,51.54,3.0,,87.18,87.06,
2025-08-15T01:23:26.150Z,13,GR86-062-012,8.0,-1.272,-0.106,53.57,2.0,,91.255,92.155,
2025-08-15T01:23:26.194Z,13,GR86-062-012,4.800000000000001,-1.388,-0.089,4.3500000000000005,2.0,6885.0,95.51,97.525,
2025-08-15T01:23:26.237Z,13,GR86-062-012,4.4,-1.432,-0.051,4.0200000000000005,2.0,,96.67,98.9,153.0
2025-08-15T01:23:26.280Z,13,GR86-062-012,4.800000000000001,-1.487,-0.104,3.83,2.0,,97.59,98.9,
2025-08-15T01:23:26.324Z,13,GR86-062-012,5.300000000000001,-1.367,0.086,3.67,2.0,,99.525,101.385,
2025-08-15T01:23:26.366Z,13,GR86-062-012,5.4,-1.335,-0.092,3.51,2.0,,99.83,100.84,
2025-08-15T01:23:26.409Z,13,GR86-062-012,5.5,-1.362,0.027,3.31,2.0,6454.0,98.185,99.28,
2025-08-15T01:23:26.453Z,13,GR86-062-012,5.5,-1.332,0.065,2.84,2.0,,94.155,95.71,143.89
2025-08-15T01:23:26.495Z,13,GR86-062-012,5.5,-1.332,-0.025,2.58,2.0,,84.77,85.625,
2025-08-15T01:23:26.538Z,13,GR86-062-012,5.6000000000000005,-1.305,0.083,2.41,2.0,,74.285,74.775,
2025-08-15T01:23:26.581Z,13,GR86-062-012,5.6000000000000005,-1.181,0.101,2.35,2.0,,67.94,69.13,
2025-08-15T01:23:26.624Z,13,GR86-062-012,5.6000000000000005,-0.984,0.036,12.27,2.0,6513.0,59.085,59.71,
2025-08-15T01:23:26.667Z,13,GR86-062-012,5.6000000000000005,-1.132,0.124,53.75,2.0,,54.385,54.92,133.83
2025-08-15T01:23:26.710Z,13,GR86-062-012,5.6000000000000005,-1.105,0.117,92.85,1.0,,54.355,54.83,
2025-08-15T01:23:26.754Z,13,GR86-062-012,5.6000000000000005,-1.193,0.134,11.45,1.0,,54.585,55.395,
2025-08-15T01:23:26.797Z,13,GR86-062-012,5.6000000000000005,-1.229,0.249,3.15,1.0,,57.120000000000005,58.370000000000005,
2025-08-15T01:23:26.840Z,13,GR86-062-012,6.800000000000001,-1.313,0.118,2.93,1.0,6771.0,59.865,60.795,
2025-08-15T01:23:26.885Z,13,GR86-062-012,7.7,-1.348,0.213,2.81,1.0,,57.715,58.615,125.85
2025-08-15T01:23:26.928Z,13,GR86-062-012,7.6,-1.076,0.349,2.72,1.0,,52.31,53.715,
2025-08-15T01:23:26.971Z,13,GR86-062-012,7.4,-0.889,0.196,2.7,1.0,,43.43,44.225,
2025-08-15T01:23:27.016Z,13,GR86-062-012,6.300000000000001,-0.96,0.382,2.65,1.0,,27.225,28.43,
2025-08-15T01:23:27.058Z,13,GR86-062-012,5.6000000000000005,-0.768,0.317,2.58,1.0,7249.0,23.775,24.49,
2025-08-15T01:23:27.101Z,13,GR86-062-012,5.6000000000000005,-0.872,0.279,2.5500000000000003,1.0,,23.62,24.2,119.34
2025-08-15T01:23:27.145Z,13,GR86-062-012,10.2,-0.866,0.461,2.53,1.0,,24.675,25.21,
2025-08-15T01:23:27.188Z,13,GR86-062-012,18.5,-0.756,0.303,2.5,1.0,,25.12,25.835,
2025-08-15T01:23:27.231Z,13,GR86-062-012,22.0,-0.673,0.389,2.49,1.0,,25.15,25.835,
2025-08-15T01:23:27.275Z,13,GR86-062-012,26.9,-0.654,0.468,2.45,1.0,7503.0,26.355,26.905,
2025-08-15T01:23:27.318Z,13,GR86-062-012,30.5,-0.654,0.471,2.45,1.0,,26.57,27.315,111.62
2025-08-15T01:23:27.361Z,13,GR86-062-012,34.0,-0.6930000000000001,0.548,2.46,1.0,,24.92,25.895,
2025-08-15T01:23:27.404Z,13,GR86-062-012,37.5,-0.659,0.612,2.46,1.0,,23.56,24.525,
2025-08-15T01:23:27.447Z,13,GR86-062-012,41.6,-0.665,0.659,2.46,1.0,,23.27,23.99,
2025-08-15T01:23:27.490Z,13,GR86-062-012,44.7,-0.653,0.76,2.45,1.0,7628.0,24.2,24.795,
2025-08-15T01:23:27.534Z,13,GR86-062-012,44.5,-0.643,0.864,2.46,1.0,,26.02,26.57,106.28
2025-08-15T01:23:27.577Z,13,GR86-062-012,41.5,-0.657,0.864,2.45,1.0,,26.05,26.66,
2025-08-15T01:23:27.620Z,13,GR86-062-012,40.3,-0.617,0.913,2.45,1.0,,26.43,27.255,
2025-08-15T01:23:27.664Z,13,GR86-062-012,40.1,-0.657,0.896,2.46,1.0,,26.355,26.995,
2025-08-15T01:23:27.706Z,13,GR86-062-012,40.6,-0.612,0.954,2.46,1.0,7217.0,21.775,22.815,
2025-08-15T01:23:27.749Z,13,GR86-062-012,42.3,-0.466,0.956,2.46,1.0,,11.43,12.145,101.58
2025-08-15T01:23:27.793Z,13,GR86-062-012,46.900000000000006,-0.244,1.039,2.45,1.0,,0.0,1.8,
2025-08-15T01:23:27.835Z,13,GR86-062-012,52.0,-0.262,1.025,2.46,1.0,,0.0,0.0,
2025-08-15T01:23:27.878Z,13,GR86-062-012,57.1,-0.24,1.041,4.28,1.0,,0.0,0.0,
2025-08-15T01:23:27.921Z,13,GR86-062-012,61.6,-0.202,1.085,5.87,1.0,6866.0,0.0,0.0,
2025-08-15T01:23:27.964Z,13,GR86-062-012,65.8,-0.163,1.096,18.32,1.0,,0.0,0.0,98.15
2025-08-15T01:23:28.007Z,13,GR86-062-012,67.8,-0.154,1.129,21.58,1.0,,0.0,0.0,
2025-08-15T01:23:28.050Z,13,GR86-062-012,67.60000000000001,-0.163,1.114,23.62,1.0,,0.0,0.0,
2025-08-15T01:23:28.094Z,13,GR86-062-012,63.900000000000006,-0.034,1.125,23.82,1.0,,0.0,0.0,
2025-08-15T01:23:28.137Z,13,GR86-062-012,63.6,-0.081,1.112,25.46,1.0,6586.0,0.0,0.0,
2025-08-15T01:23:28.180Z,13,GR86-062-012,65.5,0.029,1.138,24.66,1.0,,0.0,0.0,94.35
2025-08-15T01:23:28.224Z,13,GR86-062-012,66.9,0.227,1.071,23.41,1.0,,0.0,0.0,
2025-08-15T01:23:28.267Z,13,GR86-062-012,68.2,0.25,1.113,23.95,1.0,,0.0,0.0,
2025-08-15T01:23:28.310Z,13,GR86-062-012,68.9,0.198,1.121,24.67,1.0,,0.0,0.0,
2025-08-15T01:23:28.354Z,13,GR86-062-012,69.3,0.063,1.118,28.09,1.0,6558.0,0.0,0.0,
2025-08-15T01:23:28.397Z,13,GR86-062-012,69.3,0.02,1.172,27.92,1.0,,0.0,0.0,92.11
2025-08-15T01:23:28.440Z,13,GR86-062-012,70.10000000000001,0.046,1.188,19.79,1.0,,0.0,0.0,
2025-08-15T01:23:28.484Z,13,GR86-062-012,72.8,0.09,1.198,5.73,1.0,,0.0,0.0,
2025-08-15T01:23:28.527Z,13,GR86-062-012,76.7,0.103,1.176,4.91,1.0,,0.0,0.0,
2025-08-15T01:23:28.570Z,13,GR86-062-012,80.4,0.048,1.224,4.76,1.0,6889.0,0.0,0.0,
2025-08-15T01:23:28.614Z,13,GR86-062-012,84.60000000000001,-0.069,1.182,4.08,1.0,,0.0,0.0,91.08
2025-08-15T01:23:28.658Z,13,GR86-062-012,85.30000000000001,-0.062,1.202,3.79,1.0,,0.0,0.0,
2025-08-15T01:23:28.700Z,13,GR86-062-012,85.30000000000001,-0.107,1.23,3.5700000000000003,1.0,,0.0,0.0,
2025-08-15T01:23:28.744Z,13,GR86-062-012,84.0,-0.237,1.297,3.29,1.0,,0.0,0.0,
2025-08-15T01:23:28.786Z,13,GR86-062-012,82.4,-0.202,1.332,2.99,1.0,6767.0,0.0,0.0,
2025-08-15T01:23:28.829Z,13,GR86-062-012,80.5,-0.146,1.23,2.67,1.0,,0.0,0.0,91.17
2025-08-15T01:23:28.873Z,13,GR86-062-012,75.8,-0.145,1.186,2.44,1.0,,0.0,0.0,
2025-08-15T01:23:28.916Z,13,GR86-062-012,68.0,-0.247,1.401,2.38,1.0,,0.0,0.0,
2025-08-15T01:23:28.958Z,13,GR86-062-012,58.2,-0.243,1.253,2.36,1.0,,0.0,0.0,
2025-08-15T01:23:29.001Z,13,GR86-062-012,50.900000000000006,-0.166,1.174,2.35,1.0,6532.0,0.0,0.0,
2025-08-15T01:23:29.045Z,13,GR86-062-012,48.900000000000006,-0.159,1.123,2.36,1.0,,0.0,0.0,91.21
2025-08-15T01:23:29.088Z,13,GR86-062-012,49.1,-0.08,1.178,2.36,1.0,,0.0,0.0,
2025-08-15T01:23:29.131Z,13,GR86-062-012,53.0,-0.137,1.049,2.36,1.0,,0.0,0.0,
2025-08-15T01:23:29.174Z,13,GR86-062-012,54.1,-0.241,1.007,2.37,1.0,,0.0,0.0,
2025-08-15T01:23:29.217Z,13,GR86-062-012,49.6,-0.196,1.273,2.77,1.0,6305.0,0.0,0.0,
2025-08-15T01:23:29.260Z,13,GR86-062-012,40.7,0.011,1.069,2.52,1.0,,0.0,0.0,90.05
2025-08-15T01:23:29.304Z,13,GR86-062-012,29.9,-0.039,1.121,2.54,1.0,,0.0,0.0,
2025-08-15T01:23:29.346Z,13,GR86-062-012,26.700000000000003,-0.067,1.092,2.53,1.0,,0.0,0.0,
2025-08-15T01:23:29.389Z,13,GR86-062-012,33.7,-0.083,0.91,2.5500000000000003,1.0,,0.0,0.0,
2025-08-15T01:23:29.520Z,13,GR86-062-012,74.0,-0.313,1.546,6.23,1.0,6183.0,0.0,0.0,88.03
2025-08-15T01:23:29.564Z,13,GR86-062-012,79.9,-0.079,1.251,7.930000000000001,1.0,,0.0,0.0,
2025-08-15T01:23:29.607Z,13,GR86-062-012,80.2,-0.194,1.304,9.97,1.0,,0.0,0.0,
2025-08-15T01:23:29.650Z,13,GR86-062-012,81.5,-0.098,1.361,18.72,1.0,5933.0,0.0,0.0,
2025-08-15T01:23:29.694Z,13,GR86-062-012,85.80000000000001,-0.14,1.359,26.94,1.0,,0.0,0.0,86.45
2025-08-15T01:23:29.737Z,13,GR86-062-012,87.7,-0.156,1.336,26.35,1.0,,0.0,0.0,
2025-08-15T01:23:29.780Z,13,GR86-062-012,88.4,-0.053,1.219,27.72,1.0,,0.0,0.0,
2025-08-15T01:23:29.825Z,13,GR86-062-012,88.5,-0.063,1.22,29.04,1.0,,0.0,0.0,
2025-08-15T01:23:29.868Z,13,GR86-062-012,88.5,0.111,1.179,28.8,1.0,5984.0,0.0,0.0,
2025-08-15T01:23:29.911Z,13,GR86-062-012,89.0,0.248,1.186,30.69,1.0,,0.0,0.0,84.49
2025-08-15T01:23:29.954Z,13,GR86-062-012,89.60000000000001,0.273,1.146,31.46,1.0,,0.0,0.0,
2025-08-15T01:23:29.997Z,13,GR86-062-012,89.60000000000001,0.251,1.212,31.67,1.0,,0.0,0.0,
2025-08-15T01:23:30.040Z,13,GR86-062-012,89.9,0.197,1.105,32.03,1.0,,0.0,0.0,
2025-08-15T01:23:30.084Z,13,GR86-062-012,90.2,0.151,1.194,32.15,1.0,6307.0,0.0,0.0,
2025-08-15T01:23:30.127Z,13,GR86-062-012,90.2,0.138,1.207,32.1,1.0,,0.0,0.0,83.22
2025-08-15T01:23:30.170Z,13,GR86-062-012,90.2,0.141,1.203,32.08,1.0,,0.0,0.0,
2025-08-15T01:23:30.214Z,13,GR86-062-012,90.1,0.158,1.214,31.86,1.0,,0.0,0.0,
2025-08-15T01:23:30.258Z,13,GR86-062-012,87.9,0.197,1.268,31.76,1.0,,0.0,0.0,
2025-08-15T01:23:30.300Z,13,GR86-062-012,82.10000000000001,0.209,1.194,31.76,1.0,6207.0,0.0,0.0,
2025-08-15T01:23:30.344Z,13,GR86-062-012,72.4,0.24,1.266,31.88,1.0,,0.0,0.0,82.56
2025-08-15T01:23:30.386Z,13,GR86-062-012,62.900000000000006,0.222,1.308,32.83,1.0,,0.0,0.0,
2025-08-15T01:23:30.429Z,13,GR86-062-012,56.400000000000006,0.193,1.252,33.480000000000004,1.0,,0.0,0.0,
2025-08-15T01:23:30.473Z,13,GR86-062-012,51.900000000000006,0.216,1.258,35.7,1.0,,0.0,0.0,
2025-08-15T01:23:30.517Z,13,GR86-062-012,49.1,0.249,1.25,38.42,1.0,6411.0,0.0,0.0,
2025-08-15T01:23:30.603Z,13,GR86-062-012,38.900000000000006,0.256,1.11,38.64,1.0,,0.0,0.0,83.28
2025-08-15T01:23:30.645Z,13,GR86-062-012,34.1,0.264,0.784,39.22,1.0,,0.0,0.0,
2025-08-15T01:23:30.688Z,13,GR86-062-012,31.200000000000003,0.249,1.098,39.47,1.0,,0.0,0.0,
2025-08-15T01:23:30.731Z,13,GR86-062-012,30.8,0.349,0.9,41.3,1.0,6400.0,0.0,0.0,
2025-08-15T01:23:30.774Z,13,GR86-062-012,35.1,0.379,0.647,46.03,1.0,,0.0,0.0,84.31
2025-08-15T01:23:30.817Z,13,GR86-062-012,39.6,0.355,0.5670000000000001,46.0,1.0,,0.0,0.0,
2025-08-15T01:23:30.860Z,13,GR86-062-012,43.400000000000006,0.184,0.511,46.95,1.0,,0.0,0.0,
2025-08-15T01:23:30.904Z,13,GR86-062-012,45.0,0.271,0.873,47.09,1.0,,0.0,0.0,
2025-08-15T01:23:30.946Z,13,GR86-062-012,45.3,0.36,0.884,48.84,1.0,6544.0,0.0,0.0,
2025-08-15T01:23:30.989Z,13,GR86-062-012,41.900000000000006,0.475,0.8200000000000001,47.34,1.0,,0.0,0.0,85.22
2025-08-15T01:23:31.034Z,13,GR86-062-012,33.0,0.496,0.877,44.0,1.0,,0.0,0.0,
2025-08-15T01:23:31.077Z,13,GR86-062-012,26.8,0.515,0.455,48.65,1.0,,0.0,0.0,
2025-08-15T01:23:31.120Z,13,GR86-062-012,21.0,0.196,0.29,53.08,1.0,,0.0,0.0,
2025-08-15T01:23:31.164Z,13,GR86-062-012,17.8,-0.083,0.477,56.95,1.0,6667.0,0.0,0.0,
2025-08-15T01:23:31.206Z,13,GR86-062-012,19.1,0.449,0.759,70.57000000000001,1.0,,0.0,0.0,86.01
2025-08-15T01:23:31.249Z,13,GR86-062-012,20.9,0.605,0.711,98.41,1.0,,0.0,0.0,
2025-08-15T01:23:31.293Z,13,GR86-062-012,17.0,0.378,1.141,99.8,1.0,,0.0,0.0,
2025-08-15T01:23:31.335Z,13,GR86-062-012,5.6000000000000005,0.368,1.008,99.79,1.0,,0.0,0.0,
2025-08-15T01:23:31.378Z,13,GR86-062-012,-8.6,0.248,0.929,99.78,1.0,6796.0,0.0,0.0,
2025-08-15T01:23:31.421Z,13,GR86-062-012,-19.200000000000003,0.273,0.858,99.79,1.0,,0.0,0.0,86.66
2025-08-15T01:23:31.464Z,13,GR86-062-012,-20.700000000000003,0.553,0.673,99.81,1.0,,0.0,0.0,
2025-08-15T01:23:31.507Z,13,GR86-062-012,-9.9,0.509,0.328,99.83,1.0,,0.0,0.0,
2025-08-15T01:23:31.550Z,13,GR86-062-012,10.2,0.478,0.36,99.81,1.0,,0.0,0.0,
2025-08-15T01:23:31.594Z,13,GR86-062-012,33.5,0.273,0.221,99.82,1.0,7056.0,0.0,0.0,
2025-08-15T01:23:31.637Z,13,GR86-062-012,40.6,0.306,0.221,99.83,1.0,,0.0,0.0,90.23
2025-08-15T01:23:31.680Z,13,GR86-062-012,42.2,0.403,0.372,99.8,1.0,,0.0,0.0,
2025-08-15T01:23:31.724Z,13,GR86-062-012,43.0,0.373,0.362,99.81,1.0,,0.0,0.0,
2025-08-15T01:23:31.766Z,13,GR86-062-012,41.0,0.272,0.298,99.82,1.0,,0.0,0.0,
2025-08-15T01:23:31.809Z,13,GR86-062-012,38.400000000000006,-0.061,0.129,99.8,1.0,7242.0,0.0,0.0,
2025-08-15T01:23:31.853Z,13,GR86-062-012,26.9,0.432,0.332,99.82,1.0,,0.0,0.0,92.71
2025-08-15T01:23:31.895Z,13,GR86-062-012,16.900000000000002,0.114,0.378,99.8,1.0,,0.0,0.0,
2025-08-15T01:23:31.938Z,13,GR86-062-012,10.0,-0.019,0.259,99.8,1.0,,0.0,0.0,
2025-08-15T01:23:31.981Z,13,GR86-062-012,5.1000000000000005,0.062,0.495,99.82,1.0,,0.0,0.0,
2025-08-15T01:23:32.024Z,13,GR86-062-012,1.5,0.122,0.181,99.82,1.0,7002.0,0.0,0.0,
2025-08-15T01:23:32.069Z,13,GR86-062-012,-1.7000000000000002,0.329,0.279,99.8,1.0,,0.0,0.0,94.88
2025-08-15T01:23:32.113Z,13,GR86-062-012,-4.9,-0.062,0.282,99.82,2.0,,0.0,0.0,
2025-08-15T01:23:32.157Z,13,GR86-062-012,-5.0,0.031,0.286,99.83,2.0,,0.0,0.0,
2025-08-15T01:23:32.200Z,13,GR86-062-012,-2.2,0.657,0.343,99.81,2.0,,0.0,0.0,
2025-08-15T01:23:32.244Z,13,GR86-062-012,0.6000000000000001,0.651,0.139,99.83,2.0,7263.0,0.0,0.0,
2025-08-15T01:23:32.286Z,13,GR86-062-012,1.3,0.535,0.206,99.82,2.0,,0.0,0.0,96.32
2025-08-15T01:23:32.329Z,13,GR86-062-012,1.3,0.711,0.042,99.82,2.0,,0.0,0.0,
2025-08-15T01:23:32.375Z,13,GR86-062-012,1.7000000000000002,0.585,-0.04,99.83,2.0,,0.0,0.0,
2025-08-15T01:23:32.418Z,13,GR86-062-012,4.7,0.6880000000000001,-0.04,99.82,2.0,,0.0,0.0,
2025-08-15T01:23:32.461Z,13,GR86-062-012,6.800000000000001,0.623,-0.115,99.83,2.0,6547.0,0.0,0.0,
2025-08-15T01:23:32.504Z,13,GR86-062-012,8.200000000000001,0.5680000000000001,-0.201,99.83,2.0,,0.0,0.0,97.39
2025-08-15T01:23:32.547Z,13,GR86-062-012,9.8,0.506,-0.243,99.83,2.0,,0.0,0.0,
2025-08-15T01:23:32.590Z,13,GR86-062-012,10.8,0.311,-0.096,99.81,2.0,,0.0,0.0,
2025-08-15T01:23:32.634Z,13,GR86-062-012,10.5,0.37,-0.157,99.83,2.0,,0.0,0.0,
2025-08-15T01:23:32.677Z,13,GR86-062-012,9.8,0.447,-0.108,99.8,2.0,5964.0,0.0,0.0,
2025-08-15T01:23:32.720Z,13,GR86-062-012,9.2,0.394,-0.11,99.82,2.0,,0.0,0.0,99.19
2025-08-15T01:23:32.764Z,13,GR86-062-012,8.1,0.341,-0.077,99.82,2.0,,0.0,0.0,
2025-08-15T01:23:32.806Z,13,GR86-062-012,6.5,0.313,-0.107,99.84,2.0,,0.0,0.0,
2025-08-15T01:23:32.849Z,13,GR86-062-012,5.5,0.245,-0.061,99.82,2.0,,0.0,0.0,
2025-08-15T01:23:32.893Z,13,GR86-062-012,5.0,0.427,-0.073,99.82,2.0,5903.0,0.0,0.0,
2025-08-15T01:23:32.935Z,13,GR86-062-012,5.0,0.432,-0.102,99.81,2.0,,0.0,0.0,101.6
2025-08-15T01:23:32.979Z,13,GR86-062-012,5.1000000000000005,0.419,-0.085,99.81,2.0,,0.0,0.0,
2025-08-15T01:23:33.023Z,13,GR86-062-012,5.0,0.39,-0.125,99.82,2.0,,0.0,0.0,
2025-08-15T01:23:33.066Z,13,GR86-062-012,5.1000000000000005,0.345,-0.134,99.84,2.0,,0.0,0.0,
2025-08-15T01:23:33.109Z,13,GR86-062-012,5.2,0.333,-0.166,99.83,2.0,6089.0,0.0,0.0,
2025-08-15T01:23:33.153Z,13,GR86-062-012,5.4,0.278,-0.145,99.84,2.0,,0.0,0.0,103.37
2025-08-15T01:23:33.195Z,13,GR86-062-012,5.5,0.321,-0.132,99.84,2.0,,0.0,0.0,
2025-08-15T01:23:33.238Z,13,GR86-062-012,5.7,0.368,-0.16,99.8,2.0,,0.0,0.0,
2025-08-15T01:23:33.281Z,13,GR86-062-012,5.9,0.375,-0.107,99.81,2.0,,0.0,0.0,
2025-08-15T01:23:33.325Z,13,GR86-062-012,6.0,0.374,-0.101,99.83,2.0,6131.0,0.0,0.0,
2025-08-15T01:23:33.368Z,13,GR86-062-012,6.0,0.343,-0.119,99.8,2.0,,0.0,0.0,105.29
2025-08-15T01:23:33.411Z,13,GR86-062-012,6.1000000000000005,0.338,-0.038,99.82,2.0,,0.0,0.0,
2025-08-15T01:23:33.454Z,13,GR86-062-012,6.2,0.301,-0.052,99.83,2.0,,0.0,0.0,
2025-08-15T01:23:33.540Z,13,GR86-062-012,6.300000000000001,0.328,-0.013,99.83,2.0,6260.0,0.0,0.0,
2025-08-15T01:23:33.584Z,13,GR86-062-012,6.1000000000000005,0.272,0.008,99.84,2.0,,0.0,0.0,106.92
2025-08-15T01:23:33.627Z,13,GR86-062-012,5.9,0.274,0.015,99.83,2.0,,0.0,0.0,
2025-08-15T01:23:33.670Z,13,GR86-062-012,5.800000000000001,0.304,0.023,99.84,2.0,,0.0,0.0,
2025-08-15T01:23:33.714Z,13,GR86-062-012,5.7,0.315,0.04,99.83,2.0,,0.0,0.0,
2025-08-15T01:23:33.757Z,13,GR86-062-012,5.0,0.32,0.042,99.82,2.0,6309.0,0.0,0.0,
2025-08-15T01:23:33.800Z,13,GR86-062-012,4.4,0.284,0.025,99.84,2.0,,0.0,0.0,108.48
2025-08-15T01:23:33.844Z,13,GR86-062-012,4.3,0.282,0.019,99.83,2.0,,0.0,0.0,
2025-08-15T01:23:33.886Z,13,GR86-062-012,4.3,0.297,0.024,99.82,2.0,,0.0,0.0,
2025-08-15T01:23:33.929Z,13,GR86-062-012,4.2,0.303,-0.001,99.83,2.0,,0.0,0.0,
2025-08-15T01:23:33.973Z,13,GR86-062-012,4.1000000000000005,0.297,-0.002,99.82,2.0,6409.0,0.0,0.0,
2025-08-15T01:23:34.015Z,13,GR86-062-012,3.9,0.307,0.014,99.83,2.0,,0.0,0.0,110.15
2025-08-15T01:23:34.058Z,13,GR86-062-012,3.7,0.294,0.003,99.83,2.0,,0.0,0.0,
2025-08-15T01:23:34.101Z,13,GR86-062-012,3.6,0.289,-0.002,99.83,2.0,,0.0,0.0,
2025-08-15T01:23:34.144Z,13,GR86-062-012,3.4000000000000004,0.31,0.0,99.83,2.0,,0.0,0.0,
2025-08-15T01:23:34.187Z,13,GR86-062-012,3.1,0.302,-0.007,99.83,2.0,6468.0,0.0,0.0,
2025-08-15T01:23:34.230Z,13,GR86-062-012,2.8000000000000003,0.287,-0.016,99.83,2.0,,0.0,0.0,111.67
2025-08-15T01:23:34.274Z,13,GR86-062-012,2.5,0.301,-0.002,99.82,2.0,,0.0,0.0,
2025-08-15T01:23:34.317Z,13,GR86-062-012,2.5,0.311,-0.016,99.83,2.0,,0.0,0.0,
2025-08-15T01:23:34.360Z,13,GR86-062-012,2.4000000000000004,0.291,-0.031,99.83,2.0,,0.0,0.0,
2025-08-15T01:23:34.404Z,13,GR86-062-012,2.4000000000000004,0.301,-0.034,99.84,2.0,6551.0,0.0,0.0,
2025-08-15T01:23:34.446Z,13,GR86-062-012,2.4000000000000004,0.296,-0.021,99.81,2.0,,0.0,0.0,114.7
2025-08-15T01:23:34.489Z,13,GR86-062-012,2.3000000000000003,0.296,-0.036,99.83,2.0,,0.0,0.0,
2025-08-15T01:23:34.534Z,13,GR86-062-012,2.0,0.289,-0.024,99.82,2.0,,0.0,0.0,
2025-08-15T01:23:34.577Z,13,GR86-062-012,1.5,0.302,-0.039,99.84,2.0,,0.0,0.0,
2025-08-15T01:23:34.620Z,13,GR86-062-012,0.9,0.303,-0.037,99.83,2.0,6641.0,0.0,0.0,
2025-08-15T01:23:34.665Z,13,GR86-062-012,0.4,0.286,-0.062,99.83,2.0,,0.0,0.0,116.1
2025-08-15T01:23:34.708Z,13,GR86-062-012,0.4,0.301,-0.057,99.83,2.0,,0.0,0.0,
2025-08-15T01:23:34.751Z,13,GR86-062-012,0.4,0.296,-0.074,99.83,2.0,,0.0,0.0,
2025-08-15T01:23:34.794Z,13,GR86-062-012,0.4,0.287,-0.094,99.83,2.0,,0.0,0.0,
2025-08-15T01:23:34.837Z,13,GR86-062-012,0.5,0.279,-0.1,99.83,2.0,6799.0,0.0,0.0,
2025-08-15T01:23:34.880Z,13,GR86-062-012,0.6000000000000001,0.294,-0.082,99.82,2.0,,0.0,0.0,117.38
2025-08-15T01:23:34.926Z,13,GR86-062-012,0.7000000000000001,0.29,-0.1,99.81,2.0,,0.0,0.0,
2025-08-15T01:23:34.969Z,13,GR86-062-012,0.7000000000000001,0.287,-0.106,99.83,2.0,,0.0,0.0,
2025-08-15T01:23:35.014Z,13,GR86-062-012,0.9,0.282,-0.099,99.8,2.0,,0.0,0.0,
2025-08-15T01:23:35.058Z,13,GR86-062-012,1.0,0.292,-0.071,99.83,2.0,6871.0,0.0,0.0,
2025-08-15T01:23:35.100Z,13,GR86-062-012,1.0,0.289,-0.093,99.83,2.0,,0.0,0.0,118.62
2025-08-15T01:23:35.144Z,13,GR86-062-012,1.1,0.281,-0.086,99.81,2.0,,0.0,0.0,
2025-08-15T01:23:35.186Z,13,GR86-062-012,1.3,0.289,-0.07,99.81,2.0,,0.0,0.0,
2025-08-15T01:23:35.229Z,13,GR86-062-012,1.3,0.284,-0.089,99.83,2.0,,0.0,0.0,
2025-08-15T01:23:35.273Z,13,GR86-062-012,1.4,0.289,-0.072,99.84,2.0,6933.0,0.0,0.0,
2025-08-15T01:23:35.315Z,13,GR86-062-012,1.6,0.28,-0.082,99.82,2.0,,0.0,0.0,119.84
2025-08-15T01:23:35.358Z,13,GR86-062-012,1.7000000000000002,0.295,-0.048,99.84,2.0,,0.0,0.0,
2025-08-15T01:23:35.401Z,13,GR86-062-012,1.9,0.295,-0.065,99.82,2.0,,0.0,0.0,
2025-08-15T01:23:35.444Z,13,GR86-062-012,2.1,0.276,-0.061,99.81,2.0,,0.0,0.0,
2025-08-15T01:23:35.487Z,13,GR86-062-012,2.7,0.268,-0.051,99.81,2.0,7009.0,0.0,0.0,
2025-08-15T01:23:35.530Z,13,GR86-062-012,2.8000000000000003,0.289,-0.057,99.81,2.0,,0.0,0.0,121.07
2025-08-15T01:23:35.574Z,13,GR86-062-012,2.9000000000000004,0.301,-0.041,99.84,2.0,,0.0,0.0,
2025-08-15T01:23:35.617Z,13,GR86-062-012,2.9000000000000004,0.264,-0.039,99.81,2.0,,0.0,0.0,
2025-08-15T01:23:35.660Z,13,GR86-062-012,2.9000000000000004,0.272,-0.02,99.84,2.0,,0.0,0.0,
2025-08-15T01:23:35.704Z,13,GR86-062-012,2.9000000000000004,0.29,-0.018,99.81,2.0,7064.0,0.0,0.0,
2025-08-15T01:23:35.746Z,13,GR86-062-012,3.0,0.271,-0.02,99.83,2.0,,0.0,0.0,122.26
2025-08-15T01:23:35.789Z,13,GR86-062-012,3.0,0.274,-0.01,99.87,2.0,,0.0,0.0,
2025-08-15T01:23:35.834Z,13,GR86-062-012,3.1,0.272,0.0,99.82,2.0,,0.0,0.0,
2025-08-15T01:23:35.877Z,13,GR86-062-012,3.1,0.16,0.001,99.8,2.0,,0.0,0.0,
2025-08-15T01:23:35.920Z,13,GR86-062-012,3.1,-0.098,0.028,99.83,3.0,7139.0,0.0,0.0,
2025-08-15T01:23:35.964Z,13,GR86-062-012,3.7,0.5740000000000001,-0.008,99.82,3.0,,0.0,0.0,123.41
2025-08-15T01:23:36.006Z,13,GR86-062-012,4.1000000000000005,0.342,-0.087,99.81,3.0,,0.0,0.0,
2025-08-15T01:23:36.049Z,13,GR86-062-012,4.4,0.402,0.028,99.83,3.0,,0.0,0.0,
2025-08-15T01:23:36.093Z,13,GR86-062-012,5.800000000000001,0.222,-0.059,99.83,3.0,,0.0,0.0,
2025-08-15T01:23:36.135Z,13,GR86-062-012,6.1000000000000005,0.14,0.025,99.83,3.0,7204.0,0.0,0.0,
2025-08-15T01:23:36.178Z,13,GR86-062-012,6.2,0.194,0.054,99.82,3.0,,0.0,0.0,124.54
2025-08-15T01:23:36.221Z,13,GR86-062-012,6.2,0.316,0.002,99.83,3.0,,0.0,0.0,
2025-08-15T01:23:36.264Z,13,GR86-062-012,6.2,0.262,0.066,99.82,3.0,,0.0,0.0,
2025-08-15T01:23:36.307Z,13,GR86-062-012,6.1000000000000005,0.215,0.058,99.83,3.0,,0.0,0.0,
2025-08-15T01:23:36.350Z,13,GR86-062-012,6.0,0.218,0.073,99.83,3.0,6058.0,0.0,0.0,
2025-08-15T01:23:36.394Z,13,GR86-062-012,5.9,0.251,0.077,99.83,3.0,,0.0,0.0,125.32
2025-08-15T01:23:36.437Z,13,GR86-062-012,5.9,0.264,0.078,99.83,3.0,,0.0,0.0,
2025-08-15T01:23:36.480Z,13,GR86-062-012,5.800000000000001,0.227,0.067,99.83,3.0,,0.0,0.0,
2025-08-15T01:23:36.524Z,13,GR86-062-012,5.800000000000001,0.224,0.084,99.83,3.0,,0.0,0.0,
2025-08-15T01:23:36.567Z,13,GR86-062-012,5.800000000000001,0.25,0.08,99.83,3.0,5974.0,0.0,0.0,
2025-08-15T01:23:36.610Z,13,GR86-062-012,5.800000000000001,0.237,0.064,99.83,3.0,,0.0,0.0,126.56
2025-08-15T01:23:36.654Z,13,GR86-062-012,6.0,0.244,0.081,99.82,3.0,,0.0,0.0,
2025-08-15T01:23:36.697Z,13,GR86-062-012,6.0,0.216,0.079,99.16,3.0,,0.0,0.0,
2025-08-15T01:23:36.740Z,13,GR86-062-012,6.0,0.237,0.084,47.8,3.0,,0.0,0.0,
2025-08-15T01:23:36.785Z,13,GR86-062-012,6.0,0.251,0.077,5.05,3.0,5987.0,0.0,0.0,
2025-08-15T01:23:36.828Z,13,GR86-062-012,5.9,0.203,0.07,4.67,3.0,,0.0,0.0,127.45
2025-08-15T01:23:36.871Z,13,GR86-062-012,5.9,-0.018,0.091,4.2700000000000005,3.0,,0.0,0.0,
2025-08-15T01:23:36.914Z,13,GR86-062-012,6.0,-0.182,0.085,3.88,3.0,,6.485,6.93,
2025-08-15T01:23:36.957Z,13,GR86-062-012,6.5,-0.31,0.037,3.67,3.0,,21.93,22.22,
2025-08-15T01:23:37.000Z,13,GR86-062-012,6.6000000000000005,-0.372,0.091,3.5,3.0,6021.0,30.365,30.52,
2025-08-15T01:23:37.044Z,13,GR86-062-012,6.6000000000000005,-0.469,0.062,3.27,3.0,,33.97,33.910000000000004,129.19
2025-08-15T01:23:37.086Z,13,GR86-062-012,6.800000000000001,-0.542,0.052,3.02,3.0,,35.645,35.525,
2025-08-15T01:23:37.129Z,13,GR86-062-012,8.5,-0.554,0.103,2.8000000000000003,3.0,,37.585,37.615,
2025-08-15T01:23:37.175Z,13,GR86-062-012,11.5,-0.706,0.071,47.54,3.0,,41.4,41.4,
2025-08-15T01:23:37.219Z,13,GR86-062-012,12.4,-0.739,0.148,91.62,3.0,5954.0,44.055,43.92,
2025-08-15T01:23:37.263Z,13,GR86-062-012,12.9,-0.79,0.155,98.53,2.0,,45.995,45.81,129.03
2025-08-15T01:23:37.306Z,13,GR86-062-012,13.1,-0.888,0.149,43.59,2.0,,46.055,46.465,
2025-08-15T01:23:37.349Z,13,GR86-062-012,13.2,-0.955,0.187,3.5,2.0,,46.375,47.275,
2025-08-15T01:23:37.393Z,13,GR86-062-012,17.400000000000002,-0.8220000000000001,0.179,3.03,2.0,,47.81,48.48,
2025-08-15T01:23:37.435Z,13,GR86-062-012,21.9,-0.977,0.324,2.92,2.0,5497.0,46.435,46.8,
2025-08-15T01:23:37.478Z,13,GR86-062-012,24.1,-0.756,0.465,2.84,2.0,,48.085,49.49,124.24
2025-08-15T01:23:37.521Z,13,GR86-062-012,25.0,-0.797,0.33,2.73,2.0,,47.015,47.52,
2025-08-15T01:23:37.564Z,13,GR86-062-012,25.0,-0.871,0.5720000000000001,2.68,2.0,,45.995,46.8,
2025-08-15T01:23:37.607Z,13,GR86-062-012,24.700000000000003,-0.797,0.508,2.61,2.0,,45.275,46.8,
2025-08-15T01:23:37.650Z,13,GR86-062-012,24.700000000000003,-0.87,0.536,2.5500000000000003,2.0,6239.0,44.94,46.465,
2025-08-15T01:23:37.694Z,13,GR86-062-012,28.8,-0.806,0.655,2.52,2.0,,40.715,41.4,118.62
2025-08-15T01:23:37.737Z,13,GR86-062-012,30.700000000000003,-0.6910000000000001,0.662,2.49,2.0,,37.205,38.56,
2025-08-15T01:23:37.780Z,13,GR86-062-012,33.2,-0.725,0.704,2.49,2.0,,35.145,36.425,
2025-08-15T01:23:37.824Z,13,GR86-062-012,36.7,-0.715,0.766,2.49,2.0,,33.8,34.275,
2025-08-15T01:23:37.866Z,13,GR86-062-012,41.400000000000006,-0.678,0.8320000000000001,2.49,2.0,6042.0,33.055,33.585,
2025-08-15T01:23:37.909Z,13,GR86-062-012,45.2,-0.593,0.918,2.48,2.0,,32.305,33.62,112.48
2025-08-15T01:23:37.953Z,13,GR86-062-012,46.900000000000006,-0.556,0.958,2.49,2.0,,30.705,31.77,
2025-08-15T01:23:37.995Z,13,GR86-062-012,47.0,-0.658,0.932,2.48,2.0,,27.055,27.59,
2025-08-15T01:23:38.038Z,13,GR86-062-012,46.900000000000006,-0.451,1.026,2.48,2.0,,15.155,15.75,
2025-08-15T01:23:38.081Z,13,GR86-062-012,46.900000000000006,-0.347,1.084,2.49,2.0,5661.0,5.05,5.6450000000000005,
2025-08-15T01:23:38.124Z,13,GR86-062-012,49.2,-0.193,1.121,2.8000000000000003,2.0,,0.0,0.0,107.11
2025-08-15T01:23:38.167Z,13,GR86-062-012,52.900000000000006,-0.22,1.106,4.3,2.0,,0.0,0.0,
2025-08-15T01:23:38.210Z,13,GR86-062-012,56.3,-0.144,1.161,4.36,2.0,,0.0,0.0,
2025-08-15T01:23:38.254Z,13,GR86-062-012,65.0,-0.145,1.122,4.58,2.0,,0.0,0.0,
2025-08-15T01:23:38.297Z,13,GR86-062-012,72.9,-0.156,1.182,4.63,2.0,5439.0,0.0,0.0,
2025-08-15T01:23:38.340Z,13,GR86-062-012,78.2,-0.178,1.236,4.5,2.0,,0.0,0.0,102.19
2025-08-15T01:23:38.384Z,13,GR86-062-012,79.4,-0.143,1.246,4.08,2.0,,0.0,0.0,
2025-08-15T01:23:38.427Z,13,GR86-062-012,79.5,-0.14,1.271,3.73,2.0,,0.0,0.0,
2025-08-15T01:23:38.470Z,13,GR86-062-012,79.5,-0.161,1.248,3.38,2.0,,0.0,0.0,
2025-08-15T01:23:38.514Z,13,GR86-062-012,79.5,-0.14,1.256,2.86,2.0,5394.0,0.0,0.0,
2025-08-15T01:23:38.557Z,13,GR86-062-012,79.10000000000001,-0.168,1.262,2.54,2.0,,0.0,0.0,99.69
2025-08-15T01:23:38.600Z,13,GR86-062-012,78.2,-0.144,1.274,2.8000000000000003,2.0,,0.0,0.0,
2025-08-15T01:23:38.644Z,13,GR86-062-012,77.7,-0.148,1.274,3.69,2.0,,0.0,0.0,
2025-08-15T01:23:38.686Z,13,GR86-062-012,77.7,-0.134,1.258,3.96,2.0,,0.0,0.0,
2025-08-15T01:23:38.729Z,13,GR86-062-012,77.9,-0.141,1.252,4.2700000000000005,2.0,5301.0,0.0,0.0,
2025-08-15T01:23:38.773Z,13,GR86-062-012,81.60000000000001,-0.15,1.249,4.5,2.0,,0.0,0.0,97.43
2025-08-15T01:23:38.816Z,13,GR86-062-012,83.80000000000001,-0.121,1.28,4.78,2.0,,0.0,0.0,
