timestamp,lap,vehicle_id,steering_angle,accx_can,accy_can,ath,gear,nmot,pbrake_f,pbrake_r,speed
2025-08-15T01:29:58.214Z,12,GR86-002-2,1.8,0.113,0.007,99.9,4.0,7232.0,0.0,0.0,
2025-08-15T01:29:58.257Z,12,GR86-002-2,1.8,0.052,-0.004,99.91,4.0,,0.0,0.0,183.82
2025-08-15T01:29:58.301Z,12,GR86-002-2,1.8,-0.035,0.07,99.91,5.0,,0.0,0.0,
2025-08-15T01:29:58.344Z,12,GR86-002-2,2.4000000000000004,0.303,0.026,99.92,5.0,,0.0,0.0,
2025-08-15T01:29:58.387Z,12,GR86-002-2,2.4000000000000004,0.198,0.025,99.9,5.0,,0.0,0.0,
2025-08-15T01:29:58.431Z,12,GR86-002-2,2.4000000000000004,0.042,0.105,99.92,5.0,6885.0,0.0,0.0,
2025-08-15T01:29:58.473Z,12,GR86-002-2,2.4000000000000004,-0.013,0.056,99.9,5.0,,0.0,0.0,184.58
2025-08-15T01:29:58.516Z,12,GR86-002-2,2.4000000000000004,0.113,0.044,99.92,5.0,,0.0,0.0,
2025-08-15T01:29:58.560Z,12,GR86-002-2,2.4000000000000004,0.147,0.073,99.91,5.0,,0.0,0.0,
2025-08-15T01:29:58.602Z,12,GR86-002-2,2.4000000000000004,0.079,0.025,99.92,5.0,,0.0,0.0,
2025-08-15T01:29:58.645Z,12,GR86-002-2,2.1,0.105,0.074,99.9,5.0,6357.0,0.0,0.0,
2025-08-15T01:29:58.688Z,12,GR86-002-2,2.0,0.139,0.068,99.9,5.0,,0.0,0.0,185.19
2025-08-15T01:29:58.731Z,12,GR86-002-2,2.0,0.119,0.081,99.91,5.0,,0.0,0.0,
2025-08-15T01:29:58.774Z,12,GR86-002-2,1.6,0.116,0.078,99.91,5.0,,0.0,0.0,
2025-08-15T01:29:58.817Z,12,GR86-002-2,1.4,0.114,0.068,99.91,5.0,,0.0,0.0,
2025-08-15T01:29:58.861Z,12,GR86-002-2,1.4,0.073,0.064,99.9,5.0,6332.0,0.0,0.0,
2025-08-15T01:29:58.904Z,12,GR86-002-2,1.3,0.058,0.062,99.91,5.0,,0.0,0.0,185.82
2025-08-15T01:29:58.947Z,12,GR86-002-2,1.0,0.09,0.031,99.91,5.0,,0.0,0.0,
2025-08-15T01:29:58.991Z,12,GR86-002-2,0.7000000000000001,0.073,0.019,99.91,5.0,,0.0,0.0,
2025-08-15T01:29:59.033Z,12,GR86-002-2,0.5,0.086,0.006,99.9,5.0,,0.0,0.0,
2025-08-15T01:29:59.076Z,12,GR86-002-2,0.5,0.091,0.002,99.91,5.0,6341.0,0.0,0.0,
2025-08-15T01:29:59.121Z,12,GR86-002-2,0.5,0.084,0.017,99.92,5.0,,0.0,0.0,186.98
2025-08-15T01:29:59.164Z,12,GR86-002-2,0.7000000000000001,0.069,0.004,99.92,5.0,,0.0,0.0,
2025-08-15T01:29:59.207Z,12,GR86-002-2,1.0,0.083,0.004,99.92,5.0,,0.0,0.0,
2025-08-15T01:29:59.251Z,12,GR86-002-2,0.9,0.06,0.011,99.91,5.0,,0.0,0.0,
2025-08-15T01:29:59.293Z,12,GR86-002-2,0.1,0.065,0.003,99.91,5.0,6364.0,0.0,0.0,
2025-08-15T01:29:59.336Z,12,GR86-002-2,-0.6000000000000001,0.068,0.006,99.9,5.0,,0.0,0.0,187.73
2025-08-15T01:29:59.380Z,12,GR86-002-2,-0.3,0.115,-0.009,99.91,5.0,,0.0,0.0,
2025-08-15T01:29:59.424Z,12,GR86-002-2,0.4,0.102,-0.026,99.92,5.0,,0.0,0.0,
2025-08-15T01:29:59.467Z,12,GR86-002-2,0.7000000000000001,0.107,-0.021,99.91,5.0,,0.0,0.0,
2025-08-15T01:29:59.511Z,12,GR86-002-2,0.7000000000000001,0.093,-0.026,99.91,5.0,6386.0,0.0,0.0,
2025-08-15T01:29:59.553Z,12,GR86-002-2,0.7000000000000001,0.097,-0.017,99.9,5.0,,0.0,0.0,188.28
2025-08-15T01:29:59.596Z,12,GR86-002-2,0.7000000000000001,0.085,-0.007,99.91,5.0,,0.0,0.0,
2025-08-15T01:29:59.641Z,12,GR86-002-2,0.8,0.077,-0.014,99.91,5.0,,0.0,0.0,
2025-08-15T01:29:59.684Z,12,GR86-002-2,0.9,0.104,-0.011,99.91,5.0,,0.0,0.0,
2025-08-15T01:29:59.727Z,12,GR86-002-2,1.0,0.091,-0.005,99.91,5.0,6422.0,0.0,0.0,
2025-08-15T01:29:59.771Z,12,GR86-002-2,1.0,0.104,0.003,99.91,5.0,,0.0,0.0,188.91
2025-08-15T01:29:59.814Z,12,GR86-002-2,1.0,0.101,-0.004,99.92,5.0,,0.0,0.0,
2025-08-15T01:29:59.857Z,12,GR86-002-2,1.0,0.111,0.014,99.91,5.0,,0.0,0.0,
2025-08-15T01:29:59.901Z,12,GR86-002-2,1.0,0.054,0.053,99.9,5.0,,0.0,0.0,
2025-08-15T01:29:59.944Z,12,GR86-002-2,1.2000000000000002,0.068,0.047,99.91,5.0,6448.0,0.0,0.0,
2025-08-15T01:29:59.987Z,12,GR86-002-2,1.8,0.06,0.049,99.91,5.0,,0.0,0.0,189.54
2025-08-15T01:30:00.031Z,12,GR86-002-2,2.2,0.085,0.014,99.9,5.0,,0.0,0.0,
2025-08-15T01:30:00.073Z,12,GR86-002-2,2.3000000000000003,0.061,0.005,99.92,5.0,,0.0,0.0,
2025-08-15T01:30:00.116Z,12,GR86-002-2,2.3000000000000003,0.088,0.004,99.9,5.0,,0.0,0.0,
2025-08-15T01:30:00.160Z,12,GR86-002-2,1.8,0.078,0.04,99.9,5.0,6462.0,0.0,0.0,
2025-08-15T01:30:00.204Z,12,GR86-002-2,1.7000000000000002,0.056,0.047,99.9,5.0,,0.0,0.0,190.07
2025-08-15T01:30:00.247Z,12,GR86-002-2,2.1,0.06,0.047,99.91,5.0,,0.0,0.0,
2025-08-15T01:30:00.291Z,12,GR86-002-2,2.5,0.049,0.045,99.9,5.0,,0.0,0.0,
2025-08-15T01:30:00.334Z,12,GR86-002-2,2.6,0.073,0.054,99.91,5.0,,0.0,0.0,
2025-08-15T01:30:00.377Z,12,GR86-002-2,2.6,0.07,0.05,99.91,5.0,6484.0,0.0,0.0,
2025-08-15T01:30:00.421Z,12,GR86-002-2,2.6,0.061,0.061,99.91,5.0,,0.0,0.0,190.56
2025-08-15T01:30:00.464Z,12,GR86-002-2,2.4000000000000004,0.076,0.066,99.9,5.0,,0.0,0.0,
2025-08-15T01:30:00.507Z,12,GR86-002-2,2.3000000000000003,0.07,0.078,99.91,5.0,,0.0,0.0,
2025-08-15T01:30:00.551Z,12,GR86-002-2,2.3000000000000003,0.063,0.086,99.9,5.0,,0.0,0.0,
2025-08-15T01:30:00.593Z,12,GR86-002-2,2.3000000000000003,0.073,0.081,99.9,5.0,6496.0,0.0,0.0,
2025-08-15T01:30:00.636Z,12,GR86-002-2,2.3000000000000003,0.063,0.058,99.91,5.0,,0.0,0.0,191.14
2025-08-15T01:30:00.681Z,12,GR86-002-2,2.3000000000000003,0.07,0.064,99.91,5.0,,0.0,0.0,
2025-08-15T01:30:00.724Z,12,GR86-002-2,1.8,0.091,0.069,99.91,5.0,,0.0,0.0,
2025-08-15T01:30:00.811Z,12,GR86-002-2,1.5,0.073,0.069,99.89,5.0,6525.0,0.0,0.0,
2025-08-15T01:30:00.853Z,12,GR86-002-2,1.5,0.065,0.052,99.91,5.0,,0.0,0.0,191.76
2025-08-15T01:30:00.896Z,12,GR86-002-2,1.5,0.07,0.057,99.91,5.0,,0.0,0.0,
2025-08-15T01:30:00.940Z,12,GR86-002-2,1.3,0.097,0.05,99.9,5.0,,0.0,0.0,
2025-08-15T01:30:00.982Z,12,GR86-002-2,1.3,0.085,0.036,99.9,5.0,,0.0,0.0,
2025-08-15T01:30:01.025Z,12,GR86-002-2,1.2000000000000002,0.083,0.035,99.91,5.0,6551.0,0.0,0.0,
2025-08-15T01:30:01.068Z,12,GR86-002-2,1.1,0.061,0.032,99.91,5.0,,0.0,0.0,192.42
2025-08-15T01:30:01.111Z,12,GR86-002-2,1.0,0.067,0.023,99.91,5.0,,0.0,0.0,
2025-08-15T01:30:01.154Z,12,GR86-002-2,1.0,0.055,0.046,99.9,5.0,,0.0,0.0,
2025-08-15T01:30:01.197Z,12,GR86-002-2,0.9,0.055,0.039,99.9,5.0,,0.0,0.0,
2025-08-15T01:30:01.241Z,12,GR86-002-2,0.7000000000000001,0.092,0.007,99.91,5.0,6571.0,0.0,0.0,
2025-08-15T01:30:01.284Z,12,GR86-002-2,0.6000000000000001,0.076,-0.008,99.9,5.0,,0.0,0.0,193.02
2025-08-15T01:30:01.327Z,12,GR86-002-2,0.7000000000000001,0.067,-0.005,99.89,5.0,,0.0,0.0,
2025-08-15T01:30:01.371Z,12,GR86-002-2,0.8,0.056,-0.005,99.92,5.0,,0.0,0.0,
2025-08-15T01:30:01.414Z,12,GR86-002-2,1.0,0.063,-0.004,99.91,5.0,,0.0,0.0,
2025-08-15T01:30:01.457Z,12,GR86-002-2,1.2000000000000002,0.058,0.008,99.91,5.0,6591.0,0.0,0.0,
2025-08-15T01:30:01.501Z,12,GR86-002-2,1.5,0.09,-0.001,99.9,5.0,,0.0,0.0,193.7
2025-08-15T01:30:01.544Z,12,GR86-002-2,1.6,0.069,-0.012,99.91,5.0,,0.0,0.0,
2025-08-15T01:30:01.587Z,12,GR86-002-2,1.6,0.075,-0.017,99.9,5.0,,0.0,0.0,
2025-08-15T01:30:01.632Z,12,GR86-002-2,1.4,0.085,-0.008,99.91,5.0,,0.0,0.0,
2025-08-15T01:30:01.674Z,12,GR86-002-2,1.4,0.052,-0.009,99.91,5.0,6608.0,0.0,0.0,
2025-08-15T01:30:01.717Z,12,GR86-002-2,1.5,0.056,0.003,99.91,5.0,,0.0,0.0,194.15
2025-08-15T01:30:01.761Z,12,GR86-002-2,1.9,0.104,0.03,99.9,5.0,,0.0,0.0,
2025-08-15T01:30:01.804Z,12,GR86-002-2,2.0,0.085,0.03,99.91,5.0,,0.0,0.0,
2025-08-15T01:30:01.847Z,12,GR86-002-2,2.0,0.08,0.03,99.91,5.0,,0.0,0.0,
2025-08-15T01:30:01.891Z,12,GR86-002-2,2.1,0.066,0.035,99.9,5.0,6644.0,0.0,0.0,
2025-08-15T01:30:01.933Z,12,GR86-002-2,2.1,0.051,0.029,99.9,5.0,,0.0,0.0,195.5
2025-08-15T01:30:01.976Z,12,GR86-002-2,2.1,0.059,0.045,99.9,5.0,,0.0,0.0,
2025-08-15T01:30:02.021Z,12,GR86-002-2,2.1,0.108,0.071,99.91,5.0,,0.0,0.0,
2025-08-15T01:30:02.064Z,12,GR86-002-2,2.1,0.09,0.079,99.91,5.0,,0.0,0.0,
2025-08-15T01:30:02.107Z,12,GR86-002-2,2.3000000000000003,0.068,0.074,99.91,5.0,6646.0,0.0,0.0,
2025-08-15T01:30:02.151Z,12,GR86-002-2,2.3000000000000003,0.062,0.072,99.9,5.0,,0.0,0.0,196.19
2025-08-15T01:30:02.193Z,12,GR86-002-2,2.3000000000000003,0.053,0.06,99.9,5.0,,0.0,0.0,
2025-08-15T01:30:02.236Z,12,GR86-002-2,2.2,0.066,0.056,99.89,5.0,,0.0,0.0,
2025-08-15T01:30:02.280Z,12,GR86-002-2,1.9,0.085,0.048,99.9,5.0,,0.0,0.0,
2025-08-15T01:30:02.322Z,12,GR86-002-2,1.9,0.072,0.046,99.91,5.0,6687.0,0.0,0.0,
2025-08-15T01:30:02.366Z,12,GR86-002-2,1.9,0.07,0.058,99.91,5.0,,0.0,0.0,196.78
2025-08-15T01:30:02.411Z,12,GR86-002-2,1.9,0.047,0.052,99.9,5.0,,0.0,0.0,
2025-08-15T01:30:02.454Z,12,GR86-002-2,1.9,0.051,0.035,99.9,5.0,,0.0,0.0,
2025-08-15T01:30:02.497Z,12,GR86-002-2,1.9,0.048,0.033,99.9,5.0,,0.0,0.0,
2025-08-15T01:30:02.541Z,12,GR86-002-2,1.8,0.074,0.057,99.91,5.0,6719.0,0.0,0.0,
2025-08-15T01:30:02.584Z,12,GR86-002-2,1.8,0.062,0.051,99.91,5.0,,0.0,0.0,197.5
2025-08-15T01:30:02.627Z,12,GR86-002-2,2.1,0.051,0.036,99.92,5.0,,0.0,0.0,
2025-08-15T01:30:02.671Z,12,GR86-002-2,2.2,0.068,0.031,99.91,5.0,,0.0,0.0,
2025-08-15T01:30:02.713Z,12,GR86-002-2,2.2,0.064,0.026,99.92,5.0,,0.0,0.0,
2025-08-15T01:30:02.756Z,12,GR86-002-2,1.9,0.088,0.033,99.91,5.0,6744.0,0.0,0.0,
2025-08-15T01:30:02.801Z,12,GR86-002-2,1.9,0.063,0.043,99.89,5.0,,0.0,0.0,198.15
2025-08-15T01:30:02.844Z,12,GR86-002-2,1.9,0.057,0.032,99.91,5.0,,0.0,0.0,
2025-08-15T01:30:02.887Z,12,GR86-002-2,1.9,0.053,0.036,99.9,5.0,,0.0,0.0,
2025-08-15T01:30:02.931Z,12,GR86-002-2,1.9,0.068,0.024,99.89,5.0,,0.0,0.0,
2025-08-15T01:30:02.973Z,12,GR86-002-2,1.8,0.084,0.02,99.89,5.0,6770.0,0.0,0.0,
2025-08-15T01:30:03.016Z,12,GR86-002-2,1.6,0.098,0.006,99.91,5.0,,0.0,0.0,198.92
2025-08-15T01:30:03.060Z,12,GR86-002-2,1.4,0.043,0.034,99.9,5.0,,0.0,0.0,
2025-08-15T01:30:03.102Z,12,GR86-002-2,1.4,0.059,0.052,99.91,5.0,,0.0,0.0,
2025-08-15T01:30:03.145Z,12,GR86-002-2,1.5,0.066,0.04,99.91,5.0,,0.0,0.0,
2025-08-15T01:30:03.188Z,12,GR86-002-2,1.8,0.072,0.033,99.89,5.0,6786.0,3.1,3.37,
2025-08-15T01:30:03.231Z,12,GR86-002-2,1.8,0.106,0.015,99.89,5.0,,8.975,9.215,199.6
2025-08-15T01:30:03.274Z,12,GR86-002-2,1.6,0.022,0.007,99.89,5.0,,9.49,9.875,
2025-08-15T01:30:03.317Z,12,GR86-002-2,0.7000000000000001,-0.014,0.003,99.91,5.0,,8.18,8.88,
2025-08-15T01:30:03.361Z,12,GR86-002-2,-0.9,0.011,-0.006,99.9,5.0,,0.0,2.52,
2025-08-15T01:30:03.404Z,12,GR86-002-2,-1.2000000000000002,0.084,0.001,99.91,5.0,6795.0,0.0,0.0,
2025-08-15T01:30:03.447Z,12,GR86-002-2,-0.7000000000000001,0.104,0.0,99.91,5.0,,0.0,0.0,200.31
2025-08-15T01:30:03.491Z,12,GR86-002-2,0.0,0.096,-0.017,99.87,5.0,,0.0,0.0,
2025-08-15T01:30:03.534Z,12,GR86-002-2,0.2,0.08,-0.022,99.88,5.0,,0.0,0.0,
2025-08-15T01:30:03.577Z,12,GR86-002-2,0.5,0.058,-0.031,99.88,5.0,,0.0,0.0,
2025-08-15T01:30:03.621Z,12,GR86-002-2,1.2000000000000002,0.099,-0.064,99.89,5.0,6807.0,0.0,0.0,
2025-08-15T01:30:03.664Z,12,GR86-002-2,1.2000000000000002,0.103,-0.054,99.88,5.0,,0.0,0.0,200.43
2025-08-15T01:30:03.707Z,12,GR86-002-2,1.2000000000000002,0.075,-0.039,99.88,5.0,,0.0,0.0,
2025-08-15T01:30:03.751Z,12,GR86-002-2,0.7000000000000001,0.055,-0.031,99.91,5.0,,0.0,0.0,
2025-08-15T01:30:03.794Z,12,GR86-002-2,0.3,0.042,-0.027,99.9,5.0,,0.0,0.0,
2025-08-15T01:30:03.839Z,12,GR86-002-2,0.1,0.037,-0.023,99.89,5.0,6836.0,0.0,0.0,
2025-08-15T01:30:03.881Z,12,GR86-002-2,0.2,0.088,-0.023,99.9,5.0,,0.0,0.0,201.04
2025-08-15T01:30:03.924Z,12,GR86-002-2,0.8,0.059,-0.006,99.88,5.0,,0.0,0.0,
2025-08-15T01:30:03.967Z,12,GR86-002-2,1.4,0.029,-0.021,99.91,5.0,,0.0,0.0,
2025-08-15T01:30:04.011Z,12,GR86-002-2,2.6,0.068,-0.033,99.92,5.0,,0.0,0.0,
2025-08-15T01:30:04.053Z,12,GR86-002-2,2.9000000000000004,0.046,-0.026,99.9,5.0,6847.0,0.0,0.0,
2025-08-15T01:30:04.096Z,12,GR86-002-2,2.9000000000000004,0.093,-0.017,99.89,5.0,,0.0,0.0,201.73
2025-08-15T01:30:04.140Z,12,GR86-002-2,2.5,0.063,0.024,99.91,5.0,,0.0,0.0,
2025-08-15T01:30:04.184Z,12,GR86-002-2,2.5,0.041,0.028,99.88,5.0,,0.0,0.0,
2025-08-15T01:30:04.227Z,12,GR86-002-2,2.6,0.068,0.011,99.87,5.0,,0.0,0.0,
2025-08-15T01:30:04.271Z,12,GR86-002-2,2.6,0.083,0.015,99.88,5.0,6879.0,0.0,0.0,
2025-08-15T01:30:04.314Z,12,GR86-002-2,2.6,0.109,0.021,99.91,5.0,,0.0,0.0,202.22
2025-08-15T01:30:04.357Z,12,GR86-002-2,2.4000000000000004,0.097,0.041,99.9,5.0,,0.0,0.0,
2025-08-15T01:30:04.401Z,12,GR86-002-2,2.2,0.082,0.049,99.9,5.0,,0.0,0.0,
2025-08-15T01:30:04.444Z,12,GR86-002-2,2.2,0.063,0.062,99.91,5.0,,0.0,0.0,
2025-08-15T01:30:04.487Z,12,GR86-002-2,2.3000000000000003,0.106,0.0,99.9,5.0,6900.0,0.0,0.0,
2025-08-15T01:30:04.531Z,12,GR86-002-2,2.3000000000000003,0.118,-0.01,99.89,5.0,,0.0,0.0,203.51
2025-08-15T01:30:04.574Z,12,GR86-002-2,2.0,0.083,0.007,99.91,5.0,,0.0,0.0,
2025-08-15T01:30:04.617Z,12,GR86-002-2,1.3,0.063,0.01,99.91,5.0,,0.0,0.0,
2025-08-15T01:30:04.662Z,12,GR86-002-2,1.0,0.101,0.02,99.9,5.0,,0.0,0.0,
2025-08-15T01:30:04.705Z,12,GR86-002-2,1.7000000000000002,0.109,0.038,99.89,5.0,6921.0,0.0,0.0,
2025-08-15T01:30:04.748Z,12,GR86-002-2,2.7,0.063,0.049,99.91,5.0,,0.0,0.0,203.94
2025-08-15T01:30:04.791Z,12,GR86-002-2,3.4000000000000004,0.055,0.06,99.87,5.0,,0.0,0.0,
2025-08-15T01:30:04.834Z,12,GR86-002-2,3.5,0.056,0.05,99.91,5.0,,0.0,0.0,
2025-08-15T01:30:04.878Z,12,GR86-002-2,3.3000000000000003,0.133,0.025,99.91,5.0,,0.0,0.0,
2025-08-15T01:30:04.921Z,12,GR86-002-2,2.8000000000000003,2.229,-0.108,85.7,5.0,6955.0,0.0,0.0,
2025-08-15T01:30:04.964Z,12,GR86-002-2,2.0,0.609,-0.03,62.29,5.0,,0.0,0.0,204.69
2025-08-15T01:30:05.007Z,12,GR86-002-2,2.1,0.077,0.106,97.21,5.0,,0.0,0.0,
2025-08-15T01:30:05.051Z,12,GR86-002-2,4.4,0.128,0.119,99.77,5.0,,0.0,0.0,
2025-08-15T01:30:05.093Z,12,GR86-002-2,7.1000000000000005,0.068,0.117,99.87,5.0,,0.0,0.0,
2025-08-15T01:30:05.136Z,12,GR86-002-2,7.300000000000001,0.047,0.171,99.87,5.0,7119.0,0.0,0.0,
2025-08-15T01:30:05.180Z,12,GR86-002-2,6.7,0.079,0.182,99.9,5.0,,0.0,0.0,208.32
2025-08-15T01:30:05.222Z,12,GR86-002-2,7.800000000000001,0.106,0.199,99.89,5.0,,0.0,0.0,
2025-08-15T01:30:05.266Z,12,GR86-002-2,8.5,0.062,0.229,99.88,5.0,,0.0,0.0,
2025-08-15T01:30:05.310Z,12,GR86-002-2,8.5,0.043,0.268,99.87,5.0,,0.0,0.0,
2025-08-15T01:30:05.352Z,12,GR86-002-2,8.5,0.046,0.308,99.89,5.0,7166.0,0.0,0.0,
2025-08-15T01:30:05.395Z,12,GR86-002-2,8.5,0.066,0.342,99.9,5.0,,0.0,0.0,210.13
2025-08-15T01:30:05.438Z,12,GR86-002-2,8.200000000000001,0.068,0.362,99.88,5.0,,0.0,0.0,
2025-08-15T01:30:05.481Z,12,GR86-002-2,5.800000000000001,0.045,0.361,99.89,5.0,,0.0,0.0,
2025-08-15T01:30:05.524Z,12,GR86-002-2,4.800000000000001,0.077,0.312,99.88,5.0,,0.0,0.0,
2025-08-15T01:30:05.567Z,12,GR86-002-2,5.2,0.08,0.277,99.91,5.0,7164.0,0.0,0.0,
2025-08-15T01:30:05.611Z,12,GR86-002-2,6.800000000000001,0.094,0.276,99.89,5.0,,0.0,0.0,210.89
2025-08-15T01:30:05.653Z,12,GR86-002-2,8.1,0.067,0.26,99.88,5.0,,0.0,0.0,
2025-08-15T01:30:05.696Z,12,GR86-002-2,8.6,0.036,0.278,99.87,5.0,,0.0,0.0,
2025-08-15T01:30:05.740Z,12,GR86-002-2,8.1,0.074,0.266,99.89,5.0,,0.0,0.0,
2025-08-15T01:30:05.782Z,12,GR86-002-2,7.5,0.058,0.282,99.87,5.0,7183.0,0.0,0.0,
2025-08-15T01:30:05.825Z,12,GR86-002-2,7.300000000000001,0.035,0.275,99.88,5.0,,0.0,0.0,211.36
2025-08-15T01:30:05.868Z,12,GR86-002-2,7.1000000000000005,0.05,0.278,99.9,5.0,,0.0,0.0,
2025-08-15T01:30:05.911Z,12,GR86-002-2,7.0,0.066,0.277,99.9,5.0,,0.0,0.0,
2025-08-15T01:30:05.954Z,12,GR86-002-2,7.0,0.079,0.293,99.88,5.0,,0.0,0.0,
2025-08-15T01:30:05.997Z,12,GR86-002-2,7.0,0.069,0.301,99.88,5.0,7201.0,6.485,6.745,
2025-08-15T01:30:06.041Z,12,GR86-002-2,6.9,-0.032,0.301,99.88,5.0,,10.56,10.805,211.85
2025-08-15T01:30:06.084Z,12,GR86-002-2,6.800000000000001,-0.08,0.266,99.87,5.0,,7.43,7.98,
2025-08-15T01:30:06.127Z,12,GR86-002-2,6.6000000000000005,-0.023,0.267,99.89,5.0,,2.015,2.58,
2025-08-15T01:30:06.171Z,12,GR86-002-2,6.2,0.016,0.268,99.91,5.0,,0.0,0.0,
2025-08-15T01:30:06.214Z,12,GR86-002-2,5.9,0.043,0.249,99.9,5.0,7182.0,0.0,0.0,
2025-08-15T01:30:06.257Z,12,GR86-002-2,5.300000000000001,0.059,0.238,99.88,5.0,,0.0,0.0,212.18
2025-08-15T01:30:06.301Z,12,GR86-002-2,3.9,0.032,0.194,99.91,5.0,,0.0,0.0,
2025-08-15T01:30:06.344Z,12,GR86-002-2,2.9000000000000004,0.057,0.165,99.88,5.0,,0.0,0.0,
2025-08-15T01:30:06.387Z,12,GR86-002-2,2.4000000000000004,0.062,0.135,99.86,5.0,,0.0,0.0,
2025-08-15T01:30:06.432Z,12,GR86-002-2,2.3000000000000003,0.052,0.096,99.88,5.0,7206.0,0.0,0.0,
2025-08-15T01:30:06.474Z,12,GR86-002-2,2.3000000000000003,0.045,0.076,99.9,5.0,,0.0,0.0,212.25
2025-08-15T01:30:06.517Z,12,GR86-002-2,2.4000000000000004,0.023,0.071,99.89,5.0,,0.0,0.0,
2025-08-15T01:30:06.561Z,12,GR86-002-2,2.4000000000000004,0.048,0.052,99.91,5.0,,0.0,0.0,
2025-08-15T01:30:06.604Z,12,GR86-002-2,2.3000000000000003,0.035,0.042,99.88,5.0,,0.0,0.0,
2025-08-15T01:30:06.647Z,12,GR86-002-2,2.1,0.043,0.036,99.89,5.0,7217.0,0.0,0.0,
2025-08-15T01:30:06.691Z,12,GR86-002-2,1.6,0.041,0.038,98.46,5.0,,0.0,0.0,212.61
2025-08-15T01:30:06.733Z,12,GR86-002-2,1.5,0.068,0.033,42.9,5.0,,0.0,0.0,
2025-08-15T01:30:06.776Z,12,GR86-002-2,1.1,0.074,0.038,5.5600000000000005,5.0,,0.0,0.0,
2025-08-15T01:30:06.821Z,12,GR86-002-2,-0.3,-0.095,0.017,4.55,5.0,,0.0,0.0,
2025-08-15T01:30:06.864Z,12,GR86-002-2,-0.6000000000000001,-0.127,0.044,4.0,5.0,7230.0,0.0,0.0,
2025-08-15T01:30:06.907Z,12,GR86-002-2,-0.6000000000000001,-0.474,0.005,3.64,5.0,,0.0,0.0,212.95
2025-08-15T01:30:06.951Z,12,GR86-002-2,-0.6000000000000001,-0.194,-0.014,3.46,5.0,,7.325,7.705,
2025-08-15T01:30:06.993Z,12,GR86-002-2,-0.7000000000000001,-0.197,0.021,3.26,5.0,,11.37,11.4,
2025-08-15T01:30:07.036Z,12,GR86-002-2,-0.7000000000000001,-0.361,-0.039,3.0700000000000003,5.0,,19.9,19.58,
2025-08-15T01:30:07.080Z,12,GR86-002-2,-3.1,-0.932,-0.023,2.85,5.0,7002.0,61.45,60.43,
2025-08-15T01:30:07.122Z,12,GR86-002-2,-7.5,-1.298,-0.056,2.75,5.0,,84.355,83.12,211.86
2025-08-15T01:30:07.166Z,12,GR86-002-2,-12.4,-1.41,-0.057,2.66,5.0,,100.96,100.87,
2025-08-15T01:30:07.211Z,12,GR86-002-2,-14.1,-1.337,-0.078,2.59,5.0,,114.585,114.875,
2025-08-15T01:30:07.254Z,12,GR86-002-2,-12.1,-1.387,-0.208,2.54,5.0,,116.28,117.305,
2025-08-15T01:30:07.297Z,12,GR86-002-2,-9.2,-1.305,-0.175,2.5,5.0,7047.0,115.87,117.455,
2025-08-15T01:30:07.341Z,12,GR86-002-2,-5.800000000000001,-1.317,-0.249,2.47,5.0,,115.09,116.05,199.87
2025-08-15T01:30:07.384Z,12,GR86-002-2,-5.5,-1.489,-0.187,2.44,5.0,,115.305,116.405,
2025-08-15T01:30:07.427Z,12,GR86-002-2,-5.2,-1.443,-0.232,6.36,5.0,,112.74,113.335,
2025-08-15T01:30:07.471Z,12,GR86-002-2,-1.7000000000000002,-1.315,-0.29,47.26,4.0,,104.44,105.49,
2025-08-15T01:30:07.514Z,12,GR86-002-2,3.9,-1.307,-0.273,27.42,4.0,6177.0,95.65,96.735,
2025-08-15T01:30:07.557Z,12,GR86-002-2,5.6000000000000005,-1.446,-0.24,4.83,4.0,,75.615,77.49,187.83
2025-08-15T01:30:07.601Z,12,GR86-002-2,4.0,-1.263,-0.278,3.92,4.0,,55.915,57.24,
2025-08-15T01:30:07.644Z,12,GR86-002-2,5.4,-1.283,-0.299,3.61,4.0,,58.46,59.56,
2025-08-15T01:30:07.687Z,12,GR86-002-2,8.4,-1.314,-0.353,3.42,4.0,,63.620000000000005,63.925,
2025-08-15T01:30:07.731Z,12,GR86-002-2,10.8,-1.251,-0.403,3.22,4.0,6819.0,65.08500000000001,65.465,
2025-08-15T01:30:07.773Z,12,GR86-002-2,12.3,-1.178,-0.278,3.08,4.0,,68.84,69.615,182.92
2025-08-15T01:30:07.816Z,12,GR86-002-2,11.2,-1.239,-0.283,2.95,4.0,,74.18,74.865,
2025-08-15T01:30:07.860Z,12,GR86-002-2,1.3,-1.306,-0.285,2.78,4.0,,75.78,75.675,
2025-08-15T01:30:07.902Z,12,GR86-002-2,-7.1000000000000005,-1.296,-0.366,5.29,4.0,,74.865,75.43,
2025-08-15T01:30:07.945Z,12,GR86-002-2,-12.6,-1.273,-0.46,45.12,3.0,6356.0,68.685,70.09,
2025-08-15T01:30:07.988Z,12,GR86-002-2,-12.3,-1.214,-0.519,30.49,3.0,,59.42,60.4,175.91
2025-08-15T01:30:08.031Z,12,GR86-002-2,-6.9,-1.184,-0.405,4.91,3.0,,56.22,57.53,
2025-08-15T01:30:08.074Z,12,GR86-002-2,0.6000000000000001,-1.287,-0.522,4.11,3.0,,57.15,58.34,
2025-08-15T01:30:08.117Z,12,GR86-002-2,8.8,-1.287,-0.46,3.7,3.0,,56.31,56.965,
2025-08-15T01:30:08.161Z,12,GR86-002-2,20.9,-1.134,-0.499,3.44,3.0,6661.0,55.975,56.875,
2025-08-15T01:30:08.204Z,12,GR86-002-2,26.700000000000003,-1.087,-0.546,3.24,3.0,,54.205,54.83,168.07
2025-08-15T01:30:08.247Z,12,GR86-002-2,30.8,-1.139,-0.432,3.08,3.0,,54.465,55.21,
2025-08-15T01:30:08.291Z,12,GR86-002-2,35.0,-1.082,-0.661,2.92,3.0,,54.83,55.865,
2025-08-15T01:30:08.334Z,12,GR86-002-2,36.6,-1.115,-0.585,2.78,3.0,,56.22,57.27,
2025-08-15T01:30:08.377Z,12,GR86-002-2,30.200000000000003,-1.037,-0.592,2.66,3.0,6868.0,57.09,58.155,
2025-08-15T01:30:08.421Z,12,GR86-002-2,16.0,-0.939,-0.721,2.53,3.0,,56.875,57.055,160.84
2025-08-15T01:30:08.464Z,12,GR86-002-2,9.7,-0.887,-0.729,2.5,3.0,,53.58,53.545,
2025-08-15T01:30:08.551Z,12,GR86-002-2,4.800000000000001,-0.884,-0.78,2.46,3.0,,49.425,49.7,
2025-08-15T01:30:08.593Z,12,GR86-002-2,-13.6,-0.812,-0.806,2.43,3.0,6769.0,40.09,41.02,
2025-08-15T01:30:08.636Z,12,GR86-002-2,-25.5,-0.841,-0.888,2.44,3.0,,37.95,38.35,152.94
2025-08-15T01:30:08.682Z,12,GR86-002-2,-29.3,-0.834,-0.995,2.44,3.0,,35.34,36.335,
2025-08-15T01:30:08.725Z,12,GR86-002-2,-20.3,-0.732,-0.973,2.43,3.0,,35.235,36.09,
2025-08-15T01:30:08.768Z,12,GR86-002-2,-9.7,-0.787,-0.965,2.44,3.0,,35.615,36.395,
2025-08-15T01:30:08.811Z,12,GR86-002-2,-2.5,-0.774,-0.8220000000000001,2.43,3.0,6380.0,34.335,35.145,
2025-08-15T01:30:08.854Z,12,GR86-002-2,1.6,-0.921,-0.743,2.44,3.0,,30.64,31.205,146.53
2025-08-15T01:30:08.897Z,12,GR86-002-2,3.7,-0.761,-0.753,2.44,3.0,,29.3,30.075,
2025-08-15T01:30:08.941Z,12,GR86-002-2,1.9,-0.708,-0.768,2.44,3.0,,25.33,25.635,
2025-08-15T01:30:08.984Z,12,GR86-002-2,-3.8,-0.6930000000000001,-0.812,2.47,3.0,,22.77,23.09,
2025-08-15T01:30:09.071Z,12,GR86-002-2,-16.1,-0.589,-0.976,2.45,3.0,6233.0,20.205,20.755,142.36
2025-08-15T01:30:09.114Z,12,GR86-002-2,-17.3,-0.614,-1.069,2.45,3.0,,15.72,16.465,
2025-08-15T01:30:09.157Z,12,GR86-002-2,-15.6,-0.474,-1.075,2.47,3.0,,7.295,7.890000000000001,
2025-08-15T01:30:09.201Z,12,GR86-002-2,-17.400000000000002,-0.271,-1.114,2.46,3.0,,0.0,0.0,
2025-08-15T01:30:09.244Z,12,GR86-002-2,-22.3,-0.262,-1.109,2.47,3.0,5983.0,0.0,0.0,
2025-08-15T01:30:09.287Z,12,GR86-002-2,-28.0,-0.179,-1.151,2.46,3.0,,0.0,0.0,137.6
2025-08-15T01:30:09.331Z,12,GR86-002-2,-31.4,-0.158,-1.199,3.87,3.0,,0.0,0.0,
2025-08-15T01:30:09.374Z,12,GR86-002-2,-31.3,-0.186,-1.184,19.06,3.0,,0.0,0.0,
2025-08-15T01:30:09.417Z,12,GR86-002-2,-29.200000000000003,-0.175,-1.158,20.19,3.0,,0.0,0.0,
2025-08-15T01:30:09.461Z,12,GR86-002-2,-26.5,-0.159,-1.199,28.97,3.0,6090.0,0.0,0.0,
2025-08-15T01:30:09.504Z,12,GR86-002-2,-26.1,-0.091,-1.17,31.57,3.0,,0.0,0.0,134.79
2025-08-15T01:30:09.547Z,12,GR86-002-2,-28.6,-0.093,-1.19,32.05,3.0,,0.0,0.0,
2025-08-15T01:30:09.591Z,12,GR86-002-2,-34.7,-0.113,-1.192,32.14,3.0,,0.0,0.0,
2025-08-15T01:30:09.633Z,12,GR86-002-2,-43.5,0.13,-1.213,32.12,3.0,,0.0,0.0,
2025-08-15T01:30:09.678Z,12,GR86-002-2,-52.0,0.159,-1.225,32.160000000000004,3.0,6081.0,0.0,0.0,
2025-08-15T01:30:09.721Z,12,GR86-002-2,-58.3,0.072,-1.236,32.230000000000004,3.0,,0.0,0.0,131.54
2025-08-15T01:30:09.764Z,12,GR86-002-2,-58.2,0.058,-1.268,32.04,3.0,,0.0,0.0,
2025-08-15T01:30:09.807Z,12,GR86-002-2,-56.1,0.019,-1.344,32.02,3.0,,0.0,0.0,
2025-08-15T01:30:09.851Z,12,GR86-002-2,-54.3,0.003,-1.296,32.05,3.0,,0.0,0.0,
2025-08-15T01:30:09.893Z,12,GR86-002-2,-53.6,0.068,-1.321,32.02,3.0,6179.0,0.0,0.0,
2025-08-15T01:30:09.936Z,12,GR86-002-2,-52.8,0.076,-1.303,31.9,3.0,,0.0,0.0,131.15
2025-08-15T01:30:09.980Z,12,GR86-002-2,-50.1,0.06,-1.301,31.26,3.0,,0.0,0.0,
2025-08-15T01:30:10.022Z,12,GR86-002-2,-46.0,0.043,-1.306,29.15,3.0,,0.0,0.0,
2025-08-15T01:30:10.066Z,12,GR86-002-2,-39.8,0.024,-1.415,25.7,3.0,,0.0,0.0,
2025-08-15T01:30:10.108Z,12,GR86-002-2,-30.4,0.039,-1.419,19.73,3.0,6232.0,0.0,0.0,
2025-08-15T01:30:10.151Z,12,GR86-002-2,-18.9,0.008,-1.309,17.52,3.0,,0.0,0.0,132.28
2025-08-15T01:30:10.194Z,12,GR86-002-2,-8.3,0.011,-1.324,18.25,3.0,,0.0,0.0,
2025-08-15T01:30:10.238Z,12,GR86-002-2,0.6000000000000001,0.084,-1.161,20.65,3.0,,0.0,0.0,
2025-08-15T01:30:10.281Z,12,GR86-002-2,9.9,-0.035,-1.237,22.12,3.0,,0.0,0.0,
2025-08-15T01:30:10.324Z,12,GR86-002-2,12.6,-0.053,-0.986,24.91,3.0,6181.0,0.0,0.0,
2025-08-15T01:30:10.367Z,12,GR86-002-2,11.7,0.026,-1.114,31.46,3.0,,0.0,0.0,132.57
2025-08-15T01:30:10.411Z,12,GR86-002-2,4.2,0.074,-1.016,31.58,3.0,,0.0,0.0,
2025-08-15T01:30:10.453Z,12,GR86-002-2,-6.300000000000001,0.087,-1.112,31.89,3.0,,0.0,0.0,
2025-08-15T01:30:10.496Z,12,GR86-002-2,-19.6,0.02,-1.191,34.94,3.0,,0.0,0.0,
2025-08-15T01:30:10.540Z,12,GR86-002-2,-36.1,0.163,-1.462,54.61,3.0,6244.0,0.0,0.0,
2025-08-15T01:30:10.582Z,12,GR86-002-2,-39.5,0.129,-1.184,72.93,3.0,,0.0,0.0,131.31
2025-08-15T01:30:10.625Z,12,GR86-002-2,-34.4,0.091,-1.172,92.43,3.0,,0.0,0.0,
2025-08-15T01:30:10.668Z,12,GR86-002-2,-26.0,0.027,-0.954,99.6,3.0,,0.0,0.0,
2025-08-15T01:30:10.711Z,12,GR86-002-2,-22.1,0.015,-0.939,99.87,3.0,,0.0,0.0,
2025-08-15T01:30:10.754Z,12,GR86-002-2,-23.9,0.132,-1.243,99.87,3.0,6668.0,0.0,0.0,
2025-08-15T01:30:10.797Z,12,GR86-002-2,-28.1,0.084,-1.245,99.88,3.0,,0.0,0.0,131.01
2025-08-15T01:30:10.841Z,12,GR86-002-2,-28.700000000000003,0.139,-1.333,99.87,3.0,,0.0,0.0,
2025-08-15T01:30:10.884Z,12,GR86-002-2,-18.5,0.109,-1.262,99.88,3.0,,0.0,0.0,
2025-08-15T01:30:10.927Z,12,GR86-002-2,-2.8000000000000003,0.161,-1.32,99.88,3.0,,0.0,0.0,
2025-08-15T01:30:10.971Z,12,GR86-002-2,13.7,0.344,-1.374,99.86,3.0,6560.0,0.0,0.0,
2025-08-15T01:30:11.014Z,12,GR86-002-2,22.5,0.29,-1.156,99.88,3.0,,0.0,0.0,130.82
2025-08-15T01:30:11.057Z,12,GR86-002-2,19.8,0.177,-1.102,99.9,3.0,,0.0,0.0,
2025-08-15T01:30:11.101Z,12,GR86-002-2,-0.9,0.169,-1.128,99.91,3.0,,0.0,0.0,
2025-08-15T01:30:11.144Z,12,GR86-002-2,-13.8,0.177,-1.222,99.91,3.0,,0.0,0.0,
2025-08-15T01:30:11.188Z,12,GR86-002-2,-16.2,0.158,-1.303,99.89,3.0,6432.0,0.0,0.0,
2025-08-15T01:30:11.232Z,12,GR86-002-2,-6.7,0.196,-1.343,99.87,3.0,,0.0,0.0,131.23
2025-08-15T01:30:11.274Z,12,GR86-002-2,4.2,0.209,-1.238,99.88,3.0,,0.0,0.0,
2025-08-15T01:30:11.317Z,12,GR86-002-2,6.0,0.214,-1.213,99.91,3.0,,0.0,0.0,
2025-08-15T01:30:11.361Z,12,GR86-002-2,-8.9,0.25,-1.167,99.94,3.0,,0.0,0.0,
2025-08-15T01:30:11.404Z,12,GR86-002-2,-22.3,0.233,-1.195,99.91,3.0,6505.0,0.0,0.0,
2025-08-15T01:30:11.447Z,12,GR86-002-2,-31.3,0.198,-1.183,99.9,3.0,,0.0,0.0,131.91
2025-08-15T01:30:11.491Z,12,GR86-002-2,-34.1,0.167,-1.168,99.88,3.0,,0.0,0.0,
2025-08-15T01:30:11.533Z,12,GR86-002-2,-34.1,0.152,-1.251,99.9,3.0,,0.0,0.0,
2025-08-15T01:30:11.576Z,12,GR86-002-2,-34.6,0.174,-1.225,99.91,3.0,,0.0,0.0,
2025-08-15T01:30:11.620Z,12,GR86-002-2,-38.2,0.225,-1.26,99.9,3.0,6409.0,0.0,0.0,
2025-08-15T01:30:11.664Z,12,GR86-002-2,-39.400000000000006,0.178,-1.194,99.91,3.0,,0.0,0.0,132.79
2025-08-15T01:30:11.707Z,12,GR86-002-2,-38.400000000000006,0.151,-1.223,99.87,3.0,,0.0,0.0,
2025-08-15T01:30:11.751Z,12,GR86-002-2,-34.4,0.183,-1.234,99.88,3.0,,0.0,0.0,
2025-08-15T01:30:11.793Z,12,GR86-002-2,-29.0,0.152,-1.193,99.87,3.0,,0.0,0.0,
2025-08-15T01:30:11.836Z,12,GR86-002-2,-25.1,0.155,-1.122,99.89,3.0,6372.0,0.0,0.0,
2025-08-15T01:30:11.880Z,12,GR86-002-2,-25.6,0.166,-1.122,99.91,3.0,,0.0,0.0,133.64
2025-08-15T01:30:11.922Z,12,GR86-002-2,-27.9,0.166,-1.125,99.9,3.0,,0.0,0.0,
2025-08-15T01:30:11.966Z,12,GR86-002-2,-30.200000000000003,0.195,-1.201,99.9,3.0,,0.0,0.0,
2025-08-15T01:30:12.011Z,12,GR86-002-2,-31.1,0.199,-1.204,99.91,3.0,,0.0,0.0,
2025-08-15T01:30:12.054Z,12,GR86-002-2,-30.4,0.151,-1.101,99.87,3.0,6445.0,0.0,0.0,
2025-08-15T01:30:12.097Z,12,GR86-002-2,-27.6,0.139,-1.104,99.88,3.0,,0.0,0.0,134.73
2025-08-15T01:30:12.141Z,12,GR86-002-2,-20.700000000000003,0.153,-1.101,99.88,3.0,,0.0,0.0,
2025-08-15T01:30:12.184Z,12,GR86-002-2,-15.2,0.211,-1.105,99.87,3.0,,0.0,0.0,
2025-08-15T01:30:12.227Z,12,GR86-002-2,-10.9,0.223,-1.098,99.88,3.0,,0.0,0.0,
2025-08-15T01:30:12.271Z,12,GR86-002-2,-9.6,0.168,-1.008,99.88,3.0,6514.0,0.0,0.0,
2025-08-15T01:30:12.314Z,12,GR86-002-2,-11.3,0.154,-0.875,99.9,3.0,,0.0,0.0,135.64
2025-08-15T01:30:12.358Z,12,GR86-002-2,-15.8,0.171,-0.8160000000000001,99.91,3.0,,0.0,0.0,
2025-08-15T01:30:12.401Z,12,GR86-002-2,-22.8,0.307,-0.759,99.9,3.0,,0.0,0.0,
2025-08-15T01:30:12.444Z,12,GR86-002-2,-25.6,0.115,-0.743,99.87,3.0,,0.0,0.0,
2025-08-15T01:30:12.487Z,12,GR86-002-2,-24.5,0.065,-0.992,99.91,3.0,6580.0,0.0,0.0,
2025-08-15T01:30:12.531Z,12,GR86-002-2,-20.9,0.218,-0.957,99.9,3.0,,0.0,0.0,137.61
2025-08-15T01:30:12.573Z,12,GR86-002-2,-15.7,0.245,-1.083,99.9,3.0,,0.0,0.0,
2025-08-15T01:30:12.616Z,12,GR86-002-2,-11.7,0.27,-0.596,99.88,3.0,,0.0,0.0,
2025-08-15T01:30:12.660Z,12,GR86-002-2,-10.5,0.247,-0.9,99.91,3.0,,0.0,0.0,
2025-08-15T01:30:12.703Z,12,GR86-002-2,-10.5,0.373,-0.899,99.91,3.0,6618.0,0.0,0.0,
2025-08-15T01:30:12.746Z,12,GR86-002-2,-10.6,0.173,-1.076,99.9,3.0,,0.0,0.0,138.45000000000002
2025-08-15T01:30:12.790Z,12,GR86-002-2,-9.7,0.203,-1.239,99.87,3.0,,0.0,0.0,
2025-08-15T01:30:12.832Z,12,GR86-002-2,-9.0,0.291,-1.119,99.88,3.0,,0.0,0.0,
2025-08-15T01:30:12.875Z,12,GR86-002-2,-9.0,0.169,-1.108,99.89,3.0,,0.0,0.0,
2025-08-15T01:30:12.918Z,12,GR86-002-2,-9.8,0.173,-0.843,99.9,3.0,6724.0,0.0,0.0,
2025-08-15T01:30:12.961Z,12,GR86-002-2,-12.3,0.183,-0.731,99.88,3.0,,0.0,0.0,139.93
2025-08-15T01:30:13.004Z,12,GR86-002-2,-15.8,0.193,-0.71,99.9,3.0,,0.0,0.0,
2025-08-15T01:30:13.047Z,12,GR86-002-2,-22.1,0.265,-0.8270000000000001,99.9,3.0,,0.0,0.0,
2025-08-15T01:30:13.091Z,12,GR86-002-2,-28.1,0.315,-0.853,99.9,3.0,,0.0,0.0,
2025-08-15T01:30:13.133Z,12,GR86-002-2,-30.200000000000003,0.175,-0.938,99.87,3.0,6680.0,0.0,0.0,
2025-08-15T01:30:13.176Z,12,GR86-002-2,-26.3,0.134,-0.999,99.87,3.0,,0.0,0.0,140.42000000000002
2025-08-15T01:30:13.220Z,12,GR86-002-2,-15.4,0.167,-0.96,99.88,3.0,,0.0,0.0,
2025-08-15T01:30:13.264Z,12,GR86-002-2,-9.8,0.182,-0.886,99.88,3.0,,0.0,0.0,
2025-08-15T01:30:13.307Z,12,GR86-002-2,-8.0,0.216,-0.768,99.87,3.0,,0.0,0.0,
2025-08-15T01:30:13.351Z,12,GR86-002-2,-9.2,0.198,-0.732,99.88,3.0,6692.0,0.0,0.0,
2025-08-15T01:30:13.393Z,12,GR86-002-2,-11.5,0.219,-0.654,99.9,3.0,,0.0,0.0,142.34
2025-08-15T01:30:13.436Z,12,GR86-002-2,-12.7,0.159,-0.623,99.88,3.0,,0.0,0.0,
2025-08-15T01:30:13.480Z,12,GR86-002-2,-11.3,0.225,-0.532,99.87,3.0,,0.0,0.0,
2025-08-15T01:30:13.524Z,12,GR86-002-2,-10.3,0.198,-0.513,99.87,3.0,,0.0,0.0,
2025-08-15T01:30:13.567Z,12,GR86-002-2,-10.5,0.186,-0.474,99.88,3.0,6781.0,0.0,0.0,
2025-08-15T01:30:13.611Z,12,GR86-002-2,-11.8,0.16,-0.458,99.87,3.0,,0.0,0.0,143.38
2025-08-15T01:30:13.653Z,12,GR86-002-2,-12.8,0.219,-0.48,99.88,3.0,,0.0,0.0,
2025-08-15T01:30:13.696Z,12,GR86-002-2,-12.9,0.233,-0.517,99.87,3.0,,0.0,0.0,
2025-08-15T01:30:13.740Z,12,GR86-002-2,-12.6,0.231,-0.448,99.87,3.0,,0.0,0.0,
2025-08-15T01:30:13.783Z,12,GR86-002-2,-12.3,0.115,-0.529,99.87,3.0,6807.0,0.0,0.0,
2025-08-15T01:30:13.827Z,12,GR86-002-2,-11.2,0.121,-0.482,99.88,3.0,,0.0,0.0,144.87
2025-08-15T01:30:13.870Z,12,GR86-002-2,-9.0,0.136,-0.366,99.89,3.0,,0.0,0.0,
2025-08-15T01:30:13.912Z,12,GR86-002-2,-6.5,0.223,-0.4,99.88,3.0,,0.0,0.0,
2025-08-15T01:30:13.955Z,12,GR86-002-2,-4.4,0.277,-0.248,99.87,3.0,,0.0,0.0,
2025-08-15T01:30:13.998Z,12,GR86-002-2,-3.0,0.114,-0.293,99.9,3.0,6942.0,0.0,0.0,
2025-08-15T01:30:14.041Z,12,GR86-002-2,-1.2000000000000002,0.164,-0.263,99.89,3.0,,0.0,0.0,146.14
2025-08-15T01:30:14.084Z,12,GR86-002-2,-0.6000000000000001,0.308,-0.479,99.92,3.0,,0.0,0.0,
2025-08-15T01:30:14.127Z,12,GR86-002-2,-0.1,0.383,-0.484,99.91,3.0,,0.0,0.0,
2025-08-15T01:30:14.171Z,12,GR86-002-2,0.2,0.226,-0.381,99.89,3.0,,0.0,0.0,
2025-08-15T01:30:14.214Z,12,GR86-002-2,0.2,0.088,-0.418,99.91,3.0,7216.0,0.0,0.0,
2025-08-15T01:30:14.257Z,12,GR86-002-2,-0.3,0.18,-0.343,99.91,3.0,,0.0,0.0,147.18
2025-08-15T01:30:14.301Z,12,GR86-002-2,0.8,0.258,-0.082,99.9,3.0,,0.0,0.0,
2025-08-15T01:30:14.344Z,12,GR86-002-2,1.5,0.135,-0.207,99.91,3.0,,0.0,0.0,
2025-08-15T01:30:14.387Z,12,GR86-002-2,0.6000000000000001,0.092,-0.056,99.9,3.0,,0.0,0.0,
2025-08-15T01:30:14.431Z,12,GR86-002-2,-2.0,0.099,-0.01,99.91,3.0,7055.0,0.0,0.0,
2025-08-15T01:30:14.473Z,12,GR86-002-2,-4.4,0.07,-0.015,99.91,3.0,,0.0,0.0,149.55
2025-08-15T01:30:14.516Z,12,GR86-002-2,-3.7,0.247,0.016,99.9,3.0,,0.0,0.0,
2025-08-15T01:30:14.560Z,12,GR86-002-2,-1.0,0.252,0.04,99.91,3.0,,0.0,0.0,
2025-08-15T01:30:14.604Z,12,GR86-002-2,0.2,0.178,0.089,99.91,3.0,,0.0,0.0,
2025-08-15T01:30:14.647Z,12,GR86-002-2,0.5,0.081,0.143,99.9,3.0,7259.0,0.0,0.0,
2025-08-15T01:30:14.691Z,12,GR86-002-2,1.2000000000000002,0.012,0.227,99.89,3.0,,0.0,0.0,150.46
2025-08-15T01:30:14.733Z,12,GR86-002-2,1.9,0.002,0.174,99.9,3.0,,0.0,0.0,
2025-08-15T01:30:14.777Z,12,GR86-002-2,6.9,0.077,0.263,99.91,3.0,,0.0,0.0,
2025-08-15T01:30:14.821Z,12,GR86-002-2,14.8,0.324,0.194,99.9,3.0,,0.0,0.0,
2025-08-15T01:30:14.864Z,12,GR86-002-2,13.9,-0.115,0.216,99.87,4.0,7211.0,0.0,0.0,
2025-08-15T01:30:14.907Z,12,GR86-002-2,11.4,-0.016,0.444,99.91,4.0,,0.0,0.0,151.66
2025-08-15T01:30:14.951Z,12,GR86-002-2,11.2,0.43,0.329,99.9,4.0,,0.0,0.0,
2025-08-15T01:30:14.993Z,12,GR86-002-2,11.2,0.281,0.356,99.91,4.0,,0.0,0.0,
2025-08-15T01:30:15.036Z,12,GR86-002-2,9.7,0.259,0.448,99.9,4.0,,0.0,0.0,
2025-08-15T01:30:15.080Z,12,GR86-002-2,5.4,0.054,0.352,99.91,4.0,6716.0,0.0,0.0,
2025-08-15T01:30:15.122Z,12,GR86-002-2,4.6000000000000005,0.155,0.391,99.92,4.0,,0.0,0.0,154.21
2025-08-15T01:30:15.166Z,12,GR86-002-2,4.9,0.219,0.382,99.91,4.0,,0.0,0.0,
2025-08-15T01:30:15.210Z,12,GR86-002-2,5.5,0.191,0.3,99.9,4.0,,0.0,0.0,
2025-08-15T01:30:15.252Z,12,GR86-002-2,6.0,0.16,0.307,99.91,4.0,,0.0,0.0,
2025-08-15T01:30:15.295Z,12,GR86-002-2,6.6000000000000005,0.142,0.268,99.9,4.0,6107.0,0.0,0.0,
2025-08-15T01:30:15.339Z,12,GR86-002-2,6.7,0.138,0.251,99.9,4.0,,0.0,0.0,155.5
2025-08-15T01:30:15.381Z,12,GR86-002-2,6.800000000000001,0.186,0.232,99.91,4.0,,0.0,0.0,
2025-08-15T01:30:15.424Z,12,GR86-002-2,6.800000000000001,0.148,0.214,99.9,4.0,,0.0,0.0,
2025-08-15T01:30:15.467Z,12,GR86-002-2,6.5,0.121,0.214,99.91,4.0,,0.0,0.0,
2025-08-15T01:30:15.511Z,12,GR86-002-2,6.2,0.122,0.232,99.91,4.0,6149.0,0.0,0.0,
2025-08-15T01:30:15.553Z,12,GR86-002-2,5.9,0.155,0.239,99.88,4.0,,0.0,0.0,156.84
2025-08-15T01:30:15.596Z,12,GR86-002-2,5.300000000000001,0.18,0.236,99.9,4.0,,0.0,0.0,
2025-08-15T01:30:15.640Z,12,GR86-002-2,4.5,0.116,0.226,99.9,4.0,,0.0,0.0,
2025-08-15T01:30:15.683Z,12,GR86-002-2,4.3,0.135,0.207,99.9,4.0,,0.0,0.0,
2025-08-15T01:30:15.727Z,12,GR86-002-2,4.0,0.157,0.21,99.91,4.0,6252.0,0.0,0.0,
2025-08-15T01:30:15.771Z,12,GR86-002-2,3.2,0.191,0.19,99.91,4.0,,0.0,0.0,158.31
2025-08-15T01:30:15.814Z,12,GR86-002-2,3.0,0.184,0.169,99.9,4.0,,0.0,0.0,
2025-08-15T01:30:15.857Z,12,GR86-002-2,3.0,0.187,0.143,99.92,4.0,,0.0,0.0,
2025-08-15T01:30:15.901Z,12,GR86-002-2,2.6,0.159,0.126,99.91,4.0,,0.0,0.0,
2025-08-15T01:30:15.944Z,12,GR86-002-2,2.6,0.181,0.103,99.9,4.0,6308.0,0.0,0.0,
2025-08-15T01:30:15.987Z,12,GR86-002-2,2.3000000000000003,0.187,0.082,99.9,4.0,,0.0,0.0,159.87
2025-08-15T01:30:16.031Z,12,GR86-002-2,2.2,0.193,0.069,99.9,4.0,,0.0,0.0,
2025-08-15T01:30:16.074Z,12,GR86-002-2,2.2,0.155,0.057,99.89,4.0,,0.0,0.0,
2025-08-15T01:30:16.117Z,12,GR86-002-2,2.2,0.115,0.057,99.91,4.0,,0.0,0.0,
2025-08-15T01:30:16.161Z,12,GR86-002-2,1.9,0.186,0.056,99.91,4.0,6358.0,0.0,0.0,
2025-08-15T01:30:16.204Z,12,GR86-002-2,1.6,0.192,0.049,99.91,4.0,,0.0,0.0,161.37
2025-08-15T01:30:16.247Z,12,GR86-002-2,1.6,0.149,0.029,99.91,4.0,,0.0,0.0,
2025-08-15T01:30:16.291Z,12,GR86-002-2,1.0,0.128,0.026,99.9,4.0,,0.0,0.0,
2025-08-15T01:30:16.334Z,12,GR86-002-2,0.1,0.109,0.022,99.91,4.0,,0.0,0.0,
2025-08-15T01:30:16.377Z,12,GR86-002-2,0.7000000000000001,0.115,0.044,99.89,4.0,6429.0,0.0,0.0,
2025-08-15T01:30:16.421Z,12,GR86-002-2,0.2,0.172,0.007,99.9,4.0,,0.0,0.0,162.91
2025-08-15T01:30:16.464Z,12,GR86-002-2,-0.1,0.13,0.005,99.91,4.0,,0.0,0.0,
2025-08-15T01:30:16.507Z,12,GR86-002-2,-0.4,0.133,-0.007,99.91,4.0,,0.0,0.0,
2025-08-15T01:30:16.551Z,12,GR86-002-2,-0.5,0.131,0.013,99.9,4.0,,0.0,0.0,
2025-08-15T01:30:16.594Z,12,GR86-002-2,-0.7000000000000001,0.112,0.013,99.9,4.0,6495.0,0.0,0.0,
2025-08-15T01:30:16.638Z,12,GR86-002-2,-1.2000000000000002,0.119,0.015,99.91,4.0,,0.0,0.0,164.36
2025-08-15T01:30:16.682Z,12,GR86-002-2,-2.2,0.159,-0.039,99.92,4.0,,0.0,0.0,
2025-08-15T01:30:16.724Z,12,GR86-002-2,-2.8000000000000003,0.153,-0.051,99.91,4.0,,0.0,0.0,
2025-08-15T01:30:16.767Z,12,GR86-002-2,-3.6,0.121,-0.064,99.88,4.0,,0.0,0.0,
2025-08-15T01:30:16.811Z,12,GR86-002-2,-4.2,0.108,-0.082,99.88,4.0,6547.0,0.0,0.0,
2025-08-15T01:30:16.854Z,12,GR86-002-2,-4.5,0.117,-0.095,99.91,4.0,,0.0,0.0,166.01
2025-08-15T01:30:16.897Z,12,GR86-002-2,-4.6000000000000005,0.128,-0.103,99.92,4.0,,0.0,0.0,
2025-08-15T01:30:16.941Z,12,GR86-002-2,-4.6000000000000005,0.144,-0.169,99.9,4.0,,0.0,0.0,
2025-08-15T01:30:16.984Z,12,GR86-002-2,-4.6000000000000005,0.141,-0.179,99.9,4.0,,0.0,0.0,
2025-08-15T01:30:17.157Z,12,GR86-002-2,-4.9,0.112,-0.187,99.91,4.0,6606.0,0.0,0.0,167.48
2025-08-15T01:30:17.201Z,12,GR86-002-2,-6.0,0.157,-0.2,99.91,4.0,,0.0,0.0,
2025-08-15T01:30:17.244Z,12,GR86-002-2,-6.2,0.143,-0.194,99.91,4.0,6660.0,0.0,0.0,
2025-08-15T01:30:17.287Z,12,GR86-002-2,-6.2,0.12,-0.217,99.9,4.0,,0.0,0.0,169.07
2025-08-15T01:30:17.331Z,12,GR86-002-2,-6.300000000000001,0.13,-0.228,99.89,4.0,,0.0,0.0,
2025-08-15T01:30:17.373Z,12,GR86-002-2,-6.7,0.12,-0.228,99.91,4.0,,0.0,0.0,
2025-08-15T01:30:17.416Z,12,GR86-002-2,-7.300000000000001,0.114,-0.245,99.91,4.0,,0.0,0.0,
2025-08-15T01:30:17.460Z,12,GR86-002-2,-8.0,0.147,-0.28,99.88,4.0,6712.0,0.0,0.0,
2025-08-15T01:30:17.502Z,12,GR86-002-2,-8.0,0.147,-0.29,99.89,4.0,,0.0,0.0,170.59
2025-08-15T01:30:17.545Z,12,GR86-002-2,-7.800000000000001,0.146,-0.303,99.89,4.0,,0.0,0.0,
2025-08-15T01:30:17.588Z,12,GR86-002-2,-7.300000000000001,0.15,-0.307,99.9,4.0,,5.995,6.0600000000000005,
2025-08-15T01:30:17.631Z,12,GR86-002-2,-7.2,0.137,-0.314,99.87,4.0,,9.72,10.085,
2025-08-15T01:30:17.674Z,12,GR86-002-2,-7.2,0.096,-0.308,99.89,4.0,6771.0,7.645,8.545,
2025-08-15T01:30:17.761Z,12,GR86-002-2,-7.2,0.132,-0.311,99.87,4.0,,0.0,0.0,171.94
2025-08-15T01:30:17.804Z,12,GR86-002-2,-7.2,0.153,-0.32,99.89,4.0,,0.0,0.0,
2025-08-15T01:30:17.847Z,12,GR86-002-2,-7.2,0.14,-0.329,99.89,4.0,,0.0,0.0,
2025-08-15T01:30:17.891Z,12,GR86-002-2,-7.2,0.142,-0.336,99.87,4.0,6810.0,0.0,0.0,
2025-08-15T01:30:17.976Z,12,GR86-002-2,-6.7,0.15,-0.338,99.87,4.0,,0.0,0.0,174.39
2025-08-15T01:30:18.020Z,12,GR86-002-2,-4.800000000000001,0.099,-0.295,99.87,4.0,,0.0,0.0,
2025-08-15T01:30:18.064Z,12,GR86-002-2,-3.6,0.12,-0.269,99.86,4.0,,0.0,0.0,
2025-08-15T01:30:18.107Z,12,GR86-002-2,-3.4000000000000004,0.119,-0.237,99.89,4.0,6868.0,0.0,0.0,
2025-08-15T01:30:18.151Z,12,GR86-002-2,-4.4,0.125,-0.213,99.89,4.0,,0.0,0.0,175.71
2025-08-15T01:30:18.193Z,12,GR86-002-2,-5.7,0.111,-0.198,99.87,4.0,,0.0,0.0,
2025-08-15T01:30:18.236Z,12,GR86-002-2,-6.300000000000001,0.119,-0.182,99.87,4.0,,0.0,0.0,
2025-08-15T01:30:18.280Z,12,GR86-002-2,-5.5,0.135,-0.196,99.87,4.0,,0.0,0.0,
2025-08-15T01:30:18.322Z,12,GR86-002-2,-4.3,0.121,-0.188,99.88,4.0,6967.0,0.0,0.0,
2025-08-15T01:30:18.365Z,12,GR86-002-2,-3.9,0.128,-0.183,99.9,4.0,,0.0,0.0,176.96
2025-08-15T01:30:18.410Z,12,GR86-002-2,-4.5,0.113,-0.187,99.87,4.0,,0.0,0.0,
2025-08-15T01:30:18.452Z,12,GR86-002-2,-6.5,0.129,-0.199,99.88,4.0,,0.0,0.0,
2025-08-15T01:30:18.495Z,12,GR86-002-2,-8.3,0.12,-0.23,99.89,4.0,,0.0,0.0,
2025-08-15T01:30:18.539Z,12,GR86-002-2,-8.700000000000001,0.132,-0.254,99.88,4.0,7019.0,0.0,0.0,
2025-08-15T01:30:18.581Z,12,GR86-002-2,-5.7,0.121,-0.257,99.87,4.0,,0.0,0.0,178.33
2025-08-15T01:30:18.624Z,12,GR86-002-2,-3.4000000000000004,0.117,-0.243,99.9,4.0,,0.0,0.0,
2025-08-15T01:30:18.667Z,12,GR86-002-2,-3.3000000000000003,0.113,-0.238,99.88,4.0,,0.0,0.0,
2025-08-15T01:30:18.711Z,12,GR86-002-2,-5.5,0.111,-0.241,99.88,4.0,,0.0,0.0,
2025-08-15T01:30:18.796Z,12,GR86-002-2,-9.0,0.125,-0.241,99.88,4.0,7066.0,0.0,0.0,179.57
2025-08-15T01:30:18.840Z,12,GR86-002-2,-11.3,0.106,-0.305,99.83,4.0,,0.0,0.0,
2025-08-15T01:30:18.883Z,12,GR86-002-2,-7.2,0.132,-0.325,57.620000000000005,4.0,,0.0,0.0,
2025-08-15T01:30:18.926Z,12,GR86-002-2,-2.9000000000000004,0.131,-0.306,4.01,4.0,,0.0,0.0,
2025-08-15T01:30:18.970Z,12,GR86-002-2,-0.7000000000000001,0.112,-0.291,4.87,4.0,7139.0,0.0,0.0,
2025-08-15T01:30:19.012Z,12,GR86-002-2,-0.6000000000000001,-0.131,-0.266,4.59,4.0,,0.0,0.0,180.54
2025-08-15T01:30:19.055Z,12,GR86-002-2,-0.8,-0.139,-0.213,3.99,4.0,,16.025,16.25,
2025-08-15T01:30:19.098Z,12,GR86-002-2,-0.8,-0.509,-0.218,3.64,4.0,,50.375,50.1,
2025-08-15T01:30:19.141Z,12,GR86-002-2,-4.800000000000001,-1.26,-0.099,3.34,4.0,,80.97,79.9,
2025-08-15T01:30:19.184Z,12,GR86-002-2,-12.1,-1.538,-0.063,3.13,4.0,7004.0,93.27,92.095,
2025-08-15T01:30:19.227Z,12,GR86-002-2,-19.8,-1.64,-0.103,3.04,4.0,,100.12,98.96,181.74
2025-08-15T01:30:19.271Z,12,GR86-002-2,-23.0,-1.703,-0.201,2.89,4.0,,104.025,104.24,
2025-08-15T01:30:19.314Z,12,GR86-002-2,-20.200000000000003,-1.733,-0.287,2.78,4.0,,106.925,108.745,
2025-08-15T01:30:19.357Z,12,GR86-002-2,-14.4,-1.652,-0.244,2.69,4.0,,107.89,109.125,
2025-08-15T01:30:19.401Z,12,GR86-002-2,-10.7,-1.409,-0.133,2.57,4.0,5949.0,109.905,111.61,
2025-08-15T01:30:19.444Z,12,GR86-002-2,-11.4,-1.419,-0.242,18.83,4.0,,104.805,105.05,173.28
2025-08-15T01:30:19.487Z,12,GR86-002-2,-13.5,-1.407,-0.223,61.76,4.0,,102.015,103.095,
2025-08-15T01:30:19.531Z,12,GR86-002-2,-14.0,-1.332,-0.198,70.7,3.0,,101.86,102.93,
2025-08-15T01:30:19.574Z,12,GR86-002-2,-10.6,-1.436,-0.325,6.91,3.0,,102.87,104.865,
2025-08-15T01:30:19.617Z,12,GR86-002-2,-6.7,-1.328,-0.193,3.66,3.0,5929.0,104.895,106.835,
2025-08-15T01:30:19.704Z,12,GR86-002-2,-5.5,-1.158,-0.374,3.2,3.0,,101.615,102.545,157.8
2025-08-15T01:30:19.747Z,12,GR86-002-2,3.1,-1.158,-0.495,3.0500000000000003,3.0,,102.425,103.525,
2025-08-15T01:30:19.791Z,12,GR86-002-2,3.0,-1.18,-0.296,2.9,3.0,,105.28,106.36,
2025-08-15T01:30:19.833Z,12,GR86-002-2,-0.3,-1.235,-0.352,2.78,3.0,6401.0,102.275,103.845,
2025-08-15T01:30:19.921Z,12,GR86-002-2,1.9,-1.221,-0.523,2.54,3.0,,101.71,103.065,143.68
2025-08-15T01:30:19.964Z,12,GR86-002-2,-6.1000000000000005,-1.311,-0.534,31.75,2.0,,103.645,104.805,
2025-08-15T01:30:20.007Z,12,GR86-002-2,-14.0,-1.131,-0.684,46.09,2.0,,96.46,97.495,
2025-08-15T01:30:20.051Z,12,GR86-002-2,-17.1,-1.355,-0.44,4.89,2.0,5917.0,94.4,96.045,
2025-08-15T01:30:20.093Z,12,GR86-002-2,-16.3,-1.363,-0.5650000000000001,4.23,2.0,,95.71,97.025,133.24
2025-08-15T01:30:20.136Z,12,GR86-002-2,-13.0,-1.078,-0.772,3.77,2.0,,86.19,87.5,
2025-08-15T01:30:20.180Z,12,GR86-002-2,-4.2,-1.193,-0.433,3.51,2.0,,74.65,76.3,
2025-08-15T01:30:20.222Z,12,GR86-002-2,-0.9,-1.269,-0.799,3.29,2.0,,68.655,69.77,
2025-08-15T01:30:20.266Z,12,GR86-002-2,-2.7,-1.211,-0.589,3.13,2.0,6129.0,61.85,62.93,
2025-08-15T01:30:20.308Z,12,GR86-002-2,-4.1000000000000005,-1.072,-0.704,2.97,2.0,,54.675,55.805,130.91
2025-08-15T01:30:20.351Z,12,GR86-002-2,-1.4,-0.933,-0.979,2.82,2.0,,48.39,49.045,
2025-08-15T01:30:20.394Z,12,GR86-002-2,-0.8,-0.997,-0.727,2.69,2.0,,48.77,49.64,
2025-08-15T01:30:20.439Z,12,GR86-002-2,-2.5,-0.911,-1.061,2.59,2.0,,49.67,50.585,
2025-08-15T01:30:20.481Z,12,GR86-002-2,5.1000000000000005,-0.812,-0.982,2.5,2.0,6487.0,41.02,41.995,
2025-08-15T01:30:20.524Z,12,GR86-002-2,19.700000000000003,-0.734,-0.96,2.45,2.0,,38.775,39.935,122.76
2025-08-15T01:30:20.567Z,12,GR86-002-2,33.9,-0.797,-0.977,2.43,2.0,,38.93,39.615,
2025-08-15T01:30:20.611Z,12,GR86-002-2,39.0,-0.76,-0.879,2.43,2.0,,38.53,39.46,
2025-08-15T01:30:20.653Z,12,GR86-002-2,35.5,-0.795,-0.974,2.42,2.0,,36.365,37.265,
2025-08-15T01:30:20.696Z,12,GR86-002-2,26.0,-0.791,-1.0,2.45,2.0,6505.0,33.13,33.495,
2025-08-15T01:30:20.740Z,12,GR86-002-2,20.0,-0.674,-1.083,2.42,2.0,,29.805,29.955,117.76
2025-08-15T01:30:20.782Z,12,GR86-002-2,22.6,-0.59,-1.141,2.41,2.0,,26.875,27.62,
2025-08-15T01:30:20.825Z,12,GR86-002-2,29.9,-0.612,-1.1,2.41,2.0,,24.37,24.86,
2025-08-15T01:30:20.868Z,12,GR86-002-2,33.1,-0.583,-1.007,2.43,2.0,,23.775,24.37,
2025-08-15T01:30:20.911Z,12,GR86-002-2,25.6,-0.6980000000000001,-1.042,2.44,2.0,6298.0,22.34,22.615,
2025-08-15T01:30:20.954Z,12,GR86-002-2,8.1,-0.578,-1.053,2.44,2.0,,17.52,18.055,112.9
2025-08-15T01:30:20.997Z,12,GR86-002-2,-3.8,-0.403,-1.185,2.44,2.0,,9.125,9.845,
2025-08-15T01:30:21.041Z,12,GR86-002-2,-25.4,-0.246,-1.258,2.44,2.0,,0.0,0.0,
2025-08-15T01:30:21.084Z,12,GR86-002-2,-35.6,-0.257,-1.266,2.44,2.0,,0.0,0.0,
2025-08-15T01:30:21.127Z,12,GR86-002-2,-45.0,-0.216,-1.289,2.44,2.0,5927.0,0.0,0.0,
2025-08-15T01:30:21.171Z,12,GR86-002-2,-49.900000000000006,-0.25,-1.333,2.44,2.0,,0.0,0.0,109.66
2025-08-15T01:30:21.214Z,12,GR86-002-2,-56.2,-0.203,-1.317,2.66,2.0,,0.0,0.0,
2025-08-15T01:30:21.257Z,12,GR86-002-2,-61.900000000000006,-0.219,-1.307,2.57,2.0,,0.0,0.0,
2025-08-15T01:30:21.301Z,12,GR86-002-2,-69.2,-0.235,-1.304,5.51,2.0,,0.0,0.0,
2025-08-15T01:30:21.344Z,12,GR86-002-2,-71.5,-0.207,-1.303,7.890000000000001,2.0,5942.0,0.0,0.0,
2025-08-15T01:30:21.387Z,12,GR86-002-2,-72.60000000000001,-0.21,-1.321,15.28,2.0,,0.0,0.0,107.04
2025-08-15T01:30:21.432Z,12,GR86-002-2,-73.0,-0.24,-1.325,19.34,2.0,,0.0,0.0,
2025-08-15T01:30:21.474Z,12,GR86-002-2,-73.0,-0.183,-1.36,20.2,2.0,,0.0,0.0,
2025-08-15T01:30:21.517Z,12,GR86-002-2,-73.0,-0.213,-1.403,24.17,2.0,,0.0,0.0,
2025-08-15T01:30:21.561Z,12,GR86-002-2,-72.5,-0.16,-1.409,30.94,2.0,5905.0,0.0,0.0,
2025-08-15T01:30:21.604Z,12,GR86-002-2,-71.2,-0.13,-1.415,31.58,2.0,,0.0,0.0,106.1
2025-08-15T01:30:21.647Z,12,GR86-002-2,-69.10000000000001,-0.105,-1.354,32.63,2.0,,0.0,0.0,
2025-08-15T01:30:21.691Z,12,GR86-002-2,-64.4,0.177,-1.318,33.230000000000004,2.0,,0.0,0.0,
2025-08-15T01:30:21.733Z,12,GR86-002-2,-55.400000000000006,0.116,-1.327,37.69,2.0,,0.0,0.0,
2025-08-15T01:30:21.776Z,12,GR86-002-2,-45.3,0.129,-1.291,52.63,2.0,6218.0,0.0,0.0,
2025-08-15T01:30:21.820Z,12,GR86-002-2,-34.1,0.159,-1.241,68.04,2.0,,0.0,0.0,105.15
2025-08-15T01:30:21.864Z,12,GR86-002-2,-28.200000000000003,0.157,-1.264,97.84,2.0,,0.0,0.0,
2025-08-15T01:30:21.907Z,12,GR86-002-2,-20.9,0.211,-1.209,99.85,2.0,,0.0,0.0,
2025-08-15T01:30:21.951Z,12,GR86-002-2,-13.5,0.256,-1.25,99.85,2.0,,0.0,0.0,
2025-08-15T01:30:21.993Z,12,GR86-002-2,-8.3,0.254,-1.191,99.85,2.0,6260.0,0.0,0.0,
2025-08-15T01:30:22.036Z,12,GR86-002-2,-5.0,0.263,-1.179,99.84,2.0,,0.0,0.0,104.67
2025-08-15T01:30:22.080Z,12,GR86-002-2,-7.7,0.24,-1.235,99.86,2.0,,0.0,0.0,
2025-08-15T01:30:22.122Z,12,GR86-002-2,-7.1000000000000005,0.234,-1.171,99.86,2.0,,0.0,0.0,
2025-08-15T01:30:22.166Z,12,GR86-002-2,-2.7,0.224,-1.138,99.84,2.0,,0.0,0.0,
2025-08-15T01:30:22.211Z,12,GR86-002-2,-0.8,0.241,-1.185,99.85,2.0,6392.0,0.0,0.0,
2025-08-15T01:30:22.254Z,12,GR86-002-2,0.2,0.257,-1.081,99.86,2.0,,0.0,0.0,105.35
2025-08-15T01:30:22.297Z,12,GR86-002-2,3.9,0.255,-1.065,98.83,2.0,,0.0,0.0,
2025-08-15T01:30:22.341Z,12,GR86-002-2,15.7,0.318,-1.207,92.7,2.0,,0.0,0.0,
2025-08-15T01:30:22.384Z,12,GR86-002-2,20.5,0.293,-1.067,75.58,2.0,,0.0,0.0,
2025-08-15T01:30:22.427Z,12,GR86-002-2,22.9,0.211,-1.004,76.88,2.0,6568.0,0.0,0.0,
2025-08-15T01:30:22.471Z,12,GR86-002-2,23.200000000000003,0.223,-0.999,76.69,2.0,,0.0,0.0,106.13
2025-08-15T01:30:22.514Z,12,GR86-002-2,19.3,0.334,-0.947,69.92,2.0,,0.0,0.0,
2025-08-15T01:30:22.557Z,12,GR86-002-2,10.3,0.286,-1.094,73.83,2.0,,0.0,0.0,
2025-08-15T01:30:22.601Z,12,GR86-002-2,-13.0,0.23,-1.246,87.74,2.0,,0.0,0.0,
2025-08-15T01:30:22.687Z,12,GR86-002-2,-35.5,0.256,-1.215,97.73,2.0,6701.0,0.0,0.0,107.3
2025-08-15T01:30:22.731Z,12,GR86-002-2,-65.4,0.222,-1.221,99.8,2.0,,0.0,0.0,
2025-08-15T01:30:22.774Z,12,GR86-002-2,-65.0,0.244,-1.148,99.82,2.0,,0.0,0.0,
2025-08-15T01:30:22.817Z,12,GR86-002-2,-61.3,0.203,-1.038,99.84,2.0,,0.0,0.0,
2025-08-15T01:30:22.861Z,12,GR86-002-2,-55.0,0.235,-1.093,99.84,2.0,6643.0,0.0,0.0,
2025-08-15T01:30:22.904Z,12,GR86-002-2,-51.2,0.206,-1.026,99.84,2.0,,0.0,0.0,107.58
2025-08-15T01:30:22.947Z,12,GR86-002-2,-46.2,0.19,-1.141,99.83,2.0,,0.0,0.0,
2025-08-15T01:30:22.991Z,12,GR86-002-2,-39.1,0.251,-1.099,99.83,2.0,,0.0,0.0,
2025-08-15T01:30:23.033Z,12,GR86-002-2,-31.5,0.283,-1.096,99.86,2.0,,0.0,0.0,
2025-08-15T01:30:23.076Z,12,GR86-002-2,-25.1,0.279,-1.11,99.84,2.0,6718.0,0.0,0.0,
2025-08-15T01:30:23.121Z,12,GR86-002-2,-23.0,0.275,-1.123,99.85,2.0,,0.0,0.0,110.39
2025-08-15T01:30:23.164Z,12,GR86-002-2,-26.700000000000003,0.298,-1.14,99.87,2.0,,0.0,0.0,
2025-08-15T01:30:23.207Z,12,GR86-002-2,-30.9,0.225,-1.19,99.85,2.0,,0.0,0.0,
2025-08-15T01:30:23.251Z,12,GR86-002-2,-32.2,0.222,-1.261,99.84,2.0,,0.0,0.0,
2025-08-15T01:30:23.294Z,12,GR86-002-2,-30.0,0.225,-1.286,99.83,2.0,6737.0,0.0,0.0,
2025-08-15T01:30:23.339Z,12,GR86-002-2,-25.4,0.233,-1.321,99.84,2.0,,0.0,0.0,112.6
2025-08-15T01:30:23.381Z,12,GR86-002-2,-17.0,0.278,-1.165,99.85,2.0,,0.0,0.0,
2025-08-15T01:30:23.424Z,12,GR86-002-2,-11.5,0.281,-1.143,99.85,2.0,,0.0,0.0,
2025-08-15T01:30:23.467Z,12,GR86-002-2,-7.800000000000001,0.24,-1.06,99.87,2.0,,0.0,0.0,
2025-08-15T01:30:23.511Z,12,GR86-002-2,-6.0,0.199,-1.018,99.84,2.0,6771.0,0.0,0.0,
2025-08-15T01:30:23.554Z,12,GR86-002-2,-5.9,0.253,-1.064,99.85,2.0,,0.0,0.0,113.98
2025-08-15T01:30:23.597Z,12,GR86-002-2,-8.1,0.289,-1.052,99.84,2.0,,0.0,0.0,
2025-08-15T01:30:23.641Z,12,GR86-002-2,-11.5,0.284,-1.066,99.84,2.0,,0.0,0.0,
2025-08-15T01:30:23.684Z,12,GR86-002-2,-12.8,0.267,-1.05,99.85,2.0,,0.0,0.0,
2025-08-15T01:30:23.727Z,12,GR86-002-2,-15.0,0.263,-1.064,99.88,2.0,6921.0,0.0,0.0,
2025-08-15T01:30:23.771Z,12,GR86-002-2,-19.3,0.291,-1.041,99.87,2.0,,0.0,0.0,114.32
2025-08-15T01:30:23.814Z,12,GR86-002-2,-23.700000000000003,0.277,-1.059,99.84,2.0,,0.0,0.0,
2025-08-15T01:30:23.857Z,12,GR86-002-2,-25.1,0.231,-1.039,99.85,2.0,,0.0,0.0,
2025-08-15T01:30:23.901Z,12,GR86-002-2,-22.8,0.224,-1.061,99.86,2.0,,0.0,0.0,
2025-08-15T01:30:23.944Z,12,GR86-002-2,-22.3,0.3,-1.007,99.88,2.0,7002.0,0.0,0.0,
2025-08-15T01:30:23.987Z,12,GR86-002-2,-22.6,0.295,-1.011,99.87,2.0,,0.0,0.0,115.83
2025-08-15T01:30:24.031Z,12,GR86-002-2,-23.200000000000003,0.303,-1.043,99.88,2.0,,0.0,0.0,
2025-08-15T01:30:24.073Z,12,GR86-002-2,-23.700000000000003,0.321,-1.032,99.89,2.0,,0.0,0.0,
2025-08-15T01:30:24.116Z,12,GR86-002-2,-24.1,0.255,-1.021,99.87,2.0,,0.0,0.0,
2025-08-15T01:30:24.160Z,12,GR86-002-2,-25.1,0.23,-1.003,99.87,2.0,6935.0,0.0,0.0,
2025-08-15T01:30:24.204Z,12,GR86-002-2,-26.200000000000003,0.228,-0.995,99.86,2.0,,0.0,0.0,117.48
2025-08-15T01:30:24.247Z,12,GR86-002-2,-26.9,0.265,-0.942,99.87,2.0,,0.0,0.0,
2025-08-15T01:30:24.291Z,12,GR86-002-2,-26.9,0.259,-0.946,99.86,2.0,,0.0,0.0,
2025-08-15T01:30:24.334Z,12,GR86-002-2,-26.9,0.243,-0.91,99.86,2.0,,0.0,0.0,
2025-08-15T01:30:24.378Z,12,GR86-002-2,-26.9,0.259,-0.92,99.88,2.0,7038.0,0.0,0.0,
2025-08-15T01:30:24.421Z,12,GR86-002-2,-25.8,0.282,-0.925,99.87,2.0,,0.0,0.0,119.35
2025-08-15T01:30:24.464Z,12,GR86-002-2,-26.1,0.29,-0.927,99.88,2.0,,0.0,0.0,
2025-08-15T01:30:24.507Z,12,GR86-002-2,-26.5,0.33,-0.807,99.87,2.0,,0.0,0.0,
2025-08-15T01:30:24.551Z,12,GR86-002-2,-28.6,0.324,-0.731,99.88,2.0,,0.0,0.0,
2025-08-15T01:30:24.593Z,12,GR86-002-2,-30.1,0.274,-0.684,99.88,2.0,7085.0,0.0,0.0,
2025-08-15T01:30:24.636Z,12,GR86-002-2,-30.1,0.205,-0.507,99.88,2.0,,0.0,0.0,121.21
2025-08-15T01:30:24.681Z,12,GR86-002-2,-28.3,0.187,-0.682,99.86,2.0,,0.0,0.0,
2025-08-15T01:30:24.724Z,12,GR86-002-2,-27.6,0.287,-0.785,99.88,2.0,,0.0,0.0,
2025-08-15T01:30:24.767Z,12,GR86-002-2,-27.5,0.296,-0.878,99.89,2.0,,0.0,0.0,
2025-08-15T01:30:24.811Z,12,GR86-002-2,-26.6,0.241,-0.872,99.86,2.0,7274.0,0.0,0.0,
2025-08-15T01:30:24.853Z,12,GR86-002-2,-22.4,0.211,-1.0,99.88,2.0,,0.0,0.0,122.52
2025-08-15T01:30:24.896Z,12,GR86-002-2,-18.1,0.252,-0.848,99.87,2.0,,0.0,0.0,
2025-08-15T01:30:24.940Z,12,GR86-002-2,-16.0,-0.002,-0.924,99.86,3.0,,0.0,0.0,
2025-08-15T01:30:24.982Z,12,GR86-002-2,-15.8,-0.166,-0.733,99.87,3.0,,0.0,0.0,
2025-08-15T01:30:25.025Z,12,GR86-002-2,-13.0,0.522,-0.666,99.87,3.0,7293.0,0.0,0.0,
2025-08-15T01:30:25.068Z,12,GR86-002-2,-9.2,0.455,-0.894,99.87,3.0,,0.0,0.0,124.29
2025-08-15T01:30:25.111Z,12,GR86-002-2,-7.1000000000000005,0.479,-0.609,99.87,3.0,,0.0,0.0,
2025-08-15T01:30:25.154Z,12,GR86-002-2,-6.6000000000000005,0.317,-0.682,99.87,3.0,,0.0,0.0,
2025-08-15T01:30:25.197Z,12,GR86-002-2,-7.5,0.352,-0.709,99.88,3.0,,0.0,0.0,
2025-08-15T01:30:25.241Z,12,GR86-002-2,-8.3,0.137,-0.654,99.87,3.0,6232.0,0.0,0.0,
2025-08-15T01:30:25.284Z,12,GR86-002-2,-9.0,0.237,-0.727,99.87,3.0,,0.0,0.0,125.6
2025-08-15T01:30:25.327Z,12,GR86-002-2,-11.3,0.245,-0.584,99.88,3.0,,0.0,0.0,
2025-08-15T01:30:25.371Z,12,GR86-002-2,-11.6,0.16,-0.534,99.88,3.0,,0.0,0.0,
2025-08-15T01:30:25.414Z,12,GR86-002-2,-7.800000000000001,0.171,-0.39,99.87,3.0,,0.0,0.0,
2025-08-15T01:30:25.457Z,12,GR86-002-2,-0.5,0.301,-0.452,99.87,3.0,6083.0,0.0,0.0,
2025-08-15T01:30:25.501Z,12,GR86-002-2,4.2,0.278,-0.298,99.88,3.0,,0.0,0.0,127.26
2025-08-15T01:30:25.544Z,12,GR86-002-2,0.2,0.18,-0.219,99.88,3.0,,0.0,0.0,
2025-08-15T01:30:25.587Z,12,GR86-002-2,-4.6000000000000005,0.17,-0.057,99.88,3.0,,0.0,0.0,
2025-08-15T01:30:25.631Z,12,GR86-002-2,-7.0,0.169,-0.135,99.87,3.0,,0.0,0.0,
2025-08-15T01:30:25.674Z,12,GR86-002-2,-6.7,0.24,0.066,99.87,3.0,6092.0,0.0,0.0,
2025-08-15T01:30:25.717Z,12,GR86-002-2,-5.2,0.215,0.015,99.88,3.0,,0.0,0.0,129.27
2025-08-15T01:30:25.761Z,12,GR86-002-2,-3.9,0.009,0.111,99.88,3.0,,0.0,0.0,
2025-08-15T01:30:25.804Z,12,GR86-002-2,-2.7,0.155,0.118,99.88,3.0,,0.0,0.0,
2025-08-15T01:30:25.847Z,12,GR86-002-2,-1.3,0.383,-0.009,99.86,3.0,,0.0,0.0,
2025-08-15T01:30:25.891Z,12,GR86-002-2,-1.3,0.307,-0.179,99.87,3.0,6201.0,0.0,0.0,
2025-08-15T01:30:25.933Z,12,GR86-002-2,-2.6,0.083,0.005,99.87,3.0,,0.0,0.0,131.52
2025-08-15T01:30:25.976Z,12,GR86-002-2,-3.3000000000000003,0.091,0.038,99.88,3.0,,0.0,0.0,
2025-08-15T01:30:26.021Z,12,GR86-002-2,-3.4000000000000004,0.273,0.158,99.89,3.0,,0.0,0.0,
2025-08-15T01:30:26.064Z,12,GR86-002-2,-3.6,0.176,0.175,99.88,3.0,,0.0,0.0,
2025-08-15T01:30:26.107Z,12,GR86-002-2,-4.1000000000000005,0.211,0.111,99.88,3.0,6110.0,0.0,0.0,
2025-08-15T01:30:26.151Z,12,GR86-002-2,-4.4,0.212,0.112,99.88,3.0,,0.0,0.0,133.25
2025-08-15T01:30:26.193Z,12,GR86-002-2,-4.7,0.185,0.088,99.87,3.0,,0.0,0.0,
2025-08-15T01:30:26.236Z,12,GR86-002-2,-4.5,0.192,0.06,99.89,3.0,,0.0,0.0,
2025-08-15T01:30:26.280Z,12,GR86-002-2,-2.5,0.223,0.053,99.87,3.0,,0.0,0.0,
2025-08-15T01:30:26.322Z,12,GR86-002-2,-1.2000000000000002,0.183,-0.016,99.88,3.0,6326.0,0.0,0.0,
2025-08-15T01:30:26.366Z,12,GR86-002-2,-0.8,0.192,0.023,99.87,3.0,,0.0,0.0,134.53
2025-08-15T01:30:26.411Z,12,GR86-002-2,-0.8,0.206,-0.048,99.88,3.0,,0.0,0.0,
2025-08-15T01:30:26.454Z,12,GR86-002-2,-0.8,0.197,0.029,99.87,3.0,,0.0,0.0,
2025-08-15T01:30:26.497Z,12,GR86-002-2,-0.8,0.198,-0.014,99.89,3.0,,0.0,0.0,
2025-08-15T01:30:26.541Z,12,GR86-002-2,-0.8,0.203,0.016,99.89,3.0,6399.0,0.0,0.0,
2025-08-15T01:30:26.584Z,12,GR86-002-2,-0.8,0.213,0.016,99.87,3.0,,0.0,0.0,136.07
2025-08-15T01:30:26.627Z,12,GR86-002-2,-1.0,0.222,0.001,99.88,3.0,,0.0,0.0,
2025-08-15T01:30:26.671Z,12,GR86-002-2,-1.3,0.186,-0.016,99.88,3.0,,0.0,0.0,
2025-08-15T01:30:26.713Z,12,GR86-002-2,-1.4,0.192,-0.014,99.88,3.0,,0.0,0.0,
2025-08-15T01:30:26.756Z,12,GR86-002-2,-1.4,0.199,0.002,99.89,3.0,6445.0,0.0,0.0,
2025-08-15T01:30:26.800Z,12,GR86-002-2,-1.4,0.208,-0.035,99.89,3.0,,0.0,0.0,137.32
2025-08-15T01:30:26.842Z,12,GR86-002-2,-0.9,0.182,-0.04,99.87,3.0,,0.0,0.0,
2025-08-15T01:30:26.885Z,12,GR86-002-2,-0.6000000000000001,0.2,-0.087,99.88,3.0,,0.0,0.0,
2025-08-15T01:30:26.928Z,12,GR86-002-2,-0.5,0.206,-0.094,99.89,3.0,,0.0,0.0,
2025-08-15T01:30:26.971Z,12,GR86-002-2,-0.5,0.195,-0.069,99.88,3.0,6513.0,0.0,0.0,
2025-08-15T01:30:27.014Z,12,GR86-002-2,-0.4,0.196,-0.058,99.88,3.0,,0.0,0.0,138.77
2025-08-15T01:30:27.057Z,12,GR86-002-2,-0.4,0.194,-0.076,99.87,3.0,,0.0,0.0,
2025-08-15T01:30:27.101Z,12,GR86-002-2,-0.4,0.196,-0.039,99.88,3.0,,0.0,0.0,
2025-08-15T01:30:27.144Z,12,GR86-002-2,-0.4,0.209,-0.072,99.87,3.0,,0.0,0.0,
2025-08-15T01:30:27.187Z,12,GR86-002-2,-0.5,0.201,-0.068,99.89,3.0,6583.0,0.0,0.0,
2025-08-15T01:30:27.231Z,12,GR86-002-2,-1.0,0.195,-0.046,99.88,3.0,,0.0,0.0,140.1
2025-08-15T01:30:27.273Z,12,GR86-002-2,-1.2000000000000002,0.183,-0.02,99.88,3.0,,0.0,0.0,
2025-08-15T01:30:27.316Z,12,GR86-002-2,-1.0,0.204,-0.06,99.87,3.0,,0.0,0.0,
2025-08-15T01:30:27.360Z,12,GR86-002-2,-0.2,0.174,-0.038,99.88,3.0,,0.0,0.0,
2025-08-15T01:30:27.402Z,12,GR86-002-2,-0.7000000000000001,0.211,-0.068,99.89,3.0,6643.0,0.0,0.0,
2025-08-15T01:30:27.445Z,12,GR86-002-2,-0.8,0.188,-0.088,99.87,3.0,,0.0,0.0,141.41
2025-08-15T01:30:27.488Z,12,GR86-002-2,-0.6000000000000001,0.205,-0.048,99.86,3.0,,0.0,0.0,
2025-08-15T01:30:27.531Z,12,GR86-002-2,-0.1,0.185,-0.021,99.87,3.0,,0.0,0.0,
2025-08-15T01:30:27.574Z,12,GR86-002-2,-0.1,0.183,-0.058,99.88,3.0,,0.0,0.0,
2025-08-15T01:30:27.617Z,12,GR86-002-2,-0.1,0.199,-0.081,99.86,3.0,6698.0,0.0,0.0,
2025-08-15T01:30:27.661Z,12,GR86-002-2,0.0,0.192,-0.044,99.87,3.0,,0.0,0.0,142.79
2025-08-15T01:30:27.704Z,12,GR86-002-2,0.3,0.207,-0.058,99.87,3.0,,0.0,0.0,
2025-08-15T01:30:27.747Z,12,GR86-002-2,0.4,0.195,-0.055,99.87,3.0,,0.0,0.0,
2025-08-15T01:30:27.791Z,12,GR86-002-2,0.7000000000000001,0.202,-0.019,99.87,3.0,,0.0,0.0,
2025-08-15T01:30:27.833Z,12,GR86-002-2,1.0,0.186,0.014,99.89,3.0,6759.0,0.0,0.0,
2025-08-15T01:30:27.876Z,12,GR86-002-2,1.1,0.192,-0.011,99.87,3.0,,0.0,0.0,144.13
2025-08-15T01:30:27.921Z,12,GR86-002-2,1.1,0.181,0.033,99.88,3.0,,0.0,0.0,
2025-08-15T01:30:27.964Z,12,GR86-002-2,1.1,0.192,0.019,99.88,3.0,,0.0,0.0,
2025-08-15T01:30:28.007Z,12,GR86-002-2,0.9,0.205,-0.026,99.89,3.0,,0.0,0.0,
2025-08-15T01:30:28.051Z,12,GR86-002-2,0.9,0.208,-0.014,99.87,3.0,6816.0,0.0,0.0,
2025-08-15T01:30:28.093Z,12,GR86-002-2,1.0,0.195,0.015,99.86,3.0,,0.0,0.0,145.46
2025-08-15T01:30:28.136Z,12,GR86-002-2,1.1,0.186,0.038,99.88,3.0,,0.0,0.0,
2025-08-15T01:30:28.180Z,12,GR86-002-2,1.5,0.201,0.008,99.87,3.0,,0.0,0.0,
2025-08-15T01:30:28.224Z,12,GR86-002-2,1.4,0.188,0.034,99.87,3.0,,0.0,0.0,
2025-08-15T01:30:28.267Z,12,GR86-002-2,1.0,0.177,0.028,99.89,3.0,6878.0,0.0,0.0,
2025-08-15T01:30:28.311Z,12,GR86-002-2,0.5,0.19,0.004,99.86,3.0,,0.0,0.0,146.77
2025-08-15T01:30:28.353Z,12,GR86-002-2,0.0,0.184,-0.023,99.87,3.0,,0.0,0.0,
2025-08-15T01:30:28.396Z,12,GR86-002-2,-0.1,0.194,-0.008,99.88,3.0,,0.0,0.0,
2025-08-15T01:30:28.440Z,12,GR86-002-2,0.0,0.184,-0.038,99.88,3.0,,0.0,0.0,
2025-08-15T01:30:28.483Z,12,GR86-002-2,0.1,0.185,-0.044,99.87,3.0,6941.0,0.0,0.0,
2025-08-15T01:30:28.526Z,12,GR86-002-2,0.3,0.187,-0.025,99.89,3.0,,0.0,0.0,149.3
2025-08-15T01:30:28.571Z,12,GR86-002-2,0.3,0.173,-0.001,99.88,3.0,,0.0,0.0,
2025-08-15T01:30:28.613Z,12,GR86-002-2,0.3,0.176,-0.017,99.87,3.0,,0.0,0.0,
2025-08-15T01:30:28.656Z,12,GR86-002-2,0.3,0.176,-0.039,99.88,3.0,,0.0,0.0,
2025-08-15T01:30:28.700Z,12,GR86-002-2,-0.1,0.178,-0.002,99.89,3.0,6994.0,0.0,0.0,
2025-08-15T01:30:28.742Z,12,GR86-002-2,-0.3,0.182,-0.026,99.87,3.0,,0.0,0.0,150.51
2025-08-15T01:30:28.785Z,12,GR86-002-2,-0.4,0.174,-0.049,99.87,3.0,,0.0,0.0,
2025-08-15T01:30:28.828Z,12,GR86-002-2,-0.6000000000000001,0.188,-0.066,99.88,3.0,,0.0,0.0,
2025-08-15T01:30:28.871Z,12,GR86-002-2,-0.6000000000000001,0.174,-0.044,99.87,3.0,,0.0,0.0,
2025-08-15T01:30:28.914Z,12,GR86-002-2,-0.8,0.181,-0.02,99.88,3.0,7064.0,0.0,0.0,
2025-08-15T01:30:28.957Z,12,GR86-002-2,-0.8,0.176,-0.02,99.85,3.0,,0.0,0.0,151.67000000000002
2025-08-15T01:30:29.001Z,12,GR86-002-2,-0.8,0.181,-0.041,99.89,3.0,,0.0,0.0,
2025-08-15T01:30:29.044Z,12,GR86-002-2,-0.8,0.181,-0.027,99.86,3.0,,0.0,0.0,
2025-08-15T01:30:29.087Z,12,GR86-002-2,-0.8,0.173,-0.045,99.87,3.0,,0.0,0.0,
2025-08-15T01:30:29.131Z,12,GR86-002-2,-0.8,0.18,-0.068,99.86,3.0,7160.0,0.0,0.0,
2025-08-15T01:30:29.173Z,12,GR86-002-2,-0.8,0.173,-0.087,99.88,3.0,,0.0,0.0,152.84
2025-08-15T01:30:29.216Z,12,GR86-002-2,-0.8,0.166,-0.095,99.88,3.0,,0.0,0.0,
2025-08-15T01:30:29.260Z,12,GR86-002-2,-0.8,0.169,-0.083,99.86,3.0,,0.0,0.0,
2025-08-15T01:30:29.304Z,12,GR86-002-2,-0.8,0.176,-0.09,99.87,3.0,,0.0,0.0,
2025-08-15T01:30:29.347Z,12,GR86-002-2,-0.8,0.17,-0.081,99.86,3.0,7219.0,0.0,0.0,
2025-08-15T01:30:29.391Z,12,GR86-002-2,-0.7000000000000001,0.171,-0.074,99.87,3.0,,0.0,0.0,154.0
2025-08-15T01:30:29.434Z,12,GR86-002-2,-0.7000000000000001,0.176,-0.046,99.88,3.0,,0.0,0.0,
2025-08-15T01:30:29.477Z,12,GR86-002-2,-0.7000000000000001,0.178,-0.047,99.88,3.0,,0.0,0.0,
2025-08-15T01:30:29.522Z,12,GR86-002-2,-0.7000000000000001,0.045,-0.07,99.85,4.0,,0.0,0.0,
2025-08-15T01:30:29.564Z,12,GR86-002-2,-0.7000000000000001,-0.111,-0.017,99.87,4.0,7268.0,0.0,0.0,
2025-08-15T01:30:29.607Z,12,GR86-002-2,-0.6000000000000001,0.494,-0.036,99.89,4.0,,0.0,0.0,155.15
2025-08-15T01:30:29.651Z,12,GR86-002-2,-0.6000000000000001,0.293,-0.117,99.88,4.0,,0.0,0.0,
2025-08-15T01:30:29.693Z,12,GR86-002-2,-0.7000000000000001,0.274,-0.034,99.88,4.0,,0.0,0.0,
2025-08-15T01:30:29.736Z,12,GR86-002-2,-0.7000000000000001,0.09,-0.09,99.88,4.0,,0.0,0.0,
2025-08-15T01:30:29.780Z,12,GR86-002-2,-0.7000000000000001,0.102,-0.054,99.89,4.0,6098.0,0.0,0.0,
2025-08-15T01:30:29.822Z,12,GR86-002-2,-0.7000000000000001,0.196,-0.041,99.87,4.0,,0.0,0.0,156.1
2025-08-15T01:30:29.866Z,12,GR86-002-2,-0.8,0.161,-0.125,99.85,4.0,,0.0,0.0,
2025-08-15T01:30:29.910Z,12,GR86-002-2,-0.9,0.104,-0.084,99.86,4.0,,0.0,0.0,
2025-08-15T01:30:29.952Z,12,GR86-002-2,-0.9,0.102,-0.089,99.88,4.0,,0.0,0.0,
2025-08-15T01:30:29.995Z,12,GR86-002-2,-1.0,0.145,-0.084,99.86,4.0,6165.0,0.0,0.0,
2025-08-15T01:30:30.038Z,12,GR86-002-2,-1.2000000000000002,0.147,-0.053,99.87,4.0,,0.0,0.0,157.43
2025-08-15T01:30:30.081Z,12,GR86-002-2,-0.8,0.12,-0.093,99.88,4.0,,0.0,0.0,
2025-08-15T01:30:30.124Z,12,GR86-002-2,-0.4,0.113,-0.076,99.86,4.0,,0.0,0.0,
2025-08-15T01:30:30.167Z,12,GR86-002-2,-0.4,0.139,-0.072,99.88,4.0,,0.0,0.0,
2025-08-15T01:30:30.211Z,12,GR86-002-2,-0.6000000000000001,0.15,-0.068,99.88,4.0,6229.0,0.0,0.0,
2025-08-15T01:30:30.253Z,12,GR86-002-2,-0.8,0.147,-0.09,99.87,4.0,,0.0,0.0,158.42000000000002
2025-08-15T01:30:30.296Z,12,GR86-002-2,-0.9,0.149,-0.094,99.89,4.0,,0.0,0.0,
2025-08-15T01:30:30.340Z,12,GR86-002-2,-1.0,0.14,-0.075,99.86,4.0,,0.0,0.0,
2025-08-15T01:30:30.382Z,12,GR86-002-2,-1.0,0.136,-0.06,99.87,4.0,,0.0,0.0,
2025-08-15T01:30:30.425Z,12,GR86-002-2,-1.2000000000000002,0.159,-0.074,99.87,4.0,6279.0,0.0,0.0,
2025-08-15T01:30:30.468Z,12,GR86-002-2,-1.3,0.147,-0.08,99.87,4.0,,0.0,0.0,159.4
2025-08-15T01:30:30.511Z,12,GR86-002-2,-1.3,0.141,-0.075,99.88,4.0,,0.0,0.0,
2025-08-15T01:30:30.554Z,12,GR86-002-2,-1.3,0.128,-0.078,99.85,4.0,,0.0,0.0,
2025-08-15T01:30:30.597Z,12,GR86-002-2,-1.3,0.12,-0.062,99.88,4.0,,0.0,0.0,
2025-08-15T01:30:30.641Z,12,GR86-002-2,-1.3,0.155,-0.088,99.88,4.0,6307.0,0.0,0.0,
2025-08-15T01:30:30.684Z,12,GR86-002-2,-1.3,0.141,-0.078,99.87,4.0,,0.0,0.0,160.31
2025-08-15T01:30:30.727Z,12,GR86-002-2,-1.3,0.135,-0.081,99.86,4.0,,0.0,0.0,
2025-08-15T01:30:30.771Z,12,GR86-002-2,-1.3,0.126,-0.071,99.87,4.0,,0.0,0.0,
2025-08-15T01:30:30.814Z,12,GR86-002-2,-1.3,0.119,-0.068,99.85,4.0,,0.0,0.0,
2025-08-15T01:30:30.857Z,12,GR86-002-2,-1.3,0.121,-0.065,99.86,4.0,6347.0,0.0,0.0,
2025-08-15T01:30:30.901Z,12,GR86-002-2,-1.3,0.124,-0.07,99.85,4.0,,0.0,0.0,161.20000000000002
2025-08-15T01:30:30.944Z,12,GR86-002-2,-1.3,0.124,-0.067,99.89,4.0,,0.0,0.0,
2025-08-15T01:30:30.987Z,12,GR86-002-2,-1.3,0.117,-0.071,99.86,4.0,,0.0,0.0,
2025-08-15T01:30:31.032Z,12,GR86-002-2,-1.3,0.115,-0.064,99.85,4.0,,0.0,0.0,
2025-08-15T01:30:31.074Z,12,GR86-002-2,-1.3,0.127,-0.06,99.87,4.0,6383.0,0.0,0.0,
2025-08-15T01:30:31.117Z,12,GR86-002-2,-1.3,0.129,-0.067,99.86,4.0,,0.0,0.0,162.1
2025-08-15T01:30:31.161Z,12,GR86-002-2,-1.3,0.107,-0.06,99.86,4.0,,0.0,0.0,
2025-08-15T01:30:31.204Z,12,GR86-002-2,-1.3,0.113,-0.055,99.88,4.0,,0.0,0.0,
2025-08-15T01:30:31.247Z,12,GR86-002-2,-1.3,0.114,-0.06,99.86,4.0,,0.0,0.0,
2025-08-15T01:30:31.291Z,12,GR86-002-2,-1.3,0.125,-0.061,99.87,4.0,6412.0,0.0,0.0,
2025-08-15T01:30:31.333Z,12,GR86-002-2,-1.3,0.149,-0.061,99.86,4.0,,0.0,0.0,163.87
2025-08-15T01:30:31.376Z,12,GR86-002-2,-1.0,0.158,-0.068,99.85,4.0,,0.0,0.0,
2025-08-15T01:30:31.420Z,12,GR86-002-2,-0.9,0.1,-0.045,99.86,4.0,,0.0,0.0,
2025-08-15T01:30:31.464Z,12,GR86-002-2,-1.0,0.112,-0.04,99.89,4.0,,0.0,0.0,
2025-08-15T01:30:31.507Z,12,GR86-002-2,-1.5,0.137,-0.04,99.88,4.0,6460.0,0.0,0.0,
2025-08-15T01:30:31.551Z,12,GR86-002-2,-1.8,0.153,-0.044,99.85,4.0,,0.0,0.0,164.76
2025-08-15T01:30:31.593Z,12,GR86-002-2,-1.8,0.152,-0.046,99.88,4.0,,0.0,0.0,
2025-08-15T01:30:31.636Z,12,GR86-002-2,-1.8,0.16,-0.063,99.86,4.0,,0.0,0.0,
2025-08-15T01:30:31.682Z,12,GR86-002-2,-1.8,0.116,-0.056,99.88,4.0,,0.0,0.0,
2025-08-15T01:30:31.724Z,12,GR86-002-2,-1.5,0.121,-0.054,99.88,4.0,6524.0,0.0,0.0,
2025-08-15T01:30:31.767Z,12,GR86-002-2,-1.5,0.145,-0.067,99.86,4.0,,0.0,0.0,165.74
2025-08-15T01:30:31.811Z,12,GR86-002-2,-1.5,0.151,-0.076,99.88,4.0,,0.0,0.0,
2025-08-15T01:30:31.854Z,12,GR86-002-2,-2.2,0.153,-0.086,99.86,4.0,,0.0,0.0,
2025-08-15T01:30:31.897Z,12,GR86-002-2,-2.8000000000000003,0.156,-0.092,99.85,4.0,,0.0,0.0,
2025-08-15T01:30:31.941Z,12,GR86-002-2,-2.8000000000000003,0.118,-0.088,99.86,4.0,6564.0,0.0,0.0,
2025-08-15T01:30:31.984Z,12,GR86-002-2,-2.1,0.137,-0.086,99.86,4.0,,0.0,0.0,166.75
2025-08-15T01:30:32.027Z,12,GR86-002-2,-1.5,0.136,-0.083,99.86,4.0,,0.0,0.0,
2025-08-15T01:30:32.071Z,12,GR86-002-2,-1.3,0.142,-0.077,99.89,4.0,,0.0,0.0,
2025-08-15T01:30:32.113Z,12,GR86-002-2,-1.3,0.162,-0.082,99.87,4.0,,0.0,0.0,
2025-08-15T01:30:32.156Z,12,GR86-002-2,-1.3,0.157,-0.073,99.87,4.0,6609.0,0.0,0.0,
2025-08-15T01:30:32.200Z,12,GR86-002-2,-1.3,0.113,-0.073,99.87,4.0,,0.0,0.0,167.70000000000002
2025-08-15T01:30:32.242Z,12,GR86-002-2,-1.3,0.122,-0.071,99.86,4.0,,0.0,0.0,
2025-08-15T01:30:32.285Z,12,GR86-002-2,-1.3,0.134,-0.079,99.87,4.0,,0.0,0.0,
2025-08-15T01:30:32.328Z,12,GR86-002-2,-1.3,0.142,-0.088,99.87,4.0,,0.0,0.0,
2025-08-15T01:30:32.371Z,12,GR86-002-2,-1.7000000000000002,0.153,-0.099,99.86,4.0,6645.0,0.0,0.0,
2025-08-15T01:30:32.414Z,12,GR86-002-2,-2.0,0.139,-0.11,99.86,4.0,,0.0,0.0,168.71
2025-08-15T01:30:32.457Z,12,GR86-002-2,-3.0,0.145,-0.102,99.86,4.0,,0.0,0.0,
2025-08-15T01:30:32.501Z,12,GR86-002-2,-4.6000000000000005,0.109,-0.111,99.86,4.0,,0.0,0.0,
2025-08-15T01:30:32.544Z,12,GR86-002-2,-4.800000000000001,0.117,-0.142,99.85,4.0,,0.0,0.0,
2025-08-15T01:30:32.587Z,12,GR86-002-2,-4.800000000000001,0.129,-0.152,99.85,4.0,6680.0,0.0,0.0,
2025-08-15T01:30:32.631Z,12,GR86-002-2,-4.800000000000001,0.134,-0.172,99.86,4.0,,0.0,0.0,169.71
2025-08-15T01:30:32.673Z,12,GR86-002-2,-4.6000000000000005,0.141,-0.195,99.86,4.0,,0.0,0.0,
2025-08-15T01:30:32.716Z,12,GR86-002-2,-4.2,0.138,-0.202,99.85,4.0,,0.0,0.0,
2025-08-15T01:30:32.760Z,12,GR86-002-2,-2.2,0.093,-0.177,99.86,4.0,,0.0,0.0,
2025-08-15T01:30:32.802Z,12,GR86-002-2,-1.0,0.113,-0.158,99.86,4.0,6714.0,0.0,0.0,
2025-08-15T01:30:32.845Z,12,GR86-002-2,-0.8,0.11,-0.152,99.86,4.0,,0.0,0.0,170.69
2025-08-15T01:30:32.888Z,12,GR86-002-2,-0.8,0.11,-0.138,99.86,4.0,,0.0,0.0,
2025-08-15T01:30:32.931Z,12,GR86-002-2,-0.6000000000000001,0.125,-0.123,99.85,4.0,,0.0,0.0,
2025-08-15T01:30:32.974Z,12,GR86-002-2,-0.6000000000000001,0.126,-0.092,99.86,4.0,,0.0,0.0,
2025-08-15T01:30:33.017Z,12,GR86-002-2,-0.7000000000000001,0.123,-0.058,99.88,4.0,6761.0,0.0,0.0,
2025-08-15T01:30:33.061Z,12,GR86-002-2,-1.0,0.119,0.002,99.85,4.0,,0.0,0.0,171.69
2025-08-15T01:30:33.104Z,12,GR86-002-2,-1.3,0.117,0.003,99.86,4.0,,0.0,0.0,
2025-08-15T01:30:33.147Z,12,GR86-002-2,-1.3,0.122,-0.017,99.87,4.0,,0.0,0.0,
2025-08-15T01:30:33.191Z,12,GR86-002-2,-1.7000000000000002,0.116,-0.02,99.86,4.0,,0.0,0.0,
2025-08-15T01:30:33.233Z,12,GR86-002-2,-1.7000000000000002,0.111,-0.043,99.85,4.0,6790.0,0.0,0.0,
2025-08-15T01:30:33.276Z,12,GR86-002-2,-1.8,0.11,-0.054,99.86,4.0,,0.0,0.0,172.69
2025-08-15T01:30:33.321Z,12,GR86-002-2,-2.0,0.129,-0.041,99.84,4.0,,0.0,0.0,
2025-08-15T01:30:33.364Z,12,GR86-002-2,-2.1,0.134,-0.057,99.84,4.0,,0.0,0.0,
2025-08-15T01:30:33.407Z,12,GR86-002-2,-2.1,0.126,-0.062,99.85,4.0,,0.0,0.0,
2025-08-15T01:30:33.451Z,12,GR86-002-2,-2.3000000000000003,0.126,-0.073,99.87,4.0,6830.0,0.0,0.0,
2025-08-15T01:30:33.536Z,12,GR86-002-2,-3.6,0.124,-0.095,99.86,4.0,,0.0,0.0,173.58
2025-08-15T01:30:33.580Z,12,GR86-002-2,-3.6,0.11,-0.108,99.86,4.0,,0.0,0.0,
2025-08-15T01:30:33.624Z,12,GR86-002-2,-3.6,0.116,-0.116,99.86,4.0,,0.0,0.0,
2025-08-15T01:30:33.667Z,12,GR86-002-2,-3.6,0.116,-0.123,99.86,4.0,6880.0,0.0,0.0,
2025-08-15T01:30:33.711Z,12,GR86-002-2,-3.6,0.118,-0.14,99.86,4.0,,0.0,0.0,174.45000000000002
2025-08-15T01:30:33.753Z,12,GR86-002-2,-3.6,0.111,-0.138,99.85,4.0,,0.0,0.0,
2025-08-15T01:30:33.796Z,12,GR86-002-2,-3.6,0.129,-0.154,99.85,4.0,,0.0,0.0,
2025-08-15T01:30:33.840Z,12,GR86-002-2,-3.6,0.107,-0.163,99.87,4.0,,0.0,0.0,
2025-08-15T01:30:33.884Z,12,GR86-002-2,-3.4000000000000004,0.096,-0.161,99.85,4.0,6903.0,0.0,0.0,
2025-08-15T01:30:33.927Z,12,GR86-002-2,-2.8000000000000003,0.111,-0.152,99.86,4.0,,0.0,0.0,176.42000000000002
2025-08-15T01:30:33.971Z,12,GR86-002-2,-2.7,0.101,-0.144,99.86,4.0,,0.0,0.0,
2025-08-15T01:30:34.013Z,12,GR86-002-2,-2.7,0.108,-0.139,99.86,4.0,,0.0,0.0,
2025-08-15T01:30:34.056Z,12,GR86-002-2,-2.7,0.099,-0.122,99.87,4.0,,0.0,0.0,
2025-08-15T01:30:34.100Z,12,GR86-002-2,-2.7,0.122,-0.103,99.85,4.0,6943.0,0.0,0.0,
2025-08-15T01:30:34.142Z,12,GR86-002-2,-2.6,0.122,-0.103,99.84,4.0,,0.0,0.0,177.28
2025-08-15T01:30:34.185Z,12,GR86-002-2,-2.5,0.127,-0.112,99.85,4.0,,0.0,0.0,
2025-08-15T01:30:34.228Z,12,GR86-002-2,-2.5,0.117,-0.115,99.86,4.0,,0.0,0.0,
2025-08-15T01:30:34.271Z,12,GR86-002-2,-2.5,0.125,-0.107,99.84,4.0,,0.0,0.0,
2025-08-15T01:30:34.314Z,12,GR86-002-2,-2.5,0.118,-0.112,99.85,4.0,6975.0,0.0,0.0,
2025-08-15T01:30:34.357Z,12,GR86-002-2,-2.5,0.12,-0.119,99.84,4.0,,0.0,0.0,178.14
2025-08-15T01:30:34.401Z,12,GR86-002-2,-2.5,0.105,-0.126,99.86,4.0,,0.0,0.0,
2025-08-15T01:30:34.444Z,12,GR86-002-2,-2.5,0.097,-0.123,99.86,4.0,,0.0,0.0,
2025-08-15T01:30:34.487Z,12,GR86-002-2,-2.5,0.104,-0.103,99.88,4.0,,0.0,0.0,
2025-08-15T01:30:34.531Z,12,GR86-002-2,-2.5,0.104,-0.102,99.86,4.0,7050.0,0.0,0.0,
2025-08-15T01:30:34.573Z,12,GR86-002-2,-2.5,0.103,-0.097,99.87,4.0,,0.0,0.0,179.08
2025-08-15T01:30:34.616Z,12,GR86-002-2,-2.5,0.1,-0.106,99.86,4.0,,0.0,0.0,
2025-08-15T01:30:34.662Z,12,GR86-002-2,-3.2,0.114,-0.102,99.86,4.0,,0.0,0.0,
2025-08-15T01:30:34.704Z,12,GR86-002-2,-3.3000000000000003,0.11,-0.112,99.86,4.0,,0.0,0.0,
2025-08-15T01:30:34.747Z,12,GR86-002-2,-3.3000000000000003,0.117,-0.101,99.86,4.0,7075.0,0.0,0.0,
2025-08-15T01:30:34.791Z,12,GR86-002-2,-3.3000000000000003,0.117,-0.12,99.85,4.0,,0.0,0.0,180.0
2025-08-15T01:30:34.833Z,12,GR86-002-2,-3.3000000000000003,0.113,-0.143,99.88,4.0,,0.0,0.0,
2025-08-15T01:30:34.877Z,12,GR86-002-2,-3.4000000000000004,0.118,-0.138,99.85,4.0,,0.0,0.0,
2025-08-15T01:30:34.921Z,12,GR86-002-2,-3.3000000000000003,0.096,-0.136,99.86,4.0,,0.0,0.0,
2025-08-15T01:30:34.964Z,12,GR86-002-2,-3.3000000000000003,0.094,-0.136,99.84,4.0,7111.0,0.0,0.0,
2025-08-15T01:30:35.007Z,12,GR86-002-2,-3.3000000000000003,0.088,-0.131,99.86,4.0,,0.0,0.0,180.88
2025-08-15T01:30:35.051Z,12,GR86-002-2,-3.3000000000000003,0.102,-0.132,99.85,4.0,,0.0,0.0,
2025-08-15T01:30:35.093Z,12,GR86-002-2,-3.3000000000000003,0.089,-0.144,99.85,4.0,,0.0,0.0,
2025-08-15T01:30:35.136Z,12,GR86-002-2,-3.3000000000000003,0.09,-0.153,99.84,4.0,,0.0,0.0,
2025-08-15T01:30:35.180Z,12,GR86-002-2,-3.1,0.112,-0.152,99.85,4.0,7140.0,0.0,0.0,
2025-08-15T01:30:35.222Z,12,GR86-002-2,-3.1,0.114,-0.147,99.86,4.0,,0.0,0.0,181.72
2025-08-15T01:30:35.266Z,12,GR86-002-2,-3.1,0.11,-0.144,99.85,4.0,,0.0,0.0,
2025-08-15T01:30:35.310Z,12,GR86-002-2,-3.1,0.117,-0.152,99.85,4.0,,0.0,0.0,
2025-08-15T01:30:35.352Z,12,GR86-002-2,-3.1,0.117,-0.159,99.86,4.0,,0.0,0.0,
2025-08-15T01:30:35.395Z,12,GR86-002-2,-3.0,0.119,-0.152,99.84,4.0,7171.0,0.0,0.0,
2025-08-15T01:30:35.438Z,12,GR86-002-2,-2.6,0.121,-0.139,99.85,4.0,,0.0,0.0,182.55
2025-08-15T01:30:35.481Z,12,GR86-002-2,-1.5,0.089,-0.114,99.86,4.0,,0.0,0.0,
2025-08-15T01:30:35.524Z,12,GR86-002-2,-1.2000000000000002,0.08,-0.11,99.85,4.0,,0.0,0.0,
2025-08-15T01:30:35.567Z,12,GR86-002-2,-1.2000000000000002,0.089,-0.101,99.86,4.0,,0.0,0.0,
2025-08-15T01:30:35.611Z,12,GR86-002-2,-1.2000000000000002,0.083,-0.085,99.85,4.0,7208.0,0.0,0.0,
2025-08-15T01:30:35.653Z,12,GR86-002-2,-1.1,0.102,-0.092,99.86,4.0,,0.0,0.0,183.43
2025-08-15T01:30:35.696Z,12,GR86-002-2,-1.0,0.086,-0.078,99.85,4.0,,0.0,0.0,
2025-08-15T01:30:35.740Z,12,GR86-002-2,-1.0,0.112,-0.077,99.85,4.0,,0.0,0.0,
2025-08-15T01:30:35.782Z,12,GR86-002-2,-1.0,0.118,-0.058,99.85,4.0,,0.0,0.0,
2025-08-15T01:30:35.825Z,12,GR86-002-2,-1.0,0.107,-0.066,99.85,4.0,7233.0,0.0,0.0,
2025-08-15T01:30:35.868Z,12,GR86-002-2,-1.0,0.121,-0.061,99.85,4.0,,0.0,0.0,184.26
2025-08-15T01:30:35.911Z,12,GR86-002-2,-1.1,0.119,-0.064,99.84,4.0,,0.0,0.0,
2025-08-15T01:30:35.954Z,12,GR86-002-2,-1.3,-0.043,-0.052,99.84,5.0,,0.0,0.0,
2025-08-15T01:30:35.997Z,12,GR86-002-2,-2.1,-0.05,-0.023,99.85,5.0,,0.0,0.0,
2025-08-15T01:30:36.041Z,12,GR86-002-2,-2.1,0.187,-0.14,99.85,5.0,7274.0,0.0,0.0,
2025-08-15T01:30:36.084Z,12,GR86-002-2,-2.1,0.177,-0.08,99.86,5.0,,0.0,0.0,185.04
2025-08-15T01:30:36.127Z,12,GR86-002-2,-2.1,-0.01,-0.054,99.85,5.0,,0.0,0.0,
2025-08-15T01:30:36.171Z,12,GR86-002-2,-2.1,0.046,-0.14,99.85,5.0,,0.0,0.0,
2025-08-15T01:30:36.214Z,12,GR86-002-2,-2.0,0.142,-0.09,99.84,5.0,,0.0,0.0,
2025-08-15T01:30:36.257Z,12,GR86-002-2,-2.0,0.132,-0.085,99.85,5.0,6229.0,0.0,0.0,
2025-08-15T01:30:36.301Z,12,GR86-002-2,-2.0,0.051,-0.1,99.85,5.0,,0.0,0.0,185.67
2025-08-15T01:30:36.344Z,12,GR86-002-2,-2.0,0.077,-0.071,99.84,5.0,,0.0,0.0,
2025-08-15T01:30:36.387Z,12,GR86-002-2,-2.4000000000000004,0.093,-0.096,99.84,5.0,,0.0,0.0,
2025-08-15T01:30:36.431Z,12,GR86-002-2,-2.8000000000000003,0.062,-0.074,99.86,5.0,,0.0,0.0,
2025-08-15T01:30:36.474Z,12,GR86-002-2,-2.6,0.074,-0.104,99.85,5.0,6337.0,0.0,0.0,
2025-08-15T01:30:36.517Z,12,GR86-002-2,-2.0,0.077,-0.115,99.85,5.0,,0.0,0.0,186.58
2025-08-15T01:30:36.561Z,12,GR86-002-2,-2.0,0.089,-0.13,99.84,5.0,,0.0,0.0,
2025-08-15T01:30:36.604Z,12,GR86-002-2,-2.3000000000000003,0.097,-0.126,99.85,5.0,,0.0,0.0,
2025-08-15T01:30:36.647Z,12,GR86-002-2,-2.5,0.088,-0.154,99.85,5.0,,0.0,0.0,
2025-08-15T01:30:36.691Z,12,GR86-002-2,-2.6,0.086,-0.157,99.85,5.0,6384.0,0.0,0.0,
2025-08-15T01:30:36.733Z,12,GR86-002-2,-2.5,0.082,-0.156,99.85,5.0,,0.0,0.0,188.0
2025-08-15T01:30:36.776Z,12,GR86-002-2,-2.3000000000000003,0.078,-0.149,99.84,5.0,,0.0,0.0,
2025-08-15T01:30:36.820Z,12,GR86-002-2,-1.2000000000000002,0.105,-0.149,99.84,5.0,,0.0,0.0,
2025-08-15T01:30:36.864Z,12,GR86-002-2,0.0,0.104,-0.129,99.86,5.0,,0.0,0.0,
2025-08-15T01:30:36.907Z,12,GR86-002-2,0.9,0.094,-0.124,99.84,5.0,6401.0,0.0,0.0,
2025-08-15T01:30:36.951Z,12,GR86-002-2,0.9,0.107,-0.099,99.84,5.0,,0.0,0.0,188.69
2025-08-15T01:30:36.993Z,12,GR86-002-2,0.6000000000000001,0.099,-0.089,99.84,5.0,,0.0,0.0,
2025-08-15T01:30:37.036Z,12,GR86-002-2,0.3,0.107,-0.07,99.86,5.0,,0.0,0.0,
2025-08-15T01:30:37.080Z,12,GR86-002-2,0.3,0.093,-0.039,99.84,5.0,,0.0,0.0,
2025-08-15T01:30:37.122Z,12,GR86-002-2,0.4,0.079,-0.017,99.85,5.0,6452.0,0.0,0.0,
2025-08-15T01:30:37.166Z,12,GR86-002-2,0.5,0.101,-0.006,99.85,5.0,,0.0,0.0,189.42
2025-08-15T01:30:37.211Z,12,GR86-002-2,0.5,0.094,0.002,99.85,5.0,,0.0,0.0,
2025-08-15T01:30:37.254Z,12,GR86-002-2,0.5,0.098,0.015,99.84,5.0,,0.0,0.0,
2025-08-15T01:30:37.297Z,12,GR86-002-2,0.5,0.094,0.016,99.86,5.0,,0.0,0.0,
2025-08-15T01:30:37.341Z,12,GR86-002-2,0.3,0.081,0.025,99.85,5.0,6473.0,0.0,0.0,
2025-08-15T01:30:37.384Z,12,GR86-002-2,0.0,0.075,0.024,99.85,5.0,,0.0,0.0,190.21
2025-08-15T01:30:37.427Z,12,GR86-002-2,-0.3,0.09,0.028,99.84,5.0,,0.0,0.0,
2025-08-15T01:30:37.471Z,12,GR86-002-2,-0.8,0.098,0.017,99.85,5.0,,0.0,0.0,
2025-08-15T01:30:37.513Z,12,GR86-002-2,-1.7000000000000002,0.081,0.007,99.84,5.0,,0.0,0.0,
2025-08-15T01:30:37.556Z,12,GR86-002-2,-2.0,0.099,-0.019,99.85,5.0,6493.0,0.0,0.0,
2025-08-15T01:30:37.601Z,12,GR86-002-2,-2.0,0.092,-0.047,99.84,5.0,,0.0,0.0,190.98
2025-08-15T01:30:37.644Z,12,GR86-002-2,-1.9,0.084,-0.055,99.85,5.0,,0.0,0.0,
2025-08-15T01:30:37.687Z,12,GR86-002-2,-1.9,0.088,-0.062,99.85,5.0,,0.0,0.0,
2025-08-15T01:30:37.731Z,12,GR86-002-2,-1.9,0.078,-0.063,99.85,5.0,,0.0,0.0,
2025-08-15T01:30:37.773Z,12,GR86-002-2,-1.9,0.093,-0.089,99.86,5.0,6519.0,0.0,0.0,
2025-08-15T01:30:37.816Z,12,GR86-002-2,-1.9,0.089,-0.103,99.85,5.0,,0.0,0.0,191.64
2025-08-15T01:30:37.860Z,12,GR86-002-2,-1.9,0.084,-0.126,99.85,5.0,,0.0,0.0,
2025-08-15T01:30:37.902Z,12,GR86-002-2,-2.0,0.082,-0.129,99.85,5.0,,0.0,0.0,
2025-08-15T01:30:37.945Z,12,GR86-002-2,-2.3000000000000003,0.077,-0.118,99.84,5.0,,0.0,0.0,
2025-08-15T01:30:37.988Z,12,GR86-002-2,-2.3000000000000003,0.096,-0.117,99.85,5.0,6550.0,0.0,0.0,
2025-08-15T01:30:38.031Z,12,GR86-002-2,-2.3000000000000003,0.071,-0.121,99.84,5.0,,0.0,0.0,192.42
2025-08-15T01:30:38.074Z,12,GR86-002-2,-2.3000000000000003,0.091,-0.125,99.86,5.0,,0.0,0.0,
2025-08-15T01:30:38.117Z,12,GR86-002-2,-2.3000000000000003,0.08,-0.117,99.85,5.0,,0.0,0.0,
2025-08-15T01:30:38.161Z,12,GR86-002-2,-2.4000000000000004,0.077,-0.128,99.86,5.0,,0.0,0.0,
2025-08-15T01:30:38.204Z,12,GR86-002-2,-2.5,0.083,-0.128,99.85,5.0,6574.0,0.0,0.0,
2025-08-15T01:30:38.247Z,12,GR86-002-2,-2.8000000000000003,0.084,-0.136,99.84,5.0,,0.0,0.0,193.25
2025-08-15T01:30:38.291Z,12,GR86-002-2,-3.0,0.077,-0.155,99.85,5.0,,0.0,0.0,
2025-08-15T01:30:38.333Z,12,GR86-002-2,-2.9000000000000004,0.077,-0.168,99.86,5.0,,0.0,0.0,
2025-08-15T01:30:38.376Z,12,GR86-002-2,-3.0,0.078,-0.195,99.85,5.0,,0.0,0.0,
2025-08-15T01:30:38.420Z,12,GR86-002-2,-2.6,0.085,-0.21,99.84,5.0,6600.0,0.0,0.0,
2025-08-15T01:30:38.464Z,12,GR86-002-2,-2.6,0.089,-0.203,99.85,5.0,,0.0,0.0,193.98
2025-08-15T01:30:38.507Z,12,GR86-002-2,-2.6,0.065,-0.192,99.85,5.0,,0.0,0.0,
2025-08-15T01:30:38.551Z,12,GR86-002-2,-2.6,0.086,-0.182,99.85,5.0,,0.0,0.0,
2025-08-15T01:30:38.593Z,12,GR86-002-2,-2.3000000000000003,0.062,-0.19,99.85,5.0,,0.0,0.0,
2025-08-15T01:30:38.636Z,12,GR86-002-2,-1.3,0.096,-0.186,99.84,5.0,6628.0,0.0,0.0,
2025-08-15T01:30:38.682Z,12,GR86-002-2,-0.1,0.089,-0.177,99.85,5.0,,0.0,0.0,194.75
2025-08-15T01:30:38.725Z,12,GR86-002-2,-0.2,0.054,-0.158,99.85,5.0,,0.0,0.0,
2025-08-15T01:30:38.768Z,12,GR86-002-2,-1.0,0.084,-0.16,99.85,5.0,,0.0,0.0,
2025-08-15T01:30:38.811Z,12,GR86-002-2,-1.7000000000000002,0.067,-0.146,99.84,5.0,,0.0,0.0,
2025-08-15T01:30:38.854Z,12,GR86-002-2,-2.0,0.073,-0.145,99.84,5.0,6647.0,0.0,0.0,
2025-08-15T01:30:38.897Z,12,GR86-002-2,-2.5,0.08,-0.119,99.85,5.0,,0.0,0.0,195.53
2025-08-15T01:30:38.941Z,12,GR86-002-2,-2.8000000000000003,0.328,-0.119,99.85,5.0,,0.0,0.0,
2025-08-15T01:30:38.984Z,12,GR86-002-2,-2.8000000000000003,1.436,-0.23,99.84,5.0,,0.0,0.0,
2025-08-15T01:30:39.027Z,12,GR86-002-2,-2.8000000000000003,0.778,-0.252,99.85,5.0,,0.0,0.0,
2025-08-15T01:30:39.071Z,12,GR86-002-2,-1.9,0.119,-0.078,99.84,5.0,6676.0,0.0,0.0,
2025-08-15T01:30:39.113Z,12,GR86-002-2,-0.8,0.104,-0.057,99.86,5.0,,0.0,0.0,196.3
2025-08-15T01:30:39.156Z,12,GR86-002-2,-0.4,0.104,-0.062,99.85,5.0,,0.0,0.0,
2025-08-15T01:30:39.200Z,12,GR86-002-2,-0.3,0.041,-0.059,99.85,5.0,,0.0,0.0,
2025-08-15T01:30:39.242Z,12,GR86-002-2,-0.3,0.054,-0.081,99.85,5.0,,0.0,0.0,
2025-08-15T01:30:39.285Z,12,GR86-002-2,-0.8,0.089,-0.085,99.85,5.0,6850.0,0.0,0.0,
2025-08-15T01:30:39.328Z,12,GR86-002-2,-1.5,0.065,-0.072,99.84,5.0,,0.0,0.0,200.73
2025-08-15T01:30:39.371Z,12,GR86-002-2,-1.5,0.074,-0.069,99.85,5.0,,0.0,0.0,
2025-08-15T01:30:39.414Z,12,GR86-002-2,-1.5,0.087,-0.074,99.84,5.0,,0.0,0.0,
2025-08-15T01:30:39.457Z,12,GR86-002-2,-1.2000000000000002,0.072,-0.076,99.84,5.0,,0.0,0.0,
2025-08-15T01:30:39.501Z,12,GR86-002-2,-0.7000000000000001,0.078,-0.083,99.86,5.0,6841.0,0.0,0.0,
2025-08-15T01:30:39.544Z,12,GR86-002-2,-0.6000000000000001,0.09,-0.092,99.84,5.0,,0.0,0.0,201.55
2025-08-15T01:30:39.587Z,12,GR86-002-2,-0.6000000000000001,0.092,-0.096,99.84,5.0,,0.0,0.0,
2025-08-15T01:30:39.631Z,12,GR86-002-2,-0.6000000000000001,0.082,-0.088,99.83,5.0,,0.0,0.0,
2025-08-15T01:30:39.673Z,12,GR86-002-2,-0.3,0.072,-0.084,99.86,5.0,,0.0,0.0,
2025-08-15T01:30:39.716Z,12,GR86-002-2,0.3,0.065,-0.085,99.85,5.0,6854.0,0.0,0.0,
2025-08-15T01:30:39.760Z,12,GR86-002-2,0.5,0.092,-0.058,99.86,5.0,,0.0,0.0,202.22
2025-08-15T01:30:39.804Z,12,GR86-002-2,0.5,0.071,-0.045,99.85,5.0,,0.0,0.0,
2025-08-15T01:30:39.847Z,12,GR86-002-2,0.5,0.063,-0.046,99.85,5.0,,0.0,0.0,
2025-08-15T01:30:39.891Z,12,GR86-002-2,0.5,0.082,-0.039,99.85,5.0,,0.0,0.0,
2025-08-15T01:30:39.934Z,12,GR86-002-2,0.6000000000000001,0.059,-0.035,99.85,5.0,6903.0,0.0,0.0,
2025-08-15T01:30:39.978Z,12,GR86-002-2,0.7000000000000001,0.073,-0.026,99.84,5.0,,0.0,0.0,202.67
2025-08-15T01:30:40.021Z,12,GR86-002-2,1.4,0.073,-0.024,99.84,5.0,,0.0,0.0,
2025-08-15T01:30:40.064Z,12,GR86-002-2,2.1,0.067,-0.022,99.85,5.0,,0.0,0.0,
2025-08-15T01:30:40.107Z,12,GR86-002-2,2.1,0.068,-0.026,99.85,5.0,,0.0,0.0,
2025-08-15T01:30:40.151Z,12,GR86-002-2,2.2,0.074,-0.016,99.85,5.0,6916.0,0.0,0.0,
2025-08-15T01:30:40.194Z,12,GR86-002-2,2.2,0.096,0.004,99.85,5.0,,0.0,0.0,203.39
2025-08-15T01:30:40.237Z,12,GR86-002-2,2.2,0.088,0.022,99.84,5.0,,0.0,0.0,
2025-08-15T01:30:40.281Z,12,GR86-002-2,2.6,0.081,0.015,99.83,5.0,,0.0,0.0,
2025-08-15T01:30:40.324Z,12,GR86-002-2,3.2,0.084,0.032,99.85,5.0,,0.0,0.0,
2025-08-15T01:30:40.367Z,12,GR86-002-2,4.0,0.087,0.049,99.85,5.0,6940.0,0.0,0.0,
2025-08-15T01:30:40.411Z,12,GR86-002-2,4.5,0.095,0.086,99.84,5.0,,0.0,0.0,204.14
2025-08-15T01:30:40.453Z,12,GR86-002-2,4.5,0.09,0.098,99.85,5.0,,0.0,0.0,
2025-08-15T01:30:40.496Z,12,GR86-002-2,4.5,0.076,0.107,99.85,5.0,,0.0,0.0,
2025-08-15T01:30:40.540Z,12,GR86-002-2,4.800000000000001,0.085,0.125,99.85,5.0,,0.0,0.0,
2025-08-15T01:30:40.582Z,12,GR86-002-2,5.4,0.086,0.139,99.84,5.0,6976.0,0.0,0.0,
2025-08-15T01:30:40.625Z,12,GR86-002-2,5.9,0.073,0.152,99.84,5.0,,0.0,0.0,204.77
2025-08-15T01:30:40.668Z,12,GR86-002-2,6.2,0.066,0.152,99.85,5.0,,0.0,0.0,
2025-08-15T01:30:40.711Z,12,GR86-002-2,6.2,0.072,0.154,99.84,5.0,,0.0,0.0,
2025-08-15T01:30:40.754Z,12,GR86-002-2,6.2,0.067,0.143,99.84,5.0,,0.0,0.0,
2025-08-15T01:30:40.797Z,12,GR86-002-2,5.9,0.091,0.151,99.84,5.0,6991.0,0.0,0.0,
2025-08-15T01:30:40.841Z,12,GR86-002-2,5.7,0.066,0.185,99.85,5.0,,0.0,0.0,205.61
2025-08-15T01:30:40.884Z,12,GR86-002-2,6.2,0.073,0.199,99.85,5.0,,0.0,0.0,
2025-08-15T01:30:40.927Z,12,GR86-002-2,7.0,0.081,0.23,99.85,5.0,,0.0,0.0,
2025-08-15T01:30:40.971Z,12,GR86-002-2,7.7,0.094,0.252,99.86,5.0,,0.0,0.0,
2025-08-15T01:30:41.014Z,12,GR86-002-2,7.800000000000001,0.072,0.27,99.85,5.0,7020.0,0.0,0.0,
2025-08-15T01:30:41.057Z,12,GR86-002-2,7.300000000000001,0.071,0.288,99.85,5.0,,0.0,0.0,206.25
2025-08-15T01:30:41.101Z,12,GR86-002-2,6.800000000000001,0.091,0.263,99.85,5.0,,0.0,0.0,
2025-08-15T01:30:41.144Z,12,GR86-002-2,6.800000000000001,0.077,0.278,99.85,5.0,,0.0,0.0,
2025-08-15T01:30:41.187Z,12,GR86-002-2,6.800000000000001,0.073,0.27,99.84,5.0,,0.0,0.0,
2025-08-15T01:30:41.232Z,12,GR86-002-2,6.800000000000001,0.051,0.255,99.85,5.0,7045.0,0.0,0.0,
2025-08-15T01:30:41.274Z,12,GR86-002-2,6.800000000000001,0.057,0.227,99.84,5.0,,0.0,0.0,207.07
2025-08-15T01:30:41.317Z,12,GR86-002-2,6.800000000000001,0.053,0.213,99.85,5.0,,0.0,0.0,
2025-08-15T01:30:41.361Z,12,GR86-002-2,6.800000000000001,0.062,0.223,99.85,5.0,,5.965,6.365,
2025-08-15T01:30:41.404Z,12,GR86-002-2,6.800000000000001,0.028,0.222,99.84,5.0,,11.43,11.735,
2025-08-15T01:30:41.447Z,12,GR86-002-2,6.800000000000001,-0.039,0.211,99.85,5.0,7056.0,10.56,11.155,
2025-08-15T01:30:41.491Z,12,GR86-002-2,6.800000000000001,-0.09,0.209,99.85,5.0,,6.425,7.17,207.72
2025-08-15T01:30:41.534Z,12,GR86-002-2,6.800000000000001,0.016,0.22,99.84,5.0,,0.0,2.105,
2025-08-15T01:30:41.577Z,12,GR86-002-2,6.800000000000001,0.043,0.255,99.85,5.0,,0.0,0.0,
2025-08-15T01:30:41.664Z,12,GR86-002-2,6.9,0.077,0.226,99.85,5.0,7053.0,0.0,0.0,
2025-08-15T01:30:41.707Z,12,GR86-002-2,6.9,0.056,0.23,99.86,5.0,,0.0,0.0,208.12
2025-08-15T01:30:41.751Z,12,GR86-002-2,6.7,0.034,0.249,99.84,5.0,,0.0,0.0,
2025-08-15T01:30:41.793Z,12,GR86-002-2,6.7,0.048,0.254,99.85,5.0,,0.0,0.0,
2025-08-15T01:30:41.836Z,12,GR86-002-2,6.7,0.048,0.232,99.85,5.0,,0.0,0.0,
2025-08-15T01:30:41.880Z,12,GR86-002-2,6.7,0.048,0.234,99.83,5.0,7070.0,0.0,0.0,
2025-08-15T01:30:41.922Z,12,GR86-002-2,6.7,0.033,0.24,99.84,5.0,,0.0,0.0,208.77
2025-08-15T01:30:41.966Z,12,GR86-002-2,6.7,0.047,0.241,99.84,5.0,,0.0,0.0,
2025-08-15T01:30:42.011Z,12,GR86-002-2,6.800000000000001,0.056,0.257,99.85,5.0,,0.0,0.0,
2025-08-15T01:30:42.054Z,12,GR86-002-2,6.800000000000001,0.08,0.276,99.84,5.0,,0.0,0.0,
2025-08-15T01:30:42.097Z,12,GR86-002-2,6.9,0.054,0.304,99.85,5.0,7102.0,0.0,0.0,
2025-08-15T01:30:42.141Z,12,GR86-002-2,6.9,0.047,0.315,99.85,5.0,,0.0,0.0,209.1
2025-08-15T01:30:42.184Z,12,GR86-002-2,6.9,0.061,0.307,99.85,5.0,,0.0,0.0,
2025-08-15T01:30:42.227Z,12,GR86-002-2,6.9,0.049,0.336,99.84,5.0,,0.0,0.0,
2025-08-15T01:30:42.271Z,12,GR86-002-2,6.9,0.041,0.323,99.85,5.0,,0.0,0.0,
2025-08-15T01:30:42.314Z,12,GR86-002-2,6.800000000000001,-0.002,0.296,99.84,5.0,7114.0,0.0,0.0,
2025-08-15T01:30:42.357Z,12,GR86-002-2,6.4,0.05,0.245,99.82,5.0,,0.0,0.0,209.74
2025-08-15T01:30:42.401Z,12,GR86-002-2,5.5,0.043,0.207,99.86,5.0,,0.0,0.0,
2025-08-15T01:30:42.444Z,12,GR86-002-2,5.4,0.032,0.201,99.84,5.0,,0.0,0.0,
2025-08-15T01:30:42.487Z,12,GR86-002-2,5.800000000000001,0.051,0.19,99.85,5.0,,0.0,0.0,
2025-08-15T01:30:42.531Z,12,GR86-002-2,6.5,0.048,0.203,99.85,5.0,7142.0,0.0,0.0,
2025-08-15T01:30:42.573Z,12,GR86-002-2,7.1000000000000005,0.065,0.2,99.85,5.0,,0.0,0.0,210.26
2025-08-15T01:30:42.616Z,12,GR86-002-2,7.2,0.038,0.218,99.84,5.0,,0.0,0.0,
2025-08-15T01:30:42.661Z,12,GR86-002-2,5.9,0.058,0.248,99.84,5.0,,0.0,0.0,
2025-08-15T01:30:42.703Z,12,GR86-002-2,3.9,0.05,0.252,99.84,5.0,,0.0,0.0,
2025-08-15T01:30:42.746Z,12,GR86-002-2,2.0,0.035,0.232,99.83,5.0,7163.0,0.0,0.0,
2025-08-15T01:30:42.790Z,12,GR86-002-2,1.3,0.024,0.208,99.84,5.0,,0.0,0.0,210.55
2025-08-15T01:30:42.832Z,12,GR86-002-2,1.5,0.039,0.183,99.85,5.0,,0.0,0.0,
2025-08-15T01:30:42.875Z,12,GR86-002-2,2.2,0.043,0.172,99.84,5.0,,0.0,0.0,
2025-08-15T01:30:42.918Z,12,GR86-002-2,2.7,0.056,0.147,99.83,5.0,,0.0,0.0,
2025-08-15T01:30:42.961Z,12,GR86-002-2,3.3000000000000003,0.036,0.124,99.83,5.0,7186.0,0.0,0.0,
2025-08-15T01:30:43.004Z,12,GR86-002-2,3.8,0.042,0.101,99.85,5.0,,0.0,0.0,210.9
2025-08-15T01:30:43.047Z,12,GR86-002-2,3.9,0.033,0.065,99.84,5.0,,0.0,0.0,
2025-08-15T01:30:43.091Z,12,GR86-002-2,4.0,0.029,0.048,99.84,5.0,,0.0,0.0,
2025-08-15T01:30:43.133Z,12,GR86-002-2,4.0,0.029,0.045,99.85,5.0,,0.0,0.0,
2025-08-15T01:30:43.176Z,12,GR86-002-2,4.0,0.005,0.082,99.84,5.0,7194.0,0.0,0.0,
2025-08-15T01:30:43.220Z,12,GR86-002-2,4.0,0.019,0.099,99.85,5.0,,0.0,0.0,211.51
2025-08-15T01:30:43.264Z,12,GR86-002-2,4.0,0.025,0.105,99.83,5.0,,0.0,0.0,
2025-08-15T01:30:43.307Z,12,GR86-002-2,3.8,0.019,0.1,99.83,5.0,,0.0,0.0,
2025-08-15T01:30:43.351Z,12,GR86-002-2,3.5,0.049,0.088,99.83,5.0,,0.0,0.0,
2025-08-15T01:30:43.393Z,12,GR86-002-2,3.5,0.041,0.089,99.85,5.0,7208.0,0.0,0.0,
2025-08-15T01:30:43.436Z,12,GR86-002-2,3.5,0.053,0.093,99.85,5.0,,0.0,0.0,211.96
2025-08-15T01:30:43.480Z,12,GR86-002-2,3.8,0.058,0.108,99.85,5.0,,0.0,0.0,
2025-08-15T01:30:43.524Z,12,GR86-002-2,4.4,0.025,0.113,99.84,5.0,,0.0,0.0,
2025-08-15T01:30:43.567Z,12,GR86-002-2,5.6000000000000005,0.042,0.116,99.82,5.0,,0.0,0.0,
2025-08-15T01:30:43.611Z,12,GR86-002-2,7.2,0.014,0.131,99.82,5.0,7229.0,0.0,0.0,
2025-08-15T01:30:43.653Z,12,GR86-002-2,8.3,0.046,0.15,99.85,5.0,,0.0,0.0,212.45
2025-08-15T01:30:43.696Z,12,GR86-002-2,8.200000000000001,0.029,0.174,99.85,5.0,,0.0,0.0,
2025-08-15T01:30:43.740Z,12,GR86-002-2,5.5,0.017,0.185,99.83,5.0,,0.0,0.0,
2025-08-15T01:30:43.783Z,12,GR86-002-2,4.2,0.031,0.195,99.85,5.0,,0.0,0.0,
2025-08-15T01:30:43.826Z,12,GR86-002-2,4.4,0.039,0.198,99.83,5.0,7239.0,0.0,0.0,
2025-08-15T01:30:43.870Z,12,GR86-002-2,6.1000000000000005,0.04,0.203,99.83,5.0,,0.0,0.0,213.03
2025-08-15T01:30:43.912Z,12,GR86-002-2,8.3,0.036,0.225,99.85,5.0,,0.0,0.0,
2025-08-15T01:30:43.955Z,12,GR86-002-2,9.9,0.01,0.255,79.04,5.0,,0.0,0.0,
2025-08-15T01:30:43.998Z,12,GR86-002-2,10.3,0.034,0.281,9.27,5.0,,0.0,0.0,
2025-08-15T01:30:44.041Z,12,GR86-002-2,8.6,-0.01,0.314,5.15,5.0,7261.0,0.0,0.0,
2025-08-15T01:30:44.084Z,12,GR86-002-2,7.300000000000001,-0.252,0.358,4.88,5.0,,0.0,0.0,213.5
2025-08-15T01:30:44.127Z,12,GR86-002-2,6.2,-0.341,0.361,4.39,5.0,,0.0,0.0,
2025-08-15T01:30:44.171Z,12,GR86-002-2,5.5,-0.336,0.328,3.86,5.0,,4.0,4.305,
2025-08-15T01:30:44.214Z,12,GR86-002-2,4.7,-0.168,0.341,3.58,5.0,,37.89,37.92,
2025-08-15T01:30:44.257Z,12,GR86-002-2,3.6,-0.783,0.305,3.39,5.0,6951.0,70.745,70.0,
2025-08-15T01:30:44.301Z,12,GR86-002-2,0.3,-1.363,0.309,3.11,5.0,,111.64,110.895,213.93
2025-08-15T01:30:44.344Z,12,GR86-002-2,-0.1,-1.268,0.259,2.99,5.0,,137.05,137.555,
2025-08-15T01:30:44.387Z,12,GR86-002-2,1.9,-1.463,0.28,2.85,5.0,,146.62,146.71,
2025-08-15T01:30:44.431Z,12,GR86-002-2,5.0,-1.298,0.113,2.72,5.0,,149.96,151.09,
2025-08-15T01:30:44.474Z,12,GR86-002-2,3.7,-1.56,0.292,2.6,5.0,6971.0,157.835,159.3,
2025-08-15T01:30:44.517Z,12,GR86-002-2,2.2,-1.417,0.258,2.53,5.0,,158.79500000000002,158.995,212.72
2025-08-15T01:30:44.561Z,12,GR86-002-2,1.3,-1.388,0.225,2.45,5.0,,158.52,159.985,
2025-08-15T01:30:44.604Z,12,GR86-002-2,2.8000000000000003,-1.392,0.118,3.88,5.0,,157.865,158.185,
2025-08-15T01:30:44.647Z,12,GR86-002-2,8.5,-1.309,0.023,42.36,5.0,,158.58,159.36,
2025-08-15T01:30:44.691Z,12,GR86-002-2,13.6,-1.523,0.136,84.14,4.0,6250.0,161.94,163.74,
2025-08-15T01:30:44.733Z,12,GR86-002-2,15.4,-1.552,0.117,41.98,4.0,,161.65,162.75,191.07
2025-08-15T01:30:44.776Z,12,GR86-002-2,13.4,-1.589,0.146,4.29,4.0,,163.65,165.235,
2025-08-15T01:30:44.820Z,12,GR86-002-2,10.0,-1.465,0.001,3.38,4.0,,165.29500000000002,166.24,
2025-08-15T01:30:44.864Z,12,GR86-002-2,12.4,-1.338,-0.053,3.2,4.0,,162.425,163.025,
2025-08-15T01:30:44.907Z,12,GR86-002-2,14.6,-1.261,-0.045,3.08,4.0,6208.0,163.68,164.715,
2025-08-15T01:30:44.951Z,12,GR86-002-2,14.8,-1.33,-0.094,2.98,4.0,,165.615,167.02,180.14
2025-08-15T01:30:44.994Z,12,GR86-002-2,12.1,-1.347,-0.051,2.82,4.0,,164.67000000000002,164.84,
2025-08-15T01:30:45.039Z,12,GR86-002-2,9.7,-1.403,-0.028,2.69,4.0,,164.09,163.86,
2025-08-15T01:30:45.081Z,12,GR86-002-2,8.1,-1.546,0.038,12.8,4.0,,164.96,165.89,
2025-08-15T01:30:45.124Z,12,GR86-002-2,7.6,-1.405,0.188,56.0,4.0,6452.0,157.65,158.015,
2025-08-15T01:30:45.167Z,12,GR86-002-2,8.5,-1.494,0.184,97.45,3.0,,153.685,154.235,172.37
2025-08-15T01:30:45.211Z,12,GR86-002-2,9.1,-1.466,0.248,70.31,3.0,,151.18,151.625,
2025-08-15T01:30:45.253Z,12,GR86-002-2,9.0,-1.548,0.171,3.77,3.0,,152.92000000000002,154.235,
2025-08-15T01:30:45.296Z,12,GR86-002-2,9.1,-1.523,0.294,2.88,3.0,,155.47,157.3,
2025-08-15T01:30:45.340Z,12,GR86-002-2,9.6,-1.581,0.292,2.63,3.0,6912.0,151.0,151.9,
2025-08-15T01:30:45.382Z,12,GR86-002-2,7.0,-1.446,0.332,2.6,3.0,,150.525,152.14,163.22
2025-08-15T01:30:45.425Z,12,GR86-002-2,5.2,-1.371,0.175,2.57,3.0,,150.905,151.56,
2025-08-15T01:30:45.468Z,12,GR86-002-2,7.1000000000000005,-1.306,0.187,2.54,3.0,,148.235,148.71,
2025-08-15T01:30:45.511Z,12,GR86-002-2,8.4,-1.426,0.203,2.53,3.0,,147.84,147.765,
2025-08-15T01:30:45.554Z,12,GR86-002-2,8.4,-1.446,0.208,2.5,3.0,6846.0,147.765,148.175,
2025-08-15T01:30:45.597Z,12,GR86-002-2,8.6,-1.419,0.211,2.5,3.0,,143.995,144.62,152.67000000000002
2025-08-15T01:30:45.641Z,12,GR86-002-2,9.7,-1.457,0.198,2.5,3.0,,142.27,142.865,
2025-08-15T01:30:45.684Z,12,GR86-002-2,12.2,-1.411,0.087,16.32,3.0,,141.615,142.21,
2025-08-15T01:30:45.727Z,12,GR86-002-2,13.4,-1.438,0.095,54.72,2.0,,140.055,140.775,
2025-08-15T01:30:45.771Z,12,GR86-002-2,13.1,-1.55,0.127,8.370000000000001,2.0,6414.0,132.775,134.455,
2025-08-15T01:30:45.813Z,12,GR86-002-2,11.4,-1.464,0.218,4.75,2.0,,125.055,126.935,146.21
2025-08-15T01:30:45.856Z,12,GR86-002-2,8.9,-1.626,0.09,4.07,2.0,,119.27,121.21,
2025-08-15T01:30:45.900Z,12,GR86-002-2,6.6000000000000005,-1.411,0.193,3.56,2.0,,107.14,108.85,
2025-08-15T01:30:45.942Z,12,GR86-002-2,7.4,-1.454,0.07,3.4,2.0,,99.085,99.525,
2025-08-15T01:30:45.985Z,12,GR86-002-2,8.700000000000001,-1.443,0.196,3.23,2.0,6742.0,88.58500000000001,89.09,
2025-08-15T01:30:46.028Z,12,GR86-002-2,9.0,-1.285,0.203,3.0500000000000003,2.0,,81.52,82.375,134.62
2025-08-15T01:30:46.071Z,12,GR86-002-2,9.2,-1.27,0.223,2.89,2.0,,78.3,78.83500000000001,
2025-08-15T01:30:46.114Z,12,GR86-002-2,9.2,-1.285,0.381,2.75,2.0,,76.56,76.745,
2025-08-15T01:30:46.157Z,12,GR86-002-2,9.2,-1.159,0.374,2.66,2.0,,70.805,71.495,
2025-08-15T01:30:46.201Z,12,GR86-002-2,10.5,-0.934,0.417,2.53,2.0,6893.0,55.865,57.44,
2025-08-15T01:30:46.244Z,12,GR86-002-2,11.1,-0.982,0.397,2.51,2.0,,50.97,51.99,127.52
2025-08-15T01:30:46.287Z,12,GR86-002-2,11.6,-1.066,0.394,2.47,2.0,,49.105,49.49,
2025-08-15T01:30:46.331Z,12,GR86-002-2,12.4,-1.051,0.373,2.46,2.0,,49.395,49.46,
2025-08-15T01:30:46.374Z,12,GR86-002-2,14.0,-1.108,0.336,3.98,2.0,,51.365,51.305,
2025-08-15T01:30:46.417Z,12,GR86-002-2,16.3,-1.133,0.341,43.29,1.0,6601.0,53.305,53.335,
2025-08-15T01:30:46.461Z,12,GR86-002-2,19.200000000000003,-1.297,0.301,6.46,1.0,,54.555,55.335,120.9
2025-08-15T01:30:46.504Z,12,GR86-002-2,18.4,-1.181,0.395,4.62,1.0,,54.265,55.3,
2025-08-15T01:30:46.547Z,12,GR86-002-2,15.9,-1.298,0.312,4.0600000000000005,1.0,,49.52,50.68,
2025-08-15T01:30:46.591Z,12,GR86-002-2,14.3,-1.154,0.401,3.66,1.0,,42.575,43.615,
2025-08-15T01:30:46.633Z,12,GR86-002-2,13.7,-1.07,0.474,3.47,1.0,6499.0,36.12,37.145,
2025-08-15T01:30:46.676Z,12,GR86-002-2,13.7,-1.066,0.464,3.22,1.0,,29.835,30.49,113.23
2025-08-15T01:30:46.721Z,12,GR86-002-2,13.4,-0.8240000000000001,0.619,2.97,1.0,,25.835,26.81,
2025-08-15T01:30:46.764Z,12,GR86-002-2,14.5,-0.8140000000000001,0.593,2.83,1.0,,23.27,23.93,
2025-08-15T01:30:46.807Z,12,GR86-002-2,16.8,-0.759,0.723,2.69,1.0,,21.27,21.775,
2025-08-15T01:30:46.851Z,12,GR86-002-2,19.3,-0.733,0.577,2.6,1.0,7193.0,19.99,20.51,
2025-08-15T01:30:46.894Z,12,GR86-002-2,22.0,-0.62,0.55,2.5,1.0,,18.86,19.64,105.91
2025-08-15T01:30:46.939Z,12,GR86-002-2,27.8,-0.5720000000000001,0.533,2.45,1.0,,17.96,18.83,
2025-08-15T01:30:46.981Z,12,GR86-002-2,45.900000000000006,-0.5700000000000001,0.507,2.38,1.0,,18.085,18.555,
2025-08-15T01:30:47.024Z,12,GR86-002-2,57.6,-0.5720000000000001,0.679,2.38,1.0,,18.8,19.21,
2025-08-15T01:30:47.067Z,12,GR86-002-2,61.900000000000006,-0.604,0.761,2.37,1.0,7165.0,19.15,19.485,
2025-08-15T01:30:47.111Z,12,GR86-002-2,59.5,-0.603,0.846,2.38,1.0,,19.485,19.79,99.66
2025-08-15T01:30:47.154Z,12,GR86-002-2,54.2,-0.591,0.872,2.39,1.0,,19.275,19.76,
2025-08-15T01:30:47.197Z,12,GR86-002-2,51.7,-0.5750000000000001,0.894,2.42,1.0,,19.335,19.9,
2025-08-15T01:30:47.241Z,12,GR86-002-2,52.5,-0.552,0.946,2.42,1.0,,19.485,19.93,
2025-08-15T01:30:47.284Z,12,GR86-002-2,52.900000000000006,-0.553,0.994,2.43,1.0,6810.0,19.485,19.93,
2025-08-15T01:30:47.327Z,12,GR86-002-2,50.7,-0.539,0.981,2.44,1.0,,19.18,19.79,92.89
2025-08-15T01:30:47.371Z,12,GR86-002-2,48.1,-0.551,0.983,2.43,1.0,,19.485,20.05,
2025-08-15T01:30:47.414Z,12,GR86-002-2,47.7,-0.577,0.987,2.46,1.0,,19.15,19.7,
2025-08-15T01:30:47.457Z,12,GR86-002-2,50.5,-0.5670000000000001,1.006,2.47,1.0,,19.15,19.87,
2025-08-15T01:30:47.501Z,12,GR86-002-2,58.8,-0.505,1.044,2.47,1.0,6505.0,18.615,19.365,
2025-08-15T01:30:47.544Z,12,GR86-002-2,63.900000000000006,-0.51,1.031,2.48,1.0,,16.62,17.490000000000002,89.05
2025-08-15T01:30:47.587Z,12,GR86-002-2,66.10000000000001,-0.477,1.118,2.47,1.0,,10.15,10.715,
2025-08-15T01:30:47.631Z,12,GR86-002-2,66.60000000000001,-0.282,1.157,2.47,1.0,,2.795,3.405,
2025-08-15T01:30:47.673Z,12,GR86-002-2,69.0,-0.228,1.149,2.47,1.0,,0.0,0.0,
2025-08-15T01:30:47.716Z,12,GR86-002-2,75.2,-0.258,1.162,2.5,1.0,6210.0,0.0,0.0,
2025-08-15T01:30:47.760Z,12,GR86-002-2,85.80000000000001,-0.239,1.224,2.49,1.0,,0.0,0.0,85.85000000000001
2025-08-15T01:30:47.802Z,12,GR86-002-2,89.80000000000001,-0.23,1.277,2.5,1.0,,0.0,0.0,
2025-08-15T01:30:47.845Z,12,GR86-002-2,90.3,-0.198,1.259,2.49,1.0,,0.0,0.0,
2025-08-15T01:30:47.888Z,12,GR86-002-2,90.3,-0.203,1.264,2.48,1.0,,0.0,0.0,
2025-08-15T01:30:47.931Z,12,GR86-002-2,89.7,-0.215,1.218,2.65,1.0,5935.0,0.0,0.0,
2025-08-15T01:30:47.974Z,12,GR86-002-2,88.2,-0.231,1.2,2.81,1.0,,0.0,0.0,84.16
2025-08-15T01:30:48.017Z,12,GR86-002-2,86.10000000000001,-0.217,1.236,3.35,1.0,,0.0,0.0,
2025-08-15T01:30:48.061Z,12,GR86-002-2,82.9,-0.219,1.323,5.25,1.0,,0.0,0.0,
2025-08-15T01:30:48.104Z,12,GR86-002-2,80.5,-0.192,1.302,5.98,1.0,,0.0,0.0,
2025-08-15T01:30:48.147Z,12,GR86-002-2,78.2,-0.215,1.367,13.87,1.0,5804.0,0.0,0.0,
2025-08-15T01:30:48.191Z,12,GR86-002-2,75.3,-0.238,1.381,18.01,1.0,,0.0,0.0,82.72
2025-08-15T01:30:48.233Z,12,GR86-002-2,70.5,-0.214,1.279,18.4,1.0,,0.0,0.0,
2025-08-15T01:30:48.276Z,12,GR86-002-2,65.3,-0.189,1.336,20.83,1.0,,0.0,0.0,
2025-08-15T01:30:48.321Z,12,GR86-002-2,63.0,-0.144,1.261,21.29,1.0,,0.0,0.0,
2025-08-15T01:30:48.364Z,12,GR86-002-2,64.60000000000001,-0.032,1.167,22.61,1.0,5841.0,0.0,0.0,
2025-08-15T01:30:48.407Z,12,GR86-002-2,66.9,-0.081,1.095,26.37,1.0,,0.0,0.0,81.60000000000001
2025-08-15T01:30:48.451Z,12,GR86-002-2,69.0,0.216,1.194,26.25,1.0,,0.0,0.0,
2025-08-15T01:30:48.493Z,12,GR86-002-2,70.7,0.059,1.09,29.02,1.0,,0.0,0.0,
2025-08-15T01:30:48.536Z,12,GR86-002-2,74.0,0.008,1.05,31.83,1.0,,0.0,0.0,
2025-08-15T01:30:48.580Z,12,GR86-002-2,76.9,0.28,1.02,32.97,1.0,6046.0,0.0,0.0,
2025-08-15T01:30:48.624Z,12,GR86-002-2,78.4,0.082,1.014,33.06,1.0,,0.0,0.0,80.0
2025-08-15T01:30:48.667Z,12,GR86-002-2,81.5,0.296,1.0,33.480000000000004,1.0,,0.0,0.0,
2025-08-15T01:30:48.711Z,12,GR86-002-2,85.4,0.387,1.097,33.83,1.0,,0.0,0.0,
2025-08-15T01:30:48.753Z,12,GR86-002-2,90.5,0.347,0.948,35.6,1.0,,0.0,0.0,
2025-08-15T01:30:48.796Z,12,GR86-002-2,93.3,0.174,1.138,36.55,1.0,6392.0,0.0,0.0,
2025-08-15T01:30:48.840Z,12,GR86-002-2,93.7,0.153,1.256,38.4,1.0,,0.0,0.0,79.86
2025-08-15T01:30:48.883Z,12,GR86-002-2,91.6,0.402,1.064,38.51,1.0,,0.0,0.0,
2025-08-15T01:30:48.926Z,12,GR86-002-2,87.60000000000001,0.25,1.159,38.59,1.0,,0.0,0.0,
2025-08-15T01:30:48.970Z,12,GR86-002-2,84.60000000000001,0.197,1.01,38.58,1.0,,0.0,0.0,
2025-08-15T01:30:49.012Z,12,GR86-002-2,82.5,0.025,1.039,38.78,1.0,6361.0,0.0,0.0,
2025-08-15T01:30:49.055Z,12,GR86-002-2,80.30000000000001,0.265,1.311,39.66,1.0,,0.0,0.0,80.71000000000001
2025-08-15T01:30:49.098Z,12,GR86-002-2,75.5,0.194,1.104,40.79,1.0,,0.0,0.0,
2025-08-15T01:30:49.141Z,12,GR86-002-2,69.10000000000001,0.121,1.553,41.01,1.0,,0.0,0.0,
2025-08-15T01:30:49.184Z,12,GR86-002-2,66.0,0.332,1.198,39.79,1.0,,0.0,0.0,
2025-08-15T01:30:49.227Z,12,GR86-002-2,64.60000000000001,0.383,1.194,39.74,1.0,6440.0,0.0,0.0,
2025-08-15T01:30:49.313Z,12,GR86-002-2,63.1,0.39,1.238,39.83,1.0,,0.0,0.0,81.68
2025-08-15T01:30:49.356Z,12,GR86-002-2,57.5,0.216,1.041,43.64,1.0,,0.0,0.0,
2025-08-15T01:30:49.400Z,12,GR86-002-2,50.6,0.204,1.187,61.01,1.0,,0.0,0.0,
2025-08-15T01:30:49.442Z,12,GR86-002-2,43.3,0.22,1.073,96.31,1.0,6435.0,0.0,0.0,
2025-08-15T01:30:49.485Z,12,GR86-002-2,35.9,0.292,1.114,99.94,1.0,,0.0,0.0,83.45
2025-08-15T01:30:49.528Z,12,GR86-002-2,30.9,0.35,1.068,99.87,1.0,,0.0,0.0,
2025-08-15T01:30:49.571Z,12,GR86-002-2,30.1,0.384,1.036,99.87,1.0,,0.0,0.0,
2025-08-15T01:30:49.614Z,12,GR86-002-2,31.0,0.373,1.031,99.88,1.0,,0.0,0.0,
2025-08-15T01:30:49.657Z,12,GR86-002-2,32.300000000000004,0.399,1.028,99.88,1.0,6643.0,0.0,0.0,
2025-08-15T01:30:49.701Z,12,GR86-002-2,32.300000000000004,0.36,1.09,99.88,1.0,,0.0,0.0,84.75
2025-08-15T01:30:49.744Z,12,GR86-002-2,30.200000000000003,0.336,1.09,99.88,1.0,,0.0,0.0,
2025-08-15T01:30:49.787Z,12,GR86-002-2,27.0,0.334,1.087,99.88,1.0,,0.0,0.0,
2025-08-15T01:30:49.831Z,12,GR86-002-2,24.700000000000003,0.365,1.084,99.88,1.0,,0.0,0.0,
2025-08-15T01:30:49.874Z,12,GR86-002-2,25.1,0.38,1.078,99.87,1.0,6796.0,0.0,0.0,
2025-08-15T01:30:49.917Z,12,GR86-002-2,28.0,0.37,1.093,99.88,1.0,,0.0,0.0,86.4
2025-08-15T01:30:49.961Z,12,GR86-002-2,36.9,0.396,1.093,99.91,1.0,,0.0,0.0,
2025-08-15T01:30:50.004Z,12,GR86-002-2,43.5,0.386,1.068,99.91,1.0,,0.0,0.0,
2025-08-15T01:30:50.047Z,12,GR86-002-2,47.6,0.341,1.006,99.9,1.0,,0.0,0.0,
2025-08-15T01:30:50.091Z,12,GR86-002-2,47.400000000000006,0.33,1.057,99.91,1.0,6940.0,0.0,0.0,
2025-08-15T01:30:50.133Z,12,GR86-002-2,47.2,0.306,1.046,99.91,1.0,,0.0,0.0,90.45
2025-08-15T01:30:50.177Z,12,GR86-002-2,47.2,0.417,0.935,99.89,1.0,,0.0,0.0,
2025-08-15T01:30:50.221Z,12,GR86-002-2,45.6,0.356,0.986,99.92,1.0,,0.0,0.0,
2025-08-15T01:30:50.264Z,12,GR86-002-2,43.2,0.436,0.6920000000000001,99.88,1.0,,0.0,0.0,
2025-08-15T01:30:50.307Z,12,GR86-002-2,38.0,0.342,0.525,99.88,1.0,7036.0,0.0,0.0,
2025-08-15T01:30:50.351Z,12,GR86-002-2,32.1,0.224,0.418,99.9,1.0,,0.0,0.0,92.6
2025-08-15T01:30:50.393Z,12,GR86-002-2,28.3,0.175,0.503,99.9,1.0,,0.0,0.0,
2025-08-15T01:30:50.436Z,12,GR86-002-2,23.700000000000003,0.231,0.915,99.87,1.0,,0.0,0.0,
2025-08-15T01:30:50.480Z,12,GR86-002-2,18.6,-0.134,0.219,99.86,2.0,,0.0,0.0,
2025-08-15T01:30:50.522Z,12,GR86-002-2,15.9,-0.081,0.797,99.91,2.0,6788.0,0.0,0.0,
2025-08-15T01:30:50.566Z,12,GR86-002-2,14.0,0.739,0.614,99.92,2.0,,0.0,0.0,93.9
2025-08-15T01:30:50.610Z,12,GR86-002-2,13.3,0.772,0.546,99.92,2.0,,0.0,0.0,
2025-08-15T01:30:50.652Z,12,GR86-002-2,11.0,0.59,0.687,99.91,2.0,,0.0,0.0,
2025-08-15T01:30:50.695Z,12,GR86-002-2,5.300000000000001,0.346,0.808,99.9,2.0,,0.0,0.0,
2025-08-15T01:30:50.738Z,12,GR86-002-2,-2.4000000000000004,0.054,1.031,99.9,2.0,6074.0,0.0,0.0,
2025-08-15T01:30:50.781Z,12,GR86-002-2,-11.6,0.487,1.264,99.91,2.0,,0.0,0.0,95.05
2025-08-15T01:30:50.824Z,12,GR86-002-2,-10.9,0.532,1.047,99.93,2.0,,0.0,0.0,
2025-08-15T01:30:50.867Z,12,GR86-002-2,-3.4000000000000004,0.323,0.859,99.93,2.0,,0.0,0.0,
2025-08-15T01:30:50.911Z,12,GR86-002-2,11.7,0.153,0.961,99.96,2.0,,0.0,0.0,
2025-08-15T01:30:50.953Z,12,GR86-002-2,30.3,0.094,0.708,99.97,2.0,5746.0,0.0,0.0,
2025-08-15T01:30:50.996Z,12,GR86-002-2,43.8,0.239,0.16,99.9,2.0,,0.0,0.0,98.03
2025-08-15T01:30:51.040Z,12,GR86-002-2,53.6,0.141,0.467,99.92,2.0,,0.0,0.0,
2025-08-15T01:30:51.082Z,12,GR86-002-2,51.8,-0.112,0.058,99.9,2.0,,0.0,0.0,
2025-08-15T01:30:51.125Z,12,GR86-002-2,46.8,-0.018,0.347,99.91,2.0,,0.0,0.0,
2025-08-15T01:30:51.168Z,12,GR86-002-2,39.1,0.23,0.47,99.92,2.0,5959.0,0.0,0.0,
2025-08-15T01:30:51.211Z,12,GR86-002-2,31.6,0.527,0.124,99.92,2.0,,0.0,0.0,99.5
2025-08-15T01:30:51.254Z,12,GR86-002-2,24.9,0.587,0.344,99.91,2.0,,0.0,0.0,
2025-08-15T01:30:51.297Z,12,GR86-002-2,17.6,0.561,0.333,99.91,2.0,,0.0,0.0,
2025-08-15T01:30:51.341Z,12,GR86-002-2,7.0,-0.208,0.224,99.91,2.0,,0.0,0.0,
2025-08-15T01:30:51.384Z,12,GR86-002-2,3.3000000000000003,0.266,0.341,99.92,2.0,5897.0,0.0,0.0,
2025-08-15T01:30:51.427Z,12,GR86-002-2,2.6,0.415,0.46,99.91,2.0,,0.0,0.0,101.25
2025-08-15T01:30:51.471Z,12,GR86-002-2,2.6,0.427,0.524,99.91,2.0,,0.0,0.0,
2025-08-15T01:30:51.514Z,12,GR86-002-2,3.2,0.335,0.378,99.9,2.0,,0.0,0.0,
2025-08-15T01:30:51.557Z,12,GR86-002-2,4.6000000000000005,0.232,0.431,99.91,2.0,,0.0,0.0,
2025-08-15T01:30:51.601Z,12,GR86-002-2,7.5,-0.038,0.028,99.9,2.0,5967.0,0.0,0.0,
2025-08-15T01:30:51.644Z,12,GR86-002-2,8.0,-0.066,0.009,99.91,2.0,,0.0,0.0,103.38
2025-08-15T01:30:51.687Z,12,GR86-002-2,6.7,0.094,0.04,99.91,2.0,,0.0,0.0,
2025-08-15T01:30:51.731Z,12,GR86-002-2,3.4000000000000004,0.347,-0.066,99.91,2.0,,0.0,0.0,
2025-08-15T01:30:51.774Z,12,GR86-002-2,0.5,0.47,0.001,99.9,2.0,,0.0,0.0,
2025-08-15T01:30:51.817Z,12,GR86-002-2,-1.0,0.548,-0.046,99.9,2.0,6386.0,0.0,0.0,
2025-08-15T01:30:51.861Z,12,GR86-002-2,-1.0,0.174,-0.051,99.92,2.0,,0.0,0.0,104.73
2025-08-15T01:30:51.904Z,12,GR86-002-2,-0.2,0.192,-0.028,99.9,2.0,,0.0,0.0,
2025-08-15T01:30:51.947Z,12,GR86-002-2,0.0,0.116,-0.057,99.93,2.0,,0.0,0.0,
2025-08-15T01:30:51.991Z,12,GR86-002-2,-0.3,0.049,-0.165,99.9,2.0,,0.0,0.0,
2025-08-15T01:30:52.033Z,12,GR86-002-2,-0.7000000000000001,0.113,-0.126,99.91,2.0,6180.0,0.0,0.0,
2025-08-15T01:30:52.076Z,12,GR86-002-2,-1.0,0.126,-0.173,99.9,2.0,,0.0,0.0,106.74
2025-08-15T01:30:52.121Z,12,GR86-002-2,-1.5,0.464,-0.246,99.91,2.0,,0.0,0.0,
2025-08-15T01:30:52.164Z,12,GR86-002-2,-1.5,0.425,-0.191,99.91,2.0,,0.0,0.0,
2025-08-15T01:30:52.207Z,12,GR86-002-2,-1.2000000000000002,0.401,-0.199,99.91,2.0,,0.0,0.0,
2025-08-15T01:30:52.251Z,12,GR86-002-2,0.1,0.349,-0.188,99.92,2.0,6418.0,0.0,0.0,
2025-08-15T01:30:52.293Z,12,GR86-002-2,1.2000000000000002,0.337,-0.162,99.9,2.0,,0.0,0.0,108.37
2025-08-15T01:30:52.336Z,12,GR86-002-2,1.5,0.304,-0.18,99.91,2.0,,0.0,0.0,
2025-08-15T01:30:52.380Z,12,GR86-002-2,1.0,0.19,-0.154,99.91,2.0,,0.0,0.0,
2025-08-15T01:30:52.422Z,12,GR86-002-2,0.7000000000000001,0.246,-0.099,99.9,2.0,,0.0,0.0,
2025-08-15T01:30:52.466Z,12,GR86-002-2,0.7000000000000001,0.256,-0.133,99.91,2.0,6431.0,0.0,0.0,
2025-08-15T01:30:52.511Z,12,GR86-002-2,0.4,0.299,-0.092,99.91,2.0,,0.0,0.0,110.24
2025-08-15T01:30:52.554Z,12,GR86-002-2,0.0,0.256,-0.069,99.91,2.0,,0.0,0.0,
2025-08-15T01:30:52.597Z,12,GR86-002-2,-0.6000000000000001,0.244,-0.068,99.91,2.0,,0.0,0.0,
2025-08-15T01:30:52.641Z,12,GR86-002-2,-0.9,0.282,-0.083,99.93,2.0,,0.0,0.0,
2025-08-15T01:30:52.684Z,12,GR86-002-2,-0.9,0.301,-0.033,99.92,2.0,6537.0,0.0,0.0,
2025-08-15T01:30:52.727Z,12,GR86-002-2,-0.9,0.322,-0.077,99.9,2.0,,0.0,0.0,113.67
2025-08-15T01:30:52.771Z,12,GR86-002-2,-1.0,0.272,-0.109,99.91,2.0,,0.0,0.0,
2025-08-15T01:30:52.814Z,12,GR86-002-2,-1.2000000000000002,0.273,-0.07,99.91,2.0,,0.0,0.0,
2025-08-15T01:30:52.857Z,12,GR86-002-2,-1.3,0.268,-0.106,99.92,2.0,,0.0,0.0,
2025-08-15T01:30:52.901Z,12,GR86-002-2,-1.3,0.294,-0.085,99.9,2.0,6606.0,0.0,0.0,
2025-08-15T01:30:52.944Z,12,GR86-002-2,-1.3,0.296,-0.062,99.9,2.0,,0.0,0.0,115.17
2025-08-15T01:30:52.987Z,12,GR86-002-2,-1.6,0.304,-0.048,99.91,2.0,,0.0,0.0,
2025-08-15T01:30:53.031Z,12,GR86-002-2,-2.3000000000000003,0.266,-0.083,99.91,2.0,,0.0,0.0,
2025-08-15T01:30:53.074Z,12,GR86-002-2,-2.4000000000000004,0.265,-0.045,99.9,2.0,,0.0,0.0,
2025-08-15T01:30:53.117Z,12,GR86-002-2,-2.6,0.294,-0.056,99.91,2.0,6699.0,0.0,0.0,
2025-08-15T01:30:53.161Z,12,GR86-002-2,-2.6,0.305,-0.072,99.91,2.0,,0.0,0.0,116.78
2025-08-15T01:30:53.204Z,12,GR86-002-2,-2.6,0.273,-0.071,99.91,2.0,,0.0,0.0,
2025-08-15T01:30:53.247Z,12,GR86-002-2,-2.6,0.28,-0.052,99.91,2.0,,0.0,0.0,
2025-08-15T01:30:53.291Z,12,GR86-002-2,-2.6,0.283,-0.076,99.91,2.0,,0.0,0.0,
2025-08-15T01:30:53.377Z,12,GR86-002-2,-2.0,0.279,-0.042,99.91,2.0,6846.0,0.0,0.0,118.36
2025-08-15T01:30:53.421Z,12,GR86-002-2,-1.8,0.29,-0.028,99.9,2.0,,0.0,0.0,
2025-08-15T01:30:53.464Z,12,GR86-002-2,-1.8,0.293,-0.048,99.93,2.0,,0.0,0.0,
2025-08-15T01:30:53.551Z,12,GR86-002-2,-1.8,0.28,-0.02,99.9,2.0,6930.0,0.0,0.0,
2025-08-15T01:30:53.636Z,12,GR86-002-2,-1.8,0.283,-0.054,99.92,2.0,,0.0,0.0,119.87
2025-08-15T01:30:53.682Z,12,GR86-002-2,-1.8,0.263,-0.028,99.92,2.0,,0.0,0.0,
2025-08-15T01:30:53.725Z,12,GR86-002-2,-1.8,0.273,-0.011,99.91,2.0,,0.0,0.0,
2025-08-15T01:30:53.768Z,12,GR86-002-2,-1.8,0.285,-0.051,99.91,2.0,7013.0,0.0,0.0,
2025-08-15T01:30:53.811Z,12,GR86-002-2,-1.8,0.263,-0.016,99.92,2.0,,0.0,0.0,121.27
2025-08-15T01:30:53.854Z,12,GR86-002-2,-1.8,0.282,0.003,99.9,2.0,,0.0,0.0,
2025-08-15T01:30:53.897Z,12,GR86-002-2,-1.8,0.294,-0.047,99.9,2.0,,0.0,0.0,
2025-08-15T01:30:53.941Z,12,GR86-002-2,-1.8,0.278,-0.056,99.9,2.0,,0.0,0.0,
2025-08-15T01:30:53.984Z,12,GR86-002-2,-1.8,0.255,-0.044,99.91,2.0,7083.0,0.0,0.0,
2025-08-15T01:30:54.027Z,12,GR86-002-2,-1.6,0.262,-0.008,99.93,2.0,,0.0,0.0,122.57
2025-08-15T01:30:54.071Z,12,GR86-002-2,-1.2000000000000002,0.293,-0.055,99.95,2.0,,0.0,0.0,
2025-08-15T01:30:54.114Z,12,GR86-002-2,-0.7000000000000001,0.269,-0.036,99.91,2.0,,0.0,0.0,
2025-08-15T01:30:54.157Z,12,GR86-002-2,-0.3,0.253,-0.016,99.91,2.0,,0.0,0.0,
2025-08-15T01:30:54.201Z,12,GR86-002-2,-0.1,0.245,0.011,99.89,2.0,7172.0,0.0,0.0,
2025-08-15T01:30:54.244Z,12,GR86-002-2,0.0,0.285,-0.03,99.9,2.0,,0.0,0.0,123.77
2025-08-15T01:30:54.287Z,12,GR86-002-2,0.1,0.273,-0.039,99.91,2.0,,0.0,0.0,
2025-08-15T01:30:54.331Z,12,GR86-002-2,0.3,0.25,0.011,99.93,2.0,,0.0,0.0,
2025-08-15T01:30:54.373Z,12,GR86-002-2,0.3,0.272,-0.019,99.91,2.0,,0.0,0.0,
2025-08-15T01:30:54.416Z,12,GR86-002-2,0.3,0.272,-0.048,99.91,2.0,7232.0,0.0,0.0,
2025-08-15T01:30:54.460Z,12,GR86-002-2,0.3,0.274,-0.044,99.88,2.0,,0.0,0.0,125.02
2025-08-15T01:30:54.504Z,12,GR86-002-2,0.3,0.087,0.001,99.88,2.0,,0.0,0.0,
2025-08-15T01:30:54.547Z,12,GR86-002-2,0.3,-0.098,0.041,99.93,3.0,,0.0,0.0,
2025-08-15T01:30:54.591Z,12,GR86-002-2,0.5,0.533,-0.013,99.94,3.0,,0.0,0.0,
2025-08-15T01:30:54.633Z,12,GR86-002-2,1.4,0.357,-0.082,99.91,3.0,7099.0,0.0,0.0,
2025-08-15T01:30:54.678Z,12,GR86-002-2,1.7000000000000002,0.386,0.055,99.91,3.0,,0.0,0.0,126.2
2025-08-15T01:30:54.721Z,12,GR86-002-2,1.7000000000000002,0.18,-0.038,99.92,3.0,,0.0,0.0,
2025-08-15T01:30:54.764Z,12,GR86-002-2,1.5,0.127,-0.019,99.92,3.0,,0.0,0.0,
2025-08-15T01:30:54.807Z,12,GR86-002-2,0.9,0.181,0.012,99.92,3.0,,0.0,0.0,
2025-08-15T01:30:54.851Z,12,GR86-002-2,0.7000000000000001,0.257,-0.018,99.91,3.0,5932.0,0.0,0.0,
2025-08-15T01:30:54.893Z,12,GR86-002-2,0.7000000000000001,0.289,0.049,99.92,3.0,,0.0,0.0,127.02
2025-08-15T01:30:54.936Z,12,GR86-002-2,1.0,0.254,0.006,99.92,3.0,,0.0,0.0,
2025-08-15T01:30:54.980Z,12,GR86-002-2,1.8,0.21,0.011,99.91,3.0,,0.0,0.0,
2025-08-15T01:30:55.022Z,12,GR86-002-2,2.6,0.231,0.022,99.91,3.0,,0.0,0.0,
2025-08-15T01:30:55.066Z,12,GR86-002-2,3.4000000000000004,0.231,0.073,99.9,3.0,6006.0,0.0,0.0,
2025-08-15T01:30:55.110Z,12,GR86-002-2,3.8,0.228,0.062,99.9,3.0,,0.0,0.0,128.29
2025-08-15T01:30:55.152Z,12,GR86-002-2,3.6,0.235,0.023,99.9,3.0,,0.0,0.0,
2025-08-15T01:30:55.195Z,12,GR86-002-2,2.6,0.21,0.086,99.9,3.0,,0.0,0.0,
2025-08-15T01:30:55.239Z,12,GR86-002-2,1.1,0.219,0.082,99.9,3.0,,0.0,0.0,
2025-08-15T01:30:55.281Z,12,GR86-002-2,-1.1,0.213,0.071,99.92,3.0,6059.0,0.0,0.0,
2025-08-15T01:30:55.324Z,12,GR86-002-2,-1.7000000000000002,0.235,-0.002,99.91,3.0,,0.0,0.0,130.08
2025-08-15T01:30:55.367Z,12,GR86-002-2,-1.6,0.227,-0.024,99.9,3.0,,0.0,0.0,
2025-08-15T01:30:55.411Z,12,GR86-002-2,-0.1,0.211,0.012,99.9,3.0,,0.0,0.0,
2025-08-15T01:30:55.453Z,12,GR86-002-2,1.6,0.215,0.005,99.91,3.0,,0.0,0.0,
2025-08-15T01:30:55.496Z,12,GR86-002-2,2.7,0.24,-0.038,99.9,3.0,6096.0,0.0,0.0,
2025-08-15T01:30:55.540Z,12,GR86-002-2,2.9000000000000004,0.225,-0.017,99.91,3.0,,0.0,0.0,130.97
2025-08-15T01:30:55.582Z,12,GR86-002-2,1.4,0.215,-0.01,99.91,3.0,,0.0,0.0,
2025-08-15T01:30:55.625Z,12,GR86-002-2,-0.7000000000000001,0.218,0.045,99.9,3.0,,0.0,0.0,
2025-08-15T01:30:55.668Z,12,GR86-002-2,-2.8000000000000003,0.223,0.023,99.91,3.0,,0.0,0.0,
2025-08-15T01:30:55.711Z,12,GR86-002-2,-3.7,0.23,-0.054,99.92,3.0,6146.0,0.0,0.0,
2025-08-15T01:30:55.754Z,12,GR86-002-2,-2.7,0.224,-0.019,99.91,3.0,,0.0,0.0,131.91
2025-08-15T01:30:55.797Z,12,GR86-002-2,1.0,0.208,0.004,92.29,3.0,,0.0,0.0,
2025-08-15T01:30:55.841Z,12,GR86-002-2,9.9,0.225,0.071,3.45,3.0,,0.0,0.0,
2025-08-15T01:30:55.884Z,12,GR86-002-2,15.5,0.207,0.104,4.87,3.0,,0.0,0.0,
2025-08-15T01:30:55.971Z,12,GR86-002-2,15.7,-0.028,0.14,4.62,3.0,6180.0,0.0,0.0,132.8
2025-08-15T01:30:56.014Z,12,GR86-002-2,7.5,-0.394,0.235,3.69,3.0,,39.4,39.43,
2025-08-15T01:30:56.057Z,12,GR86-002-2,4.6000000000000005,-0.582,0.174,3.5,3.0,,54.43,53.93,
2025-08-15T01:30:56.101Z,12,GR86-002-2,-1.9,-0.901,0.175,3.26,3.0,,68.33500000000001,67.615,
2025-08-15T01:30:56.144Z,12,GR86-002-2,-1.6,-0.8320000000000001,0.21,3.16,3.0,5886.0,75.125,74.24,
2025-08-15T01:30:56.187Z,12,GR86-002-2,0.5,-1.03,0.205,2.98,3.0,,80.68,81.215,132.41
2025-08-15T01:30:56.231Z,12,GR86-002-2,2.6,-1.057,0.255,2.81,3.0,,82.465,84.05,
2025-08-15T01:30:56.274Z,12,GR86-002-2,1.6,-1.123,0.346,2.66,3.0,,80.025,80.77,
2025-08-15T01:30:56.317Z,12,GR86-002-2,0.2,-1.084,0.402,12.78,3.0,,77.015,78.605,
2025-08-15T01:30:56.361Z,12,GR86-002-2,-0.3,-1.05,0.5740000000000001,78.60000000000001,2.0,5109.0,68.275,69.4,
2025-08-15T01:30:56.404Z,12,GR86-002-2,0.0,-0.935,0.591,52.06,2.0,,60.58,61.68,121.58
2025-08-15T01:30:56.447Z,12,GR86-002-2,0.2,-1.132,0.411,3.79,2.0,,56.065,57.805,
2025-08-15T01:30:56.491Z,12,GR86-002-2,-0.2,-0.968,0.514,3.46,2.0,,50.19,51.93,
2025-08-15T01:30:56.533Z,12,GR86-002-2,-2.1,-1.101,0.469,3.38,2.0,,44.195,45.66,
2025-08-15T01:30:56.576Z,12,GR86-002-2,-6.6000000000000005,-1.017,0.491,3.22,2.0,5240.0,41.585,43.02,
2025-08-15T01:30:56.621Z,12,GR86-002-2,-9.0,-0.99,0.514,2.97,2.0,,35.375,36.425,117.51
2025-08-15T01:30:56.664Z,12,GR86-002-2,-7.1000000000000005,-0.812,0.601,2.83,2.0,,31.51,32.535000000000004,
2025-08-15T01:30:56.707Z,12,GR86-002-2,0.0,-0.761,0.591,2.69,2.0,,27.15,28.155,
2025-08-15T01:30:56.751Z,12,GR86-002-2,6.0,-0.663,0.77,2.59,2.0,,24.31,25.395,
2025-08-15T01:30:56.793Z,12,GR86-002-2,8.1,-0.617,0.872,2.51,2.0,5780.0,21.41,21.99,
2025-08-15T01:30:56.836Z,12,GR86-002-2,10.9,-0.518,0.851,2.47,2.0,,18.68,19.15,111.64
2025-08-15T01:30:56.880Z,12,GR86-002-2,14.2,-0.472,0.914,2.44,2.0,,16.115000000000002,17.03,
2025-08-15T01:30:56.922Z,12,GR86-002-2,14.9,-0.511,0.833,2.43,2.0,,12.3,13.2,
2025-08-15T01:30:56.966Z,12,GR86-002-2,18.7,-0.341,0.867,2.44,2.0,,5.22,6.18,
2025-08-15T01:30:57.011Z,12,GR86-002-2,31.6,-0.21,0.879,2.44,2.0,5738.0,0.0,0.0,
2025-08-15T01:30:57.054Z,12,GR86-002-2,45.3,-0.229,0.926,2.43,2.0,,0.0,0.0,106.67
2025-08-15T01:30:57.097Z,12,GR86-002-2,63.3,-0.187,0.982,2.43,2.0,,0.0,0.0,
2025-08-15T01:30:57.141Z,12,GR86-002-2,79.2,-0.158,1.037,2.42,2.0,,0.0,0.0,
2025-08-15T01:30:57.184Z,12,GR86-002-2,79.5,-0.168,1.022,2.41,2.0,,0.0,0.0,
2025-08-15T01:30:57.227Z,12,GR86-002-2,78.5,-0.168,1.025,2.41,2.0,5748.0,0.0,0.0,
2025-08-15T01:30:57.271Z,12,GR86-002-2,75.7,-0.192,1.053,2.42,2.0,,0.0,0.0,103.25
2025-08-15T01:30:57.314Z,12,GR86-002-2,70.3,-0.176,1.083,2.47,2.0,,0.0,0.0,
2025-08-15T01:30:57.357Z,12,GR86-002-2,63.900000000000006,-0.172,1.07,2.63,2.0,,0.0,0.0,
2025-08-15T01:30:57.401Z,12,GR86-002-2,53.5,-0.174,1.172,3.99,2.0,,0.0,0.0,
2025-08-15T01:30:57.444Z,12,GR86-002-2,49.3,-0.163,1.179,4.74,2.0,5647.0,0.0,0.0,
2025-08-15T01:30:57.487Z,12,GR86-002-2,44.3,-0.163,1.162,4.83,2.0,,0.0,0.0,101.33
2025-08-15T01:30:57.531Z,12,GR86-002-2,42.7,-0.156,1.215,7.48,2.0,,0.0,0.0,
2025-08-15T01:30:57.573Z,12,GR86-002-2,42.6,-0.162,1.183,16.89,2.0,,0.0,0.0,
2025-08-15T01:30:57.616Z,12,GR86-002-2,42.8,-0.142,1.21,17.98,2.0,,0.0,0.0,
2025-08-15T01:30:57.660Z,12,GR86-002-2,43.2,-0.108,1.248,21.34,2.0,5558.0,0.0,0.0,
2025-08-15T01:30:57.703Z,12,GR86-002-2,45.400000000000006,-0.101,1.253,21.69,2.0,,0.0,0.0,101.2
2025-08-15T01:30:57.746Z,12,GR86-002-2,49.7,-0.089,1.277,22.82,2.0,,0.0,0.0,
2025-08-15T01:30:57.790Z,12,GR86-002-2,54.8,-0.101,1.269,24.92,2.0,,0.0,0.0,
2025-08-15T01:30:57.832Z,12,GR86-002-2,59.3,-0.064,1.293,26.24,2.0,,0.0,0.0,
2025-08-15T01:30:57.875Z,12,GR86-002-2,62.7,0.116,1.241,25.92,2.0,5527.0,0.0,0.0,
2025-08-15T01:30:57.918Z,12,GR86-002-2,66.0,0.097,1.27,25.91,2.0,,0.0,0.0,99.88
2025-08-15T01:30:57.961Z,12,GR86-002-2,70.5,0.11,1.284,25.62,2.0,,0.0,0.0,
2025-08-15T01:30:58.004Z,12,GR86-002-2,72.8,0.103,1.15,25.28,2.0,,0.0,0.0,
2025-08-15T01:30:58.047Z,12,GR86-002-2,74.3,0.091,1.205,25.14,2.0,,0.0,0.0,
2025-08-15T01:30:58.091Z,12,GR86-002-2,74.60000000000001,0.056,1.326,25.24,2.0,5752.0,0.0,0.0,
2025-08-15T01:30:58.133Z,12,GR86-002-2,75.0,0.093,1.316,25.26,2.0,,0.0,0.0,97.8
2025-08-15T01:30:58.176Z,12,GR86-002-2,75.7,0.094,1.293,25.83,2.0,,0.0,0.0,
2025-08-15T01:30:58.220Z,12,GR86-002-2,77.60000000000001,0.236,1.358,27.28,2.0,,0.0,0.0,
2025-08-15T01:30:58.264Z,12,GR86-002-2,78.4,0.181,1.23,27.71,2.0,,0.0,0.0,
2025-08-15T01:30:58.307Z,12,GR86-002-2,78.5,-0.089,1.209,27.88,2.0,5687.0,0.0,0.0,
2025-08-15T01:30:58.351Z,12,GR86-002-2,78.5,-0.137,1.34,29.31,2.0,,0.0,0.0,97.64
2025-08-15T01:30:58.393Z,12,GR86-002-2,78.5,0.119,1.319,29.62,2.0,,0.0,0.0,
2025-08-15T01:30:58.436Z,12,GR86-002-2,78.60000000000001,0.321,1.429,29.94,2.0,,0.0,0.0,
2025-08-15T01:30:58.480Z,12,GR86-002-2,78.60000000000001,0.077,1.18,31.76,2.0,,0.0,0.0,
2025-08-15T01:30:58.524Z,12,GR86-002-2,78.7,0.256,1.181,32.12,2.0,5801.0,0.0,0.0,
2025-08-15T01:30:58.567Z,12,GR86-002-2,78.7,0.185,1.073,32.44,2.0,,0.0,0.0,97.25
2025-08-15T01:30:58.611Z,12,GR86-002-2,78.80000000000001,-0.083,1.012,33.83,2.0,,0.0,0.0,
2025-08-15T01:30:58.653Z,12,GR86-002-2,79.0,-0.039,1.102,34.0,2.0,,0.0,0.0,
2025-08-15T01:30:58.696Z,12,GR86-002-2,79.4,0.265,1.159,33.32,2.0,,0.0,0.0,
2025-08-15T01:30:58.740Z,12,GR86-002-2,80.60000000000001,-0.132,1.138,33.99,2.0,5934.0,0.0,0.0,
2025-08-15T01:30:58.783Z,12,GR86-002-2,80.60000000000001,0.051,1.309,37.82,2.0,,0.0,0.0,97.52
2025-08-15T01:30:58.827Z,12,GR86-002-2,80.60000000000001,0.274,1.199,39.74,2.0,,0.0,0.0,
2025-08-15T01:30:58.871Z,12,GR86-002-2,80.60000000000001,0.138,1.336,43.0,2.0,,0.0,0.0,
2025-08-15T01:30:58.913Z,12,GR86-002-2,80.0,0.141,1.437,46.89,2.0,,0.0,0.0,
2025-08-15T01:30:58.956Z,12,GR86-002-2,78.10000000000001,0.166,1.276,58.8,2.0,5829.0,0.0,0.0,
2025-08-15T01:30:59.000Z,12,GR86-002-2,74.3,0.205,1.204,99.53,2.0,,0.0,0.0,98.34
2025-08-15T01:30:59.042Z,12,GR86-002-2,71.7,0.224,1.146,99.86,2.0,,0.0,0.0,
2025-08-15T01:30:59.085Z,12,GR86-002-2,69.4,0.233,1.103,99.88,2.0,,0.0,0.0,
2025-08-15T01:30:59.128Z,12,GR86-002-2,66.8,0.228,1.153,99.87,2.0,,0.0,0.0,
2025-08-15T01:30:59.214Z,12,GR86-002-2,59.2,0.255,1.148,99.87,2.0,5926.0,0.0,0.0,99.34
2025-08-15T01:30:59.257Z,12,GR86-002-2,53.5,0.271,1.164,99.87,2.0,,0.0,0.0,
2025-08-15T01:30:59.301Z,12,GR86-002-2,44.1,0.256,1.095,99.88,2.0,,0.0,0.0,
2025-08-15T01:30:59.344Z,12,GR86-002-2,41.7,0.229,1.088,99.88,2.0,,0.0,0.0,
2025-08-15T01:30:59.387Z,12,GR86-002-2,43.2,0.262,1.121,99.9,2.0,6000.0,0.0,0.0,
2025-08-15T01:30:59.431Z,12,GR86-002-2,46.6,0.251,1.08,99.9,2.0,,0.0,0.0,100.68
2025-08-15T01:30:59.473Z,12,GR86-002-2,47.2,0.224,1.103,99.89,2.0,,0.0,0.0,
2025-08-15T01:30:59.516Z,12,GR86-002-2,39.400000000000006,0.233,1.148,99.88,2.0,,0.0,0.0,
2025-08-15T01:30:59.560Z,12,GR86-002-2,16.900000000000002,0.255,1.139,99.87,2.0,,0.0,0.0,
2025-08-15T01:30:59.604Z,12,GR86-002-2,8.5,0.303,1.145,99.89,2.0,6167.0,0.0,0.0,
2025-08-15T01:30:59.647Z,12,GR86-002-2,10.5,0.338,1.126,99.95,2.0,,0.0,0.0,102.25
2025-08-15T01:30:59.691Z,12,GR86-002-2,17.0,0.285,1.168,99.91,2.0,,0.0,0.0,
2025-08-15T01:30:59.733Z,12,GR86-002-2,21.5,0.299,1.199,99.9,2.0,,0.0,0.0,
2025-08-15T01:30:59.777Z,12,GR86-002-2,22.3,0.25,1.224,99.91,2.0,,0.0,0.0,
2025-08-15T01:30:59.821Z,12,GR86-002-2,24.700000000000003,0.237,1.168,99.91,2.0,6238.0,0.0,0.0,
2025-08-15T01:30:59.864Z,12,GR86-002-2,31.200000000000003,0.251,1.104,99.91,2.0,,0.0,0.0,104.06
2025-08-15T01:30:59.907Z,12,GR86-002-2,38.7,0.235,1.173,99.9,2.0,,0.0,0.0,
2025-08-15T01:30:59.951Z,12,GR86-002-2,43.2,0.246,1.267,99.9,2.0,,0.0,0.0,
2025-08-15T01:30:59.993Z,12,GR86-002-2,44.400000000000006,0.25,1.334,99.9,2.0,,0.0,0.0,
2025-08-15T01:31:00.036Z,12,GR86-002-2,40.1,0.392,0.935,99.91,2.0,6353.0,0.0,0.0,
2025-08-15T01:31:00.080Z,12,GR86-002-2,29.700000000000003,0.174,0.947,99.91,2.0,,0.0,0.0,105.44
2025-08-15T01:31:00.122Z,12,GR86-002-2,18.7,0.238,1.162,99.9,2.0,,0.0,0.0,
2025-08-15T01:31:00.166Z,12,GR86-002-2,5.9,0.209,1.089,99.88,2.0,,0.0,0.0,
2025-08-15T01:31:00.210Z,12,GR86-002-2,-6.5,0.225,1.123,99.9,2.0,,0.0,0.0,
2025-08-15T01:31:00.252Z,12,GR86-002-2,-13.9,0.246,1.018,99.93,2.0,6416.0,0.0,0.0,
2025-08-15T01:31:00.339Z,12,GR86-002-2,-1.5,0.384,1.017,99.94,2.0,,0.0,0.0,106.21
2025-08-15T01:31:00.381Z,12,GR86-002-2,11.4,0.51,1.224,99.91,2.0,,0.0,0.0,
2025-08-15T01:31:00.424Z,12,GR86-002-2,9.5,0.558,1.139,99.9,2.0,,0.0,0.0,
2025-08-15T01:31:00.467Z,12,GR86-002-2,1.7000000000000002,0.552,0.938,99.91,2.0,6673.0,0.0,0.0,
2025-08-15T01:31:00.511Z,12,GR86-002-2,-2.8000000000000003,0.38,0.8170000000000001,99.91,2.0,,0.0,0.0,108.5
2025-08-15T01:31:00.553Z,12,GR86-002-2,-0.4,0.238,0.739,99.92,2.0,,0.0,0.0,
2025-08-15T01:31:00.596Z,12,GR86-002-2,9.0,0.193,0.8290000000000001,99.91,2.0,,0.0,0.0,
2025-08-15T01:31:00.640Z,12,GR86-002-2,26.4,0.413,0.811,99.94,2.0,,0.0,0.0,
2025-08-15T01:31:00.683Z,12,GR86-002-2,31.9,0.476,0.964,99.93,2.0,6524.0,0.0,0.0,
2025-08-15T01:31:00.727Z,12,GR86-002-2,30.4,0.465,0.874,99.9,2.0,,0.0,0.0,110.64
2025-08-15T01:31:00.771Z,12,GR86-002-2,24.8,0.491,0.806,99.91,2.0,,0.0,0.0,
2025-08-15T01:31:00.813Z,12,GR86-002-2,20.5,0.423,0.87,99.9,2.0,,0.0,0.0,
2025-08-15T01:31:00.856Z,12,GR86-002-2,20.200000000000003,0.439,0.608,99.92,2.0,,0.0,0.0,
2025-08-15T01:31:00.901Z,12,GR86-002-2,21.9,0.239,0.652,99.9,2.0,6607.0,0.0,0.0,
2025-08-15T01:31:00.944Z,12,GR86-002-2,20.4,0.236,0.606,99.91,2.0,,0.0,0.0,113.05
2025-08-15T01:31:00.987Z,12,GR86-002-2,17.1,0.319,0.584,99.91,2.0,,0.0,0.0,
2025-08-15T01:31:01.031Z,12,GR86-002-2,14.1,0.355,0.356,99.92,2.0,,0.0,0.0,
2025-08-15T01:31:01.074Z,12,GR86-002-2,13.9,0.282,0.444,99.93,2.0,,0.0,0.0,
2025-08-15T01:31:01.117Z,12,GR86-002-2,14.0,0.306,0.386,99.91,2.0,6626.0,0.0,0.0,
2025-08-15T01:31:01.161Z,12,GR86-002-2,14.0,0.083,0.316,99.91,2.0,,0.0,0.0,115.09
2025-08-15T01:31:01.204Z,12,GR86-002-2,13.3,0.287,0.372,99.93,2.0,,0.0,0.0,
2025-08-15T01:31:01.247Z,12,GR86-002-2,13.0,0.338,0.193,99.9,2.0,,0.0,0.0,
2025-08-15T01:31:01.291Z,12,GR86-002-2,13.4,0.207,0.248,99.91,2.0,,0.0,0.0,
2025-08-15T01:31:01.333Z,12,GR86-002-2,13.7,0.155,0.183,99.91,2.0,6763.0,0.0,0.0,
2025-08-15T01:31:01.376Z,12,GR86-002-2,13.6,0.082,0.089,99.9,2.0,,0.0,0.0,117.09
2025-08-15T01:31:01.420Z,12,GR86-002-2,9.7,0.277,0.255,99.93,2.0,,0.0,0.0,
2025-08-15T01:31:01.464Z,12,GR86-002-2,6.800000000000001,0.377,0.054,99.94,2.0,,0.0,0.0,
