timestamp,lap,vehicle_id,steering_angle,accx_can,accy_can,ath,gear,nmot,pbrake_f,pbrake_r,speed
2025-08-15T09:31:14.558Z,10,GR86-028-89,0.8,0.132,-0.009,99.99,4.0,7265.0,0.0,0.0,
2025-08-15T09:31:14.601Z,10,GR86-028-89,0.8,0.108,-0.014,100.02,4.0,,0.0,0.0,185.33
2025-08-15T09:31:14.645Z,10,GR86-028-89,0.5,0.127,0.006,99.98,4.0,,0.0,0.0,
2025-08-15T09:31:14.731Z,10,GR86-028-89,0.9,0.105,-0.037,99.99,4.0,,0.0,0.0,
2025-08-15T09:31:14.818Z,10,GR86-028-89,1.0,0.062,-0.015,100.0,4.0,7295.0,0.0,0.0,186.16
2025-08-15T09:31:14.861Z,10,GR86-028-89,1.2000000000000002,0.04,0.018,99.99,4.0,,0.0,0.0,
2025-08-15T09:31:14.948Z,10,GR86-028-89,1.4,-0.102,0.01,100.01,5.0,,0.0,0.0,
2025-08-15T09:31:14.991Z,10,GR86-028-89,2.0,0.389,0.011,99.97,5.0,7219.0,0.0,0.0,
2025-08-15T09:31:15.036Z,10,GR86-028-89,1.7000000000000002,0.081,-0.035,100.0,5.0,,0.0,0.0,186.92
2025-08-15T09:31:15.078Z,10,GR86-028-89,1.1,0.0,0.057,99.99,5.0,,0.0,0.0,
2025-08-15T09:31:15.121Z,10,GR86-028-89,1.6,0.129,-0.044,100.0,5.0,,0.0,0.0,
2025-08-15T09:31:15.165Z,10,GR86-028-89,2.0,0.17,0.022,100.0,5.0,,0.0,0.0,
2025-08-15T09:31:15.208Z,10,GR86-028-89,1.7000000000000002,0.084,0.07,100.0,5.0,6401.0,0.0,0.0,
2025-08-15T09:31:15.251Z,10,GR86-028-89,1.8,0.054,0.007,99.99,5.0,,0.0,0.0,187.5
2025-08-15T09:31:15.295Z,10,GR86-028-89,2.5,0.133,0.087,99.98,5.0,,0.0,0.0,
2025-08-15T09:31:15.338Z,10,GR86-028-89,2.7,0.083,0.034,100.01,5.0,,0.0,0.0,
2025-08-15T09:31:15.381Z,10,GR86-028-89,2.5,0.101,0.023,99.99,5.0,,0.0,0.0,
2025-08-15T09:31:15.426Z,10,GR86-028-89,2.2,0.094,0.037,100.01,5.0,6409.0,0.0,0.0,
2025-08-15T09:31:15.469Z,10,GR86-028-89,1.7000000000000002,0.128,0.022,99.99,5.0,,0.0,0.0,188.28
2025-08-15T09:31:15.512Z,10,GR86-028-89,1.4,0.089,0.023,99.99,5.0,,0.0,0.0,
2025-08-15T09:31:15.558Z,10,GR86-028-89,1.9,0.083,0.046,100.02,5.0,,0.0,0.0,
2025-08-15T09:31:15.601Z,10,GR86-028-89,1.7000000000000002,0.088,0.019,99.98,5.0,,0.0,0.0,
2025-08-15T09:31:15.645Z,10,GR86-028-89,1.8,0.104,0.037,99.99,5.0,6416.0,0.0,0.0,
2025-08-15T09:31:15.687Z,10,GR86-028-89,1.7000000000000002,0.11,0.023,100.0,5.0,,0.0,0.0,188.98
2025-08-15T09:31:15.730Z,10,GR86-028-89,1.6,0.083,0.011,100.01,5.0,,0.0,0.0,
2025-08-15T09:31:15.775Z,10,GR86-028-89,1.6,0.086,0.006,99.99,5.0,,0.0,0.0,
2025-08-15T09:31:15.818Z,10,GR86-028-89,1.6,0.102,-0.002,100.03,5.0,,0.0,0.0,
2025-08-15T09:31:15.861Z,10,GR86-028-89,1.8,0.083,0.009,99.98,5.0,6437.0,0.0,0.0,
2025-08-15T09:31:15.905Z,10,GR86-028-89,1.9,0.089,0.014,100.01,5.0,,0.0,0.0,189.77
2025-08-15T09:31:15.947Z,10,GR86-028-89,1.8,0.097,0.009,99.99,5.0,,0.0,0.0,
2025-08-15T09:31:15.990Z,10,GR86-028-89,1.5,0.086,0.004,100.01,5.0,,0.0,0.0,
2025-08-15T09:31:16.036Z,10,GR86-028-89,1.4,0.102,-0.015,99.99,5.0,,0.0,0.0,
2025-08-15T09:31:16.121Z,10,GR86-028-89,1.5,0.104,-0.003,100.02,5.0,6469.0,0.0,0.0,191.21
2025-08-15T09:31:16.165Z,10,GR86-028-89,1.4,0.083,0.0,100.0,5.0,,0.0,0.0,
2025-08-15T09:31:16.208Z,10,GR86-028-89,1.5,0.089,-0.007,100.0,5.0,,0.0,0.0,
2025-08-15T09:31:16.251Z,10,GR86-028-89,1.7000000000000002,0.087,-0.001,100.0,5.0,,0.0,0.0,
2025-08-15T09:31:16.295Z,10,GR86-028-89,1.7000000000000002,0.095,0.007,100.02,5.0,6492.0,0.0,0.0,
2025-08-15T09:31:16.338Z,10,GR86-028-89,1.8,0.105,0.019,99.98,5.0,,0.0,0.0,191.97
2025-08-15T09:31:16.381Z,10,GR86-028-89,2.0,0.103,0.049,100.01,5.0,,0.0,0.0,
2025-08-15T09:31:16.426Z,10,GR86-028-89,2.2,0.084,0.038,100.0,5.0,,0.0,0.0,
2025-08-15T09:31:16.469Z,10,GR86-028-89,2.3000000000000003,0.08,0.022,99.99,5.0,,0.0,0.0,
2025-08-15T09:31:16.512Z,10,GR86-028-89,2.1,0.097,-0.003,99.99,5.0,6522.0,0.0,0.0,
2025-08-15T09:31:16.555Z,10,GR86-028-89,1.1,0.097,0.014,100.0,5.0,,0.0,0.0,192.69
2025-08-15T09:31:16.598Z,10,GR86-028-89,1.1,0.112,0.019,99.99,5.0,,0.0,0.0,
2025-08-15T09:31:16.641Z,10,GR86-028-89,1.6,0.083,0.01,100.0,5.0,,0.0,0.0,
2025-08-15T09:31:16.686Z,10,GR86-028-89,1.7000000000000002,0.089,0.006,99.99,5.0,,0.0,0.0,
2025-08-15T09:31:16.728Z,10,GR86-028-89,1.4,0.105,0.015,100.0,5.0,6563.0,0.0,0.0,
2025-08-15T09:31:16.771Z,10,GR86-028-89,1.2000000000000002,0.089,0.002,100.01,5.0,,0.0,0.0,193.37
2025-08-15T09:31:16.816Z,10,GR86-028-89,1.3,0.106,0.003,100.0,5.0,,0.0,0.0,
2025-08-15T09:31:16.858Z,10,GR86-028-89,1.3,0.102,0.009,100.01,5.0,,0.0,0.0,
2025-08-15T09:31:16.901Z,10,GR86-028-89,1.1,0.098,-0.003,100.0,5.0,,0.0,0.0,
2025-08-15T09:31:16.945Z,10,GR86-028-89,1.1,0.097,0.009,100.01,5.0,6589.0,0.0,0.0,
2025-08-15T09:31:16.987Z,10,GR86-028-89,1.1,0.092,0.008,99.98,5.0,,0.0,0.0,194.09
2025-08-15T09:31:17.031Z,10,GR86-028-89,1.3,0.098,0.012,99.99,5.0,,0.0,0.0,
2025-08-15T09:31:17.076Z,10,GR86-028-89,1.5,0.087,0.025,100.0,5.0,,0.0,0.0,
2025-08-15T09:31:17.118Z,10,GR86-028-89,1.6,0.104,0.011,99.99,5.0,,0.0,0.0,
2025-08-15T09:31:17.161Z,10,GR86-028-89,1.6,0.082,0.013,100.01,5.0,6614.0,0.0,0.0,
2025-08-15T09:31:17.205Z,10,GR86-028-89,1.6,0.099,-0.017,100.02,5.0,,0.0,0.0,194.85
2025-08-15T09:31:17.247Z,10,GR86-028-89,1.4,0.077,0.004,100.0,5.0,,0.0,0.0,
2025-08-15T09:31:17.290Z,10,GR86-028-89,1.4,0.088,-0.003,100.0,5.0,,0.0,0.0,
2025-08-15T09:31:17.335Z,10,GR86-028-89,1.6,0.109,0.023,100.01,5.0,,0.0,0.0,
2025-08-15T09:31:17.378Z,10,GR86-028-89,1.7000000000000002,0.094,0.058,100.01,5.0,6635.0,0.0,0.0,
2025-08-15T09:31:17.421Z,10,GR86-028-89,1.8,0.092,0.009,99.99,5.0,,0.0,0.0,195.61
2025-08-15T09:31:17.465Z,10,GR86-028-89,1.8,0.079,0.006,99.99,5.0,,0.0,0.0,
2025-08-15T09:31:17.508Z,10,GR86-028-89,1.8,0.089,0.015,100.0,5.0,,0.0,0.0,
2025-08-15T09:31:17.551Z,10,GR86-028-89,1.7000000000000002,0.068,0.023,99.97,5.0,,0.0,0.0,
2025-08-15T09:31:17.595Z,10,GR86-028-89,1.7000000000000002,0.106,0.035,99.99,5.0,6660.0,0.0,0.0,
2025-08-15T09:31:17.638Z,10,GR86-028-89,1.7000000000000002,0.095,0.037,100.0,5.0,,0.0,0.0,196.29
2025-08-15T09:31:17.681Z,10,GR86-028-89,1.6,0.078,0.013,100.0,5.0,,0.0,0.0,
2025-08-15T09:31:17.769Z,10,GR86-028-89,1.4,0.082,0.0,99.98,5.0,,0.0,0.0,
2025-08-15T09:31:17.812Z,10,GR86-028-89,1.2000000000000002,0.08,0.003,100.01,5.0,6693.0,0.0,0.0,
2025-08-15T09:31:17.858Z,10,GR86-028-89,1.2000000000000002,0.102,0.028,100.03,5.0,,0.0,0.0,197.07
2025-08-15T09:31:17.901Z,10,GR86-028-89,1.3,0.102,-0.005,100.01,5.0,,0.0,0.0,
2025-08-15T09:31:17.945Z,10,GR86-028-89,1.1,0.068,-0.001,100.0,5.0,,0.0,0.0,
2025-08-15T09:31:17.988Z,10,GR86-028-89,0.8,0.08,-0.021,100.0,5.0,,0.0,0.0,
2025-08-15T09:31:18.031Z,10,GR86-028-89,0.6000000000000001,0.081,-0.024,100.02,5.0,6713.0,0.0,0.0,
2025-08-15T09:31:18.076Z,10,GR86-028-89,0.4,0.094,-0.018,100.01,5.0,,0.0,0.0,197.63
2025-08-15T09:31:18.119Z,10,GR86-028-89,0.4,0.097,-0.025,100.0,5.0,,0.0,0.0,
2025-08-15T09:31:18.162Z,10,GR86-028-89,0.4,0.091,-0.017,99.99,5.0,,0.0,0.0,
2025-08-15T09:31:18.205Z,10,GR86-028-89,0.4,0.074,-0.02,100.03,5.0,,0.0,0.0,
2025-08-15T09:31:18.248Z,10,GR86-028-89,0.6000000000000001,0.076,-0.036,100.02,5.0,6740.0,0.0,0.0,
2025-08-15T09:31:18.291Z,10,GR86-028-89,0.6000000000000001,0.081,-0.029,100.02,5.0,,0.0,0.0,198.28
2025-08-15T09:31:18.336Z,10,GR86-028-89,0.5,0.085,-0.017,100.03,5.0,,0.0,0.0,
2025-08-15T09:31:18.378Z,10,GR86-028-89,0.5,0.09,-0.011,100.0,5.0,,0.0,0.0,
2025-08-15T09:31:18.421Z,10,GR86-028-89,0.5,0.072,-0.009,100.0,5.0,,0.0,0.0,
2025-08-15T09:31:18.465Z,10,GR86-028-89,0.7000000000000001,0.074,-0.044,100.01,5.0,6760.0,0.0,0.0,
2025-08-15T09:31:18.508Z,10,GR86-028-89,0.7000000000000001,0.073,-0.006,100.04,5.0,,0.0,0.0,199.11
2025-08-15T09:31:18.551Z,10,GR86-028-89,0.8,0.072,-0.02,100.02,5.0,,0.0,0.0,
2025-08-15T09:31:18.595Z,10,GR86-028-89,0.9,0.082,0.018,100.0,5.0,,0.0,0.0,
2025-08-15T09:31:18.638Z,10,GR86-028-89,0.9,0.064,-0.019,100.01,5.0,,0.0,0.0,
2025-08-15T09:31:18.726Z,10,GR86-028-89,0.9,0.077,-0.044,99.97,5.0,6782.0,0.0,0.0,200.67
2025-08-15T09:31:18.769Z,10,GR86-028-89,0.8,0.089,-0.041,100.01,5.0,,0.0,0.0,
2025-08-15T09:31:18.812Z,10,GR86-028-89,1.0,0.089,-0.046,100.04,5.0,,0.0,0.0,
2025-08-15T09:31:18.858Z,10,GR86-028-89,1.2000000000000002,0.061,-0.022,100.01,5.0,,0.0,0.0,
2025-08-15T09:31:18.901Z,10,GR86-028-89,1.4,0.084,-0.027,100.01,5.0,6809.0,0.0,0.0,
2025-08-15T09:31:18.945Z,10,GR86-028-89,1.4,0.076,0.003,100.03,5.0,,0.0,0.0,201.46
2025-08-15T09:31:18.987Z,10,GR86-028-89,1.6,0.096,-0.011,100.02,5.0,,0.0,0.0,
2025-08-15T09:31:19.030Z,10,GR86-028-89,1.9,0.119,-0.002,100.0,5.0,,0.0,0.0,
2025-08-15T09:31:19.075Z,10,GR86-028-89,2.2,0.084,-0.017,100.03,5.0,,0.0,0.0,
2025-08-15T09:31:19.118Z,10,GR86-028-89,2.2,0.077,0.007,100.01,5.0,6866.0,0.0,0.0,
2025-08-15T09:31:19.161Z,10,GR86-028-89,2.0,0.064,-0.01,100.0,5.0,,0.0,0.0,202.12
2025-08-15T09:31:19.205Z,10,GR86-028-89,1.8,0.101,-0.008,99.98,5.0,,0.0,0.0,
2025-08-15T09:31:19.247Z,10,GR86-028-89,1.8,0.066,0.001,99.98,5.0,,0.0,0.0,
2025-08-15T09:31:19.290Z,10,GR86-028-89,1.9,0.084,0.006,100.0,5.0,,0.0,0.0,
2025-08-15T09:31:19.336Z,10,GR86-028-89,1.8,0.096,0.001,99.98,5.0,6884.0,0.0,0.0,
2025-08-15T09:31:19.378Z,10,GR86-028-89,1.8,0.088,-0.002,99.98,5.0,,0.0,0.0,202.89
2025-08-15T09:31:19.421Z,10,GR86-028-89,1.9,0.078,-0.017,99.99,5.0,,0.0,0.0,
2025-08-15T09:31:19.465Z,10,GR86-028-89,2.0,0.085,0.033,99.98,5.0,,0.0,0.0,
2025-08-15T09:31:19.508Z,10,GR86-028-89,2.1,0.06,0.027,100.0,5.0,,0.0,0.0,
2025-08-15T09:31:19.551Z,10,GR86-028-89,2.3000000000000003,0.072,0.03,99.99,5.0,6916.0,0.0,0.0,
2025-08-15T09:31:19.595Z,10,GR86-028-89,2.4000000000000004,0.105,0.039,99.98,5.0,,0.0,0.0,203.57
2025-08-15T09:31:19.638Z,10,GR86-028-89,2.3000000000000003,0.075,0.013,99.98,5.0,,0.0,0.0,
2025-08-15T09:31:19.681Z,10,GR86-028-89,2.1,0.076,0.013,99.99,5.0,,0.0,0.0,
2025-08-15T09:31:19.727Z,10,GR86-028-89,1.9,0.064,-0.007,99.99,5.0,,0.0,0.0,
2025-08-15T09:31:19.769Z,10,GR86-028-89,1.8,0.067,0.021,99.99,5.0,6928.0,0.0,0.0,
2025-08-15T09:31:19.812Z,10,GR86-028-89,1.8,0.116,0.022,99.99,5.0,,0.0,0.0,204.32
2025-08-15T09:31:19.858Z,10,GR86-028-89,2.0,0.059,0.023,99.99,5.0,,0.0,0.0,
2025-08-15T09:31:19.945Z,10,GR86-028-89,2.1,0.068,0.025,100.0,5.0,,0.0,0.0,
2025-08-15T09:31:19.987Z,10,GR86-028-89,2.4000000000000004,0.086,0.018,99.99,5.0,6962.0,0.0,0.0,
2025-08-15T09:31:20.031Z,10,GR86-028-89,2.5,0.106,0.028,99.98,5.0,,0.0,0.0,204.99
2025-08-15T09:31:20.076Z,10,GR86-028-89,2.1,0.068,0.035,100.02,5.0,,0.0,0.0,
2025-08-15T09:31:20.118Z,10,GR86-028-89,2.0,0.095,0.002,100.02,5.0,,0.0,0.0,
2025-08-15T09:31:20.161Z,10,GR86-028-89,2.0,0.106,0.025,100.01,5.0,,0.0,0.0,
2025-08-15T09:31:20.205Z,10,GR86-028-89,2.0,0.081,0.027,100.02,5.0,6983.0,0.0,0.0,
2025-08-15T09:31:20.247Z,10,GR86-028-89,2.1,0.075,0.048,100.02,5.0,,0.0,0.0,205.69
2025-08-15T09:31:20.290Z,10,GR86-028-89,2.2,0.068,0.066,100.0,5.0,,0.0,0.0,
2025-08-15T09:31:20.335Z,10,GR86-028-89,2.7,0.094,0.019,99.98,5.0,,0.0,0.0,
2025-08-15T09:31:20.378Z,10,GR86-028-89,2.7,0.078,0.051,99.99,5.0,,0.0,0.0,
2025-08-15T09:31:20.421Z,10,GR86-028-89,2.6,0.075,0.044,100.0,5.0,6995.0,0.0,0.0,
2025-08-15T09:31:20.465Z,10,GR86-028-89,2.5,0.048,0.057,99.99,5.0,,0.0,0.0,206.43
2025-08-15T09:31:20.508Z,10,GR86-028-89,2.7,0.081,0.037,99.97,5.0,,0.0,0.0,
2025-08-15T09:31:20.551Z,10,GR86-028-89,2.7,0.057,0.031,99.98,5.0,,0.0,0.0,
2025-08-15T09:31:20.595Z,10,GR86-028-89,2.7,0.07,0.061,100.03,5.0,,0.0,0.0,
2025-08-15T09:31:20.638Z,10,GR86-028-89,2.7,0.062,0.032,99.98,5.0,7024.0,0.0,0.0,
2025-08-15T09:31:20.681Z,10,GR86-028-89,2.7,0.078,0.036,100.01,5.0,,0.0,0.0,207.02
2025-08-15T09:31:20.726Z,10,GR86-028-89,2.7,0.091,0.05,100.0,5.0,,0.0,0.0,
2025-08-15T09:31:20.769Z,10,GR86-028-89,2.8000000000000003,0.059,0.077,100.0,5.0,,0.0,0.0,
2025-08-15T09:31:20.812Z,10,GR86-028-89,3.0,0.09,0.073,100.01,5.0,,0.0,0.0,
2025-08-15T09:31:20.855Z,10,GR86-028-89,2.9000000000000004,0.1,0.043,100.02,5.0,7036.0,0.0,0.0,
2025-08-15T09:31:20.898Z,10,GR86-028-89,2.9000000000000004,0.08,0.034,100.02,5.0,,0.0,0.0,207.6
2025-08-15T09:31:20.941Z,10,GR86-028-89,3.0,0.082,0.038,100.02,5.0,,0.0,0.0,
2025-08-15T09:31:20.986Z,10,GR86-028-89,3.1,0.072,0.049,99.98,5.0,,0.0,0.0,
2025-08-15T09:31:21.028Z,10,GR86-028-89,3.1,0.085,0.069,100.01,5.0,,0.0,0.0,
2025-08-15T09:31:21.071Z,10,GR86-028-89,3.9,0.063,0.084,99.99,5.0,7057.0,0.0,0.0,
2025-08-15T09:31:21.116Z,10,GR86-028-89,6.4,0.072,0.11,100.01,5.0,,0.0,0.0,208.72
2025-08-15T09:31:21.159Z,10,GR86-028-89,8.9,0.063,0.148,100.02,5.0,,0.0,0.0,
2025-08-15T09:31:21.202Z,10,GR86-028-89,11.7,0.081,0.155,100.0,5.0,,0.0,0.0,
2025-08-15T09:31:21.245Z,10,GR86-028-89,15.0,0.063,0.211,100.02,5.0,,0.0,0.0,
2025-08-15T09:31:21.288Z,10,GR86-028-89,17.900000000000002,0.08,0.294,100.0,5.0,7080.0,0.0,0.0,
2025-08-15T09:31:21.331Z,10,GR86-028-89,22.700000000000003,0.099,0.393,100.01,5.0,,0.0,0.0,209.34
2025-08-15T09:31:21.376Z,10,GR86-028-89,27.200000000000003,0.095,0.578,100.04,5.0,,0.0,0.0,
2025-08-15T09:31:21.418Z,10,GR86-028-89,25.9,0.074,0.659,100.0,5.0,,0.0,0.0,
2025-08-15T09:31:21.461Z,10,GR86-028-89,20.700000000000003,0.075,0.746,99.99,5.0,,0.0,0.0,
2025-08-15T09:31:21.505Z,10,GR86-028-89,14.8,0.084,0.806,99.98,5.0,7111.0,0.0,0.0,
2025-08-15T09:31:21.548Z,10,GR86-028-89,7.7,0.082,0.763,99.99,5.0,,0.0,0.0,209.8
2025-08-15T09:31:21.591Z,10,GR86-028-89,1.6,0.081,0.717,99.99,5.0,,0.0,0.0,
2025-08-15T09:31:21.636Z,10,GR86-028-89,-2.7,0.09,0.611,99.99,5.0,,0.0,0.0,
2025-08-15T09:31:21.678Z,10,GR86-028-89,-2.2,0.08,0.468,99.96,5.0,,0.0,0.0,
2025-08-15T09:31:21.721Z,10,GR86-028-89,0.2,0.093,0.365,99.99,5.0,7146.0,0.0,0.0,
2025-08-15T09:31:21.765Z,10,GR86-028-89,1.2000000000000002,0.093,0.193,100.02,5.0,,0.0,0.0,210.32
2025-08-15T09:31:21.808Z,10,GR86-028-89,0.5,0.083,0.047,100.02,5.0,,0.0,0.0,
2025-08-15T09:31:21.851Z,10,GR86-028-89,-1.6,0.071,-0.077,100.0,5.0,,0.0,0.0,
2025-08-15T09:31:21.895Z,10,GR86-028-89,-3.3000000000000003,0.078,-0.173,100.02,5.0,,0.0,0.0,
2025-08-15T09:31:21.938Z,10,GR86-028-89,-2.8000000000000003,0.062,-0.192,99.98,5.0,7151.0,0.0,0.0,
2025-08-15T09:31:21.981Z,10,GR86-028-89,-1.7000000000000002,0.045,-0.219,100.0,5.0,,0.0,0.0,210.84
2025-08-15T09:31:22.027Z,10,GR86-028-89,-1.0,0.012,-0.212,99.97,5.0,,0.0,0.0,
2025-08-15T09:31:22.069Z,10,GR86-028-89,-0.9,0.051,-0.178,99.98,5.0,,0.0,0.0,
2025-08-15T09:31:22.112Z,10,GR86-028-89,-0.8,0.044,-0.158,99.98,5.0,,0.0,0.0,
2025-08-15T09:31:22.155Z,10,GR86-028-89,-0.1,0.027,-0.117,99.99,5.0,7165.0,0.0,0.0,
2025-08-15T09:31:22.198Z,10,GR86-028-89,-0.1,0.041,-0.086,99.97,5.0,,0.0,0.0,211.38
2025-08-15T09:31:22.241Z,10,GR86-028-89,-0.7000000000000001,0.053,-0.059,100.01,5.0,,0.0,0.0,
2025-08-15T09:31:22.285Z,10,GR86-028-89,-1.1,0.056,-0.065,100.03,5.0,,0.0,0.0,
2025-08-15T09:31:22.327Z,10,GR86-028-89,-0.8,0.038,-0.068,100.01,5.0,,0.0,0.0,
2025-08-15T09:31:22.370Z,10,GR86-028-89,0.5,0.04,-0.065,100.02,5.0,7178.0,0.0,0.0,
2025-08-15T09:31:22.416Z,10,GR86-028-89,2.5,0.064,-0.046,100.01,5.0,,0.0,0.0,211.86
2025-08-15T09:31:22.459Z,10,GR86-028-89,2.9000000000000004,0.035,-0.032,100.01,5.0,,0.0,0.0,
2025-08-15T09:31:22.502Z,10,GR86-028-89,2.8000000000000003,0.041,-0.001,99.98,5.0,,0.0,0.0,
2025-08-15T09:31:22.545Z,10,GR86-028-89,2.2,0.024,-0.002,99.99,5.0,,0.0,0.0,
2025-08-15T09:31:22.588Z,10,GR86-028-89,0.9,0.06,0.0,100.03,5.0,7193.0,0.0,0.0,
2025-08-15T09:31:22.631Z,10,GR86-028-89,-0.4,0.052,-0.031,100.01,5.0,,0.0,0.0,212.31
2025-08-15T09:31:22.675Z,10,GR86-028-89,-2.0,0.039,-0.008,100.02,5.0,,0.0,0.0,
2025-08-15T09:31:22.718Z,10,GR86-028-89,-3.5,0.057,-0.039,100.0,5.0,,0.0,0.0,
2025-08-15T09:31:22.761Z,10,GR86-028-89,-4.1000000000000005,0.054,-0.068,100.0,5.0,,0.0,0.0,
2025-08-15T09:31:22.805Z,10,GR86-028-89,-3.2,0.026,-0.107,94.34,5.0,7209.0,0.0,0.0,
2025-08-15T09:31:22.847Z,10,GR86-028-89,-2.2,0.034,-0.135,25.92,5.0,,0.0,0.0,212.7
2025-08-15T09:31:22.890Z,10,GR86-028-89,-2.5,0.031,-0.149,2.92,5.0,,0.0,0.0,
2025-08-15T09:31:22.936Z,10,GR86-028-89,-3.7,-0.192,-0.176,2.62,5.0,,0.0,0.0,
2025-08-15T09:31:22.978Z,10,GR86-028-89,-3.9,-0.185,-0.158,2.58,5.0,,5.965,6.365,
2025-08-15T09:31:23.021Z,10,GR86-028-89,-4.0,-0.413,-0.215,2.5500000000000003,5.0,7219.0,21.15,21.56,
2025-08-15T09:31:23.065Z,10,GR86-028-89,-4.1000000000000005,-0.39,-0.202,2.52,5.0,,24.235,24.49,213.07
2025-08-15T09:31:23.108Z,10,GR86-028-89,-3.8,-0.492,-0.195,2.5,5.0,,25.635,25.835,
2025-08-15T09:31:23.151Z,10,GR86-028-89,-3.4000000000000004,-0.522,-0.252,2.49,5.0,,26.78,27.025,
2025-08-15T09:31:23.195Z,10,GR86-028-89,-3.3000000000000003,-0.658,-0.202,2.49,5.0,,28.275,28.34,
2025-08-15T09:31:23.238Z,10,GR86-028-89,-2.7,-0.668,-0.25,2.49,5.0,7074.0,29.865,29.835,
2025-08-15T09:31:23.281Z,10,GR86-028-89,-1.0,-0.678,-0.257,2.48,5.0,,31.865,31.895,212.84
2025-08-15T09:31:23.327Z,10,GR86-028-89,1.0,-0.731,-0.215,2.48,5.0,,33.875,33.8,
2025-08-15T09:31:23.369Z,10,GR86-028-89,1.2000000000000002,-0.771,-0.181,2.48,5.0,,35.265,35.31,
2025-08-15T09:31:23.412Z,10,GR86-028-89,0.0,-0.777,-0.106,2.49,5.0,,35.985,36.09,
2025-08-15T09:31:23.458Z,10,GR86-028-89,-1.3,-0.764,-0.066,2.49,5.0,6861.0,35.985,36.21,
2025-08-15T09:31:23.501Z,10,GR86-028-89,-3.4000000000000004,-0.759,-0.039,2.48,5.0,,35.985,36.275,208.79
2025-08-15T09:31:23.545Z,10,GR86-028-89,-5.7,-0.758,-0.037,2.47,5.0,,37.495,37.45,
2025-08-15T09:31:23.587Z,10,GR86-028-89,-6.300000000000001,-0.835,-0.047,2.47,5.0,,48.620000000000005,48.36,
2025-08-15T09:31:23.631Z,10,GR86-028-89,-6.4,-1.083,-0.028,2.49,5.0,,67.69500000000001,67.295,
2025-08-15T09:31:23.675Z,10,GR86-028-89,-5.7,-1.43,-0.049,2.49,5.0,6676.0,91.97,93.24,
2025-08-15T09:31:23.718Z,10,GR86-028-89,-5.0,-1.414,-0.031,22.32,5.0,,100.0,101.42,197.22
2025-08-15T09:31:23.761Z,10,GR86-028-89,-4.4,-1.431,-0.073,69.21000000000001,5.0,,100.275,101.585,
2025-08-15T09:31:23.805Z,10,GR86-028-89,-3.9,-1.369,-0.071,94.81,4.0,,98.305,100.61,
2025-08-15T09:31:23.847Z,10,GR86-028-89,-4.3,-1.381,-0.153,31.29,4.0,,95.545,97.375,
2025-08-15T09:31:23.890Z,10,GR86-028-89,-5.2,-1.518,-0.142,3.5500000000000003,4.0,6271.0,95.955,98.245,
2025-08-15T09:31:23.935Z,10,GR86-028-89,-4.7,-1.469,-0.29,2.73,4.0,,98.425,99.74,185.17
2025-08-15T09:31:23.977Z,10,GR86-028-89,-4.1000000000000005,-1.29,-0.282,2.65,4.0,,97.1,97.845,
2025-08-15T09:31:24.020Z,10,GR86-028-89,-3.5,-1.221,-0.188,2.62,4.0,,99.955,101.71,
2025-08-15T09:31:24.065Z,10,GR86-028-89,-3.4000000000000004,-1.189,-0.471,2.59,4.0,,100.52,102.075,
2025-08-15T09:31:24.108Z,10,GR86-028-89,-2.7,-1.225,-0.409,2.58,4.0,6623.0,98.365,98.685,
2025-08-15T09:31:24.151Z,10,GR86-028-89,-0.7000000000000001,-1.307,-0.282,2.56,4.0,,99.585,101.235,177.06
2025-08-15T09:31:24.195Z,10,GR86-028-89,4.4,-1.204,-0.441,2.5500000000000003,4.0,,98.565,99.89,
2025-08-15T09:31:24.238Z,10,GR86-028-89,9.3,-1.232,-0.285,2.5500000000000003,4.0,,98.215,98.99,
2025-08-15T09:31:24.281Z,10,GR86-028-89,8.4,-1.334,-0.217,2.53,4.0,,100.99,102.975,
2025-08-15T09:31:24.326Z,10,GR86-028-89,4.800000000000001,-1.161,-0.121,2.53,4.0,6242.0,100.09,101.985,
2025-08-15T09:31:24.369Z,10,GR86-028-89,2.6,-1.18,-0.098,2.53,4.0,,98.595,99.74,168.08
2025-08-15T09:31:24.412Z,10,GR86-028-89,-0.3,-1.301,-0.091,4.17,4.0,,95.51,97.25,
2025-08-15T09:31:24.458Z,10,GR86-028-89,-7.300000000000001,-1.257,-0.052,58.1,3.0,,82.86,84.325,
2025-08-15T09:31:24.501Z,10,GR86-028-89,-8.0,-1.264,-0.097,6.84,3.0,,66.015,68.06,
2025-08-15T09:31:24.545Z,10,GR86-028-89,-6.300000000000001,-1.095,-0.013,4.28,3.0,5969.0,56.875,58.705,
2025-08-15T09:31:24.588Z,10,GR86-028-89,-3.5,-1.253,-0.178,3.74,3.0,,54.74,56.34,158.96
2025-08-15T09:31:24.631Z,10,GR86-028-89,-2.2,-1.286,-0.109,3.41,3.0,,48.48,49.275,
2025-08-15T09:31:24.676Z,10,GR86-028-89,-2.5,-0.98,-0.108,3.0700000000000003,3.0,,37.02,38.075,
2025-08-15T09:31:24.719Z,10,GR86-028-89,-2.5,-0.645,-0.277,2.93,3.0,,27.15,27.865,
2025-08-15T09:31:24.762Z,10,GR86-028-89,-4.0,-0.8250000000000001,-0.138,2.84,3.0,6677.0,22.43,23.15,
2025-08-15T09:31:24.805Z,10,GR86-028-89,-7.5,-0.753,-0.24,2.77,3.0,,22.735,23.18,153.88
2025-08-15T09:31:24.848Z,10,GR86-028-89,-11.8,-0.6920000000000001,-0.291,2.72,3.0,,24.11,24.585,
2025-08-15T09:31:24.936Z,10,GR86-028-89,-25.6,-0.797,-0.413,2.62,3.0,,31.205,31.68,
2025-08-15T09:31:24.978Z,10,GR86-028-89,-31.4,-0.864,-0.428,2.59,3.0,6688.0,35.405,35.86,
2025-08-15T09:31:25.021Z,10,GR86-028-89,-35.300000000000004,-0.853,-0.549,2.58,3.0,,36.87,37.45,149.02
2025-08-15T09:31:25.065Z,10,GR86-028-89,-35.800000000000004,-0.866,-0.6930000000000001,2.56,3.0,,39.095,40.3,
2025-08-15T09:31:25.108Z,10,GR86-028-89,-32.5,-0.942,-0.713,2.5500000000000003,3.0,,40.865,41.995,
2025-08-15T09:31:25.151Z,10,GR86-028-89,-27.9,-0.87,-0.76,2.56,3.0,,39.19,39.965,
2025-08-15T09:31:25.195Z,10,GR86-028-89,-25.3,-0.858,-0.728,2.53,3.0,6287.0,36.21,37.08,
2025-08-15T09:31:25.238Z,10,GR86-028-89,-28.0,-0.765,-0.915,2.5500000000000003,3.0,,35.31,36.455,143.78
2025-08-15T09:31:25.281Z,10,GR86-028-89,-29.5,-0.767,-0.965,2.53,3.0,,29.68,30.215,
2025-08-15T09:31:25.326Z,10,GR86-028-89,-27.5,-0.655,-0.867,2.52,3.0,,27.435,28.275,
2025-08-15T09:31:25.369Z,10,GR86-028-89,-21.5,-0.658,-0.943,2.53,3.0,,27.97,28.78,
2025-08-15T09:31:25.412Z,10,GR86-028-89,-11.9,-0.676,-1.033,2.52,3.0,6083.0,27.53,28.37,
2025-08-15T09:31:25.458Z,10,GR86-028-89,-8.9,-0.725,-0.913,2.52,3.0,,22.585,23.24,139.27
2025-08-15T09:31:25.501Z,10,GR86-028-89,-15.8,-0.667,-1.0,2.52,3.0,,19.075,19.825,
2025-08-15T09:31:25.545Z,10,GR86-028-89,-21.9,-0.5690000000000001,-1.081,2.52,3.0,,17.78,18.435,
2025-08-15T09:31:25.587Z,10,GR86-028-89,-25.8,-0.562,-1.073,2.52,3.0,,15.215,16.145,
2025-08-15T09:31:25.630Z,10,GR86-028-89,-26.4,-0.486,-1.086,2.49,3.0,5907.0,9.66,10.315,
2025-08-15T09:31:25.675Z,10,GR86-028-89,-22.9,-0.395,-1.139,2.5,3.0,,2.76,3.34,134.35
2025-08-15T09:31:25.718Z,10,GR86-028-89,-19.8,-0.296,-1.163,2.49,3.0,,0.0,0.0,
2025-08-15T09:31:25.761Z,10,GR86-028-89,-16.3,-0.251,-1.215,2.5,3.0,,0.0,0.0,
2025-08-15T09:31:25.805Z,10,GR86-028-89,-15.9,-0.198,-1.134,2.49,3.0,,0.0,0.0,
2025-08-15T09:31:25.847Z,10,GR86-028-89,-19.200000000000003,-0.178,-1.141,2.5,3.0,5717.0,0.0,0.0,
2025-08-15T09:31:25.890Z,10,GR86-028-89,-24.9,-0.182,-1.166,3.26,3.0,,0.0,0.0,130.7
2025-08-15T09:31:25.936Z,10,GR86-028-89,-42.3,-0.186,-1.202,24.04,3.0,,0.0,0.0,
2025-08-15T09:31:25.978Z,10,GR86-028-89,-57.2,-0.206,-1.216,25.83,3.0,,0.0,0.0,
2025-08-15T09:31:26.021Z,10,GR86-028-89,-69.7,-0.178,-1.232,30.22,3.0,,0.0,0.0,
2025-08-15T09:31:26.065Z,10,GR86-028-89,-76.9,-0.149,-1.225,35.29,3.0,5761.0,0.0,0.0,
2025-08-15T09:31:26.151Z,10,GR86-028-89,-82.9,0.059,-1.21,37.02,3.0,,0.0,0.0,128.8
2025-08-15T09:31:26.195Z,10,GR86-028-89,-82.60000000000001,0.065,-1.251,40.05,3.0,,0.0,0.0,
2025-08-15T09:31:26.238Z,10,GR86-028-89,-78.2,0.07,-1.215,45.62,3.0,,0.0,0.0,
2025-08-15T09:31:26.281Z,10,GR86-028-89,-69.60000000000001,0.046,-1.208,50.4,3.0,5970.0,0.0,0.0,
2025-08-15T09:31:26.326Z,10,GR86-028-89,-63.1,0.052,-1.177,54.35,3.0,,0.0,0.0,125.09
2025-08-15T09:31:26.369Z,10,GR86-028-89,-61.6,0.083,-1.193,54.99,3.0,,0.0,0.0,
2025-08-15T09:31:26.412Z,10,GR86-028-89,-64.4,0.089,-1.228,57.76,3.0,,0.0,0.0,
2025-08-15T09:31:26.455Z,10,GR86-028-89,-67.8,0.102,-1.257,70.34,3.0,,0.0,0.0,
2025-08-15T09:31:26.498Z,10,GR86-028-89,-64.8,0.101,-1.174,73.54,3.0,5937.0,0.0,0.0,
2025-08-15T09:31:26.541Z,10,GR86-028-89,-56.6,0.124,-1.204,73.7,3.0,,0.0,0.0,126.78
2025-08-15T09:31:26.586Z,10,GR86-028-89,-46.6,0.13,-1.214,71.71000000000001,3.0,,0.0,0.0,
2025-08-15T09:31:26.628Z,10,GR86-028-89,-39.1,0.147,-1.156,70.68,3.0,,0.0,0.0,
2025-08-15T09:31:26.671Z,10,GR86-028-89,-35.300000000000004,0.141,-1.124,69.4,3.0,,0.0,0.0,
2025-08-15T09:31:26.716Z,10,GR86-028-89,-35.5,0.147,-1.113,66.87,3.0,6048.0,0.0,0.0,
2025-08-15T09:31:26.758Z,10,GR86-028-89,-37.8,0.14,-1.122,66.29,3.0,,0.0,0.0,127.71
2025-08-15T09:31:26.845Z,10,GR86-028-89,-39.0,0.107,-1.17,65.31,3.0,,0.0,0.0,
2025-08-15T09:31:26.887Z,10,GR86-028-89,-43.6,0.104,-1.164,65.14,3.0,,0.0,0.0,
2025-08-15T09:31:26.931Z,10,GR86-028-89,-49.1,0.105,-1.115,65.34,3.0,6086.0,0.0,0.0,
2025-08-15T09:31:26.975Z,10,GR86-028-89,-57.900000000000006,0.144,-1.156,67.32000000000001,3.0,,0.0,0.0,127.84
2025-08-15T09:31:27.018Z,10,GR86-028-89,-62.0,0.148,-1.08,69.22,3.0,,0.0,0.0,
2025-08-15T09:31:27.061Z,10,GR86-028-89,-63.5,0.13,-1.058,70.16,3.0,,0.0,0.0,
2025-08-15T09:31:27.105Z,10,GR86-028-89,-62.8,0.107,-1.121,70.75,3.0,,0.0,0.0,
2025-08-15T09:31:27.147Z,10,GR86-028-89,-61.900000000000006,0.094,-1.18,72.11,3.0,6105.0,0.0,0.0,
2025-08-15T09:31:27.190Z,10,GR86-028-89,-62.400000000000006,0.131,-1.102,71.94,3.0,,0.0,0.0,128.58
2025-08-15T09:31:27.235Z,10,GR86-028-89,-63.8,0.134,-1.206,65.78,3.0,,0.0,0.0,
2025-08-15T09:31:27.278Z,10,GR86-028-89,-64.2,0.127,-1.157,65.58,3.0,,0.0,0.0,
2025-08-15T09:31:27.321Z,10,GR86-028-89,-64.9,0.093,-1.207,66.0,3.0,,0.0,0.0,
2025-08-15T09:31:27.365Z,10,GR86-028-89,-64.4,0.089,-1.218,65.64,3.0,6155.0,0.0,0.0,
2025-08-15T09:31:27.408Z,10,GR86-028-89,-62.1,0.129,-1.18,66.73,3.0,,0.0,0.0,129.51
2025-08-15T09:31:27.451Z,10,GR86-028-89,-60.8,0.096,-1.211,67.68,3.0,,0.0,0.0,
2025-08-15T09:31:27.495Z,10,GR86-028-89,-59.5,0.098,-1.209,68.9,3.0,,0.0,0.0,
2025-08-15T09:31:27.538Z,10,GR86-028-89,-58.3,0.084,-1.223,69.21000000000001,3.0,,0.0,0.0,
2025-08-15T09:31:27.581Z,10,GR86-028-89,-56.8,0.106,-1.269,69.06,3.0,6208.0,0.0,0.0,
2025-08-15T09:31:27.626Z,10,GR86-028-89,-55.3,0.112,-1.286,70.87,3.0,,0.0,0.0,131.44
2025-08-15T09:31:27.669Z,10,GR86-028-89,-52.6,0.084,-1.338,71.96000000000001,3.0,,0.0,0.0,
2025-08-15T09:31:27.712Z,10,GR86-028-89,-47.400000000000006,0.104,-1.321,73.10000000000001,3.0,,0.0,0.0,
2025-08-15T09:31:27.758Z,10,GR86-028-89,-39.8,0.102,-1.267,74.37,3.0,,0.0,0.0,
2025-08-15T09:31:27.801Z,10,GR86-028-89,-35.9,0.127,-1.268,74.68,3.0,6275.0,0.0,0.0,
2025-08-15T09:31:27.845Z,10,GR86-028-89,-33.2,0.141,-1.225,74.67,3.0,,0.0,0.0,132.34
2025-08-15T09:31:27.888Z,10,GR86-028-89,-32.1,0.128,-1.189,74.53,3.0,,0.0,0.0,
2025-08-15T09:31:27.931Z,10,GR86-028-89,-32.0,0.123,-1.148,75.06,3.0,,0.0,0.0,
2025-08-15T09:31:27.976Z,10,GR86-028-89,-31.6,0.1,-1.226,79.37,3.0,,0.0,0.0,
2025-08-15T09:31:28.018Z,10,GR86-028-89,-31.5,0.161,-1.261,92.84,3.0,6303.0,0.0,0.0,
2025-08-15T09:31:28.061Z,10,GR86-028-89,-32.5,0.162,-1.264,97.28,3.0,,0.0,0.0,133.18
2025-08-15T09:31:28.105Z,10,GR86-028-89,-33.2,0.123,-1.234,99.96,3.0,,0.0,0.0,
2025-08-15T09:31:28.191Z,10,GR86-028-89,-33.2,0.125,-1.221,100.06,3.0,,0.0,0.0,
2025-08-15T09:31:28.236Z,10,GR86-028-89,-37.7,0.169,-1.217,100.08,3.0,6334.0,0.0,0.0,
2025-08-15T09:31:28.278Z,10,GR86-028-89,-40.5,0.137,-1.211,100.09,3.0,,0.0,0.0,133.38
2025-08-15T09:31:28.321Z,10,GR86-028-89,-41.400000000000006,0.102,-1.209,100.07,3.0,,0.0,0.0,
2025-08-15T09:31:28.365Z,10,GR86-028-89,-40.3,0.126,-1.193,100.06,3.0,,0.0,0.0,
2025-08-15T09:31:28.408Z,10,GR86-028-89,-39.1,0.156,-1.171,100.07,3.0,,0.0,0.0,
2025-08-15T09:31:28.451Z,10,GR86-028-89,-38.8,0.14,-1.135,100.08,3.0,6344.0,0.0,0.0,
2025-08-15T09:31:28.495Z,10,GR86-028-89,-37.9,0.135,-1.08,100.05,3.0,,0.0,0.0,133.51
2025-08-15T09:31:28.538Z,10,GR86-028-89,-36.3,0.102,-1.049,100.07,3.0,,0.0,0.0,
2025-08-15T09:31:28.581Z,10,GR86-028-89,-35.0,0.127,-1.052,100.05,3.0,,0.0,0.0,
2025-08-15T09:31:28.626Z,10,GR86-028-89,-34.1,0.161,-1.007,100.08,3.0,,0.0,0.0,
2025-08-15T09:31:28.669Z,10,GR86-028-89,-32.9,0.148,-0.976,100.06,3.0,6359.0,0.0,0.0,
2025-08-15T09:31:28.712Z,10,GR86-028-89,-31.200000000000003,0.121,-0.872,100.05,3.0,,0.0,0.0,134.39
2025-08-15T09:31:28.758Z,10,GR86-028-89,-30.4,0.138,-0.592,100.07,3.0,,0.0,0.0,
2025-08-15T09:31:28.801Z,10,GR86-028-89,-30.8,0.088,-0.711,100.05,3.0,,0.0,0.0,
2025-08-15T09:31:28.845Z,10,GR86-028-89,-32.4,0.229,-0.673,100.05,3.0,,0.0,0.0,
2025-08-15T09:31:28.887Z,10,GR86-028-89,-34.1,0.204,-0.659,100.06,3.0,6402.0,0.0,0.0,
2025-08-15T09:31:28.930Z,10,GR86-028-89,-34.4,0.071,-0.5630000000000001,100.05,3.0,,0.0,0.0,136.4
2025-08-15T09:31:28.975Z,10,GR86-028-89,-32.2,0.217,-0.661,100.05,3.0,,0.0,0.0,
2025-08-15T09:31:29.018Z,10,GR86-028-89,-29.6,0.077,-0.551,100.03,3.0,,0.0,0.0,
2025-08-15T09:31:29.061Z,10,GR86-028-89,-28.3,-0.013,-0.734,100.06,3.0,,0.0,0.0,
2025-08-15T09:31:29.105Z,10,GR86-028-89,-28.0,0.025,-0.938,100.07,3.0,6488.0,0.0,0.0,
2025-08-15T09:31:29.147Z,10,GR86-028-89,-27.1,0.169,-0.949,100.07,3.0,,0.0,0.0,137.48
2025-08-15T09:31:29.190Z,10,GR86-028-89,-25.5,0.197,-1.141,100.04,3.0,,0.0,0.0,
2025-08-15T09:31:29.236Z,10,GR86-028-89,-24.4,0.196,-1.208,100.07,3.0,,0.0,0.0,
2025-08-15T09:31:29.278Z,10,GR86-028-89,-23.4,0.177,-1.077,100.04,3.0,,0.0,0.0,
2025-08-15T09:31:29.321Z,10,GR86-028-89,-23.200000000000003,0.107,-1.006,100.04,3.0,6545.0,0.0,0.0,
2025-08-15T09:31:29.365Z,10,GR86-028-89,-24.200000000000003,0.114,-0.908,100.02,3.0,,0.0,0.0,138.5
2025-08-15T09:31:29.408Z,10,GR86-028-89,-25.700000000000003,0.088,-0.8290000000000001,100.06,3.0,,0.0,0.0,
2025-08-15T09:31:29.451Z,10,GR86-028-89,-26.3,0.105,-0.873,100.04,3.0,,0.0,0.0,
2025-08-15T09:31:29.495Z,10,GR86-028-89,-25.8,0.157,-0.807,100.04,3.0,,0.0,0.0,
2025-08-15T09:31:29.538Z,10,GR86-028-89,-26.6,0.192,-0.715,100.04,3.0,6619.0,0.0,0.0,
2025-08-15T09:31:29.581Z,10,GR86-028-89,-26.8,0.132,-0.784,100.03,3.0,,0.0,0.0,138.79
2025-08-15T09:31:29.627Z,10,GR86-028-89,-26.6,0.1,-0.863,100.02,3.0,,0.0,0.0,
2025-08-15T09:31:29.669Z,10,GR86-028-89,-27.4,0.152,-0.812,100.06,3.0,,0.0,0.0,
2025-08-15T09:31:29.712Z,10,GR86-028-89,-28.9,0.147,-0.765,100.03,3.0,,0.0,0.0,
2025-08-15T09:31:29.758Z,10,GR86-028-89,-28.9,0.133,-0.752,100.02,3.0,6626.0,0.0,0.0,
2025-08-15T09:31:29.801Z,10,GR86-028-89,-27.0,0.146,-0.6940000000000001,100.05,3.0,,0.0,0.0,140.52
2025-08-15T09:31:29.845Z,10,GR86-028-89,-26.3,0.122,-0.736,100.05,3.0,,0.0,0.0,
2025-08-15T09:31:29.887Z,10,GR86-028-89,-26.6,0.195,-0.623,100.02,3.0,,0.0,0.0,
2025-08-15T09:31:29.975Z,10,GR86-028-89,-23.1,0.126,-0.633,100.03,3.0,6668.0,0.0,0.0,
2025-08-15T09:31:30.018Z,10,GR86-028-89,-25.9,0.11,-0.675,100.03,3.0,,0.0,0.0,141.68
2025-08-15T09:31:30.061Z,10,GR86-028-89,-21.1,0.13,-0.683,100.03,3.0,,0.0,0.0,
2025-08-15T09:31:30.105Z,10,GR86-028-89,-19.6,0.164,-0.653,100.02,3.0,,0.0,0.0,
2025-08-15T09:31:30.147Z,10,GR86-028-89,-18.0,0.163,-0.752,100.06,3.0,,0.0,0.0,
2025-08-15T09:31:30.190Z,10,GR86-028-89,-16.3,0.186,-0.725,100.05,3.0,6730.0,0.0,0.0,
2025-08-15T09:31:30.235Z,10,GR86-028-89,-16.0,0.151,-0.543,100.03,3.0,,0.0,0.0,142.86
2025-08-15T09:31:30.278Z,10,GR86-028-89,-15.9,0.099,-0.709,100.02,3.0,,0.0,0.0,
2025-08-15T09:31:30.321Z,10,GR86-028-89,-15.4,0.166,-0.498,99.99,3.0,,0.0,0.0,
2025-08-15T09:31:30.365Z,10,GR86-028-89,-15.6,0.186,-0.402,100.02,3.0,,0.0,0.0,
2025-08-15T09:31:30.408Z,10,GR86-028-89,-15.7,0.222,-0.476,100.04,3.0,6776.0,0.0,0.0,
2025-08-15T09:31:30.451Z,10,GR86-028-89,-15.6,0.139,-0.208,100.05,3.0,,0.0,0.0,144.14
2025-08-15T09:31:30.495Z,10,GR86-028-89,-12.7,0.04,-0.325,100.03,3.0,,0.0,0.0,
2025-08-15T09:31:30.538Z,10,GR86-028-89,-9.6,0.186,-0.307,100.0,3.0,,0.0,0.0,
2025-08-15T09:31:30.581Z,10,GR86-028-89,-7.5,0.262,-0.411,99.99,3.0,,0.0,0.0,
2025-08-15T09:31:30.626Z,10,GR86-028-89,-5.9,0.342,-0.426,100.02,3.0,6884.0,0.0,0.0,
2025-08-15T09:31:30.669Z,10,GR86-028-89,-5.0,0.214,-0.439,100.04,3.0,,0.0,0.0,144.92000000000002
2025-08-15T09:31:30.712Z,10,GR86-028-89,-4.1000000000000005,0.076,-0.423,100.05,3.0,,0.0,0.0,
2025-08-15T09:31:30.755Z,10,GR86-028-89,-1.2000000000000002,0.036,-0.34,100.02,3.0,,0.0,0.0,
2025-08-15T09:31:30.798Z,10,GR86-028-89,2.1,0.297,-0.038,100.0,3.0,,0.0,0.0,
2025-08-15T09:31:30.841Z,10,GR86-028-89,3.3000000000000003,0.185,-0.252,100.01,3.0,6867.0,0.0,0.0,
2025-08-15T09:31:30.886Z,10,GR86-028-89,3.6,0.107,-0.107,100.01,3.0,,0.0,0.0,146.61
2025-08-15T09:31:30.928Z,10,GR86-028-89,2.9000000000000004,0.065,0.074,99.98,3.0,,0.0,0.0,
2025-08-15T09:31:30.971Z,10,GR86-028-89,3.0,0.075,-0.012,100.04,3.0,,0.0,0.0,
2025-08-15T09:31:31.016Z,10,GR86-028-89,4.7,0.17,0.108,99.98,3.0,,0.0,0.0,
2025-08-15T09:31:31.059Z,10,GR86-028-89,6.4,0.328,0.141,100.01,3.0,6989.0,0.0,0.0,
2025-08-15T09:31:31.102Z,10,GR86-028-89,7.4,0.296,0.128,100.02,3.0,,0.0,0.0,148.33
2025-08-15T09:31:31.145Z,10,GR86-028-89,7.2,0.077,0.172,100.0,3.0,,0.0,0.0,
2025-08-15T09:31:31.188Z,10,GR86-028-89,6.7,-0.007,0.31,100.04,3.0,,0.0,0.0,
2025-08-15T09:31:31.231Z,10,GR86-028-89,7.7,0.125,0.298,100.02,3.0,,0.0,0.0,
2025-08-15T09:31:31.276Z,10,GR86-028-89,12.1,0.473,0.256,100.03,3.0,6966.0,0.0,0.0,
2025-08-15T09:31:31.319Z,10,GR86-028-89,13.1,0.352,0.314,100.03,3.0,,0.0,0.0,150.42000000000002
2025-08-15T09:31:31.362Z,10,GR86-028-89,12.0,0.109,0.347,100.02,3.0,,0.0,0.0,
2025-08-15T09:31:31.405Z,10,GR86-028-89,11.6,0.133,0.441,100.0,3.0,,0.0,0.0,
2025-08-15T09:31:31.448Z,10,GR86-028-89,12.1,0.193,0.273,100.0,3.0,,0.0,0.0,
2025-08-15T09:31:31.491Z,10,GR86-028-89,12.3,0.196,0.329,99.98,3.0,7153.0,0.0,0.0,
2025-08-15T09:31:31.536Z,10,GR86-028-89,12.0,0.21,0.381,100.02,3.0,,0.0,0.0,152.34
2025-08-15T09:31:31.578Z,10,GR86-028-89,12.4,0.19,0.32,99.99,3.0,,0.0,0.0,
2025-08-15T09:31:31.621Z,10,GR86-028-89,12.3,0.194,0.336,99.99,3.0,,0.0,0.0,
2025-08-15T09:31:31.665Z,10,GR86-028-89,11.8,0.177,0.321,99.99,3.0,,0.0,0.0,
2025-08-15T09:31:31.708Z,10,GR86-028-89,11.2,0.167,0.302,99.99,3.0,7137.0,0.0,0.0,
2025-08-15T09:31:31.751Z,10,GR86-028-89,10.7,0.187,0.349,99.98,3.0,,0.0,0.0,153.78
2025-08-15T09:31:31.795Z,10,GR86-028-89,10.2,0.167,0.291,100.01,3.0,,0.0,0.0,
2025-08-15T09:31:31.838Z,10,GR86-028-89,9.8,0.171,0.322,99.96,3.0,,0.0,0.0,
2025-08-15T09:31:31.881Z,10,GR86-028-89,9.7,0.187,0.354,99.98,3.0,,0.0,0.0,
2025-08-15T09:31:31.926Z,10,GR86-028-89,9.6,0.193,0.328,100.02,3.0,7287.0,0.0,0.0,
2025-08-15T09:31:31.969Z,10,GR86-028-89,9.4,0.17,0.285,99.96,3.0,,0.0,0.0,155.24
2025-08-15T09:31:32.012Z,10,GR86-028-89,8.1,-0.066,0.282,99.96,4.0,,0.0,0.0,
2025-08-15T09:31:32.055Z,10,GR86-028-89,6.6000000000000005,0.477,0.282,99.99,4.0,,0.0,0.0,
2025-08-15T09:31:32.098Z,10,GR86-028-89,6.7,0.339,0.187,99.97,4.0,,0.0,0.0,
2025-08-15T09:31:32.141Z,10,GR86-028-89,6.4,0.15,0.243,99.96,4.0,6323.0,0.0,0.0,
2025-08-15T09:31:32.185Z,10,GR86-028-89,5.800000000000001,0.01,0.24,100.0,4.0,,0.0,0.0,156.64
2025-08-15T09:31:32.227Z,10,GR86-028-89,5.6000000000000005,0.121,0.106,99.97,4.0,,0.0,0.0,
2025-08-15T09:31:32.270Z,10,GR86-028-89,5.7,0.216,0.191,99.97,4.0,,0.0,0.0,
2025-08-15T09:31:32.316Z,10,GR86-028-89,5.7,0.135,0.126,99.99,4.0,,0.0,0.0,
2025-08-15T09:31:32.359Z,10,GR86-028-89,5.9,0.116,0.095,99.99,4.0,6232.0,0.0,0.0,
2025-08-15T09:31:32.402Z,10,GR86-028-89,6.1000000000000005,0.132,0.144,99.99,4.0,,0.0,0.0,158.31
2025-08-15T09:31:32.445Z,10,GR86-028-89,5.800000000000001,0.157,0.106,100.02,4.0,,0.0,0.0,
2025-08-15T09:31:32.488Z,10,GR86-028-89,5.6000000000000005,0.131,0.114,100.01,4.0,,0.0,0.0,
2025-08-15T09:31:32.531Z,10,GR86-028-89,5.6000000000000005,0.16,0.152,100.02,4.0,,0.0,0.0,
2025-08-15T09:31:32.575Z,10,GR86-028-89,5.7,0.133,0.082,100.01,4.0,6293.0,0.0,0.0,
2025-08-15T09:31:32.618Z,10,GR86-028-89,5.9,0.132,0.13,100.01,4.0,,0.0,0.0,159.89
2025-08-15T09:31:32.661Z,10,GR86-028-89,6.1000000000000005,0.148,0.154,100.0,4.0,,0.0,0.0,
2025-08-15T09:31:32.705Z,10,GR86-028-89,6.4,0.157,0.125,100.02,4.0,,0.0,0.0,
2025-08-15T09:31:32.747Z,10,GR86-028-89,6.6000000000000005,0.146,0.151,99.99,4.0,,0.0,0.0,
2025-08-15T09:31:32.790Z,10,GR86-028-89,6.6000000000000005,0.154,0.132,100.04,4.0,6363.0,0.0,0.0,
2025-08-15T09:31:32.836Z,10,GR86-028-89,5.9,0.143,0.144,99.99,4.0,,0.0,0.0,161.42000000000002
2025-08-15T09:31:32.878Z,10,GR86-028-89,5.4,0.148,0.166,100.03,4.0,,0.0,0.0,
2025-08-15T09:31:32.921Z,10,GR86-028-89,5.1000000000000005,0.154,0.136,100.01,4.0,,0.0,0.0,
2025-08-15T09:31:32.965Z,10,GR86-028-89,5.0,0.145,0.145,99.99,4.0,,0.0,0.0,
2025-08-15T09:31:33.008Z,10,GR86-028-89,4.9,0.143,0.116,100.01,4.0,6408.0,0.0,0.0,
2025-08-15T09:31:33.051Z,10,GR86-028-89,4.3,0.144,0.091,100.0,4.0,,0.0,0.0,162.94
2025-08-15T09:31:33.096Z,10,GR86-028-89,3.3000000000000003,0.13,0.132,99.99,4.0,,0.0,0.0,
2025-08-15T09:31:33.138Z,10,GR86-028-89,2.9000000000000004,0.138,0.12,100.02,4.0,,0.0,0.0,
2025-08-15T09:31:33.181Z,10,GR86-028-89,2.6,0.145,0.084,100.0,4.0,,0.0,0.0,
2025-08-15T09:31:33.227Z,10,GR86-028-89,2.3000000000000003,0.15,0.056,100.02,4.0,6460.0,0.0,0.0,
2025-08-15T09:31:33.269Z,10,GR86-028-89,1.8,0.119,0.011,99.98,4.0,,0.0,0.0,164.38
2025-08-15T09:31:33.312Z,10,GR86-028-89,1.1,0.115,-0.016,100.0,4.0,,0.0,0.0,
2025-08-15T09:31:33.358Z,10,GR86-028-89,0.0,0.139,-0.001,100.0,4.0,,0.0,0.0,
2025-08-15T09:31:33.401Z,10,GR86-028-89,-0.6000000000000001,0.159,-0.032,100.0,4.0,,0.0,0.0,
2025-08-15T09:31:33.445Z,10,GR86-028-89,-1.0,0.126,-0.059,100.01,4.0,6523.0,0.0,0.0,
2025-08-15T09:31:33.487Z,10,GR86-028-89,-1.2000000000000002,0.131,-0.096,99.96,4.0,,0.0,0.0,165.96
2025-08-15T09:31:33.531Z,10,GR86-028-89,-1.3,0.123,-0.117,100.0,4.0,,0.0,0.0,
2025-08-15T09:31:33.575Z,10,GR86-028-89,-1.9,0.136,-0.097,100.0,4.0,,0.0,0.0,
2025-08-15T09:31:33.618Z,10,GR86-028-89,-2.3000000000000003,0.138,-0.118,99.98,4.0,,0.0,0.0,
2025-08-15T09:31:33.661Z,10,GR86-028-89,-2.6,0.126,-0.127,100.01,4.0,6578.0,0.0,0.0,
2025-08-15T09:31:33.705Z,10,GR86-028-89,-2.8000000000000003,0.143,-0.142,100.03,4.0,,0.0,0.0,167.43
2025-08-15T09:31:33.747Z,10,GR86-028-89,-3.7,0.122,-0.138,100.0,4.0,,0.0,0.0,
2025-08-15T09:31:33.790Z,10,GR86-028-89,-5.300000000000001,0.13,-0.158,100.0,4.0,,0.0,0.0,
2025-08-15T09:31:33.834Z,10,GR86-028-89,-8.1,0.134,-0.189,100.01,4.0,,0.0,0.0,
2025-08-15T09:31:33.878Z,10,GR86-028-89,-10.4,0.125,-0.225,100.02,4.0,6635.0,0.0,0.0,
2025-08-15T09:31:33.921Z,10,GR86-028-89,-12.7,0.131,-0.285,100.0,4.0,,0.0,0.0,170.31
2025-08-15T09:31:33.965Z,10,GR86-028-89,-13.8,0.111,-0.353,99.99,4.0,,0.0,0.0,
2025-08-15T09:31:34.008Z,10,GR86-028-89,-14.0,0.121,-0.402,100.03,4.0,,0.0,0.0,
2025-08-15T09:31:34.051Z,10,GR86-028-89,-14.2,0.118,-0.445,100.0,4.0,,0.0,0.0,
2025-08-15T09:31:34.096Z,10,GR86-028-89,-15.2,0.106,-0.473,100.0,4.0,6688.0,0.0,0.0,
2025-08-15T09:31:34.138Z,10,GR86-028-89,-16.0,0.098,-0.493,99.98,4.0,,0.0,0.0,171.63
2025-08-15T09:31:34.181Z,10,GR86-028-89,-16.1,0.108,-0.515,99.98,4.0,,0.0,0.0,
2025-08-15T09:31:34.227Z,10,GR86-028-89,-14.4,0.096,-0.521,99.99,4.0,,0.0,0.0,
2025-08-15T09:31:34.269Z,10,GR86-028-89,-12.2,0.12,-0.54,100.02,4.0,,0.0,0.0,
2025-08-15T09:31:34.312Z,10,GR86-028-89,-11.4,0.13,-0.548,100.01,4.0,6749.0,0.0,0.0,
2025-08-15T09:31:34.358Z,10,GR86-028-89,-11.4,0.097,-0.5710000000000001,99.99,4.0,,0.0,0.0,172.73
2025-08-15T09:31:34.401Z,10,GR86-028-89,-11.6,0.09,-0.561,100.01,4.0,,0.0,0.0,
2025-08-15T09:31:34.445Z,10,GR86-028-89,-12.7,0.082,-0.553,99.99,4.0,,0.0,0.0,
2025-08-15T09:31:34.488Z,10,GR86-028-89,-13.6,0.105,-0.537,99.99,4.0,,0.0,0.0,
2025-08-15T09:31:34.531Z,10,GR86-028-89,-13.6,0.093,-0.511,100.0,4.0,6844.0,0.0,0.0,
2025-08-15T09:31:34.576Z,10,GR86-028-89,-12.1,0.108,-0.508,99.99,4.0,,0.0,0.0,174.14
2025-08-15T09:31:34.618Z,10,GR86-028-89,-11.7,0.081,-0.477,100.0,4.0,,0.0,0.0,
2025-08-15T09:31:34.661Z,10,GR86-028-89,-11.6,0.101,-0.472,100.0,4.0,,0.0,0.0,
2025-08-15T09:31:34.705Z,10,GR86-028-89,-11.6,0.087,-0.436,99.99,4.0,,0.0,0.0,
2025-08-15T09:31:34.748Z,10,GR86-028-89,-11.0,0.087,-0.445,100.0,4.0,6894.0,0.0,0.0,
2025-08-15T09:31:34.791Z,10,GR86-028-89,-9.6,0.075,-0.457,100.01,4.0,,0.0,0.0,175.43
2025-08-15T09:31:34.836Z,10,GR86-028-89,-7.6,0.109,-0.447,99.99,4.0,,0.0,0.0,
2025-08-15T09:31:34.878Z,10,GR86-028-89,-6.9,0.108,-0.461,99.98,4.0,,0.0,0.0,
2025-08-15T09:31:34.921Z,10,GR86-028-89,-6.6000000000000005,0.118,-0.448,100.01,4.0,,0.0,0.0,
2025-08-15T09:31:34.965Z,10,GR86-028-89,-6.6000000000000005,0.126,-0.412,99.98,4.0,6939.0,0.0,0.0,
2025-08-15T09:31:35.008Z,10,GR86-028-89,-7.2,0.12,-0.394,99.98,4.0,,0.0,0.0,176.64
2025-08-15T09:31:35.051Z,10,GR86-028-89,-7.5,0.134,-0.365,100.0,4.0,,0.0,0.0,
2025-08-15T09:31:35.096Z,10,GR86-028-89,-7.0,0.093,-0.305,100.02,4.0,,0.0,0.0,
2025-08-15T09:31:35.138Z,10,GR86-028-89,-5.9,0.097,-0.261,99.75,4.0,,0.0,0.0,
2025-08-15T09:31:35.181Z,10,GR86-028-89,-3.2,0.109,-0.241,49.7,4.0,6976.0,0.0,0.0,
2025-08-15T09:31:35.227Z,10,GR86-028-89,-0.1,0.116,-0.222,4.16,4.0,,0.0,0.0,178.01
2025-08-15T09:31:35.269Z,10,GR86-028-89,1.4,0.088,-0.192,2.6,4.0,,0.0,0.0,
2025-08-15T09:31:35.312Z,10,GR86-028-89,1.3,-0.166,-0.129,2.46,4.0,,0.0,0.0,
2025-08-15T09:31:35.358Z,10,GR86-028-89,1.8,-0.367,-0.102,2.4,4.0,,29.53,29.865,
2025-08-15T09:31:35.401Z,10,GR86-028-89,3.2,-0.633,-0.045,2.39,4.0,6765.0,43.92,43.765,
2025-08-15T09:31:35.445Z,10,GR86-028-89,3.7,-0.87,0.044,2.4,4.0,,62.125,61.79,179.07
2025-08-15T09:31:35.487Z,10,GR86-028-89,3.0,-1.272,-0.02,2.41,4.0,,77.34,76.83500000000001,
2025-08-15T09:31:35.530Z,10,GR86-028-89,1.0,-1.302,0.053,2.42,4.0,,84.615,84.205,
2025-08-15T09:31:35.575Z,10,GR86-028-89,0.1,-1.464,0.043,2.43,4.0,,82.115,83.64,
2025-08-15T09:31:35.618Z,10,GR86-028-89,0.8,-1.405,0.049,2.43,4.0,6616.0,76.18,78.48,
2025-08-15T09:31:35.661Z,10,GR86-028-89,1.4,-1.349,0.05,2.42,4.0,,70.27,71.705,177.42000000000002
2025-08-15T09:31:35.705Z,10,GR86-028-89,1.2000000000000002,-1.354,0.066,2.43,4.0,,68.84,70.745,
2025-08-15T09:31:35.747Z,10,GR86-028-89,-0.4,-1.196,0.079,2.43,4.0,,67.02,67.295,
2025-08-15T09:31:35.790Z,10,GR86-028-89,-2.3000000000000003,-1.374,0.04,2.46,4.0,,65.895,66.52,
2025-08-15T09:31:35.836Z,10,GR86-028-89,-3.6,-1.336,0.041,2.46,4.0,6065.0,65.055,66.395,
2025-08-15T09:31:35.878Z,10,GR86-028-89,-4.1000000000000005,-1.213,0.014,2.46,4.0,,64.275,65.36,167.48
2025-08-15T09:31:35.921Z,10,GR86-028-89,-5.6000000000000005,-1.282,0.008,18.02,4.0,,64.64,65.77,
2025-08-15T09:31:35.965Z,10,GR86-028-89,-6.800000000000001,-1.292,-0.056,59.59,3.0,,65.055,66.015,
2025-08-15T09:31:36.008Z,10,GR86-028-89,-8.5,-1.277,-0.051,10.18,3.0,,65.71000000000001,66.33500000000001,
2025-08-15T09:31:36.051Z,10,GR86-028-89,-9.5,-1.314,-0.02,4.5600000000000005,3.0,5858.0,67.615,69.4,
2025-08-15T09:31:36.096Z,10,GR86-028-89,-8.200000000000001,-1.32,-0.218,3.87,3.0,,72.64,73.69,159.28
2025-08-15T09:31:36.138Z,10,GR86-028-89,-6.6000000000000005,-1.476,-0.1,3.43,3.0,,74.895,76.08500000000001,
2025-08-15T09:31:36.181Z,10,GR86-028-89,-3.9,-1.2,-0.13,3.18,3.0,,76.83500000000001,78.83500000000001,
2025-08-15T09:31:36.269Z,10,GR86-028-89,-2.3000000000000003,-1.078,-0.421,3.01,3.0,5826.0,72.575,73.265,
2025-08-15T09:31:36.312Z,10,GR86-028-89,-2.3000000000000003,-1.074,-0.274,2.77,3.0,,65.3,66.73,151.1
2025-08-15T09:31:36.358Z,10,GR86-028-89,-1.3,-0.989,-0.448,2.71,3.0,,64.215,64.93,
2025-08-15T09:31:36.401Z,10,GR86-028-89,0.5,-1.146,-0.319,2.68,3.0,,63.77,64.72,
2025-08-15T09:31:36.445Z,10,GR86-028-89,1.5,-1.058,-0.423,2.63,3.0,,64.245,65.985,
2025-08-15T09:31:36.487Z,10,GR86-028-89,0.1,-1.152,-0.446,37.11,3.0,6116.0,64.78,65.83,
2025-08-15T09:31:36.531Z,10,GR86-028-89,-1.0,-0.991,-0.383,79.57000000000001,2.0,,56.935,58.615,135.56
2025-08-15T09:31:36.575Z,10,GR86-028-89,-4.800000000000001,-1.249,-0.271,5.2,2.0,,51.715,53.365,
2025-08-15T09:31:36.618Z,10,GR86-028-89,-11.8,-1.083,-0.152,3.64,2.0,,53.96,55.485,
2025-08-15T09:31:36.661Z,10,GR86-028-89,-18.0,-1.251,-0.557,3.23,2.0,,53.515,54.615,
2025-08-15T09:31:36.705Z,10,GR86-028-89,-20.5,-1.298,-0.369,3.0500000000000003,2.0,5866.0,47.61,48.68,
2025-08-15T09:31:36.747Z,10,GR86-028-89,-20.3,-0.953,-0.328,2.91,2.0,,43.46,44.71,129.01
2025-08-15T09:31:36.790Z,10,GR86-028-89,-20.1,-0.8220000000000001,-0.844,2.81,2.0,,38.18,38.96,
2025-08-15T09:31:36.834Z,10,GR86-028-89,-22.9,-1.071,-0.451,2.72,2.0,,33.8,34.625,
2025-08-15T09:31:36.877Z,10,GR86-028-89,-25.5,-0.88,-0.759,2.68,2.0,,33.845,34.9,
2025-08-15T09:31:36.920Z,10,GR86-028-89,-26.8,-0.902,-0.869,2.64,2.0,6524.0,30.965,31.42,
2025-08-15T09:31:36.965Z,10,GR86-028-89,-23.200000000000003,-0.751,-0.677,2.6,2.0,,28.155,28.81,122.87
2025-08-15T09:31:37.008Z,10,GR86-028-89,-16.8,-0.734,-0.847,2.59,2.0,,26.535,27.055,
2025-08-15T09:31:37.051Z,10,GR86-028-89,-13.3,-0.665,-0.873,2.57,2.0,,24.525,25.3,
2025-08-15T09:31:37.095Z,10,GR86-028-89,-22.1,-0.649,-0.85,2.5500000000000003,2.0,,20.905,21.685,
2025-08-15T09:31:37.138Z,10,GR86-028-89,-28.0,-0.661,-0.943,2.5500000000000003,2.0,6325.0,20.235,20.935,
2025-08-15T09:31:37.181Z,10,GR86-028-89,-34.0,-0.675,-0.847,2.53,2.0,,19.9,20.755,117.62
2025-08-15T09:31:37.226Z,10,GR86-028-89,-39.5,-0.685,-0.968,2.52,2.0,,19.64,20.265,
2025-08-15T09:31:37.269Z,10,GR86-028-89,-42.3,-0.638,-0.96,2.53,2.0,,19.365,20.175,
2025-08-15T09:31:37.312Z,10,GR86-028-89,-43.6,-0.632,-0.965,2.53,2.0,,18.8,19.55,
2025-08-15T09:31:37.355Z,10,GR86-028-89,-45.2,-0.646,-0.962,2.51,2.0,6108.0,15.535,16.375,
2025-08-15T09:31:37.398Z,10,GR86-028-89,-46.6,-0.582,-0.947,2.5,2.0,,9.095,9.6,113.2
2025-08-15T09:31:37.441Z,10,GR86-028-89,-47.400000000000006,-0.445,-1.092,2.49,2.0,,2.67,3.16,
2025-08-15T09:31:37.486Z,10,GR86-028-89,-48.3,-0.263,-1.096,2.49,2.0,,0.0,0.0,
2025-08-15T09:31:37.528Z,10,GR86-028-89,-49.0,-0.202,-1.059,2.49,2.0,,0.0,0.0,
2025-08-15T09:31:37.571Z,10,GR86-028-89,-50.6,-0.254,-1.114,2.5,2.0,6026.0,0.0,0.0,
2025-08-15T09:31:37.616Z,10,GR86-028-89,-52.5,-0.217,-1.129,5.44,2.0,,0.0,0.0,109.95
2025-08-15T09:31:37.659Z,10,GR86-028-89,-55.6,-0.195,-1.109,7.81,2.0,,0.0,0.0,
2025-08-15T09:31:37.702Z,10,GR86-028-89,-58.8,-0.274,-1.186,7.66,2.0,,0.0,0.0,
2025-08-15T09:31:37.745Z,10,GR86-028-89,-60.400000000000006,-0.202,-1.125,9.76,2.0,,0.0,0.0,
2025-08-15T09:31:37.788Z,10,GR86-028-89,-62.400000000000006,-0.24,-1.188,12.04,2.0,5988.0,0.0,0.0,
2025-08-15T09:31:37.831Z,10,GR86-028-89,-63.900000000000006,-0.188,-1.168,16.05,2.0,,0.0,0.0,108.27
2025-08-15T09:31:37.876Z,10,GR86-028-89,-64.0,-0.153,-1.151,22.79,2.0,,0.0,0.0,
2025-08-15T09:31:37.919Z,10,GR86-028-89,-63.8,-0.198,-1.175,27.04,2.0,,0.0,0.0,
2025-08-15T09:31:37.962Z,10,GR86-028-89,-64.10000000000001,-0.175,-1.191,27.93,2.0,,0.0,0.0,
2025-08-15T09:31:38.005Z,10,GR86-028-89,-63.7,-0.132,-1.251,28.32,2.0,5954.0,0.0,0.0,
2025-08-15T09:31:38.048Z,10,GR86-028-89,-63.5,-0.174,-1.274,31.31,2.0,,0.0,0.0,106.94
2025-08-15T09:31:38.091Z,10,GR86-028-89,-65.10000000000001,0.154,-1.171,31.49,2.0,,0.0,0.0,
2025-08-15T09:31:38.136Z,10,GR86-028-89,-67.7,0.193,-1.234,32.08,2.0,,0.0,0.0,
2025-08-15T09:31:38.179Z,10,GR86-028-89,-67.9,0.053,-1.297,33.44,2.0,,0.0,0.0,
2025-08-15T09:31:38.222Z,10,GR86-028-89,-69.5,0.058,-1.287,35.35,2.0,6273.0,0.0,0.0,
2025-08-15T09:31:38.265Z,10,GR86-028-89,-71.2,-0.009,-1.377,35.71,2.0,,0.0,0.0,106.32
2025-08-15T09:31:38.308Z,10,GR86-028-89,-71.2,0.053,-1.272,35.33,2.0,,0.0,0.0,
2025-08-15T09:31:38.351Z,10,GR86-028-89,-70.8,0.083,-1.296,35.31,2.0,,0.0,0.0,
2025-08-15T09:31:38.395Z,10,GR86-028-89,-70.60000000000001,0.106,-1.189,34.84,2.0,,0.0,0.0,
2025-08-15T09:31:38.438Z,10,GR86-028-89,-69.5,0.103,-1.158,34.12,2.0,6140.0,0.0,0.0,
2025-08-15T09:31:38.481Z,10,GR86-028-89,-69.3,0.072,-1.041,33.88,2.0,,0.0,0.0,106.45
2025-08-15T09:31:38.526Z,10,GR86-028-89,-71.0,-0.035,-1.026,33.730000000000004,2.0,,0.0,0.0,
2025-08-15T09:31:38.569Z,10,GR86-028-89,-72.8,-0.084,-1.022,33.4,2.0,,0.0,0.0,
2025-08-15T09:31:38.612Z,10,GR86-028-89,-72.0,-0.087,-1.115,32.97,2.0,,0.0,0.0,
2025-08-15T09:31:38.655Z,10,GR86-028-89,-70.60000000000001,-0.073,-1.031,31.19,2.0,6149.0,0.0,0.0,
2025-08-15T09:31:38.698Z,10,GR86-028-89,-67.2,-0.175,-1.032,31.01,2.0,,0.0,0.0,106.96
2025-08-15T09:31:38.741Z,10,GR86-028-89,-61.900000000000006,-0.198,-1.036,30.96,2.0,,0.0,0.0,
2025-08-15T09:31:38.785Z,10,GR86-028-89,-54.400000000000006,-0.014,-1.065,29.65,2.0,,0.0,0.0,
2025-08-15T09:31:38.827Z,10,GR86-028-89,-48.6,0.147,-1.19,28.23,2.0,,0.0,0.0,
2025-08-15T09:31:38.870Z,10,GR86-028-89,-47.0,0.348,-1.148,28.04,2.0,6264.0,0.0,0.0,
2025-08-15T09:31:38.916Z,10,GR86-028-89,-50.2,-0.137,-1.057,28.5,2.0,,0.0,0.0,108.25
2025-08-15T09:31:38.958Z,10,GR86-028-89,-54.2,-0.032,-1.142,28.99,2.0,,0.0,0.0,
2025-08-15T09:31:39.001Z,10,GR86-028-89,-59.5,0.109,-1.3,29.0,2.0,,0.0,0.0,
2025-08-15T09:31:39.045Z,10,GR86-028-89,-61.1,0.257,-1.45,29.18,2.0,,0.0,0.0,
2025-08-15T09:31:39.087Z,10,GR86-028-89,-61.0,0.356,-1.222,28.23,2.0,6298.0,0.0,0.0,
2025-08-15T09:31:39.130Z,10,GR86-028-89,-56.6,0.209,-1.222,28.12,2.0,,0.0,0.0,107.97
2025-08-15T09:31:39.175Z,10,GR86-028-89,-52.3,0.064,-1.119,31.43,2.0,,0.0,0.0,
2025-08-15T09:31:39.218Z,10,GR86-028-89,-52.1,0.18,-1.339,31.5,2.0,,0.0,0.0,
2025-08-15T09:31:39.261Z,10,GR86-028-89,-54.900000000000006,0.32,-1.179,31.62,2.0,,0.0,0.0,
2025-08-15T09:31:39.305Z,10,GR86-028-89,-59.2,0.226,-1.103,31.9,2.0,6312.0,0.0,0.0,
2025-08-15T09:31:39.347Z,10,GR86-028-89,-61.400000000000006,0.005,-1.113,32.38,2.0,,0.0,0.0,108.58
2025-08-15T09:31:39.390Z,10,GR86-028-89,-66.3,-0.169,-1.164,33.47,2.0,,0.0,0.0,
2025-08-15T09:31:39.478Z,10,GR86-028-89,-72.4,0.062,-1.383,34.86,2.0,,0.0,0.0,
2025-08-15T09:31:39.521Z,10,GR86-028-89,-73.3,0.113,-1.19,50.28,2.0,6340.0,0.0,0.0,
2025-08-15T09:31:39.565Z,10,GR86-028-89,-68.7,0.067,-1.062,92.37,2.0,,0.0,0.0,108.94
2025-08-15T09:31:39.608Z,10,GR86-028-89,-63.7,0.118,-1.18,99.91,2.0,,0.0,0.0,
2025-08-15T09:31:39.651Z,10,GR86-028-89,-64.5,0.152,-1.119,100.06,2.0,,0.0,0.0,
2025-08-15T09:31:39.695Z,10,GR86-028-89,-70.60000000000001,0.204,-1.09,100.07,2.0,,0.0,0.0,
2025-08-15T09:31:39.738Z,10,GR86-028-89,-70.8,0.155,-1.079,100.05,2.0,6451.0,0.0,0.0,
2025-08-15T09:31:39.781Z,10,GR86-028-89,-67.2,0.159,-1.122,100.07,2.0,,0.0,0.0,109.38
2025-08-15T09:31:39.827Z,10,GR86-028-89,-64.4,0.197,-1.149,100.07,2.0,,0.0,0.0,
2025-08-15T09:31:39.869Z,10,GR86-028-89,-59.2,0.15,-1.245,100.06,2.0,,0.0,0.0,
2025-08-15T09:31:39.912Z,10,GR86-028-89,-49.5,0.17,-1.194,100.02,2.0,,0.0,0.0,
2025-08-15T09:31:39.955Z,10,GR86-028-89,-44.900000000000006,0.203,-1.23,100.05,2.0,6511.0,0.0,0.0,
2025-08-15T09:31:39.998Z,10,GR86-028-89,-46.0,0.202,-1.178,100.09,2.0,,0.0,0.0,110.53
2025-08-15T09:31:40.041Z,10,GR86-028-89,-46.1,0.214,-1.117,100.06,2.0,,0.0,0.0,
2025-08-15T09:31:40.086Z,10,GR86-028-89,-44.1,0.21,-1.116,100.08,2.0,,0.0,0.0,
2025-08-15T09:31:40.128Z,10,GR86-028-89,-43.900000000000006,0.161,-1.061,100.05,2.0,,0.0,0.0,
2025-08-15T09:31:40.171Z,10,GR86-028-89,-46.0,0.184,-1.035,100.08,2.0,6560.0,0.0,0.0,
2025-08-15T09:31:40.216Z,10,GR86-028-89,-50.1,0.21,-1.063,100.08,2.0,,0.0,0.0,112.24
2025-08-15T09:31:40.258Z,10,GR86-028-89,-54.7,0.201,-1.035,100.06,2.0,,0.0,0.0,
2025-08-15T09:31:40.301Z,10,GR86-028-89,-56.7,0.179,-1.073,100.05,2.0,,0.0,0.0,
2025-08-15T09:31:40.345Z,10,GR86-028-89,-54.400000000000006,0.178,-1.096,100.05,2.0,,0.0,0.0,
2025-08-15T09:31:40.387Z,10,GR86-028-89,-48.400000000000006,0.153,-1.094,100.07,2.0,6649.0,0.0,0.0,
2025-08-15T09:31:40.431Z,10,GR86-028-89,-43.6,0.203,-1.055,100.06,2.0,,0.0,0.0,112.32
2025-08-15T09:31:40.476Z,10,GR86-028-89,-39.400000000000006,0.214,-1.043,100.04,2.0,,0.0,0.0,
2025-08-15T09:31:40.518Z,10,GR86-028-89,-37.2,0.168,-1.029,100.05,2.0,,0.0,0.0,
2025-08-15T09:31:40.561Z,10,GR86-028-89,-36.8,0.161,-1.087,100.07,2.0,,0.0,0.0,
2025-08-15T09:31:40.605Z,10,GR86-028-89,-37.7,0.23,-1.065,100.08,2.0,6738.0,0.0,0.0,
2025-08-15T09:31:40.648Z,10,GR86-028-89,-38.6,0.204,-1.091,100.09,2.0,,0.0,0.0,113.63
2025-08-15T09:31:40.691Z,10,GR86-028-89,-38.2,0.204,-1.108,100.08,2.0,,0.0,0.0,
2025-08-15T09:31:40.735Z,10,GR86-028-89,-37.4,0.198,-1.124,100.08,2.0,,0.0,0.0,
2025-08-15T09:31:40.778Z,10,GR86-028-89,-37.6,0.208,-1.12,100.07,2.0,,0.0,0.0,
2025-08-15T09:31:40.821Z,10,GR86-028-89,-37.5,0.182,-1.157,100.07,2.0,6828.0,0.0,0.0,
2025-08-15T09:31:40.865Z,10,GR86-028-89,-36.7,0.203,-1.098,100.04,2.0,,0.0,0.0,115.03
2025-08-15T09:31:40.908Z,10,GR86-028-89,-36.2,0.204,-1.07,100.03,2.0,,0.0,0.0,
2025-08-15T09:31:40.951Z,10,GR86-028-89,-35.9,0.197,-1.095,100.06,2.0,,0.0,0.0,
2025-08-15T09:31:40.995Z,10,GR86-028-89,-36.8,0.199,-1.022,100.03,2.0,,0.0,0.0,
2025-08-15T09:31:41.038Z,10,GR86-028-89,-37.0,0.206,-1.049,100.03,2.0,6887.0,0.0,0.0,
2025-08-15T09:31:41.081Z,10,GR86-028-89,-36.1,0.229,-0.973,100.07,2.0,,0.0,0.0,116.41
2025-08-15T09:31:41.127Z,10,GR86-028-89,-34.4,0.199,-0.878,100.04,2.0,,0.0,0.0,
2025-08-15T09:31:41.169Z,10,GR86-028-89,-33.5,0.17,-0.793,100.02,2.0,,0.0,0.0,
2025-08-15T09:31:41.212Z,10,GR86-028-89,-33.4,0.123,-0.606,100.03,2.0,,0.0,0.0,
2025-08-15T09:31:41.255Z,10,GR86-028-89,-32.300000000000004,0.254,-0.745,100.06,2.0,6947.0,0.0,0.0,
2025-08-15T09:31:41.298Z,10,GR86-028-89,-32.0,0.155,-0.465,100.07,2.0,,0.0,0.0,117.9
2025-08-15T09:31:41.341Z,10,GR86-028-89,-31.6,0.196,-0.597,100.07,2.0,,0.0,0.0,
2025-08-15T09:31:41.386Z,10,GR86-028-89,-30.3,0.222,-0.7000000000000001,100.07,2.0,,0.0,0.0,
2025-08-15T09:31:41.428Z,10,GR86-028-89,-28.6,0.215,-0.764,100.05,2.0,,0.0,0.0,
2025-08-15T09:31:41.471Z,10,GR86-028-89,-28.1,0.265,-0.728,100.03,2.0,6985.0,0.0,0.0,
2025-08-15T09:31:41.516Z,10,GR86-028-89,-26.9,0.241,-0.887,100.05,2.0,,0.0,0.0,121.05
2025-08-15T09:31:41.559Z,10,GR86-028-89,-26.200000000000003,0.198,-0.751,100.05,2.0,,0.0,0.0,
2025-08-15T09:31:41.602Z,10,GR86-028-89,-25.5,0.238,-0.806,100.05,2.0,,0.0,0.0,
2025-08-15T09:31:41.645Z,10,GR86-028-89,-24.200000000000003,0.216,-0.765,100.03,2.0,,0.0,0.0,
2025-08-15T09:31:41.688Z,10,GR86-028-89,-23.1,0.21,-0.713,100.02,2.0,7098.0,0.0,0.0,
2025-08-15T09:31:41.731Z,10,GR86-028-89,-22.5,0.181,-0.669,100.05,2.0,,0.0,0.0,122.88
2025-08-15T09:31:41.776Z,10,GR86-028-89,-22.8,0.213,-0.5640000000000001,100.0,2.0,,0.0,0.0,
2025-08-15T09:31:41.818Z,10,GR86-028-89,-22.3,0.16,-0.5730000000000001,100.05,2.0,,0.0,0.0,
2025-08-15T09:31:41.861Z,10,GR86-028-89,-20.9,0.228,-0.632,100.04,2.0,,0.0,0.0,
2025-08-15T09:31:41.905Z,10,GR86-028-89,-18.9,0.185,-0.585,100.01,2.0,7177.0,0.0,0.0,
2025-08-15T09:31:41.948Z,10,GR86-028-89,-17.400000000000002,0.199,-0.654,100.01,2.0,,0.0,0.0,124.43
2025-08-15T09:31:41.991Z,10,GR86-028-89,-16.5,-0.088,-0.492,100.03,3.0,,0.0,0.0,
2025-08-15T09:31:42.036Z,10,GR86-028-89,-11.9,0.5630000000000001,-0.5690000000000001,100.01,3.0,,0.0,0.0,
2025-08-15T09:31:42.078Z,10,GR86-028-89,-7.7,0.403,-0.306,100.02,3.0,,0.0,0.0,
2025-08-15T09:31:42.121Z,10,GR86-028-89,-5.0,0.445,-0.328,100.02,3.0,6186.0,0.0,0.0,
2025-08-15T09:31:42.166Z,10,GR86-028-89,-4.5,0.357,-0.288,100.02,3.0,,0.0,0.0,125.81
2025-08-15T09:31:42.208Z,10,GR86-028-89,-4.9,0.146,-0.332,100.02,3.0,,0.0,0.0,
2025-08-15T09:31:42.251Z,10,GR86-028-89,-4.2,0.114,-0.15,100.01,3.0,,0.0,0.0,
2025-08-15T09:31:42.295Z,10,GR86-028-89,-0.4,0.164,-0.166,100.01,3.0,,0.0,0.0,
2025-08-15T09:31:42.338Z,10,GR86-028-89,1.4,0.257,-0.198,100.02,3.0,6076.0,0.0,0.0,
2025-08-15T09:31:42.381Z,10,GR86-028-89,0.6000000000000001,0.284,0.026,100.01,3.0,,0.0,0.0,127.58
2025-08-15T09:31:42.426Z,10,GR86-028-89,0.3,0.19,-0.097,100.02,3.0,,0.0,0.0,
2025-08-15T09:31:42.469Z,10,GR86-028-89,0.6000000000000001,0.117,0.079,100.01,3.0,,0.0,0.0,
2025-08-15T09:31:42.512Z,10,GR86-028-89,1.3,0.245,0.153,100.02,3.0,,0.0,0.0,
2025-08-15T09:31:42.555Z,10,GR86-028-89,2.8000000000000003,0.275,0.032,100.01,3.0,6136.0,0.0,0.0,
2025-08-15T09:31:42.598Z,10,GR86-028-89,2.9000000000000004,0.226,0.113,100.02,3.0,,0.0,0.0,128.96
2025-08-15T09:31:42.641Z,10,GR86-028-89,2.9000000000000004,0.149,0.038,100.02,3.0,,0.0,0.0,
2025-08-15T09:31:42.685Z,10,GR86-028-89,2.9000000000000004,0.172,0.007,100.03,3.0,,0.0,0.0,
2025-08-15T09:31:42.727Z,10,GR86-028-89,2.9000000000000004,0.243,0.085,100.03,3.0,,0.0,0.0,
2025-08-15T09:31:42.770Z,10,GR86-028-89,3.2,0.208,0.073,100.03,3.0,6136.0,0.0,0.0,
2025-08-15T09:31:42.816Z,10,GR86-028-89,4.3,0.187,0.067,100.03,3.0,,0.0,0.0,130.75
2025-08-15T09:31:42.858Z,10,GR86-028-89,5.1000000000000005,0.186,0.092,100.01,3.0,,0.0,0.0,
2025-08-15T09:31:42.901Z,10,GR86-028-89,5.9,0.194,0.07,100.02,3.0,,0.0,0.0,
2025-08-15T09:31:42.945Z,10,GR86-028-89,6.6000000000000005,0.221,0.059,100.04,3.0,,0.0,0.0,
2025-08-15T09:31:42.987Z,10,GR86-028-89,6.800000000000001,0.195,0.123,100.03,3.0,6200.0,0.0,0.0,
2025-08-15T09:31:43.030Z,10,GR86-028-89,6.9,0.181,0.115,100.02,3.0,,0.0,0.0,132.15
2025-08-15T09:31:43.075Z,10,GR86-028-89,6.6000000000000005,0.183,0.17,100.02,3.0,,0.0,0.0,
2025-08-15T09:31:43.118Z,10,GR86-028-89,6.6000000000000005,0.213,0.145,100.02,3.0,,0.0,0.0,
2025-08-15T09:31:43.161Z,10,GR86-028-89,6.5,0.209,0.141,100.03,3.0,,0.0,0.0,
2025-08-15T09:31:43.205Z,10,GR86-028-89,6.0,0.196,0.181,100.0,3.0,6263.0,0.0,0.0,
2025-08-15T09:31:43.248Z,10,GR86-028-89,4.9,0.178,0.198,100.03,3.0,,0.0,0.0,133.54
2025-08-15T09:31:43.291Z,10,GR86-028-89,3.9,0.206,0.146,100.02,3.0,,0.0,0.0,
2025-08-15T09:31:43.336Z,10,GR86-028-89,2.8000000000000003,0.198,0.134,100.03,3.0,,0.0,0.0,
2025-08-15T09:31:43.378Z,10,GR86-028-89,2.5,0.204,0.074,100.03,3.0,,0.0,0.0,
2025-08-15T09:31:43.421Z,10,GR86-028-89,2.2,0.207,0.063,100.0,3.0,6326.0,0.0,0.0,
2025-08-15T09:31:43.465Z,10,GR86-028-89,1.6,0.182,0.075,100.0,3.0,,0.0,0.0,135.0
2025-08-15T09:31:43.508Z,10,GR86-028-89,1.4,0.194,0.029,100.02,3.0,,0.0,0.0,
2025-08-15T09:31:43.551Z,10,GR86-028-89,1.0,0.207,0.01,100.0,3.0,,0.0,0.0,
2025-08-15T09:31:43.595Z,10,GR86-028-89,0.7000000000000001,0.187,-0.019,100.02,3.0,,0.0,0.0,
2025-08-15T09:31:43.638Z,10,GR86-028-89,0.4,0.206,-0.035,100.03,3.0,6392.0,0.0,0.0,
2025-08-15T09:31:43.681Z,10,GR86-028-89,-0.1,0.203,-0.024,100.03,3.0,,0.0,0.0,136.44
2025-08-15T09:31:43.726Z,10,GR86-028-89,-0.3,0.175,-0.017,100.02,3.0,,0.0,0.0,
2025-08-15T09:31:43.769Z,10,GR86-028-89,-0.4,0.184,-0.03,100.02,3.0,,0.0,0.0,
2025-08-15T09:31:43.812Z,10,GR86-028-89,-0.6000000000000001,0.21,-0.058,99.98,3.0,,0.0,0.0,
2025-08-15T09:31:43.858Z,10,GR86-028-89,-0.9,0.206,-0.068,100.02,3.0,6455.0,0.0,0.0,
2025-08-15T09:31:43.901Z,10,GR86-028-89,-0.9,0.207,-0.072,100.03,3.0,,0.0,0.0,137.83
2025-08-15T09:31:43.945Z,10,GR86-028-89,-0.8,0.187,-0.054,100.01,3.0,,0.0,0.0,
2025-08-15T09:31:43.987Z,10,GR86-028-89,-0.6000000000000001,0.158,-0.053,100.02,3.0,,0.0,0.0,
2025-08-15T09:31:44.031Z,10,GR86-028-89,-0.6000000000000001,0.191,-0.071,99.99,3.0,,0.0,0.0,
2025-08-15T09:31:44.075Z,10,GR86-028-89,-0.8,0.148,-0.055,99.99,3.0,6516.0,0.0,0.0,
2025-08-15T09:31:44.118Z,10,GR86-028-89,-0.9,0.214,-0.091,100.01,3.0,,0.0,0.0,140.58
2025-08-15T09:31:44.161Z,10,GR86-028-89,-0.9,0.203,-0.084,100.0,3.0,,0.0,0.0,
2025-08-15T09:31:44.205Z,10,GR86-028-89,-0.9,0.201,-0.064,100.03,3.0,,0.0,0.0,
2025-08-15T09:31:44.248Z,10,GR86-028-89,-0.8,0.153,-0.059,100.02,3.0,,0.0,0.0,
2025-08-15T09:31:44.291Z,10,GR86-028-89,-0.7000000000000001,0.178,-0.088,100.01,3.0,6577.0,0.0,0.0,
2025-08-15T09:31:44.335Z,10,GR86-028-89,-0.7000000000000001,0.152,-0.068,100.01,3.0,,0.0,0.0,141.92000000000002
2025-08-15T09:31:44.378Z,10,GR86-028-89,-0.7000000000000001,0.182,-0.095,100.01,3.0,,0.0,0.0,
2025-08-15T09:31:44.421Z,10,GR86-028-89,-0.8,0.212,-0.093,100.03,3.0,,0.0,0.0,
2025-08-15T09:31:44.508Z,10,GR86-028-89,-0.8,0.167,-0.049,100.0,3.0,6639.0,0.0,0.0,
2025-08-15T09:31:44.551Z,10,GR86-028-89,-0.9,0.143,-0.035,100.01,3.0,,0.0,0.0,143.3
2025-08-15T09:31:44.595Z,10,GR86-028-89,-1.3,0.164,-0.052,100.01,3.0,,0.0,0.0,
2025-08-15T09:31:44.638Z,10,GR86-028-89,-1.2000000000000002,0.157,-0.064,100.0,3.0,,0.0,0.0,
2025-08-15T09:31:44.681Z,10,GR86-028-89,-1.2000000000000002,0.189,-0.092,100.0,3.0,,0.0,0.0,
2025-08-15T09:31:44.726Z,10,GR86-028-89,-1.4,0.206,-0.101,100.01,3.0,6757.0,0.0,0.0,
2025-08-15T09:31:44.769Z,10,GR86-028-89,-1.7000000000000002,0.173,-0.066,100.02,3.0,,0.0,0.0,144.59
2025-08-15T09:31:44.812Z,10,GR86-028-89,-1.9,0.155,-0.065,100.02,3.0,,0.0,0.0,
2025-08-15T09:31:44.858Z,10,GR86-028-89,-1.9,0.186,-0.08,100.03,3.0,,0.0,0.0,
2025-08-15T09:31:44.901Z,10,GR86-028-89,-2.0,0.16,-0.067,100.02,3.0,,0.0,0.0,
2025-08-15T09:31:44.945Z,10,GR86-028-89,-1.9,0.162,-0.088,99.99,3.0,6821.0,0.0,0.0,
2025-08-15T09:31:44.988Z,10,GR86-028-89,-1.7000000000000002,0.184,-0.102,99.98,3.0,,0.0,0.0,145.86
2025-08-15T09:31:45.031Z,10,GR86-028-89,-1.5,0.211,-0.115,99.99,3.0,,0.0,0.0,
2025-08-15T09:31:45.076Z,10,GR86-028-89,-1.2000000000000002,0.192,-0.102,100.0,3.0,,0.0,0.0,
2025-08-15T09:31:45.119Z,10,GR86-028-89,-1.1,0.21,-0.114,99.99,3.0,,0.0,0.0,
2025-08-15T09:31:45.162Z,10,GR86-028-89,-1.1,0.185,-0.104,100.0,3.0,6881.0,0.0,0.0,
2025-08-15T09:31:45.205Z,10,GR86-028-89,-1.1,0.157,-0.09,100.01,3.0,,0.0,0.0,147.1
2025-08-15T09:31:45.248Z,10,GR86-028-89,-1.2000000000000002,0.16,-0.091,100.0,3.0,,0.0,0.0,
2025-08-15T09:31:45.291Z,10,GR86-028-89,-1.3,0.181,-0.096,100.0,3.0,,0.0,0.0,
2025-08-15T09:31:45.336Z,10,GR86-028-89,-1.4,0.14,-0.073,100.03,3.0,,0.0,0.0,
2025-08-15T09:31:45.378Z,10,GR86-028-89,-1.3,0.162,-0.096,99.99,3.0,6939.0,0.0,0.0,
2025-08-15T09:31:45.421Z,10,GR86-028-89,-1.3,0.206,-0.11,100.01,3.0,,0.0,0.0,148.4
2025-08-15T09:31:45.465Z,10,GR86-028-89,-1.3,0.204,-0.1,100.02,3.0,,0.0,0.0,
2025-08-15T09:31:45.508Z,10,GR86-028-89,-1.3,0.176,-0.098,99.98,3.0,,0.0,0.0,
2025-08-15T09:31:45.551Z,10,GR86-028-89,-1.3,0.138,-0.074,100.02,3.0,,0.0,0.0,
2025-08-15T09:31:45.595Z,10,GR86-028-89,-1.5,0.177,-0.08,100.01,3.0,6993.0,0.0,0.0,
2025-08-15T09:31:45.638Z,10,GR86-028-89,-1.5,0.16,-0.081,100.0,3.0,,0.0,0.0,149.69
2025-08-15T09:31:45.681Z,10,GR86-028-89,-1.5,0.139,-0.075,100.01,3.0,,0.0,0.0,
2025-08-15T09:31:45.726Z,10,GR86-028-89,-1.5,0.156,-0.088,100.0,3.0,,0.0,0.0,
2025-08-15T09:31:45.769Z,10,GR86-028-89,-1.4,0.2,-0.096,99.99,3.0,,0.0,0.0,
2025-08-15T09:31:45.812Z,10,GR86-028-89,-1.4,0.204,-0.101,100.01,3.0,7050.0,0.0,0.0,
2025-08-15T09:31:45.858Z,10,GR86-028-89,-1.6,0.177,-0.092,100.0,3.0,,0.0,0.0,150.93
2025-08-15T09:31:45.901Z,10,GR86-028-89,-1.8,0.209,-0.108,100.01,3.0,,0.0,0.0,
2025-08-15T09:31:45.945Z,10,GR86-028-89,-1.8,0.19,-0.104,99.99,3.0,,0.0,0.0,
2025-08-15T09:31:45.987Z,10,GR86-028-89,-1.6,0.178,-0.092,100.0,3.0,,0.0,0.0,
2025-08-15T09:31:46.030Z,10,GR86-028-89,-1.4,0.141,-0.097,100.0,3.0,7106.0,0.0,0.0,
2025-08-15T09:31:46.076Z,10,GR86-028-89,-1.5,0.182,-0.106,100.0,3.0,,0.0,0.0,152.17000000000002
2025-08-15T09:31:46.118Z,10,GR86-028-89,-1.7000000000000002,0.145,-0.1,100.0,3.0,,0.0,0.0,
2025-08-15T09:31:46.161Z,10,GR86-028-89,-1.9,0.12,-0.088,100.02,3.0,,0.0,0.0,
2025-08-15T09:31:46.205Z,10,GR86-028-89,-1.8,0.137,-0.092,100.02,3.0,,0.0,0.0,
2025-08-15T09:31:46.248Z,10,GR86-028-89,-1.5,0.174,-0.098,100.0,3.0,7162.0,0.0,0.0,
2025-08-15T09:31:46.291Z,10,GR86-028-89,-1.2000000000000002,0.204,-0.081,99.99,3.0,,0.0,0.0,153.37
2025-08-15T09:31:46.335Z,10,GR86-028-89,-0.9,0.139,-0.094,99.99,3.0,,0.0,0.0,
2025-08-15T09:31:46.378Z,10,GR86-028-89,-0.9,0.174,-0.102,100.0,3.0,,0.0,0.0,
2025-08-15T09:31:46.421Z,10,GR86-028-89,-0.8,0.193,-0.091,100.01,3.0,,0.0,0.0,
2025-08-15T09:31:46.466Z,10,GR86-028-89,-0.4,0.183,-0.072,100.02,3.0,7217.0,0.0,0.0,
2025-08-15T09:31:46.508Z,10,GR86-028-89,0.2,0.173,-0.051,100.01,3.0,,0.0,0.0,154.54
2025-08-15T09:31:46.551Z,10,GR86-028-89,0.8,0.141,-0.046,99.97,3.0,,0.0,0.0,
2025-08-15T09:31:46.595Z,10,GR86-028-89,1.0,-0.111,-0.014,100.02,4.0,,0.0,0.0,
2025-08-15T09:31:46.638Z,10,GR86-028-89,1.6,0.412,0.019,99.99,4.0,,0.0,0.0,
2025-08-15T09:31:46.681Z,10,GR86-028-89,2.1,0.274,-0.076,99.98,4.0,7267.0,0.0,0.0,
2025-08-15T09:31:46.727Z,10,GR86-028-89,1.5,0.186,0.008,100.01,4.0,,0.0,0.0,156.65
2025-08-15T09:31:46.769Z,10,GR86-028-89,1.2000000000000002,-0.029,0.067,100.02,4.0,,0.0,0.0,
2025-08-15T09:31:46.812Z,10,GR86-028-89,1.8,0.102,-0.05,100.0,4.0,,0.0,0.0,
2025-08-15T09:31:46.858Z,10,GR86-028-89,2.1,0.172,0.094,100.0,4.0,,0.0,0.0,
2025-08-15T09:31:46.901Z,10,GR86-028-89,2.1,0.113,0.016,100.01,4.0,6181.0,0.0,0.0,
2025-08-15T09:31:46.945Z,10,GR86-028-89,2.2,0.104,0.006,99.98,4.0,,0.0,0.0,157.85
2025-08-15T09:31:46.987Z,10,GR86-028-89,2.0,0.16,0.04,100.0,4.0,,0.0,0.0,
2025-08-15T09:31:47.031Z,10,GR86-028-89,1.7000000000000002,0.208,0.012,100.01,4.0,,0.0,0.0,
2025-08-15T09:31:47.076Z,10,GR86-028-89,1.6,0.123,0.039,100.0,4.0,,0.0,0.0,
2025-08-15T09:31:47.118Z,10,GR86-028-89,1.6,0.143,0.028,100.0,4.0,6224.0,0.0,0.0,
2025-08-15T09:31:47.161Z,10,GR86-028-89,1.2000000000000002,0.176,0.014,100.01,4.0,,0.0,0.0,158.89
2025-08-15T09:31:47.205Z,10,GR86-028-89,0.9,0.19,0.034,99.99,4.0,,0.0,0.0,
2025-08-15T09:31:47.248Z,10,GR86-028-89,0.9,0.151,0.038,100.0,4.0,,0.0,0.0,
2025-08-15T09:31:47.291Z,10,GR86-028-89,0.8,0.128,0.022,100.02,4.0,,0.0,0.0,
2025-08-15T09:31:47.335Z,10,GR86-028-89,0.7000000000000001,0.177,0.016,99.99,4.0,6277.0,0.0,0.0,
2025-08-15T09:31:47.377Z,10,GR86-028-89,0.7000000000000001,0.167,0.003,100.0,4.0,,0.0,0.0,159.94
2025-08-15T09:31:47.420Z,10,GR86-028-89,0.7000000000000001,0.148,0.002,99.98,4.0,,0.0,0.0,
2025-08-15T09:31:47.465Z,10,GR86-028-89,0.7000000000000001,0.11,0.01,99.99,4.0,,0.0,0.0,
2025-08-15T09:31:47.508Z,10,GR86-028-89,0.8,0.11,-0.006,99.99,4.0,,0.0,0.0,
2025-08-15T09:31:47.551Z,10,GR86-028-89,1.0,0.1,0.015,100.0,4.0,6319.0,0.0,0.0,
2025-08-15T09:31:47.595Z,10,GR86-028-89,1.0,0.143,0.036,99.99,4.0,,0.0,0.0,160.86
2025-08-15T09:31:47.638Z,10,GR86-028-89,1.0,0.092,0.041,100.0,4.0,,0.0,0.0,
2025-08-15T09:31:47.681Z,10,GR86-028-89,1.1,0.094,0.03,100.01,4.0,,0.0,0.0,
2025-08-15T09:31:47.726Z,10,GR86-028-89,1.1,0.103,0.011,100.0,4.0,,0.0,0.0,
2025-08-15T09:31:47.769Z,10,GR86-028-89,1.1,0.119,-0.001,99.98,4.0,6357.0,0.0,0.0,
2025-08-15T09:31:47.812Z,10,GR86-028-89,1.0,0.158,0.008,100.0,4.0,,0.0,0.0,161.83
2025-08-15T09:31:47.858Z,10,GR86-028-89,0.7000000000000001,0.083,0.012,100.0,4.0,,0.0,0.0,
2025-08-15T09:31:47.901Z,10,GR86-028-89,0.7000000000000001,0.096,0.025,100.0,4.0,,0.0,0.0,
2025-08-15T09:31:47.945Z,10,GR86-028-89,0.5,0.1,0.003,99.99,4.0,,0.0,0.0,
2025-08-15T09:31:47.988Z,10,GR86-028-89,0.3,0.131,-0.012,100.0,4.0,6396.0,0.0,0.0,
2025-08-15T09:31:48.031Z,10,GR86-028-89,-0.1,0.157,0.017,100.01,4.0,,0.0,0.0,162.77
2025-08-15T09:31:48.076Z,10,GR86-028-89,-0.2,0.084,0.009,100.0,4.0,,0.0,0.0,
2025-08-15T09:31:48.119Z,10,GR86-028-89,-0.2,0.097,-0.018,99.99,4.0,,0.0,0.0,
2025-08-15T09:31:48.162Z,10,GR86-028-89,-0.2,0.111,-0.018,100.01,4.0,,0.0,0.0,
2025-08-15T09:31:48.205Z,10,GR86-028-89,-0.3,0.131,-0.024,99.99,4.0,6430.0,0.0,0.0,
2025-08-15T09:31:48.248Z,10,GR86-028-89,-0.3,0.152,-0.03,100.01,4.0,,0.0,0.0,163.8
2025-08-15T09:31:48.291Z,10,GR86-028-89,-0.3,0.161,-0.034,100.0,4.0,,0.0,0.0,
2025-08-15T09:31:48.336Z,10,GR86-028-89,-0.4,0.085,-0.031,100.01,4.0,,0.0,0.0,
2025-08-15T09:31:48.378Z,10,GR86-028-89,-0.5,0.122,-0.034,99.98,4.0,,0.0,0.0,
2025-08-15T09:31:48.421Z,10,GR86-028-89,-0.9,0.136,-0.03,100.0,4.0,6464.0,0.0,0.0,
2025-08-15T09:31:48.465Z,10,GR86-028-89,-1.2000000000000002,0.154,-0.032,99.99,4.0,,0.0,0.0,164.74
2025-08-15T09:31:48.508Z,10,GR86-028-89,-1.3,0.147,-0.062,100.0,4.0,,0.0,0.0,
2025-08-15T09:31:48.551Z,10,GR86-028-89,-1.5,0.146,-0.049,100.0,4.0,,0.0,0.0,
2025-08-15T09:31:48.595Z,10,GR86-028-89,-2.0,0.121,-0.079,100.0,4.0,,0.0,0.0,
2025-08-15T09:31:48.638Z,10,GR86-028-89,-2.3000000000000003,0.121,-0.067,100.01,4.0,6500.0,0.0,0.0,
2025-08-15T09:31:48.681Z,10,GR86-028-89,-2.4000000000000004,0.154,-0.1,99.99,4.0,,0.0,0.0,165.72
2025-08-15T09:31:48.726Z,10,GR86-028-89,-2.3000000000000003,0.142,-0.074,100.01,4.0,,0.0,0.0,
2025-08-15T09:31:48.769Z,10,GR86-028-89,-2.0,0.157,-0.101,100.0,4.0,,0.0,0.0,
2025-08-15T09:31:48.812Z,10,GR86-028-89,-1.7000000000000002,0.132,-0.086,100.01,4.0,,0.0,0.0,
2025-08-15T09:31:48.858Z,10,GR86-028-89,-1.4,0.117,-0.087,100.01,4.0,6544.0,0.0,0.0,
2025-08-15T09:31:48.901Z,10,GR86-028-89,-1.4,0.147,-0.087,99.99,4.0,,0.0,0.0,166.71
2025-08-15T09:31:48.945Z,10,GR86-028-89,-1.5,0.127,-0.087,99.99,4.0,,0.0,0.0,
2025-08-15T09:31:48.987Z,10,GR86-028-89,-1.5,0.157,-0.086,99.98,4.0,,0.0,0.0,
2025-08-15T09:31:49.030Z,10,GR86-028-89,-1.6,0.146,-0.109,100.0,4.0,,0.0,0.0,
2025-08-15T09:31:49.076Z,10,GR86-028-89,-2.4000000000000004,0.107,-0.097,99.98,4.0,6581.0,0.0,0.0,
2025-08-15T09:31:49.118Z,10,GR86-028-89,-3.1,0.122,-0.09,100.0,4.0,,0.0,0.0,168.63
2025-08-15T09:31:49.161Z,10,GR86-028-89,-3.2,0.133,-0.109,99.99,4.0,,0.0,0.0,
2025-08-15T09:31:49.205Z,10,GR86-028-89,-3.2,0.148,-0.144,100.02,4.0,,0.0,0.0,
2025-08-15T09:31:49.248Z,10,GR86-028-89,-3.2,0.149,-0.138,100.02,4.0,,0.0,0.0,
2025-08-15T09:31:49.291Z,10,GR86-028-89,-3.2,0.151,-0.14,100.0,4.0,6622.0,0.0,0.0,
2025-08-15T09:31:49.335Z,10,GR86-028-89,-3.2,0.108,-0.114,99.99,4.0,,0.0,0.0,169.69
2025-08-15T09:31:49.378Z,10,GR86-028-89,-3.2,0.099,-0.139,100.02,4.0,,0.0,0.0,
2025-08-15T09:31:49.421Z,10,GR86-028-89,-3.2,0.116,-0.136,100.02,4.0,,0.0,0.0,
2025-08-15T09:31:49.465Z,10,GR86-028-89,-3.2,0.139,-0.137,99.99,4.0,,0.0,0.0,
2025-08-15T09:31:49.508Z,10,GR86-028-89,-3.1,0.126,-0.144,100.0,4.0,6665.0,0.0,0.0,
2025-08-15T09:31:49.551Z,10,GR86-028-89,-3.1,0.158,-0.153,100.02,4.0,,0.0,0.0,170.75
2025-08-15T09:31:49.595Z,10,GR86-028-89,-3.1,0.107,-0.118,99.99,4.0,,0.0,0.0,
2025-08-15T09:31:49.638Z,10,GR86-028-89,-3.1,0.089,-0.111,100.01,4.0,,0.0,0.0,
2025-08-15T09:31:49.681Z,10,GR86-028-89,-3.1,0.111,-0.129,99.99,4.0,,0.0,0.0,
2025-08-15T09:31:49.727Z,10,GR86-028-89,-3.3000000000000003,0.1,-0.111,100.01,4.0,6731.0,0.0,0.0,
2025-08-15T09:31:49.769Z,10,GR86-028-89,-3.5,0.128,-0.135,100.0,4.0,,0.0,0.0,171.85
2025-08-15T09:31:49.812Z,10,GR86-028-89,-3.5,0.118,-0.119,99.99,4.0,,0.0,0.0,
2025-08-15T09:31:49.855Z,10,GR86-028-89,-3.5,0.11,-0.106,100.02,4.0,,0.0,0.0,
2025-08-15T09:31:49.898Z,10,GR86-028-89,-3.5,0.11,-0.116,100.0,4.0,,0.0,0.0,
2025-08-15T09:31:49.941Z,10,GR86-028-89,-3.4000000000000004,0.092,-0.123,100.0,4.0,6780.0,0.0,0.0,
2025-08-15T09:31:49.986Z,10,GR86-028-89,-3.4000000000000004,0.117,-0.124,100.0,4.0,,0.0,0.0,172.9
2025-08-15T09:31:50.029Z,10,GR86-028-89,-3.6,0.102,-0.14,100.03,4.0,,0.0,0.0,
2025-08-15T09:31:50.072Z,10,GR86-028-89,-4.0,0.113,-0.138,100.02,4.0,,0.0,0.0,
2025-08-15T09:31:50.116Z,10,GR86-028-89,-4.5,0.146,-0.149,100.01,4.0,,0.0,0.0,
2025-08-15T09:31:50.159Z,10,GR86-028-89,-4.6000000000000005,0.095,-0.151,100.03,4.0,6826.0,0.0,0.0,
2025-08-15T09:31:50.202Z,10,GR86-028-89,-4.6000000000000005,0.112,-0.18,100.03,4.0,,0.0,0.0,173.79
2025-08-15T09:31:50.245Z,10,GR86-028-89,-4.6000000000000005,0.103,-0.188,100.0,4.0,,0.0,0.0,
2025-08-15T09:31:50.288Z,10,GR86-028-89,-4.6000000000000005,0.123,-0.209,99.99,4.0,,0.0,0.0,
2025-08-15T09:31:50.331Z,10,GR86-028-89,-4.6000000000000005,0.092,-0.199,99.98,4.0,,0.0,0.0,
2025-08-15T09:31:50.375Z,10,GR86-028-89,-4.3,0.119,-0.181,100.0,4.0,6863.0,0.0,0.0,
2025-08-15T09:31:50.418Z,10,GR86-028-89,-3.9,0.139,-0.204,99.98,4.0,,0.0,0.0,174.76
2025-08-15T09:31:50.461Z,10,GR86-028-89,-3.7,0.108,-0.169,99.98,4.0,,0.0,0.0,
2025-08-15T09:31:50.505Z,10,GR86-028-89,-3.8,0.136,-0.201,100.0,4.0,,0.0,0.0,
2025-08-15T09:31:50.547Z,10,GR86-028-89,-3.9,0.123,-0.178,99.99,4.0,,0.0,0.0,
2025-08-15T09:31:50.590Z,10,GR86-028-89,-4.1000000000000005,0.11,-0.178,99.99,4.0,6897.0,0.0,0.0,
2025-08-15T09:31:50.635Z,10,GR86-028-89,-4.1000000000000005,0.11,-0.166,100.0,4.0,,0.0,0.0,175.88
2025-08-15T09:31:50.678Z,10,GR86-028-89,-3.9,0.125,-0.166,99.98,4.0,,0.0,0.0,
2025-08-15T09:31:50.721Z,10,GR86-028-89,-3.6,0.1,-0.159,99.99,4.0,,0.0,0.0,
2025-08-15T09:31:50.765Z,10,GR86-028-89,-3.3000000000000003,0.137,-0.143,100.01,4.0,,0.0,0.0,
2025-08-15T09:31:50.808Z,10,GR86-028-89,-3.3000000000000003,0.095,-0.14,99.98,4.0,6937.0,0.0,0.0,
2025-08-15T09:31:50.851Z,10,GR86-028-89,-3.3000000000000003,0.139,-0.141,99.97,4.0,,0.0,0.0,176.87
2025-08-15T09:31:50.895Z,10,GR86-028-89,-3.3000000000000003,0.104,-0.127,100.01,4.0,,0.0,0.0,
2025-08-15T09:31:50.938Z,10,GR86-028-89,-3.2,0.106,-0.138,100.02,4.0,,0.0,0.0,
2025-08-15T09:31:51.027Z,10,GR86-028-89,-2.8000000000000003,0.123,-0.123,100.01,4.0,6986.0,0.0,0.0,
2025-08-15T09:31:51.070Z,10,GR86-028-89,-2.6,0.109,-0.143,100.03,4.0,,0.0,0.0,177.84
2025-08-15T09:31:51.116Z,10,GR86-028-89,-2.6,0.145,-0.124,100.0,4.0,,0.0,0.0,
2025-08-15T09:31:51.159Z,10,GR86-028-89,-2.6,0.145,-0.136,99.98,4.0,,0.0,0.0,
2025-08-15T09:31:51.202Z,10,GR86-028-89,-2.4000000000000004,0.124,-0.138,100.0,4.0,,0.0,0.0,
2025-08-15T09:31:51.245Z,10,GR86-028-89,-2.3000000000000003,0.149,-0.119,100.01,4.0,7024.0,0.0,0.0,
2025-08-15T09:31:51.288Z,10,GR86-028-89,-2.2,0.123,-0.121,99.98,4.0,,0.0,0.0,178.75
2025-08-15T09:31:51.331Z,10,GR86-028-89,-1.8,0.127,-0.105,100.01,4.0,,0.0,0.0,
2025-08-15T09:31:51.376Z,10,GR86-028-89,-1.6,0.084,-0.074,100.0,4.0,,0.0,0.0,
2025-08-15T09:31:51.418Z,10,GR86-028-89,-1.8,0.094,-0.077,99.98,4.0,,0.0,0.0,
2025-08-15T09:31:51.461Z,10,GR86-028-89,-1.7000000000000002,0.11,-0.076,99.99,4.0,7052.0,0.0,0.0,
2025-08-15T09:31:51.505Z,10,GR86-028-89,-1.3,0.096,-0.058,99.97,4.0,,0.0,0.0,179.82
2025-08-15T09:31:51.548Z,10,GR86-028-89,-1.2000000000000002,0.104,-0.079,100.01,4.0,,0.0,0.0,
2025-08-15T09:31:51.591Z,10,GR86-028-89,-1.2000000000000002,0.103,-0.048,100.02,4.0,,0.0,0.0,
2025-08-15T09:31:51.636Z,10,GR86-028-89,-1.1,0.116,-0.09,99.99,4.0,,0.0,0.0,
2025-08-15T09:31:51.678Z,10,GR86-028-89,-1.1,0.146,-0.072,100.01,4.0,7100.0,0.0,0.0,
2025-08-15T09:31:51.721Z,10,GR86-028-89,-1.1,0.115,-0.067,100.0,4.0,,0.0,0.0,181.77
2025-08-15T09:31:51.765Z,10,GR86-028-89,-1.0,0.133,-0.058,100.02,4.0,,0.0,0.0,
2025-08-15T09:31:51.808Z,10,GR86-028-89,-1.0,0.129,-0.038,100.01,4.0,,0.0,0.0,
2025-08-15T09:31:51.851Z,10,GR86-028-89,-1.2000000000000002,0.119,-0.062,100.0,4.0,,0.0,0.0,
2025-08-15T09:31:51.895Z,10,GR86-028-89,-1.2000000000000002,0.067,-0.057,100.03,4.0,7128.0,0.0,0.0,
2025-08-15T09:31:51.938Z,10,GR86-028-89,-1.2000000000000002,0.107,-0.072,100.0,4.0,,0.0,0.0,182.71
2025-08-15T09:31:51.981Z,10,GR86-028-89,-1.3,0.08,-0.072,100.0,4.0,,0.0,0.0,
2025-08-15T09:31:52.027Z,10,GR86-028-89,-1.3,0.093,-0.073,99.97,4.0,,0.0,0.0,
2025-08-15T09:31:52.069Z,10,GR86-028-89,-1.1,0.091,-0.066,99.99,4.0,,0.0,0.0,
2025-08-15T09:31:52.112Z,10,GR86-028-89,-1.1,0.075,-0.063,100.02,4.0,7168.0,0.0,0.0,
2025-08-15T09:31:52.155Z,10,GR86-028-89,-1.2000000000000002,0.135,-0.08,100.0,4.0,,0.0,0.0,183.66
2025-08-15T09:31:52.198Z,10,GR86-028-89,-1.2000000000000002,0.125,-0.073,100.01,4.0,,0.0,0.0,
2025-08-15T09:31:52.241Z,10,GR86-028-89,-1.3,0.137,-0.067,99.99,4.0,,0.0,0.0,
2025-08-15T09:31:52.285Z,10,GR86-028-89,-1.2000000000000002,0.129,-0.061,99.99,4.0,,0.0,0.0,
2025-08-15T09:31:52.327Z,10,GR86-028-89,-1.0,0.122,-0.058,99.97,4.0,7237.0,0.0,0.0,
2025-08-15T09:31:52.370Z,10,GR86-028-89,-0.8,0.144,-0.074,100.02,4.0,,0.0,0.0,184.58
2025-08-15T09:31:52.416Z,10,GR86-028-89,-1.0,0.085,-0.034,99.99,4.0,,0.0,0.0,
2025-08-15T09:31:52.458Z,10,GR86-028-89,-1.5,0.01,-0.057,99.98,5.0,,0.0,0.0,
2025-08-15T09:31:52.501Z,10,GR86-028-89,-1.7000000000000002,-0.151,-0.019,99.99,5.0,,0.0,0.0,
2025-08-15T09:31:52.545Z,10,GR86-028-89,-1.3,0.421,-0.064,100.01,5.0,6938.0,0.0,0.0,
2025-08-15T09:31:52.587Z,10,GR86-028-89,-1.2000000000000002,0.118,-0.114,99.99,5.0,,0.0,0.0,185.5
2025-08-15T09:31:52.630Z,10,GR86-028-89,-1.8,-0.026,-0.011,100.01,5.0,,0.0,0.0,
2025-08-15T09:31:52.675Z,10,GR86-028-89,-1.6,0.112,-0.132,99.99,5.0,,0.0,0.0,
2025-08-15T09:31:52.718Z,10,GR86-028-89,-1.5,0.188,-0.087,100.0,5.0,,0.0,0.0,
2025-08-15T09:31:52.761Z,10,GR86-028-89,-2.0,0.096,-0.074,99.98,5.0,6414.0,0.0,0.0,
2025-08-15T09:31:52.805Z,10,GR86-028-89,-2.3000000000000003,0.043,-0.147,100.01,5.0,,0.0,0.0,186.32
2025-08-15T09:31:52.848Z,10,GR86-028-89,-2.3000000000000003,0.104,-0.087,99.99,5.0,,0.0,0.0,
2025-08-15T09:31:52.891Z,10,GR86-028-89,-2.4000000000000004,0.104,-0.078,100.0,5.0,,0.0,0.0,
2025-08-15T09:31:52.936Z,10,GR86-028-89,-1.7000000000000002,0.095,-0.089,100.0,5.0,,0.0,0.0,
2025-08-15T09:31:52.978Z,10,GR86-028-89,-1.6,0.102,-0.085,99.99,5.0,6353.0,0.0,0.0,
2025-08-15T09:31:53.021Z,10,GR86-028-89,-1.6,0.127,-0.118,100.01,5.0,,0.0,0.0,187.04
2025-08-15T09:31:53.065Z,10,GR86-028-89,-1.6,0.13,-0.091,100.01,5.0,,0.0,0.0,
2025-08-15T09:31:53.108Z,10,GR86-028-89,-1.9,0.103,-0.102,99.99,5.0,,0.0,0.0,
2025-08-15T09:31:53.151Z,10,GR86-028-89,-2.3000000000000003,0.133,-0.076,99.99,5.0,,0.0,0.0,
2025-08-15T09:31:53.195Z,10,GR86-028-89,-3.0,0.074,-0.068,100.01,5.0,6377.0,0.0,0.0,
2025-08-15T09:31:53.238Z,10,GR86-028-89,-3.0,0.057,-0.067,99.99,5.0,,0.0,0.0,187.96
2025-08-15T09:31:53.281Z,10,GR86-028-89,-3.0,0.072,-0.057,99.99,5.0,,0.0,0.0,
2025-08-15T09:31:53.327Z,10,GR86-028-89,-3.0,0.08,-0.058,100.01,5.0,,0.0,0.0,
2025-08-15T09:31:53.369Z,10,GR86-028-89,-2.9000000000000004,0.074,-0.086,99.99,5.0,,0.0,0.0,
2025-08-15T09:31:53.412Z,10,GR86-028-89,-2.8000000000000003,0.1,-0.119,100.0,5.0,6422.0,0.0,0.0,
2025-08-15T09:31:53.458Z,10,GR86-028-89,-2.7,0.095,-0.105,99.99,5.0,,0.0,0.0,188.77
2025-08-15T09:31:53.501Z,10,GR86-028-89,-2.4000000000000004,0.063,-0.092,100.01,5.0,,0.0,0.0,
2025-08-15T09:31:53.545Z,10,GR86-028-89,-2.5,0.075,-0.111,100.01,5.0,,0.0,0.0,
2025-08-15T09:31:53.587Z,10,GR86-028-89,-2.8000000000000003,0.05,-0.112,99.99,5.0,,0.0,0.0,
2025-08-15T09:31:53.631Z,10,GR86-028-89,-2.8000000000000003,0.065,-0.12,100.01,5.0,6438.0,0.0,0.0,
2025-08-15T09:31:53.675Z,10,GR86-028-89,-3.0,0.129,-0.124,100.0,5.0,,0.0,0.0,189.49
2025-08-15T09:31:53.718Z,10,GR86-028-89,-3.5,0.104,-0.135,100.0,5.0,,0.0,0.0,
2025-08-15T09:31:53.761Z,10,GR86-028-89,-3.8,0.094,-0.14,100.01,5.0,,0.0,0.0,
2025-08-15T09:31:53.805Z,10,GR86-028-89,-3.8,0.098,-0.152,100.0,5.0,,0.0,0.0,
2025-08-15T09:31:53.848Z,10,GR86-028-89,-3.7,0.085,-0.153,100.01,5.0,6463.0,0.0,0.0,
2025-08-15T09:31:53.891Z,10,GR86-028-89,-3.5,0.078,-0.156,99.99,5.0,,0.0,0.0,190.35
2025-08-15T09:31:53.935Z,10,GR86-028-89,-3.1,0.102,-0.173,99.98,5.0,,0.0,0.0,
2025-08-15T09:31:53.978Z,10,GR86-028-89,-2.8000000000000003,0.094,-0.18,100.01,5.0,,0.0,0.0,
2025-08-15T09:31:54.021Z,10,GR86-028-89,-2.6,0.113,-0.153,100.0,5.0,,0.0,0.0,
2025-08-15T09:31:54.065Z,10,GR86-028-89,-2.3000000000000003,0.103,-0.154,99.98,5.0,6491.0,0.0,0.0,
2025-08-15T09:31:54.108Z,10,GR86-028-89,-1.9,0.1,-0.156,100.02,5.0,,0.0,0.0,191.15
2025-08-15T09:31:54.151Z,10,GR86-028-89,-1.7000000000000002,0.092,-0.144,100.0,5.0,,0.0,0.0,
2025-08-15T09:31:54.195Z,10,GR86-028-89,-1.7000000000000002,0.076,-0.133,99.99,5.0,,0.0,0.0,
2025-08-15T09:31:54.238Z,10,GR86-028-89,-1.6,0.099,-0.127,99.98,5.0,,0.0,0.0,
2025-08-15T09:31:54.281Z,10,GR86-028-89,-1.4,0.092,-0.132,99.99,5.0,6523.0,0.0,0.0,
2025-08-15T09:31:54.326Z,10,GR86-028-89,-1.1,0.096,-0.113,100.02,5.0,,0.0,0.0,192.76
2025-08-15T09:31:54.369Z,10,GR86-028-89,-0.6000000000000001,0.107,-0.118,99.98,5.0,,0.0,0.0,
2025-08-15T09:31:54.412Z,10,GR86-028-89,-0.4,0.103,-0.101,99.98,5.0,,0.0,0.0,
2025-08-15T09:31:54.455Z,10,GR86-028-89,-0.1,0.054,-0.068,99.99,5.0,,0.0,0.0,
2025-08-15T09:31:54.498Z,10,GR86-028-89,0.2,0.085,-0.044,99.99,5.0,6544.0,0.0,0.0,
2025-08-15T09:31:54.541Z,10,GR86-028-89,0.7000000000000001,0.076,-0.058,100.0,5.0,,0.0,0.0,193.41
2025-08-15T09:31:54.586Z,10,GR86-028-89,1.1,0.098,-0.035,99.99,5.0,,0.0,0.0,
2025-08-15T09:31:54.628Z,10,GR86-028-89,1.4,0.085,-0.021,99.99,5.0,,0.0,0.0,
2025-08-15T09:31:54.671Z,10,GR86-028-89,1.6,0.113,-0.022,100.0,5.0,,0.0,0.0,
2025-08-15T09:31:54.716Z,10,GR86-028-89,1.6,0.056,0.008,100.01,5.0,6587.0,0.0,0.0,
2025-08-15T09:31:54.759Z,10,GR86-028-89,1.5,0.057,-0.009,99.97,5.0,,0.0,0.0,194.12
2025-08-15T09:31:54.802Z,10,GR86-028-89,1.4,0.079,0.0,100.0,5.0,,0.0,0.0,
2025-08-15T09:31:54.845Z,10,GR86-028-89,1.4,0.075,0.023,100.01,5.0,,0.0,0.0,
2025-08-15T09:31:54.888Z,10,GR86-028-89,1.4,0.094,0.01,100.0,5.0,,0.0,0.0,
2025-08-15T09:31:54.931Z,10,GR86-028-89,1.4,0.102,0.02,100.0,5.0,6615.0,0.0,0.0,
2025-08-15T09:31:54.976Z,10,GR86-028-89,1.5,0.068,0.02,100.01,5.0,,0.0,0.0,194.86
2025-08-15T09:31:55.018Z,10,GR86-028-89,1.5,0.059,0.016,99.99,5.0,,0.0,0.0,
2025-08-15T09:31:55.061Z,10,GR86-028-89,1.4,0.074,0.04,99.99,5.0,,0.0,0.0,
2025-08-15T09:31:55.105Z,10,GR86-028-89,1.8,0.089,0.029,100.0,5.0,,0.0,0.0,
2025-08-15T09:31:55.148Z,10,GR86-028-89,2.0,0.105,0.031,99.98,5.0,6634.0,0.0,0.0,
2025-08-15T09:31:55.191Z,10,GR86-028-89,2.0,0.096,0.008,99.98,5.0,,0.0,0.0,195.56
2025-08-15T09:31:55.236Z,10,GR86-028-89,1.5,0.053,0.001,100.0,5.0,,0.0,0.0,
2025-08-15T09:31:55.278Z,10,GR86-028-89,1.0,0.055,-0.016,99.99,5.0,,0.0,0.0,
2025-08-15T09:31:55.321Z,10,GR86-028-89,0.8,0.064,0.014,99.99,5.0,,0.0,0.0,
2025-08-15T09:31:55.365Z,10,GR86-028-89,0.8,0.097,0.034,99.99,5.0,6663.0,0.0,0.0,
2025-08-15T09:31:55.408Z,10,GR86-028-89,0.9,0.081,0.027,100.0,5.0,,0.0,0.0,196.23
2025-08-15T09:31:55.451Z,10,GR86-028-89,1.0,0.104,0.001,99.99,5.0,,0.0,0.0,
2025-08-15T09:31:55.495Z,10,GR86-028-89,0.0,0.07,0.005,99.97,5.0,,0.0,0.0,
2025-08-15T09:31:55.538Z,10,GR86-028-89,-0.4,0.074,-0.001,99.98,5.0,,0.0,0.0,
2025-08-15T09:31:55.581Z,10,GR86-028-89,-0.4,0.098,-0.02,100.0,5.0,6694.0,0.0,0.0,
2025-08-15T09:31:55.626Z,10,GR86-028-89,0.0,0.079,-0.009,99.98,5.0,,0.0,0.0,197.03
2025-08-15T09:31:55.669Z,10,GR86-028-89,0.4,0.11,-0.054,100.0,5.0,,0.0,0.0,
2025-08-15T09:31:55.712Z,10,GR86-028-89,0.5,0.108,-0.042,100.01,5.0,,0.0,0.0,
2025-08-15T09:31:55.755Z,10,GR86-028-89,0.5,0.07,-0.042,100.0,5.0,,0.0,0.0,
2025-08-15T09:31:55.798Z,10,GR86-028-89,0.8,0.09,-0.036,99.99,5.0,6713.0,0.0,0.0,
2025-08-15T09:31:55.841Z,10,GR86-028-89,1.3,0.085,-0.041,99.95,5.0,,0.0,0.0,197.76
2025-08-15T09:31:55.885Z,10,GR86-028-89,1.6,0.119,-0.035,99.99,5.0,,0.0,0.0,
2025-08-15T09:31:55.927Z,10,GR86-028-89,1.9,0.089,-0.024,99.99,5.0,,0.0,0.0,
2025-08-15T09:31:55.970Z,10,GR86-028-89,2.2,0.094,-0.008,99.99,5.0,,0.0,0.0,
2025-08-15T09:31:56.016Z,10,GR86-028-89,4.0,0.088,0.025,100.0,5.0,6740.0,0.0,0.0,
2025-08-15T09:31:56.058Z,10,GR86-028-89,5.6000000000000005,0.1,0.062,100.01,5.0,,0.0,0.0,198.46
2025-08-15T09:31:56.101Z,10,GR86-028-89,6.7,0.096,0.076,100.0,5.0,,0.0,0.0,
2025-08-15T09:31:56.145Z,10,GR86-028-89,7.6,0.096,0.107,100.02,5.0,,0.0,0.0,
2025-08-15T09:31:56.187Z,10,GR86-028-89,7.800000000000001,0.106,0.168,100.0,5.0,,0.0,0.0,
2025-08-15T09:31:56.230Z,10,GR86-028-89,7.2,0.08,0.199,100.0,5.0,6762.0,0.0,0.0,
2025-08-15T09:31:56.275Z,10,GR86-028-89,5.6000000000000005,0.095,0.249,100.02,5.0,,0.0,0.0,199.19
2025-08-15T09:31:56.318Z,10,GR86-028-89,4.3,0.14,0.242,99.98,5.0,,0.0,0.0,
2025-08-15T09:31:56.361Z,10,GR86-028-89,3.3000000000000003,0.093,0.24,100.0,5.0,,0.0,0.0,
2025-08-15T09:31:56.405Z,10,GR86-028-89,2.8000000000000003,0.089,0.188,100.0,5.0,,0.0,0.0,
2025-08-15T09:31:56.448Z,10,GR86-028-89,2.2,0.091,0.191,100.02,5.0,6794.0,0.0,0.0,
2025-08-15T09:31:56.491Z,10,GR86-028-89,1.4,0.064,0.164,99.99,5.0,,0.0,0.0,199.97
2025-08-15T09:31:56.536Z,10,GR86-028-89,1.4,0.09,0.127,100.0,5.0,,0.0,0.0,
2025-08-15T09:31:56.578Z,10,GR86-028-89,1.4,0.11,0.104,100.03,5.0,,0.0,0.0,
2025-08-15T09:31:56.621Z,10,GR86-028-89,1.3,0.082,0.073,100.01,5.0,,0.0,0.0,
2025-08-15T09:31:56.665Z,10,GR86-028-89,0.6000000000000001,0.091,0.071,100.01,5.0,6816.0,0.0,0.0,
2025-08-15T09:31:56.708Z,10,GR86-028-89,0.2,0.077,0.057,99.99,5.0,,0.0,0.0,200.78
2025-08-15T09:31:56.751Z,10,GR86-028-89,0.2,0.1,0.041,99.97,5.0,,0.0,0.0,
2025-08-15T09:31:56.795Z,10,GR86-028-89,-0.4,0.097,0.049,100.01,5.0,,0.0,0.0,
2025-08-15T09:31:56.838Z,10,GR86-028-89,-1.9,0.061,0.029,99.99,5.0,,0.0,0.0,
2025-08-15T09:31:56.881Z,10,GR86-028-89,-2.8000000000000003,0.08,0.0,99.97,5.0,6842.0,0.0,0.0,
2025-08-15T09:31:56.927Z,10,GR86-028-89,-2.8000000000000003,0.081,-0.049,99.99,5.0,,0.0,0.0,202.3
2025-08-15T09:31:56.969Z,10,GR86-028-89,-2.7,0.094,-0.055,100.01,5.0,,0.0,0.0,
2025-08-15T09:31:57.012Z,10,GR86-028-89,-3.1,0.101,-0.044,100.03,5.0,,0.0,0.0,
2025-08-15T09:31:57.055Z,10,GR86-028-89,-3.1,0.09,-0.098,99.99,5.0,,0.0,0.0,
2025-08-15T09:31:57.098Z,10,GR86-028-89,-3.1,0.069,-0.124,100.01,5.0,6874.0,0.0,0.0,
2025-08-15T09:31:57.141Z,10,GR86-028-89,-2.7,0.106,-0.183,100.01,5.0,,0.0,0.0,203.03
2025-08-15T09:31:57.186Z,10,GR86-028-89,-2.4000000000000004,0.088,-0.183,99.99,5.0,,0.0,0.0,
2025-08-15T09:31:57.228Z,10,GR86-028-89,-2.4000000000000004,0.112,-0.149,100.01,5.0,,0.0,0.0,
2025-08-15T09:31:57.271Z,10,GR86-028-89,-2.3000000000000003,0.077,-0.175,100.0,5.0,,0.0,0.0,
2025-08-15T09:31:57.316Z,10,GR86-028-89,-1.9,0.098,-0.167,99.99,5.0,6924.0,0.0,0.0,
2025-08-15T09:31:57.359Z,10,GR86-028-89,-1.6,0.071,-0.168,100.02,5.0,,0.0,0.0,203.73
2025-08-15T09:31:57.402Z,10,GR86-028-89,-1.6,0.116,-0.176,100.02,5.0,,0.0,0.0,
2025-08-15T09:31:57.445Z,10,GR86-028-89,-1.1,0.062,-0.126,100.01,5.0,,0.0,0.0,
2025-08-15T09:31:57.488Z,10,GR86-028-89,-0.9,0.077,-0.105,100.02,5.0,,0.0,0.0,
2025-08-15T09:31:57.531Z,10,GR86-028-89,-0.8,0.059,-0.084,100.02,5.0,6944.0,0.0,0.0,
2025-08-15T09:31:57.575Z,10,GR86-028-89,0.1,0.076,-0.09,100.0,5.0,,0.0,0.0,204.62
2025-08-15T09:31:57.618Z,10,GR86-028-89,0.1,0.087,-0.068,100.0,5.0,,0.0,0.0,
2025-08-15T09:31:57.661Z,10,GR86-028-89,-0.5,0.072,-0.057,100.0,5.0,,0.0,0.0,
2025-08-15T09:31:57.705Z,10,GR86-028-89,-0.1,0.087,-0.041,100.0,5.0,,0.0,0.0,
2025-08-15T09:31:57.747Z,10,GR86-028-89,1.1,0.068,-0.021,100.01,5.0,6975.0,0.0,0.0,
2025-08-15T09:31:57.790Z,10,GR86-028-89,2.0,0.092,-0.02,100.0,5.0,,0.0,0.0,205.36
2025-08-15T09:31:57.835Z,10,GR86-028-89,4.2,0.081,0.004,100.0,5.0,,0.0,0.0,
2025-08-15T09:31:57.878Z,10,GR86-028-89,5.5,0.081,0.027,99.98,5.0,,0.0,0.0,
2025-08-15T09:31:57.921Z,10,GR86-028-89,5.6000000000000005,0.078,0.06,100.01,5.0,,0.0,0.0,
2025-08-15T09:31:57.965Z,10,GR86-028-89,5.4,0.106,0.101,100.0,5.0,6995.0,0.0,0.0,
2025-08-15T09:31:58.008Z,10,GR86-028-89,5.4,0.086,0.109,99.99,5.0,,0.0,0.0,206.26
2025-08-15T09:31:58.051Z,10,GR86-028-89,5.2,0.073,0.123,100.03,5.0,,0.0,0.0,
2025-08-15T09:31:58.096Z,10,GR86-028-89,4.800000000000001,0.071,0.125,99.99,5.0,,0.0,0.0,
2025-08-15T09:31:58.138Z,10,GR86-028-89,4.800000000000001,0.064,0.17,99.99,5.0,,0.0,0.0,
2025-08-15T09:31:58.181Z,10,GR86-028-89,5.300000000000001,0.076,0.171,100.0,5.0,7023.0,0.0,0.0,
2025-08-15T09:31:58.226Z,10,GR86-028-89,6.4,0.038,0.188,99.98,5.0,,0.0,0.0,206.97
2025-08-15T09:31:58.269Z,10,GR86-028-89,7.6,0.064,0.199,99.96,5.0,,0.0,0.0,
2025-08-15T09:31:58.312Z,10,GR86-028-89,7.7,0.068,0.218,99.99,5.0,,0.0,0.0,
2025-08-15T09:31:58.355Z,10,GR86-028-89,6.5,0.08,0.225,100.0,5.0,,0.0,0.0,
2025-08-15T09:31:58.398Z,10,GR86-028-89,6.0,0.025,0.214,100.01,5.0,7048.0,0.0,0.0,
2025-08-15T09:31:58.441Z,10,GR86-028-89,5.800000000000001,0.062,0.213,99.98,5.0,,0.0,0.0,207.67
2025-08-15T09:31:58.486Z,10,GR86-028-89,5.7,0.06,0.217,100.01,5.0,,0.0,0.0,
2025-08-15T09:31:58.528Z,10,GR86-028-89,5.9,0.077,0.227,99.99,5.0,,0.0,0.0,
2025-08-15T09:31:58.571Z,10,GR86-028-89,6.1000000000000005,0.066,0.22,99.98,5.0,,0.0,0.0,
2025-08-15T09:31:58.616Z,10,GR86-028-89,6.4,0.075,0.228,100.01,5.0,7072.0,0.0,0.0,
2025-08-15T09:31:58.659Z,10,GR86-028-89,7.2,0.068,0.205,100.02,5.0,,0.0,0.0,208.3
2025-08-15T09:31:58.702Z,10,GR86-028-89,7.800000000000001,0.046,0.206,99.98,5.0,,0.0,0.0,
2025-08-15T09:31:58.745Z,10,GR86-028-89,8.0,0.063,0.222,99.99,5.0,,0.0,0.0,
2025-08-15T09:31:58.788Z,10,GR86-028-89,8.0,0.064,0.244,99.99,5.0,,0.0,0.0,
2025-08-15T09:31:58.831Z,10,GR86-028-89,8.1,0.055,0.285,99.98,5.0,7081.0,0.0,0.0,
2025-08-15T09:31:58.876Z,10,GR86-028-89,8.3,0.04,0.32,100.0,5.0,,0.0,0.0,208.81
2025-08-15T09:31:58.919Z,10,GR86-028-89,8.5,0.033,0.344,99.98,5.0,,0.0,0.0,
2025-08-15T09:31:58.962Z,10,GR86-028-89,8.6,0.071,0.33,100.0,5.0,,0.0,0.0,
2025-08-15T09:31:59.005Z,10,GR86-028-89,8.6,0.035,0.364,99.96,5.0,,0.0,0.0,
2025-08-15T09:31:59.048Z,10,GR86-028-89,8.700000000000001,0.069,0.342,100.0,5.0,7104.0,0.0,0.0,
2025-08-15T09:31:59.091Z,10,GR86-028-89,8.8,0.052,0.317,100.0,5.0,,0.0,0.0,209.44
2025-08-15T09:31:59.136Z,10,GR86-028-89,8.8,0.066,0.304,99.98,5.0,,0.0,0.0,
2025-08-15T09:31:59.179Z,10,GR86-028-89,8.8,0.07,0.312,100.0,5.0,,0.0,0.0,
2025-08-15T09:31:59.222Z,10,GR86-028-89,8.8,0.036,0.354,99.99,5.0,,0.0,0.0,
2025-08-15T09:31:59.265Z,10,GR86-028-89,8.9,0.076,0.335,100.0,5.0,7128.0,0.0,0.0,
2025-08-15T09:31:59.308Z,10,GR86-028-89,9.8,0.048,0.331,100.02,5.0,,0.0,0.0,210.09
2025-08-15T09:31:59.351Z,10,GR86-028-89,10.9,0.056,0.324,99.99,5.0,,0.0,0.0,
2025-08-15T09:31:59.395Z,10,GR86-028-89,11.8,0.053,0.348,100.01,5.0,,0.0,0.0,
2025-08-15T09:31:59.438Z,10,GR86-028-89,11.7,0.047,0.375,100.0,5.0,,0.0,0.0,
2025-08-15T09:31:59.481Z,10,GR86-028-89,11.0,0.057,0.397,99.99,5.0,7147.0,0.0,0.0,
2025-08-15T09:31:59.526Z,10,GR86-028-89,10.7,0.064,0.41,99.98,5.0,,0.0,0.0,211.17
2025-08-15T09:31:59.569Z,10,GR86-028-89,9.8,0.049,0.45,100.0,5.0,,0.0,0.0,
2025-08-15T09:31:59.612Z,10,GR86-028-89,8.5,0.06,0.442,100.0,5.0,,0.0,0.0,
2025-08-15T09:31:59.658Z,10,GR86-028-89,7.300000000000001,0.057,0.468,99.99,5.0,,0.0,0.0,
2025-08-15T09:31:59.701Z,10,GR86-028-89,5.9,0.044,0.428,100.0,5.0,7165.0,0.0,0.0,
2025-08-15T09:31:59.745Z,10,GR86-028-89,5.4,0.052,0.407,100.01,5.0,,0.0,0.0,211.6
2025-08-15T09:31:59.787Z,10,GR86-028-89,5.300000000000001,0.065,0.36,99.98,5.0,,0.0,0.0,
2025-08-15T09:31:59.830Z,10,GR86-028-89,5.300000000000001,0.064,0.328,99.97,5.0,,0.0,0.0,
2025-08-15T09:31:59.875Z,10,GR86-028-89,6.1000000000000005,0.046,0.277,99.98,5.0,,0.0,0.0,
2025-08-15T09:31:59.918Z,10,GR86-028-89,6.5,0.041,0.294,99.97,5.0,7201.0,0.0,0.0,
2025-08-15T09:31:59.961Z,10,GR86-028-89,6.800000000000001,0.06,0.289,99.99,5.0,,0.0,0.0,212.18
2025-08-15T09:32:00.005Z,10,GR86-028-89,7.7,0.056,0.269,84.53,5.0,,0.0,0.0,
2025-08-15T09:32:00.048Z,10,GR86-028-89,8.8,0.037,0.275,10.71,5.0,,0.0,0.0,
2025-08-15T09:32:00.091Z,10,GR86-028-89,9.5,0.043,0.252,3.14,5.0,,0.0,0.0,
2025-08-15T09:32:00.136Z,10,GR86-028-89,6.5,-0.2,0.291,2.73,5.0,7205.0,0.0,0.0,
2025-08-15T09:32:00.178Z,10,GR86-028-89,3.5,-0.265,0.276,2.67,5.0,,4.0,4.3950000000000005,212.85
2025-08-15T09:32:00.221Z,10,GR86-028-89,1.8,-0.366,0.206,2.62,5.0,,22.905,23.395,
2025-08-15T09:32:00.308Z,10,GR86-028-89,1.3,-0.673,0.175,2.56,5.0,,38.15,38.075,
2025-08-15T09:32:00.351Z,10,GR86-028-89,1.1,-0.757,0.157,2.56,5.0,7093.0,41.83,41.795,
2025-08-15T09:32:00.395Z,10,GR86-028-89,2.8000000000000003,-0.861,0.115,2.54,5.0,,44.435,44.405,212.79
2025-08-15T09:32:00.438Z,10,GR86-028-89,4.7,-0.969,0.12,2.52,5.0,,45.4,45.4,
2025-08-15T09:32:00.481Z,10,GR86-028-89,5.2,-0.957,0.137,2.53,5.0,,45.81,45.84,
2025-08-15T09:32:00.527Z,10,GR86-028-89,5.4,-0.991,0.129,2.52,5.0,,46.145,46.435,
2025-08-15T09:32:00.569Z,10,GR86-028-89,6.1000000000000005,-0.967,0.137,2.51,5.0,6732.0,46.53,46.77,
2025-08-15T09:32:00.612Z,10,GR86-028-89,7.0,-0.971,0.137,2.5,5.0,,46.465,46.77,207.46
2025-08-15T09:32:00.658Z,10,GR86-028-89,7.0,-0.998,0.124,2.49,5.0,,45.065,45.84,
2025-08-15T09:32:00.701Z,10,GR86-028-89,7.1000000000000005,-0.993,0.184,2.49,5.0,,41.86,43.675,
2025-08-15T09:32:00.745Z,10,GR86-028-89,7.0,-0.961,0.19,2.5,5.0,,37.8,39.75,
2025-08-15T09:32:00.787Z,10,GR86-028-89,6.2,-0.921,0.232,2.5,5.0,6421.0,35.205,36.9,
2025-08-15T09:32:00.831Z,10,GR86-028-89,5.9,-0.905,0.257,2.5,5.0,,34.455,35.955,200.71
2025-08-15T09:32:00.876Z,10,GR86-028-89,4.6000000000000005,-0.845,0.296,2.49,5.0,,34.595,35.83,
2025-08-15T09:32:00.918Z,10,GR86-028-89,3.9,-0.866,0.333,2.5,5.0,,34.93,35.955,
2025-08-15T09:32:00.961Z,10,GR86-028-89,3.5,-0.841,0.308,2.49,5.0,,35.31,36.335,
2025-08-15T09:32:01.005Z,10,GR86-028-89,2.7,-0.8290000000000001,0.288,2.49,5.0,6326.0,35.985,36.67,
2025-08-15T09:32:01.048Z,10,GR86-028-89,1.9,-0.859,0.298,2.5,5.0,,36.67,37.02,194.9
2025-08-15T09:32:01.091Z,10,GR86-028-89,1.6,-0.927,0.291,2.49,5.0,,36.67,37.235,
2025-08-15T09:32:01.135Z,10,GR86-028-89,3.0,-0.852,0.286,2.49,5.0,,36.67,37.325,
2025-08-15T09:32:01.178Z,10,GR86-028-89,4.1000000000000005,-0.838,0.273,2.49,5.0,,36.67,37.355,
2025-08-15T09:32:01.221Z,10,GR86-028-89,4.4,-0.8260000000000001,0.252,2.49,5.0,6124.0,36.67,37.355,
2025-08-15T09:32:01.265Z,10,GR86-028-89,4.3,-0.804,0.219,2.49,5.0,,36.87,37.385,188.98
2025-08-15T09:32:01.308Z,10,GR86-028-89,3.9,-0.8140000000000001,0.221,2.49,5.0,,37.02,37.705,
2025-08-15T09:32:01.351Z,10,GR86-028-89,3.8,-0.809,0.189,2.49,5.0,,37.08,37.705,
2025-08-15T09:32:01.395Z,10,GR86-028-89,4.4,-0.867,0.138,3.21,5.0,,36.96,37.675,
2025-08-15T09:32:01.438Z,10,GR86-028-89,4.7,-0.877,0.142,43.44,5.0,5991.0,35.71,36.9,
2025-08-15T09:32:01.481Z,10,GR86-028-89,5.4,-0.878,0.167,91.95,5.0,,33.22,34.81,183.77
2025-08-15T09:32:01.526Z,10,GR86-028-89,7.0,-0.797,0.213,99.54,5.0,,31.62,33.160000000000004,
2025-08-15T09:32:01.569Z,10,GR86-028-89,7.0,-0.713,0.185,50.99,4.0,,30.995,32.335,
2025-08-15T09:32:01.612Z,10,GR86-028-89,6.6000000000000005,-0.8310000000000001,0.173,5.68,4.0,,31.36,32.475,
2025-08-15T09:32:01.655Z,10,GR86-028-89,6.0,-0.868,0.227,3.66,4.0,5821.0,33.77,34.215,
2025-08-15T09:32:01.698Z,10,GR86-028-89,6.0,-0.785,0.143,3.34,4.0,,34.52,34.9,178.31
2025-08-15T09:32:01.741Z,10,GR86-028-89,5.4,-0.79,0.237,3.13,4.0,,34.595,34.96,
2025-08-15T09:32:01.828Z,10,GR86-028-89,5.300000000000001,-0.799,0.193,2.94,4.0,,34.335,34.96,
2025-08-15T09:32:01.871Z,10,GR86-028-89,5.2,-0.795,0.267,2.76,4.0,6603.0,34.245,34.81,
2025-08-15T09:32:01.916Z,10,GR86-028-89,5.2,-0.876,0.203,2.68,4.0,,34.425000000000004,35.02,167.8
2025-08-15T09:32:01.959Z,10,GR86-028-89,4.4,-0.856,0.248,2.65,4.0,,35.235,35.495,
2025-08-15T09:32:02.002Z,10,GR86-028-89,3.0,-0.804,0.213,10.13,4.0,,36.515,36.64,
2025-08-15T09:32:02.045Z,10,GR86-028-89,2.2,-0.8220000000000001,0.177,55.86,4.0,,37.645,37.74,
2025-08-15T09:32:02.088Z,10,GR86-028-89,2.2,-0.847,0.205,97.91,4.0,6282.0,38.015,38.32,
2025-08-15T09:32:02.131Z,10,GR86-028-89,2.7,-0.86,0.171,99.78,3.0,,38.075,38.38,162.79
2025-08-15T09:32:02.176Z,10,GR86-028-89,3.4000000000000004,-0.959,0.073,9.66,3.0,,39.125,39.31,
2025-08-15T09:32:02.218Z,10,GR86-028-89,4.0,-1.12,0.219,3.26,3.0,,46.175,47.335,
2025-08-15T09:32:02.261Z,10,GR86-028-89,4.9,-0.919,0.037,2.8000000000000003,3.0,,56.005,56.845,
2025-08-15T09:32:02.305Z,10,GR86-028-89,5.0,-1.174,0.124,2.69,3.0,6123.0,63.255,63.285,
2025-08-15T09:32:02.348Z,10,GR86-028-89,4.9,-1.139,0.181,2.64,3.0,,68.96000000000001,68.685,157.24
2025-08-15T09:32:02.391Z,10,GR86-028-89,5.1000000000000005,-1.185,0.043,2.61,3.0,,71.495,72.7,
2025-08-15T09:32:02.436Z,10,GR86-028-89,5.2,-1.152,0.203,2.58,3.0,,71.295,72.21000000000001,
2025-08-15T09:32:02.478Z,10,GR86-028-89,5.1000000000000005,-1.143,0.157,2.5500000000000003,3.0,,71.295,72.3,
2025-08-15T09:32:02.521Z,10,GR86-028-89,4.800000000000001,-1.248,0.172,2.5500000000000003,3.0,6419.0,70.96000000000001,72.01,
2025-08-15T09:32:02.565Z,10,GR86-028-89,4.2,-1.164,0.242,2.56,3.0,,72.395,73.69,148.5
2025-08-15T09:32:02.608Z,10,GR86-028-89,4.1000000000000005,-1.257,0.194,26.99,3.0,,74.83500000000001,74.955,
2025-08-15T09:32:02.651Z,10,GR86-028-89,3.5,-1.272,0.232,74.53,3.0,,79.93,79.78,
2025-08-15T09:32:02.695Z,10,GR86-028-89,3.0,-1.348,0.204,44.18,2.0,,88.25,88.02,
2025-08-15T09:32:02.738Z,10,GR86-028-89,1.6,-1.427,0.207,4.39,2.0,6156.0,93.21,95.48,
2025-08-15T09:32:02.781Z,10,GR86-028-89,0.7000000000000001,-1.411,0.248,2.91,2.0,,95.65,98.215,141.02
2025-08-15T09:32:02.826Z,10,GR86-028-89,0.7000000000000001,-1.378,0.217,2.72,2.0,,88.705,88.95,
2025-08-15T09:32:02.869Z,10,GR86-028-89,-0.6000000000000001,-1.142,0.355,2.65,2.0,,79.96000000000001,81.33500000000001,
2025-08-15T09:32:02.912Z,10,GR86-028-89,-0.8,-1.124,0.141,2.62,2.0,,69.28,71.37,
2025-08-15T09:32:02.955Z,10,GR86-028-89,-1.1,-1.354,0.36,2.58,2.0,6547.0,62.03,63.835,
2025-08-15T09:32:02.998Z,10,GR86-028-89,-0.8,-1.179,0.362,2.5500000000000003,2.0,,60.825,63.085,132.49
2025-08-15T09:32:03.041Z,10,GR86-028-89,0.0,-1.126,0.219,2.56,2.0,,61.97,63.74,
2025-08-15T09:32:03.085Z,10,GR86-028-89,-0.2,-1.298,0.485,2.5500000000000003,2.0,,63.65,64.64,
2025-08-15T09:32:03.127Z,10,GR86-028-89,0.6000000000000001,-1.281,0.349,2.54,2.0,,64.61,65.985,
2025-08-15T09:32:03.170Z,10,GR86-028-89,1.3,-1.069,0.221,2.52,2.0,6411.0,63.345,64.52,
2025-08-15T09:32:03.216Z,10,GR86-028-89,0.6000000000000001,-1.141,0.361,2.53,2.0,,57.41,58.245000000000005,125.56
2025-08-15T09:32:03.258Z,10,GR86-028-89,0.5,-1.164,0.149,2.52,2.0,,56.25,57.65,
2025-08-15T09:32:03.301Z,10,GR86-028-89,0.1,-1.163,0.169,2.52,2.0,,55.605,57.24,
2025-08-15T09:32:03.345Z,10,GR86-028-89,-0.5,-1.153,0.193,2.5,2.0,,53.685,55.545,
2025-08-15T09:32:03.387Z,10,GR86-028-89,0.5,-1.106,0.059,29.1,2.0,6312.0,50.22,52.08,
2025-08-15T09:32:03.430Z,10,GR86-028-89,1.1,-1.045,0.077,53.52,1.0,,45.55,47.245,116.9
2025-08-15T09:32:03.475Z,10,GR86-028-89,1.3,-1.195,0.005,4.57,1.0,,39.43,41.05,
2025-08-15T09:32:03.518Z,10,GR86-028-89,2.9000000000000004,-0.967,0.161,4.22,1.0,,38.41,39.815,
2025-08-15T09:32:03.561Z,10,GR86-028-89,5.7,-1.045,-0.123,3.74,1.0,,36.73,37.555,
2025-08-15T09:32:03.605Z,10,GR86-028-89,6.5,-1.303,0.147,3.33,1.0,6201.0,34.685,35.68,
2025-08-15T09:32:03.648Z,10,GR86-028-89,8.4,-1.012,0.129,3.04,1.0,,34.395,35.615,109.33
2025-08-15T09:32:03.691Z,10,GR86-028-89,11.4,-0.79,-0.135,2.86,1.0,,34.99,35.77,
2025-08-15T09:32:03.735Z,10,GR86-028-89,12.3,-1.139,0.269,2.72,1.0,,38.655,39.935,
2025-08-15T09:32:03.778Z,10,GR86-028-89,12.7,-1.162,0.028,2.65,1.0,,41.02,42.27,
2025-08-15T09:32:03.821Z,10,GR86-028-89,14.2,-0.973,0.201,2.61,1.0,6758.0,40.24,40.99,
2025-08-15T09:32:03.865Z,10,GR86-028-89,17.900000000000002,-0.881,0.299,2.57,1.0,,38.655,39.19,102.9
2025-08-15T09:32:03.908Z,10,GR86-028-89,22.200000000000003,-0.948,0.198,2.56,1.0,,37.265,38.045,
2025-08-15T09:32:03.951Z,10,GR86-028-89,24.9,-0.888,0.368,2.5500000000000003,1.0,,35.145,36.365,
2025-08-15T09:32:03.995Z,10,GR86-028-89,29.8,-0.809,0.386,2.54,1.0,,29.74,30.965,
2025-08-15T09:32:04.038Z,10,GR86-028-89,34.5,-0.7020000000000001,0.473,2.52,1.0,6887.0,27.085,28.155,
2025-08-15T09:32:04.081Z,10,GR86-028-89,39.400000000000006,-0.6910000000000001,0.5730000000000001,2.53,1.0,,25.665,26.72,95.67
2025-08-15T09:32:04.126Z,10,GR86-028-89,44.1,-0.654,0.5750000000000001,2.53,1.0,,25.15,26.17,
2025-08-15T09:32:04.169Z,10,GR86-028-89,49.6,-0.666,0.67,2.52,1.0,,25.605,26.2,
2025-08-15T09:32:04.212Z,10,GR86-028-89,55.5,-0.637,0.746,2.52,1.0,,26.295,27.055,
2025-08-15T09:32:04.258Z,10,GR86-028-89,63.900000000000006,-0.762,0.782,2.52,1.0,6359.0,27.71,28.305,
2025-08-15T09:32:04.301Z,10,GR86-028-89,68.2,-0.755,0.858,2.51,1.0,,28.78,29.56,90.05
2025-08-15T09:32:04.345Z,10,GR86-028-89,71.0,-0.752,0.887,2.52,1.0,,29.865,30.55,
2025-08-15T09:32:04.387Z,10,GR86-028-89,73.10000000000001,-0.7010000000000001,0.901,2.52,1.0,,31.115,31.54,
2025-08-15T09:32:04.431Z,10,GR86-028-89,75.5,-0.684,1.034,2.49,1.0,,31.51,32.14,
2025-08-15T09:32:04.475Z,10,GR86-028-89,78.80000000000001,-0.577,0.984,2.5,1.0,5952.0,20.175,21.12,
2025-08-15T09:32:04.518Z,10,GR86-028-89,80.60000000000001,-0.42,1.146,2.5,1.0,,8.455,9.035,81.94
2025-08-15T09:32:04.561Z,10,GR86-028-89,83.30000000000001,-0.298,1.176,11.38,1.0,,0.0,2.135,
2025-08-15T09:32:04.605Z,10,GR86-028-89,88.9,-0.238,1.142,24.12,1.0,,0.0,0.0,
2025-08-15T09:32:04.648Z,10,GR86-028-89,93.7,-0.235,1.203,24.73,1.0,,0.0,0.0,
2025-08-15T09:32:04.691Z,10,GR86-028-89,92.3,-0.176,1.21,26.7,1.0,5578.0,0.0,0.0,
2025-08-15T09:32:04.735Z,10,GR86-028-89,77.10000000000001,-0.095,1.211,31.6,1.0,,0.0,0.0,79.16
2025-08-15T09:32:04.777Z,10,GR86-028-89,67.9,-0.034,1.181,33.12,1.0,,0.0,0.0,
2025-08-15T09:32:04.820Z,10,GR86-028-89,65.2,0.214,1.099,33.29,1.0,,0.0,0.0,
2025-08-15T09:32:04.865Z,10,GR86-028-89,65.4,0.282,1.081,32.910000000000004,1.0,,0.0,0.0,
2025-08-15T09:32:04.908Z,10,GR86-028-89,66.2,0.317,1.125,32.11,1.0,5631.0,0.0,0.0,
2025-08-15T09:32:04.951Z,10,GR86-028-89,69.0,0.293,1.099,31.57,1.0,,0.0,0.0,77.9
2025-08-15T09:32:04.995Z,10,GR86-028-89,79.10000000000001,0.21,1.122,30.82,1.0,,0.0,0.0,
2025-08-15T09:32:05.038Z,10,GR86-028-89,87.10000000000001,0.176,1.172,30.84,1.0,,0.0,0.0,
2025-08-15T09:32:05.081Z,10,GR86-028-89,93.3,0.146,1.219,30.98,1.0,,0.0,0.0,
2025-08-15T09:32:05.126Z,10,GR86-028-89,97.1,0.127,1.226,31.01,1.0,5908.0,0.0,0.0,
2025-08-15T09:32:05.169Z,10,GR86-028-89,98.3,0.151,1.222,30.6,1.0,,0.0,0.0,78.7
2025-08-15T09:32:05.212Z,10,GR86-028-89,97.1,0.154,1.215,29.06,1.0,,0.0,0.0,
2025-08-15T09:32:05.258Z,10,GR86-028-89,81.5,0.173,1.243,22.12,1.0,,0.0,0.0,
2025-08-15T09:32:05.301Z,10,GR86-028-89,70.4,0.171,1.123,20.63,1.0,,0.0,0.0,
2025-08-15T09:32:05.345Z,10,GR86-028-89,70.60000000000001,0.154,1.145,20.95,1.0,5992.0,0.0,0.0,
2025-08-15T09:32:05.387Z,10,GR86-028-89,81.0,0.107,1.126,21.27,1.0,,0.0,0.0,79.73
2025-08-15T09:32:05.430Z,10,GR86-028-89,95.1,0.06,1.192,21.31,1.0,,0.0,0.0,
2025-08-15T09:32:05.476Z,10,GR86-028-89,112.9,0.0,1.258,21.43,1.0,,0.0,0.0,
2025-08-15T09:32:05.519Z,10,GR86-028-89,118.7,0.006,1.258,21.43,1.0,,0.0,0.0,
2025-08-15T09:32:05.562Z,10,GR86-028-89,119.3,0.001,1.24,22.78,1.0,5983.0,0.0,0.0,
2025-08-15T09:32:05.605Z,10,GR86-028-89,117.4,0.024,1.333,26.01,1.0,,0.0,0.0,80.99
2025-08-15T09:32:05.648Z,10,GR86-028-89,112.1,0.012,1.287,30.45,1.0,,0.0,0.0,
2025-08-15T09:32:05.691Z,10,GR86-028-89,101.6,0.023,1.27,31.24,1.0,,0.0,0.0,
2025-08-15T09:32:05.736Z,10,GR86-028-89,72.4,0.104,1.285,30.03,1.0,,0.0,0.0,
2025-08-15T09:32:05.778Z,10,GR86-028-89,57.400000000000006,0.17,1.191,29.29,1.0,6071.0,0.0,0.0,
2025-08-15T09:32:05.821Z,10,GR86-028-89,55.8,0.207,1.078,28.99,1.0,,0.0,0.0,81.07000000000001
2025-08-15T09:32:05.865Z,10,GR86-028-89,67.2,0.227,1.129,28.41,1.0,,0.0,0.0,
2025-08-15T09:32:05.908Z,10,GR86-028-89,84.30000000000001,0.188,1.209,28.6,1.0,,0.0,0.0,
2025-08-15T09:32:05.951Z,10,GR86-028-89,101.2,0.15,1.254,28.86,1.0,,0.0,0.0,
2025-08-15T09:32:05.995Z,10,GR86-028-89,116.7,0.081,1.257,30.28,1.0,6135.0,0.0,0.0,
2025-08-15T09:32:06.038Z,10,GR86-028-89,118.3,0.092,1.246,31.66,1.0,,0.0,0.0,81.95
2025-08-15T09:32:06.081Z,10,GR86-028-89,117.1,0.086,1.31,33.02,1.0,,0.0,0.0,
2025-08-15T09:32:06.127Z,10,GR86-028-89,115.0,0.109,1.279,33.36,1.0,,0.0,0.0,
2025-08-15T09:32:06.169Z,10,GR86-028-89,112.8,0.111,1.293,33.45,1.0,,0.0,0.0,
2025-08-15T09:32:06.212Z,10,GR86-028-89,107.2,0.134,1.248,33.51,1.0,6196.0,0.0,0.0,
2025-08-15T09:32:06.255Z,10,GR86-028-89,96.3,0.159,1.29,33.55,1.0,,0.0,0.0,82.54
2025-08-15T09:32:06.298Z,10,GR86-028-89,91.7,0.165,1.302,33.65,1.0,,0.0,0.0,
2025-08-15T09:32:06.341Z,10,GR86-028-89,88.60000000000001,0.124,1.34,34.14,1.0,,0.0,0.0,
2025-08-15T09:32:06.385Z,10,GR86-028-89,86.4,0.136,1.319,34.84,1.0,,0.0,0.0,
2025-08-15T09:32:06.427Z,10,GR86-028-89,85.30000000000001,0.146,1.297,34.96,1.0,6315.0,0.0,0.0,
2025-08-15T09:32:06.470Z,10,GR86-028-89,82.9,0.182,1.255,35.04,1.0,,0.0,0.0,83.48
2025-08-15T09:32:06.516Z,10,GR86-028-89,66.8,0.193,1.252,35.85,1.0,,0.0,0.0,
2025-08-15T09:32:06.559Z,10,GR86-028-89,49.400000000000006,0.213,1.242,36.12,1.0,,0.0,0.0,
2025-08-15T09:32:06.602Z,10,GR86-028-89,36.1,0.182,1.234,36.74,1.0,,0.0,0.0,
2025-08-15T09:32:06.645Z,10,GR86-028-89,31.0,0.232,1.147,36.77,1.0,6459.0,0.0,0.0,
2025-08-15T09:32:06.688Z,10,GR86-028-89,31.9,0.237,1.11,36.77,1.0,,0.0,0.0,84.71000000000001
2025-08-15T09:32:06.731Z,10,GR86-028-89,37.3,0.261,1.151,37.01,1.0,,0.0,0.0,
2025-08-15T09:32:06.775Z,10,GR86-028-89,49.2,0.243,1.162,37.41,1.0,,0.0,0.0,
2025-08-15T09:32:06.818Z,10,GR86-028-89,56.8,0.249,1.202,37.93,1.0,,0.0,0.0,
2025-08-15T09:32:06.861Z,10,GR86-028-89,63.5,0.239,1.129,37.91,1.0,6527.0,0.0,0.0,
2025-08-15T09:32:06.905Z,10,GR86-028-89,68.8,0.278,1.163,37.86,1.0,,0.0,0.0,85.67
2025-08-15T09:32:06.947Z,10,GR86-028-89,73.7,0.243,0.968,38.05,1.0,,0.0,0.0,
2025-08-15T09:32:06.990Z,10,GR86-028-89,75.5,0.329,0.807,37.81,1.0,,0.0,0.0,
2025-08-15T09:32:07.035Z,10,GR86-028-89,73.7,0.301,0.317,38.63,1.0,,0.0,0.0,
2025-08-15T09:32:07.078Z,10,GR86-028-89,69.7,0.061,0.961,40.71,1.0,6574.0,0.0,0.0,
2025-08-15T09:32:07.121Z,10,GR86-028-89,66.3,0.153,0.8,40.21,1.0,,0.0,0.0,87.33
2025-08-15T09:32:07.165Z,10,GR86-028-89,64.0,0.344,0.744,40.57,1.0,,0.0,0.0,
2025-08-15T09:32:07.208Z,10,GR86-028-89,60.8,0.204,0.197,39.86,1.0,,0.0,0.0,
2025-08-15T09:32:07.251Z,10,GR86-028-89,57.5,0.181,0.52,39.77,1.0,,0.0,0.0,
2025-08-15T09:32:07.295Z,10,GR86-028-89,50.1,0.259,0.011,38.47,1.0,6615.0,0.0,0.0,
2025-08-15T09:32:07.338Z,10,GR86-028-89,45.0,-0.19,0.423,38.0,1.0,,0.0,0.0,88.43
2025-08-15T09:32:07.381Z,10,GR86-028-89,37.7,-0.131,0.955,39.92,1.0,,0.0,0.0,
2025-08-15T09:32:07.427Z,10,GR86-028-89,30.5,0.356,0.741,39.52,1.0,,0.0,0.0,
2025-08-15T09:32:07.470Z,10,GR86-028-89,24.0,0.307,1.059,39.23,1.0,,0.0,0.0,
2025-08-15T09:32:07.516Z,10,GR86-028-89,12.8,0.472,1.001,39.83,1.0,7121.0,0.0,0.0,
2025-08-15T09:32:07.559Z,10,GR86-028-89,4.4,0.426,0.889,39.37,1.0,,0.0,0.0,90.29
2025-08-15T09:32:07.602Z,10,GR86-028-89,1.1,0.042,0.946,40.98,1.0,,0.0,0.0,
2025-08-15T09:32:07.645Z,10,GR86-028-89,9.0,0.034,0.6980000000000001,55.9,1.0,,0.0,0.0,
2025-08-15T09:32:07.688Z,10,GR86-028-89,24.700000000000003,0.262,0.471,76.87,1.0,,0.0,0.0,
2025-08-15T09:32:07.731Z,10,GR86-028-89,36.8,0.5650000000000001,0.673,99.56,1.0,7012.0,0.0,0.0,
2025-08-15T09:32:07.775Z,10,GR86-028-89,45.7,0.17,0.298,100.09,1.0,,0.0,0.0,91.23
2025-08-15T09:32:07.818Z,10,GR86-028-89,50.900000000000006,0.465,0.446,100.14,1.0,,0.0,0.0,
2025-08-15T09:32:07.861Z,10,GR86-028-89,54.5,0.685,0.759,100.12,1.0,,0.0,0.0,
2025-08-15T09:32:07.905Z,10,GR86-028-89,54.3,0.471,0.686,100.1,1.0,,0.0,0.0,
2025-08-15T09:32:07.947Z,10,GR86-028-89,51.3,0.012,0.8150000000000001,100.09,1.0,7202.0,0.0,0.0,
2025-08-15T09:32:07.990Z,10,GR86-028-89,44.6,0.115,0.665,100.12,1.0,,0.0,0.0,92.51
2025-08-15T09:32:08.035Z,10,GR86-028-89,30.6,0.723,0.75,100.08,1.0,,0.0,0.0,
2025-08-15T09:32:08.078Z,10,GR86-028-89,22.3,0.278,0.558,100.11,1.0,,0.0,0.0,
2025-08-15T09:32:08.121Z,10,GR86-028-89,18.0,-0.006,0.6940000000000001,100.12,1.0,,0.0,0.0,
2025-08-15T09:32:08.165Z,10,GR86-028-89,17.900000000000002,-0.029,0.585,100.09,1.0,7283.0,0.0,0.0,
2025-08-15T09:32:08.208Z,10,GR86-028-89,19.4,0.32,0.252,100.12,1.0,,0.0,0.0,95.23
2025-08-15T09:32:08.251Z,10,GR86-028-89,20.200000000000003,0.138,0.336,100.12,1.0,,0.0,0.0,
2025-08-15T09:32:08.295Z,10,GR86-028-89,19.6,-0.052,0.095,100.12,1.0,,0.0,0.0,
2025-08-15T09:32:08.338Z,10,GR86-028-89,20.9,0.184,0.217,100.07,1.0,,0.0,0.0,
2025-08-15T09:32:08.381Z,10,GR86-028-89,20.5,0.291,0.334,100.09,1.0,7304.0,0.0,0.0,
2025-08-15T09:32:08.426Z,10,GR86-028-89,19.8,0.16,0.26,100.08,1.0,,0.0,0.0,96.82
2025-08-15T09:32:08.469Z,10,GR86-028-89,18.7,0.285,0.015,100.07,1.0,,0.0,0.0,
2025-08-15T09:32:08.512Z,10,GR86-028-89,16.1,0.232,0.205,100.03,1.0,,0.0,0.0,
2025-08-15T09:32:08.558Z,10,GR86-028-89,10.8,0.066,0.004,100.1,1.0,,0.0,0.0,
2025-08-15T09:32:08.601Z,10,GR86-028-89,6.2,0.023,0.32,100.09,1.0,7293.0,0.0,0.0,
2025-08-15T09:32:08.645Z,10,GR86-028-89,4.7,-0.17,0.326,100.07,1.0,,0.0,0.0,97.81
2025-08-15T09:32:08.687Z,10,GR86-028-89,4.5,0.036,0.145,100.04,1.0,,0.0,0.0,
2025-08-15T09:32:08.730Z,10,GR86-028-89,5.300000000000001,0.011,0.354,100.1,1.0,,0.0,0.0,
2025-08-15T09:32:08.776Z,10,GR86-028-89,9.2,-0.24,-0.039,100.08,2.0,,0.0,0.0,
2025-08-15T09:32:08.818Z,10,GR86-028-89,9.3,0.295,0.238,100.07,2.0,7377.0,0.0,0.0,
2025-08-15T09:32:08.861Z,10,GR86-028-89,8.4,-0.215,0.046,100.07,2.0,,0.0,0.0,98.71
2025-08-15T09:32:08.905Z,10,GR86-028-89,5.4,-0.36,-0.061,100.07,2.0,,0.0,0.0,
2025-08-15T09:32:08.948Z,10,GR86-028-89,1.3,0.187,0.115,100.08,2.0,,0.0,0.0,
2025-08-15T09:32:08.991Z,10,GR86-028-89,-1.7000000000000002,0.58,-0.071,100.06,2.0,,0.0,0.0,
2025-08-15T09:32:09.036Z,10,GR86-028-89,-6.0,0.15,0.11,100.06,2.0,6564.0,0.0,0.0,
2025-08-15T09:32:09.079Z,10,GR86-028-89,-6.300000000000001,0.089,0.045,100.06,2.0,,0.0,0.0,98.57
2025-08-15T09:32:09.122Z,10,GR86-028-89,-6.2,-0.157,0.11,100.06,2.0,,0.0,0.0,
2025-08-15T09:32:09.165Z,10,GR86-028-89,-6.2,-0.011,0.17,100.08,2.0,,0.0,0.0,
2025-08-15T09:32:09.208Z,10,GR86-028-89,-7.2,0.094,0.132,100.06,2.0,,0.0,0.0,
2025-08-15T09:32:09.251Z,10,GR86-028-89,-8.200000000000001,0.253,-0.087,100.06,2.0,5859.0,0.0,0.0,
2025-08-15T09:32:09.295Z,10,GR86-028-89,-9.2,0.18,-0.078,100.05,2.0,,0.0,0.0,99.38
2025-08-15T09:32:09.338Z,10,GR86-028-89,-9.1,0.116,-0.143,100.04,2.0,,0.0,0.0,
2025-08-15T09:32:09.381Z,10,GR86-028-89,-8.8,0.085,-0.207,100.03,2.0,,0.0,0.0,
2025-08-15T09:32:09.426Z,10,GR86-028-89,-8.700000000000001,0.191,-0.209,100.03,2.0,,0.0,0.0,
2025-08-15T09:32:09.469Z,10,GR86-028-89,-8.700000000000001,0.247,-0.287,100.02,2.0,6073.0,0.0,0.0,
2025-08-15T09:32:09.512Z,10,GR86-028-89,-8.6,0.319,-0.269,100.04,2.0,,0.0,0.0,102.24
2025-08-15T09:32:09.558Z,10,GR86-028-89,-8.5,0.211,-0.281,100.05,2.0,,0.0,0.0,
2025-08-15T09:32:09.601Z,10,GR86-028-89,-8.200000000000001,0.189,-0.291,100.05,2.0,,0.0,0.0,
2025-08-15T09:32:09.645Z,10,GR86-028-89,-7.6,0.229,-0.28,100.05,2.0,,0.0,0.0,
2025-08-15T09:32:09.687Z,10,GR86-028-89,-7.4,0.247,-0.256,100.03,2.0,6051.0,0.0,0.0,
2025-08-15T09:32:09.730Z,10,GR86-028-89,-7.1000000000000005,0.272,-0.275,100.02,2.0,,0.0,0.0,105.65
2025-08-15T09:32:09.775Z,10,GR86-028-89,-7.1000000000000005,0.276,-0.207,100.03,2.0,,0.0,0.0,
2025-08-15T09:32:09.818Z,10,GR86-028-89,-7.1000000000000005,0.245,-0.24,100.04,2.0,,0.0,0.0,
2025-08-15T09:32:09.861Z,10,GR86-028-89,-7.1000000000000005,0.249,-0.203,100.02,2.0,,0.0,0.0,
2025-08-15T09:32:09.905Z,10,GR86-028-89,-7.1000000000000005,0.246,-0.184,100.03,2.0,6140.0,0.0,0.0,
2025-08-15T09:32:09.947Z,10,GR86-028-89,-7.0,0.265,-0.18,100.03,2.0,,0.0,0.0,107.24
2025-08-15T09:32:09.990Z,10,GR86-028-89,-6.800000000000001,0.263,-0.168,100.05,2.0,,0.0,0.0,
2025-08-15T09:32:10.036Z,10,GR86-028-89,-6.2,0.272,-0.146,100.03,2.0,,0.0,0.0,
2025-08-15T09:32:10.078Z,10,GR86-028-89,-5.4,0.26,-0.179,100.03,2.0,,0.0,0.0,
2025-08-15T09:32:10.121Z,10,GR86-028-89,-4.2,0.258,-0.157,100.03,2.0,6299.0,0.0,0.0,
2025-08-15T09:32:10.165Z,10,GR86-028-89,-2.9000000000000004,0.232,-0.153,100.04,2.0,,0.0,0.0,108.86
2025-08-15T09:32:10.208Z,10,GR86-028-89,-2.0,0.256,-0.142,100.03,2.0,,0.0,0.0,
2025-08-15T09:32:10.251Z,10,GR86-028-89,-1.1,0.267,-0.11,100.03,2.0,,0.0,0.0,
2025-08-15T09:32:10.295Z,10,GR86-028-89,0.1,0.263,-0.09,100.02,2.0,,0.0,0.0,
2025-08-15T09:32:10.338Z,10,GR86-028-89,0.4,0.265,-0.09,100.03,2.0,6385.0,0.0,0.0,
2025-08-15T09:32:10.381Z,10,GR86-028-89,0.4,0.264,-0.044,100.03,2.0,,0.0,0.0,110.32
2025-08-15T09:32:10.427Z,10,GR86-028-89,0.5,0.226,-0.047,100.02,2.0,,0.0,0.0,
2025-08-15T09:32:10.469Z,10,GR86-028-89,0.7000000000000001,0.265,-0.032,100.03,2.0,,0.0,0.0,
2025-08-15T09:32:10.512Z,10,GR86-028-89,0.9,0.263,-0.014,100.05,2.0,,0.0,0.0,
2025-08-15T09:32:10.558Z,10,GR86-028-89,1.1,0.256,-0.005,100.03,2.0,6468.0,0.0,0.0,
2025-08-15T09:32:10.601Z,10,GR86-028-89,1.3,0.262,-0.017,100.02,2.0,,0.0,0.0,111.81
2025-08-15T09:32:10.645Z,10,GR86-028-89,1.3,0.262,0.012,100.02,2.0,,0.0,0.0,
2025-08-15T09:32:10.687Z,10,GR86-028-89,1.3,0.237,-0.003,100.05,2.0,,0.0,0.0,
2025-08-15T09:32:10.731Z,10,GR86-028-89,1.3,0.259,0.004,100.01,2.0,,0.0,0.0,
2025-08-15T09:32:10.775Z,10,GR86-028-89,2.0,0.269,0.023,100.02,2.0,6542.0,0.0,0.0,
2025-08-15T09:32:10.818Z,10,GR86-028-89,2.8000000000000003,0.261,0.039,100.02,2.0,,0.0,0.0,113.26
2025-08-15T09:32:10.861Z,10,GR86-028-89,3.2,0.243,0.006,100.02,2.0,,0.0,0.0,
2025-08-15T09:32:10.905Z,10,GR86-028-89,3.3000000000000003,0.271,0.039,100.01,2.0,,0.0,0.0,
2025-08-15T09:32:10.947Z,10,GR86-028-89,3.1,0.251,0.046,100.02,2.0,,0.0,0.0,
2025-08-15T09:32:10.990Z,10,GR86-028-89,2.7,0.255,0.035,100.04,2.0,6617.0,0.0,0.0,
2025-08-15T09:32:11.035Z,10,GR86-028-89,2.5,0.26,0.047,100.01,2.0,,0.0,0.0,114.61
2025-08-15T09:32:11.078Z,10,GR86-028-89,1.9,0.265,0.08,100.02,2.0,,0.0,0.0,
2025-08-15T09:32:11.121Z,10,GR86-028-89,1.1,0.225,0.045,100.04,2.0,,0.0,0.0,
2025-08-15T09:32:11.165Z,10,GR86-028-89,0.6000000000000001,0.27,0.042,100.03,2.0,,0.0,0.0,
2025-08-15T09:32:11.208Z,10,GR86-028-89,-0.1,0.258,0.054,100.03,2.0,6689.0,0.0,0.0,
2025-08-15T09:32:11.251Z,10,GR86-028-89,-1.6,0.24,0.009,100.03,2.0,,0.0,0.0,115.88
2025-08-15T09:32:11.295Z,10,GR86-028-89,-3.4000000000000004,0.222,-0.04,100.03,2.0,,0.0,0.0,
2025-08-15T09:32:11.338Z,10,GR86-028-89,-3.5,0.26,-0.046,100.03,2.0,,0.0,0.0,
2025-08-15T09:32:11.381Z,10,GR86-028-89,-3.0,0.252,-0.041,100.05,2.0,,0.0,0.0,
2025-08-15T09:32:11.426Z,10,GR86-028-89,-2.5,0.235,-0.091,100.03,2.0,6742.0,0.0,0.0,
2025-08-15T09:32:11.469Z,10,GR86-028-89,-2.2,0.271,-0.073,100.02,2.0,,0.0,0.0,117.06
2025-08-15T09:32:11.512Z,10,GR86-028-89,-1.1,0.23,-0.076,100.01,2.0,,0.0,0.0,
2025-08-15T09:32:11.555Z,10,GR86-028-89,-0.3,0.24,-0.068,100.0,2.0,,0.0,0.0,
2025-08-15T09:32:11.598Z,10,GR86-028-89,-0.7000000000000001,0.237,-0.087,100.01,2.0,,0.0,0.0,
2025-08-15T09:32:11.641Z,10,GR86-028-89,-0.8,0.269,-0.072,100.0,2.0,6822.0,0.0,0.0,
2025-08-15T09:32:11.686Z,10,GR86-028-89,-0.4,0.24,-0.048,100.02,2.0,,0.0,0.0,118.17
2025-08-15T09:32:11.728Z,10,GR86-028-89,0.1,0.233,-0.081,100.01,2.0,,0.0,0.0,
2025-08-15T09:32:11.771Z,10,GR86-028-89,0.5,0.275,-0.04,100.04,2.0,,0.0,0.0,
2025-08-15T09:32:11.816Z,10,GR86-028-89,0.5,0.278,-0.021,99.99,2.0,,0.0,0.0,
2025-08-15T09:32:11.858Z,10,GR86-028-89,0.0,0.239,-0.03,100.02,2.0,6889.0,0.0,0.0,
2025-08-15T09:32:11.901Z,10,GR86-028-89,-0.5,0.238,-0.034,100.0,2.0,,0.0,0.0,119.31
2025-08-15T09:32:11.945Z,10,GR86-028-89,-0.6000000000000001,0.277,-0.027,99.99,2.0,,0.0,0.0,
2025-08-15T09:32:11.987Z,10,GR86-028-89,-0.6000000000000001,0.231,-0.017,100.01,2.0,,0.0,0.0,
2025-08-15T09:32:12.030Z,10,GR86-028-89,-0.6000000000000001,0.227,-0.069,100.0,2.0,,0.0,0.0,
2025-08-15T09:32:12.076Z,10,GR86-028-89,-0.4,0.233,-0.057,100.01,2.0,6955.0,0.0,0.0,
2025-08-15T09:32:12.118Z,10,GR86-028-89,0.0,0.292,-0.031,100.03,2.0,,0.0,0.0,121.61
2025-08-15T09:32:12.161Z,10,GR86-028-89,0.5,0.231,-0.034,100.03,2.0,,0.0,0.0,
2025-08-15T09:32:12.205Z,10,GR86-028-89,1.3,0.228,-0.053,100.01,2.0,,0.0,0.0,
2025-08-15T09:32:12.248Z,10,GR86-028-89,2.4000000000000004,0.274,-0.017,100.03,2.0,,0.0,0.0,
2025-08-15T09:32:12.291Z,10,GR86-028-89,3.3000000000000003,0.238,0.001,100.0,2.0,7019.0,0.0,0.0,
2025-08-15T09:32:12.336Z,10,GR86-028-89,4.2,0.256,0.032,100.01,2.0,,0.0,0.0,122.67
2025-08-15T09:32:12.379Z,10,GR86-028-89,4.6000000000000005,0.227,0.014,100.02,2.0,,0.0,0.0,
2025-08-15T09:32:12.422Z,10,GR86-028-89,4.9,0.281,0.07,100.0,2.0,,0.0,0.0,
2025-08-15T09:32:12.465Z,10,GR86-028-89,5.0,0.233,0.084,100.0,2.0,,0.0,0.0,
2025-08-15T09:32:12.508Z,10,GR86-028-89,4.5,-0.044,0.071,99.97,3.0,7091.0,0.0,0.0,
2025-08-15T09:32:12.551Z,10,GR86-028-89,3.0,0.045,0.11,99.99,3.0,,0.0,0.0,123.81
2025-08-15T09:32:12.595Z,10,GR86-028-89,1.3,0.47,-0.006,100.0,3.0,,0.0,0.0,
2025-08-15T09:32:12.638Z,10,GR86-028-89,0.6000000000000001,0.439,0.065,99.96,3.0,,0.0,0.0,
2025-08-15T09:32:12.681Z,10,GR86-028-89,0.3,0.101,0.093,99.96,3.0,,0.0,0.0,
2025-08-15T09:32:12.727Z,10,GR86-028-89,0.5,0.044,-0.032,99.99,3.0,5696.0,0.0,0.0,
2025-08-15T09:32:12.769Z,10,GR86-028-89,0.8,0.213,0.022,99.98,3.0,,0.0,0.0,124.66
2025-08-15T09:32:12.812Z,10,GR86-028-89,0.8,0.283,0.048,99.98,3.0,,0.0,0.0,
2025-08-15T09:32:12.858Z,10,GR86-028-89,0.8,0.199,-0.047,99.98,3.0,,0.0,0.0,
2025-08-15T09:32:12.901Z,10,GR86-028-89,0.6000000000000001,0.149,0.003,99.99,3.0,,0.0,0.0,
2025-08-15T09:32:12.945Z,10,GR86-028-89,0.7000000000000001,0.214,-0.029,99.98,3.0,5850.0,0.0,0.0,
2025-08-15T09:32:12.987Z,10,GR86-028-89,1.2000000000000002,0.219,-0.025,99.99,3.0,,0.0,0.0,125.77
2025-08-15T09:32:13.030Z,10,GR86-028-89,0.3,0.198,-0.02,67.45,3.0,,0.0,0.0,
2025-08-15T09:32:13.075Z,10,GR86-028-89,-1.9,0.175,-0.053,3.0,3.0,,0.0,0.0,
2025-08-15T09:32:13.118Z,10,GR86-028-89,-2.9000000000000004,0.168,-0.047,2.87,3.0,,0.0,0.0,
2025-08-15T09:32:13.161Z,10,GR86-028-89,-3.1,-0.077,-0.023,2.81,3.0,5918.0,0.0,0.0,
2025-08-15T09:32:13.205Z,10,GR86-028-89,-3.1,-0.098,-0.036,2.78,3.0,,0.0,0.0,126.67
2025-08-15T09:32:13.248Z,10,GR86-028-89,-3.1,-0.393,-0.115,2.75,3.0,,9.215,9.57,
2025-08-15T09:32:13.291Z,10,GR86-028-89,-3.1,-0.22,-0.017,2.71,3.0,,13.14,13.245,
2025-08-15T09:32:13.336Z,10,GR86-028-89,-1.8,-0.178,-0.131,2.68,3.0,,14.94,15.215,
2025-08-15T09:32:13.378Z,10,GR86-028-89,0.2,-0.281,-0.086,2.66,3.0,5855.0,19.015,19.075,
2025-08-15T09:32:13.421Z,10,GR86-028-89,1.9,-0.384,-0.067,2.65,3.0,,25.665,25.745,127.14
2025-08-15T09:32:13.466Z,10,GR86-028-89,3.5,-0.513,-0.097,2.62,3.0,,34.275,34.18,
2025-08-15T09:32:13.508Z,10,GR86-028-89,5.300000000000001,-0.642,0.008,2.62,3.0,,43.765,43.43,
2025-08-15T09:32:13.551Z,10,GR86-028-89,7.0,-0.719,-0.008,2.6,3.0,,50.435,50.25,
2025-08-15T09:32:13.595Z,10,GR86-028-89,6.800000000000001,-0.853,0.044,46.38,3.0,5572.0,50.94,51.565,
2025-08-15T09:32:13.638Z,10,GR86-028-89,6.4,-0.811,0.028,94.68,2.0,,45.75,47.46,124.43
2025-08-15T09:32:13.681Z,10,GR86-028-89,6.4,-0.793,0.065,59.51,2.0,,38.56,40.425,
2025-08-15T09:32:13.726Z,10,GR86-028-89,5.7,-0.881,0.023,4.25,2.0,,32.230000000000004,33.71,
2025-08-15T09:32:13.769Z,10,GR86-028-89,5.9,-0.668,0.129,2.84,2.0,,29.36,30.675,
2025-08-15T09:32:13.812Z,10,GR86-028-89,7.5,-0.6960000000000001,0.017,2.67,2.0,5138.0,27.71,28.46,
2025-08-15T09:32:13.858Z,10,GR86-028-89,10.6,-0.8220000000000001,0.168,2.59,2.0,,27.59,28.615,118.29
2025-08-15T09:32:13.901Z,10,GR86-028-89,14.1,-0.635,0.163,2.56,2.0,,28.52,29.33,
2025-08-15T09:32:13.945Z,10,GR86-028-89,17.1,-0.846,0.2,2.57,2.0,,28.215,28.55,
2025-08-15T09:32:13.987Z,10,GR86-028-89,19.0,-0.725,0.392,2.5500000000000003,2.0,,27.97,28.52,
2025-08-15T09:32:14.031Z,10,GR86-028-89,21.700000000000003,-0.632,0.299,2.53,2.0,5919.0,27.925,28.615,
2025-08-15T09:32:14.075Z,10,GR86-028-89,30.5,-0.596,0.504,2.52,2.0,,27.59,28.275,113.63
2025-08-15T09:32:14.118Z,10,GR86-028-89,36.0,-0.629,0.531,2.54,2.0,,26.905,27.65,
2025-08-15T09:32:14.161Z,10,GR86-028-89,40.1,-0.614,0.582,2.52,2.0,,24.05,25.24,
2025-08-15T09:32:14.205Z,10,GR86-028-89,42.6,-0.526,0.707,2.53,2.0,,17.06,18.055,
2025-08-15T09:32:14.248Z,10,GR86-028-89,44.2,-0.371,0.743,2.52,2.0,5924.0,9.25,9.965,
2025-08-15T09:32:14.291Z,10,GR86-028-89,45.400000000000006,-0.271,0.769,2.53,2.0,,3.31,3.905,108.17
2025-08-15T09:32:14.335Z,10,GR86-028-89,46.6,-0.185,0.846,2.53,2.0,,0.0,0.0,
2025-08-15T09:32:14.378Z,10,GR86-028-89,48.6,-0.157,0.879,2.53,2.0,,0.0,0.0,
2025-08-15T09:32:14.421Z,10,GR86-028-89,51.0,-0.122,0.92,2.53,2.0,,0.0,0.0,
2025-08-15T09:32:14.508Z,10,GR86-028-89,52.6,-0.108,0.976,2.52,2.0,5718.0,0.0,0.0,104.59
2025-08-15T09:32:14.551Z,10,GR86-028-89,51.900000000000006,-0.145,1.018,2.52,2.0,,0.0,0.0,
2025-08-15T09:32:14.595Z,10,GR86-028-89,50.1,-0.147,1.034,2.53,2.0,,0.0,0.0,
2025-08-15T09:32:14.638Z,10,GR86-028-89,52.400000000000006,-0.122,1.002,2.52,2.0,,0.0,0.0,
2025-08-15T09:32:14.681Z,10,GR86-028-89,53.7,-0.149,1.076,2.52,2.0,5679.0,0.0,0.0,
2025-08-15T09:32:14.726Z,10,GR86-028-89,51.400000000000006,-0.138,1.044,2.52,2.0,,0.0,0.0,101.83
2025-08-15T09:32:14.769Z,10,GR86-028-89,48.6,-0.139,1.022,2.51,2.0,,0.0,0.0,
2025-08-15T09:32:14.812Z,10,GR86-028-89,48.8,-0.135,1.046,2.52,2.0,,0.0,0.0,
2025-08-15T09:32:14.858Z,10,GR86-028-89,52.400000000000006,-0.112,1.043,2.52,2.0,,0.0,0.0,
2025-08-15T09:32:14.901Z,10,GR86-028-89,55.1,-0.156,1.108,2.52,2.0,5597.0,0.0,0.0,
2025-08-15T09:32:14.945Z,10,GR86-028-89,57.400000000000006,-0.134,1.127,2.52,2.0,,0.0,0.0,100.44
2025-08-15T09:32:14.987Z,10,GR86-028-89,59.3,-0.155,1.161,2.52,2.0,,0.0,0.0,
2025-08-15T09:32:15.030Z,10,GR86-028-89,60.8,-0.144,1.167,2.52,2.0,,0.0,0.0,
2025-08-15T09:32:15.076Z,10,GR86-028-89,61.1,-0.137,1.202,2.51,2.0,,0.0,0.0,
2025-08-15T09:32:15.118Z,10,GR86-028-89,61.6,-0.157,1.228,2.52,2.0,5422.0,0.0,0.0,
2025-08-15T09:32:15.161Z,10,GR86-028-89,62.3,-0.124,1.18,2.5,2.0,,0.0,0.0,99.0
2025-08-15T09:32:15.205Z,10,GR86-028-89,61.8,-0.153,1.195,2.5,2.0,,0.0,0.0,
2025-08-15T09:32:15.248Z,10,GR86-028-89,58.3,-0.138,1.192,2.51,2.0,,0.0,0.0,
2025-08-15T09:32:15.291Z,10,GR86-028-89,52.8,-0.151,1.243,3.27,2.0,,0.0,0.0,
2025-08-15T09:32:15.336Z,10,GR86-028-89,51.3,-0.138,1.27,5.72,2.0,5330.0,0.0,0.0,
2025-08-15T09:32:15.379Z,10,GR86-028-89,52.400000000000006,-0.123,1.244,5.15,2.0,,0.0,0.0,97.51
2025-08-15T09:32:15.422Z,10,GR86-028-89,52.2,-0.166,1.234,5.68,2.0,,0.0,0.0,
2025-08-15T09:32:15.465Z,10,GR86-028-89,51.900000000000006,-0.122,1.224,7.18,2.0,,0.0,0.0,
2025-08-15T09:32:15.508Z,10,GR86-028-89,51.8,-0.143,1.242,14.74,2.0,,0.0,0.0,
2025-08-15T09:32:15.551Z,10,GR86-028-89,51.7,-0.106,1.182,19.2,2.0,5250.0,0.0,0.0,
2025-08-15T09:32:15.595Z,10,GR86-028-89,48.1,-0.089,1.205,19.6,2.0,,0.0,0.0,96.17
2025-08-15T09:32:15.638Z,10,GR86-028-89,43.7,-0.067,1.221,21.38,2.0,,0.0,0.0,
2025-08-15T09:32:15.681Z,10,GR86-028-89,39.400000000000006,-0.052,1.215,21.43,2.0,,0.0,0.0,
2025-08-15T09:32:15.727Z,10,GR86-028-89,38.7,-0.053,1.249,21.82,2.0,,0.0,0.0,
2025-08-15T09:32:15.769Z,10,GR86-028-89,42.900000000000006,0.056,1.293,21.85,2.0,5359.0,0.0,0.0,
2025-08-15T09:32:15.812Z,10,GR86-028-89,49.7,0.141,1.308,21.87,2.0,,0.0,0.0,94.45
2025-08-15T09:32:15.858Z,10,GR86-028-89,63.2,0.114,1.289,22.14,2.0,,0.0,0.0,
2025-08-15T09:32:15.901Z,10,GR86-028-89,74.60000000000001,0.081,1.254,22.72,2.0,,0.0,0.0,
2025-08-15T09:32:15.945Z,10,GR86-028-89,85.5,0.107,1.168,22.52,2.0,,0.0,0.0,
2025-08-15T09:32:15.987Z,10,GR86-028-89,93.1,-0.008,1.244,22.28,2.0,5389.0,0.0,0.0,
2025-08-15T09:32:16.030Z,10,GR86-028-89,97.1,0.038,1.473,22.26,2.0,,0.0,0.0,93.63
2025-08-15T09:32:16.075Z,10,GR86-028-89,98.4,-0.044,1.089,22.24,2.0,,0.0,0.0,
2025-08-15T09:32:16.118Z,10,GR86-028-89,98.3,0.055,1.186,22.2,2.0,,0.0,0.0,
2025-08-15T09:32:16.161Z,10,GR86-028-89,98.4,0.189,1.092,22.16,2.0,,0.0,0.0,
2025-08-15T09:32:16.205Z,10,GR86-028-89,98.5,0.056,1.134,22.36,2.0,5370.0,0.0,0.0,
2025-08-15T09:32:16.248Z,10,GR86-028-89,98.5,-0.002,1.273,25.76,2.0,,0.0,0.0,93.1
2025-08-15T09:32:16.291Z,10,GR86-028-89,98.8,0.045,1.116,28.08,2.0,,0.0,0.0,
2025-08-15T09:32:16.335Z,10,GR86-028-89,101.1,0.08,1.061,28.61,2.0,,0.0,0.0,
2025-08-15T09:32:16.378Z,10,GR86-028-89,101.9,0.087,1.054,27.58,2.0,,0.0,0.0,
2025-08-15T09:32:16.421Z,10,GR86-028-89,101.6,0.107,1.111,27.36,2.0,5351.0,0.0,0.0,
2025-08-15T09:32:16.465Z,10,GR86-028-89,100.4,0.103,1.118,27.75,2.0,,0.0,0.0,92.82
2025-08-15T09:32:16.508Z,10,GR86-028-89,97.6,0.085,1.199,30.02,2.0,,0.0,0.0,
2025-08-15T09:32:16.551Z,10,GR86-028-89,92.2,0.093,1.209,40.63,2.0,,0.0,0.0,
2025-08-15T09:32:16.595Z,10,GR86-028-89,80.4,0.124,1.147,77.63,2.0,,0.0,0.0,
2025-08-15T09:32:16.638Z,10,GR86-028-89,72.3,0.168,1.097,100.13,2.0,5436.0,0.0,0.0,
2025-08-15T09:32:16.681Z,10,GR86-028-89,64.60000000000001,0.215,1.096,100.12,2.0,,0.0,0.0,93.6
