timestamp,lap,vehicle_id,steering_angle,accx_can,accy_can,ath,gear,nmot,pbrake_f,pbrake_r,speed
2025-08-15T02:48:44.501Z,13,GR86-024-41,1.2000000000000002,0.09,-0.025,99.86,4.0,,0.0,0.0,179.92000000000002
2025-08-15T02:48:44.544Z,13,GR86-024-41,1.2000000000000002,0.103,-0.027,99.84,4.0,,0.0,0.0,
2025-08-15T02:48:44.587Z,13,GR86-024-41,1.2000000000000002,0.102,-0.031,99.86,4.0,,0.0,0.0,
2025-08-15T02:48:44.630Z,13,GR86-024-41,1.2000000000000002,0.092,-0.027,99.85,4.0,,0.0,0.0,
2025-08-15T02:48:44.674Z,13,GR86-024-41,1.2000000000000002,0.093,-0.027,99.86,4.0,7088.0,0.0,0.0,
2025-08-15T02:48:44.717Z,13,GR86-024-41,1.2000000000000002,0.092,-0.04,99.84,4.0,,0.0,0.0,180.57
2025-08-15T02:48:44.761Z,13,GR86-024-41,1.2000000000000002,0.135,0.004,99.85,4.0,,0.0,0.0,
2025-08-15T02:48:44.804Z,13,GR86-024-41,1.1,0.116,0.002,99.85,4.0,,0.0,0.0,
2025-08-15T02:48:44.847Z,13,GR86-024-41,1.1,0.108,0.016,99.86,4.0,,0.0,0.0,
2025-08-15T02:48:44.891Z,13,GR86-024-41,1.1,0.113,0.005,99.83,4.0,7120.0,0.0,0.0,
2025-08-15T02:48:44.934Z,13,GR86-024-41,1.1,0.128,-0.001,99.86,4.0,,0.0,0.0,181.43
2025-08-15T02:48:44.977Z,13,GR86-024-41,1.1,0.129,0.0,99.84,4.0,,0.0,0.0,
2025-08-15T02:48:45.020Z,13,GR86-024-41,1.2000000000000002,0.094,-0.029,99.86,4.0,,0.0,0.0,
2025-08-15T02:48:45.065Z,13,GR86-024-41,1.2000000000000002,0.093,-0.014,99.84,4.0,,0.0,0.0,
2025-08-15T02:48:45.108Z,13,GR86-024-41,1.2000000000000002,0.102,0.002,99.84,4.0,7147.0,0.0,0.0,
2025-08-15T02:48:45.151Z,13,GR86-024-41,1.5,0.103,0.011,99.86,4.0,,0.0,0.0,182.16
2025-08-15T02:48:45.194Z,13,GR86-024-41,1.7000000000000002,0.115,0.023,99.85,4.0,,0.0,0.0,
2025-08-15T02:48:45.237Z,13,GR86-024-41,1.8,0.12,0.032,99.85,4.0,,0.0,0.0,
2025-08-15T02:48:45.281Z,13,GR86-024-41,1.8,0.106,0.081,99.84,4.0,,0.0,0.0,
2025-08-15T02:48:45.324Z,13,GR86-024-41,1.9,0.102,0.095,99.86,4.0,7175.0,0.0,0.0,
2025-08-15T02:48:45.367Z,13,GR86-024-41,1.9,0.113,0.079,99.85,4.0,,0.0,0.0,182.89
2025-08-15T02:48:45.410Z,13,GR86-024-41,1.8,0.086,0.054,99.85,4.0,,0.0,0.0,
2025-08-15T02:48:45.453Z,13,GR86-024-41,1.7000000000000002,0.104,0.056,99.86,4.0,,0.0,0.0,
2025-08-15T02:48:45.496Z,13,GR86-024-41,1.7000000000000002,0.079,0.03,99.83,4.0,,0.0,0.0,
2025-08-15T02:48:45.539Z,13,GR86-024-41,1.6,-0.145,0.039,99.85,5.0,7203.0,0.0,0.0,
2025-08-15T02:48:45.582Z,13,GR86-024-41,1.5,0.358,0.023,99.85,5.0,,0.0,0.0,184.43
2025-08-15T02:48:45.625Z,13,GR86-024-41,1.6,0.232,-0.063,99.86,5.0,,0.0,0.0,
2025-08-15T02:48:45.669Z,13,GR86-024-41,1.5,0.117,0.047,99.85,5.0,,0.0,0.0,
2025-08-15T02:48:45.712Z,13,GR86-024-41,1.4,0.0,-0.015,99.86,5.0,,0.0,0.0,
2025-08-15T02:48:45.755Z,13,GR86-024-41,1.4,0.125,-0.051,99.86,5.0,7234.0,0.0,0.0,
2025-08-15T02:48:45.798Z,13,GR86-024-41,1.4,0.198,0.042,99.85,5.0,,0.0,0.0,185.24
2025-08-15T02:48:45.841Z,13,GR86-024-41,1.4,0.024,-0.029,99.85,5.0,,0.0,0.0,
2025-08-15T02:48:45.884Z,13,GR86-024-41,1.3,0.055,0.015,99.84,5.0,,0.0,0.0,
2025-08-15T02:48:45.927Z,13,GR86-024-41,1.4,0.081,-0.02,99.84,5.0,,0.0,0.0,
2025-08-15T02:48:45.970Z,13,GR86-024-41,1.4,0.081,-0.023,99.87,5.0,6767.0,0.0,0.0,
2025-08-15T02:48:46.013Z,13,GR86-024-41,1.3,0.048,-0.008,99.85,5.0,,0.0,0.0,185.96
2025-08-15T02:48:46.056Z,13,GR86-024-41,1.3,0.084,-0.015,99.84,5.0,,0.0,0.0,
2025-08-15T02:48:46.099Z,13,GR86-024-41,1.3,0.091,0.024,99.83,5.0,,0.0,0.0,
2025-08-15T02:48:46.142Z,13,GR86-024-41,1.3,0.082,0.024,99.84,5.0,,0.0,0.0,
2025-08-15T02:48:46.185Z,13,GR86-024-41,1.3,0.08,0.013,99.84,5.0,6324.0,0.0,0.0,
2025-08-15T02:48:46.228Z,13,GR86-024-41,1.3,0.071,0.012,99.85,5.0,,0.0,0.0,186.62
2025-08-15T02:48:46.271Z,13,GR86-024-41,1.3,0.073,0.033,99.85,5.0,,0.0,0.0,
2025-08-15T02:48:46.314Z,13,GR86-024-41,1.3,0.067,0.013,99.86,5.0,,0.0,0.0,
2025-08-15T02:48:46.357Z,13,GR86-024-41,1.3,0.058,0.031,99.82,5.0,,0.0,0.0,
2025-08-15T02:48:46.400Z,13,GR86-024-41,1.2000000000000002,0.119,0.026,99.86,5.0,6363.0,0.0,0.0,
2025-08-15T02:48:46.443Z,13,GR86-024-41,1.0,0.115,0.034,99.86,5.0,,0.0,0.0,187.32
2025-08-15T02:48:46.486Z,13,GR86-024-41,1.0,0.117,-0.003,99.84,5.0,,0.0,0.0,
2025-08-15T02:48:46.529Z,13,GR86-024-41,1.0,0.108,-0.028,99.84,5.0,,0.0,0.0,
2025-08-15T02:48:46.572Z,13,GR86-024-41,1.0,0.11,-0.025,99.86,5.0,,0.0,0.0,
2025-08-15T02:48:46.615Z,13,GR86-024-41,1.0,0.106,-0.012,99.87,5.0,6389.0,0.0,0.0,
2025-08-15T02:48:46.658Z,13,GR86-024-41,1.0,0.081,-0.015,99.84,5.0,,0.0,0.0,187.99
2025-08-15T02:48:46.701Z,13,GR86-024-41,1.0,0.09,-0.042,99.84,5.0,,0.0,0.0,
2025-08-15T02:48:46.744Z,13,GR86-024-41,1.1,0.111,-0.044,99.85,5.0,,0.0,0.0,
2025-08-15T02:48:46.787Z,13,GR86-024-41,1.2000000000000002,0.095,-0.022,99.84,5.0,,0.0,0.0,
2025-08-15T02:48:46.830Z,13,GR86-024-41,1.2000000000000002,0.112,-0.021,99.85,5.0,6419.0,0.0,0.0,
2025-08-15T02:48:46.873Z,13,GR86-024-41,1.3,0.103,-0.003,99.85,5.0,,0.0,0.0,188.54
2025-08-15T02:48:46.916Z,13,GR86-024-41,1.4,0.114,0.018,99.84,5.0,,0.0,0.0,
2025-08-15T02:48:46.959Z,13,GR86-024-41,1.6,0.068,0.035,99.85,5.0,,0.0,0.0,
2025-08-15T02:48:47.002Z,13,GR86-024-41,1.7000000000000002,0.052,0.054,99.85,5.0,,0.0,0.0,
2025-08-15T02:48:47.045Z,13,GR86-024-41,1.8,0.083,0.047,99.85,5.0,6430.0,0.0,0.0,
2025-08-15T02:48:47.088Z,13,GR86-024-41,1.9,0.082,0.053,99.87,5.0,,0.0,0.0,189.25
2025-08-15T02:48:47.131Z,13,GR86-024-41,1.9,0.08,0.04,99.84,5.0,,0.0,0.0,
2025-08-15T02:48:47.174Z,13,GR86-024-41,1.9,0.095,0.047,99.85,5.0,,0.0,0.0,
2025-08-15T02:48:47.217Z,13,GR86-024-41,1.9,0.094,0.055,99.83,5.0,,0.0,0.0,
2025-08-15T02:48:47.260Z,13,GR86-024-41,1.9,0.056,0.058,99.85,5.0,6445.0,0.0,0.0,
2025-08-15T02:48:47.303Z,13,GR86-024-41,1.9,0.058,0.054,99.84,5.0,,0.0,0.0,189.92
2025-08-15T02:48:47.346Z,13,GR86-024-41,1.9,0.065,0.047,99.86,5.0,,0.0,0.0,
2025-08-15T02:48:47.389Z,13,GR86-024-41,1.9,0.087,0.054,99.86,5.0,,0.0,0.0,
2025-08-15T02:48:47.432Z,13,GR86-024-41,1.8,0.062,0.054,99.83,5.0,,0.0,0.0,
2025-08-15T02:48:47.475Z,13,GR86-024-41,1.8,0.088,0.025,99.84,5.0,6484.0,0.0,0.0,
2025-08-15T02:48:47.518Z,13,GR86-024-41,1.8,0.078,0.019,99.86,5.0,,0.0,0.0,190.58
2025-08-15T02:48:47.561Z,13,GR86-024-41,1.7000000000000002,0.07,0.033,99.85,5.0,,0.0,0.0,
2025-08-15T02:48:47.604Z,13,GR86-024-41,1.7000000000000002,0.073,0.048,99.85,5.0,,0.0,0.0,
2025-08-15T02:48:47.647Z,13,GR86-024-41,1.6,0.064,0.035,99.83,5.0,,0.0,0.0,
2025-08-15T02:48:47.690Z,13,GR86-024-41,1.6,0.081,0.02,99.84,5.0,6496.0,0.0,0.0,
2025-08-15T02:48:47.733Z,13,GR86-024-41,1.6,0.062,0.013,99.82,5.0,,0.0,0.0,191.25
2025-08-15T02:48:47.776Z,13,GR86-024-41,1.4,0.089,-0.001,99.84,5.0,,0.0,0.0,
2025-08-15T02:48:47.819Z,13,GR86-024-41,0.3,0.073,0.009,99.84,5.0,,0.0,0.0,
2025-08-15T02:48:47.862Z,13,GR86-024-41,-0.2,0.067,-0.023,99.83,5.0,,0.0,0.0,
2025-08-15T02:48:47.905Z,13,GR86-024-41,-0.2,0.077,-0.027,99.85,5.0,6516.0,0.0,0.0,
2025-08-15T02:48:47.948Z,13,GR86-024-41,-0.2,0.073,-0.044,99.84,5.0,,0.0,0.0,191.85
2025-08-15T02:48:47.991Z,13,GR86-024-41,-0.3,0.069,-0.073,99.84,5.0,,0.0,0.0,
2025-08-15T02:48:48.036Z,13,GR86-024-41,-0.7000000000000001,0.084,-0.1,99.85,5.0,,0.0,0.0,
2025-08-15T02:48:48.081Z,13,GR86-024-41,-1.7000000000000002,0.075,-0.137,99.84,5.0,,0.0,0.0,
2025-08-15T02:48:48.124Z,13,GR86-024-41,-1.8,0.077,-0.152,99.83,5.0,6540.0,0.0,0.0,
2025-08-15T02:48:48.167Z,13,GR86-024-41,-1.8,0.067,-0.179,99.86,5.0,,0.0,0.0,192.54
2025-08-15T02:48:48.210Z,13,GR86-024-41,-1.4,0.083,-0.181,99.85,5.0,,0.0,0.0,
2025-08-15T02:48:48.254Z,13,GR86-024-41,0.3,0.068,-0.138,99.85,5.0,,0.0,0.0,
2025-08-15T02:48:48.297Z,13,GR86-024-41,1.2000000000000002,0.074,-0.122,99.83,5.0,,0.0,0.0,
2025-08-15T02:48:48.341Z,13,GR86-024-41,1.3,0.09,-0.092,99.83,5.0,6550.0,0.0,0.0,
2025-08-15T02:48:48.384Z,13,GR86-024-41,1.3,0.069,-0.058,99.84,5.0,,0.0,0.0,193.67
2025-08-15T02:48:48.427Z,13,GR86-024-41,1.3,0.074,-0.018,99.84,5.0,,0.0,0.0,
2025-08-15T02:48:48.470Z,13,GR86-024-41,1.3,0.076,0.032,99.85,5.0,,0.0,0.0,
2025-08-15T02:48:48.513Z,13,GR86-024-41,1.3,0.068,0.041,99.83,5.0,,0.0,0.0,
2025-08-15T02:48:48.556Z,13,GR86-024-41,1.3,0.073,0.049,99.85,5.0,6588.0,0.0,0.0,
2025-08-15T02:48:48.599Z,13,GR86-024-41,1.3,0.072,0.037,99.87,5.0,,0.0,0.0,194.48
2025-08-15T02:48:48.643Z,13,GR86-024-41,1.3,0.069,0.054,99.85,5.0,,0.0,0.0,
2025-08-15T02:48:48.687Z,13,GR86-024-41,1.3,0.081,0.057,99.84,5.0,,0.0,0.0,
2025-08-15T02:48:48.730Z,13,GR86-024-41,1.3,0.06,0.035,99.84,5.0,,0.0,0.0,
2025-08-15T02:48:48.773Z,13,GR86-024-41,1.3,0.068,0.01,99.83,5.0,6606.0,0.0,0.0,
2025-08-15T02:48:48.816Z,13,GR86-024-41,1.3,0.073,-0.001,99.85,5.0,,0.0,0.0,195.17
2025-08-15T02:48:48.859Z,13,GR86-024-41,1.3,0.063,-0.013,99.83,5.0,,0.0,0.0,
2025-08-15T02:48:48.902Z,13,GR86-024-41,1.3,0.067,-0.011,99.82,5.0,,0.0,0.0,
2025-08-15T02:48:48.945Z,13,GR86-024-41,1.3,0.053,0.012,99.83,5.0,,0.0,0.0,
2025-08-15T02:48:48.988Z,13,GR86-024-41,1.3,0.075,0.02,99.85,5.0,6656.0,0.0,0.0,
2025-08-15T02:48:49.031Z,13,GR86-024-41,1.4,0.075,0.034,99.83,5.0,,0.0,0.0,195.83
2025-08-15T02:48:49.074Z,13,GR86-024-41,1.6,0.074,0.051,99.83,5.0,,0.0,0.0,
2025-08-15T02:48:49.117Z,13,GR86-024-41,1.9,0.08,0.052,99.84,5.0,,0.0,0.0,
2025-08-15T02:48:49.160Z,13,GR86-024-41,2.0,0.052,0.049,99.84,5.0,,0.0,0.0,
2025-08-15T02:48:49.246Z,13,GR86-024-41,1.8,0.068,0.051,99.83,5.0,6672.0,0.0,0.0,196.56
2025-08-15T02:48:49.289Z,13,GR86-024-41,1.7000000000000002,0.06,0.056,99.84,5.0,,0.0,0.0,
2025-08-15T02:48:49.332Z,13,GR86-024-41,1.7000000000000002,0.066,0.052,99.84,5.0,,0.0,0.0,
2025-08-15T02:48:49.376Z,13,GR86-024-41,1.7000000000000002,0.081,0.044,99.83,5.0,,0.0,0.0,
2025-08-15T02:48:49.419Z,13,GR86-024-41,1.7000000000000002,0.061,0.026,99.83,5.0,6694.0,0.0,0.0,
2025-08-15T02:48:49.462Z,13,GR86-024-41,1.7000000000000002,0.065,0.03,99.82,5.0,,0.0,0.0,197.12
2025-08-15T02:48:49.505Z,13,GR86-024-41,1.7000000000000002,0.056,0.034,99.84,5.0,,0.0,0.0,
2025-08-15T02:48:49.548Z,13,GR86-024-41,1.7000000000000002,0.08,0.047,99.82,5.0,,0.0,0.0,
2025-08-15T02:48:49.591Z,13,GR86-024-41,1.8,0.074,0.056,99.83,5.0,,0.0,0.0,
2025-08-15T02:48:49.634Z,13,GR86-024-41,1.9,0.089,0.059,99.83,5.0,6717.0,0.0,0.0,
2025-08-15T02:48:49.678Z,13,GR86-024-41,2.0,0.063,0.054,99.83,5.0,,0.0,0.0,197.82
2025-08-15T02:48:49.721Z,13,GR86-024-41,2.1,0.058,0.048,99.84,5.0,,0.0,0.0,
2025-08-15T02:48:49.764Z,13,GR86-024-41,2.1,0.093,0.056,99.85,5.0,,0.0,0.0,
2025-08-15T02:48:49.807Z,13,GR86-024-41,2.1,0.071,0.062,99.85,5.0,,0.0,0.0,
2025-08-15T02:48:49.850Z,13,GR86-024-41,2.1,0.081,0.076,99.84,5.0,6748.0,0.0,0.0,
2025-08-15T02:48:49.893Z,13,GR86-024-41,2.1,0.062,0.08,99.84,5.0,,0.0,0.0,198.41
2025-08-15T02:48:49.936Z,13,GR86-024-41,2.1,0.054,0.083,99.85,5.0,,0.0,0.0,
2025-08-15T02:48:49.981Z,13,GR86-024-41,2.2,0.086,0.092,99.85,5.0,,0.0,0.0,
2025-08-15T02:48:50.024Z,13,GR86-024-41,2.3000000000000003,0.08,0.105,99.83,5.0,,0.0,0.0,
2025-08-15T02:48:50.067Z,13,GR86-024-41,2.4000000000000004,0.083,0.093,99.85,5.0,6755.0,0.0,0.0,
2025-08-15T02:48:50.110Z,13,GR86-024-41,2.4000000000000004,0.06,0.069,99.83,5.0,,0.0,0.0,199.04
2025-08-15T02:48:50.153Z,13,GR86-024-41,2.4000000000000004,0.051,0.08,99.84,5.0,,0.0,0.0,
2025-08-15T02:48:50.196Z,13,GR86-024-41,2.4000000000000004,0.057,0.067,99.83,5.0,,0.0,0.0,
2025-08-15T02:48:50.239Z,13,GR86-024-41,2.4000000000000004,0.083,0.086,99.83,5.0,,0.0,0.0,
2025-08-15T02:48:50.283Z,13,GR86-024-41,2.4000000000000004,0.064,0.081,99.83,5.0,6777.0,0.0,0.0,
2025-08-15T02:48:50.326Z,13,GR86-024-41,2.4000000000000004,0.073,0.08,99.82,5.0,,0.0,0.0,199.61
2025-08-15T02:48:50.369Z,13,GR86-024-41,2.6,0.04,0.079,99.84,5.0,,0.0,0.0,
2025-08-15T02:48:50.412Z,13,GR86-024-41,2.7,0.077,0.086,99.85,5.0,,0.0,0.0,
2025-08-15T02:48:50.455Z,13,GR86-024-41,2.8000000000000003,0.045,0.087,99.86,5.0,,0.0,0.0,
2025-08-15T02:48:50.498Z,13,GR86-024-41,2.8000000000000003,0.079,0.093,99.84,5.0,6804.0,0.0,0.0,
2025-08-15T02:48:50.541Z,13,GR86-024-41,2.6,0.079,0.102,99.84,5.0,,0.0,0.0,200.16
2025-08-15T02:48:50.584Z,13,GR86-024-41,2.5,0.035,0.099,99.86,5.0,,0.0,0.0,
2025-08-15T02:48:50.670Z,13,GR86-024-41,2.5,0.068,0.088,99.83,5.0,,0.0,0.0,
2025-08-15T02:48:50.713Z,13,GR86-024-41,2.4000000000000004,0.074,0.091,99.84,5.0,6812.0,0.0,0.0,
2025-08-15T02:48:50.756Z,13,GR86-024-41,2.4000000000000004,0.095,0.091,99.81,5.0,,0.0,0.0,200.82
2025-08-15T02:48:50.799Z,13,GR86-024-41,2.2,0.067,0.05,99.84,5.0,,0.0,0.0,
2025-08-15T02:48:50.842Z,13,GR86-024-41,2.2,0.072,0.07,99.85,5.0,,0.0,0.0,
2025-08-15T02:48:50.885Z,13,GR86-024-41,2.3000000000000003,0.077,0.088,99.82,5.0,,0.0,0.0,
2025-08-15T02:48:50.928Z,13,GR86-024-41,2.4000000000000004,0.095,0.073,99.82,5.0,6837.0,0.0,0.0,
2025-08-15T02:48:50.971Z,13,GR86-024-41,2.5,0.071,0.059,99.83,5.0,,0.0,0.0,201.35
2025-08-15T02:48:51.014Z,13,GR86-024-41,2.6,0.061,0.062,99.86,5.0,,0.0,0.0,
2025-08-15T02:48:51.057Z,13,GR86-024-41,2.5,0.063,0.057,99.83,5.0,,0.0,0.0,
2025-08-15T02:48:51.100Z,13,GR86-024-41,2.4000000000000004,0.094,0.069,99.84,5.0,,0.0,0.0,
2025-08-15T02:48:51.143Z,13,GR86-024-41,2.7,0.066,0.067,99.85,5.0,6861.0,0.0,0.0,
2025-08-15T02:48:51.186Z,13,GR86-024-41,2.8000000000000003,0.054,0.108,99.83,5.0,,0.0,0.0,202.5
2025-08-15T02:48:51.229Z,13,GR86-024-41,2.8000000000000003,0.039,0.116,99.84,5.0,,0.0,0.0,
2025-08-15T02:48:51.272Z,13,GR86-024-41,2.8000000000000003,0.048,0.094,99.84,5.0,,0.0,0.0,
2025-08-15T02:48:51.316Z,13,GR86-024-41,2.8000000000000003,0.035,0.091,99.83,5.0,,0.0,0.0,
2025-08-15T02:48:51.361Z,13,GR86-024-41,2.6,0.051,0.099,99.82,5.0,6871.0,0.0,0.0,
2025-08-15T02:48:51.404Z,13,GR86-024-41,2.5,0.044,0.089,99.85,5.0,,0.0,0.0,202.91
2025-08-15T02:48:51.447Z,13,GR86-024-41,2.4000000000000004,0.038,0.073,99.83,5.0,,0.0,0.0,
2025-08-15T02:48:51.491Z,13,GR86-024-41,2.4000000000000004,0.046,0.056,99.84,5.0,,0.0,0.0,
2025-08-15T02:48:51.534Z,13,GR86-024-41,2.4000000000000004,0.073,0.064,99.84,5.0,,0.0,0.0,
2025-08-15T02:48:51.577Z,13,GR86-024-41,2.4000000000000004,0.063,0.062,99.83,5.0,6898.0,0.0,0.0,
2025-08-15T02:48:51.620Z,13,GR86-024-41,2.2,0.047,0.047,99.82,5.0,,0.0,0.0,203.5
2025-08-15T02:48:51.663Z,13,GR86-024-41,2.2,0.044,0.037,99.84,5.0,,0.0,0.0,
2025-08-15T02:48:51.706Z,13,GR86-024-41,2.2,0.077,0.035,99.83,5.0,,0.0,0.0,
2025-08-15T02:48:51.793Z,13,GR86-024-41,2.0,0.082,0.03,99.84,5.0,6928.0,0.0,0.0,
2025-08-15T02:48:51.837Z,13,GR86-024-41,2.0,0.051,0.038,99.83,5.0,,0.0,0.0,203.84
2025-08-15T02:48:51.881Z,13,GR86-024-41,2.0,0.069,0.033,99.83,5.0,,0.0,0.0,
2025-08-15T02:48:51.924Z,13,GR86-024-41,2.0,0.075,0.03,99.84,5.0,,0.0,0.0,
2025-08-15T02:48:51.967Z,13,GR86-024-41,2.0,0.058,0.027,99.84,5.0,,0.0,0.0,
2025-08-15T02:48:52.010Z,13,GR86-024-41,1.9,0.036,0.025,99.83,5.0,6943.0,0.0,0.0,
2025-08-15T02:48:52.053Z,13,GR86-024-41,1.9,0.035,0.054,99.84,5.0,,0.0,0.0,204.3
2025-08-15T02:48:52.096Z,13,GR86-024-41,1.8,0.047,0.038,99.83,5.0,,0.0,0.0,
2025-08-15T02:48:52.139Z,13,GR86-024-41,1.8,0.054,0.011,99.83,5.0,,0.0,0.0,
2025-08-15T02:48:52.182Z,13,GR86-024-41,1.7000000000000002,0.009,-0.003,99.83,5.0,,0.0,0.0,
2025-08-15T02:48:52.225Z,13,GR86-024-41,1.6,0.035,0.016,99.82,5.0,6959.0,0.0,0.0,
2025-08-15T02:48:52.268Z,13,GR86-024-41,1.5,0.037,0.001,99.83,5.0,,0.0,0.0,204.8
2025-08-15T02:48:52.311Z,13,GR86-024-41,1.5,0.07,-0.002,99.83,5.0,,0.0,0.0,
2025-08-15T02:48:52.354Z,13,GR86-024-41,1.5,0.072,-0.006,99.82,5.0,,0.0,0.0,
2025-08-15T02:48:52.397Z,13,GR86-024-41,1.5,0.073,0.006,99.82,5.0,,0.0,0.0,
2025-08-15T02:48:52.440Z,13,GR86-024-41,1.5,0.057,-0.004,99.83,5.0,6969.0,0.0,0.0,
2025-08-15T02:48:52.483Z,13,GR86-024-41,1.5,0.074,0.011,99.84,5.0,,0.0,0.0,205.23
2025-08-15T02:48:52.526Z,13,GR86-024-41,1.6,0.07,0.007,99.84,5.0,,0.0,0.0,
2025-08-15T02:48:52.569Z,13,GR86-024-41,1.6,0.061,0.016,99.82,5.0,,0.0,0.0,
2025-08-15T02:48:52.612Z,13,GR86-024-41,1.7000000000000002,0.058,0.03,99.83,5.0,,0.0,0.0,
2025-08-15T02:48:52.655Z,13,GR86-024-41,1.8,0.023,0.034,99.84,5.0,6975.0,0.0,0.0,
2025-08-15T02:48:52.698Z,13,GR86-024-41,1.8,0.055,0.033,99.83,5.0,,0.0,0.0,205.7
2025-08-15T02:48:52.741Z,13,GR86-024-41,1.7000000000000002,0.063,0.04,99.82,5.0,,0.0,0.0,
2025-08-15T02:48:52.784Z,13,GR86-024-41,1.7000000000000002,0.025,0.042,99.84,5.0,,0.0,0.0,
2025-08-15T02:48:52.827Z,13,GR86-024-41,1.7000000000000002,0.04,0.046,99.82,5.0,,0.0,0.0,
2025-08-15T02:48:52.870Z,13,GR86-024-41,1.7000000000000002,0.053,0.037,99.83,5.0,6988.0,0.0,0.0,
2025-08-15T02:48:52.913Z,13,GR86-024-41,1.7000000000000002,0.051,0.016,99.85,5.0,,0.0,0.0,206.11
2025-08-15T02:48:52.956Z,13,GR86-024-41,1.6,0.079,0.029,99.81,5.0,,0.0,0.0,
2025-08-15T02:48:52.999Z,13,GR86-024-41,1.4,0.051,0.039,99.84,5.0,,0.0,0.0,
2025-08-15T02:48:53.042Z,13,GR86-024-41,1.3,0.053,0.025,99.82,5.0,,0.0,0.0,
2025-08-15T02:48:53.086Z,13,GR86-024-41,1.3,0.08,0.02,99.84,5.0,7017.0,0.0,0.0,
2025-08-15T02:48:53.129Z,13,GR86-024-41,1.3,0.059,0.042,99.85,5.0,,0.0,0.0,206.62
2025-08-15T02:48:53.172Z,13,GR86-024-41,1.3,0.052,0.041,99.82,5.0,,0.0,0.0,
2025-08-15T02:48:53.215Z,13,GR86-024-41,1.2000000000000002,0.023,0.052,99.82,5.0,,0.0,0.0,
2025-08-15T02:48:53.258Z,13,GR86-024-41,1.2000000000000002,0.037,0.023,96.88,5.0,,4.93,5.16,
2025-08-15T02:48:53.301Z,13,GR86-024-41,0.9,0.023,0.031,50.31,5.0,7020.0,8.040000000000001,8.18,
2025-08-15T02:48:53.387Z,13,GR86-024-41,0.7000000000000001,-0.053,0.009,36.7,5.0,,11.43,11.645,207.08
2025-08-15T02:48:53.430Z,13,GR86-024-41,0.4,-0.252,-0.024,18.29,5.0,,20.325,20.385,
2025-08-15T02:48:53.473Z,13,GR86-024-41,0.4,-0.399,-0.022,7.05,5.0,,30.61,30.61,
2025-08-15T02:48:53.516Z,13,GR86-024-41,0.3,-0.627,-0.037,6.3100000000000005,5.0,7044.0,45.095,44.88,
2025-08-15T02:48:53.559Z,13,GR86-024-41,0.0,-1.134,-0.037,4.53,5.0,,67.815,67.235,207.46
2025-08-15T02:48:53.603Z,13,GR86-024-41,-0.3,-1.32,-0.061,4.23,5.0,,79.215,78.45,
2025-08-15T02:48:53.646Z,13,GR86-024-41,-0.3,-1.283,-0.094,3.95,5.0,,87.395,88.495,
2025-08-15T02:48:53.689Z,13,GR86-024-41,0.2,-1.381,-0.063,3.48,5.0,,91.59,92.55,
2025-08-15T02:48:53.732Z,13,GR86-024-41,0.3,-1.393,-0.073,2.93,5.0,7014.0,91.895,92.905,
2025-08-15T02:48:53.775Z,13,GR86-024-41,0.1,-1.315,-0.063,2.72,5.0,,93.18,95.145,207.7
2025-08-15T02:48:53.818Z,13,GR86-024-41,0.0,-1.321,-0.046,14.47,5.0,,91.5,91.835,
2025-08-15T02:48:53.861Z,13,GR86-024-41,0.0,-1.394,-0.052,78.28,4.0,,89.575,91.15,
2025-08-15T02:48:53.904Z,13,GR86-024-41,0.0,-1.413,-0.082,56.39,4.0,,89.67,91.285,
2025-08-15T02:48:53.947Z,13,GR86-024-41,-1.1,-1.546,-0.098,3.42,4.0,6670.0,87.775,89.425,
2025-08-15T02:48:53.990Z,13,GR86-024-41,-2.7,-1.369,-0.049,3.6,4.0,,83.245,84.205,196.03
2025-08-15T02:48:54.033Z,13,GR86-024-41,-2.7,-1.21,-0.192,3.35,4.0,,74.12,74.925,
2025-08-15T02:48:54.076Z,13,GR86-024-41,2.7,-1.186,-0.1,3.16,4.0,,66.33500000000001,67.325,
2025-08-15T02:48:54.119Z,13,GR86-024-41,8.0,-1.173,-0.201,2.93,4.0,,58.28,59.36,
2025-08-15T02:48:54.162Z,13,GR86-024-41,8.200000000000001,-1.069,-0.126,2.81,4.0,6165.0,55.515,56.585,
2025-08-15T02:48:54.205Z,13,GR86-024-41,8.1,-1.247,-0.102,2.67,4.0,,56.28,57.44,182.17
2025-08-15T02:48:54.248Z,13,GR86-024-41,7.0,-1.122,-0.116,2.59,4.0,,57.44,58.215,
2025-08-15T02:48:54.291Z,13,GR86-024-41,3.4000000000000004,-1.174,-0.071,2.56,4.0,,56.78,56.905,
2025-08-15T02:48:54.334Z,13,GR86-024-41,-0.1,-1.144,-0.046,2.5500000000000003,4.0,,56.155,56.25,
2025-08-15T02:48:54.377Z,13,GR86-024-41,-1.7000000000000002,-1.12,-0.054,2.52,4.0,6621.0,56.095,56.28,
2025-08-15T02:48:54.420Z,13,GR86-024-41,-4.2,-1.145,-0.055,2.52,4.0,,56.185,56.585,176.87
2025-08-15T02:48:54.463Z,13,GR86-024-41,-6.300000000000001,-1.129,-0.051,2.51,4.0,,56.155,56.585,
2025-08-15T02:48:54.506Z,13,GR86-024-41,-7.2,-1.122,-0.068,2.51,4.0,,55.605,56.25,
2025-08-15T02:48:54.549Z,13,GR86-024-41,-7.2,-1.161,-0.108,2.49,4.0,,54.86,55.945,
2025-08-15T02:48:54.592Z,13,GR86-024-41,-4.800000000000001,-1.161,-0.123,2.48,4.0,6331.0,52.8,54.385,
2025-08-15T02:48:54.636Z,13,GR86-024-41,-1.5,-1.098,-0.112,12.57,4.0,,49.045,50.845,170.9
2025-08-15T02:48:54.681Z,13,GR86-024-41,-0.5,-1.034,-0.134,76.86,4.0,,43.615,45.275,
2025-08-15T02:48:54.724Z,13,GR86-024-41,-0.6000000000000001,-1.01,-0.138,99.72,4.0,,40.5,41.935,
2025-08-15T02:48:54.767Z,13,GR86-024-41,0.3,-0.897,-0.215,95.6,3.0,,37.615,38.96,
2025-08-15T02:48:54.811Z,13,GR86-024-41,1.5,-0.916,-0.232,30.92,3.0,5955.0,34.655,36.18,
2025-08-15T02:48:54.854Z,13,GR86-024-41,1.3,-1.082,-0.084,3.36,3.0,,33.405,34.625,163.25
2025-08-15T02:48:54.897Z,13,GR86-024-41,0.0,-0.773,-0.202,2.99,3.0,,32.075,32.96,
2025-08-15T02:48:54.984Z,13,GR86-024-41,-7.800000000000001,-0.725,-0.23,2.76,3.0,,26.69,27.775,
2025-08-15T02:48:55.027Z,13,GR86-024-41,-11.5,-0.712,-0.256,2.7,3.0,6123.0,25.605,26.81,
2025-08-15T02:48:55.070Z,13,GR86-024-41,-16.0,-0.728,-0.234,2.65,3.0,,25.055,26.11,156.15
2025-08-15T02:48:55.113Z,13,GR86-024-41,-19.700000000000003,-0.725,-0.371,2.61,3.0,,25.085,25.865,
2025-08-15T02:48:55.156Z,13,GR86-024-41,-21.200000000000003,-0.709,-0.452,2.57,3.0,,25.085,25.99,
2025-08-15T02:48:55.199Z,13,GR86-024-41,-21.200000000000003,-0.6880000000000001,-0.516,2.54,3.0,,23.96,25.025,
2025-08-15T02:48:55.287Z,13,GR86-024-41,-24.6,-0.498,-0.622,2.5,3.0,6783.0,10.345,11.215,150.28
2025-08-15T02:48:55.330Z,13,GR86-024-41,-31.6,-0.276,-0.765,2.51,3.0,,2.395,3.16,
2025-08-15T02:48:55.373Z,13,GR86-024-41,-39.7,-0.282,-0.903,2.52,3.0,,0.0,0.0,
2025-08-15T02:48:55.416Z,13,GR86-024-41,-45.5,-0.233,-0.938,2.5,3.0,,0.0,0.0,
2025-08-15T02:48:55.459Z,13,GR86-024-41,-45.7,-0.137,-1.091,2.48,3.0,6521.0,0.0,0.0,
2025-08-15T02:48:55.502Z,13,GR86-024-41,-41.6,-0.197,-1.108,2.48,3.0,,0.0,0.0,145.1
2025-08-15T02:48:55.545Z,13,GR86-024-41,-34.6,-0.202,-1.138,2.49,3.0,,0.0,0.0,
2025-08-15T02:48:55.588Z,13,GR86-024-41,-29.9,-0.173,-1.099,2.48,3.0,,0.0,0.0,
2025-08-15T02:48:55.631Z,13,GR86-024-41,-27.8,-0.168,-1.137,2.49,3.0,,0.0,0.0,
2025-08-15T02:48:55.674Z,13,GR86-024-41,-27.200000000000003,-0.189,-1.143,2.49,3.0,6396.0,0.0,0.0,
2025-08-15T02:48:55.717Z,13,GR86-024-41,-27.5,-0.201,-1.171,2.48,3.0,,0.0,0.0,141.70000000000002
2025-08-15T02:48:55.760Z,13,GR86-024-41,-34.7,-0.198,-1.187,2.48,3.0,,0.0,0.0,
2025-08-15T02:48:55.803Z,13,GR86-024-41,-39.6,-0.192,-1.259,2.48,3.0,,0.0,0.0,
2025-08-15T02:48:55.846Z,13,GR86-024-41,-40.3,-0.179,-1.236,2.48,3.0,,0.0,0.0,
2025-08-15T02:48:55.889Z,13,GR86-024-41,-39.6,-0.195,-1.239,2.52,3.0,6356.0,0.0,0.0,
2025-08-15T02:48:55.932Z,13,GR86-024-41,-34.2,-0.212,-1.237,2.86,3.0,,0.0,0.0,140.21
2025-08-15T02:48:55.976Z,13,GR86-024-41,-31.700000000000003,-0.184,-1.215,3.19,3.0,,0.0,0.0,
2025-08-15T02:48:56.019Z,13,GR86-024-41,-32.4,-0.194,-1.265,3.95,3.0,,0.0,0.0,
2025-08-15T02:48:56.062Z,13,GR86-024-41,-36.8,-0.185,-1.306,4.68,3.0,,0.0,0.0,
2025-08-15T02:48:56.148Z,13,GR86-024-41,-41.1,-0.186,-1.265,4.8100000000000005,3.0,6290.0,0.0,0.0,138.89
2025-08-15T02:48:56.191Z,13,GR86-024-41,-43.3,-0.189,-1.297,31.94,3.0,,0.0,0.0,
2025-08-15T02:48:56.234Z,13,GR86-024-41,-43.0,-0.18,-1.324,54.4,3.0,,0.0,0.0,
2025-08-15T02:48:56.277Z,13,GR86-024-41,-42.1,-0.148,-1.305,95.78,3.0,,0.0,0.0,
2025-08-15T02:48:56.320Z,13,GR86-024-41,-38.2,-0.105,-1.292,99.63,3.0,6203.0,0.0,0.0,
2025-08-15T02:48:56.363Z,13,GR86-024-41,-34.7,0.187,-1.289,99.71,3.0,,0.0,0.0,137.58
2025-08-15T02:48:56.406Z,13,GR86-024-41,-30.1,0.21,-1.318,99.76,3.0,,0.0,0.0,
2025-08-15T02:48:56.493Z,13,GR86-024-41,-26.6,0.212,-1.302,99.75,3.0,,0.0,0.0,
2025-08-15T02:48:56.536Z,13,GR86-024-41,-30.6,0.15,-1.246,99.79,3.0,6120.0,0.0,0.0,
2025-08-15T02:48:56.581Z,13,GR86-024-41,-43.900000000000006,0.117,-1.294,99.79,3.0,,0.0,0.0,134.15
2025-08-15T02:48:56.624Z,13,GR86-024-41,-49.2,0.115,-1.279,99.77,3.0,,0.0,0.0,
2025-08-15T02:48:56.710Z,13,GR86-024-41,-50.2,0.167,-1.29,99.79,3.0,,0.0,0.0,
2025-08-15T02:48:56.753Z,13,GR86-024-41,-50.0,0.112,-1.308,99.81,3.0,6547.0,0.0,0.0,
2025-08-15T02:48:56.796Z,13,GR86-024-41,-50.1,0.115,-1.197,99.79,3.0,,0.0,0.0,134.68
2025-08-15T02:48:56.839Z,13,GR86-024-41,-50.900000000000006,0.163,-1.167,99.79,3.0,,0.0,0.0,
2025-08-15T02:48:56.883Z,13,GR86-024-41,-50.8,0.152,-1.291,99.81,3.0,,0.0,0.0,
2025-08-15T02:48:56.926Z,13,GR86-024-41,-50.2,0.137,-1.101,99.81,3.0,,0.0,0.0,
2025-08-15T02:48:56.969Z,13,GR86-024-41,-49.1,0.156,-1.248,99.8,3.0,6410.0,0.0,0.0,
2025-08-15T02:48:57.012Z,13,GR86-024-41,-47.400000000000006,0.159,-1.421,99.83,3.0,,0.0,0.0,134.09
2025-08-15T02:48:57.055Z,13,GR86-024-41,-46.5,0.248,-1.185,99.81,3.0,,0.0,0.0,
2025-08-15T02:48:57.098Z,13,GR86-024-41,-46.1,0.085,-1.256,99.82,3.0,,0.0,0.0,
2025-08-15T02:48:57.141Z,13,GR86-024-41,-48.7,0.172,-1.234,99.81,3.0,,0.0,0.0,
2025-08-15T02:48:57.184Z,13,GR86-024-41,-52.8,0.227,-1.211,99.83,3.0,6499.0,0.0,0.0,
2025-08-15T02:48:57.227Z,13,GR86-024-41,-54.8,0.158,-1.272,99.82,3.0,,0.0,0.0,134.89
2025-08-15T02:48:57.270Z,13,GR86-024-41,-55.2,0.117,-1.297,99.81,3.0,,0.0,0.0,
2025-08-15T02:48:57.313Z,13,GR86-024-41,-55.400000000000006,0.101,-1.257,99.83,3.0,,0.0,0.0,
2025-08-15T02:48:57.356Z,13,GR86-024-41,-56.2,0.135,-1.363,99.81,3.0,,0.0,0.0,
2025-08-15T02:48:57.399Z,13,GR86-024-41,-58.400000000000006,0.12,-1.274,99.81,3.0,6527.0,0.0,0.0,
2025-08-15T02:48:57.442Z,13,GR86-024-41,-59.400000000000006,0.15,-1.313,99.82,3.0,,0.0,0.0,135.5
2025-08-15T02:48:57.485Z,13,GR86-024-41,-60.400000000000006,0.161,-1.284,99.82,3.0,,0.0,0.0,
2025-08-15T02:48:57.528Z,13,GR86-024-41,-61.2,0.108,-1.262,99.82,3.0,,0.0,0.0,
2025-08-15T02:48:57.571Z,13,GR86-024-41,-62.0,0.123,-1.226,96.91,3.0,,0.0,0.0,
2025-08-15T02:48:57.614Z,13,GR86-024-41,-62.8,0.165,-1.22,50.98,3.0,6491.0,0.0,0.0,
2025-08-15T02:48:57.657Z,13,GR86-024-41,-63.2,0.169,-1.267,36.99,3.0,,0.0,0.0,135.14
2025-08-15T02:48:57.700Z,13,GR86-024-41,-63.400000000000006,0.135,-1.354,32.160000000000004,3.0,,0.0,0.0,
2025-08-15T02:48:57.743Z,13,GR86-024-41,-63.900000000000006,0.071,-1.39,31.92,3.0,,0.0,0.0,
2025-08-15T02:48:57.786Z,13,GR86-024-41,-64.4,-0.01,-1.36,31.74,3.0,,0.0,0.0,
2025-08-15T02:48:57.829Z,13,GR86-024-41,-65.2,0.019,-1.303,26.37,3.0,6519.0,0.0,0.0,
2025-08-15T02:48:57.872Z,13,GR86-024-41,-66.4,0.06,-1.306,21.14,3.0,,0.0,0.0,135.25
2025-08-15T02:48:57.915Z,13,GR86-024-41,-67.5,0.046,-1.267,20.4,3.0,,0.0,0.0,
2025-08-15T02:48:57.961Z,13,GR86-024-41,-68.3,0.005,-1.227,21.73,3.0,,0.0,0.0,
2025-08-15T02:48:58.004Z,13,GR86-024-41,-68.4,-0.077,-1.201,23.07,3.0,,0.0,0.0,
2025-08-15T02:48:58.047Z,13,GR86-024-41,-68.5,-0.085,-1.235,24.59,3.0,6428.0,0.0,0.0,
2025-08-15T02:48:58.091Z,13,GR86-024-41,-68.60000000000001,-0.062,-1.306,25.01,3.0,,0.0,0.0,135.45
2025-08-15T02:48:58.135Z,13,GR86-024-41,-68.7,-0.044,-1.346,27.11,3.0,,0.0,0.0,
2025-08-15T02:48:58.221Z,13,GR86-024-41,-68.8,-0.005,-1.292,30.32,3.0,,0.0,0.0,
2025-08-15T02:48:58.265Z,13,GR86-024-41,-68.8,-0.003,-1.295,32.07,3.0,6357.0,0.0,0.0,
2025-08-15T02:48:58.308Z,13,GR86-024-41,-68.8,0.024,-1.308,32.96,3.0,,0.0,0.0,135.78
2025-08-15T02:48:58.351Z,13,GR86-024-41,-68.8,0.04,-1.348,33.74,3.0,,0.0,0.0,
2025-08-15T02:48:58.394Z,13,GR86-024-41,-68.8,0.046,-1.31,33.9,3.0,,0.0,0.0,
2025-08-15T02:48:58.437Z,13,GR86-024-41,-68.7,0.051,-1.271,34.0,3.0,,0.0,0.0,
2025-08-15T02:48:58.481Z,13,GR86-024-41,-68.5,0.043,-1.249,34.2,3.0,6400.0,0.0,0.0,
2025-08-15T02:48:58.524Z,13,GR86-024-41,-68.10000000000001,0.067,-1.268,34.550000000000004,3.0,,0.0,0.0,135.41
2025-08-15T02:48:58.567Z,13,GR86-024-41,-67.2,0.047,-1.269,36.03,3.0,,0.0,0.0,
2025-08-15T02:48:58.610Z,13,GR86-024-41,-65.8,0.041,-1.2,37.31,3.0,,0.0,0.0,
2025-08-15T02:48:58.653Z,13,GR86-024-41,-64.4,0.093,-1.122,37.97,3.0,,0.0,0.0,
2025-08-15T02:48:58.696Z,13,GR86-024-41,-62.2,0.148,-0.903,39.38,3.0,6397.0,0.0,0.0,
2025-08-15T02:48:58.739Z,13,GR86-024-41,-57.1,0.034,-0.553,47.2,3.0,,0.0,0.0,135.04
2025-08-15T02:48:58.782Z,13,GR86-024-41,-51.6,-0.009,-0.653,54.01,3.0,,0.0,0.0,
2025-08-15T02:48:58.825Z,13,GR86-024-41,-42.1,-0.022,-0.858,62.41,3.0,,0.0,0.0,
2025-08-15T02:48:58.868Z,13,GR86-024-41,-32.1,0.174,-0.932,80.11,3.0,,0.0,0.0,
2025-08-15T02:48:58.911Z,13,GR86-024-41,-21.3,0.358,-0.716,89.26,3.0,6383.0,0.0,0.0,
2025-08-15T02:48:58.997Z,13,GR86-024-41,-10.0,0.205,-0.715,88.66,3.0,,0.0,0.0,134.64
2025-08-15T02:48:59.040Z,13,GR86-024-41,0.6000000000000001,0.305,-1.178,99.83,3.0,,0.0,0.0,
2025-08-15T02:48:59.083Z,13,GR86-024-41,1.4,0.133,-1.157,99.82,3.0,,0.0,0.0,
2025-08-15T02:48:59.169Z,13,GR86-024-41,0.4,0.11,-1.155,99.83,3.0,6427.0,0.0,0.0,134.63
2025-08-15T02:48:59.212Z,13,GR86-024-41,-25.4,0.058,-1.225,99.83,3.0,,0.0,0.0,
2025-08-15T02:48:59.255Z,13,GR86-024-41,-33.7,0.253,-1.523,99.82,3.0,,0.0,0.0,
2025-08-15T02:48:59.298Z,13,GR86-024-41,-34.800000000000004,0.342,-1.578,99.81,3.0,,0.0,0.0,
2025-08-15T02:48:59.384Z,13,GR86-024-41,-19.8,0.14,-1.305,99.82,3.0,6609.0,0.0,0.0,136.61
2025-08-15T02:48:59.427Z,13,GR86-024-41,-2.0,0.106,-0.971,99.81,3.0,,0.0,0.0,
2025-08-15T02:48:59.470Z,13,GR86-024-41,-10.8,0.186,-0.783,99.82,3.0,,0.0,0.0,
2025-08-15T02:48:59.513Z,13,GR86-024-41,-25.4,0.276,-0.981,99.84,3.0,,0.0,0.0,
2025-08-15T02:48:59.556Z,13,GR86-024-41,-33.5,0.277,-1.008,99.82,3.0,6552.0,0.0,0.0,
2025-08-15T02:48:59.599Z,13,GR86-024-41,-33.300000000000004,0.167,-1.04,99.82,3.0,,0.0,0.0,136.57
2025-08-15T02:48:59.642Z,13,GR86-024-41,-22.9,0.152,-1.108,99.81,3.0,,0.0,0.0,
2025-08-15T02:48:59.729Z,13,GR86-024-41,-8.4,0.238,-1.146,99.82,3.0,,0.0,0.0,
2025-08-15T02:48:59.772Z,13,GR86-024-41,-8.1,0.347,-1.087,99.81,3.0,6507.0,0.0,0.0,
2025-08-15T02:48:59.815Z,13,GR86-024-41,-10.2,0.204,-0.955,99.83,3.0,,0.0,0.0,136.51
2025-08-15T02:48:59.859Z,13,GR86-024-41,-17.1,0.156,-0.871,99.82,3.0,,0.0,0.0,
2025-08-15T02:48:59.902Z,13,GR86-024-41,-22.0,0.185,-0.739,99.83,3.0,,0.0,0.0,
2025-08-15T02:48:59.945Z,13,GR86-024-41,-25.700000000000003,0.135,-0.725,99.83,3.0,,0.0,0.0,
2025-08-15T02:48:59.988Z,13,GR86-024-41,-26.8,0.221,-0.624,99.8,3.0,6578.0,0.0,0.0,
2025-08-15T02:49:00.031Z,13,GR86-024-41,-26.4,0.175,-0.638,99.81,3.0,,0.0,0.0,138.12
2025-08-15T02:49:00.074Z,13,GR86-024-41,-21.8,0.199,-0.5700000000000001,99.82,3.0,,0.0,0.0,
2025-08-15T02:49:00.117Z,13,GR86-024-41,-18.6,0.178,-0.529,99.84,3.0,,0.0,0.0,
2025-08-15T02:49:00.160Z,13,GR86-024-41,-17.1,0.185,-0.586,99.81,3.0,,0.0,0.0,
2025-08-15T02:49:00.204Z,13,GR86-024-41,-15.2,0.139,-0.526,99.82,3.0,6589.0,0.0,0.0,
2025-08-15T02:49:00.247Z,13,GR86-024-41,-11.9,0.17,-0.5730000000000001,99.83,3.0,,0.0,0.0,139.77
2025-08-15T02:49:00.290Z,13,GR86-024-41,-8.4,0.243,-0.61,99.83,3.0,,0.0,0.0,
2025-08-15T02:49:00.333Z,13,GR86-024-41,-6.300000000000001,0.195,-0.483,99.83,3.0,,0.0,0.0,
2025-08-15T02:49:00.376Z,13,GR86-024-41,-6.0,0.171,-0.448,99.79,3.0,,0.0,0.0,
2025-08-15T02:49:00.419Z,13,GR86-024-41,-6.1000000000000005,0.2,-0.333,99.81,3.0,6628.0,0.0,0.0,
2025-08-15T02:49:00.462Z,13,GR86-024-41,-5.9,0.126,-0.265,99.83,3.0,,0.0,0.0,140.98
2025-08-15T02:49:00.505Z,13,GR86-024-41,-2.9000000000000004,0.226,-0.156,99.81,3.0,,0.0,0.0,
2025-08-15T02:49:00.548Z,13,GR86-024-41,-0.1,0.195,-0.111,99.81,3.0,,0.0,0.0,
2025-08-15T02:49:00.591Z,13,GR86-024-41,0.8,0.164,-0.027,99.82,3.0,,0.0,0.0,
2025-08-15T02:49:00.635Z,13,GR86-024-41,0.7000000000000001,0.031,-0.073,99.82,3.0,6691.0,0.0,0.0,
2025-08-15T02:49:00.678Z,13,GR86-024-41,0.9,0.157,-0.078,99.82,3.0,,0.0,0.0,142.41
2025-08-15T02:49:00.721Z,13,GR86-024-41,3.7,0.382,-0.159,99.81,3.0,,0.0,0.0,
2025-08-15T02:49:00.764Z,13,GR86-024-41,5.800000000000001,0.167,-0.057,99.82,3.0,,0.0,0.0,
2025-08-15T02:49:00.807Z,13,GR86-024-41,5.9,0.119,-0.197,99.83,3.0,,0.0,0.0,
2025-08-15T02:49:00.850Z,13,GR86-024-41,5.6000000000000005,0.169,0.012,99.83,3.0,6724.0,0.0,0.0,
2025-08-15T02:49:00.893Z,13,GR86-024-41,4.7,0.197,-0.075,99.83,3.0,,0.0,0.0,143.53
2025-08-15T02:49:00.936Z,13,GR86-024-41,4.1000000000000005,0.2,0.103,99.81,3.0,,0.0,0.0,
2025-08-15T02:49:00.981Z,13,GR86-024-41,2.8000000000000003,0.222,0.069,99.83,3.0,,0.0,0.0,
2025-08-15T02:49:01.024Z,13,GR86-024-41,2.2,0.208,0.099,99.82,3.0,,0.0,0.0,
2025-08-15T02:49:01.067Z,13,GR86-024-41,1.7000000000000002,0.139,0.187,99.83,3.0,6695.0,0.0,0.0,
2025-08-15T02:49:01.110Z,13,GR86-024-41,1.3,0.253,0.175,99.82,3.0,,0.0,0.0,144.75
2025-08-15T02:49:01.154Z,13,GR86-024-41,1.5,0.267,0.188,99.82,3.0,,0.0,0.0,
2025-08-15T02:49:01.198Z,13,GR86-024-41,2.3000000000000003,0.2,0.131,99.82,3.0,,0.0,0.0,
2025-08-15T02:49:01.241Z,13,GR86-024-41,2.8000000000000003,0.174,0.178,99.81,3.0,,0.0,0.0,
2025-08-15T02:49:01.284Z,13,GR86-024-41,2.7,0.293,0.155,99.84,3.0,6920.0,0.0,0.0,
2025-08-15T02:49:01.327Z,13,GR86-024-41,2.7,0.053,0.21,99.8,3.0,,0.0,0.0,146.59
2025-08-15T02:49:01.370Z,13,GR86-024-41,2.9000000000000004,0.141,0.221,99.82,3.0,,0.0,0.0,
2025-08-15T02:49:01.413Z,13,GR86-024-41,3.4000000000000004,0.206,0.248,99.83,3.0,,0.0,0.0,
2025-08-15T02:49:01.456Z,13,GR86-024-41,3.9,0.246,0.13,99.81,3.0,,0.0,0.0,
2025-08-15T02:49:01.499Z,13,GR86-024-41,3.9,0.117,0.133,99.83,3.0,6969.0,0.0,0.0,
2025-08-15T02:49:01.544Z,13,GR86-024-41,3.8,0.119,0.142,99.83,3.0,,0.0,0.0,147.59
2025-08-15T02:49:01.587Z,13,GR86-024-41,3.8,0.176,0.129,99.81,3.0,,0.0,0.0,
2025-08-15T02:49:01.630Z,13,GR86-024-41,4.0,0.224,0.11,99.83,3.0,,0.0,0.0,
2025-08-15T02:49:01.673Z,13,GR86-024-41,4.2,0.213,0.086,99.82,3.0,,0.0,0.0,
2025-08-15T02:49:01.716Z,13,GR86-024-41,4.2,0.035,0.101,99.81,4.0,7100.0,0.0,0.0,
2025-08-15T02:49:01.759Z,13,GR86-024-41,4.1000000000000005,0.17,0.122,99.84,4.0,,0.0,0.0,148.87
2025-08-15T02:49:01.802Z,13,GR86-024-41,4.1000000000000005,0.436,0.015,99.84,4.0,,0.0,0.0,
2025-08-15T02:49:01.845Z,13,GR86-024-41,4.1000000000000005,0.261,0.103,99.84,4.0,,0.0,0.0,
2025-08-15T02:49:01.888Z,13,GR86-024-41,4.1000000000000005,0.004,0.15,99.83,4.0,,0.0,0.0,
2025-08-15T02:49:01.931Z,13,GR86-024-41,4.1000000000000005,0.041,0.05,99.82,4.0,7080.0,0.0,0.0,
2025-08-15T02:49:01.974Z,13,GR86-024-41,5.0,0.185,0.099,99.82,4.0,,0.0,0.0,150.8
2025-08-15T02:49:02.017Z,13,GR86-024-41,6.1000000000000005,0.229,0.105,99.83,4.0,,0.0,0.0,
2025-08-15T02:49:02.060Z,13,GR86-024-41,6.6000000000000005,0.105,0.122,99.82,4.0,,0.0,0.0,
2025-08-15T02:49:02.104Z,13,GR86-024-41,6.4,0.139,0.151,99.83,4.0,,0.0,0.0,
2025-08-15T02:49:02.147Z,13,GR86-024-41,6.300000000000001,0.182,0.117,99.83,4.0,6532.0,0.0,0.0,
2025-08-15T02:49:02.190Z,13,GR86-024-41,6.300000000000001,0.171,0.139,99.83,4.0,,0.0,0.0,153.49
2025-08-15T02:49:02.233Z,13,GR86-024-41,6.300000000000001,0.118,0.163,99.82,4.0,,0.0,0.0,
2025-08-15T02:49:02.276Z,13,GR86-024-41,6.300000000000001,0.108,0.17,99.82,4.0,,0.0,0.0,
2025-08-15T02:49:02.319Z,13,GR86-024-41,6.2,0.16,0.158,99.82,4.0,,0.0,0.0,
2025-08-15T02:49:02.362Z,13,GR86-024-41,6.1000000000000005,0.12,0.181,99.82,4.0,6125.0,0.0,0.0,
2025-08-15T02:49:02.405Z,13,GR86-024-41,6.1000000000000005,0.122,0.191,99.83,4.0,,0.0,0.0,154.83
2025-08-15T02:49:02.448Z,13,GR86-024-41,6.300000000000001,0.111,0.215,99.82,4.0,,0.0,0.0,
2025-08-15T02:49:02.491Z,13,GR86-024-41,6.4,0.145,0.205,99.83,4.0,,0.0,0.0,
2025-08-15T02:49:02.534Z,13,GR86-024-41,6.4,0.153,0.211,99.83,4.0,,0.0,0.0,
2025-08-15T02:49:02.577Z,13,GR86-024-41,6.300000000000001,0.167,0.214,99.82,4.0,6129.0,0.0,0.0,
2025-08-15T02:49:02.620Z,13,GR86-024-41,6.1000000000000005,0.132,0.221,99.83,4.0,,0.0,0.0,156.36
2025-08-15T02:49:02.663Z,13,GR86-024-41,6.1000000000000005,0.155,0.19,99.83,4.0,,0.0,0.0,
2025-08-15T02:49:02.707Z,13,GR86-024-41,6.0,0.165,0.187,99.82,4.0,,0.0,0.0,
2025-08-15T02:49:02.750Z,13,GR86-024-41,6.0,0.173,0.187,99.83,4.0,,0.0,0.0,
2025-08-15T02:49:02.793Z,13,GR86-024-41,5.9,0.159,0.189,99.82,4.0,6221.0,0.0,0.0,
2025-08-15T02:49:02.836Z,13,GR86-024-41,5.9,0.135,0.18,99.83,4.0,,0.0,0.0,157.97
2025-08-15T02:49:02.880Z,13,GR86-024-41,5.9,0.159,0.185,99.82,4.0,,0.0,0.0,
2025-08-15T02:49:02.924Z,13,GR86-024-41,5.9,0.161,0.175,99.82,4.0,,0.0,0.0,
2025-08-15T02:49:02.967Z,13,GR86-024-41,5.9,0.146,0.18,99.82,4.0,,0.0,0.0,
2025-08-15T02:49:03.010Z,13,GR86-024-41,5.9,0.127,0.201,99.82,4.0,6285.0,0.0,0.0,
2025-08-15T02:49:03.053Z,13,GR86-024-41,5.800000000000001,0.099,0.191,99.84,4.0,,0.0,0.0,159.42000000000002
2025-08-15T02:49:03.096Z,13,GR86-024-41,5.800000000000001,0.103,0.194,99.82,4.0,,0.0,0.0,
2025-08-15T02:49:03.139Z,13,GR86-024-41,5.800000000000001,0.151,0.162,99.81,4.0,,0.0,0.0,
2025-08-15T02:49:03.183Z,13,GR86-024-41,5.6000000000000005,0.113,0.199,99.82,4.0,,0.0,0.0,
2025-08-15T02:49:03.226Z,13,GR86-024-41,5.4,0.112,0.18,99.83,4.0,6334.0,0.0,0.0,
2025-08-15T02:49:03.269Z,13,GR86-024-41,5.2,0.103,0.147,99.83,4.0,,0.0,0.0,160.81
2025-08-15T02:49:03.312Z,13,GR86-024-41,5.2,0.102,0.147,99.83,4.0,,0.0,0.0,
2025-08-15T02:49:03.355Z,13,GR86-024-41,5.1000000000000005,0.118,0.129,99.84,4.0,,0.0,0.0,
2025-08-15T02:49:03.398Z,13,GR86-024-41,5.2,0.147,0.125,99.84,4.0,,0.0,0.0,
2025-08-15T02:49:03.441Z,13,GR86-024-41,5.2,0.101,0.133,99.83,4.0,6407.0,0.0,0.0,
2025-08-15T02:49:03.484Z,13,GR86-024-41,5.300000000000001,0.097,0.137,99.82,4.0,,0.0,0.0,162.25
2025-08-15T02:49:03.527Z,13,GR86-024-41,5.300000000000001,0.113,0.155,99.82,4.0,,0.0,0.0,
2025-08-15T02:49:03.570Z,13,GR86-024-41,5.4,0.133,0.157,99.83,4.0,,0.0,0.0,
2025-08-15T02:49:03.613Z,13,GR86-024-41,5.4,0.136,0.17,99.83,4.0,,0.0,0.0,
2025-08-15T02:49:03.656Z,13,GR86-024-41,5.2,0.151,0.17,99.82,4.0,6446.0,0.0,0.0,
2025-08-15T02:49:03.699Z,13,GR86-024-41,4.9,0.106,0.17,99.82,4.0,,0.0,0.0,163.82
2025-08-15T02:49:03.742Z,13,GR86-024-41,4.800000000000001,0.091,0.161,99.82,4.0,,0.0,0.0,
2025-08-15T02:49:03.785Z,13,GR86-024-41,4.7,0.122,0.142,99.83,4.0,,0.0,0.0,
2025-08-15T02:49:03.828Z,13,GR86-024-41,4.5,0.129,0.128,99.82,4.0,,0.0,0.0,
2025-08-15T02:49:03.871Z,13,GR86-024-41,3.4000000000000004,0.138,0.104,99.82,4.0,6502.0,0.0,0.0,
2025-08-15T02:49:03.914Z,13,GR86-024-41,1.5,0.148,0.073,99.83,4.0,,0.0,0.0,165.23
2025-08-15T02:49:03.957Z,13,GR86-024-41,0.0,0.137,0.035,99.83,4.0,,0.0,0.0,
2025-08-15T02:49:04.000Z,13,GR86-024-41,-1.4,0.112,0.008,99.83,4.0,,0.0,0.0,
2025-08-15T02:49:04.043Z,13,GR86-024-41,-1.6,0.123,-0.037,99.82,4.0,,0.0,0.0,
2025-08-15T02:49:04.086Z,13,GR86-024-41,-1.6,0.121,-0.072,99.82,4.0,6558.0,0.0,0.0,
2025-08-15T02:49:04.129Z,13,GR86-024-41,-1.7000000000000002,0.144,-0.1,99.83,4.0,,0.0,0.0,166.73
2025-08-15T02:49:04.172Z,13,GR86-024-41,-1.7000000000000002,0.135,-0.124,99.82,4.0,,0.0,0.0,
2025-08-15T02:49:04.215Z,13,GR86-024-41,-2.5,0.153,-0.159,99.82,4.0,,0.0,0.0,
2025-08-15T02:49:04.258Z,13,GR86-024-41,-3.8,0.146,-0.175,99.82,4.0,,0.0,0.0,
2025-08-15T02:49:04.301Z,13,GR86-024-41,-4.6000000000000005,0.103,-0.204,99.84,4.0,6604.0,0.0,0.0,
2025-08-15T02:49:04.344Z,13,GR86-024-41,-4.7,0.114,-0.204,99.83,4.0,,0.0,0.0,168.17000000000002
2025-08-15T02:49:04.387Z,13,GR86-024-41,-4.7,0.123,-0.227,99.83,4.0,,0.0,0.0,
2025-08-15T02:49:04.430Z,13,GR86-024-41,-5.0,0.128,-0.248,99.83,4.0,,0.0,0.0,
2025-08-15T02:49:04.474Z,13,GR86-024-41,-5.1000000000000005,0.141,-0.28,99.82,4.0,,0.0,0.0,
2025-08-15T02:49:04.517Z,13,GR86-024-41,-5.300000000000001,0.133,-0.306,99.81,4.0,6667.0,0.0,0.0,
2025-08-15T02:49:04.561Z,13,GR86-024-41,-5.7,0.098,-0.32,99.82,4.0,,0.0,0.0,169.44
2025-08-15T02:49:04.604Z,13,GR86-024-41,-5.800000000000001,0.108,-0.327,99.82,4.0,,0.0,0.0,
2025-08-15T02:49:04.647Z,13,GR86-024-41,-5.9,0.121,-0.323,99.82,4.0,,0.0,0.0,
2025-08-15T02:49:04.691Z,13,GR86-024-41,-5.9,0.115,-0.316,99.83,4.0,,0.0,0.0,
2025-08-15T02:49:04.734Z,13,GR86-024-41,-5.9,0.123,-0.315,99.82,4.0,6715.0,0.0,0.0,
2025-08-15T02:49:04.777Z,13,GR86-024-41,-5.9,0.129,-0.317,99.83,4.0,,0.0,0.0,170.70000000000002
2025-08-15T02:49:04.820Z,13,GR86-024-41,-5.9,0.099,-0.316,99.83,4.0,,0.0,0.0,
2025-08-15T02:49:04.865Z,13,GR86-024-41,-5.9,0.083,-0.299,99.81,4.0,,0.0,0.0,
2025-08-15T02:49:04.908Z,13,GR86-024-41,-5.9,0.096,-0.29,99.81,4.0,,0.0,0.0,
2025-08-15T02:49:04.951Z,13,GR86-024-41,-6.0,0.097,-0.27,99.82,4.0,6757.0,0.0,0.0,
2025-08-15T02:49:04.994Z,13,GR86-024-41,-6.1000000000000005,0.098,-0.264,99.82,4.0,,0.0,0.0,173.26
2025-08-15T02:49:05.037Z,13,GR86-024-41,-6.1000000000000005,0.09,-0.268,99.83,4.0,,0.0,0.0,
2025-08-15T02:49:05.081Z,13,GR86-024-41,-6.0,0.109,-0.305,99.83,4.0,,0.0,0.0,
2025-08-15T02:49:05.124Z,13,GR86-024-41,-6.0,0.116,-0.314,99.83,4.0,,0.0,0.0,
2025-08-15T02:49:05.167Z,13,GR86-024-41,-6.0,0.098,-0.286,99.83,4.0,6817.0,0.0,0.0,
2025-08-15T02:49:05.210Z,13,GR86-024-41,-5.9,0.1,-0.285,99.82,4.0,,0.0,0.0,174.57
2025-08-15T02:49:05.253Z,13,GR86-024-41,-5.9,0.094,-0.281,80.97,4.0,,0.0,0.0,
2025-08-15T02:49:05.296Z,13,GR86-024-41,-5.9,0.091,-0.293,57.95,4.0,,0.0,0.0,
2025-08-15T02:49:05.339Z,13,GR86-024-41,-5.9,0.122,-0.276,37.86,4.0,,3.875,4.0,
2025-08-15T02:49:05.382Z,13,GR86-024-41,-5.9,0.105,-0.267,32.96,4.0,6912.0,4.275,4.24,
2025-08-15T02:49:05.425Z,13,GR86-024-41,-5.9,0.052,-0.27,19.79,4.0,,5.05,5.16,175.82
2025-08-15T02:49:05.468Z,13,GR86-024-41,-5.800000000000001,-0.014,-0.256,6.22,4.0,,8.01,8.15,
2025-08-15T02:49:05.511Z,13,GR86-024-41,-5.800000000000001,-0.129,-0.258,6.03,4.0,,13.2,13.305,
2025-08-15T02:49:05.554Z,13,GR86-024-41,-5.800000000000001,-0.344,-0.232,4.69,4.0,,19.61,19.58,
2025-08-15T02:49:05.597Z,13,GR86-024-41,-5.6000000000000005,-0.463,-0.224,4.3,4.0,6936.0,25.575,25.545,
2025-08-15T02:49:05.640Z,13,GR86-024-41,-4.7,-0.798,-0.192,3.91,4.0,,30.705,30.61,176.92000000000002
2025-08-15T02:49:05.684Z,13,GR86-024-41,-4.4,-0.8230000000000001,-0.166,3.45,4.0,,32.685,32.625,
2025-08-15T02:49:05.727Z,13,GR86-024-41,-4.3,-0.801,-0.194,2.9,4.0,,36.305,36.18,
2025-08-15T02:49:05.770Z,13,GR86-024-41,-4.3,-0.901,-0.205,2.69,4.0,,42.18,41.995,
2025-08-15T02:49:05.813Z,13,GR86-024-41,-4.3,-1.006,-0.179,2.59,4.0,6724.0,50.785,50.345,
2025-08-15T02:49:05.856Z,13,GR86-024-41,-4.3,-1.115,-0.2,2.54,4.0,,59.805,59.33,177.39
2025-08-15T02:49:05.899Z,13,GR86-024-41,-4.3,-1.268,-0.189,49.95,4.0,,72.18,71.77,
2025-08-15T02:49:05.942Z,13,GR86-024-41,-4.3,-1.329,-0.172,56.02,3.0,,79.47500000000001,79.565,
2025-08-15T02:49:05.986Z,13,GR86-024-41,-3.6,-1.465,-0.181,4.04,3.0,,86.095,87.715,
2025-08-15T02:49:06.029Z,13,GR86-024-41,-2.9000000000000004,-1.5,-0.132,4.28,3.0,6542.0,91.345,93.5,
2025-08-15T02:49:06.072Z,13,GR86-024-41,-2.7,-1.645,-0.297,4.14,3.0,,92.69,93.36,173.94
2025-08-15T02:49:06.115Z,13,GR86-024-41,-1.8,-1.463,-0.153,3.94,3.0,,90.795,91.895,
2025-08-15T02:49:06.158Z,13,GR86-024-41,0.1,-1.307,-0.314,3.69,3.0,,87.03,88.645,
2025-08-15T02:49:06.201Z,13,GR86-024-41,3.6,-1.114,-0.265,2.96,3.0,,76.21000000000001,76.36,
2025-08-15T02:49:06.244Z,13,GR86-024-41,4.1000000000000005,-1.212,-0.248,2.71,3.0,6181.0,72.99,74.65,
2025-08-15T02:49:06.287Z,13,GR86-024-41,4.2,-1.065,-0.413,2.58,3.0,,66.55,67.875,166.43
2025-08-15T02:49:06.330Z,13,GR86-024-41,4.2,-1.065,-0.373,2.53,3.0,,58.52,59.455,
2025-08-15T02:49:06.373Z,13,GR86-024-41,4.0,-1.238,-0.264,2.52,3.0,,57.3,58.370000000000005,
2025-08-15T02:49:06.416Z,13,GR86-024-41,-2.1,-1.122,-0.239,2.48,3.0,,58.615,59.865,
2025-08-15T02:49:06.459Z,13,GR86-024-41,-11.8,-1.183,-0.317,2.49,3.0,6602.0,59.18,60.46,
2025-08-15T02:49:06.502Z,13,GR86-024-41,-13.5,-1.139,-0.33,2.48,3.0,,60.49,61.940000000000005,155.85
2025-08-15T02:49:06.545Z,13,GR86-024-41,-13.7,-1.154,-0.358,2.48,3.0,,62.125,63.465,
2025-08-15T02:49:06.588Z,13,GR86-024-41,-13.1,-1.097,-0.343,2.48,3.0,,61.3,61.515,
2025-08-15T02:49:06.631Z,13,GR86-024-41,-9.5,-1.263,-0.37,2.47,3.0,,61.145,61.36,
2025-08-15T02:49:06.674Z,13,GR86-024-41,-3.7,-1.027,-0.262,2.49,3.0,6507.0,53.545,54.89,
2025-08-15T02:49:06.717Z,13,GR86-024-41,1.8,-1.044,-0.311,2.47,3.0,,48.36,49.825,148.37
2025-08-15T02:49:06.760Z,13,GR86-024-41,3.1,-1.05,-0.207,2.48,3.0,,43.43,44.94,
2025-08-15T02:49:06.803Z,13,GR86-024-41,0.8,-1.012,-0.248,14.44,3.0,,39.4,41.05,
2025-08-15T02:49:06.846Z,13,GR86-024-41,-5.0,-0.946,-0.272,56.44,3.0,,36.96,38.41,
2025-08-15T02:49:06.889Z,13,GR86-024-41,-10.2,-0.916,-0.335,97.61,3.0,6104.0,35.375,36.64,
2025-08-15T02:49:06.932Z,13,GR86-024-41,-12.4,-0.869,-0.396,99.77,3.0,,33.495,34.9,140.63
2025-08-15T02:49:06.975Z,13,GR86-024-41,-12.5,-0.8210000000000001,-0.449,84.94,2.0,,30.275,31.74,
2025-08-15T02:49:07.018Z,13,GR86-024-41,-12.9,-0.898,-0.391,12.11,2.0,,27.68,28.935,
2025-08-15T02:49:07.061Z,13,GR86-024-41,-19.700000000000003,-0.898,-0.328,2.96,2.0,,28.215,29.39,
2025-08-15T02:49:07.104Z,13,GR86-024-41,-25.200000000000003,-0.718,-0.5720000000000001,2.85,2.0,5861.0,28.095,28.615,
2025-08-15T02:49:07.147Z,13,GR86-024-41,-30.6,-0.77,-0.526,2.77,2.0,,26.875,27.59,134.65
2025-08-15T02:49:07.190Z,13,GR86-024-41,-34.0,-0.707,-0.67,2.74,2.0,,26.505,27.345,
2025-08-15T02:49:07.233Z,13,GR86-024-41,-34.9,-0.7020000000000001,-0.767,2.68,2.0,,25.925,26.935,
2025-08-15T02:49:07.276Z,13,GR86-024-41,-36.7,-0.745,-0.755,2.65,2.0,,25.455,26.63,
2025-08-15T02:49:07.319Z,13,GR86-024-41,-42.7,-0.742,-0.868,2.59,2.0,6214.0,25.085,26.17,
2025-08-15T02:49:07.362Z,13,GR86-024-41,-44.6,-0.666,-0.918,2.58,2.0,,24.89,25.805,127.75
2025-08-15T02:49:07.405Z,13,GR86-024-41,-44.6,-0.674,-1.008,2.5500000000000003,2.0,,21.15,22.31,
2025-08-15T02:49:07.448Z,13,GR86-024-41,-44.1,-0.52,-1.06,2.5500000000000003,2.0,,10.805,11.78,
2025-08-15T02:49:07.491Z,13,GR86-024-41,-44.7,-0.385,-1.176,2.54,2.0,,2.67,3.25,
2025-08-15T02:49:07.534Z,13,GR86-024-41,-46.8,-0.322,-1.184,2.51,2.0,6783.0,0.0,0.0,
2025-08-15T02:49:07.577Z,13,GR86-024-41,-49.2,-0.228,-1.222,2.52,2.0,,0.0,0.0,122.39
2025-08-15T02:49:07.620Z,13,GR86-024-41,-52.2,-0.184,-1.248,2.51,2.0,,0.0,0.0,
2025-08-15T02:49:07.663Z,13,GR86-024-41,-53.8,-0.216,-1.331,2.49,2.0,,0.0,0.0,
2025-08-15T02:49:07.706Z,13,GR86-024-41,-54.900000000000006,-0.185,-1.268,2.49,2.0,,0.0,0.0,
2025-08-15T02:49:07.749Z,13,GR86-024-41,-55.0,-0.233,-1.353,2.5,2.0,6430.0,0.0,0.0,
2025-08-15T02:49:07.792Z,13,GR86-024-41,-54.900000000000006,-0.193,-1.311,2.5,2.0,,0.0,0.0,115.79
2025-08-15T02:49:07.836Z,13,GR86-024-41,-54.5,-0.204,-1.349,2.5,2.0,,0.0,0.0,
2025-08-15T02:49:07.880Z,13,GR86-024-41,-54.5,-0.231,-1.332,2.63,2.0,,0.0,0.0,
2025-08-15T02:49:07.924Z,13,GR86-024-41,-54.5,-0.214,-1.365,2.7,2.0,,0.0,0.0,
2025-08-15T02:49:07.967Z,13,GR86-024-41,-54.5,-0.188,-1.307,2.9,2.0,6343.0,0.0,0.0,
2025-08-15T02:49:08.011Z,13,GR86-024-41,-54.400000000000006,-0.229,-1.349,3.52,2.0,,0.0,0.0,113.67
2025-08-15T02:49:08.054Z,13,GR86-024-41,-54.3,-0.19,-1.354,4.58,2.0,,0.0,0.0,
2025-08-15T02:49:08.097Z,13,GR86-024-41,-54.3,-0.219,-1.408,4.74,2.0,,0.0,0.0,
2025-08-15T02:49:08.141Z,13,GR86-024-41,-54.1,-0.227,-1.417,6.53,2.0,,0.0,0.0,
2025-08-15T02:49:08.184Z,13,GR86-024-41,-54.1,-0.206,-1.377,7.86,2.0,6137.0,0.0,0.0,
2025-08-15T02:49:08.227Z,13,GR86-024-41,-54.1,-0.224,-1.434,17.73,2.0,,0.0,0.0,112.03
2025-08-15T02:49:08.270Z,13,GR86-024-41,-54.0,-0.195,-1.42,22.93,2.0,,0.0,0.0,
2025-08-15T02:49:08.313Z,13,GR86-024-41,-53.8,-0.157,-1.4,30.42,2.0,,0.0,0.0,
2025-08-15T02:49:08.356Z,13,GR86-024-41,-53.8,-0.164,-1.394,31.96,2.0,,0.0,0.0,
2025-08-15T02:49:08.443Z,13,GR86-024-41,-53.6,-0.11,-1.373,34.24,2.0,6005.0,0.0,0.0,110.25
2025-08-15T02:49:08.487Z,13,GR86-024-41,-52.0,0.145,-1.306,35.76,2.0,,0.0,0.0,
2025-08-15T02:49:08.530Z,13,GR86-024-41,-49.900000000000006,0.145,-1.261,37.57,2.0,,0.0,0.0,
2025-08-15T02:49:08.616Z,13,GR86-024-41,-46.0,0.148,-1.294,45.35,2.0,6040.0,0.0,0.0,
2025-08-15T02:49:08.659Z,13,GR86-024-41,-35.0,0.183,-1.228,57.83,2.0,,0.0,0.0,108.31
2025-08-15T02:49:08.702Z,13,GR86-024-41,-34.7,0.145,-1.248,63.54,2.0,,0.0,0.0,
2025-08-15T02:49:08.745Z,13,GR86-024-41,-35.9,0.223,-1.195,71.8,2.0,,0.0,0.0,
2025-08-15T02:49:08.788Z,13,GR86-024-41,-39.2,0.164,-1.238,82.32000000000001,2.0,,0.0,0.0,
2025-08-15T02:49:08.831Z,13,GR86-024-41,-42.400000000000006,0.21,-1.217,97.67,2.0,6321.0,0.0,0.0,
2025-08-15T02:49:08.874Z,13,GR86-024-41,-45.1,0.239,-1.189,99.8,2.0,,0.0,0.0,106.64
2025-08-15T02:49:08.917Z,13,GR86-024-41,-45.900000000000006,0.178,-1.198,99.77,2.0,,0.0,0.0,
2025-08-15T02:49:08.960Z,13,GR86-024-41,-45.5,0.193,-1.182,99.74,2.0,,0.0,0.0,
2025-08-15T02:49:09.003Z,13,GR86-024-41,-44.2,0.217,-1.144,99.78,2.0,,0.0,0.0,
2025-08-15T02:49:09.046Z,13,GR86-024-41,-40.7,0.187,-1.224,99.77,2.0,6386.0,0.0,0.0,
2025-08-15T02:49:09.089Z,13,GR86-024-41,-34.1,0.236,-1.163,99.77,2.0,,0.0,0.0,106.21
2025-08-15T02:49:09.132Z,13,GR86-024-41,-28.1,0.207,-1.201,99.77,2.0,,0.0,0.0,
2025-08-15T02:49:09.175Z,13,GR86-024-41,-23.200000000000003,0.238,-1.157,99.77,2.0,,0.0,0.0,
2025-08-15T02:49:09.218Z,13,GR86-024-41,-18.5,0.211,-1.215,99.76,2.0,,0.0,0.0,
2025-08-15T02:49:09.261Z,13,GR86-024-41,-11.5,0.191,-1.215,99.76,2.0,6456.0,0.0,0.0,
2025-08-15T02:49:09.304Z,13,GR86-024-41,-7.300000000000001,0.264,-1.28,99.79,2.0,,0.0,0.0,106.41
2025-08-15T02:49:09.347Z,13,GR86-024-41,-3.3000000000000003,0.239,-1.241,98.39,2.0,,0.0,0.0,
2025-08-15T02:49:09.390Z,13,GR86-024-41,1.4,0.256,-1.214,93.92,2.0,,0.0,0.0,
2025-08-15T02:49:09.433Z,13,GR86-024-41,6.1000000000000005,0.234,-1.165,85.27,2.0,,0.0,0.0,
2025-08-15T02:49:09.476Z,13,GR86-024-41,11.1,0.229,-1.14,68.53,2.0,6510.0,0.0,0.0,
2025-08-15T02:49:09.519Z,13,GR86-024-41,18.1,0.251,-1.081,55.68,2.0,,0.0,0.0,107.09
2025-08-15T02:49:09.562Z,13,GR86-024-41,19.3,0.278,-1.133,55.64,2.0,,0.0,0.0,
2025-08-15T02:49:09.605Z,13,GR86-024-41,14.8,0.206,-1.094,56.26,2.0,,0.0,0.0,
2025-08-15T02:49:09.648Z,13,GR86-024-41,-0.6000000000000001,0.242,-1.185,57.26,2.0,,0.0,0.0,
2025-08-15T02:49:09.691Z,13,GR86-024-41,-16.1,0.215,-1.238,59.82,2.0,6564.0,0.0,0.0,
2025-08-15T02:49:09.734Z,13,GR86-024-41,-22.5,0.219,-1.149,66.84,2.0,,0.0,0.0,108.41
2025-08-15T02:49:09.777Z,13,GR86-024-41,-19.8,0.189,-1.189,63.82,2.0,,0.0,0.0,
2025-08-15T02:49:09.820Z,13,GR86-024-41,-1.8,0.169,-1.205,58.65,2.0,,0.0,0.0,
2025-08-15T02:49:09.863Z,13,GR86-024-41,6.6000000000000005,0.248,-1.24,57.22,2.0,,0.0,0.0,
2025-08-15T02:49:09.907Z,13,GR86-024-41,15.2,0.286,-1.237,53.19,2.0,6633.0,0.0,0.0,
2025-08-15T02:49:09.950Z,13,GR86-024-41,22.700000000000003,0.242,-1.271,50.5,2.0,,0.0,0.0,109.36
2025-08-15T02:49:09.994Z,13,GR86-024-41,28.5,0.272,-1.183,50.23,2.0,,0.0,0.0,
2025-08-15T02:49:10.037Z,13,GR86-024-41,32.5,0.242,-1.219,51.91,2.0,,0.0,0.0,
2025-08-15T02:49:10.080Z,13,GR86-024-41,33.0,0.25,-1.114,58.43,2.0,,0.0,0.0,
2025-08-15T02:49:10.124Z,13,GR86-024-41,33.0,0.283,-1.066,67.69,2.0,6688.0,0.0,0.0,
2025-08-15T02:49:10.167Z,13,GR86-024-41,35.800000000000004,0.231,-1.065,73.81,2.0,,0.0,0.0,110.09
2025-08-15T02:49:10.210Z,13,GR86-024-41,42.0,0.228,-1.002,76.67,2.0,,0.0,0.0,
2025-08-15T02:49:10.253Z,13,GR86-024-41,45.3,0.278,-0.995,83.55,2.0,,0.0,0.0,
2025-08-15T02:49:10.296Z,13,GR86-024-41,43.0,0.262,-0.943,97.1,2.0,,0.0,0.0,
2025-08-15T02:49:10.339Z,13,GR86-024-41,6.9,0.274,-1.013,99.83,2.0,6705.0,0.0,0.0,
2025-08-15T02:49:10.383Z,13,GR86-024-41,-21.9,0.292,-1.122,99.8,2.0,,0.0,0.0,112.04
2025-08-15T02:49:10.426Z,13,GR86-024-41,-45.5,0.199,-1.18,99.79,2.0,,0.0,0.0,
2025-08-15T02:49:10.469Z,13,GR86-024-41,-58.400000000000006,0.133,-1.186,99.76,2.0,,0.0,0.0,
2025-08-15T02:49:10.512Z,13,GR86-024-41,-60.400000000000006,0.13,-1.163,99.77,2.0,,0.0,0.0,
2025-08-15T02:49:10.555Z,13,GR86-024-41,-58.1,0.204,-1.149,99.8,2.0,6709.0,0.0,0.0,
2025-08-15T02:49:10.599Z,13,GR86-024-41,-49.3,0.326,-1.15,99.76,2.0,,0.0,0.0,112.01
2025-08-15T02:49:10.642Z,13,GR86-024-41,-44.8,0.338,-1.054,99.78,2.0,,0.0,0.0,
2025-08-15T02:49:10.685Z,13,GR86-024-41,-42.2,0.25,-1.147,99.79,2.0,,0.0,0.0,
2025-08-15T02:49:10.728Z,13,GR86-024-41,-41.6,0.213,-1.098,99.78,2.0,,0.0,0.0,
2025-08-15T02:49:10.771Z,13,GR86-024-41,-43.2,0.186,-1.1,99.8,2.0,6749.0,0.0,0.0,
2025-08-15T02:49:10.814Z,13,GR86-024-41,-44.3,0.164,-1.195,99.78,2.0,,0.0,0.0,112.53
2025-08-15T02:49:10.857Z,13,GR86-024-41,-43.6,0.237,-1.077,99.78,2.0,,0.0,0.0,
2025-08-15T02:49:10.900Z,13,GR86-024-41,-35.0,0.258,-1.006,99.8,2.0,,0.0,0.0,
2025-08-15T02:49:10.943Z,13,GR86-024-41,-30.3,0.199,-1.055,99.79,2.0,,0.0,0.0,
2025-08-15T02:49:10.986Z,13,GR86-024-41,-29.1,0.196,-1.005,99.81,2.0,6723.0,0.0,0.0,
2025-08-15T02:49:11.029Z,13,GR86-024-41,-29.0,0.26,-0.986,99.78,2.0,,0.0,0.0,114.62
2025-08-15T02:49:11.072Z,13,GR86-024-41,-29.0,0.263,-0.968,99.78,2.0,,0.0,0.0,
2025-08-15T02:49:11.115Z,13,GR86-024-41,-29.1,0.299,-0.806,99.78,2.0,,0.0,0.0,
2025-08-15T02:49:11.158Z,13,GR86-024-41,-30.8,0.249,-0.629,99.8,2.0,,0.0,0.0,
2025-08-15T02:49:11.201Z,13,GR86-024-41,-34.7,0.205,-0.713,99.8,2.0,6835.0,0.0,0.0,
2025-08-15T02:49:11.244Z,13,GR86-024-41,-36.3,0.182,-0.879,99.81,2.0,,0.0,0.0,116.61
2025-08-15T02:49:11.287Z,13,GR86-024-41,-35.9,0.177,-0.921,99.78,2.0,,0.0,0.0,
2025-08-15T02:49:11.330Z,13,GR86-024-41,-34.800000000000004,0.27,-0.939,99.79,2.0,,0.0,0.0,
2025-08-15T02:49:11.374Z,13,GR86-024-41,-32.2,0.228,-0.913,99.79,2.0,,0.0,0.0,
2025-08-15T02:49:11.417Z,13,GR86-024-41,-27.3,0.212,-0.95,99.78,2.0,6896.0,0.0,0.0,
2025-08-15T02:49:11.461Z,13,GR86-024-41,-18.7,0.187,-0.904,99.78,2.0,,0.0,0.0,117.4
2025-08-15T02:49:11.504Z,13,GR86-024-41,-15.3,0.28,-0.924,99.81,2.0,,0.0,0.0,
2025-08-15T02:49:11.547Z,13,GR86-024-41,-14.4,0.353,-0.794,99.81,2.0,,0.0,0.0,
2025-08-15T02:49:11.591Z,13,GR86-024-41,-14.5,0.323,-0.715,99.79,2.0,,0.0,0.0,
2025-08-15T02:49:11.634Z,13,GR86-024-41,-14.6,0.375,-0.735,99.81,2.0,6982.0,0.0,0.0,
2025-08-15T02:49:11.677Z,13,GR86-024-41,-14.9,0.38,-0.582,99.8,2.0,,0.0,0.0,118.61
2025-08-15T02:49:11.720Z,13,GR86-024-41,-12.6,0.21,-0.77,99.83,2.0,,0.0,0.0,
2025-08-15T02:49:11.765Z,13,GR86-024-41,-9.7,0.261,-0.61,99.79,2.0,,0.0,0.0,
2025-08-15T02:49:11.808Z,13,GR86-024-41,-8.6,0.3,-0.649,99.8,2.0,,0.0,0.0,
2025-08-15T02:49:11.851Z,13,GR86-024-41,-7.7,0.289,-0.5700000000000001,99.79,2.0,7069.0,0.0,0.0,
2025-08-15T02:49:11.894Z,13,GR86-024-41,-7.4,0.281,-0.428,99.79,2.0,,0.0,0.0,120.4
2025-08-15T02:49:11.937Z,13,GR86-024-41,-7.5,0.213,-0.49,99.83,2.0,,0.0,0.0,
2025-08-15T02:49:11.981Z,13,GR86-024-41,-7.800000000000001,0.118,-0.44,99.81,2.0,,0.0,0.0,
2025-08-15T02:49:12.024Z,13,GR86-024-41,-7.7,0.175,-0.42,99.79,2.0,,0.0,0.0,
2025-08-15T02:49:12.067Z,13,GR86-024-41,-4.5,-0.092,-0.445,99.79,3.0,7135.0,0.0,0.0,
2025-08-15T02:49:12.110Z,13,GR86-024-41,-3.6,0.018,-0.351,99.79,3.0,,0.0,0.0,121.87
2025-08-15T02:49:12.153Z,13,GR86-024-41,-2.7,0.498,-0.346,99.8,3.0,,0.0,0.0,
2025-08-15T02:49:12.196Z,13,GR86-024-41,-2.0,0.418,-0.074,99.81,3.0,,0.0,0.0,
2025-08-15T02:49:12.239Z,13,GR86-024-41,-0.5,0.299,0.007,99.8,3.0,,0.0,0.0,
2025-08-15T02:49:12.325Z,13,GR86-024-41,-1.2000000000000002,0.148,0.023,99.8,3.0,7236.0,0.0,0.0,123.36
2025-08-15T02:49:12.368Z,13,GR86-024-41,-1.8,0.147,0.116,99.79,3.0,,0.0,0.0,
2025-08-15T02:49:12.411Z,13,GR86-024-41,-1.9,0.227,0.1,99.79,3.0,,0.0,0.0,
2025-08-15T02:49:12.454Z,13,GR86-024-41,-0.9,0.345,0.091,99.78,3.0,,0.0,0.0,
2025-08-15T02:49:12.497Z,13,GR86-024-41,0.3,0.207,0.145,99.79,3.0,6155.0,0.0,0.0,
2025-08-15T02:49:12.540Z,13,GR86-024-41,0.1,0.015,0.052,99.79,3.0,,0.0,0.0,125.12
2025-08-15T02:49:12.584Z,13,GR86-024-41,0.2,-0.044,0.289,99.81,3.0,,0.0,0.0,
2025-08-15T02:49:12.627Z,13,GR86-024-41,2.5,0.308,-0.109,99.81,3.0,,0.0,0.0,
2025-08-15T02:49:12.670Z,13,GR86-024-41,4.2,0.453,-0.147,99.79,3.0,,0.0,0.0,
2025-08-15T02:49:12.713Z,13,GR86-024-41,3.7,0.223,0.085,99.8,3.0,6008.0,0.0,0.0,
2025-08-15T02:49:12.756Z,13,GR86-024-41,2.7,0.125,0.026,99.8,3.0,,0.0,0.0,126.43
2025-08-15T02:49:12.799Z,13,GR86-024-41,1.6,0.149,0.16,99.8,3.0,,0.0,0.0,
2025-08-15T02:49:12.842Z,13,GR86-024-41,1.4,0.289,0.142,99.82,3.0,,0.0,0.0,
2025-08-15T02:49:12.886Z,13,GR86-024-41,1.4,0.268,0.114,99.81,3.0,,0.0,0.0,
2025-08-15T02:49:12.930Z,13,GR86-024-41,1.2000000000000002,0.183,0.151,99.82,3.0,6087.0,0.0,0.0,
2025-08-15T02:49:12.974Z,13,GR86-024-41,1.0,0.192,0.156,99.81,3.0,,0.0,0.0,128.14
2025-08-15T02:49:13.017Z,13,GR86-024-41,0.7000000000000001,0.181,0.049,99.8,3.0,,0.0,0.0,
2025-08-15T02:49:13.060Z,13,GR86-024-41,0.4,0.242,0.016,99.82,3.0,,0.0,0.0,
2025-08-15T02:49:13.103Z,13,GR86-024-41,0.2,0.164,0.006,99.8,3.0,,0.0,0.0,
2025-08-15T02:49:13.189Z,13,GR86-024-41,-0.3,0.214,0.052,99.79,3.0,6063.0,0.0,0.0,130.79
2025-08-15T02:49:13.232Z,13,GR86-024-41,-0.6000000000000001,0.224,-0.055,99.82,3.0,,0.0,0.0,
2025-08-15T02:49:13.275Z,13,GR86-024-41,-0.6000000000000001,0.133,0.002,99.8,3.0,,0.0,0.0,
2025-08-15T02:49:13.318Z,13,GR86-024-41,-0.6000000000000001,0.201,0.003,99.8,3.0,,0.0,0.0,
2025-08-15T02:49:13.361Z,13,GR86-024-41,-0.6000000000000001,0.202,-0.007,99.81,3.0,6115.0,0.0,0.0,
2025-08-15T02:49:13.404Z,13,GR86-024-41,-0.6000000000000001,0.205,0.007,99.79,3.0,,0.0,0.0,132.21
2025-08-15T02:49:13.447Z,13,GR86-024-41,-0.7000000000000001,0.237,-0.057,99.81,3.0,,0.0,0.0,
2025-08-15T02:49:13.490Z,13,GR86-024-41,-0.8,0.158,-0.064,99.79,3.0,,0.0,0.0,
2025-08-15T02:49:13.533Z,13,GR86-024-41,-0.8,0.18,-0.027,99.8,3.0,,0.0,0.0,
2025-08-15T02:49:13.576Z,13,GR86-024-41,-0.8,0.208,-0.018,99.79,3.0,6209.0,0.0,0.0,
2025-08-15T02:49:13.619Z,13,GR86-024-41,-0.6000000000000001,0.198,0.004,99.8,3.0,,0.0,0.0,133.76
2025-08-15T02:49:13.662Z,13,GR86-024-41,-0.3,0.217,-0.016,99.8,3.0,,0.0,0.0,
2025-08-15T02:49:13.705Z,13,GR86-024-41,0.3,0.189,-0.064,99.81,3.0,,0.0,0.0,
2025-08-15T02:49:13.748Z,13,GR86-024-41,0.7000000000000001,0.174,-0.049,99.78,3.0,,0.0,0.0,
2025-08-15T02:49:13.791Z,13,GR86-024-41,0.7000000000000001,0.198,-0.009,99.83,3.0,6340.0,0.0,0.0,
2025-08-15T02:49:13.834Z,13,GR86-024-41,0.7000000000000001,0.211,-0.032,99.81,3.0,,0.0,0.0,135.04
2025-08-15T02:49:13.877Z,13,GR86-024-41,0.6000000000000001,0.165,-0.047,99.81,3.0,,0.0,0.0,
2025-08-15T02:49:13.920Z,13,GR86-024-41,0.6000000000000001,0.213,-0.023,99.82,3.0,,0.0,0.0,
2025-08-15T02:49:13.963Z,13,GR86-024-41,0.6000000000000001,0.191,-0.024,99.8,3.0,,0.0,0.0,
2025-08-15T02:49:14.006Z,13,GR86-024-41,0.6000000000000001,0.17,0.014,99.81,3.0,6386.0,0.0,0.0,
2025-08-15T02:49:14.050Z,13,GR86-024-41,0.6000000000000001,0.2,0.001,99.8,3.0,,0.0,0.0,136.46
2025-08-15T02:49:14.093Z,13,GR86-024-41,0.5,0.205,-0.021,99.8,3.0,,0.0,0.0,
2025-08-15T02:49:14.136Z,13,GR86-024-41,0.5,0.179,-0.037,99.78,3.0,,0.0,0.0,
2025-08-15T02:49:14.181Z,13,GR86-024-41,0.5,0.209,-0.04,99.79,3.0,,0.0,0.0,
2025-08-15T02:49:14.224Z,13,GR86-024-41,0.5,0.198,-0.057,99.8,3.0,6455.0,0.0,0.0,
2025-08-15T02:49:14.267Z,13,GR86-024-41,0.4,0.135,-0.018,99.81,3.0,,0.0,0.0,137.71
2025-08-15T02:49:14.311Z,13,GR86-024-41,0.4,0.204,-0.022,99.79,3.0,,0.0,0.0,
2025-08-15T02:49:14.354Z,13,GR86-024-41,0.4,0.218,-0.072,99.8,3.0,,0.0,0.0,
2025-08-15T02:49:14.397Z,13,GR86-024-41,0.3,0.19,-0.08,99.82,3.0,,0.0,0.0,
2025-08-15T02:49:14.441Z,13,GR86-024-41,0.3,0.199,-0.072,99.81,3.0,6520.0,0.0,0.0,
2025-08-15T02:49:14.484Z,13,GR86-024-41,0.3,0.153,-0.044,99.81,3.0,,0.0,0.0,139.05
2025-08-15T02:49:14.527Z,13,GR86-024-41,0.3,0.178,-0.045,99.81,3.0,,0.0,0.0,
2025-08-15T02:49:14.570Z,13,GR86-024-41,0.3,0.187,-0.013,99.8,3.0,,0.0,0.0,
2025-08-15T02:49:14.613Z,13,GR86-024-41,0.3,0.222,-0.058,99.8,3.0,,0.0,0.0,
2025-08-15T02:49:14.656Z,13,GR86-024-41,0.3,0.19,-0.062,99.81,3.0,6576.0,0.0,0.0,
2025-08-15T02:49:14.699Z,13,GR86-024-41,0.4,0.207,-0.031,99.82,3.0,,0.0,0.0,140.42000000000002
2025-08-15T02:49:14.744Z,13,GR86-024-41,0.3,0.173,-0.039,99.79,3.0,,0.0,0.0,
2025-08-15T02:49:14.787Z,13,GR86-024-41,0.3,0.156,-0.01,99.8,3.0,,0.0,0.0,
2025-08-15T02:49:14.830Z,13,GR86-024-41,0.4,0.177,0.008,99.81,3.0,,0.0,0.0,
2025-08-15T02:49:14.873Z,13,GR86-024-41,0.4,0.198,-0.007,99.79,3.0,6642.0,0.0,0.0,
2025-08-15T02:49:14.916Z,13,GR86-024-41,0.4,0.183,-0.014,99.79,3.0,,0.0,0.0,141.75
2025-08-15T02:49:14.959Z,13,GR86-024-41,0.3,0.202,0.011,99.82,3.0,,0.0,0.0,
2025-08-15T02:49:15.002Z,13,GR86-024-41,0.3,0.204,-0.003,99.8,3.0,,0.0,0.0,
2025-08-15T02:49:15.045Z,13,GR86-024-41,0.3,0.161,-0.019,99.79,3.0,,0.0,0.0,
2025-08-15T02:49:15.088Z,13,GR86-024-41,0.2,0.156,-0.001,99.8,3.0,6699.0,0.0,0.0,
2025-08-15T02:49:15.131Z,13,GR86-024-41,0.2,0.172,0.008,99.79,3.0,,0.0,0.0,143.01
2025-08-15T02:49:15.174Z,13,GR86-024-41,0.2,0.195,-0.023,99.81,3.0,,0.0,0.0,
2025-08-15T02:49:15.217Z,13,GR86-024-41,0.2,0.195,-0.042,99.79,3.0,,0.0,0.0,
2025-08-15T02:49:15.260Z,13,GR86-024-41,0.2,0.191,-0.05,99.8,3.0,,0.0,0.0,
2025-08-15T02:49:15.304Z,13,GR86-024-41,0.1,0.182,-0.06,99.82,3.0,6755.0,0.0,0.0,
2025-08-15T02:49:15.347Z,13,GR86-024-41,0.1,0.168,-0.069,99.78,3.0,,0.0,0.0,144.27
2025-08-15T02:49:15.390Z,13,GR86-024-41,0.1,0.156,-0.048,99.79,3.0,,0.0,0.0,
2025-08-15T02:49:15.433Z,13,GR86-024-41,0.1,0.175,-0.037,99.8,3.0,,0.0,0.0,
2025-08-15T02:49:15.476Z,13,GR86-024-41,0.0,0.187,-0.051,99.82,3.0,,0.0,0.0,
2025-08-15T02:49:15.519Z,13,GR86-024-41,0.0,0.169,-0.042,99.81,3.0,6812.0,0.0,0.0,
2025-08-15T02:49:15.562Z,13,GR86-024-41,-0.1,0.163,-0.053,99.81,3.0,,0.0,0.0,145.48
2025-08-15T02:49:15.605Z,13,GR86-024-41,-0.2,0.185,-0.085,99.79,3.0,,0.0,0.0,
2025-08-15T02:49:15.648Z,13,GR86-024-41,-0.2,0.166,-0.082,99.78,3.0,,0.0,0.0,
2025-08-15T02:49:15.691Z,13,GR86-024-41,-0.3,0.17,-0.079,99.81,3.0,,0.0,0.0,
2025-08-15T02:49:15.734Z,13,GR86-024-41,-0.3,0.156,-0.077,99.82,3.0,6873.0,0.0,0.0,
2025-08-15T02:49:15.777Z,13,GR86-024-41,-0.3,0.177,-0.08,99.81,3.0,,0.0,0.0,146.73
2025-08-15T02:49:15.820Z,13,GR86-024-41,-0.3,0.159,-0.07,99.81,3.0,,0.0,0.0,
2025-08-15T02:49:15.863Z,13,GR86-024-41,-0.3,0.167,-0.08,99.8,3.0,,0.0,0.0,
2025-08-15T02:49:15.907Z,13,GR86-024-41,-0.3,0.181,-0.092,99.81,3.0,,0.0,0.0,
2025-08-15T02:49:15.951Z,13,GR86-024-41,-0.3,0.177,-0.112,99.8,3.0,6921.0,0.0,0.0,
2025-08-15T02:49:15.994Z,13,GR86-024-41,-0.2,0.168,-0.1,99.79,3.0,,0.0,0.0,148.99
2025-08-15T02:49:16.037Z,13,GR86-024-41,-0.2,0.155,-0.077,99.8,3.0,,0.0,0.0,
2025-08-15T02:49:16.081Z,13,GR86-024-41,-0.3,0.164,-0.092,99.79,3.0,,0.0,0.0,
2025-08-15T02:49:16.167Z,13,GR86-024-41,-0.3,0.168,-0.061,99.8,3.0,6982.0,0.0,0.0,
2025-08-15T02:49:16.210Z,13,GR86-024-41,-0.3,0.17,-0.027,99.79,3.0,,0.0,0.0,150.13
2025-08-15T02:49:16.253Z,13,GR86-024-41,-0.3,0.173,-0.045,99.8,3.0,,0.0,0.0,
2025-08-15T02:49:16.296Z,13,GR86-024-41,-0.3,0.174,-0.066,99.81,3.0,,0.0,0.0,
2025-08-15T02:49:16.339Z,13,GR86-024-41,-0.3,0.171,-0.033,99.79,3.0,,0.0,0.0,
2025-08-15T02:49:16.383Z,13,GR86-024-41,-0.3,0.175,-0.058,99.79,3.0,7077.0,0.0,0.0,
2025-08-15T02:49:16.426Z,13,GR86-024-41,-0.3,0.171,-0.076,99.82,3.0,,0.0,0.0,151.27
2025-08-15T02:49:16.469Z,13,GR86-024-41,-0.3,0.157,-0.074,99.79,3.0,,0.0,0.0,
2025-08-15T02:49:16.512Z,13,GR86-024-41,-0.3,0.152,-0.045,99.83,3.0,,0.0,0.0,
2025-08-15T02:49:16.555Z,13,GR86-024-41,-0.3,0.153,-0.021,99.79,3.0,,0.0,0.0,
2025-08-15T02:49:16.598Z,13,GR86-024-41,-0.3,0.16,-0.029,99.8,3.0,7127.0,0.0,0.0,
2025-08-15T02:49:16.641Z,13,GR86-024-41,-0.3,0.139,-0.021,99.8,3.0,,0.0,0.0,152.43
2025-08-15T02:49:16.684Z,13,GR86-024-41,-0.2,0.153,-0.015,99.8,3.0,,0.0,0.0,
2025-08-15T02:49:16.727Z,13,GR86-024-41,-0.2,0.163,-0.022,99.79,3.0,,0.0,0.0,
2025-08-15T02:49:16.770Z,13,GR86-024-41,-0.2,0.159,-0.036,99.79,3.0,,0.0,0.0,
2025-08-15T02:49:16.813Z,13,GR86-024-41,-0.2,0.154,-0.043,99.83,3.0,7181.0,0.0,0.0,
2025-08-15T02:49:16.856Z,13,GR86-024-41,-0.2,0.139,-0.041,99.8,3.0,,0.0,0.0,153.51
2025-08-15T02:49:16.899Z,13,GR86-024-41,-0.3,0.155,-0.027,99.81,3.0,,0.0,0.0,
2025-08-15T02:49:16.942Z,13,GR86-024-41,-0.3,0.155,-0.06,99.77,3.0,,0.0,0.0,
2025-08-15T02:49:16.985Z,13,GR86-024-41,-0.3,-0.082,-0.052,99.79,4.0,,0.0,0.0,
2025-08-15T02:49:17.028Z,13,GR86-024-41,-0.4,-0.07,-0.004,99.8,4.0,7211.0,0.0,0.0,
2025-08-15T02:49:17.071Z,13,GR86-024-41,-0.4,0.496,-0.053,99.8,4.0,,0.0,0.0,154.66
2025-08-15T02:49:17.114Z,13,GR86-024-41,-0.3,0.244,-0.07,99.81,4.0,,0.0,0.0,
2025-08-15T02:49:17.157Z,13,GR86-024-41,-0.3,0.148,-0.012,99.79,4.0,,0.0,0.0,
2025-08-15T02:49:17.200Z,13,GR86-024-41,-0.6000000000000001,0.012,-0.097,99.79,4.0,,0.0,0.0,
2025-08-15T02:49:17.244Z,13,GR86-024-41,-0.6000000000000001,0.186,-0.04,99.8,4.0,7039.0,0.0,0.0,
2025-08-15T02:49:17.287Z,13,GR86-024-41,-0.6000000000000001,0.2,-0.072,99.8,4.0,,0.0,0.0,155.66
2025-08-15T02:49:17.330Z,13,GR86-024-41,-0.7000000000000001,0.122,-0.108,99.78,4.0,,0.0,0.0,
2025-08-15T02:49:17.375Z,13,GR86-024-41,-0.8,0.105,-0.082,99.8,4.0,,0.0,0.0,
2025-08-15T02:49:17.418Z,13,GR86-024-41,-0.8,0.129,-0.126,99.8,4.0,,0.0,0.0,
2025-08-15T02:49:17.461Z,13,GR86-024-41,-1.2000000000000002,0.158,-0.098,99.79,4.0,6050.0,0.0,0.0,
2025-08-15T02:49:17.504Z,13,GR86-024-41,-1.3,0.138,-0.129,99.8,4.0,,0.0,0.0,156.57
2025-08-15T02:49:17.547Z,13,GR86-024-41,-1.3,0.125,-0.149,99.78,4.0,,0.0,0.0,
2025-08-15T02:49:17.591Z,13,GR86-024-41,-1.4,0.124,-0.15,99.81,4.0,,0.0,0.0,
2025-08-15T02:49:17.635Z,13,GR86-024-41,-1.4,0.116,-0.128,99.79,4.0,,0.0,0.0,
2025-08-15T02:49:17.678Z,13,GR86-024-41,-1.3,0.104,-0.119,99.79,4.0,6187.0,0.0,0.0,
2025-08-15T02:49:17.721Z,13,GR86-024-41,-1.3,0.119,-0.151,99.78,4.0,,0.0,0.0,157.57
2025-08-15T02:49:17.765Z,13,GR86-024-41,-1.4,0.109,-0.129,99.79,4.0,,0.0,0.0,
2025-08-15T02:49:17.808Z,13,GR86-024-41,-1.4,0.096,-0.113,99.79,4.0,,0.0,0.0,
2025-08-15T02:49:17.851Z,13,GR86-024-41,-1.4,0.116,-0.091,99.78,4.0,,0.0,0.0,
2025-08-15T02:49:17.894Z,13,GR86-024-41,-1.4,0.141,-0.083,99.79,4.0,6231.0,0.0,0.0,
2025-08-15T02:49:17.937Z,13,GR86-024-41,-1.4,0.15,-0.101,99.8,4.0,,0.0,0.0,158.39
2025-08-15T02:49:17.981Z,13,GR86-024-41,-1.5,0.109,-0.108,99.79,4.0,,0.0,0.0,
2025-08-15T02:49:18.024Z,13,GR86-024-41,-1.5,0.114,-0.099,99.8,4.0,,0.0,0.0,
2025-08-15T02:49:18.067Z,13,GR86-024-41,-1.6,0.141,-0.105,99.8,4.0,,0.0,0.0,
2025-08-15T02:49:18.110Z,13,GR86-024-41,-1.6,0.149,-0.129,99.8,4.0,6266.0,0.0,0.0,
2025-08-15T02:49:18.153Z,13,GR86-024-41,-1.6,0.143,-0.173,99.78,4.0,,0.0,0.0,159.27
2025-08-15T02:49:18.196Z,13,GR86-024-41,-1.6,0.149,-0.186,99.79,4.0,,0.0,0.0,
2025-08-15T02:49:18.239Z,13,GR86-024-41,-1.7000000000000002,0.13,-0.129,99.79,4.0,,0.0,0.0,
2025-08-15T02:49:18.282Z,13,GR86-024-41,-1.7000000000000002,0.134,-0.152,99.8,4.0,,0.0,0.0,
2025-08-15T02:49:18.325Z,13,GR86-024-41,-1.6,0.138,-0.168,99.8,4.0,6290.0,0.0,0.0,
2025-08-15T02:49:18.368Z,13,GR86-024-41,-1.6,0.136,-0.186,99.8,4.0,,0.0,0.0,160.14
2025-08-15T02:49:18.411Z,13,GR86-024-41,-1.7000000000000002,0.107,-0.178,99.79,4.0,,0.0,0.0,
2025-08-15T02:49:18.454Z,13,GR86-024-41,-1.7000000000000002,0.099,-0.165,99.8,4.0,,0.0,0.0,
2025-08-15T02:49:18.497Z,13,GR86-024-41,-1.8,0.088,-0.145,99.79,4.0,,0.0,0.0,
2025-08-15T02:49:18.540Z,13,GR86-024-41,-1.8,0.138,-0.174,99.79,4.0,6340.0,0.0,0.0,
2025-08-15T02:49:18.627Z,13,GR86-024-41,-2.0,0.113,-0.163,99.8,4.0,,0.0,0.0,161.97
2025-08-15T02:49:18.670Z,13,GR86-024-41,-2.0,0.107,-0.123,99.8,4.0,,0.0,0.0,
2025-08-15T02:49:18.713Z,13,GR86-024-41,-2.0,0.089,-0.12,99.8,4.0,,0.0,0.0,
2025-08-15T02:49:18.756Z,13,GR86-024-41,-2.0,0.099,-0.122,99.8,4.0,6363.0,0.0,0.0,
2025-08-15T02:49:18.799Z,13,GR86-024-41,-2.1,0.108,-0.174,99.79,4.0,,0.0,0.0,162.86
2025-08-15T02:49:18.842Z,13,GR86-024-41,-2.1,0.107,-0.159,99.8,4.0,,0.0,0.0,
2025-08-15T02:49:18.885Z,13,GR86-024-41,-2.2,0.096,-0.15,99.8,4.0,,0.0,0.0,
2025-08-15T02:49:18.928Z,13,GR86-024-41,-2.4000000000000004,0.091,-0.141,99.8,4.0,,0.0,0.0,
2025-08-15T02:49:18.971Z,13,GR86-024-41,-2.6,0.104,-0.144,99.79,4.0,6395.0,0.0,0.0,
2025-08-15T02:49:19.014Z,13,GR86-024-41,-2.7,0.105,-0.152,99.79,4.0,,0.0,0.0,163.73
2025-08-15T02:49:19.057Z,13,GR86-024-41,-2.7,0.139,-0.175,99.79,4.0,,0.0,0.0,
2025-08-15T02:49:19.100Z,13,GR86-024-41,-2.8000000000000003,0.1,-0.189,99.79,4.0,,0.0,0.0,
2025-08-15T02:49:19.143Z,13,GR86-024-41,-2.8000000000000003,0.096,-0.202,99.78,4.0,,0.0,0.0,
2025-08-15T02:49:19.186Z,13,GR86-024-41,-2.8000000000000003,0.101,-0.195,99.81,4.0,6469.0,0.0,0.0,
2025-08-15T02:49:19.229Z,13,GR86-024-41,-2.9000000000000004,0.112,-0.202,99.81,4.0,,0.0,0.0,164.66
2025-08-15T02:49:19.272Z,13,GR86-024-41,-2.9000000000000004,0.137,-0.214,99.79,4.0,,0.0,0.0,
2025-08-15T02:49:19.315Z,13,GR86-024-41,-2.9000000000000004,0.16,-0.21,99.8,4.0,,0.0,0.0,
2025-08-15T02:49:19.358Z,13,GR86-024-41,-2.9000000000000004,0.146,-0.219,99.8,4.0,,0.0,0.0,
2025-08-15T02:49:19.401Z,13,GR86-024-41,-2.9000000000000004,0.109,-0.179,99.81,4.0,6500.0,0.0,0.0,
2025-08-15T02:49:19.444Z,13,GR86-024-41,-2.9000000000000004,0.103,-0.171,99.81,4.0,,0.0,0.0,165.67000000000002
2025-08-15T02:49:19.487Z,13,GR86-024-41,-2.7,0.14,-0.161,99.78,4.0,,0.0,0.0,
2025-08-15T02:49:19.530Z,13,GR86-024-41,-2.6,0.131,-0.151,99.79,4.0,,0.0,0.0,
2025-08-15T02:49:19.573Z,13,GR86-024-41,-2.5,0.144,-0.143,99.79,4.0,,0.0,0.0,
2025-08-15T02:49:19.616Z,13,GR86-024-41,-2.5,0.134,-0.157,99.79,4.0,6544.0,0.0,0.0,
2025-08-15T02:49:19.659Z,13,GR86-024-41,-2.4000000000000004,0.108,-0.134,99.79,4.0,,0.0,0.0,166.65
2025-08-15T02:49:19.702Z,13,GR86-024-41,-2.5,0.117,-0.128,99.79,4.0,,0.0,0.0,
2025-08-15T02:49:19.745Z,13,GR86-024-41,-2.5,0.107,-0.132,99.8,4.0,,0.0,0.0,
2025-08-15T02:49:19.831Z,13,GR86-024-41,-2.5,0.134,-0.14,99.78,4.0,6580.0,0.0,0.0,
2025-08-15T02:49:19.874Z,13,GR86-024-41,-2.5,0.138,-0.142,99.78,4.0,,0.0,0.0,167.54
2025-08-15T02:49:19.917Z,13,GR86-024-41,-2.4000000000000004,0.138,-0.146,99.79,4.0,,0.0,0.0,
2025-08-15T02:49:19.960Z,13,GR86-024-41,-2.4000000000000004,0.091,-0.113,99.79,4.0,,0.0,0.0,
2025-08-15T02:49:20.003Z,13,GR86-024-41,-2.4000000000000004,0.115,-0.099,99.8,4.0,,0.0,0.0,
2025-08-15T02:49:20.046Z,13,GR86-024-41,-2.4000000000000004,0.117,-0.096,99.78,4.0,6620.0,0.0,0.0,
2025-08-15T02:49:20.089Z,13,GR86-024-41,-2.4000000000000004,0.117,-0.112,99.79,4.0,,0.0,0.0,168.61
2025-08-15T02:49:20.132Z,13,GR86-024-41,-2.3000000000000003,0.147,-0.098,99.79,4.0,,0.0,0.0,
2025-08-15T02:49:20.175Z,13,GR86-024-41,-2.2,0.131,-0.097,99.8,4.0,,0.0,0.0,
2025-08-15T02:49:20.218Z,13,GR86-024-41,-2.1,0.146,-0.088,99.79,4.0,,0.0,0.0,
2025-08-15T02:49:20.261Z,13,GR86-024-41,-2.0,0.094,-0.044,99.79,4.0,6655.0,0.0,0.0,
2025-08-15T02:49:20.347Z,13,GR86-024-41,-1.9,0.102,-0.052,99.79,4.0,,0.0,0.0,169.56
2025-08-15T02:49:20.390Z,13,GR86-024-41,-2.0,0.12,-0.078,99.78,4.0,,0.0,0.0,
2025-08-15T02:49:20.433Z,13,GR86-024-41,-2.0,0.123,-0.08,99.79,4.0,,0.0,0.0,
2025-08-15T02:49:20.476Z,13,GR86-024-41,-2.1,0.1,-0.089,99.79,4.0,6688.0,0.0,0.0,
2025-08-15T02:49:20.519Z,13,GR86-024-41,-2.1,0.104,-0.09,99.8,4.0,,0.0,0.0,170.46
2025-08-15T02:49:20.562Z,13,GR86-024-41,-2.1,0.12,-0.089,99.79,4.0,,0.0,0.0,
2025-08-15T02:49:20.605Z,13,GR86-024-41,-2.1,0.094,-0.105,99.8,4.0,,0.0,0.0,
2025-08-15T02:49:20.648Z,13,GR86-024-41,-2.1,0.126,-0.104,99.8,4.0,,0.0,0.0,
2025-08-15T02:49:20.691Z,13,GR86-024-41,-2.1,0.1,-0.103,99.8,4.0,6720.0,0.0,0.0,
2025-08-15T02:49:20.734Z,13,GR86-024-41,-2.1,0.139,-0.108,99.8,4.0,,0.0,0.0,171.31
2025-08-15T02:49:20.777Z,13,GR86-024-41,-2.1,0.097,-0.111,99.79,4.0,,0.0,0.0,
2025-08-15T02:49:20.820Z,13,GR86-024-41,-2.3000000000000003,0.085,-0.148,99.79,4.0,,0.0,0.0,
2025-08-15T02:49:20.863Z,13,GR86-024-41,-2.3000000000000003,0.112,-0.134,99.79,4.0,,0.0,0.0,
2025-08-15T02:49:20.906Z,13,GR86-024-41,-2.6,0.085,-0.157,99.8,4.0,6774.0,0.0,0.0,
2025-08-15T02:49:20.993Z,13,GR86-024-41,-2.7,0.102,-0.159,99.8,4.0,,0.0,0.0,172.22
2025-08-15T02:49:21.036Z,13,GR86-024-41,-2.7,0.102,-0.19,99.77,4.0,,0.0,0.0,
2025-08-15T02:49:21.081Z,13,GR86-024-41,-2.6,0.12,-0.211,99.8,4.0,,0.0,0.0,
2025-08-15T02:49:21.124Z,13,GR86-024-41,-2.6,0.107,-0.222,99.78,4.0,6797.0,0.0,0.0,
2025-08-15T02:49:21.167Z,13,GR86-024-41,-2.6,0.113,-0.226,99.78,4.0,,0.0,0.0,173.28
2025-08-15T02:49:21.210Z,13,GR86-024-41,-2.6,0.107,-0.213,99.8,4.0,,0.0,0.0,
2025-08-15T02:49:21.254Z,13,GR86-024-41,-2.5,0.101,-0.207,99.8,4.0,,0.0,0.0,
2025-08-15T02:49:21.297Z,13,GR86-024-41,-2.5,0.101,-0.175,99.79,4.0,,0.0,0.0,
2025-08-15T02:49:21.341Z,13,GR86-024-41,-2.5,0.119,-0.162,99.8,4.0,6835.0,0.0,0.0,
2025-08-15T02:49:21.427Z,13,GR86-024-41,-2.5,0.126,-0.132,99.79,4.0,,0.0,0.0,175.07
2025-08-15T02:49:21.470Z,13,GR86-024-41,-2.5,0.123,-0.126,99.78,4.0,,0.0,0.0,
2025-08-15T02:49:21.513Z,13,GR86-024-41,-2.5,0.137,-0.108,99.79,4.0,,0.0,0.0,
2025-08-15T02:49:21.556Z,13,GR86-024-41,-2.5,0.113,-0.104,99.79,4.0,6875.0,0.0,0.0,
2025-08-15T02:49:21.599Z,13,GR86-024-41,-2.4000000000000004,0.09,-0.094,99.78,4.0,,0.0,0.0,175.93
2025-08-15T02:49:21.644Z,13,GR86-024-41,-2.4000000000000004,0.116,-0.1,99.78,4.0,,0.0,0.0,
2025-08-15T02:49:21.687Z,13,GR86-024-41,-2.4000000000000004,0.124,-0.126,99.77,4.0,,0.0,0.0,
2025-08-15T02:49:21.730Z,13,GR86-024-41,-2.5,0.105,-0.119,99.79,4.0,,0.0,0.0,
2025-08-15T02:49:21.773Z,13,GR86-024-41,-2.5,0.124,-0.113,99.79,4.0,6907.0,0.0,0.0,
2025-08-15T02:49:21.816Z,13,GR86-024-41,-2.5,0.108,-0.105,99.78,4.0,,0.0,0.0,176.85
2025-08-15T02:49:21.859Z,13,GR86-024-41,-2.5,0.106,-0.104,99.79,4.0,,0.0,0.0,
2025-08-15T02:49:21.902Z,13,GR86-024-41,-2.5,0.098,-0.095,99.8,4.0,,0.0,0.0,
2025-08-15T02:49:21.945Z,13,GR86-024-41,-2.5,0.098,-0.089,99.81,4.0,,0.0,0.0,
2025-08-15T02:49:21.988Z,13,GR86-024-41,-2.5,0.107,-0.105,99.79,4.0,6975.0,0.0,0.0,
2025-08-15T02:49:22.031Z,13,GR86-024-41,-2.6,0.106,-0.11,99.79,4.0,,0.0,0.0,177.77
2025-08-15T02:49:22.074Z,13,GR86-024-41,-2.6,0.103,-0.12,99.79,4.0,,0.0,0.0,
2025-08-15T02:49:22.117Z,13,GR86-024-41,-2.7,0.094,-0.137,99.78,4.0,,0.0,0.0,
2025-08-15T02:49:22.160Z,13,GR86-024-41,-3.3000000000000003,0.109,-0.158,99.77,4.0,,0.0,0.0,
2025-08-15T02:49:22.203Z,13,GR86-024-41,-3.5,0.127,-0.172,99.79,4.0,7028.0,0.0,0.0,
2025-08-15T02:49:22.289Z,13,GR86-024-41,-3.4000000000000004,0.129,-0.199,99.79,4.0,,0.0,0.0,178.59
2025-08-15T02:49:22.332Z,13,GR86-024-41,-3.1,0.126,-0.197,99.79,4.0,,0.0,0.0,
2025-08-15T02:49:22.419Z,13,GR86-024-41,-1.9,0.124,-0.177,99.79,4.0,7059.0,0.0,0.0,
2025-08-15T02:49:22.505Z,13,GR86-024-41,-1.8,0.093,-0.103,99.79,4.0,,0.0,0.0,179.61
2025-08-15T02:49:22.548Z,13,GR86-024-41,-2.0,0.111,-0.103,99.81,4.0,,0.0,0.0,
2025-08-15T02:49:22.591Z,13,GR86-024-41,-2.1,0.092,-0.114,99.79,4.0,,0.0,0.0,
2025-08-15T02:49:22.634Z,13,GR86-024-41,-2.1,0.103,-0.103,99.79,4.0,7092.0,0.0,0.0,
2025-08-15T02:49:22.677Z,13,GR86-024-41,-2.2,0.091,-0.113,99.8,4.0,,0.0,0.0,180.52
2025-08-15T02:49:22.720Z,13,GR86-024-41,-2.3000000000000003,0.113,-0.144,99.8,4.0,,0.0,0.0,
2025-08-15T02:49:22.763Z,13,GR86-024-41,-2.4000000000000004,0.113,-0.147,99.8,4.0,,0.0,0.0,
2025-08-15T02:49:22.850Z,13,GR86-024-41,-2.4000000000000004,0.124,-0.152,99.8,4.0,7117.0,0.0,0.0,
2025-08-15T02:49:22.893Z,13,GR86-024-41,-2.4000000000000004,0.124,-0.156,99.79,4.0,,0.0,0.0,181.39
2025-08-15T02:49:22.936Z,13,GR86-024-41,-2.4000000000000004,0.124,-0.166,99.79,4.0,,0.0,0.0,
2025-08-15T02:49:22.981Z,13,GR86-024-41,-2.4000000000000004,0.096,-0.14,99.76,4.0,,0.0,0.0,
2025-08-15T02:49:23.024Z,13,GR86-024-41,-2.5,0.095,-0.145,99.8,4.0,,0.0,0.0,
2025-08-15T02:49:23.067Z,13,GR86-024-41,-2.4000000000000004,0.107,-0.153,99.82,4.0,7156.0,0.0,0.0,
2025-08-15T02:49:23.110Z,13,GR86-024-41,-2.4000000000000004,0.088,-0.153,99.8,4.0,,0.0,0.0,182.35
2025-08-15T02:49:23.153Z,13,GR86-024-41,-2.5,0.106,-0.158,99.78,4.0,,0.0,0.0,
2025-08-15T02:49:23.196Z,13,GR86-024-41,-2.6,0.094,-0.158,99.75,4.0,,0.0,0.0,
2025-08-15T02:49:23.239Z,13,GR86-024-41,-2.5,0.115,-0.136,99.79,4.0,,0.0,0.0,
2025-08-15T02:49:23.283Z,13,GR86-024-41,-2.5,0.118,-0.141,99.78,4.0,7190.0,0.0,0.0,
2025-08-15T02:49:23.369Z,13,GR86-024-41,-2.5,0.115,-0.129,99.8,4.0,,0.0,0.0,183.16
2025-08-15T02:49:23.412Z,13,GR86-024-41,-2.4000000000000004,0.124,-0.121,99.77,4.0,,0.0,0.0,
2025-08-15T02:49:23.498Z,13,GR86-024-41,-2.5,0.086,-0.12,99.76,4.0,7226.0,0.0,0.0,
2025-08-15T02:49:23.541Z,13,GR86-024-41,-2.5,0.413,-0.172,99.79,5.0,,0.0,0.0,183.98
2025-08-15T02:49:23.584Z,13,GR86-024-41,-2.5,0.184,-0.195,99.79,5.0,,0.0,0.0,
2025-08-15T02:49:23.627Z,13,GR86-024-41,-2.7,-0.008,-0.092,99.79,5.0,,0.0,0.0,
2025-08-15T02:49:23.670Z,13,GR86-024-41,-2.7,0.052,-0.2,99.79,5.0,,0.0,0.0,
2025-08-15T02:49:23.756Z,13,GR86-024-41,-2.7,0.132,-0.15,99.81,5.0,7252.0,0.0,0.0,184.89
2025-08-15T02:49:23.799Z,13,GR86-024-41,-2.8000000000000003,0.053,-0.184,99.8,5.0,,0.0,0.0,
2025-08-15T02:49:23.842Z,13,GR86-024-41,-2.8000000000000003,0.079,-0.14,99.79,5.0,,0.0,0.0,
2025-08-15T02:49:23.885Z,13,GR86-024-41,-2.7,0.116,-0.174,99.78,5.0,,0.0,0.0,
2025-08-15T02:49:23.928Z,13,GR86-024-41,-2.7,0.057,-0.174,99.78,5.0,6336.0,0.0,0.0,
2025-08-15T02:49:23.971Z,13,GR86-024-41,-2.7,0.076,-0.164,99.78,5.0,,0.0,0.0,185.65
2025-08-15T02:49:24.014Z,13,GR86-024-41,-2.6,0.083,-0.17,99.79,5.0,,0.0,0.0,
2025-08-15T02:49:24.057Z,13,GR86-024-41,-2.4000000000000004,0.081,-0.167,99.8,5.0,,0.0,0.0,
2025-08-15T02:49:24.100Z,13,GR86-024-41,-2.3000000000000003,0.108,-0.131,99.79,5.0,,0.0,0.0,
2025-08-15T02:49:24.143Z,13,GR86-024-41,-2.3000000000000003,0.097,-0.112,99.78,5.0,6315.0,0.0,0.0,
2025-08-15T02:49:24.186Z,13,GR86-024-41,-2.3000000000000003,0.099,-0.084,99.78,5.0,,0.0,0.0,187.35
2025-08-15T02:49:24.229Z,13,GR86-024-41,-2.3000000000000003,0.093,-0.077,99.8,5.0,,0.0,0.0,
2025-08-15T02:49:24.272Z,13,GR86-024-41,-2.2,0.09,-0.08,99.78,5.0,,0.0,0.0,
2025-08-15T02:49:24.358Z,13,GR86-024-41,-2.3000000000000003,0.087,-0.075,99.79,5.0,6371.0,0.0,0.0,
2025-08-15T02:49:24.401Z,13,GR86-024-41,-2.3000000000000003,0.09,-0.098,99.8,5.0,,0.0,0.0,188.16
2025-08-15T02:49:24.444Z,13,GR86-024-41,-2.2,0.084,-0.095,99.79,5.0,,0.0,0.0,
2025-08-15T02:49:24.487Z,13,GR86-024-41,-2.0,0.089,-0.093,99.79,5.0,,0.0,0.0,
2025-08-15T02:49:24.530Z,13,GR86-024-41,-1.7000000000000002,0.086,-0.088,99.78,5.0,,0.0,0.0,
2025-08-15T02:49:24.576Z,13,GR86-024-41,-1.5,0.075,-0.088,99.8,5.0,6401.0,0.0,0.0,
2025-08-15T02:49:24.619Z,13,GR86-024-41,-1.4,0.055,-0.085,99.78,5.0,,0.0,0.0,188.9
2025-08-15T02:49:24.662Z,13,GR86-024-41,-1.5,0.063,-0.092,99.79,5.0,,0.0,0.0,
2025-08-15T02:49:24.705Z,13,GR86-024-41,-1.5,0.058,-0.082,99.79,5.0,,0.0,0.0,
2025-08-15T02:49:24.748Z,13,GR86-024-41,-1.5,0.062,-0.076,99.78,5.0,,0.0,0.0,
2025-08-15T02:49:24.791Z,13,GR86-024-41,-1.5,0.078,-0.08,99.79,5.0,6443.0,0.0,0.0,
2025-08-15T02:49:24.835Z,13,GR86-024-41,-1.5,0.061,-0.08,99.8,5.0,,0.0,0.0,189.63
2025-08-15T02:49:24.878Z,13,GR86-024-41,-1.5,0.081,-0.077,99.78,5.0,,0.0,0.0,
2025-08-15T02:49:24.921Z,13,GR86-024-41,-1.5,0.054,-0.074,99.79,5.0,,0.0,0.0,
2025-08-15T02:49:24.965Z,13,GR86-024-41,-1.6,0.03,-0.091,99.78,5.0,,0.0,0.0,
2025-08-15T02:49:25.008Z,13,GR86-024-41,-1.7000000000000002,0.056,-0.095,99.78,5.0,6468.0,0.0,0.0,
2025-08-15T02:49:25.051Z,13,GR86-024-41,-1.7000000000000002,0.034,-0.097,99.76,5.0,,0.0,0.0,190.26
2025-08-15T02:49:25.094Z,13,GR86-024-41,-1.7000000000000002,0.051,-0.112,99.79,5.0,,0.0,0.0,
2025-08-15T02:49:25.137Z,13,GR86-024-41,-1.7000000000000002,0.065,-0.1,99.8,5.0,,0.0,0.0,
2025-08-15T02:49:25.181Z,13,GR86-024-41,-1.8,0.068,-0.086,99.79,5.0,,0.0,0.0,
2025-08-15T02:49:25.224Z,13,GR86-024-41,-1.9,0.054,-0.108,99.78,5.0,6484.0,0.0,0.0,
2025-08-15T02:49:25.267Z,13,GR86-024-41,-1.9,0.052,-0.13,99.78,5.0,,0.0,0.0,190.86
2025-08-15T02:49:25.310Z,13,GR86-024-41,-1.8,0.046,-0.123,99.77,5.0,,0.0,0.0,
2025-08-15T02:49:25.353Z,13,GR86-024-41,-0.2,0.056,-0.129,99.78,5.0,,0.0,0.0,
2025-08-15T02:49:25.396Z,13,GR86-024-41,0.7000000000000001,0.035,-0.123,99.8,5.0,,0.0,0.0,
2025-08-15T02:49:25.439Z,13,GR86-024-41,0.9,0.051,-0.094,99.78,5.0,6504.0,0.0,0.0,
2025-08-15T02:49:25.482Z,13,GR86-024-41,0.8,0.077,-0.055,99.79,5.0,,0.0,0.0,191.37
2025-08-15T02:49:25.525Z,13,GR86-024-41,0.8,0.051,-0.032,99.76,5.0,,0.0,0.0,
2025-08-15T02:49:25.568Z,13,GR86-024-41,0.8,0.051,-0.004,99.79,5.0,,0.0,0.0,
2025-08-15T02:49:25.611Z,13,GR86-024-41,0.9,0.027,0.014,99.8,5.0,,0.0,0.0,
2025-08-15T02:49:25.654Z,13,GR86-024-41,0.8,0.057,0.017,99.78,5.0,6519.0,0.0,0.0,
2025-08-15T02:49:25.697Z,13,GR86-024-41,0.8,0.034,0.022,99.78,5.0,,0.0,0.0,192.01
2025-08-15T02:49:25.740Z,13,GR86-024-41,0.7000000000000001,0.046,0.012,99.77,5.0,,0.0,0.0,
2025-08-15T02:49:25.784Z,13,GR86-024-41,0.7000000000000001,0.075,0.005,99.79,5.0,,0.0,0.0,
2025-08-15T02:49:25.827Z,13,GR86-024-41,0.6000000000000001,0.057,-0.012,99.81,5.0,,0.0,0.0,
2025-08-15T02:49:25.870Z,13,GR86-024-41,0.5,0.059,-0.03,99.78,5.0,6529.0,0.0,0.0,
2025-08-15T02:49:25.913Z,13,GR86-024-41,0.5,0.04,-0.02,99.76,5.0,,0.0,0.0,192.49
2025-08-15T02:49:25.956Z,13,GR86-024-41,0.5,0.045,-0.008,99.77,5.0,,0.0,0.0,
2025-08-15T02:49:25.999Z,13,GR86-024-41,0.5,0.057,-0.022,99.79,5.0,,0.0,0.0,
2025-08-15T02:49:26.042Z,13,GR86-024-41,0.5,0.055,-0.027,99.8,5.0,,0.0,0.0,
2025-08-15T02:49:26.085Z,13,GR86-024-41,0.5,0.051,-0.015,99.78,5.0,6550.0,0.0,0.0,
2025-08-15T02:49:26.128Z,13,GR86-024-41,0.6000000000000001,0.053,-0.008,99.79,5.0,,0.0,0.0,193.1
2025-08-15T02:49:26.171Z,13,GR86-024-41,0.7000000000000001,0.044,-0.002,99.78,5.0,,0.0,0.0,
2025-08-15T02:49:26.214Z,13,GR86-024-41,0.7000000000000001,0.047,0.019,99.78,5.0,,0.0,0.0,
2025-08-15T02:49:26.257Z,13,GR86-024-41,0.6000000000000001,0.024,0.034,99.81,5.0,,0.0,0.0,
2025-08-15T02:49:26.300Z,13,GR86-024-41,0.5,0.051,0.0,99.76,5.0,6567.0,0.0,0.0,
2025-08-15T02:49:26.343Z,13,GR86-024-41,0.3,0.058,-0.01,99.79,5.0,,0.0,0.0,193.58
2025-08-15T02:49:26.386Z,13,GR86-024-41,0.1,0.063,-0.014,99.77,5.0,,0.0,0.0,
2025-08-15T02:49:26.429Z,13,GR86-024-41,-0.2,0.044,-0.023,99.78,5.0,,0.0,0.0,
2025-08-15T02:49:26.472Z,13,GR86-024-41,-0.3,0.041,-0.048,99.77,5.0,,0.0,0.0,
2025-08-15T02:49:26.516Z,13,GR86-024-41,-0.3,0.039,-0.07,99.75,5.0,6578.0,0.0,0.0,
2025-08-15T02:49:26.559Z,13,GR86-024-41,-0.3,0.052,-0.101,99.78,5.0,,0.0,0.0,193.97
2025-08-15T02:49:26.602Z,13,GR86-024-41,-0.3,0.036,-0.118,99.78,5.0,,0.0,0.0,
2025-08-15T02:49:26.645Z,13,GR86-024-41,-0.2,0.056,-0.104,99.78,5.0,,0.0,0.0,
2025-08-15T02:49:26.688Z,13,GR86-024-41,-0.2,0.045,-0.096,99.77,5.0,,0.0,0.0,
2025-08-15T02:49:26.731Z,13,GR86-024-41,0.0,0.048,-0.072,99.78,5.0,6596.0,0.0,0.0,
2025-08-15T02:49:26.775Z,13,GR86-024-41,0.0,0.042,-0.045,99.78,5.0,,0.0,0.0,194.37
2025-08-15T02:49:26.818Z,13,GR86-024-41,0.0,0.04,-0.01,99.78,5.0,,0.0,0.0,
2025-08-15T02:49:26.861Z,13,GR86-024-41,0.0,0.064,0.0,99.78,5.0,,0.0,0.0,
2025-08-15T02:49:26.904Z,13,GR86-024-41,0.0,0.051,0.012,99.78,5.0,,0.0,0.0,
2025-08-15T02:49:26.947Z,13,GR86-024-41,0.0,0.052,0.012,99.77,5.0,6611.0,0.0,0.0,
2025-08-15T02:49:26.990Z,13,GR86-024-41,-0.1,0.047,0.018,99.78,5.0,,0.0,0.0,195.34
2025-08-15T02:49:27.033Z,13,GR86-024-41,-0.1,0.05,0.023,99.78,5.0,,0.0,0.0,
2025-08-15T02:49:27.076Z,13,GR86-024-41,-0.1,0.049,0.014,99.76,5.0,,0.0,0.0,
2025-08-15T02:49:27.119Z,13,GR86-024-41,-0.1,0.062,-0.01,99.75,5.0,,0.0,0.0,
2025-08-15T02:49:27.162Z,13,GR86-024-41,-0.1,0.047,-0.022,99.78,5.0,6623.0,0.0,0.0,
2025-08-15T02:49:27.205Z,13,GR86-024-41,-0.1,0.052,-0.024,99.79,5.0,,0.0,0.0,195.6
2025-08-15T02:49:27.248Z,13,GR86-024-41,-0.2,0.052,-0.017,99.75,5.0,,0.0,0.0,
2025-08-15T02:49:27.291Z,13,GR86-024-41,-0.2,0.046,-0.019,99.79,5.0,,0.0,0.0,
2025-08-15T02:49:27.334Z,13,GR86-024-41,-0.1,0.045,-0.009,99.77,5.0,,0.0,0.0,
2025-08-15T02:49:27.377Z,13,GR86-024-41,-0.1,0.036,-0.006,99.79,5.0,6635.0,0.0,0.0,
2025-08-15T02:49:27.420Z,13,GR86-024-41,-0.1,0.054,-0.023,99.78,5.0,,0.0,0.0,196.11
2025-08-15T02:49:27.464Z,13,GR86-024-41,-0.1,0.062,-0.017,99.8,5.0,,0.0,0.0,
2025-08-15T02:49:27.508Z,13,GR86-024-41,-0.1,0.039,-0.025,99.76,5.0,,0.0,0.0,
2025-08-15T02:49:27.551Z,13,GR86-024-41,-0.1,0.046,-0.021,99.8,5.0,,0.0,0.0,
2025-08-15T02:49:27.594Z,13,GR86-024-41,-0.2,0.034,-0.009,99.78,5.0,6680.0,0.0,0.0,
2025-08-15T02:49:27.637Z,13,GR86-024-41,-0.2,0.036,-0.019,99.78,5.0,,0.0,0.0,196.6
2025-08-15T02:49:27.681Z,13,GR86-024-41,-0.2,0.044,-0.042,99.78,5.0,,0.0,0.0,
2025-08-15T02:49:27.724Z,13,GR86-024-41,-0.2,0.054,-0.035,99.77,5.0,,0.0,0.0,
2025-08-15T02:49:27.767Z,13,GR86-024-41,-0.2,0.053,-0.038,99.77,5.0,,0.0,0.0,
2025-08-15T02:49:27.810Z,13,GR86-024-41,-0.1,0.058,-0.032,99.78,5.0,6687.0,0.0,0.0,
2025-08-15T02:49:27.854Z,13,GR86-024-41,-0.1,0.044,-0.043,99.75,5.0,,0.0,0.0,197.06
2025-08-15T02:49:27.897Z,13,GR86-024-41,0.0,0.051,-0.023,99.8,5.0,,0.0,0.0,
2025-08-15T02:49:27.941Z,13,GR86-024-41,1.5,0.048,0.002,99.76,5.0,,0.0,0.0,
2025-08-15T02:49:27.984Z,13,GR86-024-41,3.3000000000000003,0.055,0.017,99.76,5.0,,0.0,0.0,
2025-08-15T02:49:28.027Z,13,GR86-024-41,4.7,0.043,0.056,99.78,5.0,6704.0,0.0,0.0,
2025-08-15T02:49:28.070Z,13,GR86-024-41,5.300000000000001,0.052,0.081,99.77,5.0,,0.0,0.0,197.64
2025-08-15T02:49:28.113Z,13,GR86-024-41,5.6000000000000005,0.032,0.118,99.75,5.0,,0.0,0.0,
2025-08-15T02:49:28.156Z,13,GR86-024-41,5.9,0.032,0.148,99.76,5.0,,0.0,0.0,
2025-08-15T02:49:28.199Z,13,GR86-024-41,6.0,0.05,0.174,99.79,5.0,,0.0,0.0,
2025-08-15T02:49:28.243Z,13,GR86-024-41,6.0,0.041,0.215,99.77,5.0,6737.0,0.0,0.0,
2025-08-15T02:49:28.287Z,13,GR86-024-41,6.2,0.039,0.211,99.78,5.0,,0.0,0.0,198.07
2025-08-15T02:49:28.330Z,13,GR86-024-41,7.2,0.037,0.239,99.76,5.0,,0.0,0.0,
2025-08-15T02:49:28.373Z,13,GR86-024-41,7.6,0.041,0.267,99.78,5.0,,0.0,0.0,
2025-08-15T02:49:28.416Z,13,GR86-024-41,7.5,0.038,0.273,99.77,5.0,,0.0,0.0,
2025-08-15T02:49:28.459Z,13,GR86-024-41,6.7,0.039,0.251,99.76,5.0,6735.0,0.0,0.0,
2025-08-15T02:49:28.503Z,13,GR86-024-41,6.6000000000000005,0.04,0.255,99.78,5.0,,0.0,0.0,198.65
2025-08-15T02:49:28.546Z,13,GR86-024-41,6.6000000000000005,0.034,0.246,99.78,5.0,,0.0,0.0,
2025-08-15T02:49:28.589Z,13,GR86-024-41,7.1000000000000005,0.026,0.268,99.76,5.0,,0.0,0.0,
2025-08-15T02:49:28.632Z,13,GR86-024-41,7.5,0.056,0.284,99.76,5.0,,0.0,0.0,
2025-08-15T02:49:28.675Z,13,GR86-024-41,7.5,0.041,0.282,99.76,5.0,6756.0,0.0,0.0,
2025-08-15T02:49:28.718Z,13,GR86-024-41,7.4,0.053,0.282,99.77,5.0,,0.0,0.0,199.11
2025-08-15T02:49:28.761Z,13,GR86-024-41,7.6,0.053,0.265,99.77,5.0,,0.0,0.0,
2025-08-15T02:49:28.804Z,13,GR86-024-41,8.700000000000001,0.037,0.305,99.78,5.0,,0.0,0.0,
2025-08-15T02:49:28.847Z,13,GR86-024-41,9.5,0.055,0.302,99.77,5.0,,0.0,0.0,
2025-08-15T02:49:28.890Z,13,GR86-024-41,9.8,0.029,0.347,99.75,5.0,6775.0,0.0,0.0,
2025-08-15T02:49:28.933Z,13,GR86-024-41,9.5,0.044,0.337,99.77,5.0,,0.0,0.0,199.56
2025-08-15T02:49:28.976Z,13,GR86-024-41,8.9,0.061,0.322,99.79,5.0,,0.0,0.0,
2025-08-15T02:49:29.019Z,13,GR86-024-41,7.5,0.049,0.324,99.75,5.0,,0.0,0.0,
2025-08-15T02:49:29.062Z,13,GR86-024-41,7.4,0.045,0.289,99.77,5.0,,0.0,0.0,
2025-08-15T02:49:29.105Z,13,GR86-024-41,7.300000000000001,0.036,0.293,99.79,5.0,6795.0,0.0,0.0,
2025-08-15T02:49:29.148Z,13,GR86-024-41,7.300000000000001,0.058,0.277,99.78,5.0,,0.0,0.0,200.07
2025-08-15T02:49:29.191Z,13,GR86-024-41,7.300000000000001,0.049,0.304,99.77,5.0,,0.0,0.0,
2025-08-15T02:49:29.234Z,13,GR86-024-41,7.300000000000001,0.052,0.286,99.77,5.0,,0.0,0.0,
2025-08-15T02:49:29.277Z,13,GR86-024-41,7.300000000000001,0.051,0.281,99.79,5.0,,0.0,0.0,
2025-08-15T02:49:29.320Z,13,GR86-024-41,7.2,0.023,0.277,99.76,5.0,6810.0,0.0,0.0,
2025-08-15T02:49:29.363Z,13,GR86-024-41,7.2,0.056,0.24,99.77,5.0,,0.0,0.0,200.51
2025-08-15T02:49:29.406Z,13,GR86-024-41,7.300000000000001,0.029,0.255,99.77,5.0,,0.0,0.0,
2025-08-15T02:49:29.449Z,13,GR86-024-41,7.4,0.07,0.248,99.79,5.0,,0.0,0.0,
2025-08-15T02:49:29.492Z,13,GR86-024-41,7.2,0.036,0.255,99.78,5.0,,0.0,0.0,
2025-08-15T02:49:29.535Z,13,GR86-024-41,7.0,0.033,0.243,99.78,5.0,6826.0,0.0,0.0,
2025-08-15T02:49:29.581Z,13,GR86-024-41,6.800000000000001,0.052,0.2,99.79,5.0,,0.0,0.0,201.41
2025-08-15T02:49:29.624Z,13,GR86-024-41,6.800000000000001,0.034,0.201,99.79,5.0,,0.0,0.0,
2025-08-15T02:49:29.667Z,13,GR86-024-41,6.9,0.057,0.195,99.78,5.0,,0.0,0.0,
2025-08-15T02:49:29.710Z,13,GR86-024-41,7.1000000000000005,0.034,0.253,99.78,5.0,,0.0,0.0,
2025-08-15T02:49:29.753Z,13,GR86-024-41,7.1000000000000005,0.063,0.254,99.78,5.0,6839.0,0.0,0.0,
2025-08-15T02:49:29.796Z,13,GR86-024-41,6.9,0.032,0.256,99.77,5.0,,0.0,0.0,202.0
2025-08-15T02:49:29.839Z,13,GR86-024-41,6.5,0.04,0.259,99.78,5.0,,0.0,0.0,
2025-08-15T02:49:29.883Z,13,GR86-024-41,6.4,0.051,0.233,99.77,5.0,,0.0,0.0,
2025-08-15T02:49:29.926Z,13,GR86-024-41,6.4,0.037,0.217,99.77,5.0,,0.0,0.0,
2025-08-15T02:49:29.969Z,13,GR86-024-41,6.4,0.02,0.217,99.77,5.0,6858.0,0.0,0.0,
2025-08-15T02:49:30.012Z,13,GR86-024-41,6.300000000000001,0.047,0.235,99.75,5.0,,0.0,0.0,202.34
2025-08-15T02:49:30.055Z,13,GR86-024-41,6.300000000000001,0.02,0.241,99.75,5.0,,0.0,0.0,
2025-08-15T02:49:30.098Z,13,GR86-024-41,6.300000000000001,0.044,0.239,99.77,5.0,,0.0,0.0,
2025-08-15T02:49:30.141Z,13,GR86-024-41,6.2,0.034,0.25,99.76,5.0,,0.0,0.0,
2025-08-15T02:49:30.184Z,13,GR86-024-41,6.1000000000000005,0.04,0.238,99.76,5.0,6899.0,0.0,0.0,
2025-08-15T02:49:30.227Z,13,GR86-024-41,6.1000000000000005,0.037,0.239,99.78,5.0,,0.0,0.0,202.72
2025-08-15T02:49:30.270Z,13,GR86-024-41,6.1000000000000005,0.062,0.182,99.77,5.0,,0.0,0.0,
2025-08-15T02:49:30.313Z,13,GR86-024-41,6.2,0.029,0.192,99.77,5.0,,0.0,0.0,
2025-08-15T02:49:30.356Z,13,GR86-024-41,6.4,0.056,0.205,99.77,5.0,,0.0,0.0,
2025-08-15T02:49:30.399Z,13,GR86-024-41,6.7,0.054,0.243,99.76,5.0,6917.0,0.0,0.0,
2025-08-15T02:49:30.442Z,13,GR86-024-41,6.800000000000001,0.046,0.258,99.76,5.0,,0.0,0.0,203.27
2025-08-15T02:49:30.485Z,13,GR86-024-41,6.7,0.055,0.232,99.78,5.0,,0.0,0.0,
2025-08-15T02:49:30.528Z,13,GR86-024-41,6.5,0.05,0.242,99.78,5.0,,0.0,0.0,
2025-08-15T02:49:30.571Z,13,GR86-024-41,6.1000000000000005,0.058,0.251,99.75,5.0,,0.0,0.0,
2025-08-15T02:49:30.614Z,13,GR86-024-41,6.0,0.053,0.241,99.76,5.0,6934.0,0.0,0.0,
2025-08-15T02:49:30.657Z,13,GR86-024-41,6.0,0.06,0.241,99.77,5.0,,0.0,0.0,203.88
2025-08-15T02:49:30.700Z,13,GR86-024-41,6.0,0.072,0.212,99.77,5.0,,0.0,0.0,
2025-08-15T02:49:30.743Z,13,GR86-024-41,6.0,0.045,0.226,99.77,5.0,,0.0,0.0,
2025-08-15T02:49:30.786Z,13,GR86-024-41,5.9,0.053,0.218,99.76,5.0,,0.0,0.0,
2025-08-15T02:49:30.829Z,13,GR86-024-41,5.800000000000001,0.057,0.207,99.77,5.0,6959.0,0.0,0.0,
2025-08-15T02:49:30.915Z,13,GR86-024-41,5.7,0.06,0.164,99.77,5.0,,0.0,0.0,204.48
2025-08-15T02:49:31.004Z,13,GR86-024-41,5.7,0.03,0.158,99.8,5.0,,0.0,0.0,
2025-08-15T02:49:31.047Z,13,GR86-024-41,5.7,0.048,0.144,99.77,5.0,6968.0,0.0,0.0,
2025-08-15T02:49:31.090Z,13,GR86-024-41,5.7,0.037,0.148,99.77,5.0,,0.0,0.0,205.11
2025-08-15T02:49:31.133Z,13,GR86-024-41,5.6000000000000005,0.057,0.149,99.76,5.0,,0.0,0.0,
2025-08-15T02:49:31.176Z,13,GR86-024-41,5.6000000000000005,0.031,0.177,99.75,5.0,,0.0,0.0,
2025-08-15T02:49:31.219Z,13,GR86-024-41,6.0,0.059,0.176,99.76,5.0,,0.0,0.0,
2025-08-15T02:49:31.262Z,13,GR86-024-41,7.1000000000000005,0.057,0.2,99.76,5.0,6994.0,0.0,0.0,
2025-08-15T02:49:31.305Z,13,GR86-024-41,7.5,0.057,0.211,99.78,5.0,,0.0,0.0,205.82
2025-08-15T02:49:31.348Z,13,GR86-024-41,7.6,0.025,0.271,99.75,5.0,,0.0,0.0,
2025-08-15T02:49:31.391Z,13,GR86-024-41,7.5,0.023,0.3,70.61,5.0,,2.73,3.035,
2025-08-15T02:49:31.434Z,13,GR86-024-41,7.4,0.062,0.293,42.34,5.0,,11.065,11.185,
2025-08-15T02:49:31.477Z,13,GR86-024-41,7.2,-0.039,0.268,34.85,5.0,7032.0,17.305,17.395,
2025-08-15T02:49:31.520Z,13,GR86-024-41,6.6000000000000005,-0.351,0.289,31.57,5.0,,28.49,28.185,206.39
2025-08-15T02:49:31.606Z,13,GR86-024-41,6.4,-0.536,0.25,23.37,5.0,,37.525,37.05,
2025-08-15T02:49:31.650Z,13,GR86-024-41,5.5,-0.901,0.154,10.63,5.0,,59.775,59.18,
2025-08-15T02:49:31.693Z,13,GR86-024-41,4.3,-1.102,0.135,7.24,5.0,7047.0,67.175,66.395,
2025-08-15T02:49:31.737Z,13,GR86-024-41,3.7,-1.226,0.098,6.83,5.0,,70.83500000000001,70.06,206.97
2025-08-15T02:49:31.781Z,13,GR86-024-41,3.6,-1.256,0.055,5.0200000000000005,5.0,,76.025,75.125,
2025-08-15T02:49:31.824Z,13,GR86-024-41,4.5,-1.369,0.066,4.24,5.0,,83.305,82.33,
2025-08-15T02:49:31.867Z,13,GR86-024-41,5.2,-1.472,0.061,3.88,5.0,,93.56,93.865,
2025-08-15T02:49:31.953Z,13,GR86-024-41,5.4,-1.496,0.073,18.45,5.0,6935.0,102.58,104.365,206.96
2025-08-15T02:49:31.996Z,13,GR86-024-41,5.0,-1.488,0.088,92.78,4.0,,104.365,105.25,
2025-08-15T02:49:32.082Z,13,GR86-024-41,2.1,-1.401,0.0,6.3,4.0,,101.95,102.745,
2025-08-15T02:49:32.125Z,13,GR86-024-41,3.0,-1.37,0.003,3.89,4.0,6366.0,102.24,102.625,
2025-08-15T02:49:32.254Z,13,GR86-024-41,7.7,-1.419,0.14,3.63,4.0,,101.265,100.58,201.14
2025-08-15T02:49:32.426Z,13,GR86-024-41,5.6000000000000005,-1.26,0.162,2.5500000000000003,4.0,6097.0,82.265,82.925,181.03
2025-08-15T02:49:32.512Z,13,GR86-024-41,4.6000000000000005,-1.327,0.121,2.51,4.0,,76.68,77.885,
2025-08-15T02:49:32.555Z,13,GR86-024-41,4.4,-1.374,0.228,2.5,4.0,6593.0,78.115,79.015,
2025-08-15T02:49:32.598Z,13,GR86-024-41,4.1000000000000005,-1.352,0.213,2.48,4.0,,78.515,78.83500000000001,173.27
2025-08-15T02:49:32.641Z,13,GR86-024-41,2.5,-1.391,0.19,22.72,4.0,,78.27,78.27,
2025-08-15T02:49:32.684Z,13,GR86-024-41,2.2,-1.392,0.193,58.17,3.0,,78.39,78.24,
2025-08-15T02:49:32.727Z,13,GR86-024-41,1.7000000000000002,-1.338,0.18,9.46,3.0,,78.27,78.45,
2025-08-15T02:49:32.770Z,13,GR86-024-41,-0.3,-1.302,0.177,4.46,3.0,6396.0,79.75,81.06,
2025-08-15T02:49:32.813Z,13,GR86-024-41,-2.0,-1.472,0.137,4.32,3.0,,81.03,82.465,164.98
2025-08-15T02:49:32.856Z,13,GR86-024-41,-2.3000000000000003,-1.402,0.221,4.14,3.0,,78.27,79.185,
2025-08-15T02:49:32.899Z,13,GR86-024-41,-2.4000000000000004,-1.258,0.152,3.69,3.0,,78.77,80.375,
2025-08-15T02:49:32.942Z,13,GR86-024-41,-1.2000000000000002,-1.093,0.249,3.13,3.0,,79.075,79.9,
2025-08-15T02:49:32.986Z,13,GR86-024-41,1.2000000000000002,-1.385,0.284,2.8000000000000003,3.0,6165.0,79.4,80.16,
2025-08-15T02:49:33.029Z,13,GR86-024-41,2.3000000000000003,-1.3,0.195,2.62,3.0,,81.0,82.08500000000001,156.87
2025-08-15T02:49:33.072Z,13,GR86-024-41,4.800000000000001,-1.202,0.229,2.5500000000000003,3.0,,81.75,82.465,
2025-08-15T02:49:33.115Z,13,GR86-024-41,7.300000000000001,-1.348,0.282,2.51,3.0,,83.67,84.645,
2025-08-15T02:49:33.158Z,13,GR86-024-41,9.9,-1.3,0.165,2.48,3.0,,86.065,86.815,
2025-08-15T02:49:33.287Z,13,GR86-024-41,15.4,-1.299,0.276,2.48,3.0,6259.0,89.805,89.83500000000001,149.05
2025-08-15T02:49:33.330Z,13,GR86-024-41,12.2,-1.327,0.329,59.65,2.0,,90.555,90.52,
2025-08-15T02:49:33.373Z,13,GR86-024-41,8.200000000000001,-1.398,0.231,8.700000000000001,2.0,,92.035,92.72,
2025-08-15T02:49:33.416Z,13,GR86-024-41,5.4,-1.255,0.232,4.36,2.0,6238.0,90.735,92.215,
2025-08-15T02:49:33.459Z,13,GR86-024-41,3.7,-1.32,0.259,4.17,2.0,,91.115,91.835,140.75
2025-08-15T02:49:33.502Z,13,GR86-024-41,3.4000000000000004,-1.38,0.288,4.0200000000000005,2.0,,91.775,92.72,
2025-08-15T02:49:33.545Z,13,GR86-024-41,4.5,-1.226,0.26,3.7,2.0,,92.4,94.185,
2025-08-15T02:49:33.588Z,13,GR86-024-41,9.0,-1.182,0.412,3.14,2.0,,90.295,90.935,
2025-08-15T02:49:33.631Z,13,GR86-024-41,12.6,-1.278,0.472,2.8000000000000003,2.0,5922.0,90.935,91.835,
2025-08-15T02:49:33.674Z,13,GR86-024-41,15.7,-1.332,0.333,2.61,2.0,,92.52,93.53,132.45
2025-08-15T02:49:33.717Z,13,GR86-024-41,19.3,-1.086,0.461,2.53,2.0,,90.735,91.805,
2025-08-15T02:49:33.760Z,13,GR86-024-41,20.9,-1.198,0.376,2.49,2.0,,83.87,83.87,
2025-08-15T02:49:33.803Z,13,GR86-024-41,22.3,-1.196,0.35,2.48,2.0,,80.22,80.285,
2025-08-15T02:49:33.846Z,13,GR86-024-41,23.5,-1.118,0.396,2.46,2.0,6389.0,73.935,74.375,
2025-08-15T02:49:33.889Z,13,GR86-024-41,24.0,-1.137,0.381,2.46,2.0,,68.09,68.87,123.6
2025-08-15T02:49:33.932Z,13,GR86-024-41,24.0,-1.177,0.39,2.46,2.0,,63.895,64.365,
2025-08-15T02:49:33.975Z,13,GR86-024-41,24.0,-1.076,0.431,2.46,2.0,,61.025,61.085,
2025-08-15T02:49:34.018Z,13,GR86-024-41,24.0,-1.14,0.417,14.38,2.0,,58.125,58.125,
2025-08-15T02:49:34.061Z,13,GR86-024-41,23.700000000000003,-1.152,0.459,40.67,1.0,6272.0,53.455,53.9,
2025-08-15T02:49:34.104Z,13,GR86-024-41,23.200000000000003,-1.342,0.391,4.96,1.0,,50.375,51.535,115.28
2025-08-15T02:49:34.147Z,13,GR86-024-41,22.1,-1.256,0.448,4.49,1.0,,48.865,50.375,
2025-08-15T02:49:34.190Z,13,GR86-024-41,19.5,-1.188,0.44,4.33,1.0,,45.0,45.81,
2025-08-15T02:49:34.233Z,13,GR86-024-41,18.0,-1.261,0.619,4.14,1.0,,36.9,37.705,
2025-08-15T02:49:34.276Z,13,GR86-024-41,17.7,-1.01,0.534,3.84,1.0,5840.0,30.64,31.65,
2025-08-15T02:49:34.319Z,13,GR86-024-41,17.7,-0.752,0.709,2.93,1.0,,21.96,22.675,107.97
2025-08-15T02:49:34.362Z,13,GR86-024-41,21.0,-0.715,0.775,2.66,1.0,,20.51,20.66,
2025-08-15T02:49:34.405Z,13,GR86-024-41,27.8,-0.726,0.615,2.54,1.0,,19.87,20.325,
2025-08-15T02:49:34.448Z,13,GR86-024-41,34.800000000000004,-0.623,0.6960000000000001,2.48,1.0,,19.21,19.93,
2025-08-15T02:49:34.491Z,13,GR86-024-41,40.2,-0.5750000000000001,0.761,2.46,1.0,5977.0,19.045,19.58,
2025-08-15T02:49:34.577Z,13,GR86-024-41,45.400000000000006,-0.5760000000000001,0.655,2.46,1.0,,16.68,17.52,101.12
2025-08-15T02:49:34.663Z,13,GR86-024-41,47.2,-0.53,0.6970000000000001,2.45,1.0,,13.64,14.48,
2025-08-15T02:49:34.706Z,13,GR86-024-41,49.7,-0.508,0.722,2.45,1.0,6486.0,12.56,13.335,
2025-08-15T02:49:34.750Z,13,GR86-024-41,54.8,-0.47,0.76,2.46,1.0,,12.53,13.245,94.26
2025-08-15T02:49:34.793Z,13,GR86-024-41,61.0,-0.476,0.85,2.45,1.0,,12.835,13.43,
2025-08-15T02:49:34.836Z,13,GR86-024-41,65.8,-0.482,0.906,2.45,1.0,,13.245,13.825,
2025-08-15T02:49:34.880Z,13,GR86-024-41,67.60000000000001,-0.478,0.888,2.46,1.0,,10.375,11.065,
2025-08-15T02:49:34.924Z,13,GR86-024-41,67.7,-0.412,0.981,2.45,1.0,6236.0,4.15,4.6850000000000005,
2025-08-15T02:49:34.967Z,13,GR86-024-41,68.8,-0.237,1.044,2.45,1.0,,0.0,0.0,88.79
2025-08-15T02:49:35.011Z,13,GR86-024-41,72.4,-0.208,0.992,2.47,1.0,,0.0,0.0,
2025-08-15T02:49:35.054Z,13,GR86-024-41,77.2,-0.21,1.03,2.45,1.0,,0.0,0.0,
2025-08-15T02:49:35.097Z,13,GR86-024-41,82.0,-0.219,1.051,2.47,1.0,,0.0,0.0,
2025-08-15T02:49:35.141Z,13,GR86-024-41,88.30000000000001,-0.197,1.105,2.45,1.0,6015.0,0.0,0.0,
2025-08-15T02:49:35.184Z,13,GR86-024-41,89.80000000000001,-0.19,1.144,2.45,1.0,,0.0,0.0,82.63
2025-08-15T02:49:35.227Z,13,GR86-024-41,90.1,-0.194,1.134,2.45,1.0,,0.0,0.0,
2025-08-15T02:49:35.270Z,13,GR86-024-41,90.2,-0.261,1.33,2.46,1.0,,0.0,0.0,
2025-08-15T02:49:35.313Z,13,GR86-024-41,90.2,-0.181,1.107,2.46,1.0,,0.0,0.0,
2025-08-15T02:49:35.356Z,13,GR86-024-41,89.7,-0.313,1.285,2.45,1.0,5792.0,0.0,0.0,
2025-08-15T02:49:35.399Z,13,GR86-024-41,86.2,-0.269,1.411,2.46,1.0,,0.0,0.0,80.92
2025-08-15T02:49:35.444Z,13,GR86-024-41,85.2,-0.105,0.987,2.46,1.0,,0.0,0.0,
2025-08-15T02:49:35.487Z,13,GR86-024-41,85.10000000000001,-0.187,1.077,2.45,1.0,,0.0,0.0,
2025-08-15T02:49:35.530Z,13,GR86-024-41,85.10000000000001,-0.234,1.241,2.45,1.0,,0.0,0.0,
2025-08-15T02:49:35.573Z,13,GR86-024-41,85.10000000000001,-0.169,1.116,2.47,1.0,5729.0,0.0,0.0,
2025-08-15T02:49:35.616Z,13,GR86-024-41,85.10000000000001,-0.155,1.168,2.46,1.0,,0.0,0.0,79.9
2025-08-15T02:49:35.659Z,13,GR86-024-41,84.2,-0.213,1.153,4.38,1.0,,0.0,0.0,
2025-08-15T02:49:35.702Z,13,GR86-024-41,80.2,-0.307,1.128,17.46,1.0,,0.0,0.0,
2025-08-15T02:49:35.745Z,13,GR86-024-41,73.0,-0.222,1.077,19.24,1.0,,0.0,0.0,
2025-08-15T02:49:35.788Z,13,GR86-024-41,68.3,-0.271,1.389,20.2,1.0,5474.0,0.0,0.0,
2025-08-15T02:49:35.831Z,13,GR86-024-41,68.2,-0.174,1.34,21.08,1.0,,0.0,0.0,78.36
2025-08-15T02:49:35.874Z,13,GR86-024-41,70.9,-0.122,1.366,27.9,1.0,,0.0,0.0,
2025-08-15T02:49:35.918Z,13,GR86-024-41,76.3,-0.06,1.249,32.11,1.0,,0.0,0.0,
2025-08-15T02:49:35.961Z,13,GR86-024-41,83.9,0.002,1.278,38.37,1.0,,0.0,0.0,
2025-08-15T02:49:36.004Z,13,GR86-024-41,86.60000000000001,0.16,1.37,44.0,1.0,5386.0,0.0,0.0,
2025-08-15T02:49:36.047Z,13,GR86-024-41,88.9,0.226,1.188,49.57,1.0,,0.0,0.0,76.83
2025-08-15T02:49:36.090Z,13,GR86-024-41,90.9,0.34,1.325,55.67,1.0,,0.0,0.0,
2025-08-15T02:49:36.133Z,13,GR86-024-41,92.5,0.348,1.145,70.63,1.0,,0.0,0.0,
2025-08-15T02:49:36.176Z,13,GR86-024-41,93.5,0.312,1.215,88.04,1.0,,0.0,0.0,
2025-08-15T02:49:36.219Z,13,GR86-024-41,93.7,0.291,1.212,99.65,1.0,5835.0,0.0,0.0,
2025-08-15T02:49:36.262Z,13,GR86-024-41,93.7,0.309,1.2,99.78,1.0,,0.0,0.0,75.79
2025-08-15T02:49:36.305Z,13,GR86-024-41,93.6,0.267,1.2,99.78,1.0,,0.0,0.0,
2025-08-15T02:49:36.348Z,13,GR86-024-41,91.0,0.264,1.23,99.79,1.0,,0.0,0.0,
2025-08-15T02:49:36.391Z,13,GR86-024-41,85.60000000000001,0.257,1.247,99.77,1.0,,0.0,0.0,
2025-08-15T02:49:36.434Z,13,GR86-024-41,77.9,0.271,1.226,99.78,1.0,5825.0,0.0,0.0,
2025-08-15T02:49:36.477Z,13,GR86-024-41,69.5,0.281,1.213,99.8,1.0,,0.0,0.0,75.51
2025-08-15T02:49:36.520Z,13,GR86-024-41,57.8,0.334,1.186,99.8,1.0,,0.0,0.0,
2025-08-15T02:49:36.563Z,13,GR86-024-41,50.1,0.321,1.158,99.77,1.0,,0.0,0.0,
2025-08-15T02:49:36.607Z,13,GR86-024-41,42.900000000000006,0.291,1.085,99.79,1.0,,0.0,0.0,
2025-08-15T02:49:36.650Z,13,GR86-024-41,39.1,0.304,1.068,99.8,1.0,5990.0,0.0,0.0,
2025-08-15T02:49:36.693Z,13,GR86-024-41,38.2,0.31,1.059,99.79,1.0,,0.0,0.0,77.06
2025-08-15T02:49:36.736Z,13,GR86-024-41,38.2,0.338,1.089,99.79,1.0,,0.0,0.0,
2025-08-15T02:49:36.781Z,13,GR86-024-41,37.9,0.326,1.028,99.8,1.0,,0.0,0.0,
2025-08-15T02:49:36.824Z,13,GR86-024-41,37.8,0.353,1.068,99.81,1.0,,0.0,0.0,
2025-08-15T02:49:36.867Z,13,GR86-024-41,41.6,0.35,1.058,99.83,1.0,6130.0,0.0,0.0,
2025-08-15T02:49:36.910Z,13,GR86-024-41,45.900000000000006,0.359,1.055,99.82,1.0,,0.0,0.0,79.24
2025-08-15T02:49:36.953Z,13,GR86-024-41,48.3,0.307,1.062,99.81,1.0,,0.0,0.0,
2025-08-15T02:49:36.996Z,13,GR86-024-41,50.1,0.321,1.119,99.81,1.0,,0.0,0.0,
2025-08-15T02:49:37.039Z,13,GR86-024-41,55.1,0.338,1.09,99.81,1.0,,0.0,0.0,
2025-08-15T02:49:37.083Z,13,GR86-024-41,57.8,0.338,1.105,99.83,1.0,6298.0,0.0,0.0,
2025-08-15T02:49:37.126Z,13,GR86-024-41,59.0,0.337,1.092,99.81,1.0,,0.0,0.0,80.93
2025-08-15T02:49:37.169Z,13,GR86-024-41,59.0,0.37,1.073,99.81,1.0,,0.0,0.0,
2025-08-15T02:49:37.212Z,13,GR86-024-41,59.0,0.314,0.979,99.82,1.0,,0.0,0.0,
2025-08-15T02:49:37.255Z,13,GR86-024-41,59.1,0.298,0.977,99.81,1.0,,0.0,0.0,
2025-08-15T02:49:37.298Z,13,GR86-024-41,59.8,0.303,0.6950000000000001,99.81,1.0,6380.0,0.0,0.0,
2025-08-15T02:49:37.341Z,13,GR86-024-41,60.2,0.341,0.8230000000000001,99.83,1.0,,0.0,0.0,82.84
2025-08-15T02:49:37.384Z,13,GR86-024-41,59.5,0.253,0.508,99.82,1.0,,0.0,0.0,
2025-08-15T02:49:37.427Z,13,GR86-024-41,56.6,0.177,0.84,99.82,1.0,,0.0,0.0,
2025-08-15T02:49:37.470Z,13,GR86-024-41,50.400000000000006,0.4,0.8320000000000001,99.83,1.0,,0.0,0.0,
2025-08-15T02:49:37.513Z,13,GR86-024-41,41.3,0.238,0.463,99.82,1.0,6475.0,0.0,0.0,
2025-08-15T02:49:37.556Z,13,GR86-024-41,32.800000000000004,0.152,0.409,99.78,1.0,,0.0,0.0,85.04
2025-08-15T02:49:37.599Z,13,GR86-024-41,24.5,0.47,0.548,99.82,1.0,,0.0,0.0,
2025-08-15T02:49:37.642Z,13,GR86-024-41,22.4,0.207,0.223,99.84,1.0,,0.0,0.0,
2025-08-15T02:49:37.685Z,13,GR86-024-41,19.3,0.022,0.5,99.83,1.0,,0.0,0.0,
2025-08-15T02:49:37.728Z,13,GR86-024-41,15.7,0.285,0.8210000000000001,99.81,1.0,6660.0,0.0,0.0,
2025-08-15T02:49:37.771Z,13,GR86-024-41,14.3,0.722,0.529,99.81,1.0,,0.0,0.0,87.07000000000001
2025-08-15T02:49:37.814Z,13,GR86-024-41,13.8,0.415,0.363,99.83,1.0,,0.0,0.0,
2025-08-15T02:49:37.857Z,13,GR86-024-41,13.3,0.099,0.648,99.86,1.0,,0.0,0.0,
2025-08-15T02:49:37.900Z,13,GR86-024-41,12.8,0.593,0.934,99.83,1.0,,0.0,0.0,
2025-08-15T02:49:37.943Z,13,GR86-024-41,12.5,0.255,1.016,99.84,1.0,7000.0,0.0,0.0,
2025-08-15T02:49:37.986Z,13,GR86-024-41,11.0,0.039,0.799,99.81,1.0,,0.0,0.0,90.58
2025-08-15T02:49:38.029Z,13,GR86-024-41,8.8,0.312,0.987,99.85,1.0,,0.0,0.0,
2025-08-15T02:49:38.072Z,13,GR86-024-41,16.6,0.488,0.945,99.86,1.0,,0.0,0.0,
2025-08-15T02:49:38.115Z,13,GR86-024-41,26.8,0.577,0.873,99.84,1.0,,0.0,0.0,
2025-08-15T02:49:38.158Z,13,GR86-024-41,30.3,0.63,0.761,99.86,1.0,7158.0,0.0,0.0,
2025-08-15T02:49:38.201Z,13,GR86-024-41,28.8,0.363,0.615,99.81,1.0,,0.0,0.0,92.65
2025-08-15T02:49:38.244Z,13,GR86-024-41,27.8,0.155,0.514,99.81,2.0,,0.0,0.0,
2025-08-15T02:49:38.287Z,13,GR86-024-41,26.4,-0.03,0.58,99.84,2.0,,0.0,0.0,
2025-08-15T02:49:38.330Z,13,GR86-024-41,25.700000000000003,0.507,0.279,99.83,2.0,,0.0,0.0,
2025-08-15T02:49:38.376Z,13,GR86-024-41,24.0,0.309,0.203,99.84,2.0,7302.0,0.0,0.0,
2025-08-15T02:49:38.419Z,13,GR86-024-41,17.5,0.664,0.421,99.82,2.0,,0.0,0.0,94.31
2025-08-15T02:49:38.462Z,13,GR86-024-41,12.3,0.139,0.132,99.82,2.0,,0.0,0.0,
2025-08-15T02:49:38.505Z,13,GR86-024-41,11.3,0.036,0.248,99.84,2.0,,0.0,0.0,
2025-08-15T02:49:38.548Z,13,GR86-024-41,11.7,-0.215,0.166,99.83,2.0,,0.0,0.0,
2025-08-15T02:49:38.591Z,13,GR86-024-41,13.6,0.073,0.158,99.82,2.0,6078.0,0.0,0.0,
2025-08-15T02:49:38.634Z,13,GR86-024-41,13.3,0.154,0.194,99.82,2.0,,0.0,0.0,96.15
2025-08-15T02:49:38.677Z,13,GR86-024-41,9.1,0.084,0.144,99.83,2.0,,0.0,0.0,
2025-08-15T02:49:38.720Z,13,GR86-024-41,4.2,0.276,0.26,99.85,2.0,,0.0,0.0,
2025-08-15T02:49:38.763Z,13,GR86-024-41,3.8,0.447,0.173,99.83,2.0,,0.0,0.0,
2025-08-15T02:49:38.807Z,13,GR86-024-41,4.0,0.094,0.306,99.82,2.0,5850.0,0.0,0.0,
2025-08-15T02:49:38.850Z,13,GR86-024-41,3.9,0.082,0.173,99.83,2.0,,0.0,0.0,98.26
2025-08-15T02:49:38.893Z,13,GR86-024-41,3.7,0.133,0.151,99.83,2.0,,0.0,0.0,
2025-08-15T02:49:38.981Z,13,GR86-024-41,3.1,-0.159,-0.027,99.83,2.0,,0.0,0.0,
2025-08-15T02:49:39.024Z,13,GR86-024-41,1.4,-0.001,0.042,99.83,2.0,5987.0,0.0,0.0,
2025-08-15T02:49:39.067Z,13,GR86-024-41,0.0,0.308,-0.003,99.83,2.0,,0.0,0.0,100.39
2025-08-15T02:49:39.110Z,13,GR86-024-41,-0.6000000000000001,0.403,0.026,99.84,2.0,,0.0,0.0,
2025-08-15T02:49:39.153Z,13,GR86-024-41,-0.9,0.556,0.031,99.84,2.0,,0.0,0.0,
2025-08-15T02:49:39.196Z,13,GR86-024-41,-0.6000000000000001,0.462,-0.042,99.83,2.0,,0.0,0.0,
2025-08-15T02:49:39.239Z,13,GR86-024-41,0.8,0.083,0.013,99.83,2.0,6133.0,0.0,0.0,
2025-08-15T02:49:39.282Z,13,GR86-024-41,1.4,0.133,0.002,99.83,2.0,,0.0,0.0,102.11
2025-08-15T02:49:39.325Z,13,GR86-024-41,1.4,0.132,-0.003,99.84,2.0,,0.0,0.0,
2025-08-15T02:49:39.368Z,13,GR86-024-41,1.1,0.191,-0.035,99.82,2.0,,0.0,0.0,
2025-08-15T02:49:39.411Z,13,GR86-024-41,0.4,0.276,-0.06,99.83,2.0,,0.0,0.0,
2025-08-15T02:49:39.454Z,13,GR86-024-41,0.0,0.276,-0.084,99.84,2.0,6024.0,0.0,0.0,
2025-08-15T02:49:39.540Z,13,GR86-024-41,0.8,0.205,-0.175,99.84,2.0,,0.0,0.0,103.64
2025-08-15T02:49:39.584Z,13,GR86-024-41,1.9,0.171,-0.088,99.82,2.0,,0.0,0.0,
2025-08-15T02:49:39.627Z,13,GR86-024-41,2.8000000000000003,0.24,-0.042,99.82,2.0,,0.0,0.0,
2025-08-15T02:49:39.670Z,13,GR86-024-41,3.1,0.207,-0.081,99.84,2.0,6256.0,0.0,0.0,
2025-08-15T02:49:39.713Z,13,GR86-024-41,3.1,0.201,-0.044,99.83,2.0,,0.0,0.0,105.62
2025-08-15T02:49:39.756Z,13,GR86-024-41,3.0,0.142,-0.079,99.84,2.0,,0.0,0.0,
2025-08-15T02:49:39.799Z,13,GR86-024-41,3.1,0.337,-0.105,99.83,2.0,,0.0,0.0,
2025-08-15T02:49:39.842Z,13,GR86-024-41,3.1,0.327,-0.069,99.83,2.0,,0.0,0.0,
2025-08-15T02:49:39.886Z,13,GR86-024-41,3.1,0.378,-0.019,99.83,2.0,6245.0,0.0,0.0,
2025-08-15T02:49:39.929Z,13,GR86-024-41,3.2,0.294,-0.068,99.83,2.0,,0.0,0.0,107.28
2025-08-15T02:49:39.972Z,13,GR86-024-41,3.2,0.283,0.032,99.84,2.0,,0.0,0.0,
2025-08-15T02:49:40.015Z,13,GR86-024-41,3.2,0.29,0.015,99.83,2.0,,0.0,0.0,
2025-08-15T02:49:40.059Z,13,GR86-024-41,3.2,0.295,-0.008,99.82,2.0,,0.0,0.0,
2025-08-15T02:49:40.102Z,13,GR86-024-41,3.2,0.288,-0.007,99.84,2.0,6377.0,0.0,0.0,
2025-08-15T02:49:40.145Z,13,GR86-024-41,3.2,0.241,-0.001,99.82,2.0,,0.0,0.0,108.91
2025-08-15T02:49:40.188Z,13,GR86-024-41,3.1,0.228,-0.013,99.82,2.0,,0.0,0.0,
2025-08-15T02:49:40.231Z,13,GR86-024-41,3.1,0.268,0.032,99.84,2.0,,0.0,0.0,
2025-08-15T02:49:40.274Z,13,GR86-024-41,3.1,0.289,0.074,99.84,2.0,,0.0,0.0,
2025-08-15T02:49:40.317Z,13,GR86-024-41,3.2,0.276,0.059,99.83,2.0,6422.0,0.0,0.0,
2025-08-15T02:49:40.360Z,13,GR86-024-41,3.1,0.244,0.073,99.82,2.0,,0.0,0.0,110.44
2025-08-15T02:49:40.403Z,13,GR86-024-41,2.4000000000000004,0.252,0.073,99.83,2.0,,0.0,0.0,
2025-08-15T02:49:40.489Z,13,GR86-024-41,0.4,0.287,0.035,99.84,2.0,,0.0,0.0,
2025-08-15T02:49:40.532Z,13,GR86-024-41,0.3,0.278,0.022,99.85,2.0,6491.0,0.0,0.0,
2025-08-15T02:49:40.575Z,13,GR86-024-41,0.2,0.257,-0.013,99.84,2.0,,0.0,0.0,111.92
2025-08-15T02:49:40.618Z,13,GR86-024-41,0.2,0.264,0.016,99.84,2.0,,0.0,0.0,
2025-08-15T02:49:40.661Z,13,GR86-024-41,0.2,0.265,-0.024,99.83,2.0,,0.0,0.0,
2025-08-15T02:49:40.704Z,13,GR86-024-41,0.1,0.265,-0.054,99.84,2.0,,0.0,0.0,
2025-08-15T02:49:40.747Z,13,GR86-024-41,0.0,0.268,-0.05,99.84,2.0,6555.0,0.0,0.0,
2025-08-15T02:49:40.790Z,13,GR86-024-41,-0.3,0.271,-0.022,99.85,2.0,,0.0,0.0,114.98
2025-08-15T02:49:40.833Z,13,GR86-024-41,-0.5,0.258,-0.029,99.84,2.0,,0.0,0.0,
2025-08-15T02:49:40.876Z,13,GR86-024-41,-0.8,0.264,-0.045,99.84,2.0,,0.0,0.0,
2025-08-15T02:49:40.962Z,13,GR86-024-41,-1.9,0.261,-0.049,99.84,2.0,6633.0,0.0,0.0,
2025-08-15T02:49:41.005Z,13,GR86-024-41,-2.0,0.25,-0.073,99.82,2.0,,0.0,0.0,116.43
2025-08-15T02:49:41.048Z,13,GR86-024-41,-2.0,0.287,-0.075,99.83,2.0,,0.0,0.0,
2025-08-15T02:49:41.134Z,13,GR86-024-41,-2.0,0.238,-0.086,99.82,2.0,,0.0,0.0,
2025-08-15T02:49:41.177Z,13,GR86-024-41,-2.0,0.276,-0.069,99.81,2.0,6729.0,0.0,0.0,
2025-08-15T02:49:41.220Z,13,GR86-024-41,-2.0,0.281,-0.063,99.85,2.0,,0.0,0.0,117.78
2025-08-15T02:49:41.263Z,13,GR86-024-41,-1.9,0.262,-0.063,99.82,2.0,,0.0,0.0,
2025-08-15T02:49:41.306Z,13,GR86-024-41,-2.0,0.252,-0.08,99.82,2.0,,0.0,0.0,
2025-08-15T02:49:41.349Z,13,GR86-024-41,-2.0,0.272,-0.062,99.85,2.0,,0.0,0.0,
2025-08-15T02:49:41.392Z,13,GR86-024-41,-2.0,0.242,-0.064,99.83,2.0,6887.0,0.0,0.0,
2025-08-15T02:49:41.478Z,13,GR86-024-41,-1.9,0.277,-0.058,99.83,2.0,,0.0,0.0,119.01
2025-08-15T02:49:41.521Z,13,GR86-024-41,-1.9,0.278,-0.075,99.82,2.0,,0.0,0.0,
2025-08-15T02:49:41.607Z,13,GR86-024-41,-1.9,0.247,-0.079,99.83,2.0,6951.0,0.0,0.0,
2025-08-15T02:49:41.650Z,13,GR86-024-41,-1.9,0.27,-0.08,99.85,2.0,,0.0,0.0,120.18
2025-08-15T02:49:41.693Z,13,GR86-024-41,-1.8,0.237,-0.08,99.84,2.0,,0.0,0.0,
2025-08-15T02:49:41.736Z,13,GR86-024-41,-1.8,0.242,-0.094,99.86,2.0,,0.0,0.0,
2025-08-15T02:49:41.781Z,13,GR86-024-41,-1.8,0.251,-0.097,99.84,2.0,,0.0,0.0,
2025-08-15T02:49:41.824Z,13,GR86-024-41,-1.7000000000000002,0.271,-0.065,99.84,2.0,7013.0,0.0,0.0,
2025-08-15T02:49:41.910Z,13,GR86-024-41,-1.7000000000000002,0.244,-0.067,99.84,2.0,,0.0,0.0,121.36
2025-08-15T02:49:41.954Z,13,GR86-024-41,-1.6,0.268,-0.047,99.85,2.0,,0.0,0.0,
2025-08-15T02:49:42.041Z,13,GR86-024-41,-1.6,0.256,-0.028,99.82,2.0,7095.0,0.0,0.0,
2025-08-15T02:49:42.084Z,13,GR86-024-41,-1.6,0.23,-0.042,99.83,2.0,,0.0,0.0,122.51
2025-08-15T02:49:42.127Z,13,GR86-024-41,-1.6,0.266,-0.04,99.84,2.0,,0.0,0.0,
2025-08-15T02:49:42.170Z,13,GR86-024-41,-1.6,0.268,-0.038,99.83,2.0,,0.0,0.0,
2025-08-15T02:49:42.213Z,13,GR86-024-41,-1.6,0.228,-0.044,99.84,2.0,,0.0,0.0,
2025-08-15T02:49:42.256Z,13,GR86-024-41,-1.6,0.235,-0.057,99.86,2.0,7132.0,0.0,0.0,
2025-08-15T02:49:42.299Z,13,GR86-024-41,-1.5,0.248,-0.057,99.84,2.0,,0.0,0.0,123.66
2025-08-15T02:49:42.344Z,13,GR86-024-41,-1.4,0.276,-0.041,99.85,2.0,,0.0,0.0,
2025-08-15T02:49:42.387Z,13,GR86-024-41,-1.2000000000000002,0.236,-0.048,99.82,2.0,,0.0,0.0,
2025-08-15T02:49:42.430Z,13,GR86-024-41,-1.2000000000000002,0.229,-0.035,99.85,2.0,,0.0,0.0,
2025-08-15T02:49:42.473Z,13,GR86-024-41,-1.1,0.242,-0.018,99.83,2.0,7197.0,0.0,0.0,
2025-08-15T02:49:42.516Z,13,GR86-024-41,-1.1,0.211,-0.039,99.82,2.0,,0.0,0.0,124.75
2025-08-15T02:49:42.559Z,13,GR86-024-41,-1.0,-0.121,0.026,99.85,3.0,,0.0,0.0,
2025-08-15T02:49:42.602Z,13,GR86-024-41,-0.2,0.556,-0.014,99.85,3.0,,0.0,0.0,
2025-08-15T02:49:42.645Z,13,GR86-024-41,0.9,0.387,-0.066,99.84,3.0,,0.0,0.0,
2025-08-15T02:49:42.688Z,13,GR86-024-41,0.9,0.439,0.035,99.84,3.0,7252.0,0.0,0.0,
2025-08-15T02:49:42.731Z,13,GR86-024-41,1.0,0.121,0.005,99.83,3.0,,0.0,0.0,125.86
2025-08-15T02:49:42.774Z,13,GR86-024-41,1.0,0.058,-0.023,99.84,3.0,,0.0,0.0,
2025-08-15T02:49:42.817Z,13,GR86-024-41,1.0,0.158,0.057,99.84,3.0,,0.0,0.0,
2025-08-15T02:49:42.860Z,13,GR86-024-41,1.0,0.27,0.005,99.84,3.0,,0.0,0.0,
2025-08-15T02:49:42.903Z,13,GR86-024-41,1.0,0.239,0.044,99.86,3.0,6806.0,0.0,0.0,
2025-08-15T02:49:42.946Z,13,GR86-024-41,1.0,0.163,0.016,99.85,3.0,,0.0,0.0,126.84
2025-08-15T02:49:42.989Z,13,GR86-024-41,1.0,0.17,0.028,99.84,3.0,,0.0,0.0,
2025-08-15T02:49:43.032Z,13,GR86-024-41,1.0,0.213,0.037,99.84,3.0,,0.0,0.0,
2025-08-15T02:49:43.076Z,13,GR86-024-41,1.0,0.233,0.007,99.83,3.0,,0.0,0.0,
2025-08-15T02:49:43.119Z,13,GR86-024-41,1.0,0.224,0.028,99.6,3.0,6013.0,0.0,0.0,
2025-08-15T02:49:43.162Z,13,GR86-024-41,1.1,0.176,0.042,56.47,3.0,,0.0,0.0,127.79
2025-08-15T02:49:43.205Z,13,GR86-024-41,1.3,0.197,0.062,35.82,3.0,,0.0,0.0,
2025-08-15T02:49:43.291Z,13,GR86-024-41,1.9,0.181,0.05,6.2700000000000005,3.0,,6.575,6.6850000000000005,
2025-08-15T02:49:43.377Z,13,GR86-024-41,2.0,0.071,0.062,5.19,3.0,6030.0,10.745,10.775,128.72
2025-08-15T02:49:43.420Z,13,GR86-024-41,2.8000000000000003,-0.335,0.097,4.51,3.0,,26.11,25.835,
2025-08-15T02:49:43.463Z,13,GR86-024-41,4.3,-0.5720000000000001,0.038,4.2700000000000005,3.0,,31.68,31.39,
2025-08-15T02:49:43.506Z,13,GR86-024-41,5.5,-0.604,0.113,4.01,3.0,,35.89,35.555,
2025-08-15T02:49:43.550Z,13,GR86-024-41,6.6000000000000005,-0.641,0.125,3.64,3.0,6067.0,38.15,37.77,
2025-08-15T02:49:43.593Z,13,GR86-024-41,7.800000000000001,-0.654,0.121,3.04,3.0,,39.875,39.525,130.25
2025-08-15T02:49:43.636Z,13,GR86-024-41,9.5,-0.762,0.178,2.84,3.0,,41.49,41.215,
2025-08-15T02:49:43.681Z,13,GR86-024-41,12.4,-0.8170000000000001,0.196,2.63,3.0,,43.49,43.26,
2025-08-15T02:49:43.724Z,13,GR86-024-41,14.9,-0.8320000000000001,0.269,2.57,3.0,,45.0,44.47,
2025-08-15T02:49:43.767Z,13,GR86-024-41,16.8,-0.869,0.312,2.5500000000000003,3.0,5819.0,45.75,45.4,
2025-08-15T02:49:43.810Z,13,GR86-024-41,18.3,-0.907,0.369,2.48,3.0,,45.78,45.72,127.31
2025-08-15T02:49:43.853Z,13,GR86-024-41,18.7,-0.919,0.412,2.48,3.0,,45.72,45.75,
2025-08-15T02:49:43.896Z,13,GR86-024-41,18.7,-0.886,0.467,14.35,3.0,,45.335,45.4,
2025-08-15T02:49:43.939Z,13,GR86-024-41,18.4,-0.882,0.483,79.68,3.0,,44.68,45.065,
2025-08-15T02:49:43.983Z,13,GR86-024-41,17.1,-0.914,0.482,86.7,2.0,5266.0,43.23,44.255,
2025-08-15T02:49:44.026Z,13,GR86-024-41,14.4,-1.017,0.376,16.77,2.0,,40.775,42.18,121.77
2025-08-15T02:49:44.069Z,13,GR86-024-41,11.9,-0.918,0.428,2.69,2.0,,38.96,40.3,
2025-08-15T02:49:44.112Z,13,GR86-024-41,11.7,-0.893,0.541,2.64,2.0,,35.86,36.58,
2025-08-15T02:49:44.155Z,13,GR86-024-41,11.8,-0.913,0.465,2.61,2.0,,33.8,34.81,
2025-08-15T02:49:44.199Z,13,GR86-024-41,17.6,-0.6990000000000001,0.665,2.59,2.0,4963.0,30.49,31.115,
2025-08-15T02:49:44.242Z,13,GR86-024-41,19.6,-0.8160000000000001,0.775,2.58,2.0,,27.5,27.68,116.84
2025-08-15T02:49:44.285Z,13,GR86-024-41,19.6,-0.606,0.904,2.58,2.0,,24.17,24.735,
2025-08-15T02:49:44.328Z,13,GR86-024-41,20.200000000000003,-0.525,0.797,2.57,2.0,,17.745,18.435,
2025-08-15T02:49:44.371Z,13,GR86-024-41,24.3,-0.416,0.924,2.58,2.0,,9.43,10.18,
2025-08-15T02:49:44.414Z,13,GR86-024-41,29.4,-0.326,1.038,2.57,2.0,5725.0,2.455,2.885,
2025-08-15T02:49:44.457Z,13,GR86-024-41,34.9,-0.317,1.018,2.57,2.0,,0.0,0.0,110.7
2025-08-15T02:49:44.500Z,13,GR86-024-41,43.7,-0.16,1.099,2.5500000000000003,2.0,,0.0,0.0,
2025-08-15T02:49:44.543Z,13,GR86-024-41,46.7,-0.168,1.064,2.5500000000000003,2.0,,0.0,0.0,
2025-08-15T02:49:44.586Z,13,GR86-024-41,47.1,-0.202,1.128,2.5500000000000003,2.0,,0.0,0.0,
2025-08-15T02:49:44.629Z,13,GR86-024-41,47.0,-0.186,1.096,2.5500000000000003,2.0,5542.0,0.0,0.0,
2025-08-15T02:49:44.672Z,13,GR86-024-41,47.0,-0.192,1.051,2.54,2.0,,0.0,0.0,105.3
2025-08-15T02:49:44.716Z,13,GR86-024-41,47.0,-0.151,1.062,2.54,2.0,,0.0,0.0,
2025-08-15T02:49:44.804Z,13,GR86-024-41,46.7,-0.167,1.064,2.53,2.0,,0.0,0.0,
2025-08-15T02:49:44.847Z,13,GR86-024-41,46.6,-0.155,1.113,2.53,2.0,5556.0,0.0,0.0,
2025-08-15T02:49:44.891Z,13,GR86-024-41,46.900000000000006,-0.207,1.156,2.54,2.0,,0.0,0.0,102.91
2025-08-15T02:49:44.934Z,13,GR86-024-41,47.8,-0.152,1.13,2.52,2.0,,0.0,0.0,
2025-08-15T02:49:44.978Z,13,GR86-024-41,50.0,-0.204,1.167,2.53,2.0,,0.0,0.0,
2025-08-15T02:49:45.021Z,13,GR86-024-41,53.0,-0.17,1.181,2.51,2.0,,0.0,0.0,
2025-08-15T02:49:45.064Z,13,GR86-024-41,54.0,-0.149,1.145,2.51,2.0,5539.0,0.0,0.0,
2025-08-15T02:49:45.108Z,13,GR86-024-41,54.3,-0.184,1.169,2.54,2.0,,0.0,0.0,100.96
2025-08-15T02:49:45.151Z,13,GR86-024-41,54.3,-0.155,1.185,2.67,2.0,,0.0,0.0,
2025-08-15T02:49:45.194Z,13,GR86-024-41,54.400000000000006,-0.186,1.213,3.48,2.0,,0.0,0.0,
2025-08-15T02:49:45.281Z,13,GR86-024-41,54.6,-0.149,1.187,4.36,2.0,5463.0,0.0,0.0,
2025-08-15T02:49:45.324Z,13,GR86-024-41,54.7,-0.182,1.212,19.8,2.0,,0.0,0.0,99.65
2025-08-15T02:49:45.367Z,13,GR86-024-41,54.7,-0.166,1.222,20.31,2.0,,0.0,0.0,
2025-08-15T02:49:45.410Z,13,GR86-024-41,54.6,-0.144,1.233,20.73,2.0,,0.0,0.0,
2025-08-15T02:49:45.453Z,13,GR86-024-41,54.6,-0.115,1.199,23.66,2.0,,0.0,0.0,
2025-08-15T02:49:45.496Z,13,GR86-024-41,54.6,-0.104,1.208,25.98,2.0,5380.0,0.0,0.0,
2025-08-15T02:49:45.539Z,13,GR86-024-41,55.900000000000006,-0.068,1.244,29.8,2.0,,0.0,0.0,98.26
2025-08-15T02:49:45.582Z,13,GR86-024-41,57.5,0.1,1.127,29.84,2.0,,0.0,0.0,
2025-08-15T02:49:45.668Z,13,GR86-024-41,60.2,0.143,1.136,30.22,2.0,,0.0,0.0,
2025-08-15T02:49:45.711Z,13,GR86-024-41,64.4,0.188,1.393,35.92,2.0,5349.0,0.0,0.0,
2025-08-15T02:49:45.754Z,13,GR86-024-41,65.4,0.321,1.129,36.82,2.0,,0.0,0.0,96.97
2025-08-15T02:49:45.797Z,13,GR86-024-41,65.10000000000001,0.008,1.197,40.15,2.0,,0.0,0.0,
2025-08-15T02:49:45.884Z,13,GR86-024-41,63.900000000000006,0.296,1.152,49.31,2.0,,0.0,0.0,
2025-08-15T02:49:45.927Z,13,GR86-024-41,62.6,-0.01,1.28,53.96,2.0,5635.0,0.0,0.0,
2025-08-15T02:49:45.970Z,13,GR86-024-41,62.900000000000006,0.301,1.137,58.88,2.0,,0.0,0.0,95.7
2025-08-15T02:49:46.013Z,13,GR86-024-41,63.2,0.535,1.11,65.03,2.0,,0.0,0.0,
2025-08-15T02:49:46.056Z,13,GR86-024-41,62.8,0.209,1.062,69.38,2.0,,0.0,0.0,
2025-08-15T02:49:46.099Z,13,GR86-024-41,60.900000000000006,0.3,1.073,71.59,2.0,,0.0,0.0,
2025-08-15T02:49:46.142Z,13,GR86-024-41,58.2,0.174,1.129,69.52,2.0,5622.0,0.0,0.0,
2025-08-15T02:49:46.186Z,13,GR86-024-41,55.400000000000006,-0.08,1.081,68.87,2.0,,0.0,0.0,96.02
2025-08-15T02:49:46.229Z,13,GR86-024-41,54.1,0.092,1.09,68.94,2.0,,0.0,0.0,
2025-08-15T02:49:46.315Z,13,GR86-024-41,52.0,0.361,1.077,69.95,2.0,,0.0,0.0,
2025-08-15T02:49:46.358Z,13,GR86-024-41,44.5,0.193,1.318,71.24,2.0,5712.0,0.0,0.0,
2025-08-15T02:49:46.401Z,13,GR86-024-41,41.900000000000006,0.181,1.25,71.48,2.0,,0.0,0.0,96.88
2025-08-15T02:49:46.444Z,13,GR86-024-41,41.3,0.233,1.183,88.55,2.0,,0.0,0.0,
2025-08-15T02:49:46.530Z,13,GR86-024-41,41.1,0.253,1.162,99.68,2.0,,0.0,0.0,
2025-08-15T02:49:46.617Z,13,GR86-024-41,36.7,0.204,1.073,99.79,2.0,5859.0,0.0,0.0,98.35
2025-08-15T02:49:46.660Z,13,GR86-024-41,38.2,0.249,1.098,99.82,2.0,,0.0,0.0,
2025-08-15T02:49:46.746Z,13,GR86-024-41,49.2,0.276,1.066,99.82,2.0,,0.0,0.0,
2025-08-15T02:49:46.789Z,13,GR86-024-41,53.6,0.259,1.035,99.82,2.0,5892.0,0.0,0.0,
2025-08-15T02:49:46.832Z,13,GR86-024-41,56.8,0.183,1.054,99.82,2.0,,0.0,0.0,99.94
2025-08-15T02:49:46.875Z,13,GR86-024-41,58.3,0.242,1.078,99.83,2.0,,0.0,0.0,
2025-08-15T02:49:46.961Z,13,GR86-024-41,58.2,0.206,1.048,99.81,2.0,,0.0,0.0,
2025-08-15T02:49:47.047Z,13,GR86-024-41,57.8,0.226,1.079,99.81,2.0,5946.0,0.0,0.0,101.2
2025-08-15T02:49:47.090Z,13,GR86-024-41,56.400000000000006,0.244,1.181,99.83,2.0,,0.0,0.0,
2025-08-15T02:49:47.133Z,13,GR86-024-41,55.7,0.237,1.205,99.82,2.0,,0.0,0.0,
2025-08-15T02:49:47.219Z,13,GR86-024-41,55.5,0.224,1.212,99.82,2.0,6078.0,0.0,0.0,
2025-08-15T02:49:47.262Z,13,GR86-024-41,55.400000000000006,0.222,1.187,99.83,2.0,,0.0,0.0,102.61
2025-08-15T02:49:47.305Z,13,GR86-024-41,55.400000000000006,0.211,1.164,99.83,2.0,,0.0,0.0,
2025-08-15T02:49:47.348Z,13,GR86-024-41,55.2,0.162,1.168,99.86,2.0,,0.0,0.0,
2025-08-15T02:49:47.391Z,13,GR86-024-41,54.2,0.138,1.375,99.83,2.0,,0.0,0.0,
2025-08-15T02:49:47.434Z,13,GR86-024-41,54.0,0.322,1.121,99.82,2.0,6149.0,0.0,0.0,
2025-08-15T02:49:47.477Z,13,GR86-024-41,53.900000000000006,0.396,0.7020000000000001,99.83,2.0,,0.0,0.0,104.61
2025-08-15T02:49:47.520Z,13,GR86-024-41,50.8,0.192,0.972,99.83,2.0,,0.0,0.0,
2025-08-15T02:49:47.563Z,13,GR86-024-41,42.0,0.243,1.156,99.82,2.0,,0.0,0.0,
2025-08-15T02:49:47.606Z,13,GR86-024-41,31.9,0.187,1.19,99.83,2.0,,0.0,0.0,
2025-08-15T02:49:47.650Z,13,GR86-024-41,20.200000000000003,0.169,1.218,99.82,2.0,6278.0,0.0,0.0,
2025-08-15T02:49:47.693Z,13,GR86-024-41,9.9,0.347,1.082,99.83,2.0,,0.0,0.0,105.95
2025-08-15T02:49:47.736Z,13,GR86-024-41,5.5,0.308,1.087,99.86,2.0,,0.0,0.0,
2025-08-15T02:49:47.781Z,13,GR86-024-41,6.1000000000000005,0.5660000000000001,1.076,99.84,2.0,,0.0,0.0,
2025-08-15T02:49:47.824Z,13,GR86-024-41,6.7,0.72,1.024,99.81,2.0,,0.0,0.0,
2025-08-15T02:49:47.867Z,13,GR86-024-41,3.0,0.561,1.017,99.83,2.0,6393.0,0.0,0.0,
2025-08-15T02:49:47.910Z,13,GR86-024-41,0.4,0.399,0.871,99.85,2.0,,0.0,0.0,106.62
2025-08-15T02:49:47.954Z,13,GR86-024-41,4.6000000000000005,0.23,0.8300000000000001,99.86,2.0,,0.0,0.0,
2025-08-15T02:49:47.997Z,13,GR86-024-41,16.3,0.214,0.809,99.85,2.0,,0.0,0.0,
2025-08-15T02:49:48.041Z,13,GR86-024-41,23.0,0.3,0.856,99.84,2.0,,0.0,0.0,
2025-08-15T02:49:48.084Z,13,GR86-024-41,22.700000000000003,0.242,1.111,99.85,2.0,6455.0,0.0,0.0,
2025-08-15T02:49:48.127Z,13,GR86-024-41,22.3,0.315,0.86,99.84,2.0,,0.0,0.0,109.03
2025-08-15T02:49:48.170Z,13,GR86-024-41,24.5,0.329,0.95,99.86,2.0,,0.0,0.0,
2025-08-15T02:49:48.213Z,13,GR86-024-41,27.4,0.227,0.637,99.86,2.0,,0.0,0.0,
2025-08-15T02:49:48.256Z,13,GR86-024-41,29.6,0.193,0.679,99.83,2.0,,0.0,0.0,
2025-08-15T02:49:48.299Z,13,GR86-024-41,29.5,0.26,0.508,99.87,2.0,6520.0,0.0,0.0,
2025-08-15T02:49:48.344Z,13,GR86-024-41,29.200000000000003,0.249,0.6940000000000001,99.84,2.0,,0.0,0.0,109.43
2025-08-15T02:49:48.387Z,13,GR86-024-41,28.6,0.35,0.784,99.86,2.0,,0.0,0.0,
2025-08-15T02:49:48.430Z,13,GR86-024-41,27.700000000000003,0.397,0.677,99.83,2.0,,0.0,0.0,
2025-08-15T02:49:48.473Z,13,GR86-024-41,25.3,0.386,0.667,99.84,2.0,,0.0,0.0,
2025-08-15T02:49:48.516Z,13,GR86-024-41,23.6,0.391,0.504,99.84,2.0,6461.0,0.0,0.0,
2025-08-15T02:49:48.602Z,13,GR86-024-41,14.6,0.162,0.385,99.86,2.0,,0.0,0.0,110.66
2025-08-15T02:49:48.645Z,13,GR86-024-41,10.4,0.277,0.663,99.85,2.0,,0.0,0.0,
2025-08-15T02:49:48.688Z,13,GR86-024-41,9.8,0.466,0.665,99.86,2.0,,0.0,0.0,
2025-08-15T02:49:48.774Z,13,GR86-024-41,14.0,0.225,0.472,99.87,2.0,6674.0,0.0,0.0,112.49
2025-08-15T02:49:48.817Z,13,GR86-024-41,17.5,0.134,0.433,99.85,2.0,,0.0,0.0,
2025-08-15T02:49:48.860Z,13,GR86-024-41,18.5,0.016,0.102,99.86,2.0,,0.0,0.0,
2025-08-15T02:49:48.904Z,13,GR86-024-41,17.3,-0.004,0.113,99.84,2.0,,0.0,0.0,
2025-08-15T02:49:48.947Z,13,GR86-024-41,13.1,0.298,0.115,99.85,2.0,6733.0,0.0,0.0,
