timestamp,lap,vehicle_id,steering_angle,accx_can,accy_can,ath,gear,nmot,pbrake_f,pbrake_r,speed
2025-08-15T01:18:26.906Z,9,GR86-049-88,3.6,0.064,-0.154,99.96,5.0,,0.0,0.0,184.72
2025-08-15T01:18:26.949Z,9,GR86-049-88,3.6,0.073,-0.053,99.96,5.0,,0.0,0.0,
2025-08-15T01:18:26.992Z,9,GR86-049-88,3.6,0.103,-0.031,99.96,5.0,,0.0,0.0,
2025-08-15T01:18:27.035Z,9,GR86-049-88,3.8,0.072,-0.052,99.96,5.0,,0.0,0.0,
2025-08-15T01:18:27.121Z,9,GR86-049-88,4.1000000000000005,0.163,-0.026,99.96,5.0,6221.0,0.0,0.0,186.12
2025-08-15T01:18:27.165Z,9,GR86-049-88,4.3,0.12,0.003,99.96,5.0,,0.0,0.0,
2025-08-15T01:18:27.208Z,9,GR86-049-88,4.4,0.161,0.018,99.96,5.0,,0.0,0.0,
2025-08-15T01:18:27.251Z,9,GR86-049-88,4.4,0.128,0.008,99.96,5.0,,0.0,0.0,
2025-08-15T01:18:27.294Z,9,GR86-049-88,4.5,0.139,0.017,99.97,5.0,6331.0,0.0,0.0,
2025-08-15T01:18:27.380Z,9,GR86-049-88,4.5,0.128,0.048,99.95,5.0,,0.0,0.0,186.89
2025-08-15T01:18:27.423Z,9,GR86-049-88,4.6000000000000005,0.085,0.021,99.96,5.0,,0.0,0.0,
2025-08-15T01:18:27.466Z,9,GR86-049-88,4.6000000000000005,0.102,0.015,99.95,5.0,,0.0,0.0,
2025-08-15T01:18:27.509Z,9,GR86-049-88,4.5,0.093,0.016,99.94,5.0,6374.0,0.0,0.0,
2025-08-15T01:18:27.552Z,9,GR86-049-88,4.3,0.114,0.043,99.96,5.0,,0.0,0.0,187.6
2025-08-15T01:18:27.595Z,9,GR86-049-88,4.1000000000000005,0.118,0.014,99.96,5.0,,0.0,0.0,
2025-08-15T01:18:27.639Z,9,GR86-049-88,3.7,0.091,0.007,99.96,5.0,,0.0,0.0,
2025-08-15T01:18:27.682Z,9,GR86-049-88,3.5,0.088,-0.008,99.96,5.0,,0.0,0.0,
2025-08-15T01:18:27.769Z,9,GR86-049-88,3.3000000000000003,0.069,-0.035,99.95,5.0,6414.0,0.0,0.0,188.31
2025-08-15T01:18:27.811Z,9,GR86-049-88,3.3000000000000003,0.067,-0.095,99.96,5.0,,0.0,0.0,
2025-08-15T01:18:27.855Z,9,GR86-049-88,3.1,0.071,-0.109,99.96,5.0,,0.0,0.0,
2025-08-15T01:18:27.900Z,9,GR86-049-88,3.1,0.121,-0.1,99.96,5.0,,0.0,0.0,
2025-08-15T01:18:27.943Z,9,GR86-049-88,3.1,0.124,-0.093,99.97,5.0,6429.0,0.0,0.0,
2025-08-15T01:18:27.986Z,9,GR86-049-88,3.2,0.092,-0.086,99.96,5.0,,0.0,0.0,188.97
2025-08-15T01:18:28.030Z,9,GR86-049-88,3.4000000000000004,0.087,-0.111,99.93,5.0,,0.0,0.0,
2025-08-15T01:18:28.073Z,9,GR86-049-88,3.5,0.069,-0.094,99.96,5.0,,0.0,0.0,
2025-08-15T01:18:28.116Z,9,GR86-049-88,3.6,0.063,-0.064,99.96,5.0,,0.0,0.0,
2025-08-15T01:18:28.160Z,9,GR86-049-88,3.6,0.125,-0.038,99.96,5.0,6466.0,0.0,0.0,
2025-08-15T01:18:28.202Z,9,GR86-049-88,3.6,0.109,-0.015,99.96,5.0,,0.0,0.0,189.73
2025-08-15T01:18:28.245Z,9,GR86-049-88,3.7,0.131,-0.008,99.96,5.0,,0.0,0.0,
2025-08-15T01:18:28.289Z,9,GR86-049-88,3.7,0.111,-0.016,99.96,5.0,,0.0,0.0,
2025-08-15T01:18:28.332Z,9,GR86-049-88,3.7,0.094,-0.047,99.95,5.0,,0.0,0.0,
2025-08-15T01:18:28.375Z,9,GR86-049-88,3.7,0.101,-0.035,99.96,5.0,6476.0,0.0,0.0,
2025-08-15T01:18:28.420Z,9,GR86-049-88,3.8,0.098,-0.005,99.98,5.0,,0.0,0.0,190.52
2025-08-15T01:18:28.463Z,9,GR86-049-88,3.8,0.094,-0.01,99.96,5.0,,0.0,0.0,
2025-08-15T01:18:28.506Z,9,GR86-049-88,3.8,0.112,-0.025,99.95,5.0,,0.0,0.0,
2025-08-15T01:18:28.549Z,9,GR86-049-88,3.8,0.101,-0.039,99.96,5.0,,0.0,0.0,
2025-08-15T01:18:28.592Z,9,GR86-049-88,3.9,0.128,-0.003,99.97,5.0,6513.0,0.0,0.0,
2025-08-15T01:18:28.635Z,9,GR86-049-88,4.1000000000000005,0.093,-0.011,99.95,5.0,,0.0,0.0,191.19
2025-08-15T01:18:28.679Z,9,GR86-049-88,4.5,0.067,-0.034,99.96,5.0,,0.0,0.0,
2025-08-15T01:18:28.721Z,9,GR86-049-88,4.7,0.074,0.012,99.95,5.0,,0.0,0.0,
2025-08-15T01:18:28.764Z,9,GR86-049-88,4.7,0.085,0.048,99.96,5.0,,0.0,0.0,
2025-08-15T01:18:28.807Z,9,GR86-049-88,4.7,0.1,0.068,99.96,5.0,6529.0,0.0,0.0,
2025-08-15T01:18:28.850Z,9,GR86-049-88,4.7,0.099,0.065,99.95,5.0,,0.0,0.0,191.86
2025-08-15T01:18:28.893Z,9,GR86-049-88,4.800000000000001,0.09,0.025,99.96,5.0,,0.0,0.0,
2025-08-15T01:18:28.936Z,9,GR86-049-88,4.800000000000001,0.126,0.022,99.94,5.0,,0.0,0.0,
2025-08-15T01:18:28.980Z,9,GR86-049-88,5.0,0.094,0.042,99.96,5.0,,0.0,0.0,
2025-08-15T01:18:29.023Z,9,GR86-049-88,5.1000000000000005,0.085,0.056,99.96,5.0,6541.0,0.0,0.0,
2025-08-15T01:18:29.066Z,9,GR86-049-88,5.800000000000001,0.089,0.049,99.96,5.0,,0.0,0.0,192.53
2025-08-15T01:18:29.109Z,9,GR86-049-88,6.2,0.097,0.091,99.96,5.0,,0.0,0.0,
2025-08-15T01:18:29.152Z,9,GR86-049-88,6.6000000000000005,0.107,0.113,99.94,5.0,,0.0,0.0,
2025-08-15T01:18:29.195Z,9,GR86-049-88,6.800000000000001,0.115,0.117,99.95,5.0,,0.0,0.0,
2025-08-15T01:18:29.239Z,9,GR86-049-88,7.0,0.068,0.153,99.95,5.0,6568.0,0.0,0.0,
2025-08-15T01:18:29.282Z,9,GR86-049-88,7.1000000000000005,0.084,0.142,99.97,5.0,,0.0,0.0,193.13
2025-08-15T01:18:29.325Z,9,GR86-049-88,7.1000000000000005,0.088,0.182,99.96,5.0,,0.0,0.0,
2025-08-15T01:18:29.368Z,9,GR86-049-88,7.1000000000000005,0.067,0.206,99.96,5.0,,0.0,0.0,
2025-08-15T01:18:29.411Z,9,GR86-049-88,7.1000000000000005,0.108,0.204,99.96,5.0,,0.0,0.0,
2025-08-15T01:18:29.454Z,9,GR86-049-88,7.1000000000000005,0.094,0.203,99.95,5.0,6589.0,0.0,0.0,
2025-08-15T01:18:29.497Z,9,GR86-049-88,7.1000000000000005,0.123,0.225,99.96,5.0,,0.0,0.0,193.72
2025-08-15T01:18:29.540Z,9,GR86-049-88,7.1000000000000005,0.096,0.143,99.95,5.0,,0.0,0.0,
2025-08-15T01:18:29.583Z,9,GR86-049-88,7.1000000000000005,0.075,0.155,99.96,5.0,,0.0,0.0,
2025-08-15T01:18:29.626Z,9,GR86-049-88,7.1000000000000005,0.085,0.117,99.95,5.0,,0.0,0.0,
2025-08-15T01:18:29.669Z,9,GR86-049-88,7.1000000000000005,0.093,0.149,99.95,5.0,6609.0,0.0,0.0,
2025-08-15T01:18:29.712Z,9,GR86-049-88,7.0,0.098,0.153,99.96,5.0,,0.0,0.0,194.42
2025-08-15T01:18:29.755Z,9,GR86-049-88,7.0,0.108,0.146,99.96,5.0,,0.0,0.0,
2025-08-15T01:18:29.799Z,9,GR86-049-88,6.9,0.077,0.093,99.94,5.0,,0.0,0.0,
2025-08-15T01:18:29.842Z,9,GR86-049-88,6.9,0.088,0.102,99.96,5.0,,0.0,0.0,
2025-08-15T01:18:29.885Z,9,GR86-049-88,6.800000000000001,0.079,0.087,99.94,5.0,6639.0,0.0,0.0,
2025-08-15T01:18:29.928Z,9,GR86-049-88,6.800000000000001,0.092,0.133,99.96,5.0,,0.0,0.0,195.91
2025-08-15T01:18:29.971Z,9,GR86-049-88,6.800000000000001,0.102,0.127,99.96,5.0,,0.0,0.0,
2025-08-15T01:18:30.015Z,9,GR86-049-88,6.7,0.097,0.132,99.96,5.0,,0.0,0.0,
2025-08-15T01:18:30.058Z,9,GR86-049-88,6.5,0.101,0.07,99.95,5.0,,0.0,0.0,
2025-08-15T01:18:30.101Z,9,GR86-049-88,6.5,0.09,0.028,99.95,5.0,6673.0,0.0,0.0,
2025-08-15T01:18:30.144Z,9,GR86-049-88,6.5,0.078,0.054,99.95,5.0,,0.0,0.0,196.61
2025-08-15T01:18:30.187Z,9,GR86-049-88,6.5,0.096,0.075,99.95,5.0,,0.0,0.0,
2025-08-15T01:18:30.230Z,9,GR86-049-88,6.4,0.111,0.078,99.96,5.0,,0.0,0.0,
2025-08-15T01:18:30.316Z,9,GR86-049-88,6.4,0.11,0.043,99.95,5.0,6701.0,0.0,0.0,
2025-08-15T01:18:30.402Z,9,GR86-049-88,6.300000000000001,0.088,0.043,99.96,5.0,,0.0,0.0,197.44
2025-08-15T01:18:30.445Z,9,GR86-049-88,6.300000000000001,0.115,0.042,99.96,5.0,,0.0,0.0,
2025-08-15T01:18:30.531Z,9,GR86-049-88,6.300000000000001,0.107,0.037,99.96,5.0,6737.0,0.0,0.0,
2025-08-15T01:18:30.617Z,9,GR86-049-88,6.300000000000001,0.12,0.062,99.96,5.0,,0.0,0.0,198.05
2025-08-15T01:18:30.660Z,9,GR86-049-88,6.300000000000001,0.103,0.068,99.96,5.0,,0.0,0.0,
2025-08-15T01:18:30.746Z,9,GR86-049-88,6.2,0.125,0.077,99.96,5.0,6774.0,0.0,0.0,
2025-08-15T01:18:30.789Z,9,GR86-049-88,5.5,0.133,0.072,99.96,5.0,,0.0,0.0,198.72
2025-08-15T01:18:30.832Z,9,GR86-049-88,5.0,0.115,0.088,99.96,5.0,,0.0,0.0,
2025-08-15T01:18:30.875Z,9,GR86-049-88,4.7,0.106,0.06,99.96,5.0,,0.0,0.0,
2025-08-15T01:18:30.920Z,9,GR86-049-88,4.7,0.114,0.036,99.96,5.0,,0.0,0.0,
2025-08-15T01:18:30.963Z,9,GR86-049-88,4.6000000000000005,0.119,-0.001,99.97,5.0,6801.0,0.0,0.0,
2025-08-15T01:18:31.008Z,9,GR86-049-88,4.6000000000000005,0.126,0.006,99.96,5.0,,0.0,0.0,199.69
2025-08-15T01:18:31.051Z,9,GR86-049-88,4.6000000000000005,0.105,-0.024,99.96,5.0,,0.0,0.0,
2025-08-15T01:18:31.094Z,9,GR86-049-88,4.5,0.094,-0.049,99.96,5.0,,0.0,0.0,
2025-08-15T01:18:31.137Z,9,GR86-049-88,4.4,0.066,-0.032,99.94,5.0,,0.0,0.0,
2025-08-15T01:18:31.223Z,9,GR86-049-88,4.4,0.103,-0.04,99.96,5.0,6823.0,0.0,0.0,200.54
2025-08-15T01:18:31.266Z,9,GR86-049-88,4.4,0.064,-0.055,99.93,5.0,,0.0,0.0,
2025-08-15T01:18:31.309Z,9,GR86-049-88,4.4,0.065,-0.023,99.94,5.0,,0.0,0.0,
2025-08-15T01:18:31.352Z,9,GR86-049-88,4.4,0.066,-0.014,99.96,5.0,,0.0,0.0,
2025-08-15T01:18:31.395Z,9,GR86-049-88,4.4,0.062,-0.029,99.96,5.0,6854.0,0.0,0.0,
2025-08-15T01:18:31.439Z,9,GR86-049-88,4.4,0.08,-0.009,99.95,5.0,,0.0,0.0,201.41
2025-08-15T01:18:31.482Z,9,GR86-049-88,4.4,0.052,-0.022,99.95,5.0,,0.0,0.0,
2025-08-15T01:18:31.525Z,9,GR86-049-88,4.4,0.052,-0.008,99.95,5.0,,0.0,0.0,
2025-08-15T01:18:31.569Z,9,GR86-049-88,4.4,0.058,-0.028,99.95,5.0,,0.0,0.0,
2025-08-15T01:18:31.611Z,9,GR86-049-88,4.5,0.094,-0.011,99.95,5.0,6876.0,0.0,0.0,
2025-08-15T01:18:31.697Z,9,GR86-049-88,4.5,0.095,-0.025,99.97,5.0,,0.0,0.0,202.26
2025-08-15T01:18:31.740Z,9,GR86-049-88,4.5,0.088,-0.025,99.96,5.0,,0.0,0.0,
2025-08-15T01:18:31.783Z,9,GR86-049-88,4.5,0.103,0.0,99.96,5.0,,0.0,0.0,
2025-08-15T01:18:31.826Z,9,GR86-049-88,4.5,0.11,-0.007,99.96,5.0,6899.0,0.0,0.0,
2025-08-15T01:18:31.869Z,9,GR86-049-88,4.5,0.102,0.023,99.96,5.0,,0.0,0.0,202.96
2025-08-15T01:18:31.912Z,9,GR86-049-88,4.6000000000000005,0.112,-0.015,99.96,5.0,,0.0,0.0,
2025-08-15T01:18:31.955Z,9,GR86-049-88,4.6000000000000005,0.073,0.008,99.96,5.0,,0.0,0.0,
2025-08-15T01:18:31.999Z,9,GR86-049-88,4.6000000000000005,0.108,0.003,99.96,5.0,,0.0,0.0,
2025-08-15T01:18:32.041Z,9,GR86-049-88,4.7,0.108,0.018,99.93,5.0,6929.0,0.0,0.0,
2025-08-15T01:18:32.128Z,9,GR86-049-88,4.7,0.055,-0.006,99.96,5.0,,0.0,0.0,203.74
2025-08-15T01:18:32.171Z,9,GR86-049-88,4.7,0.049,0.003,99.95,5.0,,0.0,0.0,
2025-08-15T01:18:32.214Z,9,GR86-049-88,4.800000000000001,0.077,-0.026,99.95,5.0,,0.0,0.0,
2025-08-15T01:18:32.257Z,9,GR86-049-88,4.7,0.092,0.01,99.96,5.0,6954.0,0.0,0.0,
2025-08-15T01:18:32.300Z,9,GR86-049-88,4.5,0.039,-0.023,99.96,5.0,,0.0,0.0,204.42
2025-08-15T01:18:32.343Z,9,GR86-049-88,4.5,0.063,-0.025,99.96,5.0,,0.0,0.0,
2025-08-15T01:18:32.386Z,9,GR86-049-88,4.4,0.076,-0.029,99.96,5.0,,0.0,0.0,
2025-08-15T01:18:32.429Z,9,GR86-049-88,4.3,0.103,0.007,99.96,5.0,,0.0,0.0,
2025-08-15T01:18:32.472Z,9,GR86-049-88,4.3,0.108,-0.012,99.96,5.0,6968.0,0.0,0.0,
2025-08-15T01:18:32.515Z,9,GR86-049-88,4.3,0.088,-0.004,99.96,5.0,,0.0,0.0,205.2
2025-08-15T01:18:32.559Z,9,GR86-049-88,4.2,0.108,-0.025,99.94,5.0,,0.0,0.0,
2025-08-15T01:18:32.601Z,9,GR86-049-88,4.2,0.095,-0.016,99.96,5.0,,0.0,0.0,
2025-08-15T01:18:32.644Z,9,GR86-049-88,4.1000000000000005,0.093,-0.052,99.93,5.0,,0.0,0.0,
2025-08-15T01:18:32.687Z,9,GR86-049-88,3.9,0.055,-0.041,99.95,5.0,7005.0,0.0,0.0,
2025-08-15T01:18:32.730Z,9,GR86-049-88,3.8,0.042,-0.062,99.96,5.0,,0.0,0.0,206.53
2025-08-15T01:18:32.773Z,9,GR86-049-88,3.7,0.008,-0.075,99.95,5.0,,0.0,0.0,
2025-08-15T01:18:32.816Z,9,GR86-049-88,3.6,0.086,-0.045,99.95,5.0,,0.0,0.0,
2025-08-15T01:18:32.859Z,9,GR86-049-88,3.6,0.034,-0.08,99.95,5.0,,0.0,0.0,
2025-08-15T01:18:32.902Z,9,GR86-049-88,3.6,0.017,-0.095,99.94,5.0,7023.0,0.0,0.0,
2025-08-15T01:18:32.945Z,9,GR86-049-88,3.6,0.049,-0.096,99.96,5.0,,0.0,0.0,207.2
2025-08-15T01:18:32.988Z,9,GR86-049-88,3.7,0.058,-0.075,99.93,5.0,,0.0,0.0,
2025-08-15T01:18:33.031Z,9,GR86-049-88,3.8,0.094,-0.052,99.96,5.0,,0.0,0.0,
2025-08-15T01:18:33.075Z,9,GR86-049-88,3.8,0.071,-0.068,99.96,5.0,,0.0,0.0,
2025-08-15T01:18:33.117Z,9,GR86-049-88,3.8,0.078,-0.058,99.95,5.0,7030.0,0.0,0.0,
2025-08-15T01:18:33.160Z,9,GR86-049-88,3.2,0.116,-0.022,99.95,5.0,,0.0,0.0,207.73
2025-08-15T01:18:33.203Z,9,GR86-049-88,3.1,0.065,-0.054,99.95,5.0,,0.0,0.0,
2025-08-15T01:18:33.246Z,9,GR86-049-88,3.1,0.062,-0.019,99.93,5.0,,0.0,0.0,
2025-08-15T01:18:33.289Z,9,GR86-049-88,3.1,0.006,-0.085,99.95,5.0,,0.0,0.0,
2025-08-15T01:18:33.332Z,9,GR86-049-88,3.2,0.065,-0.062,99.94,5.0,7061.0,0.0,0.0,
2025-08-15T01:18:33.375Z,9,GR86-049-88,3.3000000000000003,0.034,-0.075,99.94,5.0,,0.0,0.0,208.16
2025-08-15T01:18:33.420Z,9,GR86-049-88,3.4000000000000004,0.021,-0.095,99.95,5.0,,0.0,0.0,
2025-08-15T01:18:33.463Z,9,GR86-049-88,3.4000000000000004,0.051,-0.095,99.94,5.0,,0.0,0.0,
2025-08-15T01:18:33.506Z,9,GR86-049-88,3.4000000000000004,0.036,-0.077,99.96,5.0,,0.0,0.0,
2025-08-15T01:18:33.549Z,9,GR86-049-88,3.5,0.076,-0.018,99.93,5.0,7085.0,0.0,0.0,
2025-08-15T01:18:33.635Z,9,GR86-049-88,4.5,0.073,-0.03,99.95,5.0,,0.0,0.0,208.6
2025-08-15T01:18:33.679Z,9,GR86-049-88,4.4,0.084,-0.038,99.94,5.0,,0.0,0.0,
2025-08-15T01:18:33.721Z,9,GR86-049-88,4.3,0.075,-0.014,99.94,5.0,,0.0,0.0,
2025-08-15T01:18:33.764Z,9,GR86-049-88,4.3,0.094,0.007,99.95,5.0,7106.0,0.0,0.0,
2025-08-15T01:18:33.850Z,9,GR86-049-88,4.4,0.053,0.014,99.94,5.0,,0.0,0.0,208.95
2025-08-15T01:18:33.893Z,9,GR86-049-88,4.5,0.059,-0.015,99.95,5.0,,0.0,0.0,
2025-08-15T01:18:33.936Z,9,GR86-049-88,4.5,0.073,-0.029,99.95,5.0,,0.0,0.0,
2025-08-15T01:18:33.980Z,9,GR86-049-88,4.5,0.045,-0.041,99.97,5.0,7127.0,0.0,0.0,
2025-08-15T01:18:34.023Z,9,GR86-049-88,4.4,0.058,-0.032,99.94,5.0,,0.0,0.0,209.53
2025-08-15T01:18:34.066Z,9,GR86-049-88,4.4,0.117,0.006,99.95,5.0,,0.0,0.0,
2025-08-15T01:18:34.109Z,9,GR86-049-88,4.4,0.092,-0.01,99.95,5.0,,0.0,0.0,
2025-08-15T01:18:34.152Z,9,GR86-049-88,4.3,0.094,0.017,99.96,5.0,,0.0,0.0,
2025-08-15T01:18:34.195Z,9,GR86-049-88,4.3,0.061,-0.008,99.95,5.0,7133.0,0.0,0.0,
2025-08-15T01:18:34.239Z,9,GR86-049-88,4.4,0.076,-0.006,99.95,5.0,,0.0,0.0,209.9
2025-08-15T01:18:34.282Z,9,GR86-049-88,4.4,0.095,-0.008,99.95,5.0,,0.0,0.0,
2025-08-15T01:18:34.325Z,9,GR86-049-88,4.4,0.063,-0.02,99.95,5.0,,0.0,0.0,
2025-08-15T01:18:34.369Z,9,GR86-049-88,4.3,0.058,-0.026,99.96,5.0,,0.0,0.0,
2025-08-15T01:18:34.411Z,9,GR86-049-88,4.2,0.06,-0.041,99.95,5.0,7156.0,0.0,0.0,
2025-08-15T01:18:34.454Z,9,GR86-049-88,4.1000000000000005,0.088,-0.004,99.96,5.0,,0.0,0.0,210.45
2025-08-15T01:18:34.497Z,9,GR86-049-88,4.0,0.095,-0.01,99.94,5.0,,0.0,0.0,
2025-08-15T01:18:34.540Z,9,GR86-049-88,4.0,0.065,-0.036,99.97,5.0,,0.0,0.0,
2025-08-15T01:18:34.583Z,9,GR86-049-88,4.0,0.094,-0.029,99.94,5.0,,0.0,0.0,
2025-08-15T01:18:34.626Z,9,GR86-049-88,4.0,0.094,0.004,99.94,5.0,7176.0,0.0,0.0,
2025-08-15T01:18:34.669Z,9,GR86-049-88,4.1000000000000005,0.071,-0.033,99.96,5.0,,0.0,0.0,210.92
2025-08-15T01:18:34.712Z,9,GR86-049-88,4.1000000000000005,0.075,-0.035,99.94,5.0,,0.0,0.0,
2025-08-15T01:18:34.755Z,9,GR86-049-88,4.1000000000000005,0.058,-0.047,99.96,5.0,,0.0,0.0,
2025-08-15T01:18:34.800Z,9,GR86-049-88,4.0,0.077,0.0,99.95,5.0,,0.0,0.0,
2025-08-15T01:18:34.843Z,9,GR86-049-88,3.9,0.062,-0.023,99.96,5.0,7194.0,0.0,0.0,
2025-08-15T01:18:34.886Z,9,GR86-049-88,3.9,0.058,-0.055,99.93,5.0,,0.0,0.0,211.61
2025-08-15T01:18:34.930Z,9,GR86-049-88,4.0,0.08,-0.006,99.95,5.0,,0.0,0.0,
2025-08-15T01:18:34.973Z,9,GR86-049-88,4.1000000000000005,0.086,-0.016,99.96,5.0,,0.0,0.0,
2025-08-15T01:18:35.016Z,9,GR86-049-88,4.2,0.08,-0.026,92.58,5.0,,0.0,0.0,
2025-08-15T01:18:35.060Z,9,GR86-049-88,4.2,0.062,-0.053,54.56,5.0,7215.0,0.0,0.0,
2025-08-15T01:18:35.102Z,9,GR86-049-88,4.2,0.106,-0.03,42.18,5.0,,0.0,0.0,212.12
2025-08-15T01:18:35.145Z,9,GR86-049-88,4.2,0.05,-0.003,40.29,5.0,,0.0,0.0,
2025-08-15T01:18:35.189Z,9,GR86-049-88,4.2,0.012,-0.02,39.87,5.0,,0.0,0.0,
2025-08-15T01:18:35.232Z,9,GR86-049-88,4.2,0.002,-0.037,31.15,5.0,,0.0,0.0,
2025-08-15T01:18:35.275Z,9,GR86-049-88,4.4,0.035,-0.038,5.11,5.0,7233.0,0.0,0.0,
2025-08-15T01:18:35.320Z,9,GR86-049-88,4.6000000000000005,-0.105,-0.016,4.21,5.0,,0.0,0.0,213.32
2025-08-15T01:18:35.363Z,9,GR86-049-88,4.6000000000000005,-0.128,0.012,3.96,5.0,,0.0,0.0,
2025-08-15T01:18:35.406Z,9,GR86-049-88,4.4,-0.39,-0.006,3.69,5.0,,0.0,0.0,
2025-08-15T01:18:35.449Z,9,GR86-049-88,4.4,-0.148,-0.005,3.46,5.0,,6.24,6.455,
2025-08-15T01:18:35.492Z,9,GR86-049-88,4.4,-0.156,0.033,3.22,5.0,7248.0,8.01,8.040000000000001,
2025-08-15T01:18:35.535Z,9,GR86-049-88,4.4,-0.287,0.006,3.01,5.0,,10.375,10.47,213.72
2025-08-15T01:18:35.578Z,9,GR86-049-88,4.1000000000000005,-0.432,-0.002,2.7,5.0,,21.685,21.715,
2025-08-15T01:18:35.621Z,9,GR86-049-88,4.1000000000000005,-0.622,-0.01,2.61,5.0,,32.075,31.985,
2025-08-15T01:18:35.665Z,9,GR86-049-88,4.0,-0.8250000000000001,-0.032,2.51,5.0,,41.86,41.585,
2025-08-15T01:18:35.708Z,9,GR86-049-88,3.3000000000000003,-0.948,-0.023,2.48,5.0,7109.0,48.59,48.39,
2025-08-15T01:18:35.751Z,9,GR86-049-88,2.7,-1.052,-0.063,2.45,5.0,,51.595,51.655,213.35
2025-08-15T01:18:35.794Z,9,GR86-049-88,2.7,-1.043,-0.059,2.45,5.0,,55.045,54.8,
2025-08-15T01:18:35.837Z,9,GR86-049-88,2.7,-1.042,-0.01,2.45,5.0,,61.71,61.175,
2025-08-15T01:18:35.880Z,9,GR86-049-88,2.8000000000000003,-1.173,-0.061,54.26,4.0,,75.43,75.215,
2025-08-15T01:18:35.923Z,9,GR86-049-88,2.8000000000000003,-1.273,-0.087,12.51,4.0,6896.0,84.355,86.035,
2025-08-15T01:18:35.966Z,9,GR86-049-88,2.8000000000000003,-1.495,-0.081,4.5,4.0,,90.49,92.55,209.96
2025-08-15T01:18:36.009Z,9,GR86-049-88,3.1,-1.44,-0.131,3.99,4.0,,94.37,95.865,
2025-08-15T01:18:36.052Z,9,GR86-049-88,4.800000000000001,-1.45,-0.09,3.73,4.0,,93.405,94.43,
2025-08-15T01:18:36.095Z,9,GR86-049-88,6.800000000000001,-1.167,-0.061,3.5700000000000003,4.0,,90.995,91.315,
2025-08-15T01:18:36.139Z,9,GR86-049-88,8.3,-1.13,-0.111,3.28,4.0,6506.0,75.155,76.115,
2025-08-15T01:18:36.182Z,9,GR86-049-88,8.700000000000001,-1.255,-0.116,3.0500000000000003,4.0,,67.69500000000001,68.535,202.2
2025-08-15T01:18:36.225Z,9,GR86-049-88,8.700000000000001,-1.164,-0.166,2.8000000000000003,4.0,,64.99,65.8,
2025-08-15T01:18:36.268Z,9,GR86-049-88,8.700000000000001,-1.159,-0.105,2.67,4.0,,64.52,64.93,
2025-08-15T01:18:36.354Z,9,GR86-049-88,8.700000000000001,-1.203,-0.068,2.61,4.0,7092.0,66.395,67.115,
2025-08-15T01:18:36.397Z,9,GR86-049-88,7.300000000000001,-1.322,-0.043,2.52,4.0,,73.235,73.08,190.56
2025-08-15T01:18:36.440Z,9,GR86-049-88,3.9,-1.299,-0.081,2.51,4.0,,79.015,78.865,
2025-08-15T01:18:36.483Z,9,GR86-049-88,2.8000000000000003,-1.295,-0.062,2.51,4.0,,83.73,85.21000000000001,
2025-08-15T01:18:36.526Z,9,GR86-049-88,2.2,-1.243,-0.035,2.51,4.0,,87.59,88.17,
2025-08-15T01:18:36.569Z,9,GR86-049-88,1.9,-1.279,-0.036,8.03,4.0,6821.0,89.485,88.92,
2025-08-15T01:18:36.612Z,9,GR86-049-88,1.8,-1.337,-0.035,49.1,3.0,,93.405,95.055,183.48
2025-08-15T01:18:36.655Z,9,GR86-049-88,1.7000000000000002,-1.437,-0.089,21.92,3.0,,96.26,98.215,
2025-08-15T01:18:36.699Z,9,GR86-049-88,0.4,-1.295,0.021,4.33,3.0,,100.365,102.745,
2025-08-15T01:18:36.742Z,9,GR86-049-88,-0.3,-1.434,-0.163,3.93,3.0,,100.96,102.075,
2025-08-15T01:18:36.828Z,9,GR86-049-88,-0.4,-1.154,-0.007,3.53,3.0,6311.0,101.385,103.25,175.19
2025-08-15T01:18:36.871Z,9,GR86-049-88,-0.4,-1.007,-0.361,3.3200000000000003,3.0,,89.425,90.765,
2025-08-15T01:18:36.915Z,9,GR86-049-88,-0.1,-1.334,-0.229,3.09,3.0,,78.42,79.4,
2025-08-15T01:18:36.958Z,9,GR86-049-88,0.2,-1.049,-0.35,2.73,3.0,,73.11,74.5,
2025-08-15T01:18:37.044Z,9,GR86-049-88,0.2,-1.052,-0.417,2.61,3.0,6628.0,67.725,68.09,161.29
2025-08-15T01:18:37.087Z,9,GR86-049-88,-6.2,-1.124,-0.442,2.51,3.0,,66.015,66.96000000000001,
2025-08-15T01:18:37.130Z,9,GR86-049-88,-10.8,-1.145,-0.508,2.51,3.0,,66.52,66.99,
2025-08-15T01:18:37.173Z,9,GR86-049-88,-11.9,-1.075,-0.477,2.49,3.0,,66.55,66.825,
2025-08-15T01:18:37.216Z,9,GR86-049-88,-10.9,-1.062,-0.525,2.48,3.0,6697.0,67.495,68.06,
2025-08-15T01:18:37.260Z,9,GR86-049-88,-9.2,-1.134,-0.489,2.49,3.0,,65.525,67.05,148.96
2025-08-15T01:18:37.302Z,9,GR86-049-88,-9.2,-0.937,-0.527,2.48,3.0,,55.455,56.845,
2025-08-15T01:18:37.345Z,9,GR86-049-88,-9.7,-0.889,-0.595,2.49,3.0,,47.93,49.135,
2025-08-15T01:18:37.388Z,9,GR86-049-88,-10.6,-0.925,-0.538,2.49,3.0,,42.085,43.26,
2025-08-15T01:18:37.431Z,9,GR86-049-88,-12.3,-0.665,-0.637,2.49,3.0,6712.0,35.800000000000004,37.145,
2025-08-15T01:18:37.517Z,9,GR86-049-88,-13.8,-0.734,-0.75,2.49,3.0,,32.410000000000004,33.055,149.93
2025-08-15T01:18:37.560Z,9,GR86-049-88,-16.6,-0.664,-0.776,2.48,3.0,,28.245,28.995,
2025-08-15T01:18:37.603Z,9,GR86-049-88,-21.9,-0.722,-0.868,2.49,3.0,,23.53,24.34,
2025-08-15T01:18:37.646Z,9,GR86-049-88,-28.3,-0.482,-0.883,2.5,3.0,6209.0,16.895,17.490000000000002,
2025-08-15T01:18:37.732Z,9,GR86-049-88,-34.800000000000004,-0.448,-0.993,2.5,3.0,,8.91,9.52,143.28
2025-08-15T01:18:37.775Z,9,GR86-049-88,-40.8,-0.242,-1.122,2.48,3.0,,0.0,0.0,
2025-08-15T01:18:37.820Z,9,GR86-049-88,-40.5,-0.242,-1.198,2.48,3.0,,0.0,0.0,
2025-08-15T01:18:37.863Z,9,GR86-049-88,-38.0,-0.184,-1.192,2.48,3.0,6161.0,0.0,0.0,
2025-08-15T01:18:37.906Z,9,GR86-049-88,-32.800000000000004,-0.163,-1.207,2.48,3.0,,0.0,0.0,138.49
2025-08-15T01:18:37.950Z,9,GR86-049-88,-27.6,-0.192,-1.226,2.68,3.0,,0.0,0.0,
2025-08-15T01:18:37.993Z,9,GR86-049-88,-24.1,-0.2,-1.21,3.0,3.0,,0.0,0.0,
2025-08-15T01:18:38.036Z,9,GR86-049-88,-20.4,-0.146,-1.167,2.84,3.0,,0.0,0.0,
2025-08-15T01:18:38.080Z,9,GR86-049-88,-10.3,-0.135,-1.158,2.8000000000000003,3.0,5927.0,0.0,0.0,
2025-08-15T01:18:38.123Z,9,GR86-049-88,-4.5,-0.142,-1.13,2.77,3.0,,0.0,0.0,132.9
2025-08-15T01:18:38.166Z,9,GR86-049-88,-3.5,-0.196,-1.169,2.73,3.0,,0.0,0.0,
2025-08-15T01:18:38.252Z,9,GR86-049-88,-15.2,-0.144,-1.217,2.67,3.0,,0.0,0.0,
2025-08-15T01:18:38.295Z,9,GR86-049-88,-20.8,-0.182,-1.219,2.64,3.0,5968.0,0.0,0.0,
2025-08-15T01:18:38.339Z,9,GR86-049-88,-16.6,-0.169,-1.228,2.61,3.0,,0.0,0.0,130.92000000000002
2025-08-15T01:18:38.382Z,9,GR86-049-88,-7.9,-0.192,-1.227,2.58,3.0,,2.52,2.67,
2025-08-15T01:18:38.469Z,9,GR86-049-88,-17.2,-0.169,-1.174,2.54,3.0,,0.0,0.0,
2025-08-15T01:18:38.511Z,9,GR86-049-88,-25.5,-0.208,-1.232,2.52,3.0,5874.0,0.0,0.0,
2025-08-15T01:18:38.597Z,9,GR86-049-88,-11.3,-0.152,-1.13,2.51,3.0,,33.1,33.495,129.08
2025-08-15T01:18:38.640Z,9,GR86-049-88,-12.7,-0.876,-0.854,2.52,3.0,,61.36,60.825,
2025-08-15T01:18:38.683Z,9,GR86-049-88,-26.9,-1.077,-0.749,2.51,3.0,,72.12,72.24,
2025-08-15T01:18:38.726Z,9,GR86-049-88,-40.400000000000006,-1.013,-0.729,2.51,3.0,5780.0,55.485,57.120000000000005,
2025-08-15T01:18:38.812Z,9,GR86-049-88,-42.400000000000006,-0.348,-0.925,19.86,3.0,,8.36,9.005,127.75
2025-08-15T01:18:38.899Z,9,GR86-049-88,-39.7,-0.153,-1.199,99.03,3.0,,0.0,0.0,
2025-08-15T01:18:38.941Z,9,GR86-049-88,-35.0,-0.021,-1.116,99.86,3.0,5523.0,0.0,0.0,
2025-08-15T01:18:38.984Z,9,GR86-049-88,-33.1,0.358,-1.078,99.87,3.0,,0.0,0.0,125.52
2025-08-15T01:18:39.027Z,9,GR86-049-88,-32.2,0.466,-1.189,99.87,3.0,,0.0,0.0,
2025-08-15T01:18:39.070Z,9,GR86-049-88,-26.6,0.43,-0.941,99.86,3.0,,0.0,0.0,
2025-08-15T01:18:39.113Z,9,GR86-049-88,-11.1,0.271,-1.022,99.86,3.0,,0.0,0.0,
2025-08-15T01:18:39.156Z,9,GR86-049-88,9.4,0.302,-0.872,99.86,3.0,5526.0,0.0,0.0,
2025-08-15T01:18:39.200Z,9,GR86-049-88,22.4,0.053,-0.547,99.86,3.0,,0.0,0.0,120.85
2025-08-15T01:18:39.242Z,9,GR86-049-88,11.5,0.009,-0.5680000000000001,99.9,3.0,,0.0,0.0,
2025-08-15T01:18:39.285Z,9,GR86-049-88,-13.9,-0.05,-0.712,99.96,3.0,,0.0,0.0,
2025-08-15T01:18:39.328Z,9,GR86-049-88,-46.5,0.068,-0.869,99.96,3.0,,0.0,0.0,
2025-08-15T01:18:39.371Z,9,GR86-049-88,-57.2,0.124,-1.087,99.93,3.0,5767.0,0.0,0.0,
2025-08-15T01:18:39.415Z,9,GR86-049-88,-61.5,0.04,-1.092,99.9,3.0,,0.0,0.0,119.64
2025-08-15T01:18:39.457Z,9,GR86-049-88,-60.400000000000006,-0.011,-0.895,99.87,3.0,,0.0,0.0,
2025-08-15T01:18:39.500Z,9,GR86-049-88,-51.1,0.192,-0.974,99.88,3.0,,0.0,0.0,
2025-08-15T01:18:39.543Z,9,GR86-049-88,-47.2,0.183,-0.747,99.88,3.0,,0.0,0.0,
2025-08-15T01:18:39.586Z,9,GR86-049-88,-46.1,0.083,-0.881,99.89,3.0,5837.0,0.0,0.0,
2025-08-15T01:18:39.629Z,9,GR86-049-88,-44.900000000000006,0.149,-0.972,99.9,3.0,,0.0,0.0,120.43
2025-08-15T01:18:39.672Z,9,GR86-049-88,-43.7,-0.014,-1.011,99.91,3.0,,0.0,0.0,
2025-08-15T01:18:39.715Z,9,GR86-049-88,-41.1,-0.086,-1.052,99.89,3.0,,0.0,0.0,
2025-08-15T01:18:39.759Z,9,GR86-049-88,-35.300000000000004,0.339,-1.137,99.88,3.0,,0.0,0.0,
2025-08-15T01:18:39.801Z,9,GR86-049-88,-32.2,0.347,-1.054,99.88,3.0,5885.0,0.0,0.0,
2025-08-15T01:18:39.844Z,9,GR86-049-88,-30.700000000000003,0.323,-0.96,99.89,3.0,,0.0,0.0,122.4
2025-08-15T01:18:39.888Z,9,GR86-049-88,-30.0,0.236,-1.281,99.89,3.0,,0.0,0.0,
2025-08-15T01:18:39.930Z,9,GR86-049-88,-29.9,0.326,-1.319,99.89,3.0,,0.0,0.0,
2025-08-15T01:18:39.973Z,9,GR86-049-88,-29.5,0.19,-1.117,99.9,3.0,,0.0,0.0,
2025-08-15T01:18:40.016Z,9,GR86-049-88,-29.1,0.081,-1.217,99.9,3.0,5890.0,0.0,0.0,
2025-08-15T01:18:40.060Z,9,GR86-049-88,-30.1,0.205,-1.103,99.9,3.0,,0.0,0.0,123.26
2025-08-15T01:18:40.102Z,9,GR86-049-88,-34.1,0.23,-1.28,99.92,3.0,,0.0,0.0,
2025-08-15T01:18:40.146Z,9,GR86-049-88,-38.2,0.227,-1.237,99.91,3.0,,0.0,0.0,
2025-08-15T01:18:40.189Z,9,GR86-049-88,-40.900000000000006,0.155,-1.137,99.91,3.0,,0.0,0.0,
2025-08-15T01:18:40.232Z,9,GR86-049-88,-41.5,0.115,-1.145,99.89,3.0,5959.0,0.0,0.0,
2025-08-15T01:18:40.275Z,9,GR86-049-88,-41.5,0.167,-1.124,99.9,3.0,,0.0,0.0,124.58
2025-08-15T01:18:40.320Z,9,GR86-049-88,-41.5,0.206,-1.113,99.9,3.0,,0.0,0.0,
2025-08-15T01:18:40.363Z,9,GR86-049-88,-41.5,0.2,-1.112,99.9,3.0,,0.0,0.0,
2025-08-15T01:18:40.406Z,9,GR86-049-88,-41.5,0.138,-1.052,99.9,3.0,,0.0,0.0,
2025-08-15T01:18:40.449Z,9,GR86-049-88,-41.6,0.144,-1.102,99.89,3.0,5990.0,0.0,0.0,
2025-08-15T01:18:40.492Z,9,GR86-049-88,-41.6,0.175,-1.139,99.89,3.0,,0.0,0.0,125.23
2025-08-15T01:18:40.535Z,9,GR86-049-88,-41.400000000000006,0.153,-1.142,99.9,3.0,,0.0,0.0,
2025-08-15T01:18:40.579Z,9,GR86-049-88,-40.0,0.16,-1.142,99.89,3.0,,0.0,0.0,
2025-08-15T01:18:40.622Z,9,GR86-049-88,-38.2,0.136,-1.094,99.89,3.0,,0.0,0.0,
2025-08-15T01:18:40.665Z,9,GR86-049-88,-36.9,0.169,-1.086,99.91,3.0,5995.0,0.0,0.0,
2025-08-15T01:18:40.708Z,9,GR86-049-88,-36.6,0.19,-1.09,99.9,3.0,,0.0,0.0,124.91
2025-08-15T01:18:40.751Z,9,GR86-049-88,-36.6,0.147,-1.093,99.91,3.0,,0.0,0.0,
2025-08-15T01:18:40.794Z,9,GR86-049-88,-36.4,0.174,-1.08,99.9,3.0,,0.0,0.0,
2025-08-15T01:18:40.837Z,9,GR86-049-88,-35.0,0.183,-1.091,99.89,3.0,,0.0,0.0,
2025-08-15T01:18:40.880Z,9,GR86-049-88,-31.4,0.174,-1.103,99.89,3.0,6013.0,0.0,0.0,
2025-08-15T01:18:40.923Z,9,GR86-049-88,-28.3,0.175,-1.07,99.89,3.0,,0.0,0.0,127.14
2025-08-15T01:18:40.966Z,9,GR86-049-88,-26.200000000000003,0.166,-1.074,99.92,3.0,,0.0,0.0,
2025-08-15T01:18:41.009Z,9,GR86-049-88,-25.4,0.205,-1.034,99.9,3.0,,0.0,0.0,
2025-08-15T01:18:41.052Z,9,GR86-049-88,-25.3,0.201,-0.964,99.92,3.0,,0.0,0.0,
2025-08-15T01:18:41.095Z,9,GR86-049-88,-25.200000000000003,0.163,-0.964,99.91,3.0,6059.0,0.0,0.0,
2025-08-15T01:18:41.139Z,9,GR86-049-88,-25.200000000000003,0.188,-0.96,99.9,3.0,,0.0,0.0,128.12
2025-08-15T01:18:41.182Z,9,GR86-049-88,-25.200000000000003,0.185,-0.957,99.91,3.0,,0.0,0.0,
2025-08-15T01:18:41.225Z,9,GR86-049-88,-25.200000000000003,0.205,-0.928,99.92,3.0,,0.0,0.0,
2025-08-15T01:18:41.268Z,9,GR86-049-88,-25.1,0.171,-0.877,99.93,3.0,,0.0,0.0,
2025-08-15T01:18:41.311Z,9,GR86-049-88,-24.1,0.198,-0.856,99.93,3.0,6105.0,0.0,0.0,
2025-08-15T01:18:41.355Z,9,GR86-049-88,-22.6,0.218,-0.885,99.93,3.0,,0.0,0.0,129.06
2025-08-15T01:18:41.400Z,9,GR86-049-88,-20.4,0.137,-0.611,99.91,3.0,,0.0,0.0,
2025-08-15T01:18:41.486Z,9,GR86-049-88,-19.4,0.163,-0.636,99.91,3.0,,0.0,0.0,
2025-08-15T01:18:41.530Z,9,GR86-049-88,-17.5,0.236,-0.55,99.89,3.0,6198.0,0.0,0.0,
2025-08-15T01:18:41.573Z,9,GR86-049-88,-17.8,0.17,-0.487,99.92,3.0,,0.0,0.0,130.26
2025-08-15T01:18:41.616Z,9,GR86-049-88,-18.4,-0.013,-0.296,99.9,3.0,,0.0,0.0,
2025-08-15T01:18:41.660Z,9,GR86-049-88,-19.4,0.141,-0.74,99.94,3.0,,0.0,0.0,
2025-08-15T01:18:41.702Z,9,GR86-049-88,-18.3,0.31,-0.654,99.93,3.0,,0.0,0.0,
2025-08-15T01:18:41.746Z,9,GR86-049-88,-16.1,0.242,-0.8290000000000001,99.92,3.0,6293.0,0.0,0.0,
2025-08-15T01:18:41.789Z,9,GR86-049-88,-12.6,0.276,-1.146,99.92,3.0,,0.0,0.0,131.75
2025-08-15T01:18:41.832Z,9,GR86-049-88,-11.6,0.326,-0.807,99.91,3.0,,0.0,0.0,
2025-08-15T01:18:41.875Z,9,GR86-049-88,-11.7,0.185,-0.733,99.92,3.0,,0.0,0.0,
2025-08-15T01:18:41.920Z,9,GR86-049-88,-12.0,0.26,-0.631,99.93,3.0,,0.0,0.0,
2025-08-15T01:18:41.963Z,9,GR86-049-88,-12.2,0.247,-0.556,99.93,3.0,6424.0,0.0,0.0,
2025-08-15T01:18:42.006Z,9,GR86-049-88,-12.5,0.289,-0.556,99.93,3.0,,0.0,0.0,132.83
2025-08-15T01:18:42.049Z,9,GR86-049-88,-13.1,0.244,-0.632,99.92,3.0,,0.0,0.0,
2025-08-15T01:18:42.092Z,9,GR86-049-88,-14.3,0.243,-0.578,99.92,3.0,,0.0,0.0,
2025-08-15T01:18:42.135Z,9,GR86-049-88,-16.3,0.226,-0.59,99.93,3.0,,0.0,0.0,
2025-08-15T01:18:42.179Z,9,GR86-049-88,-21.1,0.192,-0.711,99.93,3.0,6389.0,0.0,0.0,
2025-08-15T01:18:42.265Z,9,GR86-049-88,-25.9,0.157,-0.735,99.96,3.0,,0.0,0.0,134.37
2025-08-15T01:18:42.308Z,9,GR86-049-88,-37.5,0.146,-0.802,99.95,3.0,,0.0,0.0,
2025-08-15T01:18:42.351Z,9,GR86-049-88,-39.2,0.164,-0.756,99.94,3.0,,0.0,0.0,
2025-08-15T01:18:42.394Z,9,GR86-049-88,-40.3,0.136,-0.914,99.93,3.0,6343.0,0.0,0.0,
2025-08-15T01:18:42.437Z,9,GR86-049-88,-40.400000000000006,0.19,-0.898,99.92,3.0,,0.0,0.0,135.11
2025-08-15T01:18:42.480Z,9,GR86-049-88,-40.400000000000006,0.122,-1.042,99.92,3.0,,0.0,0.0,
2025-08-15T01:18:42.523Z,9,GR86-049-88,-39.8,0.096,-0.994,99.94,3.0,,0.0,0.0,
2025-08-15T01:18:42.566Z,9,GR86-049-88,-34.800000000000004,0.19,-0.99,99.93,3.0,,0.0,0.0,
2025-08-15T01:18:42.609Z,9,GR86-049-88,-24.6,0.129,-1.055,99.92,3.0,6415.0,0.0,0.0,
2025-08-15T01:18:42.652Z,9,GR86-049-88,-15.2,0.082,-1.016,99.91,3.0,,0.0,0.0,137.17000000000002
2025-08-15T01:18:42.695Z,9,GR86-049-88,-4.0,0.181,-1.063,99.93,3.0,,0.0,0.0,
2025-08-15T01:18:42.739Z,9,GR86-049-88,5.6000000000000005,0.222,-0.945,99.93,3.0,,0.0,0.0,
2025-08-15T01:18:42.781Z,9,GR86-049-88,6.5,0.193,-0.87,99.93,3.0,,0.0,0.0,
2025-08-15T01:18:42.824Z,9,GR86-049-88,8.1,0.257,-0.913,99.93,3.0,6554.0,0.0,0.0,
2025-08-15T01:18:42.868Z,9,GR86-049-88,10.0,0.136,-0.777,99.92,3.0,,0.0,0.0,137.89
2025-08-15T01:18:42.911Z,9,GR86-049-88,9.7,0.213,-0.667,99.93,3.0,,0.0,0.0,
2025-08-15T01:18:42.954Z,9,GR86-049-88,5.2,0.239,-0.6880000000000001,99.93,3.0,,0.0,0.0,
2025-08-15T01:18:42.997Z,9,GR86-049-88,-7.1000000000000005,0.251,-0.345,99.93,3.0,,0.0,0.0,
2025-08-15T01:18:43.040Z,9,GR86-049-88,-24.700000000000003,0.069,-0.328,99.93,3.0,6738.0,0.0,0.0,
2025-08-15T01:18:43.083Z,9,GR86-049-88,-24.700000000000003,0.193,-0.51,99.94,3.0,,0.0,0.0,139.24
2025-08-15T01:18:43.126Z,9,GR86-049-88,-17.1,0.237,-0.282,99.92,3.0,,0.0,0.0,
2025-08-15T01:18:43.169Z,9,GR86-049-88,-6.1000000000000005,0.188,-0.3,99.93,3.0,,0.0,0.0,
2025-08-15T01:18:43.212Z,9,GR86-049-88,1.9,0.04,-0.302,99.93,3.0,,0.0,0.0,
2025-08-15T01:18:43.255Z,9,GR86-049-88,5.1000000000000005,0.214,-0.359,99.92,3.0,6728.0,0.0,0.0,
2025-08-15T01:18:43.299Z,9,GR86-049-88,5.300000000000001,0.253,-0.123,99.93,3.0,,0.0,0.0,139.77
2025-08-15T01:18:43.341Z,9,GR86-049-88,6.1000000000000005,0.138,-0.176,99.92,3.0,,0.0,0.0,
2025-08-15T01:18:43.385Z,9,GR86-049-88,9.8,0.198,0.009,99.94,3.0,,0.0,0.0,
2025-08-15T01:18:43.427Z,9,GR86-049-88,10.9,0.45,-0.364,99.95,3.0,,0.0,0.0,
2025-08-15T01:18:43.470Z,9,GR86-049-88,11.3,0.271,-0.242,99.93,3.0,6860.0,0.0,0.0,
2025-08-15T01:18:43.513Z,9,GR86-049-88,11.1,0.428,0.079,99.93,3.0,,0.0,0.0,140.79
2025-08-15T01:18:43.556Z,9,GR86-049-88,11.1,0.129,0.119,99.93,3.0,,0.0,0.0,
2025-08-15T01:18:43.600Z,9,GR86-049-88,12.2,0.3,0.218,99.93,3.0,,0.0,0.0,
2025-08-15T01:18:43.642Z,9,GR86-049-88,12.8,0.296,0.349,99.96,3.0,,0.0,0.0,
2025-08-15T01:18:43.685Z,9,GR86-049-88,14.8,0.003,0.314,99.95,3.0,6786.0,0.0,0.0,
2025-08-15T01:18:43.728Z,9,GR86-049-88,17.6,-0.116,0.409,99.95,3.0,,0.0,0.0,144.32
2025-08-15T01:18:43.771Z,9,GR86-049-88,20.0,0.113,0.493,99.95,3.0,,0.0,0.0,
2025-08-15T01:18:43.815Z,9,GR86-049-88,21.1,0.095,0.641,99.94,3.0,,0.0,0.0,
2025-08-15T01:18:43.858Z,9,GR86-049-88,21.4,0.156,0.67,99.94,3.0,,0.0,0.0,
2025-08-15T01:18:43.901Z,9,GR86-049-88,21.200000000000003,0.227,0.704,99.94,3.0,6857.0,0.0,0.0,
2025-08-15T01:18:43.944Z,9,GR86-049-88,20.9,0.164,0.655,99.93,3.0,,0.0,0.0,145.44
2025-08-15T01:18:43.987Z,9,GR86-049-88,20.700000000000003,0.231,0.738,99.93,3.0,,0.0,0.0,
2025-08-15T01:18:44.030Z,9,GR86-049-88,20.5,0.238,0.609,99.96,3.0,,0.0,0.0,
2025-08-15T01:18:44.073Z,9,GR86-049-88,20.4,0.129,0.578,99.94,3.0,,0.0,0.0,
2025-08-15T01:18:44.116Z,9,GR86-049-88,19.9,0.145,0.5700000000000001,99.93,3.0,6841.0,0.0,0.0,
2025-08-15T01:18:44.202Z,9,GR86-049-88,19.0,0.219,0.526,99.93,3.0,,0.0,0.0,147.07
2025-08-15T01:18:44.246Z,9,GR86-049-88,16.5,0.171,0.488,99.94,3.0,,0.0,0.0,
2025-08-15T01:18:44.289Z,9,GR86-049-88,14.8,0.198,0.48,99.93,3.0,,0.0,0.0,
2025-08-15T01:18:44.331Z,9,GR86-049-88,12.9,0.23,0.424,99.92,3.0,7016.0,0.0,0.0,
2025-08-15T01:18:44.374Z,9,GR86-049-88,11.1,0.219,0.36,99.95,3.0,,0.0,0.0,148.89
2025-08-15T01:18:44.417Z,9,GR86-049-88,9.5,0.154,0.268,99.93,3.0,,0.0,0.0,
2025-08-15T01:18:44.460Z,9,GR86-049-88,8.4,0.214,0.259,99.94,3.0,,0.0,0.0,
2025-08-15T01:18:44.503Z,9,GR86-049-88,8.200000000000001,0.198,0.179,99.96,3.0,,0.0,0.0,
2025-08-15T01:18:44.546Z,9,GR86-049-88,8.1,0.15,0.145,99.93,3.0,7091.0,0.0,0.0,
2025-08-15T01:18:44.589Z,9,GR86-049-88,7.6,0.164,0.147,99.94,3.0,,0.0,0.0,150.28
2025-08-15T01:18:44.632Z,9,GR86-049-88,7.2,0.195,0.143,99.94,3.0,,0.0,0.0,
2025-08-15T01:18:44.675Z,9,GR86-049-88,6.9,0.229,0.111,99.96,3.0,,0.0,0.0,
2025-08-15T01:18:44.720Z,9,GR86-049-88,6.300000000000001,0.184,0.05,99.94,3.0,,0.0,0.0,
2025-08-15T01:18:44.763Z,9,GR86-049-88,5.9,0.195,0.054,99.96,3.0,7145.0,0.0,0.0,
2025-08-15T01:18:44.850Z,9,GR86-049-88,5.800000000000001,0.195,0.026,99.94,3.0,,0.0,0.0,151.82
2025-08-15T01:18:44.893Z,9,GR86-049-88,5.800000000000001,0.158,-0.003,99.93,3.0,,0.0,0.0,
2025-08-15T01:18:44.936Z,9,GR86-049-88,5.7,0.141,0.002,99.93,3.0,,0.0,0.0,
2025-08-15T01:18:44.980Z,9,GR86-049-88,5.4,-0.14,0.012,99.93,4.0,7222.0,0.0,0.0,
2025-08-15T01:18:45.023Z,9,GR86-049-88,4.9,0.221,0.009,99.93,4.0,,0.0,0.0,153.41
2025-08-15T01:18:45.066Z,9,GR86-049-88,4.800000000000001,0.311,-0.093,99.96,4.0,,0.0,0.0,
2025-08-15T01:18:45.109Z,9,GR86-049-88,4.800000000000001,0.241,-0.063,99.94,4.0,,0.0,0.0,
2025-08-15T01:18:45.152Z,9,GR86-049-88,4.7,0.1,0.044,99.93,4.0,,0.0,0.0,
2025-08-15T01:18:45.195Z,9,GR86-049-88,4.3,0.086,-0.033,99.93,4.0,7296.0,0.0,0.0,
2025-08-15T01:18:45.239Z,9,GR86-049-88,4.1000000000000005,0.155,-0.011,99.94,4.0,,0.0,0.0,155.16
2025-08-15T01:18:45.282Z,9,GR86-049-88,3.9,0.192,-0.013,99.93,4.0,,0.0,0.0,
2025-08-15T01:18:45.325Z,9,GR86-049-88,3.8,0.152,-0.067,99.94,4.0,,0.0,0.0,
2025-08-15T01:18:45.369Z,9,GR86-049-88,3.5,0.164,-0.011,99.94,4.0,,0.0,0.0,
2025-08-15T01:18:45.411Z,9,GR86-049-88,2.6,0.176,-0.067,99.93,4.0,6128.0,0.0,0.0,
2025-08-15T01:18:45.497Z,9,GR86-049-88,1.7000000000000002,0.123,-0.082,99.92,4.0,,0.0,0.0,156.68
2025-08-15T01:18:45.540Z,9,GR86-049-88,1.5,0.18,-0.079,99.94,4.0,,0.0,0.0,
2025-08-15T01:18:45.583Z,9,GR86-049-88,0.9,0.142,-0.107,99.93,4.0,,0.0,0.0,
2025-08-15T01:18:45.626Z,9,GR86-049-88,0.5,0.14,-0.135,99.94,4.0,6232.0,0.0,0.0,
2025-08-15T01:18:45.669Z,9,GR86-049-88,0.5,0.123,-0.183,99.93,4.0,,0.0,0.0,158.47
2025-08-15T01:18:45.712Z,9,GR86-049-88,0.4,0.08,-0.204,99.96,4.0,,0.0,0.0,
2025-08-15T01:18:45.755Z,9,GR86-049-88,0.3,0.102,-0.174,99.94,4.0,,0.0,0.0,
2025-08-15T01:18:45.799Z,9,GR86-049-88,0.3,0.139,-0.204,99.92,4.0,,0.0,0.0,
2025-08-15T01:18:45.841Z,9,GR86-049-88,0.1,0.125,-0.182,99.94,4.0,6315.0,0.0,0.0,
2025-08-15T01:18:45.927Z,9,GR86-049-88,-0.2,0.081,-0.203,99.94,4.0,,0.0,0.0,160.06
2025-08-15T01:18:45.970Z,9,GR86-049-88,-0.2,0.106,-0.194,99.94,4.0,,0.0,0.0,
2025-08-15T01:18:46.013Z,9,GR86-049-88,0.2,0.145,-0.179,99.95,4.0,,0.0,0.0,
2025-08-15T01:18:46.056Z,9,GR86-049-88,1.4,0.174,-0.159,99.94,4.0,6358.0,0.0,0.0,
2025-08-15T01:18:46.100Z,9,GR86-049-88,4.1000000000000005,0.068,-0.143,99.95,4.0,,0.0,0.0,161.53
2025-08-15T01:18:46.142Z,9,GR86-049-88,5.0,0.095,-0.106,99.93,4.0,,0.0,0.0,
2025-08-15T01:18:46.185Z,9,GR86-049-88,5.0,0.108,-0.044,99.95,4.0,,0.0,0.0,
2025-08-15T01:18:46.228Z,9,GR86-049-88,5.1000000000000005,0.148,0.003,99.94,4.0,,0.0,0.0,
2025-08-15T01:18:46.271Z,9,GR86-049-88,5.0,0.175,0.033,99.94,4.0,6422.0,0.0,0.0,
2025-08-15T01:18:46.359Z,9,GR86-049-88,4.800000000000001,0.192,0.051,99.92,4.0,,0.0,0.0,163.11
2025-08-15T01:18:46.401Z,9,GR86-049-88,3.5,0.103,0.049,99.93,4.0,,0.0,0.0,
2025-08-15T01:18:46.444Z,9,GR86-049-88,2.7,0.128,0.043,99.94,4.0,,0.0,0.0,
2025-08-15T01:18:46.487Z,9,GR86-049-88,1.7000000000000002,0.149,-0.002,99.94,4.0,6489.0,0.0,0.0,
2025-08-15T01:18:46.530Z,9,GR86-049-88,0.7000000000000001,0.192,-0.032,99.92,4.0,,0.0,0.0,166.09
2025-08-15T01:18:46.573Z,9,GR86-049-88,-0.4,0.18,-0.071,99.93,4.0,,0.0,0.0,
2025-08-15T01:18:46.616Z,9,GR86-049-88,-1.0,0.19,-0.133,99.95,4.0,,0.0,0.0,
2025-08-15T01:18:46.660Z,9,GR86-049-88,-1.5,0.092,-0.188,99.94,4.0,,0.0,0.0,
2025-08-15T01:18:46.702Z,9,GR86-049-88,-1.7000000000000002,0.121,-0.208,99.92,4.0,6547.0,0.0,0.0,
2025-08-15T01:18:46.789Z,9,GR86-049-88,-1.8,0.133,-0.222,99.94,4.0,,0.0,0.0,167.58
2025-08-15T01:18:46.832Z,9,GR86-049-88,-4.0,0.181,-0.238,99.95,4.0,,0.0,0.0,
2025-08-15T01:18:46.875Z,9,GR86-049-88,-5.9,0.173,-0.266,99.94,4.0,,0.0,0.0,
2025-08-15T01:18:46.920Z,9,GR86-049-88,-7.5,0.076,-0.341,99.93,4.0,6659.0,0.0,0.0,
2025-08-15T01:18:46.963Z,9,GR86-049-88,-7.6,0.088,-0.373,99.93,4.0,,0.0,0.0,168.96
2025-08-15T01:18:47.006Z,9,GR86-049-88,-7.7,0.083,-0.395,99.94,4.0,,0.0,0.0,
2025-08-15T01:18:47.049Z,9,GR86-049-88,-7.7,0.116,-0.416,99.93,4.0,,0.0,0.0,
2025-08-15T01:18:47.092Z,9,GR86-049-88,-7.7,0.138,-0.453,99.93,4.0,,0.0,0.0,
2025-08-15T01:18:47.135Z,9,GR86-049-88,-7.5,0.153,-0.447,99.93,4.0,6724.0,0.0,0.0,
2025-08-15T01:18:47.221Z,9,GR86-049-88,-7.300000000000001,0.078,-0.491,99.94,4.0,,0.0,0.0,170.22
2025-08-15T01:18:47.265Z,9,GR86-049-88,-9.2,0.058,-0.504,99.93,4.0,,0.0,0.0,
2025-08-15T01:18:47.308Z,9,GR86-049-88,-9.9,0.085,-0.486,99.95,4.0,,0.0,0.0,
2025-08-15T01:18:47.351Z,9,GR86-049-88,-10.0,0.069,-0.481,99.92,4.0,6762.0,0.0,0.0,
2025-08-15T01:18:47.437Z,9,GR86-049-88,-6.6000000000000005,0.097,-0.479,99.93,4.0,,0.0,0.0,171.72
2025-08-15T01:18:47.480Z,9,GR86-049-88,-3.2,0.129,-0.45,99.92,4.0,,0.0,0.0,
2025-08-15T01:18:47.523Z,9,GR86-049-88,-2.8000000000000003,0.128,-0.416,99.94,4.0,,0.0,0.0,
2025-08-15T01:18:47.566Z,9,GR86-049-88,-2.7,0.11,-0.4,99.93,4.0,6819.0,0.0,0.0,
2025-08-15T01:18:47.609Z,9,GR86-049-88,-2.5,0.106,-0.355,99.93,4.0,,0.0,0.0,173.08
2025-08-15T01:18:47.652Z,9,GR86-049-88,-2.2,0.102,-0.296,99.92,4.0,,0.0,0.0,
2025-08-15T01:18:47.695Z,9,GR86-049-88,-1.8,0.089,-0.252,99.92,4.0,,0.0,0.0,
2025-08-15T01:18:47.739Z,9,GR86-049-88,-1.7000000000000002,0.178,-0.16,99.93,4.0,,0.0,0.0,
2025-08-15T01:18:47.782Z,9,GR86-049-88,-1.7000000000000002,0.186,-0.126,99.93,4.0,6881.0,0.0,0.0,
2025-08-15T01:18:47.825Z,9,GR86-049-88,-1.7000000000000002,0.174,-0.129,99.93,4.0,,0.0,0.0,174.36
2025-08-15T01:18:47.869Z,9,GR86-049-88,-1.7000000000000002,0.176,-0.133,65.13,4.0,,0.0,0.0,
2025-08-15T01:18:47.911Z,9,GR86-049-88,-1.7000000000000002,0.175,-0.132,5.41,4.0,,0.0,0.0,
2025-08-15T01:18:47.954Z,9,GR86-049-88,-1.2000000000000002,0.134,-0.133,4.5600000000000005,4.0,,0.0,0.0,
2025-08-15T01:18:47.997Z,9,GR86-049-88,0.0,-0.052,-0.094,4.1,4.0,6918.0,2.52,2.915,
2025-08-15T01:18:48.040Z,9,GR86-049-88,0.5,-0.426,-0.073,3.65,4.0,,31.33,31.45,175.83
2025-08-15T01:18:48.083Z,9,GR86-049-88,0.5,-0.863,-0.088,3.41,4.0,,42.425,41.965,
2025-08-15T01:18:48.126Z,9,GR86-049-88,0.5,-0.892,-0.017,3.15,4.0,,54.265,53.64,
2025-08-15T01:18:48.169Z,9,GR86-049-88,0.5,-1.165,-0.084,2.88,4.0,,61.97,61.33,
2025-08-15T01:18:48.212Z,9,GR86-049-88,0.8,-1.071,-0.048,2.74,4.0,6977.0,64.03,64.0,
2025-08-15T01:18:48.255Z,9,GR86-049-88,3.5,-1.234,-0.053,2.64,4.0,,62.245000000000005,63.205,177.02
2025-08-15T01:18:48.299Z,9,GR86-049-88,5.4,-1.196,-0.088,2.57,4.0,,54.495000000000005,56.095,
2025-08-15T01:18:48.343Z,9,GR86-049-88,5.300000000000001,-1.178,-0.038,21.38,4.0,,51.715,53.395,
2025-08-15T01:18:48.386Z,9,GR86-049-88,3.9,-1.125,-0.045,65.25,4.0,,52.68,53.455,
2025-08-15T01:18:48.430Z,9,GR86-049-88,1.7000000000000002,-1.152,-0.05,83.11,3.0,6800.0,61.545,61.175,
2025-08-15T01:18:48.473Z,9,GR86-049-88,0.2,-1.379,-0.077,17.38,3.0,,74.925,74.56,177.34
2025-08-15T01:18:48.516Z,9,GR86-049-88,-0.2,-1.331,-0.003,3.37,3.0,,87.15,88.86,
2025-08-15T01:18:48.560Z,9,GR86-049-88,1.0,-1.311,-0.234,3.0,3.0,,92.935,93.055,
2025-08-15T01:18:48.645Z,9,GR86-049-88,2.9000000000000004,-1.453,-0.046,2.82,3.0,6158.0,93.68,95.085,
2025-08-15T01:18:48.689Z,9,GR86-049-88,3.0,-1.141,-0.242,2.68,3.0,,85.38,86.125,170.08
2025-08-15T01:18:48.732Z,9,GR86-049-88,2.9000000000000004,-1.315,-0.139,2.64,3.0,,77.14,77.765,
2025-08-15T01:18:48.775Z,9,GR86-049-88,1.3,-1.192,-0.297,2.58,3.0,,72.395,73.935,
2025-08-15T01:18:48.820Z,9,GR86-049-88,-0.9,-1.051,-0.358,2.54,3.0,,58.245000000000005,58.735,
2025-08-15T01:18:48.863Z,9,GR86-049-88,-0.4,-1.144,-0.338,2.52,3.0,6629.0,50.815,51.9,
2025-08-15T01:18:48.906Z,9,GR86-049-88,0.8,-0.938,-0.33,2.52,3.0,,46.71,48.205,162.86
2025-08-15T01:18:48.949Z,9,GR86-049-88,0.8,-0.992,-0.34,2.51,3.0,,46.465,47.245,
2025-08-15T01:18:48.992Z,9,GR86-049-88,-0.4,-1.024,-0.34,2.51,3.0,,49.7,50.04,
2025-08-15T01:18:49.078Z,9,GR86-049-88,-1.4,-1.12,-0.353,2.5,3.0,6506.0,55.805,56.34,
2025-08-15T01:18:49.121Z,9,GR86-049-88,-5.1000000000000005,-1.157,-0.419,42.78,2.0,,58.795,59.42,144.91
2025-08-15T01:18:49.164Z,9,GR86-049-88,-4.3,-1.164,-0.333,5.41,2.0,,52.555,53.99,
2025-08-15T01:18:49.207Z,9,GR86-049-88,-0.4,-1.035,-0.396,4.21,2.0,,46.8,48.42,
2025-08-15T01:18:49.250Z,9,GR86-049-88,2.3000000000000003,-1.022,-0.655,3.9,2.0,,46.435,47.125,
2025-08-15T01:18:49.293Z,9,GR86-049-88,3.3000000000000003,-1.162,-0.298,3.67,2.0,6405.0,47.4,48.59,
2025-08-15T01:18:49.336Z,9,GR86-049-88,3.6,-1.024,-0.611,3.52,2.0,,48.39,49.73,138.63
2025-08-15T01:18:49.380Z,9,GR86-049-88,6.5,-1.136,-0.663,3.17,2.0,,47.275,47.9,
2025-08-15T01:18:49.423Z,9,GR86-049-88,13.1,-0.861,-0.588,2.9,2.0,,48.525,49.64,
2025-08-15T01:18:49.466Z,9,GR86-049-88,18.5,-0.945,-0.8160000000000001,2.7,2.0,,49.61,50.68,
2025-08-15T01:18:49.509Z,9,GR86-049-88,18.9,-0.884,-0.765,2.61,2.0,6062.0,45.72,46.495,
2025-08-15T01:18:49.552Z,9,GR86-049-88,17.5,-0.786,-0.739,2.53,2.0,,36.515,37.615,132.7
2025-08-15T01:18:49.595Z,9,GR86-049-88,14.9,-0.6910000000000001,-0.8280000000000001,2.48,2.0,,27.53,28.615,
2025-08-15T01:18:49.639Z,9,GR86-049-88,5.9,-0.641,-0.8130000000000001,2.45,2.0,,20.905,21.56,
2025-08-15T01:18:49.681Z,9,GR86-049-88,-4.2,-0.653,-0.861,2.45,2.0,,19.9,20.355,
2025-08-15T01:18:49.725Z,9,GR86-049-88,-17.3,-0.614,-0.881,2.45,2.0,6519.0,20.45,20.845,
2025-08-15T01:18:49.769Z,9,GR86-049-88,-30.9,-0.591,-0.893,2.45,2.0,,21.21,21.5,126.17
2025-08-15T01:18:49.811Z,9,GR86-049-88,-38.6,-0.624,-0.88,2.45,2.0,,22.16,22.495,
2025-08-15T01:18:49.854Z,9,GR86-049-88,-38.900000000000006,-0.7010000000000001,-0.899,2.45,2.0,,23.12,23.745,
2025-08-15T01:18:49.897Z,9,GR86-049-88,-36.2,-0.6990000000000001,-0.892,2.45,2.0,,24.02,24.235,
2025-08-15T01:18:49.940Z,9,GR86-049-88,-35.7,-0.707,-0.875,2.45,2.0,6619.0,25.455,25.635,
2025-08-15T01:18:49.983Z,9,GR86-049-88,-38.7,-0.725,-0.882,2.45,2.0,,26.05,26.6,120.89
2025-08-15T01:18:50.026Z,9,GR86-049-88,-39.0,-0.753,-0.948,2.45,2.0,,23.715,24.43,
2025-08-15T01:18:50.069Z,9,GR86-049-88,-33.2,-0.609,-0.967,2.45,2.0,,11.87,12.27,
2025-08-15T01:18:50.112Z,9,GR86-049-88,-26.5,-0.288,-1.086,2.45,2.0,,2.7,3.22,
2025-08-15T01:18:50.155Z,9,GR86-049-88,-25.8,-0.254,-1.016,2.45,2.0,6340.0,0.0,0.0,
2025-08-15T01:18:50.199Z,9,GR86-049-88,-31.700000000000003,-0.198,-1.051,2.45,2.0,,0.0,0.0,116.54
2025-08-15T01:18:50.242Z,9,GR86-049-88,-36.9,-0.199,-1.106,2.45,2.0,,0.0,0.0,
2025-08-15T01:18:50.285Z,9,GR86-049-88,-40.900000000000006,-0.184,-1.191,2.45,2.0,,0.0,0.0,
2025-08-15T01:18:50.328Z,9,GR86-049-88,-47.900000000000006,-0.186,-1.153,2.47,2.0,,0.0,0.0,
2025-08-15T01:18:50.371Z,9,GR86-049-88,-58.5,-0.232,-1.224,2.46,2.0,6101.0,0.0,0.0,
2025-08-15T01:18:50.415Z,9,GR86-049-88,-66.9,-0.224,-1.207,2.48,2.0,,0.0,0.0,112.74
2025-08-15T01:18:50.458Z,9,GR86-049-88,-68.8,-0.228,-1.22,2.46,2.0,,0.0,0.0,
2025-08-15T01:18:50.501Z,9,GR86-049-88,-68.8,-0.237,-1.239,2.45,2.0,,0.0,0.0,
2025-08-15T01:18:50.544Z,9,GR86-049-88,-69.0,-0.212,-1.232,2.45,2.0,,0.0,0.0,
2025-08-15T01:18:50.587Z,9,GR86-049-88,-69.10000000000001,-0.252,-1.322,2.65,2.0,6125.0,0.0,0.0,
2025-08-15T01:18:50.630Z,9,GR86-049-88,-69.10000000000001,-0.226,-1.337,6.8500000000000005,2.0,,0.0,0.0,110.88
2025-08-15T01:18:50.673Z,9,GR86-049-88,-69.10000000000001,-0.226,-1.31,20.51,2.0,,0.0,0.0,
2025-08-15T01:18:50.716Z,9,GR86-049-88,-65.60000000000001,-0.258,-1.415,27.98,2.0,,0.0,0.0,
2025-08-15T01:18:50.760Z,9,GR86-049-88,-49.1,-0.186,-1.389,31.3,2.0,,0.0,0.0,
2025-08-15T01:18:50.802Z,9,GR86-049-88,-38.3,-0.132,-1.357,33.4,2.0,6050.0,0.0,0.0,
2025-08-15T01:18:50.845Z,9,GR86-049-88,-34.6,-0.131,-1.394,35.67,2.0,,0.0,0.0,109.1
2025-08-15T01:18:50.889Z,9,GR86-049-88,-35.0,0.099,-1.327,36.02,2.0,,0.0,0.0,
2025-08-15T01:18:50.931Z,9,GR86-049-88,-39.0,0.187,-1.307,36.66,2.0,,0.0,0.0,
2025-08-15T01:18:51.017Z,9,GR86-049-88,-48.2,0.194,-1.303,37.4,2.0,5935.0,0.0,0.0,
2025-08-15T01:18:51.060Z,9,GR86-049-88,-65.0,0.103,-1.26,38.45,2.0,,0.0,0.0,108.08
2025-08-15T01:18:51.103Z,9,GR86-049-88,-65.60000000000001,0.102,-1.27,41.58,2.0,,0.0,0.0,
2025-08-15T01:18:51.146Z,9,GR86-049-88,-65.60000000000001,0.081,-1.301,77.81,2.0,,0.0,0.0,
2025-08-15T01:18:51.189Z,9,GR86-049-88,-65.2,0.144,-1.308,99.94,2.0,,0.0,0.0,
2025-08-15T01:18:51.232Z,9,GR86-049-88,-63.400000000000006,0.211,-1.364,99.89,2.0,6325.0,0.0,0.0,
2025-08-15T01:18:51.275Z,9,GR86-049-88,-59.3,0.231,-1.308,99.87,2.0,,0.0,0.0,106.93
2025-08-15T01:18:51.320Z,9,GR86-049-88,-53.0,0.207,-1.152,99.89,2.0,,0.0,0.0,
2025-08-15T01:18:51.363Z,9,GR86-049-88,-51.900000000000006,0.308,-1.213,99.88,2.0,,0.0,0.0,
2025-08-15T01:18:51.406Z,9,GR86-049-88,-51.900000000000006,0.357,-1.117,99.89,2.0,,0.0,0.0,
2025-08-15T01:18:51.450Z,9,GR86-049-88,-51.7,0.205,-1.024,99.89,2.0,6229.0,0.0,0.0,
2025-08-15T01:18:51.493Z,9,GR86-049-88,-48.900000000000006,0.009,-1.106,99.89,2.0,,0.0,0.0,106.18
2025-08-15T01:18:51.536Z,9,GR86-049-88,-44.400000000000006,-0.064,-1.079,99.88,2.0,,0.0,0.0,
2025-08-15T01:18:51.580Z,9,GR86-049-88,-39.8,0.253,-1.249,99.89,2.0,,0.0,0.0,
2025-08-15T01:18:51.623Z,9,GR86-049-88,-38.400000000000006,0.177,-1.182,99.91,2.0,,0.0,0.0,
2025-08-15T01:18:51.666Z,9,GR86-049-88,-36.9,0.058,-1.115,99.89,2.0,6348.0,0.0,0.0,
2025-08-15T01:18:51.709Z,9,GR86-049-88,-35.9,-0.021,-1.143,99.89,2.0,,0.0,0.0,105.6
2025-08-15T01:18:51.752Z,9,GR86-049-88,-35.4,0.088,-1.096,99.9,2.0,,0.0,0.0,
2025-08-15T01:18:51.795Z,9,GR86-049-88,-34.7,0.103,-0.999,99.91,2.0,,0.0,0.0,
2025-08-15T01:18:51.839Z,9,GR86-049-88,-31.1,-0.023,-1.144,99.9,2.0,,0.0,0.0,
2025-08-15T01:18:51.882Z,9,GR86-049-88,-24.1,0.152,-1.125,99.9,2.0,6482.0,0.0,0.0,
2025-08-15T01:18:51.969Z,9,GR86-049-88,-14.9,0.375,-1.179,99.9,2.0,,0.0,0.0,107.41
2025-08-15T01:18:52.011Z,9,GR86-049-88,-16.0,0.257,-1.241,99.91,2.0,,0.0,0.0,
2025-08-15T01:18:52.054Z,9,GR86-049-88,-18.5,0.244,-1.144,99.92,2.0,,0.0,0.0,
2025-08-15T01:18:52.140Z,9,GR86-049-88,-17.8,0.182,-1.034,99.9,2.0,6558.0,0.0,0.0,108.36
2025-08-15T01:18:52.183Z,9,GR86-049-88,-14.3,0.196,-1.194,99.89,2.0,,0.0,0.0,
2025-08-15T01:18:52.226Z,9,GR86-049-88,-11.1,0.235,-1.117,99.9,2.0,,0.0,0.0,
2025-08-15T01:18:52.269Z,9,GR86-049-88,-8.3,0.227,-1.134,99.91,2.0,,0.0,0.0,
2025-08-15T01:18:52.312Z,9,GR86-049-88,-5.0,0.254,-1.11,99.89,2.0,6663.0,0.0,0.0,
2025-08-15T01:18:52.355Z,9,GR86-049-88,-2.0,0.217,-1.092,99.89,2.0,,0.0,0.0,109.87
2025-08-15T01:18:52.399Z,9,GR86-049-88,2.5,0.235,-1.164,99.91,2.0,,0.0,0.0,
2025-08-15T01:18:52.441Z,9,GR86-049-88,5.4,0.246,-1.235,99.89,2.0,,0.0,0.0,
2025-08-15T01:18:52.484Z,9,GR86-049-88,7.800000000000001,0.266,-1.226,99.89,2.0,,0.0,0.0,
2025-08-15T01:18:52.527Z,9,GR86-049-88,9.9,0.232,-1.251,99.9,2.0,6706.0,0.0,0.0,
2025-08-15T01:18:52.570Z,9,GR86-049-88,11.4,0.283,-1.248,99.91,2.0,,0.0,0.0,110.79
2025-08-15T01:18:52.613Z,9,GR86-049-88,11.9,0.299,-1.178,99.89,2.0,,0.0,0.0,
2025-08-15T01:18:52.700Z,9,GR86-049-88,12.0,0.276,-1.124,99.91,2.0,,0.0,0.0,
2025-08-15T01:18:52.742Z,9,GR86-049-88,9.4,0.243,-0.988,99.94,2.0,6761.0,0.0,0.0,
2025-08-15T01:18:52.785Z,9,GR86-049-88,-1.7000000000000002,0.267,-1.058,99.95,2.0,,0.0,0.0,112.09
2025-08-15T01:18:52.828Z,9,GR86-049-88,-17.6,0.295,-1.066,99.96,2.0,,0.0,0.0,
2025-08-15T01:18:52.871Z,9,GR86-049-88,-31.9,0.273,-1.045,99.94,2.0,,0.0,0.0,
2025-08-15T01:18:52.915Z,9,GR86-049-88,-39.6,0.219,-1.097,99.94,2.0,,0.0,0.0,
2025-08-15T01:18:52.959Z,9,GR86-049-88,-40.900000000000006,0.195,-1.094,99.9,2.0,6748.0,0.0,0.0,
2025-08-15T01:18:53.001Z,9,GR86-049-88,-40.7,0.24,-0.974,99.9,2.0,,0.0,0.0,112.93
2025-08-15T01:18:53.044Z,9,GR86-049-88,-40.5,0.262,-1.052,99.91,2.0,,0.0,0.0,
2025-08-15T01:18:53.087Z,9,GR86-049-88,-40.5,0.231,-0.974,99.89,2.0,,0.0,0.0,
2025-08-15T01:18:53.130Z,9,GR86-049-88,-40.6,0.198,-0.94,99.9,2.0,,0.0,0.0,
2025-08-15T01:18:53.173Z,9,GR86-049-88,-40.400000000000006,0.2,-1.034,99.89,2.0,6739.0,0.0,0.0,
2025-08-15T01:18:53.216Z,9,GR86-049-88,-40.400000000000006,0.219,-1.005,99.92,2.0,,0.0,0.0,113.59
2025-08-15T01:18:53.260Z,9,GR86-049-88,-39.900000000000006,0.235,-1.026,99.89,2.0,,0.0,0.0,
2025-08-15T01:18:53.302Z,9,GR86-049-88,-38.7,0.195,-1.083,99.9,2.0,,0.0,0.0,
2025-08-15T01:18:53.345Z,9,GR86-049-88,-37.2,0.213,-1.057,99.92,2.0,,0.0,0.0,
2025-08-15T01:18:53.389Z,9,GR86-049-88,-36.7,0.229,-1.042,99.93,2.0,6775.0,0.0,0.0,
2025-08-15T01:18:53.432Z,9,GR86-049-88,-36.7,0.192,-1.076,99.91,2.0,,0.0,0.0,114.92
2025-08-15T01:18:53.475Z,9,GR86-049-88,-36.5,0.219,-1.059,99.91,2.0,,0.0,0.0,
2025-08-15T01:18:53.520Z,9,GR86-049-88,-35.0,0.222,-1.081,99.89,2.0,,0.0,0.0,
2025-08-15T01:18:53.563Z,9,GR86-049-88,-33.2,0.224,-1.057,99.9,2.0,,0.0,0.0,
2025-08-15T01:18:53.606Z,9,GR86-049-88,-31.4,0.171,-1.058,99.9,2.0,6877.0,0.0,0.0,
2025-08-15T01:18:53.649Z,9,GR86-049-88,-28.1,0.2,-1.079,99.89,2.0,,0.0,0.0,116.53
2025-08-15T01:18:53.692Z,9,GR86-049-88,-25.200000000000003,0.222,-1.084,99.91,2.0,,0.0,0.0,
2025-08-15T01:18:53.735Z,9,GR86-049-88,-22.700000000000003,0.175,-1.031,99.9,2.0,,0.0,0.0,
2025-08-15T01:18:53.779Z,9,GR86-049-88,-22.8,0.191,-0.634,99.9,2.0,,0.0,0.0,
2025-08-15T01:18:53.821Z,9,GR86-049-88,-26.3,0.255,-0.786,99.94,2.0,6985.0,0.0,0.0,
2025-08-15T01:18:53.865Z,9,GR86-049-88,-28.5,0.198,-0.61,99.9,2.0,,0.0,0.0,118.47
2025-08-15T01:18:53.907Z,9,GR86-049-88,-28.8,0.154,-0.758,99.91,2.0,,0.0,0.0,
2025-08-15T01:18:53.950Z,9,GR86-049-88,-28.200000000000003,0.242,-0.908,99.89,2.0,,0.0,0.0,
2025-08-15T01:18:53.993Z,9,GR86-049-88,-26.0,0.316,-0.905,99.9,2.0,,0.0,0.0,
2025-08-15T01:18:54.036Z,9,GR86-049-88,-25.6,0.267,-0.876,99.93,2.0,7034.0,0.0,0.0,
2025-08-15T01:18:54.080Z,9,GR86-049-88,-25.6,0.198,-0.96,99.92,2.0,,0.0,0.0,119.81
2025-08-15T01:18:54.123Z,9,GR86-049-88,-24.4,0.193,-0.783,99.93,2.0,,0.0,0.0,
2025-08-15T01:18:54.166Z,9,GR86-049-88,-20.3,0.184,-0.851,99.93,2.0,,0.0,0.0,
2025-08-15T01:18:54.209Z,9,GR86-049-88,-15.5,0.184,-0.865,99.9,2.0,,0.0,0.0,
2025-08-15T01:18:54.252Z,9,GR86-049-88,-12.9,0.194,-0.728,99.9,2.0,7177.0,0.0,0.0,
2025-08-15T01:18:54.295Z,9,GR86-049-88,-12.5,0.288,-0.704,99.91,2.0,,0.0,0.0,120.8
2025-08-15T01:18:54.339Z,9,GR86-049-88,-13.2,0.136,-0.642,99.89,2.0,,0.0,0.0,
2025-08-15T01:18:54.381Z,9,GR86-049-88,-15.2,-0.112,-0.467,99.94,3.0,,0.0,0.0,
2025-08-15T01:18:54.424Z,9,GR86-049-88,-16.1,0.508,-0.619,99.9,3.0,,0.0,0.0,
2025-08-15T01:18:54.467Z,9,GR86-049-88,-15.8,0.423,-0.774,99.92,3.0,7163.0,0.0,0.0,
2025-08-15T01:18:54.553Z,9,GR86-049-88,-13.0,0.19,-0.593,99.92,3.0,,0.0,0.0,122.46
2025-08-15T01:18:54.596Z,9,GR86-049-88,-13.0,0.104,-0.624,99.92,3.0,,0.0,0.0,
2025-08-15T01:18:54.640Z,9,GR86-049-88,-12.9,0.187,-0.266,99.92,3.0,,0.0,0.0,
2025-08-15T01:18:54.682Z,9,GR86-049-88,-10.8,0.113,-0.378,99.92,3.0,7256.0,0.0,0.0,
2025-08-15T01:18:54.725Z,9,GR86-049-88,-5.7,0.407,-0.372,99.92,3.0,,0.0,0.0,125.39
2025-08-15T01:18:54.768Z,9,GR86-049-88,-2.5,0.291,-0.327,99.9,3.0,,0.0,0.0,
2025-08-15T01:18:54.811Z,9,GR86-049-88,-1.2000000000000002,0.282,-0.174,99.89,3.0,,0.0,0.0,
2025-08-15T01:18:54.897Z,9,GR86-049-88,-0.6000000000000001,0.249,-0.28,99.92,3.0,5948.0,0.0,0.0,
2025-08-15T01:18:54.940Z,9,GR86-049-88,1.4,0.219,-0.068,99.93,3.0,,0.0,0.0,127.2
2025-08-15T01:18:54.983Z,9,GR86-049-88,1.1,0.226,-0.238,99.93,3.0,,0.0,0.0,
2025-08-15T01:18:55.026Z,9,GR86-049-88,0.8,0.126,0.004,99.92,3.0,,0.0,0.0,
2025-08-15T01:18:55.069Z,9,GR86-049-88,0.5,0.19,0.132,99.9,3.0,,0.0,0.0,
2025-08-15T01:18:55.112Z,9,GR86-049-88,0.6000000000000001,0.2,-0.013,99.91,3.0,6112.0,0.0,0.0,
2025-08-15T01:18:55.155Z,9,GR86-049-88,1.1,0.248,0.076,99.93,3.0,,0.0,0.0,128.68
2025-08-15T01:18:55.200Z,9,GR86-049-88,2.0,0.239,0.009,99.92,3.0,,0.0,0.0,
2025-08-15T01:18:55.243Z,9,GR86-049-88,2.2,0.185,0.016,99.93,3.0,,0.0,0.0,
2025-08-15T01:18:55.286Z,9,GR86-049-88,2.4000000000000004,0.201,0.041,99.92,3.0,,0.0,0.0,
2025-08-15T01:18:55.330Z,9,GR86-049-88,2.8000000000000003,0.209,-0.076,99.93,3.0,6207.0,0.0,0.0,
2025-08-15T01:18:55.373Z,9,GR86-049-88,3.4000000000000004,0.206,-0.004,99.91,3.0,,0.0,0.0,130.07
2025-08-15T01:18:55.416Z,9,GR86-049-88,4.7,0.196,0.058,99.91,3.0,,0.0,0.0,
2025-08-15T01:18:55.460Z,9,GR86-049-88,6.800000000000001,0.195,0.059,99.93,3.0,,0.0,0.0,
2025-08-15T01:18:55.502Z,9,GR86-049-88,8.5,0.229,0.072,99.91,3.0,,0.0,0.0,
2025-08-15T01:18:55.545Z,9,GR86-049-88,9.1,0.198,0.046,99.91,3.0,6202.0,0.0,0.0,
2025-08-15T01:18:55.589Z,9,GR86-049-88,9.5,0.201,0.074,99.92,3.0,,0.0,0.0,131.94
2025-08-15T01:18:55.632Z,9,GR86-049-88,9.5,0.197,0.165,99.93,3.0,,0.0,0.0,
2025-08-15T01:18:55.675Z,9,GR86-049-88,9.5,0.21,0.173,99.93,3.0,,0.0,0.0,
2025-08-15T01:18:55.720Z,9,GR86-049-88,9.4,0.192,0.21,99.94,3.0,,0.0,0.0,
2025-08-15T01:18:55.763Z,9,GR86-049-88,9.2,0.209,0.17,99.92,3.0,6258.0,0.0,0.0,
2025-08-15T01:18:55.806Z,9,GR86-049-88,7.9,0.198,0.125,99.92,3.0,,0.0,0.0,133.27
2025-08-15T01:18:55.849Z,9,GR86-049-88,6.2,0.196,0.161,99.94,3.0,,0.0,0.0,
2025-08-15T01:18:55.892Z,9,GR86-049-88,5.2,0.217,0.137,99.91,3.0,,0.0,0.0,
2025-08-15T01:18:55.935Z,9,GR86-049-88,4.2,0.212,0.029,99.93,3.0,,0.0,0.0,
2025-08-15T01:18:55.978Z,9,GR86-049-88,3.4000000000000004,0.197,-0.016,99.93,3.0,6324.0,0.0,0.0,
2025-08-15T01:18:56.021Z,9,GR86-049-88,3.2,0.206,-0.062,99.93,3.0,,0.0,0.0,134.72
2025-08-15T01:18:56.064Z,9,GR86-049-88,3.3000000000000003,0.208,-0.056,99.92,3.0,,0.0,0.0,
2025-08-15T01:18:56.107Z,9,GR86-049-88,3.4000000000000004,0.204,-0.028,99.93,3.0,,0.0,0.0,
2025-08-15T01:18:56.150Z,9,GR86-049-88,4.1000000000000005,0.205,-0.071,99.91,3.0,,0.0,0.0,
2025-08-15T01:18:56.193Z,9,GR86-049-88,4.7,0.193,-0.098,99.93,3.0,6378.0,0.0,0.0,
2025-08-15T01:18:56.236Z,9,GR86-049-88,4.9,0.204,-0.055,99.93,3.0,,0.0,0.0,136.17000000000002
2025-08-15T01:18:56.280Z,9,GR86-049-88,4.9,0.21,-0.073,99.93,3.0,,0.0,0.0,
2025-08-15T01:18:56.322Z,9,GR86-049-88,5.0,0.198,0.01,99.9,3.0,,0.0,0.0,
2025-08-15T01:18:56.365Z,9,GR86-049-88,5.0,0.192,0.036,99.93,3.0,,0.0,0.0,
2025-08-15T01:18:56.408Z,9,GR86-049-88,5.0,0.196,0.004,99.93,3.0,6454.0,0.0,0.0,
2025-08-15T01:18:56.451Z,9,GR86-049-88,5.0,0.212,-0.045,99.93,3.0,,0.0,0.0,137.59
2025-08-15T01:18:56.494Z,9,GR86-049-88,5.0,0.198,-0.004,99.93,3.0,,0.0,0.0,
2025-08-15T01:18:56.539Z,9,GR86-049-88,5.1000000000000005,0.213,-0.03,99.93,3.0,,0.0,0.0,
2025-08-15T01:18:56.581Z,9,GR86-049-88,5.1000000000000005,0.217,0.037,99.92,3.0,,0.0,0.0,
2025-08-15T01:18:56.624Z,9,GR86-049-88,5.1000000000000005,0.19,0.081,99.93,3.0,6512.0,0.0,0.0,
2025-08-15T01:18:56.667Z,9,GR86-049-88,5.2,0.176,0.029,99.94,3.0,,0.0,0.0,138.93
2025-08-15T01:18:56.710Z,9,GR86-049-88,5.300000000000001,0.176,0.021,99.93,3.0,,0.0,0.0,
2025-08-15T01:18:56.753Z,9,GR86-049-88,5.300000000000001,0.219,0.04,99.93,3.0,,0.0,0.0,
2025-08-15T01:18:56.796Z,9,GR86-049-88,5.300000000000001,0.196,0.072,99.91,3.0,,0.0,0.0,
2025-08-15T01:18:56.840Z,9,GR86-049-88,5.300000000000001,0.21,0.018,99.94,3.0,6588.0,0.0,0.0,
2025-08-15T01:18:56.882Z,9,GR86-049-88,5.300000000000001,0.183,0.073,99.92,3.0,,0.0,0.0,140.29
2025-08-15T01:18:56.925Z,9,GR86-049-88,5.300000000000001,0.173,0.052,99.93,3.0,,0.0,0.0,
2025-08-15T01:18:56.968Z,9,GR86-049-88,5.300000000000001,0.201,0.013,99.93,3.0,,0.0,0.0,
2025-08-15T01:18:57.011Z,9,GR86-049-88,5.2,0.206,-0.001,99.93,3.0,,0.0,0.0,
2025-08-15T01:18:57.054Z,9,GR86-049-88,5.2,0.206,0.022,99.93,3.0,6649.0,0.0,0.0,
2025-08-15T01:18:57.097Z,9,GR86-049-88,5.2,0.182,0.054,99.93,3.0,,0.0,0.0,141.69
2025-08-15T01:18:57.140Z,9,GR86-049-88,5.2,0.207,0.017,99.92,3.0,,0.0,0.0,
2025-08-15T01:18:57.183Z,9,GR86-049-88,5.2,0.187,0.052,99.93,3.0,,0.0,0.0,
2025-08-15T01:18:57.226Z,9,GR86-049-88,5.300000000000001,0.186,0.022,99.91,3.0,,0.0,0.0,
2025-08-15T01:18:57.269Z,9,GR86-049-88,5.300000000000001,0.182,-0.005,99.93,3.0,6716.0,0.0,0.0,
2025-08-15T01:18:57.313Z,9,GR86-049-88,5.300000000000001,0.192,0.009,99.92,3.0,,0.0,0.0,143.07
2025-08-15T01:18:57.356Z,9,GR86-049-88,5.300000000000001,0.187,0.041,99.93,3.0,,0.0,0.0,
2025-08-15T01:18:57.400Z,9,GR86-049-88,5.2,0.21,-0.012,99.92,3.0,,0.0,0.0,
2025-08-15T01:18:57.442Z,9,GR86-049-88,5.1000000000000005,0.205,0.019,99.92,3.0,,0.0,0.0,
2025-08-15T01:18:57.485Z,9,GR86-049-88,5.1000000000000005,0.182,0.047,99.93,3.0,6767.0,0.0,0.0,
2025-08-15T01:18:57.528Z,9,GR86-049-88,5.1000000000000005,0.168,0.052,99.91,3.0,,0.0,0.0,145.77
2025-08-15T01:18:57.571Z,9,GR86-049-88,5.1000000000000005,0.185,-0.008,99.91,3.0,,0.0,0.0,
2025-08-15T01:18:57.615Z,9,GR86-049-88,5.1000000000000005,0.201,-0.025,99.94,3.0,,0.0,0.0,
2025-08-15T01:18:57.658Z,9,GR86-049-88,5.1000000000000005,0.17,-0.029,99.9,3.0,,0.0,0.0,
2025-08-15T01:18:57.701Z,9,GR86-049-88,5.1000000000000005,0.176,-0.045,99.93,3.0,6825.0,0.0,0.0,
2025-08-15T01:18:57.744Z,9,GR86-049-88,5.0,0.188,-0.026,99.91,3.0,,0.0,0.0,147.06
2025-08-15T01:18:57.787Z,9,GR86-049-88,4.9,0.208,-0.012,99.91,3.0,,0.0,0.0,
2025-08-15T01:18:57.830Z,9,GR86-049-88,4.800000000000001,0.184,0.007,99.9,3.0,,0.0,0.0,
2025-08-15T01:18:57.873Z,9,GR86-049-88,4.800000000000001,0.174,-0.029,99.92,3.0,,0.0,0.0,
2025-08-15T01:18:57.916Z,9,GR86-049-88,4.7,0.173,-0.053,99.91,3.0,6899.0,0.0,0.0,
2025-08-15T01:18:57.960Z,9,GR86-049-88,4.7,0.174,-0.038,99.93,3.0,,0.0,0.0,148.32
2025-08-15T01:18:58.002Z,9,GR86-049-88,4.7,0.173,-0.072,99.93,3.0,,0.0,0.0,
2025-08-15T01:18:58.046Z,9,GR86-049-88,4.6000000000000005,0.191,-0.068,99.92,3.0,,0.0,0.0,
2025-08-15T01:18:58.089Z,9,GR86-049-88,4.6000000000000005,0.184,-0.058,99.92,3.0,,0.0,0.0,
2025-08-15T01:18:58.132Z,9,GR86-049-88,4.7,0.19,-0.015,99.93,3.0,7001.0,0.0,0.0,
2025-08-15T01:18:58.175Z,9,GR86-049-88,4.7,0.174,0.005,99.92,3.0,,0.0,0.0,149.58
2025-08-15T01:18:58.220Z,9,GR86-049-88,4.5,0.186,-0.021,99.92,3.0,,0.0,0.0,
2025-08-15T01:18:58.263Z,9,GR86-049-88,3.9,0.188,0.016,99.92,3.0,,0.0,0.0,
2025-08-15T01:18:58.306Z,9,GR86-049-88,2.9000000000000004,0.171,-0.013,99.93,3.0,,0.0,0.0,
2025-08-15T01:18:58.350Z,9,GR86-049-88,2.1,0.174,-0.072,99.93,3.0,7051.0,0.0,0.0,
2025-08-15T01:18:58.393Z,9,GR86-049-88,1.7000000000000002,0.18,-0.118,99.93,3.0,,0.0,0.0,150.81
2025-08-15T01:18:58.436Z,9,GR86-049-88,1.1,0.182,-0.131,99.92,3.0,,0.0,0.0,
2025-08-15T01:18:58.480Z,9,GR86-049-88,0.0,0.172,-0.13,99.91,3.0,,0.0,0.0,
2025-08-15T01:18:58.523Z,9,GR86-049-88,-0.4,0.173,-0.168,99.93,3.0,,0.0,0.0,
2025-08-15T01:18:58.566Z,9,GR86-049-88,-0.4,0.184,-0.181,99.91,3.0,7122.0,0.0,0.0,
2025-08-15T01:18:58.609Z,9,GR86-049-88,-0.4,0.174,-0.184,99.92,3.0,,0.0,0.0,151.98
2025-08-15T01:18:58.652Z,9,GR86-049-88,-0.2,0.184,-0.163,99.93,3.0,,0.0,0.0,
2025-08-15T01:18:58.695Z,9,GR86-049-88,-0.1,0.162,-0.19,99.93,3.0,,0.0,0.0,
2025-08-15T01:18:58.740Z,9,GR86-049-88,0.1,0.159,-0.187,99.93,3.0,,0.0,0.0,
2025-08-15T01:18:58.782Z,9,GR86-049-88,0.4,0.176,-0.171,99.93,3.0,7179.0,0.0,0.0,
2025-08-15T01:18:58.825Z,9,GR86-049-88,0.8,0.176,-0.153,99.9,3.0,,0.0,0.0,153.21
2025-08-15T01:18:58.869Z,9,GR86-049-88,1.0,0.174,-0.172,99.91,3.0,,0.0,0.0,
2025-08-15T01:18:58.911Z,9,GR86-049-88,1.1,-0.049,-0.166,99.92,4.0,,0.0,0.0,
2025-08-15T01:18:58.954Z,9,GR86-049-88,1.2000000000000002,0.153,-0.127,99.93,4.0,,0.0,0.0,
2025-08-15T01:18:58.997Z,9,GR86-049-88,1.4,0.343,-0.174,99.9,4.0,7229.0,0.0,0.0,
2025-08-15T01:18:59.040Z,9,GR86-049-88,1.7000000000000002,0.237,-0.099,99.9,4.0,,0.0,0.0,154.4
2025-08-15T01:18:59.083Z,9,GR86-049-88,1.9,0.003,-0.068,99.9,4.0,,0.0,0.0,
2025-08-15T01:18:59.126Z,9,GR86-049-88,2.0,0.101,-0.167,99.92,4.0,,0.0,0.0,
2025-08-15T01:18:59.169Z,9,GR86-049-88,2.1,0.172,-0.017,99.93,4.0,,0.0,0.0,
2025-08-15T01:18:59.212Z,9,GR86-049-88,2.3000000000000003,0.214,-0.008,99.9,4.0,6945.0,0.0,0.0,
2025-08-15T01:18:59.255Z,9,GR86-049-88,2.4000000000000004,0.117,-0.085,99.9,4.0,,0.0,0.0,155.57
2025-08-15T01:18:59.299Z,9,GR86-049-88,2.4000000000000004,0.129,0.01,99.93,4.0,,0.0,0.0,
2025-08-15T01:18:59.342Z,9,GR86-049-88,2.5,0.163,-0.042,99.91,4.0,,0.0,0.0,
2025-08-15T01:18:59.385Z,9,GR86-049-88,2.5,0.155,0.001,99.91,4.0,,0.0,0.0,
2025-08-15T01:18:59.428Z,9,GR86-049-88,2.5,0.151,-0.019,99.9,4.0,6161.0,0.0,0.0,
2025-08-15T01:18:59.471Z,9,GR86-049-88,2.2,0.141,-0.071,99.92,4.0,,0.0,0.0,156.68
2025-08-15T01:18:59.515Z,9,GR86-049-88,2.0,0.164,-0.091,99.92,4.0,,0.0,0.0,
2025-08-15T01:18:59.559Z,9,GR86-049-88,2.0,0.163,-0.052,99.92,4.0,,0.0,0.0,
2025-08-15T01:18:59.601Z,9,GR86-049-88,2.0,0.162,-0.082,99.9,4.0,,0.0,0.0,
2025-08-15T01:18:59.644Z,9,GR86-049-88,2.1,0.156,-0.079,99.91,4.0,6227.0,0.0,0.0,
2025-08-15T01:18:59.687Z,9,GR86-049-88,2.1,0.153,-0.1,99.92,4.0,,0.0,0.0,157.82
2025-08-15T01:18:59.730Z,9,GR86-049-88,2.1,0.142,-0.1,99.9,4.0,,0.0,0.0,
2025-08-15T01:18:59.773Z,9,GR86-049-88,2.2,0.127,-0.033,99.93,4.0,,0.0,0.0,
2025-08-15T01:18:59.816Z,9,GR86-049-88,2.3000000000000003,0.136,-0.003,99.92,4.0,,0.0,0.0,
2025-08-15T01:18:59.859Z,9,GR86-049-88,2.4000000000000004,0.144,-0.022,99.92,4.0,6251.0,0.0,0.0,
2025-08-15T01:18:59.902Z,9,GR86-049-88,2.4000000000000004,0.138,-0.001,99.92,4.0,,0.0,0.0,158.84
2025-08-15T01:18:59.946Z,9,GR86-049-88,2.4000000000000004,0.132,-0.026,99.93,4.0,,0.0,0.0,
2025-08-15T01:18:59.989Z,9,GR86-049-88,2.4000000000000004,0.119,0.018,99.89,4.0,,0.0,0.0,
2025-08-15T01:19:00.032Z,9,GR86-049-88,2.4000000000000004,0.138,0.012,99.92,4.0,,0.0,0.0,
2025-08-15T01:19:00.075Z,9,GR86-049-88,2.4000000000000004,0.153,0.013,99.91,4.0,6285.0,0.0,0.0,
2025-08-15T01:19:00.120Z,9,GR86-049-88,2.4000000000000004,0.124,0.005,99.93,4.0,,0.0,0.0,160.75
2025-08-15T01:19:00.163Z,9,GR86-049-88,2.4000000000000004,0.125,-0.027,99.92,4.0,,0.0,0.0,
2025-08-15T01:19:00.206Z,9,GR86-049-88,2.4000000000000004,0.123,-0.023,99.95,4.0,,0.0,0.0,
2025-08-15T01:19:00.249Z,9,GR86-049-88,2.4000000000000004,0.145,-0.016,99.93,4.0,,0.0,0.0,
2025-08-15T01:19:00.292Z,9,GR86-049-88,2.4000000000000004,0.142,-0.041,99.93,4.0,6330.0,0.0,0.0,
2025-08-15T01:19:00.335Z,9,GR86-049-88,2.4000000000000004,0.155,-0.035,99.9,4.0,,0.0,0.0,161.70000000000002
2025-08-15T01:19:00.379Z,9,GR86-049-88,2.4000000000000004,0.114,-0.04,99.89,4.0,,0.0,0.0,
2025-08-15T01:19:00.422Z,9,GR86-049-88,2.4000000000000004,0.126,-0.045,99.92,4.0,,0.0,0.0,
2025-08-15T01:19:00.465Z,9,GR86-049-88,2.4000000000000004,0.14,-0.037,99.92,4.0,,0.0,0.0,
2025-08-15T01:19:00.508Z,9,GR86-049-88,2.4000000000000004,0.138,-0.045,99.93,4.0,6358.0,0.0,0.0,
2025-08-15T01:19:00.551Z,9,GR86-049-88,2.4000000000000004,0.164,-0.075,99.92,4.0,,0.0,0.0,162.62
2025-08-15T01:19:00.594Z,9,GR86-049-88,2.4000000000000004,0.145,-0.071,99.9,4.0,,0.0,0.0,
2025-08-15T01:19:00.639Z,9,GR86-049-88,2.4000000000000004,0.126,-0.058,99.91,4.0,,0.0,0.0,
2025-08-15T01:19:00.681Z,9,GR86-049-88,2.3000000000000003,0.143,-0.041,99.94,4.0,,0.0,0.0,
2025-08-15T01:19:00.724Z,9,GR86-049-88,2.2,0.151,-0.075,99.91,4.0,6436.0,0.0,0.0,
2025-08-15T01:19:00.767Z,9,GR86-049-88,2.2,0.158,-0.073,99.93,4.0,,0.0,0.0,163.59
2025-08-15T01:19:00.810Z,9,GR86-049-88,2.1,0.14,-0.07,99.93,4.0,,0.0,0.0,
2025-08-15T01:19:00.853Z,9,GR86-049-88,1.9,0.136,-0.081,99.9,4.0,,0.0,0.0,
2025-08-15T01:19:00.896Z,9,GR86-049-88,1.3,0.13,-0.059,99.92,4.0,,0.0,0.0,
2025-08-15T01:19:00.940Z,9,GR86-049-88,0.9,0.132,-0.095,99.9,4.0,6477.0,0.0,0.0,
2025-08-15T01:19:00.983Z,9,GR86-049-88,0.9,0.158,-0.108,99.95,4.0,,0.0,0.0,164.5
2025-08-15T01:19:01.026Z,9,GR86-049-88,0.9,0.14,-0.107,99.93,4.0,,0.0,0.0,
2025-08-15T01:19:01.069Z,9,GR86-049-88,1.0,0.132,-0.115,99.9,4.0,,0.0,0.0,
2025-08-15T01:19:01.112Z,9,GR86-049-88,1.0,0.131,-0.108,99.92,4.0,,0.0,0.0,
2025-08-15T01:19:01.155Z,9,GR86-049-88,1.0,0.137,-0.116,99.93,4.0,6508.0,0.0,0.0,
2025-08-15T01:19:01.200Z,9,GR86-049-88,1.0,0.171,-0.141,99.93,4.0,,0.0,0.0,165.52
2025-08-15T01:19:01.243Z,9,GR86-049-88,1.0,0.134,-0.129,99.93,4.0,,0.0,0.0,
2025-08-15T01:19:01.286Z,9,GR86-049-88,1.0,0.156,-0.125,99.92,4.0,,0.0,0.0,
2025-08-15T01:19:01.330Z,9,GR86-049-88,1.0,0.133,-0.114,99.93,4.0,,0.0,0.0,
2025-08-15T01:19:01.373Z,9,GR86-049-88,0.9,0.12,-0.085,99.92,4.0,6550.0,0.0,0.0,
2025-08-15T01:19:01.416Z,9,GR86-049-88,0.9,0.133,-0.071,99.93,4.0,,0.0,0.0,166.52
2025-08-15T01:19:01.460Z,9,GR86-049-88,0.7000000000000001,0.146,-0.128,99.9,4.0,,0.0,0.0,
2025-08-15T01:19:01.502Z,9,GR86-049-88,0.5,0.134,-0.152,99.93,4.0,,0.0,0.0,
2025-08-15T01:19:01.545Z,9,GR86-049-88,0.3,0.139,-0.148,99.93,4.0,,0.0,0.0,
2025-08-15T01:19:01.589Z,9,GR86-049-88,0.3,0.142,-0.155,99.92,4.0,6596.0,0.0,0.0,
2025-08-15T01:19:01.632Z,9,GR86-049-88,0.1,0.144,-0.16,99.93,4.0,,0.0,0.0,167.53
2025-08-15T01:19:01.675Z,9,GR86-049-88,-0.2,0.125,-0.158,99.91,4.0,,0.0,0.0,
2025-08-15T01:19:01.720Z,9,GR86-049-88,-1.1,0.12,-0.206,99.93,4.0,,0.0,0.0,
2025-08-15T01:19:01.763Z,9,GR86-049-88,-1.5,0.141,-0.198,99.93,4.0,,0.0,0.0,
2025-08-15T01:19:01.806Z,9,GR86-049-88,-1.6,0.137,-0.216,99.93,4.0,6628.0,0.0,0.0,
2025-08-15T01:19:01.849Z,9,GR86-049-88,-1.6,0.124,-0.231,99.9,4.0,,0.0,0.0,168.54
2025-08-15T01:19:01.892Z,9,GR86-049-88,-1.6,0.135,-0.231,99.89,4.0,,0.0,0.0,
2025-08-15T01:19:01.935Z,9,GR86-049-88,-1.6,0.129,-0.229,99.91,4.0,,0.0,0.0,
2025-08-15T01:19:01.979Z,9,GR86-049-88,-1.6,0.126,-0.23,99.91,4.0,,0.0,0.0,
2025-08-15T01:19:02.021Z,9,GR86-049-88,-1.5,0.119,-0.243,99.92,4.0,6666.0,0.0,0.0,
2025-08-15T01:19:02.064Z,9,GR86-049-88,-1.3,0.127,-0.227,99.91,4.0,,0.0,0.0,169.53
2025-08-15T01:19:02.107Z,9,GR86-049-88,-0.8,0.121,-0.232,99.91,4.0,,0.0,0.0,
2025-08-15T01:19:02.193Z,9,GR86-049-88,-0.2,0.113,-0.176,99.93,4.0,,0.0,0.0,
2025-08-15T01:19:02.236Z,9,GR86-049-88,0.1,0.122,-0.159,99.92,4.0,6708.0,0.0,0.0,
2025-08-15T01:19:02.280Z,9,GR86-049-88,0.3,0.122,-0.097,99.92,4.0,,0.0,0.0,170.58
2025-08-15T01:19:02.322Z,9,GR86-049-88,0.3,0.131,-0.102,99.92,4.0,,0.0,0.0,
2025-08-15T01:19:02.365Z,9,GR86-049-88,0.3,0.106,-0.084,99.94,4.0,,0.0,0.0,
2025-08-15T01:19:02.451Z,9,GR86-049-88,0.3,0.099,-0.068,99.91,4.0,6750.0,0.0,0.0,
2025-08-15T01:19:02.539Z,9,GR86-049-88,0.1,0.122,-0.088,99.91,4.0,,0.0,0.0,171.61
2025-08-15T01:19:02.581Z,9,GR86-049-88,0.1,0.134,-0.102,99.92,4.0,,0.0,0.0,
2025-08-15T01:19:02.624Z,9,GR86-049-88,0.1,0.125,-0.113,99.93,4.0,,0.0,0.0,
2025-08-15T01:19:02.669Z,9,GR86-049-88,0.0,0.112,-0.124,99.91,4.0,6779.0,0.0,0.0,
2025-08-15T01:19:02.754Z,9,GR86-049-88,-0.1,0.104,-0.151,99.93,4.0,,0.0,0.0,172.67000000000002
2025-08-15T01:19:02.797Z,9,GR86-049-88,-0.2,0.114,-0.187,99.9,4.0,,0.0,0.0,
2025-08-15T01:19:02.840Z,9,GR86-049-88,-0.2,0.121,-0.159,99.93,4.0,,0.0,0.0,
2025-08-15T01:19:02.883Z,9,GR86-049-88,-0.2,0.123,-0.139,99.91,4.0,6818.0,0.0,0.0,
2025-08-15T01:19:02.926Z,9,GR86-049-88,-0.1,0.133,-0.133,99.91,4.0,,0.0,0.0,174.35
2025-08-15T01:19:02.969Z,9,GR86-049-88,0.0,0.136,-0.125,99.92,4.0,,0.0,0.0,
2025-08-15T01:19:03.012Z,9,GR86-049-88,0.0,0.143,-0.137,99.9,4.0,,0.0,0.0,
2025-08-15T01:19:03.099Z,9,GR86-049-88,0.1,0.13,-0.131,99.89,4.0,6861.0,0.0,0.0,
2025-08-15T01:19:03.142Z,9,GR86-049-88,0.1,0.119,-0.14,99.92,4.0,,0.0,0.0,175.41
2025-08-15T01:19:03.185Z,9,GR86-049-88,0.1,0.092,-0.163,99.92,4.0,,0.0,0.0,
2025-08-15T01:19:03.271Z,9,GR86-049-88,0.1,0.126,-0.154,99.9,4.0,,0.0,0.0,
2025-08-15T01:19:03.315Z,9,GR86-049-88,0.1,0.121,-0.115,99.91,4.0,6907.0,0.0,0.0,
2025-08-15T01:19:03.357Z,9,GR86-049-88,0.1,0.101,-0.129,99.9,4.0,,0.0,0.0,176.39
2025-08-15T01:19:03.400Z,9,GR86-049-88,0.0,0.126,-0.143,99.93,4.0,,0.0,0.0,
2025-08-15T01:19:03.443Z,9,GR86-049-88,0.0,0.123,-0.133,99.9,4.0,,0.0,0.0,
2025-08-15T01:19:03.486Z,9,GR86-049-88,0.0,0.128,-0.149,99.92,4.0,,0.0,0.0,
2025-08-15T01:19:03.530Z,9,GR86-049-88,0.0,0.116,-0.179,99.92,4.0,6968.0,0.0,0.0,
2025-08-15T01:19:03.572Z,9,GR86-049-88,0.1,0.121,-0.19,99.9,4.0,,0.0,0.0,177.45000000000002
2025-08-15T01:19:03.615Z,9,GR86-049-88,0.1,0.115,-0.176,99.92,4.0,,0.0,0.0,
2025-08-15T01:19:03.658Z,9,GR86-049-88,0.1,0.13,-0.114,99.9,4.0,,0.0,0.0,
2025-08-15T01:19:03.701Z,9,GR86-049-88,0.2,0.113,-0.106,99.92,4.0,,0.0,0.0,
2025-08-15T01:19:03.744Z,9,GR86-049-88,0.2,0.125,-0.092,99.93,4.0,7003.0,0.0,0.0,
2025-08-15T01:19:03.787Z,9,GR86-049-88,0.3,0.142,-0.104,99.91,4.0,,0.0,0.0,178.28
2025-08-15T01:19:03.830Z,9,GR86-049-88,0.3,0.126,-0.084,99.92,4.0,,0.0,0.0,
2025-08-15T01:19:03.873Z,9,GR86-049-88,0.4,0.131,-0.064,99.93,4.0,,0.0,0.0,
2025-08-15T01:19:03.916Z,9,GR86-049-88,0.4,0.131,-0.063,99.89,4.0,,0.0,0.0,
2025-08-15T01:19:03.960Z,9,GR86-049-88,0.5,0.093,-0.081,99.93,4.0,7051.0,0.0,0.0,
2025-08-15T01:19:04.002Z,9,GR86-049-88,0.5,0.099,-0.077,99.9,4.0,,0.0,0.0,179.23
2025-08-15T01:19:04.045Z,9,GR86-049-88,0.6000000000000001,0.115,-0.081,99.93,4.0,,0.0,0.0,
2025-08-15T01:19:04.089Z,9,GR86-049-88,0.6000000000000001,0.093,-0.089,99.93,4.0,,0.0,0.0,
2025-08-15T01:19:04.132Z,9,GR86-049-88,0.6000000000000001,0.092,-0.087,99.9,4.0,,0.0,0.0,
2025-08-15T01:19:04.175Z,9,GR86-049-88,0.6000000000000001,0.081,-0.09,99.91,4.0,7070.0,0.0,0.0,
2025-08-15T01:19:04.220Z,9,GR86-049-88,0.6000000000000001,0.132,-0.04,99.9,4.0,,0.0,0.0,180.3
2025-08-15T01:19:04.263Z,9,GR86-049-88,0.7000000000000001,0.109,-0.057,99.93,4.0,,0.0,0.0,
2025-08-15T01:19:04.306Z,9,GR86-049-88,0.7000000000000001,0.117,-0.042,99.89,4.0,,0.0,0.0,
2025-08-15T01:19:04.350Z,9,GR86-049-88,0.7000000000000001,0.135,-0.068,99.9,4.0,,0.0,0.0,
2025-08-15T01:19:04.393Z,9,GR86-049-88,0.6000000000000001,0.125,-0.079,99.9,4.0,7111.0,0.0,0.0,
2025-08-15T01:19:04.436Z,9,GR86-049-88,0.4,0.121,-0.088,99.89,4.0,,0.0,0.0,181.16
2025-08-15T01:19:04.480Z,9,GR86-049-88,0.2,0.084,-0.127,99.89,4.0,,0.0,0.0,
2025-08-15T01:19:04.523Z,9,GR86-049-88,0.1,0.105,-0.141,99.91,4.0,,0.0,0.0,
2025-08-15T01:19:04.566Z,9,GR86-049-88,0.1,0.084,-0.135,99.94,4.0,,0.0,0.0,
2025-08-15T01:19:04.609Z,9,GR86-049-88,0.1,0.103,-0.161,99.91,4.0,7159.0,0.0,0.0,
2025-08-15T01:19:04.695Z,9,GR86-049-88,0.1,0.104,-0.166,99.91,4.0,,0.0,0.0,182.11
2025-08-15T01:19:04.740Z,9,GR86-049-88,0.1,0.102,-0.134,99.92,4.0,,0.0,0.0,
2025-08-15T01:19:04.782Z,9,GR86-049-88,0.1,0.093,-0.109,99.89,4.0,,0.0,0.0,
2025-08-15T01:19:04.825Z,9,GR86-049-88,0.1,0.116,-0.11,99.91,4.0,7195.0,0.0,0.0,
2025-08-15T01:19:04.869Z,9,GR86-049-88,0.2,0.1,-0.103,99.9,4.0,,0.0,0.0,182.88
2025-08-15T01:19:04.912Z,9,GR86-049-88,0.2,-0.003,-0.069,99.91,5.0,,0.0,0.0,
2025-08-15T01:19:04.955Z,9,GR86-049-88,0.3,-0.141,-0.069,99.91,5.0,,0.0,0.0,
2025-08-15T01:19:04.999Z,9,GR86-049-88,0.3,0.247,-0.151,99.9,5.0,,0.0,0.0,
2025-08-15T01:19:05.042Z,9,GR86-049-88,0.3,0.127,-0.114,99.92,5.0,7221.0,0.0,0.0,
2025-08-15T01:19:05.085Z,9,GR86-049-88,0.3,-0.006,-0.037,99.91,5.0,,0.0,0.0,183.89
2025-08-15T01:19:05.128Z,9,GR86-049-88,0.4,0.103,-0.117,99.92,5.0,,0.0,0.0,
2025-08-15T01:19:05.171Z,9,GR86-049-88,0.4,0.157,-0.093,99.89,5.0,,0.0,0.0,
2025-08-15T01:19:05.259Z,9,GR86-049-88,0.4,0.107,-0.04,99.89,5.0,6993.0,0.0,0.0,
2025-08-15T01:19:05.301Z,9,GR86-049-88,0.0,0.094,-0.091,99.91,5.0,,0.0,0.0,184.74
2025-08-15T01:19:05.344Z,9,GR86-049-88,-0.3,0.083,-0.157,99.91,5.0,,0.0,0.0,
2025-08-15T01:19:05.387Z,9,GR86-049-88,-0.4,0.07,-0.169,99.9,5.0,,0.0,0.0,
2025-08-15T01:19:05.473Z,9,GR86-049-88,-0.3,0.089,-0.172,99.91,5.0,6343.0,0.0,0.0,
2025-08-15T01:19:05.516Z,9,GR86-049-88,-0.2,0.066,-0.164,99.88,5.0,,0.0,0.0,185.46
2025-08-15T01:19:05.560Z,9,GR86-049-88,-0.2,0.092,-0.139,99.91,5.0,,0.0,0.0,
2025-08-15T01:19:05.602Z,9,GR86-049-88,0.0,0.105,-0.15,99.89,5.0,,0.0,0.0,
2025-08-15T01:19:05.646Z,9,GR86-049-88,0.0,0.103,-0.142,99.9,5.0,,0.0,0.0,
2025-08-15T01:19:05.689Z,9,GR86-049-88,0.1,0.09,-0.077,99.9,5.0,6343.0,0.0,0.0,
2025-08-15T01:19:05.731Z,9,GR86-049-88,0.3,0.086,-0.089,99.93,5.0,,0.0,0.0,186.96
2025-08-15T01:19:05.775Z,9,GR86-049-88,0.3,0.105,-0.036,99.93,5.0,,0.0,0.0,
2025-08-15T01:19:05.820Z,9,GR86-049-88,0.3,0.127,-0.052,99.89,5.0,,0.0,0.0,
2025-08-15T01:19:05.863Z,9,GR86-049-88,0.3,0.105,-0.063,99.92,5.0,,0.0,0.0,
2025-08-15T01:19:05.906Z,9,GR86-049-88,0.1,0.109,-0.057,99.89,5.0,6366.0,0.0,0.0,
2025-08-15T01:19:05.949Z,9,GR86-049-88,0.0,0.095,-0.108,99.91,5.0,,0.0,0.0,187.86
2025-08-15T01:19:05.992Z,9,GR86-049-88,0.0,0.128,-0.087,99.91,5.0,,0.0,0.0,
2025-08-15T01:19:06.035Z,9,GR86-049-88,0.0,0.083,-0.103,99.93,5.0,,0.0,0.0,
2025-08-15T01:19:06.079Z,9,GR86-049-88,0.2,0.091,-0.105,99.9,5.0,,0.0,0.0,
2025-08-15T01:19:06.121Z,9,GR86-049-88,0.6000000000000001,0.103,-0.128,99.91,5.0,6420.0,0.0,0.0,
2025-08-15T01:19:06.164Z,9,GR86-049-88,0.9,0.092,-0.134,99.89,5.0,,0.0,0.0,188.43
2025-08-15T01:19:06.207Z,9,GR86-049-88,1.1,0.087,-0.121,99.91,5.0,,0.0,0.0,
2025-08-15T01:19:06.250Z,9,GR86-049-88,1.3,0.106,-0.121,99.9,5.0,,0.0,0.0,
2025-08-15T01:19:06.293Z,9,GR86-049-88,1.5,0.108,-0.08,99.93,5.0,,0.0,0.0,
2025-08-15T01:19:06.336Z,9,GR86-049-88,1.7000000000000002,0.099,-0.08,99.92,5.0,6454.0,0.0,0.0,
2025-08-15T01:19:06.380Z,9,GR86-049-88,2.2,0.078,-0.047,99.9,5.0,,0.0,0.0,189.3
2025-08-15T01:19:06.422Z,9,GR86-049-88,2.5,0.098,-0.031,99.9,5.0,,0.0,0.0,
2025-08-15T01:19:06.465Z,9,GR86-049-88,2.6,0.087,-0.024,99.92,5.0,,0.0,0.0,
2025-08-15T01:19:06.508Z,9,GR86-049-88,2.6,0.079,-0.021,99.89,5.0,,0.0,0.0,
2025-08-15T01:19:06.551Z,9,GR86-049-88,2.6,0.087,-0.008,99.92,5.0,6468.0,0.0,0.0,
2025-08-15T01:19:06.594Z,9,GR86-049-88,2.7,0.088,-0.007,99.9,5.0,,0.0,0.0,189.97
2025-08-15T01:19:06.639Z,9,GR86-049-88,2.7,0.091,0.021,99.91,5.0,,0.0,0.0,
2025-08-15T01:19:06.681Z,9,GR86-049-88,2.7,0.094,-0.003,99.9,5.0,,0.0,0.0,
2025-08-15T01:19:06.724Z,9,GR86-049-88,2.7,0.106,-0.02,99.9,5.0,,0.0,0.0,
2025-08-15T01:19:06.768Z,9,GR86-049-88,2.7,0.087,-0.043,99.91,5.0,6497.0,0.0,0.0,
2025-08-15T01:19:06.811Z,9,GR86-049-88,2.7,0.109,-0.06,99.91,5.0,,0.0,0.0,190.94
2025-08-15T01:19:06.854Z,9,GR86-049-88,2.7,0.064,-0.063,99.9,5.0,,0.0,0.0,
2025-08-15T01:19:06.897Z,9,GR86-049-88,2.8000000000000003,0.107,-0.047,99.89,5.0,,0.0,0.0,
2025-08-15T01:19:06.940Z,9,GR86-049-88,2.8000000000000003,0.111,-0.028,99.9,5.0,,0.0,0.0,
2025-08-15T01:19:06.983Z,9,GR86-049-88,2.8000000000000003,0.083,-0.014,99.92,5.0,6524.0,0.0,0.0,
2025-08-15T01:19:07.026Z,9,GR86-049-88,2.8000000000000003,0.094,-0.008,99.91,5.0,,0.0,0.0,191.7
2025-08-15T01:19:07.069Z,9,GR86-049-88,2.8000000000000003,0.092,-0.033,99.92,5.0,,0.0,0.0,
2025-08-15T01:19:07.112Z,9,GR86-049-88,2.8000000000000003,0.099,0.008,99.9,5.0,,0.0,0.0,
2025-08-15T01:19:07.155Z,9,GR86-049-88,2.8000000000000003,0.088,0.007,99.92,5.0,,0.0,0.0,
2025-08-15T01:19:07.200Z,9,GR86-049-88,2.8000000000000003,0.105,0.027,99.9,5.0,6548.0,0.0,0.0,
2025-08-15T01:19:07.243Z,9,GR86-049-88,2.8000000000000003,0.107,0.019,99.9,5.0,,0.0,0.0,192.43
2025-08-15T01:19:07.286Z,9,GR86-049-88,2.8000000000000003,0.084,-0.002,99.93,5.0,,0.0,0.0,
2025-08-15T01:19:07.330Z,9,GR86-049-88,2.8000000000000003,0.104,0.0,99.9,5.0,,0.0,0.0,
2025-08-15T01:19:07.373Z,9,GR86-049-88,2.8000000000000003,0.1,-0.031,99.91,5.0,,0.0,0.0,
2025-08-15T01:19:07.416Z,9,GR86-049-88,2.8000000000000003,0.116,-0.036,99.91,5.0,6568.0,0.0,0.0,
2025-08-15T01:19:07.460Z,9,GR86-049-88,2.8000000000000003,0.079,-0.01,99.9,5.0,,0.0,0.0,193.2
2025-08-15T01:19:07.502Z,9,GR86-049-88,2.8000000000000003,0.08,-0.005,99.89,5.0,,0.0,0.0,
2025-08-15T01:19:07.546Z,9,GR86-049-88,2.8000000000000003,0.118,0.002,99.89,5.0,,0.0,0.0,
2025-08-15T01:19:07.589Z,9,GR86-049-88,2.8000000000000003,0.1,-0.004,99.93,5.0,,0.0,0.0,
2025-08-15T01:19:07.632Z,9,GR86-049-88,2.8000000000000003,0.106,-0.031,99.89,5.0,6596.0,0.0,0.0,
2025-08-15T01:19:07.675Z,9,GR86-049-88,2.8000000000000003,0.094,-0.011,99.92,5.0,,0.0,0.0,193.96
2025-08-15T01:19:07.720Z,9,GR86-049-88,2.8000000000000003,0.071,-0.034,99.91,5.0,,0.0,0.0,
2025-08-15T01:19:07.763Z,9,GR86-049-88,2.8000000000000003,0.113,-0.004,99.93,5.0,,0.0,0.0,
2025-08-15T01:19:07.806Z,9,GR86-049-88,2.8000000000000003,0.088,-0.038,99.9,5.0,,0.0,0.0,
2025-08-15T01:19:07.849Z,9,GR86-049-88,2.8000000000000003,0.11,-0.042,99.92,5.0,6625.0,0.0,0.0,
2025-08-15T01:19:07.892Z,9,GR86-049-88,2.8000000000000003,0.083,-0.03,99.9,5.0,,0.0,0.0,194.73
2025-08-15T01:19:07.935Z,9,GR86-049-88,2.9000000000000004,0.106,-0.02,99.9,5.0,,0.0,0.0,
2025-08-15T01:19:07.978Z,9,GR86-049-88,2.9000000000000004,0.097,0.009,99.9,5.0,,0.0,0.0,
2025-08-15T01:19:08.021Z,9,GR86-049-88,3.1,0.07,0.016,99.91,5.0,,0.0,0.0,
2025-08-15T01:19:08.064Z,9,GR86-049-88,3.3000000000000003,0.11,-0.021,99.9,5.0,6652.0,0.0,0.0,
2025-08-15T01:19:08.107Z,9,GR86-049-88,3.7,0.08,0.001,99.91,5.0,,0.0,0.0,195.42
2025-08-15T01:19:08.150Z,9,GR86-049-88,4.0,0.099,0.018,99.92,5.0,,0.0,0.0,
2025-08-15T01:19:08.193Z,9,GR86-049-88,4.2,0.105,0.014,99.9,5.0,,0.0,0.0,
2025-08-15T01:19:08.236Z,9,GR86-049-88,4.4,0.086,0.035,99.9,5.0,,0.0,0.0,
2025-08-15T01:19:08.280Z,9,GR86-049-88,4.4,0.102,0.021,99.9,5.0,6674.0,0.0,0.0,
2025-08-15T01:19:08.323Z,9,GR86-049-88,4.4,0.086,0.053,99.89,5.0,,0.0,0.0,196.98
2025-08-15T01:19:08.366Z,9,GR86-049-88,4.4,0.102,0.049,99.91,5.0,,0.0,0.0,
2025-08-15T01:19:08.409Z,9,GR86-049-88,4.4,0.091,0.026,99.9,5.0,,0.0,0.0,
2025-08-15T01:19:08.452Z,9,GR86-049-88,4.5,0.076,0.042,99.91,5.0,,0.0,0.0,
2025-08-15T01:19:08.495Z,9,GR86-049-88,4.4,0.079,0.054,99.91,5.0,6703.0,0.0,0.0,
2025-08-15T01:19:08.582Z,9,GR86-049-88,4.3,0.097,0.036,99.89,5.0,,0.0,0.0,197.63
2025-08-15T01:19:08.625Z,9,GR86-049-88,4.2,0.098,0.031,99.91,5.0,,0.0,0.0,
2025-08-15T01:19:08.711Z,9,GR86-049-88,4.2,0.097,0.031,99.89,5.0,6723.0,0.0,0.0,
2025-08-15T01:19:08.797Z,9,GR86-049-88,4.2,0.064,0.031,99.9,5.0,,0.0,0.0,198.4
2025-08-15T01:19:08.840Z,9,GR86-049-88,4.0,0.08,0.031,99.9,5.0,,0.0,0.0,
2025-08-15T01:19:08.883Z,9,GR86-049-88,4.0,0.073,0.025,99.89,5.0,,0.0,0.0,
2025-08-15T01:19:08.926Z,9,GR86-049-88,4.0,0.078,0.024,99.92,5.0,6759.0,0.0,0.0,
2025-08-15T01:19:09.012Z,9,GR86-049-88,4.0,0.056,0.005,99.89,5.0,,0.0,0.0,199.06
2025-08-15T01:19:09.055Z,9,GR86-049-88,4.0,0.082,-0.002,99.89,5.0,,0.0,0.0,
2025-08-15T01:19:09.099Z,9,GR86-049-88,4.0,0.086,0.016,99.89,5.0,,0.0,0.0,
2025-08-15T01:19:09.142Z,9,GR86-049-88,4.1000000000000005,0.03,-0.014,99.89,5.0,6795.0,0.0,0.0,
2025-08-15T01:19:09.228Z,9,GR86-049-88,4.1000000000000005,0.051,0.0,99.89,5.0,,0.0,0.0,199.64
2025-08-15T01:19:09.271Z,9,GR86-049-88,4.1000000000000005,0.086,0.009,99.89,5.0,,0.0,0.0,
2025-08-15T01:19:09.314Z,9,GR86-049-88,4.1000000000000005,0.082,0.027,99.9,5.0,,0.0,0.0,
2025-08-15T01:19:09.357Z,9,GR86-049-88,4.1000000000000005,0.098,0.045,99.9,5.0,6814.0,0.0,0.0,
2025-08-15T01:19:09.400Z,9,GR86-049-88,4.1000000000000005,0.068,0.029,99.89,5.0,,0.0,0.0,200.22
2025-08-15T01:19:09.443Z,9,GR86-049-88,4.1000000000000005,0.083,0.014,99.9,5.0,,0.0,0.0,
2025-08-15T01:19:09.486Z,9,GR86-049-88,4.2,0.091,0.022,99.9,5.0,,0.0,0.0,
2025-08-15T01:19:09.529Z,9,GR86-049-88,4.5,0.107,0.047,99.91,5.0,,0.0,0.0,
2025-08-15T01:19:09.572Z,9,GR86-049-88,4.6000000000000005,0.088,0.038,99.92,5.0,6832.0,0.0,0.0,
2025-08-15T01:19:09.615Z,9,GR86-049-88,4.6000000000000005,0.1,0.082,99.89,5.0,,0.0,0.0,200.91
2025-08-15T01:19:09.658Z,9,GR86-049-88,4.7,0.104,0.08,99.91,5.0,,0.0,0.0,
2025-08-15T01:19:09.701Z,9,GR86-049-88,4.7,0.097,0.101,99.9,5.0,,0.0,0.0,
2025-08-15T01:19:09.744Z,9,GR86-049-88,4.800000000000001,0.106,0.096,99.89,5.0,,0.0,0.0,
2025-08-15T01:19:09.787Z,9,GR86-049-88,4.800000000000001,0.083,0.084,99.91,5.0,6858.0,0.0,0.0,
2025-08-15T01:19:09.830Z,9,GR86-049-88,4.800000000000001,0.078,0.084,99.9,5.0,,0.0,0.0,201.56
2025-08-15T01:19:09.873Z,9,GR86-049-88,4.800000000000001,0.052,0.088,99.9,5.0,,0.0,0.0,
2025-08-15T01:19:09.916Z,9,GR86-049-88,4.800000000000001,0.063,0.067,99.9,5.0,,0.0,0.0,
2025-08-15T01:19:09.960Z,9,GR86-049-88,4.800000000000001,0.09,0.081,99.93,5.0,,0.0,0.0,
2025-08-15T01:19:10.003Z,9,GR86-049-88,4.800000000000001,0.057,0.09,99.9,5.0,6883.0,0.0,0.0,
2025-08-15T01:19:10.046Z,9,GR86-049-88,4.800000000000001,0.059,0.072,99.9,5.0,,0.0,0.0,202.22
2025-08-15T01:19:10.089Z,9,GR86-049-88,4.800000000000001,0.048,0.032,99.9,5.0,,0.0,0.0,
2025-08-15T01:19:10.132Z,9,GR86-049-88,4.800000000000001,0.078,0.052,99.91,5.0,,0.0,0.0,
2025-08-15T01:19:10.175Z,9,GR86-049-88,5.0,0.083,0.062,99.9,5.0,,0.0,0.0,
2025-08-15T01:19:10.220Z,9,GR86-049-88,5.300000000000001,0.052,0.079,99.92,5.0,6903.0,0.0,0.0,
2025-08-15T01:19:10.263Z,9,GR86-049-88,5.4,0.065,0.1,99.9,5.0,,0.0,0.0,202.95
2025-08-15T01:19:10.306Z,9,GR86-049-88,5.6000000000000005,0.061,0.085,99.93,5.0,,0.0,0.0,
2025-08-15T01:19:10.350Z,9,GR86-049-88,6.0,0.107,0.083,99.92,5.0,,0.0,0.0,
2025-08-15T01:19:10.393Z,9,GR86-049-88,7.1000000000000005,0.071,0.077,99.9,5.0,,0.0,0.0,
2025-08-15T01:19:10.436Z,9,GR86-049-88,8.1,0.101,0.136,99.91,5.0,6930.0,0.0,0.0,
2025-08-15T01:19:10.523Z,9,GR86-049-88,9.0,0.097,0.2,99.89,5.0,,0.0,0.0,203.73
2025-08-15T01:19:10.566Z,9,GR86-049-88,9.5,0.1,0.249,99.92,5.0,,0.0,0.0,
2025-08-15T01:19:10.609Z,9,GR86-049-88,10.3,0.064,0.262,99.9,5.0,,0.0,0.0,
2025-08-15T01:19:10.652Z,9,GR86-049-88,10.6,0.063,0.278,99.89,5.0,6949.0,0.0,0.0,
2025-08-15T01:19:10.695Z,9,GR86-049-88,10.7,0.054,0.285,99.91,5.0,,0.0,0.0,204.52
2025-08-15T01:19:10.739Z,9,GR86-049-88,10.8,0.087,0.347,99.9,5.0,,0.0,0.0,
2025-08-15T01:19:10.782Z,9,GR86-049-88,10.8,0.043,0.349,99.89,5.0,,0.0,0.0,
2025-08-15T01:19:10.869Z,9,GR86-049-88,10.8,0.084,0.311,99.89,5.0,6976.0,0.0,0.0,
2025-08-15T01:19:10.912Z,9,GR86-049-88,10.8,0.103,0.276,99.9,5.0,,0.0,0.0,205.15
2025-08-15T01:19:10.955Z,9,GR86-049-88,10.8,0.081,0.319,99.9,5.0,,0.0,0.0,
2025-08-15T01:19:10.999Z,9,GR86-049-88,10.7,0.062,0.304,99.9,5.0,,0.0,0.0,
2025-08-15T01:19:11.041Z,9,GR86-049-88,10.7,0.083,0.268,99.89,5.0,,0.0,0.0,
2025-08-15T01:19:11.085Z,9,GR86-049-88,10.7,0.088,0.278,99.9,5.0,7003.0,0.0,0.0,
2025-08-15T01:19:11.128Z,9,GR86-049-88,10.7,0.081,0.301,99.91,5.0,,0.0,0.0,206.53
2025-08-15T01:19:11.171Z,9,GR86-049-88,10.6,0.09,0.286,99.89,5.0,,0.0,0.0,
2025-08-15T01:19:11.215Z,9,GR86-049-88,10.6,0.059,0.299,99.9,5.0,,0.0,0.0,
2025-08-15T01:19:11.259Z,9,GR86-049-88,10.6,0.069,0.295,99.91,5.0,,0.0,0.0,
2025-08-15T01:19:11.301Z,9,GR86-049-88,10.6,0.085,0.294,99.9,5.0,7019.0,0.0,0.0,
2025-08-15T01:19:11.387Z,9,GR86-049-88,10.5,0.052,0.324,99.89,5.0,,0.0,0.0,207.11
2025-08-15T01:19:11.430Z,9,GR86-049-88,10.3,0.052,0.299,99.89,5.0,,0.0,0.0,
2025-08-15T01:19:11.473Z,9,GR86-049-88,10.1,0.064,0.286,99.89,5.0,,0.0,0.0,
2025-08-15T01:19:11.516Z,9,GR86-049-88,10.0,0.076,0.243,99.89,5.0,7036.0,0.0,0.0,
2025-08-15T01:19:11.560Z,9,GR86-049-88,10.0,0.058,0.246,99.9,5.0,,0.0,0.0,207.48
2025-08-15T01:19:11.602Z,9,GR86-049-88,10.0,0.068,0.212,99.9,5.0,,0.0,0.0,
2025-08-15T01:19:11.645Z,9,GR86-049-88,10.0,0.092,0.244,99.9,5.0,,0.0,0.0,
2025-08-15T01:19:11.689Z,9,GR86-049-88,10.0,0.069,0.223,99.9,5.0,,0.0,0.0,
2025-08-15T01:19:11.731Z,9,GR86-049-88,10.0,0.074,0.188,99.89,5.0,7081.0,0.0,0.0,
2025-08-15T01:19:11.775Z,9,GR86-049-88,10.0,0.067,0.197,99.89,5.0,,0.0,0.0,208.26
2025-08-15T01:19:11.820Z,9,GR86-049-88,10.0,0.085,0.18,99.91,5.0,,0.0,0.0,
2025-08-15T01:19:11.863Z,9,GR86-049-88,10.0,0.067,0.188,99.9,5.0,,0.0,0.0,
2025-08-15T01:19:11.906Z,9,GR86-049-88,10.0,0.055,0.203,99.9,5.0,,0.0,0.0,
2025-08-15T01:19:11.949Z,9,GR86-049-88,10.1,0.07,0.203,99.89,5.0,7101.0,0.0,0.0,
2025-08-15T01:19:11.992Z,9,GR86-049-88,10.1,0.054,0.24,99.89,5.0,,0.0,0.0,208.86
2025-08-15T01:19:12.035Z,9,GR86-049-88,10.3,0.076,0.276,99.92,5.0,,0.0,0.0,
2025-08-15T01:19:12.079Z,9,GR86-049-88,10.9,0.075,0.301,99.9,5.0,,0.0,0.0,
2025-08-15T01:19:12.122Z,9,GR86-049-88,11.4,0.05,0.313,99.92,5.0,,0.0,0.0,
2025-08-15T01:19:12.165Z,9,GR86-049-88,11.7,0.09,0.332,99.9,5.0,7129.0,0.0,0.0,
2025-08-15T01:19:12.208Z,9,GR86-049-88,11.7,0.057,0.333,99.9,5.0,,0.0,0.0,209.54
2025-08-15T01:19:12.251Z,9,GR86-049-88,11.7,0.073,0.365,99.89,5.0,,0.0,0.0,
2025-08-15T01:19:12.294Z,9,GR86-049-88,11.7,0.058,0.356,99.89,5.0,,0.0,0.0,
2025-08-15T01:19:12.337Z,9,GR86-049-88,11.7,0.077,0.381,99.89,5.0,,0.0,0.0,
2025-08-15T01:19:12.380Z,9,GR86-049-88,11.7,0.068,0.405,99.91,5.0,7154.0,0.0,0.0,
2025-08-15T01:19:12.423Z,9,GR86-049-88,11.7,0.074,0.401,99.89,5.0,,0.0,0.0,210.04
2025-08-15T01:19:12.466Z,9,GR86-049-88,11.7,0.07,0.421,99.91,5.0,,0.0,0.0,
2025-08-15T01:19:12.509Z,9,GR86-049-88,11.7,0.063,0.403,99.89,5.0,,0.0,0.0,
2025-08-15T01:19:12.552Z,9,GR86-049-88,11.7,0.071,0.412,99.9,5.0,,0.0,0.0,
2025-08-15T01:19:12.595Z,9,GR86-049-88,11.7,0.06,0.364,99.91,5.0,7182.0,0.0,0.0,
2025-08-15T01:19:12.681Z,9,GR86-049-88,11.7,0.07,0.266,99.9,5.0,,0.0,0.0,210.64
2025-08-15T01:19:12.724Z,9,GR86-049-88,11.7,0.076,0.31,99.9,5.0,,0.0,0.0,
2025-08-15T01:19:12.767Z,9,GR86-049-88,11.7,0.086,0.326,99.92,5.0,,0.0,0.0,
2025-08-15T01:19:12.810Z,9,GR86-049-88,11.6,0.073,0.322,99.9,5.0,7192.0,0.0,0.0,
2025-08-15T01:19:12.896Z,9,GR86-049-88,9.5,0.052,0.289,99.9,5.0,,0.0,0.0,211.53
2025-08-15T01:19:12.940Z,9,GR86-049-88,8.8,0.06,0.296,99.89,5.0,,0.0,0.0,
2025-08-15T01:19:12.982Z,9,GR86-049-88,8.8,0.067,0.259,99.89,5.0,,0.0,0.0,
2025-08-15T01:19:13.025Z,9,GR86-049-88,8.9,0.062,0.207,99.91,5.0,7232.0,0.0,0.0,
2025-08-15T01:19:13.069Z,9,GR86-049-88,9.0,0.071,0.175,99.9,5.0,,0.0,0.0,212.19
2025-08-15T01:19:13.111Z,9,GR86-049-88,9.2,0.075,0.146,72.08,5.0,,0.0,0.0,
2025-08-15T01:19:13.154Z,9,GR86-049-88,9.5,0.066,0.148,5.17,5.0,,0.0,0.0,
2025-08-15T01:19:13.197Z,9,GR86-049-88,9.5,0.088,0.147,5.0200000000000005,5.0,,0.0,0.0,
2025-08-15T01:19:13.240Z,9,GR86-049-88,9.5,-0.183,0.194,4.3,5.0,7249.0,0.0,0.0,
2025-08-15T01:19:13.326Z,9,GR86-049-88,9.1,-0.346,0.178,3.93,5.0,,10.47,10.745,212.94
2025-08-15T01:19:13.369Z,9,GR86-049-88,7.800000000000001,-0.52,0.21,3.51,5.0,,31.65,31.575,
2025-08-15T01:19:13.412Z,9,GR86-049-88,7.7,-0.711,0.17,3.23,5.0,,40.685,40.395,
2025-08-15T01:19:13.455Z,9,GR86-049-88,7.6,-0.926,0.166,2.98,5.0,7274.0,48.895,48.65,
2025-08-15T01:19:13.500Z,9,GR86-049-88,6.2,-1.095,0.11,2.66,5.0,,76.36,75.705,213.71
2025-08-15T01:19:13.543Z,9,GR86-049-88,4.4,-1.354,0.068,2.59,5.0,,94.9,95.985,
2025-08-15T01:19:13.586Z,9,GR86-049-88,4.1000000000000005,-1.516,0.066,36.24,5.0,,106.12,106.65,
2025-08-15T01:19:13.630Z,9,GR86-049-88,4.5,-1.625,0.073,80.33,5.0,,110.5,111.52,
2025-08-15T01:19:13.673Z,9,GR86-049-88,6.5,-1.471,0.123,68.79,4.0,7148.0,112.865,115.275,
2025-08-15T01:19:13.760Z,9,GR86-049-88,6.800000000000001,-1.504,0.072,4.7700000000000005,4.0,,114.845,117.485,214.18
2025-08-15T01:19:13.802Z,9,GR86-049-88,8.700000000000001,-1.064,0.127,2.67,4.0,,115.595,116.115,
2025-08-15T01:19:13.845Z,9,GR86-049-88,11.7,-1.111,0.157,2.64,4.0,,119.79,121.12,
2025-08-15T01:19:13.889Z,9,GR86-049-88,12.8,-1.309,0.27,2.64,4.0,6846.0,118.95,121.025,
2025-08-15T01:19:13.932Z,9,GR86-049-88,12.9,-1.292,0.377,2.63,4.0,,116.22,116.68,197.4
2025-08-15T01:19:13.975Z,9,GR86-049-88,12.2,-1.354,0.391,2.61,4.0,,119.64,120.34,
2025-08-15T01:19:14.020Z,9,GR86-049-88,8.8,-1.385,0.323,2.61,4.0,,122.585,123.865,
2025-08-15T01:19:14.063Z,9,GR86-049-88,7.2,-1.357,0.27,2.57,4.0,,122.185,123.39,
2025-08-15T01:19:14.106Z,9,GR86-049-88,6.5,-1.413,0.196,2.57,4.0,6861.0,126.995,128.64,
2025-08-15T01:19:14.149Z,9,GR86-049-88,7.9,-1.246,0.072,18.94,4.0,,131.68,134.0,181.45
2025-08-15T01:19:14.192Z,9,GR86-049-88,12.3,-1.295,0.155,62.15,4.0,,129.62,132.47,
2025-08-15T01:19:14.235Z,9,GR86-049-88,13.2,-1.318,0.178,48.09,3.0,,128.61,129.77,
2025-08-15T01:19:14.279Z,9,GR86-049-88,8.9,-1.198,0.149,4.3,3.0,,133.495,135.98,
2025-08-15T01:19:14.321Z,9,GR86-049-88,5.7,-1.539,0.009,3.86,3.0,6762.0,135.95,137.875,
2025-08-15T01:19:14.408Z,9,GR86-049-88,6.9,-1.338,0.217,3.42,3.0,,137.935,140.805,183.08
2025-08-15T01:19:14.451Z,9,GR86-049-88,6.9,-1.426,0.056,3.18,3.0,,131.615,132.81,
2025-08-15T01:19:14.537Z,9,GR86-049-88,6.800000000000001,-1.466,0.179,2.96,3.0,6803.0,130.105,130.52,
2025-08-15T01:19:14.580Z,9,GR86-049-88,3.9,-1.306,0.165,2.63,3.0,,128.58,128.96,171.9
2025-08-15T01:19:14.623Z,9,GR86-049-88,3.8,-1.409,0.314,2.58,3.0,,128.9,129.145,
2025-08-15T01:19:14.666Z,9,GR86-049-88,3.8,-1.417,0.194,2.54,3.0,,128.69,129.085,
2025-08-15T01:19:14.709Z,9,GR86-049-88,4.2,-1.279,0.055,2.51,3.0,,124.17,125.27,
2025-08-15T01:19:14.752Z,9,GR86-049-88,4.9,-1.296,0.191,2.52,3.0,7156.0,124.705,125.45,
2025-08-15T01:19:14.795Z,9,GR86-049-88,6.300000000000001,-1.281,0.017,2.51,3.0,,125.665,127.025,163.92000000000002
2025-08-15T01:19:14.839Z,9,GR86-049-88,6.800000000000001,-1.323,0.118,47.53,3.0,,121.62,123.36,
2025-08-15T01:19:14.881Z,9,GR86-049-88,6.800000000000001,-1.376,-0.024,31.74,2.0,,121.835,122.215,
2025-08-15T01:19:14.924Z,9,GR86-049-88,6.800000000000001,-1.614,-0.009,4.98,2.0,,124.17,126.015,
2025-08-15T01:19:14.967Z,9,GR86-049-88,6.9,-1.353,0.021,4.13,2.0,6979.0,121.805,124.17,
2025-08-15T01:19:15.010Z,9,GR86-049-88,6.9,-1.409,-0.202,3.83,2.0,,118.205,119.365,156.55
2025-08-15T01:19:15.053Z,9,GR86-049-88,7.0,-1.438,0.047,3.61,2.0,,113.045,115.0,
2025-08-15T01:19:15.096Z,9,GR86-049-88,8.4,-1.272,-0.041,3.4,2.0,,106.025,107.92,
2025-08-15T01:19:15.140Z,9,GR86-049-88,14.2,-1.353,-0.005,3.09,2.0,,90.23,91.805,
2025-08-15T01:19:15.182Z,9,GR86-049-88,15.1,-1.26,0.177,2.86,2.0,6669.0,83.215,84.74,
2025-08-15T01:19:15.225Z,9,GR86-049-88,15.4,-1.04,-0.069,2.7,2.0,,81.155,82.77,147.74
2025-08-15T01:19:15.269Z,9,GR86-049-88,15.4,-1.127,0.158,2.61,2.0,,82.115,83.455,
2025-08-15T01:19:15.311Z,9,GR86-049-88,15.3,-0.977,0.285,2.57,2.0,,81.395,82.265,
2025-08-15T01:19:15.354Z,9,GR86-049-88,15.3,-1.033,0.13,2.56,2.0,,76.18,76.71000000000001,
2025-08-15T01:19:15.397Z,9,GR86-049-88,15.2,-0.981,0.328,2.54,2.0,6995.0,64.245,64.61,
2025-08-15T01:19:15.440Z,9,GR86-049-88,13.4,-0.754,0.27,2.51,2.0,,46.835,47.155,137.21
2025-08-15T01:19:15.483Z,9,GR86-049-88,13.2,-0.753,0.354,2.51,2.0,,42.65,43.02,
2025-08-15T01:19:15.526Z,9,GR86-049-88,15.1,-0.865,0.378,2.51,2.0,,50.845,51.215,
2025-08-15T01:19:15.569Z,9,GR86-049-88,17.6,-1.169,0.308,2.51,2.0,,64.155,64.155,
2025-08-15T01:19:15.612Z,9,GR86-049-88,17.900000000000002,-1.245,0.414,2.51,2.0,7365.0,74.345,75.005,
2025-08-15T01:19:15.655Z,9,GR86-049-88,17.8,-1.293,0.371,2.51,2.0,,80.71000000000001,81.99,130.29
2025-08-15T01:19:15.699Z,9,GR86-049-88,17.5,-1.237,0.314,2.5,2.0,,81.06,81.87,
2025-08-15T01:19:15.741Z,9,GR86-049-88,16.5,-1.161,0.323,2.49,2.0,,71.735,73.265,
2025-08-15T01:19:15.785Z,9,GR86-049-88,14.3,-1.028,0.293,11.3,2.0,,58.735,60.49,
2025-08-15T01:19:15.871Z,9,GR86-049-88,13.7,-0.933,0.307,53.99,1.0,6906.0,48.555,50.13,126.29
2025-08-15T01:19:15.915Z,9,GR86-049-88,24.9,-1.147,0.279,4.54,1.0,,53.06,54.205,
2025-08-15T01:19:15.958Z,9,GR86-049-88,33.300000000000004,-1.242,0.453,4.09,1.0,,70.15,70.96000000000001,
2025-08-15T01:19:16.001Z,9,GR86-049-88,33.800000000000004,-1.486,0.477,3.81,1.0,,74.62,75.215,
2025-08-15T01:19:16.044Z,9,GR86-049-88,34.0,-1.076,0.628,3.5500000000000003,1.0,6383.0,78.895,80.115,
2025-08-15T01:19:16.087Z,9,GR86-049-88,35.5,-0.933,0.589,3.26,1.0,,79.4,80.59,119.65
2025-08-15T01:19:16.130Z,9,GR86-049-88,35.9,-1.291,0.759,2.9,1.0,,70.545,71.4,
2025-08-15T01:19:16.216Z,9,GR86-049-88,35.800000000000004,-1.02,0.741,2.64,1.0,,64.03,65.265,
2025-08-15T01:19:16.260Z,9,GR86-049-88,36.1,-0.744,1.024,2.47,1.0,6333.0,41.37,42.455,
2025-08-15T01:19:16.302Z,9,GR86-049-88,38.400000000000006,-0.93,0.733,2.43,1.0,,34.425000000000004,35.77,111.66
2025-08-15T01:19:16.346Z,9,GR86-049-88,40.900000000000006,-0.62,0.839,2.41,1.0,,32.78,34.12,
2025-08-15T01:19:16.389Z,9,GR86-049-88,46.1,-0.7020000000000001,0.946,2.41,1.0,,29.085,30.015,
2025-08-15T01:19:16.432Z,9,GR86-049-88,52.3,-0.779,0.933,2.42,1.0,,28.0,28.69,
2025-08-15T01:19:16.475Z,9,GR86-049-88,56.400000000000006,-0.783,0.878,2.42,1.0,6489.0,29.145,29.77,
2025-08-15T01:19:16.520Z,9,GR86-049-88,57.2,-0.719,0.951,2.42,1.0,,24.89,25.485,98.1
2025-08-15T01:19:16.563Z,9,GR86-049-88,57.3,-0.548,1.002,2.42,1.0,,16.435,17.335,
2025-08-15T01:19:16.606Z,9,GR86-049-88,57.3,-0.414,0.947,2.42,1.0,,10.055,10.865,
2025-08-15T01:19:16.650Z,9,GR86-049-88,57.3,-0.313,1.049,2.42,1.0,,5.555,6.21,
2025-08-15T01:19:16.693Z,9,GR86-049-88,57.3,-0.293,1.041,2.42,1.0,6617.0,3.845,4.44,
2025-08-15T01:19:16.736Z,9,GR86-049-88,57.3,-0.274,0.996,2.43,1.0,,4.03,4.365,93.41
2025-08-15T01:19:16.780Z,9,GR86-049-88,61.6,-0.234,0.993,2.41,1.0,,5.22,5.6450000000000005,
2025-08-15T01:19:16.823Z,9,GR86-049-88,66.3,-0.266,1.05,2.43,1.0,,6.335,6.655,
2025-08-15T01:19:16.866Z,9,GR86-049-88,67.7,-0.292,1.059,2.45,1.0,,7.325,7.705,
2025-08-15T01:19:16.909Z,9,GR86-049-88,67.8,-0.329,1.054,2.45,1.0,6507.0,8.975,9.28,
2025-08-15T01:19:16.952Z,9,GR86-049-88,67.8,-0.376,1.078,2.45,1.0,,11.035,11.31,89.94
2025-08-15T01:19:16.995Z,9,GR86-049-88,67.8,-0.376,1.079,2.45,1.0,,12.68,12.955,
2025-08-15T01:19:17.039Z,9,GR86-049-88,67.7,-0.391,1.094,2.45,1.0,,14.605,15.06,
2025-08-15T01:19:17.082Z,9,GR86-049-88,67.7,-0.424,1.087,2.45,1.0,,9.935,10.62,
2025-08-15T01:19:17.125Z,9,GR86-049-88,67.7,-0.266,1.194,2.45,1.0,6156.0,2.245,2.7,
2025-08-15T01:19:17.169Z,9,GR86-049-88,67.10000000000001,-0.217,1.163,2.45,1.0,,0.0,0.0,87.58
2025-08-15T01:19:17.211Z,9,GR86-049-88,64.4,-0.196,1.202,2.45,1.0,,0.0,0.0,
2025-08-15T01:19:17.254Z,9,GR86-049-88,63.7,-0.192,1.168,2.45,1.0,,0.0,0.0,
2025-08-15T01:19:17.340Z,9,GR86-049-88,64.9,-0.196,1.164,2.45,1.0,5884.0,0.0,0.0,
2025-08-15T01:19:17.383Z,9,GR86-049-88,65.0,-0.163,1.196,2.45,1.0,,0.0,0.0,85.12
2025-08-15T01:19:17.426Z,9,GR86-049-88,65.0,-0.174,1.209,2.45,1.0,,0.0,0.0,
2025-08-15T01:19:17.469Z,9,GR86-049-88,65.60000000000001,-0.165,1.228,2.45,1.0,,0.0,0.0,
2025-08-15T01:19:17.512Z,9,GR86-049-88,70.10000000000001,-0.217,1.225,3.69,1.0,,0.0,0.0,
2025-08-15T01:19:17.555Z,9,GR86-049-88,75.7,-0.24,1.317,18.92,1.0,5812.0,0.0,0.0,
2025-08-15T01:19:17.599Z,9,GR86-049-88,77.2,-0.19,1.283,22.97,1.0,,0.0,0.0,83.51
2025-08-15T01:19:17.642Z,9,GR86-049-88,73.5,-0.134,1.302,27.18,1.0,,0.0,0.0,
2025-08-15T01:19:17.685Z,9,GR86-049-88,70.8,-0.088,1.174,31.73,1.0,,0.0,0.0,
2025-08-15T01:19:17.728Z,9,GR86-049-88,69.5,-0.104,1.341,35.13,1.0,,0.0,0.0,
2025-08-15T01:19:17.815Z,9,GR86-049-88,62.8,0.165,1.076,36.61,1.0,5669.0,0.0,0.0,81.77
2025-08-15T01:19:17.857Z,9,GR86-049-88,60.2,0.151,1.001,36.71,1.0,,0.0,0.0,
2025-08-15T01:19:17.900Z,9,GR86-049-88,58.900000000000006,0.169,0.994,36.38,1.0,,0.0,0.0,
2025-08-15T01:19:17.943Z,9,GR86-049-88,59.900000000000006,0.28,1.051,36.39,1.0,,0.0,0.0,
2025-08-15T01:19:18.029Z,9,GR86-049-88,64.8,0.181,0.993,36.47,1.0,5833.0,0.0,0.0,80.29
2025-08-15T01:19:18.072Z,9,GR86-049-88,74.0,0.156,1.079,36.31,1.0,,0.0,0.0,
2025-08-15T01:19:18.115Z,9,GR86-049-88,74.8,0.318,1.025,36.06,1.0,,0.0,0.0,
2025-08-15T01:19:18.159Z,9,GR86-049-88,73.7,0.175,1.002,36.21,1.0,,0.0,0.0,
2025-08-15T01:19:18.201Z,9,GR86-049-88,75.10000000000001,0.168,1.099,36.21,1.0,6311.0,0.0,0.0,
2025-08-15T01:19:18.244Z,9,GR86-049-88,82.4,0.356,1.005,35.03,1.0,,0.0,0.0,79.42
2025-08-15T01:19:18.287Z,9,GR86-049-88,89.4,0.341,0.953,34.68,1.0,,0.0,0.0,
2025-08-15T01:19:18.373Z,9,GR86-049-88,93.0,0.291,0.965,34.99,1.0,,0.0,0.0,
2025-08-15T01:19:18.416Z,9,GR86-049-88,94.1,0.452,1.022,36.31,1.0,6321.0,0.0,0.0,
2025-08-15T01:19:18.460Z,9,GR86-049-88,94.3,0.153,1.104,72.39,1.0,,0.0,0.0,79.86
2025-08-15T01:19:18.502Z,9,GR86-049-88,94.3,-0.056,1.459,99.75,1.0,,0.0,0.0,
2025-08-15T01:19:18.546Z,9,GR86-049-88,94.0,0.412,1.265,99.9,1.0,,0.0,0.0,
2025-08-15T01:19:18.589Z,9,GR86-049-88,93.6,0.324,1.185,99.9,1.0,,0.0,0.0,
2025-08-15T01:19:18.632Z,9,GR86-049-88,88.80000000000001,0.471,1.134,99.89,1.0,6344.0,0.0,0.0,
2025-08-15T01:19:18.675Z,9,GR86-049-88,83.5,0.39,1.15,99.91,1.0,,0.0,0.0,81.22
2025-08-15T01:19:18.720Z,9,GR86-049-88,73.7,0.254,0.991,99.89,1.0,,0.0,0.0,
2025-08-15T01:19:18.763Z,9,GR86-049-88,67.60000000000001,0.235,1.139,99.9,1.0,,0.0,0.0,
2025-08-15T01:19:18.806Z,9,GR86-049-88,59.3,0.27,1.155,99.9,1.0,,0.0,0.0,
2025-08-15T01:19:18.849Z,9,GR86-049-88,50.0,0.294,1.078,99.89,1.0,6609.0,0.0,0.0,
2025-08-15T01:19:18.892Z,9,GR86-049-88,40.400000000000006,0.354,1.173,99.89,1.0,,0.0,0.0,82.56
2025-08-15T01:19:18.935Z,9,GR86-049-88,27.9,0.35,1.035,99.89,1.0,,0.0,0.0,
2025-08-15T01:19:18.979Z,9,GR86-049-88,19.4,0.327,0.962,99.91,1.0,,0.0,0.0,
2025-08-15T01:19:19.021Z,9,GR86-049-88,16.2,0.323,0.992,99.89,1.0,,0.0,0.0,
2025-08-15T01:19:19.065Z,9,GR86-049-88,13.0,0.352,0.983,99.91,1.0,6490.0,0.0,0.0,
2025-08-15T01:19:19.107Z,9,GR86-049-88,3.2,0.308,1.005,99.92,1.0,,0.0,0.0,84.33
2025-08-15T01:19:19.150Z,9,GR86-049-88,-4.5,0.343,1.005,99.91,1.0,,0.0,0.0,
2025-08-15T01:19:19.193Z,9,GR86-049-88,-11.1,0.382,0.953,99.93,1.0,,0.0,0.0,
2025-08-15T01:19:19.236Z,9,GR86-049-88,-8.3,0.407,0.911,99.95,1.0,,0.0,0.0,
2025-08-15T01:19:19.280Z,9,GR86-049-88,11.7,0.401,0.993,99.96,1.0,6804.0,0.0,0.0,
2025-08-15T01:19:19.323Z,9,GR86-049-88,31.200000000000003,0.389,1.014,99.99,1.0,,0.0,0.0,88.04
2025-08-15T01:19:19.366Z,9,GR86-049-88,49.5,0.359,1.099,99.96,1.0,,0.0,0.0,
2025-08-15T01:19:19.409Z,9,GR86-049-88,61.7,0.353,1.076,99.96,1.0,,0.0,0.0,
2025-08-15T01:19:19.452Z,9,GR86-049-88,65.2,0.323,1.043,99.95,1.0,,0.0,0.0,
2025-08-15T01:19:19.495Z,9,GR86-049-88,65.0,0.291,1.103,99.96,1.0,6998.0,0.0,0.0,
2025-08-15T01:19:19.539Z,9,GR86-049-88,59.6,0.335,1.095,99.94,1.0,,0.0,0.0,89.74
2025-08-15T01:19:19.582Z,9,GR86-049-88,55.6,0.332,1.114,99.94,1.0,,0.0,0.0,
2025-08-15T01:19:19.625Z,9,GR86-049-88,52.400000000000006,0.359,1.03,99.95,1.0,,0.0,0.0,
2025-08-15T01:19:19.669Z,9,GR86-049-88,48.900000000000006,0.407,0.854,99.95,1.0,,0.0,0.0,
2025-08-15T01:19:19.711Z,9,GR86-049-88,42.400000000000006,0.351,0.5670000000000001,99.92,1.0,7069.0,0.0,0.0,
2025-08-15T01:19:19.754Z,9,GR86-049-88,38.5,0.152,0.384,99.93,1.0,,0.0,0.0,91.18
2025-08-15T01:19:19.797Z,9,GR86-049-88,34.300000000000004,-0.082,0.91,99.93,2.0,,0.0,0.0,
2025-08-15T01:19:19.840Z,9,GR86-049-88,32.9,0.427,0.376,99.94,2.0,,0.0,0.0,
2025-08-15T01:19:19.883Z,9,GR86-049-88,33.6,0.299,0.625,99.93,2.0,,0.0,0.0,
2025-08-15T01:19:19.926Z,9,GR86-049-88,33.6,0.523,0.772,99.93,2.0,7203.0,0.0,0.0,
2025-08-15T01:19:19.969Z,9,GR86-049-88,27.1,0.431,0.763,99.93,2.0,,0.0,0.0,93.69
2025-08-15T01:19:20.012Z,9,GR86-049-88,20.3,0.404,0.976,99.93,2.0,,0.0,0.0,
2025-08-15T01:19:20.055Z,9,GR86-049-88,8.700000000000001,0.322,0.731,99.94,2.0,,0.0,0.0,
2025-08-15T01:19:20.100Z,9,GR86-049-88,-7.0,0.293,0.766,99.93,2.0,,0.0,0.0,
2025-08-15T01:19:20.186Z,9,GR86-049-88,-9.8,0.366,0.897,99.93,2.0,6016.0,0.0,0.0,94.57
2025-08-15T01:19:20.230Z,9,GR86-049-88,-12.3,0.684,0.611,99.95,2.0,,0.0,0.0,
2025-08-15T01:19:20.273Z,9,GR86-049-88,-12.6,0.426,0.6920000000000001,99.96,2.0,,0.0,0.0,
2025-08-15T01:19:20.316Z,9,GR86-049-88,-8.9,0.194,0.387,99.96,2.0,,0.0,0.0,
2025-08-15T01:19:20.360Z,9,GR86-049-88,0.0,0.622,0.808,99.96,2.0,5944.0,0.0,0.0,
2025-08-15T01:19:20.403Z,9,GR86-049-88,3.1,0.353,0.492,99.96,2.0,,0.0,0.0,97.0
2025-08-15T01:19:20.446Z,9,GR86-049-88,3.9,0.342,0.5690000000000001,99.95,2.0,,0.0,0.0,
2025-08-15T01:19:20.489Z,9,GR86-049-88,4.2,0.315,0.514,99.96,2.0,,0.0,0.0,
2025-08-15T01:19:20.532Z,9,GR86-049-88,4.1000000000000005,0.22,0.602,99.94,2.0,,0.0,0.0,
2025-08-15T01:19:20.575Z,9,GR86-049-88,3.4000000000000004,0.094,0.35,99.94,2.0,5874.0,0.0,0.0,
2025-08-15T01:19:20.620Z,9,GR86-049-88,1.0,0.377,0.473,99.94,2.0,,0.0,0.0,98.94
2025-08-15T01:19:20.663Z,9,GR86-049-88,0.8,0.343,0.154,99.93,2.0,,0.0,0.0,
2025-08-15T01:19:20.706Z,9,GR86-049-88,0.9,0.28,0.149,99.93,2.0,,0.0,0.0,
2025-08-15T01:19:20.749Z,9,GR86-049-88,1.1,0.204,0.094,99.93,2.0,,0.0,0.0,
2025-08-15T01:19:20.792Z,9,GR86-049-88,1.4,0.235,0.024,99.93,2.0,5987.0,0.0,0.0,
2025-08-15T01:19:20.835Z,9,GR86-049-88,1.5,0.171,-0.051,99.93,2.0,,0.0,0.0,100.21
2025-08-15T01:19:20.879Z,9,GR86-049-88,1.7000000000000002,0.269,-0.127,99.93,2.0,,0.0,0.0,
2025-08-15T01:19:20.921Z,9,GR86-049-88,1.7000000000000002,0.307,-0.197,99.95,2.0,,0.0,0.0,
2025-08-15T01:19:20.965Z,9,GR86-049-88,1.9,0.219,-0.221,99.95,2.0,,0.0,0.0,
2025-08-15T01:19:21.051Z,9,GR86-049-88,2.1,0.123,-0.282,99.95,2.0,6014.0,0.0,0.0,102.23
2025-08-15T01:19:21.094Z,9,GR86-049-88,2.2,0.144,-0.211,99.92,2.0,,0.0,0.0,
2025-08-15T01:19:21.139Z,9,GR86-049-88,2.2,0.393,-0.14,99.97,2.0,,0.0,0.0,
2025-08-15T01:19:21.181Z,9,GR86-049-88,2.3000000000000003,0.35,-0.139,99.94,2.0,,0.0,0.0,
2025-08-15T01:19:21.225Z,9,GR86-049-88,2.4000000000000004,0.313,-0.113,99.95,2.0,6106.0,0.0,0.0,
2025-08-15T01:19:21.268Z,9,GR86-049-88,2.5,0.3,-0.099,99.96,2.0,,0.0,0.0,103.89
2025-08-15T01:19:21.311Z,9,GR86-049-88,2.6,0.308,-0.106,99.93,2.0,,0.0,0.0,
2025-08-15T01:19:21.354Z,9,GR86-049-88,2.6,0.295,-0.104,99.95,2.0,,0.0,0.0,
2025-08-15T01:19:21.397Z,9,GR86-049-88,2.6,0.31,-0.118,99.96,2.0,,0.0,0.0,
2025-08-15T01:19:21.440Z,9,GR86-049-88,2.6,0.263,-0.07,99.94,2.0,6194.0,0.0,0.0,
2025-08-15T01:19:21.526Z,9,GR86-049-88,2.6,0.24,-0.075,99.95,2.0,,0.0,0.0,105.6
2025-08-15T01:19:21.569Z,9,GR86-049-88,2.6,0.236,-0.062,99.97,2.0,,0.0,0.0,
2025-08-15T01:19:21.612Z,9,GR86-049-88,2.6,0.307,-0.022,99.95,2.0,,0.0,0.0,
2025-08-15T01:19:21.655Z,9,GR86-049-88,2.6,0.28,-0.061,99.94,2.0,6278.0,0.0,0.0,
2025-08-15T01:19:21.699Z,9,GR86-049-88,2.7,0.235,-0.061,99.96,2.0,,0.0,0.0,107.38
2025-08-15T01:19:21.742Z,9,GR86-049-88,2.7,0.269,-0.033,99.95,2.0,,0.0,0.0,
2025-08-15T01:19:21.785Z,9,GR86-049-88,2.7,0.279,-0.044,99.95,2.0,,0.0,0.0,
2025-08-15T01:19:21.828Z,9,GR86-049-88,2.7,0.259,-0.013,99.97,2.0,,0.0,0.0,
2025-08-15T01:19:21.871Z,9,GR86-049-88,2.6,0.28,-0.013,99.96,2.0,6345.0,0.0,0.0,
2025-08-15T01:19:21.915Z,9,GR86-049-88,2.6,0.251,-0.02,99.93,2.0,,0.0,0.0,109.26
2025-08-15T01:19:21.959Z,9,GR86-049-88,2.5,0.258,-0.016,99.94,2.0,,0.0,0.0,
2025-08-15T01:19:22.001Z,9,GR86-049-88,2.4000000000000004,0.277,0.005,99.96,2.0,,0.0,0.0,
2025-08-15T01:19:22.044Z,9,GR86-049-88,2.4000000000000004,0.272,-0.008,99.96,2.0,,0.0,0.0,
2025-08-15T01:19:22.087Z,9,GR86-049-88,2.3000000000000003,0.266,-0.016,99.96,2.0,6416.0,0.0,0.0,
2025-08-15T01:19:22.130Z,9,GR86-049-88,2.2,0.273,-0.022,99.94,2.0,,0.0,0.0,112.47
2025-08-15T01:19:22.173Z,9,GR86-049-88,1.9,0.253,-0.052,99.93,2.0,,0.0,0.0,
2025-08-15T01:19:22.216Z,9,GR86-049-88,1.8,0.253,-0.056,99.95,2.0,,0.0,0.0,
2025-08-15T01:19:22.260Z,9,GR86-049-88,1.8,0.276,-0.06,99.96,2.0,,0.0,0.0,
2025-08-15T01:19:22.302Z,9,GR86-049-88,1.8,0.28,-0.063,99.95,2.0,6524.0,0.0,0.0,
2025-08-15T01:19:22.345Z,9,GR86-049-88,1.8,0.26,-0.078,99.94,2.0,,0.0,0.0,114.08
2025-08-15T01:19:22.388Z,9,GR86-049-88,1.8,0.252,-0.054,99.95,2.0,,0.0,0.0,
2025-08-15T01:19:22.431Z,9,GR86-049-88,1.8,0.25,-0.053,99.96,2.0,,0.0,0.0,
2025-08-15T01:19:22.474Z,9,GR86-049-88,1.9,0.255,-0.064,99.95,2.0,,0.0,0.0,
2025-08-15T01:19:22.517Z,9,GR86-049-88,1.9,0.275,-0.052,99.93,2.0,6600.0,0.0,0.0,
2025-08-15T01:19:22.560Z,9,GR86-049-88,2.0,0.271,-0.033,99.95,2.0,,0.0,0.0,115.5
2025-08-15T01:19:22.603Z,9,GR86-049-88,2.0,0.262,-0.044,99.92,2.0,,0.0,0.0,
2025-08-15T01:19:22.646Z,9,GR86-049-88,2.1,0.244,-0.05,99.94,2.0,,0.0,0.0,
2025-08-15T01:19:22.689Z,9,GR86-049-88,2.1,0.277,-0.012,99.94,2.0,,0.0,0.0,
2025-08-15T01:19:22.732Z,9,GR86-049-88,2.1,0.262,-0.019,99.96,2.0,6774.0,0.0,0.0,
2025-08-15T01:19:22.775Z,9,GR86-049-88,2.1,0.246,-0.017,99.96,2.0,,0.0,0.0,116.98
2025-08-15T01:19:22.820Z,9,GR86-049-88,2.2,0.244,-0.025,99.94,2.0,,0.0,0.0,
2025-08-15T01:19:22.863Z,9,GR86-049-88,2.2,0.27,-0.022,99.96,2.0,,0.0,0.0,
2025-08-15T01:19:22.906Z,9,GR86-049-88,2.2,0.262,-0.031,99.96,2.0,,0.0,0.0,
2025-08-15T01:19:22.950Z,9,GR86-049-88,2.2,0.26,-0.016,99.96,2.0,6849.0,0.0,0.0,
2025-08-15T01:19:22.993Z,9,GR86-049-88,2.2,0.274,0.004,99.95,2.0,,0.0,0.0,118.43
2025-08-15T01:19:23.036Z,9,GR86-049-88,2.2,0.261,-0.012,99.96,2.0,,0.0,0.0,
2025-08-15T01:19:23.080Z,9,GR86-049-88,2.2,0.246,-0.006,99.95,2.0,,0.0,0.0,
2025-08-15T01:19:23.123Z,9,GR86-049-88,2.2,0.252,0.004,99.93,2.0,,0.0,0.0,
2025-08-15T01:19:23.166Z,9,GR86-049-88,2.2,0.278,0.016,99.93,2.0,6931.0,0.0,0.0,
2025-08-15T01:19:23.209Z,9,GR86-049-88,2.2,0.253,-0.012,99.96,2.0,,0.0,0.0,119.79
2025-08-15T01:19:23.252Z,9,GR86-049-88,1.9,0.258,-0.017,99.93,2.0,,0.0,0.0,
2025-08-15T01:19:23.295Z,9,GR86-049-88,1.3,0.259,-0.024,99.94,2.0,,0.0,0.0,
2025-08-15T01:19:23.339Z,9,GR86-049-88,1.0,0.269,-0.059,99.96,2.0,,0.0,0.0,
2025-08-15T01:19:23.382Z,9,GR86-049-88,1.0,0.254,-0.08,99.94,2.0,7003.0,0.0,0.0,
2025-08-15T01:19:23.425Z,9,GR86-049-88,1.0,0.258,-0.076,99.95,2.0,,0.0,0.0,121.01
2025-08-15T01:19:23.469Z,9,GR86-049-88,1.2000000000000002,0.27,-0.055,99.93,2.0,,0.0,0.0,
2025-08-15T01:19:23.511Z,9,GR86-049-88,1.4,0.238,-0.085,99.96,2.0,,0.0,0.0,
2025-08-15T01:19:23.554Z,9,GR86-049-88,1.6,0.25,-0.073,99.96,2.0,,0.0,0.0,
2025-08-15T01:19:23.597Z,9,GR86-049-88,1.9,0.272,-0.044,99.96,2.0,7059.0,0.0,0.0,
2025-08-15T01:19:23.640Z,9,GR86-049-88,2.1,0.268,-0.033,99.94,2.0,,0.0,0.0,122.19
2025-08-15T01:19:23.683Z,9,GR86-049-88,2.1,0.246,-0.038,99.96,2.0,,0.0,0.0,
2025-08-15T01:19:23.726Z,9,GR86-049-88,2.1,0.241,-0.044,99.96,2.0,,0.0,0.0,
2025-08-15T01:19:23.769Z,9,GR86-049-88,2.1,0.253,-0.018,99.95,2.0,,0.0,0.0,
2025-08-15T01:19:23.812Z,9,GR86-049-88,2.1,-0.026,-0.018,99.93,3.0,7126.0,0.0,0.0,
2025-08-15T01:19:23.855Z,9,GR86-049-88,2.1,0.293,0.013,99.94,3.0,,0.0,0.0,123.32
2025-08-15T01:19:23.899Z,9,GR86-049-88,2.2,0.336,-0.121,99.95,3.0,,0.0,0.0,
2025-08-15T01:19:23.942Z,9,GR86-049-88,2.2,0.44,0.023,99.96,3.0,,0.0,0.0,
2025-08-15T01:19:23.985Z,9,GR86-049-88,2.2,0.187,0.008,99.96,3.0,,0.0,0.0,
2025-08-15T01:19:24.028Z,9,GR86-049-88,2.2,0.071,-0.122,99.95,3.0,7196.0,0.0,0.0,
2025-08-15T01:19:24.071Z,9,GR86-049-88,2.2,0.133,0.023,99.95,3.0,,0.0,0.0,124.47
2025-08-15T01:19:24.114Z,9,GR86-049-88,2.2,0.319,-0.026,99.96,3.0,,0.0,0.0,
2025-08-15T01:19:24.157Z,9,GR86-049-88,2.2,0.259,-0.084,99.94,3.0,,0.0,0.0,
2025-08-15T01:19:24.200Z,9,GR86-049-88,2.2,0.188,-0.005,99.94,3.0,,0.0,0.0,
2025-08-15T01:19:24.243Z,9,GR86-049-88,2.2,0.148,-0.065,99.93,3.0,6132.0,0.0,0.0,
2025-08-15T01:19:24.286Z,9,GR86-049-88,2.2,0.241,0.015,99.95,3.0,,0.0,0.0,125.43
2025-08-15T01:19:24.329Z,9,GR86-049-88,1.5,0.272,-0.018,99.93,3.0,,0.0,0.0,
2025-08-15T01:19:24.372Z,9,GR86-049-88,-0.2,0.188,-0.06,99.93,3.0,,0.0,0.0,
2025-08-15T01:19:24.415Z,9,GR86-049-88,-0.4,0.196,-0.053,99.94,3.0,,0.0,0.0,
2025-08-15T01:19:24.459Z,9,GR86-049-88,0.0,0.185,-0.083,99.93,3.0,6003.0,0.0,0.0,
2025-08-15T01:19:24.501Z,9,GR86-049-88,1.2000000000000002,0.254,-0.071,99.93,3.0,,0.0,0.0,126.75
2025-08-15T01:19:24.544Z,9,GR86-049-88,1.3,0.233,-0.083,99.94,3.0,,0.0,0.0,
2025-08-15T01:19:24.587Z,9,GR86-049-88,1.3,0.162,-0.084,99.93,3.0,,0.0,0.0,
2025-08-15T01:19:24.630Z,9,GR86-049-88,1.3,0.238,-0.081,99.94,3.0,,0.0,0.0,
2025-08-15T01:19:24.673Z,9,GR86-049-88,1.7000000000000002,0.242,-0.064,99.95,3.0,5989.0,0.0,0.0,
2025-08-15T01:19:24.716Z,9,GR86-049-88,1.9,0.174,-0.063,99.95,3.0,,0.0,0.0,127.61
2025-08-15T01:19:24.760Z,9,GR86-049-88,2.1,0.183,-0.037,99.95,3.0,,0.0,0.0,
2025-08-15T01:19:24.802Z,9,GR86-049-88,2.4000000000000004,0.175,-0.008,99.94,3.0,,0.0,0.0,
2025-08-15T01:19:24.846Z,9,GR86-049-88,2.6,0.253,0.008,99.95,3.0,,0.0,0.0,
2025-08-15T01:19:24.889Z,9,GR86-049-88,2.6,0.229,0.001,99.93,3.0,6023.0,0.0,0.0,
2025-08-15T01:19:24.932Z,9,GR86-049-88,2.6,0.156,0.002,99.93,3.0,,0.0,0.0,129.22
2025-08-15T01:19:24.975Z,9,GR86-049-88,2.6,0.215,0.017,99.93,3.0,,0.0,0.0,
2025-08-15T01:19:25.020Z,9,GR86-049-88,2.9000000000000004,0.191,0.034,99.96,3.0,,0.0,0.0,
2025-08-15T01:19:25.063Z,9,GR86-049-88,3.3000000000000003,0.286,0.038,88.43,3.0,,0.0,0.0,
2025-08-15T01:19:25.106Z,9,GR86-049-88,3.6,0.208,0.017,16.93,3.0,6053.0,0.0,0.0,
2025-08-15T01:19:25.149Z,9,GR86-049-88,3.9,0.147,0.028,4.95,3.0,,0.0,0.0,130.04
2025-08-15T01:19:25.192Z,9,GR86-049-88,4.6000000000000005,0.138,0.047,4.5,3.0,,0.0,0.0,
2025-08-15T01:19:25.235Z,9,GR86-049-88,4.7,-0.061,0.081,4.1,3.0,,25.055,25.36,
2025-08-15T01:19:25.279Z,9,GR86-049-88,4.800000000000001,-0.843,0.064,3.73,3.0,,53.365,52.92,
2025-08-15T01:19:25.321Z,9,GR86-049-88,4.800000000000001,-0.922,0.081,3.43,3.0,6135.0,69.25,70.03,
2025-08-15T01:19:25.365Z,9,GR86-049-88,4.800000000000001,-1.031,0.106,3.22,3.0,,72.76,74.44,130.9
2025-08-15T01:19:25.408Z,9,GR86-049-88,4.800000000000001,-1.024,0.08,19.3,3.0,,62.505,64.305,
2025-08-15T01:19:25.451Z,9,GR86-049-88,5.300000000000001,-0.805,0.127,55.46,2.0,,51.595,53.0,
2025-08-15T01:19:25.494Z,9,GR86-049-88,7.6,-0.844,0.056,7.7,2.0,,47.64,48.620000000000005,
2025-08-15T01:19:25.537Z,9,GR86-049-88,8.4,-0.929,0.16,4.43,2.0,5843.0,50.28,51.335,
2025-08-15T01:19:25.580Z,9,GR86-049-88,8.4,-1.03,0.079,3.89,2.0,,53.99,54.585,131.11
2025-08-15T01:19:25.623Z,9,GR86-049-88,8.4,-1.177,0.142,3.75,2.0,,51.96,52.77,
2025-08-15T01:19:25.666Z,9,GR86-049-88,8.5,-0.861,0.313,3.5700000000000003,2.0,,47.09,48.055,
2025-08-15T01:19:25.709Z,9,GR86-049-88,8.700000000000001,-0.779,0.084,3.38,2.0,,41.25,41.935,
2025-08-15T01:19:25.752Z,9,GR86-049-88,8.8,-1.087,0.373,3.14,2.0,5697.0,36.335,36.96,
2025-08-15T01:19:25.795Z,9,GR86-049-88,8.6,-0.897,0.445,2.89,2.0,,35.31,36.12,122.26
2025-08-15T01:19:25.839Z,9,GR86-049-88,12.4,-0.799,0.34,2.64,2.0,,33.025,33.465,
2025-08-15T01:19:25.881Z,9,GR86-049-88,16.5,-0.912,0.581,2.54,2.0,,30.675,31.205,
2025-08-15T01:19:25.924Z,9,GR86-049-88,18.0,-0.761,0.468,2.5,2.0,,28.935,29.62,
2025-08-15T01:19:25.967Z,9,GR86-049-88,20.0,-0.659,0.458,2.48,2.0,5577.0,24.4,24.89,
2025-08-15T01:19:26.010Z,9,GR86-049-88,23.6,-0.535,0.65,2.46,2.0,,18.83,19.395,115.79
2025-08-15T01:19:26.053Z,9,GR86-049-88,28.9,-0.474,0.537,2.46,2.0,,14.39,15.09,
2025-08-15T01:19:26.096Z,9,GR86-049-88,34.800000000000004,-0.421,0.55,2.46,2.0,,13.335,13.995,
2025-08-15T01:19:26.140Z,9,GR86-049-88,41.6,-0.406,0.742,2.46,2.0,,12.24,12.925,
2025-08-15T01:19:26.182Z,9,GR86-049-88,44.3,-0.38,0.673,2.46,2.0,6052.0,12.59,12.925,
2025-08-15T01:19:26.225Z,9,GR86-049-88,47.8,-0.396,0.764,2.46,2.0,,13.305,13.675,112.21
2025-08-15T01:19:26.268Z,9,GR86-049-88,51.7,-0.402,0.839,2.48,2.0,,14.025,14.33,
2025-08-15T01:19:26.311Z,9,GR86-049-88,52.900000000000006,-0.409,0.8320000000000001,2.45,2.0,,14.68,15.06,
2025-08-15T01:19:26.355Z,9,GR86-049-88,52.6,-0.395,0.896,2.46,2.0,,14.085,14.51,
2025-08-15T01:19:26.400Z,9,GR86-049-88,50.0,-0.302,0.983,2.45,2.0,5895.0,4.305,4.6850000000000005,
2025-08-15T01:19:26.443Z,9,GR86-049-88,49.5,-0.204,1.003,2.45,2.0,,0.0,0.0,107.2
2025-08-15T01:19:26.486Z,9,GR86-049-88,49.5,-0.215,1.044,2.46,2.0,,0.0,0.0,
2025-08-15T01:19:26.530Z,9,GR86-049-88,49.1,-0.153,1.047,2.46,2.0,,0.0,0.0,
2025-08-15T01:19:26.573Z,9,GR86-049-88,49.1,-0.137,1.033,2.46,2.0,,0.0,0.0,
2025-08-15T01:19:26.616Z,9,GR86-049-88,50.7,-0.136,1.076,2.47,2.0,5706.0,0.0,0.0,
2025-08-15T01:19:26.660Z,9,GR86-049-88,59.0,-0.151,1.044,2.47,2.0,,0.0,0.0,104.31
2025-08-15T01:19:26.702Z,9,GR86-049-88,62.3,-0.169,1.136,2.46,2.0,,0.0,0.0,
2025-08-15T01:19:26.745Z,9,GR86-049-88,62.8,-0.151,1.113,2.48,2.0,,0.0,0.0,
2025-08-15T01:19:26.789Z,9,GR86-049-88,62.8,-0.145,1.093,2.47,2.0,,0.0,0.0,
2025-08-15T01:19:26.832Z,9,GR86-049-88,62.900000000000006,-0.171,1.174,2.47,2.0,5582.0,0.0,0.0,
2025-08-15T01:19:26.875Z,9,GR86-049-88,64.0,-0.168,1.153,2.88,2.0,,0.0,0.0,102.37
2025-08-15T01:19:26.920Z,9,GR86-049-88,64.8,-0.151,1.173,7.12,2.0,,0.0,0.0,
2025-08-15T01:19:26.963Z,9,GR86-049-88,65.7,-0.18,1.223,18.18,2.0,,0.0,0.0,
2025-08-15T01:19:27.006Z,9,GR86-049-88,67.60000000000001,-0.175,1.218,20.37,2.0,,0.0,0.0,
2025-08-15T01:19:27.049Z,9,GR86-049-88,70.9,-0.139,1.183,20.62,2.0,5481.0,0.0,0.0,
2025-08-15T01:19:27.092Z,9,GR86-049-88,74.8,-0.116,1.206,20.97,2.0,,0.0,0.0,100.57
2025-08-15T01:19:27.135Z,9,GR86-049-88,77.4,-0.111,1.216,21.39,2.0,,0.0,0.0,
2025-08-15T01:19:27.178Z,9,GR86-049-88,77.5,-0.108,1.159,23.85,2.0,,0.0,0.0,
2025-08-15T01:19:27.221Z,9,GR86-049-88,77.7,-0.032,1.274,23.93,2.0,,0.0,0.0,
2025-08-15T01:19:27.264Z,9,GR86-049-88,78.7,0.09,1.228,23.87,2.0,5397.0,0.0,0.0,
2025-08-15T01:19:27.307Z,9,GR86-049-88,79.30000000000001,0.097,1.215,23.55,2.0,,0.0,0.0,98.83
2025-08-15T01:19:27.350Z,9,GR86-049-88,79.80000000000001,0.094,1.209,23.17,2.0,,0.0,0.0,
2025-08-15T01:19:27.393Z,9,GR86-049-88,80.30000000000001,0.098,1.225,22.83,2.0,,0.0,0.0,
2025-08-15T01:19:27.436Z,9,GR86-049-88,81.7,0.047,1.123,22.74,2.0,,0.0,0.0,
2025-08-15T01:19:27.480Z,9,GR86-049-88,84.2,0.064,1.148,22.83,2.0,5398.0,0.0,0.0,
2025-08-15T01:19:27.523Z,9,GR86-049-88,85.80000000000001,0.057,1.154,22.92,2.0,,0.0,0.0,95.97
2025-08-15T01:19:27.566Z,9,GR86-049-88,86.7,0.044,1.159,22.96,2.0,,0.0,0.0,
2025-08-15T01:19:27.609Z,9,GR86-049-88,87.30000000000001,0.06,1.2,23.0,2.0,,0.0,0.0,
2025-08-15T01:19:27.652Z,9,GR86-049-88,87.80000000000001,0.05,1.195,23.04,2.0,,0.0,0.0,
2025-08-15T01:19:27.695Z,9,GR86-049-88,88.0,0.064,1.296,22.99,2.0,5610.0,0.0,0.0,
2025-08-15T01:19:27.739Z,9,GR86-049-88,88.60000000000001,0.031,1.224,23.34,2.0,,0.0,0.0,95.24
2025-08-15T01:19:27.781Z,9,GR86-049-88,89.0,0.057,1.209,23.63,2.0,,0.0,0.0,
2025-08-15T01:19:27.824Z,9,GR86-049-88,89.5,0.068,1.123,23.97,2.0,,0.0,0.0,
2025-08-15T01:19:27.869Z,9,GR86-049-88,89.80000000000001,0.016,1.111,24.88,2.0,,0.0,0.0,
2025-08-15T01:19:27.911Z,9,GR86-049-88,90.3,0.04,1.194,25.74,2.0,5527.0,0.0,0.0,
2025-08-15T01:19:27.954Z,9,GR86-049-88,90.6,0.062,1.079,26.63,2.0,,0.0,0.0,95.21
2025-08-15T01:19:27.997Z,9,GR86-049-88,90.7,0.141,1.082,28.3,2.0,,0.0,0.0,
2025-08-15T01:19:28.040Z,9,GR86-049-88,90.7,0.129,1.063,59.8,2.0,,0.0,0.0,
2025-08-15T01:19:28.083Z,9,GR86-049-88,90.7,0.129,1.118,97.48,2.0,,0.0,0.0,
2025-08-15T01:19:28.126Z,9,GR86-049-88,90.3,0.132,1.156,99.85,2.0,5522.0,0.0,0.0,
2025-08-15T01:19:28.169Z,9,GR86-049-88,89.0,0.188,1.082,99.92,2.0,,0.0,0.0,95.8
2025-08-15T01:19:28.212Z,9,GR86-049-88,86.80000000000001,0.264,1.084,99.93,2.0,,0.0,0.0,
2025-08-15T01:19:28.255Z,9,GR86-049-88,84.5,0.224,1.069,99.93,2.0,,0.0,0.0,
2025-08-15T01:19:28.299Z,9,GR86-049-88,83.60000000000001,0.191,1.154,99.94,2.0,,0.0,0.0,
2025-08-15T01:19:28.341Z,9,GR86-049-88,83.4,0.223,1.199,99.93,2.0,5630.0,0.0,0.0,
2025-08-15T01:19:28.385Z,9,GR86-049-88,82.80000000000001,0.245,1.26,99.93,2.0,,0.0,0.0,96.32
2025-08-15T01:19:28.428Z,9,GR86-049-88,80.0,0.219,1.208,99.92,2.0,,0.0,0.0,
2025-08-15T01:19:28.471Z,9,GR86-049-88,74.2,0.228,1.173,99.93,2.0,,0.0,0.0,
2025-08-15T01:19:28.515Z,9,GR86-049-88,69.3,0.218,1.142,99.94,2.0,,0.0,0.0,
2025-08-15T01:19:28.559Z,9,GR86-049-88,65.10000000000001,0.204,1.163,99.95,2.0,5760.0,0.0,0.0,
2025-08-15T01:19:28.601Z,9,GR86-049-88,64.60000000000001,0.233,1.158,99.95,2.0,,0.0,0.0,97.35
2025-08-15T01:19:28.644Z,9,GR86-049-88,64.60000000000001,0.231,1.147,99.94,2.0,,0.0,0.0,
2025-08-15T01:19:28.687Z,9,GR86-049-88,64.0,0.244,1.092,99.94,2.0,,0.0,0.0,
2025-08-15T01:19:28.730Z,9,GR86-049-88,58.0,0.255,1.149,99.93,2.0,,0.0,0.0,
2025-08-15T01:19:28.773Z,9,GR86-049-88,47.3,0.204,1.065,99.93,2.0,5849.0,0.0,0.0,
2025-08-15T01:19:28.859Z,9,GR86-049-88,34.7,0.269,1.101,99.96,2.0,,0.0,0.0,98.97
2025-08-15T01:19:28.945Z,9,GR86-049-88,34.5,0.217,1.093,99.96,2.0,,0.0,0.0,
2025-08-15T01:19:28.988Z,9,GR86-049-88,35.300000000000004,0.23,1.116,99.96,2.0,5961.0,0.0,0.0,
2025-08-15T01:19:29.031Z,9,GR86-049-88,35.300000000000004,0.279,1.129,99.96,2.0,,0.0,0.0,100.2
2025-08-15T01:19:29.074Z,9,GR86-049-88,35.300000000000004,0.279,1.21,99.96,2.0,,0.0,0.0,
2025-08-15T01:19:29.117Z,9,GR86-049-88,35.300000000000004,0.311,1.194,99.94,2.0,,0.0,0.0,
2025-08-15T01:19:29.160Z,9,GR86-049-88,35.300000000000004,0.278,1.204,99.96,2.0,,0.0,0.0,
2025-08-15T01:19:29.203Z,9,GR86-049-88,35.300000000000004,0.251,1.213,99.95,2.0,6118.0,0.0,0.0,
2025-08-15T01:19:29.246Z,9,GR86-049-88,35.300000000000004,0.278,1.177,99.94,2.0,,0.0,0.0,101.5
2025-08-15T01:19:29.289Z,9,GR86-049-88,35.300000000000004,0.224,1.127,99.94,2.0,,0.0,0.0,
2025-08-15T01:19:29.332Z,9,GR86-049-88,36.4,0.194,0.98,99.97,2.0,,0.0,0.0,
2025-08-15T01:19:29.375Z,9,GR86-049-88,38.2,0.252,0.8290000000000001,99.96,2.0,,0.0,0.0,
2025-08-15T01:19:29.420Z,9,GR86-049-88,42.5,0.371,1.07,99.96,2.0,6200.0,0.0,0.0,
2025-08-15T01:19:29.463Z,9,GR86-049-88,44.6,0.408,0.734,99.95,2.0,,0.0,0.0,103.07
2025-08-15T01:19:29.506Z,9,GR86-049-88,45.1,0.248,0.904,99.98,2.0,,0.0,0.0,
2025-08-15T01:19:29.550Z,9,GR86-049-88,44.0,0.204,1.209,99.94,2.0,,0.0,0.0,
2025-08-15T01:19:29.593Z,9,GR86-049-88,40.2,0.237,1.026,99.95,2.0,,0.0,0.0,
2025-08-15T01:19:29.636Z,9,GR86-049-88,38.1,0.142,1.068,99.95,2.0,6246.0,0.0,0.0,
2025-08-15T01:19:29.680Z,9,GR86-049-88,37.4,0.349,1.124,99.96,2.0,,0.0,0.0,104.61
2025-08-15T01:19:29.723Z,9,GR86-049-88,36.5,0.233,1.085,99.96,2.0,,0.0,0.0,
2025-08-15T01:19:29.766Z,9,GR86-049-88,35.9,-0.015,1.111,99.96,2.0,,0.0,0.0,
2025-08-15T01:19:29.809Z,9,GR86-049-88,35.5,-0.07,0.973,99.96,2.0,,0.0,0.0,
2025-08-15T01:19:29.852Z,9,GR86-049-88,35.1,-0.134,0.971,99.96,2.0,6266.0,0.0,0.0,
2025-08-15T01:19:29.895Z,9,GR86-049-88,34.1,0.107,0.858,99.94,2.0,,0.0,0.0,105.15
2025-08-15T01:19:29.939Z,9,GR86-049-88,30.6,0.196,0.888,99.94,2.0,,0.0,0.0,
2025-08-15T01:19:29.982Z,9,GR86-049-88,27.1,0.062,0.789,99.96,2.0,,0.0,0.0,
2025-08-15T01:19:30.025Z,9,GR86-049-88,24.8,0.052,0.901,99.95,2.0,,0.0,0.0,
2025-08-15T01:19:30.069Z,9,GR86-049-88,22.5,0.176,0.849,99.96,2.0,6479.0,0.0,0.0,
2025-08-15T01:19:30.111Z,9,GR86-049-88,20.3,0.333,0.857,99.93,2.0,,0.0,0.0,106.7
2025-08-15T01:19:30.154Z,9,GR86-049-88,19.6,0.327,0.802,99.96,2.0,,0.0,0.0,
2025-08-15T01:19:30.197Z,9,GR86-049-88,19.6,0.259,0.741,99.95,2.0,,0.0,0.0,
2025-08-15T01:19:30.240Z,9,GR86-049-88,21.1,0.214,0.608,99.96,2.0,,0.0,0.0,
2025-08-15T01:19:30.283Z,9,GR86-049-88,23.5,0.182,0.647,99.96,2.0,6456.0,0.0,0.0,
2025-08-15T01:19:30.326Z,9,GR86-049-88,25.3,0.203,0.416,99.94,2.0,,0.0,0.0,109.53
2025-08-15T01:19:30.369Z,9,GR86-049-88,28.200000000000003,0.185,0.547,99.96,2.0,,0.0,0.0,
2025-08-15T01:19:30.412Z,9,GR86-049-88,31.6,0.182,0.579,99.97,2.0,,0.0,0.0,
2025-08-15T01:19:30.455Z,9,GR86-049-88,32.6,0.04,0.608,99.96,2.0,,0.0,0.0,
2025-08-15T01:19:30.499Z,9,GR86-049-88,30.3,0.314,0.638,99.96,2.0,6597.0,0.0,0.0,
2025-08-15T01:19:30.541Z,9,GR86-049-88,24.0,0.37,0.598,99.95,2.0,,0.0,0.0,111.54
2025-08-15T01:19:30.585Z,9,GR86-049-88,17.3,0.255,0.531,99.97,2.0,,0.0,0.0,
2025-08-15T01:19:30.628Z,9,GR86-049-88,12.4,0.249,0.412,99.96,2.0,,0.0,0.0,
2025-08-15T01:19:30.671Z,9,GR86-049-88,9.8,0.316,0.596,99.96,2.0,,0.0,0.0,
2025-08-15T01:19:30.715Z,9,GR86-049-88,8.5,0.282,0.323,99.96,2.0,6588.0,0.0,0.0,
2025-08-15T01:19:30.759Z,9,GR86-049-88,7.9,0.241,0.35,99.95,2.0,,0.0,0.0,113.84
2025-08-15T01:19:30.801Z,9,GR86-049-88,7.9,0.198,0.238,99.96,2.0,,0.0,0.0,
2025-08-15T01:19:30.844Z,9,GR86-049-88,7.9,0.296,0.119,99.96,2.0,,0.0,0.0,
2025-08-15T01:19:30.887Z,9,GR86-049-88,7.7,0.277,-0.006,99.96,2.0,,0.0,0.0,
2025-08-15T01:19:30.930Z,9,GR86-049-88,7.5,0.352,0.107,99.97,2.0,6778.0,0.0,0.0,
2025-08-15T01:19:30.973Z,9,GR86-049-88,7.2,0.263,-0.077,99.93,2.0,,0.0,0.0,115.71
2025-08-15T01:19:31.016Z,9,GR86-049-88,7.2,0.271,0.069,99.96,2.0,,0.0,0.0,
2025-08-15T01:19:31.060Z,9,GR86-049-88,7.300000000000001,0.209,0.044,99.96,2.0,,0.0,0.0,
2025-08-15T01:19:31.103Z,9,GR86-049-88,7.300000000000001,0.297,0.078,99.96,2.0,,0.0,0.0,
2025-08-15T01:19:31.146Z,9,GR86-049-88,7.300000000000001,0.27,0.043,99.97,2.0,6903.0,0.0,0.0,
2025-08-15T01:19:31.189Z,9,GR86-049-88,7.300000000000001,0.227,0.01,99.96,2.0,,0.0,0.0,117.59
2025-08-15T01:19:31.232Z,9,GR86-049-88,7.300000000000001,0.29,0.025,99.96,2.0,,0.0,0.0,
2025-08-15T01:19:31.275Z,9,GR86-049-88,7.300000000000001,0.275,0.022,99.97,2.0,,0.0,0.0,
2025-08-15T01:19:31.320Z,9,GR86-049-88,7.300000000000001,0.273,0.033,99.96,2.0,,0.0,0.0,
2025-08-15T01:19:31.363Z,9,GR86-049-88,7.300000000000001,0.234,0.072,99.95,2.0,6936.0,0.0,0.0,
2025-08-15T01:19:31.406Z,9,GR86-049-88,7.2,0.267,0.1,99.97,2.0,,0.0,0.0,119.54
2025-08-15T01:19:31.449Z,9,GR86-049-88,6.5,0.265,0.055,99.96,2.0,,0.0,0.0,
2025-08-15T01:19:31.492Z,9,GR86-049-88,5.300000000000001,0.21,0.057,99.96,2.0,,0.0,0.0,
2025-08-15T01:19:31.535Z,9,GR86-049-88,4.1000000000000005,0.288,0.07,99.99,2.0,,0.0,0.0,
2025-08-15T01:19:31.579Z,9,GR86-049-88,2.8000000000000003,0.274,0.016,99.96,2.0,7053.0,0.0,0.0,
2025-08-15T01:19:31.622Z,9,GR86-049-88,2.4000000000000004,0.275,-0.024,99.99,2.0,,0.0,0.0,121.29
2025-08-15T01:19:31.665Z,9,GR86-049-88,1.9,0.218,-0.056,99.96,2.0,,0.0,0.0,
2025-08-15T01:19:31.708Z,9,GR86-049-88,1.7000000000000002,0.252,-0.04,99.96,2.0,,0.0,0.0,
2025-08-15T01:19:31.751Z,9,GR86-049-88,1.5,0.285,-0.062,99.97,2.0,,0.0,0.0,
2025-08-15T01:19:31.794Z,9,GR86-049-88,1.5,0.223,-0.115,99.96,2.0,7169.0,0.0,0.0,
2025-08-15T01:19:31.837Z,9,GR86-049-88,1.5,-0.036,-0.082,99.96,3.0,,0.0,0.0,123.3
2025-08-15T01:19:31.880Z,9,GR86-049-88,1.5,0.617,-0.055,99.96,3.0,,0.0,0.0,
2025-08-15T01:19:31.923Z,9,GR86-049-88,2.2,0.432,-0.136,99.96,3.0,,0.0,0.0,
2025-08-15T01:19:31.966Z,9,GR86-049-88,2.4000000000000004,0.402,-0.066,99.96,3.0,,0.0,0.0,
2025-08-15T01:19:32.009Z,9,GR86-049-88,2.4000000000000004,0.113,-0.006,99.96,3.0,7277.0,0.0,0.0,
2025-08-15T01:19:32.052Z,9,GR86-049-88,2.4000000000000004,0.136,-0.121,99.96,3.0,,0.0,0.0,125.16
2025-08-15T01:19:32.095Z,9,GR86-049-88,1.8,0.186,-0.032,99.96,3.0,,0.0,0.0,
2025-08-15T01:19:32.139Z,9,GR86-049-88,-0.7000000000000001,0.333,-0.129,99.96,3.0,,0.0,0.0,
