timestamp,lap,vehicle_id,steering_angle,accx_can,accy_can,ath,gear,nmot,pbrake_f,pbrake_r,speed
2025-08-15T03:18:13.154Z,4,GR86-063-113,3.8,0.243,0.044,100.02,2.0,,0.0,0.0,
2025-08-15T03:18:13.197Z,4,GR86-063-113,3.8,0.227,0.026,100.01,2.0,,0.0,0.0,
2025-08-15T03:18:13.240Z,4,GR86-063-113,3.8,-0.05,0.033,100.01,3.0,7296.0,0.0,0.0,
2025-08-15T03:18:13.284Z,4,GR86-063-113,3.8,-0.02,0.072,99.98,3.0,,0.0,0.0,126.72
2025-08-15T03:18:13.327Z,4,GR86-063-113,4.0,0.752,0.011,99.99,3.0,,0.0,0.0,
2025-08-15T03:18:13.370Z,4,GR86-063-113,4.1000000000000005,0.399,-0.014,99.99,3.0,,0.0,0.0,
2025-08-15T03:18:13.415Z,4,GR86-063-113,4.2,0.163,0.074,99.99,3.0,,0.0,0.0,
2025-08-15T03:18:13.458Z,4,GR86-063-113,4.1000000000000005,-0.013,0.023,99.98,3.0,5885.0,0.0,0.0,
2025-08-15T03:18:13.501Z,4,GR86-063-113,4.1000000000000005,0.179,0.062,99.97,3.0,,0.0,0.0,127.43
2025-08-15T03:18:13.544Z,4,GR86-063-113,4.2,0.327,0.085,99.98,3.0,,0.0,0.0,
2025-08-15T03:18:13.587Z,4,GR86-063-113,4.2,0.251,0.022,99.99,3.0,,0.0,0.0,
2025-08-15T03:18:13.630Z,4,GR86-063-113,4.2,0.185,0.074,99.98,3.0,,0.0,0.0,
2025-08-15T03:18:13.674Z,4,GR86-063-113,4.1000000000000005,0.151,0.042,99.99,3.0,5985.0,0.0,0.0,
2025-08-15T03:18:13.717Z,4,GR86-063-113,4.1000000000000005,0.243,0.048,99.98,3.0,,0.0,0.0,128.62
2025-08-15T03:18:13.760Z,4,GR86-063-113,4.1000000000000005,0.259,0.039,99.99,3.0,,0.0,0.0,
2025-08-15T03:18:13.804Z,4,GR86-063-113,3.7,0.191,0.032,99.99,3.0,,0.0,0.0,
2025-08-15T03:18:13.846Z,4,GR86-063-113,2.7,0.191,0.028,100.01,3.0,,0.0,0.0,
2025-08-15T03:18:13.889Z,4,GR86-063-113,2.2,0.239,-0.008,100.0,3.0,6047.0,0.0,0.0,
2025-08-15T03:18:13.933Z,4,GR86-063-113,1.7000000000000002,0.247,-0.032,99.99,3.0,,0.0,0.0,129.42000000000002
2025-08-15T03:18:13.976Z,4,GR86-063-113,1.7000000000000002,0.237,-0.039,100.0,3.0,,0.0,0.0,
2025-08-15T03:18:14.019Z,4,GR86-063-113,1.8,0.174,-0.035,99.98,3.0,,0.0,0.0,
2025-08-15T03:18:14.064Z,4,GR86-063-113,2.1,0.207,-0.021,99.98,3.0,,0.0,0.0,
2025-08-15T03:18:14.107Z,4,GR86-063-113,2.5,0.237,-0.041,99.98,3.0,6090.0,0.0,0.0,
2025-08-15T03:18:14.150Z,4,GR86-063-113,2.5,0.218,-0.037,99.99,3.0,,0.0,0.0,130.25
2025-08-15T03:18:14.194Z,4,GR86-063-113,2.5,0.217,-0.028,99.98,3.0,,0.0,0.0,
2025-08-15T03:18:14.237Z,4,GR86-063-113,2.6,0.183,-0.004,99.99,3.0,,0.0,0.0,
2025-08-15T03:18:14.280Z,4,GR86-063-113,2.9000000000000004,0.209,0.013,100.0,3.0,,0.0,0.0,
2025-08-15T03:18:14.325Z,4,GR86-063-113,3.8,0.242,0.013,90.28,3.0,6136.0,6.515000000000001,6.715,
2025-08-15T03:18:14.368Z,4,GR86-063-113,4.5,0.129,0.036,33.730000000000004,3.0,,9.845,9.965,131.11
2025-08-15T03:18:14.411Z,4,GR86-063-113,4.800000000000001,0.058,0.072,4.07,3.0,,12.45,12.62,
2025-08-15T03:18:14.454Z,4,GR86-063-113,4.800000000000001,-0.115,0.066,3.58,3.0,,17.580000000000002,17.81,
2025-08-15T03:18:14.497Z,4,GR86-063-113,4.800000000000001,-0.394,0.099,3.39,3.0,,23.835,23.775,
2025-08-15T03:18:14.540Z,4,GR86-063-113,4.800000000000001,-0.456,0.048,40.56,3.0,6170.0,30.795,30.52,
2025-08-15T03:18:14.584Z,4,GR86-063-113,4.800000000000001,-0.741,0.035,89.4,3.0,,36.7,36.485,131.97
2025-08-15T03:18:14.627Z,4,GR86-063-113,4.800000000000001,-0.678,0.139,100.01,3.0,,39.615,39.34,
2025-08-15T03:18:14.670Z,4,GR86-063-113,5.0,-0.66,0.024,84.32000000000001,2.0,,39.935,40.33,
2025-08-15T03:18:14.714Z,4,GR86-063-113,5.0,-0.8190000000000001,0.098,5.3,2.0,,40.15,40.895,
2025-08-15T03:18:14.757Z,4,GR86-063-113,5.0,-0.719,0.124,3.02,2.0,5806.0,42.055,43.295,
2025-08-15T03:18:14.800Z,4,GR86-063-113,6.800000000000001,-0.784,0.044,2.67,2.0,,41.995,42.605,130.86
2025-08-15T03:18:14.844Z,4,GR86-063-113,9.6,-0.8220000000000001,0.173,2.56,2.0,,41.49,42.24,
2025-08-15T03:18:14.886Z,4,GR86-063-113,10.6,-0.741,0.186,2.51,2.0,,42.33,42.715,
2025-08-15T03:18:14.929Z,4,GR86-063-113,12.5,-0.852,0.174,2.5,2.0,,41.08,41.28,
2025-08-15T03:18:14.974Z,4,GR86-063-113,14.8,-0.8160000000000001,0.356,2.47,2.0,6545.0,41.11,41.52,
2025-08-15T03:18:15.017Z,4,GR86-063-113,15.6,-0.8180000000000001,0.271,2.47,2.0,,40.805,41.215,119.3
2025-08-15T03:18:15.060Z,4,GR86-063-113,15.8,-0.86,0.431,2.47,2.0,,40.47,40.925,
2025-08-15T03:18:15.104Z,4,GR86-063-113,16.8,-0.8210000000000001,0.402,2.47,2.0,,40.12,41.05,
2025-08-15T03:18:15.147Z,4,GR86-063-113,21.9,-0.843,0.425,2.47,2.0,,39.815,40.53,
2025-08-15T03:18:15.190Z,4,GR86-063-113,27.700000000000003,-0.8260000000000001,0.52,2.47,2.0,6511.0,39.37,40.425,
2025-08-15T03:18:15.234Z,4,GR86-063-113,36.4,-0.767,0.5680000000000001,2.47,2.0,,37.8,39.19,115.14
2025-08-15T03:18:15.277Z,4,GR86-063-113,40.2,-0.6900000000000001,0.608,2.47,2.0,,36.365,37.74,
2025-08-15T03:18:15.320Z,4,GR86-063-113,45.900000000000006,-0.721,0.63,2.47,2.0,,35.435,36.425,
2025-08-15T03:18:15.365Z,4,GR86-063-113,49.3,-0.68,0.736,2.47,2.0,,35.265,36.03,
2025-08-15T03:18:15.407Z,4,GR86-063-113,52.0,-0.653,0.871,2.47,2.0,6262.0,33.465,34.78,
2025-08-15T03:18:15.450Z,4,GR86-063-113,52.0,-0.5660000000000001,0.839,2.47,2.0,,29.59,31.115,109.48
2025-08-15T03:18:15.494Z,4,GR86-063-113,47.1,-0.475,0.899,2.47,2.0,,19.12,19.99,
2025-08-15T03:18:15.536Z,4,GR86-063-113,40.5,-0.497,0.931,2.47,2.0,,13.735,14.635,
2025-08-15T03:18:15.580Z,4,GR86-063-113,36.1,-0.419,0.905,2.47,2.0,,13.045,13.58,
2025-08-15T03:18:15.626Z,4,GR86-063-113,33.5,-0.369,0.946,2.48,2.0,5637.0,11.37,11.905,
2025-08-15T03:18:15.668Z,4,GR86-063-113,34.5,-0.341,0.953,2.47,2.0,,5.9350000000000005,6.3950000000000005,105.44
2025-08-15T03:18:15.711Z,4,GR86-063-113,35.800000000000004,-0.266,1.015,2.47,2.0,,0.0,0.0,
2025-08-15T03:18:15.797Z,4,GR86-063-113,36.5,-0.151,1.01,2.47,2.0,,0.0,0.0,
2025-08-15T03:18:15.840Z,4,GR86-063-113,35.5,-0.144,1.031,2.47,2.0,5591.0,0.0,0.0,
2025-08-15T03:18:15.884Z,4,GR86-063-113,36.5,-0.158,1.015,2.47,2.0,,0.0,0.0,102.95
2025-08-15T03:18:15.926Z,4,GR86-063-113,41.5,-0.14,1.037,2.48,2.0,,0.0,0.0,
2025-08-15T03:18:15.969Z,4,GR86-063-113,50.6,-0.158,1.033,2.48,2.0,,0.0,0.0,
2025-08-15T03:18:16.015Z,4,GR86-063-113,60.400000000000006,-0.168,1.093,2.49,2.0,,0.0,0.0,
2025-08-15T03:18:16.057Z,4,GR86-063-113,67.4,-0.168,1.112,2.47,2.0,5540.0,0.0,0.0,
2025-08-15T03:18:16.100Z,4,GR86-063-113,73.8,-0.18,1.127,2.47,2.0,,0.0,0.0,101.06
2025-08-15T03:18:16.144Z,4,GR86-063-113,78.0,-0.162,1.121,2.47,2.0,,0.0,0.0,
2025-08-15T03:18:16.186Z,4,GR86-063-113,81.0,-0.206,1.197,2.47,2.0,,0.0,0.0,
2025-08-15T03:18:16.229Z,4,GR86-063-113,82.60000000000001,-0.178,1.185,2.48,2.0,,0.0,0.0,
2025-08-15T03:18:16.274Z,4,GR86-063-113,84.4,-0.171,1.175,2.48,2.0,5465.0,0.0,0.0,
2025-08-15T03:18:16.317Z,4,GR86-063-113,84.7,-0.188,1.184,2.48,2.0,,0.0,0.0,99.37
2025-08-15T03:18:16.360Z,4,GR86-063-113,85.2,-0.176,1.164,2.5,2.0,,0.0,0.0,
2025-08-15T03:18:16.404Z,4,GR86-063-113,85.5,-0.191,1.242,2.6,2.0,,0.0,0.0,
2025-08-15T03:18:16.446Z,4,GR86-063-113,85.60000000000001,-0.169,1.225,3.3200000000000003,2.0,,0.0,0.0,
2025-08-15T03:18:16.489Z,4,GR86-063-113,85.7,-0.192,1.293,4.51,2.0,5390.0,0.0,0.0,
2025-08-15T03:18:16.534Z,4,GR86-063-113,84.7,-0.184,1.233,6.87,2.0,,0.0,0.0,98.08
2025-08-15T03:18:16.577Z,4,GR86-063-113,75.7,-0.184,1.234,20.08,2.0,,0.0,0.0,
2025-08-15T03:18:16.620Z,4,GR86-063-113,61.1,-0.168,1.231,20.86,2.0,,0.0,0.0,
2025-08-15T03:18:16.664Z,4,GR86-063-113,47.3,-0.132,1.183,22.24,2.0,,0.0,0.0,
2025-08-15T03:18:16.707Z,4,GR86-063-113,40.0,-0.1,1.198,24.16,2.0,5287.0,0.0,0.0,
2025-08-15T03:18:16.750Z,4,GR86-063-113,38.7,-0.073,1.129,27.5,2.0,,0.0,0.0,96.74
2025-08-15T03:18:16.794Z,4,GR86-063-113,40.900000000000006,-0.014,1.2,35.800000000000004,2.0,,0.0,0.0,
2025-08-15T03:18:16.837Z,4,GR86-063-113,40.900000000000006,0.204,1.111,41.5,2.0,,0.0,0.0,
2025-08-15T03:18:16.880Z,4,GR86-063-113,40.5,0.178,1.205,61.620000000000005,2.0,,0.0,0.0,
2025-08-15T03:18:16.926Z,4,GR86-063-113,41.900000000000006,0.185,1.312,92.89,2.0,5571.0,0.0,0.0,
2025-08-15T03:18:16.968Z,4,GR86-063-113,45.5,0.269,1.232,99.7,2.0,,0.0,0.0,95.48
2025-08-15T03:18:17.011Z,4,GR86-063-113,51.0,0.311,1.216,100.03,2.0,,0.0,0.0,
2025-08-15T03:18:17.054Z,4,GR86-063-113,57.2,0.318,1.185,100.04,2.0,,0.0,0.0,
2025-08-15T03:18:17.097Z,4,GR86-063-113,60.900000000000006,0.147,1.115,100.04,2.0,,0.0,0.0,
2025-08-15T03:18:17.140Z,4,GR86-063-113,63.8,0.019,1.143,100.06,2.0,5621.0,0.0,0.0,
2025-08-15T03:18:17.184Z,4,GR86-063-113,68.3,0.173,1.168,100.05,2.0,,0.0,0.0,94.98
2025-08-15T03:18:17.227Z,4,GR86-063-113,76.4,0.482,1.051,100.05,2.0,,0.0,0.0,
2025-08-15T03:18:17.270Z,4,GR86-063-113,84.4,0.371,0.958,100.05,2.0,,0.0,0.0,
2025-08-15T03:18:17.315Z,4,GR86-063-113,93.1,0.424,1.122,100.05,2.0,,0.0,0.0,
2025-08-15T03:18:17.401Z,4,GR86-063-113,96.2,0.437,1.044,100.05,2.0,5710.0,0.0,0.0,95.67
2025-08-15T03:18:17.444Z,4,GR86-063-113,94.9,0.008,1.208,100.04,2.0,,0.0,0.0,
2025-08-15T03:18:17.487Z,4,GR86-063-113,85.4,0.259,1.069,100.05,2.0,,0.0,0.0,
2025-08-15T03:18:17.530Z,4,GR86-063-113,75.10000000000001,0.182,1.144,100.04,2.0,,0.0,0.0,
2025-08-15T03:18:17.574Z,4,GR86-063-113,67.8,0.24,1.192,100.05,2.0,5817.0,0.0,0.0,
2025-08-15T03:18:17.617Z,4,GR86-063-113,68.5,0.242,1.204,100.04,2.0,,0.0,0.0,98.65
2025-08-15T03:18:17.660Z,4,GR86-063-113,73.10000000000001,0.241,1.189,100.05,2.0,,0.0,0.0,
2025-08-15T03:18:17.704Z,4,GR86-063-113,78.2,0.254,1.106,100.06,2.0,,0.0,0.0,
2025-08-15T03:18:17.746Z,4,GR86-063-113,81.60000000000001,0.232,1.117,100.04,2.0,,0.0,0.0,
2025-08-15T03:18:17.789Z,4,GR86-063-113,82.80000000000001,0.226,1.111,100.05,2.0,5828.0,0.0,0.0,
2025-08-15T03:18:17.834Z,4,GR86-063-113,82.60000000000001,0.22,1.175,100.05,2.0,,0.0,0.0,100.44
2025-08-15T03:18:17.877Z,4,GR86-063-113,82.5,0.229,1.145,100.06,2.0,,0.0,0.0,
2025-08-15T03:18:17.920Z,4,GR86-063-113,82.80000000000001,0.259,1.125,100.05,2.0,,0.0,0.0,
2025-08-15T03:18:17.964Z,4,GR86-063-113,81.9,0.207,1.091,100.05,2.0,,0.0,0.0,
2025-08-15T03:18:18.007Z,4,GR86-063-113,73.5,0.232,1.101,100.05,2.0,5903.0,0.0,0.0,
2025-08-15T03:18:18.050Z,4,GR86-063-113,61.6,0.219,1.086,100.05,2.0,,0.0,0.0,101.6
2025-08-15T03:18:18.094Z,4,GR86-063-113,49.5,0.246,1.072,100.05,2.0,,0.0,0.0,
2025-08-15T03:18:18.137Z,4,GR86-063-113,48.8,0.26,1.016,100.05,2.0,,0.0,0.0,
2025-08-15T03:18:18.180Z,4,GR86-063-113,54.6,0.237,1.076,100.05,2.0,,0.0,0.0,
2025-08-15T03:18:18.225Z,4,GR86-063-113,63.0,0.262,1.116,100.04,2.0,6135.0,0.0,0.0,
2025-08-15T03:18:18.268Z,4,GR86-063-113,71.10000000000001,0.237,1.157,100.05,2.0,,0.0,0.0,103.22
2025-08-15T03:18:18.311Z,4,GR86-063-113,76.7,0.24,1.209,100.04,2.0,,0.0,0.0,
2025-08-15T03:18:18.354Z,4,GR86-063-113,78.4,0.232,1.256,100.05,2.0,,0.0,0.0,
2025-08-15T03:18:18.397Z,4,GR86-063-113,73.9,0.231,1.226,100.04,2.0,,0.0,0.0,
2025-08-15T03:18:18.440Z,4,GR86-063-113,64.9,0.234,1.211,100.04,2.0,6191.0,0.0,0.0,
2025-08-15T03:18:18.484Z,4,GR86-063-113,57.400000000000006,0.245,1.166,100.05,2.0,,0.0,0.0,104.8
2025-08-15T03:18:18.527Z,4,GR86-063-113,55.7,0.251,1.01,100.04,2.0,,0.0,0.0,
2025-08-15T03:18:18.570Z,4,GR86-063-113,58.3,0.207,1.102,100.04,2.0,,0.0,0.0,
2025-08-15T03:18:18.615Z,4,GR86-063-113,68.10000000000001,0.384,0.603,100.04,2.0,,0.0,0.0,
2025-08-15T03:18:18.657Z,4,GR86-063-113,73.9,0.312,0.478,100.05,2.0,6288.0,0.0,0.0,
2025-08-15T03:18:18.700Z,4,GR86-063-113,78.30000000000001,0.163,0.848,100.05,2.0,,0.0,0.0,106.19
2025-08-15T03:18:18.744Z,4,GR86-063-113,76.80000000000001,0.157,1.145,100.05,2.0,,0.0,0.0,
2025-08-15T03:18:18.786Z,4,GR86-063-113,67.9,0.143,1.185,100.03,2.0,,0.0,0.0,
2025-08-15T03:18:18.829Z,4,GR86-063-113,58.6,0.194,1.189,100.04,2.0,,0.0,0.0,
2025-08-15T03:18:18.874Z,4,GR86-063-113,51.7,0.197,0.953,100.05,2.0,6385.0,0.0,0.0,
2025-08-15T03:18:18.917Z,4,GR86-063-113,50.3,-0.003,1.088,100.05,2.0,,0.0,0.0,106.92
2025-08-15T03:18:18.960Z,4,GR86-063-113,47.8,-0.045,1.183,100.05,2.0,,0.0,0.0,
2025-08-15T03:18:19.004Z,4,GR86-063-113,41.1,-0.035,0.988,100.05,2.0,,0.0,0.0,
2025-08-15T03:18:19.047Z,4,GR86-063-113,33.800000000000004,0.12,1.028,100.03,2.0,,0.0,0.0,
2025-08-15T03:18:19.090Z,4,GR86-063-113,26.1,0.306,1.001,100.05,2.0,6470.0,0.0,0.0,
2025-08-15T03:18:19.134Z,4,GR86-063-113,19.8,0.002,0.801,100.05,2.0,,0.0,0.0,109.45
2025-08-15T03:18:19.177Z,4,GR86-063-113,19.700000000000003,0.057,0.757,100.05,2.0,,0.0,0.0,
2025-08-15T03:18:19.220Z,4,GR86-063-113,18.7,0.154,0.856,100.04,2.0,,0.0,0.0,
2025-08-15T03:18:19.265Z,4,GR86-063-113,11.2,0.338,0.862,100.06,2.0,,0.0,0.0,
2025-08-15T03:18:19.307Z,4,GR86-063-113,6.7,0.343,0.84,100.05,2.0,6581.0,0.0,0.0,
2025-08-15T03:18:19.350Z,4,GR86-063-113,10.4,0.308,0.8140000000000001,100.05,2.0,,0.0,0.0,110.58
2025-08-15T03:18:19.394Z,4,GR86-063-113,29.9,0.284,0.794,100.05,2.0,,0.0,0.0,
2025-08-15T03:18:19.437Z,4,GR86-063-113,41.900000000000006,0.228,0.748,100.03,2.0,,0.0,0.0,
2025-08-15T03:18:19.480Z,4,GR86-063-113,49.2,0.18,0.853,100.05,2.0,,0.0,0.0,
2025-08-15T03:18:19.569Z,4,GR86-063-113,51.7,0.119,0.591,100.05,2.0,6521.0,0.0,0.0,111.26
2025-08-15T03:18:19.615Z,4,GR86-063-113,48.5,0.42,0.869,100.05,2.0,,0.0,0.0,
2025-08-15T03:18:19.657Z,4,GR86-063-113,36.9,0.448,0.743,100.04,2.0,,0.0,0.0,
2025-08-15T03:18:19.700Z,4,GR86-063-113,25.6,0.35,0.741,100.03,2.0,,0.0,0.0,
2025-08-15T03:18:19.744Z,4,GR86-063-113,19.1,0.372,0.638,100.04,2.0,6660.0,0.0,0.0,
2025-08-15T03:18:19.786Z,4,GR86-063-113,17.7,0.259,0.631,100.05,2.0,,0.0,0.0,113.19
2025-08-15T03:18:19.829Z,4,GR86-063-113,16.0,0.199,0.591,100.03,2.0,,0.0,0.0,
2025-08-15T03:18:19.874Z,4,GR86-063-113,7.800000000000001,0.319,0.559,100.02,2.0,,0.0,0.0,
2025-08-15T03:18:19.917Z,4,GR86-063-113,5.1000000000000005,0.237,0.479,100.04,2.0,,0.0,0.0,
2025-08-15T03:18:19.960Z,4,GR86-063-113,5.800000000000001,0.208,0.489,100.03,2.0,6775.0,0.0,0.0,
2025-08-15T03:18:20.004Z,4,GR86-063-113,11.9,0.161,0.394,100.02,2.0,,0.0,0.0,115.38
2025-08-15T03:18:20.047Z,4,GR86-063-113,15.8,0.275,0.24,100.01,2.0,,0.0,0.0,
2025-08-15T03:18:20.090Z,4,GR86-063-113,16.8,0.266,0.203,100.0,2.0,,0.0,0.0,
2025-08-15T03:18:20.134Z,4,GR86-063-113,15.9,0.281,0.235,100.04,2.0,,0.0,0.0,
2025-08-15T03:18:20.177Z,4,GR86-063-113,14.1,0.255,0.197,100.03,2.0,6812.0,0.0,0.0,
2025-08-15T03:18:20.220Z,4,GR86-063-113,11.8,0.278,0.251,100.01,2.0,,0.0,0.0,119.01
2025-08-15T03:18:20.264Z,4,GR86-063-113,11.1,0.245,0.253,100.01,2.0,,0.0,0.0,
2025-08-15T03:18:20.307Z,4,GR86-063-113,10.6,0.253,0.166,99.99,2.0,,0.0,0.0,
2025-08-15T03:18:20.350Z,4,GR86-063-113,9.6,0.244,0.142,100.0,2.0,,0.0,0.0,
2025-08-15T03:18:20.394Z,4,GR86-063-113,5.7,0.262,0.074,100.02,2.0,6944.0,0.0,0.0,
2025-08-15T03:18:20.437Z,4,GR86-063-113,2.1,0.248,0.077,100.01,2.0,,0.0,0.0,120.91
2025-08-15T03:18:20.480Z,4,GR86-063-113,-0.9,0.258,-0.015,100.02,2.0,,0.0,0.0,
2025-08-15T03:18:20.526Z,4,GR86-063-113,-2.5,0.267,-0.042,99.99,2.0,,0.0,0.0,
2025-08-15T03:18:20.568Z,4,GR86-063-113,-3.0,0.248,-0.063,100.0,2.0,,0.0,0.0,
2025-08-15T03:18:20.611Z,4,GR86-063-113,-3.2,0.237,-0.089,100.04,2.0,7029.0,0.0,0.0,
2025-08-15T03:18:20.654Z,4,GR86-063-113,-3.5,0.223,-0.162,100.0,2.0,,0.0,0.0,122.81
2025-08-15T03:18:20.697Z,4,GR86-063-113,-3.9,0.243,-0.213,100.03,2.0,,0.0,0.0,
2025-08-15T03:18:20.740Z,4,GR86-063-113,-4.2,0.228,-0.21,100.0,2.0,,0.0,0.0,
2025-08-15T03:18:20.784Z,4,GR86-063-113,-4.4,0.219,-0.235,100.02,2.0,,0.0,0.0,
2025-08-15T03:18:20.826Z,4,GR86-063-113,-4.5,0.248,-0.289,99.99,2.0,7245.0,0.0,0.0,
2025-08-15T03:18:20.869Z,4,GR86-063-113,-4.5,0.249,-0.3,100.03,2.0,,0.0,0.0,124.64
2025-08-15T03:18:20.915Z,4,GR86-063-113,-4.7,0.096,-0.34,100.02,2.0,,0.0,0.0,
2025-08-15T03:18:20.958Z,4,GR86-063-113,-5.0,-0.128,-0.281,100.02,3.0,,0.0,0.0,
2025-08-15T03:18:21.001Z,4,GR86-063-113,-5.2,0.524,-0.316,100.0,3.0,,0.0,0.0,
2025-08-15T03:18:21.044Z,4,GR86-063-113,-5.1000000000000005,0.484,-0.424,99.98,3.0,6735.0,0.0,0.0,
2025-08-15T03:18:21.087Z,4,GR86-063-113,-5.0,0.375,-0.29,99.99,3.0,,0.0,0.0,126.54
2025-08-15T03:18:21.130Z,4,GR86-063-113,-5.0,0.097,-0.284,100.01,3.0,,0.0,0.0,
2025-08-15T03:18:21.174Z,4,GR86-063-113,-4.9,0.097,-0.357,100.01,3.0,,0.0,0.0,
2025-08-15T03:18:21.217Z,4,GR86-063-113,-4.9,0.25,-0.331,99.99,3.0,,0.0,0.0,
2025-08-15T03:18:21.260Z,4,GR86-063-113,-4.800000000000001,0.291,-0.389,100.0,3.0,6099.0,0.0,0.0,
2025-08-15T03:18:21.304Z,4,GR86-063-113,-4.800000000000001,0.2,-0.309,100.0,3.0,,0.0,0.0,128.18
2025-08-15T03:18:21.346Z,4,GR86-063-113,-5.0,0.154,-0.304,99.99,3.0,,0.0,0.0,
2025-08-15T03:18:21.389Z,4,GR86-063-113,-5.1000000000000005,0.192,-0.35,99.99,3.0,,0.0,0.0,
2025-08-15T03:18:21.434Z,4,GR86-063-113,-5.0,0.224,-0.323,100.02,3.0,,0.0,0.0,
2025-08-15T03:18:21.519Z,4,GR86-063-113,-4.9,0.209,-0.322,100.01,3.0,6115.0,0.0,0.0,129.89
2025-08-15T03:18:21.564Z,4,GR86-063-113,-5.0,0.192,-0.314,100.01,3.0,,0.0,0.0,
2025-08-15T03:18:21.607Z,4,GR86-063-113,-5.1000000000000005,0.197,-0.326,100.0,3.0,,0.0,0.0,
2025-08-15T03:18:21.650Z,4,GR86-063-113,-5.2,0.203,-0.313,100.01,3.0,,0.0,0.0,
2025-08-15T03:18:21.694Z,4,GR86-063-113,-5.7,0.207,-0.316,100.0,3.0,6175.0,0.0,0.0,
2025-08-15T03:18:21.737Z,4,GR86-063-113,-6.9,0.186,-0.311,100.02,3.0,,0.0,0.0,131.49
2025-08-15T03:18:21.780Z,4,GR86-063-113,-8.5,0.186,-0.363,100.0,3.0,,0.0,0.0,
2025-08-15T03:18:21.825Z,4,GR86-063-113,-10.1,0.198,-0.377,100.01,3.0,,0.0,0.0,
2025-08-15T03:18:21.868Z,4,GR86-063-113,-10.8,0.198,-0.411,100.0,3.0,,0.0,0.0,
2025-08-15T03:18:21.911Z,4,GR86-063-113,-10.9,0.193,-0.426,99.98,3.0,6262.0,0.0,0.0,
2025-08-15T03:18:21.954Z,4,GR86-063-113,-10.9,0.195,-0.469,100.02,3.0,,0.0,0.0,133.09
2025-08-15T03:18:21.997Z,4,GR86-063-113,-11.3,0.196,-0.486,100.01,3.0,,0.0,0.0,
2025-08-15T03:18:22.040Z,4,GR86-063-113,-12.5,0.19,-0.485,100.02,3.0,,0.0,0.0,
2025-08-15T03:18:22.084Z,4,GR86-063-113,-13.1,0.191,-0.471,100.01,3.0,,0.0,0.0,
2025-08-15T03:18:22.127Z,4,GR86-063-113,-13.1,0.175,-0.478,99.99,3.0,6328.0,0.0,0.0,
2025-08-15T03:18:22.170Z,4,GR86-063-113,-13.5,0.197,-0.507,100.01,3.0,,0.0,0.0,134.76
2025-08-15T03:18:22.215Z,4,GR86-063-113,-16.900000000000002,0.211,-0.554,99.98,3.0,,0.0,0.0,
2025-08-15T03:18:22.257Z,4,GR86-063-113,-20.6,0.187,-0.612,100.01,3.0,,0.0,0.0,
2025-08-15T03:18:22.300Z,4,GR86-063-113,-23.8,0.164,-0.645,100.01,3.0,,0.0,0.0,
2025-08-15T03:18:22.344Z,4,GR86-063-113,-25.1,0.167,-0.678,100.0,3.0,6427.0,0.0,0.0,
2025-08-15T03:18:22.386Z,4,GR86-063-113,-25.700000000000003,0.182,-0.6910000000000001,99.99,3.0,,0.0,0.0,136.2
2025-08-15T03:18:22.429Z,4,GR86-063-113,-26.5,0.167,-0.755,100.02,3.0,,0.0,0.0,
2025-08-15T03:18:22.474Z,4,GR86-063-113,-29.5,0.187,-0.758,100.01,3.0,,0.0,0.0,
2025-08-15T03:18:22.517Z,4,GR86-063-113,-33.2,0.17,-0.8170000000000001,99.99,3.0,,0.0,0.0,
2025-08-15T03:18:22.560Z,4,GR86-063-113,-37.6,0.143,-0.8220000000000001,100.01,3.0,6481.0,0.0,0.0,
2025-08-15T03:18:22.604Z,4,GR86-063-113,-41.5,0.143,-0.84,99.99,3.0,,0.0,0.0,137.83
2025-08-15T03:18:22.647Z,4,GR86-063-113,-43.3,0.164,-0.934,100.02,3.0,,0.0,0.0,
2025-08-15T03:18:22.690Z,4,GR86-063-113,-42.8,0.149,-1.03,100.02,3.0,,0.0,0.0,
2025-08-15T03:18:22.734Z,4,GR86-063-113,-32.9,0.157,-1.091,100.0,3.0,,0.0,0.0,
2025-08-15T03:18:22.777Z,4,GR86-063-113,-24.700000000000003,0.16,-1.12,99.99,3.0,6577.0,0.0,0.0,
2025-08-15T03:18:22.820Z,4,GR86-063-113,-20.8,0.148,-1.063,100.02,3.0,,0.0,0.0,140.08
2025-08-15T03:18:22.865Z,4,GR86-063-113,-20.6,0.17,-1.041,100.02,3.0,,0.0,0.0,
2025-08-15T03:18:22.907Z,4,GR86-063-113,-23.3,0.192,-1.053,99.99,3.0,,0.0,0.0,
2025-08-15T03:18:22.950Z,4,GR86-063-113,-29.0,0.179,-1.058,100.0,3.0,,0.0,0.0,
2025-08-15T03:18:22.994Z,4,GR86-063-113,-35.5,0.159,-1.097,99.99,3.0,6682.0,0.0,0.0,
2025-08-15T03:18:23.037Z,4,GR86-063-113,-36.7,0.161,-1.131,99.98,3.0,,0.0,0.0,141.51
2025-08-15T03:18:23.080Z,4,GR86-063-113,-36.4,0.143,-1.088,100.01,3.0,,0.0,0.0,
2025-08-15T03:18:23.126Z,4,GR86-063-113,-35.1,0.135,-1.088,100.0,3.0,,0.0,0.0,
2025-08-15T03:18:23.168Z,4,GR86-063-113,-34.1,0.162,-1.106,99.99,3.0,,0.0,0.0,
2025-08-15T03:18:23.211Z,4,GR86-063-113,-34.6,0.165,-1.14,99.99,3.0,6744.0,0.0,0.0,
2025-08-15T03:18:23.254Z,4,GR86-063-113,-38.6,0.189,-1.137,99.99,3.0,,0.0,0.0,141.93
2025-08-15T03:18:23.297Z,4,GR86-063-113,-41.8,0.145,-1.111,99.98,3.0,,0.0,0.0,
2025-08-15T03:18:23.340Z,4,GR86-063-113,-42.2,0.114,-1.153,99.98,3.0,,0.0,0.0,
2025-08-15T03:18:23.384Z,4,GR86-063-113,-40.5,0.118,-1.159,100.0,3.0,,0.0,0.0,
2025-08-15T03:18:23.426Z,4,GR86-063-113,-36.0,0.153,-1.236,100.01,3.0,6846.0,0.0,0.0,
2025-08-15T03:18:23.469Z,4,GR86-063-113,-32.4,0.166,-1.167,99.99,3.0,,0.0,0.0,142.87
2025-08-15T03:18:23.514Z,4,GR86-063-113,-31.4,0.175,-1.116,100.01,3.0,,0.0,0.0,
2025-08-15T03:18:23.557Z,4,GR86-063-113,-32.800000000000004,0.14,-1.107,100.02,3.0,,0.0,0.0,
2025-08-15T03:18:23.600Z,4,GR86-063-113,-32.7,0.12,-1.152,99.98,3.0,,0.0,0.0,
2025-08-15T03:18:23.644Z,4,GR86-063-113,-30.6,0.141,-1.143,100.01,3.0,6914.0,0.0,0.0,
2025-08-15T03:18:23.686Z,4,GR86-063-113,-25.700000000000003,0.164,-1.147,100.01,3.0,,0.0,0.0,144.98
2025-08-15T03:18:23.729Z,4,GR86-063-113,-20.1,0.177,-1.19,100.0,3.0,,0.0,0.0,
2025-08-15T03:18:23.774Z,4,GR86-063-113,-14.8,0.202,-1.222,99.99,3.0,,0.0,0.0,
2025-08-15T03:18:23.817Z,4,GR86-063-113,-13.8,0.187,-1.338,100.01,3.0,,0.0,0.0,
2025-08-15T03:18:23.860Z,4,GR86-063-113,-14.5,0.203,-1.114,99.99,3.0,6981.0,0.0,0.0,
2025-08-15T03:18:23.904Z,4,GR86-063-113,-19.6,0.099,-1.19,100.01,3.0,,0.0,0.0,146.16
2025-08-15T03:18:23.946Z,4,GR86-063-113,-29.0,0.203,-1.165,100.01,3.0,,0.0,0.0,
2025-08-15T03:18:23.989Z,4,GR86-063-113,-36.2,0.252,-1.089,100.0,3.0,,0.0,0.0,
2025-08-15T03:18:24.034Z,4,GR86-063-113,-45.3,0.046,-1.213,100.0,3.0,,0.0,0.0,
2025-08-15T03:18:24.077Z,4,GR86-063-113,-48.8,0.196,-0.954,100.01,3.0,6973.0,0.0,0.0,
2025-08-15T03:18:24.120Z,4,GR86-063-113,-50.5,0.007,-0.913,100.01,3.0,,0.0,0.0,147.49
2025-08-15T03:18:24.164Z,4,GR86-063-113,-50.5,-0.075,-0.923,100.01,3.0,,0.0,0.0,
2025-08-15T03:18:24.206Z,4,GR86-063-113,-49.5,-0.092,-0.872,100.0,3.0,,0.0,0.0,
2025-08-15T03:18:24.249Z,4,GR86-063-113,-46.0,0.088,-1.077,100.0,3.0,,0.0,0.0,
2025-08-15T03:18:24.294Z,4,GR86-063-113,-36.2,0.336,-1.271,100.02,3.0,7305.0,0.0,0.0,
2025-08-15T03:18:24.337Z,4,GR86-063-113,-32.0,0.362,-1.042,99.97,3.0,,0.0,0.0,147.48
2025-08-15T03:18:24.380Z,4,GR86-063-113,-31.3,0.093,-1.106,100.01,3.0,,0.0,0.0,
2025-08-15T03:18:24.426Z,4,GR86-063-113,-34.300000000000004,0.007,-1.006,100.02,3.0,,0.0,0.0,
2025-08-15T03:18:24.468Z,4,GR86-063-113,-38.8,0.129,-1.612,100.01,3.0,,0.0,0.0,
2025-08-15T03:18:24.511Z,4,GR86-063-113,-39.5,0.288,-1.38,99.99,3.0,7144.0,0.0,0.0,
2025-08-15T03:18:24.554Z,4,GR86-063-113,-30.3,0.111,-1.402,100.01,3.0,,0.0,0.0,148.17000000000002
2025-08-15T03:18:24.597Z,4,GR86-063-113,-22.1,0.063,-1.257,99.99,3.0,,0.0,0.0,
2025-08-15T03:18:24.640Z,4,GR86-063-113,-20.4,0.155,-1.197,99.99,3.0,,0.0,0.0,
2025-08-15T03:18:24.684Z,4,GR86-063-113,-25.4,0.195,-1.285,99.99,3.0,,0.0,0.0,
2025-08-15T03:18:24.726Z,4,GR86-063-113,-34.0,0.179,-1.254,100.02,3.0,7063.0,0.0,0.0,
2025-08-15T03:18:24.769Z,4,GR86-063-113,-38.6,0.094,-1.255,99.97,3.0,,0.0,0.0,149.08
2025-08-15T03:18:24.815Z,4,GR86-063-113,-35.0,0.118,-1.226,100.01,3.0,,0.0,0.0,
2025-08-15T03:18:24.858Z,4,GR86-063-113,-25.6,0.109,-1.262,99.98,3.0,,0.0,0.0,
2025-08-15T03:18:24.901Z,4,GR86-063-113,-16.6,0.144,-1.201,100.0,3.0,,0.0,0.0,
2025-08-15T03:18:24.944Z,4,GR86-063-113,-11.8,0.187,-1.21,99.99,3.0,7136.0,0.0,0.0,
2025-08-15T03:18:24.987Z,4,GR86-063-113,-9.8,0.187,-1.065,100.01,3.0,,0.0,0.0,149.55
2025-08-15T03:18:25.030Z,4,GR86-063-113,-7.9,0.15,-1.059,100.01,3.0,,0.0,0.0,
2025-08-15T03:18:25.074Z,4,GR86-063-113,-3.0,0.172,-1.075,100.01,3.0,,0.0,0.0,
2025-08-15T03:18:25.117Z,4,GR86-063-113,0.3,0.218,-1.084,100.0,3.0,,0.0,0.0,
2025-08-15T03:18:25.160Z,4,GR86-063-113,0.1,0.211,-1.011,99.98,3.0,7158.0,0.0,0.0,
2025-08-15T03:18:25.204Z,4,GR86-063-113,-8.6,0.175,-1.017,100.01,3.0,,0.0,0.0,149.39
2025-08-15T03:18:25.246Z,4,GR86-063-113,-22.4,0.156,-1.017,100.01,3.0,,0.0,0.0,
2025-08-15T03:18:25.289Z,4,GR86-063-113,-34.4,0.146,-1.045,100.0,3.0,,0.0,0.0,
2025-08-15T03:18:25.334Z,4,GR86-063-113,-40.3,0.116,-1.049,100.02,3.0,,0.0,0.0,
2025-08-15T03:18:25.377Z,4,GR86-063-113,-39.7,0.14,-1.008,100.0,3.0,7200.0,0.0,0.0,
2025-08-15T03:18:25.420Z,4,GR86-063-113,-37.3,0.147,-1.049,100.0,3.0,,0.0,0.0,151.98
2025-08-15T03:18:25.464Z,4,GR86-063-113,-34.800000000000004,0.162,-0.982,99.97,3.0,,0.0,0.0,
2025-08-15T03:18:25.507Z,4,GR86-063-113,-31.5,0.122,-0.969,100.0,3.0,,0.0,0.0,
2025-08-15T03:18:25.550Z,4,GR86-063-113,-27.9,0.167,-0.794,100.0,3.0,,0.0,0.0,
2025-08-15T03:18:25.594Z,4,GR86-063-113,-23.700000000000003,0.215,-0.725,100.0,3.0,7201.0,0.0,0.0,
2025-08-15T03:18:25.637Z,4,GR86-063-113,-24.4,0.082,-0.589,100.0,3.0,,0.0,0.0,153.31
2025-08-15T03:18:25.680Z,4,GR86-063-113,-24.8,0.016,-0.677,100.0,3.0,,0.0,0.0,
2025-08-15T03:18:25.725Z,4,GR86-063-113,-25.4,-0.194,-0.862,99.98,4.0,,0.0,0.0,
2025-08-15T03:18:25.768Z,4,GR86-063-113,-25.3,0.288,-0.627,100.0,4.0,,0.0,0.0,
2025-08-15T03:18:25.811Z,4,GR86-063-113,-23.5,0.087,-0.785,99.99,4.0,7249.0,0.0,0.0,
2025-08-15T03:18:25.854Z,4,GR86-063-113,-15.3,0.167,-0.964,99.99,4.0,,0.0,0.0,154.6
2025-08-15T03:18:25.897Z,4,GR86-063-113,-11.8,0.167,-0.785,99.99,4.0,,0.0,0.0,
2025-08-15T03:18:25.940Z,4,GR86-063-113,-11.7,0.089,-0.993,99.99,4.0,,0.0,0.0,
2025-08-15T03:18:25.984Z,4,GR86-063-113,-12.0,0.184,-0.768,99.99,4.0,,0.0,0.0,
2025-08-15T03:18:26.027Z,4,GR86-063-113,-12.4,0.116,-0.852,99.98,4.0,6214.0,0.0,0.0,
2025-08-15T03:18:26.070Z,4,GR86-063-113,-13.0,0.227,-0.805,99.98,4.0,,0.0,0.0,155.59
2025-08-15T03:18:26.114Z,4,GR86-063-113,-16.7,0.059,-0.493,100.0,4.0,,0.0,0.0,
2025-08-15T03:18:26.157Z,4,GR86-063-113,-19.8,-0.007,-0.739,99.99,4.0,,0.0,0.0,
2025-08-15T03:18:26.200Z,4,GR86-063-113,-21.9,0.226,-0.589,99.99,4.0,,0.0,0.0,
2025-08-15T03:18:26.244Z,4,GR86-063-113,-21.8,0.102,-0.674,99.99,4.0,6249.0,0.0,0.0,
2025-08-15T03:18:26.286Z,4,GR86-063-113,-19.6,0.192,-0.545,99.99,4.0,,0.0,0.0,156.67000000000002
2025-08-15T03:18:26.329Z,4,GR86-063-113,-17.900000000000002,0.097,-0.656,99.98,4.0,,0.0,0.0,
2025-08-15T03:18:26.374Z,4,GR86-063-113,-16.2,0.164,-0.623,99.98,4.0,,0.0,0.0,
2025-08-15T03:18:26.417Z,4,GR86-063-113,-13.5,0.158,-0.426,99.99,4.0,,0.0,0.0,
2025-08-15T03:18:26.460Z,4,GR86-063-113,-10.9,0.212,-0.546,99.99,4.0,6278.0,0.0,0.0,
2025-08-15T03:18:26.504Z,4,GR86-063-113,-8.0,0.144,-0.395,99.98,4.0,,0.0,0.0,157.78
2025-08-15T03:18:26.547Z,4,GR86-063-113,-5.1000000000000005,0.074,-0.431,100.01,4.0,,0.0,0.0,
2025-08-15T03:18:26.590Z,4,GR86-063-113,-0.5,0.133,-0.535,99.97,4.0,,0.0,0.0,
2025-08-15T03:18:26.634Z,4,GR86-063-113,2.3000000000000003,0.203,-0.625,99.99,4.0,,0.0,0.0,
2025-08-15T03:18:26.677Z,4,GR86-063-113,2.3000000000000003,0.216,-0.465,99.99,4.0,6407.0,0.0,0.0,
2025-08-15T03:18:26.720Z,4,GR86-063-113,2.0,0.121,-0.402,100.0,4.0,,0.0,0.0,158.89
2025-08-15T03:18:26.765Z,4,GR86-063-113,2.0,0.182,-0.312,100.0,4.0,,0.0,0.0,
2025-08-15T03:18:26.807Z,4,GR86-063-113,3.0,0.146,-0.125,99.99,4.0,,0.0,0.0,
2025-08-15T03:18:26.850Z,4,GR86-063-113,3.5,0.124,-0.049,100.0,4.0,,0.0,0.0,
2025-08-15T03:18:26.894Z,4,GR86-063-113,3.5,0.158,0.057,100.01,4.0,6348.0,0.0,0.0,
2025-08-15T03:18:26.937Z,4,GR86-063-113,3.5,0.193,0.054,99.99,4.0,,0.0,0.0,160.72
2025-08-15T03:18:26.980Z,4,GR86-063-113,3.5,0.161,0.118,100.0,4.0,,0.0,0.0,
2025-08-15T03:18:27.026Z,4,GR86-063-113,3.6,0.107,0.067,99.99,4.0,,0.0,0.0,
2025-08-15T03:18:27.068Z,4,GR86-063-113,3.6,0.133,0.079,99.99,4.0,,0.0,0.0,
2025-08-15T03:18:27.111Z,4,GR86-063-113,4.0,0.146,0.065,99.99,4.0,6367.0,0.0,0.0,
2025-08-15T03:18:27.154Z,4,GR86-063-113,5.9,0.136,0.032,99.98,4.0,,0.0,0.0,162.08
2025-08-15T03:18:27.197Z,4,GR86-063-113,6.6000000000000005,0.106,0.063,100.0,4.0,,0.0,0.0,
2025-08-15T03:18:27.240Z,4,GR86-063-113,6.9,0.11,0.065,99.99,4.0,,0.0,0.0,
2025-08-15T03:18:27.284Z,4,GR86-063-113,6.9,0.129,0.087,100.0,4.0,,0.0,0.0,
2025-08-15T03:18:27.326Z,4,GR86-063-113,7.0,0.149,0.102,99.99,4.0,6451.0,0.0,0.0,
2025-08-15T03:18:27.369Z,4,GR86-063-113,7.0,0.171,0.108,99.99,4.0,,0.0,0.0,163.26
2025-08-15T03:18:27.415Z,4,GR86-063-113,7.1000000000000005,0.09,0.133,99.99,4.0,,0.0,0.0,
2025-08-15T03:18:27.457Z,4,GR86-063-113,7.1000000000000005,0.126,0.157,99.99,4.0,,0.0,0.0,
2025-08-15T03:18:27.500Z,4,GR86-063-113,7.300000000000001,0.114,0.157,100.0,4.0,,0.0,0.0,
2025-08-15T03:18:27.544Z,4,GR86-063-113,7.4,0.133,0.161,99.99,4.0,6478.0,0.0,0.0,
2025-08-15T03:18:27.586Z,4,GR86-063-113,7.5,0.155,0.132,100.0,4.0,,0.0,0.0,164.75
2025-08-15T03:18:27.629Z,4,GR86-063-113,7.5,0.188,0.122,99.99,4.0,,0.0,0.0,
2025-08-15T03:18:27.674Z,4,GR86-063-113,7.4,0.121,0.112,100.0,4.0,,0.0,0.0,
2025-08-15T03:18:27.717Z,4,GR86-063-113,7.4,0.115,0.118,99.99,4.0,,0.0,0.0,
2025-08-15T03:18:27.760Z,4,GR86-063-113,7.4,0.124,0.11,99.99,4.0,6534.0,0.0,0.0,
2025-08-15T03:18:27.804Z,4,GR86-063-113,7.4,0.147,0.115,99.99,4.0,,0.0,0.0,166.20000000000002
2025-08-15T03:18:27.846Z,4,GR86-063-113,7.6,0.162,0.118,100.0,4.0,,0.0,0.0,
2025-08-15T03:18:27.889Z,4,GR86-063-113,7.6,0.176,0.15,99.98,4.0,,0.0,0.0,
2025-08-15T03:18:27.934Z,4,GR86-063-113,7.7,0.109,0.137,99.98,4.0,,0.0,0.0,
2025-08-15T03:18:27.977Z,4,GR86-063-113,7.7,0.094,0.153,100.01,4.0,6594.0,0.0,0.0,
2025-08-15T03:18:28.020Z,4,GR86-063-113,7.7,0.119,0.13,100.0,4.0,,0.0,0.0,168.93
2025-08-15T03:18:28.064Z,4,GR86-063-113,7.5,0.131,0.134,99.99,4.0,,0.0,0.0,
2025-08-15T03:18:28.106Z,4,GR86-063-113,7.4,0.148,0.136,99.99,4.0,,0.0,0.0,
2025-08-15T03:18:28.149Z,4,GR86-063-113,7.4,0.163,0.136,99.99,4.0,,0.0,0.0,
2025-08-15T03:18:28.194Z,4,GR86-063-113,7.4,0.116,0.11,99.99,4.0,6644.0,0.0,0.0,
2025-08-15T03:18:28.237Z,4,GR86-063-113,7.4,0.11,0.095,99.98,4.0,,0.0,0.0,170.45000000000002
2025-08-15T03:18:28.280Z,4,GR86-063-113,7.4,0.116,0.093,99.98,4.0,,0.0,0.0,
2025-08-15T03:18:28.325Z,4,GR86-063-113,7.300000000000001,0.116,0.095,100.01,4.0,,0.0,0.0,
2025-08-15T03:18:28.368Z,4,GR86-063-113,7.300000000000001,0.122,0.078,99.99,4.0,,0.0,0.0,
2025-08-15T03:18:28.411Z,4,GR86-063-113,7.0,0.13,0.071,99.98,4.0,6691.0,0.0,0.0,
2025-08-15T03:18:28.454Z,4,GR86-063-113,6.4,0.149,0.033,100.0,4.0,,0.0,0.0,171.81
2025-08-15T03:18:28.497Z,4,GR86-063-113,6.5,0.143,0.039,99.98,4.0,,0.0,0.0,
2025-08-15T03:18:28.540Z,4,GR86-063-113,6.5,0.141,0.044,100.0,4.0,,0.0,0.0,
2025-08-15T03:18:28.584Z,4,GR86-063-113,6.5,0.126,0.035,99.99,4.0,,0.0,0.0,
2025-08-15T03:18:28.627Z,4,GR86-063-113,6.5,0.114,0.034,100.01,4.0,6805.0,0.0,0.0,
2025-08-15T03:18:28.670Z,4,GR86-063-113,6.6000000000000005,0.113,0.043,99.98,4.0,,0.0,0.0,173.12
2025-08-15T03:18:28.715Z,4,GR86-063-113,6.7,0.164,0.04,99.98,4.0,,0.0,0.0,
2025-08-15T03:18:28.758Z,4,GR86-063-113,7.300000000000001,0.172,0.058,100.01,4.0,,0.0,0.0,
2025-08-15T03:18:28.801Z,4,GR86-063-113,7.4,0.153,0.091,99.98,4.0,,0.0,0.0,
2025-08-15T03:18:28.844Z,4,GR86-063-113,7.4,0.166,0.101,99.99,4.0,6861.0,0.0,0.0,
2025-08-15T03:18:28.887Z,4,GR86-063-113,7.7,0.145,0.107,99.99,4.0,,0.0,0.0,174.45000000000002
2025-08-15T03:18:28.930Z,4,GR86-063-113,8.200000000000001,0.143,0.124,99.99,4.0,,0.0,0.0,
2025-08-15T03:18:28.974Z,4,GR86-063-113,8.700000000000001,0.139,0.132,99.99,4.0,,0.0,0.0,
2025-08-15T03:18:29.017Z,4,GR86-063-113,8.700000000000001,0.133,0.162,100.01,4.0,,0.0,0.0,
2025-08-15T03:18:29.060Z,4,GR86-063-113,8.700000000000001,0.149,0.163,99.98,4.0,6916.0,0.0,0.0,
2025-08-15T03:18:29.104Z,4,GR86-063-113,8.700000000000001,0.156,0.202,99.99,4.0,,0.0,0.0,175.82
2025-08-15T03:18:29.146Z,4,GR86-063-113,8.700000000000001,0.154,0.2,100.02,4.0,,0.0,0.0,
2025-08-15T03:18:29.189Z,4,GR86-063-113,8.700000000000001,0.165,0.197,99.98,4.0,,0.0,0.0,
2025-08-15T03:18:29.234Z,4,GR86-063-113,8.5,0.12,0.219,100.0,4.0,,0.0,0.0,
2025-08-15T03:18:29.277Z,4,GR86-063-113,8.4,0.121,0.217,100.01,4.0,6964.0,0.0,0.0,
2025-08-15T03:18:29.320Z,4,GR86-063-113,8.4,0.123,0.203,100.01,4.0,,0.0,0.0,177.15
2025-08-15T03:18:29.364Z,4,GR86-063-113,8.3,0.122,0.205,100.0,4.0,,0.0,0.0,
2025-08-15T03:18:29.407Z,4,GR86-063-113,8.3,0.136,0.184,100.02,4.0,,0.0,0.0,
2025-08-15T03:18:29.450Z,4,GR86-063-113,8.3,0.127,0.176,100.01,4.0,,0.0,0.0,
2025-08-15T03:18:29.494Z,4,GR86-063-113,8.3,0.144,0.137,100.02,4.0,7025.0,0.0,0.0,
2025-08-15T03:18:29.537Z,4,GR86-063-113,8.200000000000001,0.167,0.129,99.98,4.0,,0.0,0.0,178.56
2025-08-15T03:18:29.580Z,4,GR86-063-113,8.1,0.161,0.137,100.01,4.0,,0.0,0.0,
2025-08-15T03:18:29.625Z,4,GR86-063-113,7.7,0.146,0.136,100.02,4.0,,0.0,0.0,
2025-08-15T03:18:29.668Z,4,GR86-063-113,7.300000000000001,0.155,0.127,100.02,4.0,,0.0,0.0,
2025-08-15T03:18:29.711Z,4,GR86-063-113,7.1000000000000005,0.144,0.107,99.99,4.0,7076.0,0.0,0.0,
2025-08-15T03:18:29.754Z,4,GR86-063-113,7.0,0.128,0.113,100.0,4.0,,0.0,0.0,179.81
2025-08-15T03:18:29.797Z,4,GR86-063-113,6.800000000000001,0.121,0.099,100.0,4.0,,0.0,0.0,
2025-08-15T03:18:29.840Z,4,GR86-063-113,6.6000000000000005,0.129,0.071,100.01,4.0,,0.0,0.0,
2025-08-15T03:18:29.884Z,4,GR86-063-113,6.1000000000000005,0.118,0.057,100.0,4.0,,0.0,0.0,
2025-08-15T03:18:29.927Z,4,GR86-063-113,5.6000000000000005,0.128,0.058,100.01,4.0,7135.0,0.0,0.0,
2025-08-15T03:18:29.970Z,4,GR86-063-113,4.9,0.137,0.044,99.96,4.0,,0.0,0.0,181.25
2025-08-15T03:18:30.015Z,4,GR86-063-113,4.7,0.132,0.024,100.01,4.0,,0.0,0.0,
2025-08-15T03:18:30.057Z,4,GR86-063-113,4.800000000000001,0.134,0.0,99.97,4.0,,0.0,0.0,
2025-08-15T03:18:30.144Z,4,GR86-063-113,4.800000000000001,0.125,-0.018,100.01,4.0,7193.0,0.0,0.0,
2025-08-15T03:18:30.186Z,4,GR86-063-113,4.800000000000001,0.13,-0.038,100.01,4.0,,0.0,0.0,182.58
2025-08-15T03:18:30.229Z,4,GR86-063-113,4.9,0.125,-0.032,100.02,4.0,,0.0,0.0,
2025-08-15T03:18:30.274Z,4,GR86-063-113,5.0,0.106,-0.012,99.97,4.0,,7.98,8.040000000000001,
2025-08-15T03:18:30.317Z,4,GR86-063-113,5.1000000000000005,0.011,-0.017,56.95,4.0,,13.95,13.885,
2025-08-15T03:18:30.360Z,4,GR86-063-113,5.2,-0.083,0.009,4.08,4.0,7245.0,22.37,22.22,
2025-08-15T03:18:30.404Z,4,GR86-063-113,5.7,-0.288,0.028,3.68,4.0,,39.37,38.93,183.81
2025-08-15T03:18:30.447Z,4,GR86-063-113,6.300000000000001,-0.801,0.051,3.51,4.0,,51.870000000000005,51.18,
2025-08-15T03:18:30.490Z,4,GR86-063-113,6.4,-0.99,0.111,3.29,4.0,,68.21000000000001,67.265,
2025-08-15T03:18:30.534Z,4,GR86-063-113,6.1000000000000005,-1.301,0.085,2.95,4.0,,86.035,86.525,
2025-08-15T03:18:30.577Z,4,GR86-063-113,6.0,-1.269,0.065,2.69,4.0,7239.0,89.635,91.68,
2025-08-15T03:18:30.620Z,4,GR86-063-113,5.9,-1.199,0.07,2.56,4.0,,88.08,88.8,180.02
2025-08-15T03:18:30.665Z,4,GR86-063-113,5.9,-1.245,0.078,32.42,4.0,,83.64,84.71000000000001,
2025-08-15T03:18:30.707Z,4,GR86-063-113,5.9,-1.099,0.066,51.03,3.0,,76.59,78.145,
2025-08-15T03:18:30.750Z,4,GR86-063-113,5.9,-1.282,0.084,6.68,3.0,,70.865,72.06,
2025-08-15T03:18:30.794Z,4,GR86-063-113,5.300000000000001,-1.309,0.13,3.99,3.0,6575.0,76.985,78.74,
2025-08-15T03:18:30.837Z,4,GR86-063-113,4.4,-1.244,0.157,3.69,3.0,,81.58,81.75,170.9
2025-08-15T03:18:30.880Z,4,GR86-063-113,2.5,-1.27,0.139,3.44,3.0,,82.74,83.93,
2025-08-15T03:18:30.926Z,4,GR86-063-113,0.4,-1.257,0.097,3.2,3.0,,81.185,83.045,
2025-08-15T03:18:30.969Z,4,GR86-063-113,0.3,-1.069,0.139,3.04,3.0,,70.595,71.495,
2025-08-15T03:18:31.015Z,4,GR86-063-113,0.3,-1.092,0.119,2.76,3.0,7125.0,60.95,62.125,
2025-08-15T03:18:31.057Z,4,GR86-063-113,0.1,-0.998,0.042,2.65,3.0,,59.865,60.765,164.20000000000002
2025-08-15T03:18:31.100Z,4,GR86-063-113,0.2,-1.124,0.063,2.57,3.0,,59.27,59.745000000000005,
2025-08-15T03:18:31.144Z,4,GR86-063-113,0.7000000000000001,-1.088,-0.021,2.51,3.0,,59.805,60.08,
2025-08-15T03:18:31.186Z,4,GR86-063-113,1.9,-1.12,-0.016,2.5,3.0,,61.21,61.27,
2025-08-15T03:18:31.229Z,4,GR86-063-113,2.4000000000000004,-1.154,0.018,2.48,3.0,6946.0,62.625,62.690000000000005,
2025-08-15T03:18:31.274Z,4,GR86-063-113,2.4000000000000004,-1.179,-0.09,2.47,3.0,,64.75,64.75,156.66
2025-08-15T03:18:31.317Z,4,GR86-063-113,2.6,-1.129,-0.052,2.47,3.0,,65.58500000000001,65.58500000000001,
2025-08-15T03:18:31.360Z,4,GR86-063-113,3.9,-1.098,-0.055,2.47,3.0,,66.33500000000001,66.55,
2025-08-15T03:18:31.404Z,4,GR86-063-113,5.5,-1.114,-0.061,2.48,3.0,,67.875,67.94,
2025-08-15T03:18:31.446Z,4,GR86-063-113,5.5,-1.162,-0.063,2.47,3.0,6655.0,69.25,69.22,
2025-08-15T03:18:31.534Z,4,GR86-063-113,5.2,-1.174,-0.03,2.49,3.0,,70.12,70.15,149.98
2025-08-15T03:18:31.577Z,4,GR86-063-113,5.1000000000000005,-1.228,-0.023,30.11,2.0,,71.295,71.58500000000001,
2025-08-15T03:18:31.620Z,4,GR86-063-113,5.4,-1.2,0.076,4.7700000000000005,2.0,,72.455,74.055,
2025-08-15T03:18:31.664Z,4,GR86-063-113,5.4,-1.366,-0.003,3.97,2.0,6236.0,73.66,75.705,
2025-08-15T03:18:31.707Z,4,GR86-063-113,5.300000000000001,-1.365,0.031,3.68,2.0,,71.495,72.01,141.87
2025-08-15T03:18:31.750Z,4,GR86-063-113,5.1000000000000005,-1.174,0.112,3.44,2.0,,71.525,73.31,
2025-08-15T03:18:31.794Z,4,GR86-063-113,5.2,-0.927,-0.038,3.11,2.0,,72.06,72.83500000000001,
2025-08-15T03:18:31.837Z,4,GR86-063-113,6.800000000000001,-1.401,0.197,2.85,2.0,,71.175,71.83,
2025-08-15T03:18:31.880Z,4,GR86-063-113,8.0,-1.182,0.124,2.66,2.0,6813.0,71.83,73.02,
2025-08-15T03:18:31.926Z,4,GR86-063-113,10.2,-1.133,0.043,2.56,2.0,,71.05,71.675,134.38
2025-08-15T03:18:31.968Z,4,GR86-063-113,11.7,-1.143,0.26,2.52,2.0,,71.465,72.545,
2025-08-15T03:18:32.011Z,4,GR86-063-113,11.6,-1.238,0.205,2.49,2.0,,72.515,74.18,
2025-08-15T03:18:32.054Z,4,GR86-063-113,11.2,-1.233,0.215,2.47,2.0,,72.27,73.72,
2025-08-15T03:18:32.097Z,4,GR86-063-113,11.2,-1.213,0.277,2.47,2.0,6794.0,71.705,72.865,
2025-08-15T03:18:32.140Z,4,GR86-063-113,12.8,-1.232,0.271,2.47,2.0,,70.685,72.365,125.98
2025-08-15T03:18:32.184Z,4,GR86-063-113,15.2,-1.137,0.317,2.47,2.0,,68.625,70.515,
2025-08-15T03:18:32.226Z,4,GR86-063-113,16.0,-1.137,0.442,2.47,2.0,,64.64,66.61,
2025-08-15T03:18:32.269Z,4,GR86-063-113,16.0,-1.056,0.412,2.47,2.0,,58.43,60.55,
2025-08-15T03:18:32.315Z,4,GR86-063-113,16.400000000000002,-0.926,0.424,2.47,2.0,6361.0,47.43,49.365,
2025-08-15T03:18:32.358Z,4,GR86-063-113,19.1,-0.892,0.431,2.47,2.0,,41.28,42.775,119.21
2025-08-15T03:18:32.401Z,4,GR86-063-113,23.200000000000003,-0.858,0.493,2.47,2.0,,36.9,38.285,
2025-08-15T03:18:32.444Z,4,GR86-063-113,28.4,-0.756,0.523,2.47,2.0,,33.74,34.96,
2025-08-15T03:18:32.487Z,4,GR86-063-113,34.4,-0.737,0.586,2.47,2.0,,30.185,31.33,
2025-08-15T03:18:32.530Z,4,GR86-063-113,40.400000000000006,-0.596,0.651,2.47,2.0,6052.0,25.455,26.63,
2025-08-15T03:18:32.574Z,4,GR86-063-113,49.400000000000006,-0.5760000000000001,0.732,2.47,2.0,,23.335,24.08,112.44
2025-08-15T03:18:32.617Z,4,GR86-063-113,55.2,-0.63,0.781,2.47,2.0,,22.555,23.24,
2025-08-15T03:18:32.660Z,4,GR86-063-113,60.8,-0.548,0.8220000000000001,2.47,2.0,,21.715,22.4,
2025-08-15T03:18:32.704Z,4,GR86-063-113,65.5,-0.5690000000000001,0.866,2.47,2.0,,21.21,21.9,
2025-08-15T03:18:32.746Z,4,GR86-063-113,68.8,-0.508,0.933,2.47,2.0,5832.0,20.45,21.27,
2025-08-15T03:18:32.789Z,4,GR86-063-113,69.3,-0.534,1.045,2.47,2.0,,20.695,20.905,107.02
2025-08-15T03:18:32.834Z,4,GR86-063-113,58.8,-0.497,1.128,2.47,2.0,,20.785,21.27,
2025-08-15T03:18:32.876Z,4,GR86-063-113,44.6,-0.439,1.093,2.47,2.0,,20.42,21.18,
2025-08-15T03:18:32.919Z,4,GR86-063-113,32.7,-0.454,1.051,2.47,2.0,,19.335,20.08,
2025-08-15T03:18:32.964Z,4,GR86-063-113,26.700000000000003,-0.461,1.03,2.47,2.0,5579.0,17.150000000000002,17.93,
2025-08-15T03:18:33.007Z,4,GR86-063-113,26.1,-0.5,1.063,2.47,2.0,,16.145,16.740000000000002,103.41
2025-08-15T03:18:33.050Z,4,GR86-063-113,32.0,-0.462,1.055,2.47,2.0,,15.395,16.115000000000002,
2025-08-15T03:18:33.094Z,4,GR86-063-113,51.400000000000006,-0.394,1.128,2.47,2.0,,13.735,14.51,
2025-08-15T03:18:33.137Z,4,GR86-063-113,65.0,-0.377,1.189,2.47,2.0,,12.45,13.11,
2025-08-15T03:18:33.180Z,4,GR86-063-113,75.7,-0.36,1.24,2.47,2.0,5297.0,10.62,11.4,
2025-08-15T03:18:33.225Z,4,GR86-063-113,82.7,-0.32,1.229,2.47,2.0,,6.625,7.235,96.79
2025-08-15T03:18:33.268Z,4,GR86-063-113,87.30000000000001,-0.285,1.247,2.47,2.0,,2.275,2.73,
2025-08-15T03:18:33.311Z,4,GR86-063-113,89.9,-0.294,1.277,2.47,2.0,,0.0,0.0,
2025-08-15T03:18:33.354Z,4,GR86-063-113,91.1,-0.239,1.278,2.47,2.0,,0.0,0.0,
2025-08-15T03:18:33.397Z,4,GR86-063-113,91.3,-0.176,1.193,2.77,2.0,5163.0,0.0,0.0,
2025-08-15T03:18:33.440Z,4,GR86-063-113,91.8,-0.193,1.244,4.04,2.0,,0.0,0.0,93.94
2025-08-15T03:18:33.484Z,4,GR86-063-113,93.0,-0.179,1.226,4.62,2.0,,0.0,0.0,
2025-08-15T03:18:33.527Z,4,GR86-063-113,93.6,-0.206,1.339,4.96,2.0,,0.0,0.0,
2025-08-15T03:18:33.570Z,4,GR86-063-113,93.6,-0.182,1.314,5.91,2.0,,0.0,0.0,
2025-08-15T03:18:33.615Z,4,GR86-063-113,93.5,-0.177,1.271,19.47,2.0,5048.0,0.0,0.0,
2025-08-15T03:18:33.657Z,4,GR86-063-113,93.5,-0.151,1.254,20.99,2.0,,0.0,0.0,91.94
2025-08-15T03:18:33.700Z,4,GR86-063-113,93.3,-0.156,1.319,26.92,2.0,,0.0,0.0,
2025-08-15T03:18:33.744Z,4,GR86-063-113,92.1,-0.137,1.405,39.02,2.0,,0.0,0.0,
2025-08-15T03:18:33.787Z,4,GR86-063-113,90.3,-0.133,1.323,55.84,2.0,,0.0,0.0,
2025-08-15T03:18:33.830Z,4,GR86-063-113,89.5,-0.072,1.318,57.85,2.0,5201.0,0.0,0.0,
2025-08-15T03:18:33.874Z,4,GR86-063-113,89.5,0.327,1.168,58.11,2.0,,0.0,0.0,90.94
2025-08-15T03:18:33.917Z,4,GR86-063-113,89.9,0.324,1.192,67.32000000000001,2.0,,0.0,0.0,
2025-08-15T03:18:33.960Z,4,GR86-063-113,90.8,0.295,1.233,92.62,2.0,,0.0,0.0,
2025-08-15T03:18:34.004Z,4,GR86-063-113,91.5,0.212,1.217,99.72,2.0,,0.0,0.0,
2025-08-15T03:18:34.047Z,4,GR86-063-113,92.2,0.199,1.246,100.02,2.0,5307.0,0.0,0.0,
2025-08-15T03:18:34.090Z,4,GR86-063-113,92.9,0.182,1.228,100.01,2.0,,0.0,0.0,90.07000000000001
2025-08-15T03:18:34.134Z,4,GR86-063-113,94.3,0.253,1.18,100.02,2.0,,0.0,0.0,
2025-08-15T03:18:34.177Z,4,GR86-063-113,96.3,0.246,1.231,100.0,2.0,,0.0,0.0,
2025-08-15T03:18:34.220Z,4,GR86-063-113,98.7,0.244,1.267,100.0,2.0,,0.0,0.0,
2025-08-15T03:18:34.265Z,4,GR86-063-113,100.1,0.249,1.197,100.01,2.0,5404.0,0.0,0.0,
2025-08-15T03:18:34.307Z,4,GR86-063-113,100.5,0.16,1.383,100.02,2.0,,0.0,0.0,90.89
2025-08-15T03:18:34.350Z,4,GR86-063-113,100.5,0.188,1.364,100.02,2.0,,0.0,0.0,
2025-08-15T03:18:34.394Z,4,GR86-063-113,100.2,0.186,1.257,100.03,2.0,,0.0,0.0,
2025-08-15T03:18:34.437Z,4,GR86-063-113,100.3,0.244,1.205,100.01,2.0,,0.0,0.0,
2025-08-15T03:18:34.480Z,4,GR86-063-113,100.5,0.218,1.216,100.02,2.0,5430.0,0.0,0.0,
2025-08-15T03:18:34.526Z,4,GR86-063-113,100.7,0.204,1.192,100.03,2.0,,0.0,0.0,92.39
2025-08-15T03:18:34.569Z,4,GR86-063-113,101.1,0.234,1.106,100.02,2.0,,0.0,0.0,
2025-08-15T03:18:34.614Z,4,GR86-063-113,102.2,0.22,1.147,100.02,2.0,,0.0,0.0,
2025-08-15T03:18:34.657Z,4,GR86-063-113,102.8,0.195,1.124,100.01,2.0,,0.0,0.0,
2025-08-15T03:18:34.700Z,4,GR86-063-113,103.3,0.175,1.194,100.01,2.0,5505.0,0.0,0.0,
2025-08-15T03:18:34.744Z,4,GR86-063-113,103.4,0.236,1.175,100.01,2.0,,0.0,0.0,93.74
2025-08-15T03:18:34.786Z,4,GR86-063-113,103.4,0.211,1.19,100.01,2.0,,0.0,0.0,
2025-08-15T03:18:34.829Z,4,GR86-063-113,103.4,0.231,1.163,100.02,2.0,,0.0,0.0,
2025-08-15T03:18:34.874Z,4,GR86-063-113,102.5,0.225,1.062,100.02,2.0,,0.0,0.0,
2025-08-15T03:18:34.917Z,4,GR86-063-113,96.9,0.203,1.106,100.02,2.0,5604.0,0.0,0.0,
2025-08-15T03:18:34.960Z,4,GR86-063-113,86.10000000000001,0.197,1.166,100.02,2.0,,0.0,0.0,94.94
2025-08-15T03:18:35.004Z,4,GR86-063-113,70.4,0.191,1.186,100.01,2.0,,0.0,0.0,
2025-08-15T03:18:35.047Z,4,GR86-063-113,53.3,0.257,1.173,100.02,2.0,,0.0,0.0,
2025-08-15T03:18:35.090Z,4,GR86-063-113,39.8,0.288,1.121,100.03,2.0,,0.0,0.0,
2025-08-15T03:18:35.134Z,4,GR86-063-113,29.700000000000003,0.264,1.042,100.03,2.0,5718.0,0.0,0.0,
2025-08-15T03:18:35.177Z,4,GR86-063-113,30.5,0.256,1.093,100.04,2.0,,0.0,0.0,96.15
2025-08-15T03:18:35.220Z,4,GR86-063-113,36.2,0.271,1.128,100.03,2.0,,0.0,0.0,
2025-08-15T03:18:35.264Z,4,GR86-063-113,41.0,0.276,1.158,100.03,2.0,,0.0,0.0,
2025-08-15T03:18:35.307Z,4,GR86-063-113,41.8,0.283,1.131,100.05,2.0,,0.0,0.0,
2025-08-15T03:18:35.350Z,4,GR86-063-113,39.0,0.25,1.106,100.05,2.0,5804.0,0.0,0.0,
2025-08-15T03:18:35.394Z,4,GR86-063-113,29.700000000000003,0.262,1.124,100.03,2.0,,0.0,0.0,97.97
2025-08-15T03:18:35.437Z,4,GR86-063-113,25.9,0.298,1.068,100.03,2.0,,0.0,0.0,
2025-08-15T03:18:35.480Z,4,GR86-063-113,25.8,0.293,1.051,100.03,2.0,,0.0,0.0,
2025-08-15T03:18:35.526Z,4,GR86-063-113,29.700000000000003,0.296,0.994,100.03,2.0,,0.0,0.0,
2025-08-15T03:18:35.569Z,4,GR86-063-113,36.3,0.285,0.974,100.04,2.0,5887.0,0.0,0.0,
2025-08-15T03:18:35.615Z,4,GR86-063-113,44.3,0.258,0.933,100.03,2.0,,0.0,0.0,100.65
2025-08-15T03:18:35.658Z,4,GR86-063-113,47.7,0.276,0.853,100.02,2.0,,0.0,0.0,
2025-08-15T03:18:35.701Z,4,GR86-063-113,50.2,0.255,0.801,100.02,2.0,,0.0,0.0,
2025-08-15T03:18:35.744Z,4,GR86-063-113,52.400000000000006,0.249,0.784,100.03,2.0,,0.0,0.0,
2025-08-15T03:18:35.787Z,4,GR86-063-113,54.0,0.254,0.656,100.02,2.0,5881.0,0.0,0.0,
2025-08-15T03:18:35.830Z,4,GR86-063-113,55.0,0.178,0.642,100.03,2.0,,0.0,0.0,101.26
2025-08-15T03:18:35.874Z,4,GR86-063-113,55.0,0.321,0.8260000000000001,100.03,2.0,,0.0,0.0,
2025-08-15T03:18:35.917Z,4,GR86-063-113,51.6,0.29,0.592,100.02,2.0,,0.0,0.0,
2025-08-15T03:18:35.960Z,4,GR86-063-113,43.400000000000006,0.292,0.582,100.05,2.0,,0.0,0.0,
2025-08-15T03:18:36.004Z,4,GR86-063-113,32.9,0.28,0.419,100.03,2.0,5963.0,0.0,0.0,
2025-08-15T03:18:36.046Z,4,GR86-063-113,24.0,0.116,0.41,100.02,2.0,,0.0,0.0,103.28
2025-08-15T03:18:36.089Z,4,GR86-063-113,17.400000000000002,0.133,0.545,100.03,2.0,,0.0,0.0,
2025-08-15T03:18:36.134Z,4,GR86-063-113,12.5,0.364,0.487,100.03,2.0,,0.0,0.0,
2025-08-15T03:18:36.176Z,4,GR86-063-113,10.7,0.346,0.606,100.02,2.0,,0.0,0.0,
2025-08-15T03:18:36.219Z,4,GR86-063-113,10.3,0.288,0.474,100.03,2.0,6253.0,0.0,0.0,
2025-08-15T03:18:36.264Z,4,GR86-063-113,11.5,0.261,0.436,100.03,2.0,,0.0,0.0,104.98
2025-08-15T03:18:36.307Z,4,GR86-063-113,17.2,0.167,0.586,100.02,2.0,,0.0,0.0,
2025-08-15T03:18:36.350Z,4,GR86-063-113,23.5,0.242,0.631,100.03,2.0,,0.0,0.0,
2025-08-15T03:18:36.394Z,4,GR86-063-113,31.8,0.31,0.63,100.02,2.0,,0.0,0.0,
2025-08-15T03:18:36.437Z,4,GR86-063-113,35.6,0.252,0.772,100.03,2.0,6307.0,0.0,0.0,
2025-08-15T03:18:36.480Z,4,GR86-063-113,38.1,0.325,0.621,100.03,2.0,,0.0,0.0,106.92
2025-08-15T03:18:36.526Z,4,GR86-063-113,39.0,0.293,0.515,100.02,2.0,,0.0,0.0,
2025-08-15T03:18:36.569Z,4,GR86-063-113,39.3,0.324,0.54,100.01,2.0,,0.0,0.0,
2025-08-15T03:18:36.615Z,4,GR86-063-113,39.3,0.221,0.548,100.03,2.0,,0.0,0.0,
2025-08-15T03:18:36.657Z,4,GR86-063-113,39.0,0.177,0.343,100.01,2.0,6384.0,0.0,0.0,
2025-08-15T03:18:36.700Z,4,GR86-063-113,38.1,0.102,0.618,100.02,2.0,,0.0,0.0,108.62
2025-08-15T03:18:36.744Z,4,GR86-063-113,34.5,0.229,0.477,100.02,2.0,,0.0,0.0,
2025-08-15T03:18:36.786Z,4,GR86-063-113,27.8,0.222,0.551,100.02,2.0,,0.0,0.0,
2025-08-15T03:18:36.829Z,4,GR86-063-113,22.1,0.253,0.596,100.01,2.0,,0.0,0.0,
2025-08-15T03:18:36.874Z,4,GR86-063-113,17.8,0.291,0.584,99.99,2.0,6534.0,0.0,0.0,
2025-08-15T03:18:36.917Z,4,GR86-063-113,17.400000000000002,0.315,0.636,100.02,2.0,,0.0,0.0,110.23
2025-08-15T03:18:36.960Z,4,GR86-063-113,17.2,0.255,0.535,100.03,2.0,,0.0,0.0,
2025-08-15T03:18:37.004Z,4,GR86-063-113,18.0,0.307,0.722,100.02,2.0,,0.0,0.0,
2025-08-15T03:18:37.047Z,4,GR86-063-113,19.700000000000003,0.3,0.62,100.01,2.0,,0.0,0.0,
2025-08-15T03:18:37.090Z,4,GR86-063-113,20.9,0.261,0.539,100.01,2.0,6584.0,0.0,0.0,
2025-08-15T03:18:37.134Z,4,GR86-063-113,21.5,0.24,0.403,100.02,2.0,,0.0,0.0,112.23
2025-08-15T03:18:37.177Z,4,GR86-063-113,21.9,0.306,0.357,100.04,2.0,,0.0,0.0,
2025-08-15T03:18:37.220Z,4,GR86-063-113,22.5,0.288,0.266,100.01,2.0,,0.0,0.0,
2025-08-15T03:18:37.265Z,4,GR86-063-113,22.5,0.303,0.297,100.03,2.0,,0.0,0.0,
2025-08-15T03:18:37.307Z,4,GR86-063-113,21.1,0.293,0.334,100.03,2.0,6644.0,0.0,0.0,
2025-08-15T03:18:37.350Z,4,GR86-063-113,17.0,0.256,0.336,100.02,2.0,,0.0,0.0,114.02
2025-08-15T03:18:37.394Z,4,GR86-063-113,12.0,0.26,0.351,100.01,2.0,,0.0,0.0,
2025-08-15T03:18:37.437Z,4,GR86-063-113,10.3,0.272,0.281,99.98,2.0,,0.0,0.0,
2025-08-15T03:18:37.480Z,4,GR86-063-113,8.700000000000001,0.259,0.246,100.02,2.0,,0.0,0.0,
2025-08-15T03:18:37.526Z,4,GR86-063-113,5.5,0.266,0.232,100.01,2.0,6714.0,0.0,0.0,
2025-08-15T03:18:37.569Z,4,GR86-063-113,1.0,0.284,0.149,100.02,2.0,,0.0,0.0,115.62
2025-08-15T03:18:37.615Z,4,GR86-063-113,-5.800000000000001,0.275,0.005,100.01,2.0,,0.0,0.0,
2025-08-15T03:18:37.657Z,4,GR86-063-113,-9.7,0.266,-0.074,100.01,2.0,,0.0,0.0,
2025-08-15T03:18:37.700Z,4,GR86-063-113,-11.8,0.237,-0.178,100.02,2.0,,0.0,0.0,
2025-08-15T03:18:37.744Z,4,GR86-063-113,-13.0,0.256,-0.277,100.01,2.0,6836.0,0.0,0.0,
2025-08-15T03:18:37.786Z,4,GR86-063-113,-13.7,0.258,-0.33,100.03,2.0,,0.0,0.0,117.5
2025-08-15T03:18:37.829Z,4,GR86-063-113,-14.5,0.242,-0.387,100.0,2.0,,0.0,0.0,
2025-08-15T03:18:37.874Z,4,GR86-063-113,-16.2,0.229,-0.422,100.0,2.0,,0.0,0.0,
2025-08-15T03:18:37.917Z,4,GR86-063-113,-17.3,0.243,-0.485,100.0,2.0,,0.0,0.0,
2025-08-15T03:18:37.960Z,4,GR86-063-113,-18.3,0.239,-0.532,100.0,2.0,6934.0,0.0,0.0,
2025-08-15T03:18:38.004Z,4,GR86-063-113,-19.0,0.237,-0.5640000000000001,100.01,2.0,,0.0,0.0,119.39
2025-08-15T03:18:38.047Z,4,GR86-063-113,-19.700000000000003,0.25,-0.609,99.98,2.0,,0.0,0.0,
2025-08-15T03:18:38.090Z,4,GR86-063-113,-20.200000000000003,0.251,-0.643,99.98,2.0,,0.0,0.0,
2025-08-15T03:18:38.134Z,4,GR86-063-113,-20.3,0.239,-0.6910000000000001,99.99,2.0,,0.0,0.0,
2025-08-15T03:18:38.177Z,4,GR86-063-113,-20.3,0.216,-0.7030000000000001,99.99,2.0,7058.0,0.0,0.0,
2025-08-15T03:18:38.220Z,4,GR86-063-113,-20.1,0.23,-0.738,100.01,2.0,,0.0,0.0,122.9
2025-08-15T03:18:38.264Z,4,GR86-063-113,-20.1,0.257,-0.725,100.0,2.0,,0.0,0.0,
2025-08-15T03:18:38.306Z,4,GR86-063-113,-20.1,0.237,-0.6960000000000001,100.02,2.0,,0.0,0.0,
2025-08-15T03:18:38.349Z,4,GR86-063-113,-20.200000000000003,0.22,-0.709,100.0,2.0,,0.0,0.0,
2025-08-15T03:18:38.394Z,4,GR86-063-113,-20.200000000000003,0.213,-0.706,100.01,2.0,7168.0,0.0,0.0,
2025-08-15T03:18:38.437Z,4,GR86-063-113,-20.200000000000003,0.231,-0.741,99.98,2.0,,0.0,0.0,124.52
2025-08-15T03:18:38.480Z,4,GR86-063-113,-20.200000000000003,0.226,-0.715,100.02,2.0,,0.0,0.0,
2025-08-15T03:18:38.526Z,4,GR86-063-113,-20.6,0.214,-0.706,100.02,2.0,,0.0,0.0,
2025-08-15T03:18:38.569Z,4,GR86-063-113,-21.700000000000003,0.188,-0.7020000000000001,100.01,2.0,,0.0,0.0,
2025-08-15T03:18:38.615Z,4,GR86-063-113,-23.5,0.135,-0.752,100.02,2.0,7255.0,0.0,0.0,
2025-08-15T03:18:38.658Z,4,GR86-063-113,-23.9,-0.064,-0.723,100.01,3.0,,0.0,0.0,126.21
2025-08-15T03:18:38.701Z,4,GR86-063-113,-23.9,-0.051,-0.6960000000000001,100.0,3.0,,0.0,0.0,
2025-08-15T03:18:38.744Z,4,GR86-063-113,-23.5,0.623,-0.6980000000000001,99.99,3.0,,0.0,0.0,
2025-08-15T03:18:38.787Z,4,GR86-063-113,-22.9,0.505,-0.808,100.0,3.0,,0.0,0.0,
2025-08-15T03:18:38.830Z,4,GR86-063-113,-22.8,0.276,-0.723,100.0,3.0,6159.0,0.0,0.0,
2025-08-15T03:18:38.874Z,4,GR86-063-113,-22.8,0.011,-0.834,100.01,3.0,,0.0,0.0,127.37
2025-08-15T03:18:38.917Z,4,GR86-063-113,-22.8,0.131,-0.804,100.0,3.0,,0.0,0.0,
2025-08-15T03:18:38.960Z,4,GR86-063-113,-22.8,0.257,-0.809,99.99,3.0,,0.0,0.0,
2025-08-15T03:18:39.004Z,4,GR86-063-113,-22.8,0.24,-0.89,100.01,3.0,,0.0,0.0,
2025-08-15T03:18:39.046Z,4,GR86-063-113,-22.8,0.207,-0.782,100.01,3.0,6139.0,0.0,0.0,
2025-08-15T03:18:39.089Z,4,GR86-063-113,-22.8,0.177,-0.79,100.0,3.0,,0.0,0.0,129.02
2025-08-15T03:18:39.133Z,4,GR86-063-113,-23.3,0.207,-0.78,100.01,3.0,,0.0,0.0,
2025-08-15T03:18:39.177Z,4,GR86-063-113,-24.0,0.202,-0.768,100.0,3.0,,0.0,0.0,
2025-08-15T03:18:39.220Z,4,GR86-063-113,-24.8,0.174,-0.793,100.0,3.0,,0.0,0.0,
2025-08-15T03:18:39.307Z,4,GR86-063-113,-25.5,0.199,-0.759,100.01,3.0,6160.0,0.0,0.0,130.49
2025-08-15T03:18:39.350Z,4,GR86-063-113,-25.0,0.165,-0.776,100.01,3.0,,0.0,0.0,
2025-08-15T03:18:39.394Z,4,GR86-063-113,-24.200000000000003,0.185,-0.809,100.01,3.0,,0.0,0.0,
2025-08-15T03:18:39.437Z,4,GR86-063-113,-23.700000000000003,0.179,-0.756,99.99,3.0,,0.0,0.0,
2025-08-15T03:18:39.480Z,4,GR86-063-113,-23.6,0.194,-0.753,100.0,3.0,6218.0,0.0,0.0,
2025-08-15T03:18:39.526Z,4,GR86-063-113,-23.700000000000003,0.197,-0.744,100.02,3.0,,0.0,0.0,131.77
2025-08-15T03:18:39.568Z,4,GR86-063-113,-23.8,0.152,-0.765,100.0,3.0,,0.0,0.0,
2025-08-15T03:18:39.611Z,4,GR86-063-113,-23.8,0.166,-0.757,100.02,3.0,,0.0,0.0,
2025-08-15T03:18:39.654Z,4,GR86-063-113,-23.8,0.164,-0.762,100.01,3.0,,0.0,0.0,
2025-08-15T03:18:39.697Z,4,GR86-063-113,-23.8,0.194,-0.784,100.01,3.0,6284.0,0.0,0.0,
2025-08-15T03:18:39.740Z,4,GR86-063-113,-24.1,0.207,-0.786,99.99,3.0,,0.0,0.0,133.06
2025-08-15T03:18:39.784Z,4,GR86-063-113,-24.700000000000003,0.163,-0.799,100.01,3.0,,0.0,0.0,
2025-08-15T03:18:39.827Z,4,GR86-063-113,-25.1,0.148,-0.8200000000000001,100.0,3.0,,0.0,0.0,
2025-08-15T03:18:39.870Z,4,GR86-063-113,-25.200000000000003,0.181,-0.865,100.01,3.0,,0.0,0.0,
2025-08-15T03:18:39.914Z,4,GR86-063-113,-25.200000000000003,0.168,-0.836,100.0,3.0,6339.0,0.0,0.0,
2025-08-15T03:18:39.957Z,4,GR86-063-113,-25.200000000000003,0.216,-0.8300000000000001,100.02,3.0,,0.0,0.0,134.39
2025-08-15T03:18:40.000Z,4,GR86-063-113,-25.200000000000003,0.184,-0.803,100.0,3.0,,0.0,0.0,
2025-08-15T03:18:40.044Z,4,GR86-063-113,-25.4,0.155,-0.804,99.99,3.0,,0.0,0.0,
2025-08-15T03:18:40.086Z,4,GR86-063-113,-25.9,0.165,-0.793,100.02,3.0,,0.0,0.0,
2025-08-15T03:18:40.129Z,4,GR86-063-113,-26.9,0.203,-0.8190000000000001,99.99,3.0,6393.0,0.0,0.0,
2025-08-15T03:18:40.174Z,4,GR86-063-113,-29.200000000000003,0.181,-0.845,99.98,3.0,,0.0,0.0,135.73
2025-08-15T03:18:40.217Z,4,GR86-063-113,-30.6,0.186,-0.88,100.01,3.0,,0.0,0.0,
2025-08-15T03:18:40.260Z,4,GR86-063-113,-31.4,0.165,-0.88,100.01,3.0,,0.0,0.0,
2025-08-15T03:18:40.304Z,4,GR86-063-113,-31.6,0.145,-0.917,100.0,3.0,,0.0,0.0,
2025-08-15T03:18:40.347Z,4,GR86-063-113,-31.3,0.178,-0.909,100.02,3.0,6465.0,0.0,0.0,
2025-08-15T03:18:40.390Z,4,GR86-063-113,-30.4,0.193,-0.95,99.99,3.0,,0.0,0.0,136.81
2025-08-15T03:18:40.434Z,4,GR86-063-113,-28.9,0.166,-1.024,100.01,3.0,,0.0,0.0,
2025-08-15T03:18:40.477Z,4,GR86-063-113,-29.4,0.217,-0.84,100.02,3.0,,0.0,0.0,
2025-08-15T03:18:40.520Z,4,GR86-063-113,-31.1,0.134,-1.025,99.99,3.0,,0.0,0.0,
2025-08-15T03:18:40.565Z,4,GR86-063-113,-33.5,0.161,-0.968,100.0,3.0,6528.0,0.0,0.0,
2025-08-15T03:18:40.607Z,4,GR86-063-113,-35.4,0.168,-1.04,100.02,3.0,,0.0,0.0,138.22
2025-08-15T03:18:40.650Z,4,GR86-063-113,-35.6,0.192,-1.09,99.99,3.0,,0.0,0.0,
2025-08-15T03:18:40.694Z,4,GR86-063-113,-36.6,0.148,-1.071,99.99,3.0,,0.0,0.0,
2025-08-15T03:18:40.737Z,4,GR86-063-113,-39.0,0.159,-1.094,100.02,3.0,,0.0,0.0,
2025-08-15T03:18:40.780Z,4,GR86-063-113,-41.400000000000006,0.152,-1.147,100.01,3.0,6621.0,0.0,0.0,
2025-08-15T03:18:40.826Z,4,GR86-063-113,-42.3,0.161,-1.106,100.0,3.0,,0.0,0.0,140.38
2025-08-15T03:18:40.868Z,4,GR86-063-113,-41.6,0.153,-1.141,100.02,3.0,,0.0,0.0,
2025-08-15T03:18:40.911Z,4,GR86-063-113,-39.0,0.131,-1.198,100.01,3.0,,0.0,0.0,
2025-08-15T03:18:40.954Z,4,GR86-063-113,-35.2,0.149,-1.187,78.79,3.0,,0.0,0.0,
2025-08-15T03:18:40.997Z,4,GR86-063-113,-34.9,0.143,-1.198,78.68,3.0,6665.0,0.0,0.0,
2025-08-15T03:18:41.040Z,4,GR86-063-113,-36.0,0.146,-1.195,74.18,3.0,,0.0,0.0,141.77
2025-08-15T03:18:41.084Z,4,GR86-063-113,-36.6,0.162,-1.245,66.24,3.0,,0.0,0.0,
2025-08-15T03:18:41.126Z,4,GR86-063-113,-36.4,0.156,-1.299,62.43,3.0,,0.0,0.0,
2025-08-15T03:18:41.169Z,4,GR86-063-113,-35.1,0.133,-1.211,61.89,3.0,,0.0,0.0,
2025-08-15T03:18:41.215Z,4,GR86-063-113,-34.800000000000004,0.147,-1.261,59.7,3.0,6761.0,0.0,0.0,
2025-08-15T03:18:41.257Z,4,GR86-063-113,-36.2,0.089,-1.274,59.55,3.0,,0.0,0.0,142.44
2025-08-15T03:18:41.300Z,4,GR86-063-113,-38.900000000000006,0.113,-1.322,59.42,3.0,,0.0,0.0,
2025-08-15T03:18:41.344Z,4,GR86-063-113,-41.0,0.154,-1.279,59.27,3.0,,0.0,0.0,
2025-08-15T03:18:41.386Z,4,GR86-063-113,-42.400000000000006,0.136,-1.293,59.34,3.0,,0.0,0.0,
2025-08-15T03:18:41.429Z,4,GR86-063-113,-42.900000000000006,0.126,-1.315,59.35,3.0,6801.0,0.0,0.0,
2025-08-15T03:18:41.474Z,4,GR86-063-113,-43.2,0.144,-1.308,59.29,3.0,,0.0,0.0,143.51
2025-08-15T03:18:41.517Z,4,GR86-063-113,-42.7,0.101,-1.287,59.26,3.0,,0.0,0.0,
2025-08-15T03:18:41.560Z,4,GR86-063-113,-41.400000000000006,0.086,-1.261,59.21,3.0,,0.0,0.0,
2025-08-15T03:18:41.604Z,4,GR86-063-113,-39.2,0.121,-1.217,58.97,3.0,,0.0,0.0,
2025-08-15T03:18:41.647Z,4,GR86-063-113,-38.0,0.171,-1.189,57.23,3.0,6852.0,0.0,0.0,
2025-08-15T03:18:41.690Z,4,GR86-063-113,-37.8,0.15,-1.188,55.02,3.0,,0.0,0.0,143.66
2025-08-15T03:18:41.734Z,4,GR86-063-113,-37.4,0.119,-1.22,52.45,3.0,,0.0,0.0,
2025-08-15T03:18:41.777Z,4,GR86-063-113,-36.1,0.121,-1.242,49.91,3.0,,0.0,0.0,
2025-08-15T03:18:41.820Z,4,GR86-063-113,-34.800000000000004,0.113,-1.184,48.85,3.0,,0.0,0.0,
2025-08-15T03:18:41.864Z,4,GR86-063-113,-33.9,0.126,-1.194,48.620000000000005,3.0,6877.0,0.0,0.0,
2025-08-15T03:18:41.907Z,4,GR86-063-113,-33.800000000000004,0.14,-1.161,47.04,3.0,,0.0,0.0,144.09
2025-08-15T03:18:41.950Z,4,GR86-063-113,-34.9,0.121,-1.215,43.61,3.0,,0.0,0.0,
2025-08-15T03:18:41.994Z,4,GR86-063-113,-36.5,0.113,-1.199,39.54,3.0,,0.0,0.0,
2025-08-15T03:18:42.037Z,4,GR86-063-113,-38.3,0.099,-1.221,39.1,3.0,,0.0,0.0,
2025-08-15T03:18:42.080Z,4,GR86-063-113,-39.6,0.068,-1.261,38.53,3.0,6883.0,0.0,0.0,
2025-08-15T03:18:42.125Z,4,GR86-063-113,-40.8,0.065,-1.251,37.75,3.0,,0.0,0.0,144.68
2025-08-15T03:18:42.168Z,4,GR86-063-113,-42.5,0.095,-1.236,37.27,3.0,,0.0,0.0,
2025-08-15T03:18:42.211Z,4,GR86-063-113,-44.1,0.103,-1.285,36.61,3.0,,0.0,0.0,
2025-08-15T03:18:42.254Z,4,GR86-063-113,-45.7,0.1,-1.256,35.5,3.0,,0.0,0.0,
2025-08-15T03:18:42.297Z,4,GR86-063-113,-45.5,0.096,-1.285,34.83,3.0,6906.0,0.0,0.0,
2025-08-15T03:18:42.340Z,4,GR86-063-113,-43.900000000000006,0.057,-1.223,34.46,3.0,,0.0,0.0,145.16
2025-08-15T03:18:42.384Z,4,GR86-063-113,-41.2,0.013,-1.232,34.34,3.0,,0.0,0.0,
2025-08-15T03:18:42.427Z,4,GR86-063-113,-38.6,0.043,-1.233,34.11,3.0,,0.0,0.0,
2025-08-15T03:18:42.470Z,4,GR86-063-113,-37.9,0.092,-1.245,33.88,3.0,,0.0,0.0,
2025-08-15T03:18:42.515Z,4,GR86-063-113,-39.0,0.051,-1.279,33.46,3.0,6896.0,0.0,0.0,
2025-08-15T03:18:42.558Z,4,GR86-063-113,-40.1,0.088,-1.27,33.03,3.0,,0.0,0.0,145.23
2025-08-15T03:18:42.601Z,4,GR86-063-113,-41.2,0.083,-1.313,32.62,3.0,,0.0,0.0,
2025-08-15T03:18:42.644Z,4,GR86-063-113,-42.7,0.047,-1.312,32.3,3.0,,0.0,0.0,
2025-08-15T03:18:42.687Z,4,GR86-063-113,-43.8,-0.009,-1.295,32.09,3.0,,0.0,0.0,
2025-08-15T03:18:42.730Z,4,GR86-063-113,-44.6,0.038,-1.259,31.96,3.0,6903.0,0.0,0.0,
2025-08-15T03:18:42.774Z,4,GR86-063-113,-46.1,0.005,-1.204,31.68,3.0,,0.0,0.0,145.39
2025-08-15T03:18:42.817Z,4,GR86-063-113,-46.1,0.03,-1.191,31.42,3.0,,0.0,0.0,
2025-08-15T03:18:42.860Z,4,GR86-063-113,-44.900000000000006,0.063,-1.24,31.21,3.0,,0.0,0.0,
2025-08-15T03:18:42.904Z,4,GR86-063-113,-43.2,0.048,-1.239,30.17,3.0,,0.0,0.0,
2025-08-15T03:18:42.946Z,4,GR86-063-113,-40.7,0.021,-1.195,26.47,3.0,6890.0,0.0,0.0,
2025-08-15T03:18:42.989Z,4,GR86-063-113,-38.0,0.016,-1.159,19.96,3.0,,0.0,0.0,145.42000000000002
2025-08-15T03:18:43.034Z,4,GR86-063-113,-31.5,0.028,-1.071,3.47,3.0,,0.0,0.0,
2025-08-15T03:18:43.077Z,4,GR86-063-113,-26.4,-0.04,-1.077,3.65,3.0,,0.0,0.0,
2025-08-15T03:18:43.120Z,4,GR86-063-113,-21.6,-0.116,-1.091,3.5500000000000003,3.0,,0.0,0.0,
2025-08-15T03:18:43.164Z,4,GR86-063-113,-19.5,-0.093,-1.131,3.39,3.0,6895.0,0.0,0.0,
2025-08-15T03:18:43.207Z,4,GR86-063-113,-19.3,-0.218,-1.108,3.2,3.0,,0.0,0.0,145.16
2025-08-15T03:18:43.250Z,4,GR86-063-113,-19.5,-0.213,-1.096,3.01,3.0,,0.0,0.0,
2025-08-15T03:18:43.294Z,4,GR86-063-113,-18.5,-0.149,-1.102,2.74,3.0,,0.0,0.0,
2025-08-15T03:18:43.337Z,4,GR86-063-113,-18.6,-0.199,-1.098,2.64,3.0,,0.0,0.0,
2025-08-15T03:18:43.380Z,4,GR86-063-113,-19.5,-0.206,-1.11,2.57,3.0,6467.0,0.0,0.0,
2025-08-15T03:18:43.425Z,4,GR86-063-113,-20.1,-0.182,-1.204,2.51,3.0,,0.0,0.0,144.71
2025-08-15T03:18:43.468Z,4,GR86-063-113,-21.8,-0.168,-1.209,2.47,3.0,,0.0,0.0,
2025-08-15T03:18:43.511Z,4,GR86-063-113,-25.3,-0.187,-1.209,2.47,3.0,,0.0,0.0,
2025-08-15T03:18:43.554Z,4,GR86-063-113,-32.300000000000004,-0.187,-1.194,2.47,3.0,,0.0,0.0,
2025-08-15T03:18:43.597Z,4,GR86-063-113,-37.0,-0.191,-1.191,2.47,3.0,6480.0,0.0,0.0,
2025-08-15T03:18:43.640Z,4,GR86-063-113,-37.3,-0.185,-1.226,2.47,3.0,,0.0,0.0,143.45000000000002
2025-08-15T03:18:43.684Z,4,GR86-063-113,-30.1,-0.199,-1.281,2.47,3.0,,0.0,0.0,
2025-08-15T03:18:43.727Z,4,GR86-063-113,-10.2,-0.186,-1.235,2.47,3.0,,0.0,0.0,
2025-08-15T03:18:43.770Z,4,GR86-063-113,8.3,-0.164,-1.174,2.47,3.0,,0.0,0.0,
2025-08-15T03:18:43.814Z,4,GR86-063-113,23.0,-0.161,-1.138,2.48,3.0,6319.0,0.0,0.0,
2025-08-15T03:18:43.857Z,4,GR86-063-113,23.700000000000003,-0.172,-1.079,2.47,3.0,,0.0,0.0,142.32
2025-08-15T03:18:43.900Z,4,GR86-063-113,18.1,-0.172,-1.119,2.47,3.0,,0.0,0.0,
2025-08-15T03:18:43.944Z,4,GR86-063-113,6.0,-0.148,-1.138,2.47,3.0,,0.0,0.0,
2025-08-15T03:18:43.986Z,4,GR86-063-113,-8.9,-0.137,-1.179,2.47,3.0,,0.0,0.0,
2025-08-15T03:18:44.029Z,4,GR86-063-113,-25.6,-0.181,-1.279,2.47,3.0,6295.0,0.0,0.0,
2025-08-15T03:18:44.074Z,4,GR86-063-113,-43.8,-0.206,-1.292,2.47,3.0,,0.0,0.0,140.69
2025-08-15T03:18:44.117Z,4,GR86-063-113,-49.5,-0.206,-1.275,2.47,3.0,,0.0,0.0,
2025-08-15T03:18:44.160Z,4,GR86-063-113,-52.5,-0.197,-1.199,2.47,3.0,,0.0,0.0,
2025-08-15T03:18:44.204Z,4,GR86-063-113,-53.1,-0.214,-1.249,3.21,3.0,,0.0,0.0,
2025-08-15T03:18:44.247Z,4,GR86-063-113,-53.1,-0.219,-1.262,4.24,3.0,6205.0,0.0,0.0,
2025-08-15T03:18:44.334Z,4,GR86-063-113,-52.8,-0.216,-1.26,4.72,3.0,,0.0,0.0,138.63
2025-08-15T03:18:44.377Z,4,GR86-063-113,-43.8,-0.197,-1.179,22.34,3.0,,0.0,0.0,
2025-08-15T03:18:44.420Z,4,GR86-063-113,-38.400000000000006,-0.184,-1.194,27.82,3.0,,0.0,0.0,
2025-08-15T03:18:44.465Z,4,GR86-063-113,-32.300000000000004,-0.137,-1.222,31.22,3.0,6148.0,0.0,0.0,
2025-08-15T03:18:44.507Z,4,GR86-063-113,-28.8,-0.112,-1.217,33.61,3.0,,0.0,0.0,137.38
2025-08-15T03:18:44.550Z,4,GR86-063-113,-25.0,-0.053,-1.178,37.73,3.0,,0.0,0.0,
2025-08-15T03:18:44.594Z,4,GR86-063-113,-21.8,0.07,-1.184,45.71,3.0,,0.0,0.0,
2025-08-15T03:18:44.637Z,4,GR86-063-113,-20.200000000000003,0.105,-1.169,53.26,3.0,,0.0,0.0,
2025-08-15T03:18:44.680Z,4,GR86-063-113,-18.3,0.117,-1.216,57.73,3.0,6505.0,0.0,0.0,
2025-08-15T03:18:44.726Z,4,GR86-063-113,-15.3,0.114,-1.206,58.32,3.0,,0.0,0.0,135.99
2025-08-15T03:18:44.768Z,4,GR86-063-113,-11.8,0.148,-1.161,56.98,3.0,,0.0,0.0,
2025-08-15T03:18:44.811Z,4,GR86-063-113,-7.800000000000001,0.17,-1.148,52.71,3.0,,0.0,0.0,
2025-08-15T03:18:44.854Z,4,GR86-063-113,0.2,0.17,-1.127,44.02,3.0,,0.0,0.0,
2025-08-15T03:18:44.897Z,4,GR86-063-113,5.7,0.167,-1.148,41.4,3.0,6645.0,0.0,0.0,
2025-08-15T03:18:44.940Z,4,GR86-063-113,11.1,0.123,-1.193,38.44,3.0,,0.0,0.0,136.24
2025-08-15T03:18:44.984Z,4,GR86-063-113,14.4,0.135,-1.167,36.37,3.0,,0.0,0.0,
2025-08-15T03:18:45.026Z,4,GR86-063-113,16.3,0.175,-1.19,34.36,3.0,,0.0,0.0,
2025-08-15T03:18:45.069Z,4,GR86-063-113,19.6,0.154,-1.137,33.49,3.0,,0.0,0.0,
2025-08-15T03:18:45.115Z,4,GR86-063-113,23.5,0.141,-1.131,33.06,3.0,6686.0,0.0,0.0,
2025-08-15T03:18:45.157Z,4,GR86-063-113,24.0,0.117,-1.136,33.06,3.0,,0.0,0.0,136.79
2025-08-15T03:18:45.200Z,4,GR86-063-113,22.200000000000003,0.1,-1.092,33.26,3.0,,0.0,0.0,
2025-08-15T03:18:45.244Z,4,GR86-063-113,10.9,0.116,-1.091,33.35,3.0,,0.0,0.0,
2025-08-15T03:18:45.286Z,4,GR86-063-113,0.7000000000000001,0.107,-1.143,33.410000000000004,3.0,,0.0,0.0,
2025-08-15T03:18:45.329Z,4,GR86-063-113,-11.2,0.054,-1.2,33.63,3.0,6625.0,0.0,0.0,
2025-08-15T03:18:45.374Z,4,GR86-063-113,-19.8,0.058,-1.252,33.82,3.0,,0.0,0.0,137.58
2025-08-15T03:18:45.417Z,4,GR86-063-113,-19.8,0.042,-1.212,33.85,3.0,,0.0,0.0,
2025-08-15T03:18:45.460Z,4,GR86-063-113,-19.5,0.089,-1.205,33.88,3.0,,0.0,0.0,
2025-08-15T03:18:45.504Z,4,GR86-063-113,-18.8,0.141,-1.2,33.88,3.0,,0.0,0.0,
2025-08-15T03:18:45.546Z,4,GR86-063-113,-15.6,0.092,-1.253,33.92,3.0,6668.0,0.0,0.0,
2025-08-15T03:18:45.589Z,4,GR86-063-113,-8.5,0.073,-1.2,33.99,3.0,,0.0,0.0,136.91
2025-08-15T03:18:45.634Z,4,GR86-063-113,3.8,0.102,-1.219,34.2,3.0,,0.0,0.0,
2025-08-15T03:18:45.677Z,4,GR86-063-113,5.4,0.113,-1.187,34.49,3.0,,0.0,0.0,
2025-08-15T03:18:45.720Z,4,GR86-063-113,3.4000000000000004,0.13,-1.193,35.37,3.0,,0.0,0.0,
2025-08-15T03:18:45.764Z,4,GR86-063-113,-2.2,0.129,-1.209,38.62,3.0,6636.0,0.0,0.0,
2025-08-15T03:18:45.807Z,4,GR86-063-113,-10.8,0.088,-1.217,49.07,3.0,,0.0,0.0,137.31
2025-08-15T03:18:45.850Z,4,GR86-063-113,-15.5,0.095,-1.25,62.57,3.0,,0.0,0.0,
2025-08-15T03:18:45.894Z,4,GR86-063-113,-21.0,0.107,-1.256,98.46,3.0,,0.0,0.0,
2025-08-15T03:18:45.937Z,4,GR86-063-113,-26.0,0.174,-1.267,99.92,3.0,,0.0,0.0,
2025-08-15T03:18:45.980Z,4,GR86-063-113,-32.1,0.186,-1.221,100.02,3.0,6597.0,0.0,0.0,
2025-08-15T03:18:46.026Z,4,GR86-063-113,-36.5,0.138,-1.196,100.04,3.0,,0.0,0.0,137.64
2025-08-15T03:18:46.068Z,4,GR86-063-113,-42.8,0.121,-1.253,100.03,3.0,,0.0,0.0,
2025-08-15T03:18:46.111Z,4,GR86-063-113,-45.5,0.146,-1.284,100.02,3.0,,0.0,0.0,
2025-08-15T03:18:46.154Z,4,GR86-063-113,-44.0,0.155,-1.254,100.02,3.0,,0.0,0.0,
2025-08-15T03:18:46.197Z,4,GR86-063-113,-39.8,0.198,-1.209,100.06,3.0,6699.0,0.0,0.0,
2025-08-15T03:18:46.240Z,4,GR86-063-113,-36.2,0.164,-1.204,100.04,3.0,,0.0,0.0,138.16
2025-08-15T03:18:46.284Z,4,GR86-063-113,-35.4,0.158,-1.17,100.05,3.0,,0.0,0.0,
2025-08-15T03:18:46.326Z,4,GR86-063-113,-36.5,0.153,-1.183,100.04,3.0,,0.0,0.0,
2025-08-15T03:18:46.369Z,4,GR86-063-113,-38.1,0.186,-1.137,100.03,3.0,,0.0,0.0,
2025-08-15T03:18:46.415Z,4,GR86-063-113,-40.7,0.145,-1.137,100.02,3.0,6740.0,0.0,0.0,
2025-08-15T03:18:46.458Z,4,GR86-063-113,-40.5,0.19,-1.155,100.02,3.0,,0.0,0.0,139.22
2025-08-15T03:18:46.501Z,4,GR86-063-113,-39.8,0.161,-1.139,100.04,3.0,,0.0,0.0,
2025-08-15T03:18:46.544Z,4,GR86-063-113,-38.1,0.131,-1.146,100.02,3.0,,0.0,0.0,
2025-08-15T03:18:46.587Z,4,GR86-063-113,-36.8,0.136,-1.159,100.01,3.0,,0.0,0.0,
2025-08-15T03:18:46.630Z,4,GR86-063-113,-36.6,0.164,-1.168,100.03,3.0,6790.0,0.0,0.0,
2025-08-15T03:18:46.674Z,4,GR86-063-113,-36.9,0.16,-1.134,100.02,3.0,,0.0,0.0,140.34
2025-08-15T03:18:46.717Z,4,GR86-063-113,-36.3,0.155,-1.178,100.02,3.0,,0.0,0.0,
2025-08-15T03:18:46.760Z,4,GR86-063-113,-34.0,0.146,-1.136,100.03,3.0,,0.0,0.0,
2025-08-15T03:18:46.804Z,4,GR86-063-113,-29.4,0.147,-1.137,100.04,3.0,,0.0,0.0,
2025-08-15T03:18:46.889Z,4,GR86-063-113,-24.3,0.168,-1.154,100.02,3.0,6829.0,0.0,0.0,143.0
2025-08-15T03:18:46.934Z,4,GR86-063-113,-17.1,0.192,-1.115,100.03,3.0,,0.0,0.0,
2025-08-15T03:18:46.976Z,4,GR86-063-113,-17.0,0.181,-1.14,100.02,3.0,,0.0,0.0,
2025-08-15T03:18:47.019Z,4,GR86-063-113,-18.2,0.151,-1.101,100.02,3.0,,0.0,0.0,
2025-08-15T03:18:47.064Z,4,GR86-063-113,-22.0,0.136,-1.134,100.02,3.0,6888.0,0.0,0.0,
2025-08-15T03:18:47.107Z,4,GR86-063-113,-25.9,0.186,-1.135,100.01,3.0,,0.0,0.0,143.47
2025-08-15T03:18:47.150Z,4,GR86-063-113,-29.200000000000003,0.186,-1.13,100.01,3.0,,0.0,0.0,
2025-08-15T03:18:47.194Z,4,GR86-063-113,-33.7,0.168,-1.163,100.05,3.0,,0.0,0.0,
2025-08-15T03:18:47.237Z,4,GR86-063-113,-36.4,0.188,-1.179,100.02,3.0,,0.0,0.0,
2025-08-15T03:18:47.280Z,4,GR86-063-113,-38.3,0.152,-1.241,100.03,3.0,6946.0,0.0,0.0,
2025-08-15T03:18:47.325Z,4,GR86-063-113,-39.1,0.105,-1.252,100.03,3.0,,0.0,0.0,144.71
2025-08-15T03:18:47.368Z,4,GR86-063-113,-39.2,0.114,-1.227,100.02,3.0,,0.0,0.0,
2025-08-15T03:18:47.411Z,4,GR86-063-113,-38.900000000000006,0.152,-1.209,100.03,3.0,,0.0,0.0,
2025-08-15T03:18:47.454Z,4,GR86-063-113,-35.800000000000004,0.103,-1.172,100.02,3.0,,0.0,0.0,
2025-08-15T03:18:47.497Z,4,GR86-063-113,-33.7,0.147,-1.222,100.03,3.0,6979.0,0.0,0.0,
2025-08-15T03:18:47.540Z,4,GR86-063-113,-32.800000000000004,0.163,-1.236,100.01,3.0,,0.0,0.0,145.99
2025-08-15T03:18:47.584Z,4,GR86-063-113,-32.800000000000004,0.149,-1.21,100.03,3.0,,0.0,0.0,
2025-08-15T03:18:47.627Z,4,GR86-063-113,-33.5,0.131,-1.161,100.01,3.0,,0.0,0.0,
2025-08-15T03:18:47.670Z,4,GR86-063-113,-34.5,0.142,-1.168,100.0,3.0,,0.0,0.0,
2025-08-15T03:18:47.715Z,4,GR86-063-113,-38.2,0.115,-1.212,100.02,3.0,7024.0,0.0,0.0,
2025-08-15T03:18:47.758Z,4,GR86-063-113,-40.2,0.104,-1.249,100.02,3.0,,0.0,0.0,147.13
2025-08-15T03:18:47.801Z,4,GR86-063-113,-42.1,0.133,-1.241,100.02,3.0,,0.0,0.0,
2025-08-15T03:18:47.844Z,4,GR86-063-113,-44.7,0.146,-1.259,100.03,3.0,,0.0,0.0,
2025-08-15T03:18:47.887Z,4,GR86-063-113,-47.3,0.13,-1.269,100.0,3.0,,0.0,0.0,
2025-08-15T03:18:47.930Z,4,GR86-063-113,-48.8,0.095,-1.271,100.01,3.0,7080.0,0.0,0.0,
2025-08-15T03:18:47.974Z,4,GR86-063-113,-47.8,0.11,-1.285,100.02,3.0,,0.0,0.0,148.41
2025-08-15T03:18:48.017Z,4,GR86-063-113,-44.6,0.082,-1.25,100.03,3.0,,0.0,0.0,
2025-08-15T03:18:48.060Z,4,GR86-063-113,-41.3,0.106,-1.222,100.0,3.0,,0.0,0.0,
2025-08-15T03:18:48.104Z,4,GR86-063-113,-38.6,0.113,-1.285,100.03,3.0,,0.0,0.0,
2025-08-15T03:18:48.147Z,4,GR86-063-113,-35.7,0.15,-1.353,100.01,3.0,7128.0,0.0,0.0,
2025-08-15T03:18:48.190Z,4,GR86-063-113,-32.1,0.138,-1.38,100.02,3.0,,0.0,0.0,149.41
2025-08-15T03:18:48.234Z,4,GR86-063-113,-26.9,0.159,-1.336,100.0,3.0,,0.0,0.0,
2025-08-15T03:18:48.277Z,4,GR86-063-113,-26.1,0.17,-1.358,100.03,3.0,,0.0,0.0,
2025-08-15T03:18:48.320Z,4,GR86-063-113,-27.200000000000003,0.145,-1.368,100.01,3.0,,0.0,0.0,
2025-08-15T03:18:48.365Z,4,GR86-063-113,-29.9,0.103,-1.308,100.0,3.0,7186.0,0.0,0.0,
2025-08-15T03:18:48.407Z,4,GR86-063-113,-34.0,0.091,-1.27,100.02,3.0,,0.0,0.0,150.69
2025-08-15T03:18:48.450Z,4,GR86-063-113,-38.3,0.123,-1.239,100.01,3.0,,0.0,0.0,
2025-08-15T03:18:48.494Z,4,GR86-063-113,-43.1,0.097,-1.187,100.02,3.0,,0.0,0.0,
2025-08-15T03:18:48.537Z,4,GR86-063-113,-44.0,0.101,-1.212,100.01,3.0,,0.0,0.0,
2025-08-15T03:18:48.581Z,4,GR86-063-113,-44.2,0.12,-1.217,100.02,3.0,7212.0,0.0,0.0,
2025-08-15T03:18:48.626Z,4,GR86-063-113,-44.1,0.141,-1.331,100.0,3.0,,0.0,0.0,152.01
2025-08-15T03:18:48.668Z,4,GR86-063-113,-43.8,-0.151,-1.365,100.02,4.0,,0.0,0.0,
2025-08-15T03:18:48.711Z,4,GR86-063-113,-42.2,-0.061,-1.348,99.99,4.0,,0.0,0.0,
2025-08-15T03:18:48.754Z,4,GR86-063-113,-39.5,0.282,-1.256,100.0,4.0,,0.0,0.0,
2025-08-15T03:18:48.797Z,4,GR86-063-113,-39.900000000000006,0.148,-1.203,100.01,4.0,7251.0,0.0,0.0,
2025-08-15T03:18:48.840Z,4,GR86-063-113,-40.1,0.116,-1.105,100.01,4.0,,0.0,0.0,152.78
2025-08-15T03:18:48.884Z,4,GR86-063-113,-39.7,0.069,-1.18,100.01,4.0,,0.0,0.0,
2025-08-15T03:18:48.926Z,4,GR86-063-113,-38.8,0.073,-1.152,100.01,4.0,,0.0,0.0,
2025-08-15T03:18:48.969Z,4,GR86-063-113,-37.0,0.103,-1.181,100.02,4.0,,0.0,0.0,
2025-08-15T03:18:49.015Z,4,GR86-063-113,-34.300000000000004,0.102,-1.08,100.0,4.0,6168.0,0.0,0.0,
2025-08-15T03:18:49.057Z,4,GR86-063-113,-33.800000000000004,0.113,-1.128,100.01,4.0,,0.0,0.0,153.22
2025-08-15T03:18:49.100Z,4,GR86-063-113,-33.2,0.127,-1.178,100.01,4.0,,0.0,0.0,
2025-08-15T03:18:49.144Z,4,GR86-063-113,-32.800000000000004,0.114,-1.224,99.99,4.0,,0.0,0.0,
2025-08-15T03:18:49.186Z,4,GR86-063-113,-32.6,0.104,-1.161,99.98,4.0,,0.0,0.0,
2025-08-15T03:18:49.274Z,4,GR86-063-113,-32.6,0.093,-1.158,100.0,4.0,6194.0,0.0,0.0,154.05
2025-08-15T03:18:49.317Z,4,GR86-063-113,-32.5,0.094,-1.188,99.99,4.0,,0.0,0.0,
2025-08-15T03:18:49.360Z,4,GR86-063-113,-32.4,0.095,-1.202,99.98,4.0,,0.0,0.0,
2025-08-15T03:18:49.404Z,4,GR86-063-113,-33.0,0.11,-1.291,100.0,4.0,,0.0,0.0,
2025-08-15T03:18:49.446Z,4,GR86-063-113,-35.2,0.125,-1.287,100.01,4.0,6235.0,0.0,0.0,
2025-08-15T03:18:49.489Z,4,GR86-063-113,-40.0,0.105,-1.376,100.0,4.0,,0.0,0.0,154.63
2025-08-15T03:18:49.534Z,4,GR86-063-113,-47.400000000000006,0.101,-1.436,100.0,4.0,,0.0,0.0,
2025-08-15T03:18:49.577Z,4,GR86-063-113,-51.0,0.127,-1.399,100.02,4.0,,0.0,0.0,
2025-08-15T03:18:49.620Z,4,GR86-063-113,-52.1,0.099,-1.391,99.99,4.0,,0.0,0.0,
2025-08-15T03:18:49.664Z,4,GR86-063-113,-51.6,0.088,-1.343,100.0,4.0,6227.0,0.0,0.0,
2025-08-15T03:18:49.706Z,4,GR86-063-113,-49.3,0.039,-1.376,99.99,4.0,,0.0,0.0,155.63
2025-08-15T03:18:49.749Z,4,GR86-063-113,-44.7,0.081,-1.34,99.99,4.0,,0.0,0.0,
2025-08-15T03:18:49.794Z,4,GR86-063-113,-38.1,0.095,-1.298,100.0,4.0,,0.0,0.0,
2025-08-15T03:18:49.837Z,4,GR86-063-113,-36.6,0.077,-1.305,99.99,4.0,,0.0,0.0,
2025-08-15T03:18:49.880Z,4,GR86-063-113,-36.6,0.095,-1.326,100.0,4.0,6244.0,0.0,0.0,
2025-08-15T03:18:49.925Z,4,GR86-063-113,-36.9,0.071,-1.325,100.0,4.0,,0.0,0.0,155.98
2025-08-15T03:18:49.968Z,4,GR86-063-113,-36.8,0.113,-1.314,99.98,4.0,,0.0,0.0,
2025-08-15T03:18:50.011Z,4,GR86-063-113,-36.2,0.128,-1.315,100.0,4.0,,0.0,0.0,
2025-08-15T03:18:50.054Z,4,GR86-063-113,-33.7,0.103,-1.357,99.99,4.0,,0.0,0.0,
2025-08-15T03:18:50.097Z,4,GR86-063-113,-30.5,0.119,-1.318,100.0,4.0,6272.0,0.0,0.0,
2025-08-15T03:18:50.140Z,4,GR86-063-113,-27.1,0.106,-1.296,99.99,4.0,,0.0,0.0,156.78
2025-08-15T03:18:50.184Z,4,GR86-063-113,-24.3,0.115,-1.217,100.0,4.0,,0.0,0.0,
2025-08-15T03:18:50.227Z,4,GR86-063-113,-22.9,0.101,-1.224,100.0,4.0,,0.0,0.0,
2025-08-15T03:18:50.270Z,4,GR86-063-113,-22.200000000000003,0.098,-1.209,99.98,4.0,,0.0,0.0,
2025-08-15T03:18:50.315Z,4,GR86-063-113,-22.4,0.129,-1.16,100.0,4.0,6291.0,0.0,0.0,
2025-08-15T03:18:50.358Z,4,GR86-063-113,-23.4,0.094,-1.14,99.99,4.0,,0.0,0.0,157.41
2025-08-15T03:18:50.401Z,4,GR86-063-113,-23.5,0.112,-1.086,100.0,4.0,,0.0,0.0,
2025-08-15T03:18:50.444Z,4,GR86-063-113,-22.700000000000003,0.09,-1.15,100.0,4.0,,0.0,0.0,
2025-08-15T03:18:50.487Z,4,GR86-063-113,-20.3,0.144,-1.06,100.0,4.0,,0.0,0.0,
2025-08-15T03:18:50.530Z,4,GR86-063-113,-17.6,0.153,-1.044,99.99,4.0,6304.0,0.0,0.0,
2025-08-15T03:18:50.574Z,4,GR86-063-113,-16.1,0.097,-0.988,99.99,4.0,,0.0,0.0,158.05
2025-08-15T03:18:50.617Z,4,GR86-063-113,-16.0,0.153,-0.958,99.99,4.0,,0.0,0.0,
2025-08-15T03:18:50.660Z,4,GR86-063-113,-16.0,0.158,-0.952,100.0,4.0,,0.0,0.0,
2025-08-15T03:18:50.704Z,4,GR86-063-113,-15.9,0.164,-0.915,100.0,4.0,,0.0,0.0,
2025-08-15T03:18:50.746Z,4,GR86-063-113,-15.8,0.147,-0.899,100.01,4.0,6325.0,0.0,0.0,
2025-08-15T03:18:50.789Z,4,GR86-063-113,-15.8,0.159,-0.853,100.02,4.0,,0.0,0.0,158.8
2025-08-15T03:18:50.834Z,4,GR86-063-113,-15.6,0.172,-0.734,100.0,4.0,,0.0,0.0,
2025-08-15T03:18:50.877Z,4,GR86-063-113,-15.3,0.154,-0.686,100.0,4.0,,0.0,0.0,
2025-08-15T03:18:50.920Z,4,GR86-063-113,-15.1,0.134,-0.6950000000000001,100.0,4.0,,0.0,0.0,
2025-08-15T03:18:50.964Z,4,GR86-063-113,-14.8,0.137,-0.663,99.99,4.0,6333.0,0.0,0.0,
2025-08-15T03:18:51.007Z,4,GR86-063-113,-14.4,0.132,-0.633,99.99,4.0,,0.0,0.0,159.8
2025-08-15T03:18:51.050Z,4,GR86-063-113,-14.0,0.1,-0.626,100.0,4.0,,0.0,0.0,
2025-08-15T03:18:51.094Z,4,GR86-063-113,-13.5,0.141,-0.631,100.01,4.0,,0.0,0.0,
2025-08-15T03:18:51.137Z,4,GR86-063-113,-13.4,0.15,-0.629,100.02,4.0,,0.0,0.0,
2025-08-15T03:18:51.180Z,4,GR86-063-113,-13.4,0.102,-0.604,100.0,4.0,6368.0,0.0,0.0,
2025-08-15T03:18:51.225Z,4,GR86-063-113,-13.4,0.098,-0.591,99.99,4.0,,0.0,0.0,162.09
2025-08-15T03:18:51.268Z,4,GR86-063-113,-13.2,0.113,-0.604,99.99,4.0,,0.0,0.0,
2025-08-15T03:18:51.311Z,4,GR86-063-113,-12.7,0.142,-0.608,99.99,4.0,,0.0,0.0,
2025-08-15T03:18:51.354Z,4,GR86-063-113,-11.1,0.103,-0.5710000000000001,99.98,4.0,,0.0,0.0,
2025-08-15T03:18:51.397Z,4,GR86-063-113,-9.4,0.114,-0.52,100.0,4.0,6402.0,0.0,0.0,
2025-08-15T03:18:51.440Z,4,GR86-063-113,-8.0,0.113,-0.507,99.99,4.0,,0.0,0.0,163.3
2025-08-15T03:18:51.484Z,4,GR86-063-113,-6.9,0.135,-0.486,99.98,4.0,,0.0,0.0,
2025-08-15T03:18:51.527Z,4,GR86-063-113,-6.0,0.148,-0.463,100.0,4.0,,0.0,0.0,
2025-08-15T03:18:51.570Z,4,GR86-063-113,-5.1000000000000005,0.185,-0.441,100.0,4.0,,0.0,0.0,
2025-08-15T03:18:51.615Z,4,GR86-063-113,-4.800000000000001,0.101,-0.34,99.99,4.0,6475.0,0.0,0.0,
2025-08-15T03:18:51.657Z,4,GR86-063-113,-4.800000000000001,0.123,-0.316,100.01,4.0,,0.0,0.0,164.38
2025-08-15T03:18:51.700Z,4,GR86-063-113,-4.7,0.132,-0.308,99.99,4.0,,0.0,0.0,
2025-08-15T03:18:51.744Z,4,GR86-063-113,-4.4,0.17,-0.263,99.99,4.0,,0.0,0.0,
2025-08-15T03:18:51.786Z,4,GR86-063-113,-4.2,0.179,-0.271,99.98,4.0,,0.0,0.0,
2025-08-15T03:18:51.829Z,4,GR86-063-113,-4.0,0.189,-0.272,100.01,4.0,6519.0,0.0,0.0,
2025-08-15T03:18:51.874Z,4,GR86-063-113,-3.3000000000000003,0.123,-0.223,100.01,4.0,,0.0,0.0,165.49
2025-08-15T03:18:51.917Z,4,GR86-063-113,-1.9,0.123,-0.216,100.01,4.0,,0.0,0.0,
2025-08-15T03:18:51.960Z,4,GR86-063-113,-0.8,0.154,-0.178,100.0,4.0,,0.0,0.0,
2025-08-15T03:18:52.004Z,4,GR86-063-113,0.1,0.152,-0.165,99.98,4.0,,0.0,0.0,
2025-08-15T03:18:52.047Z,4,GR86-063-113,1.1,0.203,-0.146,99.99,4.0,6578.0,0.0,0.0,
2025-08-15T03:18:52.090Z,4,GR86-063-113,1.8,0.191,-0.153,100.0,4.0,,0.0,0.0,166.72
2025-08-15T03:18:52.134Z,4,GR86-063-113,1.8,0.106,-0.116,99.99,4.0,,0.0,0.0,
2025-08-15T03:18:52.177Z,4,GR86-063-113,1.4,0.134,-0.082,100.0,4.0,,0.0,0.0,
2025-08-15T03:18:52.220Z,4,GR86-063-113,0.7000000000000001,0.166,-0.083,100.0,4.0,,0.0,0.0,
2025-08-15T03:18:52.265Z,4,GR86-063-113,0.5,0.175,-0.081,99.99,4.0,6618.0,0.0,0.0,
2025-08-15T03:18:52.307Z,4,GR86-063-113,0.5,0.161,-0.084,100.0,4.0,,0.0,0.0,168.08
2025-08-15T03:18:52.350Z,4,GR86-063-113,0.5,0.176,-0.075,99.99,4.0,,0.0,0.0,
2025-08-15T03:18:52.394Z,4,GR86-063-113,0.9,0.126,-0.022,99.99,4.0,,0.0,0.0,
2025-08-15T03:18:52.436Z,4,GR86-063-113,0.9,0.144,-0.043,100.01,4.0,,0.0,0.0,
2025-08-15T03:18:52.480Z,4,GR86-063-113,0.8,0.132,-0.072,100.02,4.0,6668.0,0.0,0.0,
2025-08-15T03:18:52.526Z,4,GR86-063-113,0.8,0.14,-0.045,100.0,4.0,,0.0,0.0,169.04
2025-08-15T03:18:52.569Z,4,GR86-063-113,0.8,0.186,-0.092,100.0,4.0,,0.0,0.0,
2025-08-15T03:18:52.615Z,4,GR86-063-113,0.9,0.089,-0.076,100.02,4.0,,0.0,0.0,
2025-08-15T03:18:52.657Z,4,GR86-063-113,1.0,0.1,-0.101,99.99,4.0,,0.0,0.0,
2025-08-15T03:18:52.700Z,4,GR86-063-113,1.3,0.126,-0.075,100.02,4.0,6709.0,0.0,0.0,
2025-08-15T03:18:52.744Z,4,GR86-063-113,1.5,0.105,-0.056,100.01,4.0,,0.0,0.0,170.47
2025-08-15T03:18:52.786Z,4,GR86-063-113,1.8,0.125,-0.06,100.0,4.0,,0.0,0.0,
2025-08-15T03:18:52.829Z,4,GR86-063-113,2.5,0.11,0.005,99.99,4.0,,0.0,0.0,
2025-08-15T03:18:52.874Z,4,GR86-063-113,3.7,0.098,0.011,100.0,4.0,,0.0,0.0,
2025-08-15T03:18:52.917Z,4,GR86-063-113,4.2,0.113,0.031,100.0,4.0,6751.0,0.0,0.0,
2025-08-15T03:18:52.960Z,4,GR86-063-113,4.7,0.09,0.039,100.0,4.0,,0.0,0.0,171.74
2025-08-15T03:18:53.004Z,4,GR86-063-113,5.2,0.08,0.042,100.01,4.0,,0.0,0.0,
2025-08-15T03:18:53.047Z,4,GR86-063-113,5.5,0.098,0.049,100.03,4.0,,0.0,0.0,
2025-08-15T03:18:53.090Z,4,GR86-063-113,5.6000000000000005,0.103,0.059,99.99,4.0,,0.0,0.0,
2025-08-15T03:18:53.134Z,4,GR86-063-113,5.5,0.17,0.067,100.01,4.0,6796.0,0.0,0.0,
2025-08-15T03:18:53.177Z,4,GR86-063-113,5.6000000000000005,0.14,0.088,100.0,4.0,,0.0,0.0,172.78
2025-08-15T03:18:53.220Z,4,GR86-063-113,6.0,0.15,0.07,100.0,4.0,,0.0,0.0,
2025-08-15T03:18:53.264Z,4,GR86-063-113,6.2,0.138,0.092,99.98,4.0,,0.0,0.0,
2025-08-15T03:18:53.307Z,4,GR86-063-113,6.300000000000001,0.134,0.088,99.99,4.0,,0.0,0.0,
2025-08-15T03:18:53.350Z,4,GR86-063-113,6.300000000000001,0.117,0.117,99.98,4.0,6834.0,0.0,0.0,
2025-08-15T03:18:53.394Z,4,GR86-063-113,6.5,0.178,0.114,100.0,4.0,,0.0,0.0,174.08
2025-08-15T03:18:53.437Z,4,GR86-063-113,6.5,0.16,0.103,99.99,4.0,,0.0,0.0,
2025-08-15T03:18:53.480Z,4,GR86-063-113,6.300000000000001,0.169,0.091,99.99,4.0,,0.0,0.0,
2025-08-15T03:18:53.526Z,4,GR86-063-113,6.300000000000001,0.173,0.118,100.01,4.0,,0.0,0.0,
2025-08-15T03:18:53.568Z,4,GR86-063-113,6.300000000000001,0.193,0.104,100.01,4.0,6878.0,0.0,0.0,
2025-08-15T03:18:53.611Z,4,GR86-063-113,6.300000000000001,0.174,0.088,100.01,4.0,,0.0,0.0,175.08
2025-08-15T03:18:53.655Z,4,GR86-063-113,6.300000000000001,0.106,0.083,99.99,4.0,,0.0,0.0,
2025-08-15T03:18:53.697Z,4,GR86-063-113,6.300000000000001,0.113,0.073,99.98,4.0,,0.0,0.0,
2025-08-15T03:18:53.740Z,4,GR86-063-113,6.300000000000001,0.118,0.083,100.0,4.0,,0.0,0.0,
2025-08-15T03:18:53.784Z,4,GR86-063-113,6.300000000000001,0.122,0.099,100.0,4.0,6927.0,0.0,0.0,
2025-08-15T03:18:53.827Z,4,GR86-063-113,6.300000000000001,0.121,0.1,99.99,4.0,,0.0,0.0,177.28
2025-08-15T03:18:53.870Z,4,GR86-063-113,6.300000000000001,0.142,0.079,100.0,4.0,,0.0,0.0,
2025-08-15T03:18:53.915Z,4,GR86-063-113,6.300000000000001,0.148,0.064,100.02,4.0,,0.0,0.0,
2025-08-15T03:18:53.958Z,4,GR86-063-113,6.300000000000001,0.133,0.087,100.01,4.0,,0.0,0.0,
2025-08-15T03:18:54.001Z,4,GR86-063-113,6.300000000000001,0.142,0.098,100.02,4.0,6980.0,0.0,0.0,
2025-08-15T03:18:54.044Z,4,GR86-063-113,6.300000000000001,0.12,0.101,100.02,4.0,,0.0,0.0,178.48
2025-08-15T03:18:54.087Z,4,GR86-063-113,6.4,0.125,0.079,100.01,4.0,,0.0,0.0,
2025-08-15T03:18:54.130Z,4,GR86-063-113,6.6000000000000005,0.109,0.084,100.03,4.0,,0.0,0.0,
2025-08-15T03:18:54.174Z,4,GR86-063-113,6.6000000000000005,0.142,0.093,100.0,4.0,,0.0,0.0,
2025-08-15T03:18:54.217Z,4,GR86-063-113,6.6000000000000005,0.14,0.11,100.01,4.0,7060.0,0.0,0.0,
2025-08-15T03:18:54.260Z,4,GR86-063-113,6.7,0.151,0.139,100.01,4.0,,0.0,0.0,179.89
2025-08-15T03:18:54.304Z,4,GR86-063-113,6.9,0.176,0.111,100.01,4.0,,0.0,0.0,
2025-08-15T03:18:54.346Z,4,GR86-063-113,7.2,0.158,0.081,100.02,4.0,,0.0,0.0,
2025-08-15T03:18:54.389Z,4,GR86-063-113,7.2,0.142,0.084,100.01,4.0,,0.0,0.0,
2025-08-15T03:18:54.434Z,4,GR86-063-113,7.1000000000000005,0.097,0.118,100.01,4.0,7114.0,0.0,0.0,
2025-08-15T03:18:54.476Z,4,GR86-063-113,7.0,0.111,0.147,100.02,4.0,,0.0,0.0,180.98
2025-08-15T03:18:54.519Z,4,GR86-063-113,6.9,0.11,0.123,100.01,4.0,,0.0,0.0,
2025-08-15T03:18:54.564Z,4,GR86-063-113,6.9,0.109,0.118,100.0,4.0,,0.0,0.0,
2025-08-15T03:18:54.607Z,4,GR86-063-113,6.9,0.106,0.096,99.99,4.0,,0.0,0.0,
2025-08-15T03:18:54.650Z,4,GR86-063-113,6.9,0.12,0.101,100.0,4.0,7168.0,0.0,0.0,
2025-08-15T03:18:54.694Z,4,GR86-063-113,6.800000000000001,0.137,0.095,99.99,4.0,,0.0,0.0,182.04
2025-08-15T03:18:54.737Z,4,GR86-063-113,6.7,0.151,0.096,99.99,4.0,,0.0,0.0,
2025-08-15T03:18:54.780Z,4,GR86-063-113,6.7,0.152,0.095,99.99,4.0,,0.0,0.0,
2025-08-15T03:18:54.825Z,4,GR86-063-113,6.6000000000000005,0.135,0.069,100.0,4.0,,0.0,0.0,
2025-08-15T03:18:54.868Z,4,GR86-063-113,6.5,0.138,0.079,100.01,4.0,7201.0,0.0,0.0,
2025-08-15T03:18:54.911Z,4,GR86-063-113,6.5,0.13,0.085,99.99,4.0,,0.0,0.0,183.24
2025-08-15T03:18:54.954Z,4,GR86-063-113,6.4,0.108,0.057,99.99,4.0,,0.0,0.0,
2025-08-15T03:18:54.997Z,4,GR86-063-113,6.300000000000001,0.112,0.032,99.99,4.0,,0.0,0.0,
2025-08-15T03:18:55.040Z,4,GR86-063-113,6.300000000000001,0.103,0.032,100.0,4.0,,0.0,0.0,
2025-08-15T03:18:55.084Z,4,GR86-063-113,6.300000000000001,0.079,0.032,100.0,4.0,7254.0,0.0,0.0,
2025-08-15T03:18:55.127Z,4,GR86-063-113,6.2,-0.174,0.056,99.99,5.0,,0.0,0.0,184.35
2025-08-15T03:18:55.170Z,4,GR86-063-113,6.1000000000000005,0.022,0.058,100.0,5.0,,0.0,0.0,
2025-08-15T03:18:55.214Z,4,GR86-063-113,6.1000000000000005,0.239,-0.02,100.0,5.0,,0.0,0.0,
2025-08-15T03:18:55.257Z,4,GR86-063-113,5.800000000000001,-0.023,0.049,100.0,5.0,,0.0,0.0,
2025-08-15T03:18:55.300Z,4,GR86-063-113,5.1000000000000005,0.026,0.028,99.98,5.0,6558.0,0.0,0.0,
2025-08-15T03:18:55.344Z,4,GR86-063-113,5.0,0.184,0.008,99.99,5.0,,0.0,0.0,185.48
2025-08-15T03:18:55.386Z,4,GR86-063-113,5.0,0.13,0.049,99.99,5.0,,0.0,0.0,
2025-08-15T03:18:55.429Z,4,GR86-063-113,4.800000000000001,0.07,0.0,99.99,5.0,,0.0,0.0,
2025-08-15T03:18:55.474Z,4,GR86-063-113,3.7,0.151,-0.049,99.99,5.0,,0.0,0.0,
2025-08-15T03:18:55.517Z,4,GR86-063-113,2.5,0.119,-0.047,100.01,5.0,6303.0,0.0,0.0,
2025-08-15T03:18:55.560Z,4,GR86-063-113,2.0,0.116,-0.067,100.0,5.0,,0.0,0.0,186.36
2025-08-15T03:18:55.604Z,4,GR86-063-113,1.4,0.092,-0.087,100.01,5.0,,0.0,0.0,
2025-08-15T03:18:55.690Z,4,GR86-063-113,1.0,0.137,-0.093,99.99,5.0,,0.0,0.0,
2025-08-15T03:18:55.734Z,4,GR86-063-113,1.1,0.079,-0.1,99.99,5.0,6371.0,0.0,0.0,
2025-08-15T03:18:55.777Z,4,GR86-063-113,1.2000000000000002,0.085,-0.117,100.02,5.0,,0.0,0.0,187.41
2025-08-15T03:18:55.820Z,4,GR86-063-113,0.9,0.06,-0.128,100.0,5.0,,0.0,0.0,
2025-08-15T03:18:55.865Z,4,GR86-063-113,-0.3,0.096,-0.123,99.99,5.0,,0.0,0.0,
2025-08-15T03:18:55.907Z,4,GR86-063-113,-1.0,0.093,-0.164,100.0,5.0,,0.0,0.0,
2025-08-15T03:18:55.950Z,4,GR86-063-113,-0.9,0.051,-0.174,99.98,5.0,6412.0,0.0,0.0,
2025-08-15T03:18:55.994Z,4,GR86-063-113,-0.6000000000000001,0.069,-0.18,99.98,5.0,,0.0,0.0,188.25
2025-08-15T03:18:56.037Z,4,GR86-063-113,-0.8,0.061,-0.191,100.0,5.0,,0.0,0.0,
2025-08-15T03:18:56.080Z,4,GR86-063-113,-1.4,0.07,-0.171,99.98,5.0,,0.0,0.0,
2025-08-15T03:18:56.126Z,4,GR86-063-113,-1.7000000000000002,0.05,-0.186,99.99,5.0,,0.0,0.0,
2025-08-15T03:18:56.169Z,4,GR86-063-113,-2.3000000000000003,0.046,-0.194,100.0,5.0,6433.0,0.0,0.0,
2025-08-15T03:18:56.215Z,4,GR86-063-113,-6.2,0.158,-0.272,99.98,5.0,,0.0,0.0,190.1
2025-08-15T03:18:56.257Z,4,GR86-063-113,-10.3,0.021,-0.315,99.98,5.0,,0.0,0.0,
2025-08-15T03:18:56.300Z,4,GR86-063-113,-12.6,0.179,-0.281,100.0,5.0,,0.0,0.0,
2025-08-15T03:18:56.344Z,4,GR86-063-113,-13.2,-0.038,-0.358,100.0,5.0,,0.0,0.0,
2025-08-15T03:18:56.386Z,4,GR86-063-113,-12.6,0.203,-0.372,100.0,5.0,6487.0,0.0,0.0,
2025-08-15T03:18:56.429Z,4,GR86-063-113,-12.4,0.044,-0.414,99.99,5.0,,0.0,0.0,190.79
2025-08-15T03:18:56.474Z,4,GR86-063-113,-14.4,0.098,-0.5660000000000001,99.98,5.0,,0.0,0.0,
2025-08-15T03:18:56.517Z,4,GR86-063-113,-20.0,0.057,-0.773,99.99,5.0,,0.0,0.0,
2025-08-15T03:18:56.560Z,4,GR86-063-113,-26.9,0.129,-0.866,79.11,5.0,,0.0,0.0,
2025-08-15T03:18:56.604Z,4,GR86-063-113,-32.4,0.08,-0.8180000000000001,38.84,5.0,6526.0,0.0,0.0,
2025-08-15T03:18:56.646Z,4,GR86-063-113,-33.800000000000004,0.076,-0.838,35.18,5.0,,0.0,0.0,192.08
2025-08-15T03:18:56.689Z,4,GR86-063-113,-33.2,0.051,-0.861,34.71,5.0,,0.0,0.0,
2025-08-15T03:18:56.734Z,4,GR86-063-113,-32.6,-0.007,-0.93,33.46,5.0,,0.0,0.0,
2025-08-15T03:18:56.777Z,4,GR86-063-113,-33.2,-0.014,-1.053,31.89,5.0,,0.0,0.0,
2025-08-15T03:18:56.820Z,4,GR86-063-113,-34.0,-0.017,-1.054,31.23,5.0,6552.0,0.0,0.0,
2025-08-15T03:18:56.864Z,4,GR86-063-113,-33.7,0.01,-1.092,29.77,5.0,,0.0,0.0,192.24
2025-08-15T03:18:56.907Z,4,GR86-063-113,-31.9,-0.009,-1.207,26.6,5.0,,0.0,0.0,
2025-08-15T03:18:56.950Z,4,GR86-063-113,-27.8,-0.013,-1.223,25.58,5.0,,0.0,0.0,
2025-08-15T03:18:56.994Z,4,GR86-063-113,-22.0,-0.05,-1.216,24.87,5.0,,0.0,0.0,
2025-08-15T03:18:57.037Z,4,GR86-063-113,-21.3,-0.049,-1.174,23.24,5.0,6546.0,0.0,0.0,
2025-08-15T03:18:57.080Z,4,GR86-063-113,-22.1,-0.032,-1.076,23.21,5.0,,0.0,0.0,192.46
2025-08-15T03:18:57.125Z,4,GR86-063-113,-25.700000000000003,-0.046,-1.083,23.07,5.0,,0.0,0.0,
2025-08-15T03:18:57.168Z,4,GR86-063-113,-31.6,-0.052,-1.121,22.02,5.0,,0.0,0.0,
2025-08-15T03:18:57.211Z,4,GR86-063-113,-35.300000000000004,-0.049,-1.088,21.66,5.0,,0.0,0.0,
2025-08-15T03:18:57.254Z,4,GR86-063-113,-35.9,-0.102,-1.136,21.48,5.0,6508.0,0.0,0.0,
2025-08-15T03:18:57.297Z,4,GR86-063-113,-34.7,-0.123,-1.132,21.5,5.0,,0.0,0.0,192.0
2025-08-15T03:18:57.340Z,4,GR86-063-113,-32.1,-0.112,-1.195,21.46,5.0,,0.0,0.0,
2025-08-15T03:18:57.384Z,4,GR86-063-113,-27.5,-0.105,-1.219,21.4,5.0,,0.0,0.0,
2025-08-15T03:18:57.427Z,4,GR86-063-113,-22.4,-0.108,-1.128,21.56,5.0,,0.0,0.0,
2025-08-15T03:18:57.470Z,4,GR86-063-113,-19.6,-0.092,-1.121,21.76,5.0,6488.0,0.0,0.0,
2025-08-15T03:18:57.515Z,4,GR86-063-113,-19.0,-0.071,-1.106,22.21,5.0,,0.0,0.0,191.29
2025-08-15T03:18:57.558Z,4,GR86-063-113,-19.5,-0.097,-1.169,22.88,5.0,,0.0,0.0,
2025-08-15T03:18:57.601Z,4,GR86-063-113,-20.1,-0.1,-1.166,23.23,5.0,,0.0,0.0,
2025-08-15T03:18:57.644Z,4,GR86-063-113,-20.9,-0.093,-1.215,23.44,5.0,,0.0,0.0,
2025-08-15T03:18:57.687Z,4,GR86-063-113,-23.200000000000003,-0.099,-1.214,23.9,5.0,6462.0,0.0,0.0,
2025-08-15T03:18:57.730Z,4,GR86-063-113,-25.200000000000003,-0.061,-1.213,25.29,5.0,,0.0,0.0,190.5
2025-08-15T03:18:57.774Z,4,GR86-063-113,-25.3,-0.048,-1.2,27.81,5.0,,0.0,0.0,
2025-08-15T03:18:57.817Z,4,GR86-063-113,-24.9,-0.055,-1.17,31.43,5.0,,0.0,0.0,
2025-08-15T03:18:57.860Z,4,GR86-063-113,-24.700000000000003,-0.05,-1.158,32.03,5.0,,0.0,0.0,
2025-08-15T03:18:57.904Z,4,GR86-063-113,-24.8,-0.044,-1.165,32.52,5.0,6455.0,0.0,0.0,
2025-08-15T03:18:57.946Z,4,GR86-063-113,-26.1,-0.023,-1.184,33.12,5.0,,0.0,0.0,189.91
2025-08-15T03:18:57.989Z,4,GR86-063-113,-29.3,-0.015,-1.196,33.730000000000004,5.0,,0.0,0.0,
2025-08-15T03:18:58.034Z,4,GR86-063-113,-37.7,-0.017,-1.124,34.26,5.0,,0.0,0.0,
2025-08-15T03:18:58.077Z,4,GR86-063-113,-41.3,-0.034,-1.181,34.38,5.0,,0.0,0.0,
2025-08-15T03:18:58.120Z,4,GR86-063-113,-44.900000000000006,-0.021,-1.207,34.300000000000004,5.0,6469.0,0.0,0.0,
2025-08-15T03:18:58.164Z,4,GR86-063-113,-45.8,-0.07,-1.368,34.29,5.0,,0.0,0.0,189.32
2025-08-15T03:18:58.207Z,4,GR86-063-113,-44.400000000000006,-0.033,-1.089,34.95,5.0,,0.0,0.0,
2025-08-15T03:18:58.250Z,4,GR86-063-113,-37.0,-0.107,-1.12,37.18,5.0,,0.0,0.0,
2025-08-15T03:18:58.294Z,4,GR86-063-113,-21.4,-0.076,-0.991,40.7,5.0,,0.0,0.0,
2025-08-15T03:18:58.337Z,4,GR86-063-113,-11.6,0.03,-1.27,62.17,5.0,6463.0,0.0,0.0,
2025-08-15T03:18:58.380Z,4,GR86-063-113,-4.5,0.054,-1.077,98.7,5.0,,0.0,0.0,188.5
2025-08-15T03:18:58.425Z,4,GR86-063-113,-2.1,-0.014,-1.146,99.99,5.0,,0.0,0.0,
2025-08-15T03:18:58.468Z,4,GR86-063-113,-3.9,0.096,-1.059,100.0,5.0,,0.0,0.0,
2025-08-15T03:18:58.511Z,4,GR86-063-113,-6.800000000000001,0.128,-1.316,100.0,5.0,,0.0,0.0,
2025-08-15T03:18:58.554Z,4,GR86-063-113,-8.700000000000001,0.048,-1.169,99.99,5.0,6475.0,0.0,0.0,
2025-08-15T03:18:58.597Z,4,GR86-063-113,-9.6,0.057,-1.394,100.0,5.0,,0.0,0.0,188.0
2025-08-15T03:18:58.640Z,4,GR86-063-113,-14.4,0.077,-1.218,99.99,5.0,,0.0,0.0,
2025-08-15T03:18:58.684Z,4,GR86-063-113,-25.3,0.041,-1.281,100.01,5.0,,0.0,0.0,
2025-08-15T03:18:58.727Z,4,GR86-063-113,-40.0,0.112,-1.281,100.01,5.0,,0.0,0.0,
2025-08-15T03:18:58.770Z,4,GR86-063-113,-51.8,0.074,-1.273,100.01,5.0,6477.0,0.0,0.0,
2025-08-15T03:18:58.815Z,4,GR86-063-113,-57.7,-0.102,-1.57,99.98,5.0,,0.0,0.0,188.07
2025-08-15T03:18:58.857Z,4,GR86-063-113,-57.0,0.016,-1.401,99.99,5.0,,0.0,0.0,
2025-08-15T03:18:58.900Z,4,GR86-063-113,-56.6,0.016,-1.322,99.99,5.0,,0.0,0.0,
2025-08-15T03:18:58.944Z,4,GR86-063-113,-56.900000000000006,-0.027,-1.243,100.0,5.0,,0.0,0.0,
2025-08-15T03:18:58.986Z,4,GR86-063-113,-57.400000000000006,0.063,-1.325,100.01,5.0,6490.0,0.0,0.0,
2025-08-15T03:18:59.029Z,4,GR86-063-113,-57.1,0.029,-1.424,100.01,5.0,,0.0,0.0,187.77
2025-08-15T03:18:59.074Z,4,GR86-063-113,-52.0,0.011,-1.17,100.0,5.0,,0.0,0.0,
2025-08-15T03:18:59.117Z,4,GR86-063-113,-43.2,-0.004,-1.2,100.0,5.0,,0.0,0.0,
2025-08-15T03:18:59.160Z,4,GR86-063-113,-28.8,0.015,-1.208,100.0,5.0,,0.0,0.0,
2025-08-15T03:18:59.204Z,4,GR86-063-113,-21.4,0.08,-1.211,99.99,5.0,6518.0,0.0,0.0,
2025-08-15T03:18:59.247Z,4,GR86-063-113,-12.5,0.063,-1.123,100.01,5.0,,0.0,0.0,187.44
2025-08-15T03:18:59.290Z,4,GR86-063-113,-9.8,0.063,-0.991,100.01,5.0,,0.0,0.0,
2025-08-15T03:18:59.334Z,4,GR86-063-113,-7.6,0.056,-0.974,100.0,5.0,,0.0,0.0,
2025-08-15T03:18:59.377Z,4,GR86-063-113,-6.2,0.062,-1.051,100.02,5.0,,0.0,0.0,
2025-08-15T03:18:59.420Z,4,GR86-063-113,-4.7,0.059,-0.991,99.99,5.0,6540.0,0.0,0.0,
2025-08-15T03:18:59.465Z,4,GR86-063-113,-3.1,0.049,-1.027,100.03,5.0,,0.0,0.0,187.73
2025-08-15T03:18:59.507Z,4,GR86-063-113,-1.0,0.053,-1.045,100.0,5.0,,0.0,0.0,
2025-08-15T03:18:59.550Z,4,GR86-063-113,1.6,0.071,-1.058,100.0,5.0,,0.0,0.0,
2025-08-15T03:18:59.595Z,4,GR86-063-113,6.5,0.057,-1.133,100.01,5.0,,0.0,0.0,
2025-08-15T03:18:59.637Z,4,GR86-063-113,9.0,0.1,-1.069,100.01,5.0,6582.0,0.0,0.0,
2025-08-15T03:18:59.680Z,4,GR86-063-113,9.3,0.081,-1.163,100.01,5.0,,0.0,0.0,187.99
2025-08-15T03:18:59.726Z,4,GR86-063-113,6.4,0.118,-1.111,100.01,5.0,,0.0,0.0,
2025-08-15T03:18:59.768Z,4,GR86-063-113,-8.0,0.057,-1.094,100.01,5.0,,0.0,0.0,
2025-08-15T03:18:59.811Z,4,GR86-063-113,-16.8,0.074,-1.087,100.0,5.0,,0.0,0.0,
2025-08-15T03:18:59.854Z,4,GR86-063-113,-30.0,0.121,-1.127,100.01,5.0,6493.0,0.0,0.0,
2025-08-15T03:18:59.897Z,4,GR86-063-113,-33.0,0.073,-1.135,100.02,5.0,,0.0,0.0,188.84
2025-08-15T03:18:59.940Z,4,GR86-063-113,-32.1,0.065,-1.027,100.0,5.0,,0.0,0.0,
2025-08-15T03:18:59.984Z,4,GR86-063-113,-30.0,0.079,-0.923,100.01,5.0,,0.0,0.0,
2025-08-15T03:19:00.026Z,4,GR86-063-113,-26.6,0.067,-1.0,100.01,5.0,,0.0,0.0,
2025-08-15T03:19:00.069Z,4,GR86-063-113,-22.6,0.076,-0.964,100.01,5.0,6501.0,0.0,0.0,
2025-08-15T03:19:00.115Z,4,GR86-063-113,-19.8,0.112,-0.966,100.01,5.0,,0.0,0.0,188.92
2025-08-15T03:19:00.157Z,4,GR86-063-113,-19.0,0.067,-0.971,100.01,5.0,,0.0,0.0,
2025-08-15T03:19:00.200Z,4,GR86-063-113,-18.8,0.11,-1.062,100.0,5.0,,0.0,0.0,
2025-08-15T03:19:00.244Z,4,GR86-063-113,-18.9,0.109,-1.054,100.02,5.0,,0.0,0.0,
2025-08-15T03:19:00.286Z,4,GR86-063-113,-18.7,0.093,-0.966,99.99,5.0,6496.0,0.0,0.0,
2025-08-15T03:19:00.329Z,4,GR86-063-113,-18.5,0.082,-0.959,100.02,5.0,,0.0,0.0,189.73
2025-08-15T03:19:00.374Z,4,GR86-063-113,-18.2,0.073,-0.852,100.03,5.0,,0.0,0.0,
2025-08-15T03:19:00.417Z,4,GR86-063-113,-17.8,0.086,-0.718,100.01,5.0,,0.0,0.0,
2025-08-15T03:19:00.460Z,4,GR86-063-113,-16.5,0.076,-0.746,100.01,5.0,,0.0,0.0,
2025-08-15T03:19:00.504Z,4,GR86-063-113,-15.2,0.134,-0.622,100.02,5.0,6495.0,0.0,0.0,
2025-08-15T03:19:00.546Z,4,GR86-063-113,-15.1,0.037,-0.681,100.0,5.0,,0.0,0.0,190.53
2025-08-15T03:19:00.589Z,4,GR86-063-113,-14.8,0.116,-0.625,99.99,5.0,,0.0,0.0,
2025-08-15T03:19:00.634Z,4,GR86-063-113,-14.6,0.104,-0.583,100.01,5.0,,0.0,0.0,
2025-08-15T03:19:00.677Z,4,GR86-063-113,-14.4,0.074,-0.612,100.01,5.0,,0.0,0.0,
2025-08-15T03:19:00.720Z,4,GR86-063-113,-14.0,0.065,-0.613,100.02,5.0,6533.0,0.0,0.0,
2025-08-15T03:19:00.764Z,4,GR86-063-113,-13.8,0.121,-0.516,100.01,5.0,,0.0,0.0,190.9
2025-08-15T03:19:00.806Z,4,GR86-063-113,-13.3,0.006,-0.562,99.99,5.0,,0.0,0.0,
2025-08-15T03:19:00.849Z,4,GR86-063-113,-12.2,0.089,-0.54,100.02,5.0,,0.0,0.0,
2025-08-15T03:19:00.894Z,4,GR86-063-113,-9.6,0.104,-0.666,100.0,5.0,,0.0,0.0,
2025-08-15T03:19:00.980Z,4,GR86-063-113,-9.3,0.035,-0.614,100.02,5.0,6539.0,0.0,0.0,191.69
2025-08-15T03:19:01.026Z,4,GR86-063-113,-10.2,0.072,-0.583,100.01,5.0,,0.0,0.0,
2025-08-15T03:19:01.068Z,4,GR86-063-113,-10.4,0.057,-0.538,100.02,5.0,,0.0,0.0,
2025-08-15T03:19:01.111Z,4,GR86-063-113,-10.5,0.092,-0.542,100.02,5.0,,0.0,0.0,
2025-08-15T03:19:01.154Z,4,GR86-063-113,-11.1,0.015,-0.37,100.01,5.0,6544.0,0.0,0.0,
2025-08-15T03:19:01.197Z,4,GR86-063-113,-10.8,0.057,-0.266,100.01,5.0,,0.0,0.0,192.26
2025-08-15T03:19:01.240Z,4,GR86-063-113,-8.9,0.08,-0.314,100.02,5.0,,0.0,0.0,
2025-08-15T03:19:01.284Z,4,GR86-063-113,-4.800000000000001,0.165,-0.34,100.02,5.0,,0.0,0.0,
2025-08-15T03:19:01.327Z,4,GR86-063-113,-3.2,0.102,-0.442,100.0,5.0,,0.0,0.0,
2025-08-15T03:19:01.370Z,4,GR86-063-113,-3.8,0.11,-0.489,100.0,5.0,6573.0,0.0,0.0,
2025-08-15T03:19:01.415Z,4,GR86-063-113,-8.6,0.081,-0.498,100.02,5.0,,0.0,0.0,193.66
2025-08-15T03:19:01.458Z,4,GR86-063-113,-9.6,0.089,-0.383,100.02,5.0,,0.0,0.0,
2025-08-15T03:19:01.501Z,4,GR86-063-113,-9.4,0.087,-0.371,100.01,5.0,,0.0,0.0,
2025-08-15T03:19:01.544Z,4,GR86-063-113,-8.5,0.077,-0.359,100.01,5.0,,0.0,0.0,
2025-08-15T03:19:01.587Z,4,GR86-063-113,-5.5,0.103,-0.33,100.0,5.0,6594.0,0.0,0.0,
2025-08-15T03:19:01.630Z,4,GR86-063-113,-2.7,0.143,-0.341,100.02,5.0,,0.0,0.0,194.07
2025-08-15T03:19:01.674Z,4,GR86-063-113,-0.2,0.082,-0.334,100.03,5.0,,0.0,0.0,
2025-08-15T03:19:01.717Z,4,GR86-063-113,0.2,0.084,-0.326,100.0,5.0,,0.0,0.0,
2025-08-15T03:19:01.760Z,4,GR86-063-113,0.1,0.111,-0.305,100.0,5.0,,0.0,0.0,
2025-08-15T03:19:01.804Z,4,GR86-063-113,-0.5,0.108,-0.321,100.01,5.0,6634.0,0.0,0.0,
2025-08-15T03:19:01.846Z,4,GR86-063-113,-1.1,0.094,-0.291,100.02,5.0,,0.0,0.0,194.97
2025-08-15T03:19:01.889Z,4,GR86-063-113,-2.2,0.081,-0.255,100.02,5.0,,0.0,0.0,
2025-08-15T03:19:01.933Z,4,GR86-063-113,-2.5,0.052,-0.177,100.0,5.0,,0.0,0.0,
2025-08-15T03:19:01.977Z,4,GR86-063-113,-2.3000000000000003,0.104,-0.198,100.02,5.0,,0.0,0.0,
2025-08-15T03:19:02.020Z,4,GR86-063-113,-2.1,0.098,-0.197,100.03,5.0,6650.0,0.0,0.0,
2025-08-15T03:19:02.064Z,4,GR86-063-113,-1.9,0.1,-0.202,100.03,5.0,,0.0,0.0,195.74
2025-08-15T03:19:02.107Z,4,GR86-063-113,-1.9,0.13,-0.184,100.01,5.0,,0.0,0.0,
2025-08-15T03:19:02.150Z,4,GR86-063-113,-1.8,0.108,-0.213,100.0,5.0,,0.0,0.0,
2025-08-15T03:19:02.194Z,4,GR86-063-113,-1.6,0.07,-0.198,100.02,5.0,,0.0,0.0,
2025-08-15T03:19:02.237Z,4,GR86-063-113,-1.3,0.098,-0.201,100.02,5.0,6678.0,0.0,0.0,
2025-08-15T03:19:02.280Z,4,GR86-063-113,-0.8,0.122,-0.181,100.02,5.0,,0.0,0.0,196.21
2025-08-15T03:19:02.325Z,4,GR86-063-113,-0.2,0.119,-0.188,100.02,5.0,,0.0,0.0,
2025-08-15T03:19:02.368Z,4,GR86-063-113,0.2,0.119,-0.183,100.01,5.0,,0.0,0.0,
2025-08-15T03:19:02.411Z,4,GR86-063-113,0.2,0.111,-0.149,100.03,5.0,,0.0,0.0,
2025-08-15T03:19:02.454Z,4,GR86-063-113,0.2,0.085,-0.114,100.0,5.0,6708.0,0.0,0.0,
2025-08-15T03:19:02.497Z,4,GR86-063-113,0.3,0.1,-0.114,100.01,5.0,,0.0,0.0,196.92
2025-08-15T03:19:02.540Z,4,GR86-063-113,0.6000000000000001,0.107,-0.114,100.02,5.0,,0.0,0.0,
2025-08-15T03:19:02.584Z,4,GR86-063-113,1.3,0.09,-0.078,100.01,5.0,,0.0,0.0,
2025-08-15T03:19:02.627Z,4,GR86-063-113,1.5,0.107,-0.094,100.01,5.0,,0.0,0.0,
2025-08-15T03:19:02.670Z,4,GR86-063-113,1.6,0.103,-0.032,100.02,5.0,6724.0,0.0,0.0,
2025-08-15T03:19:02.714Z,4,GR86-063-113,1.5,0.064,-0.063,100.01,5.0,,0.0,0.0,197.67
2025-08-15T03:19:02.757Z,4,GR86-063-113,1.6,0.096,-0.022,99.99,5.0,,0.0,0.0,
2025-08-15T03:19:02.800Z,4,GR86-063-113,1.5,0.092,-0.036,99.98,5.0,,0.0,0.0,
2025-08-15T03:19:02.844Z,4,GR86-063-113,1.4,0.11,-0.021,100.0,5.0,,0.0,0.0,
2025-08-15T03:19:02.886Z,4,GR86-063-113,1.4,0.064,-0.021,100.01,5.0,6753.0,0.0,0.0,
2025-08-15T03:19:02.929Z,4,GR86-063-113,1.5,0.108,-0.047,99.99,5.0,,0.0,0.0,198.43
2025-08-15T03:19:02.974Z,4,GR86-063-113,2.1,0.071,-0.058,100.02,5.0,,0.0,0.0,
2025-08-15T03:19:03.017Z,4,GR86-063-113,2.3000000000000003,0.115,-0.036,100.02,5.0,,0.0,0.0,
2025-08-15T03:19:03.060Z,4,GR86-063-113,2.3000000000000003,0.1,-0.069,100.0,5.0,,0.0,0.0,
2025-08-15T03:19:03.104Z,4,GR86-063-113,2.3000000000000003,0.071,0.002,100.01,5.0,6767.0,0.0,0.0,
2025-08-15T03:19:03.147Z,4,GR86-063-113,2.5,0.141,0.024,100.02,5.0,,0.0,0.0,199.16
2025-08-15T03:19:03.190Z,4,GR86-063-113,3.4000000000000004,0.065,0.041,100.02,5.0,,0.0,0.0,
2025-08-15T03:19:03.234Z,4,GR86-063-113,4.6000000000000005,0.123,-0.011,100.01,5.0,,0.0,0.0,
2025-08-15T03:19:03.277Z,4,GR86-063-113,4.7,0.106,0.021,100.03,5.0,,0.0,0.0,
2025-08-15T03:19:03.320Z,4,GR86-063-113,4.3,0.124,0.033,100.02,5.0,6789.0,0.0,0.0,
2025-08-15T03:19:03.365Z,4,GR86-063-113,4.2,0.111,0.045,99.99,5.0,,0.0,0.0,199.85
2025-08-15T03:19:03.407Z,4,GR86-063-113,4.2,0.103,0.052,99.99,5.0,,0.0,0.0,
2025-08-15T03:19:03.450Z,4,GR86-063-113,4.2,0.074,0.043,100.0,5.0,,0.0,0.0,
2025-08-15T03:19:03.494Z,4,GR86-063-113,4.2,0.116,0.067,100.02,5.0,,0.0,0.0,
2025-08-15T03:19:03.537Z,4,GR86-063-113,4.1000000000000005,0.104,0.03,100.01,5.0,6827.0,0.0,0.0,
2025-08-15T03:19:03.580Z,4,GR86-063-113,3.9,0.078,-0.008,99.99,5.0,,0.0,0.0,200.38
2025-08-15T03:19:03.626Z,4,GR86-063-113,3.7,0.068,0.013,100.0,5.0,,0.0,0.0,
2025-08-15T03:19:03.668Z,4,GR86-063-113,3.7,0.069,-0.004,99.99,5.0,,0.0,0.0,
2025-08-15T03:19:03.754Z,4,GR86-063-113,3.7,0.106,-0.005,100.01,5.0,6858.0,0.0,0.0,
2025-08-15T03:19:03.797Z,4,GR86-063-113,3.7,0.054,-0.003,99.99,5.0,,0.0,0.0,200.99
2025-08-15T03:19:03.840Z,4,GR86-063-113,4.0,0.057,-0.003,100.01,5.0,,0.0,0.0,
2025-08-15T03:19:03.884Z,4,GR86-063-113,4.5,0.068,0.001,100.0,5.0,,0.0,0.0,
2025-08-15T03:19:03.926Z,4,GR86-063-113,4.9,0.069,-0.02,100.0,5.0,,0.0,0.0,
2025-08-15T03:19:03.969Z,4,GR86-063-113,5.1000000000000005,0.087,0.01,99.99,5.0,6863.0,0.0,0.0,
2025-08-15T03:19:04.014Z,4,GR86-063-113,5.4,0.09,0.06,100.0,5.0,,0.0,0.0,202.68
2025-08-15T03:19:04.057Z,4,GR86-063-113,6.2,0.065,0.055,99.98,5.0,,0.0,0.0,
2025-08-15T03:19:04.100Z,4,GR86-063-113,8.0,0.063,0.099,99.98,5.0,,0.0,0.0,
2025-08-15T03:19:04.144Z,4,GR86-063-113,9.7,0.108,0.122,100.01,5.0,,0.0,0.0,
2025-08-15T03:19:04.186Z,4,GR86-063-113,10.6,0.102,0.155,100.01,5.0,6888.0,0.0,0.0,
2025-08-15T03:19:04.229Z,4,GR86-063-113,11.0,0.096,0.164,99.99,5.0,,0.0,0.0,203.37
2025-08-15T03:19:04.274Z,4,GR86-063-113,11.2,0.062,0.216,100.0,5.0,,0.0,0.0,
2025-08-15T03:19:04.317Z,4,GR86-063-113,11.5,0.111,0.249,100.0,5.0,,0.0,0.0,
2025-08-15T03:19:04.360Z,4,GR86-063-113,12.2,0.127,0.282,99.99,5.0,,0.0,0.0,
2025-08-15T03:19:04.404Z,4,GR86-063-113,12.9,0.088,0.309,100.01,5.0,6910.0,0.0,0.0,
2025-08-15T03:19:04.446Z,4,GR86-063-113,13.7,0.081,0.337,100.01,5.0,,0.0,0.0,204.21
2025-08-15T03:19:04.489Z,4,GR86-063-113,14.3,0.08,0.389,99.99,5.0,,0.0,0.0,
2025-08-15T03:19:04.534Z,4,GR86-063-113,15.5,0.122,0.349,100.01,5.0,,0.0,0.0,
2025-08-15T03:19:04.577Z,4,GR86-063-113,16.5,0.069,0.39,99.99,5.0,,0.0,0.0,
2025-08-15T03:19:04.620Z,4,GR86-063-113,17.8,0.081,0.429,100.02,5.0,6964.0,0.0,0.0,
2025-08-15T03:19:04.664Z,4,GR86-063-113,18.6,0.057,0.443,100.01,5.0,,0.0,0.0,204.93
2025-08-15T03:19:04.707Z,4,GR86-063-113,18.9,0.056,0.562,99.99,5.0,,0.0,0.0,
2025-08-15T03:19:04.750Z,4,GR86-063-113,18.8,0.078,0.517,100.01,5.0,,0.0,0.0,
2025-08-15T03:19:04.794Z,4,GR86-063-113,18.7,0.066,0.542,100.02,5.0,,0.0,0.0,
2025-08-15T03:19:04.837Z,4,GR86-063-113,18.7,0.085,0.494,100.01,5.0,6995.0,0.0,0.0,
2025-08-15T03:19:04.880Z,4,GR86-063-113,18.7,0.046,0.559,100.0,5.0,,0.0,0.0,205.55
2025-08-15T03:19:04.926Z,4,GR86-063-113,18.7,0.089,0.586,100.03,5.0,,0.0,0.0,
2025-08-15T03:19:04.968Z,4,GR86-063-113,18.7,0.092,0.5650000000000001,100.01,5.0,,0.0,0.0,
2025-08-15T03:19:05.011Z,4,GR86-063-113,18.7,0.103,0.561,100.0,5.0,,0.0,0.0,
2025-08-15T03:19:05.054Z,4,GR86-063-113,18.7,0.113,0.507,99.99,5.0,7005.0,0.0,0.0,
2025-08-15T03:19:05.097Z,4,GR86-063-113,18.7,0.096,0.47,100.02,5.0,,0.0,0.0,206.3
2025-08-15T03:19:05.140Z,4,GR86-063-113,19.0,0.107,0.449,100.01,5.0,,0.0,0.0,
2025-08-15T03:19:05.184Z,4,GR86-063-113,19.1,0.088,0.498,100.01,5.0,,0.0,0.0,
2025-08-15T03:19:05.227Z,4,GR86-063-113,19.0,0.073,0.518,100.03,5.0,,0.0,0.0,
2025-08-15T03:19:05.270Z,4,GR86-063-113,19.0,0.061,0.53,100.02,5.0,7028.0,0.0,0.0,
2025-08-15T03:19:05.315Z,4,GR86-063-113,19.0,0.078,0.5730000000000001,99.99,5.0,,0.0,0.0,206.63
2025-08-15T03:19:05.358Z,4,GR86-063-113,19.0,0.091,0.525,100.01,5.0,,0.0,0.0,
2025-08-15T03:19:05.401Z,4,GR86-063-113,19.0,0.063,0.537,99.98,5.0,,0.0,0.0,
2025-08-15T03:19:05.444Z,4,GR86-063-113,18.8,0.07,0.5720000000000001,100.0,5.0,,0.0,0.0,
2025-08-15T03:19:05.487Z,4,GR86-063-113,18.2,0.131,0.54,100.0,5.0,7053.0,0.0,0.0,
2025-08-15T03:19:05.530Z,4,GR86-063-113,18.1,0.082,0.5760000000000001,99.99,5.0,,0.0,0.0,207.34
2025-08-15T03:19:05.574Z,4,GR86-063-113,18.1,0.059,0.488,100.0,5.0,,0.0,0.0,
2025-08-15T03:19:05.617Z,4,GR86-063-113,18.0,0.093,0.468,100.01,5.0,,0.0,0.0,
2025-08-15T03:19:05.660Z,4,GR86-063-113,17.8,0.108,0.407,99.99,5.0,,0.0,0.0,
2025-08-15T03:19:05.704Z,4,GR86-063-113,17.5,0.089,0.393,100.0,5.0,7065.0,0.0,0.0,
2025-08-15T03:19:05.746Z,4,GR86-063-113,17.2,0.083,0.391,99.98,5.0,,0.0,0.0,207.96
2025-08-15T03:19:05.789Z,4,GR86-063-113,16.900000000000002,0.075,0.393,100.02,5.0,,0.0,0.0,
2025-08-15T03:19:05.834Z,4,GR86-063-113,16.900000000000002,0.11,0.391,100.0,5.0,,0.0,0.0,
2025-08-15T03:19:05.877Z,4,GR86-063-113,16.900000000000002,0.087,0.378,99.99,5.0,,0.0,0.0,
2025-08-15T03:19:05.920Z,4,GR86-063-113,17.1,0.088,0.383,100.01,5.0,7087.0,0.0,0.0,
2025-08-15T03:19:05.964Z,4,GR86-063-113,17.5,0.052,0.399,99.98,5.0,,0.0,0.0,208.33
2025-08-15T03:19:06.007Z,4,GR86-063-113,17.8,0.101,0.415,100.01,5.0,,0.0,0.0,
2025-08-15T03:19:06.050Z,4,GR86-063-113,17.8,0.075,0.482,100.02,5.0,,0.0,0.0,
2025-08-15T03:19:06.094Z,4,GR86-063-113,17.8,0.075,0.49,99.99,5.0,,0.0,0.0,
2025-08-15T03:19:06.180Z,4,GR86-063-113,17.8,0.085,0.528,100.0,5.0,7121.0,0.0,0.0,208.89
2025-08-15T03:19:06.225Z,4,GR86-063-113,17.8,0.086,0.526,100.01,5.0,,0.0,0.0,
2025-08-15T03:19:06.268Z,4,GR86-063-113,17.900000000000002,0.1,0.56,100.02,5.0,,0.0,0.0,
2025-08-15T03:19:06.311Z,4,GR86-063-113,18.1,0.078,0.577,100.01,5.0,,0.0,0.0,
2025-08-15T03:19:06.354Z,4,GR86-063-113,18.7,0.085,0.544,100.01,5.0,7130.0,0.0,0.0,
2025-08-15T03:19:06.397Z,4,GR86-063-113,18.7,0.092,0.53,100.03,5.0,,0.0,0.0,209.39
2025-08-15T03:19:06.440Z,4,GR86-063-113,18.5,0.072,0.541,100.0,5.0,,0.0,0.0,
2025-08-15T03:19:06.484Z,4,GR86-063-113,18.1,0.088,0.559,100.0,5.0,,0.0,0.0,
2025-08-15T03:19:06.527Z,4,GR86-063-113,17.900000000000002,0.075,0.527,100.0,5.0,,0.0,0.0,
2025-08-15T03:19:06.570Z,4,GR86-063-113,17.900000000000002,0.086,0.52,100.01,5.0,7139.0,0.0,0.0,
2025-08-15T03:19:06.615Z,4,GR86-063-113,17.8,0.089,0.482,99.99,5.0,,0.0,0.0,210.79
2025-08-15T03:19:06.657Z,4,GR86-063-113,17.6,0.076,0.436,100.0,5.0,,0.0,0.0,
2025-08-15T03:19:06.700Z,4,GR86-063-113,17.0,0.073,0.41,100.01,5.0,,0.0,0.0,
2025-08-15T03:19:06.744Z,4,GR86-063-113,16.6,0.074,0.41,100.0,5.0,,0.0,0.0,
2025-08-15T03:19:06.786Z,4,GR86-063-113,16.5,0.068,0.42,100.02,5.0,7159.0,0.0,0.0,
2025-08-15T03:19:06.829Z,4,GR86-063-113,16.5,0.076,0.42,99.99,5.0,,0.0,0.0,211.27
2025-08-15T03:19:06.874Z,4,GR86-063-113,16.5,0.075,0.467,100.03,5.0,,0.0,0.0,
2025-08-15T03:19:06.917Z,4,GR86-063-113,16.5,0.084,0.422,99.98,5.0,,0.0,0.0,
2025-08-15T03:19:06.960Z,4,GR86-063-113,16.8,0.056,0.39,100.01,5.0,,0.0,0.0,
2025-08-15T03:19:07.004Z,4,GR86-063-113,16.8,0.088,0.418,99.99,5.0,7185.0,0.0,0.0,
2025-08-15T03:19:07.047Z,4,GR86-063-113,16.2,0.043,0.434,100.02,5.0,,0.0,0.0,211.85
2025-08-15T03:19:07.090Z,4,GR86-063-113,15.1,0.043,0.413,100.03,5.0,,0.0,0.0,
2025-08-15T03:19:07.134Z,4,GR86-063-113,14.3,0.081,0.403,100.01,5.0,,0.0,0.0,
2025-08-15T03:19:07.177Z,4,GR86-063-113,14.3,0.058,0.427,100.02,5.0,,0.0,0.0,
2025-08-15T03:19:07.220Z,4,GR86-063-113,14.3,0.079,0.392,100.0,5.0,7212.0,0.0,0.0,
2025-08-15T03:19:07.265Z,4,GR86-063-113,14.2,0.071,0.345,100.0,5.0,,0.0,0.0,212.33
2025-08-15T03:19:07.307Z,4,GR86-063-113,14.1,0.081,0.329,99.99,5.0,,0.0,0.0,
2025-08-15T03:19:07.350Z,4,GR86-063-113,14.1,0.099,0.344,100.02,5.0,,0.0,0.0,
2025-08-15T03:19:07.394Z,4,GR86-063-113,14.1,0.083,0.307,100.0,5.0,,0.0,0.0,
2025-08-15T03:19:07.437Z,4,GR86-063-113,14.3,0.079,0.289,100.01,5.0,7233.0,0.0,0.0,
2025-08-15T03:19:07.480Z,4,GR86-063-113,14.3,0.057,0.296,99.98,5.0,,0.0,0.0,212.86
2025-08-15T03:19:07.526Z,4,GR86-063-113,14.3,0.038,0.347,99.99,5.0,,0.0,0.0,
2025-08-15T03:19:07.569Z,4,GR86-063-113,14.4,0.053,0.35,99.99,5.0,,0.0,0.0,
2025-08-15T03:19:07.615Z,4,GR86-063-113,14.7,-0.108,0.399,99.97,6.0,,0.0,0.0,
2025-08-15T03:19:07.657Z,4,GR86-063-113,14.8,-0.098,0.423,99.99,6.0,7226.0,0.0,0.0,
2025-08-15T03:19:07.700Z,4,GR86-063-113,14.8,0.285,0.359,99.99,6.0,,0.0,0.0,213.4
2025-08-15T03:19:07.744Z,4,GR86-063-113,14.7,0.052,0.353,100.01,6.0,,0.0,0.0,
2025-08-15T03:19:07.787Z,4,GR86-063-113,14.6,-0.052,0.429,99.99,6.0,,0.0,0.0,
2025-08-15T03:19:07.830Z,4,GR86-063-113,14.6,0.067,0.379,100.0,6.0,,0.0,0.0,
2025-08-15T03:19:07.874Z,4,GR86-063-113,14.6,0.09,0.437,99.99,6.0,6572.0,0.0,0.0,
2025-08-15T03:19:07.917Z,4,GR86-063-113,14.5,0.014,0.434,100.0,6.0,,0.0,0.0,213.69
2025-08-15T03:19:07.960Z,4,GR86-063-113,14.5,0.063,0.373,99.99,6.0,,0.0,0.0,
2025-08-15T03:19:08.004Z,4,GR86-063-113,14.8,0.063,0.399,99.99,6.0,,0.0,0.0,
2025-08-15T03:19:08.047Z,4,GR86-063-113,15.2,0.05,0.367,99.99,6.0,,0.0,0.0,
2025-08-15T03:19:08.090Z,4,GR86-063-113,15.4,0.051,0.351,100.0,6.0,6563.0,0.0,0.0,
2025-08-15T03:19:08.134Z,4,GR86-063-113,15.4,0.044,0.389,99.99,6.0,,0.0,0.0,214.27
2025-08-15T03:19:08.177Z,4,GR86-063-113,15.3,0.071,0.378,99.99,6.0,,0.0,0.0,
2025-08-15T03:19:08.220Z,4,GR86-063-113,15.3,0.052,0.356,99.99,6.0,,0.0,0.0,
2025-08-15T03:19:08.264Z,4,GR86-063-113,15.1,0.058,0.38,99.99,6.0,,0.0,0.0,
2025-08-15T03:19:08.307Z,4,GR86-063-113,15.1,0.027,0.38,100.0,6.0,6560.0,0.0,0.0,
2025-08-15T03:19:08.350Z,4,GR86-063-113,15.1,0.037,0.399,99.99,6.0,,0.0,0.0,214.6
2025-08-15T03:19:08.394Z,4,GR86-063-113,15.1,0.064,0.4,100.0,6.0,,0.0,0.0,
2025-08-15T03:19:08.437Z,4,GR86-063-113,15.1,0.03,0.377,99.98,6.0,,0.0,0.0,
2025-08-15T03:19:08.480Z,4,GR86-063-113,15.1,0.047,0.366,99.98,6.0,,0.0,0.0,
2025-08-15T03:19:08.526Z,4,GR86-063-113,15.1,0.08,0.382,99.98,6.0,6572.0,0.0,0.0,
2025-08-15T03:19:08.568Z,4,GR86-063-113,15.1,0.07,0.37,100.0,6.0,,0.0,0.0,214.83
2025-08-15T03:19:08.611Z,4,GR86-063-113,15.1,0.064,0.378,99.99,6.0,,0.0,0.0,
2025-08-15T03:19:08.654Z,4,GR86-063-113,15.1,0.054,0.377,100.0,6.0,,0.0,0.0,
2025-08-15T03:19:08.697Z,4,GR86-063-113,15.0,0.066,0.396,99.99,6.0,,0.0,0.0,
2025-08-15T03:19:08.740Z,4,GR86-063-113,14.9,0.023,0.416,99.99,6.0,6587.0,0.0,0.0,
2025-08-15T03:19:08.784Z,4,GR86-063-113,14.9,0.04,0.406,99.99,6.0,,0.0,0.0,214.92
2025-08-15T03:19:08.827Z,4,GR86-063-113,14.9,0.05,0.406,99.99,6.0,,0.0,0.0,
2025-08-15T03:19:08.870Z,4,GR86-063-113,14.8,0.064,0.41,100.0,6.0,,0.0,0.0,
2025-08-15T03:19:08.915Z,4,GR86-063-113,14.9,0.055,0.408,99.99,6.0,,0.0,0.0,
2025-08-15T03:19:08.958Z,4,GR86-063-113,14.8,0.064,0.387,100.0,6.0,6597.0,0.0,0.0,
2025-08-15T03:19:09.001Z,4,GR86-063-113,14.9,0.075,0.368,99.99,6.0,,0.0,0.0,215.5
2025-08-15T03:19:09.044Z,4,GR86-063-113,15.1,0.061,0.386,99.99,6.0,,0.0,0.0,
2025-08-15T03:19:09.087Z,4,GR86-063-113,15.3,0.039,0.406,99.99,6.0,,0.0,0.0,
2025-08-15T03:19:09.130Z,4,GR86-063-113,15.3,0.036,0.401,99.98,6.0,,0.0,0.0,
2025-08-15T03:19:09.174Z,4,GR86-063-113,15.3,0.024,0.445,99.99,6.0,6605.0,0.0,0.0,
2025-08-15T03:19:09.217Z,4,GR86-063-113,15.4,0.045,0.439,99.98,6.0,,0.0,0.0,216.29
2025-08-15T03:19:09.260Z,4,GR86-063-113,15.4,0.052,0.45,99.98,6.0,,0.0,0.0,
2025-08-15T03:19:09.304Z,4,GR86-063-113,15.3,0.098,0.463,99.99,6.0,,0.0,0.0,
2025-08-15T03:19:09.346Z,4,GR86-063-113,15.3,0.044,0.47,99.99,6.0,,0.0,0.0,
2025-08-15T03:19:09.389Z,4,GR86-063-113,15.3,0.048,0.511,99.98,6.0,6623.0,0.0,0.0,
2025-08-15T03:19:09.433Z,4,GR86-063-113,15.3,0.05,0.466,99.99,6.0,,0.0,0.0,216.8
2025-08-15T03:19:09.477Z,4,GR86-063-113,15.5,0.067,0.438,100.0,6.0,,0.0,0.0,
2025-08-15T03:19:09.520Z,4,GR86-063-113,17.5,0.014,0.353,99.99,6.0,,0.0,0.0,
2025-08-15T03:19:09.564Z,4,GR86-063-113,19.8,0.042,0.415,99.99,6.0,,0.0,0.0,
2025-08-15T03:19:09.607Z,4,GR86-063-113,20.700000000000003,0.071,0.425,99.97,6.0,6631.0,0.0,0.0,
2025-08-15T03:19:09.650Z,4,GR86-063-113,20.9,0.07,0.472,99.99,6.0,,0.0,0.0,217.06
2025-08-15T03:19:09.694Z,4,GR86-063-113,20.9,0.058,0.488,99.99,6.0,,0.0,0.0,
2025-08-15T03:19:09.737Z,4,GR86-063-113,20.9,0.059,0.582,99.99,6.0,,0.0,0.0,
2025-08-15T03:19:09.780Z,4,GR86-063-113,20.8,0.043,0.627,99.99,6.0,,0.0,0.0,
2025-08-15T03:19:09.825Z,4,GR86-063-113,20.1,0.009,0.608,99.98,6.0,6664.0,0.0,0.0,
2025-08-15T03:19:09.868Z,4,GR86-063-113,18.9,0.028,0.599,99.99,6.0,,0.0,0.0,217.34
2025-08-15T03:19:09.911Z,4,GR86-063-113,17.900000000000002,0.049,0.619,99.99,6.0,,0.0,0.0,
2025-08-15T03:19:09.954Z,4,GR86-063-113,16.8,0.052,0.546,99.99,6.0,,0.0,0.0,
2025-08-15T03:19:09.997Z,4,GR86-063-113,16.5,0.078,0.513,99.98,6.0,,0.0,0.0,
2025-08-15T03:19:10.040Z,4,GR86-063-113,16.0,0.076,0.488,99.98,6.0,6675.0,0.0,0.0,
2025-08-15T03:19:10.084Z,4,GR86-063-113,15.6,0.036,0.515,99.98,6.0,,0.0,0.0,217.55
2025-08-15T03:19:10.127Z,4,GR86-063-113,15.3,0.037,0.485,99.99,6.0,,0.0,0.0,
2025-08-15T03:19:10.170Z,4,GR86-063-113,15.3,0.04,0.43,100.0,6.0,,0.0,0.0,
2025-08-15T03:19:10.214Z,4,GR86-063-113,14.9,0.001,0.337,99.97,6.0,,0.0,0.0,
2025-08-15T03:19:10.257Z,4,GR86-063-113,14.6,0.038,0.341,99.99,6.0,6671.0,0.0,0.0,
2025-08-15T03:19:10.300Z,4,GR86-063-113,14.6,0.068,0.318,99.99,6.0,,0.0,0.0,217.98
2025-08-15T03:19:10.344Z,4,GR86-063-113,14.5,0.047,0.337,99.99,6.0,,0.0,0.0,
2025-08-15T03:19:10.386Z,4,GR86-063-113,14.2,0.047,0.326,100.0,6.0,,0.0,0.0,
2025-08-15T03:19:10.429Z,4,GR86-063-113,13.3,0.004,0.277,99.99,6.0,,0.0,0.0,
2025-08-15T03:19:10.474Z,4,GR86-063-113,10.4,0.03,0.248,99.99,6.0,6681.0,0.0,0.0,
2025-08-15T03:19:10.517Z,4,GR86-063-113,9.3,0.028,0.221,99.99,6.0,,0.0,0.0,218.39
2025-08-15T03:19:10.560Z,4,GR86-063-113,9.2,0.026,0.211,98.79,6.0,,4.3950000000000005,4.47,
2025-08-15T03:19:10.604Z,4,GR86-063-113,9.2,0.036,0.151,42.95,6.0,,9.28,9.37,
2025-08-15T03:19:10.647Z,4,GR86-063-113,9.1,-0.028,0.112,5.38,6.0,,17.425,17.365000000000002,
2025-08-15T03:19:10.690Z,4,GR86-063-113,8.8,-0.2,0.123,4.29,6.0,6688.0,27.895,27.68,
2025-08-15T03:19:10.734Z,4,GR86-063-113,8.700000000000001,-0.7020000000000001,0.092,3.76,6.0,,45.87,45.46,218.87
2025-08-15T03:19:10.777Z,4,GR86-063-113,8.6,-1.011,0.061,3.51,6.0,,61.45,60.735,
2025-08-15T03:19:10.820Z,4,GR86-063-113,8.200000000000001,-1.177,0.071,21.28,6.0,,76.62,75.645,
2025-08-15T03:19:10.865Z,4,GR86-063-113,6.9,-1.333,0.126,59.370000000000005,5.0,,88.11,87.3,
2025-08-15T03:19:10.907Z,4,GR86-063-113,6.6000000000000005,-1.385,0.088,8.540000000000001,5.0,6349.0,96.96,97.97,
2025-08-15T03:19:10.950Z,4,GR86-063-113,6.5,-1.523,0.08,5.04,5.0,,103.065,105.185,217.14
2025-08-15T03:19:10.994Z,4,GR86-063-113,5.5,-1.562,0.11,4.04,5.0,,104.365,105.37,
2025-08-15T03:19:11.037Z,4,GR86-063-113,3.7,-1.36,0.117,3.78,5.0,,102.715,102.93,
2025-08-15T03:19:11.080Z,4,GR86-063-113,2.7,-1.359,0.06,3.53,5.0,,103.615,105.46,
2025-08-15T03:19:11.126Z,4,GR86-063-113,2.5,-1.333,0.137,3.3200000000000003,5.0,6524.0,100.7,100.61,
2025-08-15T03:19:11.168Z,4,GR86-063-113,2.2,-1.413,0.161,3.08,5.0,,100.245,101.295,208.44
2025-08-15T03:19:11.211Z,4,GR86-063-113,0.5,-1.321,0.109,2.85,5.0,,102.655,105.155,
2025-08-15T03:19:11.254Z,4,GR86-063-113,-1.5,-1.222,0.13,2.63,5.0,,99.495,100.245,
2025-08-15T03:19:11.297Z,4,GR86-063-113,-1.5,-1.283,0.064,2.56,5.0,,101.02,103.035,
2025-08-15T03:19:11.340Z,4,GR86-063-113,-1.4,-1.308,0.043,20.66,5.0,6250.0,100.87,103.495,
2025-08-15T03:19:11.384Z,4,GR86-063-113,-1.4,-1.302,0.049,67.27,5.0,,103.19,105.765,196.42
2025-08-15T03:19:11.426Z,4,GR86-063-113,-1.2000000000000002,-1.445,-0.01,71.31,5.0,,105.46,107.645,
2025-08-15T03:19:11.469Z,4,GR86-063-113,2.4000000000000004,-1.066,-0.032,17.85,4.0,,103.875,106.21,
2025-08-15T03:19:11.514Z,4,GR86-063-113,7.9,-1.229,-0.063,5.7,4.0,,97.71,98.715,
2025-08-15T03:19:11.557Z,4,GR86-063-113,9.9,-1.351,0.009,5.32,4.0,5908.0,91.745,92.065,
2025-08-15T03:19:11.600Z,4,GR86-063-113,10.8,-1.229,-0.123,4.87,4.0,,89.09,89.745,187.51
2025-08-15T03:19:11.644Z,4,GR86-063-113,10.8,-1.262,-0.088,4.28,4.0,,87.53,87.745,
2025-08-15T03:19:11.686Z,4,GR86-063-113,11.1,-1.23,-0.07,3.89,4.0,,85.12,84.92,
2025-08-15T03:19:11.729Z,4,GR86-063-113,12.2,-1.282,-0.09,3.61,4.0,,83.215,83.365,
2025-08-15T03:19:11.774Z,4,GR86-063-113,12.2,-1.309,0.023,3.27,4.0,6817.0,82.055,82.555,
2025-08-15T03:19:11.817Z,4,GR86-063-113,11.3,-1.295,0.031,3.01,4.0,,81.09,81.425,171.13
2025-08-15T03:19:11.860Z,4,GR86-063-113,9.5,-1.315,0.066,14.11,4.0,,80.77,82.295,
2025-08-15T03:19:11.904Z,4,GR86-063-113,7.300000000000001,-1.282,0.096,60.2,4.0,,77.995,78.925,
2025-08-15T03:19:11.946Z,4,GR86-063-113,5.5,-1.296,0.107,98.73,4.0,,72.76,73.875,
2025-08-15T03:19:11.989Z,4,GR86-063-113,4.1000000000000005,-1.125,0.168,99.64,3.0,6225.0,66.855,68.745,
2025-08-15T03:19:12.034Z,4,GR86-063-113,2.9000000000000004,-1.114,0.1,10.48,3.0,,59.24,60.615,163.82
2025-08-15T03:19:12.077Z,4,GR86-063-113,1.8,-1.234,0.186,3.33,3.0,,58.795,60.4,
2025-08-15T03:19:12.120Z,4,GR86-063-113,1.6,-0.994,0.098,2.78,3.0,,59.65,60.4,
2025-08-15T03:19:12.164Z,4,GR86-063-113,1.6,-1.128,0.15,2.6,3.0,,59.56,60.17,
2025-08-15T03:19:12.207Z,4,GR86-063-113,1.8,-1.06,0.181,2.52,3.0,6343.0,60.02,60.58,
2025-08-15T03:19:12.250Z,4,GR86-063-113,2.0,-1.121,0.045,2.5,3.0,,60.370000000000005,61.115,155.71
2025-08-15T03:19:12.294Z,4,GR86-063-113,2.3000000000000003,-1.096,0.134,2.47,3.0,,61.59,62.305,
2025-08-15T03:19:12.337Z,4,GR86-063-113,2.3000000000000003,-1.135,0.076,2.47,3.0,,62.995000000000005,63.495000000000005,
2025-08-15T03:19:12.380Z,4,GR86-063-113,2.0,-1.128,0.053,2.47,3.0,,64.52,65.025,
2025-08-15T03:19:12.426Z,4,GR86-063-113,1.5,-1.251,0.042,2.47,3.0,6387.0,66.55,67.02,
2025-08-15T03:19:12.469Z,4,GR86-063-113,1.2000000000000002,-1.205,-0.041,37.32,3.0,,69.495,69.74,148.28
2025-08-15T03:19:12.515Z,4,GR86-063-113,-1.8,-1.237,-0.08,15.49,2.0,,74.56,75.28,
2025-08-15T03:19:12.558Z,4,GR86-063-113,-6.2,-1.193,-0.023,4.75,2.0,,79.015,80.68,
2025-08-15T03:19:12.601Z,4,GR86-063-113,-10.9,-1.373,-0.285,3.97,2.0,,81.655,83.045,
2025-08-15T03:19:12.644Z,4,GR86-063-113,-12.7,-1.378,-0.211,3.71,2.0,6460.0,80.405,81.685,
2025-08-15T03:19:12.687Z,4,GR86-063-113,-13.0,-1.138,-0.235,3.49,2.0,,81.365,83.275,140.25
2025-08-15T03:19:12.730Z,4,GR86-063-113,-12.5,-1.013,-0.528,3.26,2.0,,80.56,81.46000000000001,
2025-08-15T03:19:12.774Z,4,GR86-063-113,-11.2,-1.114,-0.26,2.92,2.0,,78.71000000000001,80.08500000000001,
2025-08-15T03:19:12.817Z,4,GR86-063-113,-11.3,-1.222,-0.454,2.72,2.0,,80.62,81.99,
2025-08-15T03:19:12.860Z,4,GR86-063-113,-12.9,-1.042,-0.905,2.59,2.0,6763.0,80.19,82.435,
2025-08-15T03:19:12.904Z,4,GR86-063-113,-14.9,-1.065,-0.519,2.51,2.0,,78.955,80.055,132.22
2025-08-15T03:19:12.946Z,4,GR86-063-113,-18.1,-1.06,-0.705,2.47,2.0,,79.9,81.09,
2025-08-15T03:19:12.989Z,4,GR86-063-113,-25.4,-0.922,-0.704,2.45,2.0,,81.215,82.405,
2025-08-15T03:19:13.034Z,4,GR86-063-113,-40.0,-0.978,-0.6980000000000001,2.44,2.0,,79.305,79.93,
2025-08-15T03:19:13.077Z,4,GR86-063-113,-45.8,-0.871,-0.967,2.44,2.0,6611.0,72.73,74.21000000000001,
2025-08-15T03:19:13.120Z,4,GR86-063-113,-49.6,-0.861,-0.845,2.44,2.0,,65.555,67.295,125.14
2025-08-15T03:19:13.164Z,4,GR86-063-113,-53.6,-0.89,-0.913,2.44,2.0,,62.565000000000005,64.185,
2025-08-15T03:19:13.207Z,4,GR86-063-113,-58.3,-0.882,-0.977,2.45,2.0,,62.4,63.085,
2025-08-15T03:19:13.250Z,4,GR86-063-113,-59.400000000000006,-1.038,-0.948,2.47,2.0,,58.05,59.025,
2025-08-15T03:19:13.294Z,4,GR86-063-113,-59.1,-0.843,-0.915,2.47,2.0,6234.0,55.805,57.24,
2025-08-15T03:19:13.337Z,4,GR86-063-113,-57.900000000000006,-0.868,-0.896,2.47,2.0,,53.58,54.385,116.78
2025-08-15T03:19:13.380Z,4,GR86-063-113,-54.8,-0.783,-0.891,2.47,2.0,,49.395,49.96,
2025-08-15T03:19:13.425Z,4,GR86-063-113,-50.6,-0.792,-0.892,2.48,2.0,,44.71,45.935,
2025-08-15T03:19:13.468Z,4,GR86-063-113,-46.6,-0.6950000000000001,-0.915,2.47,2.0,,38.595,39.615,
2025-08-15T03:19:13.511Z,4,GR86-063-113,-40.7,-0.675,-0.948,2.47,2.0,5966.0,31.71,32.9,
2025-08-15T03:19:13.554Z,4,GR86-063-113,-35.6,-0.621,-0.948,2.47,2.0,,19.21,20.115,112.14
2025-08-15T03:19:13.597Z,4,GR86-063-113,-34.1,-0.467,-0.999,2.47,2.0,,12.42,13.245,
2025-08-15T03:19:13.640Z,4,GR86-063-113,-34.7,-0.364,-1.027,2.47,2.0,,6.0600000000000005,6.715,
2025-08-15T03:19:13.684Z,4,GR86-063-113,-38.6,-0.258,-1.057,2.47,2.0,,0.0,0.0,
2025-08-15T03:19:13.727Z,4,GR86-063-113,-45.7,-0.253,-1.106,2.47,2.0,5792.0,0.0,0.0,
2025-08-15T03:19:13.770Z,4,GR86-063-113,-56.2,-0.222,-1.114,2.47,2.0,,0.0,0.0,107.03
2025-08-15T03:19:13.814Z,4,GR86-063-113,-64.9,-0.201,-1.171,2.5,2.0,,0.0,0.0,
2025-08-15T03:19:13.857Z,4,GR86-063-113,-70.5,-0.188,-1.181,3.06,2.0,,0.0,0.0,
2025-08-15T03:19:13.900Z,4,GR86-063-113,-72.8,-0.2,-1.197,3.38,2.0,,0.0,0.0,
2025-08-15T03:19:13.944Z,4,GR86-063-113,-74.10000000000001,-0.22,-1.224,4.03,2.0,5744.0,0.0,0.0,
2025-08-15T03:19:13.986Z,4,GR86-063-113,-74.2,-0.206,-1.224,4.76,2.0,,0.0,0.0,104.92
2025-08-15T03:19:14.029Z,4,GR86-063-113,-74.2,-0.217,-1.212,4.91,2.0,,0.0,0.0,
2025-08-15T03:19:14.074Z,4,GR86-063-113,-74.3,-0.214,-1.213,7.66,2.0,,0.0,0.0,
2025-08-15T03:19:14.117Z,4,GR86-063-113,-74.4,-0.222,-1.235,7.77,2.0,,0.0,0.0,
2025-08-15T03:19:14.160Z,4,GR86-063-113,-74.3,-0.209,-1.254,7.75,2.0,5626.0,0.0,0.0,
2025-08-15T03:19:14.204Z,4,GR86-063-113,-74.2,-0.182,-1.252,8.32,2.0,,0.0,0.0,102.61
2025-08-15T03:19:14.247Z,4,GR86-063-113,-73.0,-0.179,-1.288,11.71,2.0,,0.0,0.0,
2025-08-15T03:19:14.290Z,4,GR86-063-113,-71.7,-0.175,-1.3,18.67,2.0,,0.0,0.0,
2025-08-15T03:19:14.334Z,4,GR86-063-113,-68.10000000000001,-0.176,-1.308,21.73,2.0,,0.0,0.0,
2025-08-15T03:19:14.377Z,4,GR86-063-113,-66.10000000000001,-0.17,-1.307,24.75,2.0,5567.0,0.0,0.0,
2025-08-15T03:19:14.420Z,4,GR86-063-113,-61.900000000000006,-0.132,-1.304,32.1,2.0,,0.0,0.0,99.67
2025-08-15T03:19:14.465Z,4,GR86-063-113,-55.2,-0.13,-1.301,43.6,2.0,,0.0,0.0,
2025-08-15T03:19:14.507Z,4,GR86-063-113,-49.400000000000006,0.002,-1.273,55.870000000000005,2.0,,0.0,0.0,
2025-08-15T03:19:14.550Z,4,GR86-063-113,-43.5,0.145,-1.282,69.01,2.0,,0.0,0.0,
2025-08-15T03:19:14.595Z,4,GR86-063-113,-39.1,0.197,-1.221,99.33,2.0,5514.0,0.0,0.0,
2025-08-15T03:19:14.637Z,4,GR86-063-113,-38.5,0.226,-1.276,100.0,2.0,,0.0,0.0,97.96
2025-08-15T03:19:14.680Z,4,GR86-063-113,-38.2,0.243,-1.221,99.98,2.0,,0.0,0.0,
2025-08-15T03:19:14.726Z,4,GR86-063-113,-38.0,0.23,-1.266,99.99,2.0,,0.0,0.0,
2025-08-15T03:19:14.769Z,4,GR86-063-113,-38.8,0.24,-1.257,99.99,2.0,,0.0,0.0,
2025-08-15T03:19:14.815Z,4,GR86-063-113,-40.400000000000006,0.219,-1.252,99.98,2.0,5952.0,0.0,0.0,
2025-08-15T03:19:14.857Z,4,GR86-063-113,-41.2,0.217,-1.294,99.99,2.0,,0.0,0.0,97.92
2025-08-15T03:19:14.900Z,4,GR86-063-113,-37.4,0.215,-1.276,99.99,2.0,,0.0,0.0,
2025-08-15T03:19:14.944Z,4,GR86-063-113,-28.700000000000003,0.213,-1.274,99.99,2.0,,0.0,0.0,
2025-08-15T03:19:14.986Z,4,GR86-063-113,-19.3,0.221,-1.269,99.98,2.0,,0.0,0.0,
2025-08-15T03:19:15.029Z,4,GR86-063-113,-12.7,0.248,-1.263,99.99,2.0,6040.0,0.0,0.0,
2025-08-15T03:19:15.074Z,4,GR86-063-113,-5.4,0.256,-1.247,99.99,2.0,,0.0,0.0,98.49
2025-08-15T03:19:15.117Z,4,GR86-063-113,1.7000000000000002,0.249,-1.225,99.99,2.0,,0.0,0.0,
2025-08-15T03:19:15.160Z,4,GR86-063-113,8.4,0.273,-1.207,99.98,2.0,,0.0,0.0,
2025-08-15T03:19:15.204Z,4,GR86-063-113,14.1,0.266,-1.159,99.99,2.0,,0.0,0.0,
2025-08-15T03:19:15.246Z,4,GR86-063-113,14.2,0.269,-1.149,100.0,2.0,6076.0,0.0,0.0,
2025-08-15T03:19:15.289Z,4,GR86-063-113,11.3,0.281,-1.138,100.0,2.0,,0.0,0.0,99.61
2025-08-15T03:19:15.334Z,4,GR86-063-113,2.0,0.251,-1.155,99.99,2.0,,0.0,0.0,
2025-08-15T03:19:15.377Z,4,GR86-063-113,2.1,0.243,-1.131,99.99,2.0,,0.0,0.0,
2025-08-15T03:19:15.420Z,4,GR86-063-113,4.5,0.231,-1.143,99.99,2.0,,0.0,0.0,
