timestamp,lap,vehicle_id,steering_angle,accx_can,accy_can,ath,gear,nmot,pbrake_f,pbrake_r,speed
2025-08-15T01:54:12.323Z,4,GR86-006-7,3.9,0.1,0.01,99.98,5.0,,0.0,0.0,
2025-08-15T01:54:12.366Z,4,GR86-006-7,3.9,0.095,0.023,99.98,5.0,,0.0,0.0,
2025-08-15T01:54:12.409Z,4,GR86-006-7,3.9,0.109,0.024,99.96,5.0,6359.0,0.0,0.0,
2025-08-15T01:54:12.452Z,4,GR86-006-7,3.9,0.114,0.043,99.98,5.0,,0.0,0.0,186.63
2025-08-15T01:54:12.495Z,4,GR86-006-7,3.9,0.094,0.047,99.96,5.0,,0.0,0.0,
2025-08-15T01:54:12.538Z,4,GR86-006-7,3.9,0.114,0.054,99.96,5.0,,0.0,0.0,
2025-08-15T01:54:12.581Z,4,GR86-006-7,3.9,0.098,0.04,99.98,5.0,,0.0,0.0,
2025-08-15T01:54:12.624Z,4,GR86-006-7,3.9,0.103,0.076,99.98,5.0,6357.0,0.0,0.0,
2025-08-15T01:54:12.668Z,4,GR86-006-7,3.9,0.092,0.057,99.98,5.0,,0.0,0.0,187.42
2025-08-15T01:54:12.711Z,4,GR86-006-7,3.9,0.105,0.07,99.95,5.0,,0.0,0.0,
2025-08-15T01:54:12.754Z,4,GR86-006-7,3.9,0.115,0.036,99.97,5.0,,0.0,0.0,
2025-08-15T01:54:12.797Z,4,GR86-006-7,3.9,0.106,0.062,99.96,5.0,,0.0,0.0,
2025-08-15T01:54:12.842Z,4,GR86-006-7,3.9,0.102,0.067,99.95,5.0,6380.0,0.0,0.0,
2025-08-15T01:54:12.885Z,4,GR86-006-7,3.9,0.115,0.077,99.99,5.0,,0.0,0.0,188.09
2025-08-15T01:54:12.928Z,4,GR86-006-7,3.9,0.116,0.054,99.97,5.0,,0.0,0.0,
2025-08-15T01:54:12.971Z,4,GR86-006-7,3.9,0.1,0.054,99.94,5.0,,0.0,0.0,
2025-08-15T01:54:13.014Z,4,GR86-006-7,3.9,0.103,0.065,99.98,5.0,,0.0,0.0,
2025-08-15T01:54:13.057Z,4,GR86-006-7,3.9,0.107,0.069,99.96,5.0,6413.0,0.0,0.0,
2025-08-15T01:54:13.100Z,4,GR86-006-7,3.9,0.109,0.041,99.97,5.0,,0.0,0.0,188.77
2025-08-15T01:54:13.143Z,4,GR86-006-7,3.9,0.091,0.038,99.99,5.0,,0.0,0.0,
2025-08-15T01:54:13.186Z,4,GR86-006-7,3.9,0.112,0.011,99.98,5.0,,0.0,0.0,
2025-08-15T01:54:13.229Z,4,GR86-006-7,3.9,0.117,0.032,99.96,5.0,,0.0,0.0,
2025-08-15T01:54:13.274Z,4,GR86-006-7,3.9,0.087,0.028,99.96,5.0,6439.0,0.0,0.0,
2025-08-15T01:54:13.317Z,4,GR86-006-7,4.0,0.102,0.044,99.99,5.0,,0.0,0.0,190.19
2025-08-15T01:54:13.360Z,4,GR86-006-7,3.9,0.087,0.055,99.97,5.0,,0.0,0.0,
2025-08-15T01:54:13.403Z,4,GR86-006-7,4.0,0.097,0.035,99.98,5.0,,0.0,0.0,
2025-08-15T01:54:13.446Z,4,GR86-006-7,4.0,0.102,0.065,99.98,5.0,,0.0,0.0,
2025-08-15T01:54:13.489Z,4,GR86-006-7,4.0,0.097,0.078,99.93,5.0,6460.0,0.0,0.0,
2025-08-15T01:54:13.532Z,4,GR86-006-7,4.1000000000000005,0.094,0.072,99.95,5.0,,0.0,0.0,190.97
2025-08-15T01:54:13.576Z,4,GR86-006-7,4.3,0.105,0.09,99.97,5.0,,0.0,0.0,
2025-08-15T01:54:13.619Z,4,GR86-006-7,4.3,0.096,0.072,99.99,5.0,,0.0,0.0,
2025-08-15T01:54:13.705Z,4,GR86-006-7,4.2,0.086,0.11,99.94,5.0,6485.0,0.0,0.0,
2025-08-15T01:54:13.748Z,4,GR86-006-7,4.2,0.102,0.127,99.97,5.0,,0.0,0.0,191.71
2025-08-15T01:54:13.792Z,4,GR86-006-7,4.1000000000000005,0.113,0.068,99.97,5.0,,0.0,0.0,
2025-08-15T01:54:13.835Z,4,GR86-006-7,4.1000000000000005,0.102,0.059,99.98,5.0,,0.0,0.0,
2025-08-15T01:54:13.878Z,4,GR86-006-7,4.2,0.093,0.056,99.96,5.0,,0.0,0.0,
2025-08-15T01:54:13.921Z,4,GR86-006-7,4.1000000000000005,0.087,0.057,99.94,5.0,6540.0,0.0,0.0,
2025-08-15T01:54:14.007Z,4,GR86-006-7,4.1000000000000005,0.085,0.037,99.98,5.0,,0.0,0.0,192.41
2025-08-15T01:54:14.051Z,4,GR86-006-7,4.1000000000000005,0.091,0.047,99.98,5.0,,0.0,0.0,
2025-08-15T01:54:14.094Z,4,GR86-006-7,4.2,0.097,0.063,99.96,5.0,,0.0,0.0,
2025-08-15T01:54:14.137Z,4,GR86-006-7,4.2,0.114,0.05,99.96,5.0,6563.0,0.0,0.0,
2025-08-15T01:54:14.180Z,4,GR86-006-7,4.2,0.098,0.036,99.94,5.0,,0.0,0.0,193.2
2025-08-15T01:54:14.223Z,4,GR86-006-7,4.2,0.102,0.038,99.94,5.0,,0.0,0.0,
2025-08-15T01:54:14.266Z,4,GR86-006-7,4.2,0.075,0.06,99.98,5.0,,0.0,0.0,
2025-08-15T01:54:14.310Z,4,GR86-006-7,4.1000000000000005,0.099,0.072,99.98,5.0,,0.0,0.0,
2025-08-15T01:54:14.354Z,4,GR86-006-7,4.1000000000000005,0.12,0.065,99.95,5.0,6579.0,0.0,0.0,
2025-08-15T01:54:14.397Z,4,GR86-006-7,4.2,0.104,0.056,99.98,5.0,,0.0,0.0,193.95
2025-08-15T01:54:14.441Z,4,GR86-006-7,4.2,0.093,0.064,99.98,5.0,,0.0,0.0,
2025-08-15T01:54:14.484Z,4,GR86-006-7,4.2,0.095,0.051,99.97,5.0,,0.0,0.0,
2025-08-15T01:54:14.527Z,4,GR86-006-7,4.2,0.075,0.053,99.96,5.0,,0.0,0.0,
2025-08-15T01:54:14.570Z,4,GR86-006-7,4.2,0.1,0.076,99.95,5.0,6608.0,0.0,0.0,
2025-08-15T01:54:14.614Z,4,GR86-006-7,4.2,0.129,0.064,99.98,5.0,,0.0,0.0,194.55
2025-08-15T01:54:14.657Z,4,GR86-006-7,4.2,0.097,0.077,99.99,5.0,,0.0,0.0,
2025-08-15T01:54:14.700Z,4,GR86-006-7,4.2,0.102,0.046,99.95,5.0,,0.0,0.0,
2025-08-15T01:54:14.743Z,4,GR86-006-7,4.2,0.098,0.082,99.95,5.0,,0.0,0.0,
2025-08-15T01:54:14.786Z,4,GR86-006-7,4.2,0.077,0.062,99.96,5.0,6629.0,0.0,0.0,
2025-08-15T01:54:14.829Z,4,GR86-006-7,4.2,0.093,0.101,99.98,5.0,,0.0,0.0,195.28
2025-08-15T01:54:14.872Z,4,GR86-006-7,4.2,0.109,0.072,99.94,5.0,,0.0,0.0,
2025-08-15T01:54:14.915Z,4,GR86-006-7,4.2,0.1,0.083,99.94,5.0,,0.0,0.0,
2025-08-15T01:54:14.958Z,4,GR86-006-7,4.2,0.082,0.083,99.97,5.0,,0.0,0.0,
2025-08-15T01:54:15.001Z,4,GR86-006-7,4.2,0.088,0.109,99.96,5.0,6664.0,0.0,0.0,
2025-08-15T01:54:15.044Z,4,GR86-006-7,4.2,0.093,0.105,99.95,5.0,,0.0,0.0,196.05
2025-08-15T01:54:15.087Z,4,GR86-006-7,4.2,0.078,0.111,99.94,5.0,,0.0,0.0,
2025-08-15T01:54:15.130Z,4,GR86-006-7,4.1000000000000005,0.097,0.075,99.94,5.0,,0.0,0.0,
2025-08-15T01:54:15.173Z,4,GR86-006-7,4.1000000000000005,0.094,0.071,99.98,5.0,,0.0,0.0,
2025-08-15T01:54:15.217Z,4,GR86-006-7,4.1000000000000005,0.094,0.072,99.94,5.0,6685.0,0.0,0.0,
2025-08-15T01:54:15.260Z,4,GR86-006-7,4.1000000000000005,0.091,0.055,99.95,5.0,,0.0,0.0,196.88
2025-08-15T01:54:15.303Z,4,GR86-006-7,4.1000000000000005,0.078,0.028,99.95,5.0,,0.0,0.0,
2025-08-15T01:54:15.346Z,4,GR86-006-7,4.1000000000000005,0.099,0.027,99.96,5.0,,0.0,0.0,
2025-08-15T01:54:15.389Z,4,GR86-006-7,4.1000000000000005,0.104,0.021,99.94,5.0,,0.0,0.0,
2025-08-15T01:54:15.432Z,4,GR86-006-7,4.0,0.085,-0.011,99.96,5.0,6709.0,0.0,0.0,
2025-08-15T01:54:15.475Z,4,GR86-006-7,4.0,0.085,-0.01,99.96,5.0,,0.0,0.0,197.6
2025-08-15T01:54:15.518Z,4,GR86-006-7,4.0,0.077,-0.007,99.95,5.0,,0.0,0.0,
2025-08-15T01:54:15.561Z,4,GR86-006-7,4.0,0.096,-0.022,99.95,5.0,,0.0,0.0,
2025-08-15T01:54:15.604Z,4,GR86-006-7,4.0,0.092,-0.016,99.96,5.0,,0.0,0.0,
2025-08-15T01:54:15.647Z,4,GR86-006-7,4.0,0.102,0.004,99.98,5.0,6732.0,0.0,0.0,
2025-08-15T01:54:15.690Z,4,GR86-006-7,4.0,0.102,0.018,99.96,5.0,,0.0,0.0,198.36
2025-08-15T01:54:15.733Z,4,GR86-006-7,4.0,0.086,-0.035,99.96,5.0,,0.0,0.0,
2025-08-15T01:54:15.776Z,4,GR86-006-7,4.0,0.087,-0.028,99.96,5.0,,0.0,0.0,
2025-08-15T01:54:15.819Z,4,GR86-006-7,4.0,0.102,-0.003,99.94,5.0,,0.0,0.0,
2025-08-15T01:54:15.862Z,4,GR86-006-7,4.0,0.106,0.0,99.95,5.0,6760.0,0.0,0.0,
2025-08-15T01:54:15.905Z,4,GR86-006-7,4.0,0.103,-0.032,99.95,5.0,,0.0,0.0,198.99
2025-08-15T01:54:15.949Z,4,GR86-006-7,4.0,0.114,-0.027,99.98,5.0,,0.0,0.0,
2025-08-15T01:54:15.992Z,4,GR86-006-7,4.0,0.097,-0.011,99.95,5.0,,0.0,0.0,
2025-08-15T01:54:16.035Z,4,GR86-006-7,4.0,0.102,-0.026,99.95,5.0,,0.0,0.0,
2025-08-15T01:54:16.121Z,4,GR86-006-7,4.0,0.085,-0.039,99.96,5.0,6789.0,0.0,0.0,200.45
2025-08-15T01:54:16.164Z,4,GR86-006-7,4.0,0.113,-0.036,99.94,5.0,,0.0,0.0,
2025-08-15T01:54:16.207Z,4,GR86-006-7,4.0,0.081,-0.033,99.94,5.0,,0.0,0.0,
2025-08-15T01:54:16.250Z,4,GR86-006-7,4.0,0.073,-0.032,99.95,5.0,,0.0,0.0,
2025-08-15T01:54:16.293Z,4,GR86-006-7,4.0,0.089,-0.069,99.95,5.0,6806.0,0.0,0.0,
2025-08-15T01:54:16.336Z,4,GR86-006-7,4.0,0.096,-0.079,99.94,5.0,,0.0,0.0,201.22
2025-08-15T01:54:16.379Z,4,GR86-006-7,4.0,0.09,-0.099,99.96,5.0,,0.0,0.0,
2025-08-15T01:54:16.422Z,4,GR86-006-7,4.0,0.089,-0.078,99.94,5.0,,0.0,0.0,
2025-08-15T01:54:16.467Z,4,GR86-006-7,4.0,0.057,-0.051,99.95,5.0,,0.0,0.0,
2025-08-15T01:54:16.510Z,4,GR86-006-7,4.0,0.107,-0.072,99.98,5.0,6834.0,0.0,0.0,
2025-08-15T01:54:16.553Z,4,GR86-006-7,4.0,0.094,-0.062,99.95,5.0,,0.0,0.0,202.0
2025-08-15T01:54:16.597Z,4,GR86-006-7,4.0,0.075,-0.104,99.94,5.0,,0.0,0.0,
2025-08-15T01:54:16.640Z,4,GR86-006-7,4.0,0.08,-0.08,99.95,5.0,,0.0,0.0,
2025-08-15T01:54:16.683Z,4,GR86-006-7,4.0,0.088,-0.111,99.95,5.0,,0.0,0.0,
2025-08-15T01:54:16.726Z,4,GR86-006-7,4.1000000000000005,0.09,-0.112,99.94,5.0,6892.0,0.0,0.0,
2025-08-15T01:54:16.769Z,4,GR86-006-7,4.0,0.092,-0.097,99.99,5.0,,0.0,0.0,202.71
2025-08-15T01:54:16.813Z,4,GR86-006-7,4.1000000000000005,0.081,-0.112,99.95,5.0,,0.0,0.0,
2025-08-15T01:54:16.857Z,4,GR86-006-7,4.0,0.1,-0.087,99.95,5.0,,0.0,0.0,
2025-08-15T01:54:16.900Z,4,GR86-006-7,4.1000000000000005,0.091,-0.079,99.94,5.0,,0.0,0.0,
2025-08-15T01:54:16.943Z,4,GR86-006-7,4.1000000000000005,0.089,-0.111,99.94,5.0,6918.0,0.0,0.0,
2025-08-15T01:54:17.029Z,4,GR86-006-7,4.1000000000000005,0.078,-0.129,99.96,5.0,,0.0,0.0,203.52
2025-08-15T01:54:17.072Z,4,GR86-006-7,4.1000000000000005,0.106,-0.114,99.94,5.0,,0.0,0.0,
2025-08-15T01:54:17.115Z,4,GR86-006-7,4.2,0.092,-0.148,99.95,5.0,,0.0,0.0,
2025-08-15T01:54:17.158Z,4,GR86-006-7,4.2,0.077,-0.127,99.95,5.0,6935.0,0.0,0.0,
2025-08-15T01:54:17.201Z,4,GR86-006-7,4.2,0.08,-0.132,99.95,5.0,,0.0,0.0,204.3
2025-08-15T01:54:17.244Z,4,GR86-006-7,4.2,0.085,-0.092,99.94,5.0,,0.0,0.0,
2025-08-15T01:54:17.287Z,4,GR86-006-7,4.2,0.047,-0.114,99.94,5.0,,0.0,0.0,
2025-08-15T01:54:17.330Z,4,GR86-006-7,4.2,0.096,-0.063,99.95,5.0,,0.0,0.0,
2025-08-15T01:54:17.373Z,4,GR86-006-7,4.2,0.092,-0.065,99.95,5.0,6957.0,0.0,0.0,
2025-08-15T01:54:17.417Z,4,GR86-006-7,4.2,0.076,-0.085,99.94,5.0,,0.0,0.0,205.03
2025-08-15T01:54:17.460Z,4,GR86-006-7,4.2,0.091,-0.041,99.93,5.0,,0.0,0.0,
2025-08-15T01:54:17.504Z,4,GR86-006-7,4.2,0.095,-0.078,99.94,5.0,,0.0,0.0,
2025-08-15T01:54:17.547Z,4,GR86-006-7,4.2,0.068,-0.035,99.94,5.0,,0.0,0.0,
2025-08-15T01:54:17.590Z,4,GR86-006-7,4.2,0.085,-0.041,99.95,5.0,6983.0,0.0,0.0,
2025-08-15T01:54:17.633Z,4,GR86-006-7,4.2,0.084,-0.001,99.96,5.0,,0.0,0.0,205.69
2025-08-15T01:54:17.676Z,4,GR86-006-7,4.2,0.09,-0.023,99.95,5.0,,0.0,0.0,
2025-08-15T01:54:17.719Z,4,GR86-006-7,4.2,0.079,-0.024,99.95,5.0,,0.0,0.0,
2025-08-15T01:54:17.762Z,4,GR86-006-7,4.2,0.072,-0.026,99.95,5.0,,0.0,0.0,
2025-08-15T01:54:17.805Z,4,GR86-006-7,4.2,0.081,-0.034,99.95,5.0,7004.0,0.0,0.0,
2025-08-15T01:54:17.848Z,4,GR86-006-7,4.2,0.076,-0.021,99.94,5.0,,0.0,0.0,206.4
2025-08-15T01:54:17.891Z,4,GR86-006-7,4.2,0.062,-0.058,99.96,5.0,,0.0,0.0,
2025-08-15T01:54:17.934Z,4,GR86-006-7,4.3,0.075,-0.049,99.96,5.0,,0.0,0.0,
2025-08-15T01:54:18.020Z,4,GR86-006-7,4.3,0.055,-0.022,99.95,5.0,7031.0,3.34,3.585,
2025-08-15T01:54:18.063Z,4,GR86-006-7,4.3,0.058,-0.058,99.96,5.0,,2.58,2.975,207.01
2025-08-15T01:54:18.106Z,4,GR86-006-7,4.3,0.056,-0.026,99.95,5.0,,0.0,0.0,
2025-08-15T01:54:18.149Z,4,GR86-006-7,4.3,0.07,-0.021,99.95,5.0,,0.0,0.0,
2025-08-15T01:54:18.192Z,4,GR86-006-7,4.3,0.074,-0.028,99.96,5.0,,0.0,0.0,
2025-08-15T01:54:18.235Z,4,GR86-006-7,4.3,0.096,-0.036,99.93,5.0,7046.0,0.0,0.0,
2025-08-15T01:54:18.278Z,4,GR86-006-7,4.3,0.09,-0.006,99.95,5.0,,0.0,0.0,207.74
2025-08-15T01:54:18.321Z,4,GR86-006-7,4.3,0.066,0.01,99.95,5.0,,0.0,0.0,
2025-08-15T01:54:18.364Z,4,GR86-006-7,4.3,0.09,-0.034,99.95,5.0,,3.905,4.24,
2025-08-15T01:54:18.407Z,4,GR86-006-7,4.3,0.029,-0.017,99.94,5.0,,3.725,3.905,
2025-08-15T01:54:18.451Z,4,GR86-006-7,4.3,0.058,-0.003,99.95,5.0,7062.0,3.495,3.615,
2025-08-15T01:54:18.494Z,4,GR86-006-7,4.3,0.056,0.053,99.96,5.0,,0.0,0.0,208.23
2025-08-15T01:54:18.537Z,4,GR86-006-7,4.3,0.088,0.012,99.94,5.0,,0.0,0.0,
2025-08-15T01:54:18.580Z,4,GR86-006-7,4.3,0.091,0.003,99.95,5.0,,0.0,0.0,
2025-08-15T01:54:18.623Z,4,GR86-006-7,4.3,0.071,0.022,99.94,5.0,,0.0,0.0,
2025-08-15T01:54:18.666Z,4,GR86-006-7,4.3,0.1,0.01,99.96,5.0,7090.0,0.0,0.0,
2025-08-15T01:54:18.709Z,4,GR86-006-7,4.3,0.075,0.001,99.95,5.0,,0.0,0.0,208.77
2025-08-15T01:54:18.752Z,4,GR86-006-7,4.3,0.058,-0.015,99.95,5.0,,0.0,0.0,
2025-08-15T01:54:18.795Z,4,GR86-006-7,4.3,0.101,0.023,99.95,5.0,,0.0,0.0,
2025-08-15T01:54:18.838Z,4,GR86-006-7,4.3,0.054,0.042,99.95,5.0,,0.0,0.0,
2025-08-15T01:54:18.881Z,4,GR86-006-7,4.3,0.089,0.008,99.95,5.0,7099.0,0.0,0.0,
2025-08-15T01:54:18.924Z,4,GR86-006-7,4.3,0.083,-0.045,99.96,5.0,,0.0,0.0,209.76
2025-08-15T01:54:18.968Z,4,GR86-006-7,4.3,0.079,-0.033,99.96,5.0,,0.0,0.0,
2025-08-15T01:54:19.011Z,4,GR86-006-7,4.3,0.087,-0.041,99.95,5.0,,0.0,0.0,
2025-08-15T01:54:19.054Z,4,GR86-006-7,4.3,0.07,-0.027,99.95,5.0,,0.0,0.0,
2025-08-15T01:54:19.097Z,4,GR86-006-7,4.3,0.091,-0.045,99.96,5.0,7133.0,0.0,0.0,
2025-08-15T01:54:19.141Z,4,GR86-006-7,4.3,0.08,-0.023,99.95,5.0,,0.0,0.0,210.51
2025-08-15T01:54:19.184Z,4,GR86-006-7,4.3,0.057,-0.046,99.95,5.0,,0.0,0.0,
2025-08-15T01:54:19.227Z,4,GR86-006-7,4.3,0.074,-0.046,99.94,5.0,,0.0,0.0,
2025-08-15T01:54:19.270Z,4,GR86-006-7,4.3,0.056,-0.064,99.97,5.0,,0.0,0.0,
2025-08-15T01:54:19.314Z,4,GR86-006-7,4.3,0.042,-0.044,99.96,5.0,7162.0,0.0,0.0,
2025-08-15T01:54:19.357Z,4,GR86-006-7,4.3,0.081,-0.062,99.96,5.0,,0.0,0.0,210.91
2025-08-15T01:54:19.400Z,4,GR86-006-7,4.3,0.068,-0.032,99.93,5.0,,0.0,0.0,
2025-08-15T01:54:19.443Z,4,GR86-006-7,4.3,0.073,-0.047,99.95,5.0,,0.0,0.0,
2025-08-15T01:54:19.486Z,4,GR86-006-7,4.4,0.088,-0.022,99.97,5.0,,0.0,0.0,
2025-08-15T01:54:19.529Z,4,GR86-006-7,4.4,0.047,-0.041,99.94,5.0,7175.0,0.0,0.0,
2025-08-15T01:54:19.572Z,4,GR86-006-7,4.4,0.066,-0.061,99.97,5.0,,0.0,0.0,211.52
2025-08-15T01:54:19.617Z,4,GR86-006-7,4.4,0.068,0.004,99.94,5.0,,0.0,0.0,
2025-08-15T01:54:19.660Z,4,GR86-006-7,4.4,0.068,-0.038,99.97,5.0,,0.0,0.0,
2025-08-15T01:54:19.703Z,4,GR86-006-7,4.4,0.068,0.017,99.95,5.0,,0.0,0.0,
2025-08-15T01:54:19.746Z,4,GR86-006-7,4.4,0.066,-0.01,99.95,5.0,7195.0,0.0,0.0,
2025-08-15T01:54:19.789Z,4,GR86-006-7,4.4,0.064,0.04,99.96,5.0,,0.0,0.0,212.02
2025-08-15T01:54:19.832Z,4,GR86-006-7,4.3,0.07,0.018,99.95,5.0,,0.0,0.0,
2025-08-15T01:54:19.876Z,4,GR86-006-7,4.4,0.076,0.034,99.95,5.0,,0.0,0.0,
2025-08-15T01:54:19.919Z,4,GR86-006-7,4.3,0.086,0.014,99.94,5.0,,0.0,0.0,
2025-08-15T01:54:19.962Z,4,GR86-006-7,4.4,0.046,0.009,99.96,5.0,7213.0,0.0,0.0,
2025-08-15T01:54:20.005Z,4,GR86-006-7,4.4,0.072,0.014,99.94,5.0,,0.0,0.0,212.67
2025-08-15T01:54:20.048Z,4,GR86-006-7,4.4,0.07,0.0,99.93,5.0,,0.0,0.0,
2025-08-15T01:54:20.092Z,4,GR86-006-7,4.4,0.068,-0.016,99.95,5.0,,0.0,0.0,
2025-08-15T01:54:20.135Z,4,GR86-006-7,4.4,0.062,0.002,99.95,5.0,,0.0,0.0,
2025-08-15T01:54:20.178Z,4,GR86-006-7,4.4,0.08,-0.018,99.95,5.0,7227.0,0.0,0.0,
2025-08-15T01:54:20.221Z,4,GR86-006-7,4.4,0.081,-0.023,99.95,5.0,,0.0,0.0,213.17
2025-08-15T01:54:20.264Z,4,GR86-006-7,4.4,0.067,-0.018,99.95,5.0,,0.0,0.0,
2025-08-15T01:54:20.307Z,4,GR86-006-7,4.5,0.086,-0.022,99.95,5.0,,0.0,0.0,
2025-08-15T01:54:20.350Z,4,GR86-006-7,4.5,0.071,-0.004,99.96,5.0,,0.0,0.0,
2025-08-15T01:54:20.393Z,4,GR86-006-7,6.0,0.071,0.005,99.95,5.0,7255.0,0.0,0.0,
2025-08-15T01:54:20.479Z,4,GR86-006-7,6.5,0.053,0.072,99.95,5.0,,0.0,0.0,213.73
2025-08-15T01:54:20.522Z,4,GR86-006-7,6.1000000000000005,0.072,0.124,99.95,5.0,,0.0,0.0,
2025-08-15T01:54:20.608Z,4,GR86-006-7,6.1000000000000005,0.07,0.128,99.95,5.0,7274.0,0.0,0.0,
2025-08-15T01:54:20.651Z,4,GR86-006-7,5.9,0.053,0.134,83.32000000000001,5.0,,0.0,0.0,214.31
2025-08-15T01:54:20.694Z,4,GR86-006-7,5.800000000000001,0.052,0.108,35.980000000000004,5.0,,7.0200000000000005,7.08,
2025-08-15T01:54:20.737Z,4,GR86-006-7,5.7,-0.058,0.086,8.84,5.0,,17.365000000000002,17.335,
2025-08-15T01:54:20.780Z,4,GR86-006-7,5.7,-0.366,0.05,5.13,5.0,,31.45,31.025,
2025-08-15T01:54:20.823Z,4,GR86-006-7,5.7,-0.769,0.037,4.92,5.0,7288.0,45.935,45.095,
2025-08-15T01:54:20.866Z,4,GR86-006-7,5.7,-0.943,0.021,4.66,5.0,,57.715,56.75,214.79
2025-08-15T01:54:20.909Z,4,GR86-006-7,5.7,-1.173,-0.019,4.4,5.0,,64.03,63.205,
2025-08-15T01:54:20.954Z,4,GR86-006-7,5.7,-1.238,-0.022,3.62,5.0,,65.86,67.42,
2025-08-15T01:54:20.997Z,4,GR86-006-7,5.7,-1.301,-0.056,3.27,5.0,,65.33,66.105,
2025-08-15T01:54:21.040Z,4,GR86-006-7,5.7,-1.189,-0.072,2.98,5.0,7301.0,62.72,62.93,
2025-08-15T01:54:21.083Z,4,GR86-006-7,5.7,-1.027,-0.043,2.84,5.0,,59.115,60.02,215.26
2025-08-15T01:54:21.126Z,4,GR86-006-7,5.7,-1.049,-0.053,2.77,5.0,,56.78,58.28,
2025-08-15T01:54:21.214Z,4,GR86-006-7,5.6000000000000005,-1.115,-0.033,2.68,5.0,,55.395,56.995000000000005,
2025-08-15T01:54:21.257Z,4,GR86-006-7,5.6000000000000005,-1.101,-0.046,7.19,5.0,6797.0,55.21,56.72,
2025-08-15T01:54:21.300Z,4,GR86-006-7,5.6000000000000005,-1.121,-0.071,49.88,4.0,,54.525,56.25,212.73
2025-08-15T01:54:21.343Z,4,GR86-006-7,5.6000000000000005,-1.102,-0.052,29.49,4.0,,53.305,54.95,
2025-08-15T01:54:21.386Z,4,GR86-006-7,5.6000000000000005,-1.106,-0.057,4.62,4.0,,51.625,53.395,
2025-08-15T01:54:21.429Z,4,GR86-006-7,5.6000000000000005,-1.186,-0.041,4.13,4.0,,51.455,53.21,
2025-08-15T01:54:21.472Z,4,GR86-006-7,5.6000000000000005,-1.097,-0.078,3.52,4.0,6656.0,50.585,51.625,
2025-08-15T01:54:21.515Z,4,GR86-006-7,5.6000000000000005,-0.873,-0.077,3.26,4.0,,47.52,48.145,196.26
2025-08-15T01:54:21.558Z,4,GR86-006-7,5.6000000000000005,-0.894,-0.18,3.03,4.0,,43.89,44.91,
2025-08-15T01:54:21.601Z,4,GR86-006-7,5.6000000000000005,-0.937,-0.084,2.89,4.0,,42.575,43.855,
2025-08-15T01:54:21.644Z,4,GR86-006-7,5.6000000000000005,-0.898,-0.093,2.81,4.0,,42.835,43.765,
2025-08-15T01:54:21.687Z,4,GR86-006-7,5.6000000000000005,-0.953,-0.123,2.74,4.0,6261.0,43.615,44.345,
2025-08-15T01:54:21.730Z,4,GR86-006-7,5.6000000000000005,-0.948,-0.054,2.7,4.0,,44.47,45.185,189.27
2025-08-15T01:54:21.773Z,4,GR86-006-7,4.2,-0.99,-0.099,2.65,4.0,,47.4,47.4,
2025-08-15T01:54:21.817Z,4,GR86-006-7,3.7,-1.018,-0.09,2.62,4.0,,50.13,50.005,
2025-08-15T01:54:21.860Z,4,GR86-006-7,3.7,-1.061,-0.072,2.58,4.0,,52.25,52.175,
2025-08-15T01:54:21.946Z,4,GR86-006-7,3.8,-1.04,-0.126,2.57,4.0,7111.0,53.870000000000005,54.265,182.67
2025-08-15T01:54:21.989Z,4,GR86-006-7,3.8,-1.062,-0.103,2.56,4.0,,54.265,54.8,
2025-08-15T01:54:22.032Z,4,GR86-006-7,3.8,-1.062,-0.138,42.83,4.0,,56.095,56.155,
2025-08-15T01:54:22.075Z,4,GR86-006-7,3.7,-1.076,-0.165,89.74,4.0,,58.02,57.865,
2025-08-15T01:54:22.118Z,4,GR86-006-7,3.2,-1.076,-0.162,99.96,4.0,6536.0,60.675,60.26,
2025-08-15T01:54:22.161Z,4,GR86-006-7,2.5,-1.132,-0.256,98.35,3.0,,63.025,62.78,175.66
2025-08-15T01:54:22.204Z,4,GR86-006-7,0.8,-1.145,-0.275,40.41,3.0,,64.0,64.09,
2025-08-15T01:54:22.247Z,4,GR86-006-7,-1.5,-1.238,-0.241,4.09,3.0,,64.67,64.55,
2025-08-15T01:54:22.290Z,4,GR86-006-7,-3.1,-1.106,-0.356,2.95,3.0,,67.495,69.22,
2025-08-15T01:54:22.333Z,4,GR86-006-7,-6.2,-1.122,-0.5,2.72,3.0,6222.0,67.755,67.97,
2025-08-15T01:54:22.376Z,4,GR86-006-7,-7.9,-1.168,-0.409,2.68,3.0,,67.58500000000001,68.595,168.24
2025-08-15T01:54:22.419Z,4,GR86-006-7,-8.200000000000001,-0.953,-0.533,2.64,3.0,,68.5,69.08,
2025-08-15T01:54:22.462Z,4,GR86-006-7,-9.6,-1.049,-0.55,2.62,3.0,,68.625,69.31,
2025-08-15T01:54:22.505Z,4,GR86-006-7,-11.5,-1.009,-0.592,2.62,3.0,,65.71000000000001,66.795,
2025-08-15T01:54:22.592Z,4,GR86-006-7,-15.8,-0.981,-0.62,2.56,3.0,6935.0,66.365,68.03,160.89
2025-08-15T01:54:22.635Z,4,GR86-006-7,-17.0,-1.037,-0.741,2.5500000000000003,3.0,,63.205,63.77,
2025-08-15T01:54:22.678Z,4,GR86-006-7,-16.5,-0.894,-0.9,2.56,3.0,,52.175,53.870000000000005,
2025-08-15T01:54:22.721Z,4,GR86-006-7,-16.1,-0.802,-0.785,2.54,3.0,,44.56,46.465,
2025-08-15T01:54:22.764Z,4,GR86-006-7,-16.1,-0.8240000000000001,-0.917,2.52,3.0,6682.0,44.085,45.185,
2025-08-15T01:54:22.807Z,4,GR86-006-7,-16.3,-0.873,-0.964,2.52,3.0,,42.485,43.26,153.8
2025-08-15T01:54:22.850Z,4,GR86-006-7,-16.900000000000002,-0.806,-0.898,2.52,3.0,,35.265,36.485,
2025-08-15T01:54:22.893Z,4,GR86-006-7,-16.1,-0.641,-0.983,2.49,3.0,,30.49,31.51,
2025-08-15T01:54:22.936Z,4,GR86-006-7,-13.9,-0.604,-1.083,2.49,3.0,,27.97,29.085,
2025-08-15T01:54:22.979Z,4,GR86-006-7,-11.5,-0.613,-1.007,2.49,3.0,6306.0,21.35,22.16,
2025-08-15T01:54:23.022Z,4,GR86-006-7,-7.4,-0.558,-1.049,2.49,3.0,,15.78,16.495,146.19
2025-08-15T01:54:23.068Z,4,GR86-006-7,-4.800000000000001,-0.408,-1.086,2.49,3.0,,12.68,13.43,
2025-08-15T01:54:23.111Z,4,GR86-006-7,-4.6000000000000005,-0.411,-1.127,2.49,3.0,,10.24,10.985,
2025-08-15T01:54:23.154Z,4,GR86-006-7,-8.8,-0.354,-1.181,2.49,3.0,,8.635,9.215,
2025-08-15T01:54:23.197Z,4,GR86-006-7,-9.0,-0.333,-1.201,2.49,3.0,6198.0,8.040000000000001,8.575000000000001,
2025-08-15T01:54:23.241Z,4,GR86-006-7,-5.7,-0.323,-1.173,2.49,3.0,,6.93,7.37,142.12
2025-08-15T01:54:23.284Z,4,GR86-006-7,-5.4,-0.292,-1.187,2.49,3.0,,4.53,5.19,
2025-08-15T01:54:23.370Z,4,GR86-006-7,-13.4,-0.258,-1.27,2.49,3.0,,1.89,2.52,
2025-08-15T01:54:23.414Z,4,GR86-006-7,-27.700000000000003,-0.181,-1.295,3.04,3.0,6049.0,0.0,0.0,
2025-08-15T01:54:23.457Z,4,GR86-006-7,-22.1,-0.158,-1.258,22.42,3.0,,0.0,0.0,138.52
2025-08-15T01:54:23.500Z,4,GR86-006-7,-15.6,-0.153,-1.275,29.99,3.0,,0.0,0.0,
2025-08-15T01:54:23.543Z,4,GR86-006-7,-12.9,-0.139,-1.36,34.660000000000004,3.0,,0.0,0.0,
2025-08-15T01:54:23.586Z,4,GR86-006-7,-12.3,-0.083,-1.322,39.37,3.0,,0.0,0.0,
2025-08-15T01:54:23.672Z,4,GR86-006-7,-14.1,-0.096,-1.277,44.12,3.0,5976.0,0.0,0.0,135.54
2025-08-15T01:54:23.715Z,4,GR86-006-7,-15.8,0.152,-1.273,42.53,3.0,,0.0,0.0,
2025-08-15T01:54:23.758Z,4,GR86-006-7,-18.7,0.157,-1.314,47.83,3.0,,0.0,0.0,
2025-08-15T01:54:23.801Z,4,GR86-006-7,-29.700000000000003,0.163,-1.297,54.93,3.0,,0.0,0.0,
2025-08-15T01:54:23.844Z,4,GR86-006-7,-44.0,0.146,-1.312,84.68,3.0,5947.0,0.0,0.0,
2025-08-15T01:54:23.887Z,4,GR86-006-7,-52.3,0.141,-1.295,99.7,3.0,,0.0,0.0,133.47
2025-08-15T01:54:23.930Z,4,GR86-006-7,-53.3,0.142,-1.246,99.87,3.0,,0.0,0.0,
2025-08-15T01:54:23.973Z,4,GR86-006-7,-51.6,0.156,-1.333,99.87,3.0,,0.0,0.0,
2025-08-15T01:54:24.017Z,4,GR86-006-7,-52.1,0.184,-1.244,99.89,3.0,,0.0,0.0,
2025-08-15T01:54:24.060Z,4,GR86-006-7,-53.5,0.158,-1.255,99.88,3.0,6326.0,0.0,0.0,
2025-08-15T01:54:24.104Z,4,GR86-006-7,-56.400000000000006,0.163,-1.213,99.88,3.0,,0.0,0.0,131.22
2025-08-15T01:54:24.147Z,4,GR86-006-7,-60.1,0.158,-1.213,99.88,3.0,,0.0,0.0,
2025-08-15T01:54:24.190Z,4,GR86-006-7,-63.3,0.155,-1.218,99.87,3.0,,0.0,0.0,
2025-08-15T01:54:24.233Z,4,GR86-006-7,-65.8,0.161,-1.248,99.89,3.0,,0.0,0.0,
2025-08-15T01:54:24.276Z,4,GR86-006-7,-66.10000000000001,0.128,-1.327,99.87,3.0,6269.0,0.0,0.0,
2025-08-15T01:54:24.362Z,4,GR86-006-7,-66.8,0.144,-1.169,69.74,3.0,,0.0,0.0,129.97
2025-08-15T01:54:24.405Z,4,GR86-006-7,-67.0,0.192,-1.295,56.31,3.0,,0.0,0.0,
2025-08-15T01:54:24.448Z,4,GR86-006-7,-67.8,0.19,-1.251,53.120000000000005,3.0,,0.0,0.0,
2025-08-15T01:54:24.492Z,4,GR86-006-7,-67.5,0.121,-1.177,53.84,3.0,6272.0,0.0,0.0,
2025-08-15T01:54:24.535Z,4,GR86-006-7,-66.4,0.09,-1.148,52.16,3.0,,0.0,0.0,130.84
2025-08-15T01:54:24.578Z,4,GR86-006-7,-65.2,0.148,-1.07,49.52,3.0,,0.0,0.0,
2025-08-15T01:54:24.665Z,4,GR86-006-7,-63.6,0.187,-1.181,48.02,3.0,,0.0,0.0,
2025-08-15T01:54:24.708Z,4,GR86-006-7,-56.5,0.097,-1.237,48.92,3.0,6284.0,0.0,0.0,
2025-08-15T01:54:24.751Z,4,GR86-006-7,-56.0,0.116,-1.407,49.08,3.0,,0.0,0.0,132.81
2025-08-15T01:54:24.794Z,4,GR86-006-7,-55.8,0.099,-1.288,52.120000000000005,3.0,,0.0,0.0,
2025-08-15T01:54:24.837Z,4,GR86-006-7,-56.7,0.151,-1.245,50.29,3.0,,0.0,0.0,
2025-08-15T01:54:24.880Z,4,GR86-006-7,-59.7,0.152,-1.258,46.42,3.0,,0.0,0.0,
2025-08-15T01:54:24.923Z,4,GR86-006-7,-62.6,0.125,-1.248,39.71,3.0,6334.0,0.0,0.0,
2025-08-15T01:54:24.966Z,4,GR86-006-7,-65.60000000000001,0.145,-1.208,37.41,3.0,,0.0,0.0,133.41
2025-08-15T01:54:25.009Z,4,GR86-006-7,-66.9,0.101,-1.228,36.64,3.0,,0.0,0.0,
2025-08-15T01:54:25.052Z,4,GR86-006-7,-67.10000000000001,0.077,-1.2,39.5,3.0,,0.0,0.0,
2025-08-15T01:54:25.095Z,4,GR86-006-7,-67.10000000000001,0.078,-1.261,59.45,3.0,,0.0,0.0,
2025-08-15T01:54:25.138Z,4,GR86-006-7,-67.10000000000001,0.062,-1.31,95.93,3.0,6381.0,0.0,0.0,
2025-08-15T01:54:25.181Z,4,GR86-006-7,-66.10000000000001,0.095,-1.302,99.91,3.0,,0.0,0.0,134.13
2025-08-15T01:54:25.224Z,4,GR86-006-7,-64.7,0.148,-1.291,99.87,3.0,,0.0,0.0,
2025-08-15T01:54:25.268Z,4,GR86-006-7,-63.2,0.175,-1.232,99.88,3.0,,0.0,0.0,
2025-08-15T01:54:25.311Z,4,GR86-006-7,-59.900000000000006,0.15,-1.244,99.88,3.0,,0.0,0.0,
2025-08-15T01:54:25.354Z,4,GR86-006-7,-56.0,0.16,-1.214,99.88,3.0,6355.0,0.0,0.0,
2025-08-15T01:54:25.397Z,4,GR86-006-7,-54.2,0.147,-1.205,99.89,3.0,,0.0,0.0,133.72
2025-08-15T01:54:25.441Z,4,GR86-006-7,-51.8,0.166,-1.144,99.88,3.0,,0.0,0.0,
2025-08-15T01:54:25.484Z,4,GR86-006-7,-48.3,0.158,-1.211,99.88,3.0,,0.0,0.0,
2025-08-15T01:54:25.570Z,4,GR86-006-7,-43.6,0.177,-1.264,99.88,3.0,6409.0,0.0,0.0,
2025-08-15T01:54:25.657Z,4,GR86-006-7,-42.7,0.16,-1.216,99.89,3.0,,0.0,0.0,134.03
2025-08-15T01:54:25.700Z,4,GR86-006-7,-42.400000000000006,0.177,-1.223,99.88,3.0,,0.0,0.0,
2025-08-15T01:54:25.743Z,4,GR86-006-7,-41.900000000000006,0.176,-1.209,99.88,3.0,,0.0,0.0,
2025-08-15T01:54:25.786Z,4,GR86-006-7,-41.0,0.151,-1.192,99.88,3.0,6459.0,0.0,0.0,
2025-08-15T01:54:25.829Z,4,GR86-006-7,-40.1,0.164,-1.175,99.88,3.0,,0.0,0.0,134.79
2025-08-15T01:54:25.872Z,4,GR86-006-7,-39.400000000000006,0.168,-1.2,99.87,3.0,,0.0,0.0,
2025-08-15T01:54:25.917Z,4,GR86-006-7,-39.5,0.191,-1.162,99.91,3.0,,0.0,0.0,
2025-08-15T01:54:25.960Z,4,GR86-006-7,-39.3,0.188,-1.145,99.88,3.0,,0.0,0.0,
2025-08-15T01:54:26.003Z,4,GR86-006-7,-38.7,0.161,-1.11,99.88,3.0,6473.0,0.0,0.0,
2025-08-15T01:54:26.046Z,4,GR86-006-7,-38.400000000000006,0.166,-1.094,99.89,3.0,,0.0,0.0,135.62
2025-08-15T01:54:26.089Z,4,GR86-006-7,-38.1,0.183,-1.131,99.89,3.0,,0.0,0.0,
2025-08-15T01:54:26.132Z,4,GR86-006-7,-37.9,0.177,-1.082,99.89,3.0,,0.0,0.0,
2025-08-15T01:54:26.176Z,4,GR86-006-7,-37.3,0.201,-1.022,99.89,3.0,,0.0,0.0,
2025-08-15T01:54:26.219Z,4,GR86-006-7,-36.1,0.163,-1.016,99.88,3.0,6509.0,0.0,0.0,
2025-08-15T01:54:26.262Z,4,GR86-006-7,-34.2,0.161,-0.879,99.88,3.0,,0.0,0.0,136.42000000000002
2025-08-15T01:54:26.305Z,4,GR86-006-7,-33.2,0.086,-0.625,99.89,3.0,,0.0,0.0,
2025-08-15T01:54:26.348Z,4,GR86-006-7,-32.2,0.094,-0.644,99.92,3.0,,0.0,0.0,
2025-08-15T01:54:26.392Z,4,GR86-006-7,-30.6,0.114,-0.6980000000000001,99.87,3.0,,0.0,0.0,
2025-08-15T01:54:26.435Z,4,GR86-006-7,-28.0,0.099,-0.975,99.89,3.0,6546.0,0.0,0.0,
2025-08-15T01:54:26.478Z,4,GR86-006-7,-24.9,0.179,-1.042,99.92,3.0,,0.0,0.0,137.13
2025-08-15T01:54:26.521Z,4,GR86-006-7,-22.1,0.283,-0.8190000000000001,99.91,3.0,,0.0,0.0,
2025-08-15T01:54:26.564Z,4,GR86-006-7,-19.6,0.193,-0.669,99.9,3.0,,0.0,0.0,
2025-08-15T01:54:26.607Z,4,GR86-006-7,-17.1,0.126,-0.998,99.89,3.0,,0.0,0.0,
2025-08-15T01:54:26.650Z,4,GR86-006-7,-15.5,0.151,-1.318,99.91,3.0,6602.0,0.0,0.0,
2025-08-15T01:54:26.693Z,4,GR86-006-7,-20.0,0.198,-1.285,99.91,3.0,,0.0,0.0,138.17000000000002
2025-08-15T01:54:26.736Z,4,GR86-006-7,-27.700000000000003,0.156,-1.419,99.9,3.0,,0.0,0.0,
2025-08-15T01:54:26.779Z,4,GR86-006-7,-34.7,0.299,-1.11,99.9,3.0,,0.0,0.0,
2025-08-15T01:54:26.822Z,4,GR86-006-7,-39.6,0.152,-1.023,99.9,3.0,,0.0,0.0,
2025-08-15T01:54:26.865Z,4,GR86-006-7,-43.1,0.076,-0.898,99.92,3.0,6674.0,0.0,0.0,
2025-08-15T01:54:26.908Z,4,GR86-006-7,-44.1,0.114,-0.983,99.9,3.0,,0.0,0.0,139.9
2025-08-15T01:54:26.951Z,4,GR86-006-7,-43.6,0.259,-1.033,99.9,3.0,,0.0,0.0,
2025-08-15T01:54:26.994Z,4,GR86-006-7,-42.0,0.207,-0.996,99.92,3.0,,0.0,0.0,
2025-08-15T01:54:27.037Z,4,GR86-006-7,-40.5,0.119,-1.062,99.89,3.0,,0.0,0.0,
2025-08-15T01:54:27.080Z,4,GR86-006-7,-38.8,0.103,-1.316,99.91,3.0,6711.0,0.0,0.0,
2025-08-15T01:54:27.123Z,4,GR86-006-7,-37.3,0.223,-1.174,99.92,3.0,,0.0,0.0,140.89
2025-08-15T01:54:27.166Z,4,GR86-006-7,-36.2,0.176,-1.219,99.92,3.0,,0.0,0.0,
2025-08-15T01:54:27.209Z,4,GR86-006-7,-35.6,0.21,-1.167,99.91,3.0,,0.0,0.0,
2025-08-15T01:54:27.254Z,4,GR86-006-7,-34.4,0.208,-0.94,99.92,3.0,,0.0,0.0,
2025-08-15T01:54:27.297Z,4,GR86-006-7,-33.1,0.163,-1.064,99.93,3.0,6818.0,0.0,0.0,
2025-08-15T01:54:27.341Z,4,GR86-006-7,-32.0,0.229,-0.891,99.92,3.0,,0.0,0.0,141.82
2025-08-15T01:54:27.384Z,4,GR86-006-7,-28.0,0.136,-1.037,99.92,3.0,,0.0,0.0,
2025-08-15T01:54:27.427Z,4,GR86-006-7,-22.5,0.203,-0.898,99.91,3.0,,0.0,0.0,
2025-08-15T01:54:27.470Z,4,GR86-006-7,-17.2,0.187,-0.942,99.91,3.0,,0.0,0.0,
2025-08-15T01:54:27.557Z,4,GR86-006-7,-10.8,0.259,-0.72,99.91,3.0,6834.0,0.0,0.0,143.36
2025-08-15T01:54:27.600Z,4,GR86-006-7,-10.3,0.221,-0.73,99.92,3.0,,0.0,0.0,
2025-08-15T01:54:27.643Z,4,GR86-006-7,-9.5,0.226,-0.6950000000000001,99.9,3.0,,0.0,0.0,
2025-08-15T01:54:27.686Z,4,GR86-006-7,-8.700000000000001,0.19,-0.501,99.93,3.0,,0.0,0.0,
2025-08-15T01:54:27.729Z,4,GR86-006-7,-8.200000000000001,0.186,-0.411,99.92,3.0,6849.0,0.0,0.0,
2025-08-15T01:54:27.772Z,4,GR86-006-7,-4.2,0.172,-0.337,99.92,3.0,,0.0,0.0,144.26
2025-08-15T01:54:27.815Z,4,GR86-006-7,-3.0,0.16,-0.318,99.91,3.0,,0.0,0.0,
2025-08-15T01:54:27.858Z,4,GR86-006-7,-2.9000000000000004,0.273,-0.3,99.91,3.0,,0.0,0.0,
2025-08-15T01:54:27.901Z,4,GR86-006-7,-2.9000000000000004,0.13,-0.125,99.92,3.0,,0.0,0.0,
2025-08-15T01:54:27.944Z,4,GR86-006-7,-2.5,0.136,-0.113,99.91,3.0,6877.0,0.0,0.0,
2025-08-15T01:54:27.987Z,4,GR86-006-7,-2.0,0.191,-0.102,99.92,3.0,,0.0,0.0,145.98
2025-08-15T01:54:28.030Z,4,GR86-006-7,-1.8,0.198,-0.153,99.91,3.0,,0.0,0.0,
2025-08-15T01:54:28.073Z,4,GR86-006-7,-1.1,0.163,-0.096,99.92,3.0,,0.0,0.0,
2025-08-15T01:54:28.117Z,4,GR86-006-7,-0.1,0.14,-0.198,99.91,3.0,,0.0,0.0,
2025-08-15T01:54:28.160Z,4,GR86-006-7,2.5,0.221,-0.165,99.91,3.0,6949.0,0.0,0.0,
2025-08-15T01:54:28.203Z,4,GR86-006-7,5.0,0.181,-0.107,99.92,3.0,,0.0,0.0,147.12
2025-08-15T01:54:28.246Z,4,GR86-006-7,6.0,0.287,-0.071,99.92,3.0,,0.0,0.0,
2025-08-15T01:54:28.289Z,4,GR86-006-7,6.2,0.165,-0.021,99.92,3.0,,0.0,0.0,
2025-08-15T01:54:28.332Z,4,GR86-006-7,5.9,0.128,0.092,99.91,3.0,,0.0,0.0,
2025-08-15T01:54:28.375Z,4,GR86-006-7,5.800000000000001,0.301,0.145,99.91,3.0,7027.0,0.0,0.0,
2025-08-15T01:54:28.418Z,4,GR86-006-7,5.6000000000000005,0.166,0.183,99.92,3.0,,0.0,0.0,148.88
2025-08-15T01:54:28.461Z,4,GR86-006-7,5.4,0.173,0.207,99.92,3.0,,0.0,0.0,
2025-08-15T01:54:28.504Z,4,GR86-006-7,5.300000000000001,0.239,0.214,99.91,3.0,,0.0,0.0,
2025-08-15T01:54:28.547Z,4,GR86-006-7,5.0,0.214,0.134,99.91,3.0,,0.0,0.0,
2025-08-15T01:54:28.590Z,4,GR86-006-7,4.800000000000001,0.158,0.158,99.92,3.0,7049.0,0.0,0.0,
2025-08-15T01:54:28.633Z,4,GR86-006-7,4.9,0.171,0.095,99.92,3.0,,0.0,0.0,150.41
2025-08-15T01:54:28.678Z,4,GR86-006-7,5.0,0.214,0.07,99.89,3.0,,0.0,0.0,
2025-08-15T01:54:28.721Z,4,GR86-006-7,5.800000000000001,0.199,0.047,99.92,3.0,,0.0,0.0,
2025-08-15T01:54:28.764Z,4,GR86-006-7,5.9,0.199,0.057,99.92,3.0,,0.0,0.0,
2025-08-15T01:54:28.807Z,4,GR86-006-7,5.9,0.186,0.077,99.91,3.0,7125.0,0.0,0.0,
2025-08-15T01:54:28.850Z,4,GR86-006-7,6.4,0.171,0.084,99.91,3.0,,0.0,0.0,151.65
2025-08-15T01:54:28.893Z,4,GR86-006-7,7.0,0.163,0.125,99.92,3.0,,0.0,0.0,
2025-08-15T01:54:28.937Z,4,GR86-006-7,6.9,-0.111,0.181,99.93,4.0,,0.0,0.0,
2025-08-15T01:54:28.980Z,4,GR86-006-7,6.9,0.215,0.217,99.92,4.0,,0.0,0.0,
2025-08-15T01:54:29.023Z,4,GR86-006-7,7.2,0.343,0.118,99.91,4.0,7193.0,0.0,0.0,
2025-08-15T01:54:29.068Z,4,GR86-006-7,7.300000000000001,0.308,0.188,99.91,4.0,,0.0,0.0,153.31
2025-08-15T01:54:29.111Z,4,GR86-006-7,7.300000000000001,0.142,0.248,99.9,4.0,,0.0,0.0,
2025-08-15T01:54:29.154Z,4,GR86-006-7,7.2,0.102,0.128,99.92,4.0,,0.0,0.0,
2025-08-15T01:54:29.197Z,4,GR86-006-7,7.2,0.168,0.193,99.91,4.0,,0.0,0.0,
2025-08-15T01:54:29.241Z,4,GR86-006-7,7.5,0.212,0.194,99.92,4.0,7137.0,0.0,0.0,
2025-08-15T01:54:29.284Z,4,GR86-006-7,8.0,0.142,0.189,99.92,4.0,,0.0,0.0,154.88
2025-08-15T01:54:29.327Z,4,GR86-006-7,8.6,0.151,0.244,99.92,4.0,,0.0,0.0,
2025-08-15T01:54:29.370Z,4,GR86-006-7,9.4,0.151,0.229,99.91,4.0,,0.0,0.0,
2025-08-15T01:54:29.413Z,4,GR86-006-7,10.1,0.147,0.274,99.93,4.0,,0.0,0.0,
2025-08-15T01:54:29.457Z,4,GR86-006-7,10.5,0.159,0.293,99.91,4.0,6045.0,0.0,0.0,
2025-08-15T01:54:29.500Z,4,GR86-006-7,10.5,0.157,0.314,99.92,4.0,,0.0,0.0,156.24
2025-08-15T01:54:29.543Z,4,GR86-006-7,10.4,0.142,0.32,99.92,4.0,,0.0,0.0,
2025-08-15T01:54:29.586Z,4,GR86-006-7,10.4,0.154,0.356,99.91,4.0,,0.0,0.0,
2025-08-15T01:54:29.629Z,4,GR86-006-7,10.2,0.162,0.336,99.92,4.0,,0.0,0.0,
2025-08-15T01:54:29.672Z,4,GR86-006-7,10.1,0.139,0.36,99.93,4.0,6220.0,0.0,0.0,
2025-08-15T01:54:29.715Z,4,GR86-006-7,10.1,0.14,0.358,99.91,4.0,,0.0,0.0,159.3
2025-08-15T01:54:29.758Z,4,GR86-006-7,10.3,0.154,0.349,99.92,4.0,,0.0,0.0,
2025-08-15T01:54:29.801Z,4,GR86-006-7,10.8,0.155,0.363,99.93,4.0,,0.0,0.0,
2025-08-15T01:54:29.844Z,4,GR86-006-7,10.7,0.155,0.35,99.92,4.0,,0.0,0.0,
2025-08-15T01:54:29.887Z,4,GR86-006-7,10.5,0.15,0.352,99.9,4.0,6281.0,0.0,0.0,
2025-08-15T01:54:29.930Z,4,GR86-006-7,10.3,0.141,0.312,99.93,4.0,,0.0,0.0,160.71
2025-08-15T01:54:29.973Z,4,GR86-006-7,10.1,0.143,0.286,99.92,4.0,,0.0,0.0,
2025-08-15T01:54:30.016Z,4,GR86-006-7,10.0,0.169,0.246,99.91,4.0,,0.0,0.0,
2025-08-15T01:54:30.059Z,4,GR86-006-7,10.0,0.136,0.239,99.92,4.0,,0.0,0.0,
2025-08-15T01:54:30.102Z,4,GR86-006-7,9.9,0.146,0.194,99.92,4.0,6337.0,0.0,0.0,
2025-08-15T01:54:30.147Z,4,GR86-006-7,9.9,0.132,0.197,99.91,4.0,,0.0,0.0,162.38
2025-08-15T01:54:30.190Z,4,GR86-006-7,9.9,0.125,0.159,99.91,4.0,,0.0,0.0,
2025-08-15T01:54:30.233Z,4,GR86-006-7,9.9,0.149,0.171,99.92,4.0,,0.0,0.0,
2025-08-15T01:54:30.276Z,4,GR86-006-7,12.5,0.152,0.202,99.91,4.0,,0.0,0.0,
2025-08-15T01:54:30.319Z,4,GR86-006-7,14.3,0.138,0.222,99.94,4.0,6443.0,0.0,0.0,
2025-08-15T01:54:30.362Z,4,GR86-006-7,14.0,0.131,0.264,99.92,4.0,,0.0,0.0,163.82
2025-08-15T01:54:30.405Z,4,GR86-006-7,13.6,0.107,0.309,99.92,4.0,,0.0,0.0,
2025-08-15T01:54:30.448Z,4,GR86-006-7,13.4,0.159,0.311,99.92,4.0,,0.0,0.0,
2025-08-15T01:54:30.492Z,4,GR86-006-7,12.8,0.149,0.311,99.91,4.0,,0.0,0.0,
2025-08-15T01:54:30.535Z,4,GR86-006-7,12.8,0.126,0.298,99.92,4.0,6507.0,0.0,0.0,
2025-08-15T01:54:30.578Z,4,GR86-006-7,12.7,0.112,0.32,99.91,4.0,,0.0,0.0,165.34
2025-08-15T01:54:30.621Z,4,GR86-006-7,13.8,0.139,0.294,99.91,4.0,,0.0,0.0,
2025-08-15T01:54:30.664Z,4,GR86-006-7,18.3,0.131,0.336,99.91,4.0,,0.0,0.0,
2025-08-15T01:54:30.707Z,4,GR86-006-7,19.3,0.109,0.387,99.9,4.0,,0.0,0.0,
2025-08-15T01:54:30.750Z,4,GR86-006-7,18.9,0.128,0.402,99.92,4.0,6555.0,0.0,0.0,
2025-08-15T01:54:30.793Z,4,GR86-006-7,18.6,0.137,0.5,99.91,4.0,,0.0,0.0,166.83
2025-08-15T01:54:30.836Z,4,GR86-006-7,18.5,0.129,0.522,99.92,4.0,,0.0,0.0,
2025-08-15T01:54:30.879Z,4,GR86-006-7,18.3,0.13,0.557,99.9,4.0,,0.0,0.0,
2025-08-15T01:54:30.922Z,4,GR86-006-7,18.2,0.131,0.5730000000000001,99.92,4.0,,0.0,0.0,
2025-08-15T01:54:30.965Z,4,GR86-006-7,18.1,0.124,0.592,99.92,4.0,6621.0,0.0,0.0,
2025-08-15T01:54:31.008Z,4,GR86-006-7,17.7,0.114,0.59,99.92,4.0,,0.0,0.0,168.34
2025-08-15T01:54:31.052Z,4,GR86-006-7,17.400000000000002,0.145,0.524,99.94,4.0,,0.0,0.0,
2025-08-15T01:54:31.096Z,4,GR86-006-7,15.9,0.146,0.467,99.92,4.0,,0.0,0.0,
2025-08-15T01:54:31.139Z,4,GR86-006-7,12.7,0.133,0.429,99.91,4.0,,0.0,0.0,
2025-08-15T01:54:31.182Z,4,GR86-006-7,8.3,0.13,0.374,99.92,4.0,6692.0,0.0,0.0,
2025-08-15T01:54:31.225Z,4,GR86-006-7,5.9,0.119,0.303,99.92,4.0,,0.0,0.0,169.93
2025-08-15T01:54:31.268Z,4,GR86-006-7,3.4000000000000004,0.146,0.209,99.92,4.0,,0.0,0.0,
2025-08-15T01:54:31.311Z,4,GR86-006-7,-0.1,0.142,0.086,99.93,4.0,,0.0,0.0,
2025-08-15T01:54:31.354Z,4,GR86-006-7,-4.2,0.146,-0.068,99.92,4.0,,0.0,0.0,
2025-08-15T01:54:31.397Z,4,GR86-006-7,-8.1,0.158,-0.176,99.92,4.0,6740.0,0.0,0.0,
2025-08-15T01:54:31.441Z,4,GR86-006-7,-11.2,0.148,-0.315,99.91,4.0,,0.0,0.0,171.31
2025-08-15T01:54:31.484Z,4,GR86-006-7,-13.7,0.148,-0.389,99.06,4.0,,0.0,0.0,
2025-08-15T01:54:31.527Z,4,GR86-006-7,-14.3,0.142,-0.486,61.46,4.0,,0.0,0.0,
2025-08-15T01:54:31.570Z,4,GR86-006-7,-14.5,0.145,-0.5660000000000001,58.370000000000005,4.0,,0.0,0.0,
2025-08-15T01:54:31.614Z,4,GR86-006-7,-14.3,0.123,-0.616,37.7,4.0,6787.0,0.0,0.0,
2025-08-15T01:54:31.657Z,4,GR86-006-7,-13.5,0.121,-0.651,31.49,4.0,,0.0,0.0,172.82
2025-08-15T01:54:31.700Z,4,GR86-006-7,-12.9,0.072,-0.683,13.8,4.0,,0.0,0.0,
2025-08-15T01:54:31.743Z,4,GR86-006-7,-13.0,0.038,-0.722,4.12,4.0,,0.0,0.0,
2025-08-15T01:54:31.786Z,4,GR86-006-7,-13.4,-0.041,-0.756,4.1,4.0,,0.0,0.0,
2025-08-15T01:54:31.829Z,4,GR86-006-7,-13.3,-0.099,-0.742,3.94,4.0,6846.0,0.0,0.0,
2025-08-15T01:54:31.872Z,4,GR86-006-7,-12.2,-0.371,-0.789,4.03,4.0,,0.0,0.0,173.97
2025-08-15T01:54:31.917Z,4,GR86-006-7,-11.5,-0.209,-0.734,5.03,4.0,,0.0,0.0,
2025-08-15T01:54:31.960Z,4,GR86-006-7,-11.0,-0.107,-0.7030000000000001,5.14,4.0,,0.0,0.0,
2025-08-15T01:54:32.003Z,4,GR86-006-7,-10.6,-0.152,-0.747,7.71,4.0,,0.0,0.0,
2025-08-15T01:54:32.046Z,4,GR86-006-7,-10.3,-0.213,-0.707,14.74,4.0,6867.0,0.0,0.0,
2025-08-15T01:54:32.089Z,4,GR86-006-7,-9.7,-0.195,-0.6910000000000001,14.62,4.0,,0.0,0.0,175.24
2025-08-15T01:54:32.132Z,4,GR86-006-7,-9.5,-0.067,-0.638,14.66,4.0,,0.0,0.0,
2025-08-15T01:54:32.176Z,4,GR86-006-7,-9.4,-0.088,-0.59,15.47,4.0,,0.0,0.0,
2025-08-15T01:54:32.219Z,4,GR86-006-7,-9.3,-0.075,-0.54,17.740000000000002,4.0,,0.0,0.0,
2025-08-15T01:54:32.262Z,4,GR86-006-7,-9.3,-0.109,-0.545,19.15,4.0,6815.0,0.0,0.0,
2025-08-15T01:54:32.305Z,4,GR86-006-7,-9.3,-0.12,-0.544,19.97,4.0,,0.0,0.0,176.26
2025-08-15T01:54:32.348Z,4,GR86-006-7,-9.2,-0.103,-0.521,19.02,4.0,,0.0,0.0,
2025-08-15T01:54:32.391Z,4,GR86-006-7,-9.0,-0.11,-0.523,7.81,4.0,,0.0,0.0,
2025-08-15T01:54:32.434Z,4,GR86-006-7,-8.6,-0.065,-0.455,4.3100000000000005,4.0,,5.705,5.83,
2025-08-15T01:54:32.477Z,4,GR86-006-7,-8.200000000000001,-0.091,-0.462,4.07,4.0,6820.0,9.005,9.005,
2025-08-15T01:54:32.520Z,4,GR86-006-7,-7.300000000000001,-0.298,-0.424,3.77,4.0,,13.95,13.885,174.91
2025-08-15T01:54:32.563Z,4,GR86-006-7,-5.5,-0.422,-0.379,3.43,4.0,,22.31,22.22,
2025-08-15T01:54:32.606Z,4,GR86-006-7,-4.9,-0.728,-0.314,3.13,4.0,,28.645,28.34,
2025-08-15T01:54:32.649Z,4,GR86-006-7,-4.800000000000001,-0.7030000000000001,-0.272,2.91,4.0,,35.800000000000004,35.525,
2025-08-15T01:54:32.692Z,4,GR86-006-7,-4.3,-0.808,-0.255,2.75,4.0,6763.0,39.125,39.525,
2025-08-15T01:54:32.735Z,4,GR86-006-7,-4.1000000000000005,-0.789,-0.239,2.7,4.0,,39.005,39.585,174.57
2025-08-15T01:54:32.778Z,4,GR86-006-7,-4.1000000000000005,-0.798,-0.258,2.65,4.0,,39.065,39.585,
2025-08-15T01:54:32.821Z,4,GR86-006-7,-2.9000000000000004,-0.874,-0.252,2.62,4.0,,39.46,39.905,
2025-08-15T01:54:32.864Z,4,GR86-006-7,-1.4,-0.874,-0.247,2.6,4.0,,40.18,40.56,
2025-08-15T01:54:32.907Z,4,GR86-006-7,1.2000000000000002,-0.906,-0.271,2.58,4.0,6632.0,40.56,40.685,
2025-08-15T01:54:32.950Z,4,GR86-006-7,2.1,-0.921,-0.229,2.57,4.0,,40.53,40.96,170.95000000000002
2025-08-15T01:54:32.993Z,4,GR86-006-7,2.5,-0.899,-0.214,7.0,4.0,,40.865,41.37,
2025-08-15T01:54:33.036Z,4,GR86-006-7,2.6,-0.939,-0.18,49.89,4.0,,42.18,42.425,
2025-08-15T01:54:33.079Z,4,GR86-006-7,4.4,-0.993,-0.153,95.4,4.0,,46.115,45.75,
2025-08-15T01:54:33.122Z,4,GR86-006-7,5.1000000000000005,-1.06,-0.104,98.53,3.0,6205.0,52.435,51.715,
2025-08-15T01:54:33.165Z,4,GR86-006-7,5.300000000000001,-1.175,-0.105,41.63,3.0,,57.56,56.965,165.03
2025-08-15T01:54:33.208Z,4,GR86-006-7,5.300000000000001,-1.303,-0.011,4.3,3.0,,59.21,59.805,
2025-08-15T01:54:33.251Z,4,GR86-006-7,4.4,-1.113,0.042,2.91,3.0,,60.645,62.335,
2025-08-15T01:54:33.294Z,4,GR86-006-7,-2.0,-1.189,-0.146,2.69,3.0,,56.46,57.15,
2025-08-15T01:54:33.337Z,4,GR86-006-7,-3.7,-1.077,-0.046,2.64,3.0,6045.0,53.96,55.485,
2025-08-15T01:54:33.380Z,4,GR86-006-7,-3.0,-0.991,-0.207,2.62,3.0,,50.1,51.99,159.54
2025-08-15T01:54:33.423Z,4,GR86-006-7,-2.0,-0.993,-0.173,2.59,3.0,,47.52,49.075,
2025-08-15T01:54:33.466Z,4,GR86-006-7,0.3,-1.02,-0.056,2.58,3.0,,46.465,47.9,
2025-08-15T01:54:33.509Z,4,GR86-006-7,0.3,-1.022,-0.175,2.5500000000000003,3.0,,46.175,47.55,
2025-08-15T01:54:33.554Z,4,GR86-006-7,0.3,-0.973,-0.155,2.56,3.0,6699.0,45.125,46.62,
2025-08-15T01:54:33.597Z,4,GR86-006-7,0.4,-0.926,-0.229,2.5500000000000003,3.0,,44.315,45.81,152.18
2025-08-15T01:54:33.640Z,4,GR86-006-7,0.4,-0.96,-0.248,2.52,3.0,,42.715,44.025,
2025-08-15T01:54:33.726Z,4,GR86-006-7,0.6000000000000001,-0.925,-0.233,2.52,3.0,,40.865,42.15,
2025-08-15T01:54:33.769Z,4,GR86-006-7,0.8,-0.845,-0.245,31.68,3.0,6480.0,35.375,36.9,
2025-08-15T01:54:33.814Z,4,GR86-006-7,1.9,-0.797,-0.202,97.51,3.0,,32.335,33.525,145.06
2025-08-15T01:54:33.900Z,4,GR86-006-7,1.9,-1.099,-0.174,7.37,2.0,,31.83,32.595,
2025-08-15T01:54:33.943Z,4,GR86-006-7,1.9,-0.748,-0.183,78.14,2.0,,31.77,32.505,
2025-08-15T01:54:33.986Z,4,GR86-006-7,1.8,-0.837,-0.219,2.78,2.0,6159.0,34.595,35.175000000000004,
2025-08-15T01:54:34.029Z,4,GR86-006-7,-1.0,-1.154,-0.341,2.69,2.0,,34.9,35.235,138.25
2025-08-15T01:54:34.072Z,4,GR86-006-7,-7.2,-0.855,-0.24,2.62,2.0,,37.295,37.83,
2025-08-15T01:54:34.117Z,4,GR86-006-7,-10.0,-0.922,-0.439,2.59,2.0,,36.67,37.05,
2025-08-15T01:54:34.160Z,4,GR86-006-7,-10.1,-0.883,-0.304,2.58,2.0,,36.9,37.355,
2025-08-15T01:54:34.203Z,4,GR86-006-7,-9.1,-0.849,-0.397,2.59,2.0,6486.0,36.55,37.11,
2025-08-15T01:54:34.246Z,4,GR86-006-7,-7.0,-0.847,-0.456,2.5500000000000003,2.0,,34.96,35.83,132.85
2025-08-15T01:54:34.289Z,4,GR86-006-7,-5.9,-0.807,-0.367,2.5500000000000003,2.0,,32.475,33.71,
2025-08-15T01:54:34.332Z,4,GR86-006-7,-5.4,-0.727,-0.457,2.52,2.0,,27.085,28.43,
2025-08-15T01:54:34.375Z,4,GR86-006-7,-5.9,-0.6960000000000001,-0.4,2.52,2.0,,24.46,25.575,
2025-08-15T01:54:34.418Z,4,GR86-006-7,-10.5,-0.667,-0.45,2.52,2.0,6920.0,23.835,24.555,
2025-08-15T01:54:34.461Z,4,GR86-006-7,-18.3,-0.669,-0.493,2.5,2.0,,24.08,24.89,127.23
2025-08-15T01:54:34.504Z,4,GR86-006-7,-24.8,-0.666,-0.5660000000000001,2.49,2.0,,24.28,24.86,
2025-08-15T01:54:34.547Z,4,GR86-006-7,-28.0,-0.687,-0.637,2.49,2.0,,24.675,25.27,
2025-08-15T01:54:34.633Z,4,GR86-006-7,-31.5,-0.68,-0.722,2.49,2.0,6671.0,22.935,23.745,
2025-08-15T01:54:34.676Z,4,GR86-006-7,-32.300000000000004,-0.642,-0.74,2.49,2.0,,20.935,21.835,121.62
2025-08-15T01:54:34.719Z,4,GR86-006-7,-32.800000000000004,-0.601,-0.842,2.49,2.0,,19.425,20.295,
2025-08-15T01:54:34.762Z,4,GR86-006-7,-33.1,-0.526,-0.859,2.49,2.0,,16.71,17.55,
2025-08-15T01:54:34.805Z,4,GR86-006-7,-33.1,-0.474,-0.951,2.49,2.0,,12.925,13.915,
2025-08-15T01:54:34.848Z,4,GR86-006-7,-33.4,-0.425,-0.971,2.49,2.0,6457.0,9.845,10.62,
2025-08-15T01:54:34.891Z,4,GR86-006-7,-35.2,-0.414,-1.016,2.49,2.0,,8.700000000000001,9.52,116.49
2025-08-15T01:54:34.934Z,4,GR86-006-7,-40.900000000000006,-0.355,-1.052,2.49,2.0,,7.83,8.515,
2025-08-15T01:54:34.978Z,4,GR86-006-7,-45.5,-0.34,-1.111,2.49,2.0,,7.615,8.15,
2025-08-15T01:54:35.021Z,4,GR86-006-7,-49.7,-0.349,-1.111,2.49,2.0,,7.675,8.09,
2025-08-15T01:54:35.064Z,4,GR86-006-7,-52.400000000000006,-0.342,-1.161,2.49,2.0,6202.0,7.675,8.15,
2025-08-15T01:54:35.107Z,4,GR86-006-7,-53.1,-0.356,-1.167,2.49,2.0,,7.555,8.01,113.25
2025-08-15T01:54:35.150Z,4,GR86-006-7,-53.2,-0.341,-1.192,2.49,2.0,,6.96,7.645,
2025-08-15T01:54:35.193Z,4,GR86-006-7,-53.400000000000006,-0.305,-1.196,2.49,2.0,,4.3950000000000005,5.05,
2025-08-15T01:54:35.237Z,4,GR86-006-7,-53.6,-0.253,-1.247,2.49,2.0,,1.86,2.335,
2025-08-15T01:54:35.280Z,4,GR86-006-7,-53.6,-0.205,-1.222,2.49,2.0,6041.0,0.0,0.0,
2025-08-15T01:54:35.324Z,4,GR86-006-7,-53.6,-0.191,-1.254,2.63,2.0,,0.0,0.0,107.66
2025-08-15T01:54:35.368Z,4,GR86-006-7,-53.6,-0.185,-1.251,3.18,2.0,,0.0,0.0,
2025-08-15T01:54:35.411Z,4,GR86-006-7,-53.6,-0.164,-1.236,4.36,2.0,,0.0,0.0,
2025-08-15T01:54:35.454Z,4,GR86-006-7,-54.6,-0.182,-1.264,6.98,2.0,,0.0,0.0,
2025-08-15T01:54:35.497Z,4,GR86-006-7,-55.1,-0.189,-1.31,12.68,2.0,5886.0,0.0,0.0,
2025-08-15T01:54:35.540Z,4,GR86-006-7,-55.3,-0.161,-1.288,20.63,2.0,,0.0,0.0,105.58
2025-08-15T01:54:35.583Z,4,GR86-006-7,-55.5,-0.151,-1.296,22.84,2.0,,0.0,0.0,
2025-08-15T01:54:35.626Z,4,GR86-006-7,-55.7,-0.142,-1.311,27.42,2.0,,0.0,0.0,
2025-08-15T01:54:35.669Z,4,GR86-006-7,-55.5,-0.131,-1.322,33.4,2.0,,0.0,0.0,
2025-08-15T01:54:35.714Z,4,GR86-006-7,-55.400000000000006,-0.113,-1.37,41.5,2.0,5694.0,0.0,0.0,
2025-08-15T01:54:35.757Z,4,GR86-006-7,-55.400000000000006,0.052,-1.334,54.79,2.0,,0.0,0.0,103.94
2025-08-15T01:54:35.800Z,4,GR86-006-7,-55.6,0.219,-1.295,60.57,2.0,,0.0,0.0,
2025-08-15T01:54:35.843Z,4,GR86-006-7,-57.2,0.229,-1.275,77.14,2.0,,0.0,0.0,
2025-08-15T01:54:35.886Z,4,GR86-006-7,-60.1,0.277,-1.239,94.68,2.0,,0.0,0.0,
2025-08-15T01:54:35.972Z,4,GR86-006-7,-64.0,0.275,-1.238,99.47,2.0,5875.0,0.0,0.0,102.35
2025-08-15T01:54:36.015Z,4,GR86-006-7,-68.0,0.225,-1.229,99.84,2.0,,0.0,0.0,
2025-08-15T01:54:36.101Z,4,GR86-006-7,-68.0,0.22,-1.206,99.85,2.0,,0.0,0.0,
2025-08-15T01:54:36.144Z,4,GR86-006-7,-68.9,0.224,-1.169,99.84,2.0,6058.0,0.0,0.0,
2025-08-15T01:54:36.187Z,4,GR86-006-7,-69.5,0.235,-1.163,99.85,2.0,,0.0,0.0,101.43
2025-08-15T01:54:36.230Z,4,GR86-006-7,-70.60000000000001,0.204,-1.138,99.86,2.0,,0.0,0.0,
2025-08-15T01:54:36.273Z,4,GR86-006-7,-71.3,0.213,-1.177,99.85,2.0,,0.0,0.0,
2025-08-15T01:54:36.316Z,4,GR86-006-7,-71.3,0.231,-1.14,99.86,2.0,,0.0,0.0,
2025-08-15T01:54:36.359Z,4,GR86-006-7,-71.3,0.216,-1.089,99.85,2.0,6078.0,0.0,0.0,
2025-08-15T01:54:36.402Z,4,GR86-006-7,-71.3,0.232,-1.125,99.87,2.0,,0.0,0.0,101.76
2025-08-15T01:54:36.447Z,4,GR86-006-7,-71.3,0.209,-1.12,99.85,2.0,,0.0,0.0,
2025-08-15T01:54:36.490Z,4,GR86-006-7,-71.0,0.232,-1.085,99.84,2.0,,0.0,0.0,
2025-08-15T01:54:36.533Z,4,GR86-006-7,-68.3,0.235,-1.154,99.86,2.0,,0.0,0.0,
2025-08-15T01:54:36.578Z,4,GR86-006-7,-65.8,0.207,-1.099,99.85,2.0,6129.0,0.0,0.0,
2025-08-15T01:54:36.621Z,4,GR86-006-7,-63.400000000000006,0.215,-1.1,99.85,2.0,,0.0,0.0,102.89
2025-08-15T01:54:36.664Z,4,GR86-006-7,-61.900000000000006,0.243,-1.091,99.86,2.0,,0.0,0.0,
2025-08-15T01:54:36.707Z,4,GR86-006-7,-60.8,0.218,-1.154,99.86,2.0,,0.0,0.0,
2025-08-15T01:54:36.750Z,4,GR86-006-7,-59.2,0.206,-1.111,99.87,2.0,,0.0,0.0,
2025-08-15T01:54:36.793Z,4,GR86-006-7,-58.400000000000006,0.207,-1.245,99.89,2.0,6193.0,0.0,0.0,
2025-08-15T01:54:36.836Z,4,GR86-006-7,-58.6,0.213,-1.181,99.86,2.0,,0.0,0.0,104.13
2025-08-15T01:54:36.879Z,4,GR86-006-7,-58.7,0.23,-1.162,99.89,2.0,,0.0,0.0,
2025-08-15T01:54:36.922Z,4,GR86-006-7,-58.7,0.212,-1.121,99.86,2.0,,0.0,0.0,
2025-08-15T01:54:37.008Z,4,GR86-006-7,-58.2,0.205,-1.144,99.87,2.0,6243.0,0.0,0.0,
2025-08-15T01:54:37.051Z,4,GR86-006-7,-52.900000000000006,0.217,-1.093,99.86,2.0,,0.0,0.0,105.51
2025-08-15T01:54:37.094Z,4,GR86-006-7,-46.1,0.196,-1.087,99.87,2.0,,0.0,0.0,
2025-08-15T01:54:37.137Z,4,GR86-006-7,-41.6,0.224,-1.119,99.89,2.0,,0.0,0.0,
2025-08-15T01:54:37.180Z,4,GR86-006-7,-37.8,0.249,-1.115,99.88,2.0,,0.0,0.0,
2025-08-15T01:54:37.223Z,4,GR86-006-7,-35.800000000000004,0.254,-1.077,99.86,2.0,6321.0,0.0,0.0,
2025-08-15T01:54:37.266Z,4,GR86-006-7,-35.6,0.254,-1.043,99.88,2.0,,0.0,0.0,107.11
2025-08-15T01:54:37.309Z,4,GR86-006-7,-35.6,0.223,-1.075,99.86,2.0,,0.0,0.0,
2025-08-15T01:54:37.352Z,4,GR86-006-7,-36.6,0.21,-1.132,99.88,2.0,,0.0,0.0,
2025-08-15T01:54:37.396Z,4,GR86-006-7,-38.6,0.232,-1.115,99.89,2.0,,0.0,0.0,
2025-08-15T01:54:37.439Z,4,GR86-006-7,-39.5,0.234,-1.222,99.89,2.0,6400.0,0.0,0.0,
2025-08-15T01:54:37.483Z,4,GR86-006-7,-39.0,0.229,-1.175,99.87,2.0,,0.0,0.0,108.14
2025-08-15T01:54:37.526Z,4,GR86-006-7,-36.5,0.243,-1.214,99.88,2.0,,0.0,0.0,
2025-08-15T01:54:37.569Z,4,GR86-006-7,-34.800000000000004,0.236,-1.163,99.89,2.0,,0.0,0.0,
2025-08-15T01:54:37.614Z,4,GR86-006-7,-34.9,0.251,-1.027,99.89,2.0,,0.0,0.0,
2025-08-15T01:54:37.657Z,4,GR86-006-7,-35.300000000000004,0.235,-1.009,99.89,2.0,6456.0,0.0,0.0,
2025-08-15T01:54:37.700Z,4,GR86-006-7,-35.5,0.234,-0.966,99.87,2.0,,0.0,0.0,109.66
2025-08-15T01:54:37.743Z,4,GR86-006-7,-35.5,0.236,-0.948,99.87,2.0,,0.0,0.0,
2025-08-15T01:54:37.786Z,4,GR86-006-7,-35.5,0.231,-0.931,99.88,2.0,,0.0,0.0,
2025-08-15T01:54:37.829Z,4,GR86-006-7,-36.2,0.261,-0.91,99.89,2.0,,0.0,0.0,
2025-08-15T01:54:37.872Z,4,GR86-006-7,-39.5,0.248,-0.899,99.88,2.0,6515.0,0.0,0.0,
2025-08-15T01:54:37.917Z,4,GR86-006-7,-41.1,0.213,-0.954,99.89,2.0,,0.0,0.0,112.39
2025-08-15T01:54:37.960Z,4,GR86-006-7,-43.0,0.217,-0.904,99.89,2.0,,0.0,0.0,
2025-08-15T01:54:38.003Z,4,GR86-006-7,-45.6,0.227,-0.941,99.89,2.0,,0.0,0.0,
2025-08-15T01:54:38.046Z,4,GR86-006-7,-47.2,0.219,-1.004,99.89,2.0,,0.0,0.0,
2025-08-15T01:54:38.089Z,4,GR86-006-7,-47.1,0.214,-0.968,99.89,2.0,6557.0,0.0,0.0,
2025-08-15T01:54:38.133Z,4,GR86-006-7,-44.8,0.217,-1.04,99.88,2.0,,0.0,0.0,113.0
2025-08-15T01:54:38.176Z,4,GR86-006-7,-42.8,0.229,-1.04,99.89,2.0,,0.0,0.0,
2025-08-15T01:54:38.219Z,4,GR86-006-7,-41.3,0.226,-1.05,99.88,2.0,,0.0,0.0,
2025-08-15T01:54:38.263Z,4,GR86-006-7,-40.3,0.241,-1.081,99.89,2.0,,0.0,0.0,
2025-08-15T01:54:38.307Z,4,GR86-006-7,-40.0,0.227,-1.126,99.89,2.0,6635.0,0.0,0.0,
2025-08-15T01:54:38.350Z,4,GR86-006-7,-40.6,0.216,-1.106,99.88,2.0,,0.0,0.0,114.56
2025-08-15T01:54:38.393Z,4,GR86-006-7,-41.2,0.223,-1.129,99.88,2.0,,0.0,0.0,
2025-08-15T01:54:38.437Z,4,GR86-006-7,-41.2,0.232,-1.107,99.88,2.0,,0.0,0.0,
2025-08-15T01:54:38.480Z,4,GR86-006-7,-40.900000000000006,0.225,-1.091,99.87,2.0,,0.0,0.0,
2025-08-15T01:54:38.523Z,4,GR86-006-7,-39.7,0.23,-1.144,99.89,2.0,6865.0,0.0,0.0,
2025-08-15T01:54:38.566Z,4,GR86-006-7,-38.7,0.241,-1.096,99.89,2.0,,0.0,0.0,117.19
2025-08-15T01:54:38.609Z,4,GR86-006-7,-37.3,0.217,-1.122,99.88,2.0,,0.0,0.0,
2025-08-15T01:54:38.654Z,4,GR86-006-7,-34.800000000000004,0.219,-1.166,99.88,2.0,,0.0,0.0,
2025-08-15T01:54:38.697Z,4,GR86-006-7,-29.9,0.237,-1.151,99.88,2.0,,0.0,0.0,
2025-08-15T01:54:38.740Z,4,GR86-006-7,-24.200000000000003,0.333,-1.029,99.87,2.0,6959.0,0.0,0.0,
2025-08-15T01:54:38.783Z,4,GR86-006-7,-20.200000000000003,0.352,-0.995,99.88,2.0,,0.0,0.0,118.56
2025-08-15T01:54:38.826Z,4,GR86-006-7,-17.7,0.323,-0.897,99.88,2.0,,0.0,0.0,
2025-08-15T01:54:38.914Z,4,GR86-006-7,-17.1,0.287,-0.714,99.88,2.0,,0.0,0.0,
2025-08-15T01:54:38.957Z,4,GR86-006-7,-21.4,0.278,-0.661,99.89,2.0,7021.0,0.0,0.0,
2025-08-15T01:54:39.000Z,4,GR86-006-7,-20.4,0.288,-0.787,99.88,2.0,,0.0,0.0,119.96
2025-08-15T01:54:39.043Z,4,GR86-006-7,-18.3,0.301,-0.755,99.88,2.0,,0.0,0.0,
2025-08-15T01:54:39.086Z,4,GR86-006-7,-16.3,0.297,-0.883,99.88,2.0,,0.0,0.0,
2025-08-15T01:54:39.129Z,4,GR86-006-7,-15.2,0.289,-0.78,99.88,2.0,,0.0,0.0,
2025-08-15T01:54:39.172Z,4,GR86-006-7,-14.9,0.249,-0.751,99.89,2.0,7100.0,0.0,0.0,
2025-08-15T01:54:39.215Z,4,GR86-006-7,-14.7,0.223,-0.733,99.89,2.0,,0.0,0.0,120.87
2025-08-15T01:54:39.258Z,4,GR86-006-7,-14.2,0.268,-0.619,99.9,2.0,,0.0,0.0,
2025-08-15T01:54:39.301Z,4,GR86-006-7,-13.6,0.223,-0.597,99.88,2.0,,0.0,0.0,
2025-08-15T01:54:39.344Z,4,GR86-006-7,-13.3,0.239,-0.546,99.88,2.0,,0.0,0.0,
2025-08-15T01:54:39.387Z,4,GR86-006-7,-12.9,0.216,-0.498,99.89,2.0,7161.0,0.0,0.0,
2025-08-15T01:54:39.430Z,4,GR86-006-7,-12.3,0.262,-0.504,99.89,2.0,,0.0,0.0,122.0
2025-08-15T01:54:39.473Z,4,GR86-006-7,-9.8,0.272,-0.39,99.92,2.0,,0.0,0.0,
2025-08-15T01:54:39.517Z,4,GR86-006-7,-5.5,-0.024,-0.494,99.91,3.0,,0.0,0.0,
2025-08-15T01:54:39.603Z,4,GR86-006-7,-2.2,0.614,-0.269,99.88,3.0,7230.0,0.0,0.0,
2025-08-15T01:54:39.646Z,4,GR86-006-7,-1.0,0.486,-0.163,99.89,3.0,,0.0,0.0,123.78
2025-08-15T01:54:39.689Z,4,GR86-006-7,0.3,0.528,-0.11,99.89,3.0,,0.0,0.0,
2025-08-15T01:54:39.732Z,4,GR86-006-7,1.5,0.055,-0.237,99.89,3.0,,0.0,0.0,
2025-08-15T01:54:39.776Z,4,GR86-006-7,1.5,0.154,-0.029,99.89,3.0,,0.0,0.0,
2025-08-15T01:54:39.819Z,4,GR86-006-7,1.5,0.181,0.044,99.9,3.0,7053.0,0.0,0.0,
2025-08-15T01:54:39.862Z,4,GR86-006-7,3.0,0.272,-0.04,99.91,3.0,,0.0,0.0,125.54
2025-08-15T01:54:39.905Z,4,GR86-006-7,5.0,0.313,0.085,99.92,3.0,,0.0,0.0,
2025-08-15T01:54:39.948Z,4,GR86-006-7,5.4,0.245,0.12,99.89,3.0,,0.0,0.0,
2025-08-15T01:54:39.992Z,4,GR86-006-7,5.1000000000000005,0.213,0.153,99.91,3.0,,0.0,0.0,
2025-08-15T01:54:40.035Z,4,GR86-006-7,5.0,0.236,0.152,99.91,3.0,5928.0,0.0,0.0,
2025-08-15T01:54:40.078Z,4,GR86-006-7,5.0,0.2,0.121,99.89,3.0,,0.0,0.0,126.98
2025-08-15T01:54:40.121Z,4,GR86-006-7,4.9,0.204,0.126,99.9,3.0,,0.0,0.0,
2025-08-15T01:54:40.164Z,4,GR86-006-7,4.9,0.219,0.12,99.89,3.0,,0.0,0.0,
2025-08-15T01:54:40.207Z,4,GR86-006-7,4.9,0.21,0.102,99.89,3.0,,0.0,0.0,
2025-08-15T01:54:40.251Z,4,GR86-006-7,5.0,0.187,0.06,99.89,3.0,6036.0,0.0,0.0,
2025-08-15T01:54:40.294Z,4,GR86-006-7,5.0,0.186,0.055,99.91,3.0,,0.0,0.0,128.89
2025-08-15T01:54:40.337Z,4,GR86-006-7,5.0,0.202,0.05,99.91,3.0,,0.0,0.0,
2025-08-15T01:54:40.380Z,4,GR86-006-7,5.0,0.238,0.076,99.92,3.0,,0.0,0.0,
2025-08-15T01:54:40.424Z,4,GR86-006-7,4.9,0.208,0.101,99.91,3.0,,0.0,0.0,
2025-08-15T01:54:40.468Z,4,GR86-006-7,4.800000000000001,0.172,0.092,99.91,3.0,6113.0,0.0,0.0,
2025-08-15T01:54:40.511Z,4,GR86-006-7,4.7,0.224,0.094,99.88,3.0,,0.0,0.0,130.5
2025-08-15T01:54:40.554Z,4,GR86-006-7,4.6000000000000005,0.199,0.049,99.92,3.0,,0.0,0.0,
2025-08-15T01:54:40.598Z,4,GR86-006-7,4.6000000000000005,0.227,0.011,99.89,3.0,,0.0,0.0,
2025-08-15T01:54:40.641Z,4,GR86-006-7,4.6000000000000005,0.209,0.0,99.89,3.0,,0.0,0.0,
2025-08-15T01:54:40.684Z,4,GR86-006-7,4.6000000000000005,0.188,-0.003,99.88,3.0,6186.0,0.0,0.0,
2025-08-15T01:54:40.727Z,4,GR86-006-7,4.6000000000000005,0.202,-0.006,99.9,3.0,,0.0,0.0,133.65
2025-08-15T01:54:40.770Z,4,GR86-006-7,4.7,0.227,0.019,99.91,3.0,,0.0,0.0,
2025-08-15T01:54:40.814Z,4,GR86-006-7,4.7,0.218,0.011,99.92,3.0,,0.0,0.0,
2025-08-15T01:54:40.857Z,4,GR86-006-7,4.6000000000000005,0.221,0.024,99.88,3.0,,0.0,0.0,
2025-08-15T01:54:40.943Z,4,GR86-006-7,4.5,0.174,0.018,99.89,3.0,6270.0,0.0,0.0,135.14
2025-08-15T01:54:40.986Z,4,GR86-006-7,4.5,0.211,0.015,99.92,3.0,,0.0,0.0,
2025-08-15T01:54:41.029Z,4,GR86-006-7,4.4,0.216,0.001,99.91,3.0,,0.0,0.0,
2025-08-15T01:54:41.072Z,4,GR86-006-7,4.4,0.229,-0.015,99.91,3.0,,0.0,0.0,
2025-08-15T01:54:41.115Z,4,GR86-006-7,4.4,0.197,-0.024,99.89,3.0,6393.0,0.0,0.0,
2025-08-15T01:54:41.158Z,4,GR86-006-7,4.4,0.174,-0.037,99.9,3.0,,0.0,0.0,136.63
2025-08-15T01:54:41.201Z,4,GR86-006-7,4.4,0.198,-0.051,99.89,3.0,,0.0,0.0,
2025-08-15T01:54:41.244Z,4,GR86-006-7,4.4,0.221,-0.03,99.9,3.0,,0.0,0.0,
2025-08-15T01:54:41.287Z,4,GR86-006-7,4.4,0.2,-0.015,99.92,3.0,,0.0,0.0,
2025-08-15T01:54:41.330Z,4,GR86-006-7,4.4,0.178,0.002,99.92,3.0,6456.0,0.0,0.0,
2025-08-15T01:54:41.373Z,4,GR86-006-7,4.4,0.199,0.018,99.9,3.0,,0.0,0.0,138.08
2025-08-15T01:54:41.417Z,4,GR86-006-7,4.4,0.173,0.022,99.88,3.0,,0.0,0.0,
2025-08-15T01:54:41.460Z,4,GR86-006-7,4.4,0.194,0.024,99.91,3.0,,0.0,0.0,
2025-08-15T01:54:41.504Z,4,GR86-006-7,4.4,0.213,0.053,99.92,3.0,,0.0,0.0,
2025-08-15T01:54:41.590Z,4,GR86-006-7,4.3,0.189,0.03,99.89,3.0,6525.0,0.0,0.0,139.41
2025-08-15T01:54:41.633Z,4,GR86-006-7,4.3,0.172,0.004,99.91,3.0,,0.0,0.0,
2025-08-15T01:54:41.676Z,4,GR86-006-7,4.3,0.17,-0.023,99.91,3.0,,0.0,0.0,
2025-08-15T01:54:41.719Z,4,GR86-006-7,4.3,0.187,-0.02,99.9,3.0,,0.0,0.0,
2025-08-15T01:54:41.762Z,4,GR86-006-7,4.3,0.213,-0.038,99.91,3.0,6594.0,0.0,0.0,
2025-08-15T01:54:41.805Z,4,GR86-006-7,4.3,0.204,-0.028,99.91,3.0,,0.0,0.0,140.74
2025-08-15T01:54:41.848Z,4,GR86-006-7,4.3,0.174,-0.043,99.89,3.0,,0.0,0.0,
2025-08-15T01:54:41.891Z,4,GR86-006-7,4.3,0.171,-0.036,99.91,3.0,,0.0,0.0,
2025-08-15T01:54:41.934Z,4,GR86-006-7,4.3,0.186,-0.021,99.89,3.0,,0.0,0.0,
2025-08-15T01:54:41.978Z,4,GR86-006-7,4.3,0.186,-0.004,99.91,3.0,6660.0,0.0,0.0,
2025-08-15T01:54:42.021Z,4,GR86-006-7,4.3,0.203,0.004,99.92,3.0,,0.0,0.0,142.14
2025-08-15T01:54:42.064Z,4,GR86-006-7,4.2,0.203,-0.006,99.89,3.0,,0.0,0.0,
2025-08-15T01:54:42.107Z,4,GR86-006-7,4.2,0.194,-0.008,99.91,3.0,,0.0,0.0,
2025-08-15T01:54:42.150Z,4,GR86-006-7,4.2,0.182,-0.037,99.91,3.0,,0.0,0.0,
2025-08-15T01:54:42.193Z,4,GR86-006-7,4.2,0.189,-0.039,99.92,3.0,6717.0,0.0,0.0,
2025-08-15T01:54:42.236Z,4,GR86-006-7,4.2,0.169,-0.039,99.91,3.0,,0.0,0.0,143.52
2025-08-15T01:54:42.279Z,4,GR86-006-7,4.2,0.186,-0.049,99.9,3.0,,0.0,0.0,
2025-08-15T01:54:42.322Z,4,GR86-006-7,4.2,0.195,-0.033,99.92,3.0,,0.0,0.0,
2025-08-15T01:54:42.365Z,4,GR86-006-7,4.2,0.208,-0.03,99.88,3.0,,0.0,0.0,
2025-08-15T01:54:42.408Z,4,GR86-006-7,4.2,0.19,-0.03,99.88,3.0,6785.0,0.0,0.0,
2025-08-15T01:54:42.451Z,4,GR86-006-7,4.2,0.171,-0.018,99.89,3.0,,0.0,0.0,144.86
2025-08-15T01:54:42.494Z,4,GR86-006-7,4.2,0.192,-0.014,99.88,3.0,,0.0,0.0,
2025-08-15T01:54:42.537Z,4,GR86-006-7,4.2,0.162,-0.008,99.89,3.0,,0.0,0.0,
2025-08-15T01:54:42.580Z,4,GR86-006-7,4.2,0.174,-0.02,99.92,3.0,,0.0,0.0,
2025-08-15T01:54:42.623Z,4,GR86-006-7,4.2,0.193,-0.017,99.89,3.0,6836.0,0.0,0.0,
2025-08-15T01:54:42.666Z,4,GR86-006-7,4.2,0.211,-0.032,99.89,3.0,,0.0,0.0,146.18
2025-08-15T01:54:42.709Z,4,GR86-006-7,4.2,0.198,-0.032,99.9,3.0,,0.0,0.0,
2025-08-15T01:54:42.752Z,4,GR86-006-7,4.2,0.205,-0.027,99.89,3.0,,0.0,0.0,
2025-08-15T01:54:42.795Z,4,GR86-006-7,4.2,0.202,-0.034,99.9,3.0,,0.0,0.0,
2025-08-15T01:54:42.838Z,4,GR86-006-7,4.2,0.184,-0.027,99.91,3.0,6895.0,0.0,0.0,
2025-08-15T01:54:42.881Z,4,GR86-006-7,4.2,0.155,-0.038,99.88,3.0,,0.0,0.0,147.45000000000002
2025-08-15T01:54:42.924Z,4,GR86-006-7,4.2,0.161,-0.043,99.9,3.0,,0.0,0.0,
2025-08-15T01:54:42.968Z,4,GR86-006-7,4.2,0.198,-0.036,99.91,3.0,,0.0,0.0,
2025-08-15T01:54:43.011Z,4,GR86-006-7,4.2,0.204,-0.027,99.92,3.0,,0.0,0.0,
2025-08-15T01:54:43.054Z,4,GR86-006-7,2.6,0.179,-0.06,99.91,3.0,6955.0,0.0,0.0,
2025-08-15T01:54:43.097Z,4,GR86-006-7,2.2,0.197,-0.075,99.9,3.0,,0.0,0.0,148.71
2025-08-15T01:54:43.140Z,4,GR86-006-7,2.3000000000000003,0.203,-0.075,99.89,3.0,,0.0,0.0,
2025-08-15T01:54:43.183Z,4,GR86-006-7,2.3000000000000003,0.171,-0.106,99.92,3.0,,0.0,0.0,
2025-08-15T01:54:43.226Z,4,GR86-006-7,2.4000000000000004,0.165,-0.125,99.9,3.0,,0.0,0.0,
2025-08-15T01:54:43.269Z,4,GR86-006-7,2.5,0.148,-0.146,99.91,3.0,7015.0,0.0,0.0,
2025-08-15T01:54:43.314Z,4,GR86-006-7,2.5,0.165,-0.155,99.88,3.0,,0.0,0.0,151.19
2025-08-15T01:54:43.357Z,4,GR86-006-7,2.2,0.162,-0.183,99.89,3.0,,0.0,0.0,
2025-08-15T01:54:43.400Z,4,GR86-006-7,1.9,0.157,-0.196,99.91,3.0,,0.0,0.0,
2025-08-15T01:54:43.443Z,4,GR86-006-7,1.9,0.184,-0.186,99.91,3.0,,0.0,0.0,
2025-08-15T01:54:43.486Z,4,GR86-006-7,1.6,0.184,-0.19,99.89,3.0,7064.0,0.0,0.0,
2025-08-15T01:54:43.529Z,4,GR86-006-7,0.9,0.183,-0.188,99.9,3.0,,0.0,0.0,152.33
2025-08-15T01:54:43.572Z,4,GR86-006-7,-0.6000000000000001,0.183,-0.206,99.9,3.0,,0.0,0.0,
2025-08-15T01:54:43.617Z,4,GR86-006-7,-0.9,0.205,-0.208,99.89,3.0,,0.0,0.0,
2025-08-15T01:54:43.660Z,4,GR86-006-7,-0.7000000000000001,0.18,-0.235,99.9,3.0,,0.0,0.0,
2025-08-15T01:54:43.703Z,4,GR86-006-7,-0.5,0.148,-0.223,99.91,3.0,7124.0,0.0,0.0,
2025-08-15T01:54:43.746Z,4,GR86-006-7,-0.4,0.152,-0.225,99.92,3.0,,0.0,0.0,153.53
2025-08-15T01:54:43.789Z,4,GR86-006-7,0.1,0.151,-0.203,99.9,3.0,,0.0,0.0,
2025-08-15T01:54:43.832Z,4,GR86-006-7,0.4,0.096,-0.163,99.91,4.0,,0.0,0.0,
2025-08-15T01:54:43.876Z,4,GR86-006-7,0.4,-0.138,-0.105,99.91,4.0,,0.0,0.0,
2025-08-15T01:54:43.919Z,4,GR86-006-7,0.7000000000000001,0.45,-0.084,99.92,4.0,7231.0,0.0,0.0,
2025-08-15T01:54:43.962Z,4,GR86-006-7,0.8,0.289,-0.154,99.88,4.0,,0.0,0.0,154.68
2025-08-15T01:54:44.005Z,4,GR86-006-7,0.7000000000000001,0.261,-0.013,99.9,4.0,,0.0,0.0,
2025-08-15T01:54:44.049Z,4,GR86-006-7,0.7000000000000001,0.075,-0.005,99.9,4.0,,0.0,0.0,
2025-08-15T01:54:44.092Z,4,GR86-006-7,0.7000000000000001,0.157,-0.046,99.92,4.0,,0.0,0.0,
2025-08-15T01:54:44.135Z,4,GR86-006-7,0.8,0.227,0.037,99.9,4.0,6711.0,0.0,0.0,
2025-08-15T01:54:44.178Z,4,GR86-006-7,0.8,0.181,-0.054,99.9,4.0,,0.0,0.0,155.79
2025-08-15T01:54:44.221Z,4,GR86-006-7,1.1,0.133,0.017,99.91,4.0,,0.0,0.0,
2025-08-15T01:54:44.264Z,4,GR86-006-7,1.2000000000000002,0.142,0.012,99.89,4.0,,0.0,0.0,
2025-08-15T01:54:44.307Z,4,GR86-006-7,1.1,0.135,-0.01,99.89,4.0,,0.0,0.0,
2025-08-15T01:54:44.350Z,4,GR86-006-7,1.1,0.129,0.004,99.9,4.0,6249.0,0.0,0.0,
2025-08-15T01:54:44.393Z,4,GR86-006-7,1.1,0.142,0.001,99.89,4.0,,0.0,0.0,157.07
2025-08-15T01:54:44.436Z,4,GR86-006-7,1.1,0.134,0.0,99.9,4.0,,0.0,0.0,
2025-08-15T01:54:44.479Z,4,GR86-006-7,1.1,0.124,0.003,99.92,4.0,,0.0,0.0,
2025-08-15T01:54:44.522Z,4,GR86-006-7,1.1,0.102,-0.001,99.9,4.0,,0.0,0.0,
2025-08-15T01:54:44.565Z,4,GR86-006-7,1.1,0.111,-0.016,99.89,4.0,6237.0,0.0,0.0,
2025-08-15T01:54:44.608Z,4,GR86-006-7,1.1,0.137,-0.02,99.92,4.0,,0.0,0.0,158.20000000000002
2025-08-15T01:54:44.651Z,4,GR86-006-7,1.2000000000000002,0.158,-0.019,99.9,4.0,,0.0,0.0,
2025-08-15T01:54:44.694Z,4,GR86-006-7,1.7000000000000002,0.122,-0.014,99.91,4.0,,0.0,0.0,
2025-08-15T01:54:44.737Z,4,GR86-006-7,2.0,0.115,-0.008,99.88,4.0,,0.0,0.0,
2025-08-15T01:54:44.780Z,4,GR86-006-7,2.0,0.151,0.029,99.9,4.0,6250.0,0.0,0.0,
2025-08-15T01:54:44.823Z,4,GR86-006-7,1.9,0.147,0.023,99.89,4.0,,0.0,0.0,159.31
2025-08-15T01:54:44.866Z,4,GR86-006-7,1.9,0.153,0.036,99.9,4.0,,0.0,0.0,
2025-08-15T01:54:44.909Z,4,GR86-006-7,1.8,0.141,0.045,99.9,4.0,,0.0,0.0,
2025-08-15T01:54:44.954Z,4,GR86-006-7,1.7000000000000002,0.137,0.012,99.93,4.0,,0.0,0.0,
2025-08-15T01:54:44.998Z,4,GR86-006-7,0.5,0.132,-0.01,99.92,4.0,6293.0,0.0,0.0,
2025-08-15T01:54:45.041Z,4,GR86-006-7,-0.1,0.148,-0.053,99.91,4.0,,0.0,0.0,160.26
2025-08-15T01:54:45.084Z,4,GR86-006-7,0.0,0.14,-0.1,99.9,4.0,,0.0,0.0,
2025-08-15T01:54:45.127Z,4,GR86-006-7,0.2,0.114,-0.138,99.9,4.0,,0.0,0.0,
2025-08-15T01:54:45.170Z,4,GR86-006-7,0.2,0.109,-0.153,99.89,4.0,,0.0,0.0,
2025-08-15T01:54:45.213Z,4,GR86-006-7,0.2,0.148,-0.192,99.91,4.0,6328.0,0.0,0.0,
2025-08-15T01:54:45.257Z,4,GR86-006-7,0.2,0.141,-0.21,99.88,4.0,,0.0,0.0,161.13
2025-08-15T01:54:45.300Z,4,GR86-006-7,0.2,0.118,-0.217,99.93,4.0,,0.0,0.0,
2025-08-15T01:54:45.343Z,4,GR86-006-7,0.2,0.109,-0.252,99.9,4.0,,0.0,0.0,
2025-08-15T01:54:45.386Z,4,GR86-006-7,-0.3,0.113,-0.265,99.91,4.0,,0.0,0.0,
2025-08-15T01:54:45.429Z,4,GR86-006-7,-0.4,0.113,-0.288,99.9,4.0,6358.0,0.0,0.0,
2025-08-15T01:54:45.472Z,4,GR86-006-7,-0.2,0.127,-0.269,99.9,4.0,,0.0,0.0,161.99
2025-08-15T01:54:45.517Z,4,GR86-006-7,0.0,0.118,-0.258,99.89,4.0,,0.0,0.0,
2025-08-15T01:54:45.560Z,4,GR86-006-7,0.0,0.11,-0.273,99.91,4.0,,0.0,0.0,
2025-08-15T01:54:45.603Z,4,GR86-006-7,0.0,0.128,-0.243,99.9,4.0,,0.0,0.0,
2025-08-15T01:54:45.646Z,4,GR86-006-7,0.0,0.112,-0.247,99.9,4.0,6395.0,0.0,0.0,
2025-08-15T01:54:45.689Z,4,GR86-006-7,-0.1,0.123,-0.24,99.88,4.0,,0.0,0.0,162.79
2025-08-15T01:54:45.732Z,4,GR86-006-7,-0.4,0.106,-0.239,99.88,4.0,,0.0,0.0,
2025-08-15T01:54:45.776Z,4,GR86-006-7,-0.2,0.103,-0.239,99.89,4.0,,0.0,0.0,
2025-08-15T01:54:45.819Z,4,GR86-006-7,-0.2,0.116,-0.239,99.92,4.0,,0.0,0.0,
2025-08-15T01:54:45.862Z,4,GR86-006-7,-0.1,0.107,-0.234,99.9,4.0,6428.0,0.0,0.0,
2025-08-15T01:54:45.905Z,4,GR86-006-7,0.0,0.124,-0.233,99.91,4.0,,0.0,0.0,163.71
2025-08-15T01:54:45.948Z,4,GR86-006-7,0.0,0.131,-0.227,99.91,4.0,,0.0,0.0,
2025-08-15T01:54:45.991Z,4,GR86-006-7,0.0,0.129,-0.229,99.89,4.0,,0.0,0.0,
2025-08-15T01:54:46.034Z,4,GR86-006-7,0.0,0.111,-0.233,99.88,4.0,,0.0,0.0,
2025-08-15T01:54:46.077Z,4,GR86-006-7,0.0,0.112,-0.202,99.91,4.0,6463.0,0.0,0.0,
2025-08-15T01:54:46.120Z,4,GR86-006-7,0.0,0.12,-0.201,99.91,4.0,,0.0,0.0,165.49
2025-08-15T01:54:46.163Z,4,GR86-006-7,0.0,0.116,-0.18,99.9,4.0,,0.0,0.0,
2025-08-15T01:54:46.206Z,4,GR86-006-7,0.0,0.14,-0.167,99.89,4.0,,0.0,0.0,
2025-08-15T01:54:46.249Z,4,GR86-006-7,0.0,0.134,-0.161,99.88,4.0,,0.0,0.0,
2025-08-15T01:54:46.292Z,4,GR86-006-7,0.1,0.11,-0.153,99.89,4.0,6505.0,0.0,0.0,
2025-08-15T01:54:46.335Z,4,GR86-006-7,0.1,0.111,-0.158,99.89,4.0,,0.0,0.0,166.38
2025-08-15T01:54:46.378Z,4,GR86-006-7,0.1,0.129,-0.146,99.92,4.0,,0.0,0.0,
2025-08-15T01:54:46.421Z,4,GR86-006-7,0.1,0.132,-0.156,99.9,4.0,,0.0,0.0,
2025-08-15T01:54:46.464Z,4,GR86-006-7,0.1,0.13,-0.187,99.89,4.0,,0.0,0.0,
2025-08-15T01:54:46.507Z,4,GR86-006-7,0.1,0.128,-0.185,99.9,4.0,6530.0,0.0,0.0,
2025-08-15T01:54:46.550Z,4,GR86-006-7,0.1,0.12,-0.169,99.89,4.0,,0.0,0.0,167.28
2025-08-15T01:54:46.593Z,4,GR86-006-7,0.2,0.111,-0.193,99.88,4.0,,0.0,0.0,
2025-08-15T01:54:46.636Z,4,GR86-006-7,0.2,0.13,-0.188,99.9,4.0,,0.0,0.0,
2025-08-15T01:54:46.679Z,4,GR86-006-7,0.2,0.127,-0.181,99.93,4.0,,0.0,0.0,
2025-08-15T01:54:46.722Z,4,GR86-006-7,0.2,0.13,-0.157,99.89,4.0,6605.0,0.0,0.0,
2025-08-15T01:54:46.768Z,4,GR86-006-7,0.2,0.129,-0.143,99.92,4.0,,0.0,0.0,168.21
2025-08-15T01:54:46.811Z,4,GR86-006-7,0.2,0.123,-0.125,99.89,4.0,,0.0,0.0,
2025-08-15T01:54:46.854Z,4,GR86-006-7,0.3,0.113,-0.127,99.92,4.0,,0.0,0.0,
2025-08-15T01:54:46.898Z,4,GR86-006-7,0.4,0.113,-0.106,99.88,4.0,,0.0,0.0,
2025-08-15T01:54:46.941Z,4,GR86-006-7,0.4,0.122,-0.086,99.9,4.0,6643.0,0.0,0.0,
2025-08-15T01:54:46.984Z,4,GR86-006-7,0.4,0.123,-0.076,99.9,4.0,,0.0,0.0,169.14
2025-08-15T01:54:47.027Z,4,GR86-006-7,0.4,0.117,-0.082,99.9,4.0,,0.0,0.0,
2025-08-15T01:54:47.070Z,4,GR86-006-7,0.4,0.126,-0.092,99.9,4.0,,0.0,0.0,
2025-08-15T01:54:47.114Z,4,GR86-006-7,0.4,0.097,-0.08,99.89,4.0,,0.0,0.0,
2025-08-15T01:54:47.157Z,4,GR86-006-7,0.5,0.093,-0.074,99.89,4.0,6680.0,0.0,0.0,
2025-08-15T01:54:47.200Z,4,GR86-006-7,0.6000000000000001,0.11,-0.082,99.89,4.0,,0.0,0.0,170.08
2025-08-15T01:54:47.243Z,4,GR86-006-7,0.6000000000000001,0.115,-0.066,99.9,4.0,,0.0,0.0,
2025-08-15T01:54:47.286Z,4,GR86-006-7,0.7000000000000001,0.12,-0.052,99.89,4.0,,0.0,0.0,
2025-08-15T01:54:47.329Z,4,GR86-006-7,0.7000000000000001,0.121,-0.045,99.89,4.0,,0.0,0.0,
2025-08-15T01:54:47.372Z,4,GR86-006-7,0.7000000000000001,0.091,-0.017,99.88,4.0,6715.0,0.0,0.0,
2025-08-15T01:54:47.415Z,4,GR86-006-7,0.7000000000000001,0.1,-0.018,99.88,4.0,,0.0,0.0,171.02
2025-08-15T01:54:47.458Z,4,GR86-006-7,0.7000000000000001,0.095,-0.021,99.9,4.0,,0.0,0.0,
2025-08-15T01:54:47.501Z,4,GR86-006-7,0.7000000000000001,0.102,-0.02,99.91,4.0,,0.0,0.0,
2025-08-15T01:54:47.544Z,4,GR86-006-7,0.7000000000000001,0.108,-0.032,99.89,4.0,,0.0,0.0,
2025-08-15T01:54:47.587Z,4,GR86-006-7,0.7000000000000001,0.113,-0.028,99.9,4.0,6745.0,0.0,0.0,
2025-08-15T01:54:47.630Z,4,GR86-006-7,0.7000000000000001,0.112,-0.032,99.89,4.0,,0.0,0.0,171.99
2025-08-15T01:54:47.673Z,4,GR86-006-7,0.7000000000000001,0.089,-0.03,99.9,4.0,,0.0,0.0,
2025-08-15T01:54:47.717Z,4,GR86-006-7,0.6000000000000001,0.096,-0.048,99.88,4.0,,0.0,0.0,
2025-08-15T01:54:47.760Z,4,GR86-006-7,0.6000000000000001,0.091,-0.085,99.89,4.0,,0.0,0.0,
2025-08-15T01:54:47.804Z,4,GR86-006-7,0.6000000000000001,0.09,-0.11,99.9,4.0,6784.0,0.0,0.0,
2025-08-15T01:54:47.890Z,4,GR86-006-7,0.7000000000000001,0.088,-0.117,99.89,4.0,,0.0,0.0,172.82
2025-08-15T01:54:47.933Z,4,GR86-006-7,0.8,0.121,-0.091,99.92,4.0,,0.0,0.0,
2025-08-15T01:54:47.976Z,4,GR86-006-7,0.8,0.113,-0.088,99.89,4.0,,0.0,0.0,
2025-08-15T01:54:48.019Z,4,GR86-006-7,0.8,0.097,-0.09,99.89,4.0,6814.0,0.0,0.0,
2025-08-15T01:54:48.062Z,4,GR86-006-7,0.8,0.094,-0.087,99.88,4.0,,0.0,0.0,173.6
2025-08-15T01:54:48.105Z,4,GR86-006-7,0.8,0.091,-0.079,99.89,4.0,,0.0,0.0,
2025-08-15T01:54:48.148Z,4,GR86-006-7,0.8,0.085,-0.078,99.88,4.0,,0.0,0.0,
2025-08-15T01:54:48.192Z,4,GR86-006-7,0.9,0.118,-0.062,99.88,4.0,,0.0,0.0,
2025-08-15T01:54:48.235Z,4,GR86-006-7,0.9,0.111,-0.051,99.89,4.0,6848.0,0.0,0.0,
2025-08-15T01:54:48.278Z,4,GR86-006-7,0.9,0.133,-0.047,99.89,4.0,,0.0,0.0,174.57
2025-08-15T01:54:48.321Z,4,GR86-006-7,0.9,0.12,-0.048,99.89,4.0,,0.0,0.0,
2025-08-15T01:54:48.364Z,4,GR86-006-7,0.9,0.135,-0.038,99.88,4.0,,0.0,0.0,
2025-08-15T01:54:48.407Z,4,GR86-006-7,0.9,0.116,-0.058,99.88,4.0,,0.0,0.0,
2025-08-15T01:54:48.450Z,4,GR86-006-7,0.9,0.13,-0.05,99.88,4.0,6880.0,0.0,0.0,
2025-08-15T01:54:48.493Z,4,GR86-006-7,1.0,0.112,-0.053,99.89,4.0,,0.0,0.0,175.44
2025-08-15T01:54:48.536Z,4,GR86-006-7,1.1,0.091,-0.049,99.9,4.0,,0.0,0.0,
2025-08-15T01:54:48.579Z,4,GR86-006-7,1.1,0.096,-0.056,99.87,4.0,,0.0,0.0,
2025-08-15T01:54:48.622Z,4,GR86-006-7,1.1,0.078,-0.076,99.9,4.0,,0.0,0.0,
2025-08-15T01:54:48.665Z,4,GR86-006-7,1.1,0.106,-0.062,99.89,4.0,6913.0,0.0,0.0,
2025-08-15T01:54:48.708Z,4,GR86-006-7,1.1,0.092,-0.059,99.89,4.0,,0.0,0.0,176.37
2025-08-15T01:54:48.751Z,4,GR86-006-7,1.1,0.095,-0.074,99.89,4.0,,0.0,0.0,
2025-08-15T01:54:48.794Z,4,GR86-006-7,1.1,0.096,-0.043,99.89,4.0,,0.0,0.0,
2025-08-15T01:54:48.837Z,4,GR86-006-7,1.2000000000000002,0.093,-0.04,99.9,4.0,,0.0,0.0,
2025-08-15T01:54:48.880Z,4,GR86-006-7,1.2000000000000002,0.099,-0.021,99.88,4.0,6949.0,0.0,0.0,
2025-08-15T01:54:48.923Z,4,GR86-006-7,1.1,0.082,-0.026,99.89,4.0,,0.0,0.0,177.88
2025-08-15T01:54:48.966Z,4,GR86-006-7,1.1,0.074,-0.038,99.9,4.0,,0.0,0.0,
2025-08-15T01:54:49.009Z,4,GR86-006-7,1.1,0.085,-0.039,99.88,4.0,,0.0,0.0,
2025-08-15T01:54:49.052Z,4,GR86-006-7,1.2000000000000002,0.127,-0.055,99.88,4.0,,0.0,0.0,
2025-08-15T01:54:49.095Z,4,GR86-006-7,1.2000000000000002,0.105,-0.057,99.89,4.0,6984.0,0.0,0.0,
2025-08-15T01:54:49.138Z,4,GR86-006-7,1.1,0.114,-0.062,99.89,4.0,,0.0,0.0,178.84
2025-08-15T01:54:49.181Z,4,GR86-006-7,1.1,0.107,-0.052,99.89,4.0,,0.0,0.0,
2025-08-15T01:54:49.224Z,4,GR86-006-7,1.1,0.12,-0.053,99.89,4.0,,0.0,0.0,
2025-08-15T01:54:49.268Z,4,GR86-006-7,1.1,0.1,-0.06,99.88,4.0,,0.0,0.0,
2025-08-15T01:54:49.311Z,4,GR86-006-7,1.1,0.124,-0.079,99.89,4.0,7013.0,0.0,0.0,
2025-08-15T01:54:49.354Z,4,GR86-006-7,1.1,0.08,-0.096,99.9,4.0,,0.0,0.0,179.58
2025-08-15T01:54:49.398Z,4,GR86-006-7,1.1,0.057,-0.104,99.87,4.0,,0.0,0.0,
2025-08-15T01:54:49.442Z,4,GR86-006-7,1.2000000000000002,0.063,-0.101,99.88,4.0,,0.0,0.0,
2025-08-15T01:54:49.485Z,4,GR86-006-7,1.2000000000000002,0.078,-0.12,99.88,4.0,,0.0,0.0,
2025-08-15T01:54:49.528Z,4,GR86-006-7,1.3,0.083,-0.125,99.89,4.0,7074.0,0.0,0.0,
2025-08-15T01:54:49.571Z,4,GR86-006-7,1.3,0.066,-0.129,99.88,4.0,,0.0,0.0,180.44
2025-08-15T01:54:49.614Z,4,GR86-006-7,1.3,0.107,-0.109,99.88,4.0,,0.0,0.0,
2025-08-15T01:54:49.657Z,4,GR86-006-7,1.4,0.123,-0.09,99.88,4.0,,0.0,0.0,
2025-08-15T01:54:49.700Z,4,GR86-006-7,1.3,0.108,-0.076,99.89,4.0,,0.0,0.0,
2025-08-15T01:54:49.743Z,4,GR86-006-7,1.4,0.116,-0.051,99.89,4.0,7107.0,0.0,0.0,
2025-08-15T01:54:49.786Z,4,GR86-006-7,1.4,0.119,-0.033,99.88,4.0,,0.0,0.0,181.08
2025-08-15T01:54:49.829Z,4,GR86-006-7,1.5,0.108,-0.028,99.89,4.0,,0.0,0.0,
2025-08-15T01:54:49.872Z,4,GR86-006-7,1.5,0.081,-0.005,99.88,4.0,,0.0,0.0,
2025-08-15T01:54:49.917Z,4,GR86-006-7,1.5,0.074,0.006,99.88,4.0,,0.0,0.0,
2025-08-15T01:54:49.960Z,4,GR86-006-7,1.5,0.079,0.009,99.9,4.0,7138.0,0.0,0.0,
2025-08-15T01:54:50.003Z,4,GR86-006-7,1.5,0.08,0.016,99.89,4.0,,0.0,0.0,181.98
2025-08-15T01:54:50.046Z,4,GR86-006-7,1.6,0.075,0.017,99.9,4.0,,0.0,0.0,
2025-08-15T01:54:50.089Z,4,GR86-006-7,1.6,0.078,0.017,99.89,4.0,,0.0,0.0,
2025-08-15T01:54:50.132Z,4,GR86-006-7,1.6,0.115,0.027,99.88,4.0,,0.0,0.0,
2025-08-15T01:54:50.178Z,4,GR86-006-7,1.6,0.107,0.023,99.88,4.0,7168.0,0.0,0.0,
2025-08-15T01:54:50.221Z,4,GR86-006-7,1.6,0.106,0.02,99.89,4.0,,0.0,0.0,182.7
2025-08-15T01:54:50.264Z,4,GR86-006-7,1.6,0.119,0.03,99.89,4.0,,0.0,0.0,
2025-08-15T01:54:50.307Z,4,GR86-006-7,1.6,0.099,0.033,99.88,4.0,,0.0,0.0,
2025-08-15T01:54:50.350Z,4,GR86-006-7,1.6,0.097,0.026,99.91,4.0,,0.0,0.0,
2025-08-15T01:54:50.393Z,4,GR86-006-7,1.6,0.078,0.013,99.88,4.0,7198.0,0.0,0.0,
2025-08-15T01:54:50.479Z,4,GR86-006-7,1.6,0.084,0.03,99.88,4.0,,0.0,0.0,183.47
2025-08-15T01:54:50.522Z,4,GR86-006-7,1.6,-0.14,0.027,99.89,5.0,,0.0,0.0,
2025-08-15T01:54:50.565Z,4,GR86-006-7,1.6,0.089,0.067,99.88,5.0,,0.0,0.0,
2025-08-15T01:54:50.608Z,4,GR86-006-7,1.7000000000000002,0.247,-0.035,99.91,5.0,7225.0,0.0,0.0,
2025-08-15T01:54:50.651Z,4,GR86-006-7,1.7000000000000002,0.151,-0.03,99.91,5.0,,0.0,0.0,184.19
2025-08-15T01:54:50.694Z,4,GR86-006-7,1.6,-0.026,0.003,99.91,5.0,,0.0,0.0,
2025-08-15T01:54:50.737Z,4,GR86-006-7,1.6,0.082,-0.052,99.88,5.0,,0.0,0.0,
2025-08-15T01:54:50.780Z,4,GR86-006-7,1.6,0.127,0.04,99.89,5.0,,0.0,0.0,
2025-08-15T01:54:50.823Z,4,GR86-006-7,1.6,0.047,0.026,99.88,5.0,7047.0,0.0,0.0,
2025-08-15T01:54:50.866Z,4,GR86-006-7,1.6,0.048,-0.023,99.88,5.0,,0.0,0.0,184.95
2025-08-15T01:54:50.909Z,4,GR86-006-7,1.6,0.07,0.011,99.88,5.0,,0.0,0.0,
2025-08-15T01:54:50.954Z,4,GR86-006-7,1.6,0.084,-0.012,99.89,5.0,,0.0,0.0,
2025-08-15T01:54:50.998Z,4,GR86-006-7,1.6,0.076,-0.006,99.9,5.0,,0.0,0.0,
2025-08-15T01:54:51.041Z,4,GR86-006-7,1.6,0.09,-0.02,99.9,5.0,6312.0,0.0,0.0,
2025-08-15T01:54:51.084Z,4,GR86-006-7,1.6,0.091,-0.011,99.9,5.0,,0.0,0.0,185.68
2025-08-15T01:54:51.127Z,4,GR86-006-7,1.7000000000000002,0.093,-0.022,99.88,5.0,,0.0,0.0,
2025-08-15T01:54:51.170Z,4,GR86-006-7,1.7000000000000002,0.098,-0.02,99.9,5.0,,0.0,0.0,
2025-08-15T01:54:51.213Z,4,GR86-006-7,1.7000000000000002,0.066,-0.033,99.89,5.0,,0.0,0.0,
2025-08-15T01:54:51.257Z,4,GR86-006-7,1.6,0.057,-0.02,99.88,5.0,6347.0,0.0,0.0,
2025-08-15T01:54:51.300Z,4,GR86-006-7,1.6,0.087,-0.051,99.89,5.0,,0.0,0.0,186.23
2025-08-15T01:54:51.343Z,4,GR86-006-7,1.6,0.074,-0.041,99.89,5.0,,0.0,0.0,
2025-08-15T01:54:51.386Z,4,GR86-006-7,1.6,0.089,-0.05,99.91,5.0,,0.0,0.0,
2025-08-15T01:54:51.429Z,4,GR86-006-7,1.7000000000000002,0.084,-0.062,99.89,5.0,,0.0,0.0,
2025-08-15T01:54:51.472Z,4,GR86-006-7,1.7000000000000002,0.087,-0.088,99.88,5.0,6349.0,0.0,0.0,
2025-08-15T01:54:51.515Z,4,GR86-006-7,1.7000000000000002,0.091,-0.085,99.88,5.0,,0.0,0.0,187.53
2025-08-15T01:54:51.558Z,4,GR86-006-7,1.7000000000000002,0.09,-0.079,99.89,5.0,,0.0,0.0,
2025-08-15T01:54:51.601Z,4,GR86-006-7,1.8,0.076,-0.075,99.89,5.0,,0.0,0.0,
2025-08-15T01:54:51.644Z,4,GR86-006-7,1.8,0.097,-0.059,99.89,5.0,,0.0,0.0,
2025-08-15T01:54:51.687Z,4,GR86-006-7,1.8,0.072,-0.078,99.89,5.0,6378.0,0.0,0.0,
2025-08-15T01:54:51.730Z,4,GR86-006-7,1.8,0.087,-0.075,99.87,5.0,,0.0,0.0,188.34
2025-08-15T01:54:51.773Z,4,GR86-006-7,1.8,0.109,-0.075,99.88,5.0,,0.0,0.0,
2025-08-15T01:54:51.817Z,4,GR86-006-7,1.8,0.092,-0.08,99.9,5.0,,0.0,0.0,
2025-08-15T01:54:51.860Z,4,GR86-006-7,1.8,0.094,-0.074,99.88,5.0,,0.0,0.0,
2025-08-15T01:54:51.903Z,4,GR86-006-7,1.8,0.087,-0.066,99.9,5.0,6397.0,0.0,0.0,
2025-08-15T01:54:51.946Z,4,GR86-006-7,1.8,0.102,-0.06,99.89,5.0,,0.0,0.0,189.08
2025-08-15T01:54:51.989Z,4,GR86-006-7,1.8,0.097,-0.071,99.89,5.0,,0.0,0.0,
2025-08-15T01:54:52.032Z,4,GR86-006-7,1.8,0.08,-0.072,99.89,5.0,,0.0,0.0,
2025-08-15T01:54:52.076Z,4,GR86-006-7,1.8,0.082,-0.066,99.9,5.0,,0.0,0.0,
2025-08-15T01:54:52.119Z,4,GR86-006-7,1.9,0.092,-0.041,99.88,5.0,6452.0,0.0,0.0,
2025-08-15T01:54:52.162Z,4,GR86-006-7,1.9,0.079,-0.068,99.89,5.0,,0.0,0.0,189.85
2025-08-15T01:54:52.205Z,4,GR86-006-7,1.9,0.101,-0.036,99.9,5.0,,0.0,0.0,
2025-08-15T01:54:52.249Z,4,GR86-006-7,1.9,0.071,-0.062,99.87,5.0,,0.0,0.0,
2025-08-15T01:54:52.292Z,4,GR86-006-7,1.9,0.067,-0.057,99.88,5.0,,0.0,0.0,
2025-08-15T01:54:52.335Z,4,GR86-006-7,1.9,0.075,-0.032,99.88,5.0,6474.0,0.0,0.0,
2025-08-15T01:54:52.378Z,4,GR86-006-7,1.9,0.071,-0.029,99.9,5.0,,0.0,0.0,190.63
2025-08-15T01:54:52.421Z,4,GR86-006-7,1.9,0.079,-0.017,99.88,5.0,,0.0,0.0,
2025-08-15T01:54:52.464Z,4,GR86-006-7,1.9,0.069,-0.028,99.89,5.0,,0.0,0.0,
2025-08-15T01:54:52.507Z,4,GR86-006-7,1.9,0.077,-0.03,99.89,5.0,,0.0,0.0,
2025-08-15T01:54:52.550Z,4,GR86-006-7,1.9,0.088,-0.028,99.89,5.0,6496.0,0.0,0.0,
2025-08-15T01:54:52.593Z,4,GR86-006-7,1.9,0.069,-0.034,99.88,5.0,,0.0,0.0,191.37
2025-08-15T01:54:52.636Z,4,GR86-006-7,1.9,0.064,-0.04,99.89,5.0,,0.0,0.0,
2025-08-15T01:54:52.679Z,4,GR86-006-7,1.9,0.061,-0.059,99.89,5.0,,0.0,0.0,
2025-08-15T01:54:52.722Z,4,GR86-006-7,1.9,0.072,-0.067,99.89,5.0,,0.0,0.0,
2025-08-15T01:54:52.768Z,4,GR86-006-7,1.9,0.063,-0.065,99.88,5.0,6526.0,0.0,0.0,
2025-08-15T01:54:52.811Z,4,GR86-006-7,1.9,0.091,-0.078,99.89,5.0,,0.0,0.0,192.03
2025-08-15T01:54:52.854Z,4,GR86-006-7,2.0,0.087,-0.078,99.88,5.0,,0.0,0.0,
2025-08-15T01:54:52.898Z,4,GR86-006-7,2.0,0.064,-0.07,99.88,5.0,,0.0,0.0,
2025-08-15T01:54:52.941Z,4,GR86-006-7,2.0,0.073,-0.069,99.88,5.0,,0.0,0.0,
2025-08-15T01:54:52.984Z,4,GR86-006-7,2.0,0.05,-0.07,99.89,5.0,6548.0,0.0,0.0,
2025-08-15T01:54:53.027Z,4,GR86-006-7,2.0,0.073,-0.083,99.89,5.0,,0.0,0.0,192.73
2025-08-15T01:54:53.070Z,4,GR86-006-7,1.9,0.077,-0.073,99.89,5.0,,0.0,0.0,
2025-08-15T01:54:53.114Z,4,GR86-006-7,1.9,0.087,-0.115,99.88,5.0,,0.0,0.0,
2025-08-15T01:54:53.157Z,4,GR86-006-7,2.0,0.078,-0.114,99.88,5.0,,0.0,0.0,
2025-08-15T01:54:53.200Z,4,GR86-006-7,1.9,0.073,-0.12,99.89,5.0,6565.0,0.0,0.0,
2025-08-15T01:54:53.243Z,4,GR86-006-7,1.9,0.084,-0.112,99.89,5.0,,0.0,0.0,193.4
2025-08-15T01:54:53.286Z,4,GR86-006-7,1.9,0.068,-0.113,99.89,5.0,,0.0,0.0,
2025-08-15T01:54:53.329Z,4,GR86-006-7,1.9,0.067,-0.094,99.88,5.0,,0.0,0.0,
2025-08-15T01:54:53.372Z,4,GR86-006-7,2.0,0.1,-0.101,99.89,5.0,,0.0,0.0,
2025-08-15T01:54:53.415Z,4,GR86-006-7,2.0,0.081,-0.102,99.87,5.0,6589.0,0.0,0.0,
2025-08-15T01:54:53.458Z,4,GR86-006-7,2.0,0.083,-0.124,99.89,5.0,,0.0,0.0,194.06
2025-08-15T01:54:53.501Z,4,GR86-006-7,2.0,0.089,-0.085,99.88,5.0,,0.0,0.0,
2025-08-15T01:54:53.544Z,4,GR86-006-7,2.0,0.055,-0.081,99.89,5.0,,0.0,0.0,
2025-08-15T01:54:53.587Z,4,GR86-006-7,2.0,0.078,-0.089,99.89,5.0,,0.0,0.0,
2025-08-15T01:54:53.630Z,4,GR86-006-7,1.9,0.082,-0.106,99.89,5.0,6603.0,0.0,0.0,
2025-08-15T01:54:53.673Z,4,GR86-006-7,2.0,0.099,-0.126,99.89,5.0,,0.0,0.0,194.66
2025-08-15T01:54:53.717Z,4,GR86-006-7,2.0,0.086,-0.121,99.89,5.0,,0.0,0.0,
2025-08-15T01:54:53.760Z,4,GR86-006-7,2.0,0.078,-0.144,99.89,5.0,,0.0,0.0,
2025-08-15T01:54:53.803Z,4,GR86-006-7,2.0,0.082,-0.138,99.9,5.0,,0.0,0.0,
2025-08-15T01:54:53.848Z,4,GR86-006-7,2.0,0.079,-0.133,99.89,5.0,6632.0,0.0,0.0,
2025-08-15T01:54:53.891Z,4,GR86-006-7,2.1,0.073,-0.156,99.88,5.0,,0.0,0.0,195.25
2025-08-15T01:54:53.934Z,4,GR86-006-7,2.1,0.102,-0.17,99.9,5.0,,0.0,0.0,
2025-08-15T01:54:53.978Z,4,GR86-006-7,2.1,0.09,-0.155,99.9,5.0,,0.0,0.0,
2025-08-15T01:54:54.021Z,4,GR86-006-7,2.1,0.095,-0.149,99.9,5.0,,0.0,0.0,
2025-08-15T01:54:54.064Z,4,GR86-006-7,2.2,0.082,-0.15,99.88,5.0,6658.0,0.0,0.0,
2025-08-15T01:54:54.107Z,4,GR86-006-7,2.2,0.082,-0.119,99.89,5.0,,0.0,0.0,195.91
2025-08-15T01:54:54.150Z,4,GR86-006-7,2.2,0.073,-0.112,99.9,5.0,,0.0,0.0,
2025-08-15T01:54:54.193Z,4,GR86-006-7,2.2,0.099,-0.092,99.89,5.0,,0.0,0.0,
2025-08-15T01:54:54.237Z,4,GR86-006-7,2.2,0.099,-0.114,99.89,5.0,,0.0,0.0,
2025-08-15T01:54:54.280Z,4,GR86-006-7,2.2,0.071,-0.104,99.89,5.0,6681.0,0.0,0.0,
2025-08-15T01:54:54.323Z,4,GR86-006-7,2.2,0.085,-0.118,99.9,5.0,,0.0,0.0,197.43
2025-08-15T01:54:54.366Z,4,GR86-006-7,2.2,0.082,-0.096,99.88,5.0,,0.0,0.0,
2025-08-15T01:54:54.409Z,4,GR86-006-7,2.2,0.096,-0.107,99.89,5.0,,0.0,0.0,
2025-08-15T01:54:54.452Z,4,GR86-006-7,2.2,0.098,-0.126,99.88,5.0,,0.0,0.0,
2025-08-15T01:54:54.495Z,4,GR86-006-7,2.2,0.074,-0.153,99.88,5.0,6705.0,0.0,0.0,
2025-08-15T01:54:54.538Z,4,GR86-006-7,2.1,0.087,-0.154,99.88,5.0,,0.0,0.0,198.07
2025-08-15T01:54:54.581Z,4,GR86-006-7,2.1,0.075,-0.155,99.89,5.0,,0.0,0.0,
2025-08-15T01:54:54.668Z,4,GR86-006-7,1.9,0.113,-0.145,99.88,5.0,,0.0,0.0,
2025-08-15T01:54:54.711Z,4,GR86-006-7,1.9,0.125,-0.161,99.88,5.0,6732.0,0.0,0.0,
2025-08-15T01:54:54.754Z,4,GR86-006-7,1.9,0.088,-0.192,99.88,5.0,,0.0,0.0,198.96
2025-08-15T01:54:54.797Z,4,GR86-006-7,1.9,0.087,-0.229,99.88,5.0,,0.0,0.0,
2025-08-15T01:54:54.840Z,4,GR86-006-7,1.9,0.105,-0.186,99.87,5.0,,0.0,0.0,
2025-08-15T01:54:54.883Z,4,GR86-006-7,1.9,0.105,-0.212,99.88,5.0,,0.0,0.0,
2025-08-15T01:54:54.926Z,4,GR86-006-7,1.9,0.095,-0.214,99.88,5.0,6799.0,0.0,0.0,
2025-08-15T01:54:54.969Z,4,GR86-006-7,2.0,0.133,-0.188,99.89,5.0,,0.0,0.0,199.71
2025-08-15T01:54:55.013Z,4,GR86-006-7,2.1,0.111,-0.109,99.88,5.0,,0.0,0.0,
2025-08-15T01:54:55.057Z,4,GR86-006-7,2.1,0.073,-0.073,99.88,5.0,,0.0,0.0,
2025-08-15T01:54:55.100Z,4,GR86-006-7,2.2,0.113,-0.059,99.89,5.0,,0.0,0.0,
2025-08-15T01:54:55.143Z,4,GR86-006-7,2.2,0.125,-0.067,99.89,5.0,6815.0,0.0,0.0,
2025-08-15T01:54:55.186Z,4,GR86-006-7,2.2,0.081,0.003,99.89,5.0,,0.0,0.0,200.57
2025-08-15T01:54:55.229Z,4,GR86-006-7,2.4000000000000004,0.092,0.005,99.89,5.0,,0.0,0.0,
2025-08-15T01:54:55.272Z,4,GR86-006-7,4.2,0.139,0.09,99.89,5.0,,0.0,0.0,
2025-08-15T01:54:55.317Z,4,GR86-006-7,5.300000000000001,0.101,0.083,99.88,5.0,,0.0,0.0,
2025-08-15T01:54:55.360Z,4,GR86-006-7,6.2,0.082,0.1,99.89,5.0,6843.0,0.0,0.0,
2025-08-15T01:54:55.403Z,4,GR86-006-7,6.5,0.106,0.106,99.87,5.0,,0.0,0.0,201.47
2025-08-15T01:54:55.446Z,4,GR86-006-7,6.7,0.052,0.113,99.88,5.0,,0.0,0.0,
2025-08-15T01:54:55.489Z,4,GR86-006-7,6.800000000000001,0.089,0.17,99.9,5.0,,0.0,0.0,
2025-08-15T01:54:55.532Z,4,GR86-006-7,7.4,0.084,0.199,99.88,5.0,,0.0,0.0,
2025-08-15T01:54:55.576Z,4,GR86-006-7,8.0,0.071,0.203,99.89,5.0,6881.0,0.0,0.0,
2025-08-15T01:54:55.619Z,4,GR86-006-7,8.3,0.073,0.207,99.9,5.0,,0.0,0.0,202.18
2025-08-15T01:54:55.662Z,4,GR86-006-7,8.200000000000001,0.084,0.236,99.89,5.0,,0.0,0.0,
2025-08-15T01:54:55.705Z,4,GR86-006-7,8.1,0.074,0.244,99.88,5.0,,0.0,0.0,
2025-08-15T01:54:55.748Z,4,GR86-006-7,8.0,0.097,0.254,99.89,5.0,,0.0,0.0,
2025-08-15T01:54:55.791Z,4,GR86-006-7,8.0,0.09,0.282,99.89,5.0,6895.0,0.0,0.0,
2025-08-15T01:54:55.834Z,4,GR86-006-7,8.1,0.086,0.264,99.89,5.0,,0.0,0.0,203.15
2025-08-15T01:54:55.877Z,4,GR86-006-7,8.5,0.1,0.289,99.9,5.0,,0.0,0.0,
2025-08-15T01:54:55.963Z,4,GR86-006-7,9.4,0.101,0.306,99.89,5.0,,0.0,0.0,
2025-08-15T01:54:56.006Z,4,GR86-006-7,9.9,0.118,0.269,99.92,5.0,6928.0,0.0,0.0,
2025-08-15T01:54:56.049Z,4,GR86-006-7,10.3,0.092,0.261,99.89,5.0,,0.0,0.0,203.89
2025-08-15T01:54:56.092Z,4,GR86-006-7,10.6,0.108,0.283,99.89,5.0,,0.0,0.0,
2025-08-15T01:54:56.135Z,4,GR86-006-7,10.7,0.097,0.305,99.89,5.0,,0.0,0.0,
2025-08-15T01:54:56.178Z,4,GR86-006-7,10.7,0.102,0.327,99.89,5.0,,0.0,0.0,
2025-08-15T01:54:56.221Z,4,GR86-006-7,10.8,0.064,0.281,99.88,5.0,6945.0,0.0,0.0,
2025-08-15T01:54:56.264Z,4,GR86-006-7,11.2,0.088,0.29,99.9,5.0,,0.0,0.0,204.55
2025-08-15T01:54:56.307Z,4,GR86-006-7,11.8,0.08,0.316,99.89,5.0,,0.0,0.0,
2025-08-15T01:54:56.350Z,4,GR86-006-7,12.4,0.084,0.362,99.88,5.0,,0.0,0.0,
2025-08-15T01:54:56.393Z,4,GR86-006-7,12.9,0.084,0.381,99.88,5.0,,0.0,0.0,
2025-08-15T01:54:56.436Z,4,GR86-006-7,12.9,0.064,0.389,99.88,5.0,6971.0,0.0,0.0,
2025-08-15T01:54:56.479Z,4,GR86-006-7,12.9,0.089,0.432,99.91,5.0,,0.0,0.0,205.3
2025-08-15T01:54:56.522Z,4,GR86-006-7,12.8,0.108,0.447,99.89,5.0,,0.0,0.0,
2025-08-15T01:54:56.565Z,4,GR86-006-7,12.7,0.09,0.5,99.89,5.0,,0.0,0.0,
2025-08-15T01:54:56.608Z,4,GR86-006-7,12.8,0.116,0.461,99.89,5.0,,0.0,0.0,
2025-08-15T01:54:56.651Z,4,GR86-006-7,13.1,0.066,0.404,99.88,5.0,7011.0,0.0,0.0,
2025-08-15T01:54:56.694Z,4,GR86-006-7,13.0,0.082,0.442,99.88,5.0,,0.0,0.0,205.96
2025-08-15T01:54:56.737Z,4,GR86-006-7,12.9,0.12,0.431,99.88,5.0,,0.0,0.0,
2025-08-15T01:54:56.780Z,4,GR86-006-7,12.9,0.083,0.409,99.88,5.0,,0.0,0.0,
2025-08-15T01:54:56.823Z,4,GR86-006-7,13.1,0.074,0.34,99.88,5.0,,0.0,0.0,
2025-08-15T01:54:56.866Z,4,GR86-006-7,13.2,0.066,0.375,99.88,5.0,7027.0,0.0,0.0,
2025-08-15T01:54:56.909Z,4,GR86-006-7,13.1,0.093,0.405,99.88,5.0,,0.0,0.0,206.64
2025-08-15T01:54:56.954Z,4,GR86-006-7,12.9,0.096,0.418,99.89,5.0,,0.0,0.0,
2025-08-15T01:54:56.997Z,4,GR86-006-7,12.8,0.065,0.394,99.88,5.0,,0.0,0.0,
2025-08-15T01:54:57.040Z,4,GR86-006-7,12.6,0.093,0.395,99.89,5.0,,0.0,0.0,
2025-08-15T01:54:57.083Z,4,GR86-006-7,12.4,0.09,0.398,99.88,5.0,7048.0,0.0,0.0,
2025-08-15T01:54:57.126Z,4,GR86-006-7,12.3,0.113,0.359,99.89,5.0,,0.0,0.0,208.27
2025-08-15T01:54:57.169Z,4,GR86-006-7,12.2,0.097,0.327,99.89,5.0,,0.0,0.0,
2025-08-15T01:54:57.213Z,4,GR86-006-7,12.2,0.106,0.334,99.88,5.0,,0.0,0.0,
2025-08-15T01:54:57.257Z,4,GR86-006-7,12.1,0.084,0.349,99.89,5.0,,0.0,0.0,
2025-08-15T01:54:57.300Z,4,GR86-006-7,12.1,0.092,0.326,99.87,5.0,7092.0,0.0,0.0,
2025-08-15T01:54:57.343Z,4,GR86-006-7,12.1,0.076,0.338,99.89,5.0,,0.0,0.0,208.98
2025-08-15T01:54:57.386Z,4,GR86-006-7,12.1,0.084,0.322,99.89,5.0,,0.0,0.0,
2025-08-15T01:54:57.429Z,4,GR86-006-7,12.1,0.075,0.313,99.9,5.0,,0.0,0.0,
2025-08-15T01:54:57.472Z,4,GR86-006-7,11.9,0.081,0.263,99.89,5.0,,0.0,0.0,
2025-08-15T01:54:57.515Z,4,GR86-006-7,11.9,0.045,0.267,99.89,5.0,7132.0,0.0,0.0,
2025-08-15T01:54:57.558Z,4,GR86-006-7,9.5,0.068,0.224,99.88,5.0,,0.0,0.0,209.62
2025-08-15T01:54:57.601Z,4,GR86-006-7,9.2,0.086,0.208,99.88,5.0,,0.0,0.0,
2025-08-15T01:54:57.644Z,4,GR86-006-7,9.2,0.074,0.221,99.89,5.0,,0.0,0.0,
2025-08-15T01:54:57.687Z,4,GR86-006-7,9.2,0.083,0.148,99.89,5.0,,0.0,0.0,
2025-08-15T01:54:57.730Z,4,GR86-006-7,9.2,0.074,0.094,99.88,5.0,7152.0,0.0,0.0,
2025-08-15T01:54:57.773Z,4,GR86-006-7,9.2,0.083,0.05,99.9,5.0,,0.0,0.0,210.59
2025-08-15T01:54:57.817Z,4,GR86-006-7,9.2,0.055,0.03,99.88,5.0,,0.0,0.0,
2025-08-15T01:54:57.860Z,4,GR86-006-7,9.2,0.073,0.048,99.89,5.0,,0.0,0.0,
2025-08-15T01:54:57.903Z,4,GR86-006-7,9.2,0.068,0.058,99.89,5.0,,0.0,0.0,
2025-08-15T01:54:57.946Z,4,GR86-006-7,9.1,0.059,0.075,99.89,5.0,7174.0,0.0,0.0,
2025-08-15T01:54:57.989Z,4,GR86-006-7,9.2,0.059,0.108,96.55,5.0,,0.0,0.0,211.41
2025-08-15T01:54:58.032Z,4,GR86-006-7,9.2,0.045,0.133,63.14,5.0,,0.0,0.0,
2025-08-15T01:54:58.076Z,4,GR86-006-7,9.1,0.065,0.185,41.46,5.0,,0.0,0.0,
2025-08-15T01:54:58.119Z,4,GR86-006-7,9.0,0.047,0.156,33.2,5.0,,0.0,0.0,
2025-08-15T01:54:58.162Z,4,GR86-006-7,8.9,0.002,0.168,19.32,5.0,7205.0,6.15,6.2700000000000005,
2025-08-15T01:54:58.205Z,4,GR86-006-7,8.5,-0.114,0.156,4.28,5.0,,10.925,10.955,212.15
2025-08-15T01:54:58.248Z,4,GR86-006-7,8.0,-0.292,0.129,4.4,5.0,,14.51,14.39,
2025-08-15T01:54:58.334Z,4,GR86-006-7,7.300000000000001,-0.397,0.099,4.2,5.0,,15.84,15.93,
2025-08-15T01:54:58.378Z,4,GR86-006-7,7.2,-0.641,0.022,3.36,5.0,7223.0,28.72,28.34,
2025-08-15T01:54:58.421Z,4,GR86-006-7,7.2,-0.717,0.027,3.11,5.0,,35.235,34.715,212.98
2025-08-15T01:54:58.464Z,4,GR86-006-7,7.2,-0.805,0.023,2.91,5.0,,40.775,40.365,
2025-08-15T01:54:58.507Z,4,GR86-006-7,7.2,-0.964,0.028,2.79,5.0,,45.625,45.185,
2025-08-15T01:54:58.550Z,4,GR86-006-7,7.800000000000001,-1.003,0.047,2.72,5.0,,50.615,50.005,
2025-08-15T01:54:58.593Z,4,GR86-006-7,7.9,-1.174,0.059,2.65,5.0,6895.0,59.775,59.055,
2025-08-15T01:54:58.637Z,4,GR86-006-7,7.9,-1.196,0.059,15.62,5.0,,64.58,63.865,212.68
2025-08-15T01:54:58.680Z,4,GR86-006-7,7.1000000000000005,-1.158,0.055,57.68,4.0,,66.015,65.8,
2025-08-15T01:54:58.723Z,4,GR86-006-7,5.9,-1.2,0.04,12.95,4.0,,65.525,65.77,
2025-08-15T01:54:58.767Z,4,GR86-006-7,5.800000000000001,-1.038,0.049,4.45,4.0,,65.495,67.325,
2025-08-15T01:54:58.853Z,4,GR86-006-7,6.0,-1.272,0.026,4.07,4.0,6785.0,66.075,67.94,208.28
2025-08-15T01:54:58.896Z,4,GR86-006-7,6.1000000000000005,-1.111,0.125,3.19,4.0,,65.39,66.275,
2025-08-15T01:54:58.940Z,4,GR86-006-7,6.2,-1.212,0.012,2.97,4.0,,64.395,64.58,
2025-08-15T01:54:58.983Z,4,GR86-006-7,6.6000000000000005,-1.114,0.14,2.84,4.0,,63.495000000000005,63.835,
2025-08-15T01:54:59.026Z,4,GR86-006-7,8.1,-1.104,0.115,2.77,4.0,6417.0,63.465,63.59,
2025-08-15T01:54:59.069Z,4,GR86-006-7,9.4,-1.166,0.106,2.71,4.0,,63.085,63.65,201.12
2025-08-15T01:54:59.114Z,4,GR86-006-7,9.1,-1.193,0.186,2.65,4.0,,62.93,64.245,
2025-08-15T01:54:59.157Z,4,GR86-006-7,8.6,-1.206,0.09,2.62,4.0,,62.965,64.365,
2025-08-15T01:54:59.200Z,4,GR86-006-7,6.300000000000001,-1.189,0.117,2.61,4.0,,62.965,64.155,
2025-08-15T01:54:59.243Z,4,GR86-006-7,6.0,-1.172,0.102,2.58,4.0,7019.0,62.995000000000005,64.125,
2025-08-15T01:54:59.286Z,4,GR86-006-7,6.0,-1.11,0.026,6.95,4.0,,62.81,64.06,192.94
2025-08-15T01:54:59.329Z,4,GR86-006-7,6.1000000000000005,-1.145,0.048,49.48,3.0,,61.88,63.375,
2025-08-15T01:54:59.372Z,4,GR86-006-7,6.300000000000001,-1.163,0.026,5.34,3.0,,60.2,62.125,
2025-08-15T01:54:59.415Z,4,GR86-006-7,7.1000000000000005,-1.103,0.069,4.3,3.0,,61.65,63.435,
2025-08-15T01:54:59.458Z,4,GR86-006-7,10.2,-1.308,0.004,3.9,3.0,6903.0,65.495,67.02,
2025-08-15T01:54:59.501Z,4,GR86-006-7,12.1,-1.338,0.043,3.48,3.0,,68.33500000000001,68.535,185.8
2025-08-15T01:54:59.544Z,4,GR86-006-7,12.4,-1.206,0.152,3.22,3.0,,72.24,73.935,
2025-08-15T01:54:59.587Z,4,GR86-006-7,13.2,-1.098,-0.012,3.0,3.0,,72.7,73.54,
2025-08-15T01:54:59.630Z,4,GR86-006-7,14.1,-1.317,0.143,2.87,3.0,,73.43,74.745,
2025-08-15T01:54:59.717Z,4,GR86-006-7,15.4,-1.181,0.104,2.74,3.0,6618.0,77.995,79.81,171.0
2025-08-15T01:54:59.760Z,4,GR86-006-7,15.3,-1.22,0.31,2.66,3.0,,87.06,87.83500000000001,
2025-08-15T01:54:59.804Z,4,GR86-006-7,15.7,-1.24,0.291,2.65,3.0,,88.43,88.31,
2025-08-15T01:54:59.847Z,4,GR86-006-7,16.3,-1.283,0.326,2.62,3.0,,89.21000000000001,88.645,
2025-08-15T01:54:59.890Z,4,GR86-006-7,16.2,-1.313,0.406,2.58,3.0,7232.0,88.83,88.25,
2025-08-15T01:54:59.976Z,4,GR86-006-7,15.7,-1.225,0.407,2.58,3.0,,88.05,86.995,162.62
2025-08-15T01:55:00.019Z,4,GR86-006-7,13.3,-1.233,0.492,2.5500000000000003,3.0,,85.32000000000001,87.56,
2025-08-15T01:55:00.062Z,4,GR86-006-7,8.9,-1.26,0.4,2.56,3.0,,85.595,88.05,
2025-08-15T01:55:00.105Z,4,GR86-006-7,8.8,-1.325,0.436,2.53,3.0,7183.0,86.28,86.905,
2025-08-15T01:55:00.148Z,4,GR86-006-7,8.9,-1.287,0.367,11.52,3.0,,85.625,86.785,155.35
2025-08-15T01:55:00.191Z,4,GR86-006-7,8.8,-1.242,0.459,55.68,2.0,,84.77,87.09,
2025-08-15T01:55:00.234Z,4,GR86-006-7,8.9,-1.3,0.335,5.49,2.0,,86.37,88.34,
2025-08-15T01:55:00.278Z,4,GR86-006-7,10.3,-1.251,0.443,4.18,2.0,,84.39,86.905,
2025-08-15T01:55:00.364Z,4,GR86-006-7,13.5,-1.093,0.464,3.48,2.0,6157.0,68.12,69.8,147.64
2025-08-15T01:55:00.407Z,4,GR86-006-7,5.1000000000000005,-1.042,0.608,3.22,2.0,,64.09,66.33500000000001,
2025-08-15T01:55:00.450Z,4,GR86-006-7,-5.9,-1.118,0.431,2.99,2.0,,62.81,63.285,
2025-08-15T01:55:00.493Z,4,GR86-006-7,-13.2,-1.214,0.413,2.8000000000000003,2.0,,67.08500000000001,68.5,
2025-08-15T01:55:00.536Z,4,GR86-006-7,-11.9,-1.109,0.234,2.71,2.0,6293.0,74.53,75.935,
2025-08-15T01:55:00.579Z,4,GR86-006-7,-4.9,-1.448,0.312,3.37,2.0,,76.24,76.36,139.26
2025-08-15T01:55:00.622Z,4,GR86-006-7,6.5,-1.282,0.475,3.23,2.0,,82.555,84.265,
2025-08-15T01:55:00.665Z,4,GR86-006-7,19.4,-1.086,0.311,2.97,2.0,,89.605,91.15,
2025-08-15T01:55:00.708Z,4,GR86-006-7,24.9,-1.238,0.429,3.3200000000000003,2.0,,90.675,91.405,
2025-08-15T01:55:00.751Z,4,GR86-006-7,24.700000000000003,-1.236,0.464,3.35,2.0,6700.0,91.745,92.215,
2025-08-15T01:55:00.794Z,4,GR86-006-7,25.700000000000003,-1.302,0.227,3.45,2.0,,94.675,94.045,131.94
2025-08-15T01:55:00.837Z,4,GR86-006-7,24.200000000000003,-1.26,0.338,3.5500000000000003,2.0,,93.775,93.115,
2025-08-15T01:55:00.880Z,4,GR86-006-7,22.8,-1.297,0.277,3.49,2.0,,91.225,90.675,
2025-08-15T01:55:00.923Z,4,GR86-006-7,17.2,-1.374,0.187,3.06,2.0,,87.56,87.685,
2025-08-15T01:55:00.966Z,4,GR86-006-7,11.2,-1.329,0.249,2.95,2.0,6657.0,78.39,80.77,
2025-08-15T01:55:01.009Z,4,GR86-006-7,7.300000000000001,-1.199,0.122,2.86,2.0,,70.365,72.895,123.0
2025-08-15T01:55:01.052Z,4,GR86-006-7,5.300000000000001,-1.045,0.186,2.78,2.0,,54.83,57.3,
2025-08-15T01:55:01.095Z,4,GR86-006-7,5.4,-0.926,0.158,2.78,2.0,,42.775,44.94,
2025-08-15T01:55:01.138Z,4,GR86-006-7,5.7,-0.925,0.17,2.75,2.0,,35.89,37.675,
2025-08-15T01:55:01.181Z,4,GR86-006-7,8.5,-0.881,0.158,38.54,2.0,6055.0,33.875,35.050000000000004,
2025-08-15T01:55:01.224Z,4,GR86-006-7,16.7,-0.8160000000000001,0.164,85.14,1.0,,33.525,34.715,114.15
2025-08-15T01:55:01.268Z,4,GR86-006-7,24.6,-0.8240000000000001,0.226,61.63,1.0,,35.115,35.71,
2025-08-15T01:55:01.311Z,4,GR86-006-7,28.8,-1.24,0.238,4.13,1.0,,36.99,37.325,
2025-08-15T01:55:01.354Z,4,GR86-006-7,28.200000000000003,-1.005,0.384,3.01,1.0,,37.235,38.285,
2025-08-15T01:55:01.397Z,4,GR86-006-7,26.5,-0.626,0.271,2.81,1.0,5590.0,32.075,32.9,
2025-08-15T01:55:01.440Z,4,GR86-006-7,23.700000000000003,-1.062,0.392,2.71,1.0,,28.125,28.995,106.71
2025-08-15T01:55:01.483Z,4,GR86-006-7,22.3,-0.919,0.439,2.65,1.0,,26.78,27.47,
2025-08-15T01:55:01.526Z,4,GR86-006-7,23.5,-0.6920000000000001,0.307,2.62,1.0,,25.955,27.025,
2025-08-15T01:55:01.569Z,4,GR86-006-7,29.200000000000003,-0.671,0.522,2.59,1.0,,25.12,25.925,
2025-08-15T01:55:01.614Z,4,GR86-006-7,44.400000000000006,-0.664,0.5640000000000001,2.5500000000000003,1.0,5798.0,22.995,23.96,
2025-08-15T01:55:01.657Z,4,GR86-006-7,50.900000000000006,-0.544,0.65,2.54,1.0,,19.825,20.695,100.57
2025-08-15T01:55:01.700Z,4,GR86-006-7,51.900000000000006,-0.5720000000000001,0.743,2.52,1.0,,17.61,18.615,
2025-08-15T01:55:01.743Z,4,GR86-006-7,50.3,-0.56,0.715,2.52,1.0,,16.97,17.580000000000002,
2025-08-15T01:55:01.786Z,4,GR86-006-7,46.8,-0.605,0.742,2.51,1.0,,17.06,17.61,
2025-08-15T01:55:01.829Z,4,GR86-006-7,45.1,-0.54,0.6900000000000001,2.5,1.0,6706.0,16.525,17.245,
2025-08-15T01:55:01.872Z,4,GR86-006-7,45.400000000000006,-0.513,0.712,2.49,1.0,,15.275,16.145,94.61
2025-08-15T01:55:01.917Z,4,GR86-006-7,48.8,-0.491,0.728,2.5,1.0,,15.365,16.085,
2025-08-15T01:55:02.003Z,4,GR86-006-7,57.6,-0.497,0.762,2.49,1.0,,15.365,15.96,
2025-08-15T01:55:02.046Z,4,GR86-006-7,61.1,-0.543,0.809,2.49,1.0,6282.0,15.595,16.22,
2025-08-15T01:55:02.089Z,4,GR86-006-7,62.2,-0.522,0.84,2.49,1.0,,15.75,16.345,89.7
2025-08-15T01:55:02.132Z,4,GR86-006-7,62.8,-0.532,0.8300000000000001,2.49,1.0,,16.740000000000002,17.215,
2025-08-15T01:55:02.176Z,4,GR86-006-7,65.8,-0.524,0.842,2.49,1.0,,17.12,17.61,
2025-08-15T01:55:02.219Z,4,GR86-006-7,70.8,-0.545,0.857,2.49,1.0,,17.455000000000002,17.93,
2025-08-15T01:55:02.262Z,4,GR86-006-7,74.60000000000001,-0.561,0.935,2.49,1.0,6076.0,17.52,17.93,
2025-08-15T01:55:02.305Z,4,GR86-006-7,75.9,-0.507,1.005,2.49,1.0,,17.12,17.84,86.26
2025-08-15T01:55:02.348Z,4,GR86-006-7,77.10000000000001,-0.489,0.971,2.49,1.0,,16.345,17.09,
2025-08-15T01:55:02.391Z,4,GR86-006-7,81.10000000000001,-0.453,1.006,2.49,1.0,,14.33,15.185,
2025-08-15T01:55:02.434Z,4,GR86-006-7,84.5,-0.437,1.016,2.49,1.0,,10.24,11.125,
2025-08-15T01:55:02.478Z,4,GR86-006-7,85.0,-0.341,1.046,2.5500000000000003,1.0,5836.0,5.16,5.965,
2025-08-15T01:55:02.521Z,4,GR86-006-7,85.7,-0.242,1.116,2.68,1.0,,0.0,0.0,79.64
2025-08-15T01:55:02.564Z,4,GR86-006-7,89.5,-0.214,1.136,2.99,1.0,,0.0,0.0,
2025-08-15T01:55:02.607Z,4,GR86-006-7,97.6,-0.223,1.172,2.9,1.0,,0.0,0.0,
2025-08-15T01:55:02.650Z,4,GR86-006-7,105.8,-0.227,1.246,2.81,1.0,,0.0,0.0,
2025-08-15T01:55:02.693Z,4,GR86-006-7,110.4,-0.252,1.216,2.78,1.0,5568.0,0.0,0.0,
2025-08-15T01:55:02.736Z,4,GR86-006-7,109.9,-0.248,1.206,2.94,1.0,,0.0,0.0,76.68
2025-08-15T01:55:02.779Z,4,GR86-006-7,109.4,-0.306,1.416,9.27,1.0,,0.0,0.0,
2025-08-15T01:55:02.822Z,4,GR86-006-7,109.2,-0.145,0.992,12.61,1.0,,0.0,0.0,
2025-08-15T01:55:02.865Z,4,GR86-006-7,109.1,-0.25,1.428,20.47,1.0,,0.0,0.0,
2025-08-15T01:55:02.908Z,4,GR86-006-7,108.3,-0.09,0.96,20.75,1.0,5327.0,0.0,0.0,
2025-08-15T01:55:02.951Z,4,GR86-006-7,107.5,-0.177,1.26,21.3,1.0,,0.0,0.0,75.03
2025-08-15T01:55:02.994Z,4,GR86-006-7,106.6,-0.097,1.131,25.96,1.0,,0.0,0.0,
2025-08-15T01:55:03.037Z,4,GR86-006-7,103.8,-0.134,1.153,33.160000000000004,1.0,,0.0,0.0,
2025-08-15T01:55:03.080Z,4,GR86-006-7,101.0,-0.016,1.13,35.92,1.0,,0.0,0.0,
2025-08-15T01:55:03.123Z,4,GR86-006-7,94.9,0.072,1.028,43.08,1.0,5200.0,0.0,0.0,
2025-08-15T01:55:03.166Z,4,GR86-006-7,82.4,0.232,1.022,50.58,1.0,,0.0,0.0,73.59
2025-08-15T01:55:03.209Z,4,GR86-006-7,74.10000000000001,0.05,1.06,56.620000000000005,1.0,,0.0,0.0,
2025-08-15T01:55:03.297Z,4,GR86-006-7,71.9,0.363,1.049,99.79,1.0,,0.0,0.0,
2025-08-15T01:55:03.340Z,4,GR86-006-7,68.0,0.432,0.951,99.82,1.0,5617.0,0.0,0.0,
2025-08-15T01:55:03.383Z,4,GR86-006-7,64.3,0.341,1.006,99.84,1.0,,0.0,0.0,72.41
2025-08-15T01:55:03.426Z,4,GR86-006-7,63.8,0.044,1.18,99.82,1.0,,0.0,0.0,
2025-08-15T01:55:03.469Z,4,GR86-006-7,64.10000000000001,0.5730000000000001,1.127,99.83,1.0,,0.0,0.0,
2025-08-15T01:55:03.514Z,4,GR86-006-7,59.3,0.28,0.963,99.85,1.0,,0.0,0.0,
2025-08-15T01:55:03.557Z,4,GR86-006-7,47.900000000000006,0.14,1.037,99.82,1.0,5945.0,0.0,0.0,
2025-08-15T01:55:03.600Z,4,GR86-006-7,41.400000000000006,0.394,1.295,99.86,1.0,,0.0,0.0,72.28
2025-08-15T01:55:03.643Z,4,GR86-006-7,33.9,0.39,0.776,99.84,1.0,,0.0,0.0,
2025-08-15T01:55:03.686Z,4,GR86-006-7,21.8,0.132,1.189,99.86,1.0,,0.0,0.0,
2025-08-15T01:55:03.729Z,4,GR86-006-7,11.9,0.619,0.921,99.86,1.0,,0.0,0.0,
2025-08-15T01:55:03.772Z,4,GR86-006-7,24.6,0.485,0.976,99.85,1.0,6148.0,0.0,0.0,
2025-08-15T01:55:03.815Z,4,GR86-006-7,52.5,0.522,1.136,99.89,1.0,,0.0,0.0,73.92
2025-08-15T01:55:03.858Z,4,GR86-006-7,73.8,0.545,1.084,99.86,1.0,,0.0,0.0,
2025-08-15T01:55:03.902Z,4,GR86-006-7,78.9,0.411,1.107,99.86,1.0,,0.0,0.0,
2025-08-15T01:55:03.945Z,4,GR86-006-7,76.0,0.333,1.198,99.86,1.0,,0.0,0.0,
2025-08-15T01:55:03.988Z,4,GR86-006-7,70.8,0.217,1.064,99.88,1.0,6422.0,0.0,0.0,
2025-08-15T01:55:04.031Z,4,GR86-006-7,60.5,0.285,1.131,99.86,1.0,,0.0,0.0,75.37
2025-08-15T01:55:04.074Z,4,GR86-006-7,47.900000000000006,0.34,1.124,99.89,1.0,,0.0,0.0,
2025-08-15T01:55:04.117Z,4,GR86-006-7,36.4,0.311,1.151,99.88,1.0,,0.0,0.0,
2025-08-15T01:55:04.160Z,4,GR86-006-7,27.9,0.369,1.056,99.88,1.0,,0.0,0.0,
2025-08-15T01:55:04.203Z,4,GR86-006-7,17.0,0.329,1.036,99.87,1.0,6142.0,0.0,0.0,
2025-08-15T01:55:04.246Z,4,GR86-006-7,8.8,0.36,0.963,99.88,1.0,,0.0,0.0,77.46000000000001
2025-08-15T01:55:04.289Z,4,GR86-006-7,5.800000000000001,0.357,0.906,99.89,1.0,,0.0,0.0,
2025-08-15T01:55:04.332Z,4,GR86-006-7,2.6,0.345,0.958,99.89,1.0,,0.0,0.0,
2025-08-15T01:55:04.375Z,4,GR86-006-7,-4.5,0.36,0.92,99.89,1.0,,0.0,0.0,
2025-08-15T01:55:04.418Z,4,GR86-006-7,-13.2,0.357,0.89,99.89,1.0,6369.0,0.0,0.0,
2025-08-15T01:55:04.461Z,4,GR86-006-7,-15.3,0.392,0.839,99.88,1.0,,0.0,0.0,79.42
2025-08-15T01:55:04.504Z,4,GR86-006-7,-10.5,0.439,0.839,99.88,1.0,,0.0,0.0,
2025-08-15T01:55:04.547Z,4,GR86-006-7,-0.9,0.445,0.867,99.87,1.0,,0.0,0.0,
2025-08-15T01:55:04.590Z,4,GR86-006-7,17.3,0.433,0.939,99.88,1.0,,0.0,0.0,
2025-08-15T01:55:04.633Z,4,GR86-006-7,50.2,0.416,1.001,99.89,1.0,6517.0,0.0,0.0,
2025-08-15T01:55:04.676Z,4,GR86-006-7,57.3,0.384,1.045,99.88,1.0,,0.0,0.0,81.87
2025-08-15T01:55:04.719Z,4,GR86-006-7,56.2,0.356,1.01,99.89,1.0,,0.0,0.0,
2025-08-15T01:55:04.762Z,4,GR86-006-7,55.1,0.335,0.965,99.89,1.0,,0.0,0.0,
2025-08-15T01:55:04.805Z,4,GR86-006-7,54.900000000000006,0.353,0.919,99.88,1.0,,0.0,0.0,
2025-08-15T01:55:04.848Z,4,GR86-006-7,55.3,0.324,0.853,99.88,1.0,6665.0,0.0,0.0,
2025-08-15T01:55:04.891Z,4,GR86-006-7,54.0,0.319,0.867,99.88,1.0,,0.0,0.0,83.54
2025-08-15T01:55:04.934Z,4,GR86-006-7,46.7,0.304,0.8230000000000001,99.88,1.0,,0.0,0.0,
2025-08-15T01:55:04.977Z,4,GR86-006-7,34.0,0.336,0.737,99.89,1.0,,0.0,0.0,
2025-08-15T01:55:05.063Z,4,GR86-006-7,21.200000000000003,0.367,0.559,99.89,1.0,6573.0,0.0,0.0,
2025-08-15T01:55:05.106Z,4,GR86-006-7,21.200000000000003,0.343,0.554,99.87,1.0,,0.0,0.0,84.79
2025-08-15T01:55:05.149Z,4,GR86-006-7,21.200000000000003,0.387,0.508,99.89,1.0,,0.0,0.0,
2025-08-15T01:55:05.192Z,4,GR86-006-7,23.6,0.368,0.389,99.89,1.0,,0.0,0.0,
2025-08-15T01:55:05.235Z,4,GR86-006-7,25.200000000000003,0.347,0.387,99.9,1.0,,0.0,0.0,
2025-08-15T01:55:05.278Z,4,GR86-006-7,26.700000000000003,0.409,0.348,99.88,1.0,6714.0,0.0,0.0,
2025-08-15T01:55:05.321Z,4,GR86-006-7,27.4,0.341,0.361,99.92,1.0,,0.0,0.0,90.53
2025-08-15T01:55:05.364Z,4,GR86-006-7,27.1,0.298,0.384,99.89,1.0,,0.0,0.0,
2025-08-15T01:55:05.407Z,4,GR86-006-7,26.1,0.254,0.403,99.91,1.0,,0.0,0.0,
2025-08-15T01:55:05.450Z,4,GR86-006-7,24.4,0.315,0.452,99.88,1.0,,0.0,0.0,
2025-08-15T01:55:05.493Z,4,GR86-006-7,20.0,0.349,0.426,99.9,1.0,6888.0,0.0,0.0,
2025-08-15T01:55:05.536Z,4,GR86-006-7,20.0,0.279,0.402,99.91,1.0,,0.0,0.0,92.33
2025-08-15T01:55:05.579Z,4,GR86-006-7,19.9,0.298,0.422,99.92,1.0,,0.0,0.0,
2025-08-15T01:55:05.622Z,4,GR86-006-7,19.9,0.06,0.366,99.92,2.0,,0.0,0.0,
2025-08-15T01:55:05.667Z,4,GR86-006-7,19.700000000000003,0.012,0.302,99.93,2.0,,0.0,0.0,
2025-08-15T01:55:05.710Z,4,GR86-006-7,19.6,0.799,0.259,99.92,2.0,7039.0,0.0,0.0,
2025-08-15T01:55:05.753Z,4,GR86-006-7,19.4,0.6950000000000001,0.253,99.91,2.0,,0.0,0.0,94.82
2025-08-15T01:55:05.796Z,4,GR86-006-7,19.1,0.657,0.387,99.91,2.0,,0.0,0.0,
2025-08-15T01:55:05.840Z,4,GR86-006-7,18.9,0.471,0.216,99.92,2.0,,0.0,0.0,
2025-08-15T01:55:05.883Z,4,GR86-006-7,18.8,0.283,0.289,99.92,2.0,,0.0,0.0,
2025-08-15T01:55:05.926Z,4,GR86-006-7,18.5,0.187,0.463,99.91,2.0,6410.0,0.0,0.0,
2025-08-15T01:55:05.969Z,4,GR86-006-7,18.4,0.243,0.257,99.92,2.0,,0.0,0.0,97.01
2025-08-15T01:55:06.014Z,4,GR86-006-7,18.0,0.374,0.324,99.9,2.0,,0.0,0.0,
2025-08-15T01:55:06.057Z,4,GR86-006-7,17.6,0.361,0.283,99.91,2.0,,0.0,0.0,
2025-08-15T01:55:06.100Z,4,GR86-006-7,17.3,0.361,0.237,99.91,2.0,,0.0,0.0,
2025-08-15T01:55:06.143Z,4,GR86-006-7,17.2,0.333,0.288,99.91,2.0,5767.0,0.0,0.0,
2025-08-15T01:55:06.186Z,4,GR86-006-7,17.0,0.289,0.224,99.9,2.0,,0.0,0.0,99.54
2025-08-15T01:55:06.229Z,4,GR86-006-7,17.0,0.245,0.219,99.91,2.0,,0.0,0.0,
2025-08-15T01:55:06.272Z,4,GR86-006-7,17.0,0.341,0.225,99.91,2.0,,0.0,0.0,
2025-08-15T01:55:06.315Z,4,GR86-006-7,17.0,0.34,0.172,99.91,2.0,,0.0,0.0,
2025-08-15T01:55:06.358Z,4,GR86-006-7,16.7,0.341,0.185,99.91,2.0,5957.0,0.0,0.0,
2025-08-15T01:55:06.401Z,4,GR86-006-7,16.400000000000002,0.347,0.168,99.91,2.0,,0.0,0.0,101.6
2025-08-15T01:55:06.444Z,4,GR86-006-7,15.0,0.285,0.157,99.93,2.0,,0.0,0.0,
2025-08-15T01:55:06.487Z,4,GR86-006-7,14.2,0.292,0.243,99.92,2.0,,0.0,0.0,
2025-08-15T01:55:06.530Z,4,GR86-006-7,14.2,0.283,0.24,99.91,2.0,,0.0,0.0,
2025-08-15T01:55:06.573Z,4,GR86-006-7,15.0,0.291,0.251,99.92,2.0,6043.0,0.0,0.0,
2025-08-15T01:55:06.617Z,4,GR86-006-7,15.7,0.292,0.288,99.92,2.0,,0.0,0.0,103.55
2025-08-15T01:55:06.660Z,4,GR86-006-7,15.2,0.271,0.239,99.92,2.0,,0.0,0.0,
2025-08-15T01:55:06.704Z,4,GR86-006-7,13.1,0.266,0.225,99.91,2.0,,0.0,0.0,
2025-08-15T01:55:06.748Z,4,GR86-006-7,8.700000000000001,0.293,0.197,99.92,2.0,,0.0,0.0,
2025-08-15T01:55:06.791Z,4,GR86-006-7,7.4,0.298,0.157,99.92,2.0,6143.0,0.0,0.0,
2025-08-15T01:55:06.834Z,4,GR86-006-7,7.4,0.286,0.149,99.92,2.0,,0.0,0.0,105.41
2025-08-15T01:55:06.878Z,4,GR86-006-7,6.1000000000000005,0.283,0.111,99.91,2.0,,0.0,0.0,
2025-08-15T01:55:06.921Z,4,GR86-006-7,4.0,0.272,0.068,99.92,2.0,,0.0,0.0,
2025-08-15T01:55:06.964Z,4,GR86-006-7,3.8,0.275,0.03,99.92,2.0,,0.0,0.0,
2025-08-15T01:55:07.007Z,4,GR86-006-7,3.8,0.287,0.0,99.92,2.0,6227.0,0.0,0.0,
2025-08-15T01:55:07.050Z,4,GR86-006-7,3.8,0.281,-0.028,99.91,2.0,,0.0,0.0,107.19
2025-08-15T01:55:07.093Z,4,GR86-006-7,3.8,0.28,-0.015,99.92,2.0,,0.0,0.0,
2025-08-15T01:55:07.136Z,4,GR86-006-7,3.1,0.278,-0.005,99.91,2.0,,0.0,0.0,
2025-08-15T01:55:07.179Z,4,GR86-006-7,1.6,0.276,-0.033,99.92,2.0,,0.0,0.0,
2025-08-15T01:55:07.222Z,4,GR86-006-7,1.2000000000000002,0.284,-0.033,99.92,2.0,6311.0,0.0,0.0,
2025-08-15T01:55:07.265Z,4,GR86-006-7,1.2000000000000002,0.29,-0.057,99.92,2.0,,0.0,0.0,109.02
2025-08-15T01:55:07.309Z,4,GR86-006-7,0.8,0.278,-0.069,99.9,2.0,,0.0,0.0,
2025-08-15T01:55:07.352Z,4,GR86-006-7,0.3,0.271,-0.082,99.91,2.0,,0.0,0.0,
2025-08-15T01:55:07.396Z,4,GR86-006-7,0.3,0.286,-0.096,99.92,2.0,,0.0,0.0,
2025-08-15T01:55:07.439Z,4,GR86-006-7,0.4,0.28,-0.095,99.92,2.0,6405.0,0.0,0.0,
2025-08-15T01:55:07.482Z,4,GR86-006-7,0.4,0.272,-0.09,99.92,2.0,,0.0,0.0,110.8
2025-08-15T01:55:07.525Z,4,GR86-006-7,0.4,0.278,-0.088,99.91,2.0,,0.0,0.0,
2025-08-15T01:55:07.568Z,4,GR86-006-7,0.4,0.27,-0.097,99.9,2.0,,0.0,0.0,
2025-08-15T01:55:07.611Z,4,GR86-006-7,0.5,0.281,-0.088,99.91,2.0,,0.0,0.0,
2025-08-15T01:55:07.654Z,4,GR86-006-7,0.5,0.283,-0.079,99.93,2.0,6513.0,0.0,0.0,
2025-08-15T01:55:07.697Z,4,GR86-006-7,0.5,0.274,-0.071,99.9,2.0,,0.0,0.0,112.47
2025-08-15T01:55:07.740Z,4,GR86-006-7,0.5,0.273,-0.084,99.92,2.0,,0.0,0.0,
2025-08-15T01:55:07.783Z,4,GR86-006-7,0.5,0.279,-0.096,99.91,2.0,,0.0,0.0,
2025-08-15T01:55:07.826Z,4,GR86-006-7,0.5,0.272,-0.091,99.9,2.0,,0.0,0.0,
2025-08-15T01:55:07.869Z,4,GR86-006-7,0.5,0.279,-0.105,99.91,2.0,6601.0,0.0,0.0,
2025-08-15T01:55:07.914Z,4,GR86-006-7,0.6000000000000001,0.275,-0.098,99.92,2.0,,0.0,0.0,115.74
2025-08-15T01:55:07.957Z,4,GR86-006-7,0.6000000000000001,0.278,-0.085,99.92,2.0,,0.0,0.0,
2025-08-15T01:55:08.000Z,4,GR86-006-7,0.6000000000000001,0.269,-0.1,99.9,2.0,,0.0,0.0,
2025-08-15T01:55:08.043Z,4,GR86-006-7,0.5,0.276,-0.102,99.9,2.0,,0.0,0.0,
2025-08-15T01:55:08.086Z,4,GR86-006-7,0.5,0.283,-0.096,99.91,2.0,6692.0,0.0,0.0,
2025-08-15T01:55:08.129Z,4,GR86-006-7,0.5,0.281,-0.115,99.92,2.0,,0.0,0.0,117.35
2025-08-15T01:55:08.172Z,4,GR86-006-7,0.5,0.27,-0.116,99.91,2.0,,0.0,0.0,
2025-08-15T01:55:08.260Z,4,GR86-006-7,0.5,0.258,-0.109,99.92,2.0,,0.0,0.0,
2025-08-15T01:55:08.346Z,4,GR86-006-7,0.4,0.287,-0.124,99.9,2.0,6781.0,0.0,0.0,118.86
2025-08-15T01:55:08.389Z,4,GR86-006-7,-1.5,0.271,-0.159,99.92,2.0,,0.0,0.0,
2025-08-15T01:55:08.432Z,4,GR86-006-7,-3.0,0.254,-0.182,99.92,2.0,,0.0,0.0,
2025-08-15T01:55:08.476Z,4,GR86-006-7,-3.7,0.265,-0.215,99.91,2.0,,0.0,0.0,
2025-08-15T01:55:08.519Z,4,GR86-006-7,-4.1000000000000005,0.272,-0.239,99.91,2.0,6956.0,0.0,0.0,
2025-08-15T01:55:08.562Z,4,GR86-006-7,-4.4,0.282,-0.259,99.92,2.0,,0.0,0.0,120.31
2025-08-15T01:55:08.605Z,4,GR86-006-7,-4.3,0.259,-0.273,99.91,2.0,,0.0,0.0,
2025-08-15T01:55:08.648Z,4,GR86-006-7,-4.4,0.255,-0.291,99.92,2.0,,0.0,0.0,
2025-08-15T01:55:08.691Z,4,GR86-006-7,-4.9,0.261,-0.292,99.9,2.0,,0.0,0.0,
2025-08-15T01:55:08.734Z,4,GR86-006-7,-5.5,0.269,-0.313,99.91,2.0,7032.0,0.0,0.0,
2025-08-15T01:55:08.777Z,4,GR86-006-7,-5.6000000000000005,0.266,-0.314,99.91,2.0,,0.0,0.0,121.55
2025-08-15T01:55:08.820Z,4,GR86-006-7,-5.6000000000000005,0.261,-0.324,99.92,2.0,,0.0,0.0,
2025-08-15T01:55:08.863Z,4,GR86-006-7,-5.300000000000001,0.267,-0.344,99.92,2.0,,0.0,0.0,
2025-08-15T01:55:08.906Z,4,GR86-006-7,-5.300000000000001,0.138,-0.351,99.92,2.0,,0.0,0.0,
2025-08-15T01:55:08.949Z,4,GR86-006-7,-5.300000000000001,-0.12,-0.298,99.92,3.0,7100.0,0.0,0.0,
2025-08-15T01:55:08.992Z,4,GR86-006-7,-4.800000000000001,0.484,-0.401,99.91,3.0,,0.0,0.0,122.8
2025-08-15T01:55:09.035Z,4,GR86-006-7,-4.7,0.446,-0.37,99.92,3.0,,0.0,0.0,
2025-08-15T01:55:09.078Z,4,GR86-006-7,-4.7,0.352,-0.264,99.92,3.0,,0.0,0.0,
2025-08-15T01:55:09.121Z,4,GR86-006-7,-4.6000000000000005,0.167,-0.369,99.92,3.0,,0.0,0.0,
2025-08-15T01:55:09.164Z,4,GR86-006-7,-4.4,0.107,-0.337,99.92,3.0,6868.0,0.0,0.0,
2025-08-15T01:55:09.207Z,4,GR86-006-7,-4.3,0.18,-0.235,99.91,3.0,,0.0,0.0,124.04
2025-08-15T01:55:09.251Z,4,GR86-006-7,-4.1000000000000005,0.292,-0.308,99.91,3.0,,0.0,0.0,
2025-08-15T01:55:09.294Z,4,GR86-006-7,-3.9,0.247,-0.201,99.92,3.0,,0.0,0.0,
2025-08-15T01:55:09.337Z,4,GR86-006-7,-3.6,0.189,-0.2,99.92,3.0,,0.0,0.0,
2025-08-15T01:55:09.380Z,4,GR86-006-7,-1.9,0.189,-0.192,99.93,3.0,5750.0,0.0,0.0,
2025-08-15T01:55:09.466Z,4,GR86-006-7,-0.4,0.223,-0.131,99.92,3.0,,0.0,0.0,125.07
2025-08-15T01:55:09.509Z,4,GR86-006-7,0.9,0.217,-0.06,99.9,3.0,,0.0,0.0,
2025-08-15T01:55:09.554Z,4,GR86-006-7,0.9,0.218,-0.014,99.91,3.0,,0.0,0.0,
2025-08-15T01:55:09.598Z,4,GR86-006-7,0.9,0.206,-0.004,99.91,3.0,5862.0,0.0,0.0,
2025-08-15T01:55:09.641Z,4,GR86-006-7,0.8,0.237,-0.008,99.91,3.0,,0.0,0.0,126.25
2025-08-15T01:55:09.684Z,4,GR86-006-7,0.7000000000000001,0.225,-0.013,99.91,3.0,,0.0,0.0,
2025-08-15T01:55:09.727Z,4,GR86-006-7,0.4,0.205,-0.054,99.92,3.0,,0.0,0.0,
2025-08-15T01:55:09.771Z,4,GR86-006-7,-0.2,0.226,-0.075,99.91,3.0,,0.0,0.0,
2025-08-15T01:55:09.814Z,4,GR86-006-7,-0.3,0.213,-0.11,99.91,3.0,5932.0,0.0,0.0,
2025-08-15T01:55:09.857Z,4,GR86-006-7,-0.2,0.228,-0.14,99.92,3.0,,0.0,0.0,127.12
2025-08-15T01:55:09.900Z,4,GR86-006-7,-0.1,0.219,-0.151,99.91,3.0,,0.0,0.0,
2025-08-15T01:55:09.943Z,4,GR86-006-7,0.0,0.204,-0.167,99.92,3.0,,0.0,0.0,
2025-08-15T01:55:09.986Z,4,GR86-006-7,0.0,0.232,-0.142,99.92,3.0,,0.0,0.0,
2025-08-15T01:55:10.029Z,4,GR86-006-7,0.0,0.226,-0.125,99.92,3.0,5985.0,0.0,0.0,
2025-08-15T01:55:10.072Z,4,GR86-006-7,0.0,0.237,-0.098,99.91,3.0,,0.0,0.0,128.0
2025-08-15T01:55:10.115Z,4,GR86-006-7,0.0,0.215,-0.097,92.14,3.0,,0.0,0.0,
2025-08-15T01:55:10.158Z,4,GR86-006-7,0.0,0.2,-0.089,50.46,3.0,,0.0,0.0,
2025-08-15T01:55:10.201Z,4,GR86-006-7,0.0,0.229,-0.082,35.42,3.0,,2.61,3.005,
2025-08-15T01:55:10.244Z,4,GR86-006-7,0.0,0.184,-0.095,23.82,3.0,6033.0,4.5,4.6850000000000005,
2025-08-15T01:55:10.287Z,4,GR86-006-7,0.0,0.055,-0.097,5.25,3.0,,6.575,6.775,128.89
2025-08-15T01:55:10.330Z,4,GR86-006-7,0.0,0.006,-0.088,4.54,3.0,,8.975,9.155,
2025-08-15T01:55:10.373Z,4,GR86-006-7,2.5,-0.297,-0.05,4.38,3.0,,14.635,14.635,
2025-08-15T01:55:10.417Z,4,GR86-006-7,6.5,-0.285,0.0,4.1,3.0,,18.74,18.555,
2025-08-15T01:55:10.460Z,4,GR86-006-7,10.2,-0.578,0.006,3.75,3.0,6076.0,21.12,21.12,
2025-08-15T01:55:10.503Z,4,GR86-006-7,10.9,-0.532,0.113,3.42,3.0,,22.815,22.815,129.74
2025-08-15T01:55:10.546Z,4,GR86-006-7,10.8,-0.42,0.136,3.14,3.0,,23.365,23.335,
2025-08-15T01:55:10.589Z,4,GR86-006-7,10.7,-0.439,0.107,2.94,3.0,,23.06,23.53,
2025-08-15T01:55:10.632Z,4,GR86-006-7,6.800000000000001,-0.474,0.129,2.8000000000000003,3.0,,22.705,23.18,
2025-08-15T01:55:10.675Z,4,GR86-006-7,5.4,-0.489,0.056,2.75,3.0,6039.0,22.615,23.12,
2025-08-15T01:55:10.718Z,4,GR86-006-7,5.300000000000001,-0.462,0.096,2.68,3.0,,22.34,22.815,129.48
2025-08-15T01:55:10.761Z,4,GR86-006-7,5.300000000000001,-0.451,0.096,2.65,3.0,,22.02,22.675,
2025-08-15T01:55:10.804Z,4,GR86-006-7,5.4,-0.478,0.063,2.62,3.0,,22.815,23.18,
2025-08-15T01:55:10.847Z,4,GR86-006-7,5.6000000000000005,-0.466,0.092,20.1,3.0,,24.92,24.86,
2025-08-15T01:55:10.890Z,4,GR86-006-7,8.1,-0.534,0.107,65.58,3.0,5831.0,29.835,29.62,
2025-08-15T01:55:10.933Z,4,GR86-006-7,10.2,-0.8130000000000001,0.119,17.580000000000002,2.0,,36.805,36.425,125.74
2025-08-15T01:55:10.976Z,4,GR86-006-7,10.2,-0.793,0.136,3.82,2.0,,39.645,40.715,
2025-08-15T01:55:11.019Z,4,GR86-006-7,10.4,-0.84,0.171,3.48,2.0,,41.46,42.545,
2025-08-15T01:55:11.062Z,4,GR86-006-7,12.2,-0.932,0.084,3.18,2.0,,41.215,41.86,
2025-08-15T01:55:11.105Z,4,GR86-006-7,14.6,-0.91,0.262,2.94,2.0,5649.0,42.33,43.355,
2025-08-15T01:55:11.149Z,4,GR86-006-7,18.9,-0.752,0.274,2.84,2.0,,42.775,43.735,121.91
2025-08-15T01:55:11.192Z,4,GR86-006-7,24.4,-0.929,0.389,2.74,2.0,,38.595,38.805,
2025-08-15T01:55:11.235Z,4,GR86-006-7,26.6,-0.761,0.518,2.7,2.0,,36.93,37.355,
2025-08-15T01:55:11.278Z,4,GR86-006-7,28.3,-0.732,0.415,2.65,2.0,,35.050000000000004,35.92,
2025-08-15T01:55:11.321Z,4,GR86-006-7,28.5,-0.653,0.622,2.63,2.0,6099.0,32.96,34.305,
2025-08-15T01:55:11.364Z,4,GR86-006-7,27.9,-0.6990000000000001,0.666,2.62,2.0,,30.275,31.62,116.76
2025-08-15T01:55:11.407Z,4,GR86-006-7,27.200000000000003,-0.669,0.556,2.59,2.0,,25.805,27.255,
2025-08-15T01:55:11.450Z,4,GR86-006-7,26.6,-0.533,0.6910000000000001,2.58,2.0,,20.63,21.93,
2025-08-15T01:55:11.493Z,4,GR86-006-7,25.0,-0.469,0.587,2.58,2.0,,17.335,17.96,
2025-08-15T01:55:11.536Z,4,GR86-006-7,24.200000000000003,-0.483,0.646,2.58,2.0,6019.0,16.740000000000002,17.580000000000002,
2025-08-15T01:55:11.579Z,4,GR86-006-7,24.1,-0.476,0.592,2.56,2.0,,17.455000000000002,17.990000000000002,111.52
2025-08-15T01:55:11.622Z,4,GR86-006-7,25.0,-0.493,0.624,2.5500000000000003,2.0,,17.900000000000002,18.585,
2025-08-15T01:55:11.668Z,4,GR86-006-7,31.200000000000003,-0.468,0.632,2.56,2.0,,18.615,19.21,
2025-08-15T01:55:11.711Z,4,GR86-006-7,38.400000000000006,-0.494,0.648,2.5500000000000003,2.0,,18.495,19.335,
2025-08-15T01:55:11.754Z,4,GR86-006-7,46.6,-0.496,0.6990000000000001,2.5500000000000003,2.0,5809.0,18.205,19.075,
2025-08-15T01:55:11.797Z,4,GR86-006-7,49.0,-0.473,0.739,2.5500000000000003,2.0,,18.495,19.015,107.26
2025-08-15T01:55:11.841Z,4,GR86-006-7,49.900000000000006,-0.51,0.763,2.53,2.0,,18.145,18.955,
2025-08-15T01:55:11.884Z,4,GR86-006-7,50.2,-0.459,0.8170000000000001,2.54,2.0,,18.495,19.045,
2025-08-15T01:55:11.927Z,4,GR86-006-7,50.8,-0.493,0.84,2.52,2.0,,18.145,18.955,
2025-08-15T01:55:11.970Z,4,GR86-006-7,50.900000000000006,-0.437,0.878,2.52,2.0,5636.0,18.02,18.65,
2025-08-15T01:55:12.014Z,4,GR86-006-7,49.900000000000006,-0.453,0.925,2.52,2.0,,16.025,16.94,103.23
2025-08-15T01:55:12.057Z,4,GR86-006-7,48.3,-0.442,0.956,2.52,2.0,,13.55,14.575,
2025-08-15T01:55:12.100Z,4,GR86-006-7,48.7,-0.354,1.003,2.49,2.0,,11.52,12.36,
2025-08-15T01:55:12.143Z,4,GR86-006-7,50.6,-0.328,0.999,2.49,2.0,,9.125,10.055,
2025-08-15T01:55:12.186Z,4,GR86-006-7,53.400000000000006,-0.292,1.055,2.49,2.0,5416.0,6.96,7.8,
2025-08-15T01:55:12.229Z,4,GR86-006-7,54.2,-0.28,1.11,2.49,2.0,,4.625,5.34,99.72
2025-08-15T01:55:12.272Z,4,GR86-006-7,54.3,-0.205,1.137,2.48,2.0,,2.885,3.28,
2025-08-15T01:55:12.315Z,4,GR86-006-7,55.7,-0.216,1.13,2.47,2.0,,2.455,2.855,
2025-08-15T01:55:12.358Z,4,GR86-006-7,58.1,-0.204,1.162,2.46,2.0,,0.0,0.0,
2025-08-15T01:55:12.402Z,4,GR86-006-7,59.5,-0.174,1.142,2.48,2.0,5214.0,0.0,0.0,
2025-08-15T01:55:12.447Z,4,GR86-006-7,59.7,-0.17,1.159,2.65,2.0,,0.0,0.0,96.77
2025-08-15T01:55:12.490Z,4,GR86-006-7,60.8,-0.158,1.134,3.09,2.0,,0.0,0.0,
2025-08-15T01:55:12.533Z,4,GR86-006-7,68.5,-0.163,1.173,3.66,2.0,,0.0,0.0,
2025-08-15T01:55:12.578Z,4,GR86-006-7,76.0,-0.184,1.196,4.08,2.0,,0.0,0.0,
2025-08-15T01:55:12.622Z,4,GR86-006-7,80.80000000000001,-0.172,1.183,5.44,2.0,5136.0,0.0,0.0,
2025-08-15T01:55:12.665Z,4,GR86-006-7,81.5,-0.182,1.217,8.09,2.0,,0.0,0.0,94.53
2025-08-15T01:55:12.708Z,4,GR86-006-7,81.2,-0.177,1.194,18.36,2.0,,0.0,0.0,
2025-08-15T01:55:12.751Z,4,GR86-006-7,80.80000000000001,-0.148,1.197,20.89,2.0,,0.0,0.0,
2025-08-15T01:55:12.794Z,4,GR86-006-7,81.0,-0.139,1.208,27.75,2.0,,0.0,0.0,
2025-08-15T01:55:12.837Z,4,GR86-006-7,81.2,-0.121,1.169,42.69,2.0,5087.0,0.0,0.0,
2025-08-15T01:55:12.880Z,4,GR86-006-7,81.10000000000001,-0.112,1.207,73.35000000000001,2.0,,0.0,0.0,92.86
2025-08-15T01:55:12.923Z,4,GR86-006-7,81.0,-0.032,1.076,99.37,2.0,,0.0,0.0,
2025-08-15T01:55:12.966Z,4,GR86-006-7,80.7,0.306,1.079,99.82,2.0,,0.0,0.0,
2025-08-15T01:55:13.009Z,4,GR86-006-7,80.10000000000001,0.269,1.307,99.85,2.0,,0.0,0.0,
2025-08-15T01:55:13.052Z,4,GR86-006-7,77.80000000000001,0.171,1.321,99.84,2.0,5036.0,0.0,0.0,
2025-08-15T01:55:13.096Z,4,GR86-006-7,75.3,0.268,1.209,99.85,2.0,,0.0,0.0,91.47
2025-08-15T01:55:13.140Z,4,GR86-006-7,69.8,0.221,1.092,99.85,2.0,,0.0,0.0,
2025-08-15T01:55:13.183Z,4,GR86-006-7,62.2,0.01,1.155,99.86,2.0,,0.0,0.0,
2025-08-15T01:55:13.226Z,4,GR86-006-7,53.6,0.24,1.348,99.84,2.0,,0.0,0.0,
2025-08-15T01:55:13.269Z,4,GR86-006-7,44.400000000000006,0.558,1.078,99.85,2.0,5320.0,0.0,0.0,
2025-08-15T01:55:13.314Z,4,GR86-006-7,34.5,0.442,1.155,99.85,2.0,,0.0,0.0,90.04
2025-08-15T01:55:13.357Z,4,GR86-006-7,31.3,0.426,0.94,99.85,2.0,,0.0,0.0,
2025-08-15T01:55:13.400Z,4,GR86-006-7,30.1,0.173,0.969,99.86,2.0,,0.0,0.0,
2025-08-15T01:55:13.443Z,4,GR86-006-7,36.8,0.117,1.009,99.86,2.0,,0.0,0.0,
2025-08-15T01:55:13.486Z,4,GR86-006-7,50.5,0.39,0.963,99.86,2.0,5323.0,0.0,0.0,
2025-08-15T01:55:13.529Z,4,GR86-006-7,63.2,0.373,0.966,99.86,2.0,,0.0,0.0,91.45
2025-08-15T01:55:13.572Z,4,GR86-006-7,73.3,0.542,1.088,99.86,2.0,,0.0,0.0,
2025-08-15T01:55:13.617Z,4,GR86-006-7,75.0,0.375,1.107,99.85,2.0,,0.0,0.0,
2025-08-15T01:55:13.660Z,4,GR86-006-7,75.10000000000001,0.179,1.227,99.88,2.0,,0.0,0.0,
2025-08-15T01:55:13.703Z,4,GR86-006-7,75.3,0.256,1.078,99.89,2.0,5496.0,0.0,0.0,
2025-08-15T01:55:13.746Z,4,GR86-006-7,75.7,0.14,1.113,99.85,2.0,,0.0,0.0,92.76
2025-08-15T01:55:13.789Z,4,GR86-006-7,76.3,0.236,1.121,99.88,2.0,,0.0,0.0,
2025-08-15T01:55:13.832Z,4,GR86-006-7,76.60000000000001,0.265,1.168,99.86,2.0,,0.0,0.0,
2025-08-15T01:55:13.876Z,4,GR86-006-7,76.60000000000001,0.203,1.15,99.88,2.0,,0.0,0.0,
2025-08-15T01:55:13.919Z,4,GR86-006-7,76.7,0.243,1.108,99.88,2.0,5535.0,0.0,0.0,
2025-08-15T01:55:13.962Z,4,GR86-006-7,76.80000000000001,0.221,1.106,99.88,2.0,,0.0,0.0,94.02
2025-08-15T01:55:14.006Z,4,GR86-006-7,76.7,0.196,1.122,99.89,2.0,,0.0,0.0,
2025-08-15T01:55:14.092Z,4,GR86-006-7,75.2,0.234,1.121,99.89,2.0,,0.0,0.0,
2025-08-15T01:55:14.135Z,4,GR86-006-7,72.8,0.253,1.107,99.88,2.0,5645.0,0.0,0.0,
2025-08-15T01:55:14.178Z,4,GR86-006-7,66.8,0.222,1.108,99.87,2.0,,0.0,0.0,96.06
2025-08-15T01:55:14.221Z,4,GR86-006-7,60.400000000000006,0.203,1.076,99.87,2.0,,0.0,0.0,
2025-08-15T01:55:14.264Z,4,GR86-006-7,58.5,0.232,1.118,99.88,2.0,,0.0,0.0,
2025-08-15T01:55:14.307Z,4,GR86-006-7,58.5,0.221,1.093,99.88,2.0,,0.0,0.0,
2025-08-15T01:55:14.350Z,4,GR86-006-7,58.400000000000006,0.225,1.099,99.88,2.0,5790.0,0.0,0.0,
2025-08-15T01:55:14.393Z,4,GR86-006-7,51.3,0.179,1.121,99.88,2.0,,0.0,0.0,97.76
2025-08-15T01:55:14.436Z,4,GR86-006-7,38.5,0.191,1.126,99.87,2.0,,0.0,0.0,
2025-08-15T01:55:14.522Z,4,GR86-006-7,19.700000000000003,0.281,1.117,99.89,2.0,,0.0,0.0,
2025-08-15T01:55:14.565Z,4,GR86-006-7,18.8,0.343,1.114,99.89,2.0,5931.0,0.0,0.0,
2025-08-15T01:55:14.608Z,4,GR86-006-7,18.7,0.302,1.145,99.89,2.0,,0.0,0.0,99.22
2025-08-15T01:55:14.651Z,4,GR86-006-7,19.9,0.311,1.176,99.88,2.0,,0.0,0.0,
2025-08-15T01:55:14.694Z,4,GR86-006-7,24.5,0.302,1.181,99.88,2.0,,0.0,0.0,
2025-08-15T01:55:14.737Z,4,GR86-006-7,30.700000000000003,0.24,1.135,99.9,2.0,,0.0,0.0,
2025-08-15T01:55:14.780Z,4,GR86-006-7,34.800000000000004,0.224,0.96,99.89,2.0,6182.0,0.0,0.0,
2025-08-15T01:55:14.823Z,4,GR86-006-7,33.9,0.19,1.062,99.88,2.0,,0.0,0.0,100.72
2025-08-15T01:55:14.866Z,4,GR86-006-7,31.4,0.217,0.803,99.88,2.0,,0.0,0.0,
2025-08-15T01:55:14.909Z,4,GR86-006-7,30.3,0.299,1.135,99.89,2.0,,0.0,0.0,
2025-08-15T01:55:14.954Z,4,GR86-006-7,31.8,0.193,0.807,99.89,2.0,,0.0,0.0,
2025-08-15T01:55:14.997Z,4,GR86-006-7,30.4,0.206,1.084,99.89,2.0,6110.0,0.0,0.0,
2025-08-15T01:55:15.040Z,4,GR86-006-7,28.6,0.204,1.086,99.88,2.0,,0.0,0.0,102.47
2025-08-15T01:55:15.083Z,4,GR86-006-7,27.4,0.26,1.09,99.88,2.0,,0.0,0.0,
2025-08-15T01:55:15.126Z,4,GR86-006-7,26.1,0.181,1.1,99.9,2.0,,0.0,0.0,
2025-08-15T01:55:15.169Z,4,GR86-006-7,25.1,0.407,1.163,99.92,2.0,,0.0,0.0,
2025-08-15T01:55:15.214Z,4,GR86-006-7,23.1,0.497,1.13,99.88,2.0,6248.0,0.0,0.0,
2025-08-15T01:55:15.257Z,4,GR86-006-7,21.5,0.264,1.048,99.91,2.0,,0.0,0.0,103.84
2025-08-15T01:55:15.300Z,4,GR86-006-7,19.5,0.603,1.079,99.9,2.0,,0.0,0.0,
2025-08-15T01:55:15.343Z,4,GR86-006-7,17.7,0.43,1.022,99.89,2.0,,0.0,0.0,
2025-08-15T01:55:15.386Z,4,GR86-006-7,16.8,0.213,0.906,99.92,2.0,,0.0,0.0,
2025-08-15T01:55:15.429Z,4,GR86-006-7,16.2,0.078,0.763,99.91,2.0,6350.0,0.0,0.0,
2025-08-15T01:55:15.472Z,4,GR86-006-7,15.5,0.521,0.588,99.9,2.0,,0.0,0.0,104.45
2025-08-15T01:55:15.515Z,4,GR86-006-7,17.1,0.41,0.5760000000000001,99.9,2.0,,0.0,0.0,
2025-08-15T01:55:15.558Z,4,GR86-006-7,19.700000000000003,0.467,0.662,99.89,2.0,,0.0,0.0,
2025-08-15T01:55:15.601Z,4,GR86-006-7,22.0,0.334,0.666,99.89,2.0,,0.0,0.0,
2025-08-15T01:55:15.644Z,4,GR86-006-7,24.1,0.3,0.653,99.89,2.0,6311.0,0.0,0.0,
2025-08-15T01:55:15.687Z,4,GR86-006-7,25.700000000000003,0.204,0.614,99.9,2.0,,0.0,0.0,106.69
2025-08-15T01:55:15.730Z,4,GR86-006-7,26.200000000000003,0.053,0.483,99.91,2.0,,0.0,0.0,
2025-08-15T01:55:15.773Z,4,GR86-006-7,25.6,0.386,0.488,99.9,2.0,,0.0,0.0,
2025-08-15T01:55:15.817Z,4,GR86-006-7,24.8,0.422,0.535,99.88,2.0,,0.0,0.0,
2025-08-15T01:55:15.860Z,4,GR86-006-7,24.0,0.395,0.666,99.89,2.0,6364.0,0.0,0.0,
2025-08-15T01:55:15.903Z,4,GR86-006-7,23.4,0.318,0.614,99.92,2.0,,0.0,0.0,107.69
2025-08-15T01:55:15.946Z,4,GR86-006-7,22.6,0.244,0.636,99.92,2.0,,0.0,0.0,
2025-08-15T01:55:15.989Z,4,GR86-006-7,21.8,0.138,0.609,99.9,2.0,,0.0,0.0,
2025-08-15T01:55:16.032Z,4,GR86-006-7,22.200000000000003,0.342,0.518,99.91,2.0,,0.0,0.0,
2025-08-15T01:55:16.075Z,4,GR86-006-7,21.8,0.343,0.472,99.89,2.0,6401.0,0.0,0.0,
2025-08-15T01:55:16.118Z,4,GR86-006-7,20.8,0.289,0.509,99.9,2.0,,0.0,0.0,111.9
2025-08-15T01:55:16.161Z,4,GR86-006-7,19.9,0.311,0.49,99.91,2.0,,0.0,0.0,
2025-08-15T01:55:16.204Z,4,GR86-006-7,19.200000000000003,0.331,0.472,99.89,2.0,,0.0,0.0,
2025-08-15T01:55:16.247Z,4,GR86-006-7,18.7,0.417,0.523,99.89,2.0,,0.0,0.0,
2025-08-15T01:55:16.290Z,4,GR86-006-7,18.4,0.296,0.433,99.89,2.0,6549.0,0.0,0.0,
2025-08-15T01:55:16.333Z,4,GR86-006-7,17.900000000000002,0.201,0.296,99.9,2.0,,0.0,0.0,113.92
2025-08-15T01:55:16.376Z,4,GR86-006-7,17.6,0.26,0.316,99.91,2.0,,0.0,0.0,
2025-08-15T01:55:16.419Z,4,GR86-006-7,15.5,0.319,0.315,99.9,2.0,,0.0,0.0,
2025-08-15T01:55:16.462Z,4,GR86-006-7,12.9,0.254,0.267,99.92,2.0,,0.0,0.0,
2025-08-15T01:55:16.505Z,4,GR86-006-7,11.6,0.304,0.378,99.9,2.0,6633.0,0.0,0.0,
2025-08-15T01:55:16.549Z,4,GR86-006-7,11.1,0.273,0.283,99.92,2.0,,0.0,0.0,115.82
2025-08-15T01:55:16.592Z,4,GR86-006-7,11.1,0.277,0.235,99.91,2.0,,0.0,0.0,
2025-08-15T01:55:16.635Z,4,GR86-006-7,10.7,0.296,0.143,99.91,2.0,,0.0,0.0,
2025-08-15T01:55:16.678Z,4,GR86-006-7,8.9,0.251,0.064,99.91,2.0,,0.0,0.0,
2025-08-15T01:55:16.721Z,4,GR86-006-7,7.0,0.273,0.049,99.91,2.0,6865.0,0.0,0.0,
2025-08-15T01:55:16.764Z,4,GR86-006-7,5.9,0.26,0.027,99.91,2.0,,0.0,0.0,117.68
2025-08-15T01:55:16.807Z,4,GR86-006-7,5.2,0.28,0.008,99.92,2.0,,0.0,0.0,
2025-08-15T01:55:16.850Z,4,GR86-006-7,4.9,0.277,0.004,99.91,2.0,,0.0,0.0,
2025-08-15T01:55:16.893Z,4,GR86-006-7,3.6,0.262,0.001,99.91,2.0,,0.0,0.0,
2025-08-15T01:55:16.936Z,4,GR86-006-7,2.1,0.26,-0.017,99.92,2.0,6957.0,0.0,0.0,
2025-08-15T01:55:16.979Z,4,GR86-006-7,0.4,0.256,-0.055,99.9,2.0,,0.0,0.0,119.61
2025-08-15T01:55:17.022Z,4,GR86-006-7,-1.1,0.261,-0.072,99.91,2.0,,0.0,0.0,
2025-08-15T01:55:17.067Z,4,GR86-006-7,-2.2,0.251,-0.118,99.92,2.0,,0.0,0.0,
2025-08-15T01:55:17.110Z,4,GR86-006-7,-2.6,0.243,-0.176,99.92,2.0,,0.0,0.0,
2025-08-15T01:55:17.153Z,4,GR86-006-7,-2.5,0.241,-0.201,99.92,2.0,7056.0,0.0,0.0,
2025-08-15T01:55:17.197Z,4,GR86-006-7,-2.2,0.271,-0.228,99.92,2.0,,0.0,0.0,121.6
2025-08-15T01:55:17.240Z,4,GR86-006-7,-2.0,0.259,-0.209,99.93,2.0,,0.0,0.0,
2025-08-15T01:55:17.284Z,4,GR86-006-7,-1.8,0.233,-0.216,99.9,2.0,,0.0,0.0,
2025-08-15T01:55:17.327Z,4,GR86-006-7,-1.7000000000000002,0.256,-0.231,99.92,2.0,,0.0,0.0,
2025-08-15T01:55:17.370Z,4,GR86-006-7,-1.6,0.253,-0.184,99.91,2.0,7177.0,0.0,0.0,
2025-08-15T01:55:17.414Z,4,GR86-006-7,-1.6,0.208,-0.188,99.92,2.0,,0.0,0.0,123.54
2025-08-15T01:55:17.457Z,4,GR86-006-7,-1.6,-0.102,-0.13,99.93,3.0,,0.0,0.0,
2025-08-15T01:55:17.500Z,4,GR86-006-7,-1.5,0.416,-0.119,99.93,3.0,,0.0,0.0,
2025-08-15T01:55:17.543Z,4,GR86-006-7,-1.4,0.396,-0.242,99.92,3.0,,0.0,0.0,
2025-08-15T01:55:17.586Z,4,GR86-006-7,-1.3,0.418,-0.12,99.92,3.0,7279.0,0.0,0.0,
2025-08-15T01:55:17.629Z,4,GR86-006-7,-1.3,0.266,-0.103,99.92,3.0,,0.0,0.0,125.51
2025-08-15T01:55:17.672Z,4,GR86-006-7,-1.2000000000000002,0.084,-0.189,99.9,3.0,,0.0,0.0,
