timestamp,lap,vehicle_id,steering_angle,accx_can,accy_can,ath,gear,nmot,pbrake_f,pbrake_r,speed
2025-08-15T09:36:23.427Z,12,GR86-028-89,1.4,0.112,-0.01,100.0,4.0,6986.0,0.0,0.0,
2025-08-15T09:36:23.470Z,12,GR86-028-89,1.1,0.126,0.018,99.99,4.0,,0.0,0.0,177.97
2025-08-15T09:36:23.516Z,12,GR86-028-89,0.8,0.1,0.004,99.97,4.0,,0.0,0.0,
2025-08-15T09:36:23.559Z,12,GR86-028-89,0.8,0.081,0.005,99.99,4.0,,0.0,0.0,
2025-08-15T09:36:23.602Z,12,GR86-028-89,0.7000000000000001,0.091,-0.003,99.98,4.0,,0.0,0.0,
2025-08-15T09:36:23.645Z,12,GR86-028-89,0.7000000000000001,0.099,-0.022,99.97,4.0,7012.0,0.0,0.0,
2025-08-15T09:36:23.688Z,12,GR86-028-89,0.7000000000000001,0.09,0.003,100.01,4.0,,0.0,0.0,178.62
2025-08-15T09:36:23.731Z,12,GR86-028-89,0.8,0.099,-0.013,99.99,4.0,,0.0,0.0,
2025-08-15T09:36:23.776Z,12,GR86-028-89,1.0,0.124,-0.017,100.03,4.0,,0.0,0.0,
2025-08-15T09:36:23.818Z,12,GR86-028-89,1.0,0.104,-0.01,100.01,4.0,,0.0,0.0,
2025-08-15T09:36:23.861Z,12,GR86-028-89,1.0,0.112,-0.007,100.0,4.0,7032.0,0.0,0.0,
2025-08-15T09:36:23.905Z,12,GR86-028-89,1.0,0.109,-0.006,100.0,4.0,,0.0,0.0,179.45000000000002
2025-08-15T09:36:23.948Z,12,GR86-028-89,1.0,0.093,-0.013,99.98,4.0,,0.0,0.0,
2025-08-15T09:36:23.991Z,12,GR86-028-89,1.0,0.108,-0.026,99.97,4.0,,0.0,0.0,
2025-08-15T09:36:24.036Z,12,GR86-028-89,1.0,0.124,-0.002,99.99,4.0,,0.0,0.0,
2025-08-15T09:36:24.078Z,12,GR86-028-89,0.9,0.099,0.006,100.01,4.0,7061.0,0.0,0.0,
2025-08-15T09:36:24.121Z,12,GR86-028-89,0.8,0.104,-0.001,100.0,4.0,,0.0,0.0,180.97
2025-08-15T09:36:24.165Z,12,GR86-028-89,0.7000000000000001,0.114,-0.002,99.99,4.0,,0.0,0.0,
2025-08-15T09:36:24.208Z,12,GR86-028-89,0.3,0.1,-0.016,99.98,4.0,,0.0,0.0,
2025-08-15T09:36:24.251Z,12,GR86-028-89,0.1,0.115,-0.017,99.99,4.0,,0.0,0.0,
2025-08-15T09:36:24.295Z,12,GR86-028-89,0.0,0.083,-0.044,100.0,4.0,7100.0,0.0,0.0,
2025-08-15T09:36:24.338Z,12,GR86-028-89,0.1,0.095,-0.052,99.99,4.0,,0.0,0.0,181.71
2025-08-15T09:36:24.381Z,12,GR86-028-89,0.1,0.084,-0.036,99.98,4.0,,0.0,0.0,
2025-08-15T09:36:24.426Z,12,GR86-028-89,0.3,0.086,-0.046,100.01,4.0,,0.0,0.0,
2025-08-15T09:36:24.469Z,12,GR86-028-89,0.4,0.087,-0.051,100.01,4.0,,0.0,0.0,
2025-08-15T09:36:24.512Z,12,GR86-028-89,0.4,0.087,-0.046,100.01,4.0,7126.0,0.0,0.0,
2025-08-15T09:36:24.555Z,12,GR86-028-89,0.5,0.113,-0.032,100.0,4.0,,0.0,0.0,182.51
2025-08-15T09:36:24.598Z,12,GR86-028-89,0.5,0.114,-0.016,100.0,4.0,,0.0,0.0,
2025-08-15T09:36:24.641Z,12,GR86-028-89,0.5,0.127,-0.006,99.99,4.0,,0.0,0.0,
2025-08-15T09:36:24.685Z,12,GR86-028-89,0.5,0.112,-0.005,99.99,4.0,,0.0,0.0,
2025-08-15T09:36:24.727Z,12,GR86-028-89,0.4,0.099,-0.011,99.98,4.0,7179.0,0.0,0.0,
2025-08-15T09:36:24.770Z,12,GR86-028-89,0.3,0.117,-0.037,100.0,4.0,,0.0,0.0,183.29
2025-08-15T09:36:24.816Z,12,GR86-028-89,0.1,0.087,-0.046,100.01,4.0,,0.0,0.0,
2025-08-15T09:36:24.858Z,12,GR86-028-89,0.1,0.082,-0.043,100.0,4.0,,0.0,0.0,
2025-08-15T09:36:24.901Z,12,GR86-028-89,-0.1,0.1,-0.041,100.02,4.0,,0.0,0.0,
2025-08-15T09:36:24.945Z,12,GR86-028-89,-0.2,0.068,-0.039,100.01,4.0,7209.0,0.0,0.0,
2025-08-15T09:36:24.987Z,12,GR86-028-89,-0.2,0.114,-0.044,99.98,4.0,,0.0,0.0,184.03
2025-08-15T09:36:25.030Z,12,GR86-028-89,-0.2,0.081,-0.052,100.01,4.0,,0.0,0.0,
2025-08-15T09:36:25.075Z,12,GR86-028-89,0.1,0.074,-0.034,99.97,4.0,,0.0,0.0,
2025-08-15T09:36:25.118Z,12,GR86-028-89,0.3,0.098,-0.033,99.99,4.0,,0.0,0.0,
2025-08-15T09:36:25.161Z,12,GR86-028-89,0.5,0.083,-0.054,99.99,4.0,7235.0,0.0,0.0,
2025-08-15T09:36:25.205Z,12,GR86-028-89,0.5,-0.078,-0.049,99.97,5.0,,0.0,0.0,184.73
2025-08-15T09:36:25.247Z,12,GR86-028-89,0.6000000000000001,-0.085,-0.002,99.98,5.0,,0.0,0.0,
2025-08-15T09:36:25.290Z,12,GR86-028-89,0.7000000000000001,0.424,-0.068,100.0,5.0,,0.0,0.0,
2025-08-15T09:36:25.336Z,12,GR86-028-89,0.4,0.054,0.005,99.99,5.0,,0.0,0.0,
2025-08-15T09:36:25.378Z,12,GR86-028-89,0.3,-0.019,0.012,99.99,5.0,6415.0,0.0,0.0,
2025-08-15T09:36:25.421Z,12,GR86-028-89,0.4,0.154,-0.087,100.01,5.0,,0.0,0.0,185.47
2025-08-15T09:36:25.466Z,12,GR86-028-89,0.7000000000000001,0.156,0.005,100.01,5.0,,0.0,0.0,
2025-08-15T09:36:25.508Z,12,GR86-028-89,1.2000000000000002,0.107,-0.012,100.0,5.0,,0.0,0.0,
2025-08-15T09:36:25.551Z,12,GR86-028-89,1.3,0.077,-0.034,99.99,5.0,,0.0,0.0,
2025-08-15T09:36:25.595Z,12,GR86-028-89,1.2000000000000002,0.083,0.017,100.0,5.0,6281.0,0.0,0.0,
2025-08-15T09:36:25.638Z,12,GR86-028-89,1.4,0.046,-0.012,99.99,5.0,,0.0,0.0,186.1
2025-08-15T09:36:25.681Z,12,GR86-028-89,1.7000000000000002,0.022,0.013,100.0,5.0,,0.0,0.0,
2025-08-15T09:36:25.727Z,12,GR86-028-89,2.0,0.061,0.017,99.99,5.0,,0.0,0.0,
2025-08-15T09:36:25.769Z,12,GR86-028-89,2.1,0.047,0.007,100.0,5.0,,0.0,0.0,
2025-08-15T09:36:25.812Z,12,GR86-028-89,2.1,0.048,0.016,100.0,5.0,6351.0,0.0,0.0,
2025-08-15T09:36:25.855Z,12,GR86-028-89,2.0,0.079,0.025,99.98,5.0,,0.0,0.0,186.73
2025-08-15T09:36:25.898Z,12,GR86-028-89,2.0,0.072,0.023,100.0,5.0,,0.0,0.0,
2025-08-15T09:36:25.941Z,12,GR86-028-89,1.9,0.072,0.042,100.0,5.0,,0.0,0.0,
2025-08-15T09:36:25.986Z,12,GR86-028-89,1.9,0.05,0.025,99.99,5.0,,0.0,0.0,
2025-08-15T09:36:26.029Z,12,GR86-028-89,1.8,0.045,0.03,100.0,5.0,6374.0,0.0,0.0,
2025-08-15T09:36:26.072Z,12,GR86-028-89,1.7000000000000002,0.049,0.02,99.98,5.0,,0.0,0.0,187.36
2025-08-15T09:36:26.116Z,12,GR86-028-89,1.6,0.094,0.014,100.0,5.0,,0.0,0.0,
2025-08-15T09:36:26.159Z,12,GR86-028-89,1.6,0.104,0.022,100.01,5.0,,0.0,0.0,
2025-08-15T09:36:26.202Z,12,GR86-028-89,1.6,0.099,0.028,99.98,5.0,,0.0,0.0,
2025-08-15T09:36:26.245Z,12,GR86-028-89,1.7000000000000002,0.097,0.035,100.0,5.0,6378.0,0.0,0.0,
2025-08-15T09:36:26.288Z,12,GR86-028-89,1.7000000000000002,0.105,0.022,99.98,5.0,,0.0,0.0,188.03
2025-08-15T09:36:26.331Z,12,GR86-028-89,1.8,0.086,0.023,100.0,5.0,,0.0,0.0,
2025-08-15T09:36:26.375Z,12,GR86-028-89,1.8,0.033,0.015,100.01,5.0,,0.0,0.0,
2025-08-15T09:36:26.418Z,12,GR86-028-89,1.6,0.05,0.021,100.0,5.0,,0.0,0.0,
2025-08-15T09:36:26.461Z,12,GR86-028-89,1.5,0.07,0.007,100.01,5.0,6403.0,0.0,0.0,
2025-08-15T09:36:26.505Z,12,GR86-028-89,1.4,0.056,0.029,100.0,5.0,,0.0,0.0,188.58
2025-08-15T09:36:26.547Z,12,GR86-028-89,1.4,0.093,0.028,99.98,5.0,,0.0,0.0,
2025-08-15T09:36:26.590Z,12,GR86-028-89,1.4,0.09,0.035,99.99,5.0,,0.0,0.0,
2025-08-15T09:36:26.634Z,12,GR86-028-89,1.0,0.039,0.014,99.98,5.0,,0.0,0.0,
2025-08-15T09:36:26.677Z,12,GR86-028-89,0.9,0.034,0.009,100.0,5.0,6424.0,0.0,0.0,
2025-08-15T09:36:26.720Z,12,GR86-028-89,0.8,0.02,0.001,100.01,5.0,,0.0,0.0,189.73
2025-08-15T09:36:26.765Z,12,GR86-028-89,0.8,0.027,-0.011,99.99,5.0,,0.0,0.0,
2025-08-15T09:36:26.808Z,12,GR86-028-89,0.8,0.02,-0.015,100.0,5.0,,0.0,0.0,
2025-08-15T09:36:26.851Z,12,GR86-028-89,0.8,0.057,-0.007,99.98,5.0,,0.0,0.0,
2025-08-15T09:36:26.895Z,12,GR86-028-89,0.5,0.075,-0.015,100.01,5.0,6439.0,0.0,0.0,
2025-08-15T09:36:26.938Z,12,GR86-028-89,0.5,0.036,-0.014,100.01,5.0,,0.0,0.0,190.21
2025-08-15T09:36:26.981Z,12,GR86-028-89,0.5,0.051,-0.022,100.0,5.0,,0.0,0.0,
2025-08-15T09:36:27.027Z,12,GR86-028-89,0.7000000000000001,0.033,-0.016,99.98,5.0,,0.0,0.0,
2025-08-15T09:36:27.070Z,12,GR86-028-89,0.9,0.031,-0.011,100.01,5.0,,0.0,0.0,
2025-08-15T09:36:27.116Z,12,GR86-028-89,1.0,0.104,-0.011,100.0,5.0,6475.0,0.0,0.0,
2025-08-15T09:36:27.159Z,12,GR86-028-89,1.0,0.097,-0.002,100.0,5.0,,0.0,0.0,190.75
2025-08-15T09:36:27.202Z,12,GR86-028-89,0.9,0.086,0.011,100.0,5.0,,0.0,0.0,
2025-08-15T09:36:27.245Z,12,GR86-028-89,0.7000000000000001,0.074,-0.003,100.0,5.0,,0.0,0.0,
2025-08-15T09:36:27.288Z,12,GR86-028-89,0.6000000000000001,0.063,-0.009,100.0,5.0,,0.0,0.0,
2025-08-15T09:36:27.331Z,12,GR86-028-89,0.6000000000000001,0.065,-0.025,99.98,5.0,6507.0,0.0,0.0,
2025-08-15T09:36:27.376Z,12,GR86-028-89,0.6000000000000001,0.071,-0.011,99.99,5.0,,0.0,0.0,191.41
2025-08-15T09:36:27.418Z,12,GR86-028-89,0.6000000000000001,0.074,-0.002,100.01,5.0,,0.0,0.0,
2025-08-15T09:36:27.461Z,12,GR86-028-89,0.7000000000000001,0.12,-0.011,100.01,5.0,,0.0,0.0,
2025-08-15T09:36:27.505Z,12,GR86-028-89,0.8,0.095,-0.013,99.99,5.0,,0.0,0.0,
2025-08-15T09:36:27.548Z,12,GR86-028-89,0.7000000000000001,0.087,-0.028,100.0,5.0,6515.0,0.0,0.0,
2025-08-15T09:36:27.591Z,12,GR86-028-89,0.6000000000000001,0.088,-0.031,100.0,5.0,,0.0,0.0,191.97
2025-08-15T09:36:27.636Z,12,GR86-028-89,0.6000000000000001,0.056,-0.025,100.0,5.0,,0.0,0.0,
2025-08-15T09:36:27.678Z,12,GR86-028-89,0.6000000000000001,0.062,-0.026,99.99,5.0,,0.0,0.0,
2025-08-15T09:36:27.721Z,12,GR86-028-89,0.5,0.092,-0.043,99.99,5.0,,0.0,0.0,
2025-08-15T09:36:27.765Z,12,GR86-028-89,0.5,0.092,-0.021,100.01,5.0,6537.0,0.0,0.0,
2025-08-15T09:36:27.808Z,12,GR86-028-89,0.6000000000000001,0.096,-0.017,100.0,5.0,,0.0,0.0,192.64
2025-08-15T09:36:27.851Z,12,GR86-028-89,0.7000000000000001,0.106,-0.02,99.99,5.0,,0.0,0.0,
2025-08-15T09:36:27.895Z,12,GR86-028-89,0.5,0.054,-0.018,100.0,5.0,,0.0,0.0,
2025-08-15T09:36:27.938Z,12,GR86-028-89,0.3,0.03,-0.022,99.99,5.0,,0.0,0.0,
2025-08-15T09:36:27.981Z,12,GR86-028-89,0.0,0.066,-0.053,100.0,5.0,6554.0,0.0,0.0,
2025-08-15T09:36:28.027Z,12,GR86-028-89,-0.4,0.057,-0.06,100.01,5.0,,0.0,0.0,193.17
2025-08-15T09:36:28.069Z,12,GR86-028-89,-0.8,0.101,-0.067,99.99,5.0,,0.0,0.0,
2025-08-15T09:36:28.112Z,12,GR86-028-89,-1.0,0.077,-0.068,100.0,5.0,,0.0,0.0,
2025-08-15T09:36:28.155Z,12,GR86-028-89,-0.8,0.019,-0.059,100.0,5.0,,0.0,0.0,
2025-08-15T09:36:28.198Z,12,GR86-028-89,-0.4,0.037,-0.046,99.96,5.0,6580.0,0.0,0.0,
2025-08-15T09:36:28.241Z,12,GR86-028-89,-0.1,0.027,-0.056,99.99,5.0,,0.0,0.0,193.92
2025-08-15T09:36:28.285Z,12,GR86-028-89,0.2,0.058,-0.065,100.01,5.0,,0.0,0.0,
2025-08-15T09:36:28.327Z,12,GR86-028-89,0.3,0.053,-0.088,100.01,5.0,,0.0,0.0,
2025-08-15T09:36:28.370Z,12,GR86-028-89,0.4,0.073,-0.075,100.0,5.0,,0.0,0.0,
2025-08-15T09:36:28.416Z,12,GR86-028-89,0.4,0.029,-0.06,100.01,5.0,6599.0,0.0,0.0,
2025-08-15T09:36:28.459Z,12,GR86-028-89,0.4,0.023,-0.06,100.0,5.0,,0.0,0.0,194.44
2025-08-15T09:36:28.502Z,12,GR86-028-89,0.4,0.03,-0.062,100.0,5.0,,0.0,0.0,
2025-08-15T09:36:28.545Z,12,GR86-028-89,0.4,0.049,-0.048,99.98,5.0,,0.0,0.0,
2025-08-15T09:36:28.588Z,12,GR86-028-89,0.4,0.065,-0.054,100.0,5.0,,0.0,0.0,
2025-08-15T09:36:28.631Z,12,GR86-028-89,0.6000000000000001,0.067,-0.047,99.99,5.0,6617.0,0.0,0.0,
2025-08-15T09:36:28.675Z,12,GR86-028-89,0.9,0.0,-0.004,100.0,5.0,,0.0,0.0,195.08
2025-08-15T09:36:28.718Z,12,GR86-028-89,1.0,0.023,-0.017,99.98,5.0,,0.0,0.0,
2025-08-15T09:36:28.761Z,12,GR86-028-89,1.0,0.026,-0.026,100.0,5.0,,0.0,0.0,
2025-08-15T09:36:28.805Z,12,GR86-028-89,1.0,0.024,-0.029,100.0,5.0,,0.0,0.0,
2025-08-15T09:36:28.847Z,12,GR86-028-89,1.0,0.067,-0.034,99.99,5.0,6638.0,0.0,0.0,
2025-08-15T09:36:28.890Z,12,GR86-028-89,1.0,0.063,-0.018,100.0,5.0,,0.0,0.0,195.54
2025-08-15T09:36:28.936Z,12,GR86-028-89,1.0,0.022,-0.021,100.0,5.0,,0.0,0.0,
2025-08-15T09:36:28.978Z,12,GR86-028-89,1.0,0.023,-0.009,100.0,5.0,,0.0,0.0,
2025-08-15T09:36:29.021Z,12,GR86-028-89,1.0,0.015,-0.009,100.0,5.0,,0.0,0.0,
2025-08-15T09:36:29.065Z,12,GR86-028-89,1.1,0.048,-0.014,99.99,5.0,6646.0,0.0,0.0,
2025-08-15T09:36:29.108Z,12,GR86-028-89,1.4,0.062,-0.015,99.99,5.0,,0.0,0.0,196.1
2025-08-15T09:36:29.151Z,12,GR86-028-89,1.5,0.061,0.008,99.97,5.0,,0.0,0.0,
2025-08-15T09:36:29.195Z,12,GR86-028-89,1.5,0.013,0.011,99.99,5.0,,0.0,0.0,
2025-08-15T09:36:29.238Z,12,GR86-028-89,1.4,0.038,-0.013,99.99,5.0,,0.0,0.0,
2025-08-15T09:36:29.281Z,12,GR86-028-89,1.4,0.038,0.002,99.98,5.0,6666.0,0.0,0.0,
2025-08-15T09:36:29.327Z,12,GR86-028-89,1.4,0.056,-0.008,99.96,5.0,,0.0,0.0,197.06
2025-08-15T09:36:29.369Z,12,GR86-028-89,1.2000000000000002,0.063,-0.018,99.99,5.0,,0.0,0.0,
2025-08-15T09:36:29.412Z,12,GR86-028-89,1.2000000000000002,0.083,-0.019,100.0,5.0,,0.0,0.0,
2025-08-15T09:36:29.455Z,12,GR86-028-89,1.2000000000000002,0.024,-0.004,100.0,5.0,,0.0,0.0,
2025-08-15T09:36:29.498Z,12,GR86-028-89,1.2000000000000002,0.037,-0.008,99.98,5.0,6683.0,0.0,0.0,
2025-08-15T09:36:29.541Z,12,GR86-028-89,1.0,0.054,-0.01,99.99,5.0,,0.0,0.0,197.47
2025-08-15T09:36:29.586Z,12,GR86-028-89,0.8,0.058,-0.023,99.99,5.0,,0.0,0.0,
2025-08-15T09:36:29.629Z,12,GR86-028-89,0.7000000000000001,0.063,-0.026,99.98,5.0,,0.0,0.0,
2025-08-15T09:36:29.672Z,12,GR86-028-89,0.7000000000000001,0.081,-0.035,99.97,5.0,,0.0,0.0,
2025-08-15T09:36:29.716Z,12,GR86-028-89,1.0,0.044,-0.02,99.99,5.0,6714.0,0.0,0.0,
2025-08-15T09:36:29.759Z,12,GR86-028-89,1.0,0.047,-0.03,100.0,5.0,,0.0,0.0,197.96
2025-08-15T09:36:29.802Z,12,GR86-028-89,0.7000000000000001,0.063,-0.05,99.99,5.0,,0.0,0.0,
2025-08-15T09:36:29.845Z,12,GR86-028-89,0.7000000000000001,0.063,-0.041,99.99,5.0,,0.0,0.0,
2025-08-15T09:36:29.888Z,12,GR86-028-89,1.0,0.082,-0.028,99.99,5.0,,0.0,0.0,
2025-08-15T09:36:29.931Z,12,GR86-028-89,1.4,0.052,-0.019,100.01,5.0,6735.0,0.0,0.0,
2025-08-15T09:36:29.975Z,12,GR86-028-89,1.5,0.031,-0.008,100.0,5.0,,0.0,0.0,198.39
2025-08-15T09:36:30.018Z,12,GR86-028-89,1.5,0.082,-0.002,99.99,5.0,,0.0,0.0,
2025-08-15T09:36:30.061Z,12,GR86-028-89,1.5,0.062,-0.004,100.01,5.0,,0.0,0.0,
2025-08-15T09:36:30.105Z,12,GR86-028-89,1.5,0.091,-0.023,99.98,5.0,,0.0,0.0,
2025-08-15T09:36:30.148Z,12,GR86-028-89,1.5,0.062,-0.003,100.0,5.0,6743.0,0.0,0.0,
2025-08-15T09:36:30.191Z,12,GR86-028-89,1.4,0.077,-0.012,100.0,5.0,,0.0,0.0,198.78
2025-08-15T09:36:30.235Z,12,GR86-028-89,1.4,0.082,0.003,100.0,5.0,,0.0,0.0,
2025-08-15T09:36:30.278Z,12,GR86-028-89,1.3,0.039,0.018,99.99,5.0,,0.0,0.0,
2025-08-15T09:36:30.321Z,12,GR86-028-89,1.2000000000000002,0.078,0.017,99.97,5.0,,0.0,0.0,
2025-08-15T09:36:30.365Z,12,GR86-028-89,1.2000000000000002,0.056,0.053,100.0,5.0,6777.0,0.0,0.0,
2025-08-15T09:36:30.408Z,12,GR86-028-89,1.2000000000000002,0.051,0.022,100.0,5.0,,0.0,0.0,199.27
2025-08-15T09:36:30.451Z,12,GR86-028-89,1.1,0.058,0.011,99.99,5.0,,0.0,0.0,
2025-08-15T09:36:30.495Z,12,GR86-028-89,0.5,0.069,0.003,99.99,5.0,,0.0,0.0,
2025-08-15T09:36:30.538Z,12,GR86-028-89,0.0,0.072,-0.016,100.0,5.0,,0.0,0.0,
2025-08-15T09:36:30.581Z,12,GR86-028-89,-0.6000000000000001,0.049,-0.011,99.98,5.0,6783.0,0.0,0.0,
2025-08-15T09:36:30.626Z,12,GR86-028-89,-0.9,0.062,-0.025,99.96,5.0,,0.0,0.0,199.77
2025-08-15T09:36:30.669Z,12,GR86-028-89,-0.9,0.041,-0.047,99.99,5.0,,0.0,0.0,
2025-08-15T09:36:30.712Z,12,GR86-028-89,-0.6000000000000001,0.041,-0.055,100.0,5.0,,0.0,0.0,
2025-08-15T09:36:30.755Z,12,GR86-028-89,-0.3,0.074,-0.068,100.0,5.0,,0.0,0.0,
2025-08-15T09:36:30.798Z,12,GR86-028-89,-0.2,0.055,-0.075,99.99,5.0,6797.0,0.0,0.0,
2025-08-15T09:36:30.841Z,12,GR86-028-89,0.2,0.057,-0.045,100.01,5.0,,0.0,0.0,200.28
2025-08-15T09:36:30.886Z,12,GR86-028-89,0.4,0.062,-0.035,99.99,5.0,,0.0,0.0,
2025-08-15T09:36:30.928Z,12,GR86-028-89,0.5,0.052,-0.026,99.98,5.0,,0.0,0.0,
2025-08-15T09:36:30.971Z,12,GR86-028-89,0.8,0.075,-0.029,100.0,5.0,,0.0,0.0,
2025-08-15T09:36:31.016Z,12,GR86-028-89,1.3,0.049,-0.025,100.0,5.0,6810.0,0.0,0.0,
2025-08-15T09:36:31.059Z,12,GR86-028-89,1.3,0.07,-0.022,99.99,5.0,,0.0,0.0,200.79
2025-08-15T09:36:31.102Z,12,GR86-028-89,1.3,0.066,-0.011,100.0,5.0,,0.0,0.0,
2025-08-15T09:36:31.145Z,12,GR86-028-89,1.3,0.054,-0.017,99.99,5.0,,0.0,0.0,
2025-08-15T09:36:31.188Z,12,GR86-028-89,1.2000000000000002,0.078,-0.006,100.0,5.0,,0.0,0.0,
2025-08-15T09:36:31.231Z,12,GR86-028-89,1.0,0.067,0.012,99.99,5.0,6833.0,0.0,0.0,
2025-08-15T09:36:31.276Z,12,GR86-028-89,1.0,0.043,0.002,99.99,5.0,,0.0,0.0,201.31
2025-08-15T09:36:31.318Z,12,GR86-028-89,1.0,0.061,0.019,99.99,5.0,,0.0,0.0,
2025-08-15T09:36:31.361Z,12,GR86-028-89,1.0,0.079,0.012,100.0,5.0,,0.0,0.0,
2025-08-15T09:36:31.405Z,12,GR86-028-89,1.0,0.057,0.011,100.01,5.0,,0.0,0.0,
2025-08-15T09:36:31.448Z,12,GR86-028-89,1.0,0.068,0.002,99.98,5.0,6846.0,0.0,0.0,
2025-08-15T09:36:31.491Z,12,GR86-028-89,1.4,0.048,-0.004,99.99,5.0,,0.0,0.0,201.91
2025-08-15T09:36:31.536Z,12,GR86-028-89,1.8,0.067,0.008,100.0,5.0,,0.0,0.0,
2025-08-15T09:36:31.578Z,12,GR86-028-89,1.7000000000000002,0.065,0.01,99.99,5.0,,0.0,0.0,
2025-08-15T09:36:31.621Z,12,GR86-028-89,1.5,0.051,0.014,99.98,5.0,,0.0,0.0,
2025-08-15T09:36:31.665Z,12,GR86-028-89,1.2000000000000002,0.06,-0.003,99.99,5.0,6876.0,0.0,0.0,
2025-08-15T09:36:31.708Z,12,GR86-028-89,1.1,0.06,-0.007,100.0,5.0,,0.0,0.0,202.41
2025-08-15T09:36:31.751Z,12,GR86-028-89,0.9,0.055,-0.008,100.01,5.0,,0.0,0.0,
2025-08-15T09:36:31.795Z,12,GR86-028-89,0.6000000000000001,0.056,-0.012,100.0,5.0,,0.0,0.0,
2025-08-15T09:36:31.838Z,12,GR86-028-89,0.4,0.051,-0.034,100.0,5.0,,0.0,0.0,
2025-08-15T09:36:31.881Z,12,GR86-028-89,0.2,0.044,-0.049,100.01,5.0,6884.0,0.0,0.0,
2025-08-15T09:36:31.926Z,12,GR86-028-89,0.1,0.076,-0.033,100.01,5.0,,0.0,0.0,203.56
2025-08-15T09:36:31.969Z,12,GR86-028-89,0.2,0.061,-0.034,100.01,5.0,,0.0,0.0,
2025-08-15T09:36:32.012Z,12,GR86-028-89,0.3,0.077,-0.032,100.0,5.0,,0.0,0.0,
2025-08-15T09:36:32.055Z,12,GR86-028-89,0.6000000000000001,0.074,-0.058,99.99,5.0,,0.0,0.0,
2025-08-15T09:36:32.141Z,12,GR86-028-89,0.7000000000000001,0.055,-0.054,100.01,5.0,6907.0,0.0,0.0,204.02
2025-08-15T09:36:32.185Z,12,GR86-028-89,0.6000000000000001,0.063,-0.031,100.0,5.0,,0.0,0.0,
2025-08-15T09:36:32.270Z,12,GR86-028-89,0.6000000000000001,0.075,-0.043,100.0,5.0,,0.0,0.0,
2025-08-15T09:36:32.316Z,12,GR86-028-89,-0.3,0.059,-0.034,71.63,5.0,6949.0,0.0,0.0,
2025-08-15T09:36:32.359Z,12,GR86-028-89,-0.4,0.089,-0.042,3.88,5.0,,0.0,0.0,204.56
2025-08-15T09:36:32.402Z,12,GR86-028-89,-0.4,0.045,-0.025,3.25,5.0,,0.0,0.0,
2025-08-15T09:36:32.445Z,12,GR86-028-89,-0.4,-0.111,-0.061,2.99,5.0,,0.0,0.0,
2025-08-15T09:36:32.488Z,12,GR86-028-89,-0.7000000000000001,-0.15,-0.019,2.86,5.0,,0.0,0.0,
2025-08-15T09:36:32.531Z,12,GR86-028-89,-1.2000000000000002,-0.464,-0.088,2.79,5.0,6629.0,2.335,2.73,
2025-08-15T09:36:32.575Z,12,GR86-028-89,-2.0,-0.18,-0.065,2.71,5.0,,28.43,28.81,205.09
2025-08-15T09:36:32.618Z,12,GR86-028-89,-2.1,-0.522,-0.063,2.68,5.0,,43.995,44.16,
2025-08-15T09:36:32.661Z,12,GR86-028-89,-1.7000000000000002,-0.867,-0.061,2.65,5.0,,61.620000000000005,61.485,
2025-08-15T09:36:32.705Z,12,GR86-028-89,0.0,-1.144,-0.005,2.63,5.0,,70.99,70.745,
2025-08-15T09:36:32.747Z,12,GR86-028-89,1.2000000000000002,-1.212,0.0,2.61,5.0,6637.0,73.875,75.4,
2025-08-15T09:36:32.790Z,12,GR86-028-89,1.3,-1.219,0.027,2.59,5.0,,75.185,76.925,203.48
2025-08-15T09:36:32.836Z,12,GR86-028-89,1.7000000000000002,-1.29,0.043,2.56,5.0,,75.75,77.675,
2025-08-15T09:36:32.878Z,12,GR86-028-89,1.5,-1.341,0.022,2.56,5.0,,74.055,74.895,
2025-08-15T09:36:32.921Z,12,GR86-028-89,0.3,-1.269,0.058,2.5500000000000003,5.0,,73.17,74.12,
2025-08-15T09:36:32.965Z,12,GR86-028-89,-1.2000000000000002,-1.2,0.067,2.54,5.0,6103.0,71.02,71.705,
2025-08-15T09:36:33.008Z,12,GR86-028-89,-1.4,-1.214,0.093,2.53,5.0,,69.875,71.43,192.84
2025-08-15T09:36:33.051Z,12,GR86-028-89,-1.4,-1.28,0.048,2.52,5.0,,67.785,68.715,
2025-08-15T09:36:33.096Z,12,GR86-028-89,-4.4,-1.232,0.105,2.51,5.0,,65.83,67.02,
2025-08-15T09:36:33.181Z,12,GR86-028-89,-4.6000000000000005,-1.264,0.084,2.5,5.0,5889.0,63.56,64.9,
2025-08-15T09:36:33.227Z,12,GR86-028-89,-6.1000000000000005,-1.151,0.092,2.51,5.0,,58.05,59.71,184.13
2025-08-15T09:36:33.269Z,12,GR86-028-89,-6.6000000000000005,-1.136,0.068,2.5,5.0,,57.745000000000005,58.4,
2025-08-15T09:36:33.312Z,12,GR86-028-89,-6.7,-1.174,0.023,34.11,5.0,,58.845,59.865,
2025-08-15T09:36:33.358Z,12,GR86-028-89,-5.9,-1.154,-0.043,18.94,4.0,,60.49,62.215,
2025-08-15T09:36:33.401Z,12,GR86-028-89,-4.4,-1.323,-0.043,4.25,4.0,5695.0,59.865,61.74,
2025-08-15T09:36:33.445Z,12,GR86-028-89,-2.8000000000000003,-1.191,-0.041,3.88,4.0,,60.705,62.43,176.21
2025-08-15T09:36:33.487Z,12,GR86-028-89,-0.2,-1.084,-0.134,3.48,4.0,,57.955,58.845,
2025-08-15T09:36:33.531Z,12,GR86-028-89,1.3,-1.217,-0.066,3.2,4.0,,51.0,51.93,
2025-08-15T09:36:33.575Z,12,GR86-028-89,2.9000000000000004,-0.923,-0.225,2.92,4.0,,39.495,40.59,
2025-08-15T09:36:33.618Z,12,GR86-028-89,1.9,-0.784,-0.169,2.86,4.0,5951.0,36.365,37.08,
2025-08-15T09:36:33.661Z,12,GR86-028-89,0.3,-0.926,-0.157,2.78,4.0,,37.325,37.86,168.6
2025-08-15T09:36:33.705Z,12,GR86-028-89,-2.7,-0.927,-0.201,2.75,4.0,,40.06,40.59,
2025-08-15T09:36:33.747Z,12,GR86-028-89,-6.800000000000001,-0.959,-0.185,2.69,4.0,,43.26,43.675,
2025-08-15T09:36:33.790Z,12,GR86-028-89,-10.7,-1.008,-0.216,8.42,4.0,,45.75,46.055,
2025-08-15T09:36:33.835Z,12,GR86-028-89,-13.5,-1.013,-0.234,77.85000000000001,4.0,6082.0,45.215,46.465,
2025-08-15T09:36:33.878Z,12,GR86-028-89,-13.8,-0.997,-0.247,100.08,3.0,,43.11,44.62,162.23
2025-08-15T09:36:33.921Z,12,GR86-028-89,-13.8,-0.995,-0.333,53.03,3.0,,42.24,43.645,
2025-08-15T09:36:33.965Z,12,GR86-028-89,-15.1,-1.25,-0.297,4.59,3.0,,42.895,44.375,
2025-08-15T09:36:34.051Z,12,GR86-028-89,-18.0,-0.981,-0.263,2.94,3.0,5793.0,43.645,45.065,
2025-08-15T09:36:34.095Z,12,GR86-028-89,-23.5,-0.896,-0.451,2.64,3.0,,41.83,43.295,156.3
2025-08-15T09:36:34.138Z,12,GR86-028-89,-25.1,-0.888,-0.642,2.61,3.0,,40.925,42.15,
2025-08-15T09:36:34.227Z,12,GR86-028-89,-26.9,-0.8140000000000001,-0.537,2.6,3.0,,35.645,36.67,
2025-08-15T09:36:34.269Z,12,GR86-028-89,-32.4,-0.6960000000000001,-0.902,2.56,3.0,6684.0,28.49,29.65,
2025-08-15T09:36:34.312Z,12,GR86-028-89,-32.1,-0.632,-0.91,2.56,3.0,,26.78,27.97,149.27
2025-08-15T09:36:34.355Z,12,GR86-028-89,-27.1,-0.769,-0.928,2.54,3.0,,23.805,24.735,
2025-08-15T09:36:34.398Z,12,GR86-028-89,-25.6,-0.654,-0.922,2.53,3.0,,19.55,20.385,
2025-08-15T09:36:34.486Z,12,GR86-028-89,-24.1,-0.426,-1.073,2.52,3.0,6167.0,9.78,10.315,
2025-08-15T09:36:34.571Z,12,GR86-028-89,-24.700000000000003,-0.623,-1.047,2.52,3.0,,12.895,13.765,140.19
2025-08-15T09:36:34.616Z,12,GR86-028-89,-12.4,-0.444,-1.09,2.51,3.0,,9.845,10.47,
2025-08-15T09:36:34.659Z,12,GR86-028-89,-16.7,-0.487,-1.071,2.5,3.0,,8.76,9.6,
2025-08-15T09:36:34.702Z,12,GR86-028-89,-17.3,-0.441,-1.173,2.49,3.0,6247.0,4.745,5.37,
2025-08-15T09:36:34.745Z,12,GR86-028-89,-8.4,-0.281,-1.255,2.5,3.0,,0.0,0.0,137.38
2025-08-15T09:36:34.788Z,12,GR86-028-89,1.8,-0.255,-1.242,2.49,3.0,,0.0,0.0,
2025-08-15T09:36:34.831Z,12,GR86-028-89,9.1,-0.196,-1.137,2.5,3.0,,0.0,0.0,
2025-08-15T09:36:34.876Z,12,GR86-028-89,10.0,-0.19,-1.095,10.24,3.0,,0.0,0.0,
2025-08-15T09:36:34.961Z,12,GR86-028-89,8.6,-0.17,-1.12,18.66,3.0,5993.0,0.0,0.0,135.68
2025-08-15T09:36:35.005Z,12,GR86-028-89,6.5,-0.154,-1.243,30.55,3.0,,0.0,0.0,
2025-08-15T09:36:35.048Z,12,GR86-028-89,-2.3000000000000003,-0.129,-1.207,31.26,3.0,,0.0,0.0,
2025-08-15T09:36:35.091Z,12,GR86-028-89,-7.9,-0.106,-1.226,31.64,3.0,,0.0,0.0,
2025-08-15T09:36:35.136Z,12,GR86-028-89,-21.4,-0.112,-1.2,32.75,3.0,6104.0,0.0,0.0,
2025-08-15T09:36:35.178Z,12,GR86-028-89,-35.6,0.135,-1.242,32.660000000000004,3.0,,0.0,0.0,132.8
2025-08-15T09:36:35.221Z,12,GR86-028-89,-50.2,0.065,-1.269,32.910000000000004,3.0,,0.0,0.0,
2025-08-15T09:36:35.266Z,12,GR86-028-89,-62.3,0.055,-1.184,33.2,3.0,,0.0,0.0,
2025-08-15T09:36:35.308Z,12,GR86-028-89,-69.60000000000001,0.038,-1.249,33.17,3.0,,0.0,0.0,
2025-08-15T09:36:35.395Z,12,GR86-028-89,-77.10000000000001,0.012,-1.292,33.14,3.0,6238.0,0.0,0.0,131.6
2025-08-15T09:36:35.438Z,12,GR86-028-89,-78.0,-0.002,-1.268,32.480000000000004,3.0,,0.0,0.0,
2025-08-15T09:36:35.526Z,12,GR86-028-89,-78.80000000000001,0.033,-1.204,32.34,3.0,,0.0,0.0,
2025-08-15T09:36:35.569Z,12,GR86-028-89,-79.5,-0.018,-1.17,32.4,3.0,6197.0,0.0,0.0,
2025-08-15T09:36:35.612Z,12,GR86-028-89,-79.9,0.008,-1.208,32.43,3.0,,0.0,0.0,130.8
2025-08-15T09:36:35.655Z,12,GR86-028-89,-78.7,-0.011,-1.173,31.98,3.0,,0.0,0.0,
2025-08-15T09:36:35.698Z,12,GR86-028-89,-73.9,0.041,-1.134,31.46,3.0,,0.0,0.0,
2025-08-15T09:36:35.741Z,12,GR86-028-89,-72.10000000000001,0.01,-1.189,31.1,3.0,,0.0,0.0,
2025-08-15T09:36:35.785Z,12,GR86-028-89,-71.8,-0.014,-1.19,30.18,3.0,6211.0,0.0,0.0,
2025-08-15T09:36:35.827Z,12,GR86-028-89,-69.3,0.004,-1.2,29.13,3.0,,0.0,0.0,131.21
2025-08-15T09:36:35.870Z,12,GR86-028-89,-65.0,0.049,-1.206,29.2,3.0,,0.0,0.0,
2025-08-15T09:36:35.916Z,12,GR86-028-89,-61.2,0.028,-1.152,30.83,3.0,,0.0,0.0,
2025-08-15T09:36:35.959Z,12,GR86-028-89,-59.5,-0.053,-1.313,31.65,3.0,,0.0,0.0,
2025-08-15T09:36:36.002Z,12,GR86-028-89,-56.400000000000006,-0.035,-1.172,32.87,3.0,6222.0,0.0,0.0,
2025-08-15T09:36:36.045Z,12,GR86-028-89,-52.6,-0.027,-1.352,33.65,3.0,,0.0,0.0,131.52
2025-08-15T09:36:36.088Z,12,GR86-028-89,-48.3,0.046,-1.16,34.7,3.0,,0.0,0.0,
2025-08-15T09:36:36.131Z,12,GR86-028-89,-43.5,0.011,-1.221,35.45,3.0,,0.0,0.0,
2025-08-15T09:36:36.175Z,12,GR86-028-89,-37.7,0.033,-1.178,35.62,3.0,,0.0,0.0,
2025-08-15T09:36:36.218Z,12,GR86-028-89,-35.800000000000004,0.028,-1.163,35.69,3.0,6271.0,0.0,0.0,
2025-08-15T09:36:36.261Z,12,GR86-028-89,-35.4,0.07,-1.195,36.24,3.0,,0.0,0.0,132.98
2025-08-15T09:36:36.305Z,12,GR86-028-89,-36.5,0.082,-1.248,39.73,3.0,,0.0,0.0,
2025-08-15T09:36:36.347Z,12,GR86-028-89,-38.5,0.011,-1.349,59.870000000000005,3.0,,0.0,0.0,
2025-08-15T09:36:36.390Z,12,GR86-028-89,-41.0,0.032,-1.371,94.96,3.0,,0.0,0.0,
2025-08-15T09:36:36.436Z,12,GR86-028-89,-44.5,0.06,-1.286,100.02,3.0,6281.0,0.0,0.0,
2025-08-15T09:36:36.478Z,12,GR86-028-89,-48.8,0.124,-1.287,100.06,3.0,,0.0,0.0,132.88
2025-08-15T09:36:36.521Z,12,GR86-028-89,-54.5,0.164,-1.263,100.05,3.0,,0.0,0.0,
2025-08-15T09:36:36.565Z,12,GR86-028-89,-59.5,0.11,-1.264,100.04,3.0,,0.0,0.0,
2025-08-15T09:36:36.608Z,12,GR86-028-89,-61.900000000000006,0.107,-1.247,100.02,3.0,,0.0,0.0,
2025-08-15T09:36:36.651Z,12,GR86-028-89,-61.8,0.102,-1.208,100.03,3.0,6358.0,0.0,0.0,
2025-08-15T09:36:36.695Z,12,GR86-028-89,-56.400000000000006,0.099,-1.252,100.04,3.0,,0.0,0.0,132.25
2025-08-15T09:36:36.738Z,12,GR86-028-89,-51.1,0.104,-1.31,100.04,3.0,,0.0,0.0,
2025-08-15T09:36:36.781Z,12,GR86-028-89,-45.2,0.102,-1.306,100.02,3.0,,0.0,0.0,
2025-08-15T09:36:36.827Z,12,GR86-028-89,-40.1,0.141,-1.289,100.04,3.0,,0.0,0.0,
2025-08-15T09:36:36.869Z,12,GR86-028-89,-37.0,0.125,-1.253,100.03,3.0,6366.0,0.0,0.0,
2025-08-15T09:36:36.912Z,12,GR86-028-89,-36.6,0.094,-1.23,100.04,3.0,,0.0,0.0,131.94
2025-08-15T09:36:36.955Z,12,GR86-028-89,-39.1,0.108,-1.247,100.03,3.0,,0.0,0.0,
2025-08-15T09:36:36.998Z,12,GR86-028-89,-40.400000000000006,0.109,-1.227,100.03,3.0,,0.0,0.0,
2025-08-15T09:36:37.041Z,12,GR86-028-89,-40.2,0.156,-1.189,100.03,3.0,,0.0,0.0,
2025-08-15T09:36:37.086Z,12,GR86-028-89,-39.2,0.12,-1.161,100.03,3.0,6355.0,0.0,0.0,
2025-08-15T09:36:37.129Z,12,GR86-028-89,-38.7,0.095,-1.212,100.05,3.0,,0.0,0.0,133.56
2025-08-15T09:36:37.172Z,12,GR86-028-89,-39.900000000000006,0.129,-1.223,100.06,3.0,,0.0,0.0,
2025-08-15T09:36:37.216Z,12,GR86-028-89,-41.900000000000006,0.104,-1.211,100.03,3.0,,0.0,0.0,
2025-08-15T09:36:37.258Z,12,GR86-028-89,-42.900000000000006,0.137,-1.211,100.04,3.0,,0.0,0.0,
2025-08-15T09:36:37.301Z,12,GR86-028-89,-43.7,0.121,-1.216,100.04,3.0,6390.0,0.0,0.0,
2025-08-15T09:36:37.345Z,12,GR86-028-89,-44.1,0.101,-1.21,100.03,3.0,,0.0,0.0,134.57
2025-08-15T09:36:37.387Z,12,GR86-028-89,-44.1,0.092,-1.186,100.03,3.0,,0.0,0.0,
2025-08-15T09:36:37.431Z,12,GR86-028-89,-43.3,0.145,-1.172,100.04,3.0,,0.0,0.0,
2025-08-15T09:36:37.475Z,12,GR86-028-89,-39.8,0.132,-1.144,100.04,3.0,,0.0,0.0,
2025-08-15T09:36:37.518Z,12,GR86-028-89,-36.9,0.141,-1.166,100.03,3.0,6446.0,0.0,0.0,
2025-08-15T09:36:37.561Z,12,GR86-028-89,-34.2,0.137,-1.16,100.04,3.0,,0.0,0.0,135.47
2025-08-15T09:36:37.605Z,12,GR86-028-89,-31.5,0.116,-1.102,100.04,3.0,,0.0,0.0,
2025-08-15T09:36:37.647Z,12,GR86-028-89,-29.700000000000003,0.135,-1.084,100.03,3.0,,0.0,0.0,
2025-08-15T09:36:37.690Z,12,GR86-028-89,-28.700000000000003,0.163,-1.058,100.03,3.0,,0.0,0.0,
2025-08-15T09:36:37.735Z,12,GR86-028-89,-27.700000000000003,0.154,-1.066,100.04,3.0,6477.0,0.0,0.0,
2025-08-15T09:36:37.778Z,12,GR86-028-89,-27.4,0.162,-1.066,100.03,3.0,,0.0,0.0,136.27
2025-08-15T09:36:37.821Z,12,GR86-028-89,-27.4,0.152,-0.991,100.04,3.0,,0.0,0.0,
2025-08-15T09:36:37.865Z,12,GR86-028-89,-27.8,0.13,-0.948,100.04,3.0,,0.0,0.0,
2025-08-15T09:36:37.908Z,12,GR86-028-89,-28.3,0.138,-0.889,100.04,3.0,,0.0,0.0,
2025-08-15T09:36:37.951Z,12,GR86-028-89,-28.8,0.138,-0.873,100.06,3.0,6520.0,0.0,0.0,
2025-08-15T09:36:37.995Z,12,GR86-028-89,-30.9,0.11,-0.596,100.02,3.0,,0.0,0.0,137.17000000000002
2025-08-15T09:36:38.038Z,12,GR86-028-89,-31.200000000000003,0.053,-0.713,100.01,3.0,,0.0,0.0,
2025-08-15T09:36:38.081Z,12,GR86-028-89,-30.1,0.112,-0.729,100.04,3.0,,0.0,0.0,
2025-08-15T09:36:38.126Z,12,GR86-028-89,-29.700000000000003,0.197,-0.8180000000000001,100.04,3.0,,0.0,0.0,
2025-08-15T09:36:38.169Z,12,GR86-028-89,-30.1,0.109,-0.645,100.04,3.0,6579.0,0.0,0.0,
2025-08-15T09:36:38.212Z,12,GR86-028-89,-31.6,-0.073,-0.455,100.02,3.0,,0.0,0.0,138.39
2025-08-15T09:36:38.255Z,12,GR86-028-89,-32.2,0.129,-0.793,100.04,3.0,,0.0,0.0,
2025-08-15T09:36:38.298Z,12,GR86-028-89,-30.9,0.116,-0.926,100.03,3.0,,0.0,0.0,
2025-08-15T09:36:38.341Z,12,GR86-028-89,-30.200000000000003,0.206,-1.0,100.03,3.0,,0.0,0.0,
2025-08-15T09:36:38.386Z,12,GR86-028-89,-29.4,0.247,-1.332,100.03,3.0,6661.0,0.0,0.0,
2025-08-15T09:36:38.428Z,12,GR86-028-89,-28.9,0.237,-0.998,100.02,3.0,,0.0,0.0,139.23
2025-08-15T09:36:38.471Z,12,GR86-028-89,-28.6,0.085,-0.995,100.04,3.0,,0.0,0.0,
2025-08-15T09:36:38.516Z,12,GR86-028-89,-28.3,0.155,-0.933,100.04,3.0,,0.0,0.0,
2025-08-15T09:36:38.559Z,12,GR86-028-89,-29.200000000000003,0.054,-0.73,100.03,3.0,,0.0,0.0,
2025-08-15T09:36:38.602Z,12,GR86-028-89,-29.6,0.029,-0.856,100.02,3.0,6705.0,0.0,0.0,
2025-08-15T09:36:38.645Z,12,GR86-028-89,-28.5,0.224,-0.921,100.03,3.0,,0.0,0.0,140.46
2025-08-15T09:36:38.688Z,12,GR86-028-89,-27.700000000000003,0.179,-0.909,100.03,3.0,,0.0,0.0,
2025-08-15T09:36:38.731Z,12,GR86-028-89,-27.200000000000003,0.126,-1.031,100.04,3.0,,0.0,0.0,
2025-08-15T09:36:38.776Z,12,GR86-028-89,-26.5,0.19,-1.095,100.03,3.0,,0.0,0.0,
2025-08-15T09:36:38.818Z,12,GR86-028-89,-26.1,0.102,-0.981,100.04,3.0,6787.0,0.0,0.0,
2025-08-15T09:36:38.861Z,12,GR86-028-89,-25.3,0.129,-1.027,100.02,3.0,,0.0,0.0,140.75
2025-08-15T09:36:38.905Z,12,GR86-028-89,-24.1,0.215,-0.919,100.02,3.0,,0.0,0.0,
2025-08-15T09:36:38.948Z,12,GR86-028-89,-22.9,0.146,-0.778,100.02,3.0,,0.0,0.0,
2025-08-15T09:36:38.991Z,12,GR86-028-89,-22.1,0.138,-0.749,100.04,3.0,,0.0,0.0,
2025-08-15T09:36:39.036Z,12,GR86-028-89,-21.3,0.148,-0.677,100.02,3.0,6723.0,0.0,0.0,
2025-08-15T09:36:39.078Z,12,GR86-028-89,-21.6,0.144,-0.535,100.01,3.0,,0.0,0.0,142.52
2025-08-15T09:36:39.121Z,12,GR86-028-89,-21.6,0.177,-0.549,100.02,3.0,,0.0,0.0,
2025-08-15T09:36:39.166Z,12,GR86-028-89,-20.6,0.189,-0.641,100.04,3.0,,0.0,0.0,
2025-08-15T09:36:39.208Z,12,GR86-028-89,-19.5,0.172,-0.548,100.04,3.0,,0.0,0.0,
2025-08-15T09:36:39.251Z,12,GR86-028-89,-18.3,0.139,-0.604,100.03,3.0,6778.0,0.0,0.0,
2025-08-15T09:36:39.295Z,12,GR86-028-89,-16.5,0.219,-0.523,100.03,3.0,,0.0,0.0,143.33
2025-08-15T09:36:39.338Z,12,GR86-028-89,-16.3,0.108,-0.46,100.03,3.0,,0.0,0.0,
2025-08-15T09:36:39.426Z,12,GR86-028-89,-15.3,0.092,-0.551,100.03,3.0,,0.0,0.0,
2025-08-15T09:36:39.469Z,12,GR86-028-89,-13.2,0.163,-0.416,100.0,3.0,6808.0,0.0,0.0,
2025-08-15T09:36:39.555Z,12,GR86-028-89,-11.7,0.121,-0.338,100.02,3.0,,0.0,0.0,144.95000000000002
2025-08-15T09:36:39.598Z,12,GR86-028-89,-7.5,0.147,-0.313,100.04,3.0,,0.0,0.0,
2025-08-15T09:36:39.641Z,12,GR86-028-89,-2.6,0.107,-0.391,100.02,3.0,,0.0,0.0,
2025-08-15T09:36:39.685Z,12,GR86-028-89,1.5,0.271,-0.501,100.03,3.0,6941.0,0.0,0.0,
2025-08-15T09:36:39.727Z,12,GR86-028-89,4.3,0.203,-0.352,100.04,3.0,,0.0,0.0,147.13
2025-08-15T09:36:39.770Z,12,GR86-028-89,6.1000000000000005,0.178,-0.327,100.04,3.0,,0.0,0.0,
2025-08-15T09:36:39.816Z,12,GR86-028-89,6.6000000000000005,0.063,-0.18,100.0,3.0,,0.0,0.0,
2025-08-15T09:36:39.858Z,12,GR86-028-89,6.1000000000000005,0.29,-0.052,99.99,3.0,,0.0,0.0,
2025-08-15T09:36:39.901Z,12,GR86-028-89,6.1000000000000005,0.252,0.008,100.03,3.0,7024.0,0.0,0.0,
2025-08-15T09:36:39.945Z,12,GR86-028-89,6.1000000000000005,0.169,0.086,99.99,3.0,,0.0,0.0,149.34
2025-08-15T09:36:39.987Z,12,GR86-028-89,6.300000000000001,0.066,0.155,100.04,3.0,,0.0,0.0,
2025-08-15T09:36:40.030Z,12,GR86-028-89,6.7,0.134,0.242,100.04,3.0,,0.0,0.0,
2025-08-15T09:36:40.075Z,12,GR86-028-89,7.4,0.243,0.267,100.01,3.0,,0.0,0.0,
2025-08-15T09:36:40.118Z,12,GR86-028-89,9.0,0.198,0.336,100.04,3.0,7151.0,0.0,0.0,
2025-08-15T09:36:40.161Z,12,GR86-028-89,10.7,0.135,0.298,100.01,3.0,,0.0,0.0,150.20000000000002
2025-08-15T09:36:40.205Z,12,GR86-028-89,11.0,0.097,0.346,100.03,3.0,,0.0,0.0,
2025-08-15T09:36:40.247Z,12,GR86-028-89,10.3,0.058,0.332,100.03,3.0,,0.0,0.0,
2025-08-15T09:36:40.290Z,12,GR86-028-89,10.1,0.085,0.354,100.01,3.0,,0.0,0.0,
2025-08-15T09:36:40.336Z,12,GR86-028-89,10.3,0.291,0.412,100.02,3.0,7248.0,0.0,0.0,
2025-08-15T09:36:40.378Z,12,GR86-028-89,11.4,0.29,0.42,99.99,3.0,,0.0,0.0,151.61
2025-08-15T09:36:40.421Z,12,GR86-028-89,11.9,0.225,0.431,100.02,3.0,,0.0,0.0,
2025-08-15T09:36:40.466Z,12,GR86-028-89,11.9,0.138,0.423,100.0,3.0,,0.0,0.0,
2025-08-15T09:36:40.508Z,12,GR86-028-89,11.8,0.125,0.419,100.02,3.0,,0.0,0.0,
2025-08-15T09:36:40.551Z,12,GR86-028-89,11.1,0.186,0.401,100.03,3.0,7188.0,0.0,0.0,
2025-08-15T09:36:40.595Z,12,GR86-028-89,10.4,0.167,0.39,100.03,3.0,,0.0,0.0,153.15
2025-08-15T09:36:40.638Z,12,GR86-028-89,10.9,0.145,0.348,100.01,3.0,,0.0,0.0,
2025-08-15T09:36:40.681Z,12,GR86-028-89,11.1,-0.098,0.343,100.03,4.0,,0.0,0.0,
2025-08-15T09:36:40.726Z,12,GR86-028-89,10.9,0.117,0.357,99.99,4.0,,0.0,0.0,
2025-08-15T09:36:40.769Z,12,GR86-028-89,10.9,0.522,0.235,100.02,4.0,6893.0,0.0,0.0,
2025-08-15T09:36:40.812Z,12,GR86-028-89,10.6,0.285,0.254,99.98,4.0,,0.0,0.0,154.83
2025-08-15T09:36:40.855Z,12,GR86-028-89,9.1,0.048,0.34,100.02,4.0,,0.0,0.0,
2025-08-15T09:36:40.898Z,12,GR86-028-89,8.0,0.151,0.227,100.0,4.0,,0.0,0.0,
2025-08-15T09:36:40.941Z,12,GR86-028-89,7.2,0.223,0.295,100.01,4.0,,0.0,0.0,
2025-08-15T09:36:40.986Z,12,GR86-028-89,6.800000000000001,0.197,0.288,100.0,4.0,6216.0,0.0,0.0,
2025-08-15T09:36:41.029Z,12,GR86-028-89,6.4,0.064,0.209,100.01,4.0,,0.0,0.0,156.16
2025-08-15T09:36:41.072Z,12,GR86-028-89,5.1000000000000005,0.102,0.237,100.02,4.0,,0.0,0.0,
2025-08-15T09:36:41.116Z,12,GR86-028-89,3.9,0.152,0.175,100.0,4.0,,0.0,0.0,
2025-08-15T09:36:41.159Z,12,GR86-028-89,3.8,0.119,0.157,100.03,4.0,,0.0,0.0,
2025-08-15T09:36:41.202Z,12,GR86-028-89,3.8,0.116,0.151,100.0,4.0,6241.0,0.0,0.0,
2025-08-15T09:36:41.245Z,12,GR86-028-89,3.9,0.114,0.119,100.0,4.0,,0.0,0.0,157.58
2025-08-15T09:36:41.288Z,12,GR86-028-89,3.6,0.14,0.099,100.01,4.0,,0.0,0.0,
2025-08-15T09:36:41.331Z,12,GR86-028-89,2.9000000000000004,0.159,0.107,100.01,4.0,,0.0,0.0,
2025-08-15T09:36:41.375Z,12,GR86-028-89,2.6,0.098,0.062,100.01,4.0,,0.0,0.0,
2025-08-15T09:36:41.418Z,12,GR86-028-89,2.5,0.127,0.067,99.99,4.0,6267.0,0.0,0.0,
2025-08-15T09:36:41.461Z,12,GR86-028-89,2.1,0.144,0.043,100.0,4.0,,0.0,0.0,159.01
2025-08-15T09:36:41.505Z,12,GR86-028-89,1.9,0.158,0.021,100.02,4.0,,0.0,0.0,
2025-08-15T09:36:41.547Z,12,GR86-028-89,2.0,0.156,0.003,100.01,4.0,,0.0,0.0,
2025-08-15T09:36:41.590Z,12,GR86-028-89,2.0,0.149,0.0,100.0,4.0,,0.0,0.0,
2025-08-15T09:36:41.635Z,12,GR86-028-89,2.0,0.147,-0.004,100.01,4.0,6313.0,0.0,0.0,
2025-08-15T09:36:41.678Z,12,GR86-028-89,2.4000000000000004,0.165,0.001,100.0,4.0,,0.0,0.0,160.5
2025-08-15T09:36:41.721Z,12,GR86-028-89,2.6,0.15,0.003,100.0,4.0,,0.0,0.0,
2025-08-15T09:36:41.765Z,12,GR86-028-89,2.6,0.149,-0.008,100.0,4.0,,0.0,0.0,
2025-08-15T09:36:41.808Z,12,GR86-028-89,2.3000000000000003,0.124,-0.005,100.02,4.0,,0.0,0.0,
2025-08-15T09:36:41.851Z,12,GR86-028-89,1.5,0.106,-0.022,100.0,4.0,6370.0,0.0,0.0,
2025-08-15T09:36:41.895Z,12,GR86-028-89,1.2000000000000002,0.136,-0.009,100.0,4.0,,0.0,0.0,161.94
2025-08-15T09:36:41.938Z,12,GR86-028-89,0.9,0.159,-0.022,100.0,4.0,,0.0,0.0,
2025-08-15T09:36:41.981Z,12,GR86-028-89,0.5,0.122,-0.022,100.02,4.0,,0.0,0.0,
2025-08-15T09:36:42.027Z,12,GR86-028-89,0.2,0.095,-0.028,100.0,4.0,,0.0,0.0,
2025-08-15T09:36:42.070Z,12,GR86-028-89,0.2,0.066,-0.039,100.02,4.0,6435.0,0.0,0.0,
2025-08-15T09:36:42.116Z,12,GR86-028-89,0.0,0.165,-0.041,100.0,4.0,,0.0,0.0,164.78
2025-08-15T09:36:42.159Z,12,GR86-028-89,-0.4,0.152,-0.062,100.01,4.0,,0.0,0.0,
2025-08-15T09:36:42.202Z,12,GR86-028-89,-0.7000000000000001,0.099,-0.081,100.0,4.0,,0.0,0.0,
2025-08-15T09:36:42.245Z,12,GR86-028-89,-1.2000000000000002,0.082,-0.088,100.02,4.0,,0.0,0.0,
2025-08-15T09:36:42.288Z,12,GR86-028-89,-1.7000000000000002,0.087,-0.109,100.01,4.0,6501.0,0.0,0.0,
2025-08-15T09:36:42.331Z,12,GR86-028-89,-2.3000000000000003,0.078,-0.105,100.0,4.0,,0.0,0.0,166.34
2025-08-15T09:36:42.376Z,12,GR86-028-89,-2.5,0.124,-0.125,100.02,4.0,,0.0,0.0,
2025-08-15T09:36:42.418Z,12,GR86-028-89,-2.4000000000000004,0.107,-0.13,100.0,4.0,,0.0,0.0,
2025-08-15T09:36:42.461Z,12,GR86-028-89,-2.4000000000000004,0.113,-0.139,99.99,4.0,,0.0,0.0,
2025-08-15T09:36:42.505Z,12,GR86-028-89,-2.6,0.084,-0.162,100.01,4.0,6544.0,0.0,0.0,
2025-08-15T09:36:42.548Z,12,GR86-028-89,-3.0,0.077,-0.174,100.0,4.0,,0.0,0.0,167.68
2025-08-15T09:36:42.591Z,12,GR86-028-89,-3.7,0.065,-0.193,100.01,4.0,,0.0,0.0,
2025-08-15T09:36:42.636Z,12,GR86-028-89,-5.300000000000001,0.121,-0.181,100.0,4.0,,0.0,0.0,
2025-08-15T09:36:42.678Z,12,GR86-028-89,-6.4,0.11,-0.204,100.0,4.0,,0.0,0.0,
2025-08-15T09:36:42.721Z,12,GR86-028-89,-7.0,0.096,-0.227,100.02,4.0,6649.0,0.0,0.0,
2025-08-15T09:36:42.765Z,12,GR86-028-89,-7.2,0.088,-0.252,100.02,4.0,,0.0,0.0,169.08
2025-08-15T09:36:42.808Z,12,GR86-028-89,-7.300000000000001,0.066,-0.263,99.98,4.0,,0.0,0.0,
2025-08-15T09:36:42.851Z,12,GR86-028-89,-7.800000000000001,0.079,-0.275,99.98,4.0,,0.0,0.0,
2025-08-15T09:36:42.895Z,12,GR86-028-89,-8.5,0.126,-0.309,100.02,4.0,,0.0,0.0,
2025-08-15T09:36:42.938Z,12,GR86-028-89,-9.1,0.11,-0.338,100.01,4.0,6693.0,0.0,0.0,
2025-08-15T09:36:42.981Z,12,GR86-028-89,-9.6,0.106,-0.359,100.01,4.0,,0.0,0.0,170.4
2025-08-15T09:36:43.027Z,12,GR86-028-89,-9.9,0.089,-0.385,100.0,4.0,,0.0,0.0,
2025-08-15T09:36:43.069Z,12,GR86-028-89,-9.9,0.087,-0.391,100.0,4.0,,0.0,0.0,
2025-08-15T09:36:43.112Z,12,GR86-028-89,-9.9,0.069,-0.385,100.02,4.0,,0.0,0.0,
2025-08-15T09:36:43.155Z,12,GR86-028-89,-10.3,0.117,-0.377,100.0,4.0,6743.0,0.0,0.0,
2025-08-15T09:36:43.198Z,12,GR86-028-89,-10.8,0.133,-0.366,100.01,4.0,,0.0,0.0,171.68
2025-08-15T09:36:43.241Z,12,GR86-028-89,-11.4,0.121,-0.385,99.98,4.0,,0.0,0.0,
2025-08-15T09:36:43.285Z,12,GR86-028-89,-12.0,0.11,-0.407,99.99,4.0,,0.0,0.0,
2025-08-15T09:36:43.327Z,12,GR86-028-89,-12.1,0.107,-0.425,100.0,4.0,,0.0,0.0,
2025-08-15T09:36:43.370Z,12,GR86-028-89,-11.4,0.106,-0.46,100.0,4.0,6798.0,0.0,0.0,
2025-08-15T09:36:43.416Z,12,GR86-028-89,-8.5,0.107,-0.461,100.0,4.0,,0.0,0.0,172.78
2025-08-15T09:36:43.459Z,12,GR86-028-89,-7.300000000000001,0.091,-0.455,99.99,4.0,,0.0,0.0,
2025-08-15T09:36:43.502Z,12,GR86-028-89,-7.2,0.108,-0.456,100.01,4.0,,0.0,0.0,
2025-08-15T09:36:43.545Z,12,GR86-028-89,-7.5,0.111,-0.441,100.0,4.0,,0.0,0.0,
2025-08-15T09:36:43.588Z,12,GR86-028-89,-7.7,0.122,-0.41,100.02,4.0,6846.0,0.0,0.0,
2025-08-15T09:36:43.631Z,12,GR86-028-89,-7.7,0.116,-0.393,100.01,4.0,,0.0,0.0,173.98
2025-08-15T09:36:43.675Z,12,GR86-028-89,-7.7,0.049,-0.34,100.01,4.0,,0.0,0.0,
2025-08-15T09:36:43.718Z,12,GR86-028-89,-7.0,0.087,-0.315,100.01,4.0,,0.0,0.0,
2025-08-15T09:36:43.761Z,12,GR86-028-89,-5.7,0.05,-0.285,100.02,4.0,,0.0,0.0,
2025-08-15T09:36:43.805Z,12,GR86-028-89,-4.7,0.095,-0.247,100.0,4.0,6891.0,0.0,0.0,
2025-08-15T09:36:43.847Z,12,GR86-028-89,-4.6000000000000005,0.08,-0.22,99.99,4.0,,0.0,0.0,175.24
2025-08-15T09:36:43.890Z,12,GR86-028-89,-5.1000000000000005,0.107,-0.23,100.01,4.0,,0.0,0.0,
2025-08-15T09:36:43.936Z,12,GR86-028-89,-5.2,0.1,-0.259,100.01,4.0,,0.0,0.0,
2025-08-15T09:36:43.978Z,12,GR86-028-89,-5.5,0.087,-0.263,100.0,4.0,,0.0,0.0,
2025-08-15T09:36:44.021Z,12,GR86-028-89,-5.7,0.093,-0.242,100.0,4.0,6935.0,0.0,0.0,
2025-08-15T09:36:44.065Z,12,GR86-028-89,-5.800000000000001,0.108,-0.244,100.01,4.0,,0.0,0.0,176.37
2025-08-15T09:36:44.108Z,12,GR86-028-89,-5.300000000000001,0.087,-0.257,100.01,4.0,,0.0,0.0,
2025-08-15T09:36:44.151Z,12,GR86-028-89,-4.6000000000000005,0.071,-0.25,100.01,4.0,,0.0,0.0,
2025-08-15T09:36:44.195Z,12,GR86-028-89,-4.2,0.124,-0.202,99.99,4.0,,0.0,0.0,
2025-08-15T09:36:44.238Z,12,GR86-028-89,-4.2,0.126,-0.199,99.99,4.0,6975.0,0.0,0.0,
2025-08-15T09:36:44.281Z,12,GR86-028-89,-4.4,0.139,-0.201,100.0,4.0,,0.0,0.0,177.70000000000002
2025-08-15T09:36:44.327Z,12,GR86-028-89,-4.4,0.127,-0.192,89.95,4.0,,0.0,0.0,
2025-08-15T09:36:44.369Z,12,GR86-028-89,-4.2,0.118,-0.181,18.28,4.0,,0.0,0.0,
2025-08-15T09:36:44.412Z,12,GR86-028-89,-3.7,0.155,-0.169,3.42,4.0,,0.0,0.0,
2025-08-15T09:36:44.455Z,12,GR86-028-89,-3.0,-0.173,-0.141,2.97,4.0,7019.0,0.0,0.0,
2025-08-15T09:36:44.498Z,12,GR86-028-89,-2.6,-0.146,-0.11,2.84,4.0,,10.865,11.52,178.86
2025-08-15T09:36:44.541Z,12,GR86-028-89,-1.9,-0.508,-0.157,2.77,4.0,,39.125,39.585,
2025-08-15T09:36:44.586Z,12,GR86-028-89,-1.4,-0.724,-0.055,2.71,4.0,,56.935,56.78,
2025-08-15T09:36:44.629Z,12,GR86-028-89,-2.1,-1.121,-0.068,2.69,4.0,,71.525,71.235,
2025-08-15T09:36:44.672Z,12,GR86-028-89,-3.7,-1.356,-0.054,2.65,4.0,6693.0,84.42,84.08500000000001,
2025-08-15T09:36:44.716Z,12,GR86-028-89,-4.5,-1.555,-0.07,2.63,4.0,,96.015,95.865,176.43
2025-08-15T09:36:44.759Z,12,GR86-028-89,-4.5,-1.558,-0.114,2.62,4.0,,100.64,102.805,
2025-08-15T09:36:44.802Z,12,GR86-028-89,-4.800000000000001,-1.648,-0.125,2.59,4.0,,101.325,102.395,
2025-08-15T09:36:44.847Z,12,GR86-028-89,-4.2,-1.622,-0.132,2.58,4.0,,102.335,104.56,
2025-08-15T09:36:44.890Z,12,GR86-028-89,-3.0,-1.477,-0.073,2.56,4.0,6426.0,102.305,104.18,
2025-08-15T09:36:44.935Z,12,GR86-028-89,-1.6,-1.502,-0.083,2.56,4.0,,95.27,95.985,165.13
2025-08-15T09:36:44.978Z,12,GR86-028-89,-1.5,-1.32,-0.085,2.54,4.0,,95.025,96.995,
2025-08-15T09:36:45.021Z,12,GR86-028-89,-1.6,-1.299,-0.166,2.54,4.0,,94.4,94.9,
2025-08-15T09:36:45.065Z,12,GR86-028-89,0.2,-1.379,-0.139,2.54,4.0,,91.115,91.115,
2025-08-15T09:36:45.108Z,12,GR86-028-89,2.6,-1.358,-0.048,2.54,4.0,5953.0,92.43,93.895,
2025-08-15T09:36:45.151Z,12,GR86-028-89,0.4,-1.452,-0.044,27.11,4.0,,94.645,95.59,153.42000000000002
2025-08-15T09:36:45.195Z,12,GR86-028-89,-6.2,-1.343,0.004,96.12,4.0,,89.715,90.735,
2025-08-15T09:36:45.238Z,12,GR86-028-89,-7.300000000000001,-1.206,-0.059,99.42,4.0,,85.96000000000001,88.11,
2025-08-15T09:36:45.281Z,12,GR86-028-89,-9.5,-1.415,-0.052,58.9,4.0,,87.33500000000001,89.33,
2025-08-15T09:36:45.326Z,12,GR86-028-89,-11.8,-1.334,-0.146,6.17,3.0,6078.0,84.615,85.625,
2025-08-15T09:36:45.369Z,12,GR86-028-89,-13.1,-1.305,-0.083,4.69,3.0,,81.06,82.115,143.6
2025-08-15T09:36:45.412Z,12,GR86-028-89,-15.0,-1.245,-0.103,4.4,3.0,,79.81,81.09,
2025-08-15T09:36:45.455Z,12,GR86-028-89,-18.8,-1.158,-0.268,3.69,3.0,,75.005,76.08500000000001,
2025-08-15T09:36:45.498Z,12,GR86-028-89,-19.200000000000003,-1.185,-0.29,3.34,3.0,,73.2,74.44,
2025-08-15T09:36:45.541Z,12,GR86-028-89,-19.200000000000003,-1.167,-0.375,3.11,3.0,6024.0,73.02,74.24,
2025-08-15T09:36:45.586Z,12,GR86-028-89,-19.8,-1.243,-0.403,2.93,3.0,,73.935,75.675,135.81
2025-08-15T09:36:45.628Z,12,GR86-028-89,-20.200000000000003,-1.202,-0.452,2.86,3.0,,71.34,72.545,
2025-08-15T09:36:45.671Z,12,GR86-028-89,-19.9,-1.141,-0.496,39.4,3.0,,66.105,66.795,
2025-08-15T09:36:45.716Z,12,GR86-028-89,-20.1,-1.073,-0.486,98.98,2.0,,62.275,63.74,
2025-08-15T09:36:45.759Z,12,GR86-028-89,-19.8,-1.077,-0.71,66.14,2.0,5697.0,55.27,56.43,
2025-08-15T09:36:45.802Z,12,GR86-028-89,-16.7,-1.189,-0.525,4.12,2.0,,48.205,49.46,131.06
2025-08-15T09:36:45.847Z,12,GR86-028-89,-13.6,-0.973,-0.385,2.93,2.0,,47.305,48.48,
2025-08-15T09:36:45.890Z,12,GR86-028-89,-11.0,-0.905,-0.951,2.72,2.0,,45.52,46.345,
2025-08-15T09:36:45.936Z,12,GR86-028-89,-8.5,-1.044,-0.426,2.62,2.0,,41.02,41.89,
2025-08-15T09:36:45.978Z,12,GR86-028-89,-8.1,-0.794,-0.726,2.6,2.0,6259.0,42.15,42.895,
2025-08-15T09:36:46.021Z,12,GR86-028-89,-11.1,-0.941,-0.875,2.57,2.0,,40.09,40.835,125.72
2025-08-15T09:36:46.065Z,12,GR86-028-89,-16.7,-0.874,-0.707,2.56,2.0,,35.175000000000004,35.89,
2025-08-15T09:36:46.108Z,12,GR86-028-89,-22.6,-0.8290000000000001,-0.834,2.54,2.0,,31.74,32.535000000000004,
2025-08-15T09:36:46.151Z,12,GR86-028-89,-28.0,-0.757,-0.925,2.54,2.0,,30.015,30.965,
2025-08-15T09:36:46.195Z,12,GR86-028-89,-38.0,-0.7010000000000001,-0.928,2.54,2.0,6433.0,23.3,24.14,
2025-08-15T09:36:46.238Z,12,GR86-028-89,-41.8,-0.672,-0.881,2.53,2.0,,20.555,21.09,119.5
2025-08-15T09:36:46.281Z,12,GR86-028-89,-40.6,-0.678,-0.946,2.51,2.0,,19.64,20.48,
2025-08-15T09:36:46.326Z,12,GR86-028-89,-38.6,-0.559,-1.036,2.51,2.0,,16.830000000000002,17.715,
2025-08-15T09:36:46.369Z,12,GR86-028-89,-39.400000000000006,-0.597,-0.966,2.51,2.0,,10.835,11.58,
2025-08-15T09:36:46.412Z,12,GR86-028-89,-41.8,-0.484,-0.923,2.5,2.0,6234.0,5.6450000000000005,6.0600000000000005,
2025-08-15T09:36:46.455Z,12,GR86-028-89,-47.7,-0.236,-0.991,2.5,2.0,,0.0,0.0,114.48
2025-08-15T09:36:46.498Z,12,GR86-028-89,-53.8,-0.26,-1.036,2.5,2.0,,0.0,0.0,
2025-08-15T09:36:46.541Z,12,GR86-028-89,-59.5,-0.224,-1.047,2.49,2.0,,0.0,0.0,
2025-08-15T09:36:46.585Z,12,GR86-028-89,-63.3,-0.211,-1.068,2.5,2.0,,0.0,0.0,
2025-08-15T09:36:46.627Z,12,GR86-028-89,-65.7,-0.253,-1.104,2.5,2.0,6167.0,0.0,0.0,
2025-08-15T09:36:46.670Z,12,GR86-028-89,-69.10000000000001,-0.215,-1.096,2.5,2.0,,0.0,0.0,111.75
2025-08-15T09:36:46.716Z,12,GR86-028-89,-71.5,-0.228,-1.142,2.48,2.0,,0.0,0.0,
2025-08-15T09:36:46.759Z,12,GR86-028-89,-68.3,-0.273,-1.191,2.48,2.0,,0.0,0.0,
2025-08-15T09:36:46.802Z,12,GR86-028-89,-63.0,-0.234,-1.175,2.49,2.0,,0.0,0.0,
2025-08-15T09:36:46.847Z,12,GR86-028-89,-58.2,-0.243,-1.207,2.49,2.0,6114.0,0.0,0.0,
2025-08-15T09:36:46.890Z,12,GR86-028-89,-54.8,-0.237,-1.175,2.48,2.0,,0.0,0.0,109.73
2025-08-15T09:36:46.936Z,12,GR86-028-89,-49.400000000000006,-0.221,-1.162,2.48,2.0,,0.0,0.0,
2025-08-15T09:36:46.978Z,12,GR86-028-89,-47.400000000000006,-0.209,-1.196,2.48,2.0,,0.0,0.0,
2025-08-15T09:36:47.021Z,12,GR86-028-89,-47.2,-0.233,-1.194,2.5,2.0,,0.0,0.0,
2025-08-15T09:36:47.065Z,12,GR86-028-89,-47.6,-0.196,-1.209,2.49,2.0,6023.0,0.0,0.0,
2025-08-15T09:36:47.108Z,12,GR86-028-89,-48.5,-0.256,-1.21,2.49,2.0,,0.0,0.0,109.22
2025-08-15T09:36:47.151Z,12,GR86-028-89,-49.400000000000006,-0.235,-1.205,2.5,2.0,,0.0,0.0,
2025-08-15T09:36:47.195Z,12,GR86-028-89,-50.0,-0.215,-1.241,6.87,2.0,,0.0,0.0,
2025-08-15T09:36:47.238Z,12,GR86-028-89,-53.900000000000006,-0.245,-1.227,17.31,2.0,,0.0,0.0,
2025-08-15T09:36:47.326Z,12,GR86-028-89,-74.2,-0.231,-1.245,22.36,2.0,5934.0,0.0,0.0,106.69
2025-08-15T09:36:47.369Z,12,GR86-028-89,-81.30000000000001,-0.2,-1.277,23.06,2.0,,0.0,0.0,
2025-08-15T09:36:47.412Z,12,GR86-028-89,-84.80000000000001,-0.157,-1.256,25.19,2.0,,0.0,0.0,
2025-08-15T09:36:47.455Z,12,GR86-028-89,-89.0,-0.169,-1.243,25.34,2.0,,0.0,0.0,
2025-08-15T09:36:47.498Z,12,GR86-028-89,-90.9,0.019,-1.212,25.18,2.0,5876.0,0.0,0.0,
2025-08-15T09:36:47.541Z,12,GR86-028-89,-91.3,0.096,-1.269,26.42,2.0,,0.0,0.0,105.03
2025-08-15T09:36:47.586Z,12,GR86-028-89,-89.0,0.045,-1.185,29.91,2.0,,0.0,0.0,
2025-08-15T09:36:47.629Z,12,GR86-028-89,-84.80000000000001,-0.022,-1.217,32.17,2.0,,0.0,0.0,
2025-08-15T09:36:47.672Z,12,GR86-028-89,-79.2,-0.005,-1.185,33.55,2.0,,0.0,0.0,
2025-08-15T09:36:47.716Z,12,GR86-028-89,-76.80000000000001,0.032,-1.17,33.42,2.0,6041.0,0.0,0.0,
2025-08-15T09:36:47.759Z,12,GR86-028-89,-79.5,0.044,-1.23,33.27,2.0,,0.0,0.0,104.34
2025-08-15T09:36:47.802Z,12,GR86-028-89,-82.2,0.096,-1.192,33.17,2.0,,0.0,0.0,
2025-08-15T09:36:47.847Z,12,GR86-028-89,-83.10000000000001,0.065,-1.135,33.13,2.0,,0.0,0.0,
2025-08-15T09:36:47.890Z,12,GR86-028-89,-82.60000000000001,0.079,-1.186,33.11,2.0,,0.0,0.0,
2025-08-15T09:36:47.935Z,12,GR86-028-89,-81.2,0.057,-1.219,33.0,2.0,6075.0,0.0,0.0,
2025-08-15T09:36:47.978Z,12,GR86-028-89,-80.10000000000001,0.056,-1.128,32.980000000000004,2.0,,0.0,0.0,104.5
2025-08-15T09:36:48.021Z,12,GR86-028-89,-79.60000000000001,0.097,-1.243,32.95,2.0,,0.0,0.0,
2025-08-15T09:36:48.065Z,12,GR86-028-89,-79.30000000000001,0.058,-1.152,32.93,2.0,,0.0,0.0,
2025-08-15T09:36:48.108Z,12,GR86-028-89,-77.4,0.011,-1.269,33.01,2.0,,0.0,0.0,
2025-08-15T09:36:48.151Z,12,GR86-028-89,-73.3,0.111,-1.129,33.04,2.0,6115.0,0.0,0.0,
2025-08-15T09:36:48.195Z,12,GR86-028-89,-65.3,0.05,-1.195,33.480000000000004,2.0,,0.0,0.0,104.8
2025-08-15T09:36:48.238Z,12,GR86-028-89,-61.8,0.035,-1.186,35.42,2.0,,0.0,0.0,
2025-08-15T09:36:48.281Z,12,GR86-028-89,-59.6,0.098,-1.257,38.53,2.0,,0.0,0.0,
2025-08-15T09:36:48.326Z,12,GR86-028-89,-58.5,0.039,-1.218,56.93,2.0,,0.0,0.0,
2025-08-15T09:36:48.369Z,12,GR86-028-89,-57.900000000000006,0.131,-1.202,79.9,2.0,6145.0,0.0,0.0,
2025-08-15T09:36:48.412Z,12,GR86-028-89,-56.7,0.084,-1.161,99.8,2.0,,0.0,0.0,105.3
2025-08-15T09:36:48.455Z,12,GR86-028-89,-54.2,0.127,-1.135,100.01,2.0,,0.0,0.0,
2025-08-15T09:36:48.498Z,12,GR86-028-89,-54.0,0.214,-1.052,100.0,2.0,,0.0,0.0,
2025-08-15T09:36:48.541Z,12,GR86-028-89,-54.8,0.184,-1.117,99.99,2.0,,0.0,0.0,
2025-08-15T09:36:48.586Z,12,GR86-028-89,-55.900000000000006,0.195,-1.079,100.0,2.0,6275.0,0.0,0.0,
2025-08-15T09:36:48.628Z,12,GR86-028-89,-55.3,0.202,-1.099,100.0,2.0,,0.0,0.0,105.96
2025-08-15T09:36:48.671Z,12,GR86-028-89,-51.2,0.153,-1.159,100.01,2.0,,0.0,0.0,
2025-08-15T09:36:48.716Z,12,GR86-028-89,-37.0,0.223,-1.076,99.99,2.0,,0.0,0.0,
2025-08-15T09:36:48.759Z,12,GR86-028-89,-23.5,0.22,-1.096,100.0,2.0,,0.0,0.0,
2025-08-15T09:36:48.802Z,12,GR86-028-89,-14.6,0.191,-1.01,100.01,2.0,6371.0,0.0,0.0,
2025-08-15T09:36:48.845Z,12,GR86-028-89,-18.5,0.234,-0.998,100.04,2.0,,0.0,0.0,106.8
2025-08-15T09:36:48.888Z,12,GR86-028-89,-30.6,0.219,-1.062,100.02,2.0,,0.0,0.0,
2025-08-15T09:36:48.931Z,12,GR86-028-89,-41.5,0.217,-1.102,100.03,2.0,,0.0,0.0,
2025-08-15T09:36:48.976Z,12,GR86-028-89,-46.900000000000006,0.209,-1.137,100.01,2.0,,0.0,0.0,
2025-08-15T09:36:49.018Z,12,GR86-028-89,-45.400000000000006,0.182,-1.244,100.02,2.0,6407.0,0.0,0.0,
2025-08-15T09:36:49.061Z,12,GR86-028-89,-44.0,0.233,-1.115,100.0,2.0,,0.0,0.0,108.35
2025-08-15T09:36:49.105Z,12,GR86-028-89,-46.2,0.244,-1.08,100.05,2.0,,0.0,0.0,
2025-08-15T09:36:49.148Z,12,GR86-028-89,-51.900000000000006,0.196,-1.028,100.02,2.0,,0.0,0.0,
2025-08-15T09:36:49.191Z,12,GR86-028-89,-58.2,0.185,-0.959,100.04,2.0,,0.0,0.0,
2025-08-15T09:36:49.236Z,12,GR86-028-89,-61.6,0.174,-0.979,100.01,2.0,6416.0,0.0,0.0,
2025-08-15T09:36:49.279Z,12,GR86-028-89,-60.0,0.129,-1.027,100.0,2.0,,0.0,0.0,108.86
2025-08-15T09:36:49.322Z,12,GR86-028-89,-56.6,0.218,-0.978,100.0,2.0,,0.0,0.0,
2025-08-15T09:36:49.365Z,12,GR86-028-89,-52.7,0.18,-1.016,100.01,2.0,,0.0,0.0,
2025-08-15T09:36:49.408Z,12,GR86-028-89,-47.1,0.184,-1.016,100.0,2.0,,0.0,0.0,
2025-08-15T09:36:49.451Z,12,GR86-028-89,-41.6,0.202,-0.977,100.0,2.0,6516.0,0.0,0.0,
2025-08-15T09:36:49.495Z,12,GR86-028-89,-40.0,0.211,-0.977,100.01,2.0,,0.0,0.0,110.18
2025-08-15T09:36:49.538Z,12,GR86-028-89,-40.8,0.158,-1.059,100.01,2.0,,0.0,0.0,
2025-08-15T09:36:49.581Z,12,GR86-028-89,-40.0,0.231,-0.993,100.0,2.0,,0.0,0.0,
2025-08-15T09:36:49.627Z,12,GR86-028-89,-37.9,0.177,-1.041,100.01,2.0,,0.0,0.0,
2025-08-15T09:36:49.669Z,12,GR86-028-89,-34.300000000000004,0.174,-1.052,99.99,2.0,6620.0,0.0,0.0,
2025-08-15T09:36:49.712Z,12,GR86-028-89,-30.1,0.246,-0.983,99.99,2.0,,0.0,0.0,111.68
2025-08-15T09:36:49.755Z,12,GR86-028-89,-25.6,0.252,-1.013,100.0,2.0,,0.0,0.0,
2025-08-15T09:36:49.798Z,12,GR86-028-89,-24.5,0.183,-1.048,100.0,2.0,,0.0,0.0,
2025-08-15T09:36:49.841Z,12,GR86-028-89,-24.5,0.237,-0.988,100.02,2.0,,0.0,0.0,
2025-08-15T09:36:49.885Z,12,GR86-028-89,-25.5,0.233,-0.981,100.04,2.0,6719.0,0.0,0.0,
2025-08-15T09:36:49.927Z,12,GR86-028-89,-26.8,0.187,-0.982,100.03,2.0,,0.0,0.0,114.67
2025-08-15T09:36:49.970Z,12,GR86-028-89,-28.8,0.237,-0.936,100.0,2.0,,0.0,0.0,
2025-08-15T09:36:50.016Z,12,GR86-028-89,-33.300000000000004,0.244,-0.907,100.02,2.0,,0.0,0.0,
2025-08-15T09:36:50.058Z,12,GR86-028-89,-36.9,0.209,-0.873,100.02,2.0,,0.0,0.0,
2025-08-15T09:36:50.101Z,12,GR86-028-89,-38.900000000000006,0.191,-0.834,100.02,2.0,6761.0,0.0,0.0,
2025-08-15T09:36:50.145Z,12,GR86-028-89,-38.1,0.214,-0.845,100.03,2.0,,0.0,0.0,116.34
2025-08-15T09:36:50.187Z,12,GR86-028-89,-35.7,0.181,-0.8240000000000001,100.02,2.0,,0.0,0.0,
2025-08-15T09:36:50.230Z,12,GR86-028-89,-34.2,0.166,-0.798,100.03,2.0,,0.0,0.0,
2025-08-15T09:36:50.275Z,12,GR86-028-89,-34.4,0.217,-0.6910000000000001,100.04,2.0,,0.0,0.0,
2025-08-15T09:36:50.318Z,12,GR86-028-89,-34.800000000000004,0.246,-0.655,100.03,2.0,6893.0,0.0,0.0,
2025-08-15T09:36:50.361Z,12,GR86-028-89,-34.0,0.19,-0.532,100.03,2.0,,0.0,0.0,118.15
2025-08-15T09:36:50.405Z,12,GR86-028-89,-32.0,0.165,-0.483,100.03,2.0,,0.0,0.0,
2025-08-15T09:36:50.447Z,12,GR86-028-89,-29.700000000000003,0.192,-0.554,100.04,2.0,,0.0,0.0,
2025-08-15T09:36:50.490Z,12,GR86-028-89,-27.4,0.187,-0.472,100.03,2.0,,0.0,0.0,
2025-08-15T09:36:50.536Z,12,GR86-028-89,-26.1,0.132,-0.429,100.0,2.0,7007.0,0.0,0.0,
2025-08-15T09:36:50.578Z,12,GR86-028-89,-25.1,0.102,-0.607,100.03,2.0,,0.0,0.0,119.54
2025-08-15T09:36:50.621Z,12,GR86-028-89,-22.5,0.183,-0.747,100.02,2.0,,0.0,0.0,
2025-08-15T09:36:50.666Z,12,GR86-028-89,-19.0,0.225,-0.762,100.04,2.0,,0.0,0.0,
2025-08-15T09:36:50.708Z,12,GR86-028-89,-16.2,0.238,-0.763,100.06,2.0,,0.0,0.0,
2025-08-15T09:36:50.751Z,12,GR86-028-89,-13.9,0.226,-0.771,100.06,2.0,7109.0,0.0,0.0,
2025-08-15T09:36:50.795Z,12,GR86-028-89,-12.2,0.181,-0.647,100.04,2.0,,0.0,0.0,121.27
2025-08-15T09:36:50.838Z,12,GR86-028-89,-11.9,0.234,-0.554,100.05,2.0,,0.0,0.0,
2025-08-15T09:36:50.881Z,12,GR86-028-89,-13.4,0.193,-0.305,100.04,2.0,,0.0,0.0,
2025-08-15T09:36:50.927Z,12,GR86-028-89,-13.8,0.217,-0.494,100.05,2.0,,0.0,0.0,
2025-08-15T09:36:50.969Z,12,GR86-028-89,-14.0,0.199,-0.33,100.01,2.0,7174.0,0.0,0.0,
2025-08-15T09:36:51.012Z,12,GR86-028-89,-14.1,0.23,-0.384,100.04,2.0,,0.0,0.0,122.82
2025-08-15T09:36:51.055Z,12,GR86-028-89,-14.6,0.264,-0.364,100.01,2.0,,0.0,0.0,
2025-08-15T09:36:51.098Z,12,GR86-028-89,-16.1,0.206,-0.28,100.04,2.0,,0.0,0.0,
2025-08-15T09:36:51.141Z,12,GR86-028-89,-15.5,0.143,-0.331,100.01,2.0,,0.0,0.0,
2025-08-15T09:36:51.186Z,12,GR86-028-89,-14.7,-0.027,-0.191,100.0,3.0,7226.0,0.0,0.0,
2025-08-15T09:36:51.229Z,12,GR86-028-89,-13.5,0.445,-0.18,100.03,3.0,,0.0,0.0,124.6
2025-08-15T09:36:51.272Z,12,GR86-028-89,-13.6,0.362,-0.371,100.04,3.0,,0.0,0.0,
2025-08-15T09:36:51.316Z,12,GR86-028-89,-15.5,0.369,-0.233,100.01,3.0,,0.0,0.0,
2025-08-15T09:36:51.359Z,12,GR86-028-89,-15.8,0.135,-0.224,100.02,3.0,,0.0,0.0,
2025-08-15T09:36:51.402Z,12,GR86-028-89,-12.9,0.203,-0.5,100.02,3.0,5994.0,0.0,0.0,
2025-08-15T09:36:51.445Z,12,GR86-028-89,-11.3,0.206,-0.212,100.03,3.0,,0.0,0.0,126.09
2025-08-15T09:36:51.488Z,12,GR86-028-89,-11.5,0.247,-0.355,100.02,3.0,,0.0,0.0,
2025-08-15T09:36:51.531Z,12,GR86-028-89,-12.3,0.095,-0.19,100.01,3.0,,0.0,0.0,
2025-08-15T09:36:51.575Z,12,GR86-028-89,-10.8,0.21,-0.266,100.0,3.0,,0.0,0.0,
2025-08-15T09:36:51.618Z,12,GR86-028-89,-6.4,0.241,-0.473,100.01,3.0,6029.0,0.0,0.0,
2025-08-15T09:36:51.661Z,12,GR86-028-89,-2.2,0.247,-0.351,100.0,3.0,,0.0,0.0,128.12
2025-08-15T09:36:51.705Z,12,GR86-028-89,-0.4,0.155,-0.267,100.02,3.0,,0.0,0.0,
2025-08-15T09:36:51.747Z,12,GR86-028-89,0.4,0.13,-0.227,100.04,3.0,,0.0,0.0,
2025-08-15T09:36:51.790Z,12,GR86-028-89,2.0,0.162,-0.14,100.03,3.0,,0.0,0.0,
2025-08-15T09:36:51.835Z,12,GR86-028-89,4.3,0.165,0.007,100.01,3.0,6033.0,0.0,0.0,
2025-08-15T09:36:51.878Z,12,GR86-028-89,5.2,0.226,-0.073,100.03,3.0,,0.0,0.0,129.73
2025-08-15T09:36:51.921Z,12,GR86-028-89,7.1000000000000005,0.192,0.106,100.03,3.0,,0.0,0.0,
2025-08-15T09:36:51.965Z,12,GR86-028-89,7.7,0.246,0.112,100.0,3.0,,0.0,0.0,
2025-08-15T09:36:52.008Z,12,GR86-028-89,7.6,0.183,0.103,100.01,3.0,,0.0,0.0,
2025-08-15T09:36:52.051Z,12,GR86-028-89,7.5,0.197,0.177,100.0,3.0,6156.0,0.0,0.0,
2025-08-15T09:36:52.095Z,12,GR86-028-89,7.5,0.166,0.185,100.01,3.0,,0.0,0.0,131.18
2025-08-15T09:36:52.138Z,12,GR86-028-89,7.300000000000001,0.194,0.216,100.0,3.0,,0.0,0.0,
2025-08-15T09:36:52.181Z,12,GR86-028-89,7.0,0.251,0.249,100.01,3.0,,0.0,0.0,
2025-08-15T09:36:52.226Z,12,GR86-028-89,6.4,0.205,0.194,100.0,3.0,,0.0,0.0,
2025-08-15T09:36:52.269Z,12,GR86-028-89,5.7,0.166,0.175,100.01,3.0,6218.0,0.0,0.0,
2025-08-15T09:36:52.312Z,12,GR86-028-89,5.0,0.2,0.213,100.04,3.0,,0.0,0.0,132.6
2025-08-15T09:36:52.355Z,12,GR86-028-89,4.5,0.174,0.145,100.01,3.0,,0.0,0.0,
2025-08-15T09:36:52.398Z,12,GR86-028-89,4.4,0.238,0.17,100.0,3.0,,0.0,0.0,
2025-08-15T09:36:52.441Z,12,GR86-028-89,4.2,0.218,0.116,100.03,3.0,,0.0,0.0,
2025-08-15T09:36:52.486Z,12,GR86-028-89,4.1000000000000005,0.166,0.079,100.0,3.0,6282.0,0.0,0.0,
2025-08-15T09:36:52.528Z,12,GR86-028-89,4.1000000000000005,0.171,0.108,100.01,3.0,,0.0,0.0,135.58
2025-08-15T09:36:52.571Z,12,GR86-028-89,3.8,0.232,0.087,100.02,3.0,,0.0,0.0,
2025-08-15T09:36:52.616Z,12,GR86-028-89,3.3000000000000003,0.214,0.094,100.02,3.0,,0.0,0.0,
2025-08-15T09:36:52.659Z,12,GR86-028-89,3.2,0.235,0.076,100.03,3.0,,0.0,0.0,
2025-08-15T09:36:52.702Z,12,GR86-028-89,2.5,0.18,0.031,100.01,3.0,6346.0,0.0,0.0,
2025-08-15T09:36:52.745Z,12,GR86-028-89,2.0,0.16,0.033,100.02,3.0,,0.0,0.0,137.0
2025-08-15T09:36:52.788Z,12,GR86-028-89,1.7000000000000002,0.196,0.052,100.01,3.0,,0.0,0.0,
2025-08-15T09:36:52.831Z,12,GR86-028-89,1.6,0.233,0.034,100.03,3.0,,0.0,0.0,
2025-08-15T09:36:52.876Z,12,GR86-028-89,0.6000000000000001,0.216,0.027,100.01,3.0,,0.0,0.0,
2025-08-15T09:36:52.918Z,12,GR86-028-89,0.3,0.236,0.003,100.03,3.0,6483.0,0.0,0.0,
2025-08-15T09:36:52.961Z,12,GR86-028-89,0.2,0.173,-0.023,100.01,3.0,,0.0,0.0,138.36
2025-08-15T09:36:53.005Z,12,GR86-028-89,0.2,0.156,-0.019,100.02,3.0,,0.0,0.0,
2025-08-15T09:36:53.047Z,12,GR86-028-89,0.2,0.213,-0.004,100.0,3.0,,0.0,0.0,
2025-08-15T09:36:53.090Z,12,GR86-028-89,0.2,0.222,-0.032,100.01,3.0,,0.0,0.0,
2025-08-15T09:36:53.136Z,12,GR86-028-89,0.3,0.216,-0.021,100.02,3.0,6551.0,0.0,0.0,
2025-08-15T09:36:53.179Z,12,GR86-028-89,0.3,0.206,-0.061,100.0,3.0,,0.0,0.0,139.70000000000002
2025-08-15T09:36:53.222Z,12,GR86-028-89,0.2,0.185,-0.051,100.01,3.0,,0.0,0.0,
2025-08-15T09:36:53.265Z,12,GR86-028-89,0.0,0.162,-0.043,100.02,3.0,,0.0,0.0,
2025-08-15T09:36:53.308Z,12,GR86-028-89,0.0,0.188,-0.027,100.0,3.0,,0.0,0.0,
2025-08-15T09:36:53.351Z,12,GR86-028-89,-0.1,0.223,-0.048,100.01,3.0,6615.0,0.0,0.0,
2025-08-15T09:36:53.395Z,12,GR86-028-89,-0.2,0.192,-0.039,100.01,3.0,,0.0,0.0,141.1
2025-08-15T09:36:53.438Z,12,GR86-028-89,-0.3,0.217,-0.058,100.01,3.0,,0.0,0.0,
2025-08-15T09:36:53.481Z,12,GR86-028-89,-0.2,0.183,-0.086,99.99,3.0,,0.0,0.0,
2025-08-15T09:36:53.526Z,12,GR86-028-89,-0.2,0.17,-0.034,100.01,3.0,,0.0,0.0,
2025-08-15T09:36:53.569Z,12,GR86-028-89,0.0,0.172,-0.029,99.99,3.0,6672.0,0.0,0.0,
2025-08-15T09:36:53.612Z,12,GR86-028-89,0.2,0.201,-0.06,99.99,3.0,,0.0,0.0,142.51
2025-08-15T09:36:53.655Z,12,GR86-028-89,0.3,0.176,-0.015,100.01,3.0,,0.0,0.0,
2025-08-15T09:36:53.698Z,12,GR86-028-89,0.5,0.196,-0.053,100.0,3.0,,0.0,0.0,
2025-08-15T09:36:53.741Z,12,GR86-028-89,0.5,0.219,-0.049,100.0,3.0,,0.0,0.0,
2025-08-15T09:36:53.785Z,12,GR86-028-89,0.6000000000000001,0.184,-0.026,100.01,3.0,6734.0,0.0,0.0,
2025-08-15T09:36:53.827Z,12,GR86-028-89,0.4,0.17,-0.024,100.0,3.0,,0.0,0.0,143.83
2025-08-15T09:36:53.870Z,12,GR86-028-89,0.3,0.165,0.007,100.01,3.0,,0.0,0.0,
2025-08-15T09:36:53.916Z,12,GR86-028-89,0.5,0.162,-0.016,99.98,3.0,,0.0,0.0,
2025-08-15T09:36:53.959Z,12,GR86-028-89,0.9,0.181,0.004,100.0,3.0,,0.0,0.0,
2025-08-15T09:36:54.002Z,12,GR86-028-89,1.1,0.193,-0.021,100.0,3.0,6802.0,0.0,0.0,
2025-08-15T09:36:54.045Z,12,GR86-028-89,1.1,0.183,-0.045,100.01,3.0,,0.0,0.0,145.13
2025-08-15T09:36:54.088Z,12,GR86-028-89,1.2000000000000002,0.179,-0.022,100.01,3.0,,0.0,0.0,
2025-08-15T09:36:54.131Z,12,GR86-028-89,1.4,0.187,0.005,100.01,3.0,,0.0,0.0,
2025-08-15T09:36:54.175Z,12,GR86-028-89,1.8,0.188,-0.017,100.0,3.0,,0.0,0.0,
2025-08-15T09:36:54.218Z,12,GR86-028-89,2.0,0.175,0.006,100.02,3.0,6852.0,0.0,0.0,
2025-08-15T09:36:54.261Z,12,GR86-028-89,2.1,0.168,0.025,100.0,3.0,,0.0,0.0,146.39
2025-08-15T09:36:54.305Z,12,GR86-028-89,1.9,0.183,0.008,99.98,3.0,,0.0,0.0,
2025-08-15T09:36:54.347Z,12,GR86-028-89,1.7000000000000002,0.18,-0.024,100.0,3.0,,0.0,0.0,
2025-08-15T09:36:54.390Z,12,GR86-028-89,1.2000000000000002,0.193,-0.025,100.01,3.0,,0.0,0.0,
2025-08-15T09:36:54.436Z,12,GR86-028-89,0.5,0.187,-0.025,100.01,3.0,6905.0,0.0,0.0,
2025-08-15T09:36:54.478Z,12,GR86-028-89,-0.3,0.169,-0.038,100.01,3.0,,0.0,0.0,147.67000000000002
2025-08-15T09:36:54.521Z,12,GR86-028-89,-1.0,0.186,-0.021,100.01,3.0,,0.0,0.0,
2025-08-15T09:36:54.565Z,12,GR86-028-89,-1.0,0.183,-0.016,100.02,3.0,,0.0,0.0,
2025-08-15T09:36:54.608Z,12,GR86-028-89,-0.9,0.178,-0.003,100.0,3.0,,0.0,0.0,
2025-08-15T09:36:54.651Z,12,GR86-028-89,-1.0,0.188,-0.062,100.01,3.0,6964.0,0.0,0.0,
2025-08-15T09:36:54.695Z,12,GR86-028-89,-2.1,0.18,-0.034,99.98,3.0,,0.0,0.0,148.91
2025-08-15T09:36:54.738Z,12,GR86-028-89,-2.5,0.172,-0.064,99.99,3.0,,0.0,0.0,
2025-08-15T09:36:54.781Z,12,GR86-028-89,-2.7,0.154,-0.091,99.99,3.0,,0.0,0.0,
2025-08-15T09:36:54.827Z,12,GR86-028-89,-2.8000000000000003,0.156,-0.122,99.99,3.0,,0.0,0.0,
2025-08-15T09:36:54.869Z,12,GR86-028-89,-2.7,0.183,-0.099,100.01,3.0,7022.0,0.0,0.0,
2025-08-15T09:36:54.912Z,12,GR86-028-89,-2.0,0.183,-0.104,99.99,3.0,,0.0,0.0,150.14
2025-08-15T09:36:54.955Z,12,GR86-028-89,-1.7000000000000002,0.179,-0.133,99.99,3.0,,0.0,0.0,
2025-08-15T09:36:54.998Z,12,GR86-028-89,-2.2,0.182,-0.119,100.0,3.0,,0.0,0.0,
2025-08-15T09:36:55.041Z,12,GR86-028-89,-2.6,0.184,-0.091,100.01,3.0,,0.0,0.0,
2025-08-15T09:36:55.086Z,12,GR86-028-89,-2.6,0.182,-0.085,100.01,3.0,7076.0,0.0,0.0,
2025-08-15T09:36:55.129Z,12,GR86-028-89,-2.4000000000000004,0.154,-0.113,100.0,3.0,,0.0,0.0,152.56
2025-08-15T09:36:55.172Z,12,GR86-028-89,-2.4000000000000004,0.157,-0.141,100.0,3.0,,0.0,0.0,
2025-08-15T09:36:55.216Z,12,GR86-028-89,-2.3000000000000003,0.184,-0.093,100.01,3.0,,0.0,0.0,
2025-08-15T09:36:55.259Z,12,GR86-028-89,-2.3000000000000003,0.153,-0.113,100.02,3.0,,0.0,0.0,
2025-08-15T09:36:55.302Z,12,GR86-028-89,-2.4000000000000004,0.149,-0.136,100.02,3.0,7126.0,0.0,0.0,
2025-08-15T09:36:55.345Z,12,GR86-028-89,-2.6,0.155,-0.135,99.99,3.0,,0.0,0.0,153.76
2025-08-15T09:36:55.388Z,12,GR86-028-89,-2.7,0.178,-0.127,100.01,3.0,,0.0,0.0,
2025-08-15T09:36:55.431Z,12,GR86-028-89,-2.7,0.192,-0.097,100.02,3.0,,0.0,0.0,
2025-08-15T09:36:55.475Z,12,GR86-028-89,-2.7,0.158,-0.111,100.01,3.0,,0.0,0.0,
2025-08-15T09:36:55.518Z,12,GR86-028-89,-2.6,0.167,-0.099,100.01,3.0,7242.0,0.0,0.0,
2025-08-15T09:36:55.561Z,12,GR86-028-89,-2.8000000000000003,0.187,-0.09,100.01,3.0,,0.0,0.0,154.95000000000002
2025-08-15T09:36:55.605Z,12,GR86-028-89,-2.7,0.171,-0.099,99.98,3.0,,0.0,0.0,
2025-08-15T09:36:55.647Z,12,GR86-028-89,-2.6,0.185,-0.107,100.01,3.0,,0.0,0.0,
2025-08-15T09:36:55.690Z,12,GR86-028-89,-2.6,0.116,-0.141,100.0,3.0,,0.0,0.0,
2025-08-15T09:36:55.735Z,12,GR86-028-89,-3.0,0.013,-0.065,100.0,4.0,7096.0,0.0,0.0,
2025-08-15T09:36:55.778Z,12,GR86-028-89,-1.9,0.476,-0.128,100.01,4.0,,0.0,0.0,156.15
2025-08-15T09:36:55.821Z,12,GR86-028-89,-1.8,0.268,-0.213,100.0,4.0,,0.0,0.0,
2025-08-15T09:36:55.865Z,12,GR86-028-89,-2.4000000000000004,0.035,-0.045,100.01,4.0,,0.0,0.0,
2025-08-15T09:36:55.908Z,12,GR86-028-89,-2.2,-0.009,-0.142,100.0,4.0,,0.0,0.0,
2025-08-15T09:36:55.951Z,12,GR86-028-89,-1.4,0.174,-0.171,100.01,4.0,6141.0,0.0,0.0,
2025-08-15T09:36:55.995Z,12,GR86-028-89,-1.0,0.174,-0.104,100.0,4.0,,0.0,0.0,157.27
2025-08-15T09:36:56.038Z,12,GR86-028-89,-0.9,0.062,-0.159,100.0,4.0,,0.0,0.0,
2025-08-15T09:36:56.081Z,12,GR86-028-89,-1.1,0.095,-0.063,100.0,4.0,,0.0,0.0,
2025-08-15T09:36:56.126Z,12,GR86-028-89,-1.5,0.162,-0.071,100.02,4.0,,0.0,0.0,
2025-08-15T09:36:56.169Z,12,GR86-028-89,-1.7000000000000002,0.203,-0.09,100.0,4.0,6243.0,0.0,0.0,
2025-08-15T09:36:56.212Z,12,GR86-028-89,-1.7000000000000002,0.153,-0.056,100.0,4.0,,0.0,0.0,158.51
2025-08-15T09:36:56.255Z,12,GR86-028-89,-1.5,0.14,-0.108,99.99,4.0,,0.0,0.0,
2025-08-15T09:36:56.298Z,12,GR86-028-89,-1.2000000000000002,0.157,-0.069,100.0,4.0,,0.0,0.0,
2025-08-15T09:36:56.341Z,12,GR86-028-89,-1.0,0.184,-0.05,100.01,4.0,,0.0,0.0,
2025-08-15T09:36:56.386Z,12,GR86-028-89,-1.1,0.155,-0.064,99.99,4.0,6275.0,0.0,0.0,
2025-08-15T09:36:56.428Z,12,GR86-028-89,-1.1,0.16,-0.065,100.01,4.0,,0.0,0.0,159.54
2025-08-15T09:36:56.471Z,12,GR86-028-89,-0.9,0.136,-0.065,100.0,4.0,,0.0,0.0,
2025-08-15T09:36:56.516Z,12,GR86-028-89,-0.9,0.166,-0.053,100.01,4.0,,0.0,0.0,
2025-08-15T09:36:56.559Z,12,GR86-028-89,-0.9,0.18,-0.053,100.0,4.0,,0.0,0.0,
2025-08-15T09:36:56.602Z,12,GR86-028-89,-0.9,0.154,-0.061,100.01,4.0,6306.0,0.0,0.0,
2025-08-15T09:36:56.645Z,12,GR86-028-89,-1.0,0.141,-0.091,100.0,4.0,,0.0,0.0,160.52
2025-08-15T09:36:56.688Z,12,GR86-028-89,-1.1,0.107,-0.074,100.0,4.0,,0.0,0.0,
2025-08-15T09:36:56.731Z,12,GR86-028-89,-1.3,0.097,-0.08,100.0,4.0,,0.0,0.0,
2025-08-15T09:36:56.776Z,12,GR86-028-89,-1.6,0.159,-0.073,100.02,4.0,,0.0,0.0,
2025-08-15T09:36:56.818Z,12,GR86-028-89,-1.7000000000000002,0.131,-0.095,99.99,4.0,6345.0,0.0,0.0,
2025-08-15T09:36:56.861Z,12,GR86-028-89,-1.9,0.097,-0.105,99.99,4.0,,0.0,0.0,161.49
2025-08-15T09:36:56.905Z,12,GR86-028-89,-2.3000000000000003,0.099,-0.102,100.0,4.0,,0.0,0.0,
2025-08-15T09:36:56.948Z,12,GR86-028-89,-2.5,0.085,-0.108,100.01,4.0,,0.0,0.0,
2025-08-15T09:36:56.991Z,12,GR86-028-89,-2.6,0.123,-0.118,100.0,4.0,,0.0,0.0,
2025-08-15T09:36:57.036Z,12,GR86-028-89,-2.7,0.107,-0.135,99.98,4.0,6384.0,0.0,0.0,
2025-08-15T09:36:57.078Z,12,GR86-028-89,-2.8000000000000003,0.095,-0.151,100.0,4.0,,0.0,0.0,162.5
2025-08-15T09:36:57.121Z,12,GR86-028-89,-2.9000000000000004,0.099,-0.158,99.99,4.0,,0.0,0.0,
2025-08-15T09:36:57.166Z,12,GR86-028-89,-3.1,0.096,-0.14,100.03,4.0,,0.0,0.0,
2025-08-15T09:36:57.208Z,12,GR86-028-89,-3.4000000000000004,0.135,-0.149,100.0,4.0,,0.0,0.0,
2025-08-15T09:36:57.251Z,12,GR86-028-89,-3.1,0.148,-0.149,100.0,4.0,6419.0,0.0,0.0,
2025-08-15T09:36:57.295Z,12,GR86-028-89,-2.6,0.096,-0.177,100.01,4.0,,0.0,0.0,163.57
2025-08-15T09:36:57.338Z,12,GR86-028-89,-2.6,0.088,-0.163,100.01,4.0,,0.0,0.0,
2025-08-15T09:36:57.381Z,12,GR86-028-89,-2.5,0.096,-0.162,99.99,4.0,,0.0,0.0,
2025-08-15T09:36:57.426Z,12,GR86-028-89,-2.4000000000000004,0.122,-0.158,100.01,4.0,,0.0,0.0,
2025-08-15T09:36:57.469Z,12,GR86-028-89,-2.3000000000000003,0.141,-0.131,100.01,4.0,6469.0,0.0,0.0,
2025-08-15T09:36:57.512Z,12,GR86-028-89,-2.7,0.145,-0.118,99.99,4.0,,0.0,0.0,164.57
2025-08-15T09:36:57.555Z,12,GR86-028-89,-3.2,0.095,-0.132,99.98,4.0,,0.0,0.0,
2025-08-15T09:36:57.598Z,12,GR86-028-89,-3.4000000000000004,0.101,-0.142,100.0,4.0,,0.0,0.0,
2025-08-15T09:36:57.641Z,12,GR86-028-89,-3.7,0.1,-0.131,100.02,4.0,,0.0,0.0,
2025-08-15T09:36:57.685Z,12,GR86-028-89,-3.9,0.128,-0.127,100.02,4.0,6507.0,0.0,0.0,
2025-08-15T09:36:57.727Z,12,GR86-028-89,-4.4,0.129,-0.125,99.99,4.0,,0.0,0.0,166.56
2025-08-15T09:36:57.770Z,12,GR86-028-89,-4.5,0.163,-0.13,100.0,4.0,,0.0,0.0,
2025-08-15T09:36:57.816Z,12,GR86-028-89,-3.9,0.081,-0.157,100.0,4.0,,0.0,0.0,
2025-08-15T09:36:57.859Z,12,GR86-028-89,-3.5,0.101,-0.164,100.02,4.0,,0.0,0.0,
2025-08-15T09:36:57.902Z,12,GR86-028-89,-3.4000000000000004,0.117,-0.139,100.01,4.0,6539.0,0.0,0.0,
2025-08-15T09:36:57.945Z,12,GR86-028-89,-3.3000000000000003,0.112,-0.151,100.0,4.0,,0.0,0.0,167.61
2025-08-15T09:36:57.988Z,12,GR86-028-89,-3.2,0.153,-0.134,99.98,4.0,,0.0,0.0,
2025-08-15T09:36:58.031Z,12,GR86-028-89,-3.4000000000000004,0.152,-0.144,100.0,4.0,,0.0,0.0,
2025-08-15T09:36:58.075Z,12,GR86-028-89,-3.8,0.099,-0.167,100.0,4.0,,0.0,0.0,
2025-08-15T09:36:58.118Z,12,GR86-028-89,-4.2,0.085,-0.142,99.99,4.0,6615.0,0.0,0.0,
2025-08-15T09:36:58.161Z,12,GR86-028-89,-4.5,0.087,-0.156,99.99,4.0,,0.0,0.0,168.64
2025-08-15T09:36:58.205Z,12,GR86-028-89,-4.7,0.113,-0.16,100.01,4.0,,0.0,0.0,
2025-08-15T09:36:58.247Z,12,GR86-028-89,-5.0,0.117,-0.165,100.01,4.0,,0.0,0.0,
2025-08-15T09:36:58.290Z,12,GR86-028-89,-5.4,0.127,-0.177,100.0,4.0,,0.0,0.0,
2025-08-15T09:36:58.336Z,12,GR86-028-89,-6.2,0.092,-0.185,100.0,4.0,6664.0,0.0,0.0,
2025-08-15T09:36:58.378Z,12,GR86-028-89,-7.0,0.089,-0.207,100.01,4.0,,0.0,0.0,169.70000000000002
2025-08-15T09:36:58.421Z,12,GR86-028-89,-7.7,0.088,-0.234,100.01,4.0,,0.0,0.0,
2025-08-15T09:36:58.466Z,12,GR86-028-89,-8.0,0.083,-0.234,100.01,4.0,,0.0,0.0,
2025-08-15T09:36:58.508Z,12,GR86-028-89,-8.0,0.089,-0.253,100.0,4.0,,0.0,0.0,
2025-08-15T09:36:58.551Z,12,GR86-028-89,-8.1,0.09,-0.289,100.01,4.0,6710.0,0.0,0.0,
2025-08-15T09:36:58.595Z,12,GR86-028-89,-8.1,0.088,-0.332,100.01,4.0,,0.0,0.0,170.68
2025-08-15T09:36:58.638Z,12,GR86-028-89,-8.200000000000001,0.084,-0.346,99.99,4.0,,0.0,0.0,
2025-08-15T09:36:58.681Z,12,GR86-028-89,-8.5,0.081,-0.339,99.98,4.0,,0.0,0.0,
2025-08-15T09:36:58.727Z,12,GR86-028-89,-8.4,0.058,-0.363,100.0,4.0,,0.0,0.0,
2025-08-15T09:36:58.769Z,12,GR86-028-89,-8.0,0.074,-0.355,100.01,4.0,6739.0,0.0,0.0,
2025-08-15T09:36:58.812Z,12,GR86-028-89,-7.9,0.066,-0.349,99.99,4.0,,0.0,0.0,171.75
2025-08-15T09:36:58.855Z,12,GR86-028-89,-7.800000000000001,0.11,-0.36,100.01,4.0,,0.0,0.0,
2025-08-15T09:36:58.898Z,12,GR86-028-89,-7.300000000000001,0.138,-0.332,100.0,4.0,,0.0,0.0,
2025-08-15T09:36:58.941Z,12,GR86-028-89,-6.5,0.106,-0.336,100.01,4.0,,0.0,0.0,
2025-08-15T09:36:58.986Z,12,GR86-028-89,-5.4,0.125,-0.317,100.0,4.0,6773.0,0.0,0.0,
2025-08-15T09:36:59.029Z,12,GR86-028-89,-4.9,0.101,-0.288,100.01,4.0,,0.0,0.0,172.69
2025-08-15T09:36:59.072Z,12,GR86-028-89,-4.6000000000000005,0.113,-0.262,100.0,4.0,,0.0,0.0,
2025-08-15T09:36:59.116Z,12,GR86-028-89,-3.4000000000000004,0.148,-0.226,100.0,4.0,,0.0,0.0,
2025-08-15T09:36:59.159Z,12,GR86-028-89,-3.1,0.131,-0.194,100.01,4.0,,0.0,0.0,
2025-08-15T09:36:59.202Z,12,GR86-028-89,-2.8000000000000003,0.168,-0.194,100.01,4.0,6806.0,0.0,0.0,
2025-08-15T09:36:59.245Z,12,GR86-028-89,-1.9,0.144,-0.163,99.99,4.0,,0.0,0.0,173.57
2025-08-15T09:36:59.288Z,12,GR86-028-89,-1.0,0.159,-0.147,100.0,4.0,,0.0,0.0,
2025-08-15T09:36:59.331Z,12,GR86-028-89,-0.5,0.13,-0.143,100.0,4.0,,0.0,0.0,
2025-08-15T09:36:59.375Z,12,GR86-028-89,0.0,0.106,-0.054,99.99,4.0,,0.0,0.0,
2025-08-15T09:36:59.418Z,12,GR86-028-89,0.3,0.123,-0.041,99.99,4.0,6848.0,0.0,0.0,
2025-08-15T09:36:59.461Z,12,GR86-028-89,0.5,0.095,-0.018,99.99,4.0,,0.0,0.0,174.4
2025-08-15T09:36:59.505Z,12,GR86-028-89,0.5,0.129,-0.028,100.01,4.0,,0.0,0.0,
2025-08-15T09:36:59.547Z,12,GR86-028-89,0.3,0.11,-0.027,100.01,4.0,,0.0,0.0,
2025-08-15T09:36:59.590Z,12,GR86-028-89,0.0,0.118,-0.033,100.01,4.0,,0.0,0.0,
2025-08-15T09:36:59.635Z,12,GR86-028-89,-0.4,0.125,-0.019,100.0,4.0,6889.0,0.0,0.0,
2025-08-15T09:36:59.678Z,12,GR86-028-89,-0.8,0.093,-0.002,100.0,4.0,,0.0,0.0,175.4
2025-08-15T09:36:59.721Z,12,GR86-028-89,-1.0,0.132,-0.006,100.0,4.0,,0.0,0.0,
2025-08-15T09:36:59.765Z,12,GR86-028-89,-1.0,0.102,-0.02,100.01,4.0,,0.0,0.0,
2025-08-15T09:36:59.808Z,12,GR86-028-89,-0.9,0.096,-0.029,100.02,4.0,,0.0,0.0,
2025-08-15T09:36:59.851Z,12,GR86-028-89,-1.0,0.099,-0.025,99.99,4.0,6931.0,0.0,0.0,
2025-08-15T09:36:59.895Z,12,GR86-028-89,-1.2000000000000002,0.14,-0.036,99.97,4.0,,0.0,0.0,176.52
2025-08-15T09:36:59.938Z,12,GR86-028-89,-1.2000000000000002,0.141,-0.066,99.99,4.0,,0.0,0.0,
2025-08-15T09:36:59.981Z,12,GR86-028-89,-1.2000000000000002,0.132,-0.059,100.0,4.0,,0.0,0.0,
2025-08-15T09:37:00.027Z,12,GR86-028-89,-1.3,0.159,-0.094,100.0,4.0,,0.0,0.0,
2025-08-15T09:37:00.069Z,12,GR86-028-89,-1.3,0.134,-0.064,99.98,4.0,6962.0,0.0,0.0,
2025-08-15T09:37:00.112Z,12,GR86-028-89,-1.4,0.14,-0.064,99.99,4.0,,0.0,0.0,177.54
2025-08-15T09:37:00.155Z,12,GR86-028-89,-1.5,0.097,-0.067,100.02,4.0,,0.0,0.0,
2025-08-15T09:37:00.198Z,12,GR86-028-89,-1.6,0.097,-0.052,100.0,4.0,,0.0,0.0,
2025-08-15T09:37:00.241Z,12,GR86-028-89,-1.7000000000000002,0.1,-0.065,100.01,4.0,,0.0,0.0,
2025-08-15T09:37:00.286Z,12,GR86-028-89,-1.8,0.101,-0.078,100.0,4.0,6999.0,0.0,0.0,
2025-08-15T09:37:00.328Z,12,GR86-028-89,-1.8,0.097,-0.077,100.0,4.0,,0.0,0.0,179.4
2025-08-15T09:37:00.371Z,12,GR86-028-89,-1.9,0.115,-0.067,100.01,4.0,,0.0,0.0,
2025-08-15T09:37:00.416Z,12,GR86-028-89,-2.1,0.154,-0.084,100.0,4.0,,0.0,0.0,
2025-08-15T09:37:00.459Z,12,GR86-028-89,-2.4000000000000004,0.114,-0.074,100.03,4.0,,0.0,0.0,
2025-08-15T09:37:00.502Z,12,GR86-028-89,-2.6,0.141,-0.071,100.03,4.0,7049.0,0.0,0.0,
2025-08-15T09:37:00.545Z,12,GR86-028-89,-2.6,0.12,-0.08,100.01,4.0,,0.0,0.0,180.45
2025-08-15T09:37:00.588Z,12,GR86-028-89,-2.6,0.135,-0.082,100.01,4.0,,0.0,0.0,
2025-08-15T09:37:00.631Z,12,GR86-028-89,-2.5,0.125,-0.102,99.99,4.0,,0.0,0.0,
2025-08-15T09:37:00.676Z,12,GR86-028-89,-2.3000000000000003,0.082,-0.111,100.04,4.0,,0.0,0.0,
2025-08-15T09:37:00.718Z,12,GR86-028-89,-2.3000000000000003,0.111,-0.089,100.02,4.0,7116.0,0.0,0.0,
2025-08-15T09:37:00.761Z,12,GR86-028-89,-2.3000000000000003,0.098,-0.107,99.98,4.0,,0.0,0.0,181.38
2025-08-15T09:37:00.805Z,12,GR86-028-89,-2.3000000000000003,0.102,-0.088,100.0,4.0,,0.0,0.0,
2025-08-15T09:37:00.848Z,12,GR86-028-89,-2.1,0.098,-0.096,99.99,4.0,,0.0,0.0,
2025-08-15T09:37:00.891Z,12,GR86-028-89,-2.1,0.094,-0.105,100.02,4.0,,0.0,0.0,
2025-08-15T09:37:00.936Z,12,GR86-028-89,-2.5,0.133,-0.102,99.98,4.0,7155.0,0.0,0.0,
2025-08-15T09:37:00.979Z,12,GR86-028-89,-2.7,0.12,-0.075,100.01,4.0,,0.0,0.0,182.4
2025-08-15T09:37:01.022Z,12,GR86-028-89,-2.6,0.13,-0.116,100.03,4.0,,0.0,0.0,
2025-08-15T09:37:01.065Z,12,GR86-028-89,-2.3000000000000003,0.112,-0.123,100.03,4.0,,0.0,0.0,
2025-08-15T09:37:01.108Z,12,GR86-028-89,-2.1,0.131,-0.116,100.02,4.0,,0.0,0.0,
2025-08-15T09:37:01.151Z,12,GR86-028-89,-1.8,0.112,-0.113,99.98,4.0,7197.0,0.0,0.0,
2025-08-15T09:37:01.195Z,12,GR86-028-89,-1.3,0.097,-0.081,100.01,4.0,,0.0,0.0,183.27
2025-08-15T09:37:01.238Z,12,GR86-028-89,-1.0,0.101,-0.078,99.98,4.0,,0.0,0.0,
2025-08-15T09:37:01.281Z,12,GR86-028-89,-0.9,0.087,-0.093,100.01,4.0,,0.0,0.0,
2025-08-15T09:37:01.326Z,12,GR86-028-89,-0.8,0.105,-0.065,100.0,4.0,,0.0,0.0,
2025-08-15T09:37:01.369Z,12,GR86-028-89,-0.7000000000000001,0.09,-0.053,100.01,4.0,7222.0,0.0,0.0,
2025-08-15T09:37:01.412Z,12,GR86-028-89,-0.4,0.113,-0.045,99.99,4.0,,0.0,0.0,184.31
2025-08-15T09:37:01.455Z,12,GR86-028-89,-0.2,0.091,-0.038,99.99,4.0,,0.0,0.0,
2025-08-15T09:37:01.498Z,12,GR86-028-89,-0.3,0.098,-0.078,99.99,4.0,,0.0,0.0,
2025-08-15T09:37:01.541Z,12,GR86-028-89,-0.4,0.107,-0.057,99.99,4.0,,0.0,0.0,
2025-08-15T09:37:01.585Z,12,GR86-028-89,-0.9,-0.165,-0.023,99.98,5.0,7259.0,0.0,0.0,
2025-08-15T09:37:01.627Z,12,GR86-028-89,-0.6000000000000001,0.098,-0.032,100.01,5.0,,0.0,0.0,185.22
2025-08-15T09:37:01.670Z,12,GR86-028-89,0.1,0.344,-0.084,100.01,5.0,,0.0,0.0,
2025-08-15T09:37:01.716Z,12,GR86-028-89,-1.0,0.008,0.02,99.99,5.0,,0.0,0.0,
2025-08-15T09:37:01.759Z,12,GR86-028-89,-1.2000000000000002,0.036,-0.029,100.0,5.0,,0.0,0.0,
2025-08-15T09:37:01.802Z,12,GR86-028-89,-0.8,0.19,-0.087,100.0,5.0,6198.0,0.0,0.0,
2025-08-15T09:37:01.845Z,12,GR86-028-89,-0.7000000000000001,0.136,-0.006,100.01,5.0,,0.0,0.0,185.96
2025-08-15T09:37:01.888Z,12,GR86-028-89,-0.7000000000000001,0.075,-0.066,100.0,5.0,,0.0,0.0,
2025-08-15T09:37:01.931Z,12,GR86-028-89,-0.6000000000000001,0.088,-0.062,100.0,5.0,,0.0,0.0,
2025-08-15T09:37:01.975Z,12,GR86-028-89,-0.2,0.109,-0.051,100.0,5.0,,0.0,0.0,
2025-08-15T09:37:02.018Z,12,GR86-028-89,0.2,0.07,-0.058,100.0,5.0,6334.0,0.0,0.0,
2025-08-15T09:37:02.061Z,12,GR86-028-89,0.2,0.072,-0.028,99.99,5.0,,0.0,0.0,186.77
2025-08-15T09:37:02.105Z,12,GR86-028-89,0.0,0.098,-0.031,100.01,5.0,,0.0,0.0,
2025-08-15T09:37:02.147Z,12,GR86-028-89,0.1,0.098,-0.039,99.99,5.0,,0.0,0.0,
2025-08-15T09:37:02.190Z,12,GR86-028-89,0.3,0.091,-0.018,100.01,5.0,,0.0,0.0,
2025-08-15T09:37:02.236Z,12,GR86-028-89,0.3,0.075,-0.023,100.0,5.0,6387.0,0.0,0.0,
2025-08-15T09:37:02.278Z,12,GR86-028-89,0.5,0.091,0.0,100.01,5.0,,0.0,0.0,187.64
2025-08-15T09:37:02.321Z,12,GR86-028-89,0.6000000000000001,0.076,0.017,100.01,5.0,,0.0,0.0,
2025-08-15T09:37:02.365Z,12,GR86-028-89,0.5,0.054,0.017,100.0,5.0,,0.0,0.0,
2025-08-15T09:37:02.408Z,12,GR86-028-89,0.6000000000000001,0.088,0.0,100.01,5.0,,0.0,0.0,
2025-08-15T09:37:02.451Z,12,GR86-028-89,0.5,0.074,0.008,99.99,5.0,6402.0,0.0,0.0,
2025-08-15T09:37:02.495Z,12,GR86-028-89,-1.0,0.124,0.012,100.0,5.0,,0.0,0.0,188.55
2025-08-15T09:37:02.538Z,12,GR86-028-89,-1.5,0.089,-0.009,100.01,5.0,,0.0,0.0,
2025-08-15T09:37:02.581Z,12,GR86-028-89,-1.7000000000000002,0.093,0.007,100.0,5.0,,0.0,0.0,
2025-08-15T09:37:02.626Z,12,GR86-028-89,-1.8,0.094,-0.021,99.99,5.0,,0.0,0.0,
2025-08-15T09:37:02.669Z,12,GR86-028-89,-1.9,0.058,-0.022,100.01,5.0,6437.0,0.0,0.0,
2025-08-15T09:37:02.712Z,12,GR86-028-89,-2.0,0.071,-0.054,99.98,5.0,,0.0,0.0,189.17
2025-08-15T09:37:02.755Z,12,GR86-028-89,-2.3000000000000003,0.114,-0.069,100.0,5.0,,0.0,0.0,
2025-08-15T09:37:02.798Z,12,GR86-028-89,-1.9,0.113,-0.077,100.02,5.0,,0.0,0.0,
2025-08-15T09:37:02.841Z,12,GR86-028-89,-0.6000000000000001,0.098,-0.1,100.01,5.0,,0.0,0.0,
2025-08-15T09:37:02.886Z,12,GR86-028-89,0.2,0.113,-0.116,99.99,5.0,6458.0,0.0,0.0,
2025-08-15T09:37:02.929Z,12,GR86-028-89,0.0,0.092,-0.077,99.99,5.0,,0.0,0.0,190.71
2025-08-15T09:37:02.972Z,12,GR86-028-89,-0.3,0.077,-0.075,100.0,5.0,,0.0,0.0,
2025-08-15T09:37:03.016Z,12,GR86-028-89,0.4,0.086,-0.059,100.0,5.0,,0.0,0.0,
2025-08-15T09:37:03.058Z,12,GR86-028-89,0.7000000000000001,0.109,-0.043,100.0,5.0,,0.0,0.0,
2025-08-15T09:37:03.101Z,12,GR86-028-89,0.7000000000000001,0.119,-0.024,100.01,5.0,6487.0,0.0,0.0,
2025-08-15T09:37:03.145Z,12,GR86-028-89,0.6000000000000001,0.116,0.003,99.99,5.0,,0.0,0.0,191.65
2025-08-15T09:37:03.187Z,12,GR86-028-89,0.8,0.121,-0.007,99.99,5.0,,0.0,0.0,
2025-08-15T09:37:03.231Z,12,GR86-028-89,1.0,0.096,-0.015,100.01,5.0,,0.0,0.0,
2025-08-15T09:37:03.275Z,12,GR86-028-89,0.9,0.063,-0.017,100.02,5.0,,0.0,0.0,
2025-08-15T09:37:03.318Z,12,GR86-028-89,0.5,0.087,-0.019,100.01,5.0,6538.0,0.0,0.0,
2025-08-15T09:37:03.361Z,12,GR86-028-89,0.3,0.101,-0.015,100.0,5.0,,0.0,0.0,192.41
2025-08-15T09:37:03.405Z,12,GR86-028-89,0.5,0.079,-0.024,100.0,5.0,,0.0,0.0,
2025-08-15T09:37:03.447Z,12,GR86-028-89,0.7000000000000001,0.12,-0.03,100.01,5.0,,0.0,0.0,
2025-08-15T09:37:03.490Z,12,GR86-028-89,0.9,0.122,0.012,100.01,5.0,,0.0,0.0,
2025-08-15T09:37:03.535Z,12,GR86-028-89,1.6,0.073,0.013,100.01,5.0,6568.0,0.0,0.0,
2025-08-15T09:37:03.578Z,12,GR86-028-89,2.7,0.056,0.005,100.0,5.0,,0.0,0.0,193.11
2025-08-15T09:37:03.621Z,12,GR86-028-89,3.5,0.063,0.001,99.99,5.0,,0.0,0.0,
2025-08-15T09:37:03.666Z,12,GR86-028-89,3.7,0.089,0.031,99.99,5.0,,0.0,0.0,
2025-08-15T09:37:03.708Z,12,GR86-028-89,3.7,0.104,0.058,100.01,5.0,,0.0,0.0,
2025-08-15T09:37:03.751Z,12,GR86-028-89,3.8,0.115,0.088,100.01,5.0,6586.0,0.0,0.0,
2025-08-15T09:37:03.795Z,12,GR86-028-89,4.1000000000000005,0.067,0.066,100.0,5.0,,0.0,0.0,193.83
2025-08-15T09:37:03.838Z,12,GR86-028-89,4.1000000000000005,0.054,0.098,100.02,5.0,,0.0,0.0,
2025-08-15T09:37:03.881Z,12,GR86-028-89,4.1000000000000005,0.077,0.092,100.0,5.0,,0.0,0.0,
2025-08-15T09:37:03.926Z,12,GR86-028-89,4.2,0.092,0.11,100.0,5.0,,0.0,0.0,
2025-08-15T09:37:03.969Z,12,GR86-028-89,4.7,0.084,0.113,99.99,5.0,6611.0,0.0,0.0,
2025-08-15T09:37:04.012Z,12,GR86-028-89,5.5,0.11,0.113,100.0,5.0,,0.0,0.0,194.56
2025-08-15T09:37:04.055Z,12,GR86-028-89,6.1000000000000005,0.069,0.143,100.0,5.0,,0.0,0.0,
2025-08-15T09:37:04.098Z,12,GR86-028-89,6.2,0.055,0.16,100.01,5.0,,0.0,0.0,
2025-08-15T09:37:04.141Z,12,GR86-028-89,6.4,0.062,0.178,99.99,5.0,,0.0,0.0,
2025-08-15T09:37:04.186Z,12,GR86-028-89,6.800000000000001,0.1,0.185,100.01,5.0,6634.0,0.0,0.0,
2025-08-15T09:37:04.228Z,12,GR86-028-89,7.1000000000000005,0.076,0.193,100.01,5.0,,0.0,0.0,195.26
2025-08-15T09:37:04.271Z,12,GR86-028-89,7.0,0.088,0.167,99.99,5.0,,0.0,0.0,
2025-08-15T09:37:04.316Z,12,GR86-028-89,6.0,0.049,0.21,99.99,5.0,,0.0,0.0,
2025-08-15T09:37:04.359Z,12,GR86-028-89,5.2,0.05,0.207,100.0,5.0,,0.0,0.0,
2025-08-15T09:37:04.402Z,12,GR86-028-89,4.4,0.06,0.202,100.01,5.0,6664.0,0.0,0.0,
2025-08-15T09:37:04.445Z,12,GR86-028-89,3.8,0.052,0.196,100.01,5.0,,0.0,0.0,195.94
2025-08-15T09:37:04.488Z,12,GR86-028-89,3.4000000000000004,0.082,0.179,100.01,5.0,,0.0,0.0,
2025-08-15T09:37:04.531Z,12,GR86-028-89,3.2,0.092,0.182,100.0,5.0,,0.0,0.0,
2025-08-15T09:37:04.576Z,12,GR86-028-89,3.3000000000000003,0.028,0.141,100.01,5.0,,0.0,0.0,
2025-08-15T09:37:04.618Z,12,GR86-028-89,3.1,0.063,0.087,100.0,5.0,6673.0,0.0,0.0,
2025-08-15T09:37:04.661Z,12,GR86-028-89,2.3000000000000003,0.045,0.061,100.0,5.0,,0.0,0.0,196.72
2025-08-15T09:37:04.705Z,12,GR86-028-89,1.7000000000000002,0.063,0.043,99.99,5.0,,0.0,0.0,
2025-08-15T09:37:04.748Z,12,GR86-028-89,1.2000000000000002,0.091,0.011,99.99,5.0,,0.0,0.0,
2025-08-15T09:37:04.791Z,12,GR86-028-89,0.5,0.067,0.011,99.98,5.0,,0.0,0.0,
2025-08-15T09:37:04.836Z,12,GR86-028-89,-0.4,0.022,0.003,100.01,5.0,6694.0,0.0,0.0,
2025-08-15T09:37:04.878Z,12,GR86-028-89,-0.8,0.038,0.004,100.0,5.0,,0.0,0.0,197.3
2025-08-15T09:37:04.921Z,12,GR86-028-89,-1.3,0.054,-0.004,100.0,5.0,,0.0,0.0,
2025-08-15T09:37:04.965Z,12,GR86-028-89,-2.3000000000000003,0.076,-0.04,99.99,5.0,,0.0,0.0,
2025-08-15T09:37:05.008Z,12,GR86-028-89,-3.1,0.067,-0.03,100.01,5.0,,0.0,0.0,
2025-08-15T09:37:05.051Z,12,GR86-028-89,-3.8,0.09,-0.044,99.99,5.0,6717.0,0.0,0.0,
2025-08-15T09:37:05.096Z,12,GR86-028-89,-4.4,0.065,-0.076,99.99,5.0,,0.0,0.0,197.88
2025-08-15T09:37:05.138Z,12,GR86-028-89,-4.5,0.054,-0.095,100.0,5.0,,0.0,0.0,
2025-08-15T09:37:05.181Z,12,GR86-028-89,-4.9,0.077,-0.13,100.0,5.0,,0.0,0.0,
2025-08-15T09:37:05.226Z,12,GR86-028-89,-5.2,0.081,-0.13,99.98,5.0,,0.0,0.0,
2025-08-15T09:37:05.269Z,12,GR86-028-89,-5.4,0.059,-0.167,100.0,5.0,6731.0,0.0,0.0,
2025-08-15T09:37:05.312Z,12,GR86-028-89,-4.9,0.045,-0.195,100.0,5.0,,0.0,0.0,198.45
2025-08-15T09:37:05.355Z,12,GR86-028-89,-4.0,0.065,-0.221,99.99,5.0,,0.0,0.0,
2025-08-15T09:37:05.398Z,12,GR86-028-89,-3.5,0.066,-0.223,99.99,5.0,,0.0,0.0,
2025-08-15T09:37:05.441Z,12,GR86-028-89,-3.1,0.066,-0.22,99.99,5.0,,0.0,0.0,
2025-08-15T09:37:05.485Z,12,GR86-028-89,-3.0,0.057,-0.225,100.0,5.0,6751.0,0.0,0.0,
2025-08-15T09:37:05.527Z,12,GR86-028-89,-3.2,0.041,-0.209,100.0,5.0,,0.0,0.0,199.51
2025-08-15T09:37:05.570Z,12,GR86-028-89,-3.7,0.025,-0.191,100.01,5.0,,0.0,0.0,
2025-08-15T09:37:05.616Z,12,GR86-028-89,-4.1000000000000005,0.063,-0.187,100.0,5.0,,0.0,0.0,
2025-08-15T09:37:05.658Z,12,GR86-028-89,-4.2,0.058,-0.17,99.98,5.0,,0.0,0.0,
2025-08-15T09:37:05.701Z,12,GR86-028-89,-4.0,0.052,-0.164,99.96,5.0,6761.0,0.0,0.0,
2025-08-15T09:37:05.745Z,12,GR86-028-89,-3.9,0.027,-0.171,99.99,5.0,,0.0,0.0,199.79
2025-08-15T09:37:05.787Z,12,GR86-028-89,-3.8,0.035,-0.165,100.0,5.0,,0.0,0.0,
2025-08-15T09:37:05.830Z,12,GR86-028-89,-3.5,0.008,-0.17,99.99,5.0,,0.0,0.0,
2025-08-15T09:37:05.875Z,12,GR86-028-89,-3.0,0.033,-0.202,100.0,5.0,,0.0,0.0,
2025-08-15T09:37:05.918Z,12,GR86-028-89,-2.8000000000000003,0.025,-0.195,99.99,5.0,6797.0,0.0,0.0,
2025-08-15T09:37:05.961Z,12,GR86-028-89,-2.8000000000000003,0.031,-0.2,99.98,5.0,,0.0,0.0,200.28
2025-08-15T09:37:06.005Z,12,GR86-028-89,-2.8000000000000003,0.011,-0.181,99.97,5.0,,0.0,0.0,
2025-08-15T09:37:06.047Z,12,GR86-028-89,-2.4000000000000004,0.039,-0.143,99.98,5.0,,0.0,0.0,
2025-08-15T09:37:06.090Z,12,GR86-028-89,-1.5,0.024,-0.135,100.0,5.0,,0.0,0.0,
2025-08-15T09:37:06.136Z,12,GR86-028-89,0.0,0.017,-0.103,99.97,5.0,6810.0,0.0,0.0,
2025-08-15T09:37:06.178Z,12,GR86-028-89,0.5,0.046,-0.076,99.99,5.0,,0.0,0.0,200.84
2025-08-15T09:37:06.221Z,12,GR86-028-89,0.4,0.024,-0.058,99.99,5.0,,0.0,0.0,
2025-08-15T09:37:06.266Z,12,GR86-028-89,0.1,0.055,-0.045,99.99,5.0,,0.0,0.0,
2025-08-15T09:37:06.308Z,12,GR86-028-89,-0.2,0.037,-0.04,99.98,5.0,,0.0,0.0,
2025-08-15T09:37:06.351Z,12,GR86-028-89,-0.3,0.075,-0.038,99.99,5.0,6843.0,0.0,0.0,
2025-08-15T09:37:06.395Z,12,GR86-028-89,-0.2,0.046,-0.029,99.97,5.0,,0.0,0.0,201.27
2025-08-15T09:37:06.438Z,12,GR86-028-89,-0.3,0.021,-0.021,99.98,5.0,,0.0,0.0,
2025-08-15T09:37:06.481Z,12,GR86-028-89,-0.4,0.071,-0.008,99.99,5.0,,0.0,0.0,
2025-08-15T09:37:06.526Z,12,GR86-028-89,-0.4,0.059,-0.036,100.0,5.0,,0.0,0.0,
2025-08-15T09:37:06.569Z,12,GR86-028-89,0.0,0.078,-0.046,100.01,5.0,6851.0,0.0,0.0,
2025-08-15T09:37:06.612Z,12,GR86-028-89,0.4,0.047,-0.066,99.99,5.0,,0.0,0.0,201.95
2025-08-15T09:37:06.655Z,12,GR86-028-89,0.7000000000000001,0.039,-0.032,100.0,5.0,,0.0,0.0,
2025-08-15T09:37:06.698Z,12,GR86-028-89,1.4,0.067,-0.014,99.99,5.0,,0.0,0.0,
2025-08-15T09:37:06.741Z,12,GR86-028-89,2.4000000000000004,0.073,-0.013,99.99,5.0,,0.0,0.0,
2025-08-15T09:37:06.786Z,12,GR86-028-89,3.4000000000000004,0.051,0.015,99.99,5.0,6879.0,0.0,0.0,
2025-08-15T09:37:06.829Z,12,GR86-028-89,4.1000000000000005,0.039,0.017,100.0,5.0,,0.0,0.0,202.5
2025-08-15T09:37:06.872Z,12,GR86-028-89,4.6000000000000005,0.045,0.036,99.99,5.0,,0.0,0.0,
2025-08-15T09:37:06.916Z,12,GR86-028-89,5.4,0.052,0.075,100.0,5.0,,0.0,0.0,
2025-08-15T09:37:06.959Z,12,GR86-028-89,6.2,0.057,0.112,100.02,5.0,,0.0,0.0,
2025-08-15T09:37:07.002Z,12,GR86-028-89,6.9,0.037,0.153,100.01,5.0,6886.0,0.0,0.0,
2025-08-15T09:37:07.045Z,12,GR86-028-89,7.4,0.032,0.185,100.0,5.0,,0.0,0.0,203.03
2025-08-15T09:37:07.088Z,12,GR86-028-89,7.5,0.035,0.217,99.97,5.0,,0.0,0.0,
2025-08-15T09:37:07.131Z,12,GR86-028-89,7.0,0.047,0.226,99.97,5.0,,0.0,0.0,
2025-08-15T09:37:07.175Z,12,GR86-028-89,6.300000000000001,0.04,0.214,99.99,5.0,,0.0,0.0,
2025-08-15T09:37:07.218Z,12,GR86-028-89,6.0,0.034,0.232,99.99,5.0,6906.0,0.0,0.0,
2025-08-15T09:37:07.261Z,12,GR86-028-89,5.9,0.033,0.246,100.01,5.0,,0.0,0.0,203.62
2025-08-15T09:37:07.305Z,12,GR86-028-89,6.2,0.075,0.234,99.99,5.0,,0.0,0.0,
2025-08-15T09:37:07.347Z,12,GR86-028-89,6.9,0.061,0.232,99.98,5.0,,0.0,0.0,
2025-08-15T09:37:07.390Z,12,GR86-028-89,7.7,0.067,0.216,99.97,5.0,,0.0,0.0,
2025-08-15T09:37:07.435Z,12,GR86-028-89,8.200000000000001,0.024,0.258,100.0,5.0,6923.0,0.0,0.0,
2025-08-15T09:37:07.478Z,12,GR86-028-89,8.1,0.061,0.239,99.99,5.0,,0.0,0.0,204.14
2025-08-15T09:37:07.521Z,12,GR86-028-89,7.9,0.052,0.252,100.0,5.0,,0.0,0.0,
2025-08-15T09:37:07.566Z,12,GR86-028-89,7.9,0.06,0.236,99.98,5.0,,0.0,0.0,
2025-08-15T09:37:07.608Z,12,GR86-028-89,7.9,0.035,0.269,99.99,5.0,,0.0,0.0,
2025-08-15T09:37:07.695Z,12,GR86-028-89,7.5,0.047,0.282,100.0,5.0,6944.0,0.0,0.0,204.64
2025-08-15T09:37:07.738Z,12,GR86-028-89,6.5,0.052,0.262,100.0,5.0,,0.0,0.0,
2025-08-15T09:37:07.781Z,12,GR86-028-89,6.4,0.034,0.24,100.0,5.0,,0.0,0.0,
2025-08-15T09:37:07.826Z,12,GR86-028-89,6.4,0.032,0.242,100.0,5.0,,0.0,0.0,
2025-08-15T09:37:07.869Z,12,GR86-028-89,6.4,0.039,0.242,100.0,5.0,6957.0,0.0,0.0,
2025-08-15T09:37:07.912Z,12,GR86-028-89,6.1000000000000005,0.06,0.251,99.99,5.0,,0.0,0.0,205.11
2025-08-15T09:37:07.955Z,12,GR86-028-89,5.7,0.028,0.251,100.0,5.0,,0.0,0.0,
2025-08-15T09:37:07.998Z,12,GR86-028-89,5.6000000000000005,0.042,0.264,99.97,5.0,,0.0,0.0,
2025-08-15T09:37:08.041Z,12,GR86-028-89,5.5,0.038,0.265,99.99,5.0,,0.0,0.0,
2025-08-15T09:37:08.086Z,12,GR86-028-89,5.7,0.072,0.258,99.98,5.0,6995.0,0.0,0.0,
2025-08-15T09:37:08.128Z,12,GR86-028-89,5.9,0.058,0.245,99.97,5.0,,0.0,0.0,206.03
2025-08-15T09:37:08.171Z,12,GR86-028-89,5.6000000000000005,0.059,0.224,99.98,5.0,,0.0,0.0,
2025-08-15T09:37:08.216Z,12,GR86-028-89,3.9,0.073,0.165,99.99,5.0,,0.0,0.0,
2025-08-15T09:37:08.259Z,12,GR86-028-89,3.2,0.048,0.128,100.0,5.0,,0.0,0.0,
2025-08-15T09:37:08.302Z,12,GR86-028-89,3.2,0.057,0.103,99.99,5.0,6992.0,0.0,0.0,
2025-08-15T09:37:08.345Z,12,GR86-028-89,3.5,0.027,0.083,100.01,5.0,,0.0,0.0,206.63
2025-08-15T09:37:08.388Z,12,GR86-028-89,3.6,0.034,0.108,100.01,5.0,,0.0,0.0,
2025-08-15T09:37:08.431Z,12,GR86-028-89,3.7,0.021,0.102,100.0,5.0,,0.0,0.0,
2025-08-15T09:37:08.475Z,12,GR86-028-89,4.9,0.022,0.086,99.97,5.0,,0.0,0.0,
2025-08-15T09:37:08.518Z,12,GR86-028-89,6.0,0.045,0.099,100.0,5.0,7026.0,0.0,0.0,
2025-08-15T09:37:08.561Z,12,GR86-028-89,6.4,0.021,0.125,99.97,5.0,,0.0,0.0,207.02
2025-08-15T09:37:08.605Z,12,GR86-028-89,6.4,0.032,0.158,99.99,5.0,,0.0,0.0,
2025-08-15T09:37:08.648Z,12,GR86-028-89,6.2,0.048,0.16,99.98,5.0,,0.0,0.0,
2025-08-15T09:37:08.691Z,12,GR86-028-89,5.9,0.071,0.16,99.98,5.0,,0.0,0.0,
2025-08-15T09:37:08.736Z,12,GR86-028-89,5.5,0.043,0.23,99.98,5.0,7054.0,0.0,0.0,
2025-08-15T09:37:08.779Z,12,GR86-028-89,5.0,0.058,0.242,99.99,5.0,,0.0,0.0,207.47
2025-08-15T09:37:08.822Z,12,GR86-028-89,4.6000000000000005,0.053,0.242,99.97,5.0,,0.0,0.0,
2025-08-15T09:37:08.866Z,12,GR86-028-89,4.4,0.054,0.226,99.99,5.0,,0.0,0.0,
2025-08-15T09:37:08.908Z,12,GR86-028-89,4.2,0.038,0.215,99.98,5.0,,0.0,0.0,
2025-08-15T09:37:08.951Z,12,GR86-028-89,3.9,0.023,0.192,99.99,5.0,7066.0,0.0,0.0,
2025-08-15T09:37:08.995Z,12,GR86-028-89,3.7,0.042,0.152,100.0,5.0,,0.0,0.0,208.07
2025-08-15T09:37:09.038Z,12,GR86-028-89,3.9,0.019,0.133,99.97,5.0,,0.0,0.0,
2025-08-15T09:37:09.081Z,12,GR86-028-89,4.7,0.015,0.117,99.99,5.0,,0.0,0.0,
2025-08-15T09:37:09.126Z,12,GR86-028-89,6.5,0.027,0.131,99.87,5.0,,0.0,0.0,
2025-08-15T09:37:09.169Z,12,GR86-028-89,8.3,0.04,0.114,53.42,5.0,7085.0,0.0,0.0,
2025-08-15T09:37:09.212Z,12,GR86-028-89,9.4,0.039,0.147,17.88,5.0,,0.0,0.0,208.69
2025-08-15T09:37:09.255Z,12,GR86-028-89,10.0,-0.013,0.174,4.09,5.0,,0.0,0.0,
2025-08-15T09:37:09.298Z,12,GR86-028-89,10.5,-0.213,0.245,3.79,5.0,,0.0,0.0,
2025-08-15T09:37:09.341Z,12,GR86-028-89,11.2,-0.245,0.311,3.42,5.0,,0.0,0.0,
2025-08-15T09:37:09.385Z,12,GR86-028-89,10.8,-0.372,0.323,3.21,5.0,6857.0,0.0,0.0,
2025-08-15T09:37:09.427Z,12,GR86-028-89,8.4,-0.199,0.392,3.0,5.0,,0.0,0.0,209.25
2025-08-15T09:37:09.470Z,12,GR86-028-89,5.1000000000000005,-0.194,0.354,2.87,5.0,,0.0,0.0,
2025-08-15T09:37:09.516Z,12,GR86-028-89,2.3000000000000003,-0.254,0.312,2.75,5.0,,0.0,0.0,
2025-08-15T09:37:09.558Z,12,GR86-028-89,2.5,-0.222,0.27,2.7,5.0,,0.0,0.0,
2025-08-15T09:37:09.601Z,12,GR86-028-89,3.6,-0.217,0.187,2.66,5.0,6924.0,0.0,0.0,
2025-08-15T09:37:09.645Z,12,GR86-028-89,4.800000000000001,-0.25,0.187,2.62,5.0,,0.0,0.0,209.03
2025-08-15T09:37:09.687Z,12,GR86-028-89,5.9,-0.257,0.128,2.61,5.0,,3.22,3.34,
2025-08-15T09:37:09.730Z,12,GR86-028-89,6.5,-0.234,0.088,2.59,5.0,,2.73,2.76,
2025-08-15T09:37:09.775Z,12,GR86-028-89,6.5,-0.265,0.094,2.57,5.0,,5.86,6.12,
2025-08-15T09:37:09.818Z,12,GR86-028-89,6.5,-0.327,0.091,2.57,5.0,6924.0,13.2,13.49,
2025-08-15T09:37:09.861Z,12,GR86-028-89,6.2,-0.437,0.101,2.54,5.0,,18.92,19.045,207.84
2025-08-15T09:37:09.905Z,12,GR86-028-89,5.5,-0.495,0.129,2.52,5.0,,20.695,20.935,
2025-08-15T09:37:09.947Z,12,GR86-028-89,5.4,-0.506,0.122,2.54,5.0,,20.875,21.305,
2025-08-15T09:37:09.990Z,12,GR86-028-89,6.5,-0.529,0.153,2.53,5.0,,22.585,22.875,
2025-08-15T09:37:10.036Z,12,GR86-028-89,8.4,-0.639,0.223,2.52,5.0,6823.0,30.55,30.4,
2025-08-15T09:37:10.078Z,12,GR86-028-89,8.8,-0.723,0.243,2.5,5.0,,36.21,36.275,206.22
2025-08-15T09:37:10.121Z,12,GR86-028-89,8.8,-0.789,0.243,2.5,5.0,,43.49,43.46,
2025-08-15T09:37:10.166Z,12,GR86-028-89,7.9,-0.958,0.246,2.5,5.0,,54.175,53.9,
2025-08-15T09:37:10.208Z,12,GR86-028-89,5.9,-1.14,0.27,2.5,5.0,,65.83,65.525,
2025-08-15T09:37:10.251Z,12,GR86-028-89,2.9000000000000004,-1.297,0.277,2.49,5.0,6673.0,74.41,74.18,
2025-08-15T09:37:10.295Z,12,GR86-028-89,0.0,-1.359,0.255,2.51,5.0,,78.27,79.995,202.64
2025-08-15T09:37:10.338Z,12,GR86-028-89,-0.9,-1.402,0.315,2.49,5.0,,75.84,77.275,
2025-08-15T09:37:10.381Z,12,GR86-028-89,-1.2000000000000002,-1.346,0.306,2.5,5.0,,68.21000000000001,69.435,
2025-08-15T09:37:10.427Z,12,GR86-028-89,-1.8,-1.18,0.293,2.49,5.0,,60.23,62.125,
2025-08-15T09:37:10.469Z,12,GR86-028-89,-3.7,-1.198,0.393,2.5,5.0,6166.0,54.05,54.89,
2025-08-15T09:37:10.512Z,12,GR86-028-89,-4.7,-1.097,0.386,2.49,5.0,,50.785,51.595,195.53
2025-08-15T09:37:10.555Z,12,GR86-028-89,-4.9,-1.017,0.356,2.49,5.0,,51.625,52.585,
2025-08-15T09:37:10.598Z,12,GR86-028-89,-4.0,-1.081,0.371,2.49,5.0,,51.535,52.28,
2025-08-15T09:37:10.641Z,12,GR86-028-89,-3.0,-1.144,0.3,2.5,5.0,,52.495000000000005,53.61,
2025-08-15T09:37:10.686Z,12,GR86-028-89,-1.4,-1.113,0.236,2.5,5.0,5758.0,55.075,56.585,
2025-08-15T09:37:10.729Z,12,GR86-028-89,-0.1,-1.086,0.193,22.28,5.0,,57.3,58.28,180.09
2025-08-15T09:37:10.772Z,12,GR86-028-89,1.2000000000000002,-1.169,0.149,69.21000000000001,5.0,,57.41,57.715,
2025-08-15T09:37:10.816Z,12,GR86-028-89,4.7,-1.167,0.084,81.76,4.0,,57.620000000000005,57.99,
2025-08-15T09:37:10.858Z,12,GR86-028-89,6.5,-1.137,0.007,8.85,4.0,,59.835,60.795,
2025-08-15T09:37:10.901Z,12,GR86-028-89,7.7,-1.217,0.11,3.16,4.0,5837.0,66.885,68.5,
2025-08-15T09:37:10.945Z,12,GR86-028-89,7.9,-1.262,-0.03,2.78,4.0,,72.895,73.69,172.07
2025-08-15T09:37:10.987Z,12,GR86-028-89,7.7,-1.412,0.033,2.68,4.0,,76.805,77.61,
2025-08-15T09:37:11.031Z,12,GR86-028-89,7.7,-1.205,0.123,2.63,4.0,,80.83,82.68,
2025-08-15T09:37:11.075Z,12,GR86-028-89,8.1,-1.182,0.041,2.59,4.0,,80.16,80.865,
2025-08-15T09:37:11.118Z,12,GR86-028-89,8.200000000000001,-1.254,0.147,2.57,4.0,6018.0,79.275,80.435,
2025-08-15T09:37:11.161Z,12,GR86-028-89,7.5,-1.318,0.115,2.56,4.0,,77.92,79.69,163.68
2025-08-15T09:37:11.205Z,12,GR86-028-89,6.6000000000000005,-1.285,0.18,2.56,4.0,,76.53,78.39,
2025-08-15T09:37:11.247Z,12,GR86-028-89,5.7,-1.302,0.272,8.31,4.0,,74.375,74.83500000000001,
2025-08-15T09:37:11.290Z,12,GR86-028-89,5.0,-1.317,0.229,53.15,4.0,,72.99,73.265,
2025-08-15T09:37:11.335Z,12,GR86-028-89,1.1,-1.256,0.323,87.42,3.0,5739.0,66.64,68.15,
2025-08-15T09:37:11.378Z,12,GR86-028-89,-2.1,-1.191,0.177,16.7,3.0,,59.055,61.085,155.58
2025-08-15T09:37:11.421Z,12,GR86-028-89,-4.1000000000000005,-1.113,0.279,3.16,3.0,,53.305,55.01,
2025-08-15T09:37:11.466Z,12,GR86-028-89,-4.4,-1.093,0.258,2.81,3.0,,49.9,50.97,
2025-08-15T09:37:11.508Z,12,GR86-028-89,-3.7,-1.22,0.245,2.68,3.0,,46.77,47.765,
2025-08-15T09:37:11.551Z,12,GR86-028-89,-3.7,-0.961,0.343,2.62,3.0,6176.0,45.0,46.465,
2025-08-15T09:37:11.595Z,12,GR86-028-89,-3.8,-0.862,0.331,2.58,3.0,,41.25,42.15,148.45000000000002
2025-08-15T09:37:11.638Z,12,GR86-028-89,-4.0,-1.09,0.339,2.56,3.0,,40.805,41.935,
2025-08-15T09:37:11.681Z,12,GR86-028-89,-3.5,-1.061,0.195,2.5500000000000003,3.0,,41.585,42.805,
2025-08-15T09:37:11.726Z,12,GR86-028-89,-2.5,-0.959,0.148,2.5500000000000003,3.0,,43.49,44.025,
2025-08-15T09:37:11.769Z,12,GR86-028-89,-0.1,-1.012,0.166,2.53,3.0,6297.0,46.435,46.895,
2025-08-15T09:37:11.812Z,12,GR86-028-89,4.4,-1.147,0.054,18.06,3.0,,49.7,49.93,141.42000000000002
2025-08-15T09:37:11.855Z,12,GR86-028-89,9.6,-1.133,0.127,89.46000000000001,3.0,,53.545,53.93,
2025-08-15T09:37:11.898Z,12,GR86-028-89,10.3,-1.145,0.131,87.62,2.0,,54.74,55.18,
2025-08-15T09:37:11.941Z,12,GR86-028-89,9.2,-1.2,0.027,15.29,2.0,,55.575,56.585,
2025-08-15T09:37:11.986Z,12,GR86-028-89,7.5,-1.161,0.265,3.17,2.0,5938.0,57.56,59.3,
2025-08-15T09:37:12.028Z,12,GR86-028-89,7.0,-1.274,0.005,2.77,2.0,,59.025,59.865,134.55
2025-08-15T09:37:12.071Z,12,GR86-028-89,7.2,-1.399,0.098,2.68,2.0,,59.15,60.370000000000005,
2025-08-15T09:37:12.116Z,12,GR86-028-89,8.6,-1.064,0.136,2.62,2.0,,63.115,64.67,
2025-08-15T09:37:12.159Z,12,GR86-028-89,9.2,-1.038,0.175,2.59,2.0,,63.59,64.52,
2025-08-15T09:37:12.202Z,12,GR86-028-89,8.4,-1.252,0.361,2.56,2.0,6761.0,64.81,66.135,
2025-08-15T09:37:12.245Z,12,GR86-028-89,8.1,-1.181,0.216,2.5500000000000003,2.0,,64.99,66.395,127.02
2025-08-15T09:37:12.288Z,12,GR86-028-89,7.5,-1.136,0.273,2.54,2.0,,62.565000000000005,64.33500000000001,
2025-08-15T09:37:12.331Z,12,GR86-028-89,7.0,-1.075,0.37,2.54,2.0,,59.27,60.855,
2025-08-15T09:37:12.375Z,12,GR86-028-89,8.4,-1.076,0.229,2.52,2.0,,54.83,56.555,
2025-08-15T09:37:12.418Z,12,GR86-028-89,8.5,-1.085,0.356,2.53,2.0,6496.0,51.305,53.0,
2025-08-15T09:37:12.461Z,12,GR86-028-89,8.1,-1.049,0.307,24.88,2.0,,46.65,48.205,118.98
2025-08-15T09:37:12.505Z,12,GR86-028-89,7.7,-0.942,0.269,72.11,2.0,,39.815,41.37,
2025-08-15T09:37:12.548Z,12,GR86-028-89,7.6,-0.892,0.344,99.18,1.0,,34.0,35.205,
2025-08-15T09:37:12.591Z,12,GR86-028-89,8.1,-0.735,0.284,47.69,1.0,,31.145,32.410000000000004,
2025-08-15T09:37:12.636Z,12,GR86-028-89,8.9,-1.123,0.304,3.1,1.0,6075.0,32.81,33.875,
2025-08-15T09:37:12.678Z,12,GR86-028-89,12.2,-1.03,0.277,2.75,1.0,,34.9,36.21,112.48
2025-08-15T09:37:12.721Z,12,GR86-028-89,17.900000000000002,-0.877,0.203,2.66,1.0,,34.93,35.555,
2025-08-15T09:37:12.766Z,12,GR86-028-89,22.4,-1.089,0.477,2.62,1.0,,34.93,36.15,
2025-08-15T09:37:12.808Z,12,GR86-028-89,25.4,-0.973,0.407,2.56,1.0,,35.115,36.03,
2025-08-15T09:37:12.851Z,12,GR86-028-89,28.1,-1.01,0.471,2.54,1.0,6676.0,33.875,34.685,
2025-08-15T09:37:12.895Z,12,GR86-028-89,33.0,-0.929,0.658,2.52,1.0,,33.875,34.49,105.94
2025-08-15T09:37:12.938Z,12,GR86-028-89,41.400000000000006,-0.852,0.547,2.53,1.0,,34.245,34.625,
2025-08-15T09:37:12.981Z,12,GR86-028-89,50.2,-0.843,0.843,2.5,1.0,,33.910000000000004,34.595,
2025-08-15T09:37:13.027Z,12,GR86-028-89,58.3,-0.773,0.8250000000000001,2.5,1.0,,32.38,33.345,
2025-08-15T09:37:13.070Z,12,GR86-028-89,64.5,-0.783,0.781,2.49,1.0,7010.0,31.115,32.17,
2025-08-15T09:37:13.116Z,12,GR86-028-89,68.9,-0.664,1.136,2.48,1.0,,30.365,31.205,94.59
2025-08-15T09:37:13.158Z,12,GR86-028-89,68.9,-0.715,0.949,2.47,1.0,,28.995,29.77,
2025-08-15T09:37:13.201Z,12,GR86-028-89,68.7,-0.68,0.983,2.48,1.0,,27.59,28.58,
2025-08-15T09:37:13.245Z,12,GR86-028-89,67.5,-0.669,1.099,2.46,1.0,,23.15,24.2,
2025-08-15T09:37:13.287Z,12,GR86-028-89,66.4,-0.594,1.08,2.47,1.0,6607.0,14.725,15.43,
2025-08-15T09:37:13.330Z,12,GR86-028-89,66.5,-0.391,1.116,2.48,1.0,,7.08,7.735,90.29
2025-08-15T09:37:13.375Z,12,GR86-028-89,66.9,-0.285,1.144,2.47,1.0,,0.0,0.0,
2025-08-15T09:37:13.418Z,12,GR86-028-89,67.10000000000001,-0.249,1.138,2.48,1.0,,0.0,0.0,
2025-08-15T09:37:13.461Z,12,GR86-028-89,67.4,-0.209,1.184,2.49,1.0,,0.0,0.0,
2025-08-15T09:37:13.505Z,12,GR86-028-89,69.2,-0.188,1.134,2.47,1.0,6216.0,0.0,0.0,
2025-08-15T09:37:13.548Z,12,GR86-028-89,74.3,-0.197,1.171,2.47,1.0,,0.0,0.0,87.42
2025-08-15T09:37:13.591Z,12,GR86-028-89,77.9,-0.181,1.168,2.48,1.0,,0.0,0.0,
2025-08-15T09:37:13.636Z,12,GR86-028-89,79.7,-0.188,1.188,8.15,1.0,,0.0,0.0,
2025-08-15T09:37:13.678Z,12,GR86-028-89,79.10000000000001,-0.188,1.22,16.16,1.0,,0.0,0.0,
2025-08-15T09:37:13.766Z,12,GR86-028-89,72.60000000000001,-0.169,1.187,29.56,1.0,6011.0,0.0,0.0,85.31
2025-08-15T09:37:13.808Z,12,GR86-028-89,71.5,-0.161,1.188,30.88,1.0,,0.0,0.0,
2025-08-15T09:37:13.851Z,12,GR86-028-89,72.10000000000001,-0.068,1.178,31.36,1.0,,0.0,0.0,
2025-08-15T09:37:13.895Z,12,GR86-028-89,74.4,-0.036,1.24,32.85,1.0,,0.0,0.0,
2025-08-15T09:37:13.938Z,12,GR86-028-89,76.4,0.216,1.23,32.92,1.0,6392.0,0.0,0.0,
2025-08-15T09:37:13.981Z,12,GR86-028-89,82.10000000000001,0.229,1.133,33.0,1.0,,0.0,0.0,83.92
2025-08-15T09:37:14.027Z,12,GR86-028-89,84.80000000000001,0.261,1.11,33.07,1.0,,0.0,0.0,
2025-08-15T09:37:14.070Z,12,GR86-028-89,85.7,0.255,1.14,33.38,1.0,,0.0,0.0,
2025-08-15T09:37:14.116Z,12,GR86-028-89,85.5,0.216,1.215,34.02,1.0,,0.0,0.0,
2025-08-15T09:37:14.159Z,12,GR86-028-89,85.7,0.139,1.253,34.44,1.0,6357.0,0.0,0.0,
2025-08-15T09:37:14.202Z,12,GR86-028-89,86.5,0.147,1.217,34.53,1.0,,0.0,0.0,83.48
2025-08-15T09:37:14.245Z,12,GR86-028-89,87.2,0.168,1.309,34.56,1.0,,0.0,0.0,
2025-08-15T09:37:14.288Z,12,GR86-028-89,87.9,0.19,1.308,34.480000000000004,1.0,,0.0,0.0,
2025-08-15T09:37:14.331Z,12,GR86-028-89,88.10000000000001,0.156,1.263,33.9,1.0,,0.0,0.0,
2025-08-15T09:37:14.375Z,12,GR86-028-89,88.10000000000001,0.23,1.195,33.29,1.0,6450.0,0.0,0.0,
2025-08-15T09:37:14.418Z,12,GR86-028-89,87.9,0.176,1.271,33.230000000000004,1.0,,0.0,0.0,84.24
2025-08-15T09:37:14.461Z,12,GR86-028-89,87.60000000000001,0.171,1.281,33.15,1.0,,0.0,0.0,
2025-08-15T09:37:14.505Z,12,GR86-028-89,86.7,0.104,1.106,33.01,1.0,,0.0,0.0,
2025-08-15T09:37:14.547Z,12,GR86-028-89,86.0,0.125,1.236,33.04,1.0,,0.0,0.0,
2025-08-15T09:37:14.590Z,12,GR86-028-89,83.80000000000001,0.122,1.06,33.05,1.0,6504.0,0.0,0.0,
2025-08-15T09:37:14.635Z,12,GR86-028-89,81.80000000000001,0.135,1.072,33.2,1.0,,0.0,0.0,85.23
2025-08-15T09:37:14.678Z,12,GR86-028-89,80.7,0.169,1.071,33.01,1.0,,0.0,0.0,
2025-08-15T09:37:14.721Z,12,GR86-028-89,80.30000000000001,0.217,1.092,32.65,1.0,,0.0,0.0,
2025-08-15T09:37:14.765Z,12,GR86-028-89,80.4,0.191,1.131,32.660000000000004,1.0,,0.0,0.0,
2025-08-15T09:37:14.808Z,12,GR86-028-89,83.10000000000001,0.076,1.095,32.56,1.0,6722.0,0.0,0.0,
2025-08-15T09:37:14.851Z,12,GR86-028-89,88.0,0.078,1.182,31.65,1.0,,0.0,0.0,85.85000000000001
2025-08-15T09:37:14.895Z,12,GR86-028-89,99.7,0.221,1.46,29.13,1.0,,0.0,0.0,
2025-08-15T09:37:14.938Z,12,GR86-028-89,104.9,0.288,1.134,22.55,1.0,,0.0,0.0,
2025-08-15T09:37:14.981Z,12,GR86-028-89,105.9,0.141,1.19,17.31,1.0,,0.0,0.0,
2025-08-15T09:37:15.027Z,12,GR86-028-89,106.0,-0.031,1.326,19.03,1.0,6829.0,0.0,0.0,
2025-08-15T09:37:15.069Z,12,GR86-028-89,106.5,0.087,0.965,10.12,1.0,,0.0,0.0,86.79
2025-08-15T09:37:15.112Z,12,GR86-028-89,106.1,-0.235,1.266,21.14,1.0,,0.0,0.0,
2025-08-15T09:37:15.156Z,12,GR86-028-89,105.5,-0.106,1.478,30.39,1.0,,0.0,0.0,
2025-08-15T09:37:15.198Z,12,GR86-028-89,105.4,0.043,1.339,31.06,1.0,,0.0,0.0,
2025-08-15T09:37:15.241Z,12,GR86-028-89,104.1,-0.071,1.349,31.89,1.0,6591.0,0.0,0.0,
2025-08-15T09:37:15.286Z,12,GR86-028-89,102.5,0.039,1.211,32.21,1.0,,0.0,0.0,87.31
2025-08-15T09:37:15.328Z,12,GR86-028-89,102.5,0.108,1.16,32.34,1.0,,0.0,0.0,
2025-08-15T09:37:15.371Z,12,GR86-028-89,102.8,0.199,1.134,32.78,1.0,,0.0,0.0,
2025-08-15T09:37:15.416Z,12,GR86-028-89,103.1,0.207,1.157,33.33,1.0,,0.0,0.0,
2025-08-15T09:37:15.459Z,12,GR86-028-89,103.2,0.21,1.117,33.35,1.0,6613.0,0.0,0.0,
2025-08-15T09:37:15.502Z,12,GR86-028-89,103.2,0.155,1.094,33.29,1.0,,0.0,0.0,87.41
2025-08-15T09:37:15.545Z,12,GR86-028-89,103.1,0.157,1.081,33.27,1.0,,0.0,0.0,
2025-08-15T09:37:15.588Z,12,GR86-028-89,102.5,0.137,1.17,33.36,1.0,,0.0,0.0,
2025-08-15T09:37:15.631Z,12,GR86-028-89,102.4,0.15,1.116,33.42,1.0,,0.0,0.0,
2025-08-15T09:37:15.675Z,12,GR86-028-89,100.2,0.194,1.166,33.56,1.0,6622.0,0.0,0.0,
2025-08-15T09:37:15.718Z,12,GR86-028-89,96.5,0.171,1.207,34.77,1.0,,0.0,0.0,88.04
2025-08-15T09:37:15.761Z,12,GR86-028-89,91.8,0.163,1.162,36.41,1.0,,0.0,0.0,
2025-08-15T09:37:15.805Z,12,GR86-028-89,88.0,0.161,1.228,38.09,1.0,,0.0,0.0,
2025-08-15T09:37:15.848Z,12,GR86-028-89,81.30000000000001,0.186,1.245,38.99,1.0,,0.0,0.0,
2025-08-15T09:37:15.891Z,12,GR86-028-89,76.2,0.202,1.207,39.16,1.0,6734.0,0.0,0.0,
2025-08-15T09:37:15.936Z,12,GR86-028-89,66.5,0.227,1.15,39.17,1.0,,0.0,0.0,89.27
2025-08-15T09:37:15.979Z,12,GR86-028-89,60.2,0.239,1.136,39.65,1.0,,0.0,0.0,
2025-08-15T09:37:16.022Z,12,GR86-028-89,54.8,0.233,1.11,42.52,1.0,,0.0,0.0,
2025-08-15T09:37:16.066Z,12,GR86-028-89,48.3,0.182,1.174,49.15,1.0,,0.0,0.0,
2025-08-15T09:37:16.108Z,12,GR86-028-89,43.400000000000006,0.224,0.918,54.68,1.0,6831.0,0.0,0.0,
2025-08-15T09:37:16.151Z,12,GR86-028-89,36.6,0.181,0.953,61.82,1.0,,0.0,0.0,90.35
2025-08-15T09:37:16.195Z,12,GR86-028-89,31.200000000000003,0.271,0.667,98.41,1.0,,0.0,0.0,
2025-08-15T09:37:16.238Z,12,GR86-028-89,26.1,0.207,0.946,100.04,1.0,,0.0,0.0,
2025-08-15T09:37:16.281Z,12,GR86-028-89,24.6,0.363,0.94,100.08,1.0,,0.0,0.0,
2025-08-15T09:37:16.326Z,12,GR86-028-89,24.8,0.417,0.715,100.08,1.0,7182.0,0.0,0.0,
2025-08-15T09:37:16.369Z,12,GR86-028-89,25.3,0.274,0.497,100.08,1.0,,0.0,0.0,91.6
2025-08-15T09:37:16.412Z,12,GR86-028-89,26.0,0.091,0.357,100.07,1.0,,0.0,0.0,
2025-08-15T09:37:16.455Z,12,GR86-028-89,24.9,0.456,0.627,100.09,1.0,,0.0,0.0,
2025-08-15T09:37:16.498Z,12,GR86-028-89,22.700000000000003,0.067,0.177,100.09,1.0,,0.0,0.0,
2025-08-15T09:37:16.541Z,12,GR86-028-89,20.1,-0.134,0.558,100.07,1.0,7300.0,0.0,0.0,
2025-08-15T09:37:16.627Z,12,GR86-028-89,17.1,0.348,0.88,100.07,1.0,,0.0,0.0,92.34
2025-08-15T09:37:16.670Z,12,GR86-028-89,12.3,0.638,0.887,100.1,1.0,,0.0,0.0,
2025-08-15T09:37:16.716Z,12,GR86-028-89,4.4,0.176,1.032,100.09,1.0,,0.0,0.0,
2025-08-15T09:37:16.758Z,12,GR86-028-89,0.3,0.387,1.036,100.05,1.0,7284.0,0.0,0.0,
2025-08-15T09:37:16.801Z,12,GR86-028-89,0.4,0.346,1.313,100.04,1.0,,0.0,0.0,93.5
2025-08-15T09:37:16.845Z,12,GR86-028-89,-0.3,0.123,1.071,100.07,2.0,,0.0,0.0,
2025-08-15T09:37:16.887Z,12,GR86-028-89,-6.300000000000001,-0.055,0.771,100.07,2.0,,0.0,0.0,
2025-08-15T09:37:16.930Z,12,GR86-028-89,-9.4,0.5720000000000001,0.61,100.06,2.0,,0.0,0.0,
2025-08-15T09:37:16.975Z,12,GR86-028-89,-1.5,0.715,0.316,100.05,2.0,6776.0,0.0,0.0,
2025-08-15T09:37:17.017Z,12,GR86-028-89,5.2,0.301,0.282,100.06,2.0,,0.0,0.0,95.0
2025-08-15T09:37:17.060Z,12,GR86-028-89,16.5,-0.072,0.001,100.05,2.0,,0.0,0.0,
2025-08-15T09:37:17.105Z,12,GR86-028-89,25.0,-0.084,0.052,100.05,2.0,,0.0,0.0,
2025-08-15T09:37:17.147Z,12,GR86-028-89,31.700000000000003,0.251,0.177,100.05,2.0,,0.0,0.0,
2025-08-15T09:37:17.190Z,12,GR86-028-89,34.5,0.479,0.038,100.06,2.0,5710.0,0.0,0.0,
2025-08-15T09:37:17.236Z,12,GR86-028-89,32.4,-0.034,-0.014,100.05,2.0,,0.0,0.0,96.49
2025-08-15T09:37:17.278Z,12,GR86-028-89,30.200000000000003,0.137,-0.007,100.04,2.0,,0.0,0.0,
2025-08-15T09:37:17.321Z,12,GR86-028-89,28.700000000000003,0.223,0.256,100.04,2.0,,0.0,0.0,
2025-08-15T09:37:17.366Z,12,GR86-028-89,26.6,0.326,0.223,100.04,2.0,,0.0,0.0,
2025-08-15T09:37:17.408Z,12,GR86-028-89,24.1,0.51,0.346,100.05,2.0,5798.0,0.0,0.0,
2025-08-15T09:37:17.451Z,12,GR86-028-89,22.200000000000003,0.552,0.344,100.05,2.0,,0.0,0.0,98.63
2025-08-15T09:37:17.495Z,12,GR86-028-89,17.400000000000002,0.1,0.378,100.05,2.0,,0.0,0.0,
2025-08-15T09:37:17.538Z,12,GR86-028-89,15.0,0.189,0.43,100.04,2.0,,0.0,0.0,
2025-08-15T09:37:17.581Z,12,GR86-028-89,12.9,0.329,0.385,100.06,2.0,,0.0,0.0,
2025-08-15T09:37:17.627Z,12,GR86-028-89,10.0,0.492,0.355,100.05,2.0,5950.0,0.0,0.0,
2025-08-15T09:37:17.669Z,12,GR86-028-89,6.5,0.505,0.305,100.05,2.0,,0.0,0.0,100.67
2025-08-15T09:37:17.712Z,12,GR86-028-89,2.1,0.509,0.247,100.06,2.0,,0.0,0.0,
2025-08-15T09:37:17.755Z,12,GR86-028-89,-2.7,0.251,0.281,100.02,2.0,,0.0,0.0,
2025-08-15T09:37:17.798Z,12,GR86-028-89,-4.4,0.35,0.31,100.03,2.0,,0.0,0.0,
2025-08-15T09:37:17.841Z,12,GR86-028-89,-5.7,0.463,0.364,100.04,2.0,6082.0,0.0,0.0,
2025-08-15T09:37:17.886Z,12,GR86-028-89,-6.5,0.373,0.2,100.04,2.0,,0.0,0.0,102.26
2025-08-15T09:37:17.929Z,12,GR86-028-89,-6.6000000000000005,0.395,0.132,100.04,2.0,,0.0,0.0,
2025-08-15T09:37:17.972Z,12,GR86-028-89,-6.5,0.378,0.042,100.04,2.0,,0.0,0.0,
2025-08-15T09:37:18.016Z,12,GR86-028-89,-6.6000000000000005,0.139,-0.071,100.03,2.0,,0.0,0.0,
2025-08-15T09:37:18.058Z,12,GR86-028-89,-5.9,0.222,-0.134,100.03,2.0,6056.0,0.0,0.0,
2025-08-15T09:37:18.101Z,12,GR86-028-89,-5.9,0.25,-0.266,100.06,2.0,,0.0,0.0,104.11
2025-08-15T09:37:18.145Z,12,GR86-028-89,-6.4,0.301,-0.256,100.04,2.0,,0.0,0.0,
2025-08-15T09:37:18.187Z,12,GR86-028-89,-6.9,0.306,-0.316,100.04,2.0,,0.0,0.0,
2025-08-15T09:37:18.231Z,12,GR86-028-89,-6.9,0.354,-0.301,100.04,2.0,,0.0,0.0,
2025-08-15T09:37:18.275Z,12,GR86-028-89,-7.2,0.205,-0.289,100.04,2.0,6186.0,0.0,0.0,
2025-08-15T09:37:18.318Z,12,GR86-028-89,-8.0,0.261,-0.259,100.03,2.0,,0.0,0.0,107.56
2025-08-15T09:37:18.361Z,12,GR86-028-89,-9.1,0.25,-0.278,100.02,2.0,,0.0,0.0,
2025-08-15T09:37:18.405Z,12,GR86-028-89,-9.3,0.282,-0.274,100.01,2.0,,0.0,0.0,
2025-08-15T09:37:18.447Z,12,GR86-028-89,-8.0,0.246,-0.257,100.04,2.0,,0.0,0.0,
2025-08-15T09:37:18.490Z,12,GR86-028-89,-5.6000000000000005,0.245,-0.254,100.03,2.0,6248.0,0.0,0.0,
2025-08-15T09:37:18.535Z,12,GR86-028-89,-2.7,0.27,-0.163,100.03,2.0,,0.0,0.0,109.17
2025-08-15T09:37:18.578Z,12,GR86-028-89,-2.5,0.27,-0.166,100.03,2.0,,0.0,0.0,
2025-08-15T09:37:18.621Z,12,GR86-028-89,-2.3000000000000003,0.243,-0.148,100.04,2.0,,0.0,0.0,
2025-08-15T09:37:18.666Z,12,GR86-028-89,-1.6,0.279,-0.099,100.03,2.0,,0.0,0.0,
2025-08-15T09:37:18.708Z,12,GR86-028-89,-1.2000000000000002,0.23,-0.09,100.02,2.0,6320.0,0.0,0.0,
2025-08-15T09:37:18.751Z,12,GR86-028-89,-1.0,0.271,-0.05,100.05,2.0,,0.0,0.0,110.76
2025-08-15T09:37:18.795Z,12,GR86-028-89,-0.9,0.292,-0.021,100.02,2.0,,0.0,0.0,
2025-08-15T09:37:18.838Z,12,GR86-028-89,-1.6,0.253,-0.038,100.03,2.0,,0.0,0.0,
2025-08-15T09:37:18.881Z,12,GR86-028-89,-2.5,0.236,-0.054,100.0,2.0,,0.0,0.0,
2025-08-15T09:37:18.926Z,12,GR86-028-89,-2.6,0.281,-0.044,100.04,2.0,6507.0,0.0,0.0,
2025-08-15T09:37:18.969Z,12,GR86-028-89,-2.0,0.237,-0.072,100.02,2.0,,0.0,0.0,112.33
2025-08-15T09:37:19.012Z,12,GR86-028-89,-0.9,0.266,-0.073,100.03,2.0,,0.0,0.0,
2025-08-15T09:37:19.055Z,12,GR86-028-89,1.0,0.277,-0.06,100.04,2.0,,0.0,0.0,
2025-08-15T09:37:19.098Z,12,GR86-028-89,2.3000000000000003,0.248,-0.051,100.0,2.0,,0.0,0.0,
2025-08-15T09:37:19.141Z,12,GR86-028-89,3.4000000000000004,0.226,-0.047,100.03,2.0,6574.0,0.0,0.0,
2025-08-15T09:37:19.186Z,12,GR86-028-89,3.8,0.292,-0.002,100.05,2.0,,0.0,0.0,113.82
2025-08-15T09:37:19.228Z,12,GR86-028-89,3.6,0.242,0.006,100.01,2.0,,0.0,0.0,
2025-08-15T09:37:19.271Z,12,GR86-028-89,3.5,0.249,0.02,100.02,2.0,,0.0,0.0,
2025-08-15T09:37:19.316Z,12,GR86-028-89,3.6,0.248,0.049,100.04,2.0,,0.0,0.0,
2025-08-15T09:37:19.358Z,12,GR86-028-89,3.7,0.281,0.071,100.04,2.0,6658.0,0.0,0.0,
2025-08-15T09:37:19.401Z,12,GR86-028-89,4.3,0.249,0.058,100.02,2.0,,0.0,0.0,115.26
2025-08-15T09:37:19.445Z,12,GR86-028-89,5.5,0.258,0.081,100.02,2.0,,0.0,0.0,
2025-08-15T09:37:19.487Z,12,GR86-028-89,6.300000000000001,0.265,0.102,100.04,2.0,,0.0,0.0,
2025-08-15T09:37:19.530Z,12,GR86-028-89,4.7,0.235,0.101,100.04,2.0,,0.0,0.0,
2025-08-15T09:37:19.575Z,12,GR86-028-89,0.3,0.233,0.085,100.03,2.0,6746.0,0.0,0.0,
2025-08-15T09:37:19.618Z,12,GR86-028-89,-2.7,0.273,0.069,100.01,2.0,,0.0,0.0,116.71
2025-08-15T09:37:19.661Z,12,GR86-028-89,-5.5,0.254,0.029,100.0,2.0,,0.0,0.0,
2025-08-15T09:37:19.705Z,12,GR86-028-89,-7.2,0.221,-0.037,100.0,2.0,,0.0,0.0,
2025-08-15T09:37:19.748Z,12,GR86-028-89,-7.7,0.28,-0.064,100.04,2.0,,0.0,0.0,
2025-08-15T09:37:19.791Z,12,GR86-028-89,-7.800000000000001,0.239,-0.108,100.03,2.0,6810.0,0.0,0.0,
2025-08-15T09:37:19.836Z,12,GR86-028-89,-7.4,0.244,-0.174,100.01,2.0,,0.0,0.0,118.06
2025-08-15T09:37:19.879Z,12,GR86-028-89,-6.300000000000001,0.229,-0.206,100.01,2.0,,0.0,0.0,
2025-08-15T09:37:19.922Z,12,GR86-028-89,-5.300000000000001,0.293,-0.189,100.03,2.0,,0.0,0.0,
2025-08-15T09:37:19.965Z,12,GR86-028-89,-5.7,0.237,-0.189,100.01,2.0,,0.0,0.0,
2025-08-15T09:37:20.008Z,12,GR86-028-89,-7.4,0.21,-0.201,100.02,2.0,6888.0,0.0,0.0,
2025-08-15T09:37:20.051Z,12,GR86-028-89,-8.700000000000001,0.274,-0.205,100.04,2.0,,0.0,0.0,119.23
2025-08-15T09:37:20.096Z,12,GR86-028-89,-9.1,0.289,-0.217,100.01,2.0,,0.0,0.0,
2025-08-15T09:37:20.138Z,12,GR86-028-89,-8.700000000000001,0.236,-0.221,100.0,2.0,,0.0,0.0,
2025-08-15T09:37:20.181Z,12,GR86-028-89,-8.5,0.214,-0.233,100.02,2.0,,0.0,0.0,
2025-08-15T09:37:20.226Z,12,GR86-028-89,-9.1,0.272,-0.237,100.0,2.0,6958.0,0.0,0.0,
2025-08-15T09:37:20.312Z,12,GR86-028-89,-9.5,0.239,-0.264,100.01,2.0,,0.0,0.0,120.38
2025-08-15T09:37:20.401Z,12,GR86-028-89,-7.5,0.207,-0.282,100.04,2.0,,0.0,0.0,
2025-08-15T09:37:20.445Z,12,GR86-028-89,-5.2,0.237,-0.24,100.02,2.0,7028.0,0.0,0.0,
2025-08-15T09:37:20.487Z,12,GR86-028-89,-5.6000000000000005,0.221,-0.241,100.03,2.0,,0.0,0.0,121.53
2025-08-15T09:37:20.530Z,12,GR86-028-89,-5.800000000000001,0.27,-0.213,100.0,2.0,,0.0,0.0,
2025-08-15T09:37:20.575Z,12,GR86-028-89,-5.1000000000000005,0.263,-0.2,100.04,2.0,,0.0,0.0,
2025-08-15T09:37:20.618Z,12,GR86-028-89,-4.4,0.247,-0.177,100.04,2.0,,0.0,0.0,
2025-08-15T09:37:20.661Z,12,GR86-028-89,-3.4000000000000004,0.213,-0.164,100.0,2.0,7083.0,0.0,0.0,
2025-08-15T09:37:20.705Z,12,GR86-028-89,-2.3000000000000003,0.246,-0.158,100.0,2.0,,0.0,0.0,122.68
2025-08-15T09:37:20.747Z,12,GR86-028-89,-1.4,0.27,-0.15,100.0,2.0,,0.0,0.0,
2025-08-15T09:37:20.790Z,12,GR86-028-89,-1.1,0.225,-0.119,100.02,2.0,,0.0,0.0,
2025-08-15T09:37:20.836Z,12,GR86-028-89,-0.3,0.222,-0.104,99.97,2.0,,0.0,0.0,
2025-08-15T09:37:20.878Z,12,GR86-028-89,1.0,0.196,-0.073,100.0,2.0,7146.0,0.0,0.0,
2025-08-15T09:37:20.965Z,12,GR86-028-89,3.6,0.152,0.009,100.01,3.0,,0.0,0.0,124.91
2025-08-15T09:37:21.008Z,12,GR86-028-89,5.800000000000001,0.5730000000000001,-0.043,100.01,3.0,,0.0,0.0,
2025-08-15T09:37:21.051Z,12,GR86-028-89,7.0,0.47,-0.006,100.0,3.0,,0.0,0.0,
2025-08-15T09:37:21.096Z,12,GR86-028-89,7.1000000000000005,0.099,0.122,100.0,3.0,6968.0,0.0,0.0,
2025-08-15T09:37:21.139Z,12,GR86-028-89,6.800000000000001,0.105,0.063,99.99,3.0,,0.0,0.0,125.76
2025-08-15T09:37:21.182Z,12,GR86-028-89,6.800000000000001,0.187,0.18,100.02,3.0,,0.0,0.0,
2025-08-15T09:37:21.227Z,12,GR86-028-89,6.800000000000001,0.321,0.156,100.04,3.0,,0.0,0.0,
2025-08-15T09:37:21.269Z,12,GR86-028-89,7.1000000000000005,0.268,0.111,100.02,3.0,,0.0,0.0,
2025-08-15T09:37:21.312Z,12,GR86-028-89,7.2,0.169,0.188,100.0,3.0,5724.0,0.0,0.0,
2025-08-15T09:37:21.355Z,12,GR86-028-89,5.5,0.194,0.142,100.01,3.0,,0.0,0.0,126.86
2025-08-15T09:37:21.398Z,12,GR86-028-89,4.9,0.211,0.169,100.0,3.0,,0.0,0.0,
2025-08-15T09:37:21.441Z,12,GR86-028-89,5.7,0.276,0.146,100.01,3.0,,0.0,0.0,
2025-08-15T09:37:21.486Z,12,GR86-028-89,6.1000000000000005,0.233,0.131,100.0,3.0,,0.0,0.0,
2025-08-15T09:37:21.529Z,12,GR86-028-89,5.9,0.16,0.153,99.99,3.0,5956.0,0.0,0.0,
2025-08-15T09:37:21.572Z,12,GR86-028-89,5.6000000000000005,0.21,0.146,100.0,3.0,,0.0,0.0,127.73
2025-08-15T09:37:21.615Z,12,GR86-028-89,5.2,0.223,0.135,100.0,3.0,,0.0,0.0,
2025-08-15T09:37:21.658Z,12,GR86-028-89,5.0,0.235,0.125,99.99,3.0,,0.0,0.0,
2025-08-15T09:37:21.701Z,12,GR86-028-89,5.0,0.204,0.135,100.0,3.0,,0.0,0.0,
2025-08-15T09:37:21.745Z,12,GR86-028-89,4.9,0.185,0.12,96.22,3.0,6015.0,0.0,0.0,
2025-08-15T09:37:21.787Z,12,GR86-028-89,4.800000000000001,0.23,0.127,30.52,3.0,,0.0,0.0,128.61
2025-08-15T09:37:21.831Z,12,GR86-028-89,4.5,0.243,0.116,3.64,3.0,,0.0,0.0,
2025-08-15T09:37:21.875Z,12,GR86-028-89,3.4000000000000004,0.066,0.122,3.08,3.0,,0.0,0.0,
2025-08-15T09:37:21.918Z,12,GR86-028-89,2.5,-0.095,0.136,2.93,3.0,,0.0,0.0,
2025-08-15T09:37:21.961Z,12,GR86-028-89,1.8,-0.339,0.083,2.82,3.0,5744.0,10.985,11.4,
2025-08-15T09:37:22.005Z,12,GR86-028-89,0.7000000000000001,-0.281,0.065,2.76,3.0,,16.435,16.740000000000002,129.51
2025-08-15T09:37:22.047Z,12,GR86-028-89,-0.1,-0.295,0.105,2.71,3.0,,17.715,17.84,
2025-08-15T09:37:22.090Z,12,GR86-028-89,-0.1,-0.337,0.02,2.68,3.0,,21.44,21.56,
2025-08-15T09:37:22.135Z,12,GR86-028-89,0.0,-0.501,0.086,2.65,3.0,,26.46,26.57,
2025-08-15T09:37:22.178Z,12,GR86-028-89,0.0,-0.494,0.004,2.63,3.0,5814.0,27.59,27.925,
2025-08-15T09:37:22.221Z,12,GR86-028-89,0.3,-0.485,0.0,2.62,3.0,,28.305,28.58,128.95
2025-08-15T09:37:22.266Z,12,GR86-028-89,1.5,-0.5750000000000001,0.049,16.04,3.0,,30.55,30.61,
2025-08-15T09:37:22.308Z,12,GR86-028-89,4.5,-0.612,0.001,62.99,3.0,,33.74,33.74,
2025-08-15T09:37:22.351Z,12,GR86-028-89,8.200000000000001,-0.644,0.059,99.05,3.0,,37.02,36.87,
2025-08-15T09:37:22.395Z,12,GR86-028-89,11.0,-0.7000000000000001,0.09,50.43,2.0,5533.0,40.025,39.845,
2025-08-15T09:37:22.438Z,12,GR86-028-89,10.3,-0.946,0.107,4.61,2.0,,41.735,42.745,124.7
2025-08-15T09:37:22.481Z,12,GR86-028-89,10.8,-0.847,0.227,2.99,2.0,,44.97,46.62,
2025-08-15T09:37:22.526Z,12,GR86-028-89,14.5,-0.769,0.049,2.76,2.0,,45.4,46.055,
2025-08-15T09:37:22.569Z,12,GR86-028-89,20.8,-1.092,0.296,2.7,2.0,,47.61,48.620000000000005,
2025-08-15T09:37:22.612Z,12,GR86-028-89,27.3,-0.937,0.348,2.66,2.0,6139.0,52.555,54.02,
2025-08-15T09:37:22.658Z,12,GR86-028-89,32.9,-1.004,0.471,2.62,2.0,,53.24,53.93,119.61
2025-08-15T09:37:22.701Z,12,GR86-028-89,39.1,-0.833,0.5760000000000001,2.61,2.0,,53.870000000000005,54.465,
2025-08-15T09:37:22.745Z,12,GR86-028-89,44.900000000000006,-0.938,0.536,2.6,2.0,,55.545,56.78,
2025-08-15T09:37:22.787Z,12,GR86-028-89,45.900000000000006,-0.767,0.764,2.59,2.0,,52.370000000000005,53.18,
2025-08-15T09:37:22.830Z,12,GR86-028-89,44.6,-0.742,0.762,2.57,2.0,6181.0,48.145,48.235,
2025-08-15T09:37:22.876Z,12,GR86-028-89,42.400000000000006,-0.727,0.6950000000000001,2.59,2.0,,39.495,41.02,113.31
2025-08-15T09:37:22.918Z,12,GR86-028-89,42.5,-0.73,0.849,2.58,2.0,,36.58,37.8,
2025-08-15T09:37:22.961Z,12,GR86-028-89,41.7,-0.7000000000000001,0.885,2.57,2.0,,33.345,33.74,
2025-08-15T09:37:23.005Z,12,GR86-028-89,39.8,-0.644,0.81,2.57,2.0,,32.335,33.160000000000004,
2025-08-15T09:37:23.048Z,12,GR86-028-89,41.0,-0.633,0.8160000000000001,2.56,2.0,5706.0,30.52,32.015,
2025-08-15T09:37:23.091Z,12,GR86-028-89,43.7,-0.5670000000000001,0.898,2.5500000000000003,2.0,,24.765,25.895,107.77
2025-08-15T09:37:23.136Z,12,GR86-028-89,43.2,-0.446,0.963,2.5500000000000003,2.0,,9.095,9.875,
2025-08-15T09:37:23.179Z,12,GR86-028-89,47.900000000000006,-0.3,0.986,2.54,2.0,,2.015,2.52,
2025-08-15T09:37:23.222Z,12,GR86-028-89,54.6,-0.15,1.031,2.54,2.0,,0.0,0.0,
2025-08-15T09:37:23.266Z,12,GR86-028-89,55.900000000000006,-0.219,1.107,4.0200000000000005,2.0,5430.0,0.0,0.0,
2025-08-15T09:37:23.308Z,12,GR86-028-89,53.0,-0.154,1.086,17.78,2.0,,0.0,0.0,102.69
2025-08-15T09:37:23.351Z,12,GR86-028-89,50.7,-0.175,1.113,19.87,2.0,,0.0,0.0,
2025-08-15T09:37:23.395Z,12,GR86-028-89,48.2,-0.114,1.1,20.33,2.0,,0.0,0.0,
2025-08-15T09:37:23.438Z,12,GR86-028-89,43.400000000000006,-0.06,1.062,22.33,2.0,,0.0,0.0,
2025-08-15T09:37:23.481Z,12,GR86-028-89,39.7,-0.079,1.077,24.87,2.0,5443.0,0.0,0.0,
2025-08-15T09:37:23.526Z,12,GR86-028-89,39.7,-0.034,1.04,27.0,2.0,,0.0,0.0,98.38
2025-08-15T09:37:23.569Z,12,GR86-028-89,41.3,-0.009,1.096,28.16,2.0,,0.0,0.0,
2025-08-15T09:37:23.612Z,12,GR86-028-89,42.7,0.221,1.092,27.65,2.0,,0.0,0.0,
2025-08-15T09:37:23.658Z,12,GR86-028-89,46.6,0.189,1.1,27.66,2.0,,0.0,0.0,
2025-08-15T09:37:23.701Z,12,GR86-028-89,50.900000000000006,0.138,1.118,27.8,2.0,5569.0,0.0,0.0,
2025-08-15T09:37:23.745Z,12,GR86-028-89,56.1,0.15,1.159,27.81,2.0,,0.0,0.0,97.49
2025-08-15T09:37:23.787Z,12,GR86-028-89,62.6,0.12,1.153,27.94,2.0,,0.0,0.0,
2025-08-15T09:37:23.830Z,12,GR86-028-89,71.3,0.154,1.148,27.74,2.0,,0.0,0.0,
2025-08-15T09:37:23.875Z,12,GR86-028-89,83.5,0.105,1.153,27.08,2.0,,0.0,0.0,
2025-08-15T09:37:23.918Z,12,GR86-028-89,86.9,0.094,1.195,27.04,2.0,5652.0,0.0,0.0,
2025-08-15T09:37:23.961Z,12,GR86-028-89,89.7,0.093,1.194,25.82,2.0,,0.0,0.0,97.65
2025-08-15T09:37:24.005Z,12,GR86-028-89,95.7,0.091,1.199,23.36,2.0,,0.0,0.0,
2025-08-15T09:37:24.047Z,12,GR86-028-89,100.3,0.116,1.216,3.93,2.0,,0.0,0.0,
2025-08-15T09:37:24.090Z,12,GR86-028-89,100.4,0.065,1.165,3.92,2.0,,0.0,0.0,
2025-08-15T09:37:24.136Z,12,GR86-028-89,98.2,-0.087,1.248,5.49,2.0,5646.0,0.0,0.0,
2025-08-15T09:37:24.179Z,12,GR86-028-89,97.1,-0.115,1.217,5.78,2.0,,0.0,0.0,98.03
2025-08-15T09:37:24.222Z,12,GR86-028-89,96.2,-0.161,1.213,19.69,2.0,,0.0,0.0,
2025-08-15T09:37:24.265Z,12,GR86-028-89,94.9,-0.289,1.186,21.05,2.0,,0.0,0.0,
2025-08-15T09:37:24.308Z,12,GR86-028-89,92.6,-0.205,1.138,21.12,2.0,,0.0,0.0,
2025-08-15T09:37:24.351Z,12,GR86-028-89,89.80000000000001,-0.176,1.325,24.06,2.0,5418.0,0.0,0.0,
2025-08-15T09:37:24.395Z,12,GR86-028-89,83.30000000000001,-0.205,1.212,28.58,2.0,,0.0,0.0,98.12
2025-08-15T09:37:24.438Z,12,GR86-028-89,74.4,-0.109,1.49,29.52,2.0,,0.0,0.0,
2025-08-15T09:37:24.481Z,12,GR86-028-89,63.7,0.349,1.336,28.83,2.0,,0.0,0.0,
2025-08-15T09:37:24.526Z,12,GR86-028-89,53.900000000000006,0.248,1.132,27.26,2.0,,0.0,0.0,
2025-08-15T09:37:24.569Z,12,GR86-028-89,43.5,-0.149,1.208,27.51,2.0,5754.0,0.0,0.0,
2025-08-15T09:37:24.612Z,12,GR86-028-89,36.1,-0.166,1.333,27.85,2.0,,0.0,0.0,97.32
2025-08-15T09:37:24.655Z,12,GR86-028-89,32.7,-0.122,1.194,27.17,2.0,,0.0,0.0,
2025-08-15T09:37:24.698Z,12,GR86-028-89,30.1,-0.025,1.218,27.39,2.0,,0.0,0.0,
2025-08-15T09:37:24.741Z,12,GR86-028-89,28.1,0.26,1.249,27.11,2.0,,0.0,0.0,
2025-08-15T09:37:24.786Z,12,GR86-028-89,28.1,0.308,0.992,27.29,2.0,5683.0,0.0,0.0,
2025-08-15T09:37:24.829Z,12,GR86-028-89,29.3,0.048,1.093,28.5,2.0,,0.0,0.0,97.25
2025-08-15T09:37:24.872Z,12,GR86-028-89,33.2,-0.046,1.048,29.05,2.0,,0.0,0.0,
2025-08-15T09:37:24.916Z,12,GR86-028-89,44.6,0.087,1.075,30.21,2.0,,0.0,0.0,
2025-08-15T09:37:24.959Z,12,GR86-028-89,54.0,-0.112,1.296,35.300000000000004,2.0,,0.0,0.0,
2025-08-15T09:37:25.002Z,12,GR86-028-89,58.3,0.08,1.317,34.97,2.0,5746.0,0.0,0.0,
2025-08-15T09:37:25.045Z,12,GR86-028-89,58.3,0.132,1.289,34.75,2.0,,0.0,0.0,97.08
2025-08-15T09:37:25.088Z,12,GR86-028-89,60.0,0.152,1.312,35.49,2.0,,0.0,0.0,
2025-08-15T09:37:25.131Z,12,GR86-028-89,65.2,0.154,1.345,42.9,2.0,,0.0,0.0,
2025-08-15T09:37:25.175Z,12,GR86-028-89,76.0,0.166,1.253,97.81,2.0,,0.0,0.0,
2025-08-15T09:37:25.218Z,12,GR86-028-89,81.7,0.215,1.188,100.06,2.0,5745.0,0.0,0.0,
2025-08-15T09:37:25.261Z,12,GR86-028-89,84.2,0.202,1.177,100.07,2.0,,0.0,0.0,97.2
2025-08-15T09:37:25.305Z,12,GR86-028-89,83.10000000000001,0.211,1.14,100.07,2.0,,0.0,0.0,
2025-08-15T09:37:25.347Z,12,GR86-028-89,77.4,0.199,1.156,100.07,2.0,,0.0,0.0,
2025-08-15T09:37:25.390Z,12,GR86-028-89,67.8,0.233,1.177,100.06,2.0,,0.0,0.0,
2025-08-15T09:37:25.435Z,12,GR86-028-89,53.400000000000006,0.267,1.161,100.05,2.0,5815.0,0.0,0.0,
2025-08-15T09:37:25.478Z,12,GR86-028-89,46.2,0.254,1.112,100.07,2.0,,0.0,0.0,97.82
2025-08-15T09:37:25.521Z,12,GR86-028-89,41.5,0.243,1.09,100.07,2.0,,0.0,0.0,
2025-08-15T09:37:25.565Z,12,GR86-028-89,40.0,0.246,1.095,100.08,2.0,,0.0,0.0,
2025-08-15T09:37:25.608Z,12,GR86-028-89,40.0,0.272,1.092,100.07,2.0,,0.0,0.0,
2025-08-15T09:37:25.651Z,12,GR86-028-89,39.0,0.272,1.079,100.06,2.0,5886.0,0.0,0.0,
2025-08-15T09:37:25.695Z,12,GR86-028-89,35.300000000000004,0.271,1.086,100.06,2.0,,0.0,0.0,98.71
