timestamp,lap,vehicle_id,steering_angle,accx_can,accy_can,ath,gear,nmot,pbrake_f,pbrake_r,speed
2025-08-15T01:31:12.515Z,14,GR86-049-88,3.0,0.118,0.003,99.79,4.0,,0.0,0.0,
2025-08-15T01:31:12.559Z,14,GR86-049-88,3.0,0.076,-0.003,99.81,4.0,,0.0,0.0,
2025-08-15T01:31:12.602Z,14,GR86-049-88,3.0,0.119,-0.012,99.79,4.0,7186.0,0.0,0.0,
2025-08-15T01:31:12.646Z,14,GR86-049-88,3.0,0.099,0.005,99.79,4.0,,0.0,0.0,182.26
2025-08-15T01:31:12.689Z,14,GR86-049-88,3.0,0.113,0.013,99.81,4.0,,0.0,0.0,
2025-08-15T01:31:12.732Z,14,GR86-049-88,3.0,0.079,0.01,99.8,4.0,,0.0,0.0,
2025-08-15T01:31:12.775Z,14,GR86-049-88,3.0,0.082,0.021,99.79,4.0,,0.0,0.0,
2025-08-15T01:31:12.820Z,14,GR86-049-88,3.0,0.135,0.04,99.8,4.0,7202.0,0.0,0.0,
2025-08-15T01:31:12.863Z,14,GR86-049-88,3.0,0.135,0.041,99.78,4.0,,0.0,0.0,183.17
2025-08-15T01:31:12.906Z,14,GR86-049-88,3.0,0.148,0.044,99.77,4.0,,0.0,0.0,
2025-08-15T01:31:12.949Z,14,GR86-049-88,3.0,-0.069,0.028,99.78,5.0,,0.0,0.0,
2025-08-15T01:31:12.992Z,14,GR86-049-88,3.0,0.019,0.083,99.8,5.0,,0.0,0.0,
2025-08-15T01:31:13.035Z,14,GR86-049-88,3.0,0.386,0.011,99.77,5.0,7229.0,0.0,0.0,
2025-08-15T01:31:13.079Z,14,GR86-049-88,3.0,0.075,0.039,99.79,5.0,,0.0,0.0,183.93
2025-08-15T01:31:13.121Z,14,GR86-049-88,3.0,-0.039,0.082,99.79,5.0,,0.0,0.0,
2025-08-15T01:31:13.164Z,14,GR86-049-88,3.0,0.08,-0.015,99.78,5.0,,0.0,0.0,
2025-08-15T01:31:13.207Z,14,GR86-049-88,3.0,0.095,0.07,99.8,5.0,,0.0,0.0,
2025-08-15T01:31:13.250Z,14,GR86-049-88,3.1,0.069,0.069,99.77,5.0,7235.0,0.0,0.0,
2025-08-15T01:31:13.293Z,14,GR86-049-88,3.1,0.05,-0.023,99.79,5.0,,0.0,0.0,184.64
2025-08-15T01:31:13.336Z,14,GR86-049-88,3.1,0.07,0.037,99.8,5.0,,0.0,0.0,
2025-08-15T01:31:13.380Z,14,GR86-049-88,3.1,0.117,-0.004,99.78,5.0,,0.0,0.0,
2025-08-15T01:31:13.423Z,14,GR86-049-88,3.1,0.095,0.038,99.79,5.0,,0.0,0.0,
2025-08-15T01:31:13.466Z,14,GR86-049-88,3.1,0.118,0.059,99.8,5.0,6239.0,0.0,0.0,
2025-08-15T01:31:13.509Z,14,GR86-049-88,3.1,0.102,0.029,99.78,5.0,,0.0,0.0,185.23
2025-08-15T01:31:13.552Z,14,GR86-049-88,3.1,0.096,0.031,99.79,5.0,,0.0,0.0,
2025-08-15T01:31:13.595Z,14,GR86-049-88,3.1,0.088,0.03,99.8,5.0,,0.0,0.0,
2025-08-15T01:31:13.639Z,14,GR86-049-88,3.1,0.076,0.037,99.8,5.0,,0.0,0.0,
2025-08-15T01:31:13.682Z,14,GR86-049-88,3.1,0.107,0.054,99.8,5.0,6341.0,0.0,0.0,
2025-08-15T01:31:13.725Z,14,GR86-049-88,3.2,0.082,0.051,99.77,5.0,,0.0,0.0,186.71
2025-08-15T01:31:13.768Z,14,GR86-049-88,3.2,0.103,0.042,99.79,5.0,,0.0,0.0,
2025-08-15T01:31:13.811Z,14,GR86-049-88,3.2,0.109,0.049,99.78,5.0,,0.0,0.0,
2025-08-15T01:31:13.855Z,14,GR86-049-88,3.2,0.107,0.038,99.8,5.0,,0.0,0.0,
2025-08-15T01:31:13.897Z,14,GR86-049-88,3.2,0.116,0.043,99.79,5.0,6353.0,0.0,0.0,
2025-08-15T01:31:13.940Z,14,GR86-049-88,3.2,0.066,0.048,99.8,5.0,,0.0,0.0,187.39
2025-08-15T01:31:13.983Z,14,GR86-049-88,3.2,0.062,0.049,99.8,5.0,,0.0,0.0,
2025-08-15T01:31:14.026Z,14,GR86-049-88,3.2,0.067,0.053,99.78,5.0,,0.0,0.0,
2025-08-15T01:31:14.069Z,14,GR86-049-88,3.2,0.055,0.053,99.8,5.0,,0.0,0.0,
2025-08-15T01:31:14.112Z,14,GR86-049-88,3.2,0.078,0.047,99.78,5.0,6383.0,0.0,0.0,
2025-08-15T01:31:14.155Z,14,GR86-049-88,3.2,0.056,0.061,99.8,5.0,,0.0,0.0,187.98
2025-08-15T01:31:14.199Z,14,GR86-049-88,3.2,0.09,0.047,99.79,5.0,,0.0,0.0,
2025-08-15T01:31:14.242Z,14,GR86-049-88,3.2,0.086,0.055,99.81,5.0,,0.0,0.0,
2025-08-15T01:31:14.285Z,14,GR86-049-88,3.2,0.097,0.058,99.79,5.0,,0.0,0.0,
2025-08-15T01:31:14.328Z,14,GR86-049-88,3.2,0.076,0.07,99.78,5.0,6416.0,0.0,0.0,
2025-08-15T01:31:14.371Z,14,GR86-049-88,3.2,0.086,0.054,99.79,5.0,,0.0,0.0,188.67
2025-08-15T01:31:14.415Z,14,GR86-049-88,3.2,0.057,0.044,99.79,5.0,,0.0,0.0,
2025-08-15T01:31:14.457Z,14,GR86-049-88,3.2,0.076,0.024,99.78,5.0,,0.0,0.0,
2025-08-15T01:31:14.500Z,14,GR86-049-88,3.2,0.104,0.07,99.79,5.0,,0.0,0.0,
2025-08-15T01:31:14.543Z,14,GR86-049-88,3.2,0.112,0.067,99.79,5.0,6447.0,0.0,0.0,
2025-08-15T01:31:14.586Z,14,GR86-049-88,3.1,0.107,0.049,99.77,5.0,,0.0,0.0,189.31
2025-08-15T01:31:14.629Z,14,GR86-049-88,3.0,0.111,0.037,99.78,5.0,,0.0,0.0,
2025-08-15T01:31:14.672Z,14,GR86-049-88,3.0,0.101,0.025,99.8,5.0,,0.0,0.0,
2025-08-15T01:31:14.715Z,14,GR86-049-88,3.0,0.091,0.023,99.78,5.0,,0.0,0.0,
2025-08-15T01:31:14.759Z,14,GR86-049-88,3.0,0.079,0.038,99.79,5.0,6468.0,0.0,0.0,
2025-08-15T01:31:14.802Z,14,GR86-049-88,3.0,0.1,0.04,99.77,5.0,,0.0,0.0,189.86
2025-08-15T01:31:14.845Z,14,GR86-049-88,3.0,0.093,0.032,99.81,5.0,,0.0,0.0,
2025-08-15T01:31:14.889Z,14,GR86-049-88,3.0,0.093,0.017,99.78,5.0,,0.0,0.0,
2025-08-15T01:31:14.931Z,14,GR86-049-88,3.0,0.116,0.012,99.79,5.0,,0.0,0.0,
2025-08-15T01:31:14.974Z,14,GR86-049-88,3.0,0.106,0.023,99.8,5.0,6490.0,0.0,0.0,
2025-08-15T01:31:15.017Z,14,GR86-049-88,3.0,0.117,0.014,99.8,5.0,,0.0,0.0,190.51
2025-08-15T01:31:15.060Z,14,GR86-049-88,3.0,0.068,0.024,99.79,5.0,,0.0,0.0,
2025-08-15T01:31:15.103Z,14,GR86-049-88,3.0,0.07,0.017,99.77,5.0,,0.0,0.0,
2025-08-15T01:31:15.146Z,14,GR86-049-88,3.0,0.069,0.01,99.79,5.0,,0.0,0.0,
2025-08-15T01:31:15.232Z,14,GR86-049-88,3.0,0.07,0.001,99.8,5.0,6510.0,0.0,0.0,191.19
2025-08-15T01:31:15.275Z,14,GR86-049-88,2.9000000000000004,0.088,0.019,99.78,5.0,,0.0,0.0,
2025-08-15T01:31:15.320Z,14,GR86-049-88,3.0,0.038,0.008,99.77,5.0,,0.0,0.0,
2025-08-15T01:31:15.363Z,14,GR86-049-88,3.0,0.069,0.009,99.79,5.0,,0.0,0.0,
2025-08-15T01:31:15.407Z,14,GR86-049-88,2.9000000000000004,0.046,0.008,99.78,5.0,6527.0,0.0,0.0,
2025-08-15T01:31:15.450Z,14,GR86-049-88,2.9000000000000004,0.061,0.012,99.8,5.0,,0.0,0.0,191.87
2025-08-15T01:31:15.493Z,14,GR86-049-88,2.9000000000000004,0.071,0.023,99.78,5.0,,0.0,0.0,
2025-08-15T01:31:15.536Z,14,GR86-049-88,2.9000000000000004,0.091,0.023,99.78,5.0,,0.0,0.0,
2025-08-15T01:31:15.580Z,14,GR86-049-88,2.9000000000000004,0.061,0.012,99.78,5.0,,0.0,0.0,
2025-08-15T01:31:15.623Z,14,GR86-049-88,2.9000000000000004,0.042,0.021,99.79,5.0,6562.0,0.0,0.0,
2025-08-15T01:31:15.666Z,14,GR86-049-88,2.9000000000000004,0.056,0.005,99.79,5.0,,0.0,0.0,192.52
2025-08-15T01:31:15.709Z,14,GR86-049-88,2.9000000000000004,0.051,-0.009,99.79,5.0,,0.0,0.0,
2025-08-15T01:31:15.752Z,14,GR86-049-88,2.9000000000000004,0.057,-0.014,99.79,5.0,,0.0,0.0,
2025-08-15T01:31:15.795Z,14,GR86-049-88,2.8000000000000003,0.068,-0.013,99.79,5.0,,0.0,0.0,
2025-08-15T01:31:15.840Z,14,GR86-049-88,2.8000000000000003,0.073,-0.006,99.79,5.0,6582.0,0.0,0.0,
2025-08-15T01:31:15.882Z,14,GR86-049-88,2.8000000000000003,0.061,-0.009,99.77,5.0,,0.0,0.0,193.14
2025-08-15T01:31:15.925Z,14,GR86-049-88,2.8000000000000003,0.041,-0.006,99.8,5.0,,0.0,0.0,
2025-08-15T01:31:15.968Z,14,GR86-049-88,2.8000000000000003,0.068,-0.017,99.78,5.0,,0.0,0.0,
2025-08-15T01:31:16.011Z,14,GR86-049-88,2.8000000000000003,0.026,-0.017,99.8,5.0,,0.0,0.0,
2025-08-15T01:31:16.054Z,14,GR86-049-88,2.8000000000000003,0.065,-0.007,99.8,5.0,6603.0,0.0,0.0,
2025-08-15T01:31:16.097Z,14,GR86-049-88,2.8000000000000003,0.062,0.004,99.79,5.0,,0.0,0.0,193.75
2025-08-15T01:31:16.140Z,14,GR86-049-88,2.8000000000000003,0.048,-0.024,99.79,5.0,,0.0,0.0,
2025-08-15T01:31:16.183Z,14,GR86-049-88,2.8000000000000003,0.044,-0.023,99.79,5.0,,0.0,0.0,
2025-08-15T01:31:16.226Z,14,GR86-049-88,2.8000000000000003,0.032,-0.01,99.8,5.0,,0.0,0.0,
2025-08-15T01:31:16.269Z,14,GR86-049-88,2.8000000000000003,0.034,0.002,99.78,5.0,6620.0,0.0,0.0,
2025-08-15T01:31:16.312Z,14,GR86-049-88,2.8000000000000003,0.038,0.007,99.77,5.0,,0.0,0.0,194.3
2025-08-15T01:31:16.355Z,14,GR86-049-88,2.8000000000000003,0.062,-0.003,99.77,5.0,,0.0,0.0,
2025-08-15T01:31:16.399Z,14,GR86-049-88,2.8000000000000003,0.046,-0.023,99.8,5.0,,0.0,0.0,
2025-08-15T01:31:16.442Z,14,GR86-049-88,2.8000000000000003,0.039,-0.032,99.78,5.0,,0.0,0.0,
2025-08-15T01:31:16.485Z,14,GR86-049-88,2.8000000000000003,0.025,-0.017,99.77,5.0,6643.0,0.0,0.0,
2025-08-15T01:31:16.528Z,14,GR86-049-88,2.8000000000000003,0.033,-0.019,99.78,5.0,,0.0,0.0,195.6
2025-08-15T01:31:16.571Z,14,GR86-049-88,2.8000000000000003,0.049,-0.006,99.78,5.0,,0.0,0.0,
2025-08-15T01:31:16.615Z,14,GR86-049-88,2.8000000000000003,0.052,-0.017,99.78,5.0,,0.0,0.0,
2025-08-15T01:31:16.659Z,14,GR86-049-88,2.8000000000000003,0.05,-0.046,99.77,5.0,,0.0,0.0,
2025-08-15T01:31:16.702Z,14,GR86-049-88,2.8000000000000003,0.043,-0.028,99.78,5.0,6659.0,0.0,0.0,
2025-08-15T01:31:16.746Z,14,GR86-049-88,2.8000000000000003,0.028,0.003,99.79,5.0,,0.0,0.0,196.18
2025-08-15T01:31:16.789Z,14,GR86-049-88,2.8000000000000003,0.049,0.008,99.77,5.0,,0.0,0.0,
2025-08-15T01:31:16.832Z,14,GR86-049-88,2.8000000000000003,0.043,0.007,99.77,5.0,,0.0,0.0,
2025-08-15T01:31:16.875Z,14,GR86-049-88,2.8000000000000003,0.071,0.008,99.77,5.0,,0.0,0.0,
2025-08-15T01:31:16.920Z,14,GR86-049-88,2.8000000000000003,0.037,0.002,99.78,5.0,6701.0,0.0,0.0,
2025-08-15T01:31:16.963Z,14,GR86-049-88,2.8000000000000003,0.042,-0.013,99.78,5.0,,0.0,0.0,196.8
2025-08-15T01:31:17.007Z,14,GR86-049-88,2.7,0.041,-0.027,99.78,5.0,,0.0,0.0,
2025-08-15T01:31:17.050Z,14,GR86-049-88,2.7,0.057,-0.027,99.78,5.0,,0.0,0.0,
2025-08-15T01:31:17.093Z,14,GR86-049-88,2.6,0.062,-0.025,99.79,5.0,,0.0,0.0,
2025-08-15T01:31:17.136Z,14,GR86-049-88,2.5,0.083,0.0,99.78,5.0,6722.0,0.0,0.0,
2025-08-15T01:31:17.180Z,14,GR86-049-88,2.5,0.062,-0.008,99.77,5.0,,0.0,0.0,197.4
2025-08-15T01:31:17.223Z,14,GR86-049-88,2.5,0.035,-0.035,99.78,5.0,,0.0,0.0,
2025-08-15T01:31:17.266Z,14,GR86-049-88,2.5,0.052,-0.044,99.77,5.0,,0.0,0.0,
2025-08-15T01:31:17.309Z,14,GR86-049-88,2.4000000000000004,0.068,-0.038,99.77,5.0,,0.0,0.0,
2025-08-15T01:31:17.352Z,14,GR86-049-88,2.4000000000000004,0.079,-0.04,99.77,5.0,6743.0,0.0,0.0,
2025-08-15T01:31:17.395Z,14,GR86-049-88,2.4000000000000004,0.105,-0.04,99.79,5.0,,0.0,0.0,198.06
2025-08-15T01:31:17.439Z,14,GR86-049-88,2.3000000000000003,0.042,-0.068,99.79,5.0,,0.0,0.0,
2025-08-15T01:31:17.482Z,14,GR86-049-88,2.2,0.055,-0.057,99.78,5.0,,0.0,0.0,
2025-08-15T01:31:17.525Z,14,GR86-049-88,2.2,0.074,-0.038,99.78,5.0,,0.0,0.0,
2025-08-15T01:31:17.568Z,14,GR86-049-88,2.2,0.089,-0.027,99.8,5.0,6779.0,0.0,0.0,
2025-08-15T01:31:17.611Z,14,GR86-049-88,2.2,0.093,-0.024,99.79,5.0,,0.0,0.0,198.69
2025-08-15T01:31:17.655Z,14,GR86-049-88,2.2,0.094,-0.006,99.78,5.0,,0.0,0.0,
2025-08-15T01:31:17.700Z,14,GR86-049-88,2.2,0.067,-0.039,99.8,5.0,,0.0,0.0,
2025-08-15T01:31:17.743Z,14,GR86-049-88,2.1,0.064,-0.035,99.79,5.0,,0.0,0.0,
2025-08-15T01:31:17.786Z,14,GR86-049-88,2.1,0.091,-0.02,99.79,5.0,6791.0,0.0,0.0,
2025-08-15T01:31:17.830Z,14,GR86-049-88,1.9,0.07,-0.043,99.79,5.0,,0.0,0.0,199.35
2025-08-15T01:31:17.873Z,14,GR86-049-88,1.5,0.085,-0.061,99.79,5.0,,0.0,0.0,
2025-08-15T01:31:17.916Z,14,GR86-049-88,1.0,0.05,-0.054,99.79,5.0,,0.0,0.0,
2025-08-15T01:31:18.002Z,14,GR86-049-88,0.7000000000000001,0.064,-0.071,99.78,5.0,6802.0,0.0,0.0,
2025-08-15T01:31:18.045Z,14,GR86-049-88,0.6000000000000001,0.065,-0.105,99.78,5.0,,0.0,0.0,199.97
2025-08-15T01:31:18.089Z,14,GR86-049-88,0.6000000000000001,0.067,-0.103,99.79,5.0,,0.0,0.0,
2025-08-15T01:31:18.132Z,14,GR86-049-88,0.8,0.044,-0.1,99.78,5.0,,0.0,0.0,
2025-08-15T01:31:18.175Z,14,GR86-049-88,1.1,0.054,-0.104,99.76,5.0,,0.0,0.0,
2025-08-15T01:31:18.220Z,14,GR86-049-88,1.4,0.078,-0.068,99.78,5.0,6832.0,0.0,0.0,
2025-08-15T01:31:18.263Z,14,GR86-049-88,1.5,0.065,-0.072,99.78,5.0,,0.0,0.0,200.6
2025-08-15T01:31:18.306Z,14,GR86-049-88,1.4,0.054,-0.045,99.76,5.0,,0.0,0.0,
2025-08-15T01:31:18.349Z,14,GR86-049-88,0.5,0.038,-0.055,99.77,5.0,,0.0,0.0,
2025-08-15T01:31:18.392Z,14,GR86-049-88,-0.3,0.044,-0.051,99.78,5.0,,0.0,0.0,
2025-08-15T01:31:18.435Z,14,GR86-049-88,-0.4,0.038,-0.073,99.79,5.0,6844.0,0.0,0.0,
2025-08-15T01:31:18.479Z,14,GR86-049-88,-0.3,0.052,-0.098,99.77,5.0,,0.0,0.0,201.1
2025-08-15T01:31:18.521Z,14,GR86-049-88,-0.3,0.043,-0.122,99.77,5.0,,0.0,0.0,
2025-08-15T01:31:18.564Z,14,GR86-049-88,-0.3,0.042,-0.126,99.78,5.0,,0.0,0.0,
2025-08-15T01:31:18.607Z,14,GR86-049-88,-0.4,0.036,-0.15,99.8,5.0,,0.0,0.0,
2025-08-15T01:31:18.650Z,14,GR86-049-88,-0.4,0.054,-0.149,99.78,5.0,6850.0,0.0,0.0,
2025-08-15T01:31:18.693Z,14,GR86-049-88,-0.3,0.062,-0.154,99.79,5.0,,0.0,0.0,201.75
2025-08-15T01:31:18.736Z,14,GR86-049-88,-0.1,0.06,-0.177,99.77,5.0,,0.0,0.0,
2025-08-15T01:31:18.780Z,14,GR86-049-88,0.5,0.044,-0.139,99.77,5.0,,0.0,0.0,
2025-08-15T01:31:18.823Z,14,GR86-049-88,0.7000000000000001,0.026,-0.114,99.79,5.0,,0.0,0.0,
2025-08-15T01:31:18.866Z,14,GR86-049-88,0.9,0.079,-0.093,99.78,5.0,6862.0,0.0,0.0,
2025-08-15T01:31:18.909Z,14,GR86-049-88,1.3,0.054,-0.065,99.78,5.0,,0.0,0.0,202.17
2025-08-15T01:31:18.952Z,14,GR86-049-88,1.5,0.077,-0.041,99.77,5.0,,0.0,0.0,
2025-08-15T01:31:18.995Z,14,GR86-049-88,1.5,0.055,-0.045,99.77,5.0,,0.0,0.0,
2025-08-15T01:31:19.039Z,14,GR86-049-88,1.5,0.047,-0.035,99.78,5.0,,0.0,0.0,
2025-08-15T01:31:19.082Z,14,GR86-049-88,1.5,0.092,-0.025,99.8,5.0,6887.0,0.0,0.0,
2025-08-15T01:31:19.125Z,14,GR86-049-88,1.5,0.046,-0.023,99.79,5.0,,0.0,0.0,202.97
2025-08-15T01:31:19.168Z,14,GR86-049-88,1.5,0.093,-0.002,99.78,5.0,,0.0,0.0,
2025-08-15T01:31:19.211Z,14,GR86-049-88,1.5,0.06,-0.01,99.77,5.0,,0.0,0.0,
2025-08-15T01:31:19.255Z,14,GR86-049-88,1.5,0.064,0.007,99.77,5.0,,0.0,0.0,
2025-08-15T01:31:19.297Z,14,GR86-049-88,1.5,0.042,-0.003,99.78,5.0,6903.0,0.0,0.0,
2025-08-15T01:31:19.340Z,14,GR86-049-88,1.5,0.068,-0.024,99.78,5.0,,0.0,0.0,203.44
2025-08-15T01:31:19.383Z,14,GR86-049-88,1.5,0.093,-0.031,99.79,5.0,,0.0,0.0,
2025-08-15T01:31:19.426Z,14,GR86-049-88,1.5,0.056,-0.044,99.78,5.0,,0.0,0.0,
2025-08-15T01:31:19.469Z,14,GR86-049-88,1.5,0.053,-0.031,99.78,5.0,,0.0,0.0,
2025-08-15T01:31:19.512Z,14,GR86-049-88,1.6,0.051,-0.038,99.78,5.0,6924.0,0.0,0.0,
2025-08-15T01:31:19.555Z,14,GR86-049-88,1.6,0.048,-0.044,99.78,5.0,,0.0,0.0,204.0
2025-08-15T01:31:19.599Z,14,GR86-049-88,1.7000000000000002,0.04,-0.04,99.79,5.0,,0.0,0.0,
2025-08-15T01:31:19.641Z,14,GR86-049-88,1.7000000000000002,0.056,-0.014,99.79,5.0,,0.0,0.0,
2025-08-15T01:31:19.684Z,14,GR86-049-88,1.7000000000000002,0.038,-0.022,99.77,5.0,,0.0,0.0,
2025-08-15T01:31:19.728Z,14,GR86-049-88,1.7000000000000002,0.067,-0.007,99.8,5.0,6962.0,0.0,0.0,
2025-08-15T01:31:19.771Z,14,GR86-049-88,1.7000000000000002,0.045,-0.002,99.79,5.0,,0.0,0.0,204.35
2025-08-15T01:31:19.815Z,14,GR86-049-88,1.7000000000000002,0.071,0.022,99.77,5.0,,0.0,0.0,
2025-08-15T01:31:19.859Z,14,GR86-049-88,1.9,0.067,-0.001,99.77,5.0,,0.0,0.0,
2025-08-15T01:31:19.902Z,14,GR86-049-88,1.9,0.047,-0.003,99.78,5.0,,0.0,0.0,
2025-08-15T01:31:19.946Z,14,GR86-049-88,1.9,0.089,0.019,99.78,5.0,6971.0,0.0,0.0,
2025-08-15T01:31:19.989Z,14,GR86-049-88,1.9,0.073,0.011,99.77,5.0,,0.0,0.0,204.9
2025-08-15T01:31:20.032Z,14,GR86-049-88,1.9,0.069,-0.003,99.78,5.0,,0.0,0.0,
2025-08-15T01:31:20.075Z,14,GR86-049-88,1.9,0.062,-0.002,99.79,5.0,,0.0,0.0,
2025-08-15T01:31:20.120Z,14,GR86-049-88,2.0,0.091,0.009,99.78,5.0,,0.0,0.0,
2025-08-15T01:31:20.163Z,14,GR86-049-88,2.1,0.075,0.017,99.77,5.0,6985.0,0.0,0.0,
2025-08-15T01:31:20.206Z,14,GR86-049-88,2.1,0.044,0.006,99.79,5.0,,0.0,0.0,205.34
2025-08-15T01:31:20.250Z,14,GR86-049-88,2.3000000000000003,0.058,0.014,99.8,5.0,,0.0,0.0,
2025-08-15T01:31:20.293Z,14,GR86-049-88,2.5,0.029,0.009,99.77,5.0,,0.0,0.0,
2025-08-15T01:31:20.336Z,14,GR86-049-88,2.7,0.037,0.023,99.79,5.0,,0.0,0.0,
2025-08-15T01:31:20.380Z,14,GR86-049-88,2.7,0.05,0.022,99.79,5.0,6999.0,0.0,0.0,
2025-08-15T01:31:20.423Z,14,GR86-049-88,2.6,0.02,0.028,99.77,5.0,,0.0,0.0,205.93
2025-08-15T01:31:20.466Z,14,GR86-049-88,2.6,0.042,0.032,99.77,5.0,,0.0,0.0,
2025-08-15T01:31:20.509Z,14,GR86-049-88,2.7,0.05,0.058,99.79,5.0,,0.0,0.0,
2025-08-15T01:31:20.552Z,14,GR86-049-88,2.7,0.093,0.043,99.77,5.0,,0.0,0.0,
2025-08-15T01:31:20.595Z,14,GR86-049-88,2.7,0.074,0.039,99.77,5.0,7021.0,0.0,0.0,
2025-08-15T01:31:20.639Z,14,GR86-049-88,2.8000000000000003,0.071,0.012,99.78,5.0,,0.0,0.0,206.4
2025-08-15T01:31:20.682Z,14,GR86-049-88,2.9000000000000004,0.072,0.034,99.78,5.0,,0.0,0.0,
2025-08-15T01:31:20.725Z,14,GR86-049-88,2.9000000000000004,0.084,0.041,99.77,5.0,,0.0,0.0,
2025-08-15T01:31:20.769Z,14,GR86-049-88,2.8000000000000003,0.073,0.042,99.78,5.0,,0.0,0.0,
2025-08-15T01:31:20.811Z,14,GR86-049-88,2.6,0.052,0.042,99.77,5.0,7034.0,0.0,0.0,
2025-08-15T01:31:20.855Z,14,GR86-049-88,2.3000000000000003,0.027,0.016,99.78,5.0,,0.0,0.0,206.93
2025-08-15T01:31:20.899Z,14,GR86-049-88,2.1,0.067,0.019,99.78,5.0,,0.0,0.0,
2025-08-15T01:31:20.941Z,14,GR86-049-88,2.1,0.054,-0.016,99.77,5.0,,0.0,0.0,
2025-08-15T01:31:20.984Z,14,GR86-049-88,2.1,0.032,-0.033,99.77,5.0,,0.0,0.0,
2025-08-15T01:31:21.027Z,14,GR86-049-88,2.0,0.02,-0.029,99.77,5.0,7056.0,0.0,0.0,
2025-08-15T01:31:21.070Z,14,GR86-049-88,1.9,0.044,-0.031,99.78,5.0,,0.0,0.0,207.42
2025-08-15T01:31:21.113Z,14,GR86-049-88,2.1,0.069,-0.029,99.79,5.0,,0.0,0.0,
2025-08-15T01:31:21.156Z,14,GR86-049-88,2.1,0.121,-0.023,99.78,5.0,,0.0,0.0,
2025-08-15T01:31:21.200Z,14,GR86-049-88,2.1,0.043,-0.038,59.59,5.0,,0.0,0.0,
2025-08-15T01:31:21.242Z,14,GR86-049-88,1.9,0.082,-0.024,2.61,5.0,7073.0,0.0,0.0,
2025-08-15T01:31:21.285Z,14,GR86-049-88,2.0,0.08,-0.025,4.53,5.0,,0.0,0.0,207.79
2025-08-15T01:31:21.328Z,14,GR86-049-88,2.7,-0.205,0.008,4.3500000000000005,5.0,,0.0,0.0,
2025-08-15T01:31:21.371Z,14,GR86-049-88,3.6,-0.258,0.004,4.07,5.0,,23.895,24.37,
2025-08-15T01:31:21.415Z,14,GR86-049-88,3.7,-0.618,-0.039,3.82,5.0,,45.965,46.085,
2025-08-15T01:31:21.459Z,14,GR86-049-88,2.3000000000000003,-1.027,0.087,3.5700000000000003,5.0,7097.0,73.63,73.05,
2025-08-15T01:31:21.501Z,14,GR86-049-88,-0.6000000000000001,-1.227,-0.002,3.3200000000000003,5.0,,84.295,83.64,208.17
2025-08-15T01:31:21.544Z,14,GR86-049-88,-2.2,-1.312,-0.003,3.16,5.0,,87.83500000000001,88.34,
2025-08-15T01:31:21.587Z,14,GR86-049-88,-2.2,-1.382,-0.047,2.93,5.0,,92.87,94.55,
2025-08-15T01:31:21.630Z,14,GR86-049-88,2.1,-1.315,-0.142,24.3,5.0,,94.275,96.29,
2025-08-15T01:31:21.673Z,14,GR86-049-88,6.5,-1.467,-0.054,65.82000000000001,5.0,6857.0,97.13,98.305,
2025-08-15T01:31:21.716Z,14,GR86-049-88,6.9,-1.295,-0.038,80.10000000000001,4.0,,98.395,99.055,208.53
2025-08-15T01:31:21.760Z,14,GR86-049-88,7.9,-1.357,-0.077,2.71,4.0,,98.565,100.425,
2025-08-15T01:31:21.803Z,14,GR86-049-88,8.0,-1.31,0.002,3.27,4.0,,103.37,104.865,
2025-08-15T01:31:21.846Z,14,GR86-049-88,9.5,-1.333,-0.222,3.19,4.0,,105.11,105.46,
2025-08-15T01:31:21.889Z,14,GR86-049-88,13.4,-1.327,-0.036,3.14,4.0,6682.0,100.425,102.045,
2025-08-15T01:31:21.932Z,14,GR86-049-88,14.7,-1.244,-0.17,3.08,4.0,,91.345,93.835,192.83
2025-08-15T01:31:21.975Z,14,GR86-049-88,14.4,-1.21,-0.257,2.97,4.0,,86.37,87.53,
2025-08-15T01:31:22.020Z,14,GR86-049-88,14.2,-1.335,-0.037,2.77,4.0,,86.875,88.46000000000001,
2025-08-15T01:31:22.063Z,14,GR86-049-88,13.8,-1.302,-0.247,2.65,4.0,,85.685,87.12,
2025-08-15T01:31:22.107Z,14,GR86-049-88,11.0,-1.209,-0.177,2.58,4.0,6245.0,81.06,81.93,
2025-08-15T01:31:22.150Z,14,GR86-049-88,9.2,-1.362,-0.127,2.53,4.0,,79.045,80.68,182.26
2025-08-15T01:31:22.193Z,14,GR86-049-88,7.0,-1.196,-0.155,2.49,4.0,,76.65,78.025,
2025-08-15T01:31:22.236Z,14,GR86-049-88,3.5,-1.204,-0.084,2.49,4.0,,69.495,70.485,
2025-08-15T01:31:22.280Z,14,GR86-049-88,2.5,-1.189,-0.179,2.48,4.0,,59.805,60.08,
2025-08-15T01:31:22.323Z,14,GR86-049-88,5.0,-1.067,-0.092,2.48,4.0,6467.0,54.615,55.835,
2025-08-15T01:31:22.366Z,14,GR86-049-88,5.5,-1.048,-0.027,2.47,4.0,,49.425,50.1,174.98
2025-08-15T01:31:22.409Z,14,GR86-049-88,0.3,-1.059,0.026,2.48,4.0,,47.58,48.175,
2025-08-15T01:31:22.452Z,14,GR86-049-88,-7.2,-0.995,0.005,12.59,4.0,,51.565,51.870000000000005,
2025-08-15T01:31:22.495Z,14,GR86-049-88,-10.8,-1.148,-0.132,52.64,3.0,,63.375,63.405,
2025-08-15T01:31:22.539Z,14,GR86-049-88,-10.5,-1.36,-0.15,4.34,3.0,6299.0,79.365,80.74,
2025-08-15T01:31:22.582Z,14,GR86-049-88,-8.5,-1.336,-0.08,4.19,3.0,,85.275,87.18,167.84
2025-08-15T01:31:22.625Z,14,GR86-049-88,-7.6,-1.366,-0.216,3.95,3.0,,84.295,84.74,
2025-08-15T01:31:22.668Z,14,GR86-049-88,-7.0,-1.308,-0.104,3.83,3.0,,78.08500000000001,79.595,
2025-08-15T01:31:22.711Z,14,GR86-049-88,-4.1000000000000005,-1.152,-0.269,3.65,3.0,,60.885,62.565000000000005,
2025-08-15T01:31:22.754Z,14,GR86-049-88,-0.5,-0.852,-0.451,3.41,3.0,6069.0,40.715,41.995,
2025-08-15T01:31:22.797Z,14,GR86-049-88,1.7000000000000002,-0.868,-0.224,3.19,3.0,,26.08,27.085,162.67000000000002
2025-08-15T01:31:22.840Z,14,GR86-049-88,0.5,-0.5,-0.595,2.77,3.0,,22.555,23.27,
2025-08-15T01:31:22.926Z,14,GR86-049-88,-7.1000000000000005,-0.724,-0.535,2.62,3.0,,24.95,25.425,
2025-08-15T01:31:23.012Z,14,GR86-049-88,-22.1,-0.68,-0.648,2.46,3.0,6359.0,30.995,31.575,152.81
2025-08-15T01:31:23.055Z,14,GR86-049-88,-22.200000000000003,-0.75,-0.662,2.46,3.0,,32.275,32.99,
2025-08-15T01:31:23.099Z,14,GR86-049-88,-22.6,-0.766,-0.761,2.46,3.0,,32.595,33.345,
2025-08-15T01:31:23.143Z,14,GR86-049-88,-22.9,-0.729,-0.842,2.47,3.0,,22.465,23.06,
2025-08-15T01:31:23.186Z,14,GR86-049-88,-22.8,-0.431,-0.989,2.47,3.0,6772.0,8.455,9.125,
2025-08-15T01:31:23.230Z,14,GR86-049-88,-20.5,-0.437,-0.994,2.47,3.0,,0.0,2.045,149.02
2025-08-15T01:31:23.273Z,14,GR86-049-88,-17.3,-0.315,-0.993,2.47,3.0,,0.0,0.0,
2025-08-15T01:31:23.316Z,14,GR86-049-88,-14.9,-0.183,-1.07,2.47,3.0,,0.0,0.0,
2025-08-15T01:31:23.360Z,14,GR86-049-88,-13.2,-0.24,-1.072,2.47,3.0,,0.0,0.0,
2025-08-15T01:31:23.402Z,14,GR86-049-88,-12.0,-0.146,-1.054,2.46,3.0,6304.0,0.0,0.0,
2025-08-15T01:31:23.446Z,14,GR86-049-88,-9.4,-0.14,-1.134,2.46,3.0,,0.0,0.0,144.76
2025-08-15T01:31:23.489Z,14,GR86-049-88,-5.0,-0.2,-1.116,2.46,3.0,,0.0,0.0,
2025-08-15T01:31:23.532Z,14,GR86-049-88,-0.3,-0.242,-1.146,2.48,3.0,,0.0,0.0,
2025-08-15T01:31:23.575Z,14,GR86-049-88,3.9,-0.183,-1.204,2.47,3.0,,0.0,0.0,
2025-08-15T01:31:23.663Z,14,GR86-049-88,4.9,-0.23,-1.162,2.47,3.0,6377.0,0.0,0.0,142.34
2025-08-15T01:31:23.706Z,14,GR86-049-88,-2.3000000000000003,-0.129,-1.132,2.47,3.0,,0.0,0.0,
2025-08-15T01:31:23.749Z,14,GR86-049-88,-4.4,-0.217,-1.162,2.66,3.0,,0.0,0.0,
2025-08-15T01:31:23.792Z,14,GR86-049-88,-5.5,-0.226,-1.189,4.54,3.0,,0.0,0.0,
2025-08-15T01:31:23.879Z,14,GR86-049-88,-8.1,-0.163,-1.258,17.96,3.0,6276.0,0.0,0.0,139.46
2025-08-15T01:31:23.922Z,14,GR86-049-88,-18.3,-0.101,-1.269,21.99,3.0,,0.0,0.0,
2025-08-15T01:31:23.965Z,14,GR86-049-88,-17.8,-0.149,-1.231,23.82,3.0,,0.0,0.0,
2025-08-15T01:31:24.008Z,14,GR86-049-88,-15.6,-0.156,-1.247,27.32,3.0,,0.0,0.0,
2025-08-15T01:31:24.051Z,14,GR86-049-88,-15.2,-0.118,-1.305,31.0,3.0,6205.0,0.0,0.0,
2025-08-15T01:31:24.094Z,14,GR86-049-88,-18.6,0.065,-1.254,31.76,3.0,,0.0,0.0,138.03
2025-08-15T01:31:24.137Z,14,GR86-049-88,-25.8,0.038,-1.251,32.07,3.0,,0.0,0.0,
2025-08-15T01:31:24.180Z,14,GR86-049-88,-33.2,0.081,-1.245,32.63,3.0,,0.0,0.0,
2025-08-15T01:31:24.266Z,14,GR86-049-88,-33.1,0.002,-1.366,33.86,3.0,6180.0,0.0,0.0,
2025-08-15T01:31:24.309Z,14,GR86-049-88,-30.8,0.075,-1.336,35.980000000000004,3.0,,0.0,0.0,136.18
2025-08-15T01:31:24.352Z,14,GR86-049-88,-32.800000000000004,0.069,-1.321,41.54,3.0,,0.0,0.0,
2025-08-15T01:31:24.395Z,14,GR86-049-88,-33.4,0.019,-1.274,76.2,3.0,,0.0,0.0,
2025-08-15T01:31:24.439Z,14,GR86-049-88,-28.0,0.043,-1.273,99.71,3.0,,0.0,0.0,
2025-08-15T01:31:24.482Z,14,GR86-049-88,-20.4,0.08,-1.265,99.77,3.0,6400.0,0.0,0.0,
2025-08-15T01:31:24.525Z,14,GR86-049-88,-16.5,0.135,-1.333,99.77,3.0,,0.0,0.0,133.5
2025-08-15T01:31:24.568Z,14,GR86-049-88,-16.7,0.096,-1.171,99.77,3.0,,0.0,0.0,
2025-08-15T01:31:24.611Z,14,GR86-049-88,-18.7,-0.007,-1.283,99.78,3.0,,0.0,0.0,
2025-08-15T01:31:24.655Z,14,GR86-049-88,-20.700000000000003,0.166,-1.249,99.77,3.0,,0.0,0.0,
2025-08-15T01:31:24.697Z,14,GR86-049-88,-20.3,0.38,-1.17,99.77,3.0,6377.0,0.0,0.0,
2025-08-15T01:31:24.740Z,14,GR86-049-88,-15.8,0.003,-0.995,99.78,3.0,,0.0,0.0,133.54
2025-08-15T01:31:24.783Z,14,GR86-049-88,-15.0,0.113,-1.029,99.79,3.0,,0.0,0.0,
2025-08-15T01:31:24.826Z,14,GR86-049-88,-14.0,0.193,-0.976,99.78,3.0,,0.0,0.0,
2025-08-15T01:31:24.869Z,14,GR86-049-88,-12.2,0.236,-1.078,99.79,3.0,,0.0,0.0,
2025-08-15T01:31:24.912Z,14,GR86-049-88,-11.3,0.277,-1.088,99.77,3.0,6479.0,0.0,0.0,
2025-08-15T01:31:24.955Z,14,GR86-049-88,-10.3,0.013,-1.273,99.78,3.0,,0.0,0.0,134.81
2025-08-15T01:31:24.999Z,14,GR86-049-88,-8.6,0.273,-1.03,99.78,3.0,,0.0,0.0,
2025-08-15T01:31:25.042Z,14,GR86-049-88,-5.1000000000000005,0.088,-1.125,99.78,3.0,,0.0,0.0,
2025-08-15T01:31:25.085Z,14,GR86-049-88,3.4000000000000004,0.034,-0.968,99.78,3.0,,0.0,0.0,
2025-08-15T01:31:25.171Z,14,GR86-049-88,17.6,0.369,-1.369,99.79,3.0,6732.0,0.0,0.0,134.64
2025-08-15T01:31:25.215Z,14,GR86-049-88,18.2,0.542,-1.269,99.78,3.0,,0.0,0.0,
2025-08-15T01:31:25.259Z,14,GR86-049-88,8.8,-0.002,-1.211,99.8,3.0,,0.0,0.0,
2025-08-15T01:31:25.302Z,14,GR86-049-88,-1.9,0.057,-1.372,99.8,3.0,,0.0,0.0,
2025-08-15T01:31:25.346Z,14,GR86-049-88,-8.1,0.239,-1.401,99.78,3.0,6900.0,0.0,0.0,
2025-08-15T01:31:25.389Z,14,GR86-049-88,-6.0,0.236,-1.249,99.77,3.0,,0.0,0.0,135.92000000000002
2025-08-15T01:31:25.432Z,14,GR86-049-88,8.3,0.181,-1.352,99.79,3.0,,0.0,0.0,
2025-08-15T01:31:25.475Z,14,GR86-049-88,19.4,0.159,-1.204,99.78,3.0,,0.0,0.0,
2025-08-15T01:31:25.520Z,14,GR86-049-88,21.1,0.157,-1.2,99.79,3.0,,0.0,0.0,
2025-08-15T01:31:25.563Z,14,GR86-049-88,12.0,0.143,-1.305,99.8,3.0,6730.0,0.0,0.0,
2025-08-15T01:31:25.606Z,14,GR86-049-88,2.5,0.18,-1.319,99.79,3.0,,0.0,0.0,136.16
2025-08-15T01:31:25.650Z,14,GR86-049-88,1.4,0.191,-1.303,99.78,3.0,,0.0,0.0,
2025-08-15T01:31:25.693Z,14,GR86-049-88,9.5,0.157,-1.227,99.78,3.0,,0.0,0.0,
2025-08-15T01:31:25.736Z,14,GR86-049-88,21.200000000000003,0.124,-1.252,99.76,3.0,,0.0,0.0,
2025-08-15T01:31:25.780Z,14,GR86-049-88,31.0,0.21,-1.22,99.77,3.0,6663.0,0.0,0.0,
2025-08-15T01:31:25.823Z,14,GR86-049-88,33.9,0.172,-1.195,99.76,3.0,,0.0,0.0,136.01
2025-08-15T01:31:25.866Z,14,GR86-049-88,36.1,0.192,-1.091,99.77,3.0,,0.0,0.0,
2025-08-15T01:31:25.909Z,14,GR86-049-88,38.900000000000006,0.206,-1.135,99.76,3.0,,0.0,0.0,
2025-08-15T01:31:25.952Z,14,GR86-049-88,40.400000000000006,0.183,-1.222,99.78,3.0,,0.0,0.0,
2025-08-15T01:31:25.995Z,14,GR86-049-88,39.7,0.191,-1.25,99.8,3.0,6725.0,0.0,0.0,
2025-08-15T01:31:26.039Z,14,GR86-049-88,33.5,0.169,-1.272,99.77,3.0,,0.0,0.0,135.83
2025-08-15T01:31:26.082Z,14,GR86-049-88,33.6,0.138,-1.188,99.78,3.0,,0.0,0.0,
2025-08-15T01:31:26.125Z,14,GR86-049-88,37.1,0.199,-1.181,99.78,3.0,,0.0,0.0,
2025-08-15T01:31:26.169Z,14,GR86-049-88,37.1,0.251,-1.158,99.79,3.0,,0.0,0.0,
2025-08-15T01:31:26.211Z,14,GR86-049-88,26.6,0.193,-1.171,99.81,3.0,6773.0,0.0,0.0,
2025-08-15T01:31:26.255Z,14,GR86-049-88,10.4,0.151,-1.267,99.81,3.0,,0.0,0.0,136.07
2025-08-15T01:31:26.299Z,14,GR86-049-88,-3.2,0.108,-1.243,99.77,3.0,,0.0,0.0,
2025-08-15T01:31:26.341Z,14,GR86-049-88,0.9,0.148,-1.189,99.78,3.0,,0.0,0.0,
2025-08-15T01:31:26.384Z,14,GR86-049-88,15.2,0.193,-1.194,99.78,3.0,,0.0,0.0,
2025-08-15T01:31:26.427Z,14,GR86-049-88,27.6,0.199,-1.167,99.77,3.0,6750.0,0.0,0.0,
2025-08-15T01:31:26.470Z,14,GR86-049-88,34.6,0.212,-1.131,99.78,3.0,,0.0,0.0,136.86
2025-08-15T01:31:26.513Z,14,GR86-049-88,36.3,0.24,-1.076,99.76,3.0,,0.0,0.0,
2025-08-15T01:31:26.556Z,14,GR86-049-88,36.5,0.23,-0.962,99.77,3.0,,0.0,0.0,
2025-08-15T01:31:26.600Z,14,GR86-049-88,35.5,0.254,-0.628,99.78,3.0,,0.0,0.0,
2025-08-15T01:31:26.642Z,14,GR86-049-88,35.800000000000004,0.234,-0.888,99.78,3.0,6783.0,0.0,0.0,
2025-08-15T01:31:26.685Z,14,GR86-049-88,36.8,0.21,-0.764,99.78,3.0,,0.0,0.0,137.22
2025-08-15T01:31:26.728Z,14,GR86-049-88,37.3,0.242,-0.636,99.78,3.0,,0.0,0.0,
2025-08-15T01:31:26.771Z,14,GR86-049-88,36.8,0.165,-0.448,99.78,3.0,,0.0,0.0,
2025-08-15T01:31:26.815Z,14,GR86-049-88,34.6,0.048,-0.561,99.78,3.0,,0.0,0.0,
2025-08-15T01:31:26.857Z,14,GR86-049-88,24.200000000000003,0.146,-0.857,99.81,3.0,6765.0,0.0,0.0,
2025-08-15T01:31:26.901Z,14,GR86-049-88,-4.5,0.142,-1.02,99.82,3.0,,0.0,0.0,137.17000000000002
2025-08-15T01:31:26.944Z,14,GR86-049-88,-28.3,0.137,-1.293,99.84,3.0,,0.0,0.0,
2025-08-15T01:31:26.987Z,14,GR86-049-88,-48.0,0.248,-1.056,99.78,3.0,,0.0,0.0,
2025-08-15T01:31:27.030Z,14,GR86-049-88,-58.900000000000006,0.109,-1.113,99.78,3.0,,0.0,0.0,
2025-08-15T01:31:27.073Z,14,GR86-049-88,-61.3,0.029,-1.146,99.77,3.0,6810.0,0.0,0.0,
2025-08-15T01:31:27.116Z,14,GR86-049-88,-65.8,0.109,-1.359,99.8,3.0,,0.0,0.0,138.19
2025-08-15T01:31:27.160Z,14,GR86-049-88,-68.7,0.252,-1.188,99.78,3.0,,0.0,0.0,
2025-08-15T01:31:27.203Z,14,GR86-049-88,-68.7,0.071,-0.986,99.76,3.0,,0.0,0.0,
2025-08-15T01:31:27.246Z,14,GR86-049-88,-67.3,-0.069,-0.993,99.77,3.0,,0.0,0.0,
2025-08-15T01:31:27.289Z,14,GR86-049-88,-65.2,0.14,-0.833,99.76,3.0,6785.0,0.0,0.0,
2025-08-15T01:31:27.332Z,14,GR86-049-88,-56.5,0.136,-1.097,99.75,3.0,,0.0,0.0,140.06
2025-08-15T01:31:27.375Z,14,GR86-049-88,-44.900000000000006,0.142,-1.015,99.75,3.0,,0.0,0.0,
2025-08-15T01:31:27.420Z,14,GR86-049-88,-11.6,0.207,-0.997,99.75,3.0,,0.0,0.0,
2025-08-15T01:31:27.463Z,14,GR86-049-88,10.8,0.05,-0.994,99.74,3.0,,0.0,0.0,
2025-08-15T01:31:27.506Z,14,GR86-049-88,21.700000000000003,0.117,-0.935,99.76,3.0,6824.0,0.0,0.0,
2025-08-15T01:31:27.549Z,14,GR86-049-88,21.8,0.247,-1.11,99.77,3.0,,0.0,0.0,141.0
2025-08-15T01:31:27.592Z,14,GR86-049-88,17.2,0.274,-1.178,99.78,3.0,,0.0,0.0,
2025-08-15T01:31:27.635Z,14,GR86-049-88,14.9,0.216,-1.134,99.77,3.0,,0.0,0.0,
2025-08-15T01:31:27.679Z,14,GR86-049-88,15.1,0.194,-1.028,99.78,3.0,,0.0,0.0,
2025-08-15T01:31:27.765Z,14,GR86-049-88,-15.6,0.234,-0.994,99.8,3.0,6938.0,0.0,0.0,142.66
2025-08-15T01:31:27.808Z,14,GR86-049-88,-37.9,0.25,-1.008,99.77,3.0,,0.0,0.0,
2025-08-15T01:31:27.851Z,14,GR86-049-88,-51.7,0.187,-1.084,99.79,3.0,,0.0,0.0,
2025-08-15T01:31:27.894Z,14,GR86-049-88,-54.7,0.083,-0.842,99.78,3.0,,0.0,0.0,
2025-08-15T01:31:27.937Z,14,GR86-049-88,-54.3,0.074,-0.809,99.77,3.0,6876.0,0.0,0.0,
2025-08-15T01:31:27.980Z,14,GR86-049-88,-49.6,0.121,-1.002,99.78,3.0,,0.0,0.0,143.15
2025-08-15T01:31:28.023Z,14,GR86-049-88,-46.900000000000006,0.053,-0.845,99.78,3.0,,0.0,0.0,
2025-08-15T01:31:28.066Z,14,GR86-049-88,-40.1,0.116,-1.241,99.76,3.0,,0.0,0.0,
2025-08-15T01:31:28.109Z,14,GR86-049-88,-30.5,0.274,-1.109,99.76,3.0,,0.0,0.0,
2025-08-15T01:31:28.152Z,14,GR86-049-88,-21.200000000000003,0.176,-1.067,99.76,3.0,6909.0,0.0,0.0,
2025-08-15T01:31:28.195Z,14,GR86-049-88,-12.0,0.161,-1.048,99.76,3.0,,0.0,0.0,143.35
2025-08-15T01:31:28.239Z,14,GR86-049-88,0.8,0.22,-0.867,99.77,3.0,,0.0,0.0,
2025-08-15T01:31:28.282Z,14,GR86-049-88,6.9,0.181,-0.662,99.78,3.0,,0.0,0.0,
2025-08-15T01:31:28.325Z,14,GR86-049-88,9.4,0.138,-0.37,99.76,3.0,,0.0,0.0,
2025-08-15T01:31:28.369Z,14,GR86-049-88,9.6,-0.006,-0.239,99.77,3.0,6902.0,0.0,0.0,
2025-08-15T01:31:28.411Z,14,GR86-049-88,11.2,-0.085,-0.276,99.77,3.0,,0.0,0.0,144.36
2025-08-15T01:31:28.454Z,14,GR86-049-88,14.3,0.328,-0.526,99.77,3.0,,0.0,0.0,
2025-08-15T01:31:28.497Z,14,GR86-049-88,16.5,0.229,-0.672,99.78,3.0,,0.0,0.0,
2025-08-15T01:31:28.583Z,14,GR86-049-88,6.0,0.11,-0.23,99.77,3.0,6942.0,0.0,0.0,
2025-08-15T01:31:28.626Z,14,GR86-049-88,3.5,0.009,-0.102,99.78,3.0,,0.0,0.0,146.11
2025-08-15T01:31:28.669Z,14,GR86-049-88,3.9,0.026,0.003,99.77,3.0,,0.0,0.0,
2025-08-15T01:31:28.712Z,14,GR86-049-88,3.9,0.063,0.12,99.8,3.0,,0.0,0.0,
2025-08-15T01:31:28.755Z,14,GR86-049-88,3.1,-0.016,0.119,99.76,3.0,,0.0,0.0,
2025-08-15T01:31:28.800Z,14,GR86-049-88,0.7000000000000001,0.227,0.317,99.78,3.0,7009.0,0.0,0.0,
2025-08-15T01:31:28.843Z,14,GR86-049-88,1.1,0.36,0.604,99.77,3.0,,0.0,0.0,146.36
2025-08-15T01:31:28.886Z,14,GR86-049-88,4.9,0.345,0.281,99.78,3.0,,0.0,0.0,
2025-08-15T01:31:28.930Z,14,GR86-049-88,7.800000000000001,0.197,0.6920000000000001,99.78,3.0,,0.0,0.0,
2025-08-15T01:31:28.973Z,14,GR86-049-88,8.4,0.134,0.792,99.77,3.0,,0.0,0.0,
2025-08-15T01:31:29.016Z,14,GR86-049-88,8.4,-0.011,0.507,99.8,3.0,7115.0,0.0,0.0,
2025-08-15T01:31:29.060Z,14,GR86-049-88,6.0,0.037,0.642,99.77,3.0,,0.0,0.0,148.54
2025-08-15T01:31:29.102Z,14,GR86-049-88,5.6000000000000005,-0.046,0.5730000000000001,99.76,3.0,,0.0,0.0,
2025-08-15T01:31:29.145Z,14,GR86-049-88,6.0,0.104,0.393,99.77,3.0,,0.0,0.0,
2025-08-15T01:31:29.189Z,14,GR86-049-88,8.9,0.078,0.625,99.79,3.0,,0.0,0.0,
2025-08-15T01:31:29.232Z,14,GR86-049-88,12.1,0.217,0.582,99.78,3.0,7278.0,0.0,0.0,
2025-08-15T01:31:29.275Z,14,GR86-049-88,14.2,0.271,0.336,99.77,3.0,,0.0,0.0,149.18
2025-08-15T01:31:29.320Z,14,GR86-049-88,14.3,0.224,0.553,99.77,3.0,,0.0,0.0,
2025-08-15T01:31:29.363Z,14,GR86-049-88,14.3,0.085,0.36,99.78,3.0,,0.0,0.0,
2025-08-15T01:31:29.406Z,14,GR86-049-88,14.1,0.175,0.357,99.8,3.0,,0.0,0.0,
2025-08-15T01:31:29.449Z,14,GR86-049-88,13.4,0.122,0.474,99.79,3.0,7329.0,0.0,0.0,
2025-08-15T01:31:29.492Z,14,GR86-049-88,12.2,0.2,0.32,99.78,3.0,,0.0,0.0,149.59
2025-08-15T01:31:29.535Z,14,GR86-049-88,12.0,0.192,0.305,99.75,3.0,,0.0,0.0,
2025-08-15T01:31:29.578Z,14,GR86-049-88,11.7,0.151,0.368,99.77,3.0,,0.0,0.0,
2025-08-15T01:31:29.621Z,14,GR86-049-88,11.2,0.187,0.3,99.75,3.0,,0.0,0.0,
2025-08-15T01:31:29.664Z,14,GR86-049-88,10.5,0.211,0.311,99.78,3.0,7088.0,0.0,0.0,
2025-08-15T01:31:29.707Z,14,GR86-049-88,10.5,0.127,0.31,99.75,3.0,,0.0,0.0,150.66
2025-08-15T01:31:29.750Z,14,GR86-049-88,10.5,-0.119,0.321,99.77,4.0,,0.0,0.0,
2025-08-15T01:31:29.793Z,14,GR86-049-88,10.5,0.457,0.295,99.76,4.0,,0.0,0.0,
2025-08-15T01:31:29.836Z,14,GR86-049-88,10.8,0.244,0.245,99.77,4.0,,0.0,0.0,
2025-08-15T01:31:29.879Z,14,GR86-049-88,10.7,0.105,0.35,99.78,4.0,7192.0,0.0,0.0,
2025-08-15T01:31:29.922Z,14,GR86-049-88,9.2,0.031,0.266,99.77,4.0,,0.0,0.0,153.69
2025-08-15T01:31:29.965Z,14,GR86-049-88,8.5,0.11,0.23,99.76,4.0,,0.0,0.0,
2025-08-15T01:31:30.008Z,14,GR86-049-88,8.4,0.173,0.317,99.76,4.0,,0.0,0.0,
2025-08-15T01:31:30.051Z,14,GR86-049-88,8.4,0.173,0.222,99.77,4.0,,0.0,0.0,
2025-08-15T01:31:30.094Z,14,GR86-049-88,8.3,0.168,0.237,99.78,4.0,6976.0,0.0,0.0,
2025-08-15T01:31:30.137Z,14,GR86-049-88,8.0,0.165,0.254,99.76,4.0,,0.0,0.0,155.03
2025-08-15T01:31:30.180Z,14,GR86-049-88,7.5,0.17,0.188,99.77,4.0,,0.0,0.0,
2025-08-15T01:31:30.223Z,14,GR86-049-88,7.5,0.186,0.22,99.78,4.0,,0.0,0.0,
2025-08-15T01:31:30.266Z,14,GR86-049-88,7.5,0.19,0.186,99.77,4.0,,0.0,0.0,
2025-08-15T01:31:30.352Z,14,GR86-049-88,7.2,0.12,0.17,99.76,4.0,6104.0,0.0,0.0,156.66
2025-08-15T01:31:30.395Z,14,GR86-049-88,7.0,0.094,0.147,99.77,4.0,,0.0,0.0,
2025-08-15T01:31:30.439Z,14,GR86-049-88,6.9,0.175,0.128,99.76,4.0,,0.0,0.0,
2025-08-15T01:31:30.482Z,14,GR86-049-88,6.6000000000000005,0.138,0.137,99.76,4.0,,0.0,0.0,
2025-08-15T01:31:30.525Z,14,GR86-049-88,5.6000000000000005,0.092,0.13,99.79,4.0,6255.0,0.0,0.0,
2025-08-15T01:31:30.568Z,14,GR86-049-88,5.0,0.094,0.117,99.75,4.0,,0.0,0.0,158.21
2025-08-15T01:31:30.611Z,14,GR86-049-88,4.9,0.132,0.112,99.78,4.0,,0.0,0.0,
2025-08-15T01:31:30.654Z,14,GR86-049-88,4.800000000000001,0.14,0.064,99.78,4.0,,0.0,0.0,
2025-08-15T01:31:30.697Z,14,GR86-049-88,4.7,0.164,0.053,99.78,4.0,,0.0,0.0,
2025-08-15T01:31:30.740Z,14,GR86-049-88,4.7,0.115,0.069,99.77,4.0,6292.0,0.0,0.0,
2025-08-15T01:31:30.783Z,14,GR86-049-88,4.9,0.127,0.057,99.78,4.0,,0.0,0.0,159.66
2025-08-15T01:31:30.826Z,14,GR86-049-88,4.9,0.164,0.065,99.76,4.0,,0.0,0.0,
2025-08-15T01:31:30.869Z,14,GR86-049-88,4.9,0.132,0.071,99.78,4.0,,0.0,0.0,
2025-08-15T01:31:30.912Z,14,GR86-049-88,4.800000000000001,0.172,0.055,99.78,4.0,,0.0,0.0,
2025-08-15T01:31:30.955Z,14,GR86-049-88,3.9,0.184,0.066,99.78,4.0,6369.0,0.0,0.0,
2025-08-15T01:31:30.999Z,14,GR86-049-88,3.9,0.124,0.041,99.77,4.0,,0.0,0.0,161.16
2025-08-15T01:31:31.042Z,14,GR86-049-88,3.9,0.148,0.056,99.78,4.0,,0.0,0.0,
2025-08-15T01:31:31.085Z,14,GR86-049-88,3.9,0.157,0.05,99.76,4.0,,0.0,0.0,
2025-08-15T01:31:31.128Z,14,GR86-049-88,4.0,0.171,0.047,99.77,4.0,,0.0,0.0,
2025-08-15T01:31:31.171Z,14,GR86-049-88,3.3000000000000003,0.134,0.037,99.77,4.0,6448.0,0.0,0.0,
2025-08-15T01:31:31.215Z,14,GR86-049-88,0.9,0.13,0.015,99.77,4.0,,0.0,0.0,162.57
2025-08-15T01:31:31.259Z,14,GR86-049-88,-1.3,0.162,-0.039,99.78,4.0,,0.0,0.0,
2025-08-15T01:31:31.301Z,14,GR86-049-88,-2.0,0.171,-0.054,99.77,4.0,,0.0,0.0,
2025-08-15T01:31:31.344Z,14,GR86-049-88,-2.1,0.143,-0.088,99.78,4.0,,0.0,0.0,
2025-08-15T01:31:31.387Z,14,GR86-049-88,-2.4000000000000004,0.133,-0.14,99.76,4.0,6484.0,0.0,0.0,
2025-08-15T01:31:31.430Z,14,GR86-049-88,-3.2,0.125,-0.162,99.77,4.0,,0.0,0.0,164.25
2025-08-15T01:31:31.473Z,14,GR86-049-88,-4.4,0.114,-0.2,99.74,4.0,,0.0,0.0,
2025-08-15T01:31:31.516Z,14,GR86-049-88,-5.300000000000001,0.089,-0.231,99.78,4.0,,0.0,0.0,
2025-08-15T01:31:31.560Z,14,GR86-049-88,-6.0,0.149,-0.288,99.77,4.0,,0.0,0.0,
2025-08-15T01:31:31.603Z,14,GR86-049-88,-6.300000000000001,0.148,-0.306,99.78,4.0,6530.0,0.0,0.0,
2025-08-15T01:31:31.646Z,14,GR86-049-88,-6.300000000000001,0.13,-0.305,99.76,4.0,,0.0,0.0,165.67000000000002
2025-08-15T01:31:31.689Z,14,GR86-049-88,-6.300000000000001,0.115,-0.318,99.78,4.0,,0.0,0.0,
2025-08-15T01:31:31.732Z,14,GR86-049-88,-6.2,0.106,-0.335,99.77,4.0,,0.0,0.0,
2025-08-15T01:31:31.775Z,14,GR86-049-88,-6.300000000000001,0.096,-0.351,99.77,4.0,,0.0,0.0,
2025-08-15T01:31:31.820Z,14,GR86-049-88,-7.4,0.147,-0.398,99.78,4.0,6593.0,0.0,0.0,
2025-08-15T01:31:31.863Z,14,GR86-049-88,-8.3,0.136,-0.394,99.77,4.0,,0.0,0.0,167.13
2025-08-15T01:31:31.906Z,14,GR86-049-88,-9.1,0.132,-0.406,99.78,4.0,,0.0,0.0,
2025-08-15T01:31:31.950Z,14,GR86-049-88,-9.9,0.134,-0.404,99.77,4.0,,0.0,0.0,
2025-08-15T01:31:31.993Z,14,GR86-049-88,-10.5,0.114,-0.419,99.79,4.0,,0.0,0.0,
2025-08-15T01:31:32.036Z,14,GR86-049-88,-10.6,0.111,-0.43,99.78,4.0,6641.0,0.0,0.0,
2025-08-15T01:31:32.080Z,14,GR86-049-88,-10.6,0.14,-0.456,99.77,4.0,,0.0,0.0,168.55
2025-08-15T01:31:32.123Z,14,GR86-049-88,-10.5,0.136,-0.468,99.77,4.0,,0.0,0.0,
2025-08-15T01:31:32.209Z,14,GR86-049-88,-10.3,0.137,-0.527,99.76,4.0,,0.0,0.0,
2025-08-15T01:31:32.252Z,14,GR86-049-88,-10.3,0.136,-0.536,99.77,4.0,6699.0,0.0,0.0,
2025-08-15T01:31:32.295Z,14,GR86-049-88,-10.3,0.113,-0.551,99.78,4.0,,0.0,0.0,169.89
2025-08-15T01:31:32.339Z,14,GR86-049-88,-10.1,0.119,-0.586,99.78,4.0,,0.0,0.0,
2025-08-15T01:31:32.382Z,14,GR86-049-88,-9.9,0.132,-0.5630000000000001,99.78,4.0,,0.0,0.0,
2025-08-15T01:31:32.425Z,14,GR86-049-88,-8.9,0.13,-0.548,99.76,4.0,,0.0,0.0,
2025-08-15T01:31:32.469Z,14,GR86-049-88,-7.5,0.134,-0.523,99.75,4.0,6758.0,0.0,0.0,
2025-08-15T01:31:32.511Z,14,GR86-049-88,-5.7,0.139,-0.482,99.75,4.0,,0.0,0.0,171.06
2025-08-15T01:31:32.554Z,14,GR86-049-88,-4.800000000000001,0.164,-0.432,99.76,4.0,,0.0,0.0,
2025-08-15T01:31:32.597Z,14,GR86-049-88,-4.7,0.14,-0.38,99.78,4.0,,0.0,0.0,
2025-08-15T01:31:32.640Z,14,GR86-049-88,-4.7,0.107,-0.307,99.77,4.0,,0.0,0.0,
2025-08-15T01:31:32.683Z,14,GR86-049-88,-4.800000000000001,0.097,-0.278,99.76,4.0,6804.0,0.0,0.0,
2025-08-15T01:31:32.726Z,14,GR86-049-88,-4.800000000000001,0.123,-0.263,99.75,4.0,,0.0,0.0,173.69
2025-08-15T01:31:32.769Z,14,GR86-049-88,-4.6000000000000005,0.107,-0.245,99.76,4.0,,0.0,0.0,
2025-08-15T01:31:32.812Z,14,GR86-049-88,-2.9000000000000004,0.133,-0.225,99.75,4.0,,0.0,0.0,
2025-08-15T01:31:32.855Z,14,GR86-049-88,-2.0,0.121,-0.203,99.78,4.0,,0.0,0.0,
2025-08-15T01:31:32.899Z,14,GR86-049-88,-1.9,0.098,-0.143,99.76,4.0,6851.0,0.0,0.0,
2025-08-15T01:31:32.941Z,14,GR86-049-88,-1.9,0.101,-0.133,99.76,4.0,,0.0,0.0,174.87
2025-08-15T01:31:32.985Z,14,GR86-049-88,-2.0,0.086,-0.112,99.76,4.0,,0.0,0.0,
2025-08-15T01:31:33.028Z,14,GR86-049-88,-2.6,0.098,-0.091,99.75,4.0,,0.0,0.0,
2025-08-15T01:31:33.071Z,14,GR86-049-88,-4.800000000000001,0.087,-0.1,99.77,4.0,,0.0,0.0,
2025-08-15T01:31:33.115Z,14,GR86-049-88,-6.800000000000001,0.1,-0.144,99.77,4.0,6902.0,0.0,0.0,
2025-08-15T01:31:33.157Z,14,GR86-049-88,-7.1000000000000005,0.072,-0.188,98.71,4.0,,0.0,0.0,176.29
2025-08-15T01:31:33.200Z,14,GR86-049-88,-7.2,0.127,-0.255,8.120000000000001,4.0,,0.0,0.0,
2025-08-15T01:31:33.243Z,14,GR86-049-88,-7.1000000000000005,0.152,-0.288,4.53,4.0,,0.0,0.0,
2025-08-15T01:31:33.286Z,14,GR86-049-88,-4.3,-0.042,-0.295,4.3500000000000005,4.0,,0.0,0.0,
2025-08-15T01:31:33.329Z,14,GR86-049-88,0.2,-0.076,-0.226,4.13,4.0,6982.0,21.47,21.835,
2025-08-15T01:31:33.372Z,14,GR86-049-88,2.7,-0.552,-0.212,3.89,4.0,,36.7,36.67,177.51
2025-08-15T01:31:33.415Z,14,GR86-049-88,2.9000000000000004,-0.883,-0.116,3.69,4.0,,51.18,50.755,
2025-08-15T01:31:33.459Z,14,GR86-049-88,2.7,-1.186,-0.122,3.28,4.0,,65.235,64.67,
2025-08-15T01:31:33.502Z,14,GR86-049-88,2.7,-1.174,-0.117,3.09,4.0,,69.71000000000001,69.19,
2025-08-15T01:31:33.545Z,14,GR86-049-88,3.2,-1.409,-0.135,2.85,4.0,6700.0,72.09,71.58500000000001,
2025-08-15T01:31:33.589Z,14,GR86-049-88,3.9,-1.351,-0.127,2.69,4.0,,71.34,72.73,178.48
2025-08-15T01:31:33.632Z,14,GR86-049-88,3.7,-1.376,-0.077,32.37,4.0,,65.39,67.145,
2025-08-15T01:31:33.675Z,14,GR86-049-88,-0.2,-1.347,-0.086,74.56,4.0,,63.405,64.395,
2025-08-15T01:31:33.720Z,14,GR86-049-88,-4.4,-1.286,-0.121,81.04,3.0,,77.675,77.43,
2025-08-15T01:31:33.763Z,14,GR86-049-88,-7.2,-1.543,-0.197,8.700000000000001,3.0,6377.0,89.96000000000001,90.765,
2025-08-15T01:31:33.806Z,14,GR86-049-88,-11.9,-1.477,0.009,2.69,3.0,,98.185,100.425,174.72
2025-08-15T01:31:33.849Z,14,GR86-049-88,-13.4,-1.415,-0.336,2.66,3.0,,102.365,102.305,
2025-08-15T01:31:33.935Z,14,GR86-049-88,-12.7,-1.453,-0.227,2.63,3.0,,102.24,102.715,
2025-08-15T01:31:33.979Z,14,GR86-049-88,0.7000000000000001,-1.277,-0.37,2.62,3.0,6244.0,95.3,95.36,
2025-08-15T01:31:34.021Z,14,GR86-049-88,6.4,-1.279,-0.151,2.62,3.0,,91.835,93.435,166.76
2025-08-15T01:31:34.064Z,14,GR86-049-88,7.4,-1.339,-0.303,2.62,3.0,,85.015,87.24,
2025-08-15T01:31:34.107Z,14,GR86-049-88,7.4,-1.167,-0.358,2.61,3.0,,78.48,79.44500000000001,
2025-08-15T01:31:34.150Z,14,GR86-049-88,7.6,-1.211,-0.308,2.62,3.0,,72.96000000000001,74.345,
2025-08-15T01:31:34.193Z,14,GR86-049-88,7.7,-1.138,-0.365,2.61,3.0,6753.0,69.16,70.595,
2025-08-15T01:31:34.236Z,14,GR86-049-88,7.0,-1.148,-0.437,2.6,3.0,,57.895,59.27,153.72
2025-08-15T01:31:34.280Z,14,GR86-049-88,9.6,-1.074,-0.402,2.6,3.0,,43.825,45.275,
2025-08-15T01:31:34.366Z,14,GR86-049-88,13.6,-0.903,-0.295,2.77,3.0,,40.395,40.99,
2025-08-15T01:31:34.409Z,14,GR86-049-88,0.1,-0.98,-0.345,36.75,3.0,6288.0,50.845,51.120000000000005,
2025-08-15T01:31:34.452Z,14,GR86-049-88,-15.6,-1.241,-0.487,36.82,2.0,,62.370000000000005,62.335,143.89
2025-08-15T01:31:34.495Z,14,GR86-049-88,-20.3,-1.306,-0.484,4.96,2.0,,69.435,70.595,
2025-08-15T01:31:34.539Z,14,GR86-049-88,-8.6,-1.215,-0.669,4.15,2.0,,62.245000000000005,63.71,
2025-08-15T01:31:34.581Z,14,GR86-049-88,6.0,-1.061,-0.557,3.95,2.0,,42.425,43.705,
2025-08-15T01:31:34.624Z,14,GR86-049-88,16.1,-0.944,-0.293,3.78,2.0,6169.0,26.08,27.115,
2025-08-15T01:31:34.667Z,14,GR86-049-88,20.3,-0.679,-0.5750000000000001,3.62,2.0,,18.325,18.74,139.19
2025-08-15T01:31:34.710Z,14,GR86-049-88,20.9,-0.777,-0.541,3.36,2.0,,16.555,17.365000000000002,
2025-08-15T01:31:34.753Z,14,GR86-049-88,20.1,-0.588,-0.482,3.12,2.0,,18.92,19.76,
2025-08-15T01:31:34.796Z,14,GR86-049-88,13.4,-0.835,-0.849,2.77,2.0,,21.745,22.16,
2025-08-15T01:31:34.840Z,14,GR86-049-88,-7.4,-0.659,-0.76,2.56,2.0,6194.0,28.185,28.87,
2025-08-15T01:31:34.883Z,14,GR86-049-88,-19.700000000000003,-0.706,-0.944,2.51,2.0,,30.245,30.855,132.93
2025-08-15T01:31:34.926Z,14,GR86-049-88,-21.9,-0.7030000000000001,-1.059,2.48,2.0,,30.305,30.855,
2025-08-15T01:31:34.969Z,14,GR86-049-88,-20.700000000000003,-0.8270000000000001,-0.961,2.47,2.0,,28.87,29.59,
2025-08-15T01:31:35.012Z,14,GR86-049-88,-17.2,-0.678,-0.982,2.46,2.0,,27.025,27.805,
2025-08-15T01:31:35.055Z,14,GR86-049-88,-16.1,-0.6880000000000001,-0.968,2.46,2.0,6520.0,24.735,25.635,
2025-08-15T01:31:35.100Z,14,GR86-049-88,-15.7,-0.713,-0.921,2.46,2.0,,18.955,19.64,127.84
2025-08-15T01:31:35.143Z,14,GR86-049-88,-15.0,-0.48,-1.099,2.47,2.0,,14.91,15.505,
2025-08-15T01:31:35.186Z,14,GR86-049-88,-11.8,-0.43,-1.092,2.47,2.0,,11.46,12.27,
2025-08-15T01:31:35.230Z,14,GR86-049-88,-7.9,-0.468,-1.083,2.47,2.0,,6.835,7.4,
2025-08-15T01:31:35.273Z,14,GR86-049-88,-7.1000000000000005,-0.314,-1.125,2.46,2.0,6600.0,1.985,2.215,
2025-08-15T01:31:35.316Z,14,GR86-049-88,-8.1,-0.257,-1.138,2.47,2.0,,0.0,0.0,124.02
2025-08-15T01:31:35.360Z,14,GR86-049-88,-11.3,-0.213,-1.193,2.47,2.0,,0.0,0.0,
2025-08-15T01:31:35.402Z,14,GR86-049-88,-15.3,-0.189,-1.191,2.46,2.0,,0.0,0.0,
2025-08-15T01:31:35.446Z,14,GR86-049-88,-20.700000000000003,-0.19,-1.217,2.47,2.0,,0.0,0.0,
2025-08-15T01:31:35.489Z,14,GR86-049-88,-25.200000000000003,-0.203,-1.204,2.47,2.0,6370.0,0.0,0.0,
2025-08-15T01:31:35.532Z,14,GR86-049-88,-26.1,-0.199,-1.297,2.46,2.0,,0.0,0.0,116.19
2025-08-15T01:31:35.575Z,14,GR86-049-88,-24.4,-0.218,-1.267,2.47,2.0,,0.0,0.0,
2025-08-15T01:31:35.620Z,14,GR86-049-88,-23.3,-0.211,-1.26,2.45,2.0,,0.0,0.0,
2025-08-15T01:31:35.663Z,14,GR86-049-88,-25.0,-0.211,-1.239,2.46,2.0,,0.0,0.0,
2025-08-15T01:31:35.706Z,14,GR86-049-88,-25.6,-0.215,-1.26,2.47,2.0,6285.0,0.0,0.0,
2025-08-15T01:31:35.749Z,14,GR86-049-88,-29.1,-0.208,-1.213,2.48,2.0,,0.0,0.0,113.59
2025-08-15T01:31:35.792Z,14,GR86-049-88,-40.7,-0.2,-1.308,2.5,2.0,,0.0,0.0,
2025-08-15T01:31:35.835Z,14,GR86-049-88,-53.6,-0.229,-1.341,2.48,2.0,,0.0,0.0,
2025-08-15T01:31:35.879Z,14,GR86-049-88,-59.0,-0.242,-1.317,2.47,2.0,,0.0,0.0,
2025-08-15T01:31:35.921Z,14,GR86-049-88,-56.5,-0.236,-1.375,2.64,2.0,6192.0,0.0,0.0,
2025-08-15T01:31:35.964Z,14,GR86-049-88,-49.1,-0.242,-1.392,3.4,2.0,,0.0,0.0,111.76
2025-08-15T01:31:36.007Z,14,GR86-049-88,-41.3,-0.218,-1.379,8.08,2.0,,0.0,0.0,
2025-08-15T01:31:36.050Z,14,GR86-049-88,-34.9,-0.209,-1.38,21.41,2.0,,0.0,0.0,
2025-08-15T01:31:36.093Z,14,GR86-049-88,-33.800000000000004,-0.213,-1.365,24.61,2.0,,0.0,0.0,
2025-08-15T01:31:36.136Z,14,GR86-049-88,-34.4,-0.158,-1.274,25.55,2.0,6095.0,0.0,0.0,
2025-08-15T01:31:36.223Z,14,GR86-049-88,-47.7,-0.116,-1.222,27.86,2.0,,0.0,0.0,110.5
2025-08-15T01:31:36.266Z,14,GR86-049-88,-50.900000000000006,-0.022,-1.18,28.74,2.0,,0.0,0.0,
2025-08-15T01:31:36.309Z,14,GR86-049-88,-51.0,0.295,-1.269,30.02,2.0,,0.0,0.0,
2025-08-15T01:31:36.352Z,14,GR86-049-88,-50.400000000000006,0.302,-1.175,30.23,2.0,6083.0,0.0,0.0,
2025-08-15T01:31:36.395Z,14,GR86-049-88,-49.8,0.257,-1.271,30.72,2.0,,0.0,0.0,109.71
2025-08-15T01:31:36.439Z,14,GR86-049-88,-47.900000000000006,0.111,-1.172,31.86,2.0,,0.0,0.0,
2025-08-15T01:31:36.482Z,14,GR86-049-88,-45.400000000000006,0.257,-1.163,32.53,2.0,,0.0,0.0,
2025-08-15T01:31:36.525Z,14,GR86-049-88,-41.8,0.36,-1.087,33.37,2.0,,0.0,0.0,
2025-08-15T01:31:36.568Z,14,GR86-049-88,-39.900000000000006,0.289,-1.151,33.72,2.0,6404.0,0.0,0.0,
2025-08-15T01:31:36.611Z,14,GR86-049-88,-40.400000000000006,0.166,-1.121,34.01,2.0,,0.0,0.0,108.41
2025-08-15T01:31:36.655Z,14,GR86-049-88,-42.7,0.019,-1.116,34.92,2.0,,0.0,0.0,
2025-08-15T01:31:36.740Z,14,GR86-049-88,-43.3,-0.11,-1.144,36.2,2.0,,0.0,0.0,
2025-08-15T01:31:36.783Z,14,GR86-049-88,-47.1,0.193,-1.323,36.53,2.0,6312.0,0.0,0.0,
2025-08-15T01:31:36.826Z,14,GR86-049-88,-51.1,0.121,-1.281,36.14,2.0,,0.0,0.0,107.0
2025-08-15T01:31:36.869Z,14,GR86-049-88,-52.2,-0.034,-1.197,35.79,2.0,,0.0,0.0,
2025-08-15T01:31:36.912Z,14,GR86-049-88,-51.2,-0.216,-1.209,35.99,2.0,,0.0,0.0,
2025-08-15T01:31:36.955Z,14,GR86-049-88,-39.400000000000006,-0.159,-1.173,36.37,2.0,,0.0,0.0,
2025-08-15T01:31:36.999Z,14,GR86-049-88,-19.0,0.023,-1.138,46.69,2.0,6343.0,0.0,0.0,
2025-08-15T01:31:37.042Z,14,GR86-049-88,-14.3,-0.052,-1.02,85.78,2.0,,0.0,0.0,107.52
2025-08-15T01:31:37.085Z,14,GR86-049-88,-13.8,-0.026,-1.005,99.54,2.0,,0.0,0.0,
2025-08-15T01:31:37.128Z,14,GR86-049-88,-13.8,0.124,-0.99,99.73,2.0,,0.0,0.0,
2025-08-15T01:31:37.171Z,14,GR86-049-88,-12.2,0.281,-0.962,99.74,2.0,,0.0,0.0,
2025-08-15T01:31:37.215Z,14,GR86-049-88,-9.1,0.224,-0.84,99.74,2.0,6363.0,0.0,0.0,
2025-08-15T01:31:37.259Z,14,GR86-049-88,-9.1,0.294,-1.43,99.74,2.0,,0.0,0.0,108.85
2025-08-15T01:31:37.301Z,14,GR86-049-88,-13.9,0.489,-1.225,99.76,2.0,,0.0,0.0,
2025-08-15T01:31:37.387Z,14,GR86-049-88,-23.1,0.116,-1.093,99.77,2.0,,0.0,0.0,
2025-08-15T01:31:37.430Z,14,GR86-049-88,-36.5,0.176,-1.1,99.75,2.0,6616.0,0.0,0.0,
2025-08-15T01:31:37.473Z,14,GR86-049-88,-40.1,0.293,-1.068,99.75,2.0,,0.0,0.0,109.32
2025-08-15T01:31:37.516Z,14,GR86-049-88,-44.400000000000006,0.324,-1.089,99.76,2.0,,0.0,0.0,
2025-08-15T01:31:37.560Z,14,GR86-049-88,-46.6,0.244,-1.05,99.75,2.0,,0.0,0.0,
2025-08-15T01:31:37.603Z,14,GR86-049-88,-46.6,0.194,-1.135,99.73,2.0,,0.0,0.0,
2025-08-15T01:31:37.646Z,14,GR86-049-88,-45.400000000000006,0.205,-1.235,99.74,2.0,6608.0,0.0,0.0,
2025-08-15T01:31:37.689Z,14,GR86-049-88,-45.0,0.222,-1.225,99.75,2.0,,0.0,0.0,109.59
2025-08-15T01:31:37.732Z,14,GR86-049-88,-44.900000000000006,0.207,-1.3,99.74,2.0,,0.0,0.0,
2025-08-15T01:31:37.775Z,14,GR86-049-88,-42.5,0.204,-1.29,99.75,2.0,,0.0,0.0,
2025-08-15T01:31:37.820Z,14,GR86-049-88,-31.5,0.233,-1.121,99.74,2.0,,0.0,0.0,
2025-08-15T01:31:37.863Z,14,GR86-049-88,-24.3,0.226,-1.121,99.73,2.0,6687.0,0.0,0.0,
2025-08-15T01:31:37.906Z,14,GR86-049-88,-20.4,0.216,-1.0,99.74,2.0,,0.0,0.0,110.65
2025-08-15T01:31:37.950Z,14,GR86-049-88,-19.9,0.171,-1.041,99.72,2.0,,0.0,0.0,
2025-08-15T01:31:37.993Z,14,GR86-049-88,-20.5,0.236,-1.089,99.74,2.0,,0.0,0.0,
2025-08-15T01:31:38.036Z,14,GR86-049-88,-23.5,0.251,-1.098,99.73,2.0,,0.0,0.0,
2025-08-15T01:31:38.080Z,14,GR86-049-88,-29.200000000000003,0.23,-1.078,99.74,2.0,6694.0,0.0,0.0,
2025-08-15T01:31:38.123Z,14,GR86-049-88,-29.6,0.185,-1.102,99.74,2.0,,0.0,0.0,113.5
2025-08-15T01:31:38.166Z,14,GR86-049-88,-29.3,0.21,-1.108,99.74,2.0,,0.0,0.0,
2025-08-15T01:31:38.209Z,14,GR86-049-88,-27.5,0.232,-1.077,99.74,2.0,,0.0,0.0,
2025-08-15T01:31:38.252Z,14,GR86-049-88,-24.1,0.232,-1.078,99.75,2.0,,0.0,0.0,
2025-08-15T01:31:38.295Z,14,GR86-049-88,-21.9,0.222,-1.046,99.74,2.0,6734.0,0.0,0.0,
2025-08-15T01:31:38.339Z,14,GR86-049-88,-21.5,0.218,-1.131,99.74,2.0,,0.0,0.0,113.81
2025-08-15T01:31:38.382Z,14,GR86-049-88,-21.4,0.242,-1.125,99.75,2.0,,0.0,0.0,
2025-08-15T01:31:38.425Z,14,GR86-049-88,-19.3,0.226,-1.11,99.74,2.0,,0.0,0.0,
2025-08-15T01:31:38.468Z,14,GR86-049-88,-15.7,0.261,-1.174,99.73,2.0,,0.0,0.0,
2025-08-15T01:31:38.511Z,14,GR86-049-88,-11.9,0.231,-1.171,99.74,2.0,6854.0,0.0,0.0,
2025-08-15T01:31:38.555Z,14,GR86-049-88,-10.7,0.23,-1.128,99.76,2.0,,0.0,0.0,115.28
2025-08-15T01:31:38.597Z,14,GR86-049-88,-10.7,0.264,-1.131,99.74,2.0,,0.0,0.0,
2025-08-15T01:31:38.640Z,14,GR86-049-88,-10.9,0.214,-1.124,99.73,2.0,,0.0,0.0,
2025-08-15T01:31:38.683Z,14,GR86-049-88,-10.7,0.201,-1.058,99.75,2.0,,0.0,0.0,
2025-08-15T01:31:38.726Z,14,GR86-049-88,-9.6,0.212,-1.222,99.73,2.0,7023.0,0.0,0.0,
2025-08-15T01:31:38.769Z,14,GR86-049-88,-6.800000000000001,0.218,-1.211,99.75,2.0,,0.0,0.0,117.31
2025-08-15T01:31:38.812Z,14,GR86-049-88,-3.1,0.333,-1.22,99.74,2.0,,0.0,0.0,
2025-08-15T01:31:38.855Z,14,GR86-049-88,0.6000000000000001,0.339,-1.141,99.75,2.0,,0.0,0.0,
2025-08-15T01:31:38.899Z,14,GR86-049-88,1.7000000000000002,0.063,-0.765,99.75,2.0,,0.0,0.0,
2025-08-15T01:31:38.942Z,14,GR86-049-88,1.5,0.163,-0.8150000000000001,99.74,2.0,7121.0,0.0,0.0,
2025-08-15T01:31:38.985Z,14,GR86-049-88,1.9,0.134,-0.998,99.76,2.0,,0.0,0.0,118.6
2025-08-15T01:31:39.028Z,14,GR86-049-88,2.3000000000000003,0.22,-0.932,99.76,2.0,,0.0,0.0,
2025-08-15T01:31:39.071Z,14,GR86-049-88,1.7000000000000002,0.248,-0.923,99.75,2.0,,0.0,0.0,
2025-08-15T01:31:39.114Z,14,GR86-049-88,1.0,0.345,-0.923,99.74,2.0,,0.0,0.0,
2025-08-15T01:31:39.157Z,14,GR86-049-88,0.8,0.293,-0.9,99.74,2.0,7094.0,0.0,0.0,
2025-08-15T01:31:39.200Z,14,GR86-049-88,-3.7,0.18,-0.678,99.77,2.0,,0.0,0.0,120.07
2025-08-15T01:31:39.243Z,14,GR86-049-88,-12.3,0.204,-0.496,99.77,2.0,,0.0,0.0,
2025-08-15T01:31:39.286Z,14,GR86-049-88,-20.6,0.101,-0.615,99.77,2.0,,0.0,0.0,
2025-08-15T01:31:39.329Z,14,GR86-049-88,-27.8,0.051,-0.596,99.74,2.0,,0.0,0.0,
2025-08-15T01:31:39.372Z,14,GR86-049-88,-31.9,0.062,-0.62,99.74,2.0,7182.0,0.0,0.0,
2025-08-15T01:31:39.415Z,14,GR86-049-88,-32.6,0.223,-0.725,99.76,2.0,,0.0,0.0,120.05
2025-08-15T01:31:39.459Z,14,GR86-049-88,-32.0,0.184,-0.602,99.74,2.0,,0.0,0.0,
2025-08-15T01:31:39.502Z,14,GR86-049-88,-29.5,0.128,-0.681,99.77,2.0,,0.0,0.0,
2025-08-15T01:31:39.545Z,14,GR86-049-88,-23.4,0.111,-0.66,99.75,2.0,,0.0,0.0,
2025-08-15T01:31:39.589Z,14,GR86-049-88,-14.8,0.117,-0.5740000000000001,99.73,2.0,7162.0,0.0,0.0,
2025-08-15T01:31:39.631Z,14,GR86-049-88,-7.300000000000001,-0.011,-0.638,99.72,3.0,,0.0,0.0,122.11
2025-08-15T01:31:39.675Z,14,GR86-049-88,-2.0,-0.126,-0.67,99.75,3.0,,0.0,0.0,
2025-08-15T01:31:39.720Z,14,GR86-049-88,2.5,0.5730000000000001,-0.711,99.75,3.0,,0.0,0.0,
2025-08-15T01:31:39.763Z,14,GR86-049-88,1.2000000000000002,0.371,-0.491,99.75,3.0,,0.0,0.0,
2025-08-15T01:31:39.806Z,14,GR86-049-88,-5.7,0.132,-0.677,99.75,3.0,7257.0,0.0,0.0,
2025-08-15T01:31:39.849Z,14,GR86-049-88,-12.8,-0.072,-0.482,99.74,3.0,,0.0,0.0,123.7
2025-08-15T01:31:39.892Z,14,GR86-049-88,-16.0,-0.067,-0.633,99.76,3.0,,0.0,0.0,
2025-08-15T01:31:39.935Z,14,GR86-049-88,-15.9,0.327,-0.848,99.75,3.0,,0.0,0.0,
2025-08-15T01:31:39.979Z,14,GR86-049-88,-9.2,0.2,-0.433,99.74,3.0,,0.0,0.0,
2025-08-15T01:31:40.022Z,14,GR86-049-88,-7.9,0.034,-0.225,99.76,3.0,6474.0,0.0,0.0,
2025-08-15T01:31:40.065Z,14,GR86-049-88,-7.9,0.032,-0.23,99.76,3.0,,0.0,0.0,124.72
2025-08-15T01:31:40.108Z,14,GR86-049-88,-5.6000000000000005,0.057,-0.213,99.74,3.0,,0.0,0.0,
2025-08-15T01:31:40.151Z,14,GR86-049-88,-1.7000000000000002,0.136,0.006,99.74,3.0,,0.0,0.0,
2025-08-15T01:31:40.237Z,14,GR86-049-88,4.2,0.094,0.006,99.77,3.0,6248.0,0.0,0.0,
2025-08-15T01:31:40.280Z,14,GR86-049-88,6.7,0.315,-0.015,99.75,3.0,,0.0,0.0,126.55
2025-08-15T01:31:40.323Z,14,GR86-049-88,9.0,0.424,-0.382,99.75,3.0,,0.0,0.0,
2025-08-15T01:31:40.366Z,14,GR86-049-88,8.6,0.181,-0.046,99.76,3.0,,0.0,0.0,
2025-08-15T01:31:40.409Z,14,GR86-049-88,6.9,0.133,0.175,99.76,3.0,,0.0,0.0,
2025-08-15T01:31:40.452Z,14,GR86-049-88,6.300000000000001,0.074,0.165,99.74,3.0,6166.0,0.0,0.0,
2025-08-15T01:31:40.495Z,14,GR86-049-88,6.300000000000001,0.174,0.178,99.74,3.0,,0.0,0.0,127.57
2025-08-15T01:31:40.539Z,14,GR86-049-88,6.4,0.255,0.221,99.76,3.0,,0.0,0.0,
2025-08-15T01:31:40.582Z,14,GR86-049-88,6.4,0.152,0.178,99.75,3.0,,0.0,0.0,
2025-08-15T01:31:40.625Z,14,GR86-049-88,6.4,0.207,0.263,99.75,3.0,,0.0,0.0,
2025-08-15T01:31:40.668Z,14,GR86-049-88,6.4,0.194,0.16,99.75,3.0,6309.0,0.0,0.0,
2025-08-15T01:31:40.711Z,14,GR86-049-88,6.4,0.17,0.046,99.75,3.0,,0.0,0.0,129.52
2025-08-15T01:31:40.754Z,14,GR86-049-88,6.6000000000000005,0.178,0.112,99.74,3.0,,0.0,0.0,
2025-08-15T01:31:40.797Z,14,GR86-049-88,7.7,0.257,0.107,99.74,3.0,,0.0,0.0,
2025-08-15T01:31:40.840Z,14,GR86-049-88,9.1,0.203,0.124,99.75,3.0,,0.0,0.0,
2025-08-15T01:31:40.883Z,14,GR86-049-88,10.0,0.245,0.148,99.75,3.0,6243.0,0.0,0.0,
2025-08-15T01:31:40.926Z,14,GR86-049-88,10.3,0.177,0.108,99.76,3.0,,0.0,0.0,132.28
2025-08-15T01:31:40.969Z,14,GR86-049-88,10.3,0.155,0.176,99.74,3.0,,0.0,0.0,
2025-08-15T01:31:41.012Z,14,GR86-049-88,10.5,0.224,0.246,99.74,3.0,,0.0,0.0,
2025-08-15T01:31:41.055Z,14,GR86-049-88,10.5,0.24,0.213,99.75,3.0,,0.0,0.0,
2025-08-15T01:31:41.100Z,14,GR86-049-88,10.5,0.262,0.274,99.76,3.0,6245.0,0.0,0.0,
2025-08-15T01:31:41.143Z,14,GR86-049-88,10.6,0.205,0.222,99.76,3.0,,0.0,0.0,133.67000000000002
2025-08-15T01:31:41.186Z,14,GR86-049-88,10.6,0.121,0.197,99.76,3.0,,0.0,0.0,
2025-08-15T01:31:41.230Z,14,GR86-049-88,10.6,0.198,0.26,99.75,3.0,,0.0,0.0,
2025-08-15T01:31:41.273Z,14,GR86-049-88,10.5,0.251,0.216,99.75,3.0,,0.0,0.0,
2025-08-15T01:31:41.316Z,14,GR86-049-88,10.5,0.222,0.161,99.74,3.0,6288.0,0.0,0.0,
2025-08-15T01:31:41.402Z,14,GR86-049-88,9.5,0.145,0.119,99.75,3.0,,0.0,0.0,135.12
2025-08-15T01:31:41.445Z,14,GR86-049-88,9.1,0.169,0.149,99.74,3.0,,0.0,0.0,
2025-08-15T01:31:41.489Z,14,GR86-049-88,8.9,0.23,0.157,99.75,3.0,,0.0,0.0,
2025-08-15T01:31:41.532Z,14,GR86-049-88,8.8,0.24,0.097,99.76,3.0,6410.0,0.0,0.0,
2025-08-15T01:31:41.575Z,14,GR86-049-88,8.700000000000001,0.154,0.078,99.74,3.0,,0.0,0.0,136.54
2025-08-15T01:31:41.620Z,14,GR86-049-88,8.4,0.211,0.069,99.74,3.0,,0.0,0.0,
2025-08-15T01:31:41.663Z,14,GR86-049-88,8.200000000000001,0.145,0.049,99.75,3.0,,0.0,0.0,
2025-08-15T01:31:41.706Z,14,GR86-049-88,7.800000000000001,0.169,0.077,99.75,3.0,,0.0,0.0,
2025-08-15T01:31:41.749Z,14,GR86-049-88,7.6,0.237,0.092,99.77,3.0,6466.0,0.0,0.0,
2025-08-15T01:31:41.792Z,14,GR86-049-88,7.300000000000001,0.215,0.048,99.73,3.0,,0.0,0.0,137.85
2025-08-15T01:31:41.835Z,14,GR86-049-88,7.0,0.171,0.02,99.75,3.0,,0.0,0.0,
2025-08-15T01:31:41.879Z,14,GR86-049-88,6.9,0.191,0.013,99.75,3.0,,0.0,0.0,
2025-08-15T01:31:41.921Z,14,GR86-049-88,6.800000000000001,0.125,0.014,99.75,3.0,,0.0,0.0,
2025-08-15T01:31:41.964Z,14,GR86-049-88,6.7,0.197,0.043,99.75,3.0,6540.0,0.0,0.0,
2025-08-15T01:31:42.007Z,14,GR86-049-88,6.7,0.234,0.061,99.75,3.0,,0.0,0.0,139.16
2025-08-15T01:31:42.050Z,14,GR86-049-88,6.6000000000000005,0.23,0.012,99.75,3.0,,0.0,0.0,
2025-08-15T01:31:42.093Z,14,GR86-049-88,6.4,0.153,-0.012,99.75,3.0,,0.0,0.0,
2025-08-15T01:31:42.136Z,14,GR86-049-88,6.0,0.14,0.002,99.76,3.0,,0.0,0.0,
2025-08-15T01:31:42.180Z,14,GR86-049-88,5.300000000000001,0.157,-0.035,99.75,3.0,6598.0,0.0,0.0,
2025-08-15T01:31:42.223Z,14,GR86-049-88,5.0,0.165,0.018,99.74,3.0,,0.0,0.0,140.55
2025-08-15T01:31:42.266Z,14,GR86-049-88,4.9,0.217,0.026,99.75,3.0,,0.0,0.0,
2025-08-15T01:31:42.309Z,14,GR86-049-88,4.800000000000001,0.225,0.018,99.75,3.0,,0.0,0.0,
2025-08-15T01:31:42.352Z,14,GR86-049-88,4.7,0.177,-0.032,99.74,3.0,,0.0,0.0,
2025-08-15T01:31:42.395Z,14,GR86-049-88,4.6000000000000005,0.148,-0.052,99.74,3.0,6662.0,0.0,0.0,
2025-08-15T01:31:42.439Z,14,GR86-049-88,4.6000000000000005,0.174,-0.046,99.75,3.0,,0.0,0.0,141.92000000000002
2025-08-15T01:31:42.482Z,14,GR86-049-88,4.5,0.146,-0.061,99.74,3.0,,0.0,0.0,
2025-08-15T01:31:42.525Z,14,GR86-049-88,4.5,0.178,-0.003,99.75,3.0,,0.0,0.0,
2025-08-15T01:31:42.611Z,14,GR86-049-88,4.5,0.217,0.01,99.74,3.0,6714.0,0.0,0.0,
2025-08-15T01:31:42.655Z,14,GR86-049-88,4.4,0.168,-0.05,99.75,3.0,,0.0,0.0,143.3
2025-08-15T01:31:42.697Z,14,GR86-049-88,3.8,0.141,-0.052,99.76,3.0,,0.0,0.0,
2025-08-15T01:31:42.740Z,14,GR86-049-88,2.9000000000000004,0.149,-0.065,99.75,3.0,,0.0,0.0,
2025-08-15T01:31:42.783Z,14,GR86-049-88,2.5,0.137,-0.082,99.75,3.0,,0.0,0.0,
2025-08-15T01:31:42.826Z,14,GR86-049-88,2.5,0.193,-0.057,99.75,3.0,6786.0,0.0,0.0,
2025-08-15T01:31:42.869Z,14,GR86-049-88,2.5,0.214,-0.044,99.75,3.0,,0.0,0.0,144.58
2025-08-15T01:31:42.912Z,14,GR86-049-88,2.5,0.214,-0.07,99.75,3.0,,0.0,0.0,
2025-08-15T01:31:42.955Z,14,GR86-049-88,2.5,0.171,-0.125,99.74,3.0,,0.0,0.0,
2025-08-15T01:31:42.999Z,14,GR86-049-88,2.5,0.217,-0.083,99.75,3.0,,0.0,0.0,
2025-08-15T01:31:43.042Z,14,GR86-049-88,2.5,0.172,-0.122,99.73,3.0,6830.0,0.0,0.0,
2025-08-15T01:31:43.085Z,14,GR86-049-88,2.5,0.14,-0.124,99.75,3.0,,0.0,0.0,145.84
2025-08-15T01:31:43.128Z,14,GR86-049-88,2.5,0.15,-0.107,99.75,3.0,,0.0,0.0,
2025-08-15T01:31:43.171Z,14,GR86-049-88,2.5,0.206,-0.068,99.73,3.0,,0.0,0.0,
2025-08-15T01:31:43.215Z,14,GR86-049-88,2.6,0.227,-0.056,99.74,3.0,,0.0,0.0,
2025-08-15T01:31:43.259Z,14,GR86-049-88,2.7,0.212,-0.069,99.77,3.0,6894.0,0.0,0.0,
2025-08-15T01:31:43.301Z,14,GR86-049-88,2.7,0.215,-0.047,99.77,3.0,,0.0,0.0,147.07
2025-08-15T01:31:43.344Z,14,GR86-049-88,2.7,0.203,-0.06,99.75,3.0,,0.0,0.0,
2025-08-15T01:31:43.430Z,14,GR86-049-88,2.8000000000000003,0.154,-0.065,99.76,3.0,,0.0,0.0,
2025-08-15T01:31:43.473Z,14,GR86-049-88,2.8000000000000003,0.153,-0.062,99.75,3.0,6947.0,0.0,0.0,
2025-08-15T01:31:43.516Z,14,GR86-049-88,2.8000000000000003,0.201,-0.035,99.76,3.0,,0.0,0.0,148.34
2025-08-15T01:31:43.560Z,14,GR86-049-88,2.8000000000000003,0.143,-0.075,99.75,3.0,,0.0,0.0,
2025-08-15T01:31:43.602Z,14,GR86-049-88,2.9000000000000004,0.182,-0.062,99.77,3.0,,0.0,0.0,
2025-08-15T01:31:43.646Z,14,GR86-049-88,2.9000000000000004,0.223,-0.054,99.77,3.0,,0.0,0.0,
2025-08-15T01:31:43.689Z,14,GR86-049-88,2.8000000000000003,0.209,-0.056,99.74,3.0,7017.0,0.0,0.0,
2025-08-15T01:31:43.732Z,14,GR86-049-88,2.8000000000000003,0.158,-0.092,99.75,3.0,,0.0,0.0,150.72
2025-08-15T01:31:43.775Z,14,GR86-049-88,2.7,0.126,-0.107,99.75,3.0,,0.0,0.0,
2025-08-15T01:31:43.820Z,14,GR86-049-88,2.6,0.203,-0.091,99.77,3.0,,0.0,0.0,
2025-08-15T01:31:43.906Z,14,GR86-049-88,2.5,0.1,-0.133,99.76,3.0,7066.0,0.0,0.0,
2025-08-15T01:31:43.950Z,14,GR86-049-88,2.5,0.131,-0.119,99.75,3.0,,0.0,0.0,151.94
2025-08-15T01:31:43.993Z,14,GR86-049-88,2.5,0.188,-0.1,99.75,3.0,,0.0,0.0,
2025-08-15T01:31:44.036Z,14,GR86-049-88,2.5,0.237,-0.078,99.77,3.0,,0.0,0.0,
2025-08-15T01:31:44.080Z,14,GR86-049-88,2.5,0.144,-0.115,99.74,3.0,,0.0,0.0,
2025-08-15T01:31:44.123Z,14,GR86-049-88,2.6,0.186,-0.096,99.76,3.0,7178.0,0.0,0.0,
2025-08-15T01:31:44.166Z,14,GR86-049-88,2.6,0.227,-0.073,99.76,3.0,,0.0,0.0,153.1
2025-08-15T01:31:44.209Z,14,GR86-049-88,2.6,0.203,-0.075,99.74,3.0,,0.0,0.0,
2025-08-15T01:31:44.252Z,14,GR86-049-88,2.7,0.015,-0.094,99.72,4.0,,0.0,0.0,
2025-08-15T01:31:44.295Z,14,GR86-049-88,2.7,-0.064,-0.062,99.75,4.0,,0.0,0.0,
2025-08-15T01:31:44.339Z,14,GR86-049-88,2.8000000000000003,0.323,-0.146,99.76,4.0,7236.0,0.0,0.0,
2025-08-15T01:31:44.382Z,14,GR86-049-88,2.8000000000000003,0.234,-0.101,99.76,4.0,,0.0,0.0,154.24
2025-08-15T01:31:44.425Z,14,GR86-049-88,2.8000000000000003,0.001,-0.044,99.76,4.0,,0.0,0.0,
2025-08-15T01:31:44.468Z,14,GR86-049-88,2.9000000000000004,0.013,-0.163,99.74,4.0,,0.0,0.0,
2025-08-15T01:31:44.511Z,14,GR86-049-88,2.8000000000000003,0.128,-0.052,99.74,4.0,,0.0,0.0,
2025-08-15T01:31:44.555Z,14,GR86-049-88,2.8000000000000003,0.228,-0.008,99.74,4.0,6628.0,0.0,0.0,
2025-08-15T01:31:44.599Z,14,GR86-049-88,2.8000000000000003,0.065,-0.112,99.77,4.0,,0.0,0.0,155.36
2025-08-15T01:31:44.641Z,14,GR86-049-88,2.8000000000000003,0.101,-0.04,99.74,4.0,,0.0,0.0,
2025-08-15T01:31:44.684Z,14,GR86-049-88,2.8000000000000003,0.17,-0.103,99.74,4.0,,0.0,0.0,
2025-08-15T01:31:44.727Z,14,GR86-049-88,2.8000000000000003,0.209,-0.059,99.76,4.0,,0.0,0.0,
2025-08-15T01:31:44.770Z,14,GR86-049-88,2.8000000000000003,0.187,-0.048,99.74,4.0,6239.0,0.0,0.0,
2025-08-15T01:31:44.813Z,14,GR86-049-88,2.8000000000000003,0.143,-0.09,99.74,4.0,,0.0,0.0,156.6
2025-08-15T01:31:44.856Z,14,GR86-049-88,2.7,0.11,-0.095,99.75,4.0,,0.0,0.0,
2025-08-15T01:31:44.899Z,14,GR86-049-88,2.6,0.187,-0.066,99.74,4.0,,0.0,0.0,
2025-08-15T01:31:44.942Z,14,GR86-049-88,2.5,0.178,-0.078,99.74,4.0,,0.0,0.0,
2025-08-15T01:31:44.985Z,14,GR86-049-88,2.1,0.111,-0.109,99.75,4.0,6223.0,0.0,0.0,
2025-08-15T01:31:45.028Z,14,GR86-049-88,1.9,0.097,-0.113,99.73,4.0,,0.0,0.0,157.64
2025-08-15T01:31:45.071Z,14,GR86-049-88,1.9,0.068,-0.147,99.74,4.0,,0.0,0.0,
2025-08-15T01:31:45.200Z,14,GR86-049-88,1.7000000000000002,0.069,-0.139,99.74,4.0,6243.0,0.0,0.0,
2025-08-15T01:31:45.243Z,14,GR86-049-88,1.7000000000000002,0.086,-0.153,99.74,4.0,,0.0,0.0,158.67000000000002
2025-08-15T01:31:45.286Z,14,GR86-049-88,1.7000000000000002,0.097,-0.135,99.76,4.0,,0.0,0.0,
2025-08-15T01:31:45.329Z,14,GR86-049-88,1.7000000000000002,0.163,-0.131,99.74,4.0,,0.0,0.0,
2025-08-15T01:31:45.372Z,14,GR86-049-88,1.7000000000000002,0.176,-0.126,99.75,4.0,,0.0,0.0,
2025-08-15T01:31:45.415Z,14,GR86-049-88,1.7000000000000002,0.182,-0.116,99.74,4.0,6289.0,0.0,0.0,
2025-08-15T01:31:45.459Z,14,GR86-049-88,1.7000000000000002,0.127,-0.123,99.76,4.0,,0.0,0.0,159.6
2025-08-15T01:31:45.501Z,14,GR86-049-88,1.7000000000000002,0.142,-0.114,99.75,4.0,,0.0,0.0,
2025-08-15T01:31:45.544Z,14,GR86-049-88,1.7000000000000002,0.187,-0.117,99.75,4.0,,0.0,0.0,
2025-08-15T01:31:45.587Z,14,GR86-049-88,1.7000000000000002,0.171,-0.123,99.73,4.0,,0.0,0.0,
2025-08-15T01:31:45.630Z,14,GR86-049-88,1.7000000000000002,0.151,-0.129,99.76,4.0,6322.0,0.0,0.0,
2025-08-15T01:31:45.673Z,14,GR86-049-88,1.7000000000000002,0.135,-0.142,99.74,4.0,,0.0,0.0,160.47
2025-08-15T01:31:45.716Z,14,GR86-049-88,1.7000000000000002,0.101,-0.133,99.75,4.0,,0.0,0.0,
2025-08-15T01:31:45.760Z,14,GR86-049-88,1.8,0.173,-0.109,99.75,4.0,,0.0,0.0,
2025-08-15T01:31:45.802Z,14,GR86-049-88,1.8,0.154,-0.117,99.74,4.0,,0.0,0.0,
2025-08-15T01:31:45.846Z,14,GR86-049-88,1.8,0.129,-0.121,99.75,4.0,6361.0,0.0,0.0,
2025-08-15T01:31:45.889Z,14,GR86-049-88,1.8,0.103,-0.123,99.73,4.0,,0.0,0.0,161.29
2025-08-15T01:31:45.932Z,14,GR86-049-88,1.8,0.091,-0.116,99.75,4.0,,0.0,0.0,
2025-08-15T01:31:45.975Z,14,GR86-049-88,1.8,0.077,-0.116,99.75,4.0,,0.0,0.0,
2025-08-15T01:31:46.020Z,14,GR86-049-88,1.8,0.128,-0.116,99.74,4.0,,0.0,0.0,
2025-08-15T01:31:46.063Z,14,GR86-049-88,1.7000000000000002,0.118,-0.131,99.76,4.0,6393.0,0.0,0.0,
2025-08-15T01:31:46.106Z,14,GR86-049-88,1.7000000000000002,0.076,-0.155,99.76,4.0,,0.0,0.0,162.27
2025-08-15T01:31:46.149Z,14,GR86-049-88,1.6,0.094,-0.148,99.74,4.0,,0.0,0.0,
2025-08-15T01:31:46.192Z,14,GR86-049-88,1.5,0.084,-0.152,99.76,4.0,,0.0,0.0,
2025-08-15T01:31:46.235Z,14,GR86-049-88,1.4,0.102,-0.132,99.76,4.0,,0.0,0.0,
2025-08-15T01:31:46.279Z,14,GR86-049-88,1.3,0.102,-0.148,99.74,4.0,6434.0,0.0,0.0,
2025-08-15T01:31:46.322Z,14,GR86-049-88,1.3,0.104,-0.157,99.74,4.0,,0.0,0.0,164.15
2025-08-15T01:31:46.365Z,14,GR86-049-88,1.3,0.08,-0.158,99.73,4.0,,0.0,0.0,
2025-08-15T01:31:46.408Z,14,GR86-049-88,1.3,0.096,-0.145,99.75,4.0,,0.0,0.0,
2025-08-15T01:31:46.451Z,14,GR86-049-88,1.3,0.118,-0.128,99.74,4.0,,0.0,0.0,
2025-08-15T01:31:46.494Z,14,GR86-049-88,1.3,0.142,-0.107,99.74,4.0,6470.0,0.0,0.0,
2025-08-15T01:31:46.539Z,14,GR86-049-88,1.3,0.09,-0.137,99.75,4.0,,0.0,0.0,165.1
2025-08-15T01:31:46.581Z,14,GR86-049-88,1.3,0.091,-0.13,99.75,4.0,,0.0,0.0,
2025-08-15T01:31:46.624Z,14,GR86-049-88,1.3,0.101,-0.122,99.75,4.0,,0.0,0.0,
2025-08-15T01:31:46.667Z,14,GR86-049-88,1.4,0.114,-0.098,99.75,4.0,,0.0,0.0,
2025-08-15T01:31:46.710Z,14,GR86-049-88,1.3,0.136,-0.09,99.74,4.0,6508.0,0.0,0.0,
2025-08-15T01:31:46.753Z,14,GR86-049-88,1.4,0.151,-0.107,99.75,4.0,,0.0,0.0,166.15
2025-08-15T01:31:46.796Z,14,GR86-049-88,1.3,0.151,-0.11,99.75,4.0,,0.0,0.0,
2025-08-15T01:31:46.840Z,14,GR86-049-88,1.3,0.094,-0.12,99.74,4.0,,0.0,0.0,
2025-08-15T01:31:46.883Z,14,GR86-049-88,1.3,0.105,-0.114,99.74,4.0,,0.0,0.0,
2025-08-15T01:31:46.926Z,14,GR86-049-88,1.3,0.137,-0.103,99.74,4.0,6587.0,0.0,0.0,
2025-08-15T01:31:46.969Z,14,GR86-049-88,1.3,0.138,-0.092,99.74,4.0,,0.0,0.0,167.06
2025-08-15T01:31:47.012Z,14,GR86-049-88,1.4,0.155,-0.095,99.74,4.0,,0.0,0.0,
2025-08-15T01:31:47.055Z,14,GR86-049-88,1.3,0.143,-0.086,99.73,4.0,,0.0,0.0,
2025-08-15T01:31:47.100Z,14,GR86-049-88,1.3,0.097,-0.126,99.74,4.0,,0.0,0.0,
2025-08-15T01:31:47.143Z,14,GR86-049-88,1.3,0.112,-0.112,99.75,4.0,6623.0,0.0,0.0,
2025-08-15T01:31:47.186Z,14,GR86-049-88,1.3,0.12,-0.105,99.73,4.0,,0.0,0.0,168.11
2025-08-15T01:31:47.230Z,14,GR86-049-88,1.3,0.129,-0.106,99.73,4.0,,0.0,0.0,
2025-08-15T01:31:47.273Z,14,GR86-049-88,1.1,0.152,-0.126,99.73,4.0,,0.0,0.0,
2025-08-15T01:31:47.316Z,14,GR86-049-88,0.8,0.148,-0.132,99.74,4.0,,0.0,0.0,
2025-08-15T01:31:47.360Z,14,GR86-049-88,0.2,0.076,-0.178,99.74,4.0,6666.0,0.0,0.0,
2025-08-15T01:31:47.402Z,14,GR86-049-88,-0.2,0.09,-0.192,99.74,4.0,,0.0,0.0,169.03
2025-08-15T01:31:47.446Z,14,GR86-049-88,-0.3,0.101,-0.204,99.75,4.0,,0.0,0.0,
2025-08-15T01:31:47.489Z,14,GR86-049-88,-0.3,0.104,-0.232,99.75,4.0,,0.0,0.0,
2025-08-15T01:31:47.532Z,14,GR86-049-88,-0.4,0.133,-0.217,99.74,4.0,,0.0,0.0,
2025-08-15T01:31:47.575Z,14,GR86-049-88,-0.5,0.122,-0.224,99.75,4.0,6690.0,0.0,0.0,
2025-08-15T01:31:47.620Z,14,GR86-049-88,-0.5,0.065,-0.242,99.76,4.0,,0.0,0.0,170.07
2025-08-15T01:31:47.663Z,14,GR86-049-88,-0.4,0.098,-0.235,99.74,4.0,,0.0,0.0,
2025-08-15T01:31:47.706Z,14,GR86-049-88,-0.3,0.064,-0.239,99.74,4.0,,0.0,0.0,
2025-08-15T01:31:47.749Z,14,GR86-049-88,-0.3,0.102,-0.201,99.74,4.0,,0.0,0.0,
2025-08-15T01:31:47.792Z,14,GR86-049-88,-0.3,0.069,-0.213,99.74,4.0,6726.0,0.0,0.0,
2025-08-15T01:31:47.835Z,14,GR86-049-88,-0.2,0.115,-0.181,99.72,4.0,,0.0,0.0,171.1
2025-08-15T01:31:47.879Z,14,GR86-049-88,-0.1,0.129,-0.16,99.74,4.0,,0.0,0.0,
2025-08-15T01:31:47.921Z,14,GR86-049-88,-0.1,0.096,-0.183,99.76,4.0,,0.0,0.0,
2025-08-15T01:31:47.964Z,14,GR86-049-88,-0.2,0.09,-0.201,99.73,4.0,,0.0,0.0,
2025-08-15T01:31:48.007Z,14,GR86-049-88,-0.3,0.087,-0.232,99.75,4.0,6779.0,0.0,0.0,
2025-08-15T01:31:48.050Z,14,GR86-049-88,-0.5,0.076,-0.21,99.74,4.0,,0.0,0.0,172.04
2025-08-15T01:31:48.093Z,14,GR86-049-88,-0.6000000000000001,0.067,-0.211,99.74,4.0,,0.0,0.0,
2025-08-15T01:31:48.136Z,14,GR86-049-88,-0.7000000000000001,0.075,-0.221,99.75,4.0,,0.0,0.0,
2025-08-15T01:31:48.180Z,14,GR86-049-88,-0.7000000000000001,0.165,-0.203,99.74,4.0,,0.0,0.0,
2025-08-15T01:31:48.223Z,14,GR86-049-88,-0.7000000000000001,0.149,-0.202,99.75,4.0,6809.0,0.0,0.0,
2025-08-15T01:31:48.266Z,14,GR86-049-88,-0.6000000000000001,0.13,-0.204,99.74,4.0,,0.0,0.0,172.9
2025-08-15T01:31:48.309Z,14,GR86-049-88,-0.2,0.136,-0.2,99.74,4.0,,0.0,0.0,
2025-08-15T01:31:48.352Z,14,GR86-049-88,-0.1,0.092,-0.197,99.73,4.0,,0.0,0.0,
2025-08-15T01:31:48.395Z,14,GR86-049-88,0.0,0.113,-0.207,99.74,4.0,,0.0,0.0,
2025-08-15T01:31:48.439Z,14,GR86-049-88,0.2,0.149,-0.169,99.74,4.0,6842.0,0.0,0.0,
2025-08-15T01:31:48.482Z,14,GR86-049-88,0.2,0.15,-0.173,99.73,4.0,,0.0,0.0,173.85
2025-08-15T01:31:48.525Z,14,GR86-049-88,0.2,0.153,-0.147,99.73,4.0,,0.0,0.0,
2025-08-15T01:31:48.568Z,14,GR86-049-88,0.1,0.143,-0.12,99.73,4.0,,0.0,0.0,
2025-08-15T01:31:48.611Z,14,GR86-049-88,0.0,0.154,-0.146,99.74,4.0,,0.0,0.0,
2025-08-15T01:31:48.655Z,14,GR86-049-88,0.0,0.153,-0.129,99.74,4.0,6874.0,0.0,0.0,
2025-08-15T01:31:48.697Z,14,GR86-049-88,0.0,0.165,-0.155,99.73,4.0,,0.0,0.0,174.88
2025-08-15T01:31:48.740Z,14,GR86-049-88,0.0,0.063,-0.196,99.74,4.0,,0.0,0.0,
2025-08-15T01:31:48.826Z,14,GR86-049-88,0.0,0.06,-0.192,99.75,4.0,,0.0,0.0,
2025-08-15T01:31:48.869Z,14,GR86-049-88,0.0,0.086,-0.191,99.74,4.0,6908.0,0.0,0.0,
2025-08-15T01:31:48.912Z,14,GR86-049-88,0.0,0.08,-0.197,99.74,4.0,,0.0,0.0,175.88
2025-08-15T01:31:48.955Z,14,GR86-049-88,0.0,0.086,-0.21,99.75,4.0,,0.0,0.0,
2025-08-15T01:31:48.999Z,14,GR86-049-88,0.0,0.104,-0.18,99.75,4.0,,0.0,0.0,
2025-08-15T01:31:49.042Z,14,GR86-049-88,0.0,0.102,-0.167,99.72,4.0,,0.0,0.0,
2025-08-15T01:31:49.085Z,14,GR86-049-88,0.0,0.089,-0.149,99.74,4.0,6948.0,0.0,0.0,
2025-08-15T01:31:49.128Z,14,GR86-049-88,0.0,0.075,-0.155,99.74,4.0,,0.0,0.0,177.62
2025-08-15T01:31:49.171Z,14,GR86-049-88,0.0,0.096,-0.161,99.73,4.0,,0.0,0.0,
2025-08-15T01:31:49.215Z,14,GR86-049-88,0.0,0.067,-0.173,99.75,4.0,,0.0,0.0,
2025-08-15T01:31:49.259Z,14,GR86-049-88,0.0,0.1,-0.168,99.75,4.0,,0.0,0.0,
2025-08-15T01:31:49.301Z,14,GR86-049-88,0.0,0.119,-0.174,99.74,4.0,6992.0,0.0,0.0,
2025-08-15T01:31:49.344Z,14,GR86-049-88,0.0,0.122,-0.172,99.76,4.0,,0.0,0.0,178.5
2025-08-15T01:31:49.387Z,14,GR86-049-88,0.0,0.121,-0.147,99.74,4.0,,0.0,0.0,
2025-08-15T01:31:49.430Z,14,GR86-049-88,0.0,0.121,-0.133,99.72,4.0,,0.0,0.0,
2025-08-15T01:31:49.473Z,14,GR86-049-88,0.0,0.131,-0.121,99.75,4.0,,0.0,0.0,
2025-08-15T01:31:49.516Z,14,GR86-049-88,0.0,0.121,-0.127,99.72,4.0,7025.0,0.0,0.0,
2025-08-15T01:31:49.560Z,14,GR86-049-88,0.1,0.057,-0.151,99.75,4.0,,0.0,0.0,179.29
2025-08-15T01:31:49.602Z,14,GR86-049-88,0.2,0.069,-0.152,99.74,4.0,,0.0,0.0,
2025-08-15T01:31:49.645Z,14,GR86-049-88,0.2,0.051,-0.149,99.73,4.0,,0.0,0.0,
2025-08-15T01:31:49.688Z,14,GR86-049-88,0.2,0.055,-0.163,99.74,4.0,,0.0,0.0,
2025-08-15T01:31:49.731Z,14,GR86-049-88,0.2,0.055,-0.164,99.72,4.0,7092.0,0.0,0.0,
2025-08-15T01:31:49.774Z,14,GR86-049-88,0.2,0.068,-0.171,99.75,4.0,,0.0,0.0,180.02
2025-08-15T01:31:49.817Z,14,GR86-049-88,0.2,0.058,-0.176,99.74,4.0,,0.0,0.0,
2025-08-15T01:31:49.860Z,14,GR86-049-88,0.2,0.14,-0.136,99.74,4.0,,0.0,0.0,
2025-08-15T01:31:49.903Z,14,GR86-049-88,0.2,0.121,-0.125,99.73,4.0,,0.0,0.0,
2025-08-15T01:31:49.946Z,14,GR86-049-88,0.2,0.128,-0.125,99.75,4.0,7121.0,0.0,0.0,
2025-08-15T01:31:49.989Z,14,GR86-049-88,0.2,0.127,-0.138,99.76,4.0,,0.0,0.0,180.88
2025-08-15T01:31:50.032Z,14,GR86-049-88,0.2,0.13,-0.143,99.76,4.0,,0.0,0.0,
2025-08-15T01:31:50.075Z,14,GR86-049-88,0.2,0.134,-0.141,99.74,4.0,,0.0,0.0,
2025-08-15T01:31:50.120Z,14,GR86-049-88,0.2,0.075,-0.177,99.76,4.0,,0.0,0.0,
2025-08-15T01:31:50.163Z,14,GR86-049-88,0.3,0.062,-0.184,99.75,4.0,7132.0,0.0,0.0,
2025-08-15T01:31:50.206Z,14,GR86-049-88,0.3,0.076,-0.18,99.74,4.0,,0.0,0.0,181.7
2025-08-15T01:31:50.250Z,14,GR86-049-88,0.3,0.065,-0.186,99.73,4.0,,0.0,0.0,
2025-08-15T01:31:50.293Z,14,GR86-049-88,0.3,0.084,-0.203,99.73,4.0,,0.0,0.0,
2025-08-15T01:31:50.336Z,14,GR86-049-88,0.3,0.069,-0.203,99.75,4.0,,0.0,0.0,
2025-08-15T01:31:50.380Z,14,GR86-049-88,0.3,0.113,-0.173,99.74,4.0,7170.0,0.0,0.0,
2025-08-15T01:31:50.423Z,14,GR86-049-88,0.3,0.119,-0.159,99.75,4.0,,0.0,0.0,182.48
2025-08-15T01:31:50.466Z,14,GR86-049-88,0.3,0.118,-0.165,99.74,4.0,,0.0,0.0,
2025-08-15T01:31:50.509Z,14,GR86-049-88,0.3,0.117,-0.16,99.73,4.0,,0.0,0.0,
2025-08-15T01:31:50.552Z,14,GR86-049-88,0.3,0.095,-0.153,99.73,4.0,,0.0,0.0,
2025-08-15T01:31:50.595Z,14,GR86-049-88,0.3,0.101,-0.15,99.76,4.0,7194.0,0.0,0.0,
2025-08-15T01:31:50.639Z,14,GR86-049-88,0.3,0.079,-0.188,99.73,4.0,,0.0,0.0,183.37
2025-08-15T01:31:50.682Z,14,GR86-049-88,0.3,-0.183,-0.169,99.74,5.0,,0.0,0.0,
2025-08-15T01:31:50.725Z,14,GR86-049-88,0.3,0.224,-0.124,99.75,5.0,,0.0,0.0,
2025-08-15T01:31:50.768Z,14,GR86-049-88,0.3,0.213,-0.251,99.74,5.0,,0.0,0.0,
2025-08-15T01:31:50.811Z,14,GR86-049-88,0.3,0.155,-0.186,99.73,5.0,7225.0,0.0,0.0,
2025-08-15T01:31:50.854Z,14,GR86-049-88,0.3,-0.027,-0.101,99.74,5.0,,0.0,0.0,184.14
2025-08-15T01:31:50.897Z,14,GR86-049-88,0.3,0.062,-0.205,99.73,5.0,,0.0,0.0,
2025-08-15T01:31:50.940Z,14,GR86-049-88,0.4,0.121,-0.074,99.74,5.0,,0.0,0.0,
2025-08-15T01:31:50.983Z,14,GR86-049-88,0.4,0.077,-0.157,99.74,5.0,,0.0,0.0,
2025-08-15T01:31:51.069Z,14,GR86-049-88,0.4,0.094,-0.087,99.75,5.0,6834.0,0.0,0.0,184.81
2025-08-15T01:31:51.155Z,14,GR86-049-88,0.5,0.084,-0.131,99.76,5.0,,0.0,0.0,
2025-08-15T01:31:51.199Z,14,GR86-049-88,0.5,0.1,-0.08,99.74,5.0,,0.0,0.0,
2025-08-15T01:31:51.242Z,14,GR86-049-88,0.5,0.098,-0.085,99.73,5.0,6372.0,0.0,0.0,
2025-08-15T01:31:51.285Z,14,GR86-049-88,0.5,0.091,-0.067,99.75,5.0,,0.0,0.0,185.61
2025-08-15T01:31:51.328Z,14,GR86-049-88,0.5,0.095,-0.085,99.74,5.0,,0.0,0.0,
2025-08-15T01:31:51.371Z,14,GR86-049-88,0.5,0.106,-0.086,99.75,5.0,,0.0,0.0,
2025-08-15T01:31:51.415Z,14,GR86-049-88,0.5,0.094,-0.08,99.75,5.0,,0.0,0.0,
2025-08-15T01:31:51.459Z,14,GR86-049-88,0.5,0.058,-0.103,99.73,5.0,6346.0,0.0,0.0,
2025-08-15T01:31:51.502Z,14,GR86-049-88,0.5,0.059,-0.129,99.74,5.0,,0.0,0.0,186.37
2025-08-15T01:31:51.545Z,14,GR86-049-88,0.5,0.059,-0.113,99.75,5.0,,0.0,0.0,
2025-08-15T01:31:51.589Z,14,GR86-049-88,0.5,0.081,-0.118,99.75,5.0,,0.0,0.0,
2025-08-15T01:31:51.632Z,14,GR86-049-88,0.5,0.055,-0.133,99.73,5.0,,0.0,0.0,
2025-08-15T01:31:51.675Z,14,GR86-049-88,0.5,0.083,-0.124,99.75,5.0,6373.0,0.0,0.0,
2025-08-15T01:31:51.720Z,14,GR86-049-88,0.5,0.086,-0.12,99.75,5.0,,0.0,0.0,187.8
2025-08-15T01:31:51.763Z,14,GR86-049-88,0.5,0.064,-0.111,99.72,5.0,,0.0,0.0,
2025-08-15T01:31:51.806Z,14,GR86-049-88,0.5,0.062,-0.101,99.75,5.0,,0.0,0.0,
2025-08-15T01:31:51.849Z,14,GR86-049-88,0.6000000000000001,0.063,-0.11,99.73,5.0,,0.0,0.0,
2025-08-15T01:31:51.892Z,14,GR86-049-88,0.5,0.06,-0.128,99.74,5.0,6403.0,0.0,0.0,
2025-08-15T01:31:51.935Z,14,GR86-049-88,0.6000000000000001,0.058,-0.129,99.74,5.0,,0.0,0.0,188.55
2025-08-15T01:31:51.979Z,14,GR86-049-88,0.6000000000000001,0.11,-0.101,99.74,5.0,,0.0,0.0,
2025-08-15T01:31:52.022Z,14,GR86-049-88,0.6000000000000001,0.105,-0.087,99.73,5.0,,0.0,0.0,
2025-08-15T01:31:52.065Z,14,GR86-049-88,0.6000000000000001,0.092,-0.074,99.75,5.0,,0.0,0.0,
2025-08-15T01:31:52.108Z,14,GR86-049-88,0.6000000000000001,0.101,-0.097,99.74,5.0,6419.0,0.0,0.0,
2025-08-15T01:31:52.151Z,14,GR86-049-88,0.6000000000000001,0.091,-0.104,99.74,5.0,,0.0,0.0,189.23
2025-08-15T01:31:52.194Z,14,GR86-049-88,0.6000000000000001,0.095,-0.113,99.75,5.0,,0.0,0.0,
2025-08-15T01:31:52.237Z,14,GR86-049-88,0.6000000000000001,0.075,-0.113,99.75,5.0,,0.0,0.0,
2025-08-15T01:31:52.280Z,14,GR86-049-88,0.6000000000000001,0.087,-0.084,99.73,5.0,,0.0,0.0,
2025-08-15T01:31:52.323Z,14,GR86-049-88,0.7000000000000001,0.095,-0.09,99.76,5.0,6463.0,0.0,0.0,
2025-08-15T01:31:52.366Z,14,GR86-049-88,0.7000000000000001,0.092,-0.087,99.74,5.0,,0.0,0.0,189.96
2025-08-15T01:31:52.409Z,14,GR86-049-88,0.7000000000000001,0.103,-0.086,99.74,5.0,,0.0,0.0,
2025-08-15T01:31:52.452Z,14,GR86-049-88,0.8,0.114,-0.09,99.75,5.0,,0.0,0.0,
2025-08-15T01:31:52.495Z,14,GR86-049-88,0.8,0.105,-0.098,99.75,5.0,,0.0,0.0,
2025-08-15T01:31:52.539Z,14,GR86-049-88,0.9,0.062,-0.089,99.75,5.0,6493.0,0.0,0.0,
2025-08-15T01:31:52.581Z,14,GR86-049-88,0.9,0.051,-0.089,99.74,5.0,,0.0,0.0,190.59
2025-08-15T01:31:52.624Z,14,GR86-049-88,0.9,0.087,-0.084,99.75,5.0,,0.0,0.0,
2025-08-15T01:31:52.667Z,14,GR86-049-88,0.9,0.063,-0.073,99.75,5.0,,0.0,0.0,
2025-08-15T01:31:52.710Z,14,GR86-049-88,0.9,0.115,-0.07,99.76,5.0,,0.0,0.0,
2025-08-15T01:31:52.753Z,14,GR86-049-88,0.9,0.105,-0.066,99.74,5.0,6510.0,0.0,0.0,
2025-08-15T01:31:52.796Z,14,GR86-049-88,0.8,0.112,-0.062,99.75,5.0,,0.0,0.0,191.27
2025-08-15T01:31:52.839Z,14,GR86-049-88,0.9,0.044,-0.121,99.75,5.0,,0.0,0.0,
2025-08-15T01:31:52.882Z,14,GR86-049-88,0.9,0.029,-0.126,99.74,5.0,,0.0,0.0,
2025-08-15T01:31:52.925Z,14,GR86-049-88,0.9,0.057,-0.139,99.75,5.0,,0.0,0.0,
2025-08-15T01:31:52.968Z,14,GR86-049-88,0.9,0.05,-0.126,99.73,5.0,6539.0,0.0,0.0,
2025-08-15T01:31:53.054Z,14,GR86-049-88,0.9,0.093,-0.158,99.75,5.0,,0.0,0.0,192.0
2025-08-15T01:31:53.097Z,14,GR86-049-88,0.9,0.079,-0.16,99.74,5.0,,0.0,0.0,
2025-08-15T01:31:53.140Z,14,GR86-049-88,1.3,0.026,-0.147,99.76,5.0,,0.0,0.0,
2025-08-15T01:31:53.183Z,14,GR86-049-88,1.6,0.044,-0.141,99.73,5.0,6556.0,0.0,0.0,
2025-08-15T01:31:53.226Z,14,GR86-049-88,1.7000000000000002,0.035,-0.128,99.73,5.0,,0.0,0.0,192.76
2025-08-15T01:31:53.269Z,14,GR86-049-88,1.7000000000000002,0.084,-0.111,99.74,5.0,,0.0,0.0,
2025-08-15T01:31:53.312Z,14,GR86-049-88,1.7000000000000002,0.048,-0.1,99.74,5.0,,0.0,0.0,
2025-08-15T01:31:53.355Z,14,GR86-049-88,1.8,0.101,-0.067,99.74,5.0,,0.0,0.0,
2025-08-15T01:31:53.400Z,14,GR86-049-88,1.9,0.043,-0.078,99.74,5.0,6579.0,0.0,0.0,
2025-08-15T01:31:53.443Z,14,GR86-049-88,1.9,0.017,-0.065,99.74,5.0,,0.0,0.0,193.36
2025-08-15T01:31:53.486Z,14,GR86-049-88,1.9,0.036,-0.052,99.73,5.0,,0.0,0.0,
2025-08-15T01:31:53.530Z,14,GR86-049-88,1.9,0.05,-0.057,99.74,5.0,,0.0,0.0,
2025-08-15T01:31:53.573Z,14,GR86-049-88,1.9,0.069,-0.034,99.73,5.0,,0.0,0.0,
2025-08-15T01:31:53.616Z,14,GR86-049-88,2.0,0.081,-0.024,99.74,5.0,6601.0,0.0,0.0,
2025-08-15T01:31:53.660Z,14,GR86-049-88,2.1,0.034,-0.042,99.73,5.0,,0.0,0.0,194.0
2025-08-15T01:31:53.702Z,14,GR86-049-88,2.1,0.032,-0.046,99.74,5.0,,0.0,0.0,
2025-08-15T01:31:53.746Z,14,GR86-049-88,2.3000000000000003,0.043,-0.041,99.73,5.0,,0.0,0.0,
2025-08-15T01:31:53.789Z,14,GR86-049-88,2.5,0.028,-0.02,99.74,5.0,,0.0,0.0,
2025-08-15T01:31:53.832Z,14,GR86-049-88,3.0,0.062,-0.013,99.74,5.0,6619.0,0.0,0.0,
2025-08-15T01:31:53.875Z,14,GR86-049-88,3.4000000000000004,0.062,0.004,99.73,5.0,,0.0,0.0,194.57
2025-08-15T01:31:53.920Z,14,GR86-049-88,3.6,0.032,0.004,99.73,5.0,,0.0,0.0,
2025-08-15T01:31:53.963Z,14,GR86-049-88,3.7,0.027,0.019,99.75,5.0,,0.0,0.0,
2025-08-15T01:31:54.006Z,14,GR86-049-88,3.7,0.022,0.038,99.74,5.0,,0.0,0.0,
2025-08-15T01:31:54.049Z,14,GR86-049-88,3.8,0.041,0.048,99.74,5.0,6639.0,0.0,0.0,
2025-08-15T01:31:54.092Z,14,GR86-049-88,3.8,0.05,0.049,99.75,5.0,,0.0,0.0,195.09
2025-08-15T01:31:54.135Z,14,GR86-049-88,3.8,0.085,0.055,99.73,5.0,,0.0,0.0,
2025-08-15T01:31:54.178Z,14,GR86-049-88,3.9,0.032,0.052,99.74,5.0,,0.0,0.0,
2025-08-15T01:31:54.264Z,14,GR86-049-88,4.0,0.027,0.038,99.73,5.0,6663.0,0.0,0.0,
2025-08-15T01:31:54.307Z,14,GR86-049-88,4.2,0.052,0.06,99.74,5.0,,0.0,0.0,195.69
2025-08-15T01:31:54.350Z,14,GR86-049-88,4.2,0.06,0.069,99.73,5.0,,0.0,0.0,
2025-08-15T01:31:54.393Z,14,GR86-049-88,4.2,0.084,0.078,99.73,5.0,,0.0,0.0,
2025-08-15T01:31:54.480Z,14,GR86-049-88,4.4,0.028,0.062,99.74,5.0,6678.0,0.0,0.0,
2025-08-15T01:31:54.523Z,14,GR86-049-88,4.4,0.064,0.05,99.75,5.0,,0.0,0.0,196.87
2025-08-15T01:31:54.566Z,14,GR86-049-88,4.4,0.047,0.07,99.75,5.0,,0.0,0.0,
2025-08-15T01:31:54.609Z,14,GR86-049-88,4.5,0.092,0.079,99.74,5.0,,0.0,0.0,
2025-08-15T01:31:54.652Z,14,GR86-049-88,4.5,0.077,0.1,99.75,5.0,,0.0,0.0,
2025-08-15T01:31:54.695Z,14,GR86-049-88,4.6000000000000005,0.102,0.104,99.75,5.0,6702.0,0.0,0.0,
2025-08-15T01:31:54.739Z,14,GR86-049-88,4.9,0.051,0.076,99.74,5.0,,0.0,0.0,197.33
2025-08-15T01:31:54.782Z,14,GR86-049-88,5.2,0.057,0.093,99.72,5.0,,0.0,0.0,
2025-08-15T01:31:54.825Z,14,GR86-049-88,5.5,0.085,0.103,99.73,5.0,,0.0,0.0,
2025-08-15T01:31:54.869Z,14,GR86-049-88,5.800000000000001,0.075,0.111,99.73,5.0,,0.0,0.0,
2025-08-15T01:31:54.911Z,14,GR86-049-88,6.0,0.091,0.118,99.73,5.0,6714.0,0.0,0.0,
2025-08-15T01:31:54.955Z,14,GR86-049-88,6.1000000000000005,0.083,0.127,99.72,5.0,,0.0,0.0,197.95
2025-08-15T01:31:54.997Z,14,GR86-049-88,6.1000000000000005,0.073,0.152,99.72,5.0,,0.0,0.0,
2025-08-15T01:31:55.083Z,14,GR86-049-88,6.4,0.078,0.216,99.75,5.0,,0.0,0.0,
2025-08-15T01:31:55.126Z,14,GR86-049-88,6.5,0.078,0.217,99.74,5.0,6750.0,0.0,0.0,
2025-08-15T01:31:55.169Z,14,GR86-049-88,6.6000000000000005,0.076,0.217,99.73,5.0,,0.0,0.0,198.56
2025-08-15T01:31:55.212Z,14,GR86-049-88,6.7,0.06,0.212,99.73,5.0,,0.0,0.0,
2025-08-15T01:31:55.255Z,14,GR86-049-88,6.800000000000001,0.053,0.209,99.72,5.0,,0.0,0.0,
2025-08-15T01:31:55.299Z,14,GR86-049-88,6.9,0.054,0.204,99.74,5.0,,0.0,0.0,
2025-08-15T01:31:55.341Z,14,GR86-049-88,6.9,0.09,0.191,99.73,5.0,6786.0,0.0,0.0,
2025-08-15T01:31:55.385Z,14,GR86-049-88,6.9,0.077,0.19,99.74,5.0,,0.0,0.0,199.09
2025-08-15T01:31:55.428Z,14,GR86-049-88,7.0,0.062,0.187,99.75,5.0,,0.0,0.0,
2025-08-15T01:31:55.471Z,14,GR86-049-88,7.0,0.057,0.175,99.73,5.0,,0.0,0.0,
2025-08-15T01:31:55.515Z,14,GR86-049-88,7.0,0.045,0.161,99.74,5.0,,0.0,0.0,
2025-08-15T01:31:55.559Z,14,GR86-049-88,7.0,0.083,0.191,99.73,5.0,6795.0,0.0,0.0,
2025-08-15T01:31:55.602Z,14,GR86-049-88,7.0,0.074,0.173,99.73,5.0,,0.0,0.0,199.76
2025-08-15T01:31:55.645Z,14,GR86-049-88,7.0,0.062,0.192,99.73,5.0,,0.0,0.0,
2025-08-15T01:31:55.689Z,14,GR86-049-88,7.1000000000000005,0.055,0.168,99.73,5.0,,0.0,0.0,
2025-08-15T01:31:55.732Z,14,GR86-049-88,7.1000000000000005,0.04,0.163,99.73,5.0,,0.0,0.0,
2025-08-15T01:31:55.775Z,14,GR86-049-88,7.1000000000000005,0.062,0.151,99.73,5.0,6817.0,0.0,0.0,
2025-08-15T01:31:55.820Z,14,GR86-049-88,7.1000000000000005,0.074,0.14,99.73,5.0,,0.0,0.0,200.28
2025-08-15T01:31:55.863Z,14,GR86-049-88,7.1000000000000005,0.066,0.142,99.73,5.0,,0.0,0.0,
2025-08-15T01:31:55.906Z,14,GR86-049-88,7.1000000000000005,0.055,0.132,99.73,5.0,,0.0,0.0,
2025-08-15T01:31:55.950Z,14,GR86-049-88,7.1000000000000005,0.054,0.127,99.73,5.0,,0.0,0.0,
2025-08-15T01:31:55.993Z,14,GR86-049-88,7.1000000000000005,0.043,0.126,99.73,5.0,6838.0,0.0,0.0,
2025-08-15T01:31:56.036Z,14,GR86-049-88,7.1000000000000005,0.068,0.124,99.73,5.0,,0.0,0.0,200.92
2025-08-15T01:31:56.080Z,14,GR86-049-88,7.1000000000000005,0.071,0.137,99.73,5.0,,0.0,0.0,
2025-08-15T01:31:56.166Z,14,GR86-049-88,7.1000000000000005,0.029,0.124,99.74,5.0,,0.0,0.0,
2025-08-15T01:31:56.209Z,14,GR86-049-88,7.1000000000000005,0.053,0.103,99.74,5.0,6852.0,0.0,0.0,
2025-08-15T01:31:56.252Z,14,GR86-049-88,7.1000000000000005,0.053,0.131,99.72,5.0,,0.0,0.0,201.45
2025-08-15T01:31:56.295Z,14,GR86-049-88,7.1000000000000005,0.065,0.113,99.72,5.0,,0.0,0.0,
2025-08-15T01:31:56.339Z,14,GR86-049-88,7.1000000000000005,0.042,0.085,99.74,5.0,,0.0,0.0,
2025-08-15T01:31:56.382Z,14,GR86-049-88,7.1000000000000005,0.055,0.087,99.72,5.0,,0.0,0.0,
2025-08-15T01:31:56.468Z,14,GR86-049-88,7.1000000000000005,0.064,0.129,99.73,5.0,6870.0,0.0,0.0,202.07
2025-08-15T01:31:56.511Z,14,GR86-049-88,7.1000000000000005,0.068,0.128,99.73,5.0,,0.0,0.0,
2025-08-15T01:31:56.555Z,14,GR86-049-88,7.1000000000000005,0.083,0.137,99.73,5.0,,0.0,0.0,
2025-08-15T01:31:56.597Z,14,GR86-049-88,7.1000000000000005,0.062,0.119,99.71,5.0,,0.0,0.0,
2025-08-15T01:31:56.640Z,14,GR86-049-88,7.1000000000000005,0.055,0.113,99.72,5.0,6888.0,0.0,0.0,
2025-08-15T01:31:56.683Z,14,GR86-049-88,7.1000000000000005,0.081,0.127,99.74,5.0,,0.0,0.0,202.67
2025-08-15T01:31:56.726Z,14,GR86-049-88,7.1000000000000005,0.085,0.141,99.73,5.0,,0.0,0.0,
2025-08-15T01:31:56.769Z,14,GR86-049-88,7.1000000000000005,0.065,0.14,99.73,5.0,,0.0,0.0,
2025-08-15T01:31:56.812Z,14,GR86-049-88,7.1000000000000005,0.038,0.133,99.72,5.0,,0.0,0.0,
2025-08-15T01:31:56.855Z,14,GR86-049-88,7.1000000000000005,0.032,0.126,99.73,5.0,6911.0,0.0,0.0,
2025-08-15T01:31:56.899Z,14,GR86-049-88,7.1000000000000005,0.071,0.146,99.72,5.0,,0.0,0.0,203.17
2025-08-15T01:31:56.941Z,14,GR86-049-88,7.1000000000000005,0.055,0.12,99.73,5.0,,0.0,0.0,
2025-08-15T01:31:56.985Z,14,GR86-049-88,7.1000000000000005,0.046,0.107,99.73,5.0,,0.0,0.0,
2025-08-15T01:31:57.028Z,14,GR86-049-88,7.1000000000000005,0.037,0.089,99.72,5.0,,0.0,0.0,
2025-08-15T01:31:57.071Z,14,GR86-049-88,7.1000000000000005,0.019,0.096,99.73,5.0,6941.0,0.0,0.0,
2025-08-15T01:31:57.115Z,14,GR86-049-88,7.1000000000000005,0.063,0.083,99.73,5.0,,0.0,0.0,203.61
2025-08-15T01:31:57.159Z,14,GR86-049-88,7.2,0.037,0.081,99.73,5.0,,0.0,0.0,
2025-08-15T01:31:57.202Z,14,GR86-049-88,7.2,0.027,0.101,99.73,5.0,,0.0,0.0,
2025-08-15T01:31:57.245Z,14,GR86-049-88,7.5,0.058,0.134,99.75,5.0,,0.0,0.0,
2025-08-15T01:31:57.288Z,14,GR86-049-88,8.0,0.046,0.165,99.75,5.0,6965.0,0.0,0.0,
2025-08-15T01:31:57.331Z,14,GR86-049-88,8.200000000000001,0.08,0.164,99.73,5.0,,0.0,0.0,204.9
2025-08-15T01:31:57.374Z,14,GR86-049-88,8.3,0.069,0.185,99.74,5.0,,0.0,0.0,
2025-08-15T01:31:57.417Z,14,GR86-049-88,8.4,0.07,0.2,99.74,5.0,,0.0,0.0,
2025-08-15T01:31:57.460Z,14,GR86-049-88,8.4,0.071,0.28,99.73,5.0,,0.0,0.0,
2025-08-15T01:31:57.503Z,14,GR86-049-88,8.5,0.079,0.304,99.72,5.0,6981.0,0.0,0.0,
2025-08-15T01:31:57.546Z,14,GR86-049-88,9.0,0.075,0.307,99.73,5.0,,0.0,0.0,205.52
2025-08-15T01:31:57.589Z,14,GR86-049-88,10.0,0.045,0.326,99.73,5.0,,0.0,0.0,
2025-08-15T01:31:57.632Z,14,GR86-049-88,10.5,0.034,0.324,99.71,5.0,,0.0,0.0,
2025-08-15T01:31:57.675Z,14,GR86-049-88,10.5,0.024,0.308,99.73,5.0,,0.0,0.0,
2025-08-15T01:31:57.720Z,14,GR86-049-88,10.6,0.037,0.347,99.74,5.0,7020.0,0.0,0.0,
2025-08-15T01:31:57.763Z,14,GR86-049-88,10.6,0.032,0.344,99.73,5.0,,0.0,0.0,205.96
2025-08-15T01:31:57.806Z,14,GR86-049-88,10.7,0.025,0.374,99.73,5.0,,0.0,0.0,
2025-08-15T01:31:57.849Z,14,GR86-049-88,10.7,0.043,0.394,99.73,5.0,,0.0,0.0,
2025-08-15T01:31:57.892Z,14,GR86-049-88,10.7,0.075,0.425,99.72,5.0,,0.0,0.0,
2025-08-15T01:31:57.935Z,14,GR86-049-88,10.8,0.077,0.445,99.73,5.0,7044.0,0.0,0.0,
2025-08-15T01:31:57.979Z,14,GR86-049-88,10.8,0.039,0.418,99.75,5.0,,0.0,0.0,206.5
2025-08-15T01:31:58.021Z,14,GR86-049-88,10.8,0.072,0.38,99.72,5.0,,0.0,0.0,
2025-08-15T01:31:58.064Z,14,GR86-049-88,10.9,0.08,0.35,99.75,5.0,,0.0,0.0,
2025-08-15T01:31:58.107Z,14,GR86-049-88,10.9,0.071,0.354,99.73,5.0,,0.0,0.0,
2025-08-15T01:31:58.150Z,14,GR86-049-88,10.9,0.065,0.346,99.73,5.0,7054.0,0.0,0.0,
2025-08-15T01:31:58.193Z,14,GR86-049-88,11.0,0.012,0.373,99.73,5.0,,0.0,0.0,207.23
2025-08-15T01:31:58.236Z,14,GR86-049-88,11.1,0.023,0.383,99.73,5.0,,0.0,0.0,
2025-08-15T01:31:58.280Z,14,GR86-049-88,11.5,0.03,0.389,99.75,5.0,,0.0,0.0,
2025-08-15T01:31:58.323Z,14,GR86-049-88,11.5,0.029,0.373,99.74,5.0,,0.0,0.0,
2025-08-15T01:31:58.366Z,14,GR86-049-88,11.3,0.018,0.409,99.73,5.0,7102.0,0.0,0.0,
2025-08-15T01:31:58.409Z,14,GR86-049-88,11.0,0.064,0.398,99.73,5.0,,0.0,0.0,207.84
2025-08-15T01:31:58.452Z,14,GR86-049-88,11.0,0.072,0.393,99.74,5.0,,0.0,0.0,
2025-08-15T01:31:58.495Z,14,GR86-049-88,11.0,0.084,0.373,99.74,5.0,,0.0,0.0,
2025-08-15T01:31:58.539Z,14,GR86-049-88,11.0,0.057,0.319,99.73,5.0,,0.0,0.0,
2025-08-15T01:31:58.581Z,14,GR86-049-88,10.9,0.089,0.308,99.74,5.0,7098.0,0.0,0.0,
2025-08-15T01:31:58.624Z,14,GR86-049-88,10.9,0.08,0.284,99.33,5.0,,0.0,0.0,208.48
2025-08-15T01:31:58.667Z,14,GR86-049-88,10.9,0.062,0.289,50.9,5.0,,0.0,0.0,
2025-08-15T01:31:58.710Z,14,GR86-049-88,10.8,0.013,0.275,3.73,5.0,,0.0,0.0,
2025-08-15T01:31:58.753Z,14,GR86-049-88,10.8,-0.006,0.278,4.68,5.0,,0.0,0.0,
2025-08-15T01:31:58.796Z,14,GR86-049-88,10.8,-0.255,0.333,4.46,5.0,7115.0,0.0,0.0,
2025-08-15T01:31:58.840Z,14,GR86-049-88,10.8,-0.501,0.281,3.98,5.0,,19.15,19.275,209.2
2025-08-15T01:31:58.883Z,14,GR86-049-88,10.8,-0.464,0.247,3.76,5.0,,24.735,24.765,
2025-08-15T01:31:58.926Z,14,GR86-049-88,10.6,-0.5680000000000001,0.303,3.53,5.0,,29.56,29.59,
2025-08-15T01:31:58.969Z,14,GR86-049-88,10.0,-0.672,0.25,3.24,5.0,,31.54,31.65,
2025-08-15T01:31:59.012Z,14,GR86-049-88,9.9,-0.645,0.288,3.02,5.0,7154.0,35.31,35.175000000000004,
2025-08-15T01:31:59.099Z,14,GR86-049-88,9.9,-0.904,0.254,2.77,5.0,,49.335,49.015,209.6
2025-08-15T01:31:59.273Z,14,GR86-049-88,6.1000000000000005,-1.231,0.081,2.53,5.0,,102.21,104.12,209.85
2025-08-15T01:31:59.360Z,14,GR86-049-88,8.200000000000001,-1.352,0.167,2.56,5.0,,89.575,89.18,
2025-08-15T01:31:59.402Z,14,GR86-049-88,6.1000000000000005,-1.367,0.143,2.53,5.0,7048.0,96.96,99.83,
2025-08-15T01:31:59.445Z,14,GR86-049-88,-2.3000000000000003,-1.495,0.181,8.13,4.0,6732.0,89.425,90.08,
2025-08-15T01:31:59.489Z,14,GR86-049-88,-2.3000000000000003,-1.48,0.159,4.25,4.0,,94.965,96.64,205.12
2025-08-15T01:31:59.532Z,14,GR86-049-88,-0.3,-1.364,0.206,4.0,4.0,,95.51,97.74,
2025-08-15T01:31:59.575Z,14,GR86-049-88,2.5,-1.36,0.206,3.79,4.0,,90.585,92.72,
2025-08-15T01:31:59.620Z,14,GR86-049-88,4.9,-1.109,0.226,3.59,4.0,,85.5,87.3,
2025-08-15T01:31:59.663Z,14,GR86-049-88,6.1000000000000005,-1.148,0.199,3.36,4.0,5849.0,84.205,85.775,
2025-08-15T01:31:59.706Z,14,GR86-049-88,6.800000000000001,-1.175,0.18,3.17,4.0,,83.455,84.295,188.17
2025-08-15T01:31:59.749Z,14,GR86-049-88,7.5,-1.175,0.084,2.9,4.0,,80.62,80.91,
2025-08-15T01:31:59.792Z,14,GR86-049-88,8.9,-1.156,0.067,2.71,4.0,,77.275,77.55,
2025-08-15T01:31:59.835Z,14,GR86-049-88,11.6,-1.194,0.058,2.61,4.0,,74.41,74.59,
2025-08-15T01:31:59.879Z,14,GR86-049-88,13.9,-1.251,0.088,2.54,4.0,6653.0,71.14,71.235,
2025-08-15T01:31:59.921Z,14,GR86-049-88,13.9,-1.255,0.094,2.53,4.0,,69.555,69.615,176.76
2025-08-15T01:31:59.964Z,14,GR86-049-88,13.6,-1.298,0.042,2.53,4.0,,68.03,68.625,
2025-08-15T01:32:00.007Z,14,GR86-049-88,13.6,-1.283,0.05,2.53,4.0,,65.955,67.175,
2025-08-15T01:32:00.050Z,14,GR86-049-88,13.6,-1.234,0.057,2.53,4.0,,63.025,64.72,
2025-08-15T01:32:00.093Z,14,GR86-049-88,14.2,-1.253,0.098,24.03,4.0,6815.0,61.620000000000005,63.085,
2025-08-15T01:32:00.136Z,14,GR86-049-88,14.4,-1.12,0.151,49.4,3.0,,60.05,61.71,170.83
2025-08-15T01:32:00.180Z,14,GR86-049-88,14.1,-1.118,0.133,4.57,3.0,,57.65,59.085,
2025-08-15T01:32:00.222Z,14,GR86-049-88,11.2,-1.224,0.157,4.14,3.0,,58.995000000000005,60.4,
2025-08-15T01:32:00.265Z,14,GR86-049-88,9.0,-1.205,0.174,3.98,3.0,,60.55,61.025,
2025-08-15T01:32:00.308Z,14,GR86-049-88,8.3,-1.192,0.24,3.81,3.0,6382.0,64.87,66.185,
2025-08-15T01:32:00.351Z,14,GR86-049-88,8.700000000000001,-1.252,0.175,3.66,3.0,,71.92,72.76,163.74
2025-08-15T01:32:00.394Z,14,GR86-049-88,12.7,-1.232,0.338,3.39,3.0,,79.33500000000001,80.59,
2025-08-15T01:32:00.437Z,14,GR86-049-88,13.3,-1.36,0.388,3.14,3.0,,88.765,90.265,
2025-08-15T01:32:00.480Z,14,GR86-049-88,9.2,-1.352,0.36,2.72,3.0,,95.62,96.64,
2025-08-15T01:32:00.523Z,14,GR86-049-88,5.1000000000000005,-1.263,0.405,2.62,3.0,6589.0,94.49,94.735,
2025-08-15T01:32:00.566Z,14,GR86-049-88,4.5,-1.297,0.269,2.54,3.0,,93.65,93.59,155.71
2025-08-15T01:32:00.609Z,14,GR86-049-88,6.300000000000001,-1.288,0.247,2.53,3.0,,95.955,96.87,
2025-08-15T01:32:00.652Z,14,GR86-049-88,10.3,-1.244,0.305,2.53,3.0,,93.985,95.955,
2025-08-15T01:32:00.695Z,14,GR86-049-88,12.6,-1.255,0.356,17.91,3.0,,93.055,93.56,
2025-08-15T01:32:00.739Z,14,GR86-049-88,12.8,-1.339,0.337,81.11,3.0,6410.0,95.71,96.78,
2025-08-15T01:32:00.781Z,14,GR86-049-88,12.8,-1.291,0.294,77.5,2.0,,96.2,97.65,147.32
2025-08-15T01:32:00.825Z,14,GR86-049-88,11.3,-1.551,0.175,7.95,2.0,,98.565,100.52,
2025-08-15T01:32:00.869Z,14,GR86-049-88,9.1,-1.461,0.293,2.82,2.0,,102.485,104.625,
2025-08-15T01:32:00.911Z,14,GR86-049-88,9.3,-1.368,0.013,2.77,2.0,,99.525,100.52,
2025-08-15T01:32:00.954Z,14,GR86-049-88,14.0,-1.267,0.223,2.77,2.0,5962.0,98.185,100.245,
2025-08-15T01:32:00.997Z,14,GR86-049-88,17.3,-1.331,0.186,2.76,2.0,,98.305,100.245,139.07
2025-08-15T01:32:01.040Z,14,GR86-049-88,21.8,-1.36,0.326,2.74,2.0,,99.8,100.775,
2025-08-15T01:32:01.083Z,14,GR86-049-88,27.1,-1.404,0.325,2.72,2.0,,101.235,102.87,
2025-08-15T01:32:01.126Z,14,GR86-049-88,31.200000000000003,-1.19,0.252,2.72,2.0,,100.64,102.335,
2025-08-15T01:32:01.169Z,14,GR86-049-88,32.5,-1.31,0.388,2.7,2.0,6550.0,99.92,100.87,
2025-08-15T01:32:01.212Z,14,GR86-049-88,33.2,-1.238,0.315,2.68,2.0,,100.275,100.775,130.85
2025-08-15T01:32:01.255Z,14,GR86-049-88,35.6,-1.319,0.262,2.66,2.0,,101.145,101.525,
2025-08-15T01:32:01.299Z,14,GR86-049-88,36.1,-1.281,0.502,51.94,1.0,,98.215,99.495,
2025-08-15T01:32:01.384Z,14,GR86-049-88,36.1,-1.33,0.36,12.72,1.0,6497.0,99.525,101.175,
2025-08-15T01:32:01.428Z,14,GR86-049-88,36.1,-1.364,0.534,4.3,1.0,,101.175,102.975,120.49
2025-08-15T01:32:01.471Z,14,GR86-049-88,36.1,-1.21,0.494,4.08,1.0,,98.06,98.99,
2025-08-15T01:32:01.514Z,14,GR86-049-88,36.1,-1.228,0.716,3.82,1.0,,95.45,96.96,
2025-08-15T01:32:01.557Z,14,GR86-049-88,37.5,-1.045,0.682,3.6,1.0,,81.275,82.925,
2025-08-15T01:32:01.600Z,14,GR86-049-88,35.800000000000004,-1.021,0.889,3.08,1.0,6145.0,68.44,68.99,
2025-08-15T01:32:01.643Z,14,GR86-049-88,35.300000000000004,-1.032,0.868,2.75,1.0,,68.99,70.21000000000001,112.03
2025-08-15T01:32:01.686Z,14,GR86-049-88,39.7,-0.835,0.711,2.58,1.0,,71.8,72.575,
2025-08-15T01:32:01.729Z,14,GR86-049-88,50.0,-0.962,0.954,2.53,1.0,,65.205,65.925,
2025-08-15T01:32:01.772Z,14,GR86-049-88,57.6,-0.861,1.066,2.48,1.0,,60.43,60.98,
2025-08-15T01:32:01.815Z,14,GR86-049-88,62.7,-0.911,0.784,2.46,1.0,6844.0,60.825,61.74,
2025-08-15T01:32:01.859Z,14,GR86-049-88,63.2,-0.881,1.083,2.42,1.0,,51.0,52.145,104.08
2025-08-15T01:32:01.901Z,14,GR86-049-88,63.2,-0.735,0.93,2.44,1.0,,36.55,37.645,
2025-08-15T01:32:01.944Z,14,GR86-049-88,64.60000000000001,-0.6960000000000001,0.892,2.45,1.0,,27.71,28.69,
2025-08-15T01:32:01.987Z,14,GR86-049-88,66.2,-0.53,1.06,2.44,1.0,,19.21,20.115,
2025-08-15T01:32:02.030Z,14,GR86-049-88,67.2,-0.506,0.951,2.45,1.0,6567.0,12.53,13.2,
2025-08-15T01:32:02.073Z,14,GR86-049-88,68.4,-0.381,0.99,2.45,1.0,,9.065,9.845,97.41
2025-08-15T01:32:02.116Z,14,GR86-049-88,70.0,-0.353,1.07,2.44,1.0,,8.33,8.88,
2025-08-15T01:32:02.160Z,14,GR86-049-88,71.3,-0.345,1.027,2.43,1.0,,6.96,7.585,
2025-08-15T01:32:02.202Z,14,GR86-049-88,71.3,-0.333,1.094,2.44,1.0,,4.305,4.835,
2025-08-15T01:32:02.245Z,14,GR86-049-88,71.4,-0.257,1.105,2.44,1.0,6361.0,0.0,0.0,
2025-08-15T01:32:02.288Z,14,GR86-049-88,71.3,-0.227,1.15,2.45,1.0,,0.0,0.0,90.69
2025-08-15T01:32:02.331Z,14,GR86-049-88,70.3,-0.202,1.16,2.46,1.0,,0.0,0.0,
2025-08-15T01:32:02.374Z,14,GR86-049-88,69.9,-0.178,1.145,2.45,1.0,,0.0,0.0,
2025-08-15T01:32:02.417Z,14,GR86-049-88,69.60000000000001,-0.196,1.159,2.46,1.0,,0.0,0.0,
2025-08-15T01:32:02.460Z,14,GR86-049-88,68.4,-0.196,1.186,7.99,1.0,6150.0,0.0,0.0,
2025-08-15T01:32:02.503Z,14,GR86-049-88,68.4,-0.187,1.204,13.97,1.0,,0.0,0.0,87.4
2025-08-15T01:32:02.546Z,14,GR86-049-88,68.3,-0.186,1.221,19.43,1.0,,0.0,0.0,
2025-08-15T01:32:02.589Z,14,GR86-049-88,68.3,-0.18,1.256,23.05,1.0,,0.0,0.0,
2025-08-15T01:32:02.632Z,14,GR86-049-88,68.2,-0.165,1.18,29.23,1.0,,0.0,0.0,
2025-08-15T01:32:02.675Z,14,GR86-049-88,68.10000000000001,-0.1,1.213,31.75,1.0,5972.0,0.0,0.0,
2025-08-15T01:32:02.720Z,14,GR86-049-88,68.10000000000001,-0.107,1.194,32.7,1.0,,0.0,0.0,83.92
2025-08-15T01:32:02.763Z,14,GR86-049-88,68.3,0.028,1.254,33.36,1.0,,0.0,0.0,
2025-08-15T01:32:02.806Z,14,GR86-049-88,70.10000000000001,0.171,1.17,33.39,1.0,,0.0,0.0,
2025-08-15T01:32:02.850Z,14,GR86-049-88,72.7,0.258,1.245,33.410000000000004,1.0,,0.0,0.0,
2025-08-15T01:32:02.893Z,14,GR86-049-88,75.9,0.333,1.254,33.410000000000004,1.0,5855.0,0.0,0.0,
2025-08-15T01:32:02.936Z,14,GR86-049-88,82.5,0.269,1.222,33.410000000000004,1.0,,0.0,0.0,82.4
2025-08-15T01:32:02.980Z,14,GR86-049-88,95.9,0.148,1.234,32.95,1.0,,0.0,0.0,
2025-08-15T01:32:03.023Z,14,GR86-049-88,100.7,0.159,1.284,32.51,1.0,,0.0,0.0,
2025-08-15T01:32:03.066Z,14,GR86-049-88,101.0,0.156,1.16,32.31,1.0,,0.0,0.0,
2025-08-15T01:32:03.109Z,14,GR86-049-88,101.1,0.128,1.195,32.29,1.0,6105.0,0.0,0.0,
2025-08-15T01:32:03.152Z,14,GR86-049-88,100.5,0.034,1.123,32.28,1.0,,0.0,0.0,81.60000000000001
2025-08-15T01:32:03.195Z,14,GR86-049-88,100.2,0.084,1.182,32.22,1.0,,0.0,0.0,
2025-08-15T01:32:03.239Z,14,GR86-049-88,98.3,0.084,1.121,32.28,1.0,,0.0,0.0,
2025-08-15T01:32:03.282Z,14,GR86-049-88,96.4,0.065,1.028,32.34,1.0,,0.0,0.0,
2025-08-15T01:32:03.369Z,14,GR86-049-88,93.5,0.198,1.115,32.31,1.0,6323.0,0.0,0.0,82.09
2025-08-15T01:32:03.412Z,14,GR86-049-88,92.3,0.294,1.054,32.18,1.0,,0.0,0.0,
2025-08-15T01:32:03.455Z,14,GR86-049-88,92.3,0.061,1.081,32.37,1.0,,0.0,0.0,
2025-08-15T01:32:03.499Z,14,GR86-049-88,93.8,0.016,1.124,32.82,1.0,,0.0,0.0,
2025-08-15T01:32:03.542Z,14,GR86-049-88,96.1,0.154,1.258,33.1,1.0,6571.0,0.0,0.0,
2025-08-15T01:32:03.585Z,14,GR86-049-88,97.4,0.349,1.022,32.79,1.0,,0.0,0.0,82.51
2025-08-15T01:32:03.628Z,14,GR86-049-88,97.4,0.049,1.02,33.11,1.0,,0.0,0.0,
2025-08-15T01:32:03.671Z,14,GR86-049-88,97.4,0.159,1.132,33.6,1.0,,0.0,0.0,
2025-08-15T01:32:03.714Z,14,GR86-049-88,97.4,0.415,1.05,33.88,1.0,,0.0,0.0,
2025-08-15T01:32:03.757Z,14,GR86-049-88,97.4,-0.112,1.173,35.17,1.0,6575.0,0.0,0.0,
2025-08-15T01:32:03.800Z,14,GR86-049-88,97.4,0.027,1.545,63.8,1.0,,0.0,0.0,83.5
2025-08-15T01:32:03.843Z,14,GR86-049-88,97.2,0.358,1.371,98.86,1.0,,0.0,0.0,
2025-08-15T01:32:03.886Z,14,GR86-049-88,96.9,0.295,1.127,99.74,1.0,,0.0,0.0,
2025-08-15T01:32:03.929Z,14,GR86-049-88,94.1,0.437,1.117,99.74,1.0,,0.0,0.0,
2025-08-15T01:32:03.972Z,14,GR86-049-88,86.10000000000001,0.375,1.204,99.75,1.0,6654.0,0.0,0.0,
2025-08-15T01:32:04.016Z,14,GR86-049-88,72.60000000000001,0.319,0.959,99.74,1.0,,0.0,0.0,84.3
2025-08-15T01:32:04.060Z,14,GR86-049-88,48.6,0.275,1.161,99.75,1.0,,0.0,0.0,
2025-08-15T01:32:04.103Z,14,GR86-049-88,39.5,0.307,1.134,99.74,1.0,,0.0,0.0,
2025-08-15T01:32:04.146Z,14,GR86-049-88,37.1,0.313,1.004,99.76,1.0,,0.0,0.0,
2025-08-15T01:32:04.189Z,14,GR86-049-88,37.0,0.326,1.101,99.79,1.0,6816.0,0.0,0.0,
2025-08-15T01:32:04.232Z,14,GR86-049-88,34.800000000000004,0.35,1.112,99.76,1.0,,0.0,0.0,85.32000000000001
2025-08-15T01:32:04.275Z,14,GR86-049-88,31.3,0.257,1.012,99.77,1.0,,0.0,0.0,
2025-08-15T01:32:04.320Z,14,GR86-049-88,19.700000000000003,0.3,1.101,99.76,1.0,,0.0,0.0,
2025-08-15T01:32:04.363Z,14,GR86-049-88,11.7,0.358,1.122,99.78,1.0,,0.0,0.0,
2025-08-15T01:32:04.406Z,14,GR86-049-88,4.7,0.33,1.031,99.77,1.0,6895.0,0.0,0.0,
2025-08-15T01:32:04.449Z,14,GR86-049-88,-3.3000000000000003,0.342,1.097,99.78,1.0,,0.0,0.0,86.97
2025-08-15T01:32:04.492Z,14,GR86-049-88,-12.5,0.364,1.105,99.77,1.0,,0.0,0.0,
2025-08-15T01:32:04.535Z,14,GR86-049-88,-24.4,0.324,0.976,99.76,1.0,,0.0,0.0,
2025-08-15T01:32:04.579Z,14,GR86-049-88,-32.800000000000004,0.333,1.001,99.78,1.0,,0.0,0.0,
2025-08-15T01:32:04.621Z,14,GR86-049-88,-34.800000000000004,0.329,0.979,99.76,1.0,7135.0,0.0,0.0,
2025-08-15T01:32:04.664Z,14,GR86-049-88,-34.800000000000004,0.209,0.929,99.77,1.0,,0.0,0.0,89.06
2025-08-15T01:32:04.708Z,14,GR86-049-88,-34.1,0.034,0.999,99.77,2.0,,0.0,0.0,
2025-08-15T01:32:04.751Z,14,GR86-049-88,-34.2,0.042,0.848,99.79,2.0,,0.0,0.0,
2025-08-15T01:32:04.794Z,14,GR86-049-88,-35.5,0.526,0.5680000000000001,99.76,2.0,,0.0,0.0,
2025-08-15T01:32:04.837Z,14,GR86-049-88,-22.8,0.556,0.771,99.78,2.0,7286.0,0.0,0.0,
2025-08-15T01:32:04.880Z,14,GR86-049-88,5.9,0.401,0.668,99.8,2.0,,0.0,0.0,90.95
2025-08-15T01:32:04.923Z,14,GR86-049-88,30.0,0.558,0.858,99.77,2.0,,0.0,0.0,
2025-08-15T01:32:04.966Z,14,GR86-049-88,50.8,0.478,1.213,99.77,2.0,,0.0,0.0,
2025-08-15T01:32:05.009Z,14,GR86-049-88,57.3,0.276,0.731,99.77,2.0,,0.0,0.0,
2025-08-15T01:32:05.052Z,14,GR86-049-88,59.1,0.205,0.661,99.76,2.0,6698.0,0.0,0.0,
2025-08-15T01:32:05.095Z,14,GR86-049-88,52.6,0.23,0.452,99.76,2.0,,0.0,0.0,92.33
2025-08-15T01:32:05.139Z,14,GR86-049-88,36.0,0.432,0.591,99.79,2.0,,0.0,0.0,
2025-08-15T01:32:05.181Z,14,GR86-049-88,24.3,0.312,0.663,99.78,2.0,,0.0,0.0,
2025-08-15T01:32:05.224Z,14,GR86-049-88,14.6,0.006,0.5750000000000001,99.76,2.0,,0.0,0.0,
2025-08-15T01:32:05.267Z,14,GR86-049-88,1.3,-0.034,1.312,99.76,2.0,5937.0,0.0,0.0,
2025-08-15T01:32:05.310Z,14,GR86-049-88,-15.6,0.212,1.015,99.77,2.0,,0.0,0.0,92.6
2025-08-15T01:32:05.353Z,14,GR86-049-88,-33.9,0.253,1.085,99.78,2.0,,0.0,0.0,
2025-08-15T01:32:05.396Z,14,GR86-049-88,-44.0,0.424,1.026,99.77,2.0,,0.0,0.0,
2025-08-15T01:32:05.483Z,14,GR86-049-88,0.4,0.534,0.919,99.8,2.0,5773.0,0.0,0.0,
2025-08-15T01:32:05.526Z,14,GR86-049-88,30.200000000000003,0.877,0.932,99.8,2.0,,0.0,0.0,95.82
2025-08-15T01:32:05.569Z,14,GR86-049-88,53.8,0.718,0.872,99.8,2.0,,0.0,0.0,
2025-08-15T01:32:05.612Z,14,GR86-049-88,61.6,0.336,0.942,99.79,2.0,,0.0,0.0,
2025-08-15T01:32:05.655Z,14,GR86-049-88,62.8,0.177,0.74,99.78,2.0,,0.0,0.0,
2025-08-15T01:32:05.699Z,14,GR86-049-88,51.400000000000006,0.382,0.5630000000000001,99.8,2.0,5999.0,0.0,0.0,
2025-08-15T01:32:05.743Z,14,GR86-049-88,47.2,0.278,0.542,99.77,2.0,,0.0,0.0,97.7
2025-08-15T01:32:05.786Z,14,GR86-049-88,40.3,0.412,0.371,99.79,2.0,,0.0,0.0,
2025-08-15T01:32:05.830Z,14,GR86-049-88,35.800000000000004,0.448,0.281,99.77,2.0,,0.0,0.0,
2025-08-15T01:32:05.873Z,14,GR86-049-88,32.6,0.313,-0.04,99.76,2.0,,0.0,0.0,
2025-08-15T01:32:05.916Z,14,GR86-049-88,27.1,0.027,0.166,99.77,2.0,5949.0,0.0,0.0,
2025-08-15T01:32:05.960Z,14,GR86-049-88,15.8,0.378,0.089,99.76,2.0,,0.0,0.0,98.77
2025-08-15T01:32:06.002Z,14,GR86-049-88,5.800000000000001,0.043,0.393,99.79,2.0,,0.0,0.0,
2025-08-15T01:32:06.046Z,14,GR86-049-88,4.3,0.405,0.5750000000000001,99.78,2.0,,0.0,0.0,
2025-08-15T01:32:06.089Z,14,GR86-049-88,5.300000000000001,0.342,0.456,99.77,2.0,,0.0,0.0,
2025-08-15T01:32:06.132Z,14,GR86-049-88,9.8,0.278,0.541,99.77,2.0,5963.0,0.0,0.0,
2025-08-15T01:32:06.175Z,14,GR86-049-88,12.4,0.068,0.38,99.77,2.0,,0.0,0.0,100.85
2025-08-15T01:32:06.220Z,14,GR86-049-88,12.5,0.295,0.169,99.79,2.0,,0.0,0.0,
2025-08-15T01:32:06.263Z,14,GR86-049-88,12.2,0.325,0.171,99.77,2.0,,0.0,0.0,
2025-08-15T01:32:06.306Z,14,GR86-049-88,11.3,0.468,0.153,99.79,2.0,,0.0,0.0,
2025-08-15T01:32:06.349Z,14,GR86-049-88,11.2,0.412,0.085,99.78,2.0,6167.0,0.0,0.0,
2025-08-15T01:32:06.392Z,14,GR86-049-88,11.7,0.305,0.103,99.79,2.0,,0.0,0.0,102.9
2025-08-15T01:32:06.435Z,14,GR86-049-88,11.7,0.411,0.107,99.77,2.0,,0.0,0.0,
2025-08-15T01:32:06.478Z,14,GR86-049-88,10.7,0.375,-0.012,99.78,2.0,,0.0,0.0,
2025-08-15T01:32:06.521Z,14,GR86-049-88,8.9,0.383,0.066,99.79,2.0,,0.0,0.0,
2025-08-15T01:32:06.565Z,14,GR86-049-88,7.0,0.379,-0.031,99.78,2.0,6396.0,0.0,0.0,
2025-08-15T01:32:06.608Z,14,GR86-049-88,5.4,0.462,-0.065,99.79,2.0,,0.0,0.0,105.12
2025-08-15T01:32:06.651Z,14,GR86-049-88,4.7,0.475,-0.025,99.77,2.0,,0.0,0.0,
2025-08-15T01:32:06.694Z,14,GR86-049-88,4.6000000000000005,0.522,-0.141,99.8,2.0,,0.0,0.0,
2025-08-15T01:32:06.739Z,14,GR86-049-88,4.7,0.032,-0.168,99.77,2.0,,0.0,0.0,
2025-08-15T01:32:06.781Z,14,GR86-049-88,4.3,0.153,-0.103,99.78,2.0,6206.0,0.0,0.0,
2025-08-15T01:32:06.824Z,14,GR86-049-88,3.5,0.09,-0.121,99.77,2.0,,0.0,0.0,106.43
2025-08-15T01:32:06.867Z,14,GR86-049-88,3.2,0.13,-0.091,99.8,2.0,,0.0,0.0,
2025-08-15T01:32:06.910Z,14,GR86-049-88,3.3000000000000003,0.087,-0.042,99.77,2.0,,0.0,0.0,
2025-08-15T01:32:06.953Z,14,GR86-049-88,4.2,0.131,-0.123,99.8,2.0,,0.0,0.0,
2025-08-15T01:32:06.996Z,14,GR86-049-88,5.300000000000001,0.201,-0.109,99.79,2.0,6496.0,0.0,0.0,
2025-08-15T01:32:07.040Z,14,GR86-049-88,6.7,0.347,-0.106,99.8,2.0,,0.0,0.0,108.14
2025-08-15T01:32:07.082Z,14,GR86-049-88,7.1000000000000005,0.373,-0.123,99.78,2.0,,0.0,0.0,
2025-08-15T01:32:07.125Z,14,GR86-049-88,8.0,0.365,-0.12,99.77,2.0,,0.0,0.0,
2025-08-15T01:32:07.168Z,14,GR86-049-88,9.0,0.363,0.006,99.79,2.0,,0.0,0.0,
2025-08-15T01:32:07.211Z,14,GR86-049-88,9.4,0.372,-0.005,99.79,2.0,6448.0,0.0,0.0,
2025-08-15T01:32:07.254Z,14,GR86-049-88,9.6,0.331,0.047,99.77,2.0,,0.0,0.0,110.04
2025-08-15T01:32:07.297Z,14,GR86-049-88,9.7,0.332,0.2,99.78,2.0,,0.0,0.0,
2025-08-15T01:32:07.340Z,14,GR86-049-88,9.8,0.289,0.116,99.78,2.0,,0.0,0.0,
2025-08-15T01:32:07.383Z,14,GR86-049-88,9.9,0.29,0.138,99.78,2.0,,0.0,0.0,
2025-08-15T01:32:07.426Z,14,GR86-049-88,9.7,0.227,0.101,99.77,2.0,6546.0,0.0,0.0,
2025-08-15T01:32:07.469Z,14,GR86-049-88,8.6,0.232,0.089,99.78,2.0,,0.0,0.0,111.65
2025-08-15T01:32:07.512Z,14,GR86-049-88,6.4,0.296,0.121,99.78,2.0,,0.0,0.0,
2025-08-15T01:32:07.555Z,14,GR86-049-88,4.9,0.309,0.138,99.79,2.0,,0.0,0.0,
2025-08-15T01:32:07.599Z,14,GR86-049-88,3.4000000000000004,0.282,0.096,99.77,2.0,,0.0,0.0,
2025-08-15T01:32:07.642Z,14,GR86-049-88,2.1,0.255,0.036,99.77,2.0,6594.0,0.0,0.0,
2025-08-15T01:32:07.685Z,14,GR86-049-88,0.1,0.236,-0.032,99.77,2.0,,0.0,0.0,113.27
2025-08-15T01:32:07.728Z,14,GR86-049-88,-1.0,0.229,-0.053,99.79,2.0,,0.0,0.0,
2025-08-15T01:32:07.815Z,14,GR86-049-88,-1.3,0.303,-0.107,99.78,2.0,,0.0,0.0,
2025-08-15T01:32:07.857Z,14,GR86-049-88,-1.2000000000000002,0.278,-0.127,99.78,2.0,6703.0,0.0,0.0,
2025-08-15T01:32:07.943Z,14,GR86-049-88,-0.9,0.266,-0.172,99.77,2.0,,0.0,0.0,114.66
2025-08-15T01:32:07.986Z,14,GR86-049-88,-0.8,0.262,-0.134,99.77,2.0,,0.0,0.0,
2025-08-15T01:32:08.029Z,14,GR86-049-88,-0.7000000000000001,0.281,-0.137,99.8,2.0,,0.0,0.0,
2025-08-15T01:32:08.072Z,14,GR86-049-88,-0.6000000000000001,0.291,-0.126,99.8,2.0,6763.0,0.0,0.0,
2025-08-15T01:32:08.115Z,14,GR86-049-88,-0.6000000000000001,0.258,-0.075,99.79,2.0,,0.0,0.0,116.37
2025-08-15T01:32:08.159Z,14,GR86-049-88,-0.6000000000000001,0.251,-0.077,99.78,2.0,,0.0,0.0,
2025-08-15T01:32:08.202Z,14,GR86-049-88,-0.6000000000000001,0.261,-0.086,99.78,2.0,,0.0,0.0,
2025-08-15T01:32:08.245Z,14,GR86-049-88,-0.6000000000000001,0.283,-0.08,99.78,2.0,,0.0,0.0,
2025-08-15T01:32:08.289Z,14,GR86-049-88,-0.6000000000000001,0.271,-0.071,99.78,2.0,6813.0,0.0,0.0,
2025-08-15T01:32:08.331Z,14,GR86-049-88,-0.9,0.273,-0.098,99.77,2.0,,0.0,0.0,119.38
2025-08-15T01:32:08.374Z,14,GR86-049-88,-1.1,0.257,-0.086,99.77,2.0,,0.0,0.0,
2025-08-15T01:32:08.420Z,14,GR86-049-88,-1.1,0.264,-0.102,99.8,2.0,,0.0,0.0,
2025-08-15T01:32:08.463Z,14,GR86-049-88,-1.0,0.265,-0.091,99.79,2.0,,0.0,0.0,
2025-08-15T01:32:08.506Z,14,GR86-049-88,-0.9,0.288,-0.122,99.8,2.0,6894.0,0.0,0.0,
2025-08-15T01:32:08.550Z,14,GR86-049-88,-0.8,0.268,-0.112,99.8,2.0,,0.0,0.0,120.71
2025-08-15T01:32:08.593Z,14,GR86-049-88,-0.8,0.23,-0.093,99.77,2.0,,0.0,0.0,
2025-08-15T01:32:08.636Z,14,GR86-049-88,-0.8,0.255,-0.113,99.79,2.0,,0.0,0.0,
2025-08-15T01:32:08.680Z,14,GR86-049-88,-0.8,0.272,-0.12,99.78,2.0,,0.0,0.0,
2025-08-15T01:32:08.723Z,14,GR86-049-88,-0.7000000000000001,0.268,-0.121,99.81,2.0,7064.0,0.0,0.0,
2025-08-15T01:32:08.766Z,14,GR86-049-88,-0.7000000000000001,0.243,-0.094,99.8,2.0,,0.0,0.0,121.96
2025-08-15T01:32:08.809Z,14,GR86-049-88,-0.6000000000000001,0.246,-0.12,99.79,2.0,,0.0,0.0,
2025-08-15T01:32:08.852Z,14,GR86-049-88,-0.5,0.265,-0.103,99.75,2.0,,0.0,0.0,
2025-08-15T01:32:08.895Z,14,GR86-049-88,-0.3,0.248,-0.099,99.78,2.0,,0.0,0.0,
2025-08-15T01:32:08.939Z,14,GR86-049-88,-0.1,0.246,-0.091,99.76,2.0,7140.0,0.0,0.0,
2025-08-15T01:32:08.982Z,14,GR86-049-88,-0.1,0.244,-0.097,99.79,2.0,,0.0,0.0,123.1
2025-08-15T01:32:09.025Z,14,GR86-049-88,-0.1,0.267,-0.123,99.8,2.0,,0.0,0.0,
2025-08-15T01:32:09.068Z,14,GR86-049-88,-0.1,0.241,-0.073,99.79,2.0,,0.0,0.0,
2025-08-15T01:32:09.111Z,14,GR86-049-88,0.0,0.238,-0.079,99.79,2.0,,0.0,0.0,
2025-08-15T01:32:09.155Z,14,GR86-049-88,0.2,0.277,-0.084,99.78,2.0,7195.0,0.0,0.0,
2025-08-15T01:32:09.199Z,14,GR86-049-88,0.3,0.04,-0.077,99.77,3.0,,0.0,0.0,124.28
2025-08-15T01:32:09.242Z,14,GR86-049-88,0.3,0.027,-0.045,99.8,3.0,,0.0,0.0,
2025-08-15T01:32:09.285Z,14,GR86-049-88,1.0,0.56,-0.078,99.79,3.0,,0.0,0.0,
2025-08-15T01:32:09.328Z,14,GR86-049-88,1.7000000000000002,0.401,-0.123,99.8,3.0,,0.0,0.0,
2025-08-15T01:32:09.371Z,14,GR86-049-88,1.7000000000000002,0.421,-0.019,99.79,3.0,7276.0,0.0,0.0,
2025-08-15T01:32:09.414Z,14,GR86-049-88,1.7000000000000002,0.139,-0.038,99.79,3.0,,0.0,0.0,125.4
2025-08-15T01:32:09.457Z,14,GR86-049-88,1.4,0.081,-0.092,99.79,3.0,,0.0,0.0,
2025-08-15T01:32:09.500Z,14,GR86-049-88,1.4,0.201,0.01,99.8,3.0,,0.0,0.0,
2025-08-15T01:32:09.543Z,14,GR86-049-88,1.5,0.298,-0.113,99.79,3.0,,0.0,0.0,
2025-08-15T01:32:09.586Z,14,GR86-049-88,2.1,0.267,-0.002,99.78,3.0,6278.0,0.0,0.0,
2025-08-15T01:32:09.629Z,14,GR86-049-88,2.6,0.152,0.011,99.78,3.0,,0.0,0.0,126.35
2025-08-15T01:32:09.672Z,14,GR86-049-88,3.1,0.188,-0.047,99.77,3.0,,0.0,0.0,
2025-08-15T01:32:09.715Z,14,GR86-049-88,3.2,0.234,0.017,99.77,3.0,,0.0,0.0,
2025-08-15T01:32:09.759Z,14,GR86-049-88,3.2,0.263,-0.014,99.79,3.0,,0.0,0.0,
2025-08-15T01:32:09.845Z,14,GR86-049-88,3.2,0.221,0.034,99.79,3.0,6068.0,0.0,0.0,127.59
2025-08-15T01:32:09.889Z,14,GR86-049-88,2.1,0.224,-0.026,99.79,3.0,,0.0,0.0,
2025-08-15T01:32:09.932Z,14,GR86-049-88,2.1,0.236,-0.012,99.79,3.0,,0.0,0.0,
2025-08-15T01:32:09.975Z,14,GR86-049-88,2.1,0.193,-0.015,99.8,3.0,,0.0,0.0,
2025-08-15T01:32:10.020Z,14,GR86-049-88,2.4000000000000004,0.186,-0.021,99.78,3.0,6051.0,0.0,0.0,
2025-08-15T01:32:10.063Z,14,GR86-049-88,2.4000000000000004,0.18,-0.032,99.77,3.0,,0.0,0.0,128.53
2025-08-15T01:32:10.107Z,14,GR86-049-88,2.4000000000000004,0.238,-0.04,99.77,3.0,,0.0,0.0,
2025-08-15T01:32:10.150Z,14,GR86-049-88,2.4000000000000004,0.244,-0.033,99.78,3.0,,0.0,0.0,
2025-08-15T01:32:10.193Z,14,GR86-049-88,3.0,0.167,-0.005,99.78,3.0,,0.0,0.0,
2025-08-15T01:32:10.236Z,14,GR86-049-88,4.2,0.198,-0.029,99.79,3.0,6082.0,0.0,0.0,
2025-08-15T01:32:10.323Z,14,GR86-049-88,6.300000000000001,0.263,0.037,99.78,3.0,,0.0,0.0,
2025-08-15T01:32:10.495Z,14,GR86-049-88,6.9,0.16,0.117,73.24,3.0,6130.0,0.0,0.0,129.29
2025-08-15T01:32:10.539Z,14,GR86-049-88,6.800000000000001,-0.089,0.149,4.2,3.0,,13.52,13.765,
2025-08-15T01:32:10.581Z,14,GR86-049-88,6.800000000000001,-0.157,0.175,3.98,3.0,,29.805,30.015,
2025-08-15T01:32:10.624Z,14,GR86-049-88,6.6000000000000005,-0.774,0.113,3.73,3.0,,36.03,35.83,
2025-08-15T01:32:10.667Z,14,GR86-049-88,5.9,-0.628,0.154,3.5,3.0,6161.0,39.815,40.06,
2025-08-15T01:32:10.710Z,14,GR86-049-88,5.7,-0.658,0.085,3.25,3.0,,38.35,39.31,131.0
2025-08-15T01:32:10.753Z,14,GR86-049-88,5.7,-0.72,0.084,3.06,3.0,,36.245,37.45,
2025-08-15T01:32:10.796Z,14,GR86-049-88,6.1000000000000005,-0.706,0.159,2.8000000000000003,3.0,,36.09,36.87,
2025-08-15T01:32:10.840Z,14,GR86-049-88,6.2,-0.763,0.133,2.69,3.0,,47.365,47.185,
2025-08-15T01:32:10.925Z,14,GR86-049-88,6.2,-1.036,0.17,34.53,2.0,6049.0,62.75,62.215,130.01
2025-08-15T01:32:10.968Z,14,GR86-049-88,10.0,-1.244,0.113,4.41,2.0,,89.27,90.795,
2025-08-15T01:32:11.011Z,14,GR86-049-88,12.6,-1.142,0.295,4.07,2.0,,95.51,97.68,
2025-08-15T01:32:11.055Z,14,GR86-049-88,14.5,-1.225,0.213,3.94,2.0,,88.8,90.02,
2025-08-15T01:32:11.097Z,14,GR86-049-88,16.1,-1.309,0.327,3.82,2.0,5796.0,72.455,74.345,
2025-08-15T01:32:11.140Z,14,GR86-049-88,24.5,-0.97,0.395,3.56,2.0,,56.22,56.935,123.77
2025-08-15T01:32:11.183Z,14,GR86-049-88,30.200000000000003,-0.951,0.562,3.33,2.0,,54.175,55.27,
2025-08-15T01:32:11.226Z,14,GR86-049-88,31.4,-1.024,0.595,3.08,2.0,,55.15,56.46,
2025-08-15T01:32:11.269Z,14,GR86-049-88,32.0,-0.766,0.59,2.8000000000000003,2.0,,52.22,52.77,
2025-08-15T01:32:11.312Z,14,GR86-049-88,31.9,-1.001,0.781,2.66,2.0,5373.0,38.745,39.905,
2025-08-15T01:32:11.355Z,14,GR86-049-88,30.200000000000003,-0.588,0.916,2.56,2.0,,23.06,24.17,114.58
2025-08-15T01:32:11.400Z,14,GR86-049-88,26.5,-0.37,0.8260000000000001,2.53,2.0,,8.635,9.25,
2025-08-15T01:32:11.443Z,14,GR86-049-88,25.200000000000003,-0.309,0.965,2.51,2.0,,2.855,3.435,
2025-08-15T01:32:11.486Z,14,GR86-049-88,24.5,-0.188,0.919,2.5,2.0,,0.0,0.0,
2025-08-15T01:32:11.530Z,14,GR86-049-88,24.4,-0.176,0.86,2.49,2.0,5754.0,0.0,0.0,
2025-08-15T01:32:11.573Z,14,GR86-049-88,24.4,-0.157,0.97,2.48,2.0,,0.0,0.0,108.67
2025-08-15T01:32:11.616Z,14,GR86-049-88,27.8,-0.148,0.9,2.48,2.0,,0.0,0.0,
2025-08-15T01:32:11.660Z,14,GR86-049-88,40.400000000000006,-0.184,0.994,2.49,2.0,,0.0,0.0,
2025-08-15T01:32:11.702Z,14,GR86-049-88,46.900000000000006,-0.195,1.072,2.48,2.0,,0.0,0.0,
2025-08-15T01:32:11.745Z,14,GR86-049-88,49.8,-0.194,1.014,2.46,2.0,5797.0,2.275,2.365,
2025-08-15T01:32:11.789Z,14,GR86-049-88,50.900000000000006,-0.211,1.041,2.48,2.0,,3.875,4.03,106.51
2025-08-15T01:32:11.832Z,14,GR86-049-88,51.900000000000006,-0.222,1.039,2.47,2.0,,4.53,4.715,
2025-08-15T01:32:11.875Z,14,GR86-049-88,53.1,-0.238,0.999,2.47,2.0,,5.9350000000000005,5.86,
2025-08-15T01:32:11.920Z,14,GR86-049-88,53.7,-0.284,1.049,2.47,2.0,,6.93,7.140000000000001,
2025-08-15T01:32:11.963Z,14,GR86-049-88,53.7,-0.274,1.049,2.47,2.0,5743.0,4.3950000000000005,4.775,
2025-08-15T01:32:12.007Z,14,GR86-049-88,53.7,-0.21,1.014,2.46,2.0,,0.0,0.0,104.22
2025-08-15T01:32:12.050Z,14,GR86-049-88,53.7,-0.19,1.111,2.47,2.0,,0.0,0.0,
2025-08-15T01:32:12.093Z,14,GR86-049-88,53.5,-0.187,1.105,2.47,2.0,,0.0,0.0,
2025-08-15T01:32:12.136Z,14,GR86-049-88,49.7,-0.161,1.15,2.47,2.0,,0.0,0.0,
2025-08-15T01:32:12.180Z,14,GR86-049-88,44.2,-0.167,1.176,2.46,2.0,5623.0,0.0,0.0,
2025-08-15T01:32:12.222Z,14,GR86-049-88,40.6,-0.178,1.207,2.48,2.0,,0.0,0.0,102.85
2025-08-15T01:32:12.265Z,14,GR86-049-88,34.9,-0.15,1.157,2.48,2.0,,0.0,0.0,
2025-08-15T01:32:12.308Z,14,GR86-049-88,31.8,-0.13,1.159,2.47,2.0,,0.0,0.0,
2025-08-15T01:32:12.351Z,14,GR86-049-88,31.8,-0.159,1.178,2.48,2.0,,0.0,0.0,
2025-08-15T01:32:12.394Z,14,GR86-049-88,32.0,-0.143,1.172,2.48,2.0,5536.0,0.0,0.0,
2025-08-15T01:32:12.439Z,14,GR86-049-88,26.3,-0.14,1.22,2.51,2.0,,0.0,0.0,101.15
2025-08-15T01:32:12.482Z,14,GR86-049-88,17.6,-0.13,1.223,2.77,2.0,,0.0,0.0,
2025-08-15T01:32:12.525Z,14,GR86-049-88,13.2,-0.134,1.206,3.94,2.0,,0.0,0.0,
2025-08-15T01:32:12.568Z,14,GR86-049-88,10.6,-0.15,1.181,6.13,2.0,,0.0,0.0,
2025-08-15T01:32:12.611Z,14,GR86-049-88,7.5,-0.137,1.176,9.6,2.0,5417.0,0.0,0.0,
2025-08-15T01:32:12.655Z,14,GR86-049-88,4.800000000000001,-0.127,1.139,10.24,2.0,,0.0,0.0,99.86
2025-08-15T01:32:12.697Z,14,GR86-049-88,4.2,-0.1,1.148,14.07,2.0,,0.0,0.0,
2025-08-15T01:32:12.740Z,14,GR86-049-88,17.8,-0.096,1.179,20.35,2.0,,0.0,0.0,
2025-08-15T01:32:12.826Z,14,GR86-049-88,47.7,-0.12,1.278,21.55,2.0,5293.0,0.0,0.0,
2025-08-15T01:32:12.869Z,14,GR86-049-88,53.1,-0.11,1.305,23.07,2.0,,0.0,0.0,98.28
2025-08-15T01:32:12.912Z,14,GR86-049-88,52.900000000000006,-0.114,1.392,27.55,2.0,,0.0,0.0,
2025-08-15T01:32:12.955Z,14,GR86-049-88,49.8,-0.016,1.285,29.74,2.0,,0.0,0.0,
2025-08-15T01:32:12.999Z,14,GR86-049-88,50.3,0.137,1.169,30.71,2.0,,0.0,0.0,
2025-08-15T01:32:13.042Z,14,GR86-049-88,53.3,0.116,1.203,34.57,2.0,5285.0,0.0,0.0,
2025-08-15T01:32:13.085Z,14,GR86-049-88,53.400000000000006,0.123,1.323,54.64,2.0,,0.0,0.0,96.81
2025-08-15T01:32:13.128Z,14,GR86-049-88,50.400000000000006,0.207,1.325,96.39,2.0,,0.0,0.0,
2025-08-15T01:32:13.171Z,14,GR86-049-88,47.400000000000006,0.209,1.099,99.71,2.0,,0.0,0.0,
2025-08-15T01:32:13.214Z,14,GR86-049-88,47.5,0.107,1.071,99.76,2.0,,0.0,0.0,
2025-08-15T01:32:13.257Z,14,GR86-049-88,48.2,0.201,1.111,99.77,2.0,5470.0,0.0,0.0,
2025-08-15T01:32:13.300Z,14,GR86-049-88,48.1,0.288,1.152,99.77,2.0,,0.0,0.0,94.91
2025-08-15T01:32:13.343Z,14,GR86-049-88,46.900000000000006,0.273,1.23,99.78,2.0,,0.0,0.0,
2025-08-15T01:32:13.386Z,14,GR86-049-88,46.8,0.314,1.165,99.77,2.0,,0.0,0.0,
2025-08-15T01:32:13.430Z,14,GR86-049-88,47.7,0.244,1.133,99.78,2.0,,0.0,0.0,
2025-08-15T01:32:13.473Z,14,GR86-049-88,50.400000000000006,0.271,1.071,99.78,2.0,5544.0,0.0,0.0,
2025-08-15T01:32:13.516Z,14,GR86-049-88,52.3,0.242,1.071,99.79,2.0,,0.0,0.0,94.04
2025-08-15T01:32:13.560Z,14,GR86-049-88,53.8,0.212,1.088,99.78,2.0,,0.0,0.0,
2025-08-15T01:32:13.603Z,14,GR86-049-88,54.0,0.275,1.21,99.77,2.0,,0.0,0.0,
2025-08-15T01:32:13.646Z,14,GR86-049-88,54.0,0.265,1.196,99.78,2.0,,0.0,0.0,
2025-08-15T01:32:13.689Z,14,GR86-049-88,54.0,0.284,1.132,99.78,2.0,5710.0,0.0,0.0,
2025-08-15T01:32:13.775Z,14,GR86-049-88,54.0,0.243,1.057,99.78,2.0,,0.0,0.0,95.97
2025-08-15T01:32:13.820Z,14,GR86-049-88,53.900000000000006,0.232,1.083,99.78,2.0,,0.0,0.0,
2025-08-15T01:32:13.863Z,14,GR86-049-88,53.7,0.231,1.101,99.78,2.0,,0.0,0.0,
2025-08-15T01:32:13.907Z,14,GR86-049-88,52.6,0.305,1.081,99.78,2.0,5696.0,0.0,0.0,
2025-08-15T01:32:13.950Z,14,GR86-049-88,50.0,0.264,1.085,99.78,2.0,,0.0,0.0,97.76
2025-08-15T01:32:13.993Z,14,GR86-049-88,46.400000000000006,0.242,1.033,99.77,2.0,,0.0,0.0,
2025-08-15T01:32:14.036Z,14,GR86-049-88,43.900000000000006,0.206,1.014,99.78,2.0,,0.0,0.0,
2025-08-15T01:32:14.080Z,14,GR86-049-88,43.0,0.25,1.032,99.78,2.0,,0.0,0.0,
2025-08-15T01:32:14.123Z,14,GR86-049-88,42.8,0.285,1.03,99.77,2.0,5892.0,0.0,0.0,
2025-08-15T01:32:14.166Z,14,GR86-049-88,41.900000000000006,0.233,1.008,99.77,2.0,,0.0,0.0,99.44
2025-08-15T01:32:14.209Z,14,GR86-049-88,40.5,0.239,1.042,99.77,2.0,,0.0,0.0,
2025-08-15T01:32:14.252Z,14,GR86-049-88,39.1,0.267,1.044,99.77,2.0,,0.0,0.0,
2025-08-15T01:32:14.295Z,14,GR86-049-88,37.5,0.278,1.083,99.78,2.0,,0.0,0.0,
2025-08-15T01:32:14.339Z,14,GR86-049-88,36.3,0.291,1.114,99.79,2.0,6023.0,0.0,0.0,
2025-08-15T01:32:14.382Z,14,GR86-049-88,36.3,0.288,1.154,99.79,2.0,,0.0,0.0,101.02
2025-08-15T01:32:14.425Z,14,GR86-049-88,36.3,0.249,1.124,99.78,2.0,,0.0,0.0,
2025-08-15T01:32:14.469Z,14,GR86-049-88,37.0,0.248,1.113,99.78,2.0,,0.0,0.0,
2025-08-15T01:32:14.511Z,14,GR86-049-88,42.1,0.248,1.134,99.81,2.0,,0.0,0.0,
2025-08-15T01:32:14.555Z,14,GR86-049-88,49.3,0.251,1.082,99.79,2.0,6125.0,0.0,0.0,
2025-08-15T01:32:14.597Z,14,GR86-049-88,54.6,0.192,1.117,99.77,2.0,,0.0,0.0,102.75
2025-08-15T01:32:14.640Z,14,GR86-049-88,56.0,0.26,0.526,99.8,2.0,,0.0,0.0,
2025-08-15T01:32:14.683Z,14,GR86-049-88,55.6,0.135,0.676,99.78,2.0,,0.0,0.0,
2025-08-15T01:32:14.726Z,14,GR86-049-88,52.8,0.102,0.855,99.79,2.0,,0.0,0.0,
2025-08-15T01:32:14.769Z,14,GR86-049-88,43.8,0.185,0.868,99.76,2.0,6187.0,0.0,0.0,
2025-08-15T01:32:14.812Z,14,GR86-049-88,33.6,0.183,0.971,99.76,2.0,,0.0,0.0,104.56
2025-08-15T01:32:14.855Z,14,GR86-049-88,29.0,0.288,1.053,99.77,2.0,,0.0,0.0,
2025-08-15T01:32:14.899Z,14,GR86-049-88,30.0,0.205,1.006,99.81,2.0,,0.0,0.0,
2025-08-15T01:32:14.941Z,14,GR86-049-88,32.0,0.123,1.034,99.8,2.0,,0.0,0.0,
2025-08-15T01:32:15.027Z,14,GR86-049-88,32.2,0.295,1.233,99.79,2.0,6274.0,0.0,0.0,106.13
2025-08-15T01:32:15.070Z,14,GR86-049-88,31.1,0.561,1.029,99.78,2.0,,0.0,0.0,
2025-08-15T01:32:15.113Z,14,GR86-049-88,31.0,0.617,1.081,99.8,2.0,,0.0,0.0,
2025-08-15T01:32:15.156Z,14,GR86-049-88,30.4,0.467,0.856,99.79,2.0,,0.0,0.0,
2025-08-15T01:32:15.200Z,14,GR86-049-88,26.0,0.214,0.723,99.78,2.0,6439.0,0.0,0.0,
2025-08-15T01:32:15.242Z,14,GR86-049-88,21.9,0.363,0.87,99.81,2.0,,0.0,0.0,107.1
2025-08-15T01:32:15.285Z,14,GR86-049-88,18.6,0.287,0.749,99.77,2.0,,0.0,0.0,
2025-08-15T01:32:15.328Z,14,GR86-049-88,17.3,0.282,1.06,99.78,2.0,,0.0,0.0,
2025-08-15T01:32:15.371Z,14,GR86-049-88,17.6,0.421,0.885,99.8,2.0,,0.0,0.0,
2025-08-15T01:32:15.415Z,14,GR86-049-88,24.0,0.284,0.99,99.8,2.0,6460.0,0.0,0.0,
2025-08-15T01:32:15.457Z,14,GR86-049-88,29.6,0.295,0.759,99.8,2.0,,0.0,0.0,109.25
2025-08-15T01:32:15.500Z,14,GR86-049-88,31.8,0.211,0.81,99.78,2.0,,0.0,0.0,
2025-08-15T01:32:15.543Z,14,GR86-049-88,31.700000000000003,0.217,0.521,99.79,2.0,,0.0,0.0,
2025-08-15T01:32:15.586Z,14,GR86-049-88,32.0,0.262,0.772,99.79,2.0,,0.0,0.0,
2025-08-15T01:32:15.629Z,14,GR86-049-88,32.300000000000004,0.394,0.891,99.8,2.0,6631.0,0.0,0.0,
2025-08-15T01:32:15.672Z,14,GR86-049-88,32.300000000000004,0.356,0.724,99.78,2.0,,0.0,0.0,110.18
2025-08-15T01:32:15.715Z,14,GR86-049-88,29.200000000000003,0.435,0.751,99.79,2.0,,0.0,0.0,
2025-08-15T01:32:15.759Z,14,GR86-049-88,20.8,-0.019,0.489,99.77,2.0,,0.0,0.0,
2025-08-15T01:32:15.802Z,14,GR86-049-88,16.400000000000002,-0.009,0.603,99.79,2.0,,0.0,0.0,
2025-08-15T01:32:15.845Z,14,GR86-049-88,12.7,0.141,0.368,99.77,2.0,6562.0,0.0,0.0,
2025-08-15T01:32:15.889Z,14,GR86-049-88,9.1,0.257,0.713,99.8,2.0,,0.0,0.0,111.47
2025-08-15T01:32:15.931Z,14,GR86-049-88,6.1000000000000005,0.419,0.5690000000000001,99.78,2.0,,0.0,0.0,
2025-08-15T01:32:15.974Z,14,GR86-049-88,5.2,0.312,0.501,99.81,2.0,,0.0,0.0,
2025-08-15T01:32:16.017Z,14,GR86-049-88,5.2,0.173,0.277,99.8,2.0,,0.0,0.0,
2025-08-15T01:32:16.060Z,14,GR86-049-88,5.6000000000000005,0.175,0.107,99.79,2.0,6617.0,0.0,0.0,
2025-08-15T01:32:16.103Z,14,GR86-049-88,6.6000000000000005,0.102,-0.03,99.81,2.0,,0.0,0.0,113.43
2025-08-15T01:32:16.146Z,14,GR86-049-88,7.1000000000000005,0.098,-0.124,99.8,2.0,,0.0,0.0,
2025-08-15T01:32:16.189Z,14,GR86-049-88,7.2,0.373,-0.002,99.8,2.0,,0.0,0.0,
2025-08-15T01:32:16.232Z,14,GR86-049-88,7.2,0.342,-0.089,99.8,2.0,,0.0,0.0,
2025-08-15T01:32:16.275Z,14,GR86-049-88,7.6,0.326,-0.005,99.8,2.0,6948.0,0.0,0.0,
2025-08-15T01:32:16.320Z,14,GR86-049-88,7.800000000000001,0.28,0.015,99.79,2.0,,0.0,0.0,117.17
2025-08-15T01:32:16.363Z,14,GR86-049-88,7.800000000000001,0.16,0.005,99.82,2.0,,0.0,0.0,
2025-08-15T01:32:16.406Z,14,GR86-049-88,7.5,0.256,0.097,99.81,2.0,,0.0,0.0,
