timestamp,lap,vehicle_id,steering_angle,accx_can,accy_can,ath,gear,nmot,pbrake_f,pbrake_r,speed
2025-08-15T02:00:54.994Z,5,GR86-025-47,-0.1,0.106,-0.016,99.99,5.0,6366.0,0.0,0.0,
2025-08-15T02:00:55.038Z,5,GR86-025-47,-0.1,0.119,-0.029,99.99,5.0,,0.0,0.0,183.59
2025-08-15T02:00:55.081Z,5,GR86-025-47,-0.2,0.076,-0.006,100.0,5.0,,0.0,0.0,
2025-08-15T02:00:55.124Z,5,GR86-025-47,-0.2,0.132,-0.047,99.99,5.0,,0.0,0.0,
2025-08-15T02:00:55.167Z,5,GR86-025-47,-0.2,0.143,-0.054,100.01,5.0,,0.0,0.0,
2025-08-15T02:00:55.210Z,5,GR86-025-47,-0.2,0.125,-0.071,100.0,5.0,6226.0,0.0,0.0,
2025-08-15T02:00:55.253Z,5,GR86-025-47,-0.1,0.114,-0.063,100.0,5.0,,0.0,0.0,184.28
2025-08-15T02:00:55.296Z,5,GR86-025-47,0.1,0.122,-0.05,100.01,5.0,,0.0,0.0,
2025-08-15T02:00:55.339Z,5,GR86-025-47,0.2,0.125,-0.075,100.0,5.0,,0.0,0.0,
2025-08-15T02:00:55.382Z,5,GR86-025-47,0.3,0.122,-0.038,99.99,5.0,,0.0,0.0,
2025-08-15T02:00:55.427Z,5,GR86-025-47,0.3,0.127,-0.023,100.0,5.0,6302.0,0.0,0.0,
2025-08-15T02:00:55.470Z,5,GR86-025-47,0.4,0.147,-0.03,100.01,5.0,,0.0,0.0,185.87
2025-08-15T02:00:55.513Z,5,GR86-025-47,0.5,0.137,-0.011,100.01,5.0,,0.0,0.0,
2025-08-15T02:00:55.556Z,5,GR86-025-47,0.5,0.148,0.004,100.0,5.0,,0.0,0.0,
2025-08-15T02:00:55.599Z,5,GR86-025-47,0.6000000000000001,0.13,0.004,100.0,5.0,,0.0,0.0,
2025-08-15T02:00:55.642Z,5,GR86-025-47,0.6000000000000001,0.107,0.02,99.98,5.0,6330.0,0.0,0.0,
2025-08-15T02:00:55.686Z,5,GR86-025-47,0.7000000000000001,0.11,0.01,99.99,5.0,,0.0,0.0,186.65
2025-08-15T02:00:55.729Z,5,GR86-025-47,0.7000000000000001,0.099,0.026,100.0,5.0,,0.0,0.0,
2025-08-15T02:00:55.772Z,5,GR86-025-47,0.7000000000000001,0.116,0.016,100.01,5.0,,0.0,0.0,
2025-08-15T02:00:55.815Z,5,GR86-025-47,0.8,0.116,0.027,99.99,5.0,,0.0,0.0,
2025-08-15T02:00:55.858Z,5,GR86-025-47,1.2000000000000002,0.117,0.023,99.99,5.0,6357.0,0.0,0.0,
2025-08-15T02:00:55.901Z,5,GR86-025-47,2.0,0.121,0.039,100.0,5.0,,0.0,0.0,187.5
2025-08-15T02:00:55.944Z,5,GR86-025-47,3.1,0.116,0.077,100.0,5.0,,0.0,0.0,
2025-08-15T02:00:55.987Z,5,GR86-025-47,4.3,0.121,0.084,100.0,5.0,,0.0,0.0,
2025-08-15T02:00:56.030Z,5,GR86-025-47,5.1000000000000005,0.107,0.088,100.0,5.0,,0.0,0.0,
2025-08-15T02:00:56.073Z,5,GR86-025-47,5.2,0.119,0.112,100.0,5.0,6412.0,0.0,0.0,
2025-08-15T02:00:56.116Z,5,GR86-025-47,4.7,0.097,0.146,100.01,5.0,,0.0,0.0,188.26
2025-08-15T02:00:56.160Z,5,GR86-025-47,3.9,0.128,0.173,100.0,5.0,,0.0,0.0,
2025-08-15T02:00:56.203Z,5,GR86-025-47,3.4000000000000004,0.146,0.154,99.99,5.0,,0.0,0.0,
2025-08-15T02:00:56.247Z,5,GR86-025-47,3.2,0.142,0.153,100.01,5.0,,0.0,0.0,
2025-08-15T02:00:56.290Z,5,GR86-025-47,1.2000000000000002,0.148,0.105,100.0,5.0,6424.0,0.0,0.0,
2025-08-15T02:00:56.333Z,5,GR86-025-47,-0.9,0.124,0.052,100.0,5.0,,0.0,0.0,189.15
2025-08-15T02:00:56.376Z,5,GR86-025-47,-1.2000000000000002,0.115,0.025,100.0,5.0,,0.0,0.0,
2025-08-15T02:00:56.419Z,5,GR86-025-47,-0.6000000000000001,0.129,0.006,99.99,5.0,,0.0,0.0,
2025-08-15T02:00:56.464Z,5,GR86-025-47,4.2,0.141,-0.009,99.99,5.0,,0.0,0.0,
2025-08-15T02:00:56.507Z,5,GR86-025-47,5.6000000000000005,0.134,-0.023,100.0,5.0,6464.0,0.0,0.0,
2025-08-15T02:00:56.550Z,5,GR86-025-47,5.300000000000001,0.13,0.005,100.01,5.0,,0.0,0.0,190.0
2025-08-15T02:00:56.593Z,5,GR86-025-47,4.7,0.135,0.038,100.0,5.0,,0.0,0.0,
2025-08-15T02:00:56.636Z,5,GR86-025-47,4.4,0.138,0.072,99.99,5.0,,0.0,0.0,
2025-08-15T02:00:56.679Z,5,GR86-025-47,4.3,0.127,0.091,100.01,5.0,,0.0,0.0,
2025-08-15T02:00:56.722Z,5,GR86-025-47,4.0,0.135,0.097,100.0,5.0,6486.0,0.0,0.0,
2025-08-15T02:00:56.766Z,5,GR86-025-47,2.4000000000000004,0.118,0.104,100.01,5.0,,0.0,0.0,190.79
2025-08-15T02:00:56.809Z,5,GR86-025-47,-0.3,0.123,0.097,100.0,5.0,,0.0,0.0,
2025-08-15T02:00:56.852Z,5,GR86-025-47,-1.5,0.128,0.031,100.0,5.0,,0.0,0.0,
2025-08-15T02:00:56.895Z,5,GR86-025-47,-1.5,0.124,-0.019,99.99,5.0,,0.0,0.0,
2025-08-15T02:00:56.938Z,5,GR86-025-47,-0.6000000000000001,0.125,-0.042,100.0,5.0,6521.0,0.0,0.0,
2025-08-15T02:00:56.982Z,5,GR86-025-47,0.5,0.112,-0.048,100.0,5.0,,0.0,0.0,191.63
2025-08-15T02:00:57.025Z,5,GR86-025-47,0.2,0.116,-0.075,99.98,5.0,,0.0,0.0,
2025-08-15T02:00:57.068Z,5,GR86-025-47,0.1,0.105,-0.081,99.99,5.0,,0.0,0.0,
2025-08-15T02:00:57.111Z,5,GR86-025-47,0.8,0.12,-0.075,100.01,5.0,,0.0,0.0,
2025-08-15T02:00:57.154Z,5,GR86-025-47,2.1,0.127,-0.041,100.02,5.0,6554.0,0.0,0.0,
2025-08-15T02:00:57.197Z,5,GR86-025-47,2.0,0.125,-0.022,100.0,5.0,,0.0,0.0,192.52
2025-08-15T02:00:57.240Z,5,GR86-025-47,1.7000000000000002,0.13,-0.017,100.0,5.0,,0.0,0.0,
2025-08-15T02:00:57.283Z,5,GR86-025-47,1.7000000000000002,0.114,0.019,99.99,5.0,,0.0,0.0,
2025-08-15T02:00:57.326Z,5,GR86-025-47,1.7000000000000002,0.11,0.05,100.0,5.0,,0.0,0.0,
2025-08-15T02:00:57.369Z,5,GR86-025-47,1.7000000000000002,0.112,0.071,100.0,5.0,6565.0,0.0,0.0,
2025-08-15T02:00:57.412Z,5,GR86-025-47,1.5,0.127,0.078,100.01,5.0,,0.0,0.0,193.26
2025-08-15T02:00:57.455Z,5,GR86-025-47,1.2000000000000002,0.128,0.062,100.01,5.0,,0.0,0.0,
2025-08-15T02:00:57.498Z,5,GR86-025-47,1.1,0.123,0.055,100.0,5.0,,0.0,0.0,
2025-08-15T02:00:57.541Z,5,GR86-025-47,1.0,0.12,0.043,100.01,5.0,,0.0,0.0,
2025-08-15T02:00:57.584Z,5,GR86-025-47,2.1,0.12,0.016,100.01,5.0,6589.0,0.0,0.0,
2025-08-15T02:00:57.627Z,5,GR86-025-47,3.4000000000000004,0.112,0.042,100.0,5.0,,0.0,0.0,194.03
2025-08-15T02:00:57.670Z,5,GR86-025-47,3.6,0.12,0.047,99.99,5.0,,0.0,0.0,
2025-08-15T02:00:57.713Z,5,GR86-025-47,3.0,0.118,0.05,100.0,5.0,,0.0,0.0,
2025-08-15T02:00:57.756Z,5,GR86-025-47,2.6,0.117,0.039,100.0,5.0,,0.0,0.0,
2025-08-15T02:00:57.799Z,5,GR86-025-47,2.6,0.124,0.028,100.0,5.0,6623.0,0.0,0.0,
2025-08-15T02:00:57.844Z,5,GR86-025-47,3.7,0.117,0.07,100.01,5.0,,0.0,0.0,194.88
2025-08-15T02:00:57.887Z,5,GR86-025-47,3.9,0.112,0.094,100.0,5.0,,0.0,0.0,
2025-08-15T02:00:57.930Z,5,GR86-025-47,3.4000000000000004,0.108,0.103,100.01,5.0,,0.0,0.0,
2025-08-15T02:00:57.974Z,5,GR86-025-47,2.9000000000000004,0.117,0.075,100.0,5.0,,0.0,0.0,
2025-08-15T02:00:58.017Z,5,GR86-025-47,2.5,0.113,0.062,99.99,5.0,6662.0,0.0,0.0,
2025-08-15T02:00:58.060Z,5,GR86-025-47,2.4000000000000004,0.113,0.067,99.99,5.0,,0.0,0.0,195.76
2025-08-15T02:00:58.103Z,5,GR86-025-47,2.3000000000000003,0.12,0.042,100.02,5.0,,0.0,0.0,
2025-08-15T02:00:58.146Z,5,GR86-025-47,2.5,0.116,0.06,100.01,5.0,,0.0,0.0,
2025-08-15T02:00:58.189Z,5,GR86-025-47,2.5,0.097,0.069,100.0,5.0,,0.0,0.0,
2025-08-15T02:00:58.232Z,5,GR86-025-47,2.5,0.118,0.038,100.01,5.0,6687.0,0.0,0.0,
2025-08-15T02:00:58.275Z,5,GR86-025-47,2.6,0.117,0.029,100.01,5.0,,0.0,0.0,197.45
2025-08-15T02:00:58.318Z,5,GR86-025-47,2.7,0.109,0.027,100.0,5.0,,0.0,0.0,
2025-08-15T02:00:58.360Z,5,GR86-025-47,2.9000000000000004,0.108,0.051,100.01,5.0,,0.0,0.0,
2025-08-15T02:00:58.404Z,5,GR86-025-47,3.0,0.001,0.071,99.99,5.0,,0.0,0.0,
2025-08-15T02:00:58.447Z,5,GR86-025-47,3.1,-0.126,0.05,99.99,5.0,6704.0,0.0,0.0,
2025-08-15T02:00:58.490Z,5,GR86-025-47,3.1,-0.28,0.049,100.0,5.0,,0.0,0.0,198.27
2025-08-15T02:00:58.533Z,5,GR86-025-47,3.1,-0.299,0.016,100.0,5.0,,0.0,0.0,
2025-08-15T02:00:58.576Z,5,GR86-025-47,3.1,-0.089,-0.048,100.0,5.0,,0.0,0.0,
2025-08-15T02:00:58.619Z,5,GR86-025-47,3.1,0.034,-0.056,100.0,5.0,,0.0,0.0,
2025-08-15T02:00:58.664Z,5,GR86-025-47,3.8,0.071,-0.054,100.0,5.0,6752.0,0.0,0.0,
2025-08-15T02:00:58.707Z,5,GR86-025-47,4.800000000000001,0.107,-0.043,100.0,5.0,,0.0,0.0,198.92
2025-08-15T02:00:58.750Z,5,GR86-025-47,5.300000000000001,0.11,-0.02,100.0,5.0,,0.0,0.0,
2025-08-15T02:00:58.793Z,5,GR86-025-47,5.300000000000001,0.108,0.015,100.01,5.0,,0.0,0.0,
2025-08-15T02:00:58.836Z,5,GR86-025-47,4.800000000000001,0.119,0.066,100.0,5.0,,0.0,0.0,
2025-08-15T02:00:58.879Z,5,GR86-025-47,4.3,0.121,0.101,100.0,5.0,6724.0,0.0,0.0,
2025-08-15T02:00:58.922Z,5,GR86-025-47,3.7,0.109,0.146,100.0,5.0,,0.0,0.0,198.48
2025-08-15T02:00:58.965Z,5,GR86-025-47,3.5,0.107,0.136,99.99,5.0,,0.0,0.0,
2025-08-15T02:00:59.008Z,5,GR86-025-47,3.4000000000000004,0.122,0.121,99.99,5.0,,0.0,0.0,
2025-08-15T02:00:59.052Z,5,GR86-025-47,3.2,0.132,0.113,100.0,5.0,,0.0,0.0,
2025-08-15T02:00:59.095Z,5,GR86-025-47,3.0,0.116,0.088,99.99,5.0,6755.0,0.0,0.0,
2025-08-15T02:00:59.138Z,5,GR86-025-47,2.8000000000000003,0.126,0.071,99.99,5.0,,0.0,0.0,198.6
2025-08-15T02:00:59.182Z,5,GR86-025-47,2.6,0.118,0.02,100.02,5.0,,0.0,0.0,
2025-08-15T02:00:59.225Z,5,GR86-025-47,2.6,0.11,0.024,100.01,5.0,,0.0,0.0,
2025-08-15T02:00:59.268Z,5,GR86-025-47,2.6,0.13,0.026,100.0,5.0,,0.0,0.0,
2025-08-15T02:00:59.311Z,5,GR86-025-47,2.9000000000000004,0.114,0.037,100.0,5.0,6768.0,0.0,0.0,
2025-08-15T02:00:59.354Z,5,GR86-025-47,2.9000000000000004,0.122,0.059,100.0,5.0,,0.0,0.0,199.36
2025-08-15T02:00:59.397Z,5,GR86-025-47,2.8000000000000003,0.111,0.074,100.0,5.0,,0.0,0.0,
2025-08-15T02:00:59.440Z,5,GR86-025-47,2.6,0.097,0.074,100.0,5.0,,0.0,0.0,
2025-08-15T02:00:59.483Z,5,GR86-025-47,2.2,0.119,0.057,100.01,5.0,,0.0,0.0,
2025-08-15T02:00:59.527Z,5,GR86-025-47,2.1,0.108,0.037,100.0,5.0,6801.0,0.0,0.0,
2025-08-15T02:00:59.570Z,5,GR86-025-47,1.9,0.097,0.039,100.0,5.0,,0.0,0.0,200.19
2025-08-15T02:00:59.613Z,5,GR86-025-47,1.8,0.08,0.031,100.0,5.0,,0.0,0.0,
2025-08-15T02:00:59.656Z,5,GR86-025-47,1.7000000000000002,0.105,0.042,100.0,5.0,,0.0,0.0,
2025-08-15T02:00:59.700Z,5,GR86-025-47,1.9,0.08,0.016,100.01,5.0,,0.0,0.0,
2025-08-15T02:00:59.743Z,5,GR86-025-47,2.2,0.092,0.006,100.02,5.0,6838.0,0.0,0.0,
2025-08-15T02:00:59.787Z,5,GR86-025-47,2.1,0.095,0.042,100.0,5.0,,0.0,0.0,201.07
2025-08-15T02:00:59.830Z,5,GR86-025-47,1.9,0.083,0.049,100.0,5.0,,0.0,0.0,
2025-08-15T02:00:59.873Z,5,GR86-025-47,1.7000000000000002,0.104,0.022,100.0,5.0,,0.0,0.0,
2025-08-15T02:00:59.916Z,5,GR86-025-47,2.8000000000000003,0.092,0.021,99.99,5.0,,0.0,0.0,
2025-08-15T02:00:59.959Z,5,GR86-025-47,5.5,0.125,0.032,100.0,5.0,6865.0,0.0,0.0,
2025-08-15T02:01:00.002Z,5,GR86-025-47,7.9,0.081,0.095,100.0,5.0,,0.0,0.0,201.91
2025-08-15T02:01:00.045Z,5,GR86-025-47,7.6,0.101,0.119,100.01,5.0,,0.0,0.0,
2025-08-15T02:01:00.088Z,5,GR86-025-47,6.6000000000000005,0.106,0.146,100.01,5.0,,0.0,0.0,
2025-08-15T02:01:00.131Z,5,GR86-025-47,5.5,0.108,0.16,100.01,5.0,,0.0,0.0,
2025-08-15T02:01:00.174Z,5,GR86-025-47,4.7,0.112,0.179,100.0,5.0,6892.0,0.0,0.0,
2025-08-15T02:01:00.217Z,5,GR86-025-47,4.6000000000000005,0.1,0.165,100.0,5.0,,0.0,0.0,202.75
2025-08-15T02:01:00.260Z,5,GR86-025-47,5.0,0.1,0.166,100.01,5.0,,0.0,0.0,
2025-08-15T02:01:00.303Z,5,GR86-025-47,4.800000000000001,0.113,0.142,100.01,5.0,,0.0,0.0,
2025-08-15T02:01:00.347Z,5,GR86-025-47,4.3,0.115,0.112,100.01,5.0,,0.0,0.0,
2025-08-15T02:01:00.390Z,5,GR86-025-47,3.3000000000000003,0.071,0.084,100.0,5.0,6919.0,0.0,0.0,
2025-08-15T02:01:00.433Z,5,GR86-025-47,3.2,0.063,0.063,99.99,5.0,,0.0,0.0,203.51
2025-08-15T02:01:00.476Z,5,GR86-025-47,3.0,0.056,0.051,100.01,5.0,,0.0,0.0,
2025-08-15T02:01:00.519Z,5,GR86-025-47,2.8000000000000003,0.076,0.043,100.0,5.0,,0.0,0.0,
2025-08-15T02:01:00.563Z,5,GR86-025-47,2.6,0.065,0.003,100.0,5.0,,0.0,0.0,
2025-08-15T02:01:00.607Z,5,GR86-025-47,2.5,0.049,-0.015,99.99,5.0,6944.0,0.0,0.0,
2025-08-15T02:01:00.650Z,5,GR86-025-47,2.5,0.041,-0.029,100.01,5.0,,0.0,0.0,204.32
2025-08-15T02:01:00.694Z,5,GR86-025-47,2.8000000000000003,0.082,-0.032,100.01,5.0,,0.0,0.0,
2025-08-15T02:01:00.737Z,5,GR86-025-47,2.9000000000000004,0.079,-0.008,100.0,5.0,,0.0,0.0,
2025-08-15T02:01:00.780Z,5,GR86-025-47,2.7,0.093,-0.021,99.99,5.0,,0.0,0.0,
2025-08-15T02:01:00.824Z,5,GR86-025-47,2.2,0.063,-0.003,100.0,5.0,6963.0,0.0,0.0,
2025-08-15T02:01:00.867Z,5,GR86-025-47,1.3,0.078,-0.01,100.01,5.0,,0.0,0.0,205.6
2025-08-15T02:01:00.910Z,5,GR86-025-47,0.5,0.079,-0.035,100.0,5.0,,0.0,0.0,
2025-08-15T02:01:00.953Z,5,GR86-025-47,0.3,0.08,-0.042,100.0,5.0,,0.0,0.0,
2025-08-15T02:01:00.996Z,5,GR86-025-47,0.2,0.071,-0.073,100.01,5.0,,0.0,0.0,
2025-08-15T02:01:01.039Z,5,GR86-025-47,0.3,0.055,-0.099,100.0,5.0,6978.0,0.0,0.0,
2025-08-15T02:01:01.082Z,5,GR86-025-47,0.6000000000000001,0.072,-0.103,99.99,5.0,,0.0,0.0,206.21
2025-08-15T02:01:01.126Z,5,GR86-025-47,0.6000000000000001,0.061,-0.09,100.0,5.0,,0.0,0.0,
2025-08-15T02:01:01.169Z,5,GR86-025-47,0.4,0.06,-0.096,100.01,5.0,,0.0,0.0,
2025-08-15T02:01:01.212Z,5,GR86-025-47,0.4,0.048,-0.096,99.99,5.0,,0.0,0.0,
2025-08-15T02:01:01.299Z,5,GR86-025-47,0.7000000000000001,0.08,-0.064,100.0,5.0,6989.0,0.0,0.0,206.7
2025-08-15T02:01:01.342Z,5,GR86-025-47,0.7000000000000001,0.049,-0.015,99.99,5.0,,0.0,0.0,
2025-08-15T02:01:01.385Z,5,GR86-025-47,0.9,0.068,-0.008,100.01,5.0,,0.0,0.0,
2025-08-15T02:01:01.428Z,5,GR86-025-47,1.3,0.063,-0.02,100.01,5.0,,0.0,0.0,
2025-08-15T02:01:01.472Z,5,GR86-025-47,1.5,0.093,-0.016,99.98,5.0,7030.0,0.0,0.0,
2025-08-15T02:01:01.515Z,5,GR86-025-47,1.3,0.067,-0.003,100.01,5.0,,0.0,0.0,207.17
2025-08-15T02:01:01.558Z,5,GR86-025-47,1.0,0.064,-0.024,100.0,5.0,,0.0,0.0,
2025-08-15T02:01:01.601Z,5,GR86-025-47,0.8,0.053,-0.008,100.01,5.0,,0.0,0.0,
2025-08-15T02:01:01.644Z,5,GR86-025-47,1.1,0.088,-0.007,100.0,5.0,,0.0,0.0,
2025-08-15T02:01:01.687Z,5,GR86-025-47,3.0,0.041,0.004,99.99,5.0,7058.0,0.0,0.0,
2025-08-15T02:01:01.730Z,5,GR86-025-47,4.3,0.077,0.034,100.0,5.0,,0.0,0.0,207.62
2025-08-15T02:01:01.773Z,5,GR86-025-47,3.9,0.032,-0.006,99.99,5.0,,0.0,0.0,
2025-08-15T02:01:01.816Z,5,GR86-025-47,3.2,0.064,0.029,100.01,5.0,,0.0,0.0,
2025-08-15T02:01:01.860Z,5,GR86-025-47,1.2000000000000002,0.071,0.028,100.01,5.0,,0.0,0.0,
2025-08-15T02:01:01.903Z,5,GR86-025-47,-1.0,0.034,-0.012,100.0,5.0,7063.0,0.0,0.0,
2025-08-15T02:01:01.946Z,5,GR86-025-47,-1.6,-0.202,-0.007,100.01,6.0,,0.0,0.0,208.03
2025-08-15T02:01:01.989Z,5,GR86-025-47,-1.9,0.152,-0.043,99.99,6.0,,0.0,0.0,
2025-08-15T02:01:02.032Z,5,GR86-025-47,-1.9,0.225,-0.18,100.01,6.0,,0.0,0.0,
2025-08-15T02:01:02.075Z,5,GR86-025-47,-2.0,-0.073,-0.168,100.02,6.0,,0.0,0.0,
2025-08-15T02:01:02.118Z,5,GR86-025-47,-1.8,-0.021,-0.178,100.01,6.0,7089.0,0.0,0.0,
2025-08-15T02:01:02.164Z,5,GR86-025-47,-0.3,0.119,-0.243,99.99,6.0,,0.0,0.0,208.56
2025-08-15T02:01:02.207Z,5,GR86-025-47,-0.3,0.033,-0.175,100.0,6.0,,0.0,0.0,
2025-08-15T02:01:02.250Z,5,GR86-025-47,-0.6000000000000001,-0.01,-0.22,99.98,6.0,,0.0,0.0,
2025-08-15T02:01:02.293Z,5,GR86-025-47,-0.6000000000000001,0.074,-0.18,100.01,6.0,,0.0,0.0,
2025-08-15T02:01:02.336Z,5,GR86-025-47,-0.7000000000000001,0.059,-0.13,100.0,6.0,6258.0,0.0,0.0,
2025-08-15T02:01:02.379Z,5,GR86-025-47,-0.8,0.05,-0.147,100.01,6.0,,0.0,0.0,208.77
2025-08-15T02:01:02.422Z,5,GR86-025-47,-0.2,0.056,-0.132,100.0,6.0,,0.0,0.0,
2025-08-15T02:01:02.466Z,5,GR86-025-47,2.3000000000000003,0.059,-0.115,100.0,6.0,,0.0,0.0,
2025-08-15T02:01:02.509Z,5,GR86-025-47,4.7,0.064,-0.092,99.99,6.0,,0.0,0.0,
2025-08-15T02:01:02.552Z,5,GR86-025-47,6.300000000000001,0.09,-0.074,100.01,6.0,6424.0,0.0,0.0,
2025-08-15T02:01:02.595Z,5,GR86-025-47,6.4,0.084,0.019,99.98,6.0,,0.0,0.0,209.22
2025-08-15T02:01:02.639Z,5,GR86-025-47,6.1000000000000005,0.061,0.062,100.02,6.0,,0.0,0.0,
2025-08-15T02:01:02.682Z,5,GR86-025-47,7.2,0.08,0.163,100.01,6.0,,0.0,0.0,
2025-08-15T02:01:02.725Z,5,GR86-025-47,9.8,0.106,0.202,99.99,6.0,,0.0,0.0,
2025-08-15T02:01:02.768Z,5,GR86-025-47,12.2,0.081,0.263,100.01,6.0,6425.0,0.0,0.0,
2025-08-15T02:01:02.811Z,5,GR86-025-47,12.5,0.085,0.358,100.01,6.0,,0.0,0.0,209.54
2025-08-15T02:01:02.854Z,5,GR86-025-47,10.5,0.087,0.413,100.0,6.0,,0.0,0.0,
2025-08-15T02:01:02.897Z,5,GR86-025-47,5.2,0.095,0.395,100.0,6.0,,0.0,0.0,
2025-08-15T02:01:02.940Z,5,GR86-025-47,1.5,0.108,0.333,99.99,6.0,,0.0,0.0,
2025-08-15T02:01:02.983Z,5,GR86-025-47,0.8,0.093,0.289,99.99,6.0,6425.0,0.0,0.0,
2025-08-15T02:01:03.027Z,5,GR86-025-47,1.2000000000000002,0.105,0.214,99.99,6.0,,0.0,0.0,210.12
2025-08-15T02:01:03.070Z,5,GR86-025-47,1.7000000000000002,0.115,0.143,100.0,6.0,,0.0,0.0,
2025-08-15T02:01:03.113Z,5,GR86-025-47,1.7000000000000002,0.085,0.072,100.0,6.0,,0.0,0.0,
2025-08-15T02:01:03.156Z,5,GR86-025-47,1.6,0.07,-0.007,100.01,6.0,,0.0,0.0,
2025-08-15T02:01:03.199Z,5,GR86-025-47,1.5,0.075,-0.036,99.87,6.0,6458.0,0.0,0.0,
2025-08-15T02:01:03.244Z,5,GR86-025-47,2.4000000000000004,0.066,-0.062,22.12,6.0,,15.9,16.115000000000002,210.65
2025-08-15T02:01:03.287Z,5,GR86-025-47,5.300000000000001,-0.065,-0.031,3.25,6.0,,27.65,27.56,
2025-08-15T02:01:03.330Z,5,GR86-025-47,7.800000000000001,-0.338,0.04,3.22,6.0,,37.265,36.9,
2025-08-15T02:01:03.374Z,5,GR86-025-47,8.700000000000001,-0.6990000000000001,0.147,3.71,6.0,,42.805,42.455,
2025-08-15T02:01:03.417Z,5,GR86-025-47,8.4,-0.776,0.182,3.78,6.0,6469.0,43.08,43.46,
2025-08-15T02:01:03.460Z,5,GR86-025-47,6.7,-0.8,0.151,3.62,6.0,,41.05,42.21,211.32
2025-08-15T02:01:03.503Z,5,GR86-025-47,-1.0,-0.76,0.154,3.12,6.0,,39.4,40.865,
2025-08-15T02:01:03.546Z,5,GR86-025-47,-2.6,-0.753,0.081,2.93,6.0,,37.525,39.22,
2025-08-15T02:01:03.589Z,5,GR86-025-47,-2.5,-0.716,0.064,2.77,6.0,,33.19,35.02,
2025-08-15T02:01:03.633Z,5,GR86-025-47,2.2,-0.629,0.039,2.65,6.0,6491.0,28.69,30.365,
2025-08-15T02:01:03.676Z,5,GR86-025-47,7.1000000000000005,-0.5740000000000001,0.033,2.59,6.0,,22.875,24.555,209.34
2025-08-15T02:01:03.720Z,5,GR86-025-47,10.4,-0.503,0.057,2.5500000000000003,6.0,,17.96,19.365,
2025-08-15T02:01:03.763Z,5,GR86-025-47,11.4,-0.399,0.114,2.5500000000000003,6.0,,13.855,14.91,
2025-08-15T02:01:03.807Z,5,GR86-025-47,10.7,-0.376,0.121,2.52,6.0,,13.275,13.915,
2025-08-15T02:01:03.850Z,5,GR86-025-47,8.8,-0.371,0.143,2.52,6.0,6242.0,14.91,15.305,
2025-08-15T02:01:03.893Z,5,GR86-025-47,2.6,-0.417,0.128,2.5,6.0,,21.18,21.595,203.79
2025-08-15T02:01:03.936Z,5,GR86-025-47,-3.1,-0.542,0.118,2.5,6.0,,29.71,29.805,
2025-08-15T02:01:03.979Z,5,GR86-025-47,-6.6000000000000005,-0.6880000000000001,0.079,2.5,6.0,,34.305,34.625,
2025-08-15T02:01:04.022Z,5,GR86-025-47,-7.1000000000000005,-0.655,0.006,22.14,6.0,,29.835,31.055,
2025-08-15T02:01:04.065Z,5,GR86-025-47,-6.7,-0.556,-0.033,66.54,6.0,6054.0,23.025,24.2,
2025-08-15T02:01:04.108Z,5,GR86-025-47,-3.3000000000000003,-0.499,-0.084,93.6,6.0,,20.875,21.715,200.92
2025-08-15T02:01:04.151Z,5,GR86-025-47,1.3,-0.481,-0.134,44.68,5.0,,23.56,24.11,
2025-08-15T02:01:04.194Z,5,GR86-025-47,6.5,-0.557,-0.206,33.6,5.0,,30.245,30.4,
2025-08-15T02:01:04.237Z,5,GR86-025-47,10.6,-0.8240000000000001,-0.107,32.1,5.0,,37.325,37.45,
2025-08-15T02:01:04.280Z,5,GR86-025-47,12.1,-0.778,-0.055,23.63,5.0,5856.0,44.65,44.62,
2025-08-15T02:01:04.323Z,5,GR86-025-47,11.4,-0.468,-0.067,4.41,5.0,,49.49,49.64,197.35
2025-08-15T02:01:04.367Z,5,GR86-025-47,8.8,-0.763,0.062,4.32,5.0,,49.105,49.765,
2025-08-15T02:01:04.410Z,5,GR86-025-47,2.0,-0.884,0.065,4.17,5.0,,46.925,48.235,
2025-08-15T02:01:04.453Z,5,GR86-025-47,-6.0,-0.936,0.015,3.83,5.0,,46.345,47.81,
2025-08-15T02:01:04.496Z,5,GR86-025-47,-13.2,-0.876,-0.009,3.44,5.0,6549.0,47.46,48.83,
2025-08-15T02:01:04.539Z,5,GR86-025-47,-17.3,-0.867,-0.113,3.0700000000000003,5.0,,50.465,51.0,192.89
2025-08-15T02:01:04.582Z,5,GR86-025-47,-17.0,-1.003,-0.258,33.62,5.0,,60.98,60.735,
2025-08-15T02:01:04.625Z,5,GR86-025-47,-5.2,-1.103,-0.288,46.7,4.0,,65.42,65.235,
2025-08-15T02:01:04.669Z,5,GR86-025-47,10.2,-1.173,-0.263,33.36,4.0,,67.94,69.19,
2025-08-15T02:01:04.712Z,5,GR86-025-47,23.4,-1.047,-0.128,32.62,4.0,6073.0,72.395,74.53,
2025-08-15T02:01:04.755Z,5,GR86-025-47,27.8,-1.113,-0.191,24.26,4.0,,78.635,79.275,187.34
2025-08-15T02:01:04.798Z,5,GR86-025-47,26.9,-1.027,-0.243,4.61,4.0,,83.67,83.305,
2025-08-15T02:01:04.841Z,5,GR86-025-47,21.9,-1.105,-0.156,4.17,4.0,,89.395,89.715,
2025-08-15T02:01:04.884Z,5,GR86-025-47,16.5,-0.913,-0.338,3.94,4.0,,94.645,94.93,
2025-08-15T02:01:04.927Z,5,GR86-025-47,16.0,-1.159,-0.288,3.76,4.0,5974.0,97.88,98.84,
2025-08-15T02:01:04.970Z,5,GR86-025-47,14.6,-1.178,-0.221,3.44,4.0,,99.345,102.105,180.52
2025-08-15T02:01:05.013Z,5,GR86-025-47,8.4,-1.137,-0.163,3.16,4.0,,93.3,93.5,
2025-08-15T02:01:05.057Z,5,GR86-025-47,-0.7000000000000001,-1.364,-0.136,2.9,4.0,,90.86,91.56,
2025-08-15T02:01:05.100Z,5,GR86-025-47,-11.4,-1.225,-0.065,2.75,4.0,,90.52,92.78,
2025-08-15T02:01:05.144Z,5,GR86-025-47,-22.1,-1.175,-0.307,8.33,4.0,6689.0,83.52,84.145,
2025-08-15T02:01:05.187Z,5,GR86-025-47,-22.6,-1.156,-0.309,50.91,4.0,,78.545,80.83,172.18
2025-08-15T02:01:05.230Z,5,GR86-025-47,-16.400000000000002,-1.179,-0.321,90.25,3.0,,77.11,79.72,
2025-08-15T02:01:05.273Z,5,GR86-025-47,-2.1,-1.153,-0.312,39.34,3.0,,75.55,77.11,
2025-08-15T02:01:05.316Z,5,GR86-025-47,11.7,-1.272,-0.162,32.18,3.0,,73.14,75.28,
2025-08-15T02:01:05.359Z,5,GR86-025-47,20.200000000000003,-1.249,-0.132,30.43,3.0,6092.0,67.97,69.875,
2025-08-15T02:01:05.402Z,5,GR86-025-47,23.1,-0.882,-0.349,4.47,3.0,,52.465,53.485,164.4
2025-08-15T02:01:05.445Z,5,GR86-025-47,21.700000000000003,-0.8240000000000001,-0.224,3.41,3.0,,50.345,52.02,
2025-08-15T02:01:05.488Z,5,GR86-025-47,10.8,-0.939,-0.333,3.38,3.0,,50.905,52.22,
2025-08-15T02:01:05.531Z,5,GR86-025-47,1.2000000000000002,-0.846,-0.5760000000000001,3.31,3.0,,51.655,52.71,
2025-08-15T02:01:05.574Z,5,GR86-025-47,-1.5,-0.91,-0.507,3.35,3.0,5752.0,52.08,53.685,
2025-08-15T02:01:05.617Z,5,GR86-025-47,-1.4,-0.93,-0.519,3.28,3.0,,51.565,53.305,156.66
2025-08-15T02:01:05.660Z,5,GR86-025-47,3.2,-0.99,-0.522,3.35,3.0,,48.895,49.795,
2025-08-15T02:01:05.703Z,5,GR86-025-47,-2.1,-1.101,-0.298,3.6,3.0,,45.185,46.145,
2025-08-15T02:01:05.747Z,5,GR86-025-47,-20.4,-0.938,-0.364,3.45,3.0,,43.46,44.435,
2025-08-15T02:01:05.790Z,5,GR86-025-47,-37.9,-0.86,-0.5710000000000001,3.28,3.0,6870.0,43.52,44.65,
2025-08-15T02:01:05.833Z,5,GR86-025-47,-47.900000000000006,-0.8240000000000001,-0.671,3.0700000000000003,3.0,,44.405,45.335,150.84
2025-08-15T02:01:05.876Z,5,GR86-025-47,-48.400000000000006,-0.839,-0.62,2.91,3.0,,46.025,46.925,
2025-08-15T02:01:05.919Z,5,GR86-025-47,-38.6,-0.885,-0.769,31.04,3.0,,49.275,50.68,
2025-08-15T02:01:05.963Z,5,GR86-025-47,-16.0,-0.833,-0.737,34.160000000000004,2.0,,45.625,46.24,
2025-08-15T02:01:06.007Z,5,GR86-025-47,-7.2,-1.098,-0.524,33.82,2.0,6245.0,40.715,42.085,
2025-08-15T02:01:06.094Z,5,GR86-025-47,-6.6000000000000005,-0.788,-0.855,24.78,2.0,,37.145,37.89,144.89
2025-08-15T02:01:06.137Z,5,GR86-025-47,-11.1,-0.865,-0.858,24.86,2.0,,30.015,30.995,
2025-08-15T02:01:06.180Z,5,GR86-025-47,-14.0,-0.526,-0.858,23.34,2.0,,24.92,25.99,
2025-08-15T02:01:06.224Z,5,GR86-025-47,-14.5,-0.38,-1.117,20.22,2.0,6148.0,17.93,18.86,
2025-08-15T02:01:06.267Z,5,GR86-025-47,-14.6,-0.294,-1.11,20.73,2.0,,9.63,10.47,133.56
2025-08-15T02:01:06.310Z,5,GR86-025-47,-19.5,-0.232,-1.16,20.86,2.0,,2.135,2.76,
2025-08-15T02:01:06.353Z,5,GR86-025-47,-24.6,-0.088,-1.261,20.65,2.0,,0.0,0.0,
2025-08-15T02:01:06.396Z,5,GR86-025-47,-24.3,-0.049,-1.165,20.82,2.0,,0.0,0.0,
2025-08-15T02:01:06.439Z,5,GR86-025-47,-23.9,-0.08,-1.211,20.44,2.0,6481.0,0.0,0.0,
2025-08-15T02:01:06.483Z,5,GR86-025-47,-38.5,-0.061,-1.193,17.85,2.0,,0.0,0.0,128.71
2025-08-15T02:01:06.527Z,5,GR86-025-47,-53.0,-0.078,-1.232,11.13,2.0,,0.0,0.0,
2025-08-15T02:01:06.570Z,5,GR86-025-47,-66.0,-0.07,-1.221,7.25,2.0,,0.0,0.0,
2025-08-15T02:01:06.613Z,5,GR86-025-47,-74.8,-0.137,-1.215,7.25,2.0,,0.0,0.0,
2025-08-15T02:01:06.656Z,5,GR86-025-47,-79.2,-0.149,-1.243,9.26,2.0,7228.0,0.0,0.0,
2025-08-15T02:01:06.700Z,5,GR86-025-47,-81.5,-0.153,-1.184,16.12,2.0,,0.0,0.0,127.12
2025-08-15T02:01:06.744Z,5,GR86-025-47,-83.0,-0.186,-1.24,23.56,2.0,,0.0,0.0,
2025-08-15T02:01:06.787Z,5,GR86-025-47,-84.5,-0.321,-1.23,26.68,2.0,,0.0,0.0,
2025-08-15T02:01:06.830Z,5,GR86-025-47,-85.5,-0.277,-1.255,27.07,2.0,,0.0,0.0,
2025-08-15T02:01:06.873Z,5,GR86-025-47,-85.9,-0.159,-1.238,26.36,2.0,7041.0,0.0,0.0,
2025-08-15T02:01:06.916Z,5,GR86-025-47,-85.80000000000001,-0.175,-1.281,28.87,2.0,,0.0,0.0,125.13
2025-08-15T02:01:06.959Z,5,GR86-025-47,-81.80000000000001,-0.075,-1.248,31.76,2.0,,0.0,0.0,
2025-08-15T02:01:07.002Z,5,GR86-025-47,-62.2,-0.023,-1.279,32.480000000000004,2.0,,0.0,0.0,
2025-08-15T02:01:07.046Z,5,GR86-025-47,-48.2,0.032,-1.266,33.160000000000004,2.0,,0.0,0.0,
2025-08-15T02:01:07.089Z,5,GR86-025-47,-35.300000000000004,0.06,-1.249,37.21,2.0,7062.0,0.0,0.0,
2025-08-15T02:01:07.133Z,5,GR86-025-47,-23.9,0.055,-1.262,65.01,2.0,,0.0,0.0,123.68
2025-08-15T02:01:07.176Z,5,GR86-025-47,-19.200000000000003,0.062,-1.264,98.99,2.0,,0.0,0.0,
2025-08-15T02:01:07.219Z,5,GR86-025-47,-21.0,0.127,-1.227,100.04,2.0,,0.0,0.0,
2025-08-15T02:01:07.264Z,5,GR86-025-47,-40.7,0.118,-1.309,100.07,2.0,,0.0,0.0,
2025-08-15T02:01:07.307Z,5,GR86-025-47,-49.0,0.083,-1.181,100.05,2.0,7226.0,0.0,0.0,
2025-08-15T02:01:07.350Z,5,GR86-025-47,-48.8,0.014,-1.383,100.06,2.0,,0.0,0.0,123.64
2025-08-15T02:01:07.393Z,5,GR86-025-47,-34.800000000000004,0.089,-1.116,100.07,2.0,,0.0,0.0,
2025-08-15T02:01:07.436Z,5,GR86-025-47,-10.1,0.075,-1.332,100.05,2.0,,0.0,0.0,
2025-08-15T02:01:07.479Z,5,GR86-025-47,22.6,0.107,-1.215,100.05,2.0,,0.0,0.0,
2025-08-15T02:01:07.522Z,5,GR86-025-47,61.2,0.144,-1.004,100.07,2.0,7296.0,0.0,0.0,
2025-08-15T02:01:07.566Z,5,GR86-025-47,52.0,0.179,-0.78,100.07,2.0,,0.0,0.0,124.14
2025-08-15T02:01:07.609Z,5,GR86-025-47,17.400000000000002,0.185,-0.877,100.03,2.0,,0.0,0.0,
2025-08-15T02:01:07.652Z,5,GR86-025-47,-15.1,0.218,-1.119,100.07,2.0,,0.0,0.0,
2025-08-15T02:01:07.695Z,5,GR86-025-47,-44.900000000000006,0.195,-1.175,100.07,2.0,,0.0,0.0,
2025-08-15T02:01:07.739Z,5,GR86-025-47,-67.4,0.165,-1.178,100.05,2.0,7299.0,0.0,0.0,
2025-08-15T02:01:07.782Z,5,GR86-025-47,-81.5,0.129,-1.086,100.08,2.0,,0.0,0.0,123.94
2025-08-15T02:01:07.825Z,5,GR86-025-47,-82.30000000000001,0.118,-1.087,100.06,2.0,,0.0,0.0,
2025-08-15T02:01:07.868Z,5,GR86-025-47,-82.10000000000001,0.182,-1.099,100.03,2.0,,0.0,0.0,
2025-08-15T02:01:07.912Z,5,GR86-025-47,-81.9,0.157,-1.05,100.06,2.0,,0.0,0.0,
2025-08-15T02:01:07.955Z,5,GR86-025-47,-75.0,0.124,-1.039,100.07,2.0,7282.0,0.0,0.0,
2025-08-15T02:01:07.999Z,5,GR86-025-47,-61.900000000000006,0.118,-1.108,100.05,2.0,,0.0,0.0,123.8
2025-08-15T02:01:08.044Z,5,GR86-025-47,-41.1,0.101,-1.145,100.06,2.0,,0.0,0.0,
2025-08-15T02:01:08.087Z,5,GR86-025-47,-36.6,0.069,-1.073,100.06,2.0,,0.0,0.0,
2025-08-15T02:01:08.130Z,5,GR86-025-47,-37.5,0.026,-1.137,100.05,2.0,,0.0,0.0,
2025-08-15T02:01:08.174Z,5,GR86-025-47,-40.1,-0.038,-1.214,100.06,3.0,7280.0,0.0,0.0,
2025-08-15T02:01:08.217Z,5,GR86-025-47,-38.8,-0.089,-1.176,100.05,3.0,,0.0,0.0,124.24
2025-08-15T02:01:08.260Z,5,GR86-025-47,-23.9,0.435,-1.094,100.05,3.0,,0.0,0.0,
2025-08-15T02:01:08.303Z,5,GR86-025-47,-13.7,0.122,-1.149,100.07,3.0,,0.0,0.0,
2025-08-15T02:01:08.346Z,5,GR86-025-47,-13.7,0.32,-1.128,100.07,3.0,,0.0,0.0,
2025-08-15T02:01:08.389Z,5,GR86-025-47,-14.0,0.333,-1.086,100.04,3.0,7272.0,0.0,0.0,
2025-08-15T02:01:08.432Z,5,GR86-025-47,-14.1,0.2,-1.199,100.04,3.0,,0.0,0.0,125.96
2025-08-15T02:01:08.475Z,5,GR86-025-47,-14.0,0.138,-1.056,100.05,3.0,,0.0,0.0,
2025-08-15T02:01:08.518Z,5,GR86-025-47,-14.0,0.157,-1.111,100.04,3.0,,0.0,0.0,
2025-08-15T02:01:08.561Z,5,GR86-025-47,-14.3,0.186,-1.166,100.03,3.0,,0.0,0.0,
2025-08-15T02:01:08.647Z,5,GR86-025-47,-34.4,0.207,-1.151,100.03,3.0,6437.0,0.0,0.0,127.62
2025-08-15T02:01:08.691Z,5,GR86-025-47,-47.2,0.153,-1.115,100.04,3.0,,0.0,0.0,
2025-08-15T02:01:08.734Z,5,GR86-025-47,-56.5,0.122,-1.15,100.05,3.0,,0.0,0.0,
2025-08-15T02:01:08.777Z,5,GR86-025-47,-60.1,0.127,-1.198,100.05,3.0,,0.0,0.0,
2025-08-15T02:01:08.820Z,5,GR86-025-47,-60.0,0.106,-1.168,100.03,3.0,6125.0,0.0,0.0,
2025-08-15T02:01:08.864Z,5,GR86-025-47,-53.900000000000006,0.137,-1.198,100.02,3.0,,0.0,0.0,128.6
2025-08-15T02:01:08.907Z,5,GR86-025-47,-46.900000000000006,0.12,-1.188,100.03,3.0,,0.0,0.0,
2025-08-15T02:01:08.950Z,5,GR86-025-47,-39.7,0.125,-1.152,100.04,3.0,,0.0,0.0,
2025-08-15T02:01:09.036Z,5,GR86-025-47,-32.300000000000004,0.157,-1.115,100.03,3.0,6115.0,0.0,0.0,
2025-08-15T02:01:09.079Z,5,GR86-025-47,-19.8,0.161,-1.033,100.04,3.0,,0.0,0.0,129.3
2025-08-15T02:01:09.122Z,5,GR86-025-47,-17.8,0.161,-0.993,100.04,3.0,,0.0,0.0,
2025-08-15T02:01:09.165Z,5,GR86-025-47,-17.8,0.176,-0.938,100.03,3.0,,0.0,0.0,
2025-08-15T02:01:09.208Z,5,GR86-025-47,-19.1,0.235,-0.734,100.04,3.0,,0.0,0.0,
2025-08-15T02:01:09.251Z,5,GR86-025-47,-23.200000000000003,0.177,-0.729,100.04,3.0,6139.0,0.0,0.0,
2025-08-15T02:01:09.294Z,5,GR86-025-47,-27.0,0.201,-0.484,100.03,3.0,,0.0,0.0,131.64
2025-08-15T02:01:09.337Z,5,GR86-025-47,-30.4,0.17,-0.455,100.03,3.0,,0.0,0.0,
2025-08-15T02:01:09.380Z,5,GR86-025-47,-32.5,0.151,-0.32,100.04,3.0,,0.0,0.0,
2025-08-15T02:01:09.423Z,5,GR86-025-47,-33.5,0.18,-0.494,100.04,3.0,,0.0,0.0,
2025-08-15T02:01:09.467Z,5,GR86-025-47,-32.5,0.15,-0.304,100.03,3.0,6211.0,0.0,0.0,
2025-08-15T02:01:09.510Z,5,GR86-025-47,-28.9,0.05,-0.582,100.04,3.0,,0.0,0.0,131.7
2025-08-15T02:01:09.553Z,5,GR86-025-47,-26.4,0.102,-0.79,100.04,3.0,,0.0,0.0,
2025-08-15T02:01:09.596Z,5,GR86-025-47,-25.6,0.08,-0.976,100.02,3.0,,0.0,0.0,
2025-08-15T02:01:09.639Z,5,GR86-025-47,-26.6,0.148,-1.179,100.03,3.0,,0.0,0.0,
2025-08-15T02:01:09.682Z,5,GR86-025-47,-34.4,0.042,-1.132,100.02,3.0,6362.0,0.0,0.0,
2025-08-15T02:01:09.725Z,5,GR86-025-47,-37.3,0.151,-1.034,100.05,3.0,,0.0,0.0,132.78
2025-08-15T02:01:09.768Z,5,GR86-025-47,-37.7,0.138,-1.054,100.04,3.0,,0.0,0.0,
2025-08-15T02:01:09.812Z,5,GR86-025-47,-37.1,0.226,-1.307,100.03,3.0,,0.0,0.0,
2025-08-15T02:01:09.855Z,5,GR86-025-47,-36.3,0.284,-1.329,100.04,3.0,,0.0,0.0,
2025-08-15T02:01:09.898Z,5,GR86-025-47,-36.0,0.172,-1.189,100.02,3.0,6383.0,0.0,0.0,
2025-08-15T02:01:09.942Z,5,GR86-025-47,-35.0,0.049,-1.033,100.03,3.0,,0.0,0.0,134.04
2025-08-15T02:01:09.985Z,5,GR86-025-47,-31.6,0.124,-0.965,100.03,3.0,,0.0,0.0,
2025-08-15T02:01:10.028Z,5,GR86-025-47,-28.6,0.217,-0.9,100.03,3.0,,0.0,0.0,
2025-08-15T02:01:10.071Z,5,GR86-025-47,-27.6,0.185,-0.8200000000000001,100.04,3.0,,0.0,0.0,
2025-08-15T02:01:10.114Z,5,GR86-025-47,-27.5,0.112,-0.833,100.02,3.0,6457.0,0.0,0.0,
2025-08-15T02:01:10.157Z,5,GR86-025-47,-27.3,0.151,-0.835,100.03,3.0,,0.0,0.0,135.36
2025-08-15T02:01:10.200Z,5,GR86-025-47,-26.200000000000003,0.206,-0.793,100.04,3.0,,0.0,0.0,
2025-08-15T02:01:10.243Z,5,GR86-025-47,-25.6,0.178,-0.9,100.03,3.0,,0.0,0.0,
2025-08-15T02:01:10.286Z,5,GR86-025-47,-26.8,0.186,-0.984,100.02,3.0,,0.0,0.0,
2025-08-15T02:01:10.329Z,5,GR86-025-47,-31.4,0.154,-1.017,100.03,3.0,6465.0,0.0,0.0,
2025-08-15T02:01:10.372Z,5,GR86-025-47,-33.800000000000004,0.117,-1.059,100.04,3.0,,0.0,0.0,135.63
2025-08-15T02:01:10.415Z,5,GR86-025-47,-33.9,0.185,-0.956,99.99,3.0,,0.0,0.0,
2025-08-15T02:01:10.458Z,5,GR86-025-47,-33.300000000000004,0.16,-0.971,100.03,3.0,,0.0,0.0,
2025-08-15T02:01:10.502Z,5,GR86-025-47,-25.3,0.17,-0.868,100.02,3.0,,0.0,0.0,
2025-08-15T02:01:10.545Z,5,GR86-025-47,-19.0,0.205,-0.708,100.03,3.0,6490.0,0.0,0.0,
2025-08-15T02:01:10.588Z,5,GR86-025-47,-14.4,0.118,-0.706,100.04,3.0,,0.0,0.0,136.8
2025-08-15T02:01:10.631Z,5,GR86-025-47,-12.9,0.181,-0.682,100.01,3.0,,0.0,0.0,
2025-08-15T02:01:10.674Z,5,GR86-025-47,-12.9,0.218,-0.629,99.99,3.0,,0.0,0.0,
2025-08-15T02:01:10.718Z,5,GR86-025-47,-15.2,0.209,-0.605,100.02,3.0,,0.0,0.0,
2025-08-15T02:01:10.760Z,5,GR86-025-47,-19.9,0.147,-0.678,100.03,3.0,6510.0,0.0,0.0,
2025-08-15T02:01:10.804Z,5,GR86-025-47,-24.200000000000003,0.17,-0.629,100.0,3.0,,0.0,0.0,138.47
2025-08-15T02:01:10.847Z,5,GR86-025-47,-24.1,0.137,-0.761,100.0,3.0,,0.0,0.0,
2025-08-15T02:01:10.890Z,5,GR86-025-47,-18.8,0.184,-0.717,100.0,3.0,,0.0,0.0,
2025-08-15T02:01:10.933Z,5,GR86-025-47,-12.1,0.186,-0.585,100.03,3.0,,0.0,0.0,
2025-08-15T02:01:10.976Z,5,GR86-025-47,-7.1000000000000005,0.162,-0.65,100.03,3.0,6599.0,0.0,0.0,
2025-08-15T02:01:11.019Z,5,GR86-025-47,-3.5,0.22,-0.426,99.99,3.0,,0.0,0.0,139.25
2025-08-15T02:01:11.064Z,5,GR86-025-47,-1.0,0.267,-0.256,100.03,3.0,,0.0,0.0,
2025-08-15T02:01:11.107Z,5,GR86-025-47,-0.7000000000000001,0.196,-0.198,100.03,3.0,,0.0,0.0,
2025-08-15T02:01:11.150Z,5,GR86-025-47,0.8,0.092,-0.092,100.02,3.0,,0.0,0.0,
2025-08-15T02:01:11.194Z,5,GR86-025-47,6.1000000000000005,0.024,-0.131,100.01,3.0,6628.0,0.0,0.0,
2025-08-15T02:01:11.237Z,5,GR86-025-47,9.7,0.235,-0.062,100.03,3.0,,0.0,0.0,140.73
2025-08-15T02:01:11.280Z,5,GR86-025-47,11.8,0.328,-0.064,100.04,3.0,,0.0,0.0,
2025-08-15T02:01:11.324Z,5,GR86-025-47,11.2,0.183,0.034,100.03,3.0,,0.0,0.0,
2025-08-15T02:01:11.367Z,5,GR86-025-47,10.5,0.088,-0.043,100.03,3.0,,0.0,0.0,
2025-08-15T02:01:11.410Z,5,GR86-025-47,10.1,0.045,0.007,100.03,3.0,6702.0,0.0,0.0,
2025-08-15T02:01:11.453Z,5,GR86-025-47,9.3,0.168,0.035,100.03,3.0,,0.0,0.0,141.96
2025-08-15T02:01:11.496Z,5,GR86-025-47,8.200000000000001,0.227,0.184,100.02,3.0,,0.0,0.0,
2025-08-15T02:01:11.539Z,5,GR86-025-47,7.4,0.245,0.251,100.03,3.0,,0.0,0.0,
2025-08-15T02:01:11.582Z,5,GR86-025-47,6.1000000000000005,0.173,0.211,100.02,3.0,,0.0,0.0,
2025-08-15T02:01:11.626Z,5,GR86-025-47,5.300000000000001,0.278,0.263,100.03,3.0,7023.0,0.0,0.0,
2025-08-15T02:01:11.669Z,5,GR86-025-47,4.6000000000000005,0.147,0.296,100.02,3.0,,0.0,0.0,145.36
2025-08-15T02:01:11.712Z,5,GR86-025-47,4.2,0.168,0.328,100.03,3.0,,0.0,0.0,
2025-08-15T02:01:11.755Z,5,GR86-025-47,7.0,0.289,0.323,100.05,3.0,,0.0,0.0,
2025-08-15T02:01:11.799Z,5,GR86-025-47,11.6,0.286,0.296,100.04,3.0,,0.0,0.0,
2025-08-15T02:01:11.842Z,5,GR86-025-47,12.8,0.041,0.363,100.04,3.0,6872.0,0.0,0.0,
2025-08-15T02:01:11.885Z,5,GR86-025-47,12.5,0.109,0.491,100.03,3.0,,0.0,0.0,146.11
2025-08-15T02:01:11.928Z,5,GR86-025-47,12.0,0.35,0.384,100.03,3.0,,0.0,0.0,
2025-08-15T02:01:11.971Z,5,GR86-025-47,11.6,0.244,0.42,100.04,3.0,,0.0,0.0,
2025-08-15T02:01:12.057Z,5,GR86-025-47,11.5,0.227,0.423,100.03,3.0,7002.0,0.0,0.0,
2025-08-15T02:01:12.100Z,5,GR86-025-47,11.0,0.162,0.372,100.03,3.0,,0.0,0.0,147.69
2025-08-15T02:01:12.143Z,5,GR86-025-47,10.2,0.193,0.367,100.03,3.0,,0.0,0.0,
2025-08-15T02:01:12.187Z,5,GR86-025-47,9.8,0.186,0.344,100.03,3.0,,0.0,0.0,
2025-08-15T02:01:12.273Z,5,GR86-025-47,9.3,0.218,0.303,100.03,3.0,6996.0,0.0,0.0,
2025-08-15T02:01:12.316Z,5,GR86-025-47,9.0,0.21,0.299,100.03,3.0,,0.0,0.0,149.43
2025-08-15T02:01:12.359Z,5,GR86-025-47,8.8,0.187,0.284,100.03,3.0,,0.0,0.0,
2025-08-15T02:01:12.402Z,5,GR86-025-47,8.4,0.219,0.269,100.04,3.0,,0.0,0.0,
2025-08-15T02:01:12.445Z,5,GR86-025-47,8.3,0.206,0.253,100.03,3.0,,0.0,0.0,
2025-08-15T02:01:12.488Z,5,GR86-025-47,8.3,0.177,0.261,100.03,3.0,7096.0,0.0,0.0,
2025-08-15T02:01:12.531Z,5,GR86-025-47,8.3,0.158,0.258,100.02,3.0,,0.0,0.0,150.93
2025-08-15T02:01:12.574Z,5,GR86-025-47,8.200000000000001,0.191,0.245,100.04,3.0,,0.0,0.0,
2025-08-15T02:01:12.617Z,5,GR86-025-47,8.1,0.218,0.239,100.03,3.0,,0.0,0.0,
2025-08-15T02:01:12.660Z,5,GR86-025-47,7.9,0.212,0.245,100.04,3.0,,0.0,0.0,
2025-08-15T02:01:12.703Z,5,GR86-025-47,7.4,0.173,0.251,100.03,3.0,7164.0,0.0,0.0,
2025-08-15T02:01:12.746Z,5,GR86-025-47,7.0,0.038,0.256,100.01,4.0,,0.0,0.0,152.48
2025-08-15T02:01:12.789Z,5,GR86-025-47,6.800000000000001,-0.038,0.294,100.0,4.0,,0.0,0.0,
2025-08-15T02:01:12.833Z,5,GR86-025-47,6.6000000000000005,0.526,0.269,100.01,4.0,,0.0,0.0,
2025-08-15T02:01:12.876Z,5,GR86-025-47,6.4,0.34,0.187,100.01,4.0,,0.0,0.0,
2025-08-15T02:01:12.919Z,5,GR86-025-47,6.1000000000000005,0.046,0.237,100.01,4.0,7226.0,0.0,0.0,
2025-08-15T02:01:12.964Z,5,GR86-025-47,5.9,0.094,0.207,100.0,4.0,,0.0,0.0,154.01
2025-08-15T02:01:13.007Z,5,GR86-025-47,5.800000000000001,0.229,0.163,100.0,4.0,,0.0,0.0,
2025-08-15T02:01:13.050Z,5,GR86-025-47,5.7,0.172,0.21,100.01,4.0,,0.0,0.0,
2025-08-15T02:01:13.093Z,5,GR86-025-47,5.7,0.102,0.149,99.99,4.0,,0.0,0.0,
2025-08-15T02:01:13.136Z,5,GR86-025-47,5.6000000000000005,0.092,0.122,100.02,4.0,6165.0,0.0,0.0,
2025-08-15T02:01:13.179Z,5,GR86-025-47,5.300000000000001,0.169,0.129,100.0,4.0,,0.0,0.0,155.45000000000002
2025-08-15T02:01:13.222Z,5,GR86-025-47,5.0,0.135,0.133,100.0,4.0,,0.0,0.0,
2025-08-15T02:01:13.266Z,5,GR86-025-47,4.9,0.111,0.104,100.0,4.0,,0.0,0.0,
2025-08-15T02:01:13.309Z,5,GR86-025-47,4.4,0.145,0.092,99.99,4.0,,0.0,0.0,
2025-08-15T02:01:13.352Z,5,GR86-025-47,4.2,0.17,0.097,100.0,4.0,6151.0,0.0,0.0,
2025-08-15T02:01:13.395Z,5,GR86-025-47,4.2,0.16,0.084,100.04,4.0,,0.0,0.0,157.1
2025-08-15T02:01:13.438Z,5,GR86-025-47,4.1000000000000005,0.158,0.103,100.0,4.0,,0.0,0.0,
2025-08-15T02:01:13.482Z,5,GR86-025-47,4.1000000000000005,0.151,0.071,99.99,4.0,,0.0,0.0,
2025-08-15T02:01:13.525Z,5,GR86-025-47,3.9,0.145,0.081,100.0,4.0,,0.0,0.0,
2025-08-15T02:01:13.568Z,5,GR86-025-47,3.8,0.163,0.075,100.0,4.0,6240.0,0.0,0.0,
2025-08-15T02:01:13.612Z,5,GR86-025-47,3.4000000000000004,0.147,0.08,100.0,4.0,,0.0,0.0,158.61
2025-08-15T02:01:13.655Z,5,GR86-025-47,2.7,0.158,0.056,100.03,4.0,,0.0,0.0,
2025-08-15T02:01:13.699Z,5,GR86-025-47,2.5,0.104,0.046,99.99,4.0,,0.0,0.0,
2025-08-15T02:01:13.742Z,5,GR86-025-47,2.3000000000000003,0.168,0.006,100.0,4.0,,0.0,0.0,
2025-08-15T02:01:13.787Z,5,GR86-025-47,2.1,0.149,0.027,100.01,4.0,6300.0,0.0,0.0,
2025-08-15T02:01:13.830Z,5,GR86-025-47,1.9,0.132,-0.005,100.0,4.0,,0.0,0.0,160.15
2025-08-15T02:01:13.874Z,5,GR86-025-47,1.8,0.122,-0.022,100.0,4.0,,0.0,0.0,
2025-08-15T02:01:13.917Z,5,GR86-025-47,1.8,0.12,-0.021,100.01,4.0,,0.0,0.0,
2025-08-15T02:01:13.960Z,5,GR86-025-47,1.7000000000000002,0.136,-0.044,99.99,4.0,,0.0,0.0,
2025-08-15T02:01:14.003Z,5,GR86-025-47,1.2000000000000002,0.147,-0.031,100.0,4.0,6365.0,0.0,0.0,
2025-08-15T02:01:14.046Z,5,GR86-025-47,0.5,0.136,-0.059,100.0,4.0,,0.0,0.0,161.61
2025-08-15T02:01:14.089Z,5,GR86-025-47,0.2,0.118,-0.064,100.0,4.0,,0.0,0.0,
2025-08-15T02:01:14.133Z,5,GR86-025-47,0.0,0.119,-0.071,99.99,4.0,,0.0,0.0,
2025-08-15T02:01:14.176Z,5,GR86-025-47,-0.1,0.121,-0.086,100.02,4.0,,0.0,0.0,
2025-08-15T02:01:14.219Z,5,GR86-025-47,-0.1,0.138,-0.092,100.0,4.0,6421.0,0.0,0.0,
2025-08-15T02:01:14.264Z,5,GR86-025-47,-0.1,0.131,-0.103,100.0,4.0,,0.0,0.0,164.58
2025-08-15T02:01:14.307Z,5,GR86-025-47,0.0,0.121,-0.091,99.99,4.0,,0.0,0.0,
2025-08-15T02:01:14.350Z,5,GR86-025-47,0.0,0.115,-0.075,100.0,4.0,,0.0,0.0,
2025-08-15T02:01:14.393Z,5,GR86-025-47,-0.1,0.125,-0.063,100.03,4.0,,0.0,0.0,
2025-08-15T02:01:14.436Z,5,GR86-025-47,-0.2,0.136,-0.056,100.0,4.0,6480.0,0.0,0.0,
2025-08-15T02:01:14.479Z,5,GR86-025-47,-0.3,0.154,-0.065,99.99,4.0,,0.0,0.0,166.09
2025-08-15T02:01:14.522Z,5,GR86-025-47,-0.9,0.11,-0.038,100.0,4.0,,0.0,0.0,
2025-08-15T02:01:14.565Z,5,GR86-025-47,-1.3,0.115,-0.055,99.99,4.0,,0.0,0.0,
2025-08-15T02:01:14.608Z,5,GR86-025-47,-1.8,0.124,-0.084,100.01,4.0,,0.0,0.0,
2025-08-15T02:01:14.651Z,5,GR86-025-47,-2.7,0.136,-0.092,100.03,4.0,6533.0,0.0,0.0,
2025-08-15T02:01:14.694Z,5,GR86-025-47,-3.9,0.12,-0.135,99.99,4.0,,0.0,0.0,167.55
2025-08-15T02:01:14.737Z,5,GR86-025-47,-4.6000000000000005,0.122,-0.173,100.0,4.0,,0.0,0.0,
2025-08-15T02:01:14.780Z,5,GR86-025-47,-4.800000000000001,0.13,-0.221,100.0,4.0,,0.0,0.0,
2025-08-15T02:01:14.823Z,5,GR86-025-47,-4.800000000000001,0.107,-0.236,100.02,4.0,,0.0,0.0,
2025-08-15T02:01:14.867Z,5,GR86-025-47,-3.6,0.111,-0.202,99.99,4.0,6637.0,0.0,0.0,
2025-08-15T02:01:14.910Z,5,GR86-025-47,-3.4000000000000004,0.118,-0.194,100.0,4.0,,0.0,0.0,168.97
2025-08-15T02:01:14.953Z,5,GR86-025-47,-3.5,0.119,-0.178,100.0,4.0,,0.0,0.0,
2025-08-15T02:01:14.996Z,5,GR86-025-47,-3.6,0.111,-0.179,100.03,4.0,,0.0,0.0,
2025-08-15T02:01:15.039Z,5,GR86-025-47,-5.0,0.125,-0.194,100.0,4.0,,0.0,0.0,
2025-08-15T02:01:15.082Z,5,GR86-025-47,-7.0,0.132,-0.231,100.01,4.0,6694.0,0.0,0.0,
2025-08-15T02:01:15.125Z,5,GR86-025-47,-7.300000000000001,0.089,-0.232,100.02,4.0,,0.0,0.0,170.26
2025-08-15T02:01:15.168Z,5,GR86-025-47,-7.300000000000001,0.115,-0.268,100.0,4.0,,0.0,0.0,
2025-08-15T02:01:15.211Z,5,GR86-025-47,-7.300000000000001,0.106,-0.297,100.04,4.0,,0.0,0.0,
2025-08-15T02:01:15.254Z,5,GR86-025-47,-7.300000000000001,0.109,-0.295,100.01,4.0,,0.0,0.0,
2025-08-15T02:01:15.297Z,5,GR86-025-47,-8.3,0.102,-0.341,100.02,4.0,6757.0,0.0,0.0,
2025-08-15T02:01:15.340Z,5,GR86-025-47,-9.7,0.101,-0.385,100.0,4.0,,0.0,0.0,171.51
2025-08-15T02:01:15.383Z,5,GR86-025-47,-10.0,0.143,-0.424,100.01,4.0,,0.0,0.0,
2025-08-15T02:01:15.426Z,5,GR86-025-47,-9.7,0.101,-0.418,100.02,4.0,,0.0,0.0,
2025-08-15T02:01:15.469Z,5,GR86-025-47,-5.7,0.11,-0.398,99.99,4.0,,0.0,0.0,
2025-08-15T02:01:15.512Z,5,GR86-025-47,-3.2,0.101,-0.355,99.99,4.0,6798.0,0.0,0.0,
2025-08-15T02:01:15.555Z,5,GR86-025-47,-2.7,0.117,-0.318,100.03,4.0,,0.0,0.0,172.94
2025-08-15T02:01:15.599Z,5,GR86-025-47,-2.7,0.102,-0.284,100.03,4.0,,0.0,0.0,
2025-08-15T02:01:15.642Z,5,GR86-025-47,-3.3000000000000003,0.156,-0.3,100.01,4.0,,0.0,0.0,
2025-08-15T02:01:15.685Z,5,GR86-025-47,-3.5,0.135,-0.275,100.02,4.0,,0.0,0.0,
2025-08-15T02:01:15.728Z,5,GR86-025-47,-3.5,0.147,-0.232,100.0,4.0,6850.0,0.0,0.0,
2025-08-15T02:01:15.771Z,5,GR86-025-47,-3.6,0.134,-0.209,100.01,4.0,,0.0,0.0,174.16
2025-08-15T02:01:15.814Z,5,GR86-025-47,-3.6,0.143,-0.208,100.03,4.0,,0.0,0.0,
2025-08-15T02:01:15.857Z,5,GR86-025-47,-3.7,0.136,-0.21,100.03,4.0,,0.0,0.0,
2025-08-15T02:01:15.900Z,5,GR86-025-47,-3.8,0.136,-0.2,100.04,4.0,,0.0,0.0,
2025-08-15T02:01:15.944Z,5,GR86-025-47,-3.9,0.113,-0.209,100.02,4.0,6902.0,0.0,0.0,
2025-08-15T02:01:15.987Z,5,GR86-025-47,-3.9,0.11,-0.205,91.36,4.0,,8.515,9.005,175.43
2025-08-15T02:01:16.030Z,5,GR86-025-47,-3.9,0.07,-0.199,25.84,4.0,,13.95,14.175,
2025-08-15T02:01:16.073Z,5,GR86-025-47,-3.2,-0.026,-0.163,3.59,4.0,,22.77,22.845,
2025-08-15T02:01:16.116Z,5,GR86-025-47,-0.3,-0.27,-0.157,3.43,4.0,,34.96,34.84,
2025-08-15T02:01:16.159Z,5,GR86-025-47,1.3,-0.744,-0.093,3.33,4.0,6943.0,47.61,47.275,
2025-08-15T02:01:16.202Z,5,GR86-025-47,1.3,-1.052,-0.03,3.09,4.0,,56.31,56.370000000000005,176.76
2025-08-15T02:01:16.246Z,5,GR86-025-47,0.1,-1.024,-0.034,2.96,4.0,,52.8,54.355,
2025-08-15T02:01:16.289Z,5,GR86-025-47,-3.5,-0.924,-0.045,2.81,4.0,,46.345,48.39,
2025-08-15T02:01:16.333Z,5,GR86-025-47,-4.800000000000001,-0.956,-0.175,2.71,4.0,,42.18,43.735,
2025-08-15T02:01:16.376Z,5,GR86-025-47,-4.800000000000001,-0.984,-0.194,2.65,4.0,6989.0,41.965,43.23,
2025-08-15T02:01:16.419Z,5,GR86-025-47,-0.4,-0.928,-0.217,2.59,4.0,,47.245,47.52,177.81
2025-08-15T02:01:16.464Z,5,GR86-025-47,6.6000000000000005,-1.05,-0.169,2.59,4.0,,59.955,59.805,
2025-08-15T02:01:16.507Z,5,GR86-025-47,6.300000000000001,-1.119,-0.067,2.5500000000000003,4.0,,64.84,64.49,
2025-08-15T02:01:16.550Z,5,GR86-025-47,1.7000000000000002,-1.126,-0.066,2.5500000000000003,4.0,,65.895,66.075,
2025-08-15T02:01:16.594Z,5,GR86-025-47,-4.800000000000001,-1.108,-0.122,32.96,4.0,6520.0,65.65,66.455,
2025-08-15T02:01:16.637Z,5,GR86-025-47,-8.700000000000001,-1.114,-0.207,63.18,3.0,,64.67,65.955,174.5
2025-08-15T02:01:16.680Z,5,GR86-025-47,-9.7,-1.119,-0.266,37.53,3.0,,64.0,65.145,
2025-08-15T02:01:16.724Z,5,GR86-025-47,-9.6,-1.189,-0.19,36.23,3.0,,67.175,69.555,
2025-08-15T02:01:16.767Z,5,GR86-025-47,-2.5,-1.163,-0.308,28.81,3.0,,68.595,69.74,
2025-08-15T02:01:16.810Z,5,GR86-025-47,4.6000000000000005,-1.122,-0.417,16.85,3.0,6443.0,68.655,68.87,
2025-08-15T02:01:16.853Z,5,GR86-025-47,5.9,-1.053,-0.228,13.49,3.0,,73.05,73.08,169.5
2025-08-15T02:01:16.896Z,5,GR86-025-47,5.2,-0.956,-0.239,5.98,3.0,,79.87,79.47500000000001,
2025-08-15T02:01:16.939Z,5,GR86-025-47,-0.8,-0.979,-0.391,4.3500000000000005,3.0,,85.21000000000001,84.615,
2025-08-15T02:01:16.982Z,5,GR86-025-47,-2.4000000000000004,-1.123,-0.274,4.41,3.0,,87.53,88.83,
2025-08-15T02:01:17.026Z,5,GR86-025-47,2.4000000000000004,-1.17,-0.311,4.19,3.0,6005.0,92.52,94.645,
2025-08-15T02:01:17.069Z,5,GR86-025-47,5.2,-1.185,-0.245,3.61,3.0,,94.125,95.77,154.24
2025-08-15T02:01:17.112Z,5,GR86-025-47,3.3000000000000003,-1.205,-0.136,3.18,3.0,,90.765,90.83,
2025-08-15T02:01:17.155Z,5,GR86-025-47,-11.7,-1.262,-0.177,2.93,3.0,,89.865,92.005,
2025-08-15T02:01:17.199Z,5,GR86-025-47,-26.5,-1.19,-0.251,17.97,3.0,,88.46000000000001,89.96000000000001,
2025-08-15T02:01:17.242Z,5,GR86-025-47,-34.1,-1.246,-0.479,84.73,3.0,7179.0,81.96000000000001,82.83,
2025-08-15T02:01:17.285Z,5,GR86-025-47,-27.5,-1.017,-0.422,89.64,2.0,,77.37,79.75,146.79
2025-08-15T02:01:17.328Z,5,GR86-025-47,-9.0,-1.154,-0.547,36.72,2.0,,71.95,74.345,
2025-08-15T02:01:17.371Z,5,GR86-025-47,8.200000000000001,-1.333,-0.378,34.24,2.0,,68.21000000000001,70.655,
2025-08-15T02:01:17.414Z,5,GR86-025-47,19.1,-1.094,-0.213,31.26,2.0,,63.085,64.125,
2025-08-15T02:01:17.457Z,5,GR86-025-47,21.9,-0.998,-0.607,23.83,2.0,6310.0,56.495000000000005,57.41,
2025-08-15T02:01:17.500Z,5,GR86-025-47,21.4,-0.981,-0.375,17.09,2.0,,54.525,56.155,137.52
2025-08-15T02:01:17.543Z,5,GR86-025-47,13.8,-0.977,-0.473,5.92,2.0,,54.265,56.125,
2025-08-15T02:01:17.587Z,5,GR86-025-47,4.6000000000000005,-0.785,-0.6880000000000001,5.89,2.0,,50.1,52.115,
2025-08-15T02:01:17.630Z,5,GR86-025-47,-7.4,-0.844,-0.46,5.8500000000000005,2.0,,46.205,47.4,
2025-08-15T02:01:17.673Z,5,GR86-025-47,-18.8,-0.844,-0.558,5.83,2.0,7213.0,43.765,45.125,
2025-08-15T02:01:17.716Z,5,GR86-025-47,-30.200000000000003,-0.886,-0.591,5.7700000000000005,2.0,,42.425,43.43,132.87
2025-08-15T02:01:17.759Z,5,GR86-025-47,-43.2,-0.777,-0.623,5.67,2.0,,42.3,43.4,
2025-08-15T02:01:17.802Z,5,GR86-025-47,-55.8,-0.907,-0.681,5.51,2.0,,42.65,43.585,
2025-08-15T02:01:17.845Z,5,GR86-025-47,-55.8,-0.933,-0.632,5.58,2.0,,44.56,45.4,
2025-08-15T02:01:17.888Z,5,GR86-025-47,-44.8,-0.956,-0.8170000000000001,5.42,2.0,6874.0,45.46,46.055,
2025-08-15T02:01:17.931Z,5,GR86-025-47,-24.0,-0.84,-0.795,5.29,2.0,,41.86,43.17,126.26
2025-08-15T02:01:17.974Z,5,GR86-025-47,-4.2,-0.8160000000000001,-0.6980000000000001,5.37,2.0,,37.42,38.745,
2025-08-15T02:01:18.017Z,5,GR86-025-47,1.5,-0.8310000000000001,-0.5660000000000001,6.17,2.0,,37.8,38.41,
2025-08-15T02:01:18.060Z,5,GR86-025-47,-5.2,-0.785,-0.614,6.2,2.0,,37.615,38.805,
2025-08-15T02:01:18.103Z,5,GR86-025-47,-32.5,-0.8150000000000001,-0.768,6.18,2.0,6548.0,33.465,34.81,
2025-08-15T02:01:18.146Z,5,GR86-025-47,-45.3,-0.747,-0.863,5.95,2.0,,31.39,32.410000000000004,120.63
2025-08-15T02:01:18.190Z,5,GR86-025-47,-52.8,-0.65,-0.932,5.79,2.0,,29.65,30.765,
2025-08-15T02:01:18.233Z,5,GR86-025-47,-56.5,-0.687,-1.034,5.7,2.0,,28.52,29.56,
2025-08-15T02:01:18.276Z,5,GR86-025-47,-56.5,-0.635,-1.038,5.7,2.0,,27.62,28.58,
2025-08-15T02:01:18.319Z,5,GR86-025-47,-53.6,-0.68,-1.122,5.93,2.0,6191.0,26.14,27.315,
2025-08-15T02:01:18.364Z,5,GR86-025-47,-47.3,-0.652,-1.023,7.0,2.0,,22.28,23.06,116.44
2025-08-15T02:01:18.407Z,5,GR86-025-47,-47.3,-0.606,-1.036,7.87,2.0,,19.825,20.845,
2025-08-15T02:01:18.450Z,5,GR86-025-47,-49.400000000000006,-0.551,-1.144,7.890000000000001,2.0,,12.39,13.17,
2025-08-15T02:01:18.493Z,5,GR86-025-47,-49.7,-0.353,-1.126,7.77,2.0,,3.695,4.21,
2025-08-15T02:01:18.536Z,5,GR86-025-47,-50.6,-0.24,-1.199,7.54,2.0,5943.0,0.0,0.0,
2025-08-15T02:01:18.579Z,5,GR86-025-47,-57.2,-0.198,-1.195,7.52,2.0,,0.0,0.0,110.74
2025-08-15T02:01:18.622Z,5,GR86-025-47,-71.7,-0.167,-1.192,7.6,2.0,,0.0,0.0,
2025-08-15T02:01:18.666Z,5,GR86-025-47,-75.2,-0.214,-1.257,9.48,2.0,,0.0,0.0,
2025-08-15T02:01:18.709Z,5,GR86-025-47,-74.5,-0.184,-1.271,16.05,2.0,,0.0,0.0,
2025-08-15T02:01:18.752Z,5,GR86-025-47,-62.400000000000006,-0.188,-1.297,22.52,2.0,5797.0,0.0,0.0,
2025-08-15T02:01:18.795Z,5,GR86-025-47,-48.8,-0.185,-1.296,24.98,2.0,,0.0,0.0,106.9
2025-08-15T02:01:18.839Z,5,GR86-025-47,-39.3,-0.155,-1.239,28.41,2.0,,0.0,0.0,
2025-08-15T02:01:18.882Z,5,GR86-025-47,-39.3,-0.125,-1.211,33.19,2.0,,0.0,0.0,
2025-08-15T02:01:18.925Z,5,GR86-025-47,-50.2,-0.109,-1.243,33.42,2.0,,0.0,0.0,
2025-08-15T02:01:18.968Z,5,GR86-025-47,-60.2,0.157,-1.235,33.47,2.0,5783.0,0.0,0.0,
2025-08-15T02:01:19.010Z,5,GR86-025-47,-66.0,0.151,-1.291,33.42,2.0,,0.0,0.0,104.65
2025-08-15T02:01:19.054Z,5,GR86-025-47,-67.4,0.184,-1.27,33.11,2.0,,0.0,0.0,
2025-08-15T02:01:19.097Z,5,GR86-025-47,-66.7,0.109,-1.264,32.64,2.0,,0.0,0.0,
2025-08-15T02:01:19.140Z,5,GR86-025-47,-64.3,0.141,-1.257,32.47,2.0,,0.0,0.0,
2025-08-15T02:01:19.183Z,5,GR86-025-47,-64.4,0.116,-1.226,32.49,2.0,5778.0,0.0,0.0,
2025-08-15T02:01:19.226Z,5,GR86-025-47,-69.10000000000001,0.06,-1.211,32.62,2.0,,0.0,0.0,103.18
2025-08-15T02:01:19.269Z,5,GR86-025-47,-72.9,0.1,-1.207,33.14,2.0,,0.0,0.0,
2025-08-15T02:01:19.312Z,5,GR86-025-47,-73.3,0.067,-1.161,33.95,2.0,,0.0,0.0,
2025-08-15T02:01:19.355Z,5,GR86-025-47,-72.8,0.087,-1.211,34.2,2.0,,0.0,0.0,
2025-08-15T02:01:19.398Z,5,GR86-025-47,-72.5,0.104,-1.168,34.32,2.0,5987.0,0.0,0.0,
2025-08-15T02:01:19.444Z,5,GR86-025-47,-72.7,0.078,-1.203,34.9,2.0,,0.0,0.0,102.5
2025-08-15T02:01:19.487Z,5,GR86-025-47,-72.2,0.098,-1.177,36.69,2.0,,0.0,0.0,
2025-08-15T02:01:19.530Z,5,GR86-025-47,-67.3,0.121,-1.16,39.07,2.0,,0.0,0.0,
2025-08-15T02:01:19.574Z,5,GR86-025-47,-55.7,0.103,-1.162,46.23,2.0,,0.0,0.0,
2025-08-15T02:01:19.617Z,5,GR86-025-47,-45.2,0.137,-1.11,50.3,2.0,5967.0,0.0,0.0,
2025-08-15T02:01:19.660Z,5,GR86-025-47,-41.1,0.124,-1.115,48.71,2.0,,0.0,0.0,102.58
2025-08-15T02:01:19.703Z,5,GR86-025-47,-43.7,0.155,-1.117,47.42,2.0,,0.0,0.0,
2025-08-15T02:01:19.746Z,5,GR86-025-47,-51.6,0.178,-1.153,47.53,2.0,,0.0,0.0,
2025-08-15T02:01:19.789Z,5,GR86-025-47,-58.8,0.142,-1.136,47.3,2.0,,0.0,0.0,
2025-08-15T02:01:19.832Z,5,GR86-025-47,-63.8,0.14,-1.178,50.09,2.0,6011.0,0.0,0.0,
2025-08-15T02:01:19.875Z,5,GR86-025-47,-65.0,0.135,-1.14,81.23,2.0,,0.0,0.0,103.83
2025-08-15T02:01:19.918Z,5,GR86-025-47,-62.8,0.124,-1.203,99.99,2.0,,0.0,0.0,
2025-08-15T02:01:19.960Z,5,GR86-025-47,-47.6,0.159,-1.164,99.97,2.0,,0.0,0.0,
2025-08-15T02:01:20.004Z,5,GR86-025-47,-24.8,0.204,-1.163,99.97,2.0,,0.0,0.0,
2025-08-15T02:01:20.047Z,5,GR86-025-47,-22.0,0.231,-1.129,99.97,2.0,6113.0,0.0,0.0,
2025-08-15T02:01:20.090Z,5,GR86-025-47,-25.700000000000003,0.234,-1.123,99.99,2.0,,0.0,0.0,104.8
2025-08-15T02:01:20.133Z,5,GR86-025-47,-35.0,0.223,-1.157,99.97,2.0,,0.0,0.0,
2025-08-15T02:01:20.176Z,5,GR86-025-47,-40.8,0.206,-1.109,99.99,2.0,,0.0,0.0,
2025-08-15T02:01:20.219Z,5,GR86-025-47,-42.7,0.155,-1.128,99.96,2.0,,0.0,0.0,
2025-08-15T02:01:20.264Z,5,GR86-025-47,-41.6,0.15,-1.238,99.97,2.0,6305.0,0.0,0.0,
2025-08-15T02:01:20.307Z,5,GR86-025-47,-29.3,0.176,-1.136,99.97,2.0,,0.0,0.0,105.75
2025-08-15T02:01:20.350Z,5,GR86-025-47,-9.9,0.167,-1.213,99.98,2.0,,0.0,0.0,
2025-08-15T02:01:20.393Z,5,GR86-025-47,4.800000000000001,0.272,-1.044,99.97,2.0,,0.0,0.0,
2025-08-15T02:01:20.436Z,5,GR86-025-47,7.2,0.29,-0.951,99.97,2.0,,0.0,0.0,
2025-08-15T02:01:20.479Z,5,GR86-025-47,0.0,0.276,-0.973,99.98,2.0,6421.0,0.0,0.0,
2025-08-15T02:01:20.522Z,5,GR86-025-47,-22.8,0.28,-1.103,99.98,2.0,,0.0,0.0,106.94
2025-08-15T02:01:20.565Z,5,GR86-025-47,-37.3,0.251,-1.106,99.97,2.0,,0.0,0.0,
2025-08-15T02:01:20.608Z,5,GR86-025-47,-49.6,0.142,-1.192,99.99,2.0,,0.0,0.0,
2025-08-15T02:01:20.651Z,5,GR86-025-47,-55.400000000000006,0.173,-1.226,99.98,2.0,,0.0,0.0,
2025-08-15T02:01:20.694Z,5,GR86-025-47,-54.3,0.164,-1.217,99.96,2.0,6520.0,0.0,0.0,
2025-08-15T02:01:20.737Z,5,GR86-025-47,-44.3,0.226,-1.252,99.97,2.0,,0.0,0.0,108.18
2025-08-15T02:01:20.780Z,5,GR86-025-47,-30.3,0.266,-1.137,99.98,2.0,,0.0,0.0,
2025-08-15T02:01:20.823Z,5,GR86-025-47,-20.4,0.262,-0.956,99.98,2.0,,0.0,0.0,
2025-08-15T02:01:20.867Z,5,GR86-025-47,-20.6,0.188,-0.964,99.99,2.0,,0.0,0.0,
2025-08-15T02:01:20.910Z,5,GR86-025-47,-26.200000000000003,0.229,-0.911,99.99,2.0,6513.0,0.0,0.0,
2025-08-15T02:01:20.953Z,5,GR86-025-47,-30.9,0.196,-0.968,99.97,2.0,,0.0,0.0,108.53
2025-08-15T02:01:20.996Z,5,GR86-025-47,-32.800000000000004,0.228,-0.969,99.97,2.0,,0.0,0.0,
2025-08-15T02:01:21.039Z,5,GR86-025-47,-33.300000000000004,0.252,-0.953,99.97,2.0,,0.0,0.0,
2025-08-15T02:01:21.082Z,5,GR86-025-47,-32.7,0.235,-0.958,99.99,2.0,,0.0,0.0,
2025-08-15T02:01:21.125Z,5,GR86-025-47,-31.700000000000003,0.186,-0.957,99.97,2.0,6480.0,0.0,0.0,
2025-08-15T02:01:21.169Z,5,GR86-025-47,-30.4,0.255,-0.935,99.98,2.0,,0.0,0.0,110.73
2025-08-15T02:01:21.212Z,5,GR86-025-47,-30.200000000000003,0.222,-0.896,99.99,2.0,,0.0,0.0,
2025-08-15T02:01:21.255Z,5,GR86-025-47,-32.5,0.21,-0.933,100.01,2.0,,0.0,0.0,
2025-08-15T02:01:21.298Z,5,GR86-025-47,-36.5,0.233,-0.918,100.0,2.0,,0.0,0.0,
2025-08-15T02:01:21.342Z,5,GR86-025-47,-37.8,0.205,-0.95,99.97,2.0,6588.0,0.0,0.0,
2025-08-15T02:01:21.386Z,5,GR86-025-47,-36.3,0.191,-0.987,99.99,2.0,,0.0,0.0,111.5
2025-08-15T02:01:21.429Z,5,GR86-025-47,-28.3,0.228,-0.972,99.99,2.0,,0.0,0.0,
2025-08-15T02:01:21.472Z,5,GR86-025-47,-24.4,0.239,-0.914,99.99,2.0,,0.0,0.0,
2025-08-15T02:01:21.515Z,5,GR86-025-47,-24.5,0.228,-0.89,99.99,2.0,,0.0,0.0,
2025-08-15T02:01:21.558Z,5,GR86-025-47,-34.0,0.252,-0.877,99.98,2.0,6653.0,0.0,0.0,
2025-08-15T02:01:21.601Z,5,GR86-025-47,-47.6,0.208,-0.886,100.0,2.0,,0.0,0.0,113.15
2025-08-15T02:01:21.644Z,5,GR86-025-47,-61.1,0.159,-1.021,100.0,2.0,,0.0,0.0,
2025-08-15T02:01:21.730Z,5,GR86-025-47,-59.2,0.241,-1.068,99.99,2.0,,0.0,0.0,
2025-08-15T02:01:21.773Z,5,GR86-025-47,-45.7,0.226,-0.951,100.0,2.0,6746.0,0.0,0.0,
2025-08-15T02:01:21.816Z,5,GR86-025-47,-33.4,0.322,-0.778,100.0,2.0,,0.0,0.0,114.76
2025-08-15T02:01:21.859Z,5,GR86-025-47,-24.6,0.297,-0.768,99.99,2.0,,0.0,0.0,
2025-08-15T02:01:21.902Z,5,GR86-025-47,-21.3,0.21,-0.77,99.99,2.0,,0.0,0.0,
2025-08-15T02:01:21.945Z,5,GR86-025-47,-20.200000000000003,0.203,-0.853,100.01,2.0,,0.0,0.0,
2025-08-15T02:01:21.988Z,5,GR86-025-47,-19.1,0.227,-0.918,99.99,2.0,6825.0,0.0,0.0,
2025-08-15T02:01:22.031Z,5,GR86-025-47,-18.4,0.233,-0.901,100.0,2.0,,0.0,0.0,116.47
2025-08-15T02:01:22.074Z,5,GR86-025-47,-19.9,0.205,-0.919,100.01,2.0,,0.0,0.0,
2025-08-15T02:01:22.117Z,5,GR86-025-47,-23.6,0.143,-0.851,99.99,2.0,,0.0,0.0,
2025-08-15T02:01:22.160Z,5,GR86-025-47,-26.1,0.102,-0.778,100.0,2.0,,0.0,0.0,
2025-08-15T02:01:22.203Z,5,GR86-025-47,-26.9,0.362,-0.8270000000000001,99.99,2.0,6962.0,0.0,0.0,
2025-08-15T02:01:22.247Z,5,GR86-025-47,-26.700000000000003,0.325,-0.745,100.0,2.0,,0.0,0.0,119.11
2025-08-15T02:01:22.290Z,5,GR86-025-47,-25.200000000000003,0.331,-0.843,100.0,2.0,,0.0,0.0,
2025-08-15T02:01:22.333Z,5,GR86-025-47,-22.1,0.306,-0.71,100.01,2.0,,0.0,0.0,
2025-08-15T02:01:22.376Z,5,GR86-025-47,-21.3,0.236,-0.6930000000000001,100.01,2.0,,0.0,0.0,
2025-08-15T02:01:22.419Z,5,GR86-025-47,-20.4,0.16,-0.77,100.03,2.0,7055.0,0.0,0.0,
2025-08-15T02:01:22.464Z,5,GR86-025-47,-19.4,-0.035,-0.882,100.0,3.0,,0.0,0.0,121.06
2025-08-15T02:01:22.507Z,5,GR86-025-47,-13.5,0.794,-0.685,100.02,3.0,,0.0,0.0,
2025-08-15T02:01:22.550Z,5,GR86-025-47,-9.8,0.586,-0.728,100.03,3.0,,0.0,0.0,
2025-08-15T02:01:22.594Z,5,GR86-025-47,-9.7,0.484,-0.614,100.04,3.0,,0.0,0.0,
2025-08-15T02:01:22.637Z,5,GR86-025-47,-10.7,0.266,-0.475,100.04,3.0,7184.0,0.0,0.0,
2025-08-15T02:01:22.680Z,5,GR86-025-47,-12.1,0.145,-0.626,100.03,3.0,,0.0,0.0,122.54
2025-08-15T02:01:22.724Z,5,GR86-025-47,-11.9,0.262,-0.541,100.03,3.0,,0.0,0.0,
2025-08-15T02:01:22.767Z,5,GR86-025-47,-9.3,0.305,-0.629,100.04,3.0,,0.0,0.0,
2025-08-15T02:01:22.810Z,5,GR86-025-47,-6.800000000000001,0.309,-0.505,100.03,3.0,,0.0,0.0,
2025-08-15T02:01:22.853Z,5,GR86-025-47,-5.2,0.132,-0.334,100.03,3.0,6701.0,0.0,0.0,
2025-08-15T02:01:22.896Z,5,GR86-025-47,-4.1000000000000005,0.147,-0.258,100.01,3.0,,0.0,0.0,123.84
2025-08-15T02:01:22.939Z,5,GR86-025-47,-2.0,0.304,-0.361,100.03,3.0,,0.0,0.0,
2025-08-15T02:01:22.982Z,5,GR86-025-47,0.7000000000000001,0.285,-0.287,100.03,3.0,,0.0,0.0,
2025-08-15T02:01:23.026Z,5,GR86-025-47,0.4,0.242,-0.079,100.03,3.0,,0.0,0.0,
2025-08-15T02:01:23.069Z,5,GR86-025-47,0.7000000000000001,0.227,0.059,100.03,3.0,5912.0,0.0,0.0,
2025-08-15T02:01:23.112Z,5,GR86-025-47,3.7,0.248,0.043,100.03,3.0,,0.0,0.0,125.84
2025-08-15T02:01:23.155Z,5,GR86-025-47,5.300000000000001,0.387,0.078,100.03,3.0,,0.0,0.0,
2025-08-15T02:01:23.199Z,5,GR86-025-47,5.0,0.17,0.323,100.04,3.0,,0.0,0.0,
2025-08-15T02:01:23.242Z,5,GR86-025-47,0.4,0.117,0.172,100.03,3.0,,0.0,0.0,
2025-08-15T02:01:23.285Z,5,GR86-025-47,-3.3000000000000003,0.038,0.152,100.0,3.0,5968.0,0.0,0.0,
2025-08-15T02:01:23.328Z,5,GR86-025-47,-4.2,0.368,-0.029,100.02,3.0,,0.0,0.0,127.14
2025-08-15T02:01:23.371Z,5,GR86-025-47,-4.6000000000000005,0.368,0.016,100.02,3.0,,0.0,0.0,
2025-08-15T02:01:23.414Z,5,GR86-025-47,-1.2000000000000002,0.131,0.078,100.02,3.0,,0.0,0.0,
2025-08-15T02:01:23.457Z,5,GR86-025-47,3.0,0.115,0.042,100.03,3.0,,0.0,0.0,
2025-08-15T02:01:23.500Z,5,GR86-025-47,5.2,0.206,0.071,100.01,3.0,6134.0,0.0,0.0,
2025-08-15T02:01:23.543Z,5,GR86-025-47,6.0,0.27,0.097,100.0,3.0,,0.0,0.0,129.03
2025-08-15T02:01:23.587Z,5,GR86-025-47,5.5,0.268,0.096,100.01,3.0,,0.0,0.0,
2025-08-15T02:01:23.630Z,5,GR86-025-47,4.7,0.206,0.108,100.0,3.0,,0.0,0.0,
2025-08-15T02:01:23.673Z,5,GR86-025-47,3.7,0.21,0.08,100.03,3.0,,0.0,0.0,
2025-08-15T02:01:23.716Z,5,GR86-025-47,3.6,0.232,0.119,100.02,3.0,6139.0,0.0,0.0,
2025-08-15T02:01:23.759Z,5,GR86-025-47,4.6000000000000005,0.244,0.145,100.04,3.0,,0.0,0.0,130.39
2025-08-15T02:01:23.802Z,5,GR86-025-47,5.5,0.23,0.169,100.01,3.0,,0.0,0.0,
2025-08-15T02:01:23.845Z,5,GR86-025-47,5.2,0.232,0.144,100.03,3.0,,0.0,0.0,
2025-08-15T02:01:23.888Z,5,GR86-025-47,4.800000000000001,0.221,0.114,100.0,3.0,,0.0,0.0,
2025-08-15T02:01:23.931Z,5,GR86-025-47,4.5,0.224,0.12,100.0,3.0,6192.0,0.0,0.0,
2025-08-15T02:01:23.974Z,5,GR86-025-47,4.3,0.235,0.138,100.01,3.0,,0.0,0.0,131.96
2025-08-15T02:01:24.017Z,5,GR86-025-47,4.3,0.218,0.135,100.02,3.0,,0.0,0.0,
2025-08-15T02:01:24.060Z,5,GR86-025-47,4.5,0.208,0.118,100.01,3.0,,0.0,0.0,
2025-08-15T02:01:24.103Z,5,GR86-025-47,4.5,0.222,0.127,100.03,3.0,,0.0,0.0,
2025-08-15T02:01:24.146Z,5,GR86-025-47,4.6000000000000005,0.219,0.108,100.04,3.0,6271.0,0.0,0.0,
2025-08-15T02:01:24.190Z,5,GR86-025-47,4.6000000000000005,0.229,0.126,100.0,3.0,,0.0,0.0,133.39
2025-08-15T02:01:24.233Z,5,GR86-025-47,4.6000000000000005,0.216,0.133,100.0,3.0,,0.0,0.0,
2025-08-15T02:01:24.276Z,5,GR86-025-47,4.3,0.208,0.107,100.0,3.0,,0.0,0.0,
2025-08-15T02:01:24.319Z,5,GR86-025-47,4.0,0.228,0.101,99.99,3.0,,0.0,0.0,
2025-08-15T02:01:24.364Z,5,GR86-025-47,3.9,0.211,0.091,99.99,3.0,6338.0,0.0,0.0,
2025-08-15T02:01:24.407Z,5,GR86-025-47,3.9,0.215,0.081,100.01,3.0,,0.0,0.0,134.98
2025-08-15T02:01:24.450Z,5,GR86-025-47,3.8,0.221,0.096,100.03,3.0,,0.0,0.0,
2025-08-15T02:01:24.493Z,5,GR86-025-47,3.6,0.21,0.09,100.03,3.0,,0.0,0.0,
2025-08-15T02:01:24.536Z,5,GR86-025-47,3.5,0.211,0.049,100.02,3.0,,0.0,0.0,
2025-08-15T02:01:24.579Z,5,GR86-025-47,3.4000000000000004,0.211,0.065,100.0,3.0,6409.0,0.0,0.0,
2025-08-15T02:01:24.622Z,5,GR86-025-47,3.4000000000000004,0.212,0.05,100.01,3.0,,0.0,0.0,136.54
2025-08-15T02:01:24.666Z,5,GR86-025-47,3.6,0.218,0.072,100.04,3.0,,0.0,0.0,
2025-08-15T02:01:24.709Z,5,GR86-025-47,3.8,0.209,0.093,100.0,3.0,,0.0,0.0,
2025-08-15T02:01:24.752Z,5,GR86-025-47,3.8,0.197,0.083,99.99,3.0,,0.0,0.0,
2025-08-15T02:01:24.795Z,5,GR86-025-47,3.7,0.212,0.073,99.99,3.0,6466.0,0.0,0.0,
2025-08-15T02:01:24.838Z,5,GR86-025-47,3.5,0.235,0.079,100.04,3.0,,0.0,0.0,138.01
2025-08-15T02:01:24.882Z,5,GR86-025-47,3.3000000000000003,0.208,0.07,100.02,3.0,,0.0,0.0,
2025-08-15T02:01:24.926Z,5,GR86-025-47,3.2,0.216,0.077,100.0,3.0,,0.0,0.0,
2025-08-15T02:01:24.969Z,5,GR86-025-47,3.2,0.209,0.098,100.01,3.0,,0.0,0.0,
2025-08-15T02:01:25.012Z,5,GR86-025-47,3.2,0.193,0.081,100.03,3.0,6532.0,0.0,0.0,
2025-08-15T02:01:25.055Z,5,GR86-025-47,3.2,0.204,0.044,100.04,3.0,,0.0,0.0,139.4
2025-08-15T02:01:25.098Z,5,GR86-025-47,3.2,0.217,0.033,100.01,3.0,,0.0,0.0,
2025-08-15T02:01:25.142Z,5,GR86-025-47,3.1,0.214,0.041,100.0,3.0,,0.0,0.0,
2025-08-15T02:01:25.187Z,5,GR86-025-47,3.0,0.217,0.049,100.03,3.0,,0.0,0.0,
2025-08-15T02:01:25.230Z,5,GR86-025-47,2.9000000000000004,0.223,0.082,100.02,3.0,6597.0,0.0,0.0,
2025-08-15T02:01:25.274Z,5,GR86-025-47,2.8000000000000003,0.187,0.061,100.0,3.0,,0.0,0.0,142.29
2025-08-15T02:01:25.317Z,5,GR86-025-47,2.7,0.194,0.033,100.01,3.0,,0.0,0.0,
2025-08-15T02:01:25.360Z,5,GR86-025-47,2.6,0.205,0.024,100.03,3.0,,0.0,0.0,
2025-08-15T02:01:25.403Z,5,GR86-025-47,2.5,0.194,0.032,100.01,3.0,,0.0,0.0,
2025-08-15T02:01:25.446Z,5,GR86-025-47,2.4000000000000004,0.22,0.012,100.01,3.0,6659.0,0.0,0.0,
2025-08-15T02:01:25.489Z,5,GR86-025-47,2.2,0.221,0.015,100.01,3.0,,0.0,0.0,143.68
2025-08-15T02:01:25.533Z,5,GR86-025-47,1.9,0.215,0.009,100.04,3.0,,0.0,0.0,
2025-08-15T02:01:25.576Z,5,GR86-025-47,1.8,0.175,-0.012,100.0,3.0,,0.0,0.0,
2025-08-15T02:01:25.619Z,5,GR86-025-47,1.5,0.19,-0.038,100.0,3.0,,0.0,0.0,
2025-08-15T02:01:25.664Z,5,GR86-025-47,0.4,0.19,-0.034,100.03,3.0,6796.0,0.0,0.0,
2025-08-15T02:01:25.707Z,5,GR86-025-47,-0.2,0.172,-0.067,99.99,3.0,,0.0,0.0,145.03
2025-08-15T02:01:25.750Z,5,GR86-025-47,-0.5,0.196,-0.104,100.0,3.0,,0.0,0.0,
2025-08-15T02:01:25.793Z,5,GR86-025-47,-0.6000000000000001,0.219,-0.123,100.03,3.0,,0.0,0.0,
2025-08-15T02:01:25.836Z,5,GR86-025-47,-0.6000000000000001,0.215,-0.107,100.0,3.0,,0.0,0.0,
2025-08-15T02:01:25.879Z,5,GR86-025-47,-0.7000000000000001,0.187,-0.107,100.01,3.0,6847.0,0.0,0.0,
2025-08-15T02:01:25.922Z,5,GR86-025-47,-0.1,0.219,-0.119,100.01,3.0,,0.0,0.0,146.38
2025-08-15T02:01:25.965Z,5,GR86-025-47,0.5,0.184,-0.092,100.01,3.0,,0.0,0.0,
2025-08-15T02:01:26.008Z,5,GR86-025-47,0.6000000000000001,0.174,-0.087,99.99,3.0,,0.0,0.0,
2025-08-15T02:01:26.050Z,5,GR86-025-47,0.7000000000000001,0.191,-0.092,100.0,3.0,,0.0,0.0,
2025-08-15T02:01:26.094Z,5,GR86-025-47,0.6000000000000001,0.21,-0.064,100.01,3.0,6912.0,0.0,0.0,
2025-08-15T02:01:26.137Z,5,GR86-025-47,0.3,0.23,-0.042,100.01,3.0,,0.0,0.0,147.66
2025-08-15T02:01:26.180Z,5,GR86-025-47,0.0,0.218,-0.027,100.01,3.0,,0.0,0.0,
2025-08-15T02:01:26.224Z,5,GR86-025-47,-0.3,0.217,-0.048,100.02,3.0,,0.0,0.0,
2025-08-15T02:01:26.267Z,5,GR86-025-47,-0.5,0.227,-0.04,100.0,3.0,,0.0,0.0,
2025-08-15T02:01:26.310Z,5,GR86-025-47,-0.6000000000000001,0.18,-0.035,100.01,3.0,6979.0,0.0,0.0,
2025-08-15T02:01:26.353Z,5,GR86-025-47,-0.8,0.176,-0.063,100.02,3.0,,0.0,0.0,149.04
2025-08-15T02:01:26.396Z,5,GR86-025-47,-0.9,0.179,-0.089,100.0,3.0,,0.0,0.0,
2025-08-15T02:01:26.439Z,5,GR86-025-47,-1.0,0.208,-0.105,100.01,3.0,,0.0,0.0,
2025-08-15T02:01:26.482Z,5,GR86-025-47,-1.1,0.176,-0.086,100.0,3.0,,0.0,0.0,
2025-08-15T02:01:26.526Z,5,GR86-025-47,-1.0,0.186,-0.111,100.01,3.0,7045.0,0.0,0.0,
2025-08-15T02:01:26.569Z,5,GR86-025-47,-0.8,0.22,-0.106,100.03,3.0,,0.0,0.0,150.35
2025-08-15T02:01:26.612Z,5,GR86-025-47,-0.6000000000000001,0.227,-0.096,100.01,3.0,,0.0,0.0,
2025-08-15T02:01:26.657Z,5,GR86-025-47,-0.5,0.215,-0.063,100.0,3.0,,0.0,0.0,
2025-08-15T02:01:26.700Z,5,GR86-025-47,-0.5,0.178,-0.066,100.02,3.0,,0.0,0.0,
2025-08-15T02:01:26.743Z,5,GR86-025-47,-0.7000000000000001,0.218,-0.069,100.0,3.0,7096.0,0.0,0.0,
2025-08-15T02:01:26.787Z,5,GR86-025-47,-1.0,0.195,-0.034,100.01,3.0,,0.0,0.0,151.63
2025-08-15T02:01:26.830Z,5,GR86-025-47,-1.1,0.17,-0.043,100.01,3.0,,0.0,0.0,
2025-08-15T02:01:26.873Z,5,GR86-025-47,-1.2000000000000002,0.171,-0.064,100.01,3.0,,0.0,0.0,
2025-08-15T02:01:26.916Z,5,GR86-025-47,-1.3,0.173,-0.091,100.02,3.0,,0.0,0.0,
2025-08-15T02:01:26.959Z,5,GR86-025-47,-1.2000000000000002,0.199,-0.105,100.0,3.0,7154.0,0.0,0.0,
2025-08-15T02:01:27.002Z,5,GR86-025-47,-1.1,0.173,-0.085,100.01,3.0,,0.0,0.0,152.97
2025-08-15T02:01:27.045Z,5,GR86-025-47,-1.1,0.132,-0.105,99.99,3.0,,0.0,0.0,
2025-08-15T02:01:27.088Z,5,GR86-025-47,-1.2000000000000002,-0.117,-0.083,100.01,4.0,,0.0,0.0,
2025-08-15T02:01:27.131Z,5,GR86-025-47,-1.4,0.435,-0.065,99.98,4.0,,0.0,0.0,
2025-08-15T02:01:27.174Z,5,GR86-025-47,-1.2000000000000002,0.485,-0.132,100.0,4.0,7219.0,0.0,0.0,
2025-08-15T02:01:27.217Z,5,GR86-025-47,-1.1,0.099,-0.09,100.0,4.0,,0.0,0.0,154.28
2025-08-15T02:01:27.260Z,5,GR86-025-47,-1.1,-0.012,-0.023,100.01,4.0,,0.0,0.0,
2025-08-15T02:01:27.303Z,5,GR86-025-47,-0.4,0.261,-0.111,99.99,4.0,,0.0,0.0,
2025-08-15T02:01:27.347Z,5,GR86-025-47,0.3,0.246,-0.018,100.0,4.0,,0.0,0.0,
2025-08-15T02:01:27.390Z,5,GR86-025-47,0.2,0.128,-0.043,100.01,4.0,7013.0,0.0,0.0,
2025-08-15T02:01:27.433Z,5,GR86-025-47,0.1,0.092,-0.08,100.0,4.0,,0.0,0.0,155.56
2025-08-15T02:01:27.476Z,5,GR86-025-47,-0.1,0.145,-0.035,100.0,4.0,,0.0,0.0,
2025-08-15T02:01:27.519Z,5,GR86-025-47,-0.2,0.192,-0.047,100.01,4.0,,0.0,0.0,
2025-08-15T02:01:27.563Z,5,GR86-025-47,-0.5,0.127,-0.016,99.99,4.0,,0.0,0.0,
2025-08-15T02:01:27.607Z,5,GR86-025-47,-0.6000000000000001,0.136,-0.029,99.99,4.0,6198.0,0.0,0.0,
2025-08-15T02:01:27.650Z,5,GR86-025-47,-0.4,0.149,-0.05,100.01,4.0,,0.0,0.0,156.71
2025-08-15T02:01:27.694Z,5,GR86-025-47,0.3,0.174,-0.062,100.0,4.0,,0.0,0.0,
2025-08-15T02:01:27.737Z,5,GR86-025-47,0.8,0.177,-0.06,100.0,4.0,,0.0,0.0,
2025-08-15T02:01:27.780Z,5,GR86-025-47,1.1,0.168,-0.033,100.0,4.0,,0.0,0.0,
2025-08-15T02:01:27.824Z,5,GR86-025-47,0.9,0.157,-0.04,100.0,4.0,6239.0,0.0,0.0,
2025-08-15T02:01:27.867Z,5,GR86-025-47,0.8,0.169,-0.035,100.02,4.0,,0.0,0.0,159.07
2025-08-15T02:01:27.910Z,5,GR86-025-47,0.7000000000000001,0.161,-0.033,100.0,4.0,,0.0,0.0,
2025-08-15T02:01:27.953Z,5,GR86-025-47,0.5,0.178,-0.032,100.01,4.0,,0.0,0.0,
2025-08-15T02:01:27.996Z,5,GR86-025-47,0.3,0.164,-0.027,100.0,4.0,,0.0,0.0,
2025-08-15T02:01:28.039Z,5,GR86-025-47,0.2,0.166,-0.034,100.0,4.0,6259.0,0.0,0.0,
2025-08-15T02:01:28.082Z,5,GR86-025-47,0.1,0.168,-0.048,100.0,4.0,,0.0,0.0,160.24
2025-08-15T02:01:28.126Z,5,GR86-025-47,-0.1,0.161,-0.05,100.01,4.0,,0.0,0.0,
2025-08-15T02:01:28.169Z,5,GR86-025-47,-0.3,0.163,-0.057,99.99,4.0,,0.0,0.0,
2025-08-15T02:01:28.212Z,5,GR86-025-47,-1.1,0.142,-0.072,100.01,4.0,,0.0,0.0,
2025-08-15T02:01:28.255Z,5,GR86-025-47,-3.1,0.132,-0.109,99.99,4.0,6292.0,0.0,0.0,
2025-08-15T02:01:28.299Z,5,GR86-025-47,-3.6,0.127,-0.145,100.0,4.0,,0.0,0.0,161.23
2025-08-15T02:01:28.342Z,5,GR86-025-47,-2.5,0.164,-0.167,100.0,4.0,,0.0,0.0,
2025-08-15T02:01:28.385Z,5,GR86-025-47,-0.8,0.132,-0.152,99.99,4.0,,0.0,0.0,
2025-08-15T02:01:28.428Z,5,GR86-025-47,0.4,0.122,-0.148,100.01,4.0,,0.0,0.0,
2025-08-15T02:01:28.470Z,5,GR86-025-47,0.3,0.14,-0.145,99.99,4.0,6376.0,0.0,0.0,
2025-08-15T02:01:28.514Z,5,GR86-025-47,0.1,0.145,-0.153,100.01,4.0,,0.0,0.0,162.25
2025-08-15T02:01:28.557Z,5,GR86-025-47,0.0,0.117,-0.153,100.02,4.0,,0.0,0.0,
2025-08-15T02:01:28.600Z,5,GR86-025-47,-0.2,0.145,-0.156,99.99,4.0,,0.0,0.0,
2025-08-15T02:01:28.643Z,5,GR86-025-47,-0.9,0.144,-0.124,100.01,4.0,,0.0,0.0,
2025-08-15T02:01:28.686Z,5,GR86-025-47,-1.6,0.137,-0.148,100.01,4.0,6431.0,0.0,0.0,
2025-08-15T02:01:28.729Z,5,GR86-025-47,-2.6,0.125,-0.166,99.98,4.0,,0.0,0.0,163.19
2025-08-15T02:01:28.773Z,5,GR86-025-47,-3.4000000000000004,0.129,-0.198,100.0,4.0,,0.0,0.0,
2025-08-15T02:01:28.816Z,5,GR86-025-47,-3.5,0.141,-0.221,100.01,4.0,,0.0,0.0,
2025-08-15T02:01:28.860Z,5,GR86-025-47,-3.5,0.139,-0.239,100.0,4.0,,0.0,0.0,
2025-08-15T02:01:28.903Z,5,GR86-025-47,-2.8000000000000003,0.133,-0.236,100.0,4.0,6451.0,0.0,0.0,
2025-08-15T02:01:28.946Z,5,GR86-025-47,-1.4,0.13,-0.245,99.98,4.0,,0.0,0.0,164.22
2025-08-15T02:01:28.989Z,5,GR86-025-47,-1.2000000000000002,0.142,-0.237,100.01,4.0,,0.0,0.0,
2025-08-15T02:01:29.032Z,5,GR86-025-47,-1.2000000000000002,0.125,-0.225,100.0,4.0,,0.0,0.0,
2025-08-15T02:01:29.075Z,5,GR86-025-47,-1.4,0.153,-0.21,99.99,4.0,,0.0,0.0,
2025-08-15T02:01:29.118Z,5,GR86-025-47,-1.4,0.143,-0.184,100.0,4.0,6504.0,0.0,0.0,
2025-08-15T02:01:29.164Z,5,GR86-025-47,-1.6,0.125,-0.152,99.99,4.0,,0.0,0.0,165.23
2025-08-15T02:01:29.207Z,5,GR86-025-47,-1.8,0.123,-0.152,100.01,4.0,,0.0,0.0,
2025-08-15T02:01:29.250Z,5,GR86-025-47,-1.9,0.133,-0.155,100.01,4.0,,0.0,0.0,
2025-08-15T02:01:29.293Z,5,GR86-025-47,-1.9,0.157,-0.158,100.0,4.0,,0.0,0.0,
2025-08-15T02:01:29.336Z,5,GR86-025-47,-1.9,0.133,-0.164,99.97,4.0,6536.0,0.0,0.0,
2025-08-15T02:01:29.379Z,5,GR86-025-47,-1.1,0.139,-0.153,99.98,4.0,,0.0,0.0,166.19
2025-08-15T02:01:29.422Z,5,GR86-025-47,-0.7000000000000001,0.151,-0.135,99.99,4.0,,0.0,0.0,
2025-08-15T02:01:29.466Z,5,GR86-025-47,-0.9,0.142,-0.115,100.0,4.0,,0.0,0.0,
2025-08-15T02:01:29.509Z,5,GR86-025-47,-1.0,0.134,-0.124,100.0,4.0,,0.0,0.0,
2025-08-15T02:01:29.552Z,5,GR86-025-47,-1.1,0.133,-0.109,100.0,4.0,6585.0,0.0,0.0,
2025-08-15T02:01:29.595Z,5,GR86-025-47,-1.8,0.136,-0.134,100.0,4.0,,0.0,0.0,167.16
2025-08-15T02:01:29.638Z,5,GR86-025-47,-2.5,0.146,-0.14,100.01,4.0,,0.0,0.0,
2025-08-15T02:01:29.682Z,5,GR86-025-47,-2.8000000000000003,0.139,-0.161,100.01,4.0,,0.0,0.0,
2025-08-15T02:01:29.725Z,5,GR86-025-47,-2.8000000000000003,0.142,-0.174,100.01,4.0,,0.0,0.0,
2025-08-15T02:01:29.768Z,5,GR86-025-47,-2.9000000000000004,0.122,-0.196,100.0,4.0,6612.0,0.0,0.0,
2025-08-15T02:01:29.810Z,5,GR86-025-47,-2.9000000000000004,0.141,-0.212,100.01,4.0,,0.0,0.0,168.3
2025-08-15T02:01:29.854Z,5,GR86-025-47,-2.9000000000000004,0.142,-0.232,99.98,4.0,,0.0,0.0,
2025-08-15T02:01:29.897Z,5,GR86-025-47,-3.0,0.146,-0.227,99.99,4.0,,0.0,0.0,
2025-08-15T02:01:29.940Z,5,GR86-025-47,-2.9000000000000004,0.137,-0.198,100.01,4.0,,0.0,0.0,
2025-08-15T02:01:29.983Z,5,GR86-025-47,-1.5,0.127,-0.18,99.97,4.0,6669.0,0.0,0.0,
2025-08-15T02:01:30.026Z,5,GR86-025-47,-0.8,0.116,-0.164,99.99,4.0,,0.0,0.0,169.28
2025-08-15T02:01:30.069Z,5,GR86-025-47,-0.8,0.141,-0.147,100.0,4.0,,0.0,0.0,
2025-08-15T02:01:30.112Z,5,GR86-025-47,-1.0,0.134,-0.137,100.0,4.0,,0.0,0.0,
2025-08-15T02:01:30.155Z,5,GR86-025-47,-1.2000000000000002,0.136,-0.128,99.99,4.0,,0.0,0.0,
2025-08-15T02:01:30.199Z,5,GR86-025-47,-1.3,0.132,-0.137,99.98,4.0,6708.0,0.0,0.0,
2025-08-15T02:01:30.244Z,5,GR86-025-47,-1.5,0.114,-0.141,100.0,4.0,,0.0,0.0,170.4
2025-08-15T02:01:30.287Z,5,GR86-025-47,-1.6,0.109,-0.158,99.98,4.0,,0.0,0.0,
2025-08-15T02:01:30.330Z,5,GR86-025-47,-1.6,0.111,-0.173,99.99,4.0,,0.0,0.0,
2025-08-15T02:01:30.374Z,5,GR86-025-47,-1.6,0.11,-0.188,99.99,4.0,,0.0,0.0,
2025-08-15T02:01:30.417Z,5,GR86-025-47,-1.6,0.121,-0.212,100.01,4.0,6740.0,0.0,0.0,
2025-08-15T02:01:30.460Z,5,GR86-025-47,-1.6,0.124,-0.192,99.99,4.0,,0.0,0.0,171.41
2025-08-15T02:01:30.503Z,5,GR86-025-47,-1.7000000000000002,0.106,-0.164,100.01,4.0,,0.0,0.0,
2025-08-15T02:01:30.546Z,5,GR86-025-47,-1.6,0.12,-0.142,100.02,4.0,,0.0,0.0,
2025-08-15T02:01:30.589Z,5,GR86-025-47,-1.1,0.1,-0.125,99.98,4.0,,0.0,0.0,
2025-08-15T02:01:30.633Z,5,GR86-025-47,-0.6000000000000001,0.128,-0.112,100.0,4.0,6782.0,0.0,0.0,
2025-08-15T02:01:30.677Z,5,GR86-025-47,-0.5,0.119,-0.108,99.99,4.0,,0.0,0.0,173.62
2025-08-15T02:01:30.720Z,5,GR86-025-47,-0.7000000000000001,0.121,-0.064,100.0,4.0,,0.0,0.0,
2025-08-15T02:01:30.763Z,5,GR86-025-47,-0.9,0.154,-0.059,99.99,4.0,,0.0,0.0,
2025-08-15T02:01:30.807Z,5,GR86-025-47,-1.0,0.14,-0.055,99.99,4.0,,0.0,0.0,
2025-08-15T02:01:30.850Z,5,GR86-025-47,-1.1,0.148,-0.075,100.01,4.0,6811.0,0.0,0.0,
2025-08-15T02:01:30.893Z,5,GR86-025-47,-1.2000000000000002,0.131,-0.071,100.01,4.0,,0.0,0.0,174.54
2025-08-15T02:01:30.936Z,5,GR86-025-47,-1.2000000000000002,0.143,-0.097,100.0,4.0,,0.0,0.0,
2025-08-15T02:01:30.979Z,5,GR86-025-47,-1.2000000000000002,0.136,-0.106,100.0,4.0,,0.0,0.0,
2025-08-15T02:01:31.022Z,5,GR86-025-47,-1.2000000000000002,0.127,-0.125,100.0,4.0,,0.0,0.0,
2025-08-15T02:01:31.108Z,5,GR86-025-47,-1.2000000000000002,0.145,-0.12,100.0,4.0,6890.0,0.0,0.0,175.49
2025-08-15T02:01:31.151Z,5,GR86-025-47,-1.1,0.155,-0.115,100.0,4.0,,0.0,0.0,
2025-08-15T02:01:31.194Z,5,GR86-025-47,-0.8,0.142,-0.126,99.99,4.0,,0.0,0.0,
2025-08-15T02:01:31.237Z,5,GR86-025-47,-0.6000000000000001,0.146,-0.108,100.0,4.0,,0.0,0.0,
2025-08-15T02:01:31.280Z,5,GR86-025-47,-0.7000000000000001,0.141,-0.104,99.99,4.0,6931.0,0.0,0.0,
2025-08-15T02:01:31.367Z,5,GR86-025-47,-1.1,0.106,-0.09,99.99,4.0,,0.0,0.0,176.5
2025-08-15T02:01:31.410Z,5,GR86-025-47,-1.2000000000000002,0.104,-0.094,100.01,4.0,,0.0,0.0,
2025-08-15T02:01:31.453Z,5,GR86-025-47,-1.4,0.099,-0.113,100.01,4.0,,0.0,0.0,
2025-08-15T02:01:31.496Z,5,GR86-025-47,-1.4,0.114,-0.117,99.99,4.0,6970.0,0.0,0.0,
2025-08-15T02:01:31.539Z,5,GR86-025-47,-1.5,0.094,-0.111,100.0,4.0,,0.0,0.0,177.62
2025-08-15T02:01:31.582Z,5,GR86-025-47,-1.5,0.149,-0.146,100.0,4.0,,0.0,0.0,
2025-08-15T02:01:31.625Z,5,GR86-025-47,-1.5,0.147,-0.153,100.0,4.0,,0.0,0.0,
2025-08-15T02:01:31.668Z,5,GR86-025-47,-1.3,0.153,-0.156,100.01,4.0,,0.0,0.0,
2025-08-15T02:01:31.711Z,5,GR86-025-47,-1.2000000000000002,0.143,-0.143,100.0,4.0,7019.0,0.0,0.0,
2025-08-15T02:01:31.754Z,5,GR86-025-47,-1.2000000000000002,0.138,-0.142,100.0,4.0,,0.0,0.0,178.67000000000002
2025-08-15T02:01:31.797Z,5,GR86-025-47,-1.2000000000000002,0.143,-0.123,100.0,4.0,,0.0,0.0,
2025-08-15T02:01:31.840Z,5,GR86-025-47,-1.2000000000000002,0.153,-0.123,99.99,4.0,,0.0,0.0,
2025-08-15T02:01:31.883Z,5,GR86-025-47,-1.4,0.113,-0.103,100.0,4.0,,0.0,0.0,
2025-08-15T02:01:31.926Z,5,GR86-025-47,-1.5,0.098,-0.107,100.0,4.0,7050.0,0.0,0.0,
2025-08-15T02:01:31.969Z,5,GR86-025-47,-1.5,0.112,-0.092,99.99,4.0,,0.0,0.0,179.6
2025-08-15T02:01:32.012Z,5,GR86-025-47,-1.5,0.109,-0.078,100.0,4.0,,0.0,0.0,
2025-08-15T02:01:32.055Z,5,GR86-025-47,-1.5,0.119,-0.089,100.0,4.0,,0.0,0.0,
2025-08-15T02:01:32.098Z,5,GR86-025-47,-1.5,0.109,-0.069,100.0,4.0,,0.0,0.0,
2025-08-15T02:01:32.141Z,5,GR86-025-47,-1.7000000000000002,0.079,-0.105,100.0,4.0,7101.0,0.0,0.0,
2025-08-15T02:01:32.184Z,5,GR86-025-47,-1.8,0.125,-0.106,100.0,4.0,,0.0,0.0,180.58
2025-08-15T02:01:32.227Z,5,GR86-025-47,-1.9,0.16,-0.112,100.0,4.0,,0.0,0.0,
2025-08-15T02:01:32.270Z,5,GR86-025-47,-2.0,0.132,-0.152,100.0,4.0,,0.0,0.0,
2025-08-15T02:01:32.313Z,5,GR86-025-47,-2.1,0.119,-0.183,100.0,4.0,,0.0,0.0,
2025-08-15T02:01:32.357Z,5,GR86-025-47,-2.1,0.13,-0.175,99.99,4.0,7123.0,0.0,0.0,
2025-08-15T02:01:32.400Z,5,GR86-025-47,-2.2,0.125,-0.155,100.0,4.0,,0.0,0.0,181.62
2025-08-15T02:01:32.443Z,5,GR86-025-47,-2.0,0.096,-0.134,99.98,4.0,,0.0,0.0,
2025-08-15T02:01:32.486Z,5,GR86-025-47,-1.8,0.091,-0.165,99.99,4.0,,0.0,0.0,
2025-08-15T02:01:32.529Z,5,GR86-025-47,-1.4,0.091,-0.174,100.01,4.0,,0.0,0.0,
2025-08-15T02:01:32.573Z,5,GR86-025-47,-1.0,0.087,-0.152,100.0,4.0,7168.0,0.0,0.0,
2025-08-15T02:01:32.616Z,5,GR86-025-47,-1.0,0.09,-0.141,100.01,4.0,,0.0,0.0,182.55
2025-08-15T02:01:32.659Z,5,GR86-025-47,-1.1,0.086,-0.112,100.0,4.0,,0.0,0.0,
2025-08-15T02:01:32.702Z,5,GR86-025-47,-1.4,0.119,-0.099,100.0,4.0,,0.0,0.0,
2025-08-15T02:01:32.745Z,5,GR86-025-47,-1.4,0.037,-0.108,99.99,4.0,,0.0,0.0,
2025-08-15T02:01:32.788Z,5,GR86-025-47,-1.4,-0.132,-0.066,100.0,5.0,7202.0,0.0,0.0,
2025-08-15T02:01:32.831Z,5,GR86-025-47,-0.7000000000000001,0.282,-0.084,100.0,5.0,,0.0,0.0,183.52
2025-08-15T02:01:32.874Z,5,GR86-025-47,-0.2,0.311,-0.145,100.01,5.0,,0.0,0.0,
2025-08-15T02:01:32.917Z,5,GR86-025-47,-0.4,-0.037,-0.079,100.0,5.0,,0.0,0.0,
2025-08-15T02:01:32.960Z,5,GR86-025-47,-0.6000000000000001,-0.001,-0.056,100.01,5.0,,0.0,0.0,
2025-08-15T02:01:33.003Z,5,GR86-025-47,-0.5,0.208,-0.078,100.01,5.0,7238.0,0.0,0.0,
2025-08-15T02:01:33.047Z,5,GR86-025-47,-0.5,0.096,-0.008,100.0,5.0,,0.0,0.0,184.43
2025-08-15T02:01:33.090Z,5,GR86-025-47,-0.5,0.039,-0.056,100.0,5.0,,0.0,0.0,
2025-08-15T02:01:33.133Z,5,GR86-025-47,-0.4,0.126,-0.046,99.98,5.0,,0.0,0.0,
2025-08-15T02:01:33.176Z,5,GR86-025-47,-0.3,0.133,-0.023,100.01,5.0,,0.0,0.0,
2025-08-15T02:01:33.219Z,5,GR86-025-47,-0.3,0.101,-0.026,100.0,5.0,6285.0,0.0,0.0,
2025-08-15T02:01:33.264Z,5,GR86-025-47,-0.1,0.07,-0.033,99.99,5.0,,0.0,0.0,185.92
2025-08-15T02:01:33.307Z,5,GR86-025-47,0.5,0.093,-0.025,100.01,5.0,,0.0,0.0,
2025-08-15T02:01:33.350Z,5,GR86-025-47,0.6000000000000001,0.086,-0.029,100.01,5.0,,0.0,0.0,
2025-08-15T02:01:33.394Z,5,GR86-025-47,0.4,0.078,-0.033,100.01,5.0,,0.0,0.0,
2025-08-15T02:01:33.437Z,5,GR86-025-47,0.3,0.083,0.007,99.99,5.0,6261.0,0.0,0.0,
2025-08-15T02:01:33.480Z,5,GR86-025-47,0.2,0.094,-0.031,100.0,5.0,,0.0,0.0,186.75
2025-08-15T02:01:33.524Z,5,GR86-025-47,0.2,0.107,-0.018,100.0,5.0,,0.0,0.0,
2025-08-15T02:01:33.567Z,5,GR86-025-47,0.1,0.092,-0.001,100.01,5.0,,0.0,0.0,
2025-08-15T02:01:33.610Z,5,GR86-025-47,0.0,0.095,-0.042,100.0,5.0,,0.0,0.0,
2025-08-15T02:01:33.653Z,5,GR86-025-47,-0.1,0.101,-0.045,100.01,5.0,6355.0,0.0,0.0,
2025-08-15T02:01:33.696Z,5,GR86-025-47,-0.2,0.083,-0.062,100.0,5.0,,0.0,0.0,187.49
2025-08-15T02:01:33.739Z,5,GR86-025-47,-0.3,0.083,-0.08,99.99,5.0,,0.0,0.0,
2025-08-15T02:01:33.782Z,5,GR86-025-47,-1.5,0.128,-0.057,100.0,5.0,,0.0,0.0,
2025-08-15T02:01:33.826Z,5,GR86-025-47,-2.4000000000000004,0.098,-0.1,100.0,5.0,,0.0,0.0,
2025-08-15T02:01:33.869Z,5,GR86-025-47,-2.6,0.108,-0.124,100.0,5.0,6400.0,0.0,0.0,
2025-08-15T02:01:33.912Z,5,GR86-025-47,-2.4000000000000004,0.094,-0.134,100.0,5.0,,0.0,0.0,188.2
2025-08-15T02:01:33.955Z,5,GR86-025-47,-1.4,0.113,-0.139,100.0,5.0,,0.0,0.0,
2025-08-15T02:01:33.998Z,5,GR86-025-47,-0.9,0.087,-0.118,100.0,5.0,,0.0,0.0,
2025-08-15T02:01:34.042Z,5,GR86-025-47,-0.8,0.085,-0.124,100.0,5.0,,0.0,0.0,
2025-08-15T02:01:34.085Z,5,GR86-025-47,-0.9,0.073,-0.124,99.99,5.0,6416.0,0.0,0.0,
2025-08-15T02:01:34.128Z,5,GR86-025-47,-1.0,0.117,-0.143,100.0,5.0,,0.0,0.0,189.08
2025-08-15T02:01:34.171Z,5,GR86-025-47,-1.1,0.083,-0.138,100.0,5.0,,0.0,0.0,
2025-08-15T02:01:34.214Z,5,GR86-025-47,-1.2000000000000002,0.1,-0.114,100.0,5.0,,0.0,0.0,
2025-08-15T02:01:34.257Z,5,GR86-025-47,-1.2000000000000002,0.093,-0.118,100.0,5.0,,0.0,0.0,
2025-08-15T02:01:34.300Z,5,GR86-025-47,-1.1,0.101,-0.102,99.99,5.0,6465.0,0.0,0.0,
2025-08-15T02:01:34.343Z,5,GR86-025-47,-0.2,0.099,-0.099,100.01,5.0,,0.0,0.0,189.7
2025-08-15T02:01:34.387Z,5,GR86-025-47,0.3,0.089,-0.072,99.99,5.0,,0.0,0.0,
2025-08-15T02:01:34.430Z,5,GR86-025-47,0.7000000000000001,0.088,-0.083,100.01,5.0,,0.0,0.0,
2025-08-15T02:01:34.473Z,5,GR86-025-47,1.0,0.098,-0.058,100.01,5.0,,0.0,0.0,
2025-08-15T02:01:34.516Z,5,GR86-025-47,1.0,0.097,-0.042,99.99,5.0,6484.0,0.0,0.0,
2025-08-15T02:01:34.560Z,5,GR86-025-47,0.7000000000000001,0.09,-0.028,100.0,5.0,,0.0,0.0,190.48
2025-08-15T02:01:34.603Z,5,GR86-025-47,0.4,0.09,-0.038,99.99,5.0,,0.0,0.0,
2025-08-15T02:01:34.646Z,5,GR86-025-47,0.4,0.086,-0.024,100.01,5.0,,0.0,0.0,
2025-08-15T02:01:34.689Z,5,GR86-025-47,0.3,0.086,-0.012,100.0,5.0,,0.0,0.0,
2025-08-15T02:01:34.733Z,5,GR86-025-47,0.4,0.097,-0.022,99.99,5.0,6503.0,0.0,0.0,
2025-08-15T02:01:34.776Z,5,GR86-025-47,1.2000000000000002,0.081,-0.016,100.0,5.0,,0.0,0.0,191.23
2025-08-15T02:01:34.819Z,5,GR86-025-47,1.3,0.101,0.0,100.0,5.0,,0.0,0.0,
2025-08-15T02:01:34.864Z,5,GR86-025-47,1.2000000000000002,0.096,-0.006,100.0,5.0,,0.0,0.0,
2025-08-15T02:01:34.907Z,5,GR86-025-47,1.2000000000000002,0.09,-0.007,99.99,5.0,,0.0,0.0,
2025-08-15T02:01:34.950Z,5,GR86-025-47,1.3,0.092,-0.011,99.99,5.0,6529.0,0.0,0.0,
2025-08-15T02:01:34.993Z,5,GR86-025-47,1.8,0.089,0.027,100.01,5.0,,0.0,0.0,192.04
2025-08-15T02:01:35.036Z,5,GR86-025-47,2.0,0.084,0.043,100.01,5.0,,0.0,0.0,
2025-08-15T02:01:35.079Z,5,GR86-025-47,2.0,0.097,0.05,100.01,5.0,,0.0,0.0,
2025-08-15T02:01:35.122Z,5,GR86-025-47,1.4,0.108,0.053,100.0,5.0,,0.0,0.0,
2025-08-15T02:01:35.166Z,5,GR86-025-47,1.3,0.097,0.048,100.0,5.0,6555.0,0.0,0.0,
2025-08-15T02:01:35.209Z,5,GR86-025-47,1.0,0.094,0.037,100.0,5.0,,0.0,0.0,192.8
2025-08-15T02:01:35.252Z,5,GR86-025-47,0.9,0.097,0.035,99.99,5.0,,0.0,0.0,
2025-08-15T02:01:35.295Z,5,GR86-025-47,0.8,0.095,0.019,100.01,5.0,,0.0,0.0,
2025-08-15T02:01:35.338Z,5,GR86-025-47,1.4,0.096,0.013,100.01,5.0,,0.0,0.0,
2025-08-15T02:01:35.381Z,5,GR86-025-47,1.6,0.103,0.018,100.0,5.0,6585.0,0.0,0.0,
2025-08-15T02:01:35.424Z,5,GR86-025-47,1.4,0.097,0.012,100.0,5.0,,0.0,0.0,193.54
2025-08-15T02:01:35.467Z,5,GR86-025-47,1.3,0.087,0.006,100.0,5.0,,0.0,0.0,
2025-08-15T02:01:35.510Z,5,GR86-025-47,0.9,0.12,0.009,100.0,5.0,,0.0,0.0,
2025-08-15T02:01:35.553Z,5,GR86-025-47,0.7000000000000001,0.091,0.012,99.99,5.0,,0.0,0.0,
2025-08-15T02:01:35.596Z,5,GR86-025-47,0.4,0.112,0.009,100.0,5.0,6609.0,0.0,0.0,
2025-08-15T02:01:35.639Z,5,GR86-025-47,0.1,0.107,-0.008,100.0,5.0,,0.0,0.0,194.27
2025-08-15T02:01:35.682Z,5,GR86-025-47,0.0,0.097,0.017,100.0,5.0,,0.0,0.0,
2025-08-15T02:01:35.725Z,5,GR86-025-47,-0.2,0.116,0.001,99.99,5.0,,0.0,0.0,
2025-08-15T02:01:35.768Z,5,GR86-025-47,-0.4,0.092,-0.036,99.99,5.0,,0.0,0.0,
2025-08-15T02:01:35.812Z,5,GR86-025-47,-0.6000000000000001,0.106,-0.039,99.99,5.0,6628.0,0.0,0.0,
2025-08-15T02:01:35.855Z,5,GR86-025-47,-0.7000000000000001,0.089,-0.047,100.0,5.0,,0.0,0.0,195.05
2025-08-15T02:01:35.899Z,5,GR86-025-47,-0.9,0.11,-0.073,99.99,5.0,,0.0,0.0,
2025-08-15T02:01:35.944Z,5,GR86-025-47,-0.9,0.12,-0.07,100.0,5.0,,0.0,0.0,
2025-08-15T02:01:35.987Z,5,GR86-025-47,-0.9,0.115,-0.094,99.99,5.0,,0.0,0.0,
2025-08-15T02:01:36.030Z,5,GR86-025-47,-1.1,0.089,-0.062,100.0,5.0,6663.0,0.0,0.0,
2025-08-15T02:01:36.074Z,5,GR86-025-47,-1.2000000000000002,0.118,-0.113,100.0,5.0,,0.0,0.0,196.62
2025-08-15T02:01:36.117Z,5,GR86-025-47,-1.4,0.104,-0.105,99.99,5.0,,0.0,0.0,
2025-08-15T02:01:36.160Z,5,GR86-025-47,-1.4,0.119,-0.106,100.0,5.0,,0.0,0.0,
2025-08-15T02:01:36.203Z,5,GR86-025-47,-0.7000000000000001,0.126,-0.091,100.01,5.0,,0.0,0.0,
2025-08-15T02:01:36.246Z,5,GR86-025-47,-0.2,0.124,-0.091,99.99,5.0,6691.0,0.0,0.0,
2025-08-15T02:01:36.289Z,5,GR86-025-47,-0.1,0.116,-0.103,100.01,5.0,,0.0,0.0,197.46
2025-08-15T02:01:36.332Z,5,GR86-025-47,-0.2,0.121,-0.091,100.0,5.0,,0.0,0.0,
2025-08-15T02:01:36.375Z,5,GR86-025-47,-0.4,0.134,-0.075,100.01,5.0,,0.0,0.0,
2025-08-15T02:01:36.418Z,5,GR86-025-47,-0.5,0.097,-0.069,100.0,5.0,,0.0,0.0,
2025-08-15T02:01:36.460Z,5,GR86-025-47,-0.7000000000000001,0.103,-0.06,100.01,5.0,6703.0,0.0,0.0,
2025-08-15T02:01:36.504Z,5,GR86-025-47,-0.9,0.12,-0.076,99.99,5.0,,0.0,0.0,198.28
2025-08-15T02:01:36.547Z,5,GR86-025-47,-1.1,0.128,-0.096,100.0,5.0,,0.0,0.0,
2025-08-15T02:01:36.590Z,5,GR86-025-47,-1.2000000000000002,0.106,-0.082,100.0,5.0,,0.0,0.0,
2025-08-15T02:01:36.633Z,5,GR86-025-47,-1.4,0.116,-0.109,99.99,5.0,,0.0,0.0,
2025-08-15T02:01:36.676Z,5,GR86-025-47,-1.5,0.097,-0.095,99.99,5.0,6766.0,0.0,0.0,
2025-08-15T02:01:36.720Z,5,GR86-025-47,-1.0,0.085,-0.113,100.0,5.0,,0.0,0.0,199.15
2025-08-15T02:01:36.763Z,5,GR86-025-47,1.6,0.123,-0.118,99.99,5.0,,0.0,0.0,
2025-08-15T02:01:36.807Z,5,GR86-025-47,2.5,0.118,-0.075,99.99,5.0,,0.0,0.0,
2025-08-15T02:01:36.850Z,5,GR86-025-47,2.7,0.1,-0.024,99.99,5.0,,0.0,0.0,
2025-08-15T02:01:36.893Z,5,GR86-025-47,2.8000000000000003,0.106,-0.003,100.0,5.0,6799.0,0.0,0.0,
2025-08-15T02:01:36.936Z,5,GR86-025-47,2.7,0.105,0.023,100.0,5.0,,0.0,0.0,199.98
2025-08-15T02:01:36.979Z,5,GR86-025-47,2.0,0.121,0.078,100.0,5.0,,0.0,0.0,
2025-08-15T02:01:37.022Z,5,GR86-025-47,1.5,0.086,0.096,100.0,5.0,,0.0,0.0,
2025-08-15T02:01:37.065Z,5,GR86-025-47,1.5,0.105,0.106,100.01,5.0,,0.0,0.0,
2025-08-15T02:01:37.108Z,5,GR86-025-47,1.8,0.103,0.127,100.0,5.0,6836.0,0.0,0.0,
2025-08-15T02:01:37.150Z,5,GR86-025-47,4.5,0.12,0.134,100.0,5.0,,0.0,0.0,200.9
2025-08-15T02:01:37.194Z,5,GR86-025-47,8.0,0.123,0.173,99.99,5.0,,0.0,0.0,
2025-08-15T02:01:37.237Z,5,GR86-025-47,10.6,0.144,0.194,100.0,5.0,,0.0,0.0,
2025-08-15T02:01:37.280Z,5,GR86-025-47,10.7,0.127,0.23,100.0,5.0,,0.0,0.0,
2025-08-15T02:01:37.323Z,5,GR86-025-47,9.2,0.12,0.326,100.0,5.0,6861.0,0.0,0.0,
2025-08-15T02:01:37.367Z,5,GR86-025-47,8.200000000000001,0.138,0.364,100.0,5.0,,0.0,0.0,201.83
2025-08-15T02:01:37.410Z,5,GR86-025-47,7.4,0.133,0.374,100.0,5.0,,0.0,0.0,
2025-08-15T02:01:37.453Z,5,GR86-025-47,6.800000000000001,0.155,0.374,100.0,5.0,,0.0,0.0,
2025-08-15T02:01:37.496Z,5,GR86-025-47,6.300000000000001,0.102,0.355,99.99,5.0,,0.0,0.0,
2025-08-15T02:01:37.539Z,5,GR86-025-47,5.6000000000000005,0.083,0.333,100.01,5.0,6887.0,0.0,0.0,
2025-08-15T02:01:37.582Z,5,GR86-025-47,0.3,0.139,0.261,99.99,5.0,,0.0,0.0,202.68
2025-08-15T02:01:37.625Z,5,GR86-025-47,-0.6000000000000001,0.115,0.16,100.01,5.0,,0.0,0.0,
2025-08-15T02:01:37.669Z,5,GR86-025-47,-0.9,0.112,0.102,100.0,5.0,,0.0,0.0,
2025-08-15T02:01:37.712Z,5,GR86-025-47,-0.7000000000000001,0.093,0.037,99.98,5.0,,0.0,0.0,
2025-08-15T02:01:37.755Z,5,GR86-025-47,-0.6000000000000001,0.077,-0.006,100.01,5.0,6922.0,0.0,0.0,
2025-08-15T02:01:37.798Z,5,GR86-025-47,-0.4,0.106,-0.045,100.0,5.0,,0.0,0.0,203.46
2025-08-15T02:01:37.842Z,5,GR86-025-47,1.6,0.101,-0.095,100.01,5.0,,0.0,0.0,
2025-08-15T02:01:37.885Z,5,GR86-025-47,2.3000000000000003,0.073,-0.051,100.0,5.0,,0.0,0.0,
2025-08-15T02:01:37.928Z,5,GR86-025-47,2.4000000000000004,0.122,-0.076,99.99,5.0,,0.0,0.0,
2025-08-15T02:01:37.972Z,5,GR86-025-47,1.9,0.105,-0.017,100.01,5.0,6951.0,0.0,0.0,
2025-08-15T02:01:38.015Z,5,GR86-025-47,1.6,0.136,-0.007,99.98,5.0,,0.0,0.0,204.26
2025-08-15T02:01:38.058Z,5,GR86-025-47,1.3,0.119,0.011,99.99,5.0,,0.0,0.0,
2025-08-15T02:01:38.101Z,5,GR86-025-47,0.4,0.122,0.009,100.0,5.0,,0.0,0.0,
2025-08-15T02:01:38.144Z,5,GR86-025-47,-2.3000000000000003,0.132,-0.028,100.0,5.0,,0.0,0.0,
2025-08-15T02:01:38.187Z,5,GR86-025-47,-2.7,0.122,-0.059,100.0,5.0,6985.0,0.0,0.0,
2025-08-15T02:01:38.230Z,5,GR86-025-47,-2.8000000000000003,0.12,-0.089,100.0,5.0,,0.0,0.0,204.98
2025-08-15T02:01:38.273Z,5,GR86-025-47,-2.9000000000000004,0.101,-0.122,99.99,5.0,,0.0,0.0,
2025-08-15T02:01:38.316Z,5,GR86-025-47,-1.0,0.067,-0.129,100.01,5.0,,0.0,0.0,
2025-08-15T02:01:38.359Z,5,GR86-025-47,1.5,0.085,-0.125,100.0,5.0,,0.0,0.0,
2025-08-15T02:01:38.402Z,5,GR86-025-47,4.0,0.108,-0.092,100.0,5.0,7002.0,0.0,0.0,
2025-08-15T02:01:38.445Z,5,GR86-025-47,4.2,0.081,-0.083,100.0,5.0,,0.0,0.0,205.97
2025-08-15T02:01:38.488Z,5,GR86-025-47,4.2,0.072,-0.066,100.01,5.0,,0.0,0.0,
2025-08-15T02:01:38.531Z,5,GR86-025-47,4.5,0.088,0.011,99.99,5.0,,0.0,0.0,
2025-08-15T02:01:38.574Z,5,GR86-025-47,5.0,0.128,0.072,100.0,5.0,,0.0,0.0,
2025-08-15T02:01:38.617Z,5,GR86-025-47,5.2,0.12,0.159,100.0,5.0,7027.0,0.0,0.0,
2025-08-15T02:01:38.660Z,5,GR86-025-47,5.2,0.1,0.173,99.99,5.0,,0.0,0.0,206.9
2025-08-15T02:01:38.703Z,5,GR86-025-47,5.800000000000001,0.129,0.232,100.01,5.0,,0.0,0.0,
2025-08-15T02:01:38.747Z,5,GR86-025-47,6.1000000000000005,0.137,0.225,99.99,5.0,,0.0,0.0,
2025-08-15T02:01:38.790Z,5,GR86-025-47,6.4,0.085,0.242,100.0,5.0,,0.0,0.0,
2025-08-15T02:01:38.833Z,5,GR86-025-47,7.1000000000000005,0.101,0.25,99.97,5.0,7071.0,0.0,0.0,
2025-08-15T02:01:38.876Z,5,GR86-025-47,8.200000000000001,0.09,0.296,100.01,5.0,,0.0,0.0,208.66
2025-08-15T02:01:38.919Z,5,GR86-025-47,8.8,0.078,0.323,99.98,5.0,,0.0,0.0,
2025-08-15T02:01:38.963Z,5,GR86-025-47,8.8,0.088,0.318,99.99,5.0,,0.0,0.0,
2025-08-15T02:01:39.007Z,5,GR86-025-47,7.9,0.099,0.396,99.99,5.0,,0.0,0.0,
2025-08-15T02:01:39.050Z,5,GR86-025-47,7.1000000000000005,0.103,0.359,100.01,5.0,7103.0,0.0,0.0,
2025-08-15T02:01:39.094Z,5,GR86-025-47,6.4,0.115,0.361,100.0,5.0,,0.0,0.0,209.49
2025-08-15T02:01:39.137Z,5,GR86-025-47,5.9,0.146,0.332,100.01,5.0,,0.0,0.0,
2025-08-15T02:01:39.180Z,5,GR86-025-47,6.0,0.104,0.312,99.99,5.0,,0.0,0.0,
2025-08-15T02:01:39.224Z,5,GR86-025-47,6.6000000000000005,0.126,0.277,100.0,5.0,,0.0,0.0,
2025-08-15T02:01:39.267Z,5,GR86-025-47,6.800000000000001,0.136,0.264,100.0,5.0,7157.0,0.0,0.0,
2025-08-15T02:01:39.310Z,5,GR86-025-47,6.9,0.109,0.238,100.0,5.0,,0.0,0.0,210.32
2025-08-15T02:01:39.353Z,5,GR86-025-47,7.1000000000000005,0.073,0.22,99.98,5.0,,0.0,0.0,
2025-08-15T02:01:39.396Z,5,GR86-025-47,7.4,0.069,0.249,100.0,5.0,,0.0,0.0,
2025-08-15T02:01:39.439Z,5,GR86-025-47,7.5,0.118,0.252,100.0,5.0,,0.0,0.0,
2025-08-15T02:01:39.482Z,5,GR86-025-47,6.800000000000001,0.104,0.3,100.0,5.0,7186.0,0.0,0.0,
2025-08-15T02:01:39.526Z,5,GR86-025-47,5.800000000000001,0.088,0.317,100.0,5.0,,0.0,0.0,211.09
2025-08-15T02:01:39.569Z,5,GR86-025-47,4.9,0.132,0.291,100.0,5.0,,0.0,0.0,
2025-08-15T02:01:39.612Z,5,GR86-025-47,4.3,0.106,0.294,100.0,5.0,,0.0,0.0,
2025-08-15T02:01:39.655Z,5,GR86-025-47,5.5,0.131,0.264,100.01,5.0,,0.0,0.0,
2025-08-15T02:01:39.699Z,5,GR86-025-47,8.0,0.084,0.272,100.0,5.0,7229.0,0.0,0.0,
2025-08-15T02:01:39.742Z,5,GR86-025-47,9.4,0.095,0.249,100.0,5.0,,0.0,0.0,211.67
2025-08-15T02:01:39.785Z,5,GR86-025-47,8.9,0.098,0.208,100.0,5.0,,0.0,0.0,
2025-08-15T02:01:39.828Z,5,GR86-025-47,8.0,0.089,0.222,100.0,5.0,,0.0,0.0,
2025-08-15T02:01:39.870Z,5,GR86-025-47,7.2,0.092,0.19,100.01,5.0,,0.0,0.0,
2025-08-15T02:01:39.914Z,5,GR86-025-47,6.300000000000001,0.1,0.26,100.0,5.0,7242.0,0.0,0.0,
2025-08-15T02:01:39.957Z,5,GR86-025-47,6.5,0.109,0.273,99.99,5.0,,0.0,0.0,212.65
2025-08-15T02:01:40.000Z,5,GR86-025-47,6.2,0.104,0.316,100.01,5.0,,0.0,0.0,
2025-08-15T02:01:40.043Z,5,GR86-025-47,5.0,0.104,0.271,99.99,5.0,,3.845,4.03,
2025-08-15T02:01:40.086Z,5,GR86-025-47,4.2,0.068,0.257,99.99,5.0,,0.0,0.0,
2025-08-15T02:01:40.129Z,5,GR86-025-47,3.5,0.069,0.252,100.0,5.0,7250.0,0.0,0.0,
2025-08-15T02:01:40.172Z,5,GR86-025-47,3.6,0.077,0.188,99.99,5.0,,0.0,0.0,213.58
2025-08-15T02:01:40.215Z,5,GR86-025-47,4.9,0.057,0.19,99.99,5.0,,5.585,5.705,
2025-08-15T02:01:40.258Z,5,GR86-025-47,5.300000000000001,0.066,0.155,100.01,5.0,,3.065,3.13,
2025-08-15T02:01:40.300Z,5,GR86-025-47,5.4,0.016,0.176,100.0,5.0,,0.0,0.0,
2025-08-15T02:01:40.344Z,5,GR86-025-47,5.300000000000001,-0.005,0.173,99.99,5.0,7285.0,0.0,0.0,
2025-08-15T02:01:40.430Z,5,GR86-025-47,6.5,0.023,0.188,100.0,5.0,,4.93,5.16,214.14
2025-08-15T02:01:40.473Z,5,GR86-025-47,6.5,-0.118,0.185,99.98,5.0,,2.7,3.035,
2025-08-15T02:01:40.516Z,5,GR86-025-47,6.0,-0.013,0.213,100.0,5.0,,0.0,0.0,
2025-08-15T02:01:40.559Z,5,GR86-025-47,5.1000000000000005,0.007,0.202,100.02,5.0,7308.0,0.0,0.0,
2025-08-15T02:01:40.602Z,5,GR86-025-47,3.9,0.03,0.219,100.0,5.0,,0.0,0.0,214.67
2025-08-15T02:01:40.646Z,5,GR86-025-47,4.7,0.032,0.212,99.99,5.0,,0.0,0.0,
2025-08-15T02:01:40.689Z,5,GR86-025-47,6.0,0.025,0.24,100.0,5.0,,0.0,0.0,
2025-08-15T02:01:40.733Z,5,GR86-025-47,6.300000000000001,0.001,0.216,100.01,5.0,,1.89,2.135,
2025-08-15T02:01:40.776Z,5,GR86-025-47,5.9,0.023,0.207,99.98,5.0,7195.0,6.2700000000000005,6.365,
2025-08-15T02:01:40.819Z,5,GR86-025-47,5.800000000000001,-0.048,0.211,70.84,5.0,,13.49,13.52,215.29
2025-08-15T02:01:40.864Z,5,GR86-025-47,7.0,-0.208,0.255,3.98,5.0,,23.775,23.805,
2025-08-15T02:01:40.907Z,5,GR86-025-47,7.5,-0.313,0.255,3.66,5.0,,27.925,28.065,
2025-08-15T02:01:40.950Z,5,GR86-025-47,7.5,-0.5740000000000001,0.311,3.6,5.0,,29.955,30.045,
2025-08-15T02:01:40.993Z,5,GR86-025-47,6.800000000000001,-0.545,0.298,3.45,5.0,7323.0,30.43,30.795,
2025-08-15T02:01:41.036Z,5,GR86-025-47,3.8,-0.74,0.206,3.25,5.0,,31.8,32.17,215.54
2025-08-15T02:01:41.079Z,5,GR86-025-47,-1.2000000000000002,-0.623,0.211,3.03,5.0,,33.315,33.71,
2025-08-15T02:01:41.122Z,5,GR86-025-47,0.8,-0.684,0.065,2.75,5.0,,33.71,34.15,
2025-08-15T02:01:41.166Z,5,GR86-025-47,10.6,-0.6880000000000001,0.103,2.68,5.0,,35.31,35.525,
2025-08-15T02:01:41.209Z,5,GR86-025-47,18.2,-0.714,0.187,2.62,5.0,7311.0,40.745,40.745,
2025-08-15T02:01:41.252Z,5,GR86-025-47,19.200000000000003,-0.775,0.233,2.58,5.0,,49.305,49.075,215.73
2025-08-15T02:01:41.295Z,5,GR86-025-47,17.2,-0.91,0.263,2.59,5.0,,59.18,58.675,
2025-08-15T02:01:41.338Z,5,GR86-025-47,10.8,-1.052,0.223,2.56,5.0,,69.22,69.58500000000001,
2025-08-15T02:01:41.381Z,5,GR86-025-47,4.5,-1.103,0.14,2.5500000000000003,5.0,,76.865,78.175,
2025-08-15T02:01:41.424Z,5,GR86-025-47,1.7000000000000002,-1.1,0.12,2.53,5.0,7094.0,71.11,72.76,
2025-08-15T02:01:41.467Z,5,GR86-025-47,1.5,-0.982,0.129,2.52,5.0,,56.905,58.705,209.09
2025-08-15T02:01:41.510Z,5,GR86-025-47,3.0,-0.975,0.121,2.52,5.0,,38.38,39.845,
2025-08-15T02:01:41.553Z,5,GR86-025-47,6.9,-0.603,0.17,2.52,5.0,,23.805,25.12,
2025-08-15T02:01:41.596Z,5,GR86-025-47,11.6,-0.591,0.237,2.49,5.0,,19.58,20.6,
2025-08-15T02:01:41.639Z,5,GR86-025-47,14.3,-0.5690000000000001,0.25,2.49,5.0,6882.0,19.93,20.785,
2025-08-15T02:01:41.682Z,5,GR86-025-47,13.2,-0.504,0.328,2.49,5.0,,24.645,25.3,200.76
2025-08-15T02:01:41.726Z,5,GR86-025-47,9.7,-0.621,0.352,2.49,5.0,,28.84,29.39,
2025-08-15T02:01:41.769Z,5,GR86-025-47,3.6,-0.7010000000000001,0.283,2.49,5.0,,31.175,31.74,
2025-08-15T02:01:41.812Z,5,GR86-025-47,1.5,-0.6970000000000001,0.22,2.5,5.0,,33.910000000000004,34.565,
2025-08-15T02:01:41.855Z,5,GR86-025-47,1.2000000000000002,-0.762,0.171,2.49,5.0,6309.0,35.34,36.09,
2025-08-15T02:01:41.898Z,5,GR86-025-47,0.6000000000000001,-0.806,0.161,2.49,5.0,,35.435,36.305,197.02
2025-08-15T02:01:41.942Z,5,GR86-025-47,-2.8000000000000003,-0.786,0.109,2.49,5.0,,36.03,36.67,
2025-08-15T02:01:41.987Z,5,GR86-025-47,-3.0,-0.8170000000000001,0.072,2.49,5.0,,37.05,37.645,
2025-08-15T02:01:42.030Z,5,GR86-025-47,1.8,-0.8310000000000001,0.017,2.49,5.0,,38.655,39.43,
2025-08-15T02:01:42.074Z,5,GR86-025-47,10.2,-0.844,0.049,2.49,5.0,6317.0,40.24,41.02,
2025-08-15T02:01:42.117Z,5,GR86-025-47,14.0,-0.838,0.073,2.49,5.0,,40.425,41.215,192.94
2025-08-15T02:01:42.160Z,5,GR86-025-47,13.2,-0.85,0.071,4.64,5.0,,40.56,41.4,
2025-08-15T02:01:42.203Z,5,GR86-025-47,6.6000000000000005,-0.873,-0.042,62.23,5.0,,38.625,39.845,
2025-08-15T02:01:42.247Z,5,GR86-025-47,5.4,-0.812,-0.028,98.9,5.0,,36.7,37.675,
2025-08-15T02:01:42.290Z,5,GR86-025-47,5.7,-0.78,0.025,97.72,4.0,6186.0,39.965,40.62,
2025-08-15T02:01:42.333Z,5,GR86-025-47,8.200000000000001,-0.858,0.08,36.33,4.0,,50.1,50.405,187.98
2025-08-15T02:01:42.376Z,5,GR86-025-47,8.700000000000001,-1.183,0.092,5.79,4.0,,65.495,66.395,
2025-08-15T02:01:42.419Z,5,GR86-025-47,8.3,-1.078,0.223,3.44,4.0,,79.245,80.91,
2025-08-15T02:01:42.464Z,5,GR86-025-47,7.800000000000001,-0.998,0.103,2.94,4.0,,87.5,88.05,
2025-08-15T02:01:42.507Z,5,GR86-025-47,7.5,-1.087,0.252,2.77,4.0,6030.0,89.3,90.46,
2025-08-15T02:01:42.550Z,5,GR86-025-47,7.300000000000001,-1.177,0.147,2.68,4.0,,89.485,90.08,182.69
2025-08-15T02:01:42.593Z,5,GR86-025-47,7.300000000000001,-1.222,0.066,2.62,4.0,,89.33,89.24,
2025-08-15T02:01:42.636Z,5,GR86-025-47,9.6,-1.211,0.173,2.58,4.0,,89.775,89.605,
2025-08-15T02:01:42.679Z,5,GR86-025-47,15.2,-1.268,0.15,2.56,4.0,,91.715,93.3,
2025-08-15T02:01:42.722Z,5,GR86-025-47,20.0,-1.278,0.27,2.5500000000000003,4.0,6637.0,91.59,91.895,
2025-08-15T02:01:42.765Z,5,GR86-025-47,19.1,-1.29,0.275,3.43,4.0,,91.775,93.085,175.81
2025-08-15T02:01:42.808Z,5,GR86-025-47,16.900000000000002,-1.293,0.258,42.43,4.0,,92.66,93.775,
2025-08-15T02:01:42.851Z,5,GR86-025-47,9.7,-1.261,0.228,88.7,4.0,,92.31,92.46,
2025-08-15T02:01:42.894Z,5,GR86-025-47,4.2,-1.276,0.23,96.51,3.0,,92.34,92.615,
2025-08-15T02:01:42.937Z,5,GR86-025-47,3.7,-1.217,0.179,35.910000000000004,3.0,6167.0,92.43,92.995,
2025-08-15T02:01:42.980Z,5,GR86-025-47,5.2,-1.291,0.145,27.71,3.0,,93.33,95.68,168.16
2025-08-15T02:01:43.023Z,5,GR86-025-47,12.5,-1.187,0.373,3.3000000000000003,3.0,,90.17,90.645,
2025-08-15T02:01:43.067Z,5,GR86-025-47,15.7,-1.237,0.299,3.5500000000000003,3.0,,86.4,86.58500000000001,
2025-08-15T02:01:43.110Z,5,GR86-025-47,16.400000000000002,-1.09,0.432,3.5,3.0,,86.37,87.59,
2025-08-15T02:01:43.153Z,5,GR86-025-47,15.7,-1.1,0.412,3.42,3.0,5889.0,88.43,90.795,
2025-08-15T02:01:43.196Z,5,GR86-025-47,14.8,-1.188,0.318,3.29,3.0,,89.745,92.095,160.35
2025-08-15T02:01:43.239Z,5,GR86-025-47,13.9,-1.238,0.463,3.1,3.0,,90.49,92.035,
2025-08-15T02:01:43.325Z,5,GR86-025-47,10.8,-1.202,0.373,2.75,3.0,,91.715,92.58,
2025-08-15T02:01:43.368Z,5,GR86-025-47,10.0,-1.297,0.333,2.68,3.0,6739.0,91.285,92.245,
2025-08-15T02:01:43.410Z,5,GR86-025-47,9.7,-1.198,0.26,20.09,3.0,,92.69,95.3,151.97
2025-08-15T02:01:43.454Z,5,GR86-025-47,9.6,-1.213,0.299,58.99,2.0,,91.895,92.87,
2025-08-15T02:01:43.497Z,5,GR86-025-47,9.4,-1.229,0.279,33.94,2.0,,91.025,92.185,
2025-08-15T02:01:43.540Z,5,GR86-025-47,9.2,-1.273,0.2,32.22,2.0,,91.835,94.305,
2025-08-15T02:01:43.583Z,5,GR86-025-47,9.0,-1.191,0.244,19.94,2.0,6238.0,87.53,88.615,
2025-08-15T02:01:43.627Z,5,GR86-025-47,11.1,-1.364,0.186,8.08,2.0,,81.365,82.375,145.28
2025-08-15T02:01:43.670Z,5,GR86-025-47,16.5,-1.126,0.386,5.96,2.0,,77.645,79.72,
2025-08-15T02:01:43.713Z,5,GR86-025-47,21.1,-0.787,0.309,3.88,2.0,,68.0,69.34,
2025-08-15T02:01:43.757Z,5,GR86-025-47,22.4,-0.892,0.34,3.75,2.0,,63.59,65.265,
2025-08-15T02:01:43.800Z,5,GR86-025-47,21.3,-0.954,0.531,3.5500000000000003,2.0,5910.0,64.365,66.045,
2025-08-15T02:01:43.843Z,5,GR86-025-47,19.200000000000003,-1.071,0.309,3.14,2.0,,67.755,69.37,137.39
2025-08-15T02:01:43.887Z,5,GR86-025-47,15.4,-1.039,0.426,2.9,2.0,,70.425,71.735,
2025-08-15T02:01:43.930Z,5,GR86-025-47,13.3,-1.114,0.352,2.71,2.0,,74.62,75.095,
2025-08-15T02:01:43.973Z,5,GR86-025-47,12.8,-1.15,0.262,2.62,2.0,,79.015,79.44500000000001,
2025-08-15T02:01:44.016Z,5,GR86-025-47,16.0,-1.164,0.353,2.59,2.0,7044.0,82.62,83.015,
2025-08-15T02:01:44.059Z,5,GR86-025-47,24.4,-1.197,0.348,2.5500000000000003,2.0,,85.09,85.745,128.55
2025-08-15T02:01:44.102Z,5,GR86-025-47,33.6,-1.215,0.535,2.52,2.0,,86.675,87.53,
2025-08-15T02:01:44.145Z,5,GR86-025-47,36.8,-1.154,0.581,4.26,2.0,,86.465,87.655,
2025-08-15T02:01:44.188Z,5,GR86-025-47,36.7,-1.173,0.619,44.25,2.0,,87.625,90.05,
2025-08-15T02:01:44.231Z,5,GR86-025-47,36.6,-1.135,0.627,63.74,1.0,6620.0,88.43,90.46,
2025-08-15T02:01:44.274Z,5,GR86-025-47,37.1,-1.163,0.638,25.44,1.0,,87.96000000000001,88.31,115.02
2025-08-15T02:01:44.317Z,5,GR86-025-47,41.0,-1.217,0.6930000000000001,26.09,1.0,,90.905,92.275,
2025-08-15T02:01:44.360Z,5,GR86-025-47,43.7,-1.216,0.626,23.05,1.0,,90.14,92.66,
2025-08-15T02:01:44.403Z,5,GR86-025-47,49.1,-1.133,0.8230000000000001,5.87,1.0,,90.325,91.44,
2025-08-15T02:01:44.447Z,5,GR86-025-47,52.1,-1.092,0.895,4.92,1.0,6151.0,84.39,85.41,
2025-08-15T02:01:44.490Z,5,GR86-025-47,56.5,-1.045,0.95,4.82,1.0,,76.3,78.635,107.87
2025-08-15T02:01:44.533Z,5,GR86-025-47,57.5,-0.72,1.074,4.36,1.0,,66.96000000000001,69.28,
2025-08-15T02:01:44.576Z,5,GR86-025-47,57.900000000000006,-0.668,1.043,3.93,1.0,,59.055,61.45,
2025-08-15T02:01:44.619Z,5,GR86-025-47,57.7,-0.656,1.156,3.7,1.0,,50.16,51.395,
2025-08-15T02:01:44.664Z,5,GR86-025-47,56.7,-0.853,0.959,3.33,1.0,6553.0,50.615,51.775,
2025-08-15T02:01:44.707Z,5,GR86-025-47,56.5,-0.744,1.106,3.29,1.0,,51.745000000000005,53.335,100.2
2025-08-15T02:01:44.750Z,5,GR86-025-47,56.6,-0.855,0.987,3.26,1.0,,52.405,52.92,
2025-08-15T02:01:44.794Z,5,GR86-025-47,59.6,-0.8320000000000001,0.866,3.22,1.0,,53.06,53.745000000000005,
2025-08-15T02:01:44.837Z,5,GR86-025-47,64.10000000000001,-0.8,0.966,3.25,1.0,,52.34,53.455,
2025-08-15T02:01:44.880Z,5,GR86-025-47,69.3,-0.804,0.959,3.24,1.0,6297.0,47.81,49.46,
2025-08-15T02:01:44.924Z,5,GR86-025-47,71.9,-0.724,0.902,3.06,1.0,,42.055,43.585,93.88
2025-08-15T02:01:44.967Z,5,GR86-025-47,73.10000000000001,-0.643,1.027,3.0,1.0,,33.375,34.96,
2025-08-15T02:01:45.010Z,5,GR86-025-47,73.10000000000001,-0.629,1.057,2.99,1.0,,26.75,27.865,
2025-08-15T02:01:45.053Z,5,GR86-025-47,73.10000000000001,-0.537,1.109,3.0,1.0,,22.555,23.835,
2025-08-15T02:01:45.096Z,5,GR86-025-47,72.60000000000001,-0.487,1.005,3.03,1.0,6084.0,15.72,16.740000000000002,
2025-08-15T02:01:45.139Z,5,GR86-025-47,72.4,-0.497,1.039,3.14,1.0,,6.9,7.765000000000001,88.11
2025-08-15T02:01:45.182Z,5,GR86-025-47,72.2,-0.252,1.099,3.25,1.0,,0.0,0.0,
2025-08-15T02:01:45.226Z,5,GR86-025-47,69.0,-0.185,1.181,4.41,1.0,,0.0,0.0,
2025-08-15T02:01:45.269Z,5,GR86-025-47,50.3,-0.163,1.109,13.02,1.0,,0.0,0.0,
2025-08-15T02:01:45.312Z,5,GR86-025-47,38.0,-0.134,1.104,15.83,1.0,5560.0,0.0,0.0,
2025-08-15T02:01:45.355Z,5,GR86-025-47,28.200000000000003,-0.139,1.012,21.61,1.0,,0.0,0.0,83.51
2025-08-15T02:01:45.399Z,5,GR86-025-47,37.4,-0.079,0.903,23.01,1.0,,0.0,0.0,
2025-08-15T02:01:45.442Z,5,GR86-025-47,67.60000000000001,-0.067,1.064,28.3,1.0,,0.0,0.0,
2025-08-15T02:01:45.485Z,5,GR86-025-47,80.60000000000001,-0.045,1.078,31.24,1.0,,0.0,0.0,
2025-08-15T02:01:45.528Z,5,GR86-025-47,96.9,-0.05,1.13,31.39,1.0,5564.0,0.0,0.0,
2025-08-15T02:01:45.571Z,5,GR86-025-47,104.6,0.166,1.101,14.21,1.0,,0.0,0.0,80.23
2025-08-15T02:01:45.614Z,5,GR86-025-47,107.2,0.29,1.121,4.19,1.0,,0.0,0.0,
2025-08-15T02:01:45.657Z,5,GR86-025-47,107.7,0.305,1.13,4.3,1.0,,0.0,0.0,
2025-08-15T02:01:45.700Z,5,GR86-025-47,107.7,0.217,1.163,5.42,1.0,,0.0,0.0,
2025-08-15T02:01:45.743Z,5,GR86-025-47,107.7,-0.092,1.173,18.42,1.0,5693.0,0.0,0.0,
2025-08-15T02:01:45.786Z,5,GR86-025-47,107.7,-0.068,1.164,21.19,1.0,,0.0,0.0,78.42
2025-08-15T02:01:45.829Z,5,GR86-025-47,107.6,-0.139,1.214,21.32,1.0,,0.0,0.0,
2025-08-15T02:01:45.872Z,5,GR86-025-47,106.8,-0.249,1.203,23.59,1.0,,0.0,0.0,
2025-08-15T02:01:45.915Z,5,GR86-025-47,103.9,-0.13,1.208,26.59,1.0,,0.0,0.0,
2025-08-15T02:01:45.958Z,5,GR86-025-47,101.4,-0.084,1.153,29.34,1.0,5845.0,0.0,0.0,
2025-08-15T02:01:46.001Z,5,GR86-025-47,98.8,-0.068,1.222,30.99,1.0,,0.0,0.0,77.25
2025-08-15T02:01:46.044Z,5,GR86-025-47,93.8,0.179,1.108,31.16,1.0,,0.0,0.0,
2025-08-15T02:01:46.087Z,5,GR86-025-47,86.2,0.221,1.219,32.08,1.0,,0.0,0.0,
2025-08-15T02:01:46.130Z,5,GR86-025-47,73.0,0.289,1.148,32.660000000000004,1.0,,0.0,0.0,
2025-08-15T02:01:46.173Z,5,GR86-025-47,56.400000000000006,0.219,1.408,34.92,1.0,5436.0,0.0,0.0,
2025-08-15T02:01:46.216Z,5,GR86-025-47,45.7,0.263,1.198,36.56,1.0,,0.0,0.0,78.29
2025-08-15T02:01:46.259Z,5,GR86-025-47,44.1,0.196,1.224,37.78,1.0,,0.0,0.0,
2025-08-15T02:01:46.302Z,5,GR86-025-47,51.1,0.223,1.321,46.93,1.0,,0.0,0.0,
2025-08-15T02:01:46.345Z,5,GR86-025-47,50.1,0.251,1.227,51.84,1.0,,0.0,0.0,
2025-08-15T02:01:46.388Z,5,GR86-025-47,36.0,0.276,1.233,52.22,1.0,6036.0,0.0,0.0,
2025-08-15T02:01:46.431Z,5,GR86-025-47,14.1,0.295,1.179,56.58,1.0,,0.0,0.0,77.9
2025-08-15T02:01:46.474Z,5,GR86-025-47,-4.3,0.36,1.157,57.11,1.0,,0.0,0.0,
2025-08-15T02:01:46.517Z,5,GR86-025-47,-9.7,0.413,1.098,54.15,1.0,,0.0,0.0,
2025-08-15T02:01:46.560Z,5,GR86-025-47,-1.5,0.429,1.064,53.25,1.0,,0.0,0.0,
2025-08-15T02:01:46.603Z,5,GR86-025-47,14.9,0.383,1.173,53.57,1.0,6045.0,0.0,0.0,
2025-08-15T02:01:46.646Z,5,GR86-025-47,13.6,0.373,1.163,54.86,1.0,,0.0,0.0,78.35000000000001
2025-08-15T02:01:46.689Z,5,GR86-025-47,1.4,0.317,1.208,66.4,1.0,,0.0,0.0,
2025-08-15T02:01:46.732Z,5,GR86-025-47,-14.9,0.308,1.067,98.35,1.0,,0.0,0.0,
2025-08-15T02:01:46.775Z,5,GR86-025-47,-23.200000000000003,0.361,1.019,99.96,1.0,,0.0,0.0,
2025-08-15T02:01:46.818Z,5,GR86-025-47,-20.9,0.412,0.974,99.96,1.0,6331.0,0.0,0.0,
2025-08-15T02:01:46.864Z,5,GR86-025-47,4.800000000000001,0.492,0.976,99.97,1.0,,0.0,0.0,80.31
2025-08-15T02:01:46.907Z,5,GR86-025-47,20.5,0.49,1.016,99.96,1.0,,0.0,0.0,
2025-08-15T02:01:46.950Z,5,GR86-025-47,32.7,0.434,1.098,99.97,1.0,,0.0,0.0,
2025-08-15T02:01:46.993Z,5,GR86-025-47,40.0,0.366,1.088,99.97,1.0,,0.0,0.0,
2025-08-15T02:01:47.036Z,5,GR86-025-47,41.0,0.278,1.079,99.99,1.0,6414.0,0.0,0.0,
2025-08-15T02:01:47.079Z,5,GR86-025-47,38.8,0.246,1.207,99.98,1.0,,0.0,0.0,81.60000000000001
2025-08-15T02:01:47.122Z,5,GR86-025-47,26.6,0.259,1.06,100.0,1.0,,0.0,0.0,
2025-08-15T02:01:47.166Z,5,GR86-025-47,22.8,0.288,1.027,100.0,1.0,,0.0,0.0,
2025-08-15T02:01:47.209Z,5,GR86-025-47,22.1,0.365,0.995,100.01,1.0,,0.0,0.0,
2025-08-15T02:01:47.252Z,5,GR86-025-47,21.1,0.492,0.948,99.99,1.0,6625.0,0.0,0.0,
2025-08-15T02:01:47.295Z,5,GR86-025-47,19.1,0.534,0.934,100.0,1.0,,0.0,0.0,83.32000000000001
2025-08-15T02:01:47.339Z,5,GR86-025-47,13.8,0.55,0.995,100.02,1.0,,0.0,0.0,
2025-08-15T02:01:47.382Z,5,GR86-025-47,9.1,0.448,0.909,100.0,1.0,,0.0,0.0,
2025-08-15T02:01:47.425Z,5,GR86-025-47,10.0,0.402,0.942,100.0,1.0,,0.0,0.0,
2025-08-15T02:01:47.468Z,5,GR86-025-47,16.2,0.394,0.977,100.03,1.0,7062.0,0.0,0.0,
2025-08-15T02:01:47.511Z,5,GR86-025-47,17.900000000000002,0.396,0.976,100.01,1.0,,0.0,0.0,85.17
2025-08-15T02:01:47.554Z,5,GR86-025-47,16.0,0.403,0.971,100.02,1.0,,0.0,0.0,
2025-08-15T02:01:47.597Z,5,GR86-025-47,14.3,0.366,0.909,100.03,1.0,,0.0,0.0,
2025-08-15T02:01:47.640Z,5,GR86-025-47,16.3,0.422,0.862,100.05,1.0,,0.0,0.0,
2025-08-15T02:01:47.683Z,5,GR86-025-47,25.200000000000003,0.446,0.6960000000000001,100.01,1.0,6852.0,0.0,0.0,
2025-08-15T02:01:47.726Z,5,GR86-025-47,30.0,0.393,0.76,100.04,1.0,,0.0,0.0,87.69
2025-08-15T02:01:47.769Z,5,GR86-025-47,32.5,0.346,0.714,100.02,1.0,,0.0,0.0,
2025-08-15T02:01:47.812Z,5,GR86-025-47,32.5,0.183,0.718,100.01,1.0,,0.0,0.0,
2025-08-15T02:01:47.855Z,5,GR86-025-47,32.2,-0.036,0.652,100.01,2.0,,0.0,0.0,
2025-08-15T02:01:47.899Z,5,GR86-025-47,30.8,0.245,0.469,100.02,2.0,6975.0,0.0,0.0,
2025-08-15T02:01:47.944Z,5,GR86-025-47,29.6,0.786,0.438,100.03,2.0,,0.0,0.0,89.11
2025-08-15T02:01:47.987Z,5,GR86-025-47,28.8,0.436,0.519,99.99,2.0,,0.0,0.0,
2025-08-15T02:01:48.030Z,5,GR86-025-47,28.6,0.252,0.394,99.99,2.0,,0.0,0.0,
2025-08-15T02:01:48.074Z,5,GR86-025-47,28.0,0.157,0.41,100.02,2.0,,0.0,0.0,
2025-08-15T02:01:48.117Z,5,GR86-025-47,25.4,0.12,0.497,100.03,2.0,6418.0,0.0,0.0,
2025-08-15T02:01:48.160Z,5,GR86-025-47,19.5,0.242,0.554,100.01,2.0,,0.0,0.0,91.53
2025-08-15T02:01:48.203Z,5,GR86-025-47,8.700000000000001,-0.01,0.5730000000000001,100.03,2.0,,0.0,0.0,
2025-08-15T02:01:48.246Z,5,GR86-025-47,5.1000000000000005,0.077,0.5720000000000001,100.01,2.0,,0.0,0.0,
2025-08-15T02:01:48.290Z,5,GR86-025-47,1.9,0.345,0.634,100.03,2.0,,0.0,0.0,
2025-08-15T02:01:48.333Z,5,GR86-025-47,1.6,0.49,0.884,100.01,2.0,5631.0,0.0,0.0,
2025-08-15T02:01:48.376Z,5,GR86-025-47,4.0,0.663,0.942,100.03,2.0,,0.0,0.0,93.46
2025-08-15T02:01:48.419Z,5,GR86-025-47,5.6000000000000005,0.704,0.443,100.03,2.0,,0.0,0.0,
2025-08-15T02:01:48.464Z,5,GR86-025-47,6.9,0.226,0.679,100.0,2.0,,0.0,0.0,
2025-08-15T02:01:48.507Z,5,GR86-025-47,5.5,0.481,0.593,100.0,2.0,,0.0,0.0,
2025-08-15T02:01:48.550Z,5,GR86-025-47,4.6000000000000005,0.595,0.518,100.03,2.0,5841.0,0.0,0.0,
2025-08-15T02:01:48.593Z,5,GR86-025-47,3.1,0.448,0.37,100.04,2.0,,0.0,0.0,95.43
2025-08-15T02:01:48.636Z,5,GR86-025-47,7.9,0.179,0.411,100.03,2.0,,0.0,0.0,
2025-08-15T02:01:48.679Z,5,GR86-025-47,14.9,-0.084,0.143,100.03,2.0,,0.0,0.0,
2025-08-15T02:01:48.722Z,5,GR86-025-47,20.8,0.782,0.473,100.03,2.0,,0.0,0.0,
2025-08-15T02:01:48.765Z,5,GR86-025-47,23.5,0.481,0.228,100.04,2.0,5769.0,0.0,0.0,
2025-08-15T02:01:48.808Z,5,GR86-025-47,23.6,0.4,0.36,100.03,2.0,,0.0,0.0,97.81
2025-08-15T02:01:48.850Z,5,GR86-025-47,22.200000000000003,-0.036,0.243,100.03,2.0,,0.0,0.0,
2025-08-15T02:01:48.894Z,5,GR86-025-47,11.4,-0.197,0.211,100.03,2.0,,0.0,0.0,
2025-08-15T02:01:48.937Z,5,GR86-025-47,2.0,0.215,0.304,100.01,2.0,,0.0,0.0,
2025-08-15T02:01:48.980Z,5,GR86-025-47,-1.2000000000000002,0.226,0.244,100.03,2.0,6043.0,0.0,0.0,
2025-08-15T02:01:49.023Z,5,GR86-025-47,4.7,0.529,0.301,100.03,2.0,,0.0,0.0,99.22
2025-08-15T02:01:49.067Z,5,GR86-025-47,11.5,0.231,0.216,100.01,2.0,,0.0,0.0,
2025-08-15T02:01:49.110Z,5,GR86-025-47,15.3,0.099,0.147,100.01,2.0,,0.0,0.0,
2025-08-15T02:01:49.153Z,5,GR86-025-47,15.7,0.002,0.069,100.03,2.0,,0.0,0.0,
2025-08-15T02:01:49.196Z,5,GR86-025-47,14.5,-0.233,0.089,100.02,2.0,5868.0,0.0,0.0,
2025-08-15T02:01:49.239Z,5,GR86-025-47,13.6,-0.22,0.125,100.02,2.0,,0.0,0.0,100.86
2025-08-15T02:01:49.282Z,5,GR86-025-47,12.2,0.49,0.078,100.03,2.0,,0.0,0.0,
2025-08-15T02:01:49.325Z,5,GR86-025-47,10.3,0.538,0.235,100.03,2.0,,0.0,0.0,
2025-08-15T02:01:49.369Z,5,GR86-025-47,5.2,0.457,0.202,100.03,2.0,,0.0,0.0,
2025-08-15T02:01:49.412Z,5,GR86-025-47,3.1,0.359,0.171,100.02,2.0,5969.0,0.0,0.0,
2025-08-15T02:01:49.455Z,5,GR86-025-47,2.7,0.259,0.247,100.04,2.0,,0.0,0.0,103.29
2025-08-15T02:01:49.498Z,5,GR86-025-47,4.4,0.095,0.034,100.03,2.0,,0.0,0.0,
2025-08-15T02:01:49.541Z,5,GR86-025-47,7.1000000000000005,0.016,0.141,99.99,2.0,,0.0,0.0,
2025-08-15T02:01:49.584Z,5,GR86-025-47,8.9,0.523,0.063,100.0,2.0,,0.0,0.0,
2025-08-15T02:01:49.627Z,5,GR86-025-47,8.700000000000001,0.531,0.1,100.02,2.0,6367.0,0.0,0.0,
2025-08-15T02:01:49.670Z,5,GR86-025-47,7.800000000000001,0.637,0.091,100.0,2.0,,0.0,0.0,106.6
2025-08-15T02:01:49.714Z,5,GR86-025-47,6.4,0.547,0.075,100.01,2.0,,0.0,0.0,
2025-08-15T02:01:49.757Z,5,GR86-025-47,5.4,0.494,0.02,100.05,2.0,,0.0,0.0,
2025-08-15T02:01:49.800Z,5,GR86-025-47,4.800000000000001,0.509,0.098,100.02,2.0,,0.0,0.0,
2025-08-15T02:01:49.843Z,5,GR86-025-47,7.4,0.144,0.141,100.0,2.0,6176.0,0.0,0.0,
2025-08-15T02:01:49.886Z,5,GR86-025-47,10.5,0.153,0.144,100.02,2.0,,0.0,0.0,108.04
2025-08-15T02:01:49.929Z,5,GR86-025-47,11.7,0.198,0.116,100.01,2.0,,0.0,0.0,
2025-08-15T02:01:49.972Z,5,GR86-025-47,11.2,0.159,0.18,100.02,2.0,,0.0,0.0,
2025-08-15T02:01:50.015Z,5,GR86-025-47,10.1,0.193,0.141,100.01,2.0,,0.0,0.0,
2025-08-15T02:01:50.100Z,5,GR86-025-47,9.0,0.25,0.2,99.99,2.0,6489.0,0.0,0.0,110.01
2025-08-15T02:01:50.144Z,5,GR86-025-47,6.7,0.294,0.08,100.0,2.0,,0.0,0.0,
2025-08-15T02:01:50.187Z,5,GR86-025-47,6.6000000000000005,0.373,0.212,100.04,2.0,,0.0,0.0,
2025-08-15T02:01:50.230Z,5,GR86-025-47,6.5,0.341,0.059,100.03,2.0,,0.0,0.0,
2025-08-15T02:01:50.273Z,5,GR86-025-47,6.4,0.278,0.038,100.0,2.0,6539.0,0.0,0.0,
2025-08-15T02:01:50.316Z,5,GR86-025-47,6.300000000000001,0.246,0.06,100.02,2.0,,0.0,0.0,111.54
2025-08-15T02:01:50.359Z,5,GR86-025-47,6.2,0.238,-0.03,100.01,2.0,,0.0,0.0,
2025-08-15T02:01:50.402Z,5,GR86-025-47,4.5,0.274,0.015,100.03,2.0,,0.0,0.0,
2025-08-15T02:01:50.445Z,5,GR86-025-47,4.0,0.322,0.042,100.0,2.0,,0.0,0.0,
2025-08-15T02:01:50.488Z,5,GR86-025-47,3.9,0.317,0.102,100.03,2.0,6516.0,0.0,0.0,
2025-08-15T02:01:50.531Z,5,GR86-025-47,3.8,0.276,0.047,100.01,2.0,,0.0,0.0,112.99
2025-08-15T02:01:50.574Z,5,GR86-025-47,3.6,0.266,0.056,100.03,2.0,,0.0,0.0,
2025-08-15T02:01:50.617Z,5,GR86-025-47,1.9,0.258,0.018,100.01,2.0,,0.0,0.0,
2025-08-15T02:01:50.660Z,5,GR86-025-47,-1.0,0.248,0.006,100.02,2.0,,0.0,0.0,
2025-08-15T02:01:50.703Z,5,GR86-025-47,-4.7,0.265,-0.008,100.01,2.0,6664.0,0.0,0.0,
2025-08-15T02:01:50.747Z,5,GR86-025-47,-5.7,0.306,-0.041,100.02,2.0,,0.0,0.0,114.4
2025-08-15T02:01:50.790Z,5,GR86-025-47,-6.300000000000001,0.279,-0.124,99.99,2.0,,0.0,0.0,
2025-08-15T02:01:50.833Z,5,GR86-025-47,-6.7,0.262,-0.17,99.99,2.0,,0.0,0.0,
2025-08-15T02:01:50.876Z,5,GR86-025-47,-7.0,0.253,-0.203,100.0,2.0,,0.0,0.0,
2025-08-15T02:01:50.919Z,5,GR86-025-47,-7.4,0.27,-0.252,100.0,2.0,6744.0,0.0,0.0,
2025-08-15T02:01:50.963Z,5,GR86-025-47,-7.6,0.273,-0.279,100.0,2.0,,0.0,0.0,116.12
2025-08-15T02:01:51.007Z,5,GR86-025-47,-7.6,0.283,-0.253,100.01,2.0,,0.0,0.0,
2025-08-15T02:01:51.050Z,5,GR86-025-47,-7.6,0.264,-0.258,100.01,2.0,,0.0,0.0,
2025-08-15T02:01:51.094Z,5,GR86-025-47,-7.6,0.268,-0.286,100.02,2.0,,0.0,0.0,
2025-08-15T02:01:51.137Z,5,GR86-025-47,-7.5,0.267,-0.243,99.99,2.0,6793.0,0.0,0.0,
2025-08-15T02:01:51.180Z,5,GR86-025-47,-7.2,0.257,-0.198,100.0,2.0,,0.0,0.0,117.6
2025-08-15T02:01:51.224Z,5,GR86-025-47,-6.4,0.263,-0.163,99.99,2.0,,0.0,0.0,
2025-08-15T02:01:51.267Z,5,GR86-025-47,-5.9,0.277,-0.15,100.0,2.0,,0.0,0.0,
2025-08-15T02:01:51.310Z,5,GR86-025-47,-5.7,0.269,-0.129,99.99,2.0,,0.0,0.0,
2025-08-15T02:01:51.353Z,5,GR86-025-47,-5.6000000000000005,0.259,-0.091,99.99,2.0,6870.0,0.0,0.0,
2025-08-15T02:01:51.396Z,5,GR86-025-47,-5.6000000000000005,0.277,-0.103,100.0,2.0,,0.0,0.0,119.06
2025-08-15T02:01:51.439Z,5,GR86-025-47,-5.6000000000000005,0.282,-0.087,100.0,2.0,,0.0,0.0,
2025-08-15T02:01:51.526Z,5,GR86-025-47,-4.9,0.249,-0.084,100.0,2.0,,0.0,0.0,
2025-08-15T02:01:51.569Z,5,GR86-025-47,-4.2,0.272,-0.096,100.0,2.0,6952.0,0.0,0.0,
2025-08-15T02:01:51.612Z,5,GR86-025-47,-3.4000000000000004,0.283,-0.075,100.0,2.0,,0.0,0.0,120.38
2025-08-15T02:01:51.655Z,5,GR86-025-47,-2.6,0.261,-0.064,100.0,2.0,,0.0,0.0,
2025-08-15T02:01:51.699Z,5,GR86-025-47,-2.2,0.272,-0.083,99.97,2.0,,0.0,0.0,
2025-08-15T02:01:51.742Z,5,GR86-025-47,-1.4,0.263,-0.049,100.01,2.0,,0.0,0.0,
2025-08-15T02:01:51.785Z,5,GR86-025-47,-0.9,0.269,-0.024,99.98,2.0,7034.0,0.0,0.0,
2025-08-15T02:01:51.828Z,5,GR86-025-47,-0.7000000000000001,0.255,0.007,100.01,2.0,,0.0,0.0,121.66
2025-08-15T02:01:51.870Z,5,GR86-025-47,-0.7000000000000001,0.26,-0.001,99.98,2.0,,0.0,0.0,
2025-08-15T02:01:51.914Z,5,GR86-025-47,-0.7000000000000001,0.276,0.005,99.99,2.0,,0.0,0.0,
2025-08-15T02:01:51.957Z,5,GR86-025-47,-0.7000000000000001,0.257,0.014,100.01,2.0,,0.0,0.0,
2025-08-15T02:01:52.000Z,5,GR86-025-47,-0.8,0.25,0.003,100.0,2.0,7106.0,0.0,0.0,
2025-08-15T02:01:52.043Z,5,GR86-025-47,-1.0,-0.052,0.024,99.99,3.0,,0.0,0.0,122.85
2025-08-15T02:01:52.086Z,5,GR86-025-47,-1.0,0.016,0.056,100.0,3.0,,0.0,0.0,
2025-08-15T02:01:52.129Z,5,GR86-025-47,-1.0,0.752,0.009,99.99,3.0,,0.0,0.0,
2025-08-15T02:01:52.172Z,5,GR86-025-47,-1.0,0.454,-0.048,100.01,3.0,,0.0,0.0,
2025-08-15T02:01:52.215Z,5,GR86-025-47,-1.1,0.215,0.015,100.0,3.0,7184.0,0.0,0.0,
2025-08-15T02:01:52.258Z,5,GR86-025-47,-1.1,0.04,0.028,100.0,3.0,,0.0,0.0,124.11
2025-08-15T02:01:52.300Z,5,GR86-025-47,-1.1,0.108,-0.041,100.0,3.0,,0.0,0.0,
2025-08-15T02:01:52.344Z,5,GR86-025-47,-1.1,0.323,0.029,99.99,3.0,,0.0,0.0,
2025-08-15T02:01:52.387Z,5,GR86-025-47,-1.2000000000000002,0.248,-0.046,99.99,3.0,,0.0,0.0,
2025-08-15T02:01:52.430Z,5,GR86-025-47,-1.2000000000000002,0.194,-0.018,100.0,3.0,6807.0,0.0,0.0,
2025-08-15T02:01:52.473Z,5,GR86-025-47,-0.7000000000000001,0.18,0.028,99.99,3.0,,0.0,0.0,126.23
2025-08-15T02:01:52.516Z,5,GR86-025-47,0.3,0.213,-0.007,99.99,3.0,,0.0,0.0,
2025-08-15T02:01:52.560Z,5,GR86-025-47,0.6000000000000001,0.254,0.029,99.99,3.0,,0.0,0.0,
2025-08-15T02:01:52.603Z,5,GR86-025-47,0.4,0.2,0.032,99.99,3.0,,0.0,0.0,
2025-08-15T02:01:52.646Z,5,GR86-025-47,0.3,0.234,0.046,99.99,3.0,5872.0,0.0,0.0,
2025-08-15T02:01:52.690Z,5,GR86-025-47,0.3,0.203,0.049,100.0,3.0,,0.0,0.0,127.2
2025-08-15T02:01:52.733Z,5,GR86-025-47,0.3,0.215,0.036,99.99,3.0,,0.0,0.0,
2025-08-15T02:01:52.776Z,5,GR86-025-47,0.3,0.247,0.066,99.98,3.0,,0.0,0.0,
2025-08-15T02:01:52.819Z,5,GR86-025-47,0.3,0.228,0.065,100.0,3.0,,0.0,0.0,
2025-08-15T02:01:52.864Z,5,GR86-025-47,0.2,0.232,0.066,99.99,3.0,5997.0,0.0,0.0,
2025-08-15T02:01:52.907Z,5,GR86-025-47,0.1,0.19,0.032,99.99,3.0,,0.0,0.0,128.05
2025-08-15T02:01:52.950Z,5,GR86-025-47,0.4,0.207,0.028,99.99,3.0,,0.0,0.0,
2025-08-15T02:01:52.993Z,5,GR86-025-47,1.4,0.259,0.065,100.0,3.0,,0.0,0.0,
2025-08-15T02:01:53.036Z,5,GR86-025-47,2.7,0.206,0.076,100.0,3.0,,0.0,0.0,
2025-08-15T02:01:53.079Z,5,GR86-025-47,3.6,0.198,0.07,100.01,3.0,6036.0,0.0,0.0,
2025-08-15T02:01:53.122Z,5,GR86-025-47,4.0,0.185,0.095,100.01,3.0,,0.0,0.0,128.86
2025-08-15T02:01:53.166Z,5,GR86-025-47,3.7,0.217,0.118,99.99,3.0,,0.0,0.0,
2025-08-15T02:01:53.209Z,5,GR86-025-47,2.4000000000000004,0.248,0.137,99.99,3.0,,0.0,0.0,
2025-08-15T02:01:53.252Z,5,GR86-025-47,-0.4,0.212,0.107,100.0,3.0,,0.0,0.0,
2025-08-15T02:01:53.295Z,5,GR86-025-47,-2.6,0.188,0.047,100.0,3.0,6073.0,0.0,0.0,
2025-08-15T02:01:53.338Z,5,GR86-025-47,-3.7,0.241,0.036,99.99,3.0,,4.15,4.5,129.73
2025-08-15T02:01:53.382Z,5,GR86-025-47,-3.8,0.187,-0.039,39.18,3.0,,11.615,11.675,
2025-08-15T02:01:53.425Z,5,GR86-025-47,-2.0,0.139,-0.027,3.0,3.0,,18.955,19.075,
2025-08-15T02:01:53.468Z,5,GR86-025-47,4.6000000000000005,-0.051,-0.049,3.72,3.0,,28.75,28.75,
2025-08-15T02:01:53.510Z,5,GR86-025-47,12.3,-0.386,-0.002,3.63,3.0,6126.0,39.155,38.9,
2025-08-15T02:01:53.554Z,5,GR86-025-47,16.900000000000002,-0.617,0.149,3.48,3.0,,49.425,49.105,130.63
2025-08-15T02:01:53.597Z,5,GR86-025-47,16.900000000000002,-0.751,0.162,3.28,3.0,,57.120000000000005,56.875,
2025-08-15T02:01:53.640Z,5,GR86-025-47,14.9,-0.915,0.147,11.65,3.0,,61.68,62.06,
2025-08-15T02:01:53.683Z,5,GR86-025-47,8.700000000000001,-1.05,0.138,46.24,2.0,,66.105,68.21000000000001,
2025-08-15T02:01:53.726Z,5,GR86-025-47,8.1,-1.005,0.039,40.82,2.0,6136.0,67.725,69.435,
2025-08-15T02:01:53.769Z,5,GR86-025-47,8.0,-0.901,0.144,39.69,2.0,,69.555,71.555,131.3
2025-08-15T02:01:53.812Z,5,GR86-025-47,11.0,-1.042,0.13,33.86,2.0,,68.305,69.465,
2025-08-15T02:01:53.855Z,5,GR86-025-47,14.3,-1.13,0.077,24.36,2.0,,62.690000000000005,63.145,
2025-08-15T02:01:53.898Z,5,GR86-025-47,18.2,-0.853,0.375,6.91,2.0,,56.63,58.31,
2025-08-15T02:01:53.941Z,5,GR86-025-47,25.4,-0.507,0.418,3.94,2.0,5548.0,48.205,48.83,
2025-08-15T02:01:53.984Z,5,GR86-025-47,37.9,-0.755,0.5640000000000001,3.82,2.0,,40.59,41.735,127.52
2025-08-15T02:01:54.027Z,5,GR86-025-47,42.900000000000006,-0.742,0.802,3.7,2.0,,38.56,39.645,
2025-08-15T02:01:54.070Z,5,GR86-025-47,42.900000000000006,-0.764,0.604,3.47,2.0,,39.19,40.025,
2025-08-15T02:01:54.113Z,5,GR86-025-47,37.9,-0.739,0.782,3.27,2.0,,37.525,38.56,
2025-08-15T02:01:54.156Z,5,GR86-025-47,25.200000000000003,-0.836,0.742,3.02,2.0,6224.0,34.275,35.555,
2025-08-15T02:01:54.199Z,5,GR86-025-47,14.4,-0.707,0.502,2.85,2.0,,29.24,30.49,117.69
2025-08-15T02:01:54.242Z,5,GR86-025-47,9.2,-0.628,0.534,2.68,2.0,,24.555,25.15,
2025-08-15T02:01:54.287Z,5,GR86-025-47,8.8,-0.634,0.51,2.62,2.0,,22.905,23.715,
2025-08-15T02:01:54.330Z,5,GR86-025-47,10.4,-0.5660000000000001,0.52,2.5500000000000003,2.0,,21.03,22.065,
2025-08-15T02:01:54.374Z,5,GR86-025-47,21.5,-0.543,0.595,2.53,2.0,6243.0,20.145,20.6,
2025-08-15T02:01:54.460Z,5,GR86-025-47,34.1,-0.508,0.6920000000000001,2.52,2.0,,19.87,20.725,113.74
2025-08-15T02:01:54.503Z,5,GR86-025-47,51.8,-0.504,0.843,2.5,2.0,,18.115,18.8,
2025-08-15T02:01:54.546Z,5,GR86-025-47,52.6,-0.45,0.872,2.49,2.0,,18.465,19.275,
2025-08-15T02:01:54.590Z,5,GR86-025-47,52.6,-0.506,0.906,2.49,2.0,5964.0,18.92,19.485,
2025-08-15T02:01:54.633Z,5,GR86-025-47,51.7,-0.472,0.923,2.5,2.0,,20.845,21.47,111.14
2025-08-15T02:01:54.676Z,5,GR86-025-47,45.5,-0.503,0.921,2.49,2.0,,22.585,23.18,
2025-08-15T02:01:54.720Z,5,GR86-025-47,31.1,-0.512,0.842,2.49,2.0,,23.745,24.37,
2025-08-15T02:01:54.763Z,5,GR86-025-47,13.0,-0.549,0.792,2.52,2.0,,23.835,24.705,
2025-08-15T02:01:54.807Z,5,GR86-025-47,11.4,-0.551,0.761,2.52,2.0,5787.0,24.14,24.735,
2025-08-15T02:01:54.850Z,5,GR86-025-47,21.6,-0.517,0.8240000000000001,2.52,2.0,,24.795,25.455,106.05
2025-08-15T02:01:54.893Z,5,GR86-025-47,35.7,-0.523,0.889,2.59,2.0,,24.28,25.085,
2025-08-15T02:01:54.936Z,5,GR86-025-47,48.400000000000006,-0.422,0.964,2.5500000000000003,2.0,,23.835,24.645,
2025-08-15T02:01:54.979Z,5,GR86-025-47,56.3,-0.445,0.979,2.59,2.0,,21.24,22.22,
2025-08-15T02:01:55.022Z,5,GR86-025-47,56.5,-0.394,1.126,2.85,2.0,5523.0,9.845,10.44,
2025-08-15T02:01:55.065Z,5,GR86-025-47,42.900000000000006,-0.268,1.202,3.68,2.0,,2.215,2.73,99.14
2025-08-15T02:01:55.108Z,5,GR86-025-47,31.5,-0.187,1.127,4.64,2.0,,0.0,0.0,
2025-08-15T02:01:55.150Z,5,GR86-025-47,29.4,-0.103,1.149,4.94,2.0,,0.0,0.0,
2025-08-15T02:01:55.237Z,5,GR86-025-47,39.6,-0.163,1.136,4.98,2.0,5206.0,0.0,0.0,
2025-08-15T02:01:55.280Z,5,GR86-025-47,62.6,-0.153,1.265,4.88,2.0,,0.0,0.0,94.77
2025-08-15T02:01:55.323Z,5,GR86-025-47,68.5,-0.088,1.257,3.86,2.0,,0.0,0.0,
2025-08-15T02:01:55.367Z,5,GR86-025-47,68.5,-0.094,1.282,3.87,2.0,,0.0,0.0,
2025-08-15T02:01:55.410Z,5,GR86-025-47,67.3,-0.11,1.246,3.98,2.0,,0.0,0.0,
2025-08-15T02:01:55.453Z,5,GR86-025-47,60.400000000000006,-0.112,1.235,4.24,2.0,4869.0,0.0,0.0,
2025-08-15T02:01:55.496Z,5,GR86-025-47,51.8,-0.115,1.273,17.52,2.0,,0.0,0.0,92.97
2025-08-15T02:01:55.539Z,5,GR86-025-47,45.400000000000006,-0.108,1.235,20.19,2.0,,0.0,0.0,
2025-08-15T02:01:55.582Z,5,GR86-025-47,42.5,-0.085,1.248,20.75,2.0,,0.0,0.0,
2025-08-15T02:01:55.625Z,5,GR86-025-47,42.400000000000006,-0.042,1.214,22.38,2.0,,0.0,0.0,
2025-08-15T02:01:55.669Z,5,GR86-025-47,45.1,-0.051,1.207,24.93,2.0,4924.0,0.0,0.0,
2025-08-15T02:01:55.712Z,5,GR86-025-47,51.3,-0.023,1.209,27.91,2.0,,0.0,0.0,90.87
2025-08-15T02:01:55.755Z,5,GR86-025-47,58.5,0.089,1.2,28.7,2.0,,0.0,0.0,
2025-08-15T02:01:55.799Z,5,GR86-025-47,64.9,0.191,1.179,28.74,2.0,,0.0,0.0,
2025-08-15T02:01:55.842Z,5,GR86-025-47,70.0,0.177,1.236,29.22,2.0,,0.0,0.0,
2025-08-15T02:01:55.886Z,5,GR86-025-47,70.2,0.194,1.215,29.29,2.0,5020.0,0.0,0.0,
2025-08-15T02:01:55.929Z,5,GR86-025-47,69.9,0.207,1.231,29.28,2.0,,0.0,0.0,89.64
2025-08-15T02:01:55.972Z,5,GR86-025-47,69.2,0.219,1.241,29.29,2.0,,0.0,0.0,
2025-08-15T02:01:56.015Z,5,GR86-025-47,67.9,0.208,1.287,29.29,2.0,,0.0,0.0,
2025-08-15T02:01:56.058Z,5,GR86-025-47,67.0,0.211,1.215,29.29,2.0,,0.0,0.0,
2025-08-15T02:01:56.101Z,5,GR86-025-47,66.9,0.188,1.324,29.32,2.0,5263.0,0.0,0.0,
2025-08-15T02:01:56.144Z,5,GR86-025-47,66.60000000000001,0.17,1.133,29.32,2.0,,0.0,0.0,88.52
2025-08-15T02:01:56.187Z,5,GR86-025-47,66.10000000000001,0.165,1.229,29.3,2.0,,0.0,0.0,
2025-08-15T02:01:56.230Z,5,GR86-025-47,65.2,0.161,1.234,30.51,2.0,,0.0,0.0,
2025-08-15T02:01:56.273Z,5,GR86-025-47,60.8,0.222,1.123,36.05,2.0,,0.0,0.0,
2025-08-15T02:01:56.316Z,5,GR86-025-47,50.3,0.209,1.089,51.89,2.0,5211.0,0.0,0.0,
2025-08-15T02:01:56.360Z,5,GR86-025-47,41.2,0.097,1.218,93.02,2.0,,0.0,0.0,88.73
2025-08-15T02:01:56.403Z,5,GR86-025-47,35.800000000000004,0.19,1.089,99.99,2.0,,0.0,0.0,
2025-08-15T02:01:56.447Z,5,GR86-025-47,33.0,0.359,1.114,99.98,2.0,,0.0,0.0,
2025-08-15T02:01:56.490Z,5,GR86-025-47,31.3,0.483,0.8240000000000001,99.98,2.0,,0.0,0.0,
2025-08-15T02:01:56.533Z,5,GR86-025-47,32.1,0.223,0.902,100.0,2.0,5255.0,0.0,0.0,
2025-08-15T02:01:56.576Z,5,GR86-025-47,36.7,0.122,1.059,99.99,2.0,,0.0,0.0,89.65
2025-08-15T02:01:56.619Z,5,GR86-025-47,44.7,0.387,0.988,100.0,2.0,,0.0,0.0,
2025-08-15T02:01:56.664Z,5,GR86-025-47,63.3,0.366,1.0,99.98,2.0,,0.0,0.0,
2025-08-15T02:01:56.707Z,5,GR86-025-47,74.0,0.36,1.011,99.99,2.0,,0.0,0.0,
2025-08-15T02:01:56.750Z,5,GR86-025-47,80.0,0.233,1.093,100.0,2.0,5390.0,0.0,0.0,
2025-08-15T02:01:56.794Z,5,GR86-025-47,80.9,0.248,1.061,100.0,2.0,,0.0,0.0,90.6
2025-08-15T02:01:56.837Z,5,GR86-025-47,80.80000000000001,0.241,1.092,99.97,2.0,,0.0,0.0,
2025-08-15T02:01:56.880Z,5,GR86-025-47,76.60000000000001,0.279,1.044,100.0,2.0,,0.0,0.0,
2025-08-15T02:01:56.924Z,5,GR86-025-47,65.60000000000001,0.24,1.026,100.01,2.0,,0.0,0.0,
2025-08-15T02:01:56.967Z,5,GR86-025-47,59.8,0.253,1.049,99.99,2.0,5412.0,0.0,0.0,
2025-08-15T02:01:57.010Z,5,GR86-025-47,52.400000000000006,0.285,1.05,100.01,2.0,,0.0,0.0,91.34
2025-08-15T02:01:57.053Z,5,GR86-025-47,40.400000000000006,0.268,1.04,99.99,2.0,,0.0,0.0,
2025-08-15T02:01:57.139Z,5,GR86-025-47,26.700000000000003,0.307,1.022,100.0,2.0,,0.0,0.0,
2025-08-15T02:01:57.182Z,5,GR86-025-47,20.200000000000003,0.319,0.937,99.99,2.0,5504.0,0.0,0.0,
2025-08-15T02:01:57.226Z,5,GR86-025-47,35.4,0.317,0.966,100.0,2.0,,0.0,0.0,93.53
2025-08-15T02:01:57.269Z,5,GR86-025-47,53.7,0.318,1.065,100.0,2.0,,0.0,0.0,
