timestamp,lap,vehicle_id,steering_angle,accx_can,accy_can,ath,gear,nmot,pbrake_f,pbrake_r,speed
2025-08-15T02:18:16.936Z,12,GR86-006-7,3.4000000000000004,0.096,-0.003,99.76,5.0,,0.0,0.0,
2025-08-15T02:18:16.979Z,12,GR86-006-7,3.4000000000000004,0.114,-0.006,99.74,5.0,,0.0,0.0,
2025-08-15T02:18:17.067Z,12,GR86-006-7,3.4000000000000004,0.126,-0.018,99.75,5.0,6282.0,0.0,0.0,185.53
2025-08-15T02:18:17.110Z,12,GR86-006-7,3.4000000000000004,0.121,-0.033,99.75,5.0,,0.0,0.0,
2025-08-15T02:18:17.153Z,12,GR86-006-7,3.4000000000000004,0.087,-0.035,99.74,5.0,,0.0,0.0,
2025-08-15T02:18:17.196Z,12,GR86-006-7,3.4000000000000004,0.099,-0.046,99.74,5.0,,0.0,0.0,
2025-08-15T02:18:17.239Z,12,GR86-006-7,3.5,0.104,-0.044,99.74,5.0,6334.0,0.0,0.0,
2025-08-15T02:18:17.284Z,12,GR86-006-7,3.5,0.089,-0.016,99.74,5.0,,0.0,0.0,186.17
2025-08-15T02:18:17.327Z,12,GR86-006-7,3.5,0.115,-0.014,99.76,5.0,,0.0,0.0,
2025-08-15T02:18:17.370Z,12,GR86-006-7,3.6,0.108,-0.001,99.73,5.0,,0.0,0.0,
2025-08-15T02:18:17.413Z,12,GR86-006-7,3.6,0.115,-0.01,99.74,5.0,,0.0,0.0,
2025-08-15T02:18:17.457Z,12,GR86-006-7,3.6,0.108,0.005,99.75,5.0,6354.0,0.0,0.0,
2025-08-15T02:18:17.500Z,12,GR86-006-7,3.4000000000000004,0.096,0.003,99.74,5.0,,0.0,0.0,186.97
2025-08-15T02:18:17.543Z,12,GR86-006-7,3.3000000000000003,0.105,0.01,99.75,5.0,,0.0,0.0,
2025-08-15T02:18:17.586Z,12,GR86-006-7,3.2,0.095,0.035,99.74,5.0,,0.0,0.0,
2025-08-15T02:18:17.629Z,12,GR86-006-7,3.4000000000000004,0.089,0.059,99.75,5.0,,0.0,0.0,
2025-08-15T02:18:17.672Z,12,GR86-006-7,3.5,0.118,0.046,99.73,5.0,6379.0,0.0,0.0,
2025-08-15T02:18:17.715Z,12,GR86-006-7,3.6,0.109,0.049,99.74,5.0,,0.0,0.0,188.34
2025-08-15T02:18:17.758Z,12,GR86-006-7,3.6,0.113,0.053,99.75,5.0,,0.0,0.0,
2025-08-15T02:18:17.802Z,12,GR86-006-7,3.6,0.119,0.062,99.74,5.0,,0.0,0.0,
2025-08-15T02:18:17.847Z,12,GR86-006-7,3.5,0.115,0.062,99.75,5.0,,0.0,0.0,
2025-08-15T02:18:17.890Z,12,GR86-006-7,3.4000000000000004,0.109,0.026,99.74,5.0,6401.0,0.0,0.0,
2025-08-15T02:18:17.933Z,12,GR86-006-7,3.4000000000000004,0.107,0.034,99.74,5.0,,0.0,0.0,189.1
2025-08-15T02:18:17.976Z,12,GR86-006-7,3.3000000000000003,0.105,0.029,99.76,5.0,,0.0,0.0,
2025-08-15T02:18:18.019Z,12,GR86-006-7,3.3000000000000003,0.108,0.039,99.75,5.0,,0.0,0.0,
2025-08-15T02:18:18.062Z,12,GR86-006-7,3.4000000000000004,0.112,0.044,99.74,5.0,,0.0,0.0,
2025-08-15T02:18:18.105Z,12,GR86-006-7,3.4000000000000004,0.122,0.025,99.75,5.0,6431.0,0.0,0.0,
2025-08-15T02:18:18.148Z,12,GR86-006-7,3.4000000000000004,0.101,0.032,99.75,5.0,,0.0,0.0,189.79
2025-08-15T02:18:18.191Z,12,GR86-006-7,3.5,0.122,-0.017,99.73,5.0,,0.0,0.0,
2025-08-15T02:18:18.234Z,12,GR86-006-7,3.5,0.093,0.021,99.75,5.0,,0.0,0.0,
2025-08-15T02:18:18.277Z,12,GR86-006-7,3.5,0.099,0.007,99.74,5.0,,0.0,0.0,
2025-08-15T02:18:18.320Z,12,GR86-006-7,3.4000000000000004,0.102,0.035,99.74,5.0,6479.0,0.0,0.0,
2025-08-15T02:18:18.363Z,12,GR86-006-7,3.4000000000000004,0.095,0.017,99.74,5.0,,0.0,0.0,190.58
2025-08-15T02:18:18.406Z,12,GR86-006-7,3.4000000000000004,0.108,0.017,99.75,5.0,,0.0,0.0,
2025-08-15T02:18:18.449Z,12,GR86-006-7,3.4000000000000004,0.129,0.005,99.74,5.0,,0.0,0.0,
2025-08-15T02:18:18.492Z,12,GR86-006-7,3.4000000000000004,0.085,0.018,99.75,5.0,,0.0,0.0,
2025-08-15T02:18:18.535Z,12,GR86-006-7,3.4000000000000004,0.075,0.006,99.74,5.0,6494.0,0.0,0.0,
2025-08-15T02:18:18.578Z,12,GR86-006-7,3.4000000000000004,0.097,0.012,99.75,5.0,,0.0,0.0,191.31
2025-08-15T02:18:18.621Z,12,GR86-006-7,3.4000000000000004,0.086,-0.006,99.76,5.0,,0.0,0.0,
2025-08-15T02:18:18.664Z,12,GR86-006-7,3.5,0.088,0.002,99.73,5.0,,0.0,0.0,
2025-08-15T02:18:18.707Z,12,GR86-006-7,3.6,0.1,0.037,99.74,5.0,,0.0,0.0,
2025-08-15T02:18:18.750Z,12,GR86-006-7,3.5,0.107,0.043,99.74,5.0,6524.0,0.0,0.0,
2025-08-15T02:18:18.793Z,12,GR86-006-7,3.4000000000000004,0.075,0.023,99.74,5.0,,0.0,0.0,191.98
2025-08-15T02:18:18.837Z,12,GR86-006-7,3.3000000000000003,0.092,0.039,99.74,5.0,,0.0,0.0,
2025-08-15T02:18:18.880Z,12,GR86-006-7,3.4000000000000004,0.064,0.051,99.75,5.0,,0.0,0.0,
2025-08-15T02:18:18.966Z,12,GR86-006-7,3.4000000000000004,0.096,0.047,99.74,5.0,6546.0,0.0,0.0,
2025-08-15T02:18:19.009Z,12,GR86-006-7,3.3000000000000003,0.113,0.011,99.75,5.0,,0.0,0.0,192.75
2025-08-15T02:18:19.052Z,12,GR86-006-7,3.3000000000000003,0.099,-0.018,99.73,5.0,,0.0,0.0,
2025-08-15T02:18:19.095Z,12,GR86-006-7,3.3000000000000003,0.069,0.003,99.75,5.0,,0.0,0.0,
2025-08-15T02:18:19.138Z,12,GR86-006-7,3.3000000000000003,0.078,0.001,99.76,5.0,,0.0,0.0,
2025-08-15T02:18:19.181Z,12,GR86-006-7,3.2,0.067,-0.012,99.74,5.0,6569.0,0.0,0.0,
2025-08-15T02:18:19.224Z,12,GR86-006-7,3.3000000000000003,0.09,0.019,99.73,5.0,,0.0,0.0,193.56
2025-08-15T02:18:19.269Z,12,GR86-006-7,3.3000000000000003,0.073,0.003,99.73,5.0,,0.0,0.0,
2025-08-15T02:18:19.314Z,12,GR86-006-7,3.3000000000000003,0.065,-0.009,99.75,5.0,,0.0,0.0,
2025-08-15T02:18:19.357Z,12,GR86-006-7,3.2,0.083,-0.023,99.73,5.0,,0.0,0.0,
2025-08-15T02:18:19.400Z,12,GR86-006-7,3.2,0.076,-0.012,99.75,5.0,6595.0,0.0,0.0,
2025-08-15T02:18:19.443Z,12,GR86-006-7,3.2,0.066,0.02,99.74,5.0,,0.0,0.0,194.05
2025-08-15T02:18:19.486Z,12,GR86-006-7,3.2,0.074,-0.006,99.75,5.0,,0.0,0.0,
2025-08-15T02:18:19.529Z,12,GR86-006-7,3.2,0.089,0.017,99.75,5.0,,0.0,0.0,
2025-08-15T02:18:19.572Z,12,GR86-006-7,3.2,0.076,-0.011,99.75,5.0,,0.0,0.0,
2025-08-15T02:18:19.618Z,12,GR86-006-7,3.2,0.087,-0.007,99.75,5.0,6624.0,0.0,0.0,
2025-08-15T02:18:19.661Z,12,GR86-006-7,3.3000000000000003,0.071,-0.001,99.75,5.0,,0.0,0.0,194.75
2025-08-15T02:18:19.704Z,12,GR86-006-7,3.2,0.061,-0.006,99.76,5.0,,0.0,0.0,
2025-08-15T02:18:19.747Z,12,GR86-006-7,3.2,0.091,0.002,99.74,5.0,,0.0,0.0,
2025-08-15T02:18:19.790Z,12,GR86-006-7,3.2,0.066,0.003,99.75,5.0,,0.0,0.0,
2025-08-15T02:18:19.833Z,12,GR86-006-7,3.2,0.086,0.009,99.75,5.0,6641.0,0.0,0.0,
2025-08-15T02:18:19.876Z,12,GR86-006-7,3.2,0.074,0.009,99.74,5.0,,0.0,0.0,195.47
2025-08-15T02:18:19.919Z,12,GR86-006-7,3.2,0.071,-0.002,99.75,5.0,,0.0,0.0,
2025-08-15T02:18:19.962Z,12,GR86-006-7,3.2,0.077,-0.018,99.75,5.0,,0.0,0.0,
2025-08-15T02:18:20.005Z,12,GR86-006-7,3.3000000000000003,0.084,0.005,99.75,5.0,,0.0,0.0,
2025-08-15T02:18:20.048Z,12,GR86-006-7,3.4000000000000004,0.098,0.015,99.75,5.0,6668.0,0.0,0.0,
2025-08-15T02:18:20.091Z,12,GR86-006-7,3.4000000000000004,0.091,0.034,99.73,5.0,,0.0,0.0,196.19
2025-08-15T02:18:20.134Z,12,GR86-006-7,3.3000000000000003,0.062,0.004,99.73,5.0,,0.0,0.0,
2025-08-15T02:18:20.177Z,12,GR86-006-7,3.2,0.076,0.031,99.74,5.0,,0.0,0.0,
2025-08-15T02:18:20.220Z,12,GR86-006-7,3.2,0.073,0.011,99.75,5.0,,0.0,0.0,
2025-08-15T02:18:20.264Z,12,GR86-006-7,3.2,0.085,0.044,99.75,5.0,6697.0,0.0,0.0,
2025-08-15T02:18:20.307Z,12,GR86-006-7,3.2,0.086,0.058,99.74,5.0,,0.0,0.0,196.91
2025-08-15T02:18:20.350Z,12,GR86-006-7,3.3000000000000003,0.104,0.026,99.75,5.0,,0.0,0.0,
2025-08-15T02:18:20.393Z,12,GR86-006-7,3.3000000000000003,0.047,0.033,99.74,5.0,,0.0,0.0,
2025-08-15T02:18:20.436Z,12,GR86-006-7,3.3000000000000003,0.094,0.005,99.74,5.0,,0.0,0.0,
2025-08-15T02:18:20.479Z,12,GR86-006-7,3.4000000000000004,0.066,0.033,99.72,5.0,6713.0,0.0,0.0,
2025-08-15T02:18:20.522Z,12,GR86-006-7,3.3000000000000003,0.099,0.009,99.73,5.0,,0.0,0.0,198.19
2025-08-15T02:18:20.565Z,12,GR86-006-7,3.3000000000000003,0.083,0.043,99.73,5.0,,0.0,0.0,
2025-08-15T02:18:20.608Z,12,GR86-006-7,3.3000000000000003,0.112,0.036,99.75,5.0,,0.0,0.0,
2025-08-15T02:18:20.651Z,12,GR86-006-7,3.4000000000000004,0.089,0.035,99.73,5.0,,0.0,0.0,
2025-08-15T02:18:20.694Z,12,GR86-006-7,3.4000000000000004,0.076,0.055,99.74,5.0,6739.0,0.0,0.0,
2025-08-15T02:18:20.737Z,12,GR86-006-7,3.4000000000000004,0.092,0.068,99.75,5.0,,0.0,0.0,198.81
2025-08-15T02:18:20.780Z,12,GR86-006-7,3.4000000000000004,0.105,0.07,99.73,5.0,,0.0,0.0,
2025-08-15T02:18:20.823Z,12,GR86-006-7,3.3000000000000003,0.081,0.078,99.73,5.0,,0.0,0.0,
2025-08-15T02:18:20.909Z,12,GR86-006-7,3.3000000000000003,0.119,0.086,99.73,5.0,6769.0,0.0,0.0,
2025-08-15T02:18:20.954Z,12,GR86-006-7,3.3000000000000003,0.08,0.095,99.74,5.0,,0.0,0.0,199.6
2025-08-15T02:18:20.997Z,12,GR86-006-7,3.3000000000000003,0.114,0.053,99.74,5.0,,0.0,0.0,
2025-08-15T02:18:21.040Z,12,GR86-006-7,3.3000000000000003,0.089,0.096,99.74,5.0,,0.0,0.0,
2025-08-15T02:18:21.083Z,12,GR86-006-7,3.3000000000000003,0.122,0.033,99.73,5.0,,0.0,0.0,
2025-08-15T02:18:21.126Z,12,GR86-006-7,3.2,0.061,0.029,99.72,5.0,6801.0,0.0,0.0,
2025-08-15T02:18:21.169Z,12,GR86-006-7,3.1,0.092,0.049,99.74,5.0,,0.0,0.0,200.34
2025-08-15T02:18:21.213Z,12,GR86-006-7,3.2,0.13,0.049,99.73,5.0,,0.0,0.0,
2025-08-15T02:18:21.257Z,12,GR86-006-7,3.2,0.069,0.047,99.72,5.0,,0.0,0.0,
2025-08-15T02:18:21.300Z,12,GR86-006-7,3.2,0.091,0.024,99.74,5.0,,0.0,0.0,
2025-08-15T02:18:21.343Z,12,GR86-006-7,3.1,0.066,0.045,99.75,5.0,6838.0,0.0,0.0,
2025-08-15T02:18:21.386Z,12,GR86-006-7,3.1,0.074,0.027,99.74,5.0,,0.0,0.0,201.02
2025-08-15T02:18:21.429Z,12,GR86-006-7,3.1,0.075,0.038,99.76,5.0,,0.0,0.0,
2025-08-15T02:18:21.472Z,12,GR86-006-7,3.1,0.069,0.032,99.74,5.0,,0.0,0.0,
2025-08-15T02:18:21.516Z,12,GR86-006-7,3.1,0.088,0.04,99.75,5.0,,0.0,0.0,
2025-08-15T02:18:21.560Z,12,GR86-006-7,3.1,0.086,-0.011,99.74,5.0,6855.0,0.0,0.0,
2025-08-15T02:18:21.603Z,12,GR86-006-7,3.1,0.075,-0.004,99.74,5.0,,0.0,0.0,201.78
2025-08-15T02:18:21.646Z,12,GR86-006-7,3.2,0.071,0.011,99.73,5.0,,0.0,0.0,
2025-08-15T02:18:21.732Z,12,GR86-006-7,3.2,0.08,0.034,99.75,5.0,,0.0,0.0,
2025-08-15T02:18:21.775Z,12,GR86-006-7,3.0,0.073,0.021,99.75,5.0,6899.0,0.0,0.0,
2025-08-15T02:18:21.818Z,12,GR86-006-7,3.0,0.085,0.0,99.74,5.0,,0.0,0.0,202.53
2025-08-15T02:18:21.862Z,12,GR86-006-7,3.0,0.083,0.026,99.74,5.0,,0.0,0.0,
2025-08-15T02:18:21.905Z,12,GR86-006-7,3.0,0.084,0.001,99.74,5.0,,0.0,0.0,
2025-08-15T02:18:21.949Z,12,GR86-006-7,3.1,0.073,0.032,99.75,5.0,,0.0,0.0,
2025-08-15T02:18:21.992Z,12,GR86-006-7,3.2,0.088,0.031,99.75,5.0,6905.0,0.0,0.0,
2025-08-15T02:18:22.035Z,12,GR86-006-7,3.2,0.092,0.053,99.75,5.0,,0.0,0.0,203.29
2025-08-15T02:18:22.078Z,12,GR86-006-7,3.1,0.075,0.024,99.73,5.0,,0.0,0.0,
2025-08-15T02:18:22.121Z,12,GR86-006-7,3.0,0.093,0.004,99.74,5.0,,0.0,0.0,
2025-08-15T02:18:22.164Z,12,GR86-006-7,3.0,0.073,0.0,99.75,5.0,,0.0,0.0,
2025-08-15T02:18:22.207Z,12,GR86-006-7,3.1,0.089,0.009,99.75,5.0,6935.0,0.0,0.0,
2025-08-15T02:18:22.250Z,12,GR86-006-7,3.1,0.062,0.034,99.74,5.0,,0.0,0.0,203.95
2025-08-15T02:18:22.293Z,12,GR86-006-7,3.0,0.062,0.019,99.74,5.0,,0.0,0.0,
2025-08-15T02:18:22.336Z,12,GR86-006-7,3.0,0.092,0.002,99.74,5.0,,0.0,0.0,
2025-08-15T02:18:22.379Z,12,GR86-006-7,3.0,0.069,0.027,99.75,5.0,,0.0,0.0,
2025-08-15T02:18:22.422Z,12,GR86-006-7,3.0,0.071,0.03,99.75,5.0,6949.0,0.0,0.0,
2025-08-15T02:18:22.468Z,12,GR86-006-7,3.2,0.065,0.014,99.74,5.0,,0.0,0.0,204.7
2025-08-15T02:18:22.511Z,12,GR86-006-7,3.2,0.083,0.014,99.76,5.0,,0.0,0.0,
2025-08-15T02:18:22.554Z,12,GR86-006-7,3.3000000000000003,0.072,0.004,99.74,5.0,,0.0,0.0,
2025-08-15T02:18:22.597Z,12,GR86-006-7,3.5,0.068,0.041,99.74,5.0,,0.0,0.0,
2025-08-15T02:18:22.683Z,12,GR86-006-7,4.0,0.075,0.068,99.74,5.0,,0.0,0.0,205.33
2025-08-15T02:18:22.769Z,12,GR86-006-7,4.3,0.079,0.083,99.73,5.0,,0.0,0.0,
2025-08-15T02:18:22.813Z,12,GR86-006-7,4.2,0.063,0.1,99.74,5.0,6978.0,0.0,0.0,
2025-08-15T02:18:22.857Z,12,GR86-006-7,4.1000000000000005,0.044,0.103,99.74,5.0,6995.0,0.0,0.0,
2025-08-15T02:18:22.900Z,12,GR86-006-7,4.1000000000000005,0.096,0.122,99.72,5.0,,0.0,0.0,205.98
2025-08-15T02:18:22.943Z,12,GR86-006-7,4.1000000000000005,0.061,0.113,99.74,5.0,,0.0,0.0,
2025-08-15T02:18:22.986Z,12,GR86-006-7,4.1000000000000005,0.085,0.114,99.73,5.0,,0.0,0.0,
2025-08-15T02:18:23.029Z,12,GR86-006-7,4.1000000000000005,0.062,0.092,99.73,5.0,,0.0,0.0,
2025-08-15T02:18:23.115Z,12,GR86-006-7,4.1000000000000005,0.072,0.102,99.75,5.0,7011.0,0.0,0.0,207.14
2025-08-15T02:18:23.158Z,12,GR86-006-7,4.0,0.046,0.104,99.74,5.0,,0.0,0.0,
2025-08-15T02:18:23.201Z,12,GR86-006-7,4.0,0.078,0.132,99.74,5.0,,0.0,0.0,
2025-08-15T02:18:23.244Z,12,GR86-006-7,4.0,0.065,0.128,99.73,5.0,,0.0,0.0,
2025-08-15T02:18:23.287Z,12,GR86-006-7,4.0,0.081,0.092,99.74,5.0,7033.0,0.0,0.0,
2025-08-15T02:18:23.330Z,12,GR86-006-7,3.9,0.085,0.057,99.74,5.0,,0.0,0.0,207.65
2025-08-15T02:18:23.373Z,12,GR86-006-7,3.9,0.06,0.058,99.74,5.0,,0.0,0.0,
2025-08-15T02:18:23.416Z,12,GR86-006-7,3.8,0.088,0.066,99.75,5.0,,0.0,0.0,
2025-08-15T02:18:23.459Z,12,GR86-006-7,3.8,0.084,0.076,99.73,5.0,,0.0,0.0,
2025-08-15T02:18:23.502Z,12,GR86-006-7,3.8,0.091,0.06,99.74,5.0,7050.0,0.0,0.0,
2025-08-15T02:18:23.548Z,12,GR86-006-7,3.8,0.074,0.065,99.73,5.0,,0.0,0.0,208.3
2025-08-15T02:18:23.591Z,12,GR86-006-7,3.8,0.057,0.059,99.72,5.0,,0.0,0.0,
2025-08-15T02:18:23.634Z,12,GR86-006-7,3.7,0.094,0.009,99.74,5.0,,0.0,0.0,
2025-08-15T02:18:23.677Z,12,GR86-006-7,3.6,0.072,0.022,99.72,5.0,,0.0,0.0,
2025-08-15T02:18:23.720Z,12,GR86-006-7,3.6,0.068,0.025,99.75,5.0,7089.0,0.0,0.0,
2025-08-15T02:18:23.763Z,12,GR86-006-7,3.7,0.063,0.02,99.72,5.0,,0.0,0.0,208.76
2025-08-15T02:18:23.806Z,12,GR86-006-7,3.7,0.079,0.032,99.75,5.0,,0.0,0.0,
2025-08-15T02:18:23.849Z,12,GR86-006-7,3.7,0.104,0.013,99.74,5.0,,0.0,0.0,
2025-08-15T02:18:23.892Z,12,GR86-006-7,3.7,0.078,0.003,99.72,5.0,,0.0,0.0,
2025-08-15T02:18:23.935Z,12,GR86-006-7,3.7,0.091,0.017,99.75,5.0,7102.0,0.0,0.0,
2025-08-15T02:18:23.978Z,12,GR86-006-7,3.7,0.088,-0.012,99.73,5.0,,0.0,0.0,209.43
2025-08-15T02:18:24.021Z,12,GR86-006-7,3.7,0.089,0.005,99.71,5.0,,0.0,0.0,
2025-08-15T02:18:24.064Z,12,GR86-006-7,3.7,0.082,-0.02,99.74,5.0,,0.0,0.0,
2025-08-15T02:18:24.107Z,12,GR86-006-7,3.6,0.058,-0.005,99.75,5.0,,0.0,0.0,
2025-08-15T02:18:24.150Z,12,GR86-006-7,3.6,0.082,-0.002,99.75,5.0,7132.0,0.0,0.0,
2025-08-15T02:18:24.193Z,12,GR86-006-7,3.6,0.065,-0.026,99.75,5.0,,0.0,0.0,209.87
2025-08-15T02:18:24.236Z,12,GR86-006-7,3.6,0.051,-0.028,99.73,5.0,,0.0,0.0,
2025-08-15T02:18:24.279Z,12,GR86-006-7,3.6,0.072,0.004,99.74,5.0,,0.0,0.0,
2025-08-15T02:18:24.323Z,12,GR86-006-7,3.6,0.081,-0.016,99.73,5.0,,0.0,0.0,
2025-08-15T02:18:24.366Z,12,GR86-006-7,3.6,0.092,-0.001,99.75,5.0,7157.0,0.0,0.0,
2025-08-15T02:18:24.409Z,12,GR86-006-7,3.6,0.097,-0.039,99.75,5.0,,0.0,0.0,210.53
2025-08-15T02:18:24.452Z,12,GR86-006-7,3.6,0.084,-0.006,99.75,5.0,,0.0,0.0,
2025-08-15T02:18:24.495Z,12,GR86-006-7,3.6,0.092,-0.047,99.75,5.0,,0.0,0.0,
2025-08-15T02:18:24.581Z,12,GR86-006-7,3.6,0.073,-0.019,99.73,5.0,7172.0,0.0,0.0,
2025-08-15T02:18:24.624Z,12,GR86-006-7,3.6,0.05,-0.001,99.72,5.0,,0.0,0.0,211.14
2025-08-15T02:18:24.668Z,12,GR86-006-7,3.6,0.078,-0.024,99.73,5.0,,0.0,0.0,
2025-08-15T02:18:24.711Z,12,GR86-006-7,3.6,0.086,-0.039,99.74,5.0,,0.0,0.0,
2025-08-15T02:18:24.754Z,12,GR86-006-7,3.6,0.063,-0.002,99.75,5.0,,0.0,0.0,
2025-08-15T02:18:24.797Z,12,GR86-006-7,3.6,0.065,0.0,99.74,5.0,7197.0,0.0,0.0,
2025-08-15T02:18:24.840Z,12,GR86-006-7,3.6,0.09,-0.015,99.74,5.0,,0.0,0.0,211.77
2025-08-15T02:18:24.883Z,12,GR86-006-7,3.7,0.097,-0.01,99.74,5.0,,0.0,0.0,
2025-08-15T02:18:24.926Z,12,GR86-006-7,3.7,0.06,-0.008,99.74,5.0,,0.0,0.0,
2025-08-15T02:18:24.969Z,12,GR86-006-7,3.7,0.064,-0.007,99.75,5.0,,0.0,0.0,
2025-08-15T02:18:25.013Z,12,GR86-006-7,3.6,0.074,-0.035,99.72,5.0,7207.0,0.0,0.0,
2025-08-15T02:18:25.057Z,12,GR86-006-7,3.5,0.051,-0.004,99.74,5.0,,0.0,0.0,212.36
2025-08-15T02:18:25.100Z,12,GR86-006-7,3.5,0.061,0.019,99.74,5.0,,0.0,0.0,
2025-08-15T02:18:25.143Z,12,GR86-006-7,3.6,0.083,0.017,99.75,5.0,,0.0,0.0,
2025-08-15T02:18:25.186Z,12,GR86-006-7,3.6,0.073,0.014,99.74,5.0,,0.0,0.0,
2025-08-15T02:18:25.229Z,12,GR86-006-7,3.6,0.102,0.02,99.74,5.0,7231.0,0.0,0.0,
2025-08-15T02:18:25.274Z,12,GR86-006-7,3.7,0.068,0.046,99.74,5.0,,0.0,0.0,212.97
2025-08-15T02:18:25.317Z,12,GR86-006-7,3.8,0.068,0.057,99.73,5.0,,0.0,0.0,
2025-08-15T02:18:25.361Z,12,GR86-006-7,3.7,0.069,0.058,99.72,5.0,,0.0,0.0,
2025-08-15T02:18:25.404Z,12,GR86-006-7,3.6,0.047,0.075,99.75,5.0,,0.0,0.0,
2025-08-15T02:18:25.447Z,12,GR86-006-7,3.4000000000000004,0.05,0.08,99.74,5.0,7256.0,0.0,0.0,
2025-08-15T02:18:25.490Z,12,GR86-006-7,3.4000000000000004,0.073,0.06,99.72,5.0,,0.0,0.0,213.53
2025-08-15T02:18:25.533Z,12,GR86-006-7,2.6,0.042,0.009,99.75,5.0,,0.0,0.0,
2025-08-15T02:18:25.576Z,12,GR86-006-7,2.0,0.074,0.0,99.72,5.0,,0.0,0.0,
2025-08-15T02:18:25.619Z,12,GR86-006-7,2.1,0.065,-0.048,99.75,5.0,,0.0,0.0,
2025-08-15T02:18:25.662Z,12,GR86-006-7,2.2,0.085,-0.093,71.32000000000001,5.0,7273.0,4.305,4.44,
2025-08-15T02:18:25.705Z,12,GR86-006-7,2.3000000000000003,0.003,-0.13,33.51,5.0,,13.305,13.335,214.07
2025-08-15T02:18:25.748Z,12,GR86-006-7,2.3000000000000003,-0.127,-0.177,2.92,5.0,,26.02,25.895,
2025-08-15T02:18:25.791Z,12,GR86-006-7,2.4000000000000004,-0.464,-0.138,4.95,5.0,,40.99,40.425,
2025-08-15T02:18:25.834Z,12,GR86-006-7,2.3000000000000003,-1.038,-0.113,4.72,5.0,,62.43,61.45,
2025-08-15T02:18:25.877Z,12,GR86-006-7,2.3000000000000003,-1.175,-0.108,4.53,5.0,7289.0,71.265,70.33500000000001,
2025-08-15T02:18:25.920Z,12,GR86-006-7,2.3000000000000003,-1.286,-0.107,4.18,5.0,,75.905,76.83500000000001,214.97
2025-08-15T02:18:25.963Z,12,GR86-006-7,2.6,-1.291,-0.079,3.68,5.0,,78.635,80.62,
2025-08-15T02:18:26.006Z,12,GR86-006-7,3.1,-1.16,-0.107,3.35,5.0,,77.92,78.515,
2025-08-15T02:18:26.049Z,12,GR86-006-7,3.2,-1.156,-0.072,3.08,5.0,,77.215,78.515,
2025-08-15T02:18:26.092Z,12,GR86-006-7,3.2,-1.165,-0.144,5.5600000000000005,5.0,7298.0,76.59,77.43,
2025-08-15T02:18:26.135Z,12,GR86-006-7,3.9,-1.184,-0.156,44.82,5.0,,75.46000000000001,75.52,212.2
2025-08-15T02:18:26.178Z,12,GR86-006-7,6.5,-1.232,-0.121,89.08,4.0,,77.05,78.515,
2025-08-15T02:18:26.221Z,12,GR86-006-7,7.6,-1.262,-0.115,69.03,4.0,,80.375,81.305,
2025-08-15T02:18:26.264Z,12,GR86-006-7,7.800000000000001,-1.392,-0.144,2.9,4.0,,83.015,84.235,
2025-08-15T02:18:26.307Z,12,GR86-006-7,7.7,-1.225,-0.083,2.74,4.0,6784.0,86.34,88.645,
2025-08-15T02:18:26.350Z,12,GR86-006-7,7.7,-1.136,-0.207,2.71,4.0,,85.9,86.4,202.2
2025-08-15T02:18:26.393Z,12,GR86-006-7,7.5,-1.195,-0.144,2.69,4.0,,85.5,87.455,
2025-08-15T02:18:26.436Z,12,GR86-006-7,7.5,-1.245,-0.186,2.68,4.0,,86.74,88.765,
2025-08-15T02:18:26.479Z,12,GR86-006-7,7.5,-1.155,-0.407,2.66,4.0,,85.09,85.84,
2025-08-15T02:18:26.522Z,12,GR86-006-7,7.6,-1.303,-0.146,2.64,4.0,6965.0,84.89,86.34,
2025-08-15T02:18:26.566Z,12,GR86-006-7,7.5,-1.233,-0.203,2.62,4.0,,85.84,87.33500000000001,192.72
2025-08-15T02:18:26.609Z,12,GR86-006-7,7.5,-1.234,-0.327,2.62,4.0,,85.47,86.495,
2025-08-15T02:18:26.654Z,12,GR86-006-7,7.4,-1.254,-0.134,2.58,4.0,,84.95,85.93,
2025-08-15T02:18:26.698Z,12,GR86-006-7,7.0,-1.24,-0.274,2.58,4.0,,86.095,87.9,
2025-08-15T02:18:26.741Z,12,GR86-006-7,5.4,-1.237,-0.276,2.56,4.0,6842.0,85.745,86.465,
2025-08-15T02:18:26.784Z,12,GR86-006-7,4.3,-1.248,-0.265,2.5500000000000003,4.0,,85.15,85.84,185.83
2025-08-15T02:18:26.827Z,12,GR86-006-7,4.1000000000000005,-1.191,-0.308,2.54,4.0,,86.31,87.93,
2025-08-15T02:18:26.870Z,12,GR86-006-7,4.2,-1.227,-0.331,2.52,4.0,,86.035,86.74,
2025-08-15T02:18:26.914Z,12,GR86-006-7,4.3,-1.216,-0.365,36.31,4.0,,84.45,84.58500000000001,
2025-08-15T02:18:26.957Z,12,GR86-006-7,4.3,-1.229,-0.349,42.48,3.0,6486.0,85.47,86.74,
2025-08-15T02:18:27.000Z,12,GR86-006-7,4.3,-1.344,-0.329,4.82,3.0,,86.845,88.495,177.33
2025-08-15T02:18:27.043Z,12,GR86-006-7,4.4,-1.273,-0.329,4.25,3.0,,87.715,89.865,
2025-08-15T02:18:27.086Z,12,GR86-006-7,4.5,-1.319,-0.508,3.92,3.0,,85.24,86.22,
2025-08-15T02:18:27.129Z,12,GR86-006-7,4.6000000000000005,-1.187,-0.533,3.52,3.0,,72.01,73.49,
2025-08-15T02:18:27.172Z,12,GR86-006-7,6.6000000000000005,-0.925,-0.586,3.15,3.0,6219.0,58.875,60.11,
2025-08-15T02:18:27.217Z,12,GR86-006-7,9.3,-0.855,-0.753,2.97,3.0,,52.83,53.715,168.91
2025-08-15T02:18:27.260Z,12,GR86-006-7,10.2,-0.993,-0.531,2.84,3.0,,48.48,49.49,
2025-08-15T02:18:27.303Z,12,GR86-006-7,10.2,-0.734,-0.681,2.74,3.0,,46.955,48.36,
2025-08-15T02:18:27.389Z,12,GR86-006-7,5.6000000000000005,-0.865,-0.595,2.65,3.0,6624.0,40.96,41.585,
2025-08-15T02:18:27.432Z,12,GR86-006-7,-13.8,-0.847,-0.853,2.62,3.0,,40.865,41.795,161.63
2025-08-15T02:18:27.475Z,12,GR86-006-7,-17.5,-0.799,-0.97,2.61,3.0,,40.865,41.585,
2025-08-15T02:18:27.518Z,12,GR86-006-7,-16.8,-0.753,-0.8190000000000001,2.58,3.0,,39.065,39.645,
2025-08-15T02:18:27.561Z,12,GR86-006-7,-16.5,-0.742,-0.905,2.56,3.0,,35.34,36.365,
2025-08-15T02:18:27.604Z,12,GR86-006-7,-15.6,-0.6940000000000001,-0.868,2.5500000000000003,3.0,6716.0,29.085,30.11,
2025-08-15T02:18:27.647Z,12,GR86-006-7,-14.8,-0.729,-0.931,2.53,3.0,,24.49,25.605,154.88
2025-08-15T02:18:27.690Z,12,GR86-006-7,-18.0,-0.634,-0.945,2.52,3.0,,20.965,21.805,
2025-08-15T02:18:27.777Z,12,GR86-006-7,-24.6,-0.513,-0.975,2.48,3.0,,18.86,19.52,
2025-08-15T02:18:27.820Z,12,GR86-006-7,-28.0,-0.599,-1.053,2.48,3.0,6476.0,18.955,19.58,
2025-08-15T02:18:27.863Z,12,GR86-006-7,-26.700000000000003,-0.605,-1.115,2.48,3.0,,19.21,19.93,149.41
2025-08-15T02:18:27.906Z,12,GR86-006-7,-25.200000000000003,-0.55,-1.044,2.49,3.0,,18.145,18.955,
2025-08-15T02:18:27.949Z,12,GR86-006-7,-24.6,-0.5740000000000001,-1.136,2.48,3.0,,15.245,16.115000000000002,
2025-08-15T02:18:27.992Z,12,GR86-006-7,-25.5,-0.419,-1.145,2.48,3.0,,8.040000000000001,8.94,
2025-08-15T02:18:28.035Z,12,GR86-006-7,-25.8,-0.354,-1.163,2.47,3.0,6438.0,3.465,4.21,
2025-08-15T02:18:28.078Z,12,GR86-006-7,-25.4,-0.275,-1.235,2.48,3.0,,0.0,0.0,144.05
2025-08-15T02:18:28.121Z,12,GR86-006-7,-23.3,-0.211,-1.244,2.48,3.0,,0.0,0.0,
2025-08-15T02:18:28.164Z,12,GR86-006-7,-21.700000000000003,-0.184,-1.289,2.62,3.0,,0.0,0.0,
2025-08-15T02:18:28.207Z,12,GR86-006-7,-20.9,-0.171,-1.305,3.03,3.0,,0.0,0.0,
2025-08-15T02:18:28.250Z,12,GR86-006-7,-19.700000000000003,-0.17,-1.295,4.29,3.0,6201.0,0.0,0.0,
2025-08-15T02:18:28.293Z,12,GR86-006-7,-13.9,-0.164,-1.33,18.67,3.0,,0.0,0.0,140.69
2025-08-15T02:18:28.336Z,12,GR86-006-7,-7.5,-0.168,-1.359,21.15,3.0,,0.0,0.0,
2025-08-15T02:18:28.379Z,12,GR86-006-7,-0.6000000000000001,-0.137,-1.318,23.68,3.0,,0.0,0.0,
2025-08-15T02:18:28.422Z,12,GR86-006-7,5.800000000000001,-0.104,-1.294,28.77,3.0,,0.0,0.0,
2025-08-15T02:18:28.467Z,12,GR86-006-7,10.5,-0.083,-1.248,30.58,3.0,6122.0,0.0,0.0,
2025-08-15T02:18:28.510Z,12,GR86-006-7,11.1,-0.084,-1.315,33.18,3.0,,0.0,0.0,137.77
2025-08-15T02:18:28.553Z,12,GR86-006-7,10.3,0.094,-1.338,34.97,3.0,,0.0,0.0,
2025-08-15T02:18:28.639Z,12,GR86-006-7,2.7,0.139,-1.283,37.19,3.0,,0.0,0.0,
2025-08-15T02:18:28.726Z,12,GR86-006-7,-2.4000000000000004,0.126,-1.208,37.88,3.0,6046.0,0.0,0.0,134.17000000000002
2025-08-15T02:18:28.769Z,12,GR86-006-7,-16.8,0.122,-1.315,39.7,3.0,,0.0,0.0,
2025-08-15T02:18:28.813Z,12,GR86-006-7,-22.8,0.126,-1.279,48.39,3.0,,0.0,0.0,
2025-08-15T02:18:28.857Z,12,GR86-006-7,-22.3,0.118,-1.295,56.53,3.0,,0.0,0.0,
2025-08-15T02:18:28.900Z,12,GR86-006-7,-22.5,0.13,-1.218,61.35,3.0,6267.0,0.0,0.0,
2025-08-15T02:18:28.943Z,12,GR86-006-7,-25.700000000000003,0.129,-1.263,72.01,3.0,,0.0,0.0,133.03
2025-08-15T02:18:28.986Z,12,GR86-006-7,-26.200000000000003,0.193,-1.18,81.98,3.0,,0.0,0.0,
2025-08-15T02:18:29.029Z,12,GR86-006-7,-24.8,0.121,-1.226,96.29,3.0,,0.0,0.0,
2025-08-15T02:18:29.072Z,12,GR86-006-7,-20.6,0.226,-1.231,99.71,3.0,,0.0,0.0,
2025-08-15T02:18:29.115Z,12,GR86-006-7,-18.9,0.282,-1.12,99.68,3.0,6353.0,0.0,0.0,
2025-08-15T02:18:29.158Z,12,GR86-006-7,-19.200000000000003,0.162,-1.216,99.67,3.0,,0.0,0.0,131.4
2025-08-15T02:18:29.201Z,12,GR86-006-7,-19.9,0.122,-1.102,99.7,3.0,,0.0,0.0,
2025-08-15T02:18:29.244Z,12,GR86-006-7,-18.9,0.088,-1.185,99.67,3.0,,0.0,0.0,
2025-08-15T02:18:29.287Z,12,GR86-006-7,-20.200000000000003,0.142,-1.117,99.7,3.0,,0.0,0.0,
2025-08-15T02:18:29.330Z,12,GR86-006-7,-26.0,0.258,-1.092,99.71,3.0,6487.0,0.0,0.0,
2025-08-15T02:18:29.373Z,12,GR86-006-7,-36.8,0.208,-1.318,99.71,3.0,,0.0,0.0,131.87
2025-08-15T02:18:29.416Z,12,GR86-006-7,-40.5,0.232,-1.187,99.71,3.0,,0.0,0.0,
2025-08-15T02:18:29.459Z,12,GR86-006-7,-42.6,0.148,-1.455,99.71,3.0,,0.0,0.0,
2025-08-15T02:18:29.502Z,12,GR86-006-7,-45.1,0.122,-1.4,99.7,3.0,,0.0,0.0,
2025-08-15T02:18:29.546Z,12,GR86-006-7,-49.900000000000006,0.141,-1.314,99.7,3.0,6516.0,0.0,0.0,
2025-08-15T02:18:29.589Z,12,GR86-006-7,-54.0,0.185,-1.284,99.71,3.0,,0.0,0.0,132.48
2025-08-15T02:18:29.632Z,12,GR86-006-7,-55.5,0.206,-1.247,99.72,3.0,,0.0,0.0,
2025-08-15T02:18:29.675Z,12,GR86-006-7,-54.900000000000006,0.171,-1.211,99.71,3.0,,0.0,0.0,
2025-08-15T02:18:29.718Z,12,GR86-006-7,-54.0,0.134,-1.236,99.71,3.0,,0.0,0.0,
2025-08-15T02:18:29.762Z,12,GR86-006-7,-53.5,0.153,-1.173,99.7,3.0,6366.0,0.0,0.0,
2025-08-15T02:18:29.805Z,12,GR86-006-7,-52.1,0.165,-1.194,99.72,3.0,,0.0,0.0,132.81
2025-08-15T02:18:29.848Z,12,GR86-006-7,-51.400000000000006,0.17,-1.266,99.69,3.0,,0.0,0.0,
2025-08-15T02:18:29.892Z,12,GR86-006-7,-51.0,0.184,-1.29,99.71,3.0,,0.0,0.0,
2025-08-15T02:18:29.935Z,12,GR86-006-7,-50.8,0.155,-1.298,99.71,3.0,,0.0,0.0,
2025-08-15T02:18:29.978Z,12,GR86-006-7,-50.6,0.152,-1.277,99.7,3.0,6393.0,0.0,0.0,
2025-08-15T02:18:30.021Z,12,GR86-006-7,-50.3,0.158,-1.251,99.71,3.0,,0.0,0.0,132.36
2025-08-15T02:18:30.064Z,12,GR86-006-7,-50.0,0.172,-1.223,99.7,3.0,,0.0,0.0,
2025-08-15T02:18:30.107Z,12,GR86-006-7,-49.7,0.151,-1.201,99.71,3.0,,0.0,0.0,
2025-08-15T02:18:30.150Z,12,GR86-006-7,-49.5,0.146,-1.176,99.71,3.0,,0.0,0.0,
2025-08-15T02:18:30.193Z,12,GR86-006-7,-49.1,0.125,-1.188,99.71,3.0,6406.0,0.0,0.0,
2025-08-15T02:18:30.236Z,12,GR86-006-7,-48.900000000000006,0.149,-1.235,99.71,3.0,,0.0,0.0,132.85
2025-08-15T02:18:30.279Z,12,GR86-006-7,-48.6,0.168,-1.264,99.71,3.0,,0.0,0.0,
2025-08-15T02:18:30.323Z,12,GR86-006-7,-48.400000000000006,0.174,-1.229,99.68,3.0,,0.0,0.0,
2025-08-15T02:18:30.366Z,12,GR86-006-7,-48.2,0.145,-1.253,99.71,3.0,,0.0,0.0,
2025-08-15T02:18:30.409Z,12,GR86-006-7,-47.900000000000006,0.148,-1.216,99.69,3.0,6409.0,0.0,0.0,
2025-08-15T02:18:30.452Z,12,GR86-006-7,-46.900000000000006,0.169,-1.244,99.7,3.0,,0.0,0.0,133.92000000000002
2025-08-15T02:18:30.495Z,12,GR86-006-7,-42.6,0.156,-1.23,99.7,3.0,,0.0,0.0,
2025-08-15T02:18:30.538Z,12,GR86-006-7,-39.5,0.161,-1.196,99.7,3.0,,0.0,0.0,
2025-08-15T02:18:30.624Z,12,GR86-006-7,-38.6,0.162,-1.239,99.7,3.0,6452.0,0.0,0.0,
2025-08-15T02:18:30.667Z,12,GR86-006-7,-37.5,0.199,-1.208,99.69,3.0,,0.0,0.0,134.75
2025-08-15T02:18:30.710Z,12,GR86-006-7,-36.8,0.165,-1.184,99.71,3.0,,0.0,0.0,
2025-08-15T02:18:30.753Z,12,GR86-006-7,-35.800000000000004,0.177,-1.131,99.69,3.0,,0.0,0.0,
2025-08-15T02:18:30.796Z,12,GR86-006-7,-35.1,0.179,-1.183,99.69,3.0,,0.0,0.0,
2025-08-15T02:18:30.839Z,12,GR86-006-7,-34.2,0.177,-1.158,99.69,3.0,6497.0,0.0,0.0,
2025-08-15T02:18:30.882Z,12,GR86-006-7,-33.5,0.182,-1.1,99.7,3.0,,0.0,0.0,135.7
2025-08-15T02:18:30.925Z,12,GR86-006-7,-32.300000000000004,0.184,-1.049,99.72,3.0,,0.0,0.0,
2025-08-15T02:18:30.968Z,12,GR86-006-7,-29.6,0.206,-0.884,99.7,3.0,,0.0,0.0,
2025-08-15T02:18:31.011Z,12,GR86-006-7,-28.0,0.09,-0.741,99.68,3.0,,0.0,0.0,
2025-08-15T02:18:31.054Z,12,GR86-006-7,-25.200000000000003,0.264,-0.931,99.7,3.0,6530.0,0.0,0.0,
2025-08-15T02:18:31.097Z,12,GR86-006-7,-22.8,0.168,-0.61,99.69,3.0,,0.0,0.0,137.76
2025-08-15T02:18:31.141Z,12,GR86-006-7,-21.1,0.038,-0.779,99.72,3.0,,0.0,0.0,
2025-08-15T02:18:31.184Z,12,GR86-006-7,-20.6,0.051,-1.017,99.71,3.0,,0.0,0.0,
2025-08-15T02:18:31.227Z,12,GR86-006-7,-19.4,0.243,-0.913,99.69,3.0,,0.0,0.0,
2025-08-15T02:18:31.270Z,12,GR86-006-7,-18.5,0.337,-0.839,99.71,3.0,6586.0,0.0,0.0,
2025-08-15T02:18:31.314Z,12,GR86-006-7,-16.1,0.126,-1.24,99.68,3.0,,0.0,0.0,138.02
2025-08-15T02:18:31.357Z,12,GR86-006-7,-14.1,0.232,-1.255,99.69,3.0,,0.0,0.0,
2025-08-15T02:18:31.400Z,12,GR86-006-7,-12.0,0.222,-1.37,99.7,3.0,,0.0,0.0,
2025-08-15T02:18:31.443Z,12,GR86-006-7,-11.1,0.201,-1.406,99.71,3.0,,0.0,0.0,
2025-08-15T02:18:31.486Z,12,GR86-006-7,-9.8,0.22,-1.298,99.69,3.0,6674.0,0.0,0.0,
2025-08-15T02:18:31.529Z,12,GR86-006-7,-8.3,0.261,-1.141,99.7,3.0,,0.0,0.0,139.22
2025-08-15T02:18:31.572Z,12,GR86-006-7,-6.9,0.131,-1.067,99.69,3.0,,0.0,0.0,
2025-08-15T02:18:31.617Z,12,GR86-006-7,-2.3000000000000003,0.192,-1.021,99.72,3.0,,0.0,0.0,
2025-08-15T02:18:31.661Z,12,GR86-006-7,3.2,0.196,-1.004,99.69,3.0,,0.0,0.0,
2025-08-15T02:18:31.747Z,12,GR86-006-7,8.0,0.224,-1.009,99.7,3.0,6741.0,0.0,0.0,141.39
2025-08-15T02:18:31.790Z,12,GR86-006-7,10.3,0.215,-1.013,99.69,3.0,,0.0,0.0,
2025-08-15T02:18:31.833Z,12,GR86-006-7,-0.3,0.182,-1.157,99.7,3.0,,0.0,0.0,
2025-08-15T02:18:31.919Z,12,GR86-006-7,-21.1,0.291,-1.219,99.71,3.0,6876.0,0.0,0.0,
2025-08-15T02:18:31.962Z,12,GR86-006-7,-23.3,0.186,-1.149,99.69,3.0,,0.0,0.0,140.77
2025-08-15T02:18:32.005Z,12,GR86-006-7,-21.9,0.165,-0.971,99.72,3.0,,0.0,0.0,
2025-08-15T02:18:32.048Z,12,GR86-006-7,-20.200000000000003,0.15,-0.93,99.72,3.0,,0.0,0.0,
2025-08-15T02:18:32.091Z,12,GR86-006-7,-19.200000000000003,0.271,-0.76,99.72,3.0,,0.0,0.0,
2025-08-15T02:18:32.134Z,12,GR86-006-7,-15.9,0.202,-0.708,99.7,3.0,6761.0,0.0,0.0,
2025-08-15T02:18:32.177Z,12,GR86-006-7,-12.4,0.19,-0.537,99.71,3.0,,0.0,0.0,141.65
2025-08-15T02:18:32.220Z,12,GR86-006-7,-10.4,0.249,-0.455,99.71,3.0,,0.0,0.0,
2025-08-15T02:18:32.263Z,12,GR86-006-7,-10.1,0.176,-0.43,99.68,3.0,,0.0,0.0,
2025-08-15T02:18:32.349Z,12,GR86-006-7,-9.1,0.15,-0.435,99.68,3.0,6764.0,0.0,0.0,
2025-08-15T02:18:32.392Z,12,GR86-006-7,-4.6000000000000005,0.173,-0.288,99.68,3.0,,0.0,0.0,142.1
2025-08-15T02:18:32.435Z,12,GR86-006-7,-4.3,0.166,-0.237,99.67,3.0,,0.0,0.0,
2025-08-15T02:18:32.478Z,12,GR86-006-7,-4.2,0.17,-0.303,99.7,3.0,,0.0,0.0,
2025-08-15T02:18:32.521Z,12,GR86-006-7,-3.0,0.201,-0.248,99.71,3.0,,0.0,0.0,
2025-08-15T02:18:32.564Z,12,GR86-006-7,-1.0,0.106,-0.229,99.7,3.0,6804.0,0.0,0.0,
2025-08-15T02:18:32.607Z,12,GR86-006-7,0.8,0.232,-0.243,99.7,3.0,,0.0,0.0,143.99
2025-08-15T02:18:32.650Z,12,GR86-006-7,1.4,0.208,-0.098,99.7,3.0,,0.0,0.0,
2025-08-15T02:18:32.693Z,12,GR86-006-7,2.9000000000000004,0.159,-0.069,99.7,3.0,,0.0,0.0,
2025-08-15T02:18:32.736Z,12,GR86-006-7,4.2,0.1,-0.131,99.72,3.0,,0.0,0.0,
2025-08-15T02:18:32.779Z,12,GR86-006-7,5.9,0.245,-0.153,99.67,3.0,6888.0,0.0,0.0,
2025-08-15T02:18:32.822Z,12,GR86-006-7,6.9,0.275,-0.038,99.69,3.0,,0.0,0.0,145.54
2025-08-15T02:18:32.865Z,12,GR86-006-7,7.300000000000001,0.165,-0.011,99.7,3.0,,0.0,0.0,
2025-08-15T02:18:32.908Z,12,GR86-006-7,8.5,0.184,-0.034,99.7,3.0,,0.0,0.0,
2025-08-15T02:18:32.951Z,12,GR86-006-7,9.2,0.243,0.014,99.7,3.0,,0.0,0.0,
2025-08-15T02:18:32.994Z,12,GR86-006-7,9.1,0.215,0.161,99.71,3.0,7036.0,0.0,0.0,
2025-08-15T02:18:33.037Z,12,GR86-006-7,9.8,0.075,0.128,99.69,3.0,,0.0,0.0,146.82
2025-08-15T02:18:33.080Z,12,GR86-006-7,10.0,0.076,0.243,99.72,3.0,,0.0,0.0,
2025-08-15T02:18:33.123Z,12,GR86-006-7,10.7,0.227,0.281,99.7,3.0,,0.0,0.0,
2025-08-15T02:18:33.166Z,12,GR86-006-7,10.9,0.204,0.333,99.71,3.0,,0.0,0.0,
2025-08-15T02:18:33.209Z,12,GR86-006-7,10.7,0.136,0.367,99.71,3.0,7033.0,0.0,0.0,
2025-08-15T02:18:33.254Z,12,GR86-006-7,10.9,0.26,0.39,99.68,3.0,,0.0,0.0,148.64
2025-08-15T02:18:33.297Z,12,GR86-006-7,10.4,0.154,0.378,99.72,3.0,,0.0,0.0,
2025-08-15T02:18:33.340Z,12,GR86-006-7,9.5,0.047,0.344,99.7,3.0,,0.0,0.0,
2025-08-15T02:18:33.383Z,12,GR86-006-7,8.9,0.04,0.468,99.71,3.0,,0.0,0.0,
2025-08-15T02:18:33.426Z,12,GR86-006-7,8.9,0.295,0.323,99.71,3.0,7120.0,0.0,0.0,
2025-08-15T02:18:33.469Z,12,GR86-006-7,8.9,0.2,0.411,99.69,3.0,,0.0,0.0,149.86
2025-08-15T02:18:33.514Z,12,GR86-006-7,8.9,0.155,0.298,99.71,3.0,,0.0,0.0,
2025-08-15T02:18:33.557Z,12,GR86-006-7,8.8,0.151,0.269,99.71,3.0,,0.0,0.0,
2025-08-15T02:18:33.600Z,12,GR86-006-7,8.700000000000001,0.178,0.27,99.72,3.0,,0.0,0.0,
2025-08-15T02:18:33.643Z,12,GR86-006-7,8.6,0.211,0.217,99.7,3.0,7089.0,0.0,0.0,
2025-08-15T02:18:33.686Z,12,GR86-006-7,8.5,0.219,0.199,99.7,3.0,,0.0,0.0,151.22
2025-08-15T02:18:33.729Z,12,GR86-006-7,8.4,0.198,0.158,99.71,3.0,,0.0,0.0,
2025-08-15T02:18:33.772Z,12,GR86-006-7,8.4,0.151,0.14,99.71,4.0,,0.0,0.0,
2025-08-15T02:18:33.817Z,12,GR86-006-7,8.200000000000001,-0.119,0.161,99.72,4.0,,0.0,0.0,
2025-08-15T02:18:33.861Z,12,GR86-006-7,8.200000000000001,0.499,0.178,99.72,4.0,7148.0,0.0,0.0,
2025-08-15T02:18:33.904Z,12,GR86-006-7,8.200000000000001,0.282,0.049,99.7,4.0,,0.0,0.0,152.63
2025-08-15T02:18:33.947Z,12,GR86-006-7,8.0,0.243,0.148,99.71,4.0,,0.0,0.0,
2025-08-15T02:18:33.990Z,12,GR86-006-7,7.9,0.075,0.178,99.72,4.0,,0.0,0.0,
2025-08-15T02:18:34.033Z,12,GR86-006-7,7.9,0.14,0.087,99.69,4.0,,0.0,0.0,
2025-08-15T02:18:34.076Z,12,GR86-006-7,7.9,0.181,0.177,99.71,4.0,7247.0,0.0,0.0,
2025-08-15T02:18:34.119Z,12,GR86-006-7,7.9,0.156,0.086,99.72,4.0,,0.0,0.0,155.72
2025-08-15T02:18:34.162Z,12,GR86-006-7,7.9,0.128,0.098,99.71,4.0,,0.0,0.0,
2025-08-15T02:18:34.205Z,12,GR86-006-7,7.800000000000001,0.161,0.142,99.68,4.0,,0.0,0.0,
2025-08-15T02:18:34.249Z,12,GR86-006-7,7.800000000000001,0.184,0.088,99.72,4.0,,0.0,0.0,
2025-08-15T02:18:34.292Z,12,GR86-006-7,7.800000000000001,0.153,0.091,99.71,4.0,6277.0,0.0,0.0,
2025-08-15T02:18:34.335Z,12,GR86-006-7,7.800000000000001,0.159,0.086,99.71,4.0,,0.0,0.0,157.32
2025-08-15T02:18:34.378Z,12,GR86-006-7,7.800000000000001,0.171,0.087,99.71,4.0,,0.0,0.0,
2025-08-15T02:18:34.421Z,12,GR86-006-7,7.800000000000001,0.143,0.081,99.72,4.0,,0.0,0.0,
2025-08-15T02:18:34.464Z,12,GR86-006-7,7.800000000000001,0.169,0.088,99.72,4.0,,0.0,0.0,
2025-08-15T02:18:34.507Z,12,GR86-006-7,7.800000000000001,0.141,0.069,99.69,4.0,6199.0,0.0,0.0,
2025-08-15T02:18:34.550Z,12,GR86-006-7,7.800000000000001,0.146,0.066,99.72,4.0,,0.0,0.0,158.8
2025-08-15T02:18:34.593Z,12,GR86-006-7,7.7,0.157,0.082,99.71,4.0,,0.0,0.0,
2025-08-15T02:18:34.636Z,12,GR86-006-7,7.5,0.141,0.071,99.71,4.0,,0.0,0.0,
2025-08-15T02:18:34.679Z,12,GR86-006-7,7.5,0.145,0.073,99.71,4.0,,0.0,0.0,
2025-08-15T02:18:34.724Z,12,GR86-006-7,7.0,0.134,0.054,99.71,4.0,6331.0,0.0,0.0,
2025-08-15T02:18:34.768Z,12,GR86-006-7,6.6000000000000005,0.135,0.033,99.72,4.0,,0.0,0.0,160.37
2025-08-15T02:18:34.811Z,12,GR86-006-7,6.6000000000000005,0.119,0.028,99.7,4.0,,0.0,0.0,
2025-08-15T02:18:34.854Z,12,GR86-006-7,6.6000000000000005,0.141,0.021,99.71,4.0,,0.0,0.0,
2025-08-15T02:18:34.898Z,12,GR86-006-7,6.6000000000000005,0.131,0.015,99.72,4.0,,0.0,0.0,
2025-08-15T02:18:34.941Z,12,GR86-006-7,6.5,0.14,-0.002,99.7,4.0,6385.0,0.0,0.0,
2025-08-15T02:18:34.984Z,12,GR86-006-7,6.5,0.13,-0.033,99.72,4.0,,0.0,0.0,161.96
2025-08-15T02:18:35.027Z,12,GR86-006-7,6.5,0.164,-0.019,99.71,4.0,,0.0,0.0,
2025-08-15T02:18:35.070Z,12,GR86-006-7,6.5,0.147,-0.017,99.7,4.0,,0.0,0.0,
2025-08-15T02:18:35.114Z,12,GR86-006-7,6.5,0.11,-0.024,99.69,4.0,,0.0,0.0,
2025-08-15T02:18:35.157Z,12,GR86-006-7,6.5,0.114,-0.04,99.71,4.0,6438.0,0.0,0.0,
2025-08-15T02:18:35.200Z,12,GR86-006-7,6.5,0.137,-0.033,99.72,4.0,,0.0,0.0,163.54
2025-08-15T02:18:35.243Z,12,GR86-006-7,6.5,0.152,-0.021,99.71,4.0,,0.0,0.0,
2025-08-15T02:18:35.286Z,12,GR86-006-7,6.5,0.14,0.0,99.7,4.0,,0.0,0.0,
2025-08-15T02:18:35.329Z,12,GR86-006-7,6.5,0.147,0.003,99.71,4.0,,0.0,0.0,
2025-08-15T02:18:35.372Z,12,GR86-006-7,6.5,0.136,-0.018,99.71,4.0,6498.0,0.0,0.0,
2025-08-15T02:18:35.415Z,12,GR86-006-7,6.5,0.125,-0.025,99.71,4.0,,0.0,0.0,165.04
2025-08-15T02:18:35.458Z,12,GR86-006-7,6.4,0.138,-0.011,99.71,4.0,,0.0,0.0,
2025-08-15T02:18:35.501Z,12,GR86-006-7,6.4,0.146,-0.02,99.71,4.0,,0.0,0.0,
2025-08-15T02:18:35.544Z,12,GR86-006-7,5.2,0.16,-0.013,99.69,4.0,,0.0,0.0,
2025-08-15T02:18:35.587Z,12,GR86-006-7,4.0,0.181,-0.024,99.7,4.0,6564.0,0.0,0.0,
2025-08-15T02:18:35.630Z,12,GR86-006-7,3.3000000000000003,0.149,-0.043,99.7,4.0,,0.0,0.0,166.59
2025-08-15T02:18:35.716Z,12,GR86-006-7,2.3000000000000003,0.133,-0.107,99.71,4.0,,0.0,0.0,
2025-08-15T02:18:35.759Z,12,GR86-006-7,1.7000000000000002,0.134,-0.137,99.7,4.0,,0.0,0.0,
2025-08-15T02:18:35.802Z,12,GR86-006-7,1.0,0.165,-0.148,99.71,4.0,6632.0,2.61,2.825,
2025-08-15T02:18:35.847Z,12,GR86-006-7,0.2,0.136,-0.149,99.68,4.0,,2.795,2.795,168.09
2025-08-15T02:18:35.890Z,12,GR86-006-7,-0.5,0.146,-0.177,99.68,4.0,,2.105,2.165,
2025-08-15T02:18:35.933Z,12,GR86-006-7,-0.8,0.101,-0.224,99.72,4.0,,0.0,0.0,
2025-08-15T02:18:35.976Z,12,GR86-006-7,-1.2000000000000002,0.116,-0.265,99.7,4.0,,0.0,0.0,
2025-08-15T02:18:36.019Z,12,GR86-006-7,-2.5,0.111,-0.288,99.7,4.0,6686.0,0.0,0.0,
2025-08-15T02:18:36.105Z,12,GR86-006-7,-3.6,0.135,-0.301,99.71,4.0,,0.0,0.0,169.65
2025-08-15T02:18:36.149Z,12,GR86-006-7,-4.0,0.139,-0.359,99.68,4.0,,0.0,0.0,
2025-08-15T02:18:36.192Z,12,GR86-006-7,-3.8,0.117,-0.377,99.71,4.0,,0.0,0.0,
2025-08-15T02:18:36.235Z,12,GR86-006-7,-3.8,0.109,-0.366,99.72,4.0,6740.0,0.0,0.0,
2025-08-15T02:18:36.278Z,12,GR86-006-7,-3.7,0.117,-0.354,99.69,4.0,,0.0,0.0,171.20000000000002
2025-08-15T02:18:36.321Z,12,GR86-006-7,-3.6,0.115,-0.338,99.69,4.0,,0.0,0.0,
2025-08-15T02:18:36.364Z,12,GR86-006-7,-3.5,0.11,-0.344,99.7,4.0,,0.0,0.0,
2025-08-15T02:18:36.407Z,12,GR86-006-7,-3.4000000000000004,0.115,-0.351,99.71,4.0,,0.0,0.0,
2025-08-15T02:18:36.450Z,12,GR86-006-7,-3.4000000000000004,0.128,-0.353,99.7,4.0,6791.0,0.0,0.0,
2025-08-15T02:18:36.493Z,12,GR86-006-7,-3.4000000000000004,0.145,-0.316,99.7,4.0,,0.0,0.0,172.63
2025-08-15T02:18:36.536Z,12,GR86-006-7,-3.4000000000000004,0.141,-0.295,99.71,4.0,,0.0,0.0,
2025-08-15T02:18:36.579Z,12,GR86-006-7,-3.4000000000000004,0.121,-0.301,99.71,4.0,,0.0,0.0,
2025-08-15T02:18:36.622Z,12,GR86-006-7,-3.3000000000000003,0.148,-0.304,99.7,4.0,,0.0,0.0,
2025-08-15T02:18:36.665Z,12,GR86-006-7,-3.3000000000000003,0.11,-0.271,99.71,4.0,6852.0,0.0,0.0,
2025-08-15T02:18:36.708Z,12,GR86-006-7,-3.3000000000000003,0.116,-0.277,99.7,4.0,,0.0,0.0,173.92000000000002
2025-08-15T02:18:36.751Z,12,GR86-006-7,-3.3000000000000003,0.126,-0.269,99.71,4.0,,0.0,0.0,
2025-08-15T02:18:36.794Z,12,GR86-006-7,-3.3000000000000003,0.164,-0.302,99.7,4.0,,0.0,0.0,
2025-08-15T02:18:36.837Z,12,GR86-006-7,-3.2,0.145,-0.303,99.69,4.0,,0.0,0.0,
2025-08-15T02:18:36.880Z,12,GR86-006-7,-3.1,0.152,-0.294,99.71,4.0,6897.0,0.0,0.0,
2025-08-15T02:18:36.923Z,12,GR86-006-7,-3.1,0.141,-0.296,99.7,4.0,,0.0,0.0,176.61
2025-08-15T02:18:36.966Z,12,GR86-006-7,-3.1,0.164,-0.302,99.68,4.0,,0.0,0.0,
2025-08-15T02:18:37.009Z,12,GR86-006-7,-3.3000000000000003,0.146,-0.334,99.7,4.0,,0.0,0.0,
2025-08-15T02:18:37.052Z,12,GR86-006-7,-3.3000000000000003,0.107,-0.355,99.7,4.0,,0.0,0.0,
2025-08-15T02:18:37.095Z,12,GR86-006-7,-3.1,0.092,-0.373,99.71,4.0,6956.0,0.0,0.0,
2025-08-15T02:18:37.138Z,12,GR86-006-7,-3.0,0.106,-0.364,99.72,4.0,,0.0,0.0,177.91
2025-08-15T02:18:37.181Z,12,GR86-006-7,-3.0,0.11,-0.364,99.71,4.0,,0.0,0.0,
2025-08-15T02:18:37.224Z,12,GR86-006-7,-2.9000000000000004,0.091,-0.346,99.69,4.0,,0.0,0.0,
2025-08-15T02:18:37.268Z,12,GR86-006-7,-2.8000000000000003,0.098,-0.299,99.71,4.0,,0.0,0.0,
2025-08-15T02:18:37.311Z,12,GR86-006-7,-2.8000000000000003,0.103,-0.275,99.69,4.0,7001.0,0.0,0.0,
2025-08-15T02:18:37.354Z,12,GR86-006-7,-2.8000000000000003,0.146,-0.25,69.11,4.0,,6.96,7.08,179.26
2025-08-15T02:18:37.397Z,12,GR86-006-7,-2.7,0.112,-0.224,31.56,4.0,,14.39,14.45,
2025-08-15T02:18:37.440Z,12,GR86-006-7,-2.7,-0.093,-0.182,4.18,4.0,,24.31,24.02,
2025-08-15T02:18:37.483Z,12,GR86-006-7,-1.0,-0.362,-0.152,4.91,4.0,,35.115,34.78,
2025-08-15T02:18:37.526Z,12,GR86-006-7,-0.1,-0.837,-0.09,4.76,4.0,7099.0,46.205,45.69,
2025-08-15T02:18:37.569Z,12,GR86-006-7,0.7000000000000001,-0.906,-0.053,4.57,4.0,,55.075,54.385,180.57
2025-08-15T02:18:37.613Z,12,GR86-006-7,2.1,-1.243,-0.116,3.97,4.0,,61.620000000000005,61.025,
2025-08-15T02:18:37.657Z,12,GR86-006-7,3.2,-1.255,-0.118,3.58,4.0,,62.535,62.305,
2025-08-15T02:18:37.700Z,12,GR86-006-7,5.0,-1.246,-0.146,3.26,4.0,,62.93,62.870000000000005,
2025-08-15T02:18:37.743Z,12,GR86-006-7,6.0,-1.234,-0.126,3.03,4.0,6786.0,62.84,63.055,
2025-08-15T02:18:37.786Z,12,GR86-006-7,5.9,-1.288,-0.109,2.87,4.0,,62.78,63.255,180.7
2025-08-15T02:18:37.829Z,12,GR86-006-7,5.9,-1.261,-0.14,29.64,4.0,,62.565000000000005,63.115,
2025-08-15T02:18:37.872Z,12,GR86-006-7,5.9,-1.285,-0.135,95.7,4.0,,62.370000000000005,62.81,
2025-08-15T02:18:37.918Z,12,GR86-006-7,5.4,-1.24,-0.149,92.83,3.0,,61.515,62.43,
2025-08-15T02:18:37.961Z,12,GR86-006-7,4.3,-1.244,-0.198,26.38,3.0,6302.0,59.59,61.21,
2025-08-15T02:18:38.004Z,12,GR86-006-7,4.1000000000000005,-1.261,-0.149,3.0700000000000003,3.0,,58.155,60.02,174.46
2025-08-15T02:18:38.047Z,12,GR86-006-7,4.2,-1.23,-0.106,2.93,3.0,,58.46,59.71,
2025-08-15T02:18:38.090Z,12,GR86-006-7,4.3,-1.186,-0.263,2.88,3.0,,56.935,57.41,
2025-08-15T02:18:38.133Z,12,GR86-006-7,4.3,-1.102,-0.036,2.84,3.0,,57.3,58.995000000000005,
2025-08-15T02:18:38.176Z,12,GR86-006-7,4.2,-1.193,-0.216,2.8000000000000003,3.0,6194.0,57.53,59.18,
2025-08-15T02:18:38.219Z,12,GR86-006-7,4.2,-1.123,-0.176,2.75,3.0,,57.33,59.025,167.03
2025-08-15T02:18:38.262Z,12,GR86-006-7,4.3,-1.122,-0.123,2.72,3.0,,57.3,59.025,
2025-08-15T02:18:38.305Z,12,GR86-006-7,4.3,-1.118,-0.246,2.68,3.0,,56.66,58.43,
2025-08-15T02:18:38.348Z,12,GR86-006-7,4.3,-1.09,-0.152,2.67,3.0,,55.395,57.3,
2025-08-15T02:18:38.391Z,12,GR86-006-7,2.2,-1.143,-0.154,2.65,3.0,7039.0,54.83,56.4,
2025-08-15T02:18:38.434Z,12,GR86-006-7,1.2000000000000002,-1.088,-0.246,2.61,3.0,,54.02,55.545,158.70000000000002
2025-08-15T02:18:38.477Z,12,GR86-006-7,1.2000000000000002,-1.103,-0.277,2.58,3.0,,53.805,55.335,
2025-08-15T02:18:38.520Z,12,GR86-006-7,1.2000000000000002,-1.091,-0.309,2.58,3.0,,53.455,55.01,
2025-08-15T02:18:38.563Z,12,GR86-006-7,1.3,-1.123,-0.311,7.8,3.0,,53.120000000000005,54.615,
2025-08-15T02:18:38.606Z,12,GR86-006-7,1.4,-1.083,-0.345,49.32,2.0,6506.0,52.8,54.175,
2025-08-15T02:18:38.649Z,12,GR86-006-7,1.5,-1.082,-0.358,25.72,2.0,,53.0,54.235,150.33
2025-08-15T02:18:38.692Z,12,GR86-006-7,1.7000000000000002,-1.071,-0.295,4.18,2.0,,54.325,56.22,
2025-08-15T02:18:38.735Z,12,GR86-006-7,1.9,-1.162,-0.58,3.92,2.0,,53.685,54.675,
2025-08-15T02:18:38.778Z,12,GR86-006-7,2.3000000000000003,-1.233,-0.487,3.6,2.0,,49.2,50.375,
2025-08-15T02:18:38.821Z,12,GR86-006-7,5.4,-0.876,-0.316,3.37,2.0,6138.0,43.14,44.56,
2025-08-15T02:18:38.864Z,12,GR86-006-7,9.2,-0.84,-0.911,3.1,2.0,,37.495,38.595,142.71
2025-08-15T02:18:38.907Z,12,GR86-006-7,9.9,-1.013,-0.615,2.89,2.0,,33.65,34.81,
2025-08-15T02:18:38.950Z,12,GR86-006-7,11.4,-0.807,-0.582,2.81,2.0,,32.655,33.65,
2025-08-15T02:18:38.993Z,12,GR86-006-7,14.3,-0.875,-0.866,2.69,2.0,,31.42,32.305,
2025-08-15T02:18:39.036Z,12,GR86-006-7,14.4,-0.773,-0.679,2.66,2.0,6253.0,30.675,31.27,
2025-08-15T02:18:39.079Z,12,GR86-006-7,11.6,-0.777,-0.789,2.64,2.0,,29.56,30.045,135.64
2025-08-15T02:18:39.122Z,12,GR86-006-7,-1.0,-0.733,-0.902,2.61,2.0,,28.965,29.5,
2025-08-15T02:18:39.166Z,12,GR86-006-7,-8.3,-0.681,-0.942,2.58,2.0,,26.84,27.895,
2025-08-15T02:18:39.209Z,12,GR86-006-7,-15.1,-0.632,-0.952,2.58,2.0,,24.08,25.055,
2025-08-15T02:18:39.254Z,12,GR86-006-7,-29.200000000000003,-0.585,-0.985,2.5500000000000003,2.0,6694.0,20.875,21.805,
2025-08-15T02:18:39.297Z,12,GR86-006-7,-33.4,-0.674,-0.978,2.52,2.0,,21.06,21.745,130.5
2025-08-15T02:18:39.341Z,12,GR86-006-7,-33.6,-0.671,-1.141,2.52,2.0,,21.655,22.065,
2025-08-15T02:18:39.384Z,12,GR86-006-7,-33.1,-0.5720000000000001,-1.12,2.49,2.0,,20.325,21.305,
2025-08-15T02:18:39.427Z,12,GR86-006-7,-33.0,-0.534,-1.112,2.49,2.0,,18.8,19.61,
2025-08-15T02:18:39.470Z,12,GR86-006-7,-32.6,-0.577,-1.066,2.49,2.0,6689.0,18.115,18.8,
2025-08-15T02:18:39.514Z,12,GR86-006-7,-32.7,-0.581,-1.135,2.48,2.0,,13.305,14.145,119.87
2025-08-15T02:18:39.557Z,12,GR86-006-7,-32.800000000000004,-0.465,-1.192,2.49,2.0,,8.24,9.005,
2025-08-15T02:18:39.600Z,12,GR86-006-7,-32.1,-0.364,-1.206,2.49,2.0,,4.18,4.805,
2025-08-15T02:18:39.643Z,12,GR86-006-7,-30.4,-0.283,-1.249,2.48,2.0,,0.0,1.89,
2025-08-15T02:18:39.686Z,12,GR86-006-7,-28.1,-0.225,-1.227,2.49,2.0,6344.0,0.0,0.0,
2025-08-15T02:18:39.729Z,12,GR86-006-7,-27.3,-0.225,-1.279,2.48,2.0,,0.0,0.0,115.87
2025-08-15T02:18:39.772Z,12,GR86-006-7,-28.8,-0.187,-1.269,2.49,2.0,,0.0,0.0,
2025-08-15T02:18:39.818Z,12,GR86-006-7,-30.700000000000003,-0.178,-1.309,3.41,2.0,,0.0,0.0,
2025-08-15T02:18:39.861Z,12,GR86-006-7,-34.300000000000004,-0.179,-1.321,5.38,2.0,,0.0,0.0,
2025-08-15T02:18:39.904Z,12,GR86-006-7,-39.1,-0.188,-1.328,17.68,2.0,6166.0,0.0,0.0,
2025-08-15T02:18:39.947Z,12,GR86-006-7,-44.5,-0.18,-1.305,24.24,2.0,,0.0,0.0,113.42
2025-08-15T02:18:39.990Z,12,GR86-006-7,-49.400000000000006,-0.187,-1.318,28.37,2.0,,0.0,0.0,
2025-08-15T02:18:40.033Z,12,GR86-006-7,-56.8,-0.14,-1.354,30.21,2.0,,0.0,0.0,
2025-08-15T02:18:40.076Z,12,GR86-006-7,-60.7,-0.133,-1.386,30.86,2.0,,0.0,0.0,
2025-08-15T02:18:40.119Z,12,GR86-006-7,-63.5,-0.103,-1.378,31.17,2.0,6101.0,0.0,0.0,
2025-08-15T02:18:40.162Z,12,GR86-006-7,-65.60000000000001,0.137,-1.364,31.53,2.0,,0.0,0.0,111.47
2025-08-15T02:18:40.205Z,12,GR86-006-7,-66.7,0.148,-1.347,32.64,2.0,,0.0,0.0,
2025-08-15T02:18:40.248Z,12,GR86-006-7,-67.10000000000001,0.134,-1.379,34.06,2.0,,0.0,0.0,
2025-08-15T02:18:40.292Z,12,GR86-006-7,-67.4,0.098,-1.398,35.95,2.0,,0.0,0.0,
2025-08-15T02:18:40.336Z,12,GR86-006-7,-67.4,0.102,-1.386,37.85,2.0,6432.0,0.0,0.0,
2025-08-15T02:18:40.379Z,12,GR86-006-7,-66.60000000000001,0.095,-1.362,39.18,2.0,,0.0,0.0,109.47
2025-08-15T02:18:40.422Z,12,GR86-006-7,-65.8,0.116,-1.344,41.96,2.0,,0.0,0.0,
2025-08-15T02:18:40.467Z,12,GR86-006-7,-66.2,0.143,-1.291,46.46,2.0,,0.0,0.0,
2025-08-15T02:18:40.510Z,12,GR86-006-7,-67.60000000000001,0.156,-1.233,48.42,2.0,,0.0,0.0,
2025-08-15T02:18:40.553Z,12,GR86-006-7,-71.10000000000001,0.155,-1.256,47.66,2.0,6323.0,0.0,0.0,
2025-08-15T02:18:40.596Z,12,GR86-006-7,-72.4,0.182,-1.22,46.79,2.0,,0.0,0.0,108.65
2025-08-15T02:18:40.639Z,12,GR86-006-7,-72.9,0.162,-1.205,44.09,2.0,,0.0,0.0,
2025-08-15T02:18:40.682Z,12,GR86-006-7,-73.2,0.2,-1.202,39.87,2.0,,0.0,0.0,
2025-08-15T02:18:40.726Z,12,GR86-006-7,-73.7,0.168,-1.246,39.23,2.0,,0.0,0.0,
2025-08-15T02:18:40.813Z,12,GR86-006-7,-75.10000000000001,0.132,-1.138,25.12,2.0,6381.0,0.0,0.0,108.39
2025-08-15T02:18:40.857Z,12,GR86-006-7,-75.5,0.148,-1.237,20.4,2.0,,0.0,0.0,
2025-08-15T02:18:40.900Z,12,GR86-006-7,-75.60000000000001,0.166,-1.087,21.37,2.0,,0.0,0.0,
2025-08-15T02:18:40.943Z,12,GR86-006-7,-75.9,0.085,-1.142,25.72,2.0,,0.0,0.0,
2025-08-15T02:18:40.986Z,12,GR86-006-7,-76.4,0.025,-1.158,31.02,2.0,6410.0,0.0,0.0,
2025-08-15T02:18:41.029Z,12,GR86-006-7,-77.4,-0.004,-1.262,31.24,2.0,,0.0,0.0,108.81
2025-08-15T02:18:41.072Z,12,GR86-006-7,-78.2,-0.015,-1.229,31.25,2.0,,0.0,0.0,
2025-08-15T02:18:41.116Z,12,GR86-006-7,-78.7,0.155,-1.212,33.0,2.0,,0.0,0.0,
2025-08-15T02:18:41.159Z,12,GR86-006-7,-78.7,0.153,-1.211,34.65,2.0,,0.0,0.0,
2025-08-15T02:18:41.202Z,12,GR86-006-7,-78.7,0.076,-1.138,34.910000000000004,2.0,6348.0,0.0,0.0,
2025-08-15T02:18:41.247Z,12,GR86-006-7,-78.7,0.065,-1.132,34.980000000000004,2.0,,0.0,0.0,109.77
2025-08-15T02:18:41.290Z,12,GR86-006-7,-78.80000000000001,0.087,-1.23,40.08,2.0,,0.0,0.0,
2025-08-15T02:18:41.333Z,12,GR86-006-7,-78.7,0.137,-1.259,51.06,2.0,,0.0,0.0,
2025-08-15T02:18:41.376Z,12,GR86-006-7,-78.5,0.111,-1.139,57.81,2.0,,0.0,0.0,
2025-08-15T02:18:41.419Z,12,GR86-006-7,-76.2,0.145,-1.149,64.59,2.0,6461.0,0.0,0.0,
2025-08-15T02:18:41.462Z,12,GR86-006-7,-68.2,0.185,-1.054,95.4,2.0,,0.0,0.0,110.09
2025-08-15T02:18:41.505Z,12,GR86-006-7,-60.2,0.212,-1.094,99.71,2.0,,0.0,0.0,
2025-08-15T02:18:41.549Z,12,GR86-006-7,-53.8,0.219,-1.126,99.64,2.0,,0.0,0.0,
2025-08-15T02:18:41.635Z,12,GR86-006-7,-49.900000000000006,0.208,-1.175,99.65,2.0,6469.0,0.0,0.0,
2025-08-15T02:18:41.678Z,12,GR86-006-7,-49.2,0.243,-1.149,99.64,2.0,,0.0,0.0,110.62
2025-08-15T02:18:41.721Z,12,GR86-006-7,-48.900000000000006,0.246,-1.124,58.15,2.0,,0.0,0.0,
2025-08-15T02:18:41.764Z,12,GR86-006-7,-45.6,0.213,-1.16,38.09,2.0,,0.0,0.0,
2025-08-15T02:18:41.850Z,12,GR86-006-7,-42.400000000000006,0.207,-1.219,36.16,2.0,6613.0,0.0,0.0,
2025-08-15T02:18:41.893Z,12,GR86-006-7,-40.2,0.17,-1.347,39.6,2.0,,0.0,0.0,110.96
2025-08-15T02:18:41.936Z,12,GR86-006-7,-41.900000000000006,0.132,-1.309,51.3,2.0,,0.0,0.0,
2025-08-15T02:18:41.979Z,12,GR86-006-7,-44.900000000000006,0.137,-1.325,80.76,2.0,,0.0,0.0,
2025-08-15T02:18:42.022Z,12,GR86-006-7,-45.400000000000006,0.164,-1.271,99.46,2.0,,0.0,0.0,
2025-08-15T02:18:42.065Z,12,GR86-006-7,-44.5,0.206,-1.157,99.65,2.0,6681.0,0.0,0.0,
2025-08-15T02:18:42.108Z,12,GR86-006-7,-43.5,0.223,-1.148,99.66,2.0,,0.0,0.0,112.17
2025-08-15T02:18:42.151Z,12,GR86-006-7,-42.0,0.237,-1.123,99.64,2.0,,0.0,0.0,
2025-08-15T02:18:42.194Z,12,GR86-006-7,-40.2,0.246,-1.136,99.64,2.0,,0.0,0.0,
2025-08-15T02:18:42.237Z,12,GR86-006-7,-38.8,0.235,-1.137,99.67,2.0,,0.0,0.0,
2025-08-15T02:18:42.280Z,12,GR86-006-7,-35.2,0.21,-1.118,99.65,2.0,6643.0,0.0,0.0,
2025-08-15T02:18:42.323Z,12,GR86-006-7,-29.9,0.212,-1.16,99.64,2.0,,0.0,0.0,114.12
2025-08-15T02:18:42.366Z,12,GR86-006-7,-25.9,0.23,-1.156,99.67,2.0,,0.0,0.0,
2025-08-15T02:18:42.409Z,12,GR86-006-7,-24.200000000000003,0.26,-1.196,99.66,2.0,,0.0,0.0,
2025-08-15T02:18:42.452Z,12,GR86-006-7,-22.0,0.251,-1.12,99.66,2.0,,0.0,0.0,
2025-08-15T02:18:42.495Z,12,GR86-006-7,-19.200000000000003,0.261,-1.114,99.68,2.0,6780.0,0.0,0.0,
2025-08-15T02:18:42.538Z,12,GR86-006-7,-17.400000000000002,0.232,-1.148,99.66,2.0,,0.0,0.0,114.86
2025-08-15T02:18:42.581Z,12,GR86-006-7,-16.6,0.227,-1.175,99.68,2.0,,0.0,0.0,
2025-08-15T02:18:42.624Z,12,GR86-006-7,-16.1,0.269,-1.196,99.67,2.0,,0.0,0.0,
2025-08-15T02:18:42.667Z,12,GR86-006-7,-15.7,0.257,-1.233,99.66,2.0,,0.0,0.0,
2025-08-15T02:18:42.710Z,12,GR86-006-7,-15.4,0.278,-1.229,99.66,2.0,6891.0,0.0,0.0,
2025-08-15T02:18:42.753Z,12,GR86-006-7,-20.5,0.265,-1.194,99.67,2.0,,0.0,0.0,116.42
2025-08-15T02:18:42.796Z,12,GR86-006-7,-27.1,0.254,-1.18,99.65,2.0,,0.0,0.0,
2025-08-15T02:18:42.839Z,12,GR86-006-7,-26.9,0.219,-1.178,99.67,2.0,,0.0,0.0,
2025-08-15T02:18:42.883Z,12,GR86-006-7,-23.5,0.177,-1.245,99.66,2.0,,0.0,0.0,
2025-08-15T02:18:42.926Z,12,GR86-006-7,-20.9,0.265,-1.157,99.66,2.0,7015.0,0.0,0.0,
2025-08-15T02:18:42.969Z,12,GR86-006-7,-19.1,0.31,-1.207,99.68,2.0,,0.0,0.0,117.85
2025-08-15T02:18:43.013Z,12,GR86-006-7,-23.6,0.084,-0.729,99.67,2.0,,0.0,0.0,
2025-08-15T02:18:43.057Z,12,GR86-006-7,-23.700000000000003,0.134,-0.8170000000000001,99.68,2.0,,0.0,0.0,
2025-08-15T02:18:43.100Z,12,GR86-006-7,-22.200000000000003,0.134,-1.144,99.65,2.0,,0.0,0.0,
2025-08-15T02:18:43.143Z,12,GR86-006-7,-19.9,0.167,-0.964,99.68,2.0,7080.0,0.0,0.0,
2025-08-15T02:18:43.186Z,12,GR86-006-7,-17.5,0.277,-1.083,99.67,2.0,,0.0,0.0,118.91
2025-08-15T02:18:43.229Z,12,GR86-006-7,-15.3,0.266,-1.171,99.69,2.0,,0.0,0.0,
2025-08-15T02:18:43.274Z,12,GR86-006-7,-14.8,0.302,-0.856,99.67,2.0,,0.0,0.0,
2025-08-15T02:18:43.317Z,12,GR86-006-7,-18.0,0.257,-0.96,99.68,2.0,,0.0,0.0,
2025-08-15T02:18:43.361Z,12,GR86-006-7,-20.9,0.181,-0.615,99.67,2.0,7137.0,0.0,0.0,
2025-08-15T02:18:43.404Z,12,GR86-006-7,-22.5,0.134,-0.742,99.68,2.0,,0.0,0.0,119.77
2025-08-15T02:18:43.447Z,12,GR86-006-7,-22.5,0.124,-0.763,99.66,2.0,,0.0,0.0,
2025-08-15T02:18:43.533Z,12,GR86-006-7,-20.9,0.392,-0.898,99.68,2.0,,0.0,0.0,
2025-08-15T02:18:43.576Z,12,GR86-006-7,-18.5,0.21,-0.8180000000000001,99.66,3.0,7116.0,0.0,0.0,
2025-08-15T02:18:43.619Z,12,GR86-006-7,-15.9,0.307,-0.837,99.69,3.0,,0.0,0.0,120.71
2025-08-15T02:18:43.662Z,12,GR86-006-7,-12.3,0.443,-0.754,99.68,3.0,,0.0,0.0,
2025-08-15T02:18:43.705Z,12,GR86-006-7,-8.8,0.223,-0.6910000000000001,99.69,3.0,,0.0,0.0,
2025-08-15T02:18:43.748Z,12,GR86-006-7,-6.4,0.172,-0.541,99.68,3.0,,0.0,0.0,
2025-08-15T02:18:43.791Z,12,GR86-006-7,-5.6000000000000005,0.016,-0.601,99.68,3.0,7262.0,0.0,0.0,
2025-08-15T02:18:43.834Z,12,GR86-006-7,-5.1000000000000005,0.153,-0.544,99.67,3.0,,0.0,0.0,122.09
2025-08-15T02:18:43.877Z,12,GR86-006-7,-4.4,0.232,-0.513,99.67,3.0,,0.0,0.0,
2025-08-15T02:18:43.920Z,12,GR86-006-7,-3.7,0.223,-0.454,99.67,3.0,,0.0,0.0,
2025-08-15T02:18:43.963Z,12,GR86-006-7,-3.0,0.174,-0.407,99.68,3.0,,0.0,0.0,
2025-08-15T02:18:44.006Z,12,GR86-006-7,-2.6,0.271,-0.355,99.67,3.0,6012.0,0.0,0.0,
2025-08-15T02:18:44.049Z,12,GR86-006-7,-2.7,0.182,-0.393,99.67,3.0,,0.0,0.0,123.61
2025-08-15T02:18:44.092Z,12,GR86-006-7,-2.8000000000000003,0.137,-0.186,99.68,3.0,,0.0,0.0,
2025-08-15T02:18:44.135Z,12,GR86-006-7,-2.4000000000000004,0.267,-0.085,99.69,3.0,,0.0,0.0,
2025-08-15T02:18:44.178Z,12,GR86-006-7,0.5,0.171,-0.183,99.68,3.0,,0.0,0.0,
2025-08-15T02:18:44.221Z,12,GR86-006-7,2.4000000000000004,0.176,-0.073,99.69,3.0,5985.0,0.0,0.0,
2025-08-15T02:18:44.264Z,12,GR86-006-7,3.7,0.013,0.059,99.68,3.0,,0.0,0.0,125.19
2025-08-15T02:18:44.307Z,12,GR86-006-7,7.9,0.107,0.082,99.68,3.0,,0.0,0.0,
2025-08-15T02:18:44.350Z,12,GR86-006-7,13.3,0.175,0.079,99.67,3.0,,0.0,0.0,
2025-08-15T02:18:44.393Z,12,GR86-006-7,14.9,0.197,0.1,99.69,3.0,,0.0,0.0,
2025-08-15T02:18:44.436Z,12,GR86-006-7,13.9,0.247,0.108,99.68,3.0,6063.0,0.0,0.0,
2025-08-15T02:18:44.479Z,12,GR86-006-7,12.8,0.107,0.274,99.69,3.0,,0.0,0.0,127.21
2025-08-15T02:18:44.522Z,12,GR86-006-7,11.9,0.181,0.262,99.68,3.0,,0.0,0.0,
2025-08-15T02:18:44.566Z,12,GR86-006-7,11.2,0.229,0.272,99.67,3.0,,0.0,0.0,
2025-08-15T02:18:44.609Z,12,GR86-006-7,10.7,0.25,0.321,99.67,3.0,,0.0,0.0,
2025-08-15T02:18:44.654Z,12,GR86-006-7,9.9,0.195,0.283,99.68,3.0,6146.0,0.0,0.0,
2025-08-15T02:18:44.697Z,12,GR86-006-7,9.6,0.207,0.264,99.69,3.0,,0.0,0.0,128.27
2025-08-15T02:18:44.741Z,12,GR86-006-7,9.5,0.194,0.262,99.67,3.0,,0.0,0.0,
2025-08-15T02:18:44.784Z,12,GR86-006-7,9.4,0.206,0.177,99.67,3.0,,0.0,0.0,
2025-08-15T02:18:44.827Z,12,GR86-006-7,8.8,0.228,0.141,99.69,3.0,,0.0,0.0,
2025-08-15T02:18:44.870Z,12,GR86-006-7,8.5,0.231,0.116,99.67,3.0,6175.0,0.0,0.0,
2025-08-15T02:18:44.914Z,12,GR86-006-7,8.3,0.2,0.074,99.68,3.0,,0.0,0.0,131.54
2025-08-15T02:18:44.957Z,12,GR86-006-7,8.3,0.221,0.047,99.69,3.0,,0.0,0.0,
2025-08-15T02:18:45.043Z,12,GR86-006-7,8.200000000000001,0.197,0.034,99.67,3.0,,0.0,0.0,
2025-08-15T02:18:45.086Z,12,GR86-006-7,7.9,0.208,0.036,99.68,3.0,6189.0,0.0,0.0,
2025-08-15T02:18:45.129Z,12,GR86-006-7,7.7,0.207,0.024,99.68,3.0,,0.0,0.0,133.17000000000002
2025-08-15T02:18:45.172Z,12,GR86-006-7,7.7,0.207,0.018,99.69,3.0,,0.0,0.0,
2025-08-15T02:18:45.217Z,12,GR86-006-7,7.5,0.185,0.019,99.69,3.0,,0.0,0.0,
2025-08-15T02:18:45.261Z,12,GR86-006-7,7.0,0.205,0.021,99.67,3.0,,0.0,0.0,
2025-08-15T02:18:45.304Z,12,GR86-006-7,6.300000000000001,0.222,0.021,99.69,3.0,6246.0,0.0,0.0,
2025-08-15T02:18:45.347Z,12,GR86-006-7,4.4,0.197,0.022,99.67,3.0,,0.0,0.0,134.57
2025-08-15T02:18:45.390Z,12,GR86-006-7,2.2,0.177,-0.042,99.68,3.0,,0.0,0.0,
2025-08-15T02:18:45.433Z,12,GR86-006-7,1.2000000000000002,0.176,-0.071,99.69,3.0,,0.0,0.0,
2025-08-15T02:18:45.476Z,12,GR86-006-7,1.3,0.187,-0.107,99.68,3.0,,0.0,0.0,
2025-08-15T02:18:45.519Z,12,GR86-006-7,1.3,0.227,-0.113,99.68,3.0,6386.0,0.0,0.0,
2025-08-15T02:18:45.562Z,12,GR86-006-7,1.4,0.199,-0.105,99.67,3.0,,0.0,0.0,136.07
2025-08-15T02:18:45.605Z,12,GR86-006-7,1.5,0.171,-0.142,99.67,3.0,,0.0,0.0,
2025-08-15T02:18:45.648Z,12,GR86-006-7,1.5,0.203,-0.16,99.68,3.0,,0.0,0.0,
2025-08-15T02:18:45.734Z,12,GR86-006-7,1.5,0.219,-0.143,99.67,3.0,6442.0,0.0,0.0,
2025-08-15T02:18:45.820Z,12,GR86-006-7,1.6,0.21,-0.113,99.68,3.0,,0.0,0.0,137.59
2025-08-15T02:18:45.863Z,12,GR86-006-7,1.6,0.188,-0.091,99.67,3.0,,0.0,0.0,
2025-08-15T02:18:45.906Z,12,GR86-006-7,1.6,0.186,-0.101,99.67,3.0,,0.0,0.0,
2025-08-15T02:18:45.949Z,12,GR86-006-7,1.6,0.222,-0.088,99.68,3.0,6506.0,0.0,0.0,
2025-08-15T02:18:45.992Z,12,GR86-006-7,1.6,0.19,-0.084,99.68,3.0,,0.0,0.0,138.98
2025-08-15T02:18:46.035Z,12,GR86-006-7,1.6,0.225,-0.081,99.68,3.0,,0.0,0.0,
2025-08-15T02:18:46.078Z,12,GR86-006-7,1.7000000000000002,0.214,-0.066,99.67,3.0,,0.0,0.0,
2025-08-15T02:18:46.121Z,12,GR86-006-7,1.7000000000000002,0.186,-0.058,99.67,3.0,,0.0,0.0,
2025-08-15T02:18:46.164Z,12,GR86-006-7,1.7000000000000002,0.175,-0.042,99.67,3.0,6586.0,0.0,0.0,
2025-08-15T02:18:46.207Z,12,GR86-006-7,1.7000000000000002,0.208,-0.048,99.7,3.0,,0.0,0.0,140.31
2025-08-15T02:18:46.250Z,12,GR86-006-7,1.7000000000000002,0.236,-0.035,99.68,3.0,,0.0,0.0,
2025-08-15T02:18:46.293Z,12,GR86-006-7,1.7000000000000002,0.207,-0.068,99.68,3.0,,0.0,0.0,
2025-08-15T02:18:46.336Z,12,GR86-006-7,1.6,0.222,-0.019,99.68,3.0,,0.0,0.0,
2025-08-15T02:18:46.379Z,12,GR86-006-7,1.6,0.19,-0.02,99.68,3.0,6646.0,0.0,0.0,
2025-08-15T02:18:46.422Z,12,GR86-006-7,1.6,0.185,-0.006,99.67,3.0,,0.0,0.0,141.76
2025-08-15T02:18:46.468Z,12,GR86-006-7,1.7000000000000002,0.171,-0.014,99.68,3.0,,0.0,0.0,
2025-08-15T02:18:46.511Z,12,GR86-006-7,1.7000000000000002,0.209,-0.028,99.68,3.0,,0.0,0.0,
2025-08-15T02:18:46.554Z,12,GR86-006-7,1.7000000000000002,0.172,-0.022,99.67,3.0,,0.0,0.0,
2025-08-15T02:18:46.597Z,12,GR86-006-7,1.7000000000000002,0.219,-0.027,99.67,3.0,6702.0,0.0,0.0,
2025-08-15T02:18:46.640Z,12,GR86-006-7,1.7000000000000002,0.236,0.003,99.67,3.0,,0.0,0.0,143.18
2025-08-15T02:18:46.683Z,12,GR86-006-7,1.7000000000000002,0.19,-0.001,99.68,3.0,,0.0,0.0,
2025-08-15T02:18:46.726Z,12,GR86-006-7,1.7000000000000002,0.168,-0.001,99.67,3.0,,0.0,0.0,
2025-08-15T02:18:46.769Z,12,GR86-006-7,1.7000000000000002,0.168,-0.008,99.69,3.0,,0.0,0.0,
2025-08-15T02:18:46.813Z,12,GR86-006-7,1.7000000000000002,0.179,-0.013,99.69,3.0,6772.0,0.0,0.0,
2025-08-15T02:18:46.857Z,12,GR86-006-7,1.7000000000000002,0.174,-0.009,99.68,3.0,,0.0,0.0,144.57
2025-08-15T02:18:46.900Z,12,GR86-006-7,1.7000000000000002,0.201,-0.004,99.69,3.0,,0.0,0.0,
2025-08-15T02:18:46.943Z,12,GR86-006-7,1.6,0.224,0.001,99.68,3.0,,0.0,0.0,
2025-08-15T02:18:46.986Z,12,GR86-006-7,1.5,0.206,0.012,99.67,3.0,,0.0,0.0,
2025-08-15T02:18:47.029Z,12,GR86-006-7,1.5,0.192,-0.011,99.69,3.0,6830.0,0.0,0.0,
2025-08-15T02:18:47.072Z,12,GR86-006-7,1.6,0.213,-0.014,99.68,3.0,,0.0,0.0,145.92000000000002
2025-08-15T02:18:47.115Z,12,GR86-006-7,1.7000000000000002,0.177,-0.038,99.69,3.0,,0.0,0.0,
2025-08-15T02:18:47.158Z,12,GR86-006-7,1.7000000000000002,0.169,-0.04,99.68,3.0,,0.0,0.0,
2025-08-15T02:18:47.201Z,12,GR86-006-7,1.7000000000000002,0.173,-0.046,99.67,3.0,,0.0,0.0,
2025-08-15T02:18:47.244Z,12,GR86-006-7,1.7000000000000002,0.198,-0.042,99.68,3.0,6894.0,0.0,0.0,
2025-08-15T02:18:47.287Z,12,GR86-006-7,1.7000000000000002,0.207,-0.032,99.68,3.0,,0.0,0.0,147.23
2025-08-15T02:18:47.330Z,12,GR86-006-7,1.5,0.198,-0.031,99.68,3.0,,0.0,0.0,
2025-08-15T02:18:47.373Z,12,GR86-006-7,1.4,0.205,-0.061,99.68,3.0,,0.0,0.0,
2025-08-15T02:18:47.416Z,12,GR86-006-7,1.5,0.203,-0.064,99.69,3.0,,0.0,0.0,
2025-08-15T02:18:47.459Z,12,GR86-006-7,1.5,0.175,-0.075,99.68,3.0,6959.0,0.0,0.0,
2025-08-15T02:18:47.502Z,12,GR86-006-7,1.5,0.153,-0.075,99.68,3.0,,0.0,0.0,148.53
2025-08-15T02:18:47.547Z,12,GR86-006-7,1.6,0.17,-0.094,99.69,3.0,,0.0,0.0,
2025-08-15T02:18:47.590Z,12,GR86-006-7,1.7000000000000002,0.174,-0.093,99.68,3.0,,0.0,0.0,
2025-08-15T02:18:47.633Z,12,GR86-006-7,1.8,0.154,-0.082,99.69,3.0,,0.0,0.0,
2025-08-15T02:18:47.676Z,12,GR86-006-7,1.8,0.171,-0.058,99.68,3.0,7018.0,0.0,0.0,
2025-08-15T02:18:47.719Z,12,GR86-006-7,1.8,0.185,-0.034,99.68,3.0,,0.0,0.0,151.1
2025-08-15T02:18:47.762Z,12,GR86-006-7,1.8,0.201,-0.036,99.68,3.0,,0.0,0.0,
2025-08-15T02:18:47.805Z,12,GR86-006-7,1.7000000000000002,0.188,-0.017,99.68,3.0,,0.0,0.0,
2025-08-15T02:18:47.848Z,12,GR86-006-7,1.7000000000000002,0.173,-0.017,99.68,3.0,,0.0,0.0,
2025-08-15T02:18:47.892Z,12,GR86-006-7,1.6,0.197,0.004,99.68,3.0,7071.0,0.0,0.0,
2025-08-15T02:18:47.936Z,12,GR86-006-7,1.5,0.179,0.002,99.68,3.0,,0.0,0.0,152.26
2025-08-15T02:18:47.979Z,12,GR86-006-7,1.5,0.166,0.0,99.67,3.0,,0.0,0.0,
2025-08-15T02:18:48.022Z,12,GR86-006-7,1.4,0.171,-0.009,99.67,3.0,,0.0,0.0,
2025-08-15T02:18:48.065Z,12,GR86-006-7,1.5,0.163,-0.027,99.69,3.0,,0.0,0.0,
2025-08-15T02:18:48.108Z,12,GR86-006-7,1.5,0.179,-0.029,99.68,3.0,7131.0,0.0,0.0,
2025-08-15T02:18:48.151Z,12,GR86-006-7,1.5,0.18,-0.046,99.69,3.0,,0.0,0.0,153.54
2025-08-15T02:18:48.194Z,12,GR86-006-7,1.5,0.159,-0.074,99.69,4.0,,0.0,0.0,
2025-08-15T02:18:48.237Z,12,GR86-006-7,1.5,-0.127,-0.062,99.69,4.0,,0.0,0.0,
2025-08-15T02:18:48.280Z,12,GR86-006-7,1.5,0.537,0.001,99.67,4.0,,0.0,0.0,
2025-08-15T02:18:48.323Z,12,GR86-006-7,1.5,0.314,-0.142,99.67,4.0,7245.0,0.0,0.0,
2025-08-15T02:18:48.366Z,12,GR86-006-7,1.5,0.246,-0.064,99.68,4.0,,0.0,0.0,154.78
2025-08-15T02:18:48.409Z,12,GR86-006-7,1.6,0.062,0.003,99.69,4.0,,0.0,0.0,
2025-08-15T02:18:48.452Z,12,GR86-006-7,1.7000000000000002,0.158,-0.101,99.68,4.0,,0.0,0.0,
2025-08-15T02:18:48.495Z,12,GR86-006-7,1.7000000000000002,0.196,0.014,99.68,4.0,,0.0,0.0,
2025-08-15T02:18:48.538Z,12,GR86-006-7,1.5,0.16,-0.056,99.7,4.0,6412.0,0.0,0.0,
2025-08-15T02:18:48.581Z,12,GR86-006-7,1.5,0.112,-0.064,99.67,4.0,,0.0,0.0,155.91
2025-08-15T02:18:48.624Z,12,GR86-006-7,1.4,0.123,0.001,99.68,4.0,,0.0,0.0,
2025-08-15T02:18:48.668Z,12,GR86-006-7,1.4,0.166,-0.029,99.67,4.0,,0.0,0.0,
2025-08-15T02:18:48.714Z,12,GR86-006-7,1.4,0.137,-0.021,99.68,4.0,,0.0,0.0,
2025-08-15T02:18:48.757Z,12,GR86-006-7,1.4,0.145,-0.035,99.66,4.0,6199.0,0.0,0.0,
2025-08-15T02:18:48.800Z,12,GR86-006-7,1.5,0.143,-0.049,99.69,4.0,,0.0,0.0,157.22
2025-08-15T02:18:48.843Z,12,GR86-006-7,1.5,0.175,-0.04,99.68,4.0,,0.0,0.0,
2025-08-15T02:18:48.886Z,12,GR86-006-7,1.4,0.155,-0.046,99.67,4.0,,0.0,0.0,
2025-08-15T02:18:48.929Z,12,GR86-006-7,1.4,0.135,-0.071,99.69,4.0,,0.0,0.0,
2025-08-15T02:18:48.972Z,12,GR86-006-7,1.3,0.16,-0.084,99.68,4.0,6217.0,0.0,0.0,
2025-08-15T02:18:49.017Z,12,GR86-006-7,1.3,0.152,-0.083,99.69,4.0,,0.0,0.0,158.32
2025-08-15T02:18:49.060Z,12,GR86-006-7,1.3,0.149,-0.074,99.68,4.0,,0.0,0.0,
2025-08-15T02:18:49.103Z,12,GR86-006-7,1.3,0.125,-0.075,99.68,4.0,,0.0,0.0,
2025-08-15T02:18:49.146Z,12,GR86-006-7,1.3,0.143,-0.129,99.68,4.0,,0.0,0.0,
2025-08-15T02:18:49.189Z,12,GR86-006-7,1.3,0.147,-0.128,99.68,4.0,6255.0,0.0,0.0,
2025-08-15T02:18:49.232Z,12,GR86-006-7,1.4,0.14,-0.135,99.68,4.0,,0.0,0.0,159.37
2025-08-15T02:18:49.276Z,12,GR86-006-7,1.4,0.14,-0.128,99.67,4.0,,0.0,0.0,
2025-08-15T02:18:49.319Z,12,GR86-006-7,1.5,0.139,-0.126,99.69,4.0,,0.0,0.0,
2025-08-15T02:18:49.362Z,12,GR86-006-7,1.5,0.132,-0.136,99.68,4.0,,0.0,0.0,
2025-08-15T02:18:49.405Z,12,GR86-006-7,1.5,0.138,-0.139,99.67,4.0,6311.0,0.0,0.0,
2025-08-15T02:18:49.448Z,12,GR86-006-7,1.5,0.151,-0.129,99.67,4.0,,0.0,0.0,160.4
2025-08-15T02:18:49.491Z,12,GR86-006-7,1.5,0.157,-0.146,99.69,4.0,,0.0,0.0,
2025-08-15T02:18:49.534Z,12,GR86-006-7,1.5,0.131,-0.099,99.69,4.0,,0.0,0.0,
2025-08-15T02:18:49.577Z,12,GR86-006-7,1.5,0.142,-0.086,99.67,4.0,,0.0,0.0,
2025-08-15T02:18:49.620Z,12,GR86-006-7,1.5,0.133,-0.07,99.68,4.0,6340.0,0.0,0.0,
2025-08-15T02:18:49.663Z,12,GR86-006-7,1.5,0.144,-0.069,99.67,4.0,,0.0,0.0,161.38
2025-08-15T02:18:49.706Z,12,GR86-006-7,1.5,0.159,-0.068,99.67,4.0,,0.0,0.0,
2025-08-15T02:18:49.749Z,12,GR86-006-7,1.5,0.14,-0.06,99.66,4.0,,0.0,0.0,
2025-08-15T02:18:49.792Z,12,GR86-006-7,1.6,0.135,-0.078,99.66,4.0,,0.0,0.0,
2025-08-15T02:18:49.835Z,12,GR86-006-7,1.6,0.158,-0.063,99.68,4.0,6379.0,0.0,0.0,
2025-08-15T02:18:49.878Z,12,GR86-006-7,1.5,0.147,-0.053,99.69,4.0,,0.0,0.0,162.29
2025-08-15T02:18:49.921Z,12,GR86-006-7,1.5,0.141,-0.038,99.69,4.0,,0.0,0.0,
2025-08-15T02:18:49.964Z,12,GR86-006-7,1.5,0.133,-0.046,99.68,4.0,,0.0,0.0,
2025-08-15T02:18:50.007Z,12,GR86-006-7,1.5,0.141,-0.048,99.68,4.0,,0.0,0.0,
2025-08-15T02:18:50.050Z,12,GR86-006-7,1.5,0.137,-0.05,99.68,4.0,6420.0,0.0,0.0,
2025-08-15T02:18:50.093Z,12,GR86-006-7,1.6,0.161,-0.045,99.67,4.0,,0.0,0.0,163.14
2025-08-15T02:18:50.137Z,12,GR86-006-7,1.6,0.154,-0.041,99.68,4.0,,0.0,0.0,
2025-08-15T02:18:50.180Z,12,GR86-006-7,1.7000000000000002,0.135,-0.034,99.68,4.0,,0.0,0.0,
2025-08-15T02:18:50.223Z,12,GR86-006-7,1.7000000000000002,0.148,-0.058,99.67,4.0,,0.0,0.0,
2025-08-15T02:18:50.266Z,12,GR86-006-7,1.6,0.134,-0.046,99.68,4.0,6452.0,0.0,0.0,
2025-08-15T02:18:50.309Z,12,GR86-006-7,1.5,0.112,-0.023,99.69,4.0,,0.0,0.0,164.11
2025-08-15T02:18:50.354Z,12,GR86-006-7,1.6,0.136,-0.024,99.69,4.0,,0.0,0.0,
2025-08-15T02:18:50.397Z,12,GR86-006-7,1.6,0.154,-0.013,99.68,4.0,,0.0,0.0,
2025-08-15T02:18:50.440Z,12,GR86-006-7,1.5,0.15,-0.037,99.68,4.0,,0.0,0.0,
2025-08-15T02:18:50.483Z,12,GR86-006-7,1.5,0.14,-0.046,99.69,4.0,6493.0,0.0,0.0,
2025-08-15T02:18:50.526Z,12,GR86-006-7,1.5,0.125,-0.028,99.68,4.0,,0.0,0.0,166.16
2025-08-15T02:18:50.569Z,12,GR86-006-7,1.4,0.116,-0.044,99.67,4.0,,0.0,0.0,
2025-08-15T02:18:50.613Z,12,GR86-006-7,1.4,0.159,-0.047,99.68,4.0,,0.0,0.0,
2025-08-15T02:18:50.657Z,12,GR86-006-7,1.5,0.15,-0.074,99.67,4.0,,0.0,0.0,
2025-08-15T02:18:50.700Z,12,GR86-006-7,1.5,0.147,-0.076,99.68,4.0,6535.0,0.0,0.0,
2025-08-15T02:18:50.786Z,12,GR86-006-7,1.5,0.145,-0.096,99.67,4.0,,0.0,0.0,167.20000000000002
2025-08-15T02:18:50.829Z,12,GR86-006-7,1.5,0.137,-0.089,99.67,4.0,,0.0,0.0,
2025-08-15T02:18:50.872Z,12,GR86-006-7,1.5,0.159,-0.095,99.67,4.0,,0.0,0.0,
2025-08-15T02:18:50.917Z,12,GR86-006-7,1.5,0.154,-0.091,99.68,4.0,6616.0,0.0,0.0,
2025-08-15T02:18:50.960Z,12,GR86-006-7,1.5,0.155,-0.093,99.68,4.0,,0.0,0.0,168.29
2025-08-15T02:18:51.003Z,12,GR86-006-7,1.5,0.142,-0.096,99.67,4.0,,0.0,0.0,
2025-08-15T02:18:51.046Z,12,GR86-006-7,1.4,0.119,-0.113,99.67,4.0,,0.0,0.0,
2025-08-15T02:18:51.089Z,12,GR86-006-7,1.4,0.121,-0.12,99.68,4.0,,0.0,0.0,
2025-08-15T02:18:51.132Z,12,GR86-006-7,1.3,0.144,-0.141,99.67,4.0,6659.0,0.0,0.0,
2025-08-15T02:18:51.176Z,12,GR86-006-7,1.3,0.155,-0.149,99.67,4.0,,0.0,0.0,169.31
2025-08-15T02:18:51.219Z,12,GR86-006-7,1.3,0.16,-0.159,99.67,4.0,,0.0,0.0,
2025-08-15T02:18:51.262Z,12,GR86-006-7,1.3,0.152,-0.168,99.68,4.0,,0.0,0.0,
2025-08-15T02:18:51.305Z,12,GR86-006-7,1.3,0.148,-0.17,99.68,4.0,,0.0,0.0,
2025-08-15T02:18:51.348Z,12,GR86-006-7,1.4,0.145,-0.184,99.67,4.0,6700.0,0.0,0.0,
2025-08-15T02:18:51.391Z,12,GR86-006-7,1.5,0.123,-0.177,99.66,4.0,,0.0,0.0,170.37
2025-08-15T02:18:51.434Z,12,GR86-006-7,1.5,0.139,-0.175,99.68,4.0,,0.0,0.0,
2025-08-15T02:18:51.477Z,12,GR86-006-7,1.5,0.143,-0.189,99.68,4.0,,0.0,0.0,
2025-08-15T02:18:51.520Z,12,GR86-006-7,1.5,0.156,-0.176,99.68,4.0,,0.0,0.0,
2025-08-15T02:18:51.563Z,12,GR86-006-7,1.6,0.167,-0.152,99.68,4.0,6742.0,0.0,0.0,
2025-08-15T02:18:51.606Z,12,GR86-006-7,1.6,0.141,-0.125,99.69,4.0,,0.0,0.0,171.42000000000002
2025-08-15T02:18:51.649Z,12,GR86-006-7,1.7000000000000002,0.151,-0.104,99.66,4.0,,0.0,0.0,
2025-08-15T02:18:51.692Z,12,GR86-006-7,1.7000000000000002,0.126,-0.093,99.68,4.0,,0.0,0.0,
2025-08-15T02:18:51.735Z,12,GR86-006-7,1.7000000000000002,0.125,-0.056,99.68,4.0,,0.0,0.0,
2025-08-15T02:18:51.778Z,12,GR86-006-7,1.6,0.128,-0.056,99.67,4.0,6789.0,0.0,0.0,
2025-08-15T02:18:51.821Z,12,GR86-006-7,1.5,0.138,-0.038,99.68,4.0,,0.0,0.0,172.45000000000002
2025-08-15T02:18:51.864Z,12,GR86-006-7,1.5,0.138,-0.057,99.66,4.0,,0.0,0.0,
2025-08-15T02:18:51.907Z,12,GR86-006-7,1.4,0.157,-0.064,99.67,4.0,,0.0,0.0,
2025-08-15T02:18:51.950Z,12,GR86-006-7,1.4,0.131,-0.079,99.67,4.0,,0.0,0.0,
2025-08-15T02:18:51.993Z,12,GR86-006-7,1.4,0.112,-0.091,99.68,4.0,6820.0,0.0,0.0,
2025-08-15T02:18:52.036Z,12,GR86-006-7,1.4,0.116,-0.099,99.68,4.0,,0.0,0.0,173.57
2025-08-15T02:18:52.079Z,12,GR86-006-7,1.4,0.099,-0.115,99.67,4.0,,0.0,0.0,
2025-08-15T02:18:52.124Z,12,GR86-006-7,1.4,0.091,-0.133,99.69,4.0,,0.0,0.0,
2025-08-15T02:18:52.211Z,12,GR86-006-7,1.5,0.122,-0.164,99.68,4.0,6861.0,0.0,0.0,
2025-08-15T02:18:52.254Z,12,GR86-006-7,1.5,0.15,-0.16,99.67,4.0,,0.0,0.0,174.6
2025-08-15T02:18:52.297Z,12,GR86-006-7,1.6,0.119,-0.145,99.68,4.0,,0.0,0.0,
2025-08-15T02:18:52.340Z,12,GR86-006-7,1.6,0.131,-0.169,99.68,4.0,,0.0,0.0,
2025-08-15T02:18:52.383Z,12,GR86-006-7,1.7000000000000002,0.133,-0.155,99.67,4.0,,0.0,0.0,
2025-08-15T02:18:52.426Z,12,GR86-006-7,1.7000000000000002,0.122,-0.155,99.68,4.0,6908.0,0.0,0.0,
2025-08-15T02:18:52.469Z,12,GR86-006-7,1.7000000000000002,0.126,-0.149,99.67,4.0,,0.0,0.0,175.53
2025-08-15T02:18:52.514Z,12,GR86-006-7,1.7000000000000002,0.112,-0.153,99.68,4.0,,0.0,0.0,
2025-08-15T02:18:52.557Z,12,GR86-006-7,1.8,0.136,-0.131,99.67,4.0,,0.0,0.0,
2025-08-15T02:18:52.600Z,12,GR86-006-7,1.8,0.137,-0.137,99.67,4.0,,0.0,0.0,
2025-08-15T02:18:52.643Z,12,GR86-006-7,1.7000000000000002,0.135,-0.116,99.67,4.0,6944.0,0.0,0.0,
2025-08-15T02:18:52.686Z,12,GR86-006-7,1.7000000000000002,0.139,-0.102,99.67,4.0,,0.0,0.0,176.6
2025-08-15T02:18:52.729Z,12,GR86-006-7,1.7000000000000002,0.134,-0.078,99.66,4.0,,0.0,0.0,
2025-08-15T02:18:52.772Z,12,GR86-006-7,1.8,0.122,-0.103,99.68,4.0,,0.0,0.0,
2025-08-15T02:18:52.815Z,12,GR86-006-7,1.8,0.107,-0.102,99.67,4.0,,0.0,0.0,
2025-08-15T02:18:52.858Z,12,GR86-006-7,1.8,0.112,-0.135,99.67,4.0,6976.0,0.0,0.0,
2025-08-15T02:18:52.901Z,12,GR86-006-7,1.8,0.104,-0.125,99.69,4.0,,0.0,0.0,177.69
2025-08-15T02:18:52.944Z,12,GR86-006-7,1.8,0.101,-0.095,99.68,4.0,,0.0,0.0,
2025-08-15T02:18:52.987Z,12,GR86-006-7,1.8,0.102,-0.112,99.66,4.0,,0.0,0.0,
2025-08-15T02:18:53.073Z,12,GR86-006-7,1.8,0.112,-0.112,99.67,4.0,7021.0,0.0,0.0,
2025-08-15T02:18:53.116Z,12,GR86-006-7,1.8,0.134,-0.109,99.68,4.0,,0.0,0.0,179.57
2025-08-15T02:18:53.159Z,12,GR86-006-7,1.9,0.135,-0.094,99.68,4.0,,0.0,0.0,
2025-08-15T02:18:53.202Z,12,GR86-006-7,1.8,0.118,-0.1,99.67,4.0,,0.0,0.0,
2025-08-15T02:18:53.247Z,12,GR86-006-7,1.8,0.123,-0.083,99.68,4.0,,0.0,0.0,
2025-08-15T02:18:53.290Z,12,GR86-006-7,1.8,0.109,-0.07,99.67,4.0,7053.0,0.0,0.0,
2025-08-15T02:18:53.333Z,12,GR86-006-7,1.9,0.098,-0.097,99.68,4.0,,0.0,0.0,180.51
2025-08-15T02:18:53.377Z,12,GR86-006-7,1.9,0.102,-0.071,99.67,4.0,,0.0,0.0,
2025-08-15T02:18:53.420Z,12,GR86-006-7,1.9,0.112,-0.083,99.68,4.0,,0.0,0.0,
2025-08-15T02:18:53.463Z,12,GR86-006-7,1.9,0.103,-0.088,99.66,4.0,,0.0,0.0,
2025-08-15T02:18:53.506Z,12,GR86-006-7,1.9,0.112,-0.084,99.68,4.0,7094.0,0.0,0.0,
2025-08-15T02:18:53.549Z,12,GR86-006-7,1.8,0.114,-0.115,99.67,4.0,,0.0,0.0,181.55
2025-08-15T02:18:53.592Z,12,GR86-006-7,1.9,0.124,-0.088,99.68,4.0,,0.0,0.0,
2025-08-15T02:18:53.636Z,12,GR86-006-7,1.8,0.111,-0.1,99.68,4.0,,0.0,0.0,
2025-08-15T02:18:53.679Z,12,GR86-006-7,1.8,0.128,-0.084,99.69,4.0,,0.0,0.0,
2025-08-15T02:18:53.723Z,12,GR86-006-7,1.8,0.115,-0.102,99.66,4.0,7156.0,0.0,0.0,
2025-08-15T02:18:53.766Z,12,GR86-006-7,1.8,0.122,-0.093,99.65,4.0,,0.0,0.0,182.39
2025-08-15T02:18:53.809Z,12,GR86-006-7,1.8,0.1,-0.094,99.66,4.0,,0.0,0.0,
2025-08-15T02:18:53.852Z,12,GR86-006-7,1.8,0.098,-0.135,99.65,4.0,,0.0,0.0,
2025-08-15T02:18:53.895Z,12,GR86-006-7,1.8,0.109,-0.128,99.67,4.0,,0.0,0.0,
2025-08-15T02:18:53.938Z,12,GR86-006-7,1.9,0.101,-0.142,99.69,4.0,7195.0,0.0,0.0,
2025-08-15T02:18:53.981Z,12,GR86-006-7,1.9,0.115,-0.14,99.67,4.0,,0.0,0.0,183.33
2025-08-15T02:18:54.024Z,12,GR86-006-7,1.9,0.103,-0.153,99.68,4.0,,0.0,0.0,
2025-08-15T02:18:54.068Z,12,GR86-006-7,1.9,0.099,-0.146,99.65,4.0,,0.0,0.0,
2025-08-15T02:18:54.111Z,12,GR86-006-7,1.9,-0.074,-0.146,99.66,5.0,,0.0,0.0,
2025-08-15T02:18:54.154Z,12,GR86-006-7,2.0,0.357,-0.083,99.66,5.0,7239.0,0.0,0.0,
2025-08-15T02:18:54.197Z,12,GR86-006-7,1.9,0.203,-0.208,99.68,5.0,,0.0,0.0,184.24
2025-08-15T02:18:54.240Z,12,GR86-006-7,1.9,0.04,-0.068,99.69,5.0,,0.0,0.0,
2025-08-15T02:18:54.283Z,12,GR86-006-7,2.0,0.026,-0.084,99.69,5.0,,0.0,0.0,
2025-08-15T02:18:54.326Z,12,GR86-006-7,1.9,0.157,-0.161,99.68,5.0,,0.0,0.0,
2025-08-15T02:18:54.369Z,12,GR86-006-7,1.9,0.126,-0.051,99.67,5.0,6943.0,0.0,0.0,
2025-08-15T02:18:54.413Z,12,GR86-006-7,1.9,0.033,-0.139,99.67,5.0,,0.0,0.0,185.28
2025-08-15T02:18:54.457Z,12,GR86-006-7,1.9,0.079,-0.065,99.68,5.0,,0.0,0.0,
2025-08-15T02:18:54.500Z,12,GR86-006-7,1.9,0.112,-0.057,99.68,5.0,,0.0,0.0,
2025-08-15T02:18:54.543Z,12,GR86-006-7,1.9,0.083,-0.113,99.68,5.0,,0.0,0.0,
2025-08-15T02:18:54.586Z,12,GR86-006-7,1.9,0.071,-0.087,99.69,5.0,6395.0,0.0,0.0,
2025-08-15T02:18:54.629Z,12,GR86-006-7,1.9,0.107,-0.079,99.69,5.0,,0.0,0.0,186.19
2025-08-15T02:18:54.674Z,12,GR86-006-7,1.9,0.105,-0.08,99.66,5.0,,0.0,0.0,
2025-08-15T02:18:54.718Z,12,GR86-006-7,1.9,0.077,-0.095,99.68,5.0,,0.0,0.0,
2025-08-15T02:18:54.761Z,12,GR86-006-7,1.9,0.085,-0.105,99.66,5.0,,0.0,0.0,
2025-08-15T02:18:54.804Z,12,GR86-006-7,1.9,0.077,-0.098,99.68,5.0,6356.0,0.0,0.0,
2025-08-15T02:18:54.847Z,12,GR86-006-7,2.0,0.096,-0.086,99.68,5.0,,0.0,0.0,187.06
2025-08-15T02:18:54.890Z,12,GR86-006-7,2.0,0.056,-0.092,99.68,5.0,,0.0,0.0,
2025-08-15T02:18:54.933Z,12,GR86-006-7,1.9,0.075,-0.1,99.68,5.0,,0.0,0.0,
2025-08-15T02:18:54.976Z,12,GR86-006-7,1.9,0.111,-0.083,99.65,5.0,,0.0,0.0,
2025-08-15T02:18:55.019Z,12,GR86-006-7,1.9,0.098,-0.086,99.67,5.0,6385.0,0.0,0.0,
2025-08-15T02:18:55.062Z,12,GR86-006-7,1.9,0.1,-0.078,99.67,5.0,,0.0,0.0,187.8
2025-08-15T02:18:55.105Z,12,GR86-006-7,1.9,0.093,-0.087,99.67,5.0,,0.0,0.0,
2025-08-15T02:18:55.148Z,12,GR86-006-7,1.8,0.109,-0.096,99.69,5.0,,0.0,0.0,
2025-08-15T02:18:55.191Z,12,GR86-006-7,1.9,0.084,-0.107,99.67,5.0,,0.0,0.0,
2025-08-15T02:18:55.234Z,12,GR86-006-7,1.9,0.092,-0.093,99.67,5.0,6406.0,0.0,0.0,
2025-08-15T02:18:55.277Z,12,GR86-006-7,2.0,0.086,-0.113,99.67,5.0,,0.0,0.0,188.51
2025-08-15T02:18:55.320Z,12,GR86-006-7,2.0,0.14,-0.127,99.68,5.0,,0.0,0.0,
2025-08-15T02:18:55.363Z,12,GR86-006-7,2.0,0.075,-0.149,99.67,5.0,,0.0,0.0,
2025-08-15T02:18:55.406Z,12,GR86-006-7,2.0,0.114,-0.169,99.69,5.0,,0.0,0.0,
2025-08-15T02:18:55.449Z,12,GR86-006-7,2.0,0.096,-0.162,99.67,5.0,6431.0,0.0,0.0,
2025-08-15T02:18:55.492Z,12,GR86-006-7,2.0,0.082,-0.162,99.66,5.0,,0.0,0.0,189.33
2025-08-15T02:18:55.536Z,12,GR86-006-7,2.1,0.087,-0.142,99.69,5.0,,0.0,0.0,
2025-08-15T02:18:55.579Z,12,GR86-006-7,2.1,0.084,-0.169,99.69,5.0,,0.0,0.0,
2025-08-15T02:18:55.622Z,12,GR86-006-7,2.1,0.086,-0.166,99.67,5.0,,0.0,0.0,
2025-08-15T02:18:55.665Z,12,GR86-006-7,2.1,0.11,-0.162,99.68,5.0,6459.0,0.0,0.0,
2025-08-15T02:18:55.708Z,12,GR86-006-7,2.2,0.098,-0.166,99.69,5.0,,0.0,0.0,189.96
2025-08-15T02:18:55.751Z,12,GR86-006-7,2.2,0.116,-0.15,99.68,5.0,,0.0,0.0,
2025-08-15T02:18:55.794Z,12,GR86-006-7,2.2,0.074,-0.158,99.68,5.0,,0.0,0.0,
2025-08-15T02:18:55.837Z,12,GR86-006-7,2.2,0.08,-0.154,99.67,5.0,,0.0,0.0,
2025-08-15T02:18:55.880Z,12,GR86-006-7,2.2,0.073,-0.117,99.68,5.0,6488.0,0.0,0.0,
2025-08-15T02:18:55.923Z,12,GR86-006-7,2.2,0.071,-0.122,99.69,5.0,,0.0,0.0,191.49
2025-08-15T02:18:55.966Z,12,GR86-006-7,2.2,0.092,-0.129,99.66,5.0,,0.0,0.0,
2025-08-15T02:18:56.009Z,12,GR86-006-7,2.2,0.086,-0.101,99.68,5.0,,0.0,0.0,
2025-08-15T02:18:56.054Z,12,GR86-006-7,2.2,0.078,-0.118,99.67,5.0,,0.0,0.0,
2025-08-15T02:18:56.098Z,12,GR86-006-7,2.2,0.055,-0.104,99.69,5.0,6512.0,0.0,0.0,
2025-08-15T02:18:56.141Z,12,GR86-006-7,2.2,0.066,-0.092,99.68,5.0,,0.0,0.0,192.34
2025-08-15T02:18:56.184Z,12,GR86-006-7,2.3000000000000003,0.084,-0.049,99.68,5.0,,0.0,0.0,
2025-08-15T02:18:56.227Z,12,GR86-006-7,2.3000000000000003,0.064,-0.06,99.67,5.0,,0.0,0.0,
2025-08-15T02:18:56.270Z,12,GR86-006-7,2.2,0.091,-0.06,99.67,5.0,,0.0,0.0,
2025-08-15T02:18:56.314Z,12,GR86-006-7,2.3000000000000003,0.077,-0.068,99.68,5.0,6558.0,0.0,0.0,
2025-08-15T02:18:56.357Z,12,GR86-006-7,2.3000000000000003,0.088,-0.062,99.67,5.0,,0.0,0.0,193.08
2025-08-15T02:18:56.400Z,12,GR86-006-7,2.3000000000000003,0.062,-0.051,99.69,5.0,,0.0,0.0,
2025-08-15T02:18:56.486Z,12,GR86-006-7,2.3000000000000003,0.09,-0.062,99.68,5.0,,0.0,0.0,
2025-08-15T02:18:56.529Z,12,GR86-006-7,2.4000000000000004,0.078,-0.046,99.68,5.0,6589.0,0.0,0.0,
2025-08-15T02:18:56.572Z,12,GR86-006-7,2.3000000000000003,0.097,-0.068,99.66,5.0,,0.0,0.0,193.71
2025-08-15T02:18:56.617Z,12,GR86-006-7,2.3000000000000003,0.06,-0.062,99.66,5.0,,0.0,0.0,
2025-08-15T02:18:56.660Z,12,GR86-006-7,2.3000000000000003,0.076,-0.051,99.67,5.0,,0.0,0.0,
2025-08-15T02:18:56.703Z,12,GR86-006-7,2.3000000000000003,0.084,-0.059,99.68,5.0,,0.0,0.0,
2025-08-15T02:18:56.746Z,12,GR86-006-7,2.3000000000000003,0.067,-0.044,99.67,5.0,6610.0,0.0,0.0,
2025-08-15T02:18:56.789Z,12,GR86-006-7,2.3000000000000003,0.084,-0.054,99.68,5.0,,0.0,0.0,194.47
2025-08-15T02:18:56.832Z,12,GR86-006-7,2.3000000000000003,0.098,-0.048,99.69,5.0,,0.0,0.0,
2025-08-15T02:18:56.875Z,12,GR86-006-7,2.3000000000000003,0.078,-0.06,99.69,5.0,,0.0,0.0,
2025-08-15T02:18:56.918Z,12,GR86-006-7,2.4000000000000004,0.067,-0.067,99.68,5.0,,0.0,0.0,
2025-08-15T02:18:56.961Z,12,GR86-006-7,2.4000000000000004,0.071,-0.054,99.68,5.0,6636.0,0.0,0.0,
2025-08-15T02:18:57.004Z,12,GR86-006-7,2.4000000000000004,0.083,-0.085,99.69,5.0,,0.0,0.0,195.26
2025-08-15T02:18:57.047Z,12,GR86-006-7,2.4000000000000004,0.061,-0.057,99.69,5.0,,0.0,0.0,
2025-08-15T02:18:57.090Z,12,GR86-006-7,2.4000000000000004,0.078,-0.065,99.68,5.0,,0.0,0.0,
2025-08-15T02:18:57.133Z,12,GR86-006-7,2.4000000000000004,0.097,-0.053,99.68,5.0,,0.0,0.0,
2025-08-15T02:18:57.176Z,12,GR86-006-7,2.4000000000000004,0.062,-0.041,99.68,5.0,6661.0,0.0,0.0,
2025-08-15T02:18:57.219Z,12,GR86-006-7,2.4000000000000004,0.078,-0.055,99.68,5.0,,0.0,0.0,196.0
2025-08-15T02:18:57.264Z,12,GR86-006-7,2.4000000000000004,0.084,-0.036,99.68,5.0,,0.0,0.0,
2025-08-15T02:18:57.307Z,12,GR86-006-7,2.4000000000000004,0.076,-0.053,99.66,5.0,,0.0,0.0,
2025-08-15T02:18:57.350Z,12,GR86-006-7,2.3000000000000003,0.118,-0.043,99.69,5.0,,0.0,0.0,
2025-08-15T02:18:57.393Z,12,GR86-006-7,2.4000000000000004,0.086,-0.078,99.68,5.0,6695.0,0.0,0.0,
2025-08-15T02:18:57.437Z,12,GR86-006-7,2.4000000000000004,0.063,-0.073,99.69,5.0,,0.0,0.0,196.75
2025-08-15T02:18:57.480Z,12,GR86-006-7,2.4000000000000004,0.08,-0.054,99.68,5.0,,0.0,0.0,
2025-08-15T02:18:57.524Z,12,GR86-006-7,2.4000000000000004,0.078,-0.045,99.68,5.0,,0.0,0.0,
2025-08-15T02:18:57.567Z,12,GR86-006-7,2.4000000000000004,0.103,-0.061,99.68,5.0,,0.0,0.0,
2025-08-15T02:18:57.610Z,12,GR86-006-7,2.4000000000000004,0.097,-0.053,99.68,5.0,6716.0,0.0,0.0,
2025-08-15T02:18:57.653Z,12,GR86-006-7,2.5,0.065,-0.068,99.68,5.0,,0.0,0.0,197.54
2025-08-15T02:18:57.696Z,12,GR86-006-7,2.5,0.086,-0.02,99.68,5.0,,0.0,0.0,
2025-08-15T02:18:57.739Z,12,GR86-006-7,2.5,0.072,-0.02,99.68,5.0,,0.0,0.0,
2025-08-15T02:18:57.783Z,12,GR86-006-7,2.5,0.101,-0.024,99.66,5.0,,0.0,0.0,
2025-08-15T02:18:57.826Z,12,GR86-006-7,2.5,0.092,-0.011,99.67,5.0,6734.0,0.0,0.0,
2025-08-15T02:18:57.869Z,12,GR86-006-7,2.5,0.105,-0.001,99.68,5.0,,0.0,0.0,198.27
2025-08-15T02:18:57.914Z,12,GR86-006-7,2.5,0.092,0.009,99.66,5.0,,0.0,0.0,
2025-08-15T02:18:57.957Z,12,GR86-006-7,2.4000000000000004,0.08,0.03,99.67,5.0,,0.0,0.0,
2025-08-15T02:18:58.000Z,12,GR86-006-7,2.4000000000000004,0.107,0.002,99.67,5.0,,0.0,0.0,
2025-08-15T02:18:58.043Z,12,GR86-006-7,2.4000000000000004,0.096,0.018,99.67,5.0,6764.0,0.0,0.0,
2025-08-15T02:18:58.086Z,12,GR86-006-7,2.4000000000000004,0.087,-0.006,99.67,5.0,,0.0,0.0,198.9
2025-08-15T02:18:58.129Z,12,GR86-006-7,2.3000000000000003,0.088,-0.015,99.68,5.0,,0.0,0.0,
2025-08-15T02:18:58.172Z,12,GR86-006-7,2.2,0.097,0.005,99.67,5.0,,0.0,0.0,
2025-08-15T02:18:58.215Z,12,GR86-006-7,2.2,0.084,-0.03,99.64,5.0,,0.0,0.0,
2025-08-15T02:18:58.301Z,12,GR86-006-7,2.2,0.099,-0.042,99.68,5.0,6781.0,0.0,0.0,199.54
2025-08-15T02:18:58.344Z,12,GR86-006-7,2.3000000000000003,0.077,-0.048,99.68,5.0,,0.0,0.0,
2025-08-15T02:18:58.387Z,12,GR86-006-7,2.3000000000000003,0.083,-0.038,99.67,5.0,,0.0,0.0,
2025-08-15T02:18:58.430Z,12,GR86-006-7,2.2,0.082,-0.028,99.68,5.0,,0.0,0.0,
2025-08-15T02:18:58.473Z,12,GR86-006-7,2.3000000000000003,0.088,-0.041,99.68,5.0,6810.0,0.0,0.0,
2025-08-15T02:18:58.516Z,12,GR86-006-7,2.3000000000000003,0.093,-0.046,99.67,5.0,,0.0,0.0,200.99
2025-08-15T02:18:58.559Z,12,GR86-006-7,2.3000000000000003,0.079,-0.066,99.68,5.0,,0.0,0.0,
2025-08-15T02:18:58.602Z,12,GR86-006-7,2.2,0.096,-0.052,99.68,5.0,,0.0,0.0,
2025-08-15T02:18:58.647Z,12,GR86-006-7,2.2,0.086,-0.062,99.67,5.0,,0.0,0.0,
2025-08-15T02:18:58.690Z,12,GR86-006-7,2.3000000000000003,0.073,-0.054,99.65,5.0,6830.0,0.0,0.0,
2025-08-15T02:18:58.733Z,12,GR86-006-7,2.4000000000000004,0.069,-0.042,99.68,5.0,,0.0,0.0,201.54
2025-08-15T02:18:58.776Z,12,GR86-006-7,2.4000000000000004,0.101,-0.066,99.64,5.0,,0.0,0.0,
2025-08-15T02:18:58.819Z,12,GR86-006-7,2.4000000000000004,0.063,-0.056,99.67,5.0,,0.0,0.0,
2025-08-15T02:18:58.862Z,12,GR86-006-7,2.4000000000000004,0.103,-0.059,99.69,5.0,,0.0,0.0,
2025-08-15T02:18:58.905Z,12,GR86-006-7,2.4000000000000004,0.076,-0.046,99.68,5.0,6861.0,0.0,0.0,
2025-08-15T02:18:58.948Z,12,GR86-006-7,2.4000000000000004,0.103,-0.021,99.69,5.0,,0.0,0.0,202.25
2025-08-15T02:18:58.991Z,12,GR86-006-7,2.4000000000000004,0.086,-0.008,99.67,5.0,,0.0,0.0,
2025-08-15T02:18:59.034Z,12,GR86-006-7,2.4000000000000004,0.087,-0.01,99.66,5.0,,0.0,0.0,
2025-08-15T02:18:59.077Z,12,GR86-006-7,2.4000000000000004,0.084,-0.02,99.67,5.0,,0.0,0.0,
2025-08-15T02:18:59.120Z,12,GR86-006-7,2.4000000000000004,0.092,-0.022,99.68,5.0,6901.0,0.0,0.0,
2025-08-15T02:18:59.163Z,12,GR86-006-7,2.4000000000000004,0.092,-0.025,99.69,5.0,,0.0,0.0,203.09
2025-08-15T02:18:59.206Z,12,GR86-006-7,2.5,0.082,-0.016,99.67,5.0,,0.0,0.0,
2025-08-15T02:18:59.249Z,12,GR86-006-7,2.5,0.084,-0.019,99.66,5.0,,0.0,0.0,
2025-08-15T02:18:59.292Z,12,GR86-006-7,2.5,0.085,0.002,99.67,5.0,,0.0,0.0,
2025-08-15T02:18:59.336Z,12,GR86-006-7,2.5,0.073,-0.017,99.67,5.0,6925.0,0.0,0.0,
2025-08-15T02:18:59.379Z,12,GR86-006-7,2.5,0.086,-0.041,99.68,5.0,,0.0,0.0,203.73
2025-08-15T02:18:59.422Z,12,GR86-006-7,2.5,0.077,-0.051,99.65,5.0,,0.0,0.0,
2025-08-15T02:18:59.465Z,12,GR86-006-7,2.6,0.079,-0.002,99.67,5.0,,0.0,0.0,
2025-08-15T02:18:59.508Z,12,GR86-006-7,2.7,0.103,0.008,99.68,5.0,,0.0,0.0,
2025-08-15T02:18:59.552Z,12,GR86-006-7,3.4000000000000004,0.106,0.047,99.68,5.0,6952.0,0.0,0.0,
2025-08-15T02:18:59.595Z,12,GR86-006-7,4.6000000000000005,0.07,0.059,99.68,5.0,,0.0,0.0,204.64
2025-08-15T02:18:59.638Z,12,GR86-006-7,5.6000000000000005,0.085,0.069,99.68,5.0,,0.0,0.0,
2025-08-15T02:18:59.681Z,12,GR86-006-7,6.1000000000000005,0.09,0.095,99.68,5.0,,0.0,0.0,
2025-08-15T02:18:59.724Z,12,GR86-006-7,6.1000000000000005,0.068,0.091,99.69,5.0,,0.0,0.0,
2025-08-15T02:18:59.768Z,12,GR86-006-7,6.0,0.076,0.152,99.68,5.0,6979.0,0.0,0.0,
2025-08-15T02:18:59.811Z,12,GR86-006-7,6.1000000000000005,0.084,0.18,99.68,5.0,,0.0,0.0,205.38
2025-08-15T02:18:59.854Z,12,GR86-006-7,6.5,0.086,0.17,99.68,5.0,,0.0,0.0,
2025-08-15T02:18:59.897Z,12,GR86-006-7,6.5,0.093,0.194,99.65,5.0,,2.485,2.73,
2025-08-15T02:18:59.940Z,12,GR86-006-7,6.4,0.054,0.19,99.69,5.0,,4.18,4.595,
2025-08-15T02:18:59.983Z,12,GR86-006-7,6.300000000000001,0.054,0.204,99.68,5.0,7010.0,3.905,4.275,
2025-08-15T02:19:00.026Z,12,GR86-006-7,6.300000000000001,0.025,0.189,99.64,5.0,,2.7,3.13,206.16
2025-08-15T02:19:00.069Z,12,GR86-006-7,6.300000000000001,0.034,0.223,99.68,5.0,,0.0,0.0,
2025-08-15T02:19:00.157Z,12,GR86-006-7,6.300000000000001,0.107,0.216,99.66,5.0,,0.0,0.0,
2025-08-15T02:19:00.200Z,12,GR86-006-7,6.2,0.071,0.224,99.68,5.0,7030.0,0.0,0.0,
2025-08-15T02:19:00.243Z,12,GR86-006-7,6.300000000000001,0.059,0.203,99.67,5.0,,0.0,0.0,206.91
2025-08-15T02:19:00.286Z,12,GR86-006-7,6.4,0.088,0.214,99.67,5.0,,0.0,0.0,
2025-08-15T02:19:00.329Z,12,GR86-006-7,6.6000000000000005,0.051,0.206,99.69,5.0,,0.0,0.0,
2025-08-15T02:19:00.374Z,12,GR86-006-7,6.4,0.064,0.216,99.67,5.0,,0.0,0.0,
2025-08-15T02:19:00.418Z,12,GR86-006-7,6.5,0.082,0.222,99.66,5.0,7048.0,0.0,0.0,
2025-08-15T02:19:00.461Z,12,GR86-006-7,6.7,0.062,0.202,99.67,5.0,,0.0,0.0,207.4
2025-08-15T02:19:00.504Z,12,GR86-006-7,6.7,0.116,0.2,99.67,5.0,,0.0,0.0,
2025-08-15T02:19:00.547Z,12,GR86-006-7,6.7,0.065,0.181,99.69,5.0,,0.0,0.0,
2025-08-15T02:19:00.590Z,12,GR86-006-7,6.9,0.084,0.161,99.66,5.0,,0.0,0.0,
2025-08-15T02:19:00.633Z,12,GR86-006-7,6.9,0.091,0.227,99.68,5.0,7070.0,0.0,0.0,
2025-08-15T02:19:00.676Z,12,GR86-006-7,6.9,0.091,0.237,99.66,5.0,,0.0,0.0,208.15
2025-08-15T02:19:00.719Z,12,GR86-006-7,6.800000000000001,0.088,0.238,99.67,5.0,,0.0,0.0,
2025-08-15T02:19:00.762Z,12,GR86-006-7,6.9,0.058,0.251,99.69,5.0,,0.0,0.0,
2025-08-15T02:19:00.805Z,12,GR86-006-7,7.1000000000000005,0.053,0.252,99.68,5.0,,0.0,0.0,
2025-08-15T02:19:00.848Z,12,GR86-006-7,7.2,0.072,0.278,99.67,5.0,7096.0,0.0,0.0,
2025-08-15T02:19:00.891Z,12,GR86-006-7,7.2,0.073,0.282,99.69,5.0,,0.0,0.0,208.76
2025-08-15T02:19:00.934Z,12,GR86-006-7,7.1000000000000005,0.073,0.264,99.67,5.0,,0.0,0.0,
2025-08-15T02:19:00.977Z,12,GR86-006-7,7.0,0.059,0.238,99.68,5.0,,0.0,0.0,
2025-08-15T02:19:01.020Z,12,GR86-006-7,7.0,0.087,0.197,99.68,5.0,,0.0,0.0,
2025-08-15T02:19:01.063Z,12,GR86-006-7,6.9,0.09,0.188,99.68,5.0,7122.0,0.0,0.0,
2025-08-15T02:19:01.106Z,12,GR86-006-7,6.9,0.062,0.187,99.67,5.0,,0.0,0.0,209.26
2025-08-15T02:19:01.149Z,12,GR86-006-7,6.9,0.088,0.214,99.67,5.0,,0.0,0.0,
2025-08-15T02:19:01.192Z,12,GR86-006-7,6.9,0.092,0.233,99.67,5.0,,0.0,0.0,
2025-08-15T02:19:01.235Z,12,GR86-006-7,6.800000000000001,0.086,0.191,99.67,5.0,,0.0,0.0,
2025-08-15T02:19:01.278Z,12,GR86-006-7,6.800000000000001,0.054,0.196,99.68,5.0,7139.0,0.0,0.0,
2025-08-15T02:19:01.321Z,12,GR86-006-7,6.800000000000001,0.052,0.222,99.67,5.0,,0.0,0.0,210.9
2025-08-15T02:19:01.364Z,12,GR86-006-7,6.7,0.073,0.206,99.66,5.0,,0.0,0.0,
2025-08-15T02:19:01.407Z,12,GR86-006-7,6.7,0.07,0.198,99.67,5.0,,0.0,0.0,
2025-08-15T02:19:01.450Z,12,GR86-006-7,6.6000000000000005,0.093,0.182,99.68,5.0,,0.0,0.0,
2025-08-15T02:19:01.493Z,12,GR86-006-7,6.6000000000000005,0.077,0.201,99.68,5.0,7165.0,0.0,0.0,
2025-08-15T02:19:01.536Z,12,GR86-006-7,6.6000000000000005,0.088,0.209,99.68,5.0,,0.0,0.0,211.49
2025-08-15T02:19:01.579Z,12,GR86-006-7,6.6000000000000005,0.064,0.173,99.67,5.0,,0.0,0.0,
2025-08-15T02:19:01.622Z,12,GR86-006-7,7.2,0.054,0.215,99.68,5.0,,0.0,0.0,
2025-08-15T02:19:01.665Z,12,GR86-006-7,8.200000000000001,0.037,0.216,99.68,5.0,,0.0,0.0,
2025-08-15T02:19:01.708Z,12,GR86-006-7,8.700000000000001,0.034,0.217,99.64,5.0,7190.0,0.0,0.0,
2025-08-15T02:19:01.751Z,12,GR86-006-7,8.5,0.058,0.224,99.66,5.0,,0.0,0.0,212.01
2025-08-15T02:19:01.794Z,12,GR86-006-7,8.3,0.028,0.24,99.65,5.0,,0.0,0.0,
2025-08-15T02:19:01.837Z,12,GR86-006-7,8.8,0.043,0.27,99.66,5.0,,0.0,0.0,
2025-08-15T02:19:01.880Z,12,GR86-006-7,9.3,0.076,0.296,99.67,5.0,,0.0,0.0,
2025-08-15T02:19:01.923Z,12,GR86-006-7,9.8,0.061,0.294,99.65,5.0,7235.0,0.0,0.0,
2025-08-15T02:19:01.966Z,12,GR86-006-7,10.0,0.061,0.323,99.68,5.0,,0.0,0.0,212.92
2025-08-15T02:19:02.009Z,12,GR86-006-7,10.0,0.026,0.326,99.67,5.0,,0.0,0.0,
2025-08-15T02:19:02.054Z,12,GR86-006-7,9.8,0.041,0.302,99.68,5.0,,0.0,0.0,
2025-08-15T02:19:02.097Z,12,GR86-006-7,9.6,0.048,0.368,99.67,5.0,,0.0,0.0,
2025-08-15T02:19:02.141Z,12,GR86-006-7,9.5,0.027,0.356,99.67,5.0,7253.0,0.0,0.0,
2025-08-15T02:19:02.184Z,12,GR86-006-7,9.4,0.031,0.361,99.65,5.0,,0.0,0.0,213.66
2025-08-15T02:19:02.227Z,12,GR86-006-7,9.2,0.063,0.346,99.65,5.0,,0.0,0.0,
2025-08-15T02:19:02.270Z,12,GR86-006-7,9.2,0.049,0.358,99.67,5.0,,0.0,0.0,
2025-08-15T02:19:02.314Z,12,GR86-006-7,9.0,0.057,0.341,99.66,5.0,,0.0,0.0,
2025-08-15T02:19:02.357Z,12,GR86-006-7,8.9,0.013,0.343,99.65,5.0,7280.0,0.0,0.0,
2025-08-15T02:19:02.400Z,12,GR86-006-7,8.8,0.006,0.271,97.97,5.0,,0.0,0.0,214.25
2025-08-15T02:19:02.443Z,12,GR86-006-7,8.8,-0.005,0.263,54.06,5.0,,2.73,2.915,
2025-08-15T02:19:02.486Z,12,GR86-006-7,8.700000000000001,-0.025,0.236,36.86,5.0,,5.22,5.37,
2025-08-15T02:19:02.529Z,12,GR86-006-7,8.700000000000001,-0.076,0.256,30.0,5.0,,8.700000000000001,8.67,
2025-08-15T02:19:02.572Z,12,GR86-006-7,8.6,-0.218,0.197,4.69,5.0,7309.0,14.39,14.39,
2025-08-15T02:19:02.617Z,12,GR86-006-7,8.6,-0.292,0.185,4.69,5.0,,18.175,18.145,215.01
2025-08-15T02:19:02.660Z,12,GR86-006-7,8.5,-0.466,0.202,4.54,5.0,,23.775,23.655,
2025-08-15T02:19:02.703Z,12,GR86-006-7,8.5,-0.632,0.18,4.3100000000000005,5.0,,32.275,31.925,
2025-08-15T02:19:02.746Z,12,GR86-006-7,8.5,-0.8160000000000001,0.14,3.98,5.0,,43.17,42.485,
2025-08-15T02:19:02.789Z,12,GR86-006-7,8.4,-0.993,0.165,3.59,5.0,7288.0,54.08,53.24,
2025-08-15T02:19:02.832Z,12,GR86-006-7,8.3,-1.135,0.118,3.31,5.0,,68.21000000000001,67.205,215.43
2025-08-15T02:19:02.875Z,12,GR86-006-7,8.3,-1.149,0.15,2.96,5.0,,72.895,73.60000000000001,
2025-08-15T02:19:02.918Z,12,GR86-006-7,8.200000000000001,-1.2,0.134,13.04,5.0,,74.805,76.56,
2025-08-15T02:19:02.961Z,12,GR86-006-7,8.200000000000001,-1.274,0.158,55.05,5.0,,73.37,73.72,
2025-08-15T02:19:03.004Z,12,GR86-006-7,8.1,-1.254,0.164,96.57,4.0,6971.0,74.345,76.18,
2025-08-15T02:19:03.047Z,12,GR86-006-7,7.9,-1.195,0.183,62.81,4.0,,74.805,75.58500000000001,214.09
2025-08-15T02:19:03.091Z,12,GR86-006-7,7.9,-1.389,0.112,1.96,4.0,,75.78,77.11,
2025-08-15T02:19:03.134Z,12,GR86-006-7,7.800000000000001,-1.275,0.22,2.68,4.0,,80.405,81.395,
2025-08-15T02:19:03.177Z,12,GR86-006-7,7.800000000000001,-1.228,0.082,2.65,4.0,,79.245,79.045,
2025-08-15T02:19:03.220Z,12,GR86-006-7,7.1000000000000005,-1.238,0.181,2.63,4.0,6520.0,79.625,81.365,
2025-08-15T02:19:03.263Z,12,GR86-006-7,6.6000000000000005,-1.264,0.175,2.62,4.0,,80.94,82.65,207.06
2025-08-15T02:19:03.306Z,12,GR86-006-7,6.5,-1.191,0.084,2.61,4.0,,80.25,80.74,
2025-08-15T02:19:03.349Z,12,GR86-006-7,6.5,-1.37,0.202,2.59,4.0,,82.33,83.76,
2025-08-15T02:19:03.392Z,12,GR86-006-7,6.4,-1.254,0.076,2.58,4.0,,86.31,87.03,
2025-08-15T02:19:03.435Z,12,GR86-006-7,7.4,-1.328,0.101,2.62,4.0,7259.0,88.645,89.895,
2025-08-15T02:19:03.478Z,12,GR86-006-7,11.0,-1.267,0.154,2.71,4.0,,91.65,92.78,199.27
2025-08-15T02:19:03.521Z,12,GR86-006-7,13.6,-1.307,0.127,3.03,4.0,,94.08,94.58,
2025-08-15T02:19:03.564Z,12,GR86-006-7,13.6,-1.241,0.173,3.18,4.0,,96.78,96.61,
2025-08-15T02:19:03.607Z,12,GR86-006-7,13.3,-1.31,0.198,3.5700000000000003,4.0,,99.085,98.685,
2025-08-15T02:19:03.650Z,12,GR86-006-7,13.1,-1.325,0.151,38.62,3.0,6942.0,101.175,101.83,
2025-08-15T02:19:03.693Z,12,GR86-006-7,9.9,-1.38,0.154,10.32,3.0,,104.44,106.685,190.86
2025-08-15T02:19:03.736Z,12,GR86-006-7,7.5,-1.326,0.164,7.12,3.0,,105.86,108.56,
2025-08-15T02:19:03.779Z,12,GR86-006-7,5.800000000000001,-1.477,0.155,6.96,3.0,,107.23,109.69,
2025-08-15T02:19:03.822Z,12,GR86-006-7,4.6000000000000005,-1.475,0.161,6.74,3.0,,103.845,105.08,
2025-08-15T02:19:03.867Z,12,GR86-006-7,3.8,-1.283,0.318,6.5200000000000005,3.0,6855.0,104.15,106.685,
2025-08-15T02:19:03.953Z,12,GR86-006-7,3.7,-1.363,0.363,5.5200000000000005,3.0,,101.675,102.625,182.57
2025-08-15T02:19:03.996Z,12,GR86-006-7,3.7,-1.236,0.359,5.2700000000000005,3.0,,103.755,104.895,
2025-08-15T02:19:04.039Z,12,GR86-006-7,4.4,-1.251,0.216,5.33,3.0,,105.965,106.99,
2025-08-15T02:19:04.082Z,12,GR86-006-7,6.300000000000001,-1.197,0.307,5.37,3.0,6589.0,102.685,103.125,
2025-08-15T02:19:04.126Z,12,GR86-006-7,6.4,-1.269,0.216,5.84,3.0,,100.99,100.455,165.88
2025-08-15T02:19:04.169Z,12,GR86-006-7,7.9,-1.339,0.054,7.38,3.0,,104.625,104.96,
2025-08-15T02:19:04.213Z,12,GR86-006-7,9.7,-1.28,0.139,7.6,3.0,,103.72,104.24,
2025-08-15T02:19:04.257Z,12,GR86-006-7,10.7,-1.391,0.026,22.85,3.0,,103.495,102.9,
2025-08-15T02:19:04.300Z,12,GR86-006-7,11.3,-1.423,0.032,54.05,2.0,7056.0,104.18,104.27,
2025-08-15T02:19:04.343Z,12,GR86-006-7,11.3,-1.397,0.067,9.99,2.0,,106.36,108.775,157.01
2025-08-15T02:19:04.386Z,12,GR86-006-7,11.2,-1.365,0.12,7.87,2.0,,106.865,110.025,
2025-08-15T02:19:04.429Z,12,GR86-006-7,11.5,-1.545,0.024,7.69,2.0,,106.12,108.775,
2025-08-15T02:19:04.472Z,12,GR86-006-7,11.4,-1.289,0.114,6.96,2.0,,94.645,97.25,
2025-08-15T02:19:04.515Z,12,GR86-006-7,11.3,-1.178,0.177,6.8100000000000005,2.0,6337.0,80.77,83.485,
2025-08-15T02:19:04.558Z,12,GR86-006-7,11.2,-1.047,0.028,6.68,2.0,,66.045,67.145,147.55
2025-08-15T02:19:04.601Z,12,GR86-006-7,11.1,-1.054,0.344,6.3500000000000005,2.0,,58.125,60.05,
2025-08-15T02:19:04.644Z,12,GR86-006-7,11.0,-1.155,0.225,6.03,2.0,,57.99,59.455,
2025-08-15T02:19:04.687Z,12,GR86-006-7,10.8,-0.889,0.172,6.74,2.0,,58.02,59.33,
2025-08-15T02:19:04.773Z,12,GR86-006-7,11.8,-1.127,0.267,6.33,2.0,6930.0,63.025,63.835,138.85
2025-08-15T02:19:04.817Z,12,GR86-006-7,13.1,-1.07,0.391,6.53,2.0,,62.565000000000005,63.175,
2025-08-15T02:19:04.860Z,12,GR86-006-7,13.3,-1.13,0.486,6.58,2.0,,63.205,63.620000000000005,
2025-08-15T02:19:04.904Z,12,GR86-006-7,13.1,-1.161,0.328,6.61,2.0,,63.925,65.025,
2025-08-15T02:19:04.947Z,12,GR86-006-7,13.0,-1.194,0.42,6.68,2.0,6986.0,64.9,66.045,
2025-08-15T02:19:04.990Z,12,GR86-006-7,13.0,-1.137,0.492,6.67,2.0,,64.305,64.96000000000001,132.11
2025-08-15T02:19:05.033Z,12,GR86-006-7,13.0,-1.13,0.366,6.68,2.0,,64.305,65.495,
2025-08-15T02:19:05.076Z,12,GR86-006-7,12.7,-1.131,0.429,6.58,2.0,,63.175,64.75,
2025-08-15T02:19:05.119Z,12,GR86-006-7,12.8,-1.099,0.407,6.41,2.0,,57.955,59.025,
2025-08-15T02:19:05.162Z,12,GR86-006-7,13.6,-1.051,0.381,6.03,2.0,6761.0,53.715,55.15,
2025-08-15T02:19:05.205Z,12,GR86-006-7,14.1,-1.049,0.415,5.72,2.0,,51.305,52.83,125.35
2025-08-15T02:19:05.248Z,12,GR86-006-7,14.6,-1.052,0.429,5.39,2.0,,49.96,51.535,
2025-08-15T02:19:05.291Z,12,GR86-006-7,15.6,-1.038,0.418,5.2700000000000005,2.0,,49.23,50.68,
2025-08-15T02:19:05.334Z,12,GR86-006-7,18.5,-1.059,0.462,50.13,1.0,,48.235,49.61,
2025-08-15T02:19:05.377Z,12,GR86-006-7,20.5,-1.087,0.459,26.31,1.0,6318.0,47.125,48.59,
2025-08-15T02:19:05.420Z,12,GR86-006-7,21.200000000000003,-1.246,0.374,6.68,1.0,,47.06,48.42,118.34
2025-08-15T02:19:05.463Z,12,GR86-006-7,22.200000000000003,-1.198,0.542,6.61,1.0,,47.52,48.925,
2025-08-15T02:19:05.506Z,12,GR86-006-7,24.3,-1.189,0.54,6.48,1.0,,44.91,45.625,
2025-08-15T02:19:05.549Z,12,GR86-006-7,24.3,-1.007,0.632,6.23,1.0,,40.12,41.31,
2025-08-15T02:19:05.592Z,12,GR86-006-7,23.9,-0.737,0.729,4.74,1.0,5904.0,31.71,32.715,
2025-08-15T02:19:05.635Z,12,GR86-006-7,26.0,-0.757,0.792,4.63,1.0,,29.115,30.015,111.19
2025-08-15T02:19:05.678Z,12,GR86-006-7,29.3,-0.934,0.902,4.41,1.0,,27.97,29.025,
2025-08-15T02:19:05.721Z,12,GR86-006-7,33.6,-0.764,0.731,4.21,1.0,,26.75,27.805,
2025-08-15T02:19:05.764Z,12,GR86-006-7,39.5,-0.806,0.875,4.29,1.0,,25.835,26.505,
2025-08-15T02:19:05.807Z,12,GR86-006-7,48.3,-0.8280000000000001,0.971,4.22,1.0,6334.0,25.15,25.895,
2025-08-15T02:19:05.850Z,12,GR86-006-7,56.900000000000006,-0.719,0.853,4.03,1.0,,24.585,25.515,104.44
2025-08-15T02:19:05.893Z,12,GR86-006-7,62.8,-0.682,0.923,3.93,1.0,,23.805,24.525,
2025-08-15T02:19:05.936Z,12,GR86-006-7,63.900000000000006,-0.6980000000000001,0.975,3.92,1.0,,23.53,24.2,
2025-08-15T02:19:05.979Z,12,GR86-006-7,64.8,-0.681,0.993,3.89,1.0,,22.905,23.655,
2025-08-15T02:19:06.022Z,12,GR86-006-7,66.4,-0.5720000000000001,0.913,3.93,1.0,6583.0,19.245,20.265,
2025-08-15T02:19:06.065Z,12,GR86-006-7,69.3,-0.513,1.011,4.03,1.0,,14.575,15.595,97.9
2025-08-15T02:19:06.108Z,12,GR86-006-7,72.9,-0.467,1.029,4.12,1.0,,10.47,11.55,
2025-08-15T02:19:06.151Z,12,GR86-006-7,75.7,-0.413,1.012,4.29,1.0,,7.37,8.3,
2025-08-15T02:19:06.194Z,12,GR86-006-7,77.9,-0.351,1.064,4.57,1.0,,2.855,3.645,
2025-08-15T02:19:06.237Z,12,GR86-006-7,78.2,-0.253,1.111,4.64,1.0,6359.0,0.0,0.0,
2025-08-15T02:19:06.323Z,12,GR86-006-7,78.0,-0.237,1.105,4.7,1.0,,0.0,0.0,92.05
2025-08-15T02:19:06.409Z,12,GR86-006-7,78.80000000000001,-0.21,1.135,4.8,1.0,,0.0,0.0,
2025-08-15T02:19:06.452Z,12,GR86-006-7,79.60000000000001,-0.205,1.207,7.87,1.0,6066.0,0.0,0.0,
2025-08-15T02:19:06.495Z,12,GR86-006-7,79.80000000000001,-0.208,1.203,16.16,1.0,,0.0,0.0,87.62
2025-08-15T02:19:06.538Z,12,GR86-006-7,80.60000000000001,-0.208,1.241,16.47,1.0,,0.0,0.0,
2025-08-15T02:19:06.581Z,12,GR86-006-7,82.0,-0.182,1.206,20.35,1.0,,0.0,0.0,
2025-08-15T02:19:06.624Z,12,GR86-006-7,83.0,-0.145,1.146,22.15,1.0,,0.0,0.0,
2025-08-15T02:19:06.668Z,12,GR86-006-7,83.2,-0.126,1.204,23.64,1.0,5984.0,0.0,0.0,
2025-08-15T02:19:06.711Z,12,GR86-006-7,83.5,-0.134,1.221,24.58,1.0,,0.0,0.0,85.2
2025-08-15T02:19:06.754Z,12,GR86-006-7,86.10000000000001,-0.116,1.233,24.43,1.0,,0.0,0.0,
2025-08-15T02:19:06.797Z,12,GR86-006-7,87.60000000000001,0.089,1.194,24.59,1.0,,0.0,0.0,
2025-08-15T02:19:06.840Z,12,GR86-006-7,88.10000000000001,0.088,1.29,26.06,1.0,,0.0,0.0,
2025-08-15T02:19:06.883Z,12,GR86-006-7,88.4,0.157,1.218,31.09,1.0,5861.0,0.0,0.0,
2025-08-15T02:19:06.926Z,12,GR86-006-7,89.0,0.098,1.287,31.05,1.0,,0.0,0.0,82.23
2025-08-15T02:19:06.969Z,12,GR86-006-7,91.2,0.11,1.245,30.12,1.0,,0.0,0.0,
2025-08-15T02:19:07.013Z,12,GR86-006-7,94.9,0.125,1.148,28.92,1.0,,0.0,0.0,
2025-08-15T02:19:07.057Z,12,GR86-006-7,95.9,0.141,1.145,28.92,1.0,,0.0,0.0,
2025-08-15T02:19:07.100Z,12,GR86-006-7,96.0,0.102,1.225,28.84,1.0,6017.0,0.0,0.0,
2025-08-15T02:19:07.143Z,12,GR86-006-7,95.9,0.085,1.122,28.61,1.0,,0.0,0.0,81.26
2025-08-15T02:19:07.186Z,12,GR86-006-7,96.0,0.032,1.173,28.85,1.0,,0.0,0.0,
2025-08-15T02:19:07.229Z,12,GR86-006-7,95.9,0.156,1.09,31.51,1.0,,0.0,0.0,
2025-08-15T02:19:07.274Z,12,GR86-006-7,95.7,0.221,1.085,31.64,1.0,,0.0,0.0,
2025-08-15T02:19:07.317Z,12,GR86-006-7,95.4,0.053,1.203,32.69,1.0,6210.0,0.0,0.0,
2025-08-15T02:19:07.361Z,12,GR86-006-7,95.3,0.186,1.498,33.79,1.0,,0.0,0.0,81.21000000000001
2025-08-15T02:19:07.404Z,12,GR86-006-7,95.2,0.171,1.33,34.47,1.0,,0.0,0.0,
2025-08-15T02:19:07.447Z,12,GR86-006-7,95.2,0.107,1.336,34.79,1.0,,0.0,0.0,
2025-08-15T02:19:07.490Z,12,GR86-006-7,95.2,0.244,1.537,35.9,1.0,,0.0,0.0,
2025-08-15T02:19:07.533Z,12,GR86-006-7,95.2,0.133,1.309,37.28,1.0,6354.0,0.0,0.0,
2025-08-15T02:19:07.577Z,12,GR86-006-7,94.8,0.342,1.118,37.54,1.0,,0.0,0.0,81.55
2025-08-15T02:19:07.620Z,12,GR86-006-7,94.3,0.179,1.007,38.01,1.0,,0.0,0.0,
2025-08-15T02:19:07.663Z,12,GR86-006-7,92.9,0.11,0.98,38.24,1.0,,0.0,0.0,
2025-08-15T02:19:07.706Z,12,GR86-006-7,89.80000000000001,0.173,1.075,38.85,1.0,,0.0,0.0,
2025-08-15T02:19:07.749Z,12,GR86-006-7,86.10000000000001,0.097,1.276,40.81,1.0,6445.0,0.0,0.0,
2025-08-15T02:19:07.792Z,12,GR86-006-7,84.2,0.271,1.358,41.15,1.0,,0.0,0.0,82.75
2025-08-15T02:19:07.835Z,12,GR86-006-7,84.30000000000001,0.288,1.228,40.9,1.0,,0.0,0.0,
2025-08-15T02:19:07.878Z,12,GR86-006-7,84.30000000000001,0.225,1.208,40.92,1.0,,0.0,0.0,
2025-08-15T02:19:07.921Z,12,GR86-006-7,84.10000000000001,0.278,1.126,40.69,1.0,,0.0,0.0,
2025-08-15T02:19:07.964Z,12,GR86-006-7,84.2,0.234,1.105,40.43,1.0,6526.0,0.0,0.0,
2025-08-15T02:19:08.007Z,12,GR86-006-7,84.2,0.196,1.139,40.45,1.0,,0.0,0.0,83.43
2025-08-15T02:19:08.050Z,12,GR86-006-7,84.30000000000001,0.193,1.149,40.5,1.0,,0.0,0.0,
2025-08-15T02:19:08.093Z,12,GR86-006-7,84.0,0.198,1.158,50.85,1.0,,0.0,0.0,
2025-08-15T02:19:08.136Z,12,GR86-006-7,82.9,0.21,1.126,55.33,1.0,,0.0,0.0,
2025-08-15T02:19:08.179Z,12,GR86-006-7,81.60000000000001,0.23,1.085,56.41,1.0,6519.0,0.0,0.0,
2025-08-15T02:19:08.222Z,12,GR86-006-7,74.3,0.264,1.115,58.6,1.0,,0.0,0.0,84.82000000000001
2025-08-15T02:19:08.265Z,12,GR86-006-7,62.8,0.278,1.044,72.69,1.0,,0.0,0.0,
2025-08-15T02:19:08.308Z,12,GR86-006-7,50.400000000000006,0.281,1.067,95.12,1.0,,0.0,0.0,
2025-08-15T02:19:08.351Z,12,GR86-006-7,40.400000000000006,0.288,1.078,99.72,1.0,,0.0,0.0,
2025-08-15T02:19:08.394Z,12,GR86-006-7,31.700000000000003,0.28,1.05,99.66,1.0,6639.0,0.0,0.0,
2025-08-15T02:19:08.437Z,12,GR86-006-7,26.6,0.292,1.103,99.67,1.0,,0.0,0.0,85.96000000000001
2025-08-15T02:19:08.480Z,12,GR86-006-7,21.5,0.347,1.065,99.66,1.0,,0.0,0.0,
2025-08-15T02:19:08.523Z,12,GR86-006-7,16.6,0.34,1.025,99.67,1.0,,0.0,0.0,
2025-08-15T02:19:08.566Z,12,GR86-006-7,11.9,0.337,1.026,99.67,1.0,,0.0,0.0,
2025-08-15T02:19:08.609Z,12,GR86-006-7,7.2,0.351,1.003,99.68,1.0,6851.0,0.0,0.0,
2025-08-15T02:19:08.654Z,12,GR86-006-7,0.6000000000000001,0.366,0.984,99.68,1.0,,0.0,0.0,87.38
2025-08-15T02:19:08.697Z,12,GR86-006-7,-3.5,0.347,0.929,99.69,1.0,,0.0,0.0,
2025-08-15T02:19:08.740Z,12,GR86-006-7,-6.7,0.365,0.85,99.68,1.0,,0.0,0.0,
2025-08-15T02:19:08.783Z,12,GR86-006-7,-7.0,0.35,0.85,99.67,1.0,,0.0,0.0,
2025-08-15T02:19:08.826Z,12,GR86-006-7,0.9,0.396,0.862,99.7,1.0,7053.0,0.0,0.0,
2025-08-15T02:19:08.869Z,12,GR86-006-7,15.7,0.403,0.955,99.68,1.0,,0.0,0.0,89.35000000000001
2025-08-15T02:19:08.914Z,12,GR86-006-7,29.1,0.353,0.8180000000000001,99.68,1.0,,0.0,0.0,
2025-08-15T02:19:08.957Z,12,GR86-006-7,29.8,0.445,0.904,99.68,1.0,,0.0,0.0,
2025-08-15T02:19:09.000Z,12,GR86-006-7,27.6,0.511,0.656,99.69,1.0,,0.0,0.0,
2025-08-15T02:19:09.043Z,12,GR86-006-7,25.1,0.078,0.522,99.69,2.0,7171.0,0.0,0.0,
2025-08-15T02:19:09.086Z,12,GR86-006-7,23.700000000000003,-0.079,0.63,99.68,2.0,,0.0,0.0,90.95
2025-08-15T02:19:09.129Z,12,GR86-006-7,22.5,0.528,0.384,99.69,2.0,,0.0,0.0,
2025-08-15T02:19:09.172Z,12,GR86-006-7,20.5,0.401,0.513,99.68,2.0,,0.0,0.0,
2025-08-15T02:19:09.217Z,12,GR86-006-7,19.1,0.266,0.388,99.7,2.0,,0.0,0.0,
2025-08-15T02:19:09.261Z,12,GR86-006-7,18.0,0.142,0.449,99.7,2.0,7224.0,0.0,0.0,
2025-08-15T02:19:09.304Z,12,GR86-006-7,18.0,0.206,0.631,99.7,2.0,,0.0,0.0,91.96
2025-08-15T02:19:09.347Z,12,GR86-006-7,18.3,0.311,0.544,99.69,2.0,,0.0,0.0,
2025-08-15T02:19:09.390Z,12,GR86-006-7,18.1,0.362,0.654,99.69,2.0,,0.0,0.0,
2025-08-15T02:19:09.433Z,12,GR86-006-7,18.5,0.14,0.407,99.67,2.0,,0.0,0.0,
2025-08-15T02:19:09.476Z,12,GR86-006-7,19.1,-0.028,0.644,99.69,2.0,6433.0,0.0,0.0,
2025-08-15T02:19:09.519Z,12,GR86-006-7,19.200000000000003,0.307,0.609,99.68,2.0,,0.0,0.0,96.37
2025-08-15T02:19:09.562Z,12,GR86-006-7,19.1,0.516,0.64,99.69,2.0,,0.0,0.0,
2025-08-15T02:19:09.605Z,12,GR86-006-7,19.1,0.664,0.525,99.68,2.0,,0.0,0.0,
2025-08-15T02:19:09.648Z,12,GR86-006-7,18.3,0.462,0.662,99.67,2.0,,0.0,0.0,
2025-08-15T02:19:09.691Z,12,GR86-006-7,16.7,0.11,0.401,99.67,2.0,5693.0,0.0,0.0,
2025-08-15T02:19:09.734Z,12,GR86-006-7,14.7,0.46,0.723,99.69,2.0,,0.0,0.0,98.63
2025-08-15T02:19:09.777Z,12,GR86-006-7,13.6,0.717,0.627,99.7,2.0,,0.0,0.0,
2025-08-15T02:19:09.820Z,12,GR86-006-7,12.8,0.772,0.602,99.7,2.0,,0.0,0.0,
2025-08-15T02:19:09.863Z,12,GR86-006-7,12.2,0.505,0.646,99.7,2.0,,0.0,0.0,
2025-08-15T02:19:09.906Z,12,GR86-006-7,11.2,0.344,0.666,99.69,2.0,5810.0,0.0,0.0,
2025-08-15T02:19:09.949Z,12,GR86-006-7,10.7,0.042,0.29,99.7,2.0,,0.0,0.0,100.13
2025-08-15T02:19:09.992Z,12,GR86-006-7,9.0,0.528,0.587,99.68,2.0,,0.0,0.0,
2025-08-15T02:19:10.035Z,12,GR86-006-7,8.3,0.59,0.471,99.68,2.0,,0.0,0.0,
2025-08-15T02:19:10.078Z,12,GR86-006-7,7.9,0.64,0.538,99.7,2.0,,0.0,0.0,
2025-08-15T02:19:10.121Z,12,GR86-006-7,7.4,0.474,0.372,99.68,2.0,5963.0,0.0,0.0,
2025-08-15T02:19:10.164Z,12,GR86-006-7,7.4,0.378,0.349,99.69,2.0,,0.0,0.0,101.94
2025-08-15T02:19:10.207Z,12,GR86-006-7,7.1000000000000005,0.227,0.287,99.7,2.0,,0.0,0.0,
2025-08-15T02:19:10.250Z,12,GR86-006-7,6.7,0.103,0.157,99.68,2.0,,0.0,0.0,
2025-08-15T02:19:10.293Z,12,GR86-006-7,6.1000000000000005,0.502,0.123,99.68,2.0,,0.0,0.0,
2025-08-15T02:19:10.336Z,12,GR86-006-7,5.9,0.522,0.047,99.67,2.0,6047.0,0.0,0.0,
2025-08-15T02:19:10.379Z,12,GR86-006-7,5.5,0.496,0.023,99.69,2.0,,0.0,0.0,103.79
2025-08-15T02:19:10.422Z,12,GR86-006-7,5.5,0.441,0.093,99.69,2.0,,0.0,0.0,
2025-08-15T02:19:10.467Z,12,GR86-006-7,5.5,0.374,0.017,99.68,2.0,,0.0,0.0,
2025-08-15T02:19:10.510Z,12,GR86-006-7,5.6000000000000005,0.335,-0.031,99.7,2.0,,0.0,0.0,
2025-08-15T02:19:10.553Z,12,GR86-006-7,5.5,0.229,-0.016,99.7,2.0,6330.0,0.0,0.0,
2025-08-15T02:19:10.597Z,12,GR86-006-7,5.5,0.234,-0.11,99.72,2.0,,0.0,0.0,105.41
2025-08-15T02:19:10.640Z,12,GR86-006-7,5.5,0.258,-0.08,99.69,2.0,,0.0,0.0,
2025-08-15T02:19:10.683Z,12,GR86-006-7,5.5,0.293,-0.147,99.7,2.0,,0.0,0.0,
2025-08-15T02:19:10.726Z,12,GR86-006-7,5.6000000000000005,0.29,-0.117,99.67,2.0,,0.0,0.0,
2025-08-15T02:19:10.769Z,12,GR86-006-7,5.6000000000000005,0.306,-0.087,99.69,2.0,6286.0,0.0,0.0,
2025-08-15T02:19:10.813Z,12,GR86-006-7,5.6000000000000005,0.282,-0.088,99.69,2.0,,0.0,0.0,107.36
2025-08-15T02:19:10.857Z,12,GR86-006-7,5.6000000000000005,0.26,-0.077,99.7,2.0,,0.0,0.0,
2025-08-15T02:19:10.900Z,12,GR86-006-7,5.6000000000000005,0.273,-0.036,99.71,2.0,,0.0,0.0,
2025-08-15T02:19:10.943Z,12,GR86-006-7,5.6000000000000005,0.242,-0.039,99.69,2.0,,0.0,0.0,
2025-08-15T02:19:10.986Z,12,GR86-006-7,5.6000000000000005,0.293,-0.017,99.69,2.0,6375.0,0.0,0.0,
2025-08-15T02:19:11.029Z,12,GR86-006-7,5.5,0.272,0.013,99.68,2.0,,0.0,0.0,108.94
2025-08-15T02:19:11.072Z,12,GR86-006-7,5.4,0.273,-0.012,99.7,2.0,,0.0,0.0,
2025-08-15T02:19:11.115Z,12,GR86-006-7,5.2,0.27,0.01,99.71,2.0,,0.0,0.0,
2025-08-15T02:19:11.158Z,12,GR86-006-7,5.300000000000001,0.266,0.006,99.69,2.0,,0.0,0.0,
2025-08-15T02:19:11.201Z,12,GR86-006-7,5.4,0.276,0.009,99.71,2.0,6431.0,0.0,0.0,
2025-08-15T02:19:11.244Z,12,GR86-006-7,5.4,0.277,0.024,99.68,2.0,,0.0,0.0,110.75
2025-08-15T02:19:11.287Z,12,GR86-006-7,5.4,0.277,0.011,99.69,2.0,,0.0,0.0,
2025-08-15T02:19:11.330Z,12,GR86-006-7,5.300000000000001,0.267,0.011,99.7,2.0,,0.0,0.0,
2025-08-15T02:19:11.373Z,12,GR86-006-7,5.2,0.267,-0.006,99.7,2.0,,0.0,0.0,
2025-08-15T02:19:11.416Z,12,GR86-006-7,5.2,0.267,0.005,99.68,2.0,6515.0,0.0,0.0,
2025-08-15T02:19:11.459Z,12,GR86-006-7,5.2,0.258,-0.012,99.69,2.0,,0.0,0.0,112.37
2025-08-15T02:19:11.502Z,12,GR86-006-7,5.1000000000000005,0.273,-0.01,99.69,2.0,,0.0,0.0,
2025-08-15T02:19:11.547Z,12,GR86-006-7,4.4,0.276,-0.003,99.69,2.0,,0.0,0.0,
2025-08-15T02:19:11.590Z,12,GR86-006-7,3.1,0.273,-0.024,99.67,2.0,,0.0,0.0,
2025-08-15T02:19:11.633Z,12,GR86-006-7,1.2000000000000002,0.264,-0.049,99.69,2.0,6605.0,0.0,0.0,
2025-08-15T02:19:11.676Z,12,GR86-006-7,0.8,0.27,-0.071,99.71,2.0,,0.0,0.0,114.07
2025-08-15T02:19:11.719Z,12,GR86-006-7,0.8,0.27,-0.082,99.69,2.0,,0.0,0.0,
2025-08-15T02:19:11.762Z,12,GR86-006-7,0.9,0.265,-0.101,99.69,2.0,,0.0,0.0,
2025-08-15T02:19:11.805Z,12,GR86-006-7,0.9,0.277,-0.123,99.7,2.0,,0.0,0.0,
2025-08-15T02:19:11.848Z,12,GR86-006-7,1.0,0.277,-0.11,99.7,2.0,6709.0,0.0,0.0,
2025-08-15T02:19:11.891Z,12,GR86-006-7,1.2000000000000002,0.268,-0.116,99.67,2.0,,0.0,0.0,115.61
2025-08-15T02:19:11.934Z,12,GR86-006-7,1.2000000000000002,0.267,-0.121,99.7,2.0,,0.0,0.0,
2025-08-15T02:19:11.977Z,12,GR86-006-7,1.1,0.27,-0.104,99.7,2.0,,0.0,0.0,
2025-08-15T02:19:12.020Z,12,GR86-006-7,1.1,0.278,-0.106,99.7,2.0,,0.0,0.0,
2025-08-15T02:19:12.063Z,12,GR86-006-7,1.2000000000000002,0.268,-0.104,99.71,2.0,6784.0,0.0,0.0,
2025-08-15T02:19:12.106Z,12,GR86-006-7,1.2000000000000002,0.276,-0.099,99.7,2.0,,0.0,0.0,117.14
2025-08-15T02:19:12.149Z,12,GR86-006-7,1.2000000000000002,0.264,-0.111,99.68,2.0,,0.0,0.0,
2025-08-15T02:19:12.192Z,12,GR86-006-7,1.2000000000000002,0.267,-0.099,99.69,2.0,,0.0,0.0,
2025-08-15T02:19:12.235Z,12,GR86-006-7,1.0,0.273,-0.098,99.71,2.0,,0.0,0.0,
2025-08-15T02:19:12.278Z,12,GR86-006-7,0.6000000000000001,0.277,-0.105,99.7,2.0,6869.0,0.0,0.0,
2025-08-15T02:19:12.321Z,12,GR86-006-7,0.4,0.263,-0.104,99.68,2.0,,0.0,0.0,120.12
2025-08-15T02:19:12.364Z,12,GR86-006-7,0.1,0.258,-0.111,99.69,2.0,,0.0,0.0,
2025-08-15T02:19:12.407Z,12,GR86-006-7,-0.1,0.269,-0.125,99.68,2.0,,0.0,0.0,
2025-08-15T02:19:12.450Z,12,GR86-006-7,-0.3,0.275,-0.12,99.7,2.0,,0.0,0.0,
2025-08-15T02:19:12.493Z,12,GR86-006-7,-0.6000000000000001,0.266,-0.132,99.71,2.0,6941.0,0.0,0.0,
2025-08-15T02:19:12.536Z,12,GR86-006-7,-0.6000000000000001,0.25,-0.151,99.68,2.0,,0.0,0.0,121.48
2025-08-15T02:19:12.579Z,12,GR86-006-7,-0.5,0.261,-0.159,99.69,2.0,,0.0,0.0,
2025-08-15T02:19:12.622Z,12,GR86-006-7,-0.7000000000000001,0.272,-0.172,99.68,2.0,,0.0,0.0,
2025-08-15T02:19:12.665Z,12,GR86-006-7,-0.8,0.261,-0.184,99.71,2.0,,0.0,0.0,
2025-08-15T02:19:12.708Z,12,GR86-006-7,-0.7000000000000001,0.256,-0.179,99.7,2.0,7021.0,0.0,0.0,
2025-08-15T02:19:12.751Z,12,GR86-006-7,-0.6000000000000001,0.249,-0.182,99.69,2.0,,0.0,0.0,122.73
2025-08-15T02:19:12.794Z,12,GR86-006-7,-0.5,0.268,-0.201,99.67,2.0,,0.0,0.0,
2025-08-15T02:19:12.837Z,12,GR86-006-7,-0.4,0.256,-0.18,99.7,2.0,,0.0,0.0,
2025-08-15T02:19:12.880Z,12,GR86-006-7,-0.3,0.25,-0.203,99.7,2.0,,0.0,0.0,
2025-08-15T02:19:12.923Z,12,GR86-006-7,-0.3,0.257,-0.199,99.68,2.0,7154.0,0.0,0.0,
2025-08-15T02:19:12.966Z,12,GR86-006-7,-0.3,0.258,-0.194,99.7,2.0,,0.0,0.0,123.92
2025-08-15T02:19:13.009Z,12,GR86-006-7,-0.7000000000000001,0.057,-0.203,99.68,3.0,,0.0,0.0,
2025-08-15T02:19:13.052Z,12,GR86-006-7,-1.0,0.5,-0.144,99.7,3.0,,0.0,0.0,
2025-08-15T02:19:13.095Z,12,GR86-006-7,-0.9,0.391,-0.275,99.7,3.0,,0.0,0.0,
2025-08-15T02:19:13.138Z,12,GR86-006-7,-0.9,0.428,-0.19,99.7,3.0,7226.0,0.0,0.0,
2025-08-15T02:19:13.181Z,12,GR86-006-7,-0.8,0.281,-0.149,99.69,3.0,,0.0,0.0,125.12
2025-08-15T02:19:13.224Z,12,GR86-006-7,-0.7000000000000001,0.096,-0.268,99.67,3.0,,0.0,0.0,
2025-08-15T02:19:13.268Z,12,GR86-006-7,-0.6000000000000001,0.138,-0.202,99.7,3.0,,0.0,0.0,
2025-08-15T02:19:13.311Z,12,GR86-006-7,-0.6000000000000001,0.242,-0.169,99.68,3.0,,0.0,0.0,
2025-08-15T02:19:13.354Z,12,GR86-006-7,-0.6000000000000001,0.252,-0.218,99.68,3.0,6245.0,0.0,0.0,
2025-08-15T02:19:13.397Z,12,GR86-006-7,-0.6000000000000001,0.192,-0.156,99.69,3.0,,0.0,0.0,126.11
2025-08-15T02:19:13.441Z,12,GR86-006-7,-0.6000000000000001,0.182,-0.21,99.67,3.0,,0.0,0.0,
2025-08-15T02:19:13.484Z,12,GR86-006-7,-0.5,0.217,-0.196,99.68,3.0,,0.0,0.0,
2025-08-15T02:19:13.527Z,12,GR86-006-7,-0.5,0.232,-0.167,99.68,3.0,,0.0,0.0,
2025-08-15T02:19:13.571Z,12,GR86-006-7,-0.4,0.231,-0.177,99.68,3.0,6037.0,0.0,0.0,
2025-08-15T02:19:13.614Z,12,GR86-006-7,-0.3,0.198,-0.152,99.67,3.0,,0.0,0.0,127.47
2025-08-15T02:19:13.657Z,12,GR86-006-7,-0.3,0.218,-0.153,99.69,3.0,,0.0,0.0,
2025-08-15T02:19:13.700Z,12,GR86-006-7,-0.2,0.218,-0.141,99.69,3.0,,0.0,0.0,
2025-08-15T02:19:13.743Z,12,GR86-006-7,-0.1,0.217,-0.132,99.71,3.0,,0.0,0.0,
2025-08-15T02:19:13.786Z,12,GR86-006-7,-0.1,0.231,-0.119,99.71,3.0,6031.0,0.0,0.0,
2025-08-15T02:19:13.829Z,12,GR86-006-7,0.0,0.213,-0.104,99.7,3.0,,0.0,0.0,128.3
2025-08-15T02:19:13.872Z,12,GR86-006-7,1.1,0.232,-0.064,99.67,3.0,,0.0,0.0,
2025-08-15T02:19:13.917Z,12,GR86-006-7,2.7,0.21,-0.038,99.68,3.0,,0.0,0.0,
2025-08-15T02:19:13.962Z,12,GR86-006-7,4.2,0.215,-0.004,99.68,3.0,,0.0,0.0,
2025-08-15T02:19:14.005Z,12,GR86-006-7,5.4,0.228,0.034,99.68,3.0,6054.0,0.0,0.0,
2025-08-15T02:19:14.049Z,12,GR86-006-7,6.2,0.216,0.057,99.7,3.0,,0.0,0.0,129.17000000000002
2025-08-15T02:19:14.092Z,12,GR86-006-7,6.1000000000000005,0.231,0.113,99.68,3.0,,0.0,0.0,
2025-08-15T02:19:14.135Z,12,GR86-006-7,6.0,0.201,0.127,99.7,3.0,,0.0,0.0,
2025-08-15T02:19:14.178Z,12,GR86-006-7,5.800000000000001,0.21,0.151,99.7,3.0,,0.0,0.0,
2025-08-15T02:19:14.221Z,12,GR86-006-7,5.800000000000001,0.231,0.157,99.71,3.0,6092.0,0.0,0.0,
2025-08-15T02:19:14.264Z,12,GR86-006-7,5.800000000000001,0.21,0.161,99.72,3.0,,0.0,0.0,130.01
2025-08-15T02:19:14.307Z,12,GR86-006-7,7.300000000000001,0.207,0.181,99.69,3.0,,0.0,0.0,
2025-08-15T02:19:14.350Z,12,GR86-006-7,9.1,0.211,0.203,93.51,3.0,,4.15,4.365,
2025-08-15T02:19:14.393Z,12,GR86-006-7,10.9,0.129,0.231,29.49,3.0,,15.305,15.275,
2025-08-15T02:19:14.436Z,12,GR86-006-7,10.6,0.026,0.248,5.19,3.0,6139.0,23.485,23.425,
2025-08-15T02:19:14.479Z,12,GR86-006-7,10.1,-0.222,0.239,4.96,3.0,,31.51,31.3,130.9
2025-08-15T02:19:14.522Z,12,GR86-006-7,10.0,-0.552,0.247,4.78,3.0,,39.555,39.25,
2025-08-15T02:19:14.566Z,12,GR86-006-7,10.0,-0.602,0.254,4.61,3.0,,46.56,46.205,
2025-08-15T02:19:14.654Z,12,GR86-006-7,9.9,-0.857,0.203,4.3100000000000005,3.0,6177.0,49.49,49.305,
2025-08-15T02:19:14.697Z,12,GR86-006-7,9.8,-0.85,0.241,3.61,3.0,,50.71,52.08,131.82
2025-08-15T02:19:14.740Z,12,GR86-006-7,9.6,-0.855,0.282,3.51,3.0,,51.395,52.8,
2025-08-15T02:19:14.783Z,12,GR86-006-7,9.5,-0.8280000000000001,0.315,3.42,3.0,,49.46,49.73,
2025-08-15T02:19:14.826Z,12,GR86-006-7,9.5,-0.854,0.265,5.89,3.0,,49.55,50.19,
2025-08-15T02:19:14.869Z,12,GR86-006-7,9.3,-0.8220000000000001,0.35,45.26,2.0,5874.0,48.3,50.1,
2025-08-15T02:19:14.914Z,12,GR86-006-7,7.800000000000001,-0.988,0.311,4.86,2.0,,45.4,46.53,127.36
2025-08-15T02:19:14.957Z,12,GR86-006-7,7.300000000000001,-0.866,0.311,4.38,2.0,,45.065,46.56,
2025-08-15T02:19:15.000Z,12,GR86-006-7,7.300000000000001,-0.876,0.44,4.17,2.0,,44.5,45.095,
2025-08-15T02:19:15.043Z,12,GR86-006-7,7.2,-1.141,0.296,3.77,2.0,,43.585,44.805,
2025-08-15T02:19:15.086Z,12,GR86-006-7,7.1000000000000005,-0.87,0.522,3.48,2.0,5450.0,43.14,44.435,
2025-08-15T02:19:15.129Z,12,GR86-006-7,7.300000000000001,-0.778,0.501,3.23,2.0,,40.425,41.28,121.03
2025-08-15T02:19:15.172Z,12,GR86-006-7,11.4,-0.859,0.639,2.9,2.0,,38.015,39.125,
2025-08-15T02:19:15.217Z,12,GR86-006-7,15.6,-0.725,0.617,2.8000000000000003,2.0,,35.495,36.64,
2025-08-15T02:19:15.261Z,12,GR86-006-7,20.0,-0.706,0.5720000000000001,2.74,2.0,,33.465,34.745,
2025-08-15T02:19:15.304Z,12,GR86-006-7,25.9,-0.611,0.8220000000000001,2.71,2.0,5289.0,30.735,31.45,
2025-08-15T02:19:15.347Z,12,GR86-006-7,31.6,-0.684,0.723,2.68,2.0,,28.215,28.58,115.99
2025-08-15T02:19:15.390Z,12,GR86-006-7,33.300000000000004,-0.71,0.656,2.66,2.0,,26.81,27.71,
2025-08-15T02:19:15.433Z,12,GR86-006-7,31.1,-0.62,0.8130000000000001,2.64,2.0,,26.2,27.285,
2025-08-15T02:19:15.476Z,12,GR86-006-7,28.4,-0.713,0.737,2.63,2.0,,24.4,25.395,
2025-08-15T02:19:15.519Z,12,GR86-006-7,27.200000000000003,-0.633,0.768,2.61,2.0,5678.0,20.205,20.905,
2025-08-15T02:19:15.562Z,12,GR86-006-7,28.1,-0.469,0.785,2.61,2.0,,16.19,17.150000000000002,109.64
2025-08-15T02:19:15.605Z,12,GR86-006-7,31.5,-0.414,0.799,2.58,2.0,,14.025,14.97,
2025-08-15T02:19:15.649Z,12,GR86-006-7,37.4,-0.404,0.899,2.57,2.0,,12.865,13.675,
2025-08-15T02:19:15.692Z,12,GR86-006-7,41.900000000000006,-0.412,0.922,2.5500000000000003,2.0,,11.215,12.025,
2025-08-15T02:19:15.735Z,12,GR86-006-7,40.900000000000006,-0.375,0.949,2.5500000000000003,2.0,5580.0,10.315,11.185,
2025-08-15T02:19:15.778Z,12,GR86-006-7,40.6,-0.355,0.933,2.53,2.0,,9.78,10.53,104.73
2025-08-15T02:19:15.821Z,12,GR86-006-7,42.8,-0.361,0.952,2.52,2.0,,9.49,10.18,
2025-08-15T02:19:15.864Z,12,GR86-006-7,47.2,-0.329,0.914,2.52,2.0,,9.43,10.025,
2025-08-15T02:19:15.907Z,12,GR86-006-7,50.7,-0.343,0.95,2.49,2.0,,8.700000000000001,9.43,
2025-08-15T02:19:15.951Z,12,GR86-006-7,53.2,-0.319,0.998,2.48,2.0,5459.0,5.6450000000000005,6.3,
2025-08-15T02:19:15.994Z,12,GR86-006-7,59.3,-0.195,0.986,2.48,2.0,,0.0,0.0,101.07
2025-08-15T02:19:16.037Z,12,GR86-006-7,62.7,-0.19,1.082,2.48,2.0,,0.0,0.0,
2025-08-15T02:19:16.080Z,12,GR86-006-7,66.4,-0.184,1.085,2.47,2.0,,0.0,0.0,
2025-08-15T02:19:16.124Z,12,GR86-006-7,68.9,-0.18,1.085,2.47,2.0,,0.0,0.0,
2025-08-15T02:19:16.168Z,12,GR86-006-7,70.7,-0.16,1.109,2.46,2.0,5330.0,0.0,0.0,
2025-08-15T02:19:16.211Z,12,GR86-006-7,71.10000000000001,-0.188,1.158,2.45,2.0,,0.0,0.0,98.23
2025-08-15T02:19:16.254Z,12,GR86-006-7,71.0,-0.182,1.16,2.45,2.0,,0.0,0.0,
2025-08-15T02:19:16.297Z,12,GR86-006-7,71.0,-0.161,1.177,2.45,2.0,,0.0,0.0,
2025-08-15T02:19:16.340Z,12,GR86-006-7,71.0,-0.178,1.155,2.48,2.0,,0.0,0.0,
2025-08-15T02:19:16.383Z,12,GR86-006-7,71.0,-0.172,1.168,2.54,2.0,5282.0,0.0,0.0,
2025-08-15T02:19:16.426Z,12,GR86-006-7,71.0,-0.177,1.183,3.98,2.0,,0.0,0.0,96.3
2025-08-15T02:19:16.469Z,12,GR86-006-7,71.0,-0.174,1.212,14.13,2.0,,0.0,0.0,
2025-08-15T02:19:16.514Z,12,GR86-006-7,72.3,-0.174,1.26,19.91,2.0,,0.0,0.0,
2025-08-15T02:19:16.557Z,12,GR86-006-7,73.4,-0.164,1.205,20.34,2.0,,0.0,0.0,
2025-08-15T02:19:16.600Z,12,GR86-006-7,74.0,-0.129,1.193,25.81,2.0,5204.0,0.0,0.0,
2025-08-15T02:19:16.643Z,12,GR86-006-7,74.0,-0.114,1.22,31.3,2.0,,0.0,0.0,94.87
2025-08-15T02:19:16.686Z,12,GR86-006-7,73.8,-0.113,1.19,35.46,2.0,,0.0,0.0,
2025-08-15T02:19:16.729Z,12,GR86-006-7,73.8,-0.027,1.195,36.91,2.0,,0.0,0.0,
2025-08-15T02:19:16.772Z,12,GR86-006-7,73.10000000000001,0.176,1.149,44.23,2.0,,0.0,0.0,
2025-08-15T02:19:16.815Z,12,GR86-006-7,72.3,0.241,1.051,49.51,2.0,5106.0,0.0,0.0,
2025-08-15T02:19:16.858Z,12,GR86-006-7,70.2,0.198,1.329,55.15,2.0,,0.0,0.0,93.45
2025-08-15T02:19:16.901Z,12,GR86-006-7,67.4,0.25,1.128,64.81,2.0,,0.0,0.0,
2025-08-15T02:19:16.944Z,12,GR86-006-7,65.9,0.187,1.193,79.06,2.0,,0.0,0.0,
2025-08-15T02:19:16.987Z,12,GR86-006-7,63.6,0.1,1.259,99.17,2.0,,0.0,0.0,
2025-08-15T02:19:17.030Z,12,GR86-006-7,62.3,0.326,1.269,99.57,2.0,5449.0,0.0,0.0,
2025-08-15T02:19:17.073Z,12,GR86-006-7,57.1,0.292,1.399,99.66,2.0,,0.0,0.0,92.32
2025-08-15T02:19:17.117Z,12,GR86-006-7,54.2,0.535,1.004,99.67,2.0,,0.0,0.0,
2025-08-15T02:19:17.160Z,12,GR86-006-7,49.8,0.152,1.291,99.67,2.0,,0.0,0.0,
2025-08-15T02:19:17.203Z,12,GR86-006-7,41.900000000000006,-0.009,1.145,99.67,2.0,,0.0,0.0,
2025-08-15T02:19:17.247Z,12,GR86-006-7,35.9,0.123,1.015,99.68,2.0,5428.0,0.0,0.0,
2025-08-15T02:19:17.290Z,12,GR86-006-7,31.5,0.177,1.074,99.68,2.0,,0.0,0.0,91.49
2025-08-15T02:19:17.333Z,12,GR86-006-7,24.200000000000003,0.323,0.853,99.68,2.0,,0.0,0.0,
2025-08-15T02:19:17.376Z,12,GR86-006-7,20.8,0.045,0.805,99.67,2.0,,0.0,0.0,
2025-08-15T02:19:17.419Z,12,GR86-006-7,22.1,0.127,0.985,99.69,2.0,,0.0,0.0,
2025-08-15T02:19:17.462Z,12,GR86-006-7,32.2,0.234,0.859,99.68,2.0,5609.0,0.0,0.0,
2025-08-15T02:19:17.505Z,12,GR86-006-7,48.5,0.413,0.932,99.67,2.0,,0.0,0.0,92.64
2025-08-15T02:19:17.548Z,12,GR86-006-7,49.3,0.639,1.48,99.67,2.0,,0.0,0.0,
2025-08-15T02:19:17.591Z,12,GR86-006-7,46.400000000000006,0.471,1.024,99.67,2.0,,0.0,0.0,
2025-08-15T02:19:17.634Z,12,GR86-006-7,39.1,0.553,1.117,99.68,2.0,,0.0,0.0,
2025-08-15T02:19:17.677Z,12,GR86-006-7,42.5,0.293,1.161,99.68,2.0,5993.0,0.0,0.0,
2025-08-15T02:19:17.720Z,12,GR86-006-7,47.0,0.118,1.061,99.67,2.0,,0.0,0.0,94.07
2025-08-15T02:19:17.763Z,12,GR86-006-7,47.3,0.278,1.404,99.68,2.0,,0.0,0.0,
2025-08-15T02:19:17.806Z,12,GR86-006-7,40.8,0.425,1.323,99.67,2.0,,0.0,0.0,
2025-08-15T02:19:17.892Z,12,GR86-006-7,29.1,0.309,1.144,99.68,2.0,6312.0,0.0,0.0,
2025-08-15T02:19:17.936Z,12,GR86-006-7,-17.2,0.231,0.97,99.68,2.0,,0.0,0.0,96.44
2025-08-15T02:19:17.979Z,12,GR86-006-7,-28.0,0.267,0.936,99.68,2.0,,0.0,0.0,
2025-08-15T02:19:18.022Z,12,GR86-006-7,-32.1,0.291,0.997,99.67,2.0,,0.0,0.0,
2025-08-15T02:19:18.065Z,12,GR86-006-7,-37.0,0.307,0.934,99.66,2.0,,0.0,0.0,
2025-08-15T02:19:18.108Z,12,GR86-006-7,-41.3,0.3,0.891,99.67,2.0,6061.0,0.0,0.0,
2025-08-15T02:19:18.151Z,12,GR86-006-7,-43.5,0.322,0.885,99.68,2.0,,0.0,0.0,98.14
2025-08-15T02:19:18.194Z,12,GR86-006-7,-44.2,0.301,0.844,99.68,2.0,,0.0,0.0,
2025-08-15T02:19:18.237Z,12,GR86-006-7,-39.5,0.324,0.885,99.68,2.0,,0.0,0.0,
2025-08-15T02:19:18.280Z,12,GR86-006-7,-16.6,0.325,0.909,99.67,2.0,,0.0,0.0,
2025-08-15T02:19:18.323Z,12,GR86-006-7,-1.9,0.311,0.978,99.67,2.0,6112.0,0.0,0.0,
2025-08-15T02:19:18.366Z,12,GR86-006-7,13.7,0.303,1.043,99.69,2.0,,0.0,0.0,99.6
2025-08-15T02:19:18.409Z,12,GR86-006-7,25.5,0.316,1.085,99.68,2.0,,0.0,0.0,
2025-08-15T02:19:18.452Z,12,GR86-006-7,32.1,0.306,1.108,99.67,2.0,,0.0,0.0,
2025-08-15T02:19:18.495Z,12,GR86-006-7,37.2,0.286,1.107,99.67,2.0,,0.0,0.0,
2025-08-15T02:19:18.538Z,12,GR86-006-7,41.0,0.292,1.079,99.66,2.0,6142.0,0.0,0.0,
2025-08-15T02:19:18.581Z,12,GR86-006-7,43.8,0.269,1.064,99.67,2.0,,0.0,0.0,99.92
2025-08-15T02:19:18.624Z,12,GR86-006-7,45.0,0.237,1.078,99.68,2.0,,0.0,0.0,
2025-08-15T02:19:18.668Z,12,GR86-006-7,45.2,0.267,1.068,99.69,2.0,,0.0,0.0,
2025-08-15T02:19:18.714Z,12,GR86-006-7,44.8,0.269,0.998,99.69,2.0,,0.0,0.0,
2025-08-15T02:19:18.757Z,12,GR86-006-7,44.0,0.237,0.983,99.68,2.0,6106.0,0.0,0.0,
2025-08-15T02:19:18.800Z,12,GR86-006-7,43.0,0.242,0.973,99.67,2.0,,0.0,0.0,101.34
2025-08-15T02:19:18.843Z,12,GR86-006-7,41.400000000000006,0.217,0.972,99.67,2.0,,0.0,0.0,
2025-08-15T02:19:18.886Z,12,GR86-006-7,38.3,0.243,0.93,99.67,2.0,,0.0,0.0,
2025-08-15T02:19:18.929Z,12,GR86-006-7,36.7,0.314,0.727,99.67,2.0,,0.0,0.0,
2025-08-15T02:19:18.974Z,12,GR86-006-7,36.3,0.299,0.8250000000000001,99.68,2.0,6113.0,0.0,0.0,
2025-08-15T02:19:19.018Z,12,GR86-006-7,36.0,0.332,0.635,99.67,2.0,,0.0,0.0,103.18
2025-08-15T02:19:19.061Z,12,GR86-006-7,35.0,0.416,0.806,99.69,2.0,,0.0,0.0,
2025-08-15T02:19:19.104Z,12,GR86-006-7,33.300000000000004,0.305,0.71,99.67,2.0,,0.0,0.0,
2025-08-15T02:19:19.147Z,12,GR86-006-7,32.2,0.248,0.8280000000000001,99.67,2.0,,0.0,0.0,
2025-08-15T02:19:19.190Z,12,GR86-006-7,31.200000000000003,0.275,0.956,99.67,2.0,6219.0,0.0,0.0,
2025-08-15T02:19:19.233Z,12,GR86-006-7,31.3,0.293,0.8260000000000001,99.68,2.0,,0.0,0.0,105.22
2025-08-15T02:19:19.276Z,12,GR86-006-7,30.8,0.237,0.8190000000000001,99.67,2.0,,0.0,0.0,
2025-08-15T02:19:19.319Z,12,GR86-006-7,29.700000000000003,0.265,0.79,99.68,2.0,,0.0,0.0,
2025-08-15T02:19:19.362Z,12,GR86-006-7,28.5,0.227,0.761,99.69,2.0,,0.0,0.0,
2025-08-15T02:19:19.405Z,12,GR86-006-7,28.0,0.289,0.8190000000000001,99.69,2.0,6338.0,0.0,0.0,
2025-08-15T02:19:19.448Z,12,GR86-006-7,28.3,0.329,0.71,99.69,2.0,,0.0,0.0,107.17
2025-08-15T02:19:19.492Z,12,GR86-006-7,28.6,0.224,0.6880000000000001,99.68,2.0,,0.0,0.0,
2025-08-15T02:19:19.535Z,12,GR86-006-7,28.3,0.255,0.656,99.69,2.0,,0.0,0.0,
2025-08-15T02:19:19.578Z,12,GR86-006-7,28.4,0.25,0.641,99.68,2.0,,0.0,0.0,
2025-08-15T02:19:19.621Z,12,GR86-006-7,28.8,0.298,0.658,99.67,2.0,6425.0,0.0,0.0,
2025-08-15T02:19:19.664Z,12,GR86-006-7,29.3,0.291,0.6990000000000001,99.69,2.0,,0.0,0.0,108.88
2025-08-15T02:19:19.707Z,12,GR86-006-7,29.5,0.271,0.708,99.7,2.0,,0.0,0.0,
2025-08-15T02:19:19.750Z,12,GR86-006-7,29.200000000000003,0.254,0.684,99.7,2.0,,0.0,0.0,
2025-08-15T02:19:19.793Z,12,GR86-006-7,26.9,0.231,0.527,99.69,2.0,,0.0,0.0,
2025-08-15T02:19:19.836Z,12,GR86-006-7,25.1,0.224,0.588,99.71,2.0,6488.0,0.0,0.0,
2025-08-15T02:19:19.879Z,12,GR86-006-7,23.9,0.26,0.499,99.67,2.0,,0.0,0.0,110.87
2025-08-15T02:19:19.922Z,12,GR86-006-7,21.200000000000003,0.236,0.416,99.68,2.0,,0.0,0.0,
2025-08-15T02:19:19.966Z,12,GR86-006-7,20.0,0.402,0.5740000000000001,99.69,2.0,,0.0,0.0,
2025-08-15T02:19:20.009Z,12,GR86-006-7,19.4,0.355,0.531,99.68,2.0,,0.0,0.0,
2025-08-15T02:19:20.054Z,12,GR86-006-7,18.8,0.179,0.368,99.71,2.0,6576.0,0.0,0.0,
2025-08-15T02:19:20.097Z,12,GR86-006-7,18.4,0.125,0.247,99.7,2.0,,0.0,0.0,112.99
2025-08-15T02:19:20.140Z,12,GR86-006-7,17.8,0.101,0.155,99.71,2.0,,0.0,0.0,
2025-08-15T02:19:20.183Z,12,GR86-006-7,15.9,0.239,0.248,99.67,2.0,,0.0,0.0,
2025-08-15T02:19:20.226Z,12,GR86-006-7,15.2,0.326,0.258,99.69,2.0,,0.0,0.0,
