timestamp,lap,vehicle_id,steering_angle,accx_can,accy_can,ath,gear,nmot,pbrake_f,pbrake_r,speed
2025-08-15T09:12:15.736Z,4,GR86-028-89,2.7,0.125,-0.001,99.98,4.0,,0.0,0.0,182.57
2025-08-15T09:12:15.778Z,4,GR86-028-89,3.0,0.131,0.015,99.98,4.0,,0.0,0.0,
2025-08-15T09:12:15.821Z,4,GR86-028-89,2.8000000000000003,0.127,0.021,100.0,4.0,,0.0,0.0,
2025-08-15T09:12:15.865Z,4,GR86-028-89,2.7,0.113,0.0,100.0,4.0,,0.0,0.0,
2025-08-15T09:12:15.908Z,4,GR86-028-89,2.8000000000000003,0.113,-0.016,99.99,4.0,7153.0,0.0,0.0,
2025-08-15T09:12:15.951Z,4,GR86-028-89,2.8000000000000003,0.118,0.019,99.97,4.0,,0.0,0.0,183.3
2025-08-15T09:12:15.995Z,4,GR86-028-89,2.5,0.109,0.04,100.01,4.0,,0.0,0.0,
2025-08-15T09:12:16.038Z,4,GR86-028-89,2.5,0.095,0.067,100.0,4.0,,0.0,0.0,
2025-08-15T09:12:16.081Z,4,GR86-028-89,2.5,0.11,0.033,100.0,4.0,,0.0,0.0,
2025-08-15T09:12:16.127Z,4,GR86-028-89,2.7,0.115,0.032,100.02,4.0,7218.0,0.0,0.0,
2025-08-15T09:12:16.169Z,4,GR86-028-89,2.7,0.105,0.039,99.99,4.0,,0.0,0.0,184.04
2025-08-15T09:12:16.212Z,4,GR86-028-89,2.5,0.108,0.027,99.98,4.0,,0.0,0.0,
2025-08-15T09:12:16.258Z,4,GR86-028-89,2.4000000000000004,0.086,0.02,100.01,4.0,,0.0,0.0,
2025-08-15T09:12:16.301Z,4,GR86-028-89,2.3000000000000003,0.098,0.019,99.99,4.0,,0.0,0.0,
2025-08-15T09:12:16.345Z,4,GR86-028-89,2.2,0.092,0.01,99.98,4.0,7243.0,0.0,0.0,
2025-08-15T09:12:16.387Z,4,GR86-028-89,2.2,0.063,0.037,99.99,4.0,,0.0,0.0,184.85
2025-08-15T09:12:16.431Z,4,GR86-028-89,2.0,-0.164,0.056,99.97,5.0,,0.0,0.0,
2025-08-15T09:12:16.475Z,4,GR86-028-89,2.5,0.44,0.024,99.98,5.0,,0.0,0.0,
2025-08-15T09:12:16.518Z,4,GR86-028-89,2.7,0.19,-0.037,99.96,5.0,,0.0,0.0,
2025-08-15T09:12:16.561Z,4,GR86-028-89,2.4000000000000004,0.023,0.061,100.01,5.0,6490.0,0.0,0.0,
2025-08-15T09:12:16.605Z,4,GR86-028-89,2.4000000000000004,0.015,-0.023,100.0,5.0,,0.0,0.0,185.51
2025-08-15T09:12:16.647Z,4,GR86-028-89,2.4000000000000004,0.164,-0.055,100.0,5.0,,0.0,0.0,
2025-08-15T09:12:16.690Z,4,GR86-028-89,2.1,0.137,0.026,100.03,5.0,,0.0,0.0,
2025-08-15T09:12:16.735Z,4,GR86-028-89,1.9,0.028,-0.028,100.0,5.0,,0.0,0.0,
2025-08-15T09:12:16.778Z,4,GR86-028-89,2.0,0.079,0.025,99.98,5.0,6283.0,0.0,0.0,
2025-08-15T09:12:16.821Z,4,GR86-028-89,1.9,0.105,0.035,100.02,5.0,,0.0,0.0,186.29
2025-08-15T09:12:16.865Z,4,GR86-028-89,2.0,0.061,0.011,99.99,5.0,,0.0,0.0,
2025-08-15T09:12:16.908Z,4,GR86-028-89,2.1,0.059,0.024,99.98,5.0,,0.0,0.0,
2025-08-15T09:12:16.951Z,4,GR86-028-89,2.4000000000000004,0.086,0.032,100.01,5.0,,0.0,0.0,
2025-08-15T09:12:16.995Z,4,GR86-028-89,2.5,0.083,-0.001,100.0,5.0,6339.0,0.0,0.0,
2025-08-15T09:12:17.038Z,4,GR86-028-89,2.4000000000000004,0.076,0.024,100.01,5.0,,0.0,0.0,187.01
2025-08-15T09:12:17.081Z,4,GR86-028-89,2.4000000000000004,0.093,0.007,100.0,5.0,,0.0,0.0,
2025-08-15T09:12:17.126Z,4,GR86-028-89,2.6,0.08,0.011,99.98,5.0,,0.0,0.0,
2025-08-15T09:12:17.169Z,4,GR86-028-89,2.8000000000000003,0.068,0.015,100.03,5.0,,0.0,0.0,
2025-08-15T09:12:17.212Z,4,GR86-028-89,2.8000000000000003,0.071,0.037,99.98,5.0,6375.0,0.0,0.0,
2025-08-15T09:12:17.258Z,4,GR86-028-89,2.9000000000000004,0.112,0.036,100.0,5.0,,0.0,0.0,187.63
2025-08-15T09:12:17.301Z,4,GR86-028-89,3.0,0.1,0.044,100.0,5.0,,0.0,0.0,
2025-08-15T09:12:17.345Z,4,GR86-028-89,3.4000000000000004,0.094,0.028,100.02,5.0,,0.0,0.0,
2025-08-15T09:12:17.387Z,4,GR86-028-89,3.6,0.097,0.015,100.01,5.0,,0.0,0.0,
2025-08-15T09:12:17.430Z,4,GR86-028-89,3.5,0.09,0.013,99.99,5.0,6386.0,0.0,0.0,
2025-08-15T09:12:17.476Z,4,GR86-028-89,3.3000000000000003,0.073,0.068,100.0,5.0,,0.0,0.0,188.32
2025-08-15T09:12:17.518Z,4,GR86-028-89,3.6,0.085,0.087,99.98,5.0,,0.0,0.0,
2025-08-15T09:12:17.561Z,4,GR86-028-89,3.9,0.103,0.063,99.99,5.0,,0.0,0.0,
2025-08-15T09:12:17.605Z,4,GR86-028-89,4.1000000000000005,0.087,0.081,100.0,5.0,,0.0,0.0,
2025-08-15T09:12:17.648Z,4,GR86-028-89,4.2,0.1,0.075,100.0,5.0,6412.0,0.0,0.0,
2025-08-15T09:12:17.691Z,4,GR86-028-89,4.1000000000000005,0.087,0.077,100.01,5.0,,0.0,0.0,189.04
2025-08-15T09:12:17.736Z,4,GR86-028-89,4.1000000000000005,0.077,0.073,100.03,5.0,,0.0,0.0,
2025-08-15T09:12:17.779Z,4,GR86-028-89,3.9,0.084,0.08,99.98,5.0,,0.0,0.0,
2025-08-15T09:12:17.822Z,4,GR86-028-89,3.9,0.078,0.092,100.01,5.0,,0.0,0.0,
2025-08-15T09:12:17.865Z,4,GR86-028-89,3.9,0.067,0.097,99.98,5.0,6431.0,0.0,0.0,
2025-08-15T09:12:17.908Z,4,GR86-028-89,4.0,0.09,0.076,100.02,5.0,,0.0,0.0,189.68
2025-08-15T09:12:17.951Z,4,GR86-028-89,3.9,0.093,0.063,100.0,5.0,,0.0,0.0,
2025-08-15T09:12:17.995Z,4,GR86-028-89,3.7,0.084,0.081,100.04,5.0,,0.0,0.0,
2025-08-15T09:12:18.038Z,4,GR86-028-89,3.7,0.081,0.085,99.98,5.0,,0.0,0.0,
2025-08-15T09:12:18.081Z,4,GR86-028-89,3.8,0.081,0.076,100.01,5.0,6456.0,0.0,0.0,
2025-08-15T09:12:18.127Z,4,GR86-028-89,3.9,0.088,0.084,99.99,5.0,,0.0,0.0,190.92
2025-08-15T09:12:18.169Z,4,GR86-028-89,3.8,0.079,0.095,99.99,5.0,,0.0,0.0,
2025-08-15T09:12:18.212Z,4,GR86-028-89,3.7,0.086,0.09,99.98,5.0,,0.0,0.0,
2025-08-15T09:12:18.258Z,4,GR86-028-89,3.7,0.079,0.091,100.02,5.0,,0.0,0.0,
2025-08-15T09:12:18.301Z,4,GR86-028-89,3.7,0.089,0.077,99.98,5.0,6482.0,0.0,0.0,
2025-08-15T09:12:18.345Z,4,GR86-028-89,3.6,0.072,0.071,99.98,5.0,,0.0,0.0,191.63
2025-08-15T09:12:18.387Z,4,GR86-028-89,3.3000000000000003,0.069,0.061,99.99,5.0,,0.0,0.0,
2025-08-15T09:12:18.430Z,4,GR86-028-89,3.1,0.066,0.046,100.0,5.0,,0.0,0.0,
2025-08-15T09:12:18.475Z,4,GR86-028-89,2.4000000000000004,0.073,0.031,100.04,5.0,,0.0,0.0,
2025-08-15T09:12:18.518Z,4,GR86-028-89,2.1,0.08,0.027,99.97,5.0,6520.0,0.0,0.0,
2025-08-15T09:12:18.605Z,4,GR86-028-89,2.0,0.067,0.004,100.0,5.0,,0.0,0.0,192.29
2025-08-15T09:12:18.647Z,4,GR86-028-89,2.2,0.081,-0.009,100.01,5.0,,0.0,0.0,
2025-08-15T09:12:18.690Z,4,GR86-028-89,2.2,0.068,-0.013,99.98,5.0,,0.0,0.0,
2025-08-15T09:12:18.736Z,4,GR86-028-89,2.1,0.078,-0.016,99.97,5.0,6544.0,0.0,0.0,
2025-08-15T09:12:18.778Z,4,GR86-028-89,2.1,0.064,-0.002,100.01,5.0,,0.0,0.0,192.84
2025-08-15T09:12:18.821Z,4,GR86-028-89,2.1,0.081,-0.001,100.01,5.0,,0.0,0.0,
2025-08-15T09:12:18.865Z,4,GR86-028-89,2.1,0.075,0.017,99.99,5.0,,0.0,0.0,
2025-08-15T09:12:18.908Z,4,GR86-028-89,2.1,0.063,-0.004,99.97,5.0,,0.0,0.0,
2025-08-15T09:12:18.951Z,4,GR86-028-89,2.0,0.063,-0.005,100.01,5.0,6557.0,0.0,0.0,
2025-08-15T09:12:18.995Z,4,GR86-028-89,1.4,0.07,-0.014,99.99,5.0,,0.0,0.0,193.48
2025-08-15T09:12:19.038Z,4,GR86-028-89,1.0,0.09,-0.017,100.02,5.0,,0.0,0.0,
2025-08-15T09:12:19.081Z,4,GR86-028-89,0.9,0.062,-0.02,99.98,5.0,,0.0,0.0,
2025-08-15T09:12:19.127Z,4,GR86-028-89,0.7000000000000001,0.102,-0.022,100.03,5.0,,0.0,0.0,
2025-08-15T09:12:19.169Z,4,GR86-028-89,0.6000000000000001,0.06,-0.021,99.98,5.0,6584.0,0.0,0.0,
2025-08-15T09:12:19.212Z,4,GR86-028-89,0.5,0.058,-0.043,100.01,5.0,,0.0,0.0,194.01
2025-08-15T09:12:19.255Z,4,GR86-028-89,0.6000000000000001,0.066,-0.044,100.0,5.0,,0.0,0.0,
2025-08-15T09:12:19.298Z,4,GR86-028-89,0.5,0.055,-0.054,99.98,5.0,,0.0,0.0,
2025-08-15T09:12:19.341Z,4,GR86-028-89,0.2,0.053,-0.067,100.03,5.0,,0.0,0.0,
2025-08-15T09:12:19.386Z,4,GR86-028-89,0.1,0.051,-0.064,100.02,5.0,6606.0,0.0,0.0,
2025-08-15T09:12:19.428Z,4,GR86-028-89,0.1,0.051,-0.067,99.99,5.0,,0.0,0.0,194.58
2025-08-15T09:12:19.471Z,4,GR86-028-89,-0.2,0.043,-0.077,100.0,5.0,,0.0,0.0,
2025-08-15T09:12:19.516Z,4,GR86-028-89,-0.6000000000000001,0.061,-0.073,100.03,5.0,,0.0,0.0,
2025-08-15T09:12:19.558Z,4,GR86-028-89,-0.6000000000000001,0.078,-0.083,99.98,5.0,,0.0,0.0,
2025-08-15T09:12:19.601Z,4,GR86-028-89,-1.0,0.06,-0.094,99.99,5.0,6615.0,0.0,0.0,
2025-08-15T09:12:19.645Z,4,GR86-028-89,-1.4,0.065,-0.099,100.01,5.0,,0.0,0.0,195.2
2025-08-15T09:12:19.688Z,4,GR86-028-89,-1.6,0.048,-0.1,99.99,5.0,,0.0,0.0,
2025-08-15T09:12:19.731Z,4,GR86-028-89,-1.3,0.073,-0.096,100.04,5.0,,0.0,0.0,
2025-08-15T09:12:19.775Z,4,GR86-028-89,-1.1,0.058,-0.091,99.99,5.0,,0.0,0.0,
2025-08-15T09:12:19.818Z,4,GR86-028-89,-1.2000000000000002,0.072,-0.109,100.0,5.0,6644.0,0.0,0.0,
2025-08-15T09:12:19.861Z,4,GR86-028-89,-1.3,0.045,-0.107,99.98,5.0,,0.0,0.0,195.83
2025-08-15T09:12:19.905Z,4,GR86-028-89,-1.2000000000000002,0.07,-0.134,100.02,5.0,,0.0,0.0,
2025-08-15T09:12:19.948Z,4,GR86-028-89,-1.1,0.061,-0.135,100.03,5.0,,0.0,0.0,
2025-08-15T09:12:19.991Z,4,GR86-028-89,-1.4,0.058,-0.125,99.99,5.0,,0.0,0.0,
2025-08-15T09:12:20.035Z,4,GR86-028-89,-1.9,0.047,-0.115,99.97,5.0,6667.0,0.0,0.0,
2025-08-15T09:12:20.078Z,4,GR86-028-89,-1.9,0.068,-0.097,100.01,5.0,,0.0,0.0,196.47
2025-08-15T09:12:20.121Z,4,GR86-028-89,-1.9,0.064,-0.106,100.02,5.0,,0.0,0.0,
2025-08-15T09:12:20.165Z,4,GR86-028-89,-1.9,0.06,-0.106,100.0,5.0,,0.0,0.0,
2025-08-15T09:12:20.208Z,4,GR86-028-89,-1.7000000000000002,0.066,-0.124,100.01,5.0,,0.0,0.0,
2025-08-15T09:12:20.251Z,4,GR86-028-89,-1.3,0.067,-0.149,100.04,5.0,6693.0,0.0,0.0,
2025-08-15T09:12:20.295Z,4,GR86-028-89,-1.2000000000000002,0.066,-0.154,100.01,5.0,,0.0,0.0,197.07
2025-08-15T09:12:20.338Z,4,GR86-028-89,-1.1,0.029,-0.138,100.01,5.0,,0.0,0.0,
2025-08-15T09:12:20.381Z,4,GR86-028-89,-0.7000000000000001,0.075,-0.125,99.98,5.0,,0.0,0.0,
2025-08-15T09:12:20.427Z,4,GR86-028-89,-0.1,0.023,-0.088,100.02,5.0,,0.0,0.0,
2025-08-15T09:12:20.469Z,4,GR86-028-89,0.5,0.084,-0.084,100.01,5.0,6704.0,0.0,0.0,
2025-08-15T09:12:20.512Z,4,GR86-028-89,0.7000000000000001,0.071,-0.059,100.01,5.0,,0.0,0.0,197.79
2025-08-15T09:12:20.555Z,4,GR86-028-89,0.7000000000000001,0.05,-0.076,99.99,5.0,,0.0,0.0,
2025-08-15T09:12:20.598Z,4,GR86-028-89,0.6000000000000001,0.056,-0.073,99.97,5.0,,0.0,0.0,
2025-08-15T09:12:20.641Z,4,GR86-028-89,0.5,0.067,-0.081,100.0,5.0,,0.0,0.0,
2025-08-15T09:12:20.686Z,4,GR86-028-89,0.4,0.068,-0.076,99.99,5.0,6733.0,0.0,0.0,
2025-08-15T09:12:20.728Z,4,GR86-028-89,0.3,0.082,-0.071,100.0,5.0,,0.0,0.0,199.08
2025-08-15T09:12:20.771Z,4,GR86-028-89,0.2,0.075,-0.049,99.97,5.0,,0.0,0.0,
2025-08-15T09:12:20.816Z,4,GR86-028-89,0.2,0.059,-0.06,100.01,5.0,,0.0,0.0,
2025-08-15T09:12:20.858Z,4,GR86-028-89,0.2,0.051,-0.06,99.98,5.0,,0.0,0.0,
2025-08-15T09:12:20.901Z,4,GR86-028-89,0.5,0.065,-0.068,100.03,5.0,6748.0,0.0,0.0,
2025-08-15T09:12:20.945Z,4,GR86-028-89,1.0,0.08,-0.05,100.0,5.0,,0.0,0.0,199.7
2025-08-15T09:12:20.987Z,4,GR86-028-89,1.3,0.058,-0.05,99.99,5.0,,0.0,0.0,
2025-08-15T09:12:21.030Z,4,GR86-028-89,1.3,0.071,-0.064,99.99,5.0,,0.0,0.0,
2025-08-15T09:12:21.076Z,4,GR86-028-89,1.4,0.074,-0.024,100.01,5.0,,0.0,0.0,
2025-08-15T09:12:21.118Z,4,GR86-028-89,1.6,0.065,-0.037,99.99,5.0,6795.0,0.0,0.0,
2025-08-15T09:12:21.161Z,4,GR86-028-89,1.8,0.087,-0.042,99.99,5.0,,0.0,0.0,200.36
2025-08-15T09:12:21.205Z,4,GR86-028-89,1.8,0.077,-0.041,100.03,5.0,,0.0,0.0,
2025-08-15T09:12:21.248Z,4,GR86-028-89,1.9,0.08,-0.014,100.0,5.0,,0.0,0.0,
2025-08-15T09:12:21.291Z,4,GR86-028-89,2.1,0.06,0.012,100.0,5.0,,0.0,0.0,
2025-08-15T09:12:21.336Z,4,GR86-028-89,2.6,0.078,0.01,100.04,5.0,6817.0,0.0,0.0,
2025-08-15T09:12:21.379Z,4,GR86-028-89,2.9000000000000004,0.079,-0.001,100.03,5.0,,0.0,0.0,200.91
2025-08-15T09:12:21.422Z,4,GR86-028-89,2.9000000000000004,0.059,0.005,100.01,5.0,,0.0,0.0,
2025-08-15T09:12:21.465Z,4,GR86-028-89,2.6,0.072,-0.005,99.97,5.0,,0.0,0.0,
2025-08-15T09:12:21.508Z,4,GR86-028-89,2.2,0.041,0.012,99.99,5.0,,0.0,0.0,
2025-08-15T09:12:21.551Z,4,GR86-028-89,2.2,0.059,0.007,99.99,5.0,6842.0,0.0,0.0,
2025-08-15T09:12:21.595Z,4,GR86-028-89,2.6,0.085,-0.02,99.97,5.0,,0.0,0.0,201.59
2025-08-15T09:12:21.638Z,4,GR86-028-89,2.5,0.06,0.011,100.0,5.0,,0.0,0.0,
2025-08-15T09:12:21.681Z,4,GR86-028-89,2.4000000000000004,0.05,0.019,100.0,5.0,,0.0,0.0,
2025-08-15T09:12:21.727Z,4,GR86-028-89,2.5,0.06,0.007,100.0,5.0,,0.0,0.0,
2025-08-15T09:12:21.769Z,4,GR86-028-89,2.5,0.056,0.006,100.02,5.0,6852.0,0.0,0.0,
2025-08-15T09:12:21.812Z,4,GR86-028-89,2.5,0.06,-0.004,100.0,5.0,,0.0,0.0,202.15
2025-08-15T09:12:21.858Z,4,GR86-028-89,2.5,0.064,0.015,100.02,5.0,,0.0,0.0,
2025-08-15T09:12:21.901Z,4,GR86-028-89,2.3000000000000003,0.049,0.018,100.03,5.0,,0.0,0.0,
2025-08-15T09:12:21.945Z,4,GR86-028-89,2.0,0.052,0.01,100.02,5.0,,0.0,0.0,
2025-08-15T09:12:21.987Z,4,GR86-028-89,1.9,0.071,0.006,100.0,5.0,6868.0,0.0,0.0,
2025-08-15T09:12:22.030Z,4,GR86-028-89,1.8,0.076,-0.03,99.97,5.0,,0.0,0.0,202.71
2025-08-15T09:12:22.075Z,4,GR86-028-89,1.4,0.057,0.013,100.01,5.0,,0.0,0.0,
2025-08-15T09:12:22.118Z,4,GR86-028-89,1.4,0.035,0.012,99.99,5.0,,0.0,0.0,
2025-08-15T09:12:22.161Z,4,GR86-028-89,1.7000000000000002,0.083,-0.025,99.97,5.0,,0.0,0.0,
2025-08-15T09:12:22.205Z,4,GR86-028-89,1.9,0.075,-0.028,99.97,5.0,6887.0,0.0,0.0,
2025-08-15T09:12:22.247Z,4,GR86-028-89,1.8,0.073,0.003,99.99,5.0,,0.0,0.0,203.22
2025-08-15T09:12:22.290Z,4,GR86-028-89,1.5,0.074,-0.033,100.01,5.0,,0.0,0.0,
2025-08-15T09:12:22.336Z,4,GR86-028-89,1.4,0.06,-0.011,100.02,5.0,,0.0,0.0,
2025-08-15T09:12:22.378Z,4,GR86-028-89,1.3,0.082,-0.053,99.98,5.0,,0.0,0.0,
2025-08-15T09:12:22.421Z,4,GR86-028-89,1.2000000000000002,0.065,-0.056,99.97,5.0,6900.0,0.0,0.0,
2025-08-15T09:12:22.465Z,4,GR86-028-89,1.1,0.064,-0.006,99.98,5.0,,0.0,0.0,203.71
2025-08-15T09:12:22.508Z,4,GR86-028-89,1.3,0.071,0.017,99.98,5.0,,0.0,0.0,
2025-08-15T09:12:22.551Z,4,GR86-028-89,1.5,0.051,0.036,99.98,5.0,,0.0,0.0,
2025-08-15T09:12:22.595Z,4,GR86-028-89,1.7000000000000002,0.069,-0.057,99.99,5.0,,0.0,0.0,
2025-08-15T09:12:22.638Z,4,GR86-028-89,1.4,0.056,-0.056,99.99,5.0,6935.0,0.0,0.0,
2025-08-15T09:12:22.681Z,4,GR86-028-89,0.7000000000000001,0.062,-0.036,99.97,5.0,,0.0,0.0,204.24
2025-08-15T09:12:22.727Z,4,GR86-028-89,0.4,0.048,-0.051,99.99,5.0,,0.0,0.0,
2025-08-15T09:12:22.769Z,4,GR86-028-89,0.5,0.034,-0.056,100.01,5.0,,0.0,0.0,
2025-08-15T09:12:22.812Z,4,GR86-028-89,0.9,0.062,-0.033,99.98,5.0,,0.0,0.0,
2025-08-15T09:12:22.858Z,4,GR86-028-89,1.3,0.062,-0.069,100.01,5.0,6944.0,0.0,0.0,
2025-08-15T09:12:22.901Z,4,GR86-028-89,1.4,0.037,-0.058,100.0,5.0,,0.0,0.0,204.76
2025-08-15T09:12:22.945Z,4,GR86-028-89,1.5,0.053,-0.077,100.02,5.0,,0.0,0.0,
2025-08-15T09:12:22.987Z,4,GR86-028-89,1.6,0.061,-0.06,100.02,5.0,,0.0,0.0,
2025-08-15T09:12:23.031Z,4,GR86-028-89,1.6,0.062,-0.056,99.99,5.0,,0.0,0.0,
2025-08-15T09:12:23.075Z,4,GR86-028-89,1.8,0.048,-0.005,100.01,5.0,6958.0,0.0,0.0,
2025-08-15T09:12:23.118Z,4,GR86-028-89,2.2,0.059,-0.016,99.99,5.0,,0.0,0.0,205.76
2025-08-15T09:12:23.161Z,4,GR86-028-89,2.5,0.096,-0.022,99.99,5.0,,0.0,0.0,
2025-08-15T09:12:23.205Z,4,GR86-028-89,2.7,0.079,-0.008,100.03,5.0,,0.0,0.0,
2025-08-15T09:12:23.247Z,4,GR86-028-89,2.6,0.064,-0.027,100.0,5.0,,0.0,0.0,
2025-08-15T09:12:23.290Z,4,GR86-028-89,2.5,0.047,-0.021,100.02,5.0,6981.0,0.0,0.0,
2025-08-15T09:12:23.335Z,4,GR86-028-89,2.1,0.066,-0.028,99.99,5.0,,0.0,0.0,206.31
2025-08-15T09:12:23.378Z,4,GR86-028-89,1.8,0.061,-0.012,100.0,5.0,,0.0,0.0,
2025-08-15T09:12:23.421Z,4,GR86-028-89,1.6,0.047,0.01,99.97,5.0,,0.0,0.0,
2025-08-15T09:12:23.465Z,4,GR86-028-89,1.5,0.062,0.007,99.98,5.0,,0.0,0.0,
2025-08-15T09:12:23.508Z,4,GR86-028-89,1.7000000000000002,0.05,0.014,99.99,5.0,6992.0,0.0,0.0,
2025-08-15T09:12:23.551Z,4,GR86-028-89,2.1,0.062,0.009,99.97,5.0,,0.0,0.0,206.82
2025-08-15T09:12:23.595Z,4,GR86-028-89,2.8000000000000003,0.051,-0.023,99.98,5.0,,0.0,0.0,
2025-08-15T09:12:23.638Z,4,GR86-028-89,3.0,0.036,-0.007,99.99,5.0,,0.0,0.0,
2025-08-15T09:12:23.681Z,4,GR86-028-89,3.0,0.045,0.005,99.99,5.0,,0.0,0.0,
2025-08-15T09:12:23.726Z,4,GR86-028-89,2.9000000000000004,0.068,0.015,100.0,5.0,7041.0,0.0,0.0,
2025-08-15T09:12:23.769Z,4,GR86-028-89,2.8000000000000003,0.071,0.034,99.98,5.0,,0.0,0.0,207.3
2025-08-15T09:12:23.812Z,4,GR86-028-89,2.7,0.06,0.024,99.97,5.0,,0.0,0.0,
2025-08-15T09:12:23.858Z,4,GR86-028-89,2.5,0.057,-0.009,100.03,5.0,,0.0,0.0,
2025-08-15T09:12:23.901Z,4,GR86-028-89,2.7,0.058,-0.013,100.03,5.0,,0.0,0.0,
2025-08-15T09:12:23.945Z,4,GR86-028-89,2.6,0.078,0.0,100.01,5.0,7041.0,0.0,0.0,
2025-08-15T09:12:23.987Z,4,GR86-028-89,2.4000000000000004,0.057,-0.008,100.03,5.0,,0.0,0.0,207.88
2025-08-15T09:12:24.030Z,4,GR86-028-89,2.4000000000000004,0.059,-0.02,100.02,5.0,,0.0,0.0,
2025-08-15T09:12:24.076Z,4,GR86-028-89,2.3000000000000003,0.063,-0.017,100.0,5.0,,0.0,0.0,
2025-08-15T09:12:24.118Z,4,GR86-028-89,2.1,0.06,-0.004,99.98,5.0,,0.0,0.0,
2025-08-15T09:12:24.161Z,4,GR86-028-89,2.0,0.058,0.003,100.02,5.0,7061.0,0.0,0.0,
2025-08-15T09:12:24.205Z,4,GR86-028-89,2.3000000000000003,0.064,-0.006,100.04,5.0,,0.0,0.0,208.34
2025-08-15T09:12:24.248Z,4,GR86-028-89,2.5,0.048,-0.019,100.02,5.0,,0.0,0.0,
2025-08-15T09:12:24.291Z,4,GR86-028-89,2.5,0.075,-0.015,99.99,5.0,,0.0,0.0,
2025-08-15T09:12:24.336Z,4,GR86-028-89,2.1,0.046,0.005,99.97,5.0,,0.0,0.0,
2025-08-15T09:12:24.379Z,4,GR86-028-89,1.7000000000000002,0.052,-0.001,70.45,5.0,7072.0,0.0,0.0,
2025-08-15T09:12:24.422Z,4,GR86-028-89,1.0,0.105,-0.009,4.42,5.0,,0.0,0.0,208.75
2025-08-15T09:12:24.465Z,4,GR86-028-89,0.6000000000000001,0.042,-0.055,2.65,5.0,,0.0,0.0,
2025-08-15T09:12:24.508Z,4,GR86-028-89,0.1,-0.201,-0.018,2.48,5.0,,0.0,0.0,
2025-08-15T09:12:24.551Z,4,GR86-028-89,-0.5,-0.254,-0.002,2.42,5.0,,28.095,28.78,
2025-08-15T09:12:24.595Z,4,GR86-028-89,-0.7000000000000001,-1.027,-0.047,2.39,5.0,6904.0,66.96000000000001,66.93,
2025-08-15T09:12:24.638Z,4,GR86-028-89,-0.2,-1.353,0.001,2.39,5.0,,84.985,84.555,209.21
2025-08-15T09:12:24.681Z,4,GR86-028-89,-0.1,-1.478,-0.029,2.4,5.0,,97.315,96.84,
2025-08-15T09:12:24.726Z,4,GR86-028-89,-0.2,-1.726,0.006,2.42,5.0,,103.755,103.72,
2025-08-15T09:12:24.769Z,4,GR86-028-89,-0.4,-1.521,-0.01,2.41,5.0,,106.21,108.01,
2025-08-15T09:12:24.812Z,4,GR86-028-89,-0.6000000000000001,-1.515,-0.043,2.42,5.0,6555.0,107.46,109.81,
2025-08-15T09:12:24.858Z,4,GR86-028-89,1.4,-1.392,0.005,2.45,5.0,,105.185,107.265,206.02
2025-08-15T09:12:24.901Z,4,GR86-028-89,2.8000000000000003,-1.389,-0.013,2.45,5.0,,104.5,107.02,
2025-08-15T09:12:24.945Z,4,GR86-028-89,3.3000000000000003,-1.321,-0.041,2.45,5.0,,97.97,99.055,
2025-08-15T09:12:24.987Z,4,GR86-028-89,2.9000000000000004,-1.361,0.019,2.45,5.0,,82.925,84.42,
2025-08-15T09:12:25.030Z,4,GR86-028-89,3.0,-1.251,-0.004,2.45,5.0,6076.0,78.575,80.65,
2025-08-15T09:12:25.075Z,4,GR86-028-89,3.8,-1.285,0.038,2.45,5.0,,76.56,76.955,194.15
2025-08-15T09:12:25.118Z,4,GR86-028-89,3.5,-1.299,0.068,2.45,5.0,,78.115,79.245,
2025-08-15T09:12:25.161Z,4,GR86-028-89,3.0,-1.286,0.069,9.98,5.0,,79.655,81.625,
2025-08-15T09:12:25.205Z,4,GR86-028-89,3.3000000000000003,-1.263,0.032,55.9,4.0,,75.215,76.115,
2025-08-15T09:12:25.248Z,4,GR86-028-89,3.8,-1.193,0.072,27.66,4.0,5824.0,67.08500000000001,68.805,
2025-08-15T09:12:25.291Z,4,GR86-028-89,3.3000000000000003,-1.154,0.087,4.61,4.0,,58.370000000000005,60.23,183.25
2025-08-15T09:12:25.336Z,4,GR86-028-89,1.1,-1.199,0.077,3.99,4.0,,56.035,57.5,
2025-08-15T09:12:25.378Z,4,GR86-028-89,1.0,-1.339,0.078,3.5,4.0,,52.370000000000005,53.305,
2025-08-15T09:12:25.421Z,4,GR86-028-89,0.7000000000000001,-1.073,0.086,3.19,4.0,,51.81,53.275,
2025-08-15T09:12:25.465Z,4,GR86-028-89,-0.2,-0.976,0.066,3.0,4.0,5992.0,52.525,53.395,
2025-08-15T09:12:25.508Z,4,GR86-028-89,-1.8,-1.159,0.132,2.87,4.0,,54.615,55.67,175.67000000000002
2025-08-15T09:12:25.551Z,4,GR86-028-89,-3.8,-1.173,0.052,2.78,4.0,,60.735,62.125,
2025-08-15T09:12:25.595Z,4,GR86-028-89,-5.0,-1.198,-0.001,2.71,4.0,,67.235,68.09,
2025-08-15T09:12:25.638Z,4,GR86-028-89,-4.9,-1.204,-0.017,2.68,4.0,,69.875,70.365,
2025-08-15T09:12:25.681Z,4,GR86-028-89,-4.800000000000001,-1.23,-0.065,2.64,4.0,6189.0,71.8,73.08,
2025-08-15T09:12:25.726Z,4,GR86-028-89,-4.800000000000001,-1.192,-0.051,2.61,4.0,,71.675,72.485,160.95000000000002
2025-08-15T09:12:25.769Z,4,GR86-028-89,-5.300000000000001,-1.176,-0.13,23.0,4.0,,71.295,71.83,
2025-08-15T09:12:25.812Z,4,GR86-028-89,-6.0,-1.224,-0.192,69.98,3.0,,68.745,69.77,
2025-08-15T09:12:25.855Z,4,GR86-028-89,-6.2,-1.161,-0.18,5.73,3.0,,54.645,56.28,
2025-08-15T09:12:25.898Z,4,GR86-028-89,-5.0,-0.947,-0.182,3.98,3.0,6012.0,46.68,48.33,
2025-08-15T09:12:25.941Z,4,GR86-028-89,-3.4000000000000004,-1.011,-0.425,3.54,3.0,,43.52,44.775,152.31
2025-08-15T09:12:25.986Z,4,GR86-028-89,-2.4000000000000004,-1.213,-0.252,3.23,3.0,,40.425,41.49,
2025-08-15T09:12:26.028Z,4,GR86-028-89,-1.8,-0.966,-0.282,3.03,3.0,,39.46,40.775,
2025-08-15T09:12:26.071Z,4,GR86-028-89,-1.4,-0.846,-0.5680000000000001,2.9,3.0,,37.495,38.38,
2025-08-15T09:12:26.116Z,4,GR86-028-89,-3.6,-0.957,-0.381,2.77,3.0,6396.0,34.87,35.585,
2025-08-15T09:12:26.158Z,4,GR86-028-89,-7.2,-0.862,-0.515,2.71,3.0,,33.525,34.275,146.73
2025-08-15T09:12:26.201Z,4,GR86-028-89,-11.6,-0.88,-0.45,2.67,3.0,,32.075,33.055,
2025-08-15T09:12:26.245Z,4,GR86-028-89,-15.3,-0.855,-0.469,2.64,3.0,,30.9,31.65,
2025-08-15T09:12:26.287Z,4,GR86-028-89,-16.7,-0.8200000000000001,-0.483,2.61,3.0,,28.78,29.835,
2025-08-15T09:12:26.331Z,4,GR86-028-89,-19.0,-0.756,-0.445,2.59,3.0,6273.0,24.46,25.575,
2025-08-15T09:12:26.375Z,4,GR86-028-89,-25.4,-0.593,-0.556,2.56,3.0,,15.87,16.895,141.53
2025-08-15T09:12:26.418Z,4,GR86-028-89,-28.1,-0.551,-0.601,2.5500000000000003,3.0,,10.895,11.675,
2025-08-15T09:12:26.461Z,4,GR86-028-89,-29.5,-0.362,-0.665,2.5500000000000003,3.0,,4.335,4.93,
2025-08-15T09:12:26.505Z,4,GR86-028-89,-30.6,-0.204,-0.778,2.54,3.0,,0.0,0.0,
2025-08-15T09:12:26.591Z,4,GR86-028-89,-31.3,-0.226,-0.8180000000000001,2.52,3.0,6168.0,0.0,0.0,136.3
2025-08-15T09:12:26.635Z,4,GR86-028-89,-33.2,-0.175,-0.878,2.52,3.0,,0.0,0.0,
2025-08-15T09:12:26.678Z,4,GR86-028-89,-36.1,-0.203,-0.917,2.52,3.0,,0.0,0.0,
2025-08-15T09:12:26.721Z,4,GR86-028-89,-38.8,-0.192,-0.923,6.74,3.0,,0.0,0.0,
2025-08-15T09:12:26.765Z,4,GR86-028-89,-41.0,-0.18,-0.911,21.38,3.0,6166.0,0.0,0.0,
2025-08-15T09:12:26.808Z,4,GR86-028-89,-43.2,-0.214,-0.957,24.77,3.0,,0.0,0.0,135.53
2025-08-15T09:12:26.851Z,4,GR86-028-89,-44.1,-0.163,-1.001,25.84,3.0,,0.0,0.0,
2025-08-15T09:12:26.895Z,4,GR86-028-89,-43.400000000000006,-0.162,-1.022,29.2,3.0,,0.0,0.0,
2025-08-15T09:12:26.938Z,4,GR86-028-89,-40.400000000000006,-0.084,-1.086,30.97,3.0,,0.0,0.0,
2025-08-15T09:12:26.981Z,4,GR86-028-89,-37.6,0.17,-1.049,31.22,3.0,6239.0,0.0,0.0,
2025-08-15T09:12:27.027Z,4,GR86-028-89,-38.8,0.09,-1.083,31.32,3.0,,0.0,0.0,134.34
2025-08-15T09:12:27.069Z,4,GR86-028-89,-40.7,0.007,-1.067,31.41,3.0,,0.0,0.0,
2025-08-15T09:12:27.112Z,4,GR86-028-89,-44.1,-0.008,-1.057,31.51,3.0,,0.0,0.0,
2025-08-15T09:12:27.155Z,4,GR86-028-89,-48.7,0.012,-1.1,31.48,3.0,,0.0,0.0,
2025-08-15T09:12:27.198Z,4,GR86-028-89,-53.6,0.045,-1.094,31.35,3.0,6214.0,0.0,0.0,
2025-08-15T09:12:27.241Z,4,GR86-028-89,-58.3,0.007,-1.139,29.59,3.0,,0.0,0.0,133.71
2025-08-15T09:12:27.286Z,4,GR86-028-89,-62.8,-0.029,-1.149,28.14,3.0,,0.0,0.0,
2025-08-15T09:12:27.328Z,4,GR86-028-89,-65.0,-0.008,-1.126,28.06,3.0,,0.0,0.0,
2025-08-15T09:12:27.371Z,4,GR86-028-89,-66.0,-0.009,-1.135,27.82,3.0,,0.0,0.0,
2025-08-15T09:12:27.416Z,4,GR86-028-89,-66.5,-0.033,-1.201,26.88,3.0,6270.0,0.0,0.0,
2025-08-15T09:12:27.458Z,4,GR86-028-89,-67.5,-0.043,-1.24,26.86,3.0,,0.0,0.0,133.87
2025-08-15T09:12:27.501Z,4,GR86-028-89,-68.4,-0.073,-1.26,25.24,3.0,,0.0,0.0,
2025-08-15T09:12:27.545Z,4,GR86-028-89,-68.8,-0.052,-1.279,22.87,3.0,,0.0,0.0,
2025-08-15T09:12:27.587Z,4,GR86-028-89,-65.9,-0.028,-1.28,22.63,3.0,,0.0,0.0,
2025-08-15T09:12:27.630Z,4,GR86-028-89,-61.0,-0.066,-1.338,23.72,3.0,6296.0,0.0,0.0,
2025-08-15T09:12:27.676Z,4,GR86-028-89,-56.7,-0.075,-1.316,26.53,3.0,,0.0,0.0,133.98
2025-08-15T09:12:27.718Z,4,GR86-028-89,-57.5,-0.089,-1.307,31.31,3.0,,0.0,0.0,
2025-08-15T09:12:27.761Z,4,GR86-028-89,-58.6,-0.063,-1.286,31.77,3.0,,0.0,0.0,
2025-08-15T09:12:27.805Z,4,GR86-028-89,-58.2,0.003,-1.239,31.87,3.0,,0.0,0.0,
2025-08-15T09:12:27.848Z,4,GR86-028-89,-56.7,-0.019,-1.355,32.06,3.0,6262.0,0.0,0.0,
2025-08-15T09:12:27.891Z,4,GR86-028-89,-56.6,-0.011,-1.32,32.31,3.0,,0.0,0.0,135.16
2025-08-15T09:12:27.936Z,4,GR86-028-89,-59.7,-0.02,-1.297,32.79,3.0,,0.0,0.0,
2025-08-15T09:12:27.979Z,4,GR86-028-89,-61.8,0.0,-1.284,32.87,3.0,,0.0,0.0,
2025-08-15T09:12:28.066Z,4,GR86-028-89,-57.8,-0.043,-1.249,32.86,3.0,6314.0,0.0,0.0,
2025-08-15T09:12:28.109Z,4,GR86-028-89,-55.400000000000006,-0.139,-1.293,33.05,3.0,,0.0,0.0,134.88
2025-08-15T09:12:28.152Z,4,GR86-028-89,-52.0,-0.018,-1.193,33.13,3.0,,0.0,0.0,
2025-08-15T09:12:28.195Z,4,GR86-028-89,-46.0,0.039,-1.179,33.25,3.0,,0.0,0.0,
2025-08-15T09:12:28.238Z,4,GR86-028-89,-42.8,-0.036,-1.197,33.22,3.0,,0.0,0.0,
2025-08-15T09:12:28.281Z,4,GR86-028-89,-37.0,-0.115,-1.366,33.22,3.0,6320.0,0.0,0.0,
2025-08-15T09:12:28.327Z,4,GR86-028-89,-34.800000000000004,0.081,-1.288,33.34,3.0,,0.0,0.0,133.87
2025-08-15T09:12:28.369Z,4,GR86-028-89,-34.6,0.113,-1.36,33.83,3.0,,0.0,0.0,
2025-08-15T09:12:28.458Z,4,GR86-028-89,-34.9,0.035,-1.071,34.5,3.0,,0.0,0.0,
2025-08-15T09:12:28.501Z,4,GR86-028-89,-29.700000000000003,0.064,-1.271,34.22,3.0,6441.0,0.0,0.0,
2025-08-15T09:12:28.545Z,4,GR86-028-89,-26.3,0.249,-1.297,34.25,3.0,,0.0,0.0,133.95
2025-08-15T09:12:28.587Z,4,GR86-028-89,-21.6,0.246,-1.484,34.45,3.0,,0.0,0.0,
2025-08-15T09:12:28.630Z,4,GR86-028-89,-18.9,0.183,-1.192,36.3,3.0,,0.0,0.0,
2025-08-15T09:12:28.675Z,4,GR86-028-89,-15.7,0.094,-1.179,38.82,3.0,,0.0,0.0,
2025-08-15T09:12:28.718Z,4,GR86-028-89,-18.0,0.089,-1.318,39.71,3.0,6425.0,0.0,0.0,
2025-08-15T09:12:28.761Z,4,GR86-028-89,-18.5,0.164,-1.427,42.91,3.0,,0.0,0.0,134.13
2025-08-15T09:12:28.805Z,4,GR86-028-89,-13.4,0.086,-1.392,49.74,3.0,,0.0,0.0,
2025-08-15T09:12:28.847Z,4,GR86-028-89,-8.0,0.057,-1.27,53.61,3.0,,0.0,0.0,
2025-08-15T09:12:28.890Z,4,GR86-028-89,-9.8,0.06,-1.16,57.5,3.0,,0.0,0.0,
2025-08-15T09:12:28.936Z,4,GR86-028-89,-32.9,0.114,-1.213,78.33,3.0,6372.0,0.0,0.0,
2025-08-15T09:12:28.978Z,4,GR86-028-89,-47.2,0.153,-1.294,79.93,3.0,,0.0,0.0,133.08
2025-08-15T09:12:29.021Z,4,GR86-028-89,-56.6,0.096,-1.409,92.67,3.0,,0.0,0.0,
2025-08-15T09:12:29.066Z,4,GR86-028-89,-60.1,0.076,-1.315,100.31,3.0,,0.0,0.0,
2025-08-15T09:12:29.109Z,4,GR86-028-89,-61.0,0.113,-1.245,100.22,3.0,,0.0,0.0,
2025-08-15T09:12:29.152Z,4,GR86-028-89,-55.5,0.151,-1.269,100.19,3.0,6424.0,0.0,0.0,
2025-08-15T09:12:29.195Z,4,GR86-028-89,-50.6,0.178,-1.179,100.23,3.0,,0.0,0.0,132.9
2025-08-15T09:12:29.238Z,4,GR86-028-89,-50.5,0.125,-1.249,100.22,3.0,,0.0,0.0,
2025-08-15T09:12:29.281Z,4,GR86-028-89,-49.3,0.076,-1.19,100.22,3.0,,0.0,0.0,
2025-08-15T09:12:29.326Z,4,GR86-028-89,-46.6,0.101,-1.2,100.21,3.0,,0.0,0.0,
2025-08-15T09:12:29.369Z,4,GR86-028-89,-45.0,0.139,-1.249,100.2,3.0,6364.0,0.0,0.0,
2025-08-15T09:12:29.412Z,4,GR86-028-89,-44.8,0.118,-1.287,100.22,3.0,,0.0,0.0,132.84
2025-08-15T09:12:29.455Z,4,GR86-028-89,-46.7,0.125,-1.241,100.18,3.0,,0.0,0.0,
2025-08-15T09:12:29.498Z,4,GR86-028-89,-47.3,0.076,-1.212,100.21,3.0,,0.0,0.0,
2025-08-15T09:12:29.541Z,4,GR86-028-89,-47.1,0.112,-1.165,100.19,3.0,,0.0,0.0,
2025-08-15T09:12:29.586Z,4,GR86-028-89,-46.1,0.134,-1.158,100.21,3.0,6355.0,0.0,0.0,
2025-08-15T09:12:29.628Z,4,GR86-028-89,-44.7,0.118,-1.184,100.2,3.0,,0.0,0.0,134.24
2025-08-15T09:12:29.671Z,4,GR86-028-89,-43.0,0.093,-1.127,100.18,3.0,,0.0,0.0,
2025-08-15T09:12:29.716Z,4,GR86-028-89,-41.2,0.102,-1.115,100.18,3.0,,0.0,0.0,
2025-08-15T09:12:29.758Z,4,GR86-028-89,-39.2,0.102,-1.093,100.15,3.0,,0.0,0.0,
2025-08-15T09:12:29.801Z,4,GR86-028-89,-36.0,0.146,-1.07,100.18,3.0,6408.0,0.0,0.0,
2025-08-15T09:12:29.845Z,4,GR86-028-89,-33.1,0.148,-1.08,100.16,3.0,,0.0,0.0,135.23
2025-08-15T09:12:29.887Z,4,GR86-028-89,-32.2,0.122,-1.024,100.18,3.0,,0.0,0.0,
2025-08-15T09:12:29.931Z,4,GR86-028-89,-32.7,0.119,-0.995,100.17,3.0,,0.0,0.0,
2025-08-15T09:12:29.975Z,4,GR86-028-89,-32.4,0.106,-0.991,100.16,3.0,,0.0,0.0,
2025-08-15T09:12:30.018Z,4,GR86-028-89,-32.4,0.151,-1.0,100.09,3.0,6443.0,0.0,0.0,
2025-08-15T09:12:30.061Z,4,GR86-028-89,-33.1,0.174,-0.957,100.1,3.0,,0.0,0.0,136.1
2025-08-15T09:12:30.105Z,4,GR86-028-89,-33.1,0.12,-0.987,100.04,3.0,,0.0,0.0,
2025-08-15T09:12:30.148Z,4,GR86-028-89,-32.5,0.111,-0.946,100.04,3.0,,0.0,0.0,
2025-08-15T09:12:30.191Z,4,GR86-028-89,-31.9,0.149,-0.879,100.03,3.0,,0.0,0.0,
2025-08-15T09:12:30.235Z,4,GR86-028-89,-32.0,0.092,-0.845,100.04,3.0,6476.0,0.0,0.0,
2025-08-15T09:12:30.278Z,4,GR86-028-89,-32.0,0.123,-0.598,100.02,3.0,,0.0,0.0,137.0
2025-08-15T09:12:30.321Z,4,GR86-028-89,-31.6,0.064,-0.6980000000000001,100.01,3.0,,0.0,0.0,
2025-08-15T09:12:30.365Z,4,GR86-028-89,-31.4,0.136,-0.736,100.04,3.0,,0.0,0.0,
2025-08-15T09:12:30.408Z,4,GR86-028-89,-31.6,0.248,-0.663,100.02,3.0,,0.0,0.0,
2025-08-15T09:12:30.451Z,4,GR86-028-89,-32.300000000000004,0.162,-0.537,100.03,3.0,6515.0,0.0,0.0,
2025-08-15T09:12:30.495Z,4,GR86-028-89,-31.6,0.269,-0.854,100.02,3.0,,0.0,0.0,138.24
2025-08-15T09:12:30.538Z,4,GR86-028-89,-30.9,0.182,-0.636,100.01,3.0,,0.0,0.0,
2025-08-15T09:12:30.581Z,4,GR86-028-89,-30.9,-0.021,-1.108,100.01,3.0,,0.0,0.0,
2025-08-15T09:12:30.626Z,4,GR86-028-89,-30.8,0.134,-1.132,100.01,3.0,,0.0,0.0,
2025-08-15T09:12:30.669Z,4,GR86-028-89,-30.6,0.235,-1.083,99.98,3.0,6624.0,0.0,0.0,
2025-08-15T09:12:30.712Z,4,GR86-028-89,-30.3,0.253,-0.974,99.98,3.0,,0.0,0.0,139.16
2025-08-15T09:12:30.758Z,4,GR86-028-89,-29.8,0.246,-0.876,100.0,3.0,,0.0,0.0,
2025-08-15T09:12:30.801Z,4,GR86-028-89,-30.0,0.198,-0.8260000000000001,100.03,3.0,,0.0,0.0,
2025-08-15T09:12:30.845Z,4,GR86-028-89,-30.5,0.02,-0.971,100.02,3.0,,0.0,0.0,
2025-08-15T09:12:30.887Z,4,GR86-028-89,-30.5,-0.006,-1.011,99.99,3.0,6664.0,0.0,0.0,
2025-08-15T09:12:30.930Z,4,GR86-028-89,-28.9,0.249,-0.812,100.0,3.0,,0.0,0.0,140.68
2025-08-15T09:12:30.975Z,4,GR86-028-89,-24.5,0.163,-1.04,99.96,3.0,,0.0,0.0,
2025-08-15T09:12:31.018Z,4,GR86-028-89,-22.8,0.189,-0.853,99.98,3.0,,0.0,0.0,
2025-08-15T09:12:31.061Z,4,GR86-028-89,-22.3,0.117,-1.107,100.01,3.0,,0.0,0.0,
2025-08-15T09:12:31.105Z,4,GR86-028-89,-21.6,0.216,-0.794,99.98,3.0,6761.0,0.0,0.0,
2025-08-15T09:12:31.148Z,4,GR86-028-89,-20.5,0.081,-0.8220000000000001,99.97,3.0,,0.0,0.0,141.97
2025-08-15T09:12:31.191Z,4,GR86-028-89,-19.8,0.188,-0.772,99.99,3.0,,0.0,0.0,
2025-08-15T09:12:31.236Z,4,GR86-028-89,-19.8,0.186,-0.641,100.01,3.0,,0.0,0.0,
2025-08-15T09:12:31.279Z,4,GR86-028-89,-19.4,0.139,-0.6920000000000001,100.02,3.0,,0.0,0.0,
2025-08-15T09:12:31.322Z,4,GR86-028-89,-18.8,0.185,-0.706,100.02,3.0,6738.0,0.0,0.0,
2025-08-15T09:12:31.365Z,4,GR86-028-89,-17.7,0.119,-0.529,100.0,3.0,,0.0,0.0,142.55
2025-08-15T09:12:31.408Z,4,GR86-028-89,-16.2,0.095,-0.511,99.98,3.0,,0.0,0.0,
2025-08-15T09:12:31.451Z,4,GR86-028-89,-15.4,0.213,-0.5690000000000001,99.98,3.0,,0.0,0.0,
2025-08-15T09:12:31.495Z,4,GR86-028-89,-15.4,0.093,-0.529,99.99,3.0,,0.0,0.0,
2025-08-15T09:12:31.538Z,4,GR86-028-89,-15.3,0.184,-0.452,99.97,3.0,6803.0,0.0,0.0,
2025-08-15T09:12:31.581Z,4,GR86-028-89,-15.0,0.161,-0.411,100.0,3.0,,0.0,0.0,144.28
2025-08-15T09:12:31.627Z,4,GR86-028-89,-13.1,0.116,-0.506,99.99,3.0,,0.0,0.0,
2025-08-15T09:12:31.669Z,4,GR86-028-89,-11.1,0.172,-0.361,100.03,3.0,,0.0,0.0,
2025-08-15T09:12:31.712Z,4,GR86-028-89,-10.0,0.18,-0.338,100.02,3.0,,0.0,0.0,
2025-08-15T09:12:31.758Z,4,GR86-028-89,-9.2,0.126,-0.2,99.99,3.0,6949.0,0.0,0.0,
2025-08-15T09:12:31.801Z,4,GR86-028-89,-7.4,-0.026,-0.276,100.02,3.0,,0.0,0.0,145.48
2025-08-15T09:12:31.845Z,4,GR86-028-89,-4.7,0.059,-0.288,100.01,3.0,,0.0,0.0,
2025-08-15T09:12:31.887Z,4,GR86-028-89,-2.3000000000000003,0.251,-0.334,100.0,3.0,,0.0,0.0,
2025-08-15T09:12:31.930Z,4,GR86-028-89,-1.5,0.313,-0.346,100.04,3.0,,0.0,0.0,
2025-08-15T09:12:31.975Z,4,GR86-028-89,-0.6000000000000001,0.163,-0.233,99.96,3.0,7037.0,0.0,0.0,
2025-08-15T09:12:32.018Z,4,GR86-028-89,0.2,0.174,-0.319,99.99,3.0,,0.0,0.0,146.67000000000002
2025-08-15T09:12:32.061Z,4,GR86-028-89,0.5,0.187,-0.21,99.98,3.0,,0.0,0.0,
2025-08-15T09:12:32.105Z,4,GR86-028-89,-0.2,0.113,-0.037,99.98,3.0,,0.0,0.0,
2025-08-15T09:12:32.148Z,4,GR86-028-89,0.1,0.135,-0.024,100.01,3.0,,0.0,0.0,
2025-08-15T09:12:32.191Z,4,GR86-028-89,1.0,0.182,-0.081,99.97,3.0,7003.0,0.0,0.0,
2025-08-15T09:12:32.236Z,4,GR86-028-89,2.2,0.181,0.058,99.98,3.0,,0.0,0.0,148.57
2025-08-15T09:12:32.278Z,4,GR86-028-89,3.2,0.127,0.011,100.0,3.0,,0.0,0.0,
2025-08-15T09:12:32.321Z,4,GR86-028-89,4.800000000000001,0.161,0.023,99.98,3.0,,0.0,0.0,
2025-08-15T09:12:32.365Z,4,GR86-028-89,6.1000000000000005,0.26,-0.032,100.0,3.0,,0.0,0.0,
2025-08-15T09:12:32.408Z,4,GR86-028-89,6.800000000000001,0.346,0.039,99.97,3.0,7089.0,0.0,0.0,
2025-08-15T09:12:32.451Z,4,GR86-028-89,6.7,0.125,0.117,99.98,3.0,,0.0,0.0,149.55
2025-08-15T09:12:32.495Z,4,GR86-028-89,6.4,0.077,0.17,100.01,3.0,,0.0,0.0,
2025-08-15T09:12:32.538Z,4,GR86-028-89,7.5,0.221,0.193,99.98,3.0,,0.0,0.0,
2025-08-15T09:12:32.581Z,4,GR86-028-89,8.8,0.115,0.323,99.99,3.0,,0.0,0.0,
2025-08-15T09:12:32.627Z,4,GR86-028-89,10.2,0.193,0.27,99.98,3.0,7159.0,0.0,0.0,
2025-08-15T09:12:32.669Z,4,GR86-028-89,10.8,0.169,0.203,100.02,3.0,,0.0,0.0,150.93
2025-08-15T09:12:32.712Z,4,GR86-028-89,10.7,0.148,0.209,100.02,3.0,,0.0,0.0,
2025-08-15T09:12:32.755Z,4,GR86-028-89,10.0,0.125,0.288,99.99,3.0,,0.0,0.0,
2025-08-15T09:12:32.798Z,4,GR86-028-89,9.9,0.182,0.266,100.03,3.0,,0.0,0.0,
2025-08-15T09:12:32.841Z,4,GR86-028-89,9.9,0.198,0.261,100.01,3.0,7112.0,0.0,0.0,
2025-08-15T09:12:32.886Z,4,GR86-028-89,10.1,0.2,0.25,100.01,3.0,,0.0,0.0,152.39
2025-08-15T09:12:32.928Z,4,GR86-028-89,10.0,0.186,0.258,99.97,3.0,,0.0,0.0,
2025-08-15T09:12:32.971Z,4,GR86-028-89,9.8,0.16,0.268,100.01,3.0,,0.0,0.0,
2025-08-15T09:12:33.015Z,4,GR86-028-89,9.5,0.196,0.235,99.97,3.0,,0.0,0.0,
2025-08-15T09:12:33.058Z,4,GR86-028-89,9.4,0.172,0.272,100.01,3.0,7211.0,0.0,0.0,
2025-08-15T09:12:33.101Z,4,GR86-028-89,9.4,0.172,0.265,99.97,3.0,,0.0,0.0,154.0
2025-08-15T09:12:33.145Z,4,GR86-028-89,9.3,0.139,0.273,99.98,3.0,,0.0,0.0,
2025-08-15T09:12:33.187Z,4,GR86-028-89,9.4,0.126,0.258,100.01,3.0,,0.0,0.0,
2025-08-15T09:12:33.231Z,4,GR86-028-89,9.4,0.107,0.223,100.0,3.0,,0.0,0.0,
2025-08-15T09:12:33.275Z,4,GR86-028-89,8.5,0.042,0.3,99.99,4.0,7287.0,0.0,0.0,
2025-08-15T09:12:33.318Z,4,GR86-028-89,8.6,0.425,0.205,100.0,4.0,,0.0,0.0,156.79
2025-08-15T09:12:33.361Z,4,GR86-028-89,8.700000000000001,0.282,0.166,99.99,4.0,,0.0,0.0,
2025-08-15T09:12:33.405Z,4,GR86-028-89,8.200000000000001,0.082,0.307,99.99,4.0,,0.0,0.0,
2025-08-15T09:12:33.447Z,4,GR86-028-89,7.6,0.047,0.23,100.0,4.0,,0.0,0.0,
2025-08-15T09:12:33.490Z,4,GR86-028-89,7.4,0.173,0.2,99.99,4.0,6835.0,0.0,0.0,
2025-08-15T09:12:33.534Z,4,GR86-028-89,7.4,0.188,0.263,99.98,4.0,,0.0,0.0,158.35
2025-08-15T09:12:33.578Z,4,GR86-028-89,7.6,0.128,0.197,100.01,4.0,,0.0,0.0,
2025-08-15T09:12:33.621Z,4,GR86-028-89,7.9,0.133,0.248,99.97,4.0,,0.0,0.0,
2025-08-15T09:12:33.665Z,4,GR86-028-89,8.0,0.153,0.243,99.99,4.0,,0.0,0.0,
2025-08-15T09:12:33.708Z,4,GR86-028-89,8.0,0.132,0.205,100.01,4.0,6315.0,0.0,0.0,
2025-08-15T09:12:33.751Z,4,GR86-028-89,8.0,0.105,0.216,99.98,4.0,,0.0,0.0,159.87
2025-08-15T09:12:33.795Z,4,GR86-028-89,7.6,0.14,0.208,100.01,4.0,,0.0,0.0,
2025-08-15T09:12:33.838Z,4,GR86-028-89,7.4,0.15,0.202,100.0,4.0,,0.0,0.0,
2025-08-15T09:12:33.881Z,4,GR86-028-89,7.0,0.114,0.216,100.0,4.0,,0.0,0.0,
2025-08-15T09:12:33.926Z,4,GR86-028-89,6.7,0.107,0.175,99.98,4.0,6339.0,0.0,0.0,
2025-08-15T09:12:33.969Z,4,GR86-028-89,6.6000000000000005,0.114,0.167,100.01,4.0,,0.0,0.0,161.28
2025-08-15T09:12:34.012Z,4,GR86-028-89,6.2,0.133,0.174,99.97,4.0,,0.0,0.0,
2025-08-15T09:12:34.058Z,4,GR86-028-89,5.300000000000001,0.117,0.153,99.99,4.0,,0.0,0.0,
2025-08-15T09:12:34.101Z,4,GR86-028-89,4.9,0.103,0.134,99.99,4.0,,0.0,0.0,
2025-08-15T09:12:34.145Z,4,GR86-028-89,4.9,0.128,0.094,100.01,4.0,6392.0,0.0,0.0,
2025-08-15T09:12:34.187Z,4,GR86-028-89,4.6000000000000005,0.129,0.085,100.0,4.0,,0.0,0.0,162.72
2025-08-15T09:12:34.230Z,4,GR86-028-89,4.1000000000000005,0.146,0.074,100.0,4.0,,0.0,0.0,
2025-08-15T09:12:34.276Z,4,GR86-028-89,3.8,0.093,0.079,99.98,4.0,,0.0,0.0,
2025-08-15T09:12:34.318Z,4,GR86-028-89,3.5,0.114,0.045,100.02,4.0,,0.0,0.0,
2025-08-15T09:12:34.361Z,4,GR86-028-89,2.7,0.128,0.04,100.0,4.0,6455.0,0.0,0.0,
2025-08-15T09:12:34.405Z,4,GR86-028-89,1.8,0.119,0.006,100.02,4.0,,0.0,0.0,164.11
2025-08-15T09:12:34.448Z,4,GR86-028-89,0.9,0.141,0.002,99.99,4.0,,0.0,0.0,
2025-08-15T09:12:34.491Z,4,GR86-028-89,0.1,0.128,-0.025,100.01,4.0,,0.0,0.0,
2025-08-15T09:12:34.536Z,4,GR86-028-89,-0.4,0.108,-0.046,100.01,4.0,,0.0,0.0,
2025-08-15T09:12:34.579Z,4,GR86-028-89,-1.0,0.119,-0.076,99.99,4.0,6512.0,0.0,0.0,
2025-08-15T09:12:34.622Z,4,GR86-028-89,-1.5,0.112,-0.1,99.99,4.0,,0.0,0.0,165.62
2025-08-15T09:12:34.665Z,4,GR86-028-89,-2.2,0.134,-0.131,100.0,4.0,,0.0,0.0,
2025-08-15T09:12:34.708Z,4,GR86-028-89,-3.1,0.138,-0.153,100.02,4.0,,0.0,0.0,
2025-08-15T09:12:34.751Z,4,GR86-028-89,-3.9,0.125,-0.171,99.97,4.0,,0.0,0.0,
2025-08-15T09:12:34.795Z,4,GR86-028-89,-4.9,0.106,-0.19,99.99,4.0,6570.0,0.0,0.0,
2025-08-15T09:12:34.838Z,4,GR86-028-89,-5.1000000000000005,0.108,-0.203,100.0,4.0,,0.0,0.0,167.01
2025-08-15T09:12:34.881Z,4,GR86-028-89,-5.1000000000000005,0.117,-0.225,99.98,4.0,,0.0,0.0,
2025-08-15T09:12:34.926Z,4,GR86-028-89,-4.2,0.122,-0.264,100.0,4.0,,0.0,0.0,
2025-08-15T09:12:34.969Z,4,GR86-028-89,-3.2,0.123,-0.26,100.01,4.0,,0.0,0.0,
2025-08-15T09:12:35.012Z,4,GR86-028-89,-3.2,0.134,-0.249,100.0,4.0,6616.0,0.0,0.0,
2025-08-15T09:12:35.058Z,4,GR86-028-89,-5.0,0.089,-0.216,99.98,4.0,,0.0,0.0,168.45000000000002
2025-08-15T09:12:35.101Z,4,GR86-028-89,-6.300000000000001,0.086,-0.237,100.01,4.0,,0.0,0.0,
2025-08-15T09:12:35.145Z,4,GR86-028-89,-7.800000000000001,0.119,-0.262,100.02,4.0,,0.0,0.0,
2025-08-15T09:12:35.187Z,4,GR86-028-89,-8.9,0.122,-0.291,100.0,4.0,,0.0,0.0,
2025-08-15T09:12:35.230Z,4,GR86-028-89,-9.2,0.131,-0.309,100.0,4.0,6664.0,0.0,0.0,
2025-08-15T09:12:35.275Z,4,GR86-028-89,-9.2,0.086,-0.33,99.99,4.0,,0.0,0.0,169.84
2025-08-15T09:12:35.318Z,4,GR86-028-89,-9.2,0.084,-0.341,100.0,4.0,,0.0,0.0,
2025-08-15T09:12:35.361Z,4,GR86-028-89,-9.2,0.099,-0.358,100.0,4.0,,0.0,0.0,
2025-08-15T09:12:35.405Z,4,GR86-028-89,-9.2,0.097,-0.368,99.97,4.0,,0.0,0.0,
2025-08-15T09:12:35.447Z,4,GR86-028-89,-8.700000000000001,0.094,-0.365,99.98,4.0,6720.0,0.0,0.0,
2025-08-15T09:12:35.490Z,4,GR86-028-89,-7.9,0.113,-0.364,100.0,4.0,,0.0,0.0,171.12
2025-08-15T09:12:35.536Z,4,GR86-028-89,-7.0,0.085,-0.345,100.0,4.0,,0.0,0.0,
2025-08-15T09:12:35.578Z,4,GR86-028-89,-7.5,0.102,-0.333,100.01,4.0,,0.0,0.0,
2025-08-15T09:12:35.621Z,4,GR86-028-89,-8.8,0.09,-0.352,100.02,4.0,,0.0,0.0,
2025-08-15T09:12:35.665Z,4,GR86-028-89,-10.4,0.082,-0.353,100.02,4.0,6773.0,0.0,0.0,
2025-08-15T09:12:35.708Z,4,GR86-028-89,-11.4,0.085,-0.38,99.97,4.0,,0.0,0.0,172.32
2025-08-15T09:12:35.751Z,4,GR86-028-89,-11.5,0.086,-0.411,99.98,4.0,,0.0,0.0,
2025-08-15T09:12:35.795Z,4,GR86-028-89,-11.3,0.125,-0.407,100.0,4.0,,0.0,0.0,
2025-08-15T09:12:35.838Z,4,GR86-028-89,-11.2,0.106,-0.415,99.98,4.0,,0.0,0.0,
2025-08-15T09:12:35.881Z,4,GR86-028-89,-11.2,0.113,-0.417,99.98,4.0,6818.0,0.0,0.0,
2025-08-15T09:12:35.927Z,4,GR86-028-89,-11.6,0.08,-0.435,99.99,4.0,,0.0,0.0,174.94
2025-08-15T09:12:35.969Z,4,GR86-028-89,-11.8,0.097,-0.445,100.01,4.0,,0.0,0.0,
2025-08-15T09:12:36.012Z,4,GR86-028-89,-12.2,0.076,-0.428,100.02,4.0,,0.0,0.0,
2025-08-15T09:12:36.058Z,4,GR86-028-89,-12.5,0.087,-0.443,100.0,4.0,,0.0,0.0,
2025-08-15T09:12:36.101Z,4,GR86-028-89,-11.9,0.115,-0.46,99.99,4.0,6868.0,0.0,0.0,
2025-08-15T09:12:36.145Z,4,GR86-028-89,-10.9,0.104,-0.474,99.99,4.0,,0.0,0.0,176.15
2025-08-15T09:12:36.187Z,4,GR86-028-89,-10.2,0.112,-0.491,99.99,4.0,,0.0,0.0,
2025-08-15T09:12:36.231Z,4,GR86-028-89,-9.6,0.113,-0.497,100.02,4.0,,0.0,0.0,
2025-08-15T09:12:36.275Z,4,GR86-028-89,-8.8,0.072,-0.461,99.96,4.0,,0.0,0.0,
2025-08-15T09:12:36.318Z,4,GR86-028-89,-8.5,0.067,-0.433,100.0,4.0,6962.0,0.0,0.0,
2025-08-15T09:12:36.361Z,4,GR86-028-89,-8.4,0.063,-0.416,99.97,4.0,,0.0,0.0,177.41
2025-08-15T09:12:36.405Z,4,GR86-028-89,-7.6,0.074,-0.377,99.97,4.0,,0.0,0.0,
2025-08-15T09:12:36.447Z,4,GR86-028-89,-5.6000000000000005,0.071,-0.337,99.99,4.0,,0.0,0.0,
2025-08-15T09:12:36.490Z,4,GR86-028-89,-3.3000000000000003,0.075,-0.287,99.97,4.0,,0.0,0.0,
2025-08-15T09:12:36.535Z,4,GR86-028-89,-2.3000000000000003,0.119,-0.25,97.98,4.0,7000.0,0.0,0.0,
2025-08-15T09:12:36.578Z,4,GR86-028-89,-2.7,0.132,-0.212,37.16,4.0,,0.0,0.0,178.61
2025-08-15T09:12:36.621Z,4,GR86-028-89,-2.7,0.112,-0.181,3.46,4.0,,0.0,0.0,
2025-08-15T09:12:36.665Z,4,GR86-028-89,-2.7,0.028,-0.156,2.58,4.0,,0.0,0.0,
2025-08-15T09:12:36.708Z,4,GR86-028-89,-1.9,-0.159,-0.085,2.48,4.0,,0.0,0.0,
2025-08-15T09:12:36.751Z,4,GR86-028-89,-0.5,-0.373,-0.09,2.45,4.0,6753.0,20.295,20.875,
2025-08-15T09:12:36.795Z,4,GR86-028-89,0.4,-0.782,-0.02,2.42,4.0,,57.620000000000005,57.53,179.5
2025-08-15T09:12:36.838Z,4,GR86-028-89,0.5,-1.206,-0.03,2.42,4.0,,74.745,74.375,
2025-08-15T09:12:36.881Z,4,GR86-028-89,0.5,-1.414,-0.003,2.42,4.0,,87.33500000000001,86.785,
2025-08-15T09:12:36.926Z,4,GR86-028-89,0.1,-1.634,-0.001,2.46,4.0,,94.045,93.53,
2025-08-15T09:12:36.969Z,4,GR86-028-89,0.2,-1.54,-0.028,2.45,4.0,6588.0,96.17,97.025,
2025-08-15T09:12:37.012Z,4,GR86-028-89,0.4,-1.545,-0.021,2.46,4.0,,94.045,96.17,177.18
2025-08-15T09:12:37.058Z,4,GR86-028-89,0.4,-1.608,0.034,2.45,4.0,,84.645,86.965,
2025-08-15T09:12:37.101Z,4,GR86-028-89,0.5,-1.374,0.078,2.46,4.0,,78.45,80.71000000000001,
2025-08-15T09:12:37.145Z,4,GR86-028-89,-0.1,-1.347,0.036,2.46,4.0,,70.715,71.34,
2025-08-15T09:12:37.187Z,4,GR86-028-89,-1.3,-1.353,0.021,2.46,4.0,6076.0,69.675,70.09,
2025-08-15T09:12:37.230Z,4,GR86-028-89,-2.2,-1.294,0.009,2.46,4.0,,73.75,75.065,166.74
2025-08-15T09:12:37.276Z,4,GR86-028-89,-3.4000000000000004,-1.374,0.001,2.46,4.0,,76.62,77.965,
2025-08-15T09:12:37.318Z,4,GR86-028-89,-3.5,-1.331,-0.007,18.26,4.0,,77.34,79.4,
2025-08-15T09:12:37.361Z,4,GR86-028-89,-3.5,-1.334,-0.047,65.27,4.0,,78.71000000000001,80.865,
2025-08-15T09:12:37.405Z,4,GR86-028-89,-3.5,-1.408,-0.058,56.99,3.0,5728.0,79.305,80.08500000000001,
2025-08-15T09:12:37.448Z,4,GR86-028-89,-4.2,-1.438,-0.023,5.69,3.0,,80.465,82.175,157.12
2025-08-15T09:12:37.491Z,4,GR86-028-89,-4.6000000000000005,-1.309,-0.095,3.65,3.0,,80.56,82.555,
2025-08-15T09:12:37.536Z,4,GR86-028-89,-3.5,-1.369,-0.134,3.21,3.0,,71.735,72.99,
2025-08-15T09:12:37.579Z,4,GR86-028-89,-3.1,-1.112,-0.092,3.02,3.0,,64.93,66.76,
2025-08-15T09:12:37.665Z,4,GR86-028-89,-2.4000000000000004,-1.079,-0.443,2.9,3.0,5664.0,56.66,58.31,147.20000000000002
2025-08-15T09:12:37.708Z,4,GR86-028-89,-2.6,-1.095,-0.191,2.77,3.0,,52.05,53.425,
2025-08-15T09:12:37.751Z,4,GR86-028-89,-4.800000000000001,-1.052,-0.586,2.71,3.0,,53.775,54.705,
2025-08-15T09:12:37.838Z,4,GR86-028-89,-10.6,-1.108,-0.435,2.64,3.0,5902.0,55.515,56.370000000000005,
2025-08-15T09:12:37.881Z,4,GR86-028-89,-15.2,-1.072,-0.648,2.62,3.0,,57.27,58.34,140.0
2025-08-15T09:12:37.927Z,4,GR86-028-89,-15.7,-0.934,-0.704,2.58,3.0,,58.995000000000005,60.11,
2025-08-15T09:12:37.969Z,4,GR86-028-89,-14.8,-1.039,-0.74,2.57,3.0,,54.11,54.675,
2025-08-15T09:12:38.012Z,4,GR86-028-89,-14.6,-0.953,-0.508,2.5500000000000003,3.0,,53.545,54.325,
2025-08-15T09:12:38.058Z,4,GR86-028-89,-18.7,-1.007,-0.734,48.83,3.0,5777.0,57.15,57.895,
2025-08-15T09:12:38.101Z,4,GR86-028-89,-22.200000000000003,-1.101,-0.58,95.56,3.0,,54.11,54.645,134.0
2025-08-15T09:12:38.145Z,4,GR86-028-89,-24.9,-1.012,-0.479,100.21,3.0,,53.09,53.425,
2025-08-15T09:12:38.187Z,4,GR86-028-89,-27.4,-1.047,-0.6,77.97,2.0,,54.675,55.105,
2025-08-15T09:12:38.230Z,4,GR86-028-89,-32.2,-1.123,-0.521,7.08,2.0,,55.335,56.4,
2025-08-15T09:12:38.275Z,4,GR86-028-89,-36.7,-1.059,-0.712,2.84,2.0,5568.0,53.395,55.01,
2025-08-15T09:12:38.318Z,4,GR86-028-89,-34.9,-1.164,-0.666,2.68,2.0,,50.845,51.535,120.22
2025-08-15T09:12:38.361Z,4,GR86-028-89,-34.6,-1.003,-0.633,2.62,2.0,,43.92,45.125,
2025-08-15T09:12:38.405Z,4,GR86-028-89,-34.6,-0.862,-0.868,2.56,2.0,,36.485,37.89,
2025-08-15T09:12:38.447Z,4,GR86-028-89,-35.300000000000004,-0.762,-0.744,2.5500000000000003,2.0,,33.525,34.565,
2025-08-15T09:12:38.490Z,4,GR86-028-89,-36.3,-0.79,-0.809,2.5500000000000003,2.0,6343.0,29.115,30.245,
2025-08-15T09:12:38.535Z,4,GR86-028-89,-34.9,-0.632,-1.0,2.54,2.0,,13.52,14.42,114.75
2025-08-15T09:12:38.578Z,4,GR86-028-89,-35.800000000000004,-0.376,-1.035,2.52,2.0,,4.365,4.99,
2025-08-15T09:12:38.621Z,4,GR86-028-89,-42.6,-0.356,-1.093,2.52,2.0,,0.0,0.0,
2025-08-15T09:12:38.665Z,4,GR86-028-89,-52.400000000000006,-0.278,-1.122,2.52,2.0,,0.0,0.0,
2025-08-15T09:12:38.708Z,4,GR86-028-89,-59.7,-0.251,-1.151,2.52,2.0,6097.0,0.0,0.0,
2025-08-15T09:12:38.751Z,4,GR86-028-89,-62.6,-0.227,-1.217,2.51,2.0,,0.0,0.0,111.81
2025-08-15T09:12:38.795Z,4,GR86-028-89,-63.1,-0.227,-1.198,2.52,2.0,,0.0,0.0,
2025-08-15T09:12:38.838Z,4,GR86-028-89,-66.60000000000001,-0.254,-1.238,2.51,2.0,,0.0,0.0,
2025-08-15T09:12:38.881Z,4,GR86-028-89,-71.7,-0.259,-1.228,2.52,2.0,,0.0,0.0,
2025-08-15T09:12:38.927Z,4,GR86-028-89,-74.7,-0.251,-1.199,2.52,2.0,6051.0,0.0,0.0,
2025-08-15T09:12:38.969Z,4,GR86-028-89,-74.10000000000001,-0.269,-1.251,2.51,2.0,,0.0,0.0,109.32
2025-08-15T09:12:39.012Z,4,GR86-028-89,-71.3,-0.255,-1.236,4.39,2.0,,0.0,0.0,
2025-08-15T09:12:39.058Z,4,GR86-028-89,-67.10000000000001,-0.253,-1.276,23.13,2.0,,0.0,0.0,
2025-08-15T09:12:39.101Z,4,GR86-028-89,-62.8,-0.265,-1.265,30.47,2.0,,0.0,0.0,
2025-08-15T09:12:39.145Z,4,GR86-028-89,-60.0,-0.179,-1.249,33.0,2.0,5962.0,0.0,0.0,
2025-08-15T09:12:39.187Z,4,GR86-028-89,-59.400000000000006,-0.168,-1.257,34.21,2.0,,0.0,0.0,108.32
2025-08-15T09:12:39.231Z,4,GR86-028-89,-57.5,-0.13,-1.264,36.45,2.0,,0.0,0.0,
2025-08-15T09:12:39.275Z,4,GR86-028-89,-50.0,0.185,-1.284,37.64,2.0,,0.0,0.0,
2025-08-15T09:12:39.318Z,4,GR86-028-89,-44.900000000000006,0.126,-1.302,38.75,2.0,,0.0,0.0,
2025-08-15T09:12:39.361Z,4,GR86-028-89,-41.5,0.192,-1.24,39.47,2.0,6368.0,0.0,0.0,
2025-08-15T09:12:39.405Z,4,GR86-028-89,-39.7,0.158,-1.268,39.68,2.0,,0.0,0.0,107.33
2025-08-15T09:12:39.447Z,4,GR86-028-89,-38.5,0.145,-1.27,39.61,2.0,,0.0,0.0,
2025-08-15T09:12:39.490Z,4,GR86-028-89,-39.400000000000006,0.116,-1.263,39.73,2.0,,0.0,0.0,
2025-08-15T09:12:39.535Z,4,GR86-028-89,-46.2,0.119,-1.241,39.64,2.0,,0.0,0.0,
2025-08-15T09:12:39.578Z,4,GR86-028-89,-51.400000000000006,0.124,-1.173,39.22,2.0,6197.0,0.0,0.0,
2025-08-15T09:12:39.621Z,4,GR86-028-89,-55.7,0.149,-1.039,39.16,2.0,,0.0,0.0,107.54
2025-08-15T09:12:39.665Z,4,GR86-028-89,-61.0,0.091,-1.12,38.57,2.0,,0.0,0.0,
2025-08-15T09:12:39.708Z,4,GR86-028-89,-67.8,0.159,-0.9,37.15,2.0,,0.0,0.0,
2025-08-15T09:12:39.751Z,4,GR86-028-89,-73.7,0.042,-0.842,36.84,2.0,,0.0,0.0,
2025-08-15T09:12:39.795Z,4,GR86-028-89,-77.9,0.223,-1.118,34.52,2.0,6213.0,0.0,0.0,
2025-08-15T09:12:39.838Z,4,GR86-028-89,-79.2,0.294,-1.109,32.730000000000004,2.0,,0.0,0.0,107.49
2025-08-15T09:12:39.881Z,4,GR86-028-89,-76.3,0.167,-1.073,31.42,2.0,,0.0,0.0,
2025-08-15T09:12:39.926Z,4,GR86-028-89,-69.10000000000001,0.116,-1.053,31.09,2.0,,0.0,0.0,
2025-08-15T09:12:39.969Z,4,GR86-028-89,-61.900000000000006,-0.086,-0.989,31.07,2.0,,0.0,0.0,
2025-08-15T09:12:40.012Z,4,GR86-028-89,-55.0,-0.223,-1.048,31.29,2.0,6345.0,0.0,0.0,
2025-08-15T09:12:40.058Z,4,GR86-028-89,-49.7,0.205,-1.174,31.51,2.0,,0.0,0.0,108.42
2025-08-15T09:12:40.101Z,4,GR86-028-89,-51.400000000000006,0.096,-1.036,31.87,2.0,,0.0,0.0,
2025-08-15T09:12:40.145Z,4,GR86-028-89,-55.0,-0.12,-1.087,32.01,2.0,,0.0,0.0,
2025-08-15T09:12:40.187Z,4,GR86-028-89,-57.7,-0.198,-1.096,32.15,2.0,,0.0,0.0,
2025-08-15T09:12:40.230Z,4,GR86-028-89,-60.3,-0.258,-1.089,32.55,2.0,6421.0,0.0,0.0,
2025-08-15T09:12:40.276Z,4,GR86-028-89,-65.4,0.135,-1.328,32.21,2.0,,0.0,0.0,110.16
2025-08-15T09:12:40.318Z,4,GR86-028-89,-68.5,0.101,-1.11,32.21,2.0,,0.0,0.0,
2025-08-15T09:12:40.361Z,4,GR86-028-89,-68.4,-0.119,-1.201,32.51,2.0,,0.0,0.0,
2025-08-15T09:12:40.405Z,4,GR86-028-89,-66.2,-0.179,-1.165,32.61,2.0,,0.0,0.0,
2025-08-15T09:12:40.448Z,4,GR86-028-89,-65.0,-0.189,-1.019,33.160000000000004,2.0,6521.0,0.0,0.0,
2025-08-15T09:12:40.491Z,4,GR86-028-89,-65.60000000000001,-0.085,-1.251,33.32,2.0,,0.0,0.0,110.32
2025-08-15T09:12:40.536Z,4,GR86-028-89,-66.0,-0.065,-1.363,33.26,2.0,,0.0,0.0,
2025-08-15T09:12:40.579Z,4,GR86-028-89,-66.7,0.013,-1.392,35.26,2.0,,0.0,0.0,
2025-08-15T09:12:40.622Z,4,GR86-028-89,-67.7,0.042,-1.312,41.37,2.0,,0.0,0.0,
2025-08-15T09:12:40.665Z,4,GR86-028-89,-69.10000000000001,0.067,-1.282,50.53,2.0,6652.0,0.0,0.0,
2025-08-15T09:12:40.708Z,4,GR86-028-89,-69.4,0.114,-1.155,56.66,2.0,,0.0,0.0,110.23
2025-08-15T09:12:40.751Z,4,GR86-028-89,-69.4,0.072,-1.198,92.33,2.0,,0.0,0.0,
2025-08-15T09:12:40.795Z,4,GR86-028-89,-69.5,0.129,-1.123,100.16,2.0,,0.0,0.0,
2025-08-15T09:12:40.838Z,4,GR86-028-89,-65.60000000000001,0.15,-1.208,100.18,2.0,,0.0,0.0,
2025-08-15T09:12:40.881Z,4,GR86-028-89,-59.7,0.117,-1.171,100.17,2.0,6472.0,0.0,0.0,
2025-08-15T09:12:40.926Z,4,GR86-028-89,-54.900000000000006,0.164,-1.126,100.19,2.0,,0.0,0.0,110.27
2025-08-15T09:12:40.969Z,4,GR86-028-89,-50.6,0.163,-1.179,100.2,2.0,,0.0,0.0,
2025-08-15T09:12:41.012Z,4,GR86-028-89,-45.5,0.171,-1.175,100.18,2.0,,0.0,0.0,
2025-08-15T09:12:41.058Z,4,GR86-028-89,-39.7,0.183,-1.181,100.23,2.0,,0.0,0.0,
2025-08-15T09:12:41.101Z,4,GR86-028-89,-37.1,0.17,-1.316,100.19,2.0,6672.0,0.0,0.0,
2025-08-15T09:12:41.145Z,4,GR86-028-89,-34.800000000000004,0.181,-1.327,100.2,2.0,,0.0,0.0,111.28
2025-08-15T09:12:41.187Z,4,GR86-028-89,-31.4,0.185,-1.306,100.19,2.0,,0.0,0.0,
2025-08-15T09:12:41.230Z,4,GR86-028-89,-25.200000000000003,0.183,-1.35,100.2,2.0,,0.0,0.0,
2025-08-15T09:12:41.275Z,4,GR86-028-89,-9.8,0.228,-1.166,100.18,2.0,,0.0,0.0,
2025-08-15T09:12:41.318Z,4,GR86-028-89,-5.6000000000000005,0.226,-1.096,100.17,2.0,6747.0,0.0,0.0,
2025-08-15T09:12:41.361Z,4,GR86-028-89,-9.4,0.18,-1.081,100.16,2.0,,0.0,0.0,112.78
2025-08-15T09:12:41.405Z,4,GR86-028-89,-19.0,0.179,-1.107,100.18,2.0,,0.0,0.0,
2025-08-15T09:12:41.447Z,4,GR86-028-89,-34.6,0.204,-1.148,100.21,2.0,,0.0,0.0,
2025-08-15T09:12:41.490Z,4,GR86-028-89,-49.7,0.158,-1.146,100.19,2.0,,0.0,0.0,
2025-08-15T09:12:41.536Z,4,GR86-028-89,-58.5,0.093,-1.172,100.16,2.0,6826.0,0.0,0.0,
2025-08-15T09:12:41.578Z,4,GR86-028-89,-57.3,0.098,-1.173,100.14,2.0,,0.0,0.0,113.01
2025-08-15T09:12:41.621Z,4,GR86-028-89,-54.2,0.155,-1.224,100.13,2.0,,0.0,0.0,
2025-08-15T09:12:41.665Z,4,GR86-028-89,-49.900000000000006,0.203,-1.142,100.14,2.0,,0.0,0.0,
2025-08-15T09:12:41.708Z,4,GR86-028-89,-45.2,0.207,-1.154,100.13,2.0,,0.0,0.0,
2025-08-15T09:12:41.751Z,4,GR86-028-89,-41.3,0.157,-1.108,100.11,2.0,7038.0,0.0,0.0,
2025-08-15T09:12:41.795Z,4,GR86-028-89,-36.7,0.171,-1.132,100.16,2.0,,0.0,0.0,113.35
2025-08-15T09:12:41.838Z,4,GR86-028-89,-36.0,0.228,-1.12,100.16,2.0,,0.0,0.0,
2025-08-15T09:12:41.881Z,4,GR86-028-89,-38.0,0.214,-1.136,100.14,2.0,,0.0,0.0,
2025-08-15T09:12:41.927Z,4,GR86-028-89,-39.1,0.235,-1.135,100.13,2.0,,0.0,0.0,
2025-08-15T09:12:41.969Z,4,GR86-028-89,-37.4,0.25,-1.18,100.13,2.0,7055.0,0.0,0.0,
2025-08-15T09:12:42.012Z,4,GR86-028-89,-34.300000000000004,0.236,-1.157,100.13,2.0,,0.0,0.0,115.62
2025-08-15T09:12:42.058Z,4,GR86-028-89,-31.4,0.238,-1.131,100.1,2.0,,0.0,0.0,
2025-08-15T09:12:42.101Z,4,GR86-028-89,-31.0,0.211,-1.095,100.09,2.0,,0.0,0.0,
2025-08-15T09:12:42.145Z,4,GR86-028-89,-31.0,0.208,-1.072,100.1,2.0,,0.0,0.0,
2025-08-15T09:12:42.187Z,4,GR86-028-89,-31.4,0.203,-1.102,100.07,2.0,6933.0,0.0,0.0,
2025-08-15T09:12:42.231Z,4,GR86-028-89,-32.1,0.212,-1.046,100.06,2.0,,0.0,0.0,116.98
2025-08-15T09:12:42.275Z,4,GR86-028-89,-32.0,0.164,-0.944,100.03,2.0,,0.0,0.0,
2025-08-15T09:12:42.318Z,4,GR86-028-89,-31.4,0.156,-0.935,100.0,2.0,,0.0,0.0,
2025-08-15T09:12:42.361Z,4,GR86-028-89,-32.4,0.094,-0.756,99.99,2.0,,0.0,0.0,
2025-08-15T09:12:42.405Z,4,GR86-028-89,-33.5,0.08,-0.6940000000000001,100.01,2.0,6933.0,0.0,0.0,
2025-08-15T09:12:42.447Z,4,GR86-028-89,-33.6,0.083,-0.535,99.99,2.0,,0.0,0.0,117.83
2025-08-15T09:12:42.490Z,4,GR86-028-89,-33.6,0.129,-0.629,99.98,2.0,,0.0,0.0,
2025-08-15T09:12:42.535Z,4,GR86-028-89,-32.4,0.221,-0.541,100.04,2.0,,0.0,0.0,
2025-08-15T09:12:42.578Z,4,GR86-028-89,-30.700000000000003,0.228,-0.724,100.02,2.0,,0.0,0.0,
2025-08-15T09:12:42.621Z,4,GR86-028-89,-28.0,0.225,-0.8310000000000001,100.0,2.0,6990.0,0.0,0.0,
2025-08-15T09:12:42.708Z,4,GR86-028-89,-25.1,0.222,-0.775,99.98,2.0,,0.0,0.0,119.49
2025-08-15T09:12:42.751Z,4,GR86-028-89,-25.3,0.164,-0.8250000000000001,100.01,2.0,,0.0,0.0,
2025-08-15T09:12:42.795Z,4,GR86-028-89,-25.0,0.194,-0.714,100.01,2.0,,0.0,0.0,
2025-08-15T09:12:42.838Z,4,GR86-028-89,-24.5,0.241,-0.796,100.01,2.0,7069.0,0.0,0.0,
2025-08-15T09:12:42.881Z,4,GR86-028-89,-23.9,0.23,-0.727,99.97,2.0,,0.0,0.0,120.91
2025-08-15T09:12:42.926Z,4,GR86-028-89,-22.9,0.18,-0.707,99.99,2.0,,0.0,0.0,
2025-08-15T09:12:42.969Z,4,GR86-028-89,-22.6,0.219,-0.632,100.01,2.0,,0.0,0.0,
2025-08-15T09:12:43.012Z,4,GR86-028-89,-21.9,0.214,-0.609,100.03,2.0,,0.0,0.0,
2025-08-15T09:12:43.055Z,4,GR86-028-89,-21.3,0.171,-0.481,100.0,2.0,7136.0,0.0,0.0,
2025-08-15T09:12:43.098Z,4,GR86-028-89,-20.5,0.235,-0.633,100.03,2.0,,0.0,0.0,122.74
2025-08-15T09:12:43.141Z,4,GR86-028-89,-19.4,0.19,-0.527,100.01,2.0,,0.0,0.0,
2025-08-15T09:12:43.186Z,4,GR86-028-89,-18.5,0.258,-0.539,99.97,2.0,,0.0,0.0,
2025-08-15T09:12:43.228Z,4,GR86-028-89,-17.6,0.206,-0.549,100.0,2.0,,0.0,0.0,
2025-08-15T09:12:43.271Z,4,GR86-028-89,-19.1,0.172,-0.425,100.02,2.0,7236.0,0.0,0.0,
2025-08-15T09:12:43.316Z,4,GR86-028-89,-19.1,0.184,-0.268,100.02,2.0,,0.0,0.0,125.96
2025-08-15T09:12:43.359Z,4,GR86-028-89,-17.0,0.075,-0.308,99.98,2.0,,0.0,0.0,
2025-08-15T09:12:43.402Z,4,GR86-028-89,-14.8,0.178,-0.387,99.99,2.0,,0.0,0.0,
2025-08-15T09:12:43.445Z,4,GR86-028-89,-14.3,0.051,-0.455,100.01,2.0,,0.0,0.0,
2025-08-15T09:12:43.488Z,4,GR86-028-89,-12.9,0.131,-0.346,99.99,2.0,7284.0,0.0,0.0,
2025-08-15T09:12:43.531Z,4,GR86-028-89,-8.700000000000001,0.063,-0.351,99.97,2.0,,0.0,0.0,127.1
2025-08-15T09:12:43.576Z,4,GR86-028-89,0.3,0.415,-0.377,99.98,3.0,,0.0,0.0,
2025-08-15T09:12:43.618Z,4,GR86-028-89,2.5,0.407,-0.279,100.01,3.0,,0.0,0.0,
2025-08-15T09:12:43.661Z,4,GR86-028-89,1.4,0.376,-0.412,99.98,3.0,,0.0,0.0,
2025-08-15T09:12:43.705Z,4,GR86-028-89,0.2,0.347,0.065,99.99,3.0,7304.0,0.0,0.0,
2025-08-15T09:12:43.748Z,4,GR86-028-89,1.2000000000000002,0.107,-0.038,99.98,3.0,,0.0,0.0,128.14
2025-08-15T09:12:43.791Z,4,GR86-028-89,4.3,0.151,-0.13,99.97,3.0,,0.0,0.0,
2025-08-15T09:12:43.836Z,4,GR86-028-89,6.6000000000000005,0.236,-0.013,99.97,3.0,,0.0,0.0,
2025-08-15T09:12:43.879Z,4,GR86-028-89,6.800000000000001,0.183,-0.037,99.97,3.0,,0.0,0.0,
2025-08-15T09:12:43.922Z,4,GR86-028-89,6.800000000000001,0.194,0.106,99.98,3.0,6070.0,0.0,0.0,
2025-08-15T09:12:43.965Z,4,GR86-028-89,6.800000000000001,0.16,0.122,99.99,3.0,,0.0,0.0,130.02
2025-08-15T09:12:44.008Z,4,GR86-028-89,6.9,0.165,0.111,100.01,3.0,,0.0,0.0,
2025-08-15T09:12:44.051Z,4,GR86-028-89,7.1000000000000005,0.206,0.161,100.01,3.0,,0.0,0.0,
2025-08-15T09:12:44.095Z,4,GR86-028-89,7.2,0.167,0.14,100.01,3.0,,0.0,0.0,
2025-08-15T09:12:44.138Z,4,GR86-028-89,7.2,0.202,0.146,100.01,3.0,6143.0,0.0,0.0,
2025-08-15T09:12:44.181Z,4,GR86-028-89,7.2,0.196,0.161,100.01,3.0,,0.0,0.0,131.55
2025-08-15T09:12:44.227Z,4,GR86-028-89,7.5,0.167,0.149,100.01,3.0,,0.0,0.0,
2025-08-15T09:12:44.269Z,4,GR86-028-89,7.7,0.189,0.159,100.01,3.0,,0.0,0.0,
2025-08-15T09:12:44.312Z,4,GR86-028-89,7.6,0.22,0.17,100.0,3.0,,0.0,0.0,
2025-08-15T09:12:44.358Z,4,GR86-028-89,7.4,0.205,0.156,99.99,3.0,6218.0,0.0,0.0,
2025-08-15T09:12:44.401Z,4,GR86-028-89,7.4,0.201,0.163,100.02,3.0,,0.0,0.0,132.83
2025-08-15T09:12:44.445Z,4,GR86-028-89,7.4,0.165,0.158,100.0,3.0,,0.0,0.0,
2025-08-15T09:12:44.487Z,4,GR86-028-89,7.300000000000001,0.17,0.171,99.99,3.0,,0.0,0.0,
2025-08-15T09:12:44.530Z,4,GR86-028-89,7.300000000000001,0.206,0.167,100.02,3.0,,0.0,0.0,
2025-08-15T09:12:44.575Z,4,GR86-028-89,7.2,0.207,0.151,100.0,3.0,6277.0,0.0,0.0,
2025-08-15T09:12:44.618Z,4,GR86-028-89,7.1000000000000005,0.221,0.155,100.02,3.0,,0.0,0.0,134.24
2025-08-15T09:12:44.661Z,4,GR86-028-89,7.1000000000000005,0.164,0.124,100.0,3.0,,0.0,0.0,
2025-08-15T09:12:44.705Z,4,GR86-028-89,7.0,0.155,0.141,99.98,3.0,,0.0,0.0,
2025-08-15T09:12:44.748Z,4,GR86-028-89,6.4,0.205,0.142,100.0,3.0,,0.0,0.0,
2025-08-15T09:12:44.791Z,4,GR86-028-89,5.800000000000001,0.222,0.127,100.02,3.0,6338.0,0.0,0.0,
2025-08-15T09:12:44.836Z,4,GR86-028-89,5.4,0.219,0.121,100.02,3.0,,0.0,0.0,135.59
2025-08-15T09:12:44.878Z,4,GR86-028-89,5.300000000000001,0.175,0.096,99.98,3.0,,0.0,0.0,
2025-08-15T09:12:44.921Z,4,GR86-028-89,5.2,0.147,0.101,99.99,3.0,,0.0,0.0,
2025-08-15T09:12:44.965Z,4,GR86-028-89,5.1000000000000005,0.171,0.106,100.01,3.0,,0.0,0.0,
2025-08-15T09:12:45.008Z,4,GR86-028-89,4.7,0.219,0.088,100.0,3.0,6402.0,0.0,0.0,
2025-08-15T09:12:45.051Z,4,GR86-028-89,4.4,0.193,0.074,100.02,3.0,,0.0,0.0,136.92000000000002
2025-08-15T09:12:45.096Z,4,GR86-028-89,4.1000000000000005,0.22,0.063,99.98,3.0,,0.0,0.0,
2025-08-15T09:12:45.139Z,4,GR86-028-89,3.5,0.175,0.05,100.01,3.0,,0.0,0.0,
2025-08-15T09:12:45.182Z,4,GR86-028-89,3.5,0.138,0.062,100.01,3.0,,0.0,0.0,
2025-08-15T09:12:45.227Z,4,GR86-028-89,3.4000000000000004,0.182,0.061,100.01,3.0,6464.0,0.0,0.0,
2025-08-15T09:12:45.269Z,4,GR86-028-89,3.0,0.225,0.05,99.97,3.0,,0.0,0.0,138.22
2025-08-15T09:12:45.312Z,4,GR86-028-89,2.9000000000000004,0.197,0.021,100.0,3.0,,0.0,0.0,
2025-08-15T09:12:45.355Z,4,GR86-028-89,2.0,0.206,0.005,100.02,3.0,,0.0,0.0,
2025-08-15T09:12:45.398Z,4,GR86-028-89,1.4,0.14,-0.002,99.98,3.0,,0.0,0.0,
2025-08-15T09:12:45.441Z,4,GR86-028-89,0.8,0.145,-0.006,100.01,3.0,6527.0,0.0,0.0,
2025-08-15T09:12:45.486Z,4,GR86-028-89,0.3,0.184,-0.007,99.97,3.0,,0.0,0.0,139.53
2025-08-15T09:12:45.528Z,4,GR86-028-89,0.2,0.214,-0.047,100.01,3.0,,0.0,0.0,
2025-08-15T09:12:45.571Z,4,GR86-028-89,0.2,0.165,-0.071,100.02,3.0,,0.0,0.0,
2025-08-15T09:12:45.615Z,4,GR86-028-89,0.3,0.203,-0.077,100.01,3.0,,0.0,0.0,
2025-08-15T09:12:45.658Z,4,GR86-028-89,0.5,0.173,-0.083,99.98,3.0,6588.0,0.0,0.0,
2025-08-15T09:12:45.701Z,4,GR86-028-89,0.5,0.157,-0.062,100.01,3.0,,0.0,0.0,140.85
2025-08-15T09:12:45.745Z,4,GR86-028-89,0.5,0.159,-0.047,100.03,3.0,,0.0,0.0,
2025-08-15T09:12:45.787Z,4,GR86-028-89,0.5,0.198,-0.057,100.0,3.0,,0.0,0.0,
2025-08-15T09:12:45.831Z,4,GR86-028-89,0.5,0.191,-0.073,100.01,3.0,,0.0,0.0,
2025-08-15T09:12:45.875Z,4,GR86-028-89,0.6000000000000001,0.212,-0.042,100.01,3.0,6648.0,0.0,0.0,
2025-08-15T09:12:45.918Z,4,GR86-028-89,1.1,0.181,-0.062,100.02,3.0,,0.0,0.0,143.46
2025-08-15T09:12:45.961Z,4,GR86-028-89,1.1,0.149,-0.057,99.98,3.0,,0.0,0.0,
2025-08-15T09:12:46.005Z,4,GR86-028-89,1.0,0.142,-0.036,99.98,3.0,,0.0,0.0,
2025-08-15T09:12:46.048Z,4,GR86-028-89,0.9,0.172,-0.015,100.02,3.0,,0.0,0.0,
2025-08-15T09:12:46.091Z,4,GR86-028-89,0.9,0.202,-0.033,100.02,3.0,6707.0,0.0,0.0,
2025-08-15T09:12:46.135Z,4,GR86-028-89,1.0,0.171,-0.016,100.01,3.0,,0.0,0.0,144.75
2025-08-15T09:12:46.178Z,4,GR86-028-89,0.9,0.19,-0.028,100.0,3.0,,0.0,0.0,
2025-08-15T09:12:46.221Z,4,GR86-028-89,0.7000000000000001,0.172,-0.042,99.98,3.0,,0.0,0.0,
2025-08-15T09:12:46.265Z,4,GR86-028-89,0.6000000000000001,0.147,-0.053,99.98,3.0,,0.0,0.0,
2025-08-15T09:12:46.308Z,4,GR86-028-89,0.5,0.16,-0.049,99.99,3.0,6762.0,0.0,0.0,
2025-08-15T09:12:46.351Z,4,GR86-028-89,0.2,0.172,-0.031,100.01,3.0,,0.0,0.0,145.93
2025-08-15T09:12:46.395Z,4,GR86-028-89,-0.1,0.149,-0.053,100.01,3.0,,0.0,0.0,
2025-08-15T09:12:46.438Z,4,GR86-028-89,-0.1,0.17,-0.032,100.0,3.0,,0.0,0.0,
2025-08-15T09:12:46.481Z,4,GR86-028-89,0.1,0.193,-0.073,100.01,3.0,,0.0,0.0,
2025-08-15T09:12:46.526Z,4,GR86-028-89,0.4,0.165,-0.091,100.01,3.0,6874.0,0.0,0.0,
2025-08-15T09:12:46.569Z,4,GR86-028-89,0.6000000000000001,0.145,-0.096,100.01,3.0,,0.0,0.0,147.09
2025-08-15T09:12:46.612Z,4,GR86-028-89,0.9,0.15,-0.074,99.99,3.0,,0.0,0.0,
2025-08-15T09:12:46.655Z,4,GR86-028-89,1.3,0.145,-0.099,100.0,3.0,,0.0,0.0,
2025-08-15T09:12:46.698Z,4,GR86-028-89,1.3,0.146,-0.058,100.04,3.0,,0.0,0.0,
2025-08-15T09:12:46.741Z,4,GR86-028-89,1.2000000000000002,0.162,-0.032,100.02,3.0,6922.0,0.0,0.0,
2025-08-15T09:12:46.786Z,4,GR86-028-89,1.3,0.198,-0.021,100.01,3.0,,0.0,0.0,148.24
2025-08-15T09:12:46.828Z,4,GR86-028-89,1.4,0.182,-0.032,100.04,3.0,,0.0,0.0,
2025-08-15T09:12:46.871Z,4,GR86-028-89,1.4,0.158,-0.042,100.01,3.0,,0.0,0.0,
2025-08-15T09:12:46.916Z,4,GR86-028-89,1.4,0.188,-0.033,100.0,3.0,,0.0,0.0,
2025-08-15T09:12:46.958Z,4,GR86-028-89,1.4,0.16,-0.051,99.98,3.0,6972.0,0.0,0.0,
2025-08-15T09:12:47.001Z,4,GR86-028-89,1.6,0.15,-0.044,99.98,3.0,,0.0,0.0,149.37
2025-08-15T09:12:47.045Z,4,GR86-028-89,1.6,0.153,-0.014,100.0,3.0,,0.0,0.0,
2025-08-15T09:12:47.087Z,4,GR86-028-89,1.6,0.168,0.004,99.97,3.0,,0.0,0.0,
2025-08-15T09:12:47.130Z,4,GR86-028-89,1.6,0.194,0.007,99.98,3.0,,0.0,0.0,
2025-08-15T09:12:47.176Z,4,GR86-028-89,1.7000000000000002,0.166,0.001,100.04,3.0,7020.0,0.0,0.0,
2025-08-15T09:12:47.218Z,4,GR86-028-89,1.8,0.192,0.009,100.01,3.0,,0.0,0.0,150.5
2025-08-15T09:12:47.261Z,4,GR86-028-89,2.0,0.187,-0.016,100.01,3.0,,0.0,0.0,
2025-08-15T09:12:47.305Z,4,GR86-028-89,2.0,0.179,-0.031,99.99,3.0,,0.0,0.0,
2025-08-15T09:12:47.348Z,4,GR86-028-89,2.0,0.14,-0.029,99.98,3.0,,0.0,0.0,
2025-08-15T09:12:47.391Z,4,GR86-028-89,2.0,0.137,-0.016,99.99,3.0,7087.0,0.0,0.0,
2025-08-15T09:12:47.436Z,4,GR86-028-89,1.6,0.153,-0.005,100.0,3.0,,0.0,0.0,151.67000000000002
2025-08-15T09:12:47.479Z,4,GR86-028-89,1.3,0.132,-0.024,100.01,3.0,,0.0,0.0,
2025-08-15T09:12:47.522Z,4,GR86-028-89,1.1,0.145,-0.001,99.98,3.0,,0.0,0.0,
2025-08-15T09:12:47.565Z,4,GR86-028-89,1.0,0.161,0.032,99.98,3.0,,0.0,0.0,
2025-08-15T09:12:47.608Z,4,GR86-028-89,1.0,0.184,0.02,100.02,3.0,7139.0,0.0,0.0,
2025-08-15T09:12:47.651Z,4,GR86-028-89,1.0,0.183,-0.001,100.02,3.0,,0.0,0.0,152.84
2025-08-15T09:12:47.695Z,4,GR86-028-89,0.8,0.173,0.004,100.01,3.0,,0.0,0.0,
2025-08-15T09:12:47.738Z,4,GR86-028-89,0.6000000000000001,0.196,-0.008,100.02,3.0,,0.0,0.0,
2025-08-15T09:12:47.781Z,4,GR86-028-89,0.5,0.186,-0.006,100.03,3.0,,0.0,0.0,
2025-08-15T09:12:47.827Z,4,GR86-028-89,0.4,0.155,-0.049,99.97,3.0,7190.0,0.0,0.0,
2025-08-15T09:12:47.869Z,4,GR86-028-89,0.1,0.134,-0.045,99.98,3.0,,0.0,0.0,153.97
2025-08-15T09:12:47.912Z,4,GR86-028-89,-0.1,0.125,-0.063,100.02,3.0,,0.0,0.0,
2025-08-15T09:12:47.955Z,4,GR86-028-89,-0.2,0.143,-0.072,99.99,3.0,,0.0,0.0,
2025-08-15T09:12:47.998Z,4,GR86-028-89,-0.2,0.122,-0.087,100.03,3.0,,0.0,0.0,
2025-08-15T09:12:48.041Z,4,GR86-028-89,-0.3,0.109,-0.06,99.98,3.0,7234.0,0.0,0.0,
2025-08-15T09:12:48.085Z,4,GR86-028-89,-0.3,0.143,-0.051,99.99,3.0,,0.0,0.0,155.12
2025-08-15T09:12:48.127Z,4,GR86-028-89,-0.3,0.171,-0.046,100.0,3.0,,0.0,0.0,
2025-08-15T09:12:48.170Z,4,GR86-028-89,-0.2,0.172,-0.039,100.03,3.0,,0.0,0.0,
2025-08-15T09:12:48.215Z,4,GR86-028-89,0.1,0.101,-0.069,100.0,3.0,,0.0,0.0,
2025-08-15T09:12:48.258Z,4,GR86-028-89,0.0,-0.039,-0.035,99.98,4.0,7289.0,0.0,0.0,
2025-08-15T09:12:48.301Z,4,GR86-028-89,-0.4,0.203,-0.017,99.99,4.0,,0.0,0.0,156.22
2025-08-15T09:12:48.345Z,4,GR86-028-89,-0.1,0.357,-0.092,100.0,4.0,,0.0,0.0,
2025-08-15T09:12:48.387Z,4,GR86-028-89,-0.1,0.285,-0.13,99.98,4.0,,0.0,0.0,
2025-08-15T09:12:48.430Z,4,GR86-028-89,-0.7000000000000001,0.024,0.004,99.98,4.0,,0.0,0.0,
2025-08-15T09:12:48.475Z,4,GR86-028-89,-0.7000000000000001,0.107,-0.148,99.97,4.0,6982.0,0.0,0.0,
2025-08-15T09:12:48.518Z,4,GR86-028-89,-0.4,0.208,-0.026,99.98,4.0,,0.0,0.0,158.33
2025-08-15T09:12:48.561Z,4,GR86-028-89,-0.4,0.171,-0.072,100.0,4.0,,0.0,0.0,
2025-08-15T09:12:48.605Z,4,GR86-028-89,-0.4,0.041,-0.119,99.97,4.0,,0.0,0.0,
2025-08-15T09:12:48.648Z,4,GR86-028-89,-0.6000000000000001,0.075,-0.03,99.98,4.0,,0.0,0.0,
2025-08-15T09:12:48.691Z,4,GR86-028-89,-0.8,0.124,-0.061,100.02,4.0,6279.0,0.0,0.0,
2025-08-15T09:12:48.735Z,4,GR86-028-89,-0.9,0.099,-0.061,100.0,4.0,,0.0,0.0,159.25
2025-08-15T09:12:48.778Z,4,GR86-028-89,-0.9,0.069,-0.072,100.0,4.0,,0.0,0.0,
2025-08-15T09:12:48.821Z,4,GR86-028-89,-1.0,0.09,-0.07,100.01,4.0,,0.0,0.0,
2025-08-15T09:12:48.865Z,4,GR86-028-89,-1.1,0.131,-0.06,100.0,4.0,,0.0,0.0,
2025-08-15T09:12:48.908Z,4,GR86-028-89,-1.4,0.144,-0.049,100.01,4.0,6271.0,0.0,0.0,
2025-08-15T09:12:48.951Z,4,GR86-028-89,-1.4,0.166,-0.073,99.98,4.0,,0.0,0.0,160.09
2025-08-15T09:12:48.995Z,4,GR86-028-89,-0.9,0.11,-0.083,99.99,4.0,,0.0,0.0,
2025-08-15T09:12:49.038Z,4,GR86-028-89,-1.2000000000000002,0.133,-0.083,99.98,4.0,,0.0,0.0,
2025-08-15T09:12:49.081Z,4,GR86-028-89,-1.9,0.164,-0.093,100.0,4.0,,0.0,0.0,
2025-08-15T09:12:49.126Z,4,GR86-028-89,-2.1,0.168,-0.092,100.0,4.0,6315.0,0.0,0.0,
2025-08-15T09:12:49.169Z,4,GR86-028-89,-2.1,0.152,-0.107,100.0,4.0,,0.0,0.0,160.97
2025-08-15T09:12:49.212Z,4,GR86-028-89,-2.1,0.127,-0.14,100.02,4.0,,0.0,0.0,
2025-08-15T09:12:49.255Z,4,GR86-028-89,-2.1,0.144,-0.102,100.01,4.0,,0.0,0.0,
2025-08-15T09:12:49.298Z,4,GR86-028-89,-2.2,0.186,-0.127,99.97,4.0,,0.0,0.0,
2025-08-15T09:12:49.341Z,4,GR86-028-89,-2.2,0.142,-0.123,100.01,4.0,6361.0,0.0,0.0,
2025-08-15T09:12:49.386Z,4,GR86-028-89,-1.9,0.13,-0.14,99.96,4.0,,0.0,0.0,161.95000000000002
2025-08-15T09:12:49.428Z,4,GR86-028-89,-1.7000000000000002,0.114,-0.142,100.01,4.0,,0.0,0.0,
2025-08-15T09:12:49.471Z,4,GR86-028-89,-1.6,0.08,-0.136,100.0,4.0,,0.0,0.0,
2025-08-15T09:12:49.515Z,4,GR86-028-89,-1.6,0.15,-0.118,100.01,4.0,,0.0,0.0,
2025-08-15T09:12:49.558Z,4,GR86-028-89,-1.6,0.14,-0.11,100.01,4.0,6390.0,0.0,0.0,
2025-08-15T09:12:49.601Z,4,GR86-028-89,-1.7000000000000002,0.108,-0.1,99.98,4.0,,0.0,0.0,162.89
2025-08-15T09:12:49.645Z,4,GR86-028-89,-1.7000000000000002,0.091,-0.114,100.01,4.0,,0.0,0.0,
2025-08-15T09:12:49.687Z,4,GR86-028-89,-1.7000000000000002,0.077,-0.1,99.98,4.0,,0.0,0.0,
2025-08-15T09:12:49.731Z,4,GR86-028-89,-1.8,0.078,-0.099,100.01,4.0,,0.0,0.0,
2025-08-15T09:12:49.775Z,4,GR86-028-89,-2.4000000000000004,0.138,-0.113,100.0,4.0,6423.0,0.0,0.0,
2025-08-15T09:12:49.818Z,4,GR86-028-89,-2.7,0.112,-0.125,100.0,4.0,,0.0,0.0,163.83
2025-08-15T09:12:49.861Z,4,GR86-028-89,-2.9000000000000004,0.079,-0.123,99.98,4.0,,0.0,0.0,
2025-08-15T09:12:49.905Z,4,GR86-028-89,-2.9000000000000004,0.085,-0.138,100.01,4.0,,0.0,0.0,
2025-08-15T09:12:49.948Z,4,GR86-028-89,-2.9000000000000004,0.081,-0.125,99.97,4.0,,0.0,0.0,
2025-08-15T09:12:49.991Z,4,GR86-028-89,-2.8000000000000003,0.097,-0.143,100.02,4.0,6472.0,0.0,0.0,
2025-08-15T09:12:50.035Z,4,GR86-028-89,-2.8000000000000003,0.115,-0.169,100.01,4.0,,0.0,0.0,164.79
2025-08-15T09:12:50.078Z,4,GR86-028-89,-2.8000000000000003,0.082,-0.163,100.0,4.0,,0.0,0.0,
2025-08-15T09:12:50.121Z,4,GR86-028-89,-2.8000000000000003,0.068,-0.14,99.98,4.0,,0.0,0.0,
2025-08-15T09:12:50.165Z,4,GR86-028-89,-2.7,0.094,-0.138,100.0,4.0,,0.0,0.0,
2025-08-15T09:12:50.208Z,4,GR86-028-89,-2.5,0.093,-0.14,100.03,4.0,6505.0,0.0,0.0,
2025-08-15T09:12:50.251Z,4,GR86-028-89,-2.4000000000000004,0.114,-0.158,99.99,4.0,,0.0,0.0,165.77
2025-08-15T09:12:50.295Z,4,GR86-028-89,-2.4000000000000004,0.094,-0.144,100.01,4.0,,0.0,0.0,
2025-08-15T09:12:50.338Z,4,GR86-028-89,-2.4000000000000004,0.079,-0.152,99.97,4.0,,0.0,0.0,
2025-08-15T09:12:50.381Z,4,GR86-028-89,-2.4000000000000004,0.067,-0.147,99.99,4.0,,0.0,0.0,
2025-08-15T09:12:50.427Z,4,GR86-028-89,-2.4000000000000004,0.087,-0.146,100.03,4.0,6547.0,0.0,0.0,
2025-08-15T09:12:50.469Z,4,GR86-028-89,-2.4000000000000004,0.078,-0.14,99.98,4.0,,0.0,0.0,166.74
2025-08-15T09:12:50.512Z,4,GR86-028-89,-2.5,0.105,-0.132,100.0,4.0,,0.0,0.0,
2025-08-15T09:12:50.555Z,4,GR86-028-89,-2.7,0.089,-0.139,100.01,4.0,,0.0,0.0,
2025-08-15T09:12:50.598Z,4,GR86-028-89,-2.7,0.073,-0.147,99.98,4.0,,0.0,0.0,
2025-08-15T09:12:50.641Z,4,GR86-028-89,-2.7,0.087,-0.152,99.99,4.0,6583.0,0.0,0.0,
2025-08-15T09:12:50.686Z,4,GR86-028-89,-2.8000000000000003,0.075,-0.144,100.02,4.0,,0.0,0.0,167.74
2025-08-15T09:12:50.728Z,4,GR86-028-89,-2.8000000000000003,0.087,-0.142,100.01,4.0,,0.0,0.0,
2025-08-15T09:12:50.771Z,4,GR86-028-89,-2.8000000000000003,0.106,-0.136,100.03,4.0,,0.0,0.0,
2025-08-15T09:12:50.815Z,4,GR86-028-89,-2.8000000000000003,0.097,-0.164,100.02,4.0,,0.0,0.0,
2025-08-15T09:12:50.858Z,4,GR86-028-89,-2.7,0.079,-0.164,100.0,4.0,6618.0,0.0,0.0,
2025-08-15T09:12:50.901Z,4,GR86-028-89,-2.6,0.076,-0.151,99.99,4.0,,0.0,0.0,168.71
2025-08-15T09:12:50.945Z,4,GR86-028-89,-2.6,0.065,-0.158,100.03,4.0,,0.0,0.0,
2025-08-15T09:12:50.987Z,4,GR86-028-89,-2.6,0.066,-0.14,99.98,4.0,,0.0,0.0,
2025-08-15T09:12:51.030Z,4,GR86-028-89,-2.6,0.092,-0.126,100.01,4.0,,0.0,0.0,
2025-08-15T09:12:51.076Z,4,GR86-028-89,-2.6,0.117,-0.129,99.99,4.0,6652.0,0.0,0.0,
2025-08-15T09:12:51.118Z,4,GR86-028-89,-2.5,0.089,-0.134,100.03,4.0,,0.0,0.0,170.70000000000002
2025-08-15T09:12:51.161Z,4,GR86-028-89,-2.4000000000000004,0.079,-0.139,100.02,4.0,,0.0,0.0,
2025-08-15T09:12:51.205Z,4,GR86-028-89,-2.3000000000000003,0.083,-0.138,100.01,4.0,,0.0,0.0,
2025-08-15T09:12:51.248Z,4,GR86-028-89,-2.3000000000000003,0.083,-0.141,100.01,4.0,,0.0,0.0,
2025-08-15T09:12:51.291Z,4,GR86-028-89,-2.3000000000000003,0.083,-0.145,100.02,4.0,6685.0,0.0,0.0,
2025-08-15T09:12:51.336Z,4,GR86-028-89,-2.3000000000000003,0.135,-0.139,100.0,4.0,,0.0,0.0,171.6
2025-08-15T09:12:51.379Z,4,GR86-028-89,-2.3000000000000003,0.124,-0.133,100.01,4.0,,0.0,0.0,
2025-08-15T09:12:51.422Z,4,GR86-028-89,-2.3000000000000003,0.124,-0.157,99.97,4.0,,0.0,0.0,
2025-08-15T09:12:51.465Z,4,GR86-028-89,-2.2,0.108,-0.152,99.99,4.0,,0.0,0.0,
2025-08-15T09:12:51.508Z,4,GR86-028-89,-2.2,0.102,-0.162,100.01,4.0,6730.0,0.0,0.0,
2025-08-15T09:12:51.551Z,4,GR86-028-89,-2.2,0.088,-0.152,100.01,4.0,,0.0,0.0,172.41
2025-08-15T09:12:51.595Z,4,GR86-028-89,-2.2,0.13,-0.149,100.02,4.0,,0.0,0.0,
2025-08-15T09:12:51.638Z,4,GR86-028-89,-1.9,0.135,-0.131,100.03,4.0,,0.0,0.0,
2025-08-15T09:12:51.681Z,4,GR86-028-89,-1.7000000000000002,0.128,-0.132,100.01,4.0,,0.0,0.0,
2025-08-15T09:12:51.727Z,4,GR86-028-89,-1.6,0.134,-0.124,99.98,4.0,6797.0,0.0,0.0,
2025-08-15T09:12:51.769Z,4,GR86-028-89,-1.4,0.121,-0.137,100.0,4.0,,0.0,0.0,173.41
2025-08-15T09:12:51.812Z,4,GR86-028-89,-1.4,0.137,-0.147,100.0,4.0,,0.0,0.0,
2025-08-15T09:12:51.855Z,4,GR86-028-89,-1.4,0.124,-0.116,100.0,4.0,,0.0,0.0,
2025-08-15T09:12:51.898Z,4,GR86-028-89,-1.5,0.091,-0.099,100.0,4.0,,0.0,0.0,
2025-08-15T09:12:51.941Z,4,GR86-028-89,-1.5,0.133,-0.114,100.0,4.0,6844.0,0.0,0.0,
2025-08-15T09:12:51.985Z,4,GR86-028-89,-1.5,0.107,-0.104,100.0,4.0,,0.0,0.0,174.4
2025-08-15T09:12:52.027Z,4,GR86-028-89,-1.4,0.133,-0.106,99.98,4.0,,0.0,0.0,
2025-08-15T09:12:52.070Z,4,GR86-028-89,-1.3,0.12,-0.096,99.98,4.0,,0.0,0.0,
2025-08-15T09:12:52.115Z,4,GR86-028-89,-1.2000000000000002,0.074,-0.081,100.01,4.0,,0.0,0.0,
2025-08-15T09:12:52.158Z,4,GR86-028-89,-1.2000000000000002,0.112,-0.1,100.0,4.0,6875.0,0.0,0.0,
2025-08-15T09:12:52.201Z,4,GR86-028-89,-1.1,0.084,-0.096,100.01,4.0,,0.0,0.0,175.41
2025-08-15T09:12:52.245Z,4,GR86-028-89,-1.1,0.103,-0.082,100.0,4.0,,0.0,0.0,
2025-08-15T09:12:52.287Z,4,GR86-028-89,-1.1,0.105,-0.097,99.99,4.0,,0.0,0.0,
2025-08-15T09:12:52.330Z,4,GR86-028-89,-1.0,0.095,-0.091,99.98,4.0,,0.0,0.0,
2025-08-15T09:12:52.375Z,4,GR86-028-89,-0.9,0.11,-0.132,100.01,4.0,6913.0,0.0,0.0,
2025-08-15T09:12:52.418Z,4,GR86-028-89,-0.9,0.106,-0.13,99.99,4.0,,0.0,0.0,176.26
2025-08-15T09:12:52.461Z,4,GR86-028-89,-0.9,0.122,-0.118,100.01,4.0,,0.0,0.0,
2025-08-15T09:12:52.505Z,4,GR86-028-89,-0.9,0.102,-0.132,100.0,4.0,,0.0,0.0,
2025-08-15T09:12:52.548Z,4,GR86-028-89,-0.7000000000000001,0.111,-0.125,99.97,4.0,,0.0,0.0,
2025-08-15T09:12:52.591Z,4,GR86-028-89,-0.7000000000000001,0.103,-0.104,100.0,4.0,6961.0,0.0,0.0,
2025-08-15T09:12:52.678Z,4,GR86-028-89,-0.6000000000000001,0.125,-0.093,100.03,4.0,,0.0,0.0,177.19
2025-08-15T09:12:52.721Z,4,GR86-028-89,-0.7000000000000001,0.108,-0.075,100.0,4.0,,0.0,0.0,
2025-08-15T09:12:52.808Z,4,GR86-028-89,-0.8,0.114,-0.093,100.02,4.0,6987.0,0.0,0.0,
2025-08-15T09:12:52.851Z,4,GR86-028-89,-0.8,0.126,-0.071,99.98,4.0,,0.0,0.0,178.27
2025-08-15T09:12:52.895Z,4,GR86-028-89,-1.2000000000000002,0.091,-0.066,99.97,4.0,,0.0,0.0,
2025-08-15T09:12:52.938Z,4,GR86-028-89,-1.3,0.095,-0.078,99.99,4.0,,0.0,0.0,
2025-08-15T09:12:52.981Z,4,GR86-028-89,-1.3,0.078,-0.102,100.01,4.0,,0.0,0.0,
2025-08-15T09:12:53.027Z,4,GR86-028-89,-1.2000000000000002,0.099,-0.087,100.0,4.0,7019.0,0.0,0.0,
2025-08-15T09:12:53.069Z,4,GR86-028-89,-1.2000000000000002,0.085,-0.098,100.02,4.0,,0.0,0.0,179.13
2025-08-15T09:12:53.112Z,4,GR86-028-89,-1.2000000000000002,0.106,-0.098,100.03,4.0,,0.0,0.0,
2025-08-15T09:12:53.155Z,4,GR86-028-89,-1.1,0.117,-0.103,99.97,4.0,,0.0,0.0,
2025-08-15T09:12:53.198Z,4,GR86-028-89,-1.2000000000000002,0.088,-0.109,100.0,4.0,,0.0,0.0,
2025-08-15T09:12:53.241Z,4,GR86-028-89,-1.2000000000000002,0.107,-0.119,99.98,4.0,7060.0,0.0,0.0,
2025-08-15T09:12:53.286Z,4,GR86-028-89,-1.2000000000000002,0.113,-0.124,100.0,4.0,,0.0,0.0,180.05
2025-08-15T09:12:53.328Z,4,GR86-028-89,-1.3,0.112,-0.13,100.02,4.0,,0.0,0.0,
2025-08-15T09:12:53.371Z,4,GR86-028-89,-1.4,0.092,-0.142,100.02,4.0,,0.0,0.0,
2025-08-15T09:12:53.415Z,4,GR86-028-89,-1.3,0.106,-0.129,99.99,4.0,,0.0,0.0,
2025-08-15T09:12:53.458Z,4,GR86-028-89,-1.3,0.108,-0.099,99.98,4.0,7094.0,0.0,0.0,
2025-08-15T09:12:53.501Z,4,GR86-028-89,-1.3,0.105,-0.1,100.01,4.0,,0.0,0.0,180.86
2025-08-15T09:12:53.545Z,4,GR86-028-89,-1.2000000000000002,0.104,-0.097,100.02,4.0,,0.0,0.0,
2025-08-15T09:12:53.587Z,4,GR86-028-89,-0.7000000000000001,0.092,-0.089,100.01,4.0,,0.0,0.0,
2025-08-15T09:12:53.631Z,4,GR86-028-89,-0.3,0.098,-0.095,100.01,4.0,,0.0,0.0,
2025-08-15T09:12:53.675Z,4,GR86-028-89,-0.2,0.093,-0.097,100.02,4.0,7135.0,0.0,0.0,
2025-08-15T09:12:53.718Z,4,GR86-028-89,-0.2,0.099,-0.086,100.01,4.0,,0.0,0.0,182.68
2025-08-15T09:12:53.761Z,4,GR86-028-89,-0.1,0.093,-0.073,99.98,4.0,,0.0,0.0,
2025-08-15T09:12:53.805Z,4,GR86-028-89,-0.1,0.092,-0.063,99.99,4.0,,0.0,0.0,
2025-08-15T09:12:53.848Z,4,GR86-028-89,-0.2,0.092,-0.039,100.0,4.0,,0.0,0.0,
2025-08-15T09:12:53.891Z,4,GR86-028-89,-0.2,0.076,-0.064,100.02,4.0,7166.0,0.0,0.0,
2025-08-15T09:12:53.935Z,4,GR86-028-89,-0.2,0.086,-0.04,100.0,4.0,,0.0,0.0,183.54
2025-08-15T09:12:53.978Z,4,GR86-028-89,-0.2,0.097,-0.065,100.03,4.0,,0.0,0.0,
2025-08-15T09:12:54.021Z,4,GR86-028-89,-0.2,0.085,-0.062,100.03,4.0,,0.0,0.0,
2025-08-15T09:12:54.065Z,4,GR86-028-89,-0.3,0.1,-0.064,99.97,4.0,,0.0,0.0,
2025-08-15T09:12:54.108Z,4,GR86-028-89,-0.4,0.091,-0.069,99.98,4.0,7196.0,0.0,0.0,
2025-08-15T09:12:54.151Z,4,GR86-028-89,-0.5,0.082,-0.075,100.02,4.0,,0.0,0.0,184.33
2025-08-15T09:12:54.195Z,4,GR86-028-89,-0.6000000000000001,0.102,-0.08,99.99,4.0,,0.0,0.0,
2025-08-15T09:12:54.238Z,4,GR86-028-89,-0.5,0.09,-0.085,100.04,4.0,,0.0,0.0,
2025-08-15T09:12:54.281Z,4,GR86-028-89,-0.3,0.109,-0.069,100.0,4.0,,0.0,0.0,
2025-08-15T09:12:54.326Z,4,GR86-028-89,-0.3,0.089,-0.101,99.99,4.0,7257.0,0.0,0.0,
2025-08-15T09:12:54.369Z,4,GR86-028-89,-0.4,-0.107,-0.096,99.99,5.0,,0.0,0.0,185.1
2025-08-15T09:12:54.412Z,4,GR86-028-89,-0.4,0.008,-0.036,100.01,5.0,,0.0,0.0,
2025-08-15T09:12:54.455Z,4,GR86-028-89,0.6000000000000001,0.127,-0.166,99.96,5.0,,0.0,0.0,
2025-08-15T09:12:54.498Z,4,GR86-028-89,0.1,0.007,-0.049,99.98,5.0,,0.0,0.0,
2025-08-15T09:12:54.541Z,4,GR86-028-89,-0.3,-0.056,-0.037,99.99,5.0,6186.0,0.0,0.0,
2025-08-15T09:12:54.586Z,4,GR86-028-89,0.3,0.124,-0.113,100.0,5.0,,0.0,0.0,185.86
2025-08-15T09:12:54.628Z,4,GR86-028-89,0.7000000000000001,0.079,0.001,100.0,5.0,,0.0,0.0,
2025-08-15T09:12:54.671Z,4,GR86-028-89,0.7000000000000001,0.038,-0.023,100.0,5.0,,0.0,0.0,
2025-08-15T09:12:54.716Z,4,GR86-028-89,0.6000000000000001,0.102,-0.03,99.98,5.0,,0.0,0.0,
2025-08-15T09:12:54.758Z,4,GR86-028-89,0.4,0.107,-0.013,100.01,5.0,6319.0,0.0,0.0,
2025-08-15T09:12:54.801Z,4,GR86-028-89,0.4,0.089,-0.056,99.99,5.0,,0.0,0.0,186.54
2025-08-15T09:12:54.845Z,4,GR86-028-89,0.7000000000000001,0.072,-0.016,99.97,5.0,,0.0,0.0,
2025-08-15T09:12:54.887Z,4,GR86-028-89,0.8,0.088,0.001,100.01,5.0,,0.0,0.0,
2025-08-15T09:12:54.930Z,4,GR86-028-89,0.8,0.092,-0.038,100.0,5.0,,0.0,0.0,
2025-08-15T09:12:54.976Z,4,GR86-028-89,0.8,0.085,-0.031,100.01,5.0,6362.0,0.0,0.0,
2025-08-15T09:12:55.018Z,4,GR86-028-89,0.7000000000000001,0.088,-0.029,100.0,5.0,,0.0,0.0,187.2
2025-08-15T09:12:55.061Z,4,GR86-028-89,0.5,0.094,-0.031,99.98,5.0,,0.0,0.0,
2025-08-15T09:12:55.105Z,4,GR86-028-89,0.4,0.094,-0.029,100.03,5.0,,0.0,0.0,
2025-08-15T09:12:55.148Z,4,GR86-028-89,0.7000000000000001,0.093,-0.049,99.98,5.0,,0.0,0.0,
2025-08-15T09:12:55.191Z,4,GR86-028-89,0.7000000000000001,0.103,-0.049,100.0,5.0,6383.0,0.0,0.0,
2025-08-15T09:12:55.236Z,4,GR86-028-89,-0.1,0.049,-0.051,100.0,5.0,,0.0,0.0,187.89
2025-08-15T09:12:55.279Z,4,GR86-028-89,-0.4,0.048,-0.06,100.02,5.0,,0.0,0.0,
2025-08-15T09:12:55.322Z,4,GR86-028-89,-0.5,0.041,-0.059,100.0,5.0,,0.0,0.0,
2025-08-15T09:12:55.365Z,4,GR86-028-89,-0.5,0.058,-0.065,99.97,5.0,,0.0,0.0,
2025-08-15T09:12:55.408Z,4,GR86-028-89,-0.4,0.057,-0.062,100.02,5.0,6403.0,0.0,0.0,
2025-08-15T09:12:55.451Z,4,GR86-028-89,-0.1,0.055,-0.061,99.97,5.0,,0.0,0.0,188.69
2025-08-15T09:12:55.495Z,4,GR86-028-89,0.2,0.075,-0.076,100.0,5.0,,0.0,0.0,
2025-08-15T09:12:55.538Z,4,GR86-028-89,0.2,0.077,-0.079,99.99,5.0,,0.0,0.0,
2025-08-15T09:12:55.581Z,4,GR86-028-89,0.0,0.065,-0.077,100.01,5.0,,0.0,0.0,
2025-08-15T09:12:55.627Z,4,GR86-028-89,-0.1,0.048,-0.071,100.0,5.0,6427.0,0.0,0.0,
2025-08-15T09:12:55.669Z,4,GR86-028-89,-0.1,0.044,-0.071,100.02,5.0,,0.0,0.0,189.44
2025-08-15T09:12:55.712Z,4,GR86-028-89,0.0,0.049,-0.066,100.0,5.0,,0.0,0.0,
2025-08-15T09:12:55.755Z,4,GR86-028-89,0.4,0.099,-0.065,100.01,5.0,,0.0,0.0,
2025-08-15T09:12:55.798Z,4,GR86-028-89,0.5,0.096,-0.061,100.0,5.0,,0.0,0.0,
2025-08-15T09:12:55.841Z,4,GR86-028-89,0.6000000000000001,0.085,-0.049,100.01,5.0,6452.0,0.0,0.0,
2025-08-15T09:12:55.885Z,4,GR86-028-89,0.7000000000000001,0.089,-0.045,99.98,5.0,,0.0,0.0,190.08
2025-08-15T09:12:55.927Z,4,GR86-028-89,0.8,0.077,-0.041,100.03,5.0,,0.0,0.0,
2025-08-15T09:12:55.970Z,4,GR86-028-89,0.8,0.065,-0.024,99.98,5.0,,0.0,0.0,
2025-08-15T09:12:56.015Z,4,GR86-028-89,1.0,0.09,-0.034,99.98,5.0,,0.0,0.0,
2025-08-15T09:12:56.058Z,4,GR86-028-89,1.2000000000000002,0.097,-0.02,100.01,5.0,6476.0,0.0,0.0,
2025-08-15T09:12:56.101Z,4,GR86-028-89,1.2000000000000002,0.1,-0.028,99.98,5.0,,0.0,0.0,190.77
2025-08-15T09:12:56.145Z,4,GR86-028-89,1.2000000000000002,0.101,-0.025,99.98,5.0,,0.0,0.0,
2025-08-15T09:12:56.187Z,4,GR86-028-89,1.2000000000000002,0.094,-0.022,100.02,5.0,,0.0,0.0,
2025-08-15T09:12:56.230Z,4,GR86-028-89,1.2000000000000002,0.089,-0.027,99.98,5.0,,0.0,0.0,
2025-08-15T09:12:56.275Z,4,GR86-028-89,1.3,0.066,-0.033,99.98,5.0,6493.0,0.0,0.0,
2025-08-15T09:12:56.318Z,4,GR86-028-89,1.4,0.086,-0.033,100.0,5.0,,0.0,0.0,192.08
2025-08-15T09:12:56.361Z,4,GR86-028-89,1.4,0.078,-0.016,99.98,5.0,,0.0,0.0,
2025-08-15T09:12:56.405Z,4,GR86-028-89,1.5,0.094,-0.01,100.04,5.0,,0.0,0.0,
2025-08-15T09:12:56.448Z,4,GR86-028-89,1.6,0.1,0.004,99.97,5.0,,0.0,0.0,
2025-08-15T09:12:56.491Z,4,GR86-028-89,1.7000000000000002,0.106,-0.026,99.99,5.0,6521.0,0.0,0.0,
2025-08-15T09:12:56.536Z,4,GR86-028-89,1.6,0.045,-0.015,100.0,5.0,,0.0,0.0,192.82
2025-08-15T09:12:56.578Z,4,GR86-028-89,1.5,0.055,-0.015,99.98,5.0,,0.0,0.0,
2025-08-15T09:12:56.621Z,4,GR86-028-89,1.4,0.08,-0.019,100.03,5.0,,0.0,0.0,
2025-08-15T09:12:56.665Z,4,GR86-028-89,1.4,0.08,-0.037,99.98,5.0,,0.0,0.0,
2025-08-15T09:12:56.708Z,4,GR86-028-89,1.4,0.083,-0.042,99.99,5.0,6543.0,0.0,0.0,
2025-08-15T09:12:56.751Z,4,GR86-028-89,1.4,0.091,-0.035,100.0,5.0,,0.0,0.0,193.45
2025-08-15T09:12:56.795Z,4,GR86-028-89,1.4,0.041,-0.018,99.97,5.0,,0.0,0.0,
2025-08-15T09:12:56.838Z,4,GR86-028-89,1.7000000000000002,0.052,-0.001,100.01,5.0,,0.0,0.0,
2025-08-15T09:12:56.881Z,4,GR86-028-89,2.0,0.045,-0.014,100.02,5.0,,0.0,0.0,
2025-08-15T09:12:56.927Z,4,GR86-028-89,2.1,0.059,-0.029,99.98,5.0,6586.0,0.0,0.0,
2025-08-15T09:12:56.969Z,4,GR86-028-89,2.1,0.082,-0.015,100.0,5.0,,0.0,0.0,194.21
2025-08-15T09:12:57.012Z,4,GR86-028-89,1.9,0.084,-0.002,99.97,5.0,,0.0,0.0,
2025-08-15T09:12:57.098Z,4,GR86-028-89,1.9,0.044,-0.018,99.97,5.0,,0.0,0.0,
2025-08-15T09:12:57.186Z,4,GR86-028-89,1.7000000000000002,0.04,-0.024,100.0,5.0,6606.0,0.0,0.0,194.84
2025-08-15T09:12:57.228Z,4,GR86-028-89,1.5,0.053,-0.007,100.03,5.0,,0.0,0.0,
2025-08-15T09:12:57.271Z,4,GR86-028-89,1.6,0.078,-0.004,99.97,5.0,,0.0,0.0,
2025-08-15T09:12:57.358Z,4,GR86-028-89,1.7000000000000002,0.048,-0.01,99.99,5.0,6628.0,0.0,0.0,
2025-08-15T09:12:57.401Z,4,GR86-028-89,1.7000000000000002,0.051,0.0,100.0,5.0,,0.0,0.0,195.45
2025-08-15T09:12:57.445Z,4,GR86-028-89,1.8,0.044,-0.001,99.97,5.0,,0.0,0.0,
2025-08-15T09:12:57.487Z,4,GR86-028-89,1.9,0.071,-0.011,99.97,5.0,,0.0,0.0,
2025-08-15T09:12:57.531Z,4,GR86-028-89,2.0,0.085,0.0,100.01,5.0,,0.0,0.0,
2025-08-15T09:12:57.575Z,4,GR86-028-89,2.0,0.049,0.031,99.98,5.0,6654.0,0.0,0.0,
2025-08-15T09:12:57.618Z,4,GR86-028-89,2.2,0.037,0.051,99.98,5.0,,0.0,0.0,196.04
2025-08-15T09:12:57.661Z,4,GR86-028-89,2.4000000000000004,0.048,0.033,99.99,5.0,,0.0,0.0,
2025-08-15T09:12:57.705Z,4,GR86-028-89,2.7,0.061,-0.001,100.01,5.0,,0.0,0.0,
2025-08-15T09:12:57.748Z,4,GR86-028-89,2.7,0.051,0.012,99.99,5.0,,0.0,0.0,
2025-08-15T09:12:57.791Z,4,GR86-028-89,2.7,0.084,0.007,100.04,5.0,6670.0,0.0,0.0,
2025-08-15T09:12:57.835Z,4,GR86-028-89,2.8000000000000003,0.044,0.038,100.0,5.0,,0.0,0.0,196.67
2025-08-15T09:12:57.878Z,4,GR86-028-89,2.9000000000000004,0.039,0.031,100.01,5.0,,0.0,0.0,
2025-08-15T09:12:57.921Z,4,GR86-028-89,3.0,0.047,0.028,100.0,5.0,,0.0,0.0,
2025-08-15T09:12:57.965Z,4,GR86-028-89,3.1,0.067,0.013,100.01,5.0,,0.0,0.0,
2025-08-15T09:12:58.008Z,4,GR86-028-89,3.2,0.091,0.016,100.01,5.0,6686.0,0.0,0.0,
2025-08-15T09:12:58.051Z,4,GR86-028-89,3.4000000000000004,0.086,0.027,100.0,5.0,,0.0,0.0,197.25
2025-08-15T09:12:58.096Z,4,GR86-028-89,3.8,0.047,0.059,99.97,5.0,,0.0,0.0,
2025-08-15T09:12:58.138Z,4,GR86-028-89,4.0,0.057,0.046,99.99,5.0,,0.0,0.0,
2025-08-15T09:12:58.226Z,4,GR86-028-89,4.2,0.067,0.063,100.01,5.0,6709.0,0.0,0.0,
2025-08-15T09:12:58.269Z,4,GR86-028-89,4.3,0.087,0.066,99.98,5.0,,0.0,0.0,197.78
2025-08-15T09:12:58.312Z,4,GR86-028-89,4.3,0.085,0.075,99.99,5.0,,0.0,0.0,
2025-08-15T09:12:58.355Z,4,GR86-028-89,4.4,0.058,0.068,100.0,5.0,,0.0,0.0,
2025-08-15T09:12:58.398Z,4,GR86-028-89,4.4,0.074,0.067,100.01,5.0,,0.0,0.0,
2025-08-15T09:12:58.441Z,4,GR86-028-89,4.4,0.073,0.093,100.03,5.0,6739.0,0.0,0.0,
2025-08-15T09:12:58.485Z,4,GR86-028-89,4.7,0.086,0.1,100.0,5.0,,0.0,0.0,198.45
2025-08-15T09:12:58.528Z,4,GR86-028-89,5.1000000000000005,0.077,0.132,100.0,5.0,,0.0,0.0,
2025-08-15T09:12:58.571Z,4,GR86-028-89,5.800000000000001,0.068,0.125,100.0,5.0,,0.0,0.0,
2025-08-15T09:12:58.615Z,4,GR86-028-89,6.300000000000001,0.046,0.152,99.97,5.0,,0.0,0.0,
2025-08-15T09:12:58.658Z,4,GR86-028-89,6.4,0.076,0.176,100.0,5.0,6753.0,0.0,0.0,
2025-08-15T09:12:58.701Z,4,GR86-028-89,6.5,0.091,0.165,100.01,5.0,,0.0,0.0,199.09
2025-08-15T09:12:58.745Z,4,GR86-028-89,6.5,0.081,0.193,99.99,5.0,,0.0,0.0,
2025-08-15T09:12:58.787Z,4,GR86-028-89,6.5,0.071,0.211,99.97,5.0,,0.0,0.0,
2025-08-15T09:12:58.830Z,4,GR86-028-89,6.5,0.064,0.209,100.0,5.0,,0.0,0.0,
2025-08-15T09:12:58.876Z,4,GR86-028-89,6.5,0.088,0.19,99.98,5.0,6786.0,0.0,0.0,
2025-08-15T09:12:58.918Z,4,GR86-028-89,6.5,0.076,0.196,99.99,5.0,,0.0,0.0,200.52
2025-08-15T09:12:58.961Z,4,GR86-028-89,6.4,0.076,0.175,100.01,5.0,,0.0,0.0,
2025-08-15T09:12:59.005Z,4,GR86-028-89,6.5,0.056,0.187,100.02,5.0,,0.0,0.0,
2025-08-15T09:12:59.048Z,4,GR86-028-89,6.5,0.059,0.19,100.0,5.0,,0.0,0.0,
2025-08-15T09:12:59.091Z,4,GR86-028-89,6.7,0.064,0.19,99.98,5.0,6799.0,0.0,0.0,
2025-08-15T09:12:59.136Z,4,GR86-028-89,6.7,0.083,0.178,100.0,5.0,,0.0,0.0,201.16
2025-08-15T09:12:59.179Z,4,GR86-028-89,6.7,0.059,0.198,99.98,5.0,,0.0,0.0,
2025-08-15T09:12:59.222Z,4,GR86-028-89,6.7,0.074,0.189,99.97,5.0,,0.0,0.0,
2025-08-15T09:12:59.265Z,4,GR86-028-89,6.4,0.052,0.177,100.01,5.0,,0.0,0.0,
2025-08-15T09:12:59.308Z,4,GR86-028-89,6.1000000000000005,0.061,0.154,100.0,5.0,6823.0,0.0,0.0,
2025-08-15T09:12:59.351Z,4,GR86-028-89,6.1000000000000005,0.052,0.138,100.04,5.0,,0.0,0.0,201.84
2025-08-15T09:12:59.395Z,4,GR86-028-89,6.1000000000000005,0.063,0.13,99.99,5.0,,0.0,0.0,
2025-08-15T09:12:59.438Z,4,GR86-028-89,6.1000000000000005,0.064,0.148,100.0,5.0,,0.0,0.0,
2025-08-15T09:12:59.481Z,4,GR86-028-89,6.0,0.05,0.135,100.03,5.0,,0.0,0.0,
2025-08-15T09:12:59.527Z,4,GR86-028-89,5.9,0.056,0.113,100.02,5.0,6872.0,0.0,0.0,
2025-08-15T09:12:59.569Z,4,GR86-028-89,5.9,0.077,0.115,100.0,5.0,,0.0,0.0,202.37
2025-08-15T09:12:59.612Z,4,GR86-028-89,5.800000000000001,0.075,0.106,99.97,5.0,,0.0,0.0,
2025-08-15T09:12:59.655Z,4,GR86-028-89,5.7,0.039,0.138,100.0,5.0,,0.0,0.0,
2025-08-15T09:12:59.698Z,4,GR86-028-89,5.7,0.055,0.093,100.01,5.0,,0.0,0.0,
2025-08-15T09:12:59.741Z,4,GR86-028-89,5.6000000000000005,0.07,0.11,99.98,5.0,6884.0,0.0,0.0,
2025-08-15T09:12:59.785Z,4,GR86-028-89,5.5,0.07,0.092,99.98,5.0,,0.0,0.0,203.02
2025-08-15T09:12:59.827Z,4,GR86-028-89,5.5,0.063,0.08,99.99,5.0,,0.0,0.0,
2025-08-15T09:12:59.870Z,4,GR86-028-89,5.5,0.065,0.095,99.98,5.0,,0.0,0.0,
2025-08-15T09:12:59.916Z,4,GR86-028-89,5.5,0.059,0.1,100.02,5.0,,0.0,0.0,
2025-08-15T09:12:59.958Z,4,GR86-028-89,5.5,0.067,0.096,100.0,5.0,6908.0,0.0,0.0,
2025-08-15T09:13:00.045Z,4,GR86-028-89,5.5,0.058,0.102,99.98,5.0,,0.0,0.0,203.65
2025-08-15T09:13:00.087Z,4,GR86-028-89,5.5,0.049,0.117,99.97,5.0,,0.0,0.0,
2025-08-15T09:13:00.130Z,4,GR86-028-89,5.5,0.047,0.114,99.98,5.0,,0.0,0.0,
2025-08-15T09:13:00.175Z,4,GR86-028-89,5.800000000000001,0.058,0.105,100.02,5.0,6929.0,0.0,0.0,
2025-08-15T09:13:00.218Z,4,GR86-028-89,6.2,0.067,0.131,100.02,5.0,,0.0,0.0,204.17
2025-08-15T09:13:00.261Z,4,GR86-028-89,6.4,0.062,0.153,99.98,5.0,,0.0,0.0,
2025-08-15T09:13:00.305Z,4,GR86-028-89,6.5,0.051,0.177,99.99,5.0,,0.0,0.0,
2025-08-15T09:13:00.348Z,4,GR86-028-89,6.5,0.065,0.161,100.02,5.0,,0.0,0.0,
2025-08-15T09:13:00.436Z,4,GR86-028-89,5.4,0.054,0.148,100.01,5.0,6946.0,0.0,0.0,204.76
2025-08-15T09:13:00.478Z,4,GR86-028-89,5.300000000000001,0.048,0.101,100.04,5.0,,0.0,0.0,
2025-08-15T09:13:00.565Z,4,GR86-028-89,5.300000000000001,0.078,0.106,99.99,5.0,,0.0,0.0,
2025-08-15T09:13:00.608Z,4,GR86-028-89,5.4,0.054,0.079,100.04,5.0,6968.0,0.0,0.0,
2025-08-15T09:13:00.651Z,4,GR86-028-89,5.7,0.082,0.067,100.02,5.0,,0.0,0.0,205.48
2025-08-15T09:13:00.695Z,4,GR86-028-89,6.0,0.058,0.072,99.98,5.0,,0.0,0.0,
2025-08-15T09:13:00.738Z,4,GR86-028-89,6.300000000000001,0.065,0.095,99.97,5.0,,0.0,0.0,
2025-08-15T09:13:00.781Z,4,GR86-028-89,6.800000000000001,0.068,0.117,99.97,5.0,,0.0,0.0,
2025-08-15T09:13:00.826Z,4,GR86-028-89,7.7,0.044,0.137,100.0,5.0,6988.0,0.0,0.0,
2025-08-15T09:13:00.869Z,4,GR86-028-89,8.700000000000001,0.073,0.142,99.98,5.0,,0.0,0.0,206.07
2025-08-15T09:13:00.912Z,4,GR86-028-89,9.3,0.062,0.175,99.97,5.0,,0.0,0.0,
2025-08-15T09:13:00.955Z,4,GR86-028-89,9.8,0.067,0.216,100.04,5.0,,0.0,0.0,
2025-08-15T09:13:00.998Z,4,GR86-028-89,9.8,0.064,0.253,100.03,5.0,,0.0,0.0,
2025-08-15T09:13:01.086Z,4,GR86-028-89,9.1,0.07,0.307,100.03,5.0,7024.0,0.0,0.0,206.73
2025-08-15T09:13:01.128Z,4,GR86-028-89,9.0,0.064,0.338,100.01,5.0,,0.0,0.0,
2025-08-15T09:13:01.171Z,4,GR86-028-89,9.0,0.068,0.34,99.99,5.0,,0.0,0.0,
2025-08-15T09:13:01.216Z,4,GR86-028-89,9.0,0.059,0.314,99.98,5.0,,0.0,0.0,
2025-08-15T09:13:01.301Z,4,GR86-028-89,8.700000000000001,0.063,0.291,99.99,5.0,7041.0,0.0,0.0,207.28
2025-08-15T09:13:01.345Z,4,GR86-028-89,8.3,0.069,0.337,100.02,5.0,,0.0,0.0,
2025-08-15T09:13:01.387Z,4,GR86-028-89,8.3,0.055,0.333,99.98,5.0,,0.0,0.0,
2025-08-15T09:13:01.431Z,4,GR86-028-89,8.4,0.048,0.334,100.03,5.0,,0.0,0.0,
2025-08-15T09:13:01.475Z,4,GR86-028-89,8.4,0.051,0.34,99.99,5.0,7062.0,0.0,0.0,
2025-08-15T09:13:01.518Z,4,GR86-028-89,8.4,0.053,0.285,100.02,5.0,,0.0,0.0,208.69
2025-08-15T09:13:01.561Z,4,GR86-028-89,8.4,0.057,0.249,100.02,5.0,,0.0,0.0,
2025-08-15T09:13:01.605Z,4,GR86-028-89,8.4,0.055,0.255,99.99,5.0,,0.0,0.0,
2025-08-15T09:13:01.648Z,4,GR86-028-89,8.4,0.055,0.272,100.04,5.0,,0.0,0.0,
2025-08-15T09:13:01.691Z,4,GR86-028-89,8.6,0.07,0.249,99.99,5.0,7078.0,0.0,0.0,
2025-08-15T09:13:01.735Z,4,GR86-028-89,9.9,0.074,0.244,100.02,5.0,,0.0,0.0,209.23
2025-08-15T09:13:01.778Z,4,GR86-028-89,10.4,0.036,0.268,100.03,5.0,,0.0,0.0,
2025-08-15T09:13:01.821Z,4,GR86-028-89,10.1,0.056,0.305,100.0,5.0,,0.0,0.0,
2025-08-15T09:13:01.865Z,4,GR86-028-89,9.3,0.058,0.313,100.02,5.0,,0.0,0.0,
2025-08-15T09:13:01.908Z,4,GR86-028-89,8.9,0.062,0.312,99.98,5.0,7114.0,0.0,0.0,
2025-08-15T09:13:01.995Z,4,GR86-028-89,8.9,0.045,0.327,99.99,5.0,,0.0,0.0,209.96
2025-08-15T09:13:02.038Z,4,GR86-028-89,9.0,0.067,0.296,100.0,5.0,,0.0,0.0,
2025-08-15T09:13:02.081Z,4,GR86-028-89,9.1,0.058,0.279,99.97,5.0,,0.0,0.0,
2025-08-15T09:13:02.126Z,4,GR86-028-89,9.3,0.069,0.258,99.98,5.0,7150.0,0.0,0.0,
2025-08-15T09:13:02.169Z,4,GR86-028-89,9.6,0.044,0.251,95.07,5.0,,0.0,0.0,210.65
2025-08-15T09:13:02.212Z,4,GR86-028-89,10.3,0.052,0.265,27.99,5.0,,0.0,0.0,
2025-08-15T09:13:02.255Z,4,GR86-028-89,11.1,0.012,0.29,2.84,5.0,,0.0,0.0,
2025-08-15T09:13:02.298Z,4,GR86-028-89,10.6,-0.205,0.329,2.68,5.0,,0.0,0.0,
2025-08-15T09:13:02.341Z,4,GR86-028-89,9.0,-0.312,0.338,2.62,5.0,6944.0,12.45,13.015,
2025-08-15T09:13:02.386Z,4,GR86-028-89,7.5,-0.458,0.288,2.59,5.0,,50.13,50.615,211.14
2025-08-15T09:13:02.428Z,4,GR86-028-89,6.9,-0.949,0.317,2.58,5.0,,73.31,73.2,
2025-08-15T09:13:02.471Z,4,GR86-028-89,6.2,-1.258,0.263,2.56,5.0,,92.87,92.66,
2025-08-15T09:13:02.516Z,4,GR86-028-89,7.7,-1.538,0.242,2.5500000000000003,5.0,,122.4,122.965,
2025-08-15T09:13:02.558Z,4,GR86-028-89,9.6,-1.31,0.243,2.52,5.0,6637.0,129.955,132.03,
2025-08-15T09:13:02.601Z,4,GR86-028-89,8.700000000000001,-1.531,0.354,2.52,5.0,,132.44,134.99,208.7
2025-08-15T09:13:02.687Z,4,GR86-028-89,7.7,-1.33,0.363,2.51,5.0,,131.39,133.905,
2025-08-15T09:13:02.730Z,4,GR86-028-89,7.1000000000000005,-1.252,0.449,2.49,5.0,,123.59,125.805,
2025-08-15T09:13:02.818Z,4,GR86-028-89,-6.7,-1.22,0.337,2.49,5.0,6432.0,110.025,112.495,197.2
2025-08-15T09:13:02.905Z,4,GR86-028-89,-11.6,-1.371,0.298,2.49,5.0,,105.25,106.685,
2025-08-15T09:13:02.948Z,4,GR86-028-89,-11.7,-1.474,0.177,2.49,5.0,,104.715,106.27,
2025-08-15T09:13:03.036Z,4,GR86-028-89,-8.700000000000001,-1.348,0.123,7.0200000000000005,5.0,5845.0,104.865,106.895,185.81
2025-08-15T09:13:03.079Z,4,GR86-028-89,3.6,-1.343,0.024,36.36,4.0,,101.02,102.835,
2025-08-15T09:13:03.122Z,4,GR86-028-89,6.7,-1.305,0.074,4.55,4.0,,89.485,91.835,
2025-08-15T09:13:03.165Z,4,GR86-028-89,10.8,-1.233,-0.083,3.5700000000000003,4.0,,71.615,73.72,
2025-08-15T09:13:03.208Z,4,GR86-028-89,15.8,-1.048,-0.094,3.26,4.0,5918.0,63.435,64.78,
2025-08-15T09:13:03.251Z,4,GR86-028-89,19.0,-1.176,0.067,3.06,4.0,,63.315000000000005,64.64,181.38
2025-08-15T09:13:03.295Z,4,GR86-028-89,20.200000000000003,-1.091,-0.015,2.87,4.0,,61.79,62.965,
2025-08-15T09:13:03.338Z,4,GR86-028-89,19.9,-1.083,0.093,2.78,4.0,,60.98,61.74,
2025-08-15T09:13:03.381Z,4,GR86-028-89,19.3,-1.091,0.113,2.74,4.0,,61.145,61.82,
2025-08-15T09:13:03.426Z,4,GR86-028-89,17.400000000000002,-1.107,0.183,2.7,4.0,6518.0,62.275,62.72,
2025-08-15T09:13:03.469Z,4,GR86-028-89,15.4,-1.17,0.286,2.65,4.0,,63.77,64.43,172.69
2025-08-15T09:13:03.512Z,4,GR86-028-89,12.8,-1.241,0.312,2.63,4.0,,67.205,67.755,
2025-08-15T09:13:03.555Z,4,GR86-028-89,7.4,-1.227,0.455,2.59,4.0,,74.68,74.925,
2025-08-15T09:13:03.598Z,4,GR86-028-89,3.0,-1.247,0.447,37.49,4.0,,76.24,76.775,
2025-08-15T09:13:03.641Z,4,GR86-028-89,0.4,-1.229,0.367,86.32000000000001,3.0,6210.0,73.60000000000001,74.59,
2025-08-15T09:13:03.685Z,4,GR86-028-89,0.1,-1.173,0.308,61.13,3.0,,66.365,68.03,166.39
2025-08-15T09:13:03.727Z,4,GR86-028-89,1.9,-1.209,0.167,5.05,3.0,,62.43,64.245,
2025-08-15T09:13:03.815Z,4,GR86-028-89,11.1,-1.334,0.372,2.68,3.0,,68.655,69.25,
2025-08-15T09:13:03.901Z,4,GR86-028-89,9.8,-1.035,0.487,2.59,3.0,5991.0,64.72,66.015,160.62
2025-08-15T09:13:03.945Z,4,GR86-028-89,7.5,-1.126,0.505,2.58,3.0,,55.67,56.72,
2025-08-15T09:13:04.030Z,4,GR86-028-89,-0.6000000000000001,-0.985,0.288,2.5500000000000003,3.0,,47.125,47.9,
2025-08-15T09:13:04.075Z,4,GR86-028-89,-2.1,-1.006,0.28,2.53,3.0,6621.0,45.78,46.77,
2025-08-15T09:13:04.118Z,4,GR86-028-89,-1.3,-1.053,0.177,2.52,3.0,,46.56,47.305,145.47
2025-08-15T09:13:04.161Z,4,GR86-028-89,-0.3,-1.081,0.16,2.52,3.0,,48.68,49.135,
2025-08-15T09:13:04.205Z,4,GR86-028-89,0.5,-1.11,0.123,4.28,3.0,,51.395,51.99,
2025-08-15T09:13:04.248Z,4,GR86-028-89,2.4000000000000004,-1.1,0.033,47.02,3.0,,53.120000000000005,53.745000000000005,
2025-08-15T09:13:04.291Z,4,GR86-028-89,4.3,-1.108,0.056,81.27,2.0,6386.0,53.775,54.495000000000005,
2025-08-15T09:13:04.336Z,4,GR86-028-89,5.7,-1.222,0.029,5.54,2.0,,52.34,53.805,137.33
2025-08-15T09:13:04.378Z,4,GR86-028-89,6.9,-1.208,0.067,3.39,2.0,,51.625,53.395,
2025-08-15T09:13:04.421Z,4,GR86-028-89,9.3,-1.08,-0.047,3.03,2.0,,51.81,52.71,
2025-08-15T09:13:04.465Z,4,GR86-028-89,12.4,-1.194,0.182,2.87,2.0,,51.535,52.8,
2025-08-15T09:13:04.508Z,4,GR86-028-89,17.2,-1.112,0.038,2.81,2.0,6044.0,54.95,56.43,
2025-08-15T09:13:04.551Z,4,GR86-028-89,21.0,-0.999,0.152,2.75,2.0,,59.485,60.17,130.26
2025-08-15T09:13:04.595Z,4,GR86-028-89,21.8,-1.212,0.332,2.7,2.0,,66.93,68.275,
2025-08-15T09:13:04.638Z,4,GR86-028-89,23.0,-1.082,0.246,2.65,2.0,,71.86,72.895,
2025-08-15T09:13:04.681Z,4,GR86-028-89,24.200000000000003,-1.216,0.489,2.61,2.0,,74.47,75.55,
2025-08-15T09:13:04.727Z,4,GR86-028-89,24.4,-1.155,0.452,2.58,2.0,6629.0,77.735,78.805,
2025-08-15T09:13:04.769Z,4,GR86-028-89,24.6,-1.149,0.437,2.56,2.0,,80.77,82.265,121.82
2025-08-15T09:13:04.812Z,4,GR86-028-89,25.700000000000003,-1.103,0.704,2.56,2.0,,82.295,83.67,
2025-08-15T09:13:04.855Z,4,GR86-028-89,26.200000000000003,-1.028,0.601,5.64,2.0,,73.63,74.375,
2025-08-15T09:13:04.898Z,4,GR86-028-89,25.8,-1.061,0.677,49.18,1.0,,69.71000000000001,70.395,
2025-08-15T09:13:04.941Z,4,GR86-028-89,25.5,-1.038,0.724,32.08,1.0,6138.0,64.215,65.39,
2025-08-15T09:13:04.986Z,4,GR86-028-89,25.200000000000003,-1.207,0.589,4.7,1.0,,58.555,60.34,115.09
2025-08-15T09:13:05.028Z,4,GR86-028-89,24.5,-1.209,0.659,4.18,1.0,,58.675,60.43,
2025-08-15T09:13:05.071Z,4,GR86-028-89,25.6,-1.281,0.6880000000000001,3.7,1.0,,57.27,58.43,
2025-08-15T09:13:05.115Z,4,GR86-028-89,26.1,-0.917,0.794,3.18,1.0,,50.25,51.81,
2025-08-15T09:13:05.158Z,4,GR86-028-89,25.8,-0.853,0.798,2.93,1.0,6699.0,38.075,39.25,
2025-08-15T09:13:05.201Z,4,GR86-028-89,25.4,-0.88,1.02,2.8000000000000003,1.0,,30.015,31.085,109.02
2025-08-15T09:13:05.245Z,4,GR86-028-89,25.3,-0.599,1.067,2.71,1.0,,26.46,27.315,
2025-08-15T09:13:05.287Z,4,GR86-028-89,25.9,-0.675,0.925,2.65,1.0,,25.3,26.43,
2025-08-15T09:13:05.331Z,4,GR86-028-89,26.9,-0.5750000000000001,1.14,2.62,1.0,,24.795,25.3,
2025-08-15T09:13:05.375Z,4,GR86-028-89,28.200000000000003,-0.721,1.029,2.58,1.0,6843.0,27.375,27.97,
2025-08-15T09:13:05.418Z,4,GR86-028-89,32.4,-0.632,1.156,2.5500000000000003,1.0,,29.145,30.11,102.38
2025-08-15T09:13:05.461Z,4,GR86-028-89,38.900000000000006,-0.586,1.168,2.5500000000000003,1.0,,29.56,30.4,
2025-08-15T09:13:05.505Z,4,GR86-028-89,44.7,-0.6960000000000001,1.109,2.54,1.0,,31.895,32.84,
2025-08-15T09:13:05.548Z,4,GR86-028-89,49.1,-0.685,1.073,2.52,1.0,,35.955,36.365,
2025-08-15T09:13:05.591Z,4,GR86-028-89,51.1,-0.713,1.175,2.52,1.0,6534.0,37.355,37.705,
2025-08-15T09:13:05.635Z,4,GR86-028-89,52.400000000000006,-0.667,1.148,2.52,1.0,,38.56,39.495,97.08
2025-08-15T09:13:05.678Z,4,GR86-028-89,52.6,-0.631,1.166,2.52,1.0,,37.89,39.19,
2025-08-15T09:13:05.721Z,4,GR86-028-89,51.6,-0.602,1.031,2.5,1.0,,35.955,36.99,
2025-08-15T09:13:05.765Z,4,GR86-028-89,51.2,-0.6960000000000001,1.007,2.5,1.0,,29.985,30.965,
2025-08-15T09:13:05.808Z,4,GR86-028-89,51.400000000000006,-0.507,1.24,2.49,1.0,6211.0,18.145,19.075,
2025-08-15T09:13:05.851Z,4,GR86-028-89,53.2,-0.338,1.19,2.49,1.0,,7.43,8.01,91.08
2025-08-15T09:13:05.895Z,4,GR86-028-89,59.3,-0.255,1.2,2.49,1.0,,0.0,0.0,
2025-08-15T09:13:05.938Z,4,GR86-028-89,64.5,-0.272,1.166,2.71,1.0,,0.0,0.0,
2025-08-15T09:13:05.981Z,4,GR86-028-89,69.5,-0.236,1.235,13.39,1.0,,0.0,0.0,
2025-08-15T09:13:06.027Z,4,GR86-028-89,75.5,-0.199,1.297,18.06,1.0,5947.0,0.0,0.0,
2025-08-15T09:13:06.070Z,4,GR86-028-89,83.30000000000001,-0.187,1.324,18.09,1.0,,0.0,0.0,86.89
2025-08-15T09:13:06.116Z,4,GR86-028-89,89.80000000000001,-0.132,1.21,23.15,1.0,,0.0,0.0,
2025-08-15T09:13:06.158Z,4,GR86-028-89,89.80000000000001,-0.095,1.232,27.51,1.0,,0.0,0.0,
2025-08-15T09:13:06.245Z,4,GR86-028-89,89.4,-0.081,1.354,32.86,1.0,6016.0,0.0,0.0,
2025-08-15T09:13:06.287Z,4,GR86-028-89,89.5,0.128,1.267,32.83,1.0,,0.0,0.0,85.62
2025-08-15T09:13:06.330Z,4,GR86-028-89,89.5,0.154,1.244,32.88,1.0,,0.0,0.0,
2025-08-15T09:13:06.376Z,4,GR86-028-89,87.30000000000001,0.248,1.263,33.07,1.0,,0.0,0.0,
2025-08-15T09:13:06.418Z,4,GR86-028-89,82.9,0.218,1.273,34.05,1.0,,0.0,0.0,
2025-08-15T09:13:06.505Z,4,GR86-028-89,77.10000000000001,0.207,1.345,34.43,1.0,6471.0,0.0,0.0,84.04
2025-08-15T09:13:06.548Z,4,GR86-028-89,72.2,0.184,1.236,34.47,1.0,,0.0,0.0,
2025-08-15T09:13:06.591Z,4,GR86-028-89,72.10000000000001,0.188,1.208,34.4,1.0,,0.0,0.0,
2025-08-15T09:13:06.636Z,4,GR86-028-89,71.5,0.158,1.13,34.13,1.0,,0.0,0.0,
2025-08-15T09:13:06.679Z,4,GR86-028-89,71.7,0.116,1.081,33.93,1.0,6416.0,0.0,0.0,
2025-08-15T09:13:06.722Z,4,GR86-028-89,72.8,0.1,1.214,34.300000000000004,1.0,,0.0,0.0,84.53
2025-08-15T09:13:06.765Z,4,GR86-028-89,72.7,0.206,1.182,34.13,1.0,,0.0,0.0,
2025-08-15T09:13:06.808Z,4,GR86-028-89,72.4,0.148,1.081,34.27,1.0,,0.0,0.0,
2025-08-15T09:13:06.851Z,4,GR86-028-89,71.60000000000001,0.264,1.25,34.34,1.0,,0.0,0.0,
2025-08-15T09:13:06.895Z,4,GR86-028-89,72.4,0.201,1.434,35.11,1.0,6537.0,0.0,0.0,
2025-08-15T09:13:06.981Z,4,GR86-028-89,78.60000000000001,0.28,1.376,35.050000000000004,1.0,,0.0,0.0,85.17
2025-08-15T09:13:07.027Z,4,GR86-028-89,94.6,0.243,1.31,34.35,1.0,,0.0,0.0,
2025-08-15T09:13:07.115Z,4,GR86-028-89,109.2,0.271,1.0,34.31,1.0,6629.0,0.0,0.0,
2025-08-15T09:13:07.158Z,4,GR86-028-89,112.6,0.134,0.903,34.34,1.0,,0.0,0.0,86.65
2025-08-15T09:13:07.201Z,4,GR86-028-89,115.3,0.108,1.343,34.87,1.0,,0.0,0.0,
2025-08-15T09:13:07.245Z,4,GR86-028-89,115.6,0.167,1.389,35.75,1.0,,0.0,0.0,
2025-08-15T09:13:07.287Z,4,GR86-028-89,115.2,0.202,1.4,36.44,1.0,,0.0,0.0,
2025-08-15T09:13:07.330Z,4,GR86-028-89,113.4,0.209,1.269,36.6,1.0,6679.0,0.0,0.0,
2025-08-15T09:13:07.375Z,4,GR86-028-89,110.5,0.174,1.201,36.5,1.0,,0.0,0.0,86.49
2025-08-15T09:13:07.418Z,4,GR86-028-89,110.0,0.192,1.148,36.57,1.0,,0.0,0.0,
2025-08-15T09:13:07.461Z,4,GR86-028-89,109.4,0.156,1.205,36.87,1.0,,0.0,0.0,
2025-08-15T09:13:07.505Z,4,GR86-028-89,107.8,0.168,1.172,37.04,1.0,,0.0,0.0,
2025-08-15T09:13:07.548Z,4,GR86-028-89,105.1,0.167,1.201,37.74,1.0,6697.0,0.0,0.0,
2025-08-15T09:13:07.591Z,4,GR86-028-89,100.6,0.169,1.156,37.92,1.0,,0.0,0.0,88.12
2025-08-15T09:13:07.636Z,4,GR86-028-89,92.3,0.181,1.114,38.43,1.0,,0.0,0.0,
2025-08-15T09:13:07.678Z,4,GR86-028-89,85.30000000000001,0.216,1.213,39.07,1.0,,0.0,0.0,
2025-08-15T09:13:07.721Z,4,GR86-028-89,79.5,0.197,1.164,39.53,1.0,,0.0,0.0,
2025-08-15T09:13:07.765Z,4,GR86-028-89,76.3,0.217,1.174,40.07,1.0,6841.0,0.0,0.0,
2025-08-15T09:13:07.808Z,4,GR86-028-89,74.7,0.209,1.207,43.03,1.0,,0.0,0.0,89.07000000000001
2025-08-15T09:13:07.851Z,4,GR86-028-89,72.2,0.227,1.195,45.86,1.0,,0.0,0.0,
2025-08-15T09:13:07.895Z,4,GR86-028-89,63.1,0.214,1.213,47.84,1.0,,0.0,0.0,
2025-08-15T09:13:07.938Z,4,GR86-028-89,56.2,0.253,1.276,48.26,1.0,,0.0,0.0,
2025-08-15T09:13:07.981Z,4,GR86-028-89,51.2,0.301,1.209,48.47,1.0,6963.0,0.0,0.0,
2025-08-15T09:13:08.027Z,4,GR86-028-89,47.5,0.293,1.243,48.54,1.0,,0.0,0.0,90.43
2025-08-15T09:13:08.070Z,4,GR86-028-89,44.5,0.307,1.153,48.45,1.0,,0.0,0.0,
2025-08-15T09:13:08.115Z,4,GR86-028-89,42.7,0.281,1.113,49.68,1.0,,0.0,0.0,
2025-08-15T09:13:08.158Z,4,GR86-028-89,41.7,0.256,0.961,51.58,1.0,,0.0,0.0,
2025-08-15T09:13:08.201Z,4,GR86-028-89,39.5,0.213,0.989,54.95,1.0,7085.0,0.0,0.0,
2025-08-15T09:13:08.245Z,4,GR86-028-89,35.800000000000004,0.214,1.138,58.9,1.0,,0.0,0.0,91.83
2025-08-15T09:13:08.287Z,4,GR86-028-89,30.0,0.359,1.109,61.93,1.0,,0.0,0.0,
2025-08-15T09:13:08.331Z,4,GR86-028-89,19.3,0.273,0.525,68.8,1.0,,0.0,0.0,
2025-08-15T09:13:08.375Z,4,GR86-028-89,2.6,0.344,0.797,71.65,1.0,,0.0,0.0,
2025-08-15T09:13:08.418Z,4,GR86-028-89,-0.9,0.393,0.746,73.12,1.0,7264.0,0.0,0.0,
2025-08-15T09:13:08.461Z,4,GR86-028-89,1.0,0.273,0.395,98.38,1.0,,0.0,0.0,92.88
2025-08-15T09:13:08.505Z,4,GR86-028-89,4.2,0.069,0.41,100.21,1.0,,0.0,0.0,
2025-08-15T09:13:08.548Z,4,GR86-028-89,4.1000000000000005,-0.046,0.8140000000000001,100.23,1.0,,0.0,0.0,
2025-08-15T09:13:08.591Z,4,GR86-028-89,2.0,0.15,0.848,100.17,1.0,,0.0,0.0,
2025-08-15T09:13:08.678Z,4,GR86-028-89,6.0,-0.036,0.514,100.17,1.0,,0.0,0.0,94.06
2025-08-15T09:13:08.721Z,4,GR86-028-89,10.8,0.208,0.998,100.21,1.0,7283.0,0.0,0.0,
2025-08-15T09:13:08.765Z,4,GR86-028-89,11.2,0.495,1.108,100.19,1.0,,0.0,0.0,
2025-08-15T09:13:08.808Z,4,GR86-028-89,8.6,0.189,1.018,100.16,1.0,,0.0,0.0,
2025-08-15T09:13:08.851Z,4,GR86-028-89,4.9,0.005,1.038,100.18,1.0,7315.0,0.0,0.0,
2025-08-15T09:13:08.895Z,4,GR86-028-89,6.7,0.37,0.916,100.17,1.0,,0.0,0.0,94.44
2025-08-15T09:13:08.938Z,4,GR86-028-89,13.6,0.451,0.635,100.21,1.0,,0.0,0.0,
2025-08-15T09:13:08.981Z,4,GR86-028-89,21.8,0.351,0.308,100.18,1.0,,0.0,0.0,
2025-08-15T09:13:09.027Z,4,GR86-028-89,30.1,-0.012,0.344,100.19,2.0,,0.0,0.0,
2025-08-15T09:13:09.069Z,4,GR86-028-89,36.8,-0.156,0.131,100.17,2.0,7318.0,0.0,0.0,
2025-08-15T09:13:09.112Z,4,GR86-028-89,37.4,0.779,0.087,100.16,2.0,,0.0,0.0,95.68
2025-08-15T09:13:09.155Z,4,GR86-028-89,32.1,0.359,0.126,100.14,2.0,,0.0,0.0,
2025-08-15T09:13:09.198Z,4,GR86-028-89,27.4,-0.168,0.159,100.14,2.0,,0.0,0.0,
2025-08-15T09:13:09.241Z,4,GR86-028-89,23.700000000000003,0.04,0.215,100.14,2.0,,0.0,0.0,
2025-08-15T09:13:09.286Z,4,GR86-028-89,22.3,0.339,0.192,100.13,2.0,6604.0,0.0,0.0,
2025-08-15T09:13:09.328Z,4,GR86-028-89,22.8,0.6880000000000001,0.357,100.13,2.0,,0.0,0.0,98.32
2025-08-15T09:13:09.371Z,4,GR86-028-89,24.200000000000003,0.759,0.18,100.1,2.0,,0.0,0.0,
2025-08-15T09:13:09.415Z,4,GR86-028-89,24.0,-0.092,0.314,100.08,2.0,,0.0,0.0,
2025-08-15T09:13:09.458Z,4,GR86-028-89,20.5,-0.027,0.061,100.06,2.0,,0.0,0.0,
2025-08-15T09:13:09.501Z,4,GR86-028-89,14.9,0.216,0.426,100.07,2.0,5994.0,0.0,0.0,
2025-08-15T09:13:09.545Z,4,GR86-028-89,13.4,0.581,0.515,100.06,2.0,,0.0,0.0,100.25
2025-08-15T09:13:09.587Z,4,GR86-028-89,14.4,0.245,-0.128,100.03,2.0,,0.0,0.0,
2025-08-15T09:13:09.630Z,4,GR86-028-89,16.6,0.423,0.984,100.0,2.0,,0.0,0.0,
2025-08-15T09:13:09.676Z,4,GR86-028-89,25.6,0.234,0.082,100.02,2.0,,0.0,0.0,
2025-08-15T09:13:09.718Z,4,GR86-028-89,28.4,0.309,0.258,100.01,2.0,6060.0,0.0,0.0,
2025-08-15T09:13:09.761Z,4,GR86-028-89,26.200000000000003,0.5630000000000001,0.075,100.01,2.0,,0.0,0.0,103.13
2025-08-15T09:13:09.805Z,4,GR86-028-89,21.9,0.5750000000000001,0.158,99.98,2.0,,0.0,0.0,
2025-08-15T09:13:09.848Z,4,GR86-028-89,17.7,0.445,0.139,100.01,2.0,,0.0,0.0,
2025-08-15T09:13:09.891Z,4,GR86-028-89,14.8,0.463,0.101,100.01,2.0,,0.0,0.0,
2025-08-15T09:13:09.936Z,4,GR86-028-89,13.4,0.164,0.005,99.99,2.0,6372.0,0.0,0.0,
2025-08-15T09:13:09.979Z,4,GR86-028-89,13.1,0.277,0.179,100.01,2.0,,0.0,0.0,103.05
2025-08-15T09:13:10.022Z,4,GR86-028-89,12.4,0.28,0.167,100.01,2.0,,0.0,0.0,
2025-08-15T09:13:10.065Z,4,GR86-028-89,11.6,0.288,0.089,100.02,2.0,,0.0,0.0,
2025-08-15T09:13:10.108Z,4,GR86-028-89,9.8,0.308,0.099,100.01,2.0,,0.0,0.0,
2025-08-15T09:13:10.151Z,4,GR86-028-89,7.4,0.359,0.137,100.0,2.0,6100.0,0.0,0.0,
2025-08-15T09:13:10.195Z,4,GR86-028-89,4.2,0.039,0.093,100.01,2.0,,0.0,0.0,105.48
2025-08-15T09:13:10.238Z,4,GR86-028-89,3.3000000000000003,-0.017,0.129,100.0,2.0,,0.0,0.0,
2025-08-15T09:13:10.281Z,4,GR86-028-89,3.2,0.101,0.131,100.0,2.0,,0.0,0.0,
2025-08-15T09:13:10.326Z,4,GR86-028-89,3.3000000000000003,0.089,0.209,99.99,2.0,,0.0,0.0,
2025-08-15T09:13:10.369Z,4,GR86-028-89,4.5,0.186,0.217,100.01,2.0,6317.0,0.0,0.0,
2025-08-15T09:13:10.412Z,4,GR86-028-89,5.9,0.193,0.143,99.98,2.0,,0.0,0.0,106.96
2025-08-15T09:13:10.455Z,4,GR86-028-89,7.0,0.288,0.045,100.02,2.0,,0.0,0.0,
2025-08-15T09:13:10.498Z,4,GR86-028-89,7.2,0.282,0.116,100.0,2.0,,0.0,0.0,
2025-08-15T09:13:10.541Z,4,GR86-028-89,7.9,0.229,0.031,100.02,2.0,,0.0,0.0,
2025-08-15T09:13:10.585Z,4,GR86-028-89,8.4,0.222,0.032,100.01,2.0,6326.0,0.0,0.0,
2025-08-15T09:13:10.627Z,4,GR86-028-89,8.1,0.186,0.041,100.0,2.0,,0.0,0.0,108.73
2025-08-15T09:13:10.670Z,4,GR86-028-89,7.5,0.265,0.094,99.99,2.0,,0.0,0.0,
2025-08-15T09:13:10.715Z,4,GR86-028-89,6.800000000000001,0.315,0.037,99.98,2.0,,0.0,0.0,
2025-08-15T09:13:10.758Z,4,GR86-028-89,5.7,0.303,0.155,100.03,2.0,,0.0,0.0,
2025-08-15T09:13:10.801Z,4,GR86-028-89,4.0,0.33,0.122,99.97,2.0,6406.0,0.0,0.0,
2025-08-15T09:13:10.845Z,4,GR86-028-89,2.2,0.303,0.076,100.01,2.0,,0.0,0.0,110.19
2025-08-15T09:13:10.887Z,4,GR86-028-89,0.5,0.308,0.055,100.0,2.0,,0.0,0.0,
2025-08-15T09:13:10.975Z,4,GR86-028-89,-0.9,0.23,-0.034,99.98,2.0,,0.0,0.0,
2025-08-15T09:13:11.018Z,4,GR86-028-89,-5.0,0.252,-0.073,100.01,2.0,6429.0,0.0,0.0,
2025-08-15T09:13:11.061Z,4,GR86-028-89,-5.9,0.295,-0.12,100.0,2.0,,0.0,0.0,111.69
2025-08-15T09:13:11.105Z,4,GR86-028-89,-6.4,0.265,-0.16,100.01,2.0,,0.0,0.0,
2025-08-15T09:13:11.148Z,4,GR86-028-89,-6.4,0.256,-0.153,99.97,2.0,,0.0,0.0,
2025-08-15T09:13:11.191Z,4,GR86-028-89,-7.1000000000000005,0.238,-0.205,99.99,2.0,,0.0,0.0,
2025-08-15T09:13:11.235Z,4,GR86-028-89,-8.200000000000001,0.244,-0.232,99.99,2.0,6544.0,0.0,0.0,
2025-08-15T09:13:11.278Z,4,GR86-028-89,-9.3,0.255,-0.214,100.01,2.0,,0.0,0.0,113.18
2025-08-15T09:13:11.321Z,4,GR86-028-89,-9.9,0.265,-0.251,99.98,2.0,,0.0,0.0,
2025-08-15T09:13:11.365Z,4,GR86-028-89,-10.2,0.242,-0.274,100.01,2.0,,0.0,0.0,
2025-08-15T09:13:11.408Z,4,GR86-028-89,-10.4,0.235,-0.258,100.03,2.0,,0.0,0.0,
2025-08-15T09:13:11.451Z,4,GR86-028-89,-10.4,0.259,-0.287,99.99,2.0,6634.0,0.0,0.0,
2025-08-15T09:13:11.495Z,4,GR86-028-89,-10.0,0.257,-0.293,99.97,2.0,,0.0,0.0,114.65
2025-08-15T09:13:11.538Z,4,GR86-028-89,-10.0,0.227,-0.29,99.99,2.0,,0.0,0.0,
2025-08-15T09:13:11.581Z,4,GR86-028-89,-10.0,0.265,-0.281,100.0,2.0,,0.0,0.0,
2025-08-15T09:13:11.627Z,4,GR86-028-89,-9.8,0.252,-0.282,100.01,2.0,,0.0,0.0,
2025-08-15T09:13:11.669Z,4,GR86-028-89,-9.4,0.242,-0.272,99.97,2.0,6700.0,0.0,0.0,
2025-08-15T09:13:11.712Z,4,GR86-028-89,-9.3,0.259,-0.266,99.98,2.0,,0.0,0.0,116.1
2025-08-15T09:13:11.755Z,4,GR86-028-89,-9.3,0.264,-0.243,99.99,2.0,,0.0,0.0,
2025-08-15T09:13:11.798Z,4,GR86-028-89,-8.3,0.249,-0.269,99.97,2.0,,0.0,0.0,
2025-08-15T09:13:11.841Z,4,GR86-028-89,-7.5,0.248,-0.228,99.99,2.0,,0.0,0.0,
2025-08-15T09:13:11.886Z,4,GR86-028-89,-6.2,0.269,-0.217,100.0,2.0,6780.0,0.0,0.0,
2025-08-15T09:13:11.928Z,4,GR86-028-89,-5.300000000000001,0.239,-0.231,100.02,2.0,,0.0,0.0,118.72
2025-08-15T09:13:11.971Z,4,GR86-028-89,-4.0,0.246,-0.183,100.02,2.0,,0.0,0.0,
2025-08-15T09:13:12.015Z,4,GR86-028-89,-3.0,0.256,-0.139,100.01,2.0,,0.0,0.0,
2025-08-15T09:13:12.058Z,4,GR86-028-89,-1.8,0.275,-0.127,100.03,2.0,,0.0,0.0,
2025-08-15T09:13:12.101Z,4,GR86-028-89,-1.1,0.249,-0.123,100.01,2.0,6844.0,0.0,0.0,
2025-08-15T09:13:12.145Z,4,GR86-028-89,-0.9,0.249,-0.088,99.99,2.0,,0.0,0.0,119.91
2025-08-15T09:13:12.187Z,4,GR86-028-89,-1.0,0.267,-0.075,100.04,2.0,,0.0,0.0,
2025-08-15T09:13:12.231Z,4,GR86-028-89,-1.1,0.252,-0.086,100.02,2.0,,0.0,0.0,
2025-08-15T09:13:12.275Z,4,GR86-028-89,-1.1,0.256,-0.075,100.01,2.0,,0.0,0.0,
2025-08-15T09:13:12.318Z,4,GR86-028-89,-1.0,0.247,-0.054,99.97,2.0,7001.0,0.0,0.0,
2025-08-15T09:13:12.361Z,4,GR86-028-89,-0.8,0.277,-0.054,99.97,2.0,,0.0,0.0,121.11
2025-08-15T09:13:12.405Z,4,GR86-028-89,-0.3,0.254,-0.06,100.0,2.0,,0.0,0.0,
2025-08-15T09:13:12.448Z,4,GR86-028-89,0.1,0.242,-0.05,99.97,2.0,,0.0,0.0,
2025-08-15T09:13:12.491Z,4,GR86-028-89,0.5,0.264,-0.045,99.98,2.0,,0.0,0.0,
2025-08-15T09:13:12.535Z,4,GR86-028-89,1.2000000000000002,0.276,-0.051,100.0,2.0,7065.0,0.0,0.0,
2025-08-15T09:13:12.578Z,4,GR86-028-89,1.8,0.253,-0.043,99.99,2.0,,0.0,0.0,122.31
2025-08-15T09:13:12.621Z,4,GR86-028-89,2.0,0.228,-0.013,100.01,2.0,,0.0,0.0,
2025-08-15T09:13:12.665Z,4,GR86-028-89,2.0,0.263,-0.016,99.98,2.0,,0.0,0.0,
2025-08-15T09:13:12.708Z,4,GR86-028-89,2.3000000000000003,0.255,-0.001,99.99,2.0,,0.0,0.0,
2025-08-15T09:13:12.751Z,4,GR86-028-89,2.7,0.234,0.007,100.02,2.0,7130.0,0.0,0.0,
2025-08-15T09:13:12.795Z,4,GR86-028-89,3.0,0.218,0.014,99.97,2.0,,0.0,0.0,123.47
2025-08-15T09:13:12.838Z,4,GR86-028-89,3.0,0.267,0.011,100.0,2.0,,0.0,0.0,
2025-08-15T09:13:12.881Z,4,GR86-028-89,3.0,0.246,0.009,100.03,2.0,,0.0,0.0,
2025-08-15T09:13:12.926Z,4,GR86-028-89,3.1,0.233,0.023,100.01,2.0,,0.0,0.0,
2025-08-15T09:13:12.969Z,4,GR86-028-89,3.3000000000000003,0.256,0.038,99.98,2.0,7183.0,0.0,0.0,
2025-08-15T09:13:13.012Z,4,GR86-028-89,3.6,0.26,0.036,99.97,2.0,,0.0,0.0,124.61
2025-08-15T09:13:13.055Z,4,GR86-028-89,4.4,-0.081,0.056,99.98,3.0,,0.0,0.0,
2025-08-15T09:13:13.098Z,4,GR86-028-89,4.800000000000001,0.5670000000000001,0.104,100.01,3.0,,0.0,0.0,
2025-08-15T09:13:13.141Z,4,GR86-028-89,6.1000000000000005,0.375,-0.019,99.99,3.0,,0.0,0.0,
2025-08-15T09:13:13.185Z,4,GR86-028-89,6.1000000000000005,0.46,0.043,99.98,3.0,6746.0,0.0,0.0,
2025-08-15T09:13:13.228Z,4,GR86-028-89,5.7,0.195,0.17,100.01,3.0,,0.0,0.0,125.64
2025-08-15T09:13:13.271Z,4,GR86-028-89,5.6000000000000005,0.022,0.044,99.99,3.0,,0.0,0.0,
2025-08-15T09:13:13.316Z,4,GR86-028-89,5.300000000000001,0.181,0.178,99.98,3.0,,0.0,0.0,
2025-08-15T09:13:13.358Z,4,GR86-028-89,5.300000000000001,0.323,0.064,99.98,3.0,,0.0,0.0,
2025-08-15T09:13:13.401Z,4,GR86-028-89,5.4,0.234,0.058,99.98,3.0,5940.0,0.0,0.0,
2025-08-15T09:13:13.445Z,4,GR86-028-89,5.1000000000000005,0.175,0.142,99.99,3.0,,0.0,0.0,126.84
2025-08-15T09:13:13.487Z,4,GR86-028-89,4.7,0.178,0.084,100.01,3.0,,0.0,0.0,
2025-08-15T09:13:13.530Z,4,GR86-028-89,4.9,0.23,0.069,100.0,3.0,,0.0,0.0,
2025-08-15T09:13:13.576Z,4,GR86-028-89,4.800000000000001,0.243,0.079,100.0,3.0,,0.0,0.0,
2025-08-15T09:13:13.618Z,4,GR86-028-89,4.2,0.2,0.064,100.01,3.0,5980.0,0.0,0.0,
2025-08-15T09:13:13.661Z,4,GR86-028-89,3.8,0.19,0.091,100.01,3.0,,0.0,0.0,127.71
2025-08-15T09:13:13.705Z,4,GR86-028-89,3.1,0.216,0.085,100.0,3.0,,0.0,0.0,
2025-08-15T09:13:13.748Z,4,GR86-028-89,1.7000000000000002,0.228,0.045,100.01,3.0,,0.0,0.0,
2025-08-15T09:13:13.791Z,4,GR86-028-89,1.3,0.186,0.065,100.01,3.0,,0.0,0.0,
2025-08-15T09:13:13.836Z,4,GR86-028-89,1.3,0.205,0.039,100.01,3.0,6020.0,0.0,0.0,
2025-08-15T09:13:13.879Z,4,GR86-028-89,1.3,0.201,0.024,100.01,3.0,,0.0,0.0,128.55
2025-08-15T09:13:13.922Z,4,GR86-028-89,1.3,0.221,-0.002,100.01,3.0,,0.0,0.0,
2025-08-15T09:13:13.965Z,4,GR86-028-89,1.5,0.204,-0.004,92.3,3.0,,0.0,0.0,
2025-08-15T09:13:14.008Z,4,GR86-028-89,1.9,0.177,0.014,21.92,3.0,,0.0,0.0,
2025-08-15T09:13:14.095Z,4,GR86-028-89,5.5,-0.101,0.046,2.62,3.0,,0.0,0.0,129.39
2025-08-15T09:13:14.138Z,4,GR86-028-89,5.9,-0.036,0.056,2.58,3.0,6056.0,4.365,4.805,
2025-08-15T09:13:14.181Z,4,GR86-028-89,6.1000000000000005,-0.37,0.023,2.5500000000000003,3.0,,16.145,16.435,
2025-08-15T09:13:14.312Z,4,GR86-028-89,5.5,-0.319,0.095,2.54,3.0,5888.0,21.47,21.56,130.2
2025-08-15T09:13:14.355Z,4,GR86-028-89,5.5,-0.454,0.139,2.52,3.0,,25.515,25.575,
2025-08-15T09:13:14.398Z,4,GR86-028-89,6.1000000000000005,-0.5,0.084,4.26,3.0,,25.395,25.865,
2025-08-15T09:13:14.441Z,4,GR86-028-89,6.9,-0.512,0.143,46.76,3.0,,25.665,26.11,
2025-08-15T09:13:14.485Z,4,GR86-028-89,8.700000000000001,-0.507,0.135,94.63,3.0,5853.0,27.025,27.025,
2025-08-15T09:13:14.527Z,4,GR86-028-89,11.2,-0.5760000000000001,0.188,100.16,2.0,,30.46,30.365,125.75
2025-08-15T09:13:14.570Z,4,GR86-028-89,13.4,-0.583,0.164,59.95,2.0,,33.405,33.345,
2025-08-15T09:13:14.615Z,4,GR86-028-89,13.2,-0.8260000000000001,0.295,3.27,2.0,,37.42,38.47,
2025-08-15T09:13:14.658Z,4,GR86-028-89,15.4,-0.637,0.259,2.76,2.0,,40.21,41.185,
2025-08-15T09:13:14.701Z,4,GR86-028-89,20.0,-0.954,0.336,2.65,2.0,5602.0,42.36,42.865,
2025-08-15T09:13:14.745Z,4,GR86-028-89,30.700000000000003,-0.834,0.521,2.59,2.0,,48.205,47.93,121.58
2025-08-15T09:13:14.787Z,4,GR86-028-89,36.1,-0.864,0.426,2.57,2.0,,53.0,52.435,
2025-08-15T09:13:14.830Z,4,GR86-028-89,38.8,-0.902,0.591,2.57,2.0,,55.775,56.555,
2025-08-15T09:13:14.875Z,4,GR86-028-89,49.1,-0.858,0.646,2.5500000000000003,2.0,,55.67,56.46,
2025-08-15T09:13:14.918Z,4,GR86-028-89,52.6,-0.782,0.712,2.54,2.0,6124.0,51.9,52.89,
2025-08-15T09:13:14.961Z,4,GR86-028-89,53.5,-0.723,0.899,2.54,2.0,,43.615,45.185,115.23
2025-08-15T09:13:15.005Z,4,GR86-028-89,52.5,-0.636,0.799,2.53,2.0,,34.93,36.64,
2025-08-15T09:13:15.047Z,4,GR86-028-89,51.900000000000006,-0.668,0.888,2.53,2.0,,28.84,30.075,
2025-08-15T09:13:15.090Z,4,GR86-028-89,50.400000000000006,-0.648,0.925,2.52,2.0,,28.78,29.62,
2025-08-15T09:13:15.136Z,4,GR86-028-89,34.4,-0.556,0.96,2.52,2.0,5778.0,31.42,32.17,
2025-08-15T09:13:15.178Z,4,GR86-028-89,20.4,-0.607,0.889,2.52,2.0,,30.55,31.51,109.97
2025-08-15T09:13:15.221Z,4,GR86-028-89,21.8,-0.635,0.838,2.52,2.0,,29.805,30.795,
2025-08-15T09:13:15.265Z,4,GR86-028-89,31.5,-0.5710000000000001,0.975,2.52,2.0,,24.795,25.745,
2025-08-15T09:13:15.308Z,4,GR86-028-89,37.4,-0.445,1.052,2.51,2.0,,15.275,16.085,
2025-08-15T09:13:15.351Z,4,GR86-028-89,31.200000000000003,-0.272,1.104,2.52,2.0,5673.0,5.995,6.655,
2025-08-15T09:13:15.395Z,4,GR86-028-89,3.5,-0.12,1.035,2.87,2.0,,0.0,0.0,105.38
2025-08-15T09:13:15.438Z,4,GR86-028-89,-6.5,-0.149,0.944,2.68,2.0,,0.0,0.0,
2025-08-15T09:13:15.527Z,4,GR86-028-89,1.2000000000000002,-0.13,0.979,2.65,2.0,,0.0,0.0,
2025-08-15T09:13:15.569Z,4,GR86-028-89,47.8,-0.146,1.094,2.6,2.0,5580.0,0.0,0.0,
2025-08-15T09:13:15.612Z,4,GR86-028-89,71.10000000000001,-0.135,1.116,2.58,2.0,,0.0,0.0,103.44
2025-08-15T09:13:15.655Z,4,GR86-028-89,93.5,-0.157,1.134,2.57,2.0,,0.0,0.0,
2025-08-15T09:13:15.698Z,4,GR86-028-89,100.0,-0.166,1.228,2.54,2.0,,0.0,0.0,
2025-08-15T09:13:15.741Z,4,GR86-028-89,102.0,-0.21,1.204,2.5500000000000003,2.0,,0.0,0.0,
2025-08-15T09:13:15.786Z,4,GR86-028-89,101.9,-0.221,1.309,2.5500000000000003,2.0,5525.0,0.0,0.0,
2025-08-15T09:13:15.828Z,4,GR86-028-89,101.9,-0.177,1.184,2.54,2.0,,0.0,0.0,100.34
2025-08-15T09:13:15.871Z,4,GR86-028-89,101.9,-0.187,1.253,2.58,2.0,,0.0,0.0,
2025-08-15T09:13:15.916Z,4,GR86-028-89,101.4,-0.184,1.235,3.12,2.0,,0.0,0.0,
2025-08-15T09:13:15.958Z,4,GR86-028-89,101.3,-0.184,1.197,11.61,2.0,,0.0,0.0,
2025-08-15T09:13:16.001Z,4,GR86-028-89,101.4,-0.186,1.268,20.04,2.0,5466.0,0.0,0.0,
2025-08-15T09:13:16.045Z,4,GR86-028-89,101.7,-0.171,1.251,20.31,2.0,,0.0,0.0,98.86
2025-08-15T09:13:16.087Z,4,GR86-028-89,102.2,-0.137,1.253,20.7,2.0,,0.0,0.0,
2025-08-15T09:13:16.131Z,4,GR86-028-89,102.2,-0.115,1.223,21.29,2.0,,0.0,0.0,
2025-08-15T09:13:16.175Z,4,GR86-028-89,102.1,-0.13,1.235,23.18,2.0,,0.0,0.0,
2025-08-15T09:13:16.218Z,4,GR86-028-89,102.1,0.018,1.223,23.15,2.0,5449.0,0.0,0.0,
2025-08-15T09:13:16.261Z,4,GR86-028-89,102.1,0.086,1.182,22.99,2.0,,0.0,0.0,97.68
2025-08-15T09:13:16.305Z,4,GR86-028-89,102.0,0.102,1.215,22.74,2.0,,0.0,0.0,
2025-08-15T09:13:16.348Z,4,GR86-028-89,102.0,0.042,1.206,22.58,2.0,,0.0,0.0,
2025-08-15T09:13:16.391Z,4,GR86-028-89,102.0,0.048,1.28,22.54,2.0,,0.0,0.0,
2025-08-15T09:13:16.435Z,4,GR86-028-89,102.0,0.044,1.284,22.53,2.0,5590.0,0.0,0.0,
2025-08-15T09:13:16.478Z,4,GR86-028-89,102.0,0.017,1.293,22.55,2.0,,0.0,0.0,96.11
2025-08-15T09:13:16.521Z,4,GR86-028-89,102.0,0.053,1.267,22.49,2.0,,0.0,0.0,
2025-08-15T09:13:16.565Z,4,GR86-028-89,102.0,0.017,1.287,22.42,2.0,,0.0,0.0,
2025-08-15T09:13:16.608Z,4,GR86-028-89,102.0,0.055,1.246,22.36,2.0,,0.0,0.0,
2025-08-15T09:13:16.651Z,4,GR86-028-89,102.0,0.034,1.257,22.29,2.0,5550.0,0.0,0.0,
2025-08-15T09:13:16.695Z,4,GR86-028-89,102.0,0.026,1.273,22.57,2.0,,0.0,0.0,95.59
2025-08-15T09:13:16.738Z,4,GR86-028-89,101.9,0.042,1.196,25.18,2.0,,0.0,0.0,
2025-08-15T09:13:16.781Z,4,GR86-028-89,101.8,0.03,1.203,27.93,2.0,,0.0,0.0,
2025-08-15T09:13:16.826Z,4,GR86-028-89,101.8,0.058,1.166,30.81,2.0,,0.0,0.0,
2025-08-15T09:13:16.869Z,4,GR86-028-89,101.8,0.055,1.252,32.59,2.0,5517.0,0.0,0.0,
2025-08-15T09:13:16.912Z,4,GR86-028-89,101.8,0.095,1.222,31.29,2.0,,0.0,0.0,95.54
2025-08-15T09:13:16.955Z,4,GR86-028-89,101.6,0.167,1.163,30.87,2.0,,0.0,0.0,
2025-08-15T09:13:16.998Z,4,GR86-028-89,101.5,0.154,1.168,30.95,2.0,,0.0,0.0,
2025-08-15T09:13:17.041Z,4,GR86-028-89,101.4,0.128,1.154,31.02,2.0,,0.0,0.0,
2025-08-15T09:13:17.087Z,4,GR86-028-89,101.3,0.069,1.218,31.71,2.0,5566.0,0.0,0.0,
2025-08-15T09:13:17.130Z,4,GR86-028-89,100.9,0.096,1.245,32.46,2.0,,0.0,0.0,96.28
2025-08-15T09:13:17.176Z,4,GR86-028-89,99.9,0.096,1.299,33.82,2.0,,0.0,0.0,
2025-08-15T09:13:17.218Z,4,GR86-028-89,99.0,0.111,1.308,35.63,2.0,,0.0,0.0,
2025-08-15T09:13:17.261Z,4,GR86-028-89,97.3,0.132,1.264,41.54,2.0,,0.0,0.0,
2025-08-15T09:13:17.305Z,4,GR86-028-89,94.3,0.148,1.257,60.370000000000005,2.0,5585.0,0.0,0.0,
2025-08-15T09:13:17.348Z,4,GR86-028-89,89.4,0.159,1.207,96.52,2.0,,0.0,0.0,97.17
2025-08-15T09:13:17.391Z,4,GR86-028-89,82.80000000000001,0.172,1.225,100.19,2.0,,0.0,0.0,
2025-08-15T09:13:17.436Z,4,GR86-028-89,72.7,0.185,1.211,100.21,2.0,,0.0,0.0,
2025-08-15T09:13:17.479Z,4,GR86-028-89,69.0,0.205,1.188,100.23,2.0,,0.0,0.0,
2025-08-15T09:13:17.522Z,4,GR86-028-89,67.10000000000001,0.25,1.207,100.23,2.0,5852.0,0.0,0.0,
2025-08-15T09:13:17.565Z,4,GR86-028-89,63.8,0.225,1.152,100.23,2.0,,0.0,0.0,97.88
2025-08-15T09:13:17.608Z,4,GR86-028-89,57.6,0.194,1.166,100.23,2.0,,0.0,0.0,
2025-08-15T09:13:17.651Z,4,GR86-028-89,50.3,0.198,1.134,100.23,2.0,,0.0,0.0,
2025-08-15T09:13:17.695Z,4,GR86-028-89,38.7,0.215,1.139,100.23,2.0,,0.0,0.0,
2025-08-15T09:13:17.738Z,4,GR86-028-89,29.3,0.23,1.168,100.23,2.0,6086.0,0.0,0.0,
2025-08-15T09:13:17.781Z,4,GR86-028-89,20.0,0.267,1.132,100.24,2.0,,0.0,0.0,99.1
2025-08-15T09:13:17.827Z,4,GR86-028-89,11.3,0.308,1.14,100.23,2.0,,0.0,0.0,
2025-08-15T09:13:17.869Z,4,GR86-028-89,4.3,0.322,1.109,100.19,2.0,,0.0,0.0,
2025-08-15T09:13:17.912Z,4,GR86-028-89,0.4,0.331,1.105,100.21,2.0,,0.0,0.0,
2025-08-15T09:13:17.955Z,4,GR86-028-89,-0.7000000000000001,0.367,1.167,100.21,2.0,6236.0,0.0,0.0,
2025-08-15T09:13:17.998Z,4,GR86-028-89,0.4,0.356,1.098,100.21,2.0,,0.0,0.0,100.59
2025-08-15T09:13:18.041Z,4,GR86-028-89,1.9,0.313,1.123,100.21,2.0,,0.0,0.0,
2025-08-15T09:13:18.085Z,4,GR86-028-89,6.300000000000001,0.289,1.106,100.23,2.0,,0.0,0.0,
2025-08-15T09:13:18.127Z,4,GR86-028-89,19.1,0.258,1.068,100.24,2.0,,0.0,0.0,
2025-08-15T09:13:18.170Z,4,GR86-028-89,36.3,0.219,1.257,100.23,2.0,6103.0,0.0,0.0,
2025-08-15T09:13:18.215Z,4,GR86-028-89,50.0,0.162,0.88,100.18,2.0,,0.0,0.0,102.08
2025-08-15T09:13:18.258Z,4,GR86-028-89,52.3,0.134,1.343,100.19,2.0,,0.0,0.0,
2025-08-15T09:13:18.301Z,4,GR86-028-89,51.0,0.339,1.012,100.18,2.0,,0.0,0.0,
2025-08-15T09:13:18.345Z,4,GR86-028-89,47.1,0.436,0.742,100.17,2.0,,0.0,0.0,
2025-08-15T09:13:18.387Z,4,GR86-028-89,44.2,0.353,0.92,100.15,2.0,6168.0,0.0,0.0,
2025-08-15T09:13:18.430Z,4,GR86-028-89,43.400000000000006,0.299,1.076,100.19,2.0,,0.0,0.0,102.44
2025-08-15T09:13:18.475Z,4,GR86-028-89,42.1,0.213,1.072,100.16,2.0,,0.0,0.0,
2025-08-15T09:13:18.518Z,4,GR86-028-89,37.7,0.24,1.139,100.13,2.0,,0.0,0.0,
2025-08-15T09:13:18.561Z,4,GR86-028-89,31.8,0.344,1.077,100.14,2.0,,0.0,0.0,
2025-08-15T09:13:18.605Z,4,GR86-028-89,27.4,0.37,0.966,100.11,2.0,6228.0,0.0,0.0,
2025-08-15T09:13:18.648Z,4,GR86-028-89,25.200000000000003,0.3,0.967,100.09,2.0,,0.0,0.0,103.91
2025-08-15T09:13:18.691Z,4,GR86-028-89,24.6,0.209,0.846,100.06,2.0,,0.0,0.0,
2025-08-15T09:13:18.736Z,4,GR86-028-89,24.6,0.342,0.785,100.03,2.0,,0.0,0.0,
2025-08-15T09:13:18.778Z,4,GR86-028-89,24.6,0.344,0.601,100.05,2.0,,0.0,0.0,
2025-08-15T09:13:18.821Z,4,GR86-028-89,25.0,0.268,0.558,100.01,2.0,6202.0,0.0,0.0,
2025-08-15T09:13:18.865Z,4,GR86-028-89,25.4,0.244,0.478,100.0,2.0,,0.0,0.0,106.78
2025-08-15T09:13:18.908Z,4,GR86-028-89,25.200000000000003,0.191,0.469,100.02,2.0,,0.0,0.0,
2025-08-15T09:13:18.951Z,4,GR86-028-89,25.0,0.138,0.502,100.01,2.0,,0.0,0.0,
2025-08-15T09:13:18.995Z,4,GR86-028-89,24.9,0.336,0.56,100.01,2.0,,0.0,0.0,
2025-08-15T09:13:19.038Z,4,GR86-028-89,24.9,0.348,0.483,100.0,2.0,6302.0,0.0,0.0,
2025-08-15T09:13:19.081Z,4,GR86-028-89,24.8,0.274,0.501,99.99,2.0,,0.0,0.0,107.78
2025-08-15T09:13:19.127Z,4,GR86-028-89,23.5,0.249,0.488,100.04,2.0,,0.0,0.0,
2025-08-15T09:13:19.169Z,4,GR86-028-89,21.3,0.209,0.481,99.98,2.0,,0.0,0.0,
2025-08-15T09:13:19.212Z,4,GR86-028-89,18.8,0.226,0.526,100.01,2.0,,0.0,0.0,
2025-08-15T09:13:19.255Z,4,GR86-028-89,16.6,0.276,0.502,100.01,2.0,6371.0,0.0,0.0,
2025-08-15T09:13:19.298Z,4,GR86-028-89,16.400000000000002,0.258,0.421,100.01,2.0,,0.0,0.0,109.57
2025-08-15T09:13:19.341Z,4,GR86-028-89,16.400000000000002,0.213,0.366,100.01,2.0,,0.0,0.0,
2025-08-15T09:13:19.386Z,4,GR86-028-89,16.5,0.274,0.256,99.97,2.0,,0.0,0.0,
2025-08-15T09:13:19.428Z,4,GR86-028-89,16.3,0.276,0.234,100.0,2.0,,0.0,0.0,
2025-08-15T09:13:19.471Z,4,GR86-028-89,15.4,0.186,0.123,100.01,2.0,6490.0,0.0,0.0,
2025-08-15T09:13:19.515Z,4,GR86-028-89,12.9,0.351,0.276,99.98,2.0,,0.0,0.0,113.78
2025-08-15T09:13:19.558Z,4,GR86-028-89,11.0,0.383,0.176,100.0,2.0,,0.0,0.0,
2025-08-15T09:13:19.601Z,4,GR86-028-89,9.1,0.367,0.197,100.0,2.0,,0.0,0.0,
2025-08-15T09:13:19.645Z,4,GR86-028-89,7.2,0.333,0.229,100.01,2.0,,0.0,0.0,
2025-08-15T09:13:19.687Z,4,GR86-028-89,5.300000000000001,0.292,0.136,99.98,2.0,6666.0,0.0,0.0,
2025-08-15T09:13:19.731Z,4,GR86-028-89,4.3,0.287,0.157,100.0,2.0,,0.0,0.0,115.43
