timestamp,lap,vehicle_id,steering_angle,accx_can,accy_can,ath,gear,nmot,pbrake_f,pbrake_r,speed
2025-08-15T01:56:23.092Z,10,GR86-057-57,-0.9,0.125,0.002,100.01,4.0,,0.0,0.0,179.0
2025-08-15T01:56:23.135Z,10,GR86-057-57,-0.7000000000000001,0.116,-0.034,100.01,4.0,,0.0,0.0,
2025-08-15T01:56:23.178Z,10,GR86-057-57,-0.7000000000000001,0.106,-0.019,100.0,4.0,,0.0,0.0,
2025-08-15T01:56:23.221Z,10,GR86-057-57,-0.7000000000000001,0.103,-0.021,99.98,4.0,,0.0,0.0,
2025-08-15T01:56:23.264Z,10,GR86-057-57,-0.5,0.132,-0.023,99.99,4.0,7050.0,0.0,0.0,
2025-08-15T01:56:23.307Z,10,GR86-057-57,0.0,0.129,-0.008,99.98,4.0,,0.0,0.0,179.62
2025-08-15T01:56:23.351Z,10,GR86-057-57,0.1,0.085,0.011,100.01,4.0,,0.0,0.0,
2025-08-15T01:56:23.393Z,10,GR86-057-57,0.1,0.092,0.026,100.01,4.0,,0.0,0.0,
2025-08-15T01:56:23.436Z,10,GR86-057-57,0.1,0.1,0.041,99.96,4.0,,0.0,0.0,
2025-08-15T01:56:23.480Z,10,GR86-057-57,0.1,0.1,0.046,100.01,4.0,7023.0,0.0,0.0,
2025-08-15T01:56:23.522Z,10,GR86-057-57,0.1,0.098,0.055,99.98,4.0,,0.0,0.0,180.42
2025-08-15T01:56:23.566Z,10,GR86-057-57,0.1,0.1,0.056,100.0,4.0,,0.0,0.0,
2025-08-15T01:56:23.611Z,10,GR86-057-57,-0.2,0.125,0.05,99.98,4.0,,0.0,0.0,
2025-08-15T01:56:23.654Z,10,GR86-057-57,-0.4,0.111,0.076,99.98,4.0,,0.0,0.0,
2025-08-15T01:56:23.697Z,10,GR86-057-57,-0.4,0.121,0.071,100.01,4.0,7097.0,0.0,0.0,
2025-08-15T01:56:23.741Z,10,GR86-057-57,-0.4,0.119,0.063,100.01,4.0,,0.0,0.0,181.12
2025-08-15T01:56:23.783Z,10,GR86-057-57,-0.4,0.121,0.06,99.99,4.0,,0.0,0.0,
2025-08-15T01:56:23.826Z,10,GR86-057-57,-0.4,0.108,0.069,99.99,4.0,,0.0,0.0,
2025-08-15T01:56:23.872Z,10,GR86-057-57,-0.2,0.108,0.079,100.0,4.0,,0.0,0.0,
2025-08-15T01:56:23.914Z,10,GR86-057-57,0.1,0.091,0.059,100.0,4.0,7135.0,0.0,0.0,
2025-08-15T01:56:23.957Z,10,GR86-057-57,0.1,0.103,0.033,99.96,4.0,,0.0,0.0,181.85
2025-08-15T01:56:24.001Z,10,GR86-057-57,0.1,0.1,0.022,99.98,4.0,,0.0,0.0,
2025-08-15T01:56:24.043Z,10,GR86-057-57,-0.1,0.106,0.029,100.0,4.0,,0.0,0.0,
2025-08-15T01:56:24.130Z,10,GR86-057-57,-0.2,0.111,0.022,100.0,4.0,7122.0,0.0,0.0,
2025-08-15T01:56:24.172Z,10,GR86-057-57,0.3,0.09,0.015,100.0,4.0,,0.0,0.0,183.33
2025-08-15T01:56:24.215Z,10,GR86-057-57,0.3,0.089,0.025,99.98,4.0,,0.0,0.0,
2025-08-15T01:56:24.258Z,10,GR86-057-57,0.4,0.099,0.026,99.98,4.0,,0.0,0.0,
2025-08-15T01:56:24.301Z,10,GR86-057-57,0.3,0.088,0.04,100.01,4.0,,0.0,0.0,
2025-08-15T01:56:24.344Z,10,GR86-057-57,0.4,0.098,0.04,100.02,4.0,7152.0,0.0,0.0,
2025-08-15T01:56:24.388Z,10,GR86-057-57,0.4,0.086,0.049,99.99,4.0,,0.0,0.0,184.08
2025-08-15T01:56:24.431Z,10,GR86-057-57,0.5,0.091,0.017,100.01,5.0,,0.0,0.0,
2025-08-15T01:56:24.517Z,10,GR86-057-57,0.5,-0.146,0.044,100.0,5.0,,0.0,0.0,
2025-08-15T01:56:24.561Z,10,GR86-057-57,1.5,0.201,-0.035,99.99,5.0,7172.0,0.0,0.0,
2025-08-15T01:56:24.604Z,10,GR86-057-57,1.3,-0.053,0.042,100.01,5.0,,0.0,0.0,184.84
2025-08-15T01:56:24.646Z,10,GR86-057-57,0.8,0.087,0.102,100.0,5.0,,0.0,0.0,
2025-08-15T01:56:24.690Z,10,GR86-057-57,0.9,0.141,0.034,100.03,5.0,,0.0,0.0,
2025-08-15T01:56:24.732Z,10,GR86-057-57,0.9,0.031,0.123,100.0,5.0,,0.0,0.0,
2025-08-15T01:56:24.775Z,10,GR86-057-57,0.9,0.05,0.064,100.01,5.0,6094.0,0.0,0.0,
2025-08-15T01:56:24.818Z,10,GR86-057-57,0.9,0.097,0.07,99.99,5.0,,0.0,0.0,185.41
2025-08-15T01:56:24.861Z,10,GR86-057-57,0.9,0.082,0.114,100.0,5.0,,0.0,0.0,
2025-08-15T01:56:24.904Z,10,GR86-057-57,1.3,0.08,0.091,100.0,5.0,,0.0,0.0,
2025-08-15T01:56:24.948Z,10,GR86-057-57,1.8,0.085,0.114,100.0,5.0,,0.0,0.0,
2025-08-15T01:56:24.991Z,10,GR86-057-57,1.8,0.082,0.127,100.01,5.0,6300.0,0.0,0.0,
2025-08-15T01:56:25.034Z,10,GR86-057-57,1.5,0.08,0.108,100.01,5.0,,0.0,0.0,186.22
2025-08-15T01:56:25.077Z,10,GR86-057-57,1.3,0.058,0.069,100.0,5.0,,0.0,0.0,
2025-08-15T01:56:25.121Z,10,GR86-057-57,1.2000000000000002,0.087,0.068,99.99,5.0,,0.0,0.0,
2025-08-15T01:56:25.163Z,10,GR86-057-57,1.2000000000000002,0.081,0.097,99.98,5.0,,0.0,0.0,
2025-08-15T01:56:25.206Z,10,GR86-057-57,1.2000000000000002,0.101,0.112,100.02,5.0,6350.0,0.0,0.0,
2025-08-15T01:56:25.250Z,10,GR86-057-57,1.2000000000000002,0.09,0.094,100.01,5.0,,0.0,0.0,186.87
2025-08-15T01:56:25.292Z,10,GR86-057-57,1.1,0.106,0.081,100.02,5.0,,0.0,0.0,
2025-08-15T01:56:25.335Z,10,GR86-057-57,1.1,0.106,0.089,100.01,5.0,,0.0,0.0,
2025-08-15T01:56:25.378Z,10,GR86-057-57,1.2000000000000002,0.1,0.086,99.99,5.0,,0.0,0.0,
2025-08-15T01:56:25.421Z,10,GR86-057-57,1.2000000000000002,0.098,0.077,100.0,5.0,6393.0,0.0,0.0,
2025-08-15T01:56:25.464Z,10,GR86-057-57,1.2000000000000002,0.092,0.089,99.98,5.0,,0.0,0.0,187.34
2025-08-15T01:56:25.507Z,10,GR86-057-57,1.2000000000000002,0.089,0.086,100.0,5.0,,0.0,0.0,
2025-08-15T01:56:25.551Z,10,GR86-057-57,1.3,0.095,0.104,100.0,5.0,,0.0,0.0,
2025-08-15T01:56:25.594Z,10,GR86-057-57,1.3,0.095,0.097,100.0,5.0,,0.0,0.0,
2025-08-15T01:56:25.636Z,10,GR86-057-57,1.3,0.097,0.098,100.02,5.0,6365.0,0.0,0.0,
2025-08-15T01:56:25.680Z,10,GR86-057-57,1.3,0.109,0.099,99.99,5.0,,0.0,0.0,188.03
2025-08-15T01:56:25.722Z,10,GR86-057-57,1.3,0.094,0.119,100.01,5.0,,0.0,0.0,
2025-08-15T01:56:25.765Z,10,GR86-057-57,1.3,0.099,0.103,99.99,5.0,,0.0,0.0,
2025-08-15T01:56:25.808Z,10,GR86-057-57,1.3,0.102,0.094,100.01,5.0,,0.0,0.0,
2025-08-15T01:56:25.894Z,10,GR86-057-57,1.3,0.087,0.097,100.0,5.0,6373.0,0.0,0.0,188.72
2025-08-15T01:56:25.937Z,10,GR86-057-57,1.2000000000000002,0.084,0.12,99.99,5.0,,0.0,0.0,
2025-08-15T01:56:25.981Z,10,GR86-057-57,1.1,0.097,0.12,100.0,5.0,,0.0,0.0,
2025-08-15T01:56:26.023Z,10,GR86-057-57,1.1,0.082,0.112,99.98,5.0,,0.0,0.0,
2025-08-15T01:56:26.066Z,10,GR86-057-57,1.1,0.087,0.093,100.0,5.0,6438.0,0.0,0.0,
2025-08-15T01:56:26.110Z,10,GR86-057-57,1.1,0.077,0.102,100.0,5.0,,0.0,0.0,189.39
2025-08-15T01:56:26.195Z,10,GR86-057-57,0.8,0.072,0.101,100.0,5.0,,0.0,0.0,
2025-08-15T01:56:26.281Z,10,GR86-057-57,0.6000000000000001,0.061,0.079,99.99,5.0,6425.0,0.0,0.0,
2025-08-15T01:56:26.324Z,10,GR86-057-57,0.6000000000000001,0.08,0.075,100.0,5.0,,0.0,0.0,190.08
2025-08-15T01:56:26.367Z,10,GR86-057-57,0.6000000000000001,0.08,0.067,100.03,5.0,,0.0,0.0,
2025-08-15T01:56:26.411Z,10,GR86-057-57,0.6000000000000001,0.074,0.061,99.99,5.0,,0.0,0.0,
2025-08-15T01:56:26.454Z,10,GR86-057-57,0.6000000000000001,0.081,0.053,100.01,5.0,,0.0,0.0,
2025-08-15T01:56:26.498Z,10,GR86-057-57,0.6000000000000001,0.091,0.063,99.98,5.0,6479.0,0.0,0.0,
2025-08-15T01:56:26.541Z,10,GR86-057-57,0.6000000000000001,0.079,0.051,100.0,5.0,,0.0,0.0,190.71
2025-08-15T01:56:26.584Z,10,GR86-057-57,0.4,0.073,0.055,100.01,5.0,,0.0,0.0,
2025-08-15T01:56:26.627Z,10,GR86-057-57,0.2,0.079,0.065,100.01,5.0,,0.0,0.0,
2025-08-15T01:56:26.672Z,10,GR86-057-57,0.0,0.066,0.043,100.02,5.0,,0.0,0.0,
2025-08-15T01:56:26.714Z,10,GR86-057-57,-0.2,0.07,0.035,99.98,5.0,6504.0,0.0,0.0,
2025-08-15T01:56:26.757Z,10,GR86-057-57,-0.3,0.073,0.041,100.01,5.0,,0.0,0.0,191.35
2025-08-15T01:56:26.801Z,10,GR86-057-57,-0.4,0.074,0.062,100.01,5.0,,0.0,0.0,
2025-08-15T01:56:26.843Z,10,GR86-057-57,-0.4,0.072,0.043,99.99,5.0,,0.0,0.0,
2025-08-15T01:56:26.886Z,10,GR86-057-57,-0.4,0.08,0.025,99.98,5.0,,0.0,0.0,
2025-08-15T01:56:26.930Z,10,GR86-057-57,-0.4,0.063,0.028,99.98,5.0,6478.0,0.0,0.0,
2025-08-15T01:56:26.972Z,10,GR86-057-57,-0.4,0.063,0.02,100.0,5.0,,0.0,0.0,192.54
2025-08-15T01:56:27.015Z,10,GR86-057-57,-0.4,0.066,0.032,100.02,5.0,,0.0,0.0,
2025-08-15T01:56:27.058Z,10,GR86-057-57,-0.4,0.066,0.02,100.01,5.0,,0.0,0.0,
2025-08-15T01:56:27.101Z,10,GR86-057-57,-0.4,0.075,0.02,100.01,5.0,,0.0,0.0,
2025-08-15T01:56:27.144Z,10,GR86-057-57,-0.4,0.077,0.024,99.98,5.0,6510.0,0.0,0.0,
2025-08-15T01:56:27.187Z,10,GR86-057-57,-0.4,0.073,0.021,100.0,5.0,,0.0,0.0,193.27
2025-08-15T01:56:27.231Z,10,GR86-057-57,-0.4,0.057,0.03,100.01,5.0,,0.0,0.0,
2025-08-15T01:56:27.317Z,10,GR86-057-57,-0.6000000000000001,0.077,0.016,99.98,5.0,,0.0,0.0,
2025-08-15T01:56:27.361Z,10,GR86-057-57,-1.0,0.07,0.023,100.0,5.0,6568.0,0.0,0.0,
2025-08-15T01:56:27.404Z,10,GR86-057-57,-1.4,0.065,0.017,100.01,5.0,,0.0,0.0,193.9
2025-08-15T01:56:27.447Z,10,GR86-057-57,-1.5,0.081,0.026,100.01,5.0,,0.0,0.0,
2025-08-15T01:56:27.491Z,10,GR86-057-57,-1.7000000000000002,0.078,0.034,100.01,5.0,,0.0,0.0,
2025-08-15T01:56:27.534Z,10,GR86-057-57,-1.7000000000000002,0.064,0.011,99.99,5.0,,0.0,0.0,
2025-08-15T01:56:27.577Z,10,GR86-057-57,-1.7000000000000002,0.069,-0.007,100.0,5.0,6611.0,0.0,0.0,
2025-08-15T01:56:27.620Z,10,GR86-057-57,-1.8,0.065,-0.009,100.0,5.0,,0.0,0.0,194.55
2025-08-15T01:56:27.664Z,10,GR86-057-57,-2.1,0.075,-0.037,99.99,5.0,,0.0,0.0,
2025-08-15T01:56:27.707Z,10,GR86-057-57,-2.5,0.081,-0.06,99.99,5.0,,0.0,0.0,
2025-08-15T01:56:27.751Z,10,GR86-057-57,-2.8000000000000003,0.061,-0.067,99.99,5.0,,0.0,0.0,
2025-08-15T01:56:27.793Z,10,GR86-057-57,-2.8000000000000003,0.064,-0.089,100.0,5.0,6627.0,0.0,0.0,
2025-08-15T01:56:27.837Z,10,GR86-057-57,-2.8000000000000003,0.043,-0.06,99.98,5.0,,0.0,0.0,195.18
2025-08-15T01:56:27.880Z,10,GR86-057-57,-2.8000000000000003,0.084,-0.057,100.0,5.0,,0.0,0.0,
2025-08-15T01:56:27.922Z,10,GR86-057-57,-2.8000000000000003,0.064,-0.083,100.0,5.0,,0.0,0.0,
2025-08-15T01:56:27.965Z,10,GR86-057-57,-2.8000000000000003,0.077,-0.099,100.0,5.0,,0.0,0.0,
2025-08-15T01:56:28.008Z,10,GR86-057-57,-2.8000000000000003,0.07,-0.106,100.0,5.0,6615.0,0.0,0.0,
2025-08-15T01:56:28.094Z,10,GR86-057-57,-2.9000000000000004,0.076,-0.114,99.99,5.0,,0.0,0.0,195.87
2025-08-15T01:56:28.137Z,10,GR86-057-57,-3.2,0.073,-0.121,100.02,5.0,,0.0,0.0,
2025-08-15T01:56:28.181Z,10,GR86-057-57,-3.2,0.075,-0.112,99.99,5.0,,0.0,0.0,
2025-08-15T01:56:28.223Z,10,GR86-057-57,-3.3000000000000003,0.081,-0.107,100.0,5.0,6633.0,0.0,0.0,
2025-08-15T01:56:28.267Z,10,GR86-057-57,-3.3000000000000003,0.083,-0.109,100.02,5.0,,0.0,0.0,196.52
2025-08-15T01:56:28.311Z,10,GR86-057-57,-3.4000000000000004,0.06,-0.094,99.99,5.0,,0.0,0.0,
2025-08-15T01:56:28.354Z,10,GR86-057-57,-3.4000000000000004,0.073,-0.091,99.98,5.0,,0.0,0.0,
2025-08-15T01:56:28.397Z,10,GR86-057-57,-3.4000000000000004,0.068,-0.113,99.99,5.0,,0.0,0.0,
2025-08-15T01:56:28.441Z,10,GR86-057-57,-3.5,0.085,-0.13,100.0,5.0,6695.0,0.0,0.0,
2025-08-15T01:56:28.483Z,10,GR86-057-57,-3.5,0.078,-0.11,100.01,5.0,,0.0,0.0,197.15
2025-08-15T01:56:28.526Z,10,GR86-057-57,-3.7,0.08,-0.114,99.98,5.0,,0.0,0.0,
2025-08-15T01:56:28.571Z,10,GR86-057-57,-3.8,0.068,-0.117,100.0,5.0,,0.0,0.0,
2025-08-15T01:56:28.614Z,10,GR86-057-57,-3.9,0.07,-0.125,99.99,5.0,,0.0,0.0,
2025-08-15T01:56:28.657Z,10,GR86-057-57,-4.2,0.087,-0.134,99.99,5.0,6678.0,0.0,0.0,
2025-08-15T01:56:28.701Z,10,GR86-057-57,-4.5,0.075,-0.131,100.0,5.0,,0.0,0.0,197.73
2025-08-15T01:56:28.744Z,10,GR86-057-57,-4.6000000000000005,0.079,-0.137,100.01,5.0,,0.0,0.0,
2025-08-15T01:56:28.830Z,10,GR86-057-57,-4.6000000000000005,0.062,-0.132,100.0,5.0,,0.0,0.0,
2025-08-15T01:56:28.872Z,10,GR86-057-57,-4.6000000000000005,0.081,-0.163,99.98,5.0,6694.0,0.0,0.0,
2025-08-15T01:56:28.915Z,10,GR86-057-57,-4.6000000000000005,0.081,-0.165,99.99,5.0,,0.0,0.0,198.39
2025-08-15T01:56:28.958Z,10,GR86-057-57,-4.6000000000000005,0.076,-0.17,100.01,5.0,,0.0,0.0,
2025-08-15T01:56:29.001Z,10,GR86-057-57,-4.6000000000000005,0.062,-0.174,99.98,5.0,,0.0,0.0,
2025-08-15T01:56:29.044Z,10,GR86-057-57,-4.6000000000000005,0.055,-0.166,99.99,5.0,,0.0,0.0,
2025-08-15T01:56:29.087Z,10,GR86-057-57,-4.6000000000000005,0.038,-0.148,99.99,5.0,6761.0,0.0,0.0,
2025-08-15T01:56:29.131Z,10,GR86-057-57,-4.1000000000000005,0.07,-0.161,99.98,5.0,,0.0,0.0,198.92
2025-08-15T01:56:29.174Z,10,GR86-057-57,-3.3000000000000003,0.071,-0.163,99.99,5.0,,0.0,0.0,
2025-08-15T01:56:29.217Z,10,GR86-057-57,-2.2,0.067,-0.166,100.0,5.0,,0.0,0.0,
2025-08-15T01:56:29.261Z,10,GR86-057-57,-1.8,0.056,-0.143,100.01,5.0,,0.0,0.0,
2025-08-15T01:56:29.304Z,10,GR86-057-57,-1.8,0.062,-0.133,99.99,5.0,6772.0,0.0,0.0,
2025-08-15T01:56:29.390Z,10,GR86-057-57,-2.0,0.047,-0.103,99.98,5.0,,0.0,0.0,199.6
2025-08-15T01:56:29.434Z,10,GR86-057-57,-2.4000000000000004,0.063,-0.102,99.98,5.0,,0.0,0.0,
2025-08-15T01:56:29.476Z,10,GR86-057-57,-2.4000000000000004,0.052,-0.072,99.99,5.0,,0.0,0.0,
2025-08-15T01:56:29.520Z,10,GR86-057-57,-2.4000000000000004,0.056,-0.044,99.99,5.0,6761.0,0.0,0.0,
2025-08-15T01:56:29.562Z,10,GR86-057-57,-2.4000000000000004,0.042,-0.027,100.0,5.0,,0.0,0.0,200.02
2025-08-15T01:56:29.606Z,10,GR86-057-57,-2.4000000000000004,0.088,-0.041,100.01,5.0,,0.0,0.0,
2025-08-15T01:56:29.648Z,10,GR86-057-57,-2.3000000000000003,0.081,-0.052,100.0,5.0,,0.0,0.0,
2025-08-15T01:56:29.691Z,10,GR86-057-57,-1.9,0.046,-0.044,100.02,5.0,,0.0,0.0,
2025-08-15T01:56:29.734Z,10,GR86-057-57,-1.5,0.059,-0.059,100.0,5.0,6811.0,0.0,0.0,
2025-08-15T01:56:29.777Z,10,GR86-057-57,-1.5,0.063,-0.059,100.0,5.0,,0.0,0.0,201.02
2025-08-15T01:56:29.821Z,10,GR86-057-57,-1.6,0.101,-0.066,99.99,5.0,,0.0,0.0,
2025-08-15T01:56:29.863Z,10,GR86-057-57,-1.9,0.065,-0.083,100.0,5.0,,0.0,0.0,
2025-08-15T01:56:29.906Z,10,GR86-057-57,-1.9,0.081,-0.045,100.0,5.0,,0.0,0.0,
2025-08-15T01:56:29.950Z,10,GR86-057-57,-1.9,0.082,-0.025,100.01,5.0,6833.0,0.0,0.0,
2025-08-15T01:56:29.992Z,10,GR86-057-57,-1.3,0.08,-0.007,99.99,5.0,,0.0,0.0,201.5
2025-08-15T01:56:30.035Z,10,GR86-057-57,-0.7000000000000001,0.068,-0.029,99.99,5.0,,0.0,0.0,
2025-08-15T01:56:30.078Z,10,GR86-057-57,-0.7000000000000001,0.08,-0.04,100.0,5.0,,0.0,0.0,
2025-08-15T01:56:30.121Z,10,GR86-057-57,-0.9,0.068,-0.024,100.01,5.0,,0.0,0.0,
2025-08-15T01:56:30.164Z,10,GR86-057-57,-1.4,0.064,-0.023,100.0,5.0,6807.0,0.0,0.0,
2025-08-15T01:56:30.208Z,10,GR86-057-57,-1.5,0.046,-0.017,100.02,5.0,,0.0,0.0,202.05
2025-08-15T01:56:30.251Z,10,GR86-057-57,-1.5,0.075,-0.03,100.0,5.0,,0.0,0.0,
2025-08-15T01:56:30.294Z,10,GR86-057-57,-1.6,0.077,-0.043,100.02,5.0,,0.0,0.0,
2025-08-15T01:56:30.337Z,10,GR86-057-57,-1.8,0.052,-0.039,100.0,5.0,,0.0,0.0,
2025-08-15T01:56:30.381Z,10,GR86-057-57,-1.9,0.059,-0.032,100.02,5.0,6832.0,0.0,0.0,
2025-08-15T01:56:30.424Z,10,GR86-057-57,-1.9,0.044,-0.057,99.99,5.0,,0.0,0.0,202.46
2025-08-15T01:56:30.466Z,10,GR86-057-57,-1.7000000000000002,0.079,-0.056,100.0,5.0,,0.0,0.0,
2025-08-15T01:56:30.511Z,10,GR86-057-57,-1.2000000000000002,0.061,-0.038,100.0,5.0,,0.0,0.0,
2025-08-15T01:56:30.554Z,10,GR86-057-57,-0.7000000000000001,0.04,-0.039,100.0,5.0,,0.0,0.0,
2025-08-15T01:56:30.597Z,10,GR86-057-57,-0.1,0.074,-0.035,100.01,5.0,6852.0,0.0,0.0,
2025-08-15T01:56:30.641Z,10,GR86-057-57,0.2,0.061,-0.042,100.01,5.0,,0.0,0.0,203.03
2025-08-15T01:56:30.683Z,10,GR86-057-57,0.2,0.09,-0.034,99.99,5.0,,0.0,0.0,
2025-08-15T01:56:30.726Z,10,GR86-057-57,0.2,0.075,-0.004,99.99,5.0,,0.0,0.0,
2025-08-15T01:56:30.772Z,10,GR86-057-57,0.2,0.061,-0.009,100.01,5.0,,0.0,0.0,
2025-08-15T01:56:30.815Z,10,GR86-057-57,0.2,0.066,0.005,100.0,5.0,6877.0,0.0,0.0,
2025-08-15T01:56:30.858Z,10,GR86-057-57,0.2,0.087,0.02,100.0,5.0,,0.0,0.0,203.53
2025-08-15T01:56:30.901Z,10,GR86-057-57,0.2,0.06,0.026,100.01,5.0,,0.0,0.0,
2025-08-15T01:56:30.944Z,10,GR86-057-57,0.3,0.061,0.06,99.99,5.0,,0.0,0.0,
2025-08-15T01:56:30.988Z,10,GR86-057-57,0.3,0.06,0.079,100.02,5.0,,0.0,0.0,
2025-08-15T01:56:31.031Z,10,GR86-057-57,0.0,0.069,0.045,99.99,5.0,6888.0,0.0,0.0,
2025-08-15T01:56:31.074Z,10,GR86-057-57,-0.4,0.045,0.038,100.0,5.0,,0.0,0.0,204.09
2025-08-15T01:56:31.117Z,10,GR86-057-57,-0.9,0.057,0.044,99.99,5.0,,0.0,0.0,
2025-08-15T01:56:31.161Z,10,GR86-057-57,-1.3,0.039,0.057,100.01,5.0,,0.0,0.0,
2025-08-15T01:56:31.204Z,10,GR86-057-57,-1.3,0.041,0.031,100.02,5.0,,0.0,0.0,
2025-08-15T01:56:31.246Z,10,GR86-057-57,-1.2000000000000002,0.052,0.023,100.0,5.0,6912.0,0.0,0.0,
2025-08-15T01:56:31.290Z,10,GR86-057-57,-0.4,0.044,-0.009,99.97,5.0,,0.0,0.0,204.55
2025-08-15T01:56:31.332Z,10,GR86-057-57,-0.3,0.043,-0.008,99.99,5.0,,0.0,0.0,
2025-08-15T01:56:31.375Z,10,GR86-057-57,-0.3,0.05,-0.018,100.0,5.0,,0.0,0.0,
2025-08-15T01:56:31.418Z,10,GR86-057-57,-0.4,0.046,-0.032,99.98,5.0,,0.0,0.0,
2025-08-15T01:56:31.461Z,10,GR86-057-57,-0.8,0.056,-0.046,99.99,5.0,6966.0,0.0,0.0,
2025-08-15T01:56:31.504Z,10,GR86-057-57,-0.9,0.048,-0.039,99.99,5.0,,0.0,0.0,205.06
2025-08-15T01:56:31.547Z,10,GR86-057-57,-0.7000000000000001,0.055,-0.012,100.01,5.0,,0.0,0.0,
2025-08-15T01:56:31.591Z,10,GR86-057-57,-0.7000000000000001,0.064,-0.009,100.0,5.0,,0.0,0.0,
2025-08-15T01:56:31.634Z,10,GR86-057-57,-1.0,0.053,0.001,100.01,5.0,,0.0,0.0,
2025-08-15T01:56:31.677Z,10,GR86-057-57,-1.0,0.062,-0.009,100.01,5.0,6970.0,0.0,0.0,
2025-08-15T01:56:31.721Z,10,GR86-057-57,-0.9,0.054,-0.018,99.99,5.0,,0.0,0.0,205.55
2025-08-15T01:56:31.763Z,10,GR86-057-57,-0.9,0.06,-0.012,100.01,5.0,,0.0,0.0,
2025-08-15T01:56:31.806Z,10,GR86-057-57,-1.0,0.037,-0.016,100.0,5.0,,0.0,0.0,
2025-08-15T01:56:31.850Z,10,GR86-057-57,-1.0,0.051,-0.003,49.44,5.0,,0.0,0.0,
2025-08-15T01:56:31.892Z,10,GR86-057-57,-0.9,0.075,-0.021,4.83,5.0,6942.0,0.0,0.0,
2025-08-15T01:56:31.935Z,10,GR86-057-57,-0.6000000000000001,0.04,-0.043,3.4,5.0,,0.0,0.0,205.92
2025-08-15T01:56:31.978Z,10,GR86-057-57,-0.1,-0.189,-0.019,3.18,5.0,,0.0,0.0,
2025-08-15T01:56:32.021Z,10,GR86-057-57,0.6000000000000001,-0.248,0.034,3.0500000000000003,5.0,,23.99,24.37,
2025-08-15T01:56:32.064Z,10,GR86-057-57,1.1,-0.416,0.01,2.96,5.0,,43.675,43.55,
2025-08-15T01:56:32.108Z,10,GR86-057-57,1.2000000000000002,-0.751,0.034,2.9,5.0,6947.0,52.370000000000005,51.745000000000005,
2025-08-15T01:56:32.151Z,10,GR86-057-57,1.4,-1.098,-0.015,2.77,5.0,,66.275,65.205,206.26
2025-08-15T01:56:32.194Z,10,GR86-057-57,1.3,-1.23,0.005,2.65,5.0,,72.73,71.675,
2025-08-15T01:56:32.237Z,10,GR86-057-57,0.2,-1.255,0.016,2.56,5.0,,76.08500000000001,75.28,
2025-08-15T01:56:32.281Z,10,GR86-057-57,-0.2,-1.204,-0.007,2.54,5.0,,77.675,76.985,
2025-08-15T01:56:32.323Z,10,GR86-057-57,0.1,-1.198,-0.024,2.52,5.0,6738.0,80.22,81.52,
2025-08-15T01:56:32.366Z,10,GR86-057-57,0.6000000000000001,-1.306,-0.06,2.51,5.0,,81.185,81.0,206.64
2025-08-15T01:56:32.410Z,10,GR86-057-57,1.1,-1.532,-0.005,2.48,5.0,,81.96000000000001,81.96000000000001,
2025-08-15T01:56:32.454Z,10,GR86-057-57,2.6,-1.313,0.006,2.49,5.0,,83.215,83.99,
2025-08-15T01:56:32.497Z,10,GR86-057-57,4.2,-1.243,-0.068,2.48,5.0,,82.175,82.465,
2025-08-15T01:56:32.541Z,10,GR86-057-57,4.2,-1.342,-0.069,2.48,5.0,6667.0,82.495,83.99,
2025-08-15T01:56:32.584Z,10,GR86-057-57,3.7,-1.321,-0.061,2.47,5.0,,80.285,80.345,194.7
2025-08-15T01:56:32.626Z,10,GR86-057-57,4.3,-1.377,-0.074,15.86,5.0,,77.965,77.55,
2025-08-15T01:56:32.672Z,10,GR86-057-57,7.4,-1.23,-0.162,61.64,4.0,,78.74,79.78,
2025-08-15T01:56:32.714Z,10,GR86-057-57,7.7,-1.293,-0.189,6.18,4.0,,79.69,80.59,
2025-08-15T01:56:32.757Z,10,GR86-057-57,4.4,-1.303,-0.104,4.13,4.0,5871.0,79.9,81.685,
2025-08-15T01:56:32.801Z,10,GR86-057-57,4.2,-1.255,-0.138,3.72,4.0,,73.935,74.715,184.02
2025-08-15T01:56:32.843Z,10,GR86-057-57,7.300000000000001,-1.302,-0.287,3.38,4.0,,68.99,69.4,
2025-08-15T01:56:32.886Z,10,GR86-057-57,8.5,-1.156,-0.119,3.21,4.0,,69.28,70.625,
2025-08-15T01:56:32.930Z,10,GR86-057-57,9.5,-1.064,-0.297,3.0500000000000003,4.0,,65.08500000000001,65.71000000000001,
2025-08-15T01:56:32.972Z,10,GR86-057-57,10.4,-1.252,-0.117,2.93,4.0,6115.0,65.525,66.425,
2025-08-15T01:56:33.015Z,10,GR86-057-57,9.6,-1.174,-0.115,2.87,4.0,,67.69500000000001,68.775,176.65
2025-08-15T01:56:33.058Z,10,GR86-057-57,7.0,-1.175,-0.165,2.78,4.0,,68.5,68.535,
2025-08-15T01:56:33.101Z,10,GR86-057-57,4.800000000000001,-1.184,-0.11,2.68,4.0,,67.495,67.465,
2025-08-15T01:56:33.144Z,10,GR86-057-57,4.2,-1.237,-0.15,2.63,4.0,,67.58500000000001,67.815,
2025-08-15T01:56:33.188Z,10,GR86-057-57,4.1000000000000005,-1.172,-0.114,2.58,4.0,6047.0,69.465,70.395,
2025-08-15T01:56:33.231Z,10,GR86-057-57,3.8,-1.192,-0.084,2.52,4.0,,70.0,69.965,168.42000000000002
2025-08-15T01:56:33.274Z,10,GR86-057-57,3.7,-1.272,-0.039,2.51,4.0,,69.525,69.58500000000001,
2025-08-15T01:56:33.317Z,10,GR86-057-57,4.0,-1.243,-0.036,29.0,4.0,,70.33500000000001,71.235,
2025-08-15T01:56:33.361Z,10,GR86-057-57,3.1,-1.223,-0.041,74.94,4.0,,69.555,69.8,
2025-08-15T01:56:33.404Z,10,GR86-057-57,0.4,-1.198,-0.043,88.52,3.0,5885.0,67.36,67.265,
2025-08-15T01:56:33.447Z,10,GR86-057-57,-3.3000000000000003,-1.28,-0.059,20.03,3.0,,66.73,67.465,160.1
2025-08-15T01:56:33.491Z,10,GR86-057-57,-7.300000000000001,-1.215,-0.023,2.83,3.0,,67.495,68.775,
2025-08-15T01:56:33.534Z,10,GR86-057-57,-7.4,-1.151,-0.248,2.71,3.0,,63.495000000000005,64.215,
2025-08-15T01:56:33.576Z,10,GR86-057-57,-7.2,-1.346,-0.093,2.61,3.0,,57.895,58.875,
2025-08-15T01:56:33.620Z,10,GR86-057-57,-6.5,-1.054,-0.173,2.56,3.0,5477.0,51.0,51.93,
2025-08-15T01:56:33.664Z,10,GR86-057-57,-6.0,-0.897,-0.304,2.5500000000000003,3.0,,42.515,42.805,151.35
2025-08-15T01:56:33.707Z,10,GR86-057-57,-6.5,-0.979,-0.235,2.52,3.0,,38.18,38.38,
2025-08-15T01:56:33.751Z,10,GR86-057-57,-7.800000000000001,-0.863,-0.359,2.52,3.0,,37.74,38.045,
2025-08-15T01:56:33.794Z,10,GR86-057-57,-10.0,-0.88,-0.381,2.52,3.0,,38.56,39.125,
2025-08-15T01:56:33.837Z,10,GR86-057-57,-13.6,-0.869,-0.421,2.52,3.0,6100.0,39.095,39.43,
2025-08-15T01:56:33.881Z,10,GR86-057-57,-16.6,-0.884,-0.487,2.5,3.0,,38.625,39.34,144.15
2025-08-15T01:56:33.923Z,10,GR86-057-57,-17.6,-0.859,-0.532,2.49,3.0,,35.205,36.15,
2025-08-15T01:56:33.968Z,10,GR86-057-57,-16.2,-0.78,-0.642,2.49,3.0,,30.365,31.36,
2025-08-15T01:56:34.054Z,10,GR86-057-57,-16.2,-0.798,-0.751,2.49,3.0,6071.0,22.905,23.835,
2025-08-15T01:56:34.097Z,10,GR86-057-57,-18.1,-0.512,-0.772,2.49,3.0,,17.81,18.495,137.11
2025-08-15T01:56:34.141Z,10,GR86-057-57,-17.8,-0.528,-0.788,2.5,3.0,,16.830000000000002,17.52,
2025-08-15T01:56:34.183Z,10,GR86-057-57,-17.7,-0.498,-0.793,2.49,3.0,,15.75,16.28,
2025-08-15T01:56:34.226Z,10,GR86-057-57,-18.6,-0.489,-0.8190000000000001,2.49,3.0,,15.655,16.375,
2025-08-15T01:56:34.271Z,10,GR86-057-57,-23.8,-0.539,-0.837,2.5,3.0,5664.0,16.405,17.0,
2025-08-15T01:56:34.357Z,10,GR86-057-57,-33.5,-0.534,-0.955,2.48,3.0,,17.490000000000002,18.115,132.3
2025-08-15T01:56:34.401Z,10,GR86-057-57,-34.0,-0.534,-0.947,2.48,3.0,,17.81,18.495,
2025-08-15T01:56:34.444Z,10,GR86-057-57,-30.9,-0.547,-0.985,2.49,3.0,,17.685,18.085,
2025-08-15T01:56:34.486Z,10,GR86-057-57,-25.6,-0.539,-1.039,2.5,3.0,5699.0,14.545,15.335,
2025-08-15T01:56:34.572Z,10,GR86-057-57,-17.400000000000002,-0.421,-1.04,2.49,3.0,,4.47,4.99,128.63
2025-08-15T01:56:34.615Z,10,GR86-057-57,-7.6,-0.199,-0.987,2.49,3.0,,0.0,0.0,
2025-08-15T01:56:34.658Z,10,GR86-057-57,-3.1,-0.14,-0.947,2.48,3.0,,0.0,0.0,
2025-08-15T01:56:34.701Z,10,GR86-057-57,-1.8,-0.132,-0.911,2.51,3.0,5458.0,0.0,0.0,
2025-08-15T01:56:34.787Z,10,GR86-057-57,-13.9,-0.159,-0.865,23.74,3.0,,0.0,0.0,124.94
2025-08-15T01:56:34.831Z,10,GR86-057-57,-26.9,-0.144,-0.835,23.46,3.0,,0.0,0.0,
2025-08-15T01:56:34.874Z,10,GR86-057-57,-35.300000000000004,-0.09,-0.804,26.55,3.0,,0.0,0.0,
2025-08-15T01:56:34.917Z,10,GR86-057-57,-42.5,-0.104,-0.786,30.13,3.0,5310.0,0.0,0.0,
2025-08-15T01:56:34.961Z,10,GR86-057-57,-46.7,-0.039,-0.793,29.41,3.0,,0.0,0.0,121.62
2025-08-15T01:56:35.004Z,10,GR86-057-57,-48.8,0.19,-0.81,29.06,3.0,,0.0,0.0,
2025-08-15T01:56:35.046Z,10,GR86-057-57,-50.6,0.134,-0.8280000000000001,32.480000000000004,3.0,,0.0,0.0,
2025-08-15T01:56:35.090Z,10,GR86-057-57,-54.400000000000006,0.012,-0.88,34.97,3.0,,0.0,0.0,
2025-08-15T01:56:35.134Z,10,GR86-057-57,-56.8,0.031,-0.948,32.33,3.0,5346.0,0.0,0.0,
2025-08-15T01:56:35.176Z,10,GR86-057-57,-57.7,0.077,-1.01,31.24,3.0,,0.0,0.0,117.74
2025-08-15T01:56:35.220Z,10,GR86-057-57,-55.7,0.104,-1.098,32.01,3.0,,0.0,0.0,
2025-08-15T01:56:35.262Z,10,GR86-057-57,-50.7,0.082,-1.116,32.95,3.0,,0.0,0.0,
2025-08-15T01:56:35.306Z,10,GR86-057-57,-45.3,0.054,-1.103,36.86,3.0,,0.0,0.0,
2025-08-15T01:56:35.348Z,10,GR86-057-57,-43.6,0.074,-1.078,53.78,3.0,5653.0,0.0,0.0,
2025-08-15T01:56:35.391Z,10,GR86-057-57,-48.8,0.093,-1.064,66.54,3.0,,0.0,0.0,117.65
2025-08-15T01:56:35.434Z,10,GR86-057-57,-51.8,0.14,-1.132,62.8,3.0,,0.0,0.0,
2025-08-15T01:56:35.477Z,10,GR86-057-57,-52.7,0.163,-1.174,56.14,3.0,,0.0,0.0,
2025-08-15T01:56:35.521Z,10,GR86-057-57,-52.1,0.174,-1.141,46.96,3.0,,0.0,0.0,
2025-08-15T01:56:35.563Z,10,GR86-057-57,-50.6,0.166,-1.127,41.56,3.0,5553.0,0.0,0.0,
2025-08-15T01:56:35.606Z,10,GR86-057-57,-48.2,0.128,-1.109,42.08,3.0,,0.0,0.0,119.39
2025-08-15T01:56:35.650Z,10,GR86-057-57,-44.6,0.099,-1.104,44.53,3.0,,0.0,0.0,
2025-08-15T01:56:35.692Z,10,GR86-057-57,-44.900000000000006,0.11,-1.111,45.22,3.0,,0.0,0.0,
2025-08-15T01:56:35.778Z,10,GR86-057-57,-46.3,0.126,-1.122,46.99,3.0,5598.0,0.0,0.0,
2025-08-15T01:56:35.821Z,10,GR86-057-57,-48.400000000000006,0.157,-1.073,45.16,3.0,,0.0,0.0,119.83
2025-08-15T01:56:35.864Z,10,GR86-057-57,-49.5,0.129,-1.095,46.59,3.0,,0.0,0.0,
2025-08-15T01:56:35.908Z,10,GR86-057-57,-50.7,0.084,-0.997,46.76,3.0,,0.0,0.0,
2025-08-15T01:56:35.951Z,10,GR86-057-57,-51.5,0.079,-1.109,43.6,3.0,,0.0,0.0,
2025-08-15T01:56:35.994Z,10,GR86-057-57,-51.1,0.129,-1.173,40.25,3.0,5638.0,0.0,0.0,
2025-08-15T01:56:36.037Z,10,GR86-057-57,-49.0,0.16,-1.179,35.730000000000004,3.0,,0.0,0.0,120.6
2025-08-15T01:56:36.081Z,10,GR86-057-57,-47.3,0.135,-1.119,32.83,3.0,,0.0,0.0,
2025-08-15T01:56:36.124Z,10,GR86-057-57,-47.2,0.109,-1.056,31.34,3.0,,0.0,0.0,
2025-08-15T01:56:36.211Z,10,GR86-057-57,-48.8,0.102,-1.099,39.62,3.0,5680.0,0.0,0.0,
2025-08-15T01:56:36.254Z,10,GR86-057-57,-48.900000000000006,0.061,-1.205,76.65,3.0,,0.0,0.0,121.27
2025-08-15T01:56:36.297Z,10,GR86-057-57,-48.7,0.066,-1.153,99.89,3.0,,0.0,0.0,
2025-08-15T01:56:36.341Z,10,GR86-057-57,-48.6,0.078,-1.162,99.98,3.0,,0.0,0.0,
2025-08-15T01:56:36.383Z,10,GR86-057-57,-48.6,0.151,-1.212,99.99,3.0,,0.0,0.0,
2025-08-15T01:56:36.426Z,10,GR86-057-57,-48.900000000000006,0.184,-1.157,100.01,3.0,5682.0,0.0,0.0,
2025-08-15T01:56:36.472Z,10,GR86-057-57,-49.900000000000006,0.158,-1.039,100.01,3.0,,0.0,0.0,122.13
2025-08-15T01:56:36.514Z,10,GR86-057-57,-50.8,0.157,-0.977,100.01,3.0,,0.0,0.0,
2025-08-15T01:56:36.557Z,10,GR86-057-57,-51.7,0.144,-1.015,99.85,3.0,,0.0,0.0,
2025-08-15T01:56:36.601Z,10,GR86-057-57,-52.0,0.145,-1.067,91.75,3.0,,0.0,0.0,
2025-08-15T01:56:36.643Z,10,GR86-057-57,-51.900000000000006,0.17,-1.084,71.54,3.0,5770.0,0.0,0.0,
2025-08-15T01:56:36.686Z,10,GR86-057-57,-51.5,0.153,-1.114,53.43,3.0,,0.0,0.0,122.67
2025-08-15T01:56:36.730Z,10,GR86-057-57,-49.900000000000006,0.148,-1.172,47.48,3.0,,0.0,0.0,
2025-08-15T01:56:36.772Z,10,GR86-057-57,-48.1,0.129,-1.189,60.18,3.0,,0.0,0.0,
2025-08-15T01:56:36.815Z,10,GR86-057-57,-45.900000000000006,0.128,-1.15,81.63,3.0,,0.0,0.0,
2025-08-15T01:56:36.858Z,10,GR86-057-57,-43.2,0.137,-1.108,79.06,3.0,5823.0,0.0,0.0,
2025-08-15T01:56:36.901Z,10,GR86-057-57,-39.2,0.14,-1.136,76.16,3.0,,0.0,0.0,123.03
2025-08-15T01:56:36.944Z,10,GR86-057-57,-34.800000000000004,0.165,-1.126,75.59,3.0,,0.0,0.0,
2025-08-15T01:56:36.987Z,10,GR86-057-57,-32.7,0.2,-1.079,73.74,3.0,,0.0,0.0,
2025-08-15T01:56:37.031Z,10,GR86-057-57,-36.6,0.187,-1.044,70.59,3.0,,0.0,0.0,
2025-08-15T01:56:37.074Z,10,GR86-057-57,-41.2,0.16,-1.058,58.19,3.0,5828.0,0.0,0.0,
2025-08-15T01:56:37.117Z,10,GR86-057-57,-44.900000000000006,0.141,-1.178,52.6,3.0,,0.0,0.0,124.47
2025-08-15T01:56:37.161Z,10,GR86-057-57,-47.400000000000006,0.17,-1.21,53.18,3.0,,0.0,0.0,
2025-08-15T01:56:37.204Z,10,GR86-057-57,-47.900000000000006,0.175,-1.181,59.83,3.0,,0.0,0.0,
2025-08-15T01:56:37.246Z,10,GR86-057-57,-45.7,0.13,-1.181,78.29,3.0,,0.0,0.0,
2025-08-15T01:56:37.290Z,10,GR86-057-57,-40.0,0.141,-1.132,82.78,3.0,5931.0,0.0,0.0,
2025-08-15T01:56:37.332Z,10,GR86-057-57,-37.2,0.165,-1.107,86.08,3.0,,0.0,0.0,125.4
2025-08-15T01:56:37.375Z,10,GR86-057-57,-36.2,0.198,-1.076,91.26,3.0,,0.0,0.0,
2025-08-15T01:56:37.418Z,10,GR86-057-57,-36.4,0.184,-1.041,93.62,3.0,,0.0,0.0,
2025-08-15T01:56:37.461Z,10,GR86-057-57,-36.7,0.154,-1.038,93.23,3.0,,0.0,0.0,
2025-08-15T01:56:37.504Z,10,GR86-057-57,-35.6,0.175,-1.053,92.95,3.0,5954.0,0.0,0.0,
2025-08-15T01:56:37.548Z,10,GR86-057-57,-34.800000000000004,0.19,-1.025,93.63,3.0,,0.0,0.0,125.78
2025-08-15T01:56:37.591Z,10,GR86-057-57,-34.800000000000004,0.197,-1.009,99.79,3.0,,0.0,0.0,
2025-08-15T01:56:37.634Z,10,GR86-057-57,-34.800000000000004,0.182,-0.968,99.93,3.0,,0.0,0.0,
2025-08-15T01:56:37.677Z,10,GR86-057-57,-35.2,0.16,-0.942,99.93,3.0,,0.0,0.0,
2025-08-15T01:56:37.721Z,10,GR86-057-57,-36.5,0.173,-0.927,99.93,3.0,5996.0,0.0,0.0,
2025-08-15T01:56:37.764Z,10,GR86-057-57,-37.7,0.18,-0.956,99.94,3.0,,0.0,0.0,125.98
2025-08-15T01:56:37.806Z,10,GR86-057-57,-38.1,0.173,-0.959,99.94,3.0,,0.0,0.0,
2025-08-15T01:56:37.850Z,10,GR86-057-57,-36.7,0.18,-0.94,99.95,3.0,,0.0,0.0,
2025-08-15T01:56:37.892Z,10,GR86-057-57,-34.800000000000004,0.143,-0.949,99.95,3.0,,0.0,0.0,
2025-08-15T01:56:37.935Z,10,GR86-057-57,-33.1,0.165,-0.964,99.96,3.0,6033.0,0.0,0.0,
2025-08-15T01:56:37.978Z,10,GR86-057-57,-32.7,0.19,-1.005,99.95,3.0,,0.0,0.0,127.99
2025-08-15T01:56:38.021Z,10,GR86-057-57,-32.7,0.191,-1.027,99.94,3.0,,0.0,0.0,
2025-08-15T01:56:38.108Z,10,GR86-057-57,-32.300000000000004,0.17,-0.98,99.95,3.0,,0.0,0.0,
2025-08-15T01:56:38.151Z,10,GR86-057-57,-29.3,0.187,-0.973,99.99,3.0,6092.0,0.0,0.0,
2025-08-15T01:56:38.237Z,10,GR86-057-57,-27.1,0.188,-0.927,99.97,3.0,,0.0,0.0,129.0
2025-08-15T01:56:38.281Z,10,GR86-057-57,-25.1,0.181,-0.891,99.98,3.0,,0.0,0.0,
2025-08-15T01:56:38.323Z,10,GR86-057-57,-26.1,0.198,-0.8300000000000001,99.95,3.0,,0.0,0.0,
2025-08-15T01:56:38.366Z,10,GR86-057-57,-26.6,0.178,-0.779,99.94,3.0,6117.0,0.0,0.0,
2025-08-15T01:56:38.410Z,10,GR86-057-57,-25.1,0.181,-0.8290000000000001,99.96,3.0,,0.0,0.0,130.29
2025-08-15T01:56:38.452Z,10,GR86-057-57,-23.4,0.231,-0.758,99.97,3.0,,0.0,0.0,
2025-08-15T01:56:38.495Z,10,GR86-057-57,-22.3,0.168,-0.612,99.96,3.0,,0.0,0.0,
2025-08-15T01:56:38.581Z,10,GR86-057-57,-21.4,0.143,-0.447,99.98,3.0,6177.0,0.0,0.0,
2025-08-15T01:56:38.625Z,10,GR86-057-57,-21.1,0.159,-0.596,99.98,3.0,,0.0,0.0,131.42000000000002
2025-08-15T01:56:38.668Z,10,GR86-057-57,-19.5,0.23,-0.596,99.98,3.0,,0.0,0.0,
2025-08-15T01:56:38.711Z,10,GR86-057-57,-15.3,0.158,-0.561,99.95,3.0,,0.0,0.0,
2025-08-15T01:56:38.755Z,10,GR86-057-57,-13.3,0.181,-0.679,99.97,3.0,,0.0,0.0,
2025-08-15T01:56:38.797Z,10,GR86-057-57,-12.7,0.23,-0.543,99.98,3.0,6252.0,0.0,0.0,
2025-08-15T01:56:38.841Z,10,GR86-057-57,-12.2,0.176,-0.516,99.95,3.0,,0.0,0.0,132.66
2025-08-15T01:56:38.883Z,10,GR86-057-57,-12.1,0.107,-0.363,99.99,3.0,,0.0,0.0,
2025-08-15T01:56:38.926Z,10,GR86-057-57,-11.8,0.147,-0.514,99.98,3.0,,0.0,0.0,
2025-08-15T01:56:38.971Z,10,GR86-057-57,-11.8,0.153,-0.272,99.98,3.0,,0.0,0.0,
2025-08-15T01:56:39.014Z,10,GR86-057-57,-11.7,0.171,-0.363,99.98,3.0,6322.0,0.0,0.0,
2025-08-15T01:56:39.057Z,10,GR86-057-57,-10.7,0.181,-0.339,99.98,3.0,,0.0,0.0,134.01
2025-08-15T01:56:39.101Z,10,GR86-057-57,-8.9,0.233,-0.346,99.98,3.0,,0.0,0.0,
2025-08-15T01:56:39.143Z,10,GR86-057-57,-6.800000000000001,0.191,-0.355,99.97,3.0,,0.0,0.0,
2025-08-15T01:56:39.186Z,10,GR86-057-57,-5.4,0.132,-0.336,99.98,3.0,,0.0,0.0,
2025-08-15T01:56:39.230Z,10,GR86-057-57,-4.6000000000000005,0.154,-0.309,99.98,3.0,6409.0,0.0,0.0,
2025-08-15T01:56:39.272Z,10,GR86-057-57,-3.9,0.231,-0.264,99.99,3.0,,0.0,0.0,135.24
2025-08-15T01:56:39.315Z,10,GR86-057-57,-3.7,0.226,-0.208,99.98,3.0,,0.0,0.0,
2025-08-15T01:56:39.358Z,10,GR86-057-57,-3.3000000000000003,0.192,-0.104,99.97,3.0,,0.0,0.0,
2025-08-15T01:56:39.401Z,10,GR86-057-57,-1.5,0.122,-0.106,99.99,3.0,,0.0,0.0,
2025-08-15T01:56:39.444Z,10,GR86-057-57,0.5,0.172,-0.067,99.98,3.0,6355.0,0.0,0.0,
2025-08-15T01:56:39.488Z,10,GR86-057-57,1.1,0.269,-0.061,99.99,3.0,,0.0,0.0,136.54
2025-08-15T01:56:39.531Z,10,GR86-057-57,1.2000000000000002,0.175,0.016,99.98,3.0,,0.0,0.0,
2025-08-15T01:56:39.574Z,10,GR86-057-57,1.3,0.225,0.004,99.98,3.0,,0.0,0.0,
2025-08-15T01:56:39.617Z,10,GR86-057-57,1.4,0.225,0.023,99.99,3.0,,0.0,0.0,
2025-08-15T01:56:39.661Z,10,GR86-057-57,1.4,0.168,0.075,99.99,3.0,6504.0,0.0,0.0,
2025-08-15T01:56:39.704Z,10,GR86-057-57,1.4,0.151,0.111,99.99,3.0,,0.0,0.0,137.79
2025-08-15T01:56:39.748Z,10,GR86-057-57,1.5,0.182,0.114,99.98,3.0,,0.0,0.0,
2025-08-15T01:56:39.791Z,10,GR86-057-57,1.7000000000000002,0.174,0.137,99.99,3.0,,0.0,0.0,
2025-08-15T01:56:39.834Z,10,GR86-057-57,1.7000000000000002,0.172,0.141,99.98,3.0,,0.0,0.0,
2025-08-15T01:56:39.877Z,10,GR86-057-57,1.7000000000000002,0.223,0.141,99.99,3.0,6533.0,0.0,0.0,
2025-08-15T01:56:39.921Z,10,GR86-057-57,1.7000000000000002,0.203,0.123,99.97,3.0,,0.0,0.0,139.25
2025-08-15T01:56:39.964Z,10,GR86-057-57,1.7000000000000002,0.159,0.129,99.97,3.0,,0.0,0.0,
2025-08-15T01:56:40.007Z,10,GR86-057-57,1.7000000000000002,0.169,0.123,99.98,3.0,,0.0,0.0,
2025-08-15T01:56:40.051Z,10,GR86-057-57,1.7000000000000002,0.165,0.11,99.98,3.0,,0.0,0.0,
2025-08-15T01:56:40.093Z,10,GR86-057-57,1.7000000000000002,0.152,0.11,99.99,3.0,6578.0,0.0,0.0,
2025-08-15T01:56:40.136Z,10,GR86-057-57,1.7000000000000002,0.197,0.114,99.98,3.0,,0.0,0.0,140.61
2025-08-15T01:56:40.180Z,10,GR86-057-57,1.7000000000000002,0.244,0.098,99.98,3.0,,0.0,0.0,
2025-08-15T01:56:40.222Z,10,GR86-057-57,1.8,0.221,0.096,99.98,3.0,,0.0,0.0,
2025-08-15T01:56:40.265Z,10,GR86-057-57,1.8,0.149,0.1,99.99,3.0,,0.0,0.0,
2025-08-15T01:56:40.308Z,10,GR86-057-57,1.8,0.152,0.087,99.99,3.0,6670.0,0.0,0.0,
2025-08-15T01:56:40.351Z,10,GR86-057-57,1.6,0.153,0.109,99.99,3.0,,0.0,0.0,142.08
2025-08-15T01:56:40.394Z,10,GR86-057-57,1.5,0.172,0.113,99.99,3.0,,0.0,0.0,
2025-08-15T01:56:40.437Z,10,GR86-057-57,1.5,0.212,0.104,99.99,3.0,,0.0,0.0,
2025-08-15T01:56:40.481Z,10,GR86-057-57,1.5,0.219,0.101,99.99,3.0,,0.0,0.0,
2025-08-15T01:56:40.523Z,10,GR86-057-57,1.5,0.189,0.096,99.98,3.0,6766.0,0.0,0.0,
2025-08-15T01:56:40.567Z,10,GR86-057-57,1.5,0.143,0.103,99.98,3.0,,0.0,0.0,143.51
2025-08-15T01:56:40.611Z,10,GR86-057-57,1.5,0.192,0.1,100.0,3.0,,0.0,0.0,
2025-08-15T01:56:40.654Z,10,GR86-057-57,1.5,0.175,0.081,99.98,3.0,,0.0,0.0,
2025-08-15T01:56:40.697Z,10,GR86-057-57,1.5,0.145,0.1,99.98,3.0,,0.0,0.0,
2025-08-15T01:56:40.741Z,10,GR86-057-57,1.5,0.163,0.086,99.98,3.0,6833.0,0.0,0.0,
2025-08-15T01:56:40.783Z,10,GR86-057-57,1.5,-0.036,0.081,99.98,4.0,,0.0,0.0,146.53
2025-08-15T01:56:40.826Z,10,GR86-057-57,1.5,0.157,0.119,100.0,4.0,,0.0,0.0,
2025-08-15T01:56:40.871Z,10,GR86-057-57,1.5,0.303,0.005,99.97,4.0,,0.0,0.0,
2025-08-15T01:56:40.914Z,10,GR86-057-57,0.6000000000000001,0.048,0.063,99.98,4.0,,0.0,0.0,
2025-08-15T01:56:40.957Z,10,GR86-057-57,-0.6000000000000001,0.048,0.127,99.98,4.0,6845.0,0.0,0.0,
2025-08-15T01:56:41.001Z,10,GR86-057-57,-0.9,0.172,0.012,99.98,4.0,,0.0,0.0,148.05
2025-08-15T01:56:41.044Z,10,GR86-057-57,-0.9,0.176,0.043,99.98,4.0,,0.0,0.0,
2025-08-15T01:56:41.086Z,10,GR86-057-57,-1.5,0.138,0.069,99.98,4.0,,0.0,0.0,
2025-08-15T01:56:41.130Z,10,GR86-057-57,-1.5,0.12,-0.006,99.97,4.0,,0.0,0.0,
2025-08-15T01:56:41.172Z,10,GR86-057-57,-1.5,0.131,0.034,99.97,4.0,5988.0,0.0,0.0,
2025-08-15T01:56:41.215Z,10,GR86-057-57,-1.5,0.145,-0.012,99.98,4.0,,0.0,0.0,149.46
2025-08-15T01:56:41.258Z,10,GR86-057-57,-1.5,0.168,-0.021,99.98,4.0,,0.0,0.0,
2025-08-15T01:56:41.301Z,10,GR86-057-57,-1.5,0.169,-0.025,99.97,4.0,,0.0,0.0,
2025-08-15T01:56:41.387Z,10,GR86-057-57,-1.5,0.148,-0.031,99.98,4.0,5913.0,0.0,0.0,
2025-08-15T01:56:41.431Z,10,GR86-057-57,-1.4,0.143,-0.042,99.98,4.0,,0.0,0.0,150.81
2025-08-15T01:56:41.474Z,10,GR86-057-57,-1.0,0.126,-0.025,99.98,4.0,,0.0,0.0,
2025-08-15T01:56:41.517Z,10,GR86-057-57,-0.5,0.133,-0.027,99.97,4.0,,0.0,0.0,
2025-08-15T01:56:41.561Z,10,GR86-057-57,-0.1,0.145,-0.004,99.98,4.0,,0.0,0.0,
2025-08-15T01:56:41.604Z,10,GR86-057-57,0.2,0.158,-0.02,99.98,4.0,5965.0,0.0,0.0,
2025-08-15T01:56:41.646Z,10,GR86-057-57,0.5,0.152,-0.025,99.99,4.0,,0.0,0.0,152.19
2025-08-15T01:56:41.690Z,10,GR86-057-57,0.7000000000000001,0.113,0.003,99.98,4.0,,0.0,0.0,
2025-08-15T01:56:41.734Z,10,GR86-057-57,0.9,0.148,0.006,99.99,4.0,,0.0,0.0,
2025-08-15T01:56:41.776Z,10,GR86-057-57,0.9,0.168,0.03,100.0,4.0,,0.0,0.0,
2025-08-15T01:56:41.820Z,10,GR86-057-57,0.9,0.143,0.027,99.98,4.0,6031.0,0.0,0.0,
2025-08-15T01:56:41.862Z,10,GR86-057-57,0.9,0.133,0.042,99.98,4.0,,0.0,0.0,153.67000000000002
2025-08-15T01:56:41.906Z,10,GR86-057-57,1.1,0.12,0.066,99.99,4.0,,0.0,0.0,
2025-08-15T01:56:41.948Z,10,GR86-057-57,1.1,0.133,0.08,99.98,4.0,,0.0,0.0,
2025-08-15T01:56:41.991Z,10,GR86-057-57,1.1,0.142,0.077,99.98,4.0,,0.0,0.0,
2025-08-15T01:56:42.034Z,10,GR86-057-57,1.1,0.134,0.064,99.98,4.0,6141.0,0.0,0.0,
2025-08-15T01:56:42.077Z,10,GR86-057-57,1.1,0.124,0.063,99.98,4.0,,0.0,0.0,155.18
2025-08-15T01:56:42.121Z,10,GR86-057-57,1.1,0.137,0.063,99.98,4.0,,0.0,0.0,
2025-08-15T01:56:42.163Z,10,GR86-057-57,1.0,0.145,0.062,99.99,4.0,,0.0,0.0,
2025-08-15T01:56:42.206Z,10,GR86-057-57,0.9,0.148,0.054,99.98,4.0,,0.0,0.0,
2025-08-15T01:56:42.250Z,10,GR86-057-57,0.9,0.105,0.075,99.98,4.0,6147.0,0.0,0.0,
2025-08-15T01:56:42.292Z,10,GR86-057-57,0.9,0.15,0.065,100.0,4.0,,0.0,0.0,156.69
2025-08-15T01:56:42.335Z,10,GR86-057-57,0.8,0.161,0.059,99.99,4.0,,0.0,0.0,
2025-08-15T01:56:42.378Z,10,GR86-057-57,0.7000000000000001,0.12,0.052,99.99,4.0,,0.0,0.0,
2025-08-15T01:56:42.421Z,10,GR86-057-57,0.6000000000000001,0.114,0.058,99.98,4.0,,0.0,0.0,
2025-08-15T01:56:42.507Z,10,GR86-057-57,-0.6000000000000001,0.138,0.049,99.98,4.0,6197.0,0.0,0.0,158.18
2025-08-15T01:56:42.551Z,10,GR86-057-57,-1.9,0.114,0.017,99.99,4.0,,0.0,0.0,
2025-08-15T01:56:42.593Z,10,GR86-057-57,-2.7,0.116,0.005,99.98,4.0,,0.0,0.0,
2025-08-15T01:56:42.637Z,10,GR86-057-57,-3.7,0.125,-0.012,99.98,4.0,,0.0,0.0,
2025-08-15T01:56:42.680Z,10,GR86-057-57,-5.1000000000000005,0.127,-0.034,100.0,4.0,6270.0,0.0,0.0,
2025-08-15T01:56:42.722Z,10,GR86-057-57,-6.300000000000001,0.119,-0.074,99.99,4.0,,0.0,0.0,159.61
2025-08-15T01:56:42.766Z,10,GR86-057-57,-7.300000000000001,0.126,-0.116,99.98,4.0,,0.0,0.0,
2025-08-15T01:56:42.808Z,10,GR86-057-57,-8.4,0.137,-0.16,99.98,4.0,,0.0,0.0,
2025-08-15T01:56:42.851Z,10,GR86-057-57,-10.6,0.116,-0.215,99.98,4.0,,0.0,0.0,
2025-08-15T01:56:42.894Z,10,GR86-057-57,-11.7,0.109,-0.254,99.98,4.0,6338.0,0.0,0.0,
2025-08-15T01:56:43.066Z,10,GR86-057-57,-12.2,0.134,-0.386,99.98,4.0,,0.0,0.0,161.11
2025-08-15T01:56:43.111Z,10,GR86-057-57,-12.2,0.112,-0.443,99.99,4.0,6366.0,0.0,0.0,
2025-08-15T01:56:43.154Z,10,GR86-057-57,-12.2,0.128,-0.462,99.98,4.0,,0.0,0.0,162.56
2025-08-15T01:56:43.197Z,10,GR86-057-57,-12.2,0.136,-0.483,99.99,4.0,,0.0,0.0,
2025-08-15T01:56:43.241Z,10,GR86-057-57,-12.2,0.126,-0.483,99.98,4.0,,0.0,0.0,
2025-08-15T01:56:43.283Z,10,GR86-057-57,-12.0,0.129,-0.486,99.98,4.0,,0.0,0.0,
2025-08-15T01:56:43.326Z,10,GR86-057-57,-11.9,0.123,-0.479,99.98,4.0,6459.0,0.0,0.0,
2025-08-15T01:56:43.372Z,10,GR86-057-57,-11.9,0.117,-0.458,100.0,4.0,,0.0,0.0,165.34
2025-08-15T01:56:43.415Z,10,GR86-057-57,-11.9,0.127,-0.447,100.0,4.0,,0.0,0.0,
2025-08-15T01:56:43.460Z,10,GR86-057-57,-11.9,0.121,-0.442,99.98,4.0,,0.0,0.0,
2025-08-15T01:56:43.502Z,10,GR86-057-57,-11.9,0.134,-0.439,99.99,4.0,,0.0,0.0,
2025-08-15T01:56:43.546Z,10,GR86-057-57,-11.7,0.126,-0.433,100.0,4.0,6468.0,0.0,0.0,
2025-08-15T01:56:43.588Z,10,GR86-057-57,-10.9,0.127,-0.452,99.99,4.0,,0.0,0.0,166.61
2025-08-15T01:56:43.631Z,10,GR86-057-57,-9.5,0.119,-0.471,99.99,4.0,,0.0,0.0,
2025-08-15T01:56:43.674Z,10,GR86-057-57,-9.4,0.124,-0.457,99.98,4.0,,0.0,0.0,
2025-08-15T01:56:43.717Z,10,GR86-057-57,-9.4,0.132,-0.447,99.98,4.0,,0.0,0.0,
2025-08-15T01:56:43.761Z,10,GR86-057-57,-9.5,0.144,-0.444,99.98,4.0,6514.0,0.0,0.0,
2025-08-15T01:56:43.804Z,10,GR86-057-57,-9.5,0.142,-0.424,100.0,4.0,,0.0,0.0,167.67000000000002
2025-08-15T01:56:43.846Z,10,GR86-057-57,-9.5,0.133,-0.402,99.98,4.0,,0.0,0.0,
2025-08-15T01:56:43.890Z,10,GR86-057-57,-9.5,0.117,-0.384,99.99,4.0,,0.0,0.0,
2025-08-15T01:56:43.932Z,10,GR86-057-57,-9.5,0.109,-0.369,99.98,4.0,,0.0,0.0,
2025-08-15T01:56:43.975Z,10,GR86-057-57,-9.5,0.138,-0.358,100.0,4.0,6613.0,0.0,0.0,
2025-08-15T01:56:44.018Z,10,GR86-057-57,-9.5,0.125,-0.345,99.98,4.0,,0.0,0.0,169.01
2025-08-15T01:56:44.061Z,10,GR86-057-57,-9.2,0.134,-0.338,99.99,4.0,,0.0,0.0,
2025-08-15T01:56:44.104Z,10,GR86-057-57,-8.4,0.142,-0.336,99.98,4.0,,0.0,0.0,
2025-08-15T01:56:44.147Z,10,GR86-057-57,-7.1000000000000005,0.148,-0.353,100.0,4.0,,0.0,0.0,
2025-08-15T01:56:44.191Z,10,GR86-057-57,-3.7,0.094,-0.33,100.01,4.0,6651.0,0.0,0.0,
2025-08-15T01:56:44.234Z,10,GR86-057-57,-1.7000000000000002,0.116,-0.294,99.99,4.0,,0.0,0.0,170.27
2025-08-15T01:56:44.276Z,10,GR86-057-57,-1.4,0.107,-0.248,100.0,4.0,,0.0,0.0,
2025-08-15T01:56:44.320Z,10,GR86-057-57,-1.4,0.136,-0.204,99.98,4.0,,0.0,0.0,
2025-08-15T01:56:44.364Z,10,GR86-057-57,-1.4,0.114,-0.156,99.99,4.0,,0.0,0.0,
2025-08-15T01:56:44.406Z,10,GR86-057-57,-1.4,0.135,-0.117,100.0,4.0,6748.0,0.0,0.0,
2025-08-15T01:56:44.450Z,10,GR86-057-57,-2.2,0.088,-0.034,99.99,4.0,,0.0,0.0,171.46
2025-08-15T01:56:44.492Z,10,GR86-057-57,-3.0,0.092,-0.023,96.72,4.0,,0.0,0.0,
2025-08-15T01:56:44.578Z,10,GR86-057-57,-3.7,0.102,-0.034,33.86,4.0,,0.0,0.0,
2025-08-15T01:56:44.621Z,10,GR86-057-57,-4.5,0.064,-0.05,4.01,4.0,6750.0,0.0,0.0,
2025-08-15T01:56:44.664Z,10,GR86-057-57,-4.5,-0.194,-0.048,3.66,4.0,,0.0,0.0,172.83
2025-08-15T01:56:44.708Z,10,GR86-057-57,-3.7,-0.247,-0.048,3.41,4.0,,17.84,18.205,
2025-08-15T01:56:44.751Z,10,GR86-057-57,-2.6,-0.44,-0.071,3.14,4.0,,38.775,38.285,
2025-08-15T01:56:44.794Z,10,GR86-057-57,-1.0,-0.739,-0.042,3.02,4.0,,48.8,48.115,
2025-08-15T01:56:44.837Z,10,GR86-057-57,0.7000000000000001,-0.976,-0.084,2.93,4.0,6790.0,56.78,56.035,
2025-08-15T01:56:44.881Z,10,GR86-057-57,1.0,-1.089,-0.04,2.83,4.0,,62.625,61.68,173.98
2025-08-15T01:56:44.923Z,10,GR86-057-57,1.0,-1.163,-0.041,2.74,4.0,,66.795,67.755,
2025-08-15T01:56:44.966Z,10,GR86-057-57,1.0,-1.232,-0.039,2.66,4.0,,68.565,69.34,
2025-08-15T01:56:45.010Z,10,GR86-057-57,2.3000000000000003,-1.368,-0.061,2.5500000000000003,4.0,,69.435,69.525,
2025-08-15T01:56:45.052Z,10,GR86-057-57,2.5,-1.246,-0.005,2.52,4.0,6721.0,70.93,72.06,
2025-08-15T01:56:45.095Z,10,GR86-057-57,2.6,-1.257,-0.015,2.49,4.0,,69.13,68.96000000000001,174.66
2025-08-15T01:56:45.138Z,10,GR86-057-57,1.2000000000000002,-1.326,0.014,2.48,4.0,,69.19,69.77,
2025-08-15T01:56:45.181Z,10,GR86-057-57,-0.8,-1.294,-0.001,2.48,4.0,,69.19,69.83,
2025-08-15T01:56:45.225Z,10,GR86-057-57,-3.2,-1.292,-0.035,2.48,4.0,,69.19,69.58500000000001,
2025-08-15T01:56:45.268Z,10,GR86-057-57,-4.6000000000000005,-1.327,-0.058,13.42,4.0,6088.0,68.96000000000001,69.4,
2025-08-15T01:56:45.311Z,10,GR86-057-57,-4.800000000000001,-1.294,-0.103,79.04,3.0,,68.685,68.805,168.36
2025-08-15T01:56:45.355Z,10,GR86-057-57,-4.9,-1.333,-0.121,33.57,3.0,,68.715,69.25,
2025-08-15T01:56:45.398Z,10,GR86-057-57,-5.4,-1.31,-0.127,4.29,3.0,,69.37,70.99,
2025-08-15T01:56:45.441Z,10,GR86-057-57,-5.6000000000000005,-1.341,-0.142,3.49,3.0,,67.875,69.34,
2025-08-15T01:56:45.484Z,10,GR86-057-57,-5.5,-1.233,-0.325,3.24,3.0,5978.0,58.795,58.965,
2025-08-15T01:56:45.527Z,10,GR86-057-57,-4.7,-1.249,-0.187,3.1,3.0,,49.93,51.305,160.04
2025-08-15T01:56:45.571Z,10,GR86-057-57,1.5,-0.773,-0.474,2.97,3.0,,35.92,36.61,
2025-08-15T01:56:45.614Z,10,GR86-057-57,4.7,-0.865,-0.482,2.9,3.0,,32.14,32.96,
2025-08-15T01:56:45.657Z,10,GR86-057-57,7.1000000000000005,-0.996,-0.382,2.79,3.0,,33.025,34.365,
2025-08-15T01:56:45.701Z,10,GR86-057-57,7.4,-0.766,-0.478,2.69,3.0,5572.0,34.245,34.685,
2025-08-15T01:56:45.743Z,10,GR86-057-57,6.9,-0.8310000000000001,-0.438,2.61,3.0,,37.02,37.585,150.96
2025-08-15T01:56:45.786Z,10,GR86-057-57,5.2,-0.855,-0.413,2.5500000000000003,3.0,,42.515,42.575,
2025-08-15T01:56:45.830Z,10,GR86-057-57,-1.7000000000000002,-0.955,-0.327,2.52,3.0,,48.865,48.77,
2025-08-15T01:56:45.872Z,10,GR86-057-57,-6.6000000000000005,-1.072,-0.33,2.51,3.0,,51.215,51.120000000000005,
2025-08-15T01:56:45.915Z,10,GR86-057-57,-10.0,-1.113,-0.349,2.49,3.0,6008.0,53.06,52.74,
2025-08-15T01:56:45.958Z,10,GR86-057-57,-12.3,-1.089,-0.404,28.67,3.0,,53.61,53.835,142.97
2025-08-15T01:56:46.001Z,10,GR86-057-57,-14.4,-1.044,-0.425,74.61,2.0,,53.335,53.775,
2025-08-15T01:56:46.044Z,10,GR86-057-57,-16.6,-1.083,-0.44,45.29,2.0,,54.675,54.98,
2025-08-15T01:56:46.087Z,10,GR86-057-57,-17.6,-1.158,-0.418,4.96,2.0,,54.175,55.64,
2025-08-15T01:56:46.131Z,10,GR86-057-57,-13.9,-1.121,-0.686,3.29,2.0,6051.0,40.62,41.765,
2025-08-15T01:56:46.174Z,10,GR86-057-57,-9.2,-1.144,-0.601,3.12,2.0,,31.8,32.715,131.15
2025-08-15T01:56:46.217Z,10,GR86-057-57,-6.5,-0.8290000000000001,-0.422,3.02,2.0,,25.745,26.66,
2025-08-15T01:56:46.261Z,10,GR86-057-57,-8.3,-0.616,-0.872,2.93,2.0,,18.525,19.335,
2025-08-15T01:56:46.304Z,10,GR86-057-57,-13.3,-0.771,-0.854,2.86,2.0,,17.395,17.81,
2025-08-15T01:56:46.348Z,10,GR86-057-57,-16.6,-0.731,-0.73,2.77,2.0,5639.0,18.92,19.7,
2025-08-15T01:56:46.391Z,10,GR86-057-57,-16.400000000000002,-0.5700000000000001,-1.044,2.63,2.0,,19.7,20.555,124.39
2025-08-15T01:56:46.434Z,10,GR86-057-57,-15.6,-0.614,-1.046,2.54,2.0,,19.61,19.87,
2025-08-15T01:56:46.477Z,10,GR86-057-57,-13.4,-0.63,-0.934,2.51,2.0,,18.055,18.555,
2025-08-15T01:56:46.521Z,10,GR86-057-57,-8.0,-0.486,-1.006,2.48,2.0,,17.12,17.78,
2025-08-15T01:56:46.564Z,10,GR86-057-57,-3.9,-0.525,-0.915,2.49,2.0,5752.0,15.535,15.96,
2025-08-15T01:56:46.607Z,10,GR86-057-57,-5.2,-0.551,-0.851,2.46,2.0,,9.43,9.995,120.05
2025-08-15T01:56:46.651Z,10,GR86-057-57,-15.6,-0.284,-0.8300000000000001,2.45,2.0,,3.875,4.5,
2025-08-15T01:56:46.693Z,10,GR86-057-57,-24.9,-0.285,-0.931,2.45,2.0,,4.18,4.715,
2025-08-15T01:56:46.737Z,10,GR86-057-57,-33.800000000000004,-0.32,-0.899,2.45,2.0,,4.53,4.9,
2025-08-15T01:56:46.780Z,10,GR86-057-57,-40.8,-0.295,-0.886,2.45,2.0,6175.0,5.83,6.2700000000000005,
2025-08-15T01:56:46.822Z,10,GR86-057-57,-45.1,-0.297,-0.89,2.45,2.0,,6.745,7.05,115.63
2025-08-15T01:56:46.865Z,10,GR86-057-57,-47.3,-0.336,-0.902,2.45,2.0,,7.325,7.98,
2025-08-15T01:56:46.908Z,10,GR86-057-57,-48.8,-0.336,-0.902,2.45,2.0,,7.95,8.24,
2025-08-15T01:56:46.951Z,10,GR86-057-57,-50.400000000000006,-0.359,-0.899,2.46,2.0,,8.67,9.035,
2025-08-15T01:56:46.994Z,10,GR86-057-57,-52.6,-0.384,-0.907,2.47,2.0,6208.0,9.095,9.6,
2025-08-15T01:56:47.037Z,10,GR86-057-57,-53.900000000000006,-0.36,-1.019,2.45,2.0,,9.66,10.055,112.2
2025-08-15T01:56:47.081Z,10,GR86-057-57,-52.5,-0.385,-1.036,2.48,2.0,,9.78,10.15,
2025-08-15T01:56:47.123Z,10,GR86-057-57,-47.8,-0.373,-1.128,2.45,2.0,,10.15,10.805,
2025-08-15T01:56:47.167Z,10,GR86-057-57,-42.3,-0.397,-1.116,2.47,2.0,,10.18,10.44,
2025-08-15T01:56:47.211Z,10,GR86-057-57,-36.8,-0.403,-1.094,2.45,2.0,6104.0,7.645,8.18,
2025-08-15T01:56:47.254Z,10,GR86-057-57,-37.5,-0.318,-1.111,2.45,2.0,,2.105,2.58,109.88
2025-08-15T01:56:47.297Z,10,GR86-057-57,-41.7,-0.219,-1.138,2.45,2.0,,0.0,0.0,
2025-08-15T01:56:47.341Z,10,GR86-057-57,-46.900000000000006,-0.215,-1.162,2.48,2.0,,0.0,0.0,
2025-08-15T01:56:47.383Z,10,GR86-057-57,-50.2,-0.201,-1.256,3.82,2.0,,0.0,0.0,
2025-08-15T01:56:47.426Z,10,GR86-057-57,-50.7,-0.204,-1.231,4.38,2.0,5926.0,0.0,0.0,
2025-08-15T01:56:47.471Z,10,GR86-057-57,-49.7,-0.217,-1.298,21.64,2.0,,0.0,0.0,108.66
2025-08-15T01:56:47.514Z,10,GR86-057-57,-49.6,-0.203,-1.243,26.06,2.0,,0.0,0.0,
2025-08-15T01:56:47.557Z,10,GR86-057-57,-50.6,-0.169,-1.265,26.87,2.0,,0.0,0.0,
2025-08-15T01:56:47.601Z,10,GR86-057-57,-52.5,-0.141,-1.238,29.77,2.0,,0.0,0.0,
2025-08-15T01:56:47.643Z,10,GR86-057-57,-54.5,-0.119,-1.256,30.49,2.0,5814.0,0.0,0.0,
2025-08-15T01:56:47.686Z,10,GR86-057-57,-56.6,-0.072,-1.185,30.8,2.0,,0.0,0.0,106.67
2025-08-15T01:56:47.730Z,10,GR86-057-57,-60.2,0.275,-1.169,26.36,2.0,,0.0,0.0,
2025-08-15T01:56:47.772Z,10,GR86-057-57,-62.1,0.206,-1.139,25.68,2.0,,0.0,0.0,
2025-08-15T01:56:47.815Z,10,GR86-057-57,-64.0,0.105,-1.088,25.17,2.0,,0.0,0.0,
2025-08-15T01:56:47.858Z,10,GR86-057-57,-65.8,-0.022,-1.106,23.01,2.0,5822.0,0.0,0.0,
2025-08-15T01:56:47.901Z,10,GR86-057-57,-67.0,-0.022,-1.161,18.81,2.0,,0.0,0.0,104.96
2025-08-15T01:56:47.944Z,10,GR86-057-57,-67.8,0.012,-1.144,7.9,2.0,,0.0,0.0,
2025-08-15T01:56:47.987Z,10,GR86-057-57,-68.0,0.011,-1.092,7.96,2.0,,0.0,0.0,
2025-08-15T01:56:48.031Z,10,GR86-057-57,-68.2,-0.028,-1.086,5.3500000000000005,2.0,,0.0,0.0,
2025-08-15T01:56:48.074Z,10,GR86-057-57,-66.9,-0.123,-1.058,5.19,2.0,5971.0,0.0,0.0,
2025-08-15T01:56:48.117Z,10,GR86-057-57,-64.10000000000001,-0.158,-1.219,5.23,2.0,,0.0,0.0,103.76
2025-08-15T01:56:48.161Z,10,GR86-057-57,-61.1,-0.105,-1.215,5.34,2.0,,0.0,0.0,
2025-08-15T01:56:48.204Z,10,GR86-057-57,-59.5,-0.256,-1.148,7.03,2.0,,0.0,0.0,
2025-08-15T01:56:48.246Z,10,GR86-057-57,-58.5,-0.287,-1.092,7.68,2.0,,0.0,0.0,
2025-08-15T01:56:48.290Z,10,GR86-057-57,-56.400000000000006,-0.137,-1.186,6.48,2.0,5957.0,0.0,0.0,
2025-08-15T01:56:48.334Z,10,GR86-057-57,-55.5,-0.098,-1.217,5.54,2.0,,0.0,0.0,103.94
2025-08-15T01:56:48.376Z,10,GR86-057-57,-54.6,-0.169,-1.204,5.45,2.0,,0.0,0.0,
2025-08-15T01:56:48.420Z,10,GR86-057-57,-51.1,-0.233,-1.149,6.2700000000000005,2.0,,0.0,0.0,
2025-08-15T01:56:48.462Z,10,GR86-057-57,-42.0,-0.203,-1.211,6.59,2.0,,0.0,0.0,
2025-08-15T01:56:48.506Z,10,GR86-057-57,-28.3,-0.166,-1.131,6.91,2.0,5591.0,0.0,0.0,
2025-08-15T01:56:48.548Z,10,GR86-057-57,-16.5,-0.147,-1.195,6.5,2.0,,0.0,0.0,104.14
2025-08-15T01:56:48.591Z,10,GR86-057-57,-19.8,-0.094,-1.019,7.85,2.0,,0.0,0.0,
2025-08-15T01:56:48.634Z,10,GR86-057-57,-33.2,-0.097,-1.066,20.24,2.0,,0.0,0.0,
2025-08-15T01:56:48.677Z,10,GR86-057-57,-49.2,-0.122,-1.144,20.55,2.0,,0.0,0.0,
2025-08-15T01:56:48.721Z,10,GR86-057-57,-64.10000000000001,-0.172,-1.156,24.89,2.0,5674.0,0.0,0.0,
2025-08-15T01:56:48.763Z,10,GR86-057-57,-72.5,-0.161,-1.213,28.45,2.0,,0.0,0.0,103.11
2025-08-15T01:56:48.806Z,10,GR86-057-57,-74.7,-0.121,-1.139,31.15,2.0,,0.0,0.0,
2025-08-15T01:56:48.850Z,10,GR86-057-57,-74.4,-0.026,-1.146,42.41,2.0,,0.0,0.0,
2025-08-15T01:56:48.892Z,10,GR86-057-57,-72.60000000000001,0.248,-1.003,47.47,2.0,,0.0,0.0,
2025-08-15T01:56:48.935Z,10,GR86-057-57,-70.4,0.228,-1.117,53.6,2.0,5612.0,0.0,0.0,
2025-08-15T01:56:48.978Z,10,GR86-057-57,-67.5,0.197,-1.021,86.49,2.0,,0.0,0.0,99.89
2025-08-15T01:56:49.021Z,10,GR86-057-57,-63.8,0.126,-1.085,99.77,2.0,,0.0,0.0,
2025-08-15T01:56:49.064Z,10,GR86-057-57,-60.1,0.178,-1.133,99.95,2.0,,0.0,0.0,
2025-08-15T01:56:49.108Z,10,GR86-057-57,-57.3,0.205,-1.068,99.95,2.0,,0.0,0.0,
2025-08-15T01:56:49.151Z,10,GR86-057-57,-55.8,0.245,-1.071,99.95,2.0,5578.0,0.0,0.0,
2025-08-15T01:56:49.194Z,10,GR86-057-57,-55.7,0.235,-1.019,99.96,2.0,,0.0,0.0,98.78
2025-08-15T01:56:49.237Z,10,GR86-057-57,-55.7,0.204,-1.044,99.96,2.0,,0.0,0.0,
2025-08-15T01:56:49.281Z,10,GR86-057-57,-55.2,0.227,-1.128,99.98,2.0,,0.0,0.0,
2025-08-15T01:56:49.324Z,10,GR86-057-57,-52.1,0.246,-1.152,99.95,2.0,,0.0,0.0,
2025-08-15T01:56:49.366Z,10,GR86-057-57,-46.7,0.23,-1.19,99.99,2.0,5744.0,0.0,0.0,
2025-08-15T01:56:49.411Z,10,GR86-057-57,-38.400000000000006,0.235,-1.139,99.97,2.0,,0.0,0.0,99.95
2025-08-15T01:56:49.454Z,10,GR86-057-57,-34.9,0.265,-1.102,99.97,2.0,,0.0,0.0,
2025-08-15T01:56:49.497Z,10,GR86-057-57,-33.800000000000004,0.281,-1.004,99.95,2.0,,0.0,0.0,
2025-08-15T01:56:49.541Z,10,GR86-057-57,-34.7,0.26,-0.905,99.97,2.0,,0.0,0.0,
2025-08-15T01:56:49.583Z,10,GR86-057-57,-36.3,0.231,-0.882,99.98,2.0,5953.0,0.0,0.0,
2025-08-15T01:56:49.626Z,10,GR86-057-57,-37.3,0.223,-0.855,99.98,2.0,,0.0,0.0,101.46
2025-08-15T01:56:49.672Z,10,GR86-057-57,-37.4,0.257,-0.876,99.98,2.0,,0.0,0.0,
2025-08-15T01:56:49.714Z,10,GR86-057-57,-36.9,0.268,-0.839,99.97,2.0,,0.0,0.0,
2025-08-15T01:56:49.757Z,10,GR86-057-57,-35.5,0.269,-0.771,99.98,2.0,,0.0,0.0,
2025-08-15T01:56:49.801Z,10,GR86-057-57,-33.7,0.235,-0.768,99.98,2.0,6000.0,0.0,0.0,
2025-08-15T01:56:49.843Z,10,GR86-057-57,-32.300000000000004,0.227,-0.716,99.97,2.0,,0.0,0.0,103.14
2025-08-15T01:56:49.886Z,10,GR86-057-57,-32.0,0.243,-0.733,99.99,2.0,,0.0,0.0,
2025-08-15T01:56:49.930Z,10,GR86-057-57,-32.1,0.278,-0.74,99.98,2.0,,0.0,0.0,
2025-08-15T01:56:49.972Z,10,GR86-057-57,-32.0,0.26,-0.722,99.96,2.0,,0.0,0.0,
2025-08-15T01:56:50.015Z,10,GR86-057-57,-32.1,0.231,-0.708,99.98,2.0,6067.0,0.0,0.0,
2025-08-15T01:56:50.058Z,10,GR86-057-57,-32.4,0.213,-0.704,100.0,2.0,,0.0,0.0,103.77
2025-08-15T01:56:50.101Z,10,GR86-057-57,-32.4,0.252,-0.6980000000000001,99.98,2.0,,0.0,0.0,
2025-08-15T01:56:50.144Z,10,GR86-057-57,-32.4,0.27,-0.7030000000000001,99.98,2.0,,0.0,0.0,
2025-08-15T01:56:50.188Z,10,GR86-057-57,-32.2,0.26,-0.6950000000000001,99.98,2.0,,0.0,0.0,
2025-08-15T01:56:50.231Z,10,GR86-057-57,-31.700000000000003,0.238,-0.722,99.98,2.0,6139.0,0.0,0.0,
2025-08-15T01:56:50.274Z,10,GR86-057-57,-31.200000000000003,0.233,-0.767,99.98,2.0,,0.0,0.0,105.51
2025-08-15T01:56:50.317Z,10,GR86-057-57,-31.0,0.244,-0.745,99.99,2.0,,0.0,0.0,
2025-08-15T01:56:50.361Z,10,GR86-057-57,-30.6,0.263,-0.74,99.98,2.0,,0.0,0.0,
2025-08-15T01:56:50.404Z,10,GR86-057-57,-30.4,0.253,-0.762,99.99,2.0,,0.0,0.0,
2025-08-15T01:56:50.446Z,10,GR86-057-57,-30.3,0.231,-0.723,99.99,2.0,6252.0,0.0,0.0,
2025-08-15T01:56:50.490Z,10,GR86-057-57,-30.3,0.243,-0.736,99.98,2.0,,0.0,0.0,107.42
2025-08-15T01:56:50.532Z,10,GR86-057-57,-30.3,0.269,-0.764,99.97,2.0,,0.0,0.0,
2025-08-15T01:56:50.575Z,10,GR86-057-57,-30.3,0.254,-0.722,99.98,2.0,,0.0,0.0,
2025-08-15T01:56:50.618Z,10,GR86-057-57,-30.3,0.245,-0.749,99.99,2.0,,0.0,0.0,
2025-08-15T01:56:50.661Z,10,GR86-057-57,-30.3,0.239,-0.753,99.99,2.0,6350.0,0.0,0.0,
2025-08-15T01:56:50.704Z,10,GR86-057-57,-30.200000000000003,0.247,-0.718,99.98,2.0,,0.0,0.0,109.19
2025-08-15T01:56:50.747Z,10,GR86-057-57,-29.8,0.261,-0.705,99.99,2.0,,0.0,0.0,
2025-08-15T01:56:50.791Z,10,GR86-057-57,-29.3,0.242,-0.6910000000000001,99.99,2.0,,0.0,0.0,
2025-08-15T01:56:50.834Z,10,GR86-057-57,-29.3,0.233,-0.673,100.01,2.0,,0.0,0.0,
2025-08-15T01:56:50.876Z,10,GR86-057-57,-29.200000000000003,0.249,-0.6980000000000001,99.99,2.0,6484.0,0.0,0.0,
2025-08-15T01:56:50.920Z,10,GR86-057-57,-28.9,0.252,-0.6910000000000001,99.98,2.0,,0.0,0.0,110.87
2025-08-15T01:56:50.962Z,10,GR86-057-57,-28.4,0.242,-0.681,99.99,2.0,,0.0,0.0,
2025-08-15T01:56:51.006Z,10,GR86-057-57,-27.5,0.232,-0.7010000000000001,99.98,2.0,,0.0,0.0,
2025-08-15T01:56:51.048Z,10,GR86-057-57,-26.4,0.244,-0.7010000000000001,100.01,2.0,,0.0,0.0,
2025-08-15T01:56:51.091Z,10,GR86-057-57,-24.1,0.261,-0.72,99.98,2.0,6580.0,0.0,0.0,
2025-08-15T01:56:51.134Z,10,GR86-057-57,-22.700000000000003,0.263,-0.676,99.99,2.0,,0.0,0.0,112.73
2025-08-15T01:56:51.177Z,10,GR86-057-57,-22.0,0.237,-0.604,100.02,2.0,,0.0,0.0,
2025-08-15T01:56:51.221Z,10,GR86-057-57,-22.1,0.246,-0.596,99.98,2.0,,0.0,0.0,
2025-08-15T01:56:51.264Z,10,GR86-057-57,-22.8,0.252,-0.531,99.99,2.0,,0.0,0.0,
2025-08-15T01:56:51.306Z,10,GR86-057-57,-22.700000000000003,0.302,-0.559,99.99,2.0,6682.0,0.0,0.0,
2025-08-15T01:56:51.350Z,10,GR86-057-57,-21.700000000000003,0.18,-0.402,99.99,2.0,,0.0,0.0,114.41
2025-08-15T01:56:51.392Z,10,GR86-057-57,-21.1,0.207,-0.332,100.0,2.0,,0.0,0.0,
2025-08-15T01:56:51.435Z,10,GR86-057-57,-19.3,0.198,-0.433,99.99,2.0,,0.0,0.0,
2025-08-15T01:56:51.478Z,10,GR86-057-57,-16.900000000000002,0.198,-0.348,99.98,2.0,,0.0,0.0,
2025-08-15T01:56:51.521Z,10,GR86-057-57,-14.3,0.175,-0.421,99.99,2.0,6718.0,0.0,0.0,
2025-08-15T01:56:51.564Z,10,GR86-057-57,-11.3,0.246,-0.467,99.99,2.0,,0.0,0.0,116.27
2025-08-15T01:56:51.607Z,10,GR86-057-57,-9.8,0.29,-0.418,99.98,2.0,,0.0,0.0,
2025-08-15T01:56:51.651Z,10,GR86-057-57,-9.3,0.233,-0.41,99.98,2.0,,0.0,0.0,
2025-08-15T01:56:51.694Z,10,GR86-057-57,-8.9,0.184,-0.348,100.0,2.0,,0.0,0.0,
2025-08-15T01:56:51.736Z,10,GR86-057-57,-8.9,0.232,-0.286,99.99,2.0,6860.0,0.0,0.0,
2025-08-15T01:56:51.780Z,10,GR86-057-57,-8.6,0.231,-0.322,99.98,2.0,,0.0,0.0,119.55
2025-08-15T01:56:51.822Z,10,GR86-057-57,-8.4,0.181,-0.236,99.98,2.0,,0.0,0.0,
2025-08-15T01:56:51.865Z,10,GR86-057-57,-7.800000000000001,0.157,-0.173,99.99,2.0,,0.0,0.0,
2025-08-15T01:56:51.908Z,10,GR86-057-57,-6.300000000000001,0.28,-0.298,100.01,2.0,,0.0,0.0,
2025-08-15T01:56:51.951Z,10,GR86-057-57,-4.4,0.304,-0.171,100.01,2.0,6959.0,0.0,0.0,
2025-08-15T01:56:51.994Z,10,GR86-057-57,-4.4,0.249,-0.174,100.01,2.0,,0.0,0.0,121.4
2025-08-15T01:56:52.037Z,10,GR86-057-57,-4.5,0.189,-0.113,100.01,2.0,,0.0,0.0,
2025-08-15T01:56:52.081Z,10,GR86-057-57,-4.5,0.211,-0.094,99.99,2.0,,0.0,0.0,
2025-08-15T01:56:52.123Z,10,GR86-057-57,-4.5,0.243,-0.088,99.99,2.0,,0.0,0.0,
2025-08-15T01:56:52.166Z,10,GR86-057-57,-4.0,0.252,-0.101,100.0,2.0,7088.0,0.0,0.0,
2025-08-15T01:56:52.210Z,10,GR86-057-57,-3.0,0.255,-0.113,99.98,2.0,,0.0,0.0,123.21
2025-08-15T01:56:52.252Z,10,GR86-057-57,-3.0,0.226,-0.119,100.0,2.0,,0.0,0.0,
2025-08-15T01:56:52.295Z,10,GR86-057-57,-3.0,0.219,-0.125,100.01,2.0,,0.0,0.0,
2025-08-15T01:56:52.338Z,10,GR86-057-57,-3.0,0.188,-0.102,100.0,2.0,,0.0,0.0,
2025-08-15T01:56:52.381Z,10,GR86-057-57,-3.0,0.151,-0.099,100.01,2.0,7230.0,0.0,0.0,
2025-08-15T01:56:52.425Z,10,GR86-057-57,-3.0,0.117,-0.089,100.01,2.0,,0.0,0.0,124.89
2025-08-15T01:56:52.468Z,10,GR86-057-57,-3.0,0.096,-0.093,100.0,2.0,,0.0,0.0,
2025-08-15T01:56:52.511Z,10,GR86-057-57,-2.9000000000000004,0.07,-0.07,99.99,2.0,,0.0,0.0,
2025-08-15T01:56:52.555Z,10,GR86-057-57,-2.8000000000000003,0.057,-0.053,100.0,2.0,,0.0,0.0,
2025-08-15T01:56:52.597Z,10,GR86-057-57,-2.5,0.065,-0.065,100.01,3.0,7293.0,0.0,0.0,
2025-08-15T01:56:52.641Z,10,GR86-057-57,-2.3000000000000003,-0.038,-0.057,100.0,3.0,,0.0,0.0,126.76
2025-08-15T01:56:52.684Z,10,GR86-057-57,-1.3,0.801,-0.023,100.0,3.0,,0.0,0.0,
2025-08-15T01:56:52.726Z,10,GR86-057-57,-1.2000000000000002,0.479,-0.177,99.98,3.0,,0.0,0.0,
2025-08-15T01:56:52.771Z,10,GR86-057-57,-2.4000000000000004,0.008,0.014,99.99,3.0,,0.0,0.0,
2025-08-15T01:56:52.814Z,10,GR86-057-57,-2.5,0.017,-0.093,100.02,3.0,7307.0,0.0,0.0,
2025-08-15T01:56:52.857Z,10,GR86-057-57,-1.6,0.232,-0.054,99.99,3.0,,0.0,0.0,128.0
2025-08-15T01:56:52.901Z,10,GR86-057-57,-0.9,0.315,-0.004,99.99,3.0,,0.0,0.0,
2025-08-15T01:56:52.943Z,10,GR86-057-57,-0.4,0.232,-0.084,100.0,3.0,,0.0,0.0,
2025-08-15T01:56:52.986Z,10,GR86-057-57,-0.2,0.162,-0.033,100.0,3.0,,0.0,0.0,
2025-08-15T01:56:53.030Z,10,GR86-057-57,0.0,0.181,-0.036,100.02,3.0,5799.0,0.0,0.0,
2025-08-15T01:56:53.072Z,10,GR86-057-57,0.4,0.214,-0.021,100.02,3.0,,0.0,0.0,128.95
2025-08-15T01:56:53.115Z,10,GR86-057-57,0.9,0.214,-0.03,99.99,3.0,,0.0,0.0,
2025-08-15T01:56:53.158Z,10,GR86-057-57,1.1,0.204,-0.026,100.01,3.0,,0.0,0.0,
2025-08-15T01:56:53.244Z,10,GR86-057-57,1.1,0.183,-0.012,99.99,3.0,6033.0,0.0,0.0,
2025-08-15T01:56:53.288Z,10,GR86-057-57,1.1,0.168,0.036,100.01,3.0,,0.0,0.0,130.74
2025-08-15T01:56:53.331Z,10,GR86-057-57,1.1,0.201,0.03,100.01,3.0,,0.0,0.0,
2025-08-15T01:56:53.374Z,10,GR86-057-57,1.1,0.197,0.031,100.0,3.0,,0.0,0.0,
2025-08-15T01:56:53.417Z,10,GR86-057-57,1.1,0.192,0.019,100.0,3.0,,0.0,0.0,
2025-08-15T01:56:53.461Z,10,GR86-057-57,1.2000000000000002,0.178,0.03,100.0,3.0,6154.0,0.0,0.0,
2025-08-15T01:56:53.504Z,10,GR86-057-57,1.2000000000000002,0.187,0.037,100.0,3.0,,0.0,0.0,132.16
2025-08-15T01:56:53.547Z,10,GR86-057-57,1.2000000000000002,0.194,0.04,100.01,3.0,,0.0,0.0,
2025-08-15T01:56:53.634Z,10,GR86-057-57,1.4,0.198,0.052,99.99,3.0,,0.0,0.0,
2025-08-15T01:56:53.676Z,10,GR86-057-57,1.4,0.198,0.046,100.0,3.0,6257.0,0.0,0.0,
2025-08-15T01:56:53.720Z,10,GR86-057-57,1.4,0.179,0.038,99.99,3.0,,0.0,0.0,133.49
2025-08-15T01:56:53.764Z,10,GR86-057-57,1.4,0.167,0.048,100.02,3.0,,0.0,0.0,
2025-08-15T01:56:53.808Z,10,GR86-057-57,1.5,0.191,0.052,100.02,3.0,,0.0,0.0,
2025-08-15T01:56:53.851Z,10,GR86-057-57,1.4,0.199,0.068,100.03,3.0,,0.0,0.0,
2025-08-15T01:56:53.894Z,10,GR86-057-57,1.5,0.211,0.061,100.02,3.0,6326.0,0.0,0.0,
2025-08-15T01:56:53.937Z,10,GR86-057-57,1.4,0.189,0.063,100.01,3.0,,0.0,0.0,134.85
2025-08-15T01:56:53.981Z,10,GR86-057-57,1.5,0.167,0.067,100.01,3.0,,0.0,0.0,
2025-08-15T01:56:54.024Z,10,GR86-057-57,1.5,0.172,0.071,100.02,3.0,,0.0,0.0,
2025-08-15T01:56:54.067Z,10,GR86-057-57,1.5,0.208,0.057,99.99,3.0,,0.0,0.0,
2025-08-15T01:56:54.111Z,10,GR86-057-57,1.5,0.207,0.08,100.02,3.0,6381.0,0.0,0.0,
2025-08-15T01:56:54.154Z,10,GR86-057-57,1.5,0.188,0.072,99.98,3.0,,0.0,0.0,136.22
2025-08-15T01:56:54.197Z,10,GR86-057-57,1.5,0.176,0.083,100.01,3.0,,0.0,0.0,
2025-08-15T01:56:54.241Z,10,GR86-057-57,1.5,0.17,0.09,99.99,3.0,,0.0,0.0,
2025-08-15T01:56:54.283Z,10,GR86-057-57,1.5,0.193,0.084,100.01,3.0,,0.0,0.0,
2025-08-15T01:56:54.326Z,10,GR86-057-57,1.5,0.2,0.092,100.01,3.0,6395.0,0.0,0.0,
2025-08-15T01:56:54.371Z,10,GR86-057-57,1.5,0.201,0.09,100.0,3.0,,0.0,0.0,138.84
2025-08-15T01:56:54.414Z,10,GR86-057-57,1.5,0.172,0.101,100.01,3.0,,0.0,0.0,
2025-08-15T01:56:54.457Z,10,GR86-057-57,1.5,0.16,0.102,100.0,3.0,,0.0,0.0,
2025-08-15T01:56:54.501Z,10,GR86-057-57,1.5,0.174,0.114,99.99,3.0,,0.0,0.0,
2025-08-15T01:56:54.544Z,10,GR86-057-57,1.5,0.205,0.111,100.01,3.0,6459.0,0.0,0.0,
2025-08-15T01:56:54.586Z,10,GR86-057-57,1.5,0.194,0.099,99.99,3.0,,0.0,0.0,140.09
2025-08-15T01:56:54.630Z,10,GR86-057-57,1.5,0.187,0.09,99.98,3.0,,0.0,0.0,
2025-08-15T01:56:54.672Z,10,GR86-057-57,1.4,0.194,0.096,100.01,3.0,,0.0,0.0,
2025-08-15T01:56:54.715Z,10,GR86-057-57,1.2000000000000002,0.184,0.085,100.01,3.0,,0.0,0.0,
2025-08-15T01:56:54.758Z,10,GR86-057-57,1.1,0.179,0.104,100.0,3.0,6555.0,0.0,0.0,
2025-08-15T01:56:54.801Z,10,GR86-057-57,1.1,0.181,0.095,100.01,3.0,,0.0,0.0,141.26
2025-08-15T01:56:54.844Z,10,GR86-057-57,1.0,0.19,0.09,100.01,3.0,,0.0,0.0,
2025-08-15T01:56:54.887Z,10,GR86-057-57,0.6000000000000001,0.184,0.088,100.01,3.0,,0.0,0.0,
2025-08-15T01:56:54.931Z,10,GR86-057-57,0.2,0.203,0.097,99.98,3.0,,0.0,0.0,
2025-08-15T01:56:54.974Z,10,GR86-057-57,0.2,0.184,0.079,99.99,3.0,6661.0,0.0,0.0,
2025-08-15T01:56:55.017Z,10,GR86-057-57,0.2,0.159,0.081,99.99,3.0,,0.0,0.0,142.44
2025-08-15T01:56:55.061Z,10,GR86-057-57,0.2,0.174,0.064,100.02,3.0,,0.0,0.0,
2025-08-15T01:56:55.104Z,10,GR86-057-57,0.1,0.198,0.065,99.98,3.0,,0.0,0.0,
2025-08-15T01:56:55.146Z,10,GR86-057-57,-0.2,0.197,0.045,99.99,3.0,,0.0,0.0,
2025-08-15T01:56:55.190Z,10,GR86-057-57,-0.7000000000000001,0.184,0.038,100.02,3.0,6682.0,0.0,0.0,
2025-08-15T01:56:55.234Z,10,GR86-057-57,-1.0,0.183,0.014,99.98,3.0,,0.0,0.0,143.66
2025-08-15T01:56:55.276Z,10,GR86-057-57,-1.2000000000000002,0.166,0.013,100.01,3.0,,0.0,0.0,
2025-08-15T01:56:55.320Z,10,GR86-057-57,-1.3,0.158,-0.001,100.0,3.0,,0.0,0.0,
2025-08-15T01:56:55.362Z,10,GR86-057-57,-1.3,0.166,0.009,100.01,3.0,,0.0,0.0,
2025-08-15T01:56:55.406Z,10,GR86-057-57,-1.3,0.186,-0.002,99.99,3.0,6779.0,0.0,0.0,
2025-08-15T01:56:55.448Z,10,GR86-057-57,-1.3,0.19,-0.009,100.01,3.0,,0.0,0.0,144.86
2025-08-15T01:56:55.491Z,10,GR86-057-57,-1.3,0.187,-0.01,99.99,3.0,,0.0,0.0,
2025-08-15T01:56:55.534Z,10,GR86-057-57,-1.3,0.192,-0.013,100.0,3.0,,0.0,0.0,
2025-08-15T01:56:55.577Z,10,GR86-057-57,-1.3,0.18,-0.005,99.99,3.0,,0.0,0.0,
2025-08-15T01:56:55.621Z,10,GR86-057-57,-1.5,0.153,-0.01,100.01,3.0,6795.0,0.0,0.0,
2025-08-15T01:56:55.663Z,10,GR86-057-57,-1.5,0.162,-0.017,99.98,3.0,,0.0,0.0,146.04
2025-08-15T01:56:55.706Z,10,GR86-057-57,-1.5,0.177,-0.015,99.98,3.0,,0.0,0.0,
2025-08-15T01:56:55.750Z,10,GR86-057-57,-1.5,0.164,-0.027,100.01,3.0,,0.0,0.0,
2025-08-15T01:56:55.792Z,10,GR86-057-57,-1.5,0.179,-0.018,100.0,3.0,,0.0,0.0,
2025-08-15T01:56:55.835Z,10,GR86-057-57,-1.5,0.191,-0.021,100.0,3.0,6851.0,0.0,0.0,
2025-08-15T01:56:55.880Z,10,GR86-057-57,-1.5,0.178,-0.03,99.99,3.0,,0.0,0.0,147.23
2025-08-15T01:56:55.922Z,10,GR86-057-57,-1.6,0.158,-0.023,100.01,3.0,,0.0,0.0,
2025-08-15T01:56:55.965Z,10,GR86-057-57,-1.6,0.155,-0.023,100.0,3.0,,0.0,0.0,
2025-08-15T01:56:56.008Z,10,GR86-057-57,-1.6,0.165,-0.02,100.01,3.0,,0.0,0.0,
2025-08-15T01:56:56.051Z,10,GR86-057-57,-2.0,0.15,-0.007,99.98,3.0,6904.0,0.0,0.0,
2025-08-15T01:56:56.094Z,10,GR86-057-57,-2.5,0.158,-0.01,100.01,3.0,,0.0,0.0,148.39
2025-08-15T01:56:56.137Z,10,GR86-057-57,-2.7,0.168,-0.015,99.98,3.0,,0.0,0.0,
2025-08-15T01:56:56.181Z,10,GR86-057-57,-2.8000000000000003,0.186,-0.038,100.0,3.0,,0.0,0.0,
2025-08-15T01:56:56.224Z,10,GR86-057-57,-2.8000000000000003,0.174,-0.046,99.99,3.0,,0.0,0.0,
2025-08-15T01:56:56.266Z,10,GR86-057-57,-3.0,0.167,-0.048,100.0,3.0,7002.0,0.0,0.0,
2025-08-15T01:56:56.311Z,10,GR86-057-57,-3.2,0.184,-0.062,99.99,3.0,,0.0,0.0,149.56
2025-08-15T01:56:56.354Z,10,GR86-057-57,-3.4000000000000004,0.17,-0.068,99.98,3.0,,0.0,0.0,
2025-08-15T01:56:56.397Z,10,GR86-057-57,-3.4000000000000004,0.165,-0.069,99.99,3.0,,0.0,0.0,
2025-08-15T01:56:56.441Z,10,GR86-057-57,-3.4000000000000004,0.159,-0.067,99.99,3.0,,0.0,0.0,
2025-08-15T01:56:56.483Z,10,GR86-057-57,-3.4000000000000004,0.161,-0.078,100.02,3.0,7016.0,0.0,0.0,
2025-08-15T01:56:56.526Z,10,GR86-057-57,-3.3000000000000003,0.174,-0.078,99.99,3.0,,0.0,0.0,150.72
2025-08-15T01:56:56.572Z,10,GR86-057-57,-3.3000000000000003,0.157,-0.079,100.0,3.0,,0.0,0.0,
2025-08-15T01:56:56.615Z,10,GR86-057-57,-3.0,0.164,-0.072,100.0,3.0,,0.0,0.0,
2025-08-15T01:56:56.658Z,10,GR86-057-57,-2.9000000000000004,0.174,-0.082,100.01,3.0,,0.0,0.0,
2025-08-15T01:56:56.701Z,10,GR86-057-57,-2.9000000000000004,0.17,-0.101,99.99,3.0,7105.0,0.0,0.0,
2025-08-15T01:56:56.744Z,10,GR86-057-57,-2.9000000000000004,0.159,-0.096,99.99,3.0,,0.0,0.0,151.9
2025-08-15T01:56:56.788Z,10,GR86-057-57,-2.9000000000000004,0.151,-0.091,100.0,3.0,,0.0,0.0,
2025-08-15T01:56:56.831Z,10,GR86-057-57,-2.9000000000000004,0.169,-0.101,100.01,3.0,,0.0,0.0,
2025-08-15T01:56:56.874Z,10,GR86-057-57,-2.9000000000000004,0.156,-0.089,100.02,3.0,,0.0,0.0,
2025-08-15T01:56:56.917Z,10,GR86-057-57,-2.8000000000000003,0.161,-0.074,99.99,3.0,7164.0,0.0,0.0,
2025-08-15T01:56:56.961Z,10,GR86-057-57,-2.8000000000000003,0.151,-0.059,99.99,3.0,,0.0,0.0,153.05
2025-08-15T01:56:57.004Z,10,GR86-057-57,-2.8000000000000003,0.156,-0.054,100.0,3.0,,0.0,0.0,
2025-08-15T01:56:57.046Z,10,GR86-057-57,-2.8000000000000003,0.164,-0.067,100.01,3.0,,0.0,0.0,
2025-08-15T01:56:57.090Z,10,GR86-057-57,-2.8000000000000003,0.147,-0.046,100.02,3.0,,0.0,0.0,
2025-08-15T01:56:57.132Z,10,GR86-057-57,-2.8000000000000003,0.143,-0.05,100.02,3.0,7215.0,0.0,0.0,
2025-08-15T01:56:57.175Z,10,GR86-057-57,-2.8000000000000003,0.057,-0.078,100.01,4.0,,0.0,0.0,155.36
2025-08-15T01:56:57.218Z,10,GR86-057-57,-2.8000000000000003,-0.096,-0.056,100.01,4.0,,0.0,0.0,
2025-08-15T01:56:57.261Z,10,GR86-057-57,-2.2,0.638,-0.059,100.02,4.0,,0.0,0.0,
2025-08-15T01:56:57.304Z,10,GR86-057-57,-1.9,0.204,-0.154,99.99,4.0,,0.0,0.0,
2025-08-15T01:56:57.347Z,10,GR86-057-57,-2.6,-0.044,-0.026,99.99,4.0,7262.0,0.0,0.0,
2025-08-15T01:56:57.391Z,10,GR86-057-57,-2.8000000000000003,0.147,-0.078,100.0,4.0,,0.0,0.0,156.42000000000002
2025-08-15T01:56:57.434Z,10,GR86-057-57,-2.0,0.227,-0.102,100.01,4.0,,0.0,0.0,
2025-08-15T01:56:57.476Z,10,GR86-057-57,-1.9,0.138,-0.043,100.0,4.0,,0.0,0.0,
2025-08-15T01:56:57.520Z,10,GR86-057-57,-2.1,0.096,-0.099,100.0,4.0,,0.0,0.0,
2025-08-15T01:56:57.562Z,10,GR86-057-57,-2.1,0.122,-0.081,99.99,4.0,7187.0,0.0,0.0,
2025-08-15T01:56:57.605Z,10,GR86-057-57,-2.1,0.142,-0.036,99.98,4.0,,0.0,0.0,157.43
2025-08-15T01:56:57.648Z,10,GR86-057-57,-2.0,0.141,-0.077,99.99,4.0,,0.0,0.0,
2025-08-15T01:56:57.691Z,10,GR86-057-57,-2.0,0.123,-0.057,99.99,4.0,,0.0,0.0,
2025-08-15T01:56:57.734Z,10,GR86-057-57,-2.0,0.131,-0.038,100.0,4.0,,0.0,0.0,
2025-08-15T01:56:57.821Z,10,GR86-057-57,-2.1,0.135,-0.019,99.99,4.0,6215.0,0.0,0.0,158.4
2025-08-15T01:56:57.864Z,10,GR86-057-57,-2.4000000000000004,0.126,-0.049,100.0,4.0,,0.0,0.0,
2025-08-15T01:56:57.906Z,10,GR86-057-57,-2.4000000000000004,0.113,-0.063,100.02,4.0,,0.0,0.0,
2025-08-15T01:56:57.950Z,10,GR86-057-57,-2.4000000000000004,0.139,-0.021,100.01,4.0,,0.0,0.0,
2025-08-15T01:56:57.992Z,10,GR86-057-57,-2.4000000000000004,0.137,-0.039,99.99,4.0,6269.0,0.0,0.0,
2025-08-15T01:56:58.035Z,10,GR86-057-57,-2.5,0.114,-0.058,99.98,4.0,,0.0,0.0,159.37
2025-08-15T01:56:58.078Z,10,GR86-057-57,-2.6,0.112,-0.06,100.0,4.0,,0.0,0.0,
2025-08-15T01:56:58.121Z,10,GR86-057-57,-2.7,0.102,-0.058,99.98,4.0,,0.0,0.0,
2025-08-15T01:56:58.164Z,10,GR86-057-57,-3.0,0.115,-0.044,100.0,4.0,,0.0,0.0,
2025-08-15T01:56:58.208Z,10,GR86-057-57,-3.3000000000000003,0.115,-0.053,100.0,4.0,6311.0,0.0,0.0,
2025-08-15T01:56:58.251Z,10,GR86-057-57,-3.5,0.109,-0.076,100.0,4.0,,0.0,0.0,160.28
2025-08-15T01:56:58.294Z,10,GR86-057-57,-3.5,0.105,-0.086,100.01,4.0,,0.0,0.0,
2025-08-15T01:56:58.337Z,10,GR86-057-57,-3.5,0.114,-0.079,99.98,4.0,,0.0,0.0,
2025-08-15T01:56:58.381Z,10,GR86-057-57,-3.5,0.118,-0.08,100.0,4.0,,0.0,0.0,
2025-08-15T01:56:58.423Z,10,GR86-057-57,-3.6,0.123,-0.096,100.0,4.0,6298.0,0.0,0.0,
2025-08-15T01:56:58.466Z,10,GR86-057-57,-3.7,0.137,-0.095,99.99,4.0,,0.0,0.0,161.25
2025-08-15T01:56:58.510Z,10,GR86-057-57,-4.1000000000000005,0.1,-0.107,99.99,4.0,,0.0,0.0,
2025-08-15T01:56:58.554Z,10,GR86-057-57,-4.2,0.117,-0.094,100.03,4.0,,0.0,0.0,
2025-08-15T01:56:58.598Z,10,GR86-057-57,-4.2,0.119,-0.102,100.0,4.0,,0.0,0.0,
2025-08-15T01:56:58.641Z,10,GR86-057-57,-4.2,0.126,-0.089,99.99,4.0,6340.0,0.0,0.0,
2025-08-15T01:56:58.684Z,10,GR86-057-57,-4.1000000000000005,0.144,-0.108,100.0,4.0,,0.0,0.0,162.16
2025-08-15T01:56:58.727Z,10,GR86-057-57,-4.1000000000000005,0.138,-0.109,99.99,4.0,,0.0,0.0,
2025-08-15T01:56:58.771Z,10,GR86-057-57,-4.2,0.115,-0.107,100.01,4.0,,0.0,0.0,
2025-08-15T01:56:58.814Z,10,GR86-057-57,-4.3,0.136,-0.112,100.01,4.0,,0.0,0.0,
2025-08-15T01:56:58.857Z,10,GR86-057-57,-4.5,0.138,-0.126,100.01,4.0,6413.0,0.0,0.0,
2025-08-15T01:56:58.901Z,10,GR86-057-57,-4.6000000000000005,0.143,-0.136,99.99,4.0,,0.0,0.0,163.13
2025-08-15T01:56:58.943Z,10,GR86-057-57,-4.6000000000000005,0.133,-0.161,100.0,4.0,,0.0,0.0,
2025-08-15T01:56:58.986Z,10,GR86-057-57,-4.6000000000000005,0.13,-0.166,99.99,4.0,,0.0,0.0,
2025-08-15T01:56:59.030Z,10,GR86-057-57,-4.6000000000000005,0.132,-0.169,100.01,4.0,,0.0,0.0,
2025-08-15T01:56:59.072Z,10,GR86-057-57,-4.6000000000000005,0.143,-0.152,100.02,4.0,6406.0,0.0,0.0,
2025-08-15T01:56:59.115Z,10,GR86-057-57,-4.5,0.133,-0.157,100.0,4.0,,0.0,0.0,164.05
2025-08-15T01:56:59.158Z,10,GR86-057-57,-4.4,0.134,-0.151,99.98,4.0,,0.0,0.0,
2025-08-15T01:56:59.201Z,10,GR86-057-57,-4.3,0.118,-0.154,99.99,4.0,,0.0,0.0,
2025-08-15T01:56:59.244Z,10,GR86-057-57,-4.3,0.116,-0.142,100.0,4.0,,0.0,0.0,
2025-08-15T01:56:59.287Z,10,GR86-057-57,-4.2,0.119,-0.137,100.02,4.0,6490.0,0.0,0.0,
2025-08-15T01:56:59.331Z,10,GR86-057-57,-4.2,0.137,-0.128,100.01,4.0,,0.0,0.0,164.97
2025-08-15T01:56:59.374Z,10,GR86-057-57,-4.2,0.135,-0.136,100.02,4.0,,0.0,0.0,
2025-08-15T01:56:59.417Z,10,GR86-057-57,-4.2,0.142,-0.115,99.99,4.0,,0.0,0.0,
2025-08-15T01:56:59.461Z,10,GR86-057-57,-4.2,0.124,-0.108,100.01,4.0,,0.0,0.0,
2025-08-15T01:56:59.504Z,10,GR86-057-57,-4.2,0.125,-0.11,100.02,4.0,6485.0,0.0,0.0,
2025-08-15T01:56:59.548Z,10,GR86-057-57,-4.3,0.11,-0.103,100.02,4.0,,0.0,0.0,166.01
2025-08-15T01:56:59.591Z,10,GR86-057-57,-4.3,0.135,-0.081,100.0,4.0,,0.0,0.0,
2025-08-15T01:56:59.634Z,10,GR86-057-57,-4.5,0.145,-0.081,99.99,4.0,,0.0,0.0,
2025-08-15T01:56:59.677Z,10,GR86-057-57,-4.5,0.129,-0.083,100.01,4.0,,0.0,0.0,
2025-08-15T01:56:59.721Z,10,GR86-057-57,-4.6000000000000005,0.125,-0.096,100.02,4.0,6526.0,0.0,0.0,
2025-08-15T01:56:59.764Z,10,GR86-057-57,-4.6000000000000005,0.121,-0.107,100.0,4.0,,0.0,0.0,166.97
2025-08-15T01:56:59.807Z,10,GR86-057-57,-4.800000000000001,0.111,-0.116,99.99,4.0,,0.0,0.0,
2025-08-15T01:56:59.851Z,10,GR86-057-57,-5.300000000000001,0.135,-0.127,100.0,4.0,,0.0,0.0,
2025-08-15T01:56:59.893Z,10,GR86-057-57,-5.5,0.138,-0.139,100.01,4.0,,0.0,0.0,
2025-08-15T01:56:59.937Z,10,GR86-057-57,-5.5,0.134,-0.156,99.99,4.0,6565.0,0.0,0.0,
2025-08-15T01:56:59.980Z,10,GR86-057-57,-5.5,0.127,-0.167,99.99,4.0,,0.0,0.0,168.93
2025-08-15T01:57:00.022Z,10,GR86-057-57,-5.5,0.127,-0.181,100.0,4.0,,0.0,0.0,
2025-08-15T01:57:00.065Z,10,GR86-057-57,-5.4,0.113,-0.196,100.02,4.0,,0.0,0.0,
2025-08-15T01:57:00.108Z,10,GR86-057-57,-5.2,0.112,-0.209,99.98,4.0,,0.0,0.0,
2025-08-15T01:57:00.151Z,10,GR86-057-57,-4.9,0.127,-0.205,100.01,4.0,6604.0,0.0,0.0,
2025-08-15T01:57:00.237Z,10,GR86-057-57,-4.800000000000001,0.129,-0.183,100.0,4.0,,0.0,0.0,169.79
2025-08-15T01:57:00.281Z,10,GR86-057-57,-4.9,0.13,-0.174,99.99,4.0,,0.0,0.0,
2025-08-15T01:57:00.324Z,10,GR86-057-57,-4.800000000000001,0.127,-0.17,99.99,4.0,,0.0,0.0,
2025-08-15T01:57:00.368Z,10,GR86-057-57,-4.800000000000001,0.122,-0.173,99.98,4.0,6637.0,0.0,0.0,
2025-08-15T01:57:00.411Z,10,GR86-057-57,-4.7,0.12,-0.16,99.98,4.0,,0.0,0.0,170.74
2025-08-15T01:57:00.454Z,10,GR86-057-57,-4.6000000000000005,0.127,-0.156,100.0,4.0,,0.0,0.0,
2025-08-15T01:57:00.497Z,10,GR86-057-57,-4.4,0.115,-0.14,100.02,4.0,,0.0,0.0,
2025-08-15T01:57:00.541Z,10,GR86-057-57,-4.3,0.141,-0.139,100.01,4.0,,0.0,0.0,
2025-08-15T01:57:00.626Z,10,GR86-057-57,-4.2,0.116,-0.127,99.98,4.0,6714.0,0.0,0.0,171.75
2025-08-15T01:57:00.671Z,10,GR86-057-57,-3.8,0.11,-0.113,100.0,4.0,,0.0,0.0,
2025-08-15T01:57:00.714Z,10,GR86-057-57,-3.8,0.099,-0.106,100.0,4.0,,0.0,0.0,
2025-08-15T01:57:00.757Z,10,GR86-057-57,-3.8,0.121,-0.103,99.98,4.0,,0.0,0.0,
2025-08-15T01:57:00.801Z,10,GR86-057-57,-3.8,0.118,-0.098,100.0,4.0,6782.0,0.0,0.0,
2025-08-15T01:57:00.843Z,10,GR86-057-57,-3.7,0.127,-0.094,100.02,4.0,,0.0,0.0,172.75
2025-08-15T01:57:00.886Z,10,GR86-057-57,-3.8,0.117,-0.118,99.98,4.0,,0.0,0.0,
2025-08-15T01:57:00.930Z,10,GR86-057-57,-3.8,0.103,-0.115,100.0,4.0,,0.0,0.0,
2025-08-15T01:57:00.972Z,10,GR86-057-57,-3.8,0.111,-0.124,100.02,4.0,,0.0,0.0,
2025-08-15T01:57:01.015Z,10,GR86-057-57,-3.8,0.104,-0.108,99.97,4.0,6790.0,0.0,0.0,
2025-08-15T01:57:01.058Z,10,GR86-057-57,-3.1,0.112,-0.124,100.02,4.0,,0.0,0.0,173.57
2025-08-15T01:57:01.101Z,10,GR86-057-57,-2.5,0.107,-0.112,100.0,4.0,,0.0,0.0,
2025-08-15T01:57:01.144Z,10,GR86-057-57,-2.4000000000000004,0.087,-0.105,99.99,4.0,,0.0,0.0,
2025-08-15T01:57:01.187Z,10,GR86-057-57,-2.4000000000000004,0.12,-0.087,99.98,4.0,,0.0,0.0,
2025-08-15T01:57:01.231Z,10,GR86-057-57,-2.8000000000000003,0.112,-0.066,100.01,4.0,6819.0,0.0,0.0,
2025-08-15T01:57:01.274Z,10,GR86-057-57,-3.3000000000000003,0.104,-0.055,99.97,4.0,,0.0,0.0,174.46
2025-08-15T01:57:01.317Z,10,GR86-057-57,-3.3000000000000003,0.109,-0.054,99.98,4.0,,0.0,0.0,
2025-08-15T01:57:01.361Z,10,GR86-057-57,-3.3000000000000003,0.118,-0.057,99.99,4.0,,0.0,0.0,
2025-08-15T01:57:01.404Z,10,GR86-057-57,-3.2,0.119,-0.062,100.0,4.0,,0.0,0.0,
2025-08-15T01:57:01.446Z,10,GR86-057-57,-3.3000000000000003,0.093,-0.074,99.99,4.0,6852.0,0.0,0.0,
2025-08-15T01:57:01.490Z,10,GR86-057-57,-3.7,0.112,-0.073,100.01,4.0,,0.0,0.0,175.48
2025-08-15T01:57:01.534Z,10,GR86-057-57,-3.7,0.127,-0.075,99.98,4.0,,0.0,0.0,
2025-08-15T01:57:01.576Z,10,GR86-057-57,-3.7,0.121,-0.068,100.01,4.0,,0.0,0.0,
2025-08-15T01:57:01.620Z,10,GR86-057-57,-3.7,0.109,-0.083,99.99,4.0,,0.0,0.0,
2025-08-15T01:57:01.662Z,10,GR86-057-57,-3.7,0.108,-0.092,99.98,4.0,6891.0,0.0,0.0,
2025-08-15T01:57:01.706Z,10,GR86-057-57,-3.7,0.128,-0.1,100.0,4.0,,0.0,0.0,176.31
2025-08-15T01:57:01.748Z,10,GR86-057-57,-4.0,0.114,-0.101,100.0,4.0,,0.0,0.0,
2025-08-15T01:57:01.791Z,10,GR86-057-57,-4.2,0.111,-0.113,99.99,4.0,,0.0,0.0,
2025-08-15T01:57:01.834Z,10,GR86-057-57,-4.2,0.109,-0.123,99.99,4.0,,0.0,0.0,
2025-08-15T01:57:01.877Z,10,GR86-057-57,-4.2,0.108,-0.133,100.0,4.0,6918.0,0.0,0.0,
2025-08-15T01:57:01.921Z,10,GR86-057-57,-4.0,0.091,-0.131,99.98,4.0,,0.0,0.0,177.27
2025-08-15T01:57:01.963Z,10,GR86-057-57,-3.6,0.098,-0.121,99.98,4.0,,0.0,0.0,
2025-08-15T01:57:02.006Z,10,GR86-057-57,-3.5,0.097,-0.117,99.99,4.0,,0.0,0.0,
2025-08-15T01:57:02.050Z,10,GR86-057-57,-3.4000000000000004,0.101,-0.114,100.01,4.0,,0.0,0.0,
2025-08-15T01:57:02.092Z,10,GR86-057-57,-3.4000000000000004,0.085,-0.102,100.01,4.0,7003.0,0.0,0.0,
2025-08-15T01:57:02.135Z,10,GR86-057-57,-3.4000000000000004,0.112,-0.088,100.02,4.0,,0.0,0.0,178.12
2025-08-15T01:57:02.178Z,10,GR86-057-57,-3.4000000000000004,0.099,-0.088,99.99,4.0,,0.0,0.0,
2025-08-15T01:57:02.221Z,10,GR86-057-57,-3.3000000000000003,0.102,-0.078,100.01,4.0,,0.0,0.0,
2025-08-15T01:57:02.264Z,10,GR86-057-57,-3.3000000000000003,0.096,-0.071,100.0,4.0,,0.0,0.0,
2025-08-15T01:57:02.308Z,10,GR86-057-57,-3.3000000000000003,0.087,-0.069,99.99,4.0,7027.0,0.0,0.0,
2025-08-15T01:57:02.351Z,10,GR86-057-57,-3.4000000000000004,0.094,-0.056,99.99,4.0,,0.0,0.0,179.06
2025-08-15T01:57:02.394Z,10,GR86-057-57,-3.5,0.099,-0.045,100.01,4.0,,0.0,0.0,
2025-08-15T01:57:02.481Z,10,GR86-057-57,-3.7,0.106,-0.055,100.01,4.0,,0.0,0.0,
2025-08-15T01:57:02.524Z,10,GR86-057-57,-3.8,0.1,-0.057,99.99,4.0,7026.0,0.0,0.0,
2025-08-15T01:57:02.566Z,10,GR86-057-57,-4.0,0.106,-0.071,99.98,4.0,,0.0,0.0,179.9
2025-08-15T01:57:02.611Z,10,GR86-057-57,-4.6000000000000005,0.093,-0.091,99.97,4.0,,0.0,0.0,
2025-08-15T01:57:02.654Z,10,GR86-057-57,-5.0,0.094,-0.093,99.99,4.0,,0.0,0.0,
2025-08-15T01:57:02.697Z,10,GR86-057-57,-5.300000000000001,0.069,-0.116,99.99,4.0,,0.0,0.0,
2025-08-15T01:57:02.741Z,10,GR86-057-57,-5.5,0.08,-0.127,99.99,4.0,7054.0,0.0,0.0,
2025-08-15T01:57:02.783Z,10,GR86-057-57,-5.4,0.071,-0.144,100.01,4.0,,0.0,0.0,181.47
2025-08-15T01:57:02.826Z,10,GR86-057-57,-4.9,0.085,-0.143,100.01,4.0,,0.0,0.0,
2025-08-15T01:57:02.872Z,10,GR86-057-57,-4.0,0.091,-0.149,100.0,4.0,,0.0,0.0,
2025-08-15T01:57:02.914Z,10,GR86-057-57,-3.9,0.099,-0.148,100.0,4.0,,0.0,0.0,
2025-08-15T01:57:02.957Z,10,GR86-057-57,-3.9,0.087,-0.14,100.01,4.0,7122.0,0.0,0.0,
2025-08-15T01:57:03.001Z,10,GR86-057-57,-3.8,0.104,-0.134,100.0,4.0,,0.0,0.0,182.17
2025-08-15T01:57:03.043Z,10,GR86-057-57,-3.6,0.096,-0.135,100.0,4.0,,0.0,0.0,
2025-08-15T01:57:03.086Z,10,GR86-057-57,-3.6,0.101,-0.101,99.99,4.0,,0.0,0.0,
2025-08-15T01:57:03.130Z,10,GR86-057-57,-3.5,0.081,-0.073,99.98,4.0,,0.0,0.0,
2025-08-15T01:57:03.174Z,10,GR86-057-57,-3.2,0.074,-0.057,99.99,4.0,7148.0,0.0,0.0,
2025-08-15T01:57:03.217Z,10,GR86-057-57,-3.0,0.062,-0.065,100.01,5.0,,0.0,0.0,183.05
2025-08-15T01:57:03.261Z,10,GR86-057-57,-3.0,-0.173,-0.044,99.99,5.0,,0.0,0.0,
2025-08-15T01:57:03.304Z,10,GR86-057-57,-2.9000000000000004,0.435,-0.031,100.0,5.0,,0.0,0.0,
2025-08-15T01:57:03.346Z,10,GR86-057-57,-2.8000000000000003,0.089,-0.13,100.01,5.0,,0.0,0.0,
2025-08-15T01:57:03.390Z,10,GR86-057-57,-3.0,0.001,0.005,100.0,5.0,7168.0,0.0,0.0,
2025-08-15T01:57:03.434Z,10,GR86-057-57,-2.6,0.143,-0.068,99.99,5.0,,0.0,0.0,183.84
2025-08-15T01:57:03.476Z,10,GR86-057-57,-2.4000000000000004,0.121,-0.082,99.98,5.0,,0.0,0.0,
2025-08-15T01:57:03.520Z,10,GR86-057-57,-2.9000000000000004,0.037,-0.009,99.99,5.0,,0.0,0.0,
2025-08-15T01:57:03.562Z,10,GR86-057-57,-3.3000000000000003,0.064,-0.087,99.98,5.0,,0.0,0.0,
2025-08-15T01:57:03.606Z,10,GR86-057-57,-3.3000000000000003,0.097,-0.084,99.98,5.0,6188.0,0.0,0.0,
2025-08-15T01:57:03.650Z,10,GR86-057-57,-3.3000000000000003,0.076,-0.072,99.97,5.0,,0.0,0.0,184.36
2025-08-15T01:57:03.692Z,10,GR86-057-57,-3.3000000000000003,0.099,-0.093,99.99,5.0,,0.0,0.0,
2025-08-15T01:57:03.735Z,10,GR86-057-57,-3.0,0.106,-0.082,100.01,5.0,,0.0,0.0,
2025-08-15T01:57:03.778Z,10,GR86-057-57,-2.8000000000000003,0.087,-0.092,99.99,5.0,,0.0,0.0,
2025-08-15T01:57:03.821Z,10,GR86-057-57,-2.6,0.076,-0.079,99.99,5.0,6317.0,0.0,0.0,
2025-08-15T01:57:03.864Z,10,GR86-057-57,-2.4000000000000004,0.094,-0.076,99.98,5.0,,0.0,0.0,185.2
2025-08-15T01:57:03.907Z,10,GR86-057-57,-2.2,0.097,-0.066,99.99,5.0,,0.0,0.0,
2025-08-15T01:57:03.951Z,10,GR86-057-57,-2.1,0.058,-0.062,99.99,5.0,,0.0,0.0,
2025-08-15T01:57:03.994Z,10,GR86-057-57,-2.1,0.071,-0.041,100.0,5.0,,0.0,0.0,
2025-08-15T01:57:04.037Z,10,GR86-057-57,-2.1,0.053,-0.028,99.98,5.0,6312.0,0.0,0.0,
2025-08-15T01:57:04.080Z,10,GR86-057-57,-2.1,0.067,-0.038,100.03,5.0,,0.0,0.0,185.83
2025-08-15T01:57:04.122Z,10,GR86-057-57,-2.1,0.06,-0.038,100.01,5.0,,0.0,0.0,
2025-08-15T01:57:04.165Z,10,GR86-057-57,-2.1,0.072,-0.038,100.0,5.0,,0.0,0.0,
2025-08-15T01:57:04.210Z,10,GR86-057-57,-2.1,0.086,-0.036,99.99,5.0,,0.0,0.0,
2025-08-15T01:57:04.254Z,10,GR86-057-57,-2.1,0.08,-0.05,99.99,5.0,6341.0,0.0,0.0,
2025-08-15T01:57:04.298Z,10,GR86-057-57,-2.1,0.078,-0.042,99.99,5.0,,0.0,0.0,186.64
2025-08-15T01:57:04.341Z,10,GR86-057-57,-2.1,0.062,-0.034,99.99,5.0,,0.0,0.0,
2025-08-15T01:57:04.384Z,10,GR86-057-57,-2.1,0.081,-0.03,100.02,5.0,,0.0,0.0,
2025-08-15T01:57:04.427Z,10,GR86-057-57,-1.6,0.067,-0.024,100.01,5.0,,0.0,0.0,
2025-08-15T01:57:04.471Z,10,GR86-057-57,-0.9,0.087,-0.024,99.99,5.0,6331.0,0.0,0.0,
2025-08-15T01:57:04.514Z,10,GR86-057-57,-0.8,0.098,-0.026,99.99,5.0,,0.0,0.0,187.27
2025-08-15T01:57:04.557Z,10,GR86-057-57,-0.8,0.098,-0.005,100.0,5.0,,0.0,0.0,
2025-08-15T01:57:04.601Z,10,GR86-057-57,-1.0,0.091,-0.01,100.0,5.0,,0.0,0.0,
2025-08-15T01:57:04.643Z,10,GR86-057-57,-1.1,0.085,0.005,100.0,5.0,,0.0,0.0,
2025-08-15T01:57:04.686Z,10,GR86-057-57,-1.1,0.091,0.01,100.02,5.0,6345.0,0.0,0.0,
2025-08-15T01:57:04.730Z,10,GR86-057-57,-1.0,0.076,0.015,100.02,5.0,,0.0,0.0,187.91
2025-08-15T01:57:04.772Z,10,GR86-057-57,-1.0,0.066,0.004,99.99,5.0,,0.0,0.0,
2025-08-15T01:57:04.815Z,10,GR86-057-57,-1.0,0.075,0.003,100.01,5.0,,0.0,0.0,
2025-08-15T01:57:04.858Z,10,GR86-057-57,-1.0,0.078,0.003,100.0,5.0,,0.0,0.0,
2025-08-15T01:57:04.901Z,10,GR86-057-57,-1.0,0.087,0.015,100.0,5.0,6416.0,0.0,0.0,
2025-08-15T01:57:04.944Z,10,GR86-057-57,-1.1,0.09,0.016,100.01,5.0,,0.0,0.0,188.57
2025-08-15T01:57:04.987Z,10,GR86-057-57,-1.5,0.091,0.01,100.0,5.0,,0.0,0.0,
2025-08-15T01:57:05.031Z,10,GR86-057-57,-1.9,0.065,0.007,99.98,5.0,,0.0,0.0,
2025-08-15T01:57:05.074Z,10,GR86-057-57,-2.1,0.064,-0.006,100.01,5.0,,0.0,0.0,
2025-08-15T01:57:05.117Z,10,GR86-057-57,-2.6,0.063,0.004,100.0,5.0,6402.0,0.0,0.0,
2025-08-15T01:57:05.161Z,10,GR86-057-57,-3.1,0.073,-0.02,99.99,5.0,,0.0,0.0,189.22
2025-08-15T01:57:05.204Z,10,GR86-057-57,-3.4000000000000004,0.082,-0.054,100.01,5.0,,0.0,0.0,
2025-08-15T01:57:05.248Z,10,GR86-057-57,-3.5,0.068,-0.06,100.0,5.0,,0.0,0.0,
2025-08-15T01:57:05.291Z,10,GR86-057-57,-3.3000000000000003,0.062,-0.09,100.01,5.0,,0.0,0.0,
2025-08-15T01:57:05.334Z,10,GR86-057-57,-3.2,0.07,-0.088,99.99,5.0,6453.0,0.0,0.0,
2025-08-15T01:57:05.377Z,10,GR86-057-57,-3.0,0.048,-0.09,99.99,5.0,,0.0,0.0,190.5
2025-08-15T01:57:05.421Z,10,GR86-057-57,-2.6,0.057,-0.09,99.99,5.0,,0.0,0.0,
2025-08-15T01:57:05.464Z,10,GR86-057-57,-2.1,0.055,-0.065,100.02,5.0,,0.0,0.0,
2025-08-15T01:57:05.507Z,10,GR86-057-57,-1.9,0.064,-0.075,100.01,5.0,,0.0,0.0,
2025-08-15T01:57:05.551Z,10,GR86-057-57,-1.9,0.071,-0.084,100.01,5.0,6445.0,0.0,0.0,
2025-08-15T01:57:05.593Z,10,GR86-057-57,-1.9,0.07,-0.065,100.01,5.0,,0.0,0.0,191.29
2025-08-15T01:57:05.637Z,10,GR86-057-57,-1.9,0.075,-0.074,99.99,5.0,,0.0,0.0,
2025-08-15T01:57:05.680Z,10,GR86-057-57,-1.9,0.065,-0.058,100.02,5.0,,0.0,0.0,
2025-08-15T01:57:05.722Z,10,GR86-057-57,-1.9,0.059,-0.066,100.01,5.0,,0.0,0.0,
2025-08-15T01:57:05.765Z,10,GR86-057-57,-1.9,0.059,-0.058,99.99,5.0,6501.0,0.0,0.0,
2025-08-15T01:57:05.808Z,10,GR86-057-57,-1.9,0.072,-0.042,99.99,5.0,,0.0,0.0,191.88
2025-08-15T01:57:05.851Z,10,GR86-057-57,-1.7000000000000002,0.094,-0.042,99.99,5.0,,0.0,0.0,
2025-08-15T01:57:05.894Z,10,GR86-057-57,-1.6,0.074,-0.043,100.03,5.0,,0.0,0.0,
2025-08-15T01:57:05.937Z,10,GR86-057-57,-1.4,0.077,-0.032,100.02,5.0,,0.0,0.0,
2025-08-15T01:57:05.981Z,10,GR86-057-57,-1.3,0.069,-0.032,100.01,5.0,6507.0,0.0,0.0,
2025-08-15T01:57:06.023Z,10,GR86-057-57,-1.1,0.054,-0.015,99.99,5.0,,0.0,0.0,192.46
2025-08-15T01:57:06.067Z,10,GR86-057-57,-1.1,0.07,0.003,100.01,5.0,,0.0,0.0,
2025-08-15T01:57:06.111Z,10,GR86-057-57,-1.1,0.084,0.008,100.01,5.0,,0.0,0.0,
2025-08-15T01:57:06.154Z,10,GR86-057-57,-1.1,0.072,0.014,100.0,5.0,,0.0,0.0,
2025-08-15T01:57:06.197Z,10,GR86-057-57,-1.1,0.083,0.021,100.01,5.0,6522.0,0.0,0.0,
2025-08-15T01:57:06.241Z,10,GR86-057-57,-1.1,0.082,0.02,100.0,5.0,,0.0,0.0,193.16
2025-08-15T01:57:06.283Z,10,GR86-057-57,-1.3,0.07,0.03,99.99,5.0,,0.0,0.0,
2025-08-15T01:57:06.326Z,10,GR86-057-57,-1.6,0.068,0.015,100.01,5.0,,0.0,0.0,
2025-08-15T01:57:06.372Z,10,GR86-057-57,-2.1,0.081,0.026,100.0,5.0,,0.0,0.0,
2025-08-15T01:57:06.414Z,10,GR86-057-57,-2.1,0.095,0.025,99.98,5.0,6541.0,0.0,0.0,
2025-08-15T01:57:06.457Z,10,GR86-057-57,-2.1,0.083,-0.004,100.0,5.0,,0.0,0.0,193.76
2025-08-15T01:57:06.501Z,10,GR86-057-57,-2.1,0.068,-0.013,100.03,5.0,,0.0,0.0,
2025-08-15T01:57:06.544Z,10,GR86-057-57,-2.1,0.069,-0.031,100.0,5.0,,0.0,0.0,
2025-08-15T01:57:06.586Z,10,GR86-057-57,-2.1,0.089,-0.033,100.0,5.0,,0.0,0.0,
2025-08-15T01:57:06.630Z,10,GR86-057-57,-1.9,0.087,-0.043,100.0,5.0,6613.0,0.0,0.0,
2025-08-15T01:57:06.672Z,10,GR86-057-57,-1.3,0.07,-0.038,100.0,5.0,,0.0,0.0,194.29
2025-08-15T01:57:06.715Z,10,GR86-057-57,-0.7000000000000001,0.079,-0.024,100.01,5.0,,0.0,0.0,
2025-08-15T01:57:06.758Z,10,GR86-057-57,-0.2,0.078,-0.037,99.99,5.0,,0.0,0.0,
2025-08-15T01:57:06.801Z,10,GR86-057-57,0.1,0.077,-0.018,99.99,5.0,,0.0,0.0,
2025-08-15T01:57:06.844Z,10,GR86-057-57,0.1,0.068,0.001,100.01,5.0,6604.0,0.0,0.0,
2025-08-15T01:57:06.887Z,10,GR86-057-57,0.1,0.071,0.015,100.02,5.0,,0.0,0.0,194.87
2025-08-15T01:57:06.931Z,10,GR86-057-57,0.5,0.081,0.029,99.98,5.0,,0.0,0.0,
2025-08-15T01:57:06.974Z,10,GR86-057-57,0.8,0.067,0.022,99.99,5.0,,0.0,0.0,
2025-08-15T01:57:07.017Z,10,GR86-057-57,0.9,0.07,0.024,99.99,5.0,,0.0,0.0,
2025-08-15T01:57:07.061Z,10,GR86-057-57,1.0,0.058,0.051,100.02,5.0,6610.0,0.0,0.0,
2025-08-15T01:57:07.104Z,10,GR86-057-57,1.1,0.068,0.072,99.99,5.0,,0.0,0.0,195.52
2025-08-15T01:57:07.146Z,10,GR86-057-57,1.2000000000000002,0.076,0.091,100.01,5.0,,0.0,0.0,
2025-08-15T01:57:07.190Z,10,GR86-057-57,1.8,0.071,0.089,99.99,5.0,,0.0,0.0,
2025-08-15T01:57:07.234Z,10,GR86-057-57,2.3000000000000003,0.064,0.109,99.99,5.0,,0.0,0.0,
2025-08-15T01:57:07.276Z,10,GR86-057-57,2.4000000000000004,0.074,0.125,99.98,5.0,6629.0,0.0,0.0,
2025-08-15T01:57:07.320Z,10,GR86-057-57,2.4000000000000004,0.071,0.145,99.99,5.0,,0.0,0.0,196.13
2025-08-15T01:57:07.362Z,10,GR86-057-57,2.4000000000000004,0.069,0.152,100.01,5.0,,0.0,0.0,
2025-08-15T01:57:07.406Z,10,GR86-057-57,2.5,0.074,0.156,100.01,5.0,,0.0,0.0,
2025-08-15T01:57:07.448Z,10,GR86-057-57,2.6,0.067,0.165,99.99,5.0,,0.0,0.0,
2025-08-15T01:57:07.491Z,10,GR86-057-57,2.6,0.066,0.178,99.99,5.0,6681.0,0.0,0.0,
2025-08-15T01:57:07.534Z,10,GR86-057-57,2.7,0.067,0.18,99.98,5.0,,0.0,0.0,196.71
2025-08-15T01:57:07.577Z,10,GR86-057-57,2.9000000000000004,0.061,0.178,99.99,5.0,,0.0,0.0,
2025-08-15T01:57:07.621Z,10,GR86-057-57,3.3000000000000003,0.062,0.173,99.98,5.0,,0.0,0.0,
2025-08-15T01:57:07.663Z,10,GR86-057-57,3.7,0.072,0.19,99.98,5.0,,0.0,0.0,
2025-08-15T01:57:07.706Z,10,GR86-057-57,4.1000000000000005,0.055,0.21,99.98,5.0,6706.0,0.0,0.0,
2025-08-15T01:57:07.750Z,10,GR86-057-57,4.6000000000000005,0.07,0.192,99.99,5.0,,0.0,0.0,197.3
2025-08-15T01:57:07.792Z,10,GR86-057-57,4.800000000000001,0.073,0.214,100.01,5.0,,0.0,0.0,
2025-08-15T01:57:07.835Z,10,GR86-057-57,5.0,0.064,0.216,100.0,5.0,,0.0,0.0,
2025-08-15T01:57:07.878Z,10,GR86-057-57,5.300000000000001,0.057,0.241,100.01,5.0,,0.0,0.0,
2025-08-15T01:57:07.921Z,10,GR86-057-57,5.9,0.072,0.259,99.98,5.0,6683.0,0.0,0.0,
2025-08-15T01:57:07.964Z,10,GR86-057-57,6.300000000000001,0.066,0.265,99.98,5.0,,0.0,0.0,197.99
2025-08-15T01:57:08.007Z,10,GR86-057-57,6.4,0.052,0.282,100.0,5.0,,0.0,0.0,
2025-08-15T01:57:08.051Z,10,GR86-057-57,5.9,0.071,0.321,100.02,5.0,,0.0,0.0,
2025-08-15T01:57:08.093Z,10,GR86-057-57,5.5,0.063,0.345,99.99,5.0,,0.0,0.0,
2025-08-15T01:57:08.136Z,10,GR86-057-57,5.4,0.059,0.332,99.99,5.0,6745.0,0.0,0.0,
2025-08-15T01:57:08.180Z,10,GR86-057-57,5.4,0.059,0.331,100.0,5.0,,0.0,0.0,199.19
2025-08-15T01:57:08.222Z,10,GR86-057-57,5.300000000000001,0.063,0.342,100.0,5.0,,0.0,0.0,
2025-08-15T01:57:08.265Z,10,GR86-057-57,5.300000000000001,0.052,0.327,100.01,5.0,,0.0,0.0,
2025-08-15T01:57:08.308Z,10,GR86-057-57,5.300000000000001,0.062,0.316,100.01,5.0,,0.0,0.0,
2025-08-15T01:57:08.351Z,10,GR86-057-57,5.300000000000001,0.065,0.31,100.0,5.0,6724.0,0.0,0.0,
2025-08-15T01:57:08.394Z,10,GR86-057-57,5.300000000000001,0.059,0.317,100.0,5.0,,0.0,0.0,199.8
2025-08-15T01:57:08.437Z,10,GR86-057-57,6.1000000000000005,0.054,0.319,100.0,5.0,,0.0,0.0,
2025-08-15T01:57:08.481Z,10,GR86-057-57,7.1000000000000005,0.051,0.313,100.01,5.0,,0.0,0.0,
2025-08-15T01:57:08.524Z,10,GR86-057-57,7.4,0.071,0.313,99.98,5.0,,0.0,0.0,
2025-08-15T01:57:08.567Z,10,GR86-057-57,6.7,0.073,0.31,100.02,5.0,6792.0,0.0,0.0,
2025-08-15T01:57:08.611Z,10,GR86-057-57,5.300000000000001,0.057,0.315,100.01,5.0,,0.0,0.0,200.36
2025-08-15T01:57:08.654Z,10,GR86-057-57,4.7,0.056,0.33,100.0,5.0,,0.0,0.0,
2025-08-15T01:57:08.697Z,10,GR86-057-57,4.5,0.073,0.325,100.0,5.0,,0.0,0.0,
2025-08-15T01:57:08.741Z,10,GR86-057-57,4.5,0.066,0.308,100.0,5.0,,0.0,0.0,
2025-08-15T01:57:08.783Z,10,GR86-057-57,4.5,0.083,0.297,100.0,5.0,6787.0,0.0,0.0,
2025-08-15T01:57:08.826Z,10,GR86-057-57,4.5,0.063,0.288,99.97,5.0,,0.0,0.0,200.97
2025-08-15T01:57:08.872Z,10,GR86-057-57,4.6000000000000005,0.071,0.311,99.99,5.0,,0.0,0.0,
2025-08-15T01:57:08.914Z,10,GR86-057-57,4.6000000000000005,0.084,0.327,100.01,5.0,,0.0,0.0,
2025-08-15T01:57:08.957Z,10,GR86-057-57,4.6000000000000005,0.069,0.296,99.98,5.0,,0.0,0.0,
2025-08-15T01:57:09.001Z,10,GR86-057-57,4.6000000000000005,0.061,0.282,99.98,5.0,6809.0,0.0,0.0,
2025-08-15T01:57:09.043Z,10,GR86-057-57,4.4,0.076,0.277,100.0,5.0,,0.0,0.0,201.47
2025-08-15T01:57:09.086Z,10,GR86-057-57,3.8,0.06,0.278,99.97,5.0,,0.0,0.0,
2025-08-15T01:57:09.130Z,10,GR86-057-57,3.3000000000000003,0.071,0.255,99.99,5.0,,0.0,0.0,
2025-08-15T01:57:09.172Z,10,GR86-057-57,3.4000000000000004,0.071,0.263,100.0,5.0,,0.0,0.0,
2025-08-15T01:57:09.215Z,10,GR86-057-57,4.2,0.068,0.22,99.98,5.0,6820.0,0.0,0.0,
2025-08-15T01:57:09.258Z,10,GR86-057-57,4.9,0.047,0.206,99.99,5.0,,0.0,0.0,202.04
2025-08-15T01:57:09.301Z,10,GR86-057-57,4.9,0.051,0.211,100.0,5.0,,0.0,0.0,
2025-08-15T01:57:09.344Z,10,GR86-057-57,4.9,0.05,0.23,100.0,5.0,,0.0,0.0,
2025-08-15T01:57:09.387Z,10,GR86-057-57,4.9,0.055,0.254,99.99,5.0,,0.0,0.0,
2025-08-15T01:57:09.431Z,10,GR86-057-57,4.9,0.043,0.253,100.0,5.0,6885.0,0.0,0.0,
2025-08-15T01:57:09.474Z,10,GR86-057-57,5.1000000000000005,0.029,0.257,99.99,5.0,,0.0,0.0,202.72
2025-08-15T01:57:09.517Z,10,GR86-057-57,5.1000000000000005,0.029,0.284,99.98,5.0,,0.0,0.0,
2025-08-15T01:57:09.561Z,10,GR86-057-57,5.1000000000000005,0.059,0.284,99.99,5.0,,0.0,0.0,
2025-08-15T01:57:09.604Z,10,GR86-057-57,5.1000000000000005,0.066,0.296,100.01,5.0,,0.0,0.0,
2025-08-15T01:57:09.646Z,10,GR86-057-57,5.1000000000000005,0.069,0.299,99.99,5.0,6912.0,0.0,0.0,
2025-08-15T01:57:09.690Z,10,GR86-057-57,4.6000000000000005,0.039,0.332,100.0,5.0,,0.0,0.0,203.18
2025-08-15T01:57:09.732Z,10,GR86-057-57,4.6000000000000005,0.058,0.332,99.98,5.0,,0.0,0.0,
2025-08-15T01:57:09.775Z,10,GR86-057-57,4.6000000000000005,0.055,0.281,99.99,5.0,,0.0,0.0,
2025-08-15T01:57:09.818Z,10,GR86-057-57,3.4000000000000004,0.066,0.27,99.98,5.0,,0.0,0.0,
2025-08-15T01:57:09.861Z,10,GR86-057-57,0.7000000000000001,0.067,0.27,99.98,5.0,6892.0,0.0,0.0,
2025-08-15T01:57:09.904Z,10,GR86-057-57,-1.5,0.059,0.29,99.98,5.0,,0.0,0.0,203.89
2025-08-15T01:57:09.947Z,10,GR86-057-57,-1.2000000000000002,0.051,0.282,99.99,5.0,,0.0,0.0,
2025-08-15T01:57:09.991Z,10,GR86-057-57,0.8,0.064,0.207,99.99,5.0,,0.0,0.0,
2025-08-15T01:57:10.034Z,10,GR86-057-57,1.2000000000000002,0.056,0.203,99.99,5.0,,0.0,0.0,
2025-08-15T01:57:10.076Z,10,GR86-057-57,1.5,0.045,0.182,100.01,5.0,6913.0,0.0,0.0,
2025-08-15T01:57:10.120Z,10,GR86-057-57,1.9,0.04,0.159,99.98,5.0,,0.0,0.0,204.36
2025-08-15T01:57:10.162Z,10,GR86-057-57,3.2,0.045,0.125,99.98,5.0,,0.0,0.0,
2025-08-15T01:57:10.206Z,10,GR86-057-57,4.7,0.06,0.091,100.01,5.0,,0.0,0.0,
2025-08-15T01:57:10.248Z,10,GR86-057-57,5.5,0.04,0.085,99.98,5.0,,0.0,0.0,
2025-08-15T01:57:10.291Z,10,GR86-057-57,5.300000000000001,0.035,0.156,99.98,5.0,6921.0,0.0,0.0,
2025-08-15T01:57:10.334Z,10,GR86-057-57,5.0,0.085,0.197,99.99,5.0,,0.0,0.0,204.93
2025-08-15T01:57:10.377Z,10,GR86-057-57,4.6000000000000005,0.041,0.194,99.99,5.0,,0.0,0.0,
2025-08-15T01:57:10.421Z,10,GR86-057-57,4.0,0.064,0.2,100.0,5.0,,0.0,0.0,
2025-08-15T01:57:10.464Z,10,GR86-057-57,3.2,0.056,0.216,99.98,5.0,,0.0,0.0,
2025-08-15T01:57:10.550Z,10,GR86-057-57,2.9000000000000004,0.061,0.248,4.84,5.0,6984.0,0.0,0.0,205.78
2025-08-15T01:57:10.592Z,10,GR86-057-57,3.5,-0.003,0.232,4.64,5.0,,0.0,0.0,
2025-08-15T01:57:10.635Z,10,GR86-057-57,3.8,-0.198,0.24,4.39,5.0,,0.0,0.0,
2025-08-15T01:57:10.678Z,10,GR86-057-57,3.8,-0.409,0.231,3.98,5.0,,5.22,5.495,
2025-08-15T01:57:10.721Z,10,GR86-057-57,3.7,-0.24,0.157,3.63,5.0,6955.0,11.185,11.4,
2025-08-15T01:57:10.764Z,10,GR86-057-57,3.8,-0.23,0.201,3.38,5.0,,14.39,14.42,206.19
2025-08-15T01:57:10.807Z,10,GR86-057-57,3.9,-0.408,0.158,3.2,5.0,,23.53,23.3,
2025-08-15T01:57:10.851Z,10,GR86-057-57,3.7,-0.664,0.158,3.03,5.0,,38.835,38.255,
2025-08-15T01:57:10.894Z,10,GR86-057-57,3.5,-0.779,0.147,2.92,5.0,,43.995,43.355,
2025-08-15T01:57:10.936Z,10,GR86-057-57,3.7,-0.903,0.147,2.8000000000000003,5.0,6982.0,46.74,46.3,
2025-08-15T01:57:10.980Z,10,GR86-057-57,5.0,-0.991,0.162,2.68,5.0,,49.105,48.68,207.05
2025-08-15T01:57:11.022Z,10,GR86-057-57,6.7,-1.071,0.195,2.6,5.0,,50.94,50.465,
2025-08-15T01:57:11.065Z,10,GR86-057-57,7.2,-1.032,0.221,2.53,5.0,,52.435,51.99,
2025-08-15T01:57:11.108Z,10,GR86-057-57,7.1000000000000005,-0.982,0.22,2.51,5.0,,53.24,52.8,
2025-08-15T01:57:11.151Z,10,GR86-057-57,6.6000000000000005,-1.069,0.239,2.48,5.0,6834.0,55.045,54.325,
2025-08-15T01:57:11.194Z,10,GR86-057-57,7.1000000000000005,-1.174,0.267,2.46,5.0,,57.715,56.905,202.6
2025-08-15T01:57:11.237Z,10,GR86-057-57,7.1000000000000005,-1.246,0.278,2.46,5.0,,61.45,60.55,
2025-08-15T01:57:11.281Z,10,GR86-057-57,6.9,-1.164,0.296,2.45,5.0,,64.81,63.835,
2025-08-15T01:57:11.323Z,10,GR86-057-57,6.5,-1.205,0.331,2.45,5.0,,68.305,69.28,
2025-08-15T01:57:11.366Z,10,GR86-057-57,4.9,-1.203,0.356,2.47,5.0,6489.0,71.525,72.76,
2025-08-15T01:57:11.410Z,10,GR86-057-57,-0.2,-1.181,0.372,2.45,5.0,,73.72,74.47,196.01
2025-08-15T01:57:11.454Z,10,GR86-057-57,-2.0,-1.171,0.3,2.47,5.0,,74.715,74.805,
2025-08-15T01:57:11.498Z,10,GR86-057-57,-2.1,-1.214,0.349,2.46,5.0,,78.055,78.985,
2025-08-15T01:57:11.541Z,10,GR86-057-57,-1.6,-1.085,0.368,2.64,5.0,,76.24,76.745,
2025-08-15T01:57:11.584Z,10,GR86-057-57,-1.7000000000000002,-1.349,0.603,39.69,5.0,5906.0,77.245,76.925,
2025-08-15T01:57:11.627Z,10,GR86-057-57,-2.5,-1.324,0.469,85.21000000000001,5.0,,80.16,80.345,188.28
2025-08-15T01:57:11.671Z,10,GR86-057-57,-4.0,-1.279,0.473,32.77,4.0,,83.96000000000001,85.9,
2025-08-15T01:57:11.714Z,10,GR86-057-57,-7.1000000000000005,-1.397,0.446,4.49,4.0,,81.46000000000001,82.025,
2025-08-15T01:57:11.757Z,10,GR86-057-57,-10.0,-1.294,0.473,3.86,4.0,,80.65,82.145,
2025-08-15T01:57:11.801Z,10,GR86-057-57,-8.5,-1.127,0.322,3.5500000000000003,4.0,5384.0,77.995,78.605,
2025-08-15T01:57:11.843Z,10,GR86-057-57,-6.6000000000000005,-1.21,0.3,3.31,4.0,,74.24,74.53,178.51
2025-08-15T01:57:11.886Z,10,GR86-057-57,-6.5,-1.177,0.328,3.16,4.0,,73.72,74.5,
2025-08-15T01:57:11.930Z,10,GR86-057-57,-6.7,-1.252,0.244,3.0,4.0,,72.96000000000001,72.96000000000001,
2025-08-15T01:57:11.972Z,10,GR86-057-57,-6.6000000000000005,-1.257,0.22,2.93,4.0,,74.18,75.43,
2025-08-15T01:57:12.015Z,10,GR86-057-57,-6.0,-1.279,0.164,2.85,4.0,6249.0,77.14,78.77,
2025-08-15T01:57:12.058Z,10,GR86-057-57,-4.3,-1.252,0.101,2.77,4.0,,77.675,78.205,172.4
2025-08-15T01:57:12.101Z,10,GR86-057-57,-3.2,-1.365,0.09,2.67,4.0,,77.46000000000001,77.61,
2025-08-15T01:57:12.187Z,10,GR86-057-57,-2.5,-1.196,0.037,8.18,4.0,,78.955,79.72,
2025-08-15T01:57:12.231Z,10,GR86-057-57,1.0,-1.279,-0.112,14.63,3.0,5956.0,78.895,79.96000000000001,
2025-08-15T01:57:12.274Z,10,GR86-057-57,1.9,-1.391,-0.097,4.14,3.0,,80.405,82.08500000000001,162.48
2025-08-15T01:57:12.317Z,10,GR86-057-57,4.800000000000001,-1.397,-0.167,3.69,3.0,,81.365,82.465,
2025-08-15T01:57:12.361Z,10,GR86-057-57,10.5,-1.238,-0.312,3.34,3.0,,78.48,78.71000000000001,
2025-08-15T01:57:12.404Z,10,GR86-057-57,16.2,-1.233,-0.098,3.17,3.0,,79.44500000000001,80.65,
2025-08-15T01:57:12.448Z,10,GR86-057-57,17.3,-1.13,-0.277,3.06,3.0,5710.0,79.275,80.25,
2025-08-15T01:57:12.491Z,10,GR86-057-57,17.2,-1.111,-0.234,2.93,3.0,,70.18,70.0,154.68
2025-08-15T01:57:12.534Z,10,GR86-057-57,17.1,-1.277,-0.131,2.84,3.0,,71.525,71.89,
2025-08-15T01:57:12.577Z,10,GR86-057-57,14.9,-1.073,-0.065,2.76,3.0,,70.96000000000001,71.83,
2025-08-15T01:57:12.622Z,10,GR86-057-57,13.6,-1.191,-0.006,2.68,3.0,,70.455,70.83500000000001,
2025-08-15T01:57:12.664Z,10,GR86-057-57,13.2,-1.193,0.067,2.61,3.0,6078.0,69.525,69.28,
2025-08-15T01:57:12.708Z,10,GR86-057-57,12.0,-1.252,0.112,2.58,3.0,,69.435,69.05,146.79
2025-08-15T01:57:12.751Z,10,GR86-057-57,5.6000000000000005,-1.213,0.214,2.5500000000000003,3.0,,71.555,72.83500000000001,
2025-08-15T01:57:12.794Z,10,GR86-057-57,-0.8,-1.226,0.243,2.52,3.0,,73.37,74.08500000000001,
2025-08-15T01:57:12.837Z,10,GR86-057-57,-4.800000000000001,-1.239,0.248,21.96,3.0,,72.27,71.92,
2025-08-15T01:57:12.881Z,10,GR86-057-57,-5.4,-1.256,0.215,67.6,3.0,6092.0,72.24,71.89,
2025-08-15T01:57:12.923Z,10,GR86-057-57,-5.0,-1.268,0.206,99.56,3.0,,72.01,71.615,139.54
2025-08-15T01:57:12.967Z,10,GR86-057-57,-4.9,-1.295,0.215,100.0,3.0,,73.05,74.285,
2025-08-15T01:57:13.011Z,10,GR86-057-57,-4.3,-1.203,0.172,36.98,2.0,,70.545,71.11,
2025-08-15T01:57:13.054Z,10,GR86-057-57,-3.4000000000000004,-1.287,0.238,3.79,2.0,,64.64,66.015,
2025-08-15T01:57:13.097Z,10,GR86-057-57,-2.6,-1.319,0.178,2.96,2.0,5750.0,58.370000000000005,60.08,
2025-08-15T01:57:13.141Z,10,GR86-057-57,-1.2000000000000002,-1.032,0.1,2.86,2.0,,51.81,52.71,130.57
2025-08-15T01:57:13.183Z,10,GR86-057-57,0.6000000000000001,-1.072,0.188,2.79,2.0,,49.305,49.46,
2025-08-15T01:57:13.226Z,10,GR86-057-57,2.8000000000000003,-1.058,0.131,2.7,2.0,,48.895,48.895,
2025-08-15T01:57:13.271Z,10,GR86-057-57,7.7,-1.06,0.125,2.64,2.0,,49.765,49.96,
2025-08-15T01:57:13.314Z,10,GR86-057-57,9.5,-1.083,0.142,2.61,2.0,5533.0,50.495000000000005,50.375,
2025-08-15T01:57:13.357Z,10,GR86-057-57,9.6,-1.125,0.116,2.56,2.0,,50.68,51.0,123.64
2025-08-15T01:57:13.401Z,10,GR86-057-57,9.3,-1.094,0.13,2.54,2.0,,50.845,51.0,
2025-08-15T01:57:13.443Z,10,GR86-057-57,9.3,-1.152,0.115,2.54,2.0,,50.465,50.785,
2025-08-15T01:57:13.486Z,10,GR86-057-57,9.6,-1.139,0.095,2.5500000000000003,2.0,,48.555,49.870000000000005,
2025-08-15T01:57:13.530Z,10,GR86-057-57,10.9,-1.044,0.147,2.54,2.0,6184.0,45.9,47.125,
2025-08-15T01:57:13.572Z,10,GR86-057-57,13.0,-1.08,0.154,2.54,2.0,,44.88,46.115,108.31
2025-08-15T01:57:13.615Z,10,GR86-057-57,16.6,-1.018,0.194,2.52,2.0,,43.995,45.03,
2025-08-15T01:57:13.660Z,10,GR86-057-57,21.5,-1.109,0.225,2.52,2.0,,43.585,44.47,
2025-08-15T01:57:13.702Z,10,GR86-057-57,25.6,-1.033,0.301,2.53,2.0,,42.955,43.95,
2025-08-15T01:57:13.745Z,10,GR86-057-57,27.3,-1.012,0.364,2.52,2.0,5838.0,42.21,43.08,
2025-08-15T01:57:13.788Z,10,GR86-057-57,27.3,-0.982,0.416,6.79,2.0,,41.215,42.18,100.93
2025-08-15T01:57:13.831Z,10,GR86-057-57,26.4,-0.963,0.46,72.3,2.0,,38.15,39.19,
2025-08-15T01:57:13.874Z,10,GR86-057-57,22.1,-0.966,0.466,100.0,2.0,,33.465,34.96,
2025-08-15T01:57:13.917Z,10,GR86-057-57,15.0,-0.8170000000000001,0.486,93.18,1.0,,26.935,28.065,
2025-08-15T01:57:13.961Z,10,GR86-057-57,9.4,-0.64,0.366,24.58,1.0,5436.0,18.465,19.52,
2025-08-15T01:57:14.004Z,10,GR86-057-57,8.4,-0.671,0.399,3.33,1.0,,12.865,13.61,94.15
2025-08-15T01:57:14.046Z,10,GR86-057-57,9.0,-0.921,0.323,3.08,1.0,,12.53,13.17,
2025-08-15T01:57:14.090Z,10,GR86-057-57,10.9,-0.398,0.288,2.9,1.0,,9.81,10.345,
2025-08-15T01:57:14.134Z,10,GR86-057-57,14.9,-0.259,0.361,2.83,1.0,,8.27,9.065,
2025-08-15T01:57:14.176Z,10,GR86-057-57,20.9,-0.213,0.353,2.7,1.0,5373.0,7.295,7.86,
2025-08-15T01:57:14.220Z,10,GR86-057-57,27.9,-0.093,0.329,2.61,1.0,,6.03,6.655,88.91
2025-08-15T01:57:14.262Z,10,GR86-057-57,34.4,-0.169,0.393,2.54,1.0,,5.74,6.3,
2025-08-15T01:57:14.306Z,10,GR86-057-57,38.900000000000006,-0.19,0.452,2.52,1.0,,5.705,6.3950000000000005,
2025-08-15T01:57:14.348Z,10,GR86-057-57,40.6,-0.215,0.508,2.52,1.0,,6.2700000000000005,6.96,
2025-08-15T01:57:14.391Z,10,GR86-057-57,40.8,-0.477,0.579,2.49,1.0,6291.0,7.235,7.675,
2025-08-15T01:57:14.434Z,10,GR86-057-57,41.0,-0.473,0.603,2.48,1.0,,7.705,8.36,84.22
2025-08-15T01:57:14.477Z,10,GR86-057-57,41.0,-0.344,0.627,2.48,1.0,,7.675,8.36,
2025-08-15T01:57:14.521Z,10,GR86-057-57,40.7,-0.279,0.655,2.48,1.0,,8.27,8.73,
2025-08-15T01:57:14.563Z,10,GR86-057-57,39.0,-0.253,0.72,2.48,1.0,,7.675,8.15,
2025-08-15T01:57:14.606Z,10,GR86-057-57,37.2,-0.263,0.67,2.47,1.0,5682.0,5.3100000000000005,6.03,
2025-08-15T01:57:14.650Z,10,GR86-057-57,36.3,-0.227,0.679,2.48,1.0,,0.0,1.8,82.29
2025-08-15T01:57:14.692Z,10,GR86-057-57,36.6,-0.22,0.65,2.46,1.0,,0.0,0.0,
2025-08-15T01:57:14.735Z,10,GR86-057-57,38.1,-0.205,0.645,2.48,1.0,,0.0,0.0,
2025-08-15T01:57:14.778Z,10,GR86-057-57,41.6,-0.182,0.642,2.48,1.0,,0.0,0.0,
2025-08-15T01:57:14.821Z,10,GR86-057-57,46.3,-0.18,0.66,2.45,1.0,5743.0,0.0,0.0,
2025-08-15T01:57:14.864Z,10,GR86-057-57,51.6,-0.176,0.687,2.48,1.0,,0.0,0.0,80.91
2025-08-15T01:57:14.908Z,10,GR86-057-57,56.1,-0.188,0.712,2.48,1.0,,0.0,0.0,
2025-08-15T01:57:14.951Z,10,GR86-057-57,59.5,-0.186,0.784,2.47,1.0,,0.0,0.0,
2025-08-15T01:57:14.994Z,10,GR86-057-57,60.0,-0.199,0.801,2.46,1.0,,0.0,0.0,
2025-08-15T01:57:15.037Z,10,GR86-057-57,60.1,-0.194,0.84,2.48,1.0,5675.0,0.0,0.0,
2025-08-15T01:57:15.081Z,10,GR86-057-57,60.1,-0.205,0.857,2.47,1.0,,0.0,0.0,78.97
2025-08-15T01:57:15.124Z,10,GR86-057-57,60.8,-0.195,0.882,2.47,1.0,,0.0,0.0,
2025-08-15T01:57:15.167Z,10,GR86-057-57,62.400000000000006,-0.181,0.897,2.48,1.0,,0.0,0.0,
2025-08-15T01:57:15.211Z,10,GR86-057-57,68.4,-0.175,0.953,2.48,1.0,,0.0,0.0,
2025-08-15T01:57:15.254Z,10,GR86-057-57,74.7,-0.183,0.958,2.48,1.0,5582.0,0.0,0.0,
2025-08-15T01:57:15.297Z,10,GR86-057-57,80.7,-0.208,0.994,2.48,1.0,,0.0,0.0,77.55
2025-08-15T01:57:15.341Z,10,GR86-057-57,85.0,-0.202,1.01,2.48,1.0,,0.0,0.0,
2025-08-15T01:57:15.383Z,10,GR86-057-57,87.30000000000001,-0.2,1.074,6.7700000000000005,1.0,,0.0,0.0,
2025-08-15T01:57:15.426Z,10,GR86-057-57,87.9,-0.192,1.128,20.25,1.0,,0.0,0.0,
2025-08-15T01:57:15.472Z,10,GR86-057-57,87.60000000000001,-0.206,1.163,26.24,1.0,5476.0,0.0,0.0,
2025-08-15T01:57:15.557Z,10,GR86-057-57,85.9,-0.12,1.195,29.92,1.0,,0.0,0.0,77.45
2025-08-15T01:57:15.601Z,10,GR86-057-57,84.2,-0.133,1.227,31.94,1.0,,0.0,0.0,
2025-08-15T01:57:15.644Z,10,GR86-057-57,83.7,-0.014,1.208,31.72,1.0,,0.0,0.0,
2025-08-15T01:57:15.686Z,10,GR86-057-57,84.10000000000001,0.214,1.18,30.54,1.0,5381.0,0.0,0.0,
2025-08-15T01:57:15.730Z,10,GR86-057-57,85.80000000000001,0.295,1.161,27.43,1.0,,0.0,0.0,76.47
2025-08-15T01:57:15.772Z,10,GR86-057-57,86.2,0.296,1.142,26.06,1.0,,0.0,0.0,
2025-08-15T01:57:15.815Z,10,GR86-057-57,85.7,0.212,1.174,25.39,1.0,,0.0,0.0,
2025-08-15T01:57:15.858Z,10,GR86-057-57,84.0,0.125,1.152,25.1,1.0,,0.0,0.0,
2025-08-15T01:57:15.901Z,10,GR86-057-57,79.80000000000001,0.077,1.136,24.99,1.0,5464.0,0.0,0.0,
2025-08-15T01:57:15.944Z,10,GR86-057-57,75.9,0.068,1.284,25.5,1.0,,0.0,0.0,75.63
2025-08-15T01:57:15.987Z,10,GR86-057-57,72.3,0.116,1.232,25.13,1.0,,0.0,0.0,
2025-08-15T01:57:16.031Z,10,GR86-057-57,65.9,0.105,1.081,22.92,1.0,,0.0,0.0,
2025-08-15T01:57:16.074Z,10,GR86-057-57,61.7,0.084,1.211,22.54,1.0,,0.0,0.0,
2025-08-15T01:57:16.117Z,10,GR86-057-57,58.400000000000006,0.161,1.11,22.85,1.0,5733.0,0.0,0.0,
2025-08-15T01:57:16.161Z,10,GR86-057-57,57.8,0.066,1.139,24.05,1.0,,0.0,0.0,75.01
2025-08-15T01:57:16.204Z,10,GR86-057-57,60.900000000000006,0.025,1.376,29.06,1.0,,0.0,0.0,
2025-08-15T01:57:16.246Z,10,GR86-057-57,68.10000000000001,0.168,1.111,32.01,1.0,,0.0,0.0,
2025-08-15T01:57:16.332Z,10,GR86-057-57,77.30000000000001,0.098,1.043,33.67,1.0,5725.0,0.0,0.0,
2025-08-15T01:57:16.375Z,10,GR86-057-57,78.60000000000001,0.317,1.026,33.38,1.0,,0.0,0.0,76.64
2025-08-15T01:57:16.418Z,10,GR86-057-57,77.30000000000001,0.309,1.047,34.21,1.0,,0.0,0.0,
2025-08-15T01:57:16.461Z,10,GR86-057-57,76.9,0.166,1.092,37.95,1.0,,0.0,0.0,
2025-08-15T01:57:16.504Z,10,GR86-057-57,76.9,0.185,1.094,44.73,1.0,,0.0,0.0,
2025-08-15T01:57:16.547Z,10,GR86-057-57,76.9,0.172,1.125,49.9,1.0,5737.0,0.0,0.0,
2025-08-15T01:57:16.591Z,10,GR86-057-57,76.7,0.231,1.004,50.42,1.0,,0.0,0.0,77.31
2025-08-15T01:57:16.634Z,10,GR86-057-57,76.7,0.225,1.048,54.61,1.0,,0.0,0.0,
2025-08-15T01:57:16.720Z,10,GR86-057-57,76.7,0.28,1.002,60.89,1.0,,0.0,0.0,
2025-08-15T01:57:16.762Z,10,GR86-057-57,75.2,0.289,1.061,71.17,1.0,5839.0,0.0,0.0,
2025-08-15T01:57:16.806Z,10,GR86-057-57,74.60000000000001,0.29,1.07,71.69,1.0,,0.0,0.0,78.28
2025-08-15T01:57:16.850Z,10,GR86-057-57,73.7,0.286,1.087,64.94,1.0,,0.0,0.0,
2025-08-15T01:57:16.892Z,10,GR86-057-57,71.3,0.301,1.117,61.83,1.0,,0.0,0.0,
2025-08-15T01:57:16.935Z,10,GR86-057-57,65.0,0.299,1.127,59.14,1.0,,0.0,0.0,
2025-08-15T01:57:16.978Z,10,GR86-057-57,56.5,0.295,1.104,55.45,1.0,6137.0,0.0,0.0,
2025-08-15T01:57:17.021Z,10,GR86-057-57,50.6,0.284,1.072,53.64,1.0,,0.0,0.0,79.93
2025-08-15T01:57:17.064Z,10,GR86-057-57,49.6,0.283,1.052,54.51,1.0,,0.0,0.0,
2025-08-15T01:57:17.108Z,10,GR86-057-57,50.400000000000006,0.289,1.113,55.86,1.0,,0.0,0.0,
2025-08-15T01:57:17.151Z,10,GR86-057-57,50.2,0.326,1.092,67.12,1.0,,0.0,0.0,
2025-08-15T01:57:17.194Z,10,GR86-057-57,45.5,0.321,1.095,96.37,1.0,6319.0,0.0,0.0,
2025-08-15T01:57:17.237Z,10,GR86-057-57,35.4,0.308,1.132,99.73,1.0,,0.0,0.0,81.98
2025-08-15T01:57:17.281Z,10,GR86-057-57,23.3,0.317,1.072,97.5,1.0,,0.0,0.0,
2025-08-15T01:57:17.323Z,10,GR86-057-57,14.6,0.365,1.025,93.74,1.0,,0.0,0.0,
2025-08-15T01:57:17.366Z,10,GR86-057-57,13.9,0.374,0.978,97.58,1.0,,0.0,0.0,
2025-08-15T01:57:17.410Z,10,GR86-057-57,25.1,0.391,0.956,99.92,1.0,6481.0,0.0,0.0,
2025-08-15T01:57:17.452Z,10,GR86-057-57,33.5,0.376,0.93,99.98,1.0,,0.0,0.0,83.86
2025-08-15T01:57:17.495Z,10,GR86-057-57,38.3,0.362,1.006,99.97,1.0,,0.0,0.0,
2025-08-15T01:57:17.539Z,10,GR86-057-57,39.900000000000006,0.358,1.002,99.95,1.0,,0.0,0.0,
2025-08-15T01:57:17.581Z,10,GR86-057-57,40.3,0.367,0.946,99.96,1.0,,0.0,0.0,
2025-08-15T01:57:17.625Z,10,GR86-057-57,42.3,0.353,0.905,99.99,1.0,6632.0,0.0,0.0,
2025-08-15T01:57:17.667Z,10,GR86-057-57,43.7,0.352,0.862,99.96,1.0,,0.0,0.0,85.79
2025-08-15T01:57:17.711Z,10,GR86-057-57,41.0,0.316,0.87,99.98,1.0,,0.0,0.0,
2025-08-15T01:57:17.754Z,10,GR86-057-57,36.3,0.342,0.86,99.98,1.0,,0.0,0.0,
2025-08-15T01:57:17.797Z,10,GR86-057-57,32.5,0.371,0.772,99.98,1.0,,0.0,0.0,
2025-08-15T01:57:17.841Z,10,GR86-057-57,30.700000000000003,0.346,0.794,99.98,1.0,6733.0,0.0,0.0,
2025-08-15T01:57:17.884Z,10,GR86-057-57,29.3,0.379,0.719,99.98,1.0,,0.0,0.0,86.91
2025-08-15T01:57:17.926Z,10,GR86-057-57,28.1,0.364,0.591,99.98,1.0,,0.0,0.0,
2025-08-15T01:57:17.972Z,10,GR86-057-57,26.700000000000003,0.321,0.678,99.94,1.0,,0.0,0.0,
2025-08-15T01:57:18.014Z,10,GR86-057-57,26.700000000000003,0.38,0.511,99.96,1.0,,0.0,0.0,
2025-08-15T01:57:18.057Z,10,GR86-057-57,26.700000000000003,0.356,0.63,99.95,1.0,6836.0,0.0,0.0,
2025-08-15T01:57:18.101Z,10,GR86-057-57,25.3,0.204,0.493,99.98,1.0,,0.0,0.0,88.95
2025-08-15T01:57:18.143Z,10,GR86-057-57,21.8,-0.107,0.583,99.96,2.0,,0.0,0.0,
2025-08-15T01:57:18.186Z,10,GR86-057-57,18.3,0.559,0.5720000000000001,99.97,2.0,,0.0,0.0,
2025-08-15T01:57:18.230Z,10,GR86-057-57,16.7,0.342,0.44,99.98,2.0,,0.0,0.0,
2025-08-15T01:57:18.272Z,10,GR86-057-57,16.0,0.495,0.648,99.98,2.0,6986.0,0.0,0.0,
2025-08-15T01:57:18.315Z,10,GR86-057-57,15.3,0.252,0.613,99.98,2.0,,0.0,0.0,91.36
2025-08-15T01:57:18.358Z,10,GR86-057-57,14.0,0.147,0.532,99.97,2.0,,0.0,0.0,
2025-08-15T01:57:18.401Z,10,GR86-057-57,11.6,0.231,0.652,99.97,2.0,,0.0,0.0,
2025-08-15T01:57:18.444Z,10,GR86-057-57,9.1,0.32,0.489,99.98,2.0,,0.0,0.0,
2025-08-15T01:57:18.487Z,10,GR86-057-57,7.800000000000001,0.388,0.24,99.98,2.0,6281.0,0.0,0.0,
2025-08-15T01:57:18.531Z,10,GR86-057-57,6.9,0.352,0.338,99.96,2.0,,0.0,0.0,93.73
2025-08-15T01:57:18.574Z,10,GR86-057-57,6.6000000000000005,0.323,0.166,99.98,2.0,,0.0,0.0,
2025-08-15T01:57:18.617Z,10,GR86-057-57,6.300000000000001,0.356,0.199,99.98,2.0,,0.0,0.0,
2025-08-15T01:57:18.661Z,10,GR86-057-57,5.5,0.381,0.195,99.98,2.0,,0.0,0.0,
2025-08-15T01:57:18.704Z,10,GR86-057-57,4.6000000000000005,0.328,0.124,99.99,2.0,5521.0,0.0,0.0,
2025-08-15T01:57:18.747Z,10,GR86-057-57,3.3000000000000003,0.251,0.203,99.98,2.0,,0.0,0.0,96.08
2025-08-15T01:57:18.791Z,10,GR86-057-57,1.6,0.284,0.062,99.98,2.0,,0.0,0.0,
2025-08-15T01:57:18.834Z,10,GR86-057-57,0.7000000000000001,0.327,0.096,99.97,2.0,,0.0,0.0,
2025-08-15T01:57:18.876Z,10,GR86-057-57,0.2,0.304,0.028,99.98,2.0,,0.0,0.0,
2025-08-15T01:57:18.920Z,10,GR86-057-57,-0.2,0.274,0.012,99.98,2.0,5666.0,0.0,0.0,
2025-08-15T01:57:18.964Z,10,GR86-057-57,-1.1,0.358,0.06,99.98,2.0,,0.0,0.0,98.05
2025-08-15T01:57:19.007Z,10,GR86-057-57,-1.9,0.26,-0.017,99.97,2.0,,0.0,0.0,
2025-08-15T01:57:19.051Z,10,GR86-057-57,-2.9000000000000004,0.252,-0.008,99.98,2.0,,0.0,0.0,
2025-08-15T01:57:19.093Z,10,GR86-057-57,-3.5,0.29,-0.069,99.98,2.0,,0.0,0.0,
2025-08-15T01:57:19.136Z,10,GR86-057-57,-3.9,0.276,-0.051,99.97,2.0,5828.0,0.0,0.0,
2025-08-15T01:57:19.180Z,10,GR86-057-57,-4.3,0.313,-0.066,99.98,2.0,,0.0,0.0,101.85
2025-08-15T01:57:19.222Z,10,GR86-057-57,-4.800000000000001,0.311,-0.09,99.98,2.0,,0.0,0.0,
2025-08-15T01:57:19.265Z,10,GR86-057-57,-5.1000000000000005,0.282,-0.081,99.98,2.0,,0.0,0.0,
2025-08-15T01:57:19.308Z,10,GR86-057-57,-5.2,0.259,-0.088,99.97,2.0,,0.0,0.0,
2025-08-15T01:57:19.351Z,10,GR86-057-57,-5.2,0.262,-0.096,100.0,2.0,5901.0,0.0,0.0,
2025-08-15T01:57:19.394Z,10,GR86-057-57,-5.2,0.276,-0.108,99.98,2.0,,0.0,0.0,103.74
2025-08-15T01:57:19.437Z,10,GR86-057-57,-5.2,0.288,-0.104,99.98,2.0,,0.0,0.0,
2025-08-15T01:57:19.481Z,10,GR86-057-57,-5.2,0.287,-0.104,99.99,2.0,,0.0,0.0,
2025-08-15T01:57:19.523Z,10,GR86-057-57,-5.2,0.284,-0.107,99.97,2.0,,0.0,0.0,
2025-08-15T01:57:19.568Z,10,GR86-057-57,-5.2,0.265,-0.098,99.98,2.0,6015.0,0.0,0.0,
2025-08-15T01:57:19.611Z,10,GR86-057-57,-5.2,0.282,-0.087,99.97,2.0,,0.0,0.0,105.57
2025-08-15T01:57:19.654Z,10,GR86-057-57,-5.2,0.281,-0.092,99.99,2.0,,0.0,0.0,
2025-08-15T01:57:19.697Z,10,GR86-057-57,-5.2,0.275,-0.094,99.99,2.0,,0.0,0.0,
2025-08-15T01:57:19.741Z,10,GR86-057-57,-5.2,0.266,-0.095,99.98,2.0,,0.0,0.0,
2025-08-15T01:57:19.783Z,10,GR86-057-57,-5.2,0.272,-0.103,99.98,2.0,6199.0,0.0,0.0,
2025-08-15T01:57:19.826Z,10,GR86-057-57,-5.2,0.275,-0.095,99.99,2.0,,0.0,0.0,107.41
2025-08-15T01:57:19.871Z,10,GR86-057-57,-5.2,0.289,-0.104,99.99,2.0,,0.0,0.0,
2025-08-15T01:57:19.914Z,10,GR86-057-57,-5.2,0.29,-0.085,99.97,2.0,,0.0,0.0,
2025-08-15T01:57:19.957Z,10,GR86-057-57,-5.2,0.27,-0.104,99.99,2.0,,0.0,0.0,
2025-08-15T01:57:20.001Z,10,GR86-057-57,-5.2,0.251,-0.09,99.98,2.0,6287.0,0.0,0.0,
2025-08-15T01:57:20.043Z,10,GR86-057-57,-5.2,0.274,-0.086,99.99,2.0,,0.0,0.0,109.12
2025-08-15T01:57:20.086Z,10,GR86-057-57,-5.2,0.287,-0.096,100.01,2.0,,0.0,0.0,
2025-08-15T01:57:20.130Z,10,GR86-057-57,-5.2,0.288,-0.09,99.99,2.0,,0.0,0.0,
2025-08-15T01:57:20.172Z,10,GR86-057-57,-5.2,0.272,-0.085,100.0,2.0,,0.0,0.0,
2025-08-15T01:57:20.215Z,10,GR86-057-57,-5.2,0.265,-0.081,99.98,2.0,6419.0,0.0,0.0,
2025-08-15T01:57:20.260Z,10,GR86-057-57,-5.300000000000001,0.27,-0.077,99.99,2.0,,0.0,0.0,110.84
2025-08-15T01:57:20.302Z,10,GR86-057-57,-5.5,0.275,-0.086,100.01,2.0,,0.0,0.0,
2025-08-15T01:57:20.345Z,10,GR86-057-57,-5.5,0.261,-0.097,99.98,2.0,,0.0,0.0,
2025-08-15T01:57:20.388Z,10,GR86-057-57,-5.5,0.255,-0.093,100.0,2.0,,0.0,0.0,
2025-08-15T01:57:20.431Z,10,GR86-057-57,-5.5,0.256,-0.1,100.0,2.0,6478.0,0.0,0.0,
2025-08-15T01:57:20.474Z,10,GR86-057-57,-5.5,0.278,-0.109,99.98,2.0,,0.0,0.0,112.43
2025-08-15T01:57:20.517Z,10,GR86-057-57,-5.5,0.27,-0.113,99.98,2.0,,0.0,0.0,
2025-08-15T01:57:20.561Z,10,GR86-057-57,-5.5,0.252,-0.109,99.98,2.0,,0.0,0.0,
2025-08-15T01:57:20.603Z,10,GR86-057-57,-5.4,0.262,-0.108,99.98,2.0,,0.0,0.0,
2025-08-15T01:57:20.646Z,10,GR86-057-57,-5.2,0.269,-0.106,99.98,2.0,6575.0,0.0,0.0,
2025-08-15T01:57:20.690Z,10,GR86-057-57,-4.9,0.262,-0.12,99.97,2.0,,0.0,0.0,114.0
2025-08-15T01:57:20.734Z,10,GR86-057-57,-4.7,0.262,-0.09,100.0,2.0,,0.0,0.0,
2025-08-15T01:57:20.776Z,10,GR86-057-57,-4.5,0.264,-0.096,100.0,2.0,,0.0,0.0,
2025-08-15T01:57:20.820Z,10,GR86-057-57,-4.2,0.254,-0.09,100.0,2.0,,0.0,0.0,
2025-08-15T01:57:20.862Z,10,GR86-057-57,-4.0,0.277,-0.081,99.99,2.0,6651.0,0.0,0.0,
2025-08-15T01:57:20.906Z,10,GR86-057-57,-3.8,0.269,-0.065,99.98,2.0,,0.0,0.0,115.52
2025-08-15T01:57:20.948Z,10,GR86-057-57,-3.6,0.253,-0.056,99.99,2.0,,0.0,0.0,
2025-08-15T01:57:20.991Z,10,GR86-057-57,-3.3000000000000003,0.256,-0.041,99.98,2.0,,0.0,0.0,
2025-08-15T01:57:21.034Z,10,GR86-057-57,-3.2,0.271,-0.029,99.98,2.0,,0.0,0.0,
2025-08-15T01:57:21.077Z,10,GR86-057-57,-3.0,0.265,-0.041,99.99,2.0,6766.0,0.0,0.0,
2025-08-15T01:57:21.121Z,10,GR86-057-57,-2.8000000000000003,0.249,-0.029,100.0,2.0,,0.0,0.0,116.97
2025-08-15T01:57:21.163Z,10,GR86-057-57,-2.7,0.281,-0.008,100.01,2.0,,0.0,0.0,
2025-08-15T01:57:21.206Z,10,GR86-057-57,-2.6,0.27,-0.016,100.0,2.0,,0.0,0.0,
2025-08-15T01:57:21.250Z,10,GR86-057-57,-2.5,0.257,0.003,99.97,2.0,,0.0,0.0,
2025-08-15T01:57:21.292Z,10,GR86-057-57,-2.1,0.25,0.0,99.99,2.0,6803.0,0.0,0.0,
2025-08-15T01:57:21.335Z,10,GR86-057-57,-1.6,0.29,0.019,99.99,2.0,,0.0,0.0,118.4
2025-08-15T01:57:21.378Z,10,GR86-057-57,-1.2000000000000002,0.27,0.008,99.98,2.0,,0.0,0.0,
2025-08-15T01:57:21.421Z,10,GR86-057-57,-1.1,0.254,0.022,99.99,2.0,,0.0,0.0,
2025-08-15T01:57:21.464Z,10,GR86-057-57,-1.1,0.265,0.023,99.99,2.0,,0.0,0.0,
2025-08-15T01:57:21.508Z,10,GR86-057-57,-1.1,0.259,0.018,99.98,2.0,6875.0,0.0,0.0,
2025-08-15T01:57:21.551Z,10,GR86-057-57,-1.1,0.265,0.016,99.99,2.0,,0.0,0.0,119.75
2025-08-15T01:57:21.594Z,10,GR86-057-57,-1.1,-0.06,0.035,99.98,3.0,,0.0,0.0,
2025-08-15T01:57:21.637Z,10,GR86-057-57,-1.1,0.139,0.077,100.02,3.0,,0.0,0.0,
2025-08-15T01:57:21.724Z,10,GR86-057-57,0.0,0.348,-0.053,100.01,3.0,6991.0,0.0,0.0,
2025-08-15T01:57:21.766Z,10,GR86-057-57,-1.0,0.042,0.102,99.99,3.0,,0.0,0.0,120.98
2025-08-15T01:57:21.811Z,10,GR86-057-57,-0.4,0.132,-0.022,99.98,3.0,,0.0,0.0,
2025-08-15T01:57:21.854Z,10,GR86-057-57,1.2000000000000002,0.328,0.056,100.0,3.0,,0.0,0.0,
2025-08-15T01:57:21.897Z,10,GR86-057-57,1.7000000000000002,0.309,0.034,100.01,3.0,,0.0,0.0,
2025-08-15T01:57:21.941Z,10,GR86-057-57,1.8,0.188,0.006,99.99,3.0,6889.0,0.0,0.0,
2025-08-15T01:57:21.983Z,10,GR86-057-57,1.8,0.168,0.08,99.97,3.0,,0.0,0.0,123.19
2025-08-15T01:57:22.026Z,10,GR86-057-57,1.8,0.198,0.073,99.99,3.0,,0.0,0.0,
2025-08-15T01:57:22.072Z,10,GR86-057-57,1.9,0.253,0.093,100.0,3.0,,0.0,0.0,
2025-08-15T01:57:22.157Z,10,GR86-057-57,1.5,0.215,0.09,100.0,3.0,5588.0,0.0,0.0,
2025-08-15T01:57:22.201Z,10,GR86-057-57,1.1,0.214,0.086,100.01,3.0,,0.0,0.0,124.25
2025-08-15T01:57:22.243Z,10,GR86-057-57,1.1,0.215,0.102,100.0,3.0,,0.0,0.0,
2025-08-15T01:57:22.286Z,10,GR86-057-57,1.0,0.221,0.089,100.0,3.0,,0.0,0.0,
2025-08-15T01:57:22.330Z,10,GR86-057-57,0.8,0.208,0.092,99.99,3.0,,0.0,0.0,
2025-08-15T01:57:22.374Z,10,GR86-057-57,0.8,0.224,0.082,99.98,3.0,5812.0,0.0,0.0,
2025-08-15T01:57:22.417Z,10,GR86-057-57,0.3,0.213,0.079,100.0,3.0,,0.0,0.0,125.16
2025-08-15T01:57:22.461Z,10,GR86-057-57,0.0,0.214,0.102,99.99,3.0,,0.0,0.0,
2025-08-15T01:57:22.504Z,10,GR86-057-57,0.0,0.235,0.082,100.0,3.0,,0.0,0.0,
2025-08-15T01:57:22.546Z,10,GR86-057-57,-0.1,0.209,0.077,99.99,3.0,,0.0,0.0,
2025-08-15T01:57:22.590Z,10,GR86-057-57,-0.5,0.208,0.067,99.99,3.0,5901.0,0.0,0.0,
2025-08-15T01:57:22.634Z,10,GR86-057-57,-0.5,0.207,0.058,100.01,3.0,,0.0,0.0,125.98
2025-08-15T01:57:22.676Z,10,GR86-057-57,-0.5,0.229,0.073,99.99,3.0,,0.0,0.0,
2025-08-15T01:57:22.720Z,10,GR86-057-57,-0.5,0.23,0.041,99.99,3.0,,0.0,0.0,
2025-08-15T01:57:22.762Z,10,GR86-057-57,-0.7000000000000001,0.201,0.062,99.97,3.0,,0.0,0.0,
2025-08-15T01:57:22.806Z,10,GR86-057-57,-1.0,0.203,0.041,99.99,3.0,5896.0,0.0,0.0,
2025-08-15T01:57:22.850Z,10,GR86-057-57,-1.4,0.204,0.038,99.98,3.0,,0.0,0.0,126.89
2025-08-15T01:57:22.892Z,10,GR86-057-57,-1.6,0.233,0.033,99.99,3.0,,0.0,0.0,
2025-08-15T01:57:22.935Z,10,GR86-057-57,-1.7000000000000002,0.202,0.02,100.01,3.0,,0.0,0.0,
2025-08-15T01:57:22.978Z,10,GR86-057-57,-1.6,0.193,0.024,99.99,3.0,,0.0,0.0,
2025-08-15T01:57:23.021Z,10,GR86-057-57,-0.9,0.212,0.019,99.99,3.0,5938.0,0.0,0.0,
2025-08-15T01:57:23.064Z,10,GR86-057-57,0.3,0.24,0.02,100.01,3.0,,0.0,0.0,127.64
2025-08-15T01:57:23.108Z,10,GR86-057-57,0.8,0.198,0.03,99.99,3.0,,0.0,0.0,
2025-08-15T01:57:23.151Z,10,GR86-057-57,0.5,0.194,0.043,99.99,3.0,,0.0,0.0,
2025-08-15T01:57:23.194Z,10,GR86-057-57,0.4,0.202,0.047,99.98,3.0,,0.0,0.0,
2025-08-15T01:57:23.237Z,10,GR86-057-57,0.4,0.229,0.067,83.98,3.0,5980.0,0.0,0.0,
2025-08-15T01:57:23.281Z,10,GR86-057-57,0.4,0.211,0.054,17.88,3.0,,0.0,0.0,128.47
2025-08-15T01:57:23.323Z,10,GR86-057-57,0.6000000000000001,0.201,0.076,4.17,3.0,,0.0,0.0,
2025-08-15T01:57:23.366Z,10,GR86-057-57,1.5,0.126,0.068,4.07,3.0,,0.0,0.0,
2025-08-15T01:57:23.410Z,10,GR86-057-57,2.4000000000000004,-0.086,0.128,3.69,3.0,,0.0,0.0,
2025-08-15T01:57:23.454Z,10,GR86-057-57,3.0,-0.325,0.09,3.44,3.0,6030.0,8.485,8.88,
2025-08-15T01:57:23.497Z,10,GR86-057-57,3.5,-0.248,0.104,3.22,3.0,,14.88,15.03,129.32
2025-08-15T01:57:23.541Z,10,GR86-057-57,4.7,-0.282,0.166,3.09,3.0,,17.61,17.655,
2025-08-15T01:57:23.584Z,10,GR86-057-57,6.1000000000000005,-0.302,0.094,2.99,3.0,,20.63,20.695,
2025-08-15T01:57:23.626Z,10,GR86-057-57,6.800000000000001,-0.38,0.141,2.89,3.0,,22.875,22.965,
2025-08-15T01:57:23.671Z,10,GR86-057-57,7.1000000000000005,-0.445,0.145,2.8000000000000003,3.0,5848.0,26.46,26.535,
2025-08-15T01:57:23.714Z,10,GR86-057-57,7.5,-0.545,0.174,2.74,3.0,,31.51,31.235,130.22
2025-08-15T01:57:23.757Z,10,GR86-057-57,8.200000000000001,-0.632,0.194,2.68,3.0,,38.5,37.8,
2025-08-15T01:57:23.843Z,10,GR86-057-57,8.9,-0.717,0.191,2.64,3.0,,43.4,43.08,
2025-08-15T01:57:23.886Z,10,GR86-057-57,9.5,-0.798,0.244,2.58,3.0,5851.0,45.37,45.065,
2025-08-15T01:57:23.930Z,10,GR86-057-57,9.5,-0.861,0.289,2.54,3.0,,44.65,44.71,129.95
2025-08-15T01:57:23.972Z,10,GR86-057-57,9.8,-0.912,0.304,2.5,3.0,,44.025,44.375,
2025-08-15T01:57:24.015Z,10,GR86-057-57,10.5,-0.975,0.336,31.62,3.0,,43.05,43.645,
2025-08-15T01:57:24.058Z,10,GR86-057-57,12.3,-0.844,0.331,77.82000000000001,2.0,,41.28,42.575,
2025-08-15T01:57:24.101Z,10,GR86-057-57,15.3,-0.86,0.335,53.93,2.0,5558.0,40.15,41.25,
2025-08-15T01:57:24.144Z,10,GR86-057-57,17.6,-0.932,0.325,4.71,2.0,,39.845,41.25,126.08
2025-08-15T01:57:24.187Z,10,GR86-057-57,18.3,-0.857,0.453,3.16,2.0,,39.22,40.53,
2025-08-15T01:57:24.231Z,10,GR86-057-57,18.3,-1.022,0.517,2.96,2.0,,34.15,34.455,
2025-08-15T01:57:24.274Z,10,GR86-057-57,17.400000000000002,-0.89,0.556,2.86,2.0,,30.215,31.36,
2025-08-15T01:57:24.317Z,10,GR86-057-57,17.5,-0.515,0.5680000000000001,2.8000000000000003,2.0,5171.0,25.24,26.05,
2025-08-15T01:57:24.361Z,10,GR86-057-57,18.3,-0.66,0.586,2.74,2.0,,22.25,22.705,120.51
2025-08-15T01:57:24.404Z,10,GR86-057-57,19.5,-0.484,0.8170000000000001,2.68,2.0,,18.71,19.365,
2025-08-15T01:57:24.448Z,10,GR86-057-57,20.200000000000003,-0.598,0.674,2.64,2.0,,17.580000000000002,18.175,
2025-08-15T01:57:24.491Z,10,GR86-057-57,20.4,-0.528,0.742,2.5500000000000003,2.0,,17.490000000000002,18.055,
2025-08-15T01:57:24.534Z,10,GR86-057-57,22.200000000000003,-0.44,0.797,2.5500000000000003,2.0,5529.0,17.12,17.87,
2025-08-15T01:57:24.577Z,10,GR86-057-57,26.200000000000003,-0.625,0.793,2.51,2.0,,15.125,15.475,109.03
2025-08-15T01:57:24.621Z,10,GR86-057-57,31.9,-0.517,0.801,2.52,2.0,,13.4,14.24,
2025-08-15T01:57:24.664Z,10,GR86-057-57,37.4,-0.4,0.853,2.52,2.0,,12.865,13.275,
2025-08-15T01:57:24.708Z,10,GR86-057-57,40.8,-0.435,0.897,2.51,2.0,,13.49,13.95,
2025-08-15T01:57:24.751Z,10,GR86-057-57,41.400000000000006,-0.433,0.912,2.51,2.0,5536.0,14.205,14.85,
2025-08-15T01:57:24.794Z,10,GR86-057-57,40.2,-0.429,0.884,2.5,2.0,,14.175,14.51,104.89
2025-08-15T01:57:24.837Z,10,GR86-057-57,39.7,-0.419,0.915,2.51,2.0,,13.95,14.635,
2025-08-15T01:57:24.881Z,10,GR86-057-57,39.8,-0.45,0.912,2.52,2.0,,13.37,13.765,
2025-08-15T01:57:24.924Z,10,GR86-057-57,40.0,-0.425,0.929,2.48,2.0,,13.275,13.95,
2025-08-15T01:57:24.967Z,10,GR86-057-57,40.400000000000006,-0.409,0.924,2.5,2.0,5509.0,12.865,13.08,
2025-08-15T01:57:25.011Z,10,GR86-057-57,41.6,-0.428,1.005,2.49,2.0,,8.91,9.49,101.4
2025-08-15T01:57:25.054Z,10,GR86-057-57,41.8,-0.32,1.051,2.49,2.0,,4.0,4.6850000000000005,
2025-08-15T01:57:25.097Z,10,GR86-057-57,41.6,-0.217,1.054,2.48,2.0,,0.0,0.0,
2025-08-15T01:57:25.141Z,10,GR86-057-57,40.6,-0.217,1.098,2.48,2.0,,0.0,0.0,
2025-08-15T01:57:25.183Z,10,GR86-057-57,41.0,-0.192,1.054,2.48,2.0,5324.0,0.0,0.0,
2025-08-15T01:57:25.226Z,10,GR86-057-57,44.900000000000006,-0.161,1.075,2.48,2.0,,0.0,0.0,98.4
2025-08-15T01:57:25.271Z,10,GR86-057-57,57.8,-0.168,1.11,2.49,2.0,,0.0,0.0,
2025-08-15T01:57:25.314Z,10,GR86-057-57,66.7,-0.175,1.138,2.49,2.0,,0.0,0.0,
2025-08-15T01:57:25.357Z,10,GR86-057-57,72.7,-0.174,1.184,2.48,2.0,,0.0,0.0,
2025-08-15T01:57:25.444Z,10,GR86-057-57,75.2,-0.191,1.2,7.56,2.0,5221.0,0.0,0.0,96.14
2025-08-15T01:57:25.486Z,10,GR86-057-57,74.8,-0.196,1.177,17.36,2.0,,0.0,0.0,
2025-08-15T01:57:25.530Z,10,GR86-057-57,74.8,-0.19,1.275,20.17,2.0,,0.0,0.0,
2025-08-15T01:57:25.572Z,10,GR86-057-57,73.9,-0.136,1.236,20.65,2.0,,0.0,0.0,
2025-08-15T01:57:25.615Z,10,GR86-057-57,72.60000000000001,-0.13,1.266,21.17,2.0,5192.0,0.0,0.0,
