timestamp,lap,vehicle_id,steering_angle,accx_can,accy_can,ath,gear,nmot,pbrake_f,pbrake_r,speed
2025-08-15T03:46:26.526Z,14,GR86-063-113,5.0,0.115,-0.066,99.78,4.0,,0.0,0.0,
2025-08-15T03:46:26.569Z,14,GR86-063-113,5.2,0.122,-0.033,99.78,4.0,7244.0,0.0,0.0,
2025-08-15T03:46:26.615Z,14,GR86-063-113,5.300000000000001,0.101,-0.039,99.78,4.0,,0.0,0.0,184.86
2025-08-15T03:46:26.658Z,14,GR86-063-113,5.1000000000000005,0.079,-0.033,99.77,4.0,,0.0,0.0,
2025-08-15T03:46:26.701Z,14,GR86-063-113,5.0,0.098,-0.042,99.77,4.0,,0.0,0.0,
2025-08-15T03:46:26.744Z,14,GR86-063-113,5.300000000000001,0.096,-0.035,99.78,4.0,,0.0,0.0,
2025-08-15T03:46:26.787Z,14,GR86-063-113,5.300000000000001,0.094,-0.022,99.78,4.0,7256.0,0.0,0.0,
2025-08-15T03:46:26.830Z,14,GR86-063-113,5.300000000000001,0.08,-0.03,99.78,4.0,,0.0,0.0,185.61
2025-08-15T03:46:26.874Z,14,GR86-063-113,5.1000000000000005,0.114,-0.028,99.78,4.0,,0.0,0.0,
2025-08-15T03:46:26.917Z,14,GR86-063-113,5.300000000000001,0.115,-0.026,99.78,4.0,,0.0,0.0,
2025-08-15T03:46:26.960Z,14,GR86-063-113,5.4,0.106,-0.024,99.76,4.0,,0.0,0.0,
2025-08-15T03:46:27.004Z,14,GR86-063-113,5.5,-0.021,-0.023,99.78,5.0,7289.0,0.0,0.0,
2025-08-15T03:46:27.047Z,14,GR86-063-113,5.300000000000001,-0.055,0.006,99.77,5.0,,0.0,0.0,186.33
2025-08-15T03:46:27.090Z,14,GR86-063-113,5.4,0.45,-0.042,99.78,5.0,,0.0,0.0,
2025-08-15T03:46:27.134Z,14,GR86-063-113,5.5,-0.008,-0.025,99.78,5.0,,0.0,0.0,
2025-08-15T03:46:27.177Z,14,GR86-063-113,5.300000000000001,-0.016,0.023,99.78,5.0,,0.0,0.0,
2025-08-15T03:46:27.220Z,14,GR86-063-113,5.5,0.12,-0.04,99.78,5.0,6412.0,0.0,0.0,
2025-08-15T03:46:27.264Z,14,GR86-063-113,5.6000000000000005,0.162,0.016,99.78,5.0,,0.0,0.0,186.96
2025-08-15T03:46:27.307Z,14,GR86-063-113,5.5,0.077,0.011,99.78,5.0,,0.0,0.0,
2025-08-15T03:46:27.350Z,14,GR86-063-113,5.5,0.071,-0.023,99.78,5.0,,0.0,0.0,
2025-08-15T03:46:27.394Z,14,GR86-063-113,5.6000000000000005,0.1,0.013,99.78,5.0,,0.0,0.0,
2025-08-15T03:46:27.437Z,14,GR86-063-113,5.6000000000000005,0.063,-0.015,99.77,5.0,6399.0,0.0,0.0,
2025-08-15T03:46:27.480Z,14,GR86-063-113,5.5,0.074,-0.007,99.78,5.0,,0.0,0.0,187.69
2025-08-15T03:46:27.526Z,14,GR86-063-113,5.5,0.053,0.025,99.78,5.0,,0.0,0.0,
2025-08-15T03:46:27.568Z,14,GR86-063-113,5.5,0.056,-0.01,99.78,5.0,,0.0,0.0,
2025-08-15T03:46:27.611Z,14,GR86-063-113,5.5,0.077,-0.005,99.77,5.0,,0.0,0.0,
2025-08-15T03:46:27.654Z,14,GR86-063-113,5.5,0.108,-0.021,99.78,5.0,6407.0,0.0,0.0,
2025-08-15T03:46:27.697Z,14,GR86-063-113,5.5,0.1,-0.031,99.78,5.0,,0.0,0.0,188.43
2025-08-15T03:46:27.740Z,14,GR86-063-113,5.6000000000000005,0.095,-0.019,99.78,5.0,,0.0,0.0,
2025-08-15T03:46:27.784Z,14,GR86-063-113,5.6000000000000005,0.088,-0.001,99.77,5.0,,0.0,0.0,
2025-08-15T03:46:27.827Z,14,GR86-063-113,5.6000000000000005,0.081,-0.002,99.78,5.0,,0.0,0.0,
2025-08-15T03:46:27.870Z,14,GR86-063-113,5.7,0.076,-0.003,99.77,5.0,6426.0,0.0,0.0,
2025-08-15T03:46:27.914Z,14,GR86-063-113,5.7,0.107,-0.008,99.78,5.0,,0.0,0.0,189.15
2025-08-15T03:46:27.957Z,14,GR86-063-113,5.6000000000000005,0.116,-0.015,99.79,5.0,,0.0,0.0,
2025-08-15T03:46:28.000Z,14,GR86-063-113,5.6000000000000005,0.103,-0.001,99.77,5.0,,0.0,0.0,
2025-08-15T03:46:28.044Z,14,GR86-063-113,5.6000000000000005,0.108,-0.014,99.78,5.0,,0.0,0.0,
2025-08-15T03:46:28.086Z,14,GR86-063-113,5.6000000000000005,0.095,-0.002,99.77,5.0,6462.0,0.0,0.0,
2025-08-15T03:46:28.129Z,14,GR86-063-113,5.6000000000000005,0.102,-0.01,99.77,5.0,,0.0,0.0,189.78
2025-08-15T03:46:28.174Z,14,GR86-063-113,5.7,0.081,0.014,99.78,5.0,,0.0,0.0,
2025-08-15T03:46:28.217Z,14,GR86-063-113,5.7,0.095,0.013,99.78,5.0,,0.0,0.0,
2025-08-15T03:46:28.260Z,14,GR86-063-113,5.800000000000001,0.093,0.028,99.77,5.0,,0.0,0.0,
2025-08-15T03:46:28.304Z,14,GR86-063-113,5.800000000000001,0.099,0.043,99.78,5.0,6475.0,0.0,0.0,
2025-08-15T03:46:28.347Z,14,GR86-063-113,5.800000000000001,0.102,0.043,99.78,5.0,,0.0,0.0,190.48
2025-08-15T03:46:28.390Z,14,GR86-063-113,5.800000000000001,0.119,0.046,99.78,5.0,,0.0,0.0,
2025-08-15T03:46:28.434Z,14,GR86-063-113,5.9,0.075,0.068,99.77,5.0,,0.0,0.0,
2025-08-15T03:46:28.477Z,14,GR86-063-113,5.9,0.06,0.06,99.77,5.0,,0.0,0.0,
2025-08-15T03:46:28.520Z,14,GR86-063-113,5.800000000000001,0.086,0.038,99.78,5.0,6497.0,0.0,0.0,
2025-08-15T03:46:28.565Z,14,GR86-063-113,5.7,0.063,0.054,99.78,5.0,,0.0,0.0,191.15
2025-08-15T03:46:28.608Z,14,GR86-063-113,5.7,0.104,0.056,99.77,5.0,,0.0,0.0,
2025-08-15T03:46:28.650Z,14,GR86-063-113,5.800000000000001,0.087,0.059,99.78,5.0,,0.0,0.0,
2025-08-15T03:46:28.694Z,14,GR86-063-113,5.9,0.075,0.043,99.77,5.0,,0.0,0.0,
2025-08-15T03:46:28.737Z,14,GR86-063-113,6.0,0.063,0.059,99.78,5.0,6525.0,0.0,0.0,
2025-08-15T03:46:28.780Z,14,GR86-063-113,6.0,0.065,0.051,99.78,5.0,,0.0,0.0,191.7
2025-08-15T03:46:28.826Z,14,GR86-063-113,6.1000000000000005,0.079,0.045,99.78,5.0,,0.0,0.0,
2025-08-15T03:46:28.868Z,14,GR86-063-113,6.2,0.07,0.092,99.78,5.0,,0.0,0.0,
2025-08-15T03:46:28.911Z,14,GR86-063-113,6.300000000000001,0.076,0.086,99.78,5.0,,0.0,0.0,
2025-08-15T03:46:28.954Z,14,GR86-063-113,6.300000000000001,0.072,0.089,99.78,5.0,6543.0,0.0,0.0,
2025-08-15T03:46:28.997Z,14,GR86-063-113,6.300000000000001,0.09,0.074,99.78,5.0,,0.0,0.0,192.41
2025-08-15T03:46:29.040Z,14,GR86-063-113,6.4,0.055,0.066,99.78,5.0,,0.0,0.0,
2025-08-15T03:46:29.084Z,14,GR86-063-113,6.4,0.071,0.082,99.78,5.0,,0.0,0.0,
2025-08-15T03:46:29.127Z,14,GR86-063-113,6.300000000000001,0.073,0.082,99.78,5.0,,0.0,0.0,
2025-08-15T03:46:29.170Z,14,GR86-063-113,6.300000000000001,0.068,0.102,99.78,5.0,6565.0,0.0,0.0,
2025-08-15T03:46:29.214Z,14,GR86-063-113,6.2,0.07,0.076,99.78,5.0,,0.0,0.0,193.82
2025-08-15T03:46:29.257Z,14,GR86-063-113,6.300000000000001,0.065,0.075,99.78,5.0,,0.0,0.0,
2025-08-15T03:46:29.300Z,14,GR86-063-113,6.300000000000001,0.074,0.059,99.78,5.0,,0.0,0.0,
2025-08-15T03:46:29.344Z,14,GR86-063-113,6.4,0.073,0.074,99.77,5.0,,0.0,0.0,
2025-08-15T03:46:29.387Z,14,GR86-063-113,6.5,0.067,0.079,99.78,5.0,6584.0,0.0,0.0,
2025-08-15T03:46:29.430Z,14,GR86-063-113,6.5,0.077,0.075,99.78,5.0,,0.0,0.0,194.51
2025-08-15T03:46:29.474Z,14,GR86-063-113,6.4,0.084,0.071,99.77,5.0,,0.0,0.0,
2025-08-15T03:46:29.517Z,14,GR86-063-113,6.300000000000001,0.077,0.067,99.77,5.0,,0.0,0.0,
2025-08-15T03:46:29.560Z,14,GR86-063-113,6.300000000000001,0.067,0.085,99.78,5.0,,0.0,0.0,
2025-08-15T03:46:29.604Z,14,GR86-063-113,6.2,0.086,0.062,99.78,5.0,6609.0,0.0,0.0,
2025-08-15T03:46:29.647Z,14,GR86-063-113,6.2,0.066,0.086,99.78,5.0,,0.0,0.0,195.16
2025-08-15T03:46:29.690Z,14,GR86-063-113,6.2,0.074,0.081,99.78,5.0,,0.0,0.0,
2025-08-15T03:46:29.734Z,14,GR86-063-113,6.4,0.08,0.08,99.78,5.0,,0.0,0.0,
2025-08-15T03:46:29.777Z,14,GR86-063-113,6.4,0.079,0.036,99.78,5.0,,0.0,0.0,
2025-08-15T03:46:29.820Z,14,GR86-063-113,6.300000000000001,0.083,0.057,99.77,5.0,6661.0,0.0,0.0,
2025-08-15T03:46:29.864Z,14,GR86-063-113,6.300000000000001,0.08,0.057,99.78,5.0,,0.0,0.0,195.78
2025-08-15T03:46:29.907Z,14,GR86-063-113,6.2,0.077,0.057,99.77,5.0,,0.0,0.0,
2025-08-15T03:46:29.950Z,14,GR86-063-113,6.2,0.073,0.062,99.78,5.0,,0.0,0.0,
2025-08-15T03:46:29.994Z,14,GR86-063-113,6.300000000000001,0.071,0.069,99.78,5.0,,0.0,0.0,
2025-08-15T03:46:30.037Z,14,GR86-063-113,6.300000000000001,0.088,0.047,99.77,5.0,6680.0,0.0,0.0,
2025-08-15T03:46:30.080Z,14,GR86-063-113,6.300000000000001,0.071,0.039,99.78,5.0,,0.0,0.0,196.41
2025-08-15T03:46:30.126Z,14,GR86-063-113,6.300000000000001,0.091,0.055,99.78,5.0,,0.0,0.0,
2025-08-15T03:46:30.168Z,14,GR86-063-113,6.2,0.065,0.057,99.77,5.0,,0.0,0.0,
2025-08-15T03:46:30.211Z,14,GR86-063-113,6.2,0.079,0.053,99.77,5.0,,0.0,0.0,
2025-08-15T03:46:30.254Z,14,GR86-063-113,6.2,0.079,0.049,99.78,5.0,6706.0,0.0,0.0,
2025-08-15T03:46:30.297Z,14,GR86-063-113,6.1000000000000005,0.064,0.047,99.78,5.0,,0.0,0.0,197.09
2025-08-15T03:46:30.340Z,14,GR86-063-113,6.1000000000000005,0.077,0.037,99.78,5.0,,0.0,0.0,
2025-08-15T03:46:30.384Z,14,GR86-063-113,6.1000000000000005,0.072,0.063,99.78,5.0,,0.0,0.0,
2025-08-15T03:46:30.427Z,14,GR86-063-113,6.300000000000001,0.075,0.058,99.78,5.0,,0.0,0.0,
2025-08-15T03:46:30.470Z,14,GR86-063-113,6.300000000000001,0.075,0.061,99.78,5.0,6719.0,0.0,0.0,
2025-08-15T03:46:30.515Z,14,GR86-063-113,6.1000000000000005,0.069,0.027,99.78,5.0,,0.0,0.0,197.84
2025-08-15T03:46:30.558Z,14,GR86-063-113,6.1000000000000005,0.074,0.038,99.78,5.0,,0.0,0.0,
2025-08-15T03:46:30.601Z,14,GR86-063-113,6.1000000000000005,0.073,0.041,99.77,5.0,,0.0,0.0,
2025-08-15T03:46:30.644Z,14,GR86-063-113,6.1000000000000005,0.064,0.025,99.77,5.0,,0.0,0.0,
2025-08-15T03:46:30.687Z,14,GR86-063-113,6.1000000000000005,0.08,0.021,99.78,5.0,6750.0,0.0,0.0,
2025-08-15T03:46:30.730Z,14,GR86-063-113,6.1000000000000005,0.06,0.023,99.77,5.0,,0.0,0.0,198.51
2025-08-15T03:46:30.774Z,14,GR86-063-113,6.1000000000000005,0.055,0.018,99.78,5.0,,0.0,0.0,
2025-08-15T03:46:30.817Z,14,GR86-063-113,6.2,0.091,0.033,99.78,5.0,,0.0,0.0,
2025-08-15T03:46:30.860Z,14,GR86-063-113,6.300000000000001,0.07,0.034,99.78,5.0,,0.0,0.0,
2025-08-15T03:46:30.904Z,14,GR86-063-113,6.300000000000001,0.08,0.035,99.78,5.0,6771.0,0.0,0.0,
2025-08-15T03:46:30.946Z,14,GR86-063-113,6.300000000000001,0.058,0.026,99.78,5.0,,0.0,0.0,199.14
2025-08-15T03:46:30.989Z,14,GR86-063-113,6.2,0.065,0.029,99.78,5.0,,0.0,0.0,
2025-08-15T03:46:31.034Z,14,GR86-063-113,6.1000000000000005,0.077,0.017,99.78,5.0,,0.0,0.0,
2025-08-15T03:46:31.077Z,14,GR86-063-113,6.0,0.081,0.029,99.77,5.0,,0.0,0.0,
2025-08-15T03:46:31.120Z,14,GR86-063-113,6.0,0.05,0.027,99.78,5.0,6798.0,0.0,0.0,
2025-08-15T03:46:31.164Z,14,GR86-063-113,5.9,0.072,0.02,99.78,5.0,,0.0,0.0,199.77
2025-08-15T03:46:31.207Z,14,GR86-063-113,5.9,0.074,0.039,99.77,5.0,,0.0,0.0,
2025-08-15T03:46:31.250Z,14,GR86-063-113,5.9,0.056,0.028,99.78,5.0,,0.0,0.0,
2025-08-15T03:46:31.294Z,14,GR86-063-113,5.9,0.063,-0.011,99.77,5.0,,0.0,0.0,
2025-08-15T03:46:31.337Z,14,GR86-063-113,5.800000000000001,0.051,0.0,99.78,5.0,6816.0,0.0,0.0,
2025-08-15T03:46:31.380Z,14,GR86-063-113,5.800000000000001,0.064,-0.013,99.78,5.0,,0.0,0.0,200.45
2025-08-15T03:46:31.425Z,14,GR86-063-113,5.7,0.051,-0.013,99.78,5.0,,0.0,0.0,
2025-08-15T03:46:31.468Z,14,GR86-063-113,5.6000000000000005,0.073,-0.043,99.78,5.0,,0.0,0.0,
2025-08-15T03:46:31.511Z,14,GR86-063-113,5.6000000000000005,0.081,-0.055,99.77,5.0,,0.0,0.0,
2025-08-15T03:46:31.554Z,14,GR86-063-113,5.6000000000000005,0.062,-0.033,99.78,5.0,6834.0,0.0,0.0,
2025-08-15T03:46:31.597Z,14,GR86-063-113,5.6000000000000005,0.074,-0.03,99.77,5.0,,0.0,0.0,201.12
2025-08-15T03:46:31.640Z,14,GR86-063-113,5.800000000000001,0.059,-0.022,99.78,5.0,,0.0,0.0,
2025-08-15T03:46:31.684Z,14,GR86-063-113,5.9,0.092,-0.034,99.77,5.0,,0.0,0.0,
2025-08-15T03:46:31.727Z,14,GR86-063-113,5.9,0.069,-0.016,99.78,5.0,,0.0,0.0,
2025-08-15T03:46:31.770Z,14,GR86-063-113,5.800000000000001,0.085,-0.035,99.77,5.0,6856.0,0.0,0.0,
2025-08-15T03:46:31.814Z,14,GR86-063-113,5.6000000000000005,0.071,-0.002,99.77,5.0,,0.0,0.0,202.5
2025-08-15T03:46:31.857Z,14,GR86-063-113,5.6000000000000005,0.081,-0.038,99.78,5.0,,0.0,0.0,
2025-08-15T03:46:31.900Z,14,GR86-063-113,5.6000000000000005,0.062,-0.052,99.78,5.0,,0.0,0.0,
2025-08-15T03:46:31.944Z,14,GR86-063-113,5.5,0.077,-0.045,99.78,5.0,,0.0,0.0,
2025-08-15T03:46:31.986Z,14,GR86-063-113,5.300000000000001,0.066,-0.034,99.77,5.0,6892.0,0.0,0.0,
2025-08-15T03:46:32.029Z,14,GR86-063-113,5.2,0.06,-0.033,99.78,5.0,,0.0,0.0,203.12
2025-08-15T03:46:32.074Z,14,GR86-063-113,5.300000000000001,0.089,-0.042,99.78,5.0,,0.0,0.0,
2025-08-15T03:46:32.117Z,14,GR86-063-113,5.2,0.073,-0.046,99.77,5.0,,0.0,0.0,
2025-08-15T03:46:32.160Z,14,GR86-063-113,5.1000000000000005,0.057,-0.039,99.78,5.0,,0.0,0.0,
2025-08-15T03:46:32.204Z,14,GR86-063-113,5.1000000000000005,0.054,-0.06,99.78,5.0,6908.0,0.0,0.0,
2025-08-15T03:46:32.247Z,14,GR86-063-113,5.1000000000000005,0.038,-0.062,99.78,5.0,,0.0,0.0,203.7
2025-08-15T03:46:32.290Z,14,GR86-063-113,4.9,0.048,-0.062,99.78,5.0,,0.0,0.0,
2025-08-15T03:46:32.334Z,14,GR86-063-113,4.800000000000001,0.038,-0.069,99.78,5.0,,0.0,0.0,
2025-08-15T03:46:32.377Z,14,GR86-063-113,4.6000000000000005,0.048,-0.044,99.78,5.0,,0.0,0.0,
2025-08-15T03:46:32.420Z,14,GR86-063-113,4.6000000000000005,0.021,-0.052,99.78,5.0,6937.0,0.0,0.0,
2025-08-15T03:46:32.465Z,14,GR86-063-113,4.6000000000000005,0.05,-0.068,99.77,5.0,,0.0,0.0,204.32
2025-08-15T03:46:32.507Z,14,GR86-063-113,4.6000000000000005,0.054,-0.071,99.78,5.0,,0.0,0.0,
2025-08-15T03:46:32.550Z,14,GR86-063-113,4.6000000000000005,0.089,-0.073,99.78,5.0,,0.0,0.0,
2025-08-15T03:46:32.595Z,14,GR86-063-113,4.3,0.046,-0.088,99.78,5.0,,0.0,0.0,
2025-08-15T03:46:32.637Z,14,GR86-063-113,4.2,0.035,-0.097,99.77,5.0,6951.0,0.0,0.0,
2025-08-15T03:46:32.680Z,14,GR86-063-113,4.1000000000000005,0.061,-0.104,99.77,5.0,,0.0,0.0,204.84
2025-08-15T03:46:32.726Z,14,GR86-063-113,4.1000000000000005,0.09,-0.096,99.77,5.0,,0.0,0.0,
2025-08-15T03:46:32.769Z,14,GR86-063-113,3.9,0.056,-0.114,99.78,5.0,,0.0,0.0,
2025-08-15T03:46:32.814Z,14,GR86-063-113,3.6,0.066,-0.117,99.77,5.0,,0.0,0.0,
2025-08-15T03:46:32.857Z,14,GR86-063-113,3.5,0.051,-0.106,99.78,5.0,6963.0,0.0,0.0,
2025-08-15T03:46:32.900Z,14,GR86-063-113,3.6,0.088,-0.106,99.78,5.0,,0.0,0.0,205.3
2025-08-15T03:46:32.944Z,14,GR86-063-113,3.7,0.056,-0.115,99.78,5.0,,0.0,0.0,
2025-08-15T03:46:32.986Z,14,GR86-063-113,3.7,0.046,-0.111,99.78,5.0,,0.0,0.0,
2025-08-15T03:46:33.029Z,14,GR86-063-113,3.7,0.034,-0.117,99.78,5.0,,0.0,0.0,
2025-08-15T03:46:33.074Z,14,GR86-063-113,3.7,0.059,-0.14,99.77,5.0,6987.0,0.0,0.0,
2025-08-15T03:46:33.117Z,14,GR86-063-113,3.8,0.054,-0.13,99.77,5.0,,0.0,0.0,205.63
2025-08-15T03:46:33.160Z,14,GR86-063-113,3.9,0.022,-0.137,99.77,5.0,,0.0,0.0,
2025-08-15T03:46:33.204Z,14,GR86-063-113,4.1000000000000005,0.025,-0.102,99.78,5.0,,0.0,0.0,
2025-08-15T03:46:33.247Z,14,GR86-063-113,4.2,0.062,-0.08,99.78,5.0,,0.0,0.0,
2025-08-15T03:46:33.290Z,14,GR86-063-113,4.3,0.066,-0.069,99.78,5.0,7014.0,0.0,0.0,
2025-08-15T03:46:33.334Z,14,GR86-063-113,4.4,0.04,-0.064,99.78,5.0,,0.0,0.0,206.08
2025-08-15T03:46:33.377Z,14,GR86-063-113,4.2,0.041,-0.066,99.78,5.0,,0.0,0.0,
2025-08-15T03:46:33.420Z,14,GR86-063-113,4.1000000000000005,0.071,-0.068,99.77,5.0,,0.0,0.0,
2025-08-15T03:46:33.464Z,14,GR86-063-113,4.1000000000000005,0.087,-0.072,99.78,5.0,,0.0,0.0,
2025-08-15T03:46:33.507Z,14,GR86-063-113,4.1000000000000005,0.072,-0.066,99.77,5.0,7017.0,0.0,0.0,
2025-08-15T03:46:33.550Z,14,GR86-063-113,4.1000000000000005,0.058,-0.067,99.78,5.0,,0.0,0.0,206.57
2025-08-15T03:46:33.594Z,14,GR86-063-113,4.1000000000000005,0.093,-0.077,99.78,5.0,,0.0,0.0,
2025-08-15T03:46:33.637Z,14,GR86-063-113,4.1000000000000005,0.07,-0.097,99.77,5.0,,0.0,0.0,
2025-08-15T03:46:33.680Z,14,GR86-063-113,4.1000000000000005,0.057,-0.082,99.76,5.0,,0.0,0.0,
2025-08-15T03:46:33.726Z,14,GR86-063-113,4.1000000000000005,0.051,-0.07,99.78,5.0,7034.0,0.0,0.0,
2025-08-15T03:46:33.768Z,14,GR86-063-113,4.1000000000000005,0.033,-0.069,99.78,5.0,,0.0,0.0,207.03
2025-08-15T03:46:33.811Z,14,GR86-063-113,4.1000000000000005,0.057,-0.058,99.78,5.0,,0.0,0.0,
2025-08-15T03:46:33.854Z,14,GR86-063-113,4.4,0.038,-0.06,99.78,5.0,,0.0,0.0,
2025-08-15T03:46:33.897Z,14,GR86-063-113,4.5,0.036,-0.066,99.77,5.0,,0.0,0.0,
2025-08-15T03:46:33.940Z,14,GR86-063-113,4.5,0.056,-0.069,99.78,5.0,7050.0,0.0,0.0,
2025-08-15T03:46:33.984Z,14,GR86-063-113,4.5,0.063,-0.073,99.78,5.0,,0.0,0.0,207.53
2025-08-15T03:46:34.027Z,14,GR86-063-113,4.5,0.08,-0.054,99.77,5.0,,0.0,0.0,
2025-08-15T03:46:34.070Z,14,GR86-063-113,4.6000000000000005,0.095,-0.061,99.78,5.0,,0.0,0.0,
2025-08-15T03:46:34.115Z,14,GR86-063-113,4.800000000000001,0.084,-0.036,99.77,5.0,,0.0,0.0,
2025-08-15T03:46:34.158Z,14,GR86-063-113,4.9,0.063,-0.025,99.78,5.0,7066.0,0.0,0.0,
2025-08-15T03:46:34.201Z,14,GR86-063-113,4.9,0.073,-0.017,99.78,5.0,,0.0,0.0,208.02
2025-08-15T03:46:34.244Z,14,GR86-063-113,5.0,0.055,-0.01,99.78,5.0,,0.0,0.0,
2025-08-15T03:46:34.287Z,14,GR86-063-113,5.1000000000000005,0.048,0.0,99.77,5.0,,0.0,0.0,
2025-08-15T03:46:34.330Z,14,GR86-063-113,5.1000000000000005,0.032,0.005,99.77,5.0,,0.0,0.0,
2025-08-15T03:46:34.374Z,14,GR86-063-113,5.2,0.039,0.002,99.78,5.0,7083.0,0.0,0.0,
2025-08-15T03:46:34.417Z,14,GR86-063-113,5.300000000000001,0.044,-0.001,99.78,5.0,,0.0,0.0,209.04
2025-08-15T03:46:34.460Z,14,GR86-063-113,5.300000000000001,0.043,0.016,99.77,5.0,,0.0,0.0,
2025-08-15T03:46:34.504Z,14,GR86-063-113,5.300000000000001,0.043,0.023,99.77,5.0,,0.0,0.0,
2025-08-15T03:46:34.547Z,14,GR86-063-113,5.4,0.075,-0.004,99.76,5.0,,0.0,0.0,
2025-08-15T03:46:34.590Z,14,GR86-063-113,5.300000000000001,0.085,-0.012,99.78,5.0,7110.0,0.0,0.0,
2025-08-15T03:46:34.634Z,14,GR86-063-113,5.1000000000000005,0.069,-0.007,99.78,5.0,,0.0,0.0,209.63
2025-08-15T03:46:34.677Z,14,GR86-063-113,5.1000000000000005,0.068,-0.022,99.78,5.0,,0.0,0.0,
2025-08-15T03:46:34.720Z,14,GR86-063-113,5.1000000000000005,0.072,-0.049,99.77,5.0,,0.0,0.0,
2025-08-15T03:46:34.764Z,14,GR86-063-113,5.2,0.057,-0.056,99.78,5.0,,0.0,0.0,
2025-08-15T03:46:34.807Z,14,GR86-063-113,5.300000000000001,0.046,-0.02,99.78,5.0,7120.0,0.0,0.0,
2025-08-15T03:46:34.850Z,14,GR86-063-113,5.300000000000001,0.028,-0.038,99.78,5.0,,0.0,0.0,210.11
2025-08-15T03:46:34.894Z,14,GR86-063-113,5.4,0.026,-0.038,99.78,5.0,,0.0,0.0,
2025-08-15T03:46:34.937Z,14,GR86-063-113,5.6000000000000005,0.06,-0.038,99.78,5.0,,3.25,3.525,
2025-08-15T03:46:34.980Z,14,GR86-063-113,5.800000000000001,0.013,-0.041,91.73,5.0,,10.405,10.56,
2025-08-15T03:46:35.025Z,14,GR86-063-113,6.0,-0.051,-0.012,31.28,5.0,7144.0,17.395,17.395,
2025-08-15T03:46:35.068Z,14,GR86-063-113,6.0,-0.201,0.004,4.84,5.0,,25.055,25.025,210.45
2025-08-15T03:46:35.111Z,14,GR86-063-113,6.1000000000000005,-0.402,0.027,4.88,5.0,,32.9,32.625,
2025-08-15T03:46:35.154Z,14,GR86-063-113,6.0,-0.752,0.053,4.5,5.0,,45.065,44.62,
2025-08-15T03:46:35.197Z,14,GR86-063-113,6.0,-1.004,-0.014,4.2,5.0,,51.93,51.505,
2025-08-15T03:46:35.240Z,14,GR86-063-113,5.5,-0.943,0.038,10.2,5.0,6700.0,56.78,58.02,
2025-08-15T03:46:35.284Z,14,GR86-063-113,5.300000000000001,-1.052,0.014,50.7,5.0,,57.835,58.43,208.61
2025-08-15T03:46:35.327Z,14,GR86-063-113,5.300000000000001,-1.169,0.003,94.1,5.0,,57.745000000000005,57.925,
2025-08-15T03:46:35.370Z,14,GR86-063-113,5.300000000000001,-1.138,0.051,98.48,4.0,,58.155,57.685,
2025-08-15T03:46:35.414Z,14,GR86-063-113,5.4,-1.207,-0.054,8.92,4.0,,59.71,59.485,
2025-08-15T03:46:35.457Z,14,GR86-063-113,5.4,-1.225,0.068,3.61,4.0,6980.0,61.65,62.690000000000005,
2025-08-15T03:46:35.500Z,14,GR86-063-113,5.5,-1.114,-0.047,3.52,4.0,,62.81,63.175,201.84
2025-08-15T03:46:35.544Z,14,GR86-063-113,5.6000000000000005,-1.16,-0.028,3.37,4.0,,62.505,62.43,
2025-08-15T03:46:35.586Z,14,GR86-063-113,5.6000000000000005,-1.081,0.033,3.25,4.0,,62.93,63.495000000000005,
2025-08-15T03:46:35.629Z,14,GR86-063-113,5.800000000000001,-1.104,-0.032,3.1,4.0,,64.305,66.135,
2025-08-15T03:46:35.674Z,14,GR86-063-113,6.1000000000000005,-1.118,0.035,2.81,4.0,7166.0,62.75,62.870000000000005,
2025-08-15T03:46:35.717Z,14,GR86-063-113,6.1000000000000005,-1.184,-0.004,2.68,4.0,,61.97,62.625,193.54
2025-08-15T03:46:35.760Z,14,GR86-063-113,6.0,-1.154,0.021,2.59,4.0,,62.78,63.8,
2025-08-15T03:46:35.804Z,14,GR86-063-113,5.7,-1.17,0.044,2.54,4.0,,60.92,61.27,
2025-08-15T03:46:35.847Z,14,GR86-063-113,5.1000000000000005,-1.135,0.068,2.51,4.0,,60.4,60.885,
2025-08-15T03:46:35.890Z,14,GR86-063-113,4.2,-1.153,0.067,2.5,4.0,6802.0,60.705,61.515,
2025-08-15T03:46:35.934Z,14,GR86-063-113,3.1,-1.088,0.037,2.5,4.0,,58.905,59.025,185.37
2025-08-15T03:46:35.977Z,14,GR86-063-113,2.4000000000000004,-1.107,0.046,2.49,4.0,,58.965,60.11,
2025-08-15T03:46:36.020Z,14,GR86-063-113,2.2,-1.107,0.072,2.49,4.0,,59.025,59.485,
2025-08-15T03:46:36.065Z,14,GR86-063-113,2.3000000000000003,-1.171,0.089,24.81,4.0,,58.28,58.370000000000005,
2025-08-15T03:46:36.107Z,14,GR86-063-113,2.6,-1.128,0.066,67.91,4.0,6533.0,58.52,59.955,
2025-08-15T03:46:36.150Z,14,GR86-063-113,2.7,-1.142,0.079,78.63,3.0,,57.41,57.955,177.87
2025-08-15T03:46:36.194Z,14,GR86-063-113,2.7,-1.176,0.02,3.46,3.0,,56.66,58.245000000000005,
2025-08-15T03:46:36.237Z,14,GR86-063-113,2.5,-1.176,0.084,3.22,3.0,,56.155,58.02,
2025-08-15T03:46:36.280Z,14,GR86-063-113,2.5,-1.011,0.013,3.1,3.0,,52.965,53.335,
2025-08-15T03:46:36.326Z,14,GR86-063-113,2.4000000000000004,-1.075,0.061,2.92,3.0,6826.0,51.9,53.09,
2025-08-15T03:46:36.369Z,14,GR86-063-113,2.1,-0.965,-0.035,2.83,3.0,,51.395,53.09,170.59
2025-08-15T03:46:36.414Z,14,GR86-063-113,1.8,-1.04,0.019,2.72,3.0,,48.265,49.015,
2025-08-15T03:46:36.457Z,14,GR86-063-113,-0.1,-1.063,-0.039,2.66,3.0,,48.525,50.005,
2025-08-15T03:46:36.500Z,14,GR86-063-113,-2.5,-0.836,-0.153,2.6,3.0,,47.185,47.84,
2025-08-15T03:46:36.586Z,14,GR86-063-113,-3.7,-0.992,-0.118,2.58,3.0,6977.0,45.43,46.24,163.07
2025-08-15T03:46:36.629Z,14,GR86-063-113,-4.4,-0.916,-0.275,2.51,3.0,,40.925,41.675,
2025-08-15T03:46:36.717Z,14,GR86-063-113,-4.4,-0.944,-0.312,2.5,3.0,,38.045,38.715,
2025-08-15T03:46:36.760Z,14,GR86-063-113,-4.5,-0.808,-0.392,2.49,3.0,7021.0,32.475,33.62,
2025-08-15T03:46:36.804Z,14,GR86-063-113,-6.9,-0.739,-0.441,2.5,3.0,,30.46,31.42,156.51
2025-08-15T03:46:36.847Z,14,GR86-063-113,-9.5,-0.715,-0.517,2.5,3.0,,28.34,29.56,
2025-08-15T03:46:36.890Z,14,GR86-063-113,-13.9,-0.75,-0.5750000000000001,2.49,3.0,,26.43,27.56,
2025-08-15T03:46:36.934Z,14,GR86-063-113,-19.8,-0.622,-0.676,2.49,3.0,,23.685,24.83,
2025-08-15T03:46:37.020Z,14,GR86-063-113,-20.700000000000003,-0.665,-0.739,2.5,3.0,6726.0,21.41,22.095,146.63
2025-08-15T03:46:37.064Z,14,GR86-063-113,-20.3,-0.589,-0.732,2.49,3.0,,19.275,20.205,
2025-08-15T03:46:37.106Z,14,GR86-063-113,-17.1,-0.478,-0.767,2.5,3.0,,14.205,15.06,
2025-08-15T03:46:37.149Z,14,GR86-063-113,-14.1,-0.383,-0.8160000000000001,2.5,3.0,,7.205,7.95,
2025-08-15T03:46:37.194Z,14,GR86-063-113,-9.7,-0.285,-0.948,2.48,3.0,6553.0,0.0,0.0,
2025-08-15T03:46:37.237Z,14,GR86-063-113,-9.0,-0.283,-0.943,2.49,3.0,,0.0,0.0,143.51
2025-08-15T03:46:37.280Z,14,GR86-063-113,-8.5,-0.245,-0.976,2.48,3.0,,0.0,0.0,
2025-08-15T03:46:37.325Z,14,GR86-063-113,-8.5,-0.147,-0.966,2.49,3.0,,0.0,0.0,
2025-08-15T03:46:37.368Z,14,GR86-063-113,-8.5,-0.153,-1.013,2.49,3.0,,0.0,0.0,
2025-08-15T03:46:37.411Z,14,GR86-063-113,-9.9,-0.185,-0.934,2.5,3.0,6316.0,0.0,0.0,
2025-08-15T03:46:37.454Z,14,GR86-063-113,-15.1,-0.171,-0.965,2.49,3.0,,0.0,0.0,141.42000000000002
2025-08-15T03:46:37.497Z,14,GR86-063-113,-23.0,-0.227,-0.948,2.5,3.0,,0.0,0.0,
2025-08-15T03:46:37.540Z,14,GR86-063-113,-28.8,-0.228,-0.984,2.49,3.0,,0.0,0.0,
2025-08-15T03:46:37.584Z,14,GR86-063-113,-33.6,-0.202,-1.006,2.49,3.0,,0.0,0.0,
2025-08-15T03:46:37.626Z,14,GR86-063-113,-37.8,-0.196,-1.073,2.5,3.0,6361.0,0.0,0.0,
2025-08-15T03:46:37.669Z,14,GR86-063-113,-40.6,-0.229,-1.064,2.49,3.0,,0.0,0.0,140.04
2025-08-15T03:46:37.715Z,14,GR86-063-113,-42.1,-0.222,-1.125,2.49,3.0,,0.0,0.0,
2025-08-15T03:46:37.758Z,14,GR86-063-113,-41.900000000000006,-0.239,-1.101,2.49,3.0,,0.0,0.0,
2025-08-15T03:46:37.801Z,14,GR86-063-113,-41.5,-0.208,-1.12,2.5,3.0,,0.0,0.0,
2025-08-15T03:46:37.844Z,14,GR86-063-113,-39.6,-0.195,-1.167,2.5,3.0,6296.0,0.0,0.0,
2025-08-15T03:46:37.887Z,14,GR86-063-113,-36.2,-0.22,-1.224,2.5,3.0,,0.0,0.0,138.71
2025-08-15T03:46:37.930Z,14,GR86-063-113,-27.5,-0.217,-1.166,2.5,3.0,,0.0,0.0,
2025-08-15T03:46:37.974Z,14,GR86-063-113,-17.6,-0.203,-1.169,2.5,3.0,,0.0,0.0,
2025-08-15T03:46:38.017Z,14,GR86-063-113,-10.7,-0.192,-1.12,2.47,3.0,,0.0,0.0,
2025-08-15T03:46:38.060Z,14,GR86-063-113,-8.5,-0.174,-1.165,2.5,3.0,6209.0,0.0,0.0,
2025-08-15T03:46:38.104Z,14,GR86-063-113,-7.7,-0.181,-1.199,2.5,3.0,,0.0,0.0,138.20000000000002
2025-08-15T03:46:38.146Z,14,GR86-063-113,-10.2,-0.185,-1.172,2.51,3.0,,0.0,0.0,
2025-08-15T03:46:38.189Z,14,GR86-063-113,-14.7,-0.198,-1.215,2.52,3.0,,0.0,0.0,
2025-08-15T03:46:38.234Z,14,GR86-063-113,-27.9,-0.206,-1.258,3.8,3.0,,0.0,0.0,
2025-08-15T03:46:38.277Z,14,GR86-063-113,-31.9,-0.215,-1.313,4.43,3.0,6108.0,0.0,0.0,
2025-08-15T03:46:38.320Z,14,GR86-063-113,-34.5,-0.224,-1.359,5.45,3.0,,0.0,0.0,136.29
2025-08-15T03:46:38.364Z,14,GR86-063-113,-34.4,-0.213,-1.318,14.64,3.0,,0.0,0.0,
2025-08-15T03:46:38.407Z,14,GR86-063-113,-32.2,-0.216,-1.287,21.97,3.0,,0.0,0.0,
2025-08-15T03:46:38.450Z,14,GR86-063-113,-27.9,-0.183,-1.246,25.33,3.0,,0.0,0.0,
2025-08-15T03:46:38.494Z,14,GR86-063-113,-20.9,-0.168,-1.309,29.44,3.0,6027.0,0.0,0.0,
2025-08-15T03:46:38.537Z,14,GR86-063-113,-16.8,-0.119,-1.264,31.21,3.0,,0.0,0.0,134.3
2025-08-15T03:46:38.580Z,14,GR86-063-113,-13.8,-0.103,-1.247,32.45,3.0,,0.0,0.0,
2025-08-15T03:46:38.625Z,14,GR86-063-113,-10.2,0.112,-1.177,33.19,3.0,,0.0,0.0,
2025-08-15T03:46:38.668Z,14,GR86-063-113,-8.200000000000001,0.08,-1.212,33.57,3.0,,0.0,0.0,
2025-08-15T03:46:38.711Z,14,GR86-063-113,-8.200000000000001,0.095,-1.211,34.84,3.0,6352.0,0.0,0.0,
2025-08-15T03:46:38.754Z,14,GR86-063-113,-11.7,0.069,-1.218,38.95,3.0,,0.0,0.0,133.29
2025-08-15T03:46:38.797Z,14,GR86-063-113,-14.9,0.081,-1.278,42.6,3.0,,0.0,0.0,
2025-08-15T03:46:38.840Z,14,GR86-063-113,-22.0,0.088,-1.251,46.38,3.0,,0.0,0.0,
2025-08-15T03:46:38.884Z,14,GR86-063-113,-28.8,0.07,-1.2,49.22,3.0,,0.0,0.0,
2025-08-15T03:46:38.927Z,14,GR86-063-113,-35.0,0.03,-1.254,51.78,3.0,6257.0,0.0,0.0,
2025-08-15T03:46:38.970Z,14,GR86-063-113,-40.3,0.167,-1.24,52.45,3.0,,0.0,0.0,132.61
2025-08-15T03:46:39.014Z,14,GR86-063-113,-46.2,0.137,-1.26,57.92,3.0,,0.0,0.0,
2025-08-15T03:46:39.057Z,14,GR86-063-113,-46.7,0.159,-1.205,67.62,3.0,,0.0,0.0,
2025-08-15T03:46:39.100Z,14,GR86-063-113,-43.1,0.138,-1.157,75.79,3.0,,0.0,0.0,
2025-08-15T03:46:39.144Z,14,GR86-063-113,-35.4,0.085,-1.192,85.60000000000001,3.0,6349.0,0.0,0.0,
2025-08-15T03:46:39.186Z,14,GR86-063-113,-27.8,0.157,-1.245,98.88,3.0,,0.0,0.0,131.96
2025-08-15T03:46:39.229Z,14,GR86-063-113,-24.200000000000003,0.171,-1.253,99.67,3.0,,0.0,0.0,
2025-08-15T03:46:39.274Z,14,GR86-063-113,-26.700000000000003,0.197,-1.286,99.71,3.0,,0.0,0.0,
2025-08-15T03:46:39.360Z,14,GR86-063-113,-32.800000000000004,0.118,-1.26,99.71,3.0,6374.0,0.0,0.0,
2025-08-15T03:46:39.404Z,14,GR86-063-113,-32.300000000000004,0.163,-1.24,99.74,3.0,,0.0,0.0,132.34
2025-08-15T03:46:39.447Z,14,GR86-063-113,-30.6,0.159,-1.27,99.74,3.0,,0.0,0.0,
2025-08-15T03:46:39.490Z,14,GR86-063-113,-29.0,0.139,-1.204,99.75,3.0,,0.0,0.0,
2025-08-15T03:46:39.534Z,14,GR86-063-113,-29.700000000000003,0.137,-1.195,99.74,3.0,,0.0,0.0,
2025-08-15T03:46:39.577Z,14,GR86-063-113,-30.9,0.139,-1.227,99.75,3.0,6362.0,0.0,0.0,
2025-08-15T03:46:39.620Z,14,GR86-063-113,-32.4,0.146,-1.25,99.75,3.0,,0.0,0.0,134.01
2025-08-15T03:46:39.665Z,14,GR86-063-113,-33.1,0.132,-1.324,99.74,3.0,,0.0,0.0,
2025-08-15T03:46:39.707Z,14,GR86-063-113,-33.2,0.138,-1.337,99.74,3.0,,0.0,0.0,
2025-08-15T03:46:39.750Z,14,GR86-063-113,-33.300000000000004,0.159,-1.313,99.75,3.0,,0.0,0.0,
2025-08-15T03:46:39.794Z,14,GR86-063-113,-33.4,0.156,-1.277,99.74,3.0,6406.0,0.0,0.0,
2025-08-15T03:46:39.837Z,14,GR86-063-113,-33.0,0.169,-1.248,99.75,3.0,,0.0,0.0,134.86
2025-08-15T03:46:39.880Z,14,GR86-063-113,-30.4,0.132,-1.197,99.74,3.0,,0.0,0.0,
2025-08-15T03:46:39.926Z,14,GR86-063-113,-25.8,0.119,-1.188,99.74,3.0,,0.0,0.0,
2025-08-15T03:46:39.969Z,14,GR86-063-113,-20.3,0.157,-1.149,99.75,3.0,,0.0,0.0,
2025-08-15T03:46:40.014Z,14,GR86-063-113,-13.1,0.141,-1.22,99.75,3.0,6491.0,0.0,0.0,
2025-08-15T03:46:40.057Z,14,GR86-063-113,-11.5,0.198,-1.242,99.74,3.0,,0.0,0.0,135.43
2025-08-15T03:46:40.100Z,14,GR86-063-113,-11.7,0.206,-1.204,99.74,3.0,,0.0,0.0,
2025-08-15T03:46:40.144Z,14,GR86-063-113,-13.5,0.138,-1.201,99.75,3.0,,0.0,0.0,
2025-08-15T03:46:40.186Z,14,GR86-063-113,-15.6,0.159,-1.198,99.74,3.0,,0.0,0.0,
2025-08-15T03:46:40.229Z,14,GR86-063-113,-16.1,0.163,-1.247,99.74,3.0,6483.0,0.0,0.0,
2025-08-15T03:46:40.274Z,14,GR86-063-113,-15.9,0.174,-1.229,99.74,3.0,,0.0,0.0,136.13
2025-08-15T03:46:40.317Z,14,GR86-063-113,-16.1,0.184,-1.216,99.75,3.0,,0.0,0.0,
2025-08-15T03:46:40.360Z,14,GR86-063-113,-17.0,0.143,-1.201,99.75,3.0,,0.0,0.0,
2025-08-15T03:46:40.404Z,14,GR86-063-113,-18.6,0.16,-1.198,99.74,3.0,,0.0,0.0,
2025-08-15T03:46:40.447Z,14,GR86-063-113,-21.9,0.198,-1.186,99.74,3.0,6534.0,0.0,0.0,
2025-08-15T03:46:40.490Z,14,GR86-063-113,-26.6,0.171,-1.141,99.74,3.0,,0.0,0.0,135.88
2025-08-15T03:46:40.534Z,14,GR86-063-113,-34.5,0.162,-1.137,99.74,3.0,,0.0,0.0,
2025-08-15T03:46:40.577Z,14,GR86-063-113,-38.0,0.153,-1.158,99.74,3.0,,0.0,0.0,
2025-08-15T03:46:40.620Z,14,GR86-063-113,-38.5,0.135,-1.141,99.72,3.0,,0.0,0.0,
2025-08-15T03:46:40.664Z,14,GR86-063-113,-37.4,0.137,-1.1,99.74,3.0,6556.0,0.0,0.0,
2025-08-15T03:46:40.707Z,14,GR86-063-113,-34.0,0.166,-0.952,99.74,3.0,,0.0,0.0,136.5
2025-08-15T03:46:40.750Z,14,GR86-063-113,-28.5,0.162,-0.997,99.76,3.0,,0.0,0.0,
2025-08-15T03:46:40.794Z,14,GR86-063-113,-20.700000000000003,0.054,-0.721,99.74,3.0,,0.0,0.0,
2025-08-15T03:46:40.837Z,14,GR86-063-113,-18.6,0.224,-0.786,99.75,3.0,,0.0,0.0,
2025-08-15T03:46:40.880Z,14,GR86-063-113,-17.6,0.217,-0.913,99.75,3.0,6632.0,0.0,0.0,
2025-08-15T03:46:40.925Z,14,GR86-063-113,-15.4,0.114,-0.706,99.74,3.0,,0.0,0.0,137.20000000000002
2025-08-15T03:46:40.968Z,14,GR86-063-113,-9.8,-0.003,-0.588,99.75,3.0,,0.0,0.0,
2025-08-15T03:46:41.011Z,14,GR86-063-113,-5.1000000000000005,0.078,-0.845,99.73,3.0,,0.0,0.0,
2025-08-15T03:46:41.054Z,14,GR86-063-113,-1.4,-0.068,-0.88,99.75,3.0,,0.0,0.0,
2025-08-15T03:46:41.097Z,14,GR86-063-113,-1.6,0.017,-1.158,99.75,3.0,6682.0,0.0,0.0,
2025-08-15T03:46:41.140Z,14,GR86-063-113,-3.0,0.137,-1.288,99.75,3.0,,0.0,0.0,138.67000000000002
2025-08-15T03:46:41.184Z,14,GR86-063-113,-3.9,0.248,-1.263,99.75,3.0,,0.0,0.0,
2025-08-15T03:46:41.226Z,14,GR86-063-113,-4.0,0.154,-1.243,99.74,3.0,,0.0,0.0,
2025-08-15T03:46:41.269Z,14,GR86-063-113,-3.9,0.117,-1.347,99.75,3.0,,0.0,0.0,
2025-08-15T03:46:41.315Z,14,GR86-063-113,-2.2,0.075,-1.086,99.74,3.0,6742.0,0.0,0.0,
2025-08-15T03:46:41.358Z,14,GR86-063-113,0.3,0.129,-1.17,99.74,3.0,,0.0,0.0,139.19
2025-08-15T03:46:41.401Z,14,GR86-063-113,5.0,0.193,-0.975,99.75,3.0,,0.0,0.0,
2025-08-15T03:46:41.444Z,14,GR86-063-113,9.1,0.138,-1.023,99.74,3.0,,0.0,0.0,
2025-08-15T03:46:41.487Z,14,GR86-063-113,12.4,0.17,-0.914,99.74,3.0,,0.0,0.0,
2025-08-15T03:46:41.530Z,14,GR86-063-113,13.4,0.248,-0.896,99.74,3.0,6721.0,0.0,0.0,
2025-08-15T03:46:41.574Z,14,GR86-063-113,12.5,0.205,-0.843,99.74,3.0,,0.0,0.0,141.0
2025-08-15T03:46:41.617Z,14,GR86-063-113,7.7,0.183,-0.987,99.74,3.0,,0.0,0.0,
2025-08-15T03:46:41.660Z,14,GR86-063-113,-1.0,0.271,-1.005,99.75,3.0,,0.0,0.0,
2025-08-15T03:46:41.704Z,14,GR86-063-113,-10.9,0.209,-0.897,99.75,3.0,,0.0,0.0,
2025-08-15T03:46:41.746Z,14,GR86-063-113,-18.7,0.166,-0.777,99.75,3.0,6759.0,0.0,0.0,
2025-08-15T03:46:41.789Z,14,GR86-063-113,-23.200000000000003,0.164,-0.729,99.74,3.0,,0.0,0.0,140.57
2025-08-15T03:46:41.833Z,14,GR86-063-113,-24.200000000000003,0.133,-0.609,99.74,3.0,,0.0,0.0,
2025-08-15T03:46:41.877Z,14,GR86-063-113,-23.3,0.201,-0.474,99.74,3.0,,0.0,0.0,
2025-08-15T03:46:41.920Z,14,GR86-063-113,-19.8,0.148,-0.5630000000000001,99.74,3.0,,0.0,0.0,
2025-08-15T03:46:41.964Z,14,GR86-063-113,-13.9,0.172,-0.455,99.74,3.0,6689.0,0.0,0.0,
2025-08-15T03:46:42.007Z,14,GR86-063-113,-9.1,0.184,-0.456,99.74,3.0,,0.0,0.0,142.51
2025-08-15T03:46:42.050Z,14,GR86-063-113,-7.0,0.178,-0.53,99.75,3.0,,0.0,0.0,
2025-08-15T03:46:42.094Z,14,GR86-063-113,-6.7,0.225,-0.506,99.75,3.0,,0.0,0.0,
2025-08-15T03:46:42.137Z,14,GR86-063-113,-7.2,0.182,-0.656,99.75,3.0,,0.0,0.0,
2025-08-15T03:46:42.180Z,14,GR86-063-113,-7.1000000000000005,0.28,-0.599,99.75,3.0,6792.0,0.0,0.0,
2025-08-15T03:46:42.225Z,14,GR86-063-113,-6.5,0.167,-0.424,99.75,3.0,,0.0,0.0,144.98
2025-08-15T03:46:42.268Z,14,GR86-063-113,-5.2,0.092,-0.562,99.75,3.0,,0.0,0.0,
2025-08-15T03:46:42.311Z,14,GR86-063-113,-3.3000000000000003,0.136,-0.476,99.75,3.0,,0.0,0.0,
2025-08-15T03:46:42.354Z,14,GR86-063-113,-2.2,0.23,-0.266,99.74,3.0,,0.0,0.0,
2025-08-15T03:46:42.397Z,14,GR86-063-113,-2.2,0.193,-0.311,99.74,3.0,6806.0,0.0,0.0,
2025-08-15T03:46:42.440Z,14,GR86-063-113,-2.4000000000000004,0.122,-0.15,99.74,3.0,,0.0,0.0,146.07
2025-08-15T03:46:42.484Z,14,GR86-063-113,-2.3000000000000003,-0.006,-0.231,99.73,3.0,,0.0,0.0,
2025-08-15T03:46:42.527Z,14,GR86-063-113,-1.4,0.188,-0.266,99.75,3.0,,0.0,0.0,
2025-08-15T03:46:42.570Z,14,GR86-063-113,2.1,0.25,-0.337,99.73,3.0,,0.0,0.0,
2025-08-15T03:46:42.614Z,14,GR86-063-113,9.7,0.174,-0.256,99.74,3.0,7011.0,0.0,0.0,
2025-08-15T03:46:42.657Z,14,GR86-063-113,13.9,0.033,-0.365,99.74,3.0,,0.0,0.0,147.04
2025-08-15T03:46:42.700Z,14,GR86-063-113,16.0,0.077,-0.12,99.77,3.0,,0.0,0.0,
2025-08-15T03:46:42.744Z,14,GR86-063-113,16.400000000000002,0.094,-0.036,99.74,3.0,,0.0,0.0,
2025-08-15T03:46:42.786Z,14,GR86-063-113,16.0,0.3,-0.063,99.74,3.0,,0.0,0.0,
2025-08-15T03:46:42.829Z,14,GR86-063-113,14.8,0.154,-0.011,99.76,3.0,7049.0,0.0,0.0,
2025-08-15T03:46:42.874Z,14,GR86-063-113,10.4,0.24,0.048,99.74,3.0,,0.0,0.0,149.62
2025-08-15T03:46:42.917Z,14,GR86-063-113,9.4,0.138,0.126,99.76,3.0,,0.0,0.0,
2025-08-15T03:46:42.960Z,14,GR86-063-113,9.0,0.142,0.205,99.75,3.0,,0.0,0.0,
2025-08-15T03:46:43.004Z,14,GR86-063-113,9.6,0.145,0.269,99.75,3.0,,0.0,0.0,
2025-08-15T03:46:43.047Z,14,GR86-063-113,12.4,0.219,0.384,99.74,3.0,7239.0,0.0,0.0,
2025-08-15T03:46:43.090Z,14,GR86-063-113,14.3,0.163,0.275,99.74,3.0,,0.0,0.0,150.17000000000002
2025-08-15T03:46:43.134Z,14,GR86-063-113,14.3,0.096,0.38,99.74,3.0,,0.0,0.0,
2025-08-15T03:46:43.177Z,14,GR86-063-113,12.3,0.044,0.366,99.74,3.0,,0.0,0.0,
2025-08-15T03:46:43.220Z,14,GR86-063-113,10.9,0.187,0.474,99.77,3.0,,0.0,0.0,
2025-08-15T03:46:43.265Z,14,GR86-063-113,11.1,0.336,0.412,99.75,3.0,7299.0,0.0,0.0,
2025-08-15T03:46:43.307Z,14,GR86-063-113,12.5,0.32,0.288,99.74,3.0,,0.0,0.0,151.47
2025-08-15T03:46:43.350Z,14,GR86-063-113,12.7,0.125,0.209,99.74,3.0,,0.0,0.0,
2025-08-15T03:46:43.394Z,14,GR86-063-113,12.4,0.047,0.423,99.75,3.0,,0.0,0.0,
2025-08-15T03:46:43.437Z,14,GR86-063-113,12.3,0.194,0.199,99.75,3.0,,0.0,0.0,
2025-08-15T03:46:43.480Z,14,GR86-063-113,12.1,0.082,0.324,99.75,3.0,7206.0,0.0,0.0,
2025-08-15T03:46:43.526Z,14,GR86-063-113,11.6,0.251,0.256,99.74,3.0,,0.0,0.0,152.93
2025-08-15T03:46:43.569Z,14,GR86-063-113,10.9,0.124,0.203,99.75,3.0,,0.0,0.0,
2025-08-15T03:46:43.614Z,14,GR86-063-113,10.7,0.117,0.26,99.74,3.0,,0.0,0.0,
2025-08-15T03:46:43.657Z,14,GR86-063-113,10.7,-0.152,0.203,99.74,4.0,,0.0,0.0,
2025-08-15T03:46:43.700Z,14,GR86-063-113,10.6,0.334,0.241,99.74,4.0,7234.0,0.0,0.0,
2025-08-15T03:46:43.744Z,14,GR86-063-113,10.6,0.4,0.147,99.74,4.0,,0.0,0.0,154.68
2025-08-15T03:46:43.786Z,14,GR86-063-113,10.6,0.158,0.152,99.74,4.0,,0.0,0.0,
2025-08-15T03:46:43.829Z,14,GR86-063-113,10.4,0.062,0.199,99.75,4.0,,0.0,0.0,
2025-08-15T03:46:43.874Z,14,GR86-063-113,10.4,0.176,0.125,99.74,4.0,,0.0,0.0,
2025-08-15T03:46:43.917Z,14,GR86-063-113,10.3,0.194,0.178,99.74,4.0,6019.0,0.0,0.0,
2025-08-15T03:46:43.960Z,14,GR86-063-113,10.3,0.162,0.122,99.74,4.0,,0.0,0.0,155.52
2025-08-15T03:46:44.004Z,14,GR86-063-113,10.2,0.138,0.107,99.76,4.0,,0.0,0.0,
2025-08-15T03:46:44.047Z,14,GR86-063-113,10.2,0.162,0.129,99.75,4.0,,0.0,0.0,
2025-08-15T03:46:44.090Z,14,GR86-063-113,10.1,0.134,0.127,99.75,4.0,,0.0,0.0,
2025-08-15T03:46:44.134Z,14,GR86-063-113,9.9,0.152,0.135,99.74,4.0,6204.0,0.0,0.0,
2025-08-15T03:46:44.177Z,14,GR86-063-113,9.4,0.15,0.108,99.74,4.0,,0.0,0.0,157.15
2025-08-15T03:46:44.220Z,14,GR86-063-113,9.0,0.125,0.123,99.74,4.0,,0.0,0.0,
2025-08-15T03:46:44.264Z,14,GR86-063-113,8.6,0.121,0.127,99.74,4.0,,0.0,0.0,
2025-08-15T03:46:44.307Z,14,GR86-063-113,8.5,0.095,0.149,99.75,4.0,,0.0,0.0,
2025-08-15T03:46:44.350Z,14,GR86-063-113,8.5,0.124,0.117,99.74,4.0,6278.0,0.0,0.0,
2025-08-15T03:46:44.394Z,14,GR86-063-113,8.1,0.129,0.071,99.75,4.0,,0.0,0.0,158.66
2025-08-15T03:46:44.437Z,14,GR86-063-113,7.9,0.116,0.075,99.73,4.0,,0.0,0.0,
2025-08-15T03:46:44.480Z,14,GR86-063-113,7.800000000000001,0.12,0.093,99.74,4.0,,0.0,0.0,
2025-08-15T03:46:44.526Z,14,GR86-063-113,7.6,0.123,0.083,99.73,4.0,,0.0,0.0,
2025-08-15T03:46:44.569Z,14,GR86-063-113,7.5,0.15,0.063,99.74,4.0,6315.0,0.0,0.0,
2025-08-15T03:46:44.615Z,14,GR86-063-113,7.300000000000001,0.112,0.051,99.74,4.0,,0.0,0.0,161.67000000000002
2025-08-15T03:46:44.658Z,14,GR86-063-113,7.300000000000001,0.12,0.053,99.75,4.0,,0.0,0.0,
2025-08-15T03:46:44.701Z,14,GR86-063-113,7.300000000000001,0.114,0.044,99.74,4.0,,0.0,0.0,
2025-08-15T03:46:44.744Z,14,GR86-063-113,7.2,0.14,0.03,99.75,4.0,,0.0,0.0,
2025-08-15T03:46:44.787Z,14,GR86-063-113,6.6000000000000005,0.135,0.022,99.75,4.0,6370.0,0.0,0.0,
2025-08-15T03:46:44.830Z,14,GR86-063-113,5.800000000000001,0.164,0.02,99.74,4.0,,0.0,0.0,163.17000000000002
2025-08-15T03:46:44.874Z,14,GR86-063-113,5.0,0.126,0.012,99.74,4.0,,0.0,0.0,
2025-08-15T03:46:44.917Z,14,GR86-063-113,4.9,0.115,0.008,99.75,4.0,,0.0,0.0,
2025-08-15T03:46:44.960Z,14,GR86-063-113,4.9,0.132,-0.017,99.75,4.0,,0.0,0.0,
2025-08-15T03:46:45.004Z,14,GR86-063-113,4.800000000000001,0.149,-0.042,99.74,4.0,6429.0,0.0,0.0,
2025-08-15T03:46:45.047Z,14,GR86-063-113,4.7,0.153,-0.052,99.74,4.0,,0.0,0.0,164.53
2025-08-15T03:46:45.090Z,14,GR86-063-113,4.4,0.11,-0.088,99.75,4.0,,0.0,0.0,
2025-08-15T03:46:45.134Z,14,GR86-063-113,3.6,0.122,-0.064,99.75,4.0,,0.0,0.0,
2025-08-15T03:46:45.177Z,14,GR86-063-113,3.2,0.155,-0.075,99.74,4.0,,0.0,0.0,
2025-08-15T03:46:45.220Z,14,GR86-063-113,2.7,0.13,-0.094,99.74,4.0,6541.0,0.0,0.0,
2025-08-15T03:46:45.264Z,14,GR86-063-113,2.1,0.131,-0.093,99.74,4.0,,0.0,0.0,166.20000000000002
2025-08-15T03:46:45.307Z,14,GR86-063-113,1.2000000000000002,0.134,-0.136,99.75,4.0,,0.0,0.0,
2025-08-15T03:46:45.350Z,14,GR86-063-113,0.5,0.135,-0.157,99.75,4.0,,0.0,0.0,
2025-08-15T03:46:45.394Z,14,GR86-063-113,0.0,0.141,-0.179,99.75,4.0,,0.0,0.0,
2025-08-15T03:46:45.437Z,14,GR86-063-113,-0.1,0.136,-0.209,99.75,4.0,6596.0,0.0,0.0,
2025-08-15T03:46:45.480Z,14,GR86-063-113,-0.1,0.149,-0.217,99.74,4.0,,0.0,0.0,167.55
2025-08-15T03:46:45.525Z,14,GR86-063-113,0.0,0.139,-0.237,99.74,4.0,,0.0,0.0,
2025-08-15T03:46:45.569Z,14,GR86-063-113,0.0,0.13,-0.248,99.74,4.0,,0.0,0.0,
2025-08-15T03:46:45.614Z,14,GR86-063-113,0.0,0.129,-0.247,99.75,4.0,,0.0,0.0,
2025-08-15T03:46:45.657Z,14,GR86-063-113,-0.2,0.147,-0.238,99.74,4.0,6658.0,0.0,0.0,
2025-08-15T03:46:45.700Z,14,GR86-063-113,-0.4,0.151,-0.232,99.74,4.0,,0.0,0.0,169.0
2025-08-15T03:46:45.744Z,14,GR86-063-113,-0.7000000000000001,0.152,-0.234,99.74,4.0,,0.0,0.0,
2025-08-15T03:46:45.786Z,14,GR86-063-113,-0.9,0.143,-0.255,99.76,4.0,,0.0,0.0,
2025-08-15T03:46:45.829Z,14,GR86-063-113,-1.2000000000000002,0.146,-0.269,99.74,4.0,,0.0,0.0,
2025-08-15T03:46:45.874Z,14,GR86-063-113,-1.8,0.121,-0.275,99.74,4.0,6712.0,0.0,0.0,
2025-08-15T03:46:45.917Z,14,GR86-063-113,-1.9,0.118,-0.287,99.75,4.0,,0.0,0.0,170.47
2025-08-15T03:46:45.960Z,14,GR86-063-113,-1.9,0.128,-0.301,99.74,4.0,,0.0,0.0,
2025-08-15T03:46:46.004Z,14,GR86-063-113,-1.8,0.145,-0.289,99.74,4.0,,0.0,0.0,
2025-08-15T03:46:46.047Z,14,GR86-063-113,-1.7000000000000002,0.154,-0.288,99.75,4.0,,0.0,0.0,
2025-08-15T03:46:46.090Z,14,GR86-063-113,-1.6,0.157,-0.276,99.74,4.0,6779.0,0.0,0.0,
2025-08-15T03:46:46.134Z,14,GR86-063-113,-1.6,0.094,-0.282,99.74,4.0,,0.0,0.0,171.83
2025-08-15T03:46:46.177Z,14,GR86-063-113,-1.6,0.094,-0.286,99.75,4.0,,0.0,0.0,
2025-08-15T03:46:46.265Z,14,GR86-063-113,-1.5,0.112,-0.298,99.74,4.0,,0.0,0.0,
2025-08-15T03:46:46.307Z,14,GR86-063-113,-1.3,0.119,-0.297,99.74,4.0,6826.0,0.0,0.0,
2025-08-15T03:46:46.350Z,14,GR86-063-113,-1.3,0.117,-0.295,99.74,4.0,,0.0,0.0,173.05
2025-08-15T03:46:46.394Z,14,GR86-063-113,-1.3,0.106,-0.299,99.74,4.0,,0.0,0.0,
2025-08-15T03:46:46.437Z,14,GR86-063-113,-1.3,0.1,-0.282,99.74,4.0,,0.0,0.0,
2025-08-15T03:46:46.480Z,14,GR86-063-113,-1.4,0.09,-0.268,99.74,4.0,,0.0,0.0,
2025-08-15T03:46:46.526Z,14,GR86-063-113,-1.4,0.099,-0.285,99.74,4.0,6868.0,0.0,0.0,
2025-08-15T03:46:46.569Z,14,GR86-063-113,-1.4,0.074,-0.282,99.75,4.0,,0.0,0.0,174.48
2025-08-15T03:46:46.614Z,14,GR86-063-113,-1.5,0.16,-0.261,99.75,4.0,,0.0,0.0,
2025-08-15T03:46:46.657Z,14,GR86-063-113,-1.4,0.147,-0.232,99.74,4.0,,0.0,0.0,
2025-08-15T03:46:46.700Z,14,GR86-063-113,-1.3,0.152,-0.239,99.74,4.0,,0.0,0.0,
2025-08-15T03:46:46.744Z,14,GR86-063-113,-1.4,0.153,-0.238,99.74,4.0,6926.0,0.0,0.0,
2025-08-15T03:46:46.786Z,14,GR86-063-113,-1.5,0.149,-0.261,99.75,4.0,,0.0,0.0,175.84
2025-08-15T03:46:46.829Z,14,GR86-063-113,-1.6,0.138,-0.292,99.74,4.0,,0.0,0.0,
2025-08-15T03:46:46.874Z,14,GR86-063-113,-1.9,0.097,-0.278,99.74,4.0,,0.0,0.0,
2025-08-15T03:46:46.917Z,14,GR86-063-113,-1.9,0.118,-0.287,99.75,4.0,,0.0,0.0,
2025-08-15T03:46:46.960Z,14,GR86-063-113,-1.8,0.109,-0.288,99.74,4.0,6971.0,0.0,0.0,
2025-08-15T03:46:47.004Z,14,GR86-063-113,-1.5,0.118,-0.312,99.75,4.0,,0.0,0.0,177.13
2025-08-15T03:46:47.047Z,14,GR86-063-113,-1.0,0.089,-0.288,99.74,4.0,,0.0,0.0,
2025-08-15T03:46:47.090Z,14,GR86-063-113,-0.2,0.115,-0.246,99.75,4.0,,4.305,4.47,
2025-08-15T03:46:47.134Z,14,GR86-063-113,0.6000000000000001,0.059,-0.226,65.87,4.0,,14.3,14.175,
2025-08-15T03:46:47.177Z,14,GR86-063-113,0.8,-0.108,-0.21,28.95,4.0,7020.0,23.24,22.905,
2025-08-15T03:46:47.220Z,14,GR86-063-113,1.0,-0.3,-0.201,4.46,4.0,,32.715,32.14,179.71
2025-08-15T03:46:47.264Z,14,GR86-063-113,1.1,-0.577,-0.139,4.66,4.0,,41.675,40.99,
2025-08-15T03:46:47.306Z,14,GR86-063-113,1.2000000000000002,-0.965,-0.093,4.5,4.0,,49.9,49.2,
2025-08-15T03:46:47.349Z,14,GR86-063-113,1.2000000000000002,-0.98,-0.091,10.37,4.0,,56.815,56.035,
2025-08-15T03:46:47.394Z,14,GR86-063-113,2.3000000000000003,-1.124,-0.064,47.52,3.0,7064.0,62.03,62.93,
2025-08-15T03:46:47.437Z,14,GR86-063-113,4.5,-1.237,-0.065,5.03,3.0,,64.245,65.74,175.84
2025-08-15T03:46:47.480Z,14,GR86-063-113,5.800000000000001,-1.085,-0.024,5.32,3.0,,66.215,67.875,
2025-08-15T03:46:47.526Z,14,GR86-063-113,6.5,-1.395,-0.156,4.94,3.0,,67.39,68.565,
2025-08-15T03:46:47.569Z,14,GR86-063-113,6.6000000000000005,-1.431,-0.084,4.3500000000000005,3.0,,65.8,66.7,
2025-08-15T03:46:47.615Z,14,GR86-063-113,6.5,-1.234,-0.222,3.9,3.0,7216.0,65.83,67.465,
2025-08-15T03:46:47.658Z,14,GR86-063-113,6.0,-1.069,-0.218,3.67,3.0,,62.305,62.81,168.86
2025-08-15T03:46:47.701Z,14,GR86-063-113,5.7,-1.27,-0.096,3.39,3.0,,60.08,61.115,
2025-08-15T03:46:47.744Z,14,GR86-063-113,5.6000000000000005,-1.04,-0.253,3.15,3.0,,59.42,60.02,
2025-08-15T03:46:47.787Z,14,GR86-063-113,6.0,-1.107,-0.164,2.85,3.0,,56.965,57.055,
2025-08-15T03:46:47.874Z,14,GR86-063-113,6.0,-1.094,-0.093,2.65,3.0,7170.0,55.67,55.545,160.77
2025-08-15T03:46:47.917Z,14,GR86-063-113,1.1,-1.071,-0.019,2.46,3.0,,54.205,54.265,
2025-08-15T03:46:47.960Z,14,GR86-063-113,-2.8000000000000003,-1.08,-0.073,2.46,3.0,,54.08,54.175,
2025-08-15T03:46:48.004Z,14,GR86-063-113,-5.1000000000000005,-1.088,-0.084,2.46,3.0,,54.14,54.235,
2025-08-15T03:46:48.047Z,14,GR86-063-113,-5.2,-1.08,-0.09,2.44,3.0,6841.0,54.495000000000005,54.525,
2025-08-15T03:46:48.090Z,14,GR86-063-113,-4.7,-1.051,-0.102,5.04,3.0,,54.95,54.89,153.8
2025-08-15T03:46:48.134Z,14,GR86-063-113,-2.2,-1.111,-0.078,65.41,3.0,,55.975,55.945,
2025-08-15T03:46:48.177Z,14,GR86-063-113,-0.6000000000000001,-1.075,-0.079,88.54,2.0,,56.75,56.63,
2025-08-15T03:46:48.220Z,14,GR86-063-113,0.0,-1.16,-0.143,27.22,2.0,,57.715,58.215,
2025-08-15T03:46:48.264Z,14,GR86-063-113,0.1,-1.124,-0.036,3.16,2.0,6449.0,59.745000000000005,61.115,
2025-08-15T03:46:48.307Z,14,GR86-063-113,0.2,-1.268,-0.294,2.85,2.0,,61.27,62.84,146.3
2025-08-15T03:46:48.350Z,14,GR86-063-113,0.4,-1.236,-0.23,2.78,2.0,,59.455,60.05,
2025-08-15T03:46:48.394Z,14,GR86-063-113,0.3,-0.994,-0.255,2.7,2.0,,60.2,61.85,
2025-08-15T03:46:48.437Z,14,GR86-063-113,0.0,-0.901,-0.589,2.66,2.0,,58.705,58.905,
2025-08-15T03:46:48.480Z,14,GR86-063-113,-1.7000000000000002,-1.197,-0.3,2.65,2.0,7259.0,57.33,58.125,
2025-08-15T03:46:48.526Z,14,GR86-063-113,-4.5,-1.1,-0.443,2.61,2.0,,58.34,59.68,138.99
2025-08-15T03:46:48.569Z,14,GR86-063-113,-7.1000000000000005,-0.959,-0.749,2.59,2.0,,57.24,57.59,
2025-08-15T03:46:48.614Z,14,GR86-063-113,-11.9,-1.046,-0.545,2.56,2.0,,56.4,57.620000000000005,
2025-08-15T03:46:48.657Z,14,GR86-063-113,-14.8,-0.952,-0.726,2.56,2.0,,56.63,58.02,
2025-08-15T03:46:48.700Z,14,GR86-063-113,-17.5,-0.954,-0.6880000000000001,2.53,2.0,7016.0,55.335,56.69,
2025-08-15T03:46:48.744Z,14,GR86-063-113,-18.6,-0.904,-0.862,2.52,2.0,,51.745000000000005,52.31,133.04
2025-08-15T03:46:48.786Z,14,GR86-063-113,-18.3,-0.859,-0.843,2.52,2.0,,43.855,45.095,
2025-08-15T03:46:48.829Z,14,GR86-063-113,-17.900000000000002,-0.725,-0.754,2.51,2.0,,35.955,37.175,
2025-08-15T03:46:48.874Z,14,GR86-063-113,-18.5,-0.757,-0.866,2.5,2.0,,27.745,28.305,
2025-08-15T03:46:48.917Z,14,GR86-063-113,-19.5,-0.66,-0.8170000000000001,2.5,2.0,6803.0,23.62,24.34,
2025-08-15T03:46:48.960Z,14,GR86-063-113,-21.700000000000003,-0.613,-0.8270000000000001,2.5,2.0,,20.66,21.18,126.79
2025-08-15T03:46:49.004Z,14,GR86-063-113,-25.3,-0.587,-0.888,2.49,2.0,,18.265,18.92,
2025-08-15T03:46:49.047Z,14,GR86-063-113,-30.200000000000003,-0.5730000000000001,-0.913,2.49,2.0,,17.0,17.455000000000002,
2025-08-15T03:46:49.090Z,14,GR86-063-113,-32.6,-0.5740000000000001,-0.951,2.5,2.0,,15.75,16.25,
2025-08-15T03:46:49.134Z,14,GR86-063-113,-36.3,-0.547,-0.99,2.5,2.0,6636.0,15.03,15.365,
2025-08-15T03:46:49.177Z,14,GR86-063-113,-36.7,-0.498,-1.073,2.49,2.0,,14.97,15.655,122.13
2025-08-15T03:46:49.220Z,14,GR86-063-113,-35.4,-0.504,-1.108,2.49,2.0,,14.24,14.68,
2025-08-15T03:46:49.265Z,14,GR86-063-113,-29.4,-0.539,-1.1,2.5,2.0,,11.615,12.145,
2025-08-15T03:46:49.307Z,14,GR86-063-113,-23.9,-0.472,-1.093,2.49,2.0,,6.18,6.715,
2025-08-15T03:46:49.350Z,14,GR86-063-113,-17.2,-0.331,-1.107,2.49,2.0,6396.0,0.0,1.83,
2025-08-15T03:46:49.394Z,14,GR86-063-113,-13.5,-0.235,-1.125,2.49,2.0,,0.0,0.0,118.59
2025-08-15T03:46:49.437Z,14,GR86-063-113,-14.4,-0.207,-1.095,2.5,2.0,,0.0,0.0,
2025-08-15T03:46:49.480Z,14,GR86-063-113,-18.3,-0.192,-1.122,2.5,2.0,,0.0,0.0,
2025-08-15T03:46:49.526Z,14,GR86-063-113,-24.4,-0.22,-1.163,2.49,2.0,,0.0,0.0,
2025-08-15T03:46:49.569Z,14,GR86-063-113,-30.200000000000003,-0.189,-1.222,2.5,2.0,6284.0,0.0,0.0,
2025-08-15T03:46:49.614Z,14,GR86-063-113,-39.1,-0.206,-1.223,2.49,2.0,,0.0,0.0,114.24
2025-08-15T03:46:49.657Z,14,GR86-063-113,-42.6,-0.23,-1.245,2.49,2.0,,0.0,0.0,
2025-08-15T03:46:49.700Z,14,GR86-063-113,-48.0,-0.217,-1.236,2.5,2.0,,0.0,0.0,
2025-08-15T03:46:49.744Z,14,GR86-063-113,-50.400000000000006,-0.227,-1.244,2.49,2.0,,0.0,0.0,
2025-08-15T03:46:49.786Z,14,GR86-063-113,-53.3,-0.249,-1.225,2.49,2.0,6267.0,0.0,0.0,
2025-08-15T03:46:49.829Z,14,GR86-063-113,-55.900000000000006,-0.217,-1.226,2.5,2.0,,0.0,0.0,111.93
2025-08-15T03:46:49.874Z,14,GR86-063-113,-58.1,-0.236,-1.246,2.49,2.0,,0.0,0.0,
2025-08-15T03:46:49.917Z,14,GR86-063-113,-58.2,-0.242,-1.275,2.5,2.0,,0.0,0.0,
2025-08-15T03:46:49.960Z,14,GR86-063-113,-58.1,-0.218,-1.309,2.49,2.0,,0.0,0.0,
2025-08-15T03:46:50.004Z,14,GR86-063-113,-57.8,-0.227,-1.326,2.5,2.0,6203.0,0.0,0.0,
2025-08-15T03:46:50.047Z,14,GR86-063-113,-56.8,-0.248,-1.348,2.65,2.0,,0.0,0.0,111.1
2025-08-15T03:46:50.090Z,14,GR86-063-113,-52.8,-0.215,-1.339,2.85,2.0,,0.0,0.0,
2025-08-15T03:46:50.134Z,14,GR86-063-113,-41.8,-0.209,-1.353,4.29,2.0,,0.0,0.0,
2025-08-15T03:46:50.177Z,14,GR86-063-113,-35.800000000000004,-0.236,-1.287,4.62,2.0,,0.0,0.0,
2025-08-15T03:46:50.220Z,14,GR86-063-113,-28.9,-0.182,-1.297,5.87,2.0,6005.0,0.0,0.0,
2025-08-15T03:46:50.264Z,14,GR86-063-113,-27.1,-0.211,-1.264,13.54,2.0,,0.0,0.0,109.88
2025-08-15T03:46:50.307Z,14,GR86-063-113,-25.200000000000003,-0.185,-1.292,16.72,2.0,,0.0,0.0,
2025-08-15T03:46:50.350Z,14,GR86-063-113,-24.200000000000003,-0.143,-1.239,17.41,2.0,,0.0,0.0,
2025-08-15T03:46:50.394Z,14,GR86-063-113,-23.6,-0.156,-1.252,19.76,2.0,,0.0,0.0,
2025-08-15T03:46:50.437Z,14,GR86-063-113,-23.5,-0.102,-1.231,21.82,2.0,5957.0,0.0,0.0,
2025-08-15T03:46:50.480Z,14,GR86-063-113,-23.8,-0.096,-1.232,25.7,2.0,,0.0,0.0,108.16
2025-08-15T03:46:50.526Z,14,GR86-063-113,-23.8,-0.11,-1.227,31.15,2.0,,0.0,0.0,
2025-08-15T03:46:50.568Z,14,GR86-063-113,-23.4,-0.029,-1.224,31.71,2.0,,0.0,0.0,
2025-08-15T03:46:50.611Z,14,GR86-063-113,-23.4,0.084,-1.196,32.34,2.0,,0.0,0.0,
2025-08-15T03:46:50.654Z,14,GR86-063-113,-26.3,0.134,-1.18,34.29,2.0,6228.0,0.0,0.0,
2025-08-15T03:46:50.697Z,14,GR86-063-113,-33.300000000000004,0.18,-1.137,36.27,2.0,,0.0,0.0,106.47
2025-08-15T03:46:50.740Z,14,GR86-063-113,-42.1,0.133,-1.176,38.92,2.0,,0.0,0.0,
2025-08-15T03:46:50.784Z,14,GR86-063-113,-48.7,0.125,-1.151,45.62,2.0,,0.0,0.0,
2025-08-15T03:46:50.827Z,14,GR86-063-113,-56.0,0.124,-1.133,55.25,2.0,,0.0,0.0,
2025-08-15T03:46:50.870Z,14,GR86-063-113,-61.3,0.115,-1.185,65.51,2.0,6209.0,0.0,0.0,
2025-08-15T03:46:50.915Z,14,GR86-063-113,-64.8,0.153,-1.142,82.98,2.0,,0.0,0.0,105.93
2025-08-15T03:46:50.958Z,14,GR86-063-113,-64.4,0.181,-1.163,99.61,2.0,,0.0,0.0,
2025-08-15T03:46:51.001Z,14,GR86-063-113,-60.2,0.221,-1.128,99.68,2.0,,0.0,0.0,
2025-08-15T03:46:51.044Z,14,GR86-063-113,-52.7,0.209,-1.181,99.68,2.0,,0.0,0.0,
2025-08-15T03:46:51.087Z,14,GR86-063-113,-45.2,0.208,-1.16,99.69,2.0,6349.0,0.0,0.0,
2025-08-15T03:46:51.130Z,14,GR86-063-113,-36.1,0.191,-1.201,99.69,2.0,,0.0,0.0,105.72
2025-08-15T03:46:51.174Z,14,GR86-063-113,-25.5,0.219,-1.147,99.7,2.0,,0.0,0.0,
2025-08-15T03:46:51.217Z,14,GR86-063-113,-20.3,0.249,-1.138,99.72,2.0,,0.0,0.0,
2025-08-15T03:46:51.260Z,14,GR86-063-113,-19.4,0.233,-1.076,99.71,2.0,,0.0,0.0,
2025-08-15T03:46:51.304Z,14,GR86-063-113,-20.3,0.237,-1.11,99.72,2.0,6384.0,0.0,0.0,
2025-08-15T03:46:51.346Z,14,GR86-063-113,-21.200000000000003,0.243,-0.985,99.71,2.0,,0.0,0.0,107.05
2025-08-15T03:46:51.389Z,14,GR86-063-113,-21.200000000000003,0.2,-1.085,99.72,2.0,,0.0,0.0,
2025-08-15T03:46:51.433Z,14,GR86-063-113,-20.6,0.207,-1.071,99.71,2.0,,0.0,0.0,
2025-08-15T03:46:51.477Z,14,GR86-063-113,-22.4,0.242,-1.122,99.72,2.0,,0.0,0.0,
2025-08-15T03:46:51.520Z,14,GR86-063-113,-27.5,0.241,-1.111,99.71,2.0,6469.0,0.0,0.0,
2025-08-15T03:46:51.564Z,14,GR86-063-113,-33.800000000000004,0.251,-1.08,99.71,2.0,,0.0,0.0,108.63
2025-08-15T03:46:51.607Z,14,GR86-063-113,-37.7,0.229,-1.097,99.72,2.0,,0.0,0.0,
2025-08-15T03:46:51.650Z,14,GR86-063-113,-37.0,0.187,-1.116,99.71,2.0,,0.0,0.0,
2025-08-15T03:46:51.694Z,14,GR86-063-113,-29.5,0.187,-1.181,99.72,2.0,,0.0,0.0,
2025-08-15T03:46:51.737Z,14,GR86-063-113,-25.8,0.248,-1.176,99.71,2.0,6513.0,0.0,0.0,
2025-08-15T03:46:51.780Z,14,GR86-063-113,-25.3,0.251,-1.196,99.71,2.0,,0.0,0.0,109.96
2025-08-15T03:46:51.825Z,14,GR86-063-113,-26.8,0.237,-1.145,99.71,2.0,,0.0,0.0,
2025-08-15T03:46:51.868Z,14,GR86-063-113,-31.200000000000003,0.227,-1.2,99.71,2.0,,0.0,0.0,
2025-08-15T03:46:51.911Z,14,GR86-063-113,-37.0,0.235,-1.132,99.72,2.0,,0.0,0.0,
2025-08-15T03:46:51.954Z,14,GR86-063-113,-43.8,0.215,-1.077,99.71,2.0,6584.0,0.0,0.0,
2025-08-15T03:46:51.997Z,14,GR86-063-113,-44.900000000000006,0.188,-1.123,99.72,2.0,,0.0,0.0,111.3
2025-08-15T03:46:52.040Z,14,GR86-063-113,-44.0,0.162,-1.123,99.71,2.0,,0.0,0.0,
2025-08-15T03:46:52.084Z,14,GR86-063-113,-40.8,0.177,-1.12,99.71,2.0,,0.0,0.0,
2025-08-15T03:46:52.127Z,14,GR86-063-113,-36.5,0.195,-1.121,99.72,2.0,,0.0,0.0,
2025-08-15T03:46:52.170Z,14,GR86-063-113,-31.9,0.217,-1.048,99.72,2.0,6625.0,0.0,0.0,
2025-08-15T03:46:52.214Z,14,GR86-063-113,-23.1,0.211,-1.077,99.7,2.0,,0.0,0.0,113.99
2025-08-15T03:46:52.257Z,14,GR86-063-113,-16.2,0.204,-1.087,99.72,2.0,,0.0,0.0,
2025-08-15T03:46:52.300Z,14,GR86-063-113,-10.1,0.253,-1.071,99.72,2.0,,0.0,0.0,
2025-08-15T03:46:52.344Z,14,GR86-063-113,-6.300000000000001,0.261,-1.006,99.72,2.0,,0.0,0.0,
2025-08-15T03:46:52.386Z,14,GR86-063-113,-4.800000000000001,0.231,-1.007,99.71,2.0,6788.0,0.0,0.0,
2025-08-15T03:46:52.429Z,14,GR86-063-113,-3.5,0.248,-1.033,99.71,2.0,,0.0,0.0,115.67
2025-08-15T03:46:52.474Z,14,GR86-063-113,-4.1000000000000005,0.242,-1.044,99.72,2.0,,0.0,0.0,
2025-08-15T03:46:52.517Z,14,GR86-063-113,-11.8,0.256,-1.067,99.71,2.0,,0.0,0.0,
2025-08-15T03:46:52.560Z,14,GR86-063-113,-22.9,0.245,-1.124,99.71,2.0,,0.0,0.0,
2025-08-15T03:46:52.604Z,14,GR86-063-113,-32.6,0.24,-1.188,99.73,2.0,6875.0,0.0,0.0,
2025-08-15T03:46:52.647Z,14,GR86-063-113,-39.0,0.219,-1.189,99.72,2.0,,0.0,0.0,116.37
2025-08-15T03:46:52.690Z,14,GR86-063-113,-41.7,0.198,-1.164,99.72,2.0,,0.0,0.0,
2025-08-15T03:46:52.734Z,14,GR86-063-113,-42.2,0.187,-1.153,99.71,2.0,,0.0,0.0,
2025-08-15T03:46:52.777Z,14,GR86-063-113,-41.1,0.211,-1.158,99.72,2.0,,0.0,0.0,
2025-08-15T03:46:52.820Z,14,GR86-063-113,-37.7,0.172,-1.099,99.71,2.0,6981.0,0.0,0.0,
2025-08-15T03:46:52.865Z,14,GR86-063-113,-31.4,0.17,-1.036,99.72,2.0,,0.0,0.0,117.57
2025-08-15T03:46:52.907Z,14,GR86-063-113,-25.6,0.062,-0.885,99.72,2.0,,0.0,0.0,
2025-08-15T03:46:52.950Z,14,GR86-063-113,-20.700000000000003,0.086,-0.727,99.71,2.0,,0.0,0.0,
2025-08-15T03:46:52.994Z,14,GR86-063-113,-17.400000000000002,0.232,-0.808,99.71,2.0,,0.0,0.0,
2025-08-15T03:46:53.037Z,14,GR86-063-113,-16.3,0.202,-0.957,99.71,2.0,7036.0,0.0,0.0,
2025-08-15T03:46:53.080Z,14,GR86-063-113,-15.2,0.25,-0.958,99.72,2.0,,0.0,0.0,119.91
2025-08-15T03:46:53.126Z,14,GR86-063-113,-12.8,0.245,-1.012,99.72,2.0,,0.0,0.0,
2025-08-15T03:46:53.168Z,14,GR86-063-113,-11.1,0.264,-0.921,99.72,2.0,,0.0,0.0,
2025-08-15T03:46:53.211Z,14,GR86-063-113,-10.6,0.288,-1.171,99.7,2.0,,0.0,0.0,
2025-08-15T03:46:53.254Z,14,GR86-063-113,-11.7,0.132,-0.72,99.71,2.0,7122.0,0.0,0.0,
2025-08-15T03:46:53.297Z,14,GR86-063-113,-12.3,0.142,-0.798,99.71,2.0,,0.0,0.0,119.98
2025-08-15T03:46:53.340Z,14,GR86-063-113,-12.0,0.085,-0.731,99.73,2.0,,0.0,0.0,
2025-08-15T03:46:53.384Z,14,GR86-063-113,-11.7,0.195,-0.643,99.72,2.0,,0.0,0.0,
2025-08-15T03:46:53.426Z,14,GR86-063-113,-11.1,0.198,-0.788,99.72,2.0,,0.0,0.0,
2025-08-15T03:46:53.469Z,14,GR86-063-113,-11.6,0.25,-0.756,99.72,2.0,7214.0,0.0,0.0,
2025-08-15T03:46:53.514Z,14,GR86-063-113,-13.0,0.203,-0.678,99.74,2.0,,0.0,0.0,121.72
2025-08-15T03:46:53.557Z,14,GR86-063-113,-13.6,0.104,-0.648,99.73,2.0,,0.0,0.0,
2025-08-15T03:46:53.600Z,14,GR86-063-113,-14.6,0.099,-0.534,99.72,2.0,,0.0,0.0,
2025-08-15T03:46:53.644Z,14,GR86-063-113,-15.3,0.093,-0.678,99.72,2.0,,0.0,0.0,
2025-08-15T03:46:53.686Z,14,GR86-063-113,-15.6,0.155,-0.704,99.72,2.0,7227.0,0.0,0.0,
2025-08-15T03:46:53.729Z,14,GR86-063-113,-15.6,-0.094,-0.624,99.72,3.0,,0.0,0.0,123.25
2025-08-15T03:46:53.774Z,14,GR86-063-113,-14.1,0.035,-0.585,99.74,3.0,,0.0,0.0,
2025-08-15T03:46:53.817Z,14,GR86-063-113,-9.4,0.288,-0.446,99.72,3.0,,0.0,0.0,
2025-08-15T03:46:53.860Z,14,GR86-063-113,-4.800000000000001,0.139,-0.657,99.72,3.0,,0.0,0.0,
2025-08-15T03:46:53.904Z,14,GR86-063-113,-4.1000000000000005,0.258,-0.385,99.74,3.0,6634.0,0.0,0.0,
2025-08-15T03:46:53.946Z,14,GR86-063-113,-3.8,0.018,-0.71,99.74,3.0,,0.0,0.0,124.58
2025-08-15T03:46:53.989Z,14,GR86-063-113,-3.1,0.159,-0.365,99.75,3.0,,0.0,0.0,
2025-08-15T03:46:54.034Z,14,GR86-063-113,1.8,0.32,-0.62,99.73,3.0,,0.0,0.0,
2025-08-15T03:46:54.077Z,14,GR86-063-113,5.5,0.238,-0.587,99.73,3.0,,0.0,0.0,
2025-08-15T03:46:54.120Z,14,GR86-063-113,5.300000000000001,0.167,-0.224,99.72,3.0,6050.0,0.0,0.0,
2025-08-15T03:46:54.164Z,14,GR86-063-113,4.0,0.101,-0.204,99.73,3.0,,0.0,0.0,126.17
2025-08-15T03:46:54.206Z,14,GR86-063-113,3.9,0.195,-0.137,99.72,3.0,,0.0,0.0,
2025-08-15T03:46:54.249Z,14,GR86-063-113,6.2,0.243,0.027,99.73,3.0,,0.0,0.0,
2025-08-15T03:46:54.294Z,14,GR86-063-113,11.3,0.127,0.025,99.75,3.0,,0.0,0.0,
2025-08-15T03:46:54.337Z,14,GR86-063-113,11.4,0.033,0.13,99.74,3.0,6089.0,0.0,0.0,
2025-08-15T03:46:54.380Z,14,GR86-063-113,10.9,-0.008,0.225,99.72,3.0,,0.0,0.0,127.72
2025-08-15T03:46:54.426Z,14,GR86-063-113,10.3,0.393,-0.042,99.73,3.0,,0.0,0.0,
2025-08-15T03:46:54.468Z,14,GR86-063-113,10.2,0.473,-0.028,99.73,3.0,,0.0,0.0,
2025-08-15T03:46:54.511Z,14,GR86-063-113,9.9,0.224,0.186,99.74,3.0,,0.0,0.0,
2025-08-15T03:46:54.554Z,14,GR86-063-113,9.3,0.017,0.233,99.73,3.0,6369.0,0.0,0.0,
2025-08-15T03:46:54.597Z,14,GR86-063-113,9.2,0.216,0.206,99.72,3.0,,0.0,0.0,129.04
2025-08-15T03:46:54.640Z,14,GR86-063-113,9.2,0.264,0.227,99.74,3.0,,0.0,0.0,
2025-08-15T03:46:54.684Z,14,GR86-063-113,9.1,0.244,0.211,99.75,3.0,,0.0,0.0,
2025-08-15T03:46:54.727Z,14,GR86-063-113,9.0,0.177,0.161,99.75,3.0,,0.0,0.0,
2025-08-15T03:46:54.770Z,14,GR86-063-113,8.8,0.211,0.118,99.74,3.0,6230.0,0.0,0.0,
2025-08-15T03:46:54.815Z,14,GR86-063-113,8.5,0.229,0.115,99.74,3.0,,0.0,0.0,132.05
2025-08-15T03:46:54.858Z,14,GR86-063-113,8.5,0.208,0.102,99.74,3.0,,0.0,0.0,
2025-08-15T03:46:54.901Z,14,GR86-063-113,8.5,0.166,0.115,99.72,3.0,,0.0,0.0,
2025-08-15T03:46:54.944Z,14,GR86-063-113,8.5,0.192,0.085,99.73,3.0,,0.0,0.0,
2025-08-15T03:46:54.987Z,14,GR86-063-113,8.3,0.225,0.051,99.73,3.0,6209.0,0.0,0.0,
2025-08-15T03:46:55.030Z,14,GR86-063-113,8.0,0.199,0.067,99.72,3.0,,0.0,0.0,133.43
2025-08-15T03:46:55.074Z,14,GR86-063-113,7.6,0.203,0.044,99.74,3.0,,0.0,0.0,
2025-08-15T03:46:55.117Z,14,GR86-063-113,7.5,0.159,0.068,99.72,3.0,,0.0,0.0,
2025-08-15T03:46:55.160Z,14,GR86-063-113,7.5,0.181,0.062,99.74,3.0,,0.0,0.0,
2025-08-15T03:46:55.204Z,14,GR86-063-113,7.5,0.216,0.036,99.74,3.0,6267.0,0.0,0.0,
2025-08-15T03:46:55.247Z,14,GR86-063-113,7.5,0.21,0.023,99.74,3.0,,0.0,0.0,134.87
2025-08-15T03:46:55.290Z,14,GR86-063-113,7.5,0.168,0.055,99.72,3.0,,0.0,0.0,
2025-08-15T03:46:55.334Z,14,GR86-063-113,7.5,0.18,0.03,99.73,3.0,,0.0,0.0,
2025-08-15T03:46:55.377Z,14,GR86-063-113,7.5,0.166,0.054,99.72,3.0,,0.0,0.0,
2025-08-15T03:46:55.420Z,14,GR86-063-113,7.5,0.21,0.036,99.73,3.0,6393.0,0.0,0.0,
2025-08-15T03:46:55.464Z,14,GR86-063-113,7.4,0.217,0.023,99.75,3.0,,0.0,0.0,136.33
2025-08-15T03:46:55.507Z,14,GR86-063-113,7.300000000000001,0.183,0.024,99.74,3.0,,0.0,0.0,
2025-08-15T03:46:55.550Z,14,GR86-063-113,7.300000000000001,0.168,0.058,99.72,3.0,,0.0,0.0,
2025-08-15T03:46:55.594Z,14,GR86-063-113,7.300000000000001,0.175,0.042,99.73,3.0,,0.0,0.0,
2025-08-15T03:46:55.637Z,14,GR86-063-113,7.300000000000001,0.169,0.058,99.74,3.0,6468.0,0.0,0.0,
2025-08-15T03:46:55.680Z,14,GR86-063-113,7.300000000000001,0.205,0.037,99.72,3.0,,0.0,0.0,137.69
2025-08-15T03:46:55.725Z,14,GR86-063-113,7.300000000000001,0.214,0.018,99.75,3.0,,0.0,0.0,
2025-08-15T03:46:55.768Z,14,GR86-063-113,7.300000000000001,0.179,0.036,99.75,3.0,,0.0,0.0,
2025-08-15T03:46:55.811Z,14,GR86-063-113,7.300000000000001,0.174,0.039,99.74,3.0,,0.0,0.0,
2025-08-15T03:46:55.854Z,14,GR86-063-113,7.300000000000001,0.168,0.05,99.73,3.0,6524.0,0.0,0.0,
2025-08-15T03:46:55.897Z,14,GR86-063-113,7.300000000000001,0.177,0.057,99.74,3.0,,0.0,0.0,139.0
2025-08-15T03:46:55.940Z,14,GR86-063-113,7.300000000000001,0.218,0.031,99.74,3.0,,0.0,0.0,
2025-08-15T03:46:55.984Z,14,GR86-063-113,7.2,0.197,0.018,99.74,3.0,,0.0,0.0,
2025-08-15T03:46:56.027Z,14,GR86-063-113,7.2,0.19,0.035,99.73,3.0,,0.0,0.0,
2025-08-15T03:46:56.070Z,14,GR86-063-113,7.300000000000001,0.152,0.064,99.72,3.0,6579.0,0.0,0.0,
2025-08-15T03:46:56.114Z,14,GR86-063-113,7.300000000000001,0.167,0.034,99.73,3.0,,0.0,0.0,140.43
2025-08-15T03:46:56.157Z,14,GR86-063-113,7.300000000000001,0.181,0.038,99.74,3.0,,0.0,0.0,
2025-08-15T03:46:56.200Z,14,GR86-063-113,7.2,0.192,0.019,99.73,3.0,,0.0,0.0,
2025-08-15T03:46:56.244Z,14,GR86-063-113,7.0,0.197,0.007,99.72,3.0,,0.0,0.0,
2025-08-15T03:46:56.286Z,14,GR86-063-113,7.0,0.169,0.018,99.74,3.0,6642.0,0.0,0.0,
2025-08-15T03:46:56.329Z,14,GR86-063-113,6.9,0.174,0.059,99.75,3.0,,0.0,0.0,141.81
2025-08-15T03:46:56.374Z,14,GR86-063-113,6.7,0.186,0.031,99.74,3.0,,0.0,0.0,
2025-08-15T03:46:56.417Z,14,GR86-063-113,6.6000000000000005,0.161,0.056,99.72,3.0,,0.0,0.0,
2025-08-15T03:46:56.460Z,14,GR86-063-113,6.5,0.185,0.037,99.75,3.0,,0.0,0.0,
2025-08-15T03:46:56.504Z,14,GR86-063-113,6.300000000000001,0.197,0.006,99.75,3.0,6714.0,0.0,0.0,
2025-08-15T03:46:56.547Z,14,GR86-063-113,6.300000000000001,0.203,-0.001,99.73,3.0,,0.0,0.0,143.18
2025-08-15T03:46:56.590Z,14,GR86-063-113,6.4,0.179,0.02,99.73,3.0,,0.0,0.0,
2025-08-15T03:46:56.634Z,14,GR86-063-113,6.5,0.193,-0.002,99.74,3.0,,0.0,0.0,
2025-08-15T03:46:56.677Z,14,GR86-063-113,6.6000000000000005,0.18,0.039,99.74,3.0,,0.0,0.0,
2025-08-15T03:46:56.720Z,14,GR86-063-113,6.6000000000000005,0.176,0.037,99.71,3.0,6767.0,0.0,0.0,
2025-08-15T03:46:56.765Z,14,GR86-063-113,6.7,0.187,0.034,99.73,3.0,,0.0,0.0,144.46
2025-08-15T03:46:56.808Z,14,GR86-063-113,6.7,0.199,0.024,99.74,3.0,,0.0,0.0,
2025-08-15T03:46:56.851Z,14,GR86-063-113,6.7,0.188,0.017,99.74,3.0,,0.0,0.0,
2025-08-15T03:46:56.896Z,14,GR86-063-113,6.5,0.183,0.026,99.72,3.0,,0.0,0.0,
2025-08-15T03:46:56.939Z,14,GR86-063-113,6.300000000000001,0.192,0.021,99.75,3.0,6837.0,0.0,0.0,
2025-08-15T03:46:56.984Z,14,GR86-063-113,6.1000000000000005,0.171,0.043,99.74,3.0,,0.0,0.0,145.77
2025-08-15T03:46:57.026Z,14,GR86-063-113,6.1000000000000005,0.185,0.046,99.74,3.0,,0.0,0.0,
2025-08-15T03:46:57.069Z,14,GR86-063-113,5.800000000000001,0.189,0.014,99.74,3.0,,0.0,0.0,
2025-08-15T03:46:57.114Z,14,GR86-063-113,5.1000000000000005,0.178,0.007,99.74,3.0,,0.0,0.0,
2025-08-15T03:46:57.157Z,14,GR86-063-113,4.9,0.187,-0.014,99.72,3.0,6900.0,0.0,0.0,
2025-08-15T03:46:57.200Z,14,GR86-063-113,4.6000000000000005,0.194,-0.043,99.75,3.0,,0.0,0.0,147.02
2025-08-15T03:46:57.244Z,14,GR86-063-113,4.1000000000000005,0.182,-0.068,99.75,3.0,,0.0,0.0,
2025-08-15T03:46:57.286Z,14,GR86-063-113,3.9,0.175,-0.057,99.72,3.0,,0.0,0.0,
2025-08-15T03:46:57.329Z,14,GR86-063-113,3.9,0.17,-0.053,99.74,3.0,,0.0,0.0,
2025-08-15T03:46:57.374Z,14,GR86-063-113,3.9,0.182,-0.069,99.72,3.0,6954.0,0.0,0.0,
2025-08-15T03:46:57.417Z,14,GR86-063-113,4.1000000000000005,0.153,-0.058,99.73,3.0,,0.0,0.0,149.57
2025-08-15T03:46:57.460Z,14,GR86-063-113,4.1000000000000005,0.187,-0.062,99.71,3.0,,0.0,0.0,
2025-08-15T03:46:57.504Z,14,GR86-063-113,4.1000000000000005,0.184,-0.077,99.72,3.0,,0.0,0.0,
2025-08-15T03:46:57.546Z,14,GR86-063-113,4.0,0.189,-0.087,99.72,3.0,,0.0,0.0,
2025-08-15T03:46:57.589Z,14,GR86-063-113,4.1000000000000005,0.175,-0.084,99.73,3.0,7005.0,0.0,0.0,
2025-08-15T03:46:57.634Z,14,GR86-063-113,4.3,0.187,-0.063,99.72,3.0,,0.0,0.0,150.76
2025-08-15T03:46:57.677Z,14,GR86-063-113,4.2,0.183,-0.083,99.72,3.0,,0.0,0.0,
2025-08-15T03:46:57.720Z,14,GR86-063-113,4.2,0.158,-0.069,99.72,3.0,,0.0,0.0,
2025-08-15T03:46:57.764Z,14,GR86-063-113,4.1000000000000005,0.169,-0.062,99.73,3.0,,0.0,0.0,
2025-08-15T03:46:57.807Z,14,GR86-063-113,3.9,0.168,-0.044,99.74,3.0,7064.0,0.0,0.0,
2025-08-15T03:46:57.850Z,14,GR86-063-113,3.4000000000000004,0.179,-0.066,99.74,3.0,,0.0,0.0,152.02
2025-08-15T03:46:57.894Z,14,GR86-063-113,2.8000000000000003,0.162,-0.063,99.72,3.0,,0.0,0.0,
2025-08-15T03:46:57.937Z,14,GR86-063-113,2.8000000000000003,0.169,-0.058,99.73,3.0,,0.0,0.0,
2025-08-15T03:46:57.980Z,14,GR86-063-113,2.9000000000000004,0.192,-0.083,99.74,3.0,,0.0,0.0,
2025-08-15T03:46:58.026Z,14,GR86-063-113,3.1,0.177,-0.118,99.74,3.0,7171.0,0.0,0.0,
2025-08-15T03:46:58.068Z,14,GR86-063-113,3.2,0.169,-0.125,99.73,3.0,,0.0,0.0,153.21
2025-08-15T03:46:58.111Z,14,GR86-063-113,3.2,0.159,-0.106,99.71,3.0,,0.0,0.0,
2025-08-15T03:46:58.154Z,14,GR86-063-113,3.2,0.184,-0.12,99.73,3.0,,0.0,0.0,
2025-08-15T03:46:58.197Z,14,GR86-063-113,2.9000000000000004,0.165,-0.123,99.72,3.0,,0.0,0.0,
2025-08-15T03:46:58.240Z,14,GR86-063-113,2.7,0.135,-0.101,99.74,3.0,7226.0,0.0,0.0,
2025-08-15T03:46:58.284Z,14,GR86-063-113,2.7,0.141,-0.084,99.73,3.0,,0.0,0.0,154.41
2025-08-15T03:46:58.327Z,14,GR86-063-113,2.8000000000000003,0.147,-0.081,99.73,3.0,,0.0,0.0,
2025-08-15T03:46:58.370Z,14,GR86-063-113,2.9000000000000004,0.178,-0.099,99.74,3.0,,0.0,0.0,
2025-08-15T03:46:58.415Z,14,GR86-063-113,3.0,0.131,-0.102,99.72,3.0,,0.0,0.0,
2025-08-15T03:46:58.458Z,14,GR86-063-113,3.2,0.005,-0.102,99.73,4.0,7276.0,0.0,0.0,
2025-08-15T03:46:58.501Z,14,GR86-063-113,3.1,-0.09,-0.072,99.74,4.0,,0.0,0.0,155.52
2025-08-15T03:46:58.544Z,14,GR86-063-113,3.1,0.587,-0.117,99.73,4.0,,0.0,0.0,
2025-08-15T03:46:58.587Z,14,GR86-063-113,3.2,0.303,-0.172,99.73,4.0,,0.0,0.0,
2025-08-15T03:46:58.630Z,14,GR86-063-113,3.2,0.083,-0.069,99.72,4.0,,0.0,0.0,
2025-08-15T03:46:58.674Z,14,GR86-063-113,3.1,0.077,-0.155,99.72,4.0,6086.0,0.0,0.0,
2025-08-15T03:46:58.717Z,14,GR86-063-113,3.2,0.232,-0.108,99.72,4.0,,0.0,0.0,156.61
2025-08-15T03:46:58.760Z,14,GR86-063-113,3.3000000000000003,0.198,-0.055,99.72,4.0,,0.0,0.0,
2025-08-15T03:46:58.804Z,14,GR86-063-113,3.3000000000000003,0.103,-0.113,99.73,4.0,,0.0,0.0,
2025-08-15T03:46:58.847Z,14,GR86-063-113,3.2,0.087,-0.045,99.74,4.0,,0.0,0.0,
2025-08-15T03:46:58.890Z,14,GR86-063-113,3.2,0.121,-0.049,99.73,4.0,6167.0,0.0,0.0,
2025-08-15T03:46:58.934Z,14,GR86-063-113,3.2,0.147,-0.069,99.72,4.0,,0.0,0.0,157.79
2025-08-15T03:46:58.977Z,14,GR86-063-113,3.2,0.112,-0.064,99.73,4.0,,0.0,0.0,
2025-08-15T03:46:59.020Z,14,GR86-063-113,3.0,0.084,-0.057,99.72,4.0,,0.0,0.0,
2025-08-15T03:46:59.064Z,14,GR86-063-113,3.0,0.125,-0.071,99.74,4.0,,0.0,0.0,
2025-08-15T03:46:59.107Z,14,GR86-063-113,3.0,0.123,-0.071,99.73,4.0,6236.0,0.0,0.0,
2025-08-15T03:46:59.150Z,14,GR86-063-113,3.0,0.151,-0.088,99.72,4.0,,0.0,0.0,158.91
2025-08-15T03:46:59.194Z,14,GR86-063-113,2.8000000000000003,0.104,-0.053,99.74,4.0,,0.0,0.0,
2025-08-15T03:46:59.236Z,14,GR86-063-113,2.8000000000000003,0.11,-0.06,99.72,4.0,,0.0,0.0,
2025-08-15T03:46:59.280Z,14,GR86-063-113,2.8000000000000003,0.135,-0.096,99.73,4.0,,0.0,0.0,
2025-08-15T03:46:59.323Z,14,GR86-063-113,2.9000000000000004,0.149,-0.099,99.73,4.0,6288.0,0.0,0.0,
2025-08-15T03:46:59.368Z,14,GR86-063-113,3.0,0.168,-0.112,99.74,4.0,,0.0,0.0,159.82
2025-08-15T03:46:59.411Z,14,GR86-063-113,2.9000000000000004,0.152,-0.119,99.76,4.0,,0.0,0.0,
2025-08-15T03:46:59.454Z,14,GR86-063-113,3.0,0.141,-0.099,99.74,4.0,,0.0,0.0,
2025-08-15T03:46:59.497Z,14,GR86-063-113,3.0,0.146,-0.107,99.72,4.0,,0.0,0.0,
2025-08-15T03:46:59.540Z,14,GR86-063-113,3.0,0.145,-0.122,99.74,4.0,6322.0,0.0,0.0,
2025-08-15T03:46:59.584Z,14,GR86-063-113,3.0,0.158,-0.112,99.73,4.0,,0.0,0.0,160.73
2025-08-15T03:46:59.627Z,14,GR86-063-113,3.0,0.142,-0.1,99.73,4.0,,0.0,0.0,
2025-08-15T03:46:59.670Z,14,GR86-063-113,2.9000000000000004,0.115,-0.093,99.73,4.0,,0.0,0.0,
2025-08-15T03:46:59.714Z,14,GR86-063-113,2.9000000000000004,0.16,-0.135,99.76,4.0,,0.0,0.0,
2025-08-15T03:46:59.757Z,14,GR86-063-113,2.7,0.147,-0.117,99.75,4.0,6363.0,0.0,0.0,
2025-08-15T03:46:59.800Z,14,GR86-063-113,2.6,0.148,-0.114,99.72,4.0,,0.0,0.0,161.6
2025-08-15T03:46:59.844Z,14,GR86-063-113,2.5,0.11,-0.113,99.72,4.0,,0.0,0.0,
2025-08-15T03:46:59.886Z,14,GR86-063-113,2.4000000000000004,0.102,-0.109,99.73,4.0,,0.0,0.0,
2025-08-15T03:46:59.929Z,14,GR86-063-113,2.3000000000000003,0.11,-0.12,99.73,4.0,,0.0,0.0,
2025-08-15T03:46:59.974Z,14,GR86-063-113,2.0,0.149,-0.144,99.72,4.0,6403.0,0.0,0.0,
2025-08-15T03:47:00.017Z,14,GR86-063-113,1.7000000000000002,0.121,-0.137,99.73,4.0,,0.0,0.0,163.53
2025-08-15T03:47:00.060Z,14,GR86-063-113,1.4,0.104,-0.139,99.74,4.0,,0.0,0.0,
2025-08-15T03:47:00.104Z,14,GR86-063-113,1.1,0.108,-0.154,99.72,4.0,,0.0,0.0,
2025-08-15T03:47:00.147Z,14,GR86-063-113,1.1,0.09,-0.165,99.73,4.0,,0.0,0.0,
2025-08-15T03:47:00.190Z,14,GR86-063-113,1.2000000000000002,0.107,-0.172,99.74,4.0,6430.0,0.0,0.0,
2025-08-15T03:47:00.234Z,14,GR86-063-113,1.4,0.123,-0.198,99.73,4.0,,0.0,0.0,164.48
2025-08-15T03:47:00.277Z,14,GR86-063-113,1.4,0.11,-0.181,99.73,4.0,,0.0,0.0,
2025-08-15T03:47:00.320Z,14,GR86-063-113,1.5,0.092,-0.152,99.74,4.0,,0.0,0.0,
2025-08-15T03:47:00.365Z,14,GR86-063-113,1.6,0.105,-0.131,99.72,4.0,,0.0,0.0,
2025-08-15T03:47:00.407Z,14,GR86-063-113,1.7000000000000002,0.107,-0.124,99.71,4.0,6466.0,0.0,0.0,
2025-08-15T03:47:00.450Z,14,GR86-063-113,1.8,0.124,-0.132,99.74,4.0,,0.0,0.0,165.38
2025-08-15T03:47:00.494Z,14,GR86-063-113,1.8,0.126,-0.119,99.76,4.0,,0.0,0.0,
2025-08-15T03:47:00.537Z,14,GR86-063-113,1.8,0.099,-0.103,99.72,4.0,,0.0,0.0,
2025-08-15T03:47:00.581Z,14,GR86-063-113,1.7000000000000002,0.12,-0.074,99.72,4.0,,0.0,0.0,
2025-08-15T03:47:00.626Z,14,GR86-063-113,1.6,0.106,-0.082,99.71,4.0,6551.0,0.0,0.0,
2025-08-15T03:47:00.668Z,14,GR86-063-113,1.5,0.106,-0.083,99.72,4.0,,0.0,0.0,166.45000000000002
2025-08-15T03:47:00.711Z,14,GR86-063-113,1.4,0.123,-0.094,99.74,4.0,,0.0,0.0,
2025-08-15T03:47:00.754Z,14,GR86-063-113,1.3,0.106,-0.099,99.73,4.0,,0.0,0.0,
2025-08-15T03:47:00.797Z,14,GR86-063-113,1.3,0.109,-0.096,99.75,4.0,,0.0,0.0,
2025-08-15T03:47:00.840Z,14,GR86-063-113,1.3,0.108,-0.111,99.74,4.0,6597.0,0.0,0.0,
2025-08-15T03:47:00.884Z,14,GR86-063-113,1.2000000000000002,0.124,-0.123,99.74,4.0,,0.0,0.0,167.38
2025-08-15T03:47:00.926Z,14,GR86-063-113,1.2000000000000002,0.111,-0.137,99.75,4.0,,0.0,0.0,
2025-08-15T03:47:00.969Z,14,GR86-063-113,1.1,0.117,-0.165,99.74,4.0,,0.0,0.0,
2025-08-15T03:47:01.014Z,14,GR86-063-113,1.1,0.115,-0.147,99.72,4.0,,0.0,0.0,
2025-08-15T03:47:01.057Z,14,GR86-063-113,1.2000000000000002,0.111,-0.134,99.72,4.0,6633.0,0.0,0.0,
2025-08-15T03:47:01.100Z,14,GR86-063-113,1.2000000000000002,0.112,-0.132,99.74,4.0,,0.0,0.0,168.48
2025-08-15T03:47:01.144Z,14,GR86-063-113,1.2000000000000002,0.097,-0.147,99.73,4.0,,0.0,0.0,
2025-08-15T03:47:01.186Z,14,GR86-063-113,1.2000000000000002,0.108,-0.15,99.74,4.0,,0.0,0.0,
2025-08-15T03:47:01.229Z,14,GR86-063-113,1.2000000000000002,0.114,-0.143,99.74,4.0,,0.0,0.0,
2025-08-15T03:47:01.317Z,14,GR86-063-113,1.3,0.122,-0.125,99.73,4.0,6675.0,0.0,0.0,169.45000000000002
2025-08-15T03:47:01.360Z,14,GR86-063-113,1.3,0.119,-0.14,99.74,4.0,,0.0,0.0,
2025-08-15T03:47:01.404Z,14,GR86-063-113,1.4,0.107,-0.155,99.74,4.0,,0.0,0.0,
2025-08-15T03:47:01.447Z,14,GR86-063-113,1.3,0.108,-0.163,99.74,4.0,,0.0,0.0,
2025-08-15T03:47:01.490Z,14,GR86-063-113,1.3,0.107,-0.147,99.72,4.0,6697.0,0.0,0.0,
2025-08-15T03:47:01.534Z,14,GR86-063-113,1.2000000000000002,0.121,-0.169,99.72,4.0,,0.0,0.0,170.49
2025-08-15T03:47:01.577Z,14,GR86-063-113,1.2000000000000002,0.111,-0.149,99.72,4.0,,0.0,0.0,
2025-08-15T03:47:01.620Z,14,GR86-063-113,1.3,0.132,-0.143,99.74,4.0,,0.0,0.0,
2025-08-15T03:47:01.664Z,14,GR86-063-113,1.3,0.113,-0.13,99.72,4.0,,0.0,0.0,
2025-08-15T03:47:01.707Z,14,GR86-063-113,1.2000000000000002,0.134,-0.137,99.71,4.0,6747.0,0.0,0.0,
2025-08-15T03:47:01.750Z,14,GR86-063-113,1.1,0.099,-0.136,99.74,4.0,,0.0,0.0,171.56
2025-08-15T03:47:01.794Z,14,GR86-063-113,0.9,0.117,-0.16,99.71,4.0,,0.0,0.0,
2025-08-15T03:47:01.837Z,14,GR86-063-113,0.9,0.132,-0.145,99.72,4.0,,0.0,0.0,
2025-08-15T03:47:01.880Z,14,GR86-063-113,0.8,0.108,-0.159,99.73,4.0,,0.0,0.0,
2025-08-15T03:47:01.926Z,14,GR86-063-113,0.7000000000000001,0.132,-0.169,99.73,4.0,6777.0,0.0,0.0,
2025-08-15T03:47:01.969Z,14,GR86-063-113,0.6000000000000001,0.092,-0.156,99.71,4.0,,0.0,0.0,172.46
2025-08-15T03:47:02.015Z,14,GR86-063-113,0.7000000000000001,0.127,-0.204,99.72,4.0,,0.0,0.0,
2025-08-15T03:47:02.058Z,14,GR86-063-113,0.5,0.118,-0.207,99.73,4.0,,0.0,0.0,
2025-08-15T03:47:02.101Z,14,GR86-063-113,0.1,0.114,-0.245,99.72,4.0,,0.0,0.0,
2025-08-15T03:47:02.144Z,14,GR86-063-113,-0.2,0.114,-0.241,99.71,4.0,6836.0,0.0,0.0,
2025-08-15T03:47:02.187Z,14,GR86-063-113,-0.4,0.089,-0.237,99.72,4.0,,0.0,0.0,173.36
2025-08-15T03:47:02.230Z,14,GR86-063-113,-0.3,0.127,-0.221,99.75,4.0,,0.0,0.0,
2025-08-15T03:47:02.274Z,14,GR86-063-113,-0.1,0.136,-0.205,99.71,4.0,,0.0,0.0,
2025-08-15T03:47:02.317Z,14,GR86-063-113,0.1,0.104,-0.22,99.73,4.0,,0.0,0.0,
2025-08-15T03:47:02.360Z,14,GR86-063-113,0.2,0.117,-0.234,99.74,4.0,6861.0,0.0,0.0,
2025-08-15T03:47:02.404Z,14,GR86-063-113,0.4,0.11,-0.234,99.72,4.0,,0.0,0.0,174.42000000000002
2025-08-15T03:47:02.447Z,14,GR86-063-113,0.5,0.12,-0.236,99.72,4.0,,0.0,0.0,
2025-08-15T03:47:02.490Z,14,GR86-063-113,0.5,0.107,-0.24,99.74,4.0,,0.0,0.0,
2025-08-15T03:47:02.534Z,14,GR86-063-113,0.4,0.09,-0.228,99.72,4.0,,0.0,0.0,
2025-08-15T03:47:02.576Z,14,GR86-063-113,0.4,0.106,-0.202,99.72,4.0,6905.0,0.0,0.0,
2025-08-15T03:47:02.619Z,14,GR86-063-113,0.2,0.098,-0.182,99.73,4.0,,0.0,0.0,176.41
2025-08-15T03:47:02.664Z,14,GR86-063-113,0.2,0.101,-0.16,99.72,4.0,,0.0,0.0,
2025-08-15T03:47:02.707Z,14,GR86-063-113,0.2,0.103,-0.164,99.72,4.0,,0.0,0.0,
2025-08-15T03:47:02.750Z,14,GR86-063-113,0.5,0.122,-0.176,99.75,4.0,,0.0,0.0,
2025-08-15T03:47:02.794Z,14,GR86-063-113,1.0,0.118,-0.188,99.72,4.0,6927.0,0.0,0.0,
2025-08-15T03:47:02.837Z,14,GR86-063-113,1.3,0.106,-0.187,99.74,4.0,,0.0,0.0,177.12
2025-08-15T03:47:02.880Z,14,GR86-063-113,1.2000000000000002,0.097,-0.178,99.71,4.0,,0.0,0.0,
2025-08-15T03:47:02.925Z,14,GR86-063-113,1.1,0.096,-0.194,99.71,4.0,,0.0,0.0,
2025-08-15T03:47:02.968Z,14,GR86-063-113,1.0,0.08,-0.165,99.72,4.0,,0.0,0.0,
2025-08-15T03:47:03.011Z,14,GR86-063-113,1.0,0.109,-0.155,99.71,4.0,6979.0,0.0,0.0,
2025-08-15T03:47:03.054Z,14,GR86-063-113,1.1,0.128,-0.147,99.75,4.0,,0.0,0.0,178.15
2025-08-15T03:47:03.097Z,14,GR86-063-113,1.1,0.101,-0.16,99.74,4.0,,0.0,0.0,
2025-08-15T03:47:03.140Z,14,GR86-063-113,0.9,0.132,-0.152,99.73,4.0,,0.0,0.0,
2025-08-15T03:47:03.184Z,14,GR86-063-113,0.8,0.099,-0.149,99.72,4.0,,0.0,0.0,
2025-08-15T03:47:03.227Z,14,GR86-063-113,0.8,0.121,-0.149,99.74,4.0,7032.0,0.0,0.0,
2025-08-15T03:47:03.270Z,14,GR86-063-113,0.8,0.118,-0.159,99.71,4.0,,0.0,0.0,179.03
2025-08-15T03:47:03.314Z,14,GR86-063-113,1.0,0.081,-0.157,99.73,4.0,,0.0,0.0,
2025-08-15T03:47:03.357Z,14,GR86-063-113,1.2000000000000002,0.08,-0.169,99.74,4.0,,0.0,0.0,
2025-08-15T03:47:03.400Z,14,GR86-063-113,1.4,0.086,-0.178,99.75,4.0,,0.0,0.0,
2025-08-15T03:47:03.444Z,14,GR86-063-113,1.2000000000000002,0.071,-0.157,99.75,4.0,7073.0,0.0,0.0,
2025-08-15T03:47:03.486Z,14,GR86-063-113,1.2000000000000002,0.087,-0.138,99.72,4.0,,0.0,0.0,179.92000000000002
2025-08-15T03:47:03.529Z,14,GR86-063-113,1.1,0.08,-0.119,99.72,4.0,,0.0,0.0,
2025-08-15T03:47:03.574Z,14,GR86-063-113,1.1,0.091,-0.14,99.72,4.0,,0.0,0.0,
2025-08-15T03:47:03.617Z,14,GR86-063-113,1.1,0.107,-0.147,99.74,4.0,,0.0,0.0,
2025-08-15T03:47:03.660Z,14,GR86-063-113,1.2000000000000002,0.105,-0.141,99.74,4.0,7104.0,0.0,0.0,
2025-08-15T03:47:03.704Z,14,GR86-063-113,1.4,0.108,-0.154,99.74,4.0,,0.0,0.0,180.68
2025-08-15T03:47:03.747Z,14,GR86-063-113,1.6,0.114,-0.144,99.72,4.0,,0.0,0.0,
2025-08-15T03:47:03.790Z,14,GR86-063-113,1.8,0.103,-0.164,99.72,4.0,,0.0,0.0,
2025-08-15T03:47:03.834Z,14,GR86-063-113,1.6,0.068,-0.133,99.73,4.0,,0.0,0.0,
2025-08-15T03:47:03.877Z,14,GR86-063-113,1.6,0.082,-0.132,99.73,4.0,7127.0,0.0,0.0,
2025-08-15T03:47:03.920Z,14,GR86-063-113,1.6,0.078,-0.136,99.72,4.0,,0.0,0.0,181.58
2025-08-15T03:47:03.965Z,14,GR86-063-113,1.4,0.094,-0.119,99.72,4.0,,0.0,0.0,
2025-08-15T03:47:04.007Z,14,GR86-063-113,1.2000000000000002,0.084,-0.12,99.72,4.0,,0.0,0.0,
2025-08-15T03:47:04.050Z,14,GR86-063-113,1.2000000000000002,0.079,-0.106,99.73,4.0,,0.0,0.0,
2025-08-15T03:47:04.094Z,14,GR86-063-113,1.1,0.113,-0.156,99.72,4.0,7157.0,0.0,0.0,
2025-08-15T03:47:04.137Z,14,GR86-063-113,1.1,0.118,-0.159,99.71,4.0,,0.0,0.0,182.43
2025-08-15T03:47:04.180Z,14,GR86-063-113,1.0,0.116,-0.154,99.74,4.0,,0.0,0.0,
2025-08-15T03:47:04.226Z,14,GR86-063-113,1.0,0.115,-0.179,99.72,4.0,,0.0,0.0,
2025-08-15T03:47:04.268Z,14,GR86-063-113,1.1,0.103,-0.191,99.72,4.0,,0.0,0.0,
2025-08-15T03:47:04.311Z,14,GR86-063-113,1.1,0.12,-0.215,99.72,4.0,7195.0,0.0,0.0,
2025-08-15T03:47:04.354Z,14,GR86-063-113,1.1,0.095,-0.18,99.72,4.0,,0.0,0.0,183.22
2025-08-15T03:47:04.397Z,14,GR86-063-113,1.0,0.079,-0.174,99.72,4.0,,0.0,0.0,
2025-08-15T03:47:04.440Z,14,GR86-063-113,0.8,0.081,-0.178,99.73,4.0,,0.0,0.0,
2025-08-15T03:47:04.484Z,14,GR86-063-113,0.7000000000000001,0.082,-0.176,99.73,4.0,,0.0,0.0,
2025-08-15T03:47:04.526Z,14,GR86-063-113,0.8,0.078,-0.169,99.72,4.0,7224.0,0.0,0.0,
2025-08-15T03:47:04.569Z,14,GR86-063-113,1.0,0.093,-0.176,99.73,4.0,,0.0,0.0,184.17
2025-08-15T03:47:04.614Z,14,GR86-063-113,1.1,0.107,-0.183,99.71,4.0,,0.0,0.0,
2025-08-15T03:47:04.657Z,14,GR86-063-113,1.0,0.105,-0.174,99.74,4.0,,0.0,0.0,
2025-08-15T03:47:04.700Z,14,GR86-063-113,0.9,0.097,-0.179,99.73,4.0,,0.0,0.0,
2025-08-15T03:47:04.744Z,14,GR86-063-113,1.1,0.099,-0.173,99.72,4.0,7258.0,0.0,0.0,
2025-08-15T03:47:04.786Z,14,GR86-063-113,1.1,0.101,-0.183,99.72,4.0,,0.0,0.0,184.91
2025-08-15T03:47:04.829Z,14,GR86-063-113,1.2000000000000002,0.103,-0.19,99.74,4.0,,0.0,0.0,
2025-08-15T03:47:04.874Z,14,GR86-063-113,1.1,-0.131,-0.174,99.71,5.0,,0.0,0.0,
2025-08-15T03:47:04.917Z,14,GR86-063-113,1.1,-0.03,-0.123,99.72,5.0,,0.0,0.0,
2025-08-15T03:47:04.960Z,14,GR86-063-113,1.5,0.446,-0.201,99.71,5.0,7289.0,0.0,0.0,
2025-08-15T03:47:05.004Z,14,GR86-063-113,1.7000000000000002,0.127,-0.179,99.72,5.0,,0.0,0.0,185.68
2025-08-15T03:47:05.047Z,14,GR86-063-113,1.7000000000000002,-0.037,-0.099,99.72,5.0,,0.0,0.0,
2025-08-15T03:47:05.090Z,14,GR86-063-113,1.8,0.058,-0.18,99.74,5.0,,0.0,0.0,
2025-08-15T03:47:05.134Z,14,GR86-063-113,2.0,0.142,-0.078,99.72,5.0,,0.0,0.0,
2025-08-15T03:47:05.177Z,14,GR86-063-113,1.9,0.052,-0.123,99.71,5.0,6296.0,0.0,0.0,
2025-08-15T03:47:05.220Z,14,GR86-063-113,1.6,0.033,-0.136,99.71,5.0,,0.0,0.0,187.32
2025-08-15T03:47:05.264Z,14,GR86-063-113,1.4,0.09,-0.077,99.72,5.0,,0.0,0.0,
2025-08-15T03:47:05.306Z,14,GR86-063-113,1.4,0.075,-0.101,99.73,5.0,,0.0,0.0,
2025-08-15T03:47:05.349Z,14,GR86-063-113,1.6,0.074,-0.103,99.72,5.0,,0.0,0.0,
2025-08-15T03:47:05.436Z,14,GR86-063-113,1.6,0.067,-0.128,99.74,5.0,6347.0,0.0,0.0,187.99
2025-08-15T03:47:05.479Z,14,GR86-063-113,1.6,0.105,-0.13,99.72,5.0,,0.0,0.0,
2025-08-15T03:47:05.526Z,14,GR86-063-113,1.8,0.05,-0.116,99.72,5.0,,0.0,0.0,
2025-08-15T03:47:05.569Z,14,GR86-063-113,1.8,0.09,-0.135,99.72,5.0,,0.0,0.0,
2025-08-15T03:47:05.615Z,14,GR86-063-113,1.8,0.1,-0.144,99.73,5.0,6419.0,0.0,0.0,
2025-08-15T03:47:05.658Z,14,GR86-063-113,1.9,0.077,-0.142,99.72,5.0,,0.0,0.0,188.76
2025-08-15T03:47:05.701Z,14,GR86-063-113,1.9,0.085,-0.161,99.74,5.0,,0.0,0.0,
2025-08-15T03:47:05.744Z,14,GR86-063-113,2.0,0.084,-0.146,99.73,5.0,,0.0,0.0,
2025-08-15T03:47:05.787Z,14,GR86-063-113,2.0,0.08,-0.129,99.71,5.0,,0.0,0.0,
2025-08-15T03:47:05.830Z,14,GR86-063-113,2.1,0.093,-0.129,99.72,5.0,6453.0,0.0,0.0,
2025-08-15T03:47:05.874Z,14,GR86-063-113,2.2,0.088,-0.076,99.73,5.0,,0.0,0.0,189.54
2025-08-15T03:47:05.917Z,14,GR86-063-113,2.3000000000000003,0.097,-0.094,99.73,5.0,,0.0,0.0,
2025-08-15T03:47:05.960Z,14,GR86-063-113,2.3000000000000003,0.082,-0.1,99.72,5.0,,0.0,0.0,
2025-08-15T03:47:06.004Z,14,GR86-063-113,2.3000000000000003,0.083,-0.098,99.75,5.0,,0.0,0.0,
2025-08-15T03:47:06.047Z,14,GR86-063-113,2.3000000000000003,0.085,-0.077,99.71,5.0,6468.0,0.0,0.0,
2025-08-15T03:47:06.090Z,14,GR86-063-113,2.3000000000000003,0.076,-0.074,99.72,5.0,,0.0,0.0,190.24
2025-08-15T03:47:06.134Z,14,GR86-063-113,2.4000000000000004,0.072,-0.059,99.74,5.0,,0.0,0.0,
2025-08-15T03:47:06.177Z,14,GR86-063-113,2.5,0.084,-0.062,99.72,5.0,,0.0,0.0,
2025-08-15T03:47:06.220Z,14,GR86-063-113,2.6,0.07,-0.044,99.74,5.0,,0.0,0.0,
2025-08-15T03:47:06.264Z,14,GR86-063-113,2.6,0.084,-0.065,99.72,5.0,6498.0,0.0,0.0,
2025-08-15T03:47:06.307Z,14,GR86-063-113,2.6,0.089,-0.069,99.72,5.0,,0.0,0.0,191.04
2025-08-15T03:47:06.350Z,14,GR86-063-113,2.7,0.072,-0.078,99.72,5.0,,0.0,0.0,
2025-08-15T03:47:06.394Z,14,GR86-063-113,2.7,0.071,-0.059,99.72,5.0,,0.0,0.0,
2025-08-15T03:47:06.437Z,14,GR86-063-113,2.8000000000000003,0.083,-0.054,99.74,5.0,,0.0,0.0,
2025-08-15T03:47:06.480Z,14,GR86-063-113,2.8000000000000003,0.075,-0.046,99.75,5.0,6521.0,0.0,0.0,
2025-08-15T03:47:06.526Z,14,GR86-063-113,2.8000000000000003,0.086,-0.043,99.72,5.0,,0.0,0.0,191.71
2025-08-15T03:47:06.569Z,14,GR86-063-113,2.8000000000000003,0.076,-0.05,99.72,5.0,,0.0,0.0,
2025-08-15T03:47:06.614Z,14,GR86-063-113,2.8000000000000003,0.051,-0.06,99.72,5.0,,0.0,0.0,
2025-08-15T03:47:06.657Z,14,GR86-063-113,2.7,0.087,-0.044,99.74,5.0,,0.0,0.0,
2025-08-15T03:47:06.700Z,14,GR86-063-113,2.7,0.076,-0.036,99.73,5.0,6538.0,0.0,0.0,
2025-08-15T03:47:06.744Z,14,GR86-063-113,2.8000000000000003,0.071,-0.039,99.72,5.0,,0.0,0.0,192.41
2025-08-15T03:47:06.786Z,14,GR86-063-113,2.9000000000000004,0.082,-0.041,99.72,5.0,,0.0,0.0,
2025-08-15T03:47:06.829Z,14,GR86-063-113,2.9000000000000004,0.08,-0.023,99.73,5.0,,0.0,0.0,
2025-08-15T03:47:06.874Z,14,GR86-063-113,2.9000000000000004,0.068,-0.061,99.72,5.0,,0.0,0.0,
2025-08-15T03:47:06.917Z,14,GR86-063-113,2.8000000000000003,0.055,-0.076,99.72,5.0,6565.0,0.0,0.0,
2025-08-15T03:47:06.960Z,14,GR86-063-113,2.8000000000000003,0.078,-0.086,99.72,5.0,,0.0,0.0,193.09
2025-08-15T03:47:07.004Z,14,GR86-063-113,2.7,0.054,-0.073,99.72,5.0,,0.0,0.0,
2025-08-15T03:47:07.047Z,14,GR86-063-113,2.6,0.06,-0.097,99.71,5.0,,0.0,0.0,
2025-08-15T03:47:07.090Z,14,GR86-063-113,2.6,0.087,-0.105,99.72,5.0,,0.0,0.0,
2025-08-15T03:47:07.134Z,14,GR86-063-113,2.7,0.065,-0.118,99.72,5.0,6587.0,0.0,0.0,
2025-08-15T03:47:07.177Z,14,GR86-063-113,2.8000000000000003,0.05,-0.111,99.72,5.0,,0.0,0.0,193.84
2025-08-15T03:47:07.220Z,14,GR86-063-113,3.0,0.069,-0.097,99.73,5.0,,0.0,0.0,
2025-08-15T03:47:07.265Z,14,GR86-063-113,3.1,0.05,-0.107,99.74,5.0,,0.0,0.0,
2025-08-15T03:47:07.308Z,14,GR86-063-113,3.2,0.075,-0.114,99.72,5.0,,0.0,0.0,
2025-08-15T03:47:07.351Z,14,GR86-063-113,3.3000000000000003,0.081,-0.105,99.71,5.0,6606.0,0.0,0.0,
2025-08-15T03:47:07.394Z,14,GR86-063-113,3.4000000000000004,0.049,-0.09,99.72,5.0,,0.0,0.0,194.43
2025-08-15T03:47:07.437Z,14,GR86-063-113,3.4000000000000004,0.057,-0.091,99.72,5.0,,0.0,0.0,
2025-08-15T03:47:07.480Z,14,GR86-063-113,3.4000000000000004,0.064,-0.09,99.73,5.0,,0.0,0.0,
2025-08-15T03:47:07.526Z,14,GR86-063-113,3.4000000000000004,0.062,-0.09,99.71,5.0,,0.0,0.0,
2025-08-15T03:47:07.569Z,14,GR86-063-113,3.4000000000000004,0.067,-0.077,99.73,5.0,6622.0,0.0,0.0,
2025-08-15T03:47:07.614Z,14,GR86-063-113,3.5,0.067,-0.042,99.72,5.0,,0.0,0.0,195.76
2025-08-15T03:47:07.657Z,14,GR86-063-113,3.7,0.054,-0.021,99.73,5.0,,0.0,0.0,
2025-08-15T03:47:07.700Z,14,GR86-063-113,3.8,0.041,-0.03,99.71,5.0,,0.0,0.0,
2025-08-15T03:47:07.744Z,14,GR86-063-113,3.9,0.051,-0.019,99.72,5.0,,0.0,0.0,
2025-08-15T03:47:07.786Z,14,GR86-063-113,4.1000000000000005,0.067,-0.013,99.71,5.0,6652.0,0.0,0.0,
2025-08-15T03:47:07.829Z,14,GR86-063-113,4.1000000000000005,0.077,-0.012,99.73,5.0,,0.0,0.0,196.23
2025-08-15T03:47:07.874Z,14,GR86-063-113,4.2,0.048,0.036,99.72,5.0,,0.0,0.0,
2025-08-15T03:47:07.917Z,14,GR86-063-113,4.2,0.05,0.023,99.71,5.0,,0.0,0.0,
2025-08-15T03:47:07.960Z,14,GR86-063-113,4.2,0.061,0.013,99.72,5.0,,0.0,0.0,
2025-08-15T03:47:08.004Z,14,GR86-063-113,4.2,0.055,0.033,99.73,5.0,6675.0,0.0,0.0,
2025-08-15T03:47:08.047Z,14,GR86-063-113,4.2,0.069,0.047,99.72,5.0,,0.0,0.0,196.85
2025-08-15T03:47:08.090Z,14,GR86-063-113,4.2,0.069,0.047,99.71,5.0,,0.0,0.0,
2025-08-15T03:47:08.134Z,14,GR86-063-113,3.9,0.054,0.031,99.73,5.0,,0.0,0.0,
2025-08-15T03:47:08.177Z,14,GR86-063-113,3.6,0.054,0.006,99.72,5.0,,0.0,0.0,
2025-08-15T03:47:08.220Z,14,GR86-063-113,3.5,0.058,-0.018,99.71,5.0,6710.0,0.0,0.0,
2025-08-15T03:47:08.264Z,14,GR86-063-113,3.5,0.075,-0.04,99.71,5.0,,0.0,0.0,197.53
2025-08-15T03:47:08.307Z,14,GR86-063-113,3.4000000000000004,0.063,-0.037,99.72,5.0,,0.0,0.0,
2025-08-15T03:47:08.350Z,14,GR86-063-113,3.4000000000000004,0.078,-0.065,99.71,5.0,,0.0,0.0,
2025-08-15T03:47:08.394Z,14,GR86-063-113,3.2,0.051,-0.078,99.72,5.0,,0.0,0.0,
2025-08-15T03:47:08.436Z,14,GR86-063-113,3.2,0.064,-0.085,99.72,5.0,6735.0,0.0,0.0,
2025-08-15T03:47:08.479Z,14,GR86-063-113,3.2,0.072,-0.073,99.72,5.0,,0.0,0.0,198.19
2025-08-15T03:47:08.526Z,14,GR86-063-113,3.3000000000000003,0.066,-0.086,99.74,5.0,,0.0,0.0,
2025-08-15T03:47:08.569Z,14,GR86-063-113,3.4000000000000004,0.089,-0.107,99.73,5.0,,0.0,0.0,
2025-08-15T03:47:08.615Z,14,GR86-063-113,3.4000000000000004,0.063,-0.102,99.72,5.0,,0.0,0.0,
2025-08-15T03:47:08.658Z,14,GR86-063-113,3.4000000000000004,0.057,-0.086,99.73,5.0,6752.0,0.0,0.0,
2025-08-15T03:47:08.701Z,14,GR86-063-113,3.4000000000000004,0.087,-0.074,99.71,5.0,,0.0,0.0,198.59
2025-08-15T03:47:08.744Z,14,GR86-063-113,3.5,0.079,-0.097,99.71,5.0,,0.0,0.0,
2025-08-15T03:47:08.787Z,14,GR86-063-113,3.7,0.076,-0.076,99.72,5.0,,0.0,0.0,
2025-08-15T03:47:08.830Z,14,GR86-063-113,3.7,0.082,-0.072,99.72,5.0,,0.0,0.0,
2025-08-15T03:47:08.874Z,14,GR86-063-113,3.5,0.066,-0.081,99.72,5.0,6780.0,0.0,0.0,
2025-08-15T03:47:08.917Z,14,GR86-063-113,3.5,0.064,-0.074,99.72,5.0,,0.0,0.0,199.26
2025-08-15T03:47:08.960Z,14,GR86-063-113,3.5,0.067,-0.072,99.72,5.0,,0.0,0.0,
2025-08-15T03:47:09.004Z,14,GR86-063-113,3.5,0.064,-0.064,99.71,5.0,,0.0,0.0,
2025-08-15T03:47:09.047Z,14,GR86-063-113,3.5,0.07,-0.049,99.72,5.0,,0.0,0.0,
2025-08-15T03:47:09.090Z,14,GR86-063-113,3.6,0.055,-0.057,99.72,5.0,6797.0,0.0,0.0,
2025-08-15T03:47:09.134Z,14,GR86-063-113,3.8,0.079,-0.058,99.72,5.0,,0.0,0.0,199.98
2025-08-15T03:47:09.177Z,14,GR86-063-113,3.9,0.083,-0.075,99.71,5.0,,0.0,0.0,
2025-08-15T03:47:09.220Z,14,GR86-063-113,3.9,0.06,-0.056,99.73,5.0,,0.0,0.0,
2025-08-15T03:47:09.264Z,14,GR86-063-113,4.1000000000000005,0.064,-0.04,99.74,5.0,,0.0,0.0,
2025-08-15T03:47:09.307Z,14,GR86-063-113,4.1000000000000005,0.051,-0.045,99.71,5.0,6820.0,0.0,0.0,
2025-08-15T03:47:09.350Z,14,GR86-063-113,4.2,0.059,-0.028,99.72,5.0,,0.0,0.0,200.52
2025-08-15T03:47:09.394Z,14,GR86-063-113,4.2,0.073,-0.041,99.73,5.0,,0.0,0.0,
2025-08-15T03:47:09.437Z,14,GR86-063-113,4.2,0.07,-0.027,99.71,5.0,,0.0,0.0,
2025-08-15T03:47:09.480Z,14,GR86-063-113,4.2,0.071,-0.037,99.71,5.0,,0.0,0.0,
2025-08-15T03:47:09.526Z,14,GR86-063-113,4.4,0.037,-0.014,99.72,5.0,6843.0,0.0,0.0,
2025-08-15T03:47:09.569Z,14,GR86-063-113,4.7,0.048,-0.012,99.72,5.0,,0.0,0.0,201.27
2025-08-15T03:47:09.614Z,14,GR86-063-113,5.300000000000001,0.069,0.017,99.72,5.0,,0.0,0.0,
2025-08-15T03:47:09.657Z,14,GR86-063-113,5.7,0.056,0.027,99.74,5.0,,0.0,0.0,
2025-08-15T03:47:09.700Z,14,GR86-063-113,6.300000000000001,0.041,0.039,99.73,5.0,,0.0,0.0,
2025-08-15T03:47:09.744Z,14,GR86-063-113,6.7,0.046,0.033,99.72,5.0,6873.0,0.0,0.0,
2025-08-15T03:47:09.786Z,14,GR86-063-113,7.0,0.07,0.063,99.73,5.0,,0.0,0.0,201.83
2025-08-15T03:47:09.829Z,14,GR86-063-113,7.1000000000000005,0.061,0.073,99.72,5.0,,0.0,0.0,
2025-08-15T03:47:09.874Z,14,GR86-063-113,7.5,0.046,0.105,99.72,5.0,,0.0,0.0,
2025-08-15T03:47:09.917Z,14,GR86-063-113,7.800000000000001,0.052,0.107,99.72,5.0,,0.0,0.0,
2025-08-15T03:47:09.960Z,14,GR86-063-113,8.0,0.053,0.129,99.73,5.0,6874.0,0.0,0.0,
2025-08-15T03:47:10.004Z,14,GR86-063-113,8.200000000000001,0.07,0.113,99.72,5.0,,0.0,0.0,202.59
2025-08-15T03:47:10.047Z,14,GR86-063-113,8.3,0.079,0.114,99.73,5.0,,0.0,0.0,
2025-08-15T03:47:10.090Z,14,GR86-063-113,8.5,0.066,0.122,99.71,5.0,,0.0,0.0,
2025-08-15T03:47:10.134Z,14,GR86-063-113,8.9,0.07,0.16,99.71,5.0,,0.0,0.0,
2025-08-15T03:47:10.177Z,14,GR86-063-113,9.3,0.058,0.158,99.72,5.0,6904.0,0.0,0.0,
2025-08-15T03:47:10.220Z,14,GR86-063-113,9.7,0.058,0.182,99.73,5.0,,0.0,0.0,203.73
2025-08-15T03:47:10.265Z,14,GR86-063-113,10.1,0.082,0.183,99.72,5.0,,0.0,0.0,
2025-08-15T03:47:10.308Z,14,GR86-063-113,10.3,0.04,0.216,99.74,5.0,,0.0,0.0,
2025-08-15T03:47:10.351Z,14,GR86-063-113,10.5,0.082,0.207,99.72,5.0,,0.0,0.0,
2025-08-15T03:47:10.394Z,14,GR86-063-113,10.8,0.075,0.213,99.73,5.0,6921.0,0.0,0.0,
2025-08-15T03:47:10.437Z,14,GR86-063-113,10.9,0.055,0.245,99.72,5.0,,0.0,0.0,204.35
2025-08-15T03:47:10.480Z,14,GR86-063-113,10.9,0.057,0.243,99.74,5.0,,0.0,0.0,
2025-08-15T03:47:10.526Z,14,GR86-063-113,10.9,0.045,0.26,99.74,5.0,,0.0,0.0,
2025-08-15T03:47:10.569Z,14,GR86-063-113,11.0,0.045,0.271,99.73,5.0,,0.0,0.0,
2025-08-15T03:47:10.614Z,14,GR86-063-113,11.3,0.048,0.242,99.72,5.0,6971.0,0.0,0.0,
2025-08-15T03:47:10.657Z,14,GR86-063-113,11.6,0.048,0.227,99.71,5.0,,0.0,0.0,204.86
2025-08-15T03:47:10.700Z,14,GR86-063-113,11.8,0.045,0.231,99.72,5.0,,0.0,0.0,
2025-08-15T03:47:10.744Z,14,GR86-063-113,11.9,0.061,0.288,99.72,5.0,,0.0,0.0,
2025-08-15T03:47:10.786Z,14,GR86-063-113,11.9,0.074,0.321,99.72,5.0,,0.0,0.0,
2025-08-15T03:47:10.829Z,14,GR86-063-113,12.0,0.067,0.339,99.73,5.0,6995.0,0.0,0.0,
2025-08-15T03:47:10.874Z,14,GR86-063-113,12.3,0.058,0.349,99.72,5.0,,0.0,0.0,205.33
2025-08-15T03:47:10.917Z,14,GR86-063-113,12.7,0.055,0.341,99.72,5.0,,0.0,0.0,
2025-08-15T03:47:10.960Z,14,GR86-063-113,12.8,0.073,0.345,99.72,5.0,,0.0,0.0,
2025-08-15T03:47:11.004Z,14,GR86-063-113,12.9,0.069,0.333,99.72,5.0,,0.0,0.0,
2025-08-15T03:47:11.047Z,14,GR86-063-113,13.1,0.056,0.311,99.72,5.0,7002.0,0.0,0.0,
2025-08-15T03:47:11.090Z,14,GR86-063-113,13.2,0.068,0.315,99.73,5.0,,0.0,0.0,206.07
2025-08-15T03:47:11.134Z,14,GR86-063-113,13.4,0.051,0.342,99.71,5.0,,0.0,0.0,
2025-08-15T03:47:11.177Z,14,GR86-063-113,13.5,0.065,0.344,99.72,5.0,,0.0,0.0,
2025-08-15T03:47:11.220Z,14,GR86-063-113,13.6,0.059,0.351,99.72,5.0,,0.0,0.0,
2025-08-15T03:47:11.264Z,14,GR86-063-113,13.6,0.049,0.374,99.73,5.0,7033.0,0.0,0.0,
2025-08-15T03:47:11.307Z,14,GR86-063-113,13.6,0.065,0.39,99.72,5.0,,0.0,0.0,206.63
2025-08-15T03:47:11.350Z,14,GR86-063-113,13.6,0.054,0.405,99.71,5.0,,0.0,0.0,
2025-08-15T03:47:11.394Z,14,GR86-063-113,13.8,0.058,0.395,99.72,5.0,,0.0,0.0,
2025-08-15T03:47:11.437Z,14,GR86-063-113,13.9,0.051,0.408,99.72,5.0,,0.0,0.0,
2025-08-15T03:47:11.480Z,14,GR86-063-113,14.2,0.055,0.398,99.71,5.0,7046.0,0.0,0.0,
2025-08-15T03:47:11.526Z,14,GR86-063-113,14.5,0.061,0.421,99.71,5.0,,0.0,0.0,207.19
2025-08-15T03:47:11.568Z,14,GR86-063-113,14.5,0.055,0.426,99.72,5.0,,0.0,0.0,
2025-08-15T03:47:11.611Z,14,GR86-063-113,14.2,0.062,0.433,99.72,5.0,,0.0,0.0,
2025-08-15T03:47:11.654Z,14,GR86-063-113,13.7,0.049,0.423,99.74,5.0,,0.0,0.0,
2025-08-15T03:47:11.697Z,14,GR86-063-113,13.6,0.059,0.412,99.71,5.0,7080.0,0.0,0.0,
2025-08-15T03:47:11.740Z,14,GR86-063-113,13.5,0.046,0.411,99.72,5.0,,0.0,0.0,207.61
2025-08-15T03:47:11.784Z,14,GR86-063-113,13.3,0.067,0.424,99.71,5.0,,0.0,0.0,
2025-08-15T03:47:11.827Z,14,GR86-063-113,13.2,0.051,0.449,99.71,5.0,,0.0,0.0,
2025-08-15T03:47:11.870Z,14,GR86-063-113,13.1,0.061,0.475,99.72,5.0,,0.0,0.0,
2025-08-15T03:47:11.915Z,14,GR86-063-113,13.1,0.054,0.469,99.72,5.0,7093.0,0.0,0.0,
2025-08-15T03:47:11.958Z,14,GR86-063-113,13.1,0.043,0.443,99.72,5.0,,0.0,0.0,208.14
2025-08-15T03:47:12.001Z,14,GR86-063-113,13.2,0.049,0.432,99.71,5.0,,0.0,0.0,
2025-08-15T03:47:12.044Z,14,GR86-063-113,13.3,0.051,0.388,99.72,5.0,,0.0,0.0,
2025-08-15T03:47:12.087Z,14,GR86-063-113,13.4,0.062,0.34,99.72,5.0,,0.0,0.0,
2025-08-15T03:47:12.130Z,14,GR86-063-113,13.4,0.038,0.305,99.71,5.0,7104.0,0.0,0.0,
2025-08-15T03:47:12.174Z,14,GR86-063-113,13.3,0.059,0.324,99.72,5.0,,0.0,0.0,209.06
2025-08-15T03:47:12.217Z,14,GR86-063-113,13.2,0.064,0.324,99.72,5.0,,0.0,0.0,
2025-08-15T03:47:12.260Z,14,GR86-063-113,13.1,0.049,0.343,99.72,5.0,,0.0,0.0,
2025-08-15T03:47:12.304Z,14,GR86-063-113,13.2,0.039,0.344,99.74,5.0,,0.0,0.0,
2025-08-15T03:47:12.346Z,14,GR86-063-113,13.2,0.04,0.366,99.72,5.0,7145.0,0.0,0.0,
2025-08-15T03:47:12.389Z,14,GR86-063-113,13.1,0.047,0.405,99.72,5.0,,0.0,0.0,209.51
2025-08-15T03:47:12.434Z,14,GR86-063-113,13.2,0.053,0.392,99.73,5.0,,0.0,0.0,
2025-08-15T03:47:12.476Z,14,GR86-063-113,13.2,0.048,0.394,99.72,5.0,,0.0,0.0,
2025-08-15T03:47:12.519Z,14,GR86-063-113,13.2,0.061,0.374,99.71,5.0,,0.0,0.0,
2025-08-15T03:47:12.564Z,14,GR86-063-113,13.0,0.061,0.366,99.72,5.0,7156.0,0.0,0.0,
2025-08-15T03:47:12.607Z,14,GR86-063-113,12.7,0.045,0.336,91.8,5.0,,3.815,4.0,210.26
2025-08-15T03:47:12.650Z,14,GR86-063-113,12.2,0.03,0.278,33.85,5.0,,8.700000000000001,8.88,
2025-08-15T03:47:12.694Z,14,GR86-063-113,11.8,-0.124,0.268,5.5600000000000005,5.0,,19.61,19.61,
2025-08-15T03:47:12.737Z,14,GR86-063-113,11.2,-0.372,0.235,5.16,5.0,,29.33,29.145,
2025-08-15T03:47:12.780Z,14,GR86-063-113,9.9,-0.724,0.253,4.84,5.0,7176.0,41.215,40.835,
2025-08-15T03:47:12.825Z,14,GR86-063-113,8.5,-0.937,0.186,4.4,5.0,,53.58,53.120000000000005,210.39
2025-08-15T03:47:12.868Z,14,GR86-063-113,7.300000000000001,-1.148,0.176,4.04,5.0,,63.865,63.255,
2025-08-15T03:47:12.911Z,14,GR86-063-113,6.5,-1.258,0.176,3.74,5.0,,71.02,72.12,
2025-08-15T03:47:12.957Z,14,GR86-063-113,5.7,-1.215,0.111,3.36,5.0,,76.3,77.37,
2025-08-15T03:47:13.000Z,14,GR86-063-113,5.300000000000001,-1.29,0.151,3.09,5.0,6809.0,77.52,77.995,
2025-08-15T03:47:13.044Z,14,GR86-063-113,5.300000000000001,-1.359,0.155,2.78,5.0,,79.075,79.93,203.84
2025-08-15T03:47:13.086Z,14,GR86-063-113,5.6000000000000005,-1.288,0.171,2.62,5.0,,79.75,80.77,
2025-08-15T03:47:13.129Z,14,GR86-063-113,6.0,-1.281,0.153,4.11,5.0,,80.22,80.8,
2025-08-15T03:47:13.174Z,14,GR86-063-113,6.0,-1.305,0.154,63.04,5.0,,78.865,78.925,
2025-08-15T03:47:13.217Z,14,GR86-063-113,6.1000000000000005,-1.257,0.152,52.22,4.0,6275.0,79.96000000000001,81.49,
2025-08-15T03:47:13.260Z,14,GR86-063-113,6.300000000000001,-1.321,0.106,3.35,4.0,,81.275,83.18,195.07
2025-08-15T03:47:13.304Z,14,GR86-063-113,6.300000000000001,-1.166,0.197,3.8,4.0,,82.08500000000001,84.235,
2025-08-15T03:47:13.347Z,14,GR86-063-113,6.2,-1.223,0.178,3.7,4.0,,79.81,80.08500000000001,
2025-08-15T03:47:13.390Z,14,GR86-063-113,6.1000000000000005,-1.251,0.198,3.54,4.0,,77.17,78.055,
2025-08-15T03:47:13.434Z,14,GR86-063-113,3.2,-1.229,0.268,3.29,4.0,6661.0,74.805,76.27,
2025-08-15T03:47:13.477Z,14,GR86-063-113,1.6,-1.2,0.376,3.1,4.0,,69.675,70.455,185.1
2025-08-15T03:47:13.520Z,14,GR86-063-113,0.2,-1.289,0.25,2.84,4.0,,67.05,68.245,
2025-08-15T03:47:13.565Z,14,GR86-063-113,-0.7000000000000001,-1.023,0.323,2.68,4.0,,64.49,65.33,
2025-08-15T03:47:13.607Z,14,GR86-063-113,-0.6000000000000001,-1.078,0.341,2.57,4.0,,61.82,62.75,
2025-08-15T03:47:13.650Z,14,GR86-063-113,-0.2,-1.101,0.203,2.5,4.0,6713.0,61.3,62.215,
2025-08-15T03:47:13.694Z,14,GR86-063-113,6.6000000000000005,-1.08,0.106,2.46,4.0,,60.95,61.45,180.19
2025-08-15T03:47:13.737Z,14,GR86-063-113,10.3,-1.085,0.128,2.47,4.0,,61.115,61.3,
2025-08-15T03:47:13.780Z,14,GR86-063-113,13.0,-1.059,0.107,2.46,4.0,,61.3,62.215,
2025-08-15T03:47:13.825Z,14,GR86-063-113,13.2,-1.089,0.088,4.01,4.0,,62.43,63.620000000000005,
2025-08-15T03:47:13.868Z,14,GR86-063-113,12.2,-1.082,0.066,42.0,4.0,6349.0,61.485,61.82,
2025-08-15T03:47:13.911Z,14,GR86-063-113,11.8,-1.215,0.025,86.14,4.0,,60.34,60.92,171.56
2025-08-15T03:47:13.954Z,14,GR86-063-113,11.2,-1.097,0.074,81.3,3.0,,58.965,59.36,
2025-08-15T03:47:13.997Z,14,GR86-063-113,10.6,-1.264,0.026,9.33,3.0,,57.15,57.775,
2025-08-15T03:47:14.040Z,14,GR86-063-113,9.8,-1.116,0.202,3.0700000000000003,3.0,,56.995000000000005,58.4,
2025-08-15T03:47:14.084Z,14,GR86-063-113,9.4,-0.925,0.06,2.95,3.0,6688.0,54.98,55.775,
2025-08-15T03:47:14.126Z,14,GR86-063-113,9.2,-1.32,0.219,2.87,3.0,,52.645,53.15,165.11
2025-08-15T03:47:14.169Z,14,GR86-063-113,7.800000000000001,-1.066,0.243,2.81,3.0,,52.370000000000005,53.93,
2025-08-15T03:47:14.214Z,14,GR86-063-113,5.800000000000001,-1.048,0.154,2.72,3.0,,50.68,51.03,
2025-08-15T03:47:14.257Z,14,GR86-063-113,5.1000000000000005,-1.026,0.178,2.69,3.0,,50.555,51.0,
2025-08-15T03:47:14.300Z,14,GR86-063-113,4.9,-1.018,0.074,2.65,3.0,7099.0,50.615,51.03,
2025-08-15T03:47:14.344Z,14,GR86-063-113,5.1000000000000005,-1.004,0.145,2.63,3.0,,50.875,51.365,158.63
2025-08-15T03:47:14.386Z,14,GR86-063-113,6.0,-1.062,0.145,2.59,3.0,,51.335,51.96,
2025-08-15T03:47:14.429Z,14,GR86-063-113,8.6,-1.129,0.155,2.57,3.0,,51.565,51.99,
2025-08-15T03:47:14.474Z,14,GR86-063-113,11.6,-1.061,0.194,2.5500000000000003,3.0,,52.02,52.495000000000005,
2025-08-15T03:47:14.517Z,14,GR86-063-113,12.0,-1.058,0.182,2.52,3.0,6644.0,51.685,52.31,
2025-08-15T03:47:14.560Z,14,GR86-063-113,11.8,-1.069,0.189,2.52,3.0,,51.595,52.22,151.27
2025-08-15T03:47:14.604Z,14,GR86-063-113,11.5,-1.047,0.197,14.28,3.0,,50.71,51.655,
2025-08-15T03:47:14.647Z,14,GR86-063-113,11.2,-1.037,0.203,56.93,3.0,,48.555,50.1,
2025-08-15T03:47:14.690Z,14,GR86-063-113,10.0,-1.021,0.217,97.77,3.0,,46.59,47.96,
2025-08-15T03:47:14.734Z,14,GR86-063-113,9.5,-0.934,0.175,80.65,2.0,6361.0,45.935,46.955,
2025-08-15T03:47:14.777Z,14,GR86-063-113,9.7,-1.199,0.152,8.85,2.0,,46.055,46.71,144.72
2025-08-15T03:47:14.820Z,14,GR86-063-113,9.8,-1.109,0.292,3.11,2.0,,47.155,48.48,
2025-08-15T03:47:14.864Z,14,GR86-063-113,10.2,-0.938,0.162,2.98,2.0,,47.84,48.33,
2025-08-15T03:47:14.907Z,14,GR86-063-113,11.1,-1.181,0.317,2.88,2.0,,48.36,49.045,
2025-08-15T03:47:14.950Z,14,GR86-063-113,11.0,-1.032,0.365,2.81,2.0,6898.0,50.31,51.395,
2025-08-15T03:47:14.994Z,14,GR86-063-113,10.8,-1.062,0.319,2.75,2.0,,51.745000000000005,51.96,138.1
2025-08-15T03:47:15.037Z,14,GR86-063-113,10.8,-1.04,0.33,2.68,2.0,,53.03,53.485,
2025-08-15T03:47:15.080Z,14,GR86-063-113,10.8,-1.073,0.207,2.65,2.0,,54.205,54.325,
2025-08-15T03:47:15.126Z,14,GR86-063-113,10.8,-1.063,0.323,2.6,2.0,,55.365,55.715,
2025-08-15T03:47:15.168Z,14,GR86-063-113,11.0,-1.063,0.297,2.59,2.0,7142.0,56.185,56.78,
2025-08-15T03:47:15.211Z,14,GR86-063-113,14.6,-1.119,0.246,2.5500000000000003,2.0,,56.905,56.965,131.52
2025-08-15T03:47:15.257Z,14,GR86-063-113,19.9,-1.102,0.34,2.54,2.0,,57.65,57.925,
2025-08-15T03:47:15.300Z,14,GR86-063-113,23.6,-1.09,0.373,18.42,1.0,,58.28,58.735,
2025-08-15T03:47:15.344Z,14,GR86-063-113,24.5,-1.088,0.433,54.56,1.0,,58.645,59.085,
2025-08-15T03:47:15.386Z,14,GR86-063-113,24.6,-1.206,0.394,7.87,1.0,6741.0,58.965,59.620000000000005,
2025-08-15T03:47:15.430Z,14,GR86-063-113,24.5,-1.088,0.49,4.37,1.0,,60.4,61.88,117.58
2025-08-15T03:47:15.474Z,14,GR86-063-113,25.3,-1.135,0.594,4.07,1.0,,59.835,60.26,
2025-08-15T03:47:15.517Z,14,GR86-063-113,26.700000000000003,-1.093,0.5750000000000001,3.86,1.0,,59.18,60.2,
2025-08-15T03:47:15.560Z,14,GR86-063-113,28.5,-1.12,0.6910000000000001,3.64,1.0,,59.895,61.175,
2025-08-15T03:47:15.604Z,14,GR86-063-113,32.4,-0.806,1.013,3.3000000000000003,1.0,6466.0,58.215,59.515,
2025-08-15T03:47:15.647Z,14,GR86-063-113,35.0,-1.021,0.846,2.93,1.0,,56.905,58.370000000000005,111.53
2025-08-15T03:47:15.690Z,14,GR86-063-113,37.3,-0.776,1.018,2.62,1.0,,56.095,57.41,
2025-08-15T03:47:15.734Z,14,GR86-063-113,41.900000000000006,-0.85,1.115,2.49,1.0,,52.8,53.09,
2025-08-15T03:47:15.777Z,14,GR86-063-113,42.0,-0.782,1.219,2.46,1.0,,48.955,50.07,
2025-08-15T03:47:15.820Z,14,GR86-063-113,42.900000000000006,-0.717,1.116,2.46,1.0,6789.0,46.24,47.46,
2025-08-15T03:47:15.864Z,14,GR86-063-113,47.6,-0.764,1.076,2.45,1.0,,47.305,48.59,104.44
2025-08-15T03:47:15.907Z,14,GR86-063-113,57.0,-0.8160000000000001,1.178,2.44,1.0,,48.955,49.825,
2025-08-15T03:47:15.950Z,14,GR86-063-113,64.2,-0.883,1.151,2.45,1.0,,48.3,48.59,
2025-08-15T03:47:15.994Z,14,GR86-063-113,70.4,-0.534,1.263,2.44,1.0,,42.65,43.615,
2025-08-15T03:47:16.037Z,14,GR86-063-113,72.10000000000001,-0.683,1.137,2.46,1.0,6519.0,34.52,35.375,
2025-08-15T03:47:16.080Z,14,GR86-063-113,72.10000000000001,-0.547,1.101,2.45,1.0,,28.125,29.055,98.15
2025-08-15T03:47:16.125Z,14,GR86-063-113,71.60000000000001,-0.551,1.128,2.44,1.0,,21.93,22.495,
2025-08-15T03:47:16.168Z,14,GR86-063-113,64.0,-0.651,1.05,2.47,1.0,,18.085,18.77,
2025-08-15T03:47:16.211Z,14,GR86-063-113,49.8,-0.406,1.216,2.46,1.0,,14.575,15.365,
2025-08-15T03:47:16.254Z,14,GR86-063-113,38.2,-0.383,1.099,2.46,1.0,6221.0,7.615,8.395,
2025-08-15T03:47:16.297Z,14,GR86-063-113,37.2,-0.415,1.19,2.47,1.0,,5.495,6.09,93.32
2025-08-15T03:47:16.340Z,14,GR86-063-113,39.2,-0.297,1.157,2.46,1.0,,4.5,5.25,
2025-08-15T03:47:16.384Z,14,GR86-063-113,39.400000000000006,-0.272,1.184,2.46,1.0,,3.875,4.47,
2025-08-15T03:47:16.427Z,14,GR86-063-113,32.4,-0.259,1.27,2.46,1.0,,3.815,4.44,
2025-08-15T03:47:16.470Z,14,GR86-063-113,18.4,-0.277,1.219,2.46,1.0,6126.0,4.18,4.625,
2025-08-15T03:47:16.514Z,14,GR86-063-113,-12.4,-0.238,1.205,2.45,1.0,,5.11,5.25,90.63
2025-08-15T03:47:16.557Z,14,GR86-063-113,-35.2,-0.247,1.105,2.47,1.0,,6.425,6.715,
2025-08-15T03:47:16.600Z,14,GR86-063-113,-51.3,-0.23,0.964,2.46,1.0,,7.890000000000001,8.425,
2025-08-15T03:47:16.644Z,14,GR86-063-113,-54.8,-0.294,0.859,2.47,1.0,,9.31,9.43,
2025-08-15T03:47:16.686Z,14,GR86-063-113,-41.6,-0.26,0.891,2.47,1.0,5982.0,10.085,10.5,
2025-08-15T03:47:16.729Z,14,GR86-063-113,-23.8,-0.325,1.054,2.47,1.0,,10.24,10.745,88.57000000000001
2025-08-15T03:47:16.774Z,14,GR86-063-113,-8.200000000000001,-0.227,1.186,2.48,1.0,,9.75,10.5,
2025-08-15T03:47:16.817Z,14,GR86-063-113,-1.9,-0.236,1.17,2.47,1.0,,9.065,9.75,
2025-08-15T03:47:16.860Z,14,GR86-063-113,2.2,-0.266,1.271,2.48,1.0,,7.98,8.635,
2025-08-15T03:47:16.904Z,14,GR86-063-113,2.5,-0.32,1.31,2.48,1.0,5738.0,5.8,6.515000000000001,
2025-08-15T03:47:16.947Z,14,GR86-063-113,-6.1000000000000005,-0.252,1.292,2.48,1.0,,2.455,3.1,85.69
2025-08-15T03:47:16.990Z,14,GR86-063-113,-20.3,-0.143,1.239,2.48,1.0,,0.0,0.0,
2025-08-15T03:47:17.034Z,14,GR86-063-113,-28.8,-0.171,1.051,2.48,1.0,,0.0,0.0,
2025-08-15T03:47:17.077Z,14,GR86-063-113,-21.1,-0.163,0.959,2.47,1.0,,0.0,0.0,
2025-08-15T03:47:17.120Z,14,GR86-063-113,-2.6,-0.17,1.0,2.5,1.0,5508.0,0.0,0.0,
2025-08-15T03:47:17.165Z,14,GR86-063-113,18.0,-0.188,1.352,2.87,1.0,,0.0,0.0,82.92
2025-08-15T03:47:17.208Z,14,GR86-063-113,36.5,-0.151,1.216,3.98,1.0,,0.0,0.0,
2025-08-15T03:47:17.251Z,14,GR86-063-113,51.0,-0.103,1.253,4.5600000000000005,1.0,,0.0,0.0,
2025-08-15T03:47:17.294Z,14,GR86-063-113,65.9,-0.139,1.079,8.48,1.0,,0.0,0.0,
2025-08-15T03:47:17.337Z,14,GR86-063-113,72.2,-0.199,1.258,17.95,1.0,5513.0,0.0,0.0,
2025-08-15T03:47:17.380Z,14,GR86-063-113,75.60000000000001,-0.238,1.373,20.56,1.0,,0.0,0.0,80.99
2025-08-15T03:47:17.425Z,14,GR86-063-113,77.4,-0.182,1.323,22.67,1.0,,0.0,0.0,
2025-08-15T03:47:17.468Z,14,GR86-063-113,77.60000000000001,-0.219,1.432,25.78,1.0,,0.0,0.0,
2025-08-15T03:47:17.511Z,14,GR86-063-113,78.0,-0.127,1.55,29.1,1.0,,0.0,0.0,
2025-08-15T03:47:17.554Z,14,GR86-063-113,78.7,-0.117,1.324,33.89,1.0,5431.0,0.0,0.0,
2025-08-15T03:47:17.597Z,14,GR86-063-113,78.5,0.145,1.293,38.43,1.0,,0.0,0.0,78.64
2025-08-15T03:47:17.640Z,14,GR86-063-113,69.10000000000001,0.169,1.154,55.49,1.0,,0.0,0.0,
2025-08-15T03:47:17.684Z,14,GR86-063-113,50.6,0.245,1.195,89.16,1.0,,0.0,0.0,
2025-08-15T03:47:17.726Z,14,GR86-063-113,31.6,0.289,1.257,99.35,1.0,,0.0,0.0,
2025-08-15T03:47:17.769Z,14,GR86-063-113,19.3,0.325,1.144,99.7,1.0,5944.0,0.0,0.0,
2025-08-15T03:47:17.814Z,14,GR86-063-113,16.8,0.351,1.117,99.71,1.0,,0.0,0.0,76.86
2025-08-15T03:47:17.857Z,14,GR86-063-113,17.5,0.357,1.09,99.71,1.0,,0.0,0.0,
2025-08-15T03:47:17.900Z,14,GR86-063-113,7.2,0.366,1.131,99.72,1.0,,0.0,0.0,
2025-08-15T03:47:17.944Z,14,GR86-063-113,-11.1,0.376,0.995,99.7,1.0,,0.0,0.0,
2025-08-15T03:47:17.986Z,14,GR86-063-113,-23.6,0.351,0.921,99.71,1.0,6123.0,0.0,0.0,
2025-08-15T03:47:18.029Z,14,GR86-063-113,-25.700000000000003,0.385,0.8300000000000001,99.72,1.0,,0.0,0.0,78.16
2025-08-15T03:47:18.074Z,14,GR86-063-113,-10.3,0.408,0.876,99.72,1.0,,0.0,0.0,
2025-08-15T03:47:18.117Z,14,GR86-063-113,1.9,0.388,0.922,99.71,1.0,,0.0,0.0,
2025-08-15T03:47:18.160Z,14,GR86-063-113,8.9,0.412,0.958,99.71,1.0,,0.0,0.0,
2025-08-15T03:47:18.204Z,14,GR86-063-113,17.1,0.412,0.977,99.72,1.0,6292.0,0.0,0.0,
2025-08-15T03:47:18.247Z,14,GR86-063-113,28.200000000000003,0.414,0.95,99.71,1.0,,0.0,0.0,79.63
2025-08-15T03:47:18.290Z,14,GR86-063-113,40.5,0.396,0.949,99.71,1.0,,0.0,0.0,
2025-08-15T03:47:18.334Z,14,GR86-063-113,54.0,0.388,1.026,99.71,1.0,,0.0,0.0,
2025-08-15T03:47:18.377Z,14,GR86-063-113,58.400000000000006,0.364,0.96,99.71,1.0,,0.0,0.0,
2025-08-15T03:47:18.420Z,14,GR86-063-113,59.7,0.367,0.902,99.72,1.0,6313.0,0.0,0.0,
2025-08-15T03:47:18.464Z,14,GR86-063-113,59.900000000000006,0.353,0.921,99.71,1.0,,0.0,0.0,81.03
2025-08-15T03:47:18.507Z,14,GR86-063-113,59.6,0.34,0.912,99.71,1.0,,0.0,0.0,
2025-08-15T03:47:18.550Z,14,GR86-063-113,57.3,0.322,0.872,99.71,1.0,,0.0,0.0,
2025-08-15T03:47:18.595Z,14,GR86-063-113,53.3,0.329,0.842,99.73,1.0,,0.0,0.0,
2025-08-15T03:47:18.637Z,14,GR86-063-113,52.8,0.33,0.8290000000000001,99.72,1.0,6465.0,0.0,0.0,
2025-08-15T03:47:18.680Z,14,GR86-063-113,52.900000000000006,0.356,0.8250000000000001,99.71,1.0,,0.0,0.0,84.45
2025-08-15T03:47:18.725Z,14,GR86-063-113,53.3,0.343,0.804,99.73,1.0,,0.0,0.0,
2025-08-15T03:47:18.768Z,14,GR86-063-113,54.0,0.351,0.776,99.74,1.0,,0.0,0.0,
2025-08-15T03:47:18.811Z,14,GR86-063-113,54.3,0.35,0.8260000000000001,99.74,1.0,,0.0,0.0,
2025-08-15T03:47:18.854Z,14,GR86-063-113,54.2,0.295,0.808,99.72,1.0,6634.0,0.0,0.0,
2025-08-15T03:47:18.897Z,14,GR86-063-113,51.5,0.302,0.798,99.74,1.0,,0.0,0.0,87.01
2025-08-15T03:47:18.940Z,14,GR86-063-113,48.900000000000006,0.346,0.64,99.73,1.0,,0.0,0.0,
2025-08-15T03:47:18.984Z,14,GR86-063-113,46.7,0.275,0.6930000000000001,99.73,1.0,,0.0,0.0,
2025-08-15T03:47:19.026Z,14,GR86-063-113,44.5,0.316,0.757,99.74,1.0,,0.0,0.0,
2025-08-15T03:47:19.069Z,14,GR86-063-113,42.7,0.356,0.6920000000000001,99.74,1.0,6843.0,0.0,0.0,
2025-08-15T03:47:19.115Z,14,GR86-063-113,40.3,0.282,0.668,99.75,1.0,,0.0,0.0,89.21000000000001
2025-08-15T03:47:19.157Z,14,GR86-063-113,38.1,0.421,0.545,99.74,1.0,,0.0,0.0,
2025-08-15T03:47:19.200Z,14,GR86-063-113,36.2,0.316,0.514,99.75,1.0,,0.0,0.0,
2025-08-15T03:47:19.244Z,14,GR86-063-113,34.6,0.259,0.493,99.73,1.0,,0.0,0.0,
2025-08-15T03:47:19.286Z,14,GR86-063-113,34.0,0.176,0.36,99.75,1.0,7070.0,0.0,0.0,
2025-08-15T03:47:19.329Z,14,GR86-063-113,34.6,0.25,0.536,99.75,1.0,,0.0,0.0,91.0
2025-08-15T03:47:19.374Z,14,GR86-063-113,35.6,0.181,0.153,99.74,1.0,,0.0,0.0,
2025-08-15T03:47:19.417Z,14,GR86-063-113,35.800000000000004,0.001,0.399,99.74,1.0,,0.0,0.0,
2025-08-15T03:47:19.460Z,14,GR86-063-113,34.5,0.124,0.746,99.75,1.0,,0.0,0.0,
2025-08-15T03:47:19.504Z,14,GR86-063-113,32.300000000000004,0.354,0.8170000000000001,99.76,1.0,7244.0,0.0,0.0,
2025-08-15T03:47:19.547Z,14,GR86-063-113,28.200000000000003,-0.035,0.812,99.74,2.0,,0.0,0.0,92.79
2025-08-15T03:47:19.590Z,14,GR86-063-113,26.4,0.467,0.917,99.75,2.0,,0.0,0.0,
2025-08-15T03:47:19.634Z,14,GR86-063-113,22.1,0.673,0.935,99.75,2.0,,0.0,0.0,
2025-08-15T03:47:19.676Z,14,GR86-063-113,17.8,0.811,1.0,99.75,2.0,,0.0,0.0,
2025-08-15T03:47:19.719Z,14,GR86-063-113,16.400000000000002,0.464,1.068,99.76,2.0,6622.0,0.0,0.0,
2025-08-15T03:47:19.764Z,14,GR86-063-113,14.9,0.093,0.856,99.77,2.0,,0.0,0.0,94.74
2025-08-15T03:47:19.807Z,14,GR86-063-113,14.8,0.065,0.45,99.75,2.0,,0.0,0.0,
2025-08-15T03:47:19.850Z,14,GR86-063-113,17.0,0.037,0.278,99.74,2.0,,0.0,0.0,
2025-08-15T03:47:19.936Z,14,GR86-063-113,22.200000000000003,0.015,0.282,99.75,2.0,5692.0,0.0,0.0,
2025-08-15T03:47:19.979Z,14,GR86-063-113,22.200000000000003,-0.104,0.345,99.75,2.0,,0.0,0.0,97.65
2025-08-15T03:47:20.023Z,14,GR86-063-113,20.200000000000003,0.142,0.025,99.74,2.0,,0.0,0.0,
2025-08-15T03:47:20.068Z,14,GR86-063-113,18.3,0.333,0.15,99.75,2.0,,0.0,0.0,
2025-08-15T03:47:20.111Z,14,GR86-063-113,16.5,0.378,0.18,99.76,2.0,,0.0,0.0,
2025-08-15T03:47:20.154Z,14,GR86-063-113,12.1,-0.264,0.117,99.75,2.0,6047.0,0.0,0.0,
2025-08-15T03:47:20.197Z,14,GR86-063-113,9.9,0.203,0.198,99.75,2.0,,0.0,0.0,98.12
2025-08-15T03:47:20.240Z,14,GR86-063-113,9.7,0.4,0.191,99.75,2.0,,0.0,0.0,
2025-08-15T03:47:20.284Z,14,GR86-063-113,12.3,0.267,0.255,99.75,2.0,,0.0,0.0,
2025-08-15T03:47:20.327Z,14,GR86-063-113,15.3,0.084,0.22,99.77,2.0,,0.0,0.0,
2025-08-15T03:47:20.370Z,14,GR86-063-113,18.2,0.184,0.199,99.75,2.0,6257.0,0.0,0.0,
2025-08-15T03:47:20.414Z,14,GR86-063-113,20.200000000000003,-0.052,0.017,99.76,2.0,,0.0,0.0,102.72
2025-08-15T03:47:20.457Z,14,GR86-063-113,20.1,-0.195,0.034,99.76,2.0,,0.0,0.0,
2025-08-15T03:47:20.500Z,14,GR86-063-113,17.7,0.131,0.101,99.74,2.0,,0.0,0.0,
2025-08-15T03:47:20.544Z,14,GR86-063-113,14.2,0.381,0.066,99.75,2.0,,0.0,0.0,
2025-08-15T03:47:20.586Z,14,GR86-063-113,11.0,0.523,0.151,99.74,2.0,6098.0,0.0,0.0,
2025-08-15T03:47:20.629Z,14,GR86-063-113,8.9,0.542,0.175,99.74,2.0,,0.0,0.0,103.39
2025-08-15T03:47:20.674Z,14,GR86-063-113,8.1,0.114,0.167,99.75,2.0,,0.0,0.0,
2025-08-15T03:47:20.717Z,14,GR86-063-113,8.200000000000001,0.102,0.183,99.74,2.0,,0.0,0.0,
2025-08-15T03:47:20.760Z,14,GR86-063-113,8.1,0.007,0.1,99.74,2.0,,0.0,0.0,
2025-08-15T03:47:20.804Z,14,GR86-063-113,7.300000000000001,0.055,0.173,99.75,2.0,6297.0,0.0,0.0,
2025-08-15T03:47:20.847Z,14,GR86-063-113,4.9,0.043,0.048,99.76,2.0,,0.0,0.0,105.85
2025-08-15T03:47:20.890Z,14,GR86-063-113,2.4000000000000004,0.157,0.022,99.74,2.0,,0.0,0.0,
2025-08-15T03:47:20.934Z,14,GR86-063-113,0.9,0.481,-0.119,99.75,2.0,,0.0,0.0,
2025-08-15T03:47:20.977Z,14,GR86-063-113,1.4,0.319,-0.033,99.75,2.0,,0.0,0.0,
2025-08-15T03:47:21.020Z,14,GR86-063-113,3.5,0.269,-0.098,99.74,2.0,6312.0,0.0,0.0,
2025-08-15T03:47:21.065Z,14,GR86-063-113,6.5,0.209,0.0,99.74,2.0,,0.0,0.0,107.38
2025-08-15T03:47:21.107Z,14,GR86-063-113,8.4,0.256,-0.068,99.75,2.0,,0.0,0.0,
2025-08-15T03:47:21.150Z,14,GR86-063-113,9.5,0.209,-0.024,99.75,2.0,,0.0,0.0,
2025-08-15T03:47:21.194Z,14,GR86-063-113,9.8,0.345,-0.071,99.75,2.0,,0.0,0.0,
2025-08-15T03:47:21.237Z,14,GR86-063-113,9.5,0.337,-0.043,99.76,2.0,6369.0,0.0,0.0,
2025-08-15T03:47:21.280Z,14,GR86-063-113,9.5,0.321,-0.041,99.74,2.0,,0.0,0.0,109.25
2025-08-15T03:47:21.326Z,14,GR86-063-113,9.3,0.353,-0.001,99.75,2.0,,0.0,0.0,
2025-08-15T03:47:21.368Z,14,GR86-063-113,9.0,0.355,0.062,99.75,2.0,,0.0,0.0,
2025-08-15T03:47:21.411Z,14,GR86-063-113,8.0,0.35,0.057,99.74,2.0,,0.0,0.0,
2025-08-15T03:47:21.454Z,14,GR86-063-113,6.6000000000000005,0.267,0.115,99.74,2.0,6455.0,0.0,0.0,
2025-08-15T03:47:21.497Z,14,GR86-063-113,6.300000000000001,0.315,0.056,99.75,2.0,,0.0,0.0,110.84
2025-08-15T03:47:21.540Z,14,GR86-063-113,6.0,0.274,0.015,99.75,2.0,,0.0,0.0,
2025-08-15T03:47:21.583Z,14,GR86-063-113,5.1000000000000005,0.269,-0.005,99.74,2.0,,0.0,0.0,
2025-08-15T03:47:21.626Z,14,GR86-063-113,4.4,0.213,-0.076,99.77,2.0,,0.0,0.0,
2025-08-15T03:47:21.669Z,14,GR86-063-113,4.4,0.239,-0.059,99.76,2.0,6477.0,0.0,0.0,
2025-08-15T03:47:21.714Z,14,GR86-063-113,4.800000000000001,0.293,-0.033,99.74,2.0,,0.0,0.0,112.33
2025-08-15T03:47:21.757Z,14,GR86-063-113,4.800000000000001,0.298,-0.022,99.76,2.0,,0.0,0.0,
2025-08-15T03:47:21.800Z,14,GR86-063-113,4.800000000000001,0.252,-0.016,99.75,2.0,,0.0,0.0,
2025-08-15T03:47:21.844Z,14,GR86-063-113,4.6000000000000005,0.265,-0.012,99.74,2.0,,0.0,0.0,
2025-08-15T03:47:21.886Z,14,GR86-063-113,4.1000000000000005,0.248,-0.038,99.75,2.0,6583.0,0.0,0.0,
2025-08-15T03:47:21.929Z,14,GR86-063-113,3.7,0.231,-0.027,99.75,2.0,,0.0,0.0,113.91
2025-08-15T03:47:21.974Z,14,GR86-063-113,2.8000000000000003,0.266,-0.02,99.75,2.0,,0.0,0.0,
2025-08-15T03:47:22.017Z,14,GR86-063-113,2.2,0.299,-0.042,99.75,2.0,,0.0,0.0,
2025-08-15T03:47:22.060Z,14,GR86-063-113,1.9,0.255,-0.049,99.76,2.0,,0.0,0.0,
2025-08-15T03:47:22.104Z,14,GR86-063-113,1.7000000000000002,0.25,-0.071,99.75,2.0,6705.0,0.0,0.0,
2025-08-15T03:47:22.146Z,14,GR86-063-113,1.6,0.272,-0.103,99.77,2.0,,0.0,0.0,115.52
2025-08-15T03:47:22.189Z,14,GR86-063-113,1.4,0.253,-0.104,99.75,2.0,,0.0,0.0,
2025-08-15T03:47:22.234Z,14,GR86-063-113,1.3,0.246,-0.101,99.73,2.0,,0.0,0.0,
2025-08-15T03:47:22.277Z,14,GR86-063-113,1.4,0.272,-0.08,99.75,2.0,,0.0,0.0,
2025-08-15T03:47:22.320Z,14,GR86-063-113,1.6,0.274,-0.101,99.74,2.0,6774.0,0.0,0.0,
2025-08-15T03:47:22.364Z,14,GR86-063-113,1.6,0.246,-0.096,99.77,2.0,,0.0,0.0,117.0
2025-08-15T03:47:22.407Z,14,GR86-063-113,1.7000000000000002,0.261,-0.081,99.76,2.0,,0.0,0.0,
2025-08-15T03:47:22.450Z,14,GR86-063-113,1.6,0.279,-0.094,99.74,2.0,,0.0,0.0,
2025-08-15T03:47:22.494Z,14,GR86-063-113,1.5,0.285,-0.079,99.77,2.0,,0.0,0.0,
2025-08-15T03:47:22.537Z,14,GR86-063-113,1.5,0.248,-0.053,99.75,2.0,6841.0,0.0,0.0,
2025-08-15T03:47:22.580Z,14,GR86-063-113,1.7000000000000002,0.254,-0.054,99.76,2.0,,0.0,0.0,118.41
2025-08-15T03:47:22.625Z,14,GR86-063-113,2.0,0.271,-0.065,99.76,2.0,,0.0,0.0,
2025-08-15T03:47:22.668Z,14,GR86-063-113,2.2,0.257,-0.043,99.75,2.0,,0.0,0.0,
2025-08-15T03:47:22.711Z,14,GR86-063-113,2.2,0.271,-0.039,99.77,2.0,,0.0,0.0,
2025-08-15T03:47:22.754Z,14,GR86-063-113,2.1,0.264,-0.045,99.76,2.0,6921.0,0.0,0.0,
2025-08-15T03:47:22.797Z,14,GR86-063-113,2.1,0.26,-0.062,99.74,2.0,,0.0,0.0,119.7
2025-08-15T03:47:22.840Z,14,GR86-063-113,2.3000000000000003,0.244,-0.053,99.76,2.0,,0.0,0.0,
2025-08-15T03:47:22.884Z,14,GR86-063-113,2.6,0.261,-0.041,99.74,2.0,,0.0,0.0,
2025-08-15T03:47:22.927Z,14,GR86-063-113,3.1,0.279,-0.053,99.75,2.0,,0.0,0.0,
2025-08-15T03:47:22.970Z,14,GR86-063-113,3.7,0.252,-0.031,99.77,2.0,7002.0,0.0,0.0,
2025-08-15T03:47:23.015Z,14,GR86-063-113,3.7,0.244,-0.025,99.75,2.0,,0.0,0.0,122.13
2025-08-15T03:47:23.058Z,14,GR86-063-113,3.7,0.244,0.002,99.75,2.0,,0.0,0.0,
2025-08-15T03:47:23.101Z,14,GR86-063-113,3.9,0.267,-0.023,99.75,2.0,,0.0,0.0,
2025-08-15T03:47:23.144Z,14,GR86-063-113,3.9,0.254,-0.003,99.75,2.0,,0.0,0.0,
2025-08-15T03:47:23.187Z,14,GR86-063-113,3.9,0.25,0.005,99.75,2.0,7066.0,0.0,0.0,
2025-08-15T03:47:23.230Z,14,GR86-063-113,3.7,0.264,-0.029,99.74,2.0,,0.0,0.0,123.37
2025-08-15T03:47:23.274Z,14,GR86-063-113,3.2,0.263,-0.017,99.76,2.0,,0.0,0.0,
2025-08-15T03:47:23.317Z,14,GR86-063-113,3.2,0.25,-0.022,99.75,2.0,,0.0,0.0,
2025-08-15T03:47:23.360Z,14,GR86-063-113,3.3000000000000003,0.25,0.001,99.75,2.0,,0.0,0.0,
2025-08-15T03:47:23.404Z,14,GR86-063-113,3.4000000000000004,0.245,-0.039,99.77,2.0,7136.0,0.0,0.0,
2025-08-15T03:47:23.447Z,14,GR86-063-113,3.2,0.253,-0.031,99.74,2.0,,0.0,0.0,124.54
2025-08-15T03:47:23.490Z,14,GR86-063-113,3.0,0.238,-0.041,99.75,2.0,,0.0,0.0,
2025-08-15T03:47:23.534Z,14,GR86-063-113,2.6,0.246,-0.046,99.75,2.0,,0.0,0.0,
2025-08-15T03:47:23.576Z,14,GR86-063-113,2.0,0.234,-0.063,99.76,2.0,,0.0,0.0,
2025-08-15T03:47:23.619Z,14,GR86-063-113,1.3,0.248,-0.082,99.75,2.0,7259.0,0.0,0.0,
2025-08-15T03:47:23.665Z,14,GR86-063-113,0.8,0.225,-0.078,99.75,2.0,,0.0,0.0,125.68
2025-08-15T03:47:23.707Z,14,GR86-063-113,0.8,0.223,-0.104,99.74,2.0,,0.0,0.0,
2025-08-15T03:47:23.750Z,14,GR86-063-113,0.8,0.224,-0.124,99.76,2.0,,0.0,0.0,
2025-08-15T03:47:23.794Z,14,GR86-063-113,1.1,0.153,-0.136,99.73,2.0,,0.0,0.0,
2025-08-15T03:47:23.837Z,14,GR86-063-113,1.1,-0.119,-0.096,99.74,3.0,7250.0,0.0,0.0,
2025-08-15T03:47:23.880Z,14,GR86-063-113,1.0,0.296,-0.068,99.77,3.0,,0.0,0.0,126.71
2025-08-15T03:47:23.925Z,14,GR86-063-113,1.2000000000000002,0.578,-0.201,99.74,3.0,,0.0,0.0,
2025-08-15T03:47:23.968Z,14,GR86-063-113,1.5,0.446,-0.14,99.75,3.0,,0.0,0.0,
2025-08-15T03:47:24.011Z,14,GR86-063-113,1.5,0.189,-0.066,99.77,3.0,,0.0,0.0,
2025-08-15T03:47:24.054Z,14,GR86-063-113,1.6,0.061,-0.145,99.75,3.0,5837.0,0.0,0.0,
2025-08-15T03:47:24.097Z,14,GR86-063-113,1.8,0.204,-0.07,99.76,3.0,,0.0,0.0,127.38
2025-08-15T03:47:24.140Z,14,GR86-063-113,1.9,0.298,-0.125,99.75,3.0,,0.0,0.0,
2025-08-15T03:47:24.184Z,14,GR86-063-113,2.0,0.234,-0.11,99.76,3.0,,0.0,0.0,
2025-08-15T03:47:24.227Z,14,GR86-063-113,2.0,0.191,-0.038,99.75,3.0,,0.0,0.0,
2025-08-15T03:47:24.270Z,14,GR86-063-113,2.1,0.171,-0.099,99.74,3.0,5993.0,0.0,0.0,
2025-08-15T03:47:24.314Z,14,GR86-063-113,3.1,0.219,-0.032,99.76,3.0,,0.0,0.0,128.59
2025-08-15T03:47:24.357Z,14,GR86-063-113,4.0,0.227,-0.041,99.74,3.0,,0.0,0.0,
2025-08-15T03:47:24.400Z,14,GR86-063-113,4.6000000000000005,0.209,-0.004,99.74,3.0,,0.0,0.0,
2025-08-15T03:47:24.444Z,14,GR86-063-113,4.800000000000001,0.203,0.012,99.75,3.0,,0.0,0.0,
2025-08-15T03:47:24.486Z,14,GR86-063-113,4.800000000000001,0.202,0.008,99.75,3.0,6064.0,0.0,0.0,
2025-08-15T03:47:24.529Z,14,GR86-063-113,5.0,0.195,0.022,99.62,3.0,,2.5500000000000003,2.855,129.47
2025-08-15T03:47:24.574Z,14,GR86-063-113,5.300000000000001,0.131,0.038,34.63,3.0,,8.605,8.700000000000001,
2025-08-15T03:47:24.617Z,14,GR86-063-113,5.800000000000001,0.091,0.077,21.06,3.0,,11.905,11.995,
2025-08-15T03:47:24.660Z,14,GR86-063-113,6.300000000000001,0.014,0.067,4.84,3.0,,14.94,15.125,
2025-08-15T03:47:24.704Z,14,GR86-063-113,6.7,-0.141,0.061,4.72,3.0,6101.0,18.235,18.36,
2025-08-15T03:47:24.747Z,14,GR86-063-113,6.800000000000001,-0.439,0.115,4.5600000000000005,3.0,,22.735,22.675,130.33
2025-08-15T03:47:24.790Z,14,GR86-063-113,7.0,-0.375,0.097,17.54,2.0,,27.255,27.225,
2025-08-15T03:47:24.834Z,14,GR86-063-113,7.5,-0.798,0.07,38.95,2.0,,32.685,33.62,
2025-08-15T03:47:24.877Z,14,GR86-063-113,7.6,-0.593,0.174,5.63,2.0,,35.235,36.245,
2025-08-15T03:47:24.920Z,14,GR86-063-113,7.7,-0.759,0.007,5.19,2.0,5636.0,36.18,36.73,
2025-08-15T03:47:24.965Z,14,GR86-063-113,7.7,-0.782,0.119,4.8500000000000005,2.0,,35.405,36.425,129.73
2025-08-15T03:47:25.007Z,14,GR86-063-113,7.7,-0.649,0.171,4.3500000000000005,2.0,,36.06,37.08,
2025-08-15T03:47:25.050Z,14,GR86-063-113,7.9,-0.613,0.041,3.99,2.0,,34.565,34.93,
2025-08-15T03:47:25.094Z,14,GR86-063-113,8.0,-0.763,0.287,3.62,2.0,,33.1,34.03,
2025-08-15T03:47:25.137Z,14,GR86-063-113,8.3,-0.7020000000000001,0.119,3.36,2.0,6304.0,32.475,33.13,
2025-08-15T03:47:25.180Z,14,GR86-063-113,9.7,-0.739,0.22,3.1,2.0,,28.995,29.465,125.18
2025-08-15T03:47:25.226Z,14,GR86-063-113,10.8,-0.808,0.342,2.78,2.0,,27.895,28.69,
2025-08-15T03:47:25.269Z,14,GR86-063-113,12.5,-0.632,0.262,2.6,2.0,,26.43,26.72,
2025-08-15T03:47:25.314Z,14,GR86-063-113,19.700000000000003,-0.592,0.435,2.49,2.0,,24.4,24.675,
2025-08-15T03:47:25.357Z,14,GR86-063-113,27.3,-0.582,0.425,2.46,2.0,6322.0,24.05,24.14,
2025-08-15T03:47:25.400Z,14,GR86-063-113,35.300000000000004,-0.5730000000000001,0.506,2.45,2.0,,24.08,24.14,119.42
2025-08-15T03:47:25.444Z,14,GR86-063-113,40.6,-0.556,0.586,2.43,2.0,,24.05,24.14,
2025-08-15T03:47:25.486Z,14,GR86-063-113,41.8,-0.603,0.643,2.43,2.0,,23.715,23.805,
2025-08-15T03:47:25.529Z,14,GR86-063-113,39.400000000000006,-0.557,0.67,2.44,2.0,,22.875,23.485,
2025-08-15T03:47:25.574Z,14,GR86-063-113,34.1,-0.52,0.651,2.43,2.0,6402.0,19.7,20.725,
2025-08-15T03:47:25.617Z,14,GR86-063-113,33.7,-0.531,0.6940000000000001,2.44,2.0,,17.335,18.085,111.69
2025-08-15T03:47:25.660Z,14,GR86-063-113,33.7,-0.482,0.755,2.43,2.0,,15.475,16.375,
2025-08-15T03:47:25.704Z,14,GR86-063-113,33.6,-0.427,0.775,2.44,2.0,,13.735,14.39,
2025-08-15T03:47:25.746Z,14,GR86-063-113,33.0,-0.428,0.8210000000000001,2.44,2.0,,11.615,12.27,
2025-08-15T03:47:25.789Z,14,GR86-063-113,33.6,-0.354,0.8280000000000001,2.44,2.0,6079.0,9.25,10.055,
2025-08-15T03:47:25.834Z,14,GR86-063-113,42.6,-0.317,0.881,2.44,2.0,,7.675,8.120000000000001,108.38
2025-08-15T03:47:25.877Z,14,GR86-063-113,50.2,-0.336,0.977,2.45,2.0,,7.235,7.615,
2025-08-15T03:47:25.920Z,14,GR86-063-113,56.8,-0.301,1.021,2.44,2.0,,6.575,7.0200000000000005,
2025-08-15T03:47:25.964Z,14,GR86-063-113,60.400000000000006,-0.318,1.044,2.45,2.0,,6.03,6.365,
2025-08-15T03:47:26.007Z,14,GR86-063-113,60.7,-0.286,1.089,2.45,2.0,5872.0,5.08,5.4,
2025-08-15T03:47:26.050Z,14,GR86-063-113,58.1,-0.291,1.098,2.45,2.0,,4.15,4.625,105.67
2025-08-15T03:47:26.094Z,14,GR86-063-113,48.8,-0.251,1.067,2.44,2.0,,0.0,2.045,
2025-08-15T03:47:26.137Z,14,GR86-063-113,40.2,-0.182,1.075,2.45,2.0,,0.0,0.0,
2025-08-15T03:47:26.180Z,14,GR86-063-113,32.5,-0.171,1.036,2.46,2.0,,0.0,0.0,
2025-08-15T03:47:26.225Z,14,GR86-063-113,26.8,-0.166,1.004,2.47,2.0,5612.0,0.0,0.0,
2025-08-15T03:47:26.268Z,14,GR86-063-113,24.9,-0.147,1.016,2.45,2.0,,0.0,0.0,103.59
2025-08-15T03:47:26.311Z,14,GR86-063-113,25.200000000000003,-0.165,1.072,2.46,2.0,,0.0,0.0,
2025-08-15T03:47:26.357Z,14,GR86-063-113,34.0,-0.149,1.114,2.46,2.0,,0.0,0.0,
2025-08-15T03:47:26.400Z,14,GR86-063-113,46.3,-0.14,1.133,2.46,2.0,,0.0,0.0,
2025-08-15T03:47:26.444Z,14,GR86-063-113,56.3,-0.186,1.206,2.46,2.0,5566.0,0.0,0.0,
2025-08-15T03:47:26.530Z,14,GR86-063-113,70.3,-0.181,1.23,2.46,2.0,,0.0,0.0,102.15
2025-08-15T03:47:26.574Z,14,GR86-063-113,77.60000000000001,-0.197,1.236,2.46,2.0,,0.0,0.0,
2025-08-15T03:47:26.617Z,14,GR86-063-113,80.7,-0.181,1.191,2.46,2.0,,0.0,0.0,
2025-08-15T03:47:26.660Z,14,GR86-063-113,82.9,-0.195,1.23,2.46,2.0,5481.0,0.0,0.0,
2025-08-15T03:47:26.704Z,14,GR86-063-113,84.80000000000001,-0.18,1.231,2.47,2.0,,0.0,0.0,100.23
2025-08-15T03:47:26.746Z,14,GR86-063-113,85.4,-0.208,1.258,2.78,2.0,,0.0,0.0,
2025-08-15T03:47:26.789Z,14,GR86-063-113,85.9,-0.167,1.224,3.06,2.0,,0.0,0.0,
2025-08-15T03:47:26.833Z,14,GR86-063-113,86.30000000000001,-0.189,1.232,3.93,2.0,,0.0,0.0,
2025-08-15T03:47:26.876Z,14,GR86-063-113,86.2,-0.202,1.247,4.7,2.0,5392.0,0.0,0.0,
2025-08-15T03:47:26.919Z,14,GR86-063-113,85.9,-0.188,1.188,4.9,2.0,,0.0,0.0,98.45
2025-08-15T03:47:26.964Z,14,GR86-063-113,85.7,-0.194,1.233,5.57,2.0,,0.0,0.0,
2025-08-15T03:47:27.007Z,14,GR86-063-113,85.4,-0.177,1.202,9.35,2.0,,0.0,0.0,
2025-08-15T03:47:27.050Z,14,GR86-063-113,84.30000000000001,-0.178,1.293,17.34,2.0,,0.0,0.0,
2025-08-15T03:47:27.094Z,14,GR86-063-113,81.2,-0.153,1.331,21.03,2.0,5301.0,0.0,0.0,
2025-08-15T03:47:27.136Z,14,GR86-063-113,77.60000000000001,-0.153,1.284,21.26,2.0,,0.0,0.0,96.94
2025-08-15T03:47:27.179Z,14,GR86-063-113,73.10000000000001,-0.133,1.324,21.42,2.0,,0.0,0.0,
2025-08-15T03:47:27.223Z,14,GR86-063-113,65.7,-0.128,1.296,24.21,2.0,,0.0,0.0,
2025-08-15T03:47:27.265Z,14,GR86-063-113,56.3,-0.096,1.284,26.33,2.0,,0.0,0.0,
2025-08-15T03:47:27.308Z,14,GR86-063-113,46.0,0.1,1.272,26.36,2.0,5305.0,0.0,0.0,
2025-08-15T03:47:27.351Z,14,GR86-063-113,42.2,0.141,1.213,28.48,2.0,,0.0,0.0,95.53
2025-08-15T03:47:27.394Z,14,GR86-063-113,42.7,0.167,1.195,38.67,2.0,,0.0,0.0,
2025-08-15T03:47:27.437Z,14,GR86-063-113,50.1,0.124,1.188,45.01,2.0,,0.0,0.0,
2025-08-15T03:47:27.480Z,14,GR86-063-113,60.5,0.168,1.188,52.71,2.0,,0.0,0.0,
2025-08-15T03:47:27.526Z,14,GR86-063-113,71.60000000000001,0.15,1.215,65.46000000000001,2.0,5514.0,0.0,0.0,
