timestamp,lap,vehicle_id,steering_angle,accx_can,accy_can,ath,gear,nmot,pbrake_f,pbrake_r,speed
2025-08-15T04:45:13.555Z,7,GR86-022-13,-12.6,-0.019,0.186,2.9,4.0,,0.0,0.0,
2025-08-15T04:45:13.598Z,7,GR86-022-13,-21.200000000000003,-0.132,-0.078,2.72,4.0,,0.0,0.0,
2025-08-15T04:45:13.641Z,7,GR86-022-13,-26.6,-0.143,-0.204,2.63,4.0,3444.0,0.0,0.0,
2025-08-15T04:45:13.684Z,7,GR86-022-13,-30.9,-0.069,-0.325,2.6,4.0,,0.0,0.0,89.83
2025-08-15T04:45:13.728Z,7,GR86-022-13,-33.800000000000004,-0.031,-0.453,2.5500000000000003,4.0,,0.0,0.0,
2025-08-15T04:45:13.771Z,7,GR86-022-13,-35.2,-0.071,-0.522,2.51,4.0,,0.0,0.0,
2025-08-15T04:45:13.814Z,7,GR86-022-13,-35.4,-0.115,-0.579,2.5,4.0,,0.0,0.0,
2025-08-15T04:45:13.858Z,7,GR86-022-13,-35.300000000000004,-0.069,-0.612,2.49,4.0,3561.0,0.0,0.0,
2025-08-15T04:45:13.901Z,7,GR86-022-13,-35.300000000000004,-0.051,-0.618,2.49,4.0,,2.885,3.16,89.10000000000001
2025-08-15T04:45:13.944Z,7,GR86-022-13,-35.300000000000004,-0.094,-0.615,2.47,4.0,,3.34,3.465,
2025-08-15T04:45:13.988Z,7,GR86-022-13,-35.300000000000004,-0.138,-0.604,2.47,4.0,,4.03,4.18,
2025-08-15T04:45:14.030Z,7,GR86-022-13,-34.6,-0.153,-0.608,2.48,4.0,,4.595,4.87,
2025-08-15T04:45:14.073Z,7,GR86-022-13,-33.4,-0.131,-0.598,2.48,4.0,3480.0,4.715,4.87,
2025-08-15T04:45:14.159Z,7,GR86-022-13,-25.3,-0.165,-0.553,2.47,4.0,,5.4350000000000005,5.555,88.38
2025-08-15T04:45:14.202Z,7,GR86-022-13,-20.8,-0.146,-0.506,2.47,4.0,,5.465,5.7700000000000005,
2025-08-15T04:45:14.245Z,7,GR86-022-13,-15.4,-0.146,-0.455,2.47,4.0,,5.7700000000000005,5.9350000000000005,
2025-08-15T04:45:14.288Z,7,GR86-022-13,-9.2,-0.149,-0.389,2.48,4.0,3367.0,5.7700000000000005,6.0600000000000005,
2025-08-15T04:45:14.331Z,7,GR86-022-13,-2.9000000000000004,-0.168,-0.293,2.48,4.0,,5.7700000000000005,6.09,87.48
2025-08-15T04:45:14.374Z,7,GR86-022-13,3.3000000000000003,-0.169,-0.194,2.47,4.0,,5.7700000000000005,5.965,
2025-08-15T04:45:14.418Z,7,GR86-022-13,12.2,-0.15,-0.028,2.47,4.0,,5.7700000000000005,6.12,
2025-08-15T04:45:14.460Z,7,GR86-022-13,18.0,-0.144,0.079,2.48,4.0,,5.7700000000000005,5.9350000000000005,
2025-08-15T04:45:14.503Z,7,GR86-022-13,23.8,-0.168,0.193,2.48,4.0,3309.0,5.7700000000000005,6.2700000000000005,
2025-08-15T04:45:14.548Z,7,GR86-022-13,29.5,-0.168,0.301,2.48,4.0,,5.7700000000000005,6.03,86.24
2025-08-15T04:45:14.591Z,7,GR86-022-13,34.5,-0.17,0.411,2.48,4.0,,5.7700000000000005,6.0600000000000005,
2025-08-15T04:45:14.634Z,7,GR86-022-13,38.400000000000006,-0.182,0.485,2.48,4.0,,5.7700000000000005,6.21,
2025-08-15T04:45:14.678Z,7,GR86-022-13,41.6,-0.176,0.616,2.47,4.0,,5.6450000000000005,5.995,
2025-08-15T04:45:14.721Z,7,GR86-022-13,41.900000000000006,-0.173,0.64,2.48,4.0,3260.0,4.835,5.28,
2025-08-15T04:45:14.764Z,7,GR86-022-13,41.900000000000006,-0.154,0.6920000000000001,2.47,4.0,,2.58,3.25,84.98
2025-08-15T04:45:14.808Z,7,GR86-022-13,41.6,-0.125,0.682,2.47,4.0,,0.0,0.0,
2025-08-15T04:45:14.850Z,7,GR86-022-13,40.8,-0.102,0.7020000000000001,2.47,4.0,,0.0,0.0,
2025-08-15T04:45:14.893Z,7,GR86-022-13,39.3,-0.1,0.6880000000000001,2.47,4.0,,0.0,0.0,
2025-08-15T04:45:14.937Z,7,GR86-022-13,35.800000000000004,-0.081,0.6960000000000001,2.48,4.0,3214.0,0.0,0.0,
2025-08-15T04:45:14.981Z,7,GR86-022-13,32.5,-0.085,0.643,2.48,4.0,,0.0,0.0,83.67
2025-08-15T04:45:15.024Z,7,GR86-022-13,28.1,-0.085,0.615,2.47,4.0,,0.0,0.0,
2025-08-15T04:45:15.068Z,7,GR86-022-13,23.1,-0.078,0.557,2.48,4.0,,0.0,0.0,
2025-08-15T04:45:15.110Z,7,GR86-022-13,17.3,-0.068,0.492,2.48,4.0,,0.0,0.0,
2025-08-15T04:45:15.153Z,7,GR86-022-13,11.0,-0.07,0.413,2.48,4.0,3173.0,0.0,0.0,
2025-08-15T04:45:15.197Z,7,GR86-022-13,1.6,-0.085,0.274,2.48,4.0,,0.0,0.0,83.05
2025-08-15T04:45:15.241Z,7,GR86-022-13,-4.2,-0.082,0.156,2.47,4.0,,0.0,0.0,
2025-08-15T04:45:15.284Z,7,GR86-022-13,-9.9,-0.065,0.07,2.48,4.0,,0.0,0.0,
2025-08-15T04:45:15.328Z,7,GR86-022-13,-15.4,-0.064,-0.057,2.48,4.0,,0.0,0.0,
2025-08-15T04:45:15.370Z,7,GR86-022-13,-20.8,-0.061,-0.157,2.69,4.0,3142.0,0.0,0.0,
2025-08-15T04:45:15.413Z,7,GR86-022-13,-25.9,-0.073,-0.265,3.67,4.0,,0.0,0.0,81.72
2025-08-15T04:45:15.457Z,7,GR86-022-13,-32.800000000000004,-0.072,-0.38,4.25,4.0,,0.0,0.0,
2025-08-15T04:45:15.499Z,7,GR86-022-13,-36.2,-0.076,-0.452,4.7,4.0,,0.0,0.0,
2025-08-15T04:45:15.544Z,7,GR86-022-13,-38.2,-0.065,-0.501,5.92,4.0,,0.0,0.0,
2025-08-15T04:45:15.587Z,7,GR86-022-13,-38.6,-0.072,-0.549,7.67,4.0,3119.0,0.0,0.0,
2025-08-15T04:45:15.629Z,7,GR86-022-13,-38.6,-0.032,-0.552,10.02,4.0,,0.0,0.0,80.9
2025-08-15T04:45:15.673Z,7,GR86-022-13,-38.6,-0.05,-0.582,16.0,4.0,,0.0,0.0,
2025-08-15T04:45:15.717Z,7,GR86-022-13,-38.2,-0.017,-0.5730000000000001,20.0,4.0,,0.0,0.0,
2025-08-15T04:45:15.759Z,7,GR86-022-13,-37.5,-0.09,-0.597,21.68,4.0,,0.0,0.0,
2025-08-15T04:45:15.802Z,7,GR86-022-13,-36.2,-0.117,-0.577,21.74,4.0,3096.0,0.0,0.0,
2025-08-15T04:45:15.845Z,7,GR86-022-13,-33.5,-0.011,-0.582,21.81,4.0,,0.0,0.0,80.21000000000001
2025-08-15T04:45:15.888Z,7,GR86-022-13,-29.5,0.093,-0.552,21.9,4.0,,0.0,0.0,
2025-08-15T04:45:15.931Z,7,GR86-022-13,-24.5,0.359,-0.492,21.94,4.0,,0.0,0.0,
2025-08-15T04:45:15.974Z,7,GR86-022-13,-19.0,0.085,-0.461,22.02,4.0,,0.0,0.0,
2025-08-15T04:45:16.018Z,7,GR86-022-13,-10.6,0.016,-0.3,23.49,4.0,3086.0,0.0,0.0,
2025-08-15T04:45:16.060Z,7,GR86-022-13,-4.5,0.208,-0.246,23.39,4.0,,0.0,0.0,79.57000000000001
2025-08-15T04:45:16.103Z,7,GR86-022-13,1.3,0.237,-0.157,23.42,4.0,,0.0,0.0,
2025-08-15T04:45:16.148Z,7,GR86-022-13,6.9,0.072,-0.024,24.92,4.0,,0.0,0.0,
2025-08-15T04:45:16.190Z,7,GR86-022-13,13.0,0.055,0.04,25.5,4.0,,0.0,0.0,
2025-08-15T04:45:16.233Z,7,GR86-022-13,19.5,0.167,0.146,25.53,4.0,3326.0,0.0,0.0,
2025-08-15T04:45:16.278Z,7,GR86-022-13,29.200000000000003,0.178,0.298,26.23,4.0,,0.0,0.0,79.14
2025-08-15T04:45:16.321Z,7,GR86-022-13,35.1,0.071,0.4,28.0,4.0,,0.0,0.0,
2025-08-15T04:45:16.364Z,7,GR86-022-13,40.2,0.1,0.459,28.74,4.0,,0.0,0.0,
2025-08-15T04:45:16.408Z,7,GR86-022-13,44.1,0.182,0.5670000000000001,28.78,4.0,,0.0,0.0,
2025-08-15T04:45:16.450Z,7,GR86-022-13,46.900000000000006,0.16,0.624,28.95,4.0,3223.0,0.0,0.0,
2025-08-15T04:45:16.493Z,7,GR86-022-13,47.8,0.089,0.676,29.85,4.0,,0.0,0.0,79.82000000000001
2025-08-15T04:45:16.537Z,7,GR86-022-13,47.8,0.141,0.7010000000000001,30.4,4.0,,0.0,0.0,
2025-08-15T04:45:16.579Z,7,GR86-022-13,47.400000000000006,0.179,0.743,30.44,4.0,,0.0,0.0,
2025-08-15T04:45:16.622Z,7,GR86-022-13,46.900000000000006,0.148,0.718,30.55,4.0,,0.0,0.0,
2025-08-15T04:45:16.665Z,7,GR86-022-13,46.2,0.108,0.734,30.68,4.0,3131.0,0.0,0.0,
2025-08-15T04:45:16.708Z,7,GR86-022-13,44.7,0.109,0.735,30.96,4.0,,0.0,0.0,80.60000000000001
2025-08-15T04:45:16.751Z,7,GR86-022-13,41.900000000000006,0.156,0.727,31.08,4.0,,0.0,0.0,
2025-08-15T04:45:16.794Z,7,GR86-022-13,38.3,0.149,0.7020000000000001,31.32,4.0,,0.0,0.0,
2025-08-15T04:45:16.838Z,7,GR86-022-13,30.6,0.139,0.642,31.78,4.0,,0.0,0.0,
2025-08-15T04:45:16.881Z,7,GR86-022-13,23.9,0.147,0.5660000000000001,32.61,4.0,3200.0,0.0,0.0,
2025-08-15T04:45:16.924Z,7,GR86-022-13,15.7,0.167,0.485,32.82,4.0,,0.0,0.0,82.2
2025-08-15T04:45:16.968Z,7,GR86-022-13,7.0,0.172,0.38,33.1,4.0,,0.0,0.0,
2025-08-15T04:45:17.010Z,7,GR86-022-13,-1.2000000000000002,0.164,0.26,33.43,4.0,,0.0,0.0,
2025-08-15T04:45:17.053Z,7,GR86-022-13,-9.4,0.153,0.136,34.09,4.0,,0.0,0.0,
2025-08-15T04:45:17.097Z,7,GR86-022-13,-20.6,0.175,-0.052,34.96,4.0,3252.0,0.0,0.0,
2025-08-15T04:45:17.141Z,7,GR86-022-13,-27.0,0.153,-0.207,35.95,4.0,,0.0,0.0,83.07000000000001
2025-08-15T04:45:17.184Z,7,GR86-022-13,-32.7,0.152,-0.315,37.58,4.0,,0.0,0.0,
2025-08-15T04:45:17.228Z,7,GR86-022-13,-37.2,0.141,-0.432,38.81,4.0,,0.0,0.0,
2025-08-15T04:45:17.270Z,7,GR86-022-13,-40.5,0.164,-0.514,39.23,4.0,,0.0,0.0,
2025-08-15T04:45:17.313Z,7,GR86-022-13,-42.7,0.138,-0.585,39.58,4.0,3288.0,0.0,0.0,
2025-08-15T04:45:17.357Z,7,GR86-022-13,-44.2,0.155,-0.636,39.71,4.0,,0.0,0.0,83.23
2025-08-15T04:45:17.399Z,7,GR86-022-13,-44.2,0.157,-0.654,39.73,4.0,,0.0,0.0,
2025-08-15T04:45:17.442Z,7,GR86-022-13,-44.2,0.151,-0.656,39.78,4.0,,0.0,0.0,
2025-08-15T04:45:17.485Z,7,GR86-022-13,-44.2,0.14,-0.671,39.84,4.0,,0.0,0.0,
2025-08-15T04:45:17.528Z,7,GR86-022-13,-44.2,0.152,-0.678,39.84,4.0,3319.0,0.0,0.0,
2025-08-15T04:45:17.571Z,7,GR86-022-13,-44.3,0.154,-0.6990000000000001,39.84,4.0,,0.0,0.0,84.21000000000001
2025-08-15T04:45:17.615Z,7,GR86-022-13,-44.2,0.166,-0.6890000000000001,39.83,4.0,,0.0,0.0,
2025-08-15T04:45:17.658Z,7,GR86-022-13,-43.0,0.145,-0.687,39.8,4.0,,0.0,0.0,
2025-08-15T04:45:17.701Z,7,GR86-022-13,-41.7,0.159,-0.676,39.8,4.0,,0.0,0.0,
2025-08-15T04:45:17.744Z,7,GR86-022-13,-39.7,0.153,-0.66,39.83,4.0,3364.0,0.0,0.0,
2025-08-15T04:45:17.788Z,7,GR86-022-13,-36.8,0.166,-0.649,40.85,4.0,,0.0,0.0,85.17
2025-08-15T04:45:17.831Z,7,GR86-022-13,-33.0,0.147,-0.624,42.75,4.0,,0.0,0.0,
2025-08-15T04:45:17.875Z,7,GR86-022-13,-29.1,0.165,-0.5680000000000001,43.01,4.0,,0.0,0.0,
2025-08-15T04:45:17.918Z,7,GR86-022-13,-22.1,0.185,-0.504,44.11,4.0,,0.0,0.0,
2025-08-15T04:45:17.961Z,7,GR86-022-13,-16.2,0.162,-0.426,44.62,4.0,3408.0,0.0,0.0,
2025-08-15T04:45:18.004Z,7,GR86-022-13,-9.7,0.166,-0.343,44.95,4.0,,0.0,0.0,86.11
2025-08-15T04:45:18.048Z,7,GR86-022-13,-3.2,0.169,-0.262,45.1,4.0,,0.0,0.0,
2025-08-15T04:45:18.091Z,7,GR86-022-13,3.1,0.187,-0.145,45.07,4.0,,0.0,0.0,
2025-08-15T04:45:18.134Z,7,GR86-022-13,8.9,0.178,-0.04,44.99,4.0,,0.0,0.0,
2025-08-15T04:45:18.178Z,7,GR86-022-13,17.5,0.181,0.133,44.85,4.0,3443.0,0.0,0.0,
2025-08-15T04:45:18.221Z,7,GR86-022-13,23.700000000000003,0.17,0.243,44.76,4.0,,0.0,0.0,87.03
2025-08-15T04:45:18.264Z,7,GR86-022-13,30.3,0.19,0.341,44.7,4.0,,0.0,0.0,
2025-08-15T04:45:18.308Z,7,GR86-022-13,36.3,0.141,0.442,44.45,4.0,,0.0,0.0,
2025-08-15T04:45:18.350Z,7,GR86-022-13,41.3,0.162,0.536,43.29,4.0,,0.0,0.0,
2025-08-15T04:45:18.393Z,7,GR86-022-13,44.900000000000006,0.145,0.63,42.14,4.0,3480.0,0.0,0.0,
2025-08-15T04:45:18.437Z,7,GR86-022-13,46.900000000000006,0.154,0.72,38.83,4.0,,0.0,0.0,88.02
2025-08-15T04:45:18.479Z,7,GR86-022-13,46.900000000000006,0.149,0.741,38.34,4.0,,0.0,0.0,
2025-08-15T04:45:18.522Z,7,GR86-022-13,46.900000000000006,0.142,0.772,37.86,4.0,,0.0,0.0,
2025-08-15T04:45:18.565Z,7,GR86-022-13,46.7,0.146,0.78,37.19,4.0,,0.0,0.0,
2025-08-15T04:45:18.608Z,7,GR86-022-13,45.900000000000006,0.152,0.8130000000000001,36.39,4.0,3507.0,0.0,0.0,
2025-08-15T04:45:18.651Z,7,GR86-022-13,45.0,0.138,0.801,35.61,4.0,,0.0,0.0,89.10000000000001
2025-08-15T04:45:18.694Z,7,GR86-022-13,43.900000000000006,0.143,0.805,34.22,4.0,,0.0,0.0,
2025-08-15T04:45:18.738Z,7,GR86-022-13,41.8,0.16,0.806,32.93,4.0,,0.0,0.0,
2025-08-15T04:45:18.781Z,7,GR86-022-13,40.1,0.134,0.772,31.38,4.0,,0.0,0.0,
2025-08-15T04:45:18.824Z,7,GR86-022-13,38.1,0.168,0.742,29.79,4.0,3562.0,0.0,0.0,
2025-08-15T04:45:18.868Z,7,GR86-022-13,35.6,0.151,0.731,29.6,4.0,,0.0,0.0,90.22
2025-08-15T04:45:18.911Z,7,GR86-022-13,32.4,0.167,0.676,28.88,4.0,,0.0,0.0,
2025-08-15T04:45:18.997Z,7,GR86-022-13,18.8,0.125,0.553,26.35,4.0,,0.0,0.0,
2025-08-15T04:45:19.039Z,7,GR86-022-13,28.200000000000003,0.134,0.638,27.55,4.0,3612.0,0.0,0.0,
2025-08-15T04:45:19.082Z,7,GR86-022-13,3.3000000000000003,0.105,0.364,25.54,4.0,,0.0,0.0,92.17
2025-08-15T04:45:19.125Z,7,GR86-022-13,-3.3000000000000003,0.131,0.263,25.54,4.0,,0.0,0.0,
2025-08-15T04:45:19.168Z,7,GR86-022-13,-9.8,0.113,0.132,25.56,4.0,,0.0,0.0,
2025-08-15T04:45:19.254Z,7,GR86-022-13,-16.0,0.131,0.008,25.58,4.0,3636.0,0.0,0.0,
2025-08-15T04:45:19.298Z,7,GR86-022-13,-30.9,0.122,-0.324,25.25,4.0,,0.0,0.0,92.94
2025-08-15T04:45:19.341Z,7,GR86-022-13,-35.7,0.113,-0.45,24.42,4.0,,0.0,0.0,
2025-08-15T04:45:19.384Z,7,GR86-022-13,-39.2,0.116,-0.525,24.16,4.0,,0.0,0.0,
2025-08-15T04:45:19.428Z,7,GR86-022-13,-41.400000000000006,0.102,-0.612,24.06,4.0,,0.0,0.0,
2025-08-15T04:45:19.471Z,7,GR86-022-13,-42.3,0.095,-0.65,24.01,4.0,3649.0,0.0,0.0,
2025-08-15T04:45:19.514Z,7,GR86-022-13,-42.3,0.1,-0.6960000000000001,24.0,4.0,,0.0,0.0,93.79
2025-08-15T04:45:19.558Z,7,GR86-022-13,-42.3,0.102,-0.733,24.19,4.0,,0.0,0.0,
2025-08-15T04:45:19.601Z,7,GR86-022-13,-42.3,0.132,-0.73,24.31,4.0,,0.0,0.0,
2025-08-15T04:45:19.644Z,7,GR86-022-13,-42.3,0.109,-0.75,24.47,4.0,,0.0,0.0,
2025-08-15T04:45:19.688Z,7,GR86-022-13,-42.1,0.125,-0.726,24.55,4.0,3718.0,0.0,0.0,
2025-08-15T04:45:19.730Z,7,GR86-022-13,-41.6,0.098,-0.754,24.61,4.0,,0.0,0.0,94.6
2025-08-15T04:45:19.773Z,7,GR86-022-13,-40.7,0.105,-0.729,24.66,4.0,,0.0,0.0,
2025-08-15T04:45:19.817Z,7,GR86-022-13,-38.6,0.13,-0.722,24.7,4.0,,0.0,0.0,
2025-08-15T04:45:19.859Z,7,GR86-022-13,-37.3,0.11,-0.737,24.74,4.0,,0.0,0.0,
2025-08-15T04:45:19.902Z,7,GR86-022-13,-36.1,0.142,-0.707,24.74,4.0,3747.0,0.0,0.0,
2025-08-15T04:45:19.945Z,7,GR86-022-13,-34.300000000000004,0.107,-0.687,24.76,4.0,,0.0,0.0,95.19
2025-08-15T04:45:19.988Z,7,GR86-022-13,-31.3,0.136,-0.659,24.76,4.0,,0.0,0.0,
2025-08-15T04:45:20.031Z,7,GR86-022-13,-27.200000000000003,0.116,-0.617,24.75,4.0,,0.0,0.0,
2025-08-15T04:45:20.074Z,7,GR86-022-13,-22.1,0.127,-0.561,24.75,4.0,,0.0,0.0,
2025-08-15T04:45:20.118Z,7,GR86-022-13,-13.3,0.139,-0.453,24.73,4.0,3779.0,0.0,0.0,
2025-08-15T04:45:20.203Z,7,GR86-022-13,-7.2,0.118,-0.401,24.74,4.0,,0.0,0.0,95.79
2025-08-15T04:45:20.248Z,7,GR86-022-13,4.1000000000000005,0.13,-0.2,25.23,4.0,,0.0,0.0,
2025-08-15T04:45:20.291Z,7,GR86-022-13,9.9,0.157,-0.05,25.46,4.0,,0.0,0.0,
2025-08-15T04:45:20.334Z,7,GR86-022-13,15.9,0.129,0.05,25.71,4.0,3789.0,0.0,0.0,
2025-08-15T04:45:20.378Z,7,GR86-022-13,25.4,0.111,0.244,25.98,4.0,,0.0,0.0,96.46
2025-08-15T04:45:20.421Z,7,GR86-022-13,31.5,0.133,0.389,25.96,4.0,,0.0,0.0,
2025-08-15T04:45:20.464Z,7,GR86-022-13,36.6,0.106,0.478,25.88,4.0,,0.0,0.0,
2025-08-15T04:45:20.508Z,7,GR86-022-13,40.400000000000006,0.132,0.585,25.63,4.0,,0.0,0.0,
2025-08-15T04:45:20.550Z,7,GR86-022-13,42.3,0.11,0.649,25.43,4.0,3812.0,0.0,0.0,
2025-08-15T04:45:20.593Z,7,GR86-022-13,42.5,0.111,0.714,25.36,4.0,,0.0,0.0,97.23
2025-08-15T04:45:20.637Z,7,GR86-022-13,42.1,0.109,0.757,25.06,4.0,,0.0,0.0,
2025-08-15T04:45:20.681Z,7,GR86-022-13,41.3,0.102,0.79,24.92,4.0,,0.0,0.0,
2025-08-15T04:45:20.724Z,7,GR86-022-13,40.400000000000006,0.116,0.801,24.69,4.0,,0.0,0.0,
2025-08-15T04:45:20.768Z,7,GR86-022-13,39.2,0.104,0.8150000000000001,24.54,4.0,3850.0,0.0,0.0,
2025-08-15T04:45:20.810Z,7,GR86-022-13,37.4,0.108,0.792,24.03,4.0,,0.0,0.0,98.01
2025-08-15T04:45:20.853Z,7,GR86-022-13,35.4,0.097,0.784,22.84,4.0,,0.0,0.0,
2025-08-15T04:45:20.897Z,7,GR86-022-13,31.9,0.099,0.723,21.9,4.0,,0.0,0.0,
2025-08-15T04:45:20.941Z,7,GR86-022-13,29.200000000000003,0.118,0.704,21.87,4.0,,0.0,0.0,
2025-08-15T04:45:20.984Z,7,GR86-022-13,26.6,0.103,0.633,21.43,4.0,3893.0,0.0,0.0,
2025-08-15T04:45:21.028Z,7,GR86-022-13,24.0,0.096,0.613,17.19,4.0,,0.0,0.0,98.73
2025-08-15T04:45:21.070Z,7,GR86-022-13,21.4,0.093,0.539,8.02,4.0,,0.0,0.0,
2025-08-15T04:45:21.113Z,7,GR86-022-13,18.5,0.077,0.501,6.71,4.0,,0.0,0.0,
2025-08-15T04:45:21.157Z,7,GR86-022-13,12.6,0.037,0.413,6.53,4.0,,0.0,0.0,
2025-08-15T04:45:21.199Z,7,GR86-022-13,7.6,-0.013,0.338,6.11,4.0,3901.0,0.0,0.0,
2025-08-15T04:45:21.243Z,7,GR86-022-13,2.5,-0.011,0.294,5.8,4.0,,0.0,0.0,99.32
2025-08-15T04:45:21.287Z,7,GR86-022-13,-2.7,-0.003,0.202,5.6000000000000005,4.0,,0.0,0.0,
2025-08-15T04:45:21.329Z,7,GR86-022-13,-8.0,-0.026,0.126,5.71,4.0,,0.0,0.0,
2025-08-15T04:45:21.372Z,7,GR86-022-13,-13.1,-0.032,0.013,6.78,4.0,,0.0,0.0,
2025-08-15T04:45:21.415Z,7,GR86-022-13,-18.4,-0.05,-0.093,10.84,4.0,3919.0,0.0,0.0,
2025-08-15T04:45:21.458Z,7,GR86-022-13,-25.5,-0.038,-0.26,19.08,4.0,,0.0,0.0,99.94
2025-08-15T04:45:21.501Z,7,GR86-022-13,-29.3,-0.04,-0.379,20.83,4.0,,0.0,0.0,
2025-08-15T04:45:21.544Z,7,GR86-022-13,-32.4,-0.165,-0.471,21.22,4.0,,0.0,0.0,
2025-08-15T04:45:21.588Z,7,GR86-022-13,-34.0,-0.062,-0.546,21.46,4.0,,0.0,0.0,
2025-08-15T04:45:21.630Z,7,GR86-022-13,-34.5,-0.063,-0.621,21.61,4.0,3911.0,0.0,0.0,
2025-08-15T04:45:21.673Z,7,GR86-022-13,-34.5,0.301,-0.65,21.71,4.0,,0.0,0.0,100.44
2025-08-15T04:45:21.717Z,7,GR86-022-13,-34.5,0.044,-0.678,21.84,4.0,,0.0,0.0,
2025-08-15T04:45:21.759Z,7,GR86-022-13,-34.5,-0.068,-0.667,21.9,4.0,,0.0,0.0,
2025-08-15T04:45:21.802Z,7,GR86-022-13,-34.5,0.068,-0.666,21.97,4.0,,0.0,0.0,
2025-08-15T04:45:21.845Z,7,GR86-022-13,-34.5,0.192,-0.7020000000000001,22.0,4.0,3818.0,0.0,0.0,
2025-08-15T04:45:21.888Z,7,GR86-022-13,-33.6,0.122,-0.677,22.03,4.0,,0.0,0.0,100.07
2025-08-15T04:45:21.931Z,7,GR86-022-13,-33.0,0.025,-0.661,22.06,4.0,,0.0,0.0,
2025-08-15T04:45:21.975Z,7,GR86-022-13,-32.4,0.085,-0.647,22.06,4.0,,0.0,0.0,
2025-08-15T04:45:22.018Z,7,GR86-022-13,-29.8,0.142,-0.641,22.06,4.0,,0.0,0.0,
2025-08-15T04:45:22.061Z,7,GR86-022-13,-27.700000000000003,0.071,-0.606,22.06,4.0,4062.0,0.0,0.0,
2025-08-15T04:45:22.104Z,7,GR86-022-13,-25.1,0.077,-0.5740000000000001,22.06,4.0,,0.0,0.0,100.23
2025-08-15T04:45:22.148Z,7,GR86-022-13,-22.0,0.096,-0.553,22.05,4.0,,0.0,0.0,
2025-08-15T04:45:22.191Z,7,GR86-022-13,-18.4,0.126,-0.478,22.06,4.0,,0.0,0.0,
2025-08-15T04:45:22.235Z,7,GR86-022-13,-13.9,0.08,-0.456,22.06,4.0,,0.0,0.0,
2025-08-15T04:45:22.278Z,7,GR86-022-13,-4.9,0.091,-0.338,22.06,4.0,3920.0,0.0,0.0,
2025-08-15T04:45:22.321Z,7,GR86-022-13,1.2000000000000002,0.122,-0.234,22.06,4.0,,0.0,0.0,100.76
2025-08-15T04:45:22.364Z,7,GR86-022-13,7.2,0.115,-0.149,22.06,4.0,,0.0,0.0,
2025-08-15T04:45:22.408Z,7,GR86-022-13,12.9,0.092,-0.011,21.77,4.0,,0.0,0.0,
2025-08-15T04:45:22.450Z,7,GR86-022-13,18.5,0.084,0.085,20.52,4.0,,0.0,0.0,
2025-08-15T04:45:22.493Z,7,GR86-022-13,23.8,0.092,0.229,18.38,4.0,3974.0,0.0,0.0,
2025-08-15T04:45:22.537Z,7,GR86-022-13,30.8,0.078,0.408,7.96,4.0,,0.0,0.0,101.41
2025-08-15T04:45:22.579Z,7,GR86-022-13,34.2,0.041,0.505,6.7,4.0,,0.0,0.0,
2025-08-15T04:45:22.622Z,7,GR86-022-13,36.2,0.0,0.596,6.2700000000000005,4.0,,0.0,0.0,
2025-08-15T04:45:22.665Z,7,GR86-022-13,36.6,-0.026,0.67,4.7700000000000005,4.0,,0.0,0.0,
2025-08-15T04:45:22.708Z,7,GR86-022-13,36.6,-0.04,0.708,3.46,4.0,4001.0,0.0,0.0,
2025-08-15T04:45:22.751Z,7,GR86-022-13,36.5,-0.039,0.758,3.34,4.0,,0.0,0.0,102.06
2025-08-15T04:45:22.794Z,7,GR86-022-13,36.2,-0.063,0.771,3.21,4.0,,0.0,0.0,
2025-08-15T04:45:22.838Z,7,GR86-022-13,34.6,-0.255,0.759,3.0500000000000003,4.0,,0.0,0.0,
2025-08-15T04:45:22.881Z,7,GR86-022-13,32.9,-0.139,0.784,2.98,4.0,,0.0,0.0,
2025-08-15T04:45:22.924Z,7,GR86-022-13,30.4,-0.029,0.757,2.89,4.0,3980.0,0.0,0.0,
2025-08-15T04:45:22.968Z,7,GR86-022-13,27.700000000000003,-0.047,0.735,2.74,4.0,,0.0,0.0,102.66
2025-08-15T04:45:23.010Z,7,GR86-022-13,25.3,-0.062,0.7000000000000001,2.62,4.0,,0.0,0.0,
2025-08-15T04:45:23.053Z,7,GR86-022-13,23.5,-0.155,0.637,2.5500000000000003,4.0,,0.0,0.0,
2025-08-15T04:45:23.097Z,7,GR86-022-13,21.3,-0.063,0.588,2.52,4.0,,0.0,0.0,
2025-08-15T04:45:23.141Z,7,GR86-022-13,18.8,-0.047,0.533,2.5,4.0,3978.0,0.0,0.0,
2025-08-15T04:45:23.184Z,7,GR86-022-13,15.0,-0.072,0.475,2.46,4.0,,0.0,0.0,102.72
2025-08-15T04:45:23.228Z,7,GR86-022-13,10.3,-0.113,0.397,2.44,4.0,,0.0,0.0,
2025-08-15T04:45:23.270Z,7,GR86-022-13,5.2,-0.092,0.348,2.44,4.0,,0.0,0.0,
2025-08-15T04:45:23.313Z,7,GR86-022-13,-0.1,-0.058,0.263,2.42,4.0,,0.0,0.0,
2025-08-15T04:45:23.357Z,7,GR86-022-13,-9.2,-0.081,0.103,2.42,4.0,3937.0,0.0,0.0,
2025-08-15T04:45:23.399Z,7,GR86-022-13,-15.7,-0.101,-0.002,2.42,4.0,,0.0,0.0,102.0
2025-08-15T04:45:23.442Z,7,GR86-022-13,-21.700000000000003,-0.082,-0.16,2.41,4.0,,0.0,0.0,
2025-08-15T04:45:23.485Z,7,GR86-022-13,-26.9,-0.084,-0.267,2.43,4.0,,0.0,0.0,
2025-08-15T04:45:23.528Z,7,GR86-022-13,-31.9,-0.086,-0.388,2.42,4.0,,0.0,0.0,
2025-08-15T04:45:23.571Z,7,GR86-022-13,-34.0,-0.118,-0.486,2.43,4.0,3923.0,0.0,0.0,
2025-08-15T04:45:23.614Z,7,GR86-022-13,-34.5,-0.09,-0.5640000000000001,2.42,4.0,,1.985,2.075,101.31
2025-08-15T04:45:23.658Z,7,GR86-022-13,-34.6,-0.106,-0.647,2.43,4.0,,3.34,3.465,
2025-08-15T04:45:23.701Z,7,GR86-022-13,-34.6,-0.139,-0.671,2.43,4.0,,4.0600000000000005,4.305,
2025-08-15T04:45:23.744Z,7,GR86-022-13,-34.5,-0.156,-0.7020000000000001,2.42,4.0,,4.715,4.9,
2025-08-15T04:45:23.788Z,7,GR86-022-13,-34.300000000000004,-0.183,-0.715,2.44,4.0,3890.0,5.22,5.495,
2025-08-15T04:45:23.831Z,7,GR86-022-13,-34.0,-0.153,-0.72,2.44,4.0,,5.7700000000000005,5.965,100.65
2025-08-15T04:45:23.874Z,7,GR86-022-13,-33.5,-0.189,-0.728,2.43,4.0,,6.12,6.575,
2025-08-15T04:45:23.918Z,7,GR86-022-13,-32.1,-0.202,-0.7010000000000001,2.44,4.0,,6.455,6.96,
2025-08-15T04:45:23.960Z,7,GR86-022-13,-30.700000000000003,-0.195,-0.6920000000000001,2.44,4.0,,6.775,6.96,
2025-08-15T04:45:24.004Z,7,GR86-022-13,-29.6,-0.203,-0.671,2.43,4.0,3859.0,6.745,6.96,
2025-08-15T04:45:24.048Z,7,GR86-022-13,-28.0,-0.193,-0.649,2.44,4.0,,6.655,6.96,100.02
2025-08-15T04:45:24.091Z,7,GR86-022-13,-25.700000000000003,-0.204,-0.626,2.44,4.0,,6.775,6.96,
2025-08-15T04:45:24.135Z,7,GR86-022-13,-23.4,-0.181,-0.584,2.44,4.0,,6.455,6.99,
2025-08-15T04:45:24.178Z,7,GR86-022-13,-19.0,-0.199,-0.529,2.44,4.0,,6.455,6.96,
2025-08-15T04:45:24.221Z,7,GR86-022-13,-16.3,-0.189,-0.465,2.44,4.0,3808.0,6.455,6.96,
2025-08-15T04:45:24.264Z,7,GR86-022-13,-10.7,-0.193,-0.42,2.44,4.0,,6.425,6.655,99.02
2025-08-15T04:45:24.308Z,7,GR86-022-13,-6.800000000000001,-0.189,-0.335,2.44,4.0,,6.3,6.6850000000000005,
2025-08-15T04:45:24.350Z,7,GR86-022-13,-0.8,-0.187,-0.26,2.44,4.0,,6.15,6.655,
2025-08-15T04:45:24.393Z,7,GR86-022-13,6.4,-0.197,-0.151,2.44,4.0,,6.18,6.625,
2025-08-15T04:45:24.437Z,7,GR86-022-13,13.2,-0.163,0.006,2.44,4.0,3751.0,6.15,6.625,
2025-08-15T04:45:24.479Z,7,GR86-022-13,20.200000000000003,-0.189,0.096,2.44,4.0,,5.34,5.83,96.26
2025-08-15T04:45:24.522Z,7,GR86-022-13,25.9,-0.156,0.236,2.44,4.0,,2.455,2.975,
2025-08-15T04:45:24.565Z,7,GR86-022-13,31.5,-0.118,0.328,2.44,4.0,,0.0,0.0,
2025-08-15T04:45:24.608Z,7,GR86-022-13,35.2,-0.079,0.452,2.44,4.0,,0.0,0.0,
2025-08-15T04:45:24.651Z,7,GR86-022-13,39.5,-0.097,0.543,2.44,4.0,3703.0,0.0,0.0,
2025-08-15T04:45:24.694Z,7,GR86-022-13,43.0,-0.092,0.643,2.44,4.0,,0.0,0.0,94.96
2025-08-15T04:45:24.738Z,7,GR86-022-13,44.2,-0.089,0.73,2.44,4.0,,0.0,0.0,
2025-08-15T04:45:24.781Z,7,GR86-022-13,44.2,-0.113,0.785,2.45,4.0,,0.0,0.0,
2025-08-15T04:45:24.824Z,7,GR86-022-13,44.2,-0.091,0.792,2.46,4.0,,0.0,0.0,
2025-08-15T04:45:24.868Z,7,GR86-022-13,44.1,-0.108,0.8280000000000001,2.45,4.0,3646.0,0.0,0.0,
2025-08-15T04:45:24.910Z,7,GR86-022-13,43.900000000000006,-0.082,0.836,2.63,4.0,,0.0,0.0,93.88
2025-08-15T04:45:24.953Z,7,GR86-022-13,42.8,-0.106,0.846,2.97,4.0,,0.0,0.0,
2025-08-15T04:45:24.997Z,7,GR86-022-13,39.7,-0.116,0.8180000000000001,4.57,4.0,,0.0,0.0,
2025-08-15T04:45:25.039Z,7,GR86-022-13,36.9,-0.105,0.809,7.52,4.0,,0.0,0.0,
2025-08-15T04:45:25.082Z,7,GR86-022-13,32.4,-0.111,0.772,8.07,4.0,3586.0,0.0,0.0,
2025-08-15T04:45:25.127Z,7,GR86-022-13,28.3,-0.1,0.724,11.71,4.0,,0.0,0.0,93.22
2025-08-15T04:45:25.169Z,7,GR86-022-13,23.4,-0.084,0.675,17.04,4.0,,0.0,0.0,
2025-08-15T04:45:25.212Z,7,GR86-022-13,19.3,-0.043,0.585,17.26,4.0,,0.0,0.0,
2025-08-15T04:45:25.255Z,7,GR86-022-13,12.9,-0.059,0.514,18.27,4.0,,0.0,0.0,
2025-08-15T04:45:25.298Z,7,GR86-022-13,2.2,-0.012,0.356,20.03,4.0,3556.0,0.0,0.0,
2025-08-15T04:45:25.341Z,7,GR86-022-13,-7.300000000000001,-0.037,0.225,21.93,4.0,,0.0,0.0,92.39
2025-08-15T04:45:25.384Z,7,GR86-022-13,-14.8,0.192,0.11,21.96,4.0,,0.0,0.0,
2025-08-15T04:45:25.428Z,7,GR86-022-13,-21.700000000000003,0.216,-0.056,22.09,4.0,,0.0,0.0,
2025-08-15T04:45:25.471Z,7,GR86-022-13,-28.200000000000003,0.027,-0.2,22.1,4.0,,0.0,0.0,
2025-08-15T04:45:25.514Z,7,GR86-022-13,-32.7,-0.018,-0.341,22.12,4.0,3553.0,0.0,0.0,
2025-08-15T04:45:25.558Z,7,GR86-022-13,-40.6,0.18,-0.522,22.11,4.0,,0.0,0.0,91.64
2025-08-15T04:45:25.601Z,7,GR86-022-13,-42.6,0.128,-0.606,22.11,4.0,,0.0,0.0,
2025-08-15T04:45:25.644Z,7,GR86-022-13,-43.8,0.002,-0.65,22.11,4.0,,0.0,0.0,
2025-08-15T04:45:25.688Z,7,GR86-022-13,-43.8,0.047,-0.718,22.1,4.0,,0.0,0.0,
2025-08-15T04:45:25.730Z,7,GR86-022-13,-43.8,0.118,-0.741,22.09,4.0,3450.0,0.0,0.0,
2025-08-15T04:45:25.773Z,7,GR86-022-13,-43.8,0.107,-0.757,22.09,4.0,,0.0,0.0,91.25
2025-08-15T04:45:25.817Z,7,GR86-022-13,-43.8,0.058,-0.764,22.89,4.0,,0.0,0.0,
2025-08-15T04:45:25.859Z,7,GR86-022-13,-43.8,0.103,-0.737,23.02,4.0,,0.0,0.0,
2025-08-15T04:45:25.902Z,7,GR86-022-13,-43.8,0.109,-0.769,23.08,4.0,,0.0,0.0,
2025-08-15T04:45:25.945Z,7,GR86-022-13,-43.8,0.12,-0.746,23.14,4.0,3602.0,0.0,0.0,
2025-08-15T04:45:25.988Z,7,GR86-022-13,-42.8,0.071,-0.761,23.23,4.0,,0.0,0.0,91.74
2025-08-15T04:45:26.032Z,7,GR86-022-13,-41.7,0.107,-0.759,23.3,4.0,,0.0,0.0,
2025-08-15T04:45:26.075Z,7,GR86-022-13,-39.900000000000006,0.106,-0.75,23.36,4.0,,0.0,0.0,
2025-08-15T04:45:26.118Z,7,GR86-022-13,-35.300000000000004,0.093,-0.715,23.52,4.0,,0.0,0.0,
2025-08-15T04:45:26.161Z,7,GR86-022-13,-31.1,0.112,-0.686,23.65,4.0,3648.0,0.0,0.0,
2025-08-15T04:45:26.204Z,7,GR86-022-13,-27.6,0.1,-0.631,23.74,4.0,,0.0,0.0,92.27
2025-08-15T04:45:26.248Z,7,GR86-022-13,-22.200000000000003,0.13,-0.5690000000000001,23.87,4.0,,0.0,0.0,
2025-08-15T04:45:26.291Z,7,GR86-022-13,-14.4,0.122,-0.518,23.97,4.0,,0.0,0.0,
2025-08-15T04:45:26.334Z,7,GR86-022-13,-7.5,0.14,-0.405,24.0,4.0,,0.0,0.0,
2025-08-15T04:45:26.378Z,7,GR86-022-13,2.5,0.119,-0.256,24.23,4.0,3655.0,0.0,0.0,
2025-08-15T04:45:26.421Z,7,GR86-022-13,8.8,0.13,-0.121,24.7,4.0,,0.0,0.0,92.76
2025-08-15T04:45:26.464Z,7,GR86-022-13,14.9,0.125,0.0,24.76,4.0,,0.0,0.0,
2025-08-15T04:45:26.508Z,7,GR86-022-13,19.4,0.114,0.133,24.73,4.0,,0.0,0.0,
2025-08-15T04:45:26.550Z,7,GR86-022-13,25.4,0.121,0.275,24.57,4.0,,0.0,0.0,
2025-08-15T04:45:26.593Z,7,GR86-022-13,32.7,0.109,0.379,24.24,4.0,3672.0,0.0,0.0,
2025-08-15T04:45:26.638Z,7,GR86-022-13,38.6,0.106,0.539,23.88,4.0,,0.0,0.0,93.37
2025-08-15T04:45:26.681Z,7,GR86-022-13,42.5,0.092,0.613,23.45,4.0,,0.0,0.0,
2025-08-15T04:45:26.724Z,7,GR86-022-13,43.5,0.107,0.684,22.77,4.0,,0.0,0.0,
2025-08-15T04:45:26.768Z,7,GR86-022-13,43.5,0.088,0.728,22.08,4.0,,0.0,0.0,
2025-08-15T04:45:26.810Z,7,GR86-022-13,43.5,0.081,0.766,22.0,4.0,3684.0,0.0,0.0,
2025-08-15T04:45:26.853Z,7,GR86-022-13,43.3,0.086,0.766,21.97,4.0,,0.0,0.0,94.06
2025-08-15T04:45:26.897Z,7,GR86-022-13,42.7,0.079,0.8150000000000001,18.81,4.0,,0.0,0.0,
2025-08-15T04:45:26.941Z,7,GR86-022-13,41.3,0.09,0.8150000000000001,7.56,4.0,,0.0,0.0,
2025-08-15T04:45:26.984Z,7,GR86-022-13,39.400000000000006,0.073,0.808,6.53,4.0,,0.0,0.0,
2025-08-15T04:45:27.028Z,7,GR86-022-13,37.1,0.062,0.787,4.3,4.0,3725.0,0.0,0.0,
2025-08-15T04:45:27.070Z,7,GR86-022-13,34.5,-0.012,0.759,3.82,4.0,,0.0,0.0,94.81
2025-08-15T04:45:27.113Z,7,GR86-022-13,31.8,-0.04,0.734,3.52,4.0,,0.0,0.0,
2025-08-15T04:45:27.157Z,7,GR86-022-13,27.1,-0.146,0.682,3.23,4.0,,0.0,0.0,
2025-08-15T04:45:27.199Z,7,GR86-022-13,23.5,-0.23,0.62,3.11,4.0,,0.0,0.0,
2025-08-15T04:45:27.242Z,7,GR86-022-13,19.1,-0.051,0.589,3.04,4.0,3756.0,0.0,0.0,
2025-08-15T04:45:27.285Z,7,GR86-022-13,13.9,-0.046,0.493,2.93,4.0,,0.0,0.0,96.03
2025-08-15T04:45:27.328Z,7,GR86-022-13,8.0,-0.019,0.442,2.79,4.0,,0.0,0.0,
2025-08-15T04:45:27.371Z,7,GR86-022-13,1.8,-0.082,0.352,2.92,4.0,,0.0,0.0,
2025-08-15T04:45:27.414Z,7,GR86-022-13,-4.6000000000000005,-0.149,0.256,3.48,4.0,,0.0,0.0,
2025-08-15T04:45:27.458Z,7,GR86-022-13,-14.0,-0.041,0.088,3.82,4.0,3674.0,0.0,0.0,
2025-08-15T04:45:27.501Z,7,GR86-022-13,-19.8,-0.052,-0.058,4.47,4.0,,0.0,0.0,95.87
2025-08-15T04:45:27.544Z,7,GR86-022-13,-25.1,-0.087,-0.195,7.19,4.0,,0.0,0.0,
2025-08-15T04:45:27.588Z,7,GR86-022-13,-30.200000000000003,-0.126,-0.303,9.86,4.0,,0.0,0.0,
2025-08-15T04:45:27.630Z,7,GR86-022-13,-34.4,-0.041,-0.429,9.73,4.0,,0.0,0.0,
2025-08-15T04:45:27.673Z,7,GR86-022-13,-37.7,-0.045,-0.528,10.1,4.0,3754.0,0.0,0.0,
2025-08-15T04:45:27.717Z,7,GR86-022-13,-40.900000000000006,-0.043,-0.635,13.37,4.0,,0.0,0.0,95.13
2025-08-15T04:45:27.759Z,7,GR86-022-13,-41.5,-0.048,-0.6980000000000001,14.45,4.0,,0.0,0.0,
2025-08-15T04:45:27.802Z,7,GR86-022-13,-41.5,-0.076,-0.717,18.64,4.0,,0.0,0.0,
2025-08-15T04:45:27.845Z,7,GR86-022-13,-41.5,-0.079,-0.774,19.81,4.0,,0.0,0.0,
2025-08-15T04:45:27.888Z,7,GR86-022-13,-41.5,-0.04,-0.759,20.31,4.0,3684.0,0.0,0.0,
2025-08-15T04:45:27.931Z,7,GR86-022-13,-41.5,-0.037,-0.779,20.72,4.0,,0.0,0.0,94.44
2025-08-15T04:45:27.974Z,7,GR86-022-13,-40.7,0.201,-0.755,19.31,4.0,,0.0,0.0,
2025-08-15T04:45:28.018Z,7,GR86-022-13,-39.3,0.063,-0.748,20.14,4.0,,0.0,0.0,
2025-08-15T04:45:28.061Z,7,GR86-022-13,-38.0,-0.019,-0.732,21.32,4.0,,0.0,0.0,
2025-08-15T04:45:28.103Z,7,GR86-022-13,-35.800000000000004,0.087,-0.7030000000000001,20.54,4.0,3729.0,0.0,0.0,
2025-08-15T04:45:28.148Z,7,GR86-022-13,-33.0,0.141,-0.726,20.29,4.0,,0.0,0.0,93.98
2025-08-15T04:45:28.190Z,7,GR86-022-13,-29.3,0.117,-0.645,20.67,4.0,,0.0,0.0,
2025-08-15T04:45:28.233Z,7,GR86-022-13,-25.0,0.046,-0.627,21.29,4.0,,0.0,0.0,
2025-08-15T04:45:28.278Z,7,GR86-022-13,-17.7,0.106,-0.538,21.67,4.0,,0.0,0.0,
2025-08-15T04:45:28.321Z,7,GR86-022-13,-11.1,0.142,-0.446,21.87,4.0,3672.0,0.0,0.0,
2025-08-15T04:45:28.364Z,7,GR86-022-13,-3.2,0.103,-0.361,21.96,4.0,,0.0,0.0,93.54
2025-08-15T04:45:28.408Z,7,GR86-022-13,4.800000000000001,0.107,-0.229,22.0,4.0,,0.0,0.0,
2025-08-15T04:45:28.450Z,7,GR86-022-13,11.7,0.103,-0.122,22.05,4.0,,0.0,0.0,
2025-08-15T04:45:28.493Z,7,GR86-022-13,17.6,0.141,0.035,22.06,4.0,,0.0,0.0,
2025-08-15T04:45:28.537Z,7,GR86-022-13,25.700000000000003,0.104,0.225,22.09,4.0,3708.0,0.0,0.0,
2025-08-15T04:45:28.579Z,7,GR86-022-13,30.8,0.101,0.351,22.09,4.0,,0.0,0.0,93.91
2025-08-15T04:45:28.622Z,7,GR86-022-13,35.7,0.105,0.456,22.1,4.0,,0.0,0.0,
2025-08-15T04:45:28.665Z,7,GR86-022-13,39.8,0.101,0.548,22.09,4.0,,0.0,0.0,
2025-08-15T04:45:28.708Z,7,GR86-022-13,42.8,0.09,0.636,22.09,4.0,,0.0,0.0,
2025-08-15T04:45:28.751Z,7,GR86-022-13,44.3,0.077,0.6980000000000001,22.09,4.0,3717.0,0.0,0.0,
2025-08-15T04:45:28.794Z,7,GR86-022-13,44.400000000000006,0.091,0.759,22.08,4.0,,0.0,0.0,94.49
2025-08-15T04:45:28.838Z,7,GR86-022-13,44.400000000000006,0.085,0.788,22.08,4.0,,0.0,0.0,
2025-08-15T04:45:28.881Z,7,GR86-022-13,44.400000000000006,0.084,0.807,22.06,4.0,,0.0,0.0,
2025-08-15T04:45:28.924Z,7,GR86-022-13,44.3,0.093,0.835,22.05,4.0,,0.0,0.0,
2025-08-15T04:45:28.968Z,7,GR86-022-13,44.2,0.088,0.806,22.06,4.0,3729.0,0.0,0.0,
2025-08-15T04:45:29.010Z,7,GR86-022-13,43.6,0.097,0.842,22.06,4.0,,0.0,0.0,95.14
2025-08-15T04:45:29.053Z,7,GR86-022-13,42.2,0.082,0.834,22.06,4.0,,0.0,0.0,
2025-08-15T04:45:29.099Z,7,GR86-022-13,39.5,0.085,0.8220000000000001,22.06,4.0,,0.0,0.0,
2025-08-15T04:45:29.141Z,7,GR86-022-13,36.7,0.097,0.767,22.03,4.0,,0.0,0.0,
2025-08-15T04:45:29.184Z,7,GR86-022-13,33.1,0.093,0.761,22.03,4.0,3763.0,0.0,0.0,
2025-08-15T04:45:29.228Z,7,GR86-022-13,28.9,0.102,0.6990000000000001,20.29,4.0,,0.0,0.0,95.77
2025-08-15T04:45:29.270Z,7,GR86-022-13,23.8,0.1,0.654,17.29,4.0,,0.0,0.0,
2025-08-15T04:45:29.313Z,7,GR86-022-13,17.900000000000002,0.109,0.578,8.59,4.0,,0.0,0.0,
2025-08-15T04:45:29.357Z,7,GR86-022-13,7.2,0.073,0.432,6.75,4.0,,0.0,0.0,
2025-08-15T04:45:29.399Z,7,GR86-022-13,-0.2,0.029,0.328,4.08,4.0,3783.0,0.0,0.0,
2025-08-15T04:45:29.442Z,7,GR86-022-13,-7.7,-0.004,0.2,3.74,4.0,,0.0,0.0,96.23
2025-08-15T04:45:29.485Z,7,GR86-022-13,-15.2,-0.035,0.069,3.49,4.0,,0.0,0.0,
2025-08-15T04:45:29.528Z,7,GR86-022-13,-22.200000000000003,-0.036,-0.084,3.27,4.0,,0.0,0.0,
2025-08-15T04:45:29.571Z,7,GR86-022-13,-28.9,-0.195,-0.218,3.14,4.0,,0.0,0.0,
2025-08-15T04:45:29.614Z,7,GR86-022-13,-34.4,-0.19,-0.37,3.0500000000000003,4.0,3801.0,0.0,0.0,
2025-08-15T04:45:29.659Z,7,GR86-022-13,-39.6,-0.03,-0.558,2.89,4.0,,0.0,0.0,96.72
2025-08-15T04:45:29.702Z,7,GR86-022-13,-41.8,-0.034,-0.641,2.75,4.0,,0.0,0.0,
2025-08-15T04:45:29.745Z,7,GR86-022-13,-42.8,-0.062,-0.714,2.66,4.0,,0.0,0.0,
2025-08-15T04:45:29.788Z,7,GR86-022-13,-42.900000000000006,-0.149,-0.762,2.61,4.0,,0.0,0.0,
2025-08-15T04:45:29.831Z,7,GR86-022-13,-42.900000000000006,-0.137,-0.797,2.54,4.0,3711.0,0.0,0.0,
2025-08-15T04:45:29.875Z,7,GR86-022-13,-42.900000000000006,-0.059,-0.783,2.5,4.0,,0.0,0.0,97.21
2025-08-15T04:45:29.918Z,7,GR86-022-13,-42.8,-0.055,-0.8270000000000001,2.49,4.0,,0.0,0.0,
2025-08-15T04:45:29.961Z,7,GR86-022-13,-42.3,-0.131,-0.841,2.51,4.0,,0.0,0.0,
2025-08-15T04:45:30.004Z,7,GR86-022-13,-41.7,-0.118,-0.8200000000000001,2.52,4.0,,0.0,0.0,
2025-08-15T04:45:30.048Z,7,GR86-022-13,-40.6,-0.09,-0.863,2.56,4.0,3806.0,0.0,0.0,
2025-08-15T04:45:30.091Z,7,GR86-022-13,-38.900000000000006,-0.068,-0.8320000000000001,2.91,4.0,,0.0,0.0,96.44
2025-08-15T04:45:30.134Z,7,GR86-022-13,-37.0,-0.091,-0.811,3.39,4.0,,0.0,0.0,
2025-08-15T04:45:30.178Z,7,GR86-022-13,-33.300000000000004,-0.1,-0.772,4.3500000000000005,4.0,,0.0,0.0,
2025-08-15T04:45:30.221Z,7,GR86-022-13,-29.9,-0.075,-0.732,4.6000000000000005,4.0,,0.0,0.0,
2025-08-15T04:45:30.264Z,7,GR86-022-13,-25.5,-0.081,-0.705,5.43,4.0,3761.0,0.0,0.0,
2025-08-15T04:45:30.308Z,7,GR86-022-13,-20.5,-0.083,-0.608,8.3,4.0,,0.0,0.0,95.66
2025-08-15T04:45:30.350Z,7,GR86-022-13,-14.9,-0.054,-0.5720000000000001,11.68,4.0,,0.0,0.0,
2025-08-15T04:45:30.393Z,7,GR86-022-13,-8.5,-0.039,-0.474,13.87,4.0,,0.0,0.0,
2025-08-15T04:45:30.437Z,7,GR86-022-13,2.0,-0.023,-0.327,17.76,4.0,,0.0,0.0,
2025-08-15T04:45:30.479Z,7,GR86-022-13,8.8,-0.021,-0.187,19.49,4.0,3649.0,0.0,0.0,
2025-08-15T04:45:30.522Z,7,GR86-022-13,15.2,-0.011,-0.057,20.63,4.0,,0.0,0.0,94.8
2025-08-15T04:45:30.565Z,7,GR86-022-13,21.3,-0.026,0.074,21.52,4.0,,0.0,0.0,
2025-08-15T04:45:30.608Z,7,GR86-022-13,27.1,0.007,0.23,22.03,4.0,,0.0,0.0,
2025-08-15T04:45:30.651Z,7,GR86-022-13,32.2,0.261,0.357,21.58,4.0,,0.0,0.0,
2025-08-15T04:45:30.694Z,7,GR86-022-13,36.5,0.167,0.478,21.86,4.0,3626.0,0.0,0.0,
2025-08-15T04:45:30.738Z,7,GR86-022-13,41.8,-0.034,0.607,22.02,4.0,,0.0,0.0,94.14
2025-08-15T04:45:30.781Z,7,GR86-022-13,43.6,0.1,0.679,22.03,4.0,,0.0,0.0,
2025-08-15T04:45:30.824Z,7,GR86-022-13,44.3,0.179,0.745,22.03,4.0,,0.0,0.0,
2025-08-15T04:45:30.868Z,7,GR86-022-13,44.400000000000006,0.091,0.779,22.04,4.0,,0.0,0.0,
2025-08-15T04:45:30.910Z,7,GR86-022-13,44.3,0.041,0.787,22.06,4.0,3643.0,0.0,0.0,
2025-08-15T04:45:30.953Z,7,GR86-022-13,44.400000000000006,0.083,0.796,22.06,4.0,,0.0,0.0,93.78
2025-08-15T04:45:30.997Z,7,GR86-022-13,44.3,0.113,0.8190000000000001,22.06,4.0,,0.0,0.0,
2025-08-15T04:45:31.039Z,7,GR86-022-13,44.3,0.064,0.8320000000000001,22.06,4.0,,0.0,0.0,
2025-08-15T04:45:31.082Z,7,GR86-022-13,43.5,0.066,0.812,22.06,4.0,,0.0,0.0,
2025-08-15T04:45:31.125Z,7,GR86-022-13,42.2,0.075,0.8220000000000001,22.07,4.0,3640.0,0.0,0.0,
2025-08-15T04:45:31.168Z,7,GR86-022-13,40.2,0.105,0.8140000000000001,22.05,4.0,,0.0,0.0,94.18
2025-08-15T04:45:31.211Z,7,GR86-022-13,37.5,0.089,0.784,22.06,4.0,,0.0,0.0,
2025-08-15T04:45:31.254Z,7,GR86-022-13,33.6,0.088,0.749,22.06,4.0,,0.0,0.0,
2025-08-15T04:45:31.298Z,7,GR86-022-13,26.5,0.103,0.662,21.27,4.0,,0.0,0.0,
2025-08-15T04:45:31.341Z,7,GR86-022-13,20.200000000000003,0.097,0.591,16.830000000000002,4.0,3712.0,0.0,0.0,
2025-08-15T04:45:31.384Z,7,GR86-022-13,12.9,0.098,0.503,7.67,4.0,,0.0,0.0,94.71
2025-08-15T04:45:31.428Z,7,GR86-022-13,4.6000000000000005,0.076,0.396,6.63,4.0,,0.0,0.0,
2025-08-15T04:45:31.471Z,7,GR86-022-13,-3.4000000000000004,0.057,0.296,5.0,4.0,,0.0,0.0,
2025-08-15T04:45:31.514Z,7,GR86-022-13,-11.0,0.002,0.128,3.88,4.0,,0.0,0.0,
2025-08-15T04:45:31.558Z,7,GR86-022-13,-21.3,-0.036,-0.058,3.43,4.0,3744.0,0.0,0.0,
2025-08-15T04:45:31.601Z,7,GR86-022-13,-27.9,-0.125,-0.225,3.2,4.0,,0.0,0.0,95.18
2025-08-15T04:45:31.644Z,7,GR86-022-13,-34.2,-0.236,-0.365,3.11,4.0,,0.0,0.0,
2025-08-15T04:45:31.688Z,7,GR86-022-13,-38.8,-0.075,-0.477,3.03,4.0,,0.0,0.0,
2025-08-15T04:45:31.730Z,7,GR86-022-13,-41.6,-0.047,-0.597,2.92,4.0,,0.0,0.0,
2025-08-15T04:45:31.773Z,7,GR86-022-13,-42.8,-0.047,-0.685,2.79,4.0,3713.0,0.0,0.0,
2025-08-15T04:45:31.817Z,7,GR86-022-13,-42.8,-0.106,-0.745,2.66,4.0,,0.0,0.0,95.7
2025-08-15T04:45:31.860Z,7,GR86-022-13,-42.8,-0.169,-0.789,2.62,4.0,,0.0,0.0,
2025-08-15T04:45:31.904Z,7,GR86-022-13,-42.8,-0.077,-0.785,2.58,4.0,,0.0,0.0,
2025-08-15T04:45:31.948Z,7,GR86-022-13,-42.8,-0.046,-0.8130000000000001,2.53,4.0,,0.0,0.0,
2025-08-15T04:45:31.991Z,7,GR86-022-13,-42.8,-0.077,-0.847,2.52,4.0,3784.0,0.0,0.0,
2025-08-15T04:45:32.078Z,7,GR86-022-13,-42.8,-0.139,-0.8180000000000001,2.5,4.0,,0.0,0.0,95.9
2025-08-15T04:45:32.121Z,7,GR86-022-13,-40.8,-0.074,-0.8190000000000001,2.48,4.0,,0.0,0.0,
2025-08-15T04:45:32.164Z,7,GR86-022-13,-38.8,-0.069,-0.803,2.48,4.0,,0.0,0.0,
2025-08-15T04:45:32.208Z,7,GR86-022-13,-36.1,-0.108,-0.787,2.48,4.0,3674.0,0.0,0.0,
2025-08-15T04:45:32.250Z,7,GR86-022-13,-32.6,-0.088,-0.767,2.48,4.0,,0.0,0.0,95.25
2025-08-15T04:45:32.293Z,7,GR86-022-13,-28.3,-0.078,-0.74,2.48,4.0,,0.0,0.0,
2025-08-15T04:45:32.337Z,7,GR86-022-13,-20.6,-0.092,-0.644,2.48,4.0,,0.0,0.0,
2025-08-15T04:45:32.381Z,7,GR86-022-13,-14.6,-0.086,-0.5720000000000001,2.47,4.0,,0.0,0.0,
2025-08-15T04:45:32.424Z,7,GR86-022-13,-7.800000000000001,-0.089,-0.471,2.48,4.0,3653.0,0.0,0.0,
2025-08-15T04:45:32.468Z,7,GR86-022-13,-0.5,-0.07,-0.354,2.5,4.0,,0.0,0.0,94.46
2025-08-15T04:45:32.510Z,7,GR86-022-13,6.4,-0.086,-0.235,2.56,4.0,,0.0,0.0,
2025-08-15T04:45:32.553Z,7,GR86-022-13,13.1,-0.071,-0.094,2.7,4.0,,0.0,0.0,
2025-08-15T04:45:32.597Z,7,GR86-022-13,22.4,-0.072,0.116,3.27,4.0,,0.0,0.0,
2025-08-15T04:45:32.641Z,7,GR86-022-13,28.6,-0.071,0.252,4.11,4.0,3612.0,0.0,0.0,
2025-08-15T04:45:32.684Z,7,GR86-022-13,34.4,-0.073,0.382,4.58,4.0,,0.0,0.0,92.85
2025-08-15T04:45:32.728Z,7,GR86-022-13,39.5,-0.078,0.499,4.72,4.0,,0.0,0.0,
2025-08-15T04:45:32.770Z,7,GR86-022-13,43.8,-0.084,0.606,5.84,4.0,,0.0,0.0,
2025-08-15T04:45:32.813Z,7,GR86-022-13,46.900000000000006,-0.092,0.6910000000000001,6.86,4.0,,0.0,0.0,
2025-08-15T04:45:32.857Z,7,GR86-022-13,49.1,-0.045,0.79,9.97,4.0,3576.0,0.0,0.0,
2025-08-15T04:45:32.899Z,7,GR86-022-13,49.1,-0.065,0.8320000000000001,17.67,4.0,,0.0,0.0,92.18
2025-08-15T04:45:32.942Z,7,GR86-022-13,49.1,-0.048,0.866,20.45,4.0,,0.0,0.0,
2025-08-15T04:45:32.987Z,7,GR86-022-13,49.1,-0.101,0.885,21.45,4.0,,0.0,0.0,
2025-08-15T04:45:33.029Z,7,GR86-022-13,49.1,-0.091,0.888,21.58,4.0,,0.0,0.0,
2025-08-15T04:45:33.072Z,7,GR86-022-13,49.1,-0.056,0.91,21.72,4.0,3552.0,0.0,0.0,
2025-08-15T04:45:33.115Z,7,GR86-022-13,48.1,0.07,0.887,21.83,4.0,,0.0,0.0,91.58
2025-08-15T04:45:33.158Z,7,GR86-022-13,45.2,0.194,0.922,21.9,4.0,,0.0,0.0,
2025-08-15T04:45:33.201Z,7,GR86-022-13,43.0,-0.001,0.839,21.96,4.0,,0.0,0.0,
2025-08-15T04:45:33.244Z,7,GR86-022-13,40.0,-0.006,0.844,21.99,4.0,,0.0,0.0,
2025-08-15T04:45:33.288Z,7,GR86-022-13,35.9,0.144,0.779,22.03,4.0,3717.0,0.0,0.0,
2025-08-15T04:45:33.330Z,7,GR86-022-13,31.200000000000003,0.187,0.717,22.06,4.0,,0.0,0.0,91.89
2025-08-15T04:45:33.373Z,7,GR86-022-13,25.8,0.086,0.664,22.06,4.0,,0.0,0.0,
2025-08-15T04:45:33.417Z,7,GR86-022-13,15.1,0.074,0.491,22.09,4.0,,0.0,0.0,
2025-08-15T04:45:33.459Z,7,GR86-022-13,6.7,0.14,0.389,22.09,4.0,,0.0,0.0,
2025-08-15T04:45:33.502Z,7,GR86-022-13,-1.7000000000000002,0.144,0.282,22.09,4.0,3661.0,0.0,0.0,
2025-08-15T04:45:33.545Z,7,GR86-022-13,-10.3,0.078,0.135,20.62,4.0,,0.0,0.0,91.84
2025-08-15T04:45:33.588Z,7,GR86-022-13,-18.5,0.092,0.007,6.42,4.0,,0.0,0.0,
2025-08-15T04:45:33.631Z,7,GR86-022-13,-26.4,0.121,-0.161,4.11,4.0,,0.0,0.0,
2025-08-15T04:45:33.674Z,7,GR86-022-13,-33.6,0.099,-0.3,4.17,4.0,,0.0,0.0,
2025-08-15T04:45:33.718Z,7,GR86-022-13,-42.5,-0.065,-0.505,3.97,4.0,3615.0,0.0,0.0,
2025-08-15T04:45:33.760Z,7,GR86-022-13,-46.2,-0.161,-0.603,3.68,4.0,,0.0,0.0,91.34
2025-08-15T04:45:33.803Z,7,GR86-022-13,-47.900000000000006,-0.244,-0.738,3.38,4.0,,0.0,0.0,
2025-08-15T04:45:33.848Z,7,GR86-022-13,-47.900000000000006,-0.062,-0.758,3.2,4.0,,0.0,0.0,
2025-08-15T04:45:33.890Z,7,GR86-022-13,-47.2,-0.053,-0.793,3.12,4.0,,0.0,0.0,
2025-08-15T04:45:33.933Z,7,GR86-022-13,-46.400000000000006,-0.044,-0.867,3.0,4.0,3548.0,0.0,0.0,
2025-08-15T04:45:33.978Z,7,GR86-022-13,-46.2,-0.069,-0.8300000000000001,2.86,4.0,,0.0,0.0,91.93
2025-08-15T04:45:34.021Z,7,GR86-022-13,-46.2,-0.191,-0.877,2.75,4.0,,0.0,0.0,
2025-08-15T04:45:34.064Z,7,GR86-022-13,-46.0,-0.107,-0.873,2.66,4.0,,0.0,0.0,
2025-08-15T04:45:34.108Z,7,GR86-022-13,-45.2,-0.046,-0.844,2.63,4.0,,0.0,0.0,
2025-08-15T04:45:34.150Z,7,GR86-022-13,-43.8,-0.059,-0.876,2.58,4.0,3637.0,0.0,0.0,
2025-08-15T04:45:34.193Z,7,GR86-022-13,-42.1,-0.124,-0.8210000000000001,2.54,4.0,,0.0,0.0,92.16
2025-08-15T04:45:34.237Z,7,GR86-022-13,-38.5,-0.083,-0.81,2.52,4.0,,0.0,0.0,
2025-08-15T04:45:34.279Z,7,GR86-022-13,-34.7,-0.065,-0.79,2.51,4.0,,0.0,0.0,
2025-08-15T04:45:34.322Z,7,GR86-022-13,-29.4,-0.069,-0.735,2.5,4.0,,0.0,0.0,
2025-08-15T04:45:34.365Z,7,GR86-022-13,-23.1,-0.098,-0.667,2.51,4.0,3579.0,0.0,0.0,
2025-08-15T04:45:34.408Z,7,GR86-022-13,-15.6,-0.074,-0.5730000000000001,2.5,4.0,,0.0,0.0,92.32
2025-08-15T04:45:34.451Z,7,GR86-022-13,-6.7,-0.058,-0.493,2.5,4.0,,0.0,0.0,
2025-08-15T04:45:34.494Z,7,GR86-022-13,2.8000000000000003,-0.054,-0.356,2.5,4.0,,0.0,0.0,
2025-08-15T04:45:34.538Z,7,GR86-022-13,15.9,-0.082,-0.129,2.5,4.0,,0.0,0.0,
2025-08-15T04:45:34.581Z,7,GR86-022-13,23.3,-0.081,0.022,2.5,4.0,3512.0,0.0,0.0,
2025-08-15T04:45:34.624Z,7,GR86-022-13,30.4,-0.072,0.193,2.5,4.0,,0.0,0.0,90.8
2025-08-15T04:45:34.668Z,7,GR86-022-13,36.6,-0.087,0.346,2.51,4.0,,0.0,0.0,
2025-08-15T04:45:34.711Z,7,GR86-022-13,41.6,-0.096,0.487,2.51,4.0,,0.0,0.0,
2025-08-15T04:45:34.753Z,7,GR86-022-13,44.7,-0.101,0.609,2.51,4.0,,0.0,0.0,
2025-08-15T04:45:34.797Z,7,GR86-022-13,45.400000000000006,-0.081,0.726,2.5,4.0,3470.0,0.0,0.0,
2025-08-15T04:45:34.841Z,7,GR86-022-13,44.400000000000006,-0.095,0.772,2.5,4.0,,0.0,0.0,90.01
2025-08-15T04:45:34.884Z,7,GR86-022-13,42.1,-0.091,0.8,2.5,4.0,,4.18,4.305,
2025-08-15T04:45:34.928Z,7,GR86-022-13,38.400000000000006,-0.107,0.783,2.5,4.0,,7.205,7.495,
2025-08-15T04:45:34.970Z,7,GR86-022-13,34.0,-0.154,0.751,2.5,4.0,,9.005,9.125,
2025-08-15T04:45:35.013Z,7,GR86-022-13,28.700000000000003,-0.22,0.728,2.5,4.0,3441.0,10.865,10.835,
2025-08-15T04:45:35.057Z,7,GR86-022-13,20.9,-0.264,0.617,2.5,4.0,,12.74,12.835,89.39
2025-08-15T04:45:35.099Z,7,GR86-022-13,16.0,-0.259,0.558,2.5,4.0,,13.11,13.245,
2025-08-15T04:45:35.142Z,7,GR86-022-13,10.7,-0.28,0.473,2.5,4.0,,13.11,13.52,
2025-08-15T04:45:35.185Z,7,GR86-022-13,6.0,-0.281,0.37,2.5,4.0,,12.985,13.245,
2025-08-15T04:45:35.228Z,7,GR86-022-13,2.6,-0.274,0.281,2.5,4.0,3424.0,12.835,13.245,
2025-08-15T04:45:35.271Z,7,GR86-022-13,1.1,-0.286,0.172,2.5,4.0,,13.045,13.245,88.85000000000001
2025-08-15T04:45:35.314Z,7,GR86-022-13,0.5,-0.283,0.101,2.5,4.0,,13.11,13.4,
2025-08-15T04:45:35.358Z,7,GR86-022-13,-3.5,-0.285,-0.008,2.5,4.0,,13.46,13.61,
2025-08-15T04:45:35.401Z,7,GR86-022-13,-4.5,-0.285,-0.057,2.5,4.0,,13.37,13.61,
2025-08-15T04:45:35.444Z,7,GR86-022-13,-4.5,-0.297,-0.089,2.49,4.0,3371.0,13.46,13.675,
2025-08-15T04:45:35.488Z,7,GR86-022-13,-4.5,-0.293,-0.08,2.5,4.0,,13.795,13.95,86.14
2025-08-15T04:45:35.531Z,7,GR86-022-13,-4.5,-0.305,-0.096,2.5,4.0,,13.795,14.025,
2025-08-15T04:45:35.574Z,7,GR86-022-13,-4.5,-0.298,-0.073,2.5,4.0,,13.915,14.3,
2025-08-15T04:45:35.618Z,7,GR86-022-13,-6.0,-0.303,-0.081,2.5,4.0,,14.45,14.635,
2025-08-15T04:45:35.660Z,7,GR86-022-13,-7.6,-0.304,-0.062,2.5,4.0,3287.0,14.605,14.94,
2025-08-15T04:45:35.703Z,7,GR86-022-13,-9.0,-0.314,-0.097,2.5,4.0,,14.785,15.0,84.06
2025-08-15T04:45:35.748Z,7,GR86-022-13,-10.1,-0.312,-0.098,2.5,4.0,,14.88,15.305,
2025-08-15T04:45:35.791Z,7,GR86-022-13,-10.5,-0.316,-0.12,2.5,4.0,,14.785,15.0,
2025-08-15T04:45:35.835Z,7,GR86-022-13,-10.8,-0.313,-0.126,2.5,4.0,,14.815,15.03,
2025-08-15T04:45:35.878Z,7,GR86-022-13,-11.4,-0.318,-0.145,2.5,4.0,3130.0,14.545,15.0,
2025-08-15T04:45:35.921Z,7,GR86-022-13,-12.2,-0.31,-0.127,2.5,4.0,,14.45,14.94,81.98
2025-08-15T04:45:35.964Z,7,GR86-022-13,-13.5,-0.311,-0.161,2.5,4.0,,13.64,14.175,
2025-08-15T04:45:36.008Z,7,GR86-022-13,-14.8,-0.282,-0.169,2.5,4.0,,8.36,9.185,
2025-08-15T04:45:36.050Z,7,GR86-022-13,-15.7,-0.157,-0.18,2.5,4.0,,2.52,3.065,
2025-08-15T04:45:36.093Z,7,GR86-022-13,-16.400000000000002,-0.097,-0.219,2.5,4.0,3047.0,0.0,0.0,
2025-08-15T04:45:36.137Z,7,GR86-022-13,-17.5,-0.078,-0.225,2.5,4.0,,0.0,0.0,79.82000000000001
2025-08-15T04:45:36.179Z,7,GR86-022-13,-18.6,-0.068,-0.252,2.5,4.0,,0.0,0.0,
2025-08-15T04:45:36.222Z,7,GR86-022-13,-19.6,-0.066,-0.258,2.5,4.0,,0.0,0.0,
2025-08-15T04:45:36.265Z,7,GR86-022-13,-20.4,-0.083,-0.298,2.5,4.0,,0.0,0.0,
2025-08-15T04:45:36.308Z,7,GR86-022-13,-20.6,-0.073,-0.285,2.5,4.0,2973.0,0.0,0.0,
2025-08-15T04:45:36.351Z,7,GR86-022-13,-20.700000000000003,-0.075,-0.307,2.5,4.0,,0.0,0.0,77.71000000000001
2025-08-15T04:45:36.394Z,7,GR86-022-13,-20.8,-0.064,-0.304,2.5,4.0,,0.0,0.0,
2025-08-15T04:45:36.438Z,7,GR86-022-13,-21.700000000000003,-0.076,-0.316,2.5,4.0,,0.0,0.0,
2025-08-15T04:45:36.481Z,7,GR86-022-13,-22.200000000000003,-0.078,-0.301,2.5,4.0,,0.0,0.0,
2025-08-15T04:45:36.524Z,7,GR86-022-13,-22.700000000000003,-0.073,-0.307,2.49,4.0,2961.0,0.0,0.0,
2025-08-15T04:45:36.568Z,7,GR86-022-13,-22.9,-0.076,-0.337,2.49,4.0,,0.0,0.0,76.86
2025-08-15T04:45:36.611Z,7,GR86-022-13,-23.0,-0.067,-0.315,2.5,4.0,,0.0,0.0,
2025-08-15T04:45:36.653Z,7,GR86-022-13,-23.1,-0.075,-0.331,2.5,4.0,,0.0,0.0,
2025-08-15T04:45:36.697Z,7,GR86-022-13,-23.1,-0.065,-0.32,2.5,4.0,,0.0,0.0,
2025-08-15T04:45:36.739Z,7,GR86-022-13,-23.6,-0.082,-0.335,2.5,4.0,2940.0,0.0,0.0,
2025-08-15T04:45:36.782Z,7,GR86-022-13,-24.9,-0.066,-0.321,2.5,4.0,,0.0,0.0,76.31
2025-08-15T04:45:36.825Z,7,GR86-022-13,-26.3,-0.078,-0.345,2.5,4.0,,0.0,0.0,
2025-08-15T04:45:36.868Z,7,GR86-022-13,-27.700000000000003,-0.075,-0.355,2.5,4.0,,0.0,0.0,
2025-08-15T04:45:36.911Z,7,GR86-022-13,-28.6,-0.083,-0.376,2.5,4.0,,0.0,0.0,
2025-08-15T04:45:36.955Z,7,GR86-022-13,-28.9,-0.081,-0.389,2.5,4.0,2922.0,0.0,0.0,
2025-08-15T04:45:36.998Z,7,GR86-022-13,-29.3,-0.07,-0.394,3.56,4.0,,0.0,0.0,75.83
2025-08-15T04:45:37.041Z,7,GR86-022-13,-29.4,-0.074,-0.411,7.2,4.0,,0.0,0.0,
2025-08-15T04:45:37.084Z,7,GR86-022-13,-29.700000000000003,-0.066,-0.402,12.53,4.0,,0.0,0.0,
2025-08-15T04:45:37.128Z,7,GR86-022-13,-30.4,-0.078,-0.432,16.28,4.0,,0.0,0.0,
2025-08-15T04:45:37.171Z,7,GR86-022-13,-30.6,-0.03,-0.42,17.03,4.0,2906.0,0.0,0.0,
2025-08-15T04:45:37.214Z,7,GR86-022-13,-30.700000000000003,-0.045,-0.429,18.19,4.0,,0.0,0.0,75.37
2025-08-15T04:45:37.258Z,7,GR86-022-13,-30.8,-0.039,-0.413,21.59,4.0,,0.0,0.0,
2025-08-15T04:45:37.301Z,7,GR86-022-13,-30.8,-0.027,-0.435,21.62,4.0,,0.0,0.0,
2025-08-15T04:45:37.344Z,7,GR86-022-13,-30.9,0.147,-0.42,21.71,4.0,,0.0,0.0,
2025-08-15T04:45:37.388Z,7,GR86-022-13,-31.0,0.166,-0.414,21.81,4.0,2889.0,0.0,0.0,
2025-08-15T04:45:37.430Z,7,GR86-022-13,-31.0,0.064,-0.443,21.87,4.0,,0.0,0.0,74.91
2025-08-15T04:45:37.473Z,7,GR86-022-13,-31.4,0.049,-0.374,21.94,4.0,,0.0,0.0,
2025-08-15T04:45:37.517Z,7,GR86-022-13,-32.300000000000004,0.152,-0.428,22.03,4.0,,0.0,0.0,
2025-08-15T04:45:37.559Z,7,GR86-022-13,-32.800000000000004,0.119,-0.381,22.06,4.0,,0.0,0.0,
2025-08-15T04:45:37.602Z,7,GR86-022-13,-33.7,0.086,-0.39,22.16,4.0,2956.0,0.0,0.0,
2025-08-15T04:45:37.648Z,7,GR86-022-13,-34.2,0.075,-0.418,22.39,4.0,,0.0,0.0,74.44
2025-08-15T04:45:37.691Z,7,GR86-022-13,-34.300000000000004,0.126,-0.411,22.63,4.0,,0.0,0.0,
2025-08-15T04:45:37.734Z,7,GR86-022-13,-34.300000000000004,0.124,-0.43,22.87,4.0,,0.0,0.0,
2025-08-15T04:45:37.778Z,7,GR86-022-13,-34.300000000000004,0.108,-0.418,23.31,4.0,,0.0,0.0,
2025-08-15T04:45:37.821Z,7,GR86-022-13,-34.300000000000004,0.124,-0.435,23.42,4.0,2923.0,0.0,0.0,
2025-08-15T04:45:37.864Z,7,GR86-022-13,-34.300000000000004,0.146,-0.422,23.47,4.0,,0.0,0.0,74.44
2025-08-15T04:45:37.908Z,7,GR86-022-13,-34.300000000000004,0.115,-0.45,23.71,4.0,,0.0,0.0,
2025-08-15T04:45:37.950Z,7,GR86-022-13,-34.2,0.106,-0.429,23.9,4.0,,0.0,0.0,
2025-08-15T04:45:37.993Z,7,GR86-022-13,-34.300000000000004,0.11,-0.447,24.02,4.0,,0.0,0.0,
2025-08-15T04:45:38.037Z,7,GR86-022-13,-34.300000000000004,0.123,-0.427,24.66,4.0,2968.0,0.0,0.0,
2025-08-15T04:45:38.081Z,7,GR86-022-13,-34.5,0.112,-0.429,24.82,4.0,,0.0,0.0,75.86
2025-08-15T04:45:38.124Z,7,GR86-022-13,-34.9,0.107,-0.427,25.02,4.0,,0.0,0.0,
2025-08-15T04:45:38.168Z,7,GR86-022-13,-35.5,0.142,-0.446,25.24,4.0,,0.0,0.0,
2025-08-15T04:45:38.210Z,7,GR86-022-13,-35.9,0.124,-0.453,25.51,4.0,,0.0,0.0,
2025-08-15T04:45:38.253Z,7,GR86-022-13,-36.0,0.124,-0.444,25.64,4.0,2990.0,0.0,0.0,
2025-08-15T04:45:38.297Z,7,GR86-022-13,-36.0,0.133,-0.453,25.67,4.0,,0.0,0.0,76.68
2025-08-15T04:45:38.341Z,7,GR86-022-13,-36.0,0.151,-0.461,25.78,4.0,,0.0,0.0,
2025-08-15T04:45:38.384Z,7,GR86-022-13,-36.0,0.12,-0.473,26.09,4.0,,0.0,0.0,
2025-08-15T04:45:38.428Z,7,GR86-022-13,-36.0,0.137,-0.463,26.46,4.0,,0.0,0.0,
2025-08-15T04:45:38.470Z,7,GR86-022-13,-36.0,0.125,-0.475,26.78,4.0,3017.0,0.0,0.0,
2025-08-15T04:45:38.513Z,7,GR86-022-13,-36.0,0.129,-0.472,26.88,4.0,,0.0,0.0,77.54
2025-08-15T04:45:38.557Z,7,GR86-022-13,-36.0,0.122,-0.489,27.04,4.0,,0.0,0.0,
2025-08-15T04:45:38.599Z,7,GR86-022-13,-36.0,0.135,-0.478,27.18,4.0,,0.0,0.0,
2025-08-15T04:45:38.643Z,7,GR86-022-13,-36.0,0.135,-0.493,27.26,4.0,,0.0,0.0,
2025-08-15T04:45:38.687Z,7,GR86-022-13,-36.0,0.131,-0.468,27.34,4.0,3097.0,0.0,0.0,
2025-08-15T04:45:38.729Z,7,GR86-022-13,-36.0,0.135,-0.475,27.48,4.0,,0.0,0.0,78.39
2025-08-15T04:45:38.772Z,7,GR86-022-13,-36.0,0.122,-0.475,27.52,4.0,,0.0,0.0,
2025-08-15T04:45:38.815Z,7,GR86-022-13,-36.0,0.142,-0.468,27.66,4.0,,0.0,0.0,
2025-08-15T04:45:38.858Z,7,GR86-022-13,-34.9,0.147,-0.482,28.09,4.0,,0.0,0.0,
2025-08-15T04:45:38.901Z,7,GR86-022-13,-34.7,0.145,-0.463,28.19,4.0,3131.0,0.0,0.0,
2025-08-15T04:45:38.944Z,7,GR86-022-13,-34.7,0.127,-0.467,28.49,4.0,,0.0,0.0,79.3
2025-08-15T04:45:38.988Z,7,GR86-022-13,-34.7,0.147,-0.47,28.63,4.0,,0.0,0.0,
2025-08-15T04:45:39.030Z,7,GR86-022-13,-34.7,0.142,-0.471,28.7,4.0,,0.0,0.0,
2025-08-15T04:45:39.073Z,7,GR86-022-13,-34.7,0.153,-0.478,28.86,4.0,,0.0,0.0,
2025-08-15T04:45:39.117Z,7,GR86-022-13,-35.800000000000004,0.107,-0.476,29.13,4.0,3171.0,0.0,0.0,
2025-08-15T04:45:39.159Z,7,GR86-022-13,-36.8,0.187,-0.483,29.2,4.0,,0.0,0.0,80.21000000000001
2025-08-15T04:45:39.202Z,7,GR86-022-13,-38.400000000000006,0.109,-0.459,29.26,4.0,,0.0,0.0,
2025-08-15T04:45:39.245Z,7,GR86-022-13,-39.400000000000006,0.157,-0.519,29.44,4.0,,0.0,0.0,
2025-08-15T04:45:39.288Z,7,GR86-022-13,-39.5,0.127,-0.518,29.82,4.0,,0.0,0.0,
2025-08-15T04:45:39.331Z,7,GR86-022-13,-39.5,0.151,-0.519,29.89,4.0,3198.0,0.0,0.0,
2025-08-15T04:45:39.374Z,7,GR86-022-13,-39.5,0.162,-0.548,30.02,4.0,,0.0,0.0,81.13
2025-08-15T04:45:39.418Z,7,GR86-022-13,-39.5,0.137,-0.541,30.16,4.0,,0.0,0.0,
2025-08-15T04:45:39.460Z,7,GR86-022-13,-39.5,0.137,-0.554,30.2,4.0,,0.0,0.0,
2025-08-15T04:45:39.504Z,7,GR86-022-13,-39.5,0.15,-0.545,30.24,4.0,,0.0,0.0,
2025-08-15T04:45:39.547Z,7,GR86-022-13,-39.5,0.148,-0.552,30.27,4.0,3250.0,0.0,0.0,
2025-08-15T04:45:39.589Z,7,GR86-022-13,-39.5,0.152,-0.553,30.24,4.0,,0.0,0.0,82.07000000000001
2025-08-15T04:45:39.632Z,7,GR86-022-13,-39.5,0.153,-0.552,30.24,4.0,,0.0,0.0,
2025-08-15T04:45:39.678Z,7,GR86-022-13,-39.5,0.149,-0.5730000000000001,30.17,4.0,,0.0,0.0,
2025-08-15T04:45:39.721Z,7,GR86-022-13,-39.6,0.131,-0.553,30.04,4.0,,0.0,0.0,
2025-08-15T04:45:39.808Z,7,GR86-022-13,-40.0,0.149,-0.562,28.48,4.0,3284.0,0.0,0.0,83.04
2025-08-15T04:45:39.850Z,7,GR86-022-13,-40.0,0.137,-0.538,26.96,4.0,,0.0,0.0,
2025-08-15T04:45:39.893Z,7,GR86-022-13,-40.0,0.146,-0.552,25.5,4.0,,0.0,0.0,
2025-08-15T04:45:39.937Z,7,GR86-022-13,-40.0,0.151,-0.553,24.28,4.0,,0.0,0.0,
2025-08-15T04:45:39.979Z,7,GR86-022-13,-40.0,0.102,-0.58,23.91,4.0,3327.0,0.0,0.0,
2025-08-15T04:45:40.022Z,7,GR86-022-13,-40.0,0.11,-0.5660000000000001,23.96,4.0,,0.0,0.0,83.95
2025-08-15T04:45:40.065Z,7,GR86-022-13,-40.0,0.113,-0.586,24.07,4.0,,0.0,0.0,
2025-08-15T04:45:40.108Z,7,GR86-022-13,-40.0,0.125,-0.583,24.29,4.0,,0.0,0.0,
2025-08-15T04:45:40.151Z,7,GR86-022-13,-39.900000000000006,0.114,-0.584,24.54,4.0,,0.0,0.0,
2025-08-15T04:45:40.194Z,7,GR86-022-13,-39.400000000000006,0.097,-0.601,24.63,4.0,3356.0,0.0,0.0,
2025-08-15T04:45:40.238Z,7,GR86-022-13,-39.3,0.115,-0.588,24.66,4.0,,0.0,0.0,84.92
2025-08-15T04:45:40.281Z,7,GR86-022-13,-39.3,0.126,-0.612,24.66,4.0,,0.0,0.0,
2025-08-15T04:45:40.324Z,7,GR86-022-13,-39.2,0.092,-0.588,24.67,4.0,,0.0,0.0,
2025-08-15T04:45:40.368Z,7,GR86-022-13,-38.900000000000006,0.1,-0.615,24.68,4.0,,0.0,0.0,
2025-08-15T04:45:40.410Z,7,GR86-022-13,-38.5,0.098,-0.607,24.68,4.0,3401.0,0.0,0.0,
2025-08-15T04:45:40.453Z,7,GR86-022-13,-37.9,0.124,-0.596,24.67,4.0,,0.0,0.0,85.83
2025-08-15T04:45:40.499Z,7,GR86-022-13,-37.5,0.124,-0.5720000000000001,24.66,4.0,,0.0,0.0,
2025-08-15T04:45:40.541Z,7,GR86-022-13,-37.4,0.134,-0.595,24.58,4.0,,0.0,0.0,
2025-08-15T04:45:40.584Z,7,GR86-022-13,-37.4,0.115,-0.578,24.56,4.0,,0.0,0.0,
2025-08-15T04:45:40.628Z,7,GR86-022-13,-37.0,0.142,-0.587,24.53,4.0,3417.0,0.0,0.0,
2025-08-15T04:45:40.670Z,7,GR86-022-13,-36.6,0.116,-0.58,24.5,4.0,,0.0,0.0,86.59
2025-08-15T04:45:40.713Z,7,GR86-022-13,-36.0,0.13,-0.554,24.5,4.0,,0.0,0.0,
2025-08-15T04:45:40.757Z,7,GR86-022-13,-35.1,0.111,-0.5680000000000001,24.53,4.0,,0.0,0.0,
2025-08-15T04:45:40.799Z,7,GR86-022-13,-34.4,0.132,-0.531,24.55,4.0,,0.0,0.0,
2025-08-15T04:45:40.842Z,7,GR86-022-13,-33.800000000000004,0.108,-0.557,24.67,4.0,3442.0,0.0,0.0,
2025-08-15T04:45:40.885Z,7,GR86-022-13,-33.0,0.122,-0.53,24.87,4.0,,0.0,0.0,88.06
2025-08-15T04:45:40.928Z,7,GR86-022-13,-32.2,0.118,-0.547,24.98,4.0,,0.0,0.0,
2025-08-15T04:45:40.971Z,7,GR86-022-13,-32.0,0.13,-0.534,25.07,4.0,,0.0,0.0,
2025-08-15T04:45:41.014Z,7,GR86-022-13,-31.9,0.128,-0.515,25.24,4.0,,0.0,0.0,
2025-08-15T04:45:41.058Z,7,GR86-022-13,-31.9,0.114,-0.501,25.33,4.0,3470.0,0.0,0.0,
2025-08-15T04:45:41.101Z,7,GR86-022-13,-31.9,0.113,-0.501,25.45,4.0,,0.0,0.0,88.72
2025-08-15T04:45:41.144Z,7,GR86-022-13,-31.700000000000003,0.114,-0.486,25.52,4.0,,0.0,0.0,
2025-08-15T04:45:41.188Z,7,GR86-022-13,-31.700000000000003,0.122,-0.482,25.54,4.0,,0.0,0.0,
2025-08-15T04:45:41.231Z,7,GR86-022-13,-31.700000000000003,0.121,-0.482,25.53,4.0,,0.0,0.0,
2025-08-15T04:45:41.274Z,7,GR86-022-13,-31.6,0.116,-0.48,25.53,4.0,3490.0,0.0,0.0,
2025-08-15T04:45:41.318Z,7,GR86-022-13,-31.6,0.108,-0.499,25.42,4.0,,0.0,0.0,89.5
2025-08-15T04:45:41.360Z,7,GR86-022-13,-31.6,0.143,-0.492,25.22,4.0,,0.0,0.0,
2025-08-15T04:45:41.403Z,7,GR86-022-13,-31.6,0.121,-0.487,25.0,4.0,,0.0,0.0,
2025-08-15T04:45:41.448Z,7,GR86-022-13,-31.6,0.131,-0.482,24.65,4.0,,0.0,0.0,
2025-08-15T04:45:41.535Z,7,GR86-022-13,-31.6,0.125,-0.489,23.8,4.0,,0.0,0.0,90.24
2025-08-15T04:45:41.578Z,7,GR86-022-13,-31.6,0.119,-0.502,23.29,4.0,3540.0,0.0,0.0,
2025-08-15T04:45:41.621Z,7,GR86-022-13,-31.6,0.116,-0.492,23.05,4.0,,0.0,0.0,
2025-08-15T04:45:41.664Z,7,GR86-022-13,-31.6,0.096,-0.494,22.56,4.0,,0.0,0.0,
2025-08-15T04:45:41.708Z,7,GR86-022-13,-31.6,0.111,-0.498,21.93,4.0,3566.0,0.0,0.0,
2025-08-15T04:45:41.750Z,7,GR86-022-13,-31.6,0.119,-0.512,21.87,4.0,,0.0,0.0,90.91
2025-08-15T04:45:41.793Z,7,GR86-022-13,-31.200000000000003,0.106,-0.499,21.86,4.0,,0.0,0.0,
2025-08-15T04:45:41.837Z,7,GR86-022-13,-30.200000000000003,0.108,-0.508,21.87,4.0,,0.0,0.0,
2025-08-15T04:45:41.879Z,7,GR86-022-13,-29.1,0.097,-0.508,21.85,4.0,,0.0,0.0,
2025-08-15T04:45:41.922Z,7,GR86-022-13,-28.8,0.115,-0.487,21.87,4.0,3597.0,0.0,0.0,
2025-08-15T04:45:41.965Z,7,GR86-022-13,-28.6,0.085,-0.505,21.87,4.0,,0.0,0.0,91.59
2025-08-15T04:45:42.008Z,7,GR86-022-13,-28.5,0.108,-0.484,21.87,4.0,,0.0,0.0,
2025-08-15T04:45:42.051Z,7,GR86-022-13,-28.200000000000003,0.095,-0.495,21.87,4.0,,0.0,0.0,
2025-08-15T04:45:42.094Z,7,GR86-022-13,-27.5,0.107,-0.485,21.87,4.0,,0.0,0.0,
2025-08-15T04:45:42.138Z,7,GR86-022-13,-26.4,0.106,-0.477,21.88,4.0,3630.0,0.0,0.0,
2025-08-15T04:45:42.181Z,7,GR86-022-13,-25.8,0.107,-0.458,21.9,4.0,,0.0,0.0,92.15
2025-08-15T04:45:42.224Z,7,GR86-022-13,-25.8,0.11,-0.457,21.9,4.0,,0.0,0.0,
2025-08-15T04:45:42.268Z,7,GR86-022-13,-25.8,0.111,-0.446,21.93,4.0,,0.0,0.0,
2025-08-15T04:45:42.311Z,7,GR86-022-13,-25.8,0.104,-0.44,21.94,4.0,,0.0,0.0,
2025-08-15T04:45:42.353Z,7,GR86-022-13,-25.8,0.093,-0.427,21.94,4.0,3640.0,0.0,0.0,
2025-08-15T04:45:42.397Z,7,GR86-022-13,-25.700000000000003,0.123,-0.41,21.24,4.0,,0.0,0.0,92.72
2025-08-15T04:45:42.439Z,7,GR86-022-13,-25.5,0.108,-0.421,18.7,4.0,,0.0,0.0,
2025-08-15T04:45:42.482Z,7,GR86-022-13,-24.5,0.118,-0.418,14.45,4.0,,0.0,0.0,
2025-08-15T04:45:42.525Z,7,GR86-022-13,-23.200000000000003,0.103,-0.414,11.17,4.0,,0.0,0.0,
2025-08-15T04:45:42.568Z,7,GR86-022-13,-21.700000000000003,0.092,-0.395,9.67,4.0,3662.0,0.0,0.0,
2025-08-15T04:45:42.611Z,7,GR86-022-13,-20.1,0.049,-0.407,10.08,4.0,,0.0,0.0,93.33
2025-08-15T04:45:42.654Z,7,GR86-022-13,-18.7,0.034,-0.367,13.39,4.0,,0.0,0.0,
2025-08-15T04:45:42.698Z,7,GR86-022-13,-16.900000000000002,0.023,-0.349,17.650000000000002,4.0,,0.0,0.0,
2025-08-15T04:45:42.741Z,7,GR86-022-13,-16.1,0.01,-0.336,18.29,4.0,,0.0,0.0,
2025-08-15T04:45:42.784Z,7,GR86-022-13,-15.5,0.032,-0.318,19.05,4.0,3688.0,0.0,0.0,
2025-08-15T04:45:42.828Z,7,GR86-022-13,-15.3,0.032,-0.31,19.24,4.0,,0.0,0.0,93.96
2025-08-15T04:45:42.871Z,7,GR86-022-13,-15.2,0.082,-0.281,19.31,4.0,,0.0,0.0,
2025-08-15T04:45:42.914Z,7,GR86-022-13,-15.2,0.083,-0.273,19.39,4.0,,0.0,0.0,
2025-08-15T04:45:42.958Z,7,GR86-022-13,-15.2,0.065,-0.239,19.53,4.0,,0.0,0.0,
2025-08-15T04:45:43.001Z,7,GR86-022-13,-15.2,0.073,-0.237,19.75,4.0,3677.0,0.0,0.0,
2025-08-15T04:45:43.044Z,7,GR86-022-13,-15.2,0.073,-0.233,20.19,4.0,,0.0,0.0,94.51
2025-08-15T04:45:43.088Z,7,GR86-022-13,-15.2,0.105,-0.242,20.83,4.0,,0.0,0.0,
2025-08-15T04:45:43.130Z,7,GR86-022-13,-15.2,0.074,-0.237,21.05,4.0,,0.0,0.0,
2025-08-15T04:45:43.173Z,7,GR86-022-13,-15.2,0.098,-0.235,21.14,4.0,,0.0,0.0,
2025-08-15T04:45:43.259Z,7,GR86-022-13,-15.2,0.108,-0.25,21.28,4.0,3709.0,0.0,0.0,94.67
2025-08-15T04:45:43.302Z,7,GR86-022-13,-15.2,0.099,-0.256,21.65,4.0,,0.0,0.0,
2025-08-15T04:45:43.345Z,7,GR86-022-13,-15.2,0.101,-0.242,21.71,4.0,,0.0,0.0,
2025-08-15T04:45:43.388Z,7,GR86-022-13,-15.0,0.11,-0.262,21.67,4.0,,0.0,0.0,
2025-08-15T04:45:43.431Z,7,GR86-022-13,-14.4,0.089,-0.238,21.48,4.0,3721.0,0.0,0.0,
2025-08-15T04:45:43.474Z,7,GR86-022-13,-13.3,0.101,-0.259,21.46,4.0,,0.0,0.0,94.91
2025-08-15T04:45:43.518Z,7,GR86-022-13,-11.5,0.123,-0.218,20.85,4.0,,0.0,0.0,
2025-08-15T04:45:43.560Z,7,GR86-022-13,-10.9,0.113,-0.208,20.61,4.0,,0.0,0.0,
2025-08-15T04:45:43.603Z,7,GR86-022-13,-10.5,0.103,-0.196,20.44,4.0,,0.0,0.0,
2025-08-15T04:45:43.648Z,7,GR86-022-13,-9.9,0.1,-0.168,20.32,4.0,3731.0,0.0,0.0,
2025-08-15T04:45:43.691Z,7,GR86-022-13,-9.1,0.092,-0.18,20.4,4.0,,0.0,0.0,95.92
2025-08-15T04:45:43.734Z,7,GR86-022-13,-8.5,0.101,-0.137,20.52,4.0,,0.0,0.0,
2025-08-15T04:45:43.778Z,7,GR86-022-13,-8.3,0.109,-0.135,20.98,4.0,,0.0,0.0,
2025-08-15T04:45:43.821Z,7,GR86-022-13,-8.3,0.088,-0.135,21.12,4.0,,0.0,0.0,
2025-08-15T04:45:43.864Z,7,GR86-022-13,-8.3,0.114,-0.112,21.21,4.0,3758.0,0.0,0.0,
2025-08-15T04:45:43.908Z,7,GR86-022-13,-8.3,0.096,-0.137,21.52,4.0,,0.0,0.0,96.55
2025-08-15T04:45:43.950Z,7,GR86-022-13,-8.200000000000001,0.104,-0.11,21.65,4.0,,0.0,0.0,
2025-08-15T04:45:43.993Z,7,GR86-022-13,-7.7,0.089,-0.125,21.87,4.0,,0.0,0.0,
2025-08-15T04:45:44.037Z,7,GR86-022-13,-7.0,0.103,-0.126,22.0,4.0,,0.0,0.0,
2025-08-15T04:45:44.081Z,7,GR86-022-13,-6.7,0.123,-0.111,22.06,4.0,3810.0,0.0,0.0,
2025-08-15T04:45:44.124Z,7,GR86-022-13,-6.6000000000000005,0.105,-0.125,22.09,4.0,,0.0,0.0,97.16
2025-08-15T04:45:44.168Z,7,GR86-022-13,-6.0,0.107,-0.113,22.09,4.0,,0.0,0.0,
2025-08-15T04:45:44.210Z,7,GR86-022-13,-5.800000000000001,0.101,-0.104,22.09,4.0,,0.0,0.0,
2025-08-15T04:45:44.253Z,7,GR86-022-13,-5.5,0.093,-0.083,22.1,4.0,,0.0,0.0,
2025-08-15T04:45:44.297Z,7,GR86-022-13,-5.5,0.119,-0.083,22.09,4.0,3834.0,0.0,0.0,
2025-08-15T04:45:44.341Z,7,GR86-022-13,-4.9,0.105,-0.074,22.09,4.0,,0.0,0.0,97.78
2025-08-15T04:45:44.384Z,7,GR86-022-13,-3.8,0.109,-0.064,22.09,4.0,,0.0,0.0,
2025-08-15T04:45:44.428Z,7,GR86-022-13,-2.5,0.101,-0.058,22.09,4.0,,0.0,0.0,
2025-08-15T04:45:44.470Z,7,GR86-022-13,-1.1,0.097,-0.042,22.09,4.0,,0.0,0.0,
2025-08-15T04:45:44.513Z,7,GR86-022-13,0.3,0.094,-0.034,22.06,4.0,3859.0,0.0,0.0,
2025-08-15T04:45:44.557Z,7,GR86-022-13,1.6,0.101,-0.016,21.51,4.0,,0.0,0.0,98.42
2025-08-15T04:45:44.599Z,7,GR86-022-13,1.8,0.11,0.023,18.45,4.0,,0.0,0.0,
2025-08-15T04:45:44.643Z,7,GR86-022-13,1.8,0.092,0.022,12.74,4.0,,0.0,0.0,
2025-08-15T04:45:44.687Z,7,GR86-022-13,1.8,0.083,0.055,12.14,4.0,,0.0,0.0,
2025-08-15T04:45:44.729Z,7,GR86-022-13,1.9,0.063,0.049,10.77,4.0,3875.0,0.0,0.0,
2025-08-15T04:45:44.772Z,7,GR86-022-13,2.1,0.013,0.061,8.08,4.0,,0.0,0.0,99.06
2025-08-15T04:45:44.815Z,7,GR86-022-13,2.4000000000000004,0.019,0.07,7.88,4.0,,0.0,0.0,
2025-08-15T04:45:44.858Z,7,GR86-022-13,2.9000000000000004,0.012,0.061,6.71,4.0,,0.0,0.0,
2025-08-15T04:45:44.901Z,7,GR86-022-13,3.2,-0.018,0.072,6.19,4.0,,0.0,0.0,
2025-08-15T04:45:44.944Z,7,GR86-022-13,3.2,-0.03,0.051,5.01,4.0,3897.0,0.0,0.0,
2025-08-15T04:45:44.988Z,7,GR86-022-13,3.3000000000000003,-0.034,0.067,3.24,4.0,,0.0,0.0,99.73
2025-08-15T04:45:45.031Z,7,GR86-022-13,3.3000000000000003,-0.026,0.08,3.17,4.0,,0.0,0.0,
2025-08-15T04:45:45.073Z,7,GR86-022-13,3.3000000000000003,-0.035,0.079,3.08,4.0,,0.0,0.0,
2025-08-15T04:45:45.117Z,7,GR86-022-13,3.3000000000000003,-0.217,0.092,2.95,4.0,,0.0,0.0,
2025-08-15T04:45:45.159Z,7,GR86-022-13,3.3000000000000003,-0.146,0.088,2.88,4.0,3891.0,0.0,0.0,
2025-08-15T04:45:45.202Z,7,GR86-022-13,3.3000000000000003,-0.014,0.092,2.79,4.0,,0.0,0.0,100.35
2025-08-15T04:45:45.245Z,7,GR86-022-13,3.3000000000000003,-0.044,0.072,2.65,4.0,,0.0,0.0,
2025-08-15T04:45:45.288Z,7,GR86-022-13,3.3000000000000003,-0.033,0.078,2.5500000000000003,4.0,,0.0,0.0,
2025-08-15T04:45:45.331Z,7,GR86-022-13,3.3000000000000003,-0.127,0.062,2.5,4.0,,0.0,0.0,
2025-08-15T04:45:45.374Z,7,GR86-022-13,3.3000000000000003,-0.121,0.046,2.47,4.0,3756.0,0.0,0.0,
2025-08-15T04:45:45.418Z,7,GR86-022-13,3.3000000000000003,-0.04,0.08,2.46,4.0,,0.0,0.0,100.47
2025-08-15T04:45:45.460Z,7,GR86-022-13,3.3000000000000003,-0.053,0.077,2.44,4.0,,0.0,0.0,
2025-08-15T04:45:45.503Z,7,GR86-022-13,3.3000000000000003,-0.11,0.08,2.44,4.0,,0.0,0.0,
2025-08-15T04:45:45.548Z,7,GR86-022-13,3.3000000000000003,-0.088,0.081,2.44,4.0,,0.0,0.0,
2025-08-15T04:45:45.590Z,7,GR86-022-13,3.2,-0.05,0.07,2.44,4.0,3836.0,0.0,0.0,
2025-08-15T04:45:45.633Z,7,GR86-022-13,3.1,-0.056,0.076,2.44,4.0,,2.395,2.64,100.06
2025-08-15T04:45:45.678Z,7,GR86-022-13,3.0,-0.136,0.064,2.44,4.0,,5.7700000000000005,5.86,
2025-08-15T04:45:45.721Z,7,GR86-022-13,2.6,-0.174,0.063,2.44,4.0,,6.835,7.0200000000000005,
2025-08-15T04:45:45.764Z,7,GR86-022-13,2.2,-0.151,0.067,2.43,4.0,,7.495,7.675,
2025-08-15T04:45:45.808Z,7,GR86-022-13,2.0,-0.187,0.054,2.43,4.0,3812.0,7.86,8.01,
2025-08-15T04:45:45.850Z,7,GR86-022-13,2.0,-0.194,0.055,2.44,4.0,,7.83,8.01,99.54
2025-08-15T04:45:45.893Z,7,GR86-022-13,2.0,-0.217,0.038,2.44,4.0,,7.765000000000001,8.01,
2025-08-15T04:45:45.937Z,7,GR86-022-13,1.9,-0.187,0.032,2.43,4.0,,7.495,8.01,
2025-08-15T04:45:45.981Z,7,GR86-022-13,1.8,-0.174,0.038,2.44,4.0,,7.495,7.735,
2025-08-15T04:45:46.024Z,7,GR86-022-13,1.8,-0.208,0.036,2.44,4.0,3810.0,7.495,7.890000000000001,
2025-08-15T04:45:46.068Z,7,GR86-022-13,1.7000000000000002,-0.194,0.025,2.44,4.0,,7.495,7.83,99.05
2025-08-15T04:45:46.110Z,7,GR86-022-13,1.4,-0.187,0.029,2.44,4.0,,7.495,7.765000000000001,
2025-08-15T04:45:46.153Z,7,GR86-022-13,1.1,-0.174,0.03,2.44,4.0,,6.96,7.265000000000001,
2025-08-15T04:45:46.199Z,7,GR86-022-13,0.8,-0.147,0.029,2.44,4.0,,0.0,2.135,
2025-08-15T04:45:46.241Z,7,GR86-022-13,0.8,-0.106,0.018,2.44,4.0,3771.0,0.0,0.0,
2025-08-15T04:45:46.284Z,7,GR86-022-13,0.8,-0.068,0.012,2.44,4.0,,0.0,0.0,96.88
2025-08-15T04:45:46.328Z,7,GR86-022-13,0.8,-0.069,0.016,2.44,4.0,,0.0,0.0,
2025-08-15T04:45:46.370Z,7,GR86-022-13,0.8,-0.074,0.011,2.44,4.0,,0.0,0.0,
2025-08-15T04:45:46.413Z,7,GR86-022-13,0.8,-0.088,0.002,2.44,4.0,,0.0,0.0,
2025-08-15T04:45:46.457Z,7,GR86-022-13,0.7000000000000001,-0.093,0.02,2.44,4.0,3737.0,0.0,0.0,
2025-08-15T04:45:46.499Z,7,GR86-022-13,0.5,-0.068,-0.003,2.45,4.0,,0.0,0.0,95.77
2025-08-15T04:45:46.542Z,7,GR86-022-13,0.5,-0.074,0.017,2.44,4.0,,0.0,0.0,
2025-08-15T04:45:46.585Z,7,GR86-022-13,0.5,-0.074,-0.006,2.45,4.0,,0.0,0.0,
2025-08-15T04:45:46.628Z,7,GR86-022-13,0.5,-0.095,0.01,2.44,4.0,,0.0,0.0,
2025-08-15T04:45:46.671Z,7,GR86-022-13,0.4,-0.078,0.0,2.45,4.0,3701.0,0.0,0.0,
2025-08-15T04:45:46.714Z,7,GR86-022-13,0.5,-0.089,-0.011,2.45,4.0,,0.0,0.0,95.22
2025-08-15T04:45:46.758Z,7,GR86-022-13,0.4,-0.07,-0.001,2.45,4.0,,0.0,0.0,
2025-08-15T04:45:46.801Z,7,GR86-022-13,0.5,-0.076,-0.012,2.47,4.0,,0.0,0.0,
2025-08-15T04:45:46.844Z,7,GR86-022-13,0.5,-0.092,0.014,2.64,4.0,,0.0,0.0,
2025-08-15T04:45:46.888Z,7,GR86-022-13,0.5,-0.073,-0.005,2.75,4.0,3670.0,0.0,0.0,
2025-08-15T04:45:46.932Z,7,GR86-022-13,0.5,-0.081,0.008,3.08,4.0,,0.0,0.0,94.82
2025-08-15T04:45:46.974Z,7,GR86-022-13,0.4,-0.069,-0.001,3.58,4.0,,0.0,0.0,
2025-08-15T04:45:47.018Z,7,GR86-022-13,0.4,-0.086,-0.006,4.76,4.0,,0.0,0.0,
2025-08-15T04:45:47.060Z,7,GR86-022-13,0.4,-0.069,0.004,4.86,4.0,,0.0,0.0,
2025-08-15T04:45:47.104Z,7,GR86-022-13,0.5,-0.084,-0.009,4.93,4.0,3654.0,0.0,0.0,
2025-08-15T04:45:47.148Z,7,GR86-022-13,0.5,-0.062,-0.003,4.98,4.0,,0.0,0.0,94.45
2025-08-15T04:45:47.191Z,7,GR86-022-13,0.4,-0.069,-0.006,5.0,4.0,,0.0,0.0,
2025-08-15T04:45:47.234Z,7,GR86-022-13,0.5,-0.039,-0.004,5.0,4.0,,0.0,0.0,
2025-08-15T04:45:47.278Z,7,GR86-022-13,0.4,-0.053,0.004,5.0200000000000005,4.0,,0.0,0.0,
2025-08-15T04:45:47.321Z,7,GR86-022-13,0.5,-0.059,0.0,5.0200000000000005,4.0,3644.0,0.0,0.0,
2025-08-15T04:45:47.364Z,7,GR86-022-13,0.4,-0.04,0.012,5.0200000000000005,4.0,,0.0,0.0,94.16
2025-08-15T04:45:47.408Z,7,GR86-022-13,0.4,-0.064,0.001,5.0200000000000005,4.0,,0.0,0.0,
2025-08-15T04:45:47.450Z,7,GR86-022-13,0.4,-0.054,0.003,5.0200000000000005,4.0,,0.0,0.0,
2025-08-15T04:45:47.493Z,7,GR86-022-13,-0.2,-0.068,-0.001,5.0200000000000005,4.0,,0.0,0.0,
2025-08-15T04:45:47.537Z,7,GR86-022-13,-1.6,-0.053,0.013,5.0200000000000005,4.0,3634.0,0.0,0.0,
2025-08-15T04:45:47.579Z,7,GR86-022-13,-2.4000000000000004,-0.058,-0.021,4.96,4.0,,0.0,0.0,93.89
2025-08-15T04:45:47.622Z,7,GR86-022-13,-2.6,-0.059,-0.014,3.5700000000000003,4.0,,0.0,0.0,
2025-08-15T04:45:47.665Z,7,GR86-022-13,-2.6,-0.056,-0.038,3.39,4.0,,0.0,0.0,
2025-08-15T04:45:47.708Z,7,GR86-022-13,-2.6,-0.088,-0.032,3.23,4.0,,0.0,0.0,
2025-08-15T04:45:47.751Z,7,GR86-022-13,-2.6,-0.1,-0.048,3.13,4.0,3636.0,0.0,0.0,
2025-08-15T04:45:47.794Z,7,GR86-022-13,-2.6,-0.076,-0.043,3.04,4.0,,0.0,0.0,93.85
2025-08-15T04:45:47.838Z,7,GR86-022-13,-2.6,-0.061,-0.049,2.85,4.0,,0.0,0.0,
2025-08-15T04:45:47.881Z,7,GR86-022-13,-2.6,-0.09,-0.062,2.76,4.0,,0.0,0.0,
2025-08-15T04:45:47.924Z,7,GR86-022-13,-2.6,-0.08,-0.043,2.66,4.0,,0.0,0.0,
2025-08-15T04:45:47.968Z,7,GR86-022-13,-2.6,-0.081,-0.045,2.62,4.0,3617.0,0.0,0.0,
2025-08-15T04:45:48.011Z,7,GR86-022-13,-2.6,-0.072,-0.038,2.57,4.0,,0.0,0.0,93.73
2025-08-15T04:45:48.053Z,7,GR86-022-13,-2.6,-0.079,-0.054,2.54,4.0,,0.0,0.0,
2025-08-15T04:45:48.097Z,7,GR86-022-13,-2.6,-0.087,-0.042,2.52,4.0,,0.0,0.0,
2025-08-15T04:45:48.139Z,7,GR86-022-13,-2.6,-0.078,-0.042,2.51,4.0,,0.0,0.0,
2025-08-15T04:45:48.225Z,7,GR86-022-13,-2.6,-0.082,-0.045,2.5,4.0,3604.0,0.0,0.0,93.62
2025-08-15T04:45:48.268Z,7,GR86-022-13,-2.6,-0.088,-0.044,2.49,4.0,,0.0,0.0,
2025-08-15T04:45:48.311Z,7,GR86-022-13,-2.6,-0.079,-0.043,2.49,4.0,,0.0,0.0,
2025-08-15T04:45:48.355Z,7,GR86-022-13,-2.6,-0.09,-0.058,2.48,4.0,,0.0,0.0,
2025-08-15T04:45:48.398Z,7,GR86-022-13,-2.6,-0.078,-0.036,2.49,4.0,3606.0,0.0,0.0,
2025-08-15T04:45:48.441Z,7,GR86-022-13,-2.6,-0.073,-0.048,2.47,4.0,,0.0,0.0,93.43
2025-08-15T04:45:48.484Z,7,GR86-022-13,-2.6,-0.102,-0.024,2.48,4.0,,3.13,3.37,
2025-08-15T04:45:48.528Z,7,GR86-022-13,-2.6,-0.125,-0.047,2.48,4.0,,4.09,4.21,
2025-08-15T04:45:48.571Z,7,GR86-022-13,-2.6,-0.15,-0.023,2.47,4.0,,4.805,4.9,
2025-08-15T04:45:48.615Z,7,GR86-022-13,-2.6,-0.153,-0.056,2.48,4.0,3596.0,5.0200000000000005,5.25,
2025-08-15T04:45:48.658Z,7,GR86-022-13,-2.6,-0.164,-0.044,2.48,4.0,,5.0200000000000005,5.37,93.21
2025-08-15T04:45:48.701Z,7,GR86-022-13,-2.6,-0.154,-0.039,2.49,4.0,,4.99,5.25,
2025-08-15T04:45:48.744Z,7,GR86-022-13,-2.6,-0.171,-0.045,2.48,4.0,,4.99,5.4350000000000005,
2025-08-15T04:45:48.788Z,7,GR86-022-13,-2.6,-0.151,-0.028,2.49,4.0,,4.715,5.19,
2025-08-15T04:45:48.830Z,7,GR86-022-13,-2.6,-0.161,-0.051,2.49,4.0,3586.0,4.47,5.11,
2025-08-15T04:45:48.873Z,7,GR86-022-13,-2.6,-0.14,-0.035,2.48,4.0,,2.215,2.7,92.99
2025-08-15T04:45:48.917Z,7,GR86-022-13,-2.6,-0.091,-0.046,2.48,4.0,,0.0,0.0,
2025-08-15T04:45:48.959Z,7,GR86-022-13,-2.6,-0.079,-0.033,2.47,4.0,,0.0,0.0,
2025-08-15T04:45:49.002Z,7,GR86-022-13,-2.6,-0.056,-0.049,2.48,4.0,,0.0,0.0,
2025-08-15T04:45:49.045Z,7,GR86-022-13,-2.6,-0.079,-0.035,2.49,4.0,3568.0,0.0,0.0,
2025-08-15T04:45:49.088Z,7,GR86-022-13,-2.6,-0.083,-0.049,2.49,4.0,,0.0,0.0,91.85
2025-08-15T04:45:49.131Z,7,GR86-022-13,-2.6,-0.093,-0.037,2.49,4.0,,0.0,0.0,
2025-08-15T04:45:49.174Z,7,GR86-022-13,-2.6,-0.069,-0.056,2.48,4.0,,0.0,0.0,
2025-08-15T04:45:49.218Z,7,GR86-022-13,-2.6,-0.088,-0.064,2.48,4.0,,0.0,0.0,
2025-08-15T04:45:49.303Z,7,GR86-022-13,-2.6,-0.083,-0.05,2.48,4.0,3533.0,0.0,0.0,91.47
2025-08-15T04:45:49.348Z,7,GR86-022-13,-2.6,-0.078,-0.037,2.48,4.0,,0.0,0.0,
2025-08-15T04:45:49.391Z,7,GR86-022-13,-2.6,-0.086,-0.043,2.48,4.0,,0.0,0.0,
2025-08-15T04:45:49.434Z,7,GR86-022-13,-2.6,-0.088,-0.038,2.48,4.0,,0.0,0.0,
2025-08-15T04:45:49.478Z,7,GR86-022-13,-2.6,-0.073,-0.048,2.48,4.0,3528.0,0.0,0.0,
2025-08-15T04:45:49.521Z,7,GR86-022-13,-2.6,-0.078,-0.044,2.48,4.0,,0.0,0.0,91.27
2025-08-15T04:45:49.564Z,7,GR86-022-13,-2.6,-0.077,-0.057,2.48,4.0,,0.0,0.0,
2025-08-15T04:45:49.608Z,7,GR86-022-13,-2.6,-0.09,-0.044,2.48,4.0,,0.0,0.0,
2025-08-15T04:45:49.650Z,7,GR86-022-13,-2.6,-0.072,-0.061,2.48,4.0,,0.0,0.0,
2025-08-15T04:45:49.737Z,7,GR86-022-13,-2.6,-0.086,-0.046,2.48,4.0,3526.0,0.0,0.0,91.11
2025-08-15T04:45:49.781Z,7,GR86-022-13,-2.6,-0.091,-0.054,2.71,4.0,,0.0,0.0,
2025-08-15T04:45:49.824Z,7,GR86-022-13,-2.6,-0.081,-0.03,3.71,4.0,,0.0,0.0,
2025-08-15T04:45:49.868Z,7,GR86-022-13,-2.6,-0.09,-0.038,4.17,4.0,,0.0,0.0,
2025-08-15T04:45:49.910Z,7,GR86-022-13,-2.6,-0.078,-0.029,4.42,4.0,3512.0,0.0,0.0,
2025-08-15T04:45:49.953Z,7,GR86-022-13,-2.6,-0.086,-0.028,6.890000000000001,4.0,,0.0,0.0,90.88
2025-08-15T04:45:49.997Z,7,GR86-022-13,-2.6,-0.089,-0.018,14.88,4.0,,0.0,0.0,
2025-08-15T04:45:50.041Z,7,GR86-022-13,-2.6,-0.044,-0.03,17.07,4.0,,0.0,0.0,
2025-08-15T04:45:50.084Z,7,GR86-022-13,-2.6,-0.04,-0.015,18.54,4.0,,0.0,0.0,
2025-08-15T04:45:50.128Z,7,GR86-022-13,-2.6,-0.029,-0.028,20.52,4.0,3507.0,0.0,0.0,
2025-08-15T04:45:50.170Z,7,GR86-022-13,-2.6,-0.041,-0.021,21.65,4.0,,0.0,0.0,90.65
2025-08-15T04:45:50.213Z,7,GR86-022-13,-2.6,-0.032,-0.044,21.77,4.0,,0.0,0.0,
2025-08-15T04:45:50.257Z,7,GR86-022-13,-2.6,0.266,-0.026,21.93,4.0,,0.0,0.0,
2025-08-15T04:45:50.299Z,7,GR86-022-13,-2.6,0.164,-0.038,21.98,4.0,,0.0,0.0,
2025-08-15T04:45:50.343Z,7,GR86-022-13,-2.6,-0.034,-0.023,22.03,4.0,3534.0,0.0,0.0,
2025-08-15T04:45:50.387Z,7,GR86-022-13,-2.8000000000000003,0.046,-0.022,22.06,4.0,,0.0,0.0,90.39
2025-08-15T04:45:50.429Z,7,GR86-022-13,-3.5,0.177,-0.025,22.08,4.0,,0.0,0.0,
2025-08-15T04:45:50.472Z,7,GR86-022-13,-4.0,0.166,-0.028,22.09,4.0,,0.0,0.0,
2025-08-15T04:45:50.515Z,7,GR86-022-13,-4.3,0.043,-0.043,22.1,4.0,,0.0,0.0,
2025-08-15T04:45:50.558Z,7,GR86-022-13,-4.4,0.089,-0.049,22.09,4.0,3617.0,0.0,0.0,
2025-08-15T04:45:50.601Z,7,GR86-022-13,-4.4,0.174,-0.056,22.09,4.0,,0.0,0.0,90.32
2025-08-15T04:45:50.644Z,7,GR86-022-13,-4.4,0.109,-0.051,22.09,4.0,,0.0,0.0,
2025-08-15T04:45:50.688Z,7,GR86-022-13,-4.4,0.065,-0.065,22.09,4.0,,0.0,0.0,
2025-08-15T04:45:50.730Z,7,GR86-022-13,-4.4,0.084,-0.05,22.06,4.0,,0.0,0.0,
2025-08-15T04:45:50.773Z,7,GR86-022-13,-4.4,0.143,-0.059,22.08,4.0,3534.0,0.0,0.0,
2025-08-15T04:45:50.817Z,7,GR86-022-13,-4.4,0.081,-0.055,22.06,4.0,,0.0,0.0,91.01
2025-08-15T04:45:50.859Z,7,GR86-022-13,-4.4,0.074,-0.041,22.06,4.0,,0.0,0.0,
2025-08-15T04:45:50.902Z,7,GR86-022-13,-4.4,0.097,-0.059,22.06,4.0,,0.0,0.0,
2025-08-15T04:45:50.945Z,7,GR86-022-13,-4.4,0.131,-0.049,22.06,4.0,,0.0,0.0,
2025-08-15T04:45:50.988Z,7,GR86-022-13,-4.5,0.082,-0.064,22.06,4.0,3567.0,0.0,0.0,
2025-08-15T04:45:51.031Z,7,GR86-022-13,-4.9,0.079,-0.053,22.03,4.0,,0.0,0.0,92.01
2025-08-15T04:45:51.074Z,7,GR86-022-13,-5.5,0.103,-0.073,22.03,4.0,,0.0,0.0,
2025-08-15T04:45:51.118Z,7,GR86-022-13,-6.300000000000001,0.096,-0.065,22.03,4.0,,0.0,0.0,
2025-08-15T04:45:51.160Z,7,GR86-022-13,-6.300000000000001,0.087,-0.073,17.67,4.0,,0.0,0.0,
2025-08-15T04:45:51.203Z,7,GR86-022-13,-6.4,0.079,-0.088,6.08,4.0,3657.0,0.0,0.0,
2025-08-15T04:45:51.248Z,7,GR86-022-13,-6.4,0.123,-0.075,3.93,4.0,,0.0,0.0,92.99
2025-08-15T04:45:51.290Z,7,GR86-022-13,-6.4,0.017,-0.107,3.87,4.0,,0.0,0.0,
2025-08-15T04:45:51.333Z,7,GR86-022-13,-6.300000000000001,-0.052,-0.073,3.79,4.0,,0.0,0.0,
2025-08-15T04:45:51.378Z,7,GR86-022-13,-6.4,-0.309,-0.129,3.59,4.0,,0.0,0.0,
2025-08-15T04:45:51.421Z,7,GR86-022-13,-6.300000000000001,-0.129,-0.08,3.37,4.0,3704.0,0.0,0.0,
2025-08-15T04:45:51.464Z,7,GR86-022-13,-6.300000000000001,0.014,-0.092,3.2,4.0,,0.0,0.0,94.02
2025-08-15T04:45:51.508Z,7,GR86-022-13,-6.4,-0.042,-0.133,3.08,4.0,,0.0,0.0,
2025-08-15T04:45:51.550Z,7,GR86-022-13,-6.300000000000001,-0.031,-0.102,2.98,4.0,,0.0,0.0,
2025-08-15T04:45:51.593Z,7,GR86-022-13,-6.300000000000001,-0.047,-0.127,2.87,4.0,,0.0,0.0,
2025-08-15T04:45:51.637Z,7,GR86-022-13,-6.4,-0.217,-0.104,2.71,4.0,3650.0,0.0,0.0,
2025-08-15T04:45:51.681Z,7,GR86-022-13,-6.300000000000001,-0.072,-0.109,2.63,4.0,,0.0,0.0,95.52
2025-08-15T04:45:51.724Z,7,GR86-022-13,-6.300000000000001,-0.028,-0.122,2.6,4.0,,0.0,0.0,
2025-08-15T04:45:51.768Z,7,GR86-022-13,-6.300000000000001,-0.038,-0.102,2.56,4.0,,0.0,0.0,
2025-08-15T04:45:51.810Z,7,GR86-022-13,-6.4,-0.104,-0.106,2.54,4.0,,0.0,0.0,
2025-08-15T04:45:51.853Z,7,GR86-022-13,-6.300000000000001,-0.15,-0.114,2.52,4.0,3789.0,0.0,0.0,
2025-08-15T04:45:51.897Z,7,GR86-022-13,-6.0,-0.076,-0.102,2.5,4.0,,0.0,1.925,95.22
2025-08-15T04:45:51.941Z,7,GR86-022-13,-5.6000000000000005,-0.073,-0.093,2.48,4.0,,2.58,2.76,
2025-08-15T04:45:51.984Z,7,GR86-022-13,-5.2,-0.138,-0.1,2.49,4.0,,3.25,3.405,
2025-08-15T04:45:52.028Z,7,GR86-022-13,-4.9,-0.153,-0.08,2.48,4.0,,3.465,3.555,
2025-08-15T04:45:52.070Z,7,GR86-022-13,-4.9,-0.141,-0.087,2.48,4.0,3731.0,3.645,4.0,
2025-08-15T04:45:52.113Z,7,GR86-022-13,-4.9,-0.116,-0.077,2.49,4.0,,3.405,3.755,94.84
2025-08-15T04:45:52.157Z,7,GR86-022-13,-4.9,-0.137,-0.065,2.48,4.0,,3.34,3.525,
2025-08-15T04:45:52.199Z,7,GR86-022-13,-4.9,-0.158,-0.064,2.49,4.0,,1.86,2.245,
2025-08-15T04:45:52.242Z,7,GR86-022-13,-4.800000000000001,-0.093,-0.066,2.48,4.0,,0.0,0.0,
2025-08-15T04:45:52.285Z,7,GR86-022-13,-4.800000000000001,-0.07,-0.058,2.48,4.0,3667.0,0.0,0.0,
2025-08-15T04:45:52.328Z,7,GR86-022-13,-4.7,-0.072,-0.065,2.47,4.0,,0.0,0.0,94.39
2025-08-15T04:45:52.371Z,7,GR86-022-13,-4.6000000000000005,-0.099,-0.072,2.48,4.0,,0.0,0.0,
2025-08-15T04:45:52.414Z,7,GR86-022-13,-4.6000000000000005,-0.077,-0.073,2.48,4.0,,0.0,0.0,
2025-08-15T04:45:52.458Z,7,GR86-022-13,-4.6000000000000005,-0.069,-0.083,2.48,4.0,,0.0,0.0,
2025-08-15T04:45:52.501Z,7,GR86-022-13,-4.6000000000000005,-0.087,-0.067,2.48,4.0,3621.0,0.0,0.0,
2025-08-15T04:45:52.544Z,7,GR86-022-13,-4.6000000000000005,-0.08,-0.091,2.48,4.0,,0.0,0.0,93.76
2025-08-15T04:45:52.588Z,7,GR86-022-13,-4.6000000000000005,-0.073,-0.067,2.47,4.0,,0.0,0.0,
2025-08-15T04:45:52.631Z,7,GR86-022-13,-4.6000000000000005,-0.065,-0.068,2.48,4.0,,0.0,0.0,
2025-08-15T04:45:52.675Z,7,GR86-022-13,-4.6000000000000005,-0.085,-0.064,2.53,4.0,,0.0,0.0,
2025-08-15T04:45:52.718Z,7,GR86-022-13,-4.5,-0.075,-0.071,2.72,4.0,3599.0,0.0,0.0,
2025-08-15T04:45:52.761Z,7,GR86-022-13,-4.5,-0.09,-0.066,3.08,4.0,,0.0,0.0,93.33
2025-08-15T04:45:52.804Z,7,GR86-022-13,-4.4,-0.073,-0.054,4.1,4.0,,0.0,0.0,
2025-08-15T04:45:52.848Z,7,GR86-022-13,-4.2,-0.09,-0.064,4.5,4.0,,0.0,0.0,
2025-08-15T04:45:52.891Z,7,GR86-022-13,-4.1000000000000005,-0.084,-0.046,6.08,4.0,,0.0,0.0,
2025-08-15T04:45:52.934Z,7,GR86-022-13,-4.0,-0.088,-0.059,8.9,4.0,3584.0,0.0,0.0,
2025-08-15T04:45:52.978Z,7,GR86-022-13,-4.0,-0.034,-0.044,9.6,4.0,,0.0,0.0,92.98
2025-08-15T04:45:53.021Z,7,GR86-022-13,-4.0,-0.014,-0.045,9.95,4.0,,0.0,0.0,
2025-08-15T04:45:53.064Z,7,GR86-022-13,-4.0,-0.035,-0.036,10.23,4.0,,0.0,0.0,
2025-08-15T04:45:53.108Z,7,GR86-022-13,-3.9,-0.031,-0.053,10.24,4.0,,0.0,0.0,
2025-08-15T04:45:53.150Z,7,GR86-022-13,-3.9,-0.098,-0.043,10.81,4.0,3577.0,0.0,0.0,
2025-08-15T04:45:53.193Z,7,GR86-022-13,-3.8,-0.082,-0.039,10.84,4.0,,0.0,0.0,92.62
2025-08-15T04:45:53.237Z,7,GR86-022-13,-3.6,-0.036,-0.046,10.56,4.0,,0.0,0.0,
2025-08-15T04:45:53.279Z,7,GR86-022-13,-3.6,-0.044,-0.02,10.28,4.0,,0.0,0.0,
2025-08-15T04:45:53.322Z,7,GR86-022-13,-3.5,-0.042,-0.064,10.15,4.0,,0.0,0.0,
2025-08-15T04:45:53.365Z,7,GR86-022-13,-3.4000000000000004,-0.04,-0.019,10.3,4.0,3577.0,0.0,0.0,
2025-08-15T04:45:53.408Z,7,GR86-022-13,-3.2,0.025,-0.045,10.54,4.0,,0.0,0.0,92.31
2025-08-15T04:45:53.451Z,7,GR86-022-13,-2.9000000000000004,0.024,-0.036,11.79,4.0,,0.0,0.0,
2025-08-15T04:45:53.494Z,7,GR86-022-13,-2.9000000000000004,-0.038,-0.042,14.99,4.0,,0.0,0.0,
2025-08-15T04:45:53.538Z,7,GR86-022-13,-2.9000000000000004,-0.038,-0.046,15.02,4.0,,0.0,0.0,
2025-08-15T04:45:53.581Z,7,GR86-022-13,-2.9000000000000004,-0.007,-0.029,15.33,4.0,3599.0,0.0,0.0,
2025-08-15T04:45:53.624Z,7,GR86-022-13,-2.9000000000000004,-0.031,-0.034,15.96,4.0,,0.0,0.0,92.17
2025-08-15T04:45:53.668Z,7,GR86-022-13,-2.9000000000000004,0.118,-0.036,13.16,4.0,,0.0,0.0,
2025-08-15T04:45:53.710Z,7,GR86-022-13,-2.9000000000000004,0.082,-0.04,13.05,4.0,,0.0,0.0,
2025-08-15T04:45:53.753Z,7,GR86-022-13,-2.9000000000000004,0.012,-0.037,13.44,4.0,,0.0,0.0,
2025-08-15T04:45:53.797Z,7,GR86-022-13,-2.9000000000000004,0.006,-0.045,11.45,4.0,3528.0,0.0,0.0,
2025-08-15T04:45:53.839Z,7,GR86-022-13,-2.9000000000000004,0.051,-0.023,10.92,4.0,,0.0,0.0,92.12
2025-08-15T04:45:53.882Z,7,GR86-022-13,-2.9000000000000004,0.057,-0.036,8.89,4.0,,0.0,0.0,
2025-08-15T04:45:53.925Z,7,GR86-022-13,-2.9000000000000004,-0.017,-0.034,8.09,4.0,,0.0,0.0,
2025-08-15T04:45:53.968Z,7,GR86-022-13,-2.9000000000000004,-0.008,-0.049,6.98,4.0,,0.0,0.0,
2025-08-15T04:45:54.011Z,7,GR86-022-13,-2.9000000000000004,-0.001,-0.04,6.16,4.0,3668.0,0.0,0.0,
2025-08-15T04:45:54.055Z,7,GR86-022-13,-2.9000000000000004,0.007,-0.047,3.78,4.0,,0.0,0.0,92.28
2025-08-15T04:45:54.098Z,7,GR86-022-13,-2.9000000000000004,-0.04,-0.056,3.61,4.0,,0.0,0.0,
2025-08-15T04:45:54.141Z,7,GR86-022-13,-2.9000000000000004,-0.025,-0.029,3.36,4.0,,0.0,0.0,
2025-08-15T04:45:54.184Z,7,GR86-022-13,-2.9000000000000004,-0.251,-0.055,3.2,4.0,,0.0,0.0,
2025-08-15T04:45:54.228Z,7,GR86-022-13,-2.9000000000000004,-0.122,-0.024,3.08,4.0,3616.0,0.0,0.0,
2025-08-15T04:45:54.271Z,7,GR86-022-13,-2.9000000000000004,-0.003,-0.051,2.98,4.0,,0.0,0.0,92.6
2025-08-15T04:45:54.314Z,7,GR86-022-13,-2.9000000000000004,-0.038,-0.041,2.88,4.0,,0.0,0.0,
2025-08-15T04:45:54.358Z,7,GR86-022-13,-2.9000000000000004,-0.031,-0.047,2.73,4.0,,0.0,0.0,
2025-08-15T04:45:54.401Z,7,GR86-022-13,-2.9000000000000004,-0.182,-0.051,2.65,4.0,,0.0,0.0,
2025-08-15T04:45:54.444Z,7,GR86-022-13,-2.9000000000000004,-0.085,-0.031,2.62,4.0,3574.0,5.22,5.3100000000000005,
2025-08-15T04:45:54.488Z,7,GR86-022-13,-3.0,-0.085,-0.032,2.5500000000000003,4.0,,6.775,6.865,92.96
2025-08-15T04:45:54.530Z,7,GR86-022-13,-3.0,-0.132,-0.039,2.54,4.0,,8.15,8.24,
2025-08-15T04:45:54.573Z,7,GR86-022-13,-3.0,-0.225,-0.023,2.52,4.0,,9.6,9.46,
2025-08-15T04:45:54.617Z,7,GR86-022-13,-3.2,-0.248,-0.035,2.5,4.0,,11.095,11.215,
2025-08-15T04:45:54.659Z,7,GR86-022-13,-3.6,-0.245,-0.038,2.5,4.0,3668.0,11.905,11.995,
2025-08-15T04:45:54.702Z,7,GR86-022-13,-4.0,-0.242,-0.028,2.5,4.0,,12.33,12.56,92.57
2025-08-15T04:45:54.745Z,7,GR86-022-13,-4.4,-0.283,-0.038,2.49,4.0,,12.115,12.56,
2025-08-15T04:45:54.788Z,7,GR86-022-13,-4.7,-0.277,-0.04,2.5,4.0,,12.025,12.24,
2025-08-15T04:45:54.832Z,7,GR86-022-13,-4.9,-0.257,-0.058,2.5,4.0,,11.905,12.27,
2025-08-15T04:45:54.875Z,7,GR86-022-13,-5.5,-0.249,-0.041,2.49,4.0,3635.0,11.735,12.21,
2025-08-15T04:45:54.918Z,7,GR86-022-13,-6.800000000000001,-0.254,-0.071,2.5,4.0,,12.025,12.33,91.6
2025-08-15T04:45:54.961Z,7,GR86-022-13,-8.0,-0.271,-0.062,2.49,4.0,,11.81,12.21,
2025-08-15T04:45:55.004Z,7,GR86-022-13,-9.0,-0.254,-0.09,2.49,4.0,,11.78,12.21,
2025-08-15T04:45:55.048Z,7,GR86-022-13,-9.6,-0.256,-0.098,2.48,4.0,,11.78,12.145,
2025-08-15T04:45:55.091Z,7,GR86-022-13,-9.8,-0.262,-0.118,2.49,4.0,3455.0,11.675,12.21,
2025-08-15T04:45:55.134Z,7,GR86-022-13,-9.8,-0.268,-0.116,2.49,4.0,,11.4,11.87,90.1
2025-08-15T04:45:55.178Z,7,GR86-022-13,-9.8,-0.244,-0.128,2.48,4.0,,10.775,11.52,
2025-08-15T04:45:55.221Z,7,GR86-022-13,-9.8,-0.236,-0.13,2.48,4.0,,9.155,9.935,
2025-08-15T04:45:55.264Z,7,GR86-022-13,-10.0,-0.203,-0.15,2.48,4.0,,6.805,7.495,
2025-08-15T04:45:55.308Z,7,GR86-022-13,-10.5,-0.159,-0.141,2.49,4.0,3395.0,4.99,5.7700000000000005,
2025-08-15T04:45:55.350Z,7,GR86-022-13,-11.7,-0.149,-0.15,2.47,4.0,,4.335,4.99,88.5
2025-08-15T04:45:55.393Z,7,GR86-022-13,-14.4,-0.158,-0.148,2.48,4.0,,4.275,4.565,
2025-08-15T04:45:55.437Z,7,GR86-022-13,-17.1,-0.144,-0.193,2.47,4.0,,4.0,4.595,
2025-08-15T04:45:55.481Z,7,GR86-022-13,-18.6,-0.144,-0.229,2.48,4.0,,3.37,3.755,
2025-08-15T04:45:55.524Z,7,GR86-022-13,-19.4,-0.125,-0.244,2.48,4.0,3338.0,1.8,2.215,
2025-08-15T04:45:55.568Z,7,GR86-022-13,-20.1,-0.104,-0.274,2.47,4.0,,0.0,0.0,86.91
2025-08-15T04:45:55.610Z,7,GR86-022-13,-20.6,-0.064,-0.302,2.48,4.0,,0.0,0.0,
2025-08-15T04:45:55.653Z,7,GR86-022-13,-21.200000000000003,-0.066,-0.318,2.48,4.0,,0.0,0.0,
2025-08-15T04:45:55.697Z,7,GR86-022-13,-22.3,-0.074,-0.339,2.48,4.0,,0.0,0.0,
2025-08-15T04:45:55.741Z,7,GR86-022-13,-23.4,-0.089,-0.365,2.48,4.0,3303.0,0.0,0.0,
2025-08-15T04:45:55.784Z,7,GR86-022-13,-24.9,-0.066,-0.362,2.48,4.0,,0.0,0.0,85.76
2025-08-15T04:45:55.828Z,7,GR86-022-13,-25.8,-0.077,-0.378,2.48,4.0,,0.0,0.0,
2025-08-15T04:45:55.870Z,7,GR86-022-13,-25.9,-0.069,-0.39,2.48,4.0,,0.0,0.0,
2025-08-15T04:45:55.913Z,7,GR86-022-13,-26.1,-0.083,-0.384,2.48,4.0,,0.0,0.0,
2025-08-15T04:45:55.957Z,7,GR86-022-13,-28.4,-0.079,-0.402,2.48,4.0,3279.0,0.0,0.0,
2025-08-15T04:45:55.999Z,7,GR86-022-13,-30.1,-0.082,-0.43,2.48,4.0,,0.0,0.0,85.06
2025-08-15T04:45:56.043Z,7,GR86-022-13,-32.300000000000004,-0.073,-0.454,2.47,4.0,,0.0,0.0,
2025-08-15T04:45:56.087Z,7,GR86-022-13,-34.5,-0.091,-0.482,2.48,4.0,,0.0,0.0,
2025-08-15T04:45:56.129Z,7,GR86-022-13,-36.0,-0.079,-0.505,2.48,4.0,,0.0,0.0,
2025-08-15T04:45:56.172Z,7,GR86-022-13,-37.2,-0.081,-0.522,2.48,4.0,3269.0,0.0,0.0,
2025-08-15T04:45:56.215Z,7,GR86-022-13,-37.5,-0.078,-0.554,2.48,4.0,,0.0,0.0,84.66
2025-08-15T04:45:56.258Z,7,GR86-022-13,-37.5,-0.091,-0.583,2.48,4.0,,0.0,0.0,
2025-08-15T04:45:56.301Z,7,GR86-022-13,-37.5,-0.081,-0.581,2.48,4.0,,0.0,0.0,
2025-08-15T04:45:56.344Z,7,GR86-022-13,-37.6,-0.089,-0.58,2.48,4.0,,0.0,0.0,
2025-08-15T04:45:56.388Z,7,GR86-022-13,-38.0,-0.087,-0.595,2.49,4.0,3251.0,0.0,0.0,
2025-08-15T04:45:56.431Z,7,GR86-022-13,-38.7,-0.089,-0.615,2.48,4.0,,0.0,0.0,84.27
2025-08-15T04:45:56.473Z,7,GR86-022-13,-40.3,-0.086,-0.61,2.48,4.0,,0.0,0.0,
2025-08-15T04:45:56.517Z,7,GR86-022-13,-41.1,-0.093,-0.63,2.48,4.0,,0.0,0.0,
2025-08-15T04:45:56.559Z,7,GR86-022-13,-41.1,-0.086,-0.622,2.48,4.0,,0.0,0.0,
2025-08-15T04:45:56.602Z,7,GR86-022-13,-41.3,-0.091,-0.634,2.48,4.0,3235.0,0.0,0.0,
2025-08-15T04:45:56.648Z,7,GR86-022-13,-42.2,-0.093,-0.636,2.49,4.0,,0.0,0.0,83.93
2025-08-15T04:45:56.691Z,7,GR86-022-13,-44.1,-0.09,-0.636,2.49,4.0,,0.0,0.0,
2025-08-15T04:45:56.734Z,7,GR86-022-13,-45.2,-0.097,-0.652,2.49,4.0,,0.0,0.0,
2025-08-15T04:45:56.778Z,7,GR86-022-13,-46.5,-0.098,-0.67,2.48,4.0,,0.0,0.0,
2025-08-15T04:45:56.821Z,7,GR86-022-13,-46.6,-0.099,-0.676,2.48,4.0,3218.0,0.0,0.0,
2025-08-15T04:45:56.864Z,7,GR86-022-13,-46.6,-0.101,-0.6920000000000001,2.53,4.0,,0.0,0.0,83.5
2025-08-15T04:45:56.908Z,7,GR86-022-13,-46.7,-0.096,-0.6880000000000001,2.5500000000000003,4.0,,0.0,0.0,
2025-08-15T04:45:56.950Z,7,GR86-022-13,-47.400000000000006,-0.087,-0.6980000000000001,2.5500000000000003,4.0,,0.0,0.0,
2025-08-15T04:45:56.993Z,7,GR86-022-13,-48.900000000000006,-0.091,-0.712,2.64,4.0,,0.0,0.0,
2025-08-15T04:45:57.037Z,7,GR86-022-13,-49.900000000000006,-0.1,-0.748,2.92,4.0,3203.0,0.0,0.0,
2025-08-15T04:45:57.079Z,7,GR86-022-13,-50.1,-0.104,-0.742,3.5700000000000003,4.0,,0.0,0.0,82.51
2025-08-15T04:45:57.122Z,7,GR86-022-13,-50.1,-0.088,-0.747,4.66,4.0,,0.0,0.0,
2025-08-15T04:45:57.165Z,7,GR86-022-13,-50.7,-0.088,-0.745,4.75,4.0,,0.0,0.0,
2025-08-15T04:45:57.208Z,7,GR86-022-13,-51.1,-0.074,-0.769,6.37,4.0,,0.0,0.0,
2025-08-15T04:45:57.251Z,7,GR86-022-13,-51.8,-0.094,-0.783,7.92,4.0,3182.0,0.0,0.0,
2025-08-15T04:45:57.294Z,7,GR86-022-13,-52.6,-0.089,-0.772,9.91,4.0,,0.0,0.0,82.07000000000001
2025-08-15T04:45:57.338Z,7,GR86-022-13,-54.5,-0.051,-0.799,14.38,4.0,,0.0,0.0,
2025-08-15T04:45:57.381Z,7,GR86-022-13,-55.5,-0.039,-0.791,17.57,4.0,,0.0,0.0,
2025-08-15T04:45:57.424Z,7,GR86-022-13,-55.7,-0.074,-0.8210000000000001,19.15,4.0,,0.0,0.0,
2025-08-15T04:45:57.468Z,7,GR86-022-13,-55.7,-0.14,-0.837,19.75,4.0,3153.0,0.0,0.0,
2025-08-15T04:45:57.510Z,7,GR86-022-13,-55.7,-0.034,-0.848,19.69,4.0,,0.0,0.0,82.2
2025-08-15T04:45:57.553Z,7,GR86-022-13,-55.7,-0.068,-0.843,19.66,4.0,,0.0,0.0,
2025-08-15T04:45:57.597Z,7,GR86-022-13,-55.2,0.237,-0.805,18.15,4.0,,0.0,0.0,
2025-08-15T04:45:57.641Z,7,GR86-022-13,-53.6,0.045,-0.8310000000000001,19.96,4.0,,0.0,0.0,
2025-08-15T04:45:57.684Z,7,GR86-022-13,-52.400000000000006,-0.051,-0.796,21.74,4.0,3155.0,0.0,0.0,
2025-08-15T04:45:57.728Z,7,GR86-022-13,-52.2,0.032,-0.766,21.34,4.0,,0.0,0.0,81.72
2025-08-15T04:45:57.770Z,7,GR86-022-13,-52.2,0.156,-0.804,21.07,4.0,,0.0,0.0,
2025-08-15T04:45:57.813Z,7,GR86-022-13,-52.2,0.103,-0.735,21.77,4.0,,0.0,0.0,
2025-08-15T04:45:57.857Z,7,GR86-022-13,-52.2,0.042,-0.733,21.84,4.0,,0.0,0.0,
2025-08-15T04:45:57.899Z,7,GR86-022-13,-52.5,0.07,-0.753,21.87,4.0,3063.0,0.0,0.0,
2025-08-15T04:45:57.942Z,7,GR86-022-13,-53.400000000000006,0.114,-0.757,21.94,4.0,,0.0,0.0,81.34
2025-08-15T04:45:57.985Z,7,GR86-022-13,-55.0,0.087,-0.721,21.96,4.0,,0.0,0.0,
2025-08-15T04:45:58.028Z,7,GR86-022-13,-57.3,0.083,-0.748,22.0,4.0,,0.0,0.0,
2025-08-15T04:45:58.071Z,7,GR86-022-13,-58.7,0.085,-0.75,22.03,4.0,,0.0,0.0,
2025-08-15T04:45:58.114Z,7,GR86-022-13,-58.7,0.106,-0.769,22.06,4.0,3169.0,0.0,0.0,
2025-08-15T04:45:58.158Z,7,GR86-022-13,-55.900000000000006,0.063,-0.787,22.06,4.0,,0.0,0.0,81.57000000000001
2025-08-15T04:45:58.201Z,7,GR86-022-13,-54.900000000000006,0.104,-0.758,22.06,4.0,,0.0,0.0,
2025-08-15T04:45:58.244Z,7,GR86-022-13,-54.3,0.095,-0.772,22.07,4.0,,0.0,0.0,
2025-08-15T04:45:58.288Z,7,GR86-022-13,-54.1,0.107,-0.754,22.06,4.0,,0.0,0.0,
2025-08-15T04:45:58.331Z,7,GR86-022-13,-54.0,0.088,-0.759,22.07,4.0,3212.0,0.0,0.0,
2025-08-15T04:45:58.374Z,7,GR86-022-13,-53.7,0.096,-0.781,22.06,4.0,,0.0,0.0,82.01
2025-08-15T04:45:58.418Z,7,GR86-022-13,-51.8,0.081,-0.743,22.06,4.0,,0.0,0.0,
2025-08-15T04:45:58.460Z,7,GR86-022-13,-50.3,0.103,-0.748,22.06,4.0,,0.0,0.0,
2025-08-15T04:45:58.504Z,7,GR86-022-13,-49.400000000000006,0.113,-0.722,22.06,4.0,,0.0,0.0,
2025-08-15T04:45:58.548Z,7,GR86-022-13,-49.1,0.094,-0.742,22.06,4.0,3219.0,0.0,0.0,
2025-08-15T04:45:58.591Z,7,GR86-022-13,-49.1,0.088,-0.732,22.05,4.0,,0.0,0.0,82.56
2025-08-15T04:45:58.634Z,7,GR86-022-13,-49.1,0.092,-0.728,22.06,4.0,,0.0,0.0,
2025-08-15T04:45:58.678Z,7,GR86-022-13,-49.0,0.09,-0.728,22.03,4.0,,0.0,0.0,
2025-08-15T04:45:58.721Z,7,GR86-022-13,-49.0,0.101,-0.712,22.05,4.0,,0.0,0.0,
2025-08-15T04:45:58.764Z,7,GR86-022-13,-49.0,0.08,-0.6920000000000001,22.03,4.0,3255.0,0.0,0.0,
2025-08-15T04:45:58.850Z,7,GR86-022-13,-48.3,0.111,-0.662,22.03,4.0,,0.0,0.0,83.11
2025-08-15T04:45:58.893Z,7,GR86-022-13,-47.400000000000006,0.079,-0.71,22.03,4.0,,0.0,0.0,
2025-08-15T04:45:58.937Z,7,GR86-022-13,-46.2,0.097,-0.669,22.03,4.0,,0.0,0.0,
2025-08-15T04:45:58.979Z,7,GR86-022-13,-45.5,0.104,-0.665,22.03,4.0,3276.0,0.0,0.0,
2025-08-15T04:45:59.022Z,7,GR86-022-13,-45.3,0.103,-0.6940000000000001,22.03,4.0,,0.0,0.0,83.42
2025-08-15T04:45:59.065Z,7,GR86-022-13,-45.3,0.097,-0.6960000000000001,22.03,4.0,,0.0,0.0,
2025-08-15T04:45:59.108Z,7,GR86-022-13,-45.3,0.099,-0.664,22.03,4.0,,0.0,0.0,
2025-08-15T04:45:59.151Z,7,GR86-022-13,-45.2,0.099,-0.7030000000000001,22.03,4.0,,0.0,0.0,
2025-08-15T04:45:59.194Z,7,GR86-022-13,-45.2,0.108,-0.666,22.01,4.0,3290.0,0.0,0.0,
2025-08-15T04:45:59.238Z,7,GR86-022-13,-45.0,0.091,-0.665,22.02,4.0,,0.0,0.0,83.42
2025-08-15T04:45:59.281Z,7,GR86-022-13,-44.900000000000006,0.094,-0.677,22.0,4.0,,0.0,0.0,
2025-08-15T04:45:59.324Z,7,GR86-022-13,-44.6,0.102,-0.671,22.0,4.0,,0.0,0.0,
2025-08-15T04:45:59.368Z,7,GR86-022-13,-44.3,0.104,-0.665,22.0,4.0,,0.0,0.0,
2025-08-15T04:45:59.410Z,7,GR86-022-13,-44.2,0.105,-0.676,21.99,4.0,3304.0,0.0,0.0,
2025-08-15T04:45:59.453Z,7,GR86-022-13,-44.2,0.11,-0.669,22.0,4.0,,0.0,0.0,83.85000000000001
2025-08-15T04:45:59.497Z,7,GR86-022-13,-44.2,0.085,-0.704,22.0,4.0,,0.0,0.0,
2025-08-15T04:45:59.539Z,7,GR86-022-13,-43.900000000000006,0.091,-0.687,22.0,4.0,,0.0,0.0,
2025-08-15T04:45:59.582Z,7,GR86-022-13,-43.2,0.092,-0.678,22.0,4.0,,0.0,0.0,
2025-08-15T04:45:59.627Z,7,GR86-022-13,-42.5,0.112,-0.657,21.99,4.0,3328.0,0.0,0.0,
2025-08-15T04:45:59.669Z,7,GR86-022-13,-42.400000000000006,0.114,-0.644,21.99,4.0,,0.0,0.0,84.47
2025-08-15T04:45:59.712Z,7,GR86-022-13,-42.3,0.119,-0.621,22.0,4.0,,0.0,0.0,
2025-08-15T04:45:59.755Z,7,GR86-022-13,-42.3,0.083,-0.618,22.0,4.0,,0.0,0.0,
2025-08-15T04:45:59.798Z,7,GR86-022-13,-42.3,0.085,-0.619,22.0,4.0,,0.0,0.0,
2025-08-15T04:45:59.841Z,7,GR86-022-13,-42.3,0.104,-0.615,21.99,4.0,3351.0,0.0,0.0,
2025-08-15T04:45:59.884Z,7,GR86-022-13,-42.1,0.102,-0.607,22.0,4.0,,0.0,0.0,85.8
2025-08-15T04:45:59.928Z,7,GR86-022-13,-42.0,0.095,-0.634,21.99,4.0,,0.0,0.0,
2025-08-15T04:45:59.971Z,7,GR86-022-13,-41.3,0.099,-0.627,21.22,4.0,,0.0,0.0,
2025-08-15T04:46:00.014Z,7,GR86-022-13,-40.5,0.097,-0.655,20.57,4.0,,0.0,0.0,
2025-08-15T04:46:00.058Z,7,GR86-022-13,-39.900000000000006,0.082,-0.629,20.29,4.0,3380.0,0.0,0.0,
2025-08-15T04:46:00.101Z,7,GR86-022-13,-39.7,0.098,-0.636,20.23,4.0,,0.0,0.0,86.3
2025-08-15T04:46:00.144Z,7,GR86-022-13,-39.5,0.084,-0.626,19.99,4.0,,0.0,0.0,
2025-08-15T04:46:00.188Z,7,GR86-022-13,-39.400000000000006,0.093,-0.61,19.65,4.0,,0.0,0.0,
2025-08-15T04:46:00.230Z,7,GR86-022-13,-39.2,0.076,-0.621,19.46,4.0,,0.0,0.0,
2025-08-15T04:46:00.273Z,7,GR86-022-13,-38.900000000000006,0.087,-0.62,18.79,4.0,3402.0,0.0,0.0,
2025-08-15T04:46:00.317Z,7,GR86-022-13,-37.8,0.089,-0.614,15.09,4.0,,0.0,0.0,86.89
2025-08-15T04:46:00.359Z,7,GR86-022-13,-36.9,0.087,-0.605,12.79,4.0,,0.0,0.0,
2025-08-15T04:46:00.402Z,7,GR86-022-13,-36.2,0.065,-0.603,11.51,4.0,,0.0,0.0,
2025-08-15T04:46:00.445Z,7,GR86-022-13,-35.7,0.058,-0.598,11.56,4.0,,0.0,0.0,
2025-08-15T04:46:00.488Z,7,GR86-022-13,-35.300000000000004,0.026,-0.603,12.25,4.0,3441.0,0.0,0.0,
2025-08-15T04:46:00.532Z,7,GR86-022-13,-35.1,0.03,-0.588,12.43,4.0,,0.0,0.0,87.51
2025-08-15T04:46:00.575Z,7,GR86-022-13,-34.9,0.017,-0.595,12.45,4.0,,0.0,0.0,
2025-08-15T04:46:00.618Z,7,GR86-022-13,-34.6,0.035,-0.608,12.17,4.0,,0.0,0.0,
2025-08-15T04:46:00.661Z,7,GR86-022-13,-34.0,0.017,-0.595,12.71,4.0,,0.0,0.0,
2025-08-15T04:46:00.704Z,7,GR86-022-13,-33.2,0.025,-0.58,13.48,4.0,3433.0,0.0,0.0,
2025-08-15T04:46:00.748Z,7,GR86-022-13,-32.800000000000004,0.018,-0.58,14.07,4.0,,0.0,0.0,88.09
2025-08-15T04:46:00.791Z,7,GR86-022-13,-32.300000000000004,0.031,-0.586,15.21,4.0,,0.0,0.0,
2025-08-15T04:46:00.834Z,7,GR86-022-13,-31.700000000000003,0.013,-0.5680000000000001,16.4,4.0,,0.0,0.0,
2025-08-15T04:46:00.878Z,7,GR86-022-13,-31.0,0.031,-0.547,18.03,4.0,,0.0,0.0,
2025-08-15T04:46:00.921Z,7,GR86-022-13,-30.8,0.047,-0.539,18.19,4.0,3443.0,0.0,0.0,
2025-08-15T04:46:00.964Z,7,GR86-022-13,-30.700000000000003,0.066,-0.538,18.26,4.0,,0.0,0.0,88.38
2025-08-15T04:46:01.008Z,7,GR86-022-13,-30.5,0.055,-0.52,18.77,4.0,,0.0,0.0,
2025-08-15T04:46:01.050Z,7,GR86-022-13,-29.700000000000003,0.068,-0.517,19.18,4.0,,0.0,0.0,
2025-08-15T04:46:01.093Z,7,GR86-022-13,-28.9,0.074,-0.51,19.31,4.0,,0.0,0.0,
2025-08-15T04:46:01.137Z,7,GR86-022-13,-27.9,0.077,-0.471,19.49,4.0,3454.0,0.0,0.0,
2025-08-15T04:46:01.181Z,7,GR86-022-13,-27.6,0.077,-0.453,19.72,4.0,,0.0,0.0,88.42
2025-08-15T04:46:01.224Z,7,GR86-022-13,-27.5,0.082,-0.451,19.84,4.0,,0.0,0.0,
2025-08-15T04:46:01.268Z,7,GR86-022-13,-27.5,0.09,-0.432,20.13,4.0,,0.0,0.0,
2025-08-15T04:46:01.310Z,7,GR86-022-13,-27.5,0.091,-0.432,20.37,4.0,,0.0,0.0,
2025-08-15T04:46:01.353Z,7,GR86-022-13,-27.5,0.086,-0.418,20.43,4.0,3479.0,0.0,0.0,
2025-08-15T04:46:01.397Z,7,GR86-022-13,-27.5,0.093,-0.434,20.33,4.0,,0.0,0.0,88.58
2025-08-15T04:46:01.441Z,7,GR86-022-13,-27.5,0.113,-0.423,19.72,4.0,,0.0,0.0,
2025-08-15T04:46:01.484Z,7,GR86-022-13,-27.5,0.095,-0.434,19.56,4.0,,0.0,0.0,
2025-08-15T04:46:01.528Z,7,GR86-022-13,-27.4,0.097,-0.422,19.23,4.0,,0.0,0.0,
2025-08-15T04:46:01.570Z,7,GR86-022-13,-27.0,0.088,-0.44,17.93,4.0,3487.0,0.0,0.0,
2025-08-15T04:46:01.613Z,7,GR86-022-13,-26.4,0.102,-0.431,14.6,4.0,,0.0,0.0,88.94
2025-08-15T04:46:01.657Z,7,GR86-022-13,-25.200000000000003,0.077,-0.431,9.64,4.0,,0.0,0.0,
2025-08-15T04:46:01.699Z,7,GR86-022-13,-24.1,0.066,-0.414,7.63,4.0,,0.0,0.0,
2025-08-15T04:46:01.743Z,7,GR86-022-13,-23.4,0.032,-0.401,6.9,4.0,,0.0,0.0,
2025-08-15T04:46:01.787Z,7,GR86-022-13,-22.700000000000003,0.021,-0.389,6.61,4.0,3504.0,0.0,0.0,
2025-08-15T04:46:01.829Z,7,GR86-022-13,-21.8,-0.009,-0.393,6.1000000000000005,4.0,,0.0,0.0,89.42
2025-08-15T04:46:01.872Z,7,GR86-022-13,-20.700000000000003,0.003,-0.376,5.76,4.0,,0.0,0.0,
2025-08-15T04:46:01.915Z,7,GR86-022-13,-19.3,-0.016,-0.364,5.57,4.0,,0.0,0.0,
2025-08-15T04:46:01.958Z,7,GR86-022-13,-16.1,-0.031,-0.353,5.64,4.0,,0.0,0.0,
2025-08-15T04:46:02.001Z,7,GR86-022-13,-13.7,-0.033,-0.333,6.36,4.0,3517.0,0.0,0.0,
2025-08-15T04:46:02.044Z,7,GR86-022-13,-11.3,-0.04,-0.293,8.31,4.0,,0.0,0.0,90.02
2025-08-15T04:46:02.088Z,7,GR86-022-13,-8.700000000000001,-0.038,-0.269,9.84,4.0,,0.0,0.0,
2025-08-15T04:46:02.130Z,7,GR86-022-13,-5.9,-0.124,-0.21,11.86,4.0,,0.0,0.0,
2025-08-15T04:46:02.173Z,7,GR86-022-13,-3.0,-0.084,-0.166,11.21,4.0,,0.0,0.0,
2025-08-15T04:46:02.217Z,7,GR86-022-13,1.7000000000000002,-0.023,-0.088,8.18,4.0,3507.0,0.0,0.0,
2025-08-15T04:46:02.259Z,7,GR86-022-13,5.1000000000000005,-0.021,-0.026,10.87,4.0,,0.0,0.0,90.38
2025-08-15T04:46:02.302Z,7,GR86-022-13,8.8,-0.032,0.023,12.57,4.0,,0.0,0.0,
2025-08-15T04:46:02.345Z,7,GR86-022-13,12.6,-0.008,0.089,13.01,4.0,,0.0,0.0,
2025-08-15T04:46:02.388Z,7,GR86-022-13,16.3,0.051,0.155,13.08,4.0,,0.0,0.0,
2025-08-15T04:46:02.431Z,7,GR86-022-13,19.700000000000003,0.018,0.217,15.98,4.0,3404.0,0.0,0.0,
2025-08-15T04:46:02.474Z,7,GR86-022-13,22.700000000000003,-0.035,0.297,18.13,4.0,,0.0,0.0,90.32
2025-08-15T04:46:02.518Z,7,GR86-022-13,26.200000000000003,-0.02,0.379,18.37,4.0,,0.0,0.0,
2025-08-15T04:46:02.560Z,7,GR86-022-13,27.6,0.077,0.435,18.36,4.0,,0.0,0.0,
2025-08-15T04:46:02.603Z,7,GR86-022-13,28.1,0.077,0.471,18.35,4.0,,0.0,0.0,
2025-08-15T04:46:02.648Z,7,GR86-022-13,28.1,0.048,0.487,18.35,4.0,3534.0,0.0,0.0,
2025-08-15T04:46:02.691Z,7,GR86-022-13,27.9,0.039,0.502,18.35,4.0,,0.0,0.0,89.57000000000001
2025-08-15T04:46:02.734Z,7,GR86-022-13,27.200000000000003,0.07,0.5,18.16,4.0,,0.0,0.0,
2025-08-15T04:46:02.778Z,7,GR86-022-13,25.8,0.091,0.486,17.62,4.0,,0.0,0.0,
2025-08-15T04:46:02.821Z,7,GR86-022-13,24.6,0.077,0.466,17.46,4.0,,0.0,0.0,
2025-08-15T04:46:02.864Z,7,GR86-022-13,23.1,0.067,0.458,15.81,4.0,3448.0,0.0,0.0,
2025-08-15T04:46:02.908Z,7,GR86-022-13,20.9,0.082,0.447,15.06,4.0,,0.0,0.0,89.49
2025-08-15T04:46:02.950Z,7,GR86-022-13,17.7,0.077,0.426,14.23,4.0,,0.0,0.0,
2025-08-15T04:46:02.993Z,7,GR86-022-13,13.3,0.067,0.391,13.65,4.0,,0.0,0.0,
2025-08-15T04:46:03.037Z,7,GR86-022-13,4.9,0.041,0.288,13.18,4.0,,0.0,0.0,
2025-08-15T04:46:03.079Z,7,GR86-022-13,-1.4,0.046,0.223,13.26,4.0,3517.0,0.0,0.0,
2025-08-15T04:46:03.122Z,7,GR86-022-13,-8.0,0.032,0.107,15.3,4.0,,0.0,0.0,89.84
2025-08-15T04:46:03.165Z,7,GR86-022-13,-14.5,0.025,0.008,17.8,4.0,,0.0,0.0,
2025-08-15T04:46:03.208Z,7,GR86-022-13,-20.5,0.025,-0.118,18.29,4.0,,0.0,0.0,
2025-08-15T04:46:03.251Z,7,GR86-022-13,-25.9,0.041,-0.251,19.2,4.0,,0.0,0.0,
2025-08-15T04:46:03.294Z,7,GR86-022-13,-30.6,0.048,-0.341,20.51,4.0,3520.0,0.0,0.0,
2025-08-15T04:46:03.338Z,7,GR86-022-13,-35.7,0.06,-0.485,22.19,4.0,,0.0,0.0,90.22
2025-08-15T04:46:03.381Z,7,GR86-022-13,-37.7,0.081,-0.546,22.24,4.0,,0.0,0.0,
2025-08-15T04:46:03.424Z,7,GR86-022-13,-38.6,0.099,-0.605,22.25,4.0,,0.0,0.0,
2025-08-15T04:46:03.468Z,7,GR86-022-13,-38.7,0.101,-0.617,22.25,4.0,,0.0,0.0,
2025-08-15T04:46:03.510Z,7,GR86-022-13,-38.7,0.088,-0.641,22.24,4.0,3539.0,0.0,0.0,
2025-08-15T04:46:03.553Z,7,GR86-022-13,-38.7,0.098,-0.638,22.25,4.0,,0.0,0.0,90.5
2025-08-15T04:46:03.599Z,7,GR86-022-13,-38.7,0.085,-0.652,22.22,4.0,,0.0,0.0,
2025-08-15T04:46:03.641Z,7,GR86-022-13,-38.7,0.107,-0.651,22.2,4.0,,0.0,0.0,
2025-08-15T04:46:03.684Z,7,GR86-022-13,-38.3,0.078,-0.66,22.16,4.0,,0.0,0.0,
2025-08-15T04:46:03.728Z,7,GR86-022-13,-37.5,0.095,-0.649,22.12,4.0,3555.0,0.0,0.0,
2025-08-15T04:46:03.770Z,7,GR86-022-13,-36.4,0.09,-0.651,22.1,4.0,,0.0,0.0,90.81
2025-08-15T04:46:03.813Z,7,GR86-022-13,-34.4,0.105,-0.646,22.09,4.0,,0.0,0.0,
2025-08-15T04:46:03.857Z,7,GR86-022-13,-30.0,0.109,-0.609,22.06,4.0,,0.0,0.0,
2025-08-15T04:46:03.899Z,7,GR86-022-13,-26.1,0.104,-0.5730000000000001,22.03,4.0,,0.0,0.0,
2025-08-15T04:46:03.942Z,7,GR86-022-13,-21.200000000000003,0.12,-0.525,22.03,4.0,3580.0,0.0,0.0,
2025-08-15T04:46:03.985Z,7,GR86-022-13,-15.3,0.105,-0.452,22.0,4.0,,0.0,0.0,91.21
2025-08-15T04:46:04.028Z,7,GR86-022-13,-8.200000000000001,0.113,-0.388,22.0,4.0,,0.0,0.0,
2025-08-15T04:46:04.071Z,7,GR86-022-13,-0.5,0.112,-0.272,21.98,4.0,,0.0,0.0,
2025-08-15T04:46:04.114Z,7,GR86-022-13,7.0,0.127,-0.166,21.98,4.0,,0.0,0.0,
2025-08-15T04:46:04.158Z,7,GR86-022-13,16.5,0.103,0.008,22.75,4.0,3604.0,0.0,0.0,
2025-08-15T04:46:04.201Z,7,GR86-022-13,22.5,0.116,0.143,22.98,4.0,,0.0,0.0,91.75
2025-08-15T04:46:04.244Z,7,GR86-022-13,28.1,0.099,0.273,23.08,4.0,,0.0,0.0,
2025-08-15T04:46:04.288Z,7,GR86-022-13,33.1,0.111,0.387,23.12,4.0,,0.0,0.0,
2025-08-15T04:46:04.331Z,7,GR86-022-13,37.3,0.1,0.495,23.14,4.0,,0.0,0.0,
2025-08-15T04:46:04.375Z,7,GR86-022-13,40.2,0.102,0.582,23.14,4.0,3630.0,0.0,0.0,
2025-08-15T04:46:04.418Z,7,GR86-022-13,41.8,0.105,0.658,23.13,4.0,,0.0,0.0,92.33
2025-08-15T04:46:04.461Z,7,GR86-022-13,41.8,0.09,0.6990000000000001,23.11,4.0,,0.0,0.0,
2025-08-15T04:46:04.504Z,7,GR86-022-13,41.8,0.097,0.719,23.08,4.0,,0.0,0.0,
2025-08-15T04:46:04.548Z,7,GR86-022-13,41.8,0.093,0.734,22.73,4.0,,0.0,0.0,
2025-08-15T04:46:04.591Z,7,GR86-022-13,41.5,0.086,0.744,22.41,4.0,3643.0,0.0,0.0,
2025-08-15T04:46:04.634Z,7,GR86-022-13,40.400000000000006,0.086,0.753,22.13,4.0,,0.0,0.0,92.98
2025-08-15T04:46:04.678Z,7,GR86-022-13,37.2,0.096,0.75,21.98,4.0,,0.0,0.0,
2025-08-15T04:46:04.721Z,7,GR86-022-13,33.800000000000004,0.105,0.711,21.93,4.0,,0.0,0.0,
2025-08-15T04:46:04.764Z,7,GR86-022-13,29.200000000000003,0.1,0.68,21.9,4.0,,0.0,0.0,
2025-08-15T04:46:04.808Z,7,GR86-022-13,23.3,0.098,0.612,21.88,4.0,3673.0,0.0,0.0,
2025-08-15T04:46:04.850Z,7,GR86-022-13,16.0,0.093,0.55,21.71,4.0,,0.0,0.0,93.61
2025-08-15T04:46:04.893Z,7,GR86-022-13,7.5,0.112,0.448,19.25,4.0,,0.0,0.0,
2025-08-15T04:46:04.937Z,7,GR86-022-13,-5.300000000000001,0.107,0.273,8.23,4.0,,0.0,0.0,
2025-08-15T04:46:04.979Z,7,GR86-022-13,-13.5,0.096,0.119,6.63,4.0,,0.0,0.0,
2025-08-15T04:46:05.022Z,7,GR86-022-13,-21.200000000000003,0.057,-0.044,4.15,4.0,3699.0,0.0,0.0,
2025-08-15T04:46:05.065Z,7,GR86-022-13,-28.4,0.004,-0.203,3.85,4.0,,0.0,0.0,94.1
2025-08-15T04:46:05.108Z,7,GR86-022-13,-34.4,-0.056,-0.367,3.56,4.0,,0.0,0.0,
2025-08-15T04:46:05.151Z,7,GR86-022-13,-38.6,-0.038,-0.474,3.33,4.0,,0.0,0.0,
2025-08-15T04:46:05.194Z,7,GR86-022-13,-40.900000000000006,-0.239,-0.609,3.17,4.0,,0.0,0.0,
2025-08-15T04:46:05.238Z,7,GR86-022-13,-41.400000000000006,-0.106,-0.711,3.01,4.0,3712.0,0.0,0.0,
2025-08-15T04:46:05.281Z,7,GR86-022-13,-41.400000000000006,-0.042,-0.742,2.92,4.0,,0.0,0.0,95.09
2025-08-15T04:46:05.324Z,7,GR86-022-13,-41.0,-0.052,-0.781,2.82,4.0,,0.0,0.0,
2025-08-15T04:46:05.368Z,7,GR86-022-13,-40.3,-0.065,-0.776,2.88,4.0,,0.0,0.0,
2025-08-15T04:46:05.410Z,7,GR86-022-13,-40.0,-0.163,-0.783,3.46,4.0,,0.0,0.0,
2025-08-15T04:46:05.453Z,7,GR86-022-13,-39.8,-0.122,-0.801,4.03,4.0,3646.0,0.0,0.0,
2025-08-15T04:46:05.497Z,7,GR86-022-13,-38.3,-0.05,-0.798,4.43,4.0,,0.0,0.0,95.05
2025-08-15T04:46:05.539Z,7,GR86-022-13,-36.4,-0.091,-0.789,6.18,4.0,,0.0,0.0,
2025-08-15T04:46:05.582Z,7,GR86-022-13,-33.7,-0.107,-0.759,7.28,4.0,,0.0,0.0,
2025-08-15T04:46:05.627Z,7,GR86-022-13,-30.4,-0.092,-0.724,7.31,4.0,,0.0,0.0,
2025-08-15T04:46:05.670Z,7,GR86-022-13,-25.9,-0.03,-0.7000000000000001,7.44,4.0,3750.0,0.0,0.0,
2025-08-15T04:46:05.713Z,7,GR86-022-13,-20.4,-0.048,-0.623,12.53,4.0,,0.0,0.0,94.25
2025-08-15T04:46:05.757Z,7,GR86-022-13,-10.0,-0.016,-0.501,17.93,4.0,,0.0,0.0,
2025-08-15T04:46:05.799Z,7,GR86-022-13,-2.4000000000000004,-0.049,-0.402,20.3,4.0,,0.0,0.0,
2025-08-15T04:46:05.842Z,7,GR86-022-13,4.800000000000001,-0.047,-0.265,21.52,4.0,,0.0,0.0,
2025-08-15T04:46:05.885Z,7,GR86-022-13,11.7,-0.016,-0.144,21.69,4.0,3619.0,0.0,0.0,
2025-08-15T04:46:05.928Z,7,GR86-022-13,18.4,0.013,0.008,21.84,4.0,,0.0,0.0,93.37
2025-08-15T04:46:05.971Z,7,GR86-022-13,24.6,0.306,0.138,21.84,4.0,,0.0,0.0,
2025-08-15T04:46:06.014Z,7,GR86-022-13,30.5,0.172,0.289,21.97,4.0,,0.0,0.0,
2025-08-15T04:46:06.058Z,7,GR86-022-13,39.3,-0.049,0.485,22.0,4.0,,0.0,0.0,
2025-08-15T04:46:06.101Z,7,GR86-022-13,43.900000000000006,0.081,0.6,22.03,4.0,3659.0,0.0,0.0,
2025-08-15T04:46:06.144Z,7,GR86-022-13,46.8,0.204,0.7000000000000001,22.03,4.0,,0.0,0.0,92.73
2025-08-15T04:46:06.188Z,7,GR86-022-13,47.900000000000006,0.077,0.783,22.03,4.0,,0.0,0.0,
2025-08-15T04:46:06.230Z,7,GR86-022-13,47.900000000000006,0.011,0.8140000000000001,22.03,4.0,,0.0,0.0,
2025-08-15T04:46:06.273Z,7,GR86-022-13,47.7,0.059,0.849,22.06,4.0,,0.0,0.0,
2025-08-15T04:46:06.317Z,7,GR86-022-13,47.2,0.12,0.879,21.0,4.0,3634.0,0.0,0.0,
2025-08-15T04:46:06.359Z,7,GR86-022-13,46.3,0.078,0.879,19.57,4.0,,0.0,0.0,92.55
2025-08-15T04:46:06.402Z,7,GR86-022-13,44.7,0.043,0.873,11.62,4.0,,0.0,0.0,
2025-08-15T04:46:06.445Z,7,GR86-022-13,42.7,0.084,0.837,6.24,4.0,,0.0,0.0,
2025-08-15T04:46:06.488Z,7,GR86-022-13,39.7,0.071,0.835,4.51,4.0,,0.0,0.0,
2025-08-15T04:46:06.531Z,7,GR86-022-13,35.9,0.005,0.78,4.12,4.0,3706.0,0.0,0.0,
2025-08-15T04:46:06.574Z,7,GR86-022-13,31.1,-0.061,0.751,3.73,4.0,,0.0,0.0,93.0
2025-08-15T04:46:06.618Z,7,GR86-022-13,22.6,-0.279,0.622,3.33,4.0,,0.0,0.0,
2025-08-15T04:46:06.704Z,7,GR86-022-13,15.9,-0.131,0.552,3.18,4.0,,0.0,0.0,
2025-08-15T04:46:06.748Z,7,GR86-022-13,-0.2,-0.036,0.32,2.99,4.0,3664.0,0.0,0.0,
2025-08-15T04:46:06.791Z,7,GR86-022-13,-7.9,-0.038,0.206,2.88,4.0,,0.0,0.0,94.28
2025-08-15T04:46:06.834Z,7,GR86-022-13,-15.5,-0.055,0.049,2.76,4.0,,0.0,0.0,
2025-08-15T04:46:06.878Z,7,GR86-022-13,-26.6,-0.159,-0.18,2.62,4.0,,0.0,0.0,
2025-08-15T04:46:06.921Z,7,GR86-022-13,-32.9,-0.05,-0.315,2.58,4.0,,0.0,0.0,
2025-08-15T04:46:06.964Z,7,GR86-022-13,-37.7,-0.059,-0.47,2.54,4.0,3693.0,0.0,0.0,
2025-08-15T04:46:07.008Z,7,GR86-022-13,-41.2,-0.073,-0.5630000000000001,2.51,4.0,,0.0,0.0,93.5
2025-08-15T04:46:07.050Z,7,GR86-022-13,-43.8,-0.153,-0.654,2.49,4.0,,0.0,0.0,
2025-08-15T04:46:07.093Z,7,GR86-022-13,-45.3,-0.108,-0.728,2.48,4.0,,0.0,0.0,
2025-08-15T04:46:07.137Z,7,GR86-022-13,-46.2,-0.056,-0.79,2.74,4.0,,0.0,0.0,
2025-08-15T04:46:07.181Z,7,GR86-022-13,-46.2,-0.094,-0.801,3.67,4.0,3547.0,0.0,0.0,
2025-08-15T04:46:07.224Z,7,GR86-022-13,-46.2,-0.113,-0.8210000000000001,8.97,4.0,,0.0,0.0,92.68
2025-08-15T04:46:07.268Z,7,GR86-022-13,-46.2,-0.106,-0.8320000000000001,14.16,4.0,,0.0,0.0,
2025-08-15T04:46:07.310Z,7,GR86-022-13,-45.5,-0.071,-0.841,17.34,4.0,,0.0,0.0,
2025-08-15T04:46:07.353Z,7,GR86-022-13,-44.2,-0.051,-0.8290000000000001,18.42,4.0,,0.0,0.0,
2025-08-15T04:46:07.397Z,7,GR86-022-13,-41.5,-0.046,-0.8230000000000001,21.28,4.0,3552.0,0.0,0.0,
2025-08-15T04:46:07.441Z,7,GR86-022-13,-39.0,-0.062,-0.803,21.52,4.0,,0.0,0.0,91.92
2025-08-15T04:46:07.484Z,7,GR86-022-13,-35.7,0.016,-0.773,21.67,4.0,,0.0,0.0,
2025-08-15T04:46:07.528Z,7,GR86-022-13,-30.9,0.192,-0.718,21.75,4.0,,0.0,0.0,
2025-08-15T04:46:07.570Z,7,GR86-022-13,-25.0,0.131,-0.6890000000000001,21.85,4.0,,0.0,0.0,
2025-08-15T04:46:07.613Z,7,GR86-022-13,-18.2,0.008,-0.589,21.93,4.0,3519.0,0.0,0.0,
2025-08-15T04:46:07.699Z,7,GR86-022-13,-5.2,0.145,-0.421,21.99,4.0,,0.0,0.0,91.11
2025-08-15T04:46:07.742Z,7,GR86-022-13,13.6,0.133,-0.108,22.04,4.0,,0.0,0.0,
2025-08-15T04:46:07.787Z,7,GR86-022-13,21.9,0.074,0.026,22.67,4.0,,0.0,0.0,
2025-08-15T04:46:07.829Z,7,GR86-022-13,29.200000000000003,0.122,0.197,22.79,4.0,3651.0,0.0,0.0,
2025-08-15T04:46:07.872Z,7,GR86-022-13,35.300000000000004,0.151,0.361,22.85,4.0,,0.0,0.0,90.21
2025-08-15T04:46:07.915Z,7,GR86-022-13,40.1,0.117,0.495,22.88,4.0,,0.0,0.0,
2025-08-15T04:46:07.958Z,7,GR86-022-13,43.7,0.074,0.633,22.94,4.0,,0.0,0.0,
2025-08-15T04:46:08.001Z,7,GR86-022-13,43.8,0.082,0.723,22.92,4.0,,0.0,0.0,
2025-08-15T04:46:08.044Z,7,GR86-022-13,43.400000000000006,0.108,0.749,22.88,4.0,3593.0,0.0,0.0,
2025-08-15T04:46:08.088Z,7,GR86-022-13,42.3,0.079,0.777,22.81,4.0,,0.0,0.0,90.4
2025-08-15T04:46:08.131Z,7,GR86-022-13,41.5,0.079,0.763,22.47,4.0,,0.0,0.0,
2025-08-15T04:46:08.173Z,7,GR86-022-13,40.8,0.082,0.782,22.19,4.0,,0.0,0.0,
2025-08-15T04:46:08.217Z,7,GR86-022-13,38.0,0.104,0.765,22.06,4.0,,0.0,0.0,
2025-08-15T04:46:08.259Z,7,GR86-022-13,34.9,0.101,0.736,22.03,4.0,3558.0,0.0,0.0,
2025-08-15T04:46:08.302Z,7,GR86-022-13,30.4,0.103,0.6990000000000001,7.930000000000001,4.0,,0.0,0.0,90.95
2025-08-15T04:46:08.345Z,7,GR86-022-13,24.200000000000003,0.111,0.63,3.59,4.0,,0.0,0.0,
2025-08-15T04:46:08.388Z,7,GR86-022-13,16.1,0.088,0.5630000000000001,3.78,4.0,,0.0,0.0,
2025-08-15T04:46:08.432Z,7,GR86-022-13,7.1000000000000005,-0.059,0.446,3.75,4.0,,0.0,0.0,
2025-08-15T04:46:08.475Z,7,GR86-022-13,-0.2,-0.025,0.327,3.69,4.0,3568.0,0.0,0.0,
2025-08-15T04:46:08.518Z,7,GR86-022-13,-5.6000000000000005,-0.23,0.102,3.46,4.0,,0.0,0.0,91.42
2025-08-15T04:46:08.561Z,7,GR86-022-13,-7.6,-0.039,0.053,3.29,4.0,,0.0,0.0,
2025-08-15T04:46:08.604Z,7,GR86-022-13,-10.1,-0.043,-0.089,3.18,4.0,,0.0,0.0,
2025-08-15T04:46:08.648Z,7,GR86-022-13,-12.6,-0.038,-0.153,3.0500000000000003,4.0,,0.0,0.0,
2025-08-15T04:46:08.690Z,7,GR86-022-13,-14.6,-0.018,-0.194,2.98,4.0,3353.0,0.0,0.0,
2025-08-15T04:46:08.733Z,7,GR86-022-13,-16.5,-0.116,-0.284,2.86,4.0,,0.0,0.0,91.87
2025-08-15T04:46:08.778Z,7,GR86-022-13,-18.1,-0.121,-0.286,2.69,4.0,,0.0,0.0,
2025-08-15T04:46:08.821Z,7,GR86-022-13,-18.3,-0.013,-0.332,2.64,4.0,,0.0,0.0,
2025-08-15T04:46:08.864Z,7,GR86-022-13,-18.3,-0.045,-0.345,2.62,4.0,,0.0,0.0,
2025-08-15T04:46:08.908Z,7,GR86-022-13,-18.6,-0.057,-0.334,2.57,4.0,3481.0,0.0,0.0,
2025-08-15T04:46:08.950Z,7,GR86-022-13,-19.3,-0.148,-0.354,3.34,4.0,,0.0,0.0,91.36
2025-08-15T04:46:08.993Z,7,GR86-022-13,-20.6,-0.083,-0.36,6.3100000000000005,4.0,,0.0,0.0,
2025-08-15T04:46:09.037Z,7,GR86-022-13,-23.6,-0.048,-0.38,15.71,4.0,,0.0,0.0,
2025-08-15T04:46:09.079Z,7,GR86-022-13,-25.8,-0.068,-0.396,18.61,4.0,,0.0,0.0,
2025-08-15T04:46:09.122Z,7,GR86-022-13,-27.5,-0.072,-0.426,20.41,4.0,3491.0,0.0,0.0,
2025-08-15T04:46:09.165Z,7,GR86-022-13,-27.9,-0.035,-0.446,21.01,4.0,,0.0,0.0,90.71
2025-08-15T04:46:09.208Z,7,GR86-022-13,-27.9,-0.035,-0.466,21.33,4.0,,0.0,0.0,
2025-08-15T04:46:09.251Z,7,GR86-022-13,-28.0,0.023,-0.499,21.47,4.0,,0.0,0.0,
2025-08-15T04:46:09.294Z,7,GR86-022-13,-27.5,0.217,-0.473,21.59,4.0,,0.0,0.0,
2025-08-15T04:46:09.338Z,7,GR86-022-13,-26.1,0.056,-0.507,21.76,4.0,3447.0,0.0,0.0,
2025-08-15T04:46:09.381Z,7,GR86-022-13,-24.5,0.011,-0.472,21.84,4.0,,0.0,0.0,89.98
2025-08-15T04:46:09.424Z,7,GR86-022-13,-22.1,0.13,-0.456,21.9,4.0,,0.0,0.0,
2025-08-15T04:46:09.468Z,7,GR86-022-13,-19.4,0.189,-0.451,21.97,4.0,,0.0,0.0,
2025-08-15T04:46:09.510Z,7,GR86-022-13,-16.1,0.109,-0.372,22.0,4.0,,0.0,0.0,
2025-08-15T04:46:09.553Z,7,GR86-022-13,-12.2,0.039,-0.333,22.03,4.0,3641.0,0.0,0.0,
2025-08-15T04:46:09.597Z,7,GR86-022-13,-5.6000000000000005,0.155,-0.232,21.91,4.0,,0.0,0.0,89.32000000000001
2025-08-15T04:46:09.641Z,7,GR86-022-13,-1.8,0.158,-0.171,21.77,4.0,,0.0,0.0,
2025-08-15T04:46:09.684Z,7,GR86-022-13,2.2,0.083,-0.092,21.86,4.0,,0.0,0.0,
2025-08-15T04:46:09.728Z,7,GR86-022-13,6.6000000000000005,0.089,-0.026,21.74,4.0,,0.0,0.0,
2025-08-15T04:46:09.770Z,7,GR86-022-13,11.3,0.131,0.057,21.49,4.0,3517.0,0.0,0.0,
2025-08-15T04:46:09.813Z,7,GR86-022-13,15.9,0.147,0.119,21.36,4.0,,0.0,0.0,89.48
2025-08-15T04:46:09.857Z,7,GR86-022-13,22.200000000000003,0.079,0.233,21.17,4.0,,0.0,0.0,
2025-08-15T04:46:09.899Z,7,GR86-022-13,26.5,0.095,0.308,18.89,4.0,,0.0,0.0,
2025-08-15T04:46:09.942Z,7,GR86-022-13,29.8,0.108,0.388,8.71,4.0,,0.0,0.0,
2025-08-15T04:46:09.985Z,7,GR86-022-13,31.1,0.106,0.454,6.67,4.0,3483.0,0.0,0.0,
2025-08-15T04:46:10.028Z,7,GR86-022-13,31.200000000000003,0.049,0.505,6.63,4.0,,0.0,0.0,90.02
2025-08-15T04:46:10.071Z,7,GR86-022-13,31.200000000000003,0.015,0.544,5.33,4.0,,0.0,0.0,
2025-08-15T04:46:10.114Z,7,GR86-022-13,31.200000000000003,-0.016,0.5700000000000001,3.44,4.0,,0.0,0.0,
2025-08-15T04:46:10.158Z,7,GR86-022-13,31.1,-0.05,0.595,3.33,4.0,,0.0,0.0,
2025-08-15T04:46:10.201Z,7,GR86-022-13,30.5,-0.027,0.581,3.2,4.0,3535.0,0.0,0.0,
2025-08-15T04:46:10.244Z,7,GR86-022-13,29.200000000000003,-0.192,0.589,3.08,4.0,,0.0,0.0,90.65
2025-08-15T04:46:10.288Z,7,GR86-022-13,26.8,-0.192,0.5750000000000001,3.0,4.0,,0.0,0.0,
2025-08-15T04:46:10.331Z,7,GR86-022-13,22.5,-0.034,0.5680000000000001,2.89,4.0,,0.0,0.0,
2025-08-15T04:46:10.375Z,7,GR86-022-13,16.5,-0.039,0.487,2.8000000000000003,4.0,,0.0,0.0,
2025-08-15T04:46:10.418Z,7,GR86-022-13,6.2,-0.049,0.41,2.64,4.0,3531.0,0.0,0.0,
2025-08-15T04:46:10.461Z,7,GR86-022-13,-0.1,-0.145,0.282,2.6,4.0,,0.0,0.0,91.3
2025-08-15T04:46:10.504Z,7,GR86-022-13,-5.4,-0.111,0.189,2.54,4.0,,0.0,0.0,
2025-08-15T04:46:10.548Z,7,GR86-022-13,-10.2,-0.035,0.078,2.52,4.0,,0.0,0.0,
2025-08-15T04:46:10.591Z,7,GR86-022-13,-14.8,-0.052,-0.053,3.17,4.0,,0.0,0.0,
2025-08-15T04:46:10.634Z,7,GR86-022-13,-19.0,-0.086,-0.163,7.22,4.0,3479.0,0.0,0.0,
2025-08-15T04:46:10.678Z,7,GR86-022-13,-24.0,-0.096,-0.313,11.59,4.0,,0.0,0.0,90.68
2025-08-15T04:46:10.721Z,7,GR86-022-13,-26.3,-0.052,-0.379,11.57,4.0,,0.0,0.0,
2025-08-15T04:46:10.764Z,7,GR86-022-13,-27.9,-0.029,-0.446,11.77,4.0,,0.0,0.0,
2025-08-15T04:46:10.808Z,7,GR86-022-13,-28.4,-0.041,-0.479,13.64,4.0,,0.0,0.0,
2025-08-15T04:46:10.850Z,7,GR86-022-13,-28.4,-0.041,-0.499,16.62,4.0,3453.0,0.0,0.0,
2025-08-15T04:46:10.893Z,7,GR86-022-13,-28.4,-0.026,-0.513,17.63,4.0,,0.0,0.0,89.89
2025-08-15T04:46:10.937Z,7,GR86-022-13,-28.1,0.069,-0.507,18.48,4.0,,0.0,0.0,
2025-08-15T04:46:10.979Z,7,GR86-022-13,-28.200000000000003,0.075,-0.518,19.49,4.0,,0.0,0.0,
2025-08-15T04:46:11.022Z,7,GR86-022-13,-27.9,0.041,-0.531,20.91,4.0,,0.0,0.0,
2025-08-15T04:46:11.065Z,7,GR86-022-13,-27.9,0.008,-0.486,21.19,4.0,3463.0,0.0,0.0,
2025-08-15T04:46:11.108Z,7,GR86-022-13,-27.8,0.1,-0.488,21.18,4.0,,0.0,0.0,89.16
2025-08-15T04:46:11.151Z,7,GR86-022-13,-27.200000000000003,0.113,-0.494,21.17,4.0,,0.0,0.0,
2025-08-15T04:46:11.194Z,7,GR86-022-13,-26.1,0.108,-0.45,21.16,4.0,,0.0,0.0,
2025-08-15T04:46:11.238Z,7,GR86-022-13,-24.5,0.076,-0.46,21.11,4.0,,0.0,0.0,
2025-08-15T04:46:11.281Z,7,GR86-022-13,-21.4,0.115,-0.416,20.85,4.0,3480.0,0.0,0.0,
2025-08-15T04:46:11.324Z,7,GR86-022-13,-16.900000000000002,0.116,-0.396,20.75,4.0,,0.0,0.0,88.8
2025-08-15T04:46:11.368Z,7,GR86-022-13,-10.3,0.113,-0.367,20.74,4.0,,0.0,0.0,
2025-08-15T04:46:11.411Z,7,GR86-022-13,-4.800000000000001,0.092,-0.29,20.75,4.0,,0.0,0.0,
2025-08-15T04:46:11.453Z,7,GR86-022-13,2.5,0.118,-0.198,20.74,4.0,,0.0,0.0,
2025-08-15T04:46:11.497Z,7,GR86-022-13,14.0,0.127,-0.054,20.67,4.0,3503.0,0.0,0.0,
2025-08-15T04:46:11.539Z,7,GR86-022-13,21.1,0.102,0.094,20.42,4.0,,0.0,0.0,88.99
2025-08-15T04:46:11.582Z,7,GR86-022-13,27.4,0.108,0.221,20.09,4.0,,0.0,0.0,
2025-08-15T04:46:11.628Z,7,GR86-022-13,30.1,0.112,0.341,19.16,4.0,,0.0,0.0,
2025-08-15T04:46:11.671Z,7,GR86-022-13,31.0,0.106,0.426,14.22,4.0,,0.0,0.0,
2025-08-15T04:46:11.714Z,7,GR86-022-13,31.200000000000003,0.082,0.509,7.52,4.0,3517.0,0.0,0.0,
2025-08-15T04:46:11.758Z,7,GR86-022-13,31.200000000000003,0.062,0.559,4.21,4.0,,0.0,0.0,89.53
2025-08-15T04:46:11.801Z,7,GR86-022-13,31.200000000000003,0.007,0.592,3.97,4.0,,0.0,0.0,
2025-08-15T04:46:11.844Z,7,GR86-022-13,31.200000000000003,-0.057,0.598,3.68,4.0,,0.0,0.0,
2025-08-15T04:46:11.888Z,7,GR86-022-13,30.9,-0.036,0.611,3.43,4.0,,0.0,0.0,
2025-08-15T04:46:11.930Z,7,GR86-022-13,30.1,-0.214,0.581,3.25,4.0,3523.0,0.0,0.0,
2025-08-15T04:46:11.973Z,7,GR86-022-13,28.700000000000003,-0.17,0.6,3.13,4.0,,0.0,0.0,90.14
2025-08-15T04:46:12.017Z,7,GR86-022-13,25.200000000000003,-0.031,0.5650000000000001,2.98,4.0,,0.0,0.0,
2025-08-15T04:46:12.059Z,7,GR86-022-13,22.200000000000003,-0.04,0.553,2.87,4.0,,0.0,0.0,
2025-08-15T04:46:12.102Z,7,GR86-022-13,19.9,-0.04,0.53,2.76,4.0,,0.0,0.0,
2025-08-15T04:46:12.145Z,7,GR86-022-13,17.1,-0.163,0.45,2.65,4.0,3366.0,0.0,0.0,
2025-08-15T04:46:12.188Z,7,GR86-022-13,14.2,-0.118,0.434,2.61,4.0,,0.0,0.0,90.67
2025-08-15T04:46:12.232Z,7,GR86-022-13,10.3,-0.029,0.35,2.56,4.0,,0.0,0.0,
2025-08-15T04:46:12.275Z,7,GR86-022-13,4.9,-0.045,0.294,2.54,4.0,,0.0,0.0,
2025-08-15T04:46:12.318Z,7,GR86-022-13,-2.3000000000000003,-0.108,0.163,2.51,4.0,,0.0,0.0,
2025-08-15T04:46:12.361Z,7,GR86-022-13,-7.800000000000001,-0.096,0.079,2.49,4.0,3461.0,0.0,0.0,
2025-08-15T04:46:12.404Z,7,GR86-022-13,-12.6,-0.042,-0.029,2.48,4.0,,0.0,0.0,90.28
2025-08-15T04:46:12.448Z,7,GR86-022-13,-19.1,-0.06,-0.117,2.47,4.0,,0.0,0.0,
2025-08-15T04:46:12.491Z,7,GR86-022-13,-25.9,-0.081,-0.25,2.47,4.0,,0.0,0.0,
2025-08-15T04:46:12.534Z,7,GR86-022-13,-29.3,-0.112,-0.33,2.47,4.0,,0.0,0.0,
2025-08-15T04:46:12.578Z,7,GR86-022-13,-36.2,-0.068,-0.473,2.53,4.0,3427.0,0.0,0.0,
2025-08-15T04:46:12.621Z,7,GR86-022-13,-40.3,-0.094,-0.531,3.42,4.0,,0.0,0.0,89.57000000000001
2025-08-15T04:46:12.664Z,7,GR86-022-13,-43.8,-0.092,-0.597,4.86,4.0,,0.0,0.0,
2025-08-15T04:46:12.708Z,7,GR86-022-13,-47.0,-0.108,-0.669,9.39,4.0,,0.0,0.0,
2025-08-15T04:46:12.750Z,7,GR86-022-13,-47.900000000000006,-0.083,-0.712,12.62,4.0,,0.0,0.0,
2025-08-15T04:46:12.793Z,7,GR86-022-13,-47.7,-0.099,-0.727,17.47,4.0,3401.0,0.0,0.0,
2025-08-15T04:46:12.837Z,7,GR86-022-13,-46.400000000000006,-0.037,-0.783,19.34,4.0,,0.0,0.0,88.88
2025-08-15T04:46:12.881Z,7,GR86-022-13,-45.900000000000006,-0.063,-0.782,21.47,4.0,,0.0,0.0,
2025-08-15T04:46:12.924Z,7,GR86-022-13,-45.0,-0.045,-0.804,21.58,4.0,,0.0,0.0,
2025-08-15T04:46:12.968Z,7,GR86-022-13,-43.2,0.058,-0.805,21.69,4.0,,0.0,0.0,
2025-08-15T04:46:13.010Z,7,GR86-022-13,-41.400000000000006,0.22,-0.778,21.77,4.0,3396.0,0.0,0.0,
2025-08-15T04:46:13.053Z,7,GR86-022-13,-37.7,0.066,-0.76,21.86,4.0,,0.0,0.0,88.27
2025-08-15T04:46:13.097Z,7,GR86-022-13,-33.2,0.029,-0.675,21.97,4.0,,0.0,0.0,
2025-08-15T04:46:13.141Z,7,GR86-022-13,-29.4,0.141,-0.631,21.99,4.0,,0.0,0.0,
2025-08-15T04:46:13.184Z,7,GR86-022-13,-24.1,0.161,-0.586,22.03,4.0,,0.0,0.0,
2025-08-15T04:46:13.228Z,7,GR86-022-13,-19.200000000000003,0.108,-0.496,22.06,4.0,3404.0,0.0,0.0,
2025-08-15T04:46:13.270Z,7,GR86-022-13,-13.9,0.079,-0.414,22.06,4.0,,0.0,0.0,87.57000000000001
2025-08-15T04:46:13.313Z,7,GR86-022-13,-9.6,0.118,-0.361,22.08,4.0,,0.0,0.0,
2025-08-15T04:46:13.357Z,7,GR86-022-13,0.9,0.122,-0.198,22.09,4.0,,0.0,0.0,
2025-08-15T04:46:13.399Z,7,GR86-022-13,5.300000000000001,0.088,-0.107,22.08,4.0,,0.0,0.0,
2025-08-15T04:46:13.444Z,7,GR86-022-13,11.1,0.084,0.017,22.09,4.0,3350.0,0.0,0.0,
2025-08-15T04:46:13.487Z,7,GR86-022-13,18.0,0.143,0.099,22.08,4.0,,0.0,0.0,87.64
2025-08-15T04:46:13.529Z,7,GR86-022-13,23.5,0.129,0.225,22.09,4.0,,0.0,0.0,
2025-08-15T04:46:13.572Z,7,GR86-022-13,28.9,0.102,0.313,22.06,4.0,,0.0,0.0,
2025-08-15T04:46:13.615Z,7,GR86-022-13,32.5,0.081,0.416,22.07,4.0,,0.0,0.0,
2025-08-15T04:46:13.658Z,7,GR86-022-13,37.8,0.122,0.539,22.06,4.0,3433.0,0.0,0.0,
2025-08-15T04:46:13.701Z,7,GR86-022-13,39.1,0.103,0.6,22.07,4.0,,0.0,0.0,88.34
2025-08-15T04:46:13.744Z,7,GR86-022-13,39.1,0.102,0.632,20.29,4.0,,0.0,0.0,
2025-08-15T04:46:13.788Z,7,GR86-022-13,39.1,0.095,0.663,8.39,4.0,,0.0,0.0,
2025-08-15T04:46:13.830Z,7,GR86-022-13,39.0,0.104,0.671,6.76,4.0,,0.0,0.0,
2025-08-15T04:46:13.873Z,7,GR86-022-13,38.6,0.079,0.6950000000000001,6.57,4.0,3492.0,0.0,0.0,
2025-08-15T04:46:13.917Z,7,GR86-022-13,37.4,-0.023,0.713,4.8,4.0,,0.0,0.0,89.10000000000001
2025-08-15T04:46:13.959Z,7,GR86-022-13,35.300000000000004,-0.009,0.704,3.45,4.0,,0.0,0.0,
2025-08-15T04:46:14.002Z,7,GR86-022-13,33.1,-0.055,0.7010000000000001,3.36,4.0,,0.0,0.0,
2025-08-15T04:46:14.045Z,7,GR86-022-13,29.4,-0.046,0.668,3.23,4.0,,0.0,0.0,
2025-08-15T04:46:14.088Z,7,GR86-022-13,24.8,-0.126,0.631,3.12,4.0,3493.0,0.0,0.0,
2025-08-15T04:46:14.131Z,7,GR86-022-13,20.8,-0.22,0.5630000000000001,3.01,4.0,,0.0,0.0,89.83
2025-08-15T04:46:14.174Z,7,GR86-022-13,15.7,-0.072,0.54,2.93,4.0,,0.0,0.0,
2025-08-15T04:46:14.218Z,7,GR86-022-13,6.4,-0.044,0.397,2.75,4.0,,0.0,0.0,
2025-08-15T04:46:14.260Z,7,GR86-022-13,0.2,-0.042,0.336,2.66,4.0,,0.0,0.0,
2025-08-15T04:46:14.304Z,7,GR86-022-13,-4.4,-0.105,0.19,2.6,4.0,3336.0,0.0,0.0,
2025-08-15T04:46:14.348Z,7,GR86-022-13,-11.6,-0.143,0.094,2.5500000000000003,4.0,,0.0,0.0,90.21
2025-08-15T04:46:14.390Z,7,GR86-022-13,-16.7,-0.055,-0.025,2.52,4.0,,0.0,0.0,
2025-08-15T04:46:14.433Z,7,GR86-022-13,-21.0,-0.041,-0.147,2.63,4.0,,0.0,0.0,
2025-08-15T04:46:14.478Z,7,GR86-022-13,-26.5,-0.111,-0.291,6.83,4.0,,0.0,0.0,
2025-08-15T04:46:14.521Z,7,GR86-022-13,-29.9,-0.121,-0.381,13.28,4.0,3398.0,0.0,0.0,
2025-08-15T04:46:14.564Z,7,GR86-022-13,-32.9,-0.064,-0.452,13.95,4.0,,0.0,0.0,89.68
2025-08-15T04:46:14.608Z,7,GR86-022-13,-35.1,-0.05,-0.516,14.43,4.0,,0.0,0.0,
2025-08-15T04:46:14.650Z,7,GR86-022-13,-36.7,-0.049,-0.5630000000000001,17.21,4.0,,0.0,0.0,
2025-08-15T04:46:14.693Z,7,GR86-022-13,-37.4,-0.052,-0.604,18.2,4.0,,0.0,0.0,
2025-08-15T04:46:14.737Z,7,GR86-022-13,-37.4,0.043,-0.63,19.75,4.0,3391.0,0.0,0.0,
2025-08-15T04:46:14.779Z,7,GR86-022-13,-37.4,0.109,-0.661,21.08,4.0,,0.0,0.0,89.02
2025-08-15T04:46:14.822Z,7,GR86-022-13,-37.4,0.046,-0.659,21.95,4.0,,0.0,0.0,
2025-08-15T04:46:14.865Z,7,GR86-022-13,-37.4,0.023,-0.66,22.03,4.0,,0.0,0.0,
2025-08-15T04:46:14.908Z,7,GR86-022-13,-37.4,0.089,-0.658,22.07,4.0,,0.0,0.0,
2025-08-15T04:46:14.951Z,7,GR86-022-13,-36.7,0.136,-0.648,22.09,4.0,3493.0,0.0,0.0,
2025-08-15T04:46:14.994Z,7,GR86-022-13,-34.7,0.107,-0.63,22.11,4.0,,0.0,0.0,88.47
2025-08-15T04:46:15.038Z,7,GR86-022-13,-28.4,0.069,-0.581,22.12,4.0,,0.0,0.0,
2025-08-15T04:46:15.081Z,7,GR86-022-13,-22.4,0.101,-0.534,22.11,4.0,,0.0,0.0,
2025-08-15T04:46:15.124Z,7,GR86-022-13,-16.0,0.135,-0.481,22.11,4.0,,0.0,0.0,
2025-08-15T04:46:15.168Z,7,GR86-022-13,-9.7,0.094,-0.39,22.11,4.0,3466.0,0.0,0.0,
2025-08-15T04:46:15.210Z,7,GR86-022-13,-3.9,0.099,-0.321,22.09,4.0,,0.0,0.0,88.22
2025-08-15T04:46:15.253Z,7,GR86-022-13,1.8,0.1,-0.202,22.1,4.0,,0.0,0.0,
2025-08-15T04:46:15.297Z,7,GR86-022-13,10.3,0.144,-0.041,22.09,4.0,,0.0,0.0,
2025-08-15T04:46:15.341Z,7,GR86-022-13,15.9,0.113,0.083,22.09,4.0,,0.0,0.0,
2025-08-15T04:46:15.384Z,7,GR86-022-13,22.0,0.113,0.19,22.1,4.0,3503.0,0.0,0.0,
2025-08-15T04:46:15.428Z,7,GR86-022-13,28.3,0.114,0.303,22.08,4.0,,0.0,0.0,88.58
2025-08-15T04:46:15.470Z,7,GR86-022-13,34.300000000000004,0.119,0.418,22.07,4.0,,0.0,0.0,
2025-08-15T04:46:15.513Z,7,GR86-022-13,39.3,0.096,0.507,22.06,4.0,,0.0,0.0,
2025-08-15T04:46:15.557Z,7,GR86-022-13,42.900000000000006,0.078,0.644,22.05,4.0,,0.0,0.0,
2025-08-15T04:46:15.599Z,7,GR86-022-13,42.900000000000006,0.09,0.678,22.03,4.0,3510.0,0.0,0.0,
2025-08-15T04:46:15.642Z,7,GR86-022-13,42.3,0.078,0.723,22.03,4.0,,0.0,0.0,89.24
2025-08-15T04:46:15.685Z,7,GR86-022-13,41.0,0.088,0.74,22.03,4.0,,0.0,0.0,
2025-08-15T04:46:15.728Z,7,GR86-022-13,39.8,0.077,0.743,22.0,4.0,,0.0,0.0,
2025-08-15T04:46:15.771Z,7,GR86-022-13,38.400000000000006,0.084,0.732,22.0,4.0,,0.0,0.0,
2025-08-15T04:46:15.814Z,7,GR86-022-13,36.5,0.077,0.735,21.99,4.0,3531.0,0.0,0.0,
2025-08-15T04:46:15.858Z,7,GR86-022-13,32.6,0.107,0.6960000000000001,20.22,4.0,,0.0,0.0,89.96000000000001
2025-08-15T04:46:15.901Z,7,GR86-022-13,29.200000000000003,0.099,0.664,17.490000000000002,4.0,,0.0,0.0,
2025-08-15T04:46:15.944Z,7,GR86-022-13,24.9,0.097,0.604,7.54,4.0,,0.0,0.0,
2025-08-15T04:46:15.988Z,7,GR86-022-13,19.8,0.096,0.5680000000000001,6.65,4.0,,0.0,0.0,
